key_resp_3.keys,key_resp_3.rt,slider.response,slider.rt,rjt_rating,rjt_RT,trials_22.thisRepN,trials_22.thisTrialN,trials_22.thisN,trials_22.thisIndex,trials_22.ran,rjt_order,word1,word2,attention,participant,session,date,expName,psychopyVersion,OS,frameRate,trials_99.thisRepN,trials_99.thisTrialN,trials_99.thisN,trials_99.thisIndex,trials_99.ran,trials_5.thisRepN,trials_5.thisTrialN,trials_5.thisN,trials_5.thisIndex,trials_5.ran,repOne,repTwo,slider_2.response,slider_2.rt,trials_24.thisRepN,trials_24.thisTrialN,trials_24.thisN,trials_24.thisIndex,trials_24.ran,trials_4.thisRepN,trials_4.thisTrialN,trials_4.thisN,trials_4.thisIndex,trials_4.ran,slider_extend_2.response,slider_extend_2.rt,trials_6.thisRepN,trials_6.thisTrialN,trials_6.thisN,trials_6.thisIndex,trials_6.ran,vCue2,R1,R2,R3,R4,correct,sliderVocab.response,sliderVocab.rt,trials_7.thisRepN,trials_7.thisTrialN,trials_7.thisN,trials_7.thisIndex,trials_7.ran,VocabCue,VR1,VR2,VR3,VR4,VR5,VocabCorrect,AUT_resp,AUT_label,trials.thisRepN,trials.thisTrialN,trials.thisN,trials.thisIndex,trials.ran,trials_2.thisRepN,trials_2.thisTrialN,trials_2.thisN,trials_2.thisIndex,trials_2.ran,aut_prompt,VF_response,VF_tag,trials_16.thisRepN,trials_16.thisTrialN,trials_16.thisN,trials_16.thisIndex,trials_16.ran,trials_17.thisRepN,trials_17.thisTrialN,trials_17.thisN,trials_17.thisIndex,trials_17.ran,VFcond,open_slider.response,open_slider.rt,trials_3.thisRepN,trials_3.thisTrialN,trials_3.thisN,trials_3.thisIndex,trials_3.ran,OpenQ,Rev,OPEN_ORDER,key_resp_2.keys,key_resp_2.rt
return,8.1314,8,9.0753,8,9.0753,0,0,0,75,1,69,carrot,refrigerator,,88498,001,2022-04-25_00h23.53.934,SPAMnetsValid,2021.1.4,Win32,60.24822268,,,,,,,,,,,,,,,,,,,,,,,,,,,,,,,,,,,,,,,,,,,,,,,,,,,,,,,,,,,,,,,,,,,,,,,,,,,,,,,,,,,,,,,,,
,,7,3.2218,7,3.2218,0,1,1,80,1,61,strawberry,tomato,,88498,001,2022-04-25_00h23.53.934,SPAMnetsValid,2021.1.4,Win32,60.24822268,,,,,,,,,,,,,,,,,,,,,,,,,,,,,,,,,,,,,,,,,,,,,,,,,,,,,,,,,,,,,,,,,,,,,,,,,,,,,,,,,,,,,,,,,
,,2,1.5805,2,1.5805,0,2,2,36,1,12,cookie,yogurt,,88498,001,2022-04-25_00h23.53.934,SPAMnetsValid,2021.1.4,Win32,60.24822268,,,,,,,,,,,,,,,,,,,,,,,,,,,,,,,,,,,,,,,,,,,,,,,,,,,,,,,,,,,,,,,,,,,,,,,,,,,,,,,,,,,,,,,,,
,,5,2.5739,5,2.5739,0,3,3,77,1,7,melon,tree,,88498,001,2022-04-25_00h23.53.934,SPAMnetsValid,2021.1.4,Win32,60.24822268,,,,,,,,,,,,,,,,,,,,,,,,,,,,,,,,,,,,,,,,,,,,,,,,,,,,,,,,,,,,,,,,,,,,,,,,,,,,,,,,,,,,,,,,,
,,3,13.9755,3,13.9755,0,4,4,54,1,28,cake,melon,,88498,001,2022-04-25_00h23.53.934,SPAMnetsValid,2021.1.4,Win32,60.24822268,,,,,,,,,,,,,,,,,,,,,,,,,,,,,,,,,,,,,,,,,,,,,,,,,,,,,,,,,,,,,,,,,,,,,,,,,,,,,,,,,,,,,,,,,
,,9,1.987,9,1.987,0,5,5,96,1,82,cake,kitchen,,88498,001,2022-04-25_00h23.53.934,SPAMnetsValid,2021.1.4,Win32,60.24822268,,,,,,,,,,,,,,,,,,,,,,,,,,,,,,,,,,,,,,,,,,,,,,,,,,,,,,,,,,,,,,,,,,,,,,,,,,,,,,,,,,,,,,,,,
,,7,2.2381,7,2.2381,0,6,6,22,1,16,chocolate,flower,,88498,001,2022-04-25_00h23.53.934,SPAMnetsValid,2021.1.4,Win32,60.24822268,,,,,,,,,,,,,,,,,,,,,,,,,,,,,,,,,,,,,,,,,,,,,,,,,,,,,,,,,,,,,,,,,,,,,,,,,,,,,,,,,,,,,,,,,
,,7,2.2717,7,2.2717,0,7,7,26,1,35,flower,pretzel,,88498,001,2022-04-25_00h23.53.934,SPAMnetsValid,2021.1.4,Win32,60.24822268,,,,,,,,,,,,,,,,,,,,,,,,,,,,,,,,,,,,,,,,,,,,,,,,,,,,,,,,,,,,,,,,,,,,,,,,,,,,,,,,,,,,,,,,,
,,1,1.8918,1,1.8918,0,8,8,56,1,78,cookie,rose,,88498,001,2022-04-25_00h23.53.934,SPAMnetsValid,2021.1.4,Win32,60.24822268,,,,,,,,,,,,,,,,,,,,,,,,,,,,,,,,,,,,,,,,,,,,,,,,,,,,,,,,,,,,,,,,,,,,,,,,,,,,,,,,,,,,,,,,,
,,1,1.457,1,1.457,0,9,9,8,1,43,chocolate,tomato,,88498,001,2022-04-25_00h23.53.934,SPAMnetsValid,2021.1.4,Win32,60.24822268,,,,,,,,,,,,,,,,,,,,,,,,,,,,,,,,,,,,,,,,,,,,,,,,,,,,,,,,,,,,,,,,,,,,,,,,,,,,,,,,,,,,,,,,,
,,1,1.0806,1,1.0806,0,10,10,20,1,39,melon,pretzel,,88498,001,2022-04-25_00h23.53.934,SPAMnetsValid,2021.1.4,Win32,60.24822268,,,,,,,,,,,,,,,,,,,,,,,,,,,,,,,,,,,,,,,,,,,,,,,,,,,,,,,,,,,,,,,,,,,,,,,,,,,,,,,,,,,,,,,,,
,,9,3.2895,9,3.2895,0,11,11,53,1,192,microwave,microwave,CHECK,88498,001,2022-04-25_00h23.53.934,SPAMnetsValid,2021.1.4,Win32,60.24822268,,,,,,,,,,,,,,,,,,,,,,,,,,,,,,,,,,,,,,,,,,,,,,,,,,,,,,,,,,,,,,,,,,,,,,,,,,,,,,,,,,,,,,,,,
,,9,1.6043,9,1.6043,0,12,12,95,1,52,carrot,tomato,,88498,001,2022-04-25_00h23.53.934,SPAMnetsValid,2021.1.4,Win32,60.24822268,,,,,,,,,,,,,,,,,,,,,,,,,,,,,,,,,,,,,,,,,,,,,,,,,,,,,,,,,,,,,,,,,,,,,,,,,,,,,,,,,,,,,,,,,
,,9,1.0576,9,1.0576,0,13,13,1,1,31,cactus,pretzel,,88498,001,2022-04-25_00h23.53.934,SPAMnetsValid,2021.1.4,Win32,60.24822268,,,,,,,,,,,,,,,,,,,,,,,,,,,,,,,,,,,,,,,,,,,,,,,,,,,,,,,,,,,,,,,,,,,,,,,,,,,,,,,,,,,,,,,,,
,,9,0.7527,9,0.7527,0,14,14,68,1,24,cookie,tomato,,88498,001,2022-04-25_00h23.53.934,SPAMnetsValid,2021.1.4,Win32,60.24822268,,,,,,,,,,,,,,,,,,,,,,,,,,,,,,,,,,,,,,,,,,,,,,,,,,,,,,,,,,,,,,,,,,,,,,,,,,,,,,,,,,,,,,,,,
,,7,2.2842,7,2.2842,0,15,15,41,1,19,microwave,pretzel,,88498,001,2022-04-25_00h23.53.934,SPAMnetsValid,2021.1.4,Win32,60.24822268,,,,,,,,,,,,,,,,,,,,,,,,,,,,,,,,,,,,,,,,,,,,,,,,,,,,,,,,,,,,,,,,,,,,,,,,,,,,,,,,,,,,,,,,,
,,6,1.537,6,1.537,0,16,16,33,1,32,cake,microwave,,88498,001,2022-04-25_00h23.53.934,SPAMnetsValid,2021.1.4,Win32,60.24822268,,,,,,,,,,,,,,,,,,,,,,,,,,,,,,,,,,,,,,,,,,,,,,,,,,,,,,,,,,,,,,,,,,,,,,,,,,,,,,,,,,,,,,,,,
,,1,1.7364,1,1.7364,0,17,17,70,1,5,oven,tree,,88498,001,2022-04-25_00h23.53.934,SPAMnetsValid,2021.1.4,Win32,60.24822268,,,,,,,,,,,,,,,,,,,,,,,,,,,,,,,,,,,,,,,,,,,,,,,,,,,,,,,,,,,,,,,,,,,,,,,,,,,,,,,,,,,,,,,,,
,,1,1.7129,1,1.7129,0,18,18,27,1,72,broom,onion,,88498,001,2022-04-25_00h23.53.934,SPAMnetsValid,2021.1.4,Win32,60.24822268,,,,,,,,,,,,,,,,,,,,,,,,,,,,,,,,,,,,,,,,,,,,,,,,,,,,,,,,,,,,,,,,,,,,,,,,,,,,,,,,,,,,,,,,,
,,9,1.6932,9,1.6932,0,19,19,24,1,17,carrot,melon,,88498,001,2022-04-25_00h23.53.934,SPAMnetsValid,2021.1.4,Win32,60.24822268,,,,,,,,,,,,,,,,,,,,,,,,,,,,,,,,,,,,,,,,,,,,,,,,,,,,,,,,,,,,,,,,,,,,,,,,,,,,,,,,,,,,,,,,,
,,7,2.4,7,2.4,0,20,20,52,1,4,chocolate,pretzel,,88498,001,2022-04-25_00h23.53.934,SPAMnetsValid,2021.1.4,Win32,60.24822268,,,,,,,,,,,,,,,,,,,,,,,,,,,,,,,,,,,,,,,,,,,,,,,,,,,,,,,,,,,,,,,,,,,,,,,,,,,,,,,,,,,,,,,,,
,,1,1.3997,1,1.3997,0,21,21,40,1,74,broom,pretzel,,88498,001,2022-04-25_00h23.53.934,SPAMnetsValid,2021.1.4,Win32,60.24822268,,,,,,,,,,,,,,,,,,,,,,,,,,,,,,,,,,,,,,,,,,,,,,,,,,,,,,,,,,,,,,,,,,,,,,,,,,,,,,,,,,,,,,,,,
,,1,1.7626,1,1.7626,0,22,22,12,1,67,flower,yogurt,,88498,001,2022-04-25_00h23.53.934,SPAMnetsValid,2021.1.4,Win32,60.24822268,,,,,,,,,,,,,,,,,,,,,,,,,,,,,,,,,,,,,,,,,,,,,,,,,,,,,,,,,,,,,,,,,,,,,,,,,,,,,,,,,,,,,,,,,
,,1,1.5806,1,1.5806,0,23,23,0,1,53,garden,pretzel,,88498,001,2022-04-25_00h23.53.934,SPAMnetsValid,2021.1.4,Win32,60.24822268,,,,,,,,,,,,,,,,,,,,,,,,,,,,,,,,,,,,,,,,,,,,,,,,,,,,,,,,,,,,,,,,,,,,,,,,,,,,,,,,,,,,,,,,,
,,8,2.1589,8,2.1589,0,24,24,72,1,59,rose,strawberry,,88498,001,2022-04-25_00h23.53.934,SPAMnetsValid,2021.1.4,Win32,60.24822268,,,,,,,,,,,,,,,,,,,,,,,,,,,,,,,,,,,,,,,,,,,,,,,,,,,,,,,,,,,,,,,,,,,,,,,,,,,,,,,,,,,,,,,,,
,,9,1.4715,9,1.4715,0,25,25,19,1,76,garden,rose,,88498,001,2022-04-25_00h23.53.934,SPAMnetsValid,2021.1.4,Win32,60.24822268,,,,,,,,,,,,,,,,,,,,,,,,,,,,,,,,,,,,,,,,,,,,,,,,,,,,,,,,,,,,,,,,,,,,,,,,,,,,,,,,,,,,,,,,,
,,7,1.3439,7,1.3439,0,26,26,94,1,68,flower,tomato,,88498,001,2022-04-25_00h23.53.934,SPAMnetsValid,2021.1.4,Win32,60.24822268,,,,,,,,,,,,,,,,,,,,,,,,,,,,,,,,,,,,,,,,,,,,,,,,,,,,,,,,,,,,,,,,,,,,,,,,,,,,,,,,,,,,,,,,,
,,5,2.8186,5,2.8186,0,27,27,37,1,58,garden,oven,,88498,001,2022-04-25_00h23.53.934,SPAMnetsValid,2021.1.4,Win32,60.24822268,,,,,,,,,,,,,,,,,,,,,,,,,,,,,,,,,,,,,,,,,,,,,,,,,,,,,,,,,,,,,,,,,,,,,,,,,,,,,,,,,,,,,,,,,
,,5,1.8238,5,1.8238,0,28,28,67,1,54,chocolate,yogurt,,88498,001,2022-04-25_00h23.53.934,SPAMnetsValid,2021.1.4,Win32,60.24822268,,,,,,,,,,,,,,,,,,,,,,,,,,,,,,,,,,,,,,,,,,,,,,,,,,,,,,,,,,,,,,,,,,,,,,,,,,,,,,,,,,,,,,,,,
,,5,0.8061,5,0.8061,0,29,29,83,1,6,garden,onion,,88498,001,2022-04-25_00h23.53.934,SPAMnetsValid,2021.1.4,Win32,60.24822268,,,,,,,,,,,,,,,,,,,,,,,,,,,,,,,,,,,,,,,,,,,,,,,,,,,,,,,,,,,,,,,,,,,,,,,,,,,,,,,,,,,,,,,,,
,,5,0.3189,5,0.3189,0,30,30,25,1,23,flower,microwave,,88498,001,2022-04-25_00h23.53.934,SPAMnetsValid,2021.1.4,Win32,60.24822268,,,,,,,,,,,,,,,,,,,,,,,,,,,,,,,,,,,,,,,,,,,,,,,,,,,,,,,,,,,,,,,,,,,,,,,,,,,,,,,,,,,,,,,,,
,,5,0.0526,5,0.0526,0,31,31,90,1,95,broom,refrigerator,,88498,001,2022-04-25_00h23.53.934,SPAMnetsValid,2021.1.4,Win32,60.24822268,,,,,,,,,,,,,,,,,,,,,,,,,,,,,,,,,,,,,,,,,,,,,,,,,,,,,,,,,,,,,,,,,,,,,,,,,,,,,,,,,,,,,,,,,
,,5,0.0478,5,0.0478,0,32,32,32,1,40,broom,cake,,88498,001,2022-04-25_00h23.53.934,SPAMnetsValid,2021.1.4,Win32,60.24822268,,,,,,,,,,,,,,,,,,,,,,,,,,,,,,,,,,,,,,,,,,,,,,,,,,,,,,,,,,,,,,,,,,,,,,,,,,,,,,,,,,,,,,,,,
,,5,0.0631,5,0.0631,0,33,33,84,1,91,microwave,rose,,88498,001,2022-04-25_00h23.53.934,SPAMnetsValid,2021.1.4,Win32,60.24822268,,,,,,,,,,,,,,,,,,,,,,,,,,,,,,,,,,,,,,,,,,,,,,,,,,,,,,,,,,,,,,,,,,,,,,,,,,,,,,,,,,,,,,,,,
,,5,0.0461,5,0.0461,0,34,34,45,1,10,flower,onion,,88498,001,2022-04-25_00h23.53.934,SPAMnetsValid,2021.1.4,Win32,60.24822268,,,,,,,,,,,,,,,,,,,,,,,,,,,,,,,,,,,,,,,,,,,,,,,,,,,,,,,,,,,,,,,,,,,,,,,,,,,,,,,,,,,,,,,,,
,,5,0.0712,5,0.0712,0,35,35,17,1,27,cactus,cookie,,88498,001,2022-04-25_00h23.53.934,SPAMnetsValid,2021.1.4,Win32,60.24822268,,,,,,,,,,,,,,,,,,,,,,,,,,,,,,,,,,,,,,,,,,,,,,,,,,,,,,,,,,,,,,,,,,,,,,,,,,,,,,,,,,,,,,,,,
,,5,0.0778,5,0.0778,0,36,36,34,1,29,chocolate,melon,,88498,001,2022-04-25_00h23.53.934,SPAMnetsValid,2021.1.4,Win32,60.24822268,,,,,,,,,,,,,,,,,,,,,,,,,,,,,,,,,,,,,,,,,,,,,,,,,,,,,,,,,,,,,,,,,,,,,,,,,,,,,,,,,,,,,,,,,
,,5,0.0359,5,0.0359,0,37,37,43,1,11,refrigerator,tree,,88498,001,2022-04-25_00h23.53.934,SPAMnetsValid,2021.1.4,Win32,60.24822268,,,,,,,,,,,,,,,,,,,,,,,,,,,,,,,,,,,,,,,,,,,,,,,,,,,,,,,,,,,,,,,,,,,,,,,,,,,,,,,,,,,,,,,,,
,,5,0.0535,5,0.0535,0,38,38,81,1,60,cactus,onion,,88498,001,2022-04-25_00h23.53.934,SPAMnetsValid,2021.1.4,Win32,60.24822268,,,,,,,,,,,,,,,,,,,,,,,,,,,,,,,,,,,,,,,,,,,,,,,,,,,,,,,,,,,,,,,,,,,,,,,,,,,,,,,,,,,,,,,,,
,,5,0.0369,5,0.0369,0,39,39,44,1,25,carrot,onion,,88498,001,2022-04-25_00h23.53.934,SPAMnetsValid,2021.1.4,Win32,60.24822268,,,,,,,,,,,,,,,,,,,,,,,,,,,,,,,,,,,,,,,,,,,,,,,,,,,,,,,,,,,,,,,,,,,,,,,,,,,,,,,,,,,,,,,,,
,,5,0.0534,5,0.0534,0,40,40,39,1,15,onion,oven,,88498,001,2022-04-25_00h23.53.934,SPAMnetsValid,2021.1.4,Win32,60.24822268,,,,,,,,,,,,,,,,,,,,,,,,,,,,,,,,,,,,,,,,,,,,,,,,,,,,,,,,,,,,,,,,,,,,,,,,,,,,,,,,,,,,,,,,,
,,5,0.059,5,0.059,0,41,41,91,1,2,kitchen,onion,,88498,001,2022-04-25_00h23.53.934,SPAMnetsValid,2021.1.4,Win32,60.24822268,,,,,,,,,,,,,,,,,,,,,,,,,,,,,,,,,,,,,,,,,,,,,,,,,,,,,,,,,,,,,,,,,,,,,,,,,,,,,,,,,,,,,,,,,
,,5,0.0419,5,0.0419,0,42,42,89,1,80,chocolate,tree,,88498,001,2022-04-25_00h23.53.934,SPAMnetsValid,2021.1.4,Win32,60.24822268,,,,,,,,,,,,,,,,,,,,,,,,,,,,,,,,,,,,,,,,,,,,,,,,,,,,,,,,,,,,,,,,,,,,,,,,,,,,,,,,,,,,,,,,,
,,5,0.0355,5,0.0355,0,43,43,65,1,46,garden,yogurt,,88498,001,2022-04-25_00h23.53.934,SPAMnetsValid,2021.1.4,Win32,60.24822268,,,,,,,,,,,,,,,,,,,,,,,,,,,,,,,,,,,,,,,,,,,,,,,,,,,,,,,,,,,,,,,,,,,,,,,,,,,,,,,,,,,,,,,,,
,,5,0.1139,5,0.1139,0,44,44,93,1,63,cake,cookie,,88498,001,2022-04-25_00h23.53.934,SPAMnetsValid,2021.1.4,Win32,60.24822268,,,,,,,,,,,,,,,,,,,,,,,,,,,,,,,,,,,,,,,,,,,,,,,,,,,,,,,,,,,,,,,,,,,,,,,,,,,,,,,,,,,,,,,,,
,,5,0.0557,5,0.0557,0,45,45,60,1,89,chocolate,rose,,88498,001,2022-04-25_00h23.53.934,SPAMnetsValid,2021.1.4,Win32,60.24822268,,,,,,,,,,,,,,,,,,,,,,,,,,,,,,,,,,,,,,,,,,,,,,,,,,,,,,,,,,,,,,,,,,,,,,,,,,,,,,,,,,,,,,,,,
,,5,0.0746,5,0.0746,0,46,46,49,1,57,flower,kitchen,,88498,001,2022-04-25_00h23.53.934,SPAMnetsValid,2021.1.4,Win32,60.24822268,,,,,,,,,,,,,,,,,,,,,,,,,,,,,,,,,,,,,,,,,,,,,,,,,,,,,,,,,,,,,,,,,,,,,,,,,,,,,,,,,,,,,,,,,
,,5,0.0582,5,0.0582,0,47,47,64,1,9,kitchen,refrigerator,,88498,001,2022-04-25_00h23.53.934,SPAMnetsValid,2021.1.4,Win32,60.24822268,,,,,,,,,,,,,,,,,,,,,,,,,,,,,,,,,,,,,,,,,,,,,,,,,,,,,,,,,,,,,,,,,,,,,,,,,,,,,,,,,,,,,,,,,
,,5,0.019,5,0.019,0,48,48,38,1,88,cactus,melon,,88498,001,2022-04-25_00h23.53.934,SPAMnetsValid,2021.1.4,Win32,60.24822268,,,,,,,,,,,,,,,,,,,,,,,,,,,,,,,,,,,,,,,,,,,,,,,,,,,,,,,,,,,,,,,,,,,,,,,,,,,,,,,,,,,,,,,,,
,,5,0.0442,5,0.0442,0,49,49,6,1,87,carrot,yogurt,,88498,001,2022-04-25_00h23.53.934,SPAMnetsValid,2021.1.4,Win32,60.24822268,,,,,,,,,,,,,,,,,,,,,,,,,,,,,,,,,,,,,,,,,,,,,,,,,,,,,,,,,,,,,,,,,,,,,,,,,,,,,,,,,,,,,,,,,
,,5,0.0526,5,0.0526,0,50,50,63,1,21,cake,onion,,88498,001,2022-04-25_00h23.53.934,SPAMnetsValid,2021.1.4,Win32,60.24822268,,,,,,,,,,,,,,,,,,,,,,,,,,,,,,,,,,,,,,,,,,,,,,,,,,,,,,,,,,,,,,,,,,,,,,,,,,,,,,,,,,,,,,,,,
,,5,0.0695,5,0.0695,0,51,51,62,1,18,onion,refrigerator,,88498,001,2022-04-25_00h23.53.934,SPAMnetsValid,2021.1.4,Win32,60.24822268,,,,,,,,,,,,,,,,,,,,,,,,,,,,,,,,,,,,,,,,,,,,,,,,,,,,,,,,,,,,,,,,,,,,,,,,,,,,,,,,,,,,,,,,,
,,5,0.0638,5,0.0638,0,52,52,92,1,44,cookie,melon,,88498,001,2022-04-25_00h23.53.934,SPAMnetsValid,2021.1.4,Win32,60.24822268,,,,,,,,,,,,,,,,,,,,,,,,,,,,,,,,,,,,,,,,,,,,,,,,,,,,,,,,,,,,,,,,,,,,,,,,,,,,,,,,,,,,,,,,,
,,5,0.0468,5,0.0468,0,53,53,11,1,37,garden,refrigerator,,88498,001,2022-04-25_00h23.53.934,SPAMnetsValid,2021.1.4,Win32,60.24822268,,,,,,,,,,,,,,,,,,,,,,,,,,,,,,,,,,,,,,,,,,,,,,,,,,,,,,,,,,,,,,,,,,,,,,,,,,,,,,,,,,,,,,,,,
,,5,0.0322,5,0.0322,0,54,54,10,1,191,cake,cake,CHECK,88498,001,2022-04-25_00h23.53.934,SPAMnetsValid,2021.1.4,Win32,60.24822268,,,,,,,,,,,,,,,,,,,,,,,,,,,,,,,,,,,,,,,,,,,,,,,,,,,,,,,,,,,,,,,,,,,,,,,,,,,,,,,,,,,,,,,,,
,,5,0.0421,5,0.0421,0,55,55,35,1,55,tomato,tree,,88498,001,2022-04-25_00h23.53.934,SPAMnetsValid,2021.1.4,Win32,60.24822268,,,,,,,,,,,,,,,,,,,,,,,,,,,,,,,,,,,,,,,,,,,,,,,,,,,,,,,,,,,,,,,,,,,,,,,,,,,,,,,,,,,,,,,,,
,,5,0.0345,5,0.0345,0,56,56,28,1,84,oven,tomato,,88498,001,2022-04-25_00h23.53.934,SPAMnetsValid,2021.1.4,Win32,60.24822268,,,,,,,,,,,,,,,,,,,,,,,,,,,,,,,,,,,,,,,,,,,,,,,,,,,,,,,,,,,,,,,,,,,,,,,,,,,,,,,,,,,,,,,,,
,,5,0.0199,5,0.0199,0,57,57,46,1,41,broom,cactus,,88498,001,2022-04-25_00h23.53.934,SPAMnetsValid,2021.1.4,Win32,60.24822268,,,,,,,,,,,,,,,,,,,,,,,,,,,,,,,,,,,,,,,,,,,,,,,,,,,,,,,,,,,,,,,,,,,,,,,,,,,,,,,,,,,,,,,,,
,,5,0.0365,5,0.0365,0,58,58,15,1,48,flower,oven,,88498,001,2022-04-25_00h23.53.934,SPAMnetsValid,2021.1.4,Win32,60.24822268,,,,,,,,,,,,,,,,,,,,,,,,,,,,,,,,,,,,,,,,,,,,,,,,,,,,,,,,,,,,,,,,,,,,,,,,,,,,,,,,,,,,,,,,,
,,5,0.0446,5,0.0446,0,59,59,3,1,49,flower,strawberry,,88498,001,2022-04-25_00h23.53.934,SPAMnetsValid,2021.1.4,Win32,60.24822268,,,,,,,,,,,,,,,,,,,,,,,,,,,,,,,,,,,,,,,,,,,,,,,,,,,,,,,,,,,,,,,,,,,,,,,,,,,,,,,,,,,,,,,,,
,,5,0.0617,5,0.0617,0,60,60,16,1,14,broom,cookie,,88498,001,2022-04-25_00h23.53.934,SPAMnetsValid,2021.1.4,Win32,60.24822268,,,,,,,,,,,,,,,,,,,,,,,,,,,,,,,,,,,,,,,,,,,,,,,,,,,,,,,,,,,,,,,,,,,,,,,,,,,,,,,,,,,,,,,,,
,,5,0.0391,5,0.0391,0,61,61,9,1,75,cookie,onion,,88498,001,2022-04-25_00h23.53.934,SPAMnetsValid,2021.1.4,Win32,60.24822268,,,,,,,,,,,,,,,,,,,,,,,,,,,,,,,,,,,,,,,,,,,,,,,,,,,,,,,,,,,,,,,,,,,,,,,,,,,,,,,,,,,,,,,,,
,,5,0.0308,5,0.0308,0,62,62,51,1,47,onion,tomato,,88498,001,2022-04-25_00h23.53.934,SPAMnetsValid,2021.1.4,Win32,60.24822268,,,,,,,,,,,,,,,,,,,,,,,,,,,,,,,,,,,,,,,,,,,,,,,,,,,,,,,,,,,,,,,,,,,,,,,,,,,,,,,,,,,,,,,,,
,,5,0.0237,5,0.0237,0,63,63,2,1,22,kitchen,strawberry,,88498,001,2022-04-25_00h23.53.934,SPAMnetsValid,2021.1.4,Win32,60.24822268,,,,,,,,,,,,,,,,,,,,,,,,,,,,,,,,,,,,,,,,,,,,,,,,,,,,,,,,,,,,,,,,,,,,,,,,,,,,,,,,,,,,,,,,,
,,5,0.0537,5,0.0537,0,64,64,14,1,64,chocolate,garden,,88498,001,2022-04-25_00h23.53.934,SPAMnetsValid,2021.1.4,Win32,60.24822268,,,,,,,,,,,,,,,,,,,,,,,,,,,,,,,,,,,,,,,,,,,,,,,,,,,,,,,,,,,,,,,,,,,,,,,,,,,,,,,,,,,,,,,,,
,,5,0.0349,5,0.0349,0,65,65,55,1,1,rose,yogurt,,88498,001,2022-04-25_00h23.53.934,SPAMnetsValid,2021.1.4,Win32,60.24822268,,,,,,,,,,,,,,,,,,,,,,,,,,,,,,,,,,,,,,,,,,,,,,,,,,,,,,,,,,,,,,,,,,,,,,,,,,,,,,,,,,,,,,,,,
,,5,0.0356,5,0.0356,0,66,66,61,1,71,broom,rose,,88498,001,2022-04-25_00h23.53.934,SPAMnetsValid,2021.1.4,Win32,60.24822268,,,,,,,,,,,,,,,,,,,,,,,,,,,,,,,,,,,,,,,,,,,,,,,,,,,,,,,,,,,,,,,,,,,,,,,,,,,,,,,,,,,,,,,,,
,,5,0.037,5,0.037,0,67,67,66,1,20,rose,tree,,88498,001,2022-04-25_00h23.53.934,SPAMnetsValid,2021.1.4,Win32,60.24822268,,,,,,,,,,,,,,,,,,,,,,,,,,,,,,,,,,,,,,,,,,,,,,,,,,,,,,,,,,,,,,,,,,,,,,,,,,,,,,,,,,,,,,,,,
,,5,0.1659,5,0.1659,0,68,68,71,1,38,pretzel,refrigerator,,88498,001,2022-04-25_00h23.53.934,SPAMnetsValid,2021.1.4,Win32,60.24822268,,,,,,,,,,,,,,,,,,,,,,,,,,,,,,,,,,,,,,,,,,,,,,,,,,,,,,,,,,,,,,,,,,,,,,,,,,,,,,,,,,,,,,,,,
,,5,0.3197,5,0.3197,0,69,69,78,1,30,cookie,pretzel,,88498,001,2022-04-25_00h23.53.934,SPAMnetsValid,2021.1.4,Win32,60.24822268,,,,,,,,,,,,,,,,,,,,,,,,,,,,,,,,,,,,,,,,,,,,,,,,,,,,,,,,,,,,,,,,,,,,,,,,,,,,,,,,,,,,,,,,,
,,5,0.0625,5,0.0625,0,70,70,13,1,26,tomato,yogurt,,88498,001,2022-04-25_00h23.53.934,SPAMnetsValid,2021.1.4,Win32,60.24822268,,,,,,,,,,,,,,,,,,,,,,,,,,,,,,,,,,,,,,,,,,,,,,,,,,,,,,,,,,,,,,,,,,,,,,,,,,,,,,,,,,,,,,,,,
,,5,0.0556,5,0.0556,0,71,71,42,1,77,refrigerator,yogurt,,88498,001,2022-04-25_00h23.53.934,SPAMnetsValid,2021.1.4,Win32,60.24822268,,,,,,,,,,,,,,,,,,,,,,,,,,,,,,,,,,,,,,,,,,,,,,,,,,,,,,,,,,,,,,,,,,,,,,,,,,,,,,,,,,,,,,,,,
,,5,0.0314,5,0.0314,0,72,72,85,1,90,cactus,cake,,88498,001,2022-04-25_00h23.53.934,SPAMnetsValid,2021.1.4,Win32,60.24822268,,,,,,,,,,,,,,,,,,,,,,,,,,,,,,,,,,,,,,,,,,,,,,,,,,,,,,,,,,,,,,,,,,,,,,,,,,,,,,,,,,,,,,,,,
,,5,0.0728,5,0.0728,0,73,73,87,1,79,garden,strawberry,,88498,001,2022-04-25_00h23.53.934,SPAMnetsValid,2021.1.4,Win32,60.24822268,,,,,,,,,,,,,,,,,,,,,,,,,,,,,,,,,,,,,,,,,,,,,,,,,,,,,,,,,,,,,,,,,,,,,,,,,,,,,,,,,,,,,,,,,
,,5,0.0521,5,0.0521,0,74,74,23,1,65,broom,garden,,88498,001,2022-04-25_00h23.53.934,SPAMnetsValid,2021.1.4,Win32,60.24822268,,,,,,,,,,,,,,,,,,,,,,,,,,,,,,,,,,,,,,,,,,,,,,,,,,,,,,,,,,,,,,,,,,,,,,,,,,,,,,,,,,,,,,,,,
,,5,0.0361,5,0.0361,0,75,75,57,1,62,kitchen,rose,,88498,001,2022-04-25_00h23.53.934,SPAMnetsValid,2021.1.4,Win32,60.24822268,,,,,,,,,,,,,,,,,,,,,,,,,,,,,,,,,,,,,,,,,,,,,,,,,,,,,,,,,,,,,,,,,,,,,,,,,,,,,,,,,,,,,,,,,
,,5,0.0256,5,0.0256,0,76,76,76,1,36,broom,kitchen,,88498,001,2022-04-25_00h23.53.934,SPAMnetsValid,2021.1.4,Win32,60.24822268,,,,,,,,,,,,,,,,,,,,,,,,,,,,,,,,,,,,,,,,,,,,,,,,,,,,,,,,,,,,,,,,,,,,,,,,,,,,,,,,,,,,,,,,,
,,5,0.0532,5,0.0532,0,77,77,73,1,50,carrot,rose,,88498,001,2022-04-25_00h23.53.934,SPAMnetsValid,2021.1.4,Win32,60.24822268,,,,,,,,,,,,,,,,,,,,,,,,,,,,,,,,,,,,,,,,,,,,,,,,,,,,,,,,,,,,,,,,,,,,,,,,,,,,,,,,,,,,,,,,,
,,5,0.1191,5,0.1191,0,78,78,88,1,92,broom,flower,,88498,001,2022-04-25_00h23.53.934,SPAMnetsValid,2021.1.4,Win32,60.24822268,,,,,,,,,,,,,,,,,,,,,,,,,,,,,,,,,,,,,,,,,,,,,,,,,,,,,,,,,,,,,,,,,,,,,,,,,,,,,,,,,,,,,,,,,
,,5,0.121,5,0.121,0,79,79,69,1,45,onion,pretzel,,88498,001,2022-04-25_00h23.53.934,SPAMnetsValid,2021.1.4,Win32,60.24822268,,,,,,,,,,,,,,,,,,,,,,,,,,,,,,,,,,,,,,,,,,,,,,,,,,,,,,,,,,,,,,,,,,,,,,,,,,,,,,,,,,,,,,,,,
,,5,0.0873,5,0.0873,0,80,80,86,1,51,onion,strawberry,,88498,001,2022-04-25_00h23.53.934,SPAMnetsValid,2021.1.4,Win32,60.24822268,,,,,,,,,,,,,,,,,,,,,,,,,,,,,,,,,,,,,,,,,,,,,,,,,,,,,,,,,,,,,,,,,,,,,,,,,,,,,,,,,,,,,,,,,
,,5,0.0796,5,0.0796,0,81,81,74,1,70,chocolate,onion,,88498,001,2022-04-25_00h23.53.934,SPAMnetsValid,2021.1.4,Win32,60.24822268,,,,,,,,,,,,,,,,,,,,,,,,,,,,,,,,,,,,,,,,,,,,,,,,,,,,,,,,,,,,,,,,,,,,,,,,,,,,,,,,,,,,,,,,,
,,5,0.0632,5,0.0632,0,82,82,4,1,83,broom,carrot,,88498,001,2022-04-25_00h23.53.934,SPAMnetsValid,2021.1.4,Win32,60.24822268,,,,,,,,,,,,,,,,,,,,,,,,,,,,,,,,,,,,,,,,,,,,,,,,,,,,,,,,,,,,,,,,,,,,,,,,,,,,,,,,,,,,,,,,,
,,5,0.0317,5,0.0317,0,83,83,59,1,8,broom,melon,,88498,001,2022-04-25_00h23.53.934,SPAMnetsValid,2021.1.4,Win32,60.24822268,,,,,,,,,,,,,,,,,,,,,,,,,,,,,,,,,,,,,,,,,,,,,,,,,,,,,,,,,,,,,,,,,,,,,,,,,,,,,,,,,,,,,,,,,
,,5,0.0572,5,0.0572,0,84,84,30,1,3,cake,oven,,88498,001,2022-04-25_00h23.53.934,SPAMnetsValid,2021.1.4,Win32,60.24822268,,,,,,,,,,,,,,,,,,,,,,,,,,,,,,,,,,,,,,,,,,,,,,,,,,,,,,,,,,,,,,,,,,,,,,,,,,,,,,,,,,,,,,,,,
,,5,0.0826,5,0.0826,0,85,85,50,1,81,pretzel,yogurt,,88498,001,2022-04-25_00h23.53.934,SPAMnetsValid,2021.1.4,Win32,60.24822268,,,,,,,,,,,,,,,,,,,,,,,,,,,,,,,,,,,,,,,,,,,,,,,,,,,,,,,,,,,,,,,,,,,,,,,,,,,,,,,,,,,,,,,,,
,,5,0.0579,5,0.0579,0,86,86,5,1,13,broom,yogurt,,88498,001,2022-04-25_00h23.53.934,SPAMnetsValid,2021.1.4,Win32,60.24822268,,,,,,,,,,,,,,,,,,,,,,,,,,,,,,,,,,,,,,,,,,,,,,,,,,,,,,,,,,,,,,,,,,,,,,,,,,,,,,,,,,,,,,,,,
,,5,0.0686,5,0.0686,0,87,87,58,1,94,kitchen,microwave,,88498,001,2022-04-25_00h23.53.934,SPAMnetsValid,2021.1.4,Win32,60.24822268,,,,,,,,,,,,,,,,,,,,,,,,,,,,,,,,,,,,,,,,,,,,,,,,,,,,,,,,,,,,,,,,,,,,,,,,,,,,,,,,,,,,,,,,,
,,5,0.0449,5,0.0449,0,88,88,48,1,66,melon,yogurt,,88498,001,2022-04-25_00h23.53.934,SPAMnetsValid,2021.1.4,Win32,60.24822268,,,,,,,,,,,,,,,,,,,,,,,,,,,,,,,,,,,,,,,,,,,,,,,,,,,,,,,,,,,,,,,,,,,,,,,,,,,,,,,,,,,,,,,,,
,,5,0.0453,5,0.0453,0,89,89,31,1,33,oven,yogurt,,88498,001,2022-04-25_00h23.53.934,SPAMnetsValid,2021.1.4,Win32,60.24822268,,,,,,,,,,,,,,,,,,,,,,,,,,,,,,,,,,,,,,,,,,,,,,,,,,,,,,,,,,,,,,,,,,,,,,,,,,,,,,,,,,,,,,,,,
,,5,0.1208,5,0.1208,0,90,90,79,1,86,oven,rose,,88498,001,2022-04-25_00h23.53.934,SPAMnetsValid,2021.1.4,Win32,60.24822268,,,,,,,,,,,,,,,,,,,,,,,,,,,,,,,,,,,,,,,,,,,,,,,,,,,,,,,,,,,,,,,,,,,,,,,,,,,,,,,,,,,,,,,,,
,,5,0.0538,5,0.0538,0,91,91,7,1,34,melon,oven,,88498,001,2022-04-25_00h23.53.934,SPAMnetsValid,2021.1.4,Win32,60.24822268,,,,,,,,,,,,,,,,,,,,,,,,,,,,,,,,,,,,,,,,,,,,,,,,,,,,,,,,,,,,,,,,,,,,,,,,,,,,,,,,,,,,,,,,,
,,5,0.0415,5,0.0415,0,92,92,21,1,56,cactus,tree,,88498,001,2022-04-25_00h23.53.934,SPAMnetsValid,2021.1.4,Win32,60.24822268,,,,,,,,,,,,,,,,,,,,,,,,,,,,,,,,,,,,,,,,,,,,,,,,,,,,,,,,,,,,,,,,,,,,,,,,,,,,,,,,,,,,,,,,,
,,5,0.0528,5,0.0528,0,93,93,47,1,73,broom,chocolate,,88498,001,2022-04-25_00h23.53.934,SPAMnetsValid,2021.1.4,Win32,60.24822268,,,,,,,,,,,,,,,,,,,,,,,,,,,,,,,,,,,,,,,,,,,,,,,,,,,,,,,,,,,,,,,,,,,,,,,,,,,,,,,,,,,,,,,,,
,,5,0.0604,5,0.0604,0,94,94,82,1,93,kitchen,oven,,88498,001,2022-04-25_00h23.53.934,SPAMnetsValid,2021.1.4,Win32,60.24822268,,,,,,,,,,,,,,,,,,,,,,,,,,,,,,,,,,,,,,,,,,,,,,,,,,,,,,,,,,,,,,,,,,,,,,,,,,,,,,,,,,,,,,,,,
,,5,0.0522,5,0.0522,0,95,95,29,1,42,garden,kitchen,,88498,001,2022-04-25_00h23.53.934,SPAMnetsValid,2021.1.4,Win32,60.24822268,,,,,,,,,,,,,,,,,,,,,,,,,,,,,,,,,,,,,,,,,,,,,,,,,,,,,,,,,,,,,,,,,,,,,,,,,,,,,,,,,,,,,,,,,
,,5,0.0457,5,0.0457,0,96,96,18,1,85,cake,tree,,88498,001,2022-04-25_00h23.53.934,SPAMnetsValid,2021.1.4,Win32,60.24822268,,,,,,,,,,,,,,,,,,,,,,,,,,,,,,,,,,,,,,,,,,,,,,,,,,,,,,,,,,,,,,,,,,,,,,,,,,,,,,,,,,,,,,,,,
,,,,,,,,,,,,,,,88498,001,2022-04-25_00h23.53.934,SPAMnetsValid,2021.1.4,Win32,60.24822268,0,0,0,0,1,,,,,,,,,,,,,,,,,,,,,,,,,,,,,,,,,,,,,,,,,,,,,,,,,,,,,,,,,,,,,,,,,,,,,,,,,,,,,,,,,,,,
,,,,,,,,,,,,,,,88498,001,2022-04-25_00h23.53.934,SPAMnetsValid,2021.1.4,Win32,60.24822268,,,,,,0,0,0,0,1,1,0,,,,,,,,,,,,,,,,,,,,,,,,,,,,,,,,,,,,,,,,,,,,,,,,,,,,,,,,,,,,,,,,,,,,,,,,,,,,,
,,,,5,5.6562,,,,,,184,oven,pretzel,,88498,001,2022-04-25_00h23.53.934,SPAMnetsValid,2021.1.4,Win32,60.24822268,,,,,,,,,,,,,5,5.6562,0,0,0,42,1,,,,,,,,,,,,,,,,,,,,,,,,,,,,,,,,,,,,,,,,,,,,,,,,,,,,,,,,,,,,,,,,,,,,,,
,,,,5,0.0768,,,,,,157,refrigerator,rose,,88498,001,2022-04-25_00h23.53.934,SPAMnetsValid,2021.1.4,Win32,60.24822268,,,,,,,,,,,,,5,0.0768,0,1,1,64,1,,,,,,,,,,,,,,,,,,,,,,,,,,,,,,,,,,,,,,,,,,,,,,,,,,,,,,,,,,,,,,,,,,,,,,
,,,,5,0.0681,,,,,,176,cactus,tomato,,88498,001,2022-04-25_00h23.53.934,SPAMnetsValid,2021.1.4,Win32,60.24822268,,,,,,,,,,,,,5,0.0681,0,2,2,9,1,,,,,,,,,,,,,,,,,,,,,,,,,,,,,,,,,,,,,,,,,,,,,,,,,,,,,,,,,,,,,,,,,,,,,,
,,,,5,0.0398,,,,,,146,pretzel,tree,,88498,001,2022-04-25_00h23.53.934,SPAMnetsValid,2021.1.4,Win32,60.24822268,,,,,,,,,,,,,5,0.0398,0,3,3,80,1,,,,,,,,,,,,,,,,,,,,,,,,,,,,,,,,,,,,,,,,,,,,,,,,,,,,,,,,,,,,,,,,,,,,,,
,,,,5,0.0637,,,,,,131,cactus,garden,,88498,001,2022-04-25_00h23.53.934,SPAMnetsValid,2021.1.4,Win32,60.24822268,,,,,,,,,,,,,5,0.0637,0,4,4,33,1,,,,,,,,,,,,,,,,,,,,,,,,,,,,,,,,,,,,,,,,,,,,,,,,,,,,,,,,,,,,,,,,,,,,,,
,,,,5,0.0632,,,,,,153,carrot,pretzel,,88498,001,2022-04-25_00h23.53.934,SPAMnetsValid,2021.1.4,Win32,60.24822268,,,,,,,,,,,,,5,0.0632,0,5,5,34,1,,,,,,,,,,,,,,,,,,,,,,,,,,,,,,,,,,,,,,,,,,,,,,,,,,,,,,,,,,,,,,,,,,,,,,
,,,,5,0.0703,,,,,,171,cake,tomato,,88498,001,2022-04-25_00h23.53.934,SPAMnetsValid,2021.1.4,Win32,60.24822268,,,,,,,,,,,,,5,0.0703,0,6,6,88,1,,,,,,,,,,,,,,,,,,,,,,,,,,,,,,,,,,,,,,,,,,,,,,,,,,,,,,,,,,,,,,,,,,,,,,
,,,,5,0.0448,,,,,,101,cactus,kitchen,,88498,001,2022-04-25_00h23.53.934,SPAMnetsValid,2021.1.4,Win32,60.24822268,,,,,,,,,,,,,5,0.0448,0,7,7,54,1,,,,,,,,,,,,,,,,,,,,,,,,,,,,,,,,,,,,,,,,,,,,,,,,,,,,,,,,,,,,,,,,,,,,,,
,,,,5,0.0871,,,,,,133,cake,flower,,88498,001,2022-04-25_00h23.53.934,SPAMnetsValid,2021.1.4,Win32,60.24822268,,,,,,,,,,,,,5,0.0871,0,8,8,94,1,,,,,,,,,,,,,,,,,,,,,,,,,,,,,,,,,,,,,,,,,,,,,,,,,,,,,,,,,,,,,,,,,,,,,,
,,,,5,0.0532,,,,,,180,tree,yogurt,,88498,001,2022-04-25_00h23.53.934,SPAMnetsValid,2021.1.4,Win32,60.24822268,,,,,,,,,,,,,5,0.0532,0,9,9,68,1,,,,,,,,,,,,,,,,,,,,,,,,,,,,,,,,,,,,,,,,,,,,,,,,,,,,,,,,,,,,,,,,,,,,,,
,,,,5,0.0433,,,,,,154,strawberry,yogurt,,88498,001,2022-04-25_00h23.53.934,SPAMnetsValid,2021.1.4,Win32,60.24822268,,,,,,,,,,,,,5,0.0433,0,10,10,28,1,,,,,,,,,,,,,,,,,,,,,,,,,,,,,,,,,,,,,,,,,,,,,,,,,,,,,,,,,,,,,,,,,,,,,,
,,,,5,0.0706,,,,,,138,flower,rose,,88498,001,2022-04-25_00h23.53.934,SPAMnetsValid,2021.1.4,Win32,60.24822268,,,,,,,,,,,,,5,0.0706,0,11,11,61,1,,,,,,,,,,,,,,,,,,,,,,,,,,,,,,,,,,,,,,,,,,,,,,,,,,,,,,,,,,,,,,,,,,,,,,
,,,,5,0.0334,,,,,,130,microwave,yogurt,,88498,001,2022-04-25_00h23.53.934,SPAMnetsValid,2021.1.4,Win32,60.24822268,,,,,,,,,,,,,5,0.0334,0,12,12,84,1,,,,,,,,,,,,,,,,,,,,,,,,,,,,,,,,,,,,,,,,,,,,,,,,,,,,,,,,,,,,,,,,,,,,,,
,,,,5,0.049,,,,,,150,microwave,refrigerator,,88498,001,2022-04-25_00h23.53.934,SPAMnetsValid,2021.1.4,Win32,60.24822268,,,,,,,,,,,,,5,0.049,0,13,13,66,1,,,,,,,,,,,,,,,,,,,,,,,,,,,,,,,,,,,,,,,,,,,,,,,,,,,,,,,,,,,,,,,,,,,,,,
,,,,5,0.0473,,,,,,115,refrigerator,tomato,,88498,001,2022-04-25_00h23.53.934,SPAMnetsValid,2021.1.4,Win32,60.24822268,,,,,,,,,,,,,5,0.0473,0,14,14,85,1,,,,,,,,,,,,,,,,,,,,,,,,,,,,,,,,,,,,,,,,,,,,,,,,,,,,,,,,,,,,,,,,,,,,,,
,,,,5,0.0554,,,,,,120,microwave,oven,,88498,001,2022-04-25_00h23.53.934,SPAMnetsValid,2021.1.4,Win32,60.24822268,,,,,,,,,,,,,5,0.0554,0,15,15,14,1,,,,,,,,,,,,,,,,,,,,,,,,,,,,,,,,,,,,,,,,,,,,,,,,,,,,,,,,,,,,,,,,,,,,,,
,,,,5,0.0696,,,,,,122,flower,garden,,88498,001,2022-04-25_00h23.53.934,SPAMnetsValid,2021.1.4,Win32,60.24822268,,,,,,,,,,,,,5,0.0696,0,16,16,60,1,,,,,,,,,,,,,,,,,,,,,,,,,,,,,,,,,,,,,,,,,,,,,,,,,,,,,,,,,,,,,,,,,,,,,,
,,,,5,0.0604,,,,,,169,onion,yogurt,,88498,001,2022-04-25_00h23.53.934,SPAMnetsValid,2021.1.4,Win32,60.24822268,,,,,,,,,,,,,5,0.0604,0,17,17,24,1,,,,,,,,,,,,,,,,,,,,,,,,,,,,,,,,,,,,,,,,,,,,,,,,,,,,,,,,,,,,,,,,,,,,,,
,,,,5,0.0769,,,,,,187,cactus,microwave,,88498,001,2022-04-25_00h23.53.934,SPAMnetsValid,2021.1.4,Win32,60.24822268,,,,,,,,,,,,,5,0.0769,0,18,18,71,1,,,,,,,,,,,,,,,,,,,,,,,,,,,,,,,,,,,,,,,,,,,,,,,,,,,,,,,,,,,,,,,,,,,,,,
,,,,5,0.0331,,,,,,144,cake,garden,,88498,001,2022-04-25_00h23.53.934,SPAMnetsValid,2021.1.4,Win32,60.24822268,,,,,,,,,,,,,5,0.0331,0,19,19,58,1,,,,,,,,,,,,,,,,,,,,,,,,,,,,,,,,,,,,,,,,,,,,,,,,,,,,,,,,,,,,,,,,,,,,,,
,,,,5,0.0414,,,,,,167,carrot,garden,,88498,001,2022-04-25_00h23.53.934,SPAMnetsValid,2021.1.4,Win32,60.24822268,,,,,,,,,,,,,5,0.0414,0,20,20,47,1,,,,,,,,,,,,,,,,,,,,,,,,,,,,,,,,,,,,,,,,,,,,,,,,,,,,,,,,,,,,,,,,,,,,,,
,,,,5,0.0477,,,,,,129,cactus,refrigerator,,88498,001,2022-04-25_00h23.53.934,SPAMnetsValid,2021.1.4,Win32,60.24822268,,,,,,,,,,,,,5,0.0477,0,21,21,3,1,,,,,,,,,,,,,,,,,,,,,,,,,,,,,,,,,,,,,,,,,,,,,,,,,,,,,,,,,,,,,,,,,,,,,,
,,,,5,0.0626,,,,,,194,cactus,cactus,CHECK,88498,001,2022-04-25_00h23.53.934,SPAMnetsValid,2021.1.4,Win32,60.24822268,,,,,,,,,,,,,5,0.0626,0,22,22,25,1,,,,,,,,,,,,,,,,,,,,,,,,,,,,,,,,,,,,,,,,,,,,,,,,,,,,,,,,,,,,,,,,,,,,,,
,,,,5,0.0628,,,,,,139,carrot,strawberry,,88498,001,2022-04-25_00h23.53.934,SPAMnetsValid,2021.1.4,Win32,60.24822268,,,,,,,,,,,,,5,0.0628,0,23,23,37,1,,,,,,,,,,,,,,,,,,,,,,,,,,,,,,,,,,,,,,,,,,,,,,,,,,,,,,,,,,,,,,,,,,,,,,
,,,,5,0.054,,,,,,127,cactus,chocolate,,88498,001,2022-04-25_00h23.53.934,SPAMnetsValid,2021.1.4,Win32,60.24822268,,,,,,,,,,,,,5,0.054,0,24,24,57,1,,,,,,,,,,,,,,,,,,,,,,,,,,,,,,,,,,,,,,,,,,,,,,,,,,,,,,,,,,,,,,,,,,,,,,
,,,,5,0.0461,,,,,,145,cactus,yogurt,,88498,001,2022-04-25_00h23.53.934,SPAMnetsValid,2021.1.4,Win32,60.24822268,,,,,,,,,,,,,5,0.0461,0,25,25,15,1,,,,,,,,,,,,,,,,,,,,,,,,,,,,,,,,,,,,,,,,,,,,,,,,,,,,,,,,,,,,,,,,,,,,,,
,,,,5,0.053,,,,,,123,cookie,tree,,88498,001,2022-04-25_00h23.53.934,SPAMnetsValid,2021.1.4,Win32,60.24822268,,,,,,,,,,,,,5,0.053,0,26,26,46,1,,,,,,,,,,,,,,,,,,,,,,,,,,,,,,,,,,,,,,,,,,,,,,,,,,,,,,,,,,,,,,,,,,,,,,
,,,,5,0.0528,,,,,,175,melon,onion,,88498,001,2022-04-25_00h23.53.934,SPAMnetsValid,2021.1.4,Win32,60.24822268,,,,,,,,,,,,,5,0.0528,0,27,27,41,1,,,,,,,,,,,,,,,,,,,,,,,,,,,,,,,,,,,,,,,,,,,,,,,,,,,,,,,,,,,,,,,,,,,,,,
,,,,5,0.0601,,,,,,149,broom,tomato,,88498,001,2022-04-25_00h23.53.934,SPAMnetsValid,2021.1.4,Win32,60.24822268,,,,,,,,,,,,,5,0.0601,0,28,28,20,1,,,,,,,,,,,,,,,,,,,,,,,,,,,,,,,,,,,,,,,,,,,,,,,,,,,,,,,,,,,,,,,,,,,,,,
,,,,5,0.0693,,,,,,109,broom,strawberry,,88498,001,2022-04-25_00h23.53.934,SPAMnetsValid,2021.1.4,Win32,60.24822268,,,,,,,,,,,,,5,0.0693,0,29,29,4,1,,,,,,,,,,,,,,,,,,,,,,,,,,,,,,,,,,,,,,,,,,,,,,,,,,,,,,,,,,,,,,,,,,,,,,
,,,,5,0.0756,,,,,,110,chocolate,cookie,,88498,001,2022-04-25_00h23.53.934,SPAMnetsValid,2021.1.4,Win32,60.24822268,,,,,,,,,,,,,5,0.0756,0,30,30,52,1,,,,,,,,,,,,,,,,,,,,,,,,,,,,,,,,,,,,,,,,,,,,,,,,,,,,,,,,,,,,,,,,,,,,,,
,,,,5,0.0555,,,,,,151,microwave,onion,,88498,001,2022-04-25_00h23.53.934,SPAMnetsValid,2021.1.4,Win32,60.24822268,,,,,,,,,,,,,5,0.0555,0,31,31,6,1,,,,,,,,,,,,,,,,,,,,,,,,,,,,,,,,,,,,,,,,,,,,,,,,,,,,,,,,,,,,,,,,,,,,,,
,,,,5,0.0319,,,,,,128,melon,microwave,,88498,001,2022-04-25_00h23.53.934,SPAMnetsValid,2021.1.4,Win32,60.24822268,,,,,,,,,,,,,5,0.0319,0,32,32,74,1,,,,,,,,,,,,,,,,,,,,,,,,,,,,,,,,,,,,,,,,,,,,,,,,,,,,,,,,,,,,,,,,,,,,,,
,,,,5,0.0566,,,,,,164,cookie,garden,,88498,001,2022-04-25_00h23.53.934,SPAMnetsValid,2021.1.4,Win32,60.24822268,,,,,,,,,,,,,5,0.0566,0,33,33,59,1,,,,,,,,,,,,,,,,,,,,,,,,,,,,,,,,,,,,,,,,,,,,,,,,,,,,,,,,,,,,,,,,,,,,,,
,,,,5,0.2631,,,,,,98,pretzel,strawberry,,88498,001,2022-04-25_00h23.53.934,SPAMnetsValid,2021.1.4,Win32,60.24822268,,,,,,,,,,,,,5,0.2631,0,34,34,82,1,,,,,,,,,,,,,,,,,,,,,,,,,,,,,,,,,,,,,,,,,,,,,,,,,,,,,,,,,,,,,,,,,,,,,,
,,,,5,0.3249,,,,,,160,cookie,kitchen,,88498,001,2022-04-25_00h23.53.934,SPAMnetsValid,2021.1.4,Win32,60.24822268,,,,,,,,,,,,,5,0.3249,0,35,35,65,1,,,,,,,,,,,,,,,,,,,,,,,,,,,,,,,,,,,,,,,,,,,,,,,,,,,,,,,,,,,,,,,,,,,,,,
,,,,5,0.0482,,,,,,168,cactus,flower,,88498,001,2022-04-25_00h23.53.934,SPAMnetsValid,2021.1.4,Win32,60.24822268,,,,,,,,,,,,,5,0.0482,0,36,36,51,1,,,,,,,,,,,,,,,,,,,,,,,,,,,,,,,,,,,,,,,,,,,,,,,,,,,,,,,,,,,,,,,,,,,,,,
,,,,5,0.0558,,,,,,156,melon,rose,,88498,001,2022-04-25_00h23.53.934,SPAMnetsValid,2021.1.4,Win32,60.24822268,,,,,,,,,,,,,5,0.0558,0,37,37,31,1,,,,,,,,,,,,,,,,,,,,,,,,,,,,,,,,,,,,,,,,,,,,,,,,,,,,,,,,,,,,,,,,,,,,,,
,,,,5,0.0712,,,,,,172,kitchen,melon,,88498,001,2022-04-25_00h23.53.934,SPAMnetsValid,2021.1.4,Win32,60.24822268,,,,,,,,,,,,,5,0.0712,0,38,38,77,1,,,,,,,,,,,,,,,,,,,,,,,,,,,,,,,,,,,,,,,,,,,,,,,,,,,,,,,,,,,,,,,,,,,,,,
,,,,5,0.0548,,,,,,112,cake,carrot,,88498,001,2022-04-25_00h23.53.934,SPAMnetsValid,2021.1.4,Win32,60.24822268,,,,,,,,,,,,,5,0.0548,0,39,39,39,1,,,,,,,,,,,,,,,,,,,,,,,,,,,,,,,,,,,,,,,,,,,,,,,,,,,,,,,,,,,,,,,,,,,,,,
,,,,5,0.0709,,,,,,134,carrot,flower,,88498,001,2022-04-25_00h23.53.934,SPAMnetsValid,2021.1.4,Win32,60.24822268,,,,,,,,,,,,,5,0.0709,0,40,40,93,1,,,,,,,,,,,,,,,,,,,,,,,,,,,,,,,,,,,,,,,,,,,,,,,,,,,,,,,,,,,,,,,,,,,,,,
,,,,5,0.0694,,,,,,185,cactus,rose,,88498,001,2022-04-25_00h23.53.934,SPAMnetsValid,2021.1.4,Win32,60.24822268,,,,,,,,,,,,,5,0.0694,0,41,41,43,1,,,,,,,,,,,,,,,,,,,,,,,,,,,,,,,,,,,,,,,,,,,,,,,,,,,,,,,,,,,,,,,,,,,,,,
,,,,5,0.0618,,,,,,108,carrot,chocolate,,88498,001,2022-04-25_00h23.53.934,SPAMnetsValid,2021.1.4,Win32,60.24822268,,,,,,,,,,,,,5,0.0618,0,42,42,5,1,,,,,,,,,,,,,,,,,,,,,,,,,,,,,,,,,,,,,,,,,,,,,,,,,,,,,,,,,,,,,,,,,,,,,,
,,,,5,0.0936,,,,,,132,broom,tree,,88498,001,2022-04-25_00h23.53.934,SPAMnetsValid,2021.1.4,Win32,60.24822268,,,,,,,,,,,,,5,0.0936,0,43,43,78,1,,,,,,,,,,,,,,,,,,,,,,,,,,,,,,,,,,,,,,,,,,,,,,,,,,,,,,,,,,,,,,,,,,,,,,
,,,,5,0.07,,,,,,186,kitchen,yogurt,,88498,001,2022-04-25_00h23.53.934,SPAMnetsValid,2021.1.4,Win32,60.24822268,,,,,,,,,,,,,5,0.07,0,44,44,48,1,,,,,,,,,,,,,,,,,,,,,,,,,,,,,,,,,,,,,,,,,,,,,,,,,,,,,,,,,,,,,,,,,,,,,,
,,,,5,0.0592,,,,,,155,carrot,cookie,,88498,001,2022-04-25_00h23.53.934,SPAMnetsValid,2021.1.4,Win32,60.24822268,,,,,,,,,,,,,5,0.0592,0,45,45,38,1,,,,,,,,,,,,,,,,,,,,,,,,,,,,,,,,,,,,,,,,,,,,,,,,,,,,,,,,,,,,,,,,,,,,,,
,,,,5,0.0349,,,,,,100,garden,tomato,,88498,001,2022-04-25_00h23.53.934,SPAMnetsValid,2021.1.4,Win32,60.24822268,,,,,,,,,,,,,5,0.0349,0,46,46,83,1,,,,,,,,,,,,,,,,,,,,,,,,,,,,,,,,,,,,,,,,,,,,,,,,,,,,,,,,,,,,,,,,,,,,,,
,,,,5,0.036,,,,,,99,garden,melon,,88498,001,2022-04-25_00h23.53.934,SPAMnetsValid,2021.1.4,Win32,60.24822268,,,,,,,,,,,,,5,0.036,0,47,47,17,1,,,,,,,,,,,,,,,,,,,,,,,,,,,,,,,,,,,,,,,,,,,,,,,,,,,,,,,,,,,,,,,,,,,,,,
,,,,5,0.0409,,,,,,178,cactus,carrot,,88498,001,2022-04-25_00h23.53.934,SPAMnetsValid,2021.1.4,Win32,60.24822268,,,,,,,,,,,,,5,0.0409,0,48,48,75,1,,,,,,,,,,,,,,,,,,,,,,,,,,,,,,,,,,,,,,,,,,,,,,,,,,,,,,,,,,,,,,,,,,,,,,
,,,,5,0.0579,,,,,,147,cake,refrigerator,,88498,001,2022-04-25_00h23.53.934,SPAMnetsValid,2021.1.4,Win32,60.24822268,,,,,,,,,,,,,5,0.0579,0,49,49,35,1,,,,,,,,,,,,,,,,,,,,,,,,,,,,,,,,,,,,,,,,,,,,,,,,,,,,,,,,,,,,,,,,,,,,,,
,,,,5,0.0572,,,,,,119,strawberry,tree,,88498,001,2022-04-25_00h23.53.934,SPAMnetsValid,2021.1.4,Win32,60.24822268,,,,,,,,,,,,,5,0.0572,0,50,50,18,1,,,,,,,,,,,,,,,,,,,,,,,,,,,,,,,,,,,,,,,,,,,,,,,,,,,,,,,,,,,,,,,,,,,,,,
,,,,5,0.0403,,,,,,106,cake,strawberry,,88498,001,2022-04-25_00h23.53.934,SPAMnetsValid,2021.1.4,Win32,60.24822268,,,,,,,,,,,,,5,0.0403,0,51,51,0,1,,,,,,,,,,,,,,,,,,,,,,,,,,,,,,,,,,,,,,,,,,,,,,,,,,,,,,,,,,,,,,,,,,,,,,
,,,,5,0.0732,,,,,,173,kitchen,tomato,,88498,001,2022-04-25_00h23.53.934,SPAMnetsValid,2021.1.4,Win32,60.24822268,,,,,,,,,,,,,5,0.0732,0,52,52,1,1,,,,,,,,,,,,,,,,,,,,,,,,,,,,,,,,,,,,,,,,,,,,,,,,,,,,,,,,,,,,,,,,,,,,,,
,,,,5,0.0377,,,,,,183,cake,rose,,88498,001,2022-04-25_00h23.53.934,SPAMnetsValid,2021.1.4,Win32,60.24822268,,,,,,,,,,,,,5,0.0377,0,53,53,19,1,,,,,,,,,,,,,,,,,,,,,,,,,,,,,,,,,,,,,,,,,,,,,,,,,,,,,,,,,,,,,,,,,,,,,,
,,,,5,0.0621,,,,,,116,cake,chocolate,,88498,001,2022-04-25_00h23.53.934,SPAMnetsValid,2021.1.4,Win32,60.24822268,,,,,,,,,,,,,5,0.0621,0,54,54,44,1,,,,,,,,,,,,,,,,,,,,,,,,,,,,,,,,,,,,,,,,,,,,,,,,,,,,,,,,,,,,,,,,,,,,,,
,,,,5,0.0793,,,,,,179,broom,oven,,88498,001,2022-04-25_00h23.53.934,SPAMnetsValid,2021.1.4,Win32,60.24822268,,,,,,,,,,,,,5,0.0793,0,55,55,45,1,,,,,,,,,,,,,,,,,,,,,,,,,,,,,,,,,,,,,,,,,,,,,,,,,,,,,,,,,,,,,,,,,,,,,,
,,,,5,0.0698,,,,,,158,cookie,oven,,88498,001,2022-04-25_00h23.53.934,SPAMnetsValid,2021.1.4,Win32,60.24822268,,,,,,,,,,,,,5,0.0698,0,56,56,27,1,,,,,,,,,,,,,,,,,,,,,,,,,,,,,,,,,,,,,,,,,,,,,,,,,,,,,,,,,,,,,,,,,,,,,,
,,,,5,0.0623,,,,,,125,carrot,tree,,88498,001,2022-04-25_00h23.53.934,SPAMnetsValid,2021.1.4,Win32,60.24822268,,,,,,,,,,,,,5,0.0623,0,57,57,30,1,,,,,,,,,,,,,,,,,,,,,,,,,,,,,,,,,,,,,,,,,,,,,,,,,,,,,,,,,,,,,,,,,,,,,,
,,,,5,0.0441,,,,,,113,refrigerator,strawberry,,88498,001,2022-04-25_00h23.53.934,SPAMnetsValid,2021.1.4,Win32,60.24822268,,,,,,,,,,,,,5,0.0441,0,58,58,56,1,,,,,,,,,,,,,,,,,,,,,,,,,,,,,,,,,,,,,,,,,,,,,,,,,,,,,,,,,,,,,,,,,,,,,,
,,,,5,0.0707,,,,,,96,oven,strawberry,,88498,001,2022-04-25_00h23.53.934,SPAMnetsValid,2021.1.4,Win32,60.24822268,,,,,,,,,,,,,5,0.0707,0,59,59,67,1,,,,,,,,,,,,,,,,,,,,,,,,,,,,,,,,,,,,,,,,,,,,,,,,,,,,,,,,,,,,,,,,,,,,,,
,,,,5,0.087,,,,,,103,pretzel,tomato,,88498,001,2022-04-25_00h23.53.934,SPAMnetsValid,2021.1.4,Win32,60.24822268,,,,,,,,,,,,,5,0.087,0,60,60,79,1,,,,,,,,,,,,,,,,,,,,,,,,,,,,,,,,,,,,,,,,,,,,,,,,,,,,,,,,,,,,,,,,,,,,,,
,,,,5,0.0864,,,,,,159,cookie,flower,,88498,001,2022-04-25_00h23.53.934,SPAMnetsValid,2021.1.4,Win32,60.24822268,,,,,,,,,,,,,5,0.0864,0,61,61,21,1,,,,,,,,,,,,,,,,,,,,,,,,,,,,,,,,,,,,,,,,,,,,,,,,,,,,,,,,,,,,,,,,,,,,,,
,,,,5,0.0353,,,,,,189,onion,tree,,88498,001,2022-04-25_00h23.53.934,SPAMnetsValid,2021.1.4,Win32,60.24822268,,,,,,,,,,,,,5,0.0353,0,62,62,62,1,,,,,,,,,,,,,,,,,,,,,,,,,,,,,,,,,,,,,,,,,,,,,,,,,,,,,,,,,,,,,,,,,,,,,,
,,,,5,0.0367,,,,,,118,chocolate,oven,,88498,001,2022-04-25_00h23.53.934,SPAMnetsValid,2021.1.4,Win32,60.24822268,,,,,,,,,,,,,5,0.0367,0,63,63,10,1,,,,,,,,,,,,,,,,,,,,,,,,,,,,,,,,,,,,,,,,,,,,,,,,,,,,,,,,,,,,,,,,,,,,,,
,,,,5,0.026,,,,,,148,flower,melon,,88498,001,2022-04-25_00h23.53.934,SPAMnetsValid,2021.1.4,Win32,60.24822268,,,,,,,,,,,,,5,0.026,0,64,64,23,1,,,,,,,,,,,,,,,,,,,,,,,,,,,,,,,,,,,,,,,,,,,,,,,,,,,,,,,,,,,,,,,,,,,,,,
,,,,5,0.0225,,,,,,102,chocolate,refrigerator,,88498,001,2022-04-25_00h23.53.934,SPAMnetsValid,2021.1.4,Win32,60.24822268,,,,,,,,,,,,,5,0.0225,0,65,65,76,1,,,,,,,,,,,,,,,,,,,,,,,,,,,,,,,,,,,,,,,,,,,,,,,,,,,,,,,,,,,,,,,,,,,,,,
,,,,5,0.0596,,,,,,143,pretzel,rose,,88498,001,2022-04-25_00h23.53.934,SPAMnetsValid,2021.1.4,Win32,60.24822268,,,,,,,,,,,,,5,0.0596,0,66,66,55,1,,,,,,,,,,,,,,,,,,,,,,,,,,,,,,,,,,,,,,,,,,,,,,,,,,,,,,,,,,,,,,,,,,,,,,
,,,,5,0.0526,,,,,,142,garden,tree,,88498,001,2022-04-25_00h23.53.934,SPAMnetsValid,2021.1.4,Win32,60.24822268,,,,,,,,,,,,,5,0.0526,0,67,67,22,1,,,,,,,,,,,,,,,,,,,,,,,,,,,,,,,,,,,,,,,,,,,,,,,,,,,,,,,,,,,,,,,,,,,,,,
,,,,5,0.0732,,,,,,121,broom,microwave,,88498,001,2022-04-25_00h23.53.934,SPAMnetsValid,2021.1.4,Win32,60.24822268,,,,,,,,,,,,,5,0.0732,0,68,68,95,1,,,,,,,,,,,,,,,,,,,,,,,,,,,,,,,,,,,,,,,,,,,,,,,,,,,,,,,,,,,,,,,,,,,,,,
,,,,5,0.0397,,,,,,97,chocolate,kitchen,,88498,001,2022-04-25_00h23.53.934,SPAMnetsValid,2021.1.4,Win32,60.24822268,,,,,,,,,,,,,5,0.0397,0,69,69,8,1,,,,,,,,,,,,,,,,,,,,,,,,,,,,,,,,,,,,,,,,,,,,,,,,,,,,,,,,,,,,,,,,,,,,,,
,,,,5,0.034,,,,,,170,cookie,microwave,,88498,001,2022-04-25_00h23.53.934,SPAMnetsValid,2021.1.4,Win32,60.24822268,,,,,,,,,,,,,5,0.034,0,70,70,92,1,,,,,,,,,,,,,,,,,,,,,,,,,,,,,,,,,,,,,,,,,,,,,,,,,,,,,,,,,,,,,,,,,,,,,,
,,,,5,0.0394,,,,,,136,chocolate,microwave,,88498,001,2022-04-25_00h23.53.934,SPAMnetsValid,2021.1.4,Win32,60.24822268,,,,,,,,,,,,,5,0.0394,0,71,71,96,1,,,,,,,,,,,,,,,,,,,,,,,,,,,,,,,,,,,,,,,,,,,,,,,,,,,,,,,,,,,,,,,,,,,,,,
,,,,5,0.0108,,,,,,126,kitchen,tree,,88498,001,2022-04-25_00h23.53.934,SPAMnetsValid,2021.1.4,Win32,60.24822268,,,,,,,,,,,,,5,0.0108,0,72,72,50,1,,,,,,,,,,,,,,,,,,,,,,,,,,,,,,,,,,,,,,,,,,,,,,,,,,,,,,,,,,,,,,,,,,,,,,
,,,,5,0.2293,,,,,,177,chocolate,strawberry,,88498,001,2022-04-25_00h23.53.934,SPAMnetsValid,2021.1.4,Win32,60.24822268,,,,,,,,,,,,,5,0.2293,0,73,73,53,1,,,,,,,,,,,,,,,,,,,,,,,,,,,,,,,,,,,,,,,,,,,,,,,,,,,,,,,,,,,,,,,,,,,,,,
,,,,5,0.2199,,,,,,152,cactus,strawberry,,88498,001,2022-04-25_00h23.53.934,SPAMnetsValid,2021.1.4,Win32,60.24822268,,,,,,,,,,,,,5,0.2199,0,74,74,49,1,,,,,,,,,,,,,,,,,,,,,,,,,,,,,,,,,,,,,,,,,,,,,,,,,,,,,,,,,,,,,,,,,,,,,,
,,,,5,0.192,,,,,,105,cactus,oven,,88498,001,2022-04-25_00h23.53.934,SPAMnetsValid,2021.1.4,Win32,60.24822268,,,,,,,,,,,,,5,0.192,0,75,75,13,1,,,,,,,,,,,,,,,,,,,,,,,,,,,,,,,,,,,,,,,,,,,,,,,,,,,,,,,,,,,,,,,,,,,,,,
,,,,5,0.1812,,,,,,165,onion,rose,,88498,001,2022-04-25_00h23.53.934,SPAMnetsValid,2021.1.4,Win32,60.24822268,,,,,,,,,,,,,5,0.1812,0,76,76,40,1,,,,,,,,,,,,,,,,,,,,,,,,,,,,,,,,,,,,,,,,,,,,,,,,,,,,,,,,,,,,,,,,,,,,,,
,,,,5,0.1967,,,,,,190,microwave,strawberry,,88498,001,2022-04-25_00h23.53.934,SPAMnetsValid,2021.1.4,Win32,60.24822268,,,,,,,,,,,,,5,0.1967,0,77,77,90,1,,,,,,,,,,,,,,,,,,,,,,,,,,,,,,,,,,,,,,,,,,,,,,,,,,,,,,,,,,,,,,,,,,,,,,
,,,,5,0.0949,,,,,,163,melon,refrigerator,,88498,001,2022-04-25_00h23.53.934,SPAMnetsValid,2021.1.4,Win32,60.24822268,,,,,,,,,,,,,5,0.0949,0,78,78,29,1,,,,,,,,,,,,,,,,,,,,,,,,,,,,,,,,,,,,,,,,,,,,,,,,,,,,,,,,,,,,,,,,,,,,,,
,,,,5,0.038,,,,,,182,flower,refrigerator,,88498,001,2022-04-25_00h23.53.934,SPAMnetsValid,2021.1.4,Win32,60.24822268,,,,,,,,,,,,,5,0.038,0,79,79,32,1,,,,,,,,,,,,,,,,,,,,,,,,,,,,,,,,,,,,,,,,,,,,,,,,,,,,,,,,,,,,,,,,,,,,,,
,,,,5,0.0451,,,,,,166,cake,yogurt,,88498,001,2022-04-25_00h23.53.934,SPAMnetsValid,2021.1.4,Win32,60.24822268,,,,,,,,,,,,,5,0.0451,0,80,80,91,1,,,,,,,,,,,,,,,,,,,,,,,,,,,,,,,,,,,,,,,,,,,,,,,,,,,,,,,,,,,,,,,,,,,,,,
,,,,5,0.0765,,,,,,161,kitchen,pretzel,,88498,001,2022-04-25_00h23.53.934,SPAMnetsValid,2021.1.4,Win32,60.24822268,,,,,,,,,,,,,5,0.0765,0,81,81,36,1,,,,,,,,,,,,,,,,,,,,,,,,,,,,,,,,,,,,,,,,,,,,,,,,,,,,,,,,,,,,,,,,,,,,,,
,,,,5,0.0077,,,,,,135,carrot,oven,,88498,001,2022-04-25_00h23.53.934,SPAMnetsValid,2021.1.4,Win32,60.24822268,,,,,,,,,,,,,5,0.0077,0,82,82,73,1,,,,,,,,,,,,,,,,,,,,,,,,,,,,,,,,,,,,,,,,,,,,,,,,,,,,,,,,,,,,,,,,,,,,,,
,,,,5,0.0136,,,,,,114,cookie,strawberry,,88498,001,2022-04-25_00h23.53.934,SPAMnetsValid,2021.1.4,Win32,60.24822268,,,,,,,,,,,,,5,0.0136,0,83,83,87,1,,,,,,,,,,,,,,,,,,,,,,,,,,,,,,,,,,,,,,,,,,,,,,,,,,,,,,,,,,,,,,,,,,,,,,
,,,,5,0.0115,,,,,,188,flower,tree,,88498,001,2022-04-25_00h23.53.934,SPAMnetsValid,2021.1.4,Win32,60.24822268,,,,,,,,,,,,,5,0.0115,0,84,84,7,1,,,,,,,,,,,,,,,,,,,,,,,,,,,,,,,,,,,,,,,,,,,,,,,,,,,,,,,,,,,,,,,,,,,,,,
,,,,5,0.0452,,,,,,141,melon,tomato,,88498,001,2022-04-25_00h23.53.934,SPAMnetsValid,2021.1.4,Win32,60.24822268,,,,,,,,,,,,,5,0.0452,0,85,85,70,1,,,,,,,,,,,,,,,,,,,,,,,,,,,,,,,,,,,,,,,,,,,,,,,,,,,,,,,,,,,,,,,,,,,,,,
,,,,5,0.0205,,,,,,193,melon,melon,CHECK,88498,001,2022-04-25_00h23.53.934,SPAMnetsValid,2021.1.4,Win32,60.24822268,,,,,,,,,,,,,5,0.0205,0,86,86,86,1,,,,,,,,,,,,,,,,,,,,,,,,,,,,,,,,,,,,,,,,,,,,,,,,,,,,,,,,,,,,,,,,,,,,,,
,,,,5,0.0215,,,,,,107,rose,tomato,,88498,001,2022-04-25_00h23.53.934,SPAMnetsValid,2021.1.4,Win32,60.24822268,,,,,,,,,,,,,5,0.0215,0,87,87,26,1,,,,,,,,,,,,,,,,,,,,,,,,,,,,,,,,,,,,,,,,,,,,,,,,,,,,,,,,,,,,,,,,,,,,,,
,,,,5,0.1106,,,,,,162,microwave,tomato,,88498,001,2022-04-25_00h23.53.934,SPAMnetsValid,2021.1.4,Win32,60.24822268,,,,,,,,,,,,,5,0.1106,0,88,88,12,1,,,,,,,,,,,,,,,,,,,,,,,,,,,,,,,,,,,,,,,,,,,,,,,,,,,,,,,,,,,,,,,,,,,,,,
,,,,5,0.1621,,,,,,124,oven,refrigerator,,88498,001,2022-04-25_00h23.53.934,SPAMnetsValid,2021.1.4,Win32,60.24822268,,,,,,,,,,,,,5,0.1621,0,89,89,69,1,,,,,,,,,,,,,,,,,,,,,,,,,,,,,,,,,,,,,,,,,,,,,,,,,,,,,,,,,,,,,,,,,,,,,,
,,,,5,0.057,,,,,,104,garden,microwave,,88498,001,2022-04-25_00h23.53.934,SPAMnetsValid,2021.1.4,Win32,60.24822268,,,,,,,,,,,,,5,0.057,0,90,90,81,1,,,,,,,,,,,,,,,,,,,,,,,,,,,,,,,,,,,,,,,,,,,,,,,,,,,,,,,,,,,,,,,,,,,,,,
,,,,5,0.2242,,,,,,111,carrot,microwave,,88498,001,2022-04-25_00h23.53.934,SPAMnetsValid,2021.1.4,Win32,60.24822268,,,,,,,,,,,,,5,0.2242,0,91,91,16,1,,,,,,,,,,,,,,,,,,,,,,,,,,,,,,,,,,,,,,,,,,,,,,,,,,,,,,,,,,,,,,,,,,,,,,
,,,,5,0.2878,,,,,,117,melon,strawberry,,88498,001,2022-04-25_00h23.53.934,SPAMnetsValid,2021.1.4,Win32,60.24822268,,,,,,,,,,,,,5,0.2878,0,92,92,11,1,,,,,,,,,,,,,,,,,,,,,,,,,,,,,,,,,,,,,,,,,,,,,,,,,,,,,,,,,,,,,,,,,,,,,,
,,,,5,0.4703,,,,,,137,microwave,tree,,88498,001,2022-04-25_00h23.53.934,SPAMnetsValid,2021.1.4,Win32,60.24822268,,,,,,,,,,,,,5,0.4703,0,93,93,63,1,,,,,,,,,,,,,,,,,,,,,,,,,,,,,,,,,,,,,,,,,,,,,,,,,,,,,,,,,,,,,,,,,,,,,,
,,,,5,0.0439,,,,,,181,carrot,kitchen,,88498,001,2022-04-25_00h23.53.934,SPAMnetsValid,2021.1.4,Win32,60.24822268,,,,,,,,,,,,,5,0.0439,0,94,94,72,1,,,,,,,,,,,,,,,,,,,,,,,,,,,,,,,,,,,,,,,,,,,,,,,,,,,,,,,,,,,,,,,,,,,,,,
,,,,5,0.1034,,,,,,174,cake,pretzel,,88498,001,2022-04-25_00h23.53.934,SPAMnetsValid,2021.1.4,Win32,60.24822268,,,,,,,,,,,,,5,0.1034,0,95,95,2,1,,,,,,,,,,,,,,,,,,,,,,,,,,,,,,,,,,,,,,,,,,,,,,,,,,,,,,,,,,,,,,,,,,,,,,
,,,,5,0.0874,,,,,,140,cookie,refrigerator,,88498,001,2022-04-25_00h23.53.934,SPAMnetsValid,2021.1.4,Win32,60.24822268,,,,,,,,,,,,,5,0.0874,0,96,96,89,1,,,,,,,,,,,,,,,,,,,,,,,,,,,,,,,,,,,,,,,,,,,,,,,,,,,,,,,,,,,,,,,,,,,,,,
,,,,,,,,,,,,,,,88498,001,2022-04-25_00h23.53.934,SPAMnetsValid,2021.1.4,Win32,60.24822268,,,,,,,,,,,,,,,,,,,,0,0,0,0,1,,,,,,,,,,,,,,,,,,,,,,,,,,,,,,,,,,,,,,,,,,,,,,,,,,,,,,,,,,,,,,,,,
,,,,,,,,,,,,,,,88498,001,2022-04-25_00h23.53.934,SPAMnetsValid,2021.1.4,Win32,60.24822268,,,,,,0,1,1,1,1,0,1,,,,,,,,,,,,,,,,,,,,,,,,,,,,,,,,,,,,,,,,,,,,,,,,,,,,,,,,,,,,,,,,,,,,,,,,,,,,,
,,,,,,,,,,,,,,,88498,001,2022-04-25_00h23.53.934,SPAMnetsValid,2021.1.4,Win32,60.24822268,,,,,,,,,,,,,,,,,,,,,,,,,2,9.3646,0,0,0,0,1,rancor,forbearance,ridicule,malice,bravery,3,,,,,,,,,,,,,,,,,,,,,,,,,,,,,,,,,,,,,,,,,,,,,,,,,,,,
,,,,,,,,,,,,,,,88498,001,2022-04-25_00h23.53.934,SPAMnetsValid,2021.1.4,Win32,60.24822268,,,,,,,,,,,,,,,,,,,,,,,,,4,6.0623,0,1,1,1,1,raucous,empty,quiet,smooth,harsh,4,,,,,,,,,,,,,,,,,,,,,,,,,,,,,,,,,,,,,,,,,,,,,,,,,,,,
,,,,,,,,,,,,,,,88498,001,2022-04-25_00h23.53.934,SPAMnetsValid,2021.1.4,Win32,60.24822268,,,,,,,,,,,,,,,,,,,,,,,,,4,3.459,0,2,2,2,1,gargoyle,oil,medicine,carved waterspout,ugly building,3,,,,,,,,,,,,,,,,,,,,,,,,,,,,,,,,,,,,,,,,,,,,,,,,,,,,
,,,,,,,,,,,,,,,88498,001,2022-04-25_00h23.53.934,SPAMnetsValid,2021.1.4,Win32,60.24822268,,,,,,,,,,,,,,,,,,,,,,,,,2,3.0818,0,3,3,3,1,recrudesce,purify,renew activity,lack refinement,crush,2,,,,,,,,,,,,,,,,,,,,,,,,,,,,,,,,,,,,,,,,,,,,,,,,,,,,
,,,,,,,,,,,,,,,88498,001,2022-04-25_00h23.53.934,SPAMnetsValid,2021.1.4,Win32,60.24822268,,,,,,,,,,,,,,,,,,,,,,,,,1,6.7805,0,4,4,4,1,specious,"plausible, but not genuine",noteworthy,class or variety,roomy,1,,,,,,,,,,,,,,,,,,,,,,,,,,,,,,,,,,,,,,,,,,,,,,,,,,,,
,,,,,,,,,,,,,,,88498,001,2022-04-25_00h23.53.934,SPAMnetsValid,2021.1.4,Win32,60.24822268,,,,,,,,,,,,,,,,,,,,,,,,,3,6.3154,0,5,5,5,1,bauble,bubble,showy plaything,idle talk,confusion,2,,,,,,,,,,,,,,,,,,,,,,,,,,,,,,,,,,,,,,,,,,,,,,,,,,,,
,,,,,,,,,,,,,,,88498,001,2022-04-25_00h23.53.934,SPAMnetsValid,2021.1.4,Win32,60.24822268,,,,,,,,,,,,,,,,,,,,,,,,,2,6.493,0,6,6,6,1,prolific,scarce,producing abundantly,reckless,speaking profanely,2,,,,,,,,,,,,,,,,,,,,,,,,,,,,,,,,,,,,,,,,,,,,,,,,,,,,
,,,,,,,,,,,,,,,88498,001,2022-04-25_00h23.53.934,SPAMnetsValid,2021.1.4,Win32,60.24822268,,,,,,,,,,,,,,,,,,,,,,,,,2,2.6424,0,7,7,7,1,opulent,party,wealthy,happy frame of mind,semiprecious stone,2,,,,,,,,,,,,,,,,,,,,,,,,,,,,,,,,,,,,,,,,,,,,,,,,,,,,
,,,,,,,,,,,,,,,88498,001,2022-04-25_00h23.53.934,SPAMnetsValid,2021.1.4,Win32,60.24822268,,,,,,,,,,,,,,,,,,,,,,,,,2,6.7122,0,8,8,8,1,coercion,conspiracy,strategy,restraint,attraction,3,,,,,,,,,,,,,,,,,,,,,,,,,,,,,,,,,,,,,,,,,,,,,,,,,,,,
,,,,,,,,,,,,,,,88498,001,2022-04-25_00h23.53.934,SPAMnetsValid,2021.1.4,Win32,60.24822268,,,,,,,,,,,,,,,,,,,,,,,,,4,3.0243,0,9,9,9,1,hiatus,animal,calamity,dread,gap,4,,,,,,,,,,,,,,,,,,,,,,,,,,,,,,,,,,,,,,,,,,,,,,,,,,,,
,,,,,,,,,,,,,,,88498,001,2022-04-25_00h23.53.934,SPAMnetsValid,2021.1.4,Win32,60.24822268,,,,,,,,,,,,,,,,,,,,,,,,,2,3.5806,0,10,10,10,1,germane,microbe,contagious,relevant,different,3,,,,,,,,,,,,,,,,,,,,,,,,,,,,,,,,,,,,,,,,,,,,,,,,,,,,
,,,,,,,,,,,,,,,88498,001,2022-04-25_00h23.53.934,SPAMnetsValid,2021.1.4,Win32,60.24822268,,,,,,,,,,,,,,,,,,,,,,,,,3,3.7105,0,11,11,11,1,perfunctory,fundamental,formal,superficial,careful,3,,,,,,,,,,,,,,,,,,,,,,,,,,,,,,,,,,,,,,,,,,,,,,,,,,,,
,,,,,,,,,,,,,,,88498,001,2022-04-25_00h23.53.934,SPAMnetsValid,2021.1.4,Win32,60.24822268,,,,,,,,,,,,,,,,,,,,,,,,,3,6.883,0,12,12,12,1,diverge,reveal,chant,distract the attention of,differ or turn off from,4,,,,,,,,,,,,,,,,,,,,,,,,,,,,,,,,,,,,,,,,,,,,,,,,,,,,
,,,,,,,,,,,,,,,88498,001,2022-04-25_00h23.53.934,SPAMnetsValid,2021.1.4,Win32,60.24822268,,,,,,,,,,,,,,,,,,,,,,,,,1,4.2634,0,13,13,13,1,evoke,take away,anger,connect,bring out,4,,,,,,,,,,,,,,,,,,,,,,,,,,,,,,,,,,,,,,,,,,,,,,,,,,,,
,,,,,,,,,,,,,,,88498,001,2022-04-25_00h23.53.934,SPAMnetsValid,2021.1.4,Win32,60.24822268,,,,,,,,,,,,,,,,,,,,,,,,,1,3.8906,0,14,14,14,1,pertinent,relevant,lying next to,necessary,bold,1,,,,,,,,,,,,,,,,,,,,,,,,,,,,,,,,,,,,,,,,,,,,,,,,,,,,
,,,,,,,,,,,,,,,88498,001,2022-04-25_00h23.53.934,SPAMnetsValid,2021.1.4,Win32,60.24822268,,,,,,,,,,,,,,,,,,,,,,,,,2,5.9659,0,15,15,15,1,holocaust,entirety,destruction,saintly,price,2,,,,,,,,,,,,,,,,,,,,,,,,,,,,,,,,,,,,,,,,,,,,,,,,,,,,
,,,,,,,,,,,,,,,88498,001,2022-04-25_00h23.53.934,SPAMnetsValid,2021.1.4,Win32,60.24822268,,,,,,,,,,,,,,,,,,,,,,,,,1,7.1782,0,16,16,16,1,piquant,mellow,fish,pungent,cloth,3,,,,,,,,,,,,,,,,,,,,,,,,,,,,,,,,,,,,,,,,,,,,,,,,,,,,
,,,,,,,,,,,,,,,88498,001,2022-04-25_00h23.53.934,SPAMnetsValid,2021.1.4,Win32,60.24822268,,,,,,,,,,,,,,,,,,,,,,,,,4,8.864,0,17,17,17,1,firmament,foundation,heavens,strong,glue,2,,,,,,,,,,,,,,,,,,,,,,,,,,,,,,,,,,,,,,,,,,,,,,,,,,,,
,,,,,,,,,,,,,,,88498,001,2022-04-25_00h23.53.934,SPAMnetsValid,2021.1.4,Win32,60.24822268,,,,,,,,,,,,,,,,,,,,,,,,,,,,,,,,,,,,,,4,11.0393,0,0,0,0,1,marketable,partisan,jocular,marriageable,salable,essential,4,,,,,,,,,,,,,,,,,,,,,,,,,,,,,,,,,,,,,,
,,,,,,,,,,,,,,,88498,001,2022-04-25_00h23.53.934,SPAMnetsValid,2021.1.4,Win32,60.24822268,,,,,,,,,,,,,,,,,,,,,,,,,,,,,,,,,,,,,,5,4.9425,0,1,1,1,1,cottontail,squirrel,poplar,boa,marshy plant,rabbit,5,,,,,,,,,,,,,,,,,,,,,,,,,,,,,,,,,,,,,,
,,,,,,,,,,,,,,,88498,001,2022-04-25_00h23.53.934,SPAMnetsValid,2021.1.4,Win32,60.24822268,,,,,,,,,,,,,,,,,,,,,,,,,,,,,,,,,,,,,,3,2.5614,0,2,2,2,1,boggy,afraid,false,marshy,dense,black,3,,,,,,,,,,,,,,,,,,,,,,,,,,,,,,,,,,,,,,
,,,,,,,,,,,,,,,88498,001,2022-04-25_00h23.53.934,SPAMnetsValid,2021.1.4,Win32,60.24822268,,,,,,,,,,,,,,,,,,,,,,,,,,,,,,,,,,,,,,3,2.6326,0,3,3,3,1,gruesomeness,blackness,falseness,vindictiveness,drunkenness,ghastliness,5,,,,,,,,,,,,,,,,,,,,,,,,,,,,,,,,,,,,,,
,,,,,,,,,,,,,,,88498,001,2022-04-25_00h23.53.934,SPAMnetsValid,2021.1.4,Win32,60.24822268,,,,,,,,,,,,,,,,,,,,,,,,,,,,,,,,,,,,,,2,2.6598,0,4,4,4,1,loathing,diffidence,laziness,abhorrence,cleverness,comfort,3,,,,,,,,,,,,,,,,,,,,,,,,,,,,,,,,,,,,,,
,,,,,,,,,,,,,,,88498,001,2022-04-25_00h23.53.934,SPAMnetsValid,2021.1.4,Win32,60.24822268,,,,,,,,,,,,,,,,,,,,,,,,,,,,,,,,,,,,,,5,4.3071,0,5,5,5,1,bantam,fowl,ridicule,cripple,vegetable,ensign,1,,,,,,,,,,,,,,,,,,,,,,,,,,,,,,,,,,,,,,
,,,,,,,,,,,,,,,88498,001,2022-04-25_00h23.53.934,SPAMnetsValid,2021.1.4,Win32,60.24822268,,,,,,,,,,,,,,,,,,,,,,,,,,,,,,,,,,,,,,5,3.3021,0,6,6,6,1,evoke,wake up,surrender,reconnoiter,transcend,call forth,5,,,,,,,,,,,,,,,,,,,,,,,,,,,,,,,,,,,,,,
,,,,,,,,,,,,,,,88498,001,2022-04-25_00h23.53.934,SPAMnetsValid,2021.1.4,Win32,60.24822268,,,,,,,,,,,,,,,,,,,,,,,,,,,,,,,,,,,,,,5,8.796,0,7,7,7,1,unobtrusive,unintelligent,epileptic,illogical,lineal,modest,5,,,,,,,,,,,,,,,,,,,,,,,,,,,,,,,,,,,,,,
,,,,,,,,,,,,,,,88498,001,2022-04-25_00h23.53.934,SPAMnetsValid,2021.1.4,Win32,60.24822268,,,,,,,,,,,,,,,,,,,,,,,,,,,,,,,,,,,,,,4,2.7335,0,8,8,8,1,terrain,ice cream,final test,tractor,area of ground,weight,4,,,,,,,,,,,,,,,,,,,,,,,,,,,,,,,,,,,,,,
,,,,,,,,,,,,,,,88498,001,2022-04-25_00h23.53.934,SPAMnetsValid,2021.1.4,Win32,60.24822268,,,,,,,,,,,,,,,,,,,,,,,,,,,,,,,,,,,,,,1,10.3173,0,9,9,9,1,capriciousness,stubbornness,courage,whimsicality,amazement,greediness,3,,,,,,,,,,,,,,,,,,,,,,,,,,,,,,,,,,,,,,
,,,,,,,,,,,,,,,88498,001,2022-04-25_00h23.53.934,SPAMnetsValid,2021.1.4,Win32,60.24822268,,,,,,,,,,,,,,,,,,,,,,,,,,,,,,,,,,,,,,2,3.709,0,10,10,10,1,maelstrom,slander,whirlpool,enmity,armor,majolica,2,,,,,,,,,,,,,,,,,,,,,,,,,,,,,,,,,,,,,,
,,,,,,,,,,,,,,,88498,001,2022-04-25_00h23.53.934,SPAMnetsValid,2021.1.4,Win32,60.24822268,,,,,,,,,,,,,,,,,,,,,,,,,,,,,,,,,,,,,,5,4.7114,0,11,11,11,1,tentative,critical,conclusive,authentic,provisional,apprehensive,4,,,,,,,,,,,,,,,,,,,,,,,,,,,,,,,,,,,,,,
,,,,,,,,,,,,,,,88498,001,2022-04-25_00h23.53.934,SPAMnetsValid,2021.1.4,Win32,60.24822268,,,,,,,,,,,,,,,,,,,,,,,,,,,,,,,,,,,,,,3,10.0844,0,12,12,12,1,placate,rehabilitate,plagiarize,depredate,apprise,conciliate,5,,,,,,,,,,,,,,,,,,,,,,,,,,,,,,,,,,,,,,
,,,,,,,,,,,,,,,88498,001,2022-04-25_00h23.53.934,SPAMnetsValid,2021.1.4,Win32,60.24822268,,,,,,,,,,,,,,,,,,,,,,,,,,,,,,,,,,,,,,2,9.0365,0,13,13,13,1,surcease,enlightenment,cessation,inattention,censor,substitution,2,,,,,,,,,,,,,,,,,,,,,,,,,,,,,,,,,,,,,,
,,,,,,,,,,,,,,,88498,001,2022-04-25_00h23.53.934,SPAMnetsValid,2021.1.4,Win32,60.24822268,,,,,,,,,,,,,,,,,,,,,,,,,,,,,,,,,,,,,,2,6.1446,0,14,14,14,1,apathetic,wandering,impassive,hateful,prophetic,overflowing,2,,,,,,,,,,,,,,,,,,,,,,,,,,,,,,,,,,,,,,
,,,,,,,,,,,,,,,88498,001,2022-04-25_00h23.53.934,SPAMnetsValid,2021.1.4,Win32,60.24822268,,,,,,,,,,,,,,,,,,,,,,,,,,,,,,,,,,,,,,1,8.974,0,15,15,15,1,paternoster,paternalism,patricide,malediction,benediction,prayer,5,,,,,,,,,,,,,,,,,,,,,,,,,,,,,,,,,,,,,,
,,,,,,,,,,,,,,,88498,001,2022-04-25_00h23.53.934,SPAMnetsValid,2021.1.4,Win32,60.24822268,,,,,,,,,,,,,,,,,,,,,,,,,,,,,,,,,,,,,,4,3.0528,0,16,16,16,1,opalescence,opulence,senescence,bankruptcy,iridescence,assiduity,4,,,,,,,,,,,,,,,,,,,,,,,,,,,,,,,,,,,,,,
,,,,,,,,,,,,,,,88498,001,2022-04-25_00h23.53.934,SPAMnetsValid,2021.1.4,Win32,60.24822268,,,,,,,,,,,,,,,,,,,,,,,,,,,,,,,,,,,,,,2,3.4642,0,17,17,17,1,lush,stupid,luxurious,hazy,putrid,languishing,2,,,,,,,,,,,,,,,,,,,,,,,,,,,,,,,,,,,,,,
,,,,,,,,,,,,,,,88498,001,2022-04-25_00h23.53.934,SPAMnetsValid,2021.1.4,Win32,60.24822268,,,,,,,,,,,,,,,,,,,,,,,,,,,,,,,,,,,,,,1,8.3726,0,18,18,18,1,curtailment,expenditure,abandonment,abridgment,improvement,forgery,3,,,,,,,,,,,,,,,,,,,,,,,,,,,,,,,,,,,,,,
,,,,,,,,,,,,,,,88498,001,2022-04-25_00h23.53.934,SPAMnetsValid,2021.1.4,Win32,60.24822268,,,,,,,,,,,,,,,,,,,,,,,,,,,,,,,,,,,,,,4,9.5003,0,19,19,19,1,perversity,adversity,perviousness,travesty,waywardness,gentility,4,,,,,,,,,,,,,,,,,,,,,,,,,,,,,,,,,,,,,,
,,,,,,,,,,,,,,,88498,001,2022-04-25_00h23.53.934,SPAMnetsValid,2021.1.4,Win32,60.24822268,,,,,,,,,,,,,,,,,,,,,,,,,,,,,,,,,,,,,,4,2.922,0,20,20,20,1,calumnious,complimentary,analogous,slanderous,tempestuous,magnanimous,3,,,,,,,,,,,,,,,,,,,,,,,,,,,,,,,,,,,,,,
,,,,,,,,,,,,,,,88498,001,2022-04-25_00h23.53.934,SPAMnetsValid,2021.1.4,Win32,60.24822268,,,,,,,,,,,,,,,,,,,,,,,,,,,,,,,,,,,,,,1,4.4426,0,21,21,21,1,illiberality,bigotry,imbecility,illegibility,cautery,immaturity,1,,,,,,,,,,,,,,,,,,,,,,,,,,,,,,,,,,,,,,
,,,,,,,,,,,,,,,88498,001,2022-04-25_00h23.53.934,SPAMnetsValid,2021.1.4,Win32,60.24822268,,,,,,,,,,,,,,,,,,,,,,,,,,,,,,,,,,,,,,2,5.4433,0,22,22,22,1,clabber,rejoice,gossip,curdle,crow,hobble,3,,,,,,,,,,,,,,,,,,,,,,,,,,,,,,,,,,,,,,
,,,,,,,,,,,,,,,88498,001,2022-04-25_00h23.53.934,SPAMnetsValid,2021.1.4,Win32,60.24822268,,,,,,,,,,,,,,,,,,,,,,,,,,,,,,,,,,,,,,3,3.7858,0,23,23,23,1,sedulousness,diligence,credulousness,seduction,perilousness,frankness,1,,,,,,,,,,,,,,,,,,,,,,,,,,,,,,,,,,,,,,
,,,,,,,,,,,,,,,88498,001,2022-04-25_00h23.53.934,SPAMnetsValid,2021.1.4,Win32,60.24822268,,,,,,,,,,,,,,,,,,,,,,,,,,,,,,,,,,,,,,,,,,,,,,,,,,,,light,candle,0,0,0,0,1,,,,,,,,,,,,,,,,,,,,,,,,,,,,,,,
,,,,,,,,,,,,,,,88498,001,2022-04-25_00h23.53.934,SPAMnetsValid,2021.1.4,Win32,60.24822268,,,,,,,,,,,,,,,,,,,,,,,,,,,,,,,,,,,,,,,,,,,,,,,,,,,,fire,candle,1,0,1,0,1,,,,,,,,,,,,,,,,,,,,,,,,,,,,,,,
,,,,,,,,,,,,,,,88498,001,2022-04-25_00h23.53.934,SPAMnetsValid,2021.1.4,Win32,60.24822268,,,,,,,,,,,,,,,,,,,,,,,,,,,,,,,,,,,,,,,,,,,,,,,,,,,,raoting marshmellwos,candle,2,0,2,0,1,,,,,,,,,,,,,,,,,,,,,,,,,,,,,,,
,,,,,,,,,,,,,,,88498,001,2022-04-25_00h23.53.934,SPAMnetsValid,2021.1.4,Win32,60.24822268,,,,,,,,,,,,,,,,,,,,,,,,,,,,,,,,,,,,,,,,,,,,,,,,,,,,smell,candle,3,0,3,0,1,,,,,,,,,,,,,,,,,,,,,,,,,,,,,,,
,,,,,,,,,,,,,,,88498,001,2022-04-25_00h23.53.934,SPAMnetsValid,2021.1.4,Win32,60.24822268,,,,,,,,,,,,,,,,,,,,,,,,,,,,,,,,,,,,,,,,,,,,,,,,,,,,wax,candle,4,0,4,0,1,,,,,,,,,,,,,,,,,,,,,,,,,,,,,,,
,,,,,,,,,,,,,,,88498,001,2022-04-25_00h23.53.934,SPAMnetsValid,2021.1.4,Win32,60.24822268,,,,,,,,,,,,,,,,,,,,,,,,,,,,,,,,,,,,,,,,,,,,,,,,,,,,romance,candle,5,0,5,0,1,,,,,,,,,,,,,,,,,,,,,,,,,,,,,,,
,,,,,,,,,,,,,,,88498,001,2022-04-25_00h23.53.934,SPAMnetsValid,2021.1.4,Win32,60.24822268,,,,,,,,,,,,,,,,,,,,,,,,,,,,,,,,,,,,,,,,,,,,,,,,,,,,sex,candle,6,0,6,0,1,,,,,,,,,,,,,,,,,,,,,,,,,,,,,,,
,,,,,,,,,,,,,,,88498,001,2022-04-25_00h23.53.934,SPAMnetsValid,2021.1.4,Win32,60.24822268,,,,,,,,,,,,,,,,,,,,,,,,,,,,,,,,,,,,,,,,,,,,,,,,,,,,poopy bathrooms,candle,7,0,7,0,1,,,,,,,,,,,,,,,,,,,,,,,,,,,,,,,
,,,,,,,,,,,,,,,88498,001,2022-04-25_00h23.53.934,SPAMnetsValid,2021.1.4,Win32,60.24822268,,,,,,,,,,,,,,,,,,,,,,,,,,,,,,,,,,,,,,,,,,,,,,,,,,,,incense,candle,8,0,8,0,1,,,,,,,,,,,,,,,,,,,,,,,,,,,,,,,
,,,,,,,,,,,,,,,88498,001,2022-04-25_00h23.53.934,SPAMnetsValid,2021.1.4,Win32,60.24822268,,,,,,,,,,,,,,,,,,,,,,,,,,,,,,,,,,,,,,,,,,,,,,,,,,,,decor,candle,9,0,9,0,1,,,,,,,,,,,,,,,,,,,,,,,,,,,,,,,
,,,,,,,,,,,,,,,88498,001,2022-04-25_00h23.53.934,SPAMnetsValid,2021.1.4,Win32,60.24822268,,,,,,,,,,,,,,,,,,,,,,,,,,,,,,,,,,,,,,,,,,,,,,,,,,,,art,candle,10,0,10,0,1,,,,,,,,,,,,,,,,,,,,,,,,,,,,,,,
,,,,,,,,,,,,,,,88498,001,2022-04-25_00h23.53.934,SPAMnetsValid,2021.1.4,Win32,60.24822268,,,,,,,,,,,,,,,,,,,,,,,,,,,,,,,,,,,,,,,,,,,,,,,,,,,,love,candle,11,0,11,0,1,,,,,,,,,,,,,,,,,,,,,,,,,,,,,,,
,,,,,,,,,,,,,,,88498,001,2022-04-25_00h23.53.934,SPAMnetsValid,2021.1.4,Win32,60.24822268,,,,,,,,,,,,,,,,,,,,,,,,,,,,,,,,,,,,,,,,,,,,,,,,,,,,gift,candle,12,0,12,0,1,,,,,,,,,,,,,,,,,,,,,,,,,,,,,,,
,,,,,,,,,,,,,,,88498,001,2022-04-25_00h23.53.934,SPAMnetsValid,2021.1.4,Win32,60.24822268,,,,,,,,,,,,,,,,,,,,,,,,,,,,,,,,,,,,,,,,,,,,,,,,,,,,power outages,candle,13,0,13,0,1,,,,,,,,,,,,,,,,,,,,,,,,,,,,,,,
,,,,,,,,,,,,,,,88498,001,2022-04-25_00h23.53.934,SPAMnetsValid,2021.1.4,Win32,60.24822268,,,,,,,,,,,,,,,,,,,,,,,,,,,,,,,,,,,,,,,,,,,,,,,,,,,,cup holder,candle,14,0,14,0,1,,,,,,,,,,,,,,,,,,,,,,,,,,,,,,,
,,,,,,,,,,,,,,,88498,001,2022-04-25_00h23.53.934,SPAMnetsValid,2021.1.4,Win32,60.24822268,,,,,,,,,,,,,,,,,,,,,,,,,,,,,,,,,,,,,,,,,,,,,,,,,,,,studyness,candle,15,0,15,0,1,,,,,,,,,,,,,,,,,,,,,,,,,,,,,,,
,,,,,,,,,,,,,,,88498,001,2022-04-25_00h23.53.934,SPAMnetsValid,2021.1.4,Win32,60.24822268,,,,,,,,,,,,,,,,,,,,,,,,,,,,,,,,,,,,,,,,,,,,,,,,,,,,building stuff,candle,16,0,16,0,1,,,,,,,,,,,,,,,,,,,,,,,,,,,,,,,
,,,,,,,,,,,,,,,88498,001,2022-04-25_00h23.53.934,SPAMnetsValid,2021.1.4,Win32,60.24822268,,,,,,,,,,,,,,,,,,,,,,,,,,,,,,,,,,,,,,,,,,,,,,,,,,,,,,,,,,,0,0,0,1,1,candle,,,,,,,,,,,,,,,,,,,,,,,,,
,,,,,,,,,,,,,,,88498,001,2022-04-25_00h23.53.934,SPAMnetsValid,2021.1.4,Win32,60.24822268,,,,,,,,,,,,,,,,,,,,,,,,,,,,,,,,,,,,,,,,,,,,,,,,,,,,store water,bucket,0,0,0,0,1,,,,,,,,,,,,,,,,,,,,,,,,,,,,,,,
,,,,,,,,,,,,,,,88498,001,2022-04-25_00h23.53.934,SPAMnetsValid,2021.1.4,Win32,60.24822268,,,,,,,,,,,,,,,,,,,,,,,,,,,,,,,,,,,,,,,,,,,,,,,,,,,,clean,bucket,1,0,1,0,1,,,,,,,,,,,,,,,,,,,,,,,,,,,,,,,
,,,,,,,,,,,,,,,88498,001,2022-04-25_00h23.53.934,SPAMnetsValid,2021.1.4,Win32,60.24822268,,,,,,,,,,,,,,,,,,,,,,,,,,,,,,,,,,,,,,,,,,,,,,,,,,,,fill,bucket,2,0,2,0,1,,,,,,,,,,,,,,,,,,,,,,,,,,,,,,,
,,,,,,,,,,,,,,,88498,001,2022-04-25_00h23.53.934,SPAMnetsValid,2021.1.4,Win32,60.24822268,,,,,,,,,,,,,,,,,,,,,,,,,,,,,,,,,,,,,,,,,,,,,,,,,,,,hat,bucket,3,0,3,0,1,,,,,,,,,,,,,,,,,,,,,,,,,,,,,,,
,,,,,,,,,,,,,,,88498,001,2022-04-25_00h23.53.934,SPAMnetsValid,2021.1.4,Win32,60.24822268,,,,,,,,,,,,,,,,,,,,,,,,,,,,,,,,,,,,,,,,,,,,,,,,,,,,stool,bucket,4,0,4,0,1,,,,,,,,,,,,,,,,,,,,,,,,,,,,,,,
,,,,,,,,,,,,,,,88498,001,2022-04-25_00h23.53.934,SPAMnetsValid,2021.1.4,Win32,60.24822268,,,,,,,,,,,,,,,,,,,,,,,,,,,,,,,,,,,,,,,,,,,,,,,,,,,,sit on,bucket,5,0,5,0,1,,,,,,,,,,,,,,,,,,,,,,,,,,,,,,,
,,,,,,,,,,,,,,,88498,001,2022-04-25_00h23.53.934,SPAMnetsValid,2021.1.4,Win32,60.24822268,,,,,,,,,,,,,,,,,,,,,,,,,,,,,,,,,,,,,,,,,,,,,,,,,,,,poop,bucket,6,0,6,0,1,,,,,,,,,,,,,,,,,,,,,,,,,,,,,,,
,,,,,,,,,,,,,,,88498,001,2022-04-25_00h23.53.934,SPAMnetsValid,2021.1.4,Win32,60.24822268,,,,,,,,,,,,,,,,,,,,,,,,,,,,,,,,,,,,,,,,,,,,,,,,,,,,storage,bucket,7,0,7,0,1,,,,,,,,,,,,,,,,,,,,,,,,,,,,,,,
,,,,,,,,,,,,,,,88498,001,2022-04-25_00h23.53.934,SPAMnetsValid,2021.1.4,Win32,60.24822268,,,,,,,,,,,,,,,,,,,,,,,,,,,,,,,,,,,,,,,,,,,,,,,,,,,,maintence,bucket,8,0,8,0,1,,,,,,,,,,,,,,,,,,,,,,,,,,,,,,,
,,,,,,,,,,,,,,,88498,001,2022-04-25_00h23.53.934,SPAMnetsValid,2021.1.4,Win32,60.24822268,,,,,,,,,,,,,,,,,,,,,,,,,,,,,,,,,,,,,,,,,,,,,,,,,,,,catch stuff,bucket,9,0,9,0,1,,,,,,,,,,,,,,,,,,,,,,,,,,,,,,,
,,,,,,,,,,,,,,,88498,001,2022-04-25_00h23.53.934,SPAMnetsValid,2021.1.4,Win32,60.24822268,,,,,,,,,,,,,,,,,,,,,,,,,,,,,,,,,,,,,,,,,,,,,,,,,,,,fishing,bucket,10,0,10,0,1,,,,,,,,,,,,,,,,,,,,,,,,,,,,,,,
,,,,,,,,,,,,,,,88498,001,2022-04-25_00h23.53.934,SPAMnetsValid,2021.1.4,Win32,60.24822268,,,,,,,,,,,,,,,,,,,,,,,,,,,,,,,,,,,,,,,,,,,,,,,,,,,,mop,bucket,11,0,11,0,1,,,,,,,,,,,,,,,,,,,,,,,,,,,,,,,
,,,,,,,,,,,,,,,88498,001,2022-04-25_00h23.53.934,SPAMnetsValid,2021.1.4,Win32,60.24822268,,,,,,,,,,,,,,,,,,,,,,,,,,,,,,,,,,,,,,,,,,,,,,,,,,,,grow plants,bucket,12,0,12,0,1,,,,,,,,,,,,,,,,,,,,,,,,,,,,,,,
,,,,,,,,,,,,,,,88498,001,2022-04-25_00h23.53.934,SPAMnetsValid,2021.1.4,Win32,60.24822268,,,,,,,,,,,,,,,,,,,,,,,,,,,,,,,,,,,,,,,,,,,,,,,,,,,,shower,bucket,13,0,13,0,1,,,,,,,,,,,,,,,,,,,,,,,,,,,,,,,
,,,,,,,,,,,,,,,88498,001,2022-04-25_00h23.53.934,SPAMnetsValid,2021.1.4,Win32,60.24822268,,,,,,,,,,,,,,,,,,,,,,,,,,,,,,,,,,,,,,,,,,,,,,,,,,,,throw,bucket,14,0,14,0,1,,,,,,,,,,,,,,,,,,,,,,,,,,,,,,,
,,,,,,,,,,,,,,,88498,001,2022-04-25_00h23.53.934,SPAMnetsValid,2021.1.4,Win32,60.24822268,,,,,,,,,,,,,,,,,,,,,,,,,,,,,,,,,,,,,,,,,,,,,,,,,,,,,,,,,,,0,1,1,0,1,bucket,,,,,,,,,,,,,,,,,,,,,,,,,
,,,,,,,,,,,,,,,88498,001,2022-04-25_00h23.53.934,SPAMnetsValid,2021.1.4,Win32,60.24822268,,,,,,,,,,,,,,,,,,,,,,,,,,,,,,,,,,,,,,,,,,,,,,,,,,,,sleep,pillow,0,0,0,0,1,,,,,,,,,,,,,,,,,,,,,,,,,,,,,,,
,,,,,,,,,,,,,,,88498,001,2022-04-25_00h23.53.934,SPAMnetsValid,2021.1.4,Win32,60.24822268,,,,,,,,,,,,,,,,,,,,,,,,,,,,,,,,,,,,,,,,,,,,,,,,,,,,se,pillow,1,0,1,0,1,,,,,,,,,,,,,,,,,,,,,,,,,,,,,,,
,,,,,,,,,,,,,,,88498,001,2022-04-25_00h23.53.934,SPAMnetsValid,2021.1.4,Win32,60.24822268,,,,,,,,,,,,,,,,,,,,,,,,,,,,,,,,,,,,,,,,,,,,,,,,,,,,sex,pillow,2,0,2,0,1,,,,,,,,,,,,,,,,,,,,,,,,,,,,,,,
,,,,,,,,,,,,,,,88498,001,2022-04-25_00h23.53.934,SPAMnetsValid,2021.1.4,Win32,60.24822268,,,,,,,,,,,,,,,,,,,,,,,,,,,,,,,,,,,,,,,,,,,,,,,,,,,,fight,pillow,3,0,3,0,1,,,,,,,,,,,,,,,,,,,,,,,,,,,,,,,
,,,,,,,,,,,,,,,88498,001,2022-04-25_00h23.53.934,SPAMnetsValid,2021.1.4,Win32,60.24822268,,,,,,,,,,,,,,,,,,,,,,,,,,,,,,,,,,,,,,,,,,,,,,,,,,,,stuffing,pillow,4,0,4,0,1,,,,,,,,,,,,,,,,,,,,,,,,,,,,,,,
,,,,,,,,,,,,,,,88498,001,2022-04-25_00h23.53.934,SPAMnetsValid,2021.1.4,Win32,60.24822268,,,,,,,,,,,,,,,,,,,,,,,,,,,,,,,,,,,,,,,,,,,,,,,,,,,,forts,pillow,5,0,5,0,1,,,,,,,,,,,,,,,,,,,,,,,,,,,,,,,
,,,,,,,,,,,,,,,88498,001,2022-04-25_00h23.53.934,SPAMnetsValid,2021.1.4,Win32,60.24822268,,,,,,,,,,,,,,,,,,,,,,,,,,,,,,,,,,,,,,,,,,,,,,,,,,,,padding,pillow,6,0,6,0,1,,,,,,,,,,,,,,,,,,,,,,,,,,,,,,,
,,,,,,,,,,,,,,,88498,001,2022-04-25_00h23.53.934,SPAMnetsValid,2021.1.4,Win32,60.24822268,,,,,,,,,,,,,,,,,,,,,,,,,,,,,,,,,,,,,,,,,,,,,,,,,,,,cuddle,pillow,7,0,7,0,1,,,,,,,,,,,,,,,,,,,,,,,,,,,,,,,
,,,,,,,,,,,,,,,88498,001,2022-04-25_00h23.53.934,SPAMnetsValid,2021.1.4,Win32,60.24822268,,,,,,,,,,,,,,,,,,,,,,,,,,,,,,,,,,,,,,,,,,,,,,,,,,,,spoon,pillow,8,0,8,0,1,,,,,,,,,,,,,,,,,,,,,,,,,,,,,,,
,,,,,,,,,,,,,,,88498,001,2022-04-25_00h23.53.934,SPAMnetsValid,2021.1.4,Win32,60.24822268,,,,,,,,,,,,,,,,,,,,,,,,,,,,,,,,,,,,,,,,,,,,,,,,,,,,decor,pillow,9,0,9,0,1,,,,,,,,,,,,,,,,,,,,,,,,,,,,,,,
,,,,,,,,,,,,,,,88498,001,2022-04-25_00h23.53.934,SPAMnetsValid,2021.1.4,Win32,60.24822268,,,,,,,,,,,,,,,,,,,,,,,,,,,,,,,,,,,,,,,,,,,,,,,,,,,,gift,pillow,10,0,10,0,1,,,,,,,,,,,,,,,,,,,,,,,,,,,,,,,
,,,,,,,,,,,,,,,88498,001,2022-04-25_00h23.53.934,SPAMnetsValid,2021.1.4,Win32,60.24822268,,,,,,,,,,,,,,,,,,,,,,,,,,,,,,,,,,,,,,,,,,,,,,,,,,,,couches,pillow,11,0,11,0,1,,,,,,,,,,,,,,,,,,,,,,,,,,,,,,,
,,,,,,,,,,,,,,,88498,001,2022-04-25_00h23.53.934,SPAMnetsValid,2021.1.4,Win32,60.24822268,,,,,,,,,,,,,,,,,,,,,,,,,,,,,,,,,,,,,,,,,,,,,,,,,,,,beds,pillow,12,0,12,0,1,,,,,,,,,,,,,,,,,,,,,,,,,,,,,,,
,,,,,,,,,,,,,,,88498,001,2022-04-25_00h23.53.934,SPAMnetsValid,2021.1.4,Win32,60.24822268,,,,,,,,,,,,,,,,,,,,,,,,,,,,,,,,,,,,,,,,,,,,,,,,,,,,sofa,pillow,13,0,13,0,1,,,,,,,,,,,,,,,,,,,,,,,,,,,,,,,
,,,,,,,,,,,,,,,88498,001,2022-04-25_00h23.53.934,SPAMnetsValid,2021.1.4,Win32,60.24822268,,,,,,,,,,,,,,,,,,,,,,,,,,,,,,,,,,,,,,,,,,,,,,,,,,,,holidays,pillow,14,0,14,0,1,,,,,,,,,,,,,,,,,,,,,,,,,,,,,,,
,,,,,,,,,,,,,,,88498,001,2022-04-25_00h23.53.934,SPAMnetsValid,2021.1.4,Win32,60.24822268,,,,,,,,,,,,,,,,,,,,,,,,,,,,,,,,,,,,,,,,,,,,,,,,,,,,sell,pillow,15,0,15,0,1,,,,,,,,,,,,,,,,,,,,,,,,,,,,,,,
,,,,,,,,,,,,,,,88498,001,2022-04-25_00h23.53.934,SPAMnetsValid,2021.1.4,Win32,60.24822268,,,,,,,,,,,,,,,,,,,,,,,,,,,,,,,,,,,,,,,,,,,,,,,,,,,,lay on it ,pillow,16,0,16,0,1,,,,,,,,,,,,,,,,,,,,,,,,,,,,,,,
,,,,,,,,,,,,,,,88498,001,2022-04-25_00h23.53.934,SPAMnetsValid,2021.1.4,Win32,60.24822268,,,,,,,,,,,,,,,,,,,,,,,,,,,,,,,,,,,,,,,,,,,,,,,,,,,,,,,,,,,0,2,2,2,1,pillow,,,,,,,,,,,,,,,,,,,,,,,,,
,,,,,,,,,,,,,,,88498,001,2022-04-25_00h23.53.934,SPAMnetsValid,2021.1.4,Win32,60.24822268,,,,,,,,,,,,,,,,,,,,,,,,,,,,,,,,,,,,,,,,,,,,,,,,,,,,,,,,,,,,,,,,,whale ,Animals,0,0,0,0,1,,,,,,,,,,,,,,,,,,
,,,,,,,,,,,,,,,88498,001,2022-04-25_00h23.53.934,SPAMnetsValid,2021.1.4,Win32,60.24822268,,,,,,,,,,,,,,,,,,,,,,,,,,,,,,,,,,,,,,,,,,,,,,,,,,,,,,,,,,,,,,,,,dog,Animals,1,0,1,0,1,,,,,,,,,,,,,,,,,,
,,,,,,,,,,,,,,,88498,001,2022-04-25_00h23.53.934,SPAMnetsValid,2021.1.4,Win32,60.24822268,,,,,,,,,,,,,,,,,,,,,,,,,,,,,,,,,,,,,,,,,,,,,,,,,,,,,,,,,,,,,,,,,cat,Animals,2,0,2,0,1,,,,,,,,,,,,,,,,,,
,,,,,,,,,,,,,,,88498,001,2022-04-25_00h23.53.934,SPAMnetsValid,2021.1.4,Win32,60.24822268,,,,,,,,,,,,,,,,,,,,,,,,,,,,,,,,,,,,,,,,,,,,,,,,,,,,,,,,,,,,,,,,,lion,Animals,3,0,3,0,1,,,,,,,,,,,,,,,,,,
,,,,,,,,,,,,,,,88498,001,2022-04-25_00h23.53.934,SPAMnetsValid,2021.1.4,Win32,60.24822268,,,,,,,,,,,,,,,,,,,,,,,,,,,,,,,,,,,,,,,,,,,,,,,,,,,,,,,,,,,,,,,,,fish,Animals,4,0,4,0,1,,,,,,,,,,,,,,,,,,
,,,,,,,,,,,,,,,88498,001,2022-04-25_00h23.53.934,SPAMnetsValid,2021.1.4,Win32,60.24822268,,,,,,,,,,,,,,,,,,,,,,,,,,,,,,,,,,,,,,,,,,,,,,,,,,,,,,,,,,,,,,,,,tuna,Animals,5,0,5,0,1,,,,,,,,,,,,,,,,,,
,,,,,,,,,,,,,,,88498,001,2022-04-25_00h23.53.934,SPAMnetsValid,2021.1.4,Win32,60.24822268,,,,,,,,,,,,,,,,,,,,,,,,,,,,,,,,,,,,,,,,,,,,,,,,,,,,,,,,,,,,,,,,,zebra,Animals,6,0,6,0,1,,,,,,,,,,,,,,,,,,
,,,,,,,,,,,,,,,88498,001,2022-04-25_00h23.53.934,SPAMnetsValid,2021.1.4,Win32,60.24822268,,,,,,,,,,,,,,,,,,,,,,,,,,,,,,,,,,,,,,,,,,,,,,,,,,,,,,,,,,,,,,,,,giraffh,Animals,7,0,7,0,1,,,,,,,,,,,,,,,,,,
,,,,,,,,,,,,,,,88498,001,2022-04-25_00h23.53.934,SPAMnetsValid,2021.1.4,Win32,60.24822268,,,,,,,,,,,,,,,,,,,,,,,,,,,,,,,,,,,,,,,,,,,,,,,,,,,,,,,,,,,,,,,,,bear,Animals,8,0,8,0,1,,,,,,,,,,,,,,,,,,
,,,,,,,,,,,,,,,88498,001,2022-04-25_00h23.53.934,SPAMnetsValid,2021.1.4,Win32,60.24822268,,,,,,,,,,,,,,,,,,,,,,,,,,,,,,,,,,,,,,,,,,,,,,,,,,,,,,,,,,,,,,,,,lizard,Animals,9,0,9,0,1,,,,,,,,,,,,,,,,,,
,,,,,,,,,,,,,,,88498,001,2022-04-25_00h23.53.934,SPAMnetsValid,2021.1.4,Win32,60.24822268,,,,,,,,,,,,,,,,,,,,,,,,,,,,,,,,,,,,,,,,,,,,,,,,,,,,,,,,,,,,,,,,,cow,Animals,10,0,10,0,1,,,,,,,,,,,,,,,,,,
,,,,,,,,,,,,,,,88498,001,2022-04-25_00h23.53.934,SPAMnetsValid,2021.1.4,Win32,60.24822268,,,,,,,,,,,,,,,,,,,,,,,,,,,,,,,,,,,,,,,,,,,,,,,,,,,,,,,,,,,,,,,,,pig,Animals,11,0,11,0,1,,,,,,,,,,,,,,,,,,
,,,,,,,,,,,,,,,88498,001,2022-04-25_00h23.53.934,SPAMnetsValid,2021.1.4,Win32,60.24822268,,,,,,,,,,,,,,,,,,,,,,,,,,,,,,,,,,,,,,,,,,,,,,,,,,,,,,,,,,,,,,,,,chicken,Animals,12,0,12,0,1,,,,,,,,,,,,,,,,,,
,,,,,,,,,,,,,,,88498,001,2022-04-25_00h23.53.934,SPAMnetsValid,2021.1.4,Win32,60.24822268,,,,,,,,,,,,,,,,,,,,,,,,,,,,,,,,,,,,,,,,,,,,,,,,,,,,,,,,,,,,,,,,,donkey,Animals,13,0,13,0,1,,,,,,,,,,,,,,,,,,
,,,,,,,,,,,,,,,88498,001,2022-04-25_00h23.53.934,SPAMnetsValid,2021.1.4,Win32,60.24822268,,,,,,,,,,,,,,,,,,,,,,,,,,,,,,,,,,,,,,,,,,,,,,,,,,,,,,,,,,,,,,,,,horse,Animals,14,0,14,0,1,,,,,,,,,,,,,,,,,,
,,,,,,,,,,,,,,,88498,001,2022-04-25_00h23.53.934,SPAMnetsValid,2021.1.4,Win32,60.24822268,,,,,,,,,,,,,,,,,,,,,,,,,,,,,,,,,,,,,,,,,,,,,,,,,,,,,,,,,,,,,,,,,bat,Animals,15,0,15,0,1,,,,,,,,,,,,,,,,,,
,,,,,,,,,,,,,,,88498,001,2022-04-25_00h23.53.934,SPAMnetsValid,2021.1.4,Win32,60.24822268,,,,,,,,,,,,,,,,,,,,,,,,,,,,,,,,,,,,,,,,,,,,,,,,,,,,,,,,,,,,,,,,,goat,Animals,16,0,16,0,1,,,,,,,,,,,,,,,,,,
,,,,,,,,,,,,,,,88498,001,2022-04-25_00h23.53.934,SPAMnetsValid,2021.1.4,Win32,60.24822268,,,,,,,,,,,,,,,,,,,,,,,,,,,,,,,,,,,,,,,,,,,,,,,,,,,,,,,,,,,,,,,,,lamb,Animals,17,0,17,0,1,,,,,,,,,,,,,,,,,,
,,,,,,,,,,,,,,,88498,001,2022-04-25_00h23.53.934,SPAMnetsValid,2021.1.4,Win32,60.24822268,,,,,,,,,,,,,,,,,,,,,,,,,,,,,,,,,,,,,,,,,,,,,,,,,,,,,,,,,,,,,,,,,lippard,Animals,18,0,18,0,1,,,,,,,,,,,,,,,,,,
,,,,,,,,,,,,,,,88498,001,2022-04-25_00h23.53.934,SPAMnetsValid,2021.1.4,Win32,60.24822268,,,,,,,,,,,,,,,,,,,,,,,,,,,,,,,,,,,,,,,,,,,,,,,,,,,,,,,,,,,,,,,,,chettah,Animals,19,0,19,0,1,,,,,,,,,,,,,,,,,,
,,,,,,,,,,,,,,,88498,001,2022-04-25_00h23.53.934,SPAMnetsValid,2021.1.4,Win32,60.24822268,,,,,,,,,,,,,,,,,,,,,,,,,,,,,,,,,,,,,,,,,,,,,,,,,,,,,,,,,,,,,,,,,humans,Animals,20,0,20,0,1,,,,,,,,,,,,,,,,,,
,,,,,,,,,,,,,,,88498,001,2022-04-25_00h23.53.934,SPAMnetsValid,2021.1.4,Win32,60.24822268,,,,,,,,,,,,,,,,,,,,,,,,,,,,,,,,,,,,,,,,,,,,,,,,,,,,,,,,,,,,,,,,,ant,Animals,21,0,21,0,1,,,,,,,,,,,,,,,,,,
,,,,,,,,,,,,,,,88498,001,2022-04-25_00h23.53.934,SPAMnetsValid,2021.1.4,Win32,60.24822268,,,,,,,,,,,,,,,,,,,,,,,,,,,,,,,,,,,,,,,,,,,,,,,,,,,,,,,,,,,,,,,,,beatle,Animals,22,0,22,0,1,,,,,,,,,,,,,,,,,,
,,,,,,,,,,,,,,,88498,001,2022-04-25_00h23.53.934,SPAMnetsValid,2021.1.4,Win32,60.24822268,,,,,,,,,,,,,,,,,,,,,,,,,,,,,,,,,,,,,,,,,,,,,,,,,,,,,,,,,,,,,,,,,shark,Animals,23,0,23,0,1,,,,,,,,,,,,,,,,,,
,,,,,,,,,,,,,,,88498,001,2022-04-25_00h23.53.934,SPAMnetsValid,2021.1.4,Win32,60.24822268,,,,,,,,,,,,,,,,,,,,,,,,,,,,,,,,,,,,,,,,,,,,,,,,,,,,,,,,,,,,,,,,,dolphin,Animals,24,0,24,0,1,,,,,,,,,,,,,,,,,,
,,,,,,,,,,,,,,,88498,001,2022-04-25_00h23.53.934,SPAMnetsValid,2021.1.4,Win32,60.24822268,,,,,,,,,,,,,,,,,,,,,,,,,,,,,,,,,,,,,,,,,,,,,,,,,,,,,,,,,,,,,,,,,seals,Animals,25,0,25,0,1,,,,,,,,,,,,,,,,,,
,,,,,,,,,,,,,,,88498,001,2022-04-25_00h23.53.934,SPAMnetsValid,2021.1.4,Win32,60.24822268,,,,,,,,,,,,,,,,,,,,,,,,,,,,,,,,,,,,,,,,,,,,,,,,,,,,,,,,,,,,,,,,,rhino,Animals,26,0,26,0,1,,,,,,,,,,,,,,,,,,
,,,,,,,,,,,,,,,88498,001,2022-04-25_00h23.53.934,SPAMnetsValid,2021.1.4,Win32,60.24822268,,,,,,,,,,,,,,,,,,,,,,,,,,,,,,,,,,,,,,,,,,,,,,,,,,,,,,,,,,,,,,,,,elephant,Animals,27,0,27,0,1,,,,,,,,,,,,,,,,,,
,,,,,,,,,,,,,,,88498,001,2022-04-25_00h23.53.934,SPAMnetsValid,2021.1.4,Win32,60.24822268,,,,,,,,,,,,,,,,,,,,,,,,,,,,,,,,,,,,,,,,,,,,,,,,,,,,,,,,,,,,,,,,,snail,Animals,28,0,28,0,1,,,,,,,,,,,,,,,,,,
,,,,,,,,,,,,,,,88498,001,2022-04-25_00h23.53.934,SPAMnetsValid,2021.1.4,Win32,60.24822268,,,,,,,,,,,,,,,,,,,,,,,,,,,,,,,,,,,,,,,,,,,,,,,,,,,,,,,,,,,,,,,,,frog,Animals,29,0,29,0,1,,,,,,,,,,,,,,,,,,
,,,,,,,,,,,,,,,88498,001,2022-04-25_00h23.53.934,SPAMnetsValid,2021.1.4,Win32,60.24822268,,,,,,,,,,,,,,,,,,,,,,,,,,,,,,,,,,,,,,,,,,,,,,,,,,,,,,,,,,,,,,,,,tortoise,Animals,30,0,30,0,1,,,,,,,,,,,,,,,,,,
,,,,,,,,,,,,,,,88498,001,2022-04-25_00h23.53.934,SPAMnetsValid,2021.1.4,Win32,60.24822268,,,,,,,,,,,,,,,,,,,,,,,,,,,,,,,,,,,,,,,,,,,,,,,,,,,,,,,,,,,,,,,,,germs,Animals,31,0,31,0,1,,,,,,,,,,,,,,,,,,
,,,,,,,,,,,,,,,88498,001,2022-04-25_00h23.53.934,SPAMnetsValid,2021.1.4,Win32,60.24822268,,,,,,,,,,,,,,,,,,,,,,,,,,,,,,,,,,,,,,,,,,,,,,,,,,,,,,,,,,,,,,,,,,,,,,,,0,0,0,0,1,Animals,,,,,,,,,,,,
,,,,,,,,,,,,,,,88498,001,2022-04-25_00h23.53.934,SPAMnetsValid,2021.1.4,Win32,60.24822268,,,,,,,,,,,,,,,,,,,,,,,,,,,,,,,,,,,,,,,,,,,,,,,,,,,,,,,,,,,,,,,,,,,,,,,,,,,,,,4,6.8828,0,0,0,0,1,"I enjoy concentrating on a fantasy or daydream and exploring all its possibilities, letting it grow and develop.",0,1,,
,,,,,,,,,,,,,,,88498,001,2022-04-25_00h23.53.934,SPAMnetsValid,2021.1.4,Win32,60.24822268,,,,,,,,,,,,,,,,,,,,,,,,,,,,,,,,,,,,,,,,,,,,,,,,,,,,,,,,,,,,,,,,,,,,,,,,,,,,,,4,2.2354,0,1,1,1,1,I think it's interesting to learn and develop new hobbies.,0,2,,
,,,,,,,,,,,,,,,88498,001,2022-04-25_00h23.53.934,SPAMnetsValid,2021.1.4,Win32,60.24822268,,,,,,,,,,,,,,,,,,,,,,,,,,,,,,,,,,,,,,,,,,,,,,,,,,,,,,,,,,,,,,,,,,,,,,,,,,,,,,4,1.9849,0,2,2,2,1,I am intrigued by the patterns I find in art and nature.,0,3,,
,,,,,,,,,,,,,,,88498,001,2022-04-25_00h23.53.934,SPAMnetsValid,2021.1.4,Win32,60.24822268,,,,,,,,,,,,,,,,,,,,,,,,,,,,,,,,,,,,,,,,,,,,,,,,,,,,,,,,,,,,,,,,,,,,,,,,,,,,,,4,2.2853,0,3,3,3,1,I believe letting students hear controversial speakers can only confuse and mislead them.,1,4,,
,,,,,,,,,,,,,,,88498,001,2022-04-25_00h23.53.934,SPAMnetsValid,2021.1.4,Win32,60.24822268,,,,,,,,,,,,,,,,,,,,,,,,,,,,,,,,,,,,,,,,,,,,,,,,,,,,,,,,,,,,,,,,,,,,,,,,,,,,,,5,5.4555,0,4,4,4,1,Poetry has little or no effect on me.,1,5,,
,,,,,,,,,,,,,,,88498,001,2022-04-25_00h23.53.934,SPAMnetsValid,2021.1.4,Win32,60.24822268,,,,,,,,,,,,,,,,,,,,,,,,,,,,,,,,,,,,,,,,,,,,,,,,,,,,,,,,,,,,,,,,,,,,,,,,,,,,,,1,6.7065,0,5,5,5,1,I would have difficulty just letting my mind wander without control or guidance.,1,6,,
,,,,,,,,,,,,,,,88498,001,2022-04-25_00h23.53.934,SPAMnetsValid,2021.1.4,Win32,60.24822268,,,,,,,,,,,,,,,,,,,,,,,,,,,,,,,,,,,,,,,,,,,,,,,,,,,,,,,,,,,,,,,,,,,,,,,,,,,,,,3,3.9534,0,6,6,6,1,I seldom notice the moods or feelings that different environments produce.,1,7,,
,,,,,,,,,,,,,,,88498,001,2022-04-25_00h23.53.934,SPAMnetsValid,2021.1.4,Win32,60.24822268,,,,,,,,,,,,,,,,,,,,,,,,,,,,,,,,,,,,,,,,,,,,,,,,,,,,,,,,,,,,,,,,,,,,,,,,,,,,,,3,3.2703,0,7,7,7,1,I experience a wide range of emotions or feelings.,0,8,,
,,,,,,,,,,,,,,,88498,001,2022-04-25_00h23.53.934,SPAMnetsValid,2021.1.4,Win32,60.24822268,,,,,,,,,,,,,,,,,,,,,,,,,,,,,,,,,,,,,,,,,,,,,,,,,,,,,,,,,,,,,,,,,,,,,,,,,,,,,,1,2.2011,0,8,8,8,1,"Sometimes when I am reading poetry or looking at a work of art, I feel a chill or wave of excitement.",0,9,,
,,,,,,,,,,,,,,,88498,001,2022-04-25_00h23.53.934,SPAMnetsValid,2021.1.4,Win32,60.24822268,,,,,,,,,,,,,,,,,,,,,,,,,,,,,,,,,,,,,,,,,,,,,,,,,,,,,,,,,,,,,,,,,,,,,,,,,,,,,,4,2.3683,0,9,9,9,1,I have little interest in speculating on the nature of the universe or the human condition.,1,10,,
,,,,,,,,,,,,,,,88498,001,2022-04-25_00h23.53.934,SPAMnetsValid,2021.1.4,Win32,60.24822268,,,,,,,,,,,,,,,,,,,,,,,,,,,,,,,,,,,,,,,,,,,,,,,,,,,,,,,,,,,,,,,,,,,,,,,,,,,,,,3,2.9024,0,10,10,10,1,I have a lot of intellectual curiosity.,0,11,,
,,,,,,,,,,,,,,,88498,001,2022-04-25_00h23.53.934,SPAMnetsValid,2021.1.4,Win32,60.24822268,,,,,,,,,,,,,,,,,,,,,,,,,,,,,,,,,,,,,,,,,,,,,,,,,,,,,,,,,,,,,,,,,,,,,,,,,,,,,,3,2.8513,0,11,11,11,1,I often enjoy playing with theories or abstract ideas.,0,12,,
,,,,,,,,,,,,,,,88498,001,2022-04-25_00h23.53.934,SPAMnetsValid,2021.1.4,Win32,60.24822268,,,,,,,,,,,,,,,,,,,,,,,,,,,,,,,,,,,,,,,,,,,,,,,,,,,,,,,,,,,,,,,,,,,,,,,,,,,,,,,,,,,,,,,,return,13.8128
