key_resp_3.keys,key_resp_3.rt,slider.response,slider.rt,rjt_rating,rjt_RT,trials_22.thisRepN,trials_22.thisTrialN,trials_22.thisN,trials_22.thisIndex,trials_22.ran,rjt_order,word1,word2,attention,participant,session,date,expName,psychopyVersion,OS,frameRate,trials_99.thisRepN,trials_99.thisTrialN,trials_99.thisN,trials_99.thisIndex,trials_99.ran,trials_5.thisRepN,trials_5.thisTrialN,trials_5.thisN,trials_5.thisIndex,trials_5.ran,repOne,repTwo,slider_2.response,slider_2.rt,trials_24.thisRepN,trials_24.thisTrialN,trials_24.thisN,trials_24.thisIndex,trials_24.ran,trials_4.thisRepN,trials_4.thisTrialN,trials_4.thisN,trials_4.thisIndex,trials_4.ran,slider_extend_2.response,slider_extend_2.rt,trials_6.thisRepN,trials_6.thisTrialN,trials_6.thisN,trials_6.thisIndex,trials_6.ran,vCue2,R1,R2,R3,R4,correct,sliderVocab.response,sliderVocab.rt,trials_7.thisRepN,trials_7.thisTrialN,trials_7.thisN,trials_7.thisIndex,trials_7.ran,VocabCue,VR1,VR2,VR3,VR4,VR5,VocabCorrect,AUT_resp,AUT_label,trials.thisRepN,trials.thisTrialN,trials.thisN,trials.thisIndex,trials.ran,trials_2.thisRepN,trials_2.thisTrialN,trials_2.thisN,trials_2.thisIndex,trials_2.ran,aut_prompt,VF_response,VF_tag,trials_16.thisRepN,trials_16.thisTrialN,trials_16.thisN,trials_16.thisIndex,trials_16.ran,trials_17.thisRepN,trials_17.thisTrialN,trials_17.thisN,trials_17.thisIndex,trials_17.ran,VFcond,open_slider.response,open_slider.rt,trials_3.thisRepN,trials_3.thisTrialN,trials_3.thisN,trials_3.thisIndex,trials_3.ran,OpenQ,Rev,OPEN_ORDER,key_resp_2.keys,key_resp_2.rt
return,1.583,9,3.583,9,3.583,0,0,0,96,1,82,cake,kitchen,,88545,001,2022-04-25_16h12.21.854,SPAMnetsValid,2021.1.4,MacIntel,55.55555556,,,,,,,,,,,,,,,,,,,,,,,,,,,,,,,,,,,,,,,,,,,,,,,,,,,,,,,,,,,,,,,,,,,,,,,,,,,,,,,,,,,,,,,,,
,,5,4.082,5,4.082,0,1,1,78,1,30,cookie,pretzel,,88545,001,2022-04-25_16h12.21.854,SPAMnetsValid,2021.1.4,MacIntel,55.55555556,,,,,,,,,,,,,,,,,,,,,,,,,,,,,,,,,,,,,,,,,,,,,,,,,,,,,,,,,,,,,,,,,,,,,,,,,,,,,,,,,,,,,,,,,
,,1,2.911,1,2.911,0,2,2,0,1,53,garden,pretzel,,88545,001,2022-04-25_16h12.21.854,SPAMnetsValid,2021.1.4,MacIntel,55.55555556,,,,,,,,,,,,,,,,,,,,,,,,,,,,,,,,,,,,,,,,,,,,,,,,,,,,,,,,,,,,,,,,,,,,,,,,,,,,,,,,,,,,,,,,,
,,1,2.247,1,2.247,0,3,3,20,1,39,melon,pretzel,,88545,001,2022-04-25_16h12.21.854,SPAMnetsValid,2021.1.4,MacIntel,55.55555556,,,,,,,,,,,,,,,,,,,,,,,,,,,,,,,,,,,,,,,,,,,,,,,,,,,,,,,,,,,,,,,,,,,,,,,,,,,,,,,,,,,,,,,,,
,,1,1.8,1,1.8,0,4,4,65,1,46,garden,yogurt,,88545,001,2022-04-25_16h12.21.854,SPAMnetsValid,2021.1.4,MacIntel,55.55555556,,,,,,,,,,,,,,,,,,,,,,,,,,,,,,,,,,,,,,,,,,,,,,,,,,,,,,,,,,,,,,,,,,,,,,,,,,,,,,,,,,,,,,,,,
,,1,1.846,1,1.846,0,5,5,41,1,19,microwave,pretzel,,88545,001,2022-04-25_16h12.21.854,SPAMnetsValid,2021.1.4,MacIntel,55.55555556,,,,,,,,,,,,,,,,,,,,,,,,,,,,,,,,,,,,,,,,,,,,,,,,,,,,,,,,,,,,,,,,,,,,,,,,,,,,,,,,,,,,,,,,,
,,1,1.702,1,1.702,0,6,6,4,1,83,broom,carrot,,88545,001,2022-04-25_16h12.21.854,SPAMnetsValid,2021.1.4,MacIntel,55.55555556,,,,,,,,,,,,,,,,,,,,,,,,,,,,,,,,,,,,,,,,,,,,,,,,,,,,,,,,,,,,,,,,,,,,,,,,,,,,,,,,,,,,,,,,,
,,9,2.383,9,2.383,0,7,7,10,1,191,cake,cake,CHECK,88545,001,2022-04-25_16h12.21.854,SPAMnetsValid,2021.1.4,MacIntel,55.55555556,,,,,,,,,,,,,,,,,,,,,,,,,,,,,,,,,,,,,,,,,,,,,,,,,,,,,,,,,,,,,,,,,,,,,,,,,,,,,,,,,,,,,,,,,
,,1,1.982,1,1.982,0,8,8,8,1,43,chocolate,tomato,,88545,001,2022-04-25_16h12.21.854,SPAMnetsValid,2021.1.4,MacIntel,55.55555556,,,,,,,,,,,,,,,,,,,,,,,,,,,,,,,,,,,,,,,,,,,,,,,,,,,,,,,,,,,,,,,,,,,,,,,,,,,,,,,,,,,,,,,,,
,,1,1.878,1,1.878,0,9,9,46,1,41,broom,cactus,,88545,001,2022-04-25_16h12.21.854,SPAMnetsValid,2021.1.4,MacIntel,55.55555556,,,,,,,,,,,,,,,,,,,,,,,,,,,,,,,,,,,,,,,,,,,,,,,,,,,,,,,,,,,,,,,,,,,,,,,,,,,,,,,,,,,,,,,,,
,,5,8.433,5,8.433,0,10,10,28,1,84,oven,tomato,,88545,001,2022-04-25_16h12.21.854,SPAMnetsValid,2021.1.4,MacIntel,55.55555556,,,,,,,,,,,,,,,,,,,,,,,,,,,,,,,,,,,,,,,,,,,,,,,,,,,,,,,,,,,,,,,,,,,,,,,,,,,,,,,,,,,,,,,,,
,,1,1.628,1,1.628,0,11,11,38,1,88,cactus,melon,,88545,001,2022-04-25_16h12.21.854,SPAMnetsValid,2021.1.4,MacIntel,55.55555556,,,,,,,,,,,,,,,,,,,,,,,,,,,,,,,,,,,,,,,,,,,,,,,,,,,,,,,,,,,,,,,,,,,,,,,,,,,,,,,,,,,,,,,,,
,,6,6.393,6,6.393,0,12,12,35,1,55,tomato,tree,,88545,001,2022-04-25_16h12.21.854,SPAMnetsValid,2021.1.4,MacIntel,55.55555556,,,,,,,,,,,,,,,,,,,,,,,,,,,,,,,,,,,,,,,,,,,,,,,,,,,,,,,,,,,,,,,,,,,,,,,,,,,,,,,,,,,,,,,,,
,,1,1.797,1,1.797,0,13,13,43,1,11,refrigerator,tree,,88545,001,2022-04-25_16h12.21.854,SPAMnetsValid,2021.1.4,MacIntel,55.55555556,,,,,,,,,,,,,,,,,,,,,,,,,,,,,,,,,,,,,,,,,,,,,,,,,,,,,,,,,,,,,,,,,,,,,,,,,,,,,,,,,,,,,,,,,
,,1,1.489,1,1.489,0,14,14,12,1,67,flower,yogurt,,88545,001,2022-04-25_16h12.21.854,SPAMnetsValid,2021.1.4,MacIntel,55.55555556,,,,,,,,,,,,,,,,,,,,,,,,,,,,,,,,,,,,,,,,,,,,,,,,,,,,,,,,,,,,,,,,,,,,,,,,,,,,,,,,,,,,,,,,,
,,1,2.63,1,2.63,0,15,15,47,1,73,broom,chocolate,,88545,001,2022-04-25_16h12.21.854,SPAMnetsValid,2021.1.4,MacIntel,55.55555556,,,,,,,,,,,,,,,,,,,,,,,,,,,,,,,,,,,,,,,,,,,,,,,,,,,,,,,,,,,,,,,,,,,,,,,,,,,,,,,,,,,,,,,,,
,,1,1.32,1,1.32,0,16,16,63,1,21,cake,onion,,88545,001,2022-04-25_16h12.21.854,SPAMnetsValid,2021.1.4,MacIntel,55.55555556,,,,,,,,,,,,,,,,,,,,,,,,,,,,,,,,,,,,,,,,,,,,,,,,,,,,,,,,,,,,,,,,,,,,,,,,,,,,,,,,,,,,,,,,,
,,2,3.476,2,3.476,0,17,17,33,1,32,cake,microwave,,88545,001,2022-04-25_16h12.21.854,SPAMnetsValid,2021.1.4,MacIntel,55.55555556,,,,,,,,,,,,,,,,,,,,,,,,,,,,,,,,,,,,,,,,,,,,,,,,,,,,,,,,,,,,,,,,,,,,,,,,,,,,,,,,,,,,,,,,,
,,1,2.959,1,2.959,0,18,18,3,1,49,flower,strawberry,,88545,001,2022-04-25_16h12.21.854,SPAMnetsValid,2021.1.4,MacIntel,55.55555556,,,,,,,,,,,,,,,,,,,,,,,,,,,,,,,,,,,,,,,,,,,,,,,,,,,,,,,,,,,,,,,,,,,,,,,,,,,,,,,,,,,,,,,,,
,,7,2.876,7,2.876,0,19,19,80,1,61,strawberry,tomato,,88545,001,2022-04-25_16h12.21.854,SPAMnetsValid,2021.1.4,MacIntel,55.55555556,,,,,,,,,,,,,,,,,,,,,,,,,,,,,,,,,,,,,,,,,,,,,,,,,,,,,,,,,,,,,,,,,,,,,,,,,,,,,,,,,,,,,,,,,
,,1,3.382,1,3.382,0,20,20,31,1,33,oven,yogurt,,88545,001,2022-04-25_16h12.21.854,SPAMnetsValid,2021.1.4,MacIntel,55.55555556,,,,,,,,,,,,,,,,,,,,,,,,,,,,,,,,,,,,,,,,,,,,,,,,,,,,,,,,,,,,,,,,,,,,,,,,,,,,,,,,,,,,,,,,,
,,8,1.867,8,1.867,0,21,21,30,1,3,cake,oven,,88545,001,2022-04-25_16h12.21.854,SPAMnetsValid,2021.1.4,MacIntel,55.55555556,,,,,,,,,,,,,,,,,,,,,,,,,,,,,,,,,,,,,,,,,,,,,,,,,,,,,,,,,,,,,,,,,,,,,,,,,,,,,,,,,,,,,,,,,
,,9,2.296,9,2.296,0,22,22,87,1,79,garden,strawberry,,88545,001,2022-04-25_16h12.21.854,SPAMnetsValid,2021.1.4,MacIntel,55.55555556,,,,,,,,,,,,,,,,,,,,,,,,,,,,,,,,,,,,,,,,,,,,,,,,,,,,,,,,,,,,,,,,,,,,,,,,,,,,,,,,,,,,,,,,,
,,1,2.261,1,2.261,0,23,23,14,1,64,chocolate,garden,,88545,001,2022-04-25_16h12.21.854,SPAMnetsValid,2021.1.4,MacIntel,55.55555556,,,,,,,,,,,,,,,,,,,,,,,,,,,,,,,,,,,,,,,,,,,,,,,,,,,,,,,,,,,,,,,,,,,,,,,,,,,,,,,,,,,,,,,,,
,,7,3.281,7,3.281,0,24,24,60,1,89,chocolate,rose,,88545,001,2022-04-25_16h12.21.854,SPAMnetsValid,2021.1.4,MacIntel,55.55555556,,,,,,,,,,,,,,,,,,,,,,,,,,,,,,,,,,,,,,,,,,,,,,,,,,,,,,,,,,,,,,,,,,,,,,,,,,,,,,,,,,,,,,,,,
,,1,1.807,1,1.807,0,25,25,27,1,72,broom,onion,,88545,001,2022-04-25_16h12.21.854,SPAMnetsValid,2021.1.4,MacIntel,55.55555556,,,,,,,,,,,,,,,,,,,,,,,,,,,,,,,,,,,,,,,,,,,,,,,,,,,,,,,,,,,,,,,,,,,,,,,,,,,,,,,,,,,,,,,,,
,,1,1.232,1,1.232,0,26,26,61,1,71,broom,rose,,88545,001,2022-04-25_16h12.21.854,SPAMnetsValid,2021.1.4,MacIntel,55.55555556,,,,,,,,,,,,,,,,,,,,,,,,,,,,,,,,,,,,,,,,,,,,,,,,,,,,,,,,,,,,,,,,,,,,,,,,,,,,,,,,,,,,,,,,,
,,8,3.172,8,3.172,0,27,27,2,1,22,kitchen,strawberry,,88545,001,2022-04-25_16h12.21.854,SPAMnetsValid,2021.1.4,MacIntel,55.55555556,,,,,,,,,,,,,,,,,,,,,,,,,,,,,,,,,,,,,,,,,,,,,,,,,,,,,,,,,,,,,,,,,,,,,,,,,,,,,,,,,,,,,,,,,
,,1,2.283,1,2.283,0,28,28,92,1,44,cookie,melon,,88545,001,2022-04-25_16h12.21.854,SPAMnetsValid,2021.1.4,MacIntel,55.55555556,,,,,,,,,,,,,,,,,,,,,,,,,,,,,,,,,,,,,,,,,,,,,,,,,,,,,,,,,,,,,,,,,,,,,,,,,,,,,,,,,,,,,,,,,
,,6,3.553,6,3.553,0,29,29,11,1,37,garden,refrigerator,,88545,001,2022-04-25_16h12.21.854,SPAMnetsValid,2021.1.4,MacIntel,55.55555556,,,,,,,,,,,,,,,,,,,,,,,,,,,,,,,,,,,,,,,,,,,,,,,,,,,,,,,,,,,,,,,,,,,,,,,,,,,,,,,,,,,,,,,,,
,,1,2.152,1,2.152,0,30,30,26,1,35,flower,pretzel,,88545,001,2022-04-25_16h12.21.854,SPAMnetsValid,2021.1.4,MacIntel,55.55555556,,,,,,,,,,,,,,,,,,,,,,,,,,,,,,,,,,,,,,,,,,,,,,,,,,,,,,,,,,,,,,,,,,,,,,,,,,,,,,,,,,,,,,,,,
,,8,3.279,8,3.279,0,31,31,91,1,2,kitchen,onion,,88545,001,2022-04-25_16h12.21.854,SPAMnetsValid,2021.1.4,MacIntel,55.55555556,,,,,,,,,,,,,,,,,,,,,,,,,,,,,,,,,,,,,,,,,,,,,,,,,,,,,,,,,,,,,,,,,,,,,,,,,,,,,,,,,,,,,,,,,
,,6,4.609,6,4.609,0,32,32,39,1,15,onion,oven,,88545,001,2022-04-25_16h12.21.854,SPAMnetsValid,2021.1.4,MacIntel,55.55555556,,,,,,,,,,,,,,,,,,,,,,,,,,,,,,,,,,,,,,,,,,,,,,,,,,,,,,,,,,,,,,,,,,,,,,,,,,,,,,,,,,,,,,,,,
,,8,1.631,8,1.631,0,33,33,29,1,42,garden,kitchen,,88545,001,2022-04-25_16h12.21.854,SPAMnetsValid,2021.1.4,MacIntel,55.55555556,,,,,,,,,,,,,,,,,,,,,,,,,,,,,,,,,,,,,,,,,,,,,,,,,,,,,,,,,,,,,,,,,,,,,,,,,,,,,,,,,,,,,,,,,
,,1,1.618,1,1.618,0,34,34,1,1,31,cactus,pretzel,,88545,001,2022-04-25_16h12.21.854,SPAMnetsValid,2021.1.4,MacIntel,55.55555556,,,,,,,,,,,,,,,,,,,,,,,,,,,,,,,,,,,,,,,,,,,,,,,,,,,,,,,,,,,,,,,,,,,,,,,,,,,,,,,,,,,,,,,,,
,,8,2.157,8,2.157,0,35,35,93,1,63,cake,cookie,,88545,001,2022-04-25_16h12.21.854,SPAMnetsValid,2021.1.4,MacIntel,55.55555556,,,,,,,,,,,,,,,,,,,,,,,,,,,,,,,,,,,,,,,,,,,,,,,,,,,,,,,,,,,,,,,,,,,,,,,,,,,,,,,,,,,,,,,,,
,,1,1.58,1,1.58,0,36,36,85,1,90,cactus,cake,,88545,001,2022-04-25_16h12.21.854,SPAMnetsValid,2021.1.4,MacIntel,55.55555556,,,,,,,,,,,,,,,,,,,,,,,,,,,,,,,,,,,,,,,,,,,,,,,,,,,,,,,,,,,,,,,,,,,,,,,,,,,,,,,,,,,,,,,,,
,,9,2.88,9,2.88,0,37,37,42,1,77,refrigerator,yogurt,,88545,001,2022-04-25_16h12.21.854,SPAMnetsValid,2021.1.4,MacIntel,55.55555556,,,,,,,,,,,,,,,,,,,,,,,,,,,,,,,,,,,,,,,,,,,,,,,,,,,,,,,,,,,,,,,,,,,,,,,,,,,,,,,,,,,,,,,,,
,,9,1.118,9,1.118,0,38,38,53,1,192,microwave,microwave,CHECK,88545,001,2022-04-25_16h12.21.854,SPAMnetsValid,2021.1.4,MacIntel,55.55555556,,,,,,,,,,,,,,,,,,,,,,,,,,,,,,,,,,,,,,,,,,,,,,,,,,,,,,,,,,,,,,,,,,,,,,,,,,,,,,,,,,,,,,,,,
,,1,2.391,1,2.391,0,39,39,18,1,85,cake,tree,,88545,001,2022-04-25_16h12.21.854,SPAMnetsValid,2021.1.4,MacIntel,55.55555556,,,,,,,,,,,,,,,,,,,,,,,,,,,,,,,,,,,,,,,,,,,,,,,,,,,,,,,,,,,,,,,,,,,,,,,,,,,,,,,,,,,,,,,,,
,,1,1.519,1,1.519,0,40,40,59,1,8,broom,melon,,88545,001,2022-04-25_16h12.21.854,SPAMnetsValid,2021.1.4,MacIntel,55.55555556,,,,,,,,,,,,,,,,,,,,,,,,,,,,,,,,,,,,,,,,,,,,,,,,,,,,,,,,,,,,,,,,,,,,,,,,,,,,,,,,,,,,,,,,,
,,3,2.001,3,2.001,0,41,41,6,1,87,carrot,yogurt,,88545,001,2022-04-25_16h12.21.854,SPAMnetsValid,2021.1.4,MacIntel,55.55555556,,,,,,,,,,,,,,,,,,,,,,,,,,,,,,,,,,,,,,,,,,,,,,,,,,,,,,,,,,,,,,,,,,,,,,,,,,,,,,,,,,,,,,,,,
,,7,2.297,7,2.297,0,42,42,62,1,18,onion,refrigerator,,88545,001,2022-04-25_16h12.21.854,SPAMnetsValid,2021.1.4,MacIntel,55.55555556,,,,,,,,,,,,,,,,,,,,,,,,,,,,,,,,,,,,,,,,,,,,,,,,,,,,,,,,,,,,,,,,,,,,,,,,,,,,,,,,,,,,,,,,,
,,2,2.116,2,2.116,0,43,43,36,1,12,cookie,yogurt,,88545,001,2022-04-25_16h12.21.854,SPAMnetsValid,2021.1.4,MacIntel,55.55555556,,,,,,,,,,,,,,,,,,,,,,,,,,,,,,,,,,,,,,,,,,,,,,,,,,,,,,,,,,,,,,,,,,,,,,,,,,,,,,,,,,,,,,,,,
,,1,1.417,1,1.417,0,44,44,40,1,74,broom,pretzel,,88545,001,2022-04-25_16h12.21.854,SPAMnetsValid,2021.1.4,MacIntel,55.55555556,,,,,,,,,,,,,,,,,,,,,,,,,,,,,,,,,,,,,,,,,,,,,,,,,,,,,,,,,,,,,,,,,,,,,,,,,,,,,,,,,,,,,,,,,
,,1,1.247,1,1.247,0,45,45,81,1,60,cactus,onion,,88545,001,2022-04-25_16h12.21.854,SPAMnetsValid,2021.1.4,MacIntel,55.55555556,,,,,,,,,,,,,,,,,,,,,,,,,,,,,,,,,,,,,,,,,,,,,,,,,,,,,,,,,,,,,,,,,,,,,,,,,,,,,,,,,,,,,,,,,
,,1,1.274,1,1.274,0,46,46,22,1,16,chocolate,flower,,88545,001,2022-04-25_16h12.21.854,SPAMnetsValid,2021.1.4,MacIntel,55.55555556,,,,,,,,,,,,,,,,,,,,,,,,,,,,,,,,,,,,,,,,,,,,,,,,,,,,,,,,,,,,,,,,,,,,,,,,,,,,,,,,,,,,,,,,,
,,1,1.057,1,1.057,0,47,47,89,1,80,chocolate,tree,,88545,001,2022-04-25_16h12.21.854,SPAMnetsValid,2021.1.4,MacIntel,55.55555556,,,,,,,,,,,,,,,,,,,,,,,,,,,,,,,,,,,,,,,,,,,,,,,,,,,,,,,,,,,,,,,,,,,,,,,,,,,,,,,,,,,,,,,,,
,,1,2.109,1,2.109,0,48,48,79,1,86,oven,rose,,88545,001,2022-04-25_16h12.21.854,SPAMnetsValid,2021.1.4,MacIntel,55.55555556,,,,,,,,,,,,,,,,,,,,,,,,,,,,,,,,,,,,,,,,,,,,,,,,,,,,,,,,,,,,,,,,,,,,,,,,,,,,,,,,,,,,,,,,,
,,1,1.314,1,1.314,0,49,49,9,1,75,cookie,onion,,88545,001,2022-04-25_16h12.21.854,SPAMnetsValid,2021.1.4,MacIntel,55.55555556,,,,,,,,,,,,,,,,,,,,,,,,,,,,,,,,,,,,,,,,,,,,,,,,,,,,,,,,,,,,,,,,,,,,,,,,,,,,,,,,,,,,,,,,,
,,1,1.382,1,1.382,0,50,50,54,1,28,cake,melon,,88545,001,2022-04-25_16h12.21.854,SPAMnetsValid,2021.1.4,MacIntel,55.55555556,,,,,,,,,,,,,,,,,,,,,,,,,,,,,,,,,,,,,,,,,,,,,,,,,,,,,,,,,,,,,,,,,,,,,,,,,,,,,,,,,,,,,,,,,
,,1,1.236,1,1.236,0,51,51,25,1,23,flower,microwave,,88545,001,2022-04-25_16h12.21.854,SPAMnetsValid,2021.1.4,MacIntel,55.55555556,,,,,,,,,,,,,,,,,,,,,,,,,,,,,,,,,,,,,,,,,,,,,,,,,,,,,,,,,,,,,,,,,,,,,,,,,,,,,,,,,,,,,,,,,
,,1,1.04,1,1.04,0,52,52,24,1,17,carrot,melon,,88545,001,2022-04-25_16h12.21.854,SPAMnetsValid,2021.1.4,MacIntel,55.55555556,,,,,,,,,,,,,,,,,,,,,,,,,,,,,,,,,,,,,,,,,,,,,,,,,,,,,,,,,,,,,,,,,,,,,,,,,,,,,,,,,,,,,,,,,
,,4,3.852,4,3.852,0,53,53,13,1,26,tomato,yogurt,,88545,001,2022-04-25_16h12.21.854,SPAMnetsValid,2021.1.4,MacIntel,55.55555556,,,,,,,,,,,,,,,,,,,,,,,,,,,,,,,,,,,,,,,,,,,,,,,,,,,,,,,,,,,,,,,,,,,,,,,,,,,,,,,,,,,,,,,,,
,,4,1.819,4,1.819,0,54,54,48,1,66,melon,yogurt,,88545,001,2022-04-25_16h12.21.854,SPAMnetsValid,2021.1.4,MacIntel,55.55555556,,,,,,,,,,,,,,,,,,,,,,,,,,,,,,,,,,,,,,,,,,,,,,,,,,,,,,,,,,,,,,,,,,,,,,,,,,,,,,,,,,,,,,,,,
,,1,1.851,1,1.851,0,55,55,16,1,14,broom,cookie,,88545,001,2022-04-25_16h12.21.854,SPAMnetsValid,2021.1.4,MacIntel,55.55555556,,,,,,,,,,,,,,,,,,,,,,,,,,,,,,,,,,,,,,,,,,,,,,,,,,,,,,,,,,,,,,,,,,,,,,,,,,,,,,,,,,,,,,,,,
,,7,2.277,7,2.277,0,56,56,57,1,62,kitchen,rose,,88545,001,2022-04-25_16h12.21.854,SPAMnetsValid,2021.1.4,MacIntel,55.55555556,,,,,,,,,,,,,,,,,,,,,,,,,,,,,,,,,,,,,,,,,,,,,,,,,,,,,,,,,,,,,,,,,,,,,,,,,,,,,,,,,,,,,,,,,
,,8,1.751,8,1.751,0,57,57,95,1,52,carrot,tomato,,88545,001,2022-04-25_16h12.21.854,SPAMnetsValid,2021.1.4,MacIntel,55.55555556,,,,,,,,,,,,,,,,,,,,,,,,,,,,,,,,,,,,,,,,,,,,,,,,,,,,,,,,,,,,,,,,,,,,,,,,,,,,,,,,,,,,,,,,,
,,6,3.103,6,3.103,0,58,58,50,1,81,pretzel,yogurt,,88545,001,2022-04-25_16h12.21.854,SPAMnetsValid,2021.1.4,MacIntel,55.55555556,,,,,,,,,,,,,,,,,,,,,,,,,,,,,,,,,,,,,,,,,,,,,,,,,,,,,,,,,,,,,,,,,,,,,,,,,,,,,,,,,,,,,,,,,
,,8,2.777,8,2.777,0,59,59,49,1,57,flower,kitchen,,88545,001,2022-04-25_16h12.21.854,SPAMnetsValid,2021.1.4,MacIntel,55.55555556,,,,,,,,,,,,,,,,,,,,,,,,,,,,,,,,,,,,,,,,,,,,,,,,,,,,,,,,,,,,,,,,,,,,,,,,,,,,,,,,,,,,,,,,,
,,8,2.15,8,2.15,0,60,60,75,1,69,carrot,refrigerator,,88545,001,2022-04-25_16h12.21.854,SPAMnetsValid,2021.1.4,MacIntel,55.55555556,,,,,,,,,,,,,,,,,,,,,,,,,,,,,,,,,,,,,,,,,,,,,,,,,,,,,,,,,,,,,,,,,,,,,,,,,,,,,,,,,,,,,,,,,
,,1,2.116,1,2.116,0,61,61,70,1,5,oven,tree,,88545,001,2022-04-25_16h12.21.854,SPAMnetsValid,2021.1.4,MacIntel,55.55555556,,,,,,,,,,,,,,,,,,,,,,,,,,,,,,,,,,,,,,,,,,,,,,,,,,,,,,,,,,,,,,,,,,,,,,,,,,,,,,,,,,,,,,,,,
,,1,1.888,1,1.888,0,62,62,5,1,13,broom,yogurt,,88545,001,2022-04-25_16h12.21.854,SPAMnetsValid,2021.1.4,MacIntel,55.55555556,,,,,,,,,,,,,,,,,,,,,,,,,,,,,,,,,,,,,,,,,,,,,,,,,,,,,,,,,,,,,,,,,,,,,,,,,,,,,,,,,,,,,,,,,
,,9,1.8,9,1.8,0,63,63,58,1,94,kitchen,microwave,,88545,001,2022-04-25_16h12.21.854,SPAMnetsValid,2021.1.4,MacIntel,55.55555556,,,,,,,,,,,,,,,,,,,,,,,,,,,,,,,,,,,,,,,,,,,,,,,,,,,,,,,,,,,,,,,,,,,,,,,,,,,,,,,,,,,,,,,,,
,,4,2.792,4,2.792,0,64,64,94,1,68,flower,tomato,,88545,001,2022-04-25_16h12.21.854,SPAMnetsValid,2021.1.4,MacIntel,55.55555556,,,,,,,,,,,,,,,,,,,,,,,,,,,,,,,,,,,,,,,,,,,,,,,,,,,,,,,,,,,,,,,,,,,,,,,,,,,,,,,,,,,,,,,,,
,,8,4.085,8,4.085,0,65,65,44,1,25,carrot,onion,,88545,001,2022-04-25_16h12.21.854,SPAMnetsValid,2021.1.4,MacIntel,55.55555556,,,,,,,,,,,,,,,,,,,,,,,,,,,,,,,,,,,,,,,,,,,,,,,,,,,,,,,,,,,,,,,,,,,,,,,,,,,,,,,,,,,,,,,,,
,,9,1.565,9,1.565,0,66,66,64,1,9,kitchen,refrigerator,,88545,001,2022-04-25_16h12.21.854,SPAMnetsValid,2021.1.4,MacIntel,55.55555556,,,,,,,,,,,,,,,,,,,,,,,,,,,,,,,,,,,,,,,,,,,,,,,,,,,,,,,,,,,,,,,,,,,,,,,,,,,,,,,,,,,,,,,,,
,,9,1.264,9,1.264,0,67,67,51,1,47,onion,tomato,,88545,001,2022-04-25_16h12.21.854,SPAMnetsValid,2021.1.4,MacIntel,55.55555556,,,,,,,,,,,,,,,,,,,,,,,,,,,,,,,,,,,,,,,,,,,,,,,,,,,,,,,,,,,,,,,,,,,,,,,,,,,,,,,,,,,,,,,,,
,,6,1.95,6,1.95,0,68,68,67,1,54,chocolate,yogurt,,88545,001,2022-04-25_16h12.21.854,SPAMnetsValid,2021.1.4,MacIntel,55.55555556,,,,,,,,,,,,,,,,,,,,,,,,,,,,,,,,,,,,,,,,,,,,,,,,,,,,,,,,,,,,,,,,,,,,,,,,,,,,,,,,,,,,,,,,,
,,2,6.255,2,6.255,0,69,69,69,1,45,onion,pretzel,,88545,001,2022-04-25_16h12.21.854,SPAMnetsValid,2021.1.4,MacIntel,55.55555556,,,,,,,,,,,,,,,,,,,,,,,,,,,,,,,,,,,,,,,,,,,,,,,,,,,,,,,,,,,,,,,,,,,,,,,,,,,,,,,,,,,,,,,,,
,,1,4.904,1,4.904,0,70,70,74,1,70,chocolate,onion,,88545,001,2022-04-25_16h12.21.854,SPAMnetsValid,2021.1.4,MacIntel,55.55555556,,,,,,,,,,,,,,,,,,,,,,,,,,,,,,,,,,,,,,,,,,,,,,,,,,,,,,,,,,,,,,,,,,,,,,,,,,,,,,,,,,,,,,,,,
,,1,1.481,1,1.481,0,71,71,37,1,58,garden,oven,,88545,001,2022-04-25_16h12.21.854,SPAMnetsValid,2021.1.4,MacIntel,55.55555556,,,,,,,,,,,,,,,,,,,,,,,,,,,,,,,,,,,,,,,,,,,,,,,,,,,,,,,,,,,,,,,,,,,,,,,,,,,,,,,,,,,,,,,,,
,,1,2.624,1,2.624,0,72,72,84,1,91,microwave,rose,,88545,001,2022-04-25_16h12.21.854,SPAMnetsValid,2021.1.4,MacIntel,55.55555556,,,,,,,,,,,,,,,,,,,,,,,,,,,,,,,,,,,,,,,,,,,,,,,,,,,,,,,,,,,,,,,,,,,,,,,,,,,,,,,,,,,,,,,,,
,,6,2.914,6,2.914,0,73,73,90,1,95,broom,refrigerator,,88545,001,2022-04-25_16h12.21.854,SPAMnetsValid,2021.1.4,MacIntel,55.55555556,,,,,,,,,,,,,,,,,,,,,,,,,,,,,,,,,,,,,,,,,,,,,,,,,,,,,,,,,,,,,,,,,,,,,,,,,,,,,,,,,,,,,,,,,
,,4,2.725,4,2.725,0,74,74,7,1,34,melon,oven,,88545,001,2022-04-25_16h12.21.854,SPAMnetsValid,2021.1.4,MacIntel,55.55555556,,,,,,,,,,,,,,,,,,,,,,,,,,,,,,,,,,,,,,,,,,,,,,,,,,,,,,,,,,,,,,,,,,,,,,,,,,,,,,,,,,,,,,,,,
,,3,2.296,3,2.296,0,75,75,73,1,50,carrot,rose,,88545,001,2022-04-25_16h12.21.854,SPAMnetsValid,2021.1.4,MacIntel,55.55555556,,,,,,,,,,,,,,,,,,,,,,,,,,,,,,,,,,,,,,,,,,,,,,,,,,,,,,,,,,,,,,,,,,,,,,,,,,,,,,,,,,,,,,,,,
,,9,1.882,9,1.882,0,76,76,82,1,93,kitchen,oven,,88545,001,2022-04-25_16h12.21.854,SPAMnetsValid,2021.1.4,MacIntel,55.55555556,,,,,,,,,,,,,,,,,,,,,,,,,,,,,,,,,,,,,,,,,,,,,,,,,,,,,,,,,,,,,,,,,,,,,,,,,,,,,,,,,,,,,,,,,
,,9,2.326,9,2.326,0,77,77,52,1,4,chocolate,pretzel,,88545,001,2022-04-25_16h12.21.854,SPAMnetsValid,2021.1.4,MacIntel,55.55555556,,,,,,,,,,,,,,,,,,,,,,,,,,,,,,,,,,,,,,,,,,,,,,,,,,,,,,,,,,,,,,,,,,,,,,,,,,,,,,,,,,,,,,,,,
,,9,3.012,9,3.012,0,78,78,66,1,20,rose,tree,,88545,001,2022-04-25_16h12.21.854,SPAMnetsValid,2021.1.4,MacIntel,55.55555556,,,,,,,,,,,,,,,,,,,,,,,,,,,,,,,,,,,,,,,,,,,,,,,,,,,,,,,,,,,,,,,,,,,,,,,,,,,,,,,,,,,,,,,,,
,,9,1.314,9,1.314,0,79,79,19,1,76,garden,rose,,88545,001,2022-04-25_16h12.21.854,SPAMnetsValid,2021.1.4,MacIntel,55.55555556,,,,,,,,,,,,,,,,,,,,,,,,,,,,,,,,,,,,,,,,,,,,,,,,,,,,,,,,,,,,,,,,,,,,,,,,,,,,,,,,,,,,,,,,,
,,3,2.315,3,2.315,0,80,80,17,1,27,cactus,cookie,,88545,001,2022-04-25_16h12.21.854,SPAMnetsValid,2021.1.4,MacIntel,55.55555556,,,,,,,,,,,,,,,,,,,,,,,,,,,,,,,,,,,,,,,,,,,,,,,,,,,,,,,,,,,,,,,,,,,,,,,,,,,,,,,,,,,,,,,,,
,,9,1.468,9,1.468,0,81,81,76,1,36,broom,kitchen,,88545,001,2022-04-25_16h12.21.854,SPAMnetsValid,2021.1.4,MacIntel,55.55555556,,,,,,,,,,,,,,,,,,,,,,,,,,,,,,,,,,,,,,,,,,,,,,,,,,,,,,,,,,,,,,,,,,,,,,,,,,,,,,,,,,,,,,,,,
,,6,2.189,6,2.189,0,82,82,68,1,24,cookie,tomato,,88545,001,2022-04-25_16h12.21.854,SPAMnetsValid,2021.1.4,MacIntel,55.55555556,,,,,,,,,,,,,,,,,,,,,,,,,,,,,,,,,,,,,,,,,,,,,,,,,,,,,,,,,,,,,,,,,,,,,,,,,,,,,,,,,,,,,,,,,
,,1,3.108,1,3.108,0,83,83,71,1,38,pretzel,refrigerator,,88545,001,2022-04-25_16h12.21.854,SPAMnetsValid,2021.1.4,MacIntel,55.55555556,,,,,,,,,,,,,,,,,,,,,,,,,,,,,,,,,,,,,,,,,,,,,,,,,,,,,,,,,,,,,,,,,,,,,,,,,,,,,,,,,,,,,,,,,
,,7,2.709,7,2.709,0,84,84,32,1,40,broom,cake,,88545,001,2022-04-25_16h12.21.854,SPAMnetsValid,2021.1.4,MacIntel,55.55555556,,,,,,,,,,,,,,,,,,,,,,,,,,,,,,,,,,,,,,,,,,,,,,,,,,,,,,,,,,,,,,,,,,,,,,,,,,,,,,,,,,,,,,,,,
,,4,2.348,4,2.348,0,85,85,86,1,51,onion,strawberry,,88545,001,2022-04-25_16h12.21.854,SPAMnetsValid,2021.1.4,MacIntel,55.55555556,,,,,,,,,,,,,,,,,,,,,,,,,,,,,,,,,,,,,,,,,,,,,,,,,,,,,,,,,,,,,,,,,,,,,,,,,,,,,,,,,,,,,,,,,
,,9,1.968,9,1.968,0,86,86,21,1,56,cactus,tree,,88545,001,2022-04-25_16h12.21.854,SPAMnetsValid,2021.1.4,MacIntel,55.55555556,,,,,,,,,,,,,,,,,,,,,,,,,,,,,,,,,,,,,,,,,,,,,,,,,,,,,,,,,,,,,,,,,,,,,,,,,,,,,,,,,,,,,,,,,
,,1,5.133,1,5.133,0,87,87,55,1,1,rose,yogurt,,88545,001,2022-04-25_16h12.21.854,SPAMnetsValid,2021.1.4,MacIntel,55.55555556,,,,,,,,,,,,,,,,,,,,,,,,,,,,,,,,,,,,,,,,,,,,,,,,,,,,,,,,,,,,,,,,,,,,,,,,,,,,,,,,,,,,,,,,,
,,9,1.594,9,1.594,0,88,88,23,1,65,broom,garden,,88545,001,2022-04-25_16h12.21.854,SPAMnetsValid,2021.1.4,MacIntel,55.55555556,,,,,,,,,,,,,,,,,,,,,,,,,,,,,,,,,,,,,,,,,,,,,,,,,,,,,,,,,,,,,,,,,,,,,,,,,,,,,,,,,,,,,,,,,
,,9,1.814,9,1.814,0,89,89,83,1,6,garden,onion,,88545,001,2022-04-25_16h12.21.854,SPAMnetsValid,2021.1.4,MacIntel,55.55555556,,,,,,,,,,,,,,,,,,,,,,,,,,,,,,,,,,,,,,,,,,,,,,,,,,,,,,,,,,,,,,,,,,,,,,,,,,,,,,,,,,,,,,,,,
,,9,3.256,9,3.256,0,90,90,77,1,7,melon,tree,,88545,001,2022-04-25_16h12.21.854,SPAMnetsValid,2021.1.4,MacIntel,55.55555556,,,,,,,,,,,,,,,,,,,,,,,,,,,,,,,,,,,,,,,,,,,,,,,,,,,,,,,,,,,,,,,,,,,,,,,,,,,,,,,,,,,,,,,,,
,,6,3.122,6,3.122,0,91,91,72,1,59,rose,strawberry,,88545,001,2022-04-25_16h12.21.854,SPAMnetsValid,2021.1.4,MacIntel,55.55555556,,,,,,,,,,,,,,,,,,,,,,,,,,,,,,,,,,,,,,,,,,,,,,,,,,,,,,,,,,,,,,,,,,,,,,,,,,,,,,,,,,,,,,,,,
,,4,2.929,4,2.929,0,92,92,45,1,10,flower,onion,,88545,001,2022-04-25_16h12.21.854,SPAMnetsValid,2021.1.4,MacIntel,55.55555556,,,,,,,,,,,,,,,,,,,,,,,,,,,,,,,,,,,,,,,,,,,,,,,,,,,,,,,,,,,,,,,,,,,,,,,,,,,,,,,,,,,,,,,,,
,,4,3.348,4,3.348,0,93,93,88,1,92,broom,flower,,88545,001,2022-04-25_16h12.21.854,SPAMnetsValid,2021.1.4,MacIntel,55.55555556,,,,,,,,,,,,,,,,,,,,,,,,,,,,,,,,,,,,,,,,,,,,,,,,,,,,,,,,,,,,,,,,,,,,,,,,,,,,,,,,,,,,,,,,,
,,4,2.561,4,2.561,0,94,94,15,1,48,flower,oven,,88545,001,2022-04-25_16h12.21.854,SPAMnetsValid,2021.1.4,MacIntel,55.55555556,,,,,,,,,,,,,,,,,,,,,,,,,,,,,,,,,,,,,,,,,,,,,,,,,,,,,,,,,,,,,,,,,,,,,,,,,,,,,,,,,,,,,,,,,
,,6,4.016,6,4.016,0,95,95,56,1,78,cookie,rose,,88545,001,2022-04-25_16h12.21.854,SPAMnetsValid,2021.1.4,MacIntel,55.55555556,,,,,,,,,,,,,,,,,,,,,,,,,,,,,,,,,,,,,,,,,,,,,,,,,,,,,,,,,,,,,,,,,,,,,,,,,,,,,,,,,,,,,,,,,
,,4,3.035,4,3.035,0,96,96,34,1,29,chocolate,melon,,88545,001,2022-04-25_16h12.21.854,SPAMnetsValid,2021.1.4,MacIntel,55.55555556,,,,,,,,,,,,,,,,,,,,,,,,,,,,,,,,,,,,,,,,,,,,,,,,,,,,,,,,,,,,,,,,,,,,,,,,,,,,,,,,,,,,,,,,,
,,,,,,,,,,,,,,,88545,001,2022-04-25_16h12.21.854,SPAMnetsValid,2021.1.4,MacIntel,55.55555556,0,0,0,0,1,,,,,,,,,,,,,,,,,,,,,,,,,,,,,,,,,,,,,,,,,,,,,,,,,,,,,,,,,,,,,,,,,,,,,,,,,,,,,,,,,,,,
,,,,,,,,,,,,,,,88545,001,2022-04-25_16h12.21.854,SPAMnetsValid,2021.1.4,MacIntel,55.55555556,,,,,,0,0,0,0,1,1,0,,,,,,,,,,,,,,,,,,,,,,,,,,,,,,,,,,,,,,,,,,,,,,,,,,,,,,,,,,,,,,,,,,,,,,,,,,,,,
,,,,2,119.701,,,,,,132,broom,tree,,88545,001,2022-04-25_16h12.21.854,SPAMnetsValid,2021.1.4,MacIntel,55.55555556,,,,,,,,,,,,,2,119.701,0,0,0,78,1,,,,,,,,,,,,,,,,,,,,,,,,,,,,,,,,,,,,,,,,,,,,,,,,,,,,,,,,,,,,,,,,,,,,,,
,,,,6,1.845,,,,,,141,melon,tomato,,88545,001,2022-04-25_16h12.21.854,SPAMnetsValid,2021.1.4,MacIntel,55.55555556,,,,,,,,,,,,,6,1.845,0,1,1,70,1,,,,,,,,,,,,,,,,,,,,,,,,,,,,,,,,,,,,,,,,,,,,,,,,,,,,,,,,,,,,,,,,,,,,,,
,,,,8,1.958,,,,,,124,oven,refrigerator,,88545,001,2022-04-25_16h12.21.854,SPAMnetsValid,2021.1.4,MacIntel,55.55555556,,,,,,,,,,,,,8,1.958,0,2,2,69,1,,,,,,,,,,,,,,,,,,,,,,,,,,,,,,,,,,,,,,,,,,,,,,,,,,,,,,,,,,,,,,,,,,,,,,
,,,,9,1.853,,,,,,100,garden,tomato,,88545,001,2022-04-25_16h12.21.854,SPAMnetsValid,2021.1.4,MacIntel,55.55555556,,,,,,,,,,,,,9,1.853,0,3,3,83,1,,,,,,,,,,,,,,,,,,,,,,,,,,,,,,,,,,,,,,,,,,,,,,,,,,,,,,,,,,,,,,,,,,,,,,
,,,,6,1.569,,,,,,174,cake,pretzel,,88545,001,2022-04-25_16h12.21.854,SPAMnetsValid,2021.1.4,MacIntel,55.55555556,,,,,,,,,,,,,6,1.569,0,4,4,2,1,,,,,,,,,,,,,,,,,,,,,,,,,,,,,,,,,,,,,,,,,,,,,,,,,,,,,,,,,,,,,,,,,,,,,,
,,,,9,2.636,,,,,,116,cake,chocolate,,88545,001,2022-04-25_16h12.21.854,SPAMnetsValid,2021.1.4,MacIntel,55.55555556,,,,,,,,,,,,,9,2.636,0,5,5,44,1,,,,,,,,,,,,,,,,,,,,,,,,,,,,,,,,,,,,,,,,,,,,,,,,,,,,,,,,,,,,,,,,,,,,,,
,,,,9,1.999,,,,,,188,flower,tree,,88545,001,2022-04-25_16h12.21.854,SPAMnetsValid,2021.1.4,MacIntel,55.55555556,,,,,,,,,,,,,9,1.999,0,6,6,7,1,,,,,,,,,,,,,,,,,,,,,,,,,,,,,,,,,,,,,,,,,,,,,,,,,,,,,,,,,,,,,,,,,,,,,,
,,,,4,1.873,,,,,,103,pretzel,tomato,,88545,001,2022-04-25_16h12.21.854,SPAMnetsValid,2021.1.4,MacIntel,55.55555556,,,,,,,,,,,,,4,1.873,0,7,7,79,1,,,,,,,,,,,,,,,,,,,,,,,,,,,,,,,,,,,,,,,,,,,,,,,,,,,,,,,,,,,,,,,,,,,,,,
,,,,3,2.466,,,,,,189,onion,tree,,88545,001,2022-04-25_16h12.21.854,SPAMnetsValid,2021.1.4,MacIntel,55.55555556,,,,,,,,,,,,,3,2.466,0,8,8,62,1,,,,,,,,,,,,,,,,,,,,,,,,,,,,,,,,,,,,,,,,,,,,,,,,,,,,,,,,,,,,,,,,,,,,,,
,,,,9,1.913,,,,,,194,cactus,cactus,CHECK,88545,001,2022-04-25_16h12.21.854,SPAMnetsValid,2021.1.4,MacIntel,55.55555556,,,,,,,,,,,,,9,1.913,0,9,9,25,1,,,,,,,,,,,,,,,,,,,,,,,,,,,,,,,,,,,,,,,,,,,,,,,,,,,,,,,,,,,,,,,,,,,,,,
,,,,9,1.308,,,,,,139,carrot,strawberry,,88545,001,2022-04-25_16h12.21.854,SPAMnetsValid,2021.1.4,MacIntel,55.55555556,,,,,,,,,,,,,9,1.308,0,10,10,37,1,,,,,,,,,,,,,,,,,,,,,,,,,,,,,,,,,,,,,,,,,,,,,,,,,,,,,,,,,,,,,,,,,,,,,,
,,,,9,1.13,,,,,,106,cake,strawberry,,88545,001,2022-04-25_16h12.21.854,SPAMnetsValid,2021.1.4,MacIntel,55.55555556,,,,,,,,,,,,,9,1.13,0,11,11,0,1,,,,,,,,,,,,,,,,,,,,,,,,,,,,,,,,,,,,,,,,,,,,,,,,,,,,,,,,,,,,,,,,,,,,,,
,,,,4,5.207,,,,,,109,broom,strawberry,,88545,001,2022-04-25_16h12.21.854,SPAMnetsValid,2021.1.4,MacIntel,55.55555556,,,,,,,,,,,,,4,5.207,0,12,12,4,1,,,,,,,,,,,,,,,,,,,,,,,,,,,,,,,,,,,,,,,,,,,,,,,,,,,,,,,,,,,,,,,,,,,,,,
,,,,1,1.989,,,,,,169,onion,yogurt,,88545,001,2022-04-25_16h12.21.854,SPAMnetsValid,2021.1.4,MacIntel,55.55555556,,,,,,,,,,,,,1,1.989,0,13,13,24,1,,,,,,,,,,,,,,,,,,,,,,,,,,,,,,,,,,,,,,,,,,,,,,,,,,,,,,,,,,,,,,,,,,,,,,
,,,,9,1.954,,,,,,110,chocolate,cookie,,88545,001,2022-04-25_16h12.21.854,SPAMnetsValid,2021.1.4,MacIntel,55.55555556,,,,,,,,,,,,,9,1.954,0,14,14,52,1,,,,,,,,,,,,,,,,,,,,,,,,,,,,,,,,,,,,,,,,,,,,,,,,,,,,,,,,,,,,,,,,,,,,,,
,,,,9,1.581,,,,,,155,carrot,cookie,,88545,001,2022-04-25_16h12.21.854,SPAMnetsValid,2021.1.4,MacIntel,55.55555556,,,,,,,,,,,,,9,1.581,0,15,15,38,1,,,,,,,,,,,,,,,,,,,,,,,,,,,,,,,,,,,,,,,,,,,,,,,,,,,,,,,,,,,,,,,,,,,,,,
,,,,9,1.299,,,,,,150,microwave,refrigerator,,88545,001,2022-04-25_16h12.21.854,SPAMnetsValid,2021.1.4,MacIntel,55.55555556,,,,,,,,,,,,,9,1.299,0,16,16,66,1,,,,,,,,,,,,,,,,,,,,,,,,,,,,,,,,,,,,,,,,,,,,,,,,,,,,,,,,,,,,,,,,,,,,,,
,,,,3,2.436,,,,,,152,cactus,strawberry,,88545,001,2022-04-25_16h12.21.854,SPAMnetsValid,2021.1.4,MacIntel,55.55555556,,,,,,,,,,,,,3,2.436,0,17,17,49,1,,,,,,,,,,,,,,,,,,,,,,,,,,,,,,,,,,,,,,,,,,,,,,,,,,,,,,,,,,,,,,,,,,,,,,
,,,,1,2.544,,,,,,105,cactus,oven,,88545,001,2022-04-25_16h12.21.854,SPAMnetsValid,2021.1.4,MacIntel,55.55555556,,,,,,,,,,,,,1,2.544,0,18,18,13,1,,,,,,,,,,,,,,,,,,,,,,,,,,,,,,,,,,,,,,,,,,,,,,,,,,,,,,,,,,,,,,,,,,,,,,
,,,,2,2.887,,,,,,107,rose,tomato,,88545,001,2022-04-25_16h12.21.854,SPAMnetsValid,2021.1.4,MacIntel,55.55555556,,,,,,,,,,,,,2,2.887,0,19,19,26,1,,,,,,,,,,,,,,,,,,,,,,,,,,,,,,,,,,,,,,,,,,,,,,,,,,,,,,,,,,,,,,,,,,,,,,
,,,,8,2.823,,,,,,117,melon,strawberry,,88545,001,2022-04-25_16h12.21.854,SPAMnetsValid,2021.1.4,MacIntel,55.55555556,,,,,,,,,,,,,8,2.823,0,20,20,11,1,,,,,,,,,,,,,,,,,,,,,,,,,,,,,,,,,,,,,,,,,,,,,,,,,,,,,,,,,,,,,,,,,,,,,,
,,,,9,3.509,,,,,,170,cookie,microwave,,88545,001,2022-04-25_16h12.21.854,SPAMnetsValid,2021.1.4,MacIntel,55.55555556,,,,,,,,,,,,,9,3.509,0,21,21,92,1,,,,,,,,,,,,,,,,,,,,,,,,,,,,,,,,,,,,,,,,,,,,,,,,,,,,,,,,,,,,,,,,,,,,,,
,,,,9,1.017,,,,,,140,cookie,refrigerator,,88545,001,2022-04-25_16h12.21.854,SPAMnetsValid,2021.1.4,MacIntel,55.55555556,,,,,,,,,,,,,9,1.017,0,22,22,89,1,,,,,,,,,,,,,,,,,,,,,,,,,,,,,,,,,,,,,,,,,,,,,,,,,,,,,,,,,,,,,,,,,,,,,,
,,,,6,5.865,,,,,,175,melon,onion,,88545,001,2022-04-25_16h12.21.854,SPAMnetsValid,2021.1.4,MacIntel,55.55555556,,,,,,,,,,,,,6,5.865,0,23,23,41,1,,,,,,,,,,,,,,,,,,,,,,,,,,,,,,,,,,,,,,,,,,,,,,,,,,,,,,,,,,,,,,,,,,,,,,
,,,,9,2.616,,,,,,161,kitchen,pretzel,,88545,001,2022-04-25_16h12.21.854,SPAMnetsValid,2021.1.4,MacIntel,55.55555556,,,,,,,,,,,,,9,2.616,0,24,24,36,1,,,,,,,,,,,,,,,,,,,,,,,,,,,,,,,,,,,,,,,,,,,,,,,,,,,,,,,,,,,,,,,,,,,,,,
,,,,4,8.528,,,,,,182,flower,refrigerator,,88545,001,2022-04-25_16h12.21.854,SPAMnetsValid,2021.1.4,MacIntel,55.55555556,,,,,,,,,,,,,4,8.528,0,25,25,32,1,,,,,,,,,,,,,,,,,,,,,,,,,,,,,,,,,,,,,,,,,,,,,,,,,,,,,,,,,,,,,,,,,,,,,,
,,,,7,2.322,,,,,,179,broom,oven,,88545,001,2022-04-25_16h12.21.854,SPAMnetsValid,2021.1.4,MacIntel,55.55555556,,,,,,,,,,,,,7,2.322,0,26,26,45,1,,,,,,,,,,,,,,,,,,,,,,,,,,,,,,,,,,,,,,,,,,,,,,,,,,,,,,,,,,,,,,,,,,,,,,
,,,,7,1.999,,,,,,99,garden,melon,,88545,001,2022-04-25_16h12.21.854,SPAMnetsValid,2021.1.4,MacIntel,55.55555556,,,,,,,,,,,,,7,1.999,0,27,27,17,1,,,,,,,,,,,,,,,,,,,,,,,,,,,,,,,,,,,,,,,,,,,,,,,,,,,,,,,,,,,,,,,,,,,,,,
,,,,3,2.235,,,,,,101,cactus,kitchen,,88545,001,2022-04-25_16h12.21.854,SPAMnetsValid,2021.1.4,MacIntel,55.55555556,,,,,,,,,,,,,3,2.235,0,28,28,54,1,,,,,,,,,,,,,,,,,,,,,,,,,,,,,,,,,,,,,,,,,,,,,,,,,,,,,,,,,,,,,,,,,,,,,,
,,,,9,3.237,,,,,,154,strawberry,yogurt,,88545,001,2022-04-25_16h12.21.854,SPAMnetsValid,2021.1.4,MacIntel,55.55555556,,,,,,,,,,,,,9,3.237,0,29,29,28,1,,,,,,,,,,,,,,,,,,,,,,,,,,,,,,,,,,,,,,,,,,,,,,,,,,,,,,,,,,,,,,,,,,,,,,
,,,,1,1.702,,,,,,145,cactus,yogurt,,88545,001,2022-04-25_16h12.21.854,SPAMnetsValid,2021.1.4,MacIntel,55.55555556,,,,,,,,,,,,,1,1.702,0,30,30,15,1,,,,,,,,,,,,,,,,,,,,,,,,,,,,,,,,,,,,,,,,,,,,,,,,,,,,,,,,,,,,,,,,,,,,,,
,,,,8,3.499,,,,,,181,carrot,kitchen,,88545,001,2022-04-25_16h12.21.854,SPAMnetsValid,2021.1.4,MacIntel,55.55555556,,,,,,,,,,,,,8,3.499,0,31,31,72,1,,,,,,,,,,,,,,,,,,,,,,,,,,,,,,,,,,,,,,,,,,,,,,,,,,,,,,,,,,,,,,,,,,,,,,
,,,,9,2.059,,,,,,177,chocolate,strawberry,,88545,001,2022-04-25_16h12.21.854,SPAMnetsValid,2021.1.4,MacIntel,55.55555556,,,,,,,,,,,,,9,2.059,0,32,32,53,1,,,,,,,,,,,,,,,,,,,,,,,,,,,,,,,,,,,,,,,,,,,,,,,,,,,,,,,,,,,,,,,,,,,,,,
,,,,3,7.517,,,,,,176,cactus,tomato,,88545,001,2022-04-25_16h12.21.854,SPAMnetsValid,2021.1.4,MacIntel,55.55555556,,,,,,,,,,,,,3,7.517,0,33,33,9,1,,,,,,,,,,,,,,,,,,,,,,,,,,,,,,,,,,,,,,,,,,,,,,,,,,,,,,,,,,,,,,,,,,,,,,
,,,,9,2.538,,,,,,108,carrot,chocolate,,88545,001,2022-04-25_16h12.21.854,SPAMnetsValid,2021.1.4,MacIntel,55.55555556,,,,,,,,,,,,,9,2.538,0,34,34,5,1,,,,,,,,,,,,,,,,,,,,,,,,,,,,,,,,,,,,,,,,,,,,,,,,,,,,,,,,,,,,,,,,,,,,,,
,,,,9,3.333,,,,,,156,melon,rose,,88545,001,2022-04-25_16h12.21.854,SPAMnetsValid,2021.1.4,MacIntel,55.55555556,,,,,,,,,,,,,9,3.333,0,35,35,31,1,,,,,,,,,,,,,,,,,,,,,,,,,,,,,,,,,,,,,,,,,,,,,,,,,,,,,,,,,,,,,,,,,,,,,,
,,,,4,3.778,,,,,,159,cookie,flower,,88545,001,2022-04-25_16h12.21.854,SPAMnetsValid,2021.1.4,MacIntel,55.55555556,,,,,,,,,,,,,4,3.778,0,36,36,21,1,,,,,,,,,,,,,,,,,,,,,,,,,,,,,,,,,,,,,,,,,,,,,,,,,,,,,,,,,,,,,,,,,,,,,,
,,,,9,1.923,,,,,,158,cookie,oven,,88545,001,2022-04-25_16h12.21.854,SPAMnetsValid,2021.1.4,MacIntel,55.55555556,,,,,,,,,,,,,9,1.923,0,37,37,27,1,,,,,,,,,,,,,,,,,,,,,,,,,,,,,,,,,,,,,,,,,,,,,,,,,,,,,,,,,,,,,,,,,,,,,,
,,,,7,2.977,,,,,,131,cactus,garden,,88545,001,2022-04-25_16h12.21.854,SPAMnetsValid,2021.1.4,MacIntel,55.55555556,,,,,,,,,,,,,7,2.977,0,38,38,33,1,,,,,,,,,,,,,,,,,,,,,,,,,,,,,,,,,,,,,,,,,,,,,,,,,,,,,,,,,,,,,,,,,,,,,,
,,,,9,2.457,,,,,,167,carrot,garden,,88545,001,2022-04-25_16h12.21.854,SPAMnetsValid,2021.1.4,MacIntel,55.55555556,,,,,,,,,,,,,9,2.457,0,39,39,47,1,,,,,,,,,,,,,,,,,,,,,,,,,,,,,,,,,,,,,,,,,,,,,,,,,,,,,,,,,,,,,,,,,,,,,,
,,,,9,1.469,,,,,,160,cookie,kitchen,,88545,001,2022-04-25_16h12.21.854,SPAMnetsValid,2021.1.4,MacIntel,55.55555556,,,,,,,,,,,,,9,1.469,0,40,40,65,1,,,,,,,,,,,,,,,,,,,,,,,,,,,,,,,,,,,,,,,,,,,,,,,,,,,,,,,,,,,,,,,,,,,,,,
,,,,9,1.149,,,,,,114,cookie,strawberry,,88545,001,2022-04-25_16h12.21.854,SPAMnetsValid,2021.1.4,MacIntel,55.55555556,,,,,,,,,,,,,9,1.149,0,41,41,87,1,,,,,,,,,,,,,,,,,,,,,,,,,,,,,,,,,,,,,,,,,,,,,,,,,,,,,,,,,,,,,,,,,,,,,,
,,,,1,2.901,,,,,,143,pretzel,rose,,88545,001,2022-04-25_16h12.21.854,SPAMnetsValid,2021.1.4,MacIntel,55.55555556,,,,,,,,,,,,,1,2.901,0,42,42,55,1,,,,,,,,,,,,,,,,,,,,,,,,,,,,,,,,,,,,,,,,,,,,,,,,,,,,,,,,,,,,,,,,,,,,,,
,,,,7,1.789,,,,,,172,kitchen,melon,,88545,001,2022-04-25_16h12.21.854,SPAMnetsValid,2021.1.4,MacIntel,55.55555556,,,,,,,,,,,,,7,1.789,0,43,43,77,1,,,,,,,,,,,,,,,,,,,,,,,,,,,,,,,,,,,,,,,,,,,,,,,,,,,,,,,,,,,,,,,,,,,,,,
,,,,9,1.662,,,,,,136,chocolate,microwave,,88545,001,2022-04-25_16h12.21.854,SPAMnetsValid,2021.1.4,MacIntel,55.55555556,,,,,,,,,,,,,9,1.662,0,44,44,96,1,,,,,,,,,,,,,,,,,,,,,,,,,,,,,,,,,,,,,,,,,,,,,,,,,,,,,,,,,,,,,,,,,,,,,,
,,,,1,2.279,,,,,,187,cactus,microwave,,88545,001,2022-04-25_16h12.21.854,SPAMnetsValid,2021.1.4,MacIntel,55.55555556,,,,,,,,,,,,,1,2.279,0,45,45,71,1,,,,,,,,,,,,,,,,,,,,,,,,,,,,,,,,,,,,,,,,,,,,,,,,,,,,,,,,,,,,,,,,,,,,,,
,,,,4,5.951,,,,,,96,oven,strawberry,,88545,001,2022-04-25_16h12.21.854,SPAMnetsValid,2021.1.4,MacIntel,55.55555556,,,,,,,,,,,,,4,5.951,0,46,46,67,1,,,,,,,,,,,,,,,,,,,,,,,,,,,,,,,,,,,,,,,,,,,,,,,,,,,,,,,,,,,,,,,,,,,,,,
,,,,4,1.135,,,,,,184,oven,pretzel,,88545,001,2022-04-25_16h12.21.854,SPAMnetsValid,2021.1.4,MacIntel,55.55555556,,,,,,,,,,,,,4,1.135,0,47,47,42,1,,,,,,,,,,,,,,,,,,,,,,,,,,,,,,,,,,,,,,,,,,,,,,,,,,,,,,,,,,,,,,,,,,,,,,
,,,,9,1.445,,,,,,115,refrigerator,tomato,,88545,001,2022-04-25_16h12.21.854,SPAMnetsValid,2021.1.4,MacIntel,55.55555556,,,,,,,,,,,,,9,1.445,0,48,48,85,1,,,,,,,,,,,,,,,,,,,,,,,,,,,,,,,,,,,,,,,,,,,,,,,,,,,,,,,,,,,,,,,,,,,,,,
,,,,1,3.045,,,,,,123,cookie,tree,,88545,001,2022-04-25_16h12.21.854,SPAMnetsValid,2021.1.4,MacIntel,55.55555556,,,,,,,,,,,,,1,3.045,0,49,49,46,1,,,,,,,,,,,,,,,,,,,,,,,,,,,,,,,,,,,,,,,,,,,,,,,,,,,,,,,,,,,,,,,,,,,,,,
,,,,1,1.954,,,,,,126,kitchen,tree,,88545,001,2022-04-25_16h12.21.854,SPAMnetsValid,2021.1.4,MacIntel,55.55555556,,,,,,,,,,,,,1,1.954,0,50,50,50,1,,,,,,,,,,,,,,,,,,,,,,,,,,,,,,,,,,,,,,,,,,,,,,,,,,,,,,,,,,,,,,,,,,,,,,
,,,,1,3.866,,,,,,127,cactus,chocolate,,88545,001,2022-04-25_16h12.21.854,SPAMnetsValid,2021.1.4,MacIntel,55.55555556,,,,,,,,,,,,,1,3.866,0,51,51,57,1,,,,,,,,,,,,,,,,,,,,,,,,,,,,,,,,,,,,,,,,,,,,,,,,,,,,,,,,,,,,,,,,,,,,,,
,,,,9,2.225,,,,,,138,flower,rose,,88545,001,2022-04-25_16h12.21.854,SPAMnetsValid,2021.1.4,MacIntel,55.55555556,,,,,,,,,,,,,9,2.225,0,52,52,61,1,,,,,,,,,,,,,,,,,,,,,,,,,,,,,,,,,,,,,,,,,,,,,,,,,,,,,,,,,,,,,,,,,,,,,,
,,,,7,2.302,,,,,,121,broom,microwave,,88545,001,2022-04-25_16h12.21.854,SPAMnetsValid,2021.1.4,MacIntel,55.55555556,,,,,,,,,,,,,7,2.302,0,53,53,95,1,,,,,,,,,,,,,,,,,,,,,,,,,,,,,,,,,,,,,,,,,,,,,,,,,,,,,,,,,,,,,,,,,,,,,,
,,,,1,1.815,,,,,,137,microwave,tree,,88545,001,2022-04-25_16h12.21.854,SPAMnetsValid,2021.1.4,MacIntel,55.55555556,,,,,,,,,,,,,1,1.815,0,54,54,63,1,,,,,,,,,,,,,,,,,,,,,,,,,,,,,,,,,,,,,,,,,,,,,,,,,,,,,,,,,,,,,,,,,,,,,,
,,,,7,2.181,,,,,,148,flower,melon,,88545,001,2022-04-25_16h12.21.854,SPAMnetsValid,2021.1.4,MacIntel,55.55555556,,,,,,,,,,,,,7,2.181,0,55,55,23,1,,,,,,,,,,,,,,,,,,,,,,,,,,,,,,,,,,,,,,,,,,,,,,,,,,,,,,,,,,,,,,,,,,,,,,
,,,,7,2.57,,,,,,168,cactus,flower,,88545,001,2022-04-25_16h12.21.854,SPAMnetsValid,2021.1.4,MacIntel,55.55555556,,,,,,,,,,,,,7,2.57,0,56,56,51,1,,,,,,,,,,,,,,,,,,,,,,,,,,,,,,,,,,,,,,,,,,,,,,,,,,,,,,,,,,,,,,,,,,,,,,
,,,,1,2.285,,,,,,180,tree,yogurt,,88545,001,2022-04-25_16h12.21.854,SPAMnetsValid,2021.1.4,MacIntel,55.55555556,,,,,,,,,,,,,1,2.285,0,57,57,68,1,,,,,,,,,,,,,,,,,,,,,,,,,,,,,,,,,,,,,,,,,,,,,,,,,,,,,,,,,,,,,,,,,,,,,,
,,,,9,1.961,,,,,,112,cake,carrot,,88545,001,2022-04-25_16h12.21.854,SPAMnetsValid,2021.1.4,MacIntel,55.55555556,,,,,,,,,,,,,9,1.961,0,58,58,39,1,,,,,,,,,,,,,,,,,,,,,,,,,,,,,,,,,,,,,,,,,,,,,,,,,,,,,,,,,,,,,,,,,,,,,,
,,,,9,1.567,,,,,,102,chocolate,refrigerator,,88545,001,2022-04-25_16h12.21.854,SPAMnetsValid,2021.1.4,MacIntel,55.55555556,,,,,,,,,,,,,9,1.567,0,59,59,76,1,,,,,,,,,,,,,,,,,,,,,,,,,,,,,,,,,,,,,,,,,,,,,,,,,,,,,,,,,,,,,,,,,,,,,,
,,,,9,1.924,,,,,,173,kitchen,tomato,,88545,001,2022-04-25_16h12.21.854,SPAMnetsValid,2021.1.4,MacIntel,55.55555556,,,,,,,,,,,,,9,1.924,0,60,60,1,1,,,,,,,,,,,,,,,,,,,,,,,,,,,,,,,,,,,,,,,,,,,,,,,,,,,,,,,,,,,,,,,,,,,,,,
,,,,6,2.461,,,,,,151,microwave,onion,,88545,001,2022-04-25_16h12.21.854,SPAMnetsValid,2021.1.4,MacIntel,55.55555556,,,,,,,,,,,,,6,2.461,0,61,61,6,1,,,,,,,,,,,,,,,,,,,,,,,,,,,,,,,,,,,,,,,,,,,,,,,,,,,,,,,,,,,,,,,,,,,,,,
,,,,1,2.023,,,,,,157,refrigerator,rose,,88545,001,2022-04-25_16h12.21.854,SPAMnetsValid,2021.1.4,MacIntel,55.55555556,,,,,,,,,,,,,1,2.023,0,62,62,64,1,,,,,,,,,,,,,,,,,,,,,,,,,,,,,,,,,,,,,,,,,,,,,,,,,,,,,,,,,,,,,,,,,,,,,,
,,,,9,1.984,,,,,,97,chocolate,kitchen,,88545,001,2022-04-25_16h12.21.854,SPAMnetsValid,2021.1.4,MacIntel,55.55555556,,,,,,,,,,,,,9,1.984,0,63,63,8,1,,,,,,,,,,,,,,,,,,,,,,,,,,,,,,,,,,,,,,,,,,,,,,,,,,,,,,,,,,,,,,,,,,,,,,
,,,,3,2.782,,,,,,104,garden,microwave,,88545,001,2022-04-25_16h12.21.854,SPAMnetsValid,2021.1.4,MacIntel,55.55555556,,,,,,,,,,,,,3,2.782,0,64,64,81,1,,,,,,,,,,,,,,,,,,,,,,,,,,,,,,,,,,,,,,,,,,,,,,,,,,,,,,,,,,,,,,,,,,,,,,
,,,,3,3.252,,,,,,111,carrot,microwave,,88545,001,2022-04-25_16h12.21.854,SPAMnetsValid,2021.1.4,MacIntel,55.55555556,,,,,,,,,,,,,3,3.252,0,65,65,16,1,,,,,,,,,,,,,,,,,,,,,,,,,,,,,,,,,,,,,,,,,,,,,,,,,,,,,,,,,,,,,,,,,,,,,,
,,,,9,1.933,,,,,,122,flower,garden,,88545,001,2022-04-25_16h12.21.854,SPAMnetsValid,2021.1.4,MacIntel,55.55555556,,,,,,,,,,,,,9,1.933,0,66,66,60,1,,,,,,,,,,,,,,,,,,,,,,,,,,,,,,,,,,,,,,,,,,,,,,,,,,,,,,,,,,,,,,,,,,,,,,
,,,,4,2.098,,,,,,135,carrot,oven,,88545,001,2022-04-25_16h12.21.854,SPAMnetsValid,2021.1.4,MacIntel,55.55555556,,,,,,,,,,,,,4,2.098,0,67,67,73,1,,,,,,,,,,,,,,,,,,,,,,,,,,,,,,,,,,,,,,,,,,,,,,,,,,,,,,,,,,,,,,,,,,,,,,
,,,,1,1.989,,,,,,130,microwave,yogurt,,88545,001,2022-04-25_16h12.21.854,SPAMnetsValid,2021.1.4,MacIntel,55.55555556,,,,,,,,,,,,,1,1.989,0,68,68,84,1,,,,,,,,,,,,,,,,,,,,,,,,,,,,,,,,,,,,,,,,,,,,,,,,,,,,,,,,,,,,,,,,,,,,,,
,,,,1,2.271,,,,,,146,pretzel,tree,,88545,001,2022-04-25_16h12.21.854,SPAMnetsValid,2021.1.4,MacIntel,55.55555556,,,,,,,,,,,,,1,2.271,0,69,69,80,1,,,,,,,,,,,,,,,,,,,,,,,,,,,,,,,,,,,,,,,,,,,,,,,,,,,,,,,,,,,,,,,,,,,,,,
,,,,1,1.313,,,,,,149,broom,tomato,,88545,001,2022-04-25_16h12.21.854,SPAMnetsValid,2021.1.4,MacIntel,55.55555556,,,,,,,,,,,,,1,1.313,0,70,70,20,1,,,,,,,,,,,,,,,,,,,,,,,,,,,,,,,,,,,,,,,,,,,,,,,,,,,,,,,,,,,,,,,,,,,,,,
,,,,4,3.451,,,,,,153,carrot,pretzel,,88545,001,2022-04-25_16h12.21.854,SPAMnetsValid,2021.1.4,MacIntel,55.55555556,,,,,,,,,,,,,4,3.451,0,71,71,34,1,,,,,,,,,,,,,,,,,,,,,,,,,,,,,,,,,,,,,,,,,,,,,,,,,,,,,,,,,,,,,,,,,,,,,,
,,,,1,2.016,,,,,,144,cake,garden,,88545,001,2022-04-25_16h12.21.854,SPAMnetsValid,2021.1.4,MacIntel,55.55555556,,,,,,,,,,,,,1,2.016,0,72,72,58,1,,,,,,,,,,,,,,,,,,,,,,,,,,,,,,,,,,,,,,,,,,,,,,,,,,,,,,,,,,,,,,,,,,,,,,
,,,,9,1.634,,,,,,113,refrigerator,strawberry,,88545,001,2022-04-25_16h12.21.854,SPAMnetsValid,2021.1.4,MacIntel,55.55555556,,,,,,,,,,,,,9,1.634,0,73,73,56,1,,,,,,,,,,,,,,,,,,,,,,,,,,,,,,,,,,,,,,,,,,,,,,,,,,,,,,,,,,,,,,,,,,,,,,
,,,,1,2.167,,,,,,171,cake,tomato,,88545,001,2022-04-25_16h12.21.854,SPAMnetsValid,2021.1.4,MacIntel,55.55555556,,,,,,,,,,,,,1,2.167,0,74,74,88,1,,,,,,,,,,,,,,,,,,,,,,,,,,,,,,,,,,,,,,,,,,,,,,,,,,,,,,,,,,,,,,,,,,,,,,
,,,,4,1.724,,,,,,166,cake,yogurt,,88545,001,2022-04-25_16h12.21.854,SPAMnetsValid,2021.1.4,MacIntel,55.55555556,,,,,,,,,,,,,4,1.724,0,75,75,91,1,,,,,,,,,,,,,,,,,,,,,,,,,,,,,,,,,,,,,,,,,,,,,,,,,,,,,,,,,,,,,,,,,,,,,,
,,,,4,3.733,,,,,,119,strawberry,tree,,88545,001,2022-04-25_16h12.21.854,SPAMnetsValid,2021.1.4,MacIntel,55.55555556,,,,,,,,,,,,,4,3.733,0,76,76,18,1,,,,,,,,,,,,,,,,,,,,,,,,,,,,,,,,,,,,,,,,,,,,,,,,,,,,,,,,,,,,,,,,,,,,,,
,,,,9,1.924,,,,,,120,microwave,oven,,88545,001,2022-04-25_16h12.21.854,SPAMnetsValid,2021.1.4,MacIntel,55.55555556,,,,,,,,,,,,,9,1.924,0,77,77,14,1,,,,,,,,,,,,,,,,,,,,,,,,,,,,,,,,,,,,,,,,,,,,,,,,,,,,,,,,,,,,,,,,,,,,,,
,,,,9,1.924,,,,,,164,cookie,garden,,88545,001,2022-04-25_16h12.21.854,SPAMnetsValid,2021.1.4,MacIntel,55.55555556,,,,,,,,,,,,,9,1.924,0,78,78,59,1,,,,,,,,,,,,,,,,,,,,,,,,,,,,,,,,,,,,,,,,,,,,,,,,,,,,,,,,,,,,,,,,,,,,,,
,,,,3,5.405,,,,,,133,cake,flower,,88545,001,2022-04-25_16h12.21.854,SPAMnetsValid,2021.1.4,MacIntel,55.55555556,,,,,,,,,,,,,3,5.405,0,79,79,94,1,,,,,,,,,,,,,,,,,,,,,,,,,,,,,,,,,,,,,,,,,,,,,,,,,,,,,,,,,,,,,,,,,,,,,,
,,,,1,1.533,,,,,,134,carrot,flower,,88545,001,2022-04-25_16h12.21.854,SPAMnetsValid,2021.1.4,MacIntel,55.55555556,,,,,,,,,,,,,1,1.533,0,80,80,93,1,,,,,,,,,,,,,,,,,,,,,,,,,,,,,,,,,,,,,,,,,,,,,,,,,,,,,,,,,,,,,,,,,,,,,,
,,,,1,1.953,,,,,,129,cactus,refrigerator,,88545,001,2022-04-25_16h12.21.854,SPAMnetsValid,2021.1.4,MacIntel,55.55555556,,,,,,,,,,,,,1,1.953,0,81,81,3,1,,,,,,,,,,,,,,,,,,,,,,,,,,,,,,,,,,,,,,,,,,,,,,,,,,,,,,,,,,,,,,,,,,,,,,
,,,,4,2.021,,,,,,163,melon,refrigerator,,88545,001,2022-04-25_16h12.21.854,SPAMnetsValid,2021.1.4,MacIntel,55.55555556,,,,,,,,,,,,,4,2.021,0,82,82,29,1,,,,,,,,,,,,,,,,,,,,,,,,,,,,,,,,,,,,,,,,,,,,,,,,,,,,,,,,,,,,,,,,,,,,,,
,,,,1,2.503,,,,,,183,cake,rose,,88545,001,2022-04-25_16h12.21.854,SPAMnetsValid,2021.1.4,MacIntel,55.55555556,,,,,,,,,,,,,1,2.503,0,83,83,19,1,,,,,,,,,,,,,,,,,,,,,,,,,,,,,,,,,,,,,,,,,,,,,,,,,,,,,,,,,,,,,,,,,,,,,,
,,,,1,2.869,,,,,,125,carrot,tree,,88545,001,2022-04-25_16h12.21.854,SPAMnetsValid,2021.1.4,MacIntel,55.55555556,,,,,,,,,,,,,1,2.869,0,84,84,30,1,,,,,,,,,,,,,,,,,,,,,,,,,,,,,,,,,,,,,,,,,,,,,,,,,,,,,,,,,,,,,,,,,,,,,,
,,,,7,4.65,,,,,,190,microwave,strawberry,,88545,001,2022-04-25_16h12.21.854,SPAMnetsValid,2021.1.4,MacIntel,55.55555556,,,,,,,,,,,,,7,4.65,0,85,85,90,1,,,,,,,,,,,,,,,,,,,,,,,,,,,,,,,,,,,,,,,,,,,,,,,,,,,,,,,,,,,,,,,,,,,,,,
,,,,7,2.875,,,,,,98,pretzel,strawberry,,88545,001,2022-04-25_16h12.21.854,SPAMnetsValid,2021.1.4,MacIntel,55.55555556,,,,,,,,,,,,,7,2.875,0,86,86,82,1,,,,,,,,,,,,,,,,,,,,,,,,,,,,,,,,,,,,,,,,,,,,,,,,,,,,,,,,,,,,,,,,,,,,,,
,,,,3,3.209,,,,,,128,melon,microwave,,88545,001,2022-04-25_16h12.21.854,SPAMnetsValid,2021.1.4,MacIntel,55.55555556,,,,,,,,,,,,,3,3.209,0,87,87,74,1,,,,,,,,,,,,,,,,,,,,,,,,,,,,,,,,,,,,,,,,,,,,,,,,,,,,,,,,,,,,,,,,,,,,,,
,,,,7,4.901,,,,,,185,cactus,rose,,88545,001,2022-04-25_16h12.21.854,SPAMnetsValid,2021.1.4,MacIntel,55.55555556,,,,,,,,,,,,,7,4.901,0,88,88,43,1,,,,,,,,,,,,,,,,,,,,,,,,,,,,,,,,,,,,,,,,,,,,,,,,,,,,,,,,,,,,,,,,,,,,,,
,,,,2,3.116,,,,,,165,onion,rose,,88545,001,2022-04-25_16h12.21.854,SPAMnetsValid,2021.1.4,MacIntel,55.55555556,,,,,,,,,,,,,2,3.116,0,89,89,40,1,,,,,,,,,,,,,,,,,,,,,,,,,,,,,,,,,,,,,,,,,,,,,,,,,,,,,,,,,,,,,,,,,,,,,,
,,,,9,1.428,,,,,,147,cake,refrigerator,,88545,001,2022-04-25_16h12.21.854,SPAMnetsValid,2021.1.4,MacIntel,55.55555556,,,,,,,,,,,,,9,1.428,0,90,90,35,1,,,,,,,,,,,,,,,,,,,,,,,,,,,,,,,,,,,,,,,,,,,,,,,,,,,,,,,,,,,,,,,,,,,,,,
,,,,9,1.162,,,,,,142,garden,tree,,88545,001,2022-04-25_16h12.21.854,SPAMnetsValid,2021.1.4,MacIntel,55.55555556,,,,,,,,,,,,,9,1.162,0,91,91,22,1,,,,,,,,,,,,,,,,,,,,,,,,,,,,,,,,,,,,,,,,,,,,,,,,,,,,,,,,,,,,,,,,,,,,,,
,,,,4,2.433,,,,,,162,microwave,tomato,,88545,001,2022-04-25_16h12.21.854,SPAMnetsValid,2021.1.4,MacIntel,55.55555556,,,,,,,,,,,,,4,2.433,0,92,92,12,1,,,,,,,,,,,,,,,,,,,,,,,,,,,,,,,,,,,,,,,,,,,,,,,,,,,,,,,,,,,,,,,,,,,,,,
,,,,9,2.88,,,,,,186,kitchen,yogurt,,88545,001,2022-04-25_16h12.21.854,SPAMnetsValid,2021.1.4,MacIntel,55.55555556,,,,,,,,,,,,,9,2.88,0,93,93,48,1,,,,,,,,,,,,,,,,,,,,,,,,,,,,,,,,,,,,,,,,,,,,,,,,,,,,,,,,,,,,,,,,,,,,,,
,,,,1,2.465,,,,,,178,cactus,carrot,,88545,001,2022-04-25_16h12.21.854,SPAMnetsValid,2021.1.4,MacIntel,55.55555556,,,,,,,,,,,,,1,2.465,0,94,94,75,1,,,,,,,,,,,,,,,,,,,,,,,,,,,,,,,,,,,,,,,,,,,,,,,,,,,,,,,,,,,,,,,,,,,,,,
,,,,9,1.793,,,,,,118,chocolate,oven,,88545,001,2022-04-25_16h12.21.854,SPAMnetsValid,2021.1.4,MacIntel,55.55555556,,,,,,,,,,,,,9,1.793,0,95,95,10,1,,,,,,,,,,,,,,,,,,,,,,,,,,,,,,,,,,,,,,,,,,,,,,,,,,,,,,,,,,,,,,,,,,,,,,
,,,,9,1.115,,,,,,193,melon,melon,CHECK,88545,001,2022-04-25_16h12.21.854,SPAMnetsValid,2021.1.4,MacIntel,55.55555556,,,,,,,,,,,,,9,1.115,0,96,96,86,1,,,,,,,,,,,,,,,,,,,,,,,,,,,,,,,,,,,,,,,,,,,,,,,,,,,,,,,,,,,,,,,,,,,,,,
,,,,,,,,,,,,,,,88545,001,2022-04-25_16h12.21.854,SPAMnetsValid,2021.1.4,MacIntel,55.55555556,,,,,,,,,,,,,,,,,,,,0,0,0,0,1,,,,,,,,,,,,,,,,,,,,,,,,,,,,,,,,,,,,,,,,,,,,,,,,,,,,,,,,,,,,,,,,,
,,,,,,,,,,,,,,,88545,001,2022-04-25_16h12.21.854,SPAMnetsValid,2021.1.4,MacIntel,55.55555556,,,,,,0,1,1,1,1,0,1,,,,,,,,,,,,,,,,,,,,,,,,,,,,,,,,,,,,,,,,,,,,,,,,,,,,,,,,,,,,,,,,,,,,,,,,,,,,,
,,,,,,,,,,,,,,,88545,001,2022-04-25_16h12.21.854,SPAMnetsValid,2021.1.4,MacIntel,55.55555556,,,,,,,,,,,,,,,,,,,,,,,,,2,11.319,0,0,0,0,1,rancor,forbearance,ridicule,malice,bravery,3,,,,,,,,,,,,,,,,,,,,,,,,,,,,,,,,,,,,,,,,,,,,,,,,,,,,
,,,,,,,,,,,,,,,88545,001,2022-04-25_16h12.21.854,SPAMnetsValid,2021.1.4,MacIntel,55.55555556,,,,,,,,,,,,,,,,,,,,,,,,,4,3.756,0,1,1,1,1,raucous,empty,quiet,smooth,harsh,4,,,,,,,,,,,,,,,,,,,,,,,,,,,,,,,,,,,,,,,,,,,,,,,,,,,,
,,,,,,,,,,,,,,,88545,001,2022-04-25_16h12.21.854,SPAMnetsValid,2021.1.4,MacIntel,55.55555556,,,,,,,,,,,,,,,,,,,,,,,,,3,1.763,0,2,2,2,1,gargoyle,oil,medicine,carved waterspout,ugly building,3,,,,,,,,,,,,,,,,,,,,,,,,,,,,,,,,,,,,,,,,,,,,,,,,,,,,
,,,,,,,,,,,,,,,88545,001,2022-04-25_16h12.21.854,SPAMnetsValid,2021.1.4,MacIntel,55.55555556,,,,,,,,,,,,,,,,,,,,,,,,,2,1.395,0,3,3,3,1,recrudesce,purify,renew activity,lack refinement,crush,2,,,,,,,,,,,,,,,,,,,,,,,,,,,,,,,,,,,,,,,,,,,,,,,,,,,,
,,,,,,,,,,,,,,,88545,001,2022-04-25_16h12.21.854,SPAMnetsValid,2021.1.4,MacIntel,55.55555556,,,,,,,,,,,,,,,,,,,,,,,,,1,5.332,0,4,4,4,1,specious,"plausible, but not genuine",noteworthy,class or variety,roomy,1,,,,,,,,,,,,,,,,,,,,,,,,,,,,,,,,,,,,,,,,,,,,,,,,,,,,
,,,,,,,,,,,,,,,88545,001,2022-04-25_16h12.21.854,SPAMnetsValid,2021.1.4,MacIntel,55.55555556,,,,,,,,,,,,,,,,,,,,,,,,,4,5.654,0,5,5,5,1,bauble,bubble,showy plaything,idle talk,confusion,2,,,,,,,,,,,,,,,,,,,,,,,,,,,,,,,,,,,,,,,,,,,,,,,,,,,,
,,,,,,,,,,,,,,,88545,001,2022-04-25_16h12.21.854,SPAMnetsValid,2021.1.4,MacIntel,55.55555556,,,,,,,,,,,,,,,,,,,,,,,,,4,4.63,0,6,6,6,1,prolific,scarce,producing abundantly,reckless,speaking profanely,2,,,,,,,,,,,,,,,,,,,,,,,,,,,,,,,,,,,,,,,,,,,,,,,,,,,,
,,,,,,,,,,,,,,,88545,001,2022-04-25_16h12.21.854,SPAMnetsValid,2021.1.4,MacIntel,55.55555556,,,,,,,,,,,,,,,,,,,,,,,,,4,5.777,0,7,7,7,1,opulent,party,wealthy,happy frame of mind,semiprecious stone,2,,,,,,,,,,,,,,,,,,,,,,,,,,,,,,,,,,,,,,,,,,,,,,,,,,,,
,,,,,,,,,,,,,,,88545,001,2022-04-25_16h12.21.854,SPAMnetsValid,2021.1.4,MacIntel,55.55555556,,,,,,,,,,,,,,,,,,,,,,,,,1,8.793,0,8,8,8,1,coercion,conspiracy,strategy,restraint,attraction,3,,,,,,,,,,,,,,,,,,,,,,,,,,,,,,,,,,,,,,,,,,,,,,,,,,,,
,,,,,,,,,,,,,,,88545,001,2022-04-25_16h12.21.854,SPAMnetsValid,2021.1.4,MacIntel,55.55555556,,,,,,,,,,,,,,,,,,,,,,,,,4,6.033,0,9,9,9,1,hiatus,animal,calamity,dread,gap,4,,,,,,,,,,,,,,,,,,,,,,,,,,,,,,,,,,,,,,,,,,,,,,,,,,,,
,,,,,,,,,,,,,,,88545,001,2022-04-25_16h12.21.854,SPAMnetsValid,2021.1.4,MacIntel,55.55555556,,,,,,,,,,,,,,,,,,,,,,,,,3,1.919,0,10,10,10,1,germane,microbe,contagious,relevant,different,3,,,,,,,,,,,,,,,,,,,,,,,,,,,,,,,,,,,,,,,,,,,,,,,,,,,,
,,,,,,,,,,,,,,,88545,001,2022-04-25_16h12.21.854,SPAMnetsValid,2021.1.4,MacIntel,55.55555556,,,,,,,,,,,,,,,,,,,,,,,,,1,2.876,0,11,11,11,1,perfunctory,fundamental,formal,superficial,careful,3,,,,,,,,,,,,,,,,,,,,,,,,,,,,,,,,,,,,,,,,,,,,,,,,,,,,
,,,,,,,,,,,,,,,88545,001,2022-04-25_16h12.21.854,SPAMnetsValid,2021.1.4,MacIntel,55.55555556,,,,,,,,,,,,,,,,,,,,,,,,,2,0.948,0,12,12,12,1,diverge,reveal,chant,distract the attention of,differ or turn off from,4,,,,,,,,,,,,,,,,,,,,,,,,,,,,,,,,,,,,,,,,,,,,,,,,,,,,
,,,,,,,,,,,,,,,88545,001,2022-04-25_16h12.21.854,SPAMnetsValid,2021.1.4,MacIntel,55.55555556,,,,,,,,,,,,,,,,,,,,,,,,,3,1.106,0,13,13,13,1,evoke,take away,anger,connect,bring out,4,,,,,,,,,,,,,,,,,,,,,,,,,,,,,,,,,,,,,,,,,,,,,,,,,,,,
,,,,,,,,,,,,,,,88545,001,2022-04-25_16h12.21.854,SPAMnetsValid,2021.1.4,MacIntel,55.55555556,,,,,,,,,,,,,,,,,,,,,,,,,2,6.61,0,14,14,14,1,pertinent,relevant,lying next to,necessary,bold,1,,,,,,,,,,,,,,,,,,,,,,,,,,,,,,,,,,,,,,,,,,,,,,,,,,,,
,,,,,,,,,,,,,,,88545,001,2022-04-25_16h12.21.854,SPAMnetsValid,2021.1.4,MacIntel,55.55555556,,,,,,,,,,,,,,,,,,,,,,,,,2,2.564,0,15,15,15,1,holocaust,entirety,destruction,saintly,price,2,,,,,,,,,,,,,,,,,,,,,,,,,,,,,,,,,,,,,,,,,,,,,,,,,,,,
,,,,,,,,,,,,,,,88545,001,2022-04-25_16h12.21.854,SPAMnetsValid,2021.1.4,MacIntel,55.55555556,,,,,,,,,,,,,,,,,,,,,,,,,1,3.73,0,16,16,16,1,piquant,mellow,fish,pungent,cloth,3,,,,,,,,,,,,,,,,,,,,,,,,,,,,,,,,,,,,,,,,,,,,,,,,,,,,
,,,,,,,,,,,,,,,88545,001,2022-04-25_16h12.21.854,SPAMnetsValid,2021.1.4,MacIntel,55.55555556,,,,,,,,,,,,,,,,,,,,,,,,,1,3.926,0,17,17,17,1,firmament,foundation,heavens,strong,glue,2,,,,,,,,,,,,,,,,,,,,,,,,,,,,,,,,,,,,,,,,,,,,,,,,,,,,
,,,,,,,,,,,,,,,88545,001,2022-04-25_16h12.21.854,SPAMnetsValid,2021.1.4,MacIntel,55.55555556,,,,,,,,,,,,,,,,,,,,,,,,,,,,,,,,,,,,,,5,8.823,0,0,0,0,1,marketable,partisan,jocular,marriageable,salable,essential,4,,,,,,,,,,,,,,,,,,,,,,,,,,,,,,,,,,,,,,
,,,,,,,,,,,,,,,88545,001,2022-04-25_16h12.21.854,SPAMnetsValid,2021.1.4,MacIntel,55.55555556,,,,,,,,,,,,,,,,,,,,,,,,,,,,,,,,,,,,,,5,3.021,0,1,1,1,1,cottontail,squirrel,poplar,boa,marshy plant,rabbit,5,,,,,,,,,,,,,,,,,,,,,,,,,,,,,,,,,,,,,,
,,,,,,,,,,,,,,,88545,001,2022-04-25_16h12.21.854,SPAMnetsValid,2021.1.4,MacIntel,55.55555556,,,,,,,,,,,,,,,,,,,,,,,,,,,,,,,,,,,,,,4,7.12,0,2,2,2,1,boggy,afraid,false,marshy,dense,black,3,,,,,,,,,,,,,,,,,,,,,,,,,,,,,,,,,,,,,,
,,,,,,,,,,,,,,,88545,001,2022-04-25_16h12.21.854,SPAMnetsValid,2021.1.4,MacIntel,55.55555556,,,,,,,,,,,,,,,,,,,,,,,,,,,,,,,,,,,,,,3,8.435,0,3,3,3,1,gruesomeness,blackness,falseness,vindictiveness,drunkenness,ghastliness,5,,,,,,,,,,,,,,,,,,,,,,,,,,,,,,,,,,,,,,
,,,,,,,,,,,,,,,88545,001,2022-04-25_16h12.21.854,SPAMnetsValid,2021.1.4,MacIntel,55.55555556,,,,,,,,,,,,,,,,,,,,,,,,,,,,,,,,,,,,,,2,2.717,0,4,4,4,1,loathing,diffidence,laziness,abhorrence,cleverness,comfort,3,,,,,,,,,,,,,,,,,,,,,,,,,,,,,,,,,,,,,,
,,,,,,,,,,,,,,,88545,001,2022-04-25_16h12.21.854,SPAMnetsValid,2021.1.4,MacIntel,55.55555556,,,,,,,,,,,,,,,,,,,,,,,,,,,,,,,,,,,,,,2,4.538,0,5,5,5,1,bantam,fowl,ridicule,cripple,vegetable,ensign,1,,,,,,,,,,,,,,,,,,,,,,,,,,,,,,,,,,,,,,
,,,,,,,,,,,,,,,88545,001,2022-04-25_16h12.21.854,SPAMnetsValid,2021.1.4,MacIntel,55.55555556,,,,,,,,,,,,,,,,,,,,,,,,,,,,,,,,,,,,,,2,3.367,0,6,6,6,1,evoke,wake up,surrender,reconnoiter,transcend,call forth,5,,,,,,,,,,,,,,,,,,,,,,,,,,,,,,,,,,,,,,
,,,,,,,,,,,,,,,88545,001,2022-04-25_16h12.21.854,SPAMnetsValid,2021.1.4,MacIntel,55.55555556,,,,,,,,,,,,,,,,,,,,,,,,,,,,,,,,,,,,,,3,5.1,0,7,7,7,1,unobtrusive,unintelligent,epileptic,illogical,lineal,modest,5,,,,,,,,,,,,,,,,,,,,,,,,,,,,,,,,,,,,,,
,,,,,,,,,,,,,,,88545,001,2022-04-25_16h12.21.854,SPAMnetsValid,2021.1.4,MacIntel,55.55555556,,,,,,,,,,,,,,,,,,,,,,,,,,,,,,,,,,,,,,4,1.535,0,8,8,8,1,terrain,ice cream,final test,tractor,area of ground,weight,4,,,,,,,,,,,,,,,,,,,,,,,,,,,,,,,,,,,,,,
,,,,,,,,,,,,,,,88545,001,2022-04-25_16h12.21.854,SPAMnetsValid,2021.1.4,MacIntel,55.55555556,,,,,,,,,,,,,,,,,,,,,,,,,,,,,,,,,,,,,,5,1.614,0,9,9,9,1,capriciousness,stubbornness,courage,whimsicality,amazement,greediness,3,,,,,,,,,,,,,,,,,,,,,,,,,,,,,,,,,,,,,,
,,,,,,,,,,,,,,,88545,001,2022-04-25_16h12.21.854,SPAMnetsValid,2021.1.4,MacIntel,55.55555556,,,,,,,,,,,,,,,,,,,,,,,,,,,,,,,,,,,,,,3,1.185,0,10,10,10,1,maelstrom,slander,whirlpool,enmity,armor,majolica,2,,,,,,,,,,,,,,,,,,,,,,,,,,,,,,,,,,,,,,
,,,,,,,,,,,,,,,88545,001,2022-04-25_16h12.21.854,SPAMnetsValid,2021.1.4,MacIntel,55.55555556,,,,,,,,,,,,,,,,,,,,,,,,,,,,,,,,,,,,,,2,5.501,0,11,11,11,1,tentative,critical,conclusive,authentic,provisional,apprehensive,4,,,,,,,,,,,,,,,,,,,,,,,,,,,,,,,,,,,,,,
,,,,,,,,,,,,,,,88545,001,2022-04-25_16h12.21.854,SPAMnetsValid,2021.1.4,MacIntel,55.55555556,,,,,,,,,,,,,,,,,,,,,,,,,,,,,,,,,,,,,,4,7.716,0,12,12,12,1,placate,rehabilitate,plagiarize,depredate,apprise,conciliate,5,,,,,,,,,,,,,,,,,,,,,,,,,,,,,,,,,,,,,,
,,,,,,,,,,,,,,,88545,001,2022-04-25_16h12.21.854,SPAMnetsValid,2021.1.4,MacIntel,55.55555556,,,,,,,,,,,,,,,,,,,,,,,,,,,,,,,,,,,,,,4,11.105,0,13,13,13,1,surcease,enlightenment,cessation,inattention,censor,substitution,2,,,,,,,,,,,,,,,,,,,,,,,,,,,,,,,,,,,,,,
,,,,,,,,,,,,,,,88545,001,2022-04-25_16h12.21.854,SPAMnetsValid,2021.1.4,MacIntel,55.55555556,,,,,,,,,,,,,,,,,,,,,,,,,,,,,,,,,,,,,,3,3.844,0,14,14,14,1,apathetic,wandering,impassive,hateful,prophetic,overflowing,2,,,,,,,,,,,,,,,,,,,,,,,,,,,,,,,,,,,,,,
,,,,,,,,,,,,,,,88545,001,2022-04-25_16h12.21.854,SPAMnetsValid,2021.1.4,MacIntel,55.55555556,,,,,,,,,,,,,,,,,,,,,,,,,,,,,,,,,,,,,,1,5.982,0,15,15,15,1,paternoster,paternalism,patricide,malediction,benediction,prayer,5,,,,,,,,,,,,,,,,,,,,,,,,,,,,,,,,,,,,,,
,,,,,,,,,,,,,,,88545,001,2022-04-25_16h12.21.854,SPAMnetsValid,2021.1.4,MacIntel,55.55555556,,,,,,,,,,,,,,,,,,,,,,,,,,,,,,,,,,,,,,2,5.044,0,16,16,16,1,opalescence,opulence,senescence,bankruptcy,iridescence,assiduity,4,,,,,,,,,,,,,,,,,,,,,,,,,,,,,,,,,,,,,,
,,,,,,,,,,,,,,,88545,001,2022-04-25_16h12.21.854,SPAMnetsValid,2021.1.4,MacIntel,55.55555556,,,,,,,,,,,,,,,,,,,,,,,,,,,,,,,,,,,,,,2,7.436,0,17,17,17,1,lush,stupid,luxurious,hazy,putrid,languishing,2,,,,,,,,,,,,,,,,,,,,,,,,,,,,,,,,,,,,,,
,,,,,,,,,,,,,,,88545,001,2022-04-25_16h12.21.854,SPAMnetsValid,2021.1.4,MacIntel,55.55555556,,,,,,,,,,,,,,,,,,,,,,,,,,,,,,,,,,,,,,2,6.194,0,18,18,18,1,curtailment,expenditure,abandonment,abridgment,improvement,forgery,3,,,,,,,,,,,,,,,,,,,,,,,,,,,,,,,,,,,,,,
,,,,,,,,,,,,,,,88545,001,2022-04-25_16h12.21.854,SPAMnetsValid,2021.1.4,MacIntel,55.55555556,,,,,,,,,,,,,,,,,,,,,,,,,,,,,,,,,,,,,,4,1.836,0,19,19,19,1,perversity,adversity,perviousness,travesty,waywardness,gentility,4,,,,,,,,,,,,,,,,,,,,,,,,,,,,,,,,,,,,,,
,,,,,,,,,,,,,,,88545,001,2022-04-25_16h12.21.854,SPAMnetsValid,2021.1.4,MacIntel,55.55555556,,,,,,,,,,,,,,,,,,,,,,,,,,,,,,,,,,,,,,2,1.575,0,20,20,20,1,calumnious,complimentary,analogous,slanderous,tempestuous,magnanimous,3,,,,,,,,,,,,,,,,,,,,,,,,,,,,,,,,,,,,,,
,,,,,,,,,,,,,,,88545,001,2022-04-25_16h12.21.854,SPAMnetsValid,2021.1.4,MacIntel,55.55555556,,,,,,,,,,,,,,,,,,,,,,,,,,,,,,,,,,,,,,3,2.549,0,21,21,21,1,illiberality,bigotry,imbecility,illegibility,cautery,immaturity,1,,,,,,,,,,,,,,,,,,,,,,,,,,,,,,,,,,,,,,
,,,,,,,,,,,,,,,88545,001,2022-04-25_16h12.21.854,SPAMnetsValid,2021.1.4,MacIntel,55.55555556,,,,,,,,,,,,,,,,,,,,,,,,,,,,,,,,,,,,,,2,4.388,0,22,22,22,1,clabber,rejoice,gossip,curdle,crow,hobble,3,,,,,,,,,,,,,,,,,,,,,,,,,,,,,,,,,,,,,,
,,,,,,,,,,,,,,,88545,001,2022-04-25_16h12.21.854,SPAMnetsValid,2021.1.4,MacIntel,55.55555556,,,,,,,,,,,,,,,,,,,,,,,,,,,,,,,,,,,,,,3,7.173,0,23,23,23,1,sedulousness,diligence,credulousness,seduction,perilousness,frankness,1,,,,,,,,,,,,,,,,,,,,,,,,,,,,,,,,,,,,,,
,,,,,,,,,,,,,,,88545,001,2022-04-25_16h12.21.854,SPAMnetsValid,2021.1.4,MacIntel,55.55555556,,,,,,,,,,,,,,,,,,,,,,,,,,,,,,,,,,,,,,,,,,,,,,,,,,,,sleep,pillow,0,0,0,0,1,,,,,,,,,,,,,,,,,,,,,,,,,,,,,,,
,,,,,,,,,,,,,,,88545,001,2022-04-25_16h12.21.854,SPAMnetsValid,2021.1.4,MacIntel,55.55555556,,,,,,,,,,,,,,,,,,,,,,,,,,,,,,,,,,,,,,,,,,,,,,,,,,,,to adjust,pillow,1,0,1,0,1,,,,,,,,,,,,,,,,,,,,,,,,,,,,,,,
,,,,,,,,,,,,,,,88545,001,2022-04-25_16h12.21.854,SPAMnetsValid,2021.1.4,MacIntel,55.55555556,,,,,,,,,,,,,,,,,,,,,,,,,,,,,,,,,,,,,,,,,,,,,,,,,,,,comfort,pillow,2,0,2,0,1,,,,,,,,,,,,,,,,,,,,,,,,,,,,,,,
,,,,,,,,,,,,,,,88545,001,2022-04-25_16h12.21.854,SPAMnetsValid,2021.1.4,MacIntel,55.55555556,,,,,,,,,,,,,,,,,,,,,,,,,,,,,,,,,,,,,,,,,,,,,,,,,,,,stuffing,pillow,3,0,3,0,1,,,,,,,,,,,,,,,,,,,,,,,,,,,,,,,
,,,,,,,,,,,,,,,88545,001,2022-04-25_16h12.21.854,SPAMnetsValid,2021.1.4,MacIntel,55.55555556,,,,,,,,,,,,,,,,,,,,,,,,,,,,,,,,,,,,,,,,,,,,,,,,,,,,,,,,,,,0,0,0,2,1,pillow,,,,,,,,,,,,,,,,,,,,,,,,,
,,,,,,,,,,,,,,,88545,001,2022-04-25_16h12.21.854,SPAMnetsValid,2021.1.4,MacIntel,55.55555556,,,,,,,,,,,,,,,,,,,,,,,,,,,,,,,,,,,,,,,,,,,,,,,,,,,,smell ,candle,0,0,0,0,1,,,,,,,,,,,,,,,,,,,,,,,,,,,,,,,
,,,,,,,,,,,,,,,88545,001,2022-04-25_16h12.21.854,SPAMnetsValid,2021.1.4,MacIntel,55.55555556,,,,,,,,,,,,,,,,,,,,,,,,,,,,,,,,,,,,,,,,,,,,,,,,,,,,relaxation,candle,1,0,1,0,1,,,,,,,,,,,,,,,,,,,,,,,,,,,,,,,
,,,,,,,,,,,,,,,88545,001,2022-04-25_16h12.21.854,SPAMnetsValid,2021.1.4,MacIntel,55.55555556,,,,,,,,,,,,,,,,,,,,,,,,,,,,,,,,,,,,,,,,,,,,,,,,,,,,comfort,candle,2,0,2,0,1,,,,,,,,,,,,,,,,,,,,,,,,,,,,,,,
,,,,,,,,,,,,,,,88545,001,2022-04-25_16h12.21.854,SPAMnetsValid,2021.1.4,MacIntel,55.55555556,,,,,,,,,,,,,,,,,,,,,,,,,,,,,,,,,,,,,,,,,,,,,,,,,,,,cleaning,candle,3,0,3,0,1,,,,,,,,,,,,,,,,,,,,,,,,,,,,,,,
,,,,,,,,,,,,,,,88545,001,2022-04-25_16h12.21.854,SPAMnetsValid,2021.1.4,MacIntel,55.55555556,,,,,,,,,,,,,,,,,,,,,,,,,,,,,,,,,,,,,,,,,,,,,,,,,,,,light,candle,4,0,4,0,1,,,,,,,,,,,,,,,,,,,,,,,,,,,,,,,
,,,,,,,,,,,,,,,88545,001,2022-04-25_16h12.21.854,SPAMnetsValid,2021.1.4,MacIntel,55.55555556,,,,,,,,,,,,,,,,,,,,,,,,,,,,,,,,,,,,,,,,,,,,,,,,,,,,cozy,candle,5,0,5,0,1,,,,,,,,,,,,,,,,,,,,,,,,,,,,,,,
,,,,,,,,,,,,,,,88545,001,2022-04-25_16h12.21.854,SPAMnetsValid,2021.1.4,MacIntel,55.55555556,,,,,,,,,,,,,,,,,,,,,,,,,,,,,,,,,,,,,,,,,,,,,,,,,,,,fire,candle,6,0,6,0,1,,,,,,,,,,,,,,,,,,,,,,,,,,,,,,,
,,,,,,,,,,,,,,,88545,001,2022-04-25_16h12.21.854,SPAMnetsValid,2021.1.4,MacIntel,55.55555556,,,,,,,,,,,,,,,,,,,,,,,,,,,,,,,,,,,,,,,,,,,,,,,,,,,,,,,,,,,0,1,1,1,1,candle,,,,,,,,,,,,,,,,,,,,,,,,,
,,,,,,,,,,,,,,,88545,001,2022-04-25_16h12.21.854,SPAMnetsValid,2021.1.4,MacIntel,55.55555556,,,,,,,,,,,,,,,,,,,,,,,,,,,,,,,,,,,,,,,,,,,,,,,,,,,,filter,bucket,0,0,0,0,1,,,,,,,,,,,,,,,,,,,,,,,,,,,,,,,
,,,,,,,,,,,,,,,88545,001,2022-04-25_16h12.21.854,SPAMnetsValid,2021.1.4,MacIntel,55.55555556,,,,,,,,,,,,,,,,,,,,,,,,,,,,,,,,,,,,,,,,,,,,,,,,,,,,hold things,bucket,1,0,1,0,1,,,,,,,,,,,,,,,,,,,,,,,,,,,,,,,
,,,,,,,,,,,,,,,88545,001,2022-04-25_16h12.21.854,SPAMnetsValid,2021.1.4,MacIntel,55.55555556,,,,,,,,,,,,,,,,,,,,,,,,,,,,,,,,,,,,,,,,,,,,,,,,,,,,compost,bucket,2,0,2,0,1,,,,,,,,,,,,,,,,,,,,,,,,,,,,,,,
,,,,,,,,,,,,,,,88545,001,2022-04-25_16h12.21.854,SPAMnetsValid,2021.1.4,MacIntel,55.55555556,,,,,,,,,,,,,,,,,,,,,,,,,,,,,,,,,,,,,,,,,,,,,,,,,,,,carrying,bucket,3,0,3,0,1,,,,,,,,,,,,,,,,,,,,,,,,,,,,,,,
,,,,,,,,,,,,,,,88545,001,2022-04-25_16h12.21.854,SPAMnetsValid,2021.1.4,MacIntel,55.55555556,,,,,,,,,,,,,,,,,,,,,,,,,,,,,,,,,,,,,,,,,,,,,,,,,,,,water,bucket,4,0,4,0,1,,,,,,,,,,,,,,,,,,,,,,,,,,,,,,,
,,,,,,,,,,,,,,,88545,001,2022-04-25_16h12.21.854,SPAMnetsValid,2021.1.4,MacIntel,55.55555556,,,,,,,,,,,,,,,,,,,,,,,,,,,,,,,,,,,,,,,,,,,,,,,,,,,,,,,,,,,0,2,2,0,1,bucket,,,,,,,,,,,,,,,,,,,,,,,,,
,,,,,,,,,,,,,,,88545,001,2022-04-25_16h12.21.854,SPAMnetsValid,2021.1.4,MacIntel,55.55555556,,,,,,,,,,,,,,,,,,,,,,,,,,,,,,,,,,,,,,,,,,,,,,,,,,,,,,,,,,,,,,,,,dogs,Animals,0,0,0,0,1,,,,,,,,,,,,,,,,,,
,,,,,,,,,,,,,,,88545,001,2022-04-25_16h12.21.854,SPAMnetsValid,2021.1.4,MacIntel,55.55555556,,,,,,,,,,,,,,,,,,,,,,,,,,,,,,,,,,,,,,,,,,,,,,,,,,,,,,,,,,,,,,,,,cats,Animals,1,0,1,0,1,,,,,,,,,,,,,,,,,,
,,,,,,,,,,,,,,,88545,001,2022-04-25_16h12.21.854,SPAMnetsValid,2021.1.4,MacIntel,55.55555556,,,,,,,,,,,,,,,,,,,,,,,,,,,,,,,,,,,,,,,,,,,,,,,,,,,,,,,,,,,,,,,,,hamster,Animals,2,0,2,0,1,,,,,,,,,,,,,,,,,,
,,,,,,,,,,,,,,,88545,001,2022-04-25_16h12.21.854,SPAMnetsValid,2021.1.4,MacIntel,55.55555556,,,,,,,,,,,,,,,,,,,,,,,,,,,,,,,,,,,,,,,,,,,,,,,,,,,,,,,,,,,,,,,,,chipmunk,Animals,3,0,3,0,1,,,,,,,,,,,,,,,,,,
,,,,,,,,,,,,,,,88545,001,2022-04-25_16h12.21.854,SPAMnetsValid,2021.1.4,MacIntel,55.55555556,,,,,,,,,,,,,,,,,,,,,,,,,,,,,,,,,,,,,,,,,,,,,,,,,,,,,,,,,,,,,,,,,monkey,Animals,4,0,4,0,1,,,,,,,,,,,,,,,,,,
,,,,,,,,,,,,,,,88545,001,2022-04-25_16h12.21.854,SPAMnetsValid,2021.1.4,MacIntel,55.55555556,,,,,,,,,,,,,,,,,,,,,,,,,,,,,,,,,,,,,,,,,,,,,,,,,,,,,,,,,,,,,,,,,racoon,Animals,5,0,5,0,1,,,,,,,,,,,,,,,,,,
,,,,,,,,,,,,,,,88545,001,2022-04-25_16h12.21.854,SPAMnetsValid,2021.1.4,MacIntel,55.55555556,,,,,,,,,,,,,,,,,,,,,,,,,,,,,,,,,,,,,,,,,,,,,,,,,,,,,,,,,,,,,,,,,bird,Animals,6,0,6,0,1,,,,,,,,,,,,,,,,,,
,,,,,,,,,,,,,,,88545,001,2022-04-25_16h12.21.854,SPAMnetsValid,2021.1.4,MacIntel,55.55555556,,,,,,,,,,,,,,,,,,,,,,,,,,,,,,,,,,,,,,,,,,,,,,,,,,,,,,,,,,,,,,,,,bear,Animals,7,0,7,0,1,,,,,,,,,,,,,,,,,,
,,,,,,,,,,,,,,,88545,001,2022-04-25_16h12.21.854,SPAMnetsValid,2021.1.4,MacIntel,55.55555556,,,,,,,,,,,,,,,,,,,,,,,,,,,,,,,,,,,,,,,,,,,,,,,,,,,,,,,,,,,,,,,,,panda,Animals,8,0,8,0,1,,,,,,,,,,,,,,,,,,
,,,,,,,,,,,,,,,88545,001,2022-04-25_16h12.21.854,SPAMnetsValid,2021.1.4,MacIntel,55.55555556,,,,,,,,,,,,,,,,,,,,,,,,,,,,,,,,,,,,,,,,,,,,,,,,,,,,,,,,,,,,,,,,,deer,Animals,9,0,9,0,1,,,,,,,,,,,,,,,,,,
,,,,,,,,,,,,,,,88545,001,2022-04-25_16h12.21.854,SPAMnetsValid,2021.1.4,MacIntel,55.55555556,,,,,,,,,,,,,,,,,,,,,,,,,,,,,,,,,,,,,,,,,,,,,,,,,,,,,,,,,,,,,,,,,lion,Animals,10,0,10,0,1,,,,,,,,,,,,,,,,,,
,,,,,,,,,,,,,,,88545,001,2022-04-25_16h12.21.854,SPAMnetsValid,2021.1.4,MacIntel,55.55555556,,,,,,,,,,,,,,,,,,,,,,,,,,,,,,,,,,,,,,,,,,,,,,,,,,,,,,,,,,,,,,,,,tige,Animals,11,0,11,0,1,,,,,,,,,,,,,,,,,,
,,,,,,,,,,,,,,,88545,001,2022-04-25_16h12.21.854,SPAMnetsValid,2021.1.4,MacIntel,55.55555556,,,,,,,,,,,,,,,,,,,,,,,,,,,,,,,,,,,,,,,,,,,,,,,,,,,,,,,,,,,,,,,,,elephant,Animals,12,0,12,0,1,,,,,,,,,,,,,,,,,,
,,,,,,,,,,,,,,,88545,001,2022-04-25_16h12.21.854,SPAMnetsValid,2021.1.4,MacIntel,55.55555556,,,,,,,,,,,,,,,,,,,,,,,,,,,,,,,,,,,,,,,,,,,,,,,,,,,,,,,,,,,,,,,,,snake,Animals,13,0,13,0,1,,,,,,,,,,,,,,,,,,
,,,,,,,,,,,,,,,88545,001,2022-04-25_16h12.21.854,SPAMnetsValid,2021.1.4,MacIntel,55.55555556,,,,,,,,,,,,,,,,,,,,,,,,,,,,,,,,,,,,,,,,,,,,,,,,,,,,,,,,,,,,,,,,,whale,Animals,14,0,14,0,1,,,,,,,,,,,,,,,,,,
,,,,,,,,,,,,,,,88545,001,2022-04-25_16h12.21.854,SPAMnetsValid,2021.1.4,MacIntel,55.55555556,,,,,,,,,,,,,,,,,,,,,,,,,,,,,,,,,,,,,,,,,,,,,,,,,,,,,,,,,,,,,,,,,wolf,Animals,15,0,15,0,1,,,,,,,,,,,,,,,,,,
,,,,,,,,,,,,,,,88545,001,2022-04-25_16h12.21.854,SPAMnetsValid,2021.1.4,MacIntel,55.55555556,,,,,,,,,,,,,,,,,,,,,,,,,,,,,,,,,,,,,,,,,,,,,,,,,,,,,,,,,,,,,,,,,shark,Animals,16,0,16,0,1,,,,,,,,,,,,,,,,,,
,,,,,,,,,,,,,,,88545,001,2022-04-25_16h12.21.854,SPAMnetsValid,2021.1.4,MacIntel,55.55555556,,,,,,,,,,,,,,,,,,,,,,,,,,,,,,,,,,,,,,,,,,,,,,,,,,,,,,,,,,,,,,,,,,,,,,,,0,0,0,0,1,Animals,,,,,,,,,,,,
,,,,,,,,,,,,,,,88545,001,2022-04-25_16h12.21.854,SPAMnetsValid,2021.1.4,MacIntel,55.55555556,,,,,,,,,,,,,,,,,,,,,,,,,,,,,,,,,,,,,,,,,,,,,,,,,,,,,,,,,,,,,,,,,,,,,,,,,,,,,,4,5.57,0,0,0,0,1,"I enjoy concentrating on a fantasy or daydream and exploring all its possibilities, letting it grow and develop.",0,1,,
,,,,,,,,,,,,,,,88545,001,2022-04-25_16h12.21.854,SPAMnetsValid,2021.1.4,MacIntel,55.55555556,,,,,,,,,,,,,,,,,,,,,,,,,,,,,,,,,,,,,,,,,,,,,,,,,,,,,,,,,,,,,,,,,,,,,,,,,,,,,,5,3.997,0,1,1,1,1,I think it's interesting to learn and develop new hobbies.,0,2,,
,,,,,,,,,,,,,,,88545,001,2022-04-25_16h12.21.854,SPAMnetsValid,2021.1.4,MacIntel,55.55555556,,,,,,,,,,,,,,,,,,,,,,,,,,,,,,,,,,,,,,,,,,,,,,,,,,,,,,,,,,,,,,,,,,,,,,,,,,,,,,5,3.837,0,2,2,2,1,I am intrigued by the patterns I find in art and nature.,0,3,,
,,,,,,,,,,,,,,,88545,001,2022-04-25_16h12.21.854,SPAMnetsValid,2021.1.4,MacIntel,55.55555556,,,,,,,,,,,,,,,,,,,,,,,,,,,,,,,,,,,,,,,,,,,,,,,,,,,,,,,,,,,,,,,,,,,,,,,,,,,,,,2,6.49,0,3,3,3,1,I believe letting students hear controversial speakers can only confuse and mislead them.,1,4,,
,,,,,,,,,,,,,,,88545,001,2022-04-25_16h12.21.854,SPAMnetsValid,2021.1.4,MacIntel,55.55555556,,,,,,,,,,,,,,,,,,,,,,,,,,,,,,,,,,,,,,,,,,,,,,,,,,,,,,,,,,,,,,,,,,,,,,,,,,,,,,3,2.985,0,4,4,4,1,Poetry has little or no effect on me.,1,5,,
,,,,,,,,,,,,,,,88545,001,2022-04-25_16h12.21.854,SPAMnetsValid,2021.1.4,MacIntel,55.55555556,,,,,,,,,,,,,,,,,,,,,,,,,,,,,,,,,,,,,,,,,,,,,,,,,,,,,,,,,,,,,,,,,,,,,,,,,,,,,,4,7.553,0,5,5,5,1,I would have difficulty just letting my mind wander without control or guidance.,1,6,,
,,,,,,,,,,,,,,,88545,001,2022-04-25_16h12.21.854,SPAMnetsValid,2021.1.4,MacIntel,55.55555556,,,,,,,,,,,,,,,,,,,,,,,,,,,,,,,,,,,,,,,,,,,,,,,,,,,,,,,,,,,,,,,,,,,,,,,,,,,,,,5,4.096,0,6,6,6,1,I seldom notice the moods or feelings that different environments produce.,1,7,,
,,,,,,,,,,,,,,,88545,001,2022-04-25_16h12.21.854,SPAMnetsValid,2021.1.4,MacIntel,55.55555556,,,,,,,,,,,,,,,,,,,,,,,,,,,,,,,,,,,,,,,,,,,,,,,,,,,,,,,,,,,,,,,,,,,,,,,,,,,,,,5,2.3,0,7,7,7,1,I experience a wide range of emotions or feelings.,0,8,,
,,,,,,,,,,,,,,,88545,001,2022-04-25_16h12.21.854,SPAMnetsValid,2021.1.4,MacIntel,55.55555556,,,,,,,,,,,,,,,,,,,,,,,,,,,,,,,,,,,,,,,,,,,,,,,,,,,,,,,,,,,,,,,,,,,,,,,,,,,,,,4,4.431,0,8,8,8,1,"Sometimes when I am reading poetry or looking at a work of art, I feel a chill or wave of excitement.",0,9,,
,,,,,,,,,,,,,,,88545,001,2022-04-25_16h12.21.854,SPAMnetsValid,2021.1.4,MacIntel,55.55555556,,,,,,,,,,,,,,,,,,,,,,,,,,,,,,,,,,,,,,,,,,,,,,,,,,,,,,,,,,,,,,,,,,,,,,,,,,,,,,4,5.291,0,9,9,9,1,I have little interest in speculating on the nature of the universe or the human condition.,1,10,,
,,,,,,,,,,,,,,,88545,001,2022-04-25_16h12.21.854,SPAMnetsValid,2021.1.4,MacIntel,55.55555556,,,,,,,,,,,,,,,,,,,,,,,,,,,,,,,,,,,,,,,,,,,,,,,,,,,,,,,,,,,,,,,,,,,,,,,,,,,,,,4,2.199,0,10,10,10,1,I have a lot of intellectual curiosity.,0,11,,
,,,,,,,,,,,,,,,88545,001,2022-04-25_16h12.21.854,SPAMnetsValid,2021.1.4,MacIntel,55.55555556,,,,,,,,,,,,,,,,,,,,,,,,,,,,,,,,,,,,,,,,,,,,,,,,,,,,,,,,,,,,,,,,,,,,,,,,,,,,,,5,2.676,0,11,11,11,1,I often enjoy playing with theories or abstract ideas.,0,12,,
,,,,,,,,,,,,,,,88545,001,2022-04-25_16h12.21.854,SPAMnetsValid,2021.1.4,MacIntel,55.55555556,,,,,,,,,,,,,,,,,,,,,,,,,,,,,,,,,,,,,,,,,,,,,,,,,,,,,,,,,,,,,,,,,,,,,,,,,,,,,,,,,,,,,,,,return,10.905
