key_resp_3.keys,key_resp_3.rt,slider_2.response,slider_2.rt,rjt_rating,rjt_RT,trials_24.thisRepN,trials_24.thisTrialN,trials_24.thisN,trials_24.thisIndex,trials_24.ran,rjt_order,word1,word2,attention,participant,session,date,expName,psychopyVersion,OS,frameRate,trials_4.thisRepN,trials_4.thisTrialN,trials_4.thisN,trials_4.thisIndex,trials_4.ran,trials_5.thisRepN,trials_5.thisTrialN,trials_5.thisN,trials_5.thisIndex,trials_5.ran,repOne,repTwo,slider.response,slider.rt,trials_22.thisRepN,trials_22.thisTrialN,trials_22.thisN,trials_22.thisIndex,trials_22.ran,trials_99.thisRepN,trials_99.thisTrialN,trials_99.thisN,trials_99.thisIndex,trials_99.ran,slider_extend_2.response,slider_extend_2.rt,trials_6.thisRepN,trials_6.thisTrialN,trials_6.thisN,trials_6.thisIndex,trials_6.ran,vCue2,R1,R2,R3,R4,correct,sliderVocab.response,sliderVocab.rt,trials_7.thisRepN,trials_7.thisTrialN,trials_7.thisN,trials_7.thisIndex,trials_7.ran,VocabCue,VR1,VR2,VR3,VR4,VR5,VocabCorrect,AUT_resp,AUT_label,trials.thisRepN,trials.thisTrialN,trials.thisN,trials.thisIndex,trials.ran,trials_2.thisRepN,trials_2.thisTrialN,trials_2.thisN,trials_2.thisIndex,trials_2.ran,aut_prompt,trials_17.thisRepN,trials_17.thisTrialN,trials_17.thisN,trials_17.thisIndex,trials_17.ran,VFcond,open_slider.response,open_slider.rt,trials_3.thisRepN,trials_3.thisTrialN,trials_3.thisN,trials_3.thisIndex,trials_3.ran,OpenQ,Rev,OPEN_ORDER,key_resp_2.keys,key_resp_2.rt
return,1.771,2,23.439,2,23.439,0,0,0,7,1,188,flower,tree,,88555,001,2022-04-26_18h28.36.332,SPAMnetsValid,2021.1.4,MacIntel,55.55555556,,,,,,,,,,,,,,,,,,,,,,,,,,,,,,,,,,,,,,,,,,,,,,,,,,,,,,,,,,,,,,,,,,,,,,,,,,,,,,,,,,
,,7,1.824,7,1.824,0,1,1,71,1,187,cactus,microwave,,88555,001,2022-04-26_18h28.36.332,SPAMnetsValid,2021.1.4,MacIntel,55.55555556,,,,,,,,,,,,,,,,,,,,,,,,,,,,,,,,,,,,,,,,,,,,,,,,,,,,,,,,,,,,,,,,,,,,,,,,,,,,,,,,,,
,,2,1.475,2,1.475,0,2,2,77,1,172,kitchen,melon,,88555,001,2022-04-26_18h28.36.332,SPAMnetsValid,2021.1.4,MacIntel,55.55555556,,,,,,,,,,,,,,,,,,,,,,,,,,,,,,,,,,,,,,,,,,,,,,,,,,,,,,,,,,,,,,,,,,,,,,,,,,,,,,,,,,
,,7,1.208,7,1.208,0,3,3,87,1,114,cookie,strawberry,,88555,001,2022-04-26_18h28.36.332,SPAMnetsValid,2021.1.4,MacIntel,55.55555556,,,,,,,,,,,,,,,,,,,,,,,,,,,,,,,,,,,,,,,,,,,,,,,,,,,,,,,,,,,,,,,,,,,,,,,,,,,,,,,,,,
,,2,0.975,2,0.975,0,4,4,12,1,162,microwave,tomato,,88555,001,2022-04-26_18h28.36.332,SPAMnetsValid,2021.1.4,MacIntel,55.55555556,,,,,,,,,,,,,,,,,,,,,,,,,,,,,,,,,,,,,,,,,,,,,,,,,,,,,,,,,,,,,,,,,,,,,,,,,,,,,,,,,,
,,8,0.943,8,0.943,0,5,5,55,1,143,pretzel,rose,,88555,001,2022-04-26_18h28.36.332,SPAMnetsValid,2021.1.4,MacIntel,55.55555556,,,,,,,,,,,,,,,,,,,,,,,,,,,,,,,,,,,,,,,,,,,,,,,,,,,,,,,,,,,,,,,,,,,,,,,,,,,,,,,,,,
,,3,1.042,3,1.042,0,6,6,76,1,102,chocolate,refrigerator,,88555,001,2022-04-26_18h28.36.332,SPAMnetsValid,2021.1.4,MacIntel,55.55555556,,,,,,,,,,,,,,,,,,,,,,,,,,,,,,,,,,,,,,,,,,,,,,,,,,,,,,,,,,,,,,,,,,,,,,,,,,,,,,,,,,
,,7,1.291,7,1.291,0,7,7,82,1,98,pretzel,strawberry,,88555,001,2022-04-26_18h28.36.332,SPAMnetsValid,2021.1.4,MacIntel,55.55555556,,,,,,,,,,,,,,,,,,,,,,,,,,,,,,,,,,,,,,,,,,,,,,,,,,,,,,,,,,,,,,,,,,,,,,,,,,,,,,,,,,
,,7,0.914,7,0.914,0,8,8,30,1,125,carrot,tree,,88555,001,2022-04-26_18h28.36.332,SPAMnetsValid,2021.1.4,MacIntel,55.55555556,,,,,,,,,,,,,,,,,,,,,,,,,,,,,,,,,,,,,,,,,,,,,,,,,,,,,,,,,,,,,,,,,,,,,,,,,,,,,,,,,,
,,1,1.043,1,1.043,0,9,9,49,1,152,cactus,strawberry,,88555,001,2022-04-26_18h28.36.332,SPAMnetsValid,2021.1.4,MacIntel,55.55555556,,,,,,,,,,,,,,,,,,,,,,,,,,,,,,,,,,,,,,,,,,,,,,,,,,,,,,,,,,,,,,,,,,,,,,,,,,,,,,,,,,
,,3,0.692,3,0.692,0,10,10,92,1,170,cookie,microwave,,88555,001,2022-04-26_18h28.36.332,SPAMnetsValid,2021.1.4,MacIntel,55.55555556,,,,,,,,,,,,,,,,,,,,,,,,,,,,,,,,,,,,,,,,,,,,,,,,,,,,,,,,,,,,,,,,,,,,,,,,,,,,,,,,,,
,,7,1.569,7,1.569,0,11,11,21,1,159,cookie,flower,,88555,001,2022-04-26_18h28.36.332,SPAMnetsValid,2021.1.4,MacIntel,55.55555556,,,,,,,,,,,,,,,,,,,,,,,,,,,,,,,,,,,,,,,,,,,,,,,,,,,,,,,,,,,,,,,,,,,,,,,,,,,,,,,,,,
,,3,1.092,3,1.092,0,12,12,9,1,176,cactus,tomato,,88555,001,2022-04-26_18h28.36.332,SPAMnetsValid,2021.1.4,MacIntel,55.55555556,,,,,,,,,,,,,,,,,,,,,,,,,,,,,,,,,,,,,,,,,,,,,,,,,,,,,,,,,,,,,,,,,,,,,,,,,,,,,,,,,,
,,3,0.711,3,0.711,0,13,13,95,1,121,broom,microwave,,88555,001,2022-04-26_18h28.36.332,SPAMnetsValid,2021.1.4,MacIntel,55.55555556,,,,,,,,,,,,,,,,,,,,,,,,,,,,,,,,,,,,,,,,,,,,,,,,,,,,,,,,,,,,,,,,,,,,,,,,,,,,,,,,,,
,,7,1.126,7,1.126,0,14,14,78,1,132,broom,tree,,88555,001,2022-04-26_18h28.36.332,SPAMnetsValid,2021.1.4,MacIntel,55.55555556,,,,,,,,,,,,,,,,,,,,,,,,,,,,,,,,,,,,,,,,,,,,,,,,,,,,,,,,,,,,,,,,,,,,,,,,,,,,,,,,,,
,,4,0.76,4,0.76,0,15,15,66,1,150,microwave,refrigerator,,88555,001,2022-04-26_18h28.36.332,SPAMnetsValid,2021.1.4,MacIntel,55.55555556,,,,,,,,,,,,,,,,,,,,,,,,,,,,,,,,,,,,,,,,,,,,,,,,,,,,,,,,,,,,,,,,,,,,,,,,,,,,,,,,,,
,,3,1.592,3,1.592,0,16,16,4,1,109,broom,strawberry,,88555,001,2022-04-26_18h28.36.332,SPAMnetsValid,2021.1.4,MacIntel,55.55555556,,,,,,,,,,,,,,,,,,,,,,,,,,,,,,,,,,,,,,,,,,,,,,,,,,,,,,,,,,,,,,,,,,,,,,,,,,,,,,,,,,
,,3,0.809,3,0.809,0,17,17,93,1,134,carrot,flower,,88555,001,2022-04-26_18h28.36.332,SPAMnetsValid,2021.1.4,MacIntel,55.55555556,,,,,,,,,,,,,,,,,,,,,,,,,,,,,,,,,,,,,,,,,,,,,,,,,,,,,,,,,,,,,,,,,,,,,,,,,,,,,,,,,,
,,3,0.392,3,0.392,0,18,18,16,1,111,carrot,microwave,,88555,001,2022-04-26_18h28.36.332,SPAMnetsValid,2021.1.4,MacIntel,55.55555556,,,,,,,,,,,,,,,,,,,,,,,,,,,,,,,,,,,,,,,,,,,,,,,,,,,,,,,,,,,,,,,,,,,,,,,,,,,,,,,,,,
,,1,0.643,1,0.643,0,19,19,39,1,112,cake,carrot,,88555,001,2022-04-26_18h28.36.332,SPAMnetsValid,2021.1.4,MacIntel,55.55555556,,,,,,,,,,,,,,,,,,,,,,,,,,,,,,,,,,,,,,,,,,,,,,,,,,,,,,,,,,,,,,,,,,,,,,,,,,,,,,,,,,
,,8,0.76,8,0.76,0,20,20,70,1,141,melon,tomato,,88555,001,2022-04-26_18h28.36.332,SPAMnetsValid,2021.1.4,MacIntel,55.55555556,,,,,,,,,,,,,,,,,,,,,,,,,,,,,,,,,,,,,,,,,,,,,,,,,,,,,,,,,,,,,,,,,,,,,,,,,,,,,,,,,,
,,3,1.158,3,1.158,0,21,21,69,1,124,oven,refrigerator,,88555,001,2022-04-26_18h28.36.332,SPAMnetsValid,2021.1.4,MacIntel,55.55555556,,,,,,,,,,,,,,,,,,,,,,,,,,,,,,,,,,,,,,,,,,,,,,,,,,,,,,,,,,,,,,,,,,,,,,,,,,,,,,,,,,
,,7,0.693,7,0.693,0,22,22,54,1,101,cactus,kitchen,,88555,001,2022-04-26_18h28.36.332,SPAMnetsValid,2021.1.4,MacIntel,55.55555556,,,,,,,,,,,,,,,,,,,,,,,,,,,,,,,,,,,,,,,,,,,,,,,,,,,,,,,,,,,,,,,,,,,,,,,,,,,,,,,,,,
,,3,0.792,3,0.792,0,23,23,65,1,160,cookie,kitchen,,88555,001,2022-04-26_18h28.36.332,SPAMnetsValid,2021.1.4,MacIntel,55.55555556,,,,,,,,,,,,,,,,,,,,,,,,,,,,,,,,,,,,,,,,,,,,,,,,,,,,,,,,,,,,,,,,,,,,,,,,,,,,,,,,,,
,,8,0.776,8,0.776,0,24,24,58,1,144,cake,garden,,88555,001,2022-04-26_18h28.36.332,SPAMnetsValid,2021.1.4,MacIntel,55.55555556,,,,,,,,,,,,,,,,,,,,,,,,,,,,,,,,,,,,,,,,,,,,,,,,,,,,,,,,,,,,,,,,,,,,,,,,,,,,,,,,,,
,,1,1.843,1,1.843,0,25,25,38,1,155,carrot,cookie,,88555,001,2022-04-26_18h28.36.332,SPAMnetsValid,2021.1.4,MacIntel,55.55555556,,,,,,,,,,,,,,,,,,,,,,,,,,,,,,,,,,,,,,,,,,,,,,,,,,,,,,,,,,,,,,,,,,,,,,,,,,,,,,,,,,
,,9,0.86,9,0.86,0,26,26,41,1,175,melon,onion,,88555,001,2022-04-26_18h28.36.332,SPAMnetsValid,2021.1.4,MacIntel,55.55555556,,,,,,,,,,,,,,,,,,,,,,,,,,,,,,,,,,,,,,,,,,,,,,,,,,,,,,,,,,,,,,,,,,,,,,,,,,,,,,,,,,
,,3,1.1,3,1.1,0,27,27,26,1,107,rose,tomato,,88555,001,2022-04-26_18h28.36.332,SPAMnetsValid,2021.1.4,MacIntel,55.55555556,,,,,,,,,,,,,,,,,,,,,,,,,,,,,,,,,,,,,,,,,,,,,,,,,,,,,,,,,,,,,,,,,,,,,,,,,,,,,,,,,,
,,8,0.61,8,0.61,0,28,28,11,1,117,melon,strawberry,,88555,001,2022-04-26_18h28.36.332,SPAMnetsValid,2021.1.4,MacIntel,55.55555556,,,,,,,,,,,,,,,,,,,,,,,,,,,,,,,,,,,,,,,,,,,,,,,,,,,,,,,,,,,,,,,,,,,,,,,,,,,,,,,,,,
,,2,0.534,2,0.534,0,29,29,24,1,169,onion,yogurt,,88555,001,2022-04-26_18h28.36.332,SPAMnetsValid,2021.1.4,MacIntel,55.55555556,,,,,,,,,,,,,,,,,,,,,,,,,,,,,,,,,,,,,,,,,,,,,,,,,,,,,,,,,,,,,,,,,,,,,,,,,,,,,,,,,,
,,7,0.56,7,0.56,0,30,30,31,1,156,melon,rose,,88555,001,2022-04-26_18h28.36.332,SPAMnetsValid,2021.1.4,MacIntel,55.55555556,,,,,,,,,,,,,,,,,,,,,,,,,,,,,,,,,,,,,,,,,,,,,,,,,,,,,,,,,,,,,,,,,,,,,,,,,,,,,,,,,,
,,3,0.602,3,0.602,0,31,31,85,1,115,refrigerator,tomato,,88555,001,2022-04-26_18h28.36.332,SPAMnetsValid,2021.1.4,MacIntel,55.55555556,,,,,,,,,,,,,,,,,,,,,,,,,,,,,,,,,,,,,,,,,,,,,,,,,,,,,,,,,,,,,,,,,,,,,,,,,,,,,,,,,,
,,7,0.51,7,0.51,0,32,32,1,1,173,kitchen,tomato,,88555,001,2022-04-26_18h28.36.332,SPAMnetsValid,2021.1.4,MacIntel,55.55555556,,,,,,,,,,,,,,,,,,,,,,,,,,,,,,,,,,,,,,,,,,,,,,,,,,,,,,,,,,,,,,,,,,,,,,,,,,,,,,,,,,
,,3,0.509,3,0.509,0,33,33,84,1,130,microwave,yogurt,,88555,001,2022-04-26_18h28.36.332,SPAMnetsValid,2021.1.4,MacIntel,55.55555556,,,,,,,,,,,,,,,,,,,,,,,,,,,,,,,,,,,,,,,,,,,,,,,,,,,,,,,,,,,,,,,,,,,,,,,,,,,,,,,,,,
,,6,0.525,6,0.525,0,34,34,67,1,96,oven,strawberry,,88555,001,2022-04-26_18h28.36.332,SPAMnetsValid,2021.1.4,MacIntel,55.55555556,,,,,,,,,,,,,,,,,,,,,,,,,,,,,,,,,,,,,,,,,,,,,,,,,,,,,,,,,,,,,,,,,,,,,,,,,,,,,,,,,,
,,5,1.925,5,1.925,0,35,35,64,1,157,refrigerator,rose,,88555,001,2022-04-26_18h28.36.332,SPAMnetsValid,2021.1.4,MacIntel,55.55555556,,,,,,,,,,,,,,,,,,,,,,,,,,,,,,,,,,,,,,,,,,,,,,,,,,,,,,,,,,,,,,,,,,,,,,,,,,,,,,,,,,
,,7,0.692,7,0.692,0,36,36,43,1,185,cactus,rose,,88555,001,2022-04-26_18h28.36.332,SPAMnetsValid,2021.1.4,MacIntel,55.55555556,,,,,,,,,,,,,,,,,,,,,,,,,,,,,,,,,,,,,,,,,,,,,,,,,,,,,,,,,,,,,,,,,,,,,,,,,,,,,,,,,,
,,2,0.694,2,0.694,0,37,37,6,1,151,microwave,onion,,88555,001,2022-04-26_18h28.36.332,SPAMnetsValid,2021.1.4,MacIntel,55.55555556,,,,,,,,,,,,,,,,,,,,,,,,,,,,,,,,,,,,,,,,,,,,,,,,,,,,,,,,,,,,,,,,,,,,,,,,,,,,,,,,,,
,,6,0.542,6,0.542,0,38,38,23,1,148,flower,melon,,88555,001,2022-04-26_18h28.36.332,SPAMnetsValid,2021.1.4,MacIntel,55.55555556,,,,,,,,,,,,,,,,,,,,,,,,,,,,,,,,,,,,,,,,,,,,,,,,,,,,,,,,,,,,,,,,,,,,,,,,,,,,,,,,,,
,,4,0.575,4,0.575,0,39,39,96,1,136,chocolate,microwave,,88555,001,2022-04-26_18h28.36.332,SPAMnetsValid,2021.1.4,MacIntel,55.55555556,,,,,,,,,,,,,,,,,,,,,,,,,,,,,,,,,,,,,,,,,,,,,,,,,,,,,,,,,,,,,,,,,,,,,,,,,,,,,,,,,,
,,7,0.526,7,0.526,0,40,40,32,1,182,flower,refrigerator,,88555,001,2022-04-26_18h28.36.332,SPAMnetsValid,2021.1.4,MacIntel,55.55555556,,,,,,,,,,,,,,,,,,,,,,,,,,,,,,,,,,,,,,,,,,,,,,,,,,,,,,,,,,,,,,,,,,,,,,,,,,,,,,,,,,
,,3,0.527,3,0.527,0,41,41,45,1,179,broom,oven,,88555,001,2022-04-26_18h28.36.332,SPAMnetsValid,2021.1.4,MacIntel,55.55555556,,,,,,,,,,,,,,,,,,,,,,,,,,,,,,,,,,,,,,,,,,,,,,,,,,,,,,,,,,,,,,,,,,,,,,,,,,,,,,,,,,
,,6,0.611,6,0.611,0,42,42,28,1,154,strawberry,yogurt,,88555,001,2022-04-26_18h28.36.332,SPAMnetsValid,2021.1.4,MacIntel,55.55555556,,,,,,,,,,,,,,,,,,,,,,,,,,,,,,,,,,,,,,,,,,,,,,,,,,,,,,,,,,,,,,,,,,,,,,,,,,,,,,,,,,
,,2,1.027,2,1.027,0,43,43,15,1,145,cactus,yogurt,,88555,001,2022-04-26_18h28.36.332,SPAMnetsValid,2021.1.4,MacIntel,55.55555556,,,,,,,,,,,,,,,,,,,,,,,,,,,,,,,,,,,,,,,,,,,,,,,,,,,,,,,,,,,,,,,,,,,,,,,,,,,,,,,,,,
,,8,0.592,8,0.592,0,44,44,44,1,116,cake,chocolate,,88555,001,2022-04-26_18h28.36.332,SPAMnetsValid,2021.1.4,MacIntel,55.55555556,,,,,,,,,,,,,,,,,,,,,,,,,,,,,,,,,,,,,,,,,,,,,,,,,,,,,,,,,,,,,,,,,,,,,,,,,,,,,,,,,,
,,3,0.576,3,0.576,0,45,45,36,1,161,kitchen,pretzel,,88555,001,2022-04-26_18h28.36.332,SPAMnetsValid,2021.1.4,MacIntel,55.55555556,,,,,,,,,,,,,,,,,,,,,,,,,,,,,,,,,,,,,,,,,,,,,,,,,,,,,,,,,,,,,,,,,,,,,,,,,,,,,,,,,,
,,6,0.559,6,0.559,0,46,46,51,1,168,cactus,flower,,88555,001,2022-04-26_18h28.36.332,SPAMnetsValid,2021.1.4,MacIntel,55.55555556,,,,,,,,,,,,,,,,,,,,,,,,,,,,,,,,,,,,,,,,,,,,,,,,,,,,,,,,,,,,,,,,,,,,,,,,,,,,,,,,,,
,,3,0.859,3,0.859,0,47,47,22,1,142,garden,tree,,88555,001,2022-04-26_18h28.36.332,SPAMnetsValid,2021.1.4,MacIntel,55.55555556,,,,,,,,,,,,,,,,,,,,,,,,,,,,,,,,,,,,,,,,,,,,,,,,,,,,,,,,,,,,,,,,,,,,,,,,,,,,,,,,,,
,,8,0.594,8,0.594,0,48,48,17,1,99,garden,melon,,88555,001,2022-04-26_18h28.36.332,SPAMnetsValid,2021.1.4,MacIntel,55.55555556,,,,,,,,,,,,,,,,,,,,,,,,,,,,,,,,,,,,,,,,,,,,,,,,,,,,,,,,,,,,,,,,,,,,,,,,,,,,,,,,,,
,,4,0.626,4,0.626,0,49,49,86,1,193,melon,melon,CHECK,88555,001,2022-04-26_18h28.36.332,SPAMnetsValid,2021.1.4,MacIntel,55.55555556,,,,,,,,,,,,,,,,,,,,,,,,,,,,,,,,,,,,,,,,,,,,,,,,,,,,,,,,,,,,,,,,,,,,,,,,,,,,,,,,,,
,,6,0.643,6,0.643,0,50,50,74,1,128,melon,microwave,,88555,001,2022-04-26_18h28.36.332,SPAMnetsValid,2021.1.4,MacIntel,55.55555556,,,,,,,,,,,,,,,,,,,,,,,,,,,,,,,,,,,,,,,,,,,,,,,,,,,,,,,,,,,,,,,,,,,,,,,,,,,,,,,,,,
,,2,0.659,2,0.659,0,51,51,34,1,153,carrot,pretzel,,88555,001,2022-04-26_18h28.36.332,SPAMnetsValid,2021.1.4,MacIntel,55.55555556,,,,,,,,,,,,,,,,,,,,,,,,,,,,,,,,,,,,,,,,,,,,,,,,,,,,,,,,,,,,,,,,,,,,,,,,,,,,,,,,,,
,,6,0.693,6,0.693,0,52,52,56,1,113,refrigerator,strawberry,,88555,001,2022-04-26_18h28.36.332,SPAMnetsValid,2021.1.4,MacIntel,55.55555556,,,,,,,,,,,,,,,,,,,,,,,,,,,,,,,,,,,,,,,,,,,,,,,,,,,,,,,,,,,,,,,,,,,,,,,,,,,,,,,,,,
,,2,0.543,2,0.543,0,53,53,89,1,140,cookie,refrigerator,,88555,001,2022-04-26_18h28.36.332,SPAMnetsValid,2021.1.4,MacIntel,55.55555556,,,,,,,,,,,,,,,,,,,,,,,,,,,,,,,,,,,,,,,,,,,,,,,,,,,,,,,,,,,,,,,,,,,,,,,,,,,,,,,,,,
,,9,0.592,9,0.592,0,54,54,61,1,138,flower,rose,,88555,001,2022-04-26_18h28.36.332,SPAMnetsValid,2021.1.4,MacIntel,55.55555556,,,,,,,,,,,,,,,,,,,,,,,,,,,,,,,,,,,,,,,,,,,,,,,,,,,,,,,,,,,,,,,,,,,,,,,,,,,,,,,,,,
,,4,1.025,4,1.025,0,55,55,20,1,149,broom,tomato,,88555,001,2022-04-26_18h28.36.332,SPAMnetsValid,2021.1.4,MacIntel,55.55555556,,,,,,,,,,,,,,,,,,,,,,,,,,,,,,,,,,,,,,,,,,,,,,,,,,,,,,,,,,,,,,,,,,,,,,,,,,,,,,,,,,
,,7,0.526,7,0.526,0,56,56,18,1,119,strawberry,tree,,88555,001,2022-04-26_18h28.36.332,SPAMnetsValid,2021.1.4,MacIntel,55.55555556,,,,,,,,,,,,,,,,,,,,,,,,,,,,,,,,,,,,,,,,,,,,,,,,,,,,,,,,,,,,,,,,,,,,,,,,,,,,,,,,,,
,,4,0.492,4,0.492,0,57,57,80,1,146,pretzel,tree,,88555,001,2022-04-26_18h28.36.332,SPAMnetsValid,2021.1.4,MacIntel,55.55555556,,,,,,,,,,,,,,,,,,,,,,,,,,,,,,,,,,,,,,,,,,,,,,,,,,,,,,,,,,,,,,,,,,,,,,,,,,,,,,,,,,
,,7,0.511,7,0.511,0,58,58,75,1,178,cactus,carrot,,88555,001,2022-04-26_18h28.36.332,SPAMnetsValid,2021.1.4,MacIntel,55.55555556,,,,,,,,,,,,,,,,,,,,,,,,,,,,,,,,,,,,,,,,,,,,,,,,,,,,,,,,,,,,,,,,,,,,,,,,,,,,,,,,,,
,,3,0.592,3,0.592,0,59,59,40,1,165,onion,rose,,88555,001,2022-04-26_18h28.36.332,SPAMnetsValid,2021.1.4,MacIntel,55.55555556,,,,,,,,,,,,,,,,,,,,,,,,,,,,,,,,,,,,,,,,,,,,,,,,,,,,,,,,,,,,,,,,,,,,,,,,,,,,,,,,,,
,,7,0.56,7,0.56,0,60,60,60,1,122,flower,garden,,88555,001,2022-04-26_18h28.36.332,SPAMnetsValid,2021.1.4,MacIntel,55.55555556,,,,,,,,,,,,,,,,,,,,,,,,,,,,,,,,,,,,,,,,,,,,,,,,,,,,,,,,,,,,,,,,,,,,,,,,,,,,,,,,,,
,,3,0.693,3,0.693,0,61,61,0,1,106,cake,strawberry,,88555,001,2022-04-26_18h28.36.332,SPAMnetsValid,2021.1.4,MacIntel,55.55555556,,,,,,,,,,,,,,,,,,,,,,,,,,,,,,,,,,,,,,,,,,,,,,,,,,,,,,,,,,,,,,,,,,,,,,,,,,,,,,,,,,
,,3,0.713,3,0.713,0,62,62,59,1,164,cookie,garden,,88555,001,2022-04-26_18h28.36.332,SPAMnetsValid,2021.1.4,MacIntel,55.55555556,,,,,,,,,,,,,,,,,,,,,,,,,,,,,,,,,,,,,,,,,,,,,,,,,,,,,,,,,,,,,,,,,,,,,,,,,,,,,,,,,,
,,3,0.776,3,0.776,0,63,63,53,1,177,chocolate,strawberry,,88555,001,2022-04-26_18h28.36.332,SPAMnetsValid,2021.1.4,MacIntel,55.55555556,,,,,,,,,,,,,,,,,,,,,,,,,,,,,,,,,,,,,,,,,,,,,,,,,,,,,,,,,,,,,,,,,,,,,,,,,,,,,,,,,,
,,3,0.293,3,0.293,0,64,64,8,1,97,chocolate,kitchen,,88555,001,2022-04-26_18h28.36.332,SPAMnetsValid,2021.1.4,MacIntel,55.55555556,,,,,,,,,,,,,,,,,,,,,,,,,,,,,,,,,,,,,,,,,,,,,,,,,,,,,,,,,,,,,,,,,,,,,,,,,,,,,,,,,,
,,3,0.209,3,0.209,0,65,65,3,1,129,cactus,refrigerator,,88555,001,2022-04-26_18h28.36.332,SPAMnetsValid,2021.1.4,MacIntel,55.55555556,,,,,,,,,,,,,,,,,,,,,,,,,,,,,,,,,,,,,,,,,,,,,,,,,,,,,,,,,,,,,,,,,,,,,,,,,,,,,,,,,,
,,3,0.176,3,0.176,0,66,66,68,1,180,tree,yogurt,,88555,001,2022-04-26_18h28.36.332,SPAMnetsValid,2021.1.4,MacIntel,55.55555556,,,,,,,,,,,,,,,,,,,,,,,,,,,,,,,,,,,,,,,,,,,,,,,,,,,,,,,,,,,,,,,,,,,,,,,,,,,,,,,,,,
,,2,0.71,2,0.71,0,67,67,33,1,131,cactus,garden,,88555,001,2022-04-26_18h28.36.332,SPAMnetsValid,2021.1.4,MacIntel,55.55555556,,,,,,,,,,,,,,,,,,,,,,,,,,,,,,,,,,,,,,,,,,,,,,,,,,,,,,,,,,,,,,,,,,,,,,,,,,,,,,,,,,
,,2,0.197,2,0.197,0,68,68,81,1,104,garden,microwave,,88555,001,2022-04-26_18h28.36.332,SPAMnetsValid,2021.1.4,MacIntel,55.55555556,,,,,,,,,,,,,,,,,,,,,,,,,,,,,,,,,,,,,,,,,,,,,,,,,,,,,,,,,,,,,,,,,,,,,,,,,,,,,,,,,,
,,2,0.163,2,0.163,0,69,69,90,1,190,microwave,strawberry,,88555,001,2022-04-26_18h28.36.332,SPAMnetsValid,2021.1.4,MacIntel,55.55555556,,,,,,,,,,,,,,,,,,,,,,,,,,,,,,,,,,,,,,,,,,,,,,,,,,,,,,,,,,,,,,,,,,,,,,,,,,,,,,,,,,
,,2,0.18,2,0.18,0,70,70,10,1,118,chocolate,oven,,88555,001,2022-04-26_18h28.36.332,SPAMnetsValid,2021.1.4,MacIntel,55.55555556,,,,,,,,,,,,,,,,,,,,,,,,,,,,,,,,,,,,,,,,,,,,,,,,,,,,,,,,,,,,,,,,,,,,,,,,,,,,,,,,,,
,,7,0.809,7,0.809,0,71,71,79,1,103,pretzel,tomato,,88555,001,2022-04-26_18h28.36.332,SPAMnetsValid,2021.1.4,MacIntel,55.55555556,,,,,,,,,,,,,,,,,,,,,,,,,,,,,,,,,,,,,,,,,,,,,,,,,,,,,,,,,,,,,,,,,,,,,,,,,,,,,,,,,,
,,7,0.292,7,0.292,0,72,72,72,1,181,carrot,kitchen,,88555,001,2022-04-26_18h28.36.332,SPAMnetsValid,2021.1.4,MacIntel,55.55555556,,,,,,,,,,,,,,,,,,,,,,,,,,,,,,,,,,,,,,,,,,,,,,,,,,,,,,,,,,,,,,,,,,,,,,,,,,,,,,,,,,
,,7,0.143,7,0.143,0,73,73,57,1,127,cactus,chocolate,,88555,001,2022-04-26_18h28.36.332,SPAMnetsValid,2021.1.4,MacIntel,55.55555556,,,,,,,,,,,,,,,,,,,,,,,,,,,,,,,,,,,,,,,,,,,,,,,,,,,,,,,,,,,,,,,,,,,,,,,,,,,,,,,,,,
,,7,0.176,7,0.176,0,74,74,47,1,167,carrot,garden,,88555,001,2022-04-26_18h28.36.332,SPAMnetsValid,2021.1.4,MacIntel,55.55555556,,,,,,,,,,,,,,,,,,,,,,,,,,,,,,,,,,,,,,,,,,,,,,,,,,,,,,,,,,,,,,,,,,,,,,,,,,,,,,,,,,
,,7,0.108,7,0.108,0,75,75,19,1,183,cake,rose,,88555,001,2022-04-26_18h28.36.332,SPAMnetsValid,2021.1.4,MacIntel,55.55555556,,,,,,,,,,,,,,,,,,,,,,,,,,,,,,,,,,,,,,,,,,,,,,,,,,,,,,,,,,,,,,,,,,,,,,,,,,,,,,,,,,
,,6,0.559,6,0.559,0,76,76,13,1,105,cactus,oven,,88555,001,2022-04-26_18h28.36.332,SPAMnetsValid,2021.1.4,MacIntel,55.55555556,,,,,,,,,,,,,,,,,,,,,,,,,,,,,,,,,,,,,,,,,,,,,,,,,,,,,,,,,,,,,,,,,,,,,,,,,,,,,,,,,,
,,6,0.178,6,0.178,0,77,77,88,1,171,cake,tomato,,88555,001,2022-04-26_18h28.36.332,SPAMnetsValid,2021.1.4,MacIntel,55.55555556,,,,,,,,,,,,,,,,,,,,,,,,,,,,,,,,,,,,,,,,,,,,,,,,,,,,,,,,,,,,,,,,,,,,,,,,,,,,,,,,,,
,,6,0.275,6,0.275,0,78,78,91,1,166,cake,yogurt,,88555,001,2022-04-26_18h28.36.332,SPAMnetsValid,2021.1.4,MacIntel,55.55555556,,,,,,,,,,,,,,,,,,,,,,,,,,,,,,,,,,,,,,,,,,,,,,,,,,,,,,,,,,,,,,,,,,,,,,,,,,,,,,,,,,
,,6,0.193,6,0.193,0,79,79,62,1,189,onion,tree,,88555,001,2022-04-26_18h28.36.332,SPAMnetsValid,2021.1.4,MacIntel,55.55555556,,,,,,,,,,,,,,,,,,,,,,,,,,,,,,,,,,,,,,,,,,,,,,,,,,,,,,,,,,,,,,,,,,,,,,,,,,,,,,,,,,
,,8,0.659,8,0.659,0,80,80,52,1,110,chocolate,cookie,,88555,001,2022-04-26_18h28.36.332,SPAMnetsValid,2021.1.4,MacIntel,55.55555556,,,,,,,,,,,,,,,,,,,,,,,,,,,,,,,,,,,,,,,,,,,,,,,,,,,,,,,,,,,,,,,,,,,,,,,,,,,,,,,,,,
,,8,0.215,8,0.215,0,81,81,14,1,120,microwave,oven,,88555,001,2022-04-26_18h28.36.332,SPAMnetsValid,2021.1.4,MacIntel,55.55555556,,,,,,,,,,,,,,,,,,,,,,,,,,,,,,,,,,,,,,,,,,,,,,,,,,,,,,,,,,,,,,,,,,,,,,,,,,,,,,,,,,
,,8,0.143,8,0.143,0,82,82,48,1,186,kitchen,yogurt,,88555,001,2022-04-26_18h28.36.332,SPAMnetsValid,2021.1.4,MacIntel,55.55555556,,,,,,,,,,,,,,,,,,,,,,,,,,,,,,,,,,,,,,,,,,,,,,,,,,,,,,,,,,,,,,,,,,,,,,,,,,,,,,,,,,
,,4,0.642,4,0.642,0,83,83,63,1,137,microwave,tree,,88555,001,2022-04-26_18h28.36.332,SPAMnetsValid,2021.1.4,MacIntel,55.55555556,,,,,,,,,,,,,,,,,,,,,,,,,,,,,,,,,,,,,,,,,,,,,,,,,,,,,,,,,,,,,,,,,,,,,,,,,,,,,,,,,,
,,4,0.143,4,0.143,0,84,84,46,1,123,cookie,tree,,88555,001,2022-04-26_18h28.36.332,SPAMnetsValid,2021.1.4,MacIntel,55.55555556,,,,,,,,,,,,,,,,,,,,,,,,,,,,,,,,,,,,,,,,,,,,,,,,,,,,,,,,,,,,,,,,,,,,,,,,,,,,,,,,,,
,,2,0.56,2,0.56,0,85,85,42,1,184,oven,pretzel,,88555,001,2022-04-26_18h28.36.332,SPAMnetsValid,2021.1.4,MacIntel,55.55555556,,,,,,,,,,,,,,,,,,,,,,,,,,,,,,,,,,,,,,,,,,,,,,,,,,,,,,,,,,,,,,,,,,,,,,,,,,,,,,,,,,
,,2,0.231,2,0.231,0,86,86,27,1,158,cookie,oven,,88555,001,2022-04-26_18h28.36.332,SPAMnetsValid,2021.1.4,MacIntel,55.55555556,,,,,,,,,,,,,,,,,,,,,,,,,,,,,,,,,,,,,,,,,,,,,,,,,,,,,,,,,,,,,,,,,,,,,,,,,,,,,,,,,,
,,1,1.427,1,1.427,0,87,87,5,1,108,carrot,chocolate,,88555,001,2022-04-26_18h28.36.332,SPAMnetsValid,2021.1.4,MacIntel,55.55555556,,,,,,,,,,,,,,,,,,,,,,,,,,,,,,,,,,,,,,,,,,,,,,,,,,,,,,,,,,,,,,,,,,,,,,,,,,,,,,,,,,
,,3,0.742,3,0.742,0,88,88,83,1,100,garden,tomato,,88555,001,2022-04-26_18h28.36.332,SPAMnetsValid,2021.1.4,MacIntel,55.55555556,,,,,,,,,,,,,,,,,,,,,,,,,,,,,,,,,,,,,,,,,,,,,,,,,,,,,,,,,,,,,,,,,,,,,,,,,,,,,,,,,,
,,6,0.876,6,0.876,0,89,89,37,1,139,carrot,strawberry,,88555,001,2022-04-26_18h28.36.332,SPAMnetsValid,2021.1.4,MacIntel,55.55555556,,,,,,,,,,,,,,,,,,,,,,,,,,,,,,,,,,,,,,,,,,,,,,,,,,,,,,,,,,,,,,,,,,,,,,,,,,,,,,,,,,
,,6,0.891,6,0.891,0,90,90,35,1,147,cake,refrigerator,,88555,001,2022-04-26_18h28.36.332,SPAMnetsValid,2021.1.4,MacIntel,55.55555556,,,,,,,,,,,,,,,,,,,,,,,,,,,,,,,,,,,,,,,,,,,,,,,,,,,,,,,,,,,,,,,,,,,,,,,,,,,,,,,,,,
,,7,0.494,7,0.494,0,91,91,29,1,163,melon,refrigerator,,88555,001,2022-04-26_18h28.36.332,SPAMnetsValid,2021.1.4,MacIntel,55.55555556,,,,,,,,,,,,,,,,,,,,,,,,,,,,,,,,,,,,,,,,,,,,,,,,,,,,,,,,,,,,,,,,,,,,,,,,,,,,,,,,,,
,,8,0.559,8,0.559,0,92,92,73,1,135,carrot,oven,,88555,001,2022-04-26_18h28.36.332,SPAMnetsValid,2021.1.4,MacIntel,55.55555556,,,,,,,,,,,,,,,,,,,,,,,,,,,,,,,,,,,,,,,,,,,,,,,,,,,,,,,,,,,,,,,,,,,,,,,,,,,,,,,,,,
,,6,0.792,6,0.792,0,93,93,25,1,194,cactus,cactus,CHECK,88555,001,2022-04-26_18h28.36.332,SPAMnetsValid,2021.1.4,MacIntel,55.55555556,,,,,,,,,,,,,,,,,,,,,,,,,,,,,,,,,,,,,,,,,,,,,,,,,,,,,,,,,,,,,,,,,,,,,,,,,,,,,,,,,,
,,4,0.534,4,0.534,0,94,94,50,1,126,kitchen,tree,,88555,001,2022-04-26_18h28.36.332,SPAMnetsValid,2021.1.4,MacIntel,55.55555556,,,,,,,,,,,,,,,,,,,,,,,,,,,,,,,,,,,,,,,,,,,,,,,,,,,,,,,,,,,,,,,,,,,,,,,,,,,,,,,,,,
,,7,0.61,7,0.61,0,95,95,2,1,174,cake,pretzel,,88555,001,2022-04-26_18h28.36.332,SPAMnetsValid,2021.1.4,MacIntel,55.55555556,,,,,,,,,,,,,,,,,,,,,,,,,,,,,,,,,,,,,,,,,,,,,,,,,,,,,,,,,,,,,,,,,,,,,,,,,,,,,,,,,,
,,5,0.593,5,0.593,0,96,96,94,1,133,cake,flower,,88555,001,2022-04-26_18h28.36.332,SPAMnetsValid,2021.1.4,MacIntel,55.55555556,,,,,,,,,,,,,,,,,,,,,,,,,,,,,,,,,,,,,,,,,,,,,,,,,,,,,,,,,,,,,,,,,,,,,,,,,,,,,,,,,,
,,,,,,,,,,,,,,,88555,001,2022-04-26_18h28.36.332,SPAMnetsValid,2021.1.4,MacIntel,55.55555556,0,0,0,0,1,,,,,,,,,,,,,,,,,,,,,,,,,,,,,,,,,,,,,,,,,,,,,,,,,,,,,,,,,,,,,,,,,,,,,,,,,,,,,
,,,,,,,,,,,,,,,88555,001,2022-04-26_18h28.36.332,SPAMnetsValid,2021.1.4,MacIntel,55.55555556,,,,,,0,0,0,1,1,0,1,,,,,,,,,,,,,,,,,,,,,,,,,,,,,,,,,,,,,,,,,,,,,,,,,,,,,,,,,,,,,,,,,,,,,,
,,,,7,1.433,,,,,,92,broom,flower,,88555,001,2022-04-26_18h28.36.332,SPAMnetsValid,2021.1.4,MacIntel,55.55555556,,,,,,,,,,,,,7,1.433,0,0,0,88,1,,,,,,,,,,,,,,,,,,,,,,,,,,,,,,,,,,,,,,,,,,,,,,,,,,,,,,,,,,,,,,,
,,,,2,2.191,,,,,,60,cactus,onion,,88555,001,2022-04-26_18h28.36.332,SPAMnetsValid,2021.1.4,MacIntel,55.55555556,,,,,,,,,,,,,2,2.191,0,1,1,81,1,,,,,,,,,,,,,,,,,,,,,,,,,,,,,,,,,,,,,,,,,,,,,,,,,,,,,,,,,,,,,,,
,,,,2,1.394,,,,,,24,cookie,tomato,,88555,001,2022-04-26_18h28.36.332,SPAMnetsValid,2021.1.4,MacIntel,55.55555556,,,,,,,,,,,,,2,1.394,0,2,2,68,1,,,,,,,,,,,,,,,,,,,,,,,,,,,,,,,,,,,,,,,,,,,,,,,,,,,,,,,,,,,,,,,
,,,,2,0.959,,,,,,86,oven,rose,,88555,001,2022-04-26_18h28.36.332,SPAMnetsValid,2021.1.4,MacIntel,55.55555556,,,,,,,,,,,,,2,0.959,0,3,3,79,1,,,,,,,,,,,,,,,,,,,,,,,,,,,,,,,,,,,,,,,,,,,,,,,,,,,,,,,,,,,,,,,
,,,,2,0.96,,,,,,23,flower,microwave,,88555,001,2022-04-26_18h28.36.332,SPAMnetsValid,2021.1.4,MacIntel,55.55555556,,,,,,,,,,,,,2,0.96,0,4,4,25,1,,,,,,,,,,,,,,,,,,,,,,,,,,,,,,,,,,,,,,,,,,,,,,,,,,,,,,,,,,,,,,,
,,,,2,0.728,,,,,,93,kitchen,oven,,88555,001,2022-04-26_18h28.36.332,SPAMnetsValid,2021.1.4,MacIntel,55.55555556,,,,,,,,,,,,,2,0.728,0,5,5,82,1,,,,,,,,,,,,,,,,,,,,,,,,,,,,,,,,,,,,,,,,,,,,,,,,,,,,,,,,,,,,,,,
,,,,2,0.63,,,,,,52,carrot,tomato,,88555,001,2022-04-26_18h28.36.332,SPAMnetsValid,2021.1.4,MacIntel,55.55555556,,,,,,,,,,,,,2,0.63,0,6,6,95,1,,,,,,,,,,,,,,,,,,,,,,,,,,,,,,,,,,,,,,,,,,,,,,,,,,,,,,,,,,,,,,,
,,,,2,0.464,,,,,,6,garden,onion,,88555,001,2022-04-26_18h28.36.332,SPAMnetsValid,2021.1.4,MacIntel,55.55555556,,,,,,,,,,,,,2,0.464,0,7,7,83,1,,,,,,,,,,,,,,,,,,,,,,,,,,,,,,,,,,,,,,,,,,,,,,,,,,,,,,,,,,,,,,,
,,,,2,0.326,,,,,,51,onion,strawberry,,88555,001,2022-04-26_18h28.36.332,SPAMnetsValid,2021.1.4,MacIntel,55.55555556,,,,,,,,,,,,,2,0.326,0,8,8,86,1,,,,,,,,,,,,,,,,,,,,,,,,,,,,,,,,,,,,,,,,,,,,,,,,,,,,,,,,,,,,,,,
,,,,2,0.526,,,,,,88,cactus,melon,,88555,001,2022-04-26_18h28.36.332,SPAMnetsValid,2021.1.4,MacIntel,55.55555556,,,,,,,,,,,,,2,0.526,0,9,9,38,1,,,,,,,,,,,,,,,,,,,,,,,,,,,,,,,,,,,,,,,,,,,,,,,,,,,,,,,,,,,,,,,
,,,,2,0.164,,,,,,79,garden,strawberry,,88555,001,2022-04-26_18h28.36.332,SPAMnetsValid,2021.1.4,MacIntel,55.55555556,,,,,,,,,,,,,2,0.164,0,10,10,87,1,,,,,,,,,,,,,,,,,,,,,,,,,,,,,,,,,,,,,,,,,,,,,,,,,,,,,,,,,,,,,,,
,,,,2,0.144,,,,,,87,carrot,yogurt,,88555,001,2022-04-26_18h28.36.332,SPAMnetsValid,2021.1.4,MacIntel,55.55555556,,,,,,,,,,,,,2,0.144,0,11,11,6,1,,,,,,,,,,,,,,,,,,,,,,,,,,,,,,,,,,,,,,,,,,,,,,,,,,,,,,,,,,,,,,,
,,,,2,0.381,,,,,,81,pretzel,yogurt,,88555,001,2022-04-26_18h28.36.332,SPAMnetsValid,2021.1.4,MacIntel,55.55555556,,,,,,,,,,,,,2,0.381,0,12,12,50,1,,,,,,,,,,,,,,,,,,,,,,,,,,,,,,,,,,,,,,,,,,,,,,,,,,,,,,,,,,,,,,,
,,,,3,0.661,,,,,,89,chocolate,rose,,88555,001,2022-04-26_18h28.36.332,SPAMnetsValid,2021.1.4,MacIntel,55.55555556,,,,,,,,,,,,,3,0.661,0,13,13,60,1,,,,,,,,,,,,,,,,,,,,,,,,,,,,,,,,,,,,,,,,,,,,,,,,,,,,,,,,,,,,,,,
,,,,3,0.196,,,,,,64,chocolate,garden,,88555,001,2022-04-26_18h28.36.332,SPAMnetsValid,2021.1.4,MacIntel,55.55555556,,,,,,,,,,,,,3,0.196,0,14,14,14,1,,,,,,,,,,,,,,,,,,,,,,,,,,,,,,,,,,,,,,,,,,,,,,,,,,,,,,,,,,,,,,,
,,,,3,0.16,,,,,,21,cake,onion,,88555,001,2022-04-26_18h28.36.332,SPAMnetsValid,2021.1.4,MacIntel,55.55555556,,,,,,,,,,,,,3,0.16,0,15,15,63,1,,,,,,,,,,,,,,,,,,,,,,,,,,,,,,,,,,,,,,,,,,,,,,,,,,,,,,,,,,,,,,,
,,,,3,0.359,,,,,,26,tomato,yogurt,,88555,001,2022-04-26_18h28.36.332,SPAMnetsValid,2021.1.4,MacIntel,55.55555556,,,,,,,,,,,,,3,0.359,0,16,16,13,1,,,,,,,,,,,,,,,,,,,,,,,,,,,,,,,,,,,,,,,,,,,,,,,,,,,,,,,,,,,,,,,
,,,,7,0.677,,,,,,72,broom,onion,,88555,001,2022-04-26_18h28.36.332,SPAMnetsValid,2021.1.4,MacIntel,55.55555556,,,,,,,,,,,,,7,0.677,0,17,17,27,1,,,,,,,,,,,,,,,,,,,,,,,,,,,,,,,,,,,,,,,,,,,,,,,,,,,,,,,,,,,,,,,
,,,,7,0.209,,,,,,192,microwave,microwave,CHECK,88555,001,2022-04-26_18h28.36.332,SPAMnetsValid,2021.1.4,MacIntel,55.55555556,,,,,,,,,,,,,7,0.209,0,18,18,53,1,,,,,,,,,,,,,,,,,,,,,,,,,,,,,,,,,,,,,,,,,,,,,,,,,,,,,,,,,,,,,,,
,,,,7,0.029,,,,,,38,pretzel,refrigerator,,88555,001,2022-04-26_18h28.36.332,SPAMnetsValid,2021.1.4,MacIntel,55.55555556,,,,,,,,,,,,,7,0.029,0,19,19,71,1,,,,,,,,,,,,,,,,,,,,,,,,,,,,,,,,,,,,,,,,,,,,,,,,,,,,,,,,,,,,,,,
,,,,7,0.047,,,,,,82,cake,kitchen,,88555,001,2022-04-26_18h28.36.332,SPAMnetsValid,2021.1.4,MacIntel,55.55555556,,,,,,,,,,,,,7,0.047,0,20,20,96,1,,,,,,,,,,,,,,,,,,,,,,,,,,,,,,,,,,,,,,,,,,,,,,,,,,,,,,,,,,,,,,,
,,,,7,0.276,,,,,,22,kitchen,strawberry,,88555,001,2022-04-26_18h28.36.332,SPAMnetsValid,2021.1.4,MacIntel,55.55555556,,,,,,,,,,,,,7,0.276,0,21,21,2,1,,,,,,,,,,,,,,,,,,,,,,,,,,,,,,,,,,,,,,,,,,,,,,,,,,,,,,,,,,,,,,,
,,,,4,0.842,,,,,,54,chocolate,yogurt,,88555,001,2022-04-26_18h28.36.332,SPAMnetsValid,2021.1.4,MacIntel,55.55555556,,,,,,,,,,,,,4,0.842,0,22,22,67,1,,,,,,,,,,,,,,,,,,,,,,,,,,,,,,,,,,,,,,,,,,,,,,,,,,,,,,,,,,,,,,,
,,,,4,0.143,,,,,,37,garden,refrigerator,,88555,001,2022-04-26_18h28.36.332,SPAMnetsValid,2021.1.4,MacIntel,55.55555556,,,,,,,,,,,,,4,0.143,0,23,23,11,1,,,,,,,,,,,,,,,,,,,,,,,,,,,,,,,,,,,,,,,,,,,,,,,,,,,,,,,,,,,,,,,
,,,,4,0.189,,,,,,3,cake,oven,,88555,001,2022-04-26_18h28.36.332,SPAMnetsValid,2021.1.4,MacIntel,55.55555556,,,,,,,,,,,,,4,0.189,0,24,24,30,1,,,,,,,,,,,,,,,,,,,,,,,,,,,,,,,,,,,,,,,,,,,,,,,,,,,,,,,,,,,,,,,
,,,,2,0.794,,,,,,75,cookie,onion,,88555,001,2022-04-26_18h28.36.332,SPAMnetsValid,2021.1.4,MacIntel,55.55555556,,,,,,,,,,,,,2,0.794,0,25,25,9,1,,,,,,,,,,,,,,,,,,,,,,,,,,,,,,,,,,,,,,,,,,,,,,,,,,,,,,,,,,,,,,,
,,,,2,0.075,,,,,,90,cactus,cake,,88555,001,2022-04-26_18h28.36.332,SPAMnetsValid,2021.1.4,MacIntel,55.55555556,,,,,,,,,,,,,2,0.075,0,26,26,85,1,,,,,,,,,,,,,,,,,,,,,,,,,,,,,,,,,,,,,,,,,,,,,,,,,,,,,,,,,,,,,,,
,,,,2,0.028,,,,,,27,cactus,cookie,,88555,001,2022-04-26_18h28.36.332,SPAMnetsValid,2021.1.4,MacIntel,55.55555556,,,,,,,,,,,,,2,0.028,0,27,27,17,1,,,,,,,,,,,,,,,,,,,,,,,,,,,,,,,,,,,,,,,,,,,,,,,,,,,,,,,,,,,,,,,
,,,,2,0.058,,,,,,65,broom,garden,,88555,001,2022-04-26_18h28.36.332,SPAMnetsValid,2021.1.4,MacIntel,55.55555556,,,,,,,,,,,,,2,0.058,0,28,28,23,1,,,,,,,,,,,,,,,,,,,,,,,,,,,,,,,,,,,,,,,,,,,,,,,,,,,,,,,,,,,,,,,
,,,,2,0.11,,,,,,10,flower,onion,,88555,001,2022-04-26_18h28.36.332,SPAMnetsValid,2021.1.4,MacIntel,55.55555556,,,,,,,,,,,,,2,0.11,0,29,29,45,1,,,,,,,,,,,,,,,,,,,,,,,,,,,,,,,,,,,,,,,,,,,,,,,,,,,,,,,,,,,,,,,
,,,,2,0.143,,,,,,9,kitchen,refrigerator,,88555,001,2022-04-26_18h28.36.332,SPAMnetsValid,2021.1.4,MacIntel,55.55555556,,,,,,,,,,,,,2,0.143,0,30,30,64,1,,,,,,,,,,,,,,,,,,,,,,,,,,,,,,,,,,,,,,,,,,,,,,,,,,,,,,,,,,,,,,,
,,,,2,0.142,,,,,,19,microwave,pretzel,,88555,001,2022-04-26_18h28.36.332,SPAMnetsValid,2021.1.4,MacIntel,55.55555556,,,,,,,,,,,,,2,0.142,0,31,31,41,1,,,,,,,,,,,,,,,,,,,,,,,,,,,,,,,,,,,,,,,,,,,,,,,,,,,,,,,,,,,,,,,
,,,,2,0.028,,,,,,16,chocolate,flower,,88555,001,2022-04-26_18h28.36.332,SPAMnetsValid,2021.1.4,MacIntel,55.55555556,,,,,,,,,,,,,2,0.028,0,32,32,22,1,,,,,,,,,,,,,,,,,,,,,,,,,,,,,,,,,,,,,,,,,,,,,,,,,,,,,,,,,,,,,,,
,,,,2,0.025,,,,,,76,garden,rose,,88555,001,2022-04-26_18h28.36.332,SPAMnetsValid,2021.1.4,MacIntel,55.55555556,,,,,,,,,,,,,2,0.025,0,33,33,19,1,,,,,,,,,,,,,,,,,,,,,,,,,,,,,,,,,,,,,,,,,,,,,,,,,,,,,,,,,,,,,,,
,,,,4,0.626,,,,,,59,rose,strawberry,,88555,001,2022-04-26_18h28.36.332,SPAMnetsValid,2021.1.4,MacIntel,55.55555556,,,,,,,,,,,,,4,0.626,0,34,34,72,1,,,,,,,,,,,,,,,,,,,,,,,,,,,,,,,,,,,,,,,,,,,,,,,,,,,,,,,,,,,,,,,
,,,,4,0.192,,,,,,14,broom,cookie,,88555,001,2022-04-26_18h28.36.332,SPAMnetsValid,2021.1.4,MacIntel,55.55555556,,,,,,,,,,,,,4,0.192,0,35,35,16,1,,,,,,,,,,,,,,,,,,,,,,,,,,,,,,,,,,,,,,,,,,,,,,,,,,,,,,,,,,,,,,,
,,,,4,0.176,,,,,,33,oven,yogurt,,88555,001,2022-04-26_18h28.36.332,SPAMnetsValid,2021.1.4,MacIntel,55.55555556,,,,,,,,,,,,,4,0.176,0,36,36,31,1,,,,,,,,,,,,,,,,,,,,,,,,,,,,,,,,,,,,,,,,,,,,,,,,,,,,,,,,,,,,,,,
,,,,5,0.843,,,,,,45,onion,pretzel,,88555,001,2022-04-26_18h28.36.332,SPAMnetsValid,2021.1.4,MacIntel,55.55555556,,,,,,,,,,,,,5,0.843,0,37,37,69,1,,,,,,,,,,,,,,,,,,,,,,,,,,,,,,,,,,,,,,,,,,,,,,,,,,,,,,,,,,,,,,,
,,,,5,0.108,,,,,,17,carrot,melon,,88555,001,2022-04-26_18h28.36.332,SPAMnetsValid,2021.1.4,MacIntel,55.55555556,,,,,,,,,,,,,5,0.108,0,38,38,24,1,,,,,,,,,,,,,,,,,,,,,,,,,,,,,,,,,,,,,,,,,,,,,,,,,,,,,,,,,,,,,,,
,,,,5,0.742,,,,,,29,chocolate,melon,,88555,001,2022-04-26_18h28.36.332,SPAMnetsValid,2021.1.4,MacIntel,55.55555556,,,,,,,,,,,,,5,0.742,0,39,39,34,1,,,,,,,,,,,,,,,,,,,,,,,,,,,,,,,,,,,,,,,,,,,,,,,,,,,,,,,,,,,,,,,
,,,,5,0.343,,,,,,94,kitchen,microwave,,88555,001,2022-04-26_18h28.36.332,SPAMnetsValid,2021.1.4,MacIntel,55.55555556,,,,,,,,,,,,,5,0.343,0,40,40,58,1,,,,,,,,,,,,,,,,,,,,,,,,,,,,,,,,,,,,,,,,,,,,,,,,,,,,,,,,,,,,,,,
,,,,5,0.047,,,,,,55,tomato,tree,,88555,001,2022-04-26_18h28.36.332,SPAMnetsValid,2021.1.4,MacIntel,55.55555556,,,,,,,,,,,,,5,0.047,0,41,41,35,1,,,,,,,,,,,,,,,,,,,,,,,,,,,,,,,,,,,,,,,,,,,,,,,,,,,,,,,,,,,,,,,
,,,,5,0.046,,,,,,77,refrigerator,yogurt,,88555,001,2022-04-26_18h28.36.332,SPAMnetsValid,2021.1.4,MacIntel,55.55555556,,,,,,,,,,,,,5,0.046,0,42,42,42,1,,,,,,,,,,,,,,,,,,,,,,,,,,,,,,,,,,,,,,,,,,,,,,,,,,,,,,,,,,,,,,,
,,,,5,0.03,,,,,,28,cake,melon,,88555,001,2022-04-26_18h28.36.332,SPAMnetsValid,2021.1.4,MacIntel,55.55555556,,,,,,,,,,,,,5,0.03,0,43,43,54,1,,,,,,,,,,,,,,,,,,,,,,,,,,,,,,,,,,,,,,,,,,,,,,,,,,,,,,,,,,,,,,,
,,,,5,0.024,,,,,,34,melon,oven,,88555,001,2022-04-26_18h28.36.332,SPAMnetsValid,2021.1.4,MacIntel,55.55555556,,,,,,,,,,,,,5,0.024,0,44,44,7,1,,,,,,,,,,,,,,,,,,,,,,,,,,,,,,,,,,,,,,,,,,,,,,,,,,,,,,,,,,,,,,,
,,,,4,0.693,,,,,,85,cake,tree,,88555,001,2022-04-26_18h28.36.332,SPAMnetsValid,2021.1.4,MacIntel,55.55555556,,,,,,,,,,,,,4,0.693,0,45,45,18,1,,,,,,,,,,,,,,,,,,,,,,,,,,,,,,,,,,,,,,,,,,,,,,,,,,,,,,,,,,,,,,,
,,,,4,0.126,,,,,,13,broom,yogurt,,88555,001,2022-04-26_18h28.36.332,SPAMnetsValid,2021.1.4,MacIntel,55.55555556,,,,,,,,,,,,,4,0.126,0,46,46,5,1,,,,,,,,,,,,,,,,,,,,,,,,,,,,,,,,,,,,,,,,,,,,,,,,,,,,,,,,,,,,,,,
,,,,4,0.091,,,,,,74,broom,pretzel,,88555,001,2022-04-26_18h28.36.332,SPAMnetsValid,2021.1.4,MacIntel,55.55555556,,,,,,,,,,,,,4,0.091,0,47,47,40,1,,,,,,,,,,,,,,,,,,,,,,,,,,,,,,,,,,,,,,,,,,,,,,,,,,,,,,,,,,,,,,,
,,,,4,0.064,,,,,,71,broom,rose,,88555,001,2022-04-26_18h28.36.332,SPAMnetsValid,2021.1.4,MacIntel,55.55555556,,,,,,,,,,,,,4,0.064,0,48,48,61,1,,,,,,,,,,,,,,,,,,,,,,,,,,,,,,,,,,,,,,,,,,,,,,,,,,,,,,,,,,,,,,,
,,,,4,0.064,,,,,,31,cactus,pretzel,,88555,001,2022-04-26_18h28.36.332,SPAMnetsValid,2021.1.4,MacIntel,55.55555556,,,,,,,,,,,,,4,0.064,0,49,49,1,1,,,,,,,,,,,,,,,,,,,,,,,,,,,,,,,,,,,,,,,,,,,,,,,,,,,,,,,,,,,,,,,
,,,,4,0.047,,,,,,70,chocolate,onion,,88555,001,2022-04-26_18h28.36.332,SPAMnetsValid,2021.1.4,MacIntel,55.55555556,,,,,,,,,,,,,4,0.047,0,50,50,74,1,,,,,,,,,,,,,,,,,,,,,,,,,,,,,,,,,,,,,,,,,,,,,,,,,,,,,,,,,,,,,,,
,,,,4,0.029,,,,,,69,carrot,refrigerator,,88555,001,2022-04-26_18h28.36.332,SPAMnetsValid,2021.1.4,MacIntel,55.55555556,,,,,,,,,,,,,4,0.029,0,51,51,75,1,,,,,,,,,,,,,,,,,,,,,,,,,,,,,,,,,,,,,,,,,,,,,,,,,,,,,,,,,,,,,,,
,,,,4,0.044,,,,,,25,carrot,onion,,88555,001,2022-04-26_18h28.36.332,SPAMnetsValid,2021.1.4,MacIntel,55.55555556,,,,,,,,,,,,,4,0.044,0,52,52,44,1,,,,,,,,,,,,,,,,,,,,,,,,,,,,,,,,,,,,,,,,,,,,,,,,,,,,,,,,,,,,,,,
,,,,4,0.046,,,,,,43,chocolate,tomato,,88555,001,2022-04-26_18h28.36.332,SPAMnetsValid,2021.1.4,MacIntel,55.55555556,,,,,,,,,,,,,4,0.046,0,53,53,8,1,,,,,,,,,,,,,,,,,,,,,,,,,,,,,,,,,,,,,,,,,,,,,,,,,,,,,,,,,,,,,,,
,,,,4,0.029,,,,,,11,refrigerator,tree,,88555,001,2022-04-26_18h28.36.332,SPAMnetsValid,2021.1.4,MacIntel,55.55555556,,,,,,,,,,,,,4,0.029,0,54,54,43,1,,,,,,,,,,,,,,,,,,,,,,,,,,,,,,,,,,,,,,,,,,,,,,,,,,,,,,,,,,,,,,,
,,,,4,0.03,,,,,,48,flower,oven,,88555,001,2022-04-26_18h28.36.332,SPAMnetsValid,2021.1.4,MacIntel,55.55555556,,,,,,,,,,,,,4,0.03,0,55,55,15,1,,,,,,,,,,,,,,,,,,,,,,,,,,,,,,,,,,,,,,,,,,,,,,,,,,,,,,,,,,,,,,,
,,,,4,0.019,,,,,,35,flower,pretzel,,88555,001,2022-04-26_18h28.36.332,SPAMnetsValid,2021.1.4,MacIntel,55.55555556,,,,,,,,,,,,,4,0.019,0,56,56,26,1,,,,,,,,,,,,,,,,,,,,,,,,,,,,,,,,,,,,,,,,,,,,,,,,,,,,,,,,,,,,,,,
,,,,4,0.069,,,,,,30,cookie,pretzel,,88555,001,2022-04-26_18h28.36.332,SPAMnetsValid,2021.1.4,MacIntel,55.55555556,,,,,,,,,,,,,4,0.069,0,57,57,78,1,,,,,,,,,,,,,,,,,,,,,,,,,,,,,,,,,,,,,,,,,,,,,,,,,,,,,,,,,,,,,,,
,,,,4,0.08,,,,,,80,chocolate,tree,,88555,001,2022-04-26_18h28.36.332,SPAMnetsValid,2021.1.4,MacIntel,55.55555556,,,,,,,,,,,,,4,0.08,0,58,58,89,1,,,,,,,,,,,,,,,,,,,,,,,,,,,,,,,,,,,,,,,,,,,,,,,,,,,,,,,,,,,,,,,
,,,,4,0.063,,,,,,50,carrot,rose,,88555,001,2022-04-26_18h28.36.332,SPAMnetsValid,2021.1.4,MacIntel,55.55555556,,,,,,,,,,,,,4,0.063,0,59,59,73,1,,,,,,,,,,,,,,,,,,,,,,,,,,,,,,,,,,,,,,,,,,,,,,,,,,,,,,,,,,,,,,,
,,,,4,0.181,,,,,,5,oven,tree,,88555,001,2022-04-26_18h28.36.332,SPAMnetsValid,2021.1.4,MacIntel,55.55555556,,,,,,,,,,,,,4,0.181,0,60,60,70,1,,,,,,,,,,,,,,,,,,,,,,,,,,,,,,,,,,,,,,,,,,,,,,,,,,,,,,,,,,,,,,,
,,,,8,0.804,,,,,,32,cake,microwave,,88555,001,2022-04-26_18h28.36.332,SPAMnetsValid,2021.1.4,MacIntel,55.55555556,,,,,,,,,,,,,8,0.804,0,61,61,33,1,,,,,,,,,,,,,,,,,,,,,,,,,,,,,,,,,,,,,,,,,,,,,,,,,,,,,,,,,,,,,,,
,,,,8,0.114,,,,,,40,broom,cake,,88555,001,2022-04-26_18h28.36.332,SPAMnetsValid,2021.1.4,MacIntel,55.55555556,,,,,,,,,,,,,8,0.114,0,62,62,32,1,,,,,,,,,,,,,,,,,,,,,,,,,,,,,,,,,,,,,,,,,,,,,,,,,,,,,,,,,,,,,,,
,,,,8,0.096,,,,,,49,flower,strawberry,,88555,001,2022-04-26_18h28.36.332,SPAMnetsValid,2021.1.4,MacIntel,55.55555556,,,,,,,,,,,,,8,0.096,0,63,63,3,1,,,,,,,,,,,,,,,,,,,,,,,,,,,,,,,,,,,,,,,,,,,,,,,,,,,,,,,,,,,,,,,
,,,,8,0.096,,,,,,57,flower,kitchen,,88555,001,2022-04-26_18h28.36.332,SPAMnetsValid,2021.1.4,MacIntel,55.55555556,,,,,,,,,,,,,8,0.096,0,64,64,49,1,,,,,,,,,,,,,,,,,,,,,,,,,,,,,,,,,,,,,,,,,,,,,,,,,,,,,,,,,,,,,,,
,,,,8,0.079,,,,,,66,melon,yogurt,,88555,001,2022-04-26_18h28.36.332,SPAMnetsValid,2021.1.4,MacIntel,55.55555556,,,,,,,,,,,,,8,0.079,0,65,65,48,1,,,,,,,,,,,,,,,,,,,,,,,,,,,,,,,,,,,,,,,,,,,,,,,,,,,,,,,,,,,,,,,
,,,,8,0.058,,,,,,83,broom,carrot,,88555,001,2022-04-26_18h28.36.332,SPAMnetsValid,2021.1.4,MacIntel,55.55555556,,,,,,,,,,,,,8,0.058,0,66,66,4,1,,,,,,,,,,,,,,,,,,,,,,,,,,,,,,,,,,,,,,,,,,,,,,,,,,,,,,,,,,,,,,,
,,,,8,0.064,,,,,,61,strawberry,tomato,,88555,001,2022-04-26_18h28.36.332,SPAMnetsValid,2021.1.4,MacIntel,55.55555556,,,,,,,,,,,,,8,0.064,0,67,67,80,1,,,,,,,,,,,,,,,,,,,,,,,,,,,,,,,,,,,,,,,,,,,,,,,,,,,,,,,,,,,,,,,
,,,,8,0.047,,,,,,2,kitchen,onion,,88555,001,2022-04-26_18h28.36.332,SPAMnetsValid,2021.1.4,MacIntel,55.55555556,,,,,,,,,,,,,8,0.047,0,68,68,91,1,,,,,,,,,,,,,,,,,,,,,,,,,,,,,,,,,,,,,,,,,,,,,,,,,,,,,,,,,,,,,,,
,,,,7,0.676,,,,,,53,garden,pretzel,,88555,001,2022-04-26_18h28.36.332,SPAMnetsValid,2021.1.4,MacIntel,55.55555556,,,,,,,,,,,,,7,0.676,0,69,69,0,1,,,,,,,,,,,,,,,,,,,,,,,,,,,,,,,,,,,,,,,,,,,,,,,,,,,,,,,,,,,,,,,
,,,,7,0.145,,,,,,1,rose,yogurt,,88555,001,2022-04-26_18h28.36.332,SPAMnetsValid,2021.1.4,MacIntel,55.55555556,,,,,,,,,,,,,7,0.145,0,70,70,55,1,,,,,,,,,,,,,,,,,,,,,,,,,,,,,,,,,,,,,,,,,,,,,,,,,,,,,,,,,,,,,,,
,,,,7,0.023,,,,,,62,kitchen,rose,,88555,001,2022-04-26_18h28.36.332,SPAMnetsValid,2021.1.4,MacIntel,55.55555556,,,,,,,,,,,,,7,0.023,0,71,71,57,1,,,,,,,,,,,,,,,,,,,,,,,,,,,,,,,,,,,,,,,,,,,,,,,,,,,,,,,,,,,,,,,
,,,,7,0.058,,,,,,18,onion,refrigerator,,88555,001,2022-04-26_18h28.36.332,SPAMnetsValid,2021.1.4,MacIntel,55.55555556,,,,,,,,,,,,,7,0.058,0,72,72,62,1,,,,,,,,,,,,,,,,,,,,,,,,,,,,,,,,,,,,,,,,,,,,,,,,,,,,,,,,,,,,,,,
,,,,7,0.064,,,,,,73,broom,chocolate,,88555,001,2022-04-26_18h28.36.332,SPAMnetsValid,2021.1.4,MacIntel,55.55555556,,,,,,,,,,,,,7,0.064,0,73,73,47,1,,,,,,,,,,,,,,,,,,,,,,,,,,,,,,,,,,,,,,,,,,,,,,,,,,,,,,,,,,,,,,,
,,,,7,0.059,,,,,,36,broom,kitchen,,88555,001,2022-04-26_18h28.36.332,SPAMnetsValid,2021.1.4,MacIntel,55.55555556,,,,,,,,,,,,,7,0.059,0,74,74,76,1,,,,,,,,,,,,,,,,,,,,,,,,,,,,,,,,,,,,,,,,,,,,,,,,,,,,,,,,,,,,,,,
,,,,7,0.029,,,,,,191,cake,cake,CHECK,88555,001,2022-04-26_18h28.36.332,SPAMnetsValid,2021.1.4,MacIntel,55.55555556,,,,,,,,,,,,,7,0.029,0,75,75,10,1,,,,,,,,,,,,,,,,,,,,,,,,,,,,,,,,,,,,,,,,,,,,,,,,,,,,,,,,,,,,,,,
,,,,7,0.047,,,,,,12,cookie,yogurt,,88555,001,2022-04-26_18h28.36.332,SPAMnetsValid,2021.1.4,MacIntel,55.55555556,,,,,,,,,,,,,7,0.047,0,76,76,36,1,,,,,,,,,,,,,,,,,,,,,,,,,,,,,,,,,,,,,,,,,,,,,,,,,,,,,,,,,,,,,,,
,,,,7,0.064,,,,,,67,flower,yogurt,,88555,001,2022-04-26_18h28.36.332,SPAMnetsValid,2021.1.4,MacIntel,55.55555556,,,,,,,,,,,,,7,0.064,0,77,77,12,1,,,,,,,,,,,,,,,,,,,,,,,,,,,,,,,,,,,,,,,,,,,,,,,,,,,,,,,,,,,,,,,
,,,,3,0.643,,,,,,56,cactus,tree,,88555,001,2022-04-26_18h28.36.332,SPAMnetsValid,2021.1.4,MacIntel,55.55555556,,,,,,,,,,,,,3,0.643,0,78,78,21,1,,,,,,,,,,,,,,,,,,,,,,,,,,,,,,,,,,,,,,,,,,,,,,,,,,,,,,,,,,,,,,,
,,,,3,0.067,,,,,,42,garden,kitchen,,88555,001,2022-04-26_18h28.36.332,SPAMnetsValid,2021.1.4,MacIntel,55.55555556,,,,,,,,,,,,,3,0.067,0,79,79,29,1,,,,,,,,,,,,,,,,,,,,,,,,,,,,,,,,,,,,,,,,,,,,,,,,,,,,,,,,,,,,,,,
,,,,3,0.047,,,,,,47,onion,tomato,,88555,001,2022-04-26_18h28.36.332,SPAMnetsValid,2021.1.4,MacIntel,55.55555556,,,,,,,,,,,,,3,0.047,0,80,80,51,1,,,,,,,,,,,,,,,,,,,,,,,,,,,,,,,,,,,,,,,,,,,,,,,,,,,,,,,,,,,,,,,
,,,,3,0.047,,,,,,63,cake,cookie,,88555,001,2022-04-26_18h28.36.332,SPAMnetsValid,2021.1.4,MacIntel,55.55555556,,,,,,,,,,,,,3,0.047,0,81,81,93,1,,,,,,,,,,,,,,,,,,,,,,,,,,,,,,,,,,,,,,,,,,,,,,,,,,,,,,,,,,,,,,,
,,,,5,0.525,,,,,,58,garden,oven,,88555,001,2022-04-26_18h28.36.332,SPAMnetsValid,2021.1.4,MacIntel,55.55555556,,,,,,,,,,,,,5,0.525,0,82,82,37,1,,,,,,,,,,,,,,,,,,,,,,,,,,,,,,,,,,,,,,,,,,,,,,,,,,,,,,,,,,,,,,,
,,,,5,0.113,,,,,,78,cookie,rose,,88555,001,2022-04-26_18h28.36.332,SPAMnetsValid,2021.1.4,MacIntel,55.55555556,,,,,,,,,,,,,5,0.113,0,83,83,56,1,,,,,,,,,,,,,,,,,,,,,,,,,,,,,,,,,,,,,,,,,,,,,,,,,,,,,,,,,,,,,,,
,,,,5,0.081,,,,,,41,broom,cactus,,88555,001,2022-04-26_18h28.36.332,SPAMnetsValid,2021.1.4,MacIntel,55.55555556,,,,,,,,,,,,,5,0.081,0,84,84,46,1,,,,,,,,,,,,,,,,,,,,,,,,,,,,,,,,,,,,,,,,,,,,,,,,,,,,,,,,,,,,,,,
,,,,7,0.56,,,,,,84,oven,tomato,,88555,001,2022-04-26_18h28.36.332,SPAMnetsValid,2021.1.4,MacIntel,55.55555556,,,,,,,,,,,,,7,0.56,0,85,85,28,1,,,,,,,,,,,,,,,,,,,,,,,,,,,,,,,,,,,,,,,,,,,,,,,,,,,,,,,,,,,,,,,
,,,,7,0.159,,,,,,4,chocolate,pretzel,,88555,001,2022-04-26_18h28.36.332,SPAMnetsValid,2021.1.4,MacIntel,55.55555556,,,,,,,,,,,,,7,0.159,0,86,86,52,1,,,,,,,,,,,,,,,,,,,,,,,,,,,,,,,,,,,,,,,,,,,,,,,,,,,,,,,,,,,,,,,
,,,,7,0.292,,,,,,39,melon,pretzel,,88555,001,2022-04-26_18h28.36.332,SPAMnetsValid,2021.1.4,MacIntel,55.55555556,,,,,,,,,,,,,7,0.292,0,87,87,20,1,,,,,,,,,,,,,,,,,,,,,,,,,,,,,,,,,,,,,,,,,,,,,,,,,,,,,,,,,,,,,,,
,,,,7,0.109,,,,,,95,broom,refrigerator,,88555,001,2022-04-26_18h28.36.332,SPAMnetsValid,2021.1.4,MacIntel,55.55555556,,,,,,,,,,,,,7,0.109,0,88,88,90,1,,,,,,,,,,,,,,,,,,,,,,,,,,,,,,,,,,,,,,,,,,,,,,,,,,,,,,,,,,,,,,,
,,,,7,0.061,,,,,,91,microwave,rose,,88555,001,2022-04-26_18h28.36.332,SPAMnetsValid,2021.1.4,MacIntel,55.55555556,,,,,,,,,,,,,7,0.061,0,89,89,84,1,,,,,,,,,,,,,,,,,,,,,,,,,,,,,,,,,,,,,,,,,,,,,,,,,,,,,,,,,,,,,,,
,,,,6,0.593,,,,,,7,melon,tree,,88555,001,2022-04-26_18h28.36.332,SPAMnetsValid,2021.1.4,MacIntel,55.55555556,,,,,,,,,,,,,6,0.593,0,90,90,77,1,,,,,,,,,,,,,,,,,,,,,,,,,,,,,,,,,,,,,,,,,,,,,,,,,,,,,,,,,,,,,,,
,,,,6,0.078,,,,,,44,cookie,melon,,88555,001,2022-04-26_18h28.36.332,SPAMnetsValid,2021.1.4,MacIntel,55.55555556,,,,,,,,,,,,,6,0.078,0,91,91,92,1,,,,,,,,,,,,,,,,,,,,,,,,,,,,,,,,,,,,,,,,,,,,,,,,,,,,,,,,,,,,,,,
,,,,6,0.059,,,,,,20,rose,tree,,88555,001,2022-04-26_18h28.36.332,SPAMnetsValid,2021.1.4,MacIntel,55.55555556,,,,,,,,,,,,,6,0.059,0,92,92,66,1,,,,,,,,,,,,,,,,,,,,,,,,,,,,,,,,,,,,,,,,,,,,,,,,,,,,,,,,,,,,,,,
,,,,6,0.047,,,,,,46,garden,yogurt,,88555,001,2022-04-26_18h28.36.332,SPAMnetsValid,2021.1.4,MacIntel,55.55555556,,,,,,,,,,,,,6,0.047,0,93,93,65,1,,,,,,,,,,,,,,,,,,,,,,,,,,,,,,,,,,,,,,,,,,,,,,,,,,,,,,,,,,,,,,,
,,,,3,0.808,,,,,,68,flower,tomato,,88555,001,2022-04-26_18h28.36.332,SPAMnetsValid,2021.1.4,MacIntel,55.55555556,,,,,,,,,,,,,3,0.808,0,94,94,94,1,,,,,,,,,,,,,,,,,,,,,,,,,,,,,,,,,,,,,,,,,,,,,,,,,,,,,,,,,,,,,,,
,,,,7,0.761,,,,,,15,onion,oven,,88555,001,2022-04-26_18h28.36.332,SPAMnetsValid,2021.1.4,MacIntel,55.55555556,,,,,,,,,,,,,7,0.761,0,95,95,39,1,,,,,,,,,,,,,,,,,,,,,,,,,,,,,,,,,,,,,,,,,,,,,,,,,,,,,,,,,,,,,,,
,,,,6,2.091,,,,,,8,broom,melon,,88555,001,2022-04-26_18h28.36.332,SPAMnetsValid,2021.1.4,MacIntel,55.55555556,,,,,,,,,,,,,6,2.091,0,96,96,59,1,,,,,,,,,,,,,,,,,,,,,,,,,,,,,,,,,,,,,,,,,,,,,,,,,,,,,,,,,,,,,,,
,,,,,,,,,,,,,,,88555,001,2022-04-26_18h28.36.332,SPAMnetsValid,2021.1.4,MacIntel,55.55555556,,,,,,,,,,,,,,,,,,,,0,0,0,0,1,,,,,,,,,,,,,,,,,,,,,,,,,,,,,,,,,,,,,,,,,,,,,,,,,,,,,,,,,,
,,,,,,,,,,,,,,,88555,001,2022-04-26_18h28.36.332,SPAMnetsValid,2021.1.4,MacIntel,55.55555556,,,,,,0,1,1,0,1,1,0,,,,,,,,,,,,,,,,,,,,,,,,,,,,,,,,,,,,,,,,,,,,,,,,,,,,,,,,,,,,,,,,,,,,,,
,,,,,,,,,,,,,,,88555,001,2022-04-26_18h28.36.332,SPAMnetsValid,2021.1.4,MacIntel,55.55555556,,,,,,,,,,,,,,,,,,,,,,,,,3,3.637,0,0,0,0,1,rancor,forbearance,ridicule,malice,bravery,3,,,,,,,,,,,,,,,,,,,,,,,,,,,,,,,,,,,,,,,,,,,,,
,,,,,,,,,,,,,,,88555,001,2022-04-26_18h28.36.332,SPAMnetsValid,2021.1.4,MacIntel,55.55555556,,,,,,,,,,,,,,,,,,,,,,,,,2,2.009,0,1,1,1,1,raucous,empty,quiet,smooth,harsh,4,,,,,,,,,,,,,,,,,,,,,,,,,,,,,,,,,,,,,,,,,,,,,
,,,,,,,,,,,,,,,88555,001,2022-04-26_18h28.36.332,SPAMnetsValid,2021.1.4,MacIntel,55.55555556,,,,,,,,,,,,,,,,,,,,,,,,,4,2.726,0,2,2,2,1,gargoyle,oil,medicine,carved waterspout,ugly building,3,,,,,,,,,,,,,,,,,,,,,,,,,,,,,,,,,,,,,,,,,,,,,
,,,,,,,,,,,,,,,88555,001,2022-04-26_18h28.36.332,SPAMnetsValid,2021.1.4,MacIntel,55.55555556,,,,,,,,,,,,,,,,,,,,,,,,,2,2.375,0,3,3,3,1,recrudesce,purify,renew activity,lack refinement,crush,2,,,,,,,,,,,,,,,,,,,,,,,,,,,,,,,,,,,,,,,,,,,,,
,,,,,,,,,,,,,,,88555,001,2022-04-26_18h28.36.332,SPAMnetsValid,2021.1.4,MacIntel,55.55555556,,,,,,,,,,,,,,,,,,,,,,,,,3,8.777,0,4,4,4,1,specious,"plausible, but not genuine",noteworthy,class or variety,roomy,1,,,,,,,,,,,,,,,,,,,,,,,,,,,,,,,,,,,,,,,,,,,,,
,,,,,,,,,,,,,,,88555,001,2022-04-26_18h28.36.332,SPAMnetsValid,2021.1.4,MacIntel,55.55555556,,,,,,,,,,,,,,,,,,,,,,,,,3,2.194,0,5,5,5,1,bauble,bubble,showy plaything,idle talk,confusion,2,,,,,,,,,,,,,,,,,,,,,,,,,,,,,,,,,,,,,,,,,,,,,
,,,,,,,,,,,,,,,88555,001,2022-04-26_18h28.36.332,SPAMnetsValid,2021.1.4,MacIntel,55.55555556,,,,,,,,,,,,,,,,,,,,,,,,,2,2.209,0,6,6,6,1,prolific,scarce,producing abundantly,reckless,speaking profanely,2,,,,,,,,,,,,,,,,,,,,,,,,,,,,,,,,,,,,,,,,,,,,,
,,,,,,,,,,,,,,,88555,001,2022-04-26_18h28.36.332,SPAMnetsValid,2021.1.4,MacIntel,55.55555556,,,,,,,,,,,,,,,,,,,,,,,,,,,0,7,7,7,1,opulent,party,wealthy,happy frame of mind,semiprecious stone,2,,,,,,,,,,,,,,,,,,,,,,,,,,,,,,,,,,,,,,,,,,,,,
,,,,,,,,,,,,,,,88555,001,2022-04-26_18h28.36.332,SPAMnetsValid,2021.1.4,MacIntel,55.55555556,,,,,,,,,,,,,,,,,,,,,,,,,2,0.86,0,8,8,8,1,coercion,conspiracy,strategy,restraint,attraction,3,,,,,,,,,,,,,,,,,,,,,,,,,,,,,,,,,,,,,,,,,,,,,
,,,,,,,,,,,,,,,88555,001,2022-04-26_18h28.36.332,SPAMnetsValid,2021.1.4,MacIntel,55.55555556,,,,,,,,,,,,,,,,,,,,,,,,,1,0.994,0,9,9,9,1,hiatus,animal,calamity,dread,gap,4,,,,,,,,,,,,,,,,,,,,,,,,,,,,,,,,,,,,,,,,,,,,,
,,,,,,,,,,,,,,,88555,001,2022-04-26_18h28.36.332,SPAMnetsValid,2021.1.4,MacIntel,55.55555556,,,,,,,,,,,,,,,,,,,,,,,,,2,0.792,0,10,10,10,1,germane,microbe,contagious,relevant,different,3,,,,,,,,,,,,,,,,,,,,,,,,,,,,,,,,,,,,,,,,,,,,,
,,,,,,,,,,,,,,,88555,001,2022-04-26_18h28.36.332,SPAMnetsValid,2021.1.4,MacIntel,55.55555556,,,,,,,,,,,,,,,,,,,,,,,,,3,0.776,0,11,11,11,1,perfunctory,fundamental,formal,superficial,careful,3,,,,,,,,,,,,,,,,,,,,,,,,,,,,,,,,,,,,,,,,,,,,,
,,,,,,,,,,,,,,,88555,001,2022-04-26_18h28.36.332,SPAMnetsValid,2021.1.4,MacIntel,55.55555556,,,,,,,,,,,,,,,,,,,,,,,,,4,1.528,0,12,12,12,1,diverge,reveal,chant,distract the attention of,differ or turn off from,4,,,,,,,,,,,,,,,,,,,,,,,,,,,,,,,,,,,,,,,,,,,,,
,,,,,,,,,,,,,,,88555,001,2022-04-26_18h28.36.332,SPAMnetsValid,2021.1.4,MacIntel,55.55555556,,,,,,,,,,,,,,,,,,,,,,,,,3,1.576,0,13,13,13,1,evoke,take away,anger,connect,bring out,4,,,,,,,,,,,,,,,,,,,,,,,,,,,,,,,,,,,,,,,,,,,,,
,,,,,,,,,,,,,,,88555,001,2022-04-26_18h28.36.332,SPAMnetsValid,2021.1.4,MacIntel,55.55555556,,,,,,,,,,,,,,,,,,,,,,,,,1,2.893,0,14,14,14,1,pertinent,relevant,lying next to,necessary,bold,1,,,,,,,,,,,,,,,,,,,,,,,,,,,,,,,,,,,,,,,,,,,,,
,,,,,,,,,,,,,,,88555,001,2022-04-26_18h28.36.332,SPAMnetsValid,2021.1.4,MacIntel,55.55555556,,,,,,,,,,,,,,,,,,,,,,,,,2,0.96,0,15,15,15,1,holocaust,entirety,destruction,saintly,price,2,,,,,,,,,,,,,,,,,,,,,,,,,,,,,,,,,,,,,,,,,,,,,
,,,,,,,,,,,,,,,88555,001,2022-04-26_18h28.36.332,SPAMnetsValid,2021.1.4,MacIntel,55.55555556,,,,,,,,,,,,,,,,,,,,,,,,,3,1.027,0,16,16,16,1,piquant,mellow,fish,pungent,cloth,3,,,,,,,,,,,,,,,,,,,,,,,,,,,,,,,,,,,,,,,,,,,,,
,,,,,,,,,,,,,,,88555,001,2022-04-26_18h28.36.332,SPAMnetsValid,2021.1.4,MacIntel,55.55555556,,,,,,,,,,,,,,,,,,,,,,,,,4,1.01,0,17,17,17,1,firmament,foundation,heavens,strong,glue,2,,,,,,,,,,,,,,,,,,,,,,,,,,,,,,,,,,,,,,,,,,,,,
,,,,,,,,,,,,,,,88555,001,2022-04-26_18h28.36.332,SPAMnetsValid,2021.1.4,MacIntel,55.55555556,,,,,,,,,,,,,,,,,,,,,,,,,,,,,,,,,,,,,,4,1.094,0,0,0,0,1,marketable,partisan,jocular,marriageable,salable,essential,4,,,,,,,,,,,,,,,,,,,,,,,,,,,,,,,
,,,,,,,,,,,,,,,88555,001,2022-04-26_18h28.36.332,SPAMnetsValid,2021.1.4,MacIntel,55.55555556,,,,,,,,,,,,,,,,,,,,,,,,,,,,,,,,,,,,,,3,0.775,0,1,1,1,1,cottontail,squirrel,poplar,boa,marshy plant,rabbit,5,,,,,,,,,,,,,,,,,,,,,,,,,,,,,,,
,,,,,,,,,,,,,,,88555,001,2022-04-26_18h28.36.332,SPAMnetsValid,2021.1.4,MacIntel,55.55555556,,,,,,,,,,,,,,,,,,,,,,,,,,,,,,,,,,,,,,2,0.826,0,2,2,2,1,boggy,afraid,false,marshy,dense,black,3,,,,,,,,,,,,,,,,,,,,,,,,,,,,,,,
,,,,,,,,,,,,,,,88555,001,2022-04-26_18h28.36.332,SPAMnetsValid,2021.1.4,MacIntel,55.55555556,,,,,,,,,,,,,,,,,,,,,,,,,,,,,,,,,,,,,,1,0.842,0,3,3,3,1,gruesomeness,blackness,falseness,vindictiveness,drunkenness,ghastliness,5,,,,,,,,,,,,,,,,,,,,,,,,,,,,,,,
,,,,,,,,,,,,,,,88555,001,2022-04-26_18h28.36.332,SPAMnetsValid,2021.1.4,MacIntel,55.55555556,,,,,,,,,,,,,,,,,,,,,,,,,,,,,,,,,,,,,,2,0.625,0,4,4,4,1,loathing,diffidence,laziness,abhorrence,cleverness,comfort,3,,,,,,,,,,,,,,,,,,,,,,,,,,,,,,,
,,,,,,,,,,,,,,,88555,001,2022-04-26_18h28.36.332,SPAMnetsValid,2021.1.4,MacIntel,55.55555556,,,,,,,,,,,,,,,,,,,,,,,,,,,,,,,,,,,,,,3,0.76,0,5,5,5,1,bantam,fowl,ridicule,cripple,vegetable,ensign,1,,,,,,,,,,,,,,,,,,,,,,,,,,,,,,,
,,,,,,,,,,,,,,,88555,001,2022-04-26_18h28.36.332,SPAMnetsValid,2021.1.4,MacIntel,55.55555556,,,,,,,,,,,,,,,,,,,,,,,,,,,,,,,,,,,,,,4,0.743,0,6,6,6,1,evoke,wake up,surrender,reconnoiter,transcend,call forth,5,,,,,,,,,,,,,,,,,,,,,,,,,,,,,,,
,,,,,,,,,,,,,,,88555,001,2022-04-26_18h28.36.332,SPAMnetsValid,2021.1.4,MacIntel,55.55555556,,,,,,,,,,,,,,,,,,,,,,,,,,,,,,,,,,,,,,5,1.292,0,7,7,7,1,unobtrusive,unintelligent,epileptic,illogical,lineal,modest,5,,,,,,,,,,,,,,,,,,,,,,,,,,,,,,,
,,,,,,,,,,,,,,,88555,001,2022-04-26_18h28.36.332,SPAMnetsValid,2021.1.4,MacIntel,55.55555556,,,,,,,,,,,,,,,,,,,,,,,,,,,,,,,,,,,,,,4,0.742,0,8,8,8,1,terrain,ice cream,final test,tractor,area of ground,weight,4,,,,,,,,,,,,,,,,,,,,,,,,,,,,,,,
,,,,,,,,,,,,,,,88555,001,2022-04-26_18h28.36.332,SPAMnetsValid,2021.1.4,MacIntel,55.55555556,,,,,,,,,,,,,,,,,,,,,,,,,,,,,,,,,,,,,,3,0.678,0,9,9,9,1,capriciousness,stubbornness,courage,whimsicality,amazement,greediness,3,,,,,,,,,,,,,,,,,,,,,,,,,,,,,,,
,,,,,,,,,,,,,,,88555,001,2022-04-26_18h28.36.332,SPAMnetsValid,2021.1.4,MacIntel,55.55555556,,,,,,,,,,,,,,,,,,,,,,,,,,,,,,,,,,,,,,4,0.926,0,10,10,10,1,maelstrom,slander,whirlpool,enmity,armor,majolica,2,,,,,,,,,,,,,,,,,,,,,,,,,,,,,,,
,,,,,,,,,,,,,,,88555,001,2022-04-26_18h28.36.332,SPAMnetsValid,2021.1.4,MacIntel,55.55555556,,,,,,,,,,,,,,,,,,,,,,,,,,,,,,,,,,,,,,5,1.026,0,11,11,11,1,tentative,critical,conclusive,authentic,provisional,apprehensive,4,,,,,,,,,,,,,,,,,,,,,,,,,,,,,,,
,,,,,,,,,,,,,,,88555,001,2022-04-26_18h28.36.332,SPAMnetsValid,2021.1.4,MacIntel,55.55555556,,,,,,,,,,,,,,,,,,,,,,,,,,,,,,,,,,,,,,3,1.184,0,12,12,12,1,placate,rehabilitate,plagiarize,depredate,apprise,conciliate,5,,,,,,,,,,,,,,,,,,,,,,,,,,,,,,,
,,,,,,,,,,,,,,,88555,001,2022-04-26_18h28.36.332,SPAMnetsValid,2021.1.4,MacIntel,55.55555556,,,,,,,,,,,,,,,,,,,,,,,,,,,,,,,,,,,,,,2,1.161,0,13,13,13,1,surcease,enlightenment,cessation,inattention,censor,substitution,2,,,,,,,,,,,,,,,,,,,,,,,,,,,,,,,
,,,,,,,,,,,,,,,88555,001,2022-04-26_18h28.36.332,SPAMnetsValid,2021.1.4,MacIntel,55.55555556,,,,,,,,,,,,,,,,,,,,,,,,,,,,,,,,,,,,,,1,0.796,0,14,14,14,1,apathetic,wandering,impassive,hateful,prophetic,overflowing,2,,,,,,,,,,,,,,,,,,,,,,,,,,,,,,,
,,,,,,,,,,,,,,,88555,001,2022-04-26_18h28.36.332,SPAMnetsValid,2021.1.4,MacIntel,55.55555556,,,,,,,,,,,,,,,,,,,,,,,,,,,,,,,,,,,,,,2,0.858,0,15,15,15,1,paternoster,paternalism,patricide,malediction,benediction,prayer,5,,,,,,,,,,,,,,,,,,,,,,,,,,,,,,,
,,,,,,,,,,,,,,,88555,001,2022-04-26_18h28.36.332,SPAMnetsValid,2021.1.4,MacIntel,55.55555556,,,,,,,,,,,,,,,,,,,,,,,,,,,,,,,,,,,,,,3,1.014,0,16,16,16,1,opalescence,opulence,senescence,bankruptcy,iridescence,assiduity,4,,,,,,,,,,,,,,,,,,,,,,,,,,,,,,,
,,,,,,,,,,,,,,,88555,001,2022-04-26_18h28.36.332,SPAMnetsValid,2021.1.4,MacIntel,55.55555556,,,,,,,,,,,,,,,,,,,,,,,,,,,,,,,,,,,,,,4,1.068,0,17,17,17,1,lush,stupid,luxurious,hazy,putrid,languishing,2,,,,,,,,,,,,,,,,,,,,,,,,,,,,,,,
,,,,,,,,,,,,,,,88555,001,2022-04-26_18h28.36.332,SPAMnetsValid,2021.1.4,MacIntel,55.55555556,,,,,,,,,,,,,,,,,,,,,,,,,,,,,,,,,,,,,,3,1.142,0,18,18,18,1,curtailment,expenditure,abandonment,abridgment,improvement,forgery,3,,,,,,,,,,,,,,,,,,,,,,,,,,,,,,,
,,,,,,,,,,,,,,,88555,001,2022-04-26_18h28.36.332,SPAMnetsValid,2021.1.4,MacIntel,55.55555556,,,,,,,,,,,,,,,,,,,,,,,,,,,,,,,,,,,,,,3,62.848,0,19,19,19,1,perversity,adversity,perviousness,travesty,waywardness,gentility,4,,,,,,,,,,,,,,,,,,,,,,,,,,,,,,,
,,,,,,,,,,,,,,,88555,001,2022-04-26_18h28.36.332,SPAMnetsValid,2021.1.4,MacIntel,55.55555556,,,,,,,,,,,,,,,,,,,,,,,,,,,,,,,,,,,,,,4,0.866,0,20,20,20,1,calumnious,complimentary,analogous,slanderous,tempestuous,magnanimous,3,,,,,,,,,,,,,,,,,,,,,,,,,,,,,,,
,,,,,,,,,,,,,,,88555,001,2022-04-26_18h28.36.332,SPAMnetsValid,2021.1.4,MacIntel,55.55555556,,,,,,,,,,,,,,,,,,,,,,,,,,,,,,,,,,,,,,5,0.759,0,21,21,21,1,illiberality,bigotry,imbecility,illegibility,cautery,immaturity,1,,,,,,,,,,,,,,,,,,,,,,,,,,,,,,,
,,,,,,,,,,,,,,,88555,001,2022-04-26_18h28.36.332,SPAMnetsValid,2021.1.4,MacIntel,55.55555556,,,,,,,,,,,,,,,,,,,,,,,,,,,,,,,,,,,,,,3,1.038,0,22,22,22,1,clabber,rejoice,gossip,curdle,crow,hobble,3,,,,,,,,,,,,,,,,,,,,,,,,,,,,,,,
,,,,,,,,,,,,,,,88555,001,2022-04-26_18h28.36.332,SPAMnetsValid,2021.1.4,MacIntel,55.55555556,,,,,,,,,,,,,,,,,,,,,,,,,,,,,,,,,,,,,,4,0.725,0,23,23,23,1,sedulousness,diligence,credulousness,seduction,perilousness,frankness,1,,,,,,,,,,,,,,,,,,,,,,,,,,,,,,,
,,,,,,,,,,,,,,,88555,001,2022-04-26_18h28.36.332,SPAMnetsValid,2021.1.4,MacIntel,55.55555556,,,,,,,,,,,,,,,,,,,,,,,,,,,,,,,,,,,,,,,,,,,,,,,,,,,,pool,bucket,0,0,0,0,1,,,,,,,,,,,,,,,,,,,,,,,,
,,,,,,,,,,,,,,,88555,001,2022-04-26_18h28.36.332,SPAMnetsValid,2021.1.4,MacIntel,55.55555556,,,,,,,,,,,,,,,,,,,,,,,,,,,,,,,,,,,,,,,,,,,,,,,,,,,,hat,bucket,1,0,1,0,1,,,,,,,,,,,,,,,,,,,,,,,,
,,,,,,,,,,,,,,,88555,001,2022-04-26_18h28.36.332,SPAMnetsValid,2021.1.4,MacIntel,55.55555556,,,,,,,,,,,,,,,,,,,,,,,,,,,,,,,,,,,,,,,,,,,,,,,,,,,,organizer,bucket,2,0,2,0,1,,,,,,,,,,,,,,,,,,,,,,,,
,,,,,,,,,,,,,,,88555,001,2022-04-26_18h28.36.332,SPAMnetsValid,2021.1.4,MacIntel,55.55555556,,,,,,,,,,,,,,,,,,,,,,,,,,,,,,,,,,,,,,,,,,,,,,,,,,,,fill with toys,bucket,3,0,3,0,1,,,,,,,,,,,,,,,,,,,,,,,,
,,,,,,,,,,,,,,,88555,001,2022-04-26_18h28.36.332,SPAMnetsValid,2021.1.4,MacIntel,55.55555556,,,,,,,,,,,,,,,,,,,,,,,,,,,,,,,,,,,,,,,,,,,,,,,,,,,,cary things with it,bucket,4,0,4,0,1,,,,,,,,,,,,,,,,,,,,,,,,
,,,,,,,,,,,,,,,88555,001,2022-04-26_18h28.36.332,SPAMnetsValid,2021.1.4,MacIntel,55.55555556,,,,,,,,,,,,,,,,,,,,,,,,,,,,,,,,,,,,,,,,,,,,,,,,,,,,store,bucket,5,0,5,0,1,,,,,,,,,,,,,,,,,,,,,,,,
,,,,,,,,,,,,,,,88555,001,2022-04-26_18h28.36.332,SPAMnetsValid,2021.1.4,MacIntel,55.55555556,,,,,,,,,,,,,,,,,,,,,,,,,,,,,,,,,,,,,,,,,,,,,,,,,,,,,,,,,,,0,0,0,0,1,bucket,,,,,,,,,,,,,,,,,,
,,,,,,,,,,,,,,,88555,001,2022-04-26_18h28.36.332,SPAMnetsValid,2021.1.4,MacIntel,55.55555556,,,,,,,,,,,,,,,,,,,,,,,,,,,,,,,,,,,,,,,,,,,,,,,,,,,,light,candle,0,0,0,0,1,,,,,,,,,,,,,,,,,,,,,,,,
,,,,,,,,,,,,,,,88555,001,2022-04-26_18h28.36.332,SPAMnetsValid,2021.1.4,MacIntel,55.55555556,,,,,,,,,,,,,,,,,,,,,,,,,,,,,,,,,,,,,,,,,,,,,,,,,,,,play whit i t,candle,1,0,1,0,1,,,,,,,,,,,,,,,,,,,,,,,,
,,,,,,,,,,,,,,,88555,001,2022-04-26_18h28.36.332,SPAMnetsValid,2021.1.4,MacIntel,55.55555556,,,,,,,,,,,,,,,,,,,,,,,,,,,,,,,,,,,,,,,,,,,,,,,,,,,,use the fire ,candle,2,0,2,0,1,,,,,,,,,,,,,,,,,,,,,,,,
,,,,,,,,,,,,,,,88555,001,2022-04-26_18h28.36.332,SPAMnetsValid,2021.1.4,MacIntel,55.55555556,,,,,,,,,,,,,,,,,,,,,,,,,,,,,,,,,,,,,,,,,,,,,,,,,,,,decoration,candle,3,0,3,0,1,,,,,,,,,,,,,,,,,,,,,,,,
,,,,,,,,,,,,,,,88555,001,2022-04-26_18h28.36.332,SPAMnetsValid,2021.1.4,MacIntel,55.55555556,,,,,,,,,,,,,,,,,,,,,,,,,,,,,,,,,,,,,,,,,,,,,,,,,,,,,,,,,,,0,1,1,1,1,candle,,,,,,,,,,,,,,,,,,
,,,,,,,,,,,,,,,88555,001,2022-04-26_18h28.36.332,SPAMnetsValid,2021.1.4,MacIntel,55.55555556,,,,,,,,,,,,,,,,,,,,,,,,,,,,,,,,,,,,,,,,,,,,,,,,,,,,head rest,pillow,0,0,0,0,1,,,,,,,,,,,,,,,,,,,,,,,,
,,,,,,,,,,,,,,,88555,001,2022-04-26_18h28.36.332,SPAMnetsValid,2021.1.4,MacIntel,55.55555556,,,,,,,,,,,,,,,,,,,,,,,,,,,,,,,,,,,,,,,,,,,,,,,,,,,,pillow fights,pillow,1,0,1,0,1,,,,,,,,,,,,,,,,,,,,,,,,
,,,,,,,,,,,,,,,88555,001,2022-04-26_18h28.36.332,SPAMnetsValid,2021.1.4,MacIntel,55.55555556,,,,,,,,,,,,,,,,,,,,,,,,,,,,,,,,,,,,,,,,,,,,,,,,,,,,table,pillow,2,0,2,0,1,,,,,,,,,,,,,,,,,,,,,,,,
,,,,,,,,,,,,,,,88555,001,2022-04-26_18h28.36.332,SPAMnetsValid,2021.1.4,MacIntel,55.55555556,,,,,,,,,,,,,,,,,,,,,,,,,,,,,,,,,,,,,,,,,,,,,,,,,,,,,,,,,,,0,2,2,2,1,pillow,,,,,,,,,,,,,,,,,,
,,,,,,,,,,,,,,,88555,001,2022-04-26_18h28.36.332,SPAMnetsValid,2021.1.4,MacIntel,55.55555556,,,,,,,,,,,,,,,,,,,,,,,,,,,,,,,,,,,,,,,,,,,,,,,,,,,,,,,,,,,,,,,,,0,0,0,0,1,Animals,,,,,,,,,,,,
,,,,,,,,,,,,,,,88555,001,2022-04-26_18h28.36.332,SPAMnetsValid,2021.1.4,MacIntel,55.55555556,,,,,,,,,,,,,,,,,,,,,,,,,,,,,,,,,,,,,,,,,,,,,,,,,,,,,,,,,,,,,,,,,,,,,,,4,5.334,0,0,0,0,1,"I enjoy concentrating on a fantasy or daydream and exploring all its possibilities, letting it grow and develop.",0,1,,
,,,,,,,,,,,,,,,88555,001,2022-04-26_18h28.36.332,SPAMnetsValid,2021.1.4,MacIntel,55.55555556,,,,,,,,,,,,,,,,,,,,,,,,,,,,,,,,,,,,,,,,,,,,,,,,,,,,,,,,,,,,,,,,,,,,,,,3,3.76,0,1,1,1,1,I think it's interesting to learn and develop new hobbies.,0,2,,
,,,,,,,,,,,,,,,88555,001,2022-04-26_18h28.36.332,SPAMnetsValid,2021.1.4,MacIntel,55.55555556,,,,,,,,,,,,,,,,,,,,,,,,,,,,,,,,,,,,,,,,,,,,,,,,,,,,,,,,,,,,,,,,,,,,,,,4,2.959,0,2,2,2,1,I am intrigued by the patterns I find in art and nature.,0,3,,
,,,,,,,,,,,,,,,88555,001,2022-04-26_18h28.36.332,SPAMnetsValid,2021.1.4,MacIntel,55.55555556,,,,,,,,,,,,,,,,,,,,,,,,,,,,,,,,,,,,,,,,,,,,,,,,,,,,,,,,,,,,,,,,,,,,,,,2,4.81,0,3,3,3,1,I believe letting students hear controversial speakers can only confuse and mislead them.,1,4,,
,,,,,,,,,,,,,,,88555,001,2022-04-26_18h28.36.332,SPAMnetsValid,2021.1.4,MacIntel,55.55555556,,,,,,,,,,,,,,,,,,,,,,,,,,,,,,,,,,,,,,,,,,,,,,,,,,,,,,,,,,,,,,,,,,,,,,,2,1.825,0,4,4,4,1,Poetry has little or no effect on me.,1,5,,
,,,,,,,,,,,,,,,88555,001,2022-04-26_18h28.36.332,SPAMnetsValid,2021.1.4,MacIntel,55.55555556,,,,,,,,,,,,,,,,,,,,,,,,,,,,,,,,,,,,,,,,,,,,,,,,,,,,,,,,,,,,,,,,,,,,,,,4,8.509,0,5,5,5,1,I would have difficulty just letting my mind wander without control or guidance.,1,6,,
,,,,,,,,,,,,,,,88555,001,2022-04-26_18h28.36.332,SPAMnetsValid,2021.1.4,MacIntel,55.55555556,,,,,,,,,,,,,,,,,,,,,,,,,,,,,,,,,,,,,,,,,,,,,,,,,,,,,,,,,,,,,,,,,,,,,,,5,2.66,0,6,6,6,1,I seldom notice the moods or feelings that different environments produce.,1,7,,
,,,,,,,,,,,,,,,88555,001,2022-04-26_18h28.36.332,SPAMnetsValid,2021.1.4,MacIntel,55.55555556,,,,,,,,,,,,,,,,,,,,,,,,,,,,,,,,,,,,,,,,,,,,,,,,,,,,,,,,,,,,,,,,,,,,,,,4,3.063,0,7,7,7,1,I experience a wide range of emotions or feelings.,0,8,,
,,,,,,,,,,,,,,,88555,001,2022-04-26_18h28.36.332,SPAMnetsValid,2021.1.4,MacIntel,55.55555556,,,,,,,,,,,,,,,,,,,,,,,,,,,,,,,,,,,,,,,,,,,,,,,,,,,,,,,,,,,,,,,,,,,,,,,1,3.226,0,8,8,8,1,"Sometimes when I am reading poetry or looking at a work of art, I feel a chill or wave of excitement.",0,9,,
,,,,,,,,,,,,,,,88555,001,2022-04-26_18h28.36.332,SPAMnetsValid,2021.1.4,MacIntel,55.55555556,,,,,,,,,,,,,,,,,,,,,,,,,,,,,,,,,,,,,,,,,,,,,,,,,,,,,,,,,,,,,,,,,,,,,,,2,2.858,0,9,9,9,1,I have little interest in speculating on the nature of the universe or the human condition.,1,10,,
,,,,,,,,,,,,,,,88555,001,2022-04-26_18h28.36.332,SPAMnetsValid,2021.1.4,MacIntel,55.55555556,,,,,,,,,,,,,,,,,,,,,,,,,,,,,,,,,,,,,,,,,,,,,,,,,,,,,,,,,,,,,,,,,,,,,,,4,3.308,0,10,10,10,1,I have a lot of intellectual curiosity.,0,11,,
,,,,,,,,,,,,,,,88555,001,2022-04-26_18h28.36.332,SPAMnetsValid,2021.1.4,MacIntel,55.55555556,,,,,,,,,,,,,,,,,,,,,,,,,,,,,,,,,,,,,,,,,,,,,,,,,,,,,,,,,,,,,,,,,,,,,,,5,3.842,0,11,11,11,1,I often enjoy playing with theories or abstract ideas.,0,12,,
,,,,,,,,,,,,,,,88555,001,2022-04-26_18h28.36.332,SPAMnetsValid,2021.1.4,MacIntel,55.55555556,,,,,,,,,,,,,,,,,,,,,,,,,,,,,,,,,,,,,,,,,,,,,,,,,,,,,,,,,,,,,,,,,,,,,,,,,,,,,,,,,return,25.905
