key_resp_3.keys,key_resp_3.rt,slider_2.response,slider_2.rt,rjt_rating,rjt_RT,trials_24.thisRepN,trials_24.thisTrialN,trials_24.thisN,trials_24.thisIndex,trials_24.ran,rjt_order,word1,word2,attention,participant,session,date,expName,psychopyVersion,OS,frameRate,trials_4.thisRepN,trials_4.thisTrialN,trials_4.thisN,trials_4.thisIndex,trials_4.ran,trials_5.thisRepN,trials_5.thisTrialN,trials_5.thisN,trials_5.thisIndex,trials_5.ran,repOne,repTwo,slider.response,slider.rt,trials_22.thisRepN,trials_22.thisTrialN,trials_22.thisN,trials_22.thisIndex,trials_22.ran,trials_99.thisRepN,trials_99.thisTrialN,trials_99.thisN,trials_99.thisIndex,trials_99.ran,slider_extend_2.response,slider_extend_2.rt,trials_6.thisRepN,trials_6.thisTrialN,trials_6.thisN,trials_6.thisIndex,trials_6.ran,vCue2,R1,R2,R3,R4,correct,sliderVocab.response,sliderVocab.rt,trials_7.thisRepN,trials_7.thisTrialN,trials_7.thisN,trials_7.thisIndex,trials_7.ran,VocabCue,VR1,VR2,VR3,VR4,VR5,VocabCorrect,AUT_resp,AUT_label,trials.thisRepN,trials.thisTrialN,trials.thisN,trials.thisIndex,trials.ran,trials_2.thisRepN,trials_2.thisTrialN,trials_2.thisN,trials_2.thisIndex,trials_2.ran,aut_prompt,trials_17.thisRepN,trials_17.thisTrialN,trials_17.thisN,trials_17.thisIndex,trials_17.ran,VFcond,open_slider.response,open_slider.rt,trials_3.thisRepN,trials_3.thisTrialN,trials_3.thisN,trials_3.thisIndex,trials_3.ran,OpenQ,Rev,OPEN_ORDER,key_resp_2.keys,key_resp_2.rt
return,0.971799999,6,7.9495,6,7.9495,0,0,0,45,1,179,broom,oven,,88601,001,2022-04-25_15h43.54.077,SPAMnetsValid,2021.1.4,Win32,59.23117929,,,,,,,,,,,,,,,,,,,,,,,,,,,,,,,,,,,,,,,,,,,,,,,,,,,,,,,,,,,,,,,,,,,,,,,,,,,,,,,,,,
,,6,5.9114,6,5.9114,0,1,1,78,1,132,broom,tree,,88601,001,2022-04-25_15h43.54.077,SPAMnetsValid,2021.1.4,Win32,59.23117929,,,,,,,,,,,,,,,,,,,,,,,,,,,,,,,,,,,,,,,,,,,,,,,,,,,,,,,,,,,,,,,,,,,,,,,,,,,,,,,,,,
,,4,1.3354,4,1.3354,0,2,2,62,1,189,onion,tree,,88601,001,2022-04-25_15h43.54.077,SPAMnetsValid,2021.1.4,Win32,59.23117929,,,,,,,,,,,,,,,,,,,,,,,,,,,,,,,,,,,,,,,,,,,,,,,,,,,,,,,,,,,,,,,,,,,,,,,,,,,,,,,,,,
,,7,1.5687,7,1.5687,0,3,3,75,1,178,cactus,carrot,,88601,001,2022-04-25_15h43.54.077,SPAMnetsValid,2021.1.4,Win32,59.23117929,,,,,,,,,,,,,,,,,,,,,,,,,,,,,,,,,,,,,,,,,,,,,,,,,,,,,,,,,,,,,,,,,,,,,,,,,,,,,,,,,,
,,2,1.4333,2,1.4333,0,4,4,16,1,111,carrot,microwave,,88601,001,2022-04-25_15h43.54.077,SPAMnetsValid,2021.1.4,Win32,59.23117929,,,,,,,,,,,,,,,,,,,,,,,,,,,,,,,,,,,,,,,,,,,,,,,,,,,,,,,,,,,,,,,,,,,,,,,,,,,,,,,,,,
,,6,1.888400001,6,1.888400001,0,5,5,33,1,131,cactus,garden,,88601,001,2022-04-25_15h43.54.077,SPAMnetsValid,2021.1.4,Win32,59.23117929,,,,,,,,,,,,,,,,,,,,,,,,,,,,,,,,,,,,,,,,,,,,,,,,,,,,,,,,,,,,,,,,,,,,,,,,,,,,,,,,,,
,,8,1.790299999,8,1.790299999,0,6,6,17,1,99,garden,melon,,88601,001,2022-04-25_15h43.54.077,SPAMnetsValid,2021.1.4,Win32,59.23117929,,,,,,,,,,,,,,,,,,,,,,,,,,,,,,,,,,,,,,,,,,,,,,,,,,,,,,,,,,,,,,,,,,,,,,,,,,,,,,,,,,
,,3,2.121599999,3,2.121599999,0,7,7,84,1,130,microwave,yogurt,,88601,001,2022-04-25_15h43.54.077,SPAMnetsValid,2021.1.4,Win32,59.23117929,,,,,,,,,,,,,,,,,,,,,,,,,,,,,,,,,,,,,,,,,,,,,,,,,,,,,,,,,,,,,,,,,,,,,,,,,,,,,,,,,,
,,6,2.0688,6,2.0688,0,8,8,30,1,125,carrot,tree,,88601,001,2022-04-25_15h43.54.077,SPAMnetsValid,2021.1.4,Win32,59.23117929,,,,,,,,,,,,,,,,,,,,,,,,,,,,,,,,,,,,,,,,,,,,,,,,,,,,,,,,,,,,,,,,,,,,,,,,,,,,,,,,,,
,,4,1.8379,4,1.8379,0,9,9,21,1,159,cookie,flower,,88601,001,2022-04-25_15h43.54.077,SPAMnetsValid,2021.1.4,Win32,59.23117929,,,,,,,,,,,,,,,,,,,,,,,,,,,,,,,,,,,,,,,,,,,,,,,,,,,,,,,,,,,,,,,,,,,,,,,,,,,,,,,,,,
,,3,1.4968,3,1.4968,0,10,10,37,1,139,carrot,strawberry,,88601,001,2022-04-25_15h43.54.077,SPAMnetsValid,2021.1.4,Win32,59.23117929,,,,,,,,,,,,,,,,,,,,,,,,,,,,,,,,,,,,,,,,,,,,,,,,,,,,,,,,,,,,,,,,,,,,,,,,,,,,,,,,,,
,,7,1.8691,7,1.8691,0,11,11,23,1,148,flower,melon,,88601,001,2022-04-25_15h43.54.077,SPAMnetsValid,2021.1.4,Win32,59.23117929,,,,,,,,,,,,,,,,,,,,,,,,,,,,,,,,,,,,,,,,,,,,,,,,,,,,,,,,,,,,,,,,,,,,,,,,,,,,,,,,,,
,,6,1.8277,6,1.8277,0,12,12,53,1,177,chocolate,strawberry,,88601,001,2022-04-25_15h43.54.077,SPAMnetsValid,2021.1.4,Win32,59.23117929,,,,,,,,,,,,,,,,,,,,,,,,,,,,,,,,,,,,,,,,,,,,,,,,,,,,,,,,,,,,,,,,,,,,,,,,,,,,,,,,,,
,,3,2.6198,3,2.6198,0,13,13,73,1,135,carrot,oven,,88601,001,2022-04-25_15h43.54.077,SPAMnetsValid,2021.1.4,Win32,59.23117929,,,,,,,,,,,,,,,,,,,,,,,,,,,,,,,,,,,,,,,,,,,,,,,,,,,,,,,,,,,,,,,,,,,,,,,,,,,,,,,,,,
,,6,1.6035,6,1.6035,0,14,14,35,1,147,cake,refrigerator,,88601,001,2022-04-25_15h43.54.077,SPAMnetsValid,2021.1.4,Win32,59.23117929,,,,,,,,,,,,,,,,,,,,,,,,,,,,,,,,,,,,,,,,,,,,,,,,,,,,,,,,,,,,,,,,,,,,,,,,,,,,,,,,,,
,,4,1.403400001,4,1.403400001,0,15,15,87,1,114,cookie,strawberry,,88601,001,2022-04-25_15h43.54.077,SPAMnetsValid,2021.1.4,Win32,59.23117929,,,,,,,,,,,,,,,,,,,,,,,,,,,,,,,,,,,,,,,,,,,,,,,,,,,,,,,,,,,,,,,,,,,,,,,,,,,,,,,,,,
,,6,1.6288,6,1.6288,0,16,16,65,1,160,cookie,kitchen,,88601,001,2022-04-25_15h43.54.077,SPAMnetsValid,2021.1.4,Win32,59.23117929,,,,,,,,,,,,,,,,,,,,,,,,,,,,,,,,,,,,,,,,,,,,,,,,,,,,,,,,,,,,,,,,,,,,,,,,,,,,,,,,,,
,,7,2.0563,7,2.0563,0,17,17,12,1,162,microwave,tomato,,88601,001,2022-04-25_15h43.54.077,SPAMnetsValid,2021.1.4,Win32,59.23117929,,,,,,,,,,,,,,,,,,,,,,,,,,,,,,,,,,,,,,,,,,,,,,,,,,,,,,,,,,,,,,,,,,,,,,,,,,,,,,,,,,
,,6,10.2028,6,10.2028,0,18,18,93,1,134,carrot,flower,,88601,001,2022-04-25_15h43.54.077,SPAMnetsValid,2021.1.4,Win32,59.23117929,,,,,,,,,,,,,,,,,,,,,,,,,,,,,,,,,,,,,,,,,,,,,,,,,,,,,,,,,,,,,,,,,,,,,,,,,,,,,,,,,,
,,4,1.4355,4,1.4355,0,19,19,36,1,161,kitchen,pretzel,,88601,001,2022-04-25_15h43.54.077,SPAMnetsValid,2021.1.4,Win32,59.23117929,,,,,,,,,,,,,,,,,,,,,,,,,,,,,,,,,,,,,,,,,,,,,,,,,,,,,,,,,,,,,,,,,,,,,,,,,,,,,,,,,,
,,6,2.3142,6,2.3142,0,20,20,57,1,127,cactus,chocolate,,88601,001,2022-04-25_15h43.54.077,SPAMnetsValid,2021.1.4,Win32,59.23117929,,,,,,,,,,,,,,,,,,,,,,,,,,,,,,,,,,,,,,,,,,,,,,,,,,,,,,,,,,,,,,,,,,,,,,,,,,,,,,,,,,
,,4,1.396,4,1.396,0,21,21,82,1,98,pretzel,strawberry,,88601,001,2022-04-25_15h43.54.077,SPAMnetsValid,2021.1.4,Win32,59.23117929,,,,,,,,,,,,,,,,,,,,,,,,,,,,,,,,,,,,,,,,,,,,,,,,,,,,,,,,,,,,,,,,,,,,,,,,,,,,,,,,,,
,,6,1.6201,6,1.6201,0,22,22,34,1,153,carrot,pretzel,,88601,001,2022-04-25_15h43.54.077,SPAMnetsValid,2021.1.4,Win32,59.23117929,,,,,,,,,,,,,,,,,,,,,,,,,,,,,,,,,,,,,,,,,,,,,,,,,,,,,,,,,,,,,,,,,,,,,,,,,,,,,,,,,,
,,6,1.9354,6,1.9354,0,23,23,76,1,102,chocolate,refrigerator,,88601,001,2022-04-25_15h43.54.077,SPAMnetsValid,2021.1.4,Win32,59.23117929,,,,,,,,,,,,,,,,,,,,,,,,,,,,,,,,,,,,,,,,,,,,,,,,,,,,,,,,,,,,,,,,,,,,,,,,,,,,,,,,,,
,,5,1.2497,5,1.2497,0,24,24,15,1,145,cactus,yogurt,,88601,001,2022-04-25_15h43.54.077,SPAMnetsValid,2021.1.4,Win32,59.23117929,,,,,,,,,,,,,,,,,,,,,,,,,,,,,,,,,,,,,,,,,,,,,,,,,,,,,,,,,,,,,,,,,,,,,,,,,,,,,,,,,,
,,4,3.932400001,4,3.932400001,0,25,25,6,1,151,microwave,onion,,88601,001,2022-04-25_15h43.54.077,SPAMnetsValid,2021.1.4,Win32,59.23117929,,,,,,,,,,,,,,,,,,,,,,,,,,,,,,,,,,,,,,,,,,,,,,,,,,,,,,,,,,,,,,,,,,,,,,,,,,,,,,,,,,
,,9,1.531799999,9,1.531799999,0,26,26,69,1,124,oven,refrigerator,,88601,001,2022-04-25_15h43.54.077,SPAMnetsValid,2021.1.4,Win32,59.23117929,,,,,,,,,,,,,,,,,,,,,,,,,,,,,,,,,,,,,,,,,,,,,,,,,,,,,,,,,,,,,,,,,,,,,,,,,,,,,,,,,,
,,3,1.702900001,3,1.702900001,0,27,27,0,1,106,cake,strawberry,,88601,001,2022-04-25_15h43.54.077,SPAMnetsValid,2021.1.4,Win32,59.23117929,,,,,,,,,,,,,,,,,,,,,,,,,,,,,,,,,,,,,,,,,,,,,,,,,,,,,,,,,,,,,,,,,,,,,,,,,,,,,,,,,,
,,7,1.748599999,7,1.748599999,0,28,28,29,1,163,melon,refrigerator,,88601,001,2022-04-25_15h43.54.077,SPAMnetsValid,2021.1.4,Win32,59.23117929,,,,,,,,,,,,,,,,,,,,,,,,,,,,,,,,,,,,,,,,,,,,,,,,,,,,,,,,,,,,,,,,,,,,,,,,,,,,,,,,,,
,,8,1.5182,8,1.5182,0,29,29,92,1,170,cookie,microwave,,88601,001,2022-04-25_15h43.54.077,SPAMnetsValid,2021.1.4,Win32,59.23117929,,,,,,,,,,,,,,,,,,,,,,,,,,,,,,,,,,,,,,,,,,,,,,,,,,,,,,,,,,,,,,,,,,,,,,,,,,,,,,,,,,
,,7,1.6025,7,1.6025,0,30,30,25,1,194,cactus,cactus,CHECK,88601,001,2022-04-25_15h43.54.077,SPAMnetsValid,2021.1.4,Win32,59.23117929,,,,,,,,,,,,,,,,,,,,,,,,,,,,,,,,,,,,,,,,,,,,,,,,,,,,,,,,,,,,,,,,,,,,,,,,,,,,,,,,,,
,,3,1.5858,3,1.5858,0,31,31,5,1,108,carrot,chocolate,,88601,001,2022-04-25_15h43.54.077,SPAMnetsValid,2021.1.4,Win32,59.23117929,,,,,,,,,,,,,,,,,,,,,,,,,,,,,,,,,,,,,,,,,,,,,,,,,,,,,,,,,,,,,,,,,,,,,,,,,,,,,,,,,,
,,2,1.470200001,2,1.470200001,0,32,32,7,1,188,flower,tree,,88601,001,2022-04-25_15h43.54.077,SPAMnetsValid,2021.1.4,Win32,59.23117929,,,,,,,,,,,,,,,,,,,,,,,,,,,,,,,,,,,,,,,,,,,,,,,,,,,,,,,,,,,,,,,,,,,,,,,,,,,,,,,,,,
,,8,1.850400001,8,1.850400001,0,33,33,18,1,119,strawberry,tree,,88601,001,2022-04-25_15h43.54.077,SPAMnetsValid,2021.1.4,Win32,59.23117929,,,,,,,,,,,,,,,,,,,,,,,,,,,,,,,,,,,,,,,,,,,,,,,,,,,,,,,,,,,,,,,,,,,,,,,,,,,,,,,,,,
,,6,2.3798,6,2.3798,0,34,34,61,1,138,flower,rose,,88601,001,2022-04-25_15h43.54.077,SPAMnetsValid,2021.1.4,Win32,59.23117929,,,,,,,,,,,,,,,,,,,,,,,,,,,,,,,,,,,,,,,,,,,,,,,,,,,,,,,,,,,,,,,,,,,,,,,,,,,,,,,,,,
,,6,18.4913,6,18.4913,0,35,35,51,1,168,cactus,flower,,88601,001,2022-04-25_15h43.54.077,SPAMnetsValid,2021.1.4,Win32,59.23117929,,,,,,,,,,,,,,,,,,,,,,,,,,,,,,,,,,,,,,,,,,,,,,,,,,,,,,,,,,,,,,,,,,,,,,,,,,,,,,,,,,
,,4,1.2625,4,1.2625,0,36,36,67,1,96,oven,strawberry,,88601,001,2022-04-25_15h43.54.077,SPAMnetsValid,2021.1.4,Win32,59.23117929,,,,,,,,,,,,,,,,,,,,,,,,,,,,,,,,,,,,,,,,,,,,,,,,,,,,,,,,,,,,,,,,,,,,,,,,,,,,,,,,,,
,,8,1.7393,8,1.7393,0,37,37,22,1,142,garden,tree,,88601,001,2022-04-25_15h43.54.077,SPAMnetsValid,2021.1.4,Win32,59.23117929,,,,,,,,,,,,,,,,,,,,,,,,,,,,,,,,,,,,,,,,,,,,,,,,,,,,,,,,,,,,,,,,,,,,,,,,,,,,,,,,,,
,,9,1.6831,9,1.6831,0,38,38,19,1,183,cake,rose,,88601,001,2022-04-25_15h43.54.077,SPAMnetsValid,2021.1.4,Win32,59.23117929,,,,,,,,,,,,,,,,,,,,,,,,,,,,,,,,,,,,,,,,,,,,,,,,,,,,,,,,,,,,,,,,,,,,,,,,,,,,,,,,,,
,,7,1.7048,7,1.7048,0,39,39,32,1,182,flower,refrigerator,,88601,001,2022-04-25_15h43.54.077,SPAMnetsValid,2021.1.4,Win32,59.23117929,,,,,,,,,,,,,,,,,,,,,,,,,,,,,,,,,,,,,,,,,,,,,,,,,,,,,,,,,,,,,,,,,,,,,,,,,,,,,,,,,,
,,3,1.8198,3,1.8198,0,40,40,1,1,173,kitchen,tomato,,88601,001,2022-04-25_15h43.54.077,SPAMnetsValid,2021.1.4,Win32,59.23117929,,,,,,,,,,,,,,,,,,,,,,,,,,,,,,,,,,,,,,,,,,,,,,,,,,,,,,,,,,,,,,,,,,,,,,,,,,,,,,,,,,
,,7,1.9822,7,1.9822,0,41,41,95,1,121,broom,microwave,,88601,001,2022-04-25_15h43.54.077,SPAMnetsValid,2021.1.4,Win32,59.23117929,,,,,,,,,,,,,,,,,,,,,,,,,,,,,,,,,,,,,,,,,,,,,,,,,,,,,,,,,,,,,,,,,,,,,,,,,,,,,,,,,,
,,7,1.4872,7,1.4872,0,42,42,80,1,146,pretzel,tree,,88601,001,2022-04-25_15h43.54.077,SPAMnetsValid,2021.1.4,Win32,59.23117929,,,,,,,,,,,,,,,,,,,,,,,,,,,,,,,,,,,,,,,,,,,,,,,,,,,,,,,,,,,,,,,,,,,,,,,,,,,,,,,,,,
,,7,1.7908,7,1.7908,0,43,43,86,1,193,melon,melon,CHECK,88601,001,2022-04-25_15h43.54.077,SPAMnetsValid,2021.1.4,Win32,59.23117929,,,,,,,,,,,,,,,,,,,,,,,,,,,,,,,,,,,,,,,,,,,,,,,,,,,,,,,,,,,,,,,,,,,,,,,,,,,,,,,,,,
,,7,1.858400001,7,1.858400001,0,44,44,96,1,136,chocolate,microwave,,88601,001,2022-04-25_15h43.54.077,SPAMnetsValid,2021.1.4,Win32,59.23117929,,,,,,,,,,,,,,,,,,,,,,,,,,,,,,,,,,,,,,,,,,,,,,,,,,,,,,,,,,,,,,,,,,,,,,,,,,,,,,,,,,
,,3,1.3878,3,1.3878,0,45,45,70,1,141,melon,tomato,,88601,001,2022-04-25_15h43.54.077,SPAMnetsValid,2021.1.4,Win32,59.23117929,,,,,,,,,,,,,,,,,,,,,,,,,,,,,,,,,,,,,,,,,,,,,,,,,,,,,,,,,,,,,,,,,,,,,,,,,,,,,,,,,,
,,7,1.697900001,7,1.697900001,0,46,46,11,1,117,melon,strawberry,,88601,001,2022-04-25_15h43.54.077,SPAMnetsValid,2021.1.4,Win32,59.23117929,,,,,,,,,,,,,,,,,,,,,,,,,,,,,,,,,,,,,,,,,,,,,,,,,,,,,,,,,,,,,,,,,,,,,,,,,,,,,,,,,,
,,6,1.270099999,6,1.270099999,0,47,47,81,1,104,garden,microwave,,88601,001,2022-04-25_15h43.54.077,SPAMnetsValid,2021.1.4,Win32,59.23117929,,,,,,,,,,,,,,,,,,,,,,,,,,,,,,,,,,,,,,,,,,,,,,,,,,,,,,,,,,,,,,,,,,,,,,,,,,,,,,,,,,
,,9,1.3856,9,1.3856,0,48,48,9,1,176,cactus,tomato,,88601,001,2022-04-25_15h43.54.077,SPAMnetsValid,2021.1.4,Win32,59.23117929,,,,,,,,,,,,,,,,,,,,,,,,,,,,,,,,,,,,,,,,,,,,,,,,,,,,,,,,,,,,,,,,,,,,,,,,,,,,,,,,,,
,,2,2.0445,2,2.0445,0,49,49,56,1,113,refrigerator,strawberry,,88601,001,2022-04-25_15h43.54.077,SPAMnetsValid,2021.1.4,Win32,59.23117929,,,,,,,,,,,,,,,,,,,,,,,,,,,,,,,,,,,,,,,,,,,,,,,,,,,,,,,,,,,,,,,,,,,,,,,,,,,,,,,,,,
,,8,3.3196,8,3.3196,0,50,50,31,1,156,melon,rose,,88601,001,2022-04-25_15h43.54.077,SPAMnetsValid,2021.1.4,Win32,59.23117929,,,,,,,,,,,,,,,,,,,,,,,,,,,,,,,,,,,,,,,,,,,,,,,,,,,,,,,,,,,,,,,,,,,,,,,,,,,,,,,,,,
,,7,1.986599999,7,1.986599999,0,51,51,83,1,100,garden,tomato,,88601,001,2022-04-25_15h43.54.077,SPAMnetsValid,2021.1.4,Win32,59.23117929,,,,,,,,,,,,,,,,,,,,,,,,,,,,,,,,,,,,,,,,,,,,,,,,,,,,,,,,,,,,,,,,,,,,,,,,,,,,,,,,,,
,,3,2.3476,3,2.3476,0,52,52,60,1,122,flower,garden,,88601,001,2022-04-25_15h43.54.077,SPAMnetsValid,2021.1.4,Win32,59.23117929,,,,,,,,,,,,,,,,,,,,,,,,,,,,,,,,,,,,,,,,,,,,,,,,,,,,,,,,,,,,,,,,,,,,,,,,,,,,,,,,,,
,,6,1.4027,6,1.4027,0,53,53,24,1,169,onion,yogurt,,88601,001,2022-04-25_15h43.54.077,SPAMnetsValid,2021.1.4,Win32,59.23117929,,,,,,,,,,,,,,,,,,,,,,,,,,,,,,,,,,,,,,,,,,,,,,,,,,,,,,,,,,,,,,,,,,,,,,,,,,,,,,,,,,
,,8,1.443,8,1.443,0,54,54,58,1,144,cake,garden,,88601,001,2022-04-25_15h43.54.077,SPAMnetsValid,2021.1.4,Win32,59.23117929,,,,,,,,,,,,,,,,,,,,,,,,,,,,,,,,,,,,,,,,,,,,,,,,,,,,,,,,,,,,,,,,,,,,,,,,,,,,,,,,,,
,,9,1.451700001,9,1.451700001,0,55,55,3,1,129,cactus,refrigerator,,88601,001,2022-04-25_15h43.54.077,SPAMnetsValid,2021.1.4,Win32,59.23117929,,,,,,,,,,,,,,,,,,,,,,,,,,,,,,,,,,,,,,,,,,,,,,,,,,,,,,,,,,,,,,,,,,,,,,,,,,,,,,,,,,
,,1,1.549099999,1,1.549099999,0,56,56,26,1,107,rose,tomato,,88601,001,2022-04-25_15h43.54.077,SPAMnetsValid,2021.1.4,Win32,59.23117929,,,,,,,,,,,,,,,,,,,,,,,,,,,,,,,,,,,,,,,,,,,,,,,,,,,,,,,,,,,,,,,,,,,,,,,,,,,,,,,,,,
,,2,1.5509,2,1.5509,0,57,57,94,1,133,cake,flower,,88601,001,2022-04-25_15h43.54.077,SPAMnetsValid,2021.1.4,Win32,59.23117929,,,,,,,,,,,,,,,,,,,,,,,,,,,,,,,,,,,,,,,,,,,,,,,,,,,,,,,,,,,,,,,,,,,,,,,,,,,,,,,,,,
,,4,1.1852,4,1.1852,0,58,58,40,1,165,onion,rose,,88601,001,2022-04-25_15h43.54.077,SPAMnetsValid,2021.1.4,Win32,59.23117929,,,,,,,,,,,,,,,,,,,,,,,,,,,,,,,,,,,,,,,,,,,,,,,,,,,,,,,,,,,,,,,,,,,,,,,,,,,,,,,,,,
,,6,1.4852,6,1.4852,0,59,59,13,1,105,cactus,oven,,88601,001,2022-04-25_15h43.54.077,SPAMnetsValid,2021.1.4,Win32,59.23117929,,,,,,,,,,,,,,,,,,,,,,,,,,,,,,,,,,,,,,,,,,,,,,,,,,,,,,,,,,,,,,,,,,,,,,,,,,,,,,,,,,
,,7,1.394900001,7,1.394900001,0,60,60,8,1,97,chocolate,kitchen,,88601,001,2022-04-25_15h43.54.077,SPAMnetsValid,2021.1.4,Win32,59.23117929,,,,,,,,,,,,,,,,,,,,,,,,,,,,,,,,,,,,,,,,,,,,,,,,,,,,,,,,,,,,,,,,,,,,,,,,,,,,,,,,,,
,,8,1.885,8,1.885,0,61,61,63,1,137,microwave,tree,,88601,001,2022-04-25_15h43.54.077,SPAMnetsValid,2021.1.4,Win32,59.23117929,,,,,,,,,,,,,,,,,,,,,,,,,,,,,,,,,,,,,,,,,,,,,,,,,,,,,,,,,,,,,,,,,,,,,,,,,,,,,,,,,,
,,9,1.4866,9,1.4866,0,62,62,2,1,174,cake,pretzel,,88601,001,2022-04-25_15h43.54.077,SPAMnetsValid,2021.1.4,Win32,59.23117929,,,,,,,,,,,,,,,,,,,,,,,,,,,,,,,,,,,,,,,,,,,,,,,,,,,,,,,,,,,,,,,,,,,,,,,,,,,,,,,,,,
,,7,1.532,7,1.532,0,63,63,55,1,143,pretzel,rose,,88601,001,2022-04-25_15h43.54.077,SPAMnetsValid,2021.1.4,Win32,59.23117929,,,,,,,,,,,,,,,,,,,,,,,,,,,,,,,,,,,,,,,,,,,,,,,,,,,,,,,,,,,,,,,,,,,,,,,,,,,,,,,,,,
,,7,1.5575,7,1.5575,0,64,64,90,1,190,microwave,strawberry,,88601,001,2022-04-25_15h43.54.077,SPAMnetsValid,2021.1.4,Win32,59.23117929,,,,,,,,,,,,,,,,,,,,,,,,,,,,,,,,,,,,,,,,,,,,,,,,,,,,,,,,,,,,,,,,,,,,,,,,,,,,,,,,,,
,,2,1.7268,2,1.7268,0,65,65,39,1,112,cake,carrot,,88601,001,2022-04-25_15h43.54.077,SPAMnetsValid,2021.1.4,Win32,59.23117929,,,,,,,,,,,,,,,,,,,,,,,,,,,,,,,,,,,,,,,,,,,,,,,,,,,,,,,,,,,,,,,,,,,,,,,,,,,,,,,,,,
,,7,1.7255,7,1.7255,0,66,66,4,1,109,broom,strawberry,,88601,001,2022-04-25_15h43.54.077,SPAMnetsValid,2021.1.4,Win32,59.23117929,,,,,,,,,,,,,,,,,,,,,,,,,,,,,,,,,,,,,,,,,,,,,,,,,,,,,,,,,,,,,,,,,,,,,,,,,,,,,,,,,,
,,6,2.4657,6,2.4657,0,67,67,14,1,120,microwave,oven,,88601,001,2022-04-25_15h43.54.077,SPAMnetsValid,2021.1.4,Win32,59.23117929,,,,,,,,,,,,,,,,,,,,,,,,,,,,,,,,,,,,,,,,,,,,,,,,,,,,,,,,,,,,,,,,,,,,,,,,,,,,,,,,,,
,,3,1.4868,3,1.4868,0,68,68,28,1,154,strawberry,yogurt,,88601,001,2022-04-25_15h43.54.077,SPAMnetsValid,2021.1.4,Win32,59.23117929,,,,,,,,,,,,,,,,,,,,,,,,,,,,,,,,,,,,,,,,,,,,,,,,,,,,,,,,,,,,,,,,,,,,,,,,,,,,,,,,,,
,,6,1.496400001,6,1.496400001,0,69,69,52,1,110,chocolate,cookie,,88601,001,2022-04-25_15h43.54.077,SPAMnetsValid,2021.1.4,Win32,59.23117929,,,,,,,,,,,,,,,,,,,,,,,,,,,,,,,,,,,,,,,,,,,,,,,,,,,,,,,,,,,,,,,,,,,,,,,,,,,,,,,,,,
,,3,1.3193,3,1.3193,0,70,70,71,1,187,cactus,microwave,,88601,001,2022-04-25_15h43.54.077,SPAMnetsValid,2021.1.4,Win32,59.23117929,,,,,,,,,,,,,,,,,,,,,,,,,,,,,,,,,,,,,,,,,,,,,,,,,,,,,,,,,,,,,,,,,,,,,,,,,,,,,,,,,,
,,8,2.9001,8,2.9001,0,71,71,74,1,128,melon,microwave,,88601,001,2022-04-25_15h43.54.077,SPAMnetsValid,2021.1.4,Win32,59.23117929,,,,,,,,,,,,,,,,,,,,,,,,,,,,,,,,,,,,,,,,,,,,,,,,,,,,,,,,,,,,,,,,,,,,,,,,,,,,,,,,,,
,,7,1.6846,7,1.6846,0,72,72,77,1,172,kitchen,melon,,88601,001,2022-04-25_15h43.54.077,SPAMnetsValid,2021.1.4,Win32,59.23117929,,,,,,,,,,,,,,,,,,,,,,,,,,,,,,,,,,,,,,,,,,,,,,,,,,,,,,,,,,,,,,,,,,,,,,,,,,,,,,,,,,
,,9,1.3321,9,1.3321,0,73,73,85,1,115,refrigerator,tomato,,88601,001,2022-04-25_15h43.54.077,SPAMnetsValid,2021.1.4,Win32,59.23117929,,,,,,,,,,,,,,,,,,,,,,,,,,,,,,,,,,,,,,,,,,,,,,,,,,,,,,,,,,,,,,,,,,,,,,,,,,,,,,,,,,
,,7,1.4981,7,1.4981,0,74,74,41,1,175,melon,onion,,88601,001,2022-04-25_15h43.54.077,SPAMnetsValid,2021.1.4,Win32,59.23117929,,,,,,,,,,,,,,,,,,,,,,,,,,,,,,,,,,,,,,,,,,,,,,,,,,,,,,,,,,,,,,,,,,,,,,,,,,,,,,,,,,
,,3,1.373700001,3,1.373700001,0,75,75,54,1,101,cactus,kitchen,,88601,001,2022-04-25_15h43.54.077,SPAMnetsValid,2021.1.4,Win32,59.23117929,,,,,,,,,,,,,,,,,,,,,,,,,,,,,,,,,,,,,,,,,,,,,,,,,,,,,,,,,,,,,,,,,,,,,,,,,,,,,,,,,,
,,4,2.2652,4,2.2652,0,76,76,42,1,184,oven,pretzel,,88601,001,2022-04-25_15h43.54.077,SPAMnetsValid,2021.1.4,Win32,59.23117929,,,,,,,,,,,,,,,,,,,,,,,,,,,,,,,,,,,,,,,,,,,,,,,,,,,,,,,,,,,,,,,,,,,,,,,,,,,,,,,,,,
,,6,1.4034,6,1.4034,0,77,77,49,1,152,cactus,strawberry,,88601,001,2022-04-25_15h43.54.077,SPAMnetsValid,2021.1.4,Win32,59.23117929,,,,,,,,,,,,,,,,,,,,,,,,,,,,,,,,,,,,,,,,,,,,,,,,,,,,,,,,,,,,,,,,,,,,,,,,,,,,,,,,,,
,,7,1.1994,7,1.1994,0,78,78,48,1,186,kitchen,yogurt,,88601,001,2022-04-25_15h43.54.077,SPAMnetsValid,2021.1.4,Win32,59.23117929,,,,,,,,,,,,,,,,,,,,,,,,,,,,,,,,,,,,,,,,,,,,,,,,,,,,,,,,,,,,,,,,,,,,,,,,,,,,,,,,,,
,,8,1.7687,8,1.7687,0,79,79,79,1,103,pretzel,tomato,,88601,001,2022-04-25_15h43.54.077,SPAMnetsValid,2021.1.4,Win32,59.23117929,,,,,,,,,,,,,,,,,,,,,,,,,,,,,,,,,,,,,,,,,,,,,,,,,,,,,,,,,,,,,,,,,,,,,,,,,,,,,,,,,,
,,3,2.1686,3,2.1686,0,80,80,47,1,167,carrot,garden,,88601,001,2022-04-25_15h43.54.077,SPAMnetsValid,2021.1.4,Win32,59.23117929,,,,,,,,,,,,,,,,,,,,,,,,,,,,,,,,,,,,,,,,,,,,,,,,,,,,,,,,,,,,,,,,,,,,,,,,,,,,,,,,,,
,,4,1.575099999,4,1.575099999,0,81,81,44,1,116,cake,chocolate,,88601,001,2022-04-25_15h43.54.077,SPAMnetsValid,2021.1.4,Win32,59.23117929,,,,,,,,,,,,,,,,,,,,,,,,,,,,,,,,,,,,,,,,,,,,,,,,,,,,,,,,,,,,,,,,,,,,,,,,,,,,,,,,,,
,,1,1.1517,1,1.1517,0,82,82,50,1,126,kitchen,tree,,88601,001,2022-04-25_15h43.54.077,SPAMnetsValid,2021.1.4,Win32,59.23117929,,,,,,,,,,,,,,,,,,,,,,,,,,,,,,,,,,,,,,,,,,,,,,,,,,,,,,,,,,,,,,,,,,,,,,,,,,,,,,,,,,
,,8,2.2579,8,2.2579,0,83,83,27,1,158,cookie,oven,,88601,001,2022-04-25_15h43.54.077,SPAMnetsValid,2021.1.4,Win32,59.23117929,,,,,,,,,,,,,,,,,,,,,,,,,,,,,,,,,,,,,,,,,,,,,,,,,,,,,,,,,,,,,,,,,,,,,,,,,,,,,,,,,,
,,7,1.336,7,1.336,0,84,84,88,1,171,cake,tomato,,88601,001,2022-04-25_15h43.54.077,SPAMnetsValid,2021.1.4,Win32,59.23117929,,,,,,,,,,,,,,,,,,,,,,,,,,,,,,,,,,,,,,,,,,,,,,,,,,,,,,,,,,,,,,,,,,,,,,,,,,,,,,,,,,
,,9,1.502599999,9,1.502599999,0,85,85,10,1,118,chocolate,oven,,88601,001,2022-04-25_15h43.54.077,SPAMnetsValid,2021.1.4,Win32,59.23117929,,,,,,,,,,,,,,,,,,,,,,,,,,,,,,,,,,,,,,,,,,,,,,,,,,,,,,,,,,,,,,,,,,,,,,,,,,,,,,,,,,
,,7,2.2247,7,2.2247,0,86,86,91,1,166,cake,yogurt,,88601,001,2022-04-25_15h43.54.077,SPAMnetsValid,2021.1.4,Win32,59.23117929,,,,,,,,,,,,,,,,,,,,,,,,,,,,,,,,,,,,,,,,,,,,,,,,,,,,,,,,,,,,,,,,,,,,,,,,,,,,,,,,,,
,,6,1.7034,6,1.7034,0,87,87,59,1,164,cookie,garden,,88601,001,2022-04-25_15h43.54.077,SPAMnetsValid,2021.1.4,Win32,59.23117929,,,,,,,,,,,,,,,,,,,,,,,,,,,,,,,,,,,,,,,,,,,,,,,,,,,,,,,,,,,,,,,,,,,,,,,,,,,,,,,,,,
,,4,1.2057,4,1.2057,0,88,88,46,1,123,cookie,tree,,88601,001,2022-04-25_15h43.54.077,SPAMnetsValid,2021.1.4,Win32,59.23117929,,,,,,,,,,,,,,,,,,,,,,,,,,,,,,,,,,,,,,,,,,,,,,,,,,,,,,,,,,,,,,,,,,,,,,,,,,,,,,,,,,
,,3,2.425900001,3,2.425900001,0,89,89,89,1,140,cookie,refrigerator,,88601,001,2022-04-25_15h43.54.077,SPAMnetsValid,2021.1.4,Win32,59.23117929,,,,,,,,,,,,,,,,,,,,,,,,,,,,,,,,,,,,,,,,,,,,,,,,,,,,,,,,,,,,,,,,,,,,,,,,,,,,,,,,,,
,,6,1.471599999,6,1.471599999,0,90,90,66,1,150,microwave,refrigerator,,88601,001,2022-04-25_15h43.54.077,SPAMnetsValid,2021.1.4,Win32,59.23117929,,,,,,,,,,,,,,,,,,,,,,,,,,,,,,,,,,,,,,,,,,,,,,,,,,,,,,,,,,,,,,,,,,,,,,,,,,,,,,,,,,
,,6,1.233,6,1.233,0,91,91,72,1,181,carrot,kitchen,,88601,001,2022-04-25_15h43.54.077,SPAMnetsValid,2021.1.4,Win32,59.23117929,,,,,,,,,,,,,,,,,,,,,,,,,,,,,,,,,,,,,,,,,,,,,,,,,,,,,,,,,,,,,,,,,,,,,,,,,,,,,,,,,,
,,7,1.3856,7,1.3856,0,92,92,64,1,157,refrigerator,rose,,88601,001,2022-04-25_15h43.54.077,SPAMnetsValid,2021.1.4,Win32,59.23117929,,,,,,,,,,,,,,,,,,,,,,,,,,,,,,,,,,,,,,,,,,,,,,,,,,,,,,,,,,,,,,,,,,,,,,,,,,,,,,,,,,
,,8,1.4323,8,1.4323,0,93,93,38,1,155,carrot,cookie,,88601,001,2022-04-25_15h43.54.077,SPAMnetsValid,2021.1.4,Win32,59.23117929,,,,,,,,,,,,,,,,,,,,,,,,,,,,,,,,,,,,,,,,,,,,,,,,,,,,,,,,,,,,,,,,,,,,,,,,,,,,,,,,,,
,,3,1.4197,3,1.4197,0,94,94,20,1,149,broom,tomato,,88601,001,2022-04-25_15h43.54.077,SPAMnetsValid,2021.1.4,Win32,59.23117929,,,,,,,,,,,,,,,,,,,,,,,,,,,,,,,,,,,,,,,,,,,,,,,,,,,,,,,,,,,,,,,,,,,,,,,,,,,,,,,,,,
,,3,1.5354,3,1.5354,0,95,95,43,1,185,cactus,rose,,88601,001,2022-04-25_15h43.54.077,SPAMnetsValid,2021.1.4,Win32,59.23117929,,,,,,,,,,,,,,,,,,,,,,,,,,,,,,,,,,,,,,,,,,,,,,,,,,,,,,,,,,,,,,,,,,,,,,,,,,,,,,,,,,
,,1,1.410700001,1,1.410700001,0,96,96,68,1,180,tree,yogurt,,88601,001,2022-04-25_15h43.54.077,SPAMnetsValid,2021.1.4,Win32,59.23117929,,,,,,,,,,,,,,,,,,,,,,,,,,,,,,,,,,,,,,,,,,,,,,,,,,,,,,,,,,,,,,,,,,,,,,,,,,,,,,,,,,
,,,,,,,,,,,,,,,88601,001,2022-04-25_15h43.54.077,SPAMnetsValid,2021.1.4,Win32,59.23117929,0,0,0,0,1,,,,,,,,,,,,,,,,,,,,,,,,,,,,,,,,,,,,,,,,,,,,,,,,,,,,,,,,,,,,,,,,,,,,,,,,,,,,,
,,,,,,,,,,,,,,,88601,001,2022-04-25_15h43.54.077,SPAMnetsValid,2021.1.4,Win32,59.23117929,,,,,,0,0,0,1,1,0,1,,,,,,,,,,,,,,,,,,,,,,,,,,,,,,,,,,,,,,,,,,,,,,,,,,,,,,,,,,,,,,,,,,,,,,
,,,,6,2.3944,,,,,,84,oven,tomato,,88601,001,2022-04-25_15h43.54.077,SPAMnetsValid,2021.1.4,Win32,59.23117929,,,,,,,,,,,,,6,2.3944,0,0,0,28,1,,,,,,,,,,,,,,,,,,,,,,,,,,,,,,,,,,,,,,,,,,,,,,,,,,,,,,,,,,,,,,,
,,,,4,1.169099999,,,,,,73,broom,chocolate,,88601,001,2022-04-25_15h43.54.077,SPAMnetsValid,2021.1.4,Win32,59.23117929,,,,,,,,,,,,,4,1.169099999,0,1,1,47,1,,,,,,,,,,,,,,,,,,,,,,,,,,,,,,,,,,,,,,,,,,,,,,,,,,,,,,,,,,,,,,,
,,,,7,1.2518,,,,,,92,broom,flower,,88601,001,2022-04-25_15h43.54.077,SPAMnetsValid,2021.1.4,Win32,59.23117929,,,,,,,,,,,,,7,1.2518,0,2,2,88,1,,,,,,,,,,,,,,,,,,,,,,,,,,,,,,,,,,,,,,,,,,,,,,,,,,,,,,,,,,,,,,,
,,,,2,1.1551,,,,,,30,cookie,pretzel,,88601,001,2022-04-25_15h43.54.077,SPAMnetsValid,2021.1.4,Win32,59.23117929,,,,,,,,,,,,,2,1.1551,0,3,3,78,1,,,,,,,,,,,,,,,,,,,,,,,,,,,,,,,,,,,,,,,,,,,,,,,,,,,,,,,,,,,,,,,
,,,,8,1.256200001,,,,,,90,cactus,cake,,88601,001,2022-04-25_15h43.54.077,SPAMnetsValid,2021.1.4,Win32,59.23117929,,,,,,,,,,,,,8,1.256200001,0,4,4,85,1,,,,,,,,,,,,,,,,,,,,,,,,,,,,,,,,,,,,,,,,,,,,,,,,,,,,,,,,,,,,,,,
,,,,7,0.8524,,,,,,82,cake,kitchen,,88601,001,2022-04-25_15h43.54.077,SPAMnetsValid,2021.1.4,Win32,59.23117929,,,,,,,,,,,,,7,0.8524,0,5,5,96,1,,,,,,,,,,,,,,,,,,,,,,,,,,,,,,,,,,,,,,,,,,,,,,,,,,,,,,,,,,,,,,,
,,,,6,0.9722,,,,,,62,kitchen,rose,,88601,001,2022-04-25_15h43.54.077,SPAMnetsValid,2021.1.4,Win32,59.23117929,,,,,,,,,,,,,6,0.9722,0,6,6,57,1,,,,,,,,,,,,,,,,,,,,,,,,,,,,,,,,,,,,,,,,,,,,,,,,,,,,,,,,,,,,,,,
,,,,4,1.0032,,,,,,78,cookie,rose,,88601,001,2022-04-25_15h43.54.077,SPAMnetsValid,2021.1.4,Win32,59.23117929,,,,,,,,,,,,,4,1.0032,0,7,7,56,1,,,,,,,,,,,,,,,,,,,,,,,,,,,,,,,,,,,,,,,,,,,,,,,,,,,,,,,,,,,,,,,
,,,,3,0.953700001,,,,,,27,cactus,cookie,,88601,001,2022-04-25_15h43.54.077,SPAMnetsValid,2021.1.4,Win32,59.23117929,,,,,,,,,,,,,3,0.953700001,0,8,8,17,1,,,,,,,,,,,,,,,,,,,,,,,,,,,,,,,,,,,,,,,,,,,,,,,,,,,,,,,,,,,,,,,
,,,,7,1.765900001,,,,,,53,garden,pretzel,,88601,001,2022-04-25_15h43.54.077,SPAMnetsValid,2021.1.4,Win32,59.23117929,,,,,,,,,,,,,7,1.765900001,0,9,9,0,1,,,,,,,,,,,,,,,,,,,,,,,,,,,,,,,,,,,,,,,,,,,,,,,,,,,,,,,,,,,,,,,
,,,,6,1.0805,,,,,,88,cactus,melon,,88601,001,2022-04-25_15h43.54.077,SPAMnetsValid,2021.1.4,Win32,59.23117929,,,,,,,,,,,,,6,1.0805,0,10,10,38,1,,,,,,,,,,,,,,,,,,,,,,,,,,,,,,,,,,,,,,,,,,,,,,,,,,,,,,,,,,,,,,,
,,,,9,1.0544,,,,,,74,broom,pretzel,,88601,001,2022-04-25_15h43.54.077,SPAMnetsValid,2021.1.4,Win32,59.23117929,,,,,,,,,,,,,9,1.0544,0,11,11,40,1,,,,,,,,,,,,,,,,,,,,,,,,,,,,,,,,,,,,,,,,,,,,,,,,,,,,,,,,,,,,,,,
,,,,8,1.1227,,,,,,191,cake,cake,CHECK,88601,001,2022-04-25_15h43.54.077,SPAMnetsValid,2021.1.4,Win32,59.23117929,,,,,,,,,,,,,8,1.1227,0,12,12,10,1,,,,,,,,,,,,,,,,,,,,,,,,,,,,,,,,,,,,,,,,,,,,,,,,,,,,,,,,,,,,,,,
,,,,7,0.9869,,,,,,75,cookie,onion,,88601,001,2022-04-25_15h43.54.077,SPAMnetsValid,2021.1.4,Win32,59.23117929,,,,,,,,,,,,,7,0.9869,0,13,13,9,1,,,,,,,,,,,,,,,,,,,,,,,,,,,,,,,,,,,,,,,,,,,,,,,,,,,,,,,,,,,,,,,
,,,,6,1.019200001,,,,,,39,melon,pretzel,,88601,001,2022-04-25_15h43.54.077,SPAMnetsValid,2021.1.4,Win32,59.23117929,,,,,,,,,,,,,6,1.019200001,0,14,14,20,1,,,,,,,,,,,,,,,,,,,,,,,,,,,,,,,,,,,,,,,,,,,,,,,,,,,,,,,,,,,,,,,
,,,,4,1.002599999,,,,,,33,oven,yogurt,,88601,001,2022-04-25_15h43.54.077,SPAMnetsValid,2021.1.4,Win32,59.23117929,,,,,,,,,,,,,4,1.002599999,0,15,15,31,1,,,,,,,,,,,,,,,,,,,,,,,,,,,,,,,,,,,,,,,,,,,,,,,,,,,,,,,,,,,,,,,
,,,,3,1.0035,,,,,,71,broom,rose,,88601,001,2022-04-25_15h43.54.077,SPAMnetsValid,2021.1.4,Win32,59.23117929,,,,,,,,,,,,,3,1.0035,0,16,16,61,1,,,,,,,,,,,,,,,,,,,,,,,,,,,,,,,,,,,,,,,,,,,,,,,,,,,,,,,,,,,,,,,
,,,,2,0.942900001,,,,,,68,flower,tomato,,88601,001,2022-04-25_15h43.54.077,SPAMnetsValid,2021.1.4,Win32,59.23117929,,,,,,,,,,,,,2,0.942900001,0,17,17,94,1,,,,,,,,,,,,,,,,,,,,,,,,,,,,,,,,,,,,,,,,,,,,,,,,,,,,,,,,,,,,,,,
,,,,7,2.0085,,,,,,29,chocolate,melon,,88601,001,2022-04-25_15h43.54.077,SPAMnetsValid,2021.1.4,Win32,59.23117929,,,,,,,,,,,,,7,2.0085,0,18,18,34,1,,,,,,,,,,,,,,,,,,,,,,,,,,,,,,,,,,,,,,,,,,,,,,,,,,,,,,,,,,,,,,,
,,,,6,0.9993,,,,,,89,chocolate,rose,,88601,001,2022-04-25_15h43.54.077,SPAMnetsValid,2021.1.4,Win32,59.23117929,,,,,,,,,,,,,6,0.9993,0,19,19,60,1,,,,,,,,,,,,,,,,,,,,,,,,,,,,,,,,,,,,,,,,,,,,,,,,,,,,,,,,,,,,,,,
,,,,8,1.182,,,,,,11,refrigerator,tree,,88601,001,2022-04-25_15h43.54.077,SPAMnetsValid,2021.1.4,Win32,59.23117929,,,,,,,,,,,,,8,1.182,0,20,20,43,1,,,,,,,,,,,,,,,,,,,,,,,,,,,,,,,,,,,,,,,,,,,,,,,,,,,,,,,,,,,,,,,
,,,,9,1.6826,,,,,,13,broom,yogurt,,88601,001,2022-04-25_15h43.54.077,SPAMnetsValid,2021.1.4,Win32,59.23117929,,,,,,,,,,,,,9,1.6826,0,21,21,5,1,,,,,,,,,,,,,,,,,,,,,,,,,,,,,,,,,,,,,,,,,,,,,,,,,,,,,,,,,,,,,,,
,,,,6,10.867,,,,,,56,cactus,tree,,88601,001,2022-04-25_15h43.54.077,SPAMnetsValid,2021.1.4,Win32,59.23117929,,,,,,,,,,,,,6,10.867,0,22,22,21,1,,,,,,,,,,,,,,,,,,,,,,,,,,,,,,,,,,,,,,,,,,,,,,,,,,,,,,,,,,,,,,,
,,,,4,1.0525,,,,,,58,garden,oven,,88601,001,2022-04-25_15h43.54.077,SPAMnetsValid,2021.1.4,Win32,59.23117929,,,,,,,,,,,,,4,1.0525,0,23,23,37,1,,,,,,,,,,,,,,,,,,,,,,,,,,,,,,,,,,,,,,,,,,,,,,,,,,,,,,,,,,,,,,,
,,,,2,1.085700001,,,,,,93,kitchen,oven,,88601,001,2022-04-25_15h43.54.077,SPAMnetsValid,2021.1.4,Win32,59.23117929,,,,,,,,,,,,,2,1.085700001,0,24,24,82,1,,,,,,,,,,,,,,,,,,,,,,,,,,,,,,,,,,,,,,,,,,,,,,,,,,,,,,,,,,,,,,,
,,,,8,1.0207,,,,,,47,onion,tomato,,88601,001,2022-04-25_15h43.54.077,SPAMnetsValid,2021.1.4,Win32,59.23117929,,,,,,,,,,,,,8,1.0207,0,25,25,51,1,,,,,,,,,,,,,,,,,,,,,,,,,,,,,,,,,,,,,,,,,,,,,,,,,,,,,,,,,,,,,,,
,,,,9,1.079900001,,,,,,35,flower,pretzel,,88601,001,2022-04-25_15h43.54.077,SPAMnetsValid,2021.1.4,Win32,59.23117929,,,,,,,,,,,,,9,1.079900001,0,26,26,26,1,,,,,,,,,,,,,,,,,,,,,,,,,,,,,,,,,,,,,,,,,,,,,,,,,,,,,,,,,,,,,,,
,,,,7,1.040900001,,,,,,77,refrigerator,yogurt,,88601,001,2022-04-25_15h43.54.077,SPAMnetsValid,2021.1.4,Win32,59.23117929,,,,,,,,,,,,,7,1.040900001,0,27,27,42,1,,,,,,,,,,,,,,,,,,,,,,,,,,,,,,,,,,,,,,,,,,,,,,,,,,,,,,,,,,,,,,,
,,,,6,1.005900001,,,,,,4,chocolate,pretzel,,88601,001,2022-04-25_15h43.54.077,SPAMnetsValid,2021.1.4,Win32,59.23117929,,,,,,,,,,,,,6,1.005900001,0,28,28,52,1,,,,,,,,,,,,,,,,,,,,,,,,,,,,,,,,,,,,,,,,,,,,,,,,,,,,,,,,,,,,,,,
,,,,2,1.1745,,,,,,87,carrot,yogurt,,88601,001,2022-04-25_15h43.54.077,SPAMnetsValid,2021.1.4,Win32,59.23117929,,,,,,,,,,,,,2,1.1745,0,29,29,6,1,,,,,,,,,,,,,,,,,,,,,,,,,,,,,,,,,,,,,,,,,,,,,,,,,,,,,,,,,,,,,,,
,,,,4,1.0735,,,,,,64,chocolate,garden,,88601,001,2022-04-25_15h43.54.077,SPAMnetsValid,2021.1.4,Win32,59.23117929,,,,,,,,,,,,,4,1.0735,0,30,30,14,1,,,,,,,,,,,,,,,,,,,,,,,,,,,,,,,,,,,,,,,,,,,,,,,,,,,,,,,,,,,,,,,
,,,,3,0.7997,,,,,,55,tomato,tree,,88601,001,2022-04-25_15h43.54.077,SPAMnetsValid,2021.1.4,Win32,59.23117929,,,,,,,,,,,,,3,0.7997,0,31,31,35,1,,,,,,,,,,,,,,,,,,,,,,,,,,,,,,,,,,,,,,,,,,,,,,,,,,,,,,,,,,,,,,,
,,,,7,1.034,,,,,,67,flower,yogurt,,88601,001,2022-04-25_15h43.54.077,SPAMnetsValid,2021.1.4,Win32,59.23117929,,,,,,,,,,,,,7,1.034,0,32,32,12,1,,,,,,,,,,,,,,,,,,,,,,,,,,,,,,,,,,,,,,,,,,,,,,,,,,,,,,,,,,,,,,,
,,,,8,0.966400001,,,,,,7,melon,tree,,88601,001,2022-04-25_15h43.54.077,SPAMnetsValid,2021.1.4,Win32,59.23117929,,,,,,,,,,,,,8,0.966400001,0,33,33,77,1,,,,,,,,,,,,,,,,,,,,,,,,,,,,,,,,,,,,,,,,,,,,,,,,,,,,,,,,,,,,,,,
,,,,9,0.8031,,,,,,61,strawberry,tomato,,88601,001,2022-04-25_15h43.54.077,SPAMnetsValid,2021.1.4,Win32,59.23117929,,,,,,,,,,,,,9,0.8031,0,34,34,80,1,,,,,,,,,,,,,,,,,,,,,,,,,,,,,,,,,,,,,,,,,,,,,,,,,,,,,,,,,,,,,,,
,,,,6,1.0543,,,,,,28,cake,melon,,88601,001,2022-04-25_15h43.54.077,SPAMnetsValid,2021.1.4,Win32,59.23117929,,,,,,,,,,,,,6,1.0543,0,35,35,54,1,,,,,,,,,,,,,,,,,,,,,,,,,,,,,,,,,,,,,,,,,,,,,,,,,,,,,,,,,,,,,,,
,,,,7,0.7744,,,,,,22,kitchen,strawberry,,88601,001,2022-04-25_15h43.54.077,SPAMnetsValid,2021.1.4,Win32,59.23117929,,,,,,,,,,,,,7,0.7744,0,36,36,2,1,,,,,,,,,,,,,,,,,,,,,,,,,,,,,,,,,,,,,,,,,,,,,,,,,,,,,,,,,,,,,,,
,,,,6,1.0115,,,,,,9,kitchen,refrigerator,,88601,001,2022-04-25_15h43.54.077,SPAMnetsValid,2021.1.4,Win32,59.23117929,,,,,,,,,,,,,6,1.0115,0,37,37,64,1,,,,,,,,,,,,,,,,,,,,,,,,,,,,,,,,,,,,,,,,,,,,,,,,,,,,,,,,,,,,,,,
,,,,7,0.7213,,,,,,63,cake,cookie,,88601,001,2022-04-25_15h43.54.077,SPAMnetsValid,2021.1.4,Win32,59.23117929,,,,,,,,,,,,,7,0.7213,0,38,38,93,1,,,,,,,,,,,,,,,,,,,,,,,,,,,,,,,,,,,,,,,,,,,,,,,,,,,,,,,,,,,,,,,
,,,,8,1.0851,,,,,,50,carrot,rose,,88601,001,2022-04-25_15h43.54.077,SPAMnetsValid,2021.1.4,Win32,59.23117929,,,,,,,,,,,,,8,1.0851,0,39,39,73,1,,,,,,,,,,,,,,,,,,,,,,,,,,,,,,,,,,,,,,,,,,,,,,,,,,,,,,,,,,,,,,,
,,,,9,0.8652,,,,,,32,cake,microwave,,88601,001,2022-04-25_15h43.54.077,SPAMnetsValid,2021.1.4,Win32,59.23117929,,,,,,,,,,,,,9,0.8652,0,40,40,33,1,,,,,,,,,,,,,,,,,,,,,,,,,,,,,,,,,,,,,,,,,,,,,,,,,,,,,,,,,,,,,,,
,,,,4,1.197099999,,,,,,14,broom,cookie,,88601,001,2022-04-25_15h43.54.077,SPAMnetsValid,2021.1.4,Win32,59.23117929,,,,,,,,,,,,,4,1.197099999,0,41,41,16,1,,,,,,,,,,,,,,,,,,,,,,,,,,,,,,,,,,,,,,,,,,,,,,,,,,,,,,,,,,,,,,,
,,,,2,0.7563,,,,,,8,broom,melon,,88601,001,2022-04-25_15h43.54.077,SPAMnetsValid,2021.1.4,Win32,59.23117929,,,,,,,,,,,,,2,0.7563,0,42,42,59,1,,,,,,,,,,,,,,,,,,,,,,,,,,,,,,,,,,,,,,,,,,,,,,,,,,,,,,,,,,,,,,,
,,,,6,1.5998,,,,,,36,broom,kitchen,,88601,001,2022-04-25_15h43.54.077,SPAMnetsValid,2021.1.4,Win32,59.23117929,,,,,,,,,,,,,6,1.5998,0,43,43,76,1,,,,,,,,,,,,,,,,,,,,,,,,,,,,,,,,,,,,,,,,,,,,,,,,,,,,,,,,,,,,,,,
,,,,7,1.015799999,,,,,,85,cake,tree,,88601,001,2022-04-25_15h43.54.077,SPAMnetsValid,2021.1.4,Win32,59.23117929,,,,,,,,,,,,,7,1.015799999,0,44,44,18,1,,,,,,,,,,,,,,,,,,,,,,,,,,,,,,,,,,,,,,,,,,,,,,,,,,,,,,,,,,,,,,,
,,,,8,0.8814,,,,,,76,garden,rose,,88601,001,2022-04-25_15h43.54.077,SPAMnetsValid,2021.1.4,Win32,59.23117929,,,,,,,,,,,,,8,0.8814,0,45,45,19,1,,,,,,,,,,,,,,,,,,,,,,,,,,,,,,,,,,,,,,,,,,,,,,,,,,,,,,,,,,,,,,,
,,,,9,1.0693,,,,,,69,carrot,refrigerator,,88601,001,2022-04-25_15h43.54.077,SPAMnetsValid,2021.1.4,Win32,59.23117929,,,,,,,,,,,,,9,1.0693,0,46,46,75,1,,,,,,,,,,,,,,,,,,,,,,,,,,,,,,,,,,,,,,,,,,,,,,,,,,,,,,,,,,,,,,,
,,,,7,1.1188,,,,,,6,garden,onion,,88601,001,2022-04-25_15h43.54.077,SPAMnetsValid,2021.1.4,Win32,59.23117929,,,,,,,,,,,,,7,1.1188,0,47,47,83,1,,,,,,,,,,,,,,,,,,,,,,,,,,,,,,,,,,,,,,,,,,,,,,,,,,,,,,,,,,,,,,,
,,,,6,1.0205,,,,,,12,cookie,yogurt,,88601,001,2022-04-25_15h43.54.077,SPAMnetsValid,2021.1.4,Win32,59.23117929,,,,,,,,,,,,,6,1.0205,0,48,48,36,1,,,,,,,,,,,,,,,,,,,,,,,,,,,,,,,,,,,,,,,,,,,,,,,,,,,,,,,,,,,,,,,
,,,,4,1.519400001,,,,,,21,cake,onion,,88601,001,2022-04-25_15h43.54.077,SPAMnetsValid,2021.1.4,Win32,59.23117929,,,,,,,,,,,,,4,1.519400001,0,49,49,63,1,,,,,,,,,,,,,,,,,,,,,,,,,,,,,,,,,,,,,,,,,,,,,,,,,,,,,,,,,,,,,,,
,,,,2,1.040200001,,,,,,44,cookie,melon,,88601,001,2022-04-25_15h43.54.077,SPAMnetsValid,2021.1.4,Win32,59.23117929,,,,,,,,,,,,,2,1.040200001,0,50,50,92,1,,,,,,,,,,,,,,,,,,,,,,,,,,,,,,,,,,,,,,,,,,,,,,,,,,,,,,,,,,,,,,,
,,,,7,1.3032,,,,,,65,broom,garden,,88601,001,2022-04-25_15h43.54.077,SPAMnetsValid,2021.1.4,Win32,59.23117929,,,,,,,,,,,,,7,1.3032,0,51,51,23,1,,,,,,,,,,,,,,,,,,,,,,,,,,,,,,,,,,,,,,,,,,,,,,,,,,,,,,,,,,,,,,,
,,,,9,0.8364,,,,,,94,kitchen,microwave,,88601,001,2022-04-25_15h43.54.077,SPAMnetsValid,2021.1.4,Win32,59.23117929,,,,,,,,,,,,,9,0.8364,0,52,52,58,1,,,,,,,,,,,,,,,,,,,,,,,,,,,,,,,,,,,,,,,,,,,,,,,,,,,,,,,,,,,,,,,
,,,,7,1.319,,,,,,83,broom,carrot,,88601,001,2022-04-25_15h43.54.077,SPAMnetsValid,2021.1.4,Win32,59.23117929,,,,,,,,,,,,,7,1.319,0,53,53,4,1,,,,,,,,,,,,,,,,,,,,,,,,,,,,,,,,,,,,,,,,,,,,,,,,,,,,,,,,,,,,,,,
,,,,6,0.8763,,,,,,45,onion,pretzel,,88601,001,2022-04-25_15h43.54.077,SPAMnetsValid,2021.1.4,Win32,59.23117929,,,,,,,,,,,,,6,0.8763,0,54,54,69,1,,,,,,,,,,,,,,,,,,,,,,,,,,,,,,,,,,,,,,,,,,,,,,,,,,,,,,,,,,,,,,,
,,,,1,1.032599999,,,,,,19,microwave,pretzel,,88601,001,2022-04-25_15h43.54.077,SPAMnetsValid,2021.1.4,Win32,59.23117929,,,,,,,,,,,,,1,1.032599999,0,55,55,41,1,,,,,,,,,,,,,,,,,,,,,,,,,,,,,,,,,,,,,,,,,,,,,,,,,,,,,,,,,,,,,,,
,,,,2,0.8903,,,,,,52,carrot,tomato,,88601,001,2022-04-25_15h43.54.077,SPAMnetsValid,2021.1.4,Win32,59.23117929,,,,,,,,,,,,,2,0.8903,0,56,56,95,1,,,,,,,,,,,,,,,,,,,,,,,,,,,,,,,,,,,,,,,,,,,,,,,,,,,,,,,,,,,,,,,
,,,,3,0.6932,,,,,,3,cake,oven,,88601,001,2022-04-25_15h43.54.077,SPAMnetsValid,2021.1.4,Win32,59.23117929,,,,,,,,,,,,,3,0.6932,0,57,57,30,1,,,,,,,,,,,,,,,,,,,,,,,,,,,,,,,,,,,,,,,,,,,,,,,,,,,,,,,,,,,,,,,
,,,,7,1.071,,,,,,25,carrot,onion,,88601,001,2022-04-25_15h43.54.077,SPAMnetsValid,2021.1.4,Win32,59.23117929,,,,,,,,,,,,,7,1.071,0,58,58,44,1,,,,,,,,,,,,,,,,,,,,,,,,,,,,,,,,,,,,,,,,,,,,,,,,,,,,,,,,,,,,,,,
,,,,6,0.9586,,,,,,86,oven,rose,,88601,001,2022-04-25_15h43.54.077,SPAMnetsValid,2021.1.4,Win32,59.23117929,,,,,,,,,,,,,6,0.9586,0,59,59,79,1,,,,,,,,,,,,,,,,,,,,,,,,,,,,,,,,,,,,,,,,,,,,,,,,,,,,,,,,,,,,,,,
,,,,4,0.816,,,,,,66,melon,yogurt,,88601,001,2022-04-25_15h43.54.077,SPAMnetsValid,2021.1.4,Win32,59.23117929,,,,,,,,,,,,,4,0.816,0,60,60,48,1,,,,,,,,,,,,,,,,,,,,,,,,,,,,,,,,,,,,,,,,,,,,,,,,,,,,,,,,,,,,,,,
,,,,2,0.779,,,,,,79,garden,strawberry,,88601,001,2022-04-25_15h43.54.077,SPAMnetsValid,2021.1.4,Win32,59.23117929,,,,,,,,,,,,,2,0.779,0,61,61,87,1,,,,,,,,,,,,,,,,,,,,,,,,,,,,,,,,,,,,,,,,,,,,,,,,,,,,,,,,,,,,,,,
,,,,3,0.788700001,,,,,,72,broom,onion,,88601,001,2022-04-25_15h43.54.077,SPAMnetsValid,2021.1.4,Win32,59.23117929,,,,,,,,,,,,,3,0.788700001,0,62,62,27,1,,,,,,,,,,,,,,,,,,,,,,,,,,,,,,,,,,,,,,,,,,,,,,,,,,,,,,,,,,,,,,,
,,,,8,1.1281,,,,,,81,pretzel,yogurt,,88601,001,2022-04-25_15h43.54.077,SPAMnetsValid,2021.1.4,Win32,59.23117929,,,,,,,,,,,,,8,1.1281,0,63,63,50,1,,,,,,,,,,,,,,,,,,,,,,,,,,,,,,,,,,,,,,,,,,,,,,,,,,,,,,,,,,,,,,,
,,,,9,0.802700001,,,,,,24,cookie,tomato,,88601,001,2022-04-25_15h43.54.077,SPAMnetsValid,2021.1.4,Win32,59.23117929,,,,,,,,,,,,,9,0.802700001,0,64,64,68,1,,,,,,,,,,,,,,,,,,,,,,,,,,,,,,,,,,,,,,,,,,,,,,,,,,,,,,,,,,,,,,,
,,,,7,0.9767,,,,,,51,onion,strawberry,,88601,001,2022-04-25_15h43.54.077,SPAMnetsValid,2021.1.4,Win32,59.23117929,,,,,,,,,,,,,7,0.9767,0,65,65,86,1,,,,,,,,,,,,,,,,,,,,,,,,,,,,,,,,,,,,,,,,,,,,,,,,,,,,,,,,,,,,,,,
,,,,6,0.7491,,,,,,16,chocolate,flower,,88601,001,2022-04-25_15h43.54.077,SPAMnetsValid,2021.1.4,Win32,59.23117929,,,,,,,,,,,,,6,0.7491,0,66,66,22,1,,,,,,,,,,,,,,,,,,,,,,,,,,,,,,,,,,,,,,,,,,,,,,,,,,,,,,,,,,,,,,,
,,,,7,0.8716,,,,,,17,carrot,melon,,88601,001,2022-04-25_15h43.54.077,SPAMnetsValid,2021.1.4,Win32,59.23117929,,,,,,,,,,,,,7,0.8716,0,67,67,24,1,,,,,,,,,,,,,,,,,,,,,,,,,,,,,,,,,,,,,,,,,,,,,,,,,,,,,,,,,,,,,,,
,,,,8,0.7864,,,,,,57,flower,kitchen,,88601,001,2022-04-25_15h43.54.077,SPAMnetsValid,2021.1.4,Win32,59.23117929,,,,,,,,,,,,,8,0.7864,0,68,68,49,1,,,,,,,,,,,,,,,,,,,,,,,,,,,,,,,,,,,,,,,,,,,,,,,,,,,,,,,,,,,,,,,
,,,,9,0.7932,,,,,,34,melon,oven,,88601,001,2022-04-25_15h43.54.077,SPAMnetsValid,2021.1.4,Win32,59.23117929,,,,,,,,,,,,,9,0.7932,0,69,69,7,1,,,,,,,,,,,,,,,,,,,,,,,,,,,,,,,,,,,,,,,,,,,,,,,,,,,,,,,,,,,,,,,
,,,,7,0.8576,,,,,,1,rose,yogurt,,88601,001,2022-04-25_15h43.54.077,SPAMnetsValid,2021.1.4,Win32,59.23117929,,,,,,,,,,,,,7,0.8576,0,70,70,55,1,,,,,,,,,,,,,,,,,,,,,,,,,,,,,,,,,,,,,,,,,,,,,,,,,,,,,,,,,,,,,,,
,,,,4,0.7695,,,,,,80,chocolate,tree,,88601,001,2022-04-25_15h43.54.077,SPAMnetsValid,2021.1.4,Win32,59.23117929,,,,,,,,,,,,,4,0.7695,0,71,71,89,1,,,,,,,,,,,,,,,,,,,,,,,,,,,,,,,,,,,,,,,,,,,,,,,,,,,,,,,,,,,,,,,
,,,,2,0.7866,,,,,,2,kitchen,onion,,88601,001,2022-04-25_15h43.54.077,SPAMnetsValid,2021.1.4,Win32,59.23117929,,,,,,,,,,,,,2,0.7866,0,72,72,91,1,,,,,,,,,,,,,,,,,,,,,,,,,,,,,,,,,,,,,,,,,,,,,,,,,,,,,,,,,,,,,,,
,,,,1,0.770299999,,,,,,43,chocolate,tomato,,88601,001,2022-04-25_15h43.54.077,SPAMnetsValid,2021.1.4,Win32,59.23117929,,,,,,,,,,,,,1,0.770299999,0,73,73,8,1,,,,,,,,,,,,,,,,,,,,,,,,,,,,,,,,,,,,,,,,,,,,,,,,,,,,,,,,,,,,,,,
,,,,3,0.9367,,,,,,15,onion,oven,,88601,001,2022-04-25_15h43.54.077,SPAMnetsValid,2021.1.4,Win32,59.23117929,,,,,,,,,,,,,3,0.9367,0,74,74,39,1,,,,,,,,,,,,,,,,,,,,,,,,,,,,,,,,,,,,,,,,,,,,,,,,,,,,,,,,,,,,,,,
,,,,4,0.7882,,,,,,10,flower,onion,,88601,001,2022-04-25_15h43.54.077,SPAMnetsValid,2021.1.4,Win32,59.23117929,,,,,,,,,,,,,4,0.7882,0,75,75,45,1,,,,,,,,,,,,,,,,,,,,,,,,,,,,,,,,,,,,,,,,,,,,,,,,,,,,,,,,,,,,,,,
,,,,7,0.966099999,,,,,,42,garden,kitchen,,88601,001,2022-04-25_15h43.54.077,SPAMnetsValid,2021.1.4,Win32,59.23117929,,,,,,,,,,,,,7,0.966099999,0,76,76,29,1,,,,,,,,,,,,,,,,,,,,,,,,,,,,,,,,,,,,,,,,,,,,,,,,,,,,,,,,,,,,,,,
,,,,6,0.782099999,,,,,,5,oven,tree,,88601,001,2022-04-25_15h43.54.077,SPAMnetsValid,2021.1.4,Win32,59.23117929,,,,,,,,,,,,,6,0.782099999,0,77,77,70,1,,,,,,,,,,,,,,,,,,,,,,,,,,,,,,,,,,,,,,,,,,,,,,,,,,,,,,,,,,,,,,,
,,,,4,0.729,,,,,,95,broom,refrigerator,,88601,001,2022-04-25_15h43.54.077,SPAMnetsValid,2021.1.4,Win32,59.23117929,,,,,,,,,,,,,4,0.729,0,78,78,90,1,,,,,,,,,,,,,,,,,,,,,,,,,,,,,,,,,,,,,,,,,,,,,,,,,,,,,,,,,,,,,,,
,,,,3,0.8158,,,,,,18,onion,refrigerator,,88601,001,2022-04-25_15h43.54.077,SPAMnetsValid,2021.1.4,Win32,59.23117929,,,,,,,,,,,,,3,0.8158,0,79,79,62,1,,,,,,,,,,,,,,,,,,,,,,,,,,,,,,,,,,,,,,,,,,,,,,,,,,,,,,,,,,,,,,,
,,,,7,0.9146,,,,,,192,microwave,microwave,CHECK,88601,001,2022-04-25_15h43.54.077,SPAMnetsValid,2021.1.4,Win32,59.23117929,,,,,,,,,,,,,7,0.9146,0,80,80,53,1,,,,,,,,,,,,,,,,,,,,,,,,,,,,,,,,,,,,,,,,,,,,,,,,,,,,,,,,,,,,,,,
,,,,8,0.745200001,,,,,,70,chocolate,onion,,88601,001,2022-04-25_15h43.54.077,SPAMnetsValid,2021.1.4,Win32,59.23117929,,,,,,,,,,,,,8,0.745200001,0,81,81,74,1,,,,,,,,,,,,,,,,,,,,,,,,,,,,,,,,,,,,,,,,,,,,,,,,,,,,,,,,,,,,,,,
,,,,7,0.7328,,,,,,23,flower,microwave,,88601,001,2022-04-25_15h43.54.077,SPAMnetsValid,2021.1.4,Win32,59.23117929,,,,,,,,,,,,,7,0.7328,0,82,82,25,1,,,,,,,,,,,,,,,,,,,,,,,,,,,,,,,,,,,,,,,,,,,,,,,,,,,,,,,,,,,,,,,
,,,,9,1.5031,,,,,,46,garden,yogurt,,88601,001,2022-04-25_15h43.54.077,SPAMnetsValid,2021.1.4,Win32,59.23117929,,,,,,,,,,,,,9,1.5031,0,83,83,65,1,,,,,,,,,,,,,,,,,,,,,,,,,,,,,,,,,,,,,,,,,,,,,,,,,,,,,,,,,,,,,,,
,,,,6,1.3059,,,,,,49,flower,strawberry,,88601,001,2022-04-25_15h43.54.077,SPAMnetsValid,2021.1.4,Win32,59.23117929,,,,,,,,,,,,,6,1.3059,0,84,84,3,1,,,,,,,,,,,,,,,,,,,,,,,,,,,,,,,,,,,,,,,,,,,,,,,,,,,,,,,,,,,,,,,
,,,,7,0.7095,,,,,,20,rose,tree,,88601,001,2022-04-25_15h43.54.077,SPAMnetsValid,2021.1.4,Win32,59.23117929,,,,,,,,,,,,,7,0.7095,0,85,85,66,1,,,,,,,,,,,,,,,,,,,,,,,,,,,,,,,,,,,,,,,,,,,,,,,,,,,,,,,,,,,,,,,
,,,,8,0.7725,,,,,,48,flower,oven,,88601,001,2022-04-25_15h43.54.077,SPAMnetsValid,2021.1.4,Win32,59.23117929,,,,,,,,,,,,,8,0.7725,0,86,86,15,1,,,,,,,,,,,,,,,,,,,,,,,,,,,,,,,,,,,,,,,,,,,,,,,,,,,,,,,,,,,,,,,
,,,,3,0.919299999,,,,,,54,chocolate,yogurt,,88601,001,2022-04-25_15h43.54.077,SPAMnetsValid,2021.1.4,Win32,59.23117929,,,,,,,,,,,,,3,0.919299999,0,87,87,67,1,,,,,,,,,,,,,,,,,,,,,,,,,,,,,,,,,,,,,,,,,,,,,,,,,,,,,,,,,,,,,,,
,,,,1,1.2192,,,,,,59,rose,strawberry,,88601,001,2022-04-25_15h43.54.077,SPAMnetsValid,2021.1.4,Win32,59.23117929,,,,,,,,,,,,,1,1.2192,0,88,88,72,1,,,,,,,,,,,,,,,,,,,,,,,,,,,,,,,,,,,,,,,,,,,,,,,,,,,,,,,,,,,,,,,
,,,,4,0.8659,,,,,,38,pretzel,refrigerator,,88601,001,2022-04-25_15h43.54.077,SPAMnetsValid,2021.1.4,Win32,59.23117929,,,,,,,,,,,,,4,0.8659,0,89,89,71,1,,,,,,,,,,,,,,,,,,,,,,,,,,,,,,,,,,,,,,,,,,,,,,,,,,,,,,,,,,,,,,,
,,,,6,0.916200001,,,,,,40,broom,cake,,88601,001,2022-04-25_15h43.54.077,SPAMnetsValid,2021.1.4,Win32,59.23117929,,,,,,,,,,,,,6,0.916200001,0,90,90,32,1,,,,,,,,,,,,,,,,,,,,,,,,,,,,,,,,,,,,,,,,,,,,,,,,,,,,,,,,,,,,,,,
,,,,7,0.8213,,,,,,26,tomato,yogurt,,88601,001,2022-04-25_15h43.54.077,SPAMnetsValid,2021.1.4,Win32,59.23117929,,,,,,,,,,,,,7,0.8213,0,91,91,13,1,,,,,,,,,,,,,,,,,,,,,,,,,,,,,,,,,,,,,,,,,,,,,,,,,,,,,,,,,,,,,,,
,,,,8,0.8032,,,,,,37,garden,refrigerator,,88601,001,2022-04-25_15h43.54.077,SPAMnetsValid,2021.1.4,Win32,59.23117929,,,,,,,,,,,,,8,0.8032,0,92,92,11,1,,,,,,,,,,,,,,,,,,,,,,,,,,,,,,,,,,,,,,,,,,,,,,,,,,,,,,,,,,,,,,,
,,,,9,0.6872,,,,,,41,broom,cactus,,88601,001,2022-04-25_15h43.54.077,SPAMnetsValid,2021.1.4,Win32,59.23117929,,,,,,,,,,,,,9,0.6872,0,93,93,46,1,,,,,,,,,,,,,,,,,,,,,,,,,,,,,,,,,,,,,,,,,,,,,,,,,,,,,,,,,,,,,,,
,,,,8,0.971099999,,,,,,60,cactus,onion,,88601,001,2022-04-25_15h43.54.077,SPAMnetsValid,2021.1.4,Win32,59.23117929,,,,,,,,,,,,,8,0.971099999,0,94,94,81,1,,,,,,,,,,,,,,,,,,,,,,,,,,,,,,,,,,,,,,,,,,,,,,,,,,,,,,,,,,,,,,,
,,,,7,0.7675,,,,,,91,microwave,rose,,88601,001,2022-04-25_15h43.54.077,SPAMnetsValid,2021.1.4,Win32,59.23117929,,,,,,,,,,,,,7,0.7675,0,95,95,84,1,,,,,,,,,,,,,,,,,,,,,,,,,,,,,,,,,,,,,,,,,,,,,,,,,,,,,,,,,,,,,,,
,,,,6,2.855,,,,,,31,cactus,pretzel,,88601,001,2022-04-25_15h43.54.077,SPAMnetsValid,2021.1.4,Win32,59.23117929,,,,,,,,,,,,,6,2.855,0,96,96,1,1,,,,,,,,,,,,,,,,,,,,,,,,,,,,,,,,,,,,,,,,,,,,,,,,,,,,,,,,,,,,,,,
,,,,,,,,,,,,,,,88601,001,2022-04-25_15h43.54.077,SPAMnetsValid,2021.1.4,Win32,59.23117929,,,,,,,,,,,,,,,,,,,,0,0,0,0,1,,,,,,,,,,,,,,,,,,,,,,,,,,,,,,,,,,,,,,,,,,,,,,,,,,,,,,,,,,
,,,,,,,,,,,,,,,88601,001,2022-04-25_15h43.54.077,SPAMnetsValid,2021.1.4,Win32,59.23117929,,,,,,0,1,1,0,1,1,0,,,,,,,,,,,,,,,,,,,,,,,,,,,,,,,,,,,,,,,,,,,,,,,,,,,,,,,,,,,,,,,,,,,,,,
,,,,,,,,,,,,,,,88601,001,2022-04-25_15h43.54.077,SPAMnetsValid,2021.1.4,Win32,59.23117929,,,,,,,,,,,,,,,,,,,,,,,,,3,5.219599999,0,0,0,0,1,rancor,forbearance,ridicule,malice,bravery,3,,,,,,,,,,,,,,,,,,,,,,,,,,,,,,,,,,,,,,,,,,,,,
,,,,,,,,,,,,,,,88601,001,2022-04-25_15h43.54.077,SPAMnetsValid,2021.1.4,Win32,59.23117929,,,,,,,,,,,,,,,,,,,,,,,,,3,0.8455,0,1,1,1,1,raucous,empty,quiet,smooth,harsh,4,,,,,,,,,,,,,,,,,,,,,,,,,,,,,,,,,,,,,,,,,,,,,
,,,,,,,,,,,,,,,88601,001,2022-04-25_15h43.54.077,SPAMnetsValid,2021.1.4,Win32,59.23117929,,,,,,,,,,,,,,,,,,,,,,,,,2,1.1152,0,2,2,2,1,gargoyle,oil,medicine,carved waterspout,ugly building,3,,,,,,,,,,,,,,,,,,,,,,,,,,,,,,,,,,,,,,,,,,,,,
,,,,,,,,,,,,,,,88601,001,2022-04-25_15h43.54.077,SPAMnetsValid,2021.1.4,Win32,59.23117929,,,,,,,,,,,,,,,,,,,,,,,,,1,1.2594,0,3,3,3,1,recrudesce,purify,renew activity,lack refinement,crush,2,,,,,,,,,,,,,,,,,,,,,,,,,,,,,,,,,,,,,,,,,,,,,
,,,,,,,,,,,,,,,88601,001,2022-04-25_15h43.54.077,SPAMnetsValid,2021.1.4,Win32,59.23117929,,,,,,,,,,,,,,,,,,,,,,,,,2,1.26,0,4,4,4,1,specious,"plausible, but not genuine",noteworthy,class or variety,roomy,1,,,,,,,,,,,,,,,,,,,,,,,,,,,,,,,,,,,,,,,,,,,,,
,,,,,,,,,,,,,,,88601,001,2022-04-25_15h43.54.077,SPAMnetsValid,2021.1.4,Win32,59.23117929,,,,,,,,,,,,,,,,,,,,,,,,,3,2.6397,0,5,5,5,1,bauble,bubble,showy plaything,idle talk,confusion,2,,,,,,,,,,,,,,,,,,,,,,,,,,,,,,,,,,,,,,,,,,,,,
,,,,,,,,,,,,,,,88601,001,2022-04-25_15h43.54.077,SPAMnetsValid,2021.1.4,Win32,59.23117929,,,,,,,,,,,,,,,,,,,,,,,,,2,1.3236,0,6,6,6,1,prolific,scarce,producing abundantly,reckless,speaking profanely,2,,,,,,,,,,,,,,,,,,,,,,,,,,,,,,,,,,,,,,,,,,,,,
,,,,,,,,,,,,,,,88601,001,2022-04-25_15h43.54.077,SPAMnetsValid,2021.1.4,Win32,59.23117929,,,,,,,,,,,,,,,,,,,,,,,,,3,1.2091,0,7,7,7,1,opulent,party,wealthy,happy frame of mind,semiprecious stone,2,,,,,,,,,,,,,,,,,,,,,,,,,,,,,,,,,,,,,,,,,,,,,
,,,,,,,,,,,,,,,88601,001,2022-04-25_15h43.54.077,SPAMnetsValid,2021.1.4,Win32,59.23117929,,,,,,,,,,,,,,,,,,,,,,,,,3,1.1665,0,8,8,8,1,coercion,conspiracy,strategy,restraint,attraction,3,,,,,,,,,,,,,,,,,,,,,,,,,,,,,,,,,,,,,,,,,,,,,
,,,,,,,,,,,,,,,88601,001,2022-04-25_15h43.54.077,SPAMnetsValid,2021.1.4,Win32,59.23117929,,,,,,,,,,,,,,,,,,,,,,,,,2,1.024400001,0,9,9,9,1,hiatus,animal,calamity,dread,gap,4,,,,,,,,,,,,,,,,,,,,,,,,,,,,,,,,,,,,,,,,,,,,,
,,,,,,,,,,,,,,,88601,001,2022-04-25_15h43.54.077,SPAMnetsValid,2021.1.4,Win32,59.23117929,,,,,,,,,,,,,,,,,,,,,,,,,3,0.9728,0,10,10,10,1,germane,microbe,contagious,relevant,different,3,,,,,,,,,,,,,,,,,,,,,,,,,,,,,,,,,,,,,,,,,,,,,
,,,,,,,,,,,,,,,88601,001,2022-04-25_15h43.54.077,SPAMnetsValid,2021.1.4,Win32,59.23117929,,,,,,,,,,,,,,,,,,,,,,,,,2,1.2887,0,11,11,11,1,perfunctory,fundamental,formal,superficial,careful,3,,,,,,,,,,,,,,,,,,,,,,,,,,,,,,,,,,,,,,,,,,,,,
,,,,,,,,,,,,,,,88601,001,2022-04-25_15h43.54.077,SPAMnetsValid,2021.1.4,Win32,59.23117929,,,,,,,,,,,,,,,,,,,,,,,,,1,1.055200001,0,12,12,12,1,diverge,reveal,chant,distract the attention of,differ or turn off from,4,,,,,,,,,,,,,,,,,,,,,,,,,,,,,,,,,,,,,,,,,,,,,
,,,,,,,,,,,,,,,88601,001,2022-04-25_15h43.54.077,SPAMnetsValid,2021.1.4,Win32,59.23117929,,,,,,,,,,,,,,,,,,,,,,,,,2,0.973,0,13,13,13,1,evoke,take away,anger,connect,bring out,4,,,,,,,,,,,,,,,,,,,,,,,,,,,,,,,,,,,,,,,,,,,,,
,,,,,,,,,,,,,,,88601,001,2022-04-25_15h43.54.077,SPAMnetsValid,2021.1.4,Win32,59.23117929,,,,,,,,,,,,,,,,,,,,,,,,,3,0.8765,0,14,14,14,1,pertinent,relevant,lying next to,necessary,bold,1,,,,,,,,,,,,,,,,,,,,,,,,,,,,,,,,,,,,,,,,,,,,,
,,,,,,,,,,,,,,,88601,001,2022-04-25_15h43.54.077,SPAMnetsValid,2021.1.4,Win32,59.23117929,,,,,,,,,,,,,,,,,,,,,,,,,4,0.9714,0,15,15,15,1,holocaust,entirety,destruction,saintly,price,2,,,,,,,,,,,,,,,,,,,,,,,,,,,,,,,,,,,,,,,,,,,,,
,,,,,,,,,,,,,,,88601,001,2022-04-25_15h43.54.077,SPAMnetsValid,2021.1.4,Win32,59.23117929,,,,,,,,,,,,,,,,,,,,,,,,,3,0.9716,0,16,16,16,1,piquant,mellow,fish,pungent,cloth,3,,,,,,,,,,,,,,,,,,,,,,,,,,,,,,,,,,,,,,,,,,,,,
,,,,,,,,,,,,,,,88601,001,2022-04-25_15h43.54.077,SPAMnetsValid,2021.1.4,Win32,59.23117929,,,,,,,,,,,,,,,,,,,,,,,,,2,0.8273,0,17,17,17,1,firmament,foundation,heavens,strong,glue,2,,,,,,,,,,,,,,,,,,,,,,,,,,,,,,,,,,,,,,,,,,,,,
,,,,,,,,,,,,,,,88601,001,2022-04-25_15h43.54.077,SPAMnetsValid,2021.1.4,Win32,59.23117929,,,,,,,,,,,,,,,,,,,,,,,,,,,,,,,,,,,,,,1,0.826400001,0,0,0,0,1,marketable,partisan,jocular,marriageable,salable,essential,4,,,,,,,,,,,,,,,,,,,,,,,,,,,,,,,
,,,,,,,,,,,,,,,88601,001,2022-04-25_15h43.54.077,SPAMnetsValid,2021.1.4,Win32,59.23117929,,,,,,,,,,,,,,,,,,,,,,,,,,,,,,,,,,,,,,2,0.8876,0,1,1,1,1,cottontail,squirrel,poplar,boa,marshy plant,rabbit,5,,,,,,,,,,,,,,,,,,,,,,,,,,,,,,,
,,,,,,,,,,,,,,,88601,001,2022-04-25_15h43.54.077,SPAMnetsValid,2021.1.4,Win32,59.23117929,,,,,,,,,,,,,,,,,,,,,,,,,,,,,,,,,,,,,,3,0.852,0,2,2,2,1,boggy,afraid,false,marshy,dense,black,3,,,,,,,,,,,,,,,,,,,,,,,,,,,,,,,
,,,,,,,,,,,,,,,88601,001,2022-04-25_15h43.54.077,SPAMnetsValid,2021.1.4,Win32,59.23117929,,,,,,,,,,,,,,,,,,,,,,,,,,,,,,,,,,,,,,4,0.984,0,3,3,3,1,gruesomeness,blackness,falseness,vindictiveness,drunkenness,ghastliness,5,,,,,,,,,,,,,,,,,,,,,,,,,,,,,,,
,,,,,,,,,,,,,,,88601,001,2022-04-25_15h43.54.077,SPAMnetsValid,2021.1.4,Win32,59.23117929,,,,,,,,,,,,,,,,,,,,,,,,,,,,,,,,,,,,,,5,1.0204,0,4,4,4,1,loathing,diffidence,laziness,abhorrence,cleverness,comfort,3,,,,,,,,,,,,,,,,,,,,,,,,,,,,,,,
,,,,,,,,,,,,,,,88601,001,2022-04-25_15h43.54.077,SPAMnetsValid,2021.1.4,Win32,59.23117929,,,,,,,,,,,,,,,,,,,,,,,,,,,,,,,,,,,,,,4,0.8565,0,5,5,5,1,bantam,fowl,ridicule,cripple,vegetable,ensign,1,,,,,,,,,,,,,,,,,,,,,,,,,,,,,,,
,,,,,,,,,,,,,,,88601,001,2022-04-25_15h43.54.077,SPAMnetsValid,2021.1.4,Win32,59.23117929,,,,,,,,,,,,,,,,,,,,,,,,,,,,,,,,,,,,,,3,0.8859,0,6,6,6,1,evoke,wake up,surrender,reconnoiter,transcend,call forth,5,,,,,,,,,,,,,,,,,,,,,,,,,,,,,,,
,,,,,,,,,,,,,,,88601,001,2022-04-25_15h43.54.077,SPAMnetsValid,2021.1.4,Win32,59.23117929,,,,,,,,,,,,,,,,,,,,,,,,,,,,,,,,,,,,,,2,0.826,0,7,7,7,1,unobtrusive,unintelligent,epileptic,illogical,lineal,modest,5,,,,,,,,,,,,,,,,,,,,,,,,,,,,,,,
,,,,,,,,,,,,,,,88601,001,2022-04-25_15h43.54.077,SPAMnetsValid,2021.1.4,Win32,59.23117929,,,,,,,,,,,,,,,,,,,,,,,,,,,,,,,,,,,,,,2,0.6499,0,8,8,8,1,terrain,ice cream,final test,tractor,area of ground,weight,4,,,,,,,,,,,,,,,,,,,,,,,,,,,,,,,
,,,,,,,,,,,,,,,88601,001,2022-04-25_15h43.54.077,SPAMnetsValid,2021.1.4,Win32,59.23117929,,,,,,,,,,,,,,,,,,,,,,,,,,,,,,,,,,,,,,3,0.8499,0,9,9,9,1,capriciousness,stubbornness,courage,whimsicality,amazement,greediness,3,,,,,,,,,,,,,,,,,,,,,,,,,,,,,,,
,,,,,,,,,,,,,,,88601,001,2022-04-25_15h43.54.077,SPAMnetsValid,2021.1.4,Win32,59.23117929,,,,,,,,,,,,,,,,,,,,,,,,,,,,,,,,,,,,,,4,0.8463,0,10,10,10,1,maelstrom,slander,whirlpool,enmity,armor,majolica,2,,,,,,,,,,,,,,,,,,,,,,,,,,,,,,,
,,,,,,,,,,,,,,,88601,001,2022-04-25_15h43.54.077,SPAMnetsValid,2021.1.4,Win32,59.23117929,,,,,,,,,,,,,,,,,,,,,,,,,,,,,,,,,,,,,,5,2.1586,0,11,11,11,1,tentative,critical,conclusive,authentic,provisional,apprehensive,4,,,,,,,,,,,,,,,,,,,,,,,,,,,,,,,
,,,,,,,,,,,,,,,88601,001,2022-04-25_15h43.54.077,SPAMnetsValid,2021.1.4,Win32,59.23117929,,,,,,,,,,,,,,,,,,,,,,,,,,,,,,,,,,,,,,5,34.7055,0,12,12,12,1,placate,rehabilitate,plagiarize,depredate,apprise,conciliate,5,,,,,,,,,,,,,,,,,,,,,,,,,,,,,,,
,,,,,,,,,,,,,,,88601,001,2022-04-25_15h43.54.077,SPAMnetsValid,2021.1.4,Win32,59.23117929,,,,,,,,,,,,,,,,,,,,,,,,,,,,,,,,,,,,,,4,1.133400001,0,13,13,13,1,surcease,enlightenment,cessation,inattention,censor,substitution,2,,,,,,,,,,,,,,,,,,,,,,,,,,,,,,,
,,,,,,,,,,,,,,,88601,001,2022-04-25_15h43.54.077,SPAMnetsValid,2021.1.4,Win32,59.23117929,,,,,,,,,,,,,,,,,,,,,,,,,,,,,,,,,,,,,,2,1.0168,0,14,14,14,1,apathetic,wandering,impassive,hateful,prophetic,overflowing,2,,,,,,,,,,,,,,,,,,,,,,,,,,,,,,,
,,,,,,,,,,,,,,,88601,001,2022-04-25_15h43.54.077,SPAMnetsValid,2021.1.4,Win32,59.23117929,,,,,,,,,,,,,,,,,,,,,,,,,,,,,,,,,,,,,,1,1.604,0,15,15,15,1,paternoster,paternalism,patricide,malediction,benediction,prayer,5,,,,,,,,,,,,,,,,,,,,,,,,,,,,,,,
,,,,,,,,,,,,,,,88601,001,2022-04-25_15h43.54.077,SPAMnetsValid,2021.1.4,Win32,59.23117929,,,,,,,,,,,,,,,,,,,,,,,,,,,,,,,,,,,,,,2,1.0536,0,16,16,16,1,opalescence,opulence,senescence,bankruptcy,iridescence,assiduity,4,,,,,,,,,,,,,,,,,,,,,,,,,,,,,,,
,,,,,,,,,,,,,,,88601,001,2022-04-25_15h43.54.077,SPAMnetsValid,2021.1.4,Win32,59.23117929,,,,,,,,,,,,,,,,,,,,,,,,,,,,,,,,,,,,,,3,1.1179,0,17,17,17,1,lush,stupid,luxurious,hazy,putrid,languishing,2,,,,,,,,,,,,,,,,,,,,,,,,,,,,,,,
,,,,,,,,,,,,,,,88601,001,2022-04-25_15h43.54.077,SPAMnetsValid,2021.1.4,Win32,59.23117929,,,,,,,,,,,,,,,,,,,,,,,,,,,,,,,,,,,,,,4,1.2091,0,18,18,18,1,curtailment,expenditure,abandonment,abridgment,improvement,forgery,3,,,,,,,,,,,,,,,,,,,,,,,,,,,,,,,
,,,,,,,,,,,,,,,88601,001,2022-04-25_15h43.54.077,SPAMnetsValid,2021.1.4,Win32,59.23117929,,,,,,,,,,,,,,,,,,,,,,,,,,,,,,,,,,,,,,2,1.0175,0,19,19,19,1,perversity,adversity,perviousness,travesty,waywardness,gentility,4,,,,,,,,,,,,,,,,,,,,,,,,,,,,,,,
,,,,,,,,,,,,,,,88601,001,2022-04-25_15h43.54.077,SPAMnetsValid,2021.1.4,Win32,59.23117929,,,,,,,,,,,,,,,,,,,,,,,,,,,,,,,,,,,,,,3,0.9485,0,20,20,20,1,calumnious,complimentary,analogous,slanderous,tempestuous,magnanimous,3,,,,,,,,,,,,,,,,,,,,,,,,,,,,,,,
,,,,,,,,,,,,,,,88601,001,2022-04-25_15h43.54.077,SPAMnetsValid,2021.1.4,Win32,59.23117929,,,,,,,,,,,,,,,,,,,,,,,,,,,,,,,,,,,,,,2,1.0043,0,21,21,21,1,illiberality,bigotry,imbecility,illegibility,cautery,immaturity,1,,,,,,,,,,,,,,,,,,,,,,,,,,,,,,,
,,,,,,,,,,,,,,,88601,001,2022-04-25_15h43.54.077,SPAMnetsValid,2021.1.4,Win32,59.23117929,,,,,,,,,,,,,,,,,,,,,,,,,,,,,,,,,,,,,,1,0.9037,0,22,22,22,1,clabber,rejoice,gossip,curdle,crow,hobble,3,,,,,,,,,,,,,,,,,,,,,,,,,,,,,,,
,,,,,,,,,,,,,,,88601,001,2022-04-25_15h43.54.077,SPAMnetsValid,2021.1.4,Win32,59.23117929,,,,,,,,,,,,,,,,,,,,,,,,,,,,,,,,,,,,,,3,1.333599999,0,23,23,23,1,sedulousness,diligence,credulousness,seduction,perilousness,frankness,1,,,,,,,,,,,,,,,,,,,,,,,,,,,,,,,
,,,,,,,,,,,,,,,88601,001,2022-04-25_15h43.54.077,SPAMnetsValid,2021.1.4,Win32,59.23117929,,,,,,,,,,,,,,,,,,,,,,,,,,,,,,,,,,,,,,,,,,,,,,,,,,,,water,bucket,0,0,0,0,1,,,,,,,,,,,,,,,,,,,,,,,,
,,,,,,,,,,,,,,,88601,001,2022-04-25_15h43.54.077,SPAMnetsValid,2021.1.4,Win32,59.23117929,,,,,,,,,,,,,,,,,,,,,,,,,,,,,,,,,,,,,,,,,,,,,,,,,,,,sand,bucket,1,0,1,0,1,,,,,,,,,,,,,,,,,,,,,,,,
,,,,,,,,,,,,,,,88601,001,2022-04-25_15h43.54.077,SPAMnetsValid,2021.1.4,Win32,59.23117929,,,,,,,,,,,,,,,,,,,,,,,,,,,,,,,,,,,,,,,,,,,,,,,,,,,,beach,bucket,2,0,2,0,1,,,,,,,,,,,,,,,,,,,,,,,,
,,,,,,,,,,,,,,,88601,001,2022-04-25_15h43.54.077,SPAMnetsValid,2021.1.4,Win32,59.23117929,,,,,,,,,,,,,,,,,,,,,,,,,,,,,,,,,,,,,,,,,,,,,,,,,,,,concrete,bucket,3,0,3,0,1,,,,,,,,,,,,,,,,,,,,,,,,
,,,,,,,,,,,,,,,88601,001,2022-04-25_15h43.54.077,SPAMnetsValid,2021.1.4,Win32,59.23117929,,,,,,,,,,,,,,,,,,,,,,,,,,,,,,,,,,,,,,,,,,,,,,,,,,,,,,,,,,,0,0,0,0,1,bucket,,,,,,,,,,,,,,,,,,
,,,,,,,,,,,,,,,88601,001,2022-04-25_15h43.54.077,SPAMnetsValid,2021.1.4,Win32,59.23117929,,,,,,,,,,,,,,,,,,,,,,,,,,,,,,,,,,,,,,,,,,,,,,,,,,,,light,candle,0,0,0,0,1,,,,,,,,,,,,,,,,,,,,,,,,
,,,,,,,,,,,,,,,88601,001,2022-04-25_15h43.54.077,SPAMnetsValid,2021.1.4,Win32,59.23117929,,,,,,,,,,,,,,,,,,,,,,,,,,,,,,,,,,,,,,,,,,,,,,,,,,,,car,candle,1,0,1,0,1,,,,,,,,,,,,,,,,,,,,,,,,
,,,,,,,,,,,,,,,88601,001,2022-04-25_15h43.54.077,SPAMnetsValid,2021.1.4,Win32,59.23117929,,,,,,,,,,,,,,,,,,,,,,,,,,,,,,,,,,,,,,,,,,,,,,,,,,,,,,,,,,,0,1,1,1,1,candle,,,,,,,,,,,,,,,,,,
,,,,,,,,,,,,,,,88601,001,2022-04-25_15h43.54.077,SPAMnetsValid,2021.1.4,Win32,59.23117929,,,,,,,,,,,,,,,,,,,,,,,,,,,,,,,,,,,,,,,,,,,,,,,,,,,,,,,,,,,0,2,2,2,1,pillow,,,,,,,,,,,,,,,,,,
,,,,,,,,,,,,,,,88601,001,2022-04-25_15h43.54.077,SPAMnetsValid,2021.1.4,Win32,59.23117929,,,,,,,,,,,,,,,,,,,,,,,,,,,,,,,,,,,,,,,,,,,,,,,,,,,,,,,,,,,,,,,,,0,0,0,0,1,Animals,,,,,,,,,,,,
,,,,,,,,,,,,,,,88601,001,2022-04-25_15h43.54.077,SPAMnetsValid,2021.1.4,Win32,59.23117929,,,,,,,,,,,,,,,,,,,,,,,,,,,,,,,,,,,,,,,,,,,,,,,,,,,,,,,,,,,,,,,,,,,,,,,3,1.4562,0,0,0,0,1,"I enjoy concentrating on a fantasy or daydream and exploring all its possibilities, letting it grow and develop.",0,1,,
,,,,,,,,,,,,,,,88601,001,2022-04-25_15h43.54.077,SPAMnetsValid,2021.1.4,Win32,59.23117929,,,,,,,,,,,,,,,,,,,,,,,,,,,,,,,,,,,,,,,,,,,,,,,,,,,,,,,,,,,,,,,,,,,,,,,4,1.966099999,0,1,1,1,1,I think it's interesting to learn and develop new hobbies.,0,2,,
,,,,,,,,,,,,,,,88601,001,2022-04-25_15h43.54.077,SPAMnetsValid,2021.1.4,Win32,59.23117929,,,,,,,,,,,,,,,,,,,,,,,,,,,,,,,,,,,,,,,,,,,,,,,,,,,,,,,,,,,,,,,,,,,,,,,3,2.4344,0,2,2,2,1,I am intrigued by the patterns I find in art and nature.,0,3,,
,,,,,,,,,,,,,,,88601,001,2022-04-25_15h43.54.077,SPAMnetsValid,2021.1.4,Win32,59.23117929,,,,,,,,,,,,,,,,,,,,,,,,,,,,,,,,,,,,,,,,,,,,,,,,,,,,,,,,,,,,,,,,,,,,,,,4,1.2068,0,3,3,3,1,I believe letting students hear controversial speakers can only confuse and mislead them.,1,4,,
,,,,,,,,,,,,,,,88601,001,2022-04-25_15h43.54.077,SPAMnetsValid,2021.1.4,Win32,59.23117929,,,,,,,,,,,,,,,,,,,,,,,,,,,,,,,,,,,,,,,,,,,,,,,,,,,,,,,,,,,,,,,,,,,,,,,3,0.985200001,0,4,4,4,1,Poetry has little or no effect on me.,1,5,,
,,,,,,,,,,,,,,,88601,001,2022-04-25_15h43.54.077,SPAMnetsValid,2021.1.4,Win32,59.23117929,,,,,,,,,,,,,,,,,,,,,,,,,,,,,,,,,,,,,,,,,,,,,,,,,,,,,,,,,,,,,,,,,,,,,,,2,0.9581,0,5,5,5,1,I would have difficulty just letting my mind wander without control or guidance.,1,6,,
,,,,,,,,,,,,,,,88601,001,2022-04-25_15h43.54.077,SPAMnetsValid,2021.1.4,Win32,59.23117929,,,,,,,,,,,,,,,,,,,,,,,,,,,,,,,,,,,,,,,,,,,,,,,,,,,,,,,,,,,,,,,,,,,,,,,3,1.321,0,6,6,6,1,I seldom notice the moods or feelings that different environments produce.,1,7,,
,,,,,,,,,,,,,,,88601,001,2022-04-25_15h43.54.077,SPAMnetsValid,2021.1.4,Win32,59.23117929,,,,,,,,,,,,,,,,,,,,,,,,,,,,,,,,,,,,,,,,,,,,,,,,,,,,,,,,,,,,,,,,,,,,,,,4,0.8885,0,7,7,7,1,I experience a wide range of emotions or feelings.,0,8,,
,,,,,,,,,,,,,,,88601,001,2022-04-25_15h43.54.077,SPAMnetsValid,2021.1.4,Win32,59.23117929,,,,,,,,,,,,,,,,,,,,,,,,,,,,,,,,,,,,,,,,,,,,,,,,,,,,,,,,,,,,,,,,,,,,,,,3,0.937400001,0,8,8,8,1,"Sometimes when I am reading poetry or looking at a work of art, I feel a chill or wave of excitement.",0,9,,
,,,,,,,,,,,,,,,88601,001,2022-04-25_15h43.54.077,SPAMnetsValid,2021.1.4,Win32,59.23117929,,,,,,,,,,,,,,,,,,,,,,,,,,,,,,,,,,,,,,,,,,,,,,,,,,,,,,,,,,,,,,,,,,,,,,,4,0.9008,0,9,9,9,1,I have little interest in speculating on the nature of the universe or the human condition.,1,10,,
,,,,,,,,,,,,,,,88601,001,2022-04-25_15h43.54.077,SPAMnetsValid,2021.1.4,Win32,59.23117929,,,,,,,,,,,,,,,,,,,,,,,,,,,,,,,,,,,,,,,,,,,,,,,,,,,,,,,,,,,,,,,,,,,,,,,4,0.7394,0,10,10,10,1,I have a lot of intellectual curiosity.,0,11,,
,,,,,,,,,,,,,,,88601,001,2022-04-25_15h43.54.077,SPAMnetsValid,2021.1.4,Win32,59.23117929,,,,,,,,,,,,,,,,,,,,,,,,,,,,,,,,,,,,,,,,,,,,,,,,,,,,,,,,,,,,,,,,,,,,,,,4,0.587099999,0,11,11,11,1,I often enjoy playing with theories or abstract ideas.,0,12,,
,,,,,,,,,,,,,,,88601,001,2022-04-25_15h43.54.077,SPAMnetsValid,2021.1.4,Win32,59.23117929,,,,,,,,,,,,,,,,,,,,,,,,,,,,,,,,,,,,,,,,,,,,,,,,,,,,,,,,,,,,,,,,,,,,,,,,,,,,,,,,,return,0.6235
