key_resp_3.keys,key_resp_3.rt,slider.response,slider.rt,rjt_rating,rjt_RT,trials_22.thisRepN,trials_22.thisTrialN,trials_22.thisN,trials_22.thisIndex,trials_22.ran,rjt_order,word1,word2,attention,participant,session,date,expName,psychopyVersion,OS,frameRate,trials_99.thisRepN,trials_99.thisTrialN,trials_99.thisN,trials_99.thisIndex,trials_99.ran,trials_5.thisRepN,trials_5.thisTrialN,trials_5.thisN,trials_5.thisIndex,trials_5.ran,repOne,repTwo,slider_2.response,slider_2.rt,trials_24.thisRepN,trials_24.thisTrialN,trials_24.thisN,trials_24.thisIndex,trials_24.ran,trials_4.thisRepN,trials_4.thisTrialN,trials_4.thisN,trials_4.thisIndex,trials_4.ran,slider_extend_2.response,slider_extend_2.rt,trials_6.thisRepN,trials_6.thisTrialN,trials_6.thisN,trials_6.thisIndex,trials_6.ran,vCue2,R1,R2,R3,R4,correct,sliderVocab.response,sliderVocab.rt,trials_7.thisRepN,trials_7.thisTrialN,trials_7.thisN,trials_7.thisIndex,trials_7.ran,VocabCue,VR1,VR2,VR3,VR4,VR5,VocabCorrect,AUT_resp,AUT_label,trials.thisRepN,trials.thisTrialN,trials.thisN,trials.thisIndex,trials.ran,trials_2.thisRepN,trials_2.thisTrialN,trials_2.thisN,trials_2.thisIndex,trials_2.ran,aut_prompt,VF_response,VF_tag,trials_16.thisRepN,trials_16.thisTrialN,trials_16.thisN,trials_16.thisIndex,trials_16.ran,trials_17.thisRepN,trials_17.thisTrialN,trials_17.thisN,trials_17.thisIndex,trials_17.ran,VFcond,open_slider.response,open_slider.rt,trials_3.thisRepN,trials_3.thisTrialN,trials_3.thisN,trials_3.thisIndex,trials_3.ran,OpenQ,Rev,OPEN_ORDER,key_resp_2.keys,key_resp_2.rt
return,7.847,7,7.0632,7,7.0632,0,0,0,93,1,63,cake,cookie,,88653,001,2022-04-24_21h39.38.645,SPAMnetsValid,2021.1.4,Win32,49.932591,,,,,,,,,,,,,,,,,,,,,,,,,,,,,,,,,,,,,,,,,,,,,,,,,,,,,,,,,,,,,,,,,,,,,,,,,,,,,,,,,,,,,,,,,
,,5,8.9363,5,8.9363,0,1,1,28,1,84,oven,tomato,,88653,001,2022-04-24_21h39.38.645,SPAMnetsValid,2021.1.4,Win32,49.932591,,,,,,,,,,,,,,,,,,,,,,,,,,,,,,,,,,,,,,,,,,,,,,,,,,,,,,,,,,,,,,,,,,,,,,,,,,,,,,,,,,,,,,,,,
,,8,5.5381,8,5.5381,0,2,2,64,1,9,kitchen,refrigerator,,88653,001,2022-04-24_21h39.38.645,SPAMnetsValid,2021.1.4,Win32,49.932591,,,,,,,,,,,,,,,,,,,,,,,,,,,,,,,,,,,,,,,,,,,,,,,,,,,,,,,,,,,,,,,,,,,,,,,,,,,,,,,,,,,,,,,,,
,,4,4.6822,4,4.6822,0,3,3,92,1,44,cookie,melon,,88653,001,2022-04-24_21h39.38.645,SPAMnetsValid,2021.1.4,Win32,49.932591,,,,,,,,,,,,,,,,,,,,,,,,,,,,,,,,,,,,,,,,,,,,,,,,,,,,,,,,,,,,,,,,,,,,,,,,,,,,,,,,,,,,,,,,,
,,3,3.4738,3,3.4738,0,4,4,89,1,80,chocolate,tree,,88653,001,2022-04-24_21h39.38.645,SPAMnetsValid,2021.1.4,Win32,49.932591,,,,,,,,,,,,,,,,,,,,,,,,,,,,,,,,,,,,,,,,,,,,,,,,,,,,,,,,,,,,,,,,,,,,,,,,,,,,,,,,,,,,,,,,,
,,3,5.6959,3,5.6959,0,5,5,73,1,50,carrot,rose,,88653,001,2022-04-24_21h39.38.645,SPAMnetsValid,2021.1.4,Win32,49.932591,,,,,,,,,,,,,,,,,,,,,,,,,,,,,,,,,,,,,,,,,,,,,,,,,,,,,,,,,,,,,,,,,,,,,,,,,,,,,,,,,,,,,,,,,
,,3,2.3176,3,2.3176,0,6,6,74,1,70,chocolate,onion,,88653,001,2022-04-24_21h39.38.645,SPAMnetsValid,2021.1.4,Win32,49.932591,,,,,,,,,,,,,,,,,,,,,,,,,,,,,,,,,,,,,,,,,,,,,,,,,,,,,,,,,,,,,,,,,,,,,,,,,,,,,,,,,,,,,,,,,
,,4,3.5222,4,3.5222,0,7,7,22,1,16,chocolate,flower,,88653,001,2022-04-24_21h39.38.645,SPAMnetsValid,2021.1.4,Win32,49.932591,,,,,,,,,,,,,,,,,,,,,,,,,,,,,,,,,,,,,,,,,,,,,,,,,,,,,,,,,,,,,,,,,,,,,,,,,,,,,,,,,,,,,,,,,
,,2,2.5356,2,2.5356,0,8,8,15,1,48,flower,oven,,88653,001,2022-04-24_21h39.38.645,SPAMnetsValid,2021.1.4,Win32,49.932591,,,,,,,,,,,,,,,,,,,,,,,,,,,,,,,,,,,,,,,,,,,,,,,,,,,,,,,,,,,,,,,,,,,,,,,,,,,,,,,,,,,,,,,,,
,,4,2.5353,4,2.5353,0,9,9,96,1,82,cake,kitchen,,88653,001,2022-04-24_21h39.38.645,SPAMnetsValid,2021.1.4,Win32,49.932591,,,,,,,,,,,,,,,,,,,,,,,,,,,,,,,,,,,,,,,,,,,,,,,,,,,,,,,,,,,,,,,,,,,,,,,,,,,,,,,,,,,,,,,,,
,,2,5.8425,2,5.8425,0,10,10,40,1,74,broom,pretzel,,88653,001,2022-04-24_21h39.38.645,SPAMnetsValid,2021.1.4,Win32,49.932591,,,,,,,,,,,,,,,,,,,,,,,,,,,,,,,,,,,,,,,,,,,,,,,,,,,,,,,,,,,,,,,,,,,,,,,,,,,,,,,,,,,,,,,,,
,,3,5.4594,3,5.4594,0,11,11,60,1,89,chocolate,rose,,88653,001,2022-04-24_21h39.38.645,SPAMnetsValid,2021.1.4,Win32,49.932591,,,,,,,,,,,,,,,,,,,,,,,,,,,,,,,,,,,,,,,,,,,,,,,,,,,,,,,,,,,,,,,,,,,,,,,,,,,,,,,,,,,,,,,,,
,,3,8.383,3,8.383,0,12,12,35,1,55,tomato,tree,,88653,001,2022-04-24_21h39.38.645,SPAMnetsValid,2021.1.4,Win32,49.932591,,,,,,,,,,,,,,,,,,,,,,,,,,,,,,,,,,,,,,,,,,,,,,,,,,,,,,,,,,,,,,,,,,,,,,,,,,,,,,,,,,,,,,,,,
,,8,2.4649,8,2.4649,0,13,13,58,1,94,kitchen,microwave,,88653,001,2022-04-24_21h39.38.645,SPAMnetsValid,2021.1.4,Win32,49.932591,,,,,,,,,,,,,,,,,,,,,,,,,,,,,,,,,,,,,,,,,,,,,,,,,,,,,,,,,,,,,,,,,,,,,,,,,,,,,,,,,,,,,,,,,
,,3,2.2658,3,2.2658,0,14,14,31,1,33,oven,yogurt,,88653,001,2022-04-24_21h39.38.645,SPAMnetsValid,2021.1.4,Win32,49.932591,,,,,,,,,,,,,,,,,,,,,,,,,,,,,,,,,,,,,,,,,,,,,,,,,,,,,,,,,,,,,,,,,,,,,,,,,,,,,,,,,,,,,,,,,
,,7,5.8809,7,5.8809,0,15,15,66,1,20,rose,tree,,88653,001,2022-04-24_21h39.38.645,SPAMnetsValid,2021.1.4,Win32,49.932591,,,,,,,,,,,,,,,,,,,,,,,,,,,,,,,,,,,,,,,,,,,,,,,,,,,,,,,,,,,,,,,,,,,,,,,,,,,,,,,,,,,,,,,,,
,,4,2.4973,4,2.4973,0,16,16,45,1,10,flower,onion,,88653,001,2022-04-24_21h39.38.645,SPAMnetsValid,2021.1.4,Win32,49.932591,,,,,,,,,,,,,,,,,,,,,,,,,,,,,,,,,,,,,,,,,,,,,,,,,,,,,,,,,,,,,,,,,,,,,,,,,,,,,,,,,,,,,,,,,
,,7,36.0675,7,36.0675,0,17,17,75,1,69,carrot,refrigerator,,88653,001,2022-04-24_21h39.38.645,SPAMnetsValid,2021.1.4,Win32,49.932591,,,,,,,,,,,,,,,,,,,,,,,,,,,,,,,,,,,,,,,,,,,,,,,,,,,,,,,,,,,,,,,,,,,,,,,,,,,,,,,,,,,,,,,,,
,,5,5.1565,5,5.1565,0,18,18,3,1,49,flower,strawberry,,88653,001,2022-04-24_21h39.38.645,SPAMnetsValid,2021.1.4,Win32,49.932591,,,,,,,,,,,,,,,,,,,,,,,,,,,,,,,,,,,,,,,,,,,,,,,,,,,,,,,,,,,,,,,,,,,,,,,,,,,,,,,,,,,,,,,,,
,,3,2.9384,3,2.9384,0,19,19,7,1,34,melon,oven,,88653,001,2022-04-24_21h39.38.645,SPAMnetsValid,2021.1.4,Win32,49.932591,,,,,,,,,,,,,,,,,,,,,,,,,,,,,,,,,,,,,,,,,,,,,,,,,,,,,,,,,,,,,,,,,,,,,,,,,,,,,,,,,,,,,,,,,
,,3,1.8344,3,1.8344,0,20,20,65,1,46,garden,yogurt,,88653,001,2022-04-24_21h39.38.645,SPAMnetsValid,2021.1.4,Win32,49.932591,,,,,,,,,,,,,,,,,,,,,,,,,,,,,,,,,,,,,,,,,,,,,,,,,,,,,,,,,,,,,,,,,,,,,,,,,,,,,,,,,,,,,,,,,
,,3,3.2343,3,3.2343,0,21,21,90,1,95,broom,refrigerator,,88653,001,2022-04-24_21h39.38.645,SPAMnetsValid,2021.1.4,Win32,49.932591,,,,,,,,,,,,,,,,,,,,,,,,,,,,,,,,,,,,,,,,,,,,,,,,,,,,,,,,,,,,,,,,,,,,,,,,,,,,,,,,,,,,,,,,,
,,3,1.7715,3,1.7715,0,22,22,63,1,21,cake,onion,,88653,001,2022-04-24_21h39.38.645,SPAMnetsValid,2021.1.4,Win32,49.932591,,,,,,,,,,,,,,,,,,,,,,,,,,,,,,,,,,,,,,,,,,,,,,,,,,,,,,,,,,,,,,,,,,,,,,,,,,,,,,,,,,,,,,,,,
,,2,2.7393,2,2.7393,0,23,23,88,1,92,broom,flower,,88653,001,2022-04-24_21h39.38.645,SPAMnetsValid,2021.1.4,Win32,49.932591,,,,,,,,,,,,,,,,,,,,,,,,,,,,,,,,,,,,,,,,,,,,,,,,,,,,,,,,,,,,,,,,,,,,,,,,,,,,,,,,,,,,,,,,,
,,9,2.4922,9,2.4922,0,24,24,53,1,192,microwave,microwave,CHECK,88653,001,2022-04-24_21h39.38.645,SPAMnetsValid,2021.1.4,Win32,49.932591,,,,,,,,,,,,,,,,,,,,,,,,,,,,,,,,,,,,,,,,,,,,,,,,,,,,,,,,,,,,,,,,,,,,,,,,,,,,,,,,,,,,,,,,,
,,2,2.7203,2,2.7203,0,25,25,16,1,14,broom,cookie,,88653,001,2022-04-24_21h39.38.645,SPAMnetsValid,2021.1.4,Win32,49.932591,,,,,,,,,,,,,,,,,,,,,,,,,,,,,,,,,,,,,,,,,,,,,,,,,,,,,,,,,,,,,,,,,,,,,,,,,,,,,,,,,,,,,,,,,
,,9,2.0193,9,2.0193,0,26,26,10,1,191,cake,cake,CHECK,88653,001,2022-04-24_21h39.38.645,SPAMnetsValid,2021.1.4,Win32,49.932591,,,,,,,,,,,,,,,,,,,,,,,,,,,,,,,,,,,,,,,,,,,,,,,,,,,,,,,,,,,,,,,,,,,,,,,,,,,,,,,,,,,,,,,,,
,,8,2.0326,8,2.0326,0,27,27,82,1,93,kitchen,oven,,88653,001,2022-04-24_21h39.38.645,SPAMnetsValid,2021.1.4,Win32,49.932591,,,,,,,,,,,,,,,,,,,,,,,,,,,,,,,,,,,,,,,,,,,,,,,,,,,,,,,,,,,,,,,,,,,,,,,,,,,,,,,,,,,,,,,,,
,,2,2.0141,2,2.0141,0,28,28,23,1,65,broom,garden,,88653,001,2022-04-24_21h39.38.645,SPAMnetsValid,2021.1.4,Win32,49.932591,,,,,,,,,,,,,,,,,,,,,,,,,,,,,,,,,,,,,,,,,,,,,,,,,,,,,,,,,,,,,,,,,,,,,,,,,,,,,,,,,,,,,,,,,
,,7,2.3216,7,2.3216,0,29,29,39,1,15,onion,oven,,88653,001,2022-04-24_21h39.38.645,SPAMnetsValid,2021.1.4,Win32,49.932591,,,,,,,,,,,,,,,,,,,,,,,,,,,,,,,,,,,,,,,,,,,,,,,,,,,,,,,,,,,,,,,,,,,,,,,,,,,,,,,,,,,,,,,,,
,,2,3.4715,2,3.4715,0,30,30,61,1,71,broom,rose,,88653,001,2022-04-24_21h39.38.645,SPAMnetsValid,2021.1.4,Win32,49.932591,,,,,,,,,,,,,,,,,,,,,,,,,,,,,,,,,,,,,,,,,,,,,,,,,,,,,,,,,,,,,,,,,,,,,,,,,,,,,,,,,,,,,,,,,
,,8,2.4198,8,2.4198,0,31,31,95,1,52,carrot,tomato,,88653,001,2022-04-24_21h39.38.645,SPAMnetsValid,2021.1.4,Win32,49.932591,,,,,,,,,,,,,,,,,,,,,,,,,,,,,,,,,,,,,,,,,,,,,,,,,,,,,,,,,,,,,,,,,,,,,,,,,,,,,,,,,,,,,,,,,
,,2,3.621,2,3.621,0,32,32,55,1,1,rose,yogurt,,88653,001,2022-04-24_21h39.38.645,SPAMnetsValid,2021.1.4,Win32,49.932591,,,,,,,,,,,,,,,,,,,,,,,,,,,,,,,,,,,,,,,,,,,,,,,,,,,,,,,,,,,,,,,,,,,,,,,,,,,,,,,,,,,,,,,,,
,,3,2.7143,3,2.7143,0,33,33,13,1,26,tomato,yogurt,,88653,001,2022-04-24_21h39.38.645,SPAMnetsValid,2021.1.4,Win32,49.932591,,,,,,,,,,,,,,,,,,,,,,,,,,,,,,,,,,,,,,,,,,,,,,,,,,,,,,,,,,,,,,,,,,,,,,,,,,,,,,,,,,,,,,,,,
,,3,2.8035,3,2.8035,0,34,34,47,1,73,broom,chocolate,,88653,001,2022-04-24_21h39.38.645,SPAMnetsValid,2021.1.4,Win32,49.932591,,,,,,,,,,,,,,,,,,,,,,,,,,,,,,,,,,,,,,,,,,,,,,,,,,,,,,,,,,,,,,,,,,,,,,,,,,,,,,,,,,,,,,,,,
,,3,1.4583,3,1.4583,0,35,35,56,1,78,cookie,rose,,88653,001,2022-04-24_21h39.38.645,SPAMnetsValid,2021.1.4,Win32,49.932591,,,,,,,,,,,,,,,,,,,,,,,,,,,,,,,,,,,,,,,,,,,,,,,,,,,,,,,,,,,,,,,,,,,,,,,,,,,,,,,,,,,,,,,,,
,,3,1.4098,3,1.4098,0,36,36,11,1,37,garden,refrigerator,,88653,001,2022-04-24_21h39.38.645,SPAMnetsValid,2021.1.4,Win32,49.932591,,,,,,,,,,,,,,,,,,,,,,,,,,,,,,,,,,,,,,,,,,,,,,,,,,,,,,,,,,,,,,,,,,,,,,,,,,,,,,,,,,,,,,,,,
,,8,2.4729,8,2.4729,0,37,37,30,1,3,cake,oven,,88653,001,2022-04-24_21h39.38.645,SPAMnetsValid,2021.1.4,Win32,49.932591,,,,,,,,,,,,,,,,,,,,,,,,,,,,,,,,,,,,,,,,,,,,,,,,,,,,,,,,,,,,,,,,,,,,,,,,,,,,,,,,,,,,,,,,,
,,7,3.0961,7,3.0961,0,38,38,48,1,66,melon,yogurt,,88653,001,2022-04-24_21h39.38.645,SPAMnetsValid,2021.1.4,Win32,49.932591,,,,,,,,,,,,,,,,,,,,,,,,,,,,,,,,,,,,,,,,,,,,,,,,,,,,,,,,,,,,,,,,,,,,,,,,,,,,,,,,,,,,,,,,,
,,3,1.5354,3,1.5354,0,39,39,20,1,39,melon,pretzel,,88653,001,2022-04-24_21h39.38.645,SPAMnetsValid,2021.1.4,Win32,49.932591,,,,,,,,,,,,,,,,,,,,,,,,,,,,,,,,,,,,,,,,,,,,,,,,,,,,,,,,,,,,,,,,,,,,,,,,,,,,,,,,,,,,,,,,,
,,4,2.4667,4,2.4667,0,40,40,29,1,42,garden,kitchen,,88653,001,2022-04-24_21h39.38.645,SPAMnetsValid,2021.1.4,Win32,49.932591,,,,,,,,,,,,,,,,,,,,,,,,,,,,,,,,,,,,,,,,,,,,,,,,,,,,,,,,,,,,,,,,,,,,,,,,,,,,,,,,,,,,,,,,,
,,1,3.5169,1,3.5169,0,41,41,43,1,11,refrigerator,tree,,88653,001,2022-04-24_21h39.38.645,SPAMnetsValid,2021.1.4,Win32,49.932591,,,,,,,,,,,,,,,,,,,,,,,,,,,,,,,,,,,,,,,,,,,,,,,,,,,,,,,,,,,,,,,,,,,,,,,,,,,,,,,,,,,,,,,,,
,,7,5.4379,7,5.4379,0,42,42,34,1,29,chocolate,melon,,88653,001,2022-04-24_21h39.38.645,SPAMnetsValid,2021.1.4,Win32,49.932591,,,,,,,,,,,,,,,,,,,,,,,,,,,,,,,,,,,,,,,,,,,,,,,,,,,,,,,,,,,,,,,,,,,,,,,,,,,,,,,,,,,,,,,,,
,,5,3.9389,5,3.9389,0,43,43,41,1,19,microwave,pretzel,,88653,001,2022-04-24_21h39.38.645,SPAMnetsValid,2021.1.4,Win32,49.932591,,,,,,,,,,,,,,,,,,,,,,,,,,,,,,,,,,,,,,,,,,,,,,,,,,,,,,,,,,,,,,,,,,,,,,,,,,,,,,,,,,,,,,,,,
,,4,3.8562,4,3.8562,0,44,44,94,1,68,flower,tomato,,88653,001,2022-04-24_21h39.38.645,SPAMnetsValid,2021.1.4,Win32,49.932591,,,,,,,,,,,,,,,,,,,,,,,,,,,,,,,,,,,,,,,,,,,,,,,,,,,,,,,,,,,,,,,,,,,,,,,,,,,,,,,,,,,,,,,,,
,,6,4.1766,6,4.1766,0,45,45,57,1,62,kitchen,rose,,88653,001,2022-04-24_21h39.38.645,SPAMnetsValid,2021.1.4,Win32,49.932591,,,,,,,,,,,,,,,,,,,,,,,,,,,,,,,,,,,,,,,,,,,,,,,,,,,,,,,,,,,,,,,,,,,,,,,,,,,,,,,,,,,,,,,,,
,,4,1.816,4,1.816,0,46,46,79,1,86,oven,rose,,88653,001,2022-04-24_21h39.38.645,SPAMnetsValid,2021.1.4,Win32,49.932591,,,,,,,,,,,,,,,,,,,,,,,,,,,,,,,,,,,,,,,,,,,,,,,,,,,,,,,,,,,,,,,,,,,,,,,,,,,,,,,,,,,,,,,,,
,,4,2.0189,4,2.0189,0,47,47,6,1,87,carrot,yogurt,,88653,001,2022-04-24_21h39.38.645,SPAMnetsValid,2021.1.4,Win32,49.932591,,,,,,,,,,,,,,,,,,,,,,,,,,,,,,,,,,,,,,,,,,,,,,,,,,,,,,,,,,,,,,,,,,,,,,,,,,,,,,,,,,,,,,,,,
,,7,2.3544,7,2.3544,0,48,48,76,1,36,broom,kitchen,,88653,001,2022-04-24_21h39.38.645,SPAMnetsValid,2021.1.4,Win32,49.932591,,,,,,,,,,,,,,,,,,,,,,,,,,,,,,,,,,,,,,,,,,,,,,,,,,,,,,,,,,,,,,,,,,,,,,,,,,,,,,,,,,,,,,,,,
,,1,2.2959,1,2.2959,0,49,49,5,1,13,broom,yogurt,,88653,001,2022-04-24_21h39.38.645,SPAMnetsValid,2021.1.4,Win32,49.932591,,,,,,,,,,,,,,,,,,,,,,,,,,,,,,,,,,,,,,,,,,,,,,,,,,,,,,,,,,,,,,,,,,,,,,,,,,,,,,,,,,,,,,,,,
,,2,2.4762,2,2.4762,0,50,50,59,1,8,broom,melon,,88653,001,2022-04-24_21h39.38.645,SPAMnetsValid,2021.1.4,Win32,49.932591,,,,,,,,,,,,,,,,,,,,,,,,,,,,,,,,,,,,,,,,,,,,,,,,,,,,,,,,,,,,,,,,,,,,,,,,,,,,,,,,,,,,,,,,,
,,2,1.9743,2,1.9743,0,51,51,54,1,28,cake,melon,,88653,001,2022-04-24_21h39.38.645,SPAMnetsValid,2021.1.4,Win32,49.932591,,,,,,,,,,,,,,,,,,,,,,,,,,,,,,,,,,,,,,,,,,,,,,,,,,,,,,,,,,,,,,,,,,,,,,,,,,,,,,,,,,,,,,,,,
,,3,3.0561,3,3.0561,0,52,52,69,1,45,onion,pretzel,,88653,001,2022-04-24_21h39.38.645,SPAMnetsValid,2021.1.4,Win32,49.932591,,,,,,,,,,,,,,,,,,,,,,,,,,,,,,,,,,,,,,,,,,,,,,,,,,,,,,,,,,,,,,,,,,,,,,,,,,,,,,,,,,,,,,,,,
,,2,2.8757,2,2.8757,0,53,53,17,1,27,cactus,cookie,,88653,001,2022-04-24_21h39.38.645,SPAMnetsValid,2021.1.4,Win32,49.932591,,,,,,,,,,,,,,,,,,,,,,,,,,,,,,,,,,,,,,,,,,,,,,,,,,,,,,,,,,,,,,,,,,,,,,,,,,,,,,,,,,,,,,,,,
,,2,2.3146,2,2.3146,0,54,54,62,1,18,onion,refrigerator,,88653,001,2022-04-24_21h39.38.645,SPAMnetsValid,2021.1.4,Win32,49.932591,,,,,,,,,,,,,,,,,,,,,,,,,,,,,,,,,,,,,,,,,,,,,,,,,,,,,,,,,,,,,,,,,,,,,,,,,,,,,,,,,,,,,,,,,
,,6,2.3361,6,2.3361,0,55,55,91,1,2,kitchen,onion,,88653,001,2022-04-24_21h39.38.645,SPAMnetsValid,2021.1.4,Win32,49.932591,,,,,,,,,,,,,,,,,,,,,,,,,,,,,,,,,,,,,,,,,,,,,,,,,,,,,,,,,,,,,,,,,,,,,,,,,,,,,,,,,,,,,,,,,
,,3,2.2812,3,2.2812,0,56,56,0,1,53,garden,pretzel,,88653,001,2022-04-24_21h39.38.645,SPAMnetsValid,2021.1.4,Win32,49.932591,,,,,,,,,,,,,,,,,,,,,,,,,,,,,,,,,,,,,,,,,,,,,,,,,,,,,,,,,,,,,,,,,,,,,,,,,,,,,,,,,,,,,,,,,
,,7,1.8963,7,1.8963,0,57,57,42,1,77,refrigerator,yogurt,,88653,001,2022-04-24_21h39.38.645,SPAMnetsValid,2021.1.4,Win32,49.932591,,,,,,,,,,,,,,,,,,,,,,,,,,,,,,,,,,,,,,,,,,,,,,,,,,,,,,,,,,,,,,,,,,,,,,,,,,,,,,,,,,,,,,,,,
,,6,3.0957,6,3.0957,0,58,58,78,1,30,cookie,pretzel,,88653,001,2022-04-24_21h39.38.645,SPAMnetsValid,2021.1.4,Win32,49.932591,,,,,,,,,,,,,,,,,,,,,,,,,,,,,,,,,,,,,,,,,,,,,,,,,,,,,,,,,,,,,,,,,,,,,,,,,,,,,,,,,,,,,,,,,
,,7,2.9222,7,2.9222,0,59,59,67,1,54,chocolate,yogurt,,88653,001,2022-04-24_21h39.38.645,SPAMnetsValid,2021.1.4,Win32,49.932591,,,,,,,,,,,,,,,,,,,,,,,,,,,,,,,,,,,,,,,,,,,,,,,,,,,,,,,,,,,,,,,,,,,,,,,,,,,,,,,,,,,,,,,,,
,,4,1.9785,4,1.9785,0,60,60,18,1,85,cake,tree,,88653,001,2022-04-24_21h39.38.645,SPAMnetsValid,2021.1.4,Win32,49.932591,,,,,,,,,,,,,,,,,,,,,,,,,,,,,,,,,,,,,,,,,,,,,,,,,,,,,,,,,,,,,,,,,,,,,,,,,,,,,,,,,,,,,,,,,
,,6,2.6813,6,2.6813,0,61,61,52,1,4,chocolate,pretzel,,88653,001,2022-04-24_21h39.38.645,SPAMnetsValid,2021.1.4,Win32,49.932591,,,,,,,,,,,,,,,,,,,,,,,,,,,,,,,,,,,,,,,,,,,,,,,,,,,,,,,,,,,,,,,,,,,,,,,,,,,,,,,,,,,,,,,,,
,,4,1.9922,4,1.9922,0,62,62,8,1,43,chocolate,tomato,,88653,001,2022-04-24_21h39.38.645,SPAMnetsValid,2021.1.4,Win32,49.932591,,,,,,,,,,,,,,,,,,,,,,,,,,,,,,,,,,,,,,,,,,,,,,,,,,,,,,,,,,,,,,,,,,,,,,,,,,,,,,,,,,,,,,,,,
,,4,1.8911,4,1.8911,0,63,63,26,1,35,flower,pretzel,,88653,001,2022-04-24_21h39.38.645,SPAMnetsValid,2021.1.4,Win32,49.932591,,,,,,,,,,,,,,,,,,,,,,,,,,,,,,,,,,,,,,,,,,,,,,,,,,,,,,,,,,,,,,,,,,,,,,,,,,,,,,,,,,,,,,,,,
,,7,4.9985,7,4.9985,0,64,64,87,1,79,garden,strawberry,,88653,001,2022-04-24_21h39.38.645,SPAMnetsValid,2021.1.4,Win32,49.932591,,,,,,,,,,,,,,,,,,,,,,,,,,,,,,,,,,,,,,,,,,,,,,,,,,,,,,,,,,,,,,,,,,,,,,,,,,,,,,,,,,,,,,,,,
,,3,3.2702,3,3.2702,0,65,65,33,1,32,cake,microwave,,88653,001,2022-04-24_21h39.38.645,SPAMnetsValid,2021.1.4,Win32,49.932591,,,,,,,,,,,,,,,,,,,,,,,,,,,,,,,,,,,,,,,,,,,,,,,,,,,,,,,,,,,,,,,,,,,,,,,,,,,,,,,,,,,,,,,,,
,,7,2.9582,7,2.9582,0,66,66,21,1,56,cactus,tree,,88653,001,2022-04-24_21h39.38.645,SPAMnetsValid,2021.1.4,Win32,49.932591,,,,,,,,,,,,,,,,,,,,,,,,,,,,,,,,,,,,,,,,,,,,,,,,,,,,,,,,,,,,,,,,,,,,,,,,,,,,,,,,,,,,,,,,,
,,4,3.528,4,3.528,0,67,67,72,1,59,rose,strawberry,,88653,001,2022-04-24_21h39.38.645,SPAMnetsValid,2021.1.4,Win32,49.932591,,,,,,,,,,,,,,,,,,,,,,,,,,,,,,,,,,,,,,,,,,,,,,,,,,,,,,,,,,,,,,,,,,,,,,,,,,,,,,,,,,,,,,,,,
,,7,1.8011,7,1.8011,0,68,68,51,1,47,onion,tomato,,88653,001,2022-04-24_21h39.38.645,SPAMnetsValid,2021.1.4,Win32,49.932591,,,,,,,,,,,,,,,,,,,,,,,,,,,,,,,,,,,,,,,,,,,,,,,,,,,,,,,,,,,,,,,,,,,,,,,,,,,,,,,,,,,,,,,,,
,,7,1.7251,7,1.7251,0,69,69,19,1,76,garden,rose,,88653,001,2022-04-24_21h39.38.645,SPAMnetsValid,2021.1.4,Win32,49.932591,,,,,,,,,,,,,,,,,,,,,,,,,,,,,,,,,,,,,,,,,,,,,,,,,,,,,,,,,,,,,,,,,,,,,,,,,,,,,,,,,,,,,,,,,
,,3,2.3357,3,2.3357,0,70,70,9,1,75,cookie,onion,,88653,001,2022-04-24_21h39.38.645,SPAMnetsValid,2021.1.4,Win32,49.932591,,,,,,,,,,,,,,,,,,,,,,,,,,,,,,,,,,,,,,,,,,,,,,,,,,,,,,,,,,,,,,,,,,,,,,,,,,,,,,,,,,,,,,,,,
,,3,2.1922,3,2.1922,0,71,71,84,1,91,microwave,rose,,88653,001,2022-04-24_21h39.38.645,SPAMnetsValid,2021.1.4,Win32,49.932591,,,,,,,,,,,,,,,,,,,,,,,,,,,,,,,,,,,,,,,,,,,,,,,,,,,,,,,,,,,,,,,,,,,,,,,,,,,,,,,,,,,,,,,,,
,,4,5.0745,4,5.0745,0,72,72,38,1,88,cactus,melon,,88653,001,2022-04-24_21h39.38.645,SPAMnetsValid,2021.1.4,Win32,49.932591,,,,,,,,,,,,,,,,,,,,,,,,,,,,,,,,,,,,,,,,,,,,,,,,,,,,,,,,,,,,,,,,,,,,,,,,,,,,,,,,,,,,,,,,,
,,3,2.7474,3,2.7474,0,73,73,37,1,58,garden,oven,,88653,001,2022-04-24_21h39.38.645,SPAMnetsValid,2021.1.4,Win32,49.932591,,,,,,,,,,,,,,,,,,,,,,,,,,,,,,,,,,,,,,,,,,,,,,,,,,,,,,,,,,,,,,,,,,,,,,,,,,,,,,,,,,,,,,,,,
,,3,1.4877,3,1.4877,0,74,74,70,1,5,oven,tree,,88653,001,2022-04-24_21h39.38.645,SPAMnetsValid,2021.1.4,Win32,49.932591,,,,,,,,,,,,,,,,,,,,,,,,,,,,,,,,,,,,,,,,,,,,,,,,,,,,,,,,,,,,,,,,,,,,,,,,,,,,,,,,,,,,,,,,,
,,6,1.7355,6,1.7355,0,75,75,24,1,17,carrot,melon,,88653,001,2022-04-24_21h39.38.645,SPAMnetsValid,2021.1.4,Win32,49.932591,,,,,,,,,,,,,,,,,,,,,,,,,,,,,,,,,,,,,,,,,,,,,,,,,,,,,,,,,,,,,,,,,,,,,,,,,,,,,,,,,,,,,,,,,
,,3,2.0136,3,2.0136,0,76,76,12,1,67,flower,yogurt,,88653,001,2022-04-24_21h39.38.645,SPAMnetsValid,2021.1.4,Win32,49.932591,,,,,,,,,,,,,,,,,,,,,,,,,,,,,,,,,,,,,,,,,,,,,,,,,,,,,,,,,,,,,,,,,,,,,,,,,,,,,,,,,,,,,,,,,
,,3,1.4523,3,1.4523,0,77,77,81,1,60,cactus,onion,,88653,001,2022-04-24_21h39.38.645,SPAMnetsValid,2021.1.4,Win32,49.932591,,,,,,,,,,,,,,,,,,,,,,,,,,,,,,,,,,,,,,,,,,,,,,,,,,,,,,,,,,,,,,,,,,,,,,,,,,,,,,,,,,,,,,,,,
,,2,3.2158,2,3.2158,0,78,78,32,1,40,broom,cake,,88653,001,2022-04-24_21h39.38.645,SPAMnetsValid,2021.1.4,Win32,49.932591,,,,,,,,,,,,,,,,,,,,,,,,,,,,,,,,,,,,,,,,,,,,,,,,,,,,,,,,,,,,,,,,,,,,,,,,,,,,,,,,,,,,,,,,,
,,6,1.8881,6,1.8881,0,79,79,49,1,57,flower,kitchen,,88653,001,2022-04-24_21h39.38.645,SPAMnetsValid,2021.1.4,Win32,49.932591,,,,,,,,,,,,,,,,,,,,,,,,,,,,,,,,,,,,,,,,,,,,,,,,,,,,,,,,,,,,,,,,,,,,,,,,,,,,,,,,,,,,,,,,,
,,4,2.275,4,2.275,0,80,80,36,1,12,cookie,yogurt,,88653,001,2022-04-24_21h39.38.645,SPAMnetsValid,2021.1.4,Win32,49.932591,,,,,,,,,,,,,,,,,,,,,,,,,,,,,,,,,,,,,,,,,,,,,,,,,,,,,,,,,,,,,,,,,,,,,,,,,,,,,,,,,,,,,,,,,
,,2,1.6734,2,1.6734,0,81,81,27,1,72,broom,onion,,88653,001,2022-04-24_21h39.38.645,SPAMnetsValid,2021.1.4,Win32,49.932591,,,,,,,,,,,,,,,,,,,,,,,,,,,,,,,,,,,,,,,,,,,,,,,,,,,,,,,,,,,,,,,,,,,,,,,,,,,,,,,,,,,,,,,,,
,,2,2.5987,2,2.5987,0,82,82,86,1,51,onion,strawberry,,88653,001,2022-04-24_21h39.38.645,SPAMnetsValid,2021.1.4,Win32,49.932591,,,,,,,,,,,,,,,,,,,,,,,,,,,,,,,,,,,,,,,,,,,,,,,,,,,,,,,,,,,,,,,,,,,,,,,,,,,,,,,,,,,,,,,,,
,,3,1.9349,3,1.9349,0,83,83,68,1,24,cookie,tomato,,88653,001,2022-04-24_21h39.38.645,SPAMnetsValid,2021.1.4,Win32,49.932591,,,,,,,,,,,,,,,,,,,,,,,,,,,,,,,,,,,,,,,,,,,,,,,,,,,,,,,,,,,,,,,,,,,,,,,,,,,,,,,,,,,,,,,,,
,,4,1.8142,4,1.8142,0,84,84,80,1,61,strawberry,tomato,,88653,001,2022-04-24_21h39.38.645,SPAMnetsValid,2021.1.4,Win32,49.932591,,,,,,,,,,,,,,,,,,,,,,,,,,,,,,,,,,,,,,,,,,,,,,,,,,,,,,,,,,,,,,,,,,,,,,,,,,,,,,,,,,,,,,,,,
,,4,1.358,4,1.358,0,85,85,77,1,7,melon,tree,,88653,001,2022-04-24_21h39.38.645,SPAMnetsValid,2021.1.4,Win32,49.932591,,,,,,,,,,,,,,,,,,,,,,,,,,,,,,,,,,,,,,,,,,,,,,,,,,,,,,,,,,,,,,,,,,,,,,,,,,,,,,,,,,,,,,,,,
,,3,2.3555,3,2.3555,0,86,86,1,1,31,cactus,pretzel,,88653,001,2022-04-24_21h39.38.645,SPAMnetsValid,2021.1.4,Win32,49.932591,,,,,,,,,,,,,,,,,,,,,,,,,,,,,,,,,,,,,,,,,,,,,,,,,,,,,,,,,,,,,,,,,,,,,,,,,,,,,,,,,,,,,,,,,
,,3,2.776,3,2.776,0,87,87,14,1,64,chocolate,garden,,88653,001,2022-04-24_21h39.38.645,SPAMnetsValid,2021.1.4,Win32,49.932591,,,,,,,,,,,,,,,,,,,,,,,,,,,,,,,,,,,,,,,,,,,,,,,,,,,,,,,,,,,,,,,,,,,,,,,,,,,,,,,,,,,,,,,,,
,,7,2.9188,7,2.9188,0,88,88,83,1,6,garden,onion,,88653,001,2022-04-24_21h39.38.645,SPAMnetsValid,2021.1.4,Win32,49.932591,,,,,,,,,,,,,,,,,,,,,,,,,,,,,,,,,,,,,,,,,,,,,,,,,,,,,,,,,,,,,,,,,,,,,,,,,,,,,,,,,,,,,,,,,
,,6,2.8958,6,2.8958,0,89,89,50,1,81,pretzel,yogurt,,88653,001,2022-04-24_21h39.38.645,SPAMnetsValid,2021.1.4,Win32,49.932591,,,,,,,,,,,,,,,,,,,,,,,,,,,,,,,,,,,,,,,,,,,,,,,,,,,,,,,,,,,,,,,,,,,,,,,,,,,,,,,,,,,,,,,,,
,,6,2.0721,6,2.0721,0,90,90,44,1,25,carrot,onion,,88653,001,2022-04-24_21h39.38.645,SPAMnetsValid,2021.1.4,Win32,49.932591,,,,,,,,,,,,,,,,,,,,,,,,,,,,,,,,,,,,,,,,,,,,,,,,,,,,,,,,,,,,,,,,,,,,,,,,,,,,,,,,,,,,,,,,,
,,2,1.8142,2,1.8142,0,91,91,71,1,38,pretzel,refrigerator,,88653,001,2022-04-24_21h39.38.645,SPAMnetsValid,2021.1.4,Win32,49.932591,,,,,,,,,,,,,,,,,,,,,,,,,,,,,,,,,,,,,,,,,,,,,,,,,,,,,,,,,,,,,,,,,,,,,,,,,,,,,,,,,,,,,,,,,
,,3,3.0391,3,3.0391,0,92,92,4,1,83,broom,carrot,,88653,001,2022-04-24_21h39.38.645,SPAMnetsValid,2021.1.4,Win32,49.932591,,,,,,,,,,,,,,,,,,,,,,,,,,,,,,,,,,,,,,,,,,,,,,,,,,,,,,,,,,,,,,,,,,,,,,,,,,,,,,,,,,,,,,,,,
,,3,1.4784,3,1.4784,0,93,93,46,1,41,broom,cactus,,88653,001,2022-04-24_21h39.38.645,SPAMnetsValid,2021.1.4,Win32,49.932591,,,,,,,,,,,,,,,,,,,,,,,,,,,,,,,,,,,,,,,,,,,,,,,,,,,,,,,,,,,,,,,,,,,,,,,,,,,,,,,,,,,,,,,,,
,,3,1.7717,3,1.7717,0,94,94,85,1,90,cactus,cake,,88653,001,2022-04-24_21h39.38.645,SPAMnetsValid,2021.1.4,Win32,49.932591,,,,,,,,,,,,,,,,,,,,,,,,,,,,,,,,,,,,,,,,,,,,,,,,,,,,,,,,,,,,,,,,,,,,,,,,,,,,,,,,,,,,,,,,,
,,6,1.8495,6,1.8495,0,95,95,2,1,22,kitchen,strawberry,,88653,001,2022-04-24_21h39.38.645,SPAMnetsValid,2021.1.4,Win32,49.932591,,,,,,,,,,,,,,,,,,,,,,,,,,,,,,,,,,,,,,,,,,,,,,,,,,,,,,,,,,,,,,,,,,,,,,,,,,,,,,,,,,,,,,,,,
,,2,1.8398,2,1.8398,0,96,96,25,1,23,flower,microwave,,88653,001,2022-04-24_21h39.38.645,SPAMnetsValid,2021.1.4,Win32,49.932591,,,,,,,,,,,,,,,,,,,,,,,,,,,,,,,,,,,,,,,,,,,,,,,,,,,,,,,,,,,,,,,,,,,,,,,,,,,,,,,,,,,,,,,,,
,,,,,,,,,,,,,,,88653,001,2022-04-24_21h39.38.645,SPAMnetsValid,2021.1.4,Win32,49.932591,0,0,0,0,1,,,,,,,,,,,,,,,,,,,,,,,,,,,,,,,,,,,,,,,,,,,,,,,,,,,,,,,,,,,,,,,,,,,,,,,,,,,,,,,,,,,,
,,,,,,,,,,,,,,,88653,001,2022-04-24_21h39.38.645,SPAMnetsValid,2021.1.4,Win32,49.932591,,,,,,0,0,0,0,1,1,0,,,,,,,,,,,,,,,,,,,,,,,,,,,,,,,,,,,,,,,,,,,,,,,,,,,,,,,,,,,,,,,,,,,,,,,,,,,,,
,,,,6,6.3504,,,,,,141,melon,tomato,,88653,001,2022-04-24_21h39.38.645,SPAMnetsValid,2021.1.4,Win32,49.932591,,,,,,,,,,,,,6,6.3504,0,0,0,70,1,,,,,,,,,,,,,,,,,,,,,,,,,,,,,,,,,,,,,,,,,,,,,,,,,,,,,,,,,,,,,,,,,,,,,,
,,,,7,2.3718,,,,,,115,refrigerator,tomato,,88653,001,2022-04-24_21h39.38.645,SPAMnetsValid,2021.1.4,Win32,49.932591,,,,,,,,,,,,,7,2.3718,0,1,1,85,1,,,,,,,,,,,,,,,,,,,,,,,,,,,,,,,,,,,,,,,,,,,,,,,,,,,,,,,,,,,,,,,,,,,,,,
,,,,3,1.9553,,,,,,96,oven,strawberry,,88653,001,2022-04-24_21h39.38.645,SPAMnetsValid,2021.1.4,Win32,49.932591,,,,,,,,,,,,,3,1.9553,0,2,2,67,1,,,,,,,,,,,,,,,,,,,,,,,,,,,,,,,,,,,,,,,,,,,,,,,,,,,,,,,,,,,,,,,,,,,,,,
,,,,3,1.2399,,,,,,111,carrot,microwave,,88653,001,2022-04-24_21h39.38.645,SPAMnetsValid,2021.1.4,Win32,49.932591,,,,,,,,,,,,,3,1.2399,0,3,3,16,1,,,,,,,,,,,,,,,,,,,,,,,,,,,,,,,,,,,,,,,,,,,,,,,,,,,,,,,,,,,,,,,,,,,,,,
,,,,7,1.9158,,,,,,181,carrot,kitchen,,88653,001,2022-04-24_21h39.38.645,SPAMnetsValid,2021.1.4,Win32,49.932591,,,,,,,,,,,,,7,1.9158,0,4,4,72,1,,,,,,,,,,,,,,,,,,,,,,,,,,,,,,,,,,,,,,,,,,,,,,,,,,,,,,,,,,,,,,,,,,,,,,
,,,,4,1.4743,,,,,,134,carrot,flower,,88653,001,2022-04-24_21h39.38.645,SPAMnetsValid,2021.1.4,Win32,49.932591,,,,,,,,,,,,,4,1.4743,0,5,5,93,1,,,,,,,,,,,,,,,,,,,,,,,,,,,,,,,,,,,,,,,,,,,,,,,,,,,,,,,,,,,,,,,,,,,,,,
,,,,6,2.315,,,,,,106,cake,strawberry,,88653,001,2022-04-24_21h39.38.645,SPAMnetsValid,2021.1.4,Win32,49.932591,,,,,,,,,,,,,6,2.315,0,6,6,0,1,,,,,,,,,,,,,,,,,,,,,,,,,,,,,,,,,,,,,,,,,,,,,,,,,,,,,,,,,,,,,,,,,,,,,,
,,,,3,1.9354,,,,,,146,pretzel,tree,,88653,001,2022-04-24_21h39.38.645,SPAMnetsValid,2021.1.4,Win32,49.932591,,,,,,,,,,,,,3,1.9354,0,7,7,80,1,,,,,,,,,,,,,,,,,,,,,,,,,,,,,,,,,,,,,,,,,,,,,,,,,,,,,,,,,,,,,,,,,,,,,,
,,,,8,2.7379,,,,,,138,flower,rose,,88653,001,2022-04-24_21h39.38.645,SPAMnetsValid,2021.1.4,Win32,49.932591,,,,,,,,,,,,,8,2.7379,0,8,8,61,1,,,,,,,,,,,,,,,,,,,,,,,,,,,,,,,,,,,,,,,,,,,,,,,,,,,,,,,,,,,,,,,,,,,,,,
,,,,3,2.9836,,,,,,104,garden,microwave,,88653,001,2022-04-24_21h39.38.645,SPAMnetsValid,2021.1.4,Win32,49.932591,,,,,,,,,,,,,3,2.9836,0,9,9,81,1,,,,,,,,,,,,,,,,,,,,,,,,,,,,,,,,,,,,,,,,,,,,,,,,,,,,,,,,,,,,,,,,,,,,,,
,,,,5,2.5785,,,,,,176,cactus,tomato,,88653,001,2022-04-24_21h39.38.645,SPAMnetsValid,2021.1.4,Win32,49.932591,,,,,,,,,,,,,5,2.5785,0,10,10,9,1,,,,,,,,,,,,,,,,,,,,,,,,,,,,,,,,,,,,,,,,,,,,,,,,,,,,,,,,,,,,,,,,,,,,,,
,,,,4,1.9209,,,,,,157,refrigerator,rose,,88653,001,2022-04-24_21h39.38.645,SPAMnetsValid,2021.1.4,Win32,49.932591,,,,,,,,,,,,,4,1.9209,0,11,11,64,1,,,,,,,,,,,,,,,,,,,,,,,,,,,,,,,,,,,,,,,,,,,,,,,,,,,,,,,,,,,,,,,,,,,,,,
,,,,2,2.4943,,,,,,179,broom,oven,,88653,001,2022-04-24_21h39.38.645,SPAMnetsValid,2021.1.4,Win32,49.932591,,,,,,,,,,,,,2,2.4943,0,12,12,45,1,,,,,,,,,,,,,,,,,,,,,,,,,,,,,,,,,,,,,,,,,,,,,,,,,,,,,,,,,,,,,,,,,,,,,,
,,,,5,4.1355,,,,,,140,cookie,refrigerator,,88653,001,2022-04-24_21h39.38.645,SPAMnetsValid,2021.1.4,Win32,49.932591,,,,,,,,,,,,,5,4.1355,0,13,13,89,1,,,,,,,,,,,,,,,,,,,,,,,,,,,,,,,,,,,,,,,,,,,,,,,,,,,,,,,,,,,,,,,,,,,,,,
,,,,4,1.6543,,,,,,152,cactus,strawberry,,88653,001,2022-04-24_21h39.38.645,SPAMnetsValid,2021.1.4,Win32,49.932591,,,,,,,,,,,,,4,1.6543,0,14,14,49,1,,,,,,,,,,,,,,,,,,,,,,,,,,,,,,,,,,,,,,,,,,,,,,,,,,,,,,,,,,,,,,,,,,,,,,
,,,,4,1.4947,,,,,,144,cake,garden,,88653,001,2022-04-24_21h39.38.645,SPAMnetsValid,2021.1.4,Win32,49.932591,,,,,,,,,,,,,4,1.4947,0,15,15,58,1,,,,,,,,,,,,,,,,,,,,,,,,,,,,,,,,,,,,,,,,,,,,,,,,,,,,,,,,,,,,,,,,,,,,,,
,,,,4,1.9553,,,,,,162,microwave,tomato,,88653,001,2022-04-24_21h39.38.645,SPAMnetsValid,2021.1.4,Win32,49.932591,,,,,,,,,,,,,4,1.9553,0,16,16,12,1,,,,,,,,,,,,,,,,,,,,,,,,,,,,,,,,,,,,,,,,,,,,,,,,,,,,,,,,,,,,,,,,,,,,,,
,,,,3,2.4154,,,,,,128,melon,microwave,,88653,001,2022-04-24_21h39.38.645,SPAMnetsValid,2021.1.4,Win32,49.932591,,,,,,,,,,,,,3,2.4154,0,17,17,74,1,,,,,,,,,,,,,,,,,,,,,,,,,,,,,,,,,,,,,,,,,,,,,,,,,,,,,,,,,,,,,,,,,,,,,,
,,,,9,1.9785,,,,,,194,cactus,cactus,CHECK,88653,001,2022-04-24_21h39.38.645,SPAMnetsValid,2021.1.4,Win32,49.932591,,,,,,,,,,,,,9,1.9785,0,18,18,25,1,,,,,,,,,,,,,,,,,,,,,,,,,,,,,,,,,,,,,,,,,,,,,,,,,,,,,,,,,,,,,,,,,,,,,,
,,,,8,1.8345,,,,,,116,cake,chocolate,,88653,001,2022-04-24_21h39.38.645,SPAMnetsValid,2021.1.4,Win32,49.932591,,,,,,,,,,,,,8,1.8345,0,19,19,44,1,,,,,,,,,,,,,,,,,,,,,,,,,,,,,,,,,,,,,,,,,,,,,,,,,,,,,,,,,,,,,,,,,,,,,,
,,,,6,2.2765,,,,,,135,carrot,oven,,88653,001,2022-04-24_21h39.38.645,SPAMnetsValid,2021.1.4,Win32,49.932591,,,,,,,,,,,,,6,2.2765,0,20,20,73,1,,,,,,,,,,,,,,,,,,,,,,,,,,,,,,,,,,,,,,,,,,,,,,,,,,,,,,,,,,,,,,,,,,,,,,
,,,,1,1.8556,,,,,,132,broom,tree,,88653,001,2022-04-24_21h39.38.645,SPAMnetsValid,2021.1.4,Win32,49.932591,,,,,,,,,,,,,1,1.8556,0,21,21,78,1,,,,,,,,,,,,,,,,,,,,,,,,,,,,,,,,,,,,,,,,,,,,,,,,,,,,,,,,,,,,,,,,,,,,,,
,,,,2,2.2745,,,,,,108,carrot,chocolate,,88653,001,2022-04-24_21h39.38.645,SPAMnetsValid,2021.1.4,Win32,49.932591,,,,,,,,,,,,,2,2.2745,0,22,22,5,1,,,,,,,,,,,,,,,,,,,,,,,,,,,,,,,,,,,,,,,,,,,,,,,,,,,,,,,,,,,,,,,,,,,,,,
,,,,2,1.4291,,,,,,109,broom,strawberry,,88653,001,2022-04-24_21h39.38.645,SPAMnetsValid,2021.1.4,Win32,49.932591,,,,,,,,,,,,,2,1.4291,0,23,23,4,1,,,,,,,,,,,,,,,,,,,,,,,,,,,,,,,,,,,,,,,,,,,,,,,,,,,,,,,,,,,,,,,,,,,,,,
,,,,7,3.7516,,,,,,118,chocolate,oven,,88653,001,2022-04-24_21h39.38.645,SPAMnetsValid,2021.1.4,Win32,49.932591,,,,,,,,,,,,,7,3.7516,0,24,24,10,1,,,,,,,,,,,,,,,,,,,,,,,,,,,,,,,,,,,,,,,,,,,,,,,,,,,,,,,,,,,,,,,,,,,,,,
,,,,7,2.5557,,,,,,124,oven,refrigerator,,88653,001,2022-04-24_21h39.38.645,SPAMnetsValid,2021.1.4,Win32,49.932591,,,,,,,,,,,,,7,2.5557,0,25,25,69,1,,,,,,,,,,,,,,,,,,,,,,,,,,,,,,,,,,,,,,,,,,,,,,,,,,,,,,,,,,,,,,,,,,,,,,
,,,,4,2.1521,,,,,,165,onion,rose,,88653,001,2022-04-24_21h39.38.645,SPAMnetsValid,2021.1.4,Win32,49.932591,,,,,,,,,,,,,4,2.1521,0,26,26,40,1,,,,,,,,,,,,,,,,,,,,,,,,,,,,,,,,,,,,,,,,,,,,,,,,,,,,,,,,,,,,,,,,,,,,,,
,,,,4,1.6299,,,,,,159,cookie,flower,,88653,001,2022-04-24_21h39.38.645,SPAMnetsValid,2021.1.4,Win32,49.932591,,,,,,,,,,,,,4,1.6299,0,27,27,21,1,,,,,,,,,,,,,,,,,,,,,,,,,,,,,,,,,,,,,,,,,,,,,,,,,,,,,,,,,,,,,,,,,,,,,,
,,,,8,3.7996,,,,,,142,garden,tree,,88653,001,2022-04-24_21h39.38.645,SPAMnetsValid,2021.1.4,Win32,49.932591,,,,,,,,,,,,,8,3.7996,0,28,28,22,1,,,,,,,,,,,,,,,,,,,,,,,,,,,,,,,,,,,,,,,,,,,,,,,,,,,,,,,,,,,,,,,,,,,,,,
,,,,7,2.2716,,,,,,97,chocolate,kitchen,,88653,001,2022-04-24_21h39.38.645,SPAMnetsValid,2021.1.4,Win32,49.932591,,,,,,,,,,,,,7,2.2716,0,29,29,8,1,,,,,,,,,,,,,,,,,,,,,,,,,,,,,,,,,,,,,,,,,,,,,,,,,,,,,,,,,,,,,,,,,,,,,,
,,,,4,2.2125,,,,,,145,cactus,yogurt,,88653,001,2022-04-24_21h39.38.645,SPAMnetsValid,2021.1.4,Win32,49.932591,,,,,,,,,,,,,4,2.2125,0,30,30,15,1,,,,,,,,,,,,,,,,,,,,,,,,,,,,,,,,,,,,,,,,,,,,,,,,,,,,,,,,,,,,,,,,,,,,,,
,,,,7,2.2567,,,,,,172,kitchen,melon,,88653,001,2022-04-24_21h39.38.645,SPAMnetsValid,2021.1.4,Win32,49.932591,,,,,,,,,,,,,7,2.2567,0,31,31,77,1,,,,,,,,,,,,,,,,,,,,,,,,,,,,,,,,,,,,,,,,,,,,,,,,,,,,,,,,,,,,,,,,,,,,,,
,,,,7,1.1908,,,,,,161,kitchen,pretzel,,88653,001,2022-04-24_21h39.38.645,SPAMnetsValid,2021.1.4,Win32,49.932591,,,,,,,,,,,,,7,1.1908,0,32,32,36,1,,,,,,,,,,,,,,,,,,,,,,,,,,,,,,,,,,,,,,,,,,,,,,,,,,,,,,,,,,,,,,,,,,,,,,
,,,,3,2.5073,,,,,,171,cake,tomato,,88653,001,2022-04-24_21h39.38.645,SPAMnetsValid,2021.1.4,Win32,49.932591,,,,,,,,,,,,,3,2.5073,0,33,33,88,1,,,,,,,,,,,,,,,,,,,,,,,,,,,,,,,,,,,,,,,,,,,,,,,,,,,,,,,,,,,,,,,,,,,,,,
,,,,4,1.7907,,,,,,183,cake,rose,,88653,001,2022-04-24_21h39.38.645,SPAMnetsValid,2021.1.4,Win32,49.932591,,,,,,,,,,,,,4,1.7907,0,34,34,19,1,,,,,,,,,,,,,,,,,,,,,,,,,,,,,,,,,,,,,,,,,,,,,,,,,,,,,,,,,,,,,,,,,,,,,,
,,,,3,1.5965,,,,,,169,onion,yogurt,,88653,001,2022-04-24_21h39.38.645,SPAMnetsValid,2021.1.4,Win32,49.932591,,,,,,,,,,,,,3,1.5965,0,35,35,24,1,,,,,,,,,,,,,,,,,,,,,,,,,,,,,,,,,,,,,,,,,,,,,,,,,,,,,,,,,,,,,,,,,,,,,,
,,,,3,1.7836,,,,,,105,cactus,oven,,88653,001,2022-04-24_21h39.38.645,SPAMnetsValid,2021.1.4,Win32,49.932591,,,,,,,,,,,,,3,1.7836,0,36,36,13,1,,,,,,,,,,,,,,,,,,,,,,,,,,,,,,,,,,,,,,,,,,,,,,,,,,,,,,,,,,,,,,,,,,,,,,
,,,,3,1.5316,,,,,,123,cookie,tree,,88653,001,2022-04-24_21h39.38.645,SPAMnetsValid,2021.1.4,Win32,49.932591,,,,,,,,,,,,,3,1.5316,0,37,37,46,1,,,,,,,,,,,,,,,,,,,,,,,,,,,,,,,,,,,,,,,,,,,,,,,,,,,,,,,,,,,,,,,,,,,,,,
,,,,2,1.6715,,,,,,137,microwave,tree,,88653,001,2022-04-24_21h39.38.645,SPAMnetsValid,2021.1.4,Win32,49.932591,,,,,,,,,,,,,2,1.6715,0,38,38,63,1,,,,,,,,,,,,,,,,,,,,,,,,,,,,,,,,,,,,,,,,,,,,,,,,,,,,,,,,,,,,,,,,,,,,,,
,,,,8,3.8423,,,,,,177,chocolate,strawberry,,88653,001,2022-04-24_21h39.38.645,SPAMnetsValid,2021.1.4,Win32,49.932591,,,,,,,,,,,,,8,3.8423,0,39,39,53,1,,,,,,,,,,,,,,,,,,,,,,,,,,,,,,,,,,,,,,,,,,,,,,,,,,,,,,,,,,,,,,,,,,,,,,
,,,,3,2.4518,,,,,,130,microwave,yogurt,,88653,001,2022-04-24_21h39.38.645,SPAMnetsValid,2021.1.4,Win32,49.932591,,,,,,,,,,,,,3,2.4518,0,40,40,84,1,,,,,,,,,,,,,,,,,,,,,,,,,,,,,,,,,,,,,,,,,,,,,,,,,,,,,,,,,,,,,,,,,,,,,,
,,,,5,4.3105,,,,,,101,cactus,kitchen,,88653,001,2022-04-24_21h39.38.645,SPAMnetsValid,2021.1.4,Win32,49.932591,,,,,,,,,,,,,5,4.3105,0,41,41,54,1,,,,,,,,,,,,,,,,,,,,,,,,,,,,,,,,,,,,,,,,,,,,,,,,,,,,,,,,,,,,,,,,,,,,,,
,,,,4,2.0113,,,,,,155,carrot,cookie,,88653,001,2022-04-24_21h39.38.645,SPAMnetsValid,2021.1.4,Win32,49.932591,,,,,,,,,,,,,4,2.0113,0,42,42,38,1,,,,,,,,,,,,,,,,,,,,,,,,,,,,,,,,,,,,,,,,,,,,,,,,,,,,,,,,,,,,,,,,,,,,,,
,,,,8,2.2033,,,,,,112,cake,carrot,,88653,001,2022-04-24_21h39.38.645,SPAMnetsValid,2021.1.4,Win32,49.932591,,,,,,,,,,,,,8,2.2033,0,43,43,39,1,,,,,,,,,,,,,,,,,,,,,,,,,,,,,,,,,,,,,,,,,,,,,,,,,,,,,,,,,,,,,,,,,,,,,,
,,,,7,1.7134,,,,,,117,melon,strawberry,,88653,001,2022-04-24_21h39.38.645,SPAMnetsValid,2021.1.4,Win32,49.932591,,,,,,,,,,,,,7,1.7134,0,44,44,11,1,,,,,,,,,,,,,,,,,,,,,,,,,,,,,,,,,,,,,,,,,,,,,,,,,,,,,,,,,,,,,,,,,,,,,,
,,,,7,1.7921,,,,,,99,garden,melon,,88653,001,2022-04-24_21h39.38.645,SPAMnetsValid,2021.1.4,Win32,49.932591,,,,,,,,,,,,,7,1.7921,0,45,45,17,1,,,,,,,,,,,,,,,,,,,,,,,,,,,,,,,,,,,,,,,,,,,,,,,,,,,,,,,,,,,,,,,,,,,,,,
,,,,6,1.7538,,,,,,139,carrot,strawberry,,88653,001,2022-04-24_21h39.38.645,SPAMnetsValid,2021.1.4,Win32,49.932591,,,,,,,,,,,,,6,1.7538,0,46,46,37,1,,,,,,,,,,,,,,,,,,,,,,,,,,,,,,,,,,,,,,,,,,,,,,,,,,,,,,,,,,,,,,,,,,,,,,
,,,,7,2.4791,,,,,,163,melon,refrigerator,,88653,001,2022-04-24_21h39.38.645,SPAMnetsValid,2021.1.4,Win32,49.932591,,,,,,,,,,,,,7,2.4791,0,47,47,29,1,,,,,,,,,,,,,,,,,,,,,,,,,,,,,,,,,,,,,,,,,,,,,,,,,,,,,,,,,,,,,,,,,,,,,,
,,,,5,3.1358,,,,,,189,onion,tree,,88653,001,2022-04-24_21h39.38.645,SPAMnetsValid,2021.1.4,Win32,49.932591,,,,,,,,,,,,,5,3.1358,0,48,48,62,1,,,,,,,,,,,,,,,,,,,,,,,,,,,,,,,,,,,,,,,,,,,,,,,,,,,,,,,,,,,,,,,,,,,,,,
,,,,4,2.0139,,,,,,164,cookie,garden,,88653,001,2022-04-24_21h39.38.645,SPAMnetsValid,2021.1.4,Win32,49.932591,,,,,,,,,,,,,4,2.0139,0,49,49,59,1,,,,,,,,,,,,,,,,,,,,,,,,,,,,,,,,,,,,,,,,,,,,,,,,,,,,,,,,,,,,,,,,,,,,,,
,,,,6,3.8952,,,,,,174,cake,pretzel,,88653,001,2022-04-24_21h39.38.645,SPAMnetsValid,2021.1.4,Win32,49.932591,,,,,,,,,,,,,6,3.8952,0,50,50,2,1,,,,,,,,,,,,,,,,,,,,,,,,,,,,,,,,,,,,,,,,,,,,,,,,,,,,,,,,,,,,,,,,,,,,,,
,,,,5,1.8935,,,,,,131,cactus,garden,,88653,001,2022-04-24_21h39.38.645,SPAMnetsValid,2021.1.4,Win32,49.932591,,,,,,,,,,,,,5,1.8935,0,51,51,33,1,,,,,,,,,,,,,,,,,,,,,,,,,,,,,,,,,,,,,,,,,,,,,,,,,,,,,,,,,,,,,,,,,,,,,,
,,,,9,1.9542,,,,,,193,melon,melon,CHECK,88653,001,2022-04-24_21h39.38.645,SPAMnetsValid,2021.1.4,Win32,49.932591,,,,,,,,,,,,,9,1.9542,0,52,52,86,1,,,,,,,,,,,,,,,,,,,,,,,,,,,,,,,,,,,,,,,,,,,,,,,,,,,,,,,,,,,,,,,,,,,,,,
,,,,8,1.6147,,,,,,154,strawberry,yogurt,,88653,001,2022-04-24_21h39.38.645,SPAMnetsValid,2021.1.4,Win32,49.932591,,,,,,,,,,,,,8,1.6147,0,53,53,28,1,,,,,,,,,,,,,,,,,,,,,,,,,,,,,,,,,,,,,,,,,,,,,,,,,,,,,,,,,,,,,,,,,,,,,,
,,,,4,2.2357,,,,,,175,melon,onion,,88653,001,2022-04-24_21h39.38.645,SPAMnetsValid,2021.1.4,Win32,49.932591,,,,,,,,,,,,,4,2.2357,0,54,54,41,1,,,,,,,,,,,,,,,,,,,,,,,,,,,,,,,,,,,,,,,,,,,,,,,,,,,,,,,,,,,,,,,,,,,,,,
,,,,7,1.8745,,,,,,158,cookie,oven,,88653,001,2022-04-24_21h39.38.645,SPAMnetsValid,2021.1.4,Win32,49.932591,,,,,,,,,,,,,7,1.8745,0,55,55,27,1,,,,,,,,,,,,,,,,,,,,,,,,,,,,,,,,,,,,,,,,,,,,,,,,,,,,,,,,,,,,,,,,,,,,,,
,,,,4,1.8751,,,,,,151,microwave,onion,,88653,001,2022-04-24_21h39.38.645,SPAMnetsValid,2021.1.4,Win32,49.932591,,,,,,,,,,,,,4,1.8751,0,56,56,6,1,,,,,,,,,,,,,,,,,,,,,,,,,,,,,,,,,,,,,,,,,,,,,,,,,,,,,,,,,,,,,,,,,,,,,,
,,,,5,2.1142,,,,,,156,melon,rose,,88653,001,2022-04-24_21h39.38.645,SPAMnetsValid,2021.1.4,Win32,49.932591,,,,,,,,,,,,,5,2.1142,0,57,57,31,1,,,,,,,,,,,,,,,,,,,,,,,,,,,,,,,,,,,,,,,,,,,,,,,,,,,,,,,,,,,,,,,,,,,,,,
,,,,7,2.1345,,,,,,100,garden,tomato,,88653,001,2022-04-24_21h39.38.645,SPAMnetsValid,2021.1.4,Win32,49.932591,,,,,,,,,,,,,7,2.1345,0,58,58,83,1,,,,,,,,,,,,,,,,,,,,,,,,,,,,,,,,,,,,,,,,,,,,,,,,,,,,,,,,,,,,,,,,,,,,,,
,,,,5,1.9746,,,,,,166,cake,yogurt,,88653,001,2022-04-24_21h39.38.645,SPAMnetsValid,2021.1.4,Win32,49.932591,,,,,,,,,,,,,5,1.9746,0,59,59,91,1,,,,,,,,,,,,,,,,,,,,,,,,,,,,,,,,,,,,,,,,,,,,,,,,,,,,,,,,,,,,,,,,,,,,,,
,,,,6,2.1423,,,,,,107,rose,tomato,,88653,001,2022-04-24_21h39.38.645,SPAMnetsValid,2021.1.4,Win32,49.932591,,,,,,,,,,,,,6,2.1423,0,60,60,26,1,,,,,,,,,,,,,,,,,,,,,,,,,,,,,,,,,,,,,,,,,,,,,,,,,,,,,,,,,,,,,,,,,,,,,,
,,,,4,1.8921,,,,,,190,microwave,strawberry,,88653,001,2022-04-24_21h39.38.645,SPAMnetsValid,2021.1.4,Win32,49.932591,,,,,,,,,,,,,4,1.8921,0,61,61,90,1,,,,,,,,,,,,,,,,,,,,,,,,,,,,,,,,,,,,,,,,,,,,,,,,,,,,,,,,,,,,,,,,,,,,,,
,,,,3,2.4831,,,,,,103,pretzel,tomato,,88653,001,2022-04-24_21h39.38.645,SPAMnetsValid,2021.1.4,Win32,49.932591,,,,,,,,,,,,,3,2.4831,0,62,62,79,1,,,,,,,,,,,,,,,,,,,,,,,,,,,,,,,,,,,,,,,,,,,,,,,,,,,,,,,,,,,,,,,,,,,,,,
,,,,8,1.7945,,,,,,122,flower,garden,,88653,001,2022-04-24_21h39.38.645,SPAMnetsValid,2021.1.4,Win32,49.932591,,,,,,,,,,,,,8,1.7945,0,63,63,60,1,,,,,,,,,,,,,,,,,,,,,,,,,,,,,,,,,,,,,,,,,,,,,,,,,,,,,,,,,,,,,,,,,,,,,,
,,,,4,1.8733,,,,,,129,cactus,refrigerator,,88653,001,2022-04-24_21h39.38.645,SPAMnetsValid,2021.1.4,Win32,49.932591,,,,,,,,,,,,,4,1.8733,0,64,64,3,1,,,,,,,,,,,,,,,,,,,,,,,,,,,,,,,,,,,,,,,,,,,,,,,,,,,,,,,,,,,,,,,,,,,,,,
,,,,7,2.0398,,,,,,113,refrigerator,strawberry,,88653,001,2022-04-24_21h39.38.645,SPAMnetsValid,2021.1.4,Win32,49.932591,,,,,,,,,,,,,7,2.0398,0,65,65,56,1,,,,,,,,,,,,,,,,,,,,,,,,,,,,,,,,,,,,,,,,,,,,,,,,,,,,,,,,,,,,,,,,,,,,,,
,,,,7,2.1703,,,,,,120,microwave,oven,,88653,001,2022-04-24_21h39.38.645,SPAMnetsValid,2021.1.4,Win32,49.932591,,,,,,,,,,,,,7,2.1703,0,66,66,14,1,,,,,,,,,,,,,,,,,,,,,,,,,,,,,,,,,,,,,,,,,,,,,,,,,,,,,,,,,,,,,,,,,,,,,,
,,,,3,5.8146,,,,,,143,pretzel,rose,,88653,001,2022-04-24_21h39.38.645,SPAMnetsValid,2021.1.4,Win32,49.932591,,,,,,,,,,,,,3,5.8146,0,67,67,55,1,,,,,,,,,,,,,,,,,,,,,,,,,,,,,,,,,,,,,,,,,,,,,,,,,,,,,,,,,,,,,,,,,,,,,,
,,,,6,1.5564,,,,,,186,kitchen,yogurt,,88653,001,2022-04-24_21h39.38.645,SPAMnetsValid,2021.1.4,Win32,49.932591,,,,,,,,,,,,,6,1.5564,0,68,68,48,1,,,,,,,,,,,,,,,,,,,,,,,,,,,,,,,,,,,,,,,,,,,,,,,,,,,,,,,,,,,,,,,,,,,,,,
,,,,4,4.7959,,,,,,127,cactus,chocolate,,88653,001,2022-04-24_21h39.38.645,SPAMnetsValid,2021.1.4,Win32,49.932591,,,,,,,,,,,,,4,4.7959,0,69,69,57,1,,,,,,,,,,,,,,,,,,,,,,,,,,,,,,,,,,,,,,,,,,,,,,,,,,,,,,,,,,,,,,,,,,,,,,
,,,,8,1.7341,,,,,,110,chocolate,cookie,,88653,001,2022-04-24_21h39.38.645,SPAMnetsValid,2021.1.4,Win32,49.932591,,,,,,,,,,,,,8,1.7341,0,70,70,52,1,,,,,,,,,,,,,,,,,,,,,,,,,,,,,,,,,,,,,,,,,,,,,,,,,,,,,,,,,,,,,,,,,,,,,,
,,,,4,2.1542,,,,,,153,carrot,pretzel,,88653,001,2022-04-24_21h39.38.645,SPAMnetsValid,2021.1.4,Win32,49.932591,,,,,,,,,,,,,4,2.1542,0,71,71,34,1,,,,,,,,,,,,,,,,,,,,,,,,,,,,,,,,,,,,,,,,,,,,,,,,,,,,,,,,,,,,,,,,,,,,,,
,,,,4,2.1402,,,,,,178,cactus,carrot,,88653,001,2022-04-24_21h39.38.645,SPAMnetsValid,2021.1.4,Win32,49.932591,,,,,,,,,,,,,4,2.1402,0,72,72,75,1,,,,,,,,,,,,,,,,,,,,,,,,,,,,,,,,,,,,,,,,,,,,,,,,,,,,,,,,,,,,,,,,,,,,,,
,,,,6,2.4561,,,,,,170,cookie,microwave,,88653,001,2022-04-24_21h39.38.645,SPAMnetsValid,2021.1.4,Win32,49.932591,,,,,,,,,,,,,6,2.4561,0,73,73,92,1,,,,,,,,,,,,,,,,,,,,,,,,,,,,,,,,,,,,,,,,,,,,,,,,,,,,,,,,,,,,,,,,,,,,,,
,,,,7,3.9396,,,,,,102,chocolate,refrigerator,,88653,001,2022-04-24_21h39.38.645,SPAMnetsValid,2021.1.4,Win32,49.932591,,,,,,,,,,,,,7,3.9396,0,74,74,76,1,,,,,,,,,,,,,,,,,,,,,,,,,,,,,,,,,,,,,,,,,,,,,,,,,,,,,,,,,,,,,,,,,,,,,,
,,,,7,2.1322,,,,,,167,carrot,garden,,88653,001,2022-04-24_21h39.38.645,SPAMnetsValid,2021.1.4,Win32,49.932591,,,,,,,,,,,,,7,2.1322,0,75,75,47,1,,,,,,,,,,,,,,,,,,,,,,,,,,,,,,,,,,,,,,,,,,,,,,,,,,,,,,,,,,,,,,,,,,,,,,
,,,,4,2.3147,,,,,,185,cactus,rose,,88653,001,2022-04-24_21h39.38.645,SPAMnetsValid,2021.1.4,Win32,49.932591,,,,,,,,,,,,,4,2.3147,0,76,76,43,1,,,,,,,,,,,,,,,,,,,,,,,,,,,,,,,,,,,,,,,,,,,,,,,,,,,,,,,,,,,,,,,,,,,,,,
,,,,4,1.3557,,,,,,126,kitchen,tree,,88653,001,2022-04-24_21h39.38.645,SPAMnetsValid,2021.1.4,Win32,49.932591,,,,,,,,,,,,,4,1.3557,0,77,77,50,1,,,,,,,,,,,,,,,,,,,,,,,,,,,,,,,,,,,,,,,,,,,,,,,,,,,,,,,,,,,,,,,,,,,,,,
,,,,7,3.0165,,,,,,168,cactus,flower,,88653,001,2022-04-24_21h39.38.645,SPAMnetsValid,2021.1.4,Win32,49.932591,,,,,,,,,,,,,7,3.0165,0,78,78,51,1,,,,,,,,,,,,,,,,,,,,,,,,,,,,,,,,,,,,,,,,,,,,,,,,,,,,,,,,,,,,,,,,,,,,,,
,,,,5,2.3143,,,,,,119,strawberry,tree,,88653,001,2022-04-24_21h39.38.645,SPAMnetsValid,2021.1.4,Win32,49.932591,,,,,,,,,,,,,5,2.3143,0,79,79,18,1,,,,,,,,,,,,,,,,,,,,,,,,,,,,,,,,,,,,,,,,,,,,,,,,,,,,,,,,,,,,,,,,,,,,,,
,,,,7,1.7421,,,,,,147,cake,refrigerator,,88653,001,2022-04-24_21h39.38.645,SPAMnetsValid,2021.1.4,Win32,49.932591,,,,,,,,,,,,,7,1.7421,0,80,80,35,1,,,,,,,,,,,,,,,,,,,,,,,,,,,,,,,,,,,,,,,,,,,,,,,,,,,,,,,,,,,,,,,,,,,,,,
,,,,5,2.3546,,,,,,98,pretzel,strawberry,,88653,001,2022-04-24_21h39.38.645,SPAMnetsValid,2021.1.4,Win32,49.932591,,,,,,,,,,,,,5,2.3546,0,81,81,82,1,,,,,,,,,,,,,,,,,,,,,,,,,,,,,,,,,,,,,,,,,,,,,,,,,,,,,,,,,,,,,,,,,,,,,,
,,,,6,1.475,,,,,,114,cookie,strawberry,,88653,001,2022-04-24_21h39.38.645,SPAMnetsValid,2021.1.4,Win32,49.932591,,,,,,,,,,,,,6,1.475,0,82,82,87,1,,,,,,,,,,,,,,,,,,,,,,,,,,,,,,,,,,,,,,,,,,,,,,,,,,,,,,,,,,,,,,,,,,,,,,
,,,,4,6.5793,,,,,,180,tree,yogurt,,88653,001,2022-04-24_21h39.38.645,SPAMnetsValid,2021.1.4,Win32,49.932591,,,,,,,,,,,,,4,6.5793,0,83,83,68,1,,,,,,,,,,,,,,,,,,,,,,,,,,,,,,,,,,,,,,,,,,,,,,,,,,,,,,,,,,,,,,,,,,,,,,
,,,,6,3.4977,,,,,,136,chocolate,microwave,,88653,001,2022-04-24_21h39.38.645,SPAMnetsValid,2021.1.4,Win32,49.932591,,,,,,,,,,,,,6,3.4977,0,84,84,96,1,,,,,,,,,,,,,,,,,,,,,,,,,,,,,,,,,,,,,,,,,,,,,,,,,,,,,,,,,,,,,,,,,,,,,,
,,,,3,1.9961,,,,,,121,broom,microwave,,88653,001,2022-04-24_21h39.38.645,SPAMnetsValid,2021.1.4,Win32,49.932591,,,,,,,,,,,,,3,1.9961,0,85,85,95,1,,,,,,,,,,,,,,,,,,,,,,,,,,,,,,,,,,,,,,,,,,,,,,,,,,,,,,,,,,,,,,,,,,,,,,
,,,,7,2.2984,,,,,,184,oven,pretzel,,88653,001,2022-04-24_21h39.38.645,SPAMnetsValid,2021.1.4,Win32,49.932591,,,,,,,,,,,,,7,2.2984,0,86,86,42,1,,,,,,,,,,,,,,,,,,,,,,,,,,,,,,,,,,,,,,,,,,,,,,,,,,,,,,,,,,,,,,,,,,,,,,
,,,,4,2.2976,,,,,,133,cake,flower,,88653,001,2022-04-24_21h39.38.645,SPAMnetsValid,2021.1.4,Win32,49.932591,,,,,,,,,,,,,4,2.2976,0,87,87,94,1,,,,,,,,,,,,,,,,,,,,,,,,,,,,,,,,,,,,,,,,,,,,,,,,,,,,,,,,,,,,,,,,,,,,,,
,,,,4,1.5755,,,,,,148,flower,melon,,88653,001,2022-04-24_21h39.38.645,SPAMnetsValid,2021.1.4,Win32,49.932591,,,,,,,,,,,,,4,1.5755,0,88,88,23,1,,,,,,,,,,,,,,,,,,,,,,,,,,,,,,,,,,,,,,,,,,,,,,,,,,,,,,,,,,,,,,,,,,,,,,
,,,,7,6.1794,,,,,,173,kitchen,tomato,,88653,001,2022-04-24_21h39.38.645,SPAMnetsValid,2021.1.4,Win32,49.932591,,,,,,,,,,,,,7,6.1794,0,89,89,1,1,,,,,,,,,,,,,,,,,,,,,,,,,,,,,,,,,,,,,,,,,,,,,,,,,,,,,,,,,,,,,,,,,,,,,,
,,,,7,1.2347,,,,,,160,cookie,kitchen,,88653,001,2022-04-24_21h39.38.645,SPAMnetsValid,2021.1.4,Win32,49.932591,,,,,,,,,,,,,7,1.2347,0,90,90,65,1,,,,,,,,,,,,,,,,,,,,,,,,,,,,,,,,,,,,,,,,,,,,,,,,,,,,,,,,,,,,,,,,,,,,,,
,,,,6,2.1943,,,,,,188,flower,tree,,88653,001,2022-04-24_21h39.38.645,SPAMnetsValid,2021.1.4,Win32,49.932591,,,,,,,,,,,,,6,2.1943,0,91,91,7,1,,,,,,,,,,,,,,,,,,,,,,,,,,,,,,,,,,,,,,,,,,,,,,,,,,,,,,,,,,,,,,,,,,,,,,
,,,,4,1.8757,,,,,,182,flower,refrigerator,,88653,001,2022-04-24_21h39.38.645,SPAMnetsValid,2021.1.4,Win32,49.932591,,,,,,,,,,,,,4,1.8757,0,92,92,32,1,,,,,,,,,,,,,,,,,,,,,,,,,,,,,,,,,,,,,,,,,,,,,,,,,,,,,,,,,,,,,,,,,,,,,,
,,,,7,1.8738,,,,,,150,microwave,refrigerator,,88653,001,2022-04-24_21h39.38.645,SPAMnetsValid,2021.1.4,Win32,49.932591,,,,,,,,,,,,,7,1.8738,0,93,93,66,1,,,,,,,,,,,,,,,,,,,,,,,,,,,,,,,,,,,,,,,,,,,,,,,,,,,,,,,,,,,,,,,,,,,,,,
,,,,4,1.6385,,,,,,187,cactus,microwave,,88653,001,2022-04-24_21h39.38.645,SPAMnetsValid,2021.1.4,Win32,49.932591,,,,,,,,,,,,,4,1.6385,0,94,94,71,1,,,,,,,,,,,,,,,,,,,,,,,,,,,,,,,,,,,,,,,,,,,,,,,,,,,,,,,,,,,,,,,,,,,,,,
,,,,3,1.4609,,,,,,149,broom,tomato,,88653,001,2022-04-24_21h39.38.645,SPAMnetsValid,2021.1.4,Win32,49.932591,,,,,,,,,,,,,3,1.4609,0,95,95,20,1,,,,,,,,,,,,,,,,,,,,,,,,,,,,,,,,,,,,,,,,,,,,,,,,,,,,,,,,,,,,,,,,,,,,,,
,,,,3,1.754,,,,,,125,carrot,tree,,88653,001,2022-04-24_21h39.38.645,SPAMnetsValid,2021.1.4,Win32,49.932591,,,,,,,,,,,,,3,1.754,0,96,96,30,1,,,,,,,,,,,,,,,,,,,,,,,,,,,,,,,,,,,,,,,,,,,,,,,,,,,,,,,,,,,,,,,,,,,,,,
,,,,,,,,,,,,,,,88653,001,2022-04-24_21h39.38.645,SPAMnetsValid,2021.1.4,Win32,49.932591,,,,,,,,,,,,,,,,,,,,0,0,0,0,1,,,,,,,,,,,,,,,,,,,,,,,,,,,,,,,,,,,,,,,,,,,,,,,,,,,,,,,,,,,,,,,,,
,,,,,,,,,,,,,,,88653,001,2022-04-24_21h39.38.645,SPAMnetsValid,2021.1.4,Win32,49.932591,,,,,,0,1,1,1,1,0,1,,,,,,,,,,,,,,,,,,,,,,,,,,,,,,,,,,,,,,,,,,,,,,,,,,,,,,,,,,,,,,,,,,,,,,,,,,,,,
,,,,,,,,,,,,,,,88653,001,2022-04-24_21h39.38.645,SPAMnetsValid,2021.1.4,Win32,49.932591,,,,,,,,,,,,,,,,,,,,,,,,,2,8.3509,0,0,0,0,1,rancor,forbearance,ridicule,malice,bravery,3,,,,,,,,,,,,,,,,,,,,,,,,,,,,,,,,,,,,,,,,,,,,,,,,,,,,
,,,,,,,,,,,,,,,88653,001,2022-04-24_21h39.38.645,SPAMnetsValid,2021.1.4,Win32,49.932591,,,,,,,,,,,,,,,,,,,,,,,,,4,2.8953,0,1,1,1,1,raucous,empty,quiet,smooth,harsh,4,,,,,,,,,,,,,,,,,,,,,,,,,,,,,,,,,,,,,,,,,,,,,,,,,,,,
,,,,,,,,,,,,,,,88653,001,2022-04-24_21h39.38.645,SPAMnetsValid,2021.1.4,Win32,49.932591,,,,,,,,,,,,,,,,,,,,,,,,,3,2.5966,0,2,2,2,1,gargoyle,oil,medicine,carved waterspout,ugly building,3,,,,,,,,,,,,,,,,,,,,,,,,,,,,,,,,,,,,,,,,,,,,,,,,,,,,
,,,,,,,,,,,,,,,88653,001,2022-04-24_21h39.38.645,SPAMnetsValid,2021.1.4,Win32,49.932591,,,,,,,,,,,,,,,,,,,,,,,,,3,7.5231,0,3,3,3,1,recrudesce,purify,renew activity,lack refinement,crush,2,,,,,,,,,,,,,,,,,,,,,,,,,,,,,,,,,,,,,,,,,,,,,,,,,,,,
,,,,,,,,,,,,,,,88653,001,2022-04-24_21h39.38.645,SPAMnetsValid,2021.1.4,Win32,49.932591,,,,,,,,,,,,,,,,,,,,,,,,,1,4.7771,0,4,4,4,1,specious,"plausible, but not genuine",noteworthy,class or variety,roomy,1,,,,,,,,,,,,,,,,,,,,,,,,,,,,,,,,,,,,,,,,,,,,,,,,,,,,
,,,,,,,,,,,,,,,88653,001,2022-04-24_21h39.38.645,SPAMnetsValid,2021.1.4,Win32,49.932591,,,,,,,,,,,,,,,,,,,,,,,,,3,4.4774,0,5,5,5,1,bauble,bubble,showy plaything,idle talk,confusion,2,,,,,,,,,,,,,,,,,,,,,,,,,,,,,,,,,,,,,,,,,,,,,,,,,,,,
,,,,,,,,,,,,,,,88653,001,2022-04-24_21h39.38.645,SPAMnetsValid,2021.1.4,Win32,49.932591,,,,,,,,,,,,,,,,,,,,,,,,,2,4.4168,0,6,6,6,1,prolific,scarce,producing abundantly,reckless,speaking profanely,2,,,,,,,,,,,,,,,,,,,,,,,,,,,,,,,,,,,,,,,,,,,,,,,,,,,,
,,,,,,,,,,,,,,,88653,001,2022-04-24_21h39.38.645,SPAMnetsValid,2021.1.4,Win32,49.932591,,,,,,,,,,,,,,,,,,,,,,,,,2,1.6542,0,7,7,7,1,opulent,party,wealthy,happy frame of mind,semiprecious stone,2,,,,,,,,,,,,,,,,,,,,,,,,,,,,,,,,,,,,,,,,,,,,,,,,,,,,
,,,,,,,,,,,,,,,88653,001,2022-04-24_21h39.38.645,SPAMnetsValid,2021.1.4,Win32,49.932591,,,,,,,,,,,,,,,,,,,,,,,,,3,16.5267,0,8,8,8,1,coercion,conspiracy,strategy,restraint,attraction,3,,,,,,,,,,,,,,,,,,,,,,,,,,,,,,,,,,,,,,,,,,,,,,,,,,,,
,,,,,,,,,,,,,,,88653,001,2022-04-24_21h39.38.645,SPAMnetsValid,2021.1.4,Win32,49.932591,,,,,,,,,,,,,,,,,,,,,,,,,4,3.042,0,9,9,9,1,hiatus,animal,calamity,dread,gap,4,,,,,,,,,,,,,,,,,,,,,,,,,,,,,,,,,,,,,,,,,,,,,,,,,,,,
,,,,,,,,,,,,,,,88653,001,2022-04-24_21h39.38.645,SPAMnetsValid,2021.1.4,Win32,49.932591,,,,,,,,,,,,,,,,,,,,,,,,,3,5.3379,0,10,10,10,1,germane,microbe,contagious,relevant,different,3,,,,,,,,,,,,,,,,,,,,,,,,,,,,,,,,,,,,,,,,,,,,,,,,,,,,
,,,,,,,,,,,,,,,88653,001,2022-04-24_21h39.38.645,SPAMnetsValid,2021.1.4,Win32,49.932591,,,,,,,,,,,,,,,,,,,,,,,,,2,12.9843,0,11,11,11,1,perfunctory,fundamental,formal,superficial,careful,3,,,,,,,,,,,,,,,,,,,,,,,,,,,,,,,,,,,,,,,,,,,,,,,,,,,,
,,,,,,,,,,,,,,,88653,001,2022-04-24_21h39.38.645,SPAMnetsValid,2021.1.4,Win32,49.932591,,,,,,,,,,,,,,,,,,,,,,,,,4,2.7027,0,12,12,12,1,diverge,reveal,chant,distract the attention of,differ or turn off from,4,,,,,,,,,,,,,,,,,,,,,,,,,,,,,,,,,,,,,,,,,,,,,,,,,,,,
,,,,,,,,,,,,,,,88653,001,2022-04-24_21h39.38.645,SPAMnetsValid,2021.1.4,Win32,49.932591,,,,,,,,,,,,,,,,,,,,,,,,,4,2.515,0,13,13,13,1,evoke,take away,anger,connect,bring out,4,,,,,,,,,,,,,,,,,,,,,,,,,,,,,,,,,,,,,,,,,,,,,,,,,,,,
,,,,,,,,,,,,,,,88653,001,2022-04-24_21h39.38.645,SPAMnetsValid,2021.1.4,Win32,49.932591,,,,,,,,,,,,,,,,,,,,,,,,,1,2.9972,0,14,14,14,1,pertinent,relevant,lying next to,necessary,bold,1,,,,,,,,,,,,,,,,,,,,,,,,,,,,,,,,,,,,,,,,,,,,,,,,,,,,
,,,,,,,,,,,,,,,88653,001,2022-04-24_21h39.38.645,SPAMnetsValid,2021.1.4,Win32,49.932591,,,,,,,,,,,,,,,,,,,,,,,,,2,2.2759,0,15,15,15,1,holocaust,entirety,destruction,saintly,price,2,,,,,,,,,,,,,,,,,,,,,,,,,,,,,,,,,,,,,,,,,,,,,,,,,,,,
,,,,,,,,,,,,,,,88653,001,2022-04-24_21h39.38.645,SPAMnetsValid,2021.1.4,Win32,49.932591,,,,,,,,,,,,,,,,,,,,,,,,,4,9.8428,0,16,16,16,1,piquant,mellow,fish,pungent,cloth,3,,,,,,,,,,,,,,,,,,,,,,,,,,,,,,,,,,,,,,,,,,,,,,,,,,,,
,,,,,,,,,,,,,,,88653,001,2022-04-24_21h39.38.645,SPAMnetsValid,2021.1.4,Win32,49.932591,,,,,,,,,,,,,,,,,,,,,,,,,1,2.816,0,17,17,17,1,firmament,foundation,heavens,strong,glue,2,,,,,,,,,,,,,,,,,,,,,,,,,,,,,,,,,,,,,,,,,,,,,,,,,,,,
,,,,,,,,,,,,,,,88653,001,2022-04-24_21h39.38.645,SPAMnetsValid,2021.1.4,Win32,49.932591,,,,,,,,,,,,,,,,,,,,,,,,,,,,,,,,,,,,,,4,3.8183,0,0,0,0,1,marketable,partisan,jocular,marriageable,salable,essential,4,,,,,,,,,,,,,,,,,,,,,,,,,,,,,,,,,,,,,,
,,,,,,,,,,,,,,,88653,001,2022-04-24_21h39.38.645,SPAMnetsValid,2021.1.4,Win32,49.932591,,,,,,,,,,,,,,,,,,,,,,,,,,,,,,,,,,,,,,4,3.3544,0,1,1,1,1,cottontail,squirrel,poplar,boa,marshy plant,rabbit,5,,,,,,,,,,,,,,,,,,,,,,,,,,,,,,,,,,,,,,
,,,,,,,,,,,,,,,88653,001,2022-04-24_21h39.38.645,SPAMnetsValid,2021.1.4,Win32,49.932591,,,,,,,,,,,,,,,,,,,,,,,,,,,,,,,,,,,,,,3,1.7346,0,2,2,2,1,boggy,afraid,false,marshy,dense,black,3,,,,,,,,,,,,,,,,,,,,,,,,,,,,,,,,,,,,,,
,,,,,,,,,,,,,,,88653,001,2022-04-24_21h39.38.645,SPAMnetsValid,2021.1.4,Win32,49.932591,,,,,,,,,,,,,,,,,,,,,,,,,,,,,,,,,,,,,,5,3.7975,0,3,3,3,1,gruesomeness,blackness,falseness,vindictiveness,drunkenness,ghastliness,5,,,,,,,,,,,,,,,,,,,,,,,,,,,,,,,,,,,,,,
,,,,,,,,,,,,,,,88653,001,2022-04-24_21h39.38.645,SPAMnetsValid,2021.1.4,Win32,49.932591,,,,,,,,,,,,,,,,,,,,,,,,,,,,,,,,,,,,,,3,2.4548,0,4,4,4,1,loathing,diffidence,laziness,abhorrence,cleverness,comfort,3,,,,,,,,,,,,,,,,,,,,,,,,,,,,,,,,,,,,,,
,,,,,,,,,,,,,,,88653,001,2022-04-24_21h39.38.645,SPAMnetsValid,2021.1.4,Win32,49.932591,,,,,,,,,,,,,,,,,,,,,,,,,,,,,,,,,,,,,,5,5.015,0,5,5,5,1,bantam,fowl,ridicule,cripple,vegetable,ensign,1,,,,,,,,,,,,,,,,,,,,,,,,,,,,,,,,,,,,,,
,,,,,,,,,,,,,,,88653,001,2022-04-24_21h39.38.645,SPAMnetsValid,2021.1.4,Win32,49.932591,,,,,,,,,,,,,,,,,,,,,,,,,,,,,,,,,,,,,,5,2.9635,0,6,6,6,1,evoke,wake up,surrender,reconnoiter,transcend,call forth,5,,,,,,,,,,,,,,,,,,,,,,,,,,,,,,,,,,,,,,
,,,,,,,,,,,,,,,88653,001,2022-04-24_21h39.38.645,SPAMnetsValid,2021.1.4,Win32,49.932591,,,,,,,,,,,,,,,,,,,,,,,,,,,,,,,,,,,,,,4,5.1959,0,7,7,7,1,unobtrusive,unintelligent,epileptic,illogical,lineal,modest,5,,,,,,,,,,,,,,,,,,,,,,,,,,,,,,,,,,,,,,
,,,,,,,,,,,,,,,88653,001,2022-04-24_21h39.38.645,SPAMnetsValid,2021.1.4,Win32,49.932591,,,,,,,,,,,,,,,,,,,,,,,,,,,,,,,,,,,,,,4,5.6774,0,8,8,8,1,terrain,ice cream,final test,tractor,area of ground,weight,4,,,,,,,,,,,,,,,,,,,,,,,,,,,,,,,,,,,,,,
,,,,,,,,,,,,,,,88653,001,2022-04-24_21h39.38.645,SPAMnetsValid,2021.1.4,Win32,49.932591,,,,,,,,,,,,,,,,,,,,,,,,,,,,,,,,,,,,,,3,5.5403,0,9,9,9,1,capriciousness,stubbornness,courage,whimsicality,amazement,greediness,3,,,,,,,,,,,,,,,,,,,,,,,,,,,,,,,,,,,,,,
,,,,,,,,,,,,,,,88653,001,2022-04-24_21h39.38.645,SPAMnetsValid,2021.1.4,Win32,49.932591,,,,,,,,,,,,,,,,,,,,,,,,,,,,,,,,,,,,,,2,5.2782,0,10,10,10,1,maelstrom,slander,whirlpool,enmity,armor,majolica,2,,,,,,,,,,,,,,,,,,,,,,,,,,,,,,,,,,,,,,
,,,,,,,,,,,,,,,88653,001,2022-04-24_21h39.38.645,SPAMnetsValid,2021.1.4,Win32,49.932591,,,,,,,,,,,,,,,,,,,,,,,,,,,,,,,,,,,,,,4,3.2004,0,11,11,11,1,tentative,critical,conclusive,authentic,provisional,apprehensive,4,,,,,,,,,,,,,,,,,,,,,,,,,,,,,,,,,,,,,,
,,,,,,,,,,,,,,,88653,001,2022-04-24_21h39.38.645,SPAMnetsValid,2021.1.4,Win32,49.932591,,,,,,,,,,,,,,,,,,,,,,,,,,,,,,,,,,,,,,5,7.4609,0,12,12,12,1,placate,rehabilitate,plagiarize,depredate,apprise,conciliate,5,,,,,,,,,,,,,,,,,,,,,,,,,,,,,,,,,,,,,,
,,,,,,,,,,,,,,,88653,001,2022-04-24_21h39.38.645,SPAMnetsValid,2021.1.4,Win32,49.932591,,,,,,,,,,,,,,,,,,,,,,,,,,,,,,,,,,,,,,3,12.4647,0,13,13,13,1,surcease,enlightenment,cessation,inattention,censor,substitution,2,,,,,,,,,,,,,,,,,,,,,,,,,,,,,,,,,,,,,,
,,,,,,,,,,,,,,,88653,001,2022-04-24_21h39.38.645,SPAMnetsValid,2021.1.4,Win32,49.932591,,,,,,,,,,,,,,,,,,,,,,,,,,,,,,,,,,,,,,1,11.8431,0,14,14,14,1,apathetic,wandering,impassive,hateful,prophetic,overflowing,2,,,,,,,,,,,,,,,,,,,,,,,,,,,,,,,,,,,,,,
,,,,,,,,,,,,,,,88653,001,2022-04-24_21h39.38.645,SPAMnetsValid,2021.1.4,Win32,49.932591,,,,,,,,,,,,,,,,,,,,,,,,,,,,,,,,,,,,,,4,13.2307,0,15,15,15,1,paternoster,paternalism,patricide,malediction,benediction,prayer,5,,,,,,,,,,,,,,,,,,,,,,,,,,,,,,,,,,,,,,
,,,,,,,,,,,,,,,88653,001,2022-04-24_21h39.38.645,SPAMnetsValid,2021.1.4,Win32,49.932591,,,,,,,,,,,,,,,,,,,,,,,,,,,,,,,,,,,,,,2,7.0261,0,16,16,16,1,opalescence,opulence,senescence,bankruptcy,iridescence,assiduity,4,,,,,,,,,,,,,,,,,,,,,,,,,,,,,,,,,,,,,,
,,,,,,,,,,,,,,,88653,001,2022-04-24_21h39.38.645,SPAMnetsValid,2021.1.4,Win32,49.932591,,,,,,,,,,,,,,,,,,,,,,,,,,,,,,,,,,,,,,2,4.0586,0,17,17,17,1,lush,stupid,luxurious,hazy,putrid,languishing,2,,,,,,,,,,,,,,,,,,,,,,,,,,,,,,,,,,,,,,
,,,,,,,,,,,,,,,88653,001,2022-04-24_21h39.38.645,SPAMnetsValid,2021.1.4,Win32,49.932591,,,,,,,,,,,,,,,,,,,,,,,,,,,,,,,,,,,,,,3,6.9797,0,18,18,18,1,curtailment,expenditure,abandonment,abridgment,improvement,forgery,3,,,,,,,,,,,,,,,,,,,,,,,,,,,,,,,,,,,,,,
,,,,,,,,,,,,,,,88653,001,2022-04-24_21h39.38.645,SPAMnetsValid,2021.1.4,Win32,49.932591,,,,,,,,,,,,,,,,,,,,,,,,,,,,,,,,,,,,,,3,11.6474,0,19,19,19,1,perversity,adversity,perviousness,travesty,waywardness,gentility,4,,,,,,,,,,,,,,,,,,,,,,,,,,,,,,,,,,,,,,
,,,,,,,,,,,,,,,88653,001,2022-04-24_21h39.38.645,SPAMnetsValid,2021.1.4,Win32,49.932591,,,,,,,,,,,,,,,,,,,,,,,,,,,,,,,,,,,,,,2,12.5452,0,20,20,20,1,calumnious,complimentary,analogous,slanderous,tempestuous,magnanimous,3,,,,,,,,,,,,,,,,,,,,,,,,,,,,,,,,,,,,,,
,,,,,,,,,,,,,,,88653,001,2022-04-24_21h39.38.645,SPAMnetsValid,2021.1.4,Win32,49.932591,,,,,,,,,,,,,,,,,,,,,,,,,,,,,,,,,,,,,,2,10.2912,0,21,21,21,1,illiberality,bigotry,imbecility,illegibility,cautery,immaturity,1,,,,,,,,,,,,,,,,,,,,,,,,,,,,,,,,,,,,,,
,,,,,,,,,,,,,,,88653,001,2022-04-24_21h39.38.645,SPAMnetsValid,2021.1.4,Win32,49.932591,,,,,,,,,,,,,,,,,,,,,,,,,,,,,,,,,,,,,,2,2.0353,0,22,22,22,1,clabber,rejoice,gossip,curdle,crow,hobble,3,,,,,,,,,,,,,,,,,,,,,,,,,,,,,,,,,,,,,,
,,,,,,,,,,,,,,,88653,001,2022-04-24_21h39.38.645,SPAMnetsValid,2021.1.4,Win32,49.932591,,,,,,,,,,,,,,,,,,,,,,,,,,,,,,,,,,,,,,4,5.2589,0,23,23,23,1,sedulousness,diligence,credulousness,seduction,perilousness,frankness,1,,,,,,,,,,,,,,,,,,,,,,,,,,,,,,,,,,,,,,
,,,,,,,,,,,,,,,88653,001,2022-04-24_21h39.38.645,SPAMnetsValid,2021.1.4,Win32,49.932591,,,,,,,,,,,,,,,,,,,,,,,,,,,,,,,,,,,,,,,,,,,,,,,,,,,,punching  bag,pillow,0,0,0,0,1,,,,,,,,,,,,,,,,,,,,,,,,,,,,,,,
,,,,,,,,,,,,,,,88653,001,2022-04-24_21h39.38.645,SPAMnetsValid,2021.1.4,Win32,49.932591,,,,,,,,,,,,,,,,,,,,,,,,,,,,,,,,,,,,,,,,,,,,,,,,,,,,shield,pillow,1,0,1,0,1,,,,,,,,,,,,,,,,,,,,,,,,,,,,,,,
,,,,,,,,,,,,,,,88653,001,2022-04-24_21h39.38.645,SPAMnetsValid,2021.1.4,Win32,49.932591,,,,,,,,,,,,,,,,,,,,,,,,,,,,,,,,,,,,,,,,,,,,,,,,,,,,weapon,pillow,2,0,2,0,1,,,,,,,,,,,,,,,,,,,,,,,,,,,,,,,
,,,,,,,,,,,,,,,88653,001,2022-04-24_21h39.38.645,SPAMnetsValid,2021.1.4,Win32,49.932591,,,,,,,,,,,,,,,,,,,,,,,,,,,,,,,,,,,,,,,,,,,,,,,,,,,,booster seat,pillow,3,0,3,0,1,,,,,,,,,,,,,,,,,,,,,,,,,,,,,,,
,,,,,,,,,,,,,,,88653,001,2022-04-24_21h39.38.645,SPAMnetsValid,2021.1.4,Win32,49.932591,,,,,,,,,,,,,,,,,,,,,,,,,,,,,,,,,,,,,,,,,,,,,,,,,,,,hat,pillow,4,0,4,0,1,,,,,,,,,,,,,,,,,,,,,,,,,,,,,,,
,,,,,,,,,,,,,,,88653,001,2022-04-24_21h39.38.645,SPAMnetsValid,2021.1.4,Win32,49.932591,,,,,,,,,,,,,,,,,,,,,,,,,,,,,,,,,,,,,,,,,,,,,,,,,,,,ear muff,pillow,5,0,5,0,1,,,,,,,,,,,,,,,,,,,,,,,,,,,,,,,
,,,,,,,,,,,,,,,88653,001,2022-04-24_21h39.38.645,SPAMnetsValid,2021.1.4,Win32,49.932591,,,,,,,,,,,,,,,,,,,,,,,,,,,,,,,,,,,,,,,,,,,,,,,,,,,,sunglasses,pillow,6,0,6,0,1,,,,,,,,,,,,,,,,,,,,,,,,,,,,,,,
,,,,,,,,,,,,,,,88653,001,2022-04-24_21h39.38.645,SPAMnetsValid,2021.1.4,Win32,49.932591,,,,,,,,,,,,,,,,,,,,,,,,,,,,,,,,,,,,,,,,,,,,,,,,,,,,landing pad,pillow,7,0,7,0,1,,,,,,,,,,,,,,,,,,,,,,,,,,,,,,,
,,,,,,,,,,,,,,,88653,001,2022-04-24_21h39.38.645,SPAMnetsValid,2021.1.4,Win32,49.932591,,,,,,,,,,,,,,,,,,,,,,,,,,,,,,,,,,,,,,,,,,,,,,,,,,,,,,,,,,,0,0,0,2,1,pillow,,,,,,,,,,,,,,,,,,,,,,,,,
,,,,,,,,,,,,,,,88653,001,2022-04-24_21h39.38.645,SPAMnetsValid,2021.1.4,Win32,49.932591,,,,,,,,,,,,,,,,,,,,,,,,,,,,,,,,,,,,,,,,,,,,,,,,,,,,lighter,candle,0,0,0,0,1,,,,,,,,,,,,,,,,,,,,,,,,,,,,,,,
,,,,,,,,,,,,,,,88653,001,2022-04-24_21h39.38.645,SPAMnetsValid,2021.1.4,Win32,49.932591,,,,,,,,,,,,,,,,,,,,,,,,,,,,,,,,,,,,,,,,,,,,,,,,,,,,fireplace,candle,1,0,1,0,1,,,,,,,,,,,,,,,,,,,,,,,,,,,,,,,
,,,,,,,,,,,,,,,88653,001,2022-04-24_21h39.38.645,SPAMnetsValid,2021.1.4,Win32,49.932591,,,,,,,,,,,,,,,,,,,,,,,,,,,,,,,,,,,,,,,,,,,,,,,,,,,,lightbulb,candle,2,0,2,0,1,,,,,,,,,,,,,,,,,,,,,,,,,,,,,,,
,,,,,,,,,,,,,,,88653,001,2022-04-24_21h39.38.645,SPAMnetsValid,2021.1.4,Win32,49.932591,,,,,,,,,,,,,,,,,,,,,,,,,,,,,,,,,,,,,,,,,,,,,,,,,,,,ear plugs,candle,3,0,3,0,1,,,,,,,,,,,,,,,,,,,,,,,,,,,,,,,
,,,,,,,,,,,,,,,88653,001,2022-04-24_21h39.38.645,SPAMnetsValid,2021.1.4,Win32,49.932591,,,,,,,,,,,,,,,,,,,,,,,,,,,,,,,,,,,,,,,,,,,,,,,,,,,,,,,,,,,0,1,1,1,1,candle,,,,,,,,,,,,,,,,,,,,,,,,,
,,,,,,,,,,,,,,,88653,001,2022-04-24_21h39.38.645,SPAMnetsValid,2021.1.4,Win32,49.932591,,,,,,,,,,,,,,,,,,,,,,,,,,,,,,,,,,,,,,,,,,,,,,,,,,,,toilet,bucket,0,0,0,0,1,,,,,,,,,,,,,,,,,,,,,,,,,,,,,,,
,,,,,,,,,,,,,,,88653,001,2022-04-24_21h39.38.645,SPAMnetsValid,2021.1.4,Win32,49.932591,,,,,,,,,,,,,,,,,,,,,,,,,,,,,,,,,,,,,,,,,,,,,,,,,,,,helmet,bucket,1,0,1,0,1,,,,,,,,,,,,,,,,,,,,,,,,,,,,,,,
,,,,,,,,,,,,,,,88653,001,2022-04-24_21h39.38.645,SPAMnetsValid,2021.1.4,Win32,49.932591,,,,,,,,,,,,,,,,,,,,,,,,,,,,,,,,,,,,,,,,,,,,,,,,,,,,shower,bucket,2,0,2,0,1,,,,,,,,,,,,,,,,,,,,,,,,,,,,,,,
,,,,,,,,,,,,,,,88653,001,2022-04-24_21h39.38.645,SPAMnetsValid,2021.1.4,Win32,49.932591,,,,,,,,,,,,,,,,,,,,,,,,,,,,,,,,,,,,,,,,,,,,,,,,,,,,stool,bucket,3,0,3,0,1,,,,,,,,,,,,,,,,,,,,,,,,,,,,,,,
,,,,,,,,,,,,,,,88653,001,2022-04-24_21h39.38.645,SPAMnetsValid,2021.1.4,Win32,49.932591,,,,,,,,,,,,,,,,,,,,,,,,,,,,,,,,,,,,,,,,,,,,,,,,,,,,table,bucket,4,0,4,0,1,,,,,,,,,,,,,,,,,,,,,,,,,,,,,,,
,,,,,,,,,,,,,,,88653,001,2022-04-24_21h39.38.645,SPAMnetsValid,2021.1.4,Win32,49.932591,,,,,,,,,,,,,,,,,,,,,,,,,,,,,,,,,,,,,,,,,,,,,,,,,,,,chair,bucket,5,0,5,0,1,,,,,,,,,,,,,,,,,,,,,,,,,,,,,,,
,,,,,,,,,,,,,,,88653,001,2022-04-24_21h39.38.645,SPAMnetsValid,2021.1.4,Win32,49.932591,,,,,,,,,,,,,,,,,,,,,,,,,,,,,,,,,,,,,,,,,,,,,,,,,,,,bowl,bucket,6,0,6,0,1,,,,,,,,,,,,,,,,,,,,,,,,,,,,,,,
,,,,,,,,,,,,,,,88653,001,2022-04-24_21h39.38.645,SPAMnetsValid,2021.1.4,Win32,49.932591,,,,,,,,,,,,,,,,,,,,,,,,,,,,,,,,,,,,,,,,,,,,,,,,,,,,drum,bucket,7,0,7,0,1,,,,,,,,,,,,,,,,,,,,,,,,,,,,,,,
,,,,,,,,,,,,,,,88653,001,2022-04-24_21h39.38.645,SPAMnetsValid,2021.1.4,Win32,49.932591,,,,,,,,,,,,,,,,,,,,,,,,,,,,,,,,,,,,,,,,,,,,,,,,,,,,,,,,,,,0,2,2,0,1,bucket,,,,,,,,,,,,,,,,,,,,,,,,,
,,,,,,,,,,,,,,,88653,001,2022-04-24_21h39.38.645,SPAMnetsValid,2021.1.4,Win32,49.932591,,,,,,,,,,,,,,,,,,,,,,,,,,,,,,,,,,,,,,,,,,,,,,,,,,,,,,,,,,,,,,,,,cat,Animals,0,0,0,0,1,,,,,,,,,,,,,,,,,,
,,,,,,,,,,,,,,,88653,001,2022-04-24_21h39.38.645,SPAMnetsValid,2021.1.4,Win32,49.932591,,,,,,,,,,,,,,,,,,,,,,,,,,,,,,,,,,,,,,,,,,,,,,,,,,,,,,,,,,,,,,,,,dog,Animals,1,0,1,0,1,,,,,,,,,,,,,,,,,,
,,,,,,,,,,,,,,,88653,001,2022-04-24_21h39.38.645,SPAMnetsValid,2021.1.4,Win32,49.932591,,,,,,,,,,,,,,,,,,,,,,,,,,,,,,,,,,,,,,,,,,,,,,,,,,,,,,,,,,,,,,,,,frog,Animals,2,0,2,0,1,,,,,,,,,,,,,,,,,,
,,,,,,,,,,,,,,,88653,001,2022-04-24_21h39.38.645,SPAMnetsValid,2021.1.4,Win32,49.932591,,,,,,,,,,,,,,,,,,,,,,,,,,,,,,,,,,,,,,,,,,,,,,,,,,,,,,,,,,,,,,,,,pig,Animals,3,0,3,0,1,,,,,,,,,,,,,,,,,,
,,,,,,,,,,,,,,,88653,001,2022-04-24_21h39.38.645,SPAMnetsValid,2021.1.4,Win32,49.932591,,,,,,,,,,,,,,,,,,,,,,,,,,,,,,,,,,,,,,,,,,,,,,,,,,,,,,,,,,,,,,,,,cow,Animals,4,0,4,0,1,,,,,,,,,,,,,,,,,,
,,,,,,,,,,,,,,,88653,001,2022-04-24_21h39.38.645,SPAMnetsValid,2021.1.4,Win32,49.932591,,,,,,,,,,,,,,,,,,,,,,,,,,,,,,,,,,,,,,,,,,,,,,,,,,,,,,,,,,,,,,,,,donkey,Animals,5,0,5,0,1,,,,,,,,,,,,,,,,,,
,,,,,,,,,,,,,,,88653,001,2022-04-24_21h39.38.645,SPAMnetsValid,2021.1.4,Win32,49.932591,,,,,,,,,,,,,,,,,,,,,,,,,,,,,,,,,,,,,,,,,,,,,,,,,,,,,,,,,,,,,,,,,zebra,Animals,6,0,6,0,1,,,,,,,,,,,,,,,,,,
,,,,,,,,,,,,,,,88653,001,2022-04-24_21h39.38.645,SPAMnetsValid,2021.1.4,Win32,49.932591,,,,,,,,,,,,,,,,,,,,,,,,,,,,,,,,,,,,,,,,,,,,,,,,,,,,,,,,,,,,,,,,,antelope,Animals,7,0,7,0,1,,,,,,,,,,,,,,,,,,
,,,,,,,,,,,,,,,88653,001,2022-04-24_21h39.38.645,SPAMnetsValid,2021.1.4,Win32,49.932591,,,,,,,,,,,,,,,,,,,,,,,,,,,,,,,,,,,,,,,,,,,,,,,,,,,,,,,,,,,,,,,,,lion,Animals,8,0,8,0,1,,,,,,,,,,,,,,,,,,
,,,,,,,,,,,,,,,88653,001,2022-04-24_21h39.38.645,SPAMnetsValid,2021.1.4,Win32,49.932591,,,,,,,,,,,,,,,,,,,,,,,,,,,,,,,,,,,,,,,,,,,,,,,,,,,,,,,,,,,,,,,,,tiger,Animals,9,0,9,0,1,,,,,,,,,,,,,,,,,,
,,,,,,,,,,,,,,,88653,001,2022-04-24_21h39.38.645,SPAMnetsValid,2021.1.4,Win32,49.932591,,,,,,,,,,,,,,,,,,,,,,,,,,,,,,,,,,,,,,,,,,,,,,,,,,,,,,,,,,,,,,,,,bear,Animals,10,0,10,0,1,,,,,,,,,,,,,,,,,,
,,,,,,,,,,,,,,,88653,001,2022-04-24_21h39.38.645,SPAMnetsValid,2021.1.4,Win32,49.932591,,,,,,,,,,,,,,,,,,,,,,,,,,,,,,,,,,,,,,,,,,,,,,,,,,,,,,,,,,,,,,,,,wolf,Animals,11,0,11,0,1,,,,,,,,,,,,,,,,,,
,,,,,,,,,,,,,,,88653,001,2022-04-24_21h39.38.645,SPAMnetsValid,2021.1.4,Win32,49.932591,,,,,,,,,,,,,,,,,,,,,,,,,,,,,,,,,,,,,,,,,,,,,,,,,,,,,,,,,,,,,,,,,snake,Animals,12,0,12,0,1,,,,,,,,,,,,,,,,,,
,,,,,,,,,,,,,,,88653,001,2022-04-24_21h39.38.645,SPAMnetsValid,2021.1.4,Win32,49.932591,,,,,,,,,,,,,,,,,,,,,,,,,,,,,,,,,,,,,,,,,,,,,,,,,,,,,,,,,,,,,,,,,beetle,Animals,13,0,13,0,1,,,,,,,,,,,,,,,,,,
,,,,,,,,,,,,,,,88653,001,2022-04-24_21h39.38.645,SPAMnetsValid,2021.1.4,Win32,49.932591,,,,,,,,,,,,,,,,,,,,,,,,,,,,,,,,,,,,,,,,,,,,,,,,,,,,,,,,,,,,,,,,,ant,Animals,14,0,14,0,1,,,,,,,,,,,,,,,,,,
,,,,,,,,,,,,,,,88653,001,2022-04-24_21h39.38.645,SPAMnetsValid,2021.1.4,Win32,49.932591,,,,,,,,,,,,,,,,,,,,,,,,,,,,,,,,,,,,,,,,,,,,,,,,,,,,,,,,,,,,,,,,,bee,Animals,15,0,15,0,1,,,,,,,,,,,,,,,,,,
,,,,,,,,,,,,,,,88653,001,2022-04-24_21h39.38.645,SPAMnetsValid,2021.1.4,Win32,49.932591,,,,,,,,,,,,,,,,,,,,,,,,,,,,,,,,,,,,,,,,,,,,,,,,,,,,,,,,,,,,,,,,,wasp,Animals,16,0,16,0,1,,,,,,,,,,,,,,,,,,
,,,,,,,,,,,,,,,88653,001,2022-04-24_21h39.38.645,SPAMnetsValid,2021.1.4,Win32,49.932591,,,,,,,,,,,,,,,,,,,,,,,,,,,,,,,,,,,,,,,,,,,,,,,,,,,,,,,,,,,,,,,,,squirrel,Animals,17,0,17,0,1,,,,,,,,,,,,,,,,,,
,,,,,,,,,,,,,,,88653,001,2022-04-24_21h39.38.645,SPAMnetsValid,2021.1.4,Win32,49.932591,,,,,,,,,,,,,,,,,,,,,,,,,,,,,,,,,,,,,,,,,,,,,,,,,,,,,,,,,,,,,,,,,chipmunk,Animals,18,0,18,0,1,,,,,,,,,,,,,,,,,,
,,,,,,,,,,,,,,,88653,001,2022-04-24_21h39.38.645,SPAMnetsValid,2021.1.4,Win32,49.932591,,,,,,,,,,,,,,,,,,,,,,,,,,,,,,,,,,,,,,,,,,,,,,,,,,,,,,,,,,,,,,,,,hamster,Animals,19,0,19,0,1,,,,,,,,,,,,,,,,,,
,,,,,,,,,,,,,,,88653,001,2022-04-24_21h39.38.645,SPAMnetsValid,2021.1.4,Win32,49.932591,,,,,,,,,,,,,,,,,,,,,,,,,,,,,,,,,,,,,,,,,,,,,,,,,,,,,,,,,,,,,,,,,guinea pig,Animals,20,0,20,0,1,,,,,,,,,,,,,,,,,,
,,,,,,,,,,,,,,,88653,001,2022-04-24_21h39.38.645,SPAMnetsValid,2021.1.4,Win32,49.932591,,,,,,,,,,,,,,,,,,,,,,,,,,,,,,,,,,,,,,,,,,,,,,,,,,,,,,,,,,,,,,,,,rat,Animals,21,0,21,0,1,,,,,,,,,,,,,,,,,,
,,,,,,,,,,,,,,,88653,001,2022-04-24_21h39.38.645,SPAMnetsValid,2021.1.4,Win32,49.932591,,,,,,,,,,,,,,,,,,,,,,,,,,,,,,,,,,,,,,,,,,,,,,,,,,,,,,,,,,,,,,,,,mouse,Animals,22,0,22,0,1,,,,,,,,,,,,,,,,,,
,,,,,,,,,,,,,,,88653,001,2022-04-24_21h39.38.645,SPAMnetsValid,2021.1.4,Win32,49.932591,,,,,,,,,,,,,,,,,,,,,,,,,,,,,,,,,,,,,,,,,,,,,,,,,,,,,,,,,,,,,,,,,turtle,Animals,23,0,23,0,1,,,,,,,,,,,,,,,,,,
,,,,,,,,,,,,,,,88653,001,2022-04-24_21h39.38.645,SPAMnetsValid,2021.1.4,Win32,49.932591,,,,,,,,,,,,,,,,,,,,,,,,,,,,,,,,,,,,,,,,,,,,,,,,,,,,,,,,,,,,,,,,,fish,Animals,24,0,24,0,1,,,,,,,,,,,,,,,,,,
,,,,,,,,,,,,,,,88653,001,2022-04-24_21h39.38.645,SPAMnetsValid,2021.1.4,Win32,49.932591,,,,,,,,,,,,,,,,,,,,,,,,,,,,,,,,,,,,,,,,,,,,,,,,,,,,,,,,,,,,,,,,,shark,Animals,25,0,25,0,1,,,,,,,,,,,,,,,,,,
,,,,,,,,,,,,,,,88653,001,2022-04-24_21h39.38.645,SPAMnetsValid,2021.1.4,Win32,49.932591,,,,,,,,,,,,,,,,,,,,,,,,,,,,,,,,,,,,,,,,,,,,,,,,,,,,,,,,,,,,,,,,,whale,Animals,26,0,26,0,1,,,,,,,,,,,,,,,,,,
,,,,,,,,,,,,,,,88653,001,2022-04-24_21h39.38.645,SPAMnetsValid,2021.1.4,Win32,49.932591,,,,,,,,,,,,,,,,,,,,,,,,,,,,,,,,,,,,,,,,,,,,,,,,,,,,,,,,,,,,,,,,,dolphin,Animals,27,0,27,0,1,,,,,,,,,,,,,,,,,,
,,,,,,,,,,,,,,,88653,001,2022-04-24_21h39.38.645,SPAMnetsValid,2021.1.4,Win32,49.932591,,,,,,,,,,,,,,,,,,,,,,,,,,,,,,,,,,,,,,,,,,,,,,,,,,,,,,,,,,,,,,,,,jellyfish,Animals,28,0,28,0,1,,,,,,,,,,,,,,,,,,
,,,,,,,,,,,,,,,88653,001,2022-04-24_21h39.38.645,SPAMnetsValid,2021.1.4,Win32,49.932591,,,,,,,,,,,,,,,,,,,,,,,,,,,,,,,,,,,,,,,,,,,,,,,,,,,,,,,,,,,,,,,,,plankton,Animals,29,0,29,0,1,,,,,,,,,,,,,,,,,,
,,,,,,,,,,,,,,,88653,001,2022-04-24_21h39.38.645,SPAMnetsValid,2021.1.4,Win32,49.932591,,,,,,,,,,,,,,,,,,,,,,,,,,,,,,,,,,,,,,,,,,,,,,,,,,,,,,,,,,,,,,,,,stafish,Animals,30,0,30,0,1,,,,,,,,,,,,,,,,,,
,,,,,,,,,,,,,,,88653,001,2022-04-24_21h39.38.645,SPAMnetsValid,2021.1.4,Win32,49.932591,,,,,,,,,,,,,,,,,,,,,,,,,,,,,,,,,,,,,,,,,,,,,,,,,,,,,,,,,,,,,,,,,squid,Animals,31,0,31,0,1,,,,,,,,,,,,,,,,,,
,,,,,,,,,,,,,,,88653,001,2022-04-24_21h39.38.645,SPAMnetsValid,2021.1.4,Win32,49.932591,,,,,,,,,,,,,,,,,,,,,,,,,,,,,,,,,,,,,,,,,,,,,,,,,,,,,,,,,,,,,,,,,crab,Animals,32,0,32,0,1,,,,,,,,,,,,,,,,,,
,,,,,,,,,,,,,,,88653,001,2022-04-24_21h39.38.645,SPAMnetsValid,2021.1.4,Win32,49.932591,,,,,,,,,,,,,,,,,,,,,,,,,,,,,,,,,,,,,,,,,,,,,,,,,,,,,,,,,,,,,,,,,,,,,,,,0,0,0,0,1,Animals,,,,,,,,,,,,
,,,,,,,,,,,,,,,88653,001,2022-04-24_21h39.38.645,SPAMnetsValid,2021.1.4,Win32,49.932591,,,,,,,,,,,,,,,,,,,,,,,,,,,,,,,,,,,,,,,,,,,,,,,,,,,,,,,,,,,,,,,,,,,,,,,,,,,,,,2,8.2324,0,0,0,0,1,"I enjoy concentrating on a fantasy or daydream and exploring all its possibilities, letting it grow and develop.",0,1,,
,,,,,,,,,,,,,,,88653,001,2022-04-24_21h39.38.645,SPAMnetsValid,2021.1.4,Win32,49.932591,,,,,,,,,,,,,,,,,,,,,,,,,,,,,,,,,,,,,,,,,,,,,,,,,,,,,,,,,,,,,,,,,,,,,,,,,,,,,,4,2.3751,0,1,1,1,1,I think it's interesting to learn and develop new hobbies.,0,2,,
,,,,,,,,,,,,,,,88653,001,2022-04-24_21h39.38.645,SPAMnetsValid,2021.1.4,Win32,49.932591,,,,,,,,,,,,,,,,,,,,,,,,,,,,,,,,,,,,,,,,,,,,,,,,,,,,,,,,,,,,,,,,,,,,,,,,,,,,,,4,2.0913,0,2,2,2,1,I am intrigued by the patterns I find in art and nature.,0,3,,
,,,,,,,,,,,,,,,88653,001,2022-04-24_21h39.38.645,SPAMnetsValid,2021.1.4,Win32,49.932591,,,,,,,,,,,,,,,,,,,,,,,,,,,,,,,,,,,,,,,,,,,,,,,,,,,,,,,,,,,,,,,,,,,,,,,,,,,,,,1,5.5583,0,3,3,3,1,I believe letting students hear controversial speakers can only confuse and mislead them.,1,4,,
,,,,,,,,,,,,,,,88653,001,2022-04-24_21h39.38.645,SPAMnetsValid,2021.1.4,Win32,49.932591,,,,,,,,,,,,,,,,,,,,,,,,,,,,,,,,,,,,,,,,,,,,,,,,,,,,,,,,,,,,,,,,,,,,,,,,,,,,,,3,3.9345,0,4,4,4,1,Poetry has little or no effect on me.,1,5,,
,,,,,,,,,,,,,,,88653,001,2022-04-24_21h39.38.645,SPAMnetsValid,2021.1.4,Win32,49.932591,,,,,,,,,,,,,,,,,,,,,,,,,,,,,,,,,,,,,,,,,,,,,,,,,,,,,,,,,,,,,,,,,,,,,,,,,,,,,,4,4.8206,0,5,5,5,1,I would have difficulty just letting my mind wander without control or guidance.,1,6,,
,,,,,,,,,,,,,,,88653,001,2022-04-24_21h39.38.645,SPAMnetsValid,2021.1.4,Win32,49.932591,,,,,,,,,,,,,,,,,,,,,,,,,,,,,,,,,,,,,,,,,,,,,,,,,,,,,,,,,,,,,,,,,,,,,,,,,,,,,,4,3.8823,0,6,6,6,1,I seldom notice the moods or feelings that different environments produce.,1,7,,
,,,,,,,,,,,,,,,88653,001,2022-04-24_21h39.38.645,SPAMnetsValid,2021.1.4,Win32,49.932591,,,,,,,,,,,,,,,,,,,,,,,,,,,,,,,,,,,,,,,,,,,,,,,,,,,,,,,,,,,,,,,,,,,,,,,,,,,,,,4,3.1588,0,7,7,7,1,I experience a wide range of emotions or feelings.,0,8,,
,,,,,,,,,,,,,,,88653,001,2022-04-24_21h39.38.645,SPAMnetsValid,2021.1.4,Win32,49.932591,,,,,,,,,,,,,,,,,,,,,,,,,,,,,,,,,,,,,,,,,,,,,,,,,,,,,,,,,,,,,,,,,,,,,,,,,,,,,,2,3.758,0,8,8,8,1,"Sometimes when I am reading poetry or looking at a work of art, I feel a chill or wave of excitement.",0,9,,
,,,,,,,,,,,,,,,88653,001,2022-04-24_21h39.38.645,SPAMnetsValid,2021.1.4,Win32,49.932591,,,,,,,,,,,,,,,,,,,,,,,,,,,,,,,,,,,,,,,,,,,,,,,,,,,,,,,,,,,,,,,,,,,,,,,,,,,,,,1,4.2214,0,9,9,9,1,I have little interest in speculating on the nature of the universe or the human condition.,1,10,,
,,,,,,,,,,,,,,,88653,001,2022-04-24_21h39.38.645,SPAMnetsValid,2021.1.4,Win32,49.932591,,,,,,,,,,,,,,,,,,,,,,,,,,,,,,,,,,,,,,,,,,,,,,,,,,,,,,,,,,,,,,,,,,,,,,,,,,,,,,4,2.8982,0,10,10,10,1,I have a lot of intellectual curiosity.,0,11,,
,,,,,,,,,,,,,,,88653,001,2022-04-24_21h39.38.645,SPAMnetsValid,2021.1.4,Win32,49.932591,,,,,,,,,,,,,,,,,,,,,,,,,,,,,,,,,,,,,,,,,,,,,,,,,,,,,,,,,,,,,,,,,,,,,,,,,,,,,,4,2.945,0,11,11,11,1,I often enjoy playing with theories or abstract ideas.,0,12,,
,,,,,,,,,,,,,,,88653,001,2022-04-24_21h39.38.645,SPAMnetsValid,2021.1.4,Win32,49.932591,,,,,,,,,,,,,,,,,,,,,,,,,,,,,,,,,,,,,,,,,,,,,,,,,,,,,,,,,,,,,,,,,,,,,,,,,,,,,,,,,,,,,,,,return,11.9171
