key_resp_3.keys,key_resp_3.rt,slider.response,slider.rt,rjt_rating,rjt_RT,trials_22.thisRepN,trials_22.thisTrialN,trials_22.thisN,trials_22.thisIndex,trials_22.ran,rjt_order,word1,word2,attention,participant,session,date,expName,psychopyVersion,OS,frameRate,trials_99.thisRepN,trials_99.thisTrialN,trials_99.thisN,trials_99.thisIndex,trials_99.ran,trials_5.thisRepN,trials_5.thisTrialN,trials_5.thisN,trials_5.thisIndex,trials_5.ran,repOne,repTwo,slider_2.response,slider_2.rt,trials_24.thisRepN,trials_24.thisTrialN,trials_24.thisN,trials_24.thisIndex,trials_24.ran,trials_4.thisRepN,trials_4.thisTrialN,trials_4.thisN,trials_4.thisIndex,trials_4.ran,slider_extend_2.response,slider_extend_2.rt,trials_6.thisRepN,trials_6.thisTrialN,trials_6.thisN,trials_6.thisIndex,trials_6.ran,vCue2,R1,R2,R3,R4,correct,sliderVocab.response,sliderVocab.rt,trials_7.thisRepN,trials_7.thisTrialN,trials_7.thisN,trials_7.thisIndex,trials_7.ran,VocabCue,VR1,VR2,VR3,VR4,VR5,VocabCorrect,AUT_resp,AUT_label,trials.thisRepN,trials.thisTrialN,trials.thisN,trials.thisIndex,trials.ran,trials_2.thisRepN,trials_2.thisTrialN,trials_2.thisN,trials_2.thisIndex,trials_2.ran,aut_prompt,VF_response,VF_tag,trials_16.thisRepN,trials_16.thisTrialN,trials_16.thisN,trials_16.thisIndex,trials_16.ran,trials_17.thisRepN,trials_17.thisTrialN,trials_17.thisN,trials_17.thisIndex,trials_17.ran,VFcond,open_slider.response,open_slider.rt,trials_3.thisRepN,trials_3.thisTrialN,trials_3.thisN,trials_3.thisIndex,trials_3.ran,OpenQ,Rev,OPEN_ORDER,key_resp_2.keys,key_resp_2.rt
return,0.297,1,4.195,1,4.195,0,0,0,11,1,37,garden,refrigerator,,88668,001,2022-04-29_12h25.06.518,SPAMnetsValid,2021.1.4,MacIntel,29.41176471,,,,,,,,,,,,,,,,,,,,,,,,,,,,,,,,,,,,,,,,,,,,,,,,,,,,,,,,,,,,,,,,,,,,,,,,,,,,,,,,,,,,,,,,,
,,5,10.552,5,10.552,0,1,1,78,1,30,cookie,pretzel,,88668,001,2022-04-29_12h25.06.518,SPAMnetsValid,2021.1.4,MacIntel,29.41176471,,,,,,,,,,,,,,,,,,,,,,,,,,,,,,,,,,,,,,,,,,,,,,,,,,,,,,,,,,,,,,,,,,,,,,,,,,,,,,,,,,,,,,,,,
,,1,1.918,1,1.918,0,2,2,56,1,78,cookie,rose,,88668,001,2022-04-29_12h25.06.518,SPAMnetsValid,2021.1.4,MacIntel,29.41176471,,,,,,,,,,,,,,,,,,,,,,,,,,,,,,,,,,,,,,,,,,,,,,,,,,,,,,,,,,,,,,,,,,,,,,,,,,,,,,,,,,,,,,,,,
,,1,2.354,1,2.354,0,3,3,89,1,80,chocolate,tree,,88668,001,2022-04-29_12h25.06.518,SPAMnetsValid,2021.1.4,MacIntel,29.41176471,,,,,,,,,,,,,,,,,,,,,,,,,,,,,,,,,,,,,,,,,,,,,,,,,,,,,,,,,,,,,,,,,,,,,,,,,,,,,,,,,,,,,,,,,
,,1,1.852,1,1.852,0,4,4,49,1,57,flower,kitchen,,88668,001,2022-04-29_12h25.06.518,SPAMnetsValid,2021.1.4,MacIntel,29.41176471,,,,,,,,,,,,,,,,,,,,,,,,,,,,,,,,,,,,,,,,,,,,,,,,,,,,,,,,,,,,,,,,,,,,,,,,,,,,,,,,,,,,,,,,,
,,9,1.871,9,1.871,0,5,5,62,1,18,onion,refrigerator,,88668,001,2022-04-29_12h25.06.518,SPAMnetsValid,2021.1.4,MacIntel,29.41176471,,,,,,,,,,,,,,,,,,,,,,,,,,,,,,,,,,,,,,,,,,,,,,,,,,,,,,,,,,,,,,,,,,,,,,,,,,,,,,,,,,,,,,,,,
,,5,8.657,5,8.657,0,6,6,34,1,29,chocolate,melon,,88668,001,2022-04-29_12h25.06.518,SPAMnetsValid,2021.1.4,MacIntel,29.41176471,,,,,,,,,,,,,,,,,,,,,,,,,,,,,,,,,,,,,,,,,,,,,,,,,,,,,,,,,,,,,,,,,,,,,,,,,,,,,,,,,,,,,,,,,
,,6,2.832,6,2.832,0,7,7,35,1,55,tomato,tree,,88668,001,2022-04-29_12h25.06.518,SPAMnetsValid,2021.1.4,MacIntel,29.41176471,,,,,,,,,,,,,,,,,,,,,,,,,,,,,,,,,,,,,,,,,,,,,,,,,,,,,,,,,,,,,,,,,,,,,,,,,,,,,,,,,,,,,,,,,
,,9,1.737,9,1.737,0,8,8,42,1,77,refrigerator,yogurt,,88668,001,2022-04-29_12h25.06.518,SPAMnetsValid,2021.1.4,MacIntel,29.41176471,,,,,,,,,,,,,,,,,,,,,,,,,,,,,,,,,,,,,,,,,,,,,,,,,,,,,,,,,,,,,,,,,,,,,,,,,,,,,,,,,,,,,,,,,
,,1,14.82,1,14.82,0,9,9,18,1,85,cake,tree,,88668,001,2022-04-29_12h25.06.518,SPAMnetsValid,2021.1.4,MacIntel,29.41176471,,,,,,,,,,,,,,,,,,,,,,,,,,,,,,,,,,,,,,,,,,,,,,,,,,,,,,,,,,,,,,,,,,,,,,,,,,,,,,,,,,,,,,,,,
,,9,1.919,9,1.919,0,10,10,87,1,79,garden,strawberry,,88668,001,2022-04-29_12h25.06.518,SPAMnetsValid,2021.1.4,MacIntel,29.41176471,,,,,,,,,,,,,,,,,,,,,,,,,,,,,,,,,,,,,,,,,,,,,,,,,,,,,,,,,,,,,,,,,,,,,,,,,,,,,,,,,,,,,,,,,
,,6,2.568,6,2.568,0,11,11,21,1,56,cactus,tree,,88668,001,2022-04-29_12h25.06.518,SPAMnetsValid,2021.1.4,MacIntel,29.41176471,,,,,,,,,,,,,,,,,,,,,,,,,,,,,,,,,,,,,,,,,,,,,,,,,,,,,,,,,,,,,,,,,,,,,,,,,,,,,,,,,,,,,,,,,
,,4,3.153,4,3.153,0,12,12,60,1,89,chocolate,rose,,88668,001,2022-04-29_12h25.06.518,SPAMnetsValid,2021.1.4,MacIntel,29.41176471,,,,,,,,,,,,,,,,,,,,,,,,,,,,,,,,,,,,,,,,,,,,,,,,,,,,,,,,,,,,,,,,,,,,,,,,,,,,,,,,,,,,,,,,,
,,5,3.188,5,3.188,0,13,13,63,1,21,cake,onion,,88668,001,2022-04-29_12h25.06.518,SPAMnetsValid,2021.1.4,MacIntel,29.41176471,,,,,,,,,,,,,,,,,,,,,,,,,,,,,,,,,,,,,,,,,,,,,,,,,,,,,,,,,,,,,,,,,,,,,,,,,,,,,,,,,,,,,,,,,
,,8,4.153,8,4.153,0,14,14,71,1,38,pretzel,refrigerator,,88668,001,2022-04-29_12h25.06.518,SPAMnetsValid,2021.1.4,MacIntel,29.41176471,,,,,,,,,,,,,,,,,,,,,,,,,,,,,,,,,,,,,,,,,,,,,,,,,,,,,,,,,,,,,,,,,,,,,,,,,,,,,,,,,,,,,,,,,
,,6,2.134,6,2.134,0,15,15,72,1,59,rose,strawberry,,88668,001,2022-04-29_12h25.06.518,SPAMnetsValid,2021.1.4,MacIntel,29.41176471,,,,,,,,,,,,,,,,,,,,,,,,,,,,,,,,,,,,,,,,,,,,,,,,,,,,,,,,,,,,,,,,,,,,,,,,,,,,,,,,,,,,,,,,,
,,5,3.021,5,3.021,0,16,16,8,1,43,chocolate,tomato,,88668,001,2022-04-29_12h25.06.518,SPAMnetsValid,2021.1.4,MacIntel,29.41176471,,,,,,,,,,,,,,,,,,,,,,,,,,,,,,,,,,,,,,,,,,,,,,,,,,,,,,,,,,,,,,,,,,,,,,,,,,,,,,,,,,,,,,,,,
,,6,4.068,6,4.068,0,17,17,41,1,19,microwave,pretzel,,88668,001,2022-04-29_12h25.06.518,SPAMnetsValid,2021.1.4,MacIntel,29.41176471,,,,,,,,,,,,,,,,,,,,,,,,,,,,,,,,,,,,,,,,,,,,,,,,,,,,,,,,,,,,,,,,,,,,,,,,,,,,,,,,,,,,,,,,,
,,9,7.835,9,7.835,0,18,18,30,1,3,cake,oven,,88668,001,2022-04-29_12h25.06.518,SPAMnetsValid,2021.1.4,MacIntel,29.41176471,,,,,,,,,,,,,,,,,,,,,,,,,,,,,,,,,,,,,,,,,,,,,,,,,,,,,,,,,,,,,,,,,,,,,,,,,,,,,,,,,,,,,,,,,
,,5,2.535,5,2.535,0,19,19,24,1,17,carrot,melon,,88668,001,2022-04-29_12h25.06.518,SPAMnetsValid,2021.1.4,MacIntel,29.41176471,,,,,,,,,,,,,,,,,,,,,,,,,,,,,,,,,,,,,,,,,,,,,,,,,,,,,,,,,,,,,,,,,,,,,,,,,,,,,,,,,,,,,,,,,
,,5,2.602,5,2.602,0,20,20,38,1,88,cactus,melon,,88668,001,2022-04-29_12h25.06.518,SPAMnetsValid,2021.1.4,MacIntel,29.41176471,,,,,,,,,,,,,,,,,,,,,,,,,,,,,,,,,,,,,,,,,,,,,,,,,,,,,,,,,,,,,,,,,,,,,,,,,,,,,,,,,,,,,,,,,
,,6,2.069,6,2.069,0,21,21,76,1,36,broom,kitchen,,88668,001,2022-04-29_12h25.06.518,SPAMnetsValid,2021.1.4,MacIntel,29.41176471,,,,,,,,,,,,,,,,,,,,,,,,,,,,,,,,,,,,,,,,,,,,,,,,,,,,,,,,,,,,,,,,,,,,,,,,,,,,,,,,,,,,,,,,,
,,8,2.024,8,2.024,0,22,22,19,1,76,garden,rose,,88668,001,2022-04-29_12h25.06.518,SPAMnetsValid,2021.1.4,MacIntel,29.41176471,,,,,,,,,,,,,,,,,,,,,,,,,,,,,,,,,,,,,,,,,,,,,,,,,,,,,,,,,,,,,,,,,,,,,,,,,,,,,,,,,,,,,,,,,
,,9,1.936,9,1.936,0,23,23,52,1,4,chocolate,pretzel,,88668,001,2022-04-29_12h25.06.518,SPAMnetsValid,2021.1.4,MacIntel,29.41176471,,,,,,,,,,,,,,,,,,,,,,,,,,,,,,,,,,,,,,,,,,,,,,,,,,,,,,,,,,,,,,,,,,,,,,,,,,,,,,,,,,,,,,,,,
,,5,2.935,5,2.935,0,24,24,51,1,47,onion,tomato,,88668,001,2022-04-29_12h25.06.518,SPAMnetsValid,2021.1.4,MacIntel,29.41176471,,,,,,,,,,,,,,,,,,,,,,,,,,,,,,,,,,,,,,,,,,,,,,,,,,,,,,,,,,,,,,,,,,,,,,,,,,,,,,,,,,,,,,,,,
,,1,2.056,1,2.056,0,25,25,32,1,40,broom,cake,,88668,001,2022-04-29_12h25.06.518,SPAMnetsValid,2021.1.4,MacIntel,29.41176471,,,,,,,,,,,,,,,,,,,,,,,,,,,,,,,,,,,,,,,,,,,,,,,,,,,,,,,,,,,,,,,,,,,,,,,,,,,,,,,,,,,,,,,,,
,,5,3.137,5,3.137,0,26,26,50,1,81,pretzel,yogurt,,88668,001,2022-04-29_12h25.06.518,SPAMnetsValid,2021.1.4,MacIntel,29.41176471,,,,,,,,,,,,,,,,,,,,,,,,,,,,,,,,,,,,,,,,,,,,,,,,,,,,,,,,,,,,,,,,,,,,,,,,,,,,,,,,,,,,,,,,,
,,3,16.17,3,16.17,0,27,27,14,1,64,chocolate,garden,,88668,001,2022-04-29_12h25.06.518,SPAMnetsValid,2021.1.4,MacIntel,29.41176471,,,,,,,,,,,,,,,,,,,,,,,,,,,,,,,,,,,,,,,,,,,,,,,,,,,,,,,,,,,,,,,,,,,,,,,,,,,,,,,,,,,,,,,,,
,,5,3.335,5,3.335,0,28,28,36,1,12,cookie,yogurt,,88668,001,2022-04-29_12h25.06.518,SPAMnetsValid,2021.1.4,MacIntel,29.41176471,,,,,,,,,,,,,,,,,,,,,,,,,,,,,,,,,,,,,,,,,,,,,,,,,,,,,,,,,,,,,,,,,,,,,,,,,,,,,,,,,,,,,,,,,
,,9,1.719,9,1.719,0,29,29,48,1,66,melon,yogurt,,88668,001,2022-04-29_12h25.06.518,SPAMnetsValid,2021.1.4,MacIntel,29.41176471,,,,,,,,,,,,,,,,,,,,,,,,,,,,,,,,,,,,,,,,,,,,,,,,,,,,,,,,,,,,,,,,,,,,,,,,,,,,,,,,,,,,,,,,,
,,1,1.621,1,1.621,0,30,30,17,1,27,cactus,cookie,,88668,001,2022-04-29_12h25.06.518,SPAMnetsValid,2021.1.4,MacIntel,29.41176471,,,,,,,,,,,,,,,,,,,,,,,,,,,,,,,,,,,,,,,,,,,,,,,,,,,,,,,,,,,,,,,,,,,,,,,,,,,,,,,,,,,,,,,,,
,,5,2.102,5,2.102,0,31,31,69,1,45,onion,pretzel,,88668,001,2022-04-29_12h25.06.518,SPAMnetsValid,2021.1.4,MacIntel,29.41176471,,,,,,,,,,,,,,,,,,,,,,,,,,,,,,,,,,,,,,,,,,,,,,,,,,,,,,,,,,,,,,,,,,,,,,,,,,,,,,,,,,,,,,,,,
,,5,2.936,5,2.936,0,32,32,33,1,32,cake,microwave,,88668,001,2022-04-29_12h25.06.518,SPAMnetsValid,2021.1.4,MacIntel,29.41176471,,,,,,,,,,,,,,,,,,,,,,,,,,,,,,,,,,,,,,,,,,,,,,,,,,,,,,,,,,,,,,,,,,,,,,,,,,,,,,,,,,,,,,,,,
,,1,1.101,1,1.101,0,33,33,47,1,73,broom,chocolate,,88668,001,2022-04-29_12h25.06.518,SPAMnetsValid,2021.1.4,MacIntel,29.41176471,,,,,,,,,,,,,,,,,,,,,,,,,,,,,,,,,,,,,,,,,,,,,,,,,,,,,,,,,,,,,,,,,,,,,,,,,,,,,,,,,,,,,,,,,
,,5,2.486,5,2.486,0,34,34,80,1,61,strawberry,tomato,,88668,001,2022-04-29_12h25.06.518,SPAMnetsValid,2021.1.4,MacIntel,29.41176471,,,,,,,,,,,,,,,,,,,,,,,,,,,,,,,,,,,,,,,,,,,,,,,,,,,,,,,,,,,,,,,,,,,,,,,,,,,,,,,,,,,,,,,,,
,,5,1.921,5,1.921,0,35,35,93,1,63,cake,cookie,,88668,001,2022-04-29_12h25.06.518,SPAMnetsValid,2021.1.4,MacIntel,29.41176471,,,,,,,,,,,,,,,,,,,,,,,,,,,,,,,,,,,,,,,,,,,,,,,,,,,,,,,,,,,,,,,,,,,,,,,,,,,,,,,,,,,,,,,,,
,,4,1.636,4,1.636,0,36,36,16,1,14,broom,cookie,,88668,001,2022-04-29_12h25.06.518,SPAMnetsValid,2021.1.4,MacIntel,29.41176471,,,,,,,,,,,,,,,,,,,,,,,,,,,,,,,,,,,,,,,,,,,,,,,,,,,,,,,,,,,,,,,,,,,,,,,,,,,,,,,,,,,,,,,,,
,,5,7.721,5,7.721,0,37,37,20,1,39,melon,pretzel,,88668,001,2022-04-29_12h25.06.518,SPAMnetsValid,2021.1.4,MacIntel,29.41176471,,,,,,,,,,,,,,,,,,,,,,,,,,,,,,,,,,,,,,,,,,,,,,,,,,,,,,,,,,,,,,,,,,,,,,,,,,,,,,,,,,,,,,,,,
,,9,1.769,9,1.769,0,38,38,2,1,22,kitchen,strawberry,,88668,001,2022-04-29_12h25.06.518,SPAMnetsValid,2021.1.4,MacIntel,29.41176471,,,,,,,,,,,,,,,,,,,,,,,,,,,,,,,,,,,,,,,,,,,,,,,,,,,,,,,,,,,,,,,,,,,,,,,,,,,,,,,,,,,,,,,,,
,,9,1.636,9,1.636,0,39,39,83,1,6,garden,onion,,88668,001,2022-04-29_12h25.06.518,SPAMnetsValid,2021.1.4,MacIntel,29.41176471,,,,,,,,,,,,,,,,,,,,,,,,,,,,,,,,,,,,,,,,,,,,,,,,,,,,,,,,,,,,,,,,,,,,,,,,,,,,,,,,,,,,,,,,,
,,1,1.619,1,1.619,0,40,40,79,1,86,oven,rose,,88668,001,2022-04-29_12h25.06.518,SPAMnetsValid,2021.1.4,MacIntel,29.41176471,,,,,,,,,,,,,,,,,,,,,,,,,,,,,,,,,,,,,,,,,,,,,,,,,,,,,,,,,,,,,,,,,,,,,,,,,,,,,,,,,,,,,,,,,
,,1,1.835,1,1.835,0,41,41,0,1,53,garden,pretzel,,88668,001,2022-04-29_12h25.06.518,SPAMnetsValid,2021.1.4,MacIntel,29.41176471,,,,,,,,,,,,,,,,,,,,,,,,,,,,,,,,,,,,,,,,,,,,,,,,,,,,,,,,,,,,,,,,,,,,,,,,,,,,,,,,,,,,,,,,,
,,1,1.786,1,1.786,0,42,42,25,1,23,flower,microwave,,88668,001,2022-04-29_12h25.06.518,SPAMnetsValid,2021.1.4,MacIntel,29.41176471,,,,,,,,,,,,,,,,,,,,,,,,,,,,,,,,,,,,,,,,,,,,,,,,,,,,,,,,,,,,,,,,,,,,,,,,,,,,,,,,,,,,,,,,,
,,1,1.486,1,1.486,0,43,43,4,1,83,broom,carrot,,88668,001,2022-04-29_12h25.06.518,SPAMnetsValid,2021.1.4,MacIntel,29.41176471,,,,,,,,,,,,,,,,,,,,,,,,,,,,,,,,,,,,,,,,,,,,,,,,,,,,,,,,,,,,,,,,,,,,,,,,,,,,,,,,,,,,,,,,,
,,5,1.919,5,1.919,0,44,44,68,1,24,cookie,tomato,,88668,001,2022-04-29_12h25.06.518,SPAMnetsValid,2021.1.4,MacIntel,29.41176471,,,,,,,,,,,,,,,,,,,,,,,,,,,,,,,,,,,,,,,,,,,,,,,,,,,,,,,,,,,,,,,,,,,,,,,,,,,,,,,,,,,,,,,,,
,,5,1.354,5,1.354,0,45,45,13,1,26,tomato,yogurt,,88668,001,2022-04-29_12h25.06.518,SPAMnetsValid,2021.1.4,MacIntel,29.41176471,,,,,,,,,,,,,,,,,,,,,,,,,,,,,,,,,,,,,,,,,,,,,,,,,,,,,,,,,,,,,,,,,,,,,,,,,,,,,,,,,,,,,,,,,
,,1,2.652,1,2.652,0,46,46,7,1,34,melon,oven,,88668,001,2022-04-29_12h25.06.518,SPAMnetsValid,2021.1.4,MacIntel,29.41176471,,,,,,,,,,,,,,,,,,,,,,,,,,,,,,,,,,,,,,,,,,,,,,,,,,,,,,,,,,,,,,,,,,,,,,,,,,,,,,,,,,,,,,,,,
,,8,7.486,8,7.486,0,47,47,66,1,20,rose,tree,,88668,001,2022-04-29_12h25.06.518,SPAMnetsValid,2021.1.4,MacIntel,29.41176471,,,,,,,,,,,,,,,,,,,,,,,,,,,,,,,,,,,,,,,,,,,,,,,,,,,,,,,,,,,,,,,,,,,,,,,,,,,,,,,,,,,,,,,,,
,,9,1.689,9,1.689,0,48,48,67,1,54,chocolate,yogurt,,88668,001,2022-04-29_12h25.06.518,SPAMnetsValid,2021.1.4,MacIntel,29.41176471,,,,,,,,,,,,,,,,,,,,,,,,,,,,,,,,,,,,,,,,,,,,,,,,,,,,,,,,,,,,,,,,,,,,,,,,,,,,,,,,,,,,,,,,,
,,1,1.47,1,1.47,0,49,49,40,1,74,broom,pretzel,,88668,001,2022-04-29_12h25.06.518,SPAMnetsValid,2021.1.4,MacIntel,29.41176471,,,,,,,,,,,,,,,,,,,,,,,,,,,,,,,,,,,,,,,,,,,,,,,,,,,,,,,,,,,,,,,,,,,,,,,,,,,,,,,,,,,,,,,,,
,,1,1.702,1,1.702,0,50,50,55,1,1,rose,yogurt,,88668,001,2022-04-29_12h25.06.518,SPAMnetsValid,2021.1.4,MacIntel,29.41176471,,,,,,,,,,,,,,,,,,,,,,,,,,,,,,,,,,,,,,,,,,,,,,,,,,,,,,,,,,,,,,,,,,,,,,,,,,,,,,,,,,,,,,,,,
,,9,1.836,9,1.836,0,51,51,64,1,9,kitchen,refrigerator,,88668,001,2022-04-29_12h25.06.518,SPAMnetsValid,2021.1.4,MacIntel,29.41176471,,,,,,,,,,,,,,,,,,,,,,,,,,,,,,,,,,,,,,,,,,,,,,,,,,,,,,,,,,,,,,,,,,,,,,,,,,,,,,,,,,,,,,,,,
,,9,1.537,9,1.537,0,52,52,58,1,94,kitchen,microwave,,88668,001,2022-04-29_12h25.06.518,SPAMnetsValid,2021.1.4,MacIntel,29.41176471,,,,,,,,,,,,,,,,,,,,,,,,,,,,,,,,,,,,,,,,,,,,,,,,,,,,,,,,,,,,,,,,,,,,,,,,,,,,,,,,,,,,,,,,,
,,9,1.637,9,1.637,0,53,53,77,1,7,melon,tree,,88668,001,2022-04-29_12h25.06.518,SPAMnetsValid,2021.1.4,MacIntel,29.41176471,,,,,,,,,,,,,,,,,,,,,,,,,,,,,,,,,,,,,,,,,,,,,,,,,,,,,,,,,,,,,,,,,,,,,,,,,,,,,,,,,,,,,,,,,
,,1,1.617,1,1.617,0,54,54,86,1,51,onion,strawberry,,88668,001,2022-04-29_12h25.06.518,SPAMnetsValid,2021.1.4,MacIntel,29.41176471,,,,,,,,,,,,,,,,,,,,,,,,,,,,,,,,,,,,,,,,,,,,,,,,,,,,,,,,,,,,,,,,,,,,,,,,,,,,,,,,,,,,,,,,,
,,2,2.119,2,2.119,0,55,55,28,1,84,oven,tomato,,88668,001,2022-04-29_12h25.06.518,SPAMnetsValid,2021.1.4,MacIntel,29.41176471,,,,,,,,,,,,,,,,,,,,,,,,,,,,,,,,,,,,,,,,,,,,,,,,,,,,,,,,,,,,,,,,,,,,,,,,,,,,,,,,,,,,,,,,,
,,1,1.637,1,1.637,0,56,56,84,1,91,microwave,rose,,88668,001,2022-04-29_12h25.06.518,SPAMnetsValid,2021.1.4,MacIntel,29.41176471,,,,,,,,,,,,,,,,,,,,,,,,,,,,,,,,,,,,,,,,,,,,,,,,,,,,,,,,,,,,,,,,,,,,,,,,,,,,,,,,,,,,,,,,,
,,1,2.068,1,2.068,0,57,57,61,1,71,broom,rose,,88668,001,2022-04-29_12h25.06.518,SPAMnetsValid,2021.1.4,MacIntel,29.41176471,,,,,,,,,,,,,,,,,,,,,,,,,,,,,,,,,,,,,,,,,,,,,,,,,,,,,,,,,,,,,,,,,,,,,,,,,,,,,,,,,,,,,,,,,
,,4,2.255,4,2.255,0,58,58,9,1,75,cookie,onion,,88668,001,2022-04-29_12h25.06.518,SPAMnetsValid,2021.1.4,MacIntel,29.41176471,,,,,,,,,,,,,,,,,,,,,,,,,,,,,,,,,,,,,,,,,,,,,,,,,,,,,,,,,,,,,,,,,,,,,,,,,,,,,,,,,,,,,,,,,
,,1,1.937,1,1.937,0,59,59,26,1,35,flower,pretzel,,88668,001,2022-04-29_12h25.06.518,SPAMnetsValid,2021.1.4,MacIntel,29.41176471,,,,,,,,,,,,,,,,,,,,,,,,,,,,,,,,,,,,,,,,,,,,,,,,,,,,,,,,,,,,,,,,,,,,,,,,,,,,,,,,,,,,,,,,,
,,6,2.854,6,2.854,0,60,60,57,1,62,kitchen,rose,,88668,001,2022-04-29_12h25.06.518,SPAMnetsValid,2021.1.4,MacIntel,29.41176471,,,,,,,,,,,,,,,,,,,,,,,,,,,,,,,,,,,,,,,,,,,,,,,,,,,,,,,,,,,,,,,,,,,,,,,,,,,,,,,,,,,,,,,,,
,,5,2.453,5,2.453,0,61,61,74,1,70,chocolate,onion,,88668,001,2022-04-29_12h25.06.518,SPAMnetsValid,2021.1.4,MacIntel,29.41176471,,,,,,,,,,,,,,,,,,,,,,,,,,,,,,,,,,,,,,,,,,,,,,,,,,,,,,,,,,,,,,,,,,,,,,,,,,,,,,,,,,,,,,,,,
,,1,1.123,1,1.123,0,62,62,88,1,92,broom,flower,,88668,001,2022-04-29_12h25.06.518,SPAMnetsValid,2021.1.4,MacIntel,29.41176471,,,,,,,,,,,,,,,,,,,,,,,,,,,,,,,,,,,,,,,,,,,,,,,,,,,,,,,,,,,,,,,,,,,,,,,,,,,,,,,,,,,,,,,,,
,,9,2.02,9,2.02,0,63,63,53,1,192,microwave,microwave,CHECK,88668,001,2022-04-29_12h25.06.518,SPAMnetsValid,2021.1.4,MacIntel,29.41176471,,,,,,,,,,,,,,,,,,,,,,,,,,,,,,,,,,,,,,,,,,,,,,,,,,,,,,,,,,,,,,,,,,,,,,,,,,,,,,,,,,,,,,,,,
,,2,4.451,2,4.451,0,64,64,45,1,10,flower,onion,,88668,001,2022-04-29_12h25.06.518,SPAMnetsValid,2021.1.4,MacIntel,29.41176471,,,,,,,,,,,,,,,,,,,,,,,,,,,,,,,,,,,,,,,,,,,,,,,,,,,,,,,,,,,,,,,,,,,,,,,,,,,,,,,,,,,,,,,,,
,,1,1.635,1,1.635,0,65,65,81,1,60,cactus,onion,,88668,001,2022-04-29_12h25.06.518,SPAMnetsValid,2021.1.4,MacIntel,29.41176471,,,,,,,,,,,,,,,,,,,,,,,,,,,,,,,,,,,,,,,,,,,,,,,,,,,,,,,,,,,,,,,,,,,,,,,,,,,,,,,,,,,,,,,,,
,,1,2.153,1,2.153,0,66,66,39,1,15,onion,oven,,88668,001,2022-04-29_12h25.06.518,SPAMnetsValid,2021.1.4,MacIntel,29.41176471,,,,,,,,,,,,,,,,,,,,,,,,,,,,,,,,,,,,,,,,,,,,,,,,,,,,,,,,,,,,,,,,,,,,,,,,,,,,,,,,,,,,,,,,,
,,1,8.688,1,8.688,0,67,67,5,1,13,broom,yogurt,,88668,001,2022-04-29_12h25.06.518,SPAMnetsValid,2021.1.4,MacIntel,29.41176471,,,,,,,,,,,,,,,,,,,,,,,,,,,,,,,,,,,,,,,,,,,,,,,,,,,,,,,,,,,,,,,,,,,,,,,,,,,,,,,,,,,,,,,,,
,,1,1.789,1,1.789,0,68,68,22,1,16,chocolate,flower,,88668,001,2022-04-29_12h25.06.518,SPAMnetsValid,2021.1.4,MacIntel,29.41176471,,,,,,,,,,,,,,,,,,,,,,,,,,,,,,,,,,,,,,,,,,,,,,,,,,,,,,,,,,,,,,,,,,,,,,,,,,,,,,,,,,,,,,,,,
,,1,1.669,1,1.669,0,69,69,1,1,31,cactus,pretzel,,88668,001,2022-04-29_12h25.06.518,SPAMnetsValid,2021.1.4,MacIntel,29.41176471,,,,,,,,,,,,,,,,,,,,,,,,,,,,,,,,,,,,,,,,,,,,,,,,,,,,,,,,,,,,,,,,,,,,,,,,,,,,,,,,,,,,,,,,,
,,5,2.254,5,2.254,0,70,70,92,1,44,cookie,melon,,88668,001,2022-04-29_12h25.06.518,SPAMnetsValid,2021.1.4,MacIntel,29.41176471,,,,,,,,,,,,,,,,,,,,,,,,,,,,,,,,,,,,,,,,,,,,,,,,,,,,,,,,,,,,,,,,,,,,,,,,,,,,,,,,,,,,,,,,,
,,9,3.024,9,3.024,0,71,71,10,1,191,cake,cake,CHECK,88668,001,2022-04-29_12h25.06.518,SPAMnetsValid,2021.1.4,MacIntel,29.41176471,,,,,,,,,,,,,,,,,,,,,,,,,,,,,,,,,,,,,,,,,,,,,,,,,,,,,,,,,,,,,,,,,,,,,,,,,,,,,,,,,,,,,,,,,
,,1,1.653,1,1.653,0,72,72,70,1,5,oven,tree,,88668,001,2022-04-29_12h25.06.518,SPAMnetsValid,2021.1.4,MacIntel,29.41176471,,,,,,,,,,,,,,,,,,,,,,,,,,,,,,,,,,,,,,,,,,,,,,,,,,,,,,,,,,,,,,,,,,,,,,,,,,,,,,,,,,,,,,,,,
,,1,1.7,1,1.7,0,73,73,65,1,46,garden,yogurt,,88668,001,2022-04-29_12h25.06.518,SPAMnetsValid,2021.1.4,MacIntel,29.41176471,,,,,,,,,,,,,,,,,,,,,,,,,,,,,,,,,,,,,,,,,,,,,,,,,,,,,,,,,,,,,,,,,,,,,,,,,,,,,,,,,,,,,,,,,
,,9,1.968,9,1.968,0,74,74,82,1,93,kitchen,oven,,88668,001,2022-04-29_12h25.06.518,SPAMnetsValid,2021.1.4,MacIntel,29.41176471,,,,,,,,,,,,,,,,,,,,,,,,,,,,,,,,,,,,,,,,,,,,,,,,,,,,,,,,,,,,,,,,,,,,,,,,,,,,,,,,,,,,,,,,,
,,1,1.621,1,1.621,0,75,75,12,1,67,flower,yogurt,,88668,001,2022-04-29_12h25.06.518,SPAMnetsValid,2021.1.4,MacIntel,29.41176471,,,,,,,,,,,,,,,,,,,,,,,,,,,,,,,,,,,,,,,,,,,,,,,,,,,,,,,,,,,,,,,,,,,,,,,,,,,,,,,,,,,,,,,,,
,,1,1.57,1,1.57,0,76,76,73,1,50,carrot,rose,,88668,001,2022-04-29_12h25.06.518,SPAMnetsValid,2021.1.4,MacIntel,29.41176471,,,,,,,,,,,,,,,,,,,,,,,,,,,,,,,,,,,,,,,,,,,,,,,,,,,,,,,,,,,,,,,,,,,,,,,,,,,,,,,,,,,,,,,,,
,,1,1.984,1,1.984,0,77,77,37,1,58,garden,oven,,88668,001,2022-04-29_12h25.06.518,SPAMnetsValid,2021.1.4,MacIntel,29.41176471,,,,,,,,,,,,,,,,,,,,,,,,,,,,,,,,,,,,,,,,,,,,,,,,,,,,,,,,,,,,,,,,,,,,,,,,,,,,,,,,,,,,,,,,,
,,9,6.386,9,6.386,0,78,78,96,1,82,cake,kitchen,,88668,001,2022-04-29_12h25.06.518,SPAMnetsValid,2021.1.4,MacIntel,29.41176471,,,,,,,,,,,,,,,,,,,,,,,,,,,,,,,,,,,,,,,,,,,,,,,,,,,,,,,,,,,,,,,,,,,,,,,,,,,,,,,,,,,,,,,,,
,,1,1.736,1,1.736,0,79,79,27,1,72,broom,onion,,88668,001,2022-04-29_12h25.06.518,SPAMnetsValid,2021.1.4,MacIntel,29.41176471,,,,,,,,,,,,,,,,,,,,,,,,,,,,,,,,,,,,,,,,,,,,,,,,,,,,,,,,,,,,,,,,,,,,,,,,,,,,,,,,,,,,,,,,,
,,1,1.456,1,1.456,0,80,80,29,1,42,garden,kitchen,,88668,001,2022-04-29_12h25.06.518,SPAMnetsValid,2021.1.4,MacIntel,29.41176471,,,,,,,,,,,,,,,,,,,,,,,,,,,,,,,,,,,,,,,,,,,,,,,,,,,,,,,,,,,,,,,,,,,,,,,,,,,,,,,,,,,,,,,,,
,,1,1.268,1,1.268,0,81,81,85,1,90,cactus,cake,,88668,001,2022-04-29_12h25.06.518,SPAMnetsValid,2021.1.4,MacIntel,29.41176471,,,,,,,,,,,,,,,,,,,,,,,,,,,,,,,,,,,,,,,,,,,,,,,,,,,,,,,,,,,,,,,,,,,,,,,,,,,,,,,,,,,,,,,,,
,,5,2.068,5,2.068,0,82,82,95,1,52,carrot,tomato,,88668,001,2022-04-29_12h25.06.518,SPAMnetsValid,2021.1.4,MacIntel,29.41176471,,,,,,,,,,,,,,,,,,,,,,,,,,,,,,,,,,,,,,,,,,,,,,,,,,,,,,,,,,,,,,,,,,,,,,,,,,,,,,,,,,,,,,,,,
,,9,1.702,9,1.702,0,83,83,91,1,2,kitchen,onion,,88668,001,2022-04-29_12h25.06.518,SPAMnetsValid,2021.1.4,MacIntel,29.41176471,,,,,,,,,,,,,,,,,,,,,,,,,,,,,,,,,,,,,,,,,,,,,,,,,,,,,,,,,,,,,,,,,,,,,,,,,,,,,,,,,,,,,,,,,
,,1,1.338,1,1.338,0,84,84,59,1,8,broom,melon,,88668,001,2022-04-29_12h25.06.518,SPAMnetsValid,2021.1.4,MacIntel,29.41176471,,,,,,,,,,,,,,,,,,,,,,,,,,,,,,,,,,,,,,,,,,,,,,,,,,,,,,,,,,,,,,,,,,,,,,,,,,,,,,,,,,,,,,,,,
,,9,2.852,9,2.852,0,85,85,75,1,69,carrot,refrigerator,,88668,001,2022-04-29_12h25.06.518,SPAMnetsValid,2021.1.4,MacIntel,29.41176471,,,,,,,,,,,,,,,,,,,,,,,,,,,,,,,,,,,,,,,,,,,,,,,,,,,,,,,,,,,,,,,,,,,,,,,,,,,,,,,,,,,,,,,,,
,,9,1.672,9,1.672,0,86,86,90,1,95,broom,refrigerator,,88668,001,2022-04-29_12h25.06.518,SPAMnetsValid,2021.1.4,MacIntel,29.41176471,,,,,,,,,,,,,,,,,,,,,,,,,,,,,,,,,,,,,,,,,,,,,,,,,,,,,,,,,,,,,,,,,,,,,,,,,,,,,,,,,,,,,,,,,
,,1,2.101,1,2.101,0,87,87,31,1,33,oven,yogurt,,88668,001,2022-04-29_12h25.06.518,SPAMnetsValid,2021.1.4,MacIntel,29.41176471,,,,,,,,,,,,,,,,,,,,,,,,,,,,,,,,,,,,,,,,,,,,,,,,,,,,,,,,,,,,,,,,,,,,,,,,,,,,,,,,,,,,,,,,,
,,1,1.319,1,1.319,0,88,88,23,1,65,broom,garden,,88668,001,2022-04-29_12h25.06.518,SPAMnetsValid,2021.1.4,MacIntel,29.41176471,,,,,,,,,,,,,,,,,,,,,,,,,,,,,,,,,,,,,,,,,,,,,,,,,,,,,,,,,,,,,,,,,,,,,,,,,,,,,,,,,,,,,,,,,
,,1,1.485,1,1.485,0,89,89,3,1,49,flower,strawberry,,88668,001,2022-04-29_12h25.06.518,SPAMnetsValid,2021.1.4,MacIntel,29.41176471,,,,,,,,,,,,,,,,,,,,,,,,,,,,,,,,,,,,,,,,,,,,,,,,,,,,,,,,,,,,,,,,,,,,,,,,,,,,,,,,,,,,,,,,,
,,5,1.653,5,1.653,0,90,90,44,1,25,carrot,onion,,88668,001,2022-04-29_12h25.06.518,SPAMnetsValid,2021.1.4,MacIntel,29.41176471,,,,,,,,,,,,,,,,,,,,,,,,,,,,,,,,,,,,,,,,,,,,,,,,,,,,,,,,,,,,,,,,,,,,,,,,,,,,,,,,,,,,,,,,,
,,1,1.534,1,1.534,0,91,91,15,1,48,flower,oven,,88668,001,2022-04-29_12h25.06.518,SPAMnetsValid,2021.1.4,MacIntel,29.41176471,,,,,,,,,,,,,,,,,,,,,,,,,,,,,,,,,,,,,,,,,,,,,,,,,,,,,,,,,,,,,,,,,,,,,,,,,,,,,,,,,,,,,,,,,
,,1,1.354,1,1.354,0,92,92,94,1,68,flower,tomato,,88668,001,2022-04-29_12h25.06.518,SPAMnetsValid,2021.1.4,MacIntel,29.41176471,,,,,,,,,,,,,,,,,,,,,,,,,,,,,,,,,,,,,,,,,,,,,,,,,,,,,,,,,,,,,,,,,,,,,,,,,,,,,,,,,,,,,,,,,
,,1,1.419,1,1.419,0,93,93,46,1,41,broom,cactus,,88668,001,2022-04-29_12h25.06.518,SPAMnetsValid,2021.1.4,MacIntel,29.41176471,,,,,,,,,,,,,,,,,,,,,,,,,,,,,,,,,,,,,,,,,,,,,,,,,,,,,,,,,,,,,,,,,,,,,,,,,,,,,,,,,,,,,,,,,
,,5,1.67,5,1.67,0,94,94,6,1,87,carrot,yogurt,,88668,001,2022-04-29_12h25.06.518,SPAMnetsValid,2021.1.4,MacIntel,29.41176471,,,,,,,,,,,,,,,,,,,,,,,,,,,,,,,,,,,,,,,,,,,,,,,,,,,,,,,,,,,,,,,,,,,,,,,,,,,,,,,,,,,,,,,,,
,,1,1.52,1,1.52,0,95,95,43,1,11,refrigerator,tree,,88668,001,2022-04-29_12h25.06.518,SPAMnetsValid,2021.1.4,MacIntel,29.41176471,,,,,,,,,,,,,,,,,,,,,,,,,,,,,,,,,,,,,,,,,,,,,,,,,,,,,,,,,,,,,,,,,,,,,,,,,,,,,,,,,,,,,,,,,
,,5,14.552,5,14.552,0,96,96,54,1,28,cake,melon,,88668,001,2022-04-29_12h25.06.518,SPAMnetsValid,2021.1.4,MacIntel,29.41176471,,,,,,,,,,,,,,,,,,,,,,,,,,,,,,,,,,,,,,,,,,,,,,,,,,,,,,,,,,,,,,,,,,,,,,,,,,,,,,,,,,,,,,,,,
,,,,,,,,,,,,,,,88668,001,2022-04-29_12h25.06.518,SPAMnetsValid,2021.1.4,MacIntel,29.41176471,0,0,0,0,1,,,,,,,,,,,,,,,,,,,,,,,,,,,,,,,,,,,,,,,,,,,,,,,,,,,,,,,,,,,,,,,,,,,,,,,,,,,,,,,,,,,,
,,,,,,,,,,,,,,,88668,001,2022-04-29_12h25.06.518,SPAMnetsValid,2021.1.4,MacIntel,29.41176471,,,,,,0,0,0,0,1,1,0,,,,,,,,,,,,,,,,,,,,,,,,,,,,,,,,,,,,,,,,,,,,,,,,,,,,,,,,,,,,,,,,,,,,,,,,,,,,,
,,,,1,18.742,,,,,,149,broom,tomato,,88668,001,2022-04-29_12h25.06.518,SPAMnetsValid,2021.1.4,MacIntel,29.41176471,,,,,,,,,,,,,1,18.742,0,0,0,20,1,,,,,,,,,,,,,,,,,,,,,,,,,,,,,,,,,,,,,,,,,,,,,,,,,,,,,,,,,,,,,,,,,,,,,,
,,,,1,3.385,,,,,,112,cake,carrot,,88668,001,2022-04-29_12h25.06.518,SPAMnetsValid,2021.1.4,MacIntel,29.41176471,,,,,,,,,,,,,1,3.385,0,1,1,39,1,,,,,,,,,,,,,,,,,,,,,,,,,,,,,,,,,,,,,,,,,,,,,,,,,,,,,,,,,,,,,,,,,,,,,,
,,,,1,1.553,,,,,,144,cake,garden,,88668,001,2022-04-29_12h25.06.518,SPAMnetsValid,2021.1.4,MacIntel,29.41176471,,,,,,,,,,,,,1,1.553,0,2,2,58,1,,,,,,,,,,,,,,,,,,,,,,,,,,,,,,,,,,,,,,,,,,,,,,,,,,,,,,,,,,,,,,,,,,,,,,
,,,,9,1.501,,,,,,122,flower,garden,,88668,001,2022-04-29_12h25.06.518,SPAMnetsValid,2021.1.4,MacIntel,29.41176471,,,,,,,,,,,,,9,1.501,0,3,3,60,1,,,,,,,,,,,,,,,,,,,,,,,,,,,,,,,,,,,,,,,,,,,,,,,,,,,,,,,,,,,,,,,,,,,,,,
,,,,1,1.436,,,,,,165,onion,rose,,88668,001,2022-04-29_12h25.06.518,SPAMnetsValid,2021.1.4,MacIntel,29.41176471,,,,,,,,,,,,,1,1.436,0,4,4,40,1,,,,,,,,,,,,,,,,,,,,,,,,,,,,,,,,,,,,,,,,,,,,,,,,,,,,,,,,,,,,,,,,,,,,,,
,,,,1,4.853,,,,,,145,cactus,yogurt,,88668,001,2022-04-29_12h25.06.518,SPAMnetsValid,2021.1.4,MacIntel,29.41176471,,,,,,,,,,,,,1,4.853,0,5,5,15,1,,,,,,,,,,,,,,,,,,,,,,,,,,,,,,,,,,,,,,,,,,,,,,,,,,,,,,,,,,,,,,,,,,,,,,
,,,,6,1.968,,,,,,152,cactus,strawberry,,88668,001,2022-04-29_12h25.06.518,SPAMnetsValid,2021.1.4,MacIntel,29.41176471,,,,,,,,,,,,,6,1.968,0,6,6,49,1,,,,,,,,,,,,,,,,,,,,,,,,,,,,,,,,,,,,,,,,,,,,,,,,,,,,,,,,,,,,,,,,,,,,,,
,,,,9,1.354,,,,,,100,garden,tomato,,88668,001,2022-04-29_12h25.06.518,SPAMnetsValid,2021.1.4,MacIntel,29.41176471,,,,,,,,,,,,,9,1.354,0,7,7,83,1,,,,,,,,,,,,,,,,,,,,,,,,,,,,,,,,,,,,,,,,,,,,,,,,,,,,,,,,,,,,,,,,,,,,,,
,,,,1,1.854,,,,,,190,microwave,strawberry,,88668,001,2022-04-29_12h25.06.518,SPAMnetsValid,2021.1.4,MacIntel,29.41176471,,,,,,,,,,,,,1,1.854,0,8,8,90,1,,,,,,,,,,,,,,,,,,,,,,,,,,,,,,,,,,,,,,,,,,,,,,,,,,,,,,,,,,,,,,,,,,,,,,
,,,,7,13.369,,,,,,185,cactus,rose,,88668,001,2022-04-29_12h25.06.518,SPAMnetsValid,2021.1.4,MacIntel,29.41176471,,,,,,,,,,,,,7,13.369,0,9,9,43,1,,,,,,,,,,,,,,,,,,,,,,,,,,,,,,,,,,,,,,,,,,,,,,,,,,,,,,,,,,,,,,,,,,,,,,
,,,,9,1.652,,,,,,158,cookie,oven,,88668,001,2022-04-29_12h25.06.518,SPAMnetsValid,2021.1.4,MacIntel,29.41176471,,,,,,,,,,,,,9,1.652,0,10,10,27,1,,,,,,,,,,,,,,,,,,,,,,,,,,,,,,,,,,,,,,,,,,,,,,,,,,,,,,,,,,,,,,,,,,,,,,
,,,,1,1.522,,,,,,104,garden,microwave,,88668,001,2022-04-29_12h25.06.518,SPAMnetsValid,2021.1.4,MacIntel,29.41176471,,,,,,,,,,,,,1,1.522,0,11,11,81,1,,,,,,,,,,,,,,,,,,,,,,,,,,,,,,,,,,,,,,,,,,,,,,,,,,,,,,,,,,,,,,,,,,,,,,
,,,,1,1.453,,,,,,98,pretzel,strawberry,,88668,001,2022-04-29_12h25.06.518,SPAMnetsValid,2021.1.4,MacIntel,29.41176471,,,,,,,,,,,,,1,1.453,0,12,12,82,1,,,,,,,,,,,,,,,,,,,,,,,,,,,,,,,,,,,,,,,,,,,,,,,,,,,,,,,,,,,,,,,,,,,,,,
,,,,6,1.986,,,,,,134,carrot,flower,,88668,001,2022-04-29_12h25.06.518,SPAMnetsValid,2021.1.4,MacIntel,29.41176471,,,,,,,,,,,,,6,1.986,0,13,13,93,1,,,,,,,,,,,,,,,,,,,,,,,,,,,,,,,,,,,,,,,,,,,,,,,,,,,,,,,,,,,,,,,,,,,,,,
,,,,1,1.802,,,,,,176,cactus,tomato,,88668,001,2022-04-29_12h25.06.518,SPAMnetsValid,2021.1.4,MacIntel,29.41176471,,,,,,,,,,,,,1,1.802,0,14,14,9,1,,,,,,,,,,,,,,,,,,,,,,,,,,,,,,,,,,,,,,,,,,,,,,,,,,,,,,,,,,,,,,,,,,,,,,
,,,,6,1.904,,,,,,153,carrot,pretzel,,88668,001,2022-04-29_12h25.06.518,SPAMnetsValid,2021.1.4,MacIntel,29.41176471,,,,,,,,,,,,,6,1.904,0,15,15,34,1,,,,,,,,,,,,,,,,,,,,,,,,,,,,,,,,,,,,,,,,,,,,,,,,,,,,,,,,,,,,,,,,,,,,,,
,,,,4,2.037,,,,,,130,microwave,yogurt,,88668,001,2022-04-29_12h25.06.518,SPAMnetsValid,2021.1.4,MacIntel,29.41176471,,,,,,,,,,,,,4,2.037,0,16,16,84,1,,,,,,,,,,,,,,,,,,,,,,,,,,,,,,,,,,,,,,,,,,,,,,,,,,,,,,,,,,,,,,,,,,,,,,
,,,,9,1.569,,,,,,177,chocolate,strawberry,,88668,001,2022-04-29_12h25.06.518,SPAMnetsValid,2021.1.4,MacIntel,29.41176471,,,,,,,,,,,,,9,1.569,0,17,17,53,1,,,,,,,,,,,,,,,,,,,,,,,,,,,,,,,,,,,,,,,,,,,,,,,,,,,,,,,,,,,,,,,,,,,,,,
,,,,1,1.602,,,,,,96,oven,strawberry,,88668,001,2022-04-29_12h25.06.518,SPAMnetsValid,2021.1.4,MacIntel,29.41176471,,,,,,,,,,,,,1,1.602,0,18,18,67,1,,,,,,,,,,,,,,,,,,,,,,,,,,,,,,,,,,,,,,,,,,,,,,,,,,,,,,,,,,,,,,,,,,,,,,
,,,,5,2.636,,,,,,155,carrot,cookie,,88668,001,2022-04-29_12h25.06.518,SPAMnetsValid,2021.1.4,MacIntel,29.41176471,,,,,,,,,,,,,5,2.636,0,19,19,38,1,,,,,,,,,,,,,,,,,,,,,,,,,,,,,,,,,,,,,,,,,,,,,,,,,,,,,,,,,,,,,,,,,,,,,,
,,,,1,1.385,,,,,,123,cookie,tree,,88668,001,2022-04-29_12h25.06.518,SPAMnetsValid,2021.1.4,MacIntel,29.41176471,,,,,,,,,,,,,1,1.385,0,20,20,46,1,,,,,,,,,,,,,,,,,,,,,,,,,,,,,,,,,,,,,,,,,,,,,,,,,,,,,,,,,,,,,,,,,,,,,,
,,,,9,1.568,,,,,,140,cookie,refrigerator,,88668,001,2022-04-29_12h25.06.518,SPAMnetsValid,2021.1.4,MacIntel,29.41176471,,,,,,,,,,,,,9,1.568,0,21,21,89,1,,,,,,,,,,,,,,,,,,,,,,,,,,,,,,,,,,,,,,,,,,,,,,,,,,,,,,,,,,,,,,,,,,,,,,
,,,,9,2.003,,,,,,193,melon,melon,CHECK,88668,001,2022-04-29_12h25.06.518,SPAMnetsValid,2021.1.4,MacIntel,29.41176471,,,,,,,,,,,,,9,2.003,0,22,22,86,1,,,,,,,,,,,,,,,,,,,,,,,,,,,,,,,,,,,,,,,,,,,,,,,,,,,,,,,,,,,,,,,,,,,,,,
,,,,9,1.834,,,,,,184,oven,pretzel,,88668,001,2022-04-29_12h25.06.518,SPAMnetsValid,2021.1.4,MacIntel,29.41176471,,,,,,,,,,,,,9,1.834,0,23,23,42,1,,,,,,,,,,,,,,,,,,,,,,,,,,,,,,,,,,,,,,,,,,,,,,,,,,,,,,,,,,,,,,,,,,,,,,
,,,,1,1.567,,,,,,133,cake,flower,,88668,001,2022-04-29_12h25.06.518,SPAMnetsValid,2021.1.4,MacIntel,29.41176471,,,,,,,,,,,,,1,1.567,0,24,24,94,1,,,,,,,,,,,,,,,,,,,,,,,,,,,,,,,,,,,,,,,,,,,,,,,,,,,,,,,,,,,,,,,,,,,,,,
,,,,9,2.386,,,,,,135,carrot,oven,,88668,001,2022-04-29_12h25.06.518,SPAMnetsValid,2021.1.4,MacIntel,29.41176471,,,,,,,,,,,,,9,2.386,0,25,25,73,1,,,,,,,,,,,,,,,,,,,,,,,,,,,,,,,,,,,,,,,,,,,,,,,,,,,,,,,,,,,,,,,,,,,,,,
,,,,1,1.953,,,,,,164,cookie,garden,,88668,001,2022-04-29_12h25.06.518,SPAMnetsValid,2021.1.4,MacIntel,29.41176471,,,,,,,,,,,,,1,1.953,0,26,26,59,1,,,,,,,,,,,,,,,,,,,,,,,,,,,,,,,,,,,,,,,,,,,,,,,,,,,,,,,,,,,,,,,,,,,,,,
,,,,9,2.752,,,,,,172,kitchen,melon,,88668,001,2022-04-29_12h25.06.518,SPAMnetsValid,2021.1.4,MacIntel,29.41176471,,,,,,,,,,,,,9,2.752,0,27,27,77,1,,,,,,,,,,,,,,,,,,,,,,,,,,,,,,,,,,,,,,,,,,,,,,,,,,,,,,,,,,,,,,,,,,,,,,
,,,,9,1.802,,,,,,138,flower,rose,,88668,001,2022-04-29_12h25.06.518,SPAMnetsValid,2021.1.4,MacIntel,29.41176471,,,,,,,,,,,,,9,1.802,0,28,28,61,1,,,,,,,,,,,,,,,,,,,,,,,,,,,,,,,,,,,,,,,,,,,,,,,,,,,,,,,,,,,,,,,,,,,,,,
,,,,2,2.254,,,,,,125,carrot,tree,,88668,001,2022-04-29_12h25.06.518,SPAMnetsValid,2021.1.4,MacIntel,29.41176471,,,,,,,,,,,,,2,2.254,0,29,29,30,1,,,,,,,,,,,,,,,,,,,,,,,,,,,,,,,,,,,,,,,,,,,,,,,,,,,,,,,,,,,,,,,,,,,,,,
,,,,9,2.269,,,,,,186,kitchen,yogurt,,88668,001,2022-04-29_12h25.06.518,SPAMnetsValid,2021.1.4,MacIntel,29.41176471,,,,,,,,,,,,,9,2.269,0,30,30,48,1,,,,,,,,,,,,,,,,,,,,,,,,,,,,,,,,,,,,,,,,,,,,,,,,,,,,,,,,,,,,,,,,,,,,,,
,,,,1,1.653,,,,,,166,cake,yogurt,,88668,001,2022-04-29_12h25.06.518,SPAMnetsValid,2021.1.4,MacIntel,29.41176471,,,,,,,,,,,,,1,1.653,0,31,31,91,1,,,,,,,,,,,,,,,,,,,,,,,,,,,,,,,,,,,,,,,,,,,,,,,,,,,,,,,,,,,,,,,,,,,,,,
,,,,9,1.688,,,,,,116,cake,chocolate,,88668,001,2022-04-29_12h25.06.518,SPAMnetsValid,2021.1.4,MacIntel,29.41176471,,,,,,,,,,,,,9,1.688,0,32,32,44,1,,,,,,,,,,,,,,,,,,,,,,,,,,,,,,,,,,,,,,,,,,,,,,,,,,,,,,,,,,,,,,,,,,,,,,
,,,,1,1.602,,,,,,157,refrigerator,rose,,88668,001,2022-04-29_12h25.06.518,SPAMnetsValid,2021.1.4,MacIntel,29.41176471,,,,,,,,,,,,,1,1.602,0,33,33,64,1,,,,,,,,,,,,,,,,,,,,,,,,,,,,,,,,,,,,,,,,,,,,,,,,,,,,,,,,,,,,,,,,,,,,,,
,,,,2,2.435,,,,,,151,microwave,onion,,88668,001,2022-04-29_12h25.06.518,SPAMnetsValid,2021.1.4,MacIntel,29.41176471,,,,,,,,,,,,,2,2.435,0,34,34,6,1,,,,,,,,,,,,,,,,,,,,,,,,,,,,,,,,,,,,,,,,,,,,,,,,,,,,,,,,,,,,,,,,,,,,,,
,,,,1,1.901,,,,,,119,strawberry,tree,,88668,001,2022-04-29_12h25.06.518,SPAMnetsValid,2021.1.4,MacIntel,29.41176471,,,,,,,,,,,,,1,1.901,0,35,35,18,1,,,,,,,,,,,,,,,,,,,,,,,,,,,,,,,,,,,,,,,,,,,,,,,,,,,,,,,,,,,,,,,,,,,,,,
,,,,5,2.835,,,,,,103,pretzel,tomato,,88668,001,2022-04-29_12h25.06.518,SPAMnetsValid,2021.1.4,MacIntel,29.41176471,,,,,,,,,,,,,5,2.835,0,36,36,79,1,,,,,,,,,,,,,,,,,,,,,,,,,,,,,,,,,,,,,,,,,,,,,,,,,,,,,,,,,,,,,,,,,,,,,,
,,,,5,1.438,,,,,,139,carrot,strawberry,,88668,001,2022-04-29_12h25.06.518,SPAMnetsValid,2021.1.4,MacIntel,29.41176471,,,,,,,,,,,,,5,1.438,0,37,37,37,1,,,,,,,,,,,,,,,,,,,,,,,,,,,,,,,,,,,,,,,,,,,,,,,,,,,,,,,,,,,,,,,,,,,,,,
,,,,9,2.569,,,,,,120,microwave,oven,,88668,001,2022-04-29_12h25.06.518,SPAMnetsValid,2021.1.4,MacIntel,29.41176471,,,,,,,,,,,,,9,2.569,0,38,38,14,1,,,,,,,,,,,,,,,,,,,,,,,,,,,,,,,,,,,,,,,,,,,,,,,,,,,,,,,,,,,,,,,,,,,,,,
,,,,7,2.671,,,,,,179,broom,oven,,88668,001,2022-04-29_12h25.06.518,SPAMnetsValid,2021.1.4,MacIntel,29.41176471,,,,,,,,,,,,,7,2.671,0,39,39,45,1,,,,,,,,,,,,,,,,,,,,,,,,,,,,,,,,,,,,,,,,,,,,,,,,,,,,,,,,,,,,,,,,,,,,,,
,,,,9,6.423,,,,,,170,cookie,microwave,,88668,001,2022-04-29_12h25.06.518,SPAMnetsValid,2021.1.4,MacIntel,29.41176471,,,,,,,,,,,,,9,6.423,0,40,40,92,1,,,,,,,,,,,,,,,,,,,,,,,,,,,,,,,,,,,,,,,,,,,,,,,,,,,,,,,,,,,,,,,,,,,,,,
,,,,9,1.921,,,,,,131,cactus,garden,,88668,001,2022-04-29_12h25.06.518,SPAMnetsValid,2021.1.4,MacIntel,29.41176471,,,,,,,,,,,,,9,1.921,0,41,41,33,1,,,,,,,,,,,,,,,,,,,,,,,,,,,,,,,,,,,,,,,,,,,,,,,,,,,,,,,,,,,,,,,,,,,,,,
,,,,1,5.637,,,,,,174,cake,pretzel,,88668,001,2022-04-29_12h25.06.518,SPAMnetsValid,2021.1.4,MacIntel,29.41176471,,,,,,,,,,,,,1,5.637,0,42,42,2,1,,,,,,,,,,,,,,,,,,,,,,,,,,,,,,,,,,,,,,,,,,,,,,,,,,,,,,,,,,,,,,,,,,,,,,
,,,,1,2.236,,,,,,108,carrot,chocolate,,88668,001,2022-04-29_12h25.06.518,SPAMnetsValid,2021.1.4,MacIntel,29.41176471,,,,,,,,,,,,,1,2.236,0,43,43,5,1,,,,,,,,,,,,,,,,,,,,,,,,,,,,,,,,,,,,,,,,,,,,,,,,,,,,,,,,,,,,,,,,,,,,,,
,,,,1,5.638,,,,,,105,cactus,oven,,88668,001,2022-04-29_12h25.06.518,SPAMnetsValid,2021.1.4,MacIntel,29.41176471,,,,,,,,,,,,,1,5.638,0,44,44,13,1,,,,,,,,,,,,,,,,,,,,,,,,,,,,,,,,,,,,,,,,,,,,,,,,,,,,,,,,,,,,,,,,,,,,,,
,,,,1,1.852,,,,,,114,cookie,strawberry,,88668,001,2022-04-29_12h25.06.518,SPAMnetsValid,2021.1.4,MacIntel,29.41176471,,,,,,,,,,,,,1,1.852,0,45,45,87,1,,,,,,,,,,,,,,,,,,,,,,,,,,,,,,,,,,,,,,,,,,,,,,,,,,,,,,,,,,,,,,,,,,,,,,
,,,,9,1.752,,,,,,189,onion,tree,,88668,001,2022-04-29_12h25.06.518,SPAMnetsValid,2021.1.4,MacIntel,29.41176471,,,,,,,,,,,,,9,1.752,0,46,46,62,1,,,,,,,,,,,,,,,,,,,,,,,,,,,,,,,,,,,,,,,,,,,,,,,,,,,,,,,,,,,,,,,,,,,,,,
,,,,2,1.819,,,,,,183,cake,rose,,88668,001,2022-04-29_12h25.06.518,SPAMnetsValid,2021.1.4,MacIntel,29.41176471,,,,,,,,,,,,,2,1.819,0,47,47,19,1,,,,,,,,,,,,,,,,,,,,,,,,,,,,,,,,,,,,,,,,,,,,,,,,,,,,,,,,,,,,,,,,,,,,,,
,,,,9,4.319,,,,,,161,kitchen,pretzel,,88668,001,2022-04-29_12h25.06.518,SPAMnetsValid,2021.1.4,MacIntel,29.41176471,,,,,,,,,,,,,9,4.319,0,48,48,36,1,,,,,,,,,,,,,,,,,,,,,,,,,,,,,,,,,,,,,,,,,,,,,,,,,,,,,,,,,,,,,,,,,,,,,,
,,,,1,1.721,,,,,,143,pretzel,rose,,88668,001,2022-04-29_12h25.06.518,SPAMnetsValid,2021.1.4,MacIntel,29.41176471,,,,,,,,,,,,,1,1.721,0,49,49,55,1,,,,,,,,,,,,,,,,,,,,,,,,,,,,,,,,,,,,,,,,,,,,,,,,,,,,,,,,,,,,,,,,,,,,,,
,,,,4,3.902,,,,,,178,cactus,carrot,,88668,001,2022-04-29_12h25.06.518,SPAMnetsValid,2021.1.4,MacIntel,29.41176471,,,,,,,,,,,,,4,3.902,0,50,50,75,1,,,,,,,,,,,,,,,,,,,,,,,,,,,,,,,,,,,,,,,,,,,,,,,,,,,,,,,,,,,,,,,,,,,,,,
,,,,9,1.984,,,,,,110,chocolate,cookie,,88668,001,2022-04-29_12h25.06.518,SPAMnetsValid,2021.1.4,MacIntel,29.41176471,,,,,,,,,,,,,9,1.984,0,51,51,52,1,,,,,,,,,,,,,,,,,,,,,,,,,,,,,,,,,,,,,,,,,,,,,,,,,,,,,,,,,,,,,,,,,,,,,,
,,,,5,3.272,,,,,,141,melon,tomato,,88668,001,2022-04-29_12h25.06.518,SPAMnetsValid,2021.1.4,MacIntel,29.41176471,,,,,,,,,,,,,5,3.272,0,52,52,70,1,,,,,,,,,,,,,,,,,,,,,,,,,,,,,,,,,,,,,,,,,,,,,,,,,,,,,,,,,,,,,,,,,,,,,,
,,,,9,1.736,,,,,,154,strawberry,yogurt,,88668,001,2022-04-29_12h25.06.518,SPAMnetsValid,2021.1.4,MacIntel,29.41176471,,,,,,,,,,,,,9,1.736,0,53,53,28,1,,,,,,,,,,,,,,,,,,,,,,,,,,,,,,,,,,,,,,,,,,,,,,,,,,,,,,,,,,,,,,,,,,,,,,
,,,,9,2.354,,,,,,173,kitchen,tomato,,88668,001,2022-04-29_12h25.06.518,SPAMnetsValid,2021.1.4,MacIntel,29.41176471,,,,,,,,,,,,,9,2.354,0,54,54,1,1,,,,,,,,,,,,,,,,,,,,,,,,,,,,,,,,,,,,,,,,,,,,,,,,,,,,,,,,,,,,,,,,,,,,,,
,,,,9,1.355,,,,,,163,melon,refrigerator,,88668,001,2022-04-29_12h25.06.518,SPAMnetsValid,2021.1.4,MacIntel,29.41176471,,,,,,,,,,,,,9,1.355,0,55,55,29,1,,,,,,,,,,,,,,,,,,,,,,,,,,,,,,,,,,,,,,,,,,,,,,,,,,,,,,,,,,,,,,,,,,,,,,
,,,,1,1.754,,,,,,126,kitchen,tree,,88668,001,2022-04-29_12h25.06.518,SPAMnetsValid,2021.1.4,MacIntel,29.41176471,,,,,,,,,,,,,1,1.754,0,56,56,50,1,,,,,,,,,,,,,,,,,,,,,,,,,,,,,,,,,,,,,,,,,,,,,,,,,,,,,,,,,,,,,,,,,,,,,,
,,,,4,3.535,,,,,,148,flower,melon,,88668,001,2022-04-29_12h25.06.518,SPAMnetsValid,2021.1.4,MacIntel,29.41176471,,,,,,,,,,,,,4,3.535,0,57,57,23,1,,,,,,,,,,,,,,,,,,,,,,,,,,,,,,,,,,,,,,,,,,,,,,,,,,,,,,,,,,,,,,,,,,,,,,
,,,,9,2.553,,,,,,162,microwave,tomato,,88668,001,2022-04-29_12h25.06.518,SPAMnetsValid,2021.1.4,MacIntel,29.41176471,,,,,,,,,,,,,9,2.553,0,58,58,12,1,,,,,,,,,,,,,,,,,,,,,,,,,,,,,,,,,,,,,,,,,,,,,,,,,,,,,,,,,,,,,,,,,,,,,,
,,,,1,1.404,,,,,,187,cactus,microwave,,88668,001,2022-04-29_12h25.06.518,SPAMnetsValid,2021.1.4,MacIntel,29.41176471,,,,,,,,,,,,,1,1.404,0,59,59,71,1,,,,,,,,,,,,,,,,,,,,,,,,,,,,,,,,,,,,,,,,,,,,,,,,,,,,,,,,,,,,,,,,,,,,,,
,,,,1,2.288,,,,,,171,cake,tomato,,88668,001,2022-04-29_12h25.06.518,SPAMnetsValid,2021.1.4,MacIntel,29.41176471,,,,,,,,,,,,,1,2.288,0,60,60,88,1,,,,,,,,,,,,,,,,,,,,,,,,,,,,,,,,,,,,,,,,,,,,,,,,,,,,,,,,,,,,,,,,,,,,,,
,,,,1,2.103,,,,,,182,flower,refrigerator,,88668,001,2022-04-29_12h25.06.518,SPAMnetsValid,2021.1.4,MacIntel,29.41176471,,,,,,,,,,,,,1,2.103,0,61,61,32,1,,,,,,,,,,,,,,,,,,,,,,,,,,,,,,,,,,,,,,,,,,,,,,,,,,,,,,,,,,,,,,,,,,,,,,
,,,,1,3.822,,,,,,132,broom,tree,,88668,001,2022-04-29_12h25.06.518,SPAMnetsValid,2021.1.4,MacIntel,29.41176471,,,,,,,,,,,,,1,3.822,0,62,62,78,1,,,,,,,,,,,,,,,,,,,,,,,,,,,,,,,,,,,,,,,,,,,,,,,,,,,,,,,,,,,,,,,,,,,,,,
,,,,9,1.735,,,,,,136,chocolate,microwave,,88668,001,2022-04-29_12h25.06.518,SPAMnetsValid,2021.1.4,MacIntel,29.41176471,,,,,,,,,,,,,9,1.735,0,63,63,96,1,,,,,,,,,,,,,,,,,,,,,,,,,,,,,,,,,,,,,,,,,,,,,,,,,,,,,,,,,,,,,,,,,,,,,,
,,,,7,2.085,,,,,,101,cactus,kitchen,,88668,001,2022-04-29_12h25.06.518,SPAMnetsValid,2021.1.4,MacIntel,29.41176471,,,,,,,,,,,,,7,2.085,0,64,64,54,1,,,,,,,,,,,,,,,,,,,,,,,,,,,,,,,,,,,,,,,,,,,,,,,,,,,,,,,,,,,,,,,,,,,,,,
,,,,9,1.702,,,,,,118,chocolate,oven,,88668,001,2022-04-29_12h25.06.518,SPAMnetsValid,2021.1.4,MacIntel,29.41176471,,,,,,,,,,,,,9,1.702,0,65,65,10,1,,,,,,,,,,,,,,,,,,,,,,,,,,,,,,,,,,,,,,,,,,,,,,,,,,,,,,,,,,,,,,,,,,,,,,
,,,,5,2.491,,,,,,175,melon,onion,,88668,001,2022-04-29_12h25.06.518,SPAMnetsValid,2021.1.4,MacIntel,29.41176471,,,,,,,,,,,,,5,2.491,0,66,66,41,1,,,,,,,,,,,,,,,,,,,,,,,,,,,,,,,,,,,,,,,,,,,,,,,,,,,,,,,,,,,,,,,,,,,,,,
,,,,9,2.435,,,,,,142,garden,tree,,88668,001,2022-04-29_12h25.06.518,SPAMnetsValid,2021.1.4,MacIntel,29.41176471,,,,,,,,,,,,,9,2.435,0,67,67,22,1,,,,,,,,,,,,,,,,,,,,,,,,,,,,,,,,,,,,,,,,,,,,,,,,,,,,,,,,,,,,,,,,,,,,,,
,,,,1,1.571,,,,,,137,microwave,tree,,88668,001,2022-04-29_12h25.06.518,SPAMnetsValid,2021.1.4,MacIntel,29.41176471,,,,,,,,,,,,,1,1.571,0,68,68,63,1,,,,,,,,,,,,,,,,,,,,,,,,,,,,,,,,,,,,,,,,,,,,,,,,,,,,,,,,,,,,,,,,,,,,,,
,,,,4,2.389,,,,,,117,melon,strawberry,,88668,001,2022-04-29_12h25.06.518,SPAMnetsValid,2021.1.4,MacIntel,29.41176471,,,,,,,,,,,,,4,2.389,0,69,69,11,1,,,,,,,,,,,,,,,,,,,,,,,,,,,,,,,,,,,,,,,,,,,,,,,,,,,,,,,,,,,,,,,,,,,,,,
,,,,7,2.803,,,,,,121,broom,microwave,,88668,001,2022-04-29_12h25.06.518,SPAMnetsValid,2021.1.4,MacIntel,29.41176471,,,,,,,,,,,,,7,2.803,0,70,70,95,1,,,,,,,,,,,,,,,,,,,,,,,,,,,,,,,,,,,,,,,,,,,,,,,,,,,,,,,,,,,,,,,,,,,,,,
,,,,9,3.002,,,,,,160,cookie,kitchen,,88668,001,2022-04-29_12h25.06.518,SPAMnetsValid,2021.1.4,MacIntel,29.41176471,,,,,,,,,,,,,9,3.002,0,71,71,65,1,,,,,,,,,,,,,,,,,,,,,,,,,,,,,,,,,,,,,,,,,,,,,,,,,,,,,,,,,,,,,,,,,,,,,,
,,,,8,9.322,,,,,,156,melon,rose,,88668,001,2022-04-29_12h25.06.518,SPAMnetsValid,2021.1.4,MacIntel,29.41176471,,,,,,,,,,,,,8,9.322,0,72,72,31,1,,,,,,,,,,,,,,,,,,,,,,,,,,,,,,,,,,,,,,,,,,,,,,,,,,,,,,,,,,,,,,,,,,,,,,
,,,,7,49.337,,,,,,99,garden,melon,,88668,001,2022-04-29_12h25.06.518,SPAMnetsValid,2021.1.4,MacIntel,29.41176471,,,,,,,,,,,,,7,49.337,0,73,73,17,1,,,,,,,,,,,,,,,,,,,,,,,,,,,,,,,,,,,,,,,,,,,,,,,,,,,,,,,,,,,,,,,,,,,,,,
,,,,4,4.204,,,,,,128,melon,microwave,,88668,001,2022-04-29_12h25.06.518,SPAMnetsValid,2021.1.4,MacIntel,29.41176471,,,,,,,,,,,,,4,4.204,0,74,74,74,1,,,,,,,,,,,,,,,,,,,,,,,,,,,,,,,,,,,,,,,,,,,,,,,,,,,,,,,,,,,,,,,,,,,,,,
,,,,9,2.754,,,,,,194,cactus,cactus,CHECK,88668,001,2022-04-29_12h25.06.518,SPAMnetsValid,2021.1.4,MacIntel,29.41176471,,,,,,,,,,,,,9,2.754,0,75,75,25,1,,,,,,,,,,,,,,,,,,,,,,,,,,,,,,,,,,,,,,,,,,,,,,,,,,,,,,,,,,,,,,,,,,,,,,
,,,,9,1.987,,,,,,97,chocolate,kitchen,,88668,001,2022-04-29_12h25.06.518,SPAMnetsValid,2021.1.4,MacIntel,29.41176471,,,,,,,,,,,,,9,1.987,0,76,76,8,1,,,,,,,,,,,,,,,,,,,,,,,,,,,,,,,,,,,,,,,,,,,,,,,,,,,,,,,,,,,,,,,,,,,,,,
,,,,9,1.687,,,,,,102,chocolate,refrigerator,,88668,001,2022-04-29_12h25.06.518,SPAMnetsValid,2021.1.4,MacIntel,29.41176471,,,,,,,,,,,,,9,1.687,0,77,77,76,1,,,,,,,,,,,,,,,,,,,,,,,,,,,,,,,,,,,,,,,,,,,,,,,,,,,,,,,,,,,,,,,,,,,,,,
,,,,9,1.687,,,,,,147,cake,refrigerator,,88668,001,2022-04-29_12h25.06.518,SPAMnetsValid,2021.1.4,MacIntel,29.41176471,,,,,,,,,,,,,9,1.687,0,78,78,35,1,,,,,,,,,,,,,,,,,,,,,,,,,,,,,,,,,,,,,,,,,,,,,,,,,,,,,,,,,,,,,,,,,,,,,,
,,,,1,2.302,,,,,,180,tree,yogurt,,88668,001,2022-04-29_12h25.06.518,SPAMnetsValid,2021.1.4,MacIntel,29.41176471,,,,,,,,,,,,,1,2.302,0,79,79,68,1,,,,,,,,,,,,,,,,,,,,,,,,,,,,,,,,,,,,,,,,,,,,,,,,,,,,,,,,,,,,,,,,,,,,,,
,,,,1,4.737,,,,,,106,cake,strawberry,,88668,001,2022-04-29_12h25.06.518,SPAMnetsValid,2021.1.4,MacIntel,29.41176471,,,,,,,,,,,,,1,4.737,0,80,80,0,1,,,,,,,,,,,,,,,,,,,,,,,,,,,,,,,,,,,,,,,,,,,,,,,,,,,,,,,,,,,,,,,,,,,,,,
,,,,8,2.723,,,,,,167,carrot,garden,,88668,001,2022-04-29_12h25.06.518,SPAMnetsValid,2021.1.4,MacIntel,29.41176471,,,,,,,,,,,,,8,2.723,0,81,81,47,1,,,,,,,,,,,,,,,,,,,,,,,,,,,,,,,,,,,,,,,,,,,,,,,,,,,,,,,,,,,,,,,,,,,,,,
,,,,1,1.568,,,,,,127,cactus,chocolate,,88668,001,2022-04-29_12h25.06.518,SPAMnetsValid,2021.1.4,MacIntel,29.41176471,,,,,,,,,,,,,1,1.568,0,82,82,57,1,,,,,,,,,,,,,,,,,,,,,,,,,,,,,,,,,,,,,,,,,,,,,,,,,,,,,,,,,,,,,,,,,,,,,,
,,,,2,3.487,,,,,,169,onion,yogurt,,88668,001,2022-04-29_12h25.06.518,SPAMnetsValid,2021.1.4,MacIntel,29.41176471,,,,,,,,,,,,,2,3.487,0,83,83,24,1,,,,,,,,,,,,,,,,,,,,,,,,,,,,,,,,,,,,,,,,,,,,,,,,,,,,,,,,,,,,,,,,,,,,,,
,,,,7,2.99,,,,,,188,flower,tree,,88668,001,2022-04-29_12h25.06.518,SPAMnetsValid,2021.1.4,MacIntel,29.41176471,,,,,,,,,,,,,7,2.99,0,84,84,7,1,,,,,,,,,,,,,,,,,,,,,,,,,,,,,,,,,,,,,,,,,,,,,,,,,,,,,,,,,,,,,,,,,,,,,,
,,,,9,3.22,,,,,,113,refrigerator,strawberry,,88668,001,2022-04-29_12h25.06.518,SPAMnetsValid,2021.1.4,MacIntel,29.41176471,,,,,,,,,,,,,9,3.22,0,85,85,56,1,,,,,,,,,,,,,,,,,,,,,,,,,,,,,,,,,,,,,,,,,,,,,,,,,,,,,,,,,,,,,,,,,,,,,,
,,,,7,18.435,,,,,,150,microwave,refrigerator,,88668,001,2022-04-29_12h25.06.518,SPAMnetsValid,2021.1.4,MacIntel,29.41176471,,,,,,,,,,,,,7,18.435,0,86,86,66,1,,,,,,,,,,,,,,,,,,,,,,,,,,,,,,,,,,,,,,,,,,,,,,,,,,,,,,,,,,,,,,,,,,,,,,
,,,,8,1.92,,,,,,181,carrot,kitchen,,88668,001,2022-04-29_12h25.06.518,SPAMnetsValid,2021.1.4,MacIntel,29.41176471,,,,,,,,,,,,,8,1.92,0,87,87,72,1,,,,,,,,,,,,,,,,,,,,,,,,,,,,,,,,,,,,,,,,,,,,,,,,,,,,,,,,,,,,,,,,,,,,,,
,,,,7,4.786,,,,,,124,oven,refrigerator,,88668,001,2022-04-29_12h25.06.518,SPAMnetsValid,2021.1.4,MacIntel,29.41176471,,,,,,,,,,,,,7,4.786,0,88,88,69,1,,,,,,,,,,,,,,,,,,,,,,,,,,,,,,,,,,,,,,,,,,,,,,,,,,,,,,,,,,,,,,,,,,,,,,
,,,,8,3.868,,,,,,115,refrigerator,tomato,,88668,001,2022-04-29_12h25.06.518,SPAMnetsValid,2021.1.4,MacIntel,29.41176471,,,,,,,,,,,,,8,3.868,0,89,89,85,1,,,,,,,,,,,,,,,,,,,,,,,,,,,,,,,,,,,,,,,,,,,,,,,,,,,,,,,,,,,,,,,,,,,,,,
,,,,2,2.936,,,,,,111,carrot,microwave,,88668,001,2022-04-29_12h25.06.518,SPAMnetsValid,2021.1.4,MacIntel,29.41176471,,,,,,,,,,,,,2,2.936,0,90,90,16,1,,,,,,,,,,,,,,,,,,,,,,,,,,,,,,,,,,,,,,,,,,,,,,,,,,,,,,,,,,,,,,,,,,,,,,
,,,,2,2.135,,,,,,107,rose,tomato,,88668,001,2022-04-29_12h25.06.518,SPAMnetsValid,2021.1.4,MacIntel,29.41176471,,,,,,,,,,,,,2,2.135,0,91,91,26,1,,,,,,,,,,,,,,,,,,,,,,,,,,,,,,,,,,,,,,,,,,,,,,,,,,,,,,,,,,,,,,,,,,,,,,
,,,,2,25.822,,,,,,159,cookie,flower,,88668,001,2022-04-29_12h25.06.518,SPAMnetsValid,2021.1.4,MacIntel,29.41176471,,,,,,,,,,,,,2,25.822,0,92,92,21,1,,,,,,,,,,,,,,,,,,,,,,,,,,,,,,,,,,,,,,,,,,,,,,,,,,,,,,,,,,,,,,,,,,,,,,
,,,,2,3.14,,,,,,146,pretzel,tree,,88668,001,2022-04-29_12h25.06.518,SPAMnetsValid,2021.1.4,MacIntel,29.41176471,,,,,,,,,,,,,2,3.14,0,93,93,80,1,,,,,,,,,,,,,,,,,,,,,,,,,,,,,,,,,,,,,,,,,,,,,,,,,,,,,,,,,,,,,,,,,,,,,,
,,,,1,1.506,,,,,,129,cactus,refrigerator,,88668,001,2022-04-29_12h25.06.518,SPAMnetsValid,2021.1.4,MacIntel,29.41176471,,,,,,,,,,,,,1,1.506,0,94,94,3,1,,,,,,,,,,,,,,,,,,,,,,,,,,,,,,,,,,,,,,,,,,,,,,,,,,,,,,,,,,,,,,,,,,,,,,
,,,,7,2.921,,,,,,168,cactus,flower,,88668,001,2022-04-29_12h25.06.518,SPAMnetsValid,2021.1.4,MacIntel,29.41176471,,,,,,,,,,,,,7,2.921,0,95,95,51,1,,,,,,,,,,,,,,,,,,,,,,,,,,,,,,,,,,,,,,,,,,,,,,,,,,,,,,,,,,,,,,,,,,,,,,
,,,,1,2.836,,,,,,109,broom,strawberry,,88668,001,2022-04-29_12h25.06.518,SPAMnetsValid,2021.1.4,MacIntel,29.41176471,,,,,,,,,,,,,1,2.836,0,96,96,4,1,,,,,,,,,,,,,,,,,,,,,,,,,,,,,,,,,,,,,,,,,,,,,,,,,,,,,,,,,,,,,,,,,,,,,,
,,,,,,,,,,,,,,,88668,001,2022-04-29_12h25.06.518,SPAMnetsValid,2021.1.4,MacIntel,29.41176471,,,,,,,,,,,,,,,,,,,,0,0,0,0,1,,,,,,,,,,,,,,,,,,,,,,,,,,,,,,,,,,,,,,,,,,,,,,,,,,,,,,,,,,,,,,,,,
,,,,,,,,,,,,,,,88668,001,2022-04-29_12h25.06.518,SPAMnetsValid,2021.1.4,MacIntel,29.41176471,,,,,,0,1,1,1,1,0,1,,,,,,,,,,,,,,,,,,,,,,,,,,,,,,,,,,,,,,,,,,,,,,,,,,,,,,,,,,,,,,,,,,,,,,,,,,,,,
,,,,,,,,,,,,,,,88668,001,2022-04-29_12h25.06.518,SPAMnetsValid,2021.1.4,MacIntel,29.41176471,,,,,,,,,,,,,,,,,,,,,,,,,3,65.037,0,0,0,0,1,rancor,forbearance,ridicule,malice,bravery,3,,,,,,,,,,,,,,,,,,,,,,,,,,,,,,,,,,,,,,,,,,,,,,,,,,,,
,,,,,,,,,,,,,,,88668,001,2022-04-29_12h25.06.518,SPAMnetsValid,2021.1.4,MacIntel,29.41176471,,,,,,,,,,,,,,,,,,,,,,,,,4,9.852,0,1,1,1,1,raucous,empty,quiet,smooth,harsh,4,,,,,,,,,,,,,,,,,,,,,,,,,,,,,,,,,,,,,,,,,,,,,,,,,,,,
,,,,,,,,,,,,,,,88668,001,2022-04-29_12h25.06.518,SPAMnetsValid,2021.1.4,MacIntel,29.41176471,,,,,,,,,,,,,,,,,,,,,,,,,4,3.687,0,2,2,2,1,gargoyle,oil,medicine,carved waterspout,ugly building,3,,,,,,,,,,,,,,,,,,,,,,,,,,,,,,,,,,,,,,,,,,,,,,,,,,,,
,,,,,,,,,,,,,,,88668,001,2022-04-29_12h25.06.518,SPAMnetsValid,2021.1.4,MacIntel,29.41176471,,,,,,,,,,,,,,,,,,,,,,,,,3,8.402,0,3,3,3,1,recrudesce,purify,renew activity,lack refinement,crush,2,,,,,,,,,,,,,,,,,,,,,,,,,,,,,,,,,,,,,,,,,,,,,,,,,,,,
,,,,,,,,,,,,,,,88668,001,2022-04-29_12h25.06.518,SPAMnetsValid,2021.1.4,MacIntel,29.41176471,,,,,,,,,,,,,,,,,,,,,,,,,1,8.221,0,4,4,4,1,specious,"plausible, but not genuine",noteworthy,class or variety,roomy,1,,,,,,,,,,,,,,,,,,,,,,,,,,,,,,,,,,,,,,,,,,,,,,,,,,,,
,,,,,,,,,,,,,,,88668,001,2022-04-29_12h25.06.518,SPAMnetsValid,2021.1.4,MacIntel,29.41176471,,,,,,,,,,,,,,,,,,,,,,,,,4,6.802,0,5,5,5,1,bauble,bubble,showy plaything,idle talk,confusion,2,,,,,,,,,,,,,,,,,,,,,,,,,,,,,,,,,,,,,,,,,,,,,,,,,,,,
,,,,,,,,,,,,,,,88668,001,2022-04-29_12h25.06.518,SPAMnetsValid,2021.1.4,MacIntel,29.41176471,,,,,,,,,,,,,,,,,,,,,,,,,4,14.769,0,6,6,6,1,prolific,scarce,producing abundantly,reckless,speaking profanely,2,,,,,,,,,,,,,,,,,,,,,,,,,,,,,,,,,,,,,,,,,,,,,,,,,,,,
,,,,,,,,,,,,,,,88668,001,2022-04-29_12h25.06.518,SPAMnetsValid,2021.1.4,MacIntel,29.41176471,,,,,,,,,,,,,,,,,,,,,,,,,4,7.285,0,7,7,7,1,opulent,party,wealthy,happy frame of mind,semiprecious stone,2,,,,,,,,,,,,,,,,,,,,,,,,,,,,,,,,,,,,,,,,,,,,,,,,,,,,
,,,,,,,,,,,,,,,88668,001,2022-04-29_12h25.06.518,SPAMnetsValid,2021.1.4,MacIntel,29.41176471,,,,,,,,,,,,,,,,,,,,,,,,,1,4.102,0,8,8,8,1,coercion,conspiracy,strategy,restraint,attraction,3,,,,,,,,,,,,,,,,,,,,,,,,,,,,,,,,,,,,,,,,,,,,,,,,,,,,
,,,,,,,,,,,,,,,88668,001,2022-04-29_12h25.06.518,SPAMnetsValid,2021.1.4,MacIntel,29.41176471,,,,,,,,,,,,,,,,,,,,,,,,,4,2.839,0,9,9,9,1,hiatus,animal,calamity,dread,gap,4,,,,,,,,,,,,,,,,,,,,,,,,,,,,,,,,,,,,,,,,,,,,,,,,,,,,
,,,,,,,,,,,,,,,88668,001,2022-04-29_12h25.06.518,SPAMnetsValid,2021.1.4,MacIntel,29.41176471,,,,,,,,,,,,,,,,,,,,,,,,,2,5.67,0,10,10,10,1,germane,microbe,contagious,relevant,different,3,,,,,,,,,,,,,,,,,,,,,,,,,,,,,,,,,,,,,,,,,,,,,,,,,,,,
,,,,,,,,,,,,,,,88668,001,2022-04-29_12h25.06.518,SPAMnetsValid,2021.1.4,MacIntel,29.41176471,,,,,,,,,,,,,,,,,,,,,,,,,1,5.735,0,11,11,11,1,perfunctory,fundamental,formal,superficial,careful,3,,,,,,,,,,,,,,,,,,,,,,,,,,,,,,,,,,,,,,,,,,,,,,,,,,,,
,,,,,,,,,,,,,,,88668,001,2022-04-29_12h25.06.518,SPAMnetsValid,2021.1.4,MacIntel,29.41176471,,,,,,,,,,,,,,,,,,,,,,,,,4,4.323,0,12,12,12,1,diverge,reveal,chant,distract the attention of,differ or turn off from,4,,,,,,,,,,,,,,,,,,,,,,,,,,,,,,,,,,,,,,,,,,,,,,,,,,,,
,,,,,,,,,,,,,,,88668,001,2022-04-29_12h25.06.518,SPAMnetsValid,2021.1.4,MacIntel,29.41176471,,,,,,,,,,,,,,,,,,,,,,,,,1,5.423,0,13,13,13,1,evoke,take away,anger,connect,bring out,4,,,,,,,,,,,,,,,,,,,,,,,,,,,,,,,,,,,,,,,,,,,,,,,,,,,,
,,,,,,,,,,,,,,,88668,001,2022-04-29_12h25.06.518,SPAMnetsValid,2021.1.4,MacIntel,29.41176471,,,,,,,,,,,,,,,,,,,,,,,,,1,5.701,0,14,14,14,1,pertinent,relevant,lying next to,necessary,bold,1,,,,,,,,,,,,,,,,,,,,,,,,,,,,,,,,,,,,,,,,,,,,,,,,,,,,
,,,,,,,,,,,,,,,88668,001,2022-04-29_12h25.06.518,SPAMnetsValid,2021.1.4,MacIntel,29.41176471,,,,,,,,,,,,,,,,,,,,,,,,,2,2.171,0,15,15,15,1,holocaust,entirety,destruction,saintly,price,2,,,,,,,,,,,,,,,,,,,,,,,,,,,,,,,,,,,,,,,,,,,,,,,,,,,,
,,,,,,,,,,,,,,,88668,001,2022-04-29_12h25.06.518,SPAMnetsValid,2021.1.4,MacIntel,29.41176471,,,,,,,,,,,,,,,,,,,,,,,,,1,5.853,0,16,16,16,1,piquant,mellow,fish,pungent,cloth,3,,,,,,,,,,,,,,,,,,,,,,,,,,,,,,,,,,,,,,,,,,,,,,,,,,,,
,,,,,,,,,,,,,,,88668,001,2022-04-29_12h25.06.518,SPAMnetsValid,2021.1.4,MacIntel,29.41176471,,,,,,,,,,,,,,,,,,,,,,,,,3,6.703,0,17,17,17,1,firmament,foundation,heavens,strong,glue,2,,,,,,,,,,,,,,,,,,,,,,,,,,,,,,,,,,,,,,,,,,,,,,,,,,,,
,,,,,,,,,,,,,,,88668,001,2022-04-29_12h25.06.518,SPAMnetsValid,2021.1.4,MacIntel,29.41176471,,,,,,,,,,,,,,,,,,,,,,,,,,,,,,,,,,,,,,4,4.123,0,0,0,0,1,marketable,partisan,jocular,marriageable,salable,essential,4,,,,,,,,,,,,,,,,,,,,,,,,,,,,,,,,,,,,,,
,,,,,,,,,,,,,,,88668,001,2022-04-29_12h25.06.518,SPAMnetsValid,2021.1.4,MacIntel,29.41176471,,,,,,,,,,,,,,,,,,,,,,,,,,,,,,,,,,,,,,5,4.402,0,1,1,1,1,cottontail,squirrel,poplar,boa,marshy plant,rabbit,5,,,,,,,,,,,,,,,,,,,,,,,,,,,,,,,,,,,,,,
,,,,,,,,,,,,,,,88668,001,2022-04-29_12h25.06.518,SPAMnetsValid,2021.1.4,MacIntel,29.41176471,,,,,,,,,,,,,,,,,,,,,,,,,,,,,,,,,,,,,,4,4.57,0,2,2,2,1,boggy,afraid,false,marshy,dense,black,3,,,,,,,,,,,,,,,,,,,,,,,,,,,,,,,,,,,,,,
,,,,,,,,,,,,,,,88668,001,2022-04-29_12h25.06.518,SPAMnetsValid,2021.1.4,MacIntel,29.41176471,,,,,,,,,,,,,,,,,,,,,,,,,,,,,,,,,,,,,,3,7.218,0,3,3,3,1,gruesomeness,blackness,falseness,vindictiveness,drunkenness,ghastliness,5,,,,,,,,,,,,,,,,,,,,,,,,,,,,,,,,,,,,,,
,,,,,,,,,,,,,,,88668,001,2022-04-29_12h25.06.518,SPAMnetsValid,2021.1.4,MacIntel,29.41176471,,,,,,,,,,,,,,,,,,,,,,,,,,,,,,,,,,,,,,3,12.854,0,4,4,4,1,loathing,diffidence,laziness,abhorrence,cleverness,comfort,3,,,,,,,,,,,,,,,,,,,,,,,,,,,,,,,,,,,,,,
,,,,,,,,,,,,,,,88668,001,2022-04-29_12h25.06.518,SPAMnetsValid,2021.1.4,MacIntel,29.41176471,,,,,,,,,,,,,,,,,,,,,,,,,,,,,,,,,,,,,,2,4.301,0,5,5,5,1,bantam,fowl,ridicule,cripple,vegetable,ensign,1,,,,,,,,,,,,,,,,,,,,,,,,,,,,,,,,,,,,,,
,,,,,,,,,,,,,,,88668,001,2022-04-29_12h25.06.518,SPAMnetsValid,2021.1.4,MacIntel,29.41176471,,,,,,,,,,,,,,,,,,,,,,,,,,,,,,,,,,,,,,5,7.852,0,6,6,6,1,evoke,wake up,surrender,reconnoiter,transcend,call forth,5,,,,,,,,,,,,,,,,,,,,,,,,,,,,,,,,,,,,,,
,,,,,,,,,,,,,,,88668,001,2022-04-29_12h25.06.518,SPAMnetsValid,2021.1.4,MacIntel,29.41176471,,,,,,,,,,,,,,,,,,,,,,,,,,,,,,,,,,,,,,5,12.419,0,7,7,7,1,unobtrusive,unintelligent,epileptic,illogical,lineal,modest,5,,,,,,,,,,,,,,,,,,,,,,,,,,,,,,,,,,,,,,
,,,,,,,,,,,,,,,88668,001,2022-04-29_12h25.06.518,SPAMnetsValid,2021.1.4,MacIntel,29.41176471,,,,,,,,,,,,,,,,,,,,,,,,,,,,,,,,,,,,,,4,3.954,0,8,8,8,1,terrain,ice cream,final test,tractor,area of ground,weight,4,,,,,,,,,,,,,,,,,,,,,,,,,,,,,,,,,,,,,,
,,,,,,,,,,,,,,,88668,001,2022-04-29_12h25.06.518,SPAMnetsValid,2021.1.4,MacIntel,29.41176471,,,,,,,,,,,,,,,,,,,,,,,,,,,,,,,,,,,,,,4,9.286,0,9,9,9,1,capriciousness,stubbornness,courage,whimsicality,amazement,greediness,3,,,,,,,,,,,,,,,,,,,,,,,,,,,,,,,,,,,,,,
,,,,,,,,,,,,,,,88668,001,2022-04-29_12h25.06.518,SPAMnetsValid,2021.1.4,MacIntel,29.41176471,,,,,,,,,,,,,,,,,,,,,,,,,,,,,,,,,,,,,,2,6.203,0,10,10,10,1,maelstrom,slander,whirlpool,enmity,armor,majolica,2,,,,,,,,,,,,,,,,,,,,,,,,,,,,,,,,,,,,,,
,,,,,,,,,,,,,,,88668,001,2022-04-29_12h25.06.518,SPAMnetsValid,2021.1.4,MacIntel,29.41176471,,,,,,,,,,,,,,,,,,,,,,,,,,,,,,,,,,,,,,2,3.388,0,11,11,11,1,tentative,critical,conclusive,authentic,provisional,apprehensive,4,,,,,,,,,,,,,,,,,,,,,,,,,,,,,,,,,,,,,,
,,,,,,,,,,,,,,,88668,001,2022-04-29_12h25.06.518,SPAMnetsValid,2021.1.4,MacIntel,29.41176471,,,,,,,,,,,,,,,,,,,,,,,,,,,,,,,,,,,,,,5,8.236,0,12,12,12,1,placate,rehabilitate,plagiarize,depredate,apprise,conciliate,5,,,,,,,,,,,,,,,,,,,,,,,,,,,,,,,,,,,,,,
,,,,,,,,,,,,,,,88668,001,2022-04-29_12h25.06.518,SPAMnetsValid,2021.1.4,MacIntel,29.41176471,,,,,,,,,,,,,,,,,,,,,,,,,,,,,,,,,,,,,,2,10.336,0,13,13,13,1,surcease,enlightenment,cessation,inattention,censor,substitution,2,,,,,,,,,,,,,,,,,,,,,,,,,,,,,,,,,,,,,,
,,,,,,,,,,,,,,,88668,001,2022-04-29_12h25.06.518,SPAMnetsValid,2021.1.4,MacIntel,29.41176471,,,,,,,,,,,,,,,,,,,,,,,,,,,,,,,,,,,,,,2,19.124,0,14,14,14,1,apathetic,wandering,impassive,hateful,prophetic,overflowing,2,,,,,,,,,,,,,,,,,,,,,,,,,,,,,,,,,,,,,,
,,,,,,,,,,,,,,,88668,001,2022-04-29_12h25.06.518,SPAMnetsValid,2021.1.4,MacIntel,29.41176471,,,,,,,,,,,,,,,,,,,,,,,,,,,,,,,,,,,,,,4,9.668,0,15,15,15,1,paternoster,paternalism,patricide,malediction,benediction,prayer,5,,,,,,,,,,,,,,,,,,,,,,,,,,,,,,,,,,,,,,
,,,,,,,,,,,,,,,88668,001,2022-04-29_12h25.06.518,SPAMnetsValid,2021.1.4,MacIntel,29.41176471,,,,,,,,,,,,,,,,,,,,,,,,,,,,,,,,,,,,,,2,7.586,0,16,16,16,1,opalescence,opulence,senescence,bankruptcy,iridescence,assiduity,4,,,,,,,,,,,,,,,,,,,,,,,,,,,,,,,,,,,,,,
,,,,,,,,,,,,,,,88668,001,2022-04-29_12h25.06.518,SPAMnetsValid,2021.1.4,MacIntel,29.41176471,,,,,,,,,,,,,,,,,,,,,,,,,,,,,,,,,,,,,,2,3.987,0,17,17,17,1,lush,stupid,luxurious,hazy,putrid,languishing,2,,,,,,,,,,,,,,,,,,,,,,,,,,,,,,,,,,,,,,
,,,,,,,,,,,,,,,88668,001,2022-04-29_12h25.06.518,SPAMnetsValid,2021.1.4,MacIntel,29.41176471,,,,,,,,,,,,,,,,,,,,,,,,,,,,,,,,,,,,,,3,10.935,0,18,18,18,1,curtailment,expenditure,abandonment,abridgment,improvement,forgery,3,,,,,,,,,,,,,,,,,,,,,,,,,,,,,,,,,,,,,,
,,,,,,,,,,,,,,,88668,001,2022-04-29_12h25.06.518,SPAMnetsValid,2021.1.4,MacIntel,29.41176471,,,,,,,,,,,,,,,,,,,,,,,,,,,,,,,,,,,,,,2,5.921,0,19,19,19,1,perversity,adversity,perviousness,travesty,waywardness,gentility,4,,,,,,,,,,,,,,,,,,,,,,,,,,,,,,,,,,,,,,
,,,,,,,,,,,,,,,88668,001,2022-04-29_12h25.06.518,SPAMnetsValid,2021.1.4,MacIntel,29.41176471,,,,,,,,,,,,,,,,,,,,,,,,,,,,,,,,,,,,,,3,10.62,0,20,20,20,1,calumnious,complimentary,analogous,slanderous,tempestuous,magnanimous,3,,,,,,,,,,,,,,,,,,,,,,,,,,,,,,,,,,,,,,
,,,,,,,,,,,,,,,88668,001,2022-04-29_12h25.06.518,SPAMnetsValid,2021.1.4,MacIntel,29.41176471,,,,,,,,,,,,,,,,,,,,,,,,,,,,,,,,,,,,,,3,10.62,0,21,21,21,1,illiberality,bigotry,imbecility,illegibility,cautery,immaturity,1,,,,,,,,,,,,,,,,,,,,,,,,,,,,,,,,,,,,,,
,,,,,,,,,,,,,,,88668,001,2022-04-29_12h25.06.518,SPAMnetsValid,2021.1.4,MacIntel,29.41176471,,,,,,,,,,,,,,,,,,,,,,,,,,,,,,,,,,,,,,2,8.854,0,22,22,22,1,clabber,rejoice,gossip,curdle,crow,hobble,3,,,,,,,,,,,,,,,,,,,,,,,,,,,,,,,,,,,,,,
,,,,,,,,,,,,,,,88668,001,2022-04-29_12h25.06.518,SPAMnetsValid,2021.1.4,MacIntel,29.41176471,,,,,,,,,,,,,,,,,,,,,,,,,,,,,,,,,,,,,,3,14.634,0,23,23,23,1,sedulousness,diligence,credulousness,seduction,perilousness,frankness,1,,,,,,,,,,,,,,,,,,,,,,,,,,,,,,,,,,,,,,
,,,,,,,,,,,,,,,88668,001,2022-04-29_12h25.06.518,SPAMnetsValid,2021.1.4,MacIntel,29.41176471,,,,,,,,,,,,,,,,,,,,,,,,,,,,,,,,,,,,,,,,,,,,,,,,,,,,pillow fight,pillow,0,0,0,0,1,,,,,,,,,,,,,,,,,,,,,,,,,,,,,,,
,,,,,,,,,,,,,,,88668,001,2022-04-29_12h25.06.518,SPAMnetsValid,2021.1.4,MacIntel,29.41176471,,,,,,,,,,,,,,,,,,,,,,,,,,,,,,,,,,,,,,,,,,,,,,,,,,,,sleeping,pillow,1,0,1,0,1,,,,,,,,,,,,,,,,,,,,,,,,,,,,,,,
,,,,,,,,,,,,,,,88668,001,2022-04-29_12h25.06.518,SPAMnetsValid,2021.1.4,MacIntel,29.41176471,,,,,,,,,,,,,,,,,,,,,,,,,,,,,,,,,,,,,,,,,,,,,,,,,,,,protection,pillow,2,0,2,0,1,,,,,,,,,,,,,,,,,,,,,,,,,,,,,,,
,,,,,,,,,,,,,,,88668,001,2022-04-29_12h25.06.518,SPAMnetsValid,2021.1.4,MacIntel,29.41176471,,,,,,,,,,,,,,,,,,,,,,,,,,,,,,,,,,,,,,,,,,,,,,,,,,,,dancing,pillow,3,0,3,0,1,,,,,,,,,,,,,,,,,,,,,,,,,,,,,,,
,,,,,,,,,,,,,,,88668,001,2022-04-29_12h25.06.518,SPAMnetsValid,2021.1.4,MacIntel,29.41176471,,,,,,,,,,,,,,,,,,,,,,,,,,,,,,,,,,,,,,,,,,,,,,,,,,,,,,,,,,,0,0,0,2,1,pillow,,,,,,,,,,,,,,,,,,,,,,,,,
,,,,,,,,,,,,,,,88668,001,2022-04-29_12h25.06.518,SPAMnetsValid,2021.1.4,MacIntel,29.41176471,,,,,,,,,,,,,,,,,,,,,,,,,,,,,,,,,,,,,,,,,,,,,,,,,,,,protection,bucket,0,0,0,0,1,,,,,,,,,,,,,,,,,,,,,,,,,,,,,,,
,,,,,,,,,,,,,,,88668,001,2022-04-29_12h25.06.518,SPAMnetsValid,2021.1.4,MacIntel,29.41176471,,,,,,,,,,,,,,,,,,,,,,,,,,,,,,,,,,,,,,,,,,,,,,,,,,,,water,bucket,1,0,1,0,1,,,,,,,,,,,,,,,,,,,,,,,,,,,,,,,
,,,,,,,,,,,,,,,88668,001,2022-04-29_12h25.06.518,SPAMnetsValid,2021.1.4,MacIntel,29.41176471,,,,,,,,,,,,,,,,,,,,,,,,,,,,,,,,,,,,,,,,,,,,,,,,,,,,cleaning,bucket,2,0,2,0,1,,,,,,,,,,,,,,,,,,,,,,,,,,,,,,,
,,,,,,,,,,,,,,,88668,001,2022-04-29_12h25.06.518,SPAMnetsValid,2021.1.4,MacIntel,29.41176471,,,,,,,,,,,,,,,,,,,,,,,,,,,,,,,,,,,,,,,,,,,,,,,,,,,,music,bucket,3,0,3,0,1,,,,,,,,,,,,,,,,,,,,,,,,,,,,,,,
,,,,,,,,,,,,,,,88668,001,2022-04-29_12h25.06.518,SPAMnetsValid,2021.1.4,MacIntel,29.41176471,,,,,,,,,,,,,,,,,,,,,,,,,,,,,,,,,,,,,,,,,,,,,,,,,,,,art,bucket,4,0,4,0,1,,,,,,,,,,,,,,,,,,,,,,,,,,,,,,,
,,,,,,,,,,,,,,,88668,001,2022-04-29_12h25.06.518,SPAMnetsValid,2021.1.4,MacIntel,29.41176471,,,,,,,,,,,,,,,,,,,,,,,,,,,,,,,,,,,,,,,,,,,,,,,,,,,,photography,bucket,5,0,5,0,1,,,,,,,,,,,,,,,,,,,,,,,,,,,,,,,
,,,,,,,,,,,,,,,88668,001,2022-04-29_12h25.06.518,SPAMnetsValid,2021.1.4,MacIntel,29.41176471,,,,,,,,,,,,,,,,,,,,,,,,,,,,,,,,,,,,,,,,,,,,,,,,,,,,trash,bucket,6,0,6,0,1,,,,,,,,,,,,,,,,,,,,,,,,,,,,,,,
,,,,,,,,,,,,,,,88668,001,2022-04-29_12h25.06.518,SPAMnetsValid,2021.1.4,MacIntel,29.41176471,,,,,,,,,,,,,,,,,,,,,,,,,,,,,,,,,,,,,,,,,,,,,,,,,,,,dinner,bucket,7,0,7,0,1,,,,,,,,,,,,,,,,,,,,,,,,,,,,,,,
,,,,,,,,,,,,,,,88668,001,2022-04-29_12h25.06.518,SPAMnetsValid,2021.1.4,MacIntel,29.41176471,,,,,,,,,,,,,,,,,,,,,,,,,,,,,,,,,,,,,,,,,,,,,,,,,,,,,,,,,,,0,1,1,0,1,bucket,,,,,,,,,,,,,,,,,,,,,,,,,
,,,,,,,,,,,,,,,88668,001,2022-04-29_12h25.06.518,SPAMnetsValid,2021.1.4,MacIntel,29.41176471,,,,,,,,,,,,,,,,,,,,,,,,,,,,,,,,,,,,,,,,,,,,,,,,,,,,light,candle,0,0,0,0,1,,,,,,,,,,,,,,,,,,,,,,,,,,,,,,,
,,,,,,,,,,,,,,,88668,001,2022-04-29_12h25.06.518,SPAMnetsValid,2021.1.4,MacIntel,29.41176471,,,,,,,,,,,,,,,,,,,,,,,,,,,,,,,,,,,,,,,,,,,,,,,,,,,,start fire,candle,1,0,1,0,1,,,,,,,,,,,,,,,,,,,,,,,,,,,,,,,
,,,,,,,,,,,,,,,88668,001,2022-04-29_12h25.06.518,SPAMnetsValid,2021.1.4,MacIntel,29.41176471,,,,,,,,,,,,,,,,,,,,,,,,,,,,,,,,,,,,,,,,,,,,,,,,,,,,art,candle,2,0,2,0,1,,,,,,,,,,,,,,,,,,,,,,,,,,,,,,,
,,,,,,,,,,,,,,,88668,001,2022-04-29_12h25.06.518,SPAMnetsValid,2021.1.4,MacIntel,29.41176471,,,,,,,,,,,,,,,,,,,,,,,,,,,,,,,,,,,,,,,,,,,,,,,,,,,,jumpscare,candle,3,0,3,0,1,,,,,,,,,,,,,,,,,,,,,,,,,,,,,,,
,,,,,,,,,,,,,,,88668,001,2022-04-29_12h25.06.518,SPAMnetsValid,2021.1.4,MacIntel,29.41176471,,,,,,,,,,,,,,,,,,,,,,,,,,,,,,,,,,,,,,,,,,,,,,,,,,,,dinner,candle,4,0,4,0,1,,,,,,,,,,,,,,,,,,,,,,,,,,,,,,,
,,,,,,,,,,,,,,,88668,001,2022-04-29_12h25.06.518,SPAMnetsValid,2021.1.4,MacIntel,29.41176471,,,,,,,,,,,,,,,,,,,,,,,,,,,,,,,,,,,,,,,,,,,,,,,,,,,,dance party,candle,5,0,5,0,1,,,,,,,,,,,,,,,,,,,,,,,,,,,,,,,
,,,,,,,,,,,,,,,88668,001,2022-04-29_12h25.06.518,SPAMnetsValid,2021.1.4,MacIntel,29.41176471,,,,,,,,,,,,,,,,,,,,,,,,,,,,,,,,,,,,,,,,,,,,,,,,,,,,music festival,candle,6,0,6,0,1,,,,,,,,,,,,,,,,,,,,,,,,,,,,,,,
,,,,,,,,,,,,,,,88668,001,2022-04-29_12h25.06.518,SPAMnetsValid,2021.1.4,MacIntel,29.41176471,,,,,,,,,,,,,,,,,,,,,,,,,,,,,,,,,,,,,,,,,,,,,,,,,,,,signal,candle,7,0,7,0,1,,,,,,,,,,,,,,,,,,,,,,,,,,,,,,,
,,,,,,,,,,,,,,,88668,001,2022-04-29_12h25.06.518,SPAMnetsValid,2021.1.4,MacIntel,29.41176471,,,,,,,,,,,,,,,,,,,,,,,,,,,,,,,,,,,,,,,,,,,,,,,,,,,,,,,,,,,0,2,2,1,1,candle,,,,,,,,,,,,,,,,,,,,,,,,,
,,,,,,,,,,,,,,,88668,001,2022-04-29_12h25.06.518,SPAMnetsValid,2021.1.4,MacIntel,29.41176471,,,,,,,,,,,,,,,,,,,,,,,,,,,,,,,,,,,,,,,,,,,,,,,,,,,,,,,,,,,,,,,,,,Animals,0,0,0,0,1,,,,,,,,,,,,,,,,,,
,,,,,,,,,,,,,,,88668,001,2022-04-29_12h25.06.518,SPAMnetsValid,2021.1.4,MacIntel,29.41176471,,,,,,,,,,,,,,,,,,,,,,,,,,,,,,,,,,,,,,,,,,,,,,,,,,,,,,,,,,,,,,,,,elephant,Animals,1,0,1,0,1,,,,,,,,,,,,,,,,,,
,,,,,,,,,,,,,,,88668,001,2022-04-29_12h25.06.518,SPAMnetsValid,2021.1.4,MacIntel,29.41176471,,,,,,,,,,,,,,,,,,,,,,,,,,,,,,,,,,,,,,,,,,,,,,,,,,,,,,,,,,,,,,,,,lion,Animals,2,0,2,0,1,,,,,,,,,,,,,,,,,,
,,,,,,,,,,,,,,,88668,001,2022-04-29_12h25.06.518,SPAMnetsValid,2021.1.4,MacIntel,29.41176471,,,,,,,,,,,,,,,,,,,,,,,,,,,,,,,,,,,,,,,,,,,,,,,,,,,,,,,,,,,,,,,,,monkey,Animals,3,0,3,0,1,,,,,,,,,,,,,,,,,,
,,,,,,,,,,,,,,,88668,001,2022-04-29_12h25.06.518,SPAMnetsValid,2021.1.4,MacIntel,29.41176471,,,,,,,,,,,,,,,,,,,,,,,,,,,,,,,,,,,,,,,,,,,,,,,,,,,,,,,,,,,,,,,,,kola,Animals,4,0,4,0,1,,,,,,,,,,,,,,,,,,
,,,,,,,,,,,,,,,88668,001,2022-04-29_12h25.06.518,SPAMnetsValid,2021.1.4,MacIntel,29.41176471,,,,,,,,,,,,,,,,,,,,,,,,,,,,,,,,,,,,,,,,,,,,,,,,,,,,,,,,,,,,,,,,,panda,Animals,5,0,5,0,1,,,,,,,,,,,,,,,,,,
,,,,,,,,,,,,,,,88668,001,2022-04-29_12h25.06.518,SPAMnetsValid,2021.1.4,MacIntel,29.41176471,,,,,,,,,,,,,,,,,,,,,,,,,,,,,,,,,,,,,,,,,,,,,,,,,,,,,,,,,,,,,,,,,red panda,Animals,6,0,6,0,1,,,,,,,,,,,,,,,,,,
,,,,,,,,,,,,,,,88668,001,2022-04-29_12h25.06.518,SPAMnetsValid,2021.1.4,MacIntel,29.41176471,,,,,,,,,,,,,,,,,,,,,,,,,,,,,,,,,,,,,,,,,,,,,,,,,,,,,,,,,,,,,,,,,raccoon,Animals,7,0,7,0,1,,,,,,,,,,,,,,,,,,
,,,,,,,,,,,,,,,88668,001,2022-04-29_12h25.06.518,SPAMnetsValid,2021.1.4,MacIntel,29.41176471,,,,,,,,,,,,,,,,,,,,,,,,,,,,,,,,,,,,,,,,,,,,,,,,,,,,,,,,,,,,,,,,,whale,Animals,8,0,8,0,1,,,,,,,,,,,,,,,,,,
,,,,,,,,,,,,,,,88668,001,2022-04-29_12h25.06.518,SPAMnetsValid,2021.1.4,MacIntel,29.41176471,,,,,,,,,,,,,,,,,,,,,,,,,,,,,,,,,,,,,,,,,,,,,,,,,,,,,,,,,,,,,,,,,dolphin,Animals,9,0,9,0,1,,,,,,,,,,,,,,,,,,
,,,,,,,,,,,,,,,88668,001,2022-04-29_12h25.06.518,SPAMnetsValid,2021.1.4,MacIntel,29.41176471,,,,,,,,,,,,,,,,,,,,,,,,,,,,,,,,,,,,,,,,,,,,,,,,,,,,,,,,,,,,,,,,,orca,Animals,10,0,10,0,1,,,,,,,,,,,,,,,,,,
,,,,,,,,,,,,,,,88668,001,2022-04-29_12h25.06.518,SPAMnetsValid,2021.1.4,MacIntel,29.41176471,,,,,,,,,,,,,,,,,,,,,,,,,,,,,,,,,,,,,,,,,,,,,,,,,,,,,,,,,,,,,,,,,sea bass,Animals,11,0,11,0,1,,,,,,,,,,,,,,,,,,
,,,,,,,,,,,,,,,88668,001,2022-04-29_12h25.06.518,SPAMnetsValid,2021.1.4,MacIntel,29.41176471,,,,,,,,,,,,,,,,,,,,,,,,,,,,,,,,,,,,,,,,,,,,,,,,,,,,,,,,,,,,,,,,,sea lion,Animals,12,0,12,0,1,,,,,,,,,,,,,,,,,,
,,,,,,,,,,,,,,,88668,001,2022-04-29_12h25.06.518,SPAMnetsValid,2021.1.4,MacIntel,29.41176471,,,,,,,,,,,,,,,,,,,,,,,,,,,,,,,,,,,,,,,,,,,,,,,,,,,,,,,,,,,,,,,,,sea horse,Animals,13,0,13,0,1,,,,,,,,,,,,,,,,,,
,,,,,,,,,,,,,,,88668,001,2022-04-29_12h25.06.518,SPAMnetsValid,2021.1.4,MacIntel,29.41176471,,,,,,,,,,,,,,,,,,,,,,,,,,,,,,,,,,,,,,,,,,,,,,,,,,,,,,,,,,,,,,,,,starfish,Animals,14,0,14,0,1,,,,,,,,,,,,,,,,,,
,,,,,,,,,,,,,,,88668,001,2022-04-29_12h25.06.518,SPAMnetsValid,2021.1.4,MacIntel,29.41176471,,,,,,,,,,,,,,,,,,,,,,,,,,,,,,,,,,,,,,,,,,,,,,,,,,,,,,,,,,,,,,,,,chimpanzee,Animals,15,0,15,0,1,,,,,,,,,,,,,,,,,,
,,,,,,,,,,,,,,,88668,001,2022-04-29_12h25.06.518,SPAMnetsValid,2021.1.4,MacIntel,29.41176471,,,,,,,,,,,,,,,,,,,,,,,,,,,,,,,,,,,,,,,,,,,,,,,,,,,,,,,,,,,,,,,,,gorilla,Animals,16,0,16,0,1,,,,,,,,,,,,,,,,,,
,,,,,,,,,,,,,,,88668,001,2022-04-29_12h25.06.518,SPAMnetsValid,2021.1.4,MacIntel,29.41176471,,,,,,,,,,,,,,,,,,,,,,,,,,,,,,,,,,,,,,,,,,,,,,,,,,,,,,,,,,,,,,,,,dog,Animals,17,0,17,0,1,,,,,,,,,,,,,,,,,,
,,,,,,,,,,,,,,,88668,001,2022-04-29_12h25.06.518,SPAMnetsValid,2021.1.4,MacIntel,29.41176471,,,,,,,,,,,,,,,,,,,,,,,,,,,,,,,,,,,,,,,,,,,,,,,,,,,,,,,,,,,,,,,,,cat,Animals,18,0,18,0,1,,,,,,,,,,,,,,,,,,
,,,,,,,,,,,,,,,88668,001,2022-04-29_12h25.06.518,SPAMnetsValid,2021.1.4,MacIntel,29.41176471,,,,,,,,,,,,,,,,,,,,,,,,,,,,,,,,,,,,,,,,,,,,,,,,,,,,,,,,,,,,,,,,,jaguar,Animals,19,0,19,0,1,,,,,,,,,,,,,,,,,,
,,,,,,,,,,,,,,,88668,001,2022-04-29_12h25.06.518,SPAMnetsValid,2021.1.4,MacIntel,29.41176471,,,,,,,,,,,,,,,,,,,,,,,,,,,,,,,,,,,,,,,,,,,,,,,,,,,,,,,,,,,,,,,,,cougar,Animals,20,0,20,0,1,,,,,,,,,,,,,,,,,,
,,,,,,,,,,,,,,,88668,001,2022-04-29_12h25.06.518,SPAMnetsValid,2021.1.4,MacIntel,29.41176471,,,,,,,,,,,,,,,,,,,,,,,,,,,,,,,,,,,,,,,,,,,,,,,,,,,,,,,,,,,,,,,,,,,,,,,,0,0,0,0,1,Animals,,,,,,,,,,,,
,,,,,,,,,,,,,,,88668,001,2022-04-29_12h25.06.518,SPAMnetsValid,2021.1.4,MacIntel,29.41176471,,,,,,,,,,,,,,,,,,,,,,,,,,,,,,,,,,,,,,,,,,,,,,,,,,,,,,,,,,,,,,,,,,,,,,,,,,,,,,5,7.276,0,0,0,0,1,"I enjoy concentrating on a fantasy or daydream and exploring all its possibilities, letting it grow and develop.",0,1,,
,,,,,,,,,,,,,,,88668,001,2022-04-29_12h25.06.518,SPAMnetsValid,2021.1.4,MacIntel,29.41176471,,,,,,,,,,,,,,,,,,,,,,,,,,,,,,,,,,,,,,,,,,,,,,,,,,,,,,,,,,,,,,,,,,,,,,,,,,,,,,5,2.956,0,1,1,1,1,I think it's interesting to learn and develop new hobbies.,0,2,,
,,,,,,,,,,,,,,,88668,001,2022-04-29_12h25.06.518,SPAMnetsValid,2021.1.4,MacIntel,29.41176471,,,,,,,,,,,,,,,,,,,,,,,,,,,,,,,,,,,,,,,,,,,,,,,,,,,,,,,,,,,,,,,,,,,,,,,,,,,,,,5,2.22,0,2,2,2,1,I am intrigued by the patterns I find in art and nature.,0,3,,
,,,,,,,,,,,,,,,88668,001,2022-04-29_12h25.06.518,SPAMnetsValid,2021.1.4,MacIntel,29.41176471,,,,,,,,,,,,,,,,,,,,,,,,,,,,,,,,,,,,,,,,,,,,,,,,,,,,,,,,,,,,,,,,,,,,,,,,,,,,,,3,6.805,0,3,3,3,1,I believe letting students hear controversial speakers can only confuse and mislead them.,1,4,,
,,,,,,,,,,,,,,,88668,001,2022-04-29_12h25.06.518,SPAMnetsValid,2021.1.4,MacIntel,29.41176471,,,,,,,,,,,,,,,,,,,,,,,,,,,,,,,,,,,,,,,,,,,,,,,,,,,,,,,,,,,,,,,,,,,,,,,,,,,,,,1,3.535,0,4,4,4,1,Poetry has little or no effect on me.,1,5,,
,,,,,,,,,,,,,,,88668,001,2022-04-29_12h25.06.518,SPAMnetsValid,2021.1.4,MacIntel,29.41176471,,,,,,,,,,,,,,,,,,,,,,,,,,,,,,,,,,,,,,,,,,,,,,,,,,,,,,,,,,,,,,,,,,,,,,,,,,,,,,1,5.586,0,5,5,5,1,I would have difficulty just letting my mind wander without control or guidance.,1,6,,
,,,,,,,,,,,,,,,88668,001,2022-04-29_12h25.06.518,SPAMnetsValid,2021.1.4,MacIntel,29.41176471,,,,,,,,,,,,,,,,,,,,,,,,,,,,,,,,,,,,,,,,,,,,,,,,,,,,,,,,,,,,,,,,,,,,,,,,,,,,,,4,6.056,0,6,6,6,1,I seldom notice the moods or feelings that different environments produce.,1,7,,
,,,,,,,,,,,,,,,88668,001,2022-04-29_12h25.06.518,SPAMnetsValid,2021.1.4,MacIntel,29.41176471,,,,,,,,,,,,,,,,,,,,,,,,,,,,,,,,,,,,,,,,,,,,,,,,,,,,,,,,,,,,,,,,,,,,,,,,,,,,,,5,2.451,0,7,7,7,1,I experience a wide range of emotions or feelings.,0,8,,
,,,,,,,,,,,,,,,88668,001,2022-04-29_12h25.06.518,SPAMnetsValid,2021.1.4,MacIntel,29.41176471,,,,,,,,,,,,,,,,,,,,,,,,,,,,,,,,,,,,,,,,,,,,,,,,,,,,,,,,,,,,,,,,,,,,,,,,,,,,,,5,4.954,0,8,8,8,1,"Sometimes when I am reading poetry or looking at a work of art, I feel a chill or wave of excitement.",0,9,,
,,,,,,,,,,,,,,,88668,001,2022-04-29_12h25.06.518,SPAMnetsValid,2021.1.4,MacIntel,29.41176471,,,,,,,,,,,,,,,,,,,,,,,,,,,,,,,,,,,,,,,,,,,,,,,,,,,,,,,,,,,,,,,,,,,,,,,,,,,,,,1,5.186,0,9,9,9,1,I have little interest in speculating on the nature of the universe or the human condition.,1,10,,
,,,,,,,,,,,,,,,88668,001,2022-04-29_12h25.06.518,SPAMnetsValid,2021.1.4,MacIntel,29.41176471,,,,,,,,,,,,,,,,,,,,,,,,,,,,,,,,,,,,,,,,,,,,,,,,,,,,,,,,,,,,,,,,,,,,,,,,,,,,,,5,2.287,0,10,10,10,1,I have a lot of intellectual curiosity.,0,11,,
,,,,,,,,,,,,,,,88668,001,2022-04-29_12h25.06.518,SPAMnetsValid,2021.1.4,MacIntel,29.41176471,,,,,,,,,,,,,,,,,,,,,,,,,,,,,,,,,,,,,,,,,,,,,,,,,,,,,,,,,,,,,,,,,,,,,,,,,,,,,,5,3.753,0,11,11,11,1,I often enjoy playing with theories or abstract ideas.,0,12,,
,,,,,,,,,,,,,,,88668,001,2022-04-29_12h25.06.518,SPAMnetsValid,2021.1.4,MacIntel,29.41176471,,,,,,,,,,,,,,,,,,,,,,,,,,,,,,,,,,,,,,,,,,,,,,,,,,,,,,,,,,,,,,,,,,,,,,,,,,,,,,,,,,,,,,,,return,11.955
