key_resp_3.keys,key_resp_3.rt,slider_2.response,slider_2.rt,rjt_rating,rjt_RT,trials_24.thisRepN,trials_24.thisTrialN,trials_24.thisN,trials_24.thisIndex,trials_24.ran,rjt_order,word1,word2,attention,participant,session,date,expName,psychopyVersion,OS,frameRate,trials_4.thisRepN,trials_4.thisTrialN,trials_4.thisN,trials_4.thisIndex,trials_4.ran,trials_5.thisRepN,trials_5.thisTrialN,trials_5.thisN,trials_5.thisIndex,trials_5.ran,repOne,repTwo,slider.response,slider.rt,trials_22.thisRepN,trials_22.thisTrialN,trials_22.thisN,trials_22.thisIndex,trials_22.ran,trials_99.thisRepN,trials_99.thisTrialN,trials_99.thisN,trials_99.thisIndex,trials_99.ran,slider_extend_2.response,slider_extend_2.rt,trials_6.thisRepN,trials_6.thisTrialN,trials_6.thisN,trials_6.thisIndex,trials_6.ran,vCue2,R1,R2,R3,R4,correct,sliderVocab.response,sliderVocab.rt,trials_7.thisRepN,trials_7.thisTrialN,trials_7.thisN,trials_7.thisIndex,trials_7.ran,VocabCue,VR1,VR2,VR3,VR4,VR5,VocabCorrect,AUT_resp,AUT_label,trials.thisRepN,trials.thisTrialN,trials.thisN,trials.thisIndex,trials.ran,trials_2.thisRepN,trials_2.thisTrialN,trials_2.thisN,trials_2.thisIndex,trials_2.ran,aut_prompt,VF_response,VF_tag,trials_16.thisRepN,trials_16.thisTrialN,trials_16.thisN,trials_16.thisIndex,trials_16.ran,trials_17.thisRepN,trials_17.thisTrialN,trials_17.thisN,trials_17.thisIndex,trials_17.ran,VFcond,open_slider.response,open_slider.rt,trials_3.thisRepN,trials_3.thisTrialN,trials_3.thisN,trials_3.thisIndex,trials_3.ran,OpenQ,Rev,OPEN_ORDER,key_resp_2.keys,key_resp_2.rt
return,824.9913,6,10.2172,6,10.2172,0,0,0,43,1,185,cactus,rose,,88704,001,2022-04-28_16h27.46.789,SPAMnetsValid,2021.1.4,MacIntel,60.0024001,,,,,,,,,,,,,,,,,,,,,,,,,,,,,,,,,,,,,,,,,,,,,,,,,,,,,,,,,,,,,,,,,,,,,,,,,,,,,,,,,,,,,,,,,
,,2,3.675,2,3.675,0,1,1,64,1,157,refrigerator,rose,,88704,001,2022-04-28_16h27.46.789,SPAMnetsValid,2021.1.4,MacIntel,60.0024001,,,,,,,,,,,,,,,,,,,,,,,,,,,,,,,,,,,,,,,,,,,,,,,,,,,,,,,,,,,,,,,,,,,,,,,,,,,,,,,,,,,,,,,,,
,,4,41.5996,4,41.5996,0,2,2,95,1,121,broom,microwave,,88704,001,2022-04-28_16h27.46.789,SPAMnetsValid,2021.1.4,MacIntel,60.0024001,,,,,,,,,,,,,,,,,,,,,,,,,,,,,,,,,,,,,,,,,,,,,,,,,,,,,,,,,,,,,,,,,,,,,,,,,,,,,,,,,,,,,,,,,
,,9,2.2372,9,2.2372,0,3,3,86,1,193,melon,melon,CHECK,88704,001,2022-04-28_16h27.46.789,SPAMnetsValid,2021.1.4,MacIntel,60.0024001,,,,,,,,,,,,,,,,,,,,,,,,,,,,,,,,,,,,,,,,,,,,,,,,,,,,,,,,,,,,,,,,,,,,,,,,,,,,,,,,,,,,,,,,,
,,7,1.5979,7,1.5979,0,4,4,28,1,154,strawberry,yogurt,,88704,001,2022-04-28_16h27.46.789,SPAMnetsValid,2021.1.4,MacIntel,60.0024001,,,,,,,,,,,,,,,,,,,,,,,,,,,,,,,,,,,,,,,,,,,,,,,,,,,,,,,,,,,,,,,,,,,,,,,,,,,,,,,,,,,,,,,,,
,,3,3.7045,3,3.7045,0,5,5,71,1,187,cactus,microwave,,88704,001,2022-04-28_16h27.46.789,SPAMnetsValid,2021.1.4,MacIntel,60.0024001,,,,,,,,,,,,,,,,,,,,,,,,,,,,,,,,,,,,,,,,,,,,,,,,,,,,,,,,,,,,,,,,,,,,,,,,,,,,,,,,,,,,,,,,,
,,7,1.8138,7,1.8138,0,6,6,91,1,166,cake,yogurt,,88704,001,2022-04-28_16h27.46.789,SPAMnetsValid,2021.1.4,MacIntel,60.0024001,,,,,,,,,,,,,,,,,,,,,,,,,,,,,,,,,,,,,,,,,,,,,,,,,,,,,,,,,,,,,,,,,,,,,,,,,,,,,,,,,,,,,,,,,
,,3,1.7878,3,1.7878,0,7,7,12,1,162,microwave,tomato,,88704,001,2022-04-28_16h27.46.789,SPAMnetsValid,2021.1.4,MacIntel,60.0024001,,,,,,,,,,,,,,,,,,,,,,,,,,,,,,,,,,,,,,,,,,,,,,,,,,,,,,,,,,,,,,,,,,,,,,,,,,,,,,,,,,,,,,,,,
,,6,2.0452,6,2.0452,0,8,8,72,1,181,carrot,kitchen,,88704,001,2022-04-28_16h27.46.789,SPAMnetsValid,2021.1.4,MacIntel,60.0024001,,,,,,,,,,,,,,,,,,,,,,,,,,,,,,,,,,,,,,,,,,,,,,,,,,,,,,,,,,,,,,,,,,,,,,,,,,,,,,,,,,,,,,,,,
,,6,1.2567,6,1.2567,0,9,9,70,1,141,melon,tomato,,88704,001,2022-04-28_16h27.46.789,SPAMnetsValid,2021.1.4,MacIntel,60.0024001,,,,,,,,,,,,,,,,,,,,,,,,,,,,,,,,,,,,,,,,,,,,,,,,,,,,,,,,,,,,,,,,,,,,,,,,,,,,,,,,,,,,,,,,,
,,6,1.3708,6,1.3708,0,10,10,10,1,118,chocolate,oven,,88704,001,2022-04-28_16h27.46.789,SPAMnetsValid,2021.1.4,MacIntel,60.0024001,,,,,,,,,,,,,,,,,,,,,,,,,,,,,,,,,,,,,,,,,,,,,,,,,,,,,,,,,,,,,,,,,,,,,,,,,,,,,,,,,,,,,,,,,
,,9,1.6976,9,1.6976,0,11,11,25,1,194,cactus,cactus,CHECK,88704,001,2022-04-28_16h27.46.789,SPAMnetsValid,2021.1.4,MacIntel,60.0024001,,,,,,,,,,,,,,,,,,,,,,,,,,,,,,,,,,,,,,,,,,,,,,,,,,,,,,,,,,,,,,,,,,,,,,,,,,,,,,,,,,,,,,,,,
,,7,2.9162,7,2.9162,0,12,12,53,1,177,chocolate,strawberry,,88704,001,2022-04-28_16h27.46.789,SPAMnetsValid,2021.1.4,MacIntel,60.0024001,,,,,,,,,,,,,,,,,,,,,,,,,,,,,,,,,,,,,,,,,,,,,,,,,,,,,,,,,,,,,,,,,,,,,,,,,,,,,,,,,,,,,,,,,
,,7,1.0725,7,1.0725,0,13,13,87,1,114,cookie,strawberry,,88704,001,2022-04-28_16h27.46.789,SPAMnetsValid,2021.1.4,MacIntel,60.0024001,,,,,,,,,,,,,,,,,,,,,,,,,,,,,,,,,,,,,,,,,,,,,,,,,,,,,,,,,,,,,,,,,,,,,,,,,,,,,,,,,,,,,,,,,
,,5,3.4353,5,3.4353,0,14,14,94,1,133,cake,flower,,88704,001,2022-04-28_16h27.46.789,SPAMnetsValid,2021.1.4,MacIntel,60.0024001,,,,,,,,,,,,,,,,,,,,,,,,,,,,,,,,,,,,,,,,,,,,,,,,,,,,,,,,,,,,,,,,,,,,,,,,,,,,,,,,,,,,,,,,,
,,5,1.3294,5,1.3294,0,15,15,57,1,127,cactus,chocolate,,88704,001,2022-04-28_16h27.46.789,SPAMnetsValid,2021.1.4,MacIntel,60.0024001,,,,,,,,,,,,,,,,,,,,,,,,,,,,,,,,,,,,,,,,,,,,,,,,,,,,,,,,,,,,,,,,,,,,,,,,,,,,,,,,,,,,,,,,,
,,5,1.0696,5,1.0696,0,16,16,47,1,167,carrot,garden,,88704,001,2022-04-28_16h27.46.789,SPAMnetsValid,2021.1.4,MacIntel,60.0024001,,,,,,,,,,,,,,,,,,,,,,,,,,,,,,,,,,,,,,,,,,,,,,,,,,,,,,,,,,,,,,,,,,,,,,,,,,,,,,,,,,,,,,,,,
,,5,0.9208,5,0.9208,0,17,17,9,1,176,cactus,tomato,,88704,001,2022-04-28_16h27.46.789,SPAMnetsValid,2021.1.4,MacIntel,60.0024001,,,,,,,,,,,,,,,,,,,,,,,,,,,,,,,,,,,,,,,,,,,,,,,,,,,,,,,,,,,,,,,,,,,,,,,,,,,,,,,,,,,,,,,,,
,,5,0.8706,5,0.8706,0,18,18,23,1,148,flower,melon,,88704,001,2022-04-28_16h27.46.789,SPAMnetsValid,2021.1.4,MacIntel,60.0024001,,,,,,,,,,,,,,,,,,,,,,,,,,,,,,,,,,,,,,,,,,,,,,,,,,,,,,,,,,,,,,,,,,,,,,,,,,,,,,,,,,,,,,,,,
,,6,1.2536,6,1.2536,0,19,19,45,1,179,broom,oven,,88704,001,2022-04-28_16h27.46.789,SPAMnetsValid,2021.1.4,MacIntel,60.0024001,,,,,,,,,,,,,,,,,,,,,,,,,,,,,,,,,,,,,,,,,,,,,,,,,,,,,,,,,,,,,,,,,,,,,,,,,,,,,,,,,,,,,,,,,
,,4,1.1718,4,1.1718,0,20,20,61,1,138,flower,rose,,88704,001,2022-04-28_16h27.46.789,SPAMnetsValid,2021.1.4,MacIntel,60.0024001,,,,,,,,,,,,,,,,,,,,,,,,,,,,,,,,,,,,,,,,,,,,,,,,,,,,,,,,,,,,,,,,,,,,,,,,,,,,,,,,,,,,,,,,,
,,8,2.0523,8,2.0523,0,21,21,11,1,117,melon,strawberry,,88704,001,2022-04-28_16h27.46.789,SPAMnetsValid,2021.1.4,MacIntel,60.0024001,,,,,,,,,,,,,,,,,,,,,,,,,,,,,,,,,,,,,,,,,,,,,,,,,,,,,,,,,,,,,,,,,,,,,,,,,,,,,,,,,,,,,,,,,
,,6,1.4629,6,1.4629,0,22,22,31,1,156,melon,rose,,88704,001,2022-04-28_16h27.46.789,SPAMnetsValid,2021.1.4,MacIntel,60.0024001,,,,,,,,,,,,,,,,,,,,,,,,,,,,,,,,,,,,,,,,,,,,,,,,,,,,,,,,,,,,,,,,,,,,,,,,,,,,,,,,,,,,,,,,,
,,6,4.5227,6,4.5227,0,23,23,21,1,159,cookie,flower,,88704,001,2022-04-28_16h27.46.789,SPAMnetsValid,2021.1.4,MacIntel,60.0024001,,,,,,,,,,,,,,,,,,,,,,,,,,,,,,,,,,,,,,,,,,,,,,,,,,,,,,,,,,,,,,,,,,,,,,,,,,,,,,,,,,,,,,,,,
,,6,1.6283,6,1.6283,0,24,24,79,1,103,pretzel,tomato,,88704,001,2022-04-28_16h27.46.789,SPAMnetsValid,2021.1.4,MacIntel,60.0024001,,,,,,,,,,,,,,,,,,,,,,,,,,,,,,,,,,,,,,,,,,,,,,,,,,,,,,,,,,,,,,,,,,,,,,,,,,,,,,,,,,,,,,,,,
,,8,1.899,8,1.899,0,25,25,52,1,110,chocolate,cookie,,88704,001,2022-04-28_16h27.46.789,SPAMnetsValid,2021.1.4,MacIntel,60.0024001,,,,,,,,,,,,,,,,,,,,,,,,,,,,,,,,,,,,,,,,,,,,,,,,,,,,,,,,,,,,,,,,,,,,,,,,,,,,,,,,,,,,,,,,,
,,8,1.7657,8,1.7657,0,26,26,27,1,158,cookie,oven,,88704,001,2022-04-28_16h27.46.789,SPAMnetsValid,2021.1.4,MacIntel,60.0024001,,,,,,,,,,,,,,,,,,,,,,,,,,,,,,,,,,,,,,,,,,,,,,,,,,,,,,,,,,,,,,,,,,,,,,,,,,,,,,,,,,,,,,,,,
,,8,2.2741,8,2.2741,0,27,27,51,1,168,cactus,flower,,88704,001,2022-04-28_16h27.46.789,SPAMnetsValid,2021.1.4,MacIntel,60.0024001,,,,,,,,,,,,,,,,,,,,,,,,,,,,,,,,,,,,,,,,,,,,,,,,,,,,,,,,,,,,,,,,,,,,,,,,,,,,,,,,,,,,,,,,,
,,6,1.2128,6,1.2128,0,28,28,82,1,98,pretzel,strawberry,,88704,001,2022-04-28_16h27.46.789,SPAMnetsValid,2021.1.4,MacIntel,60.0024001,,,,,,,,,,,,,,,,,,,,,,,,,,,,,,,,,,,,,,,,,,,,,,,,,,,,,,,,,,,,,,,,,,,,,,,,,,,,,,,,,,,,,,,,,
,,7,1.5212,7,1.5212,0,29,29,73,1,135,carrot,oven,,88704,001,2022-04-28_16h27.46.789,SPAMnetsValid,2021.1.4,MacIntel,60.0024001,,,,,,,,,,,,,,,,,,,,,,,,,,,,,,,,,,,,,,,,,,,,,,,,,,,,,,,,,,,,,,,,,,,,,,,,,,,,,,,,,,,,,,,,,
,,6,1.2161,6,1.2161,0,30,30,8,1,97,chocolate,kitchen,,88704,001,2022-04-28_16h27.46.789,SPAMnetsValid,2021.1.4,MacIntel,60.0024001,,,,,,,,,,,,,,,,,,,,,,,,,,,,,,,,,,,,,,,,,,,,,,,,,,,,,,,,,,,,,,,,,,,,,,,,,,,,,,,,,,,,,,,,,
,,7,0.7197,7,0.7197,0,31,31,33,1,131,cactus,garden,,88704,001,2022-04-28_16h27.46.789,SPAMnetsValid,2021.1.4,MacIntel,60.0024001,,,,,,,,,,,,,,,,,,,,,,,,,,,,,,,,,,,,,,,,,,,,,,,,,,,,,,,,,,,,,,,,,,,,,,,,,,,,,,,,,,,,,,,,,
,,6,0.737,6,0.737,0,32,32,96,1,136,chocolate,microwave,,88704,001,2022-04-28_16h27.46.789,SPAMnetsValid,2021.1.4,MacIntel,60.0024001,,,,,,,,,,,,,,,,,,,,,,,,,,,,,,,,,,,,,,,,,,,,,,,,,,,,,,,,,,,,,,,,,,,,,,,,,,,,,,,,,,,,,,,,,
,,7,0.6936,7,0.6936,0,33,33,6,1,151,microwave,onion,,88704,001,2022-04-28_16h27.46.789,SPAMnetsValid,2021.1.4,MacIntel,60.0024001,,,,,,,,,,,,,,,,,,,,,,,,,,,,,,,,,,,,,,,,,,,,,,,,,,,,,,,,,,,,,,,,,,,,,,,,,,,,,,,,,,,,,,,,,
,,6,0.7205,6,0.7205,0,34,34,59,1,164,cookie,garden,,88704,001,2022-04-28_16h27.46.789,SPAMnetsValid,2021.1.4,MacIntel,60.0024001,,,,,,,,,,,,,,,,,,,,,,,,,,,,,,,,,,,,,,,,,,,,,,,,,,,,,,,,,,,,,,,,,,,,,,,,,,,,,,,,,,,,,,,,,
,,7,0.5882,7,0.5882,0,35,35,85,1,115,refrigerator,tomato,,88704,001,2022-04-28_16h27.46.789,SPAMnetsValid,2021.1.4,MacIntel,60.0024001,,,,,,,,,,,,,,,,,,,,,,,,,,,,,,,,,,,,,,,,,,,,,,,,,,,,,,,,,,,,,,,,,,,,,,,,,,,,,,,,,,,,,,,,,
,,6,0.6718,6,0.6718,0,36,36,38,1,155,carrot,cookie,,88704,001,2022-04-28_16h27.46.789,SPAMnetsValid,2021.1.4,MacIntel,60.0024001,,,,,,,,,,,,,,,,,,,,,,,,,,,,,,,,,,,,,,,,,,,,,,,,,,,,,,,,,,,,,,,,,,,,,,,,,,,,,,,,,,,,,,,,,
,,7,0.5879,7,0.5879,0,37,37,63,1,137,microwave,tree,,88704,001,2022-04-28_16h27.46.789,SPAMnetsValid,2021.1.4,MacIntel,60.0024001,,,,,,,,,,,,,,,,,,,,,,,,,,,,,,,,,,,,,,,,,,,,,,,,,,,,,,,,,,,,,,,,,,,,,,,,,,,,,,,,,,,,,,,,,
,,7,0.7762,7,0.7762,0,38,38,62,1,189,onion,tree,,88704,001,2022-04-28_16h27.46.789,SPAMnetsValid,2021.1.4,MacIntel,60.0024001,,,,,,,,,,,,,,,,,,,,,,,,,,,,,,,,,,,,,,,,,,,,,,,,,,,,,,,,,,,,,,,,,,,,,,,,,,,,,,,,,,,,,,,,,
,,8,0.6387,8,0.6387,0,39,39,29,1,163,melon,refrigerator,,88704,001,2022-04-28_16h27.46.789,SPAMnetsValid,2021.1.4,MacIntel,60.0024001,,,,,,,,,,,,,,,,,,,,,,,,,,,,,,,,,,,,,,,,,,,,,,,,,,,,,,,,,,,,,,,,,,,,,,,,,,,,,,,,,,,,,,,,,
,,6,0.6433,6,0.6433,0,40,40,30,1,125,carrot,tree,,88704,001,2022-04-28_16h27.46.789,SPAMnetsValid,2021.1.4,MacIntel,60.0024001,,,,,,,,,,,,,,,,,,,,,,,,,,,,,,,,,,,,,,,,,,,,,,,,,,,,,,,,,,,,,,,,,,,,,,,,,,,,,,,,,,,,,,,,,
,,7,1.7107,7,1.7107,0,41,41,0,1,106,cake,strawberry,,88704,001,2022-04-28_16h27.46.789,SPAMnetsValid,2021.1.4,MacIntel,60.0024001,,,,,,,,,,,,,,,,,,,,,,,,,,,,,,,,,,,,,,,,,,,,,,,,,,,,,,,,,,,,,,,,,,,,,,,,,,,,,,,,,,,,,,,,,
,,6,0.8215,6,0.8215,0,42,42,24,1,169,onion,yogurt,,88704,001,2022-04-28_16h27.46.789,SPAMnetsValid,2021.1.4,MacIntel,60.0024001,,,,,,,,,,,,,,,,,,,,,,,,,,,,,,,,,,,,,,,,,,,,,,,,,,,,,,,,,,,,,,,,,,,,,,,,,,,,,,,,,,,,,,,,,
,,8,0.7282,8,0.7282,0,43,43,75,1,178,cactus,carrot,,88704,001,2022-04-28_16h27.46.789,SPAMnetsValid,2021.1.4,MacIntel,60.0024001,,,,,,,,,,,,,,,,,,,,,,,,,,,,,,,,,,,,,,,,,,,,,,,,,,,,,,,,,,,,,,,,,,,,,,,,,,,,,,,,,,,,,,,,,
,,7,0.7606,7,0.7606,0,44,44,89,1,140,cookie,refrigerator,,88704,001,2022-04-28_16h27.46.789,SPAMnetsValid,2021.1.4,MacIntel,60.0024001,,,,,,,,,,,,,,,,,,,,,,,,,,,,,,,,,,,,,,,,,,,,,,,,,,,,,,,,,,,,,,,,,,,,,,,,,,,,,,,,,,,,,,,,,
,,6,0.681,6,0.681,0,45,45,65,1,160,cookie,kitchen,,88704,001,2022-04-28_16h27.46.789,SPAMnetsValid,2021.1.4,MacIntel,60.0024001,,,,,,,,,,,,,,,,,,,,,,,,,,,,,,,,,,,,,,,,,,,,,,,,,,,,,,,,,,,,,,,,,,,,,,,,,,,,,,,,,,,,,,,,,
,,7,0.5616,7,0.5616,0,46,46,42,1,184,oven,pretzel,,88704,001,2022-04-28_16h27.46.789,SPAMnetsValid,2021.1.4,MacIntel,60.0024001,,,,,,,,,,,,,,,,,,,,,,,,,,,,,,,,,,,,,,,,,,,,,,,,,,,,,,,,,,,,,,,,,,,,,,,,,,,,,,,,,,,,,,,,,
,,6,0.5917,6,0.5917,0,47,47,48,1,186,kitchen,yogurt,,88704,001,2022-04-28_16h27.46.789,SPAMnetsValid,2021.1.4,MacIntel,60.0024001,,,,,,,,,,,,,,,,,,,,,,,,,,,,,,,,,,,,,,,,,,,,,,,,,,,,,,,,,,,,,,,,,,,,,,,,,,,,,,,,,,,,,,,,,
,,8,0.5409,8,0.5409,0,48,48,84,1,130,microwave,yogurt,,88704,001,2022-04-28_16h27.46.789,SPAMnetsValid,2021.1.4,MacIntel,60.0024001,,,,,,,,,,,,,,,,,,,,,,,,,,,,,,,,,,,,,,,,,,,,,,,,,,,,,,,,,,,,,,,,,,,,,,,,,,,,,,,,,,,,,,,,,
,,6,1.4072,6,1.4072,0,49,49,26,1,107,rose,tomato,,88704,001,2022-04-28_16h27.46.789,SPAMnetsValid,2021.1.4,MacIntel,60.0024001,,,,,,,,,,,,,,,,,,,,,,,,,,,,,,,,,,,,,,,,,,,,,,,,,,,,,,,,,,,,,,,,,,,,,,,,,,,,,,,,,,,,,,,,,
,,7,0.8888,7,0.8888,0,50,50,76,1,102,chocolate,refrigerator,,88704,001,2022-04-28_16h27.46.789,SPAMnetsValid,2021.1.4,MacIntel,60.0024001,,,,,,,,,,,,,,,,,,,,,,,,,,,,,,,,,,,,,,,,,,,,,,,,,,,,,,,,,,,,,,,,,,,,,,,,,,,,,,,,,,,,,,,,,
,,6,0.4228,6,0.4228,0,51,51,50,1,126,kitchen,tree,,88704,001,2022-04-28_16h27.46.789,SPAMnetsValid,2021.1.4,MacIntel,60.0024001,,,,,,,,,,,,,,,,,,,,,,,,,,,,,,,,,,,,,,,,,,,,,,,,,,,,,,,,,,,,,,,,,,,,,,,,,,,,,,,,,,,,,,,,,
,,7,0.6052,7,0.6052,0,52,52,34,1,153,carrot,pretzel,,88704,001,2022-04-28_16h27.46.789,SPAMnetsValid,2021.1.4,MacIntel,60.0024001,,,,,,,,,,,,,,,,,,,,,,,,,,,,,,,,,,,,,,,,,,,,,,,,,,,,,,,,,,,,,,,,,,,,,,,,,,,,,,,,,,,,,,,,,
,,8,0.6568,8,0.6568,0,53,53,7,1,188,flower,tree,,88704,001,2022-04-28_16h27.46.789,SPAMnetsValid,2021.1.4,MacIntel,60.0024001,,,,,,,,,,,,,,,,,,,,,,,,,,,,,,,,,,,,,,,,,,,,,,,,,,,,,,,,,,,,,,,,,,,,,,,,,,,,,,,,,,,,,,,,,
,,7,0.6375,7,0.6375,0,54,54,46,1,123,cookie,tree,,88704,001,2022-04-28_16h27.46.789,SPAMnetsValid,2021.1.4,MacIntel,60.0024001,,,,,,,,,,,,,,,,,,,,,,,,,,,,,,,,,,,,,,,,,,,,,,,,,,,,,,,,,,,,,,,,,,,,,,,,,,,,,,,,,,,,,,,,,
,,6,0.6715,6,0.6715,0,55,55,18,1,119,strawberry,tree,,88704,001,2022-04-28_16h27.46.789,SPAMnetsValid,2021.1.4,MacIntel,60.0024001,,,,,,,,,,,,,,,,,,,,,,,,,,,,,,,,,,,,,,,,,,,,,,,,,,,,,,,,,,,,,,,,,,,,,,,,,,,,,,,,,,,,,,,,,
,,7,0.5744,7,0.5744,0,56,56,36,1,161,kitchen,pretzel,,88704,001,2022-04-28_16h27.46.789,SPAMnetsValid,2021.1.4,MacIntel,60.0024001,,,,,,,,,,,,,,,,,,,,,,,,,,,,,,,,,,,,,,,,,,,,,,,,,,,,,,,,,,,,,,,,,,,,,,,,,,,,,,,,,,,,,,,,,
,,8,0.5943,8,0.5943,0,57,57,92,1,170,cookie,microwave,,88704,001,2022-04-28_16h27.46.789,SPAMnetsValid,2021.1.4,MacIntel,60.0024001,,,,,,,,,,,,,,,,,,,,,,,,,,,,,,,,,,,,,,,,,,,,,,,,,,,,,,,,,,,,,,,,,,,,,,,,,,,,,,,,,,,,,,,,,
,,7,0.6213,7,0.6213,0,58,58,58,1,144,cake,garden,,88704,001,2022-04-28_16h27.46.789,SPAMnetsValid,2021.1.4,MacIntel,60.0024001,,,,,,,,,,,,,,,,,,,,,,,,,,,,,,,,,,,,,,,,,,,,,,,,,,,,,,,,,,,,,,,,,,,,,,,,,,,,,,,,,,,,,,,,,
,,6,0.6053,6,0.6053,0,59,59,69,1,124,oven,refrigerator,,88704,001,2022-04-28_16h27.46.789,SPAMnetsValid,2021.1.4,MacIntel,60.0024001,,,,,,,,,,,,,,,,,,,,,,,,,,,,,,,,,,,,,,,,,,,,,,,,,,,,,,,,,,,,,,,,,,,,,,,,,,,,,,,,,,,,,,,,,
,,8,1.1252,8,1.1252,0,60,60,77,1,172,kitchen,melon,,88704,001,2022-04-28_16h27.46.789,SPAMnetsValid,2021.1.4,MacIntel,60.0024001,,,,,,,,,,,,,,,,,,,,,,,,,,,,,,,,,,,,,,,,,,,,,,,,,,,,,,,,,,,,,,,,,,,,,,,,,,,,,,,,,,,,,,,,,
,,7,0.6422,7,0.6422,0,61,61,88,1,171,cake,tomato,,88704,001,2022-04-28_16h27.46.789,SPAMnetsValid,2021.1.4,MacIntel,60.0024001,,,,,,,,,,,,,,,,,,,,,,,,,,,,,,,,,,,,,,,,,,,,,,,,,,,,,,,,,,,,,,,,,,,,,,,,,,,,,,,,,,,,,,,,,
,,7,1.18,7,1.18,0,62,62,2,1,174,cake,pretzel,,88704,001,2022-04-28_16h27.46.789,SPAMnetsValid,2021.1.4,MacIntel,60.0024001,,,,,,,,,,,,,,,,,,,,,,,,,,,,,,,,,,,,,,,,,,,,,,,,,,,,,,,,,,,,,,,,,,,,,,,,,,,,,,,,,,,,,,,,,
,,6,0.7363,6,0.7363,0,63,63,80,1,146,pretzel,tree,,88704,001,2022-04-28_16h27.46.789,SPAMnetsValid,2021.1.4,MacIntel,60.0024001,,,,,,,,,,,,,,,,,,,,,,,,,,,,,,,,,,,,,,,,,,,,,,,,,,,,,,,,,,,,,,,,,,,,,,,,,,,,,,,,,,,,,,,,,
,,8,0.5907,8,0.5907,0,64,64,14,1,120,microwave,oven,,88704,001,2022-04-28_16h27.46.789,SPAMnetsValid,2021.1.4,MacIntel,60.0024001,,,,,,,,,,,,,,,,,,,,,,,,,,,,,,,,,,,,,,,,,,,,,,,,,,,,,,,,,,,,,,,,,,,,,,,,,,,,,,,,,,,,,,,,,
,,7,0.6274,7,0.6274,0,65,65,17,1,99,garden,melon,,88704,001,2022-04-28_16h27.46.789,SPAMnetsValid,2021.1.4,MacIntel,60.0024001,,,,,,,,,,,,,,,,,,,,,,,,,,,,,,,,,,,,,,,,,,,,,,,,,,,,,,,,,,,,,,,,,,,,,,,,,,,,,,,,,,,,,,,,,
,,6,0.6205,6,0.6205,0,66,66,90,1,190,microwave,strawberry,,88704,001,2022-04-28_16h27.46.789,SPAMnetsValid,2021.1.4,MacIntel,60.0024001,,,,,,,,,,,,,,,,,,,,,,,,,,,,,,,,,,,,,,,,,,,,,,,,,,,,,,,,,,,,,,,,,,,,,,,,,,,,,,,,,,,,,,,,,
,,7,0.5731,7,0.5731,0,67,67,19,1,183,cake,rose,,88704,001,2022-04-28_16h27.46.789,SPAMnetsValid,2021.1.4,MacIntel,60.0024001,,,,,,,,,,,,,,,,,,,,,,,,,,,,,,,,,,,,,,,,,,,,,,,,,,,,,,,,,,,,,,,,,,,,,,,,,,,,,,,,,,,,,,,,,
,,6,0.5869,6,0.5869,0,68,68,13,1,105,cactus,oven,,88704,001,2022-04-28_16h27.46.789,SPAMnetsValid,2021.1.4,MacIntel,60.0024001,,,,,,,,,,,,,,,,,,,,,,,,,,,,,,,,,,,,,,,,,,,,,,,,,,,,,,,,,,,,,,,,,,,,,,,,,,,,,,,,,,,,,,,,,
,,7,0.6782,7,0.6782,0,69,69,40,1,165,onion,rose,,88704,001,2022-04-28_16h27.46.789,SPAMnetsValid,2021.1.4,MacIntel,60.0024001,,,,,,,,,,,,,,,,,,,,,,,,,,,,,,,,,,,,,,,,,,,,,,,,,,,,,,,,,,,,,,,,,,,,,,,,,,,,,,,,,,,,,,,,,
,,8,2.5879,8,2.5879,0,70,70,74,1,128,melon,microwave,,88704,001,2022-04-28_16h27.46.789,SPAMnetsValid,2021.1.4,MacIntel,60.0024001,,,,,,,,,,,,,,,,,,,,,,,,,,,,,,,,,,,,,,,,,,,,,,,,,,,,,,,,,,,,,,,,,,,,,,,,,,,,,,,,,,,,,,,,,
,,6,0.5226,6,0.5226,0,71,71,5,1,108,carrot,chocolate,,88704,001,2022-04-28_16h27.46.789,SPAMnetsValid,2021.1.4,MacIntel,60.0024001,,,,,,,,,,,,,,,,,,,,,,,,,,,,,,,,,,,,,,,,,,,,,,,,,,,,,,,,,,,,,,,,,,,,,,,,,,,,,,,,,,,,,,,,,
,,7,0.6922,7,0.6922,0,72,72,16,1,111,carrot,microwave,,88704,001,2022-04-28_16h27.46.789,SPAMnetsValid,2021.1.4,MacIntel,60.0024001,,,,,,,,,,,,,,,,,,,,,,,,,,,,,,,,,,,,,,,,,,,,,,,,,,,,,,,,,,,,,,,,,,,,,,,,,,,,,,,,,,,,,,,,,
,,7,1.0547,7,1.0547,0,73,73,20,1,149,broom,tomato,,88704,001,2022-04-28_16h27.46.789,SPAMnetsValid,2021.1.4,MacIntel,60.0024001,,,,,,,,,,,,,,,,,,,,,,,,,,,,,,,,,,,,,,,,,,,,,,,,,,,,,,,,,,,,,,,,,,,,,,,,,,,,,,,,,,,,,,,,,
,,6,0.7388,6,0.7388,0,74,74,60,1,122,flower,garden,,88704,001,2022-04-28_16h27.46.789,SPAMnetsValid,2021.1.4,MacIntel,60.0024001,,,,,,,,,,,,,,,,,,,,,,,,,,,,,,,,,,,,,,,,,,,,,,,,,,,,,,,,,,,,,,,,,,,,,,,,,,,,,,,,,,,,,,,,,
,,7,0.6604,7,0.6604,0,75,75,55,1,143,pretzel,rose,,88704,001,2022-04-28_16h27.46.789,SPAMnetsValid,2021.1.4,MacIntel,60.0024001,,,,,,,,,,,,,,,,,,,,,,,,,,,,,,,,,,,,,,,,,,,,,,,,,,,,,,,,,,,,,,,,,,,,,,,,,,,,,,,,,,,,,,,,,
,,7,1.5721,7,1.5721,0,76,76,41,1,175,melon,onion,,88704,001,2022-04-28_16h27.46.789,SPAMnetsValid,2021.1.4,MacIntel,60.0024001,,,,,,,,,,,,,,,,,,,,,,,,,,,,,,,,,,,,,,,,,,,,,,,,,,,,,,,,,,,,,,,,,,,,,,,,,,,,,,,,,,,,,,,,,
,,7,0.6397,7,0.6397,0,77,77,49,1,152,cactus,strawberry,,88704,001,2022-04-28_16h27.46.789,SPAMnetsValid,2021.1.4,MacIntel,60.0024001,,,,,,,,,,,,,,,,,,,,,,,,,,,,,,,,,,,,,,,,,,,,,,,,,,,,,,,,,,,,,,,,,,,,,,,,,,,,,,,,,,,,,,,,,
,,7,0.6392,7,0.6392,0,78,78,83,1,100,garden,tomato,,88704,001,2022-04-28_16h27.46.789,SPAMnetsValid,2021.1.4,MacIntel,60.0024001,,,,,,,,,,,,,,,,,,,,,,,,,,,,,,,,,,,,,,,,,,,,,,,,,,,,,,,,,,,,,,,,,,,,,,,,,,,,,,,,,,,,,,,,,
,,6,0.5906,6,0.5906,0,79,79,54,1,101,cactus,kitchen,,88704,001,2022-04-28_16h27.46.789,SPAMnetsValid,2021.1.4,MacIntel,60.0024001,,,,,,,,,,,,,,,,,,,,,,,,,,,,,,,,,,,,,,,,,,,,,,,,,,,,,,,,,,,,,,,,,,,,,,,,,,,,,,,,,,,,,,,,,
,,7,0.6552,7,0.6552,0,80,80,78,1,132,broom,tree,,88704,001,2022-04-28_16h27.46.789,SPAMnetsValid,2021.1.4,MacIntel,60.0024001,,,,,,,,,,,,,,,,,,,,,,,,,,,,,,,,,,,,,,,,,,,,,,,,,,,,,,,,,,,,,,,,,,,,,,,,,,,,,,,,,,,,,,,,,
,,8,0.6247,8,0.6247,0,81,81,93,1,134,carrot,flower,,88704,001,2022-04-28_16h27.46.789,SPAMnetsValid,2021.1.4,MacIntel,60.0024001,,,,,,,,,,,,,,,,,,,,,,,,,,,,,,,,,,,,,,,,,,,,,,,,,,,,,,,,,,,,,,,,,,,,,,,,,,,,,,,,,,,,,,,,,
,,7,0.7257,7,0.7257,0,82,82,39,1,112,cake,carrot,,88704,001,2022-04-28_16h27.46.789,SPAMnetsValid,2021.1.4,MacIntel,60.0024001,,,,,,,,,,,,,,,,,,,,,,,,,,,,,,,,,,,,,,,,,,,,,,,,,,,,,,,,,,,,,,,,,,,,,,,,,,,,,,,,,,,,,,,,,
,,6,0.6144,6,0.6144,0,83,83,3,1,129,cactus,refrigerator,,88704,001,2022-04-28_16h27.46.789,SPAMnetsValid,2021.1.4,MacIntel,60.0024001,,,,,,,,,,,,,,,,,,,,,,,,,,,,,,,,,,,,,,,,,,,,,,,,,,,,,,,,,,,,,,,,,,,,,,,,,,,,,,,,,,,,,,,,,
,,7,0.6385,7,0.6385,0,84,84,37,1,139,carrot,strawberry,,88704,001,2022-04-28_16h27.46.789,SPAMnetsValid,2021.1.4,MacIntel,60.0024001,,,,,,,,,,,,,,,,,,,,,,,,,,,,,,,,,,,,,,,,,,,,,,,,,,,,,,,,,,,,,,,,,,,,,,,,,,,,,,,,,,,,,,,,,
,,6,0.7717,6,0.7717,0,85,85,67,1,96,oven,strawberry,,88704,001,2022-04-28_16h27.46.789,SPAMnetsValid,2021.1.4,MacIntel,60.0024001,,,,,,,,,,,,,,,,,,,,,,,,,,,,,,,,,,,,,,,,,,,,,,,,,,,,,,,,,,,,,,,,,,,,,,,,,,,,,,,,,,,,,,,,,
,,7,0.5533,7,0.5533,0,86,86,22,1,142,garden,tree,,88704,001,2022-04-28_16h27.46.789,SPAMnetsValid,2021.1.4,MacIntel,60.0024001,,,,,,,,,,,,,,,,,,,,,,,,,,,,,,,,,,,,,,,,,,,,,,,,,,,,,,,,,,,,,,,,,,,,,,,,,,,,,,,,,,,,,,,,,
,,5,0.5893,5,0.5893,0,87,87,4,1,109,broom,strawberry,,88704,001,2022-04-28_16h27.46.789,SPAMnetsValid,2021.1.4,MacIntel,60.0024001,,,,,,,,,,,,,,,,,,,,,,,,,,,,,,,,,,,,,,,,,,,,,,,,,,,,,,,,,,,,,,,,,,,,,,,,,,,,,,,,,,,,,,,,,
,,6,1.2908,6,1.2908,0,88,88,15,1,145,cactus,yogurt,,88704,001,2022-04-28_16h27.46.789,SPAMnetsValid,2021.1.4,MacIntel,60.0024001,,,,,,,,,,,,,,,,,,,,,,,,,,,,,,,,,,,,,,,,,,,,,,,,,,,,,,,,,,,,,,,,,,,,,,,,,,,,,,,,,,,,,,,,,
,,7,0.6245,7,0.6245,0,89,89,1,1,173,kitchen,tomato,,88704,001,2022-04-28_16h27.46.789,SPAMnetsValid,2021.1.4,MacIntel,60.0024001,,,,,,,,,,,,,,,,,,,,,,,,,,,,,,,,,,,,,,,,,,,,,,,,,,,,,,,,,,,,,,,,,,,,,,,,,,,,,,,,,,,,,,,,,
,,6,0.5792,6,0.5792,0,90,90,44,1,116,cake,chocolate,,88704,001,2022-04-28_16h27.46.789,SPAMnetsValid,2021.1.4,MacIntel,60.0024001,,,,,,,,,,,,,,,,,,,,,,,,,,,,,,,,,,,,,,,,,,,,,,,,,,,,,,,,,,,,,,,,,,,,,,,,,,,,,,,,,,,,,,,,,
,,7,0.6083,7,0.6083,0,91,91,56,1,113,refrigerator,strawberry,,88704,001,2022-04-28_16h27.46.789,SPAMnetsValid,2021.1.4,MacIntel,60.0024001,,,,,,,,,,,,,,,,,,,,,,,,,,,,,,,,,,,,,,,,,,,,,,,,,,,,,,,,,,,,,,,,,,,,,,,,,,,,,,,,,,,,,,,,,
,,8,0.7304,8,0.7304,0,92,92,35,1,147,cake,refrigerator,,88704,001,2022-04-28_16h27.46.789,SPAMnetsValid,2021.1.4,MacIntel,60.0024001,,,,,,,,,,,,,,,,,,,,,,,,,,,,,,,,,,,,,,,,,,,,,,,,,,,,,,,,,,,,,,,,,,,,,,,,,,,,,,,,,,,,,,,,,
,,6,0.7599,6,0.7599,0,93,93,66,1,150,microwave,refrigerator,,88704,001,2022-04-28_16h27.46.789,SPAMnetsValid,2021.1.4,MacIntel,60.0024001,,,,,,,,,,,,,,,,,,,,,,,,,,,,,,,,,,,,,,,,,,,,,,,,,,,,,,,,,,,,,,,,,,,,,,,,,,,,,,,,,,,,,,,,,
,,7,0.5419,7,0.5419,0,94,94,68,1,180,tree,yogurt,,88704,001,2022-04-28_16h27.46.789,SPAMnetsValid,2021.1.4,MacIntel,60.0024001,,,,,,,,,,,,,,,,,,,,,,,,,,,,,,,,,,,,,,,,,,,,,,,,,,,,,,,,,,,,,,,,,,,,,,,,,,,,,,,,,,,,,,,,,
,,6,0.5688,6,0.5688,0,95,95,32,1,182,flower,refrigerator,,88704,001,2022-04-28_16h27.46.789,SPAMnetsValid,2021.1.4,MacIntel,60.0024001,,,,,,,,,,,,,,,,,,,,,,,,,,,,,,,,,,,,,,,,,,,,,,,,,,,,,,,,,,,,,,,,,,,,,,,,,,,,,,,,,,,,,,,,,
,,8,0.6709,8,0.6709,0,96,96,81,1,104,garden,microwave,,88704,001,2022-04-28_16h27.46.789,SPAMnetsValid,2021.1.4,MacIntel,60.0024001,,,,,,,,,,,,,,,,,,,,,,,,,,,,,,,,,,,,,,,,,,,,,,,,,,,,,,,,,,,,,,,,,,,,,,,,,,,,,,,,,,,,,,,,,
,,,,,,,,,,,,,,,88704,001,2022-04-28_16h27.46.789,SPAMnetsValid,2021.1.4,MacIntel,60.0024001,0,0,0,0,1,,,,,,,,,,,,,,,,,,,,,,,,,,,,,,,,,,,,,,,,,,,,,,,,,,,,,,,,,,,,,,,,,,,,,,,,,,,,,,,,,,,,
,,,,,,,,,,,,,,,88704,001,2022-04-28_16h27.46.789,SPAMnetsValid,2021.1.4,MacIntel,60.0024001,,,,,,0,0,0,1,1,0,1,,,,,,,,,,,,,,,,,,,,,,,,,,,,,,,,,,,,,,,,,,,,,,,,,,,,,,,,,,,,,,,,,,,,,,,,,,,,,
,,,,7,0.8493,,,,,,16,chocolate,flower,,88704,001,2022-04-28_16h27.46.789,SPAMnetsValid,2021.1.4,MacIntel,60.0024001,,,,,,,,,,,,,7,0.8493,0,0,0,22,1,,,,,,,,,,,,,,,,,,,,,,,,,,,,,,,,,,,,,,,,,,,,,,,,,,,,,,,,,,,,,,,,,,,,,,
,,,,6,0.9416,,,,,,45,onion,pretzel,,88704,001,2022-04-28_16h27.46.789,SPAMnetsValid,2021.1.4,MacIntel,60.0024001,,,,,,,,,,,,,6,0.9416,0,1,1,69,1,,,,,,,,,,,,,,,,,,,,,,,,,,,,,,,,,,,,,,,,,,,,,,,,,,,,,,,,,,,,,,,,,,,,,,
,,,,7,0.6396,,,,,,1,rose,yogurt,,88704,001,2022-04-28_16h27.46.789,SPAMnetsValid,2021.1.4,MacIntel,60.0024001,,,,,,,,,,,,,7,0.6396,0,2,2,55,1,,,,,,,,,,,,,,,,,,,,,,,,,,,,,,,,,,,,,,,,,,,,,,,,,,,,,,,,,,,,,,,,,,,,,,
,,,,7,1.4649,,,,,,31,cactus,pretzel,,88704,001,2022-04-28_16h27.46.789,SPAMnetsValid,2021.1.4,MacIntel,60.0024001,,,,,,,,,,,,,7,1.4649,0,3,3,1,1,,,,,,,,,,,,,,,,,,,,,,,,,,,,,,,,,,,,,,,,,,,,,,,,,,,,,,,,,,,,,,,,,,,,,,
,,,,6,0.6108,,,,,,95,broom,refrigerator,,88704,001,2022-04-28_16h27.46.789,SPAMnetsValid,2021.1.4,MacIntel,60.0024001,,,,,,,,,,,,,6,0.6108,0,4,4,90,1,,,,,,,,,,,,,,,,,,,,,,,,,,,,,,,,,,,,,,,,,,,,,,,,,,,,,,,,,,,,,,,,,,,,,,
,,,,7,0.5385,,,,,,36,broom,kitchen,,88704,001,2022-04-28_16h27.46.789,SPAMnetsValid,2021.1.4,MacIntel,60.0024001,,,,,,,,,,,,,7,0.5385,0,5,5,76,1,,,,,,,,,,,,,,,,,,,,,,,,,,,,,,,,,,,,,,,,,,,,,,,,,,,,,,,,,,,,,,,,,,,,,,
,,,,6,0.6358,,,,,,24,cookie,tomato,,88704,001,2022-04-28_16h27.46.789,SPAMnetsValid,2021.1.4,MacIntel,60.0024001,,,,,,,,,,,,,6,0.6358,0,6,6,68,1,,,,,,,,,,,,,,,,,,,,,,,,,,,,,,,,,,,,,,,,,,,,,,,,,,,,,,,,,,,,,,,,,,,,,,
,,,,7,0.4976,,,,,,47,onion,tomato,,88704,001,2022-04-28_16h27.46.789,SPAMnetsValid,2021.1.4,MacIntel,60.0024001,,,,,,,,,,,,,7,0.4976,0,7,7,51,1,,,,,,,,,,,,,,,,,,,,,,,,,,,,,,,,,,,,,,,,,,,,,,,,,,,,,,,,,,,,,,,,,,,,,,
,,,,6,0.6378,,,,,,39,melon,pretzel,,88704,001,2022-04-28_16h27.46.789,SPAMnetsValid,2021.1.4,MacIntel,60.0024001,,,,,,,,,,,,,6,0.6378,0,8,8,20,1,,,,,,,,,,,,,,,,,,,,,,,,,,,,,,,,,,,,,,,,,,,,,,,,,,,,,,,,,,,,,,,,,,,,,,
,,,,8,0.7145,,,,,,60,cactus,onion,,88704,001,2022-04-28_16h27.46.789,SPAMnetsValid,2021.1.4,MacIntel,60.0024001,,,,,,,,,,,,,8,0.7145,0,9,9,81,1,,,,,,,,,,,,,,,,,,,,,,,,,,,,,,,,,,,,,,,,,,,,,,,,,,,,,,,,,,,,,,,,,,,,,,
,,,,7,0.6066,,,,,,48,flower,oven,,88704,001,2022-04-28_16h27.46.789,SPAMnetsValid,2021.1.4,MacIntel,60.0024001,,,,,,,,,,,,,7,0.6066,0,10,10,15,1,,,,,,,,,,,,,,,,,,,,,,,,,,,,,,,,,,,,,,,,,,,,,,,,,,,,,,,,,,,,,,,,,,,,,,
,,,,6,0.5555,,,,,,26,tomato,yogurt,,88704,001,2022-04-28_16h27.46.789,SPAMnetsValid,2021.1.4,MacIntel,60.0024001,,,,,,,,,,,,,6,0.5555,0,11,11,13,1,,,,,,,,,,,,,,,,,,,,,,,,,,,,,,,,,,,,,,,,,,,,,,,,,,,,,,,,,,,,,,,,,,,,,,
,,,,7,0.5324,,,,,,192,microwave,microwave,CHECK,88704,001,2022-04-28_16h27.46.789,SPAMnetsValid,2021.1.4,MacIntel,60.0024001,,,,,,,,,,,,,7,0.5324,0,12,12,53,1,,,,,,,,,,,,,,,,,,,,,,,,,,,,,,,,,,,,,,,,,,,,,,,,,,,,,,,,,,,,,,,,,,,,,,
,,,,8,0.5953,,,,,,2,kitchen,onion,,88704,001,2022-04-28_16h27.46.789,SPAMnetsValid,2021.1.4,MacIntel,60.0024001,,,,,,,,,,,,,8,0.5953,0,13,13,91,1,,,,,,,,,,,,,,,,,,,,,,,,,,,,,,,,,,,,,,,,,,,,,,,,,,,,,,,,,,,,,,,,,,,,,,
,,,,7,0.5468,,,,,,35,flower,pretzel,,88704,001,2022-04-28_16h27.46.789,SPAMnetsValid,2021.1.4,MacIntel,60.0024001,,,,,,,,,,,,,7,0.5468,0,14,14,26,1,,,,,,,,,,,,,,,,,,,,,,,,,,,,,,,,,,,,,,,,,,,,,,,,,,,,,,,,,,,,,,,,,,,,,,
,,,,6,0.4562,,,,,,69,carrot,refrigerator,,88704,001,2022-04-28_16h27.46.789,SPAMnetsValid,2021.1.4,MacIntel,60.0024001,,,,,,,,,,,,,6,0.4562,0,15,15,75,1,,,,,,,,,,,,,,,,,,,,,,,,,,,,,,,,,,,,,,,,,,,,,,,,,,,,,,,,,,,,,,,,,,,,,,
,,,,7,0.4616,,,,,,18,onion,refrigerator,,88704,001,2022-04-28_16h27.46.789,SPAMnetsValid,2021.1.4,MacIntel,60.0024001,,,,,,,,,,,,,7,0.4616,0,16,16,62,1,,,,,,,,,,,,,,,,,,,,,,,,,,,,,,,,,,,,,,,,,,,,,,,,,,,,,,,,,,,,,,,,,,,,,,
,,,,6,0.6706,,,,,,75,cookie,onion,,88704,001,2022-04-28_16h27.46.789,SPAMnetsValid,2021.1.4,MacIntel,60.0024001,,,,,,,,,,,,,6,0.6706,0,17,17,9,1,,,,,,,,,,,,,,,,,,,,,,,,,,,,,,,,,,,,,,,,,,,,,,,,,,,,,,,,,,,,,,,,,,,,,,
,,,,8,0.6382,,,,,,3,cake,oven,,88704,001,2022-04-28_16h27.46.789,SPAMnetsValid,2021.1.4,MacIntel,60.0024001,,,,,,,,,,,,,8,0.6382,0,18,18,30,1,,,,,,,,,,,,,,,,,,,,,,,,,,,,,,,,,,,,,,,,,,,,,,,,,,,,,,,,,,,,,,,,,,,,,,
,,,,6,1.2046,,,,,,7,melon,tree,,88704,001,2022-04-28_16h27.46.789,SPAMnetsValid,2021.1.4,MacIntel,60.0024001,,,,,,,,,,,,,6,1.2046,0,19,19,77,1,,,,,,,,,,,,,,,,,,,,,,,,,,,,,,,,,,,,,,,,,,,,,,,,,,,,,,,,,,,,,,,,,,,,,,
,,,,7,0.6098,,,,,,65,broom,garden,,88704,001,2022-04-28_16h27.46.789,SPAMnetsValid,2021.1.4,MacIntel,60.0024001,,,,,,,,,,,,,7,0.6098,0,20,20,23,1,,,,,,,,,,,,,,,,,,,,,,,,,,,,,,,,,,,,,,,,,,,,,,,,,,,,,,,,,,,,,,,,,,,,,,
,,,,6,0.5544,,,,,,61,strawberry,tomato,,88704,001,2022-04-28_16h27.46.789,SPAMnetsValid,2021.1.4,MacIntel,60.0024001,,,,,,,,,,,,,6,0.5544,0,21,21,80,1,,,,,,,,,,,,,,,,,,,,,,,,,,,,,,,,,,,,,,,,,,,,,,,,,,,,,,,,,,,,,,,,,,,,,,
,,,,8,0.6321,,,,,,81,pretzel,yogurt,,88704,001,2022-04-28_16h27.46.789,SPAMnetsValid,2021.1.4,MacIntel,60.0024001,,,,,,,,,,,,,8,0.6321,0,22,22,50,1,,,,,,,,,,,,,,,,,,,,,,,,,,,,,,,,,,,,,,,,,,,,,,,,,,,,,,,,,,,,,,,,,,,,,,
,,,,7,0.4629,,,,,,83,broom,carrot,,88704,001,2022-04-28_16h27.46.789,SPAMnetsValid,2021.1.4,MacIntel,60.0024001,,,,,,,,,,,,,7,0.4629,0,23,23,4,1,,,,,,,,,,,,,,,,,,,,,,,,,,,,,,,,,,,,,,,,,,,,,,,,,,,,,,,,,,,,,,,,,,,,,,
,,,,6,0.5271,,,,,,8,broom,melon,,88704,001,2022-04-28_16h27.46.789,SPAMnetsValid,2021.1.4,MacIntel,60.0024001,,,,,,,,,,,,,6,0.5271,0,24,24,59,1,,,,,,,,,,,,,,,,,,,,,,,,,,,,,,,,,,,,,,,,,,,,,,,,,,,,,,,,,,,,,,,,,,,,,,
,,,,8,0.5212,,,,,,52,carrot,tomato,,88704,001,2022-04-28_16h27.46.789,SPAMnetsValid,2021.1.4,MacIntel,60.0024001,,,,,,,,,,,,,8,0.5212,0,25,25,95,1,,,,,,,,,,,,,,,,,,,,,,,,,,,,,,,,,,,,,,,,,,,,,,,,,,,,,,,,,,,,,,,,,,,,,,
,,,,7,0.5401,,,,,,57,flower,kitchen,,88704,001,2022-04-28_16h27.46.789,SPAMnetsValid,2021.1.4,MacIntel,60.0024001,,,,,,,,,,,,,7,0.5401,0,26,26,49,1,,,,,,,,,,,,,,,,,,,,,,,,,,,,,,,,,,,,,,,,,,,,,,,,,,,,,,,,,,,,,,,,,,,,,,
,,,,6,0.4865,,,,,,55,tomato,tree,,88704,001,2022-04-28_16h27.46.789,SPAMnetsValid,2021.1.4,MacIntel,60.0024001,,,,,,,,,,,,,6,0.4865,0,27,27,35,1,,,,,,,,,,,,,,,,,,,,,,,,,,,,,,,,,,,,,,,,,,,,,,,,,,,,,,,,,,,,,,,,,,,,,,
,,,,5,0.71,,,,,,92,broom,flower,,88704,001,2022-04-28_16h27.46.789,SPAMnetsValid,2021.1.4,MacIntel,60.0024001,,,,,,,,,,,,,5,0.71,0,28,28,88,1,,,,,,,,,,,,,,,,,,,,,,,,,,,,,,,,,,,,,,,,,,,,,,,,,,,,,,,,,,,,,,,,,,,,,,
,,,,6,0.5542,,,,,,4,chocolate,pretzel,,88704,001,2022-04-28_16h27.46.789,SPAMnetsValid,2021.1.4,MacIntel,60.0024001,,,,,,,,,,,,,6,0.5542,0,29,29,52,1,,,,,,,,,,,,,,,,,,,,,,,,,,,,,,,,,,,,,,,,,,,,,,,,,,,,,,,,,,,,,,,,,,,,,,
,,,,7,0.6113,,,,,,32,cake,microwave,,88704,001,2022-04-28_16h27.46.789,SPAMnetsValid,2021.1.4,MacIntel,60.0024001,,,,,,,,,,,,,7,0.6113,0,30,30,33,1,,,,,,,,,,,,,,,,,,,,,,,,,,,,,,,,,,,,,,,,,,,,,,,,,,,,,,,,,,,,,,,,,,,,,,
,,,,8,134.8809,,,,,,90,cactus,cake,,88704,001,2022-04-28_16h27.46.789,SPAMnetsValid,2021.1.4,MacIntel,60.0024001,,,,,,,,,,,,,8,134.8809,0,31,31,85,1,,,,,,,,,,,,,,,,,,,,,,,,,,,,,,,,,,,,,,,,,,,,,,,,,,,,,,,,,,,,,,,,,,,,,,
,,,,6,0.6377,,,,,,91,microwave,rose,,88704,001,2022-04-28_16h27.46.789,SPAMnetsValid,2021.1.4,MacIntel,60.0024001,,,,,,,,,,,,,6,0.6377,0,32,32,84,1,,,,,,,,,,,,,,,,,,,,,,,,,,,,,,,,,,,,,,,,,,,,,,,,,,,,,,,,,,,,,,,,,,,,,,
,,,,7,0.5967,,,,,,85,cake,tree,,88704,001,2022-04-28_16h27.46.789,SPAMnetsValid,2021.1.4,MacIntel,60.0024001,,,,,,,,,,,,,7,0.5967,0,33,33,18,1,,,,,,,,,,,,,,,,,,,,,,,,,,,,,,,,,,,,,,,,,,,,,,,,,,,,,,,,,,,,,,,,,,,,,,
,,,,6,0.6099,,,,,,58,garden,oven,,88704,001,2022-04-28_16h27.46.789,SPAMnetsValid,2021.1.4,MacIntel,60.0024001,,,,,,,,,,,,,6,0.6099,0,34,34,37,1,,,,,,,,,,,,,,,,,,,,,,,,,,,,,,,,,,,,,,,,,,,,,,,,,,,,,,,,,,,,,,,,,,,,,,
,,,,7,0.5045,,,,,,37,garden,refrigerator,,88704,001,2022-04-28_16h27.46.789,SPAMnetsValid,2021.1.4,MacIntel,60.0024001,,,,,,,,,,,,,7,0.5045,0,35,35,11,1,,,,,,,,,,,,,,,,,,,,,,,,,,,,,,,,,,,,,,,,,,,,,,,,,,,,,,,,,,,,,,,,,,,,,,
,,,,6,0.6385,,,,,,84,oven,tomato,,88704,001,2022-04-28_16h27.46.789,SPAMnetsValid,2021.1.4,MacIntel,60.0024001,,,,,,,,,,,,,6,0.6385,0,36,36,28,1,,,,,,,,,,,,,,,,,,,,,,,,,,,,,,,,,,,,,,,,,,,,,,,,,,,,,,,,,,,,,,,,,,,,,,
,,,,7,0.6431,,,,,,76,garden,rose,,88704,001,2022-04-28_16h27.46.789,SPAMnetsValid,2021.1.4,MacIntel,60.0024001,,,,,,,,,,,,,7,0.6431,0,37,37,19,1,,,,,,,,,,,,,,,,,,,,,,,,,,,,,,,,,,,,,,,,,,,,,,,,,,,,,,,,,,,,,,,,,,,,,,
,,,,6,0.6771,,,,,,93,kitchen,oven,,88704,001,2022-04-28_16h27.46.789,SPAMnetsValid,2021.1.4,MacIntel,60.0024001,,,,,,,,,,,,,6,0.6771,0,38,38,82,1,,,,,,,,,,,,,,,,,,,,,,,,,,,,,,,,,,,,,,,,,,,,,,,,,,,,,,,,,,,,,,,,,,,,,,
,,,,7,0.591,,,,,,21,cake,onion,,88704,001,2022-04-28_16h27.46.789,SPAMnetsValid,2021.1.4,MacIntel,60.0024001,,,,,,,,,,,,,7,0.591,0,39,39,63,1,,,,,,,,,,,,,,,,,,,,,,,,,,,,,,,,,,,,,,,,,,,,,,,,,,,,,,,,,,,,,,,,,,,,,,
,,,,7,0.5604,,,,,,70,chocolate,onion,,88704,001,2022-04-28_16h27.46.789,SPAMnetsValid,2021.1.4,MacIntel,60.0024001,,,,,,,,,,,,,7,0.5604,0,40,40,74,1,,,,,,,,,,,,,,,,,,,,,,,,,,,,,,,,,,,,,,,,,,,,,,,,,,,,,,,,,,,,,,,,,,,,,,
,,,,6,0.6548,,,,,,50,carrot,rose,,88704,001,2022-04-28_16h27.46.789,SPAMnetsValid,2021.1.4,MacIntel,60.0024001,,,,,,,,,,,,,6,0.6548,0,41,41,73,1,,,,,,,,,,,,,,,,,,,,,,,,,,,,,,,,,,,,,,,,,,,,,,,,,,,,,,,,,,,,,,,,,,,,,,
,,,,7,0.5958,,,,,,22,kitchen,strawberry,,88704,001,2022-04-28_16h27.46.789,SPAMnetsValid,2021.1.4,MacIntel,60.0024001,,,,,,,,,,,,,7,0.5958,0,42,42,2,1,,,,,,,,,,,,,,,,,,,,,,,,,,,,,,,,,,,,,,,,,,,,,,,,,,,,,,,,,,,,,,,,,,,,,,
,,,,6,0.687,,,,,,27,cactus,cookie,,88704,001,2022-04-28_16h27.46.789,SPAMnetsValid,2021.1.4,MacIntel,60.0024001,,,,,,,,,,,,,6,0.687,0,43,43,17,1,,,,,,,,,,,,,,,,,,,,,,,,,,,,,,,,,,,,,,,,,,,,,,,,,,,,,,,,,,,,,,,,,,,,,,
,,,,7,0.5318,,,,,,86,oven,rose,,88704,001,2022-04-28_16h27.46.789,SPAMnetsValid,2021.1.4,MacIntel,60.0024001,,,,,,,,,,,,,7,0.5318,0,44,44,79,1,,,,,,,,,,,,,,,,,,,,,,,,,,,,,,,,,,,,,,,,,,,,,,,,,,,,,,,,,,,,,,,,,,,,,,
,,,,6,0.5122,,,,,,67,flower,yogurt,,88704,001,2022-04-28_16h27.46.789,SPAMnetsValid,2021.1.4,MacIntel,60.0024001,,,,,,,,,,,,,6,0.5122,0,45,45,12,1,,,,,,,,,,,,,,,,,,,,,,,,,,,,,,,,,,,,,,,,,,,,,,,,,,,,,,,,,,,,,,,,,,,,,,
,,,,7,0.5806,,,,,,43,chocolate,tomato,,88704,001,2022-04-28_16h27.46.789,SPAMnetsValid,2021.1.4,MacIntel,60.0024001,,,,,,,,,,,,,7,0.5806,0,46,46,8,1,,,,,,,,,,,,,,,,,,,,,,,,,,,,,,,,,,,,,,,,,,,,,,,,,,,,,,,,,,,,,,,,,,,,,,
,,,,6,0.4624,,,,,,20,rose,tree,,88704,001,2022-04-28_16h27.46.789,SPAMnetsValid,2021.1.4,MacIntel,60.0024001,,,,,,,,,,,,,6,0.4624,0,47,47,66,1,,,,,,,,,,,,,,,,,,,,,,,,,,,,,,,,,,,,,,,,,,,,,,,,,,,,,,,,,,,,,,,,,,,,,,
,,,,7,0.4892,,,,,,13,broom,yogurt,,88704,001,2022-04-28_16h27.46.789,SPAMnetsValid,2021.1.4,MacIntel,60.0024001,,,,,,,,,,,,,7,0.4892,0,48,48,5,1,,,,,,,,,,,,,,,,,,,,,,,,,,,,,,,,,,,,,,,,,,,,,,,,,,,,,,,,,,,,,,,,,,,,,,
,,,,5,1.1051,,,,,,82,cake,kitchen,,88704,001,2022-04-28_16h27.46.789,SPAMnetsValid,2021.1.4,MacIntel,60.0024001,,,,,,,,,,,,,5,1.1051,0,49,49,96,1,,,,,,,,,,,,,,,,,,,,,,,,,,,,,,,,,,,,,,,,,,,,,,,,,,,,,,,,,,,,,,,,,,,,,,
,,,,4,1.5051,,,,,,56,cactus,tree,,88704,001,2022-04-28_16h27.46.789,SPAMnetsValid,2021.1.4,MacIntel,60.0024001,,,,,,,,,,,,,4,1.5051,0,50,50,21,1,,,,,,,,,,,,,,,,,,,,,,,,,,,,,,,,,,,,,,,,,,,,,,,,,,,,,,,,,,,,,,,,,,,,,,
,,,,6,0.9307,,,,,,87,carrot,yogurt,,88704,001,2022-04-28_16h27.46.789,SPAMnetsValid,2021.1.4,MacIntel,60.0024001,,,,,,,,,,,,,6,0.9307,0,51,51,6,1,,,,,,,,,,,,,,,,,,,,,,,,,,,,,,,,,,,,,,,,,,,,,,,,,,,,,,,,,,,,,,,,,,,,,,
,,,,7,0.6911,,,,,,71,broom,rose,,88704,001,2022-04-28_16h27.46.789,SPAMnetsValid,2021.1.4,MacIntel,60.0024001,,,,,,,,,,,,,7,0.6911,0,52,52,61,1,,,,,,,,,,,,,,,,,,,,,,,,,,,,,,,,,,,,,,,,,,,,,,,,,,,,,,,,,,,,,,,,,,,,,,
,,,,8,0.6239,,,,,,46,garden,yogurt,,88704,001,2022-04-28_16h27.46.789,SPAMnetsValid,2021.1.4,MacIntel,60.0024001,,,,,,,,,,,,,8,0.6239,0,53,53,65,1,,,,,,,,,,,,,,,,,,,,,,,,,,,,,,,,,,,,,,,,,,,,,,,,,,,,,,,,,,,,,,,,,,,,,,
,,,,4,0.9099,,,,,,66,melon,yogurt,,88704,001,2022-04-28_16h27.46.789,SPAMnetsValid,2021.1.4,MacIntel,60.0024001,,,,,,,,,,,,,4,0.9099,0,54,54,48,1,,,,,,,,,,,,,,,,,,,,,,,,,,,,,,,,,,,,,,,,,,,,,,,,,,,,,,,,,,,,,,,,,,,,,,
,,,,6,0.6939,,,,,,14,broom,cookie,,88704,001,2022-04-28_16h27.46.789,SPAMnetsValid,2021.1.4,MacIntel,60.0024001,,,,,,,,,,,,,6,0.6939,0,55,55,16,1,,,,,,,,,,,,,,,,,,,,,,,,,,,,,,,,,,,,,,,,,,,,,,,,,,,,,,,,,,,,,,,,,,,,,,
,,,,5,0.3073,,,,,,191,cake,cake,CHECK,88704,001,2022-04-28_16h27.46.789,SPAMnetsValid,2021.1.4,MacIntel,60.0024001,,,,,,,,,,,,,5,0.3073,0,56,56,10,1,,,,,,,,,,,,,,,,,,,,,,,,,,,,,,,,,,,,,,,,,,,,,,,,,,,,,,,,,,,,,,,,,,,,,,
,,,,7,0.8426,,,,,,28,cake,melon,,88704,001,2022-04-28_16h27.46.789,SPAMnetsValid,2021.1.4,MacIntel,60.0024001,,,,,,,,,,,,,7,0.8426,0,57,57,54,1,,,,,,,,,,,,,,,,,,,,,,,,,,,,,,,,,,,,,,,,,,,,,,,,,,,,,,,,,,,,,,,,,,,,,,
,,,,6,1.1451,,,,,,49,flower,strawberry,,88704,001,2022-04-28_16h27.46.789,SPAMnetsValid,2021.1.4,MacIntel,60.0024001,,,,,,,,,,,,,6,1.1451,0,58,58,3,1,,,,,,,,,,,,,,,,,,,,,,,,,,,,,,,,,,,,,,,,,,,,,,,,,,,,,,,,,,,,,,,,,,,,,,
,,,,6,0.4205,,,,,,62,kitchen,rose,,88704,001,2022-04-28_16h27.46.789,SPAMnetsValid,2021.1.4,MacIntel,60.0024001,,,,,,,,,,,,,6,0.4205,0,59,59,57,1,,,,,,,,,,,,,,,,,,,,,,,,,,,,,,,,,,,,,,,,,,,,,,,,,,,,,,,,,,,,,,,,,,,,,,
,,,,6,0.3206,,,,,,94,kitchen,microwave,,88704,001,2022-04-28_16h27.46.789,SPAMnetsValid,2021.1.4,MacIntel,60.0024001,,,,,,,,,,,,,6,0.3206,0,60,60,58,1,,,,,,,,,,,,,,,,,,,,,,,,,,,,,,,,,,,,,,,,,,,,,,,,,,,,,,,,,,,,,,,,,,,,,,
,,,,6,0.3393,,,,,,29,chocolate,melon,,88704,001,2022-04-28_16h27.46.789,SPAMnetsValid,2021.1.4,MacIntel,60.0024001,,,,,,,,,,,,,6,0.3393,0,61,61,34,1,,,,,,,,,,,,,,,,,,,,,,,,,,,,,,,,,,,,,,,,,,,,,,,,,,,,,,,,,,,,,,,,,,,,,,
,,,,7,0.4722,,,,,,9,kitchen,refrigerator,,88704,001,2022-04-28_16h27.46.789,SPAMnetsValid,2021.1.4,MacIntel,60.0024001,,,,,,,,,,,,,7,0.4722,0,62,62,64,1,,,,,,,,,,,,,,,,,,,,,,,,,,,,,,,,,,,,,,,,,,,,,,,,,,,,,,,,,,,,,,,,,,,,,,
,,,,7,0.2229,,,,,,17,carrot,melon,,88704,001,2022-04-28_16h27.46.789,SPAMnetsValid,2021.1.4,MacIntel,60.0024001,,,,,,,,,,,,,7,0.2229,0,63,63,24,1,,,,,,,,,,,,,,,,,,,,,,,,,,,,,,,,,,,,,,,,,,,,,,,,,,,,,,,,,,,,,,,,,,,,,,
,,,,7,0.3283,,,,,,53,garden,pretzel,,88704,001,2022-04-28_16h27.46.789,SPAMnetsValid,2021.1.4,MacIntel,60.0024001,,,,,,,,,,,,,7,0.3283,0,64,64,0,1,,,,,,,,,,,,,,,,,,,,,,,,,,,,,,,,,,,,,,,,,,,,,,,,,,,,,,,,,,,,,,,,,,,,,,
,,,,7,0.1037,,,,,,78,cookie,rose,,88704,001,2022-04-28_16h27.46.789,SPAMnetsValid,2021.1.4,MacIntel,60.0024001,,,,,,,,,,,,,7,0.1037,0,65,65,56,1,,,,,,,,,,,,,,,,,,,,,,,,,,,,,,,,,,,,,,,,,,,,,,,,,,,,,,,,,,,,,,,,,,,,,,
,,,,5,0.2396,,,,,,51,onion,strawberry,,88704,001,2022-04-28_16h27.46.789,SPAMnetsValid,2021.1.4,MacIntel,60.0024001,,,,,,,,,,,,,5,0.2396,0,66,66,86,1,,,,,,,,,,,,,,,,,,,,,,,,,,,,,,,,,,,,,,,,,,,,,,,,,,,,,,,,,,,,,,,,,,,,,,
,,,,7,1.0584,,,,,,74,broom,pretzel,,88704,001,2022-04-28_16h27.46.789,SPAMnetsValid,2021.1.4,MacIntel,60.0024001,,,,,,,,,,,,,7,1.0584,0,67,67,40,1,,,,,,,,,,,,,,,,,,,,,,,,,,,,,,,,,,,,,,,,,,,,,,,,,,,,,,,,,,,,,,,,,,,,,,
,,,,4,1.1886,,,,,,73,broom,chocolate,,88704,001,2022-04-28_16h27.46.789,SPAMnetsValid,2021.1.4,MacIntel,60.0024001,,,,,,,,,,,,,4,1.1886,0,68,68,47,1,,,,,,,,,,,,,,,,,,,,,,,,,,,,,,,,,,,,,,,,,,,,,,,,,,,,,,,,,,,,,,,,,,,,,,
,,,,6,0.6888,,,,,,72,broom,onion,,88704,001,2022-04-28_16h27.46.789,SPAMnetsValid,2021.1.4,MacIntel,60.0024001,,,,,,,,,,,,,6,0.6888,0,69,69,27,1,,,,,,,,,,,,,,,,,,,,,,,,,,,,,,,,,,,,,,,,,,,,,,,,,,,,,,,,,,,,,,,,,,,,,,
,,,,6,0.4628,,,,,,38,pretzel,refrigerator,,88704,001,2022-04-28_16h27.46.789,SPAMnetsValid,2021.1.4,MacIntel,60.0024001,,,,,,,,,,,,,6,0.4628,0,70,70,71,1,,,,,,,,,,,,,,,,,,,,,,,,,,,,,,,,,,,,,,,,,,,,,,,,,,,,,,,,,,,,,,,,,,,,,,
,,,,7,0.461,,,,,,80,chocolate,tree,,88704,001,2022-04-28_16h27.46.789,SPAMnetsValid,2021.1.4,MacIntel,60.0024001,,,,,,,,,,,,,7,0.461,0,71,71,89,1,,,,,,,,,,,,,,,,,,,,,,,,,,,,,,,,,,,,,,,,,,,,,,,,,,,,,,,,,,,,,,,,,,,,,,
,,,,8,0.4782,,,,,,25,carrot,onion,,88704,001,2022-04-28_16h27.46.789,SPAMnetsValid,2021.1.4,MacIntel,60.0024001,,,,,,,,,,,,,8,0.4782,0,72,72,44,1,,,,,,,,,,,,,,,,,,,,,,,,,,,,,,,,,,,,,,,,,,,,,,,,,,,,,,,,,,,,,,,,,,,,,,
,,,,7,0.6378,,,,,,33,oven,yogurt,,88704,001,2022-04-28_16h27.46.789,SPAMnetsValid,2021.1.4,MacIntel,60.0024001,,,,,,,,,,,,,7,0.6378,0,73,73,31,1,,,,,,,,,,,,,,,,,,,,,,,,,,,,,,,,,,,,,,,,,,,,,,,,,,,,,,,,,,,,,,,,,,,,,,
,,,,5,0.3801,,,,,,5,oven,tree,,88704,001,2022-04-28_16h27.46.789,SPAMnetsValid,2021.1.4,MacIntel,60.0024001,,,,,,,,,,,,,5,0.3801,0,74,74,70,1,,,,,,,,,,,,,,,,,,,,,,,,,,,,,,,,,,,,,,,,,,,,,,,,,,,,,,,,,,,,,,,,,,,,,,
,,,,7,0.5138,,,,,,89,chocolate,rose,,88704,001,2022-04-28_16h27.46.789,SPAMnetsValid,2021.1.4,MacIntel,60.0024001,,,,,,,,,,,,,7,0.5138,0,75,75,60,1,,,,,,,,,,,,,,,,,,,,,,,,,,,,,,,,,,,,,,,,,,,,,,,,,,,,,,,,,,,,,,,,,,,,,,
,,,,8,0.5433,,,,,,68,flower,tomato,,88704,001,2022-04-28_16h27.46.789,SPAMnetsValid,2021.1.4,MacIntel,60.0024001,,,,,,,,,,,,,8,0.5433,0,76,76,94,1,,,,,,,,,,,,,,,,,,,,,,,,,,,,,,,,,,,,,,,,,,,,,,,,,,,,,,,,,,,,,,,,,,,,,,
,,,,5,1.29,,,,,,88,cactus,melon,,88704,001,2022-04-28_16h27.46.789,SPAMnetsValid,2021.1.4,MacIntel,60.0024001,,,,,,,,,,,,,5,1.29,0,77,77,38,1,,,,,,,,,,,,,,,,,,,,,,,,,,,,,,,,,,,,,,,,,,,,,,,,,,,,,,,,,,,,,,,,,,,,,,
,,,,6,0.7433,,,,,,54,chocolate,yogurt,,88704,001,2022-04-28_16h27.46.789,SPAMnetsValid,2021.1.4,MacIntel,60.0024001,,,,,,,,,,,,,6,0.7433,0,78,78,67,1,,,,,,,,,,,,,,,,,,,,,,,,,,,,,,,,,,,,,,,,,,,,,,,,,,,,,,,,,,,,,,,,,,,,,,
,,,,8,0.0202,,,,,,23,flower,microwave,,88704,001,2022-04-28_16h27.46.789,SPAMnetsValid,2021.1.4,MacIntel,60.0024001,,,,,,,,,,,,,8,0.0202,0,79,79,25,1,,,,,,,,,,,,,,,,,,,,,,,,,,,,,,,,,,,,,,,,,,,,,,,,,,,,,,,,,,,,,,,,,,,,,,
,,,,6,0.1215,,,,,,79,garden,strawberry,,88704,001,2022-04-28_16h27.46.789,SPAMnetsValid,2021.1.4,MacIntel,60.0024001,,,,,,,,,,,,,6,0.1215,0,80,80,87,1,,,,,,,,,,,,,,,,,,,,,,,,,,,,,,,,,,,,,,,,,,,,,,,,,,,,,,,,,,,,,,,,,,,,,,
,,,,4,0.1038,,,,,,19,microwave,pretzel,,88704,001,2022-04-28_16h27.46.789,SPAMnetsValid,2021.1.4,MacIntel,60.0024001,,,,,,,,,,,,,4,0.1038,0,81,81,41,1,,,,,,,,,,,,,,,,,,,,,,,,,,,,,,,,,,,,,,,,,,,,,,,,,,,,,,,,,,,,,,,,,,,,,,
,,,,7,0.0197,,,,,,41,broom,cactus,,88704,001,2022-04-28_16h27.46.789,SPAMnetsValid,2021.1.4,MacIntel,60.0024001,,,,,,,,,,,,,7,0.0197,0,82,82,46,1,,,,,,,,,,,,,,,,,,,,,,,,,,,,,,,,,,,,,,,,,,,,,,,,,,,,,,,,,,,,,,,,,,,,,,
,,,,5,0.0759,,,,,,30,cookie,pretzel,,88704,001,2022-04-28_16h27.46.789,SPAMnetsValid,2021.1.4,MacIntel,60.0024001,,,,,,,,,,,,,5,0.0759,0,83,83,78,1,,,,,,,,,,,,,,,,,,,,,,,,,,,,,,,,,,,,,,,,,,,,,,,,,,,,,,,,,,,,,,,,,,,,,,
,,,,6,0.0724,,,,,,10,flower,onion,,88704,001,2022-04-28_16h27.46.789,SPAMnetsValid,2021.1.4,MacIntel,60.0024001,,,,,,,,,,,,,6,0.0724,0,84,84,45,1,,,,,,,,,,,,,,,,,,,,,,,,,,,,,,,,,,,,,,,,,,,,,,,,,,,,,,,,,,,,,,,,,,,,,,
,,,,8,0.0252,,,,,,6,garden,onion,,88704,001,2022-04-28_16h27.46.789,SPAMnetsValid,2021.1.4,MacIntel,60.0024001,,,,,,,,,,,,,8,0.0252,0,85,85,83,1,,,,,,,,,,,,,,,,,,,,,,,,,,,,,,,,,,,,,,,,,,,,,,,,,,,,,,,,,,,,,,,,,,,,,,
,,,,6,0.1207,,,,,,44,cookie,melon,,88704,001,2022-04-28_16h27.46.789,SPAMnetsValid,2021.1.4,MacIntel,60.0024001,,,,,,,,,,,,,6,0.1207,0,86,86,92,1,,,,,,,,,,,,,,,,,,,,,,,,,,,,,,,,,,,,,,,,,,,,,,,,,,,,,,,,,,,,,,,,,,,,,,
,,,,7,0.5574,,,,,,64,chocolate,garden,,88704,001,2022-04-28_16h27.46.789,SPAMnetsValid,2021.1.4,MacIntel,60.0024001,,,,,,,,,,,,,7,0.5574,0,87,87,14,1,,,,,,,,,,,,,,,,,,,,,,,,,,,,,,,,,,,,,,,,,,,,,,,,,,,,,,,,,,,,,,,,,,,,,,
,,,,7,0.56,,,,,,63,cake,cookie,,88704,001,2022-04-28_16h27.46.789,SPAMnetsValid,2021.1.4,MacIntel,60.0024001,,,,,,,,,,,,,7,0.56,0,88,88,93,1,,,,,,,,,,,,,,,,,,,,,,,,,,,,,,,,,,,,,,,,,,,,,,,,,,,,,,,,,,,,,,,,,,,,,,
,,,,5,0.1582,,,,,,42,garden,kitchen,,88704,001,2022-04-28_16h27.46.789,SPAMnetsValid,2021.1.4,MacIntel,60.0024001,,,,,,,,,,,,,5,0.1582,0,89,89,29,1,,,,,,,,,,,,,,,,,,,,,,,,,,,,,,,,,,,,,,,,,,,,,,,,,,,,,,,,,,,,,,,,,,,,,,
,,,,7,0.0735,,,,,,12,cookie,yogurt,,88704,001,2022-04-28_16h27.46.789,SPAMnetsValid,2021.1.4,MacIntel,60.0024001,,,,,,,,,,,,,7,0.0735,0,90,90,36,1,,,,,,,,,,,,,,,,,,,,,,,,,,,,,,,,,,,,,,,,,,,,,,,,,,,,,,,,,,,,,,,,,,,,,,
,,,,6,0.6224,,,,,,40,broom,cake,,88704,001,2022-04-28_16h27.46.789,SPAMnetsValid,2021.1.4,MacIntel,60.0024001,,,,,,,,,,,,,6,0.6224,0,91,91,32,1,,,,,,,,,,,,,,,,,,,,,,,,,,,,,,,,,,,,,,,,,,,,,,,,,,,,,,,,,,,,,,,,,,,,,,
,,,,7,0.103,,,,,,15,onion,oven,,88704,001,2022-04-28_16h27.46.789,SPAMnetsValid,2021.1.4,MacIntel,60.0024001,,,,,,,,,,,,,7,0.103,0,92,92,39,1,,,,,,,,,,,,,,,,,,,,,,,,,,,,,,,,,,,,,,,,,,,,,,,,,,,,,,,,,,,,,,,,,,,,,,
,,,,6,0.3044,,,,,,59,rose,strawberry,,88704,001,2022-04-28_16h27.46.789,SPAMnetsValid,2021.1.4,MacIntel,60.0024001,,,,,,,,,,,,,6,0.3044,0,93,93,72,1,,,,,,,,,,,,,,,,,,,,,,,,,,,,,,,,,,,,,,,,,,,,,,,,,,,,,,,,,,,,,,,,,,,,,,
,,,,6,0.5047,,,,,,77,refrigerator,yogurt,,88704,001,2022-04-28_16h27.46.789,SPAMnetsValid,2021.1.4,MacIntel,60.0024001,,,,,,,,,,,,,6,0.5047,0,94,94,42,1,,,,,,,,,,,,,,,,,,,,,,,,,,,,,,,,,,,,,,,,,,,,,,,,,,,,,,,,,,,,,,,,,,,,,,
,,,,6,0.0454,,,,,,34,melon,oven,,88704,001,2022-04-28_16h27.46.789,SPAMnetsValid,2021.1.4,MacIntel,60.0024001,,,,,,,,,,,,,6,0.0454,0,95,95,7,1,,,,,,,,,,,,,,,,,,,,,,,,,,,,,,,,,,,,,,,,,,,,,,,,,,,,,,,,,,,,,,,,,,,,,,
,,,,5,2.0919,,,,,,11,refrigerator,tree,,88704,001,2022-04-28_16h27.46.789,SPAMnetsValid,2021.1.4,MacIntel,60.0024001,,,,,,,,,,,,,5,2.0919,0,96,96,43,1,,,,,,,,,,,,,,,,,,,,,,,,,,,,,,,,,,,,,,,,,,,,,,,,,,,,,,,,,,,,,,,,,,,,,,
,,,,,,,,,,,,,,,88704,001,2022-04-28_16h27.46.789,SPAMnetsValid,2021.1.4,MacIntel,60.0024001,,,,,,,,,,,,,,,,,,,,0,0,0,0,1,,,,,,,,,,,,,,,,,,,,,,,,,,,,,,,,,,,,,,,,,,,,,,,,,,,,,,,,,,,,,,,,,
,,,,,,,,,,,,,,,88704,001,2022-04-28_16h27.46.789,SPAMnetsValid,2021.1.4,MacIntel,60.0024001,,,,,,0,1,1,0,1,1,0,,,,,,,,,,,,,,,,,,,,,,,,,,,,,,,,,,,,,,,,,,,,,,,,,,,,,,,,,,,,,,,,,,,,,,,,,,,,,
,,,,,,,,,,,,,,,88704,001,2022-04-28_16h27.46.789,SPAMnetsValid,2021.1.4,MacIntel,60.0024001,,,,,,,,,,,,,,,,,,,,,,,,,3,3.6741,0,0,0,0,1,rancor,forbearance,ridicule,malice,bravery,3,,,,,,,,,,,,,,,,,,,,,,,,,,,,,,,,,,,,,,,,,,,,,,,,,,,,
,,,,,,,,,,,,,,,88704,001,2022-04-28_16h27.46.789,SPAMnetsValid,2021.1.4,MacIntel,60.0024001,,,,,,,,,,,,,,,,,,,,,,,,,4,4.0898,0,1,1,1,1,raucous,empty,quiet,smooth,harsh,4,,,,,,,,,,,,,,,,,,,,,,,,,,,,,,,,,,,,,,,,,,,,,,,,,,,,
,,,,,,,,,,,,,,,88704,001,2022-04-28_16h27.46.789,SPAMnetsValid,2021.1.4,MacIntel,60.0024001,,,,,,,,,,,,,,,,,,,,,,,,,1,4.3968,0,2,2,2,1,gargoyle,oil,medicine,carved waterspout,ugly building,3,,,,,,,,,,,,,,,,,,,,,,,,,,,,,,,,,,,,,,,,,,,,,,,,,,,,
,,,,,,,,,,,,,,,88704,001,2022-04-28_16h27.46.789,SPAMnetsValid,2021.1.4,MacIntel,60.0024001,,,,,,,,,,,,,,,,,,,,,,,,,3,2.0287,0,3,3,3,1,recrudesce,purify,renew activity,lack refinement,crush,2,,,,,,,,,,,,,,,,,,,,,,,,,,,,,,,,,,,,,,,,,,,,,,,,,,,,
,,,,,,,,,,,,,,,88704,001,2022-04-28_16h27.46.789,SPAMnetsValid,2021.1.4,MacIntel,60.0024001,,,,,,,,,,,,,,,,,,,,,,,,,1,5.1577,0,4,4,4,1,specious,"plausible, but not genuine",noteworthy,class or variety,roomy,1,,,,,,,,,,,,,,,,,,,,,,,,,,,,,,,,,,,,,,,,,,,,,,,,,,,,
,,,,,,,,,,,,,,,88704,001,2022-04-28_16h27.46.789,SPAMnetsValid,2021.1.4,MacIntel,60.0024001,,,,,,,,,,,,,,,,,,,,,,,,,1,2.3902,0,5,5,5,1,bauble,bubble,showy plaything,idle talk,confusion,2,,,,,,,,,,,,,,,,,,,,,,,,,,,,,,,,,,,,,,,,,,,,,,,,,,,,
,,,,,,,,,,,,,,,88704,001,2022-04-28_16h27.46.789,SPAMnetsValid,2021.1.4,MacIntel,60.0024001,,,,,,,,,,,,,,,,,,,,,,,,,4,2.7374,0,6,6,6,1,prolific,scarce,producing abundantly,reckless,speaking profanely,2,,,,,,,,,,,,,,,,,,,,,,,,,,,,,,,,,,,,,,,,,,,,,,,,,,,,
,,,,,,,,,,,,,,,88704,001,2022-04-28_16h27.46.789,SPAMnetsValid,2021.1.4,MacIntel,60.0024001,,,,,,,,,,,,,,,,,,,,,,,,,1,2.0286,0,7,7,7,1,opulent,party,wealthy,happy frame of mind,semiprecious stone,2,,,,,,,,,,,,,,,,,,,,,,,,,,,,,,,,,,,,,,,,,,,,,,,,,,,,
,,,,,,,,,,,,,,,88704,001,2022-04-28_16h27.46.789,SPAMnetsValid,2021.1.4,MacIntel,60.0024001,,,,,,,,,,,,,,,,,,,,,,,,,2,1.0549,0,8,8,8,1,coercion,conspiracy,strategy,restraint,attraction,3,,,,,,,,,,,,,,,,,,,,,,,,,,,,,,,,,,,,,,,,,,,,,,,,,,,,
,,,,,,,,,,,,,,,88704,001,2022-04-28_16h27.46.789,SPAMnetsValid,2021.1.4,MacIntel,60.0024001,,,,,,,,,,,,,,,,,,,,,,,,,2,2.4053,0,9,9,9,1,hiatus,animal,calamity,dread,gap,4,,,,,,,,,,,,,,,,,,,,,,,,,,,,,,,,,,,,,,,,,,,,,,,,,,,,
,,,,,,,,,,,,,,,88704,001,2022-04-28_16h27.46.789,SPAMnetsValid,2021.1.4,MacIntel,60.0024001,,,,,,,,,,,,,,,,,,,,,,,,,4,1.5949,0,10,10,10,1,germane,microbe,contagious,relevant,different,3,,,,,,,,,,,,,,,,,,,,,,,,,,,,,,,,,,,,,,,,,,,,,,,,,,,,
,,,,,,,,,,,,,,,88704,001,2022-04-28_16h27.46.789,SPAMnetsValid,2021.1.4,MacIntel,60.0024001,,,,,,,,,,,,,,,,,,,,,,,,,3,2.9655,0,11,11,11,1,perfunctory,fundamental,formal,superficial,careful,3,,,,,,,,,,,,,,,,,,,,,,,,,,,,,,,,,,,,,,,,,,,,,,,,,,,,
,,,,,,,,,,,,,,,88704,001,2022-04-28_16h27.46.789,SPAMnetsValid,2021.1.4,MacIntel,60.0024001,,,,,,,,,,,,,,,,,,,,,,,,,2,1.7892,0,12,12,12,1,diverge,reveal,chant,distract the attention of,differ or turn off from,4,,,,,,,,,,,,,,,,,,,,,,,,,,,,,,,,,,,,,,,,,,,,,,,,,,,,
,,,,,,,,,,,,,,,88704,001,2022-04-28_16h27.46.789,SPAMnetsValid,2021.1.4,MacIntel,60.0024001,,,,,,,,,,,,,,,,,,,,,,,,,3,1.8627,0,13,13,13,1,evoke,take away,anger,connect,bring out,4,,,,,,,,,,,,,,,,,,,,,,,,,,,,,,,,,,,,,,,,,,,,,,,,,,,,
,,,,,,,,,,,,,,,88704,001,2022-04-28_16h27.46.789,SPAMnetsValid,2021.1.4,MacIntel,60.0024001,,,,,,,,,,,,,,,,,,,,,,,,,3,1.0542,0,14,14,14,1,pertinent,relevant,lying next to,necessary,bold,1,,,,,,,,,,,,,,,,,,,,,,,,,,,,,,,,,,,,,,,,,,,,,,,,,,,,
,,,,,,,,,,,,,,,88704,001,2022-04-28_16h27.46.789,SPAMnetsValid,2021.1.4,MacIntel,60.0024001,,,,,,,,,,,,,,,,,,,,,,,,,2,3.1743,0,15,15,15,1,holocaust,entirety,destruction,saintly,price,2,,,,,,,,,,,,,,,,,,,,,,,,,,,,,,,,,,,,,,,,,,,,,,,,,,,,
,,,,,,,,,,,,,,,88704,001,2022-04-28_16h27.46.789,SPAMnetsValid,2021.1.4,MacIntel,60.0024001,,,,,,,,,,,,,,,,,,,,,,,,,3,3.4745,0,16,16,16,1,piquant,mellow,fish,pungent,cloth,3,,,,,,,,,,,,,,,,,,,,,,,,,,,,,,,,,,,,,,,,,,,,,,,,,,,,
,,,,,,,,,,,,,,,88704,001,2022-04-28_16h27.46.789,SPAMnetsValid,2021.1.4,MacIntel,60.0024001,,,,,,,,,,,,,,,,,,,,,,,,,1,3.9416,0,17,17,17,1,firmament,foundation,heavens,strong,glue,2,,,,,,,,,,,,,,,,,,,,,,,,,,,,,,,,,,,,,,,,,,,,,,,,,,,,
,,,,,,,,,,,,,,,88704,001,2022-04-28_16h27.46.789,SPAMnetsValid,2021.1.4,MacIntel,60.0024001,,,,,,,,,,,,,,,,,,,,,,,,,,,,,,,,,,,,,,3,1.4881,0,0,0,0,1,marketable,partisan,jocular,marriageable,salable,essential,4,,,,,,,,,,,,,,,,,,,,,,,,,,,,,,,,,,,,,,
,,,,,,,,,,,,,,,88704,001,2022-04-28_16h27.46.789,SPAMnetsValid,2021.1.4,MacIntel,60.0024001,,,,,,,,,,,,,,,,,,,,,,,,,,,,,,,,,,,,,,4,0.9924,0,1,1,1,1,cottontail,squirrel,poplar,boa,marshy plant,rabbit,5,,,,,,,,,,,,,,,,,,,,,,,,,,,,,,,,,,,,,,
,,,,,,,,,,,,,,,88704,001,2022-04-28_16h27.46.789,SPAMnetsValid,2021.1.4,MacIntel,60.0024001,,,,,,,,,,,,,,,,,,,,,,,,,,,,,,,,,,,,,,3,1.3382,0,2,2,2,1,boggy,afraid,false,marshy,dense,black,3,,,,,,,,,,,,,,,,,,,,,,,,,,,,,,,,,,,,,,
,,,,,,,,,,,,,,,88704,001,2022-04-28_16h27.46.789,SPAMnetsValid,2021.1.4,MacIntel,60.0024001,,,,,,,,,,,,,,,,,,,,,,,,,,,,,,,,,,,,,,2,1.1289,0,3,3,3,1,gruesomeness,blackness,falseness,vindictiveness,drunkenness,ghastliness,5,,,,,,,,,,,,,,,,,,,,,,,,,,,,,,,,,,,,,,
,,,,,,,,,,,,,,,88704,001,2022-04-28_16h27.46.789,SPAMnetsValid,2021.1.4,MacIntel,60.0024001,,,,,,,,,,,,,,,,,,,,,,,,,,,,,,,,,,,,,,4,1.09,0,4,4,4,1,loathing,diffidence,laziness,abhorrence,cleverness,comfort,3,,,,,,,,,,,,,,,,,,,,,,,,,,,,,,,,,,,,,,
,,,,,,,,,,,,,,,88704,001,2022-04-28_16h27.46.789,SPAMnetsValid,2021.1.4,MacIntel,60.0024001,,,,,,,,,,,,,,,,,,,,,,,,,,,,,,,,,,,,,,3,0.9274,0,5,5,5,1,bantam,fowl,ridicule,cripple,vegetable,ensign,1,,,,,,,,,,,,,,,,,,,,,,,,,,,,,,,,,,,,,,
,,,,,,,,,,,,,,,88704,001,2022-04-28_16h27.46.789,SPAMnetsValid,2021.1.4,MacIntel,60.0024001,,,,,,,,,,,,,,,,,,,,,,,,,,,,,,,,,,,,,,2,0.9107,0,6,6,6,1,evoke,wake up,surrender,reconnoiter,transcend,call forth,5,,,,,,,,,,,,,,,,,,,,,,,,,,,,,,,,,,,,,,
,,,,,,,,,,,,,,,88704,001,2022-04-28_16h27.46.789,SPAMnetsValid,2021.1.4,MacIntel,60.0024001,,,,,,,,,,,,,,,,,,,,,,,,,,,,,,,,,,,,,,3,0.812,0,7,7,7,1,unobtrusive,unintelligent,epileptic,illogical,lineal,modest,5,,,,,,,,,,,,,,,,,,,,,,,,,,,,,,,,,,,,,,
,,,,,,,,,,,,,,,88704,001,2022-04-28_16h27.46.789,SPAMnetsValid,2021.1.4,MacIntel,60.0024001,,,,,,,,,,,,,,,,,,,,,,,,,,,,,,,,,,,,,,1,1.1142,0,8,8,8,1,terrain,ice cream,final test,tractor,area of ground,weight,4,,,,,,,,,,,,,,,,,,,,,,,,,,,,,,,,,,,,,,
,,,,,,,,,,,,,,,88704,001,2022-04-28_16h27.46.789,SPAMnetsValid,2021.1.4,MacIntel,60.0024001,,,,,,,,,,,,,,,,,,,,,,,,,,,,,,,,,,,,,,2,0.9735,0,9,9,9,1,capriciousness,stubbornness,courage,whimsicality,amazement,greediness,3,,,,,,,,,,,,,,,,,,,,,,,,,,,,,,,,,,,,,,
,,,,,,,,,,,,,,,88704,001,2022-04-28_16h27.46.789,SPAMnetsValid,2021.1.4,MacIntel,60.0024001,,,,,,,,,,,,,,,,,,,,,,,,,,,,,,,,,,,,,,3,0.8934,0,10,10,10,1,maelstrom,slander,whirlpool,enmity,armor,majolica,2,,,,,,,,,,,,,,,,,,,,,,,,,,,,,,,,,,,,,,
,,,,,,,,,,,,,,,88704,001,2022-04-28_16h27.46.789,SPAMnetsValid,2021.1.4,MacIntel,60.0024001,,,,,,,,,,,,,,,,,,,,,,,,,,,,,,,,,,,,,,4,0.7284,0,11,11,11,1,tentative,critical,conclusive,authentic,provisional,apprehensive,4,,,,,,,,,,,,,,,,,,,,,,,,,,,,,,,,,,,,,,
,,,,,,,,,,,,,,,88704,001,2022-04-28_16h27.46.789,SPAMnetsValid,2021.1.4,MacIntel,60.0024001,,,,,,,,,,,,,,,,,,,,,,,,,,,,,,,,,,,,,,2,1.7421,0,12,12,12,1,placate,rehabilitate,plagiarize,depredate,apprise,conciliate,5,,,,,,,,,,,,,,,,,,,,,,,,,,,,,,,,,,,,,,
,,,,,,,,,,,,,,,88704,001,2022-04-28_16h27.46.789,SPAMnetsValid,2021.1.4,MacIntel,60.0024001,,,,,,,,,,,,,,,,,,,,,,,,,,,,,,,,,,,,,,5,1.0551,0,13,13,13,1,surcease,enlightenment,cessation,inattention,censor,substitution,2,,,,,,,,,,,,,,,,,,,,,,,,,,,,,,,,,,,,,,
,,,,,,,,,,,,,,,88704,001,2022-04-28_16h27.46.789,SPAMnetsValid,2021.1.4,MacIntel,60.0024001,,,,,,,,,,,,,,,,,,,,,,,,,,,,,,,,,,,,,,3,1.0203,0,14,14,14,1,apathetic,wandering,impassive,hateful,prophetic,overflowing,2,,,,,,,,,,,,,,,,,,,,,,,,,,,,,,,,,,,,,,
,,,,,,,,,,,,,,,88704,001,2022-04-28_16h27.46.789,SPAMnetsValid,2021.1.4,MacIntel,60.0024001,,,,,,,,,,,,,,,,,,,,,,,,,,,,,,,,,,,,,,2,1.1616,0,15,15,15,1,paternoster,paternalism,patricide,malediction,benediction,prayer,5,,,,,,,,,,,,,,,,,,,,,,,,,,,,,,,,,,,,,,
,,,,,,,,,,,,,,,88704,001,2022-04-28_16h27.46.789,SPAMnetsValid,2021.1.4,MacIntel,60.0024001,,,,,,,,,,,,,,,,,,,,,,,,,,,,,,,,,,,,,,1,0.7896,0,16,16,16,1,opalescence,opulence,senescence,bankruptcy,iridescence,assiduity,4,,,,,,,,,,,,,,,,,,,,,,,,,,,,,,,,,,,,,,
,,,,,,,,,,,,,,,88704,001,2022-04-28_16h27.46.789,SPAMnetsValid,2021.1.4,MacIntel,60.0024001,,,,,,,,,,,,,,,,,,,,,,,,,,,,,,,,,,,,,,3,0.7731,0,17,17,17,1,lush,stupid,luxurious,hazy,putrid,languishing,2,,,,,,,,,,,,,,,,,,,,,,,,,,,,,,,,,,,,,,
,,,,,,,,,,,,,,,88704,001,2022-04-28_16h27.46.789,SPAMnetsValid,2021.1.4,MacIntel,60.0024001,,,,,,,,,,,,,,,,,,,,,,,,,,,,,,,,,,,,,,2,0.8723,0,18,18,18,1,curtailment,expenditure,abandonment,abridgment,improvement,forgery,3,,,,,,,,,,,,,,,,,,,,,,,,,,,,,,,,,,,,,,
,,,,,,,,,,,,,,,88704,001,2022-04-28_16h27.46.789,SPAMnetsValid,2021.1.4,MacIntel,60.0024001,,,,,,,,,,,,,,,,,,,,,,,,,,,,,,,,,,,,,,1,1.8286,0,19,19,19,1,perversity,adversity,perviousness,travesty,waywardness,gentility,4,,,,,,,,,,,,,,,,,,,,,,,,,,,,,,,,,,,,,,
,,,,,,,,,,,,,,,88704,001,2022-04-28_16h27.46.789,SPAMnetsValid,2021.1.4,MacIntel,60.0024001,,,,,,,,,,,,,,,,,,,,,,,,,,,,,,,,,,,,,,2,0.9307,0,20,20,20,1,calumnious,complimentary,analogous,slanderous,tempestuous,magnanimous,3,,,,,,,,,,,,,,,,,,,,,,,,,,,,,,,,,,,,,,
,,,,,,,,,,,,,,,88704,001,2022-04-28_16h27.46.789,SPAMnetsValid,2021.1.4,MacIntel,60.0024001,,,,,,,,,,,,,,,,,,,,,,,,,,,,,,,,,,,,,,3,0.8406,0,21,21,21,1,illiberality,bigotry,imbecility,illegibility,cautery,immaturity,1,,,,,,,,,,,,,,,,,,,,,,,,,,,,,,,,,,,,,,
,,,,,,,,,,,,,,,88704,001,2022-04-28_16h27.46.789,SPAMnetsValid,2021.1.4,MacIntel,60.0024001,,,,,,,,,,,,,,,,,,,,,,,,,,,,,,,,,,,,,,2,1.0229,0,22,22,22,1,clabber,rejoice,gossip,curdle,crow,hobble,3,,,,,,,,,,,,,,,,,,,,,,,,,,,,,,,,,,,,,,
,,,,,,,,,,,,,,,88704,001,2022-04-28_16h27.46.789,SPAMnetsValid,2021.1.4,MacIntel,60.0024001,,,,,,,,,,,,,,,,,,,,,,,,,,,,,,,,,,,,,,1,1.5558,0,23,23,23,1,sedulousness,diligence,credulousness,seduction,perilousness,frankness,1,,,,,,,,,,,,,,,,,,,,,,,,,,,,,,,,,,,,,,
,,,,,,,,,,,,,,,88704,001,2022-04-28_16h27.46.789,SPAMnetsValid,2021.1.4,MacIntel,60.0024001,,,,,,,,,,,,,,,,,,,,,,,,,,,,,,,,,,,,,,,,,,,,,,,,,,,,water,bucket,0,0,0,0,1,,,,,,,,,,,,,,,,,,,,,,,,,,,,,,,
,,,,,,,,,,,,,,,88704,001,2022-04-28_16h27.46.789,SPAMnetsValid,2021.1.4,MacIntel,60.0024001,,,,,,,,,,,,,,,,,,,,,,,,,,,,,,,,,,,,,,,,,,,,,,,,,,,,help leaking,bucket,1,0,1,0,1,,,,,,,,,,,,,,,,,,,,,,,,,,,,,,,
,,,,,,,,,,,,,,,88704,001,2022-04-28_16h27.46.789,SPAMnetsValid,2021.1.4,MacIntel,60.0024001,,,,,,,,,,,,,,,,,,,,,,,,,,,,,,,,,,,,,,,,,,,,,,,,,,,,paint on it,bucket,2,0,2,0,1,,,,,,,,,,,,,,,,,,,,,,,,,,,,,,,
,,,,,,,,,,,,,,,88704,001,2022-04-28_16h27.46.789,SPAMnetsValid,2021.1.4,MacIntel,60.0024001,,,,,,,,,,,,,,,,,,,,,,,,,,,,,,,,,,,,,,,,,,,,,,,,,,,,colorful,bucket,3,0,3,0,1,,,,,,,,,,,,,,,,,,,,,,,,,,,,,,,
,,,,,,,,,,,,,,,88704,001,2022-04-28_16h27.46.789,SPAMnetsValid,2021.1.4,MacIntel,60.0024001,,,,,,,,,,,,,,,,,,,,,,,,,,,,,,,,,,,,,,,,,,,,,,,,,,,,helpful,bucket,4,0,4,0,1,,,,,,,,,,,,,,,,,,,,,,,,,,,,,,,
,,,,,,,,,,,,,,,88704,001,2022-04-28_16h27.46.789,SPAMnetsValid,2021.1.4,MacIntel,60.0024001,,,,,,,,,,,,,,,,,,,,,,,,,,,,,,,,,,,,,,,,,,,,,,,,,,,,fun,bucket,5,0,5,0,1,,,,,,,,,,,,,,,,,,,,,,,,,,,,,,,
,,,,,,,,,,,,,,,88704,001,2022-04-28_16h27.46.789,SPAMnetsValid,2021.1.4,MacIntel,60.0024001,,,,,,,,,,,,,,,,,,,,,,,,,,,,,,,,,,,,,,,,,,,,,,,,,,,,sand castles,bucket,6,0,6,0,1,,,,,,,,,,,,,,,,,,,,,,,,,,,,,,,
,,,,,,,,,,,,,,,88704,001,2022-04-28_16h27.46.789,SPAMnetsValid,2021.1.4,MacIntel,60.0024001,,,,,,,,,,,,,,,,,,,,,,,,,,,,,,,,,,,,,,,,,,,,,,,,,,,,sand,bucket,7,0,7,0,1,,,,,,,,,,,,,,,,,,,,,,,,,,,,,,,
,,,,,,,,,,,,,,,88704,001,2022-04-28_16h27.46.789,SPAMnetsValid,2021.1.4,MacIntel,60.0024001,,,,,,,,,,,,,,,,,,,,,,,,,,,,,,,,,,,,,,,,,,,,,,,,,,,,grass,bucket,8,0,8,0,1,,,,,,,,,,,,,,,,,,,,,,,,,,,,,,,
,,,,,,,,,,,,,,,88704,001,2022-04-28_16h27.46.789,SPAMnetsValid,2021.1.4,MacIntel,60.0024001,,,,,,,,,,,,,,,,,,,,,,,,,,,,,,,,,,,,,,,,,,,,,,,,,,,,,,,,,,,0,0,0,0,1,bucket,,,,,,,,,,,,,,,,,,,,,,,,,
,,,,,,,,,,,,,,,88704,001,2022-04-28_16h27.46.789,SPAMnetsValid,2021.1.4,MacIntel,60.0024001,,,,,,,,,,,,,,,,,,,,,,,,,,,,,,,,,,,,,,,,,,,,,,,,,,,,sleep,pillow,0,0,0,0,1,,,,,,,,,,,,,,,,,,,,,,,,,,,,,,,
,,,,,,,,,,,,,,,88704,001,2022-04-28_16h27.46.789,SPAMnetsValid,2021.1.4,MacIntel,60.0024001,,,,,,,,,,,,,,,,,,,,,,,,,,,,,,,,,,,,,,,,,,,,,,,,,,,,pillow cases,pillow,1,0,1,0,1,,,,,,,,,,,,,,,,,,,,,,,,,,,,,,,
,,,,,,,,,,,,,,,88704,001,2022-04-28_16h27.46.789,SPAMnetsValid,2021.1.4,MacIntel,60.0024001,,,,,,,,,,,,,,,,,,,,,,,,,,,,,,,,,,,,,,,,,,,,,,,,,,,,naps,pillow,2,0,2,0,1,,,,,,,,,,,,,,,,,,,,,,,,,,,,,,,
,,,,,,,,,,,,,,,88704,001,2022-04-28_16h27.46.789,SPAMnetsValid,2021.1.4,MacIntel,60.0024001,,,,,,,,,,,,,,,,,,,,,,,,,,,,,,,,,,,,,,,,,,,,,,,,,,,,comfy,pillow,3,0,3,0,1,,,,,,,,,,,,,,,,,,,,,,,,,,,,,,,
,,,,,,,,,,,,,,,88704,001,2022-04-28_16h27.46.789,SPAMnetsValid,2021.1.4,MacIntel,60.0024001,,,,,,,,,,,,,,,,,,,,,,,,,,,,,,,,,,,,,,,,,,,,,,,,,,,,fun,pillow,4,0,4,0,1,,,,,,,,,,,,,,,,,,,,,,,,,,,,,,,
,,,,,,,,,,,,,,,88704,001,2022-04-28_16h27.46.789,SPAMnetsValid,2021.1.4,MacIntel,60.0024001,,,,,,,,,,,,,,,,,,,,,,,,,,,,,,,,,,,,,,,,,,,,,,,,,,,,,,,,,,,0,1,1,2,1,pillow,,,,,,,,,,,,,,,,,,,,,,,,,
,,,,,,,,,,,,,,,88704,001,2022-04-28_16h27.46.789,SPAMnetsValid,2021.1.4,MacIntel,60.0024001,,,,,,,,,,,,,,,,,,,,,,,,,,,,,,,,,,,,,,,,,,,,,,,,,,,,design,candle,0,0,0,0,1,,,,,,,,,,,,,,,,,,,,,,,,,,,,,,,
,,,,,,,,,,,,,,,88704,001,2022-04-28_16h27.46.789,SPAMnetsValid,2021.1.4,MacIntel,60.0024001,,,,,,,,,,,,,,,,,,,,,,,,,,,,,,,,,,,,,,,,,,,,,,,,,,,,scents,candle,1,0,1,0,1,,,,,,,,,,,,,,,,,,,,,,,,,,,,,,,
,,,,,,,,,,,,,,,88704,001,2022-04-28_16h27.46.789,SPAMnetsValid,2021.1.4,MacIntel,60.0024001,,,,,,,,,,,,,,,,,,,,,,,,,,,,,,,,,,,,,,,,,,,,,,,,,,,,wax colors,candle,2,0,2,0,1,,,,,,,,,,,,,,,,,,,,,,,,,,,,,,,
,,,,,,,,,,,,,,,88704,001,2022-04-28_16h27.46.789,SPAMnetsValid,2021.1.4,MacIntel,60.0024001,,,,,,,,,,,,,,,,,,,,,,,,,,,,,,,,,,,,,,,,,,,,,,,,,,,,pretty,candle,3,0,3,0,1,,,,,,,,,,,,,,,,,,,,,,,,,,,,,,,
,,,,,,,,,,,,,,,88704,001,2022-04-28_16h27.46.789,SPAMnetsValid,2021.1.4,MacIntel,60.0024001,,,,,,,,,,,,,,,,,,,,,,,,,,,,,,,,,,,,,,,,,,,,,,,,,,,,fun,candle,4,0,4,0,1,,,,,,,,,,,,,,,,,,,,,,,,,,,,,,,
,,,,,,,,,,,,,,,88704,001,2022-04-28_16h27.46.789,SPAMnetsValid,2021.1.4,MacIntel,60.0024001,,,,,,,,,,,,,,,,,,,,,,,,,,,,,,,,,,,,,,,,,,,,,,,,,,,,smells,candle,5,0,5,0,1,,,,,,,,,,,,,,,,,,,,,,,,,,,,,,,
,,,,,,,,,,,,,,,88704,001,2022-04-28_16h27.46.789,SPAMnetsValid,2021.1.4,MacIntel,60.0024001,,,,,,,,,,,,,,,,,,,,,,,,,,,,,,,,,,,,,,,,,,,,,,,,,,,,,,,,,,,0,2,2,1,1,candle,,,,,,,,,,,,,,,,,,,,,,,,,
,,,,,,,,,,,,,,,88704,001,2022-04-28_16h27.46.789,SPAMnetsValid,2021.1.4,MacIntel,60.0024001,,,,,,,,,,,,,,,,,,,,,,,,,,,,,,,,,,,,,,,,,,,,,,,,,,,,,,,,,,,,,,,,,,Animals,0,0,0,0,1,,,,,,,,,,,,,,,,,,
,,,,,,,,,,,,,,,88704,001,2022-04-28_16h27.46.789,SPAMnetsValid,2021.1.4,MacIntel,60.0024001,,,,,,,,,,,,,,,,,,,,,,,,,,,,,,,,,,,,,,,,,,,,,,,,,,,,,,,,,,,,,,,,,elephant,Animals,1,0,1,0,1,,,,,,,,,,,,,,,,,,
,,,,,,,,,,,,,,,88704,001,2022-04-28_16h27.46.789,SPAMnetsValid,2021.1.4,MacIntel,60.0024001,,,,,,,,,,,,,,,,,,,,,,,,,,,,,,,,,,,,,,,,,,,,,,,,,,,,,,,,,,,,,,,,,cat,Animals,2,0,2,0,1,,,,,,,,,,,,,,,,,,
,,,,,,,,,,,,,,,88704,001,2022-04-28_16h27.46.789,SPAMnetsValid,2021.1.4,MacIntel,60.0024001,,,,,,,,,,,,,,,,,,,,,,,,,,,,,,,,,,,,,,,,,,,,,,,,,,,,,,,,,,,,,,,,,dog,Animals,3,0,3,0,1,,,,,,,,,,,,,,,,,,
,,,,,,,,,,,,,,,88704,001,2022-04-28_16h27.46.789,SPAMnetsValid,2021.1.4,MacIntel,60.0024001,,,,,,,,,,,,,,,,,,,,,,,,,,,,,,,,,,,,,,,,,,,,,,,,,,,,,,,,,,,,,,,,,pig,Animals,4,0,4,0,1,,,,,,,,,,,,,,,,,,
,,,,,,,,,,,,,,,88704,001,2022-04-28_16h27.46.789,SPAMnetsValid,2021.1.4,MacIntel,60.0024001,,,,,,,,,,,,,,,,,,,,,,,,,,,,,,,,,,,,,,,,,,,,,,,,,,,,,,,,,,,,,,,,,cow,Animals,5,0,5,0,1,,,,,,,,,,,,,,,,,,
,,,,,,,,,,,,,,,88704,001,2022-04-28_16h27.46.789,SPAMnetsValid,2021.1.4,MacIntel,60.0024001,,,,,,,,,,,,,,,,,,,,,,,,,,,,,,,,,,,,,,,,,,,,,,,,,,,,,,,,,,,,,,,,,hore,Animals,6,0,6,0,1,,,,,,,,,,,,,,,,,,
,,,,,,,,,,,,,,,88704,001,2022-04-28_16h27.46.789,SPAMnetsValid,2021.1.4,MacIntel,60.0024001,,,,,,,,,,,,,,,,,,,,,,,,,,,,,,,,,,,,,,,,,,,,,,,,,,,,,,,,,,,,,,,,,chicken,Animals,7,0,7,0,1,,,,,,,,,,,,,,,,,,
,,,,,,,,,,,,,,,88704,001,2022-04-28_16h27.46.789,SPAMnetsValid,2021.1.4,MacIntel,60.0024001,,,,,,,,,,,,,,,,,,,,,,,,,,,,,,,,,,,,,,,,,,,,,,,,,,,,,,,,,,,,,,,,,donkey,Animals,8,0,8,0,1,,,,,,,,,,,,,,,,,,
,,,,,,,,,,,,,,,88704,001,2022-04-28_16h27.46.789,SPAMnetsValid,2021.1.4,MacIntel,60.0024001,,,,,,,,,,,,,,,,,,,,,,,,,,,,,,,,,,,,,,,,,,,,,,,,,,,,,,,,,,,,,,,,,kitten,Animals,9,0,9,0,1,,,,,,,,,,,,,,,,,,
,,,,,,,,,,,,,,,88704,001,2022-04-28_16h27.46.789,SPAMnetsValid,2021.1.4,MacIntel,60.0024001,,,,,,,,,,,,,,,,,,,,,,,,,,,,,,,,,,,,,,,,,,,,,,,,,,,,,,,,,,,,,,,,,puppyird,Animals,10,0,10,0,1,,,,,,,,,,,,,,,,,,
,,,,,,,,,,,,,,,88704,001,2022-04-28_16h27.46.789,SPAMnetsValid,2021.1.4,MacIntel,60.0024001,,,,,,,,,,,,,,,,,,,,,,,,,,,,,,,,,,,,,,,,,,,,,,,,,,,,,,,,,,,,,,,,,bird,Animals,11,0,11,0,1,,,,,,,,,,,,,,,,,,
,,,,,,,,,,,,,,,88704,001,2022-04-28_16h27.46.789,SPAMnetsValid,2021.1.4,MacIntel,60.0024001,,,,,,,,,,,,,,,,,,,,,,,,,,,,,,,,,,,,,,,,,,,,,,,,,,,,,,,,,,,,,,,,,fish,Animals,12,0,12,0,1,,,,,,,,,,,,,,,,,,
,,,,,,,,,,,,,,,88704,001,2022-04-28_16h27.46.789,SPAMnetsValid,2021.1.4,MacIntel,60.0024001,,,,,,,,,,,,,,,,,,,,,,,,,,,,,,,,,,,,,,,,,,,,,,,,,,,,,,,,,,,,,,,,,shark,Animals,13,0,13,0,1,,,,,,,,,,,,,,,,,,
,,,,,,,,,,,,,,,88704,001,2022-04-28_16h27.46.789,SPAMnetsValid,2021.1.4,MacIntel,60.0024001,,,,,,,,,,,,,,,,,,,,,,,,,,,,,,,,,,,,,,,,,,,,,,,,,,,,,,,,,,,,,,,,,whale,Animals,14,0,14,0,1,,,,,,,,,,,,,,,,,,
,,,,,,,,,,,,,,,88704,001,2022-04-28_16h27.46.789,SPAMnetsValid,2021.1.4,MacIntel,60.0024001,,,,,,,,,,,,,,,,,,,,,,,,,,,,,,,,,,,,,,,,,,,,,,,,,,,,,,,,,,,,,,,,,jellyfish,Animals,15,0,15,0,1,,,,,,,,,,,,,,,,,,
,,,,,,,,,,,,,,,88704,001,2022-04-28_16h27.46.789,SPAMnetsValid,2021.1.4,MacIntel,60.0024001,,,,,,,,,,,,,,,,,,,,,,,,,,,,,,,,,,,,,,,,,,,,,,,,,,,,,,,,,,,,,,,,,,,,,,,,0,0,0,0,1,Animals,,,,,,,,,,,,
,,,,,,,,,,,,,,,88704,001,2022-04-28_16h27.46.789,SPAMnetsValid,2021.1.4,MacIntel,60.0024001,,,,,,,,,,,,,,,,,,,,,,,,,,,,,,,,,,,,,,,,,,,,,,,,,,,,,,,,,,,,,,,,,,,,,,,,,,,,,,4,6.684,0,0,0,0,1,"I enjoy concentrating on a fantasy or daydream and exploring all its possibilities, letting it grow and develop.",0,1,,
,,,,,,,,,,,,,,,88704,001,2022-04-28_16h27.46.789,SPAMnetsValid,2021.1.4,MacIntel,60.0024001,,,,,,,,,,,,,,,,,,,,,,,,,,,,,,,,,,,,,,,,,,,,,,,,,,,,,,,,,,,,,,,,,,,,,,,,,,,,,,4,0.6126,0,1,1,1,1,I think it's interesting to learn and develop new hobbies.,0,2,,
,,,,,,,,,,,,,,,88704,001,2022-04-28_16h27.46.789,SPAMnetsValid,2021.1.4,MacIntel,60.0024001,,,,,,,,,,,,,,,,,,,,,,,,,,,,,,,,,,,,,,,,,,,,,,,,,,,,,,,,,,,,,,,,,,,,,,,,,,,,,,2,1.2226,0,2,2,2,1,I am intrigued by the patterns I find in art and nature.,0,3,,
,,,,,,,,,,,,,,,88704,001,2022-04-28_16h27.46.789,SPAMnetsValid,2021.1.4,MacIntel,60.0024001,,,,,,,,,,,,,,,,,,,,,,,,,,,,,,,,,,,,,,,,,,,,,,,,,,,,,,,,,,,,,,,,,,,,,,,,,,,,,,3,0.8401,0,3,3,3,1,I believe letting students hear controversial speakers can only confuse and mislead them.,1,4,,
,,,,,,,,,,,,,,,88704,001,2022-04-28_16h27.46.789,SPAMnetsValid,2021.1.4,MacIntel,60.0024001,,,,,,,,,,,,,,,,,,,,,,,,,,,,,,,,,,,,,,,,,,,,,,,,,,,,,,,,,,,,,,,,,,,,,,,,,,,,,,2,0.807,0,4,4,4,1,Poetry has little or no effect on me.,1,5,,
,,,,,,,,,,,,,,,88704,001,2022-04-28_16h27.46.789,SPAMnetsValid,2021.1.4,MacIntel,60.0024001,,,,,,,,,,,,,,,,,,,,,,,,,,,,,,,,,,,,,,,,,,,,,,,,,,,,,,,,,,,,,,,,,,,,,,,,,,,,,,3,0.9932,0,5,5,5,1,I would have difficulty just letting my mind wander without control or guidance.,1,6,,
,,,,,,,,,,,,,,,88704,001,2022-04-28_16h27.46.789,SPAMnetsValid,2021.1.4,MacIntel,60.0024001,,,,,,,,,,,,,,,,,,,,,,,,,,,,,,,,,,,,,,,,,,,,,,,,,,,,,,,,,,,,,,,,,,,,,,,,,,,,,,3,0.5062,0,6,6,6,1,I seldom notice the moods or feelings that different environments produce.,1,7,,
,,,,,,,,,,,,,,,88704,001,2022-04-28_16h27.46.789,SPAMnetsValid,2021.1.4,MacIntel,60.0024001,,,,,,,,,,,,,,,,,,,,,,,,,,,,,,,,,,,,,,,,,,,,,,,,,,,,,,,,,,,,,,,,,,,,,,,,,,,,,,3,36.4141,0,7,7,7,1,I experience a wide range of emotions or feelings.,0,8,,
,,,,,,,,,,,,,,,88704,001,2022-04-28_16h27.46.789,SPAMnetsValid,2021.1.4,MacIntel,60.0024001,,,,,,,,,,,,,,,,,,,,,,,,,,,,,,,,,,,,,,,,,,,,,,,,,,,,,,,,,,,,,,,,,,,,,,,,,,,,,,3,1.206,0,8,8,8,1,"Sometimes when I am reading poetry or looking at a work of art, I feel a chill or wave of excitement.",0,9,,
,,,,,,,,,,,,,,,88704,001,2022-04-28_16h27.46.789,SPAMnetsValid,2021.1.4,MacIntel,60.0024001,,,,,,,,,,,,,,,,,,,,,,,,,,,,,,,,,,,,,,,,,,,,,,,,,,,,,,,,,,,,,,,,,,,,,,,,,,,,,,3,0.6644,0,9,9,9,1,I have little interest in speculating on the nature of the universe or the human condition.,1,10,,
,,,,,,,,,,,,,,,88704,001,2022-04-28_16h27.46.789,SPAMnetsValid,2021.1.4,MacIntel,60.0024001,,,,,,,,,,,,,,,,,,,,,,,,,,,,,,,,,,,,,,,,,,,,,,,,,,,,,,,,,,,,,,,,,,,,,,,,,,,,,,3,0.5716,0,10,10,10,1,I have a lot of intellectual curiosity.,0,11,,
,,,,,,,,,,,,,,,88704,001,2022-04-28_16h27.46.789,SPAMnetsValid,2021.1.4,MacIntel,60.0024001,,,,,,,,,,,,,,,,,,,,,,,,,,,,,,,,,,,,,,,,,,,,,,,,,,,,,,,,,,,,,,,,,,,,,,,,,,,,,,3,0.3761,0,11,11,11,1,I often enjoy playing with theories or abstract ideas.,0,12,,
,,,,,,,,,,,,,,,88704,001,2022-04-28_16h27.46.789,SPAMnetsValid,2021.1.4,MacIntel,60.0024001,,,,,,,,,,,,,,,,,,,,,,,,,,,,,,,,,,,,,,,,,,,,,,,,,,,,,,,,,,,,,,,,,,,,,,,,,,,,,,,,,,,,,,,,return,2.7339
