key_resp_3.keys,key_resp_3.rt,slider_2.response,slider_2.rt,rjt_rating,rjt_RT,trials_24.thisRepN,trials_24.thisTrialN,trials_24.thisN,trials_24.thisIndex,trials_24.ran,rjt_order,word1,word2,attention,participant,session,date,expName,psychopyVersion,OS,frameRate,trials_4.thisRepN,trials_4.thisTrialN,trials_4.thisN,trials_4.thisIndex,trials_4.ran,trials_5.thisRepN,trials_5.thisTrialN,trials_5.thisN,trials_5.thisIndex,trials_5.ran,repOne,repTwo,slider.response,slider.rt,trials_22.thisRepN,trials_22.thisTrialN,trials_22.thisN,trials_22.thisIndex,trials_22.ran,trials_99.thisRepN,trials_99.thisTrialN,trials_99.thisN,trials_99.thisIndex,trials_99.ran,slider_extend_2.response,slider_extend_2.rt,trials_6.thisRepN,trials_6.thisTrialN,trials_6.thisN,trials_6.thisIndex,trials_6.ran,vCue2,R1,R2,R3,R4,correct,sliderVocab.response,sliderVocab.rt,trials_7.thisRepN,trials_7.thisTrialN,trials_7.thisN,trials_7.thisIndex,trials_7.ran,VocabCue,VR1,VR2,VR3,VR4,VR5,VocabCorrect,AUT_resp,AUT_label,trials.thisRepN,trials.thisTrialN,trials.thisN,trials.thisIndex,trials.ran,trials_2.thisRepN,trials_2.thisTrialN,trials_2.thisN,trials_2.thisIndex,trials_2.ran,aut_prompt,VF_response,VF_tag,trials_16.thisRepN,trials_16.thisTrialN,trials_16.thisN,trials_16.thisIndex,trials_16.ran,trials_17.thisRepN,trials_17.thisTrialN,trials_17.thisN,trials_17.thisIndex,trials_17.ran,VFcond,open_slider.response,open_slider.rt,trials_3.thisRepN,trials_3.thisTrialN,trials_3.thisN,trials_3.thisIndex,trials_3.ran,OpenQ,Rev,OPEN_ORDER,key_resp_2.keys,key_resp_2.rt
return,14.2688,8,7.0513,8,7.0513,0,0,0,7,1,188,flower,tree,,88723,001,2022-04-29_12h23.41.105,SPAMnetsValid,2021.1.4,MacIntel,60.0024001,,,,,,,,,,,,,,,,,,,,,,,,,,,,,,,,,,,,,,,,,,,,,,,,,,,,,,,,,,,,,,,,,,,,,,,,,,,,,,,,,,,,,,,,,
,,2,1.4963,2,1.4963,0,1,1,19,1,183,cake,rose,,88723,001,2022-04-29_12h23.41.105,SPAMnetsValid,2021.1.4,MacIntel,60.0024001,,,,,,,,,,,,,,,,,,,,,,,,,,,,,,,,,,,,,,,,,,,,,,,,,,,,,,,,,,,,,,,,,,,,,,,,,,,,,,,,,,,,,,,,,
,,3,1.4141,3,1.4141,0,2,2,45,1,179,broom,oven,,88723,001,2022-04-29_12h23.41.105,SPAMnetsValid,2021.1.4,MacIntel,60.0024001,,,,,,,,,,,,,,,,,,,,,,,,,,,,,,,,,,,,,,,,,,,,,,,,,,,,,,,,,,,,,,,,,,,,,,,,,,,,,,,,,,,,,,,,,
,,4,4.4125,4,4.4125,0,3,3,96,1,136,chocolate,microwave,,88723,001,2022-04-29_12h23.41.105,SPAMnetsValid,2021.1.4,MacIntel,60.0024001,,,,,,,,,,,,,,,,,,,,,,,,,,,,,,,,,,,,,,,,,,,,,,,,,,,,,,,,,,,,,,,,,,,,,,,,,,,,,,,,,,,,,,,,,
,,7,2.4289,7,2.4289,0,4,4,40,1,165,onion,rose,,88723,001,2022-04-29_12h23.41.105,SPAMnetsValid,2021.1.4,MacIntel,60.0024001,,,,,,,,,,,,,,,,,,,,,,,,,,,,,,,,,,,,,,,,,,,,,,,,,,,,,,,,,,,,,,,,,,,,,,,,,,,,,,,,,,,,,,,,,
,,8,1.6128,8,1.6128,0,5,5,23,1,148,flower,melon,,88723,001,2022-04-29_12h23.41.105,SPAMnetsValid,2021.1.4,MacIntel,60.0024001,,,,,,,,,,,,,,,,,,,,,,,,,,,,,,,,,,,,,,,,,,,,,,,,,,,,,,,,,,,,,,,,,,,,,,,,,,,,,,,,,,,,,,,,,
,,4,2.7803,4,2.7803,0,6,6,89,1,140,cookie,refrigerator,,88723,001,2022-04-29_12h23.41.105,SPAMnetsValid,2021.1.4,MacIntel,60.0024001,,,,,,,,,,,,,,,,,,,,,,,,,,,,,,,,,,,,,,,,,,,,,,,,,,,,,,,,,,,,,,,,,,,,,,,,,,,,,,,,,,,,,,,,,
,,4,3.4637,4,3.4637,0,7,7,92,1,170,cookie,microwave,,88723,001,2022-04-29_12h23.41.105,SPAMnetsValid,2021.1.4,MacIntel,60.0024001,,,,,,,,,,,,,,,,,,,,,,,,,,,,,,,,,,,,,,,,,,,,,,,,,,,,,,,,,,,,,,,,,,,,,,,,,,,,,,,,,,,,,,,,,
,,1,2.2295,1,2.2295,0,8,8,21,1,159,cookie,flower,,88723,001,2022-04-29_12h23.41.105,SPAMnetsValid,2021.1.4,MacIntel,60.0024001,,,,,,,,,,,,,,,,,,,,,,,,,,,,,,,,,,,,,,,,,,,,,,,,,,,,,,,,,,,,,,,,,,,,,,,,,,,,,,,,,,,,,,,,,
,,1,1.6633,1,1.6633,0,9,9,46,1,123,cookie,tree,,88723,001,2022-04-29_12h23.41.105,SPAMnetsValid,2021.1.4,MacIntel,60.0024001,,,,,,,,,,,,,,,,,,,,,,,,,,,,,,,,,,,,,,,,,,,,,,,,,,,,,,,,,,,,,,,,,,,,,,,,,,,,,,,,,,,,,,,,,
,,1,1.6627,1,1.6627,0,10,10,73,1,135,carrot,oven,,88723,001,2022-04-29_12h23.41.105,SPAMnetsValid,2021.1.4,MacIntel,60.0024001,,,,,,,,,,,,,,,,,,,,,,,,,,,,,,,,,,,,,,,,,,,,,,,,,,,,,,,,,,,,,,,,,,,,,,,,,,,,,,,,,,,,,,,,,
,,7,2.5967,7,2.5967,0,11,11,87,1,114,cookie,strawberry,,88723,001,2022-04-29_12h23.41.105,SPAMnetsValid,2021.1.4,MacIntel,60.0024001,,,,,,,,,,,,,,,,,,,,,,,,,,,,,,,,,,,,,,,,,,,,,,,,,,,,,,,,,,,,,,,,,,,,,,,,,,,,,,,,,,,,,,,,,
,,8,2.1129,8,2.1129,0,12,12,56,1,113,refrigerator,strawberry,,88723,001,2022-04-29_12h23.41.105,SPAMnetsValid,2021.1.4,MacIntel,60.0024001,,,,,,,,,,,,,,,,,,,,,,,,,,,,,,,,,,,,,,,,,,,,,,,,,,,,,,,,,,,,,,,,,,,,,,,,,,,,,,,,,,,,,,,,,
,,3,2.7979,3,2.7979,0,13,13,95,1,121,broom,microwave,,88723,001,2022-04-29_12h23.41.105,SPAMnetsValid,2021.1.4,MacIntel,60.0024001,,,,,,,,,,,,,,,,,,,,,,,,,,,,,,,,,,,,,,,,,,,,,,,,,,,,,,,,,,,,,,,,,,,,,,,,,,,,,,,,,,,,,,,,,
,,1,2.4637,1,2.4637,0,14,14,68,1,180,tree,yogurt,,88723,001,2022-04-29_12h23.41.105,SPAMnetsValid,2021.1.4,MacIntel,60.0024001,,,,,,,,,,,,,,,,,,,,,,,,,,,,,,,,,,,,,,,,,,,,,,,,,,,,,,,,,,,,,,,,,,,,,,,,,,,,,,,,,,,,,,,,,
,,8,2.0128,8,2.0128,0,15,15,35,1,147,cake,refrigerator,,88723,001,2022-04-29_12h23.41.105,SPAMnetsValid,2021.1.4,MacIntel,60.0024001,,,,,,,,,,,,,,,,,,,,,,,,,,,,,,,,,,,,,,,,,,,,,,,,,,,,,,,,,,,,,,,,,,,,,,,,,,,,,,,,,,,,,,,,,
,,6,1.6131,6,1.6131,0,16,16,41,1,175,melon,onion,,88723,001,2022-04-29_12h23.41.105,SPAMnetsValid,2021.1.4,MacIntel,60.0024001,,,,,,,,,,,,,,,,,,,,,,,,,,,,,,,,,,,,,,,,,,,,,,,,,,,,,,,,,,,,,,,,,,,,,,,,,,,,,,,,,,,,,,,,,
,,1,3.3473,1,3.3473,0,17,17,67,1,96,oven,strawberry,,88723,001,2022-04-29_12h23.41.105,SPAMnetsValid,2021.1.4,MacIntel,60.0024001,,,,,,,,,,,,,,,,,,,,,,,,,,,,,,,,,,,,,,,,,,,,,,,,,,,,,,,,,,,,,,,,,,,,,,,,,,,,,,,,,,,,,,,,,
,,9,2.1134,9,2.1134,0,18,18,51,1,168,cactus,flower,,88723,001,2022-04-29_12h23.41.105,SPAMnetsValid,2021.1.4,MacIntel,60.0024001,,,,,,,,,,,,,,,,,,,,,,,,,,,,,,,,,,,,,,,,,,,,,,,,,,,,,,,,,,,,,,,,,,,,,,,,,,,,,,,,,,,,,,,,,
,,9,1.597,9,1.597,0,19,19,27,1,158,cookie,oven,,88723,001,2022-04-29_12h23.41.105,SPAMnetsValid,2021.1.4,MacIntel,60.0024001,,,,,,,,,,,,,,,,,,,,,,,,,,,,,,,,,,,,,,,,,,,,,,,,,,,,,,,,,,,,,,,,,,,,,,,,,,,,,,,,,,,,,,,,,
,,7,2.147,7,2.147,0,20,20,62,1,189,onion,tree,,88723,001,2022-04-29_12h23.41.105,SPAMnetsValid,2021.1.4,MacIntel,60.0024001,,,,,,,,,,,,,,,,,,,,,,,,,,,,,,,,,,,,,,,,,,,,,,,,,,,,,,,,,,,,,,,,,,,,,,,,,,,,,,,,,,,,,,,,,
,,3,2.3966,3,2.3966,0,21,21,78,1,132,broom,tree,,88723,001,2022-04-29_12h23.41.105,SPAMnetsValid,2021.1.4,MacIntel,60.0024001,,,,,,,,,,,,,,,,,,,,,,,,,,,,,,,,,,,,,,,,,,,,,,,,,,,,,,,,,,,,,,,,,,,,,,,,,,,,,,,,,,,,,,,,,
,,8,1.7964,8,1.7964,0,22,22,65,1,160,cookie,kitchen,,88723,001,2022-04-29_12h23.41.105,SPAMnetsValid,2021.1.4,MacIntel,60.0024001,,,,,,,,,,,,,,,,,,,,,,,,,,,,,,,,,,,,,,,,,,,,,,,,,,,,,,,,,,,,,,,,,,,,,,,,,,,,,,,,,,,,,,,,,
,,8,1.4126,8,1.4126,0,23,23,0,1,106,cake,strawberry,,88723,001,2022-04-29_12h23.41.105,SPAMnetsValid,2021.1.4,MacIntel,60.0024001,,,,,,,,,,,,,,,,,,,,,,,,,,,,,,,,,,,,,,,,,,,,,,,,,,,,,,,,,,,,,,,,,,,,,,,,,,,,,,,,,,,,,,,,,
,,8,0.9292,8,0.9292,0,24,24,44,1,116,cake,chocolate,,88723,001,2022-04-29_12h23.41.105,SPAMnetsValid,2021.1.4,MacIntel,60.0024001,,,,,,,,,,,,,,,,,,,,,,,,,,,,,,,,,,,,,,,,,,,,,,,,,,,,,,,,,,,,,,,,,,,,,,,,,,,,,,,,,,,,,,,,,
,,9,1.7467,9,1.7467,0,25,25,22,1,142,garden,tree,,88723,001,2022-04-29_12h23.41.105,SPAMnetsValid,2021.1.4,MacIntel,60.0024001,,,,,,,,,,,,,,,,,,,,,,,,,,,,,,,,,,,,,,,,,,,,,,,,,,,,,,,,,,,,,,,,,,,,,,,,,,,,,,,,,,,,,,,,,
,,9,1.6621,9,1.6621,0,26,26,86,1,193,melon,melon,CHECK,88723,001,2022-04-29_12h23.41.105,SPAMnetsValid,2021.1.4,MacIntel,60.0024001,,,,,,,,,,,,,,,,,,,,,,,,,,,,,,,,,,,,,,,,,,,,,,,,,,,,,,,,,,,,,,,,,,,,,,,,,,,,,,,,,,,,,,,,,
,,2,5.6315,2,5.6315,0,27,27,77,1,172,kitchen,melon,,88723,001,2022-04-29_12h23.41.105,SPAMnetsValid,2021.1.4,MacIntel,60.0024001,,,,,,,,,,,,,,,,,,,,,,,,,,,,,,,,,,,,,,,,,,,,,,,,,,,,,,,,,,,,,,,,,,,,,,,,,,,,,,,,,,,,,,,,,
,,3,1.1966,3,1.1966,0,28,28,32,1,182,flower,refrigerator,,88723,001,2022-04-29_12h23.41.105,SPAMnetsValid,2021.1.4,MacIntel,60.0024001,,,,,,,,,,,,,,,,,,,,,,,,,,,,,,,,,,,,,,,,,,,,,,,,,,,,,,,,,,,,,,,,,,,,,,,,,,,,,,,,,,,,,,,,,
,,6,2.5139,6,2.5139,0,29,29,37,1,139,carrot,strawberry,,88723,001,2022-04-29_12h23.41.105,SPAMnetsValid,2021.1.4,MacIntel,60.0024001,,,,,,,,,,,,,,,,,,,,,,,,,,,,,,,,,,,,,,,,,,,,,,,,,,,,,,,,,,,,,,,,,,,,,,,,,,,,,,,,,,,,,,,,,
,,7,10.2635,7,10.2635,0,30,30,75,1,178,cactus,carrot,,88723,001,2022-04-29_12h23.41.105,SPAMnetsValid,2021.1.4,MacIntel,60.0024001,,,,,,,,,,,,,,,,,,,,,,,,,,,,,,,,,,,,,,,,,,,,,,,,,,,,,,,,,,,,,,,,,,,,,,,,,,,,,,,,,,,,,,,,,
,,7,1.1961,7,1.1961,0,31,31,85,1,115,refrigerator,tomato,,88723,001,2022-04-29_12h23.41.105,SPAMnetsValid,2021.1.4,MacIntel,60.0024001,,,,,,,,,,,,,,,,,,,,,,,,,,,,,,,,,,,,,,,,,,,,,,,,,,,,,,,,,,,,,,,,,,,,,,,,,,,,,,,,,,,,,,,,,
,,7,1.3461,7,1.3461,0,32,32,72,1,181,carrot,kitchen,,88723,001,2022-04-29_12h23.41.105,SPAMnetsValid,2021.1.4,MacIntel,60.0024001,,,,,,,,,,,,,,,,,,,,,,,,,,,,,,,,,,,,,,,,,,,,,,,,,,,,,,,,,,,,,,,,,,,,,,,,,,,,,,,,,,,,,,,,,
,,1,1.4803,1,1.4803,0,33,33,63,1,137,microwave,tree,,88723,001,2022-04-29_12h23.41.105,SPAMnetsValid,2021.1.4,MacIntel,60.0024001,,,,,,,,,,,,,,,,,,,,,,,,,,,,,,,,,,,,,,,,,,,,,,,,,,,,,,,,,,,,,,,,,,,,,,,,,,,,,,,,,,,,,,,,,
,,2,2.0111,2,2.0111,0,34,34,34,1,153,carrot,pretzel,,88723,001,2022-04-29_12h23.41.105,SPAMnetsValid,2021.1.4,MacIntel,60.0024001,,,,,,,,,,,,,,,,,,,,,,,,,,,,,,,,,,,,,,,,,,,,,,,,,,,,,,,,,,,,,,,,,,,,,,,,,,,,,,,,,,,,,,,,,
,,7,7.0153,7,7.0153,0,35,35,36,1,161,kitchen,pretzel,,88723,001,2022-04-29_12h23.41.105,SPAMnetsValid,2021.1.4,MacIntel,60.0024001,,,,,,,,,,,,,,,,,,,,,,,,,,,,,,,,,,,,,,,,,,,,,,,,,,,,,,,,,,,,,,,,,,,,,,,,,,,,,,,,,,,,,,,,,
,,8,1.4288,8,1.4288,0,36,36,76,1,102,chocolate,refrigerator,,88723,001,2022-04-29_12h23.41.105,SPAMnetsValid,2021.1.4,MacIntel,60.0024001,,,,,,,,,,,,,,,,,,,,,,,,,,,,,,,,,,,,,,,,,,,,,,,,,,,,,,,,,,,,,,,,,,,,,,,,,,,,,,,,,,,,,,,,,
,,6,4.4311,6,4.4311,0,37,37,38,1,155,carrot,cookie,,88723,001,2022-04-29_12h23.41.105,SPAMnetsValid,2021.1.4,MacIntel,60.0024001,,,,,,,,,,,,,,,,,,,,,,,,,,,,,,,,,,,,,,,,,,,,,,,,,,,,,,,,,,,,,,,,,,,,,,,,,,,,,,,,,,,,,,,,,
,,7,2.2631,7,2.2631,0,38,38,43,1,185,cactus,rose,,88723,001,2022-04-29_12h23.41.105,SPAMnetsValid,2021.1.4,MacIntel,60.0024001,,,,,,,,,,,,,,,,,,,,,,,,,,,,,,,,,,,,,,,,,,,,,,,,,,,,,,,,,,,,,,,,,,,,,,,,,,,,,,,,,,,,,,,,,
,,7,2.4303,7,2.4303,0,39,39,53,1,177,chocolate,strawberry,,88723,001,2022-04-29_12h23.41.105,SPAMnetsValid,2021.1.4,MacIntel,60.0024001,,,,,,,,,,,,,,,,,,,,,,,,,,,,,,,,,,,,,,,,,,,,,,,,,,,,,,,,,,,,,,,,,,,,,,,,,,,,,,,,,,,,,,,,,
,,1,1.9791,1,1.9791,0,40,40,15,1,145,cactus,yogurt,,88723,001,2022-04-29_12h23.41.105,SPAMnetsValid,2021.1.4,MacIntel,60.0024001,,,,,,,,,,,,,,,,,,,,,,,,,,,,,,,,,,,,,,,,,,,,,,,,,,,,,,,,,,,,,,,,,,,,,,,,,,,,,,,,,,,,,,,,,
,,1,1.3125,1,1.3125,0,41,41,49,1,152,cactus,strawberry,,88723,001,2022-04-29_12h23.41.105,SPAMnetsValid,2021.1.4,MacIntel,60.0024001,,,,,,,,,,,,,,,,,,,,,,,,,,,,,,,,,,,,,,,,,,,,,,,,,,,,,,,,,,,,,,,,,,,,,,,,,,,,,,,,,,,,,,,,,
,,1,1.6622,1,1.6622,0,42,42,71,1,187,cactus,microwave,,88723,001,2022-04-29_12h23.41.105,SPAMnetsValid,2021.1.4,MacIntel,60.0024001,,,,,,,,,,,,,,,,,,,,,,,,,,,,,,,,,,,,,,,,,,,,,,,,,,,,,,,,,,,,,,,,,,,,,,,,,,,,,,,,,,,,,,,,,
,,1,0.7462,1,0.7462,0,43,43,3,1,129,cactus,refrigerator,,88723,001,2022-04-29_12h23.41.105,SPAMnetsValid,2021.1.4,MacIntel,60.0024001,,,,,,,,,,,,,,,,,,,,,,,,,,,,,,,,,,,,,,,,,,,,,,,,,,,,,,,,,,,,,,,,,,,,,,,,,,,,,,,,,,,,,,,,,
,,1,1.4953,1,1.4953,0,44,44,33,1,131,cactus,garden,,88723,001,2022-04-29_12h23.41.105,SPAMnetsValid,2021.1.4,MacIntel,60.0024001,,,,,,,,,,,,,,,,,,,,,,,,,,,,,,,,,,,,,,,,,,,,,,,,,,,,,,,,,,,,,,,,,,,,,,,,,,,,,,,,,,,,,,,,,
,,3,3.4489,3,3.4489,0,45,45,74,1,128,melon,microwave,,88723,001,2022-04-29_12h23.41.105,SPAMnetsValid,2021.1.4,MacIntel,60.0024001,,,,,,,,,,,,,,,,,,,,,,,,,,,,,,,,,,,,,,,,,,,,,,,,,,,,,,,,,,,,,,,,,,,,,,,,,,,,,,,,,,,,,,,,,
,,7,15.5979,7,15.5979,0,46,46,91,1,166,cake,yogurt,,88723,001,2022-04-29_12h23.41.105,SPAMnetsValid,2021.1.4,MacIntel,60.0024001,,,,,,,,,,,,,,,,,,,,,,,,,,,,,,,,,,,,,,,,,,,,,,,,,,,,,,,,,,,,,,,,,,,,,,,,,,,,,,,,,,,,,,,,,
,,9,1.5308,9,1.5308,0,47,47,60,1,122,flower,garden,,88723,001,2022-04-29_12h23.41.105,SPAMnetsValid,2021.1.4,MacIntel,60.0024001,,,,,,,,,,,,,,,,,,,,,,,,,,,,,,,,,,,,,,,,,,,,,,,,,,,,,,,,,,,,,,,,,,,,,,,,,,,,,,,,,,,,,,,,,
,,2,2.8474,2,2.8474,0,48,48,4,1,109,broom,strawberry,,88723,001,2022-04-29_12h23.41.105,SPAMnetsValid,2021.1.4,MacIntel,60.0024001,,,,,,,,,,,,,,,,,,,,,,,,,,,,,,,,,,,,,,,,,,,,,,,,,,,,,,,,,,,,,,,,,,,,,,,,,,,,,,,,,,,,,,,,,
,,2,2.5134,2,2.5134,0,49,49,81,1,104,garden,microwave,,88723,001,2022-04-29_12h23.41.105,SPAMnetsValid,2021.1.4,MacIntel,60.0024001,,,,,,,,,,,,,,,,,,,,,,,,,,,,,,,,,,,,,,,,,,,,,,,,,,,,,,,,,,,,,,,,,,,,,,,,,,,,,,,,,,,,,,,,,
,,6,2.2299,6,2.2299,0,50,50,5,1,108,carrot,chocolate,,88723,001,2022-04-29_12h23.41.105,SPAMnetsValid,2021.1.4,MacIntel,60.0024001,,,,,,,,,,,,,,,,,,,,,,,,,,,,,,,,,,,,,,,,,,,,,,,,,,,,,,,,,,,,,,,,,,,,,,,,,,,,,,,,,,,,,,,,,
,,1,1.8621,1,1.8621,0,51,51,84,1,130,microwave,yogurt,,88723,001,2022-04-29_12h23.41.105,SPAMnetsValid,2021.1.4,MacIntel,60.0024001,,,,,,,,,,,,,,,,,,,,,,,,,,,,,,,,,,,,,,,,,,,,,,,,,,,,,,,,,,,,,,,,,,,,,,,,,,,,,,,,,,,,,,,,,
,,7,1.8798,7,1.8798,0,52,52,42,1,184,oven,pretzel,,88723,001,2022-04-29_12h23.41.105,SPAMnetsValid,2021.1.4,MacIntel,60.0024001,,,,,,,,,,,,,,,,,,,,,,,,,,,,,,,,,,,,,,,,,,,,,,,,,,,,,,,,,,,,,,,,,,,,,,,,,,,,,,,,,,,,,,,,,
,,2,6.0307,2,6.0307,0,53,53,94,1,133,cake,flower,,88723,001,2022-04-29_12h23.41.105,SPAMnetsValid,2021.1.4,MacIntel,60.0024001,,,,,,,,,,,,,,,,,,,,,,,,,,,,,,,,,,,,,,,,,,,,,,,,,,,,,,,,,,,,,,,,,,,,,,,,,,,,,,,,,,,,,,,,,
,,8,1.6804,8,1.6804,0,54,54,1,1,173,kitchen,tomato,,88723,001,2022-04-29_12h23.41.105,SPAMnetsValid,2021.1.4,MacIntel,60.0024001,,,,,,,,,,,,,,,,,,,,,,,,,,,,,,,,,,,,,,,,,,,,,,,,,,,,,,,,,,,,,,,,,,,,,,,,,,,,,,,,,,,,,,,,,
,,7,1.1127,7,1.1127,0,55,55,6,1,151,microwave,onion,,88723,001,2022-04-29_12h23.41.105,SPAMnetsValid,2021.1.4,MacIntel,60.0024001,,,,,,,,,,,,,,,,,,,,,,,,,,,,,,,,,,,,,,,,,,,,,,,,,,,,,,,,,,,,,,,,,,,,,,,,,,,,,,,,,,,,,,,,,
,,9,3.1794,9,3.1794,0,56,56,52,1,110,chocolate,cookie,,88723,001,2022-04-29_12h23.41.105,SPAMnetsValid,2021.1.4,MacIntel,60.0024001,,,,,,,,,,,,,,,,,,,,,,,,,,,,,,,,,,,,,,,,,,,,,,,,,,,,,,,,,,,,,,,,,,,,,,,,,,,,,,,,,,,,,,,,,
,,3,2.9477,3,2.9477,0,57,57,16,1,111,carrot,microwave,,88723,001,2022-04-29_12h23.41.105,SPAMnetsValid,2021.1.4,MacIntel,60.0024001,,,,,,,,,,,,,,,,,,,,,,,,,,,,,,,,,,,,,,,,,,,,,,,,,,,,,,,,,,,,,,,,,,,,,,,,,,,,,,,,,,,,,,,,,
,,3,1.297,3,1.297,0,58,58,12,1,162,microwave,tomato,,88723,001,2022-04-29_12h23.41.105,SPAMnetsValid,2021.1.4,MacIntel,60.0024001,,,,,,,,,,,,,,,,,,,,,,,,,,,,,,,,,,,,,,,,,,,,,,,,,,,,,,,,,,,,,,,,,,,,,,,,,,,,,,,,,,,,,,,,,
,,9,1.7644,9,1.7644,0,59,59,66,1,150,microwave,refrigerator,,88723,001,2022-04-29_12h23.41.105,SPAMnetsValid,2021.1.4,MacIntel,60.0024001,,,,,,,,,,,,,,,,,,,,,,,,,,,,,,,,,,,,,,,,,,,,,,,,,,,,,,,,,,,,,,,,,,,,,,,,,,,,,,,,,,,,,,,,,
,,6,1.7803,6,1.7803,0,60,60,79,1,103,pretzel,tomato,,88723,001,2022-04-29_12h23.41.105,SPAMnetsValid,2021.1.4,MacIntel,60.0024001,,,,,,,,,,,,,,,,,,,,,,,,,,,,,,,,,,,,,,,,,,,,,,,,,,,,,,,,,,,,,,,,,,,,,,,,,,,,,,,,,,,,,,,,,
,,3,1.8645,3,1.8645,0,61,61,20,1,149,broom,tomato,,88723,001,2022-04-29_12h23.41.105,SPAMnetsValid,2021.1.4,MacIntel,60.0024001,,,,,,,,,,,,,,,,,,,,,,,,,,,,,,,,,,,,,,,,,,,,,,,,,,,,,,,,,,,,,,,,,,,,,,,,,,,,,,,,,,,,,,,,,
,,6,5.731,6,5.731,0,62,62,82,1,98,pretzel,strawberry,,88723,001,2022-04-29_12h23.41.105,SPAMnetsValid,2021.1.4,MacIntel,60.0024001,,,,,,,,,,,,,,,,,,,,,,,,,,,,,,,,,,,,,,,,,,,,,,,,,,,,,,,,,,,,,,,,,,,,,,,,,,,,,,,,,,,,,,,,,
,,1,2.5127,1,2.5127,0,63,63,64,1,157,refrigerator,rose,,88723,001,2022-04-29_12h23.41.105,SPAMnetsValid,2021.1.4,MacIntel,60.0024001,,,,,,,,,,,,,,,,,,,,,,,,,,,,,,,,,,,,,,,,,,,,,,,,,,,,,,,,,,,,,,,,,,,,,,,,,,,,,,,,,,,,,,,,,
,,7,2.0148,7,2.0148,0,64,64,18,1,119,strawberry,tree,,88723,001,2022-04-29_12h23.41.105,SPAMnetsValid,2021.1.4,MacIntel,60.0024001,,,,,,,,,,,,,,,,,,,,,,,,,,,,,,,,,,,,,,,,,,,,,,,,,,,,,,,,,,,,,,,,,,,,,,,,,,,,,,,,,,,,,,,,,
,,1,2.0648,1,2.0648,0,65,65,9,1,176,cactus,tomato,,88723,001,2022-04-29_12h23.41.105,SPAMnetsValid,2021.1.4,MacIntel,60.0024001,,,,,,,,,,,,,,,,,,,,,,,,,,,,,,,,,,,,,,,,,,,,,,,,,,,,,,,,,,,,,,,,,,,,,,,,,,,,,,,,,,,,,,,,,
,,7,1.6131,7,1.6131,0,66,66,2,1,174,cake,pretzel,,88723,001,2022-04-29_12h23.41.105,SPAMnetsValid,2021.1.4,MacIntel,60.0024001,,,,,,,,,,,,,,,,,,,,,,,,,,,,,,,,,,,,,,,,,,,,,,,,,,,,,,,,,,,,,,,,,,,,,,,,,,,,,,,,,,,,,,,,,
,,1,1.5794,1,1.5794,0,67,67,50,1,126,kitchen,tree,,88723,001,2022-04-29_12h23.41.105,SPAMnetsValid,2021.1.4,MacIntel,60.0024001,,,,,,,,,,,,,,,,,,,,,,,,,,,,,,,,,,,,,,,,,,,,,,,,,,,,,,,,,,,,,,,,,,,,,,,,,,,,,,,,,,,,,,,,,
,,7,9.3147,7,9.3147,0,68,68,47,1,167,carrot,garden,,88723,001,2022-04-29_12h23.41.105,SPAMnetsValid,2021.1.4,MacIntel,60.0024001,,,,,,,,,,,,,,,,,,,,,,,,,,,,,,,,,,,,,,,,,,,,,,,,,,,,,,,,,,,,,,,,,,,,,,,,,,,,,,,,,,,,,,,,,
,,9,2.9636,9,2.9636,0,69,69,69,1,124,oven,refrigerator,,88723,001,2022-04-29_12h23.41.105,SPAMnetsValid,2021.1.4,MacIntel,60.0024001,,,,,,,,,,,,,,,,,,,,,,,,,,,,,,,,,,,,,,,,,,,,,,,,,,,,,,,,,,,,,,,,,,,,,,,,,,,,,,,,,,,,,,,,,
,,8,1.5129,8,1.5129,0,70,70,83,1,100,garden,tomato,,88723,001,2022-04-29_12h23.41.105,SPAMnetsValid,2021.1.4,MacIntel,60.0024001,,,,,,,,,,,,,,,,,,,,,,,,,,,,,,,,,,,,,,,,,,,,,,,,,,,,,,,,,,,,,,,,,,,,,,,,,,,,,,,,,,,,,,,,,
,,7,3.5796,7,3.5796,0,71,71,93,1,134,carrot,flower,,88723,001,2022-04-29_12h23.41.105,SPAMnetsValid,2021.1.4,MacIntel,60.0024001,,,,,,,,,,,,,,,,,,,,,,,,,,,,,,,,,,,,,,,,,,,,,,,,,,,,,,,,,,,,,,,,,,,,,,,,,,,,,,,,,,,,,,,,,
,,8,1.7139,8,1.7139,0,72,72,17,1,99,garden,melon,,88723,001,2022-04-29_12h23.41.105,SPAMnetsValid,2021.1.4,MacIntel,60.0024001,,,,,,,,,,,,,,,,,,,,,,,,,,,,,,,,,,,,,,,,,,,,,,,,,,,,,,,,,,,,,,,,,,,,,,,,,,,,,,,,,,,,,,,,,
,,9,1.3799,9,1.3799,0,73,73,10,1,118,chocolate,oven,,88723,001,2022-04-29_12h23.41.105,SPAMnetsValid,2021.1.4,MacIntel,60.0024001,,,,,,,,,,,,,,,,,,,,,,,,,,,,,,,,,,,,,,,,,,,,,,,,,,,,,,,,,,,,,,,,,,,,,,,,,,,,,,,,,,,,,,,,,
,,7,1.614,7,1.614,0,74,74,88,1,171,cake,tomato,,88723,001,2022-04-29_12h23.41.105,SPAMnetsValid,2021.1.4,MacIntel,60.0024001,,,,,,,,,,,,,,,,,,,,,,,,,,,,,,,,,,,,,,,,,,,,,,,,,,,,,,,,,,,,,,,,,,,,,,,,,,,,,,,,,,,,,,,,,
,,3,2.4134,3,2.4134,0,75,75,26,1,107,rose,tomato,,88723,001,2022-04-29_12h23.41.105,SPAMnetsValid,2021.1.4,MacIntel,60.0024001,,,,,,,,,,,,,,,,,,,,,,,,,,,,,,,,,,,,,,,,,,,,,,,,,,,,,,,,,,,,,,,,,,,,,,,,,,,,,,,,,,,,,,,,,
,,9,9.1758,9,9.1758,0,76,76,25,1,194,cactus,cactus,CHECK,88723,001,2022-04-29_12h23.41.105,SPAMnetsValid,2021.1.4,MacIntel,60.0024001,,,,,,,,,,,,,,,,,,,,,,,,,,,,,,,,,,,,,,,,,,,,,,,,,,,,,,,,,,,,,,,,,,,,,,,,,,,,,,,,,,,,,,,,,
,,2,16.5147,2,16.5147,0,77,77,58,1,144,cake,garden,,88723,001,2022-04-29_12h23.41.105,SPAMnetsValid,2021.1.4,MacIntel,60.0024001,,,,,,,,,,,,,,,,,,,,,,,,,,,,,,,,,,,,,,,,,,,,,,,,,,,,,,,,,,,,,,,,,,,,,,,,,,,,,,,,,,,,,,,,,
,,6,2.3976,6,2.3976,0,78,78,24,1,169,onion,yogurt,,88723,001,2022-04-29_12h23.41.105,SPAMnetsValid,2021.1.4,MacIntel,60.0024001,,,,,,,,,,,,,,,,,,,,,,,,,,,,,,,,,,,,,,,,,,,,,,,,,,,,,,,,,,,,,,,,,,,,,,,,,,,,,,,,,,,,,,,,,
,,7,6.2797,7,6.2797,0,79,79,39,1,112,cake,carrot,,88723,001,2022-04-29_12h23.41.105,SPAMnetsValid,2021.1.4,MacIntel,60.0024001,,,,,,,,,,,,,,,,,,,,,,,,,,,,,,,,,,,,,,,,,,,,,,,,,,,,,,,,,,,,,,,,,,,,,,,,,,,,,,,,,,,,,,,,,
,,3,1.9296,3,1.9296,0,80,80,29,1,163,melon,refrigerator,,88723,001,2022-04-29_12h23.41.105,SPAMnetsValid,2021.1.4,MacIntel,60.0024001,,,,,,,,,,,,,,,,,,,,,,,,,,,,,,,,,,,,,,,,,,,,,,,,,,,,,,,,,,,,,,,,,,,,,,,,,,,,,,,,,,,,,,,,,
,,9,3.8482,9,3.8482,0,81,81,61,1,138,flower,rose,,88723,001,2022-04-29_12h23.41.105,SPAMnetsValid,2021.1.4,MacIntel,60.0024001,,,,,,,,,,,,,,,,,,,,,,,,,,,,,,,,,,,,,,,,,,,,,,,,,,,,,,,,,,,,,,,,,,,,,,,,,,,,,,,,,,,,,,,,,
,,8,1.1961,8,1.1961,0,82,82,48,1,186,kitchen,yogurt,,88723,001,2022-04-29_12h23.41.105,SPAMnetsValid,2021.1.4,MacIntel,60.0024001,,,,,,,,,,,,,,,,,,,,,,,,,,,,,,,,,,,,,,,,,,,,,,,,,,,,,,,,,,,,,,,,,,,,,,,,,,,,,,,,,,,,,,,,,
,,8,1.3125,8,1.3125,0,83,83,11,1,117,melon,strawberry,,88723,001,2022-04-29_12h23.41.105,SPAMnetsValid,2021.1.4,MacIntel,60.0024001,,,,,,,,,,,,,,,,,,,,,,,,,,,,,,,,,,,,,,,,,,,,,,,,,,,,,,,,,,,,,,,,,,,,,,,,,,,,,,,,,,,,,,,,,
,,3,1.4138,3,1.4138,0,84,84,90,1,190,microwave,strawberry,,88723,001,2022-04-29_12h23.41.105,SPAMnetsValid,2021.1.4,MacIntel,60.0024001,,,,,,,,,,,,,,,,,,,,,,,,,,,,,,,,,,,,,,,,,,,,,,,,,,,,,,,,,,,,,,,,,,,,,,,,,,,,,,,,,,,,,,,,,
,,1,2.2645,1,2.2645,0,85,85,54,1,101,cactus,kitchen,,88723,001,2022-04-29_12h23.41.105,SPAMnetsValid,2021.1.4,MacIntel,60.0024001,,,,,,,,,,,,,,,,,,,,,,,,,,,,,,,,,,,,,,,,,,,,,,,,,,,,,,,,,,,,,,,,,,,,,,,,,,,,,,,,,,,,,,,,,
,,7,6.2972,7,6.2972,0,86,86,70,1,141,melon,tomato,,88723,001,2022-04-29_12h23.41.105,SPAMnetsValid,2021.1.4,MacIntel,60.0024001,,,,,,,,,,,,,,,,,,,,,,,,,,,,,,,,,,,,,,,,,,,,,,,,,,,,,,,,,,,,,,,,,,,,,,,,,,,,,,,,,,,,,,,,,
,,9,1.3131,9,1.3131,0,87,87,14,1,120,microwave,oven,,88723,001,2022-04-29_12h23.41.105,SPAMnetsValid,2021.1.4,MacIntel,60.0024001,,,,,,,,,,,,,,,,,,,,,,,,,,,,,,,,,,,,,,,,,,,,,,,,,,,,,,,,,,,,,,,,,,,,,,,,,,,,,,,,,,,,,,,,,
,,8,0.9459,8,0.9459,0,88,88,30,1,125,carrot,tree,,88723,001,2022-04-29_12h23.41.105,SPAMnetsValid,2021.1.4,MacIntel,60.0024001,,,,,,,,,,,,,,,,,,,,,,,,,,,,,,,,,,,,,,,,,,,,,,,,,,,,,,,,,,,,,,,,,,,,,,,,,,,,,,,,,,,,,,,,,
,,3,1.1636,3,1.1636,0,89,89,57,1,127,cactus,chocolate,,88723,001,2022-04-29_12h23.41.105,SPAMnetsValid,2021.1.4,MacIntel,60.0024001,,,,,,,,,,,,,,,,,,,,,,,,,,,,,,,,,,,,,,,,,,,,,,,,,,,,,,,,,,,,,,,,,,,,,,,,,,,,,,,,,,,,,,,,,
,,7,1.2135,7,1.2135,0,90,90,28,1,154,strawberry,yogurt,,88723,001,2022-04-29_12h23.41.105,SPAMnetsValid,2021.1.4,MacIntel,60.0024001,,,,,,,,,,,,,,,,,,,,,,,,,,,,,,,,,,,,,,,,,,,,,,,,,,,,,,,,,,,,,,,,,,,,,,,,,,,,,,,,,,,,,,,,,
,,3,1.4463,3,1.4463,0,91,91,55,1,143,pretzel,rose,,88723,001,2022-04-29_12h23.41.105,SPAMnetsValid,2021.1.4,MacIntel,60.0024001,,,,,,,,,,,,,,,,,,,,,,,,,,,,,,,,,,,,,,,,,,,,,,,,,,,,,,,,,,,,,,,,,,,,,,,,,,,,,,,,,,,,,,,,,
,,1,1.53,1,1.53,0,92,92,59,1,164,cookie,garden,,88723,001,2022-04-29_12h23.41.105,SPAMnetsValid,2021.1.4,MacIntel,60.0024001,,,,,,,,,,,,,,,,,,,,,,,,,,,,,,,,,,,,,,,,,,,,,,,,,,,,,,,,,,,,,,,,,,,,,,,,,,,,,,,,,,,,,,,,,
,,1,0.7972,1,0.7972,0,93,93,31,1,156,melon,rose,,88723,001,2022-04-29_12h23.41.105,SPAMnetsValid,2021.1.4,MacIntel,60.0024001,,,,,,,,,,,,,,,,,,,,,,,,,,,,,,,,,,,,,,,,,,,,,,,,,,,,,,,,,,,,,,,,,,,,,,,,,,,,,,,,,,,,,,,,,
,,1,3.3981,1,3.3981,0,94,94,13,1,105,cactus,oven,,88723,001,2022-04-29_12h23.41.105,SPAMnetsValid,2021.1.4,MacIntel,60.0024001,,,,,,,,,,,,,,,,,,,,,,,,,,,,,,,,,,,,,,,,,,,,,,,,,,,,,,,,,,,,,,,,,,,,,,,,,,,,,,,,,,,,,,,,,
,,8,1.4295,8,1.4295,0,95,95,8,1,97,chocolate,kitchen,,88723,001,2022-04-29_12h23.41.105,SPAMnetsValid,2021.1.4,MacIntel,60.0024001,,,,,,,,,,,,,,,,,,,,,,,,,,,,,,,,,,,,,,,,,,,,,,,,,,,,,,,,,,,,,,,,,,,,,,,,,,,,,,,,,,,,,,,,,
,,1,2.7473,1,2.7473,0,96,96,80,1,146,pretzel,tree,,88723,001,2022-04-29_12h23.41.105,SPAMnetsValid,2021.1.4,MacIntel,60.0024001,,,,,,,,,,,,,,,,,,,,,,,,,,,,,,,,,,,,,,,,,,,,,,,,,,,,,,,,,,,,,,,,,,,,,,,,,,,,,,,,,,,,,,,,,
,,,,,,,,,,,,,,,88723,001,2022-04-29_12h23.41.105,SPAMnetsValid,2021.1.4,MacIntel,60.0024001,0,0,0,0,1,,,,,,,,,,,,,,,,,,,,,,,,,,,,,,,,,,,,,,,,,,,,,,,,,,,,,,,,,,,,,,,,,,,,,,,,,,,,,,,,,,,,
,,,,,,,,,,,,,,,88723,001,2022-04-29_12h23.41.105,SPAMnetsValid,2021.1.4,MacIntel,60.0024001,,,,,,0,0,0,1,1,0,1,,,,,,,,,,,,,,,,,,,,,,,,,,,,,,,,,,,,,,,,,,,,,,,,,,,,,,,,,,,,,,,,,,,,,,,,,,,,,
,,,,7,9.553,,,,,,79,garden,strawberry,,88723,001,2022-04-29_12h23.41.105,SPAMnetsValid,2021.1.4,MacIntel,60.0024001,,,,,,,,,,,,,7,9.553,0,0,0,87,1,,,,,,,,,,,,,,,,,,,,,,,,,,,,,,,,,,,,,,,,,,,,,,,,,,,,,,,,,,,,,,,,,,,,,,
,,,,8,1.1968,,,,,,56,cactus,tree,,88723,001,2022-04-29_12h23.41.105,SPAMnetsValid,2021.1.4,MacIntel,60.0024001,,,,,,,,,,,,,8,1.1968,0,1,1,21,1,,,,,,,,,,,,,,,,,,,,,,,,,,,,,,,,,,,,,,,,,,,,,,,,,,,,,,,,,,,,,,,,,,,,,,
,,,,2,2.3139,,,,,,41,broom,cactus,,88723,001,2022-04-29_12h23.41.105,SPAMnetsValid,2021.1.4,MacIntel,60.0024001,,,,,,,,,,,,,2,2.3139,0,2,2,46,1,,,,,,,,,,,,,,,,,,,,,,,,,,,,,,,,,,,,,,,,,,,,,,,,,,,,,,,,,,,,,,,,,,,,,,
,,,,7,0.9803,,,,,,22,kitchen,strawberry,,88723,001,2022-04-29_12h23.41.105,SPAMnetsValid,2021.1.4,MacIntel,60.0024001,,,,,,,,,,,,,7,0.9803,0,3,3,2,1,,,,,,,,,,,,,,,,,,,,,,,,,,,,,,,,,,,,,,,,,,,,,,,,,,,,,,,,,,,,,,,,,,,,,,
,,,,7,1.2971,,,,,,61,strawberry,tomato,,88723,001,2022-04-29_12h23.41.105,SPAMnetsValid,2021.1.4,MacIntel,60.0024001,,,,,,,,,,,,,7,1.2971,0,4,4,80,1,,,,,,,,,,,,,,,,,,,,,,,,,,,,,,,,,,,,,,,,,,,,,,,,,,,,,,,,,,,,,,,,,,,,,,
,,,,2,1.3959,,,,,,74,broom,pretzel,,88723,001,2022-04-29_12h23.41.105,SPAMnetsValid,2021.1.4,MacIntel,60.0024001,,,,,,,,,,,,,2,1.3959,0,5,5,40,1,,,,,,,,,,,,,,,,,,,,,,,,,,,,,,,,,,,,,,,,,,,,,,,,,,,,,,,,,,,,,,,,,,,,,,
,,,,3,3.3629,,,,,,84,oven,tomato,,88723,001,2022-04-29_12h23.41.105,SPAMnetsValid,2021.1.4,MacIntel,60.0024001,,,,,,,,,,,,,3,3.3629,0,6,6,28,1,,,,,,,,,,,,,,,,,,,,,,,,,,,,,,,,,,,,,,,,,,,,,,,,,,,,,,,,,,,,,,,,,,,,,,
,,,,2,1.7633,,,,,,73,broom,chocolate,,88723,001,2022-04-29_12h23.41.105,SPAMnetsValid,2021.1.4,MacIntel,60.0024001,,,,,,,,,,,,,2,1.7633,0,7,7,47,1,,,,,,,,,,,,,,,,,,,,,,,,,,,,,,,,,,,,,,,,,,,,,,,,,,,,,,,,,,,,,,,,,,,,,,
,,,,7,1.4129,,,,,,36,broom,kitchen,,88723,001,2022-04-29_12h23.41.105,SPAMnetsValid,2021.1.4,MacIntel,60.0024001,,,,,,,,,,,,,7,1.4129,0,8,8,76,1,,,,,,,,,,,,,,,,,,,,,,,,,,,,,,,,,,,,,,,,,,,,,,,,,,,,,,,,,,,,,,,,,,,,,,
,,,,3,1.7307,,,,,,91,microwave,rose,,88723,001,2022-04-29_12h23.41.105,SPAMnetsValid,2021.1.4,MacIntel,60.0024001,,,,,,,,,,,,,3,1.7307,0,9,9,84,1,,,,,,,,,,,,,,,,,,,,,,,,,,,,,,,,,,,,,,,,,,,,,,,,,,,,,,,,,,,,,,,,,,,,,,
,,,,1,2.73,,,,,,81,pretzel,yogurt,,88723,001,2022-04-29_12h23.41.105,SPAMnetsValid,2021.1.4,MacIntel,60.0024001,,,,,,,,,,,,,1,2.73,0,10,10,50,1,,,,,,,,,,,,,,,,,,,,,,,,,,,,,,,,,,,,,,,,,,,,,,,,,,,,,,,,,,,,,,,,,,,,,,
,,,,1,1.7802,,,,,,72,broom,onion,,88723,001,2022-04-29_12h23.41.105,SPAMnetsValid,2021.1.4,MacIntel,60.0024001,,,,,,,,,,,,,1,1.7802,0,11,11,27,1,,,,,,,,,,,,,,,,,,,,,,,,,,,,,,,,,,,,,,,,,,,,,,,,,,,,,,,,,,,,,,,,,,,,,,
,,,,7,6.0301,,,,,,88,cactus,melon,,88723,001,2022-04-29_12h23.41.105,SPAMnetsValid,2021.1.4,MacIntel,60.0024001,,,,,,,,,,,,,7,6.0301,0,12,12,38,1,,,,,,,,,,,,,,,,,,,,,,,,,,,,,,,,,,,,,,,,,,,,,,,,,,,,,,,,,,,,,,,,,,,,,,
,,,,9,1.4967,,,,,,191,cake,cake,CHECK,88723,001,2022-04-29_12h23.41.105,SPAMnetsValid,2021.1.4,MacIntel,60.0024001,,,,,,,,,,,,,9,1.4967,0,13,13,10,1,,,,,,,,,,,,,,,,,,,,,,,,,,,,,,,,,,,,,,,,,,,,,,,,,,,,,,,,,,,,,,,,,,,,,,
,,,,3,4.1141,,,,,,42,garden,kitchen,,88723,001,2022-04-29_12h23.41.105,SPAMnetsValid,2021.1.4,MacIntel,60.0024001,,,,,,,,,,,,,3,4.1141,0,14,14,29,1,,,,,,,,,,,,,,,,,,,,,,,,,,,,,,,,,,,,,,,,,,,,,,,,,,,,,,,,,,,,,,,,,,,,,,
,,,,1,1.8465,,,,,,64,chocolate,garden,,88723,001,2022-04-29_12h23.41.105,SPAMnetsValid,2021.1.4,MacIntel,60.0024001,,,,,,,,,,,,,1,1.8465,0,15,15,14,1,,,,,,,,,,,,,,,,,,,,,,,,,,,,,,,,,,,,,,,,,,,,,,,,,,,,,,,,,,,,,,,,,,,,,,
,,,,7,1.497,,,,,,68,flower,tomato,,88723,001,2022-04-29_12h23.41.105,SPAMnetsValid,2021.1.4,MacIntel,60.0024001,,,,,,,,,,,,,7,1.497,0,16,16,94,1,,,,,,,,,,,,,,,,,,,,,,,,,,,,,,,,,,,,,,,,,,,,,,,,,,,,,,,,,,,,,,,,,,,,,,
,,,,2,1.0801,,,,,,53,garden,pretzel,,88723,001,2022-04-29_12h23.41.105,SPAMnetsValid,2021.1.4,MacIntel,60.0024001,,,,,,,,,,,,,2,1.0801,0,17,17,0,1,,,,,,,,,,,,,,,,,,,,,,,,,,,,,,,,,,,,,,,,,,,,,,,,,,,,,,,,,,,,,,,,,,,,,,
,,,,8,9.7312,,,,,,77,refrigerator,yogurt,,88723,001,2022-04-29_12h23.41.105,SPAMnetsValid,2021.1.4,MacIntel,60.0024001,,,,,,,,,,,,,8,9.7312,0,18,18,42,1,,,,,,,,,,,,,,,,,,,,,,,,,,,,,,,,,,,,,,,,,,,,,,,,,,,,,,,,,,,,,,,,,,,,,,
,,,,3,6.5957,,,,,,35,flower,pretzel,,88723,001,2022-04-29_12h23.41.105,SPAMnetsValid,2021.1.4,MacIntel,60.0024001,,,,,,,,,,,,,3,6.5957,0,19,19,26,1,,,,,,,,,,,,,,,,,,,,,,,,,,,,,,,,,,,,,,,,,,,,,,,,,,,,,,,,,,,,,,,,,,,,,,
,,,,9,1.1969,,,,,,3,cake,oven,,88723,001,2022-04-29_12h23.41.105,SPAMnetsValid,2021.1.4,MacIntel,60.0024001,,,,,,,,,,,,,9,1.1969,0,20,20,30,1,,,,,,,,,,,,,,,,,,,,,,,,,,,,,,,,,,,,,,,,,,,,,,,,,,,,,,,,,,,,,,,,,,,,,,
,,,,3,1.6135,,,,,,16,chocolate,flower,,88723,001,2022-04-29_12h23.41.105,SPAMnetsValid,2021.1.4,MacIntel,60.0024001,,,,,,,,,,,,,3,1.6135,0,21,21,22,1,,,,,,,,,,,,,,,,,,,,,,,,,,,,,,,,,,,,,,,,,,,,,,,,,,,,,,,,,,,,,,,,,,,,,,
,,,,6,1.1474,,,,,,2,kitchen,onion,,88723,001,2022-04-29_12h23.41.105,SPAMnetsValid,2021.1.4,MacIntel,60.0024001,,,,,,,,,,,,,6,1.1474,0,22,22,91,1,,,,,,,,,,,,,,,,,,,,,,,,,,,,,,,,,,,,,,,,,,,,,,,,,,,,,,,,,,,,,,,,,,,,,,
,,,,1,1.2796,,,,,,90,cactus,cake,,88723,001,2022-04-29_12h23.41.105,SPAMnetsValid,2021.1.4,MacIntel,60.0024001,,,,,,,,,,,,,1,1.2796,0,23,23,85,1,,,,,,,,,,,,,,,,,,,,,,,,,,,,,,,,,,,,,,,,,,,,,,,,,,,,,,,,,,,,,,,,,,,,,,
,,,,7,1.2463,,,,,,20,rose,tree,,88723,001,2022-04-29_12h23.41.105,SPAMnetsValid,2021.1.4,MacIntel,60.0024001,,,,,,,,,,,,,7,1.2463,0,24,24,66,1,,,,,,,,,,,,,,,,,,,,,,,,,,,,,,,,,,,,,,,,,,,,,,,,,,,,,,,,,,,,,,,,,,,,,,
,,,,6,1.2303,,,,,,7,melon,tree,,88723,001,2022-04-29_12h23.41.105,SPAMnetsValid,2021.1.4,MacIntel,60.0024001,,,,,,,,,,,,,6,1.2303,0,25,25,77,1,,,,,,,,,,,,,,,,,,,,,,,,,,,,,,,,,,,,,,,,,,,,,,,,,,,,,,,,,,,,,,,,,,,,,,
,,,,3,1.8467,,,,,,66,melon,yogurt,,88723,001,2022-04-29_12h23.41.105,SPAMnetsValid,2021.1.4,MacIntel,60.0024001,,,,,,,,,,,,,3,1.8467,0,26,26,48,1,,,,,,,,,,,,,,,,,,,,,,,,,,,,,,,,,,,,,,,,,,,,,,,,,,,,,,,,,,,,,,,,,,,,,,
,,,,1,1.5124,,,,,,13,broom,yogurt,,88723,001,2022-04-29_12h23.41.105,SPAMnetsValid,2021.1.4,MacIntel,60.0024001,,,,,,,,,,,,,1,1.5124,0,27,27,5,1,,,,,,,,,,,,,,,,,,,,,,,,,,,,,,,,,,,,,,,,,,,,,,,,,,,,,,,,,,,,,,,,,,,,,,
,,,,8,1.397,,,,,,9,kitchen,refrigerator,,88723,001,2022-04-29_12h23.41.105,SPAMnetsValid,2021.1.4,MacIntel,60.0024001,,,,,,,,,,,,,8,1.397,0,28,28,64,1,,,,,,,,,,,,,,,,,,,,,,,,,,,,,,,,,,,,,,,,,,,,,,,,,,,,,,,,,,,,,,,,,,,,,,
,,,,3,1.7125,,,,,,23,flower,microwave,,88723,001,2022-04-29_12h23.41.105,SPAMnetsValid,2021.1.4,MacIntel,60.0024001,,,,,,,,,,,,,3,1.7125,0,29,29,25,1,,,,,,,,,,,,,,,,,,,,,,,,,,,,,,,,,,,,,,,,,,,,,,,,,,,,,,,,,,,,,,,,,,,,,,
,,,,7,1.0957,,,,,,54,chocolate,yogurt,,88723,001,2022-04-29_12h23.41.105,SPAMnetsValid,2021.1.4,MacIntel,60.0024001,,,,,,,,,,,,,7,1.0957,0,30,30,67,1,,,,,,,,,,,,,,,,,,,,,,,,,,,,,,,,,,,,,,,,,,,,,,,,,,,,,,,,,,,,,,,,,,,,,,
,,,,3,1.2972,,,,,,51,onion,strawberry,,88723,001,2022-04-29_12h23.41.105,SPAMnetsValid,2021.1.4,MacIntel,60.0024001,,,,,,,,,,,,,3,1.2972,0,31,31,86,1,,,,,,,,,,,,,,,,,,,,,,,,,,,,,,,,,,,,,,,,,,,,,,,,,,,,,,,,,,,,,,,,,,,,,,
,,,,3,2.3624,,,,,,12,cookie,yogurt,,88723,001,2022-04-29_12h23.41.105,SPAMnetsValid,2021.1.4,MacIntel,60.0024001,,,,,,,,,,,,,3,2.3624,0,32,32,36,1,,,,,,,,,,,,,,,,,,,,,,,,,,,,,,,,,,,,,,,,,,,,,,,,,,,,,,,,,,,,,,,,,,,,,,
,,,,1,2.412,,,,,,48,flower,oven,,88723,001,2022-04-29_12h23.41.105,SPAMnetsValid,2021.1.4,MacIntel,60.0024001,,,,,,,,,,,,,1,2.412,0,33,33,15,1,,,,,,,,,,,,,,,,,,,,,,,,,,,,,,,,,,,,,,,,,,,,,,,,,,,,,,,,,,,,,,,,,,,,,,
,,,,8,4.9455,,,,,,63,cake,cookie,,88723,001,2022-04-29_12h23.41.105,SPAMnetsValid,2021.1.4,MacIntel,60.0024001,,,,,,,,,,,,,8,4.9455,0,34,34,93,1,,,,,,,,,,,,,,,,,,,,,,,,,,,,,,,,,,,,,,,,,,,,,,,,,,,,,,,,,,,,,,,,,,,,,,
,,,,7,1.3797,,,,,,55,tomato,tree,,88723,001,2022-04-29_12h23.41.105,SPAMnetsValid,2021.1.4,MacIntel,60.0024001,,,,,,,,,,,,,7,1.3797,0,35,35,35,1,,,,,,,,,,,,,,,,,,,,,,,,,,,,,,,,,,,,,,,,,,,,,,,,,,,,,,,,,,,,,,,,,,,,,,
,,,,2,2.2791,,,,,,18,onion,refrigerator,,88723,001,2022-04-29_12h23.41.105,SPAMnetsValid,2021.1.4,MacIntel,60.0024001,,,,,,,,,,,,,2,2.2791,0,36,36,62,1,,,,,,,,,,,,,,,,,,,,,,,,,,,,,,,,,,,,,,,,,,,,,,,,,,,,,,,,,,,,,,,,,,,,,,
,,,,2,1.2292,,,,,,69,carrot,refrigerator,,88723,001,2022-04-29_12h23.41.105,SPAMnetsValid,2021.1.4,MacIntel,60.0024001,,,,,,,,,,,,,2,1.2292,0,37,37,75,1,,,,,,,,,,,,,,,,,,,,,,,,,,,,,,,,,,,,,,,,,,,,,,,,,,,,,,,,,,,,,,,,,,,,,,
,,,,9,1.6967,,,,,,47,onion,tomato,,88723,001,2022-04-29_12h23.41.105,SPAMnetsValid,2021.1.4,MacIntel,60.0024001,,,,,,,,,,,,,9,1.6967,0,38,38,51,1,,,,,,,,,,,,,,,,,,,,,,,,,,,,,,,,,,,,,,,,,,,,,,,,,,,,,,,,,,,,,,,,,,,,,,
,,,,7,4.0463,,,,,,30,cookie,pretzel,,88723,001,2022-04-29_12h23.41.105,SPAMnetsValid,2021.1.4,MacIntel,60.0024001,,,,,,,,,,,,,7,4.0463,0,39,39,78,1,,,,,,,,,,,,,,,,,,,,,,,,,,,,,,,,,,,,,,,,,,,,,,,,,,,,,,,,,,,,,,,,,,,,,,
,,,,3,1.2799,,,,,,60,cactus,onion,,88723,001,2022-04-29_12h23.41.105,SPAMnetsValid,2021.1.4,MacIntel,60.0024001,,,,,,,,,,,,,3,1.2799,0,40,40,81,1,,,,,,,,,,,,,,,,,,,,,,,,,,,,,,,,,,,,,,,,,,,,,,,,,,,,,,,,,,,,,,,,,,,,,,
,,,,2,1.0469,,,,,,27,cactus,cookie,,88723,001,2022-04-29_12h23.41.105,SPAMnetsValid,2021.1.4,MacIntel,60.0024001,,,,,,,,,,,,,2,1.0469,0,41,41,17,1,,,,,,,,,,,,,,,,,,,,,,,,,,,,,,,,,,,,,,,,,,,,,,,,,,,,,,,,,,,,,,,,,,,,,,
,,,,6,1.1301,,,,,,38,pretzel,refrigerator,,88723,001,2022-04-29_12h23.41.105,SPAMnetsValid,2021.1.4,MacIntel,60.0024001,,,,,,,,,,,,,6,1.1301,0,42,42,71,1,,,,,,,,,,,,,,,,,,,,,,,,,,,,,,,,,,,,,,,,,,,,,,,,,,,,,,,,,,,,,,,,,,,,,,
,,,,2,0.8796,,,,,,87,carrot,yogurt,,88723,001,2022-04-29_12h23.41.105,SPAMnetsValid,2021.1.4,MacIntel,60.0024001,,,,,,,,,,,,,2,0.8796,0,43,43,6,1,,,,,,,,,,,,,,,,,,,,,,,,,,,,,,,,,,,,,,,,,,,,,,,,,,,,,,,,,,,,,,,,,,,,,,
,,,,1,1.1468,,,,,,17,carrot,melon,,88723,001,2022-04-29_12h23.41.105,SPAMnetsValid,2021.1.4,MacIntel,60.0024001,,,,,,,,,,,,,1,1.1468,0,44,44,24,1,,,,,,,,,,,,,,,,,,,,,,,,,,,,,,,,,,,,,,,,,,,,,,,,,,,,,,,,,,,,,,,,,,,,,,
,,,,7,1.3299,,,,,,52,carrot,tomato,,88723,001,2022-04-29_12h23.41.105,SPAMnetsValid,2021.1.4,MacIntel,60.0024001,,,,,,,,,,,,,7,1.3299,0,45,45,95,1,,,,,,,,,,,,,,,,,,,,,,,,,,,,,,,,,,,,,,,,,,,,,,,,,,,,,,,,,,,,,,,,,,,,,,
,,,,3,1.1969,,,,,,70,chocolate,onion,,88723,001,2022-04-29_12h23.41.105,SPAMnetsValid,2021.1.4,MacIntel,60.0024001,,,,,,,,,,,,,3,1.1969,0,46,46,74,1,,,,,,,,,,,,,,,,,,,,,,,,,,,,,,,,,,,,,,,,,,,,,,,,,,,,,,,,,,,,,,,,,,,,,,
,,,,2,1.1137,,,,,,83,broom,carrot,,88723,001,2022-04-29_12h23.41.105,SPAMnetsValid,2021.1.4,MacIntel,60.0024001,,,,,,,,,,,,,2,1.1137,0,47,47,4,1,,,,,,,,,,,,,,,,,,,,,,,,,,,,,,,,,,,,,,,,,,,,,,,,,,,,,,,,,,,,,,,,,,,,,,
,,,,3,2.3462,,,,,,26,tomato,yogurt,,88723,001,2022-04-29_12h23.41.105,SPAMnetsValid,2021.1.4,MacIntel,60.0024001,,,,,,,,,,,,,3,2.3462,0,48,48,13,1,,,,,,,,,,,,,,,,,,,,,,,,,,,,,,,,,,,,,,,,,,,,,,,,,,,,,,,,,,,,,,,,,,,,,,
,,,,2,1.6459,,,,,,45,onion,pretzel,,88723,001,2022-04-29_12h23.41.105,SPAMnetsValid,2021.1.4,MacIntel,60.0024001,,,,,,,,,,,,,2,1.6459,0,49,49,69,1,,,,,,,,,,,,,,,,,,,,,,,,,,,,,,,,,,,,,,,,,,,,,,,,,,,,,,,,,,,,,,,,,,,,,,
,,,,2,1.7977,,,,,,80,chocolate,tree,,88723,001,2022-04-29_12h23.41.105,SPAMnetsValid,2021.1.4,MacIntel,60.0024001,,,,,,,,,,,,,2,1.7977,0,50,50,89,1,,,,,,,,,,,,,,,,,,,,,,,,,,,,,,,,,,,,,,,,,,,,,,,,,,,,,,,,,,,,,,,,,,,,,,
,,,,3,1.5299,,,,,,86,oven,rose,,88723,001,2022-04-29_12h23.41.105,SPAMnetsValid,2021.1.4,MacIntel,60.0024001,,,,,,,,,,,,,3,1.5299,0,51,51,79,1,,,,,,,,,,,,,,,,,,,,,,,,,,,,,,,,,,,,,,,,,,,,,,,,,,,,,,,,,,,,,,,,,,,,,,
,,,,2,1.2475,,,,,,67,flower,yogurt,,88723,001,2022-04-29_12h23.41.105,SPAMnetsValid,2021.1.4,MacIntel,60.0024001,,,,,,,,,,,,,2,1.2475,0,52,52,12,1,,,,,,,,,,,,,,,,,,,,,,,,,,,,,,,,,,,,,,,,,,,,,,,,,,,,,,,,,,,,,,,,,,,,,,
,,,,2,1.6307,,,,,,58,garden,oven,,88723,001,2022-04-29_12h23.41.105,SPAMnetsValid,2021.1.4,MacIntel,60.0024001,,,,,,,,,,,,,2,1.6307,0,53,53,37,1,,,,,,,,,,,,,,,,,,,,,,,,,,,,,,,,,,,,,,,,,,,,,,,,,,,,,,,,,,,,,,,,,,,,,,
,,,,3,1.2625,,,,,,34,melon,oven,,88723,001,2022-04-29_12h23.41.105,SPAMnetsValid,2021.1.4,MacIntel,60.0024001,,,,,,,,,,,,,3,1.2625,0,54,54,7,1,,,,,,,,,,,,,,,,,,,,,,,,,,,,,,,,,,,,,,,,,,,,,,,,,,,,,,,,,,,,,,,,,,,,,,
,,,,2,1.429,,,,,,71,broom,rose,,88723,001,2022-04-29_12h23.41.105,SPAMnetsValid,2021.1.4,MacIntel,60.0024001,,,,,,,,,,,,,2,1.429,0,55,55,61,1,,,,,,,,,,,,,,,,,,,,,,,,,,,,,,,,,,,,,,,,,,,,,,,,,,,,,,,,,,,,,,,,,,,,,,
,,,,3,3.63,,,,,,10,flower,onion,,88723,001,2022-04-29_12h23.41.105,SPAMnetsValid,2021.1.4,MacIntel,60.0024001,,,,,,,,,,,,,3,3.63,0,56,56,45,1,,,,,,,,,,,,,,,,,,,,,,,,,,,,,,,,,,,,,,,,,,,,,,,,,,,,,,,,,,,,,,,,,,,,,,
,,,,1,1.8638,,,,,,92,broom,flower,,88723,001,2022-04-29_12h23.41.105,SPAMnetsValid,2021.1.4,MacIntel,60.0024001,,,,,,,,,,,,,1,1.8638,0,57,57,88,1,,,,,,,,,,,,,,,,,,,,,,,,,,,,,,,,,,,,,,,,,,,,,,,,,,,,,,,,,,,,,,,,,,,,,,
,,,,2,1.3638,,,,,,8,broom,melon,,88723,001,2022-04-29_12h23.41.105,SPAMnetsValid,2021.1.4,MacIntel,60.0024001,,,,,,,,,,,,,2,1.3638,0,58,58,59,1,,,,,,,,,,,,,,,,,,,,,,,,,,,,,,,,,,,,,,,,,,,,,,,,,,,,,,,,,,,,,,,,,,,,,,
,,,,6,1.4299,,,,,,4,chocolate,pretzel,,88723,001,2022-04-29_12h23.41.105,SPAMnetsValid,2021.1.4,MacIntel,60.0024001,,,,,,,,,,,,,6,1.4299,0,59,59,52,1,,,,,,,,,,,,,,,,,,,,,,,,,,,,,,,,,,,,,,,,,,,,,,,,,,,,,,,,,,,,,,,,,,,,,,
,,,,3,1.3962,,,,,,15,onion,oven,,88723,001,2022-04-29_12h23.41.105,SPAMnetsValid,2021.1.4,MacIntel,60.0024001,,,,,,,,,,,,,3,1.3962,0,60,60,39,1,,,,,,,,,,,,,,,,,,,,,,,,,,,,,,,,,,,,,,,,,,,,,,,,,,,,,,,,,,,,,,,,,,,,,,
,,,,2,1.5465,,,,,,37,garden,refrigerator,,88723,001,2022-04-29_12h23.41.105,SPAMnetsValid,2021.1.4,MacIntel,60.0024001,,,,,,,,,,,,,2,1.5465,0,61,61,11,1,,,,,,,,,,,,,,,,,,,,,,,,,,,,,,,,,,,,,,,,,,,,,,,,,,,,,,,,,,,,,,,,,,,,,,
,,,,2,2.0966,,,,,,89,chocolate,rose,,88723,001,2022-04-29_12h23.41.105,SPAMnetsValid,2021.1.4,MacIntel,60.0024001,,,,,,,,,,,,,2,2.0966,0,62,62,60,1,,,,,,,,,,,,,,,,,,,,,,,,,,,,,,,,,,,,,,,,,,,,,,,,,,,,,,,,,,,,,,,,,,,,,,
,,,,7,3.8465,,,,,,25,carrot,onion,,88723,001,2022-04-29_12h23.41.105,SPAMnetsValid,2021.1.4,MacIntel,60.0024001,,,,,,,,,,,,,7,3.8465,0,63,63,44,1,,,,,,,,,,,,,,,,,,,,,,,,,,,,,,,,,,,,,,,,,,,,,,,,,,,,,,,,,,,,,,,,,,,,,,
,,,,7,1.1629,,,,,,59,rose,strawberry,,88723,001,2022-04-29_12h23.41.105,SPAMnetsValid,2021.1.4,MacIntel,60.0024001,,,,,,,,,,,,,7,1.1629,0,64,64,72,1,,,,,,,,,,,,,,,,,,,,,,,,,,,,,,,,,,,,,,,,,,,,,,,,,,,,,,,,,,,,,,,,,,,,,,
,,,,7,1.264,,,,,,75,cookie,onion,,88723,001,2022-04-29_12h23.41.105,SPAMnetsValid,2021.1.4,MacIntel,60.0024001,,,,,,,,,,,,,7,1.264,0,65,65,9,1,,,,,,,,,,,,,,,,,,,,,,,,,,,,,,,,,,,,,,,,,,,,,,,,,,,,,,,,,,,,,,,,,,,,,,
,,,,2,1.4289,,,,,,40,broom,cake,,88723,001,2022-04-29_12h23.41.105,SPAMnetsValid,2021.1.4,MacIntel,60.0024001,,,,,,,,,,,,,2,1.4289,0,66,66,32,1,,,,,,,,,,,,,,,,,,,,,,,,,,,,,,,,,,,,,,,,,,,,,,,,,,,,,,,,,,,,,,,,,,,,,,
,,,,1,0.9631,,,,,,95,broom,refrigerator,,88723,001,2022-04-29_12h23.41.105,SPAMnetsValid,2021.1.4,MacIntel,60.0024001,,,,,,,,,,,,,1,0.9631,0,67,67,90,1,,,,,,,,,,,,,,,,,,,,,,,,,,,,,,,,,,,,,,,,,,,,,,,,,,,,,,,,,,,,,,,,,,,,,,
,,,,7,7.8295,,,,,,44,cookie,melon,,88723,001,2022-04-29_12h23.41.105,SPAMnetsValid,2021.1.4,MacIntel,60.0024001,,,,,,,,,,,,,7,7.8295,0,68,68,92,1,,,,,,,,,,,,,,,,,,,,,,,,,,,,,,,,,,,,,,,,,,,,,,,,,,,,,,,,,,,,,,,,,,,,,,
,,,,1,1.5964,,,,,,46,garden,yogurt,,88723,001,2022-04-29_12h23.41.105,SPAMnetsValid,2021.1.4,MacIntel,60.0024001,,,,,,,,,,,,,1,1.5964,0,69,69,65,1,,,,,,,,,,,,,,,,,,,,,,,,,,,,,,,,,,,,,,,,,,,,,,,,,,,,,,,,,,,,,,,,,,,,,,
,,,,1,1.4803,,,,,,31,cactus,pretzel,,88723,001,2022-04-29_12h23.41.105,SPAMnetsValid,2021.1.4,MacIntel,60.0024001,,,,,,,,,,,,,1,1.4803,0,70,70,1,1,,,,,,,,,,,,,,,,,,,,,,,,,,,,,,,,,,,,,,,,,,,,,,,,,,,,,,,,,,,,,,,,,,,,,,
,,,,1,1.7802,,,,,,62,kitchen,rose,,88723,001,2022-04-29_12h23.41.105,SPAMnetsValid,2021.1.4,MacIntel,60.0024001,,,,,,,,,,,,,1,1.7802,0,71,71,57,1,,,,,,,,,,,,,,,,,,,,,,,,,,,,,,,,,,,,,,,,,,,,,,,,,,,,,,,,,,,,,,,,,,,,,,
,,,,6,1.596,,,,,,28,cake,melon,,88723,001,2022-04-29_12h23.41.105,SPAMnetsValid,2021.1.4,MacIntel,60.0024001,,,,,,,,,,,,,6,1.596,0,72,72,54,1,,,,,,,,,,,,,,,,,,,,,,,,,,,,,,,,,,,,,,,,,,,,,,,,,,,,,,,,,,,,,,,,,,,,,,
,,,,2,1.0798,,,,,,57,flower,kitchen,,88723,001,2022-04-29_12h23.41.105,SPAMnetsValid,2021.1.4,MacIntel,60.0024001,,,,,,,,,,,,,2,1.0798,0,73,73,49,1,,,,,,,,,,,,,,,,,,,,,,,,,,,,,,,,,,,,,,,,,,,,,,,,,,,,,,,,,,,,,,,,,,,,,,
,,,,2,1.6292,,,,,,1,rose,yogurt,,88723,001,2022-04-29_12h23.41.105,SPAMnetsValid,2021.1.4,MacIntel,60.0024001,,,,,,,,,,,,,2,1.6292,0,74,74,55,1,,,,,,,,,,,,,,,,,,,,,,,,,,,,,,,,,,,,,,,,,,,,,,,,,,,,,,,,,,,,,,,,,,,,,,
,,,,7,4.2133,,,,,,76,garden,rose,,88723,001,2022-04-29_12h23.41.105,SPAMnetsValid,2021.1.4,MacIntel,60.0024001,,,,,,,,,,,,,7,4.2133,0,75,75,19,1,,,,,,,,,,,,,,,,,,,,,,,,,,,,,,,,,,,,,,,,,,,,,,,,,,,,,,,,,,,,,,,,,,,,,,
,,,,1,7.6469,,,,,,33,oven,yogurt,,88723,001,2022-04-29_12h23.41.105,SPAMnetsValid,2021.1.4,MacIntel,60.0024001,,,,,,,,,,,,,1,7.6469,0,76,76,31,1,,,,,,,,,,,,,,,,,,,,,,,,,,,,,,,,,,,,,,,,,,,,,,,,,,,,,,,,,,,,,,,,,,,,,,
,,,,1,1.5468,,,,,,29,chocolate,melon,,88723,001,2022-04-29_12h23.41.105,SPAMnetsValid,2021.1.4,MacIntel,60.0024001,,,,,,,,,,,,,1,1.5468,0,77,77,34,1,,,,,,,,,,,,,,,,,,,,,,,,,,,,,,,,,,,,,,,,,,,,,,,,,,,,,,,,,,,,,,,,,,,,,,
,,,,1,3.6804,,,,,,39,melon,pretzel,,88723,001,2022-04-29_12h23.41.105,SPAMnetsValid,2021.1.4,MacIntel,60.0024001,,,,,,,,,,,,,1,3.6804,0,78,78,20,1,,,,,,,,,,,,,,,,,,,,,,,,,,,,,,,,,,,,,,,,,,,,,,,,,,,,,,,,,,,,,,,,,,,,,,
,,,,2,2.196,,,,,,14,broom,cookie,,88723,001,2022-04-29_12h23.41.105,SPAMnetsValid,2021.1.4,MacIntel,60.0024001,,,,,,,,,,,,,2,2.196,0,79,79,16,1,,,,,,,,,,,,,,,,,,,,,,,,,,,,,,,,,,,,,,,,,,,,,,,,,,,,,,,,,,,,,,,,,,,,,,
,,,,9,1.3295,,,,,,192,microwave,microwave,CHECK,88723,001,2022-04-29_12h23.41.105,SPAMnetsValid,2021.1.4,MacIntel,60.0024001,,,,,,,,,,,,,9,1.3295,0,80,80,53,1,,,,,,,,,,,,,,,,,,,,,,,,,,,,,,,,,,,,,,,,,,,,,,,,,,,,,,,,,,,,,,,,,,,,,,
,,,,7,1.2639,,,,,,49,flower,strawberry,,88723,001,2022-04-29_12h23.41.105,SPAMnetsValid,2021.1.4,MacIntel,60.0024001,,,,,,,,,,,,,7,1.2639,0,81,81,3,1,,,,,,,,,,,,,,,,,,,,,,,,,,,,,,,,,,,,,,,,,,,,,,,,,,,,,,,,,,,,,,,,,,,,,,
,,,,3,0.9317,,,,,,85,cake,tree,,88723,001,2022-04-29_12h23.41.105,SPAMnetsValid,2021.1.4,MacIntel,60.0024001,,,,,,,,,,,,,3,0.9317,0,82,82,18,1,,,,,,,,,,,,,,,,,,,,,,,,,,,,,,,,,,,,,,,,,,,,,,,,,,,,,,,,,,,,,,,,,,,,,,
,,,,7,1.3301,,,,,,24,cookie,tomato,,88723,001,2022-04-29_12h23.41.105,SPAMnetsValid,2021.1.4,MacIntel,60.0024001,,,,,,,,,,,,,7,1.3301,0,83,83,68,1,,,,,,,,,,,,,,,,,,,,,,,,,,,,,,,,,,,,,,,,,,,,,,,,,,,,,,,,,,,,,,,,,,,,,,
,,,,3,2.2465,,,,,,78,cookie,rose,,88723,001,2022-04-29_12h23.41.105,SPAMnetsValid,2021.1.4,MacIntel,60.0024001,,,,,,,,,,,,,3,2.2465,0,84,84,56,1,,,,,,,,,,,,,,,,,,,,,,,,,,,,,,,,,,,,,,,,,,,,,,,,,,,,,,,,,,,,,,,,,,,,,,
,,,,9,1.2295,,,,,,94,kitchen,microwave,,88723,001,2022-04-29_12h23.41.105,SPAMnetsValid,2021.1.4,MacIntel,60.0024001,,,,,,,,,,,,,9,1.2295,0,85,85,58,1,,,,,,,,,,,,,,,,,,,,,,,,,,,,,,,,,,,,,,,,,,,,,,,,,,,,,,,,,,,,,,,,,,,,,,
,,,,3,2.6631,,,,,,5,oven,tree,,88723,001,2022-04-29_12h23.41.105,SPAMnetsValid,2021.1.4,MacIntel,60.0024001,,,,,,,,,,,,,3,2.6631,0,86,86,70,1,,,,,,,,,,,,,,,,,,,,,,,,,,,,,,,,,,,,,,,,,,,,,,,,,,,,,,,,,,,,,,,,,,,,,,
,,,,6,1.1981,,,,,,82,cake,kitchen,,88723,001,2022-04-29_12h23.41.105,SPAMnetsValid,2021.1.4,MacIntel,60.0024001,,,,,,,,,,,,,6,1.1981,0,87,87,96,1,,,,,,,,,,,,,,,,,,,,,,,,,,,,,,,,,,,,,,,,,,,,,,,,,,,,,,,,,,,,,,,,,,,,,,
,,,,3,1.5414,,,,,,50,carrot,rose,,88723,001,2022-04-29_12h23.41.105,SPAMnetsValid,2021.1.4,MacIntel,60.0024001,,,,,,,,,,,,,3,1.5414,0,88,88,73,1,,,,,,,,,,,,,,,,,,,,,,,,,,,,,,,,,,,,,,,,,,,,,,,,,,,,,,,,,,,,,,,,,,,,,,
,,,,3,1.43,,,,,,43,chocolate,tomato,,88723,001,2022-04-29_12h23.41.105,SPAMnetsValid,2021.1.4,MacIntel,60.0024001,,,,,,,,,,,,,3,1.43,0,89,89,8,1,,,,,,,,,,,,,,,,,,,,,,,,,,,,,,,,,,,,,,,,,,,,,,,,,,,,,,,,,,,,,,,,,,,,,,
,,,,7,10.797,,,,,,6,garden,onion,,88723,001,2022-04-29_12h23.41.105,SPAMnetsValid,2021.1.4,MacIntel,60.0024001,,,,,,,,,,,,,7,10.797,0,90,90,83,1,,,,,,,,,,,,,,,,,,,,,,,,,,,,,,,,,,,,,,,,,,,,,,,,,,,,,,,,,,,,,,,,,,,,,,
,,,,3,1.2646,,,,,,21,cake,onion,,88723,001,2022-04-29_12h23.41.105,SPAMnetsValid,2021.1.4,MacIntel,60.0024001,,,,,,,,,,,,,3,1.2646,0,91,91,63,1,,,,,,,,,,,,,,,,,,,,,,,,,,,,,,,,,,,,,,,,,,,,,,,,,,,,,,,,,,,,,,,,,,,,,,
,,,,9,1.4141,,,,,,93,kitchen,oven,,88723,001,2022-04-29_12h23.41.105,SPAMnetsValid,2021.1.4,MacIntel,60.0024001,,,,,,,,,,,,,9,1.4141,0,92,92,82,1,,,,,,,,,,,,,,,,,,,,,,,,,,,,,,,,,,,,,,,,,,,,,,,,,,,,,,,,,,,,,,,,,,,,,,
,,,,7,1.9955,,,,,,19,microwave,pretzel,,88723,001,2022-04-29_12h23.41.105,SPAMnetsValid,2021.1.4,MacIntel,60.0024001,,,,,,,,,,,,,7,1.9955,0,93,93,41,1,,,,,,,,,,,,,,,,,,,,,,,,,,,,,,,,,,,,,,,,,,,,,,,,,,,,,,,,,,,,,,,,,,,,,,
,,,,3,2.0135,,,,,,65,broom,garden,,88723,001,2022-04-29_12h23.41.105,SPAMnetsValid,2021.1.4,MacIntel,60.0024001,,,,,,,,,,,,,3,2.0135,0,94,94,23,1,,,,,,,,,,,,,,,,,,,,,,,,,,,,,,,,,,,,,,,,,,,,,,,,,,,,,,,,,,,,,,,,,,,,,,
,,,,7,4.4307,,,,,,32,cake,microwave,,88723,001,2022-04-29_12h23.41.105,SPAMnetsValid,2021.1.4,MacIntel,60.0024001,,,,,,,,,,,,,7,4.4307,0,95,95,33,1,,,,,,,,,,,,,,,,,,,,,,,,,,,,,,,,,,,,,,,,,,,,,,,,,,,,,,,,,,,,,,,,,,,,,,
,,,,3,3.9301,,,,,,11,refrigerator,tree,,88723,001,2022-04-29_12h23.41.105,SPAMnetsValid,2021.1.4,MacIntel,60.0024001,,,,,,,,,,,,,3,3.9301,0,96,96,43,1,,,,,,,,,,,,,,,,,,,,,,,,,,,,,,,,,,,,,,,,,,,,,,,,,,,,,,,,,,,,,,,,,,,,,,
,,,,,,,,,,,,,,,88723,001,2022-04-29_12h23.41.105,SPAMnetsValid,2021.1.4,MacIntel,60.0024001,,,,,,,,,,,,,,,,,,,,0,0,0,0,1,,,,,,,,,,,,,,,,,,,,,,,,,,,,,,,,,,,,,,,,,,,,,,,,,,,,,,,,,,,,,,,,,
,,,,,,,,,,,,,,,88723,001,2022-04-29_12h23.41.105,SPAMnetsValid,2021.1.4,MacIntel,60.0024001,,,,,,0,1,1,0,1,1,0,,,,,,,,,,,,,,,,,,,,,,,,,,,,,,,,,,,,,,,,,,,,,,,,,,,,,,,,,,,,,,,,,,,,,,,,,,,,,
,,,,,,,,,,,,,,,88723,001,2022-04-29_12h23.41.105,SPAMnetsValid,2021.1.4,MacIntel,60.0024001,,,,,,,,,,,,,,,,,,,,,,,,,1,3.1916,0,0,0,0,1,rancor,forbearance,ridicule,malice,bravery,3,,,,,,,,,,,,,,,,,,,,,,,,,,,,,,,,,,,,,,,,,,,,,,,,,,,,
,,,,,,,,,,,,,,,88723,001,2022-04-29_12h23.41.105,SPAMnetsValid,2021.1.4,MacIntel,60.0024001,,,,,,,,,,,,,,,,,,,,,,,,,4,5.2143,0,1,1,1,1,raucous,empty,quiet,smooth,harsh,4,,,,,,,,,,,,,,,,,,,,,,,,,,,,,,,,,,,,,,,,,,,,,,,,,,,,
,,,,,,,,,,,,,,,88723,001,2022-04-29_12h23.41.105,SPAMnetsValid,2021.1.4,MacIntel,60.0024001,,,,,,,,,,,,,,,,,,,,,,,,,4,4.0316,0,2,2,2,1,gargoyle,oil,medicine,carved waterspout,ugly building,3,,,,,,,,,,,,,,,,,,,,,,,,,,,,,,,,,,,,,,,,,,,,,,,,,,,,
,,,,,,,,,,,,,,,88723,001,2022-04-29_12h23.41.105,SPAMnetsValid,2021.1.4,MacIntel,60.0024001,,,,,,,,,,,,,,,,,,,,,,,,,3,2.7313,0,3,3,3,1,recrudesce,purify,renew activity,lack refinement,crush,2,,,,,,,,,,,,,,,,,,,,,,,,,,,,,,,,,,,,,,,,,,,,,,,,,,,,
,,,,,,,,,,,,,,,88723,001,2022-04-29_12h23.41.105,SPAMnetsValid,2021.1.4,MacIntel,60.0024001,,,,,,,,,,,,,,,,,,,,,,,,,1,1.714,0,4,4,4,1,specious,"plausible, but not genuine",noteworthy,class or variety,roomy,1,,,,,,,,,,,,,,,,,,,,,,,,,,,,,,,,,,,,,,,,,,,,,,,,,,,,
,,,,,,,,,,,,,,,88723,001,2022-04-29_12h23.41.105,SPAMnetsValid,2021.1.4,MacIntel,60.0024001,,,,,,,,,,,,,,,,,,,,,,,,,2,1.1806,0,5,5,5,1,bauble,bubble,showy plaything,idle talk,confusion,2,,,,,,,,,,,,,,,,,,,,,,,,,,,,,,,,,,,,,,,,,,,,,,,,,,,,
,,,,,,,,,,,,,,,88723,001,2022-04-29_12h23.41.105,SPAMnetsValid,2021.1.4,MacIntel,60.0024001,,,,,,,,,,,,,,,,,,,,,,,,,2,3.8653,0,6,6,6,1,prolific,scarce,producing abundantly,reckless,speaking profanely,2,,,,,,,,,,,,,,,,,,,,,,,,,,,,,,,,,,,,,,,,,,,,,,,,,,,,
,,,,,,,,,,,,,,,88723,001,2022-04-29_12h23.41.105,SPAMnetsValid,2021.1.4,MacIntel,60.0024001,,,,,,,,,,,,,,,,,,,,,,,,,,,0,7,7,7,1,opulent,party,wealthy,happy frame of mind,semiprecious stone,2,,,,,,,,,,,,,,,,,,,,,,,,,,,,,,,,,,,,,,,,,,,,,,,,,,,,
,,,,,,,,,,,,,,,88723,001,2022-04-29_12h23.41.105,SPAMnetsValid,2021.1.4,MacIntel,60.0024001,,,,,,,,,,,,,,,,,,,,,,,,,,,0,8,8,8,1,coercion,conspiracy,strategy,restraint,attraction,3,,,,,,,,,,,,,,,,,,,,,,,,,,,,,,,,,,,,,,,,,,,,,,,,,,,,
,,,,,,,,,,,,,,,88723,001,2022-04-29_12h23.41.105,SPAMnetsValid,2021.1.4,MacIntel,60.0024001,,,,,,,,,,,,,,,,,,,,,,,,,4,5.8305,0,9,9,9,1,hiatus,animal,calamity,dread,gap,4,,,,,,,,,,,,,,,,,,,,,,,,,,,,,,,,,,,,,,,,,,,,,,,,,,,,
,,,,,,,,,,,,,,,88723,001,2022-04-29_12h23.41.105,SPAMnetsValid,2021.1.4,MacIntel,60.0024001,,,,,,,,,,,,,,,,,,,,,,,,,4,4.3313,0,10,10,10,1,germane,microbe,contagious,relevant,different,3,,,,,,,,,,,,,,,,,,,,,,,,,,,,,,,,,,,,,,,,,,,,,,,,,,,,
,,,,,,,,,,,,,,,88723,001,2022-04-29_12h23.41.105,SPAMnetsValid,2021.1.4,MacIntel,60.0024001,,,,,,,,,,,,,,,,,,,,,,,,,1,2.2137,0,11,11,11,1,perfunctory,fundamental,formal,superficial,careful,3,,,,,,,,,,,,,,,,,,,,,,,,,,,,,,,,,,,,,,,,,,,,,,,,,,,,
,,,,,,,,,,,,,,,88723,001,2022-04-29_12h23.41.105,SPAMnetsValid,2021.1.4,MacIntel,60.0024001,,,,,,,,,,,,,,,,,,,,,,,,,4,3.4126,0,12,12,12,1,diverge,reveal,chant,distract the attention of,differ or turn off from,4,,,,,,,,,,,,,,,,,,,,,,,,,,,,,,,,,,,,,,,,,,,,,,,,,,,,
,,,,,,,,,,,,,,,88723,001,2022-04-29_12h23.41.105,SPAMnetsValid,2021.1.4,MacIntel,60.0024001,,,,,,,,,,,,,,,,,,,,,,,,,4,3.1641,0,13,13,13,1,evoke,take away,anger,connect,bring out,4,,,,,,,,,,,,,,,,,,,,,,,,,,,,,,,,,,,,,,,,,,,,,,,,,,,,
,,,,,,,,,,,,,,,88723,001,2022-04-29_12h23.41.105,SPAMnetsValid,2021.1.4,MacIntel,60.0024001,,,,,,,,,,,,,,,,,,,,,,,,,1,2.296,0,14,14,14,1,pertinent,relevant,lying next to,necessary,bold,1,,,,,,,,,,,,,,,,,,,,,,,,,,,,,,,,,,,,,,,,,,,,,,,,,,,,
,,,,,,,,,,,,,,,88723,001,2022-04-29_12h23.41.105,SPAMnetsValid,2021.1.4,MacIntel,60.0024001,,,,,,,,,,,,,,,,,,,,,,,,,2,2.2805,0,15,15,15,1,holocaust,entirety,destruction,saintly,price,2,,,,,,,,,,,,,,,,,,,,,,,,,,,,,,,,,,,,,,,,,,,,,,,,,,,,
,,,,,,,,,,,,,,,88723,001,2022-04-29_12h23.41.105,SPAMnetsValid,2021.1.4,MacIntel,60.0024001,,,,,,,,,,,,,,,,,,,,,,,,,1,5.0815,0,16,16,16,1,piquant,mellow,fish,pungent,cloth,3,,,,,,,,,,,,,,,,,,,,,,,,,,,,,,,,,,,,,,,,,,,,,,,,,,,,
,,,,,,,,,,,,,,,88723,001,2022-04-29_12h23.41.105,SPAMnetsValid,2021.1.4,MacIntel,60.0024001,,,,,,,,,,,,,,,,,,,,,,,,,1,1.4302,0,17,17,17,1,firmament,foundation,heavens,strong,glue,2,,,,,,,,,,,,,,,,,,,,,,,,,,,,,,,,,,,,,,,,,,,,,,,,,,,,
,,,,,,,,,,,,,,,88723,001,2022-04-29_12h23.41.105,SPAMnetsValid,2021.1.4,MacIntel,60.0024001,,,,,,,,,,,,,,,,,,,,,,,,,,,,,,,,,,,,,,3,6.8691,0,0,0,0,1,marketable,partisan,jocular,marriageable,salable,essential,4,,,,,,,,,,,,,,,,,,,,,,,,,,,,,,,,,,,,,,
,,,,,,,,,,,,,,,88723,001,2022-04-29_12h23.41.105,SPAMnetsValid,2021.1.4,MacIntel,60.0024001,,,,,,,,,,,,,,,,,,,,,,,,,,,,,,,,,,,,,,5,4.5487,0,1,1,1,1,cottontail,squirrel,poplar,boa,marshy plant,rabbit,5,,,,,,,,,,,,,,,,,,,,,,,,,,,,,,,,,,,,,,
,,,,,,,,,,,,,,,88723,001,2022-04-29_12h23.41.105,SPAMnetsValid,2021.1.4,MacIntel,60.0024001,,,,,,,,,,,,,,,,,,,,,,,,,,,,,,,,,,,,,,3,1.6301,0,2,2,2,1,boggy,afraid,false,marshy,dense,black,3,,,,,,,,,,,,,,,,,,,,,,,,,,,,,,,,,,,,,,
,,,,,,,,,,,,,,,88723,001,2022-04-29_12h23.41.105,SPAMnetsValid,2021.1.4,MacIntel,60.0024001,,,,,,,,,,,,,,,,,,,,,,,,,,,,,,,,,,,,,,5,4.7134,0,3,3,3,1,gruesomeness,blackness,falseness,vindictiveness,drunkenness,ghastliness,5,,,,,,,,,,,,,,,,,,,,,,,,,,,,,,,,,,,,,,
,,,,,,,,,,,,,,,88723,001,2022-04-29_12h23.41.105,SPAMnetsValid,2021.1.4,MacIntel,60.0024001,,,,,,,,,,,,,,,,,,,,,,,,,,,,,,,,,,,,,,3,2.3981,0,4,4,4,1,loathing,diffidence,laziness,abhorrence,cleverness,comfort,3,,,,,,,,,,,,,,,,,,,,,,,,,,,,,,,,,,,,,,
,,,,,,,,,,,,,,,88723,001,2022-04-29_12h23.41.105,SPAMnetsValid,2021.1.4,MacIntel,60.0024001,,,,,,,,,,,,,,,,,,,,,,,,,,,,,,,,,,,,,,2,2.7974,0,5,5,5,1,bantam,fowl,ridicule,cripple,vegetable,ensign,1,,,,,,,,,,,,,,,,,,,,,,,,,,,,,,,,,,,,,,
,,,,,,,,,,,,,,,88723,001,2022-04-29_12h23.41.105,SPAMnetsValid,2021.1.4,MacIntel,60.0024001,,,,,,,,,,,,,,,,,,,,,,,,,,,,,,,,,,,,,,5,17.8656,0,6,6,6,1,evoke,wake up,surrender,reconnoiter,transcend,call forth,5,,,,,,,,,,,,,,,,,,,,,,,,,,,,,,,,,,,,,,
,,,,,,,,,,,,,,,88723,001,2022-04-29_12h23.41.105,SPAMnetsValid,2021.1.4,MacIntel,60.0024001,,,,,,,,,,,,,,,,,,,,,,,,,,,,,,,,,,,,,,4,3.2461,0,7,7,7,1,unobtrusive,unintelligent,epileptic,illogical,lineal,modest,5,,,,,,,,,,,,,,,,,,,,,,,,,,,,,,,,,,,,,,
,,,,,,,,,,,,,,,88723,001,2022-04-29_12h23.41.105,SPAMnetsValid,2021.1.4,MacIntel,60.0024001,,,,,,,,,,,,,,,,,,,,,,,,,,,,,,,,,,,,,,4,6.5986,0,8,8,8,1,terrain,ice cream,final test,tractor,area of ground,weight,4,,,,,,,,,,,,,,,,,,,,,,,,,,,,,,,,,,,,,,
,,,,,,,,,,,,,,,88723,001,2022-04-29_12h23.41.105,SPAMnetsValid,2021.1.4,MacIntel,60.0024001,,,,,,,,,,,,,,,,,,,,,,,,,,,,,,,,,,,,,,2,1.5298,0,9,9,9,1,capriciousness,stubbornness,courage,whimsicality,amazement,greediness,3,,,,,,,,,,,,,,,,,,,,,,,,,,,,,,,,,,,,,,
,,,,,,,,,,,,,,,88723,001,2022-04-29_12h23.41.105,SPAMnetsValid,2021.1.4,MacIntel,60.0024001,,,,,,,,,,,,,,,,,,,,,,,,,,,,,,,,,,,,,,3,1.5308,0,10,10,10,1,maelstrom,slander,whirlpool,enmity,armor,majolica,2,,,,,,,,,,,,,,,,,,,,,,,,,,,,,,,,,,,,,,
,,,,,,,,,,,,,,,88723,001,2022-04-29_12h23.41.105,SPAMnetsValid,2021.1.4,MacIntel,60.0024001,,,,,,,,,,,,,,,,,,,,,,,,,,,,,,,,,,,,,,2,3.6468,0,11,11,11,1,tentative,critical,conclusive,authentic,provisional,apprehensive,4,,,,,,,,,,,,,,,,,,,,,,,,,,,,,,,,,,,,,,
,,,,,,,,,,,,,,,88723,001,2022-04-29_12h23.41.105,SPAMnetsValid,2021.1.4,MacIntel,60.0024001,,,,,,,,,,,,,,,,,,,,,,,,,,,,,,,,,,,,,,4,7.4322,0,12,12,12,1,placate,rehabilitate,plagiarize,depredate,apprise,conciliate,5,,,,,,,,,,,,,,,,,,,,,,,,,,,,,,,,,,,,,,
,,,,,,,,,,,,,,,88723,001,2022-04-29_12h23.41.105,SPAMnetsValid,2021.1.4,MacIntel,60.0024001,,,,,,,,,,,,,,,,,,,,,,,,,,,,,,,,,,,,,,2,3.615,0,13,13,13,1,surcease,enlightenment,cessation,inattention,censor,substitution,2,,,,,,,,,,,,,,,,,,,,,,,,,,,,,,,,,,,,,,
,,,,,,,,,,,,,,,88723,001,2022-04-29_12h23.41.105,SPAMnetsValid,2021.1.4,MacIntel,60.0024001,,,,,,,,,,,,,,,,,,,,,,,,,,,,,,,,,,,,,,3,2.6129,0,14,14,14,1,apathetic,wandering,impassive,hateful,prophetic,overflowing,2,,,,,,,,,,,,,,,,,,,,,,,,,,,,,,,,,,,,,,
,,,,,,,,,,,,,,,88723,001,2022-04-29_12h23.41.105,SPAMnetsValid,2021.1.4,MacIntel,60.0024001,,,,,,,,,,,,,,,,,,,,,,,,,,,,,,,,,,,,,,1,3.9319,0,15,15,15,1,paternoster,paternalism,patricide,malediction,benediction,prayer,5,,,,,,,,,,,,,,,,,,,,,,,,,,,,,,,,,,,,,,
,,,,,,,,,,,,,,,88723,001,2022-04-29_12h23.41.105,SPAMnetsValid,2021.1.4,MacIntel,60.0024001,,,,,,,,,,,,,,,,,,,,,,,,,,,,,,,,,,,,,,1,1.8133,0,16,16,16,1,opalescence,opulence,senescence,bankruptcy,iridescence,assiduity,4,,,,,,,,,,,,,,,,,,,,,,,,,,,,,,,,,,,,,,
,,,,,,,,,,,,,,,88723,001,2022-04-29_12h23.41.105,SPAMnetsValid,2021.1.4,MacIntel,60.0024001,,,,,,,,,,,,,,,,,,,,,,,,,,,,,,,,,,,,,,2,2.7138,0,17,17,17,1,lush,stupid,luxurious,hazy,putrid,languishing,2,,,,,,,,,,,,,,,,,,,,,,,,,,,,,,,,,,,,,,
,,,,,,,,,,,,,,,88723,001,2022-04-29_12h23.41.105,SPAMnetsValid,2021.1.4,MacIntel,60.0024001,,,,,,,,,,,,,,,,,,,,,,,,,,,,,,,,,,,,,,3,2.4823,0,18,18,18,1,curtailment,expenditure,abandonment,abridgment,improvement,forgery,3,,,,,,,,,,,,,,,,,,,,,,,,,,,,,,,,,,,,,,
,,,,,,,,,,,,,,,88723,001,2022-04-29_12h23.41.105,SPAMnetsValid,2021.1.4,MacIntel,60.0024001,,,,,,,,,,,,,,,,,,,,,,,,,,,,,,,,,,,,,,2,1.7968,0,19,19,19,1,perversity,adversity,perviousness,travesty,waywardness,gentility,4,,,,,,,,,,,,,,,,,,,,,,,,,,,,,,,,,,,,,,
,,,,,,,,,,,,,,,88723,001,2022-04-29_12h23.41.105,SPAMnetsValid,2021.1.4,MacIntel,60.0024001,,,,,,,,,,,,,,,,,,,,,,,,,,,,,,,,,,,,,,1,4.8133,0,20,20,20,1,calumnious,complimentary,analogous,slanderous,tempestuous,magnanimous,3,,,,,,,,,,,,,,,,,,,,,,,,,,,,,,,,,,,,,,
,,,,,,,,,,,,,,,88723,001,2022-04-29_12h23.41.105,SPAMnetsValid,2021.1.4,MacIntel,60.0024001,,,,,,,,,,,,,,,,,,,,,,,,,,,,,,,,,,,,,,1,6.5813,0,21,21,21,1,illiberality,bigotry,imbecility,illegibility,cautery,immaturity,1,,,,,,,,,,,,,,,,,,,,,,,,,,,,,,,,,,,,,,
,,,,,,,,,,,,,,,88723,001,2022-04-29_12h23.41.105,SPAMnetsValid,2021.1.4,MacIntel,60.0024001,,,,,,,,,,,,,,,,,,,,,,,,,,,,,,,,,,,,,,,,0,22,22,22,1,clabber,rejoice,gossip,curdle,crow,hobble,3,,,,,,,,,,,,,,,,,,,,,,,,,,,,,,,,,,,,,,
,,,,,,,,,,,,,,,88723,001,2022-04-29_12h23.41.105,SPAMnetsValid,2021.1.4,MacIntel,60.0024001,,,,,,,,,,,,,,,,,,,,,,,,,,,,,,,,,,,,,,3,6.9487,0,23,23,23,1,sedulousness,diligence,credulousness,seduction,perilousness,frankness,1,,,,,,,,,,,,,,,,,,,,,,,,,,,,,,,,,,,,,,
,,,,,,,,,,,,,,,88723,001,2022-04-29_12h23.41.105,SPAMnetsValid,2021.1.4,MacIntel,60.0024001,,,,,,,,,,,,,,,,,,,,,,,,,,,,,,,,,,,,,,,,,,,,,,,,,,,,"filling water, transporting items",bucket,0,0,0,0,1,,,,,,,,,,,,,,,,,,,,,,,,,,,,,,,
,,,,,,,,,,,,,,,88723,001,2022-04-29_12h23.41.105,SPAMnetsValid,2021.1.4,MacIntel,60.0024001,,,,,,,,,,,,,,,,,,,,,,,,,,,,,,,,,,,,,,,,,,,,,,,,,,,,fillng with sand,bucket,1,0,1,0,1,,,,,,,,,,,,,,,,,,,,,,,,,,,,,,,
,,,,,,,,,,,,,,,88723,001,2022-04-29_12h23.41.105,SPAMnetsValid,2021.1.4,MacIntel,60.0024001,,,,,,,,,,,,,,,,,,,,,,,,,,,,,,,,,,,,,,,,,,,,,,,,,,,,sandcastle,bucket,2,0,2,0,1,,,,,,,,,,,,,,,,,,,,,,,,,,,,,,,
,,,,,,,,,,,,,,,88723,001,2022-04-29_12h23.41.105,SPAMnetsValid,2021.1.4,MacIntel,60.0024001,,,,,,,,,,,,,,,,,,,,,,,,,,,,,,,,,,,,,,,,,,,,,,,,,,,,champs,bucket,3,0,3,0,1,,,,,,,,,,,,,,,,,,,,,,,,,,,,,,,
,,,,,,,,,,,,,,,88723,001,2022-04-29_12h23.41.105,SPAMnetsValid,2021.1.4,MacIntel,60.0024001,,,,,,,,,,,,,,,,,,,,,,,,,,,,,,,,,,,,,,,,,,,,,,,,,,,,basketball,bucket,4,0,4,0,1,,,,,,,,,,,,,,,,,,,,,,,,,,,,,,,
,,,,,,,,,,,,,,,88723,001,2022-04-29_12h23.41.105,SPAMnetsValid,2021.1.4,MacIntel,60.0024001,,,,,,,,,,,,,,,,,,,,,,,,,,,,,,,,,,,,,,,,,,,,,,,,,,,,trashcan,bucket,5,0,5,0,1,,,,,,,,,,,,,,,,,,,,,,,,,,,,,,,
,,,,,,,,,,,,,,,88723,001,2022-04-29_12h23.41.105,SPAMnetsValid,2021.1.4,MacIntel,60.0024001,,,,,,,,,,,,,,,,,,,,,,,,,,,,,,,,,,,,,,,,,,,,,,,,,,,,carryin things,bucket,6,0,6,0,1,,,,,,,,,,,,,,,,,,,,,,,,,,,,,,,
,,,,,,,,,,,,,,,88723,001,2022-04-29_12h23.41.105,SPAMnetsValid,2021.1.4,MacIntel,60.0024001,,,,,,,,,,,,,,,,,,,,,,,,,,,,,,,,,,,,,,,,,,,,,,,,,,,,water,bucket,7,0,7,0,1,,,,,,,,,,,,,,,,,,,,,,,,,,,,,,,
,,,,,,,,,,,,,,,88723,001,2022-04-29_12h23.41.105,SPAMnetsValid,2021.1.4,MacIntel,60.0024001,,,,,,,,,,,,,,,,,,,,,,,,,,,,,,,,,,,,,,,,,,,,,,,,,,,,washing,bucket,8,0,8,0,1,,,,,,,,,,,,,,,,,,,,,,,,,,,,,,,
,,,,,,,,,,,,,,,88723,001,2022-04-29_12h23.41.105,SPAMnetsValid,2021.1.4,MacIntel,60.0024001,,,,,,,,,,,,,,,,,,,,,,,,,,,,,,,,,,,,,,,,,,,,,,,,,,,,mopping,bucket,9,0,9,0,1,,,,,,,,,,,,,,,,,,,,,,,,,,,,,,,
,,,,,,,,,,,,,,,88723,001,2022-04-29_12h23.41.105,SPAMnetsValid,2021.1.4,MacIntel,60.0024001,,,,,,,,,,,,,,,,,,,,,,,,,,,,,,,,,,,,,,,,,,,,,,,,,,,,,,,,,,,0,0,0,0,1,bucket,,,,,,,,,,,,,,,,,,,,,,,,,
,,,,,,,,,,,,,,,88723,001,2022-04-29_12h23.41.105,SPAMnetsValid,2021.1.4,MacIntel,60.0024001,,,,,,,,,,,,,,,,,,,,,,,,,,,,,,,,,,,,,,,,,,,,,,,,,,,,sleep,pillow,0,0,0,0,1,,,,,,,,,,,,,,,,,,,,,,,,,,,,,,,
,,,,,,,,,,,,,,,88723,001,2022-04-29_12h23.41.105,SPAMnetsValid,2021.1.4,MacIntel,60.0024001,,,,,,,,,,,,,,,,,,,,,,,,,,,,,,,,,,,,,,,,,,,,,,,,,,,,cushion,pillow,1,0,1,0,1,,,,,,,,,,,,,,,,,,,,,,,,,,,,,,,
,,,,,,,,,,,,,,,88723,001,2022-04-29_12h23.41.105,SPAMnetsValid,2021.1.4,MacIntel,60.0024001,,,,,,,,,,,,,,,,,,,,,,,,,,,,,,,,,,,,,,,,,,,,,,,,,,,,body armor,pillow,2,0,2,0,1,,,,,,,,,,,,,,,,,,,,,,,,,,,,,,,
,,,,,,,,,,,,,,,88723,001,2022-04-29_12h23.41.105,SPAMnetsValid,2021.1.4,MacIntel,60.0024001,,,,,,,,,,,,,,,,,,,,,,,,,,,,,,,,,,,,,,,,,,,,,,,,,,,,pillow fight,pillow,3,0,3,0,1,,,,,,,,,,,,,,,,,,,,,,,,,,,,,,,
,,,,,,,,,,,,,,,88723,001,2022-04-29_12h23.41.105,SPAMnetsValid,2021.1.4,MacIntel,60.0024001,,,,,,,,,,,,,,,,,,,,,,,,,,,,,,,,,,,,,,,,,,,,,,,,,,,,pedestal,pillow,4,0,4,0,1,,,,,,,,,,,,,,,,,,,,,,,,,,,,,,,
,,,,,,,,,,,,,,,88723,001,2022-04-29_12h23.41.105,SPAMnetsValid,2021.1.4,MacIntel,60.0024001,,,,,,,,,,,,,,,,,,,,,,,,,,,,,,,,,,,,,,,,,,,,,,,,,,,,cushion,pillow,5,0,5,0,1,,,,,,,,,,,,,,,,,,,,,,,,,,,,,,,
,,,,,,,,,,,,,,,88723,001,2022-04-29_12h23.41.105,SPAMnetsValid,2021.1.4,MacIntel,60.0024001,,,,,,,,,,,,,,,,,,,,,,,,,,,,,,,,,,,,,,,,,,,,,,,,,,,,back support,pillow,6,0,6,0,1,,,,,,,,,,,,,,,,,,,,,,,,,,,,,,,
,,,,,,,,,,,,,,,88723,001,2022-04-29_12h23.41.105,SPAMnetsValid,2021.1.4,MacIntel,60.0024001,,,,,,,,,,,,,,,,,,,,,,,,,,,,,,,,,,,,,,,,,,,,,,,,,,,,headrest,pillow,7,0,7,0,1,,,,,,,,,,,,,,,,,,,,,,,,,,,,,,,
,,,,,,,,,,,,,,,88723,001,2022-04-29_12h23.41.105,SPAMnetsValid,2021.1.4,MacIntel,60.0024001,,,,,,,,,,,,,,,,,,,,,,,,,,,,,,,,,,,,,,,,,,,,,,,,,,,,,,,,,,,0,1,1,2,1,pillow,,,,,,,,,,,,,,,,,,,,,,,,,
,,,,,,,,,,,,,,,88723,001,2022-04-29_12h23.41.105,SPAMnetsValid,2021.1.4,MacIntel,60.0024001,,,,,,,,,,,,,,,,,,,,,,,,,,,,,,,,,,,,,,,,,,,,,,,,,,,,light,candle,0,0,0,0,1,,,,,,,,,,,,,,,,,,,,,,,,,,,,,,,
,,,,,,,,,,,,,,,88723,001,2022-04-29_12h23.41.105,SPAMnetsValid,2021.1.4,MacIntel,60.0024001,,,,,,,,,,,,,,,,,,,,,,,,,,,,,,,,,,,,,,,,,,,,,,,,,,,,birthday,candle,1,0,1,0,1,,,,,,,,,,,,,,,,,,,,,,,,,,,,,,,
,,,,,,,,,,,,,,,88723,001,2022-04-29_12h23.41.105,SPAMnetsValid,2021.1.4,MacIntel,60.0024001,,,,,,,,,,,,,,,,,,,,,,,,,,,,,,,,,,,,,,,,,,,,,,,,,,,,starting fire,candle,2,0,2,0,1,,,,,,,,,,,,,,,,,,,,,,,,,,,,,,,
,,,,,,,,,,,,,,,88723,001,2022-04-29_12h23.41.105,SPAMnetsValid,2021.1.4,MacIntel,60.0024001,,,,,,,,,,,,,,,,,,,,,,,,,,,,,,,,,,,,,,,,,,,,,,,,,,,,wax,candle,3,0,3,0,1,,,,,,,,,,,,,,,,,,,,,,,,,,,,,,,
,,,,,,,,,,,,,,,88723,001,2022-04-29_12h23.41.105,SPAMnetsValid,2021.1.4,MacIntel,60.0024001,,,,,,,,,,,,,,,,,,,,,,,,,,,,,,,,,,,,,,,,,,,,,,,,,,,,scent,candle,4,0,4,0,1,,,,,,,,,,,,,,,,,,,,,,,,,,,,,,,
,,,,,,,,,,,,,,,88723,001,2022-04-29_12h23.41.105,SPAMnetsValid,2021.1.4,MacIntel,60.0024001,,,,,,,,,,,,,,,,,,,,,,,,,,,,,,,,,,,,,,,,,,,,,,,,,,,,rituals,candle,5,0,5,0,1,,,,,,,,,,,,,,,,,,,,,,,,,,,,,,,
,,,,,,,,,,,,,,,88723,001,2022-04-29_12h23.41.105,SPAMnetsValid,2021.1.4,MacIntel,60.0024001,,,,,,,,,,,,,,,,,,,,,,,,,,,,,,,,,,,,,,,,,,,,,,,,,,,,lamp,candle,6,0,6,0,1,,,,,,,,,,,,,,,,,,,,,,,,,,,,,,,
,,,,,,,,,,,,,,,88723,001,2022-04-29_12h23.41.105,SPAMnetsValid,2021.1.4,MacIntel,60.0024001,,,,,,,,,,,,,,,,,,,,,,,,,,,,,,,,,,,,,,,,,,,,,,,,,,,,reading light,candle,7,0,7,0,1,,,,,,,,,,,,,,,,,,,,,,,,,,,,,,,
,,,,,,,,,,,,,,,88723,001,2022-04-29_12h23.41.105,SPAMnetsValid,2021.1.4,MacIntel,60.0024001,,,,,,,,,,,,,,,,,,,,,,,,,,,,,,,,,,,,,,,,,,,,,,,,,,,,,,,,,,,0,2,2,1,1,candle,,,,,,,,,,,,,,,,,,,,,,,,,
,,,,,,,,,,,,,,,88723,001,2022-04-29_12h23.41.105,SPAMnetsValid,2021.1.4,MacIntel,60.0024001,,,,,,,,,,,,,,,,,,,,,,,,,,,,,,,,,,,,,,,,,,,,,,,,,,,,,,,,,,,,,,,,,dog,Animals,0,0,0,0,1,,,,,,,,,,,,,,,,,,
,,,,,,,,,,,,,,,88723,001,2022-04-29_12h23.41.105,SPAMnetsValid,2021.1.4,MacIntel,60.0024001,,,,,,,,,,,,,,,,,,,,,,,,,,,,,,,,,,,,,,,,,,,,,,,,,,,,,,,,,,,,,,,,,cat,Animals,1,0,1,0,1,,,,,,,,,,,,,,,,,,
,,,,,,,,,,,,,,,88723,001,2022-04-29_12h23.41.105,SPAMnetsValid,2021.1.4,MacIntel,60.0024001,,,,,,,,,,,,,,,,,,,,,,,,,,,,,,,,,,,,,,,,,,,,,,,,,,,,,,,,,,,,,,,,,fish,Animals,2,0,2,0,1,,,,,,,,,,,,,,,,,,
,,,,,,,,,,,,,,,88723,001,2022-04-29_12h23.41.105,SPAMnetsValid,2021.1.4,MacIntel,60.0024001,,,,,,,,,,,,,,,,,,,,,,,,,,,,,,,,,,,,,,,,,,,,,,,,,,,,,,,,,,,,,,,,,alligator,Animals,3,0,3,0,1,,,,,,,,,,,,,,,,,,
,,,,,,,,,,,,,,,88723,001,2022-04-29_12h23.41.105,SPAMnetsValid,2021.1.4,MacIntel,60.0024001,,,,,,,,,,,,,,,,,,,,,,,,,,,,,,,,,,,,,,,,,,,,,,,,,,,,,,,,,,,,,,,,,crocodile,Animals,4,0,4,0,1,,,,,,,,,,,,,,,,,,
,,,,,,,,,,,,,,,88723,001,2022-04-29_12h23.41.105,SPAMnetsValid,2021.1.4,MacIntel,60.0024001,,,,,,,,,,,,,,,,,,,,,,,,,,,,,,,,,,,,,,,,,,,,,,,,,,,,,,,,,,,,,,,,,fish,Animals,5,0,5,0,1,,,,,,,,,,,,,,,,,,
,,,,,,,,,,,,,,,88723,001,2022-04-29_12h23.41.105,SPAMnetsValid,2021.1.4,MacIntel,60.0024001,,,,,,,,,,,,,,,,,,,,,,,,,,,,,,,,,,,,,,,,,,,,,,,,,,,,,,,,,,,,,,,,,shark,Animals,6,0,6,0,1,,,,,,,,,,,,,,,,,,
,,,,,,,,,,,,,,,88723,001,2022-04-29_12h23.41.105,SPAMnetsValid,2021.1.4,MacIntel,60.0024001,,,,,,,,,,,,,,,,,,,,,,,,,,,,,,,,,,,,,,,,,,,,,,,,,,,,,,,,,,,,,,,,,koala,Animals,7,0,7,0,1,,,,,,,,,,,,,,,,,,
,,,,,,,,,,,,,,,88723,001,2022-04-29_12h23.41.105,SPAMnetsValid,2021.1.4,MacIntel,60.0024001,,,,,,,,,,,,,,,,,,,,,,,,,,,,,,,,,,,,,,,,,,,,,,,,,,,,,,,,,,,,,,,,,capybara,Animals,8,0,8,0,1,,,,,,,,,,,,,,,,,,
,,,,,,,,,,,,,,,88723,001,2022-04-29_12h23.41.105,SPAMnetsValid,2021.1.4,MacIntel,60.0024001,,,,,,,,,,,,,,,,,,,,,,,,,,,,,,,,,,,,,,,,,,,,,,,,,,,,,,,,,,,,,,,,,bug,Animals,9,0,9,0,1,,,,,,,,,,,,,,,,,,
,,,,,,,,,,,,,,,88723,001,2022-04-29_12h23.41.105,SPAMnetsValid,2021.1.4,MacIntel,60.0024001,,,,,,,,,,,,,,,,,,,,,,,,,,,,,,,,,,,,,,,,,,,,,,,,,,,,,,,,,,,,,,,,,human,Animals,10,0,10,0,1,,,,,,,,,,,,,,,,,,
,,,,,,,,,,,,,,,88723,001,2022-04-29_12h23.41.105,SPAMnetsValid,2021.1.4,MacIntel,60.0024001,,,,,,,,,,,,,,,,,,,,,,,,,,,,,,,,,,,,,,,,,,,,,,,,,,,,,,,,,,,,,,,,,kangaroo,Animals,11,0,11,0,1,,,,,,,,,,,,,,,,,,
,,,,,,,,,,,,,,,88723,001,2022-04-29_12h23.41.105,SPAMnetsValid,2021.1.4,MacIntel,60.0024001,,,,,,,,,,,,,,,,,,,,,,,,,,,,,,,,,,,,,,,,,,,,,,,,,,,,,,,,,,,,,,,,,lizard,Animals,12,0,12,0,1,,,,,,,,,,,,,,,,,,
,,,,,,,,,,,,,,,88723,001,2022-04-29_12h23.41.105,SPAMnetsValid,2021.1.4,MacIntel,60.0024001,,,,,,,,,,,,,,,,,,,,,,,,,,,,,,,,,,,,,,,,,,,,,,,,,,,,,,,,,,,,,,,,,chameleon,Animals,13,0,13,0,1,,,,,,,,,,,,,,,,,,
,,,,,,,,,,,,,,,88723,001,2022-04-29_12h23.41.105,SPAMnetsValid,2021.1.4,MacIntel,60.0024001,,,,,,,,,,,,,,,,,,,,,,,,,,,,,,,,,,,,,,,,,,,,,,,,,,,,,,,,,,,,,,,,,,,,,,,,0,0,0,0,1,Animals,,,,,,,,,,,,
,,,,,,,,,,,,,,,88723,001,2022-04-29_12h23.41.105,SPAMnetsValid,2021.1.4,MacIntel,60.0024001,,,,,,,,,,,,,,,,,,,,,,,,,,,,,,,,,,,,,,,,,,,,,,,,,,,,,,,,,,,,,,,,,,,,,,,,,,,,,,4,2.6294,0,0,0,0,1,"I enjoy concentrating on a fantasy or daydream and exploring all its possibilities, letting it grow and develop.",0,1,,
,,,,,,,,,,,,,,,88723,001,2022-04-29_12h23.41.105,SPAMnetsValid,2021.1.4,MacIntel,60.0024001,,,,,,,,,,,,,,,,,,,,,,,,,,,,,,,,,,,,,,,,,,,,,,,,,,,,,,,,,,,,,,,,,,,,,,,,,,,,,,4,1.7296,0,1,1,1,1,I think it's interesting to learn and develop new hobbies.,0,2,,
,,,,,,,,,,,,,,,88723,001,2022-04-29_12h23.41.105,SPAMnetsValid,2021.1.4,MacIntel,60.0024001,,,,,,,,,,,,,,,,,,,,,,,,,,,,,,,,,,,,,,,,,,,,,,,,,,,,,,,,,,,,,,,,,,,,,,,,,,,,,,5,2.7644,0,2,2,2,1,I am intrigued by the patterns I find in art and nature.,0,3,,
,,,,,,,,,,,,,,,88723,001,2022-04-29_12h23.41.105,SPAMnetsValid,2021.1.4,MacIntel,60.0024001,,,,,,,,,,,,,,,,,,,,,,,,,,,,,,,,,,,,,,,,,,,,,,,,,,,,,,,,,,,,,,,,,,,,,,,,,,,,,,3,3.3134,0,3,3,3,1,I believe letting students hear controversial speakers can only confuse and mislead them.,1,4,,
,,,,,,,,,,,,,,,88723,001,2022-04-29_12h23.41.105,SPAMnetsValid,2021.1.4,MacIntel,60.0024001,,,,,,,,,,,,,,,,,,,,,,,,,,,,,,,,,,,,,,,,,,,,,,,,,,,,,,,,,,,,,,,,,,,,,,,,,,,,,,4,3.8477,0,4,4,4,1,Poetry has little or no effect on me.,1,5,,
,,,,,,,,,,,,,,,88723,001,2022-04-29_12h23.41.105,SPAMnetsValid,2021.1.4,MacIntel,60.0024001,,,,,,,,,,,,,,,,,,,,,,,,,,,,,,,,,,,,,,,,,,,,,,,,,,,,,,,,,,,,,,,,,,,,,,,,,,,,,,1,4.0472,0,5,5,5,1,I would have difficulty just letting my mind wander without control or guidance.,1,6,,
,,,,,,,,,,,,,,,88723,001,2022-04-29_12h23.41.105,SPAMnetsValid,2021.1.4,MacIntel,60.0024001,,,,,,,,,,,,,,,,,,,,,,,,,,,,,,,,,,,,,,,,,,,,,,,,,,,,,,,,,,,,,,,,,,,,,,,,,,,,,,2,4.596,0,6,6,6,1,I seldom notice the moods or feelings that different environments produce.,1,7,,
,,,,,,,,,,,,,,,88723,001,2022-04-29_12h23.41.105,SPAMnetsValid,2021.1.4,MacIntel,60.0024001,,,,,,,,,,,,,,,,,,,,,,,,,,,,,,,,,,,,,,,,,,,,,,,,,,,,,,,,,,,,,,,,,,,,,,,,,,,,,,5,2.8136,0,7,7,7,1,I experience a wide range of emotions or feelings.,0,8,,
,,,,,,,,,,,,,,,88723,001,2022-04-29_12h23.41.105,SPAMnetsValid,2021.1.4,MacIntel,60.0024001,,,,,,,,,,,,,,,,,,,,,,,,,,,,,,,,,,,,,,,,,,,,,,,,,,,,,,,,,,,,,,,,,,,,,,,,,,,,,,3,4.9146,0,8,8,8,1,"Sometimes when I am reading poetry or looking at a work of art, I feel a chill or wave of excitement.",0,9,,
,,,,,,,,,,,,,,,88723,001,2022-04-29_12h23.41.105,SPAMnetsValid,2021.1.4,MacIntel,60.0024001,,,,,,,,,,,,,,,,,,,,,,,,,,,,,,,,,,,,,,,,,,,,,,,,,,,,,,,,,,,,,,,,,,,,,,,,,,,,,,2,4.3982,0,9,9,9,1,I have little interest in speculating on the nature of the universe or the human condition.,1,10,,
,,,,,,,,,,,,,,,88723,001,2022-04-29_12h23.41.105,SPAMnetsValid,2021.1.4,MacIntel,60.0024001,,,,,,,,,,,,,,,,,,,,,,,,,,,,,,,,,,,,,,,,,,,,,,,,,,,,,,,,,,,,,,,,,,,,,,,,,,,,,,5,1.8466,0,10,10,10,1,I have a lot of intellectual curiosity.,0,11,,
,,,,,,,,,,,,,,,88723,001,2022-04-29_12h23.41.105,SPAMnetsValid,2021.1.4,MacIntel,60.0024001,,,,,,,,,,,,,,,,,,,,,,,,,,,,,,,,,,,,,,,,,,,,,,,,,,,,,,,,,,,,,,,,,,,,,,,,,,,,,,5,2.3807,0,11,11,11,1,I often enjoy playing with theories or abstract ideas.,0,12,,
,,,,,,,,,,,,,,,88723,001,2022-04-29_12h23.41.105,SPAMnetsValid,2021.1.4,MacIntel,60.0024001,,,,,,,,,,,,,,,,,,,,,,,,,,,,,,,,,,,,,,,,,,,,,,,,,,,,,,,,,,,,,,,,,,,,,,,,,,,,,,,,,,,,,,,,return,9.2037
