key_resp_3.keys,key_resp_3.rt,slider.response,slider.rt,rjt_rating,rjt_RT,trials_22.thisRepN,trials_22.thisTrialN,trials_22.thisN,trials_22.thisIndex,trials_22.ran,rjt_order,word1,word2,attention,participant,session,date,expName,psychopyVersion,OS,frameRate,trials_99.thisRepN,trials_99.thisTrialN,trials_99.thisN,trials_99.thisIndex,trials_99.ran,trials_5.thisRepN,trials_5.thisTrialN,trials_5.thisN,trials_5.thisIndex,trials_5.ran,repOne,repTwo,slider_2.response,slider_2.rt,trials_24.thisRepN,trials_24.thisTrialN,trials_24.thisN,trials_24.thisIndex,trials_24.ran,trials_4.thisRepN,trials_4.thisTrialN,trials_4.thisN,trials_4.thisIndex,trials_4.ran,slider_extend_2.response,slider_extend_2.rt,trials_6.thisRepN,trials_6.thisTrialN,trials_6.thisN,trials_6.thisIndex,trials_6.ran,vCue2,R1,R2,R3,R4,correct,sliderVocab.response,sliderVocab.rt,trials_7.thisRepN,trials_7.thisTrialN,trials_7.thisN,trials_7.thisIndex,trials_7.ran,VocabCue,VR1,VR2,VR3,VR4,VR5,VocabCorrect,AUT_resp,AUT_label,trials.thisRepN,trials.thisTrialN,trials.thisN,trials.thisIndex,trials.ran,trials_2.thisRepN,trials_2.thisTrialN,trials_2.thisN,trials_2.thisIndex,trials_2.ran,aut_prompt,VF_response,VF_tag,trials_16.thisRepN,trials_16.thisTrialN,trials_16.thisN,trials_16.thisIndex,trials_16.ran,trials_17.thisRepN,trials_17.thisTrialN,trials_17.thisN,trials_17.thisIndex,trials_17.ran,VFcond,open_slider.response,open_slider.rt,trials_3.thisRepN,trials_3.thisTrialN,trials_3.thisN,trials_3.thisIndex,trials_3.ran,OpenQ,Rev,OPEN_ORDER,key_resp_2.keys,key_resp_2.rt
return,15.9847,1,7.6775,1,7.6775,0,0,0,89,1,80,chocolate,tree,,88752,001,2022-04-24_21h59.30.169,SPAMnetsValid,2021.1.4,Win32,59.81934558,,,,,,,,,,,,,,,,,,,,,,,,,,,,,,,,,,,,,,,,,,,,,,,,,,,,,,,,,,,,,,,,,,,,,,,,,,,,,,,,,,,,,,,,,
,,3,6.0088,3,6.0088,0,1,1,45,1,10,flower,onion,,88752,001,2022-04-24_21h59.30.169,SPAMnetsValid,2021.1.4,Win32,59.81934558,,,,,,,,,,,,,,,,,,,,,,,,,,,,,,,,,,,,,,,,,,,,,,,,,,,,,,,,,,,,,,,,,,,,,,,,,,,,,,,,,,,,,,,,,
,,7,3.0972,7,3.0972,0,2,2,44,1,25,carrot,onion,,88752,001,2022-04-24_21h59.30.169,SPAMnetsValid,2021.1.4,Win32,59.81934558,,,,,,,,,,,,,,,,,,,,,,,,,,,,,,,,,,,,,,,,,,,,,,,,,,,,,,,,,,,,,,,,,,,,,,,,,,,,,,,,,,,,,,,,,
,,1,2.1517,1,2.1517,0,3,3,16,1,14,broom,cookie,,88752,001,2022-04-24_21h59.30.169,SPAMnetsValid,2021.1.4,Win32,59.81934558,,,,,,,,,,,,,,,,,,,,,,,,,,,,,,,,,,,,,,,,,,,,,,,,,,,,,,,,,,,,,,,,,,,,,,,,,,,,,,,,,,,,,,,,,
,,1,2.7178,1,2.7178,0,4,4,84,1,91,microwave,rose,,88752,001,2022-04-24_21h59.30.169,SPAMnetsValid,2021.1.4,Win32,59.81934558,,,,,,,,,,,,,,,,,,,,,,,,,,,,,,,,,,,,,,,,,,,,,,,,,,,,,,,,,,,,,,,,,,,,,,,,,,,,,,,,,,,,,,,,,
,,1,1.5799,1,1.5799,0,5,5,0,1,53,garden,pretzel,,88752,001,2022-04-24_21h59.30.169,SPAMnetsValid,2021.1.4,Win32,59.81934558,,,,,,,,,,,,,,,,,,,,,,,,,,,,,,,,,,,,,,,,,,,,,,,,,,,,,,,,,,,,,,,,,,,,,,,,,,,,,,,,,,,,,,,,,
,,5,5.0565,5,5.0565,0,6,6,90,1,95,broom,refrigerator,,88752,001,2022-04-24_21h59.30.169,SPAMnetsValid,2021.1.4,Win32,59.81934558,,,,,,,,,,,,,,,,,,,,,,,,,,,,,,,,,,,,,,,,,,,,,,,,,,,,,,,,,,,,,,,,,,,,,,,,,,,,,,,,,,,,,,,,,
,,9,2.1161,9,2.1161,0,7,7,82,1,93,kitchen,oven,,88752,001,2022-04-24_21h59.30.169,SPAMnetsValid,2021.1.4,Win32,59.81934558,,,,,,,,,,,,,,,,,,,,,,,,,,,,,,,,,,,,,,,,,,,,,,,,,,,,,,,,,,,,,,,,,,,,,,,,,,,,,,,,,,,,,,,,,
,,9,1.53,9,1.53,0,8,8,96,1,82,cake,kitchen,,88752,001,2022-04-24_21h59.30.169,SPAMnetsValid,2021.1.4,Win32,59.81934558,,,,,,,,,,,,,,,,,,,,,,,,,,,,,,,,,,,,,,,,,,,,,,,,,,,,,,,,,,,,,,,,,,,,,,,,,,,,,,,,,,,,,,,,,
,,5,2.525,5,2.525,0,9,9,54,1,28,cake,melon,,88752,001,2022-04-24_21h59.30.169,SPAMnetsValid,2021.1.4,Win32,59.81934558,,,,,,,,,,,,,,,,,,,,,,,,,,,,,,,,,,,,,,,,,,,,,,,,,,,,,,,,,,,,,,,,,,,,,,,,,,,,,,,,,,,,,,,,,
,,5,1.8787,5,1.8787,0,10,10,8,1,43,chocolate,tomato,,88752,001,2022-04-24_21h59.30.169,SPAMnetsValid,2021.1.4,Win32,59.81934558,,,,,,,,,,,,,,,,,,,,,,,,,,,,,,,,,,,,,,,,,,,,,,,,,,,,,,,,,,,,,,,,,,,,,,,,,,,,,,,,,,,,,,,,,
,,6,2.4326,6,2.4326,0,11,11,78,1,30,cookie,pretzel,,88752,001,2022-04-24_21h59.30.169,SPAMnetsValid,2021.1.4,Win32,59.81934558,,,,,,,,,,,,,,,,,,,,,,,,,,,,,,,,,,,,,,,,,,,,,,,,,,,,,,,,,,,,,,,,,,,,,,,,,,,,,,,,,,,,,,,,,
,,1,1.9517,1,1.9517,0,12,12,32,1,40,broom,cake,,88752,001,2022-04-24_21h59.30.169,SPAMnetsValid,2021.1.4,Win32,59.81934558,,,,,,,,,,,,,,,,,,,,,,,,,,,,,,,,,,,,,,,,,,,,,,,,,,,,,,,,,,,,,,,,,,,,,,,,,,,,,,,,,,,,,,,,,
,,8,2.2312,8,2.2312,0,13,13,75,1,69,carrot,refrigerator,,88752,001,2022-04-24_21h59.30.169,SPAMnetsValid,2021.1.4,Win32,59.81934558,,,,,,,,,,,,,,,,,,,,,,,,,,,,,,,,,,,,,,,,,,,,,,,,,,,,,,,,,,,,,,,,,,,,,,,,,,,,,,,,,,,,,,,,,
,,9,1.5784,9,1.5784,0,14,14,80,1,61,strawberry,tomato,,88752,001,2022-04-24_21h59.30.169,SPAMnetsValid,2021.1.4,Win32,59.81934558,,,,,,,,,,,,,,,,,,,,,,,,,,,,,,,,,,,,,,,,,,,,,,,,,,,,,,,,,,,,,,,,,,,,,,,,,,,,,,,,,,,,,,,,,
,,6,3.2344,6,3.2344,0,15,15,92,1,44,cookie,melon,,88752,001,2022-04-24_21h59.30.169,SPAMnetsValid,2021.1.4,Win32,59.81934558,,,,,,,,,,,,,,,,,,,,,,,,,,,,,,,,,,,,,,,,,,,,,,,,,,,,,,,,,,,,,,,,,,,,,,,,,,,,,,,,,,,,,,,,,
,,5,3.212,5,3.212,0,16,16,71,1,38,pretzel,refrigerator,,88752,001,2022-04-24_21h59.30.169,SPAMnetsValid,2021.1.4,Win32,59.81934558,,,,,,,,,,,,,,,,,,,,,,,,,,,,,,,,,,,,,,,,,,,,,,,,,,,,,,,,,,,,,,,,,,,,,,,,,,,,,,,,,,,,,,,,,
,,9,2.0444,9,2.0444,0,17,17,10,1,191,cake,cake,CHECK,88752,001,2022-04-24_21h59.30.169,SPAMnetsValid,2021.1.4,Win32,59.81934558,,,,,,,,,,,,,,,,,,,,,,,,,,,,,,,,,,,,,,,,,,,,,,,,,,,,,,,,,,,,,,,,,,,,,,,,,,,,,,,,,,,,,,,,,
,,9,2.1443,9,2.1443,0,18,18,21,1,56,cactus,tree,,88752,001,2022-04-24_21h59.30.169,SPAMnetsValid,2021.1.4,Win32,59.81934558,,,,,,,,,,,,,,,,,,,,,,,,,,,,,,,,,,,,,,,,,,,,,,,,,,,,,,,,,,,,,,,,,,,,,,,,,,,,,,,,,,,,,,,,,
,,1,1.7286,1,1.7286,0,19,19,37,1,58,garden,oven,,88752,001,2022-04-24_21h59.30.169,SPAMnetsValid,2021.1.4,Win32,59.81934558,,,,,,,,,,,,,,,,,,,,,,,,,,,,,,,,,,,,,,,,,,,,,,,,,,,,,,,,,,,,,,,,,,,,,,,,,,,,,,,,,,,,,,,,,
,,1,2.0129,1,2.0129,0,20,20,11,1,37,garden,refrigerator,,88752,001,2022-04-24_21h59.30.169,SPAMnetsValid,2021.1.4,Win32,59.81934558,,,,,,,,,,,,,,,,,,,,,,,,,,,,,,,,,,,,,,,,,,,,,,,,,,,,,,,,,,,,,,,,,,,,,,,,,,,,,,,,,,,,,,,,,
,,9,1.86,9,1.86,0,21,21,42,1,77,refrigerator,yogurt,,88752,001,2022-04-24_21h59.30.169,SPAMnetsValid,2021.1.4,Win32,59.81934558,,,,,,,,,,,,,,,,,,,,,,,,,,,,,,,,,,,,,,,,,,,,,,,,,,,,,,,,,,,,,,,,,,,,,,,,,,,,,,,,,,,,,,,,,
,,1,1.7294,1,1.7294,0,22,22,27,1,72,broom,onion,,88752,001,2022-04-24_21h59.30.169,SPAMnetsValid,2021.1.4,Win32,59.81934558,,,,,,,,,,,,,,,,,,,,,,,,,,,,,,,,,,,,,,,,,,,,,,,,,,,,,,,,,,,,,,,,,,,,,,,,,,,,,,,,,,,,,,,,,
,,9,1.7793,9,1.7793,0,23,23,58,1,94,kitchen,microwave,,88752,001,2022-04-24_21h59.30.169,SPAMnetsValid,2021.1.4,Win32,59.81934558,,,,,,,,,,,,,,,,,,,,,,,,,,,,,,,,,,,,,,,,,,,,,,,,,,,,,,,,,,,,,,,,,,,,,,,,,,,,,,,,,,,,,,,,,
,,7,2.3428,7,2.3428,0,24,24,41,1,19,microwave,pretzel,,88752,001,2022-04-24_21h59.30.169,SPAMnetsValid,2021.1.4,Win32,59.81934558,,,,,,,,,,,,,,,,,,,,,,,,,,,,,,,,,,,,,,,,,,,,,,,,,,,,,,,,,,,,,,,,,,,,,,,,,,,,,,,,,,,,,,,,,
,,8,2.5774,8,2.5774,0,25,25,87,1,79,garden,strawberry,,88752,001,2022-04-24_21h59.30.169,SPAMnetsValid,2021.1.4,Win32,59.81934558,,,,,,,,,,,,,,,,,,,,,,,,,,,,,,,,,,,,,,,,,,,,,,,,,,,,,,,,,,,,,,,,,,,,,,,,,,,,,,,,,,,,,,,,,
,,1,1.5934,1,1.5934,0,26,26,49,1,57,flower,kitchen,,88752,001,2022-04-24_21h59.30.169,SPAMnetsValid,2021.1.4,Win32,59.81934558,,,,,,,,,,,,,,,,,,,,,,,,,,,,,,,,,,,,,,,,,,,,,,,,,,,,,,,,,,,,,,,,,,,,,,,,,,,,,,,,,,,,,,,,,
,,1,1.1565,1,1.1565,0,27,27,57,1,62,kitchen,rose,,88752,001,2022-04-24_21h59.30.169,SPAMnetsValid,2021.1.4,Win32,59.81934558,,,,,,,,,,,,,,,,,,,,,,,,,,,,,,,,,,,,,,,,,,,,,,,,,,,,,,,,,,,,,,,,,,,,,,,,,,,,,,,,,,,,,,,,,
,,1,2.0011,1,2.0011,0,28,28,29,1,42,garden,kitchen,,88752,001,2022-04-24_21h59.30.169,SPAMnetsValid,2021.1.4,Win32,59.81934558,,,,,,,,,,,,,,,,,,,,,,,,,,,,,,,,,,,,,,,,,,,,,,,,,,,,,,,,,,,,,,,,,,,,,,,,,,,,,,,,,,,,,,,,,
,,5,1.895,5,1.895,0,29,29,73,1,50,carrot,rose,,88752,001,2022-04-24_21h59.30.169,SPAMnetsValid,2021.1.4,Win32,59.81934558,,,,,,,,,,,,,,,,,,,,,,,,,,,,,,,,,,,,,,,,,,,,,,,,,,,,,,,,,,,,,,,,,,,,,,,,,,,,,,,,,,,,,,,,,
,,5,5.9384,5,5.9384,0,30,30,69,1,45,onion,pretzel,,88752,001,2022-04-24_21h59.30.169,SPAMnetsValid,2021.1.4,Win32,59.81934558,,,,,,,,,,,,,,,,,,,,,,,,,,,,,,,,,,,,,,,,,,,,,,,,,,,,,,,,,,,,,,,,,,,,,,,,,,,,,,,,,,,,,,,,,
,,1,3.5446,1,3.5446,0,31,31,70,1,5,oven,tree,,88752,001,2022-04-24_21h59.30.169,SPAMnetsValid,2021.1.4,Win32,59.81934558,,,,,,,,,,,,,,,,,,,,,,,,,,,,,,,,,,,,,,,,,,,,,,,,,,,,,,,,,,,,,,,,,,,,,,,,,,,,,,,,,,,,,,,,,
,,1,1.5891,1,1.5891,0,32,32,31,1,33,oven,yogurt,,88752,001,2022-04-24_21h59.30.169,SPAMnetsValid,2021.1.4,Win32,59.81934558,,,,,,,,,,,,,,,,,,,,,,,,,,,,,,,,,,,,,,,,,,,,,,,,,,,,,,,,,,,,,,,,,,,,,,,,,,,,,,,,,,,,,,,,,
,,9,2.356,9,2.356,0,33,33,51,1,47,onion,tomato,,88752,001,2022-04-24_21h59.30.169,SPAMnetsValid,2021.1.4,Win32,59.81934558,,,,,,,,,,,,,,,,,,,,,,,,,,,,,,,,,,,,,,,,,,,,,,,,,,,,,,,,,,,,,,,,,,,,,,,,,,,,,,,,,,,,,,,,,
,,1,1.9536,1,1.9536,0,34,34,46,1,41,broom,cactus,,88752,001,2022-04-24_21h59.30.169,SPAMnetsValid,2021.1.4,Win32,59.81934558,,,,,,,,,,,,,,,,,,,,,,,,,,,,,,,,,,,,,,,,,,,,,,,,,,,,,,,,,,,,,,,,,,,,,,,,,,,,,,,,,,,,,,,,,
,,9,1.5776,9,1.5776,0,35,35,95,1,52,carrot,tomato,,88752,001,2022-04-24_21h59.30.169,SPAMnetsValid,2021.1.4,Win32,59.81934558,,,,,,,,,,,,,,,,,,,,,,,,,,,,,,,,,,,,,,,,,,,,,,,,,,,,,,,,,,,,,,,,,,,,,,,,,,,,,,,,,,,,,,,,,
,,9,1.8858,9,1.8858,0,36,36,93,1,63,cake,cookie,,88752,001,2022-04-24_21h59.30.169,SPAMnetsValid,2021.1.4,Win32,59.81934558,,,,,,,,,,,,,,,,,,,,,,,,,,,,,,,,,,,,,,,,,,,,,,,,,,,,,,,,,,,,,,,,,,,,,,,,,,,,,,,,,,,,,,,,,
,,4,1.9288,4,1.9288,0,37,37,12,1,67,flower,yogurt,,88752,001,2022-04-24_21h59.30.169,SPAMnetsValid,2021.1.4,Win32,59.81934558,,,,,,,,,,,,,,,,,,,,,,,,,,,,,,,,,,,,,,,,,,,,,,,,,,,,,,,,,,,,,,,,,,,,,,,,,,,,,,,,,,,,,,,,,
,,5,2.495,5,2.495,0,38,38,94,1,68,flower,tomato,,88752,001,2022-04-24_21h59.30.169,SPAMnetsValid,2021.1.4,Win32,59.81934558,,,,,,,,,,,,,,,,,,,,,,,,,,,,,,,,,,,,,,,,,,,,,,,,,,,,,,,,,,,,,,,,,,,,,,,,,,,,,,,,,,,,,,,,,
,,6,1.7615,6,1.7615,0,39,39,9,1,75,cookie,onion,,88752,001,2022-04-24_21h59.30.169,SPAMnetsValid,2021.1.4,Win32,59.81934558,,,,,,,,,,,,,,,,,,,,,,,,,,,,,,,,,,,,,,,,,,,,,,,,,,,,,,,,,,,,,,,,,,,,,,,,,,,,,,,,,,,,,,,,,
,,1,1.9624,1,1.9624,0,40,40,22,1,16,chocolate,flower,,88752,001,2022-04-24_21h59.30.169,SPAMnetsValid,2021.1.4,Win32,59.81934558,,,,,,,,,,,,,,,,,,,,,,,,,,,,,,,,,,,,,,,,,,,,,,,,,,,,,,,,,,,,,,,,,,,,,,,,,,,,,,,,,,,,,,,,,
,,1,2.5422,1,2.5422,0,41,41,1,1,31,cactus,pretzel,,88752,001,2022-04-24_21h59.30.169,SPAMnetsValid,2021.1.4,Win32,59.81934558,,,,,,,,,,,,,,,,,,,,,,,,,,,,,,,,,,,,,,,,,,,,,,,,,,,,,,,,,,,,,,,,,,,,,,,,,,,,,,,,,,,,,,,,,
,,1,3.3077,1,3.3077,0,42,42,5,1,13,broom,yogurt,,88752,001,2022-04-24_21h59.30.169,SPAMnetsValid,2021.1.4,Win32,59.81934558,,,,,,,,,,,,,,,,,,,,,,,,,,,,,,,,,,,,,,,,,,,,,,,,,,,,,,,,,,,,,,,,,,,,,,,,,,,,,,,,,,,,,,,,,
,,9,1.7986,9,1.7986,0,43,43,53,1,192,microwave,microwave,CHECK,88752,001,2022-04-24_21h59.30.169,SPAMnetsValid,2021.1.4,Win32,59.81934558,,,,,,,,,,,,,,,,,,,,,,,,,,,,,,,,,,,,,,,,,,,,,,,,,,,,,,,,,,,,,,,,,,,,,,,,,,,,,,,,,,,,,,,,,
,,1,2.1188,1,2.1188,0,44,44,55,1,1,rose,yogurt,,88752,001,2022-04-24_21h59.30.169,SPAMnetsValid,2021.1.4,Win32,59.81934558,,,,,,,,,,,,,,,,,,,,,,,,,,,,,,,,,,,,,,,,,,,,,,,,,,,,,,,,,,,,,,,,,,,,,,,,,,,,,,,,,,,,,,,,,
,,1,2.127,1,2.127,0,45,45,40,1,74,broom,pretzel,,88752,001,2022-04-24_21h59.30.169,SPAMnetsValid,2021.1.4,Win32,59.81934558,,,,,,,,,,,,,,,,,,,,,,,,,,,,,,,,,,,,,,,,,,,,,,,,,,,,,,,,,,,,,,,,,,,,,,,,,,,,,,,,,,,,,,,,,
,,1,1.5879,1,1.5879,0,46,46,39,1,15,onion,oven,,88752,001,2022-04-24_21h59.30.169,SPAMnetsValid,2021.1.4,Win32,59.81934558,,,,,,,,,,,,,,,,,,,,,,,,,,,,,,,,,,,,,,,,,,,,,,,,,,,,,,,,,,,,,,,,,,,,,,,,,,,,,,,,,,,,,,,,,
,,1,1.4129,1,1.4129,0,47,47,14,1,64,chocolate,garden,,88752,001,2022-04-24_21h59.30.169,SPAMnetsValid,2021.1.4,Win32,59.81934558,,,,,,,,,,,,,,,,,,,,,,,,,,,,,,,,,,,,,,,,,,,,,,,,,,,,,,,,,,,,,,,,,,,,,,,,,,,,,,,,,,,,,,,,,
,,9,3.6427,9,3.6427,0,48,48,64,1,9,kitchen,refrigerator,,88752,001,2022-04-24_21h59.30.169,SPAMnetsValid,2021.1.4,Win32,59.81934558,,,,,,,,,,,,,,,,,,,,,,,,,,,,,,,,,,,,,,,,,,,,,,,,,,,,,,,,,,,,,,,,,,,,,,,,,,,,,,,,,,,,,,,,,
,,5,1.846,5,1.846,0,49,49,6,1,87,carrot,yogurt,,88752,001,2022-04-24_21h59.30.169,SPAMnetsValid,2021.1.4,Win32,59.81934558,,,,,,,,,,,,,,,,,,,,,,,,,,,,,,,,,,,,,,,,,,,,,,,,,,,,,,,,,,,,,,,,,,,,,,,,,,,,,,,,,,,,,,,,,
,,1,2.2101,1,2.2101,0,50,50,85,1,90,cactus,cake,,88752,001,2022-04-24_21h59.30.169,SPAMnetsValid,2021.1.4,Win32,59.81934558,,,,,,,,,,,,,,,,,,,,,,,,,,,,,,,,,,,,,,,,,,,,,,,,,,,,,,,,,,,,,,,,,,,,,,,,,,,,,,,,,,,,,,,,,
,,7,1.8952,7,1.8952,0,51,51,77,1,7,melon,tree,,88752,001,2022-04-24_21h59.30.169,SPAMnetsValid,2021.1.4,Win32,59.81934558,,,,,,,,,,,,,,,,,,,,,,,,,,,,,,,,,,,,,,,,,,,,,,,,,,,,,,,,,,,,,,,,,,,,,,,,,,,,,,,,,,,,,,,,,
,,9,2.2618,9,2.2618,0,52,52,19,1,76,garden,rose,,88752,001,2022-04-24_21h59.30.169,SPAMnetsValid,2021.1.4,Win32,59.81934558,,,,,,,,,,,,,,,,,,,,,,,,,,,,,,,,,,,,,,,,,,,,,,,,,,,,,,,,,,,,,,,,,,,,,,,,,,,,,,,,,,,,,,,,,
,,1,2.0101,1,2.0101,0,53,53,17,1,27,cactus,cookie,,88752,001,2022-04-24_21h59.30.169,SPAMnetsValid,2021.1.4,Win32,59.81934558,,,,,,,,,,,,,,,,,,,,,,,,,,,,,,,,,,,,,,,,,,,,,,,,,,,,,,,,,,,,,,,,,,,,,,,,,,,,,,,,,,,,,,,,,
,,1,2.3604,1,2.3604,0,54,54,13,1,26,tomato,yogurt,,88752,001,2022-04-24_21h59.30.169,SPAMnetsValid,2021.1.4,Win32,59.81934558,,,,,,,,,,,,,,,,,,,,,,,,,,,,,,,,,,,,,,,,,,,,,,,,,,,,,,,,,,,,,,,,,,,,,,,,,,,,,,,,,,,,,,,,,
,,5,4.3689,5,4.3689,0,55,55,81,1,60,cactus,onion,,88752,001,2022-04-24_21h59.30.169,SPAMnetsValid,2021.1.4,Win32,59.81934558,,,,,,,,,,,,,,,,,,,,,,,,,,,,,,,,,,,,,,,,,,,,,,,,,,,,,,,,,,,,,,,,,,,,,,,,,,,,,,,,,,,,,,,,,
,,1,1.8274,1,1.8274,0,56,56,72,1,59,rose,strawberry,,88752,001,2022-04-24_21h59.30.169,SPAMnetsValid,2021.1.4,Win32,59.81934558,,,,,,,,,,,,,,,,,,,,,,,,,,,,,,,,,,,,,,,,,,,,,,,,,,,,,,,,,,,,,,,,,,,,,,,,,,,,,,,,,,,,,,,,,
,,5,4.2099,5,4.2099,0,57,57,35,1,55,tomato,tree,,88752,001,2022-04-24_21h59.30.169,SPAMnetsValid,2021.1.4,Win32,59.81934558,,,,,,,,,,,,,,,,,,,,,,,,,,,,,,,,,,,,,,,,,,,,,,,,,,,,,,,,,,,,,,,,,,,,,,,,,,,,,,,,,,,,,,,,,
,,3,2.0591,3,2.0591,0,58,58,38,1,88,cactus,melon,,88752,001,2022-04-24_21h59.30.169,SPAMnetsValid,2021.1.4,Win32,59.81934558,,,,,,,,,,,,,,,,,,,,,,,,,,,,,,,,,,,,,,,,,,,,,,,,,,,,,,,,,,,,,,,,,,,,,,,,,,,,,,,,,,,,,,,,,
,,1,2.7608,1,2.7608,0,59,59,18,1,85,cake,tree,,88752,001,2022-04-24_21h59.30.169,SPAMnetsValid,2021.1.4,Win32,59.81934558,,,,,,,,,,,,,,,,,,,,,,,,,,,,,,,,,,,,,,,,,,,,,,,,,,,,,,,,,,,,,,,,,,,,,,,,,,,,,,,,,,,,,,,,,
,,9,2.025,9,2.025,0,60,60,91,1,2,kitchen,onion,,88752,001,2022-04-24_21h59.30.169,SPAMnetsValid,2021.1.4,Win32,59.81934558,,,,,,,,,,,,,,,,,,,,,,,,,,,,,,,,,,,,,,,,,,,,,,,,,,,,,,,,,,,,,,,,,,,,,,,,,,,,,,,,,,,,,,,,,
,,9,1.8648,9,1.8648,0,61,61,86,1,51,onion,strawberry,,88752,001,2022-04-24_21h59.30.169,SPAMnetsValid,2021.1.4,Win32,59.81934558,,,,,,,,,,,,,,,,,,,,,,,,,,,,,,,,,,,,,,,,,,,,,,,,,,,,,,,,,,,,,,,,,,,,,,,,,,,,,,,,,,,,,,,,,
,,1,2.5461,1,2.5461,0,62,62,25,1,23,flower,microwave,,88752,001,2022-04-24_21h59.30.169,SPAMnetsValid,2021.1.4,Win32,59.81934558,,,,,,,,,,,,,,,,,,,,,,,,,,,,,,,,,,,,,,,,,,,,,,,,,,,,,,,,,,,,,,,,,,,,,,,,,,,,,,,,,,,,,,,,,
,,1,2.0273,1,2.0273,0,63,63,43,1,11,refrigerator,tree,,88752,001,2022-04-24_21h59.30.169,SPAMnetsValid,2021.1.4,Win32,59.81934558,,,,,,,,,,,,,,,,,,,,,,,,,,,,,,,,,,,,,,,,,,,,,,,,,,,,,,,,,,,,,,,,,,,,,,,,,,,,,,,,,,,,,,,,,
,,9,1.8296,9,1.8296,0,64,64,30,1,3,cake,oven,,88752,001,2022-04-24_21h59.30.169,SPAMnetsValid,2021.1.4,Win32,59.81934558,,,,,,,,,,,,,,,,,,,,,,,,,,,,,,,,,,,,,,,,,,,,,,,,,,,,,,,,,,,,,,,,,,,,,,,,,,,,,,,,,,,,,,,,,
,,3,1.7978,3,1.7978,0,65,65,56,1,78,cookie,rose,,88752,001,2022-04-24_21h59.30.169,SPAMnetsValid,2021.1.4,Win32,59.81934558,,,,,,,,,,,,,,,,,,,,,,,,,,,,,,,,,,,,,,,,,,,,,,,,,,,,,,,,,,,,,,,,,,,,,,,,,,,,,,,,,,,,,,,,,
,,1,2.3965,1,2.3965,0,66,66,79,1,86,oven,rose,,88752,001,2022-04-24_21h59.30.169,SPAMnetsValid,2021.1.4,Win32,59.81934558,,,,,,,,,,,,,,,,,,,,,,,,,,,,,,,,,,,,,,,,,,,,,,,,,,,,,,,,,,,,,,,,,,,,,,,,,,,,,,,,,,,,,,,,,
,,5,15.5904,5,15.5904,0,67,67,76,1,36,broom,kitchen,,88752,001,2022-04-24_21h59.30.169,SPAMnetsValid,2021.1.4,Win32,59.81934558,,,,,,,,,,,,,,,,,,,,,,,,,,,,,,,,,,,,,,,,,,,,,,,,,,,,,,,,,,,,,,,,,,,,,,,,,,,,,,,,,,,,,,,,,
,,5,3.8632,5,3.8632,0,68,68,28,1,84,oven,tomato,,88752,001,2022-04-24_21h59.30.169,SPAMnetsValid,2021.1.4,Win32,59.81934558,,,,,,,,,,,,,,,,,,,,,,,,,,,,,,,,,,,,,,,,,,,,,,,,,,,,,,,,,,,,,,,,,,,,,,,,,,,,,,,,,,,,,,,,,
,,1,1.6995,1,1.6995,0,69,69,4,1,83,broom,carrot,,88752,001,2022-04-24_21h59.30.169,SPAMnetsValid,2021.1.4,Win32,59.81934558,,,,,,,,,,,,,,,,,,,,,,,,,,,,,,,,,,,,,,,,,,,,,,,,,,,,,,,,,,,,,,,,,,,,,,,,,,,,,,,,,,,,,,,,,
,,1,1.6781,1,1.6781,0,70,70,65,1,46,garden,yogurt,,88752,001,2022-04-24_21h59.30.169,SPAMnetsValid,2021.1.4,Win32,59.81934558,,,,,,,,,,,,,,,,,,,,,,,,,,,,,,,,,,,,,,,,,,,,,,,,,,,,,,,,,,,,,,,,,,,,,,,,,,,,,,,,,,,,,,,,,
,,5,12.382,5,12.382,0,71,71,20,1,39,melon,pretzel,,88752,001,2022-04-24_21h59.30.169,SPAMnetsValid,2021.1.4,Win32,59.81934558,,,,,,,,,,,,,,,,,,,,,,,,,,,,,,,,,,,,,,,,,,,,,,,,,,,,,,,,,,,,,,,,,,,,,,,,,,,,,,,,,,,,,,,,,
,,2,2.6007,2,2.6007,0,72,72,23,1,65,broom,garden,,88752,001,2022-04-24_21h59.30.169,SPAMnetsValid,2021.1.4,Win32,59.81934558,,,,,,,,,,,,,,,,,,,,,,,,,,,,,,,,,,,,,,,,,,,,,,,,,,,,,,,,,,,,,,,,,,,,,,,,,,,,,,,,,,,,,,,,,
,,1,1.2906,1,1.2906,0,73,73,60,1,89,chocolate,rose,,88752,001,2022-04-24_21h59.30.169,SPAMnetsValid,2021.1.4,Win32,59.81934558,,,,,,,,,,,,,,,,,,,,,,,,,,,,,,,,,,,,,,,,,,,,,,,,,,,,,,,,,,,,,,,,,,,,,,,,,,,,,,,,,,,,,,,,,
,,3,2.2931,3,2.2931,0,74,74,34,1,29,chocolate,melon,,88752,001,2022-04-24_21h59.30.169,SPAMnetsValid,2021.1.4,Win32,59.81934558,,,,,,,,,,,,,,,,,,,,,,,,,,,,,,,,,,,,,,,,,,,,,,,,,,,,,,,,,,,,,,,,,,,,,,,,,,,,,,,,,,,,,,,,,
,,3,2.5271,3,2.5271,0,75,75,63,1,21,cake,onion,,88752,001,2022-04-24_21h59.30.169,SPAMnetsValid,2021.1.4,Win32,59.81934558,,,,,,,,,,,,,,,,,,,,,,,,,,,,,,,,,,,,,,,,,,,,,,,,,,,,,,,,,,,,,,,,,,,,,,,,,,,,,,,,,,,,,,,,,
,,1,5.4647,1,5.4647,0,76,76,15,1,48,flower,oven,,88752,001,2022-04-24_21h59.30.169,SPAMnetsValid,2021.1.4,Win32,59.81934558,,,,,,,,,,,,,,,,,,,,,,,,,,,,,,,,,,,,,,,,,,,,,,,,,,,,,,,,,,,,,,,,,,,,,,,,,,,,,,,,,,,,,,,,,
,,1,1.4163,1,1.4163,0,77,77,61,1,71,broom,rose,,88752,001,2022-04-24_21h59.30.169,SPAMnetsValid,2021.1.4,Win32,59.81934558,,,,,,,,,,,,,,,,,,,,,,,,,,,,,,,,,,,,,,,,,,,,,,,,,,,,,,,,,,,,,,,,,,,,,,,,,,,,,,,,,,,,,,,,,
,,5,17.3523,5,17.3523,0,78,78,68,1,24,cookie,tomato,,88752,001,2022-04-24_21h59.30.169,SPAMnetsValid,2021.1.4,Win32,59.81934558,,,,,,,,,,,,,,,,,,,,,,,,,,,,,,,,,,,,,,,,,,,,,,,,,,,,,,,,,,,,,,,,,,,,,,,,,,,,,,,,,,,,,,,,,
,,5,1.0939,5,1.0939,0,79,79,50,1,81,pretzel,yogurt,,88752,001,2022-04-24_21h59.30.169,SPAMnetsValid,2021.1.4,Win32,59.81934558,,,,,,,,,,,,,,,,,,,,,,,,,,,,,,,,,,,,,,,,,,,,,,,,,,,,,,,,,,,,,,,,,,,,,,,,,,,,,,,,,,,,,,,,,
,,5,1.5638,5,1.5638,0,80,80,48,1,66,melon,yogurt,,88752,001,2022-04-24_21h59.30.169,SPAMnetsValid,2021.1.4,Win32,59.81934558,,,,,,,,,,,,,,,,,,,,,,,,,,,,,,,,,,,,,,,,,,,,,,,,,,,,,,,,,,,,,,,,,,,,,,,,,,,,,,,,,,,,,,,,,
,,6,5.1554,6,5.1554,0,81,81,33,1,32,cake,microwave,,88752,001,2022-04-24_21h59.30.169,SPAMnetsValid,2021.1.4,Win32,59.81934558,,,,,,,,,,,,,,,,,,,,,,,,,,,,,,,,,,,,,,,,,,,,,,,,,,,,,,,,,,,,,,,,,,,,,,,,,,,,,,,,,,,,,,,,,
,,3,1.7813,3,1.7813,0,82,82,88,1,92,broom,flower,,88752,001,2022-04-24_21h59.30.169,SPAMnetsValid,2021.1.4,Win32,59.81934558,,,,,,,,,,,,,,,,,,,,,,,,,,,,,,,,,,,,,,,,,,,,,,,,,,,,,,,,,,,,,,,,,,,,,,,,,,,,,,,,,,,,,,,,,
,,6,1.6949,6,1.6949,0,83,83,52,1,4,chocolate,pretzel,,88752,001,2022-04-24_21h59.30.169,SPAMnetsValid,2021.1.4,Win32,59.81934558,,,,,,,,,,,,,,,,,,,,,,,,,,,,,,,,,,,,,,,,,,,,,,,,,,,,,,,,,,,,,,,,,,,,,,,,,,,,,,,,,,,,,,,,,
,,3,1.8557,3,1.8557,0,84,84,59,1,8,broom,melon,,88752,001,2022-04-24_21h59.30.169,SPAMnetsValid,2021.1.4,Win32,59.81934558,,,,,,,,,,,,,,,,,,,,,,,,,,,,,,,,,,,,,,,,,,,,,,,,,,,,,,,,,,,,,,,,,,,,,,,,,,,,,,,,,,,,,,,,,
,,9,1.8627,9,1.8627,0,85,85,2,1,22,kitchen,strawberry,,88752,001,2022-04-24_21h59.30.169,SPAMnetsValid,2021.1.4,Win32,59.81934558,,,,,,,,,,,,,,,,,,,,,,,,,,,,,,,,,,,,,,,,,,,,,,,,,,,,,,,,,,,,,,,,,,,,,,,,,,,,,,,,,,,,,,,,,
,,6,2.2098,6,2.2098,0,86,86,74,1,70,chocolate,onion,,88752,001,2022-04-24_21h59.30.169,SPAMnetsValid,2021.1.4,Win32,59.81934558,,,,,,,,,,,,,,,,,,,,,,,,,,,,,,,,,,,,,,,,,,,,,,,,,,,,,,,,,,,,,,,,,,,,,,,,,,,,,,,,,,,,,,,,,
,,7,1.9987,7,1.9987,0,87,87,66,1,20,rose,tree,,88752,001,2022-04-24_21h59.30.169,SPAMnetsValid,2021.1.4,Win32,59.81934558,,,,,,,,,,,,,,,,,,,,,,,,,,,,,,,,,,,,,,,,,,,,,,,,,,,,,,,,,,,,,,,,,,,,,,,,,,,,,,,,,,,,,,,,,
,,2,1.8941,2,1.8941,0,88,88,26,1,35,flower,pretzel,,88752,001,2022-04-24_21h59.30.169,SPAMnetsValid,2021.1.4,Win32,59.81934558,,,,,,,,,,,,,,,,,,,,,,,,,,,,,,,,,,,,,,,,,,,,,,,,,,,,,,,,,,,,,,,,,,,,,,,,,,,,,,,,,,,,,,,,,
,,7,1.7001,7,1.7001,0,89,89,67,1,54,chocolate,yogurt,,88752,001,2022-04-24_21h59.30.169,SPAMnetsValid,2021.1.4,Win32,59.81934558,,,,,,,,,,,,,,,,,,,,,,,,,,,,,,,,,,,,,,,,,,,,,,,,,,,,,,,,,,,,,,,,,,,,,,,,,,,,,,,,,,,,,,,,,
,,5,2.3643,5,2.3643,0,90,90,7,1,34,melon,oven,,88752,001,2022-04-24_21h59.30.169,SPAMnetsValid,2021.1.4,Win32,59.81934558,,,,,,,,,,,,,,,,,,,,,,,,,,,,,,,,,,,,,,,,,,,,,,,,,,,,,,,,,,,,,,,,,,,,,,,,,,,,,,,,,,,,,,,,,
,,8,2.8282,8,2.8282,0,91,91,24,1,17,carrot,melon,,88752,001,2022-04-24_21h59.30.169,SPAMnetsValid,2021.1.4,Win32,59.81934558,,,,,,,,,,,,,,,,,,,,,,,,,,,,,,,,,,,,,,,,,,,,,,,,,,,,,,,,,,,,,,,,,,,,,,,,,,,,,,,,,,,,,,,,,
,,3,1.8936,3,1.8936,0,92,92,3,1,49,flower,strawberry,,88752,001,2022-04-24_21h59.30.169,SPAMnetsValid,2021.1.4,Win32,59.81934558,,,,,,,,,,,,,,,,,,,,,,,,,,,,,,,,,,,,,,,,,,,,,,,,,,,,,,,,,,,,,,,,,,,,,,,,,,,,,,,,,,,,,,,,,
,,5,5.507,5,5.507,0,93,93,36,1,12,cookie,yogurt,,88752,001,2022-04-24_21h59.30.169,SPAMnetsValid,2021.1.4,Win32,59.81934558,,,,,,,,,,,,,,,,,,,,,,,,,,,,,,,,,,,,,,,,,,,,,,,,,,,,,,,,,,,,,,,,,,,,,,,,,,,,,,,,,,,,,,,,,
,,1,3.9479,1,3.9479,0,94,94,47,1,73,broom,chocolate,,88752,001,2022-04-24_21h59.30.169,SPAMnetsValid,2021.1.4,Win32,59.81934558,,,,,,,,,,,,,,,,,,,,,,,,,,,,,,,,,,,,,,,,,,,,,,,,,,,,,,,,,,,,,,,,,,,,,,,,,,,,,,,,,,,,,,,,,
,,9,1.6563,9,1.6563,0,95,95,62,1,18,onion,refrigerator,,88752,001,2022-04-24_21h59.30.169,SPAMnetsValid,2021.1.4,Win32,59.81934558,,,,,,,,,,,,,,,,,,,,,,,,,,,,,,,,,,,,,,,,,,,,,,,,,,,,,,,,,,,,,,,,,,,,,,,,,,,,,,,,,,,,,,,,,
,,9,6.9746,9,6.9746,0,96,96,83,1,6,garden,onion,,88752,001,2022-04-24_21h59.30.169,SPAMnetsValid,2021.1.4,Win32,59.81934558,,,,,,,,,,,,,,,,,,,,,,,,,,,,,,,,,,,,,,,,,,,,,,,,,,,,,,,,,,,,,,,,,,,,,,,,,,,,,,,,,,,,,,,,,
,,,,,,,,,,,,,,,88752,001,2022-04-24_21h59.30.169,SPAMnetsValid,2021.1.4,Win32,59.81934558,0,0,0,0,1,,,,,,,,,,,,,,,,,,,,,,,,,,,,,,,,,,,,,,,,,,,,,,,,,,,,,,,,,,,,,,,,,,,,,,,,,,,,,,,,,,,,
,,,,,,,,,,,,,,,88752,001,2022-04-24_21h59.30.169,SPAMnetsValid,2021.1.4,Win32,59.81934558,,,,,,0,0,0,0,1,1,0,,,,,,,,,,,,,,,,,,,,,,,,,,,,,,,,,,,,,,,,,,,,,,,,,,,,,,,,,,,,,,,,,,,,,,,,,,,,,
,,,,8,42.8514,,,,,,141,melon,tomato,,88752,001,2022-04-24_21h59.30.169,SPAMnetsValid,2021.1.4,Win32,59.81934558,,,,,,,,,,,,,8,42.8514,0,0,0,70,1,,,,,,,,,,,,,,,,,,,,,,,,,,,,,,,,,,,,,,,,,,,,,,,,,,,,,,,,,,,,,,,,,,,,,,
,,,,9,1.3973,,,,,,163,melon,refrigerator,,88752,001,2022-04-24_21h59.30.169,SPAMnetsValid,2021.1.4,Win32,59.81934558,,,,,,,,,,,,,9,1.3973,0,1,1,29,1,,,,,,,,,,,,,,,,,,,,,,,,,,,,,,,,,,,,,,,,,,,,,,,,,,,,,,,,,,,,,,,,,,,,,,
,,,,5,1.8934,,,,,,135,carrot,oven,,88752,001,2022-04-24_21h59.30.169,SPAMnetsValid,2021.1.4,Win32,59.81934558,,,,,,,,,,,,,5,1.8934,0,2,2,73,1,,,,,,,,,,,,,,,,,,,,,,,,,,,,,,,,,,,,,,,,,,,,,,,,,,,,,,,,,,,,,,,,,,,,,,
,,,,6,1.556,,,,,,155,carrot,cookie,,88752,001,2022-04-24_21h59.30.169,SPAMnetsValid,2021.1.4,Win32,59.81934558,,,,,,,,,,,,,6,1.556,0,3,3,38,1,,,,,,,,,,,,,,,,,,,,,,,,,,,,,,,,,,,,,,,,,,,,,,,,,,,,,,,,,,,,,,,,,,,,,,
,,,,9,2.1469,,,,,,112,cake,carrot,,88752,001,2022-04-24_21h59.30.169,SPAMnetsValid,2021.1.4,Win32,59.81934558,,,,,,,,,,,,,9,2.1469,0,4,4,39,1,,,,,,,,,,,,,,,,,,,,,,,,,,,,,,,,,,,,,,,,,,,,,,,,,,,,,,,,,,,,,,,,,,,,,,
,,,,9,1.7464,,,,,,122,flower,garden,,88752,001,2022-04-24_21h59.30.169,SPAMnetsValid,2021.1.4,Win32,59.81934558,,,,,,,,,,,,,9,1.7464,0,5,5,60,1,,,,,,,,,,,,,,,,,,,,,,,,,,,,,,,,,,,,,,,,,,,,,,,,,,,,,,,,,,,,,,,,,,,,,,
,,,,2,1.7436,,,,,,109,broom,strawberry,,88752,001,2022-04-24_21h59.30.169,SPAMnetsValid,2021.1.4,Win32,59.81934558,,,,,,,,,,,,,2,1.7436,0,6,6,4,1,,,,,,,,,,,,,,,,,,,,,,,,,,,,,,,,,,,,,,,,,,,,,,,,,,,,,,,,,,,,,,,,,,,,,,
,,,,9,1.8117,,,,,,181,carrot,kitchen,,88752,001,2022-04-24_21h59.30.169,SPAMnetsValid,2021.1.4,Win32,59.81934558,,,,,,,,,,,,,9,1.8117,0,7,7,72,1,,,,,,,,,,,,,,,,,,,,,,,,,,,,,,,,,,,,,,,,,,,,,,,,,,,,,,,,,,,,,,,,,,,,,,
,,,,9,1.1498,,,,,,102,chocolate,refrigerator,,88752,001,2022-04-24_21h59.30.169,SPAMnetsValid,2021.1.4,Win32,59.81934558,,,,,,,,,,,,,9,1.1498,0,8,8,76,1,,,,,,,,,,,,,,,,,,,,,,,,,,,,,,,,,,,,,,,,,,,,,,,,,,,,,,,,,,,,,,,,,,,,,,
,,,,9,1.6097,,,,,,99,garden,melon,,88752,001,2022-04-24_21h59.30.169,SPAMnetsValid,2021.1.4,Win32,59.81934558,,,,,,,,,,,,,9,1.6097,0,9,9,17,1,,,,,,,,,,,,,,,,,,,,,,,,,,,,,,,,,,,,,,,,,,,,,,,,,,,,,,,,,,,,,,,,,,,,,,
,,,,9,1.0811,,,,,,117,melon,strawberry,,88752,001,2022-04-24_21h59.30.169,SPAMnetsValid,2021.1.4,Win32,59.81934558,,,,,,,,,,,,,9,1.0811,0,10,10,11,1,,,,,,,,,,,,,,,,,,,,,,,,,,,,,,,,,,,,,,,,,,,,,,,,,,,,,,,,,,,,,,,,,,,,,,
,,,,7,1.7129,,,,,,98,pretzel,strawberry,,88752,001,2022-04-24_21h59.30.169,SPAMnetsValid,2021.1.4,Win32,59.81934558,,,,,,,,,,,,,7,1.7129,0,11,11,82,1,,,,,,,,,,,,,,,,,,,,,,,,,,,,,,,,,,,,,,,,,,,,,,,,,,,,,,,,,,,,,,,,,,,,,,
,,,,4,2.3939,,,,,,176,cactus,tomato,,88752,001,2022-04-24_21h59.30.169,SPAMnetsValid,2021.1.4,Win32,59.81934558,,,,,,,,,,,,,4,2.3939,0,12,12,9,1,,,,,,,,,,,,,,,,,,,,,,,,,,,,,,,,,,,,,,,,,,,,,,,,,,,,,,,,,,,,,,,,,,,,,,
,,,,3,2.1021,,,,,,130,microwave,yogurt,,88752,001,2022-04-24_21h59.30.169,SPAMnetsValid,2021.1.4,Win32,59.81934558,,,,,,,,,,,,,3,2.1021,0,13,13,84,1,,,,,,,,,,,,,,,,,,,,,,,,,,,,,,,,,,,,,,,,,,,,,,,,,,,,,,,,,,,,,,,,,,,,,,
,,,,1,2.9209,,,,,,104,garden,microwave,,88752,001,2022-04-24_21h59.30.169,SPAMnetsValid,2021.1.4,Win32,59.81934558,,,,,,,,,,,,,1,2.9209,0,14,14,81,1,,,,,,,,,,,,,,,,,,,,,,,,,,,,,,,,,,,,,,,,,,,,,,,,,,,,,,,,,,,,,,,,,,,,,,
,,,,7,1.6946,,,,,,175,melon,onion,,88752,001,2022-04-24_21h59.30.169,SPAMnetsValid,2021.1.4,Win32,59.81934558,,,,,,,,,,,,,7,1.6946,0,15,15,41,1,,,,,,,,,,,,,,,,,,,,,,,,,,,,,,,,,,,,,,,,,,,,,,,,,,,,,,,,,,,,,,,,,,,,,,
,,,,1,4.9746,,,,,,129,cactus,refrigerator,,88752,001,2022-04-24_21h59.30.169,SPAMnetsValid,2021.1.4,Win32,59.81934558,,,,,,,,,,,,,1,4.9746,0,16,16,3,1,,,,,,,,,,,,,,,,,,,,,,,,,,,,,,,,,,,,,,,,,,,,,,,,,,,,,,,,,,,,,,,,,,,,,,
,,,,2,3.7462,,,,,,159,cookie,flower,,88752,001,2022-04-24_21h59.30.169,SPAMnetsValid,2021.1.4,Win32,59.81934558,,,,,,,,,,,,,2,3.7462,0,17,17,21,1,,,,,,,,,,,,,,,,,,,,,,,,,,,,,,,,,,,,,,,,,,,,,,,,,,,,,,,,,,,,,,,,,,,,,,
,,,,6,1.7438,,,,,,151,microwave,onion,,88752,001,2022-04-24_21h59.30.169,SPAMnetsValid,2021.1.4,Win32,59.81934558,,,,,,,,,,,,,6,1.7438,0,18,18,6,1,,,,,,,,,,,,,,,,,,,,,,,,,,,,,,,,,,,,,,,,,,,,,,,,,,,,,,,,,,,,,,,,,,,,,,
,,,,9,1.6817,,,,,,113,refrigerator,strawberry,,88752,001,2022-04-24_21h59.30.169,SPAMnetsValid,2021.1.4,Win32,59.81934558,,,,,,,,,,,,,9,1.6817,0,19,19,56,1,,,,,,,,,,,,,,,,,,,,,,,,,,,,,,,,,,,,,,,,,,,,,,,,,,,,,,,,,,,,,,,,,,,,,,
,,,,9,1.1475,,,,,,115,refrigerator,tomato,,88752,001,2022-04-24_21h59.30.169,SPAMnetsValid,2021.1.4,Win32,59.81934558,,,,,,,,,,,,,9,1.1475,0,20,20,85,1,,,,,,,,,,,,,,,,,,,,,,,,,,,,,,,,,,,,,,,,,,,,,,,,,,,,,,,,,,,,,,,,,,,,,,
,,,,1,2.1117,,,,,,127,cactus,chocolate,,88752,001,2022-04-24_21h59.30.169,SPAMnetsValid,2021.1.4,Win32,59.81934558,,,,,,,,,,,,,1,2.1117,0,21,21,57,1,,,,,,,,,,,,,,,,,,,,,,,,,,,,,,,,,,,,,,,,,,,,,,,,,,,,,,,,,,,,,,,,,,,,,,
,,,,5,1.9809,,,,,,148,flower,melon,,88752,001,2022-04-24_21h59.30.169,SPAMnetsValid,2021.1.4,Win32,59.81934558,,,,,,,,,,,,,5,1.9809,0,22,22,23,1,,,,,,,,,,,,,,,,,,,,,,,,,,,,,,,,,,,,,,,,,,,,,,,,,,,,,,,,,,,,,,,,,,,,,,
,,,,2,1.7765,,,,,,133,cake,flower,,88752,001,2022-04-24_21h59.30.169,SPAMnetsValid,2021.1.4,Win32,59.81934558,,,,,,,,,,,,,2,1.7765,0,23,23,94,1,,,,,,,,,,,,,,,,,,,,,,,,,,,,,,,,,,,,,,,,,,,,,,,,,,,,,,,,,,,,,,,,,,,,,,
,,,,1,2.8084,,,,,,179,broom,oven,,88752,001,2022-04-24_21h59.30.169,SPAMnetsValid,2021.1.4,Win32,59.81934558,,,,,,,,,,,,,1,2.8084,0,24,24,45,1,,,,,,,,,,,,,,,,,,,,,,,,,,,,,,,,,,,,,,,,,,,,,,,,,,,,,,,,,,,,,,,,,,,,,,
,,,,1,1.9595,,,,,,146,pretzel,tree,,88752,001,2022-04-24_21h59.30.169,SPAMnetsValid,2021.1.4,Win32,59.81934558,,,,,,,,,,,,,1,1.9595,0,25,25,80,1,,,,,,,,,,,,,,,,,,,,,,,,,,,,,,,,,,,,,,,,,,,,,,,,,,,,,,,,,,,,,,,,,,,,,,
,,,,9,1.2686,,,,,,186,kitchen,yogurt,,88752,001,2022-04-24_21h59.30.169,SPAMnetsValid,2021.1.4,Win32,59.81934558,,,,,,,,,,,,,9,1.2686,0,26,26,48,1,,,,,,,,,,,,,,,,,,,,,,,,,,,,,,,,,,,,,,,,,,,,,,,,,,,,,,,,,,,,,,,,,,,,,,
,,,,8,4.1976,,,,,,142,garden,tree,,88752,001,2022-04-24_21h59.30.169,SPAMnetsValid,2021.1.4,Win32,59.81934558,,,,,,,,,,,,,8,4.1976,0,27,27,22,1,,,,,,,,,,,,,,,,,,,,,,,,,,,,,,,,,,,,,,,,,,,,,,,,,,,,,,,,,,,,,,,,,,,,,,
,,,,9,2.1778,,,,,,193,melon,melon,CHECK,88752,001,2022-04-24_21h59.30.169,SPAMnetsValid,2021.1.4,Win32,59.81934558,,,,,,,,,,,,,9,2.1778,0,28,28,86,1,,,,,,,,,,,,,,,,,,,,,,,,,,,,,,,,,,,,,,,,,,,,,,,,,,,,,,,,,,,,,,,,,,,,,,
,,,,1,2.0972,,,,,,101,cactus,kitchen,,88752,001,2022-04-24_21h59.30.169,SPAMnetsValid,2021.1.4,Win32,59.81934558,,,,,,,,,,,,,1,2.0972,0,29,29,54,1,,,,,,,,,,,,,,,,,,,,,,,,,,,,,,,,,,,,,,,,,,,,,,,,,,,,,,,,,,,,,,,,,,,,,,
,,,,8,2.7557,,,,,,139,carrot,strawberry,,88752,001,2022-04-24_21h59.30.169,SPAMnetsValid,2021.1.4,Win32,59.81934558,,,,,,,,,,,,,8,2.7557,0,30,30,37,1,,,,,,,,,,,,,,,,,,,,,,,,,,,,,,,,,,,,,,,,,,,,,,,,,,,,,,,,,,,,,,,,,,,,,,
,,,,9,1.5426,,,,,,110,chocolate,cookie,,88752,001,2022-04-24_21h59.30.169,SPAMnetsValid,2021.1.4,Win32,59.81934558,,,,,,,,,,,,,9,1.5426,0,31,31,52,1,,,,,,,,,,,,,,,,,,,,,,,,,,,,,,,,,,,,,,,,,,,,,,,,,,,,,,,,,,,,,,,,,,,,,,
,,,,9,1.4635,,,,,,97,chocolate,kitchen,,88752,001,2022-04-24_21h59.30.169,SPAMnetsValid,2021.1.4,Win32,59.81934558,,,,,,,,,,,,,9,1.4635,0,32,32,8,1,,,,,,,,,,,,,,,,,,,,,,,,,,,,,,,,,,,,,,,,,,,,,,,,,,,,,,,,,,,,,,,,,,,,,,
,,,,1,2.3688,,,,,,149,broom,tomato,,88752,001,2022-04-24_21h59.30.169,SPAMnetsValid,2021.1.4,Win32,59.81934558,,,,,,,,,,,,,1,2.3688,0,33,33,20,1,,,,,,,,,,,,,,,,,,,,,,,,,,,,,,,,,,,,,,,,,,,,,,,,,,,,,,,,,,,,,,,,,,,,,,
,,,,9,1.1805,,,,,,177,chocolate,strawberry,,88752,001,2022-04-24_21h59.30.169,SPAMnetsValid,2021.1.4,Win32,59.81934558,,,,,,,,,,,,,9,1.1805,0,34,34,53,1,,,,,,,,,,,,,,,,,,,,,,,,,,,,,,,,,,,,,,,,,,,,,,,,,,,,,,,,,,,,,,,,,,,,,,
,,,,1,1.8819,,,,,,105,cactus,oven,,88752,001,2022-04-24_21h59.30.169,SPAMnetsValid,2021.1.4,Win32,59.81934558,,,,,,,,,,,,,1,1.8819,0,35,35,13,1,,,,,,,,,,,,,,,,,,,,,,,,,,,,,,,,,,,,,,,,,,,,,,,,,,,,,,,,,,,,,,,,,,,,,,
,,,,1,1.8492,,,,,,132,broom,tree,,88752,001,2022-04-24_21h59.30.169,SPAMnetsValid,2021.1.4,Win32,59.81934558,,,,,,,,,,,,,1,1.8492,0,36,36,78,1,,,,,,,,,,,,,,,,,,,,,,,,,,,,,,,,,,,,,,,,,,,,,,,,,,,,,,,,,,,,,,,,,,,,,,
,,,,9,1.9941,,,,,,194,cactus,cactus,CHECK,88752,001,2022-04-24_21h59.30.169,SPAMnetsValid,2021.1.4,Win32,59.81934558,,,,,,,,,,,,,9,1.9941,0,37,37,25,1,,,,,,,,,,,,,,,,,,,,,,,,,,,,,,,,,,,,,,,,,,,,,,,,,,,,,,,,,,,,,,,,,,,,,,
,,,,7,4.2099,,,,,,103,pretzel,tomato,,88752,001,2022-04-24_21h59.30.169,SPAMnetsValid,2021.1.4,Win32,59.81934558,,,,,,,,,,,,,7,4.2099,0,38,38,79,1,,,,,,,,,,,,,,,,,,,,,,,,,,,,,,,,,,,,,,,,,,,,,,,,,,,,,,,,,,,,,,,,,,,,,,
,,,,9,2.4322,,,,,,167,carrot,garden,,88752,001,2022-04-24_21h59.30.169,SPAMnetsValid,2021.1.4,Win32,59.81934558,,,,,,,,,,,,,9,2.4322,0,39,39,47,1,,,,,,,,,,,,,,,,,,,,,,,,,,,,,,,,,,,,,,,,,,,,,,,,,,,,,,,,,,,,,,,,,,,,,,
,,,,9,1.4474,,,,,,116,cake,chocolate,,88752,001,2022-04-24_21h59.30.169,SPAMnetsValid,2021.1.4,Win32,59.81934558,,,,,,,,,,,,,9,1.4474,0,40,40,44,1,,,,,,,,,,,,,,,,,,,,,,,,,,,,,,,,,,,,,,,,,,,,,,,,,,,,,,,,,,,,,,,,,,,,,,
,,,,1,2.5764,,,,,,143,pretzel,rose,,88752,001,2022-04-24_21h59.30.169,SPAMnetsValid,2021.1.4,Win32,59.81934558,,,,,,,,,,,,,1,2.5764,0,41,41,55,1,,,,,,,,,,,,,,,,,,,,,,,,,,,,,,,,,,,,,,,,,,,,,,,,,,,,,,,,,,,,,,,,,,,,,,
,,,,7,1.7114,,,,,,136,chocolate,microwave,,88752,001,2022-04-24_21h59.30.169,SPAMnetsValid,2021.1.4,Win32,59.81934558,,,,,,,,,,,,,7,1.7114,0,42,42,96,1,,,,,,,,,,,,,,,,,,,,,,,,,,,,,,,,,,,,,,,,,,,,,,,,,,,,,,,,,,,,,,,,,,,,,,
,,,,9,1.6925,,,,,,100,garden,tomato,,88752,001,2022-04-24_21h59.30.169,SPAMnetsValid,2021.1.4,Win32,59.81934558,,,,,,,,,,,,,9,1.6925,0,43,43,83,1,,,,,,,,,,,,,,,,,,,,,,,,,,,,,,,,,,,,,,,,,,,,,,,,,,,,,,,,,,,,,,,,,,,,,,
,,,,3,1.9529,,,,,,182,flower,refrigerator,,88752,001,2022-04-24_21h59.30.169,SPAMnetsValid,2021.1.4,Win32,59.81934558,,,,,,,,,,,,,3,1.9529,0,44,44,32,1,,,,,,,,,,,,,,,,,,,,,,,,,,,,,,,,,,,,,,,,,,,,,,,,,,,,,,,,,,,,,,,,,,,,,,
,,,,7,3.1932,,,,,,153,carrot,pretzel,,88752,001,2022-04-24_21h59.30.169,SPAMnetsValid,2021.1.4,Win32,59.81934558,,,,,,,,,,,,,7,3.1932,0,45,45,34,1,,,,,,,,,,,,,,,,,,,,,,,,,,,,,,,,,,,,,,,,,,,,,,,,,,,,,,,,,,,,,,,,,,,,,,
,,,,5,2.2323,,,,,,162,microwave,tomato,,88752,001,2022-04-24_21h59.30.169,SPAMnetsValid,2021.1.4,Win32,59.81934558,,,,,,,,,,,,,5,2.2323,0,46,46,12,1,,,,,,,,,,,,,,,,,,,,,,,,,,,,,,,,,,,,,,,,,,,,,,,,,,,,,,,,,,,,,,,,,,,,,,
,,,,9,1.1778,,,,,,154,strawberry,yogurt,,88752,001,2022-04-24_21h59.30.169,SPAMnetsValid,2021.1.4,Win32,59.81934558,,,,,,,,,,,,,9,1.1778,0,47,47,28,1,,,,,,,,,,,,,,,,,,,,,,,,,,,,,,,,,,,,,,,,,,,,,,,,,,,,,,,,,,,,,,,,,,,,,,
,,,,1,1.3986,,,,,,126,kitchen,tree,,88752,001,2022-04-24_21h59.30.169,SPAMnetsValid,2021.1.4,Win32,59.81934558,,,,,,,,,,,,,1,1.3986,0,48,48,50,1,,,,,,,,,,,,,,,,,,,,,,,,,,,,,,,,,,,,,,,,,,,,,,,,,,,,,,,,,,,,,,,,,,,,,,
,,,,7,2.4428,,,,,,134,carrot,flower,,88752,001,2022-04-24_21h59.30.169,SPAMnetsValid,2021.1.4,Win32,59.81934558,,,,,,,,,,,,,7,2.4428,0,49,49,93,1,,,,,,,,,,,,,,,,,,,,,,,,,,,,,,,,,,,,,,,,,,,,,,,,,,,,,,,,,,,,,,,,,,,,,,
,,,,3,1.6682,,,,,,156,melon,rose,,88752,001,2022-04-24_21h59.30.169,SPAMnetsValid,2021.1.4,Win32,59.81934558,,,,,,,,,,,,,3,1.6682,0,50,50,31,1,,,,,,,,,,,,,,,,,,,,,,,,,,,,,,,,,,,,,,,,,,,,,,,,,,,,,,,,,,,,,,,,,,,,,,
,,,,9,1.3136,,,,,,106,cake,strawberry,,88752,001,2022-04-24_21h59.30.169,SPAMnetsValid,2021.1.4,Win32,59.81934558,,,,,,,,,,,,,9,1.3136,0,51,51,0,1,,,,,,,,,,,,,,,,,,,,,,,,,,,,,,,,,,,,,,,,,,,,,,,,,,,,,,,,,,,,,,,,,,,,,,
,,,,9,1.947,,,,,,150,microwave,refrigerator,,88752,001,2022-04-24_21h59.30.169,SPAMnetsValid,2021.1.4,Win32,59.81934558,,,,,,,,,,,,,9,1.947,0,52,52,66,1,,,,,,,,,,,,,,,,,,,,,,,,,,,,,,,,,,,,,,,,,,,,,,,,,,,,,,,,,,,,,,,,,,,,,,
,,,,5,1.8597,,,,,,183,cake,rose,,88752,001,2022-04-24_21h59.30.169,SPAMnetsValid,2021.1.4,Win32,59.81934558,,,,,,,,,,,,,5,1.8597,0,53,53,19,1,,,,,,,,,,,,,,,,,,,,,,,,,,,,,,,,,,,,,,,,,,,,,,,,,,,,,,,,,,,,,,,,,,,,,,
,,,,6,2.0444,,,,,,125,carrot,tree,,88752,001,2022-04-24_21h59.30.169,SPAMnetsValid,2021.1.4,Win32,59.81934558,,,,,,,,,,,,,6,2.0444,0,54,54,30,1,,,,,,,,,,,,,,,,,,,,,,,,,,,,,,,,,,,,,,,,,,,,,,,,,,,,,,,,,,,,,,,,,,,,,,
,,,,9,1.7718,,,,,,138,flower,rose,,88752,001,2022-04-24_21h59.30.169,SPAMnetsValid,2021.1.4,Win32,59.81934558,,,,,,,,,,,,,9,1.7718,0,55,55,61,1,,,,,,,,,,,,,,,,,,,,,,,,,,,,,,,,,,,,,,,,,,,,,,,,,,,,,,,,,,,,,,,,,,,,,,
,,,,1,4.0392,,,,,,144,cake,garden,,88752,001,2022-04-24_21h59.30.169,SPAMnetsValid,2021.1.4,Win32,59.81934558,,,,,,,,,,,,,1,4.0392,0,56,56,58,1,,,,,,,,,,,,,,,,,,,,,,,,,,,,,,,,,,,,,,,,,,,,,,,,,,,,,,,,,,,,,,,,,,,,,,
,,,,3,2.7609,,,,,,119,strawberry,tree,,88752,001,2022-04-24_21h59.30.169,SPAMnetsValid,2021.1.4,Win32,59.81934558,,,,,,,,,,,,,3,2.7609,0,57,57,18,1,,,,,,,,,,,,,,,,,,,,,,,,,,,,,,,,,,,,,,,,,,,,,,,,,,,,,,,,,,,,,,,,,,,,,,
,,,,6,1.9265,,,,,,166,cake,yogurt,,88752,001,2022-04-24_21h59.30.169,SPAMnetsValid,2021.1.4,Win32,59.81934558,,,,,,,,,,,,,6,1.9265,0,58,58,91,1,,,,,,,,,,,,,,,,,,,,,,,,,,,,,,,,,,,,,,,,,,,,,,,,,,,,,,,,,,,,,,,,,,,,,,
,,,,6,1.6447,,,,,,174,cake,pretzel,,88752,001,2022-04-24_21h59.30.169,SPAMnetsValid,2021.1.4,Win32,59.81934558,,,,,,,,,,,,,6,1.6447,0,59,59,2,1,,,,,,,,,,,,,,,,,,,,,,,,,,,,,,,,,,,,,,,,,,,,,,,,,,,,,,,,,,,,,,,,,,,,,,
,,,,3,2.1516,,,,,,152,cactus,strawberry,,88752,001,2022-04-24_21h59.30.169,SPAMnetsValid,2021.1.4,Win32,59.81934558,,,,,,,,,,,,,3,2.1516,0,60,60,49,1,,,,,,,,,,,,,,,,,,,,,,,,,,,,,,,,,,,,,,,,,,,,,,,,,,,,,,,,,,,,,,,,,,,,,,
,,,,5,2.6861,,,,,,108,carrot,chocolate,,88752,001,2022-04-24_21h59.30.169,SPAMnetsValid,2021.1.4,Win32,59.81934558,,,,,,,,,,,,,5,2.6861,0,61,61,5,1,,,,,,,,,,,,,,,,,,,,,,,,,,,,,,,,,,,,,,,,,,,,,,,,,,,,,,,,,,,,,,,,,,,,,,
,,,,3,2.926,,,,,,121,broom,microwave,,88752,001,2022-04-24_21h59.30.169,SPAMnetsValid,2021.1.4,Win32,59.81934558,,,,,,,,,,,,,3,2.926,0,62,62,95,1,,,,,,,,,,,,,,,,,,,,,,,,,,,,,,,,,,,,,,,,,,,,,,,,,,,,,,,,,,,,,,,,,,,,,,
,,,,3,1.9031,,,,,,128,melon,microwave,,88752,001,2022-04-24_21h59.30.169,SPAMnetsValid,2021.1.4,Win32,59.81934558,,,,,,,,,,,,,3,1.9031,0,63,63,74,1,,,,,,,,,,,,,,,,,,,,,,,,,,,,,,,,,,,,,,,,,,,,,,,,,,,,,,,,,,,,,,,,,,,,,,
,,,,9,1.9265,,,,,,120,microwave,oven,,88752,001,2022-04-24_21h59.30.169,SPAMnetsValid,2021.1.4,Win32,59.81934558,,,,,,,,,,,,,9,1.9265,0,64,64,14,1,,,,,,,,,,,,,,,,,,,,,,,,,,,,,,,,,,,,,,,,,,,,,,,,,,,,,,,,,,,,,,,,,,,,,,
,,,,5,1.6645,,,,,,96,oven,strawberry,,88752,001,2022-04-24_21h59.30.169,SPAMnetsValid,2021.1.4,Win32,59.81934558,,,,,,,,,,,,,5,1.6645,0,65,65,67,1,,,,,,,,,,,,,,,,,,,,,,,,,,,,,,,,,,,,,,,,,,,,,,,,,,,,,,,,,,,,,,,,,,,,,,
,,,,1,1.3145,,,,,,180,tree,yogurt,,88752,001,2022-04-24_21h59.30.169,SPAMnetsValid,2021.1.4,Win32,59.81934558,,,,,,,,,,,,,1,1.3145,0,66,66,68,1,,,,,,,,,,,,,,,,,,,,,,,,,,,,,,,,,,,,,,,,,,,,,,,,,,,,,,,,,,,,,,,,,,,,,,
,,,,1,2.4593,,,,,,111,carrot,microwave,,88752,001,2022-04-24_21h59.30.169,SPAMnetsValid,2021.1.4,Win32,59.81934558,,,,,,,,,,,,,1,2.4593,0,67,67,16,1,,,,,,,,,,,,,,,,,,,,,,,,,,,,,,,,,,,,,,,,,,,,,,,,,,,,,,,,,,,,,,,,,,,,,,
,,,,6,2.3447,,,,,,188,flower,tree,,88752,001,2022-04-24_21h59.30.169,SPAMnetsValid,2021.1.4,Win32,59.81934558,,,,,,,,,,,,,6,2.3447,0,68,68,7,1,,,,,,,,,,,,,,,,,,,,,,,,,,,,,,,,,,,,,,,,,,,,,,,,,,,,,,,,,,,,,,,,,,,,,,
,,,,1,1.5819,,,,,,137,microwave,tree,,88752,001,2022-04-24_21h59.30.169,SPAMnetsValid,2021.1.4,Win32,59.81934558,,,,,,,,,,,,,1,1.5819,0,69,69,63,1,,,,,,,,,,,,,,,,,,,,,,,,,,,,,,,,,,,,,,,,,,,,,,,,,,,,,,,,,,,,,,,,,,,,,,
,,,,8,2.2321,,,,,,147,cake,refrigerator,,88752,001,2022-04-24_21h59.30.169,SPAMnetsValid,2021.1.4,Win32,59.81934558,,,,,,,,,,,,,8,2.2321,0,70,70,35,1,,,,,,,,,,,,,,,,,,,,,,,,,,,,,,,,,,,,,,,,,,,,,,,,,,,,,,,,,,,,,,,,,,,,,,
,,,,9,1.6277,,,,,,131,cactus,garden,,88752,001,2022-04-24_21h59.30.169,SPAMnetsValid,2021.1.4,Win32,59.81934558,,,,,,,,,,,,,9,1.6277,0,71,71,33,1,,,,,,,,,,,,,,,,,,,,,,,,,,,,,,,,,,,,,,,,,,,,,,,,,,,,,,,,,,,,,,,,,,,,,,
,,,,9,1.5768,,,,,,158,cookie,oven,,88752,001,2022-04-24_21h59.30.169,SPAMnetsValid,2021.1.4,Win32,59.81934558,,,,,,,,,,,,,9,1.5768,0,72,72,27,1,,,,,,,,,,,,,,,,,,,,,,,,,,,,,,,,,,,,,,,,,,,,,,,,,,,,,,,,,,,,,,,,,,,,,,
,,,,1,1.8916,,,,,,164,cookie,garden,,88752,001,2022-04-24_21h59.30.169,SPAMnetsValid,2021.1.4,Win32,59.81934558,,,,,,,,,,,,,1,1.8916,0,73,73,59,1,,,,,,,,,,,,,,,,,,,,,,,,,,,,,,,,,,,,,,,,,,,,,,,,,,,,,,,,,,,,,,,,,,,,,,
,,,,5,4.2908,,,,,,184,oven,pretzel,,88752,001,2022-04-24_21h59.30.169,SPAMnetsValid,2021.1.4,Win32,59.81934558,,,,,,,,,,,,,5,4.2908,0,74,74,42,1,,,,,,,,,,,,,,,,,,,,,,,,,,,,,,,,,,,,,,,,,,,,,,,,,,,,,,,,,,,,,,,,,,,,,,
,,,,8,2.1119,,,,,,178,cactus,carrot,,88752,001,2022-04-24_21h59.30.169,SPAMnetsValid,2021.1.4,Win32,59.81934558,,,,,,,,,,,,,8,2.1119,0,75,75,75,1,,,,,,,,,,,,,,,,,,,,,,,,,,,,,,,,,,,,,,,,,,,,,,,,,,,,,,,,,,,,,,,,,,,,,,
,,,,4,2.5946,,,,,,189,onion,tree,,88752,001,2022-04-24_21h59.30.169,SPAMnetsValid,2021.1.4,Win32,59.81934558,,,,,,,,,,,,,4,2.5946,0,76,76,62,1,,,,,,,,,,,,,,,,,,,,,,,,,,,,,,,,,,,,,,,,,,,,,,,,,,,,,,,,,,,,,,,,,,,,,,
,,,,1,1.8439,,,,,,169,onion,yogurt,,88752,001,2022-04-24_21h59.30.169,SPAMnetsValid,2021.1.4,Win32,59.81934558,,,,,,,,,,,,,1,1.8439,0,77,77,24,1,,,,,,,,,,,,,,,,,,,,,,,,,,,,,,,,,,,,,,,,,,,,,,,,,,,,,,,,,,,,,,,,,,,,,,
,,,,3,3.2074,,,,,,165,onion,rose,,88752,001,2022-04-24_21h59.30.169,SPAMnetsValid,2021.1.4,Win32,59.81934558,,,,,,,,,,,,,3,3.2074,0,78,78,40,1,,,,,,,,,,,,,,,,,,,,,,,,,,,,,,,,,,,,,,,,,,,,,,,,,,,,,,,,,,,,,,,,,,,,,,
,,,,1,3.4951,,,,,,123,cookie,tree,,88752,001,2022-04-24_21h59.30.169,SPAMnetsValid,2021.1.4,Win32,59.81934558,,,,,,,,,,,,,1,3.4951,0,79,79,46,1,,,,,,,,,,,,,,,,,,,,,,,,,,,,,,,,,,,,,,,,,,,,,,,,,,,,,,,,,,,,,,,,,,,,,,
,,,,8,1.991,,,,,,170,cookie,microwave,,88752,001,2022-04-24_21h59.30.169,SPAMnetsValid,2021.1.4,Win32,59.81934558,,,,,,,,,,,,,8,1.991,0,80,80,92,1,,,,,,,,,,,,,,,,,,,,,,,,,,,,,,,,,,,,,,,,,,,,,,,,,,,,,,,,,,,,,,,,,,,,,,
,,,,1,3.362,,,,,,157,refrigerator,rose,,88752,001,2022-04-24_21h59.30.169,SPAMnetsValid,2021.1.4,Win32,59.81934558,,,,,,,,,,,,,1,3.362,0,81,81,64,1,,,,,,,,,,,,,,,,,,,,,,,,,,,,,,,,,,,,,,,,,,,,,,,,,,,,,,,,,,,,,,,,,,,,,,
,,,,5,3.6817,,,,,,114,cookie,strawberry,,88752,001,2022-04-24_21h59.30.169,SPAMnetsValid,2021.1.4,Win32,59.81934558,,,,,,,,,,,,,5,3.6817,0,82,82,87,1,,,,,,,,,,,,,,,,,,,,,,,,,,,,,,,,,,,,,,,,,,,,,,,,,,,,,,,,,,,,,,,,,,,,,,
,,,,7,4.0084,,,,,,173,kitchen,tomato,,88752,001,2022-04-24_21h59.30.169,SPAMnetsValid,2021.1.4,Win32,59.81934558,,,,,,,,,,,,,7,4.0084,0,83,83,1,1,,,,,,,,,,,,,,,,,,,,,,,,,,,,,,,,,,,,,,,,,,,,,,,,,,,,,,,,,,,,,,,,,,,,,,
,,,,6,2.2434,,,,,,168,cactus,flower,,88752,001,2022-04-24_21h59.30.169,SPAMnetsValid,2021.1.4,Win32,59.81934558,,,,,,,,,,,,,6,2.2434,0,84,84,51,1,,,,,,,,,,,,,,,,,,,,,,,,,,,,,,,,,,,,,,,,,,,,,,,,,,,,,,,,,,,,,,,,,,,,,,
,,,,6,3.982,,,,,,107,rose,tomato,,88752,001,2022-04-24_21h59.30.169,SPAMnetsValid,2021.1.4,Win32,59.81934558,,,,,,,,,,,,,6,3.982,0,85,85,26,1,,,,,,,,,,,,,,,,,,,,,,,,,,,,,,,,,,,,,,,,,,,,,,,,,,,,,,,,,,,,,,,,,,,,,,
,,,,9,1.2156,,,,,,124,oven,refrigerator,,88752,001,2022-04-24_21h59.30.169,SPAMnetsValid,2021.1.4,Win32,59.81934558,,,,,,,,,,,,,9,1.2156,0,86,86,69,1,,,,,,,,,,,,,,,,,,,,,,,,,,,,,,,,,,,,,,,,,,,,,,,,,,,,,,,,,,,,,,,,,,,,,,
,,,,6,2.6749,,,,,,171,cake,tomato,,88752,001,2022-04-24_21h59.30.169,SPAMnetsValid,2021.1.4,Win32,59.81934558,,,,,,,,,,,,,6,2.6749,0,87,87,88,1,,,,,,,,,,,,,,,,,,,,,,,,,,,,,,,,,,,,,,,,,,,,,,,,,,,,,,,,,,,,,,,,,,,,,,
,,,,6,1.5501,,,,,,190,microwave,strawberry,,88752,001,2022-04-24_21h59.30.169,SPAMnetsValid,2021.1.4,Win32,59.81934558,,,,,,,,,,,,,6,1.5501,0,88,88,90,1,,,,,,,,,,,,,,,,,,,,,,,,,,,,,,,,,,,,,,,,,,,,,,,,,,,,,,,,,,,,,,,,,,,,,,
,,,,8,2.4937,,,,,,185,cactus,rose,,88752,001,2022-04-24_21h59.30.169,SPAMnetsValid,2021.1.4,Win32,59.81934558,,,,,,,,,,,,,8,2.4937,0,89,89,43,1,,,,,,,,,,,,,,,,,,,,,,,,,,,,,,,,,,,,,,,,,,,,,,,,,,,,,,,,,,,,,,,,,,,,,,
,,,,9,1.6489,,,,,,172,kitchen,melon,,88752,001,2022-04-24_21h59.30.169,SPAMnetsValid,2021.1.4,Win32,59.81934558,,,,,,,,,,,,,9,1.6489,0,90,90,77,1,,,,,,,,,,,,,,,,,,,,,,,,,,,,,,,,,,,,,,,,,,,,,,,,,,,,,,,,,,,,,,,,,,,,,,
,,,,9,1.211,,,,,,140,cookie,refrigerator,,88752,001,2022-04-24_21h59.30.169,SPAMnetsValid,2021.1.4,Win32,59.81934558,,,,,,,,,,,,,9,1.211,0,91,91,89,1,,,,,,,,,,,,,,,,,,,,,,,,,,,,,,,,,,,,,,,,,,,,,,,,,,,,,,,,,,,,,,,,,,,,,,
,,,,9,3.6325,,,,,,161,kitchen,pretzel,,88752,001,2022-04-24_21h59.30.169,SPAMnetsValid,2021.1.4,Win32,59.81934558,,,,,,,,,,,,,9,3.6325,0,92,92,36,1,,,,,,,,,,,,,,,,,,,,,,,,,,,,,,,,,,,,,,,,,,,,,,,,,,,,,,,,,,,,,,,,,,,,,,
,,,,1,1.5326,,,,,,187,cactus,microwave,,88752,001,2022-04-24_21h59.30.169,SPAMnetsValid,2021.1.4,Win32,59.81934558,,,,,,,,,,,,,1,1.5326,0,93,93,71,1,,,,,,,,,,,,,,,,,,,,,,,,,,,,,,,,,,,,,,,,,,,,,,,,,,,,,,,,,,,,,,,,,,,,,,
,,,,9,1.4136,,,,,,160,cookie,kitchen,,88752,001,2022-04-24_21h59.30.169,SPAMnetsValid,2021.1.4,Win32,59.81934558,,,,,,,,,,,,,9,1.4136,0,94,94,65,1,,,,,,,,,,,,,,,,,,,,,,,,,,,,,,,,,,,,,,,,,,,,,,,,,,,,,,,,,,,,,,,,,,,,,,
,,,,1,2.9341,,,,,,145,cactus,yogurt,,88752,001,2022-04-24_21h59.30.169,SPAMnetsValid,2021.1.4,Win32,59.81934558,,,,,,,,,,,,,1,2.9341,0,95,95,15,1,,,,,,,,,,,,,,,,,,,,,,,,,,,,,,,,,,,,,,,,,,,,,,,,,,,,,,,,,,,,,,,,,,,,,,
,,,,9,3.56,,,,,,118,chocolate,oven,,88752,001,2022-04-24_21h59.30.169,SPAMnetsValid,2021.1.4,Win32,59.81934558,,,,,,,,,,,,,9,3.56,0,96,96,10,1,,,,,,,,,,,,,,,,,,,,,,,,,,,,,,,,,,,,,,,,,,,,,,,,,,,,,,,,,,,,,,,,,,,,,,
,,,,,,,,,,,,,,,88752,001,2022-04-24_21h59.30.169,SPAMnetsValid,2021.1.4,Win32,59.81934558,,,,,,,,,,,,,,,,,,,,0,0,0,0,1,,,,,,,,,,,,,,,,,,,,,,,,,,,,,,,,,,,,,,,,,,,,,,,,,,,,,,,,,,,,,,,,,
,,,,,,,,,,,,,,,88752,001,2022-04-24_21h59.30.169,SPAMnetsValid,2021.1.4,Win32,59.81934558,,,,,,0,1,1,1,1,0,1,,,,,,,,,,,,,,,,,,,,,,,,,,,,,,,,,,,,,,,,,,,,,,,,,,,,,,,,,,,,,,,,,,,,,,,,,,,,,
,,,,,,,,,,,,,,,88752,001,2022-04-24_21h59.30.169,SPAMnetsValid,2021.1.4,Win32,59.81934558,,,,,,,,,,,,,,,,,,,,,,,,,4,4.9835,0,0,0,0,1,rancor,forbearance,ridicule,malice,bravery,3,,,,,,,,,,,,,,,,,,,,,,,,,,,,,,,,,,,,,,,,,,,,,,,,,,,,
,,,,,,,,,,,,,,,88752,001,2022-04-24_21h59.30.169,SPAMnetsValid,2021.1.4,Win32,59.81934558,,,,,,,,,,,,,,,,,,,,,,,,,3,3.6681,0,1,1,1,1,raucous,empty,quiet,smooth,harsh,4,,,,,,,,,,,,,,,,,,,,,,,,,,,,,,,,,,,,,,,,,,,,,,,,,,,,
,,,,,,,,,,,,,,,88752,001,2022-04-24_21h59.30.169,SPAMnetsValid,2021.1.4,Win32,59.81934558,,,,,,,,,,,,,,,,,,,,,,,,,3,5.7978,0,2,2,2,1,gargoyle,oil,medicine,carved waterspout,ugly building,3,,,,,,,,,,,,,,,,,,,,,,,,,,,,,,,,,,,,,,,,,,,,,,,,,,,,
,,,,,,,,,,,,,,,88752,001,2022-04-24_21h59.30.169,SPAMnetsValid,2021.1.4,Win32,59.81934558,,,,,,,,,,,,,,,,,,,,,,,,,3,5.7287,0,3,3,3,1,recrudesce,purify,renew activity,lack refinement,crush,2,,,,,,,,,,,,,,,,,,,,,,,,,,,,,,,,,,,,,,,,,,,,,,,,,,,,
,,,,,,,,,,,,,,,88752,001,2022-04-24_21h59.30.169,SPAMnetsValid,2021.1.4,Win32,59.81934558,,,,,,,,,,,,,,,,,,,,,,,,,3,4.4471,0,4,4,4,1,specious,"plausible, but not genuine",noteworthy,class or variety,roomy,1,,,,,,,,,,,,,,,,,,,,,,,,,,,,,,,,,,,,,,,,,,,,,,,,,,,,
,,,,,,,,,,,,,,,88752,001,2022-04-24_21h59.30.169,SPAMnetsValid,2021.1.4,Win32,59.81934558,,,,,,,,,,,,,,,,,,,,,,,,,2,1.6321,0,5,5,5,1,bauble,bubble,showy plaything,idle talk,confusion,2,,,,,,,,,,,,,,,,,,,,,,,,,,,,,,,,,,,,,,,,,,,,,,,,,,,,
,,,,,,,,,,,,,,,88752,001,2022-04-24_21h59.30.169,SPAMnetsValid,2021.1.4,Win32,59.81934558,,,,,,,,,,,,,,,,,,,,,,,,,4,3.6347,0,6,6,6,1,prolific,scarce,producing abundantly,reckless,speaking profanely,2,,,,,,,,,,,,,,,,,,,,,,,,,,,,,,,,,,,,,,,,,,,,,,,,,,,,
,,,,,,,,,,,,,,,88752,001,2022-04-24_21h59.30.169,SPAMnetsValid,2021.1.4,Win32,59.81934558,,,,,,,,,,,,,,,,,,,,,,,,,3,4.7468,0,7,7,7,1,opulent,party,wealthy,happy frame of mind,semiprecious stone,2,,,,,,,,,,,,,,,,,,,,,,,,,,,,,,,,,,,,,,,,,,,,,,,,,,,,
,,,,,,,,,,,,,,,88752,001,2022-04-24_21h59.30.169,SPAMnetsValid,2021.1.4,Win32,59.81934558,,,,,,,,,,,,,,,,,,,,,,,,,2,7.0381,0,8,8,8,1,coercion,conspiracy,strategy,restraint,attraction,3,,,,,,,,,,,,,,,,,,,,,,,,,,,,,,,,,,,,,,,,,,,,,,,,,,,,
,,,,,,,,,,,,,,,88752,001,2022-04-24_21h59.30.169,SPAMnetsValid,2021.1.4,Win32,59.81934558,,,,,,,,,,,,,,,,,,,,,,,,,3,3.0805,0,9,9,9,1,hiatus,animal,calamity,dread,gap,4,,,,,,,,,,,,,,,,,,,,,,,,,,,,,,,,,,,,,,,,,,,,,,,,,,,,
,,,,,,,,,,,,,,,88752,001,2022-04-24_21h59.30.169,SPAMnetsValid,2021.1.4,Win32,59.81934558,,,,,,,,,,,,,,,,,,,,,,,,,2,2.4499,0,10,10,10,1,germane,microbe,contagious,relevant,different,3,,,,,,,,,,,,,,,,,,,,,,,,,,,,,,,,,,,,,,,,,,,,,,,,,,,,
,,,,,,,,,,,,,,,88752,001,2022-04-24_21h59.30.169,SPAMnetsValid,2021.1.4,Win32,59.81934558,,,,,,,,,,,,,,,,,,,,,,,,,1,4.5281,0,11,11,11,1,perfunctory,fundamental,formal,superficial,careful,3,,,,,,,,,,,,,,,,,,,,,,,,,,,,,,,,,,,,,,,,,,,,,,,,,,,,
,,,,,,,,,,,,,,,88752,001,2022-04-24_21h59.30.169,SPAMnetsValid,2021.1.4,Win32,59.81934558,,,,,,,,,,,,,,,,,,,,,,,,,4,3.022,0,12,12,12,1,diverge,reveal,chant,distract the attention of,differ or turn off from,4,,,,,,,,,,,,,,,,,,,,,,,,,,,,,,,,,,,,,,,,,,,,,,,,,,,,
,,,,,,,,,,,,,,,88752,001,2022-04-24_21h59.30.169,SPAMnetsValid,2021.1.4,Win32,59.81934558,,,,,,,,,,,,,,,,,,,,,,,,,2,2.1827,0,13,13,13,1,evoke,take away,anger,connect,bring out,4,,,,,,,,,,,,,,,,,,,,,,,,,,,,,,,,,,,,,,,,,,,,,,,,,,,,
,,,,,,,,,,,,,,,88752,001,2022-04-24_21h59.30.169,SPAMnetsValid,2021.1.4,Win32,59.81934558,,,,,,,,,,,,,,,,,,,,,,,,,1,6.0117,0,14,14,14,1,pertinent,relevant,lying next to,necessary,bold,1,,,,,,,,,,,,,,,,,,,,,,,,,,,,,,,,,,,,,,,,,,,,,,,,,,,,
,,,,,,,,,,,,,,,88752,001,2022-04-24_21h59.30.169,SPAMnetsValid,2021.1.4,Win32,59.81934558,,,,,,,,,,,,,,,,,,,,,,,,,2,3.0345,0,15,15,15,1,holocaust,entirety,destruction,saintly,price,2,,,,,,,,,,,,,,,,,,,,,,,,,,,,,,,,,,,,,,,,,,,,,,,,,,,,
,,,,,,,,,,,,,,,88752,001,2022-04-24_21h59.30.169,SPAMnetsValid,2021.1.4,Win32,59.81934558,,,,,,,,,,,,,,,,,,,,,,,,,3,2.5111,0,16,16,16,1,piquant,mellow,fish,pungent,cloth,3,,,,,,,,,,,,,,,,,,,,,,,,,,,,,,,,,,,,,,,,,,,,,,,,,,,,
,,,,,,,,,,,,,,,88752,001,2022-04-24_21h59.30.169,SPAMnetsValid,2021.1.4,Win32,59.81934558,,,,,,,,,,,,,,,,,,,,,,,,,4,5.7433,0,17,17,17,1,firmament,foundation,heavens,strong,glue,2,,,,,,,,,,,,,,,,,,,,,,,,,,,,,,,,,,,,,,,,,,,,,,,,,,,,
,,,,,,,,,,,,,,,88752,001,2022-04-24_21h59.30.169,SPAMnetsValid,2021.1.4,Win32,59.81934558,,,,,,,,,,,,,,,,,,,,,,,,,,,,,,,,,,,,,,4,7.2285,0,0,0,0,1,marketable,partisan,jocular,marriageable,salable,essential,4,,,,,,,,,,,,,,,,,,,,,,,,,,,,,,,,,,,,,,
,,,,,,,,,,,,,,,88752,001,2022-04-24_21h59.30.169,SPAMnetsValid,2021.1.4,Win32,59.81934558,,,,,,,,,,,,,,,,,,,,,,,,,,,,,,,,,,,,,,5,2.7999,0,1,1,1,1,cottontail,squirrel,poplar,boa,marshy plant,rabbit,5,,,,,,,,,,,,,,,,,,,,,,,,,,,,,,,,,,,,,,
,,,,,,,,,,,,,,,88752,001,2022-04-24_21h59.30.169,SPAMnetsValid,2021.1.4,Win32,59.81934558,,,,,,,,,,,,,,,,,,,,,,,,,,,,,,,,,,,,,,4,4.227,0,2,2,2,1,boggy,afraid,false,marshy,dense,black,3,,,,,,,,,,,,,,,,,,,,,,,,,,,,,,,,,,,,,,
,,,,,,,,,,,,,,,88752,001,2022-04-24_21h59.30.169,SPAMnetsValid,2021.1.4,Win32,59.81934558,,,,,,,,,,,,,,,,,,,,,,,,,,,,,,,,,,,,,,3,7.0564,0,3,3,3,1,gruesomeness,blackness,falseness,vindictiveness,drunkenness,ghastliness,5,,,,,,,,,,,,,,,,,,,,,,,,,,,,,,,,,,,,,,
,,,,,,,,,,,,,,,88752,001,2022-04-24_21h59.30.169,SPAMnetsValid,2021.1.4,Win32,59.81934558,,,,,,,,,,,,,,,,,,,,,,,,,,,,,,,,,,,,,,3,4.1439,0,4,4,4,1,loathing,diffidence,laziness,abhorrence,cleverness,comfort,3,,,,,,,,,,,,,,,,,,,,,,,,,,,,,,,,,,,,,,
,,,,,,,,,,,,,,,88752,001,2022-04-24_21h59.30.169,SPAMnetsValid,2021.1.4,Win32,59.81934558,,,,,,,,,,,,,,,,,,,,,,,,,,,,,,,,,,,,,,3,3.8103,0,5,5,5,1,bantam,fowl,ridicule,cripple,vegetable,ensign,1,,,,,,,,,,,,,,,,,,,,,,,,,,,,,,,,,,,,,,
,,,,,,,,,,,,,,,88752,001,2022-04-24_21h59.30.169,SPAMnetsValid,2021.1.4,Win32,59.81934558,,,,,,,,,,,,,,,,,,,,,,,,,,,,,,,,,,,,,,2,3.9811,0,6,6,6,1,evoke,wake up,surrender,reconnoiter,transcend,call forth,5,,,,,,,,,,,,,,,,,,,,,,,,,,,,,,,,,,,,,,
,,,,,,,,,,,,,,,88752,001,2022-04-24_21h59.30.169,SPAMnetsValid,2021.1.4,Win32,59.81934558,,,,,,,,,,,,,,,,,,,,,,,,,,,,,,,,,,,,,,2,7.1403,0,7,7,7,1,unobtrusive,unintelligent,epileptic,illogical,lineal,modest,5,,,,,,,,,,,,,,,,,,,,,,,,,,,,,,,,,,,,,,
,,,,,,,,,,,,,,,88752,001,2022-04-24_21h59.30.169,SPAMnetsValid,2021.1.4,Win32,59.81934558,,,,,,,,,,,,,,,,,,,,,,,,,,,,,,,,,,,,,,4,3.6657,0,8,8,8,1,terrain,ice cream,final test,tractor,area of ground,weight,4,,,,,,,,,,,,,,,,,,,,,,,,,,,,,,,,,,,,,,
,,,,,,,,,,,,,,,88752,001,2022-04-24_21h59.30.169,SPAMnetsValid,2021.1.4,Win32,59.81934558,,,,,,,,,,,,,,,,,,,,,,,,,,,,,,,,,,,,,,4,6.7269,0,9,9,9,1,capriciousness,stubbornness,courage,whimsicality,amazement,greediness,3,,,,,,,,,,,,,,,,,,,,,,,,,,,,,,,,,,,,,,
,,,,,,,,,,,,,,,88752,001,2022-04-24_21h59.30.169,SPAMnetsValid,2021.1.4,Win32,59.81934558,,,,,,,,,,,,,,,,,,,,,,,,,,,,,,,,,,,,,,4,6.2118,0,10,10,10,1,maelstrom,slander,whirlpool,enmity,armor,majolica,2,,,,,,,,,,,,,,,,,,,,,,,,,,,,,,,,,,,,,,
,,,,,,,,,,,,,,,88752,001,2022-04-24_21h59.30.169,SPAMnetsValid,2021.1.4,Win32,59.81934558,,,,,,,,,,,,,,,,,,,,,,,,,,,,,,,,,,,,,,5,8.1475,0,11,11,11,1,tentative,critical,conclusive,authentic,provisional,apprehensive,4,,,,,,,,,,,,,,,,,,,,,,,,,,,,,,,,,,,,,,
,,,,,,,,,,,,,,,88752,001,2022-04-24_21h59.30.169,SPAMnetsValid,2021.1.4,Win32,59.81934558,,,,,,,,,,,,,,,,,,,,,,,,,,,,,,,,,,,,,,2,2.9808,0,12,12,12,1,placate,rehabilitate,plagiarize,depredate,apprise,conciliate,5,,,,,,,,,,,,,,,,,,,,,,,,,,,,,,,,,,,,,,
,,,,,,,,,,,,,,,88752,001,2022-04-24_21h59.30.169,SPAMnetsValid,2021.1.4,Win32,59.81934558,,,,,,,,,,,,,,,,,,,,,,,,,,,,,,,,,,,,,,4,2.5644,0,13,13,13,1,surcease,enlightenment,cessation,inattention,censor,substitution,2,,,,,,,,,,,,,,,,,,,,,,,,,,,,,,,,,,,,,,
,,,,,,,,,,,,,,,88752,001,2022-04-24_21h59.30.169,SPAMnetsValid,2021.1.4,Win32,59.81934558,,,,,,,,,,,,,,,,,,,,,,,,,,,,,,,,,,,,,,3,1.1307,0,14,14,14,1,apathetic,wandering,impassive,hateful,prophetic,overflowing,2,,,,,,,,,,,,,,,,,,,,,,,,,,,,,,,,,,,,,,
,,,,,,,,,,,,,,,88752,001,2022-04-24_21h59.30.169,SPAMnetsValid,2021.1.4,Win32,59.81934558,,,,,,,,,,,,,,,,,,,,,,,,,,,,,,,,,,,,,,5,4.1805,0,15,15,15,1,paternoster,paternalism,patricide,malediction,benediction,prayer,5,,,,,,,,,,,,,,,,,,,,,,,,,,,,,,,,,,,,,,
,,,,,,,,,,,,,,,88752,001,2022-04-24_21h59.30.169,SPAMnetsValid,2021.1.4,Win32,59.81934558,,,,,,,,,,,,,,,,,,,,,,,,,,,,,,,,,,,,,,1,3.4134,0,16,16,16,1,opalescence,opulence,senescence,bankruptcy,iridescence,assiduity,4,,,,,,,,,,,,,,,,,,,,,,,,,,,,,,,,,,,,,,
,,,,,,,,,,,,,,,88752,001,2022-04-24_21h59.30.169,SPAMnetsValid,2021.1.4,Win32,59.81934558,,,,,,,,,,,,,,,,,,,,,,,,,,,,,,,,,,,,,,2,2.3312,0,17,17,17,1,lush,stupid,luxurious,hazy,putrid,languishing,2,,,,,,,,,,,,,,,,,,,,,,,,,,,,,,,,,,,,,,
,,,,,,,,,,,,,,,88752,001,2022-04-24_21h59.30.169,SPAMnetsValid,2021.1.4,Win32,59.81934558,,,,,,,,,,,,,,,,,,,,,,,,,,,,,,,,,,,,,,2,4.127,0,18,18,18,1,curtailment,expenditure,abandonment,abridgment,improvement,forgery,3,,,,,,,,,,,,,,,,,,,,,,,,,,,,,,,,,,,,,,
,,,,,,,,,,,,,,,88752,001,2022-04-24_21h59.30.169,SPAMnetsValid,2021.1.4,Win32,59.81934558,,,,,,,,,,,,,,,,,,,,,,,,,,,,,,,,,,,,,,3,4.5436,0,19,19,19,1,perversity,adversity,perviousness,travesty,waywardness,gentility,4,,,,,,,,,,,,,,,,,,,,,,,,,,,,,,,,,,,,,,
,,,,,,,,,,,,,,,88752,001,2022-04-24_21h59.30.169,SPAMnetsValid,2021.1.4,Win32,59.81934558,,,,,,,,,,,,,,,,,,,,,,,,,,,,,,,,,,,,,,5,1.7484,0,20,20,20,1,calumnious,complimentary,analogous,slanderous,tempestuous,magnanimous,3,,,,,,,,,,,,,,,,,,,,,,,,,,,,,,,,,,,,,,
,,,,,,,,,,,,,,,88752,001,2022-04-24_21h59.30.169,SPAMnetsValid,2021.1.4,Win32,59.81934558,,,,,,,,,,,,,,,,,,,,,,,,,,,,,,,,,,,,,,5,3.931,0,21,21,21,1,illiberality,bigotry,imbecility,illegibility,cautery,immaturity,1,,,,,,,,,,,,,,,,,,,,,,,,,,,,,,,,,,,,,,
,,,,,,,,,,,,,,,88752,001,2022-04-24_21h59.30.169,SPAMnetsValid,2021.1.4,Win32,59.81934558,,,,,,,,,,,,,,,,,,,,,,,,,,,,,,,,,,,,,,2,5.5622,0,22,22,22,1,clabber,rejoice,gossip,curdle,crow,hobble,3,,,,,,,,,,,,,,,,,,,,,,,,,,,,,,,,,,,,,,
,,,,,,,,,,,,,,,88752,001,2022-04-24_21h59.30.169,SPAMnetsValid,2021.1.4,Win32,59.81934558,,,,,,,,,,,,,,,,,,,,,,,,,,,,,,,,,,,,,,4,3.4146,0,23,23,23,1,sedulousness,diligence,credulousness,seduction,perilousness,frankness,1,,,,,,,,,,,,,,,,,,,,,,,,,,,,,,,,,,,,,,
,,,,,,,,,,,,,,,88752,001,2022-04-24_21h59.30.169,SPAMnetsValid,2021.1.4,Win32,59.81934558,,,,,,,,,,,,,,,,,,,,,,,,,,,,,,,,,,,,,,,,,,,,,,,,,,,,soft,pillow,0,0,0,0,1,,,,,,,,,,,,,,,,,,,,,,,,,,,,,,,
,,,,,,,,,,,,,,,88752,001,2022-04-24_21h59.30.169,SPAMnetsValid,2021.1.4,Win32,59.81934558,,,,,,,,,,,,,,,,,,,,,,,,,,,,,,,,,,,,,,,,,,,,,,,,,,,,bed,pillow,1,0,1,0,1,,,,,,,,,,,,,,,,,,,,,,,,,,,,,,,
,,,,,,,,,,,,,,,88752,001,2022-04-24_21h59.30.169,SPAMnetsValid,2021.1.4,Win32,59.81934558,,,,,,,,,,,,,,,,,,,,,,,,,,,,,,,,,,,,,,,,,,,,,,,,,,,,fluffy,pillow,2,0,2,0,1,,,,,,,,,,,,,,,,,,,,,,,,,,,,,,,
,,,,,,,,,,,,,,,88752,001,2022-04-24_21h59.30.169,SPAMnetsValid,2021.1.4,Win32,59.81934558,,,,,,,,,,,,,,,,,,,,,,,,,,,,,,,,,,,,,,,,,,,,,,,,,,,,plop,pillow,3,0,3,0,1,,,,,,,,,,,,,,,,,,,,,,,,,,,,,,,
,,,,,,,,,,,,,,,88752,001,2022-04-24_21h59.30.169,SPAMnetsValid,2021.1.4,Win32,59.81934558,,,,,,,,,,,,,,,,,,,,,,,,,,,,,,,,,,,,,,,,,,,,,,,,,,,,floof,pillow,4,0,4,0,1,,,,,,,,,,,,,,,,,,,,,,,,,,,,,,,
,,,,,,,,,,,,,,,88752,001,2022-04-24_21h59.30.169,SPAMnetsValid,2021.1.4,Win32,59.81934558,,,,,,,,,,,,,,,,,,,,,,,,,,,,,,,,,,,,,,,,,,,,,,,,,,,,sleeper,pillow,5,0,5,0,1,,,,,,,,,,,,,,,,,,,,,,,,,,,,,,,
,,,,,,,,,,,,,,,88752,001,2022-04-24_21h59.30.169,SPAMnetsValid,2021.1.4,Win32,59.81934558,,,,,,,,,,,,,,,,,,,,,,,,,,,,,,,,,,,,,,,,,,,,,,,,,,,,bed mellow,pillow,6,0,6,0,1,,,,,,,,,,,,,,,,,,,,,,,,,,,,,,,
,,,,,,,,,,,,,,,88752,001,2022-04-24_21h59.30.169,SPAMnetsValid,2021.1.4,Win32,59.81934558,,,,,,,,,,,,,,,,,,,,,,,,,,,,,,,,,,,,,,,,,,,,,,,,,,,,plop,pillow,7,0,7,0,1,,,,,,,,,,,,,,,,,,,,,,,,,,,,,,,
,,,,,,,,,,,,,,,88752,001,2022-04-24_21h59.30.169,SPAMnetsValid,2021.1.4,Win32,59.81934558,,,,,,,,,,,,,,,,,,,,,,,,,,,,,,,,,,,,,,,,,,,,,,,,,,,,bed fluff,pillow,8,0,8,0,1,,,,,,,,,,,,,,,,,,,,,,,,,,,,,,,
,,,,,,,,,,,,,,,88752,001,2022-04-24_21h59.30.169,SPAMnetsValid,2021.1.4,Win32,59.81934558,,,,,,,,,,,,,,,,,,,,,,,,,,,,,,,,,,,,,,,,,,,,,,,,,,,,bed leaves,pillow,9,0,9,0,1,,,,,,,,,,,,,,,,,,,,,,,,,,,,,,,
,,,,,,,,,,,,,,,88752,001,2022-04-24_21h59.30.169,SPAMnetsValid,2021.1.4,Win32,59.81934558,,,,,,,,,,,,,,,,,,,,,,,,,,,,,,,,,,,,,,,,,,,,,,,,,,,,,,,,,,,0,0,0,2,1,pillow,,,,,,,,,,,,,,,,,,,,,,,,,
,,,,,,,,,,,,,,,88752,001,2022-04-24_21h59.30.169,SPAMnetsValid,2021.1.4,Win32,59.81934558,,,,,,,,,,,,,,,,,,,,,,,,,,,,,,,,,,,,,,,,,,,,,,,,,,,,light,candle,0,0,0,0,1,,,,,,,,,,,,,,,,,,,,,,,,,,,,,,,
,,,,,,,,,,,,,,,88752,001,2022-04-24_21h59.30.169,SPAMnetsValid,2021.1.4,Win32,59.81934558,,,,,,,,,,,,,,,,,,,,,,,,,,,,,,,,,,,,,,,,,,,,,,,,,,,,night light,candle,1,0,1,0,1,,,,,,,,,,,,,,,,,,,,,,,,,,,,,,,
,,,,,,,,,,,,,,,88752,001,2022-04-24_21h59.30.169,SPAMnetsValid,2021.1.4,Win32,59.81934558,,,,,,,,,,,,,,,,,,,,,,,,,,,,,,,,,,,,,,,,,,,,,,,,,,,,bed lamp,candle,2,0,2,0,1,,,,,,,,,,,,,,,,,,,,,,,,,,,,,,,
,,,,,,,,,,,,,,,88752,001,2022-04-24_21h59.30.169,SPAMnetsValid,2021.1.4,Win32,59.81934558,,,,,,,,,,,,,,,,,,,,,,,,,,,,,,,,,,,,,,,,,,,,,,,,,,,,match,candle,3,0,3,0,1,,,,,,,,,,,,,,,,,,,,,,,,,,,,,,,
,,,,,,,,,,,,,,,88752,001,2022-04-24_21h59.30.169,SPAMnetsValid,2021.1.4,Win32,59.81934558,,,,,,,,,,,,,,,,,,,,,,,,,,,,,,,,,,,,,,,,,,,,,,,,,,,,cent,candle,4,0,4,0,1,,,,,,,,,,,,,,,,,,,,,,,,,,,,,,,
,,,,,,,,,,,,,,,88752,001,2022-04-24_21h59.30.169,SPAMnetsValid,2021.1.4,Win32,59.81934558,,,,,,,,,,,,,,,,,,,,,,,,,,,,,,,,,,,,,,,,,,,,,,,,,,,,scent,candle,5,0,5,0,1,,,,,,,,,,,,,,,,,,,,,,,,,,,,,,,
,,,,,,,,,,,,,,,88752,001,2022-04-24_21h59.30.169,SPAMnetsValid,2021.1.4,Win32,59.81934558,,,,,,,,,,,,,,,,,,,,,,,,,,,,,,,,,,,,,,,,,,,,,,,,,,,,weapon,candle,6,0,6,0,1,,,,,,,,,,,,,,,,,,,,,,,,,,,,,,,
,,,,,,,,,,,,,,,88752,001,2022-04-24_21h59.30.169,SPAMnetsValid,2021.1.4,Win32,59.81934558,,,,,,,,,,,,,,,,,,,,,,,,,,,,,,,,,,,,,,,,,,,,,,,,,,,,,,,,,,,0,1,1,1,1,candle,,,,,,,,,,,,,,,,,,,,,,,,,
,,,,,,,,,,,,,,,88752,001,2022-04-24_21h59.30.169,SPAMnetsValid,2021.1.4,Win32,59.81934558,,,,,,,,,,,,,,,,,,,,,,,,,,,,,,,,,,,,,,,,,,,,,,,,,,,,garbgage,bucket,0,0,0,0,1,,,,,,,,,,,,,,,,,,,,,,,,,,,,,,,
,,,,,,,,,,,,,,,88752,001,2022-04-24_21h59.30.169,SPAMnetsValid,2021.1.4,Win32,59.81934558,,,,,,,,,,,,,,,,,,,,,,,,,,,,,,,,,,,,,,,,,,,,,,,,,,,,hat,bucket,1,0,1,0,1,,,,,,,,,,,,,,,,,,,,,,,,,,,,,,,
,,,,,,,,,,,,,,,88752,001,2022-04-24_21h59.30.169,SPAMnetsValid,2021.1.4,Win32,59.81934558,,,,,,,,,,,,,,,,,,,,,,,,,,,,,,,,,,,,,,,,,,,,,,,,,,,,stool,bucket,2,0,2,0,1,,,,,,,,,,,,,,,,,,,,,,,,,,,,,,,
,,,,,,,,,,,,,,,88752,001,2022-04-24_21h59.30.169,SPAMnetsValid,2021.1.4,Win32,59.81934558,,,,,,,,,,,,,,,,,,,,,,,,,,,,,,,,,,,,,,,,,,,,,,,,,,,,helmet,bucket,3,0,3,0,1,,,,,,,,,,,,,,,,,,,,,,,,,,,,,,,
,,,,,,,,,,,,,,,88752,001,2022-04-24_21h59.30.169,SPAMnetsValid,2021.1.4,Win32,59.81934558,,,,,,,,,,,,,,,,,,,,,,,,,,,,,,,,,,,,,,,,,,,,,,,,,,,,weapon,bucket,4,0,4,0,1,,,,,,,,,,,,,,,,,,,,,,,,,,,,,,,
,,,,,,,,,,,,,,,88752,001,2022-04-24_21h59.30.169,SPAMnetsValid,2021.1.4,Win32,59.81934558,,,,,,,,,,,,,,,,,,,,,,,,,,,,,,,,,,,,,,,,,,,,,,,,,,,,chair,bucket,5,0,5,0,1,,,,,,,,,,,,,,,,,,,,,,,,,,,,,,,
,,,,,,,,,,,,,,,88752,001,2022-04-24_21h59.30.169,SPAMnetsValid,2021.1.4,Win32,59.81934558,,,,,,,,,,,,,,,,,,,,,,,,,,,,,,,,,,,,,,,,,,,,,,,,,,,,bug catcher,bucket,6,0,6,0,1,,,,,,,,,,,,,,,,,,,,,,,,,,,,,,,
,,,,,,,,,,,,,,,88752,001,2022-04-24_21h59.30.169,SPAMnetsValid,2021.1.4,Win32,59.81934558,,,,,,,,,,,,,,,,,,,,,,,,,,,,,,,,,,,,,,,,,,,,,,,,,,,,creature catcher,bucket,7,0,7,0,1,,,,,,,,,,,,,,,,,,,,,,,,,,,,,,,
,,,,,,,,,,,,,,,88752,001,2022-04-24_21h59.30.169,SPAMnetsValid,2021.1.4,Win32,59.81934558,,,,,,,,,,,,,,,,,,,,,,,,,,,,,,,,,,,,,,,,,,,,,,,,,,,,catcher,bucket,8,0,8,0,1,,,,,,,,,,,,,,,,,,,,,,,,,,,,,,,
,,,,,,,,,,,,,,,88752,001,2022-04-24_21h59.30.169,SPAMnetsValid,2021.1.4,Win32,59.81934558,,,,,,,,,,,,,,,,,,,,,,,,,,,,,,,,,,,,,,,,,,,,,,,,,,,,target,bucket,9,0,9,0,1,,,,,,,,,,,,,,,,,,,,,,,,,,,,,,,
,,,,,,,,,,,,,,,88752,001,2022-04-24_21h59.30.169,SPAMnetsValid,2021.1.4,Win32,59.81934558,,,,,,,,,,,,,,,,,,,,,,,,,,,,,,,,,,,,,,,,,,,,,,,,,,,,,,,,,,,0,2,2,0,1,bucket,,,,,,,,,,,,,,,,,,,,,,,,,
,,,,,,,,,,,,,,,88752,001,2022-04-24_21h59.30.169,SPAMnetsValid,2021.1.4,Win32,59.81934558,,,,,,,,,,,,,,,,,,,,,,,,,,,,,,,,,,,,,,,,,,,,,,,,,,,,,,,,,,,,,,,,,dogs,Animals,0,0,0,0,1,,,,,,,,,,,,,,,,,,
,,,,,,,,,,,,,,,88752,001,2022-04-24_21h59.30.169,SPAMnetsValid,2021.1.4,Win32,59.81934558,,,,,,,,,,,,,,,,,,,,,,,,,,,,,,,,,,,,,,,,,,,,,,,,,,,,,,,,,,,,,,,,,cats,Animals,1,0,1,0,1,,,,,,,,,,,,,,,,,,
,,,,,,,,,,,,,,,88752,001,2022-04-24_21h59.30.169,SPAMnetsValid,2021.1.4,Win32,59.81934558,,,,,,,,,,,,,,,,,,,,,,,,,,,,,,,,,,,,,,,,,,,,,,,,,,,,,,,,,,,,,,,,,fox,Animals,2,0,2,0,1,,,,,,,,,,,,,,,,,,
,,,,,,,,,,,,,,,88752,001,2022-04-24_21h59.30.169,SPAMnetsValid,2021.1.4,Win32,59.81934558,,,,,,,,,,,,,,,,,,,,,,,,,,,,,,,,,,,,,,,,,,,,,,,,,,,,,,,,,,,,,,,,,sheep,Animals,3,0,3,0,1,,,,,,,,,,,,,,,,,,
,,,,,,,,,,,,,,,88752,001,2022-04-24_21h59.30.169,SPAMnetsValid,2021.1.4,Win32,59.81934558,,,,,,,,,,,,,,,,,,,,,,,,,,,,,,,,,,,,,,,,,,,,,,,,,,,,,,,,,,,,,,,,,cow,Animals,4,0,4,0,1,,,,,,,,,,,,,,,,,,
,,,,,,,,,,,,,,,88752,001,2022-04-24_21h59.30.169,SPAMnetsValid,2021.1.4,Win32,59.81934558,,,,,,,,,,,,,,,,,,,,,,,,,,,,,,,,,,,,,,,,,,,,,,,,,,,,,,,,,,,,,,,,,snake,Animals,5,0,5,0,1,,,,,,,,,,,,,,,,,,
,,,,,,,,,,,,,,,88752,001,2022-04-24_21h59.30.169,SPAMnetsValid,2021.1.4,Win32,59.81934558,,,,,,,,,,,,,,,,,,,,,,,,,,,,,,,,,,,,,,,,,,,,,,,,,,,,,,,,,,,,,,,,,lion,Animals,6,0,6,0,1,,,,,,,,,,,,,,,,,,
,,,,,,,,,,,,,,,88752,001,2022-04-24_21h59.30.169,SPAMnetsValid,2021.1.4,Win32,59.81934558,,,,,,,,,,,,,,,,,,,,,,,,,,,,,,,,,,,,,,,,,,,,,,,,,,,,,,,,,,,,,,,,,tiger,Animals,7,0,7,0,1,,,,,,,,,,,,,,,,,,
,,,,,,,,,,,,,,,88752,001,2022-04-24_21h59.30.169,SPAMnetsValid,2021.1.4,Win32,59.81934558,,,,,,,,,,,,,,,,,,,,,,,,,,,,,,,,,,,,,,,,,,,,,,,,,,,,,,,,,,,,,,,,,bear,Animals,8,0,8,0,1,,,,,,,,,,,,,,,,,,
,,,,,,,,,,,,,,,88752,001,2022-04-24_21h59.30.169,SPAMnetsValid,2021.1.4,Win32,59.81934558,,,,,,,,,,,,,,,,,,,,,,,,,,,,,,,,,,,,,,,,,,,,,,,,,,,,,,,,,,,,,,,,,seal,Animals,9,0,9,0,1,,,,,,,,,,,,,,,,,,
,,,,,,,,,,,,,,,88752,001,2022-04-24_21h59.30.169,SPAMnetsValid,2021.1.4,Win32,59.81934558,,,,,,,,,,,,,,,,,,,,,,,,,,,,,,,,,,,,,,,,,,,,,,,,,,,,,,,,,,,,,,,,,shark,Animals,10,0,10,0,1,,,,,,,,,,,,,,,,,,
,,,,,,,,,,,,,,,88752,001,2022-04-24_21h59.30.169,SPAMnetsValid,2021.1.4,Win32,59.81934558,,,,,,,,,,,,,,,,,,,,,,,,,,,,,,,,,,,,,,,,,,,,,,,,,,,,,,,,,,,,,,,,,rabbit,Animals,11,0,11,0,1,,,,,,,,,,,,,,,,,,
,,,,,,,,,,,,,,,88752,001,2022-04-24_21h59.30.169,SPAMnetsValid,2021.1.4,Win32,59.81934558,,,,,,,,,,,,,,,,,,,,,,,,,,,,,,,,,,,,,,,,,,,,,,,,,,,,,,,,,,,,,,,,,kangaroo,Animals,12,0,12,0,1,,,,,,,,,,,,,,,,,,
,,,,,,,,,,,,,,,88752,001,2022-04-24_21h59.30.169,SPAMnetsValid,2021.1.4,Win32,59.81934558,,,,,,,,,,,,,,,,,,,,,,,,,,,,,,,,,,,,,,,,,,,,,,,,,,,,,,,,,,,,,,,,,giaraffe,Animals,13,0,13,0,1,,,,,,,,,,,,,,,,,,
,,,,,,,,,,,,,,,88752,001,2022-04-24_21h59.30.169,SPAMnetsValid,2021.1.4,Win32,59.81934558,,,,,,,,,,,,,,,,,,,,,,,,,,,,,,,,,,,,,,,,,,,,,,,,,,,,,,,,,,,,,,,,,rhino,Animals,14,0,14,0,1,,,,,,,,,,,,,,,,,,
,,,,,,,,,,,,,,,88752,001,2022-04-24_21h59.30.169,SPAMnetsValid,2021.1.4,Win32,59.81934558,,,,,,,,,,,,,,,,,,,,,,,,,,,,,,,,,,,,,,,,,,,,,,,,,,,,,,,,,,,,,,,,,rat,Animals,15,0,15,0,1,,,,,,,,,,,,,,,,,,
,,,,,,,,,,,,,,,88752,001,2022-04-24_21h59.30.169,SPAMnetsValid,2021.1.4,Win32,59.81934558,,,,,,,,,,,,,,,,,,,,,,,,,,,,,,,,,,,,,,,,,,,,,,,,,,,,,,,,,,,,,,,,,gorilla,Animals,16,0,16,0,1,,,,,,,,,,,,,,,,,,
,,,,,,,,,,,,,,,88752,001,2022-04-24_21h59.30.169,SPAMnetsValid,2021.1.4,Win32,59.81934558,,,,,,,,,,,,,,,,,,,,,,,,,,,,,,,,,,,,,,,,,,,,,,,,,,,,,,,,,,,,,,,,,seagull,Animals,17,0,17,0,1,,,,,,,,,,,,,,,,,,
,,,,,,,,,,,,,,,88752,001,2022-04-24_21h59.30.169,SPAMnetsValid,2021.1.4,Win32,59.81934558,,,,,,,,,,,,,,,,,,,,,,,,,,,,,,,,,,,,,,,,,,,,,,,,,,,,,,,,,,,,,,,,,monkey,Animals,18,0,18,0,1,,,,,,,,,,,,,,,,,,
,,,,,,,,,,,,,,,88752,001,2022-04-24_21h59.30.169,SPAMnetsValid,2021.1.4,Win32,59.81934558,,,,,,,,,,,,,,,,,,,,,,,,,,,,,,,,,,,,,,,,,,,,,,,,,,,,,,,,,,,,,,,,,chimpanzee,Animals,19,0,19,0,1,,,,,,,,,,,,,,,,,,
,,,,,,,,,,,,,,,88752,001,2022-04-24_21h59.30.169,SPAMnetsValid,2021.1.4,Win32,59.81934558,,,,,,,,,,,,,,,,,,,,,,,,,,,,,,,,,,,,,,,,,,,,,,,,,,,,,,,,,,,,,,,,,turtle,Animals,20,0,20,0,1,,,,,,,,,,,,,,,,,,
,,,,,,,,,,,,,,,88752,001,2022-04-24_21h59.30.169,SPAMnetsValid,2021.1.4,Win32,59.81934558,,,,,,,,,,,,,,,,,,,,,,,,,,,,,,,,,,,,,,,,,,,,,,,,,,,,,,,,,,,,,,,,,seahorse,Animals,21,0,21,0,1,,,,,,,,,,,,,,,,,,
,,,,,,,,,,,,,,,88752,001,2022-04-24_21h59.30.169,SPAMnetsValid,2021.1.4,Win32,59.81934558,,,,,,,,,,,,,,,,,,,,,,,,,,,,,,,,,,,,,,,,,,,,,,,,,,,,,,,,,,,,,,,,,,,,,,,,0,0,0,0,1,Animals,,,,,,,,,,,,
,,,,,,,,,,,,,,,88752,001,2022-04-24_21h59.30.169,SPAMnetsValid,2021.1.4,Win32,59.81934558,,,,,,,,,,,,,,,,,,,,,,,,,,,,,,,,,,,,,,,,,,,,,,,,,,,,,,,,,,,,,,,,,,,,,,,,,,,,,,5,5.8114,0,0,0,0,1,"I enjoy concentrating on a fantasy or daydream and exploring all its possibilities, letting it grow and develop.",0,1,,
,,,,,,,,,,,,,,,88752,001,2022-04-24_21h59.30.169,SPAMnetsValid,2021.1.4,Win32,59.81934558,,,,,,,,,,,,,,,,,,,,,,,,,,,,,,,,,,,,,,,,,,,,,,,,,,,,,,,,,,,,,,,,,,,,,,,,,,,,,,5,2.3151,0,1,1,1,1,I think it's interesting to learn and develop new hobbies.,0,2,,
,,,,,,,,,,,,,,,88752,001,2022-04-24_21h59.30.169,SPAMnetsValid,2021.1.4,Win32,59.81934558,,,,,,,,,,,,,,,,,,,,,,,,,,,,,,,,,,,,,,,,,,,,,,,,,,,,,,,,,,,,,,,,,,,,,,,,,,,,,,4,5.6275,0,2,2,2,1,I am intrigued by the patterns I find in art and nature.,0,3,,
,,,,,,,,,,,,,,,88752,001,2022-04-24_21h59.30.169,SPAMnetsValid,2021.1.4,Win32,59.81934558,,,,,,,,,,,,,,,,,,,,,,,,,,,,,,,,,,,,,,,,,,,,,,,,,,,,,,,,,,,,,,,,,,,,,,,,,,,,,,3,5.4753,0,3,3,3,1,I believe letting students hear controversial speakers can only confuse and mislead them.,1,4,,
,,,,,,,,,,,,,,,88752,001,2022-04-24_21h59.30.169,SPAMnetsValid,2021.1.4,Win32,59.81934558,,,,,,,,,,,,,,,,,,,,,,,,,,,,,,,,,,,,,,,,,,,,,,,,,,,,,,,,,,,,,,,,,,,,,,,,,,,,,,5,3.5452,0,4,4,4,1,Poetry has little or no effect on me.,1,5,,
,,,,,,,,,,,,,,,88752,001,2022-04-24_21h59.30.169,SPAMnetsValid,2021.1.4,Win32,59.81934558,,,,,,,,,,,,,,,,,,,,,,,,,,,,,,,,,,,,,,,,,,,,,,,,,,,,,,,,,,,,,,,,,,,,,,,,,,,,,,2,8.1719,0,5,5,5,1,I would have difficulty just letting my mind wander without control or guidance.,1,6,,
,,,,,,,,,,,,,,,88752,001,2022-04-24_21h59.30.169,SPAMnetsValid,2021.1.4,Win32,59.81934558,,,,,,,,,,,,,,,,,,,,,,,,,,,,,,,,,,,,,,,,,,,,,,,,,,,,,,,,,,,,,,,,,,,,,,,,,,,,,,4,7.5578,0,6,6,6,1,I seldom notice the moods or feelings that different environments produce.,1,7,,
,,,,,,,,,,,,,,,88752,001,2022-04-24_21h59.30.169,SPAMnetsValid,2021.1.4,Win32,59.81934558,,,,,,,,,,,,,,,,,,,,,,,,,,,,,,,,,,,,,,,,,,,,,,,,,,,,,,,,,,,,,,,,,,,,,,,,,,,,,,4,4.3811,0,7,7,7,1,I experience a wide range of emotions or feelings.,0,8,,
,,,,,,,,,,,,,,,88752,001,2022-04-24_21h59.30.169,SPAMnetsValid,2021.1.4,Win32,59.81934558,,,,,,,,,,,,,,,,,,,,,,,,,,,,,,,,,,,,,,,,,,,,,,,,,,,,,,,,,,,,,,,,,,,,,,,,,,,,,,1,5.1133,0,8,8,8,1,"Sometimes when I am reading poetry or looking at a work of art, I feel a chill or wave of excitement.",0,9,,
,,,,,,,,,,,,,,,88752,001,2022-04-24_21h59.30.169,SPAMnetsValid,2021.1.4,Win32,59.81934558,,,,,,,,,,,,,,,,,,,,,,,,,,,,,,,,,,,,,,,,,,,,,,,,,,,,,,,,,,,,,,,,,,,,,,,,,,,,,,3,10.3844,0,9,9,9,1,I have little interest in speculating on the nature of the universe or the human condition.,1,10,,
,,,,,,,,,,,,,,,88752,001,2022-04-24_21h59.30.169,SPAMnetsValid,2021.1.4,Win32,59.81934558,,,,,,,,,,,,,,,,,,,,,,,,,,,,,,,,,,,,,,,,,,,,,,,,,,,,,,,,,,,,,,,,,,,,,,,,,,,,,,2,2.9497,0,10,10,10,1,I have a lot of intellectual curiosity.,0,11,,
,,,,,,,,,,,,,,,88752,001,2022-04-24_21h59.30.169,SPAMnetsValid,2021.1.4,Win32,59.81934558,,,,,,,,,,,,,,,,,,,,,,,,,,,,,,,,,,,,,,,,,,,,,,,,,,,,,,,,,,,,,,,,,,,,,,,,,,,,,,1,8.184,0,11,11,11,1,I often enjoy playing with theories or abstract ideas.,0,12,,
,,,,,,,,,,,,,,,88752,001,2022-04-24_21h59.30.169,SPAMnetsValid,2021.1.4,Win32,59.81934558,,,,,,,,,,,,,,,,,,,,,,,,,,,,,,,,,,,,,,,,,,,,,,,,,,,,,,,,,,,,,,,,,,,,,,,,,,,,,,,,,,,,,,,,return,17.809
