key_resp_3.keys,key_resp_3.rt,slider_2.response,slider_2.rt,rjt_rating,rjt_RT,trials_24.thisRepN,trials_24.thisTrialN,trials_24.thisN,trials_24.thisIndex,trials_24.ran,rjt_order,word1,word2,attention,participant,session,date,expName,psychopyVersion,OS,frameRate,trials_4.thisRepN,trials_4.thisTrialN,trials_4.thisN,trials_4.thisIndex,trials_4.ran,trials_5.thisRepN,trials_5.thisTrialN,trials_5.thisN,trials_5.thisIndex,trials_5.ran,repOne,repTwo,slider.response,slider.rt,trials_22.thisRepN,trials_22.thisTrialN,trials_22.thisN,trials_22.thisIndex,trials_22.ran,trials_99.thisRepN,trials_99.thisTrialN,trials_99.thisN,trials_99.thisIndex,trials_99.ran,slider_extend_2.response,slider_extend_2.rt,trials_6.thisRepN,trials_6.thisTrialN,trials_6.thisN,trials_6.thisIndex,trials_6.ran,vCue2,R1,R2,R3,R4,correct,sliderVocab.response,sliderVocab.rt,trials_7.thisRepN,trials_7.thisTrialN,trials_7.thisN,trials_7.thisIndex,trials_7.ran,VocabCue,VR1,VR2,VR3,VR4,VR5,VocabCorrect,AUT_resp,AUT_label,trials.thisRepN,trials.thisTrialN,trials.thisN,trials.thisIndex,trials.ran,trials_2.thisRepN,trials_2.thisTrialN,trials_2.thisN,trials_2.thisIndex,trials_2.ran,aut_prompt,VF_response,VF_tag,trials_16.thisRepN,trials_16.thisTrialN,trials_16.thisN,trials_16.thisIndex,trials_16.ran,trials_17.thisRepN,trials_17.thisTrialN,trials_17.thisN,trials_17.thisIndex,trials_17.ran,VFcond,open_slider.response,open_slider.rt,trials_3.thisRepN,trials_3.thisTrialN,trials_3.thisN,trials_3.thisIndex,trials_3.ran,OpenQ,Rev,OPEN_ORDER,key_resp_2.keys,key_resp_2.rt
return,13.1,7,5.045,7,5.045,0,0,0,51,1,168,cactus,flower,,88809,001,2022-04-26_21h35.44.000,SPAMnetsValid,2021.1.4,MacIntel,29.41176471,,,,,,,,,,,,,,,,,,,,,,,,,,,,,,,,,,,,,,,,,,,,,,,,,,,,,,,,,,,,,,,,,,,,,,,,,,,,,,,,,,,,,,,,,
,,2,1.824,2,1.824,0,1,1,64,1,157,refrigerator,rose,,88809,001,2022-04-26_21h35.44.000,SPAMnetsValid,2021.1.4,MacIntel,29.41176471,,,,,,,,,,,,,,,,,,,,,,,,,,,,,,,,,,,,,,,,,,,,,,,,,,,,,,,,,,,,,,,,,,,,,,,,,,,,,,,,,,,,,,,,,
,,8,1.657,8,1.657,0,2,2,72,1,181,carrot,kitchen,,88809,001,2022-04-26_21h35.44.000,SPAMnetsValid,2021.1.4,MacIntel,29.41176471,,,,,,,,,,,,,,,,,,,,,,,,,,,,,,,,,,,,,,,,,,,,,,,,,,,,,,,,,,,,,,,,,,,,,,,,,,,,,,,,,,,,,,,,,
,,9,1.939,9,1.939,0,3,3,6,1,151,microwave,onion,,88809,001,2022-04-26_21h35.44.000,SPAMnetsValid,2021.1.4,MacIntel,29.41176471,,,,,,,,,,,,,,,,,,,,,,,,,,,,,,,,,,,,,,,,,,,,,,,,,,,,,,,,,,,,,,,,,,,,,,,,,,,,,,,,,,,,,,,,,
,,6,3.73,6,3.73,0,4,4,30,1,125,carrot,tree,,88809,001,2022-04-26_21h35.44.000,SPAMnetsValid,2021.1.4,MacIntel,29.41176471,,,,,,,,,,,,,,,,,,,,,,,,,,,,,,,,,,,,,,,,,,,,,,,,,,,,,,,,,,,,,,,,,,,,,,,,,,,,,,,,,,,,,,,,,
,,8,1.737,8,1.737,0,5,5,17,1,99,garden,melon,,88809,001,2022-04-26_21h35.44.000,SPAMnetsValid,2021.1.4,MacIntel,29.41176471,,,,,,,,,,,,,,,,,,,,,,,,,,,,,,,,,,,,,,,,,,,,,,,,,,,,,,,,,,,,,,,,,,,,,,,,,,,,,,,,,,,,,,,,,
,,2,1.468,2,1.468,0,6,6,24,1,169,onion,yogurt,,88809,001,2022-04-26_21h35.44.000,SPAMnetsValid,2021.1.4,MacIntel,29.41176471,,,,,,,,,,,,,,,,,,,,,,,,,,,,,,,,,,,,,,,,,,,,,,,,,,,,,,,,,,,,,,,,,,,,,,,,,,,,,,,,,,,,,,,,,
,,4,2.006,4,2.006,0,7,7,91,1,166,cake,yogurt,,88809,001,2022-04-26_21h35.44.000,SPAMnetsValid,2021.1.4,MacIntel,29.41176471,,,,,,,,,,,,,,,,,,,,,,,,,,,,,,,,,,,,,,,,,,,,,,,,,,,,,,,,,,,,,,,,,,,,,,,,,,,,,,,,,,,,,,,,,
,,9,1.633,9,1.633,0,8,8,60,1,122,flower,garden,,88809,001,2022-04-26_21h35.44.000,SPAMnetsValid,2021.1.4,MacIntel,29.41176471,,,,,,,,,,,,,,,,,,,,,,,,,,,,,,,,,,,,,,,,,,,,,,,,,,,,,,,,,,,,,,,,,,,,,,,,,,,,,,,,,,,,,,,,,
,,8,1.281,8,1.281,0,9,9,8,1,97,chocolate,kitchen,,88809,001,2022-04-26_21h35.44.000,SPAMnetsValid,2021.1.4,MacIntel,29.41176471,,,,,,,,,,,,,,,,,,,,,,,,,,,,,,,,,,,,,,,,,,,,,,,,,,,,,,,,,,,,,,,,,,,,,,,,,,,,,,,,,,,,,,,,,
,,8,1.178,8,1.178,0,10,10,11,1,117,melon,strawberry,,88809,001,2022-04-26_21h35.44.000,SPAMnetsValid,2021.1.4,MacIntel,29.41176471,,,,,,,,,,,,,,,,,,,,,,,,,,,,,,,,,,,,,,,,,,,,,,,,,,,,,,,,,,,,,,,,,,,,,,,,,,,,,,,,,,,,,,,,,
,,6,1.462,6,1.462,0,11,11,16,1,111,carrot,microwave,,88809,001,2022-04-26_21h35.44.000,SPAMnetsValid,2021.1.4,MacIntel,29.41176471,,,,,,,,,,,,,,,,,,,,,,,,,,,,,,,,,,,,,,,,,,,,,,,,,,,,,,,,,,,,,,,,,,,,,,,,,,,,,,,,,,,,,,,,,
,,7,2.038,7,2.038,0,12,12,85,1,115,refrigerator,tomato,,88809,001,2022-04-26_21h35.44.000,SPAMnetsValid,2021.1.4,MacIntel,29.41176471,,,,,,,,,,,,,,,,,,,,,,,,,,,,,,,,,,,,,,,,,,,,,,,,,,,,,,,,,,,,,,,,,,,,,,,,,,,,,,,,,,,,,,,,,
,,9,1.607,9,1.607,0,13,13,65,1,160,cookie,kitchen,,88809,001,2022-04-26_21h35.44.000,SPAMnetsValid,2021.1.4,MacIntel,29.41176471,,,,,,,,,,,,,,,,,,,,,,,,,,,,,,,,,,,,,,,,,,,,,,,,,,,,,,,,,,,,,,,,,,,,,,,,,,,,,,,,,,,,,,,,,
,,3,1.436,3,1.436,0,14,14,62,1,189,onion,tree,,88809,001,2022-04-26_21h35.44.000,SPAMnetsValid,2021.1.4,MacIntel,29.41176471,,,,,,,,,,,,,,,,,,,,,,,,,,,,,,,,,,,,,,,,,,,,,,,,,,,,,,,,,,,,,,,,,,,,,,,,,,,,,,,,,,,,,,,,,
,,6,6.715,6,6.715,0,15,15,84,1,130,microwave,yogurt,,88809,001,2022-04-26_21h35.44.000,SPAMnetsValid,2021.1.4,MacIntel,29.41176471,,,,,,,,,,,,,,,,,,,,,,,,,,,,,,,,,,,,,,,,,,,,,,,,,,,,,,,,,,,,,,,,,,,,,,,,,,,,,,,,,,,,,,,,,
,,3,2.004,3,2.004,0,16,16,4,1,109,broom,strawberry,,88809,001,2022-04-26_21h35.44.000,SPAMnetsValid,2021.1.4,MacIntel,29.41176471,,,,,,,,,,,,,,,,,,,,,,,,,,,,,,,,,,,,,,,,,,,,,,,,,,,,,,,,,,,,,,,,,,,,,,,,,,,,,,,,,,,,,,,,,
,,3,1.581,3,1.581,0,17,17,41,1,175,melon,onion,,88809,001,2022-04-26_21h35.44.000,SPAMnetsValid,2021.1.4,MacIntel,29.41176471,,,,,,,,,,,,,,,,,,,,,,,,,,,,,,,,,,,,,,,,,,,,,,,,,,,,,,,,,,,,,,,,,,,,,,,,,,,,,,,,,,,,,,,,,
,,9,1.9,9,1.9,0,18,18,66,1,150,microwave,refrigerator,,88809,001,2022-04-26_21h35.44.000,SPAMnetsValid,2021.1.4,MacIntel,29.41176471,,,,,,,,,,,,,,,,,,,,,,,,,,,,,,,,,,,,,,,,,,,,,,,,,,,,,,,,,,,,,,,,,,,,,,,,,,,,,,,,,,,,,,,,,
,,8,1.456,8,1.456,0,19,19,93,1,134,carrot,flower,,88809,001,2022-04-26_21h35.44.000,SPAMnetsValid,2021.1.4,MacIntel,29.41176471,,,,,,,,,,,,,,,,,,,,,,,,,,,,,,,,,,,,,,,,,,,,,,,,,,,,,,,,,,,,,,,,,,,,,,,,,,,,,,,,,,,,,,,,,
,,8,1.104,8,1.104,0,20,20,29,1,163,melon,refrigerator,,88809,001,2022-04-26_21h35.44.000,SPAMnetsValid,2021.1.4,MacIntel,29.41176471,,,,,,,,,,,,,,,,,,,,,,,,,,,,,,,,,,,,,,,,,,,,,,,,,,,,,,,,,,,,,,,,,,,,,,,,,,,,,,,,,,,,,,,,,
,,8,1.225,8,1.225,0,21,21,70,1,141,melon,tomato,,88809,001,2022-04-26_21h35.44.000,SPAMnetsValid,2021.1.4,MacIntel,29.41176471,,,,,,,,,,,,,,,,,,,,,,,,,,,,,,,,,,,,,,,,,,,,,,,,,,,,,,,,,,,,,,,,,,,,,,,,,,,,,,,,,,,,,,,,,
,,8,1.177,8,1.177,0,22,22,53,1,177,chocolate,strawberry,,88809,001,2022-04-26_21h35.44.000,SPAMnetsValid,2021.1.4,MacIntel,29.41176471,,,,,,,,,,,,,,,,,,,,,,,,,,,,,,,,,,,,,,,,,,,,,,,,,,,,,,,,,,,,,,,,,,,,,,,,,,,,,,,,,,,,,,,,,
,,8,1.09,8,1.09,0,23,23,0,1,106,cake,strawberry,,88809,001,2022-04-26_21h35.44.000,SPAMnetsValid,2021.1.4,MacIntel,29.41176471,,,,,,,,,,,,,,,,,,,,,,,,,,,,,,,,,,,,,,,,,,,,,,,,,,,,,,,,,,,,,,,,,,,,,,,,,,,,,,,,,,,,,,,,,
,,8,1.528,8,1.528,0,24,24,52,1,110,chocolate,cookie,,88809,001,2022-04-26_21h35.44.000,SPAMnetsValid,2021.1.4,MacIntel,29.41176471,,,,,,,,,,,,,,,,,,,,,,,,,,,,,,,,,,,,,,,,,,,,,,,,,,,,,,,,,,,,,,,,,,,,,,,,,,,,,,,,,,,,,,,,,
,,8,2.819,8,2.819,0,25,25,1,1,173,kitchen,tomato,,88809,001,2022-04-26_21h35.44.000,SPAMnetsValid,2021.1.4,MacIntel,29.41176471,,,,,,,,,,,,,,,,,,,,,,,,,,,,,,,,,,,,,,,,,,,,,,,,,,,,,,,,,,,,,,,,,,,,,,,,,,,,,,,,,,,,,,,,,
,,2,3.064,2,3.064,0,26,26,13,1,105,cactus,oven,,88809,001,2022-04-26_21h35.44.000,SPAMnetsValid,2021.1.4,MacIntel,29.41176471,,,,,,,,,,,,,,,,,,,,,,,,,,,,,,,,,,,,,,,,,,,,,,,,,,,,,,,,,,,,,,,,,,,,,,,,,,,,,,,,,,,,,,,,,
,,1,2.802,1,2.802,0,27,27,78,1,132,broom,tree,,88809,001,2022-04-26_21h35.44.000,SPAMnetsValid,2021.1.4,MacIntel,29.41176471,,,,,,,,,,,,,,,,,,,,,,,,,,,,,,,,,,,,,,,,,,,,,,,,,,,,,,,,,,,,,,,,,,,,,,,,,,,,,,,,,,,,,,,,,
,,8,6.009,8,6.009,0,28,28,43,1,185,cactus,rose,,88809,001,2022-04-26_21h35.44.000,SPAMnetsValid,2021.1.4,MacIntel,29.41176471,,,,,,,,,,,,,,,,,,,,,,,,,,,,,,,,,,,,,,,,,,,,,,,,,,,,,,,,,,,,,,,,,,,,,,,,,,,,,,,,,,,,,,,,,
,,3,1.308,3,1.308,0,29,29,20,1,149,broom,tomato,,88809,001,2022-04-26_21h35.44.000,SPAMnetsValid,2021.1.4,MacIntel,29.41176471,,,,,,,,,,,,,,,,,,,,,,,,,,,,,,,,,,,,,,,,,,,,,,,,,,,,,,,,,,,,,,,,,,,,,,,,,,,,,,,,,,,,,,,,,
,,9,1.519,9,1.519,0,30,30,36,1,161,kitchen,pretzel,,88809,001,2022-04-26_21h35.44.000,SPAMnetsValid,2021.1.4,MacIntel,29.41176471,,,,,,,,,,,,,,,,,,,,,,,,,,,,,,,,,,,,,,,,,,,,,,,,,,,,,,,,,,,,,,,,,,,,,,,,,,,,,,,,,,,,,,,,,
,,8,1.292,8,1.292,0,31,31,56,1,113,refrigerator,strawberry,,88809,001,2022-04-26_21h35.44.000,SPAMnetsValid,2021.1.4,MacIntel,29.41176471,,,,,,,,,,,,,,,,,,,,,,,,,,,,,,,,,,,,,,,,,,,,,,,,,,,,,,,,,,,,,,,,,,,,,,,,,,,,,,,,,,,,,,,,,
,,1,1.824,1,1.824,0,32,32,68,1,180,tree,yogurt,,88809,001,2022-04-26_21h35.44.000,SPAMnetsValid,2021.1.4,MacIntel,29.41176471,,,,,,,,,,,,,,,,,,,,,,,,,,,,,,,,,,,,,,,,,,,,,,,,,,,,,,,,,,,,,,,,,,,,,,,,,,,,,,,,,,,,,,,,,
,,7,1.614,7,1.614,0,33,33,2,1,174,cake,pretzel,,88809,001,2022-04-26_21h35.44.000,SPAMnetsValid,2021.1.4,MacIntel,29.41176471,,,,,,,,,,,,,,,,,,,,,,,,,,,,,,,,,,,,,,,,,,,,,,,,,,,,,,,,,,,,,,,,,,,,,,,,,,,,,,,,,,,,,,,,,
,,8,1.638,8,1.638,0,34,34,23,1,148,flower,melon,,88809,001,2022-04-26_21h35.44.000,SPAMnetsValid,2021.1.4,MacIntel,29.41176471,,,,,,,,,,,,,,,,,,,,,,,,,,,,,,,,,,,,,,,,,,,,,,,,,,,,,,,,,,,,,,,,,,,,,,,,,,,,,,,,,,,,,,,,,
,,1,2.008,1,2.008,0,35,35,57,1,127,cactus,chocolate,,88809,001,2022-04-26_21h35.44.000,SPAMnetsValid,2021.1.4,MacIntel,29.41176471,,,,,,,,,,,,,,,,,,,,,,,,,,,,,,,,,,,,,,,,,,,,,,,,,,,,,,,,,,,,,,,,,,,,,,,,,,,,,,,,,,,,,,,,,
,,7,1.799,7,1.799,0,36,36,32,1,182,flower,refrigerator,,88809,001,2022-04-26_21h35.44.000,SPAMnetsValid,2021.1.4,MacIntel,29.41176471,,,,,,,,,,,,,,,,,,,,,,,,,,,,,,,,,,,,,,,,,,,,,,,,,,,,,,,,,,,,,,,,,,,,,,,,,,,,,,,,,,,,,,,,,
,,3,2.738,3,2.738,0,37,37,46,1,123,cookie,tree,,88809,001,2022-04-26_21h35.44.000,SPAMnetsValid,2021.1.4,MacIntel,29.41176471,,,,,,,,,,,,,,,,,,,,,,,,,,,,,,,,,,,,,,,,,,,,,,,,,,,,,,,,,,,,,,,,,,,,,,,,,,,,,,,,,,,,,,,,,
,,8,2.875,8,2.875,0,38,38,28,1,154,strawberry,yogurt,,88809,001,2022-04-26_21h35.44.000,SPAMnetsValid,2021.1.4,MacIntel,29.41176471,,,,,,,,,,,,,,,,,,,,,,,,,,,,,,,,,,,,,,,,,,,,,,,,,,,,,,,,,,,,,,,,,,,,,,,,,,,,,,,,,,,,,,,,,
,,6,2.508,6,2.508,0,39,39,19,1,183,cake,rose,,88809,001,2022-04-26_21h35.44.000,SPAMnetsValid,2021.1.4,MacIntel,29.41176471,,,,,,,,,,,,,,,,,,,,,,,,,,,,,,,,,,,,,,,,,,,,,,,,,,,,,,,,,,,,,,,,,,,,,,,,,,,,,,,,,,,,,,,,,
,,2,2.842,2,2.842,0,40,40,63,1,137,microwave,tree,,88809,001,2022-04-26_21h35.44.000,SPAMnetsValid,2021.1.4,MacIntel,29.41176471,,,,,,,,,,,,,,,,,,,,,,,,,,,,,,,,,,,,,,,,,,,,,,,,,,,,,,,,,,,,,,,,,,,,,,,,,,,,,,,,,,,,,,,,,
,,6,2.047,6,2.047,0,41,41,79,1,103,pretzel,tomato,,88809,001,2022-04-26_21h35.44.000,SPAMnetsValid,2021.1.4,MacIntel,29.41176471,,,,,,,,,,,,,,,,,,,,,,,,,,,,,,,,,,,,,,,,,,,,,,,,,,,,,,,,,,,,,,,,,,,,,,,,,,,,,,,,,,,,,,,,,
,,3,2.008,3,2.008,0,42,42,42,1,184,oven,pretzel,,88809,001,2022-04-26_21h35.44.000,SPAMnetsValid,2021.1.4,MacIntel,29.41176471,,,,,,,,,,,,,,,,,,,,,,,,,,,,,,,,,,,,,,,,,,,,,,,,,,,,,,,,,,,,,,,,,,,,,,,,,,,,,,,,,,,,,,,,,
,,3,2.092,3,2.092,0,43,43,82,1,98,pretzel,strawberry,,88809,001,2022-04-26_21h35.44.000,SPAMnetsValid,2021.1.4,MacIntel,29.41176471,,,,,,,,,,,,,,,,,,,,,,,,,,,,,,,,,,,,,,,,,,,,,,,,,,,,,,,,,,,,,,,,,,,,,,,,,,,,,,,,,,,,,,,,,
,,9,2.287,9,2.287,0,44,44,83,1,100,garden,tomato,,88809,001,2022-04-26_21h35.44.000,SPAMnetsValid,2021.1.4,MacIntel,29.41176471,,,,,,,,,,,,,,,,,,,,,,,,,,,,,,,,,,,,,,,,,,,,,,,,,,,,,,,,,,,,,,,,,,,,,,,,,,,,,,,,,,,,,,,,,
,,6,2.087,6,2.087,0,45,45,5,1,108,carrot,chocolate,,88809,001,2022-04-26_21h35.44.000,SPAMnetsValid,2021.1.4,MacIntel,29.41176471,,,,,,,,,,,,,,,,,,,,,,,,,,,,,,,,,,,,,,,,,,,,,,,,,,,,,,,,,,,,,,,,,,,,,,,,,,,,,,,,,,,,,,,,,
,,9,1.34,9,1.34,0,46,46,33,1,131,cactus,garden,,88809,001,2022-04-26_21h35.44.000,SPAMnetsValid,2021.1.4,MacIntel,29.41176471,,,,,,,,,,,,,,,,,,,,,,,,,,,,,,,,,,,,,,,,,,,,,,,,,,,,,,,,,,,,,,,,,,,,,,,,,,,,,,,,,,,,,,,,,
,,6,3.854,6,3.854,0,47,47,96,1,136,chocolate,microwave,,88809,001,2022-04-26_21h35.44.000,SPAMnetsValid,2021.1.4,MacIntel,29.41176471,,,,,,,,,,,,,,,,,,,,,,,,,,,,,,,,,,,,,,,,,,,,,,,,,,,,,,,,,,,,,,,,,,,,,,,,,,,,,,,,,,,,,,,,,
,,3,1.488,3,1.488,0,48,48,95,1,121,broom,microwave,,88809,001,2022-04-26_21h35.44.000,SPAMnetsValid,2021.1.4,MacIntel,29.41176471,,,,,,,,,,,,,,,,,,,,,,,,,,,,,,,,,,,,,,,,,,,,,,,,,,,,,,,,,,,,,,,,,,,,,,,,,,,,,,,,,,,,,,,,,
,,8,1.675,8,1.675,0,49,49,92,1,170,cookie,microwave,,88809,001,2022-04-26_21h35.44.000,SPAMnetsValid,2021.1.4,MacIntel,29.41176471,,,,,,,,,,,,,,,,,,,,,,,,,,,,,,,,,,,,,,,,,,,,,,,,,,,,,,,,,,,,,,,,,,,,,,,,,,,,,,,,,,,,,,,,,
,,2,1.582,2,1.582,0,50,50,55,1,143,pretzel,rose,,88809,001,2022-04-26_21h35.44.000,SPAMnetsValid,2021.1.4,MacIntel,29.41176471,,,,,,,,,,,,,,,,,,,,,,,,,,,,,,,,,,,,,,,,,,,,,,,,,,,,,,,,,,,,,,,,,,,,,,,,,,,,,,,,,,,,,,,,,
,,6,1.964,6,1.964,0,51,51,67,1,96,oven,strawberry,,88809,001,2022-04-26_21h35.44.000,SPAMnetsValid,2021.1.4,MacIntel,29.41176471,,,,,,,,,,,,,,,,,,,,,,,,,,,,,,,,,,,,,,,,,,,,,,,,,,,,,,,,,,,,,,,,,,,,,,,,,,,,,,,,,,,,,,,,,
,,8,1.414,8,1.414,0,52,52,26,1,107,rose,tomato,,88809,001,2022-04-26_21h35.44.000,SPAMnetsValid,2021.1.4,MacIntel,29.41176471,,,,,,,,,,,,,,,,,,,,,,,,,,,,,,,,,,,,,,,,,,,,,,,,,,,,,,,,,,,,,,,,,,,,,,,,,,,,,,,,,,,,,,,,,
,,7,1.769,7,1.769,0,53,53,87,1,114,cookie,strawberry,,88809,001,2022-04-26_21h35.44.000,SPAMnetsValid,2021.1.4,MacIntel,29.41176471,,,,,,,,,,,,,,,,,,,,,,,,,,,,,,,,,,,,,,,,,,,,,,,,,,,,,,,,,,,,,,,,,,,,,,,,,,,,,,,,,,,,,,,,,
,,9,1.747,9,1.747,0,54,54,27,1,158,cookie,oven,,88809,001,2022-04-26_21h35.44.000,SPAMnetsValid,2021.1.4,MacIntel,29.41176471,,,,,,,,,,,,,,,,,,,,,,,,,,,,,,,,,,,,,,,,,,,,,,,,,,,,,,,,,,,,,,,,,,,,,,,,,,,,,,,,,,,,,,,,,
,,9,1.478,9,1.478,0,55,55,61,1,138,flower,rose,,88809,001,2022-04-26_21h35.44.000,SPAMnetsValid,2021.1.4,MacIntel,29.41176471,,,,,,,,,,,,,,,,,,,,,,,,,,,,,,,,,,,,,,,,,,,,,,,,,,,,,,,,,,,,,,,,,,,,,,,,,,,,,,,,,,,,,,,,,
,,9,4.841,9,4.841,0,56,56,44,1,116,cake,chocolate,,88809,001,2022-04-26_21h35.44.000,SPAMnetsValid,2021.1.4,MacIntel,29.41176471,,,,,,,,,,,,,,,,,,,,,,,,,,,,,,,,,,,,,,,,,,,,,,,,,,,,,,,,,,,,,,,,,,,,,,,,,,,,,,,,,,,,,,,,,
,,3,2.596,3,2.596,0,57,57,59,1,164,cookie,garden,,88809,001,2022-04-26_21h35.44.000,SPAMnetsValid,2021.1.4,MacIntel,29.41176471,,,,,,,,,,,,,,,,,,,,,,,,,,,,,,,,,,,,,,,,,,,,,,,,,,,,,,,,,,,,,,,,,,,,,,,,,,,,,,,,,,,,,,,,,
,,9,1.806,9,1.806,0,58,58,25,1,194,cactus,cactus,CHECK,88809,001,2022-04-26_21h35.44.000,SPAMnetsValid,2021.1.4,MacIntel,29.41176471,,,,,,,,,,,,,,,,,,,,,,,,,,,,,,,,,,,,,,,,,,,,,,,,,,,,,,,,,,,,,,,,,,,,,,,,,,,,,,,,,,,,,,,,,
,,9,7.064,9,7.064,0,59,59,47,1,167,carrot,garden,,88809,001,2022-04-26_21h35.44.000,SPAMnetsValid,2021.1.4,MacIntel,29.41176471,,,,,,,,,,,,,,,,,,,,,,,,,,,,,,,,,,,,,,,,,,,,,,,,,,,,,,,,,,,,,,,,,,,,,,,,,,,,,,,,,,,,,,,,,
,,7,2.294,7,2.294,0,60,60,75,1,178,cactus,carrot,,88809,001,2022-04-26_21h35.44.000,SPAMnetsValid,2021.1.4,MacIntel,29.41176471,,,,,,,,,,,,,,,,,,,,,,,,,,,,,,,,,,,,,,,,,,,,,,,,,,,,,,,,,,,,,,,,,,,,,,,,,,,,,,,,,,,,,,,,,
,,4,2.313,4,2.313,0,61,61,49,1,152,cactus,strawberry,,88809,001,2022-04-26_21h35.44.000,SPAMnetsValid,2021.1.4,MacIntel,29.41176471,,,,,,,,,,,,,,,,,,,,,,,,,,,,,,,,,,,,,,,,,,,,,,,,,,,,,,,,,,,,,,,,,,,,,,,,,,,,,,,,,,,,,,,,,
,,6,2.73,6,2.73,0,62,62,76,1,102,chocolate,refrigerator,,88809,001,2022-04-26_21h35.44.000,SPAMnetsValid,2021.1.4,MacIntel,29.41176471,,,,,,,,,,,,,,,,,,,,,,,,,,,,,,,,,,,,,,,,,,,,,,,,,,,,,,,,,,,,,,,,,,,,,,,,,,,,,,,,,,,,,,,,,
,,2,2.296,2,2.296,0,63,63,54,1,101,cactus,kitchen,,88809,001,2022-04-26_21h35.44.000,SPAMnetsValid,2021.1.4,MacIntel,29.41176471,,,,,,,,,,,,,,,,,,,,,,,,,,,,,,,,,,,,,,,,,,,,,,,,,,,,,,,,,,,,,,,,,,,,,,,,,,,,,,,,,,,,,,,,,
,,2,2.144,2,2.144,0,64,64,40,1,165,onion,rose,,88809,001,2022-04-26_21h35.44.000,SPAMnetsValid,2021.1.4,MacIntel,29.41176471,,,,,,,,,,,,,,,,,,,,,,,,,,,,,,,,,,,,,,,,,,,,,,,,,,,,,,,,,,,,,,,,,,,,,,,,,,,,,,,,,,,,,,,,,
,,2,1.587,2,1.587,0,65,65,45,1,179,broom,oven,,88809,001,2022-04-26_21h35.44.000,SPAMnetsValid,2021.1.4,MacIntel,29.41176471,,,,,,,,,,,,,,,,,,,,,,,,,,,,,,,,,,,,,,,,,,,,,,,,,,,,,,,,,,,,,,,,,,,,,,,,,,,,,,,,,,,,,,,,,
,,2,3.43,2,3.43,0,66,66,73,1,135,carrot,oven,,88809,001,2022-04-26_21h35.44.000,SPAMnetsValid,2021.1.4,MacIntel,29.41176471,,,,,,,,,,,,,,,,,,,,,,,,,,,,,,,,,,,,,,,,,,,,,,,,,,,,,,,,,,,,,,,,,,,,,,,,,,,,,,,,,,,,,,,,,
,,9,1.721,9,1.721,0,67,67,86,1,193,melon,melon,CHECK,88809,001,2022-04-26_21h35.44.000,SPAMnetsValid,2021.1.4,MacIntel,29.41176471,,,,,,,,,,,,,,,,,,,,,,,,,,,,,,,,,,,,,,,,,,,,,,,,,,,,,,,,,,,,,,,,,,,,,,,,,,,,,,,,,,,,,,,,,
,,8,1.479,8,1.479,0,68,68,35,1,147,cake,refrigerator,,88809,001,2022-04-26_21h35.44.000,SPAMnetsValid,2021.1.4,MacIntel,29.41176471,,,,,,,,,,,,,,,,,,,,,,,,,,,,,,,,,,,,,,,,,,,,,,,,,,,,,,,,,,,,,,,,,,,,,,,,,,,,,,,,,,,,,,,,,
,,6,3.332,6,3.332,0,69,69,18,1,119,strawberry,tree,,88809,001,2022-04-26_21h35.44.000,SPAMnetsValid,2021.1.4,MacIntel,29.41176471,,,,,,,,,,,,,,,,,,,,,,,,,,,,,,,,,,,,,,,,,,,,,,,,,,,,,,,,,,,,,,,,,,,,,,,,,,,,,,,,,,,,,,,,,
,,2,1.509,2,1.509,0,70,70,80,1,146,pretzel,tree,,88809,001,2022-04-26_21h35.44.000,SPAMnetsValid,2021.1.4,MacIntel,29.41176471,,,,,,,,,,,,,,,,,,,,,,,,,,,,,,,,,,,,,,,,,,,,,,,,,,,,,,,,,,,,,,,,,,,,,,,,,,,,,,,,,,,,,,,,,
,,8,2.457,8,2.457,0,71,71,22,1,142,garden,tree,,88809,001,2022-04-26_21h35.44.000,SPAMnetsValid,2021.1.4,MacIntel,29.41176471,,,,,,,,,,,,,,,,,,,,,,,,,,,,,,,,,,,,,,,,,,,,,,,,,,,,,,,,,,,,,,,,,,,,,,,,,,,,,,,,,,,,,,,,,
,,3,1.405,3,1.405,0,72,72,71,1,187,cactus,microwave,,88809,001,2022-04-26_21h35.44.000,SPAMnetsValid,2021.1.4,MacIntel,29.41176471,,,,,,,,,,,,,,,,,,,,,,,,,,,,,,,,,,,,,,,,,,,,,,,,,,,,,,,,,,,,,,,,,,,,,,,,,,,,,,,,,,,,,,,,,
,,3,1.373,3,1.373,0,73,73,15,1,145,cactus,yogurt,,88809,001,2022-04-26_21h35.44.000,SPAMnetsValid,2021.1.4,MacIntel,29.41176471,,,,,,,,,,,,,,,,,,,,,,,,,,,,,,,,,,,,,,,,,,,,,,,,,,,,,,,,,,,,,,,,,,,,,,,,,,,,,,,,,,,,,,,,,
,,7,1.662,7,1.662,0,74,74,31,1,156,melon,rose,,88809,001,2022-04-26_21h35.44.000,SPAMnetsValid,2021.1.4,MacIntel,29.41176471,,,,,,,,,,,,,,,,,,,,,,,,,,,,,,,,,,,,,,,,,,,,,,,,,,,,,,,,,,,,,,,,,,,,,,,,,,,,,,,,,,,,,,,,,
,,2,2.194,2,2.194,0,75,75,3,1,129,cactus,refrigerator,,88809,001,2022-04-26_21h35.44.000,SPAMnetsValid,2021.1.4,MacIntel,29.41176471,,,,,,,,,,,,,,,,,,,,,,,,,,,,,,,,,,,,,,,,,,,,,,,,,,,,,,,,,,,,,,,,,,,,,,,,,,,,,,,,,,,,,,,,,
,,8,2.041,8,2.041,0,76,76,39,1,112,cake,carrot,,88809,001,2022-04-26_21h35.44.000,SPAMnetsValid,2021.1.4,MacIntel,29.41176471,,,,,,,,,,,,,,,,,,,,,,,,,,,,,,,,,,,,,,,,,,,,,,,,,,,,,,,,,,,,,,,,,,,,,,,,,,,,,,,,,,,,,,,,,
,,6,3.058,6,3.058,0,77,77,34,1,153,carrot,pretzel,,88809,001,2022-04-26_21h35.44.000,SPAMnetsValid,2021.1.4,MacIntel,29.41176471,,,,,,,,,,,,,,,,,,,,,,,,,,,,,,,,,,,,,,,,,,,,,,,,,,,,,,,,,,,,,,,,,,,,,,,,,,,,,,,,,,,,,,,,,
,,3,5.984,3,5.984,0,78,78,58,1,144,cake,garden,,88809,001,2022-04-26_21h35.44.000,SPAMnetsValid,2021.1.4,MacIntel,29.41176471,,,,,,,,,,,,,,,,,,,,,,,,,,,,,,,,,,,,,,,,,,,,,,,,,,,,,,,,,,,,,,,,,,,,,,,,,,,,,,,,,,,,,,,,,
,,2,1.819,2,1.819,0,79,79,9,1,176,cactus,tomato,,88809,001,2022-04-26_21h35.44.000,SPAMnetsValid,2021.1.4,MacIntel,29.41176471,,,,,,,,,,,,,,,,,,,,,,,,,,,,,,,,,,,,,,,,,,,,,,,,,,,,,,,,,,,,,,,,,,,,,,,,,,,,,,,,,,,,,,,,,
,,2,2.798,2,2.798,0,80,80,50,1,126,kitchen,tree,,88809,001,2022-04-26_21h35.44.000,SPAMnetsValid,2021.1.4,MacIntel,29.41176471,,,,,,,,,,,,,,,,,,,,,,,,,,,,,,,,,,,,,,,,,,,,,,,,,,,,,,,,,,,,,,,,,,,,,,,,,,,,,,,,,,,,,,,,,
,,3,2.853,3,2.853,0,81,81,74,1,128,melon,microwave,,88809,001,2022-04-26_21h35.44.000,SPAMnetsValid,2021.1.4,MacIntel,29.41176471,,,,,,,,,,,,,,,,,,,,,,,,,,,,,,,,,,,,,,,,,,,,,,,,,,,,,,,,,,,,,,,,,,,,,,,,,,,,,,,,,,,,,,,,,
,,8,3.639,8,3.639,0,82,82,14,1,120,microwave,oven,,88809,001,2022-04-26_21h35.44.000,SPAMnetsValid,2021.1.4,MacIntel,29.41176471,,,,,,,,,,,,,,,,,,,,,,,,,,,,,,,,,,,,,,,,,,,,,,,,,,,,,,,,,,,,,,,,,,,,,,,,,,,,,,,,,,,,,,,,,
,,6,4.906,6,4.906,0,83,83,77,1,172,kitchen,melon,,88809,001,2022-04-26_21h35.44.000,SPAMnetsValid,2021.1.4,MacIntel,29.41176471,,,,,,,,,,,,,,,,,,,,,,,,,,,,,,,,,,,,,,,,,,,,,,,,,,,,,,,,,,,,,,,,,,,,,,,,,,,,,,,,,,,,,,,,,
,,7,1.846,7,1.846,0,84,84,7,1,188,flower,tree,,88809,001,2022-04-26_21h35.44.000,SPAMnetsValid,2021.1.4,MacIntel,29.41176471,,,,,,,,,,,,,,,,,,,,,,,,,,,,,,,,,,,,,,,,,,,,,,,,,,,,,,,,,,,,,,,,,,,,,,,,,,,,,,,,,,,,,,,,,
,,7,3.127,7,3.127,0,85,85,48,1,186,kitchen,yogurt,,88809,001,2022-04-26_21h35.44.000,SPAMnetsValid,2021.1.4,MacIntel,29.41176471,,,,,,,,,,,,,,,,,,,,,,,,,,,,,,,,,,,,,,,,,,,,,,,,,,,,,,,,,,,,,,,,,,,,,,,,,,,,,,,,,,,,,,,,,
,,6,3.662,6,3.662,0,86,86,94,1,133,cake,flower,,88809,001,2022-04-26_21h35.44.000,SPAMnetsValid,2021.1.4,MacIntel,29.41176471,,,,,,,,,,,,,,,,,,,,,,,,,,,,,,,,,,,,,,,,,,,,,,,,,,,,,,,,,,,,,,,,,,,,,,,,,,,,,,,,,,,,,,,,,
,,6,1.499,6,1.499,0,87,87,37,1,139,carrot,strawberry,,88809,001,2022-04-26_21h35.44.000,SPAMnetsValid,2021.1.4,MacIntel,29.41176471,,,,,,,,,,,,,,,,,,,,,,,,,,,,,,,,,,,,,,,,,,,,,,,,,,,,,,,,,,,,,,,,,,,,,,,,,,,,,,,,,,,,,,,,,
,,3,2.525,3,2.525,0,88,88,21,1,159,cookie,flower,,88809,001,2022-04-26_21h35.44.000,SPAMnetsValid,2021.1.4,MacIntel,29.41176471,,,,,,,,,,,,,,,,,,,,,,,,,,,,,,,,,,,,,,,,,,,,,,,,,,,,,,,,,,,,,,,,,,,,,,,,,,,,,,,,,,,,,,,,,
,,8,2.401,8,2.401,0,89,89,69,1,124,oven,refrigerator,,88809,001,2022-04-26_21h35.44.000,SPAMnetsValid,2021.1.4,MacIntel,29.41176471,,,,,,,,,,,,,,,,,,,,,,,,,,,,,,,,,,,,,,,,,,,,,,,,,,,,,,,,,,,,,,,,,,,,,,,,,,,,,,,,,,,,,,,,,
,,3,1.95,3,1.95,0,90,90,81,1,104,garden,microwave,,88809,001,2022-04-26_21h35.44.000,SPAMnetsValid,2021.1.4,MacIntel,29.41176471,,,,,,,,,,,,,,,,,,,,,,,,,,,,,,,,,,,,,,,,,,,,,,,,,,,,,,,,,,,,,,,,,,,,,,,,,,,,,,,,,,,,,,,,,
,,3,2.504,3,2.504,0,91,91,90,1,190,microwave,strawberry,,88809,001,2022-04-26_21h35.44.000,SPAMnetsValid,2021.1.4,MacIntel,29.41176471,,,,,,,,,,,,,,,,,,,,,,,,,,,,,,,,,,,,,,,,,,,,,,,,,,,,,,,,,,,,,,,,,,,,,,,,,,,,,,,,,,,,,,,,,
,,3,2.249,3,2.249,0,92,92,12,1,162,microwave,tomato,,88809,001,2022-04-26_21h35.44.000,SPAMnetsValid,2021.1.4,MacIntel,29.41176471,,,,,,,,,,,,,,,,,,,,,,,,,,,,,,,,,,,,,,,,,,,,,,,,,,,,,,,,,,,,,,,,,,,,,,,,,,,,,,,,,,,,,,,,,
,,6,1.793,6,1.793,0,93,93,38,1,155,carrot,cookie,,88809,001,2022-04-26_21h35.44.000,SPAMnetsValid,2021.1.4,MacIntel,29.41176471,,,,,,,,,,,,,,,,,,,,,,,,,,,,,,,,,,,,,,,,,,,,,,,,,,,,,,,,,,,,,,,,,,,,,,,,,,,,,,,,,,,,,,,,,
,,6,2.063,6,2.063,0,94,94,88,1,171,cake,tomato,,88809,001,2022-04-26_21h35.44.000,SPAMnetsValid,2021.1.4,MacIntel,29.41176471,,,,,,,,,,,,,,,,,,,,,,,,,,,,,,,,,,,,,,,,,,,,,,,,,,,,,,,,,,,,,,,,,,,,,,,,,,,,,,,,,,,,,,,,,
,,7,2.624,7,2.624,0,95,95,89,1,140,cookie,refrigerator,,88809,001,2022-04-26_21h35.44.000,SPAMnetsValid,2021.1.4,MacIntel,29.41176471,,,,,,,,,,,,,,,,,,,,,,,,,,,,,,,,,,,,,,,,,,,,,,,,,,,,,,,,,,,,,,,,,,,,,,,,,,,,,,,,,,,,,,,,,
,,6,2.493,6,2.493,0,96,96,10,1,118,chocolate,oven,,88809,001,2022-04-26_21h35.44.000,SPAMnetsValid,2021.1.4,MacIntel,29.41176471,,,,,,,,,,,,,,,,,,,,,,,,,,,,,,,,,,,,,,,,,,,,,,,,,,,,,,,,,,,,,,,,,,,,,,,,,,,,,,,,,,,,,,,,,
,,,,,,,,,,,,,,,88809,001,2022-04-26_21h35.44.000,SPAMnetsValid,2021.1.4,MacIntel,29.41176471,0,0,0,0,1,,,,,,,,,,,,,,,,,,,,,,,,,,,,,,,,,,,,,,,,,,,,,,,,,,,,,,,,,,,,,,,,,,,,,,,,,,,,,,,,,,,,
,,,,,,,,,,,,,,,88809,001,2022-04-26_21h35.44.000,SPAMnetsValid,2021.1.4,MacIntel,29.41176471,,,,,,0,0,0,1,1,0,1,,,,,,,,,,,,,,,,,,,,,,,,,,,,,,,,,,,,,,,,,,,,,,,,,,,,,,,,,,,,,,,,,,,,,,,,,,,,,
,,,,3,5.631,,,,,,19,microwave,pretzel,,88809,001,2022-04-26_21h35.44.000,SPAMnetsValid,2021.1.4,MacIntel,29.41176471,,,,,,,,,,,,,3,5.631,0,0,0,41,1,,,,,,,,,,,,,,,,,,,,,,,,,,,,,,,,,,,,,,,,,,,,,,,,,,,,,,,,,,,,,,,,,,,,,,
,,,,3,0.89,,,,,,45,onion,pretzel,,88809,001,2022-04-26_21h35.44.000,SPAMnetsValid,2021.1.4,MacIntel,29.41176471,,,,,,,,,,,,,3,0.89,0,1,1,69,1,,,,,,,,,,,,,,,,,,,,,,,,,,,,,,,,,,,,,,,,,,,,,,,,,,,,,,,,,,,,,,,,,,,,,,
,,,,8,2.92,,,,,,93,kitchen,oven,,88809,001,2022-04-26_21h35.44.000,SPAMnetsValid,2021.1.4,MacIntel,29.41176471,,,,,,,,,,,,,8,2.92,0,2,2,82,1,,,,,,,,,,,,,,,,,,,,,,,,,,,,,,,,,,,,,,,,,,,,,,,,,,,,,,,,,,,,,,,,,,,,,,
,,,,3,2.115,,,,,,54,chocolate,yogurt,,88809,001,2022-04-26_21h35.44.000,SPAMnetsValid,2021.1.4,MacIntel,29.41176471,,,,,,,,,,,,,3,2.115,0,3,3,67,1,,,,,,,,,,,,,,,,,,,,,,,,,,,,,,,,,,,,,,,,,,,,,,,,,,,,,,,,,,,,,,,,,,,,,,
,,,,2,1.206,,,,,,71,broom,rose,,88809,001,2022-04-26_21h35.44.000,SPAMnetsValid,2021.1.4,MacIntel,29.41176471,,,,,,,,,,,,,2,1.206,0,4,4,61,1,,,,,,,,,,,,,,,,,,,,,,,,,,,,,,,,,,,,,,,,,,,,,,,,,,,,,,,,,,,,,,,,,,,,,,
,,,,2,2.714,,,,,,37,garden,refrigerator,,88809,001,2022-04-26_21h35.44.000,SPAMnetsValid,2021.1.4,MacIntel,29.41176471,,,,,,,,,,,,,2,2.714,0,5,5,11,1,,,,,,,,,,,,,,,,,,,,,,,,,,,,,,,,,,,,,,,,,,,,,,,,,,,,,,,,,,,,,,,,,,,,,,
,,,,2,1.146,,,,,,21,cake,onion,,88809,001,2022-04-26_21h35.44.000,SPAMnetsValid,2021.1.4,MacIntel,29.41176471,,,,,,,,,,,,,2,1.146,0,6,6,63,1,,,,,,,,,,,,,,,,,,,,,,,,,,,,,,,,,,,,,,,,,,,,,,,,,,,,,,,,,,,,,,,,,,,,,,
,,,,6,2.801,,,,,,4,chocolate,pretzel,,88809,001,2022-04-26_21h35.44.000,SPAMnetsValid,2021.1.4,MacIntel,29.41176471,,,,,,,,,,,,,6,2.801,0,7,7,52,1,,,,,,,,,,,,,,,,,,,,,,,,,,,,,,,,,,,,,,,,,,,,,,,,,,,,,,,,,,,,,,,,,,,,,,
,,,,8,1.895,,,,,,68,flower,tomato,,88809,001,2022-04-26_21h35.44.000,SPAMnetsValid,2021.1.4,MacIntel,29.41176471,,,,,,,,,,,,,8,1.895,0,8,8,94,1,,,,,,,,,,,,,,,,,,,,,,,,,,,,,,,,,,,,,,,,,,,,,,,,,,,,,,,,,,,,,,,,,,,,,,
,,,,3,1.622,,,,,,60,cactus,onion,,88809,001,2022-04-26_21h35.44.000,SPAMnetsValid,2021.1.4,MacIntel,29.41176471,,,,,,,,,,,,,3,1.622,0,9,9,81,1,,,,,,,,,,,,,,,,,,,,,,,,,,,,,,,,,,,,,,,,,,,,,,,,,,,,,,,,,,,,,,,,,,,,,,
,,,,1,2.306,,,,,,73,broom,chocolate,,88809,001,2022-04-26_21h35.44.000,SPAMnetsValid,2021.1.4,MacIntel,29.41176471,,,,,,,,,,,,,1,2.306,0,10,10,47,1,,,,,,,,,,,,,,,,,,,,,,,,,,,,,,,,,,,,,,,,,,,,,,,,,,,,,,,,,,,,,,,,,,,,,,
,,,,1,1.48,,,,,,27,cactus,cookie,,88809,001,2022-04-26_21h35.44.000,SPAMnetsValid,2021.1.4,MacIntel,29.41176471,,,,,,,,,,,,,1,1.48,0,11,11,17,1,,,,,,,,,,,,,,,,,,,,,,,,,,,,,,,,,,,,,,,,,,,,,,,,,,,,,,,,,,,,,,,,,,,,,,
,,,,7,1.794,,,,,,66,melon,yogurt,,88809,001,2022-04-26_21h35.44.000,SPAMnetsValid,2021.1.4,MacIntel,29.41176471,,,,,,,,,,,,,7,1.794,0,12,12,48,1,,,,,,,,,,,,,,,,,,,,,,,,,,,,,,,,,,,,,,,,,,,,,,,,,,,,,,,,,,,,,,,,,,,,,,
,,,,1,1.327,,,,,,90,cactus,cake,,88809,001,2022-04-26_21h35.44.000,SPAMnetsValid,2021.1.4,MacIntel,29.41176471,,,,,,,,,,,,,1,1.327,0,13,13,85,1,,,,,,,,,,,,,,,,,,,,,,,,,,,,,,,,,,,,,,,,,,,,,,,,,,,,,,,,,,,,,,,,,,,,,,
,,,,6,6.387,,,,,,55,tomato,tree,,88809,001,2022-04-26_21h35.44.000,SPAMnetsValid,2021.1.4,MacIntel,29.41176471,,,,,,,,,,,,,6,6.387,0,14,14,35,1,,,,,,,,,,,,,,,,,,,,,,,,,,,,,,,,,,,,,,,,,,,,,,,,,,,,,,,,,,,,,,,,,,,,,,
,,,,3,1.374,,,,,,38,pretzel,refrigerator,,88809,001,2022-04-26_21h35.44.000,SPAMnetsValid,2021.1.4,MacIntel,29.41176471,,,,,,,,,,,,,3,1.374,0,15,15,71,1,,,,,,,,,,,,,,,,,,,,,,,,,,,,,,,,,,,,,,,,,,,,,,,,,,,,,,,,,,,,,,,,,,,,,,
,,,,6,3.84,,,,,,32,cake,microwave,,88809,001,2022-04-26_21h35.44.000,SPAMnetsValid,2021.1.4,MacIntel,29.41176471,,,,,,,,,,,,,6,3.84,0,16,16,33,1,,,,,,,,,,,,,,,,,,,,,,,,,,,,,,,,,,,,,,,,,,,,,,,,,,,,,,,,,,,,,,,,,,,,,,
,,,,6,1.408,,,,,,49,flower,strawberry,,88809,001,2022-04-26_21h35.44.000,SPAMnetsValid,2021.1.4,MacIntel,29.41176471,,,,,,,,,,,,,6,1.408,0,17,17,3,1,,,,,,,,,,,,,,,,,,,,,,,,,,,,,,,,,,,,,,,,,,,,,,,,,,,,,,,,,,,,,,,,,,,,,,
,,,,9,2.17,,,,,,191,cake,cake,CHECK,88809,001,2022-04-26_21h35.44.000,SPAMnetsValid,2021.1.4,MacIntel,29.41176471,,,,,,,,,,,,,9,2.17,0,18,18,10,1,,,,,,,,,,,,,,,,,,,,,,,,,,,,,,,,,,,,,,,,,,,,,,,,,,,,,,,,,,,,,,,,,,,,,,
,,,,6,4.895,,,,,,50,carrot,rose,,88809,001,2022-04-26_21h35.44.000,SPAMnetsValid,2021.1.4,MacIntel,29.41176471,,,,,,,,,,,,,6,4.895,0,19,19,73,1,,,,,,,,,,,,,,,,,,,,,,,,,,,,,,,,,,,,,,,,,,,,,,,,,,,,,,,,,,,,,,,,,,,,,,
,,,,8,9.249,,,,,,94,kitchen,microwave,,88809,001,2022-04-26_21h35.44.000,SPAMnetsValid,2021.1.4,MacIntel,29.41176471,,,,,,,,,,,,,8,9.249,0,20,20,58,1,,,,,,,,,,,,,,,,,,,,,,,,,,,,,,,,,,,,,,,,,,,,,,,,,,,,,,,,,,,,,,,,,,,,,,
,,,,3,6.972,,,,,,7,melon,tree,,88809,001,2022-04-26_21h35.44.000,SPAMnetsValid,2021.1.4,MacIntel,29.41176471,,,,,,,,,,,,,3,6.972,0,21,21,77,1,,,,,,,,,,,,,,,,,,,,,,,,,,,,,,,,,,,,,,,,,,,,,,,,,,,,,,,,,,,,,,,,,,,,,,
,,,,7,2.148,,,,,,82,cake,kitchen,,88809,001,2022-04-26_21h35.44.000,SPAMnetsValid,2021.1.4,MacIntel,29.41176471,,,,,,,,,,,,,7,2.148,0,22,22,96,1,,,,,,,,,,,,,,,,,,,,,,,,,,,,,,,,,,,,,,,,,,,,,,,,,,,,,,,,,,,,,,,,,,,,,,
,,,,7,2.543,,,,,,22,kitchen,strawberry,,88809,001,2022-04-26_21h35.44.000,SPAMnetsValid,2021.1.4,MacIntel,29.41176471,,,,,,,,,,,,,7,2.543,0,23,23,2,1,,,,,,,,,,,,,,,,,,,,,,,,,,,,,,,,,,,,,,,,,,,,,,,,,,,,,,,,,,,,,,,,,,,,,,
,,,,2,1.909,,,,,,75,cookie,onion,,88809,001,2022-04-26_21h35.44.000,SPAMnetsValid,2021.1.4,MacIntel,29.41176471,,,,,,,,,,,,,2,1.909,0,24,24,9,1,,,,,,,,,,,,,,,,,,,,,,,,,,,,,,,,,,,,,,,,,,,,,,,,,,,,,,,,,,,,,,,,,,,,,,
,,,,4,1.826,,,,,,10,flower,onion,,88809,001,2022-04-26_21h35.44.000,SPAMnetsValid,2021.1.4,MacIntel,29.41176471,,,,,,,,,,,,,4,1.826,0,25,25,45,1,,,,,,,,,,,,,,,,,,,,,,,,,,,,,,,,,,,,,,,,,,,,,,,,,,,,,,,,,,,,,,,,,,,,,,
,,,,2,1.593,,,,,,13,broom,yogurt,,88809,001,2022-04-26_21h35.44.000,SPAMnetsValid,2021.1.4,MacIntel,29.41176471,,,,,,,,,,,,,2,1.593,0,26,26,5,1,,,,,,,,,,,,,,,,,,,,,,,,,,,,,,,,,,,,,,,,,,,,,,,,,,,,,,,,,,,,,,,,,,,,,,
,,,,6,2.573,,,,,,18,onion,refrigerator,,88809,001,2022-04-26_21h35.44.000,SPAMnetsValid,2021.1.4,MacIntel,29.41176471,,,,,,,,,,,,,6,2.573,0,27,27,62,1,,,,,,,,,,,,,,,,,,,,,,,,,,,,,,,,,,,,,,,,,,,,,,,,,,,,,,,,,,,,,,,,,,,,,,
,,,,1,2.776,,,,,,5,oven,tree,,88809,001,2022-04-26_21h35.44.000,SPAMnetsValid,2021.1.4,MacIntel,29.41176471,,,,,,,,,,,,,1,2.776,0,28,28,70,1,,,,,,,,,,,,,,,,,,,,,,,,,,,,,,,,,,,,,,,,,,,,,,,,,,,,,,,,,,,,,,,,,,,,,,
,,,,1,1.934,,,,,,74,broom,pretzel,,88809,001,2022-04-26_21h35.44.000,SPAMnetsValid,2021.1.4,MacIntel,29.41176471,,,,,,,,,,,,,1,1.934,0,29,29,40,1,,,,,,,,,,,,,,,,,,,,,,,,,,,,,,,,,,,,,,,,,,,,,,,,,,,,,,,,,,,,,,,,,,,,,,
,,,,1,1.274,,,,,,83,broom,carrot,,88809,001,2022-04-26_21h35.44.000,SPAMnetsValid,2021.1.4,MacIntel,29.41176471,,,,,,,,,,,,,1,1.274,0,30,30,4,1,,,,,,,,,,,,,,,,,,,,,,,,,,,,,,,,,,,,,,,,,,,,,,,,,,,,,,,,,,,,,,,,,,,,,,
,,,,6,2.124,,,,,,24,cookie,tomato,,88809,001,2022-04-26_21h35.44.000,SPAMnetsValid,2021.1.4,MacIntel,29.41176471,,,,,,,,,,,,,6,2.124,0,31,31,68,1,,,,,,,,,,,,,,,,,,,,,,,,,,,,,,,,,,,,,,,,,,,,,,,,,,,,,,,,,,,,,,,,,,,,,,
,,,,2,2.649,,,,,,48,flower,oven,,88809,001,2022-04-26_21h35.44.000,SPAMnetsValid,2021.1.4,MacIntel,29.41176471,,,,,,,,,,,,,2,2.649,0,32,32,15,1,,,,,,,,,,,,,,,,,,,,,,,,,,,,,,,,,,,,,,,,,,,,,,,,,,,,,,,,,,,,,,,,,,,,,,
,,,,2,3.003,,,,,,70,chocolate,onion,,88809,001,2022-04-26_21h35.44.000,SPAMnetsValid,2021.1.4,MacIntel,29.41176471,,,,,,,,,,,,,2,3.003,0,33,33,74,1,,,,,,,,,,,,,,,,,,,,,,,,,,,,,,,,,,,,,,,,,,,,,,,,,,,,,,,,,,,,,,,,,,,,,,
,,,,7,2.433,,,,,,88,cactus,melon,,88809,001,2022-04-26_21h35.44.000,SPAMnetsValid,2021.1.4,MacIntel,29.41176471,,,,,,,,,,,,,7,2.433,0,34,34,38,1,,,,,,,,,,,,,,,,,,,,,,,,,,,,,,,,,,,,,,,,,,,,,,,,,,,,,,,,,,,,,,,,,,,,,,
,,,,6,1.89,,,,,,44,cookie,melon,,88809,001,2022-04-26_21h35.44.000,SPAMnetsValid,2021.1.4,MacIntel,29.41176471,,,,,,,,,,,,,6,1.89,0,35,35,92,1,,,,,,,,,,,,,,,,,,,,,,,,,,,,,,,,,,,,,,,,,,,,,,,,,,,,,,,,,,,,,,,,,,,,,,
,,,,7,4.508,,,,,,15,onion,oven,,88809,001,2022-04-26_21h35.44.000,SPAMnetsValid,2021.1.4,MacIntel,29.41176471,,,,,,,,,,,,,7,4.508,0,36,36,39,1,,,,,,,,,,,,,,,,,,,,,,,,,,,,,,,,,,,,,,,,,,,,,,,,,,,,,,,,,,,,,,,,,,,,,,
,,,,4,12.015,,,,,,36,broom,kitchen,,88809,001,2022-04-26_21h35.44.000,SPAMnetsValid,2021.1.4,MacIntel,29.41176471,,,,,,,,,,,,,4,12.015,0,37,37,76,1,,,,,,,,,,,,,,,,,,,,,,,,,,,,,,,,,,,,,,,,,,,,,,,,,,,,,,,,,,,,,,,,,,,,,,
,,,,7,3.286,,,,,,56,cactus,tree,,88809,001,2022-04-26_21h35.44.000,SPAMnetsValid,2021.1.4,MacIntel,29.41176471,,,,,,,,,,,,,7,3.286,0,38,38,21,1,,,,,,,,,,,,,,,,,,,,,,,,,,,,,,,,,,,,,,,,,,,,,,,,,,,,,,,,,,,,,,,,,,,,,,
,,,,7,7.117,,,,,,25,carrot,onion,,88809,001,2022-04-26_21h35.44.000,SPAMnetsValid,2021.1.4,MacIntel,29.41176471,,,,,,,,,,,,,7,7.117,0,39,39,44,1,,,,,,,,,,,,,,,,,,,,,,,,,,,,,,,,,,,,,,,,,,,,,,,,,,,,,,,,,,,,,,,,,,,,,,
,,,,7,2.128,,,,,,2,kitchen,onion,,88809,001,2022-04-26_21h35.44.000,SPAMnetsValid,2021.1.4,MacIntel,29.41176471,,,,,,,,,,,,,7,2.128,0,40,40,91,1,,,,,,,,,,,,,,,,,,,,,,,,,,,,,,,,,,,,,,,,,,,,,,,,,,,,,,,,,,,,,,,,,,,,,,
,,,,2,1.848,,,,,,29,chocolate,melon,,88809,001,2022-04-26_21h35.44.000,SPAMnetsValid,2021.1.4,MacIntel,29.41176471,,,,,,,,,,,,,2,1.848,0,41,41,34,1,,,,,,,,,,,,,,,,,,,,,,,,,,,,,,,,,,,,,,,,,,,,,,,,,,,,,,,,,,,,,,,,,,,,,,
,,,,2,0.984,,,,,,43,chocolate,tomato,,88809,001,2022-04-26_21h35.44.000,SPAMnetsValid,2021.1.4,MacIntel,29.41176471,,,,,,,,,,,,,2,0.984,0,42,42,8,1,,,,,,,,,,,,,,,,,,,,,,,,,,,,,,,,,,,,,,,,,,,,,,,,,,,,,,,,,,,,,,,,,,,,,,
,,,,8,2.312,,,,,,47,onion,tomato,,88809,001,2022-04-26_21h35.44.000,SPAMnetsValid,2021.1.4,MacIntel,29.41176471,,,,,,,,,,,,,8,2.312,0,43,43,51,1,,,,,,,,,,,,,,,,,,,,,,,,,,,,,,,,,,,,,,,,,,,,,,,,,,,,,,,,,,,,,,,,,,,,,,
,,,,4,1.989,,,,,,28,cake,melon,,88809,001,2022-04-26_21h35.44.000,SPAMnetsValid,2021.1.4,MacIntel,29.41176471,,,,,,,,,,,,,4,1.989,0,44,44,54,1,,,,,,,,,,,,,,,,,,,,,,,,,,,,,,,,,,,,,,,,,,,,,,,,,,,,,,,,,,,,,,,,,,,,,,
,,,,3,1.892,,,,,,39,melon,pretzel,,88809,001,2022-04-26_21h35.44.000,SPAMnetsValid,2021.1.4,MacIntel,29.41176471,,,,,,,,,,,,,3,1.892,0,45,45,20,1,,,,,,,,,,,,,,,,,,,,,,,,,,,,,,,,,,,,,,,,,,,,,,,,,,,,,,,,,,,,,,,,,,,,,,
,,,,9,2.348,,,,,,9,kitchen,refrigerator,,88809,001,2022-04-26_21h35.44.000,SPAMnetsValid,2021.1.4,MacIntel,29.41176471,,,,,,,,,,,,,9,2.348,0,46,46,64,1,,,,,,,,,,,,,,,,,,,,,,,,,,,,,,,,,,,,,,,,,,,,,,,,,,,,,,,,,,,,,,,,,,,,,,
,,,,6,1.568,,,,,,89,chocolate,rose,,88809,001,2022-04-26_21h35.44.000,SPAMnetsValid,2021.1.4,MacIntel,29.41176471,,,,,,,,,,,,,6,1.568,0,47,47,60,1,,,,,,,,,,,,,,,,,,,,,,,,,,,,,,,,,,,,,,,,,,,,,,,,,,,,,,,,,,,,,,,,,,,,,,
,,,,6,3.098,,,,,,35,flower,pretzel,,88809,001,2022-04-26_21h35.44.000,SPAMnetsValid,2021.1.4,MacIntel,29.41176471,,,,,,,,,,,,,6,3.098,0,48,48,26,1,,,,,,,,,,,,,,,,,,,,,,,,,,,,,,,,,,,,,,,,,,,,,,,,,,,,,,,,,,,,,,,,,,,,,,
,,,,6,1.613,,,,,,1,rose,yogurt,,88809,001,2022-04-26_21h35.44.000,SPAMnetsValid,2021.1.4,MacIntel,29.41176471,,,,,,,,,,,,,6,1.613,0,49,49,55,1,,,,,,,,,,,,,,,,,,,,,,,,,,,,,,,,,,,,,,,,,,,,,,,,,,,,,,,,,,,,,,,,,,,,,,
,,,,8,2.042,,,,,,6,garden,onion,,88809,001,2022-04-26_21h35.44.000,SPAMnetsValid,2021.1.4,MacIntel,29.41176471,,,,,,,,,,,,,8,2.042,0,50,50,83,1,,,,,,,,,,,,,,,,,,,,,,,,,,,,,,,,,,,,,,,,,,,,,,,,,,,,,,,,,,,,,,,,,,,,,,
,,,,6,4.278,,,,,,30,cookie,pretzel,,88809,001,2022-04-26_21h35.44.000,SPAMnetsValid,2021.1.4,MacIntel,29.41176471,,,,,,,,,,,,,6,4.278,0,51,51,78,1,,,,,,,,,,,,,,,,,,,,,,,,,,,,,,,,,,,,,,,,,,,,,,,,,,,,,,,,,,,,,,,,,,,,,,
,,,,6,1.965,,,,,,12,cookie,yogurt,,88809,001,2022-04-26_21h35.44.000,SPAMnetsValid,2021.1.4,MacIntel,29.41176471,,,,,,,,,,,,,6,1.965,0,52,52,36,1,,,,,,,,,,,,,,,,,,,,,,,,,,,,,,,,,,,,,,,,,,,,,,,,,,,,,,,,,,,,,,,,,,,,,,
,,,,9,3.876,,,,,,76,garden,rose,,88809,001,2022-04-26_21h35.44.000,SPAMnetsValid,2021.1.4,MacIntel,29.41176471,,,,,,,,,,,,,9,3.876,0,53,53,19,1,,,,,,,,,,,,,,,,,,,,,,,,,,,,,,,,,,,,,,,,,,,,,,,,,,,,,,,,,,,,,,,,,,,,,,
,,,,6,3.251,,,,,,16,chocolate,flower,,88809,001,2022-04-26_21h35.44.000,SPAMnetsValid,2021.1.4,MacIntel,29.41176471,,,,,,,,,,,,,6,3.251,0,54,54,22,1,,,,,,,,,,,,,,,,,,,,,,,,,,,,,,,,,,,,,,,,,,,,,,,,,,,,,,,,,,,,,,,,,,,,,,
,,,,4,2.323,,,,,,11,refrigerator,tree,,88809,001,2022-04-26_21h35.44.000,SPAMnetsValid,2021.1.4,MacIntel,29.41176471,,,,,,,,,,,,,4,2.323,0,55,55,43,1,,,,,,,,,,,,,,,,,,,,,,,,,,,,,,,,,,,,,,,,,,,,,,,,,,,,,,,,,,,,,,,,,,,,,,
,,,,3,4.421,,,,,,23,flower,microwave,,88809,001,2022-04-26_21h35.44.000,SPAMnetsValid,2021.1.4,MacIntel,29.41176471,,,,,,,,,,,,,3,4.421,0,56,56,25,1,,,,,,,,,,,,,,,,,,,,,,,,,,,,,,,,,,,,,,,,,,,,,,,,,,,,,,,,,,,,,,,,,,,,,,
,,,,2,2.87,,,,,,8,broom,melon,,88809,001,2022-04-26_21h35.44.000,SPAMnetsValid,2021.1.4,MacIntel,29.41176471,,,,,,,,,,,,,2,2.87,0,57,57,59,1,,,,,,,,,,,,,,,,,,,,,,,,,,,,,,,,,,,,,,,,,,,,,,,,,,,,,,,,,,,,,,,,,,,,,,
,,,,2,1.063,,,,,,53,garden,pretzel,,88809,001,2022-04-26_21h35.44.000,SPAMnetsValid,2021.1.4,MacIntel,29.41176471,,,,,,,,,,,,,2,1.063,0,58,58,0,1,,,,,,,,,,,,,,,,,,,,,,,,,,,,,,,,,,,,,,,,,,,,,,,,,,,,,,,,,,,,,,,,,,,,,,
,,,,1,4.436,,,,,,40,broom,cake,,88809,001,2022-04-26_21h35.44.000,SPAMnetsValid,2021.1.4,MacIntel,29.41176471,,,,,,,,,,,,,1,4.436,0,59,59,32,1,,,,,,,,,,,,,,,,,,,,,,,,,,,,,,,,,,,,,,,,,,,,,,,,,,,,,,,,,,,,,,,,,,,,,,
,,,,1,1.994,,,,,,41,broom,cactus,,88809,001,2022-04-26_21h35.44.000,SPAMnetsValid,2021.1.4,MacIntel,29.41176471,,,,,,,,,,,,,1,1.994,0,60,60,46,1,,,,,,,,,,,,,,,,,,,,,,,,,,,,,,,,,,,,,,,,,,,,,,,,,,,,,,,,,,,,,,,,,,,,,,
,,,,2,2.071,,,,,,17,carrot,melon,,88809,001,2022-04-26_21h35.44.000,SPAMnetsValid,2021.1.4,MacIntel,29.41176471,,,,,,,,,,,,,2,2.071,0,61,61,24,1,,,,,,,,,,,,,,,,,,,,,,,,,,,,,,,,,,,,,,,,,,,,,,,,,,,,,,,,,,,,,,,,,,,,,,
,,,,3,1.453,,,,,,26,tomato,yogurt,,88809,001,2022-04-26_21h35.44.000,SPAMnetsValid,2021.1.4,MacIntel,29.41176471,,,,,,,,,,,,,3,1.453,0,62,62,13,1,,,,,,,,,,,,,,,,,,,,,,,,,,,,,,,,,,,,,,,,,,,,,,,,,,,,,,,,,,,,,,,,,,,,,,
,,,,3,4.832,,,,,,69,carrot,refrigerator,,88809,001,2022-04-26_21h35.44.000,SPAMnetsValid,2021.1.4,MacIntel,29.41176471,,,,,,,,,,,,,3,4.832,0,63,63,75,1,,,,,,,,,,,,,,,,,,,,,,,,,,,,,,,,,,,,,,,,,,,,,,,,,,,,,,,,,,,,,,,,,,,,,,
,,,,7,2.118,,,,,,42,garden,kitchen,,88809,001,2022-04-26_21h35.44.000,SPAMnetsValid,2021.1.4,MacIntel,29.41176471,,,,,,,,,,,,,7,2.118,0,64,64,29,1,,,,,,,,,,,,,,,,,,,,,,,,,,,,,,,,,,,,,,,,,,,,,,,,,,,,,,,,,,,,,,,,,,,,,,
,,,,6,7.485,,,,,,87,carrot,yogurt,,88809,001,2022-04-26_21h35.44.000,SPAMnetsValid,2021.1.4,MacIntel,29.41176471,,,,,,,,,,,,,6,7.485,0,65,65,6,1,,,,,,,,,,,,,,,,,,,,,,,,,,,,,,,,,,,,,,,,,,,,,,,,,,,,,,,,,,,,,,,,,,,,,,
,,,,2,2.066,,,,,,46,garden,yogurt,,88809,001,2022-04-26_21h35.44.000,SPAMnetsValid,2021.1.4,MacIntel,29.41176471,,,,,,,,,,,,,2,2.066,0,66,66,65,1,,,,,,,,,,,,,,,,,,,,,,,,,,,,,,,,,,,,,,,,,,,,,,,,,,,,,,,,,,,,,,,,,,,,,,
,,,,3,2.841,,,,,,31,cactus,pretzel,,88809,001,2022-04-26_21h35.44.000,SPAMnetsValid,2021.1.4,MacIntel,29.41176471,,,,,,,,,,,,,3,2.841,0,67,67,1,1,,,,,,,,,,,,,,,,,,,,,,,,,,,,,,,,,,,,,,,,,,,,,,,,,,,,,,,,,,,,,,,,,,,,,,
,,,,2,3.253,,,,,,61,strawberry,tomato,,88809,001,2022-04-26_21h35.44.000,SPAMnetsValid,2021.1.4,MacIntel,29.41176471,,,,,,,,,,,,,2,3.253,0,68,68,80,1,,,,,,,,,,,,,,,,,,,,,,,,,,,,,,,,,,,,,,,,,,,,,,,,,,,,,,,,,,,,,,,,,,,,,,
,,,,4,1.729,,,,,,57,flower,kitchen,,88809,001,2022-04-26_21h35.44.000,SPAMnetsValid,2021.1.4,MacIntel,29.41176471,,,,,,,,,,,,,4,1.729,0,69,69,49,1,,,,,,,,,,,,,,,,,,,,,,,,,,,,,,,,,,,,,,,,,,,,,,,,,,,,,,,,,,,,,,,,,,,,,,
,,,,6,2.2,,,,,,20,rose,tree,,88809,001,2022-04-26_21h35.44.000,SPAMnetsValid,2021.1.4,MacIntel,29.41176471,,,,,,,,,,,,,6,2.2,0,70,70,66,1,,,,,,,,,,,,,,,,,,,,,,,,,,,,,,,,,,,,,,,,,,,,,,,,,,,,,,,,,,,,,,,,,,,,,,
,,,,1,1.803,,,,,,72,broom,onion,,88809,001,2022-04-26_21h35.44.000,SPAMnetsValid,2021.1.4,MacIntel,29.41176471,,,,,,,,,,,,,1,1.803,0,71,71,27,1,,,,,,,,,,,,,,,,,,,,,,,,,,,,,,,,,,,,,,,,,,,,,,,,,,,,,,,,,,,,,,,,,,,,,,
,,,,3,7.579,,,,,,84,oven,tomato,,88809,001,2022-04-26_21h35.44.000,SPAMnetsValid,2021.1.4,MacIntel,29.41176471,,,,,,,,,,,,,3,7.579,0,72,72,28,1,,,,,,,,,,,,,,,,,,,,,,,,,,,,,,,,,,,,,,,,,,,,,,,,,,,,,,,,,,,,,,,,,,,,,,
,,,,7,2.884,,,,,,52,carrot,tomato,,88809,001,2022-04-26_21h35.44.000,SPAMnetsValid,2021.1.4,MacIntel,29.41176471,,,,,,,,,,,,,7,2.884,0,73,73,95,1,,,,,,,,,,,,,,,,,,,,,,,,,,,,,,,,,,,,,,,,,,,,,,,,,,,,,,,,,,,,,,,,,,,,,,
,,,,8,1.823,,,,,,63,cake,cookie,,88809,001,2022-04-26_21h35.44.000,SPAMnetsValid,2021.1.4,MacIntel,29.41176471,,,,,,,,,,,,,8,1.823,0,74,74,93,1,,,,,,,,,,,,,,,,,,,,,,,,,,,,,,,,,,,,,,,,,,,,,,,,,,,,,,,,,,,,,,,,,,,,,,
,,,,2,3.453,,,,,,95,broom,refrigerator,,88809,001,2022-04-26_21h35.44.000,SPAMnetsValid,2021.1.4,MacIntel,29.41176471,,,,,,,,,,,,,2,3.453,0,75,75,90,1,,,,,,,,,,,,,,,,,,,,,,,,,,,,,,,,,,,,,,,,,,,,,,,,,,,,,,,,,,,,,,,,,,,,,,
,,,,6,1.383,,,,,,51,onion,strawberry,,88809,001,2022-04-26_21h35.44.000,SPAMnetsValid,2021.1.4,MacIntel,29.41176471,,,,,,,,,,,,,6,1.383,0,76,76,86,1,,,,,,,,,,,,,,,,,,,,,,,,,,,,,,,,,,,,,,,,,,,,,,,,,,,,,,,,,,,,,,,,,,,,,,
,,,,1,2.158,,,,,,86,oven,rose,,88809,001,2022-04-26_21h35.44.000,SPAMnetsValid,2021.1.4,MacIntel,29.41176471,,,,,,,,,,,,,1,2.158,0,77,77,79,1,,,,,,,,,,,,,,,,,,,,,,,,,,,,,,,,,,,,,,,,,,,,,,,,,,,,,,,,,,,,,,,,,,,,,,
,,,,4,2.236,,,,,,67,flower,yogurt,,88809,001,2022-04-26_21h35.44.000,SPAMnetsValid,2021.1.4,MacIntel,29.41176471,,,,,,,,,,,,,4,2.236,0,78,78,12,1,,,,,,,,,,,,,,,,,,,,,,,,,,,,,,,,,,,,,,,,,,,,,,,,,,,,,,,,,,,,,,,,,,,,,,
,,,,3,5.492,,,,,,91,microwave,rose,,88809,001,2022-04-26_21h35.44.000,SPAMnetsValid,2021.1.4,MacIntel,29.41176471,,,,,,,,,,,,,3,5.492,0,79,79,84,1,,,,,,,,,,,,,,,,,,,,,,,,,,,,,,,,,,,,,,,,,,,,,,,,,,,,,,,,,,,,,,,,,,,,,,
,,,,1,1.635,,,,,,14,broom,cookie,,88809,001,2022-04-26_21h35.44.000,SPAMnetsValid,2021.1.4,MacIntel,29.41176471,,,,,,,,,,,,,1,1.635,0,80,80,16,1,,,,,,,,,,,,,,,,,,,,,,,,,,,,,,,,,,,,,,,,,,,,,,,,,,,,,,,,,,,,,,,,,,,,,,
,,,,1,1.515,,,,,,85,cake,tree,,88809,001,2022-04-26_21h35.44.000,SPAMnetsValid,2021.1.4,MacIntel,29.41176471,,,,,,,,,,,,,1,1.515,0,81,81,18,1,,,,,,,,,,,,,,,,,,,,,,,,,,,,,,,,,,,,,,,,,,,,,,,,,,,,,,,,,,,,,,,,,,,,,,
,,,,3,2.867,,,,,,64,chocolate,garden,,88809,001,2022-04-26_21h35.44.000,SPAMnetsValid,2021.1.4,MacIntel,29.41176471,,,,,,,,,,,,,3,2.867,0,82,82,14,1,,,,,,,,,,,,,,,,,,,,,,,,,,,,,,,,,,,,,,,,,,,,,,,,,,,,,,,,,,,,,,,,,,,,,,
,,,,3,9.758,,,,,,34,melon,oven,,88809,001,2022-04-26_21h35.44.000,SPAMnetsValid,2021.1.4,MacIntel,29.41176471,,,,,,,,,,,,,3,9.758,0,83,83,7,1,,,,,,,,,,,,,,,,,,,,,,,,,,,,,,,,,,,,,,,,,,,,,,,,,,,,,,,,,,,,,,,,,,,,,,
,,,,7,1.933,,,,,,77,refrigerator,yogurt,,88809,001,2022-04-26_21h35.44.000,SPAMnetsValid,2021.1.4,MacIntel,29.41176471,,,,,,,,,,,,,7,1.933,0,84,84,42,1,,,,,,,,,,,,,,,,,,,,,,,,,,,,,,,,,,,,,,,,,,,,,,,,,,,,,,,,,,,,,,,,,,,,,,
,,,,3,2.109,,,,,,78,cookie,rose,,88809,001,2022-04-26_21h35.44.000,SPAMnetsValid,2021.1.4,MacIntel,29.41176471,,,,,,,,,,,,,3,2.109,0,85,85,56,1,,,,,,,,,,,,,,,,,,,,,,,,,,,,,,,,,,,,,,,,,,,,,,,,,,,,,,,,,,,,,,,,,,,,,,
,,,,9,1.546,,,,,,192,microwave,microwave,CHECK,88809,001,2022-04-26_21h35.44.000,SPAMnetsValid,2021.1.4,MacIntel,29.41176471,,,,,,,,,,,,,9,1.546,0,86,86,53,1,,,,,,,,,,,,,,,,,,,,,,,,,,,,,,,,,,,,,,,,,,,,,,,,,,,,,,,,,,,,,,,,,,,,,,
,,,,7,2.741,,,,,,58,garden,oven,,88809,001,2022-04-26_21h35.44.000,SPAMnetsValid,2021.1.4,MacIntel,29.41176471,,,,,,,,,,,,,7,2.741,0,87,87,37,1,,,,,,,,,,,,,,,,,,,,,,,,,,,,,,,,,,,,,,,,,,,,,,,,,,,,,,,,,,,,,,,,,,,,,,
,,,,1,2.02,,,,,,65,broom,garden,,88809,001,2022-04-26_21h35.44.000,SPAMnetsValid,2021.1.4,MacIntel,29.41176471,,,,,,,,,,,,,1,2.02,0,88,88,23,1,,,,,,,,,,,,,,,,,,,,,,,,,,,,,,,,,,,,,,,,,,,,,,,,,,,,,,,,,,,,,,,,,,,,,,
,,,,8,3.506,,,,,,3,cake,oven,,88809,001,2022-04-26_21h35.44.000,SPAMnetsValid,2021.1.4,MacIntel,29.41176471,,,,,,,,,,,,,8,3.506,0,89,89,30,1,,,,,,,,,,,,,,,,,,,,,,,,,,,,,,,,,,,,,,,,,,,,,,,,,,,,,,,,,,,,,,,,,,,,,,
,,,,3,2.18,,,,,,92,broom,flower,,88809,001,2022-04-26_21h35.44.000,SPAMnetsValid,2021.1.4,MacIntel,29.41176471,,,,,,,,,,,,,3,2.18,0,90,90,88,1,,,,,,,,,,,,,,,,,,,,,,,,,,,,,,,,,,,,,,,,,,,,,,,,,,,,,,,,,,,,,,,,,,,,,,
,,,,3,2.171,,,,,,80,chocolate,tree,,88809,001,2022-04-26_21h35.44.000,SPAMnetsValid,2021.1.4,MacIntel,29.41176471,,,,,,,,,,,,,3,2.171,0,91,91,89,1,,,,,,,,,,,,,,,,,,,,,,,,,,,,,,,,,,,,,,,,,,,,,,,,,,,,,,,,,,,,,,,,,,,,,,
,,,,4,1.461,,,,,,81,pretzel,yogurt,,88809,001,2022-04-26_21h35.44.000,SPAMnetsValid,2021.1.4,MacIntel,29.41176471,,,,,,,,,,,,,4,1.461,0,92,92,50,1,,,,,,,,,,,,,,,,,,,,,,,,,,,,,,,,,,,,,,,,,,,,,,,,,,,,,,,,,,,,,,,,,,,,,,
,,,,1,1.691,,,,,,33,oven,yogurt,,88809,001,2022-04-26_21h35.44.000,SPAMnetsValid,2021.1.4,MacIntel,29.41176471,,,,,,,,,,,,,1,1.691,0,93,93,31,1,,,,,,,,,,,,,,,,,,,,,,,,,,,,,,,,,,,,,,,,,,,,,,,,,,,,,,,,,,,,,,,,,,,,,,
,,,,6,2.326,,,,,,59,rose,strawberry,,88809,001,2022-04-26_21h35.44.000,SPAMnetsValid,2021.1.4,MacIntel,29.41176471,,,,,,,,,,,,,6,2.326,0,94,94,72,1,,,,,,,,,,,,,,,,,,,,,,,,,,,,,,,,,,,,,,,,,,,,,,,,,,,,,,,,,,,,,,,,,,,,,,
,,,,3,1.941,,,,,,62,kitchen,rose,,88809,001,2022-04-26_21h35.44.000,SPAMnetsValid,2021.1.4,MacIntel,29.41176471,,,,,,,,,,,,,3,1.941,0,95,95,57,1,,,,,,,,,,,,,,,,,,,,,,,,,,,,,,,,,,,,,,,,,,,,,,,,,,,,,,,,,,,,,,,,,,,,,,
,,,,6,1.74,,,,,,79,garden,strawberry,,88809,001,2022-04-26_21h35.44.000,SPAMnetsValid,2021.1.4,MacIntel,29.41176471,,,,,,,,,,,,,6,1.74,0,96,96,87,1,,,,,,,,,,,,,,,,,,,,,,,,,,,,,,,,,,,,,,,,,,,,,,,,,,,,,,,,,,,,,,,,,,,,,,
,,,,,,,,,,,,,,,88809,001,2022-04-26_21h35.44.000,SPAMnetsValid,2021.1.4,MacIntel,29.41176471,,,,,,,,,,,,,,,,,,,,0,0,0,0,1,,,,,,,,,,,,,,,,,,,,,,,,,,,,,,,,,,,,,,,,,,,,,,,,,,,,,,,,,,,,,,,,,
,,,,,,,,,,,,,,,88809,001,2022-04-26_21h35.44.000,SPAMnetsValid,2021.1.4,MacIntel,29.41176471,,,,,,0,1,1,0,1,1,0,,,,,,,,,,,,,,,,,,,,,,,,,,,,,,,,,,,,,,,,,,,,,,,,,,,,,,,,,,,,,,,,,,,,,,,,,,,,,
,,,,,,,,,,,,,,,88809,001,2022-04-26_21h35.44.000,SPAMnetsValid,2021.1.4,MacIntel,29.41176471,,,,,,,,,,,,,,,,,,,,,,,,,3,7.177,0,0,0,0,1,rancor,forbearance,ridicule,malice,bravery,3,,,,,,,,,,,,,,,,,,,,,,,,,,,,,,,,,,,,,,,,,,,,,,,,,,,,
,,,,,,,,,,,,,,,88809,001,2022-04-26_21h35.44.000,SPAMnetsValid,2021.1.4,MacIntel,29.41176471,,,,,,,,,,,,,,,,,,,,,,,,,4,4.523,0,1,1,1,1,raucous,empty,quiet,smooth,harsh,4,,,,,,,,,,,,,,,,,,,,,,,,,,,,,,,,,,,,,,,,,,,,,,,,,,,,
,,,,,,,,,,,,,,,88809,001,2022-04-26_21h35.44.000,SPAMnetsValid,2021.1.4,MacIntel,29.41176471,,,,,,,,,,,,,,,,,,,,,,,,,3,8.515,0,2,2,2,1,gargoyle,oil,medicine,carved waterspout,ugly building,3,,,,,,,,,,,,,,,,,,,,,,,,,,,,,,,,,,,,,,,,,,,,,,,,,,,,
,,,,,,,,,,,,,,,88809,001,2022-04-26_21h35.44.000,SPAMnetsValid,2021.1.4,MacIntel,29.41176471,,,,,,,,,,,,,,,,,,,,,,,,,3,6.635,0,3,3,3,1,recrudesce,purify,renew activity,lack refinement,crush,2,,,,,,,,,,,,,,,,,,,,,,,,,,,,,,,,,,,,,,,,,,,,,,,,,,,,
,,,,,,,,,,,,,,,88809,001,2022-04-26_21h35.44.000,SPAMnetsValid,2021.1.4,MacIntel,29.41176471,,,,,,,,,,,,,,,,,,,,,,,,,3,6.214,0,4,4,4,1,specious,"plausible, but not genuine",noteworthy,class or variety,roomy,1,,,,,,,,,,,,,,,,,,,,,,,,,,,,,,,,,,,,,,,,,,,,,,,,,,,,
,,,,,,,,,,,,,,,88809,001,2022-04-26_21h35.44.000,SPAMnetsValid,2021.1.4,MacIntel,29.41176471,,,,,,,,,,,,,,,,,,,,,,,,,3,4.786,0,5,5,5,1,bauble,bubble,showy plaything,idle talk,confusion,2,,,,,,,,,,,,,,,,,,,,,,,,,,,,,,,,,,,,,,,,,,,,,,,,,,,,
,,,,,,,,,,,,,,,88809,001,2022-04-26_21h35.44.000,SPAMnetsValid,2021.1.4,MacIntel,29.41176471,,,,,,,,,,,,,,,,,,,,,,,,,2,7.586,0,6,6,6,1,prolific,scarce,producing abundantly,reckless,speaking profanely,2,,,,,,,,,,,,,,,,,,,,,,,,,,,,,,,,,,,,,,,,,,,,,,,,,,,,
,,,,,,,,,,,,,,,88809,001,2022-04-26_21h35.44.000,SPAMnetsValid,2021.1.4,MacIntel,29.41176471,,,,,,,,,,,,,,,,,,,,,,,,,2,12.38,0,7,7,7,1,opulent,party,wealthy,happy frame of mind,semiprecious stone,2,,,,,,,,,,,,,,,,,,,,,,,,,,,,,,,,,,,,,,,,,,,,,,,,,,,,
,,,,,,,,,,,,,,,88809,001,2022-04-26_21h35.44.000,SPAMnetsValid,2021.1.4,MacIntel,29.41176471,,,,,,,,,,,,,,,,,,,,,,,,,1,7.153,0,8,8,8,1,coercion,conspiracy,strategy,restraint,attraction,3,,,,,,,,,,,,,,,,,,,,,,,,,,,,,,,,,,,,,,,,,,,,,,,,,,,,
,,,,,,,,,,,,,,,88809,001,2022-04-26_21h35.44.000,SPAMnetsValid,2021.1.4,MacIntel,29.41176471,,,,,,,,,,,,,,,,,,,,,,,,,4,2.781,0,9,9,9,1,hiatus,animal,calamity,dread,gap,4,,,,,,,,,,,,,,,,,,,,,,,,,,,,,,,,,,,,,,,,,,,,,,,,,,,,
,,,,,,,,,,,,,,,88809,001,2022-04-26_21h35.44.000,SPAMnetsValid,2021.1.4,MacIntel,29.41176471,,,,,,,,,,,,,,,,,,,,,,,,,2,3.083,0,10,10,10,1,germane,microbe,contagious,relevant,different,3,,,,,,,,,,,,,,,,,,,,,,,,,,,,,,,,,,,,,,,,,,,,,,,,,,,,
,,,,,,,,,,,,,,,88809,001,2022-04-26_21h35.44.000,SPAMnetsValid,2021.1.4,MacIntel,29.41176471,,,,,,,,,,,,,,,,,,,,,,,,,3,5.5,0,11,11,11,1,perfunctory,fundamental,formal,superficial,careful,3,,,,,,,,,,,,,,,,,,,,,,,,,,,,,,,,,,,,,,,,,,,,,,,,,,,,
,,,,,,,,,,,,,,,88809,001,2022-04-26_21h35.44.000,SPAMnetsValid,2021.1.4,MacIntel,29.41176471,,,,,,,,,,,,,,,,,,,,,,,,,4,3.776,0,12,12,12,1,diverge,reveal,chant,distract the attention of,differ or turn off from,4,,,,,,,,,,,,,,,,,,,,,,,,,,,,,,,,,,,,,,,,,,,,,,,,,,,,
,,,,,,,,,,,,,,,88809,001,2022-04-26_21h35.44.000,SPAMnetsValid,2021.1.4,MacIntel,29.41176471,,,,,,,,,,,,,,,,,,,,,,,,,4,3.083,0,13,13,13,1,evoke,take away,anger,connect,bring out,4,,,,,,,,,,,,,,,,,,,,,,,,,,,,,,,,,,,,,,,,,,,,,,,,,,,,
,,,,,,,,,,,,,,,88809,001,2022-04-26_21h35.44.000,SPAMnetsValid,2021.1.4,MacIntel,29.41176471,,,,,,,,,,,,,,,,,,,,,,,,,1,5.358,0,14,14,14,1,pertinent,relevant,lying next to,necessary,bold,1,,,,,,,,,,,,,,,,,,,,,,,,,,,,,,,,,,,,,,,,,,,,,,,,,,,,
,,,,,,,,,,,,,,,88809,001,2022-04-26_21h35.44.000,SPAMnetsValid,2021.1.4,MacIntel,29.41176471,,,,,,,,,,,,,,,,,,,,,,,,,2,5.613,0,15,15,15,1,holocaust,entirety,destruction,saintly,price,2,,,,,,,,,,,,,,,,,,,,,,,,,,,,,,,,,,,,,,,,,,,,,,,,,,,,
,,,,,,,,,,,,,,,88809,001,2022-04-26_21h35.44.000,SPAMnetsValid,2021.1.4,MacIntel,29.41176471,,,,,,,,,,,,,,,,,,,,,,,,,3,3.088,0,16,16,16,1,piquant,mellow,fish,pungent,cloth,3,,,,,,,,,,,,,,,,,,,,,,,,,,,,,,,,,,,,,,,,,,,,,,,,,,,,
,,,,,,,,,,,,,,,88809,001,2022-04-26_21h35.44.000,SPAMnetsValid,2021.1.4,MacIntel,29.41176471,,,,,,,,,,,,,,,,,,,,,,,,,1,9.441,0,17,17,17,1,firmament,foundation,heavens,strong,glue,2,,,,,,,,,,,,,,,,,,,,,,,,,,,,,,,,,,,,,,,,,,,,,,,,,,,,
,,,,,,,,,,,,,,,88809,001,2022-04-26_21h35.44.000,SPAMnetsValid,2021.1.4,MacIntel,29.41176471,,,,,,,,,,,,,,,,,,,,,,,,,,,,,,,,,,,,,,4,13.699,0,0,0,0,1,marketable,partisan,jocular,marriageable,salable,essential,4,,,,,,,,,,,,,,,,,,,,,,,,,,,,,,,,,,,,,,
,,,,,,,,,,,,,,,88809,001,2022-04-26_21h35.44.000,SPAMnetsValid,2021.1.4,MacIntel,29.41176471,,,,,,,,,,,,,,,,,,,,,,,,,,,,,,,,,,,,,,5,4.853,0,1,1,1,1,cottontail,squirrel,poplar,boa,marshy plant,rabbit,5,,,,,,,,,,,,,,,,,,,,,,,,,,,,,,,,,,,,,,
,,,,,,,,,,,,,,,88809,001,2022-04-26_21h35.44.000,SPAMnetsValid,2021.1.4,MacIntel,29.41176471,,,,,,,,,,,,,,,,,,,,,,,,,,,,,,,,,,,,,,3,4.954,0,2,2,2,1,boggy,afraid,false,marshy,dense,black,3,,,,,,,,,,,,,,,,,,,,,,,,,,,,,,,,,,,,,,
,,,,,,,,,,,,,,,88809,001,2022-04-26_21h35.44.000,SPAMnetsValid,2021.1.4,MacIntel,29.41176471,,,,,,,,,,,,,,,,,,,,,,,,,,,,,,,,,,,,,,3,6.508,0,3,3,3,1,gruesomeness,blackness,falseness,vindictiveness,drunkenness,ghastliness,5,,,,,,,,,,,,,,,,,,,,,,,,,,,,,,,,,,,,,,
,,,,,,,,,,,,,,,88809,001,2022-04-26_21h35.44.000,SPAMnetsValid,2021.1.4,MacIntel,29.41176471,,,,,,,,,,,,,,,,,,,,,,,,,,,,,,,,,,,,,,3,6.878,0,4,4,4,1,loathing,diffidence,laziness,abhorrence,cleverness,comfort,3,,,,,,,,,,,,,,,,,,,,,,,,,,,,,,,,,,,,,,
,,,,,,,,,,,,,,,88809,001,2022-04-26_21h35.44.000,SPAMnetsValid,2021.1.4,MacIntel,29.41176471,,,,,,,,,,,,,,,,,,,,,,,,,,,,,,,,,,,,,,2,10.144,0,5,5,5,1,bantam,fowl,ridicule,cripple,vegetable,ensign,1,,,,,,,,,,,,,,,,,,,,,,,,,,,,,,,,,,,,,,
,,,,,,,,,,,,,,,88809,001,2022-04-26_21h35.44.000,SPAMnetsValid,2021.1.4,MacIntel,29.41176471,,,,,,,,,,,,,,,,,,,,,,,,,,,,,,,,,,,,,,5,9.534,0,6,6,6,1,evoke,wake up,surrender,reconnoiter,transcend,call forth,5,,,,,,,,,,,,,,,,,,,,,,,,,,,,,,,,,,,,,,
,,,,,,,,,,,,,,,88809,001,2022-04-26_21h35.44.000,SPAMnetsValid,2021.1.4,MacIntel,29.41176471,,,,,,,,,,,,,,,,,,,,,,,,,,,,,,,,,,,,,,5,14.746,0,7,7,7,1,unobtrusive,unintelligent,epileptic,illogical,lineal,modest,5,,,,,,,,,,,,,,,,,,,,,,,,,,,,,,,,,,,,,,
,,,,,,,,,,,,,,,88809,001,2022-04-26_21h35.44.000,SPAMnetsValid,2021.1.4,MacIntel,29.41176471,,,,,,,,,,,,,,,,,,,,,,,,,,,,,,,,,,,,,,4,3.144,0,8,8,8,1,terrain,ice cream,final test,tractor,area of ground,weight,4,,,,,,,,,,,,,,,,,,,,,,,,,,,,,,,,,,,,,,
,,,,,,,,,,,,,,,88809,001,2022-04-26_21h35.44.000,SPAMnetsValid,2021.1.4,MacIntel,29.41176471,,,,,,,,,,,,,,,,,,,,,,,,,,,,,,,,,,,,,,1,14.346,0,9,9,9,1,capriciousness,stubbornness,courage,whimsicality,amazement,greediness,3,,,,,,,,,,,,,,,,,,,,,,,,,,,,,,,,,,,,,,
,,,,,,,,,,,,,,,88809,001,2022-04-26_21h35.44.000,SPAMnetsValid,2021.1.4,MacIntel,29.41176471,,,,,,,,,,,,,,,,,,,,,,,,,,,,,,,,,,,,,,1,7.601,0,10,10,10,1,maelstrom,slander,whirlpool,enmity,armor,majolica,2,,,,,,,,,,,,,,,,,,,,,,,,,,,,,,,,,,,,,,
,,,,,,,,,,,,,,,88809,001,2022-04-26_21h35.44.000,SPAMnetsValid,2021.1.4,MacIntel,29.41176471,,,,,,,,,,,,,,,,,,,,,,,,,,,,,,,,,,,,,,4,10.776,0,11,11,11,1,tentative,critical,conclusive,authentic,provisional,apprehensive,4,,,,,,,,,,,,,,,,,,,,,,,,,,,,,,,,,,,,,,
,,,,,,,,,,,,,,,88809,001,2022-04-26_21h35.44.000,SPAMnetsValid,2021.1.4,MacIntel,29.41176471,,,,,,,,,,,,,,,,,,,,,,,,,,,,,,,,,,,,,,3,14.662,0,12,12,12,1,placate,rehabilitate,plagiarize,depredate,apprise,conciliate,5,,,,,,,,,,,,,,,,,,,,,,,,,,,,,,,,,,,,,,
,,,,,,,,,,,,,,,88809,001,2022-04-26_21h35.44.000,SPAMnetsValid,2021.1.4,MacIntel,29.41176471,,,,,,,,,,,,,,,,,,,,,,,,,,,,,,,,,,,,,,4,11.27,0,13,13,13,1,surcease,enlightenment,cessation,inattention,censor,substitution,2,,,,,,,,,,,,,,,,,,,,,,,,,,,,,,,,,,,,,,
,,,,,,,,,,,,,,,88809,001,2022-04-26_21h35.44.000,SPAMnetsValid,2021.1.4,MacIntel,29.41176471,,,,,,,,,,,,,,,,,,,,,,,,,,,,,,,,,,,,,,2,7.177,0,14,14,14,1,apathetic,wandering,impassive,hateful,prophetic,overflowing,2,,,,,,,,,,,,,,,,,,,,,,,,,,,,,,,,,,,,,,
,,,,,,,,,,,,,,,88809,001,2022-04-26_21h35.44.000,SPAMnetsValid,2021.1.4,MacIntel,29.41176471,,,,,,,,,,,,,,,,,,,,,,,,,,,,,,,,,,,,,,1,8.177,0,15,15,15,1,paternoster,paternalism,patricide,malediction,benediction,prayer,5,,,,,,,,,,,,,,,,,,,,,,,,,,,,,,,,,,,,,,
,,,,,,,,,,,,,,,88809,001,2022-04-26_21h35.44.000,SPAMnetsValid,2021.1.4,MacIntel,29.41176471,,,,,,,,,,,,,,,,,,,,,,,,,,,,,,,,,,,,,,1,6.674,0,16,16,16,1,opalescence,opulence,senescence,bankruptcy,iridescence,assiduity,4,,,,,,,,,,,,,,,,,,,,,,,,,,,,,,,,,,,,,,
,,,,,,,,,,,,,,,88809,001,2022-04-26_21h35.44.000,SPAMnetsValid,2021.1.4,MacIntel,29.41176471,,,,,,,,,,,,,,,,,,,,,,,,,,,,,,,,,,,,,,2,2.994,0,17,17,17,1,lush,stupid,luxurious,hazy,putrid,languishing,2,,,,,,,,,,,,,,,,,,,,,,,,,,,,,,,,,,,,,,
,,,,,,,,,,,,,,,88809,001,2022-04-26_21h35.44.000,SPAMnetsValid,2021.1.4,MacIntel,29.41176471,,,,,,,,,,,,,,,,,,,,,,,,,,,,,,,,,,,,,,5,13.962,0,18,18,18,1,curtailment,expenditure,abandonment,abridgment,improvement,forgery,3,,,,,,,,,,,,,,,,,,,,,,,,,,,,,,,,,,,,,,
,,,,,,,,,,,,,,,88809,001,2022-04-26_21h35.44.000,SPAMnetsValid,2021.1.4,MacIntel,29.41176471,,,,,,,,,,,,,,,,,,,,,,,,,,,,,,,,,,,,,,4,7.917,0,19,19,19,1,perversity,adversity,perviousness,travesty,waywardness,gentility,4,,,,,,,,,,,,,,,,,,,,,,,,,,,,,,,,,,,,,,
,,,,,,,,,,,,,,,88809,001,2022-04-26_21h35.44.000,SPAMnetsValid,2021.1.4,MacIntel,29.41176471,,,,,,,,,,,,,,,,,,,,,,,,,,,,,,,,,,,,,,2,7.534,0,20,20,20,1,calumnious,complimentary,analogous,slanderous,tempestuous,magnanimous,3,,,,,,,,,,,,,,,,,,,,,,,,,,,,,,,,,,,,,,
,,,,,,,,,,,,,,,88809,001,2022-04-26_21h35.44.000,SPAMnetsValid,2021.1.4,MacIntel,29.41176471,,,,,,,,,,,,,,,,,,,,,,,,,,,,,,,,,,,,,,4,7.848,0,21,21,21,1,illiberality,bigotry,imbecility,illegibility,cautery,immaturity,1,,,,,,,,,,,,,,,,,,,,,,,,,,,,,,,,,,,,,,
,,,,,,,,,,,,,,,88809,001,2022-04-26_21h35.44.000,SPAMnetsValid,2021.1.4,MacIntel,29.41176471,,,,,,,,,,,,,,,,,,,,,,,,,,,,,,,,,,,,,,3,3.862,0,22,22,22,1,clabber,rejoice,gossip,curdle,crow,hobble,3,,,,,,,,,,,,,,,,,,,,,,,,,,,,,,,,,,,,,,
,,,,,,,,,,,,,,,88809,001,2022-04-26_21h35.44.000,SPAMnetsValid,2021.1.4,MacIntel,29.41176471,,,,,,,,,,,,,,,,,,,,,,,,,,,,,,,,,,,,,,4,9.606,0,23,23,23,1,sedulousness,diligence,credulousness,seduction,perilousness,frankness,1,,,,,,,,,,,,,,,,,,,,,,,,,,,,,,,,,,,,,,
,,,,,,,,,,,,,,,88809,001,2022-04-26_21h35.44.000,SPAMnetsValid,2021.1.4,MacIntel,29.41176471,,,,,,,,,,,,,,,,,,,,,,,,,,,,,,,,,,,,,,,,,,,,,,,,,,,,  to make an egg,candle,0,0,0,0,1,,,,,,,,,,,,,,,,,,,,,,,,,,,,,,,
,,,,,,,,,,,,,,,88809,001,2022-04-26_21h35.44.000,SPAMnetsValid,2021.1.4,MacIntel,29.41176471,,,,,,,,,,,,,,,,,,,,,,,,,,,,,,,,,,,,,,,,,,,,,,,,,,,,to do wax seals,candle,1,0,1,0,1,,,,,,,,,,,,,,,,,,,,,,,,,,,,,,,
,,,,,,,,,,,,,,,88809,001,2022-04-26_21h35.44.000,SPAMnetsValid,2021.1.4,MacIntel,29.41176471,,,,,,,,,,,,,,,,,,,,,,,,,,,,,,,,,,,,,,,,,,,,,,,,,,,,to light other candles,candle,2,0,2,0,1,,,,,,,,,,,,,,,,,,,,,,,,,,,,,,,
,,,,,,,,,,,,,,,88809,001,2022-04-26_21h35.44.000,SPAMnetsValid,2021.1.4,MacIntel,29.41176471,,,,,,,,,,,,,,,,,,,,,,,,,,,,,,,,,,,,,,,,,,,,,,,,,,,,to heat a needle to steralize it,candle,3,0,3,0,1,,,,,,,,,,,,,,,,,,,,,,,,,,,,,,,
,,,,,,,,,,,,,,,88809,001,2022-04-26_21h35.44.000,SPAMnetsValid,2021.1.4,MacIntel,29.41176471,,,,,,,,,,,,,,,,,,,,,,,,,,,,,,,,,,,,,,,,,,,,,,,,,,,,to clean your ears,candle,4,0,4,0,1,,,,,,,,,,,,,,,,,,,,,,,,,,,,,,,
,,,,,,,,,,,,,,,88809,001,2022-04-26_21h35.44.000,SPAMnetsValid,2021.1.4,MacIntel,29.41176471,,,,,,,,,,,,,,,,,,,,,,,,,,,,,,,,,,,,,,,,,,,,,,,,,,,,,,,,,,,0,0,0,1,1,candle,,,,,,,,,,,,,,,,,,,,,,,,,
,,,,,,,,,,,,,,,88809,001,2022-04-26_21h35.44.000,SPAMnetsValid,2021.1.4,MacIntel,29.41176471,,,,,,,,,,,,,,,,,,,,,,,,,,,,,,,,,,,,,,,,,,,,,,,,,,,,for kids to jump on,pillow,0,0,0,0,1,,,,,,,,,,,,,,,,,,,,,,,,,,,,,,,
,,,,,,,,,,,,,,,88809,001,2022-04-26_21h35.44.000,SPAMnetsValid,2021.1.4,MacIntel,29.41176471,,,,,,,,,,,,,,,,,,,,,,,,,,,,,,,,,,,,,,,,,,,,,,,,,,,,the floor is lava,pillow,1,0,1,0,1,,,,,,,,,,,,,,,,,,,,,,,,,,,,,,,
,,,,,,,,,,,,,,,88809,001,2022-04-26_21h35.44.000,SPAMnetsValid,2021.1.4,MacIntel,29.41176471,,,,,,,,,,,,,,,,,,,,,,,,,,,,,,,,,,,,,,,,,,,,,,,,,,,,to prop up a chair leg that wobbles,pillow,2,0,2,0,1,,,,,,,,,,,,,,,,,,,,,,,,,,,,,,,
,,,,,,,,,,,,,,,88809,001,2022-04-26_21h35.44.000,SPAMnetsValid,2021.1.4,MacIntel,29.41176471,,,,,,,,,,,,,,,,,,,,,,,,,,,,,,,,,,,,,,,,,,,,,,,,,,,,to hide stuff in,pillow,3,0,3,0,1,,,,,,,,,,,,,,,,,,,,,,,,,,,,,,,
,,,,,,,,,,,,,,,88809,001,2022-04-26_21h35.44.000,SPAMnetsValid,2021.1.4,MacIntel,29.41176471,,,,,,,,,,,,,,,,,,,,,,,,,,,,,,,,,,,,,,,,,,,,,,,,,,,,to make a stuffed animal,pillow,4,0,4,0,1,,,,,,,,,,,,,,,,,,,,,,,,,,,,,,,
,,,,,,,,,,,,,,,88809,001,2022-04-26_21h35.44.000,SPAMnetsValid,2021.1.4,MacIntel,29.41176471,,,,,,,,,,,,,,,,,,,,,,,,,,,,,,,,,,,,,,,,,,,,,,,,,,,,to learn to sew,pillow,5,0,5,0,1,,,,,,,,,,,,,,,,,,,,,,,,,,,,,,,
,,,,,,,,,,,,,,,88809,001,2022-04-26_21h35.44.000,SPAMnetsValid,2021.1.4,MacIntel,29.41176471,,,,,,,,,,,,,,,,,,,,,,,,,,,,,,,,,,,,,,,,,,,,,,,,,,,,,,,,,,,0,1,1,2,1,pillow,,,,,,,,,,,,,,,,,,,,,,,,,
,,,,,,,,,,,,,,,88809,001,2022-04-26_21h35.44.000,SPAMnetsValid,2021.1.4,MacIntel,29.41176471,,,,,,,,,,,,,,,,,,,,,,,,,,,,,,,,,,,,,,,,,,,,,,,,,,,,as a hat,bucket,0,0,0,0,1,,,,,,,,,,,,,,,,,,,,,,,,,,,,,,,
,,,,,,,,,,,,,,,88809,001,2022-04-26_21h35.44.000,SPAMnetsValid,2021.1.4,MacIntel,29.41176471,,,,,,,,,,,,,,,,,,,,,,,,,,,,,,,,,,,,,,,,,,,,,,,,,,,,as a pulley,bucket,1,0,1,0,1,,,,,,,,,,,,,,,,,,,,,,,,,,,,,,,
,,,,,,,,,,,,,,,88809,001,2022-04-26_21h35.44.000,SPAMnetsValid,2021.1.4,MacIntel,29.41176471,,,,,,,,,,,,,,,,,,,,,,,,,,,,,,,,,,,,,,,,,,,,,,,,,,,,to take an ice bath in,bucket,2,0,2,0,1,,,,,,,,,,,,,,,,,,,,,,,,,,,,,,,
,,,,,,,,,,,,,,,88809,001,2022-04-26_21h35.44.000,SPAMnetsValid,2021.1.4,MacIntel,29.41176471,,,,,,,,,,,,,,,,,,,,,,,,,,,,,,,,,,,,,,,,,,,,,,,,,,,,to connect with a string to talk to friend,bucket,3,0,3,0,1,,,,,,,,,,,,,,,,,,,,,,,,,,,,,,,
,,,,,,,,,,,,,,,88809,001,2022-04-26_21h35.44.000,SPAMnetsValid,2021.1.4,MacIntel,29.41176471,,,,,,,,,,,,,,,,,,,,,,,,,,,,,,,,,,,,,,,,,,,,,,,,,,,,as a telescope,bucket,4,0,4,0,1,,,,,,,,,,,,,,,,,,,,,,,,,,,,,,,
,,,,,,,,,,,,,,,88809,001,2022-04-26_21h35.44.000,SPAMnetsValid,2021.1.4,MacIntel,29.41176471,,,,,,,,,,,,,,,,,,,,,,,,,,,,,,,,,,,,,,,,,,,,,,,,,,,,to amplify your voice,bucket,5,0,5,0,1,,,,,,,,,,,,,,,,,,,,,,,,,,,,,,,
,,,,,,,,,,,,,,,88809,001,2022-04-26_21h35.44.000,SPAMnetsValid,2021.1.4,MacIntel,29.41176471,,,,,,,,,,,,,,,,,,,,,,,,,,,,,,,,,,,,,,,,,,,,,,,,,,,,as shoes,bucket,6,0,6,0,1,,,,,,,,,,,,,,,,,,,,,,,,,,,,,,,
,,,,,,,,,,,,,,,88809,001,2022-04-26_21h35.44.000,SPAMnetsValid,2021.1.4,MacIntel,29.41176471,,,,,,,,,,,,,,,,,,,,,,,,,,,,,,,,,,,,,,,,,,,,,,,,,,,,,,,,,,,0,2,2,0,1,bucket,,,,,,,,,,,,,,,,,,,,,,,,,
,,,,,,,,,,,,,,,88809,001,2022-04-26_21h35.44.000,SPAMnetsValid,2021.1.4,MacIntel,29.41176471,,,,,,,,,,,,,,,,,,,,,,,,,,,,,,,,,,,,,,,,,,,,,,,,,,,,,,,,,,,,,,,,,dog,Animals,0,0,0,0,1,,,,,,,,,,,,,,,,,,
,,,,,,,,,,,,,,,88809,001,2022-04-26_21h35.44.000,SPAMnetsValid,2021.1.4,MacIntel,29.41176471,,,,,,,,,,,,,,,,,,,,,,,,,,,,,,,,,,,,,,,,,,,,,,,,,,,,,,,,,,,,,,,,,cat,Animals,1,0,1,0,1,,,,,,,,,,,,,,,,,,
,,,,,,,,,,,,,,,88809,001,2022-04-26_21h35.44.000,SPAMnetsValid,2021.1.4,MacIntel,29.41176471,,,,,,,,,,,,,,,,,,,,,,,,,,,,,,,,,,,,,,,,,,,,,,,,,,,,,,,,,,,,,,,,,tiger,Animals,2,0,2,0,1,,,,,,,,,,,,,,,,,,
,,,,,,,,,,,,,,,88809,001,2022-04-26_21h35.44.000,SPAMnetsValid,2021.1.4,MacIntel,29.41176471,,,,,,,,,,,,,,,,,,,,,,,,,,,,,,,,,,,,,,,,,,,,,,,,,,,,,,,,,,,,,,,,,snake,Animals,3,0,3,0,1,,,,,,,,,,,,,,,,,,
,,,,,,,,,,,,,,,88809,001,2022-04-26_21h35.44.000,SPAMnetsValid,2021.1.4,MacIntel,29.41176471,,,,,,,,,,,,,,,,,,,,,,,,,,,,,,,,,,,,,,,,,,,,,,,,,,,,,,,,,,,,,,,,,lion,Animals,4,0,4,0,1,,,,,,,,,,,,,,,,,,
,,,,,,,,,,,,,,,88809,001,2022-04-26_21h35.44.000,SPAMnetsValid,2021.1.4,MacIntel,29.41176471,,,,,,,,,,,,,,,,,,,,,,,,,,,,,,,,,,,,,,,,,,,,,,,,,,,,,,,,,,,,,,,,,bear,Animals,5,0,5,0,1,,,,,,,,,,,,,,,,,,
,,,,,,,,,,,,,,,88809,001,2022-04-26_21h35.44.000,SPAMnetsValid,2021.1.4,MacIntel,29.41176471,,,,,,,,,,,,,,,,,,,,,,,,,,,,,,,,,,,,,,,,,,,,,,,,,,,,,,,,,,,,,,,,,puma,Animals,6,0,6,0,1,,,,,,,,,,,,,,,,,,
,,,,,,,,,,,,,,,88809,001,2022-04-26_21h35.44.000,SPAMnetsValid,2021.1.4,MacIntel,29.41176471,,,,,,,,,,,,,,,,,,,,,,,,,,,,,,,,,,,,,,,,,,,,,,,,,,,,,,,,,,,,,,,,,rabbit,Animals,7,0,7,0,1,,,,,,,,,,,,,,,,,,
,,,,,,,,,,,,,,,88809,001,2022-04-26_21h35.44.000,SPAMnetsValid,2021.1.4,MacIntel,29.41176471,,,,,,,,,,,,,,,,,,,,,,,,,,,,,,,,,,,,,,,,,,,,,,,,,,,,,,,,,,,,,,,,,alligator,Animals,8,0,8,0,1,,,,,,,,,,,,,,,,,,
,,,,,,,,,,,,,,,88809,001,2022-04-26_21h35.44.000,SPAMnetsValid,2021.1.4,MacIntel,29.41176471,,,,,,,,,,,,,,,,,,,,,,,,,,,,,,,,,,,,,,,,,,,,,,,,,,,,,,,,,,,,,,,,,mouse,Animals,9,0,9,0,1,,,,,,,,,,,,,,,,,,
,,,,,,,,,,,,,,,88809,001,2022-04-26_21h35.44.000,SPAMnetsValid,2021.1.4,MacIntel,29.41176471,,,,,,,,,,,,,,,,,,,,,,,,,,,,,,,,,,,,,,,,,,,,,,,,,,,,,,,,,,,,,,,,,chipmunk,Animals,10,0,10,0,1,,,,,,,,,,,,,,,,,,
,,,,,,,,,,,,,,,88809,001,2022-04-26_21h35.44.000,SPAMnetsValid,2021.1.4,MacIntel,29.41176471,,,,,,,,,,,,,,,,,,,,,,,,,,,,,,,,,,,,,,,,,,,,,,,,,,,,,,,,,,,,,,,,,bird,Animals,11,0,11,0,1,,,,,,,,,,,,,,,,,,
,,,,,,,,,,,,,,,88809,001,2022-04-26_21h35.44.000,SPAMnetsValid,2021.1.4,MacIntel,29.41176471,,,,,,,,,,,,,,,,,,,,,,,,,,,,,,,,,,,,,,,,,,,,,,,,,,,,,,,,,,,,,,,,,lizard,Animals,12,0,12,0,1,,,,,,,,,,,,,,,,,,
,,,,,,,,,,,,,,,88809,001,2022-04-26_21h35.44.000,SPAMnetsValid,2021.1.4,MacIntel,29.41176471,,,,,,,,,,,,,,,,,,,,,,,,,,,,,,,,,,,,,,,,,,,,,,,,,,,,,,,,,,,,,,,,,penquin,Animals,13,0,13,0,1,,,,,,,,,,,,,,,,,,
,,,,,,,,,,,,,,,88809,001,2022-04-26_21h35.44.000,SPAMnetsValid,2021.1.4,MacIntel,29.41176471,,,,,,,,,,,,,,,,,,,,,,,,,,,,,,,,,,,,,,,,,,,,,,,,,,,,,,,,,,,,,,,,,whale,Animals,14,0,14,0,1,,,,,,,,,,,,,,,,,,
,,,,,,,,,,,,,,,88809,001,2022-04-26_21h35.44.000,SPAMnetsValid,2021.1.4,MacIntel,29.41176471,,,,,,,,,,,,,,,,,,,,,,,,,,,,,,,,,,,,,,,,,,,,,,,,,,,,,,,,,,,,,,,,,dolphin,Animals,15,0,15,0,1,,,,,,,,,,,,,,,,,,
,,,,,,,,,,,,,,,88809,001,2022-04-26_21h35.44.000,SPAMnetsValid,2021.1.4,MacIntel,29.41176471,,,,,,,,,,,,,,,,,,,,,,,,,,,,,,,,,,,,,,,,,,,,,,,,,,,,,,,,,,,,,,,,,fish,Animals,16,0,16,0,1,,,,,,,,,,,,,,,,,,
,,,,,,,,,,,,,,,88809,001,2022-04-26_21h35.44.000,SPAMnetsValid,2021.1.4,MacIntel,29.41176471,,,,,,,,,,,,,,,,,,,,,,,,,,,,,,,,,,,,,,,,,,,,,,,,,,,,,,,,,,,,,,,,,shark,Animals,17,0,17,0,1,,,,,,,,,,,,,,,,,,
,,,,,,,,,,,,,,,88809,001,2022-04-26_21h35.44.000,SPAMnetsValid,2021.1.4,MacIntel,29.41176471,,,,,,,,,,,,,,,,,,,,,,,,,,,,,,,,,,,,,,,,,,,,,,,,,,,,,,,,,,,,,,,,,giraffe,Animals,18,0,18,0,1,,,,,,,,,,,,,,,,,,
,,,,,,,,,,,,,,,88809,001,2022-04-26_21h35.44.000,SPAMnetsValid,2021.1.4,MacIntel,29.41176471,,,,,,,,,,,,,,,,,,,,,,,,,,,,,,,,,,,,,,,,,,,,,,,,,,,,,,,,,,,,,,,,,monkey,Animals,19,0,19,0,1,,,,,,,,,,,,,,,,,,
,,,,,,,,,,,,,,,88809,001,2022-04-26_21h35.44.000,SPAMnetsValid,2021.1.4,MacIntel,29.41176471,,,,,,,,,,,,,,,,,,,,,,,,,,,,,,,,,,,,,,,,,,,,,,,,,,,,,,,,,,,,,,,,,gorilla,Animals,20,0,20,0,1,,,,,,,,,,,,,,,,,,
,,,,,,,,,,,,,,,88809,001,2022-04-26_21h35.44.000,SPAMnetsValid,2021.1.4,MacIntel,29.41176471,,,,,,,,,,,,,,,,,,,,,,,,,,,,,,,,,,,,,,,,,,,,,,,,,,,,,,,,,,,,,,,,,lepard,Animals,21,0,21,0,1,,,,,,,,,,,,,,,,,,
,,,,,,,,,,,,,,,88809,001,2022-04-26_21h35.44.000,SPAMnetsValid,2021.1.4,MacIntel,29.41176471,,,,,,,,,,,,,,,,,,,,,,,,,,,,,,,,,,,,,,,,,,,,,,,,,,,,,,,,,,,,,,,,,chicken,Animals,22,0,22,0,1,,,,,,,,,,,,,,,,,,
,,,,,,,,,,,,,,,88809,001,2022-04-26_21h35.44.000,SPAMnetsValid,2021.1.4,MacIntel,29.41176471,,,,,,,,,,,,,,,,,,,,,,,,,,,,,,,,,,,,,,,,,,,,,,,,,,,,,,,,,,,,,,,,,,,,,,,,0,0,0,0,1,Animals,,,,,,,,,,,,
,,,,,,,,,,,,,,,88809,001,2022-04-26_21h35.44.000,SPAMnetsValid,2021.1.4,MacIntel,29.41176471,,,,,,,,,,,,,,,,,,,,,,,,,,,,,,,,,,,,,,,,,,,,,,,,,,,,,,,,,,,,,,,,,,,,,,,,,,,,,,4,8.564,0,0,0,0,1,"I enjoy concentrating on a fantasy or daydream and exploring all its possibilities, letting it grow and develop.",0,1,,
,,,,,,,,,,,,,,,88809,001,2022-04-26_21h35.44.000,SPAMnetsValid,2021.1.4,MacIntel,29.41176471,,,,,,,,,,,,,,,,,,,,,,,,,,,,,,,,,,,,,,,,,,,,,,,,,,,,,,,,,,,,,,,,,,,,,,,,,,,,,,5,3.24,0,1,1,1,1,I think it's interesting to learn and develop new hobbies.,0,2,,
,,,,,,,,,,,,,,,88809,001,2022-04-26_21h35.44.000,SPAMnetsValid,2021.1.4,MacIntel,29.41176471,,,,,,,,,,,,,,,,,,,,,,,,,,,,,,,,,,,,,,,,,,,,,,,,,,,,,,,,,,,,,,,,,,,,,,,,,,,,,,4,3.138,0,2,2,2,1,I am intrigued by the patterns I find in art and nature.,0,3,,
,,,,,,,,,,,,,,,88809,001,2022-04-26_21h35.44.000,SPAMnetsValid,2021.1.4,MacIntel,29.41176471,,,,,,,,,,,,,,,,,,,,,,,,,,,,,,,,,,,,,,,,,,,,,,,,,,,,,,,,,,,,,,,,,,,,,,,,,,,,,,1,4.591,0,3,3,3,1,I believe letting students hear controversial speakers can only confuse and mislead them.,1,4,,
,,,,,,,,,,,,,,,88809,001,2022-04-26_21h35.44.000,SPAMnetsValid,2021.1.4,MacIntel,29.41176471,,,,,,,,,,,,,,,,,,,,,,,,,,,,,,,,,,,,,,,,,,,,,,,,,,,,,,,,,,,,,,,,,,,,,,,,,,,,,,2,3.511,0,4,4,4,1,Poetry has little or no effect on me.,1,5,,
,,,,,,,,,,,,,,,88809,001,2022-04-26_21h35.44.000,SPAMnetsValid,2021.1.4,MacIntel,29.41176471,,,,,,,,,,,,,,,,,,,,,,,,,,,,,,,,,,,,,,,,,,,,,,,,,,,,,,,,,,,,,,,,,,,,,,,,,,,,,,3,7.068,0,5,5,5,1,I would have difficulty just letting my mind wander without control or guidance.,1,6,,
,,,,,,,,,,,,,,,88809,001,2022-04-26_21h35.44.000,SPAMnetsValid,2021.1.4,MacIntel,29.41176471,,,,,,,,,,,,,,,,,,,,,,,,,,,,,,,,,,,,,,,,,,,,,,,,,,,,,,,,,,,,,,,,,,,,,,,,,,,,,,2,4.872,0,6,6,6,1,I seldom notice the moods or feelings that different environments produce.,1,7,,
,,,,,,,,,,,,,,,88809,001,2022-04-26_21h35.44.000,SPAMnetsValid,2021.1.4,MacIntel,29.41176471,,,,,,,,,,,,,,,,,,,,,,,,,,,,,,,,,,,,,,,,,,,,,,,,,,,,,,,,,,,,,,,,,,,,,,,,,,,,,,3,4.415,0,7,7,7,1,I experience a wide range of emotions or feelings.,0,8,,
,,,,,,,,,,,,,,,88809,001,2022-04-26_21h35.44.000,SPAMnetsValid,2021.1.4,MacIntel,29.41176471,,,,,,,,,,,,,,,,,,,,,,,,,,,,,,,,,,,,,,,,,,,,,,,,,,,,,,,,,,,,,,,,,,,,,,,,,,,,,,3,5.73,0,8,8,8,1,"Sometimes when I am reading poetry or looking at a work of art, I feel a chill or wave of excitement.",0,9,,
,,,,,,,,,,,,,,,88809,001,2022-04-26_21h35.44.000,SPAMnetsValid,2021.1.4,MacIntel,29.41176471,,,,,,,,,,,,,,,,,,,,,,,,,,,,,,,,,,,,,,,,,,,,,,,,,,,,,,,,,,,,,,,,,,,,,,,,,,,,,,2,4.243,0,9,9,9,1,I have little interest in speculating on the nature of the universe or the human condition.,1,10,,
,,,,,,,,,,,,,,,88809,001,2022-04-26_21h35.44.000,SPAMnetsValid,2021.1.4,MacIntel,29.41176471,,,,,,,,,,,,,,,,,,,,,,,,,,,,,,,,,,,,,,,,,,,,,,,,,,,,,,,,,,,,,,,,,,,,,,,,,,,,,,5,2.259,0,10,10,10,1,I have a lot of intellectual curiosity.,0,11,,
,,,,,,,,,,,,,,,88809,001,2022-04-26_21h35.44.000,SPAMnetsValid,2021.1.4,MacIntel,29.41176471,,,,,,,,,,,,,,,,,,,,,,,,,,,,,,,,,,,,,,,,,,,,,,,,,,,,,,,,,,,,,,,,,,,,,,,,,,,,,,5,2.79,0,11,11,11,1,I often enjoy playing with theories or abstract ideas.,0,12,,
,,,,,,,,,,,,,,,88809,001,2022-04-26_21h35.44.000,SPAMnetsValid,2021.1.4,MacIntel,29.41176471,,,,,,,,,,,,,,,,,,,,,,,,,,,,,,,,,,,,,,,,,,,,,,,,,,,,,,,,,,,,,,,,,,,,,,,,,,,,,,,,,,,,,,,,return,12.892
