key_resp_3.keys,key_resp_3.rt,slider.response,slider.rt,rjt_rating,rjt_RT,trials_22.thisRepN,trials_22.thisTrialN,trials_22.thisN,trials_22.thisIndex,trials_22.ran,rjt_order,word1,word2,attention,participant,session,date,expName,psychopyVersion,OS,frameRate,trials_99.thisRepN,trials_99.thisTrialN,trials_99.thisN,trials_99.thisIndex,trials_99.ran,trials_5.thisRepN,trials_5.thisTrialN,trials_5.thisN,trials_5.thisIndex,trials_5.ran,repOne,repTwo,slider_2.response,slider_2.rt,trials_24.thisRepN,trials_24.thisTrialN,trials_24.thisN,trials_24.thisIndex,trials_24.ran,trials_4.thisRepN,trials_4.thisTrialN,trials_4.thisN,trials_4.thisIndex,trials_4.ran,slider_extend_2.response,slider_extend_2.rt,trials_6.thisRepN,trials_6.thisTrialN,trials_6.thisN,trials_6.thisIndex,trials_6.ran,vCue2,R1,R2,R3,R4,correct,sliderVocab.response,sliderVocab.rt,trials_7.thisRepN,trials_7.thisTrialN,trials_7.thisN,trials_7.thisIndex,trials_7.ran,VocabCue,VR1,VR2,VR3,VR4,VR5,VocabCorrect,AUT_resp,AUT_label,trials.thisRepN,trials.thisTrialN,trials.thisN,trials.thisIndex,trials.ran,trials_2.thisRepN,trials_2.thisTrialN,trials_2.thisN,trials_2.thisIndex,trials_2.ran,aut_prompt,VF_response,VF_tag,trials_16.thisRepN,trials_16.thisTrialN,trials_16.thisN,trials_16.thisIndex,trials_16.ran,trials_17.thisRepN,trials_17.thisTrialN,trials_17.thisN,trials_17.thisIndex,trials_17.ran,VFcond,open_slider.response,open_slider.rt,trials_3.thisRepN,trials_3.thisTrialN,trials_3.thisN,trials_3.thisIndex,trials_3.ran,OpenQ,Rev,OPEN_ORDER,key_resp_2.keys,key_resp_2.rt
return,9.0544,8,3.5509,8,3.5509,0,0,0,54,1,28,cake,melon,,88813,001,2022-04-26_11h37.39.358,SPAMnetsValid,2021.1.4,MacIntel,60.0060006,,,,,,,,,,,,,,,,,,,,,,,,,,,,,,,,,,,,,,,,,,,,,,,,,,,,,,,,,,,,,,,,,,,,,,,,,,,,,,,,,,,,,,,,,
,,8,3.6095,8,3.6095,0,1,1,66,1,20,rose,tree,,88813,001,2022-04-26_11h37.39.358,SPAMnetsValid,2021.1.4,MacIntel,60.0060006,,,,,,,,,,,,,,,,,,,,,,,,,,,,,,,,,,,,,,,,,,,,,,,,,,,,,,,,,,,,,,,,,,,,,,,,,,,,,,,,,,,,,,,,,
,,8,2.221,8,2.221,0,2,2,83,1,6,garden,onion,,88813,001,2022-04-26_11h37.39.358,SPAMnetsValid,2021.1.4,MacIntel,60.0060006,,,,,,,,,,,,,,,,,,,,,,,,,,,,,,,,,,,,,,,,,,,,,,,,,,,,,,,,,,,,,,,,,,,,,,,,,,,,,,,,,,,,,,,,,
,,4,1.9694,4,1.9694,0,3,3,63,1,21,cake,onion,,88813,001,2022-04-26_11h37.39.358,SPAMnetsValid,2021.1.4,MacIntel,60.0060006,,,,,,,,,,,,,,,,,,,,,,,,,,,,,,,,,,,,,,,,,,,,,,,,,,,,,,,,,,,,,,,,,,,,,,,,,,,,,,,,,,,,,,,,,
,,2,2.1573,2,2.1573,0,4,4,73,1,50,carrot,rose,,88813,001,2022-04-26_11h37.39.358,SPAMnetsValid,2021.1.4,MacIntel,60.0060006,,,,,,,,,,,,,,,,,,,,,,,,,,,,,,,,,,,,,,,,,,,,,,,,,,,,,,,,,,,,,,,,,,,,,,,,,,,,,,,,,,,,,,,,,
,,2,1.7233,2,1.7233,0,5,5,65,1,46,garden,yogurt,,88813,001,2022-04-26_11h37.39.358,SPAMnetsValid,2021.1.4,MacIntel,60.0060006,,,,,,,,,,,,,,,,,,,,,,,,,,,,,,,,,,,,,,,,,,,,,,,,,,,,,,,,,,,,,,,,,,,,,,,,,,,,,,,,,,,,,,,,,
,,3,1.9126,3,1.9126,0,6,6,74,1,70,chocolate,onion,,88813,001,2022-04-26_11h37.39.358,SPAMnetsValid,2021.1.4,MacIntel,60.0060006,,,,,,,,,,,,,,,,,,,,,,,,,,,,,,,,,,,,,,,,,,,,,,,,,,,,,,,,,,,,,,,,,,,,,,,,,,,,,,,,,,,,,,,,,
,,3,1.6636,3,1.6636,0,7,7,26,1,35,flower,pretzel,,88813,001,2022-04-26_11h37.39.358,SPAMnetsValid,2021.1.4,MacIntel,60.0060006,,,,,,,,,,,,,,,,,,,,,,,,,,,,,,,,,,,,,,,,,,,,,,,,,,,,,,,,,,,,,,,,,,,,,,,,,,,,,,,,,,,,,,,,,
,,3,1.3532,3,1.3532,0,8,8,85,1,90,cactus,cake,,88813,001,2022-04-26_11h37.39.358,SPAMnetsValid,2021.1.4,MacIntel,60.0060006,,,,,,,,,,,,,,,,,,,,,,,,,,,,,,,,,,,,,,,,,,,,,,,,,,,,,,,,,,,,,,,,,,,,,,,,,,,,,,,,,,,,,,,,,
,,3,1.7911,3,1.7911,0,9,9,25,1,23,flower,microwave,,88813,001,2022-04-26_11h37.39.358,SPAMnetsValid,2021.1.4,MacIntel,60.0060006,,,,,,,,,,,,,,,,,,,,,,,,,,,,,,,,,,,,,,,,,,,,,,,,,,,,,,,,,,,,,,,,,,,,,,,,,,,,,,,,,,,,,,,,,
,,1,1.2864,1,1.2864,0,10,10,5,1,13,broom,yogurt,,88813,001,2022-04-26_11h37.39.358,SPAMnetsValid,2021.1.4,MacIntel,60.0060006,,,,,,,,,,,,,,,,,,,,,,,,,,,,,,,,,,,,,,,,,,,,,,,,,,,,,,,,,,,,,,,,,,,,,,,,,,,,,,,,,,,,,,,,,
,,1,1.575,1,1.575,0,11,11,40,1,74,broom,pretzel,,88813,001,2022-04-26_11h37.39.358,SPAMnetsValid,2021.1.4,MacIntel,60.0060006,,,,,,,,,,,,,,,,,,,,,,,,,,,,,,,,,,,,,,,,,,,,,,,,,,,,,,,,,,,,,,,,,,,,,,,,,,,,,,,,,,,,,,,,,
,,9,1.6227,9,1.6227,0,12,12,53,1,192,microwave,microwave,CHECK,88813,001,2022-04-26_11h37.39.358,SPAMnetsValid,2021.1.4,MacIntel,60.0060006,,,,,,,,,,,,,,,,,,,,,,,,,,,,,,,,,,,,,,,,,,,,,,,,,,,,,,,,,,,,,,,,,,,,,,,,,,,,,,,,,,,,,,,,,
,,6,1.6564,6,1.6564,0,13,13,72,1,59,rose,strawberry,,88813,001,2022-04-26_11h37.39.358,SPAMnetsValid,2021.1.4,MacIntel,60.0060006,,,,,,,,,,,,,,,,,,,,,,,,,,,,,,,,,,,,,,,,,,,,,,,,,,,,,,,,,,,,,,,,,,,,,,,,,,,,,,,,,,,,,,,,,
,,7,1.6509,7,1.6509,0,14,14,75,1,69,carrot,refrigerator,,88813,001,2022-04-26_11h37.39.358,SPAMnetsValid,2021.1.4,MacIntel,60.0060006,,,,,,,,,,,,,,,,,,,,,,,,,,,,,,,,,,,,,,,,,,,,,,,,,,,,,,,,,,,,,,,,,,,,,,,,,,,,,,,,,,,,,,,,,
,,3,1.6546,3,1.6546,0,15,15,48,1,66,melon,yogurt,,88813,001,2022-04-26_11h37.39.358,SPAMnetsValid,2021.1.4,MacIntel,60.0060006,,,,,,,,,,,,,,,,,,,,,,,,,,,,,,,,,,,,,,,,,,,,,,,,,,,,,,,,,,,,,,,,,,,,,,,,,,,,,,,,,,,,,,,,,
,,2,1.3415,2,1.3415,0,16,16,94,1,68,flower,tomato,,88813,001,2022-04-26_11h37.39.358,SPAMnetsValid,2021.1.4,MacIntel,60.0060006,,,,,,,,,,,,,,,,,,,,,,,,,,,,,,,,,,,,,,,,,,,,,,,,,,,,,,,,,,,,,,,,,,,,,,,,,,,,,,,,,,,,,,,,,
,,2,1.3014,2,1.3014,0,17,17,77,1,7,melon,tree,,88813,001,2022-04-26_11h37.39.358,SPAMnetsValid,2021.1.4,MacIntel,60.0060006,,,,,,,,,,,,,,,,,,,,,,,,,,,,,,,,,,,,,,,,,,,,,,,,,,,,,,,,,,,,,,,,,,,,,,,,,,,,,,,,,,,,,,,,,
,,3,1.4203,3,1.4203,0,18,18,32,1,40,broom,cake,,88813,001,2022-04-26_11h37.39.358,SPAMnetsValid,2021.1.4,MacIntel,60.0060006,,,,,,,,,,,,,,,,,,,,,,,,,,,,,,,,,,,,,,,,,,,,,,,,,,,,,,,,,,,,,,,,,,,,,,,,,,,,,,,,,,,,,,,,,
,,4,2.7418,4,2.7418,0,19,19,17,1,27,cactus,cookie,,88813,001,2022-04-26_11h37.39.358,SPAMnetsValid,2021.1.4,MacIntel,60.0060006,,,,,,,,,,,,,,,,,,,,,,,,,,,,,,,,,,,,,,,,,,,,,,,,,,,,,,,,,,,,,,,,,,,,,,,,,,,,,,,,,,,,,,,,,
,,3,1.2227,3,1.2227,0,20,20,84,1,91,microwave,rose,,88813,001,2022-04-26_11h37.39.358,SPAMnetsValid,2021.1.4,MacIntel,60.0060006,,,,,,,,,,,,,,,,,,,,,,,,,,,,,,,,,,,,,,,,,,,,,,,,,,,,,,,,,,,,,,,,,,,,,,,,,,,,,,,,,,,,,,,,,
,,6,1.5276,6,1.5276,0,21,21,21,1,56,cactus,tree,,88813,001,2022-04-26_11h37.39.358,SPAMnetsValid,2021.1.4,MacIntel,60.0060006,,,,,,,,,,,,,,,,,,,,,,,,,,,,,,,,,,,,,,,,,,,,,,,,,,,,,,,,,,,,,,,,,,,,,,,,,,,,,,,,,,,,,,,,,
,,7,1.4561,7,1.4561,0,22,22,95,1,52,carrot,tomato,,88813,001,2022-04-26_11h37.39.358,SPAMnetsValid,2021.1.4,MacIntel,60.0060006,,,,,,,,,,,,,,,,,,,,,,,,,,,,,,,,,,,,,,,,,,,,,,,,,,,,,,,,,,,,,,,,,,,,,,,,,,,,,,,,,,,,,,,,,
,,4,1.2534,4,1.2534,0,23,23,50,1,81,pretzel,yogurt,,88813,001,2022-04-26_11h37.39.358,SPAMnetsValid,2021.1.4,MacIntel,60.0060006,,,,,,,,,,,,,,,,,,,,,,,,,,,,,,,,,,,,,,,,,,,,,,,,,,,,,,,,,,,,,,,,,,,,,,,,,,,,,,,,,,,,,,,,,
,,3,1.3028,3,1.3028,0,24,24,61,1,71,broom,rose,,88813,001,2022-04-26_11h37.39.358,SPAMnetsValid,2021.1.4,MacIntel,60.0060006,,,,,,,,,,,,,,,,,,,,,,,,,,,,,,,,,,,,,,,,,,,,,,,,,,,,,,,,,,,,,,,,,,,,,,,,,,,,,,,,,,,,,,,,,
,,8,1.2246,8,1.2246,0,25,25,58,1,94,kitchen,microwave,,88813,001,2022-04-26_11h37.39.358,SPAMnetsValid,2021.1.4,MacIntel,60.0060006,,,,,,,,,,,,,,,,,,,,,,,,,,,,,,,,,,,,,,,,,,,,,,,,,,,,,,,,,,,,,,,,,,,,,,,,,,,,,,,,,,,,,,,,,
,,2,1.2708,2,1.2708,0,26,26,9,1,75,cookie,onion,,88813,001,2022-04-26_11h37.39.358,SPAMnetsValid,2021.1.4,MacIntel,60.0060006,,,,,,,,,,,,,,,,,,,,,,,,,,,,,,,,,,,,,,,,,,,,,,,,,,,,,,,,,,,,,,,,,,,,,,,,,,,,,,,,,,,,,,,,,
,,6,1.3391,6,1.3391,0,27,27,76,1,36,broom,kitchen,,88813,001,2022-04-26_11h37.39.358,SPAMnetsValid,2021.1.4,MacIntel,60.0060006,,,,,,,,,,,,,,,,,,,,,,,,,,,,,,,,,,,,,,,,,,,,,,,,,,,,,,,,,,,,,,,,,,,,,,,,,,,,,,,,,,,,,,,,,
,,8,1.1859,8,1.1859,0,28,28,82,1,93,kitchen,oven,,88813,001,2022-04-26_11h37.39.358,SPAMnetsValid,2021.1.4,MacIntel,60.0060006,,,,,,,,,,,,,,,,,,,,,,,,,,,,,,,,,,,,,,,,,,,,,,,,,,,,,,,,,,,,,,,,,,,,,,,,,,,,,,,,,,,,,,,,,
,,2,1.606,2,1.606,0,29,29,29,1,42,garden,kitchen,,88813,001,2022-04-26_11h37.39.358,SPAMnetsValid,2021.1.4,MacIntel,60.0060006,,,,,,,,,,,,,,,,,,,,,,,,,,,,,,,,,,,,,,,,,,,,,,,,,,,,,,,,,,,,,,,,,,,,,,,,,,,,,,,,,,,,,,,,,
,,2,1.3727,2,1.3727,0,30,30,12,1,67,flower,yogurt,,88813,001,2022-04-26_11h37.39.358,SPAMnetsValid,2021.1.4,MacIntel,60.0060006,,,,,,,,,,,,,,,,,,,,,,,,,,,,,,,,,,,,,,,,,,,,,,,,,,,,,,,,,,,,,,,,,,,,,,,,,,,,,,,,,,,,,,,,,
,,1,1.5565,1,1.5565,0,31,31,46,1,41,broom,cactus,,88813,001,2022-04-26_11h37.39.358,SPAMnetsValid,2021.1.4,MacIntel,60.0060006,,,,,,,,,,,,,,,,,,,,,,,,,,,,,,,,,,,,,,,,,,,,,,,,,,,,,,,,,,,,,,,,,,,,,,,,,,,,,,,,,,,,,,,,,
,,1,1.3842,1,1.3842,0,32,32,69,1,45,onion,pretzel,,88813,001,2022-04-26_11h37.39.358,SPAMnetsValid,2021.1.4,MacIntel,60.0060006,,,,,,,,,,,,,,,,,,,,,,,,,,,,,,,,,,,,,,,,,,,,,,,,,,,,,,,,,,,,,,,,,,,,,,,,,,,,,,,,,,,,,,,,,
,,3,1.5756,3,1.5756,0,33,33,71,1,38,pretzel,refrigerator,,88813,001,2022-04-26_11h37.39.358,SPAMnetsValid,2021.1.4,MacIntel,60.0060006,,,,,,,,,,,,,,,,,,,,,,,,,,,,,,,,,,,,,,,,,,,,,,,,,,,,,,,,,,,,,,,,,,,,,,,,,,,,,,,,,,,,,,,,,
,,2,1.4691,2,1.4691,0,34,34,79,1,86,oven,rose,,88813,001,2022-04-26_11h37.39.358,SPAMnetsValid,2021.1.4,MacIntel,60.0060006,,,,,,,,,,,,,,,,,,,,,,,,,,,,,,,,,,,,,,,,,,,,,,,,,,,,,,,,,,,,,,,,,,,,,,,,,,,,,,,,,,,,,,,,,
,,6,1.6165,6,1.6165,0,35,35,80,1,61,strawberry,tomato,,88813,001,2022-04-26_11h37.39.358,SPAMnetsValid,2021.1.4,MacIntel,60.0060006,,,,,,,,,,,,,,,,,,,,,,,,,,,,,,,,,,,,,,,,,,,,,,,,,,,,,,,,,,,,,,,,,,,,,,,,,,,,,,,,,,,,,,,,,
,,4,1.922,4,1.922,0,36,36,36,1,12,cookie,yogurt,,88813,001,2022-04-26_11h37.39.358,SPAMnetsValid,2021.1.4,MacIntel,60.0060006,,,,,,,,,,,,,,,,,,,,,,,,,,,,,,,,,,,,,,,,,,,,,,,,,,,,,,,,,,,,,,,,,,,,,,,,,,,,,,,,,,,,,,,,,
,,3,1.6094,3,1.6094,0,37,37,3,1,49,flower,strawberry,,88813,001,2022-04-26_11h37.39.358,SPAMnetsValid,2021.1.4,MacIntel,60.0060006,,,,,,,,,,,,,,,,,,,,,,,,,,,,,,,,,,,,,,,,,,,,,,,,,,,,,,,,,,,,,,,,,,,,,,,,,,,,,,,,,,,,,,,,,
,,3,1.1288,3,1.1288,0,38,38,15,1,48,flower,oven,,88813,001,2022-04-26_11h37.39.358,SPAMnetsValid,2021.1.4,MacIntel,60.0060006,,,,,,,,,,,,,,,,,,,,,,,,,,,,,,,,,,,,,,,,,,,,,,,,,,,,,,,,,,,,,,,,,,,,,,,,,,,,,,,,,,,,,,,,,
,,2,1.0424,2,1.0424,0,39,39,22,1,16,chocolate,flower,,88813,001,2022-04-26_11h37.39.358,SPAMnetsValid,2021.1.4,MacIntel,60.0060006,,,,,,,,,,,,,,,,,,,,,,,,,,,,,,,,,,,,,,,,,,,,,,,,,,,,,,,,,,,,,,,,,,,,,,,,,,,,,,,,,,,,,,,,,
,,2,1.1534,2,1.1534,0,40,40,31,1,33,oven,yogurt,,88813,001,2022-04-26_11h37.39.358,SPAMnetsValid,2021.1.4,MacIntel,60.0060006,,,,,,,,,,,,,,,,,,,,,,,,,,,,,,,,,,,,,,,,,,,,,,,,,,,,,,,,,,,,,,,,,,,,,,,,,,,,,,,,,,,,,,,,,
,,9,2.3757,9,2.3757,0,41,41,10,1,191,cake,cake,CHECK,88813,001,2022-04-26_11h37.39.358,SPAMnetsValid,2021.1.4,MacIntel,60.0060006,,,,,,,,,,,,,,,,,,,,,,,,,,,,,,,,,,,,,,,,,,,,,,,,,,,,,,,,,,,,,,,,,,,,,,,,,,,,,,,,,,,,,,,,,
,,4,1.3026,4,1.3026,0,42,42,44,1,25,carrot,onion,,88813,001,2022-04-26_11h37.39.358,SPAMnetsValid,2021.1.4,MacIntel,60.0060006,,,,,,,,,,,,,,,,,,,,,,,,,,,,,,,,,,,,,,,,,,,,,,,,,,,,,,,,,,,,,,,,,,,,,,,,,,,,,,,,,,,,,,,,,
,,7,1.9268,7,1.9268,0,43,43,30,1,3,cake,oven,,88813,001,2022-04-26_11h37.39.358,SPAMnetsValid,2021.1.4,MacIntel,60.0060006,,,,,,,,,,,,,,,,,,,,,,,,,,,,,,,,,,,,,,,,,,,,,,,,,,,,,,,,,,,,,,,,,,,,,,,,,,,,,,,,,,,,,,,,,
,,3,1.5735,3,1.5735,0,44,44,8,1,43,chocolate,tomato,,88813,001,2022-04-26_11h37.39.358,SPAMnetsValid,2021.1.4,MacIntel,60.0060006,,,,,,,,,,,,,,,,,,,,,,,,,,,,,,,,,,,,,,,,,,,,,,,,,,,,,,,,,,,,,,,,,,,,,,,,,,,,,,,,,,,,,,,,,
,,3,1.3401,3,1.3401,0,45,45,47,1,73,broom,chocolate,,88813,001,2022-04-26_11h37.39.358,SPAMnetsValid,2021.1.4,MacIntel,60.0060006,,,,,,,,,,,,,,,,,,,,,,,,,,,,,,,,,,,,,,,,,,,,,,,,,,,,,,,,,,,,,,,,,,,,,,,,,,,,,,,,,,,,,,,,,
,,2,2.3276,2,2.3276,0,46,46,0,1,53,garden,pretzel,,88813,001,2022-04-26_11h37.39.358,SPAMnetsValid,2021.1.4,MacIntel,60.0060006,,,,,,,,,,,,,,,,,,,,,,,,,,,,,,,,,,,,,,,,,,,,,,,,,,,,,,,,,,,,,,,,,,,,,,,,,,,,,,,,,,,,,,,,,
,,6,1.2892,6,1.2892,0,47,47,2,1,22,kitchen,strawberry,,88813,001,2022-04-26_11h37.39.358,SPAMnetsValid,2021.1.4,MacIntel,60.0060006,,,,,,,,,,,,,,,,,,,,,,,,,,,,,,,,,,,,,,,,,,,,,,,,,,,,,,,,,,,,,,,,,,,,,,,,,,,,,,,,,,,,,,,,,
,,3,1.561,3,1.561,0,48,48,78,1,30,cookie,pretzel,,88813,001,2022-04-26_11h37.39.358,SPAMnetsValid,2021.1.4,MacIntel,60.0060006,,,,,,,,,,,,,,,,,,,,,,,,,,,,,,,,,,,,,,,,,,,,,,,,,,,,,,,,,,,,,,,,,,,,,,,,,,,,,,,,,,,,,,,,,
,,8,1.7639,8,1.7639,0,49,49,93,1,63,cake,cookie,,88813,001,2022-04-26_11h37.39.358,SPAMnetsValid,2021.1.4,MacIntel,60.0060006,,,,,,,,,,,,,,,,,,,,,,,,,,,,,,,,,,,,,,,,,,,,,,,,,,,,,,,,,,,,,,,,,,,,,,,,,,,,,,,,,,,,,,,,,
,,1,1.7386,1,1.7386,0,50,50,11,1,37,garden,refrigerator,,88813,001,2022-04-26_11h37.39.358,SPAMnetsValid,2021.1.4,MacIntel,60.0060006,,,,,,,,,,,,,,,,,,,,,,,,,,,,,,,,,,,,,,,,,,,,,,,,,,,,,,,,,,,,,,,,,,,,,,,,,,,,,,,,,,,,,,,,,
,,1,1.3458,1,1.3458,0,51,51,81,1,60,cactus,onion,,88813,001,2022-04-26_11h37.39.358,SPAMnetsValid,2021.1.4,MacIntel,60.0060006,,,,,,,,,,,,,,,,,,,,,,,,,,,,,,,,,,,,,,,,,,,,,,,,,,,,,,,,,,,,,,,,,,,,,,,,,,,,,,,,,,,,,,,,,
,,1,2.4752,1,2.4752,0,52,52,59,1,8,broom,melon,,88813,001,2022-04-26_11h37.39.358,SPAMnetsValid,2021.1.4,MacIntel,60.0060006,,,,,,,,,,,,,,,,,,,,,,,,,,,,,,,,,,,,,,,,,,,,,,,,,,,,,,,,,,,,,,,,,,,,,,,,,,,,,,,,,,,,,,,,,
,,1,1.4487,1,1.4487,0,53,53,7,1,34,melon,oven,,88813,001,2022-04-26_11h37.39.358,SPAMnetsValid,2021.1.4,MacIntel,60.0060006,,,,,,,,,,,,,,,,,,,,,,,,,,,,,,,,,,,,,,,,,,,,,,,,,,,,,,,,,,,,,,,,,,,,,,,,,,,,,,,,,,,,,,,,,
,,8,1.5484,8,1.5484,0,54,54,42,1,77,refrigerator,yogurt,,88813,001,2022-04-26_11h37.39.358,SPAMnetsValid,2021.1.4,MacIntel,60.0060006,,,,,,,,,,,,,,,,,,,,,,,,,,,,,,,,,,,,,,,,,,,,,,,,,,,,,,,,,,,,,,,,,,,,,,,,,,,,,,,,,,,,,,,,,
,,4,1.2369,4,1.2369,0,55,55,68,1,24,cookie,tomato,,88813,001,2022-04-26_11h37.39.358,SPAMnetsValid,2021.1.4,MacIntel,60.0060006,,,,,,,,,,,,,,,,,,,,,,,,,,,,,,,,,,,,,,,,,,,,,,,,,,,,,,,,,,,,,,,,,,,,,,,,,,,,,,,,,,,,,,,,,
,,4,1.1206,4,1.1206,0,56,56,24,1,17,carrot,melon,,88813,001,2022-04-26_11h37.39.358,SPAMnetsValid,2021.1.4,MacIntel,60.0060006,,,,,,,,,,,,,,,,,,,,,,,,,,,,,,,,,,,,,,,,,,,,,,,,,,,,,,,,,,,,,,,,,,,,,,,,,,,,,,,,,,,,,,,,,
,,3,1.2545,3,1.2545,0,57,57,55,1,1,rose,yogurt,,88813,001,2022-04-26_11h37.39.358,SPAMnetsValid,2021.1.4,MacIntel,60.0060006,,,,,,,,,,,,,,,,,,,,,,,,,,,,,,,,,,,,,,,,,,,,,,,,,,,,,,,,,,,,,,,,,,,,,,,,,,,,,,,,,,,,,,,,,
,,2,1.4558,2,1.4558,0,58,58,14,1,64,chocolate,garden,,88813,001,2022-04-26_11h37.39.358,SPAMnetsValid,2021.1.4,MacIntel,60.0060006,,,,,,,,,,,,,,,,,,,,,,,,,,,,,,,,,,,,,,,,,,,,,,,,,,,,,,,,,,,,,,,,,,,,,,,,,,,,,,,,,,,,,,,,,
,,5,2.3923,5,2.3923,0,59,59,28,1,84,oven,tomato,,88813,001,2022-04-26_11h37.39.358,SPAMnetsValid,2021.1.4,MacIntel,60.0060006,,,,,,,,,,,,,,,,,,,,,,,,,,,,,,,,,,,,,,,,,,,,,,,,,,,,,,,,,,,,,,,,,,,,,,,,,,,,,,,,,,,,,,,,,
,,5,3.4379,5,3.4379,0,60,60,51,1,47,onion,tomato,,88813,001,2022-04-26_11h37.39.358,SPAMnetsValid,2021.1.4,MacIntel,60.0060006,,,,,,,,,,,,,,,,,,,,,,,,,,,,,,,,,,,,,,,,,,,,,,,,,,,,,,,,,,,,,,,,,,,,,,,,,,,,,,,,,,,,,,,,,
,,3,1.4306,3,1.4306,0,61,61,43,1,11,refrigerator,tree,,88813,001,2022-04-26_11h37.39.358,SPAMnetsValid,2021.1.4,MacIntel,60.0060006,,,,,,,,,,,,,,,,,,,,,,,,,,,,,,,,,,,,,,,,,,,,,,,,,,,,,,,,,,,,,,,,,,,,,,,,,,,,,,,,,,,,,,,,,
,,6,1.6653,6,1.6653,0,62,62,91,1,2,kitchen,onion,,88813,001,2022-04-26_11h37.39.358,SPAMnetsValid,2021.1.4,MacIntel,60.0060006,,,,,,,,,,,,,,,,,,,,,,,,,,,,,,,,,,,,,,,,,,,,,,,,,,,,,,,,,,,,,,,,,,,,,,,,,,,,,,,,,,,,,,,,,
,,4,1.3502,4,1.3502,0,63,63,16,1,14,broom,cookie,,88813,001,2022-04-26_11h37.39.358,SPAMnetsValid,2021.1.4,MacIntel,60.0060006,,,,,,,,,,,,,,,,,,,,,,,,,,,,,,,,,,,,,,,,,,,,,,,,,,,,,,,,,,,,,,,,,,,,,,,,,,,,,,,,,,,,,,,,,
,,2,1.1779,2,1.1779,0,64,64,60,1,89,chocolate,rose,,88813,001,2022-04-26_11h37.39.358,SPAMnetsValid,2021.1.4,MacIntel,60.0060006,,,,,,,,,,,,,,,,,,,,,,,,,,,,,,,,,,,,,,,,,,,,,,,,,,,,,,,,,,,,,,,,,,,,,,,,,,,,,,,,,,,,,,,,,
,,2,1.2342,2,1.2342,0,65,65,86,1,51,onion,strawberry,,88813,001,2022-04-26_11h37.39.358,SPAMnetsValid,2021.1.4,MacIntel,60.0060006,,,,,,,,,,,,,,,,,,,,,,,,,,,,,,,,,,,,,,,,,,,,,,,,,,,,,,,,,,,,,,,,,,,,,,,,,,,,,,,,,,,,,,,,,
,,3,1.4391,3,1.4391,0,66,66,20,1,39,melon,pretzel,,88813,001,2022-04-26_11h37.39.358,SPAMnetsValid,2021.1.4,MacIntel,60.0060006,,,,,,,,,,,,,,,,,,,,,,,,,,,,,,,,,,,,,,,,,,,,,,,,,,,,,,,,,,,,,,,,,,,,,,,,,,,,,,,,,,,,,,,,,
,,1,1.5499,1,1.5499,0,67,67,37,1,58,garden,oven,,88813,001,2022-04-26_11h37.39.358,SPAMnetsValid,2021.1.4,MacIntel,60.0060006,,,,,,,,,,,,,,,,,,,,,,,,,,,,,,,,,,,,,,,,,,,,,,,,,,,,,,,,,,,,,,,,,,,,,,,,,,,,,,,,,,,,,,,,,
,,1,1.9003,1,1.9003,0,68,68,70,1,5,oven,tree,,88813,001,2022-04-26_11h37.39.358,SPAMnetsValid,2021.1.4,MacIntel,60.0060006,,,,,,,,,,,,,,,,,,,,,,,,,,,,,,,,,,,,,,,,,,,,,,,,,,,,,,,,,,,,,,,,,,,,,,,,,,,,,,,,,,,,,,,,,
,,2,1.7396,2,1.7396,0,69,69,49,1,57,flower,kitchen,,88813,001,2022-04-26_11h37.39.358,SPAMnetsValid,2021.1.4,MacIntel,60.0060006,,,,,,,,,,,,,,,,,,,,,,,,,,,,,,,,,,,,,,,,,,,,,,,,,,,,,,,,,,,,,,,,,,,,,,,,,,,,,,,,,,,,,,,,,
,,3,2.1617,3,2.1617,0,70,70,39,1,15,onion,oven,,88813,001,2022-04-26_11h37.39.358,SPAMnetsValid,2021.1.4,MacIntel,60.0060006,,,,,,,,,,,,,,,,,,,,,,,,,,,,,,,,,,,,,,,,,,,,,,,,,,,,,,,,,,,,,,,,,,,,,,,,,,,,,,,,,,,,,,,,,
,,2,1.3892,2,1.3892,0,71,71,41,1,19,microwave,pretzel,,88813,001,2022-04-26_11h37.39.358,SPAMnetsValid,2021.1.4,MacIntel,60.0060006,,,,,,,,,,,,,,,,,,,,,,,,,,,,,,,,,,,,,,,,,,,,,,,,,,,,,,,,,,,,,,,,,,,,,,,,,,,,,,,,,,,,,,,,,
,,2,1.4838,2,1.4838,0,72,72,13,1,26,tomato,yogurt,,88813,001,2022-04-26_11h37.39.358,SPAMnetsValid,2021.1.4,MacIntel,60.0060006,,,,,,,,,,,,,,,,,,,,,,,,,,,,,,,,,,,,,,,,,,,,,,,,,,,,,,,,,,,,,,,,,,,,,,,,,,,,,,,,,,,,,,,,,
,,2,1.4459,2,1.4459,0,73,73,62,1,18,onion,refrigerator,,88813,001,2022-04-26_11h37.39.358,SPAMnetsValid,2021.1.4,MacIntel,60.0060006,,,,,,,,,,,,,,,,,,,,,,,,,,,,,,,,,,,,,,,,,,,,,,,,,,,,,,,,,,,,,,,,,,,,,,,,,,,,,,,,,,,,,,,,,
,,2,1.6214,2,1.6214,0,74,74,34,1,29,chocolate,melon,,88813,001,2022-04-26_11h37.39.358,SPAMnetsValid,2021.1.4,MacIntel,60.0060006,,,,,,,,,,,,,,,,,,,,,,,,,,,,,,,,,,,,,,,,,,,,,,,,,,,,,,,,,,,,,,,,,,,,,,,,,,,,,,,,,,,,,,,,,
,,2,1.3055,2,1.3055,0,75,75,45,1,10,flower,onion,,88813,001,2022-04-26_11h37.39.358,SPAMnetsValid,2021.1.4,MacIntel,60.0060006,,,,,,,,,,,,,,,,,,,,,,,,,,,,,,,,,,,,,,,,,,,,,,,,,,,,,,,,,,,,,,,,,,,,,,,,,,,,,,,,,,,,,,,,,
,,2,1.3915,2,1.3915,0,76,76,88,1,92,broom,flower,,88813,001,2022-04-26_11h37.39.358,SPAMnetsValid,2021.1.4,MacIntel,60.0060006,,,,,,,,,,,,,,,,,,,,,,,,,,,,,,,,,,,,,,,,,,,,,,,,,,,,,,,,,,,,,,,,,,,,,,,,,,,,,,,,,,,,,,,,,
,,2,1.5926,2,1.5926,0,77,77,89,1,80,chocolate,tree,,88813,001,2022-04-26_11h37.39.358,SPAMnetsValid,2021.1.4,MacIntel,60.0060006,,,,,,,,,,,,,,,,,,,,,,,,,,,,,,,,,,,,,,,,,,,,,,,,,,,,,,,,,,,,,,,,,,,,,,,,,,,,,,,,,,,,,,,,,
,,8,1.4871,8,1.4871,0,78,78,19,1,76,garden,rose,,88813,001,2022-04-26_11h37.39.358,SPAMnetsValid,2021.1.4,MacIntel,60.0060006,,,,,,,,,,,,,,,,,,,,,,,,,,,,,,,,,,,,,,,,,,,,,,,,,,,,,,,,,,,,,,,,,,,,,,,,,,,,,,,,,,,,,,,,,
,,3,7.2538,3,7.2538,0,79,79,90,1,95,broom,refrigerator,,88813,001,2022-04-26_11h37.39.358,SPAMnetsValid,2021.1.4,MacIntel,60.0060006,,,,,,,,,,,,,,,,,,,,,,,,,,,,,,,,,,,,,,,,,,,,,,,,,,,,,,,,,,,,,,,,,,,,,,,,,,,,,,,,,,,,,,,,,
,,1,1.453,1,1.453,0,80,80,23,1,65,broom,garden,,88813,001,2022-04-26_11h37.39.358,SPAMnetsValid,2021.1.4,MacIntel,60.0060006,,,,,,,,,,,,,,,,,,,,,,,,,,,,,,,,,,,,,,,,,,,,,,,,,,,,,,,,,,,,,,,,,,,,,,,,,,,,,,,,,,,,,,,,,
,,4,1.6451,4,1.6451,0,81,81,92,1,44,cookie,melon,,88813,001,2022-04-26_11h37.39.358,SPAMnetsValid,2021.1.4,MacIntel,60.0060006,,,,,,,,,,,,,,,,,,,,,,,,,,,,,,,,,,,,,,,,,,,,,,,,,,,,,,,,,,,,,,,,,,,,,,,,,,,,,,,,,,,,,,,,,
,,2,1.0883,2,1.0883,0,82,82,1,1,31,cactus,pretzel,,88813,001,2022-04-26_11h37.39.358,SPAMnetsValid,2021.1.4,MacIntel,60.0060006,,,,,,,,,,,,,,,,,,,,,,,,,,,,,,,,,,,,,,,,,,,,,,,,,,,,,,,,,,,,,,,,,,,,,,,,,,,,,,,,,,,,,,,,,
,,6,2.8796,6,2.8796,0,83,83,87,1,79,garden,strawberry,,88813,001,2022-04-26_11h37.39.358,SPAMnetsValid,2021.1.4,MacIntel,60.0060006,,,,,,,,,,,,,,,,,,,,,,,,,,,,,,,,,,,,,,,,,,,,,,,,,,,,,,,,,,,,,,,,,,,,,,,,,,,,,,,,,,,,,,,,,
,,4,2.033,4,2.033,0,84,84,33,1,32,cake,microwave,,88813,001,2022-04-26_11h37.39.358,SPAMnetsValid,2021.1.4,MacIntel,60.0060006,,,,,,,,,,,,,,,,,,,,,,,,,,,,,,,,,,,,,,,,,,,,,,,,,,,,,,,,,,,,,,,,,,,,,,,,,,,,,,,,,,,,,,,,,
,,3,1.5361,3,1.5361,0,85,85,18,1,85,cake,tree,,88813,001,2022-04-26_11h37.39.358,SPAMnetsValid,2021.1.4,MacIntel,60.0060006,,,,,,,,,,,,,,,,,,,,,,,,,,,,,,,,,,,,,,,,,,,,,,,,,,,,,,,,,,,,,,,,,,,,,,,,,,,,,,,,,,,,,,,,,
,,2,1.1863,2,1.1863,0,86,86,52,1,4,chocolate,pretzel,,88813,001,2022-04-26_11h37.39.358,SPAMnetsValid,2021.1.4,MacIntel,60.0060006,,,,,,,,,,,,,,,,,,,,,,,,,,,,,,,,,,,,,,,,,,,,,,,,,,,,,,,,,,,,,,,,,,,,,,,,,,,,,,,,,,,,,,,,,
,,2,1.4028,2,1.4028,0,87,87,57,1,62,kitchen,rose,,88813,001,2022-04-26_11h37.39.358,SPAMnetsValid,2021.1.4,MacIntel,60.0060006,,,,,,,,,,,,,,,,,,,,,,,,,,,,,,,,,,,,,,,,,,,,,,,,,,,,,,,,,,,,,,,,,,,,,,,,,,,,,,,,,,,,,,,,,
,,2,1.2789,2,1.2789,0,88,88,27,1,72,broom,onion,,88813,001,2022-04-26_11h37.39.358,SPAMnetsValid,2021.1.4,MacIntel,60.0060006,,,,,,,,,,,,,,,,,,,,,,,,,,,,,,,,,,,,,,,,,,,,,,,,,,,,,,,,,,,,,,,,,,,,,,,,,,,,,,,,,,,,,,,,,
,,2,1.4612,2,1.4612,0,89,89,56,1,78,cookie,rose,,88813,001,2022-04-26_11h37.39.358,SPAMnetsValid,2021.1.4,MacIntel,60.0060006,,,,,,,,,,,,,,,,,,,,,,,,,,,,,,,,,,,,,,,,,,,,,,,,,,,,,,,,,,,,,,,,,,,,,,,,,,,,,,,,,,,,,,,,,
,,2,1.493,2,1.493,0,90,90,6,1,87,carrot,yogurt,,88813,001,2022-04-26_11h37.39.358,SPAMnetsValid,2021.1.4,MacIntel,60.0060006,,,,,,,,,,,,,,,,,,,,,,,,,,,,,,,,,,,,,,,,,,,,,,,,,,,,,,,,,,,,,,,,,,,,,,,,,,,,,,,,,,,,,,,,,
,,2,1.3214,2,1.3214,0,91,91,38,1,88,cactus,melon,,88813,001,2022-04-26_11h37.39.358,SPAMnetsValid,2021.1.4,MacIntel,60.0060006,,,,,,,,,,,,,,,,,,,,,,,,,,,,,,,,,,,,,,,,,,,,,,,,,,,,,,,,,,,,,,,,,,,,,,,,,,,,,,,,,,,,,,,,,
,,8,1.2383,8,1.2383,0,92,92,64,1,9,kitchen,refrigerator,,88813,001,2022-04-26_11h37.39.358,SPAMnetsValid,2021.1.4,MacIntel,60.0060006,,,,,,,,,,,,,,,,,,,,,,,,,,,,,,,,,,,,,,,,,,,,,,,,,,,,,,,,,,,,,,,,,,,,,,,,,,,,,,,,,,,,,,,,,
,,4,1.6723,4,1.6723,0,93,93,35,1,55,tomato,tree,,88813,001,2022-04-26_11h37.39.358,SPAMnetsValid,2021.1.4,MacIntel,60.0060006,,,,,,,,,,,,,,,,,,,,,,,,,,,,,,,,,,,,,,,,,,,,,,,,,,,,,,,,,,,,,,,,,,,,,,,,,,,,,,,,,,,,,,,,,
,,4,1.0395,4,1.0395,0,94,94,67,1,54,chocolate,yogurt,,88813,001,2022-04-26_11h37.39.358,SPAMnetsValid,2021.1.4,MacIntel,60.0060006,,,,,,,,,,,,,,,,,,,,,,,,,,,,,,,,,,,,,,,,,,,,,,,,,,,,,,,,,,,,,,,,,,,,,,,,,,,,,,,,,,,,,,,,,
,,3,1.1531,3,1.1531,0,95,95,4,1,83,broom,carrot,,88813,001,2022-04-26_11h37.39.358,SPAMnetsValid,2021.1.4,MacIntel,60.0060006,,,,,,,,,,,,,,,,,,,,,,,,,,,,,,,,,,,,,,,,,,,,,,,,,,,,,,,,,,,,,,,,,,,,,,,,,,,,,,,,,,,,,,,,,
,,7,5.572,7,5.572,0,96,96,96,1,82,cake,kitchen,,88813,001,2022-04-26_11h37.39.358,SPAMnetsValid,2021.1.4,MacIntel,60.0060006,,,,,,,,,,,,,,,,,,,,,,,,,,,,,,,,,,,,,,,,,,,,,,,,,,,,,,,,,,,,,,,,,,,,,,,,,,,,,,,,,,,,,,,,,
,,,,,,,,,,,,,,,88813,001,2022-04-26_11h37.39.358,SPAMnetsValid,2021.1.4,MacIntel,60.0060006,0,0,0,0,1,,,,,,,,,,,,,,,,,,,,,,,,,,,,,,,,,,,,,,,,,,,,,,,,,,,,,,,,,,,,,,,,,,,,,,,,,,,,,,,,,,,,
,,,,,,,,,,,,,,,88813,001,2022-04-26_11h37.39.358,SPAMnetsValid,2021.1.4,MacIntel,60.0060006,,,,,,0,0,0,0,1,1,0,,,,,,,,,,,,,,,,,,,,,,,,,,,,,,,,,,,,,,,,,,,,,,,,,,,,,,,,,,,,,,,,,,,,,,,,,,,,,
,,,,4,1.7103,,,,,,137,microwave,tree,,88813,001,2022-04-26_11h37.39.358,SPAMnetsValid,2021.1.4,MacIntel,60.0060006,,,,,,,,,,,,,4,1.7103,0,0,0,63,1,,,,,,,,,,,,,,,,,,,,,,,,,,,,,,,,,,,,,,,,,,,,,,,,,,,,,,,,,,,,,,,,,,,,,,
,,,,2,0.926,,,,,,156,melon,rose,,88813,001,2022-04-26_11h37.39.358,SPAMnetsValid,2021.1.4,MacIntel,60.0060006,,,,,,,,,,,,,2,0.926,0,1,1,31,1,,,,,,,,,,,,,,,,,,,,,,,,,,,,,,,,,,,,,,,,,,,,,,,,,,,,,,,,,,,,,,,,,,,,,,
,,,,2,1.144,,,,,,129,cactus,refrigerator,,88813,001,2022-04-26_11h37.39.358,SPAMnetsValid,2021.1.4,MacIntel,60.0060006,,,,,,,,,,,,,2,1.144,0,2,2,3,1,,,,,,,,,,,,,,,,,,,,,,,,,,,,,,,,,,,,,,,,,,,,,,,,,,,,,,,,,,,,,,,,,,,,,,
,,,,9,1.4393,,,,,,193,melon,melon,CHECK,88813,001,2022-04-26_11h37.39.358,SPAMnetsValid,2021.1.4,MacIntel,60.0060006,,,,,,,,,,,,,9,1.4393,0,3,3,86,1,,,,,,,,,,,,,,,,,,,,,,,,,,,,,,,,,,,,,,,,,,,,,,,,,,,,,,,,,,,,,,,,,,,,,,
,,,,6,1.3839,,,,,,117,melon,strawberry,,88813,001,2022-04-26_11h37.39.358,SPAMnetsValid,2021.1.4,MacIntel,60.0060006,,,,,,,,,,,,,6,1.3839,0,4,4,11,1,,,,,,,,,,,,,,,,,,,,,,,,,,,,,,,,,,,,,,,,,,,,,,,,,,,,,,,,,,,,,,,,,,,,,,
,,,,3,1.0344,,,,,,98,pretzel,strawberry,,88813,001,2022-04-26_11h37.39.358,SPAMnetsValid,2021.1.4,MacIntel,60.0060006,,,,,,,,,,,,,3,1.0344,0,5,5,82,1,,,,,,,,,,,,,,,,,,,,,,,,,,,,,,,,,,,,,,,,,,,,,,,,,,,,,,,,,,,,,,,,,,,,,,
,,,,3,0.9037,,,,,,146,pretzel,tree,,88813,001,2022-04-26_11h37.39.358,SPAMnetsValid,2021.1.4,MacIntel,60.0060006,,,,,,,,,,,,,3,0.9037,0,6,6,80,1,,,,,,,,,,,,,,,,,,,,,,,,,,,,,,,,,,,,,,,,,,,,,,,,,,,,,,,,,,,,,,,,,,,,,,
,,,,3,0.9294,,,,,,127,cactus,chocolate,,88813,001,2022-04-26_11h37.39.358,SPAMnetsValid,2021.1.4,MacIntel,60.0060006,,,,,,,,,,,,,3,0.9294,0,7,7,57,1,,,,,,,,,,,,,,,,,,,,,,,,,,,,,,,,,,,,,,,,,,,,,,,,,,,,,,,,,,,,,,,,,,,,,,
,,,,3,0.9795,,,,,,111,carrot,microwave,,88813,001,2022-04-26_11h37.39.358,SPAMnetsValid,2021.1.4,MacIntel,60.0060006,,,,,,,,,,,,,3,0.9795,0,8,8,16,1,,,,,,,,,,,,,,,,,,,,,,,,,,,,,,,,,,,,,,,,,,,,,,,,,,,,,,,,,,,,,,,,,,,,,,
,,,,2,1.1391,,,,,,189,onion,tree,,88813,001,2022-04-26_11h37.39.358,SPAMnetsValid,2021.1.4,MacIntel,60.0060006,,,,,,,,,,,,,2,1.1391,0,9,9,62,1,,,,,,,,,,,,,,,,,,,,,,,,,,,,,,,,,,,,,,,,,,,,,,,,,,,,,,,,,,,,,,,,,,,,,,
,,,,6,0.954,,,,,,170,cookie,microwave,,88813,001,2022-04-26_11h37.39.358,SPAMnetsValid,2021.1.4,MacIntel,60.0060006,,,,,,,,,,,,,6,0.954,0,10,10,92,1,,,,,,,,,,,,,,,,,,,,,,,,,,,,,,,,,,,,,,,,,,,,,,,,,,,,,,,,,,,,,,,,,,,,,,
,,,,6,1.77,,,,,,168,cactus,flower,,88813,001,2022-04-26_11h37.39.358,SPAMnetsValid,2021.1.4,MacIntel,60.0060006,,,,,,,,,,,,,6,1.77,0,11,11,51,1,,,,,,,,,,,,,,,,,,,,,,,,,,,,,,,,,,,,,,,,,,,,,,,,,,,,,,,,,,,,,,,,,,,,,,
,,,,8,1.8033,,,,,,110,chocolate,cookie,,88813,001,2022-04-26_11h37.39.358,SPAMnetsValid,2021.1.4,MacIntel,60.0060006,,,,,,,,,,,,,8,1.8033,0,12,12,52,1,,,,,,,,,,,,,,,,,,,,,,,,,,,,,,,,,,,,,,,,,,,,,,,,,,,,,,,,,,,,,,,,,,,,,,
,,,,3,1.2532,,,,,,126,kitchen,tree,,88813,001,2022-04-26_11h37.39.358,SPAMnetsValid,2021.1.4,MacIntel,60.0060006,,,,,,,,,,,,,3,1.2532,0,13,13,50,1,,,,,,,,,,,,,,,,,,,,,,,,,,,,,,,,,,,,,,,,,,,,,,,,,,,,,,,,,,,,,,,,,,,,,,
,,,,3,1.2563,,,,,,176,cactus,tomato,,88813,001,2022-04-26_11h37.39.358,SPAMnetsValid,2021.1.4,MacIntel,60.0060006,,,,,,,,,,,,,3,1.2563,0,14,14,9,1,,,,,,,,,,,,,,,,,,,,,,,,,,,,,,,,,,,,,,,,,,,,,,,,,,,,,,,,,,,,,,,,,,,,,,
,,,,2,1.1635,,,,,,99,garden,melon,,88813,001,2022-04-26_11h37.39.358,SPAMnetsValid,2021.1.4,MacIntel,60.0060006,,,,,,,,,,,,,2,1.1635,0,15,15,17,1,,,,,,,,,,,,,,,,,,,,,,,,,,,,,,,,,,,,,,,,,,,,,,,,,,,,,,,,,,,,,,,,,,,,,,
,,,,7,1.3362,,,,,,161,kitchen,pretzel,,88813,001,2022-04-26_11h37.39.358,SPAMnetsValid,2021.1.4,MacIntel,60.0060006,,,,,,,,,,,,,7,1.3362,0,16,16,36,1,,,,,,,,,,,,,,,,,,,,,,,,,,,,,,,,,,,,,,,,,,,,,,,,,,,,,,,,,,,,,,,,,,,,,,
,,,,7,1.0345,,,,,,160,cookie,kitchen,,88813,001,2022-04-26_11h37.39.358,SPAMnetsValid,2021.1.4,MacIntel,60.0060006,,,,,,,,,,,,,7,1.0345,0,17,17,65,1,,,,,,,,,,,,,,,,,,,,,,,,,,,,,,,,,,,,,,,,,,,,,,,,,,,,,,,,,,,,,,,,,,,,,,
,,,,6,1.1458,,,,,,177,chocolate,strawberry,,88813,001,2022-04-26_11h37.39.358,SPAMnetsValid,2021.1.4,MacIntel,60.0060006,,,,,,,,,,,,,6,1.1458,0,18,18,53,1,,,,,,,,,,,,,,,,,,,,,,,,,,,,,,,,,,,,,,,,,,,,,,,,,,,,,,,,,,,,,,,,,,,,,,
,,,,2,1.6028,,,,,,182,flower,refrigerator,,88813,001,2022-04-26_11h37.39.358,SPAMnetsValid,2021.1.4,MacIntel,60.0060006,,,,,,,,,,,,,2,1.6028,0,19,19,32,1,,,,,,,,,,,,,,,,,,,,,,,,,,,,,,,,,,,,,,,,,,,,,,,,,,,,,,,,,,,,,,,,,,,,,,
,,,,3,1.5093,,,,,,103,pretzel,tomato,,88813,001,2022-04-26_11h37.39.358,SPAMnetsValid,2021.1.4,MacIntel,60.0060006,,,,,,,,,,,,,3,1.5093,0,20,20,79,1,,,,,,,,,,,,,,,,,,,,,,,,,,,,,,,,,,,,,,,,,,,,,,,,,,,,,,,,,,,,,,,,,,,,,,
,,,,9,1.244,,,,,,138,flower,rose,,88813,001,2022-04-26_11h37.39.358,SPAMnetsValid,2021.1.4,MacIntel,60.0060006,,,,,,,,,,,,,9,1.244,0,21,21,61,1,,,,,,,,,,,,,,,,,,,,,,,,,,,,,,,,,,,,,,,,,,,,,,,,,,,,,,,,,,,,,,,,,,,,,,
,,,,2,1.9178,,,,,,123,cookie,tree,,88813,001,2022-04-26_11h37.39.358,SPAMnetsValid,2021.1.4,MacIntel,60.0060006,,,,,,,,,,,,,2,1.9178,0,22,22,46,1,,,,,,,,,,,,,,,,,,,,,,,,,,,,,,,,,,,,,,,,,,,,,,,,,,,,,,,,,,,,,,,,,,,,,,
,,,,6,1.2242,,,,,,173,kitchen,tomato,,88813,001,2022-04-26_11h37.39.358,SPAMnetsValid,2021.1.4,MacIntel,60.0060006,,,,,,,,,,,,,6,1.2242,0,23,23,1,1,,,,,,,,,,,,,,,,,,,,,,,,,,,,,,,,,,,,,,,,,,,,,,,,,,,,,,,,,,,,,,,,,,,,,,
,,,,6,1.5778,,,,,,153,carrot,pretzel,,88813,001,2022-04-26_11h37.39.358,SPAMnetsValid,2021.1.4,MacIntel,60.0060006,,,,,,,,,,,,,6,1.5778,0,24,24,34,1,,,,,,,,,,,,,,,,,,,,,,,,,,,,,,,,,,,,,,,,,,,,,,,,,,,,,,,,,,,,,,,,,,,,,,
,,,,3,1.5217,,,,,,149,broom,tomato,,88813,001,2022-04-26_11h37.39.358,SPAMnetsValid,2021.1.4,MacIntel,60.0060006,,,,,,,,,,,,,3,1.5217,0,25,25,20,1,,,,,,,,,,,,,,,,,,,,,,,,,,,,,,,,,,,,,,,,,,,,,,,,,,,,,,,,,,,,,,,,,,,,,,
,,,,2,1.4756,,,,,,128,melon,microwave,,88813,001,2022-04-26_11h37.39.358,SPAMnetsValid,2021.1.4,MacIntel,60.0060006,,,,,,,,,,,,,2,1.4756,0,26,26,74,1,,,,,,,,,,,,,,,,,,,,,,,,,,,,,,,,,,,,,,,,,,,,,,,,,,,,,,,,,,,,,,,,,,,,,,
,,,,2,1.3852,,,,,,155,carrot,cookie,,88813,001,2022-04-26_11h37.39.358,SPAMnetsValid,2021.1.4,MacIntel,60.0060006,,,,,,,,,,,,,2,1.3852,0,27,27,38,1,,,,,,,,,,,,,,,,,,,,,,,,,,,,,,,,,,,,,,,,,,,,,,,,,,,,,,,,,,,,,,,,,,,,,,
,,,,2,1.4547,,,,,,140,cookie,refrigerator,,88813,001,2022-04-26_11h37.39.358,SPAMnetsValid,2021.1.4,MacIntel,60.0060006,,,,,,,,,,,,,2,1.4547,0,28,28,89,1,,,,,,,,,,,,,,,,,,,,,,,,,,,,,,,,,,,,,,,,,,,,,,,,,,,,,,,,,,,,,,,,,,,,,,
,,,,8,2.1431,,,,,,122,flower,garden,,88813,001,2022-04-26_11h37.39.358,SPAMnetsValid,2021.1.4,MacIntel,60.0060006,,,,,,,,,,,,,8,2.1431,0,29,29,60,1,,,,,,,,,,,,,,,,,,,,,,,,,,,,,,,,,,,,,,,,,,,,,,,,,,,,,,,,,,,,,,,,,,,,,,
,,,,2,1.3033,,,,,,179,broom,oven,,88813,001,2022-04-26_11h37.39.358,SPAMnetsValid,2021.1.4,MacIntel,60.0060006,,,,,,,,,,,,,2,1.3033,0,30,30,45,1,,,,,,,,,,,,,,,,,,,,,,,,,,,,,,,,,,,,,,,,,,,,,,,,,,,,,,,,,,,,,,,,,,,,,,
,,,,6,1.6046,,,,,,163,melon,refrigerator,,88813,001,2022-04-26_11h37.39.358,SPAMnetsValid,2021.1.4,MacIntel,60.0060006,,,,,,,,,,,,,6,1.6046,0,31,31,29,1,,,,,,,,,,,,,,,,,,,,,,,,,,,,,,,,,,,,,,,,,,,,,,,,,,,,,,,,,,,,,,,,,,,,,,
,,,,9,1.3489,,,,,,194,cactus,cactus,CHECK,88813,001,2022-04-26_11h37.39.358,SPAMnetsValid,2021.1.4,MacIntel,60.0060006,,,,,,,,,,,,,9,1.3489,0,32,32,25,1,,,,,,,,,,,,,,,,,,,,,,,,,,,,,,,,,,,,,,,,,,,,,,,,,,,,,,,,,,,,,,,,,,,,,,
,,,,2,1.9886,,,,,,162,microwave,tomato,,88813,001,2022-04-26_11h37.39.358,SPAMnetsValid,2021.1.4,MacIntel,60.0060006,,,,,,,,,,,,,2,1.9886,0,33,33,12,1,,,,,,,,,,,,,,,,,,,,,,,,,,,,,,,,,,,,,,,,,,,,,,,,,,,,,,,,,,,,,,,,,,,,,,
,,,,2,1.4339,,,,,,133,cake,flower,,88813,001,2022-04-26_11h37.39.358,SPAMnetsValid,2021.1.4,MacIntel,60.0060006,,,,,,,,,,,,,2,1.4339,0,34,34,94,1,,,,,,,,,,,,,,,,,,,,,,,,,,,,,,,,,,,,,,,,,,,,,,,,,,,,,,,,,,,,,,,,,,,,,,
,,,,5,2.2939,,,,,,185,cactus,rose,,88813,001,2022-04-26_11h37.39.358,SPAMnetsValid,2021.1.4,MacIntel,60.0060006,,,,,,,,,,,,,5,2.2939,0,35,35,43,1,,,,,,,,,,,,,,,,,,,,,,,,,,,,,,,,,,,,,,,,,,,,,,,,,,,,,,,,,,,,,,,,,,,,,,
,,,,3,1.8728,,,,,,175,melon,onion,,88813,001,2022-04-26_11h37.39.358,SPAMnetsValid,2021.1.4,MacIntel,60.0060006,,,,,,,,,,,,,3,1.8728,0,36,36,41,1,,,,,,,,,,,,,,,,,,,,,,,,,,,,,,,,,,,,,,,,,,,,,,,,,,,,,,,,,,,,,,,,,,,,,,
,,,,2,1.2546,,,,,,172,kitchen,melon,,88813,001,2022-04-26_11h37.39.358,SPAMnetsValid,2021.1.4,MacIntel,60.0060006,,,,,,,,,,,,,2,1.2546,0,37,37,77,1,,,,,,,,,,,,,,,,,,,,,,,,,,,,,,,,,,,,,,,,,,,,,,,,,,,,,,,,,,,,,,,,,,,,,,
,,,,8,1.4407,,,,,,186,kitchen,yogurt,,88813,001,2022-04-26_11h37.39.358,SPAMnetsValid,2021.1.4,MacIntel,60.0060006,,,,,,,,,,,,,8,1.4407,0,38,38,48,1,,,,,,,,,,,,,,,,,,,,,,,,,,,,,,,,,,,,,,,,,,,,,,,,,,,,,,,,,,,,,,,,,,,,,,
,,,,1,1.3556,,,,,,121,broom,microwave,,88813,001,2022-04-26_11h37.39.358,SPAMnetsValid,2021.1.4,MacIntel,60.0060006,,,,,,,,,,,,,1,1.3556,0,39,39,95,1,,,,,,,,,,,,,,,,,,,,,,,,,,,,,,,,,,,,,,,,,,,,,,,,,,,,,,,,,,,,,,,,,,,,,,
,,,,2,1.5051,,,,,,136,chocolate,microwave,,88813,001,2022-04-26_11h37.39.358,SPAMnetsValid,2021.1.4,MacIntel,60.0060006,,,,,,,,,,,,,2,1.5051,0,40,40,96,1,,,,,,,,,,,,,,,,,,,,,,,,,,,,,,,,,,,,,,,,,,,,,,,,,,,,,,,,,,,,,,,,,,,,,,
,,,,7,1.4507,,,,,,154,strawberry,yogurt,,88813,001,2022-04-26_11h37.39.358,SPAMnetsValid,2021.1.4,MacIntel,60.0060006,,,,,,,,,,,,,7,1.4507,0,41,41,28,1,,,,,,,,,,,,,,,,,,,,,,,,,,,,,,,,,,,,,,,,,,,,,,,,,,,,,,,,,,,,,,,,,,,,,,
,,,,1,1.4389,,,,,,184,oven,pretzel,,88813,001,2022-04-26_11h37.39.358,SPAMnetsValid,2021.1.4,MacIntel,60.0060006,,,,,,,,,,,,,1,1.4389,0,42,42,42,1,,,,,,,,,,,,,,,,,,,,,,,,,,,,,,,,,,,,,,,,,,,,,,,,,,,,,,,,,,,,,,,,,,,,,,
,,,,3,1.2356,,,,,,106,cake,strawberry,,88813,001,2022-04-26_11h37.39.358,SPAMnetsValid,2021.1.4,MacIntel,60.0060006,,,,,,,,,,,,,3,1.2356,0,43,43,0,1,,,,,,,,,,,,,,,,,,,,,,,,,,,,,,,,,,,,,,,,,,,,,,,,,,,,,,,,,,,,,,,,,,,,,,
,,,,8,1.1531,,,,,,188,flower,tree,,88813,001,2022-04-26_11h37.39.358,SPAMnetsValid,2021.1.4,MacIntel,60.0060006,,,,,,,,,,,,,8,1.1531,0,44,44,7,1,,,,,,,,,,,,,,,,,,,,,,,,,,,,,,,,,,,,,,,,,,,,,,,,,,,,,,,,,,,,,,,,,,,,,,
,,,,4,1.0004,,,,,,180,tree,yogurt,,88813,001,2022-04-26_11h37.39.358,SPAMnetsValid,2021.1.4,MacIntel,60.0060006,,,,,,,,,,,,,4,1.0004,0,45,45,68,1,,,,,,,,,,,,,,,,,,,,,,,,,,,,,,,,,,,,,,,,,,,,,,,,,,,,,,,,,,,,,,,,,,,,,,
,,,,2,1.0174,,,,,,144,cake,garden,,88813,001,2022-04-26_11h37.39.358,SPAMnetsValid,2021.1.4,MacIntel,60.0060006,,,,,,,,,,,,,2,1.0174,0,46,46,58,1,,,,,,,,,,,,,,,,,,,,,,,,,,,,,,,,,,,,,,,,,,,,,,,,,,,,,,,,,,,,,,,,,,,,,,
,,,,2,1.3073,,,,,,100,garden,tomato,,88813,001,2022-04-26_11h37.39.358,SPAMnetsValid,2021.1.4,MacIntel,60.0060006,,,,,,,,,,,,,2,1.3073,0,47,47,83,1,,,,,,,,,,,,,,,,,,,,,,,,,,,,,,,,,,,,,,,,,,,,,,,,,,,,,,,,,,,,,,,,,,,,,,
,,,,3,1.728,,,,,,181,carrot,kitchen,,88813,001,2022-04-26_11h37.39.358,SPAMnetsValid,2021.1.4,MacIntel,60.0060006,,,,,,,,,,,,,3,1.728,0,48,48,72,1,,,,,,,,,,,,,,,,,,,,,,,,,,,,,,,,,,,,,,,,,,,,,,,,,,,,,,,,,,,,,,,,,,,,,,
,,,,8,2.9389,,,,,,116,cake,chocolate,,88813,001,2022-04-26_11h37.39.358,SPAMnetsValid,2021.1.4,MacIntel,60.0060006,,,,,,,,,,,,,8,2.9389,0,49,49,44,1,,,,,,,,,,,,,,,,,,,,,,,,,,,,,,,,,,,,,,,,,,,,,,,,,,,,,,,,,,,,,,,,,,,,,,
,,,,2,3.168,,,,,,112,cake,carrot,,88813,001,2022-04-26_11h37.39.358,SPAMnetsValid,2021.1.4,MacIntel,60.0060006,,,,,,,,,,,,,2,3.168,0,50,50,39,1,,,,,,,,,,,,,,,,,,,,,,,,,,,,,,,,,,,,,,,,,,,,,,,,,,,,,,,,,,,,,,,,,,,,,,
,,,,2,1.1306,,,,,,171,cake,tomato,,88813,001,2022-04-26_11h37.39.358,SPAMnetsValid,2021.1.4,MacIntel,60.0060006,,,,,,,,,,,,,2,1.1306,0,51,51,88,1,,,,,,,,,,,,,,,,,,,,,,,,,,,,,,,,,,,,,,,,,,,,,,,,,,,,,,,,,,,,,,,,,,,,,,
,,,,3,1.3253,,,,,,104,garden,microwave,,88813,001,2022-04-26_11h37.39.358,SPAMnetsValid,2021.1.4,MacIntel,60.0060006,,,,,,,,,,,,,3,1.3253,0,52,52,81,1,,,,,,,,,,,,,,,,,,,,,,,,,,,,,,,,,,,,,,,,,,,,,,,,,,,,,,,,,,,,,,,,,,,,,,
,,,,4,1.9433,,,,,,147,cake,refrigerator,,88813,001,2022-04-26_11h37.39.358,SPAMnetsValid,2021.1.4,MacIntel,60.0060006,,,,,,,,,,,,,4,1.9433,0,53,53,35,1,,,,,,,,,,,,,,,,,,,,,,,,,,,,,,,,,,,,,,,,,,,,,,,,,,,,,,,,,,,,,,,,,,,,,,
,,,,3,1.008,,,,,,169,onion,yogurt,,88813,001,2022-04-26_11h37.39.358,SPAMnetsValid,2021.1.4,MacIntel,60.0060006,,,,,,,,,,,,,3,1.008,0,54,54,24,1,,,,,,,,,,,,,,,,,,,,,,,,,,,,,,,,,,,,,,,,,,,,,,,,,,,,,,,,,,,,,,,,,,,,,,
,,,,2,2.5449,,,,,,143,pretzel,rose,,88813,001,2022-04-26_11h37.39.358,SPAMnetsValid,2021.1.4,MacIntel,60.0060006,,,,,,,,,,,,,2,2.5449,0,55,55,55,1,,,,,,,,,,,,,,,,,,,,,,,,,,,,,,,,,,,,,,,,,,,,,,,,,,,,,,,,,,,,,,,,,,,,,,
,,,,2,1.6594,,,,,,132,broom,tree,,88813,001,2022-04-26_11h37.39.358,SPAMnetsValid,2021.1.4,MacIntel,60.0060006,,,,,,,,,,,,,2,1.6594,0,56,56,78,1,,,,,,,,,,,,,,,,,,,,,,,,,,,,,,,,,,,,,,,,,,,,,,,,,,,,,,,,,,,,,,,,,,,,,,
,,,,2,1.3335,,,,,,130,microwave,yogurt,,88813,001,2022-04-26_11h37.39.358,SPAMnetsValid,2021.1.4,MacIntel,60.0060006,,,,,,,,,,,,,2,1.3335,0,57,57,84,1,,,,,,,,,,,,,,,,,,,,,,,,,,,,,,,,,,,,,,,,,,,,,,,,,,,,,,,,,,,,,,,,,,,,,,
,,,,2,0.6802,,,,,,118,chocolate,oven,,88813,001,2022-04-26_11h37.39.358,SPAMnetsValid,2021.1.4,MacIntel,60.0060006,,,,,,,,,,,,,2,0.6802,0,58,58,10,1,,,,,,,,,,,,,,,,,,,,,,,,,,,,,,,,,,,,,,,,,,,,,,,,,,,,,,,,,,,,,,,,,,,,,,
,,,,2,0.8912,,,,,,164,cookie,garden,,88813,001,2022-04-26_11h37.39.358,SPAMnetsValid,2021.1.4,MacIntel,60.0060006,,,,,,,,,,,,,2,0.8912,0,59,59,59,1,,,,,,,,,,,,,,,,,,,,,,,,,,,,,,,,,,,,,,,,,,,,,,,,,,,,,,,,,,,,,,,,,,,,,,
,,,,2,0.7329,,,,,,139,carrot,strawberry,,88813,001,2022-04-26_11h37.39.358,SPAMnetsValid,2021.1.4,MacIntel,60.0060006,,,,,,,,,,,,,2,0.7329,0,60,60,37,1,,,,,,,,,,,,,,,,,,,,,,,,,,,,,,,,,,,,,,,,,,,,,,,,,,,,,,,,,,,,,,,,,,,,,,
,,,,7,1.0328,,,,,,97,chocolate,kitchen,,88813,001,2022-04-26_11h37.39.358,SPAMnetsValid,2021.1.4,MacIntel,60.0060006,,,,,,,,,,,,,7,1.0328,0,61,61,8,1,,,,,,,,,,,,,,,,,,,,,,,,,,,,,,,,,,,,,,,,,,,,,,,,,,,,,,,,,,,,,,,,,,,,,,
,,,,8,1.3698,,,,,,131,cactus,garden,,88813,001,2022-04-26_11h37.39.358,SPAMnetsValid,2021.1.4,MacIntel,60.0060006,,,,,,,,,,,,,8,1.3698,0,62,62,33,1,,,,,,,,,,,,,,,,,,,,,,,,,,,,,,,,,,,,,,,,,,,,,,,,,,,,,,,,,,,,,,,,,,,,,,
,,,,2,2.0297,,,,,,190,microwave,strawberry,,88813,001,2022-04-26_11h37.39.358,SPAMnetsValid,2021.1.4,MacIntel,60.0060006,,,,,,,,,,,,,2,2.0297,0,63,63,90,1,,,,,,,,,,,,,,,,,,,,,,,,,,,,,,,,,,,,,,,,,,,,,,,,,,,,,,,,,,,,,,,,,,,,,,
,,,,2,1.0702,,,,,,101,cactus,kitchen,,88813,001,2022-04-26_11h37.39.358,SPAMnetsValid,2021.1.4,MacIntel,60.0060006,,,,,,,,,,,,,2,1.0702,0,64,64,54,1,,,,,,,,,,,,,,,,,,,,,,,,,,,,,,,,,,,,,,,,,,,,,,,,,,,,,,,,,,,,,,,,,,,,,,
,,,,2,1.1198,,,,,,105,cactus,oven,,88813,001,2022-04-26_11h37.39.358,SPAMnetsValid,2021.1.4,MacIntel,60.0060006,,,,,,,,,,,,,2,1.1198,0,65,65,13,1,,,,,,,,,,,,,,,,,,,,,,,,,,,,,,,,,,,,,,,,,,,,,,,,,,,,,,,,,,,,,,,,,,,,,,
,,,,2,1.5415,,,,,,148,flower,melon,,88813,001,2022-04-26_11h37.39.358,SPAMnetsValid,2021.1.4,MacIntel,60.0060006,,,,,,,,,,,,,2,1.5415,0,66,66,23,1,,,,,,,,,,,,,,,,,,,,,,,,,,,,,,,,,,,,,,,,,,,,,,,,,,,,,,,,,,,,,,,,,,,,,,
,,,,9,1.5406,,,,,,150,microwave,refrigerator,,88813,001,2022-04-26_11h37.39.358,SPAMnetsValid,2021.1.4,MacIntel,60.0060006,,,,,,,,,,,,,9,1.5406,0,67,67,66,1,,,,,,,,,,,,,,,,,,,,,,,,,,,,,,,,,,,,,,,,,,,,,,,,,,,,,,,,,,,,,,,,,,,,,,
,,,,7,2.3441,,,,,,113,refrigerator,strawberry,,88813,001,2022-04-26_11h37.39.358,SPAMnetsValid,2021.1.4,MacIntel,60.0060006,,,,,,,,,,,,,7,2.3441,0,68,68,56,1,,,,,,,,,,,,,,,,,,,,,,,,,,,,,,,,,,,,,,,,,,,,,,,,,,,,,,,,,,,,,,,,,,,,,,
,,,,3,1.0384,,,,,,141,melon,tomato,,88813,001,2022-04-26_11h37.39.358,SPAMnetsValid,2021.1.4,MacIntel,60.0060006,,,,,,,,,,,,,3,1.0384,0,69,69,70,1,,,,,,,,,,,,,,,,,,,,,,,,,,,,,,,,,,,,,,,,,,,,,,,,,,,,,,,,,,,,,,,,,,,,,,
,,,,2,1.2376,,,,,,159,cookie,flower,,88813,001,2022-04-26_11h37.39.358,SPAMnetsValid,2021.1.4,MacIntel,60.0060006,,,,,,,,,,,,,2,1.2376,0,70,70,21,1,,,,,,,,,,,,,,,,,,,,,,,,,,,,,,,,,,,,,,,,,,,,,,,,,,,,,,,,,,,,,,,,,,,,,,
,,,,9,1.3453,,,,,,124,oven,refrigerator,,88813,001,2022-04-26_11h37.39.358,SPAMnetsValid,2021.1.4,MacIntel,60.0060006,,,,,,,,,,,,,9,1.3453,0,71,71,69,1,,,,,,,,,,,,,,,,,,,,,,,,,,,,,,,,,,,,,,,,,,,,,,,,,,,,,,,,,,,,,,,,,,,,,,
,,,,2,1.0557,,,,,,165,onion,rose,,88813,001,2022-04-26_11h37.39.358,SPAMnetsValid,2021.1.4,MacIntel,60.0060006,,,,,,,,,,,,,2,1.0557,0,72,72,40,1,,,,,,,,,,,,,,,,,,,,,,,,,,,,,,,,,,,,,,,,,,,,,,,,,,,,,,,,,,,,,,,,,,,,,,
,,,,2,1.0793,,,,,,134,carrot,flower,,88813,001,2022-04-26_11h37.39.358,SPAMnetsValid,2021.1.4,MacIntel,60.0060006,,,,,,,,,,,,,2,1.0793,0,73,73,93,1,,,,,,,,,,,,,,,,,,,,,,,,,,,,,,,,,,,,,,,,,,,,,,,,,,,,,,,,,,,,,,,,,,,,,,
,,,,2,0.9514,,,,,,151,microwave,onion,,88813,001,2022-04-26_11h37.39.358,SPAMnetsValid,2021.1.4,MacIntel,60.0060006,,,,,,,,,,,,,2,0.9514,0,74,74,6,1,,,,,,,,,,,,,,,,,,,,,,,,,,,,,,,,,,,,,,,,,,,,,,,,,,,,,,,,,,,,,,,,,,,,,,
,,,,2,0.8128,,,,,,107,rose,tomato,,88813,001,2022-04-26_11h37.39.358,SPAMnetsValid,2021.1.4,MacIntel,60.0060006,,,,,,,,,,,,,2,0.8128,0,75,75,26,1,,,,,,,,,,,,,,,,,,,,,,,,,,,,,,,,,,,,,,,,,,,,,,,,,,,,,,,,,,,,,,,,,,,,,,
,,,,2,0.8216,,,,,,145,cactus,yogurt,,88813,001,2022-04-26_11h37.39.358,SPAMnetsValid,2021.1.4,MacIntel,60.0060006,,,,,,,,,,,,,2,0.8216,0,76,76,15,1,,,,,,,,,,,,,,,,,,,,,,,,,,,,,,,,,,,,,,,,,,,,,,,,,,,,,,,,,,,,,,,,,,,,,,
,,,,2,0.6776,,,,,,109,broom,strawberry,,88813,001,2022-04-26_11h37.39.358,SPAMnetsValid,2021.1.4,MacIntel,60.0060006,,,,,,,,,,,,,2,0.6776,0,77,77,4,1,,,,,,,,,,,,,,,,,,,,,,,,,,,,,,,,,,,,,,,,,,,,,,,,,,,,,,,,,,,,,,,,,,,,,,
,,,,8,1.2203,,,,,,120,microwave,oven,,88813,001,2022-04-26_11h37.39.358,SPAMnetsValid,2021.1.4,MacIntel,60.0060006,,,,,,,,,,,,,8,1.2203,0,78,78,14,1,,,,,,,,,,,,,,,,,,,,,,,,,,,,,,,,,,,,,,,,,,,,,,,,,,,,,,,,,,,,,,,,,,,,,,
,,,,2,1.2045,,,,,,125,carrot,tree,,88813,001,2022-04-26_11h37.39.358,SPAMnetsValid,2021.1.4,MacIntel,60.0060006,,,,,,,,,,,,,2,1.2045,0,79,79,30,1,,,,,,,,,,,,,,,,,,,,,,,,,,,,,,,,,,,,,,,,,,,,,,,,,,,,,,,,,,,,,,,,,,,,,,
,,,,3,1.1118,,,,,,135,carrot,oven,,88813,001,2022-04-26_11h37.39.358,SPAMnetsValid,2021.1.4,MacIntel,60.0060006,,,,,,,,,,,,,3,1.1118,0,80,80,73,1,,,,,,,,,,,,,,,,,,,,,,,,,,,,,,,,,,,,,,,,,,,,,,,,,,,,,,,,,,,,,,,,,,,,,,
,,,,2,1.2057,,,,,,187,cactus,microwave,,88813,001,2022-04-26_11h37.39.358,SPAMnetsValid,2021.1.4,MacIntel,60.0060006,,,,,,,,,,,,,2,1.2057,0,81,81,71,1,,,,,,,,,,,,,,,,,,,,,,,,,,,,,,,,,,,,,,,,,,,,,,,,,,,,,,,,,,,,,,,,,,,,,,
,,,,7,1.6027,,,,,,166,cake,yogurt,,88813,001,2022-04-26_11h37.39.358,SPAMnetsValid,2021.1.4,MacIntel,60.0060006,,,,,,,,,,,,,7,1.6027,0,82,82,91,1,,,,,,,,,,,,,,,,,,,,,,,,,,,,,,,,,,,,,,,,,,,,,,,,,,,,,,,,,,,,,,,,,,,,,,
,,,,2,1.0193,,,,,,119,strawberry,tree,,88813,001,2022-04-26_11h37.39.358,SPAMnetsValid,2021.1.4,MacIntel,60.0060006,,,,,,,,,,,,,2,1.0193,0,83,83,18,1,,,,,,,,,,,,,,,,,,,,,,,,,,,,,,,,,,,,,,,,,,,,,,,,,,,,,,,,,,,,,,,,,,,,,,
,,,,6,2.0522,,,,,,115,refrigerator,tomato,,88813,001,2022-04-26_11h37.39.358,SPAMnetsValid,2021.1.4,MacIntel,60.0060006,,,,,,,,,,,,,6,2.0522,0,84,84,85,1,,,,,,,,,,,,,,,,,,,,,,,,,,,,,,,,,,,,,,,,,,,,,,,,,,,,,,,,,,,,,,,,,,,,,,
,,,,7,2.4024,,,,,,142,garden,tree,,88813,001,2022-04-26_11h37.39.358,SPAMnetsValid,2021.1.4,MacIntel,60.0060006,,,,,,,,,,,,,7,2.4024,0,85,85,22,1,,,,,,,,,,,,,,,,,,,,,,,,,,,,,,,,,,,,,,,,,,,,,,,,,,,,,,,,,,,,,,,,,,,,,,
,,,,5,1.6993,,,,,,178,cactus,carrot,,88813,001,2022-04-26_11h37.39.358,SPAMnetsValid,2021.1.4,MacIntel,60.0060006,,,,,,,,,,,,,5,1.6993,0,86,86,75,1,,,,,,,,,,,,,,,,,,,,,,,,,,,,,,,,,,,,,,,,,,,,,,,,,,,,,,,,,,,,,,,,,,,,,,
,,,,8,1.8586,,,,,,167,carrot,garden,,88813,001,2022-04-26_11h37.39.358,SPAMnetsValid,2021.1.4,MacIntel,60.0060006,,,,,,,,,,,,,8,1.8586,0,87,87,47,1,,,,,,,,,,,,,,,,,,,,,,,,,,,,,,,,,,,,,,,,,,,,,,,,,,,,,,,,,,,,,,,,,,,,,,
,,,,2,1.2652,,,,,,96,oven,strawberry,,88813,001,2022-04-26_11h37.39.358,SPAMnetsValid,2021.1.4,MacIntel,60.0060006,,,,,,,,,,,,,2,1.2652,0,88,88,67,1,,,,,,,,,,,,,,,,,,,,,,,,,,,,,,,,,,,,,,,,,,,,,,,,,,,,,,,,,,,,,,,,,,,,,,
,,,,2,1.2098,,,,,,102,chocolate,refrigerator,,88813,001,2022-04-26_11h37.39.358,SPAMnetsValid,2021.1.4,MacIntel,60.0060006,,,,,,,,,,,,,2,1.2098,0,89,89,76,1,,,,,,,,,,,,,,,,,,,,,,,,,,,,,,,,,,,,,,,,,,,,,,,,,,,,,,,,,,,,,,,,,,,,,,
,,,,2,0.7353,,,,,,108,carrot,chocolate,,88813,001,2022-04-26_11h37.39.358,SPAMnetsValid,2021.1.4,MacIntel,60.0060006,,,,,,,,,,,,,2,0.7353,0,90,90,5,1,,,,,,,,,,,,,,,,,,,,,,,,,,,,,,,,,,,,,,,,,,,,,,,,,,,,,,,,,,,,,,,,,,,,,,
,,,,7,1.1569,,,,,,174,cake,pretzel,,88813,001,2022-04-26_11h37.39.358,SPAMnetsValid,2021.1.4,MacIntel,60.0060006,,,,,,,,,,,,,7,1.1569,0,91,91,2,1,,,,,,,,,,,,,,,,,,,,,,,,,,,,,,,,,,,,,,,,,,,,,,,,,,,,,,,,,,,,,,,,,,,,,,
,,,,7,1.855,,,,,,158,cookie,oven,,88813,001,2022-04-26_11h37.39.358,SPAMnetsValid,2021.1.4,MacIntel,60.0060006,,,,,,,,,,,,,7,1.855,0,92,92,27,1,,,,,,,,,,,,,,,,,,,,,,,,,,,,,,,,,,,,,,,,,,,,,,,,,,,,,,,,,,,,,,,,,,,,,,
,,,,2,1.0375,,,,,,114,cookie,strawberry,,88813,001,2022-04-26_11h37.39.358,SPAMnetsValid,2021.1.4,MacIntel,60.0060006,,,,,,,,,,,,,2,1.0375,0,93,93,87,1,,,,,,,,,,,,,,,,,,,,,,,,,,,,,,,,,,,,,,,,,,,,,,,,,,,,,,,,,,,,,,,,,,,,,,
,,,,3,1.162,,,,,,157,refrigerator,rose,,88813,001,2022-04-26_11h37.39.358,SPAMnetsValid,2021.1.4,MacIntel,60.0060006,,,,,,,,,,,,,3,1.162,0,94,94,64,1,,,,,,,,,,,,,,,,,,,,,,,,,,,,,,,,,,,,,,,,,,,,,,,,,,,,,,,,,,,,,,,,,,,,,,
,,,,3,0.8738,,,,,,152,cactus,strawberry,,88813,001,2022-04-26_11h37.39.358,SPAMnetsValid,2021.1.4,MacIntel,60.0060006,,,,,,,,,,,,,3,0.8738,0,95,95,49,1,,,,,,,,,,,,,,,,,,,,,,,,,,,,,,,,,,,,,,,,,,,,,,,,,,,,,,,,,,,,,,,,,,,,,,
,,,,3,0.9013,,,,,,183,cake,rose,,88813,001,2022-04-26_11h37.39.358,SPAMnetsValid,2021.1.4,MacIntel,60.0060006,,,,,,,,,,,,,3,0.9013,0,96,96,19,1,,,,,,,,,,,,,,,,,,,,,,,,,,,,,,,,,,,,,,,,,,,,,,,,,,,,,,,,,,,,,,,,,,,,,,
,,,,,,,,,,,,,,,88813,001,2022-04-26_11h37.39.358,SPAMnetsValid,2021.1.4,MacIntel,60.0060006,,,,,,,,,,,,,,,,,,,,0,0,0,0,1,,,,,,,,,,,,,,,,,,,,,,,,,,,,,,,,,,,,,,,,,,,,,,,,,,,,,,,,,,,,,,,,,
,,,,,,,,,,,,,,,88813,001,2022-04-26_11h37.39.358,SPAMnetsValid,2021.1.4,MacIntel,60.0060006,,,,,,0,1,1,1,1,0,1,,,,,,,,,,,,,,,,,,,,,,,,,,,,,,,,,,,,,,,,,,,,,,,,,,,,,,,,,,,,,,,,,,,,,,,,,,,,,
,,,,,,,,,,,,,,,88813,001,2022-04-26_11h37.39.358,SPAMnetsValid,2021.1.4,MacIntel,60.0060006,,,,,,,,,,,,,,,,,,,,,,,,,2,5.6155,0,0,0,0,1,rancor,forbearance,ridicule,malice,bravery,3,,,,,,,,,,,,,,,,,,,,,,,,,,,,,,,,,,,,,,,,,,,,,,,,,,,,
,,,,,,,,,,,,,,,88813,001,2022-04-26_11h37.39.358,SPAMnetsValid,2021.1.4,MacIntel,60.0060006,,,,,,,,,,,,,,,,,,,,,,,,,4,3.2937,0,1,1,1,1,raucous,empty,quiet,smooth,harsh,4,,,,,,,,,,,,,,,,,,,,,,,,,,,,,,,,,,,,,,,,,,,,,,,,,,,,
,,,,,,,,,,,,,,,88813,001,2022-04-26_11h37.39.358,SPAMnetsValid,2021.1.4,MacIntel,60.0060006,,,,,,,,,,,,,,,,,,,,,,,,,4,2.386,0,2,2,2,1,gargoyle,oil,medicine,carved waterspout,ugly building,3,,,,,,,,,,,,,,,,,,,,,,,,,,,,,,,,,,,,,,,,,,,,,,,,,,,,
,,,,,,,,,,,,,,,88813,001,2022-04-26_11h37.39.358,SPAMnetsValid,2021.1.4,MacIntel,60.0060006,,,,,,,,,,,,,,,,,,,,,,,,,2,1.6765,0,3,3,3,1,recrudesce,purify,renew activity,lack refinement,crush,2,,,,,,,,,,,,,,,,,,,,,,,,,,,,,,,,,,,,,,,,,,,,,,,,,,,,
,,,,,,,,,,,,,,,88813,001,2022-04-26_11h37.39.358,SPAMnetsValid,2021.1.4,MacIntel,60.0060006,,,,,,,,,,,,,,,,,,,,,,,,,1,2.994,0,4,4,4,1,specious,"plausible, but not genuine",noteworthy,class or variety,roomy,1,,,,,,,,,,,,,,,,,,,,,,,,,,,,,,,,,,,,,,,,,,,,,,,,,,,,
,,,,,,,,,,,,,,,88813,001,2022-04-26_11h37.39.358,SPAMnetsValid,2021.1.4,MacIntel,60.0060006,,,,,,,,,,,,,,,,,,,,,,,,,3,2.5228,0,5,5,5,1,bauble,bubble,showy plaything,idle talk,confusion,2,,,,,,,,,,,,,,,,,,,,,,,,,,,,,,,,,,,,,,,,,,,,,,,,,,,,
,,,,,,,,,,,,,,,88813,001,2022-04-26_11h37.39.358,SPAMnetsValid,2021.1.4,MacIntel,60.0060006,,,,,,,,,,,,,,,,,,,,,,,,,2,1.79,0,6,6,6,1,prolific,scarce,producing abundantly,reckless,speaking profanely,2,,,,,,,,,,,,,,,,,,,,,,,,,,,,,,,,,,,,,,,,,,,,,,,,,,,,
,,,,,,,,,,,,,,,88813,001,2022-04-26_11h37.39.358,SPAMnetsValid,2021.1.4,MacIntel,60.0060006,,,,,,,,,,,,,,,,,,,,,,,,,2,2.5707,0,7,7,7,1,opulent,party,wealthy,happy frame of mind,semiprecious stone,2,,,,,,,,,,,,,,,,,,,,,,,,,,,,,,,,,,,,,,,,,,,,,,,,,,,,
,,,,,,,,,,,,,,,88813,001,2022-04-26_11h37.39.358,SPAMnetsValid,2021.1.4,MacIntel,60.0060006,,,,,,,,,,,,,,,,,,,,,,,,,2,8.1698,0,8,8,8,1,coercion,conspiracy,strategy,restraint,attraction,3,,,,,,,,,,,,,,,,,,,,,,,,,,,,,,,,,,,,,,,,,,,,,,,,,,,,
,,,,,,,,,,,,,,,88813,001,2022-04-26_11h37.39.358,SPAMnetsValid,2021.1.4,MacIntel,60.0060006,,,,,,,,,,,,,,,,,,,,,,,,,4,2.5358,0,9,9,9,1,hiatus,animal,calamity,dread,gap,4,,,,,,,,,,,,,,,,,,,,,,,,,,,,,,,,,,,,,,,,,,,,,,,,,,,,
,,,,,,,,,,,,,,,88813,001,2022-04-26_11h37.39.358,SPAMnetsValid,2021.1.4,MacIntel,60.0060006,,,,,,,,,,,,,,,,,,,,,,,,,2,1.6499,0,10,10,10,1,germane,microbe,contagious,relevant,different,3,,,,,,,,,,,,,,,,,,,,,,,,,,,,,,,,,,,,,,,,,,,,,,,,,,,,
,,,,,,,,,,,,,,,88813,001,2022-04-26_11h37.39.358,SPAMnetsValid,2021.1.4,MacIntel,60.0060006,,,,,,,,,,,,,,,,,,,,,,,,,1,2.8845,0,11,11,11,1,perfunctory,fundamental,formal,superficial,careful,3,,,,,,,,,,,,,,,,,,,,,,,,,,,,,,,,,,,,,,,,,,,,,,,,,,,,
,,,,,,,,,,,,,,,88813,001,2022-04-26_11h37.39.358,SPAMnetsValid,2021.1.4,MacIntel,60.0060006,,,,,,,,,,,,,,,,,,,,,,,,,4,3.0408,0,12,12,12,1,diverge,reveal,chant,distract the attention of,differ or turn off from,4,,,,,,,,,,,,,,,,,,,,,,,,,,,,,,,,,,,,,,,,,,,,,,,,,,,,
,,,,,,,,,,,,,,,88813,001,2022-04-26_11h37.39.358,SPAMnetsValid,2021.1.4,MacIntel,60.0060006,,,,,,,,,,,,,,,,,,,,,,,,,4,2.6205,0,13,13,13,1,evoke,take away,anger,connect,bring out,4,,,,,,,,,,,,,,,,,,,,,,,,,,,,,,,,,,,,,,,,,,,,,,,,,,,,
,,,,,,,,,,,,,,,88813,001,2022-04-26_11h37.39.358,SPAMnetsValid,2021.1.4,MacIntel,60.0060006,,,,,,,,,,,,,,,,,,,,,,,,,1,2.7155,0,14,14,14,1,pertinent,relevant,lying next to,necessary,bold,1,,,,,,,,,,,,,,,,,,,,,,,,,,,,,,,,,,,,,,,,,,,,,,,,,,,,
,,,,,,,,,,,,,,,88813,001,2022-04-26_11h37.39.358,SPAMnetsValid,2021.1.4,MacIntel,60.0060006,,,,,,,,,,,,,,,,,,,,,,,,,2,2.6762,0,15,15,15,1,holocaust,entirety,destruction,saintly,price,2,,,,,,,,,,,,,,,,,,,,,,,,,,,,,,,,,,,,,,,,,,,,,,,,,,,,
,,,,,,,,,,,,,,,88813,001,2022-04-26_11h37.39.358,SPAMnetsValid,2021.1.4,MacIntel,60.0060006,,,,,,,,,,,,,,,,,,,,,,,,,3,1.4481,0,16,16,16,1,piquant,mellow,fish,pungent,cloth,3,,,,,,,,,,,,,,,,,,,,,,,,,,,,,,,,,,,,,,,,,,,,,,,,,,,,
,,,,,,,,,,,,,,,88813,001,2022-04-26_11h37.39.358,SPAMnetsValid,2021.1.4,MacIntel,60.0060006,,,,,,,,,,,,,,,,,,,,,,,,,1,5.3815,0,17,17,17,1,firmament,foundation,heavens,strong,glue,2,,,,,,,,,,,,,,,,,,,,,,,,,,,,,,,,,,,,,,,,,,,,,,,,,,,,
,,,,,,,,,,,,,,,88813,001,2022-04-26_11h37.39.358,SPAMnetsValid,2021.1.4,MacIntel,60.0060006,,,,,,,,,,,,,,,,,,,,,,,,,,,,,,,,,,,,,,4,5.2428,0,0,0,0,1,marketable,partisan,jocular,marriageable,salable,essential,4,,,,,,,,,,,,,,,,,,,,,,,,,,,,,,,,,,,,,,
,,,,,,,,,,,,,,,88813,001,2022-04-26_11h37.39.358,SPAMnetsValid,2021.1.4,MacIntel,60.0060006,,,,,,,,,,,,,,,,,,,,,,,,,,,,,,,,,,,,,,5,8.909,0,1,1,1,1,cottontail,squirrel,poplar,boa,marshy plant,rabbit,5,,,,,,,,,,,,,,,,,,,,,,,,,,,,,,,,,,,,,,
,,,,,,,,,,,,,,,88813,001,2022-04-26_11h37.39.358,SPAMnetsValid,2021.1.4,MacIntel,60.0060006,,,,,,,,,,,,,,,,,,,,,,,,,,,,,,,,,,,,,,2,7.2945,0,2,2,2,1,boggy,afraid,false,marshy,dense,black,3,,,,,,,,,,,,,,,,,,,,,,,,,,,,,,,,,,,,,,
,,,,,,,,,,,,,,,88813,001,2022-04-26_11h37.39.358,SPAMnetsValid,2021.1.4,MacIntel,60.0060006,,,,,,,,,,,,,,,,,,,,,,,,,,,,,,,,,,,,,,5,6.5052,0,3,3,3,1,gruesomeness,blackness,falseness,vindictiveness,drunkenness,ghastliness,5,,,,,,,,,,,,,,,,,,,,,,,,,,,,,,,,,,,,,,
,,,,,,,,,,,,,,,88813,001,2022-04-26_11h37.39.358,SPAMnetsValid,2021.1.4,MacIntel,60.0060006,,,,,,,,,,,,,,,,,,,,,,,,,,,,,,,,,,,,,,2,2.3557,0,4,4,4,1,loathing,diffidence,laziness,abhorrence,cleverness,comfort,3,,,,,,,,,,,,,,,,,,,,,,,,,,,,,,,,,,,,,,
,,,,,,,,,,,,,,,88813,001,2022-04-26_11h37.39.358,SPAMnetsValid,2021.1.4,MacIntel,60.0060006,,,,,,,,,,,,,,,,,,,,,,,,,,,,,,,,,,,,,,2,12.6426,0,5,5,5,1,bantam,fowl,ridicule,cripple,vegetable,ensign,1,,,,,,,,,,,,,,,,,,,,,,,,,,,,,,,,,,,,,,
,,,,,,,,,,,,,,,88813,001,2022-04-26_11h37.39.358,SPAMnetsValid,2021.1.4,MacIntel,60.0060006,,,,,,,,,,,,,,,,,,,,,,,,,,,,,,,,,,,,,,5,2.9944,0,6,6,6,1,evoke,wake up,surrender,reconnoiter,transcend,call forth,5,,,,,,,,,,,,,,,,,,,,,,,,,,,,,,,,,,,,,,
,,,,,,,,,,,,,,,88813,001,2022-04-26_11h37.39.358,SPAMnetsValid,2021.1.4,MacIntel,60.0060006,,,,,,,,,,,,,,,,,,,,,,,,,,,,,,,,,,,,,,3,1.2632,0,7,7,7,1,unobtrusive,unintelligent,epileptic,illogical,lineal,modest,5,,,,,,,,,,,,,,,,,,,,,,,,,,,,,,,,,,,,,,
,,,,,,,,,,,,,,,88813,001,2022-04-26_11h37.39.358,SPAMnetsValid,2021.1.4,MacIntel,60.0060006,,,,,,,,,,,,,,,,,,,,,,,,,,,,,,,,,,,,,,4,2.2419,0,8,8,8,1,terrain,ice cream,final test,tractor,area of ground,weight,4,,,,,,,,,,,,,,,,,,,,,,,,,,,,,,,,,,,,,,
,,,,,,,,,,,,,,,88813,001,2022-04-26_11h37.39.358,SPAMnetsValid,2021.1.4,MacIntel,60.0060006,,,,,,,,,,,,,,,,,,,,,,,,,,,,,,,,,,,,,,2,9.0499,0,9,9,9,1,capriciousness,stubbornness,courage,whimsicality,amazement,greediness,3,,,,,,,,,,,,,,,,,,,,,,,,,,,,,,,,,,,,,,
,,,,,,,,,,,,,,,88813,001,2022-04-26_11h37.39.358,SPAMnetsValid,2021.1.4,MacIntel,60.0060006,,,,,,,,,,,,,,,,,,,,,,,,,,,,,,,,,,,,,,3,1.1874,0,10,10,10,1,maelstrom,slander,whirlpool,enmity,armor,majolica,2,,,,,,,,,,,,,,,,,,,,,,,,,,,,,,,,,,,,,,
,,,,,,,,,,,,,,,88813,001,2022-04-26_11h37.39.358,SPAMnetsValid,2021.1.4,MacIntel,60.0060006,,,,,,,,,,,,,,,,,,,,,,,,,,,,,,,,,,,,,,5,2.5588,0,11,11,11,1,tentative,critical,conclusive,authentic,provisional,apprehensive,4,,,,,,,,,,,,,,,,,,,,,,,,,,,,,,,,,,,,,,
,,,,,,,,,,,,,,,88813,001,2022-04-26_11h37.39.358,SPAMnetsValid,2021.1.4,MacIntel,60.0060006,,,,,,,,,,,,,,,,,,,,,,,,,,,,,,,,,,,,,,4,2.9915,0,12,12,12,1,placate,rehabilitate,plagiarize,depredate,apprise,conciliate,5,,,,,,,,,,,,,,,,,,,,,,,,,,,,,,,,,,,,,,
,,,,,,,,,,,,,,,88813,001,2022-04-26_11h37.39.358,SPAMnetsValid,2021.1.4,MacIntel,60.0060006,,,,,,,,,,,,,,,,,,,,,,,,,,,,,,,,,,,,,,2,1.4695,0,13,13,13,1,surcease,enlightenment,cessation,inattention,censor,substitution,2,,,,,,,,,,,,,,,,,,,,,,,,,,,,,,,,,,,,,,
,,,,,,,,,,,,,,,88813,001,2022-04-26_11h37.39.358,SPAMnetsValid,2021.1.4,MacIntel,60.0060006,,,,,,,,,,,,,,,,,,,,,,,,,,,,,,,,,,,,,,2,4.1121,0,14,14,14,1,apathetic,wandering,impassive,hateful,prophetic,overflowing,2,,,,,,,,,,,,,,,,,,,,,,,,,,,,,,,,,,,,,,
,,,,,,,,,,,,,,,88813,001,2022-04-26_11h37.39.358,SPAMnetsValid,2021.1.4,MacIntel,60.0060006,,,,,,,,,,,,,,,,,,,,,,,,,,,,,,,,,,,,,,3,1.7075,0,15,15,15,1,paternoster,paternalism,patricide,malediction,benediction,prayer,5,,,,,,,,,,,,,,,,,,,,,,,,,,,,,,,,,,,,,,
,,,,,,,,,,,,,,,88813,001,2022-04-26_11h37.39.358,SPAMnetsValid,2021.1.4,MacIntel,60.0060006,,,,,,,,,,,,,,,,,,,,,,,,,,,,,,,,,,,,,,4,3.3054,0,16,16,16,1,opalescence,opulence,senescence,bankruptcy,iridescence,assiduity,4,,,,,,,,,,,,,,,,,,,,,,,,,,,,,,,,,,,,,,
,,,,,,,,,,,,,,,88813,001,2022-04-26_11h37.39.358,SPAMnetsValid,2021.1.4,MacIntel,60.0060006,,,,,,,,,,,,,,,,,,,,,,,,,,,,,,,,,,,,,,2,6.0356,0,17,17,17,1,lush,stupid,luxurious,hazy,putrid,languishing,2,,,,,,,,,,,,,,,,,,,,,,,,,,,,,,,,,,,,,,
,,,,,,,,,,,,,,,88813,001,2022-04-26_11h37.39.358,SPAMnetsValid,2021.1.4,MacIntel,60.0060006,,,,,,,,,,,,,,,,,,,,,,,,,,,,,,,,,,,,,,5,4.8541,0,18,18,18,1,curtailment,expenditure,abandonment,abridgment,improvement,forgery,3,,,,,,,,,,,,,,,,,,,,,,,,,,,,,,,,,,,,,,
,,,,,,,,,,,,,,,88813,001,2022-04-26_11h37.39.358,SPAMnetsValid,2021.1.4,MacIntel,60.0060006,,,,,,,,,,,,,,,,,,,,,,,,,,,,,,,,,,,,,,2,2.8612,0,19,19,19,1,perversity,adversity,perviousness,travesty,waywardness,gentility,4,,,,,,,,,,,,,,,,,,,,,,,,,,,,,,,,,,,,,,
,,,,,,,,,,,,,,,88813,001,2022-04-26_11h37.39.358,SPAMnetsValid,2021.1.4,MacIntel,60.0060006,,,,,,,,,,,,,,,,,,,,,,,,,,,,,,,,,,,,,,2,2.0523,0,20,20,20,1,calumnious,complimentary,analogous,slanderous,tempestuous,magnanimous,3,,,,,,,,,,,,,,,,,,,,,,,,,,,,,,,,,,,,,,
,,,,,,,,,,,,,,,88813,001,2022-04-26_11h37.39.358,SPAMnetsValid,2021.1.4,MacIntel,60.0060006,,,,,,,,,,,,,,,,,,,,,,,,,,,,,,,,,,,,,,3,3.2635,0,21,21,21,1,illiberality,bigotry,imbecility,illegibility,cautery,immaturity,1,,,,,,,,,,,,,,,,,,,,,,,,,,,,,,,,,,,,,,
,,,,,,,,,,,,,,,88813,001,2022-04-26_11h37.39.358,SPAMnetsValid,2021.1.4,MacIntel,60.0060006,,,,,,,,,,,,,,,,,,,,,,,,,,,,,,,,,,,,,,3,1.3187,0,22,22,22,1,clabber,rejoice,gossip,curdle,crow,hobble,3,,,,,,,,,,,,,,,,,,,,,,,,,,,,,,,,,,,,,,
,,,,,,,,,,,,,,,88813,001,2022-04-26_11h37.39.358,SPAMnetsValid,2021.1.4,MacIntel,60.0060006,,,,,,,,,,,,,,,,,,,,,,,,,,,,,,,,,,,,,,2,0.992,0,23,23,23,1,sedulousness,diligence,credulousness,seduction,perilousness,frankness,1,,,,,,,,,,,,,,,,,,,,,,,,,,,,,,,,,,,,,,
,,,,,,,,,,,,,,,88813,001,2022-04-26_11h37.39.358,SPAMnetsValid,2021.1.4,MacIntel,60.0060006,,,,,,,,,,,,,,,,,,,,,,,,,,,,,,,,,,,,,,,,,,,,,,,,,,,,birthday,candle,0,0,0,0,1,,,,,,,,,,,,,,,,,,,,,,,,,,,,,,,
,,,,,,,,,,,,,,,88813,001,2022-04-26_11h37.39.358,SPAMnetsValid,2021.1.4,MacIntel,60.0060006,,,,,,,,,,,,,,,,,,,,,,,,,,,,,,,,,,,,,,,,,,,,,,,,,,,,light,candle,1,0,1,0,1,,,,,,,,,,,,,,,,,,,,,,,,,,,,,,,
,,,,,,,,,,,,,,,88813,001,2022-04-26_11h37.39.358,SPAMnetsValid,2021.1.4,MacIntel,60.0060006,,,,,,,,,,,,,,,,,,,,,,,,,,,,,,,,,,,,,,,,,,,,,,,,,,,,fusing,candle,2,0,2,0,1,,,,,,,,,,,,,,,,,,,,,,,,,,,,,,,
,,,,,,,,,,,,,,,88813,001,2022-04-26_11h37.39.358,SPAMnetsValid,2021.1.4,MacIntel,60.0060006,,,,,,,,,,,,,,,,,,,,,,,,,,,,,,,,,,,,,,,,,,,,,,,,,,,,light,candle,3,0,3,0,1,,,,,,,,,,,,,,,,,,,,,,,,,,,,,,,
,,,,,,,,,,,,,,,88813,001,2022-04-26_11h37.39.358,SPAMnetsValid,2021.1.4,MacIntel,60.0060006,,,,,,,,,,,,,,,,,,,,,,,,,,,,,,,,,,,,,,,,,,,,,,,,,,,,warmth,candle,4,0,4,0,1,,,,,,,,,,,,,,,,,,,,,,,,,,,,,,,
,,,,,,,,,,,,,,,88813,001,2022-04-26_11h37.39.358,SPAMnetsValid,2021.1.4,MacIntel,60.0060006,,,,,,,,,,,,,,,,,,,,,,,,,,,,,,,,,,,,,,,,,,,,,,,,,,,,setting something on fire,candle,5,0,5,0,1,,,,,,,,,,,,,,,,,,,,,,,,,,,,,,,
,,,,,,,,,,,,,,,88813,001,2022-04-26_11h37.39.358,SPAMnetsValid,2021.1.4,MacIntel,60.0060006,,,,,,,,,,,,,,,,,,,,,,,,,,,,,,,,,,,,,,,,,,,,,,,,,,,,melt,candle,6,0,6,0,1,,,,,,,,,,,,,,,,,,,,,,,,,,,,,,,
,,,,,,,,,,,,,,,88813,001,2022-04-26_11h37.39.358,SPAMnetsValid,2021.1.4,MacIntel,60.0060006,,,,,,,,,,,,,,,,,,,,,,,,,,,,,,,,,,,,,,,,,,,,,,,,,,,,seal a letter,candle,7,0,7,0,1,,,,,,,,,,,,,,,,,,,,,,,,,,,,,,,
,,,,,,,,,,,,,,,88813,001,2022-04-26_11h37.39.358,SPAMnetsValid,2021.1.4,MacIntel,60.0060006,,,,,,,,,,,,,,,,,,,,,,,,,,,,,,,,,,,,,,,,,,,,,,,,,,,,,,,,,,,0,0,0,1,1,candle,,,,,,,,,,,,,,,,,,,,,,,,,
,,,,,,,,,,,,,,,88813,001,2022-04-26_11h37.39.358,SPAMnetsValid,2021.1.4,MacIntel,60.0060006,,,,,,,,,,,,,,,,,,,,,,,,,,,,,,,,,,,,,,,,,,,,,,,,,,,,carry water,bucket,0,0,0,0,1,,,,,,,,,,,,,,,,,,,,,,,,,,,,,,,
,,,,,,,,,,,,,,,88813,001,2022-04-26_11h37.39.358,SPAMnetsValid,2021.1.4,MacIntel,60.0060006,,,,,,,,,,,,,,,,,,,,,,,,,,,,,,,,,,,,,,,,,,,,,,,,,,,,carry stuff,bucket,1,0,1,0,1,,,,,,,,,,,,,,,,,,,,,,,,,,,,,,,
,,,,,,,,,,,,,,,88813,001,2022-04-26_11h37.39.358,SPAMnetsValid,2021.1.4,MacIntel,60.0060006,,,,,,,,,,,,,,,,,,,,,,,,,,,,,,,,,,,,,,,,,,,,,,,,,,,,building sand castle,bucket,2,0,2,0,1,,,,,,,,,,,,,,,,,,,,,,,,,,,,,,,
,,,,,,,,,,,,,,,88813,001,2022-04-26_11h37.39.358,SPAMnetsValid,2021.1.4,MacIntel,60.0060006,,,,,,,,,,,,,,,,,,,,,,,,,,,,,,,,,,,,,,,,,,,,,,,,,,,,sitting on,bucket,3,0,3,0,1,,,,,,,,,,,,,,,,,,,,,,,,,,,,,,,
,,,,,,,,,,,,,,,88813,001,2022-04-26_11h37.39.358,SPAMnetsValid,2021.1.4,MacIntel,60.0060006,,,,,,,,,,,,,,,,,,,,,,,,,,,,,,,,,,,,,,,,,,,,,,,,,,,,house for hermit crab,bucket,4,0,4,0,1,,,,,,,,,,,,,,,,,,,,,,,,,,,,,,,
,,,,,,,,,,,,,,,88813,001,2022-04-26_11h37.39.358,SPAMnetsValid,2021.1.4,MacIntel,60.0060006,,,,,,,,,,,,,,,,,,,,,,,,,,,,,,,,,,,,,,,,,,,,,,,,,,,,catch bug,bucket,5,0,5,0,1,,,,,,,,,,,,,,,,,,,,,,,,,,,,,,,
,,,,,,,,,,,,,,,88813,001,2022-04-26_11h37.39.358,SPAMnetsValid,2021.1.4,MacIntel,60.0060006,,,,,,,,,,,,,,,,,,,,,,,,,,,,,,,,,,,,,,,,,,,,,,,,,,,,carry cat,bucket,6,0,6,0,1,,,,,,,,,,,,,,,,,,,,,,,,,,,,,,,
,,,,,,,,,,,,,,,88813,001,2022-04-26_11h37.39.358,SPAMnetsValid,2021.1.4,MacIntel,60.0060006,,,,,,,,,,,,,,,,,,,,,,,,,,,,,,,,,,,,,,,,,,,,,,,,,,,,house a plant,bucket,7,0,7,0,1,,,,,,,,,,,,,,,,,,,,,,,,,,,,,,,
,,,,,,,,,,,,,,,88813,001,2022-04-26_11h37.39.358,SPAMnetsValid,2021.1.4,MacIntel,60.0060006,,,,,,,,,,,,,,,,,,,,,,,,,,,,,,,,,,,,,,,,,,,,,,,,,,,,stool,bucket,8,0,8,0,1,,,,,,,,,,,,,,,,,,,,,,,,,,,,,,,
,,,,,,,,,,,,,,,88813,001,2022-04-26_11h37.39.358,SPAMnetsValid,2021.1.4,MacIntel,60.0060006,,,,,,,,,,,,,,,,,,,,,,,,,,,,,,,,,,,,,,,,,,,,,,,,,,,,step,bucket,9,0,9,0,1,,,,,,,,,,,,,,,,,,,,,,,,,,,,,,,
,,,,,,,,,,,,,,,88813,001,2022-04-26_11h37.39.358,SPAMnetsValid,2021.1.4,MacIntel,60.0060006,,,,,,,,,,,,,,,,,,,,,,,,,,,,,,,,,,,,,,,,,,,,,,,,,,,,giant beer pong,bucket,10,0,10,0,1,,,,,,,,,,,,,,,,,,,,,,,,,,,,,,,
,,,,,,,,,,,,,,,88813,001,2022-04-26_11h37.39.358,SPAMnetsValid,2021.1.4,MacIntel,60.0060006,,,,,,,,,,,,,,,,,,,,,,,,,,,,,,,,,,,,,,,,,,,,,,,,,,,,eat soup,bucket,11,0,11,0,1,,,,,,,,,,,,,,,,,,,,,,,,,,,,,,,
,,,,,,,,,,,,,,,88813,001,2022-04-26_11h37.39.358,SPAMnetsValid,2021.1.4,MacIntel,60.0060006,,,,,,,,,,,,,,,,,,,,,,,,,,,,,,,,,,,,,,,,,,,,,,,,,,,,make stew,bucket,12,0,12,0,1,,,,,,,,,,,,,,,,,,,,,,,,,,,,,,,
,,,,,,,,,,,,,,,88813,001,2022-04-26_11h37.39.358,SPAMnetsValid,2021.1.4,MacIntel,60.0060006,,,,,,,,,,,,,,,,,,,,,,,,,,,,,,,,,,,,,,,,,,,,,,,,,,,,mix dirt and water,bucket,13,0,13,0,1,,,,,,,,,,,,,,,,,,,,,,,,,,,,,,,
,,,,,,,,,,,,,,,88813,001,2022-04-26_11h37.39.358,SPAMnetsValid,2021.1.4,MacIntel,60.0060006,,,,,,,,,,,,,,,,,,,,,,,,,,,,,,,,,,,,,,,,,,,,,,,,,,,,make mud pies,bucket,14,0,14,0,1,,,,,,,,,,,,,,,,,,,,,,,,,,,,,,,
,,,,,,,,,,,,,,,88813,001,2022-04-26_11h37.39.358,SPAMnetsValid,2021.1.4,MacIntel,60.0060006,,,,,,,,,,,,,,,,,,,,,,,,,,,,,,,,,,,,,,,,,,,,,,,,,,,,throw at someone,bucket,15,0,15,0,1,,,,,,,,,,,,,,,,,,,,,,,,,,,,,,,
,,,,,,,,,,,,,,,88813,001,2022-04-26_11h37.39.358,SPAMnetsValid,2021.1.4,MacIntel,60.0060006,,,,,,,,,,,,,,,,,,,,,,,,,,,,,,,,,,,,,,,,,,,,,,,,,,,,,,,,,,,0,1,1,0,1,bucket,,,,,,,,,,,,,,,,,,,,,,,,,
,,,,,,,,,,,,,,,88813,001,2022-04-26_11h37.39.358,SPAMnetsValid,2021.1.4,MacIntel,60.0060006,,,,,,,,,,,,,,,,,,,,,,,,,,,,,,,,,,,,,,,,,,,,,,,,,,,,sleep,pillow,0,0,0,0,1,,,,,,,,,,,,,,,,,,,,,,,,,,,,,,,
,,,,,,,,,,,,,,,88813,001,2022-04-26_11h37.39.358,SPAMnetsValid,2021.1.4,MacIntel,60.0060006,,,,,,,,,,,,,,,,,,,,,,,,,,,,,,,,,,,,,,,,,,,,,,,,,,,,cover a window,pillow,1,0,1,0,1,,,,,,,,,,,,,,,,,,,,,,,,,,,,,,,
,,,,,,,,,,,,,,,88813,001,2022-04-26_11h37.39.358,SPAMnetsValid,2021.1.4,MacIntel,60.0060006,,,,,,,,,,,,,,,,,,,,,,,,,,,,,,,,,,,,,,,,,,,,,,,,,,,,hit someone,pillow,2,0,2,0,1,,,,,,,,,,,,,,,,,,,,,,,,,,,,,,,
,,,,,,,,,,,,,,,88813,001,2022-04-26_11h37.39.358,SPAMnetsValid,2021.1.4,MacIntel,60.0060006,,,,,,,,,,,,,,,,,,,,,,,,,,,,,,,,,,,,,,,,,,,,,,,,,,,,pillow fight,pillow,3,0,3,0,1,,,,,,,,,,,,,,,,,,,,,,,,,,,,,,,
,,,,,,,,,,,,,,,88813,001,2022-04-26_11h37.39.358,SPAMnetsValid,2021.1.4,MacIntel,60.0060006,,,,,,,,,,,,,,,,,,,,,,,,,,,,,,,,,,,,,,,,,,,,,,,,,,,,pillow fort,pillow,4,0,4,0,1,,,,,,,,,,,,,,,,,,,,,,,,,,,,,,,
,,,,,,,,,,,,,,,88813,001,2022-04-26_11h37.39.358,SPAMnetsValid,2021.1.4,MacIntel,60.0060006,,,,,,,,,,,,,,,,,,,,,,,,,,,,,,,,,,,,,,,,,,,,,,,,,,,,smother,pillow,5,0,5,0,1,,,,,,,,,,,,,,,,,,,,,,,,,,,,,,,
,,,,,,,,,,,,,,,88813,001,2022-04-26_11h37.39.358,SPAMnetsValid,2021.1.4,MacIntel,60.0060006,,,,,,,,,,,,,,,,,,,,,,,,,,,,,,,,,,,,,,,,,,,,,,,,,,,,put out fire,pillow,6,0,6,0,1,,,,,,,,,,,,,,,,,,,,,,,,,,,,,,,
,,,,,,,,,,,,,,,88813,001,2022-04-26_11h37.39.358,SPAMnetsValid,2021.1.4,MacIntel,60.0060006,,,,,,,,,,,,,,,,,,,,,,,,,,,,,,,,,,,,,,,,,,,,,,,,,,,,sleepover,pillow,7,0,7,0,1,,,,,,,,,,,,,,,,,,,,,,,,,,,,,,,
,,,,,,,,,,,,,,,88813,001,2022-04-26_11h37.39.358,SPAMnetsValid,2021.1.4,MacIntel,60.0060006,,,,,,,,,,,,,,,,,,,,,,,,,,,,,,,,,,,,,,,,,,,,,,,,,,,,pillow fight,pillow,8,0,8,0,1,,,,,,,,,,,,,,,,,,,,,,,,,,,,,,,
,,,,,,,,,,,,,,,88813,001,2022-04-26_11h37.39.358,SPAMnetsValid,2021.1.4,MacIntel,60.0060006,,,,,,,,,,,,,,,,,,,,,,,,,,,,,,,,,,,,,,,,,,,,,,,,,,,,use the case to carry things,pillow,9,0,9,0,1,,,,,,,,,,,,,,,,,,,,,,,,,,,,,,,
,,,,,,,,,,,,,,,88813,001,2022-04-26_11h37.39.358,SPAMnetsValid,2021.1.4,MacIntel,60.0060006,,,,,,,,,,,,,,,,,,,,,,,,,,,,,,,,,,,,,,,,,,,,,,,,,,,,bed for a small dog,pillow,10,0,10,0,1,,,,,,,,,,,,,,,,,,,,,,,,,,,,,,,
,,,,,,,,,,,,,,,88813,001,2022-04-26_11h37.39.358,SPAMnetsValid,2021.1.4,MacIntel,60.0060006,,,,,,,,,,,,,,,,,,,,,,,,,,,,,,,,,,,,,,,,,,,,,,,,,,,,sit on,pillow,11,0,11,0,1,,,,,,,,,,,,,,,,,,,,,,,,,,,,,,,
,,,,,,,,,,,,,,,88813,001,2022-04-26_11h37.39.358,SPAMnetsValid,2021.1.4,MacIntel,60.0060006,,,,,,,,,,,,,,,,,,,,,,,,,,,,,,,,,,,,,,,,,,,,,,,,,,,,cushion,pillow,12,0,12,0,1,,,,,,,,,,,,,,,,,,,,,,,,,,,,,,,
,,,,,,,,,,,,,,,88813,001,2022-04-26_11h37.39.358,SPAMnetsValid,2021.1.4,MacIntel,60.0060006,,,,,,,,,,,,,,,,,,,,,,,,,,,,,,,,,,,,,,,,,,,,,,,,,,,,back support,pillow,13,0,13,0,1,,,,,,,,,,,,,,,,,,,,,,,,,,,,,,,
,,,,,,,,,,,,,,,88813,001,2022-04-26_11h37.39.358,SPAMnetsValid,2021.1.4,MacIntel,60.0060006,,,,,,,,,,,,,,,,,,,,,,,,,,,,,,,,,,,,,,,,,,,,,,,,,,,,,,,,,,,0,2,2,2,1,pillow,,,,,,,,,,,,,,,,,,,,,,,,,
,,,,,,,,,,,,,,,88813,001,2022-04-26_11h37.39.358,SPAMnetsValid,2021.1.4,MacIntel,60.0060006,,,,,,,,,,,,,,,,,,,,,,,,,,,,,,,,,,,,,,,,,,,,,,,,,,,,,,,,,,,,,,,,,,Animals,0,0,0,0,1,,,,,,,,,,,,,,,,,,
,,,,,,,,,,,,,,,88813,001,2022-04-26_11h37.39.358,SPAMnetsValid,2021.1.4,MacIntel,60.0060006,,,,,,,,,,,,,,,,,,,,,,,,,,,,,,,,,,,,,,,,,,,,,,,,,,,,,,,,,,,,,,,,,cat,Animals,1,0,1,0,1,,,,,,,,,,,,,,,,,,
,,,,,,,,,,,,,,,88813,001,2022-04-26_11h37.39.358,SPAMnetsValid,2021.1.4,MacIntel,60.0060006,,,,,,,,,,,,,,,,,,,,,,,,,,,,,,,,,,,,,,,,,,,,,,,,,,,,,,,,,,,,,,,,,dog,Animals,2,0,2,0,1,,,,,,,,,,,,,,,,,,
,,,,,,,,,,,,,,,88813,001,2022-04-26_11h37.39.358,SPAMnetsValid,2021.1.4,MacIntel,60.0060006,,,,,,,,,,,,,,,,,,,,,,,,,,,,,,,,,,,,,,,,,,,,,,,,,,,,,,,,,,,,,,,,,snake,Animals,3,0,3,0,1,,,,,,,,,,,,,,,,,,
,,,,,,,,,,,,,,,88813,001,2022-04-26_11h37.39.358,SPAMnetsValid,2021.1.4,MacIntel,60.0060006,,,,,,,,,,,,,,,,,,,,,,,,,,,,,,,,,,,,,,,,,,,,,,,,,,,,,,,,,,,,,,,,,bobcat,Animals,4,0,4,0,1,,,,,,,,,,,,,,,,,,
,,,,,,,,,,,,,,,88813,001,2022-04-26_11h37.39.358,SPAMnetsValid,2021.1.4,MacIntel,60.0060006,,,,,,,,,,,,,,,,,,,,,,,,,,,,,,,,,,,,,,,,,,,,,,,,,,,,,,,,,,,,,,,,,seal,Animals,5,0,5,0,1,,,,,,,,,,,,,,,,,,
,,,,,,,,,,,,,,,88813,001,2022-04-26_11h37.39.358,SPAMnetsValid,2021.1.4,MacIntel,60.0060006,,,,,,,,,,,,,,,,,,,,,,,,,,,,,,,,,,,,,,,,,,,,,,,,,,,,,,,,,,,,,,,,,tiger,Animals,6,0,6,0,1,,,,,,,,,,,,,,,,,,
,,,,,,,,,,,,,,,88813,001,2022-04-26_11h37.39.358,SPAMnetsValid,2021.1.4,MacIntel,60.0060006,,,,,,,,,,,,,,,,,,,,,,,,,,,,,,,,,,,,,,,,,,,,,,,,,,,,,,,,,,,,,,,,,saber tooth shark,Animals,7,0,7,0,1,,,,,,,,,,,,,,,,,,
,,,,,,,,,,,,,,,88813,001,2022-04-26_11h37.39.358,SPAMnetsValid,2021.1.4,MacIntel,60.0060006,,,,,,,,,,,,,,,,,,,,,,,,,,,,,,,,,,,,,,,,,,,,,,,,,,,,,,,,,,,,,,,,,belluga whale,Animals,8,0,8,0,1,,,,,,,,,,,,,,,,,,
,,,,,,,,,,,,,,,88813,001,2022-04-26_11h37.39.358,SPAMnetsValid,2021.1.4,MacIntel,60.0060006,,,,,,,,,,,,,,,,,,,,,,,,,,,,,,,,,,,,,,,,,,,,,,,,,,,,,,,,,,,,,,,,,blue whale,Animals,9,0,9,0,1,,,,,,,,,,,,,,,,,,
,,,,,,,,,,,,,,,88813,001,2022-04-26_11h37.39.358,SPAMnetsValid,2021.1.4,MacIntel,60.0060006,,,,,,,,,,,,,,,,,,,,,,,,,,,,,,,,,,,,,,,,,,,,,,,,,,,,,,,,,,,,,,,,,hammerhead shark,Animals,10,0,10,0,1,,,,,,,,,,,,,,,,,,
,,,,,,,,,,,,,,,88813,001,2022-04-26_11h37.39.358,SPAMnetsValid,2021.1.4,MacIntel,60.0060006,,,,,,,,,,,,,,,,,,,,,,,,,,,,,,,,,,,,,,,,,,,,,,,,,,,,,,,,,,,,,,,,,puppy,Animals,11,0,11,0,1,,,,,,,,,,,,,,,,,,
,,,,,,,,,,,,,,,88813,001,2022-04-26_11h37.39.358,SPAMnetsValid,2021.1.4,MacIntel,60.0060006,,,,,,,,,,,,,,,,,,,,,,,,,,,,,,,,,,,,,,,,,,,,,,,,,,,,,,,,,,,,,,,,,snail,Animals,12,0,12,0,1,,,,,,,,,,,,,,,,,,
,,,,,,,,,,,,,,,88813,001,2022-04-26_11h37.39.358,SPAMnetsValid,2021.1.4,MacIntel,60.0060006,,,,,,,,,,,,,,,,,,,,,,,,,,,,,,,,,,,,,,,,,,,,,,,,,,,,,,,,,,,,,,,,,fish,Animals,13,0,13,0,1,,,,,,,,,,,,,,,,,,
,,,,,,,,,,,,,,,88813,001,2022-04-26_11h37.39.358,SPAMnetsValid,2021.1.4,MacIntel,60.0060006,,,,,,,,,,,,,,,,,,,,,,,,,,,,,,,,,,,,,,,,,,,,,,,,,,,,,,,,,,,,,,,,,meercat,Animals,14,0,14,0,1,,,,,,,,,,,,,,,,,,
,,,,,,,,,,,,,,,88813,001,2022-04-26_11h37.39.358,SPAMnetsValid,2021.1.4,MacIntel,60.0060006,,,,,,,,,,,,,,,,,,,,,,,,,,,,,,,,,,,,,,,,,,,,,,,,,,,,,,,,,,,,,,,,,buffalo,Animals,15,0,15,0,1,,,,,,,,,,,,,,,,,,
,,,,,,,,,,,,,,,88813,001,2022-04-26_11h37.39.358,SPAMnetsValid,2021.1.4,MacIntel,60.0060006,,,,,,,,,,,,,,,,,,,,,,,,,,,,,,,,,,,,,,,,,,,,,,,,,,,,,,,,,,,,,,,,,bird,Animals,16,0,16,0,1,,,,,,,,,,,,,,,,,,
,,,,,,,,,,,,,,,88813,001,2022-04-26_11h37.39.358,SPAMnetsValid,2021.1.4,MacIntel,60.0060006,,,,,,,,,,,,,,,,,,,,,,,,,,,,,,,,,,,,,,,,,,,,,,,,,,,,,,,,,,,,,,,,,hairless cat,Animals,17,0,17,0,1,,,,,,,,,,,,,,,,,,
,,,,,,,,,,,,,,,88813,001,2022-04-26_11h37.39.358,SPAMnetsValid,2021.1.4,MacIntel,60.0060006,,,,,,,,,,,,,,,,,,,,,,,,,,,,,,,,,,,,,,,,,,,,,,,,,,,,,,,,,,,,,,,,,lemur,Animals,18,0,18,0,1,,,,,,,,,,,,,,,,,,
,,,,,,,,,,,,,,,88813,001,2022-04-26_11h37.39.358,SPAMnetsValid,2021.1.4,MacIntel,60.0060006,,,,,,,,,,,,,,,,,,,,,,,,,,,,,,,,,,,,,,,,,,,,,,,,,,,,,,,,,,,,,,,,,lion,Animals,19,0,19,0,1,,,,,,,,,,,,,,,,,,
,,,,,,,,,,,,,,,88813,001,2022-04-26_11h37.39.358,SPAMnetsValid,2021.1.4,MacIntel,60.0060006,,,,,,,,,,,,,,,,,,,,,,,,,,,,,,,,,,,,,,,,,,,,,,,,,,,,,,,,,,,,,,,,,puffer fish,Animals,20,0,20,0,1,,,,,,,,,,,,,,,,,,
,,,,,,,,,,,,,,,88813,001,2022-04-26_11h37.39.358,SPAMnetsValid,2021.1.4,MacIntel,60.0060006,,,,,,,,,,,,,,,,,,,,,,,,,,,,,,,,,,,,,,,,,,,,,,,,,,,,,,,,,,,,,,,,,shark,Animals,21,0,21,0,1,,,,,,,,,,,,,,,,,,
,,,,,,,,,,,,,,,88813,001,2022-04-26_11h37.39.358,SPAMnetsValid,2021.1.4,MacIntel,60.0060006,,,,,,,,,,,,,,,,,,,,,,,,,,,,,,,,,,,,,,,,,,,,,,,,,,,,,,,,,,,,,,,,,squirrel,Animals,22,0,22,0,1,,,,,,,,,,,,,,,,,,
,,,,,,,,,,,,,,,88813,001,2022-04-26_11h37.39.358,SPAMnetsValid,2021.1.4,MacIntel,60.0060006,,,,,,,,,,,,,,,,,,,,,,,,,,,,,,,,,,,,,,,,,,,,,,,,,,,,,,,,,,,,,,,,,chipmunks,Animals,23,0,23,0,1,,,,,,,,,,,,,,,,,,
,,,,,,,,,,,,,,,88813,001,2022-04-26_11h37.39.358,SPAMnetsValid,2021.1.4,MacIntel,60.0060006,,,,,,,,,,,,,,,,,,,,,,,,,,,,,,,,,,,,,,,,,,,,,,,,,,,,,,,,,,,,,,,,,rat,Animals,24,0,24,0,1,,,,,,,,,,,,,,,,,,
,,,,,,,,,,,,,,,88813,001,2022-04-26_11h37.39.358,SPAMnetsValid,2021.1.4,MacIntel,60.0060006,,,,,,,,,,,,,,,,,,,,,,,,,,,,,,,,,,,,,,,,,,,,,,,,,,,,,,,,,,,,,,,,,mouse,Animals,25,0,25,0,1,,,,,,,,,,,,,,,,,,
,,,,,,,,,,,,,,,88813,001,2022-04-26_11h37.39.358,SPAMnetsValid,2021.1.4,MacIntel,60.0060006,,,,,,,,,,,,,,,,,,,,,,,,,,,,,,,,,,,,,,,,,,,,,,,,,,,,,,,,,,,,,,,,,shrimp,Animals,26,0,26,0,1,,,,,,,,,,,,,,,,,,
,,,,,,,,,,,,,,,88813,001,2022-04-26_11h37.39.358,SPAMnetsValid,2021.1.4,MacIntel,60.0060006,,,,,,,,,,,,,,,,,,,,,,,,,,,,,,,,,,,,,,,,,,,,,,,,,,,,,,,,,,,,,,,,,pron,Animals,27,0,27,0,1,,,,,,,,,,,,,,,,,,
,,,,,,,,,,,,,,,88813,001,2022-04-26_11h37.39.358,SPAMnetsValid,2021.1.4,MacIntel,60.0060006,,,,,,,,,,,,,,,,,,,,,,,,,,,,,,,,,,,,,,,,,,,,,,,,,,,,,,,,,,,,,,,,,eel,Animals,28,0,28,0,1,,,,,,,,,,,,,,,,,,
,,,,,,,,,,,,,,,88813,001,2022-04-26_11h37.39.358,SPAMnetsValid,2021.1.4,MacIntel,60.0060006,,,,,,,,,,,,,,,,,,,,,,,,,,,,,,,,,,,,,,,,,,,,,,,,,,,,,,,,,,,,,,,,,praying mantis,Animals,29,0,29,0,1,,,,,,,,,,,,,,,,,,
,,,,,,,,,,,,,,,88813,001,2022-04-26_11h37.39.358,SPAMnetsValid,2021.1.4,MacIntel,60.0060006,,,,,,,,,,,,,,,,,,,,,,,,,,,,,,,,,,,,,,,,,,,,,,,,,,,,,,,,,,,,,,,,,,,,,,,,0,0,0,0,1,Animals,,,,,,,,,,,,
,,,,,,,,,,,,,,,88813,001,2022-04-26_11h37.39.358,SPAMnetsValid,2021.1.4,MacIntel,60.0060006,,,,,,,,,,,,,,,,,,,,,,,,,,,,,,,,,,,,,,,,,,,,,,,,,,,,,,,,,,,,,,,,,,,,,,,,,,,,,,1,4.5557,0,0,0,0,1,"I enjoy concentrating on a fantasy or daydream and exploring all its possibilities, letting it grow and develop.",0,1,,
,,,,,,,,,,,,,,,88813,001,2022-04-26_11h37.39.358,SPAMnetsValid,2021.1.4,MacIntel,60.0060006,,,,,,,,,,,,,,,,,,,,,,,,,,,,,,,,,,,,,,,,,,,,,,,,,,,,,,,,,,,,,,,,,,,,,,,,,,,,,,4,2.4355,0,1,1,1,1,I think it's interesting to learn and develop new hobbies.,0,2,,
,,,,,,,,,,,,,,,88813,001,2022-04-26_11h37.39.358,SPAMnetsValid,2021.1.4,MacIntel,60.0060006,,,,,,,,,,,,,,,,,,,,,,,,,,,,,,,,,,,,,,,,,,,,,,,,,,,,,,,,,,,,,,,,,,,,,,,,,,,,,,3,1.9075,0,2,2,2,1,I am intrigued by the patterns I find in art and nature.,0,3,,
,,,,,,,,,,,,,,,88813,001,2022-04-26_11h37.39.358,SPAMnetsValid,2021.1.4,MacIntel,60.0060006,,,,,,,,,,,,,,,,,,,,,,,,,,,,,,,,,,,,,,,,,,,,,,,,,,,,,,,,,,,,,,,,,,,,,,,,,,,,,,2,3.8746,0,3,3,3,1,I believe letting students hear controversial speakers can only confuse and mislead them.,1,4,,
,,,,,,,,,,,,,,,88813,001,2022-04-26_11h37.39.358,SPAMnetsValid,2021.1.4,MacIntel,60.0060006,,,,,,,,,,,,,,,,,,,,,,,,,,,,,,,,,,,,,,,,,,,,,,,,,,,,,,,,,,,,,,,,,,,,,,,,,,,,,,5,2.3996,0,4,4,4,1,Poetry has little or no effect on me.,1,5,,
,,,,,,,,,,,,,,,88813,001,2022-04-26_11h37.39.358,SPAMnetsValid,2021.1.4,MacIntel,60.0060006,,,,,,,,,,,,,,,,,,,,,,,,,,,,,,,,,,,,,,,,,,,,,,,,,,,,,,,,,,,,,,,,,,,,,,,,,,,,,,5,3.8058,0,5,5,5,1,I would have difficulty just letting my mind wander without control or guidance.,1,6,,
,,,,,,,,,,,,,,,88813,001,2022-04-26_11h37.39.358,SPAMnetsValid,2021.1.4,MacIntel,60.0060006,,,,,,,,,,,,,,,,,,,,,,,,,,,,,,,,,,,,,,,,,,,,,,,,,,,,,,,,,,,,,,,,,,,,,,,,,,,,,,2,3.5158,0,6,6,6,1,I seldom notice the moods or feelings that different environments produce.,1,7,,
,,,,,,,,,,,,,,,88813,001,2022-04-26_11h37.39.358,SPAMnetsValid,2021.1.4,MacIntel,60.0060006,,,,,,,,,,,,,,,,,,,,,,,,,,,,,,,,,,,,,,,,,,,,,,,,,,,,,,,,,,,,,,,,,,,,,,,,,,,,,,4,3.082,0,7,7,7,1,I experience a wide range of emotions or feelings.,0,8,,
,,,,,,,,,,,,,,,88813,001,2022-04-26_11h37.39.358,SPAMnetsValid,2021.1.4,MacIntel,60.0060006,,,,,,,,,,,,,,,,,,,,,,,,,,,,,,,,,,,,,,,,,,,,,,,,,,,,,,,,,,,,,,,,,,,,,,,,,,,,,,2,26.2083,0,8,8,8,1,"Sometimes when I am reading poetry or looking at a work of art, I feel a chill or wave of excitement.",0,9,,
,,,,,,,,,,,,,,,88813,001,2022-04-26_11h37.39.358,SPAMnetsValid,2021.1.4,MacIntel,60.0060006,,,,,,,,,,,,,,,,,,,,,,,,,,,,,,,,,,,,,,,,,,,,,,,,,,,,,,,,,,,,,,,,,,,,,,,,,,,,,,3,2.7566,0,9,9,9,1,I have little interest in speculating on the nature of the universe or the human condition.,1,10,,
,,,,,,,,,,,,,,,88813,001,2022-04-26_11h37.39.358,SPAMnetsValid,2021.1.4,MacIntel,60.0060006,,,,,,,,,,,,,,,,,,,,,,,,,,,,,,,,,,,,,,,,,,,,,,,,,,,,,,,,,,,,,,,,,,,,,,,,,,,,,,4,2.8189,0,10,10,10,1,I have a lot of intellectual curiosity.,0,11,,
,,,,,,,,,,,,,,,88813,001,2022-04-26_11h37.39.358,SPAMnetsValid,2021.1.4,MacIntel,60.0060006,,,,,,,,,,,,,,,,,,,,,,,,,,,,,,,,,,,,,,,,,,,,,,,,,,,,,,,,,,,,,,,,,,,,,,,,,,,,,,2,7.4975,0,11,11,11,1,I often enjoy playing with theories or abstract ideas.,0,12,,
,,,,,,,,,,,,,,,88813,001,2022-04-26_11h37.39.358,SPAMnetsValid,2021.1.4,MacIntel,60.0060006,,,,,,,,,,,,,,,,,,,,,,,,,,,,,,,,,,,,,,,,,,,,,,,,,,,,,,,,,,,,,,,,,,,,,,,,,,,,,,,,,,,,,,,,return,1.049
