key_resp_3.keys,key_resp_3.rt,slider_2.response,slider_2.rt,rjt_rating,rjt_RT,trials_24.thisRepN,trials_24.thisTrialN,trials_24.thisN,trials_24.thisIndex,trials_24.ran,rjt_order,word1,word2,attention,participant,session,date,expName,psychopyVersion,OS,frameRate,trials_4.thisRepN,trials_4.thisTrialN,trials_4.thisN,trials_4.thisIndex,trials_4.ran,trials_5.thisRepN,trials_5.thisTrialN,trials_5.thisN,trials_5.thisIndex,trials_5.ran,repOne,repTwo,slider.response,slider.rt,trials_22.thisRepN,trials_22.thisTrialN,trials_22.thisN,trials_22.thisIndex,trials_22.ran,trials_99.thisRepN,trials_99.thisTrialN,trials_99.thisN,trials_99.thisIndex,trials_99.ran,slider_extend_2.response,slider_extend_2.rt,trials_6.thisRepN,trials_6.thisTrialN,trials_6.thisN,trials_6.thisIndex,trials_6.ran,vCue2,R1,R2,R3,R4,correct,sliderVocab.response,sliderVocab.rt,trials_7.thisRepN,trials_7.thisTrialN,trials_7.thisN,trials_7.thisIndex,trials_7.ran,VocabCue,VR1,VR2,VR3,VR4,VR5,VocabCorrect,AUT_resp,AUT_label,trials.thisRepN,trials.thisTrialN,trials.thisN,trials.thisIndex,trials.ran,trials_2.thisRepN,trials_2.thisTrialN,trials_2.thisN,trials_2.thisIndex,trials_2.ran,aut_prompt,VF_response,VF_tag,trials_16.thisRepN,trials_16.thisTrialN,trials_16.thisN,trials_16.thisIndex,trials_16.ran,trials_17.thisRepN,trials_17.thisTrialN,trials_17.thisN,trials_17.thisIndex,trials_17.ran,VFcond,open_slider.response,open_slider.rt,trials_3.thisRepN,trials_3.thisTrialN,trials_3.thisN,trials_3.thisIndex,trials_3.ran,OpenQ,Rev,OPEN_ORDER,key_resp_2.keys,key_resp_2.rt
return,7.753,6,9.8387,6,9.8387,0,0,0,75,1,178,cactus,carrot,,88839,001,2022-04-18_16h25.40.433,SPAMnetsValid,2021.1.4,MacIntel,60.0024001,,,,,,,,,,,,,,,,,,,,,,,,,,,,,,,,,,,,,,,,,,,,,,,,,,,,,,,,,,,,,,,,,,,,,,,,,,,,,,,,,,,,,,,,,
,,7,8.1201,7,8.1201,0,1,1,90,1,190,microwave,strawberry,,88839,001,2022-04-18_16h25.40.433,SPAMnetsValid,2021.1.4,MacIntel,60.0024001,,,,,,,,,,,,,,,,,,,,,,,,,,,,,,,,,,,,,,,,,,,,,,,,,,,,,,,,,,,,,,,,,,,,,,,,,,,,,,,,,,,,,,,,,
,,9,2.3823,9,2.3823,0,2,2,70,1,141,melon,tomato,,88839,001,2022-04-18_16h25.40.433,SPAMnetsValid,2021.1.4,MacIntel,60.0024001,,,,,,,,,,,,,,,,,,,,,,,,,,,,,,,,,,,,,,,,,,,,,,,,,,,,,,,,,,,,,,,,,,,,,,,,,,,,,,,,,,,,,,,,,
,,7,1.2805,7,1.2805,0,3,3,8,1,97,chocolate,kitchen,,88839,001,2022-04-18_16h25.40.433,SPAMnetsValid,2021.1.4,MacIntel,60.0024001,,,,,,,,,,,,,,,,,,,,,,,,,,,,,,,,,,,,,,,,,,,,,,,,,,,,,,,,,,,,,,,,,,,,,,,,,,,,,,,,,,,,,,,,,
,,2,1.3151,2,1.3151,0,4,4,59,1,164,cookie,garden,,88839,001,2022-04-18_16h25.40.433,SPAMnetsValid,2021.1.4,MacIntel,60.0024001,,,,,,,,,,,,,,,,,,,,,,,,,,,,,,,,,,,,,,,,,,,,,,,,,,,,,,,,,,,,,,,,,,,,,,,,,,,,,,,,,,,,,,,,,
,,9,2.1398,9,2.1398,0,5,5,86,1,193,melon,melon,CHECK,88839,001,2022-04-18_16h25.40.433,SPAMnetsValid,2021.1.4,MacIntel,60.0024001,,,,,,,,,,,,,,,,,,,,,,,,,,,,,,,,,,,,,,,,,,,,,,,,,,,,,,,,,,,,,,,,,,,,,,,,,,,,,,,,,,,,,,,,,
,,7,2.0143,7,2.0143,0,6,6,73,1,135,carrot,oven,,88839,001,2022-04-18_16h25.40.433,SPAMnetsValid,2021.1.4,MacIntel,60.0024001,,,,,,,,,,,,,,,,,,,,,,,,,,,,,,,,,,,,,,,,,,,,,,,,,,,,,,,,,,,,,,,,,,,,,,,,,,,,,,,,,,,,,,,,,
,,8,1.699,8,1.699,0,7,7,23,1,148,flower,melon,,88839,001,2022-04-18_16h25.40.433,SPAMnetsValid,2021.1.4,MacIntel,60.0024001,,,,,,,,,,,,,,,,,,,,,,,,,,,,,,,,,,,,,,,,,,,,,,,,,,,,,,,,,,,,,,,,,,,,,,,,,,,,,,,,,,,,,,,,,
,,8,2.0319,8,2.0319,0,8,8,45,1,179,broom,oven,,88839,001,2022-04-18_16h25.40.433,SPAMnetsValid,2021.1.4,MacIntel,60.0024001,,,,,,,,,,,,,,,,,,,,,,,,,,,,,,,,,,,,,,,,,,,,,,,,,,,,,,,,,,,,,,,,,,,,,,,,,,,,,,,,,,,,,,,,,
,,2,1.781,2,1.781,0,9,9,58,1,144,cake,garden,,88839,001,2022-04-18_16h25.40.433,SPAMnetsValid,2021.1.4,MacIntel,60.0024001,,,,,,,,,,,,,,,,,,,,,,,,,,,,,,,,,,,,,,,,,,,,,,,,,,,,,,,,,,,,,,,,,,,,,,,,,,,,,,,,,,,,,,,,,
,,2,1.1833,2,1.1833,0,10,10,68,1,180,tree,yogurt,,88839,001,2022-04-18_16h25.40.433,SPAMnetsValid,2021.1.4,MacIntel,60.0024001,,,,,,,,,,,,,,,,,,,,,,,,,,,,,,,,,,,,,,,,,,,,,,,,,,,,,,,,,,,,,,,,,,,,,,,,,,,,,,,,,,,,,,,,,
,,7,2.1161,7,2.1161,0,11,11,42,1,184,oven,pretzel,,88839,001,2022-04-18_16h25.40.433,SPAMnetsValid,2021.1.4,MacIntel,60.0024001,,,,,,,,,,,,,,,,,,,,,,,,,,,,,,,,,,,,,,,,,,,,,,,,,,,,,,,,,,,,,,,,,,,,,,,,,,,,,,,,,,,,,,,,,
,,2,1.4837,2,1.4837,0,12,12,63,1,137,microwave,tree,,88839,001,2022-04-18_16h25.40.433,SPAMnetsValid,2021.1.4,MacIntel,60.0024001,,,,,,,,,,,,,,,,,,,,,,,,,,,,,,,,,,,,,,,,,,,,,,,,,,,,,,,,,,,,,,,,,,,,,,,,,,,,,,,,,,,,,,,,,
,,2,1.678,2,1.678,0,13,13,57,1,127,cactus,chocolate,,88839,001,2022-04-18_16h25.40.433,SPAMnetsValid,2021.1.4,MacIntel,60.0024001,,,,,,,,,,,,,,,,,,,,,,,,,,,,,,,,,,,,,,,,,,,,,,,,,,,,,,,,,,,,,,,,,,,,,,,,,,,,,,,,,,,,,,,,,
,,8,1.4755,8,1.4755,0,14,14,87,1,114,cookie,strawberry,,88839,001,2022-04-18_16h25.40.433,SPAMnetsValid,2021.1.4,MacIntel,60.0024001,,,,,,,,,,,,,,,,,,,,,,,,,,,,,,,,,,,,,,,,,,,,,,,,,,,,,,,,,,,,,,,,,,,,,,,,,,,,,,,,,,,,,,,,,
,,7,1.2768,7,1.2768,0,15,15,41,1,175,melon,onion,,88839,001,2022-04-18_16h25.40.433,SPAMnetsValid,2021.1.4,MacIntel,60.0024001,,,,,,,,,,,,,,,,,,,,,,,,,,,,,,,,,,,,,,,,,,,,,,,,,,,,,,,,,,,,,,,,,,,,,,,,,,,,,,,,,,,,,,,,,
,,7,1.0734,7,1.0734,0,16,16,39,1,112,cake,carrot,,88839,001,2022-04-18_16h25.40.433,SPAMnetsValid,2021.1.4,MacIntel,60.0024001,,,,,,,,,,,,,,,,,,,,,,,,,,,,,,,,,,,,,,,,,,,,,,,,,,,,,,,,,,,,,,,,,,,,,,,,,,,,,,,,,,,,,,,,,
,,7,0.7592,7,0.7592,0,17,17,11,1,117,melon,strawberry,,88839,001,2022-04-18_16h25.40.433,SPAMnetsValid,2021.1.4,MacIntel,60.0024001,,,,,,,,,,,,,,,,,,,,,,,,,,,,,,,,,,,,,,,,,,,,,,,,,,,,,,,,,,,,,,,,,,,,,,,,,,,,,,,,,,,,,,,,,
,,3,1.2277,3,1.2277,0,18,18,96,1,136,chocolate,microwave,,88839,001,2022-04-18_16h25.40.433,SPAMnetsValid,2021.1.4,MacIntel,60.0024001,,,,,,,,,,,,,,,,,,,,,,,,,,,,,,,,,,,,,,,,,,,,,,,,,,,,,,,,,,,,,,,,,,,,,,,,,,,,,,,,,,,,,,,,,
,,6,1.6411,6,1.6411,0,19,19,56,1,113,refrigerator,strawberry,,88839,001,2022-04-18_16h25.40.433,SPAMnetsValid,2021.1.4,MacIntel,60.0024001,,,,,,,,,,,,,,,,,,,,,,,,,,,,,,,,,,,,,,,,,,,,,,,,,,,,,,,,,,,,,,,,,,,,,,,,,,,,,,,,,,,,,,,,,
,,6,1.0397,6,1.0397,0,20,20,5,1,108,carrot,chocolate,,88839,001,2022-04-18_16h25.40.433,SPAMnetsValid,2021.1.4,MacIntel,60.0024001,,,,,,,,,,,,,,,,,,,,,,,,,,,,,,,,,,,,,,,,,,,,,,,,,,,,,,,,,,,,,,,,,,,,,,,,,,,,,,,,,,,,,,,,,
,,2,1.3334,2,1.3334,0,21,21,10,1,118,chocolate,oven,,88839,001,2022-04-18_16h25.40.433,SPAMnetsValid,2021.1.4,MacIntel,60.0024001,,,,,,,,,,,,,,,,,,,,,,,,,,,,,,,,,,,,,,,,,,,,,,,,,,,,,,,,,,,,,,,,,,,,,,,,,,,,,,,,,,,,,,,,,
,,6,1.3944,6,1.3944,0,22,22,77,1,172,kitchen,melon,,88839,001,2022-04-18_16h25.40.433,SPAMnetsValid,2021.1.4,MacIntel,60.0024001,,,,,,,,,,,,,,,,,,,,,,,,,,,,,,,,,,,,,,,,,,,,,,,,,,,,,,,,,,,,,,,,,,,,,,,,,,,,,,,,,,,,,,,,,
,,9,1.543,9,1.543,0,23,23,37,1,139,carrot,strawberry,,88839,001,2022-04-18_16h25.40.433,SPAMnetsValid,2021.1.4,MacIntel,60.0024001,,,,,,,,,,,,,,,,,,,,,,,,,,,,,,,,,,,,,,,,,,,,,,,,,,,,,,,,,,,,,,,,,,,,,,,,,,,,,,,,,,,,,,,,,
,,9,1.5243,9,1.5243,0,24,24,25,1,194,cactus,cactus,CHECK,88839,001,2022-04-18_16h25.40.433,SPAMnetsValid,2021.1.4,MacIntel,60.0024001,,,,,,,,,,,,,,,,,,,,,,,,,,,,,,,,,,,,,,,,,,,,,,,,,,,,,,,,,,,,,,,,,,,,,,,,,,,,,,,,,,,,,,,,,
,,3,1.8563,3,1.8563,0,25,25,91,1,166,cake,yogurt,,88839,001,2022-04-18_16h25.40.433,SPAMnetsValid,2021.1.4,MacIntel,60.0024001,,,,,,,,,,,,,,,,,,,,,,,,,,,,,,,,,,,,,,,,,,,,,,,,,,,,,,,,,,,,,,,,,,,,,,,,,,,,,,,,,,,,,,,,,
,,3,0.6737,3,0.6737,0,26,26,83,1,100,garden,tomato,,88839,001,2022-04-18_16h25.40.433,SPAMnetsValid,2021.1.4,MacIntel,60.0024001,,,,,,,,,,,,,,,,,,,,,,,,,,,,,,,,,,,,,,,,,,,,,,,,,,,,,,,,,,,,,,,,,,,,,,,,,,,,,,,,,,,,,,,,,
,,7,1.0595,7,1.0595,0,27,27,34,1,153,carrot,pretzel,,88839,001,2022-04-18_16h25.40.433,SPAMnetsValid,2021.1.4,MacIntel,60.0024001,,,,,,,,,,,,,,,,,,,,,,,,,,,,,,,,,,,,,,,,,,,,,,,,,,,,,,,,,,,,,,,,,,,,,,,,,,,,,,,,,,,,,,,,,
,,7,0.8595,7,0.8595,0,28,28,9,1,176,cactus,tomato,,88839,001,2022-04-18_16h25.40.433,SPAMnetsValid,2021.1.4,MacIntel,60.0024001,,,,,,,,,,,,,,,,,,,,,,,,,,,,,,,,,,,,,,,,,,,,,,,,,,,,,,,,,,,,,,,,,,,,,,,,,,,,,,,,,,,,,,,,,
,,6,0.7622,6,0.7622,0,29,29,60,1,122,flower,garden,,88839,001,2022-04-18_16h25.40.433,SPAMnetsValid,2021.1.4,MacIntel,60.0024001,,,,,,,,,,,,,,,,,,,,,,,,,,,,,,,,,,,,,,,,,,,,,,,,,,,,,,,,,,,,,,,,,,,,,,,,,,,,,,,,,,,,,,,,,
,,6,2.1448,6,2.1448,0,30,30,95,1,121,broom,microwave,,88839,001,2022-04-18_16h25.40.433,SPAMnetsValid,2021.1.4,MacIntel,60.0024001,,,,,,,,,,,,,,,,,,,,,,,,,,,,,,,,,,,,,,,,,,,,,,,,,,,,,,,,,,,,,,,,,,,,,,,,,,,,,,,,,,,,,,,,,
,,6,2.4639,6,2.4639,0,31,31,92,1,170,cookie,microwave,,88839,001,2022-04-18_16h25.40.433,SPAMnetsValid,2021.1.4,MacIntel,60.0024001,,,,,,,,,,,,,,,,,,,,,,,,,,,,,,,,,,,,,,,,,,,,,,,,,,,,,,,,,,,,,,,,,,,,,,,,,,,,,,,,,,,,,,,,,
,,3,1.5793,3,1.5793,0,32,32,64,1,157,refrigerator,rose,,88839,001,2022-04-18_16h25.40.433,SPAMnetsValid,2021.1.4,MacIntel,60.0024001,,,,,,,,,,,,,,,,,,,,,,,,,,,,,,,,,,,,,,,,,,,,,,,,,,,,,,,,,,,,,,,,,,,,,,,,,,,,,,,,,,,,,,,,,
,,3,1.5594,3,1.5594,0,33,33,4,1,109,broom,strawberry,,88839,001,2022-04-18_16h25.40.433,SPAMnetsValid,2021.1.4,MacIntel,60.0024001,,,,,,,,,,,,,,,,,,,,,,,,,,,,,,,,,,,,,,,,,,,,,,,,,,,,,,,,,,,,,,,,,,,,,,,,,,,,,,,,,,,,,,,,,
,,4,0.9271,4,0.9271,0,34,34,35,1,147,cake,refrigerator,,88839,001,2022-04-18_16h25.40.433,SPAMnetsValid,2021.1.4,MacIntel,60.0024001,,,,,,,,,,,,,,,,,,,,,,,,,,,,,,,,,,,,,,,,,,,,,,,,,,,,,,,,,,,,,,,,,,,,,,,,,,,,,,,,,,,,,,,,,
,,4,0.8427,4,0.8427,0,35,35,29,1,163,melon,refrigerator,,88839,001,2022-04-18_16h25.40.433,SPAMnetsValid,2021.1.4,MacIntel,60.0024001,,,,,,,,,,,,,,,,,,,,,,,,,,,,,,,,,,,,,,,,,,,,,,,,,,,,,,,,,,,,,,,,,,,,,,,,,,,,,,,,,,,,,,,,,
,,4,0.6599,4,0.6599,0,36,36,16,1,111,carrot,microwave,,88839,001,2022-04-18_16h25.40.433,SPAMnetsValid,2021.1.4,MacIntel,60.0024001,,,,,,,,,,,,,,,,,,,,,,,,,,,,,,,,,,,,,,,,,,,,,,,,,,,,,,,,,,,,,,,,,,,,,,,,,,,,,,,,,,,,,,,,,
,,3,0.7087,3,0.7087,0,37,37,44,1,116,cake,chocolate,,88839,001,2022-04-18_16h25.40.433,SPAMnetsValid,2021.1.4,MacIntel,60.0024001,,,,,,,,,,,,,,,,,,,,,,,,,,,,,,,,,,,,,,,,,,,,,,,,,,,,,,,,,,,,,,,,,,,,,,,,,,,,,,,,,,,,,,,,,
,,3,0.5764,3,0.5764,0,38,38,82,1,98,pretzel,strawberry,,88839,001,2022-04-18_16h25.40.433,SPAMnetsValid,2021.1.4,MacIntel,60.0024001,,,,,,,,,,,,,,,,,,,,,,,,,,,,,,,,,,,,,,,,,,,,,,,,,,,,,,,,,,,,,,,,,,,,,,,,,,,,,,,,,,,,,,,,,
,,3,0.5423,3,0.5423,0,39,39,20,1,149,broom,tomato,,88839,001,2022-04-18_16h25.40.433,SPAMnetsValid,2021.1.4,MacIntel,60.0024001,,,,,,,,,,,,,,,,,,,,,,,,,,,,,,,,,,,,,,,,,,,,,,,,,,,,,,,,,,,,,,,,,,,,,,,,,,,,,,,,,,,,,,,,,
,,8,1.2067,8,1.2067,0,40,40,24,1,169,onion,yogurt,,88839,001,2022-04-18_16h25.40.433,SPAMnetsValid,2021.1.4,MacIntel,60.0024001,,,,,,,,,,,,,,,,,,,,,,,,,,,,,,,,,,,,,,,,,,,,,,,,,,,,,,,,,,,,,,,,,,,,,,,,,,,,,,,,,,,,,,,,,
,,8,0.6092,8,0.6092,0,41,41,15,1,145,cactus,yogurt,,88839,001,2022-04-18_16h25.40.433,SPAMnetsValid,2021.1.4,MacIntel,60.0024001,,,,,,,,,,,,,,,,,,,,,,,,,,,,,,,,,,,,,,,,,,,,,,,,,,,,,,,,,,,,,,,,,,,,,,,,,,,,,,,,,,,,,,,,,
,,8,0.5173,8,0.5173,0,42,42,81,1,104,garden,microwave,,88839,001,2022-04-18_16h25.40.433,SPAMnetsValid,2021.1.4,MacIntel,60.0024001,,,,,,,,,,,,,,,,,,,,,,,,,,,,,,,,,,,,,,,,,,,,,,,,,,,,,,,,,,,,,,,,,,,,,,,,,,,,,,,,,,,,,,,,,
,,8,0.3267,8,0.3267,0,43,43,43,1,185,cactus,rose,,88839,001,2022-04-18_16h25.40.433,SPAMnetsValid,2021.1.4,MacIntel,60.0024001,,,,,,,,,,,,,,,,,,,,,,,,,,,,,,,,,,,,,,,,,,,,,,,,,,,,,,,,,,,,,,,,,,,,,,,,,,,,,,,,,,,,,,,,,
,,8,0.5268,8,0.5268,0,44,44,3,1,129,cactus,refrigerator,,88839,001,2022-04-18_16h25.40.433,SPAMnetsValid,2021.1.4,MacIntel,60.0024001,,,,,,,,,,,,,,,,,,,,,,,,,,,,,,,,,,,,,,,,,,,,,,,,,,,,,,,,,,,,,,,,,,,,,,,,,,,,,,,,,,,,,,,,,
,,9,2.0084,9,2.0084,0,45,45,14,1,120,microwave,oven,,88839,001,2022-04-18_16h25.40.433,SPAMnetsValid,2021.1.4,MacIntel,60.0024001,,,,,,,,,,,,,,,,,,,,,,,,,,,,,,,,,,,,,,,,,,,,,,,,,,,,,,,,,,,,,,,,,,,,,,,,,,,,,,,,,,,,,,,,,
,,8,1.0085,8,1.0085,0,46,46,65,1,160,cookie,kitchen,,88839,001,2022-04-18_16h25.40.433,SPAMnetsValid,2021.1.4,MacIntel,60.0024001,,,,,,,,,,,,,,,,,,,,,,,,,,,,,,,,,,,,,,,,,,,,,,,,,,,,,,,,,,,,,,,,,,,,,,,,,,,,,,,,,,,,,,,,,
,,9,1.4273,9,1.4273,0,47,47,61,1,138,flower,rose,,88839,001,2022-04-18_16h25.40.433,SPAMnetsValid,2021.1.4,MacIntel,60.0024001,,,,,,,,,,,,,,,,,,,,,,,,,,,,,,,,,,,,,,,,,,,,,,,,,,,,,,,,,,,,,,,,,,,,,,,,,,,,,,,,,,,,,,,,,
,,7,1.2251,7,1.2251,0,48,48,72,1,181,carrot,kitchen,,88839,001,2022-04-18_16h25.40.433,SPAMnetsValid,2021.1.4,MacIntel,60.0024001,,,,,,,,,,,,,,,,,,,,,,,,,,,,,,,,,,,,,,,,,,,,,,,,,,,,,,,,,,,,,,,,,,,,,,,,,,,,,,,,,,,,,,,,,
,,7,0.6256,7,0.6256,0,49,49,33,1,131,cactus,garden,,88839,001,2022-04-18_16h25.40.433,SPAMnetsValid,2021.1.4,MacIntel,60.0024001,,,,,,,,,,,,,,,,,,,,,,,,,,,,,,,,,,,,,,,,,,,,,,,,,,,,,,,,,,,,,,,,,,,,,,,,,,,,,,,,,,,,,,,,,
,,7,1.0752,7,1.0752,0,50,50,93,1,134,carrot,flower,,88839,001,2022-04-18_16h25.40.433,SPAMnetsValid,2021.1.4,MacIntel,60.0024001,,,,,,,,,,,,,,,,,,,,,,,,,,,,,,,,,,,,,,,,,,,,,,,,,,,,,,,,,,,,,,,,,,,,,,,,,,,,,,,,,,,,,,,,,
,,7,0.7097,7,0.7097,0,51,51,51,1,168,cactus,flower,,88839,001,2022-04-18_16h25.40.433,SPAMnetsValid,2021.1.4,MacIntel,60.0024001,,,,,,,,,,,,,,,,,,,,,,,,,,,,,,,,,,,,,,,,,,,,,,,,,,,,,,,,,,,,,,,,,,,,,,,,,,,,,,,,,,,,,,,,,
,,4,1.7766,4,1.7766,0,52,52,85,1,115,refrigerator,tomato,,88839,001,2022-04-18_16h25.40.433,SPAMnetsValid,2021.1.4,MacIntel,60.0024001,,,,,,,,,,,,,,,,,,,,,,,,,,,,,,,,,,,,,,,,,,,,,,,,,,,,,,,,,,,,,,,,,,,,,,,,,,,,,,,,,,,,,,,,,
,,2,1.492,2,1.492,0,53,53,13,1,105,cactus,oven,,88839,001,2022-04-18_16h25.40.433,SPAMnetsValid,2021.1.4,MacIntel,60.0024001,,,,,,,,,,,,,,,,,,,,,,,,,,,,,,,,,,,,,,,,,,,,,,,,,,,,,,,,,,,,,,,,,,,,,,,,,,,,,,,,,,,,,,,,,
,,2,0.8769,2,0.8769,0,54,54,46,1,123,cookie,tree,,88839,001,2022-04-18_16h25.40.433,SPAMnetsValid,2021.1.4,MacIntel,60.0024001,,,,,,,,,,,,,,,,,,,,,,,,,,,,,,,,,,,,,,,,,,,,,,,,,,,,,,,,,,,,,,,,,,,,,,,,,,,,,,,,,,,,,,,,,
,,2,0.9107,2,0.9107,0,55,55,28,1,154,strawberry,yogurt,,88839,001,2022-04-18_16h25.40.433,SPAMnetsValid,2021.1.4,MacIntel,60.0024001,,,,,,,,,,,,,,,,,,,,,,,,,,,,,,,,,,,,,,,,,,,,,,,,,,,,,,,,,,,,,,,,,,,,,,,,,,,,,,,,,,,,,,,,,
,,9,1.3258,9,1.3258,0,56,56,22,1,142,garden,tree,,88839,001,2022-04-18_16h25.40.433,SPAMnetsValid,2021.1.4,MacIntel,60.0024001,,,,,,,,,,,,,,,,,,,,,,,,,,,,,,,,,,,,,,,,,,,,,,,,,,,,,,,,,,,,,,,,,,,,,,,,,,,,,,,,,,,,,,,,,
,,4,1.677,4,1.677,0,57,57,50,1,126,kitchen,tree,,88839,001,2022-04-18_16h25.40.433,SPAMnetsValid,2021.1.4,MacIntel,60.0024001,,,,,,,,,,,,,,,,,,,,,,,,,,,,,,,,,,,,,,,,,,,,,,,,,,,,,,,,,,,,,,,,,,,,,,,,,,,,,,,,,,,,,,,,,
,,7,1.025,7,1.025,0,58,58,55,1,143,pretzel,rose,,88839,001,2022-04-18_16h25.40.433,SPAMnetsValid,2021.1.4,MacIntel,60.0024001,,,,,,,,,,,,,,,,,,,,,,,,,,,,,,,,,,,,,,,,,,,,,,,,,,,,,,,,,,,,,,,,,,,,,,,,,,,,,,,,,,,,,,,,,
,,7,0.6272,7,0.6272,0,59,59,48,1,186,kitchen,yogurt,,88839,001,2022-04-18_16h25.40.433,SPAMnetsValid,2021.1.4,MacIntel,60.0024001,,,,,,,,,,,,,,,,,,,,,,,,,,,,,,,,,,,,,,,,,,,,,,,,,,,,,,,,,,,,,,,,,,,,,,,,,,,,,,,,,,,,,,,,,
,,7,0.7768,7,0.7768,0,60,60,47,1,167,carrot,garden,,88839,001,2022-04-18_16h25.40.433,SPAMnetsValid,2021.1.4,MacIntel,60.0024001,,,,,,,,,,,,,,,,,,,,,,,,,,,,,,,,,,,,,,,,,,,,,,,,,,,,,,,,,,,,,,,,,,,,,,,,,,,,,,,,,,,,,,,,,
,,7,0.6276,7,0.6276,0,61,61,49,1,152,cactus,strawberry,,88839,001,2022-04-18_16h25.40.433,SPAMnetsValid,2021.1.4,MacIntel,60.0024001,,,,,,,,,,,,,,,,,,,,,,,,,,,,,,,,,,,,,,,,,,,,,,,,,,,,,,,,,,,,,,,,,,,,,,,,,,,,,,,,,,,,,,,,,
,,7,0.592,7,0.592,0,62,62,67,1,96,oven,strawberry,,88839,001,2022-04-18_16h25.40.433,SPAMnetsValid,2021.1.4,MacIntel,60.0024001,,,,,,,,,,,,,,,,,,,,,,,,,,,,,,,,,,,,,,,,,,,,,,,,,,,,,,,,,,,,,,,,,,,,,,,,,,,,,,,,,,,,,,,,,
,,7,0.5429,7,0.5429,0,63,63,40,1,165,onion,rose,,88839,001,2022-04-18_16h25.40.433,SPAMnetsValid,2021.1.4,MacIntel,60.0024001,,,,,,,,,,,,,,,,,,,,,,,,,,,,,,,,,,,,,,,,,,,,,,,,,,,,,,,,,,,,,,,,,,,,,,,,,,,,,,,,,,,,,,,,,
,,7,0.4754,7,0.4754,0,64,64,69,1,124,oven,refrigerator,,88839,001,2022-04-18_16h25.40.433,SPAMnetsValid,2021.1.4,MacIntel,60.0024001,,,,,,,,,,,,,,,,,,,,,,,,,,,,,,,,,,,,,,,,,,,,,,,,,,,,,,,,,,,,,,,,,,,,,,,,,,,,,,,,,,,,,,,,,
,,7,0.5751,7,0.5751,0,65,65,66,1,150,microwave,refrigerator,,88839,001,2022-04-18_16h25.40.433,SPAMnetsValid,2021.1.4,MacIntel,60.0024001,,,,,,,,,,,,,,,,,,,,,,,,,,,,,,,,,,,,,,,,,,,,,,,,,,,,,,,,,,,,,,,,,,,,,,,,,,,,,,,,,,,,,,,,,
,,7,0.5109,7,0.5109,0,66,66,36,1,161,kitchen,pretzel,,88839,001,2022-04-18_16h25.40.433,SPAMnetsValid,2021.1.4,MacIntel,60.0024001,,,,,,,,,,,,,,,,,,,,,,,,,,,,,,,,,,,,,,,,,,,,,,,,,,,,,,,,,,,,,,,,,,,,,,,,,,,,,,,,,,,,,,,,,
,,7,0.3269,7,0.3269,0,67,67,79,1,103,pretzel,tomato,,88839,001,2022-04-18_16h25.40.433,SPAMnetsValid,2021.1.4,MacIntel,60.0024001,,,,,,,,,,,,,,,,,,,,,,,,,,,,,,,,,,,,,,,,,,,,,,,,,,,,,,,,,,,,,,,,,,,,,,,,,,,,,,,,,,,,,,,,,
,,7,0.7429,7,0.7429,0,68,68,7,1,188,flower,tree,,88839,001,2022-04-18_16h25.40.433,SPAMnetsValid,2021.1.4,MacIntel,60.0024001,,,,,,,,,,,,,,,,,,,,,,,,,,,,,,,,,,,,,,,,,,,,,,,,,,,,,,,,,,,,,,,,,,,,,,,,,,,,,,,,,,,,,,,,,
,,7,0.9442,7,0.9442,0,69,69,27,1,158,cookie,oven,,88839,001,2022-04-18_16h25.40.433,SPAMnetsValid,2021.1.4,MacIntel,60.0024001,,,,,,,,,,,,,,,,,,,,,,,,,,,,,,,,,,,,,,,,,,,,,,,,,,,,,,,,,,,,,,,,,,,,,,,,,,,,,,,,,,,,,,,,,
,,7,0.7096,7,0.7096,0,70,70,78,1,132,broom,tree,,88839,001,2022-04-18_16h25.40.433,SPAMnetsValid,2021.1.4,MacIntel,60.0024001,,,,,,,,,,,,,,,,,,,,,,,,,,,,,,,,,,,,,,,,,,,,,,,,,,,,,,,,,,,,,,,,,,,,,,,,,,,,,,,,,,,,,,,,,
,,7,0.5435,7,0.5435,0,71,71,89,1,140,cookie,refrigerator,,88839,001,2022-04-18_16h25.40.433,SPAMnetsValid,2021.1.4,MacIntel,60.0024001,,,,,,,,,,,,,,,,,,,,,,,,,,,,,,,,,,,,,,,,,,,,,,,,,,,,,,,,,,,,,,,,,,,,,,,,,,,,,,,,,,,,,,,,,
,,7,0.3609,7,0.3609,0,72,72,94,1,133,cake,flower,,88839,001,2022-04-18_16h25.40.433,SPAMnetsValid,2021.1.4,MacIntel,60.0024001,,,,,,,,,,,,,,,,,,,,,,,,,,,,,,,,,,,,,,,,,,,,,,,,,,,,,,,,,,,,,,,,,,,,,,,,,,,,,,,,,,,,,,,,,
,,4,0.7764,4,0.7764,0,73,73,19,1,183,cake,rose,,88839,001,2022-04-18_16h25.40.433,SPAMnetsValid,2021.1.4,MacIntel,60.0024001,,,,,,,,,,,,,,,,,,,,,,,,,,,,,,,,,,,,,,,,,,,,,,,,,,,,,,,,,,,,,,,,,,,,,,,,,,,,,,,,,,,,,,,,,
,,3,0.5952,3,0.5952,0,74,74,6,1,151,microwave,onion,,88839,001,2022-04-18_16h25.40.433,SPAMnetsValid,2021.1.4,MacIntel,60.0024001,,,,,,,,,,,,,,,,,,,,,,,,,,,,,,,,,,,,,,,,,,,,,,,,,,,,,,,,,,,,,,,,,,,,,,,,,,,,,,,,,,,,,,,,,
,,3,0.5443,3,0.5443,0,75,75,30,1,125,carrot,tree,,88839,001,2022-04-18_16h25.40.433,SPAMnetsValid,2021.1.4,MacIntel,60.0024001,,,,,,,,,,,,,,,,,,,,,,,,,,,,,,,,,,,,,,,,,,,,,,,,,,,,,,,,,,,,,,,,,,,,,,,,,,,,,,,,,,,,,,,,,
,,3,0.3434,3,0.3434,0,76,76,54,1,101,cactus,kitchen,,88839,001,2022-04-18_16h25.40.433,SPAMnetsValid,2021.1.4,MacIntel,60.0024001,,,,,,,,,,,,,,,,,,,,,,,,,,,,,,,,,,,,,,,,,,,,,,,,,,,,,,,,,,,,,,,,,,,,,,,,,,,,,,,,,,,,,,,,,
,,3,0.411,3,0.411,0,77,77,76,1,102,chocolate,refrigerator,,88839,001,2022-04-18_16h25.40.433,SPAMnetsValid,2021.1.4,MacIntel,60.0024001,,,,,,,,,,,,,,,,,,,,,,,,,,,,,,,,,,,,,,,,,,,,,,,,,,,,,,,,,,,,,,,,,,,,,,,,,,,,,,,,,,,,,,,,,
,,3,0.3756,3,0.3756,0,78,78,31,1,156,melon,rose,,88839,001,2022-04-18_16h25.40.433,SPAMnetsValid,2021.1.4,MacIntel,60.0024001,,,,,,,,,,,,,,,,,,,,,,,,,,,,,,,,,,,,,,,,,,,,,,,,,,,,,,,,,,,,,,,,,,,,,,,,,,,,,,,,,,,,,,,,,
,,3,0.3947,3,0.3947,0,79,79,18,1,119,strawberry,tree,,88839,001,2022-04-18_16h25.40.433,SPAMnetsValid,2021.1.4,MacIntel,60.0024001,,,,,,,,,,,,,,,,,,,,,,,,,,,,,,,,,,,,,,,,,,,,,,,,,,,,,,,,,,,,,,,,,,,,,,,,,,,,,,,,,,,,,,,,,
,,3,0.427,3,0.427,0,80,80,53,1,177,chocolate,strawberry,,88839,001,2022-04-18_16h25.40.433,SPAMnetsValid,2021.1.4,MacIntel,60.0024001,,,,,,,,,,,,,,,,,,,,,,,,,,,,,,,,,,,,,,,,,,,,,,,,,,,,,,,,,,,,,,,,,,,,,,,,,,,,,,,,,,,,,,,,,
,,3,0.6099,3,0.6099,0,81,81,62,1,189,onion,tree,,88839,001,2022-04-18_16h25.40.433,SPAMnetsValid,2021.1.4,MacIntel,60.0024001,,,,,,,,,,,,,,,,,,,,,,,,,,,,,,,,,,,,,,,,,,,,,,,,,,,,,,,,,,,,,,,,,,,,,,,,,,,,,,,,,,,,,,,,,
,,3,0.5446,3,0.5446,0,82,82,84,1,130,microwave,yogurt,,88839,001,2022-04-18_16h25.40.433,SPAMnetsValid,2021.1.4,MacIntel,60.0024001,,,,,,,,,,,,,,,,,,,,,,,,,,,,,,,,,,,,,,,,,,,,,,,,,,,,,,,,,,,,,,,,,,,,,,,,,,,,,,,,,,,,,,,,,
,,3,1.2273,3,1.2273,0,83,83,2,1,174,cake,pretzel,,88839,001,2022-04-18_16h25.40.433,SPAMnetsValid,2021.1.4,MacIntel,60.0024001,,,,,,,,,,,,,,,,,,,,,,,,,,,,,,,,,,,,,,,,,,,,,,,,,,,,,,,,,,,,,,,,,,,,,,,,,,,,,,,,,,,,,,,,,
,,3,0.6439,3,0.6439,0,84,84,26,1,107,rose,tomato,,88839,001,2022-04-18_16h25.40.433,SPAMnetsValid,2021.1.4,MacIntel,60.0024001,,,,,,,,,,,,,,,,,,,,,,,,,,,,,,,,,,,,,,,,,,,,,,,,,,,,,,,,,,,,,,,,,,,,,,,,,,,,,,,,,,,,,,,,,
,,3,0.5781,3,0.5781,0,85,85,1,1,173,kitchen,tomato,,88839,001,2022-04-18_16h25.40.433,SPAMnetsValid,2021.1.4,MacIntel,60.0024001,,,,,,,,,,,,,,,,,,,,,,,,,,,,,,,,,,,,,,,,,,,,,,,,,,,,,,,,,,,,,,,,,,,,,,,,,,,,,,,,,,,,,,,,,
,,3,0.4603,3,0.4603,0,86,86,88,1,171,cake,tomato,,88839,001,2022-04-18_16h25.40.433,SPAMnetsValid,2021.1.4,MacIntel,60.0024001,,,,,,,,,,,,,,,,,,,,,,,,,,,,,,,,,,,,,,,,,,,,,,,,,,,,,,,,,,,,,,,,,,,,,,,,,,,,,,,,,,,,,,,,,
,,3,0.3935,3,0.3935,0,87,87,71,1,187,cactus,microwave,,88839,001,2022-04-18_16h25.40.433,SPAMnetsValid,2021.1.4,MacIntel,60.0024001,,,,,,,,,,,,,,,,,,,,,,,,,,,,,,,,,,,,,,,,,,,,,,,,,,,,,,,,,,,,,,,,,,,,,,,,,,,,,,,,,,,,,,,,,
,,3,0.4445,3,0.4445,0,88,88,21,1,159,cookie,flower,,88839,001,2022-04-18_16h25.40.433,SPAMnetsValid,2021.1.4,MacIntel,60.0024001,,,,,,,,,,,,,,,,,,,,,,,,,,,,,,,,,,,,,,,,,,,,,,,,,,,,,,,,,,,,,,,,,,,,,,,,,,,,,,,,,,,,,,,,,
,,3,0.3942,3,0.3942,0,89,89,32,1,182,flower,refrigerator,,88839,001,2022-04-18_16h25.40.433,SPAMnetsValid,2021.1.4,MacIntel,60.0024001,,,,,,,,,,,,,,,,,,,,,,,,,,,,,,,,,,,,,,,,,,,,,,,,,,,,,,,,,,,,,,,,,,,,,,,,,,,,,,,,,,,,,,,,,
,,3,0.4436,3,0.4436,0,90,90,80,1,146,pretzel,tree,,88839,001,2022-04-18_16h25.40.433,SPAMnetsValid,2021.1.4,MacIntel,60.0024001,,,,,,,,,,,,,,,,,,,,,,,,,,,,,,,,,,,,,,,,,,,,,,,,,,,,,,,,,,,,,,,,,,,,,,,,,,,,,,,,,,,,,,,,,
,,3,1.0282,3,1.0282,0,91,91,74,1,128,melon,microwave,,88839,001,2022-04-18_16h25.40.433,SPAMnetsValid,2021.1.4,MacIntel,60.0024001,,,,,,,,,,,,,,,,,,,,,,,,,,,,,,,,,,,,,,,,,,,,,,,,,,,,,,,,,,,,,,,,,,,,,,,,,,,,,,,,,,,,,,,,,
,,3,0.7446,3,0.7446,0,92,92,38,1,155,carrot,cookie,,88839,001,2022-04-18_16h25.40.433,SPAMnetsValid,2021.1.4,MacIntel,60.0024001,,,,,,,,,,,,,,,,,,,,,,,,,,,,,,,,,,,,,,,,,,,,,,,,,,,,,,,,,,,,,,,,,,,,,,,,,,,,,,,,,,,,,,,,,
,,3,0.528,3,0.528,0,93,93,12,1,162,microwave,tomato,,88839,001,2022-04-18_16h25.40.433,SPAMnetsValid,2021.1.4,MacIntel,60.0024001,,,,,,,,,,,,,,,,,,,,,,,,,,,,,,,,,,,,,,,,,,,,,,,,,,,,,,,,,,,,,,,,,,,,,,,,,,,,,,,,,,,,,,,,,
,,3,0.4123,3,0.4123,0,94,94,52,1,110,chocolate,cookie,,88839,001,2022-04-18_16h25.40.433,SPAMnetsValid,2021.1.4,MacIntel,60.0024001,,,,,,,,,,,,,,,,,,,,,,,,,,,,,,,,,,,,,,,,,,,,,,,,,,,,,,,,,,,,,,,,,,,,,,,,,,,,,,,,,,,,,,,,,
,,3,0.4772,3,0.4772,0,95,95,0,1,106,cake,strawberry,,88839,001,2022-04-18_16h25.40.433,SPAMnetsValid,2021.1.4,MacIntel,60.0024001,,,,,,,,,,,,,,,,,,,,,,,,,,,,,,,,,,,,,,,,,,,,,,,,,,,,,,,,,,,,,,,,,,,,,,,,,,,,,,,,,,,,,,,,,
,,3,0.3267,3,0.3267,0,96,96,17,1,99,garden,melon,,88839,001,2022-04-18_16h25.40.433,SPAMnetsValid,2021.1.4,MacIntel,60.0024001,,,,,,,,,,,,,,,,,,,,,,,,,,,,,,,,,,,,,,,,,,,,,,,,,,,,,,,,,,,,,,,,,,,,,,,,,,,,,,,,,,,,,,,,,
,,,,,,,,,,,,,,,88839,001,2022-04-18_16h25.40.433,SPAMnetsValid,2021.1.4,MacIntel,60.0024001,0,0,0,0,1,,,,,,,,,,,,,,,,,,,,,,,,,,,,,,,,,,,,,,,,,,,,,,,,,,,,,,,,,,,,,,,,,,,,,,,,,,,,,,,,,,,,
,,,,,,,,,,,,,,,88839,001,2022-04-18_16h25.40.433,SPAMnetsValid,2021.1.4,MacIntel,60.0024001,,,,,,0,0,0,1,1,0,1,,,,,,,,,,,,,,,,,,,,,,,,,,,,,,,,,,,,,,,,,,,,,,,,,,,,,,,,,,,,,,,,,,,,,,,,,,,,,
,,,,2,1.1317,,,,,,25,carrot,onion,,88839,001,2022-04-18_16h25.40.433,SPAMnetsValid,2021.1.4,MacIntel,60.0024001,,,,,,,,,,,,,2,1.1317,0,0,0,44,1,,,,,,,,,,,,,,,,,,,,,,,,,,,,,,,,,,,,,,,,,,,,,,,,,,,,,,,,,,,,,,,,,,,,,,
,,,,2,0.4949,,,,,,75,cookie,onion,,88839,001,2022-04-18_16h25.40.433,SPAMnetsValid,2021.1.4,MacIntel,60.0024001,,,,,,,,,,,,,2,0.4949,0,1,1,9,1,,,,,,,,,,,,,,,,,,,,,,,,,,,,,,,,,,,,,,,,,,,,,,,,,,,,,,,,,,,,,,,,,,,,,,
,,,,2,0.4467,,,,,,81,pretzel,yogurt,,88839,001,2022-04-18_16h25.40.433,SPAMnetsValid,2021.1.4,MacIntel,60.0024001,,,,,,,,,,,,,2,0.4467,0,2,2,50,1,,,,,,,,,,,,,,,,,,,,,,,,,,,,,,,,,,,,,,,,,,,,,,,,,,,,,,,,,,,,,,,,,,,,,,
,,,,2,0.4078,,,,,,77,refrigerator,yogurt,,88839,001,2022-04-18_16h25.40.433,SPAMnetsValid,2021.1.4,MacIntel,60.0024001,,,,,,,,,,,,,2,0.4078,0,3,3,42,1,,,,,,,,,,,,,,,,,,,,,,,,,,,,,,,,,,,,,,,,,,,,,,,,,,,,,,,,,,,,,,,,,,,,,,
,,,,2,0.395,,,,,,30,cookie,pretzel,,88839,001,2022-04-18_16h25.40.433,SPAMnetsValid,2021.1.4,MacIntel,60.0024001,,,,,,,,,,,,,2,0.395,0,4,4,78,1,,,,,,,,,,,,,,,,,,,,,,,,,,,,,,,,,,,,,,,,,,,,,,,,,,,,,,,,,,,,,,,,,,,,,,
,,,,2,0.0272,,,,,,40,broom,cake,,88839,001,2022-04-18_16h25.40.433,SPAMnetsValid,2021.1.4,MacIntel,60.0024001,,,,,,,,,,,,,2,0.0272,0,5,5,32,1,,,,,,,,,,,,,,,,,,,,,,,,,,,,,,,,,,,,,,,,,,,,,,,,,,,,,,,,,,,,,,,,,,,,,,
,,,,2,0.0283,,,,,,67,flower,yogurt,,88839,001,2022-04-18_16h25.40.433,SPAMnetsValid,2021.1.4,MacIntel,60.0024001,,,,,,,,,,,,,2,0.0283,0,6,6,12,1,,,,,,,,,,,,,,,,,,,,,,,,,,,,,,,,,,,,,,,,,,,,,,,,,,,,,,,,,,,,,,,,,,,,,,
,,,,2,0.0732,,,,,,11,refrigerator,tree,,88839,001,2022-04-18_16h25.40.433,SPAMnetsValid,2021.1.4,MacIntel,60.0024001,,,,,,,,,,,,,2,0.0732,0,7,7,43,1,,,,,,,,,,,,,,,,,,,,,,,,,,,,,,,,,,,,,,,,,,,,,,,,,,,,,,,,,,,,,,,,,,,,,,
,,,,2,0.0796,,,,,,17,carrot,melon,,88839,001,2022-04-18_16h25.40.433,SPAMnetsValid,2021.1.4,MacIntel,60.0024001,,,,,,,,,,,,,2,0.0796,0,8,8,24,1,,,,,,,,,,,,,,,,,,,,,,,,,,,,,,,,,,,,,,,,,,,,,,,,,,,,,,,,,,,,,,,,,,,,,,
,,,,2,0.0799,,,,,,29,chocolate,melon,,88839,001,2022-04-18_16h25.40.433,SPAMnetsValid,2021.1.4,MacIntel,60.0024001,,,,,,,,,,,,,2,0.0799,0,9,9,34,1,,,,,,,,,,,,,,,,,,,,,,,,,,,,,,,,,,,,,,,,,,,,,,,,,,,,,,,,,,,,,,,,,,,,,,
,,,,2,0.4559,,,,,,7,melon,tree,,88839,001,2022-04-18_16h25.40.433,SPAMnetsValid,2021.1.4,MacIntel,60.0024001,,,,,,,,,,,,,2,0.4559,0,10,10,77,1,,,,,,,,,,,,,,,,,,,,,,,,,,,,,,,,,,,,,,,,,,,,,,,,,,,,,,,,,,,,,,,,,,,,,,
,,,,2,1.0784,,,,,,82,cake,kitchen,,88839,001,2022-04-18_16h25.40.433,SPAMnetsValid,2021.1.4,MacIntel,60.0024001,,,,,,,,,,,,,2,1.0784,0,11,11,96,1,,,,,,,,,,,,,,,,,,,,,,,,,,,,,,,,,,,,,,,,,,,,,,,,,,,,,,,,,,,,,,,,,,,,,,
,,,,6,0.962,,,,,,62,kitchen,rose,,88839,001,2022-04-18_16h25.40.433,SPAMnetsValid,2021.1.4,MacIntel,60.0024001,,,,,,,,,,,,,6,0.962,0,12,12,57,1,,,,,,,,,,,,,,,,,,,,,,,,,,,,,,,,,,,,,,,,,,,,,,,,,,,,,,,,,,,,,,,,,,,,,,
,,,,6,0.496,,,,,,6,garden,onion,,88839,001,2022-04-18_16h25.40.433,SPAMnetsValid,2021.1.4,MacIntel,60.0024001,,,,,,,,,,,,,6,0.496,0,13,13,83,1,,,,,,,,,,,,,,,,,,,,,,,,,,,,,,,,,,,,,,,,,,,,,,,,,,,,,,,,,,,,,,,,,,,,,,
,,,,1,0.9293,,,,,,192,microwave,microwave,CHECK,88839,001,2022-04-18_16h25.40.433,SPAMnetsValid,2021.1.4,MacIntel,60.0024001,,,,,,,,,,,,,1,0.9293,0,14,14,53,1,,,,,,,,,,,,,,,,,,,,,,,,,,,,,,,,,,,,,,,,,,,,,,,,,,,,,,,,,,,,,,,,,,,,,,
,,,,3,0.5608,,,,,,13,broom,yogurt,,88839,001,2022-04-18_16h25.40.433,SPAMnetsValid,2021.1.4,MacIntel,60.0024001,,,,,,,,,,,,,3,0.5608,0,15,15,5,1,,,,,,,,,,,,,,,,,,,,,,,,,,,,,,,,,,,,,,,,,,,,,,,,,,,,,,,,,,,,,,,,,,,,,,
,,,,3,0.6398,,,,,,49,flower,strawberry,,88839,001,2022-04-18_16h25.40.433,SPAMnetsValid,2021.1.4,MacIntel,60.0024001,,,,,,,,,,,,,3,0.6398,0,16,16,3,1,,,,,,,,,,,,,,,,,,,,,,,,,,,,,,,,,,,,,,,,,,,,,,,,,,,,,,,,,,,,,,,,,,,,,,
,,,,7,0.7052,,,,,,60,cactus,onion,,88839,001,2022-04-18_16h25.40.433,SPAMnetsValid,2021.1.4,MacIntel,60.0024001,,,,,,,,,,,,,7,0.7052,0,17,17,81,1,,,,,,,,,,,,,,,,,,,,,,,,,,,,,,,,,,,,,,,,,,,,,,,,,,,,,,,,,,,,,,,,,,,,,,
,,,,7,0.6469,,,,,,69,carrot,refrigerator,,88839,001,2022-04-18_16h25.40.433,SPAMnetsValid,2021.1.4,MacIntel,60.0024001,,,,,,,,,,,,,7,0.6469,0,18,18,75,1,,,,,,,,,,,,,,,,,,,,,,,,,,,,,,,,,,,,,,,,,,,,,,,,,,,,,,,,,,,,,,,,,,,,,,
,,,,7,0.8959,,,,,,14,broom,cookie,,88839,001,2022-04-18_16h25.40.433,SPAMnetsValid,2021.1.4,MacIntel,60.0024001,,,,,,,,,,,,,7,0.8959,0,19,19,16,1,,,,,,,,,,,,,,,,,,,,,,,,,,,,,,,,,,,,,,,,,,,,,,,,,,,,,,,,,,,,,,,,,,,,,,
,,,,4,0.7115,,,,,,80,chocolate,tree,,88839,001,2022-04-18_16h25.40.433,SPAMnetsValid,2021.1.4,MacIntel,60.0024001,,,,,,,,,,,,,4,0.7115,0,20,20,89,1,,,,,,,,,,,,,,,,,,,,,,,,,,,,,,,,,,,,,,,,,,,,,,,,,,,,,,,,,,,,,,,,,,,,,,
,,,,2,0.6295,,,,,,45,onion,pretzel,,88839,001,2022-04-18_16h25.40.433,SPAMnetsValid,2021.1.4,MacIntel,60.0024001,,,,,,,,,,,,,2,0.6295,0,21,21,69,1,,,,,,,,,,,,,,,,,,,,,,,,,,,,,,,,,,,,,,,,,,,,,,,,,,,,,,,,,,,,,,,,,,,,,,
,,,,5,1.2297,,,,,,24,cookie,tomato,,88839,001,2022-04-18_16h25.40.433,SPAMnetsValid,2021.1.4,MacIntel,60.0024001,,,,,,,,,,,,,5,1.2297,0,22,22,68,1,,,,,,,,,,,,,,,,,,,,,,,,,,,,,,,,,,,,,,,,,,,,,,,,,,,,,,,,,,,,,,,,,,,,,,
,,,,6,0.6716,,,,,,42,garden,kitchen,,88839,001,2022-04-18_16h25.40.433,SPAMnetsValid,2021.1.4,MacIntel,60.0024001,,,,,,,,,,,,,6,0.6716,0,23,23,29,1,,,,,,,,,,,,,,,,,,,,,,,,,,,,,,,,,,,,,,,,,,,,,,,,,,,,,,,,,,,,,,,,,,,,,,
,,,,7,0.596,,,,,,90,cactus,cake,,88839,001,2022-04-18_16h25.40.433,SPAMnetsValid,2021.1.4,MacIntel,60.0024001,,,,,,,,,,,,,7,0.596,0,24,24,85,1,,,,,,,,,,,,,,,,,,,,,,,,,,,,,,,,,,,,,,,,,,,,,,,,,,,,,,,,,,,,,,,,,,,,,,
,,,,7,0.6778,,,,,,71,broom,rose,,88839,001,2022-04-18_16h25.40.433,SPAMnetsValid,2021.1.4,MacIntel,60.0024001,,,,,,,,,,,,,7,0.6778,0,25,25,61,1,,,,,,,,,,,,,,,,,,,,,,,,,,,,,,,,,,,,,,,,,,,,,,,,,,,,,,,,,,,,,,,,,,,,,,
,,,,2,0.8615,,,,,,39,melon,pretzel,,88839,001,2022-04-18_16h25.40.433,SPAMnetsValid,2021.1.4,MacIntel,60.0024001,,,,,,,,,,,,,2,0.8615,0,26,26,20,1,,,,,,,,,,,,,,,,,,,,,,,,,,,,,,,,,,,,,,,,,,,,,,,,,,,,,,,,,,,,,,,,,,,,,,
,,,,2,0.5121,,,,,,32,cake,microwave,,88839,001,2022-04-18_16h25.40.433,SPAMnetsValid,2021.1.4,MacIntel,60.0024001,,,,,,,,,,,,,2,0.5121,0,27,27,33,1,,,,,,,,,,,,,,,,,,,,,,,,,,,,,,,,,,,,,,,,,,,,,,,,,,,,,,,,,,,,,,,,,,,,,,
,,,,2,0.4734,,,,,,22,kitchen,strawberry,,88839,001,2022-04-18_16h25.40.433,SPAMnetsValid,2021.1.4,MacIntel,60.0024001,,,,,,,,,,,,,2,0.4734,0,28,28,2,1,,,,,,,,,,,,,,,,,,,,,,,,,,,,,,,,,,,,,,,,,,,,,,,,,,,,,,,,,,,,,,,,,,,,,,
,,,,7,0.9106,,,,,,95,broom,refrigerator,,88839,001,2022-04-18_16h25.40.433,SPAMnetsValid,2021.1.4,MacIntel,60.0024001,,,,,,,,,,,,,7,0.9106,0,29,29,90,1,,,,,,,,,,,,,,,,,,,,,,,,,,,,,,,,,,,,,,,,,,,,,,,,,,,,,,,,,,,,,,,,,,,,,,
,,,,4,0.8122,,,,,,89,chocolate,rose,,88839,001,2022-04-18_16h25.40.433,SPAMnetsValid,2021.1.4,MacIntel,60.0024001,,,,,,,,,,,,,4,0.8122,0,30,30,60,1,,,,,,,,,,,,,,,,,,,,,,,,,,,,,,,,,,,,,,,,,,,,,,,,,,,,,,,,,,,,,,,,,,,,,,
,,,,4,0.8466,,,,,,23,flower,microwave,,88839,001,2022-04-18_16h25.40.433,SPAMnetsValid,2021.1.4,MacIntel,60.0024001,,,,,,,,,,,,,4,0.8466,0,31,31,25,1,,,,,,,,,,,,,,,,,,,,,,,,,,,,,,,,,,,,,,,,,,,,,,,,,,,,,,,,,,,,,,,,,,,,,,
,,,,4,0.4462,,,,,,19,microwave,pretzel,,88839,001,2022-04-18_16h25.40.433,SPAMnetsValid,2021.1.4,MacIntel,60.0024001,,,,,,,,,,,,,4,0.4462,0,32,32,41,1,,,,,,,,,,,,,,,,,,,,,,,,,,,,,,,,,,,,,,,,,,,,,,,,,,,,,,,,,,,,,,,,,,,,,,
,,,,4,0.4472,,,,,,18,onion,refrigerator,,88839,001,2022-04-18_16h25.40.433,SPAMnetsValid,2021.1.4,MacIntel,60.0024001,,,,,,,,,,,,,4,0.4472,0,33,33,62,1,,,,,,,,,,,,,,,,,,,,,,,,,,,,,,,,,,,,,,,,,,,,,,,,,,,,,,,,,,,,,,,,,,,,,,
,,,,4,0.4139,,,,,,43,chocolate,tomato,,88839,001,2022-04-18_16h25.40.433,SPAMnetsValid,2021.1.4,MacIntel,60.0024001,,,,,,,,,,,,,4,0.4139,0,34,34,8,1,,,,,,,,,,,,,,,,,,,,,,,,,,,,,,,,,,,,,,,,,,,,,,,,,,,,,,,,,,,,,,,,,,,,,,
,,,,4,0.7306,,,,,,41,broom,cactus,,88839,001,2022-04-18_16h25.40.433,SPAMnetsValid,2021.1.4,MacIntel,60.0024001,,,,,,,,,,,,,4,0.7306,0,35,35,46,1,,,,,,,,,,,,,,,,,,,,,,,,,,,,,,,,,,,,,,,,,,,,,,,,,,,,,,,,,,,,,,,,,,,,,,
,,,,4,0.6732,,,,,,44,cookie,melon,,88839,001,2022-04-18_16h25.40.433,SPAMnetsValid,2021.1.4,MacIntel,60.0024001,,,,,,,,,,,,,4,0.6732,0,36,36,92,1,,,,,,,,,,,,,,,,,,,,,,,,,,,,,,,,,,,,,,,,,,,,,,,,,,,,,,,,,,,,,,,,,,,,,,
,,,,7,0.9061,,,,,,66,melon,yogurt,,88839,001,2022-04-18_16h25.40.433,SPAMnetsValid,2021.1.4,MacIntel,60.0024001,,,,,,,,,,,,,7,0.9061,0,37,37,48,1,,,,,,,,,,,,,,,,,,,,,,,,,,,,,,,,,,,,,,,,,,,,,,,,,,,,,,,,,,,,,,,,,,,,,,
,,,,7,0.439,,,,,,52,carrot,tomato,,88839,001,2022-04-18_16h25.40.433,SPAMnetsValid,2021.1.4,MacIntel,60.0024001,,,,,,,,,,,,,7,0.439,0,38,38,95,1,,,,,,,,,,,,,,,,,,,,,,,,,,,,,,,,,,,,,,,,,,,,,,,,,,,,,,,,,,,,,,,,,,,,,,
,,,,7,0.4625,,,,,,20,rose,tree,,88839,001,2022-04-18_16h25.40.433,SPAMnetsValid,2021.1.4,MacIntel,60.0024001,,,,,,,,,,,,,7,0.4625,0,39,39,66,1,,,,,,,,,,,,,,,,,,,,,,,,,,,,,,,,,,,,,,,,,,,,,,,,,,,,,,,,,,,,,,,,,,,,,,
,,,,7,0.3721,,,,,,87,carrot,yogurt,,88839,001,2022-04-18_16h25.40.433,SPAMnetsValid,2021.1.4,MacIntel,60.0024001,,,,,,,,,,,,,7,0.3721,0,40,40,6,1,,,,,,,,,,,,,,,,,,,,,,,,,,,,,,,,,,,,,,,,,,,,,,,,,,,,,,,,,,,,,,,,,,,,,,
,,,,7,0.3963,,,,,,88,cactus,melon,,88839,001,2022-04-18_16h25.40.433,SPAMnetsValid,2021.1.4,MacIntel,60.0024001,,,,,,,,,,,,,7,0.3963,0,41,41,38,1,,,,,,,,,,,,,,,,,,,,,,,,,,,,,,,,,,,,,,,,,,,,,,,,,,,,,,,,,,,,,,,,,,,,,,
,,,,1,0.8463,,,,,,64,chocolate,garden,,88839,001,2022-04-18_16h25.40.433,SPAMnetsValid,2021.1.4,MacIntel,60.0024001,,,,,,,,,,,,,1,0.8463,0,42,42,14,1,,,,,,,,,,,,,,,,,,,,,,,,,,,,,,,,,,,,,,,,,,,,,,,,,,,,,,,,,,,,,,,,,,,,,,
,,,,1,0.5067,,,,,,34,melon,oven,,88839,001,2022-04-18_16h25.40.433,SPAMnetsValid,2021.1.4,MacIntel,60.0024001,,,,,,,,,,,,,1,0.5067,0,43,43,7,1,,,,,,,,,,,,,,,,,,,,,,,,,,,,,,,,,,,,,,,,,,,,,,,,,,,,,,,,,,,,,,,,,,,,,,
,,,,1,0.4794,,,,,,10,flower,onion,,88839,001,2022-04-18_16h25.40.433,SPAMnetsValid,2021.1.4,MacIntel,60.0024001,,,,,,,,,,,,,1,0.4794,0,44,44,45,1,,,,,,,,,,,,,,,,,,,,,,,,,,,,,,,,,,,,,,,,,,,,,,,,,,,,,,,,,,,,,,,,,,,,,,
,,,,2,0.7282,,,,,,3,cake,oven,,88839,001,2022-04-18_16h25.40.433,SPAMnetsValid,2021.1.4,MacIntel,60.0024001,,,,,,,,,,,,,2,0.7282,0,45,45,30,1,,,,,,,,,,,,,,,,,,,,,,,,,,,,,,,,,,,,,,,,,,,,,,,,,,,,,,,,,,,,,,,,,,,,,,
,,,,2,0.4976,,,,,,68,flower,tomato,,88839,001,2022-04-18_16h25.40.433,SPAMnetsValid,2021.1.4,MacIntel,60.0024001,,,,,,,,,,,,,2,0.4976,0,46,46,94,1,,,,,,,,,,,,,,,,,,,,,,,,,,,,,,,,,,,,,,,,,,,,,,,,,,,,,,,,,,,,,,,,,,,,,,
,,,,3,0.7058,,,,,,72,broom,onion,,88839,001,2022-04-18_16h25.40.433,SPAMnetsValid,2021.1.4,MacIntel,60.0024001,,,,,,,,,,,,,3,0.7058,0,47,47,27,1,,,,,,,,,,,,,,,,,,,,,,,,,,,,,,,,,,,,,,,,,,,,,,,,,,,,,,,,,,,,,,,,,,,,,,
,,,,3,0.4465,,,,,,85,cake,tree,,88839,001,2022-04-18_16h25.40.433,SPAMnetsValid,2021.1.4,MacIntel,60.0024001,,,,,,,,,,,,,3,0.4465,0,48,48,18,1,,,,,,,,,,,,,,,,,,,,,,,,,,,,,,,,,,,,,,,,,,,,,,,,,,,,,,,,,,,,,,,,,,,,,,
,,,,7,0.7552,,,,,,33,oven,yogurt,,88839,001,2022-04-18_16h25.40.433,SPAMnetsValid,2021.1.4,MacIntel,60.0024001,,,,,,,,,,,,,7,0.7552,0,49,49,31,1,,,,,,,,,,,,,,,,,,,,,,,,,,,,,,,,,,,,,,,,,,,,,,,,,,,,,,,,,,,,,,,,,,,,,,
,,,,9,0.6405,,,,,,83,broom,carrot,,88839,001,2022-04-18_16h25.40.433,SPAMnetsValid,2021.1.4,MacIntel,60.0024001,,,,,,,,,,,,,9,0.6405,0,50,50,4,1,,,,,,,,,,,,,,,,,,,,,,,,,,,,,,,,,,,,,,,,,,,,,,,,,,,,,,,,,,,,,,,,,,,,,,
,,,,8,0.5623,,,,,,74,broom,pretzel,,88839,001,2022-04-18_16h25.40.433,SPAMnetsValid,2021.1.4,MacIntel,60.0024001,,,,,,,,,,,,,8,0.5623,0,51,51,40,1,,,,,,,,,,,,,,,,,,,,,,,,,,,,,,,,,,,,,,,,,,,,,,,,,,,,,,,,,,,,,,,,,,,,,,
,,,,7,1.1635,,,,,,53,garden,pretzel,,88839,001,2022-04-18_16h25.40.433,SPAMnetsValid,2021.1.4,MacIntel,60.0024001,,,,,,,,,,,,,7,1.1635,0,52,52,0,1,,,,,,,,,,,,,,,,,,,,,,,,,,,,,,,,,,,,,,,,,,,,,,,,,,,,,,,,,,,,,,,,,,,,,,
,,,,7,0.7568,,,,,,58,garden,oven,,88839,001,2022-04-18_16h25.40.433,SPAMnetsValid,2021.1.4,MacIntel,60.0024001,,,,,,,,,,,,,7,0.7568,0,53,53,37,1,,,,,,,,,,,,,,,,,,,,,,,,,,,,,,,,,,,,,,,,,,,,,,,,,,,,,,,,,,,,,,,,,,,,,,
,,,,7,0.6634,,,,,,76,garden,rose,,88839,001,2022-04-18_16h25.40.433,SPAMnetsValid,2021.1.4,MacIntel,60.0024001,,,,,,,,,,,,,7,0.6634,0,54,54,19,1,,,,,,,,,,,,,,,,,,,,,,,,,,,,,,,,,,,,,,,,,,,,,,,,,,,,,,,,,,,,,,,,,,,,,,
,,,,7,1.3568,,,,,,38,pretzel,refrigerator,,88839,001,2022-04-18_16h25.40.433,SPAMnetsValid,2021.1.4,MacIntel,60.0024001,,,,,,,,,,,,,7,1.3568,0,55,55,71,1,,,,,,,,,,,,,,,,,,,,,,,,,,,,,,,,,,,,,,,,,,,,,,,,,,,,,,,,,,,,,,,,,,,,,,
,,,,7,0.6974,,,,,,16,chocolate,flower,,88839,001,2022-04-18_16h25.40.433,SPAMnetsValid,2021.1.4,MacIntel,60.0024001,,,,,,,,,,,,,7,0.6974,0,56,56,22,1,,,,,,,,,,,,,,,,,,,,,,,,,,,,,,,,,,,,,,,,,,,,,,,,,,,,,,,,,,,,,,,,,,,,,,
,,,,7,1.0891,,,,,,86,oven,rose,,88839,001,2022-04-18_16h25.40.433,SPAMnetsValid,2021.1.4,MacIntel,60.0024001,,,,,,,,,,,,,7,1.0891,0,57,57,79,1,,,,,,,,,,,,,,,,,,,,,,,,,,,,,,,,,,,,,,,,,,,,,,,,,,,,,,,,,,,,,,,,,,,,,,
,,,,3,1.4625,,,,,,2,kitchen,onion,,88839,001,2022-04-18_16h25.40.433,SPAMnetsValid,2021.1.4,MacIntel,60.0024001,,,,,,,,,,,,,3,1.4625,0,58,58,91,1,,,,,,,,,,,,,,,,,,,,,,,,,,,,,,,,,,,,,,,,,,,,,,,,,,,,,,,,,,,,,,,,,,,,,,
,,,,3,0.5471,,,,,,65,broom,garden,,88839,001,2022-04-18_16h25.40.433,SPAMnetsValid,2021.1.4,MacIntel,60.0024001,,,,,,,,,,,,,3,0.5471,0,59,59,23,1,,,,,,,,,,,,,,,,,,,,,,,,,,,,,,,,,,,,,,,,,,,,,,,,,,,,,,,,,,,,,,,,,,,,,,
,,,,3,0.4731,,,,,,191,cake,cake,CHECK,88839,001,2022-04-18_16h25.40.433,SPAMnetsValid,2021.1.4,MacIntel,60.0024001,,,,,,,,,,,,,3,0.4731,0,60,60,10,1,,,,,,,,,,,,,,,,,,,,,,,,,,,,,,,,,,,,,,,,,,,,,,,,,,,,,,,,,,,,,,,,,,,,,,
,,,,3,0.4406,,,,,,9,kitchen,refrigerator,,88839,001,2022-04-18_16h25.40.433,SPAMnetsValid,2021.1.4,MacIntel,60.0024001,,,,,,,,,,,,,3,0.4406,0,61,61,64,1,,,,,,,,,,,,,,,,,,,,,,,,,,,,,,,,,,,,,,,,,,,,,,,,,,,,,,,,,,,,,,,,,,,,,,
,,,,3,0.4719,,,,,,31,cactus,pretzel,,88839,001,2022-04-18_16h25.40.433,SPAMnetsValid,2021.1.4,MacIntel,60.0024001,,,,,,,,,,,,,3,0.4719,0,62,62,1,1,,,,,,,,,,,,,,,,,,,,,,,,,,,,,,,,,,,,,,,,,,,,,,,,,,,,,,,,,,,,,,,,,,,,,,
,,,,1,0.6222,,,,,,70,chocolate,onion,,88839,001,2022-04-18_16h25.40.433,SPAMnetsValid,2021.1.4,MacIntel,60.0024001,,,,,,,,,,,,,1,0.6222,0,63,63,74,1,,,,,,,,,,,,,,,,,,,,,,,,,,,,,,,,,,,,,,,,,,,,,,,,,,,,,,,,,,,,,,,,,,,,,,
,,,,2,1.2467,,,,,,54,chocolate,yogurt,,88839,001,2022-04-18_16h25.40.433,SPAMnetsValid,2021.1.4,MacIntel,60.0024001,,,,,,,,,,,,,2,1.2467,0,64,64,67,1,,,,,,,,,,,,,,,,,,,,,,,,,,,,,,,,,,,,,,,,,,,,,,,,,,,,,,,,,,,,,,,,,,,,,,
,,,,2,0.714,,,,,,56,cactus,tree,,88839,001,2022-04-18_16h25.40.433,SPAMnetsValid,2021.1.4,MacIntel,60.0024001,,,,,,,,,,,,,2,0.714,0,65,65,21,1,,,,,,,,,,,,,,,,,,,,,,,,,,,,,,,,,,,,,,,,,,,,,,,,,,,,,,,,,,,,,,,,,,,,,,
,,,,2,0.5131,,,,,,94,kitchen,microwave,,88839,001,2022-04-18_16h25.40.433,SPAMnetsValid,2021.1.4,MacIntel,60.0024001,,,,,,,,,,,,,2,0.5131,0,66,66,58,1,,,,,,,,,,,,,,,,,,,,,,,,,,,,,,,,,,,,,,,,,,,,,,,,,,,,,,,,,,,,,,,,,,,,,,
,,,,3,0.5966,,,,,,78,cookie,rose,,88839,001,2022-04-18_16h25.40.433,SPAMnetsValid,2021.1.4,MacIntel,60.0024001,,,,,,,,,,,,,3,0.5966,0,67,67,56,1,,,,,,,,,,,,,,,,,,,,,,,,,,,,,,,,,,,,,,,,,,,,,,,,,,,,,,,,,,,,,,,,,,,,,,
,,,,3,0.645,,,,,,28,cake,melon,,88839,001,2022-04-18_16h25.40.433,SPAMnetsValid,2021.1.4,MacIntel,60.0024001,,,,,,,,,,,,,3,0.645,0,68,68,54,1,,,,,,,,,,,,,,,,,,,,,,,,,,,,,,,,,,,,,,,,,,,,,,,,,,,,,,,,,,,,,,,,,,,,,,
,,,,3,0.4209,,,,,,47,onion,tomato,,88839,001,2022-04-18_16h25.40.433,SPAMnetsValid,2021.1.4,MacIntel,60.0024001,,,,,,,,,,,,,3,0.4209,0,69,69,51,1,,,,,,,,,,,,,,,,,,,,,,,,,,,,,,,,,,,,,,,,,,,,,,,,,,,,,,,,,,,,,,,,,,,,,,
,,,,4,0.6241,,,,,,21,cake,onion,,88839,001,2022-04-18_16h25.40.433,SPAMnetsValid,2021.1.4,MacIntel,60.0024001,,,,,,,,,,,,,4,0.6241,0,70,70,63,1,,,,,,,,,,,,,,,,,,,,,,,,,,,,,,,,,,,,,,,,,,,,,,,,,,,,,,,,,,,,,,,,,,,,,,
,,,,6,0.7814,,,,,,73,broom,chocolate,,88839,001,2022-04-18_16h25.40.433,SPAMnetsValid,2021.1.4,MacIntel,60.0024001,,,,,,,,,,,,,6,0.7814,0,71,71,47,1,,,,,,,,,,,,,,,,,,,,,,,,,,,,,,,,,,,,,,,,,,,,,,,,,,,,,,,,,,,,,,,,,,,,,,
,,,,7,0.5979,,,,,,12,cookie,yogurt,,88839,001,2022-04-18_16h25.40.433,SPAMnetsValid,2021.1.4,MacIntel,60.0024001,,,,,,,,,,,,,7,0.5979,0,72,72,36,1,,,,,,,,,,,,,,,,,,,,,,,,,,,,,,,,,,,,,,,,,,,,,,,,,,,,,,,,,,,,,,,,,,,,,,
,,,,7,0.4974,,,,,,55,tomato,tree,,88839,001,2022-04-18_16h25.40.433,SPAMnetsValid,2021.1.4,MacIntel,60.0024001,,,,,,,,,,,,,7,0.4974,0,73,73,35,1,,,,,,,,,,,,,,,,,,,,,,,,,,,,,,,,,,,,,,,,,,,,,,,,,,,,,,,,,,,,,,,,,,,,,,
,,,,8,0.4724,,,,,,8,broom,melon,,88839,001,2022-04-18_16h25.40.433,SPAMnetsValid,2021.1.4,MacIntel,60.0024001,,,,,,,,,,,,,8,0.4724,0,74,74,59,1,,,,,,,,,,,,,,,,,,,,,,,,,,,,,,,,,,,,,,,,,,,,,,,,,,,,,,,,,,,,,,,,,,,,,,
,,,,8,1.0795,,,,,,48,flower,oven,,88839,001,2022-04-18_16h25.40.433,SPAMnetsValid,2021.1.4,MacIntel,60.0024001,,,,,,,,,,,,,8,1.0795,0,75,75,15,1,,,,,,,,,,,,,,,,,,,,,,,,,,,,,,,,,,,,,,,,,,,,,,,,,,,,,,,,,,,,,,,,,,,,,,
,,,,6,0.7567,,,,,,93,kitchen,oven,,88839,001,2022-04-18_16h25.40.433,SPAMnetsValid,2021.1.4,MacIntel,60.0024001,,,,,,,,,,,,,6,0.7567,0,76,76,82,1,,,,,,,,,,,,,,,,,,,,,,,,,,,,,,,,,,,,,,,,,,,,,,,,,,,,,,,,,,,,,,,,,,,,,,
,,,,7,0.5734,,,,,,4,chocolate,pretzel,,88839,001,2022-04-18_16h25.40.433,SPAMnetsValid,2021.1.4,MacIntel,60.0024001,,,,,,,,,,,,,7,0.5734,0,77,77,52,1,,,,,,,,,,,,,,,,,,,,,,,,,,,,,,,,,,,,,,,,,,,,,,,,,,,,,,,,,,,,,,,,,,,,,,
,,,,4,0.6484,,,,,,79,garden,strawberry,,88839,001,2022-04-18_16h25.40.433,SPAMnetsValid,2021.1.4,MacIntel,60.0024001,,,,,,,,,,,,,4,0.6484,0,78,78,87,1,,,,,,,,,,,,,,,,,,,,,,,,,,,,,,,,,,,,,,,,,,,,,,,,,,,,,,,,,,,,,,,,,,,,,,
,,,,2,0.6121,,,,,,36,broom,kitchen,,88839,001,2022-04-18_16h25.40.433,SPAMnetsValid,2021.1.4,MacIntel,60.0024001,,,,,,,,,,,,,2,0.6121,0,79,79,76,1,,,,,,,,,,,,,,,,,,,,,,,,,,,,,,,,,,,,,,,,,,,,,,,,,,,,,,,,,,,,,,,,,,,,,,
,,,,3,0.5401,,,,,,5,oven,tree,,88839,001,2022-04-18_16h25.40.433,SPAMnetsValid,2021.1.4,MacIntel,60.0024001,,,,,,,,,,,,,3,0.5401,0,80,80,70,1,,,,,,,,,,,,,,,,,,,,,,,,,,,,,,,,,,,,,,,,,,,,,,,,,,,,,,,,,,,,,,,,,,,,,,
,,,,2,0.5899,,,,,,15,onion,oven,,88839,001,2022-04-18_16h25.40.433,SPAMnetsValid,2021.1.4,MacIntel,60.0024001,,,,,,,,,,,,,2,0.5899,0,81,81,39,1,,,,,,,,,,,,,,,,,,,,,,,,,,,,,,,,,,,,,,,,,,,,,,,,,,,,,,,,,,,,,,,,,,,,,,
,,,,4,0.746,,,,,,50,carrot,rose,,88839,001,2022-04-18_16h25.40.433,SPAMnetsValid,2021.1.4,MacIntel,60.0024001,,,,,,,,,,,,,4,0.746,0,82,82,73,1,,,,,,,,,,,,,,,,,,,,,,,,,,,,,,,,,,,,,,,,,,,,,,,,,,,,,,,,,,,,,,,,,,,,,,
,,,,3,0.747,,,,,,92,broom,flower,,88839,001,2022-04-18_16h25.40.433,SPAMnetsValid,2021.1.4,MacIntel,60.0024001,,,,,,,,,,,,,3,0.747,0,83,83,88,1,,,,,,,,,,,,,,,,,,,,,,,,,,,,,,,,,,,,,,,,,,,,,,,,,,,,,,,,,,,,,,,,,,,,,,
,,,,3,0.496,,,,,,26,tomato,yogurt,,88839,001,2022-04-18_16h25.40.433,SPAMnetsValid,2021.1.4,MacIntel,60.0024001,,,,,,,,,,,,,3,0.496,0,84,84,13,1,,,,,,,,,,,,,,,,,,,,,,,,,,,,,,,,,,,,,,,,,,,,,,,,,,,,,,,,,,,,,,,,,,,,,,
,,,,3,0.3306,,,,,,63,cake,cookie,,88839,001,2022-04-18_16h25.40.433,SPAMnetsValid,2021.1.4,MacIntel,60.0024001,,,,,,,,,,,,,3,0.3306,0,85,85,93,1,,,,,,,,,,,,,,,,,,,,,,,,,,,,,,,,,,,,,,,,,,,,,,,,,,,,,,,,,,,,,,,,,,,,,,
,,,,3,0.3142,,,,,,35,flower,pretzel,,88839,001,2022-04-18_16h25.40.433,SPAMnetsValid,2021.1.4,MacIntel,60.0024001,,,,,,,,,,,,,3,0.3142,0,86,86,26,1,,,,,,,,,,,,,,,,,,,,,,,,,,,,,,,,,,,,,,,,,,,,,,,,,,,,,,,,,,,,,,,,,,,,,,
,,,,3,0.3983,,,,,,57,flower,kitchen,,88839,001,2022-04-18_16h25.40.433,SPAMnetsValid,2021.1.4,MacIntel,60.0024001,,,,,,,,,,,,,3,0.3983,0,87,87,49,1,,,,,,,,,,,,,,,,,,,,,,,,,,,,,,,,,,,,,,,,,,,,,,,,,,,,,,,,,,,,,,,,,,,,,,
,,,,3,0.3733,,,,,,27,cactus,cookie,,88839,001,2022-04-18_16h25.40.433,SPAMnetsValid,2021.1.4,MacIntel,60.0024001,,,,,,,,,,,,,3,0.3733,0,88,88,17,1,,,,,,,,,,,,,,,,,,,,,,,,,,,,,,,,,,,,,,,,,,,,,,,,,,,,,,,,,,,,,,,,,,,,,,
,,,,3,0.3889,,,,,,1,rose,yogurt,,88839,001,2022-04-18_16h25.40.433,SPAMnetsValid,2021.1.4,MacIntel,60.0024001,,,,,,,,,,,,,3,0.3889,0,89,89,55,1,,,,,,,,,,,,,,,,,,,,,,,,,,,,,,,,,,,,,,,,,,,,,,,,,,,,,,,,,,,,,,,,,,,,,,
,,,,3,0.9814,,,,,,61,strawberry,tomato,,88839,001,2022-04-18_16h25.40.433,SPAMnetsValid,2021.1.4,MacIntel,60.0024001,,,,,,,,,,,,,3,0.9814,0,90,90,80,1,,,,,,,,,,,,,,,,,,,,,,,,,,,,,,,,,,,,,,,,,,,,,,,,,,,,,,,,,,,,,,,,,,,,,,
,,,,3,3.9404,,,,,,84,oven,tomato,,88839,001,2022-04-18_16h25.40.433,SPAMnetsValid,2021.1.4,MacIntel,60.0024001,,,,,,,,,,,,,3,3.9404,0,91,91,28,1,,,,,,,,,,,,,,,,,,,,,,,,,,,,,,,,,,,,,,,,,,,,,,,,,,,,,,,,,,,,,,,,,,,,,,
,,,,3,0.6563,,,,,,91,microwave,rose,,88839,001,2022-04-18_16h25.40.433,SPAMnetsValid,2021.1.4,MacIntel,60.0024001,,,,,,,,,,,,,3,0.6563,0,92,92,84,1,,,,,,,,,,,,,,,,,,,,,,,,,,,,,,,,,,,,,,,,,,,,,,,,,,,,,,,,,,,,,,,,,,,,,,
,,,,3,0.4806,,,,,,46,garden,yogurt,,88839,001,2022-04-18_16h25.40.433,SPAMnetsValid,2021.1.4,MacIntel,60.0024001,,,,,,,,,,,,,3,0.4806,0,93,93,65,1,,,,,,,,,,,,,,,,,,,,,,,,,,,,,,,,,,,,,,,,,,,,,,,,,,,,,,,,,,,,,,,,,,,,,,
,,,,3,0.6142,,,,,,51,onion,strawberry,,88839,001,2022-04-18_16h25.40.433,SPAMnetsValid,2021.1.4,MacIntel,60.0024001,,,,,,,,,,,,,3,0.6142,0,94,94,86,1,,,,,,,,,,,,,,,,,,,,,,,,,,,,,,,,,,,,,,,,,,,,,,,,,,,,,,,,,,,,,,,,,,,,,,
,,,,2,0.739,,,,,,59,rose,strawberry,,88839,001,2022-04-18_16h25.40.433,SPAMnetsValid,2021.1.4,MacIntel,60.0024001,,,,,,,,,,,,,2,0.739,0,95,95,72,1,,,,,,,,,,,,,,,,,,,,,,,,,,,,,,,,,,,,,,,,,,,,,,,,,,,,,,,,,,,,,,,,,,,,,,
,,,,2,0.5478,,,,,,37,garden,refrigerator,,88839,001,2022-04-18_16h25.40.433,SPAMnetsValid,2021.1.4,MacIntel,60.0024001,,,,,,,,,,,,,2,0.5478,0,96,96,11,1,,,,,,,,,,,,,,,,,,,,,,,,,,,,,,,,,,,,,,,,,,,,,,,,,,,,,,,,,,,,,,,,,,,,,,
,,,,,,,,,,,,,,,88839,001,2022-04-18_16h25.40.433,SPAMnetsValid,2021.1.4,MacIntel,60.0024001,,,,,,,,,,,,,,,,,,,,0,0,0,0,1,,,,,,,,,,,,,,,,,,,,,,,,,,,,,,,,,,,,,,,,,,,,,,,,,,,,,,,,,,,,,,,,,
,,,,,,,,,,,,,,,88839,001,2022-04-18_16h25.40.433,SPAMnetsValid,2021.1.4,MacIntel,60.0024001,,,,,,0,1,1,0,1,1,0,,,,,,,,,,,,,,,,,,,,,,,,,,,,,,,,,,,,,,,,,,,,,,,,,,,,,,,,,,,,,,,,,,,,,,,,,,,,,
,,,,,,,,,,,,,,,88839,001,2022-04-18_16h25.40.433,SPAMnetsValid,2021.1.4,MacIntel,60.0024001,,,,,,,,,,,,,,,,,,,,,,,,,3,2.6019,0,0,0,0,1,rancor,forbearance,ridicule,malice,bravery,3,,,,,,,,,,,,,,,,,,,,,,,,,,,,,,,,,,,,,,,,,,,,,,,,,,,,
,,,,,,,,,,,,,,,88839,001,2022-04-18_16h25.40.433,SPAMnetsValid,2021.1.4,MacIntel,60.0024001,,,,,,,,,,,,,,,,,,,,,,,,,2,3.9148,0,1,1,1,1,raucous,empty,quiet,smooth,harsh,4,,,,,,,,,,,,,,,,,,,,,,,,,,,,,,,,,,,,,,,,,,,,,,,,,,,,
,,,,,,,,,,,,,,,88839,001,2022-04-18_16h25.40.433,SPAMnetsValid,2021.1.4,MacIntel,60.0024001,,,,,,,,,,,,,,,,,,,,,,,,,2,1.0061,0,2,2,2,1,gargoyle,oil,medicine,carved waterspout,ugly building,3,,,,,,,,,,,,,,,,,,,,,,,,,,,,,,,,,,,,,,,,,,,,,,,,,,,,
,,,,,,,,,,,,,,,88839,001,2022-04-18_16h25.40.433,SPAMnetsValid,2021.1.4,MacIntel,60.0024001,,,,,,,,,,,,,,,,,,,,,,,,,2,0.5566,0,3,3,3,1,recrudesce,purify,renew activity,lack refinement,crush,2,,,,,,,,,,,,,,,,,,,,,,,,,,,,,,,,,,,,,,,,,,,,,,,,,,,,
,,,,,,,,,,,,,,,88839,001,2022-04-18_16h25.40.433,SPAMnetsValid,2021.1.4,MacIntel,60.0024001,,,,,,,,,,,,,,,,,,,,,,,,,3,1.0302,0,4,4,4,1,specious,"plausible, but not genuine",noteworthy,class or variety,roomy,1,,,,,,,,,,,,,,,,,,,,,,,,,,,,,,,,,,,,,,,,,,,,,,,,,,,,
,,,,,,,,,,,,,,,88839,001,2022-04-18_16h25.40.433,SPAMnetsValid,2021.1.4,MacIntel,60.0024001,,,,,,,,,,,,,,,,,,,,,,,,,3,0.4992,0,5,5,5,1,bauble,bubble,showy plaything,idle talk,confusion,2,,,,,,,,,,,,,,,,,,,,,,,,,,,,,,,,,,,,,,,,,,,,,,,,,,,,
,,,,,,,,,,,,,,,88839,001,2022-04-18_16h25.40.433,SPAMnetsValid,2021.1.4,MacIntel,60.0024001,,,,,,,,,,,,,,,,,,,,,,,,,3,0.4984,0,6,6,6,1,prolific,scarce,producing abundantly,reckless,speaking profanely,2,,,,,,,,,,,,,,,,,,,,,,,,,,,,,,,,,,,,,,,,,,,,,,,,,,,,
,,,,,,,,,,,,,,,88839,001,2022-04-18_16h25.40.433,SPAMnetsValid,2021.1.4,MacIntel,60.0024001,,,,,,,,,,,,,,,,,,,,,,,,,3,0.4997,0,7,7,7,1,opulent,party,wealthy,happy frame of mind,semiprecious stone,2,,,,,,,,,,,,,,,,,,,,,,,,,,,,,,,,,,,,,,,,,,,,,,,,,,,,
,,,,,,,,,,,,,,,88839,001,2022-04-18_16h25.40.433,SPAMnetsValid,2021.1.4,MacIntel,60.0024001,,,,,,,,,,,,,,,,,,,,,,,,,1,2.6637,0,8,8,8,1,coercion,conspiracy,strategy,restraint,attraction,3,,,,,,,,,,,,,,,,,,,,,,,,,,,,,,,,,,,,,,,,,,,,,,,,,,,,
,,,,,,,,,,,,,,,88839,001,2022-04-18_16h25.40.433,SPAMnetsValid,2021.1.4,MacIntel,60.0024001,,,,,,,,,,,,,,,,,,,,,,,,,1,0.4271,0,9,9,9,1,hiatus,animal,calamity,dread,gap,4,,,,,,,,,,,,,,,,,,,,,,,,,,,,,,,,,,,,,,,,,,,,,,,,,,,,
,,,,,,,,,,,,,,,88839,001,2022-04-18_16h25.40.433,SPAMnetsValid,2021.1.4,MacIntel,60.0024001,,,,,,,,,,,,,,,,,,,,,,,,,2,1.3985,0,10,10,10,1,germane,microbe,contagious,relevant,different,3,,,,,,,,,,,,,,,,,,,,,,,,,,,,,,,,,,,,,,,,,,,,,,,,,,,,
,,,,,,,,,,,,,,,88839,001,2022-04-18_16h25.40.433,SPAMnetsValid,2021.1.4,MacIntel,60.0024001,,,,,,,,,,,,,,,,,,,,,,,,,2,0.5148,0,11,11,11,1,perfunctory,fundamental,formal,superficial,careful,3,,,,,,,,,,,,,,,,,,,,,,,,,,,,,,,,,,,,,,,,,,,,,,,,,,,,
,,,,,,,,,,,,,,,88839,001,2022-04-18_16h25.40.433,SPAMnetsValid,2021.1.4,MacIntel,60.0024001,,,,,,,,,,,,,,,,,,,,,,,,,2,0.4786,0,12,12,12,1,diverge,reveal,chant,distract the attention of,differ or turn off from,4,,,,,,,,,,,,,,,,,,,,,,,,,,,,,,,,,,,,,,,,,,,,,,,,,,,,
,,,,,,,,,,,,,,,88839,001,2022-04-18_16h25.40.433,SPAMnetsValid,2021.1.4,MacIntel,60.0024001,,,,,,,,,,,,,,,,,,,,,,,,,3,1.016,0,13,13,13,1,evoke,take away,anger,connect,bring out,4,,,,,,,,,,,,,,,,,,,,,,,,,,,,,,,,,,,,,,,,,,,,,,,,,,,,
,,,,,,,,,,,,,,,88839,001,2022-04-18_16h25.40.433,SPAMnetsValid,2021.1.4,MacIntel,60.0024001,,,,,,,,,,,,,,,,,,,,,,,,,3,0.4647,0,14,14,14,1,pertinent,relevant,lying next to,necessary,bold,1,,,,,,,,,,,,,,,,,,,,,,,,,,,,,,,,,,,,,,,,,,,,,,,,,,,,
,,,,,,,,,,,,,,,88839,001,2022-04-18_16h25.40.433,SPAMnetsValid,2021.1.4,MacIntel,60.0024001,,,,,,,,,,,,,,,,,,,,,,,,,3,0.5316,0,15,15,15,1,holocaust,entirety,destruction,saintly,price,2,,,,,,,,,,,,,,,,,,,,,,,,,,,,,,,,,,,,,,,,,,,,,,,,,,,,
,,,,,,,,,,,,,,,88839,001,2022-04-18_16h25.40.433,SPAMnetsValid,2021.1.4,MacIntel,60.0024001,,,,,,,,,,,,,,,,,,,,,,,,,2,1.0965,0,16,16,16,1,piquant,mellow,fish,pungent,cloth,3,,,,,,,,,,,,,,,,,,,,,,,,,,,,,,,,,,,,,,,,,,,,,,,,,,,,
,,,,,,,,,,,,,,,88839,001,2022-04-18_16h25.40.433,SPAMnetsValid,2021.1.4,MacIntel,60.0024001,,,,,,,,,,,,,,,,,,,,,,,,,2,0.6974,0,17,17,17,1,firmament,foundation,heavens,strong,glue,2,,,,,,,,,,,,,,,,,,,,,,,,,,,,,,,,,,,,,,,,,,,,,,,,,,,,
,,,,,,,,,,,,,,,88839,001,2022-04-18_16h25.40.433,SPAMnetsValid,2021.1.4,MacIntel,60.0024001,,,,,,,,,,,,,,,,,,,,,,,,,,,,,,,,,,,,,,1,1.3927,0,0,0,0,1,marketable,partisan,jocular,marriageable,salable,essential,4,,,,,,,,,,,,,,,,,,,,,,,,,,,,,,,,,,,,,,
,,,,,,,,,,,,,,,88839,001,2022-04-18_16h25.40.433,SPAMnetsValid,2021.1.4,MacIntel,60.0024001,,,,,,,,,,,,,,,,,,,,,,,,,,,,,,,,,,,,,,1,0.5413,0,1,1,1,1,cottontail,squirrel,poplar,boa,marshy plant,rabbit,5,,,,,,,,,,,,,,,,,,,,,,,,,,,,,,,,,,,,,,
,,,,,,,,,,,,,,,88839,001,2022-04-18_16h25.40.433,SPAMnetsValid,2021.1.4,MacIntel,60.0024001,,,,,,,,,,,,,,,,,,,,,,,,,,,,,,,,,,,,,,2,1.0979,0,2,2,2,1,boggy,afraid,false,marshy,dense,black,3,,,,,,,,,,,,,,,,,,,,,,,,,,,,,,,,,,,,,,
,,,,,,,,,,,,,,,88839,001,2022-04-18_16h25.40.433,SPAMnetsValid,2021.1.4,MacIntel,60.0024001,,,,,,,,,,,,,,,,,,,,,,,,,,,,,,,,,,,,,,4,2.5145,0,3,3,3,1,gruesomeness,blackness,falseness,vindictiveness,drunkenness,ghastliness,5,,,,,,,,,,,,,,,,,,,,,,,,,,,,,,,,,,,,,,
,,,,,,,,,,,,,,,88839,001,2022-04-18_16h25.40.433,SPAMnetsValid,2021.1.4,MacIntel,60.0024001,,,,,,,,,,,,,,,,,,,,,,,,,,,,,,,,,,,,,,4,0.5322,0,4,4,4,1,loathing,diffidence,laziness,abhorrence,cleverness,comfort,3,,,,,,,,,,,,,,,,,,,,,,,,,,,,,,,,,,,,,,
,,,,,,,,,,,,,,,88839,001,2022-04-18_16h25.40.433,SPAMnetsValid,2021.1.4,MacIntel,60.0024001,,,,,,,,,,,,,,,,,,,,,,,,,,,,,,,,,,,,,,4,0.464,0,5,5,5,1,bantam,fowl,ridicule,cripple,vegetable,ensign,1,,,,,,,,,,,,,,,,,,,,,,,,,,,,,,,,,,,,,,
,,,,,,,,,,,,,,,88839,001,2022-04-18_16h25.40.433,SPAMnetsValid,2021.1.4,MacIntel,60.0024001,,,,,,,,,,,,,,,,,,,,,,,,,,,,,,,,,,,,,,4,0.5075,0,6,6,6,1,evoke,wake up,surrender,reconnoiter,transcend,call forth,5,,,,,,,,,,,,,,,,,,,,,,,,,,,,,,,,,,,,,,
,,,,,,,,,,,,,,,88839,001,2022-04-18_16h25.40.433,SPAMnetsValid,2021.1.4,MacIntel,60.0024001,,,,,,,,,,,,,,,,,,,,,,,,,,,,,,,,,,,,,,4,0.5079,0,7,7,7,1,unobtrusive,unintelligent,epileptic,illogical,lineal,modest,5,,,,,,,,,,,,,,,,,,,,,,,,,,,,,,,,,,,,,,
,,,,,,,,,,,,,,,88839,001,2022-04-18_16h25.40.433,SPAMnetsValid,2021.1.4,MacIntel,60.0024001,,,,,,,,,,,,,,,,,,,,,,,,,,,,,,,,,,,,,,4,0.5804,0,8,8,8,1,terrain,ice cream,final test,tractor,area of ground,weight,4,,,,,,,,,,,,,,,,,,,,,,,,,,,,,,,,,,,,,,
,,,,,,,,,,,,,,,88839,001,2022-04-18_16h25.40.433,SPAMnetsValid,2021.1.4,MacIntel,60.0024001,,,,,,,,,,,,,,,,,,,,,,,,,,,,,,,,,,,,,,5,1.3064,0,9,9,9,1,capriciousness,stubbornness,courage,whimsicality,amazement,greediness,3,,,,,,,,,,,,,,,,,,,,,,,,,,,,,,,,,,,,,,
,,,,,,,,,,,,,,,88839,001,2022-04-18_16h25.40.433,SPAMnetsValid,2021.1.4,MacIntel,60.0024001,,,,,,,,,,,,,,,,,,,,,,,,,,,,,,,,,,,,,,5,0.4985,0,10,10,10,1,maelstrom,slander,whirlpool,enmity,armor,majolica,2,,,,,,,,,,,,,,,,,,,,,,,,,,,,,,,,,,,,,,
,,,,,,,,,,,,,,,88839,001,2022-04-18_16h25.40.433,SPAMnetsValid,2021.1.4,MacIntel,60.0024001,,,,,,,,,,,,,,,,,,,,,,,,,,,,,,,,,,,,,,5,0.471,0,11,11,11,1,tentative,critical,conclusive,authentic,provisional,apprehensive,4,,,,,,,,,,,,,,,,,,,,,,,,,,,,,,,,,,,,,,
,,,,,,,,,,,,,,,88839,001,2022-04-18_16h25.40.433,SPAMnetsValid,2021.1.4,MacIntel,60.0024001,,,,,,,,,,,,,,,,,,,,,,,,,,,,,,,,,,,,,,5,0.4901,0,12,12,12,1,placate,rehabilitate,plagiarize,depredate,apprise,conciliate,5,,,,,,,,,,,,,,,,,,,,,,,,,,,,,,,,,,,,,,
,,,,,,,,,,,,,,,88839,001,2022-04-18_16h25.40.433,SPAMnetsValid,2021.1.4,MacIntel,60.0024001,,,,,,,,,,,,,,,,,,,,,,,,,,,,,,,,,,,,,,5,0.5658,0,13,13,13,1,surcease,enlightenment,cessation,inattention,censor,substitution,2,,,,,,,,,,,,,,,,,,,,,,,,,,,,,,,,,,,,,,
,,,,,,,,,,,,,,,88839,001,2022-04-18_16h25.40.433,SPAMnetsValid,2021.1.4,MacIntel,60.0024001,,,,,,,,,,,,,,,,,,,,,,,,,,,,,,,,,,,,,,5,0.4997,0,14,14,14,1,apathetic,wandering,impassive,hateful,prophetic,overflowing,2,,,,,,,,,,,,,,,,,,,,,,,,,,,,,,,,,,,,,,
,,,,,,,,,,,,,,,88839,001,2022-04-18_16h25.40.433,SPAMnetsValid,2021.1.4,MacIntel,60.0024001,,,,,,,,,,,,,,,,,,,,,,,,,,,,,,,,,,,,,,5,0.5402,0,15,15,15,1,paternoster,paternalism,patricide,malediction,benediction,prayer,5,,,,,,,,,,,,,,,,,,,,,,,,,,,,,,,,,,,,,,
,,,,,,,,,,,,,,,88839,001,2022-04-18_16h25.40.433,SPAMnetsValid,2021.1.4,MacIntel,60.0024001,,,,,,,,,,,,,,,,,,,,,,,,,,,,,,,,,,,,,,5,0.4329,0,16,16,16,1,opalescence,opulence,senescence,bankruptcy,iridescence,assiduity,4,,,,,,,,,,,,,,,,,,,,,,,,,,,,,,,,,,,,,,
,,,,,,,,,,,,,,,88839,001,2022-04-18_16h25.40.433,SPAMnetsValid,2021.1.4,MacIntel,60.0024001,,,,,,,,,,,,,,,,,,,,,,,,,,,,,,,,,,,,,,5,0.3412,0,17,17,17,1,lush,stupid,luxurious,hazy,putrid,languishing,2,,,,,,,,,,,,,,,,,,,,,,,,,,,,,,,,,,,,,,
,,,,,,,,,,,,,,,88839,001,2022-04-18_16h25.40.433,SPAMnetsValid,2021.1.4,MacIntel,60.0024001,,,,,,,,,,,,,,,,,,,,,,,,,,,,,,,,,,,,,,2,2.1655,0,18,18,18,1,curtailment,expenditure,abandonment,abridgment,improvement,forgery,3,,,,,,,,,,,,,,,,,,,,,,,,,,,,,,,,,,,,,,
,,,,,,,,,,,,,,,88839,001,2022-04-18_16h25.40.433,SPAMnetsValid,2021.1.4,MacIntel,60.0024001,,,,,,,,,,,,,,,,,,,,,,,,,,,,,,,,,,,,,,2,0.4446,0,19,19,19,1,perversity,adversity,perviousness,travesty,waywardness,gentility,4,,,,,,,,,,,,,,,,,,,,,,,,,,,,,,,,,,,,,,
,,,,,,,,,,,,,,,88839,001,2022-04-18_16h25.40.433,SPAMnetsValid,2021.1.4,MacIntel,60.0024001,,,,,,,,,,,,,,,,,,,,,,,,,,,,,,,,,,,,,,2,0.345,0,20,20,20,1,calumnious,complimentary,analogous,slanderous,tempestuous,magnanimous,3,,,,,,,,,,,,,,,,,,,,,,,,,,,,,,,,,,,,,,
,,,,,,,,,,,,,,,88839,001,2022-04-18_16h25.40.433,SPAMnetsValid,2021.1.4,MacIntel,60.0024001,,,,,,,,,,,,,,,,,,,,,,,,,,,,,,,,,,,,,,2,0.3658,0,21,21,21,1,illiberality,bigotry,imbecility,illegibility,cautery,immaturity,1,,,,,,,,,,,,,,,,,,,,,,,,,,,,,,,,,,,,,,
,,,,,,,,,,,,,,,88839,001,2022-04-18_16h25.40.433,SPAMnetsValid,2021.1.4,MacIntel,60.0024001,,,,,,,,,,,,,,,,,,,,,,,,,,,,,,,,,,,,,,2,0.5468,0,22,22,22,1,clabber,rejoice,gossip,curdle,crow,hobble,3,,,,,,,,,,,,,,,,,,,,,,,,,,,,,,,,,,,,,,
,,,,,,,,,,,,,,,88839,001,2022-04-18_16h25.40.433,SPAMnetsValid,2021.1.4,MacIntel,60.0024001,,,,,,,,,,,,,,,,,,,,,,,,,,,,,,,,,,,,,,2,0.3491,0,23,23,23,1,sedulousness,diligence,credulousness,seduction,perilousness,frankness,1,,,,,,,,,,,,,,,,,,,,,,,,,,,,,,,,,,,,,,
,,,,,,,,,,,,,,,88839,001,2022-04-18_16h25.40.433,SPAMnetsValid,2021.1.4,MacIntel,60.0024001,,,,,,,,,,,,,,,,,,,,,,,,,,,,,,,,,,,,,,,,,,,,,,,,,,,,cake,candle,0,0,0,0,1,,,,,,,,,,,,,,,,,,,,,,,,,,,,,,,
,,,,,,,,,,,,,,,88839,001,2022-04-18_16h25.40.433,SPAMnetsValid,2021.1.4,MacIntel,60.0024001,,,,,,,,,,,,,,,,,,,,,,,,,,,,,,,,,,,,,,,,,,,,,,,,,,,,smoke,candle,1,0,1,0,1,,,,,,,,,,,,,,,,,,,,,,,,,,,,,,,
,,,,,,,,,,,,,,,88839,001,2022-04-18_16h25.40.433,SPAMnetsValid,2021.1.4,MacIntel,60.0024001,,,,,,,,,,,,,,,,,,,,,,,,,,,,,,,,,,,,,,,,,,,,,,,,,,,,light,candle,2,0,2,0,1,,,,,,,,,,,,,,,,,,,,,,,,,,,,,,,
,,,,,,,,,,,,,,,88839,001,2022-04-18_16h25.40.433,SPAMnetsValid,2021.1.4,MacIntel,60.0024001,,,,,,,,,,,,,,,,,,,,,,,,,,,,,,,,,,,,,,,,,,,,,,,,,,,,smell,candle,3,0,3,0,1,,,,,,,,,,,,,,,,,,,,,,,,,,,,,,,
,,,,,,,,,,,,,,,88839,001,2022-04-18_16h25.40.433,SPAMnetsValid,2021.1.4,MacIntel,60.0024001,,,,,,,,,,,,,,,,,,,,,,,,,,,,,,,,,,,,,,,,,,,,,,,,,,,,warmth,candle,4,0,4,0,1,,,,,,,,,,,,,,,,,,,,,,,,,,,,,,,
,,,,,,,,,,,,,,,88839,001,2022-04-18_16h25.40.433,SPAMnetsValid,2021.1.4,MacIntel,60.0024001,,,,,,,,,,,,,,,,,,,,,,,,,,,,,,,,,,,,,,,,,,,,,,,,,,,,eating,candle,5,0,5,0,1,,,,,,,,,,,,,,,,,,,,,,,,,,,,,,,
,,,,,,,,,,,,,,,88839,001,2022-04-18_16h25.40.433,SPAMnetsValid,2021.1.4,MacIntel,60.0024001,,,,,,,,,,,,,,,,,,,,,,,,,,,,,,,,,,,,,,,,,,,,,,,,,,,,cook,candle,6,0,6,0,1,,,,,,,,,,,,,,,,,,,,,,,,,,,,,,,
,,,,,,,,,,,,,,,88839,001,2022-04-18_16h25.40.433,SPAMnetsValid,2021.1.4,MacIntel,60.0024001,,,,,,,,,,,,,,,,,,,,,,,,,,,,,,,,,,,,,,,,,,,,,,,,,,,,heat,candle,7,0,7,0,1,,,,,,,,,,,,,,,,,,,,,,,,,,,,,,,
,,,,,,,,,,,,,,,88839,001,2022-04-18_16h25.40.433,SPAMnetsValid,2021.1.4,MacIntel,60.0024001,,,,,,,,,,,,,,,,,,,,,,,,,,,,,,,,,,,,,,,,,,,,,,,,,,,,smells,candle,8,0,8,0,1,,,,,,,,,,,,,,,,,,,,,,,,,,,,,,,
,,,,,,,,,,,,,,,88839,001,2022-04-18_16h25.40.433,SPAMnetsValid,2021.1.4,MacIntel,60.0024001,,,,,,,,,,,,,,,,,,,,,,,,,,,,,,,,,,,,,,,,,,,,,,,,,,,,celebrate,candle,9,0,9,0,1,,,,,,,,,,,,,,,,,,,,,,,,,,,,,,,
,,,,,,,,,,,,,,,88839,001,2022-04-18_16h25.40.433,SPAMnetsValid,2021.1.4,MacIntel,60.0024001,,,,,,,,,,,,,,,,,,,,,,,,,,,,,,,,,,,,,,,,,,,,,,,,,,,,romanc,candle,10,0,10,0,1,,,,,,,,,,,,,,,,,,,,,,,,,,,,,,,
,,,,,,,,,,,,,,,88839,001,2022-04-18_16h25.40.433,SPAMnetsValid,2021.1.4,MacIntel,60.0024001,,,,,,,,,,,,,,,,,,,,,,,,,,,,,,,,,,,,,,,,,,,,,,,,,,,,vibes,candle,11,0,11,0,1,,,,,,,,,,,,,,,,,,,,,,,,,,,,,,,
,,,,,,,,,,,,,,,88839,001,2022-04-18_16h25.40.433,SPAMnetsValid,2021.1.4,MacIntel,60.0024001,,,,,,,,,,,,,,,,,,,,,,,,,,,,,,,,,,,,,,,,,,,,,,,,,,,,omniance,candle,12,0,12,0,1,,,,,,,,,,,,,,,,,,,,,,,,,,,,,,,
,,,,,,,,,,,,,,,88839,001,2022-04-18_16h25.40.433,SPAMnetsValid,2021.1.4,MacIntel,60.0024001,,,,,,,,,,,,,,,,,,,,,,,,,,,,,,,,,,,,,,,,,,,,,,,,,,,,,,,,,,,0,0,0,1,1,candle,,,,,,,,,,,,,,,,,,,,,,,,,
,,,,,,,,,,,,,,,88839,001,2022-04-18_16h25.40.433,SPAMnetsValid,2021.1.4,MacIntel,60.0024001,,,,,,,,,,,,,,,,,,,,,,,,,,,,,,,,,,,,,,,,,,,,,,,,,,,,water,bucket,0,0,0,0,1,,,,,,,,,,,,,,,,,,,,,,,,,,,,,,,
,,,,,,,,,,,,,,,88839,001,2022-04-18_16h25.40.433,SPAMnetsValid,2021.1.4,MacIntel,60.0024001,,,,,,,,,,,,,,,,,,,,,,,,,,,,,,,,,,,,,,,,,,,,,,,,,,,,gather,bucket,1,0,1,0,1,,,,,,,,,,,,,,,,,,,,,,,,,,,,,,,
,,,,,,,,,,,,,,,88839,001,2022-04-18_16h25.40.433,SPAMnetsValid,2021.1.4,MacIntel,60.0024001,,,,,,,,,,,,,,,,,,,,,,,,,,,,,,,,,,,,,,,,,,,,,,,,,,,,eat,bucket,2,0,2,0,1,,,,,,,,,,,,,,,,,,,,,,,,,,,,,,,
,,,,,,,,,,,,,,,88839,001,2022-04-18_16h25.40.433,SPAMnetsValid,2021.1.4,MacIntel,60.0024001,,,,,,,,,,,,,,,,,,,,,,,,,,,,,,,,,,,,,,,,,,,,,,,,,,,,weaving,bucket,3,0,3,0,1,,,,,,,,,,,,,,,,,,,,,,,,,,,,,,,
,,,,,,,,,,,,,,,88839,001,2022-04-18_16h25.40.433,SPAMnetsValid,2021.1.4,MacIntel,60.0024001,,,,,,,,,,,,,,,,,,,,,,,,,,,,,,,,,,,,,,,,,,,,,,,,,,,,beauty,bucket,4,0,4,0,1,,,,,,,,,,,,,,,,,,,,,,,,,,,,,,,
,,,,,,,,,,,,,,,88839,001,2022-04-18_16h25.40.433,SPAMnetsValid,2021.1.4,MacIntel,60.0024001,,,,,,,,,,,,,,,,,,,,,,,,,,,,,,,,,,,,,,,,,,,,,,,,,,,,style,bucket,5,0,5,0,1,,,,,,,,,,,,,,,,,,,,,,,,,,,,,,,
,,,,,,,,,,,,,,,88839,001,2022-04-18_16h25.40.433,SPAMnetsValid,2021.1.4,MacIntel,60.0024001,,,,,,,,,,,,,,,,,,,,,,,,,,,,,,,,,,,,,,,,,,,,,,,,,,,,,,,,,,,0,1,1,0,1,bucket,,,,,,,,,,,,,,,,,,,,,,,,,
,,,,,,,,,,,,,,,88839,001,2022-04-18_16h25.40.433,SPAMnetsValid,2021.1.4,MacIntel,60.0024001,,,,,,,,,,,,,,,,,,,,,,,,,,,,,,,,,,,,,,,,,,,,,,,,,,,,sleep ,pillow,0,0,0,0,1,,,,,,,,,,,,,,,,,,,,,,,,,,,,,,,
,,,,,,,,,,,,,,,88839,001,2022-04-18_16h25.40.433,SPAMnetsValid,2021.1.4,MacIntel,60.0024001,,,,,,,,,,,,,,,,,,,,,,,,,,,,,,,,,,,,,,,,,,,,,,,,,,,,fight,pillow,1,0,1,0,1,,,,,,,,,,,,,,,,,,,,,,,,,,,,,,,
,,,,,,,,,,,,,,,88839,001,2022-04-18_16h25.40.433,SPAMnetsValid,2021.1.4,MacIntel,60.0024001,,,,,,,,,,,,,,,,,,,,,,,,,,,,,,,,,,,,,,,,,,,,,,,,,,,,comfort ,pillow,2,0,2,0,1,,,,,,,,,,,,,,,,,,,,,,,,,,,,,,,
,,,,,,,,,,,,,,,88839,001,2022-04-18_16h25.40.433,SPAMnetsValid,2021.1.4,MacIntel,60.0024001,,,,,,,,,,,,,,,,,,,,,,,,,,,,,,,,,,,,,,,,,,,,,,,,,,,,style,pillow,3,0,3,0,1,,,,,,,,,,,,,,,,,,,,,,,,,,,,,,,
,,,,,,,,,,,,,,,88839,001,2022-04-18_16h25.40.433,SPAMnetsValid,2021.1.4,MacIntel,60.0024001,,,,,,,,,,,,,,,,,,,,,,,,,,,,,,,,,,,,,,,,,,,,,,,,,,,,decor ,pillow,4,0,4,0,1,,,,,,,,,,,,,,,,,,,,,,,,,,,,,,,
,,,,,,,,,,,,,,,88839,001,2022-04-18_16h25.40.433,SPAMnetsValid,2021.1.4,MacIntel,60.0024001,,,,,,,,,,,,,,,,,,,,,,,,,,,,,,,,,,,,,,,,,,,,,,,,,,,,,,,,,,,0,2,2,2,1,pillow,,,,,,,,,,,,,,,,,,,,,,,,,
,,,,,,,,,,,,,,,88839,001,2022-04-18_16h25.40.433,SPAMnetsValid,2021.1.4,MacIntel,60.0024001,,,,,,,,,,,,,,,,,,,,,,,,,,,,,,,,,,,,,,,,,,,,,,,,,,,,,,,,,,,,,,,,,,Animals,0,0,0,0,1,,,,,,,,,,,,,,,,,,
,,,,,,,,,,,,,,,88839,001,2022-04-18_16h25.40.433,SPAMnetsValid,2021.1.4,MacIntel,60.0024001,,,,,,,,,,,,,,,,,,,,,,,,,,,,,,,,,,,,,,,,,,,,,,,,,,,,,,,,,,,,,,,,,animals,Animals,1,0,1,0,1,,,,,,,,,,,,,,,,,,
,,,,,,,,,,,,,,,88839,001,2022-04-18_16h25.40.433,SPAMnetsValid,2021.1.4,MacIntel,60.0024001,,,,,,,,,,,,,,,,,,,,,,,,,,,,,,,,,,,,,,,,,,,,,,,,,,,,,,,,,,,,,,,,,,Animals,2,0,2,0,1,,,,,,,,,,,,,,,,,,
,,,,,,,,,,,,,,,88839,001,2022-04-18_16h25.40.433,SPAMnetsValid,2021.1.4,MacIntel,60.0024001,,,,,,,,,,,,,,,,,,,,,,,,,,,,,,,,,,,,,,,,,,,,,,,,,,,,,,,,,,,,,,,,,love,Animals,3,0,3,0,1,,,,,,,,,,,,,,,,,,
,,,,,,,,,,,,,,,88839,001,2022-04-18_16h25.40.433,SPAMnetsValid,2021.1.4,MacIntel,60.0024001,,,,,,,,,,,,,,,,,,,,,,,,,,,,,,,,,,,,,,,,,,,,,,,,,,,,,,,,,,,,,,,,,cute ,Animals,4,0,4,0,1,,,,,,,,,,,,,,,,,,
,,,,,,,,,,,,,,,88839,001,2022-04-18_16h25.40.433,SPAMnetsValid,2021.1.4,MacIntel,60.0024001,,,,,,,,,,,,,,,,,,,,,,,,,,,,,,,,,,,,,,,,,,,,,,,,,,,,,,,,,,,,,,,,,fluffy,Animals,5,0,5,0,1,,,,,,,,,,,,,,,,,,
,,,,,,,,,,,,,,,88839,001,2022-04-18_16h25.40.433,SPAMnetsValid,2021.1.4,MacIntel,60.0024001,,,,,,,,,,,,,,,,,,,,,,,,,,,,,,,,,,,,,,,,,,,,,,,,,,,,,,,,,,,,,,,,,,,,,,,,0,0,0,0,1,Animals,,,,,,,,,,,,
,,,,,,,,,,,,,,,88839,001,2022-04-18_16h25.40.433,SPAMnetsValid,2021.1.4,MacIntel,60.0024001,,,,,,,,,,,,,,,,,,,,,,,,,,,,,,,,,,,,,,,,,,,,,,,,,,,,,,,,,,,,,,,,,,,,,,,,,,,,,,2,3.8895,0,0,0,0,1,"I enjoy concentrating on a fantasy or daydream and exploring all its possibilities, letting it grow and develop.",0,1,,
,,,,,,,,,,,,,,,88839,001,2022-04-18_16h25.40.433,SPAMnetsValid,2021.1.4,MacIntel,60.0024001,,,,,,,,,,,,,,,,,,,,,,,,,,,,,,,,,,,,,,,,,,,,,,,,,,,,,,,,,,,,,,,,,,,,,,,,,,,,,,5,2.7718,0,1,1,1,1,I think it's interesting to learn and develop new hobbies.,0,2,,
,,,,,,,,,,,,,,,88839,001,2022-04-18_16h25.40.433,SPAMnetsValid,2021.1.4,MacIntel,60.0024001,,,,,,,,,,,,,,,,,,,,,,,,,,,,,,,,,,,,,,,,,,,,,,,,,,,,,,,,,,,,,,,,,,,,,,,,,,,,,,5,0.5569,0,2,2,2,1,I am intrigued by the patterns I find in art and nature.,0,3,,
,,,,,,,,,,,,,,,88839,001,2022-04-18_16h25.40.433,SPAMnetsValid,2021.1.4,MacIntel,60.0024001,,,,,,,,,,,,,,,,,,,,,,,,,,,,,,,,,,,,,,,,,,,,,,,,,,,,,,,,,,,,,,,,,,,,,,,,,,,,,,4,0.663,0,3,3,3,1,I believe letting students hear controversial speakers can only confuse and mislead them.,1,4,,
,,,,,,,,,,,,,,,88839,001,2022-04-18_16h25.40.433,SPAMnetsValid,2021.1.4,MacIntel,60.0024001,,,,,,,,,,,,,,,,,,,,,,,,,,,,,,,,,,,,,,,,,,,,,,,,,,,,,,,,,,,,,,,,,,,,,,,,,,,,,,5,0.8159,0,4,4,4,1,Poetry has little or no effect on me.,1,5,,
,,,,,,,,,,,,,,,88839,001,2022-04-18_16h25.40.433,SPAMnetsValid,2021.1.4,MacIntel,60.0024001,,,,,,,,,,,,,,,,,,,,,,,,,,,,,,,,,,,,,,,,,,,,,,,,,,,,,,,,,,,,,,,,,,,,,,,,,,,,,,4,0.5808,0,5,5,5,1,I would have difficulty just letting my mind wander without control or guidance.,1,6,,
,,,,,,,,,,,,,,,88839,001,2022-04-18_16h25.40.433,SPAMnetsValid,2021.1.4,MacIntel,60.0024001,,,,,,,,,,,,,,,,,,,,,,,,,,,,,,,,,,,,,,,,,,,,,,,,,,,,,,,,,,,,,,,,,,,,,,,,,,,,,,4,0.49,0,6,6,6,1,I seldom notice the moods or feelings that different environments produce.,1,7,,
,,,,,,,,,,,,,,,88839,001,2022-04-18_16h25.40.433,SPAMnetsValid,2021.1.4,MacIntel,60.0024001,,,,,,,,,,,,,,,,,,,,,,,,,,,,,,,,,,,,,,,,,,,,,,,,,,,,,,,,,,,,,,,,,,,,,,,,,,,,,,4,0.9078,0,7,7,7,1,I experience a wide range of emotions or feelings.,0,8,,
,,,,,,,,,,,,,,,88839,001,2022-04-18_16h25.40.433,SPAMnetsValid,2021.1.4,MacIntel,60.0024001,,,,,,,,,,,,,,,,,,,,,,,,,,,,,,,,,,,,,,,,,,,,,,,,,,,,,,,,,,,,,,,,,,,,,,,,,,,,,,4,0.475,0,8,8,8,1,"Sometimes when I am reading poetry or looking at a work of art, I feel a chill or wave of excitement.",0,9,,
,,,,,,,,,,,,,,,88839,001,2022-04-18_16h25.40.433,SPAMnetsValid,2021.1.4,MacIntel,60.0024001,,,,,,,,,,,,,,,,,,,,,,,,,,,,,,,,,,,,,,,,,,,,,,,,,,,,,,,,,,,,,,,,,,,,,,,,,,,,,,4,0.573,0,9,9,9,1,I have little interest in speculating on the nature of the universe or the human condition.,1,10,,
,,,,,,,,,,,,,,,88839,001,2022-04-18_16h25.40.433,SPAMnetsValid,2021.1.4,MacIntel,60.0024001,,,,,,,,,,,,,,,,,,,,,,,,,,,,,,,,,,,,,,,,,,,,,,,,,,,,,,,,,,,,,,,,,,,,,,,,,,,,,,4,0.3926,0,10,10,10,1,I have a lot of intellectual curiosity.,0,11,,
,,,,,,,,,,,,,,,88839,001,2022-04-18_16h25.40.433,SPAMnetsValid,2021.1.4,MacIntel,60.0024001,,,,,,,,,,,,,,,,,,,,,,,,,,,,,,,,,,,,,,,,,,,,,,,,,,,,,,,,,,,,,,,,,,,,,,,,,,,,,,4,0.3832,0,11,11,11,1,I often enjoy playing with theories or abstract ideas.,0,12,,
,,,,,,,,,,,,,,,88839,001,2022-04-18_16h25.40.433,SPAMnetsValid,2021.1.4,MacIntel,60.0024001,,,,,,,,,,,,,,,,,,,,,,,,,,,,,,,,,,,,,,,,,,,,,,,,,,,,,,,,,,,,,,,,,,,,,,,,,,,,,,,,,,,,,,,,return,7.6833
