key_resp_3.keys,key_resp_3.rt,slider_2.response,slider_2.rt,rjt_rating,rjt_RT,trials_24.thisRepN,trials_24.thisTrialN,trials_24.thisN,trials_24.thisIndex,trials_24.ran,rjt_order,word1,word2,attention,participant,session,date,expName,psychopyVersion,OS,frameRate,trials_4.thisRepN,trials_4.thisTrialN,trials_4.thisN,trials_4.thisIndex,trials_4.ran,trials_5.thisRepN,trials_5.thisTrialN,trials_5.thisN,trials_5.thisIndex,trials_5.ran,repOne,repTwo,slider.response,slider.rt,trials_22.thisRepN,trials_22.thisTrialN,trials_22.thisN,trials_22.thisIndex,trials_22.ran,trials_99.thisRepN,trials_99.thisTrialN,trials_99.thisN,trials_99.thisIndex,trials_99.ran,slider_extend_2.response,slider_extend_2.rt,trials_6.thisRepN,trials_6.thisTrialN,trials_6.thisN,trials_6.thisIndex,trials_6.ran,vCue2,R1,R2,R3,R4,correct,sliderVocab.response,sliderVocab.rt,trials_7.thisRepN,trials_7.thisTrialN,trials_7.thisN,trials_7.thisIndex,trials_7.ran,VocabCue,VR1,VR2,VR3,VR4,VR5,VocabCorrect,AUT_resp,AUT_label,trials.thisRepN,trials.thisTrialN,trials.thisN,trials.thisIndex,trials.ran,trials_2.thisRepN,trials_2.thisTrialN,trials_2.thisN,trials_2.thisIndex,trials_2.ran,aut_prompt,VF_response,VF_tag,trials_16.thisRepN,trials_16.thisTrialN,trials_16.thisN,trials_16.thisIndex,trials_16.ran,trials_17.thisRepN,trials_17.thisTrialN,trials_17.thisN,trials_17.thisIndex,trials_17.ran,VFcond,open_slider.response,open_slider.rt,trials_3.thisRepN,trials_3.thisTrialN,trials_3.thisN,trials_3.thisIndex,trials_3.ran,OpenQ,Rev,OPEN_ORDER,key_resp_2.keys,key_resp_2.rt
return,0.0333,6,5.1504,6,5.1504,0,0,0,25,1,194,cactus,cactus,CHECK,88876,001,2022-04-25_20h18.18.409,SPAMnetsValid,2021.1.4,MacIntel,60.0024001,,,,,,,,,,,,,,,,,,,,,,,,,,,,,,,,,,,,,,,,,,,,,,,,,,,,,,,,,,,,,,,,,,,,,,,,,,,,,,,,,,,,,,,,,
,,6,1.772,6,1.772,0,1,1,8,1,97,chocolate,kitchen,,88876,001,2022-04-25_20h18.18.409,SPAMnetsValid,2021.1.4,MacIntel,60.0024001,,,,,,,,,,,,,,,,,,,,,,,,,,,,,,,,,,,,,,,,,,,,,,,,,,,,,,,,,,,,,,,,,,,,,,,,,,,,,,,,,,,,,,,,,
,,6,0.8405,6,0.8405,0,2,2,66,1,150,microwave,refrigerator,,88876,001,2022-04-25_20h18.18.409,SPAMnetsValid,2021.1.4,MacIntel,60.0024001,,,,,,,,,,,,,,,,,,,,,,,,,,,,,,,,,,,,,,,,,,,,,,,,,,,,,,,,,,,,,,,,,,,,,,,,,,,,,,,,,,,,,,,,,
,,6,0.6654,6,0.6654,0,3,3,29,1,163,melon,refrigerator,,88876,001,2022-04-25_20h18.18.409,SPAMnetsValid,2021.1.4,MacIntel,60.0024001,,,,,,,,,,,,,,,,,,,,,,,,,,,,,,,,,,,,,,,,,,,,,,,,,,,,,,,,,,,,,,,,,,,,,,,,,,,,,,,,,,,,,,,,,
,,6,0.5166,6,0.5166,0,4,4,84,1,130,microwave,yogurt,,88876,001,2022-04-25_20h18.18.409,SPAMnetsValid,2021.1.4,MacIntel,60.0024001,,,,,,,,,,,,,,,,,,,,,,,,,,,,,,,,,,,,,,,,,,,,,,,,,,,,,,,,,,,,,,,,,,,,,,,,,,,,,,,,,,,,,,,,,
,,6,0.6407,6,0.6407,0,5,5,90,1,190,microwave,strawberry,,88876,001,2022-04-25_20h18.18.409,SPAMnetsValid,2021.1.4,MacIntel,60.0024001,,,,,,,,,,,,,,,,,,,,,,,,,,,,,,,,,,,,,,,,,,,,,,,,,,,,,,,,,,,,,,,,,,,,,,,,,,,,,,,,,,,,,,,,,
,,7,3.1594,7,3.1594,0,6,6,1,1,173,kitchen,tomato,,88876,001,2022-04-25_20h18.18.409,SPAMnetsValid,2021.1.4,MacIntel,60.0024001,,,,,,,,,,,,,,,,,,,,,,,,,,,,,,,,,,,,,,,,,,,,,,,,,,,,,,,,,,,,,,,,,,,,,,,,,,,,,,,,,,,,,,,,,
,,7,0.7832,7,0.7832,0,7,7,33,1,131,cactus,garden,,88876,001,2022-04-25_20h18.18.409,SPAMnetsValid,2021.1.4,MacIntel,60.0024001,,,,,,,,,,,,,,,,,,,,,,,,,,,,,,,,,,,,,,,,,,,,,,,,,,,,,,,,,,,,,,,,,,,,,,,,,,,,,,,,,,,,,,,,,
,,6,0.5663,6,0.5663,0,8,8,43,1,185,cactus,rose,,88876,001,2022-04-25_20h18.18.409,SPAMnetsValid,2021.1.4,MacIntel,60.0024001,,,,,,,,,,,,,,,,,,,,,,,,,,,,,,,,,,,,,,,,,,,,,,,,,,,,,,,,,,,,,,,,,,,,,,,,,,,,,,,,,,,,,,,,,
,,7,0.4255,7,0.4255,0,9,9,71,1,187,cactus,microwave,,88876,001,2022-04-25_20h18.18.409,SPAMnetsValid,2021.1.4,MacIntel,60.0024001,,,,,,,,,,,,,,,,,,,,,,,,,,,,,,,,,,,,,,,,,,,,,,,,,,,,,,,,,,,,,,,,,,,,,,,,,,,,,,,,,,,,,,,,,
,,7,0.495,7,0.495,0,10,10,76,1,102,chocolate,refrigerator,,88876,001,2022-04-25_20h18.18.409,SPAMnetsValid,2021.1.4,MacIntel,60.0024001,,,,,,,,,,,,,,,,,,,,,,,,,,,,,,,,,,,,,,,,,,,,,,,,,,,,,,,,,,,,,,,,,,,,,,,,,,,,,,,,,,,,,,,,,
,,7,0.6125,7,0.6125,0,11,11,10,1,118,chocolate,oven,,88876,001,2022-04-25_20h18.18.409,SPAMnetsValid,2021.1.4,MacIntel,60.0024001,,,,,,,,,,,,,,,,,,,,,,,,,,,,,,,,,,,,,,,,,,,,,,,,,,,,,,,,,,,,,,,,,,,,,,,,,,,,,,,,,,,,,,,,,
,,7,0.6317,7,0.6317,0,12,12,50,1,126,kitchen,tree,,88876,001,2022-04-25_20h18.18.409,SPAMnetsValid,2021.1.4,MacIntel,60.0024001,,,,,,,,,,,,,,,,,,,,,,,,,,,,,,,,,,,,,,,,,,,,,,,,,,,,,,,,,,,,,,,,,,,,,,,,,,,,,,,,,,,,,,,,,
,,7,0.5985,7,0.5985,0,13,13,77,1,172,kitchen,melon,,88876,001,2022-04-25_20h18.18.409,SPAMnetsValid,2021.1.4,MacIntel,60.0024001,,,,,,,,,,,,,,,,,,,,,,,,,,,,,,,,,,,,,,,,,,,,,,,,,,,,,,,,,,,,,,,,,,,,,,,,,,,,,,,,,,,,,,,,,
,,7,0.3237,7,0.3237,0,14,14,81,1,104,garden,microwave,,88876,001,2022-04-25_20h18.18.409,SPAMnetsValid,2021.1.4,MacIntel,60.0024001,,,,,,,,,,,,,,,,,,,,,,,,,,,,,,,,,,,,,,,,,,,,,,,,,,,,,,,,,,,,,,,,,,,,,,,,,,,,,,,,,,,,,,,,,
,,7,0.2833,7,0.2833,0,15,15,64,1,157,refrigerator,rose,,88876,001,2022-04-25_20h18.18.409,SPAMnetsValid,2021.1.4,MacIntel,60.0024001,,,,,,,,,,,,,,,,,,,,,,,,,,,,,,,,,,,,,,,,,,,,,,,,,,,,,,,,,,,,,,,,,,,,,,,,,,,,,,,,,,,,,,,,,
,,7,0.3085,7,0.3085,0,16,16,74,1,128,melon,microwave,,88876,001,2022-04-25_20h18.18.409,SPAMnetsValid,2021.1.4,MacIntel,60.0024001,,,,,,,,,,,,,,,,,,,,,,,,,,,,,,,,,,,,,,,,,,,,,,,,,,,,,,,,,,,,,,,,,,,,,,,,,,,,,,,,,,,,,,,,,
,,7,0.3082,7,0.3082,0,17,17,26,1,107,rose,tomato,,88876,001,2022-04-25_20h18.18.409,SPAMnetsValid,2021.1.4,MacIntel,60.0024001,,,,,,,,,,,,,,,,,,,,,,,,,,,,,,,,,,,,,,,,,,,,,,,,,,,,,,,,,,,,,,,,,,,,,,,,,,,,,,,,,,,,,,,,,
,,7,0.2788,7,0.2788,0,18,18,12,1,162,microwave,tomato,,88876,001,2022-04-25_20h18.18.409,SPAMnetsValid,2021.1.4,MacIntel,60.0024001,,,,,,,,,,,,,,,,,,,,,,,,,,,,,,,,,,,,,,,,,,,,,,,,,,,,,,,,,,,,,,,,,,,,,,,,,,,,,,,,,,,,,,,,,
,,7,0.2649,7,0.2649,0,19,19,92,1,170,cookie,microwave,,88876,001,2022-04-25_20h18.18.409,SPAMnetsValid,2021.1.4,MacIntel,60.0024001,,,,,,,,,,,,,,,,,,,,,,,,,,,,,,,,,,,,,,,,,,,,,,,,,,,,,,,,,,,,,,,,,,,,,,,,,,,,,,,,,,,,,,,,,
,,7,0.2783,7,0.2783,0,20,20,49,1,152,cactus,strawberry,,88876,001,2022-04-25_20h18.18.409,SPAMnetsValid,2021.1.4,MacIntel,60.0024001,,,,,,,,,,,,,,,,,,,,,,,,,,,,,,,,,,,,,,,,,,,,,,,,,,,,,,,,,,,,,,,,,,,,,,,,,,,,,,,,,,,,,,,,,
,,7,0.2819,7,0.2819,0,21,21,19,1,183,cake,rose,,88876,001,2022-04-25_20h18.18.409,SPAMnetsValid,2021.1.4,MacIntel,60.0024001,,,,,,,,,,,,,,,,,,,,,,,,,,,,,,,,,,,,,,,,,,,,,,,,,,,,,,,,,,,,,,,,,,,,,,,,,,,,,,,,,,,,,,,,,
,,7,0.3067,7,0.3067,0,22,22,31,1,156,melon,rose,,88876,001,2022-04-25_20h18.18.409,SPAMnetsValid,2021.1.4,MacIntel,60.0024001,,,,,,,,,,,,,,,,,,,,,,,,,,,,,,,,,,,,,,,,,,,,,,,,,,,,,,,,,,,,,,,,,,,,,,,,,,,,,,,,,,,,,,,,,
,,7,0.2817,7,0.2817,0,23,23,57,1,127,cactus,chocolate,,88876,001,2022-04-25_20h18.18.409,SPAMnetsValid,2021.1.4,MacIntel,60.0024001,,,,,,,,,,,,,,,,,,,,,,,,,,,,,,,,,,,,,,,,,,,,,,,,,,,,,,,,,,,,,,,,,,,,,,,,,,,,,,,,,,,,,,,,,
,,7,0.256,7,0.256,0,24,24,75,1,178,cactus,carrot,,88876,001,2022-04-25_20h18.18.409,SPAMnetsValid,2021.1.4,MacIntel,60.0024001,,,,,,,,,,,,,,,,,,,,,,,,,,,,,,,,,,,,,,,,,,,,,,,,,,,,,,,,,,,,,,,,,,,,,,,,,,,,,,,,,,,,,,,,,
,,7,0.2736,7,0.2736,0,25,25,48,1,186,kitchen,yogurt,,88876,001,2022-04-25_20h18.18.409,SPAMnetsValid,2021.1.4,MacIntel,60.0024001,,,,,,,,,,,,,,,,,,,,,,,,,,,,,,,,,,,,,,,,,,,,,,,,,,,,,,,,,,,,,,,,,,,,,,,,,,,,,,,,,,,,,,,,,
,,8,0.5729,8,0.5729,0,26,26,7,1,188,flower,tree,,88876,001,2022-04-25_20h18.18.409,SPAMnetsValid,2021.1.4,MacIntel,60.0024001,,,,,,,,,,,,,,,,,,,,,,,,,,,,,,,,,,,,,,,,,,,,,,,,,,,,,,,,,,,,,,,,,,,,,,,,,,,,,,,,,,,,,,,,,
,,8,0.5774,8,0.5774,0,27,27,27,1,158,cookie,oven,,88876,001,2022-04-25_20h18.18.409,SPAMnetsValid,2021.1.4,MacIntel,60.0024001,,,,,,,,,,,,,,,,,,,,,,,,,,,,,,,,,,,,,,,,,,,,,,,,,,,,,,,,,,,,,,,,,,,,,,,,,,,,,,,,,,,,,,,,,
,,7,0.4417,7,0.4417,0,28,28,85,1,115,refrigerator,tomato,,88876,001,2022-04-25_20h18.18.409,SPAMnetsValid,2021.1.4,MacIntel,60.0024001,,,,,,,,,,,,,,,,,,,,,,,,,,,,,,,,,,,,,,,,,,,,,,,,,,,,,,,,,,,,,,,,,,,,,,,,,,,,,,,,,,,,,,,,,
,,2,0.2892,2,0.2892,0,29,29,28,1,154,strawberry,yogurt,,88876,001,2022-04-25_20h18.18.409,SPAMnetsValid,2021.1.4,MacIntel,60.0024001,,,,,,,,,,,,,,,,,,,,,,,,,,,,,,,,,,,,,,,,,,,,,,,,,,,,,,,,,,,,,,,,,,,,,,,,,,,,,,,,,,,,,,,,,
,,3,0.0762,3,0.0762,0,30,30,24,1,169,onion,yogurt,,88876,001,2022-04-25_20h18.18.409,SPAMnetsValid,2021.1.4,MacIntel,60.0024001,,,,,,,,,,,,,,,,,,,,,,,,,,,,,,,,,,,,,,,,,,,,,,,,,,,,,,,,,,,,,,,,,,,,,,,,,,,,,,,,,,,,,,,,,
,,5,0.1256,5,0.1256,0,31,31,87,1,114,cookie,strawberry,,88876,001,2022-04-25_20h18.18.409,SPAMnetsValid,2021.1.4,MacIntel,60.0024001,,,,,,,,,,,,,,,,,,,,,,,,,,,,,,,,,,,,,,,,,,,,,,,,,,,,,,,,,,,,,,,,,,,,,,,,,,,,,,,,,,,,,,,,,
,,5,0.1115,5,0.1115,0,32,32,46,1,123,cookie,tree,,88876,001,2022-04-25_20h18.18.409,SPAMnetsValid,2021.1.4,MacIntel,60.0024001,,,,,,,,,,,,,,,,,,,,,,,,,,,,,,,,,,,,,,,,,,,,,,,,,,,,,,,,,,,,,,,,,,,,,,,,,,,,,,,,,,,,,,,,,
,,6,0.2918,6,0.2918,0,33,33,91,1,166,cake,yogurt,,88876,001,2022-04-25_20h18.18.409,SPAMnetsValid,2021.1.4,MacIntel,60.0024001,,,,,,,,,,,,,,,,,,,,,,,,,,,,,,,,,,,,,,,,,,,,,,,,,,,,,,,,,,,,,,,,,,,,,,,,,,,,,,,,,,,,,,,,,
,,8,0.1239,8,0.1239,0,34,34,36,1,161,kitchen,pretzel,,88876,001,2022-04-25_20h18.18.409,SPAMnetsValid,2021.1.4,MacIntel,60.0024001,,,,,,,,,,,,,,,,,,,,,,,,,,,,,,,,,,,,,,,,,,,,,,,,,,,,,,,,,,,,,,,,,,,,,,,,,,,,,,,,,,,,,,,,,
,,3,0.1806,3,0.1806,0,35,35,44,1,116,cake,chocolate,,88876,001,2022-04-25_20h18.18.409,SPAMnetsValid,2021.1.4,MacIntel,60.0024001,,,,,,,,,,,,,,,,,,,,,,,,,,,,,,,,,,,,,,,,,,,,,,,,,,,,,,,,,,,,,,,,,,,,,,,,,,,,,,,,,,,,,,,,,
,,6,0.3063,6,0.3063,0,36,36,93,1,134,carrot,flower,,88876,001,2022-04-25_20h18.18.409,SPAMnetsValid,2021.1.4,MacIntel,60.0024001,,,,,,,,,,,,,,,,,,,,,,,,,,,,,,,,,,,,,,,,,,,,,,,,,,,,,,,,,,,,,,,,,,,,,,,,,,,,,,,,,,,,,,,,,
,,7,0.0487,7,0.0487,0,37,37,82,1,98,pretzel,strawberry,,88876,001,2022-04-25_20h18.18.409,SPAMnetsValid,2021.1.4,MacIntel,60.0024001,,,,,,,,,,,,,,,,,,,,,,,,,,,,,,,,,,,,,,,,,,,,,,,,,,,,,,,,,,,,,,,,,,,,,,,,,,,,,,,,,,,,,,,,,
,,5,0.3336,5,0.3336,0,38,38,63,1,137,microwave,tree,,88876,001,2022-04-25_20h18.18.409,SPAMnetsValid,2021.1.4,MacIntel,60.0024001,,,,,,,,,,,,,,,,,,,,,,,,,,,,,,,,,,,,,,,,,,,,,,,,,,,,,,,,,,,,,,,,,,,,,,,,,,,,,,,,,,,,,,,,,
,,5,0.1067,5,0.1067,0,39,39,72,1,181,carrot,kitchen,,88876,001,2022-04-25_20h18.18.409,SPAMnetsValid,2021.1.4,MacIntel,60.0024001,,,,,,,,,,,,,,,,,,,,,,,,,,,,,,,,,,,,,,,,,,,,,,,,,,,,,,,,,,,,,,,,,,,,,,,,,,,,,,,,,,,,,,,,,
,,8,0.1281,8,0.1281,0,40,40,21,1,159,cookie,flower,,88876,001,2022-04-25_20h18.18.409,SPAMnetsValid,2021.1.4,MacIntel,60.0024001,,,,,,,,,,,,,,,,,,,,,,,,,,,,,,,,,,,,,,,,,,,,,,,,,,,,,,,,,,,,,,,,,,,,,,,,,,,,,,,,,,,,,,,,,
,,8,0.1596,8,0.1596,0,41,41,20,1,149,broom,tomato,,88876,001,2022-04-25_20h18.18.409,SPAMnetsValid,2021.1.4,MacIntel,60.0024001,,,,,,,,,,,,,,,,,,,,,,,,,,,,,,,,,,,,,,,,,,,,,,,,,,,,,,,,,,,,,,,,,,,,,,,,,,,,,,,,,,,,,,,,,
,,5,0.1739,5,0.1739,0,42,42,89,1,140,cookie,refrigerator,,88876,001,2022-04-25_20h18.18.409,SPAMnetsValid,2021.1.4,MacIntel,60.0024001,,,,,,,,,,,,,,,,,,,,,,,,,,,,,,,,,,,,,,,,,,,,,,,,,,,,,,,,,,,,,,,,,,,,,,,,,,,,,,,,,,,,,,,,,
,,5,0.1437,5,0.1437,0,43,43,11,1,117,melon,strawberry,,88876,001,2022-04-25_20h18.18.409,SPAMnetsValid,2021.1.4,MacIntel,60.0024001,,,,,,,,,,,,,,,,,,,,,,,,,,,,,,,,,,,,,,,,,,,,,,,,,,,,,,,,,,,,,,,,,,,,,,,,,,,,,,,,,,,,,,,,,
,,7,0.1239,7,0.1239,0,44,44,73,1,135,carrot,oven,,88876,001,2022-04-25_20h18.18.409,SPAMnetsValid,2021.1.4,MacIntel,60.0024001,,,,,,,,,,,,,,,,,,,,,,,,,,,,,,,,,,,,,,,,,,,,,,,,,,,,,,,,,,,,,,,,,,,,,,,,,,,,,,,,,,,,,,,,,
,,7,0.1094,7,0.1094,0,45,45,53,1,177,chocolate,strawberry,,88876,001,2022-04-25_20h18.18.409,SPAMnetsValid,2021.1.4,MacIntel,60.0024001,,,,,,,,,,,,,,,,,,,,,,,,,,,,,,,,,,,,,,,,,,,,,,,,,,,,,,,,,,,,,,,,,,,,,,,,,,,,,,,,,,,,,,,,,
,,7,0.4246,7,0.4246,0,46,46,32,1,182,flower,refrigerator,,88876,001,2022-04-25_20h18.18.409,SPAMnetsValid,2021.1.4,MacIntel,60.0024001,,,,,,,,,,,,,,,,,,,,,,,,,,,,,,,,,,,,,,,,,,,,,,,,,,,,,,,,,,,,,,,,,,,,,,,,,,,,,,,,,,,,,,,,,
,,7,0.2241,7,0.2241,0,47,47,5,1,108,carrot,chocolate,,88876,001,2022-04-25_20h18.18.409,SPAMnetsValid,2021.1.4,MacIntel,60.0024001,,,,,,,,,,,,,,,,,,,,,,,,,,,,,,,,,,,,,,,,,,,,,,,,,,,,,,,,,,,,,,,,,,,,,,,,,,,,,,,,,,,,,,,,,
,,7,0.2221,7,0.2221,0,48,48,95,1,121,broom,microwave,,88876,001,2022-04-25_20h18.18.409,SPAMnetsValid,2021.1.4,MacIntel,60.0024001,,,,,,,,,,,,,,,,,,,,,,,,,,,,,,,,,,,,,,,,,,,,,,,,,,,,,,,,,,,,,,,,,,,,,,,,,,,,,,,,,,,,,,,,,
,,7,0.5329,7,0.5329,0,49,49,51,1,168,cactus,flower,,88876,001,2022-04-25_20h18.18.409,SPAMnetsValid,2021.1.4,MacIntel,60.0024001,,,,,,,,,,,,,,,,,,,,,,,,,,,,,,,,,,,,,,,,,,,,,,,,,,,,,,,,,,,,,,,,,,,,,,,,,,,,,,,,,,,,,,,,,
,,7,0.4413,7,0.4413,0,50,50,55,1,143,pretzel,rose,,88876,001,2022-04-25_20h18.18.409,SPAMnetsValid,2021.1.4,MacIntel,60.0024001,,,,,,,,,,,,,,,,,,,,,,,,,,,,,,,,,,,,,,,,,,,,,,,,,,,,,,,,,,,,,,,,,,,,,,,,,,,,,,,,,,,,,,,,,
,,7,0.6332,7,0.6332,0,51,51,88,1,171,cake,tomato,,88876,001,2022-04-25_20h18.18.409,SPAMnetsValid,2021.1.4,MacIntel,60.0024001,,,,,,,,,,,,,,,,,,,,,,,,,,,,,,,,,,,,,,,,,,,,,,,,,,,,,,,,,,,,,,,,,,,,,,,,,,,,,,,,,,,,,,,,,
,,7,0.3741,7,0.3741,0,52,52,96,1,136,chocolate,microwave,,88876,001,2022-04-25_20h18.18.409,SPAMnetsValid,2021.1.4,MacIntel,60.0024001,,,,,,,,,,,,,,,,,,,,,,,,,,,,,,,,,,,,,,,,,,,,,,,,,,,,,,,,,,,,,,,,,,,,,,,,,,,,,,,,,,,,,,,,,
,,7,0.3294,7,0.3294,0,53,53,62,1,189,onion,tree,,88876,001,2022-04-25_20h18.18.409,SPAMnetsValid,2021.1.4,MacIntel,60.0024001,,,,,,,,,,,,,,,,,,,,,,,,,,,,,,,,,,,,,,,,,,,,,,,,,,,,,,,,,,,,,,,,,,,,,,,,,,,,,,,,,,,,,,,,,
,,7,0.3161,7,0.3161,0,54,54,94,1,133,cake,flower,,88876,001,2022-04-25_20h18.18.409,SPAMnetsValid,2021.1.4,MacIntel,60.0024001,,,,,,,,,,,,,,,,,,,,,,,,,,,,,,,,,,,,,,,,,,,,,,,,,,,,,,,,,,,,,,,,,,,,,,,,,,,,,,,,,,,,,,,,,
,,7,0.3478,7,0.3478,0,55,55,83,1,100,garden,tomato,,88876,001,2022-04-25_20h18.18.409,SPAMnetsValid,2021.1.4,MacIntel,60.0024001,,,,,,,,,,,,,,,,,,,,,,,,,,,,,,,,,,,,,,,,,,,,,,,,,,,,,,,,,,,,,,,,,,,,,,,,,,,,,,,,,,,,,,,,,
,,7,0.4066,7,0.4066,0,56,56,86,1,193,melon,melon,CHECK,88876,001,2022-04-25_20h18.18.409,SPAMnetsValid,2021.1.4,MacIntel,60.0024001,,,,,,,,,,,,,,,,,,,,,,,,,,,,,,,,,,,,,,,,,,,,,,,,,,,,,,,,,,,,,,,,,,,,,,,,,,,,,,,,,,,,,,,,,
,,7,0.3557,7,0.3557,0,57,57,58,1,144,cake,garden,,88876,001,2022-04-25_20h18.18.409,SPAMnetsValid,2021.1.4,MacIntel,60.0024001,,,,,,,,,,,,,,,,,,,,,,,,,,,,,,,,,,,,,,,,,,,,,,,,,,,,,,,,,,,,,,,,,,,,,,,,,,,,,,,,,,,,,,,,,
,,7,0.4072,7,0.4072,0,58,58,47,1,167,carrot,garden,,88876,001,2022-04-25_20h18.18.409,SPAMnetsValid,2021.1.4,MacIntel,60.0024001,,,,,,,,,,,,,,,,,,,,,,,,,,,,,,,,,,,,,,,,,,,,,,,,,,,,,,,,,,,,,,,,,,,,,,,,,,,,,,,,,,,,,,,,,
,,7,0.3799,7,0.3799,0,59,59,52,1,110,chocolate,cookie,,88876,001,2022-04-25_20h18.18.409,SPAMnetsValid,2021.1.4,MacIntel,60.0024001,,,,,,,,,,,,,,,,,,,,,,,,,,,,,,,,,,,,,,,,,,,,,,,,,,,,,,,,,,,,,,,,,,,,,,,,,,,,,,,,,,,,,,,,,
,,7,0.3949,7,0.3949,0,60,60,30,1,125,carrot,tree,,88876,001,2022-04-25_20h18.18.409,SPAMnetsValid,2021.1.4,MacIntel,60.0024001,,,,,,,,,,,,,,,,,,,,,,,,,,,,,,,,,,,,,,,,,,,,,,,,,,,,,,,,,,,,,,,,,,,,,,,,,,,,,,,,,,,,,,,,,
,,7,0.3484,7,0.3484,0,61,61,22,1,142,garden,tree,,88876,001,2022-04-25_20h18.18.409,SPAMnetsValid,2021.1.4,MacIntel,60.0024001,,,,,,,,,,,,,,,,,,,,,,,,,,,,,,,,,,,,,,,,,,,,,,,,,,,,,,,,,,,,,,,,,,,,,,,,,,,,,,,,,,,,,,,,,
,,7,0.3402,7,0.3402,0,62,62,16,1,111,carrot,microwave,,88876,001,2022-04-25_20h18.18.409,SPAMnetsValid,2021.1.4,MacIntel,60.0024001,,,,,,,,,,,,,,,,,,,,,,,,,,,,,,,,,,,,,,,,,,,,,,,,,,,,,,,,,,,,,,,,,,,,,,,,,,,,,,,,,,,,,,,,,
,,7,0.3072,7,0.3072,0,63,63,69,1,124,oven,refrigerator,,88876,001,2022-04-25_20h18.18.409,SPAMnetsValid,2021.1.4,MacIntel,60.0024001,,,,,,,,,,,,,,,,,,,,,,,,,,,,,,,,,,,,,,,,,,,,,,,,,,,,,,,,,,,,,,,,,,,,,,,,,,,,,,,,,,,,,,,,,
,,7,0.2802,7,0.2802,0,64,64,70,1,141,melon,tomato,,88876,001,2022-04-25_20h18.18.409,SPAMnetsValid,2021.1.4,MacIntel,60.0024001,,,,,,,,,,,,,,,,,,,,,,,,,,,,,,,,,,,,,,,,,,,,,,,,,,,,,,,,,,,,,,,,,,,,,,,,,,,,,,,,,,,,,,,,,
,,7,0.2886,7,0.2886,0,65,65,4,1,109,broom,strawberry,,88876,001,2022-04-25_20h18.18.409,SPAMnetsValid,2021.1.4,MacIntel,60.0024001,,,,,,,,,,,,,,,,,,,,,,,,,,,,,,,,,,,,,,,,,,,,,,,,,,,,,,,,,,,,,,,,,,,,,,,,,,,,,,,,,,,,,,,,,
,,7,0.2556,7,0.2556,0,66,66,9,1,176,cactus,tomato,,88876,001,2022-04-25_20h18.18.409,SPAMnetsValid,2021.1.4,MacIntel,60.0024001,,,,,,,,,,,,,,,,,,,,,,,,,,,,,,,,,,,,,,,,,,,,,,,,,,,,,,,,,,,,,,,,,,,,,,,,,,,,,,,,,,,,,,,,,
,,7,0.2408,7,0.2408,0,67,67,68,1,180,tree,yogurt,,88876,001,2022-04-25_20h18.18.409,SPAMnetsValid,2021.1.4,MacIntel,60.0024001,,,,,,,,,,,,,,,,,,,,,,,,,,,,,,,,,,,,,,,,,,,,,,,,,,,,,,,,,,,,,,,,,,,,,,,,,,,,,,,,,,,,,,,,,
,,7,0.1781,7,0.1781,0,68,68,37,1,139,carrot,strawberry,,88876,001,2022-04-25_20h18.18.409,SPAMnetsValid,2021.1.4,MacIntel,60.0024001,,,,,,,,,,,,,,,,,,,,,,,,,,,,,,,,,,,,,,,,,,,,,,,,,,,,,,,,,,,,,,,,,,,,,,,,,,,,,,,,,,,,,,,,,
,,7,0.2129,7,0.2129,0,69,69,39,1,112,cake,carrot,,88876,001,2022-04-25_20h18.18.409,SPAMnetsValid,2021.1.4,MacIntel,60.0024001,,,,,,,,,,,,,,,,,,,,,,,,,,,,,,,,,,,,,,,,,,,,,,,,,,,,,,,,,,,,,,,,,,,,,,,,,,,,,,,,,,,,,,,,,
,,7,0.1958,7,0.1958,0,70,70,61,1,138,flower,rose,,88876,001,2022-04-25_20h18.18.409,SPAMnetsValid,2021.1.4,MacIntel,60.0024001,,,,,,,,,,,,,,,,,,,,,,,,,,,,,,,,,,,,,,,,,,,,,,,,,,,,,,,,,,,,,,,,,,,,,,,,,,,,,,,,,,,,,,,,,
,,7,0.4329,7,0.4329,0,71,71,80,1,146,pretzel,tree,,88876,001,2022-04-25_20h18.18.409,SPAMnetsValid,2021.1.4,MacIntel,60.0024001,,,,,,,,,,,,,,,,,,,,,,,,,,,,,,,,,,,,,,,,,,,,,,,,,,,,,,,,,,,,,,,,,,,,,,,,,,,,,,,,,,,,,,,,,
,,7,0.1879,7,0.1879,0,72,72,45,1,179,broom,oven,,88876,001,2022-04-25_20h18.18.409,SPAMnetsValid,2021.1.4,MacIntel,60.0024001,,,,,,,,,,,,,,,,,,,,,,,,,,,,,,,,,,,,,,,,,,,,,,,,,,,,,,,,,,,,,,,,,,,,,,,,,,,,,,,,,,,,,,,,,
,,7,0.1556,7,0.1556,0,73,73,17,1,99,garden,melon,,88876,001,2022-04-25_20h18.18.409,SPAMnetsValid,2021.1.4,MacIntel,60.0024001,,,,,,,,,,,,,,,,,,,,,,,,,,,,,,,,,,,,,,,,,,,,,,,,,,,,,,,,,,,,,,,,,,,,,,,,,,,,,,,,,,,,,,,,,
,,7,0.1921,7,0.1921,0,74,74,14,1,120,microwave,oven,,88876,001,2022-04-25_20h18.18.409,SPAMnetsValid,2021.1.4,MacIntel,60.0024001,,,,,,,,,,,,,,,,,,,,,,,,,,,,,,,,,,,,,,,,,,,,,,,,,,,,,,,,,,,,,,,,,,,,,,,,,,,,,,,,,,,,,,,,,
,,7,0.1803,7,0.1803,0,75,75,41,1,175,melon,onion,,88876,001,2022-04-25_20h18.18.409,SPAMnetsValid,2021.1.4,MacIntel,60.0024001,,,,,,,,,,,,,,,,,,,,,,,,,,,,,,,,,,,,,,,,,,,,,,,,,,,,,,,,,,,,,,,,,,,,,,,,,,,,,,,,,,,,,,,,,
,,7,0.1923,7,0.1923,0,76,76,15,1,145,cactus,yogurt,,88876,001,2022-04-25_20h18.18.409,SPAMnetsValid,2021.1.4,MacIntel,60.0024001,,,,,,,,,,,,,,,,,,,,,,,,,,,,,,,,,,,,,,,,,,,,,,,,,,,,,,,,,,,,,,,,,,,,,,,,,,,,,,,,,,,,,,,,,
,,7,0.3888,7,0.3888,0,77,77,65,1,160,cookie,kitchen,,88876,001,2022-04-25_20h18.18.409,SPAMnetsValid,2021.1.4,MacIntel,60.0024001,,,,,,,,,,,,,,,,,,,,,,,,,,,,,,,,,,,,,,,,,,,,,,,,,,,,,,,,,,,,,,,,,,,,,,,,,,,,,,,,,,,,,,,,,
,,7,0.2066,7,0.2066,0,78,78,18,1,119,strawberry,tree,,88876,001,2022-04-25_20h18.18.409,SPAMnetsValid,2021.1.4,MacIntel,60.0024001,,,,,,,,,,,,,,,,,,,,,,,,,,,,,,,,,,,,,,,,,,,,,,,,,,,,,,,,,,,,,,,,,,,,,,,,,,,,,,,,,,,,,,,,,
,,7,0.206,7,0.206,0,79,79,79,1,103,pretzel,tomato,,88876,001,2022-04-25_20h18.18.409,SPAMnetsValid,2021.1.4,MacIntel,60.0024001,,,,,,,,,,,,,,,,,,,,,,,,,,,,,,,,,,,,,,,,,,,,,,,,,,,,,,,,,,,,,,,,,,,,,,,,,,,,,,,,,,,,,,,,,
,,7,0.1808,7,0.1808,0,80,80,23,1,148,flower,melon,,88876,001,2022-04-25_20h18.18.409,SPAMnetsValid,2021.1.4,MacIntel,60.0024001,,,,,,,,,,,,,,,,,,,,,,,,,,,,,,,,,,,,,,,,,,,,,,,,,,,,,,,,,,,,,,,,,,,,,,,,,,,,,,,,,,,,,,,,,
,,7,0.1983,7,0.1983,0,81,81,40,1,165,onion,rose,,88876,001,2022-04-25_20h18.18.409,SPAMnetsValid,2021.1.4,MacIntel,60.0024001,,,,,,,,,,,,,,,,,,,,,,,,,,,,,,,,,,,,,,,,,,,,,,,,,,,,,,,,,,,,,,,,,,,,,,,,,,,,,,,,,,,,,,,,,
,,7,0.1828,7,0.1828,0,82,82,34,1,153,carrot,pretzel,,88876,001,2022-04-25_20h18.18.409,SPAMnetsValid,2021.1.4,MacIntel,60.0024001,,,,,,,,,,,,,,,,,,,,,,,,,,,,,,,,,,,,,,,,,,,,,,,,,,,,,,,,,,,,,,,,,,,,,,,,,,,,,,,,,,,,,,,,,
,,7,0.1715,7,0.1715,0,83,83,56,1,113,refrigerator,strawberry,,88876,001,2022-04-25_20h18.18.409,SPAMnetsValid,2021.1.4,MacIntel,60.0024001,,,,,,,,,,,,,,,,,,,,,,,,,,,,,,,,,,,,,,,,,,,,,,,,,,,,,,,,,,,,,,,,,,,,,,,,,,,,,,,,,,,,,,,,,
,,7,0.1814,7,0.1814,0,84,84,42,1,184,oven,pretzel,,88876,001,2022-04-25_20h18.18.409,SPAMnetsValid,2021.1.4,MacIntel,60.0024001,,,,,,,,,,,,,,,,,,,,,,,,,,,,,,,,,,,,,,,,,,,,,,,,,,,,,,,,,,,,,,,,,,,,,,,,,,,,,,,,,,,,,,,,,
,,7,0.4243,7,0.4243,0,85,85,59,1,164,cookie,garden,,88876,001,2022-04-25_20h18.18.409,SPAMnetsValid,2021.1.4,MacIntel,60.0024001,,,,,,,,,,,,,,,,,,,,,,,,,,,,,,,,,,,,,,,,,,,,,,,,,,,,,,,,,,,,,,,,,,,,,,,,,,,,,,,,,,,,,,,,,
,,7,0.4158,7,0.4158,0,86,86,6,1,151,microwave,onion,,88876,001,2022-04-25_20h18.18.409,SPAMnetsValid,2021.1.4,MacIntel,60.0024001,,,,,,,,,,,,,,,,,,,,,,,,,,,,,,,,,,,,,,,,,,,,,,,,,,,,,,,,,,,,,,,,,,,,,,,,,,,,,,,,,,,,,,,,,
,,7,0.1882,7,0.1882,0,87,87,0,1,106,cake,strawberry,,88876,001,2022-04-25_20h18.18.409,SPAMnetsValid,2021.1.4,MacIntel,60.0024001,,,,,,,,,,,,,,,,,,,,,,,,,,,,,,,,,,,,,,,,,,,,,,,,,,,,,,,,,,,,,,,,,,,,,,,,,,,,,,,,,,,,,,,,,
,,7,0.1962,7,0.1962,0,88,88,3,1,129,cactus,refrigerator,,88876,001,2022-04-25_20h18.18.409,SPAMnetsValid,2021.1.4,MacIntel,60.0024001,,,,,,,,,,,,,,,,,,,,,,,,,,,,,,,,,,,,,,,,,,,,,,,,,,,,,,,,,,,,,,,,,,,,,,,,,,,,,,,,,,,,,,,,,
,,7,0.2121,7,0.2121,0,89,89,54,1,101,cactus,kitchen,,88876,001,2022-04-25_20h18.18.409,SPAMnetsValid,2021.1.4,MacIntel,60.0024001,,,,,,,,,,,,,,,,,,,,,,,,,,,,,,,,,,,,,,,,,,,,,,,,,,,,,,,,,,,,,,,,,,,,,,,,,,,,,,,,,,,,,,,,,
,,7,0.1935,7,0.1935,0,90,90,78,1,132,broom,tree,,88876,001,2022-04-25_20h18.18.409,SPAMnetsValid,2021.1.4,MacIntel,60.0024001,,,,,,,,,,,,,,,,,,,,,,,,,,,,,,,,,,,,,,,,,,,,,,,,,,,,,,,,,,,,,,,,,,,,,,,,,,,,,,,,,,,,,,,,,
,,7,0.4393,7,0.4393,0,91,91,60,1,122,flower,garden,,88876,001,2022-04-25_20h18.18.409,SPAMnetsValid,2021.1.4,MacIntel,60.0024001,,,,,,,,,,,,,,,,,,,,,,,,,,,,,,,,,,,,,,,,,,,,,,,,,,,,,,,,,,,,,,,,,,,,,,,,,,,,,,,,,,,,,,,,,
,,7,0.1776,7,0.1776,0,92,92,13,1,105,cactus,oven,,88876,001,2022-04-25_20h18.18.409,SPAMnetsValid,2021.1.4,MacIntel,60.0024001,,,,,,,,,,,,,,,,,,,,,,,,,,,,,,,,,,,,,,,,,,,,,,,,,,,,,,,,,,,,,,,,,,,,,,,,,,,,,,,,,,,,,,,,,
,,7,0.2066,7,0.2066,0,93,93,2,1,174,cake,pretzel,,88876,001,2022-04-25_20h18.18.409,SPAMnetsValid,2021.1.4,MacIntel,60.0024001,,,,,,,,,,,,,,,,,,,,,,,,,,,,,,,,,,,,,,,,,,,,,,,,,,,,,,,,,,,,,,,,,,,,,,,,,,,,,,,,,,,,,,,,,
,,7,0.41,7,0.41,0,94,94,35,1,147,cake,refrigerator,,88876,001,2022-04-25_20h18.18.409,SPAMnetsValid,2021.1.4,MacIntel,60.0024001,,,,,,,,,,,,,,,,,,,,,,,,,,,,,,,,,,,,,,,,,,,,,,,,,,,,,,,,,,,,,,,,,,,,,,,,,,,,,,,,,,,,,,,,,
,,7,0.1902,7,0.1902,0,95,95,67,1,96,oven,strawberry,,88876,001,2022-04-25_20h18.18.409,SPAMnetsValid,2021.1.4,MacIntel,60.0024001,,,,,,,,,,,,,,,,,,,,,,,,,,,,,,,,,,,,,,,,,,,,,,,,,,,,,,,,,,,,,,,,,,,,,,,,,,,,,,,,,,,,,,,,,
,,7,0.1911,7,0.1911,0,96,96,38,1,155,carrot,cookie,,88876,001,2022-04-25_20h18.18.409,SPAMnetsValid,2021.1.4,MacIntel,60.0024001,,,,,,,,,,,,,,,,,,,,,,,,,,,,,,,,,,,,,,,,,,,,,,,,,,,,,,,,,,,,,,,,,,,,,,,,,,,,,,,,,,,,,,,,,
,,,,,,,,,,,,,,,88876,001,2022-04-25_20h18.18.409,SPAMnetsValid,2021.1.4,MacIntel,60.0024001,0,0,0,0,1,,,,,,,,,,,,,,,,,,,,,,,,,,,,,,,,,,,,,,,,,,,,,,,,,,,,,,,,,,,,,,,,,,,,,,,,,,,,,,,,,,,,
,,,,,,,,,,,,,,,88876,001,2022-04-25_20h18.18.409,SPAMnetsValid,2021.1.4,MacIntel,60.0024001,,,,,,0,0,0,1,1,0,1,,,,,,,,,,,,,,,,,,,,,,,,,,,,,,,,,,,,,,,,,,,,,,,,,,,,,,,,,,,,,,,,,,,,,,,,,,,,,
,,,,7,1.2961,,,,,,22,kitchen,strawberry,,88876,001,2022-04-25_20h18.18.409,SPAMnetsValid,2021.1.4,MacIntel,60.0024001,,,,,,,,,,,,,7,1.2961,0,0,0,2,1,,,,,,,,,,,,,,,,,,,,,,,,,,,,,,,,,,,,,,,,,,,,,,,,,,,,,,,,,,,,,,,,,,,,,,
,,,,7,0.165,,,,,,28,cake,melon,,88876,001,2022-04-25_20h18.18.409,SPAMnetsValid,2021.1.4,MacIntel,60.0024001,,,,,,,,,,,,,7,0.165,0,1,1,54,1,,,,,,,,,,,,,,,,,,,,,,,,,,,,,,,,,,,,,,,,,,,,,,,,,,,,,,,,,,,,,,,,,,,,,,
,,,,7,0.1925,,,,,,72,broom,onion,,88876,001,2022-04-25_20h18.18.409,SPAMnetsValid,2021.1.4,MacIntel,60.0024001,,,,,,,,,,,,,7,0.1925,0,2,2,27,1,,,,,,,,,,,,,,,,,,,,,,,,,,,,,,,,,,,,,,,,,,,,,,,,,,,,,,,,,,,,,,,,,,,,,,
,,,,7,0.2251,,,,,,23,flower,microwave,,88876,001,2022-04-25_20h18.18.409,SPAMnetsValid,2021.1.4,MacIntel,60.0024001,,,,,,,,,,,,,7,0.2251,0,3,3,25,1,,,,,,,,,,,,,,,,,,,,,,,,,,,,,,,,,,,,,,,,,,,,,,,,,,,,,,,,,,,,,,,,,,,,,,
,,,,7,0.2099,,,,,,61,strawberry,tomato,,88876,001,2022-04-25_20h18.18.409,SPAMnetsValid,2021.1.4,MacIntel,60.0024001,,,,,,,,,,,,,7,0.2099,0,4,4,80,1,,,,,,,,,,,,,,,,,,,,,,,,,,,,,,,,,,,,,,,,,,,,,,,,,,,,,,,,,,,,,,,,,,,,,,
,,,,7,0.2154,,,,,,53,garden,pretzel,,88876,001,2022-04-25_20h18.18.409,SPAMnetsValid,2021.1.4,MacIntel,60.0024001,,,,,,,,,,,,,7,0.2154,0,5,5,0,1,,,,,,,,,,,,,,,,,,,,,,,,,,,,,,,,,,,,,,,,,,,,,,,,,,,,,,,,,,,,,,,,,,,,,,
,,,,7,0.2143,,,,,,6,garden,onion,,88876,001,2022-04-25_20h18.18.409,SPAMnetsValid,2021.1.4,MacIntel,60.0024001,,,,,,,,,,,,,7,0.2143,0,6,6,83,1,,,,,,,,,,,,,,,,,,,,,,,,,,,,,,,,,,,,,,,,,,,,,,,,,,,,,,,,,,,,,,,,,,,,,,
,,,,7,0.2173,,,,,,75,cookie,onion,,88876,001,2022-04-25_20h18.18.409,SPAMnetsValid,2021.1.4,MacIntel,60.0024001,,,,,,,,,,,,,7,0.2173,0,7,7,9,1,,,,,,,,,,,,,,,,,,,,,,,,,,,,,,,,,,,,,,,,,,,,,,,,,,,,,,,,,,,,,,,,,,,,,,
,,,,7,0.2247,,,,,,20,rose,tree,,88876,001,2022-04-25_20h18.18.409,SPAMnetsValid,2021.1.4,MacIntel,60.0024001,,,,,,,,,,,,,7,0.2247,0,8,8,66,1,,,,,,,,,,,,,,,,,,,,,,,,,,,,,,,,,,,,,,,,,,,,,,,,,,,,,,,,,,,,,,,,,,,,,,
,,,,7,0.1921,,,,,,84,oven,tomato,,88876,001,2022-04-25_20h18.18.409,SPAMnetsValid,2021.1.4,MacIntel,60.0024001,,,,,,,,,,,,,7,0.1921,0,9,9,28,1,,,,,,,,,,,,,,,,,,,,,,,,,,,,,,,,,,,,,,,,,,,,,,,,,,,,,,,,,,,,,,,,,,,,,,
,,,,7,0.1927,,,,,,79,garden,strawberry,,88876,001,2022-04-25_20h18.18.409,SPAMnetsValid,2021.1.4,MacIntel,60.0024001,,,,,,,,,,,,,7,0.1927,0,10,10,87,1,,,,,,,,,,,,,,,,,,,,,,,,,,,,,,,,,,,,,,,,,,,,,,,,,,,,,,,,,,,,,,,,,,,,,,
,,,,7,0.2168,,,,,,81,pretzel,yogurt,,88876,001,2022-04-25_20h18.18.409,SPAMnetsValid,2021.1.4,MacIntel,60.0024001,,,,,,,,,,,,,7,0.2168,0,11,11,50,1,,,,,,,,,,,,,,,,,,,,,,,,,,,,,,,,,,,,,,,,,,,,,,,,,,,,,,,,,,,,,,,,,,,,,,
,,,,7,0.2081,,,,,,13,broom,yogurt,,88876,001,2022-04-25_20h18.18.409,SPAMnetsValid,2021.1.4,MacIntel,60.0024001,,,,,,,,,,,,,7,0.2081,0,12,12,5,1,,,,,,,,,,,,,,,,,,,,,,,,,,,,,,,,,,,,,,,,,,,,,,,,,,,,,,,,,,,,,,,,,,,,,,
,,,,7,0.1987,,,,,,55,tomato,tree,,88876,001,2022-04-25_20h18.18.409,SPAMnetsValid,2021.1.4,MacIntel,60.0024001,,,,,,,,,,,,,7,0.1987,0,13,13,35,1,,,,,,,,,,,,,,,,,,,,,,,,,,,,,,,,,,,,,,,,,,,,,,,,,,,,,,,,,,,,,,,,,,,,,,
,,,,7,0.1967,,,,,,44,cookie,melon,,88876,001,2022-04-25_20h18.18.409,SPAMnetsValid,2021.1.4,MacIntel,60.0024001,,,,,,,,,,,,,7,0.1967,0,14,14,92,1,,,,,,,,,,,,,,,,,,,,,,,,,,,,,,,,,,,,,,,,,,,,,,,,,,,,,,,,,,,,,,,,,,,,,,
,,,,7,0.16,,,,,,10,flower,onion,,88876,001,2022-04-25_20h18.18.409,SPAMnetsValid,2021.1.4,MacIntel,60.0024001,,,,,,,,,,,,,7,0.16,0,15,15,45,1,,,,,,,,,,,,,,,,,,,,,,,,,,,,,,,,,,,,,,,,,,,,,,,,,,,,,,,,,,,,,,,,,,,,,,
,,,,7,0.1328,,,,,,192,microwave,microwave,CHECK,88876,001,2022-04-25_20h18.18.409,SPAMnetsValid,2021.1.4,MacIntel,60.0024001,,,,,,,,,,,,,7,0.1328,0,16,16,53,1,,,,,,,,,,,,,,,,,,,,,,,,,,,,,,,,,,,,,,,,,,,,,,,,,,,,,,,,,,,,,,,,,,,,,,
,,,,7,0.1632,,,,,,21,cake,onion,,88876,001,2022-04-25_20h18.18.409,SPAMnetsValid,2021.1.4,MacIntel,60.0024001,,,,,,,,,,,,,7,0.1632,0,17,17,63,1,,,,,,,,,,,,,,,,,,,,,,,,,,,,,,,,,,,,,,,,,,,,,,,,,,,,,,,,,,,,,,,,,,,,,,
,,,,7,0.21,,,,,,18,onion,refrigerator,,88876,001,2022-04-25_20h18.18.409,SPAMnetsValid,2021.1.4,MacIntel,60.0024001,,,,,,,,,,,,,7,0.21,0,18,18,62,1,,,,,,,,,,,,,,,,,,,,,,,,,,,,,,,,,,,,,,,,,,,,,,,,,,,,,,,,,,,,,,,,,,,,,,
,,,,7,0.1925,,,,,,87,carrot,yogurt,,88876,001,2022-04-25_20h18.18.409,SPAMnetsValid,2021.1.4,MacIntel,60.0024001,,,,,,,,,,,,,7,0.1925,0,19,19,6,1,,,,,,,,,,,,,,,,,,,,,,,,,,,,,,,,,,,,,,,,,,,,,,,,,,,,,,,,,,,,,,,,,,,,,,
,,,,7,0.1911,,,,,,77,refrigerator,yogurt,,88876,001,2022-04-25_20h18.18.409,SPAMnetsValid,2021.1.4,MacIntel,60.0024001,,,,,,,,,,,,,7,0.1911,0,20,20,42,1,,,,,,,,,,,,,,,,,,,,,,,,,,,,,,,,,,,,,,,,,,,,,,,,,,,,,,,,,,,,,,,,,,,,,,
,,,,7,0.0183,,,,,,66,melon,yogurt,,88876,001,2022-04-25_20h18.18.409,SPAMnetsValid,2021.1.4,MacIntel,60.0024001,,,,,,,,,,,,,7,0.0183,0,21,21,48,1,,,,,,,,,,,,,,,,,,,,,,,,,,,,,,,,,,,,,,,,,,,,,,,,,,,,,,,,,,,,,,,,,,,,,,
,,,,7,0.2491,,,,,,57,flower,kitchen,,88876,001,2022-04-25_20h18.18.409,SPAMnetsValid,2021.1.4,MacIntel,60.0024001,,,,,,,,,,,,,7,0.2491,0,22,22,49,1,,,,,,,,,,,,,,,,,,,,,,,,,,,,,,,,,,,,,,,,,,,,,,,,,,,,,,,,,,,,,,,,,,,,,,
,,,,7,0.4252,,,,,,11,refrigerator,tree,,88876,001,2022-04-25_20h18.18.409,SPAMnetsValid,2021.1.4,MacIntel,60.0024001,,,,,,,,,,,,,7,0.4252,0,23,23,43,1,,,,,,,,,,,,,,,,,,,,,,,,,,,,,,,,,,,,,,,,,,,,,,,,,,,,,,,,,,,,,,,,,,,,,,
,,,,7,0.1925,,,,,,52,carrot,tomato,,88876,001,2022-04-25_20h18.18.409,SPAMnetsValid,2021.1.4,MacIntel,60.0024001,,,,,,,,,,,,,7,0.1925,0,24,24,95,1,,,,,,,,,,,,,,,,,,,,,,,,,,,,,,,,,,,,,,,,,,,,,,,,,,,,,,,,,,,,,,,,,,,,,,
,,,,7,0.176,,,,,,60,cactus,onion,,88876,001,2022-04-25_20h18.18.409,SPAMnetsValid,2021.1.4,MacIntel,60.0024001,,,,,,,,,,,,,7,0.176,0,25,25,81,1,,,,,,,,,,,,,,,,,,,,,,,,,,,,,,,,,,,,,,,,,,,,,,,,,,,,,,,,,,,,,,,,,,,,,,
,,,,7,0.1661,,,,,,90,cactus,cake,,88876,001,2022-04-25_20h18.18.409,SPAMnetsValid,2021.1.4,MacIntel,60.0024001,,,,,,,,,,,,,7,0.1661,0,26,26,85,1,,,,,,,,,,,,,,,,,,,,,,,,,,,,,,,,,,,,,,,,,,,,,,,,,,,,,,,,,,,,,,,,,,,,,,
,,,,7,0.1807,,,,,,83,broom,carrot,,88876,001,2022-04-25_20h18.18.409,SPAMnetsValid,2021.1.4,MacIntel,60.0024001,,,,,,,,,,,,,7,0.1807,0,27,27,4,1,,,,,,,,,,,,,,,,,,,,,,,,,,,,,,,,,,,,,,,,,,,,,,,,,,,,,,,,,,,,,,,,,,,,,,
,,,,7,0.4122,,,,,,80,chocolate,tree,,88876,001,2022-04-25_20h18.18.409,SPAMnetsValid,2021.1.4,MacIntel,60.0024001,,,,,,,,,,,,,7,0.4122,0,28,28,89,1,,,,,,,,,,,,,,,,,,,,,,,,,,,,,,,,,,,,,,,,,,,,,,,,,,,,,,,,,,,,,,,,,,,,,,
,,,,7,0.1993,,,,,,45,onion,pretzel,,88876,001,2022-04-25_20h18.18.409,SPAMnetsValid,2021.1.4,MacIntel,60.0024001,,,,,,,,,,,,,7,0.1993,0,29,29,69,1,,,,,,,,,,,,,,,,,,,,,,,,,,,,,,,,,,,,,,,,,,,,,,,,,,,,,,,,,,,,,,,,,,,,,,
,,,,7,0.1811,,,,,,41,broom,cactus,,88876,001,2022-04-25_20h18.18.409,SPAMnetsValid,2021.1.4,MacIntel,60.0024001,,,,,,,,,,,,,7,0.1811,0,30,30,46,1,,,,,,,,,,,,,,,,,,,,,,,,,,,,,,,,,,,,,,,,,,,,,,,,,,,,,,,,,,,,,,,,,,,,,,
,,,,7,0.1789,,,,,,1,rose,yogurt,,88876,001,2022-04-25_20h18.18.409,SPAMnetsValid,2021.1.4,MacIntel,60.0024001,,,,,,,,,,,,,7,0.1789,0,31,31,55,1,,,,,,,,,,,,,,,,,,,,,,,,,,,,,,,,,,,,,,,,,,,,,,,,,,,,,,,,,,,,,,,,,,,,,,
,,,,7,0.1955,,,,,,33,oven,yogurt,,88876,001,2022-04-25_20h18.18.409,SPAMnetsValid,2021.1.4,MacIntel,60.0024001,,,,,,,,,,,,,7,0.1955,0,32,32,31,1,,,,,,,,,,,,,,,,,,,,,,,,,,,,,,,,,,,,,,,,,,,,,,,,,,,,,,,,,,,,,,,,,,,,,,
,,,,7,0.2096,,,,,,14,broom,cookie,,88876,001,2022-04-25_20h18.18.409,SPAMnetsValid,2021.1.4,MacIntel,60.0024001,,,,,,,,,,,,,7,0.2096,0,33,33,16,1,,,,,,,,,,,,,,,,,,,,,,,,,,,,,,,,,,,,,,,,,,,,,,,,,,,,,,,,,,,,,,,,,,,,,,
,,,,7,0.1775,,,,,,69,carrot,refrigerator,,88876,001,2022-04-25_20h18.18.409,SPAMnetsValid,2021.1.4,MacIntel,60.0024001,,,,,,,,,,,,,7,0.1775,0,34,34,75,1,,,,,,,,,,,,,,,,,,,,,,,,,,,,,,,,,,,,,,,,,,,,,,,,,,,,,,,,,,,,,,,,,,,,,,
,,,,7,0.1457,,,,,,191,cake,cake,CHECK,88876,001,2022-04-25_20h18.18.409,SPAMnetsValid,2021.1.4,MacIntel,60.0024001,,,,,,,,,,,,,7,0.1457,0,35,35,10,1,,,,,,,,,,,,,,,,,,,,,,,,,,,,,,,,,,,,,,,,,,,,,,,,,,,,,,,,,,,,,,,,,,,,,,
,,,,7,0.1257,,,,,,63,cake,cookie,,88876,001,2022-04-25_20h18.18.409,SPAMnetsValid,2021.1.4,MacIntel,60.0024001,,,,,,,,,,,,,7,0.1257,0,36,36,93,1,,,,,,,,,,,,,,,,,,,,,,,,,,,,,,,,,,,,,,,,,,,,,,,,,,,,,,,,,,,,,,,,,,,,,,
,,,,7,0.0957,,,,,,38,pretzel,refrigerator,,88876,001,2022-04-25_20h18.18.409,SPAMnetsValid,2021.1.4,MacIntel,60.0024001,,,,,,,,,,,,,7,0.0957,0,37,37,71,1,,,,,,,,,,,,,,,,,,,,,,,,,,,,,,,,,,,,,,,,,,,,,,,,,,,,,,,,,,,,,,,,,,,,,,
,,,,7,0.1253,,,,,,24,cookie,tomato,,88876,001,2022-04-25_20h18.18.409,SPAMnetsValid,2021.1.4,MacIntel,60.0024001,,,,,,,,,,,,,7,0.1253,0,38,38,68,1,,,,,,,,,,,,,,,,,,,,,,,,,,,,,,,,,,,,,,,,,,,,,,,,,,,,,,,,,,,,,,,,,,,,,,
,,,,7,0.183,,,,,,27,cactus,cookie,,88876,001,2022-04-25_20h18.18.409,SPAMnetsValid,2021.1.4,MacIntel,60.0024001,,,,,,,,,,,,,7,0.183,0,39,39,17,1,,,,,,,,,,,,,,,,,,,,,,,,,,,,,,,,,,,,,,,,,,,,,,,,,,,,,,,,,,,,,,,,,,,,,,
,,,,7,0.1607,,,,,,9,kitchen,refrigerator,,88876,001,2022-04-25_20h18.18.409,SPAMnetsValid,2021.1.4,MacIntel,60.0024001,,,,,,,,,,,,,7,0.1607,0,40,40,64,1,,,,,,,,,,,,,,,,,,,,,,,,,,,,,,,,,,,,,,,,,,,,,,,,,,,,,,,,,,,,,,,,,,,,,,
,,,,7,0.1824,,,,,,50,carrot,rose,,88876,001,2022-04-25_20h18.18.409,SPAMnetsValid,2021.1.4,MacIntel,60.0024001,,,,,,,,,,,,,7,0.1824,0,41,41,73,1,,,,,,,,,,,,,,,,,,,,,,,,,,,,,,,,,,,,,,,,,,,,,,,,,,,,,,,,,,,,,,,,,,,,,,
,,,,7,0.2142,,,,,,89,chocolate,rose,,88876,001,2022-04-25_20h18.18.409,SPAMnetsValid,2021.1.4,MacIntel,60.0024001,,,,,,,,,,,,,7,0.2142,0,42,42,60,1,,,,,,,,,,,,,,,,,,,,,,,,,,,,,,,,,,,,,,,,,,,,,,,,,,,,,,,,,,,,,,,,,,,,,,
,,,,7,0.1969,,,,,,74,broom,pretzel,,88876,001,2022-04-25_20h18.18.409,SPAMnetsValid,2021.1.4,MacIntel,60.0024001,,,,,,,,,,,,,7,0.1969,0,43,43,40,1,,,,,,,,,,,,,,,,,,,,,,,,,,,,,,,,,,,,,,,,,,,,,,,,,,,,,,,,,,,,,,,,,,,,,,
,,,,7,0.1979,,,,,,2,kitchen,onion,,88876,001,2022-04-25_20h18.18.409,SPAMnetsValid,2021.1.4,MacIntel,60.0024001,,,,,,,,,,,,,7,0.1979,0,44,44,91,1,,,,,,,,,,,,,,,,,,,,,,,,,,,,,,,,,,,,,,,,,,,,,,,,,,,,,,,,,,,,,,,,,,,,,,
,,,,7,0.1625,,,,,,15,onion,oven,,88876,001,2022-04-25_20h18.18.409,SPAMnetsValid,2021.1.4,MacIntel,60.0024001,,,,,,,,,,,,,7,0.1625,0,45,45,39,1,,,,,,,,,,,,,,,,,,,,,,,,,,,,,,,,,,,,,,,,,,,,,,,,,,,,,,,,,,,,,,,,,,,,,,
,,,,7,0.1993,,,,,,54,chocolate,yogurt,,88876,001,2022-04-25_20h18.18.409,SPAMnetsValid,2021.1.4,MacIntel,60.0024001,,,,,,,,,,,,,7,0.1993,0,46,46,67,1,,,,,,,,,,,,,,,,,,,,,,,,,,,,,,,,,,,,,,,,,,,,,,,,,,,,,,,,,,,,,,,,,,,,,,
,,,,7,0.1587,,,,,,78,cookie,rose,,88876,001,2022-04-25_20h18.18.409,SPAMnetsValid,2021.1.4,MacIntel,60.0024001,,,,,,,,,,,,,7,0.1587,0,47,47,56,1,,,,,,,,,,,,,,,,,,,,,,,,,,,,,,,,,,,,,,,,,,,,,,,,,,,,,,,,,,,,,,,,,,,,,,
,,,,7,0.1644,,,,,,29,chocolate,melon,,88876,001,2022-04-25_20h18.18.409,SPAMnetsValid,2021.1.4,MacIntel,60.0024001,,,,,,,,,,,,,7,0.1644,0,48,48,34,1,,,,,,,,,,,,,,,,,,,,,,,,,,,,,,,,,,,,,,,,,,,,,,,,,,,,,,,,,,,,,,,,,,,,,,
,,,,7,0.1924,,,,,,40,broom,cake,,88876,001,2022-04-25_20h18.18.409,SPAMnetsValid,2021.1.4,MacIntel,60.0024001,,,,,,,,,,,,,7,0.1924,0,49,49,32,1,,,,,,,,,,,,,,,,,,,,,,,,,,,,,,,,,,,,,,,,,,,,,,,,,,,,,,,,,,,,,,,,,,,,,,
,,,,7,0.1755,,,,,,16,chocolate,flower,,88876,001,2022-04-25_20h18.18.409,SPAMnetsValid,2021.1.4,MacIntel,60.0024001,,,,,,,,,,,,,7,0.1755,0,50,50,22,1,,,,,,,,,,,,,,,,,,,,,,,,,,,,,,,,,,,,,,,,,,,,,,,,,,,,,,,,,,,,,,,,,,,,,,
,,,,7,0.1596,,,,,,5,oven,tree,,88876,001,2022-04-25_20h18.18.409,SPAMnetsValid,2021.1.4,MacIntel,60.0024001,,,,,,,,,,,,,7,0.1596,0,51,51,70,1,,,,,,,,,,,,,,,,,,,,,,,,,,,,,,,,,,,,,,,,,,,,,,,,,,,,,,,,,,,,,,,,,,,,,,
,,,,7,0.1484,,,,,,49,flower,strawberry,,88876,001,2022-04-25_20h18.18.409,SPAMnetsValid,2021.1.4,MacIntel,60.0024001,,,,,,,,,,,,,7,0.1484,0,52,52,3,1,,,,,,,,,,,,,,,,,,,,,,,,,,,,,,,,,,,,,,,,,,,,,,,,,,,,,,,,,,,,,,,,,,,,,,
,,,,7,0.1661,,,,,,64,chocolate,garden,,88876,001,2022-04-25_20h18.18.409,SPAMnetsValid,2021.1.4,MacIntel,60.0024001,,,,,,,,,,,,,7,0.1661,0,53,53,14,1,,,,,,,,,,,,,,,,,,,,,,,,,,,,,,,,,,,,,,,,,,,,,,,,,,,,,,,,,,,,,,,,,,,,,,
,,,,7,0.1097,,,,,,93,kitchen,oven,,88876,001,2022-04-25_20h18.18.409,SPAMnetsValid,2021.1.4,MacIntel,60.0024001,,,,,,,,,,,,,7,0.1097,0,54,54,82,1,,,,,,,,,,,,,,,,,,,,,,,,,,,,,,,,,,,,,,,,,,,,,,,,,,,,,,,,,,,,,,,,,,,,,,
,,,,7,0.0678,,,,,,43,chocolate,tomato,,88876,001,2022-04-25_20h18.18.409,SPAMnetsValid,2021.1.4,MacIntel,60.0024001,,,,,,,,,,,,,7,0.0678,0,55,55,8,1,,,,,,,,,,,,,,,,,,,,,,,,,,,,,,,,,,,,,,,,,,,,,,,,,,,,,,,,,,,,,,,,,,,,,,
,,,,7,0.1428,,,,,,95,broom,refrigerator,,88876,001,2022-04-25_20h18.18.409,SPAMnetsValid,2021.1.4,MacIntel,60.0024001,,,,,,,,,,,,,7,0.1428,0,56,56,90,1,,,,,,,,,,,,,,,,,,,,,,,,,,,,,,,,,,,,,,,,,,,,,,,,,,,,,,,,,,,,,,,,,,,,,,
,,,,7,0.2102,,,,,,4,chocolate,pretzel,,88876,001,2022-04-25_20h18.18.409,SPAMnetsValid,2021.1.4,MacIntel,60.0024001,,,,,,,,,,,,,7,0.2102,0,57,57,52,1,,,,,,,,,,,,,,,,,,,,,,,,,,,,,,,,,,,,,,,,,,,,,,,,,,,,,,,,,,,,,,,,,,,,,,
,,,,7,0.1806,,,,,,3,cake,oven,,88876,001,2022-04-25_20h18.18.409,SPAMnetsValid,2021.1.4,MacIntel,60.0024001,,,,,,,,,,,,,7,0.1806,0,58,58,30,1,,,,,,,,,,,,,,,,,,,,,,,,,,,,,,,,,,,,,,,,,,,,,,,,,,,,,,,,,,,,,,,,,,,,,,
,,,,7,0.2293,,,,,,47,onion,tomato,,88876,001,2022-04-25_20h18.18.409,SPAMnetsValid,2021.1.4,MacIntel,60.0024001,,,,,,,,,,,,,7,0.2293,0,59,59,51,1,,,,,,,,,,,,,,,,,,,,,,,,,,,,,,,,,,,,,,,,,,,,,,,,,,,,,,,,,,,,,,,,,,,,,,
,,,,7,0.424,,,,,,31,cactus,pretzel,,88876,001,2022-04-25_20h18.18.409,SPAMnetsValid,2021.1.4,MacIntel,60.0024001,,,,,,,,,,,,,7,0.424,0,60,60,1,1,,,,,,,,,,,,,,,,,,,,,,,,,,,,,,,,,,,,,,,,,,,,,,,,,,,,,,,,,,,,,,,,,,,,,,
,,,,7,0.1926,,,,,,51,onion,strawberry,,88876,001,2022-04-25_20h18.18.409,SPAMnetsValid,2021.1.4,MacIntel,60.0024001,,,,,,,,,,,,,7,0.1926,0,61,61,86,1,,,,,,,,,,,,,,,,,,,,,,,,,,,,,,,,,,,,,,,,,,,,,,,,,,,,,,,,,,,,,,,,,,,,,,
,,,,7,0.1937,,,,,,65,broom,garden,,88876,001,2022-04-25_20h18.18.409,SPAMnetsValid,2021.1.4,MacIntel,60.0024001,,,,,,,,,,,,,7,0.1937,0,62,62,23,1,,,,,,,,,,,,,,,,,,,,,,,,,,,,,,,,,,,,,,,,,,,,,,,,,,,,,,,,,,,,,,,,,,,,,,
,,,,7,0.1999,,,,,,85,cake,tree,,88876,001,2022-04-25_20h18.18.409,SPAMnetsValid,2021.1.4,MacIntel,60.0024001,,,,,,,,,,,,,7,0.1999,0,63,63,18,1,,,,,,,,,,,,,,,,,,,,,,,,,,,,,,,,,,,,,,,,,,,,,,,,,,,,,,,,,,,,,,,,,,,,,,
,,,,7,0.1766,,,,,,39,melon,pretzel,,88876,001,2022-04-25_20h18.18.409,SPAMnetsValid,2021.1.4,MacIntel,60.0024001,,,,,,,,,,,,,7,0.1766,0,64,64,20,1,,,,,,,,,,,,,,,,,,,,,,,,,,,,,,,,,,,,,,,,,,,,,,,,,,,,,,,,,,,,,,,,,,,,,,
,,,,7,0.1928,,,,,,35,flower,pretzel,,88876,001,2022-04-25_20h18.18.409,SPAMnetsValid,2021.1.4,MacIntel,60.0024001,,,,,,,,,,,,,7,0.1928,0,65,65,26,1,,,,,,,,,,,,,,,,,,,,,,,,,,,,,,,,,,,,,,,,,,,,,,,,,,,,,,,,,,,,,,,,,,,,,,
,,,,7,0.1747,,,,,,8,broom,melon,,88876,001,2022-04-25_20h18.18.409,SPAMnetsValid,2021.1.4,MacIntel,60.0024001,,,,,,,,,,,,,7,0.1747,0,66,66,59,1,,,,,,,,,,,,,,,,,,,,,,,,,,,,,,,,,,,,,,,,,,,,,,,,,,,,,,,,,,,,,,,,,,,,,,
,,,,7,0.4429,,,,,,76,garden,rose,,88876,001,2022-04-25_20h18.18.409,SPAMnetsValid,2021.1.4,MacIntel,60.0024001,,,,,,,,,,,,,7,0.4429,0,67,67,19,1,,,,,,,,,,,,,,,,,,,,,,,,,,,,,,,,,,,,,,,,,,,,,,,,,,,,,,,,,,,,,,,,,,,,,,
,,,,7,0.4772,,,,,,19,microwave,pretzel,,88876,001,2022-04-25_20h18.18.409,SPAMnetsValid,2021.1.4,MacIntel,60.0024001,,,,,,,,,,,,,7,0.4772,0,68,68,41,1,,,,,,,,,,,,,,,,,,,,,,,,,,,,,,,,,,,,,,,,,,,,,,,,,,,,,,,,,,,,,,,,,,,,,,
,,,,7,0.2427,,,,,,59,rose,strawberry,,88876,001,2022-04-25_20h18.18.409,SPAMnetsValid,2021.1.4,MacIntel,60.0024001,,,,,,,,,,,,,7,0.2427,0,69,69,72,1,,,,,,,,,,,,,,,,,,,,,,,,,,,,,,,,,,,,,,,,,,,,,,,,,,,,,,,,,,,,,,,,,,,,,,
,,,,7,0.2091,,,,,,67,flower,yogurt,,88876,001,2022-04-25_20h18.18.409,SPAMnetsValid,2021.1.4,MacIntel,60.0024001,,,,,,,,,,,,,7,0.2091,0,70,70,12,1,,,,,,,,,,,,,,,,,,,,,,,,,,,,,,,,,,,,,,,,,,,,,,,,,,,,,,,,,,,,,,,,,,,,,,
,,,,7,0.1928,,,,,,32,cake,microwave,,88876,001,2022-04-25_20h18.18.409,SPAMnetsValid,2021.1.4,MacIntel,60.0024001,,,,,,,,,,,,,7,0.1928,0,71,71,33,1,,,,,,,,,,,,,,,,,,,,,,,,,,,,,,,,,,,,,,,,,,,,,,,,,,,,,,,,,,,,,,,,,,,,,,
,,,,7,0.1758,,,,,,94,kitchen,microwave,,88876,001,2022-04-25_20h18.18.409,SPAMnetsValid,2021.1.4,MacIntel,60.0024001,,,,,,,,,,,,,7,0.1758,0,72,72,58,1,,,,,,,,,,,,,,,,,,,,,,,,,,,,,,,,,,,,,,,,,,,,,,,,,,,,,,,,,,,,,,,,,,,,,,
,,,,7,0.1972,,,,,,70,chocolate,onion,,88876,001,2022-04-25_20h18.18.409,SPAMnetsValid,2021.1.4,MacIntel,60.0024001,,,,,,,,,,,,,7,0.1972,0,73,73,74,1,,,,,,,,,,,,,,,,,,,,,,,,,,,,,,,,,,,,,,,,,,,,,,,,,,,,,,,,,,,,,,,,,,,,,,
,,,,7,0.2206,,,,,,25,carrot,onion,,88876,001,2022-04-25_20h18.18.409,SPAMnetsValid,2021.1.4,MacIntel,60.0024001,,,,,,,,,,,,,7,0.2206,0,74,74,44,1,,,,,,,,,,,,,,,,,,,,,,,,,,,,,,,,,,,,,,,,,,,,,,,,,,,,,,,,,,,,,,,,,,,,,,
,,,,7,0.2091,,,,,,82,cake,kitchen,,88876,001,2022-04-25_20h18.18.409,SPAMnetsValid,2021.1.4,MacIntel,60.0024001,,,,,,,,,,,,,7,0.2091,0,75,75,96,1,,,,,,,,,,,,,,,,,,,,,,,,,,,,,,,,,,,,,,,,,,,,,,,,,,,,,,,,,,,,,,,,,,,,,,
,,,,7,0.1986,,,,,,88,cactus,melon,,88876,001,2022-04-25_20h18.18.409,SPAMnetsValid,2021.1.4,MacIntel,60.0024001,,,,,,,,,,,,,7,0.1986,0,76,76,38,1,,,,,,,,,,,,,,,,,,,,,,,,,,,,,,,,,,,,,,,,,,,,,,,,,,,,,,,,,,,,,,,,,,,,,,
,,,,7,0.1925,,,,,,42,garden,kitchen,,88876,001,2022-04-25_20h18.18.409,SPAMnetsValid,2021.1.4,MacIntel,60.0024001,,,,,,,,,,,,,7,0.1925,0,77,77,29,1,,,,,,,,,,,,,,,,,,,,,,,,,,,,,,,,,,,,,,,,,,,,,,,,,,,,,,,,,,,,,,,,,,,,,,
,,,,7,0.1968,,,,,,92,broom,flower,,88876,001,2022-04-25_20h18.18.409,SPAMnetsValid,2021.1.4,MacIntel,60.0024001,,,,,,,,,,,,,7,0.1968,0,78,78,88,1,,,,,,,,,,,,,,,,,,,,,,,,,,,,,,,,,,,,,,,,,,,,,,,,,,,,,,,,,,,,,,,,,,,,,,
,,,,7,0.1932,,,,,,30,cookie,pretzel,,88876,001,2022-04-25_20h18.18.409,SPAMnetsValid,2021.1.4,MacIntel,60.0024001,,,,,,,,,,,,,7,0.1932,0,79,79,78,1,,,,,,,,,,,,,,,,,,,,,,,,,,,,,,,,,,,,,,,,,,,,,,,,,,,,,,,,,,,,,,,,,,,,,,
,,,,7,0.2263,,,,,,17,carrot,melon,,88876,001,2022-04-25_20h18.18.409,SPAMnetsValid,2021.1.4,MacIntel,60.0024001,,,,,,,,,,,,,7,0.2263,0,80,80,24,1,,,,,,,,,,,,,,,,,,,,,,,,,,,,,,,,,,,,,,,,,,,,,,,,,,,,,,,,,,,,,,,,,,,,,,
,,,,7,0.192,,,,,,34,melon,oven,,88876,001,2022-04-25_20h18.18.409,SPAMnetsValid,2021.1.4,MacIntel,60.0024001,,,,,,,,,,,,,7,0.192,0,81,81,7,1,,,,,,,,,,,,,,,,,,,,,,,,,,,,,,,,,,,,,,,,,,,,,,,,,,,,,,,,,,,,,,,,,,,,,,
,,,,7,0.1925,,,,,,73,broom,chocolate,,88876,001,2022-04-25_20h18.18.409,SPAMnetsValid,2021.1.4,MacIntel,60.0024001,,,,,,,,,,,,,7,0.1925,0,82,82,47,1,,,,,,,,,,,,,,,,,,,,,,,,,,,,,,,,,,,,,,,,,,,,,,,,,,,,,,,,,,,,,,,,,,,,,,
,,,,7,0.1415,,,,,,46,garden,yogurt,,88876,001,2022-04-25_20h18.18.409,SPAMnetsValid,2021.1.4,MacIntel,60.0024001,,,,,,,,,,,,,7,0.1415,0,83,83,65,1,,,,,,,,,,,,,,,,,,,,,,,,,,,,,,,,,,,,,,,,,,,,,,,,,,,,,,,,,,,,,,,,,,,,,,
,,,,7,0.1481,,,,,,68,flower,tomato,,88876,001,2022-04-25_20h18.18.409,SPAMnetsValid,2021.1.4,MacIntel,60.0024001,,,,,,,,,,,,,7,0.1481,0,84,84,94,1,,,,,,,,,,,,,,,,,,,,,,,,,,,,,,,,,,,,,,,,,,,,,,,,,,,,,,,,,,,,,,,,,,,,,,
,,,,7,0.2923,,,,,,62,kitchen,rose,,88876,001,2022-04-25_20h18.18.409,SPAMnetsValid,2021.1.4,MacIntel,60.0024001,,,,,,,,,,,,,7,0.2923,0,85,85,57,1,,,,,,,,,,,,,,,,,,,,,,,,,,,,,,,,,,,,,,,,,,,,,,,,,,,,,,,,,,,,,,,,,,,,,,
,,,,7,0.16,,,,,,36,broom,kitchen,,88876,001,2022-04-25_20h18.18.409,SPAMnetsValid,2021.1.4,MacIntel,60.0024001,,,,,,,,,,,,,7,0.16,0,86,86,76,1,,,,,,,,,,,,,,,,,,,,,,,,,,,,,,,,,,,,,,,,,,,,,,,,,,,,,,,,,,,,,,,,,,,,,,
,,,,7,0.1078,,,,,,86,oven,rose,,88876,001,2022-04-25_20h18.18.409,SPAMnetsValid,2021.1.4,MacIntel,60.0024001,,,,,,,,,,,,,7,0.1078,0,87,87,79,1,,,,,,,,,,,,,,,,,,,,,,,,,,,,,,,,,,,,,,,,,,,,,,,,,,,,,,,,,,,,,,,,,,,,,,
,,,,7,0.2422,,,,,,26,tomato,yogurt,,88876,001,2022-04-25_20h18.18.409,SPAMnetsValid,2021.1.4,MacIntel,60.0024001,,,,,,,,,,,,,7,0.2422,0,88,88,13,1,,,,,,,,,,,,,,,,,,,,,,,,,,,,,,,,,,,,,,,,,,,,,,,,,,,,,,,,,,,,,,,,,,,,,,
,,,,7,0.0767,,,,,,37,garden,refrigerator,,88876,001,2022-04-25_20h18.18.409,SPAMnetsValid,2021.1.4,MacIntel,60.0024001,,,,,,,,,,,,,7,0.0767,0,89,89,11,1,,,,,,,,,,,,,,,,,,,,,,,,,,,,,,,,,,,,,,,,,,,,,,,,,,,,,,,,,,,,,,,,,,,,,,
,,,,7,0.217,,,,,,58,garden,oven,,88876,001,2022-04-25_20h18.18.409,SPAMnetsValid,2021.1.4,MacIntel,60.0024001,,,,,,,,,,,,,7,0.217,0,90,90,37,1,,,,,,,,,,,,,,,,,,,,,,,,,,,,,,,,,,,,,,,,,,,,,,,,,,,,,,,,,,,,,,,,,,,,,,
,,,,7,0.1963,,,,,,7,melon,tree,,88876,001,2022-04-25_20h18.18.409,SPAMnetsValid,2021.1.4,MacIntel,60.0024001,,,,,,,,,,,,,7,0.1963,0,91,91,77,1,,,,,,,,,,,,,,,,,,,,,,,,,,,,,,,,,,,,,,,,,,,,,,,,,,,,,,,,,,,,,,,,,,,,,,
,,,,7,0.2307,,,,,,91,microwave,rose,,88876,001,2022-04-25_20h18.18.409,SPAMnetsValid,2021.1.4,MacIntel,60.0024001,,,,,,,,,,,,,7,0.2307,0,92,92,84,1,,,,,,,,,,,,,,,,,,,,,,,,,,,,,,,,,,,,,,,,,,,,,,,,,,,,,,,,,,,,,,,,,,,,,,
,,,,7,0.2178,,,,,,56,cactus,tree,,88876,001,2022-04-25_20h18.18.409,SPAMnetsValid,2021.1.4,MacIntel,60.0024001,,,,,,,,,,,,,7,0.2178,0,93,93,21,1,,,,,,,,,,,,,,,,,,,,,,,,,,,,,,,,,,,,,,,,,,,,,,,,,,,,,,,,,,,,,,,,,,,,,,
,,,,7,0.1996,,,,,,48,flower,oven,,88876,001,2022-04-25_20h18.18.409,SPAMnetsValid,2021.1.4,MacIntel,60.0024001,,,,,,,,,,,,,7,0.1996,0,94,94,15,1,,,,,,,,,,,,,,,,,,,,,,,,,,,,,,,,,,,,,,,,,,,,,,,,,,,,,,,,,,,,,,,,,,,,,,
,,,,7,0.2463,,,,,,12,cookie,yogurt,,88876,001,2022-04-25_20h18.18.409,SPAMnetsValid,2021.1.4,MacIntel,60.0024001,,,,,,,,,,,,,7,0.2463,0,95,95,36,1,,,,,,,,,,,,,,,,,,,,,,,,,,,,,,,,,,,,,,,,,,,,,,,,,,,,,,,,,,,,,,,,,,,,,,
,,,,7,0.7483,,,,,,71,broom,rose,,88876,001,2022-04-25_20h18.18.409,SPAMnetsValid,2021.1.4,MacIntel,60.0024001,,,,,,,,,,,,,7,0.7483,0,96,96,61,1,,,,,,,,,,,,,,,,,,,,,,,,,,,,,,,,,,,,,,,,,,,,,,,,,,,,,,,,,,,,,,,,,,,,,,
,,,,,,,,,,,,,,,88876,001,2022-04-25_20h18.18.409,SPAMnetsValid,2021.1.4,MacIntel,60.0024001,,,,,,,,,,,,,,,,,,,,0,0,0,0,1,,,,,,,,,,,,,,,,,,,,,,,,,,,,,,,,,,,,,,,,,,,,,,,,,,,,,,,,,,,,,,,,,
,,,,,,,,,,,,,,,88876,001,2022-04-25_20h18.18.409,SPAMnetsValid,2021.1.4,MacIntel,60.0024001,,,,,,0,1,1,0,1,1,0,,,,,,,,,,,,,,,,,,,,,,,,,,,,,,,,,,,,,,,,,,,,,,,,,,,,,,,,,,,,,,,,,,,,,,,,,,,,,
,,,,,,,,,,,,,,,88876,001,2022-04-25_20h18.18.409,SPAMnetsValid,2021.1.4,MacIntel,60.0024001,,,,,,,,,,,,,,,,,,,,,,,,,3,1.9914,0,0,0,0,1,rancor,forbearance,ridicule,malice,bravery,3,,,,,,,,,,,,,,,,,,,,,,,,,,,,,,,,,,,,,,,,,,,,,,,,,,,,
,,,,,,,,,,,,,,,88876,001,2022-04-25_20h18.18.409,SPAMnetsValid,2021.1.4,MacIntel,60.0024001,,,,,,,,,,,,,,,,,,,,,,,,,3,0.7962,0,1,1,1,1,raucous,empty,quiet,smooth,harsh,4,,,,,,,,,,,,,,,,,,,,,,,,,,,,,,,,,,,,,,,,,,,,,,,,,,,,
,,,,,,,,,,,,,,,88876,001,2022-04-25_20h18.18.409,SPAMnetsValid,2021.1.4,MacIntel,60.0024001,,,,,,,,,,,,,,,,,,,,,,,,,3,0.4647,0,2,2,2,1,gargoyle,oil,medicine,carved waterspout,ugly building,3,,,,,,,,,,,,,,,,,,,,,,,,,,,,,,,,,,,,,,,,,,,,,,,,,,,,
,,,,,,,,,,,,,,,88876,001,2022-04-25_20h18.18.409,SPAMnetsValid,2021.1.4,MacIntel,60.0024001,,,,,,,,,,,,,,,,,,,,,,,,,,,0,3,3,3,1,recrudesce,purify,renew activity,lack refinement,crush,2,,,,,,,,,,,,,,,,,,,,,,,,,,,,,,,,,,,,,,,,,,,,,,,,,,,,
,,,,,,,,,,,,,,,88876,001,2022-04-25_20h18.18.409,SPAMnetsValid,2021.1.4,MacIntel,60.0024001,,,,,,,,,,,,,,,,,,,,,,,,,,,0,4,4,4,1,specious,"plausible, but not genuine",noteworthy,class or variety,roomy,1,,,,,,,,,,,,,,,,,,,,,,,,,,,,,,,,,,,,,,,,,,,,,,,,,,,,
,,,,,,,,,,,,,,,88876,001,2022-04-25_20h18.18.409,SPAMnetsValid,2021.1.4,MacIntel,60.0024001,,,,,,,,,,,,,,,,,,,,,,,,,3,0.7808,0,5,5,5,1,bauble,bubble,showy plaything,idle talk,confusion,2,,,,,,,,,,,,,,,,,,,,,,,,,,,,,,,,,,,,,,,,,,,,,,,,,,,,
,,,,,,,,,,,,,,,88876,001,2022-04-25_20h18.18.409,SPAMnetsValid,2021.1.4,MacIntel,60.0024001,,,,,,,,,,,,,,,,,,,,,,,,,3,0.7965,0,6,6,6,1,prolific,scarce,producing abundantly,reckless,speaking profanely,2,,,,,,,,,,,,,,,,,,,,,,,,,,,,,,,,,,,,,,,,,,,,,,,,,,,,
,,,,,,,,,,,,,,,88876,001,2022-04-25_20h18.18.409,SPAMnetsValid,2021.1.4,MacIntel,60.0024001,,,,,,,,,,,,,,,,,,,,,,,,,3,0.6175,0,7,7,7,1,opulent,party,wealthy,happy frame of mind,semiprecious stone,2,,,,,,,,,,,,,,,,,,,,,,,,,,,,,,,,,,,,,,,,,,,,,,,,,,,,
,,,,,,,,,,,,,,,88876,001,2022-04-25_20h18.18.409,SPAMnetsValid,2021.1.4,MacIntel,60.0024001,,,,,,,,,,,,,,,,,,,,,,,,,3,0.8995,0,8,8,8,1,coercion,conspiracy,strategy,restraint,attraction,3,,,,,,,,,,,,,,,,,,,,,,,,,,,,,,,,,,,,,,,,,,,,,,,,,,,,
,,,,,,,,,,,,,,,88876,001,2022-04-25_20h18.18.409,SPAMnetsValid,2021.1.4,MacIntel,60.0024001,,,,,,,,,,,,,,,,,,,,,,,,,3,0.8972,0,9,9,9,1,hiatus,animal,calamity,dread,gap,4,,,,,,,,,,,,,,,,,,,,,,,,,,,,,,,,,,,,,,,,,,,,,,,,,,,,
,,,,,,,,,,,,,,,88876,001,2022-04-25_20h18.18.409,SPAMnetsValid,2021.1.4,MacIntel,60.0024001,,,,,,,,,,,,,,,,,,,,,,,,,3,0.6839,0,10,10,10,1,germane,microbe,contagious,relevant,different,3,,,,,,,,,,,,,,,,,,,,,,,,,,,,,,,,,,,,,,,,,,,,,,,,,,,,
,,,,,,,,,,,,,,,88876,001,2022-04-25_20h18.18.409,SPAMnetsValid,2021.1.4,MacIntel,60.0024001,,,,,,,,,,,,,,,,,,,,,,,,,,,0,11,11,11,1,perfunctory,fundamental,formal,superficial,careful,3,,,,,,,,,,,,,,,,,,,,,,,,,,,,,,,,,,,,,,,,,,,,,,,,,,,,
,,,,,,,,,,,,,,,88876,001,2022-04-25_20h18.18.409,SPAMnetsValid,2021.1.4,MacIntel,60.0024001,,,,,,,,,,,,,,,,,,,,,,,,,3,0.7326,0,12,12,12,1,diverge,reveal,chant,distract the attention of,differ or turn off from,4,,,,,,,,,,,,,,,,,,,,,,,,,,,,,,,,,,,,,,,,,,,,,,,,,,,,
,,,,,,,,,,,,,,,88876,001,2022-04-25_20h18.18.409,SPAMnetsValid,2021.1.4,MacIntel,60.0024001,,,,,,,,,,,,,,,,,,,,,,,,,3,0.5381,0,13,13,13,1,evoke,take away,anger,connect,bring out,4,,,,,,,,,,,,,,,,,,,,,,,,,,,,,,,,,,,,,,,,,,,,,,,,,,,,
,,,,,,,,,,,,,,,88876,001,2022-04-25_20h18.18.409,SPAMnetsValid,2021.1.4,MacIntel,60.0024001,,,,,,,,,,,,,,,,,,,,,,,,,3,0.4477,0,14,14,14,1,pertinent,relevant,lying next to,necessary,bold,1,,,,,,,,,,,,,,,,,,,,,,,,,,,,,,,,,,,,,,,,,,,,,,,,,,,,
,,,,,,,,,,,,,,,88876,001,2022-04-25_20h18.18.409,SPAMnetsValid,2021.1.4,MacIntel,60.0024001,,,,,,,,,,,,,,,,,,,,,,,,,3,0.4814,0,15,15,15,1,holocaust,entirety,destruction,saintly,price,2,,,,,,,,,,,,,,,,,,,,,,,,,,,,,,,,,,,,,,,,,,,,,,,,,,,,
,,,,,,,,,,,,,,,88876,001,2022-04-25_20h18.18.409,SPAMnetsValid,2021.1.4,MacIntel,60.0024001,,,,,,,,,,,,,,,,,,,,,,,,,3,0.4652,0,16,16,16,1,piquant,mellow,fish,pungent,cloth,3,,,,,,,,,,,,,,,,,,,,,,,,,,,,,,,,,,,,,,,,,,,,,,,,,,,,
,,,,,,,,,,,,,,,88876,001,2022-04-25_20h18.18.409,SPAMnetsValid,2021.1.4,MacIntel,60.0024001,,,,,,,,,,,,,,,,,,,,,,,,,3,0.4495,0,17,17,17,1,firmament,foundation,heavens,strong,glue,2,,,,,,,,,,,,,,,,,,,,,,,,,,,,,,,,,,,,,,,,,,,,,,,,,,,,
,,,,,,,,,,,,,,,88876,001,2022-04-25_20h18.18.409,SPAMnetsValid,2021.1.4,MacIntel,60.0024001,,,,,,,,,,,,,,,,,,,,,,,,,,,,,,,,,,,,,,4,0.8776,0,0,0,0,1,marketable,partisan,jocular,marriageable,salable,essential,4,,,,,,,,,,,,,,,,,,,,,,,,,,,,,,,,,,,,,,
,,,,,,,,,,,,,,,88876,001,2022-04-25_20h18.18.409,SPAMnetsValid,2021.1.4,MacIntel,60.0024001,,,,,,,,,,,,,,,,,,,,,,,,,,,,,,,,,,,,,,4,0.4156,0,1,1,1,1,cottontail,squirrel,poplar,boa,marshy plant,rabbit,5,,,,,,,,,,,,,,,,,,,,,,,,,,,,,,,,,,,,,,
,,,,,,,,,,,,,,,88876,001,2022-04-25_20h18.18.409,SPAMnetsValid,2021.1.4,MacIntel,60.0024001,,,,,,,,,,,,,,,,,,,,,,,,,,,,,,,,,,,,,,4,0.4315,0,2,2,2,1,boggy,afraid,false,marshy,dense,black,3,,,,,,,,,,,,,,,,,,,,,,,,,,,,,,,,,,,,,,
,,,,,,,,,,,,,,,88876,001,2022-04-25_20h18.18.409,SPAMnetsValid,2021.1.4,MacIntel,60.0024001,,,,,,,,,,,,,,,,,,,,,,,,,,,,,,,,,,,,,,4,0.3813,0,3,3,3,1,gruesomeness,blackness,falseness,vindictiveness,drunkenness,ghastliness,5,,,,,,,,,,,,,,,,,,,,,,,,,,,,,,,,,,,,,,
,,,,,,,,,,,,,,,88876,001,2022-04-25_20h18.18.409,SPAMnetsValid,2021.1.4,MacIntel,60.0024001,,,,,,,,,,,,,,,,,,,,,,,,,,,,,,,,,,,,,,4,0.4477,0,4,4,4,1,loathing,diffidence,laziness,abhorrence,cleverness,comfort,3,,,,,,,,,,,,,,,,,,,,,,,,,,,,,,,,,,,,,,
,,,,,,,,,,,,,,,88876,001,2022-04-25_20h18.18.409,SPAMnetsValid,2021.1.4,MacIntel,60.0024001,,,,,,,,,,,,,,,,,,,,,,,,,,,,,,,,,,,,,,4,0.6003,0,5,5,5,1,bantam,fowl,ridicule,cripple,vegetable,ensign,1,,,,,,,,,,,,,,,,,,,,,,,,,,,,,,,,,,,,,,
,,,,,,,,,,,,,,,88876,001,2022-04-25_20h18.18.409,SPAMnetsValid,2021.1.4,MacIntel,60.0024001,,,,,,,,,,,,,,,,,,,,,,,,,,,,,,,,,,,,,,4,0.3817,0,6,6,6,1,evoke,wake up,surrender,reconnoiter,transcend,call forth,5,,,,,,,,,,,,,,,,,,,,,,,,,,,,,,,,,,,,,,
,,,,,,,,,,,,,,,88876,001,2022-04-25_20h18.18.409,SPAMnetsValid,2021.1.4,MacIntel,60.0024001,,,,,,,,,,,,,,,,,,,,,,,,,,,,,,,,,,,,,,4,0.4997,0,7,7,7,1,unobtrusive,unintelligent,epileptic,illogical,lineal,modest,5,,,,,,,,,,,,,,,,,,,,,,,,,,,,,,,,,,,,,,
,,,,,,,,,,,,,,,88876,001,2022-04-25_20h18.18.409,SPAMnetsValid,2021.1.4,MacIntel,60.0024001,,,,,,,,,,,,,,,,,,,,,,,,,,,,,,,,,,,,,,4,0.4454,0,8,8,8,1,terrain,ice cream,final test,tractor,area of ground,weight,4,,,,,,,,,,,,,,,,,,,,,,,,,,,,,,,,,,,,,,
,,,,,,,,,,,,,,,88876,001,2022-04-25_20h18.18.409,SPAMnetsValid,2021.1.4,MacIntel,60.0024001,,,,,,,,,,,,,,,,,,,,,,,,,,,,,,,,,,,,,,4,0.5139,0,9,9,9,1,capriciousness,stubbornness,courage,whimsicality,amazement,greediness,3,,,,,,,,,,,,,,,,,,,,,,,,,,,,,,,,,,,,,,
,,,,,,,,,,,,,,,88876,001,2022-04-25_20h18.18.409,SPAMnetsValid,2021.1.4,MacIntel,60.0024001,,,,,,,,,,,,,,,,,,,,,,,,,,,,,,,,,,,,,,4,0.3779,0,10,10,10,1,maelstrom,slander,whirlpool,enmity,armor,majolica,2,,,,,,,,,,,,,,,,,,,,,,,,,,,,,,,,,,,,,,
,,,,,,,,,,,,,,,88876,001,2022-04-25_20h18.18.409,SPAMnetsValid,2021.1.4,MacIntel,60.0024001,,,,,,,,,,,,,,,,,,,,,,,,,,,,,,,,,,,,,,4,0.3987,0,11,11,11,1,tentative,critical,conclusive,authentic,provisional,apprehensive,4,,,,,,,,,,,,,,,,,,,,,,,,,,,,,,,,,,,,,,
,,,,,,,,,,,,,,,88876,001,2022-04-25_20h18.18.409,SPAMnetsValid,2021.1.4,MacIntel,60.0024001,,,,,,,,,,,,,,,,,,,,,,,,,,,,,,,,,,,,,,4,0.4809,0,12,12,12,1,placate,rehabilitate,plagiarize,depredate,apprise,conciliate,5,,,,,,,,,,,,,,,,,,,,,,,,,,,,,,,,,,,,,,
,,,,,,,,,,,,,,,88876,001,2022-04-25_20h18.18.409,SPAMnetsValid,2021.1.4,MacIntel,60.0024001,,,,,,,,,,,,,,,,,,,,,,,,,,,,,,,,,,,,,,4,1.9587,0,13,13,13,1,surcease,enlightenment,cessation,inattention,censor,substitution,2,,,,,,,,,,,,,,,,,,,,,,,,,,,,,,,,,,,,,,
,,,,,,,,,,,,,,,88876,001,2022-04-25_20h18.18.409,SPAMnetsValid,2021.1.4,MacIntel,60.0024001,,,,,,,,,,,,,,,,,,,,,,,,,,,,,,,,,,,,,,,,0,14,14,14,1,apathetic,wandering,impassive,hateful,prophetic,overflowing,2,,,,,,,,,,,,,,,,,,,,,,,,,,,,,,,,,,,,,,
,,,,,,,,,,,,,,,88876,001,2022-04-25_20h18.18.409,SPAMnetsValid,2021.1.4,MacIntel,60.0024001,,,,,,,,,,,,,,,,,,,,,,,,,,,,,,,,,,,,,,4,0.3422,0,15,15,15,1,paternoster,paternalism,patricide,malediction,benediction,prayer,5,,,,,,,,,,,,,,,,,,,,,,,,,,,,,,,,,,,,,,
,,,,,,,,,,,,,,,88876,001,2022-04-25_20h18.18.409,SPAMnetsValid,2021.1.4,MacIntel,60.0024001,,,,,,,,,,,,,,,,,,,,,,,,,,,,,,,,,,,,,,4,0.2823,0,16,16,16,1,opalescence,opulence,senescence,bankruptcy,iridescence,assiduity,4,,,,,,,,,,,,,,,,,,,,,,,,,,,,,,,,,,,,,,
,,,,,,,,,,,,,,,88876,001,2022-04-25_20h18.18.409,SPAMnetsValid,2021.1.4,MacIntel,60.0024001,,,,,,,,,,,,,,,,,,,,,,,,,,,,,,,,,,,,,,4,0.2299,0,17,17,17,1,lush,stupid,luxurious,hazy,putrid,languishing,2,,,,,,,,,,,,,,,,,,,,,,,,,,,,,,,,,,,,,,
,,,,,,,,,,,,,,,88876,001,2022-04-25_20h18.18.409,SPAMnetsValid,2021.1.4,MacIntel,60.0024001,,,,,,,,,,,,,,,,,,,,,,,,,,,,,,,,,,,,,,4,0.2139,0,18,18,18,1,curtailment,expenditure,abandonment,abridgment,improvement,forgery,3,,,,,,,,,,,,,,,,,,,,,,,,,,,,,,,,,,,,,,
,,,,,,,,,,,,,,,88876,001,2022-04-25_20h18.18.409,SPAMnetsValid,2021.1.4,MacIntel,60.0024001,,,,,,,,,,,,,,,,,,,,,,,,,,,,,,,,,,,,,,4,0.2151,0,19,19,19,1,perversity,adversity,perviousness,travesty,waywardness,gentility,4,,,,,,,,,,,,,,,,,,,,,,,,,,,,,,,,,,,,,,
,,,,,,,,,,,,,,,88876,001,2022-04-25_20h18.18.409,SPAMnetsValid,2021.1.4,MacIntel,60.0024001,,,,,,,,,,,,,,,,,,,,,,,,,,,,,,,,,,,,,,4,0.2314,0,20,20,20,1,calumnious,complimentary,analogous,slanderous,tempestuous,magnanimous,3,,,,,,,,,,,,,,,,,,,,,,,,,,,,,,,,,,,,,,
,,,,,,,,,,,,,,,88876,001,2022-04-25_20h18.18.409,SPAMnetsValid,2021.1.4,MacIntel,60.0024001,,,,,,,,,,,,,,,,,,,,,,,,,,,,,,,,,,,,,,4,0.2573,0,21,21,21,1,illiberality,bigotry,imbecility,illegibility,cautery,immaturity,1,,,,,,,,,,,,,,,,,,,,,,,,,,,,,,,,,,,,,,
,,,,,,,,,,,,,,,88876,001,2022-04-25_20h18.18.409,SPAMnetsValid,2021.1.4,MacIntel,60.0024001,,,,,,,,,,,,,,,,,,,,,,,,,,,,,,,,,,,,,,4,0.2598,0,22,22,22,1,clabber,rejoice,gossip,curdle,crow,hobble,3,,,,,,,,,,,,,,,,,,,,,,,,,,,,,,,,,,,,,,
,,,,,,,,,,,,,,,88876,001,2022-04-25_20h18.18.409,SPAMnetsValid,2021.1.4,MacIntel,60.0024001,,,,,,,,,,,,,,,,,,,,,,,,,,,,,,,,,,,,,,4,0.8094,0,23,23,23,1,sedulousness,diligence,credulousness,seduction,perilousness,frankness,1,,,,,,,,,,,,,,,,,,,,,,,,,,,,,,,,,,,,,,
,,,,,,,,,,,,,,,88876,001,2022-04-25_20h18.18.409,SPAMnetsValid,2021.1.4,MacIntel,60.0024001,,,,,,,,,,,,,,,,,,,,,,,,,,,,,,,,,,,,,,,,,,,,,,,,,,,,water ,bucket,0,0,0,0,1,,,,,,,,,,,,,,,,,,,,,,,,,,,,,,,
,,,,,,,,,,,,,,,88876,001,2022-04-25_20h18.18.409,SPAMnetsValid,2021.1.4,MacIntel,60.0024001,,,,,,,,,,,,,,,,,,,,,,,,,,,,,,,,,,,,,,,,,,,,,,,,,,,,sand ,bucket,1,0,1,0,1,,,,,,,,,,,,,,,,,,,,,,,,,,,,,,,
,,,,,,,,,,,,,,,88876,001,2022-04-25_20h18.18.409,SPAMnetsValid,2021.1.4,MacIntel,60.0024001,,,,,,,,,,,,,,,,,,,,,,,,,,,,,,,,,,,,,,,,,,,,,,,,,,,,food ,bucket,2,0,2,0,1,,,,,,,,,,,,,,,,,,,,,,,,,,,,,,,
,,,,,,,,,,,,,,,88876,001,2022-04-25_20h18.18.409,SPAMnetsValid,2021.1.4,MacIntel,60.0024001,,,,,,,,,,,,,,,,,,,,,,,,,,,,,,,,,,,,,,,,,,,,,,,,,,,,shovel ,bucket,3,0,3,0,1,,,,,,,,,,,,,,,,,,,,,,,,,,,,,,,
,,,,,,,,,,,,,,,88876,001,2022-04-25_20h18.18.409,SPAMnetsValid,2021.1.4,MacIntel,60.0024001,,,,,,,,,,,,,,,,,,,,,,,,,,,,,,,,,,,,,,,,,,,,,,,,,,,,hat ,bucket,4,0,4,0,1,,,,,,,,,,,,,,,,,,,,,,,,,,,,,,,
,,,,,,,,,,,,,,,88876,001,2022-04-25_20h18.18.409,SPAMnetsValid,2021.1.4,MacIntel,60.0024001,,,,,,,,,,,,,,,,,,,,,,,,,,,,,,,,,,,,,,,,,,,,,,,,,,,,bin ,bucket,5,0,5,0,1,,,,,,,,,,,,,,,,,,,,,,,,,,,,,,,
,,,,,,,,,,,,,,,88876,001,2022-04-25_20h18.18.409,SPAMnetsValid,2021.1.4,MacIntel,60.0024001,,,,,,,,,,,,,,,,,,,,,,,,,,,,,,,,,,,,,,,,,,,,,,,,,,,,stuff ,bucket,6,0,6,0,1,,,,,,,,,,,,,,,,,,,,,,,,,,,,,,,
,,,,,,,,,,,,,,,88876,001,2022-04-25_20h18.18.409,SPAMnetsValid,2021.1.4,MacIntel,60.0024001,,,,,,,,,,,,,,,,,,,,,,,,,,,,,,,,,,,,,,,,,,,,,,,,,,,,,bucket,7,0,7,0,1,,,,,,,,,,,,,,,,,,,,,,,,,,,,,,,
,,,,,,,,,,,,,,,88876,001,2022-04-25_20h18.18.409,SPAMnetsValid,2021.1.4,MacIntel,60.0024001,,,,,,,,,,,,,,,,,,,,,,,,,,,,,,,,,,,,,,,,,,,,,,,,,,,,,bucket,8,0,8,0,1,,,,,,,,,,,,,,,,,,,,,,,,,,,,,,,
,,,,,,,,,,,,,,,88876,001,2022-04-25_20h18.18.409,SPAMnetsValid,2021.1.4,MacIntel,60.0024001,,,,,,,,,,,,,,,,,,,,,,,,,,,,,,,,,,,,,,,,,,,,,,,,,,,,,,,,,,,0,0,0,0,1,bucket,,,,,,,,,,,,,,,,,,,,,,,,,
,,,,,,,,,,,,,,,88876,001,2022-04-25_20h18.18.409,SPAMnetsValid,2021.1.4,MacIntel,60.0024001,,,,,,,,,,,,,,,,,,,,,,,,,,,,,,,,,,,,,,,,,,,,,,,,,,,,fire ,candle,0,0,0,0,1,,,,,,,,,,,,,,,,,,,,,,,,,,,,,,,
,,,,,,,,,,,,,,,88876,001,2022-04-25_20h18.18.409,SPAMnetsValid,2021.1.4,MacIntel,60.0024001,,,,,,,,,,,,,,,,,,,,,,,,,,,,,,,,,,,,,,,,,,,,,,,,,,,,hot ,candle,1,0,1,0,1,,,,,,,,,,,,,,,,,,,,,,,,,,,,,,,
,,,,,,,,,,,,,,,88876,001,2022-04-25_20h18.18.409,SPAMnetsValid,2021.1.4,MacIntel,60.0024001,,,,,,,,,,,,,,,,,,,,,,,,,,,,,,,,,,,,,,,,,,,,,,,,,,,,smell,candle,2,0,2,0,1,,,,,,,,,,,,,,,,,,,,,,,,,,,,,,,
,,,,,,,,,,,,,,,88876,001,2022-04-25_20h18.18.409,SPAMnetsValid,2021.1.4,MacIntel,60.0024001,,,,,,,,,,,,,,,,,,,,,,,,,,,,,,,,,,,,,,,,,,,,,,,,,,,,home ,candle,3,0,3,0,1,,,,,,,,,,,,,,,,,,,,,,,,,,,,,,,
,,,,,,,,,,,,,,,88876,001,2022-04-25_20h18.18.409,SPAMnetsValid,2021.1.4,MacIntel,60.0024001,,,,,,,,,,,,,,,,,,,,,,,,,,,,,,,,,,,,,,,,,,,,,,,,,,,,love ,candle,4,0,4,0,1,,,,,,,,,,,,,,,,,,,,,,,,,,,,,,,
,,,,,,,,,,,,,,,88876,001,2022-04-25_20h18.18.409,SPAMnetsValid,2021.1.4,MacIntel,60.0024001,,,,,,,,,,,,,,,,,,,,,,,,,,,,,,,,,,,,,,,,,,,,,,,,,,,,christmas ,candle,5,0,5,0,1,,,,,,,,,,,,,,,,,,,,,,,,,,,,,,,
,,,,,,,,,,,,,,,88876,001,2022-04-25_20h18.18.409,SPAMnetsValid,2021.1.4,MacIntel,60.0024001,,,,,,,,,,,,,,,,,,,,,,,,,,,,,,,,,,,,,,,,,,,,,,,,,,,,warmth ,candle,6,0,6,0,1,,,,,,,,,,,,,,,,,,,,,,,,,,,,,,,
,,,,,,,,,,,,,,,88876,001,2022-04-25_20h18.18.409,SPAMnetsValid,2021.1.4,MacIntel,60.0024001,,,,,,,,,,,,,,,,,,,,,,,,,,,,,,,,,,,,,,,,,,,,,,,,,,,,happy ,candle,7,0,7,0,1,,,,,,,,,,,,,,,,,,,,,,,,,,,,,,,
,,,,,,,,,,,,,,,88876,001,2022-04-25_20h18.18.409,SPAMnetsValid,2021.1.4,MacIntel,60.0024001,,,,,,,,,,,,,,,,,,,,,,,,,,,,,,,,,,,,,,,,,,,,,,,,,,,,safe ,candle,8,0,8,0,1,,,,,,,,,,,,,,,,,,,,,,,,,,,,,,,
,,,,,,,,,,,,,,,88876,001,2022-04-25_20h18.18.409,SPAMnetsValid,2021.1.4,MacIntel,60.0024001,,,,,,,,,,,,,,,,,,,,,,,,,,,,,,,,,,,,,,,,,,,,,,,,,,,,secure ,candle,9,0,9,0,1,,,,,,,,,,,,,,,,,,,,,,,,,,,,,,,
,,,,,,,,,,,,,,,88876,001,2022-04-25_20h18.18.409,SPAMnetsValid,2021.1.4,MacIntel,60.0024001,,,,,,,,,,,,,,,,,,,,,,,,,,,,,,,,,,,,,,,,,,,,,,,,,,,,,,,,,,,0,1,1,1,1,candle,,,,,,,,,,,,,,,,,,,,,,,,,
,,,,,,,,,,,,,,,88876,001,2022-04-25_20h18.18.409,SPAMnetsValid,2021.1.4,MacIntel,60.0024001,,,,,,,,,,,,,,,,,,,,,,,,,,,,,,,,,,,,,,,,,,,,,,,,,,,,bed,pillow,0,0,0,0,1,,,,,,,,,,,,,,,,,,,,,,,,,,,,,,,
,,,,,,,,,,,,,,,88876,001,2022-04-25_20h18.18.409,SPAMnetsValid,2021.1.4,MacIntel,60.0024001,,,,,,,,,,,,,,,,,,,,,,,,,,,,,,,,,,,,,,,,,,,,,,,,,,,,sleep ,pillow,1,0,1,0,1,,,,,,,,,,,,,,,,,,,,,,,,,,,,,,,
,,,,,,,,,,,,,,,88876,001,2022-04-25_20h18.18.409,SPAMnetsValid,2021.1.4,MacIntel,60.0024001,,,,,,,,,,,,,,,,,,,,,,,,,,,,,,,,,,,,,,,,,,,,,,,,,,,,comfy ,pillow,2,0,2,0,1,,,,,,,,,,,,,,,,,,,,,,,,,,,,,,,
,,,,,,,,,,,,,,,88876,001,2022-04-25_20h18.18.409,SPAMnetsValid,2021.1.4,MacIntel,60.0024001,,,,,,,,,,,,,,,,,,,,,,,,,,,,,,,,,,,,,,,,,,,,,,,,,,,,tired ,pillow,3,0,3,0,1,,,,,,,,,,,,,,,,,,,,,,,,,,,,,,,
,,,,,,,,,,,,,,,88876,001,2022-04-25_20h18.18.409,SPAMnetsValid,2021.1.4,MacIntel,60.0024001,,,,,,,,,,,,,,,,,,,,,,,,,,,,,,,,,,,,,,,,,,,,,,,,,,,,relax ,pillow,4,0,4,0,1,,,,,,,,,,,,,,,,,,,,,,,,,,,,,,,
,,,,,,,,,,,,,,,88876,001,2022-04-25_20h18.18.409,SPAMnetsValid,2021.1.4,MacIntel,60.0024001,,,,,,,,,,,,,,,,,,,,,,,,,,,,,,,,,,,,,,,,,,,,,,,,,,,,,,,,,,,0,2,2,2,1,pillow,,,,,,,,,,,,,,,,,,,,,,,,,
,,,,,,,,,,,,,,,88876,001,2022-04-25_20h18.18.409,SPAMnetsValid,2021.1.4,MacIntel,60.0024001,,,,,,,,,,,,,,,,,,,,,,,,,,,,,,,,,,,,,,,,,,,,,,,,,,,,,,,,,,,,,,,,,,Animals,0,0,0,0,1,,,,,,,,,,,,,,,,,,
,,,,,,,,,,,,,,,88876,001,2022-04-25_20h18.18.409,SPAMnetsValid,2021.1.4,MacIntel,60.0024001,,,,,,,,,,,,,,,,,,,,,,,,,,,,,,,,,,,,,,,,,,,,,,,,,,,,,,,,,,,,,,,,,,Animals,1,0,1,0,1,,,,,,,,,,,,,,,,,,
,,,,,,,,,,,,,,,88876,001,2022-04-25_20h18.18.409,SPAMnetsValid,2021.1.4,MacIntel,60.0024001,,,,,,,,,,,,,,,,,,,,,,,,,,,,,,,,,,,,,,,,,,,,,,,,,,,,,,,,,,,,,,,,,,Animals,2,0,2,0,1,,,,,,,,,,,,,,,,,,
,,,,,,,,,,,,,,,88876,001,2022-04-25_20h18.18.409,SPAMnetsValid,2021.1.4,MacIntel,60.0024001,,,,,,,,,,,,,,,,,,,,,,,,,,,,,,,,,,,,,,,,,,,,,,,,,,,,,,,,,,,,,,,,,,Animals,3,0,3,0,1,,,,,,,,,,,,,,,,,,
,,,,,,,,,,,,,,,88876,001,2022-04-25_20h18.18.409,SPAMnetsValid,2021.1.4,MacIntel,60.0024001,,,,,,,,,,,,,,,,,,,,,,,,,,,,,,,,,,,,,,,,,,,,,,,,,,,,,,,,,,,,,,,,,,Animals,4,0,4,0,1,,,,,,,,,,,,,,,,,,
,,,,,,,,,,,,,,,88876,001,2022-04-25_20h18.18.409,SPAMnetsValid,2021.1.4,MacIntel,60.0024001,,,,,,,,,,,,,,,,,,,,,,,,,,,,,,,,,,,,,,,,,,,,,,,,,,,,,,,,,,,,,,,,,     dog ,Animals,5,0,5,0,1,,,,,,,,,,,,,,,,,,
,,,,,,,,,,,,,,,88876,001,2022-04-25_20h18.18.409,SPAMnetsValid,2021.1.4,MacIntel,60.0024001,,,,,,,,,,,,,,,,,,,,,,,,,,,,,,,,,,,,,,,,,,,,,,,,,,,,,,,,,,,,,,,,,cat ,Animals,6,0,6,0,1,,,,,,,,,,,,,,,,,,
,,,,,,,,,,,,,,,88876,001,2022-04-25_20h18.18.409,SPAMnetsValid,2021.1.4,MacIntel,60.0024001,,,,,,,,,,,,,,,,,,,,,,,,,,,,,,,,,,,,,,,,,,,,,,,,,,,,,,,,,,,,,,,,,fish ,Animals,7,0,7,0,1,,,,,,,,,,,,,,,,,,
,,,,,,,,,,,,,,,88876,001,2022-04-25_20h18.18.409,SPAMnetsValid,2021.1.4,MacIntel,60.0024001,,,,,,,,,,,,,,,,,,,,,,,,,,,,,,,,,,,,,,,,,,,,,,,,,,,,,,,,,,,,,,,,,giraffe ,Animals,8,0,8,0,1,,,,,,,,,,,,,,,,,,
,,,,,,,,,,,,,,,88876,001,2022-04-25_20h18.18.409,SPAMnetsValid,2021.1.4,MacIntel,60.0024001,,,,,,,,,,,,,,,,,,,,,,,,,,,,,,,,,,,,,,,,,,,,,,,,,,,,,,,,,,,,,,,,,,,,,,,,0,0,0,0,1,Animals,,,,,,,,,,,,
,,,,,,,,,,,,,,,88876,001,2022-04-25_20h18.18.409,SPAMnetsValid,2021.1.4,MacIntel,60.0024001,,,,,,,,,,,,,,,,,,,,,,,,,,,,,,,,,,,,,,,,,,,,,,,,,,,,,,,,,,,,,,,,,,,,,,,,,,,,,,3,2.3919,0,0,0,0,1,"I enjoy concentrating on a fantasy or daydream and exploring all its possibilities, letting it grow and develop.",0,1,,
,,,,,,,,,,,,,,,88876,001,2022-04-25_20h18.18.409,SPAMnetsValid,2021.1.4,MacIntel,60.0024001,,,,,,,,,,,,,,,,,,,,,,,,,,,,,,,,,,,,,,,,,,,,,,,,,,,,,,,,,,,,,,,,,,,,,,,,,,,,,,3,1.0803,0,1,1,1,1,I think it's interesting to learn and develop new hobbies.,0,2,,
,,,,,,,,,,,,,,,88876,001,2022-04-25_20h18.18.409,SPAMnetsValid,2021.1.4,MacIntel,60.0024001,,,,,,,,,,,,,,,,,,,,,,,,,,,,,,,,,,,,,,,,,,,,,,,,,,,,,,,,,,,,,,,,,,,,,,,,,,,,,,3,1.6332,0,2,2,2,1,I am intrigued by the patterns I find in art and nature.,0,3,,
,,,,,,,,,,,,,,,88876,001,2022-04-25_20h18.18.409,SPAMnetsValid,2021.1.4,MacIntel,60.0024001,,,,,,,,,,,,,,,,,,,,,,,,,,,,,,,,,,,,,,,,,,,,,,,,,,,,,,,,,,,,,,,,,,,,,,,,,,,,,,3,0.6994,0,3,3,3,1,I believe letting students hear controversial speakers can only confuse and mislead them.,1,4,,
,,,,,,,,,,,,,,,88876,001,2022-04-25_20h18.18.409,SPAMnetsValid,2021.1.4,MacIntel,60.0024001,,,,,,,,,,,,,,,,,,,,,,,,,,,,,,,,,,,,,,,,,,,,,,,,,,,,,,,,,,,,,,,,,,,,,,,,,,,,,,3,0.449,0,4,4,4,1,Poetry has little or no effect on me.,1,5,,
,,,,,,,,,,,,,,,88876,001,2022-04-25_20h18.18.409,SPAMnetsValid,2021.1.4,MacIntel,60.0024001,,,,,,,,,,,,,,,,,,,,,,,,,,,,,,,,,,,,,,,,,,,,,,,,,,,,,,,,,,,,,,,,,,,,,,,,,,,,,,3,0.3072,0,5,5,5,1,I would have difficulty just letting my mind wander without control or guidance.,1,6,,
,,,,,,,,,,,,,,,88876,001,2022-04-25_20h18.18.409,SPAMnetsValid,2021.1.4,MacIntel,60.0024001,,,,,,,,,,,,,,,,,,,,,,,,,,,,,,,,,,,,,,,,,,,,,,,,,,,,,,,,,,,,,,,,,,,,,,,,,,,,,,3,0.3829,0,6,6,6,1,I seldom notice the moods or feelings that different environments produce.,1,7,,
,,,,,,,,,,,,,,,88876,001,2022-04-25_20h18.18.409,SPAMnetsValid,2021.1.4,MacIntel,60.0024001,,,,,,,,,,,,,,,,,,,,,,,,,,,,,,,,,,,,,,,,,,,,,,,,,,,,,,,,,,,,,,,,,,,,,,,,,,,,,,3,0.4673,0,7,7,7,1,I experience a wide range of emotions or feelings.,0,8,,
,,,,,,,,,,,,,,,88876,001,2022-04-25_20h18.18.409,SPAMnetsValid,2021.1.4,MacIntel,60.0024001,,,,,,,,,,,,,,,,,,,,,,,,,,,,,,,,,,,,,,,,,,,,,,,,,,,,,,,,,,,,,,,,,,,,,,,,,,,,,,3,0.0317,0,8,8,8,1,"Sometimes when I am reading poetry or looking at a work of art, I feel a chill or wave of excitement.",0,9,,
,,,,,,,,,,,,,,,88876,001,2022-04-25_20h18.18.409,SPAMnetsValid,2021.1.4,MacIntel,60.0024001,,,,,,,,,,,,,,,,,,,,,,,,,,,,,,,,,,,,,,,,,,,,,,,,,,,,,,,,,,,,,,,,,,,,,,,,,,,,,,3,0.0378,0,9,9,9,1,I have little interest in speculating on the nature of the universe or the human condition.,1,10,,
,,,,,,,,,,,,,,,88876,001,2022-04-25_20h18.18.409,SPAMnetsValid,2021.1.4,MacIntel,60.0024001,,,,,,,,,,,,,,,,,,,,,,,,,,,,,,,,,,,,,,,,,,,,,,,,,,,,,,,,,,,,,,,,,,,,,,,,,,,,,,3,0.0982,0,10,10,10,1,I have a lot of intellectual curiosity.,0,11,,
,,,,,,,,,,,,,,,88876,001,2022-04-25_20h18.18.409,SPAMnetsValid,2021.1.4,MacIntel,60.0024001,,,,,,,,,,,,,,,,,,,,,,,,,,,,,,,,,,,,,,,,,,,,,,,,,,,,,,,,,,,,,,,,,,,,,,,,,,,,,,3,0.0963,0,11,11,11,1,I often enjoy playing with theories or abstract ideas.,0,12,,
,,,,,,,,,,,,,,,88876,001,2022-04-25_20h18.18.409,SPAMnetsValid,2021.1.4,MacIntel,60.0024001,,,,,,,,,,,,,,,,,,,,,,,,,,,,,,,,,,,,,,,,,,,,,,,,,,,,,,,,,,,,,,,,,,,,,,,,,,,,,,,,,,,,,,,,return,2.0194
