key_resp_3.keys,key_resp_3.rt,slider_2.response,slider_2.rt,rjt_rating,rjt_RT,trials_24.thisRepN,trials_24.thisTrialN,trials_24.thisN,trials_24.thisIndex,trials_24.ran,rjt_order,word1,word2,attention,participant,session,date,expName,psychopyVersion,OS,frameRate,trials_4.thisRepN,trials_4.thisTrialN,trials_4.thisN,trials_4.thisIndex,trials_4.ran,trials_5.thisRepN,trials_5.thisTrialN,trials_5.thisN,trials_5.thisIndex,trials_5.ran,repOne,repTwo,slider.response,slider.rt,trials_22.thisRepN,trials_22.thisTrialN,trials_22.thisN,trials_22.thisIndex,trials_22.ran,trials_99.thisRepN,trials_99.thisTrialN,trials_99.thisN,trials_99.thisIndex,trials_99.ran,slider_extend_2.response,slider_extend_2.rt,trials_6.thisRepN,trials_6.thisTrialN,trials_6.thisN,trials_6.thisIndex,trials_6.ran,vCue2,R1,R2,R3,R4,correct,sliderVocab.response,sliderVocab.rt,trials_7.thisRepN,trials_7.thisTrialN,trials_7.thisN,trials_7.thisIndex,trials_7.ran,VocabCue,VR1,VR2,VR3,VR4,VR5,VocabCorrect,AUT_resp,AUT_label,trials.thisRepN,trials.thisTrialN,trials.thisN,trials.thisIndex,trials.ran,trials_2.thisRepN,trials_2.thisTrialN,trials_2.thisN,trials_2.thisIndex,trials_2.ran,aut_prompt,VF_response,VF_tag,trials_16.thisRepN,trials_16.thisTrialN,trials_16.thisN,trials_16.thisIndex,trials_16.ran,trials_17.thisRepN,trials_17.thisTrialN,trials_17.thisN,trials_17.thisIndex,trials_17.ran,VFcond,open_slider.response,open_slider.rt,trials_3.thisRepN,trials_3.thisTrialN,trials_3.thisN,trials_3.thisIndex,trials_3.ran,OpenQ,Rev,OPEN_ORDER,key_resp_2.keys,key_resp_2.rt
return,0.789,9,9.85,9,9.85,0,0,0,44,1,116,cake,chocolate,,88897,001,2022-04-29_14h42.24.789,SPAMnetsValid,2021.1.4,MacIntel,58.82352941,,,,,,,,,,,,,,,,,,,,,,,,,,,,,,,,,,,,,,,,,,,,,,,,,,,,,,,,,,,,,,,,,,,,,,,,,,,,,,,,,,,,,,,,,
,,9,5.055,9,5.055,0,1,1,14,1,120,microwave,oven,,88897,001,2022-04-29_14h42.24.789,SPAMnetsValid,2021.1.4,MacIntel,58.82352941,,,,,,,,,,,,,,,,,,,,,,,,,,,,,,,,,,,,,,,,,,,,,,,,,,,,,,,,,,,,,,,,,,,,,,,,,,,,,,,,,,,,,,,,,
,,7,2.455,7,2.455,0,2,2,11,1,117,melon,strawberry,,88897,001,2022-04-29_14h42.24.789,SPAMnetsValid,2021.1.4,MacIntel,58.82352941,,,,,,,,,,,,,,,,,,,,,,,,,,,,,,,,,,,,,,,,,,,,,,,,,,,,,,,,,,,,,,,,,,,,,,,,,,,,,,,,,,,,,,,,,
,,1,2.268,1,2.268,0,3,3,85,1,115,refrigerator,tomato,,88897,001,2022-04-29_14h42.24.789,SPAMnetsValid,2021.1.4,MacIntel,58.82352941,,,,,,,,,,,,,,,,,,,,,,,,,,,,,,,,,,,,,,,,,,,,,,,,,,,,,,,,,,,,,,,,,,,,,,,,,,,,,,,,,,,,,,,,,
,,1,7.231,1,7.231,0,4,4,75,1,178,cactus,carrot,,88897,001,2022-04-29_14h42.24.789,SPAMnetsValid,2021.1.4,MacIntel,58.82352941,,,,,,,,,,,,,,,,,,,,,,,,,,,,,,,,,,,,,,,,,,,,,,,,,,,,,,,,,,,,,,,,,,,,,,,,,,,,,,,,,,,,,,,,,
,,4,1.893,4,1.893,0,5,5,26,1,107,rose,tomato,,88897,001,2022-04-29_14h42.24.789,SPAMnetsValid,2021.1.4,MacIntel,58.82352941,,,,,,,,,,,,,,,,,,,,,,,,,,,,,,,,,,,,,,,,,,,,,,,,,,,,,,,,,,,,,,,,,,,,,,,,,,,,,,,,,,,,,,,,,
,,1,2.47,1,2.47,0,6,6,37,1,139,carrot,strawberry,,88897,001,2022-04-29_14h42.24.789,SPAMnetsValid,2021.1.4,MacIntel,58.82352941,,,,,,,,,,,,,,,,,,,,,,,,,,,,,,,,,,,,,,,,,,,,,,,,,,,,,,,,,,,,,,,,,,,,,,,,,,,,,,,,,,,,,,,,,
,,1,1.14,1,1.14,0,7,7,89,1,140,cookie,refrigerator,,88897,001,2022-04-29_14h42.24.789,SPAMnetsValid,2021.1.4,MacIntel,58.82352941,,,,,,,,,,,,,,,,,,,,,,,,,,,,,,,,,,,,,,,,,,,,,,,,,,,,,,,,,,,,,,,,,,,,,,,,,,,,,,,,,,,,,,,,,
,,1,1.167,1,1.167,0,8,8,18,1,119,strawberry,tree,,88897,001,2022-04-29_14h42.24.789,SPAMnetsValid,2021.1.4,MacIntel,58.82352941,,,,,,,,,,,,,,,,,,,,,,,,,,,,,,,,,,,,,,,,,,,,,,,,,,,,,,,,,,,,,,,,,,,,,,,,,,,,,,,,,,,,,,,,,
,,1,0.929,1,0.929,0,9,9,30,1,125,carrot,tree,,88897,001,2022-04-29_14h42.24.789,SPAMnetsValid,2021.1.4,MacIntel,58.82352941,,,,,,,,,,,,,,,,,,,,,,,,,,,,,,,,,,,,,,,,,,,,,,,,,,,,,,,,,,,,,,,,,,,,,,,,,,,,,,,,,,,,,,,,,
,,9,2.05,9,2.05,0,10,10,25,1,194,cactus,cactus,CHECK,88897,001,2022-04-29_14h42.24.789,SPAMnetsValid,2021.1.4,MacIntel,58.82352941,,,,,,,,,,,,,,,,,,,,,,,,,,,,,,,,,,,,,,,,,,,,,,,,,,,,,,,,,,,,,,,,,,,,,,,,,,,,,,,,,,,,,,,,,
,,1,2.008,1,2.008,0,11,11,46,1,123,cookie,tree,,88897,001,2022-04-29_14h42.24.789,SPAMnetsValid,2021.1.4,MacIntel,58.82352941,,,,,,,,,,,,,,,,,,,,,,,,,,,,,,,,,,,,,,,,,,,,,,,,,,,,,,,,,,,,,,,,,,,,,,,,,,,,,,,,,,,,,,,,,
,,1,2.093,1,2.093,0,12,12,4,1,109,broom,strawberry,,88897,001,2022-04-29_14h42.24.789,SPAMnetsValid,2021.1.4,MacIntel,58.82352941,,,,,,,,,,,,,,,,,,,,,,,,,,,,,,,,,,,,,,,,,,,,,,,,,,,,,,,,,,,,,,,,,,,,,,,,,,,,,,,,,,,,,,,,,
,,3,2.533,3,2.533,0,13,13,10,1,118,chocolate,oven,,88897,001,2022-04-29_14h42.24.789,SPAMnetsValid,2021.1.4,MacIntel,58.82352941,,,,,,,,,,,,,,,,,,,,,,,,,,,,,,,,,,,,,,,,,,,,,,,,,,,,,,,,,,,,,,,,,,,,,,,,,,,,,,,,,,,,,,,,,
,,1,1.509,1,1.509,0,14,14,13,1,105,cactus,oven,,88897,001,2022-04-29_14h42.24.789,SPAMnetsValid,2021.1.4,MacIntel,58.82352941,,,,,,,,,,,,,,,,,,,,,,,,,,,,,,,,,,,,,,,,,,,,,,,,,,,,,,,,,,,,,,,,,,,,,,,,,,,,,,,,,,,,,,,,,
,,9,1.935,9,1.935,0,15,15,17,1,99,garden,melon,,88897,001,2022-04-29_14h42.24.789,SPAMnetsValid,2021.1.4,MacIntel,58.82352941,,,,,,,,,,,,,,,,,,,,,,,,,,,,,,,,,,,,,,,,,,,,,,,,,,,,,,,,,,,,,,,,,,,,,,,,,,,,,,,,,,,,,,,,,
,,9,2.215,9,2.215,0,16,16,1,1,173,kitchen,tomato,,88897,001,2022-04-29_14h42.24.789,SPAMnetsValid,2021.1.4,MacIntel,58.82352941,,,,,,,,,,,,,,,,,,,,,,,,,,,,,,,,,,,,,,,,,,,,,,,,,,,,,,,,,,,,,,,,,,,,,,,,,,,,,,,,,,,,,,,,,
,,9,3.775,9,3.775,0,17,17,47,1,167,carrot,garden,,88897,001,2022-04-29_14h42.24.789,SPAMnetsValid,2021.1.4,MacIntel,58.82352941,,,,,,,,,,,,,,,,,,,,,,,,,,,,,,,,,,,,,,,,,,,,,,,,,,,,,,,,,,,,,,,,,,,,,,,,,,,,,,,,,,,,,,,,,
,,1,3.343,1,3.343,0,18,18,24,1,169,onion,yogurt,,88897,001,2022-04-29_14h42.24.789,SPAMnetsValid,2021.1.4,MacIntel,58.82352941,,,,,,,,,,,,,,,,,,,,,,,,,,,,,,,,,,,,,,,,,,,,,,,,,,,,,,,,,,,,,,,,,,,,,,,,,,,,,,,,,,,,,,,,,
,,7,5.222,7,5.222,0,19,19,41,1,175,melon,onion,,88897,001,2022-04-29_14h42.24.789,SPAMnetsValid,2021.1.4,MacIntel,58.82352941,,,,,,,,,,,,,,,,,,,,,,,,,,,,,,,,,,,,,,,,,,,,,,,,,,,,,,,,,,,,,,,,,,,,,,,,,,,,,,,,,,,,,,,,,
,,9,3.768,9,3.768,0,20,20,27,1,158,cookie,oven,,88897,001,2022-04-29_14h42.24.789,SPAMnetsValid,2021.1.4,MacIntel,58.82352941,,,,,,,,,,,,,,,,,,,,,,,,,,,,,,,,,,,,,,,,,,,,,,,,,,,,,,,,,,,,,,,,,,,,,,,,,,,,,,,,,,,,,,,,,
,,1,1.974,1,1.974,0,21,21,32,1,182,flower,refrigerator,,88897,001,2022-04-29_14h42.24.789,SPAMnetsValid,2021.1.4,MacIntel,58.82352941,,,,,,,,,,,,,,,,,,,,,,,,,,,,,,,,,,,,,,,,,,,,,,,,,,,,,,,,,,,,,,,,,,,,,,,,,,,,,,,,,,,,,,,,,
,,9,2.575,9,2.575,0,22,22,7,1,188,flower,tree,,88897,001,2022-04-29_14h42.24.789,SPAMnetsValid,2021.1.4,MacIntel,58.82352941,,,,,,,,,,,,,,,,,,,,,,,,,,,,,,,,,,,,,,,,,,,,,,,,,,,,,,,,,,,,,,,,,,,,,,,,,,,,,,,,,,,,,,,,,
,,1,4.023,1,4.023,0,23,23,12,1,162,microwave,tomato,,88897,001,2022-04-29_14h42.24.789,SPAMnetsValid,2021.1.4,MacIntel,58.82352941,,,,,,,,,,,,,,,,,,,,,,,,,,,,,,,,,,,,,,,,,,,,,,,,,,,,,,,,,,,,,,,,,,,,,,,,,,,,,,,,,,,,,,,,,
,,1,1.718,1,1.718,0,24,24,34,1,153,carrot,pretzel,,88897,001,2022-04-29_14h42.24.789,SPAMnetsValid,2021.1.4,MacIntel,58.82352941,,,,,,,,,,,,,,,,,,,,,,,,,,,,,,,,,,,,,,,,,,,,,,,,,,,,,,,,,,,,,,,,,,,,,,,,,,,,,,,,,,,,,,,,,
,,1,1.207,1,1.207,0,25,25,78,1,132,broom,tree,,88897,001,2022-04-29_14h42.24.789,SPAMnetsValid,2021.1.4,MacIntel,58.82352941,,,,,,,,,,,,,,,,,,,,,,,,,,,,,,,,,,,,,,,,,,,,,,,,,,,,,,,,,,,,,,,,,,,,,,,,,,,,,,,,,,,,,,,,,
,,1,1.975,1,1.975,0,26,26,77,1,172,kitchen,melon,,88897,001,2022-04-29_14h42.24.789,SPAMnetsValid,2021.1.4,MacIntel,58.82352941,,,,,,,,,,,,,,,,,,,,,,,,,,,,,,,,,,,,,,,,,,,,,,,,,,,,,,,,,,,,,,,,,,,,,,,,,,,,,,,,,,,,,,,,,
,,3,6.898,3,6.898,0,27,27,48,1,186,kitchen,yogurt,,88897,001,2022-04-29_14h42.24.789,SPAMnetsValid,2021.1.4,MacIntel,58.82352941,,,,,,,,,,,,,,,,,,,,,,,,,,,,,,,,,,,,,,,,,,,,,,,,,,,,,,,,,,,,,,,,,,,,,,,,,,,,,,,,,,,,,,,,,
,,7,6.322,7,6.322,0,28,28,93,1,134,carrot,flower,,88897,001,2022-04-29_14h42.24.789,SPAMnetsValid,2021.1.4,MacIntel,58.82352941,,,,,,,,,,,,,,,,,,,,,,,,,,,,,,,,,,,,,,,,,,,,,,,,,,,,,,,,,,,,,,,,,,,,,,,,,,,,,,,,,,,,,,,,,
,,2,1.985,2,1.985,0,29,29,57,1,127,cactus,chocolate,,88897,001,2022-04-29_14h42.24.789,SPAMnetsValid,2021.1.4,MacIntel,58.82352941,,,,,,,,,,,,,,,,,,,,,,,,,,,,,,,,,,,,,,,,,,,,,,,,,,,,,,,,,,,,,,,,,,,,,,,,,,,,,,,,,,,,,,,,,
,,9,2.384,9,2.384,0,30,30,53,1,177,chocolate,strawberry,,88897,001,2022-04-29_14h42.24.789,SPAMnetsValid,2021.1.4,MacIntel,58.82352941,,,,,,,,,,,,,,,,,,,,,,,,,,,,,,,,,,,,,,,,,,,,,,,,,,,,,,,,,,,,,,,,,,,,,,,,,,,,,,,,,,,,,,,,,
,,3,1.959,3,1.959,0,31,31,64,1,157,refrigerator,rose,,88897,001,2022-04-29_14h42.24.789,SPAMnetsValid,2021.1.4,MacIntel,58.82352941,,,,,,,,,,,,,,,,,,,,,,,,,,,,,,,,,,,,,,,,,,,,,,,,,,,,,,,,,,,,,,,,,,,,,,,,,,,,,,,,,,,,,,,,,
,,9,17.338,9,17.338,0,32,32,22,1,142,garden,tree,,88897,001,2022-04-29_14h42.24.789,SPAMnetsValid,2021.1.4,MacIntel,58.82352941,,,,,,,,,,,,,,,,,,,,,,,,,,,,,,,,,,,,,,,,,,,,,,,,,,,,,,,,,,,,,,,,,,,,,,,,,,,,,,,,,,,,,,,,,
,,9,1.776,9,1.776,0,33,33,9,1,176,cactus,tomato,,88897,001,2022-04-29_14h42.24.789,SPAMnetsValid,2021.1.4,MacIntel,58.82352941,,,,,,,,,,,,,,,,,,,,,,,,,,,,,,,,,,,,,,,,,,,,,,,,,,,,,,,,,,,,,,,,,,,,,,,,,,,,,,,,,,,,,,,,,
,,9,1.978,9,1.978,0,34,34,66,1,150,microwave,refrigerator,,88897,001,2022-04-29_14h42.24.789,SPAMnetsValid,2021.1.4,MacIntel,58.82352941,,,,,,,,,,,,,,,,,,,,,,,,,,,,,,,,,,,,,,,,,,,,,,,,,,,,,,,,,,,,,,,,,,,,,,,,,,,,,,,,,,,,,,,,,
,,8,1.823,8,1.823,0,35,35,81,1,104,garden,microwave,,88897,001,2022-04-29_14h42.24.789,SPAMnetsValid,2021.1.4,MacIntel,58.82352941,,,,,,,,,,,,,,,,,,,,,,,,,,,,,,,,,,,,,,,,,,,,,,,,,,,,,,,,,,,,,,,,,,,,,,,,,,,,,,,,,,,,,,,,,
,,1,1.88,1,1.88,0,36,36,49,1,152,cactus,strawberry,,88897,001,2022-04-29_14h42.24.789,SPAMnetsValid,2021.1.4,MacIntel,58.82352941,,,,,,,,,,,,,,,,,,,,,,,,,,,,,,,,,,,,,,,,,,,,,,,,,,,,,,,,,,,,,,,,,,,,,,,,,,,,,,,,,,,,,,,,,
,,8,2.298,8,2.298,0,37,37,73,1,135,carrot,oven,,88897,001,2022-04-29_14h42.24.789,SPAMnetsValid,2021.1.4,MacIntel,58.82352941,,,,,,,,,,,,,,,,,,,,,,,,,,,,,,,,,,,,,,,,,,,,,,,,,,,,,,,,,,,,,,,,,,,,,,,,,,,,,,,,,,,,,,,,,
,,2,23.231,2,23.231,0,38,38,95,1,121,broom,microwave,,88897,001,2022-04-29_14h42.24.789,SPAMnetsValid,2021.1.4,MacIntel,58.82352941,,,,,,,,,,,,,,,,,,,,,,,,,,,,,,,,,,,,,,,,,,,,,,,,,,,,,,,,,,,,,,,,,,,,,,,,,,,,,,,,,,,,,,,,,
,,2,29.522,2,29.522,0,39,39,80,1,146,pretzel,tree,,88897,001,2022-04-29_14h42.24.789,SPAMnetsValid,2021.1.4,MacIntel,58.82352941,,,,,,,,,,,,,,,,,,,,,,,,,,,,,,,,,,,,,,,,,,,,,,,,,,,,,,,,,,,,,,,,,,,,,,,,,,,,,,,,,,,,,,,,,
,,1,1.443,1,1.443,0,40,40,45,1,179,broom,oven,,88897,001,2022-04-29_14h42.24.789,SPAMnetsValid,2021.1.4,MacIntel,58.82352941,,,,,,,,,,,,,,,,,,,,,,,,,,,,,,,,,,,,,,,,,,,,,,,,,,,,,,,,,,,,,,,,,,,,,,,,,,,,,,,,,,,,,,,,,
,,8,2.075,8,2.075,0,41,41,33,1,131,cactus,garden,,88897,001,2022-04-29_14h42.24.789,SPAMnetsValid,2021.1.4,MacIntel,58.82352941,,,,,,,,,,,,,,,,,,,,,,,,,,,,,,,,,,,,,,,,,,,,,,,,,,,,,,,,,,,,,,,,,,,,,,,,,,,,,,,,,,,,,,,,,
,,1,2.291,1,2.291,0,42,42,59,1,164,cookie,garden,,88897,001,2022-04-29_14h42.24.789,SPAMnetsValid,2021.1.4,MacIntel,58.82352941,,,,,,,,,,,,,,,,,,,,,,,,,,,,,,,,,,,,,,,,,,,,,,,,,,,,,,,,,,,,,,,,,,,,,,,,,,,,,,,,,,,,,,,,,
,,3,3.236,3,3.236,0,43,43,76,1,102,chocolate,refrigerator,,88897,001,2022-04-29_14h42.24.789,SPAMnetsValid,2021.1.4,MacIntel,58.82352941,,,,,,,,,,,,,,,,,,,,,,,,,,,,,,,,,,,,,,,,,,,,,,,,,,,,,,,,,,,,,,,,,,,,,,,,,,,,,,,,,,,,,,,,,
,,9,4.725,9,4.725,0,44,44,31,1,156,melon,rose,,88897,001,2022-04-29_14h42.24.789,SPAMnetsValid,2021.1.4,MacIntel,58.82352941,,,,,,,,,,,,,,,,,,,,,,,,,,,,,,,,,,,,,,,,,,,,,,,,,,,,,,,,,,,,,,,,,,,,,,,,,,,,,,,,,,,,,,,,,
,,3,1.434,3,1.434,0,45,45,2,1,174,cake,pretzel,,88897,001,2022-04-29_14h42.24.789,SPAMnetsValid,2021.1.4,MacIntel,58.82352941,,,,,,,,,,,,,,,,,,,,,,,,,,,,,,,,,,,,,,,,,,,,,,,,,,,,,,,,,,,,,,,,,,,,,,,,,,,,,,,,,,,,,,,,,
,,9,38.531,9,38.531,0,46,46,23,1,148,flower,melon,,88897,001,2022-04-29_14h42.24.789,SPAMnetsValid,2021.1.4,MacIntel,58.82352941,,,,,,,,,,,,,,,,,,,,,,,,,,,,,,,,,,,,,,,,,,,,,,,,,,,,,,,,,,,,,,,,,,,,,,,,,,,,,,,,,,,,,,,,,
,,1,33.99,1,33.99,0,47,47,82,1,98,pretzel,strawberry,,88897,001,2022-04-29_14h42.24.789,SPAMnetsValid,2021.1.4,MacIntel,58.82352941,,,,,,,,,,,,,,,,,,,,,,,,,,,,,,,,,,,,,,,,,,,,,,,,,,,,,,,,,,,,,,,,,,,,,,,,,,,,,,,,,,,,,,,,,
,,5,2.722,5,2.722,0,48,48,8,1,97,chocolate,kitchen,,88897,001,2022-04-29_14h42.24.789,SPAMnetsValid,2021.1.4,MacIntel,58.82352941,,,,,,,,,,,,,,,,,,,,,,,,,,,,,,,,,,,,,,,,,,,,,,,,,,,,,,,,,,,,,,,,,,,,,,,,,,,,,,,,,,,,,,,,,
,,8,5.179,8,5.179,0,49,49,69,1,124,oven,refrigerator,,88897,001,2022-04-29_14h42.24.789,SPAMnetsValid,2021.1.4,MacIntel,58.82352941,,,,,,,,,,,,,,,,,,,,,,,,,,,,,,,,,,,,,,,,,,,,,,,,,,,,,,,,,,,,,,,,,,,,,,,,,,,,,,,,,,,,,,,,,
,,1,2.55,1,2.55,0,50,50,90,1,190,microwave,strawberry,,88897,001,2022-04-29_14h42.24.789,SPAMnetsValid,2021.1.4,MacIntel,58.82352941,,,,,,,,,,,,,,,,,,,,,,,,,,,,,,,,,,,,,,,,,,,,,,,,,,,,,,,,,,,,,,,,,,,,,,,,,,,,,,,,,,,,,,,,,
,,3,2.57,3,2.57,0,51,51,35,1,147,cake,refrigerator,,88897,001,2022-04-29_14h42.24.789,SPAMnetsValid,2021.1.4,MacIntel,58.82352941,,,,,,,,,,,,,,,,,,,,,,,,,,,,,,,,,,,,,,,,,,,,,,,,,,,,,,,,,,,,,,,,,,,,,,,,,,,,,,,,,,,,,,,,,
,,9,13.924,9,13.924,0,52,52,70,1,141,melon,tomato,,88897,001,2022-04-29_14h42.24.789,SPAMnetsValid,2021.1.4,MacIntel,58.82352941,,,,,,,,,,,,,,,,,,,,,,,,,,,,,,,,,,,,,,,,,,,,,,,,,,,,,,,,,,,,,,,,,,,,,,,,,,,,,,,,,,,,,,,,,
,,2,6.35,2,6.35,0,53,53,3,1,129,cactus,refrigerator,,88897,001,2022-04-29_14h42.24.789,SPAMnetsValid,2021.1.4,MacIntel,58.82352941,,,,,,,,,,,,,,,,,,,,,,,,,,,,,,,,,,,,,,,,,,,,,,,,,,,,,,,,,,,,,,,,,,,,,,,,,,,,,,,,,,,,,,,,,
,,1,117.33,1,117.33,0,54,54,38,1,155,carrot,cookie,,88897,001,2022-04-29_14h42.24.789,SPAMnetsValid,2021.1.4,MacIntel,58.82352941,,,,,,,,,,,,,,,,,,,,,,,,,,,,,,,,,,,,,,,,,,,,,,,,,,,,,,,,,,,,,,,,,,,,,,,,,,,,,,,,,,,,,,,,,
,,1,2.142,1,2.142,0,55,55,21,1,159,cookie,flower,,88897,001,2022-04-29_14h42.24.789,SPAMnetsValid,2021.1.4,MacIntel,58.82352941,,,,,,,,,,,,,,,,,,,,,,,,,,,,,,,,,,,,,,,,,,,,,,,,,,,,,,,,,,,,,,,,,,,,,,,,,,,,,,,,,,,,,,,,,
,,1,1.665,1,1.665,0,56,56,74,1,128,melon,microwave,,88897,001,2022-04-29_14h42.24.789,SPAMnetsValid,2021.1.4,MacIntel,58.82352941,,,,,,,,,,,,,,,,,,,,,,,,,,,,,,,,,,,,,,,,,,,,,,,,,,,,,,,,,,,,,,,,,,,,,,,,,,,,,,,,,,,,,,,,,
,,4,10.448,4,10.448,0,57,57,91,1,166,cake,yogurt,,88897,001,2022-04-29_14h42.24.789,SPAMnetsValid,2021.1.4,MacIntel,58.82352941,,,,,,,,,,,,,,,,,,,,,,,,,,,,,,,,,,,,,,,,,,,,,,,,,,,,,,,,,,,,,,,,,,,,,,,,,,,,,,,,,,,,,,,,,
,,8,1.608,8,1.608,0,58,58,87,1,114,cookie,strawberry,,88897,001,2022-04-29_14h42.24.789,SPAMnetsValid,2021.1.4,MacIntel,58.82352941,,,,,,,,,,,,,,,,,,,,,,,,,,,,,,,,,,,,,,,,,,,,,,,,,,,,,,,,,,,,,,,,,,,,,,,,,,,,,,,,,,,,,,,,,
,,8,2.066,8,2.066,0,59,59,51,1,168,cactus,flower,,88897,001,2022-04-29_14h42.24.789,SPAMnetsValid,2021.1.4,MacIntel,58.82352941,,,,,,,,,,,,,,,,,,,,,,,,,,,,,,,,,,,,,,,,,,,,,,,,,,,,,,,,,,,,,,,,,,,,,,,,,,,,,,,,,,,,,,,,,
,,7,2.139,7,2.139,0,60,60,56,1,113,refrigerator,strawberry,,88897,001,2022-04-29_14h42.24.789,SPAMnetsValid,2021.1.4,MacIntel,58.82352941,,,,,,,,,,,,,,,,,,,,,,,,,,,,,,,,,,,,,,,,,,,,,,,,,,,,,,,,,,,,,,,,,,,,,,,,,,,,,,,,,,,,,,,,,
,,1,1.452,1,1.452,0,61,61,72,1,181,carrot,kitchen,,88897,001,2022-04-29_14h42.24.789,SPAMnetsValid,2021.1.4,MacIntel,58.82352941,,,,,,,,,,,,,,,,,,,,,,,,,,,,,,,,,,,,,,,,,,,,,,,,,,,,,,,,,,,,,,,,,,,,,,,,,,,,,,,,,,,,,,,,,
,,1,1.01,1,1.01,0,62,62,5,1,108,carrot,chocolate,,88897,001,2022-04-29_14h42.24.789,SPAMnetsValid,2021.1.4,MacIntel,58.82352941,,,,,,,,,,,,,,,,,,,,,,,,,,,,,,,,,,,,,,,,,,,,,,,,,,,,,,,,,,,,,,,,,,,,,,,,,,,,,,,,,,,,,,,,,
,,1,1.422,1,1.422,0,63,63,6,1,151,microwave,onion,,88897,001,2022-04-29_14h42.24.789,SPAMnetsValid,2021.1.4,MacIntel,58.82352941,,,,,,,,,,,,,,,,,,,,,,,,,,,,,,,,,,,,,,,,,,,,,,,,,,,,,,,,,,,,,,,,,,,,,,,,,,,,,,,,,,,,,,,,,
,,1,0.92,1,0.92,0,64,64,96,1,136,chocolate,microwave,,88897,001,2022-04-29_14h42.24.789,SPAMnetsValid,2021.1.4,MacIntel,58.82352941,,,,,,,,,,,,,,,,,,,,,,,,,,,,,,,,,,,,,,,,,,,,,,,,,,,,,,,,,,,,,,,,,,,,,,,,,,,,,,,,,,,,,,,,,
,,1,5.26,1,5.26,0,65,65,54,1,101,cactus,kitchen,,88897,001,2022-04-29_14h42.24.789,SPAMnetsValid,2021.1.4,MacIntel,58.82352941,,,,,,,,,,,,,,,,,,,,,,,,,,,,,,,,,,,,,,,,,,,,,,,,,,,,,,,,,,,,,,,,,,,,,,,,,,,,,,,,,,,,,,,,,
,,1,39.65,1,39.65,0,66,66,63,1,137,microwave,tree,,88897,001,2022-04-29_14h42.24.789,SPAMnetsValid,2021.1.4,MacIntel,58.82352941,,,,,,,,,,,,,,,,,,,,,,,,,,,,,,,,,,,,,,,,,,,,,,,,,,,,,,,,,,,,,,,,,,,,,,,,,,,,,,,,,,,,,,,,,
,,1,0.875,1,0.875,0,67,67,84,1,130,microwave,yogurt,,88897,001,2022-04-29_14h42.24.789,SPAMnetsValid,2021.1.4,MacIntel,58.82352941,,,,,,,,,,,,,,,,,,,,,,,,,,,,,,,,,,,,,,,,,,,,,,,,,,,,,,,,,,,,,,,,,,,,,,,,,,,,,,,,,,,,,,,,,
,,1,0.811,1,0.811,0,68,68,88,1,171,cake,tomato,,88897,001,2022-04-29_14h42.24.789,SPAMnetsValid,2021.1.4,MacIntel,58.82352941,,,,,,,,,,,,,,,,,,,,,,,,,,,,,,,,,,,,,,,,,,,,,,,,,,,,,,,,,,,,,,,,,,,,,,,,,,,,,,,,,,,,,,,,,
,,1,0.857,1,0.857,0,69,69,92,1,170,cookie,microwave,,88897,001,2022-04-29_14h42.24.789,SPAMnetsValid,2021.1.4,MacIntel,58.82352941,,,,,,,,,,,,,,,,,,,,,,,,,,,,,,,,,,,,,,,,,,,,,,,,,,,,,,,,,,,,,,,,,,,,,,,,,,,,,,,,,,,,,,,,,
,,1,0.886,1,0.886,0,70,70,52,1,110,chocolate,cookie,,88897,001,2022-04-29_14h42.24.789,SPAMnetsValid,2021.1.4,MacIntel,58.82352941,,,,,,,,,,,,,,,,,,,,,,,,,,,,,,,,,,,,,,,,,,,,,,,,,,,,,,,,,,,,,,,,,,,,,,,,,,,,,,,,,,,,,,,,,
,,1,9.75,1,9.75,0,71,71,94,1,133,cake,flower,,88897,001,2022-04-29_14h42.24.789,SPAMnetsValid,2021.1.4,MacIntel,58.82352941,,,,,,,,,,,,,,,,,,,,,,,,,,,,,,,,,,,,,,,,,,,,,,,,,,,,,,,,,,,,,,,,,,,,,,,,,,,,,,,,,,,,,,,,,
,,1,0.925,1,0.925,0,72,72,19,1,183,cake,rose,,88897,001,2022-04-29_14h42.24.789,SPAMnetsValid,2021.1.4,MacIntel,58.82352941,,,,,,,,,,,,,,,,,,,,,,,,,,,,,,,,,,,,,,,,,,,,,,,,,,,,,,,,,,,,,,,,,,,,,,,,,,,,,,,,,,,,,,,,,
,,1,0.944,1,0.944,0,73,73,36,1,161,kitchen,pretzel,,88897,001,2022-04-29_14h42.24.789,SPAMnetsValid,2021.1.4,MacIntel,58.82352941,,,,,,,,,,,,,,,,,,,,,,,,,,,,,,,,,,,,,,,,,,,,,,,,,,,,,,,,,,,,,,,,,,,,,,,,,,,,,,,,,,,,,,,,,
,,1,1.122,1,1.122,0,74,74,62,1,189,onion,tree,,88897,001,2022-04-29_14h42.24.789,SPAMnetsValid,2021.1.4,MacIntel,58.82352941,,,,,,,,,,,,,,,,,,,,,,,,,,,,,,,,,,,,,,,,,,,,,,,,,,,,,,,,,,,,,,,,,,,,,,,,,,,,,,,,,,,,,,,,,
,,1,0.842,1,0.842,0,75,75,29,1,163,melon,refrigerator,,88897,001,2022-04-29_14h42.24.789,SPAMnetsValid,2021.1.4,MacIntel,58.82352941,,,,,,,,,,,,,,,,,,,,,,,,,,,,,,,,,,,,,,,,,,,,,,,,,,,,,,,,,,,,,,,,,,,,,,,,,,,,,,,,,,,,,,,,,
,,9,1.801,9,1.801,0,76,76,83,1,100,garden,tomato,,88897,001,2022-04-29_14h42.24.789,SPAMnetsValid,2021.1.4,MacIntel,58.82352941,,,,,,,,,,,,,,,,,,,,,,,,,,,,,,,,,,,,,,,,,,,,,,,,,,,,,,,,,,,,,,,,,,,,,,,,,,,,,,,,,,,,,,,,,
,,2,3.605,2,3.605,0,77,77,79,1,103,pretzel,tomato,,88897,001,2022-04-29_14h42.24.789,SPAMnetsValid,2021.1.4,MacIntel,58.82352941,,,,,,,,,,,,,,,,,,,,,,,,,,,,,,,,,,,,,,,,,,,,,,,,,,,,,,,,,,,,,,,,,,,,,,,,,,,,,,,,,,,,,,,,,
,,9,2.127,9,2.127,0,78,78,28,1,154,strawberry,yogurt,,88897,001,2022-04-29_14h42.24.789,SPAMnetsValid,2021.1.4,MacIntel,58.82352941,,,,,,,,,,,,,,,,,,,,,,,,,,,,,,,,,,,,,,,,,,,,,,,,,,,,,,,,,,,,,,,,,,,,,,,,,,,,,,,,,,,,,,,,,
,,9,1.448,9,1.448,0,79,79,39,1,112,cake,carrot,,88897,001,2022-04-29_14h42.24.789,SPAMnetsValid,2021.1.4,MacIntel,58.82352941,,,,,,,,,,,,,,,,,,,,,,,,,,,,,,,,,,,,,,,,,,,,,,,,,,,,,,,,,,,,,,,,,,,,,,,,,,,,,,,,,,,,,,,,,
,,9,1.275,9,1.275,0,80,80,61,1,138,flower,rose,,88897,001,2022-04-29_14h42.24.789,SPAMnetsValid,2021.1.4,MacIntel,58.82352941,,,,,,,,,,,,,,,,,,,,,,,,,,,,,,,,,,,,,,,,,,,,,,,,,,,,,,,,,,,,,,,,,,,,,,,,,,,,,,,,,,,,,,,,,
,,1,3.292,1,3.292,0,81,81,16,1,111,carrot,microwave,,88897,001,2022-04-29_14h42.24.789,SPAMnetsValid,2021.1.4,MacIntel,58.82352941,,,,,,,,,,,,,,,,,,,,,,,,,,,,,,,,,,,,,,,,,,,,,,,,,,,,,,,,,,,,,,,,,,,,,,,,,,,,,,,,,,,,,,,,,
,,1,2.288,1,2.288,0,82,82,68,1,180,tree,yogurt,,88897,001,2022-04-29_14h42.24.789,SPAMnetsValid,2021.1.4,MacIntel,58.82352941,,,,,,,,,,,,,,,,,,,,,,,,,,,,,,,,,,,,,,,,,,,,,,,,,,,,,,,,,,,,,,,,,,,,,,,,,,,,,,,,,,,,,,,,,
,,7,1.783,7,1.783,0,83,83,55,1,143,pretzel,rose,,88897,001,2022-04-29_14h42.24.789,SPAMnetsValid,2021.1.4,MacIntel,58.82352941,,,,,,,,,,,,,,,,,,,,,,,,,,,,,,,,,,,,,,,,,,,,,,,,,,,,,,,,,,,,,,,,,,,,,,,,,,,,,,,,,,,,,,,,,
,,1,1.474,1,1.474,0,84,84,50,1,126,kitchen,tree,,88897,001,2022-04-29_14h42.24.789,SPAMnetsValid,2021.1.4,MacIntel,58.82352941,,,,,,,,,,,,,,,,,,,,,,,,,,,,,,,,,,,,,,,,,,,,,,,,,,,,,,,,,,,,,,,,,,,,,,,,,,,,,,,,,,,,,,,,,
,,8,2.875,8,2.875,0,85,85,15,1,145,cactus,yogurt,,88897,001,2022-04-29_14h42.24.789,SPAMnetsValid,2021.1.4,MacIntel,58.82352941,,,,,,,,,,,,,,,,,,,,,,,,,,,,,,,,,,,,,,,,,,,,,,,,,,,,,,,,,,,,,,,,,,,,,,,,,,,,,,,,,,,,,,,,,
,,9,1.573,9,1.573,0,86,86,0,1,106,cake,strawberry,,88897,001,2022-04-29_14h42.24.789,SPAMnetsValid,2021.1.4,MacIntel,58.82352941,,,,,,,,,,,,,,,,,,,,,,,,,,,,,,,,,,,,,,,,,,,,,,,,,,,,,,,,,,,,,,,,,,,,,,,,,,,,,,,,,,,,,,,,,
,,9,1.022,9,1.022,0,87,87,86,1,193,melon,melon,CHECK,88897,001,2022-04-29_14h42.24.789,SPAMnetsValid,2021.1.4,MacIntel,58.82352941,,,,,,,,,,,,,,,,,,,,,,,,,,,,,,,,,,,,,,,,,,,,,,,,,,,,,,,,,,,,,,,,,,,,,,,,,,,,,,,,,,,,,,,,,
,,9,1.258,9,1.258,0,88,88,43,1,185,cactus,rose,,88897,001,2022-04-29_14h42.24.789,SPAMnetsValid,2021.1.4,MacIntel,58.82352941,,,,,,,,,,,,,,,,,,,,,,,,,,,,,,,,,,,,,,,,,,,,,,,,,,,,,,,,,,,,,,,,,,,,,,,,,,,,,,,,,,,,,,,,,
,,2,1.507,2,1.507,0,89,89,40,1,165,onion,rose,,88897,001,2022-04-29_14h42.24.789,SPAMnetsValid,2021.1.4,MacIntel,58.82352941,,,,,,,,,,,,,,,,,,,,,,,,,,,,,,,,,,,,,,,,,,,,,,,,,,,,,,,,,,,,,,,,,,,,,,,,,,,,,,,,,,,,,,,,,
,,2,1.697,2,1.697,0,90,90,58,1,144,cake,garden,,88897,001,2022-04-29_14h42.24.789,SPAMnetsValid,2021.1.4,MacIntel,58.82352941,,,,,,,,,,,,,,,,,,,,,,,,,,,,,,,,,,,,,,,,,,,,,,,,,,,,,,,,,,,,,,,,,,,,,,,,,,,,,,,,,,,,,,,,,
,,9,2.299,9,2.299,0,91,91,42,1,184,oven,pretzel,,88897,001,2022-04-29_14h42.24.789,SPAMnetsValid,2021.1.4,MacIntel,58.82352941,,,,,,,,,,,,,,,,,,,,,,,,,,,,,,,,,,,,,,,,,,,,,,,,,,,,,,,,,,,,,,,,,,,,,,,,,,,,,,,,,,,,,,,,,
,,9,2.192,9,2.192,0,92,92,60,1,122,flower,garden,,88897,001,2022-04-29_14h42.24.789,SPAMnetsValid,2021.1.4,MacIntel,58.82352941,,,,,,,,,,,,,,,,,,,,,,,,,,,,,,,,,,,,,,,,,,,,,,,,,,,,,,,,,,,,,,,,,,,,,,,,,,,,,,,,,,,,,,,,,
,,1,2.508,1,2.508,0,93,93,20,1,149,broom,tomato,,88897,001,2022-04-29_14h42.24.789,SPAMnetsValid,2021.1.4,MacIntel,58.82352941,,,,,,,,,,,,,,,,,,,,,,,,,,,,,,,,,,,,,,,,,,,,,,,,,,,,,,,,,,,,,,,,,,,,,,,,,,,,,,,,,,,,,,,,,
,,1,1.577,1,1.577,0,94,94,71,1,187,cactus,microwave,,88897,001,2022-04-29_14h42.24.789,SPAMnetsValid,2021.1.4,MacIntel,58.82352941,,,,,,,,,,,,,,,,,,,,,,,,,,,,,,,,,,,,,,,,,,,,,,,,,,,,,,,,,,,,,,,,,,,,,,,,,,,,,,,,,,,,,,,,,
,,1,1.644,1,1.644,0,95,95,67,1,96,oven,strawberry,,88897,001,2022-04-29_14h42.24.789,SPAMnetsValid,2021.1.4,MacIntel,58.82352941,,,,,,,,,,,,,,,,,,,,,,,,,,,,,,,,,,,,,,,,,,,,,,,,,,,,,,,,,,,,,,,,,,,,,,,,,,,,,,,,,,,,,,,,,
,,3,2.789,3,2.789,0,96,96,65,1,160,cookie,kitchen,,88897,001,2022-04-29_14h42.24.789,SPAMnetsValid,2021.1.4,MacIntel,58.82352941,,,,,,,,,,,,,,,,,,,,,,,,,,,,,,,,,,,,,,,,,,,,,,,,,,,,,,,,,,,,,,,,,,,,,,,,,,,,,,,,,,,,,,,,,
,,,,,,,,,,,,,,,88897,001,2022-04-29_14h42.24.789,SPAMnetsValid,2021.1.4,MacIntel,58.82352941,0,0,0,0,1,,,,,,,,,,,,,,,,,,,,,,,,,,,,,,,,,,,,,,,,,,,,,,,,,,,,,,,,,,,,,,,,,,,,,,,,,,,,,,,,,,,,
,,,,,,,,,,,,,,,88897,001,2022-04-29_14h42.24.789,SPAMnetsValid,2021.1.4,MacIntel,58.82352941,,,,,,0,0,0,1,1,0,1,,,,,,,,,,,,,,,,,,,,,,,,,,,,,,,,,,,,,,,,,,,,,,,,,,,,,,,,,,,,,,,,,,,,,,,,,,,,,
,,,,1,3.209,,,,,,95,broom,refrigerator,,88897,001,2022-04-29_14h42.24.789,SPAMnetsValid,2021.1.4,MacIntel,58.82352941,,,,,,,,,,,,,1,3.209,0,0,0,90,1,,,,,,,,,,,,,,,,,,,,,,,,,,,,,,,,,,,,,,,,,,,,,,,,,,,,,,,,,,,,,,,,,,,,,,
,,,,1,0.866,,,,,,11,refrigerator,tree,,88897,001,2022-04-29_14h42.24.789,SPAMnetsValid,2021.1.4,MacIntel,58.82352941,,,,,,,,,,,,,1,0.866,0,1,1,43,1,,,,,,,,,,,,,,,,,,,,,,,,,,,,,,,,,,,,,,,,,,,,,,,,,,,,,,,,,,,,,,,,,,,,,,
,,,,2,2.86,,,,,,27,cactus,cookie,,88897,001,2022-04-29_14h42.24.789,SPAMnetsValid,2021.1.4,MacIntel,58.82352941,,,,,,,,,,,,,2,2.86,0,2,2,17,1,,,,,,,,,,,,,,,,,,,,,,,,,,,,,,,,,,,,,,,,,,,,,,,,,,,,,,,,,,,,,,,,,,,,,,
,,,,2,1.367,,,,,,71,broom,rose,,88897,001,2022-04-29_14h42.24.789,SPAMnetsValid,2021.1.4,MacIntel,58.82352941,,,,,,,,,,,,,2,1.367,0,3,3,61,1,,,,,,,,,,,,,,,,,,,,,,,,,,,,,,,,,,,,,,,,,,,,,,,,,,,,,,,,,,,,,,,,,,,,,,
,,,,2,1.111,,,,,,84,oven,tomato,,88897,001,2022-04-29_14h42.24.789,SPAMnetsValid,2021.1.4,MacIntel,58.82352941,,,,,,,,,,,,,2,1.111,0,4,4,28,1,,,,,,,,,,,,,,,,,,,,,,,,,,,,,,,,,,,,,,,,,,,,,,,,,,,,,,,,,,,,,,,,,,,,,,
,,,,2,1.211,,,,,,26,tomato,yogurt,,88897,001,2022-04-29_14h42.24.789,SPAMnetsValid,2021.1.4,MacIntel,58.82352941,,,,,,,,,,,,,2,1.211,0,5,5,13,1,,,,,,,,,,,,,,,,,,,,,,,,,,,,,,,,,,,,,,,,,,,,,,,,,,,,,,,,,,,,,,,,,,,,,,
,,,,1,1.357,,,,,,5,oven,tree,,88897,001,2022-04-29_14h42.24.789,SPAMnetsValid,2021.1.4,MacIntel,58.82352941,,,,,,,,,,,,,1,1.357,0,6,6,70,1,,,,,,,,,,,,,,,,,,,,,,,,,,,,,,,,,,,,,,,,,,,,,,,,,,,,,,,,,,,,,,,,,,,,,,
,,,,1,1.197,,,,,,20,rose,tree,,88897,001,2022-04-29_14h42.24.789,SPAMnetsValid,2021.1.4,MacIntel,58.82352941,,,,,,,,,,,,,1,1.197,0,7,7,66,1,,,,,,,,,,,,,,,,,,,,,,,,,,,,,,,,,,,,,,,,,,,,,,,,,,,,,,,,,,,,,,,,,,,,,,
,,,,1,1.335,,,,,,35,flower,pretzel,,88897,001,2022-04-29_14h42.24.789,SPAMnetsValid,2021.1.4,MacIntel,58.82352941,,,,,,,,,,,,,1,1.335,0,8,8,26,1,,,,,,,,,,,,,,,,,,,,,,,,,,,,,,,,,,,,,,,,,,,,,,,,,,,,,,,,,,,,,,,,,,,,,,
,,,,1,0.952,,,,,,25,carrot,onion,,88897,001,2022-04-29_14h42.24.789,SPAMnetsValid,2021.1.4,MacIntel,58.82352941,,,,,,,,,,,,,1,0.952,0,9,9,44,1,,,,,,,,,,,,,,,,,,,,,,,,,,,,,,,,,,,,,,,,,,,,,,,,,,,,,,,,,,,,,,,,,,,,,,
,,,,9,2.659,,,,,,9,kitchen,refrigerator,,88897,001,2022-04-29_14h42.24.789,SPAMnetsValid,2021.1.4,MacIntel,58.82352941,,,,,,,,,,,,,9,2.659,0,10,10,64,1,,,,,,,,,,,,,,,,,,,,,,,,,,,,,,,,,,,,,,,,,,,,,,,,,,,,,,,,,,,,,,,,,,,,,,
,,,,2,2.123,,,,,,75,cookie,onion,,88897,001,2022-04-29_14h42.24.789,SPAMnetsValid,2021.1.4,MacIntel,58.82352941,,,,,,,,,,,,,2,2.123,0,11,11,9,1,,,,,,,,,,,,,,,,,,,,,,,,,,,,,,,,,,,,,,,,,,,,,,,,,,,,,,,,,,,,,,,,,,,,,,
,,,,9,1.609,,,,,,1,rose,yogurt,,88897,001,2022-04-29_14h42.24.789,SPAMnetsValid,2021.1.4,MacIntel,58.82352941,,,,,,,,,,,,,9,1.609,0,12,12,55,1,,,,,,,,,,,,,,,,,,,,,,,,,,,,,,,,,,,,,,,,,,,,,,,,,,,,,,,,,,,,,,,,,,,,,,
,,,,7,1.724,,,,,,17,carrot,melon,,88897,001,2022-04-29_14h42.24.789,SPAMnetsValid,2021.1.4,MacIntel,58.82352941,,,,,,,,,,,,,7,1.724,0,13,13,24,1,,,,,,,,,,,,,,,,,,,,,,,,,,,,,,,,,,,,,,,,,,,,,,,,,,,,,,,,,,,,,,,,,,,,,,
,,,,2,2.152,,,,,,33,oven,yogurt,,88897,001,2022-04-29_14h42.24.789,SPAMnetsValid,2021.1.4,MacIntel,58.82352941,,,,,,,,,,,,,2,2.152,0,14,14,31,1,,,,,,,,,,,,,,,,,,,,,,,,,,,,,,,,,,,,,,,,,,,,,,,,,,,,,,,,,,,,,,,,,,,,,,
,,,,9,7.001,,,,,,6,garden,onion,,88897,001,2022-04-29_14h42.24.789,SPAMnetsValid,2021.1.4,MacIntel,58.82352941,,,,,,,,,,,,,9,7.001,0,15,15,83,1,,,,,,,,,,,,,,,,,,,,,,,,,,,,,,,,,,,,,,,,,,,,,,,,,,,,,,,,,,,,,,,,,,,,,,
,,,,1,8.635,,,,,,8,broom,melon,,88897,001,2022-04-29_14h42.24.789,SPAMnetsValid,2021.1.4,MacIntel,58.82352941,,,,,,,,,,,,,1,8.635,0,16,16,59,1,,,,,,,,,,,,,,,,,,,,,,,,,,,,,,,,,,,,,,,,,,,,,,,,,,,,,,,,,,,,,,,,,,,,,,
,,,,9,1.999,,,,,,4,chocolate,pretzel,,88897,001,2022-04-29_14h42.24.789,SPAMnetsValid,2021.1.4,MacIntel,58.82352941,,,,,,,,,,,,,9,1.999,0,17,17,52,1,,,,,,,,,,,,,,,,,,,,,,,,,,,,,,,,,,,,,,,,,,,,,,,,,,,,,,,,,,,,,,,,,,,,,,
,,,,1,3.881,,,,,,80,chocolate,tree,,88897,001,2022-04-29_14h42.24.789,SPAMnetsValid,2021.1.4,MacIntel,58.82352941,,,,,,,,,,,,,1,3.881,0,18,18,89,1,,,,,,,,,,,,,,,,,,,,,,,,,,,,,,,,,,,,,,,,,,,,,,,,,,,,,,,,,,,,,,,,,,,,,,
,,,,1,1.04,,,,,,70,chocolate,onion,,88897,001,2022-04-29_14h42.24.789,SPAMnetsValid,2021.1.4,MacIntel,58.82352941,,,,,,,,,,,,,1,1.04,0,19,19,74,1,,,,,,,,,,,,,,,,,,,,,,,,,,,,,,,,,,,,,,,,,,,,,,,,,,,,,,,,,,,,,,,,,,,,,,
,,,,1,1.081,,,,,,12,cookie,yogurt,,88897,001,2022-04-29_14h42.24.789,SPAMnetsValid,2021.1.4,MacIntel,58.82352941,,,,,,,,,,,,,1,1.081,0,20,20,36,1,,,,,,,,,,,,,,,,,,,,,,,,,,,,,,,,,,,,,,,,,,,,,,,,,,,,,,,,,,,,,,,,,,,,,,
,,,,1,0.715,,,,,,34,melon,oven,,88897,001,2022-04-29_14h42.24.789,SPAMnetsValid,2021.1.4,MacIntel,58.82352941,,,,,,,,,,,,,1,0.715,0,21,21,7,1,,,,,,,,,,,,,,,,,,,,,,,,,,,,,,,,,,,,,,,,,,,,,,,,,,,,,,,,,,,,,,,,,,,,,,
,,,,1,0.3,,,,,,7,melon,tree,,88897,001,2022-04-29_14h42.24.789,SPAMnetsValid,2021.1.4,MacIntel,58.82352941,,,,,,,,,,,,,1,0.3,0,22,22,77,1,,,,,,,,,,,,,,,,,,,,,,,,,,,,,,,,,,,,,,,,,,,,,,,,,,,,,,,,,,,,,,,,,,,,,,
,,,,1,0.489,,,,,,55,tomato,tree,,88897,001,2022-04-29_14h42.24.789,SPAMnetsValid,2021.1.4,MacIntel,58.82352941,,,,,,,,,,,,,1,0.489,0,23,23,35,1,,,,,,,,,,,,,,,,,,,,,,,,,,,,,,,,,,,,,,,,,,,,,,,,,,,,,,,,,,,,,,,,,,,,,,
,,,,1,0.182,,,,,,61,strawberry,tomato,,88897,001,2022-04-29_14h42.24.789,SPAMnetsValid,2021.1.4,MacIntel,58.82352941,,,,,,,,,,,,,1,0.182,0,24,24,80,1,,,,,,,,,,,,,,,,,,,,,,,,,,,,,,,,,,,,,,,,,,,,,,,,,,,,,,,,,,,,,,,,,,,,,,
,,,,1,0.141,,,,,,49,flower,strawberry,,88897,001,2022-04-29_14h42.24.789,SPAMnetsValid,2021.1.4,MacIntel,58.82352941,,,,,,,,,,,,,1,0.141,0,25,25,3,1,,,,,,,,,,,,,,,,,,,,,,,,,,,,,,,,,,,,,,,,,,,,,,,,,,,,,,,,,,,,,,,,,,,,,,
,,,,1,0.141,,,,,,14,broom,cookie,,88897,001,2022-04-29_14h42.24.789,SPAMnetsValid,2021.1.4,MacIntel,58.82352941,,,,,,,,,,,,,1,0.141,0,26,26,16,1,,,,,,,,,,,,,,,,,,,,,,,,,,,,,,,,,,,,,,,,,,,,,,,,,,,,,,,,,,,,,,,,,,,,,,
,,,,1,0.124,,,,,,45,onion,pretzel,,88897,001,2022-04-29_14h42.24.789,SPAMnetsValid,2021.1.4,MacIntel,58.82352941,,,,,,,,,,,,,1,0.124,0,27,27,69,1,,,,,,,,,,,,,,,,,,,,,,,,,,,,,,,,,,,,,,,,,,,,,,,,,,,,,,,,,,,,,,,,,,,,,,
,,,,1,0.122,,,,,,38,pretzel,refrigerator,,88897,001,2022-04-29_14h42.24.789,SPAMnetsValid,2021.1.4,MacIntel,58.82352941,,,,,,,,,,,,,1,0.122,0,28,28,71,1,,,,,,,,,,,,,,,,,,,,,,,,,,,,,,,,,,,,,,,,,,,,,,,,,,,,,,,,,,,,,,,,,,,,,,
,,,,1,0.08,,,,,,65,broom,garden,,88897,001,2022-04-29_14h42.24.789,SPAMnetsValid,2021.1.4,MacIntel,58.82352941,,,,,,,,,,,,,1,0.08,0,29,29,23,1,,,,,,,,,,,,,,,,,,,,,,,,,,,,,,,,,,,,,,,,,,,,,,,,,,,,,,,,,,,,,,,,,,,,,,
,,,,1,0.08,,,,,,48,flower,oven,,88897,001,2022-04-29_14h42.24.789,SPAMnetsValid,2021.1.4,MacIntel,58.82352941,,,,,,,,,,,,,1,0.08,0,30,30,15,1,,,,,,,,,,,,,,,,,,,,,,,,,,,,,,,,,,,,,,,,,,,,,,,,,,,,,,,,,,,,,,,,,,,,,,
,,,,1,0.073,,,,,,62,kitchen,rose,,88897,001,2022-04-29_14h42.24.789,SPAMnetsValid,2021.1.4,MacIntel,58.82352941,,,,,,,,,,,,,1,0.073,0,31,31,57,1,,,,,,,,,,,,,,,,,,,,,,,,,,,,,,,,,,,,,,,,,,,,,,,,,,,,,,,,,,,,,,,,,,,,,,
,,,,1,0.071,,,,,,47,onion,tomato,,88897,001,2022-04-29_14h42.24.789,SPAMnetsValid,2021.1.4,MacIntel,58.82352941,,,,,,,,,,,,,1,0.071,0,32,32,51,1,,,,,,,,,,,,,,,,,,,,,,,,,,,,,,,,,,,,,,,,,,,,,,,,,,,,,,,,,,,,,,,,,,,,,,
,,,,1,0.079,,,,,,39,melon,pretzel,,88897,001,2022-04-29_14h42.24.789,SPAMnetsValid,2021.1.4,MacIntel,58.82352941,,,,,,,,,,,,,1,0.079,0,33,33,20,1,,,,,,,,,,,,,,,,,,,,,,,,,,,,,,,,,,,,,,,,,,,,,,,,,,,,,,,,,,,,,,,,,,,,,,
,,,,1,0.049,,,,,,192,microwave,microwave,CHECK,88897,001,2022-04-29_14h42.24.789,SPAMnetsValid,2021.1.4,MacIntel,58.82352941,,,,,,,,,,,,,1,0.049,0,34,34,53,1,,,,,,,,,,,,,,,,,,,,,,,,,,,,,,,,,,,,,,,,,,,,,,,,,,,,,,,,,,,,,,,,,,,,,,
,,,,1,0.199,,,,,,87,carrot,yogurt,,88897,001,2022-04-29_14h42.24.789,SPAMnetsValid,2021.1.4,MacIntel,58.82352941,,,,,,,,,,,,,1,0.199,0,35,35,6,1,,,,,,,,,,,,,,,,,,,,,,,,,,,,,,,,,,,,,,,,,,,,,,,,,,,,,,,,,,,,,,,,,,,,,,
,,,,1,0.163,,,,,,16,chocolate,flower,,88897,001,2022-04-29_14h42.24.789,SPAMnetsValid,2021.1.4,MacIntel,58.82352941,,,,,,,,,,,,,1,0.163,0,36,36,22,1,,,,,,,,,,,,,,,,,,,,,,,,,,,,,,,,,,,,,,,,,,,,,,,,,,,,,,,,,,,,,,,,,,,,,,
,,,,1,3.536,,,,,,31,cactus,pretzel,,88897,001,2022-04-29_14h42.24.789,SPAMnetsValid,2021.1.4,MacIntel,58.82352941,,,,,,,,,,,,,1,3.536,0,37,37,1,1,,,,,,,,,,,,,,,,,,,,,,,,,,,,,,,,,,,,,,,,,,,,,,,,,,,,,,,,,,,,,,,,,,,,,,
,,,,1,0.859,,,,,,44,cookie,melon,,88897,001,2022-04-29_14h42.24.789,SPAMnetsValid,2021.1.4,MacIntel,58.82352941,,,,,,,,,,,,,1,0.859,0,38,38,92,1,,,,,,,,,,,,,,,,,,,,,,,,,,,,,,,,,,,,,,,,,,,,,,,,,,,,,,,,,,,,,,,,,,,,,,
,,,,1,0.635,,,,,,24,cookie,tomato,,88897,001,2022-04-29_14h42.24.789,SPAMnetsValid,2021.1.4,MacIntel,58.82352941,,,,,,,,,,,,,1,0.635,0,39,39,68,1,,,,,,,,,,,,,,,,,,,,,,,,,,,,,,,,,,,,,,,,,,,,,,,,,,,,,,,,,,,,,,,,,,,,,,
,,,,1,0.33,,,,,,29,chocolate,melon,,88897,001,2022-04-29_14h42.24.789,SPAMnetsValid,2021.1.4,MacIntel,58.82352941,,,,,,,,,,,,,1,0.33,0,40,40,34,1,,,,,,,,,,,,,,,,,,,,,,,,,,,,,,,,,,,,,,,,,,,,,,,,,,,,,,,,,,,,,,,,,,,,,,
,,,,1,0.408,,,,,,89,chocolate,rose,,88897,001,2022-04-29_14h42.24.789,SPAMnetsValid,2021.1.4,MacIntel,58.82352941,,,,,,,,,,,,,1,0.408,0,41,41,60,1,,,,,,,,,,,,,,,,,,,,,,,,,,,,,,,,,,,,,,,,,,,,,,,,,,,,,,,,,,,,,,,,,,,,,,
,,,,1,0.377,,,,,,23,flower,microwave,,88897,001,2022-04-29_14h42.24.789,SPAMnetsValid,2021.1.4,MacIntel,58.82352941,,,,,,,,,,,,,1,0.377,0,42,42,25,1,,,,,,,,,,,,,,,,,,,,,,,,,,,,,,,,,,,,,,,,,,,,,,,,,,,,,,,,,,,,,,,,,,,,,,
,,,,6,0.926,,,,,,57,flower,kitchen,,88897,001,2022-04-29_14h42.24.789,SPAMnetsValid,2021.1.4,MacIntel,58.82352941,,,,,,,,,,,,,6,0.926,0,43,43,49,1,,,,,,,,,,,,,,,,,,,,,,,,,,,,,,,,,,,,,,,,,,,,,,,,,,,,,,,,,,,,,,,,,,,,,,
,,,,5,0.776,,,,,,43,chocolate,tomato,,88897,001,2022-04-29_14h42.24.789,SPAMnetsValid,2021.1.4,MacIntel,58.82352941,,,,,,,,,,,,,5,0.776,0,44,44,8,1,,,,,,,,,,,,,,,,,,,,,,,,,,,,,,,,,,,,,,,,,,,,,,,,,,,,,,,,,,,,,,,,,,,,,,
,,,,1,1.842,,,,,,72,broom,onion,,88897,001,2022-04-29_14h42.24.789,SPAMnetsValid,2021.1.4,MacIntel,58.82352941,,,,,,,,,,,,,1,1.842,0,45,45,27,1,,,,,,,,,,,,,,,,,,,,,,,,,,,,,,,,,,,,,,,,,,,,,,,,,,,,,,,,,,,,,,,,,,,,,,
,,,,9,1.708,,,,,,191,cake,cake,CHECK,88897,001,2022-04-29_14h42.24.789,SPAMnetsValid,2021.1.4,MacIntel,58.82352941,,,,,,,,,,,,,9,1.708,0,46,46,10,1,,,,,,,,,,,,,,,,,,,,,,,,,,,,,,,,,,,,,,,,,,,,,,,,,,,,,,,,,,,,,,,,,,,,,,
,,,,1,20.076,,,,,,74,broom,pretzel,,88897,001,2022-04-29_14h42.24.789,SPAMnetsValid,2021.1.4,MacIntel,58.82352941,,,,,,,,,,,,,1,20.076,0,47,47,40,1,,,,,,,,,,,,,,,,,,,,,,,,,,,,,,,,,,,,,,,,,,,,,,,,,,,,,,,,,,,,,,,,,,,,,,
,,,,1,0.832,,,,,,92,broom,flower,,88897,001,2022-04-29_14h42.24.789,SPAMnetsValid,2021.1.4,MacIntel,58.82352941,,,,,,,,,,,,,1,0.832,0,48,48,88,1,,,,,,,,,,,,,,,,,,,,,,,,,,,,,,,,,,,,,,,,,,,,,,,,,,,,,,,,,,,,,,,,,,,,,,
,,,,1,1.666,,,,,,86,oven,rose,,88897,001,2022-04-29_14h42.24.789,SPAMnetsValid,2021.1.4,MacIntel,58.82352941,,,,,,,,,,,,,1,1.666,0,49,49,79,1,,,,,,,,,,,,,,,,,,,,,,,,,,,,,,,,,,,,,,,,,,,,,,,,,,,,,,,,,,,,,,,,,,,,,,
,,,,1,1.884,,,,,,53,garden,pretzel,,88897,001,2022-04-29_14h42.24.789,SPAMnetsValid,2021.1.4,MacIntel,58.82352941,,,,,,,,,,,,,1,1.884,0,50,50,0,1,,,,,,,,,,,,,,,,,,,,,,,,,,,,,,,,,,,,,,,,,,,,,,,,,,,,,,,,,,,,,,,,,,,,,,
,,,,1,1.043,,,,,,56,cactus,tree,,88897,001,2022-04-29_14h42.24.789,SPAMnetsValid,2021.1.4,MacIntel,58.82352941,,,,,,,,,,,,,1,1.043,0,51,51,21,1,,,,,,,,,,,,,,,,,,,,,,,,,,,,,,,,,,,,,,,,,,,,,,,,,,,,,,,,,,,,,,,,,,,,,,
,,,,1,0.823,,,,,,83,broom,carrot,,88897,001,2022-04-29_14h42.24.789,SPAMnetsValid,2021.1.4,MacIntel,58.82352941,,,,,,,,,,,,,1,0.823,0,52,52,4,1,,,,,,,,,,,,,,,,,,,,,,,,,,,,,,,,,,,,,,,,,,,,,,,,,,,,,,,,,,,,,,,,,,,,,,
,,,,1,1.327,,,,,,50,carrot,rose,,88897,001,2022-04-29_14h42.24.789,SPAMnetsValid,2021.1.4,MacIntel,58.82352941,,,,,,,,,,,,,1,1.327,0,53,53,73,1,,,,,,,,,,,,,,,,,,,,,,,,,,,,,,,,,,,,,,,,,,,,,,,,,,,,,,,,,,,,,,,,,,,,,,
,,,,1,1.358,,,,,,52,carrot,tomato,,88897,001,2022-04-29_14h42.24.789,SPAMnetsValid,2021.1.4,MacIntel,58.82352941,,,,,,,,,,,,,1,1.358,0,54,54,95,1,,,,,,,,,,,,,,,,,,,,,,,,,,,,,,,,,,,,,,,,,,,,,,,,,,,,,,,,,,,,,,,,,,,,,,
,,,,1,1.192,,,,,,60,cactus,onion,,88897,001,2022-04-29_14h42.24.789,SPAMnetsValid,2021.1.4,MacIntel,58.82352941,,,,,,,,,,,,,1,1.192,0,55,55,81,1,,,,,,,,,,,,,,,,,,,,,,,,,,,,,,,,,,,,,,,,,,,,,,,,,,,,,,,,,,,,,,,,,,,,,,
,,,,9,1.592,,,,,,30,cookie,pretzel,,88897,001,2022-04-29_14h42.24.789,SPAMnetsValid,2021.1.4,MacIntel,58.82352941,,,,,,,,,,,,,9,1.592,0,56,56,78,1,,,,,,,,,,,,,,,,,,,,,,,,,,,,,,,,,,,,,,,,,,,,,,,,,,,,,,,,,,,,,,,,,,,,,,
,,,,6,2.161,,,,,,2,kitchen,onion,,88897,001,2022-04-29_14h42.24.789,SPAMnetsValid,2021.1.4,MacIntel,58.82352941,,,,,,,,,,,,,6,2.161,0,57,57,91,1,,,,,,,,,,,,,,,,,,,,,,,,,,,,,,,,,,,,,,,,,,,,,,,,,,,,,,,,,,,,,,,,,,,,,,
,,,,6,1.233,,,,,,63,cake,cookie,,88897,001,2022-04-29_14h42.24.789,SPAMnetsValid,2021.1.4,MacIntel,58.82352941,,,,,,,,,,,,,6,1.233,0,58,58,93,1,,,,,,,,,,,,,,,,,,,,,,,,,,,,,,,,,,,,,,,,,,,,,,,,,,,,,,,,,,,,,,,,,,,,,,
,,,,8,2.25,,,,,,42,garden,kitchen,,88897,001,2022-04-29_14h42.24.789,SPAMnetsValid,2021.1.4,MacIntel,58.82352941,,,,,,,,,,,,,8,2.25,0,59,59,29,1,,,,,,,,,,,,,,,,,,,,,,,,,,,,,,,,,,,,,,,,,,,,,,,,,,,,,,,,,,,,,,,,,,,,,,
,,,,9,1.747,,,,,,93,kitchen,oven,,88897,001,2022-04-29_14h42.24.789,SPAMnetsValid,2021.1.4,MacIntel,58.82352941,,,,,,,,,,,,,9,1.747,0,60,60,82,1,,,,,,,,,,,,,,,,,,,,,,,,,,,,,,,,,,,,,,,,,,,,,,,,,,,,,,,,,,,,,,,,,,,,,,
,,,,2,1.984,,,,,,91,microwave,rose,,88897,001,2022-04-29_14h42.24.789,SPAMnetsValid,2021.1.4,MacIntel,58.82352941,,,,,,,,,,,,,2,1.984,0,61,61,84,1,,,,,,,,,,,,,,,,,,,,,,,,,,,,,,,,,,,,,,,,,,,,,,,,,,,,,,,,,,,,,,,,,,,,,,
,,,,5,2.44,,,,,,59,rose,strawberry,,88897,001,2022-04-29_14h42.24.789,SPAMnetsValid,2021.1.4,MacIntel,58.82352941,,,,,,,,,,,,,5,2.44,0,62,62,72,1,,,,,,,,,,,,,,,,,,,,,,,,,,,,,,,,,,,,,,,,,,,,,,,,,,,,,,,,,,,,,,,,,,,,,,
,,,,5,0.292,,,,,,22,kitchen,strawberry,,88897,001,2022-04-29_14h42.24.789,SPAMnetsValid,2021.1.4,MacIntel,58.82352941,,,,,,,,,,,,,5,0.292,0,63,63,2,1,,,,,,,,,,,,,,,,,,,,,,,,,,,,,,,,,,,,,,,,,,,,,,,,,,,,,,,,,,,,,,,,,,,,,,
,,,,5,0.275,,,,,,28,cake,melon,,88897,001,2022-04-29_14h42.24.789,SPAMnetsValid,2021.1.4,MacIntel,58.82352941,,,,,,,,,,,,,5,0.275,0,64,64,54,1,,,,,,,,,,,,,,,,,,,,,,,,,,,,,,,,,,,,,,,,,,,,,,,,,,,,,,,,,,,,,,,,,,,,,,
,,,,5,0.258,,,,,,46,garden,yogurt,,88897,001,2022-04-29_14h42.24.789,SPAMnetsValid,2021.1.4,MacIntel,58.82352941,,,,,,,,,,,,,5,0.258,0,65,65,65,1,,,,,,,,,,,,,,,,,,,,,,,,,,,,,,,,,,,,,,,,,,,,,,,,,,,,,,,,,,,,,,,,,,,,,,
,,,,5,0.025,,,,,,21,cake,onion,,88897,001,2022-04-29_14h42.24.789,SPAMnetsValid,2021.1.4,MacIntel,58.82352941,,,,,,,,,,,,,5,0.025,0,66,66,63,1,,,,,,,,,,,,,,,,,,,,,,,,,,,,,,,,,,,,,,,,,,,,,,,,,,,,,,,,,,,,,,,,,,,,,,
,,,,5,0.242,,,,,,19,microwave,pretzel,,88897,001,2022-04-29_14h42.24.789,SPAMnetsValid,2021.1.4,MacIntel,58.82352941,,,,,,,,,,,,,5,0.242,0,67,67,41,1,,,,,,,,,,,,,,,,,,,,,,,,,,,,,,,,,,,,,,,,,,,,,,,,,,,,,,,,,,,,,,,,,,,,,,
,,,,5,0.224,,,,,,37,garden,refrigerator,,88897,001,2022-04-29_14h42.24.789,SPAMnetsValid,2021.1.4,MacIntel,58.82352941,,,,,,,,,,,,,5,0.224,0,68,68,11,1,,,,,,,,,,,,,,,,,,,,,,,,,,,,,,,,,,,,,,,,,,,,,,,,,,,,,,,,,,,,,,,,,,,,,,
,,,,5,0.035,,,,,,64,chocolate,garden,,88897,001,2022-04-29_14h42.24.789,SPAMnetsValid,2021.1.4,MacIntel,58.82352941,,,,,,,,,,,,,5,0.035,0,69,69,14,1,,,,,,,,,,,,,,,,,,,,,,,,,,,,,,,,,,,,,,,,,,,,,,,,,,,,,,,,,,,,,,,,,,,,,,
,,,,5,0.035,,,,,,81,pretzel,yogurt,,88897,001,2022-04-29_14h42.24.789,SPAMnetsValid,2021.1.4,MacIntel,58.82352941,,,,,,,,,,,,,5,0.035,0,70,70,50,1,,,,,,,,,,,,,,,,,,,,,,,,,,,,,,,,,,,,,,,,,,,,,,,,,,,,,,,,,,,,,,,,,,,,,,
,,,,5,0.207,,,,,,51,onion,strawberry,,88897,001,2022-04-29_14h42.24.789,SPAMnetsValid,2021.1.4,MacIntel,58.82352941,,,,,,,,,,,,,5,0.207,0,71,71,86,1,,,,,,,,,,,,,,,,,,,,,,,,,,,,,,,,,,,,,,,,,,,,,,,,,,,,,,,,,,,,,,,,,,,,,,
,,,,5,0.392,,,,,,73,broom,chocolate,,88897,001,2022-04-29_14h42.24.789,SPAMnetsValid,2021.1.4,MacIntel,58.82352941,,,,,,,,,,,,,5,0.392,0,72,72,47,1,,,,,,,,,,,,,,,,,,,,,,,,,,,,,,,,,,,,,,,,,,,,,,,,,,,,,,,,,,,,,,,,,,,,,,
,,,,5,0.374,,,,,,67,flower,yogurt,,88897,001,2022-04-29_14h42.24.789,SPAMnetsValid,2021.1.4,MacIntel,58.82352941,,,,,,,,,,,,,5,0.374,0,73,73,12,1,,,,,,,,,,,,,,,,,,,,,,,,,,,,,,,,,,,,,,,,,,,,,,,,,,,,,,,,,,,,,,,,,,,,,,
,,,,5,0.19,,,,,,41,broom,cactus,,88897,001,2022-04-29_14h42.24.789,SPAMnetsValid,2021.1.4,MacIntel,58.82352941,,,,,,,,,,,,,5,0.19,0,74,74,46,1,,,,,,,,,,,,,,,,,,,,,,,,,,,,,,,,,,,,,,,,,,,,,,,,,,,,,,,,,,,,,,,,,,,,,,
,,,,5,0.04,,,,,,13,broom,yogurt,,88897,001,2022-04-29_14h42.24.789,SPAMnetsValid,2021.1.4,MacIntel,58.82352941,,,,,,,,,,,,,5,0.04,0,75,75,5,1,,,,,,,,,,,,,,,,,,,,,,,,,,,,,,,,,,,,,,,,,,,,,,,,,,,,,,,,,,,,,,,,,,,,,,
,,,,5,0.036,,,,,,10,flower,onion,,88897,001,2022-04-29_14h42.24.789,SPAMnetsValid,2021.1.4,MacIntel,58.82352941,,,,,,,,,,,,,5,0.036,0,76,76,45,1,,,,,,,,,,,,,,,,,,,,,,,,,,,,,,,,,,,,,,,,,,,,,,,,,,,,,,,,,,,,,,,,,,,,,,
,,,,5,0.037,,,,,,94,kitchen,microwave,,88897,001,2022-04-29_14h42.24.789,SPAMnetsValid,2021.1.4,MacIntel,58.82352941,,,,,,,,,,,,,5,0.037,0,77,77,58,1,,,,,,,,,,,,,,,,,,,,,,,,,,,,,,,,,,,,,,,,,,,,,,,,,,,,,,,,,,,,,,,,,,,,,,
,,,,5,0.208,,,,,,88,cactus,melon,,88897,001,2022-04-29_14h42.24.789,SPAMnetsValid,2021.1.4,MacIntel,58.82352941,,,,,,,,,,,,,5,0.208,0,78,78,38,1,,,,,,,,,,,,,,,,,,,,,,,,,,,,,,,,,,,,,,,,,,,,,,,,,,,,,,,,,,,,,,,,,,,,,,
,,,,5,0.177,,,,,,82,cake,kitchen,,88897,001,2022-04-29_14h42.24.789,SPAMnetsValid,2021.1.4,MacIntel,58.82352941,,,,,,,,,,,,,5,0.177,0,79,79,96,1,,,,,,,,,,,,,,,,,,,,,,,,,,,,,,,,,,,,,,,,,,,,,,,,,,,,,,,,,,,,,,,,,,,,,,
,,,,5,0.143,,,,,,68,flower,tomato,,88897,001,2022-04-29_14h42.24.789,SPAMnetsValid,2021.1.4,MacIntel,58.82352941,,,,,,,,,,,,,5,0.143,0,80,80,94,1,,,,,,,,,,,,,,,,,,,,,,,,,,,,,,,,,,,,,,,,,,,,,,,,,,,,,,,,,,,,,,,,,,,,,,
,,,,5,0.131,,,,,,58,garden,oven,,88897,001,2022-04-29_14h42.24.789,SPAMnetsValid,2021.1.4,MacIntel,58.82352941,,,,,,,,,,,,,5,0.131,0,81,81,37,1,,,,,,,,,,,,,,,,,,,,,,,,,,,,,,,,,,,,,,,,,,,,,,,,,,,,,,,,,,,,,,,,,,,,,,
,,,,5,0.099,,,,,,85,cake,tree,,88897,001,2022-04-29_14h42.24.789,SPAMnetsValid,2021.1.4,MacIntel,58.82352941,,,,,,,,,,,,,5,0.099,0,82,82,18,1,,,,,,,,,,,,,,,,,,,,,,,,,,,,,,,,,,,,,,,,,,,,,,,,,,,,,,,,,,,,,,,,,,,,,,
,,,,5,0.079,,,,,,54,chocolate,yogurt,,88897,001,2022-04-29_14h42.24.789,SPAMnetsValid,2021.1.4,MacIntel,58.82352941,,,,,,,,,,,,,5,0.079,0,83,83,67,1,,,,,,,,,,,,,,,,,,,,,,,,,,,,,,,,,,,,,,,,,,,,,,,,,,,,,,,,,,,,,,,,,,,,,,
,,,,5,0.115,,,,,,90,cactus,cake,,88897,001,2022-04-29_14h42.24.789,SPAMnetsValid,2021.1.4,MacIntel,58.82352941,,,,,,,,,,,,,5,0.115,0,84,84,85,1,,,,,,,,,,,,,,,,,,,,,,,,,,,,,,,,,,,,,,,,,,,,,,,,,,,,,,,,,,,,,,,,,,,,,,
,,,,5,0.103,,,,,,32,cake,microwave,,88897,001,2022-04-29_14h42.24.789,SPAMnetsValid,2021.1.4,MacIntel,58.82352941,,,,,,,,,,,,,5,0.103,0,85,85,33,1,,,,,,,,,,,,,,,,,,,,,,,,,,,,,,,,,,,,,,,,,,,,,,,,,,,,,,,,,,,,,,,,,,,,,,
,,,,5,0.098,,,,,,18,onion,refrigerator,,88897,001,2022-04-29_14h42.24.789,SPAMnetsValid,2021.1.4,MacIntel,58.82352941,,,,,,,,,,,,,5,0.098,0,86,86,62,1,,,,,,,,,,,,,,,,,,,,,,,,,,,,,,,,,,,,,,,,,,,,,,,,,,,,,,,,,,,,,,,,,,,,,,
,,,,5,0.091,,,,,,15,onion,oven,,88897,001,2022-04-29_14h42.24.789,SPAMnetsValid,2021.1.4,MacIntel,58.82352941,,,,,,,,,,,,,5,0.091,0,87,87,39,1,,,,,,,,,,,,,,,,,,,,,,,,,,,,,,,,,,,,,,,,,,,,,,,,,,,,,,,,,,,,,,,,,,,,,,
,,,,5,0.092,,,,,,3,cake,oven,,88897,001,2022-04-29_14h42.24.789,SPAMnetsValid,2021.1.4,MacIntel,58.82352941,,,,,,,,,,,,,5,0.092,0,88,88,30,1,,,,,,,,,,,,,,,,,,,,,,,,,,,,,,,,,,,,,,,,,,,,,,,,,,,,,,,,,,,,,,,,,,,,,,
,,,,5,0.077,,,,,,76,garden,rose,,88897,001,2022-04-29_14h42.24.789,SPAMnetsValid,2021.1.4,MacIntel,58.82352941,,,,,,,,,,,,,5,0.077,0,89,89,19,1,,,,,,,,,,,,,,,,,,,,,,,,,,,,,,,,,,,,,,,,,,,,,,,,,,,,,,,,,,,,,,,,,,,,,,
,,,,5,0.076,,,,,,36,broom,kitchen,,88897,001,2022-04-29_14h42.24.789,SPAMnetsValid,2021.1.4,MacIntel,58.82352941,,,,,,,,,,,,,5,0.076,0,90,90,76,1,,,,,,,,,,,,,,,,,,,,,,,,,,,,,,,,,,,,,,,,,,,,,,,,,,,,,,,,,,,,,,,,,,,,,,
,,,,5,0.107,,,,,,69,carrot,refrigerator,,88897,001,2022-04-29_14h42.24.789,SPAMnetsValid,2021.1.4,MacIntel,58.82352941,,,,,,,,,,,,,5,0.107,0,91,91,75,1,,,,,,,,,,,,,,,,,,,,,,,,,,,,,,,,,,,,,,,,,,,,,,,,,,,,,,,,,,,,,,,,,,,,,,
,,,,5,0.077,,,,,,40,broom,cake,,88897,001,2022-04-29_14h42.24.789,SPAMnetsValid,2021.1.4,MacIntel,58.82352941,,,,,,,,,,,,,5,0.077,0,92,92,32,1,,,,,,,,,,,,,,,,,,,,,,,,,,,,,,,,,,,,,,,,,,,,,,,,,,,,,,,,,,,,,,,,,,,,,,
,,,,5,0.098,,,,,,79,garden,strawberry,,88897,001,2022-04-29_14h42.24.789,SPAMnetsValid,2021.1.4,MacIntel,58.82352941,,,,,,,,,,,,,5,0.098,0,93,93,87,1,,,,,,,,,,,,,,,,,,,,,,,,,,,,,,,,,,,,,,,,,,,,,,,,,,,,,,,,,,,,,,,,,,,,,,
,,,,5,0.075,,,,,,77,refrigerator,yogurt,,88897,001,2022-04-29_14h42.24.789,SPAMnetsValid,2021.1.4,MacIntel,58.82352941,,,,,,,,,,,,,5,0.075,0,94,94,42,1,,,,,,,,,,,,,,,,,,,,,,,,,,,,,,,,,,,,,,,,,,,,,,,,,,,,,,,,,,,,,,,,,,,,,,
,,,,5,0.105,,,,,,66,melon,yogurt,,88897,001,2022-04-29_14h42.24.789,SPAMnetsValid,2021.1.4,MacIntel,58.82352941,,,,,,,,,,,,,5,0.105,0,95,95,48,1,,,,,,,,,,,,,,,,,,,,,,,,,,,,,,,,,,,,,,,,,,,,,,,,,,,,,,,,,,,,,,,,,,,,,,
,,,,5,0.067,,,,,,78,cookie,rose,,88897,001,2022-04-29_14h42.24.789,SPAMnetsValid,2021.1.4,MacIntel,58.82352941,,,,,,,,,,,,,5,0.067,0,96,96,56,1,,,,,,,,,,,,,,,,,,,,,,,,,,,,,,,,,,,,,,,,,,,,,,,,,,,,,,,,,,,,,,,,,,,,,,
,,,,,,,,,,,,,,,88897,001,2022-04-29_14h42.24.789,SPAMnetsValid,2021.1.4,MacIntel,58.82352941,,,,,,,,,,,,,,,,,,,,0,0,0,0,1,,,,,,,,,,,,,,,,,,,,,,,,,,,,,,,,,,,,,,,,,,,,,,,,,,,,,,,,,,,,,,,,,
,,,,,,,,,,,,,,,88897,001,2022-04-29_14h42.24.789,SPAMnetsValid,2021.1.4,MacIntel,58.82352941,,,,,,0,1,1,0,1,1,0,,,,,,,,,,,,,,,,,,,,,,,,,,,,,,,,,,,,,,,,,,,,,,,,,,,,,,,,,,,,,,,,,,,,,,,,,,,,,
,,,,,,,,,,,,,,,88897,001,2022-04-29_14h42.24.789,SPAMnetsValid,2021.1.4,MacIntel,58.82352941,,,,,,,,,,,,,,,,,,,,,,,,,3,7.157,0,0,0,0,1,rancor,forbearance,ridicule,malice,bravery,3,,,,,,,,,,,,,,,,,,,,,,,,,,,,,,,,,,,,,,,,,,,,,,,,,,,,
,,,,,,,,,,,,,,,88897,001,2022-04-29_14h42.24.789,SPAMnetsValid,2021.1.4,MacIntel,58.82352941,,,,,,,,,,,,,,,,,,,,,,,,,4,4.588,0,1,1,1,1,raucous,empty,quiet,smooth,harsh,4,,,,,,,,,,,,,,,,,,,,,,,,,,,,,,,,,,,,,,,,,,,,,,,,,,,,
,,,,,,,,,,,,,,,88897,001,2022-04-29_14h42.24.789,SPAMnetsValid,2021.1.4,MacIntel,58.82352941,,,,,,,,,,,,,,,,,,,,,,,,,4,3.043,0,2,2,2,1,gargoyle,oil,medicine,carved waterspout,ugly building,3,,,,,,,,,,,,,,,,,,,,,,,,,,,,,,,,,,,,,,,,,,,,,,,,,,,,
,,,,,,,,,,,,,,,88897,001,2022-04-29_14h42.24.789,SPAMnetsValid,2021.1.4,MacIntel,58.82352941,,,,,,,,,,,,,,,,,,,,,,,,,3,4.653,0,3,3,3,1,recrudesce,purify,renew activity,lack refinement,crush,2,,,,,,,,,,,,,,,,,,,,,,,,,,,,,,,,,,,,,,,,,,,,,,,,,,,,
,,,,,,,,,,,,,,,88897,001,2022-04-29_14h42.24.789,SPAMnetsValid,2021.1.4,MacIntel,58.82352941,,,,,,,,,,,,,,,,,,,,,,,,,3,7.943,0,4,4,4,1,specious,"plausible, but not genuine",noteworthy,class or variety,roomy,1,,,,,,,,,,,,,,,,,,,,,,,,,,,,,,,,,,,,,,,,,,,,,,,,,,,,
,,,,,,,,,,,,,,,88897,001,2022-04-29_14h42.24.789,SPAMnetsValid,2021.1.4,MacIntel,58.82352941,,,,,,,,,,,,,,,,,,,,,,,,,1,2.659,0,5,5,5,1,bauble,bubble,showy plaything,idle talk,confusion,2,,,,,,,,,,,,,,,,,,,,,,,,,,,,,,,,,,,,,,,,,,,,,,,,,,,,
,,,,,,,,,,,,,,,88897,001,2022-04-29_14h42.24.789,SPAMnetsValid,2021.1.4,MacIntel,58.82352941,,,,,,,,,,,,,,,,,,,,,,,,,2,9.492,0,6,6,6,1,prolific,scarce,producing abundantly,reckless,speaking profanely,2,,,,,,,,,,,,,,,,,,,,,,,,,,,,,,,,,,,,,,,,,,,,,,,,,,,,
,,,,,,,,,,,,,,,88897,001,2022-04-29_14h42.24.789,SPAMnetsValid,2021.1.4,MacIntel,58.82352941,,,,,,,,,,,,,,,,,,,,,,,,,4,3.524,0,7,7,7,1,opulent,party,wealthy,happy frame of mind,semiprecious stone,2,,,,,,,,,,,,,,,,,,,,,,,,,,,,,,,,,,,,,,,,,,,,,,,,,,,,
,,,,,,,,,,,,,,,88897,001,2022-04-29_14h42.24.789,SPAMnetsValid,2021.1.4,MacIntel,58.82352941,,,,,,,,,,,,,,,,,,,,,,,,,1,3.325,0,8,8,8,1,coercion,conspiracy,strategy,restraint,attraction,3,,,,,,,,,,,,,,,,,,,,,,,,,,,,,,,,,,,,,,,,,,,,,,,,,,,,
,,,,,,,,,,,,,,,88897,001,2022-04-29_14h42.24.789,SPAMnetsValid,2021.1.4,MacIntel,58.82352941,,,,,,,,,,,,,,,,,,,,,,,,,2,2.941,0,9,9,9,1,hiatus,animal,calamity,dread,gap,4,,,,,,,,,,,,,,,,,,,,,,,,,,,,,,,,,,,,,,,,,,,,,,,,,,,,
,,,,,,,,,,,,,,,88897,001,2022-04-29_14h42.24.789,SPAMnetsValid,2021.1.4,MacIntel,58.82352941,,,,,,,,,,,,,,,,,,,,,,,,,1,5.01,0,10,10,10,1,germane,microbe,contagious,relevant,different,3,,,,,,,,,,,,,,,,,,,,,,,,,,,,,,,,,,,,,,,,,,,,,,,,,,,,
,,,,,,,,,,,,,,,88897,001,2022-04-29_14h42.24.789,SPAMnetsValid,2021.1.4,MacIntel,58.82352941,,,,,,,,,,,,,,,,,,,,,,,,,3,7.83,0,11,11,11,1,perfunctory,fundamental,formal,superficial,careful,3,,,,,,,,,,,,,,,,,,,,,,,,,,,,,,,,,,,,,,,,,,,,,,,,,,,,
,,,,,,,,,,,,,,,88897,001,2022-04-29_14h42.24.789,SPAMnetsValid,2021.1.4,MacIntel,58.82352941,,,,,,,,,,,,,,,,,,,,,,,,,4,2.961,0,12,12,12,1,diverge,reveal,chant,distract the attention of,differ or turn off from,4,,,,,,,,,,,,,,,,,,,,,,,,,,,,,,,,,,,,,,,,,,,,,,,,,,,,
,,,,,,,,,,,,,,,88897,001,2022-04-29_14h42.24.789,SPAMnetsValid,2021.1.4,MacIntel,58.82352941,,,,,,,,,,,,,,,,,,,,,,,,,4,4.306,0,13,13,13,1,evoke,take away,anger,connect,bring out,4,,,,,,,,,,,,,,,,,,,,,,,,,,,,,,,,,,,,,,,,,,,,,,,,,,,,
,,,,,,,,,,,,,,,88897,001,2022-04-29_14h42.24.789,SPAMnetsValid,2021.1.4,MacIntel,58.82352941,,,,,,,,,,,,,,,,,,,,,,,,,3,5.497,0,14,14,14,1,pertinent,relevant,lying next to,necessary,bold,1,,,,,,,,,,,,,,,,,,,,,,,,,,,,,,,,,,,,,,,,,,,,,,,,,,,,
,,,,,,,,,,,,,,,88897,001,2022-04-29_14h42.24.789,SPAMnetsValid,2021.1.4,MacIntel,58.82352941,,,,,,,,,,,,,,,,,,,,,,,,,2,4.193,0,15,15,15,1,holocaust,entirety,destruction,saintly,price,2,,,,,,,,,,,,,,,,,,,,,,,,,,,,,,,,,,,,,,,,,,,,,,,,,,,,
,,,,,,,,,,,,,,,88897,001,2022-04-29_14h42.24.789,SPAMnetsValid,2021.1.4,MacIntel,58.82352941,,,,,,,,,,,,,,,,,,,,,,,,,3,5.108,0,16,16,16,1,piquant,mellow,fish,pungent,cloth,3,,,,,,,,,,,,,,,,,,,,,,,,,,,,,,,,,,,,,,,,,,,,,,,,,,,,
,,,,,,,,,,,,,,,88897,001,2022-04-29_14h42.24.789,SPAMnetsValid,2021.1.4,MacIntel,58.82352941,,,,,,,,,,,,,,,,,,,,,,,,,3,3.205,0,17,17,17,1,firmament,foundation,heavens,strong,glue,2,,,,,,,,,,,,,,,,,,,,,,,,,,,,,,,,,,,,,,,,,,,,,,,,,,,,
,,,,,,,,,,,,,,,88897,001,2022-04-29_14h42.24.789,SPAMnetsValid,2021.1.4,MacIntel,58.82352941,,,,,,,,,,,,,,,,,,,,,,,,,,,,,,,,,,,,,,2,4.213,0,0,0,0,1,marketable,partisan,jocular,marriageable,salable,essential,4,,,,,,,,,,,,,,,,,,,,,,,,,,,,,,,,,,,,,,
,,,,,,,,,,,,,,,88897,001,2022-04-29_14h42.24.789,SPAMnetsValid,2021.1.4,MacIntel,58.82352941,,,,,,,,,,,,,,,,,,,,,,,,,,,,,,,,,,,,,,4,4.417,0,1,1,1,1,cottontail,squirrel,poplar,boa,marshy plant,rabbit,5,,,,,,,,,,,,,,,,,,,,,,,,,,,,,,,,,,,,,,
,,,,,,,,,,,,,,,88897,001,2022-04-29_14h42.24.789,SPAMnetsValid,2021.1.4,MacIntel,58.82352941,,,,,,,,,,,,,,,,,,,,,,,,,,,,,,,,,,,,,,3,2.417,0,2,2,2,1,boggy,afraid,false,marshy,dense,black,3,,,,,,,,,,,,,,,,,,,,,,,,,,,,,,,,,,,,,,
,,,,,,,,,,,,,,,88897,001,2022-04-29_14h42.24.789,SPAMnetsValid,2021.1.4,MacIntel,58.82352941,,,,,,,,,,,,,,,,,,,,,,,,,,,,,,,,,,,,,,3,4.692,0,3,3,3,1,gruesomeness,blackness,falseness,vindictiveness,drunkenness,ghastliness,5,,,,,,,,,,,,,,,,,,,,,,,,,,,,,,,,,,,,,,
,,,,,,,,,,,,,,,88897,001,2022-04-29_14h42.24.789,SPAMnetsValid,2021.1.4,MacIntel,58.82352941,,,,,,,,,,,,,,,,,,,,,,,,,,,,,,,,,,,,,,4,3.795,0,4,4,4,1,loathing,diffidence,laziness,abhorrence,cleverness,comfort,3,,,,,,,,,,,,,,,,,,,,,,,,,,,,,,,,,,,,,,
,,,,,,,,,,,,,,,88897,001,2022-04-29_14h42.24.789,SPAMnetsValid,2021.1.4,MacIntel,58.82352941,,,,,,,,,,,,,,,,,,,,,,,,,,,,,,,,,,,,,,2,8.133,0,5,5,5,1,bantam,fowl,ridicule,cripple,vegetable,ensign,1,,,,,,,,,,,,,,,,,,,,,,,,,,,,,,,,,,,,,,
,,,,,,,,,,,,,,,88897,001,2022-04-29_14h42.24.789,SPAMnetsValid,2021.1.4,MacIntel,58.82352941,,,,,,,,,,,,,,,,,,,,,,,,,,,,,,,,,,,,,,5,12.036,0,6,6,6,1,evoke,wake up,surrender,reconnoiter,transcend,call forth,5,,,,,,,,,,,,,,,,,,,,,,,,,,,,,,,,,,,,,,
,,,,,,,,,,,,,,,88897,001,2022-04-29_14h42.24.789,SPAMnetsValid,2021.1.4,MacIntel,58.82352941,,,,,,,,,,,,,,,,,,,,,,,,,,,,,,,,,,,,,,,,0,7,7,7,1,unobtrusive,unintelligent,epileptic,illogical,lineal,modest,5,,,,,,,,,,,,,,,,,,,,,,,,,,,,,,,,,,,,,,
,,,,,,,,,,,,,,,88897,001,2022-04-29_14h42.24.789,SPAMnetsValid,2021.1.4,MacIntel,58.82352941,,,,,,,,,,,,,,,,,,,,,,,,,,,,,,,,,,,,,,4,6.116,0,8,8,8,1,terrain,ice cream,final test,tractor,area of ground,weight,4,,,,,,,,,,,,,,,,,,,,,,,,,,,,,,,,,,,,,,
,,,,,,,,,,,,,,,88897,001,2022-04-29_14h42.24.789,SPAMnetsValid,2021.1.4,MacIntel,58.82352941,,,,,,,,,,,,,,,,,,,,,,,,,,,,,,,,,,,,,,1,5.982,0,9,9,9,1,capriciousness,stubbornness,courage,whimsicality,amazement,greediness,3,,,,,,,,,,,,,,,,,,,,,,,,,,,,,,,,,,,,,,
,,,,,,,,,,,,,,,88897,001,2022-04-29_14h42.24.789,SPAMnetsValid,2021.1.4,MacIntel,58.82352941,,,,,,,,,,,,,,,,,,,,,,,,,,,,,,,,,,,,,,,,0,10,10,10,1,maelstrom,slander,whirlpool,enmity,armor,majolica,2,,,,,,,,,,,,,,,,,,,,,,,,,,,,,,,,,,,,,,
,,,,,,,,,,,,,,,88897,001,2022-04-29_14h42.24.789,SPAMnetsValid,2021.1.4,MacIntel,58.82352941,,,,,,,,,,,,,,,,,,,,,,,,,,,,,,,,,,,,,,5,9.084,0,11,11,11,1,tentative,critical,conclusive,authentic,provisional,apprehensive,4,,,,,,,,,,,,,,,,,,,,,,,,,,,,,,,,,,,,,,
,,,,,,,,,,,,,,,88897,001,2022-04-29_14h42.24.789,SPAMnetsValid,2021.1.4,MacIntel,58.82352941,,,,,,,,,,,,,,,,,,,,,,,,,,,,,,,,,,,,,,2,8.862,0,12,12,12,1,placate,rehabilitate,plagiarize,depredate,apprise,conciliate,5,,,,,,,,,,,,,,,,,,,,,,,,,,,,,,,,,,,,,,
,,,,,,,,,,,,,,,88897,001,2022-04-29_14h42.24.789,SPAMnetsValid,2021.1.4,MacIntel,58.82352941,,,,,,,,,,,,,,,,,,,,,,,,,,,,,,,,,,,,,,2,4.106,0,13,13,13,1,surcease,enlightenment,cessation,inattention,censor,substitution,2,,,,,,,,,,,,,,,,,,,,,,,,,,,,,,,,,,,,,,
,,,,,,,,,,,,,,,88897,001,2022-04-29_14h42.24.789,SPAMnetsValid,2021.1.4,MacIntel,58.82352941,,,,,,,,,,,,,,,,,,,,,,,,,,,,,,,,,,,,,,1,4.877,0,14,14,14,1,apathetic,wandering,impassive,hateful,prophetic,overflowing,2,,,,,,,,,,,,,,,,,,,,,,,,,,,,,,,,,,,,,,
,,,,,,,,,,,,,,,88897,001,2022-04-29_14h42.24.789,SPAMnetsValid,2021.1.4,MacIntel,58.82352941,,,,,,,,,,,,,,,,,,,,,,,,,,,,,,,,,,,,,,4,3.966,0,15,15,15,1,paternoster,paternalism,patricide,malediction,benediction,prayer,5,,,,,,,,,,,,,,,,,,,,,,,,,,,,,,,,,,,,,,
,,,,,,,,,,,,,,,88897,001,2022-04-29_14h42.24.789,SPAMnetsValid,2021.1.4,MacIntel,58.82352941,,,,,,,,,,,,,,,,,,,,,,,,,,,,,,,,,,,,,,,,0,16,16,16,1,opalescence,opulence,senescence,bankruptcy,iridescence,assiduity,4,,,,,,,,,,,,,,,,,,,,,,,,,,,,,,,,,,,,,,
,,,,,,,,,,,,,,,88897,001,2022-04-29_14h42.24.789,SPAMnetsValid,2021.1.4,MacIntel,58.82352941,,,,,,,,,,,,,,,,,,,,,,,,,,,,,,,,,,,,,,2,2.125,0,17,17,17,1,lush,stupid,luxurious,hazy,putrid,languishing,2,,,,,,,,,,,,,,,,,,,,,,,,,,,,,,,,,,,,,,
,,,,,,,,,,,,,,,88897,001,2022-04-29_14h42.24.789,SPAMnetsValid,2021.1.4,MacIntel,58.82352941,,,,,,,,,,,,,,,,,,,,,,,,,,,,,,,,,,,,,,2,5.716,0,18,18,18,1,curtailment,expenditure,abandonment,abridgment,improvement,forgery,3,,,,,,,,,,,,,,,,,,,,,,,,,,,,,,,,,,,,,,
,,,,,,,,,,,,,,,88897,001,2022-04-29_14h42.24.789,SPAMnetsValid,2021.1.4,MacIntel,58.82352941,,,,,,,,,,,,,,,,,,,,,,,,,,,,,,,,,,,,,,,,0,19,19,19,1,perversity,adversity,perviousness,travesty,waywardness,gentility,4,,,,,,,,,,,,,,,,,,,,,,,,,,,,,,,,,,,,,,
,,,,,,,,,,,,,,,88897,001,2022-04-29_14h42.24.789,SPAMnetsValid,2021.1.4,MacIntel,58.82352941,,,,,,,,,,,,,,,,,,,,,,,,,,,,,,,,,,,,,,1,4.226,0,20,20,20,1,calumnious,complimentary,analogous,slanderous,tempestuous,magnanimous,3,,,,,,,,,,,,,,,,,,,,,,,,,,,,,,,,,,,,,,
,,,,,,,,,,,,,,,88897,001,2022-04-29_14h42.24.789,SPAMnetsValid,2021.1.4,MacIntel,58.82352941,,,,,,,,,,,,,,,,,,,,,,,,,,,,,,,,,,,,,,,,0,21,21,21,1,illiberality,bigotry,imbecility,illegibility,cautery,immaturity,1,,,,,,,,,,,,,,,,,,,,,,,,,,,,,,,,,,,,,,
,,,,,,,,,,,,,,,88897,001,2022-04-29_14h42.24.789,SPAMnetsValid,2021.1.4,MacIntel,58.82352941,,,,,,,,,,,,,,,,,,,,,,,,,,,,,,,,,,,,,,2,33.989,0,22,22,22,1,clabber,rejoice,gossip,curdle,crow,hobble,3,,,,,,,,,,,,,,,,,,,,,,,,,,,,,,,,,,,,,,
,,,,,,,,,,,,,,,88897,001,2022-04-29_14h42.24.789,SPAMnetsValid,2021.1.4,MacIntel,58.82352941,,,,,,,,,,,,,,,,,,,,,,,,,,,,,,,,,,,,,,,,0,23,23,23,1,sedulousness,diligence,credulousness,seduction,perilousness,frankness,1,,,,,,,,,,,,,,,,,,,,,,,,,,,,,,,,,,,,,,
,,,,,,,,,,,,,,,88897,001,2022-04-29_14h42.24.789,SPAMnetsValid,2021.1.4,MacIntel,58.82352941,,,,,,,,,,,,,,,,,,,,,,,,,,,,,,,,,,,,,,,,,,,,,,,,,,,,scent,candle,0,0,0,0,1,,,,,,,,,,,,,,,,,,,,,,,,,,,,,,,
,,,,,,,,,,,,,,,88897,001,2022-04-29_14h42.24.789,SPAMnetsValid,2021.1.4,MacIntel,58.82352941,,,,,,,,,,,,,,,,,,,,,,,,,,,,,,,,,,,,,,,,,,,,,,,,,,,,light,candle,1,0,1,0,1,,,,,,,,,,,,,,,,,,,,,,,,,,,,,,,
,,,,,,,,,,,,,,,88897,001,2022-04-29_14h42.24.789,SPAMnetsValid,2021.1.4,MacIntel,58.82352941,,,,,,,,,,,,,,,,,,,,,,,,,,,,,,,,,,,,,,,,,,,,,,,,,,,,wick,candle,2,0,2,0,1,,,,,,,,,,,,,,,,,,,,,,,,,,,,,,,
,,,,,,,,,,,,,,,88897,001,2022-04-29_14h42.24.789,SPAMnetsValid,2021.1.4,MacIntel,58.82352941,,,,,,,,,,,,,,,,,,,,,,,,,,,,,,,,,,,,,,,,,,,,,,,,,,,,smell,candle,3,0,3,0,1,,,,,,,,,,,,,,,,,,,,,,,,,,,,,,,
,,,,,,,,,,,,,,,88897,001,2022-04-29_14h42.24.789,SPAMnetsValid,2021.1.4,MacIntel,58.82352941,,,,,,,,,,,,,,,,,,,,,,,,,,,,,,,,,,,,,,,,,,,,,,,,,,,,light,candle,4,0,4,0,1,,,,,,,,,,,,,,,,,,,,,,,,,,,,,,,
,,,,,,,,,,,,,,,88897,001,2022-04-29_14h42.24.789,SPAMnetsValid,2021.1.4,MacIntel,58.82352941,,,,,,,,,,,,,,,,,,,,,,,,,,,,,,,,,,,,,,,,,,,,,,,,,,,,pretty,candle,5,0,5,0,1,,,,,,,,,,,,,,,,,,,,,,,,,,,,,,,
,,,,,,,,,,,,,,,88897,001,2022-04-29_14h42.24.789,SPAMnetsValid,2021.1.4,MacIntel,58.82352941,,,,,,,,,,,,,,,,,,,,,,,,,,,,,,,,,,,,,,,,,,,,,,,,,,,,relax,candle,6,0,6,0,1,,,,,,,,,,,,,,,,,,,,,,,,,,,,,,,
,,,,,,,,,,,,,,,88897,001,2022-04-29_14h42.24.789,SPAMnetsValid,2021.1.4,MacIntel,58.82352941,,,,,,,,,,,,,,,,,,,,,,,,,,,,,,,,,,,,,,,,,,,,,,,,,,,,clam,candle,7,0,7,0,1,,,,,,,,,,,,,,,,,,,,,,,,,,,,,,,
,,,,,,,,,,,,,,,88897,001,2022-04-29_14h42.24.789,SPAMnetsValid,2021.1.4,MacIntel,58.82352941,,,,,,,,,,,,,,,,,,,,,,,,,,,,,,,,,,,,,,,,,,,,,,,,,,,,clean,candle,8,0,8,0,1,,,,,,,,,,,,,,,,,,,,,,,,,,,,,,,
,,,,,,,,,,,,,,,88897,001,2022-04-29_14h42.24.789,SPAMnetsValid,2021.1.4,MacIntel,58.82352941,,,,,,,,,,,,,,,,,,,,,,,,,,,,,,,,,,,,,,,,,,,,,,,,,,,,room,candle,9,0,9,0,1,,,,,,,,,,,,,,,,,,,,,,,,,,,,,,,
,,,,,,,,,,,,,,,88897,001,2022-04-29_14h42.24.789,SPAMnetsValid,2021.1.4,MacIntel,58.82352941,,,,,,,,,,,,,,,,,,,,,,,,,,,,,,,,,,,,,,,,,,,,,,,,,,,, kitchen,candle,10,0,10,0,1,,,,,,,,,,,,,,,,,,,,,,,,,,,,,,,
,,,,,,,,,,,,,,,88897,001,2022-04-29_14h42.24.789,SPAMnetsValid,2021.1.4,MacIntel,58.82352941,,,,,,,,,,,,,,,,,,,,,,,,,,,,,,,,,,,,,,,,,,,,,,,,,,,,,candle,11,0,11,0,1,,,,,,,,,,,,,,,,,,,,,,,,,,,,,,,
,,,,,,,,,,,,,,,88897,001,2022-04-29_14h42.24.789,SPAMnetsValid,2021.1.4,MacIntel,58.82352941,,,,,,,,,,,,,,,,,,,,,,,,,,,,,,,,,,,,,,,,,,,,,,,,,,,,,candle,12,0,12,0,1,,,,,,,,,,,,,,,,,,,,,,,,,,,,,,,
,,,,,,,,,,,,,,,88897,001,2022-04-29_14h42.24.789,SPAMnetsValid,2021.1.4,MacIntel,58.82352941,,,,,,,,,,,,,,,,,,,,,,,,,,,,,,,,,,,,,,,,,,,,,,,,,,,,at,candle,13,0,13,0,1,,,,,,,,,,,,,,,,,,,,,,,,,,,,,,,
,,,,,,,,,,,,,,,88897,001,2022-04-29_14h42.24.789,SPAMnetsValid,2021.1.4,MacIntel,58.82352941,,,,,,,,,,,,,,,,,,,,,,,,,,,,,,,,,,,,,,,,,,,,,,,,,,,,art,candle,14,0,14,0,1,,,,,,,,,,,,,,,,,,,,,,,,,,,,,,,
,,,,,,,,,,,,,,,88897,001,2022-04-29_14h42.24.789,SPAMnetsValid,2021.1.4,MacIntel,58.82352941,,,,,,,,,,,,,,,,,,,,,,,,,,,,,,,,,,,,,,,,,,,,,,,,,,,,shapes,candle,15,0,15,0,1,,,,,,,,,,,,,,,,,,,,,,,,,,,,,,,
,,,,,,,,,,,,,,,88897,001,2022-04-29_14h42.24.789,SPAMnetsValid,2021.1.4,MacIntel,58.82352941,,,,,,,,,,,,,,,,,,,,,,,,,,,,,,,,,,,,,,,,,,,,,,,,,,,,deisgns,candle,16,0,16,0,1,,,,,,,,,,,,,,,,,,,,,,,,,,,,,,,
,,,,,,,,,,,,,,,88897,001,2022-04-29_14h42.24.789,SPAMnetsValid,2021.1.4,MacIntel,58.82352941,,,,,,,,,,,,,,,,,,,,,,,,,,,,,,,,,,,,,,,,,,,,,,,,,,,,pretty,candle,17,0,17,0,1,,,,,,,,,,,,,,,,,,,,,,,,,,,,,,,
,,,,,,,,,,,,,,,88897,001,2022-04-29_14h42.24.789,SPAMnetsValid,2021.1.4,MacIntel,58.82352941,,,,,,,,,,,,,,,,,,,,,,,,,,,,,,,,,,,,,,,,,,,,,,,,,,,,decorative,candle,18,0,18,0,1,,,,,,,,,,,,,,,,,,,,,,,,,,,,,,,
,,,,,,,,,,,,,,,88897,001,2022-04-29_14h42.24.789,SPAMnetsValid,2021.1.4,MacIntel,58.82352941,,,,,,,,,,,,,,,,,,,,,,,,,,,,,,,,,,,,,,,,,,,,,,,,,,,,beautiful,candle,19,0,19,0,1,,,,,,,,,,,,,,,,,,,,,,,,,,,,,,,
,,,,,,,,,,,,,,,88897,001,2022-04-29_14h42.24.789,SPAMnetsValid,2021.1.4,MacIntel,58.82352941,,,,,,,,,,,,,,,,,,,,,,,,,,,,,,,,,,,,,,,,,,,,,,,,,,,,quotes,candle,20,0,20,0,1,,,,,,,,,,,,,,,,,,,,,,,,,,,,,,,
,,,,,,,,,,,,,,,88897,001,2022-04-29_14h42.24.789,SPAMnetsValid,2021.1.4,MacIntel,58.82352941,,,,,,,,,,,,,,,,,,,,,,,,,,,,,,,,,,,,,,,,,,,,,,,,,,,,put things in it get out when wax melts,candle,21,0,21,0,1,,,,,,,,,,,,,,,,,,,,,,,,,,,,,,,
,,,,,,,,,,,,,,,88897,001,2022-04-29_14h42.24.789,SPAMnetsValid,2021.1.4,MacIntel,58.82352941,,,,,,,,,,,,,,,,,,,,,,,,,,,,,,,,,,,,,,,,,,,,,,,,,,,,,,,,,,,0,0,0,1,1,candle,,,,,,,,,,,,,,,,,,,,,,,,,
,,,,,,,,,,,,,,,88897,001,2022-04-29_14h42.24.789,SPAMnetsValid,2021.1.4,MacIntel,58.82352941,,,,,,,,,,,,,,,,,,,,,,,,,,,,,,,,,,,,,,,,,,,,,,,,,,,,sand,bucket,0,0,0,0,1,,,,,,,,,,,,,,,,,,,,,,,,,,,,,,,
,,,,,,,,,,,,,,,88897,001,2022-04-29_14h42.24.789,SPAMnetsValid,2021.1.4,MacIntel,58.82352941,,,,,,,,,,,,,,,,,,,,,,,,,,,,,,,,,,,,,,,,,,,,,,,,,,,,carry ,bucket,1,0,1,0,1,,,,,,,,,,,,,,,,,,,,,,,,,,,,,,,
,,,,,,,,,,,,,,,88897,001,2022-04-29_14h42.24.789,SPAMnetsValid,2021.1.4,MacIntel,58.82352941,,,,,,,,,,,,,,,,,,,,,,,,,,,,,,,,,,,,,,,,,,,,,,,,,,,,water,bucket,2,0,2,0,1,,,,,,,,,,,,,,,,,,,,,,,,,,,,,,,
,,,,,,,,,,,,,,,88897,001,2022-04-29_14h42.24.789,SPAMnetsValid,2021.1.4,MacIntel,58.82352941,,,,,,,,,,,,,,,,,,,,,,,,,,,,,,,,,,,,,,,,,,,,,,,,,,,,water,bucket,3,0,3,0,1,,,,,,,,,,,,,,,,,,,,,,,,,,,,,,,
,,,,,,,,,,,,,,,88897,001,2022-04-29_14h42.24.789,SPAMnetsValid,2021.1.4,MacIntel,58.82352941,,,,,,,,,,,,,,,,,,,,,,,,,,,,,,,,,,,,,,,,,,,,,,,,,,,,dirt,bucket,4,0,4,0,1,,,,,,,,,,,,,,,,,,,,,,,,,,,,,,,
,,,,,,,,,,,,,,,88897,001,2022-04-29_14h42.24.789,SPAMnetsValid,2021.1.4,MacIntel,58.82352941,,,,,,,,,,,,,,,,,,,,,,,,,,,,,,,,,,,,,,,,,,,,,,,,,,,,beach,bucket,5,0,5,0,1,,,,,,,,,,,,,,,,,,,,,,,,,,,,,,,
,,,,,,,,,,,,,,,88897,001,2022-04-29_14h42.24.789,SPAMnetsValid,2021.1.4,MacIntel,58.82352941,,,,,,,,,,,,,,,,,,,,,,,,,,,,,,,,,,,,,,,,,,,,,,,,,,,,little kis,bucket,6,0,6,0,1,,,,,,,,,,,,,,,,,,,,,,,,,,,,,,,
,,,,,,,,,,,,,,,88897,001,2022-04-29_14h42.24.789,SPAMnetsValid,2021.1.4,MacIntel,58.82352941,,,,,,,,,,,,,,,,,,,,,,,,,,,,,,,,,,,,,,,,,,,,,,,,,,,,kids,bucket,7,0,7,0,1,,,,,,,,,,,,,,,,,,,,,,,,,,,,,,,
,,,,,,,,,,,,,,,88897,001,2022-04-29_14h42.24.789,SPAMnetsValid,2021.1.4,MacIntel,58.82352941,,,,,,,,,,,,,,,,,,,,,,,,,,,,,,,,,,,,,,,,,,,,,,,,,,,,hold bugs,bucket,8,0,8,0,1,,,,,,,,,,,,,,,,,,,,,,,,,,,,,,,
,,,,,,,,,,,,,,,88897,001,2022-04-29_14h42.24.789,SPAMnetsValid,2021.1.4,MacIntel,58.82352941,,,,,,,,,,,,,,,,,,,,,,,,,,,,,,,,,,,,,,,,,,,,,,,,,,,, sandcasltle,bucket,9,0,9,0,1,,,,,,,,,,,,,,,,,,,,,,,,,,,,,,,
,,,,,,,,,,,,,,,88897,001,2022-04-29_14h42.24.789,SPAMnetsValid,2021.1.4,MacIntel,58.82352941,,,,,,,,,,,,,,,,,,,,,,,,,,,,,,,,,,,,,,,,,,,,,,,,,,,,carry,bucket,10,0,10,0,1,,,,,,,,,,,,,,,,,,,,,,,,,,,,,,,
,,,,,,,,,,,,,,,88897,001,2022-04-29_14h42.24.789,SPAMnetsValid,2021.1.4,MacIntel,58.82352941,,,,,,,,,,,,,,,,,,,,,,,,,,,,,,,,,,,,,,,,,,,,,,,,,,,,transport,bucket,11,0,11,0,1,,,,,,,,,,,,,,,,,,,,,,,,,,,,,,,
,,,,,,,,,,,,,,,88897,001,2022-04-29_14h42.24.789,SPAMnetsValid,2021.1.4,MacIntel,58.82352941,,,,,,,,,,,,,,,,,,,,,,,,,,,,,,,,,,,,,,,,,,,,,,,,,,,,fun,bucket,12,0,12,0,1,,,,,,,,,,,,,,,,,,,,,,,,,,,,,,,
,,,,,,,,,,,,,,,88897,001,2022-04-29_14h42.24.789,SPAMnetsValid,2021.1.4,MacIntel,58.82352941,,,,,,,,,,,,,,,,,,,,,,,,,,,,,,,,,,,,,,,,,,,,,,,,,,,,art,bucket,13,0,13,0,1,,,,,,,,,,,,,,,,,,,,,,,,,,,,,,,
,,,,,,,,,,,,,,,88897,001,2022-04-29_14h42.24.789,SPAMnetsValid,2021.1.4,MacIntel,58.82352941,,,,,,,,,,,,,,,,,,,,,,,,,,,,,,,,,,,,,,,,,,,,,,,,,,,,design,bucket,14,0,14,0,1,,,,,,,,,,,,,,,,,,,,,,,,,,,,,,,
,,,,,,,,,,,,,,,88897,001,2022-04-29_14h42.24.789,SPAMnetsValid,2021.1.4,MacIntel,58.82352941,,,,,,,,,,,,,,,,,,,,,,,,,,,,,,,,,,,,,,,,,,,,,,,,,,,,colorful,bucket,15,0,15,0,1,,,,,,,,,,,,,,,,,,,,,,,,,,,,,,,
,,,,,,,,,,,,,,,88897,001,2022-04-29_14h42.24.789,SPAMnetsValid,2021.1.4,MacIntel,58.82352941,,,,,,,,,,,,,,,,,,,,,,,,,,,,,,,,,,,,,,,,,,,,,,,,,,,,plant plants,bucket,16,0,16,0,1,,,,,,,,,,,,,,,,,,,,,,,,,,,,,,,
,,,,,,,,,,,,,,,88897,001,2022-04-29_14h42.24.789,SPAMnetsValid,2021.1.4,MacIntel,58.82352941,,,,,,,,,,,,,,,,,,,,,,,,,,,,,,,,,,,,,,,,,,,,,,,,,,,,garden,bucket,17,0,17,0,1,,,,,,,,,,,,,,,,,,,,,,,,,,,,,,,
,,,,,,,,,,,,,,,88897,001,2022-04-29_14h42.24.789,SPAMnetsValid,2021.1.4,MacIntel,58.82352941,,,,,,,,,,,,,,,,,,,,,,,,,,,,,,,,,,,,,,,,,,,,,,,,,,,,,,,,,,,0,1,1,0,1,bucket,,,,,,,,,,,,,,,,,,,,,,,,,
,,,,,,,,,,,,,,,88897,001,2022-04-29_14h42.24.789,SPAMnetsValid,2021.1.4,MacIntel,58.82352941,,,,,,,,,,,,,,,,,,,,,,,,,,,,,,,,,,,,,,,,,,,,,,,,,,,,sleep,pillow,0,0,0,0,1,,,,,,,,,,,,,,,,,,,,,,,,,,,,,,,
,,,,,,,,,,,,,,,88897,001,2022-04-29_14h42.24.789,SPAMnetsValid,2021.1.4,MacIntel,58.82352941,,,,,,,,,,,,,,,,,,,,,,,,,,,,,,,,,,,,,,,,,,,,,,,,,,,,rest,pillow,1,0,1,0,1,,,,,,,,,,,,,,,,,,,,,,,,,,,,,,,
,,,,,,,,,,,,,,,88897,001,2022-04-29_14h42.24.789,SPAMnetsValid,2021.1.4,MacIntel,58.82352941,,,,,,,,,,,,,,,,,,,,,,,,,,,,,,,,,,,,,,,,,,,,,,,,,,,,decorate,pillow,2,0,2,0,1,,,,,,,,,,,,,,,,,,,,,,,,,,,,,,,
,,,,,,,,,,,,,,,88897,001,2022-04-29_14h42.24.789,SPAMnetsValid,2021.1.4,MacIntel,58.82352941,,,,,,,,,,,,,,,,,,,,,,,,,,,,,,,,,,,,,,,,,,,,,,,,,,,,pretty,pillow,3,0,3,0,1,,,,,,,,,,,,,,,,,,,,,,,,,,,,,,,
,,,,,,,,,,,,,,,88897,001,2022-04-29_14h42.24.789,SPAMnetsValid,2021.1.4,MacIntel,58.82352941,,,,,,,,,,,,,,,,,,,,,,,,,,,,,,,,,,,,,,,,,,,,,,,,,,,,colors,pillow,4,0,4,0,1,,,,,,,,,,,,,,,,,,,,,,,,,,,,,,,
,,,,,,,,,,,,,,,88897,001,2022-04-29_14h42.24.789,SPAMnetsValid,2021.1.4,MacIntel,58.82352941,,,,,,,,,,,,,,,,,,,,,,,,,,,,,,,,,,,,,,,,,,,,,,,,,,,,match,pillow,5,0,5,0,1,,,,,,,,,,,,,,,,,,,,,,,,,,,,,,,
,,,,,,,,,,,,,,,88897,001,2022-04-29_14h42.24.789,SPAMnetsValid,2021.1.4,MacIntel,58.82352941,,,,,,,,,,,,,,,,,,,,,,,,,,,,,,,,,,,,,,,,,,,,,,,,,,,,mismatch,pillow,6,0,6,0,1,,,,,,,,,,,,,,,,,,,,,,,,,,,,,,,
,,,,,,,,,,,,,,,88897,001,2022-04-29_14h42.24.789,SPAMnetsValid,2021.1.4,MacIntel,58.82352941,,,,,,,,,,,,,,,,,,,,,,,,,,,,,,,,,,,,,,,,,,,,,,,,,,,,design,pillow,7,0,7,0,1,,,,,,,,,,,,,,,,,,,,,,,,,,,,,,,
,,,,,,,,,,,,,,,88897,001,2022-04-29_14h42.24.789,SPAMnetsValid,2021.1.4,MacIntel,58.82352941,,,,,,,,,,,,,,,,,,,,,,,,,,,,,,,,,,,,,,,,,,,,,,,,,,,,create,pillow,8,0,8,0,1,,,,,,,,,,,,,,,,,,,,,,,,,,,,,,,
,,,,,,,,,,,,,,,88897,001,2022-04-29_14h42.24.789,SPAMnetsValid,2021.1.4,MacIntel,58.82352941,,,,,,,,,,,,,,,,,,,,,,,,,,,,,,,,,,,,,,,,,,,,,,,,,,,,spacious,pillow,9,0,9,0,1,,,,,,,,,,,,,,,,,,,,,,,,,,,,,,,
,,,,,,,,,,,,,,,88897,001,2022-04-29_14h42.24.789,SPAMnetsValid,2021.1.4,MacIntel,58.82352941,,,,,,,,,,,,,,,,,,,,,,,,,,,,,,,,,,,,,,,,,,,,,,,,,,,,,,,,,,,0,2,2,2,1,pillow,,,,,,,,,,,,,,,,,,,,,,,,,
,,,,,,,,,,,,,,,88897,001,2022-04-29_14h42.24.789,SPAMnetsValid,2021.1.4,MacIntel,58.82352941,,,,,,,,,,,,,,,,,,,,,,,,,,,,,,,,,,,,,,,,,,,,,,,,,,,,,,,,,,,,,,,,,wild,Animals,0,0,0,0,1,,,,,,,,,,,,,,,,,,
,,,,,,,,,,,,,,,88897,001,2022-04-29_14h42.24.789,SPAMnetsValid,2021.1.4,MacIntel,58.82352941,,,,,,,,,,,,,,,,,,,,,,,,,,,,,,,,,,,,,,,,,,,,,,,,,,,,,,,,,,,,,,,,,nature,Animals,1,0,1,0,1,,,,,,,,,,,,,,,,,,
,,,,,,,,,,,,,,,88897,001,2022-04-29_14h42.24.789,SPAMnetsValid,2021.1.4,MacIntel,58.82352941,,,,,,,,,,,,,,,,,,,,,,,,,,,,,,,,,,,,,,,,,,,,,,,,,,,,,,,,,,,,,,,,,pets,Animals,2,0,2,0,1,,,,,,,,,,,,,,,,,,
,,,,,,,,,,,,,,,88897,001,2022-04-29_14h42.24.789,SPAMnetsValid,2021.1.4,MacIntel,58.82352941,,,,,,,,,,,,,,,,,,,,,,,,,,,,,,,,,,,,,,,,,,,,,,,,,,,,,,,,,,,,,,,,,zoos,Animals,3,0,3,0,1,,,,,,,,,,,,,,,,,,
,,,,,,,,,,,,,,,88897,001,2022-04-29_14h42.24.789,SPAMnetsValid,2021.1.4,MacIntel,58.82352941,,,,,,,,,,,,,,,,,,,,,,,,,,,,,,,,,,,,,,,,,,,,,,,,,,,,,,,,,,,,,,,,,continents,Animals,4,0,4,0,1,,,,,,,,,,,,,,,,,,
,,,,,,,,,,,,,,,88897,001,2022-04-29_14h42.24.789,SPAMnetsValid,2021.1.4,MacIntel,58.82352941,,,,,,,,,,,,,,,,,,,,,,,,,,,,,,,,,,,,,,,,,,,,,,,,,,,,,,,,,,,,,,,,,species,Animals,5,0,5,0,1,,,,,,,,,,,,,,,,,,
,,,,,,,,,,,,,,,88897,001,2022-04-29_14h42.24.789,SPAMnetsValid,2021.1.4,MacIntel,58.82352941,,,,,,,,,,,,,,,,,,,,,,,,,,,,,,,,,,,,,,,,,,,,,,,,,,,,,,,,,,,,,,,,,genus,Animals,6,0,6,0,1,,,,,,,,,,,,,,,,,,
,,,,,,,,,,,,,,,88897,001,2022-04-29_14h42.24.789,SPAMnetsValid,2021.1.4,MacIntel,58.82352941,,,,,,,,,,,,,,,,,,,,,,,,,,,,,,,,,,,,,,,,,,,,,,,,,,,,,,,,,,,,,,,,,community,Animals,7,0,7,0,1,,,,,,,,,,,,,,,,,,
,,,,,,,,,,,,,,,88897,001,2022-04-29_14h42.24.789,SPAMnetsValid,2021.1.4,MacIntel,58.82352941,,,,,,,,,,,,,,,,,,,,,,,,,,,,,,,,,,,,,,,,,,,,,,,,,,,,,,,,,,,,,,,,,globe,Animals,8,0,8,0,1,,,,,,,,,,,,,,,,,,
,,,,,,,,,,,,,,,88897,001,2022-04-29_14h42.24.789,SPAMnetsValid,2021.1.4,MacIntel,58.82352941,,,,,,,,,,,,,,,,,,,,,,,,,,,,,,,,,,,,,,,,,,,,,,,,,,,,,,,,,,,,,,,,,dog,Animals,9,0,9,0,1,,,,,,,,,,,,,,,,,,
,,,,,,,,,,,,,,,88897,001,2022-04-29_14h42.24.789,SPAMnetsValid,2021.1.4,MacIntel,58.82352941,,,,,,,,,,,,,,,,,,,,,,,,,,,,,,,,,,,,,,,,,,,,,,,,,,,,,,,,,,,,,,,,,cat ,Animals,10,0,10,0,1,,,,,,,,,,,,,,,,,,
,,,,,,,,,,,,,,,88897,001,2022-04-29_14h42.24.789,SPAMnetsValid,2021.1.4,MacIntel,58.82352941,,,,,,,,,,,,,,,,,,,,,,,,,,,,,,,,,,,,,,,,,,,,,,,,,,,,,,,,,,,,,,,,,monkey,Animals,11,0,11,0,1,,,,,,,,,,,,,,,,,,
,,,,,,,,,,,,,,,88897,001,2022-04-29_14h42.24.789,SPAMnetsValid,2021.1.4,MacIntel,58.82352941,,,,,,,,,,,,,,,,,,,,,,,,,,,,,,,,,,,,,,,,,,,,,,,,,,,,,,,,,,,,,,,,,giraffe,Animals,12,0,12,0,1,,,,,,,,,,,,,,,,,,
,,,,,,,,,,,,,,,88897,001,2022-04-29_14h42.24.789,SPAMnetsValid,2021.1.4,MacIntel,58.82352941,,,,,,,,,,,,,,,,,,,,,,,,,,,,,,,,,,,,,,,,,,,,,,,,,,,,,,,,,,,,,,,,,elephant,Animals,13,0,13,0,1,,,,,,,,,,,,,,,,,,
,,,,,,,,,,,,,,,88897,001,2022-04-29_14h42.24.789,SPAMnetsValid,2021.1.4,MacIntel,58.82352941,,,,,,,,,,,,,,,,,,,,,,,,,,,,,,,,,,,,,,,,,,,,,,,,,,,,,,,,,,,,,,,,,beaver,Animals,14,0,14,0,1,,,,,,,,,,,,,,,,,,
,,,,,,,,,,,,,,,88897,001,2022-04-29_14h42.24.789,SPAMnetsValid,2021.1.4,MacIntel,58.82352941,,,,,,,,,,,,,,,,,,,,,,,,,,,,,,,,,,,,,,,,,,,,,,,,,,,,,,,,,,,,,,,,,,,,,,,,0,0,0,0,1,Animals,,,,,,,,,,,,
,,,,,,,,,,,,,,,88897,001,2022-04-29_14h42.24.789,SPAMnetsValid,2021.1.4,MacIntel,58.82352941,,,,,,,,,,,,,,,,,,,,,,,,,,,,,,,,,,,,,,,,,,,,,,,,,,,,,,,,,,,,,,,,,,,,,,,,,,,,,,1,6.638,0,0,0,0,1,"I enjoy concentrating on a fantasy or daydream and exploring all its possibilities, letting it grow and develop.",0,1,,
,,,,,,,,,,,,,,,88897,001,2022-04-29_14h42.24.789,SPAMnetsValid,2021.1.4,MacIntel,58.82352941,,,,,,,,,,,,,,,,,,,,,,,,,,,,,,,,,,,,,,,,,,,,,,,,,,,,,,,,,,,,,,,,,,,,,,,,,,,,,,4,3.144,0,1,1,1,1,I think it's interesting to learn and develop new hobbies.,0,2,,
,,,,,,,,,,,,,,,88897,001,2022-04-29_14h42.24.789,SPAMnetsValid,2021.1.4,MacIntel,58.82352941,,,,,,,,,,,,,,,,,,,,,,,,,,,,,,,,,,,,,,,,,,,,,,,,,,,,,,,,,,,,,,,,,,,,,,,,,,,,,,4,1.773,0,2,2,2,1,I am intrigued by the patterns I find in art and nature.,0,3,,
,,,,,,,,,,,,,,,88897,001,2022-04-29_14h42.24.789,SPAMnetsValid,2021.1.4,MacIntel,58.82352941,,,,,,,,,,,,,,,,,,,,,,,,,,,,,,,,,,,,,,,,,,,,,,,,,,,,,,,,,,,,,,,,,,,,,,,,,,,,,,1,4.427,0,3,3,3,1,I believe letting students hear controversial speakers can only confuse and mislead them.,1,4,,
,,,,,,,,,,,,,,,88897,001,2022-04-29_14h42.24.789,SPAMnetsValid,2021.1.4,MacIntel,58.82352941,,,,,,,,,,,,,,,,,,,,,,,,,,,,,,,,,,,,,,,,,,,,,,,,,,,,,,,,,,,,,,,,,,,,,,,,,,,,,,3,5.208,0,4,4,4,1,Poetry has little or no effect on me.,1,5,,
,,,,,,,,,,,,,,,88897,001,2022-04-29_14h42.24.789,SPAMnetsValid,2021.1.4,MacIntel,58.82352941,,,,,,,,,,,,,,,,,,,,,,,,,,,,,,,,,,,,,,,,,,,,,,,,,,,,,,,,,,,,,,,,,,,,,,,,,,,,,,2,5.724,0,5,5,5,1,I would have difficulty just letting my mind wander without control or guidance.,1,6,,
,,,,,,,,,,,,,,,88897,001,2022-04-29_14h42.24.789,SPAMnetsValid,2021.1.4,MacIntel,58.82352941,,,,,,,,,,,,,,,,,,,,,,,,,,,,,,,,,,,,,,,,,,,,,,,,,,,,,,,,,,,,,,,,,,,,,,,,,,,,,,2,3.775,0,6,6,6,1,I seldom notice the moods or feelings that different environments produce.,1,7,,
,,,,,,,,,,,,,,,88897,001,2022-04-29_14h42.24.789,SPAMnetsValid,2021.1.4,MacIntel,58.82352941,,,,,,,,,,,,,,,,,,,,,,,,,,,,,,,,,,,,,,,,,,,,,,,,,,,,,,,,,,,,,,,,,,,,,,,,,,,,,,4,2.741,0,7,7,7,1,I experience a wide range of emotions or feelings.,0,8,,
,,,,,,,,,,,,,,,88897,001,2022-04-29_14h42.24.789,SPAMnetsValid,2021.1.4,MacIntel,58.82352941,,,,,,,,,,,,,,,,,,,,,,,,,,,,,,,,,,,,,,,,,,,,,,,,,,,,,,,,,,,,,,,,,,,,,,,,,,,,,,4,2.068,0,8,8,8,1,"Sometimes when I am reading poetry or looking at a work of art, I feel a chill or wave of excitement.",0,9,,
,,,,,,,,,,,,,,,88897,001,2022-04-29_14h42.24.789,SPAMnetsValid,2021.1.4,MacIntel,58.82352941,,,,,,,,,,,,,,,,,,,,,,,,,,,,,,,,,,,,,,,,,,,,,,,,,,,,,,,,,,,,,,,,,,,,,,,,,,,,,,3,2.095,0,9,9,9,1,I have little interest in speculating on the nature of the universe or the human condition.,1,10,,
,,,,,,,,,,,,,,,88897,001,2022-04-29_14h42.24.789,SPAMnetsValid,2021.1.4,MacIntel,58.82352941,,,,,,,,,,,,,,,,,,,,,,,,,,,,,,,,,,,,,,,,,,,,,,,,,,,,,,,,,,,,,,,,,,,,,,,,,,,,,,3,0.685,0,10,10,10,1,I have a lot of intellectual curiosity.,0,11,,
,,,,,,,,,,,,,,,88897,001,2022-04-29_14h42.24.789,SPAMnetsValid,2021.1.4,MacIntel,58.82352941,,,,,,,,,,,,,,,,,,,,,,,,,,,,,,,,,,,,,,,,,,,,,,,,,,,,,,,,,,,,,,,,,,,,,,,,,,,,,,3,0.428,0,11,11,11,1,I often enjoy playing with theories or abstract ideas.,0,12,,
,,,,,,,,,,,,,,,88897,001,2022-04-29_14h42.24.789,SPAMnetsValid,2021.1.4,MacIntel,58.82352941,,,,,,,,,,,,,,,,,,,,,,,,,,,,,,,,,,,,,,,,,,,,,,,,,,,,,,,,,,,,,,,,,,,,,,,,,,,,,,,,,,,,,,,,return,13.922
