key_resp_3.keys,key_resp_3.rt,slider.response,slider.rt,rjt_rating,rjt_RT,trials_22.thisRepN,trials_22.thisTrialN,trials_22.thisN,trials_22.thisIndex,trials_22.ran,rjt_order,word1,word2,attention,participant,session,date,expName,psychopyVersion,OS,frameRate,trials_99.thisRepN,trials_99.thisTrialN,trials_99.thisN,trials_99.thisIndex,trials_99.ran,trials_5.thisRepN,trials_5.thisTrialN,trials_5.thisN,trials_5.thisIndex,trials_5.ran,repOne,repTwo,slider_2.response,slider_2.rt,trials_24.thisRepN,trials_24.thisTrialN,trials_24.thisN,trials_24.thisIndex,trials_24.ran,trials_4.thisRepN,trials_4.thisTrialN,trials_4.thisN,trials_4.thisIndex,trials_4.ran,slider_extend_2.response,slider_extend_2.rt,trials_6.thisRepN,trials_6.thisTrialN,trials_6.thisN,trials_6.thisIndex,trials_6.ran,vCue2,R1,R2,R3,R4,correct,sliderVocab.response,sliderVocab.rt,trials_7.thisRepN,trials_7.thisTrialN,trials_7.thisN,trials_7.thisIndex,trials_7.ran,VocabCue,VR1,VR2,VR3,VR4,VR5,VocabCorrect,AUT_resp,AUT_label,trials.thisRepN,trials.thisTrialN,trials.thisN,trials.thisIndex,trials.ran,trials_2.thisRepN,trials_2.thisTrialN,trials_2.thisN,trials_2.thisIndex,trials_2.ran,aut_prompt,VF_response,VF_tag,trials_16.thisRepN,trials_16.thisTrialN,trials_16.thisN,trials_16.thisIndex,trials_16.ran,trials_17.thisRepN,trials_17.thisTrialN,trials_17.thisN,trials_17.thisIndex,trials_17.ran,VFcond,open_slider.response,open_slider.rt,trials_3.thisRepN,trials_3.thisTrialN,trials_3.thisN,trials_3.thisIndex,trials_3.ran,OpenQ,Rev,OPEN_ORDER,key_resp_2.keys,key_resp_2.rt
return,6.7861,9,3.0538,9,3.0538,0,0,0,76,1,36,broom,kitchen,,88915,001,2022-04-29_15h01.54.851,SPAMnetsValid,2021.1.4,MacIntel,60.0024001,,,,,,,,,,,,,,,,,,,,,,,,,,,,,,,,,,,,,,,,,,,,,,,,,,,,,,,,,,,,,,,,,,,,,,,,,,,,,,,,,,,,,,,,,
,,6,3.8977,6,3.8977,0,1,1,28,1,84,oven,tomato,,88915,001,2022-04-29_15h01.54.851,SPAMnetsValid,2021.1.4,MacIntel,60.0024001,,,,,,,,,,,,,,,,,,,,,,,,,,,,,,,,,,,,,,,,,,,,,,,,,,,,,,,,,,,,,,,,,,,,,,,,,,,,,,,,,,,,,,,,,
,,6,1.6415,6,1.6415,0,2,2,39,1,15,onion,oven,,88915,001,2022-04-29_15h01.54.851,SPAMnetsValid,2021.1.4,MacIntel,60.0024001,,,,,,,,,,,,,,,,,,,,,,,,,,,,,,,,,,,,,,,,,,,,,,,,,,,,,,,,,,,,,,,,,,,,,,,,,,,,,,,,,,,,,,,,,
,,4,3.2466,4,3.2466,0,3,3,86,1,51,onion,strawberry,,88915,001,2022-04-29_15h01.54.851,SPAMnetsValid,2021.1.4,MacIntel,60.0024001,,,,,,,,,,,,,,,,,,,,,,,,,,,,,,,,,,,,,,,,,,,,,,,,,,,,,,,,,,,,,,,,,,,,,,,,,,,,,,,,,,,,,,,,,
,,1,1.8463,1,1.8463,0,4,4,92,1,44,cookie,melon,,88915,001,2022-04-29_15h01.54.851,SPAMnetsValid,2021.1.4,MacIntel,60.0024001,,,,,,,,,,,,,,,,,,,,,,,,,,,,,,,,,,,,,,,,,,,,,,,,,,,,,,,,,,,,,,,,,,,,,,,,,,,,,,,,,,,,,,,,,
,,1,1.965,1,1.965,0,5,5,70,1,5,oven,tree,,88915,001,2022-04-29_15h01.54.851,SPAMnetsValid,2021.1.4,MacIntel,60.0024001,,,,,,,,,,,,,,,,,,,,,,,,,,,,,,,,,,,,,,,,,,,,,,,,,,,,,,,,,,,,,,,,,,,,,,,,,,,,,,,,,,,,,,,,,
,,9,2.0139,9,2.0139,0,6,6,66,1,20,rose,tree,,88915,001,2022-04-29_15h01.54.851,SPAMnetsValid,2021.1.4,MacIntel,60.0024001,,,,,,,,,,,,,,,,,,,,,,,,,,,,,,,,,,,,,,,,,,,,,,,,,,,,,,,,,,,,,,,,,,,,,,,,,,,,,,,,,,,,,,,,,
,,9,1.8484,9,1.8484,0,7,7,93,1,63,cake,cookie,,88915,001,2022-04-29_15h01.54.851,SPAMnetsValid,2021.1.4,MacIntel,60.0024001,,,,,,,,,,,,,,,,,,,,,,,,,,,,,,,,,,,,,,,,,,,,,,,,,,,,,,,,,,,,,,,,,,,,,,,,,,,,,,,,,,,,,,,,,
,,1,1.73,1,1.73,0,8,8,15,1,48,flower,oven,,88915,001,2022-04-29_15h01.54.851,SPAMnetsValid,2021.1.4,MacIntel,60.0024001,,,,,,,,,,,,,,,,,,,,,,,,,,,,,,,,,,,,,,,,,,,,,,,,,,,,,,,,,,,,,,,,,,,,,,,,,,,,,,,,,,,,,,,,,
,,7,2.0974,7,2.0974,0,9,9,33,1,32,cake,microwave,,88915,001,2022-04-29_15h01.54.851,SPAMnetsValid,2021.1.4,MacIntel,60.0024001,,,,,,,,,,,,,,,,,,,,,,,,,,,,,,,,,,,,,,,,,,,,,,,,,,,,,,,,,,,,,,,,,,,,,,,,,,,,,,,,,,,,,,,,,
,,1,1.6121,1,1.6121,0,10,10,22,1,16,chocolate,flower,,88915,001,2022-04-29_15h01.54.851,SPAMnetsValid,2021.1.4,MacIntel,60.0024001,,,,,,,,,,,,,,,,,,,,,,,,,,,,,,,,,,,,,,,,,,,,,,,,,,,,,,,,,,,,,,,,,,,,,,,,,,,,,,,,,,,,,,,,,
,,1,1.613,1,1.613,0,11,11,84,1,91,microwave,rose,,88915,001,2022-04-29_15h01.54.851,SPAMnetsValid,2021.1.4,MacIntel,60.0024001,,,,,,,,,,,,,,,,,,,,,,,,,,,,,,,,,,,,,,,,,,,,,,,,,,,,,,,,,,,,,,,,,,,,,,,,,,,,,,,,,,,,,,,,,
,,1,2.0644,1,2.0644,0,12,12,68,1,24,cookie,tomato,,88915,001,2022-04-29_15h01.54.851,SPAMnetsValid,2021.1.4,MacIntel,60.0024001,,,,,,,,,,,,,,,,,,,,,,,,,,,,,,,,,,,,,,,,,,,,,,,,,,,,,,,,,,,,,,,,,,,,,,,,,,,,,,,,,,,,,,,,,
,,6,3.4151,6,3.4151,0,13,13,48,1,66,melon,yogurt,,88915,001,2022-04-29_15h01.54.851,SPAMnetsValid,2021.1.4,MacIntel,60.0024001,,,,,,,,,,,,,,,,,,,,,,,,,,,,,,,,,,,,,,,,,,,,,,,,,,,,,,,,,,,,,,,,,,,,,,,,,,,,,,,,,,,,,,,,,
,,1,1.2648,1,1.2648,0,14,14,25,1,23,flower,microwave,,88915,001,2022-04-29_15h01.54.851,SPAMnetsValid,2021.1.4,MacIntel,60.0024001,,,,,,,,,,,,,,,,,,,,,,,,,,,,,,,,,,,,,,,,,,,,,,,,,,,,,,,,,,,,,,,,,,,,,,,,,,,,,,,,,,,,,,,,,
,,7,1.8799,7,1.8799,0,15,15,2,1,22,kitchen,strawberry,,88915,001,2022-04-29_15h01.54.851,SPAMnetsValid,2021.1.4,MacIntel,60.0024001,,,,,,,,,,,,,,,,,,,,,,,,,,,,,,,,,,,,,,,,,,,,,,,,,,,,,,,,,,,,,,,,,,,,,,,,,,,,,,,,,,,,,,,,,
,,7,1.9299,7,1.9299,0,16,16,83,1,6,garden,onion,,88915,001,2022-04-29_15h01.54.851,SPAMnetsValid,2021.1.4,MacIntel,60.0024001,,,,,,,,,,,,,,,,,,,,,,,,,,,,,,,,,,,,,,,,,,,,,,,,,,,,,,,,,,,,,,,,,,,,,,,,,,,,,,,,,,,,,,,,,
,,7,2.1145,7,2.1145,0,17,17,96,1,82,cake,kitchen,,88915,001,2022-04-29_15h01.54.851,SPAMnetsValid,2021.1.4,MacIntel,60.0024001,,,,,,,,,,,,,,,,,,,,,,,,,,,,,,,,,,,,,,,,,,,,,,,,,,,,,,,,,,,,,,,,,,,,,,,,,,,,,,,,,,,,,,,,,
,,1,2.7639,1,2.7639,0,18,18,71,1,38,pretzel,refrigerator,,88915,001,2022-04-29_15h01.54.851,SPAMnetsValid,2021.1.4,MacIntel,60.0024001,,,,,,,,,,,,,,,,,,,,,,,,,,,,,,,,,,,,,,,,,,,,,,,,,,,,,,,,,,,,,,,,,,,,,,,,,,,,,,,,,,,,,,,,,
,,1,1.5149,1,1.5149,0,19,19,0,1,53,garden,pretzel,,88915,001,2022-04-29_15h01.54.851,SPAMnetsValid,2021.1.4,MacIntel,60.0024001,,,,,,,,,,,,,,,,,,,,,,,,,,,,,,,,,,,,,,,,,,,,,,,,,,,,,,,,,,,,,,,,,,,,,,,,,,,,,,,,,,,,,,,,,
,,1,1.3466,1,1.3466,0,20,20,88,1,92,broom,flower,,88915,001,2022-04-29_15h01.54.851,SPAMnetsValid,2021.1.4,MacIntel,60.0024001,,,,,,,,,,,,,,,,,,,,,,,,,,,,,,,,,,,,,,,,,,,,,,,,,,,,,,,,,,,,,,,,,,,,,,,,,,,,,,,,,,,,,,,,,
,,9,1.4479,9,1.4479,0,21,21,10,1,191,cake,cake,CHECK,88915,001,2022-04-29_15h01.54.851,SPAMnetsValid,2021.1.4,MacIntel,60.0024001,,,,,,,,,,,,,,,,,,,,,,,,,,,,,,,,,,,,,,,,,,,,,,,,,,,,,,,,,,,,,,,,,,,,,,,,,,,,,,,,,,,,,,,,,
,,8,2.3917,8,2.3917,0,22,22,42,1,77,refrigerator,yogurt,,88915,001,2022-04-29_15h01.54.851,SPAMnetsValid,2021.1.4,MacIntel,60.0024001,,,,,,,,,,,,,,,,,,,,,,,,,,,,,,,,,,,,,,,,,,,,,,,,,,,,,,,,,,,,,,,,,,,,,,,,,,,,,,,,,,,,,,,,,
,,9,2.1659,9,2.1659,0,23,23,44,1,25,carrot,onion,,88915,001,2022-04-29_15h01.54.851,SPAMnetsValid,2021.1.4,MacIntel,60.0024001,,,,,,,,,,,,,,,,,,,,,,,,,,,,,,,,,,,,,,,,,,,,,,,,,,,,,,,,,,,,,,,,,,,,,,,,,,,,,,,,,,,,,,,,,
,,6,2.2467,6,2.2467,0,24,24,73,1,50,carrot,rose,,88915,001,2022-04-29_15h01.54.851,SPAMnetsValid,2021.1.4,MacIntel,60.0024001,,,,,,,,,,,,,,,,,,,,,,,,,,,,,,,,,,,,,,,,,,,,,,,,,,,,,,,,,,,,,,,,,,,,,,,,,,,,,,,,,,,,,,,,,
,,1,1.4136,1,1.4136,0,25,25,32,1,40,broom,cake,,88915,001,2022-04-29_15h01.54.851,SPAMnetsValid,2021.1.4,MacIntel,60.0024001,,,,,,,,,,,,,,,,,,,,,,,,,,,,,,,,,,,,,,,,,,,,,,,,,,,,,,,,,,,,,,,,,,,,,,,,,,,,,,,,,,,,,,,,,
,,1,1.8802,1,1.8802,0,26,26,16,1,14,broom,cookie,,88915,001,2022-04-29_15h01.54.851,SPAMnetsValid,2021.1.4,MacIntel,60.0024001,,,,,,,,,,,,,,,,,,,,,,,,,,,,,,,,,,,,,,,,,,,,,,,,,,,,,,,,,,,,,,,,,,,,,,,,,,,,,,,,,,,,,,,,,
,,9,1.4972,9,1.4972,0,27,27,64,1,9,kitchen,refrigerator,,88915,001,2022-04-29_15h01.54.851,SPAMnetsValid,2021.1.4,MacIntel,60.0024001,,,,,,,,,,,,,,,,,,,,,,,,,,,,,,,,,,,,,,,,,,,,,,,,,,,,,,,,,,,,,,,,,,,,,,,,,,,,,,,,,,,,,,,,,
,,1,1.2806,1,1.2806,0,28,28,17,1,27,cactus,cookie,,88915,001,2022-04-29_15h01.54.851,SPAMnetsValid,2021.1.4,MacIntel,60.0024001,,,,,,,,,,,,,,,,,,,,,,,,,,,,,,,,,,,,,,,,,,,,,,,,,,,,,,,,,,,,,,,,,,,,,,,,,,,,,,,,,,,,,,,,,
,,1,1.7981,1,1.7981,0,29,29,27,1,72,broom,onion,,88915,001,2022-04-29_15h01.54.851,SPAMnetsValid,2021.1.4,MacIntel,60.0024001,,,,,,,,,,,,,,,,,,,,,,,,,,,,,,,,,,,,,,,,,,,,,,,,,,,,,,,,,,,,,,,,,,,,,,,,,,,,,,,,,,,,,,,,,
,,1,2.2629,1,2.2629,0,30,30,24,1,17,carrot,melon,,88915,001,2022-04-29_15h01.54.851,SPAMnetsValid,2021.1.4,MacIntel,60.0024001,,,,,,,,,,,,,,,,,,,,,,,,,,,,,,,,,,,,,,,,,,,,,,,,,,,,,,,,,,,,,,,,,,,,,,,,,,,,,,,,,,,,,,,,,
,,9,2.1491,9,2.1491,0,31,31,19,1,76,garden,rose,,88915,001,2022-04-29_15h01.54.851,SPAMnetsValid,2021.1.4,MacIntel,60.0024001,,,,,,,,,,,,,,,,,,,,,,,,,,,,,,,,,,,,,,,,,,,,,,,,,,,,,,,,,,,,,,,,,,,,,,,,,,,,,,,,,,,,,,,,,
,,4,2.4975,4,2.4975,0,32,32,54,1,28,cake,melon,,88915,001,2022-04-29_15h01.54.851,SPAMnetsValid,2021.1.4,MacIntel,60.0024001,,,,,,,,,,,,,,,,,,,,,,,,,,,,,,,,,,,,,,,,,,,,,,,,,,,,,,,,,,,,,,,,,,,,,,,,,,,,,,,,,,,,,,,,,
,,7,3.3815,7,3.3815,0,33,33,52,1,4,chocolate,pretzel,,88915,001,2022-04-29_15h01.54.851,SPAMnetsValid,2021.1.4,MacIntel,60.0024001,,,,,,,,,,,,,,,,,,,,,,,,,,,,,,,,,,,,,,,,,,,,,,,,,,,,,,,,,,,,,,,,,,,,,,,,,,,,,,,,,,,,,,,,,
,,1,1.4799,1,1.4799,0,34,34,69,1,45,onion,pretzel,,88915,001,2022-04-29_15h01.54.851,SPAMnetsValid,2021.1.4,MacIntel,60.0024001,,,,,,,,,,,,,,,,,,,,,,,,,,,,,,,,,,,,,,,,,,,,,,,,,,,,,,,,,,,,,,,,,,,,,,,,,,,,,,,,,,,,,,,,,
,,1,1.3443,1,1.3443,0,35,35,49,1,57,flower,kitchen,,88915,001,2022-04-29_15h01.54.851,SPAMnetsValid,2021.1.4,MacIntel,60.0024001,,,,,,,,,,,,,,,,,,,,,,,,,,,,,,,,,,,,,,,,,,,,,,,,,,,,,,,,,,,,,,,,,,,,,,,,,,,,,,,,,,,,,,,,,
,,6,2.2139,6,2.2139,0,36,36,50,1,81,pretzel,yogurt,,88915,001,2022-04-29_15h01.54.851,SPAMnetsValid,2021.1.4,MacIntel,60.0024001,,,,,,,,,,,,,,,,,,,,,,,,,,,,,,,,,,,,,,,,,,,,,,,,,,,,,,,,,,,,,,,,,,,,,,,,,,,,,,,,,,,,,,,,,
,,1,2.3478,1,2.3478,0,37,37,13,1,26,tomato,yogurt,,88915,001,2022-04-29_15h01.54.851,SPAMnetsValid,2021.1.4,MacIntel,60.0024001,,,,,,,,,,,,,,,,,,,,,,,,,,,,,,,,,,,,,,,,,,,,,,,,,,,,,,,,,,,,,,,,,,,,,,,,,,,,,,,,,,,,,,,,,
,,7,5.3156,7,5.3156,0,38,38,36,1,12,cookie,yogurt,,88915,001,2022-04-29_15h01.54.851,SPAMnetsValid,2021.1.4,MacIntel,60.0024001,,,,,,,,,,,,,,,,,,,,,,,,,,,,,,,,,,,,,,,,,,,,,,,,,,,,,,,,,,,,,,,,,,,,,,,,,,,,,,,,,,,,,,,,,
,,6,2.1643,6,2.1643,0,39,39,45,1,10,flower,onion,,88915,001,2022-04-29_15h01.54.851,SPAMnetsValid,2021.1.4,MacIntel,60.0024001,,,,,,,,,,,,,,,,,,,,,,,,,,,,,,,,,,,,,,,,,,,,,,,,,,,,,,,,,,,,,,,,,,,,,,,,,,,,,,,,,,,,,,,,,
,,9,2.2421,9,2.2421,0,40,40,51,1,47,onion,tomato,,88915,001,2022-04-29_15h01.54.851,SPAMnetsValid,2021.1.4,MacIntel,60.0024001,,,,,,,,,,,,,,,,,,,,,,,,,,,,,,,,,,,,,,,,,,,,,,,,,,,,,,,,,,,,,,,,,,,,,,,,,,,,,,,,,,,,,,,,,
,,1,5.2645,1,5.2645,0,41,41,63,1,21,cake,onion,,88915,001,2022-04-29_15h01.54.851,SPAMnetsValid,2021.1.4,MacIntel,60.0024001,,,,,,,,,,,,,,,,,,,,,,,,,,,,,,,,,,,,,,,,,,,,,,,,,,,,,,,,,,,,,,,,,,,,,,,,,,,,,,,,,,,,,,,,,
,,6,1.9984,6,1.9984,0,42,42,91,1,2,kitchen,onion,,88915,001,2022-04-29_15h01.54.851,SPAMnetsValid,2021.1.4,MacIntel,60.0024001,,,,,,,,,,,,,,,,,,,,,,,,,,,,,,,,,,,,,,,,,,,,,,,,,,,,,,,,,,,,,,,,,,,,,,,,,,,,,,,,,,,,,,,,,
,,1,5.6971,1,5.6971,0,43,43,14,1,64,chocolate,garden,,88915,001,2022-04-29_15h01.54.851,SPAMnetsValid,2021.1.4,MacIntel,60.0024001,,,,,,,,,,,,,,,,,,,,,,,,,,,,,,,,,,,,,,,,,,,,,,,,,,,,,,,,,,,,,,,,,,,,,,,,,,,,,,,,,,,,,,,,,
,,1,1.3316,1,1.3316,0,44,44,5,1,13,broom,yogurt,,88915,001,2022-04-29_15h01.54.851,SPAMnetsValid,2021.1.4,MacIntel,60.0024001,,,,,,,,,,,,,,,,,,,,,,,,,,,,,,,,,,,,,,,,,,,,,,,,,,,,,,,,,,,,,,,,,,,,,,,,,,,,,,,,,,,,,,,,,
,,9,1.9799,9,1.9799,0,45,45,21,1,56,cactus,tree,,88915,001,2022-04-29_15h01.54.851,SPAMnetsValid,2021.1.4,MacIntel,60.0024001,,,,,,,,,,,,,,,,,,,,,,,,,,,,,,,,,,,,,,,,,,,,,,,,,,,,,,,,,,,,,,,,,,,,,,,,,,,,,,,,,,,,,,,,,
,,7,2.166,7,2.166,0,46,46,90,1,95,broom,refrigerator,,88915,001,2022-04-29_15h01.54.851,SPAMnetsValid,2021.1.4,MacIntel,60.0024001,,,,,,,,,,,,,,,,,,,,,,,,,,,,,,,,,,,,,,,,,,,,,,,,,,,,,,,,,,,,,,,,,,,,,,,,,,,,,,,,,,,,,,,,,
,,1,1.5643,1,1.5643,0,47,47,11,1,37,garden,refrigerator,,88915,001,2022-04-29_15h01.54.851,SPAMnetsValid,2021.1.4,MacIntel,60.0024001,,,,,,,,,,,,,,,,,,,,,,,,,,,,,,,,,,,,,,,,,,,,,,,,,,,,,,,,,,,,,,,,,,,,,,,,,,,,,,,,,,,,,,,,,
,,1,8.0985,1,8.0985,0,48,48,7,1,34,melon,oven,,88915,001,2022-04-29_15h01.54.851,SPAMnetsValid,2021.1.4,MacIntel,60.0024001,,,,,,,,,,,,,,,,,,,,,,,,,,,,,,,,,,,,,,,,,,,,,,,,,,,,,,,,,,,,,,,,,,,,,,,,,,,,,,,,,,,,,,,,,
,,2,37.8605,2,37.8605,0,49,49,55,1,1,rose,yogurt,,88915,001,2022-04-29_15h01.54.851,SPAMnetsValid,2021.1.4,MacIntel,60.0024001,,,,,,,,,,,,,,,,,,,,,,,,,,,,,,,,,,,,,,,,,,,,,,,,,,,,,,,,,,,,,,,,,,,,,,,,,,,,,,,,,,,,,,,,,
,,2,1.2625,2,1.2625,0,50,50,20,1,39,melon,pretzel,,88915,001,2022-04-29_15h01.54.851,SPAMnetsValid,2021.1.4,MacIntel,60.0024001,,,,,,,,,,,,,,,,,,,,,,,,,,,,,,,,,,,,,,,,,,,,,,,,,,,,,,,,,,,,,,,,,,,,,,,,,,,,,,,,,,,,,,,,,
,,9,1.2468,9,1.2468,0,51,51,53,1,192,microwave,microwave,CHECK,88915,001,2022-04-29_15h01.54.851,SPAMnetsValid,2021.1.4,MacIntel,60.0024001,,,,,,,,,,,,,,,,,,,,,,,,,,,,,,,,,,,,,,,,,,,,,,,,,,,,,,,,,,,,,,,,,,,,,,,,,,,,,,,,,,,,,,,,,
,,9,2.0325,9,2.0325,0,52,52,82,1,93,kitchen,oven,,88915,001,2022-04-29_15h01.54.851,SPAMnetsValid,2021.1.4,MacIntel,60.0024001,,,,,,,,,,,,,,,,,,,,,,,,,,,,,,,,,,,,,,,,,,,,,,,,,,,,,,,,,,,,,,,,,,,,,,,,,,,,,,,,,,,,,,,,,
,,6,2.1247,6,2.1247,0,53,53,81,1,60,cactus,onion,,88915,001,2022-04-29_15h01.54.851,SPAMnetsValid,2021.1.4,MacIntel,60.0024001,,,,,,,,,,,,,,,,,,,,,,,,,,,,,,,,,,,,,,,,,,,,,,,,,,,,,,,,,,,,,,,,,,,,,,,,,,,,,,,,,,,,,,,,,
,,1,1.6486,1,1.6486,0,54,54,59,1,8,broom,melon,,88915,001,2022-04-29_15h01.54.851,SPAMnetsValid,2021.1.4,MacIntel,60.0024001,,,,,,,,,,,,,,,,,,,,,,,,,,,,,,,,,,,,,,,,,,,,,,,,,,,,,,,,,,,,,,,,,,,,,,,,,,,,,,,,,,,,,,,,,
,,1,1.6488,1,1.6488,0,55,55,85,1,90,cactus,cake,,88915,001,2022-04-29_15h01.54.851,SPAMnetsValid,2021.1.4,MacIntel,60.0024001,,,,,,,,,,,,,,,,,,,,,,,,,,,,,,,,,,,,,,,,,,,,,,,,,,,,,,,,,,,,,,,,,,,,,,,,,,,,,,,,,,,,,,,,,
,,1,1.8155,1,1.8155,0,56,56,18,1,85,cake,tree,,88915,001,2022-04-29_15h01.54.851,SPAMnetsValid,2021.1.4,MacIntel,60.0024001,,,,,,,,,,,,,,,,,,,,,,,,,,,,,,,,,,,,,,,,,,,,,,,,,,,,,,,,,,,,,,,,,,,,,,,,,,,,,,,,,,,,,,,,,
,,5,3.9287,5,3.9287,0,57,57,94,1,68,flower,tomato,,88915,001,2022-04-29_15h01.54.851,SPAMnetsValid,2021.1.4,MacIntel,60.0024001,,,,,,,,,,,,,,,,,,,,,,,,,,,,,,,,,,,,,,,,,,,,,,,,,,,,,,,,,,,,,,,,,,,,,,,,,,,,,,,,,,,,,,,,,
,,4,2.2805,4,2.2805,0,58,58,9,1,75,cookie,onion,,88915,001,2022-04-29_15h01.54.851,SPAMnetsValid,2021.1.4,MacIntel,60.0024001,,,,,,,,,,,,,,,,,,,,,,,,,,,,,,,,,,,,,,,,,,,,,,,,,,,,,,,,,,,,,,,,,,,,,,,,,,,,,,,,,,,,,,,,,
,,1,1.6136,1,1.6136,0,59,59,46,1,41,broom,cactus,,88915,001,2022-04-29_15h01.54.851,SPAMnetsValid,2021.1.4,MacIntel,60.0024001,,,,,,,,,,,,,,,,,,,,,,,,,,,,,,,,,,,,,,,,,,,,,,,,,,,,,,,,,,,,,,,,,,,,,,,,,,,,,,,,,,,,,,,,,
,,6,8.8136,6,8.8136,0,60,60,35,1,55,tomato,tree,,88915,001,2022-04-29_15h01.54.851,SPAMnetsValid,2021.1.4,MacIntel,60.0024001,,,,,,,,,,,,,,,,,,,,,,,,,,,,,,,,,,,,,,,,,,,,,,,,,,,,,,,,,,,,,,,,,,,,,,,,,,,,,,,,,,,,,,,,,
,,1,1.6081,1,1.6081,0,61,61,4,1,83,broom,carrot,,88915,001,2022-04-29_15h01.54.851,SPAMnetsValid,2021.1.4,MacIntel,60.0024001,,,,,,,,,,,,,,,,,,,,,,,,,,,,,,,,,,,,,,,,,,,,,,,,,,,,,,,,,,,,,,,,,,,,,,,,,,,,,,,,,,,,,,,,,
,,6,2.3309,6,2.3309,0,62,62,62,1,18,onion,refrigerator,,88915,001,2022-04-29_15h01.54.851,SPAMnetsValid,2021.1.4,MacIntel,60.0024001,,,,,,,,,,,,,,,,,,,,,,,,,,,,,,,,,,,,,,,,,,,,,,,,,,,,,,,,,,,,,,,,,,,,,,,,,,,,,,,,,,,,,,,,,
,,8,2.8415,8,2.8415,0,63,63,67,1,54,chocolate,yogurt,,88915,001,2022-04-29_15h01.54.851,SPAMnetsValid,2021.1.4,MacIntel,60.0024001,,,,,,,,,,,,,,,,,,,,,,,,,,,,,,,,,,,,,,,,,,,,,,,,,,,,,,,,,,,,,,,,,,,,,,,,,,,,,,,,,,,,,,,,,
,,1,2.3499,1,2.3499,0,64,64,29,1,42,garden,kitchen,,88915,001,2022-04-29_15h01.54.851,SPAMnetsValid,2021.1.4,MacIntel,60.0024001,,,,,,,,,,,,,,,,,,,,,,,,,,,,,,,,,,,,,,,,,,,,,,,,,,,,,,,,,,,,,,,,,,,,,,,,,,,,,,,,,,,,,,,,,
,,4,2.2734,4,2.2734,0,65,65,72,1,59,rose,strawberry,,88915,001,2022-04-29_15h01.54.851,SPAMnetsValid,2021.1.4,MacIntel,60.0024001,,,,,,,,,,,,,,,,,,,,,,,,,,,,,,,,,,,,,,,,,,,,,,,,,,,,,,,,,,,,,,,,,,,,,,,,,,,,,,,,,,,,,,,,,
,,4,1.7302,4,1.7302,0,66,66,87,1,79,garden,strawberry,,88915,001,2022-04-29_15h01.54.851,SPAMnetsValid,2021.1.4,MacIntel,60.0024001,,,,,,,,,,,,,,,,,,,,,,,,,,,,,,,,,,,,,,,,,,,,,,,,,,,,,,,,,,,,,,,,,,,,,,,,,,,,,,,,,,,,,,,,,
,,1,6.2495,1,6.2495,0,67,67,56,1,78,cookie,rose,,88915,001,2022-04-29_15h01.54.851,SPAMnetsValid,2021.1.4,MacIntel,60.0024001,,,,,,,,,,,,,,,,,,,,,,,,,,,,,,,,,,,,,,,,,,,,,,,,,,,,,,,,,,,,,,,,,,,,,,,,,,,,,,,,,,,,,,,,,
,,8,1.8907,8,1.8907,0,68,68,30,1,3,cake,oven,,88915,001,2022-04-29_15h01.54.851,SPAMnetsValid,2021.1.4,MacIntel,60.0024001,,,,,,,,,,,,,,,,,,,,,,,,,,,,,,,,,,,,,,,,,,,,,,,,,,,,,,,,,,,,,,,,,,,,,,,,,,,,,,,,,,,,,,,,,
,,7,3.3979,7,3.3979,0,69,69,60,1,89,chocolate,rose,,88915,001,2022-04-29_15h01.54.851,SPAMnetsValid,2021.1.4,MacIntel,60.0024001,,,,,,,,,,,,,,,,,,,,,,,,,,,,,,,,,,,,,,,,,,,,,,,,,,,,,,,,,,,,,,,,,,,,,,,,,,,,,,,,,,,,,,,,,
,,1,1.3462,1,1.3462,0,70,70,8,1,43,chocolate,tomato,,88915,001,2022-04-29_15h01.54.851,SPAMnetsValid,2021.1.4,MacIntel,60.0024001,,,,,,,,,,,,,,,,,,,,,,,,,,,,,,,,,,,,,,,,,,,,,,,,,,,,,,,,,,,,,,,,,,,,,,,,,,,,,,,,,,,,,,,,,
,,6,2.1792,6,2.1792,0,71,71,77,1,7,melon,tree,,88915,001,2022-04-29_15h01.54.851,SPAMnetsValid,2021.1.4,MacIntel,60.0024001,,,,,,,,,,,,,,,,,,,,,,,,,,,,,,,,,,,,,,,,,,,,,,,,,,,,,,,,,,,,,,,,,,,,,,,,,,,,,,,,,,,,,,,,,
,,1,1.5495,1,1.5495,0,72,72,6,1,87,carrot,yogurt,,88915,001,2022-04-29_15h01.54.851,SPAMnetsValid,2021.1.4,MacIntel,60.0024001,,,,,,,,,,,,,,,,,,,,,,,,,,,,,,,,,,,,,,,,,,,,,,,,,,,,,,,,,,,,,,,,,,,,,,,,,,,,,,,,,,,,,,,,,
,,1,2.5928,1,2.5928,0,73,73,23,1,65,broom,garden,,88915,001,2022-04-29_15h01.54.851,SPAMnetsValid,2021.1.4,MacIntel,60.0024001,,,,,,,,,,,,,,,,,,,,,,,,,,,,,,,,,,,,,,,,,,,,,,,,,,,,,,,,,,,,,,,,,,,,,,,,,,,,,,,,,,,,,,,,,
,,6,2.6478,6,2.6478,0,74,74,75,1,69,carrot,refrigerator,,88915,001,2022-04-29_15h01.54.851,SPAMnetsValid,2021.1.4,MacIntel,60.0024001,,,,,,,,,,,,,,,,,,,,,,,,,,,,,,,,,,,,,,,,,,,,,,,,,,,,,,,,,,,,,,,,,,,,,,,,,,,,,,,,,,,,,,,,,
,,1,1.4974,1,1.4974,0,75,75,43,1,11,refrigerator,tree,,88915,001,2022-04-29_15h01.54.851,SPAMnetsValid,2021.1.4,MacIntel,60.0024001,,,,,,,,,,,,,,,,,,,,,,,,,,,,,,,,,,,,,,,,,,,,,,,,,,,,,,,,,,,,,,,,,,,,,,,,,,,,,,,,,,,,,,,,,
,,1,1.4471,1,1.4471,0,76,76,3,1,49,flower,strawberry,,88915,001,2022-04-29_15h01.54.851,SPAMnetsValid,2021.1.4,MacIntel,60.0024001,,,,,,,,,,,,,,,,,,,,,,,,,,,,,,,,,,,,,,,,,,,,,,,,,,,,,,,,,,,,,,,,,,,,,,,,,,,,,,,,,,,,,,,,,
,,1,1.5975,1,1.5975,0,77,77,26,1,35,flower,pretzel,,88915,001,2022-04-29_15h01.54.851,SPAMnetsValid,2021.1.4,MacIntel,60.0024001,,,,,,,,,,,,,,,,,,,,,,,,,,,,,,,,,,,,,,,,,,,,,,,,,,,,,,,,,,,,,,,,,,,,,,,,,,,,,,,,,,,,,,,,,
,,1,5.1647,1,5.1647,0,78,78,1,1,31,cactus,pretzel,,88915,001,2022-04-29_15h01.54.851,SPAMnetsValid,2021.1.4,MacIntel,60.0024001,,,,,,,,,,,,,,,,,,,,,,,,,,,,,,,,,,,,,,,,,,,,,,,,,,,,,,,,,,,,,,,,,,,,,,,,,,,,,,,,,,,,,,,,,
,,1,23.4466,1,23.4466,0,79,79,41,1,19,microwave,pretzel,,88915,001,2022-04-29_15h01.54.851,SPAMnetsValid,2021.1.4,MacIntel,60.0024001,,,,,,,,,,,,,,,,,,,,,,,,,,,,,,,,,,,,,,,,,,,,,,,,,,,,,,,,,,,,,,,,,,,,,,,,,,,,,,,,,,,,,,,,,
,,8,1.1928,8,1.1928,0,80,80,58,1,94,kitchen,microwave,,88915,001,2022-04-29_15h01.54.851,SPAMnetsValid,2021.1.4,MacIntel,60.0024001,,,,,,,,,,,,,,,,,,,,,,,,,,,,,,,,,,,,,,,,,,,,,,,,,,,,,,,,,,,,,,,,,,,,,,,,,,,,,,,,,,,,,,,,,
,,4,2.8298,4,2.8298,0,81,81,38,1,88,cactus,melon,,88915,001,2022-04-29_15h01.54.851,SPAMnetsValid,2021.1.4,MacIntel,60.0024001,,,,,,,,,,,,,,,,,,,,,,,,,,,,,,,,,,,,,,,,,,,,,,,,,,,,,,,,,,,,,,,,,,,,,,,,,,,,,,,,,,,,,,,,,
,,6,1.5829,6,1.5829,0,82,82,80,1,61,strawberry,tomato,,88915,001,2022-04-29_15h01.54.851,SPAMnetsValid,2021.1.4,MacIntel,60.0024001,,,,,,,,,,,,,,,,,,,,,,,,,,,,,,,,,,,,,,,,,,,,,,,,,,,,,,,,,,,,,,,,,,,,,,,,,,,,,,,,,,,,,,,,,
,,1,1.9473,1,1.9473,0,83,83,37,1,58,garden,oven,,88915,001,2022-04-29_15h01.54.851,SPAMnetsValid,2021.1.4,MacIntel,60.0024001,,,,,,,,,,,,,,,,,,,,,,,,,,,,,,,,,,,,,,,,,,,,,,,,,,,,,,,,,,,,,,,,,,,,,,,,,,,,,,,,,,,,,,,,,
,,1,1.2462,1,1.2462,0,84,84,40,1,74,broom,pretzel,,88915,001,2022-04-29_15h01.54.851,SPAMnetsValid,2021.1.4,MacIntel,60.0024001,,,,,,,,,,,,,,,,,,,,,,,,,,,,,,,,,,,,,,,,,,,,,,,,,,,,,,,,,,,,,,,,,,,,,,,,,,,,,,,,,,,,,,,,,
,,1,1.1642,1,1.1642,0,85,85,47,1,73,broom,chocolate,,88915,001,2022-04-29_15h01.54.851,SPAMnetsValid,2021.1.4,MacIntel,60.0024001,,,,,,,,,,,,,,,,,,,,,,,,,,,,,,,,,,,,,,,,,,,,,,,,,,,,,,,,,,,,,,,,,,,,,,,,,,,,,,,,,,,,,,,,,
,,1,1.0804,1,1.0804,0,86,86,61,1,71,broom,rose,,88915,001,2022-04-29_15h01.54.851,SPAMnetsValid,2021.1.4,MacIntel,60.0024001,,,,,,,,,,,,,,,,,,,,,,,,,,,,,,,,,,,,,,,,,,,,,,,,,,,,,,,,,,,,,,,,,,,,,,,,,,,,,,,,,,,,,,,,,
,,1,1.6416,1,1.6416,0,87,87,12,1,67,flower,yogurt,,88915,001,2022-04-29_15h01.54.851,SPAMnetsValid,2021.1.4,MacIntel,60.0024001,,,,,,,,,,,,,,,,,,,,,,,,,,,,,,,,,,,,,,,,,,,,,,,,,,,,,,,,,,,,,,,,,,,,,,,,,,,,,,,,,,,,,,,,,
,,1,1.1298,1,1.1298,0,88,88,74,1,70,chocolate,onion,,88915,001,2022-04-29_15h01.54.851,SPAMnetsValid,2021.1.4,MacIntel,60.0024001,,,,,,,,,,,,,,,,,,,,,,,,,,,,,,,,,,,,,,,,,,,,,,,,,,,,,,,,,,,,,,,,,,,,,,,,,,,,,,,,,,,,,,,,,
,,1,0.9987,1,0.9987,0,89,89,79,1,86,oven,rose,,88915,001,2022-04-29_15h01.54.851,SPAMnetsValid,2021.1.4,MacIntel,60.0024001,,,,,,,,,,,,,,,,,,,,,,,,,,,,,,,,,,,,,,,,,,,,,,,,,,,,,,,,,,,,,,,,,,,,,,,,,,,,,,,,,,,,,,,,,
,,1,0.9588,1,0.9588,0,90,90,31,1,33,oven,yogurt,,88915,001,2022-04-29_15h01.54.851,SPAMnetsValid,2021.1.4,MacIntel,60.0024001,,,,,,,,,,,,,,,,,,,,,,,,,,,,,,,,,,,,,,,,,,,,,,,,,,,,,,,,,,,,,,,,,,,,,,,,,,,,,,,,,,,,,,,,,
,,8,2.2633,8,2.2633,0,91,91,95,1,52,carrot,tomato,,88915,001,2022-04-29_15h01.54.851,SPAMnetsValid,2021.1.4,MacIntel,60.0024001,,,,,,,,,,,,,,,,,,,,,,,,,,,,,,,,,,,,,,,,,,,,,,,,,,,,,,,,,,,,,,,,,,,,,,,,,,,,,,,,,,,,,,,,,
,,1,1.742,1,1.742,0,92,92,34,1,29,chocolate,melon,,88915,001,2022-04-29_15h01.54.851,SPAMnetsValid,2021.1.4,MacIntel,60.0024001,,,,,,,,,,,,,,,,,,,,,,,,,,,,,,,,,,,,,,,,,,,,,,,,,,,,,,,,,,,,,,,,,,,,,,,,,,,,,,,,,,,,,,,,,
,,6,3.0319,6,3.0319,0,93,93,78,1,30,cookie,pretzel,,88915,001,2022-04-29_15h01.54.851,SPAMnetsValid,2021.1.4,MacIntel,60.0024001,,,,,,,,,,,,,,,,,,,,,,,,,,,,,,,,,,,,,,,,,,,,,,,,,,,,,,,,,,,,,,,,,,,,,,,,,,,,,,,,,,,,,,,,,
,,1,1.1963,1,1.1963,0,94,94,65,1,46,garden,yogurt,,88915,001,2022-04-29_15h01.54.851,SPAMnetsValid,2021.1.4,MacIntel,60.0024001,,,,,,,,,,,,,,,,,,,,,,,,,,,,,,,,,,,,,,,,,,,,,,,,,,,,,,,,,,,,,,,,,,,,,,,,,,,,,,,,,,,,,,,,,
,,1,1.2311,1,1.2311,0,95,95,57,1,62,kitchen,rose,,88915,001,2022-04-29_15h01.54.851,SPAMnetsValid,2021.1.4,MacIntel,60.0024001,,,,,,,,,,,,,,,,,,,,,,,,,,,,,,,,,,,,,,,,,,,,,,,,,,,,,,,,,,,,,,,,,,,,,,,,,,,,,,,,,,,,,,,,,
,,1,2.4286,1,2.4286,0,96,96,89,1,80,chocolate,tree,,88915,001,2022-04-29_15h01.54.851,SPAMnetsValid,2021.1.4,MacIntel,60.0024001,,,,,,,,,,,,,,,,,,,,,,,,,,,,,,,,,,,,,,,,,,,,,,,,,,,,,,,,,,,,,,,,,,,,,,,,,,,,,,,,,,,,,,,,,
,,,,,,,,,,,,,,,88915,001,2022-04-29_15h01.54.851,SPAMnetsValid,2021.1.4,MacIntel,60.0024001,0,0,0,0,1,,,,,,,,,,,,,,,,,,,,,,,,,,,,,,,,,,,,,,,,,,,,,,,,,,,,,,,,,,,,,,,,,,,,,,,,,,,,,,,,,,,,
,,,,,,,,,,,,,,,88915,001,2022-04-29_15h01.54.851,SPAMnetsValid,2021.1.4,MacIntel,60.0024001,,,,,,0,0,0,0,1,1,0,,,,,,,,,,,,,,,,,,,,,,,,,,,,,,,,,,,,,,,,,,,,,,,,,,,,,,,,,,,,,,,,,,,,,,,,,,,,,
,,,,6,4.4689,,,,,,148,flower,melon,,88915,001,2022-04-29_15h01.54.851,SPAMnetsValid,2021.1.4,MacIntel,60.0024001,,,,,,,,,,,,,6,4.4689,0,0,0,23,1,,,,,,,,,,,,,,,,,,,,,,,,,,,,,,,,,,,,,,,,,,,,,,,,,,,,,,,,,,,,,,,,,,,,,,
,,,,1,20.7491,,,,,,187,cactus,microwave,,88915,001,2022-04-29_15h01.54.851,SPAMnetsValid,2021.1.4,MacIntel,60.0024001,,,,,,,,,,,,,1,20.7491,0,1,1,71,1,,,,,,,,,,,,,,,,,,,,,,,,,,,,,,,,,,,,,,,,,,,,,,,,,,,,,,,,,,,,,,,,,,,,,,
,,,,1,1.4651,,,,,,96,oven,strawberry,,88915,001,2022-04-29_15h01.54.851,SPAMnetsValid,2021.1.4,MacIntel,60.0024001,,,,,,,,,,,,,1,1.4651,0,2,2,67,1,,,,,,,,,,,,,,,,,,,,,,,,,,,,,,,,,,,,,,,,,,,,,,,,,,,,,,,,,,,,,,,,,,,,,,
,,,,7,3.3491,,,,,,112,cake,carrot,,88915,001,2022-04-29_15h01.54.851,SPAMnetsValid,2021.1.4,MacIntel,60.0024001,,,,,,,,,,,,,7,3.3491,0,3,3,39,1,,,,,,,,,,,,,,,,,,,,,,,,,,,,,,,,,,,,,,,,,,,,,,,,,,,,,,,,,,,,,,,,,,,,,,
,,,,9,6.2317,,,,,,116,cake,chocolate,,88915,001,2022-04-29_15h01.54.851,SPAMnetsValid,2021.1.4,MacIntel,60.0024001,,,,,,,,,,,,,9,6.2317,0,4,4,44,1,,,,,,,,,,,,,,,,,,,,,,,,,,,,,,,,,,,,,,,,,,,,,,,,,,,,,,,,,,,,,,,,,,,,,,
,,,,6,2.2653,,,,,,125,carrot,tree,,88915,001,2022-04-29_15h01.54.851,SPAMnetsValid,2021.1.4,MacIntel,60.0024001,,,,,,,,,,,,,6,2.2653,0,5,5,30,1,,,,,,,,,,,,,,,,,,,,,,,,,,,,,,,,,,,,,,,,,,,,,,,,,,,,,,,,,,,,,,,,,,,,,,
,,,,6,15.3316,,,,,,168,cactus,flower,,88915,001,2022-04-29_15h01.54.851,SPAMnetsValid,2021.1.4,MacIntel,60.0024001,,,,,,,,,,,,,6,15.3316,0,6,6,51,1,,,,,,,,,,,,,,,,,,,,,,,,,,,,,,,,,,,,,,,,,,,,,,,,,,,,,,,,,,,,,,,,,,,,,,
,,,,1,2.4786,,,,,,108,carrot,chocolate,,88915,001,2022-04-29_15h01.54.851,SPAMnetsValid,2021.1.4,MacIntel,60.0024001,,,,,,,,,,,,,1,2.4786,0,7,7,5,1,,,,,,,,,,,,,,,,,,,,,,,,,,,,,,,,,,,,,,,,,,,,,,,,,,,,,,,,,,,,,,,,,,,,,,
,,,,9,2.8095,,,,,,122,flower,garden,,88915,001,2022-04-29_15h01.54.851,SPAMnetsValid,2021.1.4,MacIntel,60.0024001,,,,,,,,,,,,,9,2.8095,0,8,8,60,1,,,,,,,,,,,,,,,,,,,,,,,,,,,,,,,,,,,,,,,,,,,,,,,,,,,,,,,,,,,,,,,,,,,,,,
,,,,9,3.3946,,,,,,159,cookie,flower,,88915,001,2022-04-29_15h01.54.851,SPAMnetsValid,2021.1.4,MacIntel,60.0024001,,,,,,,,,,,,,9,3.3946,0,9,9,21,1,,,,,,,,,,,,,,,,,,,,,,,,,,,,,,,,,,,,,,,,,,,,,,,,,,,,,,,,,,,,,,,,,,,,,,
,,,,1,2.8443,,,,,,169,onion,yogurt,,88915,001,2022-04-29_15h01.54.851,SPAMnetsValid,2021.1.4,MacIntel,60.0024001,,,,,,,,,,,,,1,2.8443,0,10,10,24,1,,,,,,,,,,,,,,,,,,,,,,,,,,,,,,,,,,,,,,,,,,,,,,,,,,,,,,,,,,,,,,,,,,,,,,
,,,,2,5.4477,,,,,,140,cookie,refrigerator,,88915,001,2022-04-29_15h01.54.851,SPAMnetsValid,2021.1.4,MacIntel,60.0024001,,,,,,,,,,,,,2,5.4477,0,11,11,89,1,,,,,,,,,,,,,,,,,,,,,,,,,,,,,,,,,,,,,,,,,,,,,,,,,,,,,,,,,,,,,,,,,,,,,,
,,,,1,1.3973,,,,,,157,refrigerator,rose,,88915,001,2022-04-29_15h01.54.851,SPAMnetsValid,2021.1.4,MacIntel,60.0024001,,,,,,,,,,,,,1,1.3973,0,12,12,64,1,,,,,,,,,,,,,,,,,,,,,,,,,,,,,,,,,,,,,,,,,,,,,,,,,,,,,,,,,,,,,,,,,,,,,,
,,,,1,1.8983,,,,,,181,carrot,kitchen,,88915,001,2022-04-29_15h01.54.851,SPAMnetsValid,2021.1.4,MacIntel,60.0024001,,,,,,,,,,,,,1,1.8983,0,13,13,72,1,,,,,,,,,,,,,,,,,,,,,,,,,,,,,,,,,,,,,,,,,,,,,,,,,,,,,,,,,,,,,,,,,,,,,,
,,,,6,2.5308,,,,,,118,chocolate,oven,,88915,001,2022-04-29_15h01.54.851,SPAMnetsValid,2021.1.4,MacIntel,60.0024001,,,,,,,,,,,,,6,2.5308,0,14,14,10,1,,,,,,,,,,,,,,,,,,,,,,,,,,,,,,,,,,,,,,,,,,,,,,,,,,,,,,,,,,,,,,,,,,,,,,
,,,,9,1.9144,,,,,,120,microwave,oven,,88915,001,2022-04-29_15h01.54.851,SPAMnetsValid,2021.1.4,MacIntel,60.0024001,,,,,,,,,,,,,9,1.9144,0,15,15,14,1,,,,,,,,,,,,,,,,,,,,,,,,,,,,,,,,,,,,,,,,,,,,,,,,,,,,,,,,,,,,,,,,,,,,,,
,,,,1,2.1806,,,,,,105,cactus,oven,,88915,001,2022-04-29_15h01.54.851,SPAMnetsValid,2021.1.4,MacIntel,60.0024001,,,,,,,,,,,,,1,2.1806,0,16,16,13,1,,,,,,,,,,,,,,,,,,,,,,,,,,,,,,,,,,,,,,,,,,,,,,,,,,,,,,,,,,,,,,,,,,,,,,
,,,,1,1.8476,,,,,,104,garden,microwave,,88915,001,2022-04-29_15h01.54.851,SPAMnetsValid,2021.1.4,MacIntel,60.0024001,,,,,,,,,,,,,1,1.8476,0,17,17,81,1,,,,,,,,,,,,,,,,,,,,,,,,,,,,,,,,,,,,,,,,,,,,,,,,,,,,,,,,,,,,,,,,,,,,,,
,,,,8,8.333,,,,,,188,flower,tree,,88915,001,2022-04-29_15h01.54.851,SPAMnetsValid,2021.1.4,MacIntel,60.0024001,,,,,,,,,,,,,8,8.333,0,18,18,7,1,,,,,,,,,,,,,,,,,,,,,,,,,,,,,,,,,,,,,,,,,,,,,,,,,,,,,,,,,,,,,,,,,,,,,,
,,,,6,8.2346,,,,,,136,chocolate,microwave,,88915,001,2022-04-29_15h01.54.851,SPAMnetsValid,2021.1.4,MacIntel,60.0024001,,,,,,,,,,,,,6,8.2346,0,19,19,96,1,,,,,,,,,,,,,,,,,,,,,,,,,,,,,,,,,,,,,,,,,,,,,,,,,,,,,,,,,,,,,,,,,,,,,,
,,,,8,2.265,,,,,,177,chocolate,strawberry,,88915,001,2022-04-29_15h01.54.851,SPAMnetsValid,2021.1.4,MacIntel,60.0024001,,,,,,,,,,,,,8,2.265,0,20,20,53,1,,,,,,,,,,,,,,,,,,,,,,,,,,,,,,,,,,,,,,,,,,,,,,,,,,,,,,,,,,,,,,,,,,,,,,
,,,,1,23.532,,,,,,171,cake,tomato,,88915,001,2022-04-29_15h01.54.851,SPAMnetsValid,2021.1.4,MacIntel,60.0024001,,,,,,,,,,,,,1,23.532,0,21,21,88,1,,,,,,,,,,,,,,,,,,,,,,,,,,,,,,,,,,,,,,,,,,,,,,,,,,,,,,,,,,,,,,,,,,,,,,
,,,,1,2.6802,,,,,,182,flower,refrigerator,,88915,001,2022-04-29_15h01.54.851,SPAMnetsValid,2021.1.4,MacIntel,60.0024001,,,,,,,,,,,,,1,2.6802,0,22,22,32,1,,,,,,,,,,,,,,,,,,,,,,,,,,,,,,,,,,,,,,,,,,,,,,,,,,,,,,,,,,,,,,,,,,,,,,
,,,,1,9.664,,,,,,123,cookie,tree,,88915,001,2022-04-29_15h01.54.851,SPAMnetsValid,2021.1.4,MacIntel,60.0024001,,,,,,,,,,,,,1,9.664,0,23,23,46,1,,,,,,,,,,,,,,,,,,,,,,,,,,,,,,,,,,,,,,,,,,,,,,,,,,,,,,,,,,,,,,,,,,,,,,
,,,,9,2.9974,,,,,,138,flower,rose,,88915,001,2022-04-29_15h01.54.851,SPAMnetsValid,2021.1.4,MacIntel,60.0024001,,,,,,,,,,,,,9,2.9974,0,24,24,61,1,,,,,,,,,,,,,,,,,,,,,,,,,,,,,,,,,,,,,,,,,,,,,,,,,,,,,,,,,,,,,,,,,,,,,,
,,,,9,1.6983,,,,,,102,chocolate,refrigerator,,88915,001,2022-04-29_15h01.54.851,SPAMnetsValid,2021.1.4,MacIntel,60.0024001,,,,,,,,,,,,,9,1.6983,0,25,25,76,1,,,,,,,,,,,,,,,,,,,,,,,,,,,,,,,,,,,,,,,,,,,,,,,,,,,,,,,,,,,,,,,,,,,,,,
,,,,1,2.3463,,,,,,137,microwave,tree,,88915,001,2022-04-29_15h01.54.851,SPAMnetsValid,2021.1.4,MacIntel,60.0024001,,,,,,,,,,,,,1,2.3463,0,26,26,63,1,,,,,,,,,,,,,,,,,,,,,,,,,,,,,,,,,,,,,,,,,,,,,,,,,,,,,,,,,,,,,,,,,,,,,,
,,,,2,1.7641,,,,,,128,melon,microwave,,88915,001,2022-04-29_15h01.54.851,SPAMnetsValid,2021.1.4,MacIntel,60.0024001,,,,,,,,,,,,,2,1.7641,0,27,27,74,1,,,,,,,,,,,,,,,,,,,,,,,,,,,,,,,,,,,,,,,,,,,,,,,,,,,,,,,,,,,,,,,,,,,,,,
,,,,1,1.9812,,,,,,151,microwave,onion,,88915,001,2022-04-29_15h01.54.851,SPAMnetsValid,2021.1.4,MacIntel,60.0024001,,,,,,,,,,,,,1,1.9812,0,28,28,6,1,,,,,,,,,,,,,,,,,,,,,,,,,,,,,,,,,,,,,,,,,,,,,,,,,,,,,,,,,,,,,,,,,,,,,,
,,,,9,1.8987,,,,,,100,garden,tomato,,88915,001,2022-04-29_15h01.54.851,SPAMnetsValid,2021.1.4,MacIntel,60.0024001,,,,,,,,,,,,,9,1.8987,0,29,29,83,1,,,,,,,,,,,,,,,,,,,,,,,,,,,,,,,,,,,,,,,,,,,,,,,,,,,,,,,,,,,,,,,,,,,,,,
,,,,6,3.3129,,,,,,184,oven,pretzel,,88915,001,2022-04-29_15h01.54.851,SPAMnetsValid,2021.1.4,MacIntel,60.0024001,,,,,,,,,,,,,6,3.3129,0,30,30,42,1,,,,,,,,,,,,,,,,,,,,,,,,,,,,,,,,,,,,,,,,,,,,,,,,,,,,,,,,,,,,,,,,,,,,,,
,,,,9,6.4489,,,,,,167,carrot,garden,,88915,001,2022-04-29_15h01.54.851,SPAMnetsValid,2021.1.4,MacIntel,60.0024001,,,,,,,,,,,,,9,6.4489,0,31,31,47,1,,,,,,,,,,,,,,,,,,,,,,,,,,,,,,,,,,,,,,,,,,,,,,,,,,,,,,,,,,,,,,,,,,,,,,
,,,,1,1.7809,,,,,,149,broom,tomato,,88915,001,2022-04-29_15h01.54.851,SPAMnetsValid,2021.1.4,MacIntel,60.0024001,,,,,,,,,,,,,1,1.7809,0,32,32,20,1,,,,,,,,,,,,,,,,,,,,,,,,,,,,,,,,,,,,,,,,,,,,,,,,,,,,,,,,,,,,,,,,,,,,,,
,,,,1,1.5485,,,,,,143,pretzel,rose,,88915,001,2022-04-29_15h01.54.851,SPAMnetsValid,2021.1.4,MacIntel,60.0024001,,,,,,,,,,,,,1,1.5485,0,33,33,55,1,,,,,,,,,,,,,,,,,,,,,,,,,,,,,,,,,,,,,,,,,,,,,,,,,,,,,,,,,,,,,,,,,,,,,,
,,,,8,2.7331,,,,,,173,kitchen,tomato,,88915,001,2022-04-29_15h01.54.851,SPAMnetsValid,2021.1.4,MacIntel,60.0024001,,,,,,,,,,,,,8,2.7331,0,34,34,1,1,,,,,,,,,,,,,,,,,,,,,,,,,,,,,,,,,,,,,,,,,,,,,,,,,,,,,,,,,,,,,,,,,,,,,,
,,,,9,1.8986,,,,,,158,cookie,oven,,88915,001,2022-04-29_15h01.54.851,SPAMnetsValid,2021.1.4,MacIntel,60.0024001,,,,,,,,,,,,,9,1.8986,0,35,35,27,1,,,,,,,,,,,,,,,,,,,,,,,,,,,,,,,,,,,,,,,,,,,,,,,,,,,,,,,,,,,,,,,,,,,,,,
,,,,2,2.6744,,,,,,107,rose,tomato,,88915,001,2022-04-29_15h01.54.851,SPAMnetsValid,2021.1.4,MacIntel,60.0024001,,,,,,,,,,,,,2,2.6744,0,36,36,26,1,,,,,,,,,,,,,,,,,,,,,,,,,,,,,,,,,,,,,,,,,,,,,,,,,,,,,,,,,,,,,,,,,,,,,,
,,,,1,5.8329,,,,,,133,cake,flower,,88915,001,2022-04-29_15h01.54.851,SPAMnetsValid,2021.1.4,MacIntel,60.0024001,,,,,,,,,,,,,1,5.8329,0,37,37,94,1,,,,,,,,,,,,,,,,,,,,,,,,,,,,,,,,,,,,,,,,,,,,,,,,,,,,,,,,,,,,,,,,,,,,,,
,,,,1,1.2135,,,,,,178,cactus,carrot,,88915,001,2022-04-29_15h01.54.851,SPAMnetsValid,2021.1.4,MacIntel,60.0024001,,,,,,,,,,,,,1,1.2135,0,38,38,75,1,,,,,,,,,,,,,,,,,,,,,,,,,,,,,,,,,,,,,,,,,,,,,,,,,,,,,,,,,,,,,,,,,,,,,,
,,,,1,1.0803,,,,,,121,broom,microwave,,88915,001,2022-04-29_15h01.54.851,SPAMnetsValid,2021.1.4,MacIntel,60.0024001,,,,,,,,,,,,,1,1.0803,0,39,39,95,1,,,,,,,,,,,,,,,,,,,,,,,,,,,,,,,,,,,,,,,,,,,,,,,,,,,,,,,,,,,,,,,,,,,,,,
,,,,1,5.4103,,,,,,134,carrot,flower,,88915,001,2022-04-29_15h01.54.851,SPAMnetsValid,2021.1.4,MacIntel,60.0024001,,,,,,,,,,,,,1,5.4103,0,40,40,93,1,,,,,,,,,,,,,,,,,,,,,,,,,,,,,,,,,,,,,,,,,,,,,,,,,,,,,,,,,,,,,,,,,,,,,,
,,,,8,2.23,,,,,,131,cactus,garden,,88915,001,2022-04-29_15h01.54.851,SPAMnetsValid,2021.1.4,MacIntel,60.0024001,,,,,,,,,,,,,8,2.23,0,41,41,33,1,,,,,,,,,,,,,,,,,,,,,,,,,,,,,,,,,,,,,,,,,,,,,,,,,,,,,,,,,,,,,,,,,,,,,,
,,,,8,2.0264,,,,,,124,oven,refrigerator,,88915,001,2022-04-29_15h01.54.851,SPAMnetsValid,2021.1.4,MacIntel,60.0024001,,,,,,,,,,,,,8,2.0264,0,42,42,69,1,,,,,,,,,,,,,,,,,,,,,,,,,,,,,,,,,,,,,,,,,,,,,,,,,,,,,,,,,,,,,,,,,,,,,,
,,,,1,2.2158,,,,,,126,kitchen,tree,,88915,001,2022-04-29_15h01.54.851,SPAMnetsValid,2021.1.4,MacIntel,60.0024001,,,,,,,,,,,,,1,2.2158,0,43,43,50,1,,,,,,,,,,,,,,,,,,,,,,,,,,,,,,,,,,,,,,,,,,,,,,,,,,,,,,,,,,,,,,,,,,,,,,
,,,,6,2.7782,,,,,,115,refrigerator,tomato,,88915,001,2022-04-29_15h01.54.851,SPAMnetsValid,2021.1.4,MacIntel,60.0024001,,,,,,,,,,,,,6,2.7782,0,44,44,85,1,,,,,,,,,,,,,,,,,,,,,,,,,,,,,,,,,,,,,,,,,,,,,,,,,,,,,,,,,,,,,,,,,,,,,,
,,,,4,2.2461,,,,,,147,cake,refrigerator,,88915,001,2022-04-29_15h01.54.851,SPAMnetsValid,2021.1.4,MacIntel,60.0024001,,,,,,,,,,,,,4,2.2461,0,45,45,35,1,,,,,,,,,,,,,,,,,,,,,,,,,,,,,,,,,,,,,,,,,,,,,,,,,,,,,,,,,,,,,,,,,,,,,,
,,,,9,1.8154,,,,,,193,melon,melon,CHECK,88915,001,2022-04-29_15h01.54.851,SPAMnetsValid,2021.1.4,MacIntel,60.0024001,,,,,,,,,,,,,9,1.8154,0,46,46,86,1,,,,,,,,,,,,,,,,,,,,,,,,,,,,,,,,,,,,,,,,,,,,,,,,,,,,,,,,,,,,,,,,,,,,,,
,,,,8,1.6963,,,,,,150,microwave,refrigerator,,88915,001,2022-04-29_15h01.54.851,SPAMnetsValid,2021.1.4,MacIntel,60.0024001,,,,,,,,,,,,,8,1.6963,0,47,47,66,1,,,,,,,,,,,,,,,,,,,,,,,,,,,,,,,,,,,,,,,,,,,,,,,,,,,,,,,,,,,,,,,,,,,,,,
,,,,1,3.1625,,,,,,103,pretzel,tomato,,88915,001,2022-04-29_15h01.54.851,SPAMnetsValid,2021.1.4,MacIntel,60.0024001,,,,,,,,,,,,,1,3.1625,0,48,48,79,1,,,,,,,,,,,,,,,,,,,,,,,,,,,,,,,,,,,,,,,,,,,,,,,,,,,,,,,,,,,,,,,,,,,,,,
,,,,1,2.7846,,,,,,101,cactus,kitchen,,88915,001,2022-04-29_15h01.54.851,SPAMnetsValid,2021.1.4,MacIntel,60.0024001,,,,,,,,,,,,,1,2.7846,0,49,49,54,1,,,,,,,,,,,,,,,,,,,,,,,,,,,,,,,,,,,,,,,,,,,,,,,,,,,,,,,,,,,,,,,,,,,,,,
,,,,7,2.2293,,,,,,186,kitchen,yogurt,,88915,001,2022-04-29_15h01.54.851,SPAMnetsValid,2021.1.4,MacIntel,60.0024001,,,,,,,,,,,,,7,2.2293,0,50,50,48,1,,,,,,,,,,,,,,,,,,,,,,,,,,,,,,,,,,,,,,,,,,,,,,,,,,,,,,,,,,,,,,,,,,,,,,
,,,,1,2.447,,,,,,146,pretzel,tree,,88915,001,2022-04-29_15h01.54.851,SPAMnetsValid,2021.1.4,MacIntel,60.0024001,,,,,,,,,,,,,1,2.447,0,51,51,80,1,,,,,,,,,,,,,,,,,,,,,,,,,,,,,,,,,,,,,,,,,,,,,,,,,,,,,,,,,,,,,,,,,,,,,,
,,,,1,1.2084,,,,,,185,cactus,rose,,88915,001,2022-04-29_15h01.54.851,SPAMnetsValid,2021.1.4,MacIntel,60.0024001,,,,,,,,,,,,,1,1.2084,0,52,52,43,1,,,,,,,,,,,,,,,,,,,,,,,,,,,,,,,,,,,,,,,,,,,,,,,,,,,,,,,,,,,,,,,,,,,,,,
,,,,4,5.2483,,,,,,119,strawberry,tree,,88915,001,2022-04-29_15h01.54.851,SPAMnetsValid,2021.1.4,MacIntel,60.0024001,,,,,,,,,,,,,4,5.2483,0,53,53,18,1,,,,,,,,,,,,,,,,,,,,,,,,,,,,,,,,,,,,,,,,,,,,,,,,,,,,,,,,,,,,,,,,,,,,,,
,,,,1,1.614,,,,,,109,broom,strawberry,,88915,001,2022-04-29_15h01.54.851,SPAMnetsValid,2021.1.4,MacIntel,60.0024001,,,,,,,,,,,,,1,1.614,0,54,54,4,1,,,,,,,,,,,,,,,,,,,,,,,,,,,,,,,,,,,,,,,,,,,,,,,,,,,,,,,,,,,,,,,,,,,,,,
,,,,6,59.4409,,,,,,97,chocolate,kitchen,,88915,001,2022-04-29_15h01.54.851,SPAMnetsValid,2021.1.4,MacIntel,60.0024001,,,,,,,,,,,,,6,59.4409,0,55,55,8,1,,,,,,,,,,,,,,,,,,,,,,,,,,,,,,,,,,,,,,,,,,,,,,,,,,,,,,,,,,,,,,,,,,,,,,
,,,,9,1.3794,,,,,,194,cactus,cactus,CHECK,88915,001,2022-04-29_15h01.54.851,SPAMnetsValid,2021.1.4,MacIntel,60.0024001,,,,,,,,,,,,,9,1.3794,0,56,56,25,1,,,,,,,,,,,,,,,,,,,,,,,,,,,,,,,,,,,,,,,,,,,,,,,,,,,,,,,,,,,,,,,,,,,,,,
,,,,1,2.3084,,,,,,127,cactus,chocolate,,88915,001,2022-04-29_15h01.54.851,SPAMnetsValid,2021.1.4,MacIntel,60.0024001,,,,,,,,,,,,,1,2.3084,0,57,57,57,1,,,,,,,,,,,,,,,,,,,,,,,,,,,,,,,,,,,,,,,,,,,,,,,,,,,,,,,,,,,,,,,,,,,,,,
,,,,1,72.0981,,,,,,174,cake,pretzel,,88915,001,2022-04-29_15h01.54.851,SPAMnetsValid,2021.1.4,MacIntel,60.0024001,,,,,,,,,,,,,1,72.0981,0,58,58,2,1,,,,,,,,,,,,,,,,,,,,,,,,,,,,,,,,,,,,,,,,,,,,,,,,,,,,,,,,,,,,,,,,,,,,,,
,,,,8,1.2471,,,,,,113,refrigerator,strawberry,,88915,001,2022-04-29_15h01.54.851,SPAMnetsValid,2021.1.4,MacIntel,60.0024001,,,,,,,,,,,,,8,1.2471,0,59,59,56,1,,,,,,,,,,,,,,,,,,,,,,,,,,,,,,,,,,,,,,,,,,,,,,,,,,,,,,,,,,,,,,,,,,,,,,
,,,,2,1.4797,,,,,,190,microwave,strawberry,,88915,001,2022-04-29_15h01.54.851,SPAMnetsValid,2021.1.4,MacIntel,60.0024001,,,,,,,,,,,,,2,1.4797,0,60,60,90,1,,,,,,,,,,,,,,,,,,,,,,,,,,,,,,,,,,,,,,,,,,,,,,,,,,,,,,,,,,,,,,,,,,,,,,
,,,,1,1.7746,,,,,,98,pretzel,strawberry,,88915,001,2022-04-29_15h01.54.851,SPAMnetsValid,2021.1.4,MacIntel,60.0024001,,,,,,,,,,,,,1,1.7746,0,61,61,82,1,,,,,,,,,,,,,,,,,,,,,,,,,,,,,,,,,,,,,,,,,,,,,,,,,,,,,,,,,,,,,,,,,,,,,,
,,,,6,1.5814,,,,,,139,carrot,strawberry,,88915,001,2022-04-29_15h01.54.851,SPAMnetsValid,2021.1.4,MacIntel,60.0024001,,,,,,,,,,,,,6,1.5814,0,62,62,37,1,,,,,,,,,,,,,,,,,,,,,,,,,,,,,,,,,,,,,,,,,,,,,,,,,,,,,,,,,,,,,,,,,,,,,,
,,,,1,1.4815,,,,,,129,cactus,refrigerator,,88915,001,2022-04-29_15h01.54.851,SPAMnetsValid,2021.1.4,MacIntel,60.0024001,,,,,,,,,,,,,1,1.4815,0,63,63,3,1,,,,,,,,,,,,,,,,,,,,,,,,,,,,,,,,,,,,,,,,,,,,,,,,,,,,,,,,,,,,,,,,,,,,,,
,,,,7,1.7637,,,,,,172,kitchen,melon,,88915,001,2022-04-29_15h01.54.851,SPAMnetsValid,2021.1.4,MacIntel,60.0024001,,,,,,,,,,,,,7,1.7637,0,64,64,77,1,,,,,,,,,,,,,,,,,,,,,,,,,,,,,,,,,,,,,,,,,,,,,,,,,,,,,,,,,,,,,,,,,,,,,,
,,,,1,0.9968,,,,,,153,carrot,pretzel,,88915,001,2022-04-29_15h01.54.851,SPAMnetsValid,2021.1.4,MacIntel,60.0024001,,,,,,,,,,,,,1,0.9968,0,65,65,34,1,,,,,,,,,,,,,,,,,,,,,,,,,,,,,,,,,,,,,,,,,,,,,,,,,,,,,,,,,,,,,,,,,,,,,,
,,,,1,1.1799,,,,,,114,cookie,strawberry,,88915,001,2022-04-29_15h01.54.851,SPAMnetsValid,2021.1.4,MacIntel,60.0024001,,,,,,,,,,,,,1,1.1799,0,66,66,87,1,,,,,,,,,,,,,,,,,,,,,,,,,,,,,,,,,,,,,,,,,,,,,,,,,,,,,,,,,,,,,,,,,,,,,,
,,,,1,2.1483,,,,,,155,carrot,cookie,,88915,001,2022-04-29_15h01.54.851,SPAMnetsValid,2021.1.4,MacIntel,60.0024001,,,,,,,,,,,,,1,2.1483,0,67,67,38,1,,,,,,,,,,,,,,,,,,,,,,,,,,,,,,,,,,,,,,,,,,,,,,,,,,,,,,,,,,,,,,,,,,,,,,
,,,,1,1.2808,,,,,,130,microwave,yogurt,,88915,001,2022-04-29_15h01.54.851,SPAMnetsValid,2021.1.4,MacIntel,60.0024001,,,,,,,,,,,,,1,1.2808,0,68,68,84,1,,,,,,,,,,,,,,,,,,,,,,,,,,,,,,,,,,,,,,,,,,,,,,,,,,,,,,,,,,,,,,,,,,,,,,
,,,,4,3.6981,,,,,,162,microwave,tomato,,88915,001,2022-04-29_15h01.54.851,SPAMnetsValid,2021.1.4,MacIntel,60.0024001,,,,,,,,,,,,,4,3.6981,0,69,69,12,1,,,,,,,,,,,,,,,,,,,,,,,,,,,,,,,,,,,,,,,,,,,,,,,,,,,,,,,,,,,,,,,,,,,,,,
,,,,7,1.3461,,,,,,170,cookie,microwave,,88915,001,2022-04-29_15h01.54.851,SPAMnetsValid,2021.1.4,MacIntel,60.0024001,,,,,,,,,,,,,7,1.3461,0,70,70,92,1,,,,,,,,,,,,,,,,,,,,,,,,,,,,,,,,,,,,,,,,,,,,,,,,,,,,,,,,,,,,,,,,,,,,,,
,,,,1,1.1287,,,,,,111,carrot,microwave,,88915,001,2022-04-29_15h01.54.851,SPAMnetsValid,2021.1.4,MacIntel,60.0024001,,,,,,,,,,,,,1,1.1287,0,71,71,16,1,,,,,,,,,,,,,,,,,,,,,,,,,,,,,,,,,,,,,,,,,,,,,,,,,,,,,,,,,,,,,,,,,,,,,,
,,,,7,3.8135,,,,,,106,cake,strawberry,,88915,001,2022-04-29_15h01.54.851,SPAMnetsValid,2021.1.4,MacIntel,60.0024001,,,,,,,,,,,,,7,3.8135,0,72,72,0,1,,,,,,,,,,,,,,,,,,,,,,,,,,,,,,,,,,,,,,,,,,,,,,,,,,,,,,,,,,,,,,,,,,,,,,
,,,,6,13.1128,,,,,,152,cactus,strawberry,,88915,001,2022-04-29_15h01.54.851,SPAMnetsValid,2021.1.4,MacIntel,60.0024001,,,,,,,,,,,,,6,13.1128,0,73,73,49,1,,,,,,,,,,,,,,,,,,,,,,,,,,,,,,,,,,,,,,,,,,,,,,,,,,,,,,,,,,,,,,,,,,,,,,
,,,,1,1.281,,,,,,163,melon,refrigerator,,88915,001,2022-04-29_15h01.54.851,SPAMnetsValid,2021.1.4,MacIntel,60.0024001,,,,,,,,,,,,,1,1.281,0,74,74,29,1,,,,,,,,,,,,,,,,,,,,,,,,,,,,,,,,,,,,,,,,,,,,,,,,,,,,,,,,,,,,,,,,,,,,,,
,,,,1,1.548,,,,,,183,cake,rose,,88915,001,2022-04-29_15h01.54.851,SPAMnetsValid,2021.1.4,MacIntel,60.0024001,,,,,,,,,,,,,1,1.548,0,75,75,19,1,,,,,,,,,,,,,,,,,,,,,,,,,,,,,,,,,,,,,,,,,,,,,,,,,,,,,,,,,,,,,,,,,,,,,,
,,,,6,1.2632,,,,,,160,cookie,kitchen,,88915,001,2022-04-29_15h01.54.851,SPAMnetsValid,2021.1.4,MacIntel,60.0024001,,,,,,,,,,,,,6,1.2632,0,76,76,65,1,,,,,,,,,,,,,,,,,,,,,,,,,,,,,,,,,,,,,,,,,,,,,,,,,,,,,,,,,,,,,,,,,,,,,,
,,,,6,2.649,,,,,,176,cactus,tomato,,88915,001,2022-04-29_15h01.54.851,SPAMnetsValid,2021.1.4,MacIntel,60.0024001,,,,,,,,,,,,,6,2.649,0,77,77,9,1,,,,,,,,,,,,,,,,,,,,,,,,,,,,,,,,,,,,,,,,,,,,,,,,,,,,,,,,,,,,,,,,,,,,,,
,,,,1,1.1964,,,,,,145,cactus,yogurt,,88915,001,2022-04-29_15h01.54.851,SPAMnetsValid,2021.1.4,MacIntel,60.0024001,,,,,,,,,,,,,1,1.1964,0,78,78,15,1,,,,,,,,,,,,,,,,,,,,,,,,,,,,,,,,,,,,,,,,,,,,,,,,,,,,,,,,,,,,,,,,,,,,,,
,,,,6,2.7469,,,,,,141,melon,tomato,,88915,001,2022-04-29_15h01.54.851,SPAMnetsValid,2021.1.4,MacIntel,60.0024001,,,,,,,,,,,,,6,2.7469,0,79,79,70,1,,,,,,,,,,,,,,,,,,,,,,,,,,,,,,,,,,,,,,,,,,,,,,,,,,,,,,,,,,,,,,,,,,,,,,
,,,,6,3.0981,,,,,,99,garden,melon,,88915,001,2022-04-29_15h01.54.851,SPAMnetsValid,2021.1.4,MacIntel,60.0024001,,,,,,,,,,,,,6,3.0981,0,80,80,17,1,,,,,,,,,,,,,,,,,,,,,,,,,,,,,,,,,,,,,,,,,,,,,,,,,,,,,,,,,,,,,,,,,,,,,,
,,,,1,1.3627,,,,,,135,carrot,oven,,88915,001,2022-04-29_15h01.54.851,SPAMnetsValid,2021.1.4,MacIntel,60.0024001,,,,,,,,,,,,,1,1.3627,0,81,81,73,1,,,,,,,,,,,,,,,,,,,,,,,,,,,,,,,,,,,,,,,,,,,,,,,,,,,,,,,,,,,,,,,,,,,,,,
,,,,9,1.0632,,,,,,110,chocolate,cookie,,88915,001,2022-04-29_15h01.54.851,SPAMnetsValid,2021.1.4,MacIntel,60.0024001,,,,,,,,,,,,,9,1.0632,0,82,82,52,1,,,,,,,,,,,,,,,,,,,,,,,,,,,,,,,,,,,,,,,,,,,,,,,,,,,,,,,,,,,,,,,,,,,,,,
,,,,6,1.7969,,,,,,166,cake,yogurt,,88915,001,2022-04-29_15h01.54.851,SPAMnetsValid,2021.1.4,MacIntel,60.0024001,,,,,,,,,,,,,6,1.7969,0,83,83,91,1,,,,,,,,,,,,,,,,,,,,,,,,,,,,,,,,,,,,,,,,,,,,,,,,,,,,,,,,,,,,,,,,,,,,,,
,,,,1,0.9808,,,,,,132,broom,tree,,88915,001,2022-04-29_15h01.54.851,SPAMnetsValid,2021.1.4,MacIntel,60.0024001,,,,,,,,,,,,,1,0.9808,0,84,84,78,1,,,,,,,,,,,,,,,,,,,,,,,,,,,,,,,,,,,,,,,,,,,,,,,,,,,,,,,,,,,,,,,,,,,,,,
,,,,1,9.149,,,,,,164,cookie,garden,,88915,001,2022-04-29_15h01.54.851,SPAMnetsValid,2021.1.4,MacIntel,60.0024001,,,,,,,,,,,,,1,9.149,0,85,85,59,1,,,,,,,,,,,,,,,,,,,,,,,,,,,,,,,,,,,,,,,,,,,,,,,,,,,,,,,,,,,,,,,,,,,,,,
,,,,4,2.5636,,,,,,189,onion,tree,,88915,001,2022-04-29_15h01.54.851,SPAMnetsValid,2021.1.4,MacIntel,60.0024001,,,,,,,,,,,,,4,2.5636,0,86,86,62,1,,,,,,,,,,,,,,,,,,,,,,,,,,,,,,,,,,,,,,,,,,,,,,,,,,,,,,,,,,,,,,,,,,,,,,
,,,,1,0.962,,,,,,175,melon,onion,,88915,001,2022-04-29_15h01.54.851,SPAMnetsValid,2021.1.4,MacIntel,60.0024001,,,,,,,,,,,,,1,0.962,0,87,87,41,1,,,,,,,,,,,,,,,,,,,,,,,,,,,,,,,,,,,,,,,,,,,,,,,,,,,,,,,,,,,,,,,,,,,,,,
,,,,6,2.1147,,,,,,161,kitchen,pretzel,,88915,001,2022-04-29_15h01.54.851,SPAMnetsValid,2021.1.4,MacIntel,60.0024001,,,,,,,,,,,,,6,2.1147,0,88,88,36,1,,,,,,,,,,,,,,,,,,,,,,,,,,,,,,,,,,,,,,,,,,,,,,,,,,,,,,,,,,,,,,,,,,,,,,
,,,,3,3.2974,,,,,,156,melon,rose,,88915,001,2022-04-29_15h01.54.851,SPAMnetsValid,2021.1.4,MacIntel,60.0024001,,,,,,,,,,,,,3,3.2974,0,89,89,31,1,,,,,,,,,,,,,,,,,,,,,,,,,,,,,,,,,,,,,,,,,,,,,,,,,,,,,,,,,,,,,,,,,,,,,,
,,,,1,1.5478,,,,,,144,cake,garden,,88915,001,2022-04-29_15h01.54.851,SPAMnetsValid,2021.1.4,MacIntel,60.0024001,,,,,,,,,,,,,1,1.5478,0,90,90,58,1,,,,,,,,,,,,,,,,,,,,,,,,,,,,,,,,,,,,,,,,,,,,,,,,,,,,,,,,,,,,,,,,,,,,,,
,,,,1,0.9989,,,,,,179,broom,oven,,88915,001,2022-04-29_15h01.54.851,SPAMnetsValid,2021.1.4,MacIntel,60.0024001,,,,,,,,,,,,,1,0.9989,0,91,91,45,1,,,,,,,,,,,,,,,,,,,,,,,,,,,,,,,,,,,,,,,,,,,,,,,,,,,,,,,,,,,,,,,,,,,,,,
,,,,4,1.4977,,,,,,165,onion,rose,,88915,001,2022-04-29_15h01.54.851,SPAMnetsValid,2021.1.4,MacIntel,60.0024001,,,,,,,,,,,,,4,1.4977,0,92,92,40,1,,,,,,,,,,,,,,,,,,,,,,,,,,,,,,,,,,,,,,,,,,,,,,,,,,,,,,,,,,,,,,,,,,,,,,
,,,,9,2.4138,,,,,,142,garden,tree,,88915,001,2022-04-29_15h01.54.851,SPAMnetsValid,2021.1.4,MacIntel,60.0024001,,,,,,,,,,,,,9,2.4138,0,93,93,22,1,,,,,,,,,,,,,,,,,,,,,,,,,,,,,,,,,,,,,,,,,,,,,,,,,,,,,,,,,,,,,,,,,,,,,,
,,,,1,1.4242,,,,,,180,tree,yogurt,,88915,001,2022-04-29_15h01.54.851,SPAMnetsValid,2021.1.4,MacIntel,60.0024001,,,,,,,,,,,,,1,1.4242,0,94,94,68,1,,,,,,,,,,,,,,,,,,,,,,,,,,,,,,,,,,,,,,,,,,,,,,,,,,,,,,,,,,,,,,,,,,,,,,
,,,,8,2.3246,,,,,,117,melon,strawberry,,88915,001,2022-04-29_15h01.54.851,SPAMnetsValid,2021.1.4,MacIntel,60.0024001,,,,,,,,,,,,,8,2.3246,0,95,95,11,1,,,,,,,,,,,,,,,,,,,,,,,,,,,,,,,,,,,,,,,,,,,,,,,,,,,,,,,,,,,,,,,,,,,,,,
,,,,9,2.3801,,,,,,154,strawberry,yogurt,,88915,001,2022-04-29_15h01.54.851,SPAMnetsValid,2021.1.4,MacIntel,60.0024001,,,,,,,,,,,,,9,2.3801,0,96,96,28,1,,,,,,,,,,,,,,,,,,,,,,,,,,,,,,,,,,,,,,,,,,,,,,,,,,,,,,,,,,,,,,,,,,,,,,
,,,,,,,,,,,,,,,88915,001,2022-04-29_15h01.54.851,SPAMnetsValid,2021.1.4,MacIntel,60.0024001,,,,,,,,,,,,,,,,,,,,0,0,0,0,1,,,,,,,,,,,,,,,,,,,,,,,,,,,,,,,,,,,,,,,,,,,,,,,,,,,,,,,,,,,,,,,,,
,,,,,,,,,,,,,,,88915,001,2022-04-29_15h01.54.851,SPAMnetsValid,2021.1.4,MacIntel,60.0024001,,,,,,0,1,1,1,1,0,1,,,,,,,,,,,,,,,,,,,,,,,,,,,,,,,,,,,,,,,,,,,,,,,,,,,,,,,,,,,,,,,,,,,,,,,,,,,,,
,,,,,,,,,,,,,,,88915,001,2022-04-29_15h01.54.851,SPAMnetsValid,2021.1.4,MacIntel,60.0024001,,,,,,,,,,,,,,,,,,,,,,,,,3,7.0129,0,0,0,0,1,rancor,forbearance,ridicule,malice,bravery,3,,,,,,,,,,,,,,,,,,,,,,,,,,,,,,,,,,,,,,,,,,,,,,,,,,,,
,,,,,,,,,,,,,,,88915,001,2022-04-29_15h01.54.851,SPAMnetsValid,2021.1.4,MacIntel,60.0024001,,,,,,,,,,,,,,,,,,,,,,,,,4,4.0157,0,1,1,1,1,raucous,empty,quiet,smooth,harsh,4,,,,,,,,,,,,,,,,,,,,,,,,,,,,,,,,,,,,,,,,,,,,,,,,,,,,
,,,,,,,,,,,,,,,88915,001,2022-04-29_15h01.54.851,SPAMnetsValid,2021.1.4,MacIntel,60.0024001,,,,,,,,,,,,,,,,,,,,,,,,,4,3.5491,0,2,2,2,1,gargoyle,oil,medicine,carved waterspout,ugly building,3,,,,,,,,,,,,,,,,,,,,,,,,,,,,,,,,,,,,,,,,,,,,,,,,,,,,
,,,,,,,,,,,,,,,88915,001,2022-04-29_15h01.54.851,SPAMnetsValid,2021.1.4,MacIntel,60.0024001,,,,,,,,,,,,,,,,,,,,,,,,,3,4.0328,0,3,3,3,1,recrudesce,purify,renew activity,lack refinement,crush,2,,,,,,,,,,,,,,,,,,,,,,,,,,,,,,,,,,,,,,,,,,,,,,,,,,,,
,,,,,,,,,,,,,,,88915,001,2022-04-29_15h01.54.851,SPAMnetsValid,2021.1.4,MacIntel,60.0024001,,,,,,,,,,,,,,,,,,,,,,,,,3,3.0808,0,4,4,4,1,specious,"plausible, but not genuine",noteworthy,class or variety,roomy,1,,,,,,,,,,,,,,,,,,,,,,,,,,,,,,,,,,,,,,,,,,,,,,,,,,,,
,,,,,,,,,,,,,,,88915,001,2022-04-29_15h01.54.851,SPAMnetsValid,2021.1.4,MacIntel,60.0024001,,,,,,,,,,,,,,,,,,,,,,,,,2,4.9329,0,5,5,5,1,bauble,bubble,showy plaything,idle talk,confusion,2,,,,,,,,,,,,,,,,,,,,,,,,,,,,,,,,,,,,,,,,,,,,,,,,,,,,
,,,,,,,,,,,,,,,88915,001,2022-04-29_15h01.54.851,SPAMnetsValid,2021.1.4,MacIntel,60.0024001,,,,,,,,,,,,,,,,,,,,,,,,,2,6.4264,0,6,6,6,1,prolific,scarce,producing abundantly,reckless,speaking profanely,2,,,,,,,,,,,,,,,,,,,,,,,,,,,,,,,,,,,,,,,,,,,,,,,,,,,,
,,,,,,,,,,,,,,,88915,001,2022-04-29_15h01.54.851,SPAMnetsValid,2021.1.4,MacIntel,60.0024001,,,,,,,,,,,,,,,,,,,,,,,,,2,2.1819,0,7,7,7,1,opulent,party,wealthy,happy frame of mind,semiprecious stone,2,,,,,,,,,,,,,,,,,,,,,,,,,,,,,,,,,,,,,,,,,,,,,,,,,,,,
,,,,,,,,,,,,,,,88915,001,2022-04-29_15h01.54.851,SPAMnetsValid,2021.1.4,MacIntel,60.0024001,,,,,,,,,,,,,,,,,,,,,,,,,1,3.1824,0,8,8,8,1,coercion,conspiracy,strategy,restraint,attraction,3,,,,,,,,,,,,,,,,,,,,,,,,,,,,,,,,,,,,,,,,,,,,,,,,,,,,
,,,,,,,,,,,,,,,88915,001,2022-04-29_15h01.54.851,SPAMnetsValid,2021.1.4,MacIntel,60.0024001,,,,,,,,,,,,,,,,,,,,,,,,,2,58.748,0,9,9,9,1,hiatus,animal,calamity,dread,gap,4,,,,,,,,,,,,,,,,,,,,,,,,,,,,,,,,,,,,,,,,,,,,,,,,,,,,
,,,,,,,,,,,,,,,88915,001,2022-04-29_15h01.54.851,SPAMnetsValid,2021.1.4,MacIntel,60.0024001,,,,,,,,,,,,,,,,,,,,,,,,,2,6.3138,0,10,10,10,1,germane,microbe,contagious,relevant,different,3,,,,,,,,,,,,,,,,,,,,,,,,,,,,,,,,,,,,,,,,,,,,,,,,,,,,
,,,,,,,,,,,,,,,88915,001,2022-04-29_15h01.54.851,SPAMnetsValid,2021.1.4,MacIntel,60.0024001,,,,,,,,,,,,,,,,,,,,,,,,,1,6.3843,0,11,11,11,1,perfunctory,fundamental,formal,superficial,careful,3,,,,,,,,,,,,,,,,,,,,,,,,,,,,,,,,,,,,,,,,,,,,,,,,,,,,
,,,,,,,,,,,,,,,88915,001,2022-04-29_15h01.54.851,SPAMnetsValid,2021.1.4,MacIntel,60.0024001,,,,,,,,,,,,,,,,,,,,,,,,,3,7.0148,0,12,12,12,1,diverge,reveal,chant,distract the attention of,differ or turn off from,4,,,,,,,,,,,,,,,,,,,,,,,,,,,,,,,,,,,,,,,,,,,,,,,,,,,,
,,,,,,,,,,,,,,,88915,001,2022-04-29_15h01.54.851,SPAMnetsValid,2021.1.4,MacIntel,60.0024001,,,,,,,,,,,,,,,,,,,,,,,,,1,3.5314,0,13,13,13,1,evoke,take away,anger,connect,bring out,4,,,,,,,,,,,,,,,,,,,,,,,,,,,,,,,,,,,,,,,,,,,,,,,,,,,,
,,,,,,,,,,,,,,,88915,001,2022-04-29_15h01.54.851,SPAMnetsValid,2021.1.4,MacIntel,60.0024001,,,,,,,,,,,,,,,,,,,,,,,,,3,12.482,0,14,14,14,1,pertinent,relevant,lying next to,necessary,bold,1,,,,,,,,,,,,,,,,,,,,,,,,,,,,,,,,,,,,,,,,,,,,,,,,,,,,
,,,,,,,,,,,,,,,88915,001,2022-04-29_15h01.54.851,SPAMnetsValid,2021.1.4,MacIntel,60.0024001,,,,,,,,,,,,,,,,,,,,,,,,,2,3.3659,0,15,15,15,1,holocaust,entirety,destruction,saintly,price,2,,,,,,,,,,,,,,,,,,,,,,,,,,,,,,,,,,,,,,,,,,,,,,,,,,,,
,,,,,,,,,,,,,,,88915,001,2022-04-29_15h01.54.851,SPAMnetsValid,2021.1.4,MacIntel,60.0024001,,,,,,,,,,,,,,,,,,,,,,,,,3,7.6326,0,16,16,16,1,piquant,mellow,fish,pungent,cloth,3,,,,,,,,,,,,,,,,,,,,,,,,,,,,,,,,,,,,,,,,,,,,,,,,,,,,
,,,,,,,,,,,,,,,88915,001,2022-04-29_15h01.54.851,SPAMnetsValid,2021.1.4,MacIntel,60.0024001,,,,,,,,,,,,,,,,,,,,,,,,,1,9.6156,0,17,17,17,1,firmament,foundation,heavens,strong,glue,2,,,,,,,,,,,,,,,,,,,,,,,,,,,,,,,,,,,,,,,,,,,,,,,,,,,,
,,,,,,,,,,,,,,,88915,001,2022-04-29_15h01.54.851,SPAMnetsValid,2021.1.4,MacIntel,60.0024001,,,,,,,,,,,,,,,,,,,,,,,,,,,,,,,,,,,,,,1,6.8132,0,0,0,0,1,marketable,partisan,jocular,marriageable,salable,essential,4,,,,,,,,,,,,,,,,,,,,,,,,,,,,,,,,,,,,,,
,,,,,,,,,,,,,,,88915,001,2022-04-29_15h01.54.851,SPAMnetsValid,2021.1.4,MacIntel,60.0024001,,,,,,,,,,,,,,,,,,,,,,,,,,,,,,,,,,,,,,5,6.0644,0,1,1,1,1,cottontail,squirrel,poplar,boa,marshy plant,rabbit,5,,,,,,,,,,,,,,,,,,,,,,,,,,,,,,,,,,,,,,
,,,,,,,,,,,,,,,88915,001,2022-04-29_15h01.54.851,SPAMnetsValid,2021.1.4,MacIntel,60.0024001,,,,,,,,,,,,,,,,,,,,,,,,,,,,,,,,,,,,,,2,5.5314,0,2,2,2,1,boggy,afraid,false,marshy,dense,black,3,,,,,,,,,,,,,,,,,,,,,,,,,,,,,,,,,,,,,,
,,,,,,,,,,,,,,,88915,001,2022-04-29_15h01.54.851,SPAMnetsValid,2021.1.4,MacIntel,60.0024001,,,,,,,,,,,,,,,,,,,,,,,,,,,,,,,,,,,,,,3,13.8631,0,3,3,3,1,gruesomeness,blackness,falseness,vindictiveness,drunkenness,ghastliness,5,,,,,,,,,,,,,,,,,,,,,,,,,,,,,,,,,,,,,,
,,,,,,,,,,,,,,,88915,001,2022-04-29_15h01.54.851,SPAMnetsValid,2021.1.4,MacIntel,60.0024001,,,,,,,,,,,,,,,,,,,,,,,,,,,,,,,,,,,,,,5,6.1646,0,4,4,4,1,loathing,diffidence,laziness,abhorrence,cleverness,comfort,3,,,,,,,,,,,,,,,,,,,,,,,,,,,,,,,,,,,,,,
,,,,,,,,,,,,,,,88915,001,2022-04-29_15h01.54.851,SPAMnetsValid,2021.1.4,MacIntel,60.0024001,,,,,,,,,,,,,,,,,,,,,,,,,,,,,,,,,,,,,,1,6.3642,0,5,5,5,1,bantam,fowl,ridicule,cripple,vegetable,ensign,1,,,,,,,,,,,,,,,,,,,,,,,,,,,,,,,,,,,,,,
,,,,,,,,,,,,,,,88915,001,2022-04-29_15h01.54.851,SPAMnetsValid,2021.1.4,MacIntel,60.0024001,,,,,,,,,,,,,,,,,,,,,,,,,,,,,,,,,,,,,,2,5.0987,0,6,6,6,1,evoke,wake up,surrender,reconnoiter,transcend,call forth,5,,,,,,,,,,,,,,,,,,,,,,,,,,,,,,,,,,,,,,
,,,,,,,,,,,,,,,88915,001,2022-04-29_15h01.54.851,SPAMnetsValid,2021.1.4,MacIntel,60.0024001,,,,,,,,,,,,,,,,,,,,,,,,,,,,,,,,,,,,,,5,4.264,0,7,7,7,1,unobtrusive,unintelligent,epileptic,illogical,lineal,modest,5,,,,,,,,,,,,,,,,,,,,,,,,,,,,,,,,,,,,,,
,,,,,,,,,,,,,,,88915,001,2022-04-29_15h01.54.851,SPAMnetsValid,2021.1.4,MacIntel,60.0024001,,,,,,,,,,,,,,,,,,,,,,,,,,,,,,,,,,,,,,3,9.6131,0,8,8,8,1,terrain,ice cream,final test,tractor,area of ground,weight,4,,,,,,,,,,,,,,,,,,,,,,,,,,,,,,,,,,,,,,
,,,,,,,,,,,,,,,88915,001,2022-04-29_15h01.54.851,SPAMnetsValid,2021.1.4,MacIntel,60.0024001,,,,,,,,,,,,,,,,,,,,,,,,,,,,,,,,,,,,,,5,10.3977,0,9,9,9,1,capriciousness,stubbornness,courage,whimsicality,amazement,greediness,3,,,,,,,,,,,,,,,,,,,,,,,,,,,,,,,,,,,,,,
,,,,,,,,,,,,,,,88915,001,2022-04-29_15h01.54.851,SPAMnetsValid,2021.1.4,MacIntel,60.0024001,,,,,,,,,,,,,,,,,,,,,,,,,,,,,,,,,,,,,,1,4.3153,0,10,10,10,1,maelstrom,slander,whirlpool,enmity,armor,majolica,2,,,,,,,,,,,,,,,,,,,,,,,,,,,,,,,,,,,,,,
,,,,,,,,,,,,,,,88915,001,2022-04-29_15h01.54.851,SPAMnetsValid,2021.1.4,MacIntel,60.0024001,,,,,,,,,,,,,,,,,,,,,,,,,,,,,,,,,,,,,,4,4.4983,0,11,11,11,1,tentative,critical,conclusive,authentic,provisional,apprehensive,4,,,,,,,,,,,,,,,,,,,,,,,,,,,,,,,,,,,,,,
,,,,,,,,,,,,,,,88915,001,2022-04-29_15h01.54.851,SPAMnetsValid,2021.1.4,MacIntel,60.0024001,,,,,,,,,,,,,,,,,,,,,,,,,,,,,,,,,,,,,,1,4.5644,0,12,12,12,1,placate,rehabilitate,plagiarize,depredate,apprise,conciliate,5,,,,,,,,,,,,,,,,,,,,,,,,,,,,,,,,,,,,,,
,,,,,,,,,,,,,,,88915,001,2022-04-29_15h01.54.851,SPAMnetsValid,2021.1.4,MacIntel,60.0024001,,,,,,,,,,,,,,,,,,,,,,,,,,,,,,,,,,,,,,1,2.6132,0,13,13,13,1,surcease,enlightenment,cessation,inattention,censor,substitution,2,,,,,,,,,,,,,,,,,,,,,,,,,,,,,,,,,,,,,,
,,,,,,,,,,,,,,,88915,001,2022-04-29_15h01.54.851,SPAMnetsValid,2021.1.4,MacIntel,60.0024001,,,,,,,,,,,,,,,,,,,,,,,,,,,,,,,,,,,,,,3,6.2657,0,14,14,14,1,apathetic,wandering,impassive,hateful,prophetic,overflowing,2,,,,,,,,,,,,,,,,,,,,,,,,,,,,,,,,,,,,,,
,,,,,,,,,,,,,,,88915,001,2022-04-29_15h01.54.851,SPAMnetsValid,2021.1.4,MacIntel,60.0024001,,,,,,,,,,,,,,,,,,,,,,,,,,,,,,,,,,,,,,4,4.5004,0,15,15,15,1,paternoster,paternalism,patricide,malediction,benediction,prayer,5,,,,,,,,,,,,,,,,,,,,,,,,,,,,,,,,,,,,,,
,,,,,,,,,,,,,,,88915,001,2022-04-29_15h01.54.851,SPAMnetsValid,2021.1.4,MacIntel,60.0024001,,,,,,,,,,,,,,,,,,,,,,,,,,,,,,,,,,,,,,3,8.9496,0,16,16,16,1,opalescence,opulence,senescence,bankruptcy,iridescence,assiduity,4,,,,,,,,,,,,,,,,,,,,,,,,,,,,,,,,,,,,,,
,,,,,,,,,,,,,,,88915,001,2022-04-29_15h01.54.851,SPAMnetsValid,2021.1.4,MacIntel,60.0024001,,,,,,,,,,,,,,,,,,,,,,,,,,,,,,,,,,,,,,2,5.1489,0,17,17,17,1,lush,stupid,luxurious,hazy,putrid,languishing,2,,,,,,,,,,,,,,,,,,,,,,,,,,,,,,,,,,,,,,
,,,,,,,,,,,,,,,88915,001,2022-04-29_15h01.54.851,SPAMnetsValid,2021.1.4,MacIntel,60.0024001,,,,,,,,,,,,,,,,,,,,,,,,,,,,,,,,,,,,,,2,8.2324,0,18,18,18,1,curtailment,expenditure,abandonment,abridgment,improvement,forgery,3,,,,,,,,,,,,,,,,,,,,,,,,,,,,,,,,,,,,,,
,,,,,,,,,,,,,,,88915,001,2022-04-29_15h01.54.851,SPAMnetsValid,2021.1.4,MacIntel,60.0024001,,,,,,,,,,,,,,,,,,,,,,,,,,,,,,,,,,,,,,2,8.4641,0,19,19,19,1,perversity,adversity,perviousness,travesty,waywardness,gentility,4,,,,,,,,,,,,,,,,,,,,,,,,,,,,,,,,,,,,,,
,,,,,,,,,,,,,,,88915,001,2022-04-29_15h01.54.851,SPAMnetsValid,2021.1.4,MacIntel,60.0024001,,,,,,,,,,,,,,,,,,,,,,,,,,,,,,,,,,,,,,3,6.5302,0,20,20,20,1,calumnious,complimentary,analogous,slanderous,tempestuous,magnanimous,3,,,,,,,,,,,,,,,,,,,,,,,,,,,,,,,,,,,,,,
,,,,,,,,,,,,,,,88915,001,2022-04-29_15h01.54.851,SPAMnetsValid,2021.1.4,MacIntel,60.0024001,,,,,,,,,,,,,,,,,,,,,,,,,,,,,,,,,,,,,,3,3.7811,0,21,21,21,1,illiberality,bigotry,imbecility,illegibility,cautery,immaturity,1,,,,,,,,,,,,,,,,,,,,,,,,,,,,,,,,,,,,,,
,,,,,,,,,,,,,,,88915,001,2022-04-29_15h01.54.851,SPAMnetsValid,2021.1.4,MacIntel,60.0024001,,,,,,,,,,,,,,,,,,,,,,,,,,,,,,,,,,,,,,2,5.9151,0,22,22,22,1,clabber,rejoice,gossip,curdle,crow,hobble,3,,,,,,,,,,,,,,,,,,,,,,,,,,,,,,,,,,,,,,
,,,,,,,,,,,,,,,88915,001,2022-04-29_15h01.54.851,SPAMnetsValid,2021.1.4,MacIntel,60.0024001,,,,,,,,,,,,,,,,,,,,,,,,,,,,,,,,,,,,,,4,8.8417,0,23,23,23,1,sedulousness,diligence,credulousness,seduction,perilousness,frankness,1,,,,,,,,,,,,,,,,,,,,,,,,,,,,,,,,,,,,,,
,,,,,,,,,,,,,,,88915,001,2022-04-29_15h01.54.851,SPAMnetsValid,2021.1.4,MacIntel,60.0024001,,,,,,,,,,,,,,,,,,,,,,,,,,,,,,,,,,,,,,,,,,,,,,,,,,,,water,bucket,0,0,0,0,1,,,,,,,,,,,,,,,,,,,,,,,,,,,,,,,
,,,,,,,,,,,,,,,88915,001,2022-04-29_15h01.54.851,SPAMnetsValid,2021.1.4,MacIntel,60.0024001,,,,,,,,,,,,,,,,,,,,,,,,,,,,,,,,,,,,,,,,,,,,,,,,,,,,sand,bucket,1,0,1,0,1,,,,,,,,,,,,,,,,,,,,,,,,,,,,,,,
,,,,,,,,,,,,,,,88915,001,2022-04-29_15h01.54.851,SPAMnetsValid,2021.1.4,MacIntel,60.0024001,,,,,,,,,,,,,,,,,,,,,,,,,,,,,,,,,,,,,,,,,,,,,,,,,,,,ice,bucket,2,0,2,0,1,,,,,,,,,,,,,,,,,,,,,,,,,,,,,,,
,,,,,,,,,,,,,,,88915,001,2022-04-29_15h01.54.851,SPAMnetsValid,2021.1.4,MacIntel,60.0024001,,,,,,,,,,,,,,,,,,,,,,,,,,,,,,,,,,,,,,,,,,,,,,,,,,,,hat,bucket,3,0,3,0,1,,,,,,,,,,,,,,,,,,,,,,,,,,,,,,,
,,,,,,,,,,,,,,,88915,001,2022-04-29_15h01.54.851,SPAMnetsValid,2021.1.4,MacIntel,60.0024001,,,,,,,,,,,,,,,,,,,,,,,,,,,,,,,,,,,,,,,,,,,,,,,,,,,,,,,,,,,0,0,0,0,1,bucket,,,,,,,,,,,,,,,,,,,,,,,,,
,,,,,,,,,,,,,,,88915,001,2022-04-29_15h01.54.851,SPAMnetsValid,2021.1.4,MacIntel,60.0024001,,,,,,,,,,,,,,,,,,,,,,,,,,,,,,,,,,,,,,,,,,,,,,,,,,,,sleep,pillow,0,0,0,0,1,,,,,,,,,,,,,,,,,,,,,,,,,,,,,,,
,,,,,,,,,,,,,,,88915,001,2022-04-29_15h01.54.851,SPAMnetsValid,2021.1.4,MacIntel,60.0024001,,,,,,,,,,,,,,,,,,,,,,,,,,,,,,,,,,,,,,,,,,,,,,,,,,,,fights,pillow,1,0,1,0,1,,,,,,,,,,,,,,,,,,,,,,,,,,,,,,,
,,,,,,,,,,,,,,,88915,001,2022-04-29_15h01.54.851,SPAMnetsValid,2021.1.4,MacIntel,60.0024001,,,,,,,,,,,,,,,,,,,,,,,,,,,,,,,,,,,,,,,,,,,,,,,,,,,,halloween,pillow,2,0,2,0,1,,,,,,,,,,,,,,,,,,,,,,,,,,,,,,,
,,,,,,,,,,,,,,,88915,001,2022-04-29_15h01.54.851,SPAMnetsValid,2021.1.4,MacIntel,60.0024001,,,,,,,,,,,,,,,,,,,,,,,,,,,,,,,,,,,,,,,,,,,,,,,,,,,,bag,pillow,3,0,3,0,1,,,,,,,,,,,,,,,,,,,,,,,,,,,,,,,
,,,,,,,,,,,,,,,88915,001,2022-04-29_15h01.54.851,SPAMnetsValid,2021.1.4,MacIntel,60.0024001,,,,,,,,,,,,,,,,,,,,,,,,,,,,,,,,,,,,,,,,,,,,,,,,,,,,,,,,,,,0,1,1,2,1,pillow,,,,,,,,,,,,,,,,,,,,,,,,,
,,,,,,,,,,,,,,,88915,001,2022-04-29_15h01.54.851,SPAMnetsValid,2021.1.4,MacIntel,60.0024001,,,,,,,,,,,,,,,,,,,,,,,,,,,,,,,,,,,,,,,,,,,,,,,,,,,,smell,candle,0,0,0,0,1,,,,,,,,,,,,,,,,,,,,,,,,,,,,,,,
,,,,,,,,,,,,,,,88915,001,2022-04-29_15h01.54.851,SPAMnetsValid,2021.1.4,MacIntel,60.0024001,,,,,,,,,,,,,,,,,,,,,,,,,,,,,,,,,,,,,,,,,,,,,,,,,,,,decoration,candle,1,0,1,0,1,,,,,,,,,,,,,,,,,,,,,,,,,,,,,,,
,,,,,,,,,,,,,,,88915,001,2022-04-29_15h01.54.851,SPAMnetsValid,2021.1.4,MacIntel,60.0024001,,,,,,,,,,,,,,,,,,,,,,,,,,,,,,,,,,,,,,,,,,,,,,,,,,,,religion,candle,2,0,2,0,1,,,,,,,,,,,,,,,,,,,,,,,,,,,,,,,
,,,,,,,,,,,,,,,88915,001,2022-04-29_15h01.54.851,SPAMnetsValid,2021.1.4,MacIntel,60.0024001,,,,,,,,,,,,,,,,,,,,,,,,,,,,,,,,,,,,,,,,,,,,,,,,,,,,,,,,,,,0,2,2,1,1,candle,,,,,,,,,,,,,,,,,,,,,,,,,
,,,,,,,,,,,,,,,88915,001,2022-04-29_15h01.54.851,SPAMnetsValid,2021.1.4,MacIntel,60.0024001,,,,,,,,,,,,,,,,,,,,,,,,,,,,,,,,,,,,,,,,,,,,,,,,,,,,,,,,,,,,,,,,,dog,Animals,0,0,0,0,1,,,,,,,,,,,,,,,,,,
,,,,,,,,,,,,,,,88915,001,2022-04-29_15h01.54.851,SPAMnetsValid,2021.1.4,MacIntel,60.0024001,,,,,,,,,,,,,,,,,,,,,,,,,,,,,,,,,,,,,,,,,,,,,,,,,,,,,,,,,,,,,,,,,cat,Animals,1,0,1,0,1,,,,,,,,,,,,,,,,,,
,,,,,,,,,,,,,,,88915,001,2022-04-29_15h01.54.851,SPAMnetsValid,2021.1.4,MacIntel,60.0024001,,,,,,,,,,,,,,,,,,,,,,,,,,,,,,,,,,,,,,,,,,,,,,,,,,,,,,,,,,,,,,,,,elephant,Animals,2,0,2,0,1,,,,,,,,,,,,,,,,,,
,,,,,,,,,,,,,,,88915,001,2022-04-29_15h01.54.851,SPAMnetsValid,2021.1.4,MacIntel,60.0024001,,,,,,,,,,,,,,,,,,,,,,,,,,,,,,,,,,,,,,,,,,,,,,,,,,,,,,,,,,,,,,,,,lion,Animals,3,0,3,0,1,,,,,,,,,,,,,,,,,,
,,,,,,,,,,,,,,,88915,001,2022-04-29_15h01.54.851,SPAMnetsValid,2021.1.4,MacIntel,60.0024001,,,,,,,,,,,,,,,,,,,,,,,,,,,,,,,,,,,,,,,,,,,,,,,,,,,,,,,,,,,,,,,,,bunny,Animals,4,0,4,0,1,,,,,,,,,,,,,,,,,,
,,,,,,,,,,,,,,,88915,001,2022-04-29_15h01.54.851,SPAMnetsValid,2021.1.4,MacIntel,60.0024001,,,,,,,,,,,,,,,,,,,,,,,,,,,,,,,,,,,,,,,,,,,,,,,,,,,,,,,,,,,,,,,,,skunk,Animals,5,0,5,0,1,,,,,,,,,,,,,,,,,,
,,,,,,,,,,,,,,,88915,001,2022-04-29_15h01.54.851,SPAMnetsValid,2021.1.4,MacIntel,60.0024001,,,,,,,,,,,,,,,,,,,,,,,,,,,,,,,,,,,,,,,,,,,,,,,,,,,,,,,,,,,,,,,,,hamster,Animals,6,0,6,0,1,,,,,,,,,,,,,,,,,,
,,,,,,,,,,,,,,,88915,001,2022-04-29_15h01.54.851,SPAMnetsValid,2021.1.4,MacIntel,60.0024001,,,,,,,,,,,,,,,,,,,,,,,,,,,,,,,,,,,,,,,,,,,,,,,,,,,,,,,,,,,,,,,,,ferret,Animals,7,0,7,0,1,,,,,,,,,,,,,,,,,,
,,,,,,,,,,,,,,,88915,001,2022-04-29_15h01.54.851,SPAMnetsValid,2021.1.4,MacIntel,60.0024001,,,,,,,,,,,,,,,,,,,,,,,,,,,,,,,,,,,,,,,,,,,,,,,,,,,,,,,,,,,,,,,,,rat,Animals,8,0,8,0,1,,,,,,,,,,,,,,,,,,
,,,,,,,,,,,,,,,88915,001,2022-04-29_15h01.54.851,SPAMnetsValid,2021.1.4,MacIntel,60.0024001,,,,,,,,,,,,,,,,,,,,,,,,,,,,,,,,,,,,,,,,,,,,,,,,,,,,,,,,,,,,,,,,,bat,Animals,9,0,9,0,1,,,,,,,,,,,,,,,,,,
,,,,,,,,,,,,,,,88915,001,2022-04-29_15h01.54.851,SPAMnetsValid,2021.1.4,MacIntel,60.0024001,,,,,,,,,,,,,,,,,,,,,,,,,,,,,,,,,,,,,,,,,,,,,,,,,,,,,,,,,,,,,,,,,tiger,Animals,10,0,10,0,1,,,,,,,,,,,,,,,,,,
,,,,,,,,,,,,,,,88915,001,2022-04-29_15h01.54.851,SPAMnetsValid,2021.1.4,MacIntel,60.0024001,,,,,,,,,,,,,,,,,,,,,,,,,,,,,,,,,,,,,,,,,,,,,,,,,,,,,,,,,,,,,,,,,bear,Animals,11,0,11,0,1,,,,,,,,,,,,,,,,,,
,,,,,,,,,,,,,,,88915,001,2022-04-29_15h01.54.851,SPAMnetsValid,2021.1.4,MacIntel,60.0024001,,,,,,,,,,,,,,,,,,,,,,,,,,,,,,,,,,,,,,,,,,,,,,,,,,,,,,,,,,,,,,,,,hippo,Animals,12,0,12,0,1,,,,,,,,,,,,,,,,,,
,,,,,,,,,,,,,,,88915,001,2022-04-29_15h01.54.851,SPAMnetsValid,2021.1.4,MacIntel,60.0024001,,,,,,,,,,,,,,,,,,,,,,,,,,,,,,,,,,,,,,,,,,,,,,,,,,,,,,,,,,,,,,,,,goldfish,Animals,13,0,13,0,1,,,,,,,,,,,,,,,,,,
,,,,,,,,,,,,,,,88915,001,2022-04-29_15h01.54.851,SPAMnetsValid,2021.1.4,MacIntel,60.0024001,,,,,,,,,,,,,,,,,,,,,,,,,,,,,,,,,,,,,,,,,,,,,,,,,,,,,,,,,,,,,,,,,otter,Animals,14,0,14,0,1,,,,,,,,,,,,,,,,,,
,,,,,,,,,,,,,,,88915,001,2022-04-29_15h01.54.851,SPAMnetsValid,2021.1.4,MacIntel,60.0024001,,,,,,,,,,,,,,,,,,,,,,,,,,,,,,,,,,,,,,,,,,,,,,,,,,,,,,,,,,,,,,,,,sea lion,Animals,15,0,15,0,1,,,,,,,,,,,,,,,,,,
,,,,,,,,,,,,,,,88915,001,2022-04-29_15h01.54.851,SPAMnetsValid,2021.1.4,MacIntel,60.0024001,,,,,,,,,,,,,,,,,,,,,,,,,,,,,,,,,,,,,,,,,,,,,,,,,,,,,,,,,,,,,,,,,sea horse,Animals,16,0,16,0,1,,,,,,,,,,,,,,,,,,
,,,,,,,,,,,,,,,88915,001,2022-04-29_15h01.54.851,SPAMnetsValid,2021.1.4,MacIntel,60.0024001,,,,,,,,,,,,,,,,,,,,,,,,,,,,,,,,,,,,,,,,,,,,,,,,,,,,,,,,,,,,,,,,,horse,Animals,17,0,17,0,1,,,,,,,,,,,,,,,,,,
,,,,,,,,,,,,,,,88915,001,2022-04-29_15h01.54.851,SPAMnetsValid,2021.1.4,MacIntel,60.0024001,,,,,,,,,,,,,,,,,,,,,,,,,,,,,,,,,,,,,,,,,,,,,,,,,,,,,,,,,,,,,,,,,donkey,Animals,18,0,18,0,1,,,,,,,,,,,,,,,,,,
,,,,,,,,,,,,,,,88915,001,2022-04-29_15h01.54.851,SPAMnetsValid,2021.1.4,MacIntel,60.0024001,,,,,,,,,,,,,,,,,,,,,,,,,,,,,,,,,,,,,,,,,,,,,,,,,,,,,,,,,,,,,,,,,gerbil,Animals,19,0,19,0,1,,,,,,,,,,,,,,,,,,
,,,,,,,,,,,,,,,88915,001,2022-04-29_15h01.54.851,SPAMnetsValid,2021.1.4,MacIntel,60.0024001,,,,,,,,,,,,,,,,,,,,,,,,,,,,,,,,,,,,,,,,,,,,,,,,,,,,,,,,,,,,,,,,,fox,Animals,20,0,20,0,1,,,,,,,,,,,,,,,,,,
,,,,,,,,,,,,,,,88915,001,2022-04-29_15h01.54.851,SPAMnetsValid,2021.1.4,MacIntel,60.0024001,,,,,,,,,,,,,,,,,,,,,,,,,,,,,,,,,,,,,,,,,,,,,,,,,,,,,,,,,,,,,,,,,wolf,Animals,21,0,21,0,1,,,,,,,,,,,,,,,,,,
,,,,,,,,,,,,,,,88915,001,2022-04-29_15h01.54.851,SPAMnetsValid,2021.1.4,MacIntel,60.0024001,,,,,,,,,,,,,,,,,,,,,,,,,,,,,,,,,,,,,,,,,,,,,,,,,,,,,,,,,,,,,,,,,panther,Animals,22,0,22,0,1,,,,,,,,,,,,,,,,,,
,,,,,,,,,,,,,,,88915,001,2022-04-29_15h01.54.851,SPAMnetsValid,2021.1.4,MacIntel,60.0024001,,,,,,,,,,,,,,,,,,,,,,,,,,,,,,,,,,,,,,,,,,,,,,,,,,,,,,,,,,,,,,,,,jaguar,Animals,23,0,23,0,1,,,,,,,,,,,,,,,,,,
,,,,,,,,,,,,,,,88915,001,2022-04-29_15h01.54.851,SPAMnetsValid,2021.1.4,MacIntel,60.0024001,,,,,,,,,,,,,,,,,,,,,,,,,,,,,,,,,,,,,,,,,,,,,,,,,,,,,,,,,,,,,,,,,zebra,Animals,24,0,24,0,1,,,,,,,,,,,,,,,,,,
,,,,,,,,,,,,,,,88915,001,2022-04-29_15h01.54.851,SPAMnetsValid,2021.1.4,MacIntel,60.0024001,,,,,,,,,,,,,,,,,,,,,,,,,,,,,,,,,,,,,,,,,,,,,,,,,,,,,,,,,,,,,,,,,gazelle,Animals,25,0,25,0,1,,,,,,,,,,,,,,,,,,
,,,,,,,,,,,,,,,88915,001,2022-04-29_15h01.54.851,SPAMnetsValid,2021.1.4,MacIntel,60.0024001,,,,,,,,,,,,,,,,,,,,,,,,,,,,,,,,,,,,,,,,,,,,,,,,,,,,,,,,,,,,,,,,,deer,Animals,26,0,26,0,1,,,,,,,,,,,,,,,,,,
,,,,,,,,,,,,,,,88915,001,2022-04-29_15h01.54.851,SPAMnetsValid,2021.1.4,MacIntel,60.0024001,,,,,,,,,,,,,,,,,,,,,,,,,,,,,,,,,,,,,,,,,,,,,,,,,,,,,,,,,,,,,,,,,moose,Animals,27,0,27,0,1,,,,,,,,,,,,,,,,,,
,,,,,,,,,,,,,,,88915,001,2022-04-29_15h01.54.851,SPAMnetsValid,2021.1.4,MacIntel,60.0024001,,,,,,,,,,,,,,,,,,,,,,,,,,,,,,,,,,,,,,,,,,,,,,,,,,,,,,,,,,,,,,,,,turtle,Animals,28,0,28,0,1,,,,,,,,,,,,,,,,,,
,,,,,,,,,,,,,,,88915,001,2022-04-29_15h01.54.851,SPAMnetsValid,2021.1.4,MacIntel,60.0024001,,,,,,,,,,,,,,,,,,,,,,,,,,,,,,,,,,,,,,,,,,,,,,,,,,,,,,,,,,,,,,,,,alligator,Animals,29,0,29,0,1,,,,,,,,,,,,,,,,,,
,,,,,,,,,,,,,,,88915,001,2022-04-29_15h01.54.851,SPAMnetsValid,2021.1.4,MacIntel,60.0024001,,,,,,,,,,,,,,,,,,,,,,,,,,,,,,,,,,,,,,,,,,,,,,,,,,,,,,,,,,,,,,,,,crocodile,Animals,30,0,30,0,1,,,,,,,,,,,,,,,,,,
,,,,,,,,,,,,,,,88915,001,2022-04-29_15h01.54.851,SPAMnetsValid,2021.1.4,MacIntel,60.0024001,,,,,,,,,,,,,,,,,,,,,,,,,,,,,,,,,,,,,,,,,,,,,,,,,,,,,,,,,,,,,,,,,dolphin,Animals,31,0,31,0,1,,,,,,,,,,,,,,,,,,
,,,,,,,,,,,,,,,88915,001,2022-04-29_15h01.54.851,SPAMnetsValid,2021.1.4,MacIntel,60.0024001,,,,,,,,,,,,,,,,,,,,,,,,,,,,,,,,,,,,,,,,,,,,,,,,,,,,,,,,,,,,,,,,,eel,Animals,32,0,32,0,1,,,,,,,,,,,,,,,,,,
,,,,,,,,,,,,,,,88915,001,2022-04-29_15h01.54.851,SPAMnetsValid,2021.1.4,MacIntel,60.0024001,,,,,,,,,,,,,,,,,,,,,,,,,,,,,,,,,,,,,,,,,,,,,,,,,,,,,,,,,,,,,,,,,snake,Animals,33,0,33,0,1,,,,,,,,,,,,,,,,,,
,,,,,,,,,,,,,,,88915,001,2022-04-29_15h01.54.851,SPAMnetsValid,2021.1.4,MacIntel,60.0024001,,,,,,,,,,,,,,,,,,,,,,,,,,,,,,,,,,,,,,,,,,,,,,,,,,,,,,,,,,,,,,,,,lizard,Animals,34,0,34,0,1,,,,,,,,,,,,,,,,,,
,,,,,,,,,,,,,,,88915,001,2022-04-29_15h01.54.851,SPAMnetsValid,2021.1.4,MacIntel,60.0024001,,,,,,,,,,,,,,,,,,,,,,,,,,,,,,,,,,,,,,,,,,,,,,,,,,,,,,,,,,,,,,,,,iguana,Animals,35,0,35,0,1,,,,,,,,,,,,,,,,,,
,,,,,,,,,,,,,,,88915,001,2022-04-29_15h01.54.851,SPAMnetsValid,2021.1.4,MacIntel,60.0024001,,,,,,,,,,,,,,,,,,,,,,,,,,,,,,,,,,,,,,,,,,,,,,,,,,,,,,,,,,,,,,,,,monkey,Animals,36,0,36,0,1,,,,,,,,,,,,,,,,,,
,,,,,,,,,,,,,,,88915,001,2022-04-29_15h01.54.851,SPAMnetsValid,2021.1.4,MacIntel,60.0024001,,,,,,,,,,,,,,,,,,,,,,,,,,,,,,,,,,,,,,,,,,,,,,,,,,,,,,,,,,,,,,,,,gorilla,Animals,37,0,37,0,1,,,,,,,,,,,,,,,,,,
,,,,,,,,,,,,,,,88915,001,2022-04-29_15h01.54.851,SPAMnetsValid,2021.1.4,MacIntel,60.0024001,,,,,,,,,,,,,,,,,,,,,,,,,,,,,,,,,,,,,,,,,,,,,,,,,,,,,,,,,,,,,,,,,,,,,,,,0,0,0,0,1,Animals,,,,,,,,,,,,
,,,,,,,,,,,,,,,88915,001,2022-04-29_15h01.54.851,SPAMnetsValid,2021.1.4,MacIntel,60.0024001,,,,,,,,,,,,,,,,,,,,,,,,,,,,,,,,,,,,,,,,,,,,,,,,,,,,,,,,,,,,,,,,,,,,,,,,,,,,,,5,4.2653,0,0,0,0,1,"I enjoy concentrating on a fantasy or daydream and exploring all its possibilities, letting it grow and develop.",0,1,,
,,,,,,,,,,,,,,,88915,001,2022-04-29_15h01.54.851,SPAMnetsValid,2021.1.4,MacIntel,60.0024001,,,,,,,,,,,,,,,,,,,,,,,,,,,,,,,,,,,,,,,,,,,,,,,,,,,,,,,,,,,,,,,,,,,,,,,,,,,,,,5,1.7144,0,1,1,1,1,I think it's interesting to learn and develop new hobbies.,0,2,,
,,,,,,,,,,,,,,,88915,001,2022-04-29_15h01.54.851,SPAMnetsValid,2021.1.4,MacIntel,60.0024001,,,,,,,,,,,,,,,,,,,,,,,,,,,,,,,,,,,,,,,,,,,,,,,,,,,,,,,,,,,,,,,,,,,,,,,,,,,,,,5,1.6825,0,2,2,2,1,I am intrigued by the patterns I find in art and nature.,0,3,,
,,,,,,,,,,,,,,,88915,001,2022-04-29_15h01.54.851,SPAMnetsValid,2021.1.4,MacIntel,60.0024001,,,,,,,,,,,,,,,,,,,,,,,,,,,,,,,,,,,,,,,,,,,,,,,,,,,,,,,,,,,,,,,,,,,,,,,,,,,,,,1,3.7287,0,3,3,3,1,I believe letting students hear controversial speakers can only confuse and mislead them.,1,4,,
,,,,,,,,,,,,,,,88915,001,2022-04-29_15h01.54.851,SPAMnetsValid,2021.1.4,MacIntel,60.0024001,,,,,,,,,,,,,,,,,,,,,,,,,,,,,,,,,,,,,,,,,,,,,,,,,,,,,,,,,,,,,,,,,,,,,,,,,,,,,,3,2.8466,0,4,4,4,1,Poetry has little or no effect on me.,1,5,,
,,,,,,,,,,,,,,,88915,001,2022-04-29_15h01.54.851,SPAMnetsValid,2021.1.4,MacIntel,60.0024001,,,,,,,,,,,,,,,,,,,,,,,,,,,,,,,,,,,,,,,,,,,,,,,,,,,,,,,,,,,,,,,,,,,,,,,,,,,,,,4,5.6964,0,5,5,5,1,I would have difficulty just letting my mind wander without control or guidance.,1,6,,
,,,,,,,,,,,,,,,88915,001,2022-04-29_15h01.54.851,SPAMnetsValid,2021.1.4,MacIntel,60.0024001,,,,,,,,,,,,,,,,,,,,,,,,,,,,,,,,,,,,,,,,,,,,,,,,,,,,,,,,,,,,,,,,,,,,,,,,,,,,,,1,4.6135,0,6,6,6,1,I seldom notice the moods or feelings that different environments produce.,1,7,,
,,,,,,,,,,,,,,,88915,001,2022-04-29_15h01.54.851,SPAMnetsValid,2021.1.4,MacIntel,60.0024001,,,,,,,,,,,,,,,,,,,,,,,,,,,,,,,,,,,,,,,,,,,,,,,,,,,,,,,,,,,,,,,,,,,,,,,,,,,,,,5,1.6816,0,7,7,7,1,I experience a wide range of emotions or feelings.,0,8,,
,,,,,,,,,,,,,,,88915,001,2022-04-29_15h01.54.851,SPAMnetsValid,2021.1.4,MacIntel,60.0024001,,,,,,,,,,,,,,,,,,,,,,,,,,,,,,,,,,,,,,,,,,,,,,,,,,,,,,,,,,,,,,,,,,,,,,,,,,,,,,5,8.0811,0,8,8,8,1,"Sometimes when I am reading poetry or looking at a work of art, I feel a chill or wave of excitement.",0,9,,
,,,,,,,,,,,,,,,88915,001,2022-04-29_15h01.54.851,SPAMnetsValid,2021.1.4,MacIntel,60.0024001,,,,,,,,,,,,,,,,,,,,,,,,,,,,,,,,,,,,,,,,,,,,,,,,,,,,,,,,,,,,,,,,,,,,,,,,,,,,,,1,3.798,0,9,9,9,1,I have little interest in speculating on the nature of the universe or the human condition.,1,10,,
,,,,,,,,,,,,,,,88915,001,2022-04-29_15h01.54.851,SPAMnetsValid,2021.1.4,MacIntel,60.0024001,,,,,,,,,,,,,,,,,,,,,,,,,,,,,,,,,,,,,,,,,,,,,,,,,,,,,,,,,,,,,,,,,,,,,,,,,,,,,,5,1.8303,0,10,10,10,1,I have a lot of intellectual curiosity.,0,11,,
,,,,,,,,,,,,,,,88915,001,2022-04-29_15h01.54.851,SPAMnetsValid,2021.1.4,MacIntel,60.0024001,,,,,,,,,,,,,,,,,,,,,,,,,,,,,,,,,,,,,,,,,,,,,,,,,,,,,,,,,,,,,,,,,,,,,,,,,,,,,,5,1.4814,0,11,11,11,1,I often enjoy playing with theories or abstract ideas.,0,12,,
,,,,,,,,,,,,,,,88915,001,2022-04-29_15h01.54.851,SPAMnetsValid,2021.1.4,MacIntel,60.0024001,,,,,,,,,,,,,,,,,,,,,,,,,,,,,,,,,,,,,,,,,,,,,,,,,,,,,,,,,,,,,,,,,,,,,,,,,,,,,,,,,,,,,,,,return,4.9458
