key_resp_3.keys,key_resp_3.rt,slider_2.response,slider_2.rt,rjt_rating,rjt_RT,trials_24.thisRepN,trials_24.thisTrialN,trials_24.thisN,trials_24.thisIndex,trials_24.ran,rjt_order,word1,word2,attention,participant,session,date,expName,psychopyVersion,OS,frameRate,trials_4.thisRepN,trials_4.thisTrialN,trials_4.thisN,trials_4.thisIndex,trials_4.ran,trials_5.thisRepN,trials_5.thisTrialN,trials_5.thisN,trials_5.thisIndex,trials_5.ran,repOne,repTwo,slider.response,slider.rt,trials_22.thisRepN,trials_22.thisTrialN,trials_22.thisN,trials_22.thisIndex,trials_22.ran,trials_99.thisRepN,trials_99.thisTrialN,trials_99.thisN,trials_99.thisIndex,trials_99.ran,slider_extend_2.response,slider_extend_2.rt,trials_6.thisRepN,trials_6.thisTrialN,trials_6.thisN,trials_6.thisIndex,trials_6.ran,vCue2,R1,R2,R3,R4,correct,sliderVocab.response,sliderVocab.rt,trials_7.thisRepN,trials_7.thisTrialN,trials_7.thisN,trials_7.thisIndex,trials_7.ran,VocabCue,VR1,VR2,VR3,VR4,VR5,VocabCorrect,AUT_resp,AUT_label,trials.thisRepN,trials.thisTrialN,trials.thisN,trials.thisIndex,trials.ran,trials_2.thisRepN,trials_2.thisTrialN,trials_2.thisN,trials_2.thisIndex,trials_2.ran,aut_prompt,VF_response,VF_tag,trials_16.thisRepN,trials_16.thisTrialN,trials_16.thisN,trials_16.thisIndex,trials_16.ran,trials_17.thisRepN,trials_17.thisTrialN,trials_17.thisN,trials_17.thisIndex,trials_17.ran,VFcond,open_slider.response,open_slider.rt,trials_3.thisRepN,trials_3.thisTrialN,trials_3.thisN,trials_3.thisIndex,trials_3.ran,OpenQ,Rev,OPEN_ORDER,key_resp_2.keys,key_resp_2.rt
return,2.3311,1,3.1472,1,3.1472,0,0,0,46,1,123,cookie,tree,,88924,001,2022-04-24_16h29.56.021,SPAMnetsValid,2021.1.4,Win32,60.06006006,,,,,,,,,,,,,,,,,,,,,,,,,,,,,,,,,,,,,,,,,,,,,,,,,,,,,,,,,,,,,,,,,,,,,,,,,,,,,,,,,,,,,,,,,
,,1,1.6514,1,1.6514,0,1,1,58,1,144,cake,garden,,88924,001,2022-04-24_16h29.56.021,SPAMnetsValid,2021.1.4,Win32,60.06006006,,,,,,,,,,,,,,,,,,,,,,,,,,,,,,,,,,,,,,,,,,,,,,,,,,,,,,,,,,,,,,,,,,,,,,,,,,,,,,,,,,,,,,,,,
,,2,1.5916,2,1.5916,0,2,2,32,1,182,flower,refrigerator,,88924,001,2022-04-24_16h29.56.021,SPAMnetsValid,2021.1.4,Win32,60.06006006,,,,,,,,,,,,,,,,,,,,,,,,,,,,,,,,,,,,,,,,,,,,,,,,,,,,,,,,,,,,,,,,,,,,,,,,,,,,,,,,,,,,,,,,,
,,1,1.5358,1,1.5358,0,3,3,3,1,129,cactus,refrigerator,,88924,001,2022-04-24_16h29.56.021,SPAMnetsValid,2021.1.4,Win32,60.06006006,,,,,,,,,,,,,,,,,,,,,,,,,,,,,,,,,,,,,,,,,,,,,,,,,,,,,,,,,,,,,,,,,,,,,,,,,,,,,,,,,,,,,,,,,
,,2,1.6275,2,1.6275,0,4,4,40,1,165,onion,rose,,88924,001,2022-04-24_16h29.56.021,SPAMnetsValid,2021.1.4,Win32,60.06006006,,,,,,,,,,,,,,,,,,,,,,,,,,,,,,,,,,,,,,,,,,,,,,,,,,,,,,,,,,,,,,,,,,,,,,,,,,,,,,,,,,,,,,,,,
,,5,2.1598,5,2.1598,0,5,5,85,1,115,refrigerator,tomato,,88924,001,2022-04-24_16h29.56.021,SPAMnetsValid,2021.1.4,Win32,60.06006006,,,,,,,,,,,,,,,,,,,,,,,,,,,,,,,,,,,,,,,,,,,,,,,,,,,,,,,,,,,,,,,,,,,,,,,,,,,,,,,,,,,,,,,,,
,,2,1.8264,2,1.8264,0,6,6,81,1,104,garden,microwave,,88924,001,2022-04-24_16h29.56.021,SPAMnetsValid,2021.1.4,Win32,60.06006006,,,,,,,,,,,,,,,,,,,,,,,,,,,,,,,,,,,,,,,,,,,,,,,,,,,,,,,,,,,,,,,,,,,,,,,,,,,,,,,,,,,,,,,,,
,,1,1.3925,1,1.3925,0,7,7,13,1,105,cactus,oven,,88924,001,2022-04-24_16h29.56.021,SPAMnetsValid,2021.1.4,Win32,60.06006006,,,,,,,,,,,,,,,,,,,,,,,,,,,,,,,,,,,,,,,,,,,,,,,,,,,,,,,,,,,,,,,,,,,,,,,,,,,,,,,,,,,,,,,,,
,,6,2.3094,6,2.3094,0,8,8,36,1,161,kitchen,pretzel,,88924,001,2022-04-24_16h29.56.021,SPAMnetsValid,2021.1.4,Win32,60.06006006,,,,,,,,,,,,,,,,,,,,,,,,,,,,,,,,,,,,,,,,,,,,,,,,,,,,,,,,,,,,,,,,,,,,,,,,,,,,,,,,,,,,,,,,,
,,9,1.9735,9,1.9735,0,9,9,69,1,124,oven,refrigerator,,88924,001,2022-04-24_16h29.56.021,SPAMnetsValid,2021.1.4,Win32,60.06006006,,,,,,,,,,,,,,,,,,,,,,,,,,,,,,,,,,,,,,,,,,,,,,,,,,,,,,,,,,,,,,,,,,,,,,,,,,,,,,,,,,,,,,,,,
,,5,1.877,5,1.877,0,10,10,37,1,139,carrot,strawberry,,88924,001,2022-04-24_16h29.56.021,SPAMnetsValid,2021.1.4,Win32,60.06006006,,,,,,,,,,,,,,,,,,,,,,,,,,,,,,,,,,,,,,,,,,,,,,,,,,,,,,,,,,,,,,,,,,,,,,,,,,,,,,,,,,,,,,,,,
,,9,7.7586,9,7.7586,0,11,11,53,1,177,chocolate,strawberry,,88924,001,2022-04-24_16h29.56.021,SPAMnetsValid,2021.1.4,Win32,60.06006006,,,,,,,,,,,,,,,,,,,,,,,,,,,,,,,,,,,,,,,,,,,,,,,,,,,,,,,,,,,,,,,,,,,,,,,,,,,,,,,,,,,,,,,,,
,,6,4.606,6,4.606,0,12,12,89,1,140,cookie,refrigerator,,88924,001,2022-04-24_16h29.56.021,SPAMnetsValid,2021.1.4,Win32,60.06006006,,,,,,,,,,,,,,,,,,,,,,,,,,,,,,,,,,,,,,,,,,,,,,,,,,,,,,,,,,,,,,,,,,,,,,,,,,,,,,,,,,,,,,,,,
,,1,2.1768,1,2.1768,0,13,13,71,1,187,cactus,microwave,,88924,001,2022-04-24_16h29.56.021,SPAMnetsValid,2021.1.4,Win32,60.06006006,,,,,,,,,,,,,,,,,,,,,,,,,,,,,,,,,,,,,,,,,,,,,,,,,,,,,,,,,,,,,,,,,,,,,,,,,,,,,,,,,,,,,,,,,
,,2,1.5505,2,1.5505,0,14,14,90,1,190,microwave,strawberry,,88924,001,2022-04-24_16h29.56.021,SPAMnetsValid,2021.1.4,Win32,60.06006006,,,,,,,,,,,,,,,,,,,,,,,,,,,,,,,,,,,,,,,,,,,,,,,,,,,,,,,,,,,,,,,,,,,,,,,,,,,,,,,,,,,,,,,,,
,,8,2.0594,8,2.0594,0,15,15,8,1,97,chocolate,kitchen,,88924,001,2022-04-24_16h29.56.021,SPAMnetsValid,2021.1.4,Win32,60.06006006,,,,,,,,,,,,,,,,,,,,,,,,,,,,,,,,,,,,,,,,,,,,,,,,,,,,,,,,,,,,,,,,,,,,,,,,,,,,,,,,,,,,,,,,,
,,1,2.0079,1,2.0079,0,16,16,75,1,178,cactus,carrot,,88924,001,2022-04-24_16h29.56.021,SPAMnetsValid,2021.1.4,Win32,60.06006006,,,,,,,,,,,,,,,,,,,,,,,,,,,,,,,,,,,,,,,,,,,,,,,,,,,,,,,,,,,,,,,,,,,,,,,,,,,,,,,,,,,,,,,,,
,,2,2.0601,2,2.0601,0,17,17,41,1,175,melon,onion,,88924,001,2022-04-24_16h29.56.021,SPAMnetsValid,2021.1.4,Win32,60.06006006,,,,,,,,,,,,,,,,,,,,,,,,,,,,,,,,,,,,,,,,,,,,,,,,,,,,,,,,,,,,,,,,,,,,,,,,,,,,,,,,,,,,,,,,,
,,3,1.7102,3,1.7102,0,18,18,2,1,174,cake,pretzel,,88924,001,2022-04-24_16h29.56.021,SPAMnetsValid,2021.1.4,Win32,60.06006006,,,,,,,,,,,,,,,,,,,,,,,,,,,,,,,,,,,,,,,,,,,,,,,,,,,,,,,,,,,,,,,,,,,,,,,,,,,,,,,,,,,,,,,,,
,,1,6.5561,1,6.5561,0,19,19,95,1,121,broom,microwave,,88924,001,2022-04-24_16h29.56.021,SPAMnetsValid,2021.1.4,Win32,60.06006006,,,,,,,,,,,,,,,,,,,,,,,,,,,,,,,,,,,,,,,,,,,,,,,,,,,,,,,,,,,,,,,,,,,,,,,,,,,,,,,,,,,,,,,,,
,,2,1.4253,2,1.4253,0,20,20,57,1,127,cactus,chocolate,,88924,001,2022-04-24_16h29.56.021,SPAMnetsValid,2021.1.4,Win32,60.06006006,,,,,,,,,,,,,,,,,,,,,,,,,,,,,,,,,,,,,,,,,,,,,,,,,,,,,,,,,,,,,,,,,,,,,,,,,,,,,,,,,,,,,,,,,
,,4,3.1441,4,3.1441,0,21,21,79,1,103,pretzel,tomato,,88924,001,2022-04-24_16h29.56.021,SPAMnetsValid,2021.1.4,Win32,60.06006006,,,,,,,,,,,,,,,,,,,,,,,,,,,,,,,,,,,,,,,,,,,,,,,,,,,,,,,,,,,,,,,,,,,,,,,,,,,,,,,,,,,,,,,,,
,,1,1.6282,1,1.6282,0,22,22,12,1,162,microwave,tomato,,88924,001,2022-04-24_16h29.56.021,SPAMnetsValid,2021.1.4,Win32,60.06006006,,,,,,,,,,,,,,,,,,,,,,,,,,,,,,,,,,,,,,,,,,,,,,,,,,,,,,,,,,,,,,,,,,,,,,,,,,,,,,,,,,,,,,,,,
,,6,2.3426,6,2.3426,0,23,23,11,1,117,melon,strawberry,,88924,001,2022-04-24_16h29.56.021,SPAMnetsValid,2021.1.4,Win32,60.06006006,,,,,,,,,,,,,,,,,,,,,,,,,,,,,,,,,,,,,,,,,,,,,,,,,,,,,,,,,,,,,,,,,,,,,,,,,,,,,,,,,,,,,,,,,
,,8,3.4504,8,3.4504,0,24,24,83,1,100,garden,tomato,,88924,001,2022-04-24_16h29.56.021,SPAMnetsValid,2021.1.4,Win32,60.06006006,,,,,,,,,,,,,,,,,,,,,,,,,,,,,,,,,,,,,,,,,,,,,,,,,,,,,,,,,,,,,,,,,,,,,,,,,,,,,,,,,,,,,,,,,
,,2,3.8511,2,3.8511,0,25,25,30,1,125,carrot,tree,,88924,001,2022-04-24_16h29.56.021,SPAMnetsValid,2021.1.4,Win32,60.06006006,,,,,,,,,,,,,,,,,,,,,,,,,,,,,,,,,,,,,,,,,,,,,,,,,,,,,,,,,,,,,,,,,,,,,,,,,,,,,,,,,,,,,,,,,
,,3,4.4906,3,4.4906,0,26,26,92,1,170,cookie,microwave,,88924,001,2022-04-24_16h29.56.021,SPAMnetsValid,2021.1.4,Win32,60.06006006,,,,,,,,,,,,,,,,,,,,,,,,,,,,,,,,,,,,,,,,,,,,,,,,,,,,,,,,,,,,,,,,,,,,,,,,,,,,,,,,,,,,,,,,,
,,6,3.7442,6,3.7442,0,27,27,72,1,181,carrot,kitchen,,88924,001,2022-04-24_16h29.56.021,SPAMnetsValid,2021.1.4,Win32,60.06006006,,,,,,,,,,,,,,,,,,,,,,,,,,,,,,,,,,,,,,,,,,,,,,,,,,,,,,,,,,,,,,,,,,,,,,,,,,,,,,,,,,,,,,,,,
,,7,4.0347,7,4.0347,0,28,28,7,1,188,flower,tree,,88924,001,2022-04-24_16h29.56.021,SPAMnetsValid,2021.1.4,Win32,60.06006006,,,,,,,,,,,,,,,,,,,,,,,,,,,,,,,,,,,,,,,,,,,,,,,,,,,,,,,,,,,,,,,,,,,,,,,,,,,,,,,,,,,,,,,,,
,,9,2.744,9,2.744,0,29,29,51,1,168,cactus,flower,,88924,001,2022-04-24_16h29.56.021,SPAMnetsValid,2021.1.4,Win32,60.06006006,,,,,,,,,,,,,,,,,,,,,,,,,,,,,,,,,,,,,,,,,,,,,,,,,,,,,,,,,,,,,,,,,,,,,,,,,,,,,,,,,,,,,,,,,
,,9,1.7054,9,1.7054,0,30,30,66,1,150,microwave,refrigerator,,88924,001,2022-04-24_16h29.56.021,SPAMnetsValid,2021.1.4,Win32,60.06006006,,,,,,,,,,,,,,,,,,,,,,,,,,,,,,,,,,,,,,,,,,,,,,,,,,,,,,,,,,,,,,,,,,,,,,,,,,,,,,,,,,,,,,,,,
,,3,2.3436,3,2.3436,0,31,31,74,1,128,melon,microwave,,88924,001,2022-04-24_16h29.56.021,SPAMnetsValid,2021.1.4,Win32,60.06006006,,,,,,,,,,,,,,,,,,,,,,,,,,,,,,,,,,,,,,,,,,,,,,,,,,,,,,,,,,,,,,,,,,,,,,,,,,,,,,,,,,,,,,,,,
,,3,5.0741,3,5.0741,0,32,32,42,1,184,oven,pretzel,,88924,001,2022-04-24_16h29.56.021,SPAMnetsValid,2021.1.4,Win32,60.06006006,,,,,,,,,,,,,,,,,,,,,,,,,,,,,,,,,,,,,,,,,,,,,,,,,,,,,,,,,,,,,,,,,,,,,,,,,,,,,,,,,,,,,,,,,
,,2,3.7104,2,3.7104,0,33,33,94,1,133,cake,flower,,88924,001,2022-04-24_16h29.56.021,SPAMnetsValid,2021.1.4,Win32,60.06006006,,,,,,,,,,,,,,,,,,,,,,,,,,,,,,,,,,,,,,,,,,,,,,,,,,,,,,,,,,,,,,,,,,,,,,,,,,,,,,,,,,,,,,,,,
,,6,2.5792,6,2.5792,0,34,34,77,1,172,kitchen,melon,,88924,001,2022-04-24_16h29.56.021,SPAMnetsValid,2021.1.4,Win32,60.06006006,,,,,,,,,,,,,,,,,,,,,,,,,,,,,,,,,,,,,,,,,,,,,,,,,,,,,,,,,,,,,,,,,,,,,,,,,,,,,,,,,,,,,,,,,
,,2,6.1379,2,6.1379,0,35,35,50,1,126,kitchen,tree,,88924,001,2022-04-24_16h29.56.021,SPAMnetsValid,2021.1.4,Win32,60.06006006,,,,,,,,,,,,,,,,,,,,,,,,,,,,,,,,,,,,,,,,,,,,,,,,,,,,,,,,,,,,,,,,,,,,,,,,,,,,,,,,,,,,,,,,,
,,9,4.324,9,4.324,0,36,36,47,1,167,carrot,garden,,88924,001,2022-04-24_16h29.56.021,SPAMnetsValid,2021.1.4,Win32,60.06006006,,,,,,,,,,,,,,,,,,,,,,,,,,,,,,,,,,,,,,,,,,,,,,,,,,,,,,,,,,,,,,,,,,,,,,,,,,,,,,,,,,,,,,,,,
,,3,2.1778,3,2.1778,0,37,37,5,1,108,carrot,chocolate,,88924,001,2022-04-24_16h29.56.021,SPAMnetsValid,2021.1.4,Win32,60.06006006,,,,,,,,,,,,,,,,,,,,,,,,,,,,,,,,,,,,,,,,,,,,,,,,,,,,,,,,,,,,,,,,,,,,,,,,,,,,,,,,,,,,,,,,,
,,2,4.6762,2,4.6762,0,38,38,55,1,143,pretzel,rose,,88924,001,2022-04-24_16h29.56.021,SPAMnetsValid,2021.1.4,Win32,60.06006006,,,,,,,,,,,,,,,,,,,,,,,,,,,,,,,,,,,,,,,,,,,,,,,,,,,,,,,,,,,,,,,,,,,,,,,,,,,,,,,,,,,,,,,,,
,,3,1.7924,3,1.7924,0,39,39,18,1,119,strawberry,tree,,88924,001,2022-04-24_16h29.56.021,SPAMnetsValid,2021.1.4,Win32,60.06006006,,,,,,,,,,,,,,,,,,,,,,,,,,,,,,,,,,,,,,,,,,,,,,,,,,,,,,,,,,,,,,,,,,,,,,,,,,,,,,,,,,,,,,,,,
,,1,2.2959,1,2.2959,0,40,40,43,1,185,cactus,rose,,88924,001,2022-04-24_16h29.56.021,SPAMnetsValid,2021.1.4,Win32,60.06006006,,,,,,,,,,,,,,,,,,,,,,,,,,,,,,,,,,,,,,,,,,,,,,,,,,,,,,,,,,,,,,,,,,,,,,,,,,,,,,,,,,,,,,,,,
,,4,3.0328,4,3.0328,0,41,41,82,1,98,pretzel,strawberry,,88924,001,2022-04-24_16h29.56.021,SPAMnetsValid,2021.1.4,Win32,60.06006006,,,,,,,,,,,,,,,,,,,,,,,,,,,,,,,,,,,,,,,,,,,,,,,,,,,,,,,,,,,,,,,,,,,,,,,,,,,,,,,,,,,,,,,,,
,,9,2.2802,9,2.2802,0,42,42,27,1,158,cookie,oven,,88924,001,2022-04-24_16h29.56.021,SPAMnetsValid,2021.1.4,Win32,60.06006006,,,,,,,,,,,,,,,,,,,,,,,,,,,,,,,,,,,,,,,,,,,,,,,,,,,,,,,,,,,,,,,,,,,,,,,,,,,,,,,,,,,,,,,,,
,,1,2.2836,1,2.2836,0,43,43,15,1,145,cactus,yogurt,,88924,001,2022-04-24_16h29.56.021,SPAMnetsValid,2021.1.4,Win32,60.06006006,,,,,,,,,,,,,,,,,,,,,,,,,,,,,,,,,,,,,,,,,,,,,,,,,,,,,,,,,,,,,,,,,,,,,,,,,,,,,,,,,,,,,,,,,
,,1,2.81,1,2.81,0,44,44,26,1,107,rose,tomato,,88924,001,2022-04-24_16h29.56.021,SPAMnetsValid,2021.1.4,Win32,60.06006006,,,,,,,,,,,,,,,,,,,,,,,,,,,,,,,,,,,,,,,,,,,,,,,,,,,,,,,,,,,,,,,,,,,,,,,,,,,,,,,,,,,,,,,,,
,,9,2.0338,9,2.0338,0,45,45,52,1,110,chocolate,cookie,,88924,001,2022-04-24_16h29.56.021,SPAMnetsValid,2021.1.4,Win32,60.06006006,,,,,,,,,,,,,,,,,,,,,,,,,,,,,,,,,,,,,,,,,,,,,,,,,,,,,,,,,,,,,,,,,,,,,,,,,,,,,,,,,,,,,,,,,
,,1,2.3751,1,2.3751,0,46,46,68,1,180,tree,yogurt,,88924,001,2022-04-24_16h29.56.021,SPAMnetsValid,2021.1.4,Win32,60.06006006,,,,,,,,,,,,,,,,,,,,,,,,,,,,,,,,,,,,,,,,,,,,,,,,,,,,,,,,,,,,,,,,,,,,,,,,,,,,,,,,,,,,,,,,,
,,9,1.5387,9,1.5387,0,47,47,44,1,116,cake,chocolate,,88924,001,2022-04-24_16h29.56.021,SPAMnetsValid,2021.1.4,Win32,60.06006006,,,,,,,,,,,,,,,,,,,,,,,,,,,,,,,,,,,,,,,,,,,,,,,,,,,,,,,,,,,,,,,,,,,,,,,,,,,,,,,,,,,,,,,,,
,,1,1.6343,1,1.6343,0,48,48,63,1,137,microwave,tree,,88924,001,2022-04-24_16h29.56.021,SPAMnetsValid,2021.1.4,Win32,60.06006006,,,,,,,,,,,,,,,,,,,,,,,,,,,,,,,,,,,,,,,,,,,,,,,,,,,,,,,,,,,,,,,,,,,,,,,,,,,,,,,,,,,,,,,,,
,,1,1.943,1,1.943,0,49,49,49,1,152,cactus,strawberry,,88924,001,2022-04-24_16h29.56.021,SPAMnetsValid,2021.1.4,Win32,60.06006006,,,,,,,,,,,,,,,,,,,,,,,,,,,,,,,,,,,,,,,,,,,,,,,,,,,,,,,,,,,,,,,,,,,,,,,,,,,,,,,,,,,,,,,,,
,,8,2.3528,8,2.3528,0,50,50,10,1,118,chocolate,oven,,88924,001,2022-04-24_16h29.56.021,SPAMnetsValid,2021.1.4,Win32,60.06006006,,,,,,,,,,,,,,,,,,,,,,,,,,,,,,,,,,,,,,,,,,,,,,,,,,,,,,,,,,,,,,,,,,,,,,,,,,,,,,,,,,,,,,,,,
,,7,2.1683,7,2.1683,0,51,51,0,1,106,cake,strawberry,,88924,001,2022-04-24_16h29.56.021,SPAMnetsValid,2021.1.4,Win32,60.06006006,,,,,,,,,,,,,,,,,,,,,,,,,,,,,,,,,,,,,,,,,,,,,,,,,,,,,,,,,,,,,,,,,,,,,,,,,,,,,,,,,,,,,,,,,
,,1,2.489,1,2.489,0,52,52,20,1,149,broom,tomato,,88924,001,2022-04-24_16h29.56.021,SPAMnetsValid,2021.1.4,Win32,60.06006006,,,,,,,,,,,,,,,,,,,,,,,,,,,,,,,,,,,,,,,,,,,,,,,,,,,,,,,,,,,,,,,,,,,,,,,,,,,,,,,,,,,,,,,,,
,,7,4.2611,7,4.2611,0,53,53,96,1,136,chocolate,microwave,,88924,001,2022-04-24_16h29.56.021,SPAMnetsValid,2021.1.4,Win32,60.06006006,,,,,,,,,,,,,,,,,,,,,,,,,,,,,,,,,,,,,,,,,,,,,,,,,,,,,,,,,,,,,,,,,,,,,,,,,,,,,,,,,,,,,,,,,
,,9,1.6909,9,1.6909,0,54,54,86,1,193,melon,melon,CHECK,88924,001,2022-04-24_16h29.56.021,SPAMnetsValid,2021.1.4,Win32,60.06006006,,,,,,,,,,,,,,,,,,,,,,,,,,,,,,,,,,,,,,,,,,,,,,,,,,,,,,,,,,,,,,,,,,,,,,,,,,,,,,,,,,,,,,,,,
,,1,1.6016,1,1.6016,0,55,55,54,1,101,cactus,kitchen,,88924,001,2022-04-24_16h29.56.021,SPAMnetsValid,2021.1.4,Win32,60.06006006,,,,,,,,,,,,,,,,,,,,,,,,,,,,,,,,,,,,,,,,,,,,,,,,,,,,,,,,,,,,,,,,,,,,,,,,,,,,,,,,,,,,,,,,,
,,7,2.0772,7,2.0772,0,56,56,1,1,173,kitchen,tomato,,88924,001,2022-04-24_16h29.56.021,SPAMnetsValid,2021.1.4,Win32,60.06006006,,,,,,,,,,,,,,,,,,,,,,,,,,,,,,,,,,,,,,,,,,,,,,,,,,,,,,,,,,,,,,,,,,,,,,,,,,,,,,,,,,,,,,,,,
,,8,1.8097,8,1.8097,0,57,57,22,1,142,garden,tree,,88924,001,2022-04-24_16h29.56.021,SPAMnetsValid,2021.1.4,Win32,60.06006006,,,,,,,,,,,,,,,,,,,,,,,,,,,,,,,,,,,,,,,,,,,,,,,,,,,,,,,,,,,,,,,,,,,,,,,,,,,,,,,,,,,,,,,,,
,,4,4.0399,4,4.0399,0,58,58,31,1,156,melon,rose,,88924,001,2022-04-24_16h29.56.021,SPAMnetsValid,2021.1.4,Win32,60.06006006,,,,,,,,,,,,,,,,,,,,,,,,,,,,,,,,,,,,,,,,,,,,,,,,,,,,,,,,,,,,,,,,,,,,,,,,,,,,,,,,,,,,,,,,,
,,7,4.108,7,4.108,0,59,59,35,1,147,cake,refrigerator,,88924,001,2022-04-24_16h29.56.021,SPAMnetsValid,2021.1.4,Win32,60.06006006,,,,,,,,,,,,,,,,,,,,,,,,,,,,,,,,,,,,,,,,,,,,,,,,,,,,,,,,,,,,,,,,,,,,,,,,,,,,,,,,,,,,,,,,,
,,4,1.8675,4,1.8675,0,60,60,67,1,96,oven,strawberry,,88924,001,2022-04-24_16h29.56.021,SPAMnetsValid,2021.1.4,Win32,60.06006006,,,,,,,,,,,,,,,,,,,,,,,,,,,,,,,,,,,,,,,,,,,,,,,,,,,,,,,,,,,,,,,,,,,,,,,,,,,,,,,,,,,,,,,,,
,,2,2.0566,2,2.0566,0,61,61,39,1,112,cake,carrot,,88924,001,2022-04-24_16h29.56.021,SPAMnetsValid,2021.1.4,Win32,60.06006006,,,,,,,,,,,,,,,,,,,,,,,,,,,,,,,,,,,,,,,,,,,,,,,,,,,,,,,,,,,,,,,,,,,,,,,,,,,,,,,,,,,,,,,,,
,,8,9.1883,8,9.1883,0,62,62,65,1,160,cookie,kitchen,,88924,001,2022-04-24_16h29.56.021,SPAMnetsValid,2021.1.4,Win32,60.06006006,,,,,,,,,,,,,,,,,,,,,,,,,,,,,,,,,,,,,,,,,,,,,,,,,,,,,,,,,,,,,,,,,,,,,,,,,,,,,,,,,,,,,,,,,
,,1,3.2459,1,3.2459,0,63,63,78,1,132,broom,tree,,88924,001,2022-04-24_16h29.56.021,SPAMnetsValid,2021.1.4,Win32,60.06006006,,,,,,,,,,,,,,,,,,,,,,,,,,,,,,,,,,,,,,,,,,,,,,,,,,,,,,,,,,,,,,,,,,,,,,,,,,,,,,,,,,,,,,,,,
,,2,2.9238,2,2.9238,0,64,64,62,1,189,onion,tree,,88924,001,2022-04-24_16h29.56.021,SPAMnetsValid,2021.1.4,Win32,60.06006006,,,,,,,,,,,,,,,,,,,,,,,,,,,,,,,,,,,,,,,,,,,,,,,,,,,,,,,,,,,,,,,,,,,,,,,,,,,,,,,,,,,,,,,,,
,,4,1.7287,4,1.7287,0,65,65,70,1,141,melon,tomato,,88924,001,2022-04-24_16h29.56.021,SPAMnetsValid,2021.1.4,Win32,60.06006006,,,,,,,,,,,,,,,,,,,,,,,,,,,,,,,,,,,,,,,,,,,,,,,,,,,,,,,,,,,,,,,,,,,,,,,,,,,,,,,,,,,,,,,,,
,,9,4.2609,9,4.2609,0,66,66,60,1,122,flower,garden,,88924,001,2022-04-24_16h29.56.021,SPAMnetsValid,2021.1.4,Win32,60.06006006,,,,,,,,,,,,,,,,,,,,,,,,,,,,,,,,,,,,,,,,,,,,,,,,,,,,,,,,,,,,,,,,,,,,,,,,,,,,,,,,,,,,,,,,,
,,1,1.926,1,1.926,0,67,67,45,1,179,broom,oven,,88924,001,2022-04-24_16h29.56.021,SPAMnetsValid,2021.1.4,Win32,60.06006006,,,,,,,,,,,,,,,,,,,,,,,,,,,,,,,,,,,,,,,,,,,,,,,,,,,,,,,,,,,,,,,,,,,,,,,,,,,,,,,,,,,,,,,,,
,,8,1.9083,8,1.9083,0,68,68,28,1,154,strawberry,yogurt,,88924,001,2022-04-24_16h29.56.021,SPAMnetsValid,2021.1.4,Win32,60.06006006,,,,,,,,,,,,,,,,,,,,,,,,,,,,,,,,,,,,,,,,,,,,,,,,,,,,,,,,,,,,,,,,,,,,,,,,,,,,,,,,,,,,,,,,,
,,6,3.4563,6,3.4563,0,69,69,87,1,114,cookie,strawberry,,88924,001,2022-04-24_16h29.56.021,SPAMnetsValid,2021.1.4,Win32,60.06006006,,,,,,,,,,,,,,,,,,,,,,,,,,,,,,,,,,,,,,,,,,,,,,,,,,,,,,,,,,,,,,,,,,,,,,,,,,,,,,,,,,,,,,,,,
,,1,3.743,1,3.743,0,70,70,80,1,146,pretzel,tree,,88924,001,2022-04-24_16h29.56.021,SPAMnetsValid,2021.1.4,Win32,60.06006006,,,,,,,,,,,,,,,,,,,,,,,,,,,,,,,,,,,,,,,,,,,,,,,,,,,,,,,,,,,,,,,,,,,,,,,,,,,,,,,,,,,,,,,,,
,,2,2.6918,2,2.6918,0,71,71,21,1,159,cookie,flower,,88924,001,2022-04-24_16h29.56.021,SPAMnetsValid,2021.1.4,Win32,60.06006006,,,,,,,,,,,,,,,,,,,,,,,,,,,,,,,,,,,,,,,,,,,,,,,,,,,,,,,,,,,,,,,,,,,,,,,,,,,,,,,,,,,,,,,,,
,,3,5.8584,3,5.8584,0,72,72,16,1,111,carrot,microwave,,88924,001,2022-04-24_16h29.56.021,SPAMnetsValid,2021.1.4,Win32,60.06006006,,,,,,,,,,,,,,,,,,,,,,,,,,,,,,,,,,,,,,,,,,,,,,,,,,,,,,,,,,,,,,,,,,,,,,,,,,,,,,,,,,,,,,,,,
,,2,1.7591,2,1.7591,0,73,73,19,1,183,cake,rose,,88924,001,2022-04-24_16h29.56.021,SPAMnetsValid,2021.1.4,Win32,60.06006006,,,,,,,,,,,,,,,,,,,,,,,,,,,,,,,,,,,,,,,,,,,,,,,,,,,,,,,,,,,,,,,,,,,,,,,,,,,,,,,,,,,,,,,,,
,,1,1.7088,1,1.7088,0,74,74,73,1,135,carrot,oven,,88924,001,2022-04-24_16h29.56.021,SPAMnetsValid,2021.1.4,Win32,60.06006006,,,,,,,,,,,,,,,,,,,,,,,,,,,,,,,,,,,,,,,,,,,,,,,,,,,,,,,,,,,,,,,,,,,,,,,,,,,,,,,,,,,,,,,,,
,,2,5.8829,2,5.8829,0,75,75,33,1,131,cactus,garden,,88924,001,2022-04-24_16h29.56.021,SPAMnetsValid,2021.1.4,Win32,60.06006006,,,,,,,,,,,,,,,,,,,,,,,,,,,,,,,,,,,,,,,,,,,,,,,,,,,,,,,,,,,,,,,,,,,,,,,,,,,,,,,,,,,,,,,,,
,,1,1.6925,1,1.6925,0,76,76,9,1,176,cactus,tomato,,88924,001,2022-04-24_16h29.56.021,SPAMnetsValid,2021.1.4,Win32,60.06006006,,,,,,,,,,,,,,,,,,,,,,,,,,,,,,,,,,,,,,,,,,,,,,,,,,,,,,,,,,,,,,,,,,,,,,,,,,,,,,,,,,,,,,,,,
,,2,1.4924,2,1.4924,0,77,77,64,1,157,refrigerator,rose,,88924,001,2022-04-24_16h29.56.021,SPAMnetsValid,2021.1.4,Win32,60.06006006,,,,,,,,,,,,,,,,,,,,,,,,,,,,,,,,,,,,,,,,,,,,,,,,,,,,,,,,,,,,,,,,,,,,,,,,,,,,,,,,,,,,,,,,,
,,4,12.0912,4,12.0912,0,78,78,29,1,163,melon,refrigerator,,88924,001,2022-04-24_16h29.56.021,SPAMnetsValid,2021.1.4,Win32,60.06006006,,,,,,,,,,,,,,,,,,,,,,,,,,,,,,,,,,,,,,,,,,,,,,,,,,,,,,,,,,,,,,,,,,,,,,,,,,,,,,,,,,,,,,,,,
,,4,3.0266,4,3.0266,0,79,79,23,1,148,flower,melon,,88924,001,2022-04-24_16h29.56.021,SPAMnetsValid,2021.1.4,Win32,60.06006006,,,,,,,,,,,,,,,,,,,,,,,,,,,,,,,,,,,,,,,,,,,,,,,,,,,,,,,,,,,,,,,,,,,,,,,,,,,,,,,,,,,,,,,,,
,,1,1.8431,1,1.8431,0,80,80,4,1,109,broom,strawberry,,88924,001,2022-04-24_16h29.56.021,SPAMnetsValid,2021.1.4,Win32,60.06006006,,,,,,,,,,,,,,,,,,,,,,,,,,,,,,,,,,,,,,,,,,,,,,,,,,,,,,,,,,,,,,,,,,,,,,,,,,,,,,,,,,,,,,,,,
,,1,17.3958,1,17.3958,0,81,81,91,1,166,cake,yogurt,,88924,001,2022-04-24_16h29.56.021,SPAMnetsValid,2021.1.4,Win32,60.06006006,,,,,,,,,,,,,,,,,,,,,,,,,,,,,,,,,,,,,,,,,,,,,,,,,,,,,,,,,,,,,,,,,,,,,,,,,,,,,,,,,,,,,,,,,
,,9,23.3218,9,23.3218,0,82,82,14,1,120,microwave,oven,,88924,001,2022-04-24_16h29.56.021,SPAMnetsValid,2021.1.4,Win32,60.06006006,,,,,,,,,,,,,,,,,,,,,,,,,,,,,,,,,,,,,,,,,,,,,,,,,,,,,,,,,,,,,,,,,,,,,,,,,,,,,,,,,,,,,,,,,
,,4,2.7594,4,2.7594,0,83,83,34,1,153,carrot,pretzel,,88924,001,2022-04-24_16h29.56.021,SPAMnetsValid,2021.1.4,Win32,60.06006006,,,,,,,,,,,,,,,,,,,,,,,,,,,,,,,,,,,,,,,,,,,,,,,,,,,,,,,,,,,,,,,,,,,,,,,,,,,,,,,,,,,,,,,,,
,,6,2.4244,6,2.4244,0,84,84,17,1,99,garden,melon,,88924,001,2022-04-24_16h29.56.021,SPAMnetsValid,2021.1.4,Win32,60.06006006,,,,,,,,,,,,,,,,,,,,,,,,,,,,,,,,,,,,,,,,,,,,,,,,,,,,,,,,,,,,,,,,,,,,,,,,,,,,,,,,,,,,,,,,,
,,3,3.2752,3,3.2752,0,85,85,6,1,151,microwave,onion,,88924,001,2022-04-24_16h29.56.021,SPAMnetsValid,2021.1.4,Win32,60.06006006,,,,,,,,,,,,,,,,,,,,,,,,,,,,,,,,,,,,,,,,,,,,,,,,,,,,,,,,,,,,,,,,,,,,,,,,,,,,,,,,,,,,,,,,,
,,2,9.7459,2,9.7459,0,86,86,24,1,169,onion,yogurt,,88924,001,2022-04-24_16h29.56.021,SPAMnetsValid,2021.1.4,Win32,60.06006006,,,,,,,,,,,,,,,,,,,,,,,,,,,,,,,,,,,,,,,,,,,,,,,,,,,,,,,,,,,,,,,,,,,,,,,,,,,,,,,,,,,,,,,,,
,,6,3.2422,6,3.2422,0,87,87,48,1,186,kitchen,yogurt,,88924,001,2022-04-24_16h29.56.021,SPAMnetsValid,2021.1.4,Win32,60.06006006,,,,,,,,,,,,,,,,,,,,,,,,,,,,,,,,,,,,,,,,,,,,,,,,,,,,,,,,,,,,,,,,,,,,,,,,,,,,,,,,,,,,,,,,,
,,9,2.0271,9,2.0271,0,88,88,76,1,102,chocolate,refrigerator,,88924,001,2022-04-24_16h29.56.021,SPAMnetsValid,2021.1.4,Win32,60.06006006,,,,,,,,,,,,,,,,,,,,,,,,,,,,,,,,,,,,,,,,,,,,,,,,,,,,,,,,,,,,,,,,,,,,,,,,,,,,,,,,,,,,,,,,,
,,2,5.4445,2,5.4445,0,89,89,93,1,134,carrot,flower,,88924,001,2022-04-24_16h29.56.021,SPAMnetsValid,2021.1.4,Win32,60.06006006,,,,,,,,,,,,,,,,,,,,,,,,,,,,,,,,,,,,,,,,,,,,,,,,,,,,,,,,,,,,,,,,,,,,,,,,,,,,,,,,,,,,,,,,,
,,4,2.3098,4,2.3098,0,90,90,84,1,130,microwave,yogurt,,88924,001,2022-04-24_16h29.56.021,SPAMnetsValid,2021.1.4,Win32,60.06006006,,,,,,,,,,,,,,,,,,,,,,,,,,,,,,,,,,,,,,,,,,,,,,,,,,,,,,,,,,,,,,,,,,,,,,,,,,,,,,,,,,,,,,,,,
,,2,1.5271,2,1.5271,0,91,91,88,1,171,cake,tomato,,88924,001,2022-04-24_16h29.56.021,SPAMnetsValid,2021.1.4,Win32,60.06006006,,,,,,,,,,,,,,,,,,,,,,,,,,,,,,,,,,,,,,,,,,,,,,,,,,,,,,,,,,,,,,,,,,,,,,,,,,,,,,,,,,,,,,,,,
,,3,2.8093,3,2.8093,0,92,92,38,1,155,carrot,cookie,,88924,001,2022-04-24_16h29.56.021,SPAMnetsValid,2021.1.4,Win32,60.06006006,,,,,,,,,,,,,,,,,,,,,,,,,,,,,,,,,,,,,,,,,,,,,,,,,,,,,,,,,,,,,,,,,,,,,,,,,,,,,,,,,,,,,,,,,
,,9,1.9436,9,1.9436,0,93,93,25,1,194,cactus,cactus,CHECK,88924,001,2022-04-24_16h29.56.021,SPAMnetsValid,2021.1.4,Win32,60.06006006,,,,,,,,,,,,,,,,,,,,,,,,,,,,,,,,,,,,,,,,,,,,,,,,,,,,,,,,,,,,,,,,,,,,,,,,,,,,,,,,,,,,,,,,,
,,9,2.457,9,2.457,0,94,94,61,1,138,flower,rose,,88924,001,2022-04-24_16h29.56.021,SPAMnetsValid,2021.1.4,Win32,60.06006006,,,,,,,,,,,,,,,,,,,,,,,,,,,,,,,,,,,,,,,,,,,,,,,,,,,,,,,,,,,,,,,,,,,,,,,,,,,,,,,,,,,,,,,,,
,,6,5.2437,6,5.2437,0,95,95,56,1,113,refrigerator,strawberry,,88924,001,2022-04-24_16h29.56.021,SPAMnetsValid,2021.1.4,Win32,60.06006006,,,,,,,,,,,,,,,,,,,,,,,,,,,,,,,,,,,,,,,,,,,,,,,,,,,,,,,,,,,,,,,,,,,,,,,,,,,,,,,,,,,,,,,,,
,,2,6.1686,2,6.1686,0,96,96,59,1,164,cookie,garden,,88924,001,2022-04-24_16h29.56.021,SPAMnetsValid,2021.1.4,Win32,60.06006006,,,,,,,,,,,,,,,,,,,,,,,,,,,,,,,,,,,,,,,,,,,,,,,,,,,,,,,,,,,,,,,,,,,,,,,,,,,,,,,,,,,,,,,,,
,,,,,,,,,,,,,,,88924,001,2022-04-24_16h29.56.021,SPAMnetsValid,2021.1.4,Win32,60.06006006,0,0,0,0,1,,,,,,,,,,,,,,,,,,,,,,,,,,,,,,,,,,,,,,,,,,,,,,,,,,,,,,,,,,,,,,,,,,,,,,,,,,,,,,,,,,,,
,,,,,,,,,,,,,,,88924,001,2022-04-24_16h29.56.021,SPAMnetsValid,2021.1.4,Win32,60.06006006,,,,,,0,0,0,1,1,0,1,,,,,,,,,,,,,,,,,,,,,,,,,,,,,,,,,,,,,,,,,,,,,,,,,,,,,,,,,,,,,,,,,,,,,,,,,,,,,
,,,,1,2.8877,,,,,,27,cactus,cookie,,88924,001,2022-04-24_16h29.56.021,SPAMnetsValid,2021.1.4,Win32,60.06006006,,,,,,,,,,,,,1,2.8877,0,0,0,17,1,,,,,,,,,,,,,,,,,,,,,,,,,,,,,,,,,,,,,,,,,,,,,,,,,,,,,,,,,,,,,,,,,,,,,,
,,,,4,2.3844,,,,,,61,strawberry,tomato,,88924,001,2022-04-24_16h29.56.021,SPAMnetsValid,2021.1.4,Win32,60.06006006,,,,,,,,,,,,,4,2.3844,0,1,1,80,1,,,,,,,,,,,,,,,,,,,,,,,,,,,,,,,,,,,,,,,,,,,,,,,,,,,,,,,,,,,,,,,,,,,,,,
,,,,1,2.31,,,,,,48,flower,oven,,88924,001,2022-04-24_16h29.56.021,SPAMnetsValid,2021.1.4,Win32,60.06006006,,,,,,,,,,,,,1,2.31,0,2,2,15,1,,,,,,,,,,,,,,,,,,,,,,,,,,,,,,,,,,,,,,,,,,,,,,,,,,,,,,,,,,,,,,,,,,,,,,
,,,,4,1.8243,,,,,,16,chocolate,flower,,88924,001,2022-04-24_16h29.56.021,SPAMnetsValid,2021.1.4,Win32,60.06006006,,,,,,,,,,,,,4,1.8243,0,3,3,22,1,,,,,,,,,,,,,,,,,,,,,,,,,,,,,,,,,,,,,,,,,,,,,,,,,,,,,,,,,,,,,,,,,,,,,,
,,,,9,3.1976,,,,,,93,kitchen,oven,,88924,001,2022-04-24_16h29.56.021,SPAMnetsValid,2021.1.4,Win32,60.06006006,,,,,,,,,,,,,9,3.1976,0,4,4,82,1,,,,,,,,,,,,,,,,,,,,,,,,,,,,,,,,,,,,,,,,,,,,,,,,,,,,,,,,,,,,,,,,,,,,,,
,,,,1,1.9333,,,,,,72,broom,onion,,88924,001,2022-04-24_16h29.56.021,SPAMnetsValid,2021.1.4,Win32,60.06006006,,,,,,,,,,,,,1,1.9333,0,5,5,27,1,,,,,,,,,,,,,,,,,,,,,,,,,,,,,,,,,,,,,,,,,,,,,,,,,,,,,,,,,,,,,,,,,,,,,,
,,,,3,1.4973,,,,,,87,carrot,yogurt,,88924,001,2022-04-24_16h29.56.021,SPAMnetsValid,2021.1.4,Win32,60.06006006,,,,,,,,,,,,,3,1.4973,0,6,6,6,1,,,,,,,,,,,,,,,,,,,,,,,,,,,,,,,,,,,,,,,,,,,,,,,,,,,,,,,,,,,,,,,,,,,,,,
,,,,1,1.5547,,,,,,95,broom,refrigerator,,88924,001,2022-04-24_16h29.56.021,SPAMnetsValid,2021.1.4,Win32,60.06006006,,,,,,,,,,,,,1,1.5547,0,7,7,90,1,,,,,,,,,,,,,,,,,,,,,,,,,,,,,,,,,,,,,,,,,,,,,,,,,,,,,,,,,,,,,,,,,,,,,,
,,,,5,3.3173,,,,,,25,carrot,onion,,88924,001,2022-04-24_16h29.56.021,SPAMnetsValid,2021.1.4,Win32,60.06006006,,,,,,,,,,,,,5,3.3173,0,8,8,44,1,,,,,,,,,,,,,,,,,,,,,,,,,,,,,,,,,,,,,,,,,,,,,,,,,,,,,,,,,,,,,,,,,,,,,,
,,,,6,1.6669,,,,,,52,carrot,tomato,,88924,001,2022-04-24_16h29.56.021,SPAMnetsValid,2021.1.4,Win32,60.06006006,,,,,,,,,,,,,6,1.6669,0,9,9,95,1,,,,,,,,,,,,,,,,,,,,,,,,,,,,,,,,,,,,,,,,,,,,,,,,,,,,,,,,,,,,,,,,,,,,,,
,,,,4,2.0306,,,,,,57,flower,kitchen,,88924,001,2022-04-24_16h29.56.021,SPAMnetsValid,2021.1.4,Win32,60.06006006,,,,,,,,,,,,,4,2.0306,0,10,10,49,1,,,,,,,,,,,,,,,,,,,,,,,,,,,,,,,,,,,,,,,,,,,,,,,,,,,,,,,,,,,,,,,,,,,,,,
,,,,2,1.9496,,,,,,21,cake,onion,,88924,001,2022-04-24_16h29.56.021,SPAMnetsValid,2021.1.4,Win32,60.06006006,,,,,,,,,,,,,2,1.9496,0,11,11,63,1,,,,,,,,,,,,,,,,,,,,,,,,,,,,,,,,,,,,,,,,,,,,,,,,,,,,,,,,,,,,,,,,,,,,,,
,,,,1,2.6138,,,,,,37,garden,refrigerator,,88924,001,2022-04-24_16h29.56.021,SPAMnetsValid,2021.1.4,Win32,60.06006006,,,,,,,,,,,,,1,2.6138,0,12,12,11,1,,,,,,,,,,,,,,,,,,,,,,,,,,,,,,,,,,,,,,,,,,,,,,,,,,,,,,,,,,,,,,,,,,,,,,
,,,,2,1.7975,,,,,,55,tomato,tree,,88924,001,2022-04-24_16h29.56.021,SPAMnetsValid,2021.1.4,Win32,60.06006006,,,,,,,,,,,,,2,1.7975,0,13,13,35,1,,,,,,,,,,,,,,,,,,,,,,,,,,,,,,,,,,,,,,,,,,,,,,,,,,,,,,,,,,,,,,,,,,,,,,
,,,,3,2.0727,,,,,,34,melon,oven,,88924,001,2022-04-24_16h29.56.021,SPAMnetsValid,2021.1.4,Win32,60.06006006,,,,,,,,,,,,,3,2.0727,0,14,14,7,1,,,,,,,,,,,,,,,,,,,,,,,,,,,,,,,,,,,,,,,,,,,,,,,,,,,,,,,,,,,,,,,,,,,,,,
,,,,1,2.033,,,,,,86,oven,rose,,88924,001,2022-04-24_16h29.56.021,SPAMnetsValid,2021.1.4,Win32,60.06006006,,,,,,,,,,,,,1,2.033,0,15,15,79,1,,,,,,,,,,,,,,,,,,,,,,,,,,,,,,,,,,,,,,,,,,,,,,,,,,,,,,,,,,,,,,,,,,,,,,
,,,,2,1.6695,,,,,,20,rose,tree,,88924,001,2022-04-24_16h29.56.021,SPAMnetsValid,2021.1.4,Win32,60.06006006,,,,,,,,,,,,,2,1.6695,0,16,16,66,1,,,,,,,,,,,,,,,,,,,,,,,,,,,,,,,,,,,,,,,,,,,,,,,,,,,,,,,,,,,,,,,,,,,,,,
,,,,1,2.0617,,,,,,10,flower,onion,,88924,001,2022-04-24_16h29.56.021,SPAMnetsValid,2021.1.4,Win32,60.06006006,,,,,,,,,,,,,1,2.0617,0,17,17,45,1,,,,,,,,,,,,,,,,,,,,,,,,,,,,,,,,,,,,,,,,,,,,,,,,,,,,,,,,,,,,,,,,,,,,,,
,,,,9,1.875,,,,,,76,garden,rose,,88924,001,2022-04-24_16h29.56.021,SPAMnetsValid,2021.1.4,Win32,60.06006006,,,,,,,,,,,,,9,1.875,0,18,18,19,1,,,,,,,,,,,,,,,,,,,,,,,,,,,,,,,,,,,,,,,,,,,,,,,,,,,,,,,,,,,,,,,,,,,,,,
,,,,2,2.0442,,,,,,11,refrigerator,tree,,88924,001,2022-04-24_16h29.56.021,SPAMnetsValid,2021.1.4,Win32,60.06006006,,,,,,,,,,,,,2,2.0442,0,19,19,43,1,,,,,,,,,,,,,,,,,,,,,,,,,,,,,,,,,,,,,,,,,,,,,,,,,,,,,,,,,,,,,,,,,,,,,,
,,,,3,1.5174,,,,,,7,melon,tree,,88924,001,2022-04-24_16h29.56.021,SPAMnetsValid,2021.1.4,Win32,60.06006006,,,,,,,,,,,,,3,1.5174,0,20,20,77,1,,,,,,,,,,,,,,,,,,,,,,,,,,,,,,,,,,,,,,,,,,,,,,,,,,,,,,,,,,,,,,,,,,,,,,
,,,,5,2.9468,,,,,,49,flower,strawberry,,88924,001,2022-04-24_16h29.56.021,SPAMnetsValid,2021.1.4,Win32,60.06006006,,,,,,,,,,,,,5,2.9468,0,21,21,3,1,,,,,,,,,,,,,,,,,,,,,,,,,,,,,,,,,,,,,,,,,,,,,,,,,,,,,,,,,,,,,,,,,,,,,,
,,,,1,2.2634,,,,,,88,cactus,melon,,88924,001,2022-04-24_16h29.56.021,SPAMnetsValid,2021.1.4,Win32,60.06006006,,,,,,,,,,,,,1,2.2634,0,22,22,38,1,,,,,,,,,,,,,,,,,,,,,,,,,,,,,,,,,,,,,,,,,,,,,,,,,,,,,,,,,,,,,,,,,,,,,,
,,,,2,1.4643,,,,,,18,onion,refrigerator,,88924,001,2022-04-24_16h29.56.021,SPAMnetsValid,2021.1.4,Win32,60.06006006,,,,,,,,,,,,,2,1.4643,0,23,23,62,1,,,,,,,,,,,,,,,,,,,,,,,,,,,,,,,,,,,,,,,,,,,,,,,,,,,,,,,,,,,,,,,,,,,,,,
,,,,1,2.7524,,,,,,33,oven,yogurt,,88924,001,2022-04-24_16h29.56.021,SPAMnetsValid,2021.1.4,Win32,60.06006006,,,,,,,,,,,,,1,2.7524,0,24,24,31,1,,,,,,,,,,,,,,,,,,,,,,,,,,,,,,,,,,,,,,,,,,,,,,,,,,,,,,,,,,,,,,,,,,,,,,
,,,,4,1.4331,,,,,,45,onion,pretzel,,88924,001,2022-04-24_16h29.56.021,SPAMnetsValid,2021.1.4,Win32,60.06006006,,,,,,,,,,,,,4,1.4331,0,25,25,69,1,,,,,,,,,,,,,,,,,,,,,,,,,,,,,,,,,,,,,,,,,,,,,,,,,,,,,,,,,,,,,,,,,,,,,,
,,,,2,2.0306,,,,,,51,onion,strawberry,,88924,001,2022-04-24_16h29.56.021,SPAMnetsValid,2021.1.4,Win32,60.06006006,,,,,,,,,,,,,2,2.0306,0,26,26,86,1,,,,,,,,,,,,,,,,,,,,,,,,,,,,,,,,,,,,,,,,,,,,,,,,,,,,,,,,,,,,,,,,,,,,,,
,,,,9,1.609,,,,,,191,cake,cake,CHECK,88924,001,2022-04-24_16h29.56.021,SPAMnetsValid,2021.1.4,Win32,60.06006006,,,,,,,,,,,,,9,1.609,0,27,27,10,1,,,,,,,,,,,,,,,,,,,,,,,,,,,,,,,,,,,,,,,,,,,,,,,,,,,,,,,,,,,,,,,,,,,,,,
,,,,7,1.6321,,,,,,22,kitchen,strawberry,,88924,001,2022-04-24_16h29.56.021,SPAMnetsValid,2021.1.4,Win32,60.06006006,,,,,,,,,,,,,7,1.6321,0,28,28,2,1,,,,,,,,,,,,,,,,,,,,,,,,,,,,,,,,,,,,,,,,,,,,,,,,,,,,,,,,,,,,,,,,,,,,,,
,,,,9,3.7651,,,,,,77,refrigerator,yogurt,,88924,001,2022-04-24_16h29.56.021,SPAMnetsValid,2021.1.4,Win32,60.06006006,,,,,,,,,,,,,9,3.7651,0,29,29,42,1,,,,,,,,,,,,,,,,,,,,,,,,,,,,,,,,,,,,,,,,,,,,,,,,,,,,,,,,,,,,,,,,,,,,,,
,,,,2,1.8394,,,,,,60,cactus,onion,,88924,001,2022-04-24_16h29.56.021,SPAMnetsValid,2021.1.4,Win32,60.06006006,,,,,,,,,,,,,2,1.8394,0,30,30,81,1,,,,,,,,,,,,,,,,,,,,,,,,,,,,,,,,,,,,,,,,,,,,,,,,,,,,,,,,,,,,,,,,,,,,,,
,,,,9,1.74,,,,,,3,cake,oven,,88924,001,2022-04-24_16h29.56.021,SPAMnetsValid,2021.1.4,Win32,60.06006006,,,,,,,,,,,,,9,1.74,0,31,31,30,1,,,,,,,,,,,,,,,,,,,,,,,,,,,,,,,,,,,,,,,,,,,,,,,,,,,,,,,,,,,,,,,,,,,,,,
,,,,1,2.9975,,,,,,64,chocolate,garden,,88924,001,2022-04-24_16h29.56.021,SPAMnetsValid,2021.1.4,Win32,60.06006006,,,,,,,,,,,,,1,2.9975,0,32,32,14,1,,,,,,,,,,,,,,,,,,,,,,,,,,,,,,,,,,,,,,,,,,,,,,,,,,,,,,,,,,,,,,,,,,,,,,
,,,,1,1.0732,,,,,,71,broom,rose,,88924,001,2022-04-24_16h29.56.021,SPAMnetsValid,2021.1.4,Win32,60.06006006,,,,,,,,,,,,,1,1.0732,0,33,33,61,1,,,,,,,,,,,,,,,,,,,,,,,,,,,,,,,,,,,,,,,,,,,,,,,,,,,,,,,,,,,,,,,,,,,,,,
,,,,8,1.7502,,,,,,82,cake,kitchen,,88924,001,2022-04-24_16h29.56.021,SPAMnetsValid,2021.1.4,Win32,60.06006006,,,,,,,,,,,,,8,1.7502,0,34,34,96,1,,,,,,,,,,,,,,,,,,,,,,,,,,,,,,,,,,,,,,,,,,,,,,,,,,,,,,,,,,,,,,,,,,,,,,
,,,,3,1.6168,,,,,,68,flower,tomato,,88924,001,2022-04-24_16h29.56.021,SPAMnetsValid,2021.1.4,Win32,60.06006006,,,,,,,,,,,,,3,1.6168,0,35,35,94,1,,,,,,,,,,,,,,,,,,,,,,,,,,,,,,,,,,,,,,,,,,,,,,,,,,,,,,,,,,,,,,,,,,,,,,
,,,,2,1.7462,,,,,,58,garden,oven,,88924,001,2022-04-24_16h29.56.021,SPAMnetsValid,2021.1.4,Win32,60.06006006,,,,,,,,,,,,,2,1.7462,0,36,36,37,1,,,,,,,,,,,,,,,,,,,,,,,,,,,,,,,,,,,,,,,,,,,,,,,,,,,,,,,,,,,,,,,,,,,,,,
,,,,3,1.5481,,,,,,66,melon,yogurt,,88924,001,2022-04-24_16h29.56.021,SPAMnetsValid,2021.1.4,Win32,60.06006006,,,,,,,,,,,,,3,1.5481,0,37,37,48,1,,,,,,,,,,,,,,,,,,,,,,,,,,,,,,,,,,,,,,,,,,,,,,,,,,,,,,,,,,,,,,,,,,,,,,
,,,,1,1.4133,,,,,,65,broom,garden,,88924,001,2022-04-24_16h29.56.021,SPAMnetsValid,2021.1.4,Win32,60.06006006,,,,,,,,,,,,,1,1.4133,0,38,38,23,1,,,,,,,,,,,,,,,,,,,,,,,,,,,,,,,,,,,,,,,,,,,,,,,,,,,,,,,,,,,,,,,,,,,,,,
,,,,1,1.4835,,,,,,13,broom,yogurt,,88924,001,2022-04-24_16h29.56.021,SPAMnetsValid,2021.1.4,Win32,60.06006006,,,,,,,,,,,,,1,1.4835,0,39,39,5,1,,,,,,,,,,,,,,,,,,,,,,,,,,,,,,,,,,,,,,,,,,,,,,,,,,,,,,,,,,,,,,,,,,,,,,
,,,,1,2.0146,,,,,,40,broom,cake,,88924,001,2022-04-24_16h29.56.021,SPAMnetsValid,2021.1.4,Win32,60.06006006,,,,,,,,,,,,,1,2.0146,0,40,40,32,1,,,,,,,,,,,,,,,,,,,,,,,,,,,,,,,,,,,,,,,,,,,,,,,,,,,,,,,,,,,,,,,,,,,,,,
,,,,2,2.1491,,,,,,59,rose,strawberry,,88924,001,2022-04-24_16h29.56.021,SPAMnetsValid,2021.1.4,Win32,60.06006006,,,,,,,,,,,,,2,2.1491,0,41,41,72,1,,,,,,,,,,,,,,,,,,,,,,,,,,,,,,,,,,,,,,,,,,,,,,,,,,,,,,,,,,,,,,,,,,,,,,
,,,,1,1.5804,,,,,,31,cactus,pretzel,,88924,001,2022-04-24_16h29.56.021,SPAMnetsValid,2021.1.4,Win32,60.06006006,,,,,,,,,,,,,1,1.5804,0,42,42,1,1,,,,,,,,,,,,,,,,,,,,,,,,,,,,,,,,,,,,,,,,,,,,,,,,,,,,,,,,,,,,,,,,,,,,,,
,,,,9,1.7047,,,,,,9,kitchen,refrigerator,,88924,001,2022-04-24_16h29.56.021,SPAMnetsValid,2021.1.4,Win32,60.06006006,,,,,,,,,,,,,9,1.7047,0,43,43,64,1,,,,,,,,,,,,,,,,,,,,,,,,,,,,,,,,,,,,,,,,,,,,,,,,,,,,,,,,,,,,,,,,,,,,,,
,,,,3,2.3996,,,,,,81,pretzel,yogurt,,88924,001,2022-04-24_16h29.56.021,SPAMnetsValid,2021.1.4,Win32,60.06006006,,,,,,,,,,,,,3,2.3996,0,44,44,50,1,,,,,,,,,,,,,,,,,,,,,,,,,,,,,,,,,,,,,,,,,,,,,,,,,,,,,,,,,,,,,,,,,,,,,,
,,,,2,1.4366,,,,,,70,chocolate,onion,,88924,001,2022-04-24_16h29.56.021,SPAMnetsValid,2021.1.4,Win32,60.06006006,,,,,,,,,,,,,2,1.4366,0,45,45,74,1,,,,,,,,,,,,,,,,,,,,,,,,,,,,,,,,,,,,,,,,,,,,,,,,,,,,,,,,,,,,,,,,,,,,,,
,,,,1,1.3626,,,,,,74,broom,pretzel,,88924,001,2022-04-24_16h29.56.021,SPAMnetsValid,2021.1.4,Win32,60.06006006,,,,,,,,,,,,,1,1.3626,0,46,46,40,1,,,,,,,,,,,,,,,,,,,,,,,,,,,,,,,,,,,,,,,,,,,,,,,,,,,,,,,,,,,,,,,,,,,,,,
,,,,1,3.3032,,,,,,1,rose,yogurt,,88924,001,2022-04-24_16h29.56.021,SPAMnetsValid,2021.1.4,Win32,60.06006006,,,,,,,,,,,,,1,3.3032,0,47,47,55,1,,,,,,,,,,,,,,,,,,,,,,,,,,,,,,,,,,,,,,,,,,,,,,,,,,,,,,,,,,,,,,,,,,,,,,
,,,,3,1.5044,,,,,,12,cookie,yogurt,,88924,001,2022-04-24_16h29.56.021,SPAMnetsValid,2021.1.4,Win32,60.06006006,,,,,,,,,,,,,3,1.5044,0,48,48,36,1,,,,,,,,,,,,,,,,,,,,,,,,,,,,,,,,,,,,,,,,,,,,,,,,,,,,,,,,,,,,,,,,,,,,,,
,,,,2,1.5644,,,,,,91,microwave,rose,,88924,001,2022-04-24_16h29.56.021,SPAMnetsValid,2021.1.4,Win32,60.06006006,,,,,,,,,,,,,2,1.5644,0,49,49,84,1,,,,,,,,,,,,,,,,,,,,,,,,,,,,,,,,,,,,,,,,,,,,,,,,,,,,,,,,,,,,,,,,,,,,,,
,,,,1,1.9007,,,,,,41,broom,cactus,,88924,001,2022-04-24_16h29.56.021,SPAMnetsValid,2021.1.4,Win32,60.06006006,,,,,,,,,,,,,1,1.9007,0,50,50,46,1,,,,,,,,,,,,,,,,,,,,,,,,,,,,,,,,,,,,,,,,,,,,,,,,,,,,,,,,,,,,,,,,,,,,,,
,,,,1,1.467,,,,,,8,broom,melon,,88924,001,2022-04-24_16h29.56.021,SPAMnetsValid,2021.1.4,Win32,60.06006006,,,,,,,,,,,,,1,1.467,0,51,51,59,1,,,,,,,,,,,,,,,,,,,,,,,,,,,,,,,,,,,,,,,,,,,,,,,,,,,,,,,,,,,,,,,,,,,,,,
,,,,3,1.5471,,,,,,89,chocolate,rose,,88924,001,2022-04-24_16h29.56.021,SPAMnetsValid,2021.1.4,Win32,60.06006006,,,,,,,,,,,,,3,1.5471,0,52,52,60,1,,,,,,,,,,,,,,,,,,,,,,,,,,,,,,,,,,,,,,,,,,,,,,,,,,,,,,,,,,,,,,,,,,,,,,
,,,,1,1.3672,,,,,,83,broom,carrot,,88924,001,2022-04-24_16h29.56.021,SPAMnetsValid,2021.1.4,Win32,60.06006006,,,,,,,,,,,,,1,1.3672,0,53,53,4,1,,,,,,,,,,,,,,,,,,,,,,,,,,,,,,,,,,,,,,,,,,,,,,,,,,,,,,,,,,,,,,,,,,,,,,
,,,,4,3.099,,,,,,32,cake,microwave,,88924,001,2022-04-24_16h29.56.021,SPAMnetsValid,2021.1.4,Win32,60.06006006,,,,,,,,,,,,,4,3.099,0,54,54,33,1,,,,,,,,,,,,,,,,,,,,,,,,,,,,,,,,,,,,,,,,,,,,,,,,,,,,,,,,,,,,,,,,,,,,,,
,,,,6,2.3443,,,,,,6,garden,onion,,88924,001,2022-04-24_16h29.56.021,SPAMnetsValid,2021.1.4,Win32,60.06006006,,,,,,,,,,,,,6,2.3443,0,55,55,83,1,,,,,,,,,,,,,,,,,,,,,,,,,,,,,,,,,,,,,,,,,,,,,,,,,,,,,,,,,,,,,,,,,,,,,,
,,,,4,2.0292,,,,,,15,onion,oven,,88924,001,2022-04-24_16h29.56.021,SPAMnetsValid,2021.1.4,Win32,60.06006006,,,,,,,,,,,,,4,2.0292,0,56,56,39,1,,,,,,,,,,,,,,,,,,,,,,,,,,,,,,,,,,,,,,,,,,,,,,,,,,,,,,,,,,,,,,,,,,,,,,
,,,,7,2.1165,,,,,,80,chocolate,tree,,88924,001,2022-04-24_16h29.56.021,SPAMnetsValid,2021.1.4,Win32,60.06006006,,,,,,,,,,,,,7,2.1165,0,57,57,89,1,,,,,,,,,,,,,,,,,,,,,,,,,,,,,,,,,,,,,,,,,,,,,,,,,,,,,,,,,,,,,,,,,,,,,,
,,,,7,1.7802,,,,,,30,cookie,pretzel,,88924,001,2022-04-24_16h29.56.021,SPAMnetsValid,2021.1.4,Win32,60.06006006,,,,,,,,,,,,,7,1.7802,0,58,58,78,1,,,,,,,,,,,,,,,,,,,,,,,,,,,,,,,,,,,,,,,,,,,,,,,,,,,,,,,,,,,,,,,,,,,,,,
,,,,3,2.0802,,,,,,42,garden,kitchen,,88924,001,2022-04-24_16h29.56.021,SPAMnetsValid,2021.1.4,Win32,60.06006006,,,,,,,,,,,,,3,2.0802,0,59,59,29,1,,,,,,,,,,,,,,,,,,,,,,,,,,,,,,,,,,,,,,,,,,,,,,,,,,,,,,,,,,,,,,,,,,,,,,
,,,,1,2.6323,,,,,,5,oven,tree,,88924,001,2022-04-24_16h29.56.021,SPAMnetsValid,2021.1.4,Win32,60.06006006,,,,,,,,,,,,,1,2.6323,0,60,60,70,1,,,,,,,,,,,,,,,,,,,,,,,,,,,,,,,,,,,,,,,,,,,,,,,,,,,,,,,,,,,,,,,,,,,,,,
,,,,1,2.7445,,,,,,78,cookie,rose,,88924,001,2022-04-24_16h29.56.021,SPAMnetsValid,2021.1.4,Win32,60.06006006,,,,,,,,,,,,,1,2.7445,0,61,61,56,1,,,,,,,,,,,,,,,,,,,,,,,,,,,,,,,,,,,,,,,,,,,,,,,,,,,,,,,,,,,,,,,,,,,,,,
,,,,5,2.599,,,,,,69,carrot,refrigerator,,88924,001,2022-04-24_16h29.56.021,SPAMnetsValid,2021.1.4,Win32,60.06006006,,,,,,,,,,,,,5,2.599,0,62,62,75,1,,,,,,,,,,,,,,,,,,,,,,,,,,,,,,,,,,,,,,,,,,,,,,,,,,,,,,,,,,,,,,,,,,,,,,
,,,,2,1.6793,,,,,,84,oven,tomato,,88924,001,2022-04-24_16h29.56.021,SPAMnetsValid,2021.1.4,Win32,60.06006006,,,,,,,,,,,,,2,1.6793,0,63,63,28,1,,,,,,,,,,,,,,,,,,,,,,,,,,,,,,,,,,,,,,,,,,,,,,,,,,,,,,,,,,,,,,,,,,,,,,
,,,,1,1.4669,,,,,,38,pretzel,refrigerator,,88924,001,2022-04-24_16h29.56.021,SPAMnetsValid,2021.1.4,Win32,60.06006006,,,,,,,,,,,,,1,1.4669,0,64,64,71,1,,,,,,,,,,,,,,,,,,,,,,,,,,,,,,,,,,,,,,,,,,,,,,,,,,,,,,,,,,,,,,,,,,,,,,
,,,,2,1.4623,,,,,,35,flower,pretzel,,88924,001,2022-04-24_16h29.56.021,SPAMnetsValid,2021.1.4,Win32,60.06006006,,,,,,,,,,,,,2,1.4623,0,65,65,26,1,,,,,,,,,,,,,,,,,,,,,,,,,,,,,,,,,,,,,,,,,,,,,,,,,,,,,,,,,,,,,,,,,,,,,,
,,,,1,1.6903,,,,,,67,flower,yogurt,,88924,001,2022-04-24_16h29.56.021,SPAMnetsValid,2021.1.4,Win32,60.06006006,,,,,,,,,,,,,1,1.6903,0,66,66,12,1,,,,,,,,,,,,,,,,,,,,,,,,,,,,,,,,,,,,,,,,,,,,,,,,,,,,,,,,,,,,,,,,,,,,,,
,,,,9,1.6833,,,,,,94,kitchen,microwave,,88924,001,2022-04-24_16h29.56.021,SPAMnetsValid,2021.1.4,Win32,60.06006006,,,,,,,,,,,,,9,1.6833,0,67,67,58,1,,,,,,,,,,,,,,,,,,,,,,,,,,,,,,,,,,,,,,,,,,,,,,,,,,,,,,,,,,,,,,,,,,,,,,
,,,,2,1.5975,,,,,,43,chocolate,tomato,,88924,001,2022-04-24_16h29.56.021,SPAMnetsValid,2021.1.4,Win32,60.06006006,,,,,,,,,,,,,2,1.5975,0,68,68,8,1,,,,,,,,,,,,,,,,,,,,,,,,,,,,,,,,,,,,,,,,,,,,,,,,,,,,,,,,,,,,,,,,,,,,,,
,,,,3,1.4646,,,,,,28,cake,melon,,88924,001,2022-04-24_16h29.56.021,SPAMnetsValid,2021.1.4,Win32,60.06006006,,,,,,,,,,,,,3,1.4646,0,69,69,54,1,,,,,,,,,,,,,,,,,,,,,,,,,,,,,,,,,,,,,,,,,,,,,,,,,,,,,,,,,,,,,,,,,,,,,,
,,,,3,2.0469,,,,,,17,carrot,melon,,88924,001,2022-04-24_16h29.56.021,SPAMnetsValid,2021.1.4,Win32,60.06006006,,,,,,,,,,,,,3,2.0469,0,70,70,24,1,,,,,,,,,,,,,,,,,,,,,,,,,,,,,,,,,,,,,,,,,,,,,,,,,,,,,,,,,,,,,,,,,,,,,,
,,,,3,1.5901,,,,,,29,chocolate,melon,,88924,001,2022-04-24_16h29.56.021,SPAMnetsValid,2021.1.4,Win32,60.06006006,,,,,,,,,,,,,3,1.5901,0,71,71,34,1,,,,,,,,,,,,,,,,,,,,,,,,,,,,,,,,,,,,,,,,,,,,,,,,,,,,,,,,,,,,,,,,,,,,,,
,,,,1,1.5397,,,,,,46,garden,yogurt,,88924,001,2022-04-24_16h29.56.021,SPAMnetsValid,2021.1.4,Win32,60.06006006,,,,,,,,,,,,,1,1.5397,0,72,72,65,1,,,,,,,,,,,,,,,,,,,,,,,,,,,,,,,,,,,,,,,,,,,,,,,,,,,,,,,,,,,,,,,,,,,,,,
,,,,3,2.097,,,,,,19,microwave,pretzel,,88924,001,2022-04-24_16h29.56.021,SPAMnetsValid,2021.1.4,Win32,60.06006006,,,,,,,,,,,,,3,2.097,0,73,73,41,1,,,,,,,,,,,,,,,,,,,,,,,,,,,,,,,,,,,,,,,,,,,,,,,,,,,,,,,,,,,,,,,,,,,,,,
,,,,2,1.9194,,,,,,56,cactus,tree,,88924,001,2022-04-24_16h29.56.021,SPAMnetsValid,2021.1.4,Win32,60.06006006,,,,,,,,,,,,,2,1.9194,0,74,74,21,1,,,,,,,,,,,,,,,,,,,,,,,,,,,,,,,,,,,,,,,,,,,,,,,,,,,,,,,,,,,,,,,,,,,,,,
,,,,1,2.7825,,,,,,24,cookie,tomato,,88924,001,2022-04-24_16h29.56.021,SPAMnetsValid,2021.1.4,Win32,60.06006006,,,,,,,,,,,,,1,2.7825,0,75,75,68,1,,,,,,,,,,,,,,,,,,,,,,,,,,,,,,,,,,,,,,,,,,,,,,,,,,,,,,,,,,,,,,,,,,,,,,
,,,,1,1.6093,,,,,,14,broom,cookie,,88924,001,2022-04-24_16h29.56.021,SPAMnetsValid,2021.1.4,Win32,60.06006006,,,,,,,,,,,,,1,1.6093,0,76,76,16,1,,,,,,,,,,,,,,,,,,,,,,,,,,,,,,,,,,,,,,,,,,,,,,,,,,,,,,,,,,,,,,,,,,,,,,
,,,,1,1.3841,,,,,,53,garden,pretzel,,88924,001,2022-04-24_16h29.56.021,SPAMnetsValid,2021.1.4,Win32,60.06006006,,,,,,,,,,,,,1,1.3841,0,77,77,0,1,,,,,,,,,,,,,,,,,,,,,,,,,,,,,,,,,,,,,,,,,,,,,,,,,,,,,,,,,,,,,,,,,,,,,,
,,,,9,2.4993,,,,,,79,garden,strawberry,,88924,001,2022-04-24_16h29.56.021,SPAMnetsValid,2021.1.4,Win32,60.06006006,,,,,,,,,,,,,9,2.4993,0,78,78,87,1,,,,,,,,,,,,,,,,,,,,,,,,,,,,,,,,,,,,,,,,,,,,,,,,,,,,,,,,,,,,,,,,,,,,,,
,,,,7,2.1487,,,,,,36,broom,kitchen,,88924,001,2022-04-24_16h29.56.021,SPAMnetsValid,2021.1.4,Win32,60.06006006,,,,,,,,,,,,,7,2.1487,0,79,79,76,1,,,,,,,,,,,,,,,,,,,,,,,,,,,,,,,,,,,,,,,,,,,,,,,,,,,,,,,,,,,,,,,,,,,,,,
,,,,1,1.6173,,,,,,50,carrot,rose,,88924,001,2022-04-24_16h29.56.021,SPAMnetsValid,2021.1.4,Win32,60.06006006,,,,,,,,,,,,,1,1.6173,0,80,80,73,1,,,,,,,,,,,,,,,,,,,,,,,,,,,,,,,,,,,,,,,,,,,,,,,,,,,,,,,,,,,,,,,,,,,,,,
,,,,2,1.4145,,,,,,44,cookie,melon,,88924,001,2022-04-24_16h29.56.021,SPAMnetsValid,2021.1.4,Win32,60.06006006,,,,,,,,,,,,,2,1.4145,0,81,81,92,1,,,,,,,,,,,,,,,,,,,,,,,,,,,,,,,,,,,,,,,,,,,,,,,,,,,,,,,,,,,,,,,,,,,,,,
,,,,1,1.9444,,,,,,73,broom,chocolate,,88924,001,2022-04-24_16h29.56.021,SPAMnetsValid,2021.1.4,Win32,60.06006006,,,,,,,,,,,,,1,1.9444,0,82,82,47,1,,,,,,,,,,,,,,,,,,,,,,,,,,,,,,,,,,,,,,,,,,,,,,,,,,,,,,,,,,,,,,,,,,,,,,
,,,,4,1.8164,,,,,,47,onion,tomato,,88924,001,2022-04-24_16h29.56.021,SPAMnetsValid,2021.1.4,Win32,60.06006006,,,,,,,,,,,,,4,1.8164,0,83,83,51,1,,,,,,,,,,,,,,,,,,,,,,,,,,,,,,,,,,,,,,,,,,,,,,,,,,,,,,,,,,,,,,,,,,,,,,
,,,,8,2.0312,,,,,,4,chocolate,pretzel,,88924,001,2022-04-24_16h29.56.021,SPAMnetsValid,2021.1.4,Win32,60.06006006,,,,,,,,,,,,,8,2.0312,0,84,84,52,1,,,,,,,,,,,,,,,,,,,,,,,,,,,,,,,,,,,,,,,,,,,,,,,,,,,,,,,,,,,,,,,,,,,,,,
,,,,3,1.659,,,,,,62,kitchen,rose,,88924,001,2022-04-24_16h29.56.021,SPAMnetsValid,2021.1.4,Win32,60.06006006,,,,,,,,,,,,,3,1.659,0,85,85,57,1,,,,,,,,,,,,,,,,,,,,,,,,,,,,,,,,,,,,,,,,,,,,,,,,,,,,,,,,,,,,,,,,,,,,,,
,,,,7,3.0542,,,,,,2,kitchen,onion,,88924,001,2022-04-24_16h29.56.021,SPAMnetsValid,2021.1.4,Win32,60.06006006,,,,,,,,,,,,,7,3.0542,0,86,86,91,1,,,,,,,,,,,,,,,,,,,,,,,,,,,,,,,,,,,,,,,,,,,,,,,,,,,,,,,,,,,,,,,,,,,,,,
,,,,3,1.9478,,,,,,85,cake,tree,,88924,001,2022-04-24_16h29.56.021,SPAMnetsValid,2021.1.4,Win32,60.06006006,,,,,,,,,,,,,3,1.9478,0,87,87,18,1,,,,,,,,,,,,,,,,,,,,,,,,,,,,,,,,,,,,,,,,,,,,,,,,,,,,,,,,,,,,,,,,,,,,,,
,,,,3,1.5268,,,,,,39,melon,pretzel,,88924,001,2022-04-24_16h29.56.021,SPAMnetsValid,2021.1.4,Win32,60.06006006,,,,,,,,,,,,,3,1.5268,0,88,88,20,1,,,,,,,,,,,,,,,,,,,,,,,,,,,,,,,,,,,,,,,,,,,,,,,,,,,,,,,,,,,,,,,,,,,,,,
,,,,3,1.0678,,,,,,26,tomato,yogurt,,88924,001,2022-04-24_16h29.56.021,SPAMnetsValid,2021.1.4,Win32,60.06006006,,,,,,,,,,,,,3,1.0678,0,89,89,13,1,,,,,,,,,,,,,,,,,,,,,,,,,,,,,,,,,,,,,,,,,,,,,,,,,,,,,,,,,,,,,,,,,,,,,,
,,,,2,1.3922,,,,,,90,cactus,cake,,88924,001,2022-04-24_16h29.56.021,SPAMnetsValid,2021.1.4,Win32,60.06006006,,,,,,,,,,,,,2,1.3922,0,90,90,85,1,,,,,,,,,,,,,,,,,,,,,,,,,,,,,,,,,,,,,,,,,,,,,,,,,,,,,,,,,,,,,,,,,,,,,,
,,,,2,1.5588,,,,,,92,broom,flower,,88924,001,2022-04-24_16h29.56.021,SPAMnetsValid,2021.1.4,Win32,60.06006006,,,,,,,,,,,,,2,1.5588,0,91,91,88,1,,,,,,,,,,,,,,,,,,,,,,,,,,,,,,,,,,,,,,,,,,,,,,,,,,,,,,,,,,,,,,,,,,,,,,
,,,,9,1.8913,,,,,,192,microwave,microwave,CHECK,88924,001,2022-04-24_16h29.56.021,SPAMnetsValid,2021.1.4,Win32,60.06006006,,,,,,,,,,,,,9,1.8913,0,92,92,53,1,,,,,,,,,,,,,,,,,,,,,,,,,,,,,,,,,,,,,,,,,,,,,,,,,,,,,,,,,,,,,,,,,,,,,,
,,,,8,1.4588,,,,,,54,chocolate,yogurt,,88924,001,2022-04-24_16h29.56.021,SPAMnetsValid,2021.1.4,Win32,60.06006006,,,,,,,,,,,,,8,1.4588,0,93,93,67,1,,,,,,,,,,,,,,,,,,,,,,,,,,,,,,,,,,,,,,,,,,,,,,,,,,,,,,,,,,,,,,,,,,,,,,
,,,,2,1.6065,,,,,,23,flower,microwave,,88924,001,2022-04-24_16h29.56.021,SPAMnetsValid,2021.1.4,Win32,60.06006006,,,,,,,,,,,,,2,1.6065,0,94,94,25,1,,,,,,,,,,,,,,,,,,,,,,,,,,,,,,,,,,,,,,,,,,,,,,,,,,,,,,,,,,,,,,,,,,,,,,
,,,,1,1.7767,,,,,,75,cookie,onion,,88924,001,2022-04-24_16h29.56.021,SPAMnetsValid,2021.1.4,Win32,60.06006006,,,,,,,,,,,,,1,1.7767,0,95,95,9,1,,,,,,,,,,,,,,,,,,,,,,,,,,,,,,,,,,,,,,,,,,,,,,,,,,,,,,,,,,,,,,,,,,,,,,
,,,,7,239.3333,,,,,,63,cake,cookie,,88924,001,2022-04-24_16h29.56.021,SPAMnetsValid,2021.1.4,Win32,60.06006006,,,,,,,,,,,,,7,239.3333,0,96,96,93,1,,,,,,,,,,,,,,,,,,,,,,,,,,,,,,,,,,,,,,,,,,,,,,,,,,,,,,,,,,,,,,,,,,,,,,
,,,,,,,,,,,,,,,88924,001,2022-04-24_16h29.56.021,SPAMnetsValid,2021.1.4,Win32,60.06006006,,,,,,,,,,,,,,,,,,,,0,0,0,0,1,,,,,,,,,,,,,,,,,,,,,,,,,,,,,,,,,,,,,,,,,,,,,,,,,,,,,,,,,,,,,,,,,
,,,,,,,,,,,,,,,88924,001,2022-04-24_16h29.56.021,SPAMnetsValid,2021.1.4,Win32,60.06006006,,,,,,0,1,1,0,1,1,0,,,,,,,,,,,,,,,,,,,,,,,,,,,,,,,,,,,,,,,,,,,,,,,,,,,,,,,,,,,,,,,,,,,,,,,,,,,,,
,,,,,,,,,,,,,,,88924,001,2022-04-24_16h29.56.021,SPAMnetsValid,2021.1.4,Win32,60.06006006,,,,,,,,,,,,,,,,,,,,,,,,,4,5.3553,0,0,0,0,1,rancor,forbearance,ridicule,malice,bravery,3,,,,,,,,,,,,,,,,,,,,,,,,,,,,,,,,,,,,,,,,,,,,,,,,,,,,
,,,,,,,,,,,,,,,88924,001,2022-04-24_16h29.56.021,SPAMnetsValid,2021.1.4,Win32,60.06006006,,,,,,,,,,,,,,,,,,,,,,,,,4,3.2748,0,1,1,1,1,raucous,empty,quiet,smooth,harsh,4,,,,,,,,,,,,,,,,,,,,,,,,,,,,,,,,,,,,,,,,,,,,,,,,,,,,
,,,,,,,,,,,,,,,88924,001,2022-04-24_16h29.56.021,SPAMnetsValid,2021.1.4,Win32,60.06006006,,,,,,,,,,,,,,,,,,,,,,,,,3,1.5592,0,2,2,2,1,gargoyle,oil,medicine,carved waterspout,ugly building,3,,,,,,,,,,,,,,,,,,,,,,,,,,,,,,,,,,,,,,,,,,,,,,,,,,,,
,,,,,,,,,,,,,,,88924,001,2022-04-24_16h29.56.021,SPAMnetsValid,2021.1.4,Win32,60.06006006,,,,,,,,,,,,,,,,,,,,,,,,,3,3.3453,0,3,3,3,1,recrudesce,purify,renew activity,lack refinement,crush,2,,,,,,,,,,,,,,,,,,,,,,,,,,,,,,,,,,,,,,,,,,,,,,,,,,,,
,,,,,,,,,,,,,,,88924,001,2022-04-24_16h29.56.021,SPAMnetsValid,2021.1.4,Win32,60.06006006,,,,,,,,,,,,,,,,,,,,,,,,,2,1.5708,0,4,4,4,1,specious,"plausible, but not genuine",noteworthy,class or variety,roomy,1,,,,,,,,,,,,,,,,,,,,,,,,,,,,,,,,,,,,,,,,,,,,,,,,,,,,
,,,,,,,,,,,,,,,88924,001,2022-04-24_16h29.56.021,SPAMnetsValid,2021.1.4,Win32,60.06006006,,,,,,,,,,,,,,,,,,,,,,,,,3,3.0627,0,5,5,5,1,bauble,bubble,showy plaything,idle talk,confusion,2,,,,,,,,,,,,,,,,,,,,,,,,,,,,,,,,,,,,,,,,,,,,,,,,,,,,
,,,,,,,,,,,,,,,88924,001,2022-04-24_16h29.56.021,SPAMnetsValid,2021.1.4,Win32,60.06006006,,,,,,,,,,,,,,,,,,,,,,,,,4,4.0103,0,6,6,6,1,prolific,scarce,producing abundantly,reckless,speaking profanely,2,,,,,,,,,,,,,,,,,,,,,,,,,,,,,,,,,,,,,,,,,,,,,,,,,,,,
,,,,,,,,,,,,,,,88924,001,2022-04-24_16h29.56.021,SPAMnetsValid,2021.1.4,Win32,60.06006006,,,,,,,,,,,,,,,,,,,,,,,,,2,1.9917,0,7,7,7,1,opulent,party,wealthy,happy frame of mind,semiprecious stone,2,,,,,,,,,,,,,,,,,,,,,,,,,,,,,,,,,,,,,,,,,,,,,,,,,,,,
,,,,,,,,,,,,,,,88924,001,2022-04-24_16h29.56.021,SPAMnetsValid,2021.1.4,Win32,60.06006006,,,,,,,,,,,,,,,,,,,,,,,,,1,2.9764,0,8,8,8,1,coercion,conspiracy,strategy,restraint,attraction,3,,,,,,,,,,,,,,,,,,,,,,,,,,,,,,,,,,,,,,,,,,,,,,,,,,,,
,,,,,,,,,,,,,,,88924,001,2022-04-24_16h29.56.021,SPAMnetsValid,2021.1.4,Win32,60.06006006,,,,,,,,,,,,,,,,,,,,,,,,,4,2.11,0,9,9,9,1,hiatus,animal,calamity,dread,gap,4,,,,,,,,,,,,,,,,,,,,,,,,,,,,,,,,,,,,,,,,,,,,,,,,,,,,
,,,,,,,,,,,,,,,88924,001,2022-04-24_16h29.56.021,SPAMnetsValid,2021.1.4,Win32,60.06006006,,,,,,,,,,,,,,,,,,,,,,,,,2,5.9898,0,10,10,10,1,germane,microbe,contagious,relevant,different,3,,,,,,,,,,,,,,,,,,,,,,,,,,,,,,,,,,,,,,,,,,,,,,,,,,,,
,,,,,,,,,,,,,,,88924,001,2022-04-24_16h29.56.021,SPAMnetsValid,2021.1.4,Win32,60.06006006,,,,,,,,,,,,,,,,,,,,,,,,,3,3.0096,0,11,11,11,1,perfunctory,fundamental,formal,superficial,careful,3,,,,,,,,,,,,,,,,,,,,,,,,,,,,,,,,,,,,,,,,,,,,,,,,,,,,
,,,,,,,,,,,,,,,88924,001,2022-04-24_16h29.56.021,SPAMnetsValid,2021.1.4,Win32,60.06006006,,,,,,,,,,,,,,,,,,,,,,,,,4,2.0278,0,12,12,12,1,diverge,reveal,chant,distract the attention of,differ or turn off from,4,,,,,,,,,,,,,,,,,,,,,,,,,,,,,,,,,,,,,,,,,,,,,,,,,,,,
,,,,,,,,,,,,,,,88924,001,2022-04-24_16h29.56.021,SPAMnetsValid,2021.1.4,Win32,60.06006006,,,,,,,,,,,,,,,,,,,,,,,,,4,3.3014,0,13,13,13,1,evoke,take away,anger,connect,bring out,4,,,,,,,,,,,,,,,,,,,,,,,,,,,,,,,,,,,,,,,,,,,,,,,,,,,,
,,,,,,,,,,,,,,,88924,001,2022-04-24_16h29.56.021,SPAMnetsValid,2021.1.4,Win32,60.06006006,,,,,,,,,,,,,,,,,,,,,,,,,1,3.5426,0,14,14,14,1,pertinent,relevant,lying next to,necessary,bold,1,,,,,,,,,,,,,,,,,,,,,,,,,,,,,,,,,,,,,,,,,,,,,,,,,,,,
,,,,,,,,,,,,,,,88924,001,2022-04-24_16h29.56.021,SPAMnetsValid,2021.1.4,Win32,60.06006006,,,,,,,,,,,,,,,,,,,,,,,,,2,1.7106,0,15,15,15,1,holocaust,entirety,destruction,saintly,price,2,,,,,,,,,,,,,,,,,,,,,,,,,,,,,,,,,,,,,,,,,,,,,,,,,,,,
,,,,,,,,,,,,,,,88924,001,2022-04-24_16h29.56.021,SPAMnetsValid,2021.1.4,Win32,60.06006006,,,,,,,,,,,,,,,,,,,,,,,,,3,4.8245,0,16,16,16,1,piquant,mellow,fish,pungent,cloth,3,,,,,,,,,,,,,,,,,,,,,,,,,,,,,,,,,,,,,,,,,,,,,,,,,,,,
,,,,,,,,,,,,,,,88924,001,2022-04-24_16h29.56.021,SPAMnetsValid,2021.1.4,Win32,60.06006006,,,,,,,,,,,,,,,,,,,,,,,,,3,2.7348,0,17,17,17,1,firmament,foundation,heavens,strong,glue,2,,,,,,,,,,,,,,,,,,,,,,,,,,,,,,,,,,,,,,,,,,,,,,,,,,,,
,,,,,,,,,,,,,,,88924,001,2022-04-24_16h29.56.021,SPAMnetsValid,2021.1.4,Win32,60.06006006,,,,,,,,,,,,,,,,,,,,,,,,,,,,,,,,,,,,,,3,2.3182,0,0,0,0,1,marketable,partisan,jocular,marriageable,salable,essential,4,,,,,,,,,,,,,,,,,,,,,,,,,,,,,,,,,,,,,,
,,,,,,,,,,,,,,,88924,001,2022-04-24_16h29.56.021,SPAMnetsValid,2021.1.4,Win32,60.06006006,,,,,,,,,,,,,,,,,,,,,,,,,,,,,,,,,,,,,,4,1.8913,0,1,1,1,1,cottontail,squirrel,poplar,boa,marshy plant,rabbit,5,,,,,,,,,,,,,,,,,,,,,,,,,,,,,,,,,,,,,,
,,,,,,,,,,,,,,,88924,001,2022-04-24_16h29.56.021,SPAMnetsValid,2021.1.4,Win32,60.06006006,,,,,,,,,,,,,,,,,,,,,,,,,,,,,,,,,,,,,,3,1.8919,0,2,2,2,1,boggy,afraid,false,marshy,dense,black,3,,,,,,,,,,,,,,,,,,,,,,,,,,,,,,,,,,,,,,
,,,,,,,,,,,,,,,88924,001,2022-04-24_16h29.56.021,SPAMnetsValid,2021.1.4,Win32,60.06006006,,,,,,,,,,,,,,,,,,,,,,,,,,,,,,,,,,,,,,3,4.2914,0,3,3,3,1,gruesomeness,blackness,falseness,vindictiveness,drunkenness,ghastliness,5,,,,,,,,,,,,,,,,,,,,,,,,,,,,,,,,,,,,,,
,,,,,,,,,,,,,,,88924,001,2022-04-24_16h29.56.021,SPAMnetsValid,2021.1.4,Win32,60.06006006,,,,,,,,,,,,,,,,,,,,,,,,,,,,,,,,,,,,,,3,4.1065,0,4,4,4,1,loathing,diffidence,laziness,abhorrence,cleverness,comfort,3,,,,,,,,,,,,,,,,,,,,,,,,,,,,,,,,,,,,,,
,,,,,,,,,,,,,,,88924,001,2022-04-24_16h29.56.021,SPAMnetsValid,2021.1.4,Win32,60.06006006,,,,,,,,,,,,,,,,,,,,,,,,,,,,,,,,,,,,,,1,6.0256,0,5,5,5,1,bantam,fowl,ridicule,cripple,vegetable,ensign,1,,,,,,,,,,,,,,,,,,,,,,,,,,,,,,,,,,,,,,
,,,,,,,,,,,,,,,88924,001,2022-04-24_16h29.56.021,SPAMnetsValid,2021.1.4,Win32,60.06006006,,,,,,,,,,,,,,,,,,,,,,,,,,,,,,,,,,,,,,5,3.2254,0,6,6,6,1,evoke,wake up,surrender,reconnoiter,transcend,call forth,5,,,,,,,,,,,,,,,,,,,,,,,,,,,,,,,,,,,,,,
,,,,,,,,,,,,,,,88924,001,2022-04-24_16h29.56.021,SPAMnetsValid,2021.1.4,Win32,60.06006006,,,,,,,,,,,,,,,,,,,,,,,,,,,,,,,,,,,,,,5,4.0089,0,7,7,7,1,unobtrusive,unintelligent,epileptic,illogical,lineal,modest,5,,,,,,,,,,,,,,,,,,,,,,,,,,,,,,,,,,,,,,
,,,,,,,,,,,,,,,88924,001,2022-04-24_16h29.56.021,SPAMnetsValid,2021.1.4,Win32,60.06006006,,,,,,,,,,,,,,,,,,,,,,,,,,,,,,,,,,,,,,4,1.4937,0,8,8,8,1,terrain,ice cream,final test,tractor,area of ground,weight,4,,,,,,,,,,,,,,,,,,,,,,,,,,,,,,,,,,,,,,
,,,,,,,,,,,,,,,88924,001,2022-04-24_16h29.56.021,SPAMnetsValid,2021.1.4,Win32,60.06006006,,,,,,,,,,,,,,,,,,,,,,,,,,,,,,,,,,,,,,4,7.5044,0,9,9,9,1,capriciousness,stubbornness,courage,whimsicality,amazement,greediness,3,,,,,,,,,,,,,,,,,,,,,,,,,,,,,,,,,,,,,,
,,,,,,,,,,,,,,,88924,001,2022-04-24_16h29.56.021,SPAMnetsValid,2021.1.4,Win32,60.06006006,,,,,,,,,,,,,,,,,,,,,,,,,,,,,,,,,,,,,,2,1.8748,0,10,10,10,1,maelstrom,slander,whirlpool,enmity,armor,majolica,2,,,,,,,,,,,,,,,,,,,,,,,,,,,,,,,,,,,,,,
,,,,,,,,,,,,,,,88924,001,2022-04-24_16h29.56.021,SPAMnetsValid,2021.1.4,Win32,60.06006006,,,,,,,,,,,,,,,,,,,,,,,,,,,,,,,,,,,,,,5,3.5594,0,11,11,11,1,tentative,critical,conclusive,authentic,provisional,apprehensive,4,,,,,,,,,,,,,,,,,,,,,,,,,,,,,,,,,,,,,,
,,,,,,,,,,,,,,,88924,001,2022-04-24_16h29.56.021,SPAMnetsValid,2021.1.4,Win32,60.06006006,,,,,,,,,,,,,,,,,,,,,,,,,,,,,,,,,,,,,,5,5.5911,0,12,12,12,1,placate,rehabilitate,plagiarize,depredate,apprise,conciliate,5,,,,,,,,,,,,,,,,,,,,,,,,,,,,,,,,,,,,,,
,,,,,,,,,,,,,,,88924,001,2022-04-24_16h29.56.021,SPAMnetsValid,2021.1.4,Win32,60.06006006,,,,,,,,,,,,,,,,,,,,,,,,,,,,,,,,,,,,,,4,5.2136,0,13,13,13,1,surcease,enlightenment,cessation,inattention,censor,substitution,2,,,,,,,,,,,,,,,,,,,,,,,,,,,,,,,,,,,,,,
,,,,,,,,,,,,,,,88924,001,2022-04-24_16h29.56.021,SPAMnetsValid,2021.1.4,Win32,60.06006006,,,,,,,,,,,,,,,,,,,,,,,,,,,,,,,,,,,,,,2,12.8487,0,14,14,14,1,apathetic,wandering,impassive,hateful,prophetic,overflowing,2,,,,,,,,,,,,,,,,,,,,,,,,,,,,,,,,,,,,,,
,,,,,,,,,,,,,,,88924,001,2022-04-24_16h29.56.021,SPAMnetsValid,2021.1.4,Win32,60.06006006,,,,,,,,,,,,,,,,,,,,,,,,,,,,,,,,,,,,,,4,5.3591,0,15,15,15,1,paternoster,paternalism,patricide,malediction,benediction,prayer,5,,,,,,,,,,,,,,,,,,,,,,,,,,,,,,,,,,,,,,
,,,,,,,,,,,,,,,88924,001,2022-04-24_16h29.56.021,SPAMnetsValid,2021.1.4,Win32,60.06006006,,,,,,,,,,,,,,,,,,,,,,,,,,,,,,,,,,,,,,1,2.6084,0,16,16,16,1,opalescence,opulence,senescence,bankruptcy,iridescence,assiduity,4,,,,,,,,,,,,,,,,,,,,,,,,,,,,,,,,,,,,,,
,,,,,,,,,,,,,,,88924,001,2022-04-24_16h29.56.021,SPAMnetsValid,2021.1.4,Win32,60.06006006,,,,,,,,,,,,,,,,,,,,,,,,,,,,,,,,,,,,,,2,1.9445,0,17,17,17,1,lush,stupid,luxurious,hazy,putrid,languishing,2,,,,,,,,,,,,,,,,,,,,,,,,,,,,,,,,,,,,,,
,,,,,,,,,,,,,,,88924,001,2022-04-24_16h29.56.021,SPAMnetsValid,2021.1.4,Win32,60.06006006,,,,,,,,,,,,,,,,,,,,,,,,,,,,,,,,,,,,,,5,4.6918,0,18,18,18,1,curtailment,expenditure,abandonment,abridgment,improvement,forgery,3,,,,,,,,,,,,,,,,,,,,,,,,,,,,,,,,,,,,,,
,,,,,,,,,,,,,,,88924,001,2022-04-24_16h29.56.021,SPAMnetsValid,2021.1.4,Win32,60.06006006,,,,,,,,,,,,,,,,,,,,,,,,,,,,,,,,,,,,,,3,2.3178,0,19,19,19,1,perversity,adversity,perviousness,travesty,waywardness,gentility,4,,,,,,,,,,,,,,,,,,,,,,,,,,,,,,,,,,,,,,
,,,,,,,,,,,,,,,88924,001,2022-04-24_16h29.56.021,SPAMnetsValid,2021.1.4,Win32,60.06006006,,,,,,,,,,,,,,,,,,,,,,,,,,,,,,,,,,,,,,1,2.5961,0,20,20,20,1,calumnious,complimentary,analogous,slanderous,tempestuous,magnanimous,3,,,,,,,,,,,,,,,,,,,,,,,,,,,,,,,,,,,,,,
,,,,,,,,,,,,,,,88924,001,2022-04-24_16h29.56.021,SPAMnetsValid,2021.1.4,Win32,60.06006006,,,,,,,,,,,,,,,,,,,,,,,,,,,,,,,,,,,,,,2,3.9241,0,21,21,21,1,illiberality,bigotry,imbecility,illegibility,cautery,immaturity,1,,,,,,,,,,,,,,,,,,,,,,,,,,,,,,,,,,,,,,
,,,,,,,,,,,,,,,88924,001,2022-04-24_16h29.56.021,SPAMnetsValid,2021.1.4,Win32,60.06006006,,,,,,,,,,,,,,,,,,,,,,,,,,,,,,,,,,,,,,2,4.509,0,22,22,22,1,clabber,rejoice,gossip,curdle,crow,hobble,3,,,,,,,,,,,,,,,,,,,,,,,,,,,,,,,,,,,,,,
,,,,,,,,,,,,,,,88924,001,2022-04-24_16h29.56.021,SPAMnetsValid,2021.1.4,Win32,60.06006006,,,,,,,,,,,,,,,,,,,,,,,,,,,,,,,,,,,,,,5,6.1407,0,23,23,23,1,sedulousness,diligence,credulousness,seduction,perilousness,frankness,1,,,,,,,,,,,,,,,,,,,,,,,,,,,,,,,,,,,,,,
,,,,,,,,,,,,,,,88924,001,2022-04-24_16h29.56.021,SPAMnetsValid,2021.1.4,Win32,60.06006006,,,,,,,,,,,,,,,,,,,,,,,,,,,,,,,,,,,,,,,,,,,,,,,,,,,,planter,bucket,0,0,0,0,1,,,,,,,,,,,,,,,,,,,,,,,,,,,,,,,
,,,,,,,,,,,,,,,88924,001,2022-04-24_16h29.56.021,SPAMnetsValid,2021.1.4,Win32,60.06006006,,,,,,,,,,,,,,,,,,,,,,,,,,,,,,,,,,,,,,,,,,,,,,,,,,,,carry water,bucket,1,0,1,0,1,,,,,,,,,,,,,,,,,,,,,,,,,,,,,,,
,,,,,,,,,,,,,,,88924,001,2022-04-24_16h29.56.021,SPAMnetsValid,2021.1.4,Win32,60.06006006,,,,,,,,,,,,,,,,,,,,,,,,,,,,,,,,,,,,,,,,,,,,,,,,,,,,carry sand,bucket,2,0,2,0,1,,,,,,,,,,,,,,,,,,,,,,,,,,,,,,,
,,,,,,,,,,,,,,,88924,001,2022-04-24_16h29.56.021,SPAMnetsValid,2021.1.4,Win32,60.06006006,,,,,,,,,,,,,,,,,,,,,,,,,,,,,,,,,,,,,,,,,,,,,,,,,,,,compost,bucket,3,0,3,0,1,,,,,,,,,,,,,,,,,,,,,,,,,,,,,,,
,,,,,,,,,,,,,,,88924,001,2022-04-24_16h29.56.021,SPAMnetsValid,2021.1.4,Win32,60.06006006,,,,,,,,,,,,,,,,,,,,,,,,,,,,,,,,,,,,,,,,,,,,,,,,,,,,gardening,bucket,4,0,4,0,1,,,,,,,,,,,,,,,,,,,,,,,,,,,,,,,
,,,,,,,,,,,,,,,88924,001,2022-04-24_16h29.56.021,SPAMnetsValid,2021.1.4,Win32,60.06006006,,,,,,,,,,,,,,,,,,,,,,,,,,,,,,,,,,,,,,,,,,,,,,,,,,,,seating,bucket,5,0,5,0,1,,,,,,,,,,,,,,,,,,,,,,,,,,,,,,,
,,,,,,,,,,,,,,,88924,001,2022-04-24_16h29.56.021,SPAMnetsValid,2021.1.4,Win32,60.06006006,,,,,,,,,,,,,,,,,,,,,,,,,,,,,,,,,,,,,,,,,,,,,,,,,,,,improvised toilet,bucket,6,0,6,0,1,,,,,,,,,,,,,,,,,,,,,,,,,,,,,,,
,,,,,,,,,,,,,,,88924,001,2022-04-24_16h29.56.021,SPAMnetsValid,2021.1.4,Win32,60.06006006,,,,,,,,,,,,,,,,,,,,,,,,,,,,,,,,,,,,,,,,,,,,,,,,,,,,drums,bucket,7,0,7,0,1,,,,,,,,,,,,,,,,,,,,,,,,,,,,,,,
,,,,,,,,,,,,,,,88924,001,2022-04-24_16h29.56.021,SPAMnetsValid,2021.1.4,Win32,60.06006006,,,,,,,,,,,,,,,,,,,,,,,,,,,,,,,,,,,,,,,,,,,,,,,,,,,,trash can,bucket,8,0,8,0,1,,,,,,,,,,,,,,,,,,,,,,,,,,,,,,,
,,,,,,,,,,,,,,,88924,001,2022-04-24_16h29.56.021,SPAMnetsValid,2021.1.4,Win32,60.06006006,,,,,,,,,,,,,,,,,,,,,,,,,,,,,,,,,,,,,,,,,,,,,,,,,,,,,,,,,,,0,0,0,0,1,bucket,,,,,,,,,,,,,,,,,,,,,,,,,
,,,,,,,,,,,,,,,88924,001,2022-04-24_16h29.56.021,SPAMnetsValid,2021.1.4,Win32,60.06006006,,,,,,,,,,,,,,,,,,,,,,,,,,,,,,,,,,,,,,,,,,,,,,,,,,,,pillow figh,pillow,0,0,0,0,1,,,,,,,,,,,,,,,,,,,,,,,,,,,,,,,
,,,,,,,,,,,,,,,88924,001,2022-04-24_16h29.56.021,SPAMnetsValid,2021.1.4,Win32,60.06006006,,,,,,,,,,,,,,,,,,,,,,,,,,,,,,,,,,,,,,,,,,,,,,,,,,,,pillow fort,pillow,1,0,1,0,1,,,,,,,,,,,,,,,,,,,,,,,,,,,,,,,
,,,,,,,,,,,,,,,88924,001,2022-04-24_16h29.56.021,SPAMnetsValid,2021.1.4,Win32,60.06006006,,,,,,,,,,,,,,,,,,,,,,,,,,,,,,,,,,,,,,,,,,,,,,,,,,,,seating,pillow,2,0,2,0,1,,,,,,,,,,,,,,,,,,,,,,,,,,,,,,,
,,,,,,,,,,,,,,,88924,001,2022-04-24_16h29.56.021,SPAMnetsValid,2021.1.4,Win32,60.06006006,,,,,,,,,,,,,,,,,,,,,,,,,,,,,,,,,,,,,,,,,,,,,,,,,,,,back support,pillow,3,0,3,0,1,,,,,,,,,,,,,,,,,,,,,,,,,,,,,,,
,,,,,,,,,,,,,,,88924,001,2022-04-24_16h29.56.021,SPAMnetsValid,2021.1.4,Win32,60.06006006,,,,,,,,,,,,,,,,,,,,,,,,,,,,,,,,,,,,,,,,,,,,,,,,,,,,proper alignment,pillow,4,0,4,0,1,,,,,,,,,,,,,,,,,,,,,,,,,,,,,,,
,,,,,,,,,,,,,,,88924,001,2022-04-24_16h29.56.021,SPAMnetsValid,2021.1.4,Win32,60.06006006,,,,,,,,,,,,,,,,,,,,,,,,,,,,,,,,,,,,,,,,,,,,,,,,,,,,dog bed,pillow,5,0,5,0,1,,,,,,,,,,,,,,,,,,,,,,,,,,,,,,,
,,,,,,,,,,,,,,,88924,001,2022-04-24_16h29.56.021,SPAMnetsValid,2021.1.4,Win32,60.06006006,,,,,,,,,,,,,,,,,,,,,,,,,,,,,,,,,,,,,,,,,,,,,,,,,,,,head support,pillow,6,0,6,0,1,,,,,,,,,,,,,,,,,,,,,,,,,,,,,,,
,,,,,,,,,,,,,,,88924,001,2022-04-24_16h29.56.021,SPAMnetsValid,2021.1.4,Win32,60.06006006,,,,,,,,,,,,,,,,,,,,,,,,,,,,,,,,,,,,,,,,,,,,,,,,,,,,sleeping,pillow,7,0,7,0,1,,,,,,,,,,,,,,,,,,,,,,,,,,,,,,,
,,,,,,,,,,,,,,,88924,001,2022-04-24_16h29.56.021,SPAMnetsValid,2021.1.4,Win32,60.06006006,,,,,,,,,,,,,,,,,,,,,,,,,,,,,,,,,,,,,,,,,,,,,,,,,,,,decoration,pillow,8,0,8,0,1,,,,,,,,,,,,,,,,,,,,,,,,,,,,,,,
,,,,,,,,,,,,,,,88924,001,2022-04-24_16h29.56.021,SPAMnetsValid,2021.1.4,Win32,60.06006006,,,,,,,,,,,,,,,,,,,,,,,,,,,,,,,,,,,,,,,,,,,,,,,,,,,,draft sealer in doors,pillow,9,0,9,0,1,,,,,,,,,,,,,,,,,,,,,,,,,,,,,,,
,,,,,,,,,,,,,,,88924,001,2022-04-24_16h29.56.021,SPAMnetsValid,2021.1.4,Win32,60.06006006,,,,,,,,,,,,,,,,,,,,,,,,,,,,,,,,,,,,,,,,,,,,,,,,,,,,,,,,,,,0,1,1,2,1,pillow,,,,,,,,,,,,,,,,,,,,,,,,,
,,,,,,,,,,,,,,,88924,001,2022-04-24_16h29.56.021,SPAMnetsValid,2021.1.4,Win32,60.06006006,,,,,,,,,,,,,,,,,,,,,,,,,,,,,,,,,,,,,,,,,,,,,,,,,,,,emergency lighting,candle,0,0,0,0,1,,,,,,,,,,,,,,,,,,,,,,,,,,,,,,,
,,,,,,,,,,,,,,,88924,001,2022-04-24_16h29.56.021,SPAMnetsValid,2021.1.4,Win32,60.06006006,,,,,,,,,,,,,,,,,,,,,,,,,,,,,,,,,,,,,,,,,,,,,,,,,,,,decoration,candle,1,0,1,0,1,,,,,,,,,,,,,,,,,,,,,,,,,,,,,,,
,,,,,,,,,,,,,,,88924,001,2022-04-24_16h29.56.021,SPAMnetsValid,2021.1.4,Win32,60.06006006,,,,,,,,,,,,,,,,,,,,,,,,,,,,,,,,,,,,,,,,,,,,,,,,,,,,date nights,candle,2,0,2,0,1,,,,,,,,,,,,,,,,,,,,,,,,,,,,,,,
,,,,,,,,,,,,,,,88924,001,2022-04-24_16h29.56.021,SPAMnetsValid,2021.1.4,Win32,60.06006006,,,,,,,,,,,,,,,,,,,,,,,,,,,,,,,,,,,,,,,,,,,,,,,,,,,,relaxation,candle,3,0,3,0,1,,,,,,,,,,,,,,,,,,,,,,,,,,,,,,,
,,,,,,,,,,,,,,,88924,001,2022-04-24_16h29.56.021,SPAMnetsValid,2021.1.4,Win32,60.06006006,,,,,,,,,,,,,,,,,,,,,,,,,,,,,,,,,,,,,,,,,,,,,,,,,,,,regift candle,candle,4,0,4,0,1,,,,,,,,,,,,,,,,,,,,,,,,,,,,,,,
,,,,,,,,,,,,,,,88924,001,2022-04-24_16h29.56.021,SPAMnetsValid,2021.1.4,Win32,60.06006006,,,,,,,,,,,,,,,,,,,,,,,,,,,,,,,,,,,,,,,,,,,,,,,,,,,,remove odor,candle,5,0,5,0,1,,,,,,,,,,,,,,,,,,,,,,,,,,,,,,,
,,,,,,,,,,,,,,,88924,001,2022-04-24_16h29.56.021,SPAMnetsValid,2021.1.4,Win32,60.06006006,,,,,,,,,,,,,,,,,,,,,,,,,,,,,,,,,,,,,,,,,,,,,,,,,,,,,,,,,,,0,2,2,1,1,candle,,,,,,,,,,,,,,,,,,,,,,,,,
,,,,,,,,,,,,,,,88924,001,2022-04-24_16h29.56.021,SPAMnetsValid,2021.1.4,Win32,60.06006006,,,,,,,,,,,,,,,,,,,,,,,,,,,,,,,,,,,,,,,,,,,,,,,,,,,,,,,,,,,,,,,,,dog,Animals,0,0,0,0,1,,,,,,,,,,,,,,,,,,
,,,,,,,,,,,,,,,88924,001,2022-04-24_16h29.56.021,SPAMnetsValid,2021.1.4,Win32,60.06006006,,,,,,,,,,,,,,,,,,,,,,,,,,,,,,,,,,,,,,,,,,,,,,,,,,,,,,,,,,,,,,,,,cat,Animals,1,0,1,0,1,,,,,,,,,,,,,,,,,,
,,,,,,,,,,,,,,,88924,001,2022-04-24_16h29.56.021,SPAMnetsValid,2021.1.4,Win32,60.06006006,,,,,,,,,,,,,,,,,,,,,,,,,,,,,,,,,,,,,,,,,,,,,,,,,,,,,,,,,,,,,,,,,cow,Animals,2,0,2,0,1,,,,,,,,,,,,,,,,,,
,,,,,,,,,,,,,,,88924,001,2022-04-24_16h29.56.021,SPAMnetsValid,2021.1.4,Win32,60.06006006,,,,,,,,,,,,,,,,,,,,,,,,,,,,,,,,,,,,,,,,,,,,,,,,,,,,,,,,,,,,,,,,,sheep,Animals,3,0,3,0,1,,,,,,,,,,,,,,,,,,
,,,,,,,,,,,,,,,88924,001,2022-04-24_16h29.56.021,SPAMnetsValid,2021.1.4,Win32,60.06006006,,,,,,,,,,,,,,,,,,,,,,,,,,,,,,,,,,,,,,,,,,,,,,,,,,,,,,,,,,,,,,,,,pig,Animals,4,0,4,0,1,,,,,,,,,,,,,,,,,,
,,,,,,,,,,,,,,,88924,001,2022-04-24_16h29.56.021,SPAMnetsValid,2021.1.4,Win32,60.06006006,,,,,,,,,,,,,,,,,,,,,,,,,,,,,,,,,,,,,,,,,,,,,,,,,,,,,,,,,,,,,,,,,horse,Animals,5,0,5,0,1,,,,,,,,,,,,,,,,,,
,,,,,,,,,,,,,,,88924,001,2022-04-24_16h29.56.021,SPAMnetsValid,2021.1.4,Win32,60.06006006,,,,,,,,,,,,,,,,,,,,,,,,,,,,,,,,,,,,,,,,,,,,,,,,,,,,,,,,,,,,,,,,,shark,Animals,6,0,6,0,1,,,,,,,,,,,,,,,,,,
,,,,,,,,,,,,,,,88924,001,2022-04-24_16h29.56.021,SPAMnetsValid,2021.1.4,Win32,60.06006006,,,,,,,,,,,,,,,,,,,,,,,,,,,,,,,,,,,,,,,,,,,,,,,,,,,,,,,,,,,,,,,,,dolphin,Animals,7,0,7,0,1,,,,,,,,,,,,,,,,,,
,,,,,,,,,,,,,,,88924,001,2022-04-24_16h29.56.021,SPAMnetsValid,2021.1.4,Win32,60.06006006,,,,,,,,,,,,,,,,,,,,,,,,,,,,,,,,,,,,,,,,,,,,,,,,,,,,,,,,,,,,,,,,,fish,Animals,8,0,8,0,1,,,,,,,,,,,,,,,,,,
,,,,,,,,,,,,,,,88924,001,2022-04-24_16h29.56.021,SPAMnetsValid,2021.1.4,Win32,60.06006006,,,,,,,,,,,,,,,,,,,,,,,,,,,,,,,,,,,,,,,,,,,,,,,,,,,,,,,,,,,,,,,,,whale,Animals,9,0,9,0,1,,,,,,,,,,,,,,,,,,
,,,,,,,,,,,,,,,88924,001,2022-04-24_16h29.56.021,SPAMnetsValid,2021.1.4,Win32,60.06006006,,,,,,,,,,,,,,,,,,,,,,,,,,,,,,,,,,,,,,,,,,,,,,,,,,,,,,,,,,,,,,,,,parrot,Animals,10,0,10,0,1,,,,,,,,,,,,,,,,,,
,,,,,,,,,,,,,,,88924,001,2022-04-24_16h29.56.021,SPAMnetsValid,2021.1.4,Win32,60.06006006,,,,,,,,,,,,,,,,,,,,,,,,,,,,,,,,,,,,,,,,,,,,,,,,,,,,,,,,,,,,,,,,,owl,Animals,11,0,11,0,1,,,,,,,,,,,,,,,,,,
,,,,,,,,,,,,,,,88924,001,2022-04-24_16h29.56.021,SPAMnetsValid,2021.1.4,Win32,60.06006006,,,,,,,,,,,,,,,,,,,,,,,,,,,,,,,,,,,,,,,,,,,,,,,,,,,,,,,,,,,,,,,,,skunk,Animals,12,0,12,0,1,,,,,,,,,,,,,,,,,,
,,,,,,,,,,,,,,,88924,001,2022-04-24_16h29.56.021,SPAMnetsValid,2021.1.4,Win32,60.06006006,,,,,,,,,,,,,,,,,,,,,,,,,,,,,,,,,,,,,,,,,,,,,,,,,,,,,,,,,,,,,,,,,panther,Animals,13,0,13,0,1,,,,,,,,,,,,,,,,,,
,,,,,,,,,,,,,,,88924,001,2022-04-24_16h29.56.021,SPAMnetsValid,2021.1.4,Win32,60.06006006,,,,,,,,,,,,,,,,,,,,,,,,,,,,,,,,,,,,,,,,,,,,,,,,,,,,,,,,,,,,,,,,,lion,Animals,14,0,14,0,1,,,,,,,,,,,,,,,,,,
,,,,,,,,,,,,,,,88924,001,2022-04-24_16h29.56.021,SPAMnetsValid,2021.1.4,Win32,60.06006006,,,,,,,,,,,,,,,,,,,,,,,,,,,,,,,,,,,,,,,,,,,,,,,,,,,,,,,,,,,,,,,,,cheetah,Animals,15,0,15,0,1,,,,,,,,,,,,,,,,,,
,,,,,,,,,,,,,,,88924,001,2022-04-24_16h29.56.021,SPAMnetsValid,2021.1.4,Win32,60.06006006,,,,,,,,,,,,,,,,,,,,,,,,,,,,,,,,,,,,,,,,,,,,,,,,,,,,,,,,,,,,,,,,,monkey,Animals,16,0,16,0,1,,,,,,,,,,,,,,,,,,
,,,,,,,,,,,,,,,88924,001,2022-04-24_16h29.56.021,SPAMnetsValid,2021.1.4,Win32,60.06006006,,,,,,,,,,,,,,,,,,,,,,,,,,,,,,,,,,,,,,,,,,,,,,,,,,,,,,,,,,,,,,,,,groundhog,Animals,17,0,17,0,1,,,,,,,,,,,,,,,,,,
,,,,,,,,,,,,,,,88924,001,2022-04-24_16h29.56.021,SPAMnetsValid,2021.1.4,Win32,60.06006006,,,,,,,,,,,,,,,,,,,,,,,,,,,,,,,,,,,,,,,,,,,,,,,,,,,,,,,,,,,,,,,,,possum,Animals,18,0,18,0,1,,,,,,,,,,,,,,,,,,
,,,,,,,,,,,,,,,88924,001,2022-04-24_16h29.56.021,SPAMnetsValid,2021.1.4,Win32,60.06006006,,,,,,,,,,,,,,,,,,,,,,,,,,,,,,,,,,,,,,,,,,,,,,,,,,,,,,,,,,,,,,,,,squirrel,Animals,19,0,19,0,1,,,,,,,,,,,,,,,,,,
,,,,,,,,,,,,,,,88924,001,2022-04-24_16h29.56.021,SPAMnetsValid,2021.1.4,Win32,60.06006006,,,,,,,,,,,,,,,,,,,,,,,,,,,,,,,,,,,,,,,,,,,,,,,,,,,,,,,,,,,,,,,,,hawk,Animals,20,0,20,0,1,,,,,,,,,,,,,,,,,,
,,,,,,,,,,,,,,,88924,001,2022-04-24_16h29.56.021,SPAMnetsValid,2021.1.4,Win32,60.06006006,,,,,,,,,,,,,,,,,,,,,,,,,,,,,,,,,,,,,,,,,,,,,,,,,,,,,,,,,,,,,,,,,chipmunk,Animals,21,0,21,0,1,,,,,,,,,,,,,,,,,,
,,,,,,,,,,,,,,,88924,001,2022-04-24_16h29.56.021,SPAMnetsValid,2021.1.4,Win32,60.06006006,,,,,,,,,,,,,,,,,,,,,,,,,,,,,,,,,,,,,,,,,,,,,,,,,,,,,,,,,,,,,,,,,giraffe,Animals,22,0,22,0,1,,,,,,,,,,,,,,,,,,
,,,,,,,,,,,,,,,88924,001,2022-04-24_16h29.56.021,SPAMnetsValid,2021.1.4,Win32,60.06006006,,,,,,,,,,,,,,,,,,,,,,,,,,,,,,,,,,,,,,,,,,,,,,,,,,,,,,,,,,,,,,,,,crocodile,Animals,23,0,23,0,1,,,,,,,,,,,,,,,,,,
,,,,,,,,,,,,,,,88924,001,2022-04-24_16h29.56.021,SPAMnetsValid,2021.1.4,Win32,60.06006006,,,,,,,,,,,,,,,,,,,,,,,,,,,,,,,,,,,,,,,,,,,,,,,,,,,,,,,,,,,,,,,,,chicken,Animals,24,0,24,0,1,,,,,,,,,,,,,,,,,,
,,,,,,,,,,,,,,,88924,001,2022-04-24_16h29.56.021,SPAMnetsValid,2021.1.4,Win32,60.06006006,,,,,,,,,,,,,,,,,,,,,,,,,,,,,,,,,,,,,,,,,,,,,,,,,,,,,,,,,,,,,,,,,alligator,Animals,25,0,25,0,1,,,,,,,,,,,,,,,,,,
,,,,,,,,,,,,,,,88924,001,2022-04-24_16h29.56.021,SPAMnetsValid,2021.1.4,Win32,60.06006006,,,,,,,,,,,,,,,,,,,,,,,,,,,,,,,,,,,,,,,,,,,,,,,,,,,,,,,,,,,,,,,,,beaver,Animals,26,0,26,0,1,,,,,,,,,,,,,,,,,,
,,,,,,,,,,,,,,,88924,001,2022-04-24_16h29.56.021,SPAMnetsValid,2021.1.4,Win32,60.06006006,,,,,,,,,,,,,,,,,,,,,,,,,,,,,,,,,,,,,,,,,,,,,,,,,,,,,,,,,,,,,,,,,platypus,Animals,27,0,27,0,1,,,,,,,,,,,,,,,,,,
,,,,,,,,,,,,,,,88924,001,2022-04-24_16h29.56.021,SPAMnetsValid,2021.1.4,Win32,60.06006006,,,,,,,,,,,,,,,,,,,,,,,,,,,,,,,,,,,,,,,,,,,,,,,,,,,,,,,,,,,,,,,,,,,,,,,,0,0,0,0,1,Animals,,,,,,,,,,,,
,,,,,,,,,,,,,,,88924,001,2022-04-24_16h29.56.021,SPAMnetsValid,2021.1.4,Win32,60.06006006,,,,,,,,,,,,,,,,,,,,,,,,,,,,,,,,,,,,,,,,,,,,,,,,,,,,,,,,,,,,,,,,,,,,,,,,,,,,,,4,10.2539,0,0,0,0,1,"I enjoy concentrating on a fantasy or daydream and exploring all its possibilities, letting it grow and develop.",0,1,,
,,,,,,,,,,,,,,,88924,001,2022-04-24_16h29.56.021,SPAMnetsValid,2021.1.4,Win32,60.06006006,,,,,,,,,,,,,,,,,,,,,,,,,,,,,,,,,,,,,,,,,,,,,,,,,,,,,,,,,,,,,,,,,,,,,,,,,,,,,,4,2.0262,0,1,1,1,1,I think it's interesting to learn and develop new hobbies.,0,2,,
,,,,,,,,,,,,,,,88924,001,2022-04-24_16h29.56.021,SPAMnetsValid,2021.1.4,Win32,60.06006006,,,,,,,,,,,,,,,,,,,,,,,,,,,,,,,,,,,,,,,,,,,,,,,,,,,,,,,,,,,,,,,,,,,,,,,,,,,,,,2,3.1027,0,2,2,2,1,I am intrigued by the patterns I find in art and nature.,0,3,,
,,,,,,,,,,,,,,,88924,001,2022-04-24_16h29.56.021,SPAMnetsValid,2021.1.4,Win32,60.06006006,,,,,,,,,,,,,,,,,,,,,,,,,,,,,,,,,,,,,,,,,,,,,,,,,,,,,,,,,,,,,,,,,,,,,,,,,,,,,,2,3.3429,0,3,3,3,1,I believe letting students hear controversial speakers can only confuse and mislead them.,1,4,,
,,,,,,,,,,,,,,,88924,001,2022-04-24_16h29.56.021,SPAMnetsValid,2021.1.4,Win32,60.06006006,,,,,,,,,,,,,,,,,,,,,,,,,,,,,,,,,,,,,,,,,,,,,,,,,,,,,,,,,,,,,,,,,,,,,,,,,,,,,,4,2.9437,0,4,4,4,1,Poetry has little or no effect on me.,1,5,,
,,,,,,,,,,,,,,,88924,001,2022-04-24_16h29.56.021,SPAMnetsValid,2021.1.4,Win32,60.06006006,,,,,,,,,,,,,,,,,,,,,,,,,,,,,,,,,,,,,,,,,,,,,,,,,,,,,,,,,,,,,,,,,,,,,,,,,,,,,,4,4.9505,0,5,5,5,1,I would have difficulty just letting my mind wander without control or guidance.,1,6,,
,,,,,,,,,,,,,,,88924,001,2022-04-24_16h29.56.021,SPAMnetsValid,2021.1.4,Win32,60.06006006,,,,,,,,,,,,,,,,,,,,,,,,,,,,,,,,,,,,,,,,,,,,,,,,,,,,,,,,,,,,,,,,,,,,,,,,,,,,,,3,6.2405,0,6,6,6,1,I seldom notice the moods or feelings that different environments produce.,1,7,,
,,,,,,,,,,,,,,,88924,001,2022-04-24_16h29.56.021,SPAMnetsValid,2021.1.4,Win32,60.06006006,,,,,,,,,,,,,,,,,,,,,,,,,,,,,,,,,,,,,,,,,,,,,,,,,,,,,,,,,,,,,,,,,,,,,,,,,,,,,,2,1.7918,0,7,7,7,1,I experience a wide range of emotions or feelings.,0,8,,
,,,,,,,,,,,,,,,88924,001,2022-04-24_16h29.56.021,SPAMnetsValid,2021.1.4,Win32,60.06006006,,,,,,,,,,,,,,,,,,,,,,,,,,,,,,,,,,,,,,,,,,,,,,,,,,,,,,,,,,,,,,,,,,,,,,,,,,,,,,2,1.8937,0,8,8,8,1,"Sometimes when I am reading poetry or looking at a work of art, I feel a chill or wave of excitement.",0,9,,
,,,,,,,,,,,,,,,88924,001,2022-04-24_16h29.56.021,SPAMnetsValid,2021.1.4,Win32,60.06006006,,,,,,,,,,,,,,,,,,,,,,,,,,,,,,,,,,,,,,,,,,,,,,,,,,,,,,,,,,,,,,,,,,,,,,,,,,,,,,3,3.3406,0,9,9,9,1,I have little interest in speculating on the nature of the universe or the human condition.,1,10,,
,,,,,,,,,,,,,,,88924,001,2022-04-24_16h29.56.021,SPAMnetsValid,2021.1.4,Win32,60.06006006,,,,,,,,,,,,,,,,,,,,,,,,,,,,,,,,,,,,,,,,,,,,,,,,,,,,,,,,,,,,,,,,,,,,,,,,,,,,,,4,3.4501,0,10,10,10,1,I have a lot of intellectual curiosity.,0,11,,
,,,,,,,,,,,,,,,88924,001,2022-04-24_16h29.56.021,SPAMnetsValid,2021.1.4,Win32,60.06006006,,,,,,,,,,,,,,,,,,,,,,,,,,,,,,,,,,,,,,,,,,,,,,,,,,,,,,,,,,,,,,,,,,,,,,,,,,,,,,3,2.1683,0,11,11,11,1,I often enjoy playing with theories or abstract ideas.,0,12,,
,,,,,,,,,,,,,,,88924,001,2022-04-24_16h29.56.021,SPAMnetsValid,2021.1.4,Win32,60.06006006,,,,,,,,,,,,,,,,,,,,,,,,,,,,,,,,,,,,,,,,,,,,,,,,,,,,,,,,,,,,,,,,,,,,,,,,,,,,,,,,,,,,,,,,return,3.9364
