key_resp_3.keys,key_resp_3.rt,slider_2.response,slider_2.rt,rjt_rating,rjt_RT,trials_24.thisRepN,trials_24.thisTrialN,trials_24.thisN,trials_24.thisIndex,trials_24.ran,rjt_order,word1,word2,attention,participant,session,date,expName,psychopyVersion,OS,frameRate,trials_4.thisRepN,trials_4.thisTrialN,trials_4.thisN,trials_4.thisIndex,trials_4.ran,trials_5.thisRepN,trials_5.thisTrialN,trials_5.thisN,trials_5.thisIndex,trials_5.ran,repOne,repTwo,slider.response,slider.rt,trials_22.thisRepN,trials_22.thisTrialN,trials_22.thisN,trials_22.thisIndex,trials_22.ran,trials_99.thisRepN,trials_99.thisTrialN,trials_99.thisN,trials_99.thisIndex,trials_99.ran,slider_extend_2.response,slider_extend_2.rt,trials_6.thisRepN,trials_6.thisTrialN,trials_6.thisN,trials_6.thisIndex,trials_6.ran,vCue2,R1,R2,R3,R4,correct,sliderVocab.response,sliderVocab.rt,trials_7.thisRepN,trials_7.thisTrialN,trials_7.thisN,trials_7.thisIndex,trials_7.ran,VocabCue,VR1,VR2,VR3,VR4,VR5,VocabCorrect,AUT_resp,AUT_label,trials.thisRepN,trials.thisTrialN,trials.thisN,trials.thisIndex,trials.ran,trials_2.thisRepN,trials_2.thisTrialN,trials_2.thisN,trials_2.thisIndex,trials_2.ran,aut_prompt,VF_response,VF_tag,trials_16.thisRepN,trials_16.thisTrialN,trials_16.thisN,trials_16.thisIndex,trials_16.ran,trials_17.thisRepN,trials_17.thisTrialN,trials_17.thisN,trials_17.thisIndex,trials_17.ran,VFcond,open_slider.response,open_slider.rt,trials_3.thisRepN,trials_3.thisTrialN,trials_3.thisN,trials_3.thisIndex,trials_3.ran,OpenQ,Rev,OPEN_ORDER,key_resp_2.keys,key_resp_2.rt
return,89.5306,1,2.4242,1,2.4242,0,0,0,12,1,162,microwave,tomato,,88924,001,2022-04-24_15h56.51.001,SPAMnetsValid,2021.1.4,Win32,60.48874909,,,,,,,,,,,,,,,,,,,,,,,,,,,,,,,,,,,,,,,,,,,,,,,,,,,,,,,,,,,,,,,,,,,,,,,,,,,,,,,,,,,,,,,,,
,,5,7.065,5,7.065,0,1,1,10,1,118,chocolate,oven,,88924,001,2022-04-24_15h56.51.001,SPAMnetsValid,2021.1.4,Win32,60.48874909,,,,,,,,,,,,,,,,,,,,,,,,,,,,,,,,,,,,,,,,,,,,,,,,,,,,,,,,,,,,,,,,,,,,,,,,,,,,,,,,,,,,,,,,,
,,1,3.2903,1,3.2903,0,2,2,31,1,156,melon,rose,,88924,001,2022-04-24_15h56.51.001,SPAMnetsValid,2021.1.4,Win32,60.48874909,,,,,,,,,,,,,,,,,,,,,,,,,,,,,,,,,,,,,,,,,,,,,,,,,,,,,,,,,,,,,,,,,,,,,,,,,,,,,,,,,,,,,,,,,
,,7,2.4946,7,2.4946,0,3,3,51,1,168,cactus,flower,,88924,001,2022-04-24_15h56.51.001,SPAMnetsValid,2021.1.4,Win32,60.48874909,,,,,,,,,,,,,,,,,,,,,,,,,,,,,,,,,,,,,,,,,,,,,,,,,,,,,,,,,,,,,,,,,,,,,,,,,,,,,,,,,,,,,,,,,
,,7,2.8054,7,2.8054,0,4,4,77,1,172,kitchen,melon,,88924,001,2022-04-24_15h56.51.001,SPAMnetsValid,2021.1.4,Win32,60.48874909,,,,,,,,,,,,,,,,,,,,,,,,,,,,,,,,,,,,,,,,,,,,,,,,,,,,,,,,,,,,,,,,,,,,,,,,,,,,,,,,,,,,,,,,,
,,6,2.9175,6,2.9175,0,5,5,1,1,173,kitchen,tomato,,88924,001,2022-04-24_15h56.51.001,SPAMnetsValid,2021.1.4,Win32,60.48874909,,,,,,,,,,,,,,,,,,,,,,,,,,,,,,,,,,,,,,,,,,,,,,,,,,,,,,,,,,,,,,,,,,,,,,,,,,,,,,,,,,,,,,,,,
,,4,2.2408,4,2.2408,0,6,6,2,1,174,cake,pretzel,,88924,001,2022-04-24_15h56.51.001,SPAMnetsValid,2021.1.4,Win32,60.48874909,,,,,,,,,,,,,,,,,,,,,,,,,,,,,,,,,,,,,,,,,,,,,,,,,,,,,,,,,,,,,,,,,,,,,,,,,,,,,,,,,,,,,,,,,
,,7,2.1751,7,2.1751,0,7,7,72,1,181,carrot,kitchen,,88924,001,2022-04-24_15h56.51.001,SPAMnetsValid,2021.1.4,Win32,60.48874909,,,,,,,,,,,,,,,,,,,,,,,,,,,,,,,,,,,,,,,,,,,,,,,,,,,,,,,,,,,,,,,,,,,,,,,,,,,,,,,,,,,,,,,,,
,,8,2.4863,8,2.4863,0,8,8,66,1,150,microwave,refrigerator,,88924,001,2022-04-24_15h56.51.001,SPAMnetsValid,2021.1.4,Win32,60.48874909,,,,,,,,,,,,,,,,,,,,,,,,,,,,,,,,,,,,,,,,,,,,,,,,,,,,,,,,,,,,,,,,,,,,,,,,,,,,,,,,,,,,,,,,,
,,2,2.1551,2,2.1551,0,9,9,9,1,176,cactus,tomato,,88924,001,2022-04-24_15h56.51.001,SPAMnetsValid,2021.1.4,Win32,60.48874909,,,,,,,,,,,,,,,,,,,,,,,,,,,,,,,,,,,,,,,,,,,,,,,,,,,,,,,,,,,,,,,,,,,,,,,,,,,,,,,,,,,,,,,,,
,,6,2.0634,6,2.0634,0,10,10,70,1,141,melon,tomato,,88924,001,2022-04-24_15h56.51.001,SPAMnetsValid,2021.1.4,Win32,60.48874909,,,,,,,,,,,,,,,,,,,,,,,,,,,,,,,,,,,,,,,,,,,,,,,,,,,,,,,,,,,,,,,,,,,,,,,,,,,,,,,,,,,,,,,,,
,,5,2.7239,5,2.7239,0,11,11,96,1,136,chocolate,microwave,,88924,001,2022-04-24_15h56.51.001,SPAMnetsValid,2021.1.4,Win32,60.48874909,,,,,,,,,,,,,,,,,,,,,,,,,,,,,,,,,,,,,,,,,,,,,,,,,,,,,,,,,,,,,,,,,,,,,,,,,,,,,,,,,,,,,,,,,
,,9,2.099,9,2.099,0,12,12,60,1,122,flower,garden,,88924,001,2022-04-24_15h56.51.001,SPAMnetsValid,2021.1.4,Win32,60.48874909,,,,,,,,,,,,,,,,,,,,,,,,,,,,,,,,,,,,,,,,,,,,,,,,,,,,,,,,,,,,,,,,,,,,,,,,,,,,,,,,,,,,,,,,,
,,2,2.5864,2,2.5864,0,13,13,46,1,123,cookie,tree,,88924,001,2022-04-24_15h56.51.001,SPAMnetsValid,2021.1.4,Win32,60.48874909,,,,,,,,,,,,,,,,,,,,,,,,,,,,,,,,,,,,,,,,,,,,,,,,,,,,,,,,,,,,,,,,,,,,,,,,,,,,,,,,,,,,,,,,,
,,8,2.6202,8,2.6202,0,14,14,8,1,97,chocolate,kitchen,,88924,001,2022-04-24_15h56.51.001,SPAMnetsValid,2021.1.4,Win32,60.48874909,,,,,,,,,,,,,,,,,,,,,,,,,,,,,,,,,,,,,,,,,,,,,,,,,,,,,,,,,,,,,,,,,,,,,,,,,,,,,,,,,,,,,,,,,
,,4,2.1564,4,2.1564,0,15,15,91,1,166,cake,yogurt,,88924,001,2022-04-24_15h56.51.001,SPAMnetsValid,2021.1.4,Win32,60.48874909,,,,,,,,,,,,,,,,,,,,,,,,,,,,,,,,,,,,,,,,,,,,,,,,,,,,,,,,,,,,,,,,,,,,,,,,,,,,,,,,,,,,,,,,,
,,9,1.9877,9,1.9877,0,16,16,52,1,110,chocolate,cookie,,88924,001,2022-04-24_15h56.51.001,SPAMnetsValid,2021.1.4,Win32,60.48874909,,,,,,,,,,,,,,,,,,,,,,,,,,,,,,,,,,,,,,,,,,,,,,,,,,,,,,,,,,,,,,,,,,,,,,,,,,,,,,,,,,,,,,,,,
,,3,2.9552,3,2.9552,0,17,17,50,1,126,kitchen,tree,,88924,001,2022-04-24_15h56.51.001,SPAMnetsValid,2021.1.4,Win32,60.48874909,,,,,,,,,,,,,,,,,,,,,,,,,,,,,,,,,,,,,,,,,,,,,,,,,,,,,,,,,,,,,,,,,,,,,,,,,,,,,,,,,,,,,,,,,
,,1,2.019,1,2.019,0,18,18,58,1,144,cake,garden,,88924,001,2022-04-24_15h56.51.001,SPAMnetsValid,2021.1.4,Win32,60.48874909,,,,,,,,,,,,,,,,,,,,,,,,,,,,,,,,,,,,,,,,,,,,,,,,,,,,,,,,,,,,,,,,,,,,,,,,,,,,,,,,,,,,,,,,,
,,2,2.7348,2,2.7348,0,19,19,62,1,189,onion,tree,,88924,001,2022-04-24_15h56.51.001,SPAMnetsValid,2021.1.4,Win32,60.48874909,,,,,,,,,,,,,,,,,,,,,,,,,,,,,,,,,,,,,,,,,,,,,,,,,,,,,,,,,,,,,,,,,,,,,,,,,,,,,,,,,,,,,,,,,
,,9,2.4233,9,2.4233,0,20,20,25,1,194,cactus,cactus,CHECK,88924,001,2022-04-24_15h56.51.001,SPAMnetsValid,2021.1.4,Win32,60.48874909,,,,,,,,,,,,,,,,,,,,,,,,,,,,,,,,,,,,,,,,,,,,,,,,,,,,,,,,,,,,,,,,,,,,,,,,,,,,,,,,,,,,,,,,,
,,9,2.2582,9,2.2582,0,21,21,44,1,116,cake,chocolate,,88924,001,2022-04-24_15h56.51.001,SPAMnetsValid,2021.1.4,Win32,60.48874909,,,,,,,,,,,,,,,,,,,,,,,,,,,,,,,,,,,,,,,,,,,,,,,,,,,,,,,,,,,,,,,,,,,,,,,,,,,,,,,,,,,,,,,,,
,,7,1.9749,7,1.9749,0,22,22,56,1,113,refrigerator,strawberry,,88924,001,2022-04-24_15h56.51.001,SPAMnetsValid,2021.1.4,Win32,60.48874909,,,,,,,,,,,,,,,,,,,,,,,,,,,,,,,,,,,,,,,,,,,,,,,,,,,,,,,,,,,,,,,,,,,,,,,,,,,,,,,,,,,,,,,,,
,,4,2.0513,4,2.0513,0,23,23,75,1,178,cactus,carrot,,88924,001,2022-04-24_15h56.51.001,SPAMnetsValid,2021.1.4,Win32,60.48874909,,,,,,,,,,,,,,,,,,,,,,,,,,,,,,,,,,,,,,,,,,,,,,,,,,,,,,,,,,,,,,,,,,,,,,,,,,,,,,,,,,,,,,,,,
,,9,1.7885,9,1.7885,0,24,24,14,1,120,microwave,oven,,88924,001,2022-04-24_15h56.51.001,SPAMnetsValid,2021.1.4,Win32,60.48874909,,,,,,,,,,,,,,,,,,,,,,,,,,,,,,,,,,,,,,,,,,,,,,,,,,,,,,,,,,,,,,,,,,,,,,,,,,,,,,,,,,,,,,,,,
,,3,2.5885,3,2.5885,0,25,25,82,1,98,pretzel,strawberry,,88924,001,2022-04-24_15h56.51.001,SPAMnetsValid,2021.1.4,Win32,60.48874909,,,,,,,,,,,,,,,,,,,,,,,,,,,,,,,,,,,,,,,,,,,,,,,,,,,,,,,,,,,,,,,,,,,,,,,,,,,,,,,,,,,,,,,,,
,,3,1.6189,3,1.6189,0,26,26,5,1,108,carrot,chocolate,,88924,001,2022-04-24_15h56.51.001,SPAMnetsValid,2021.1.4,Win32,60.48874909,,,,,,,,,,,,,,,,,,,,,,,,,,,,,,,,,,,,,,,,,,,,,,,,,,,,,,,,,,,,,,,,,,,,,,,,,,,,,,,,,,,,,,,,,
,,4,2.1018,4,2.1018,0,27,27,23,1,148,flower,melon,,88924,001,2022-04-24_15h56.51.001,SPAMnetsValid,2021.1.4,Win32,60.48874909,,,,,,,,,,,,,,,,,,,,,,,,,,,,,,,,,,,,,,,,,,,,,,,,,,,,,,,,,,,,,,,,,,,,,,,,,,,,,,,,,,,,,,,,,
,,5,3.1425,5,3.1425,0,28,28,11,1,117,melon,strawberry,,88924,001,2022-04-24_15h56.51.001,SPAMnetsValid,2021.1.4,Win32,60.48874909,,,,,,,,,,,,,,,,,,,,,,,,,,,,,,,,,,,,,,,,,,,,,,,,,,,,,,,,,,,,,,,,,,,,,,,,,,,,,,,,,,,,,,,,,
,,3,1.7496,3,1.7496,0,29,29,80,1,146,pretzel,tree,,88924,001,2022-04-24_15h56.51.001,SPAMnetsValid,2021.1.4,Win32,60.48874909,,,,,,,,,,,,,,,,,,,,,,,,,,,,,,,,,,,,,,,,,,,,,,,,,,,,,,,,,,,,,,,,,,,,,,,,,,,,,,,,,,,,,,,,,
,,1,1.7651,1,1.7651,0,30,30,64,1,157,refrigerator,rose,,88924,001,2022-04-24_15h56.51.001,SPAMnetsValid,2021.1.4,Win32,60.48874909,,,,,,,,,,,,,,,,,,,,,,,,,,,,,,,,,,,,,,,,,,,,,,,,,,,,,,,,,,,,,,,,,,,,,,,,,,,,,,,,,,,,,,,,,
,,2,1.5286,2,1.5286,0,31,31,30,1,125,carrot,tree,,88924,001,2022-04-24_15h56.51.001,SPAMnetsValid,2021.1.4,Win32,60.48874909,,,,,,,,,,,,,,,,,,,,,,,,,,,,,,,,,,,,,,,,,,,,,,,,,,,,,,,,,,,,,,,,,,,,,,,,,,,,,,,,,,,,,,,,,
,,2,1.9689,2,1.9689,0,32,32,63,1,137,microwave,tree,,88924,001,2022-04-24_15h56.51.001,SPAMnetsValid,2021.1.4,Win32,60.48874909,,,,,,,,,,,,,,,,,,,,,,,,,,,,,,,,,,,,,,,,,,,,,,,,,,,,,,,,,,,,,,,,,,,,,,,,,,,,,,,,,,,,,,,,,
,,7,1.8718,7,1.8718,0,33,33,48,1,186,kitchen,yogurt,,88924,001,2022-04-24_15h56.51.001,SPAMnetsValid,2021.1.4,Win32,60.48874909,,,,,,,,,,,,,,,,,,,,,,,,,,,,,,,,,,,,,,,,,,,,,,,,,,,,,,,,,,,,,,,,,,,,,,,,,,,,,,,,,,,,,,,,,
,,3,1.8219,3,1.8219,0,34,34,42,1,184,oven,pretzel,,88924,001,2022-04-24_15h56.51.001,SPAMnetsValid,2021.1.4,Win32,60.48874909,,,,,,,,,,,,,,,,,,,,,,,,,,,,,,,,,,,,,,,,,,,,,,,,,,,,,,,,,,,,,,,,,,,,,,,,,,,,,,,,,,,,,,,,,
,,8,3.12,8,3.12,0,35,35,27,1,158,cookie,oven,,88924,001,2022-04-24_15h56.51.001,SPAMnetsValid,2021.1.4,Win32,60.48874909,,,,,,,,,,,,,,,,,,,,,,,,,,,,,,,,,,,,,,,,,,,,,,,,,,,,,,,,,,,,,,,,,,,,,,,,,,,,,,,,,,,,,,,,,
,,5,2.7731,5,2.7731,0,36,36,74,1,128,melon,microwave,,88924,001,2022-04-24_15h56.51.001,SPAMnetsValid,2021.1.4,Win32,60.48874909,,,,,,,,,,,,,,,,,,,,,,,,,,,,,,,,,,,,,,,,,,,,,,,,,,,,,,,,,,,,,,,,,,,,,,,,,,,,,,,,,,,,,,,,,
,,9,2.2891,9,2.2891,0,37,37,7,1,188,flower,tree,,88924,001,2022-04-24_15h56.51.001,SPAMnetsValid,2021.1.4,Win32,60.48874909,,,,,,,,,,,,,,,,,,,,,,,,,,,,,,,,,,,,,,,,,,,,,,,,,,,,,,,,,,,,,,,,,,,,,,,,,,,,,,,,,,,,,,,,,
,,3,1.8235,3,1.8235,0,38,38,16,1,111,carrot,microwave,,88924,001,2022-04-24_15h56.51.001,SPAMnetsValid,2021.1.4,Win32,60.48874909,,,,,,,,,,,,,,,,,,,,,,,,,,,,,,,,,,,,,,,,,,,,,,,,,,,,,,,,,,,,,,,,,,,,,,,,,,,,,,,,,,,,,,,,,
,,9,1.9736,9,1.9736,0,39,39,86,1,193,melon,melon,CHECK,88924,001,2022-04-24_15h56.51.001,SPAMnetsValid,2021.1.4,Win32,60.48874909,,,,,,,,,,,,,,,,,,,,,,,,,,,,,,,,,,,,,,,,,,,,,,,,,,,,,,,,,,,,,,,,,,,,,,,,,,,,,,,,,,,,,,,,,
,,9,1.6549,9,1.6549,0,40,40,22,1,142,garden,tree,,88924,001,2022-04-24_15h56.51.001,SPAMnetsValid,2021.1.4,Win32,60.48874909,,,,,,,,,,,,,,,,,,,,,,,,,,,,,,,,,,,,,,,,,,,,,,,,,,,,,,,,,,,,,,,,,,,,,,,,,,,,,,,,,,,,,,,,,
,,2,2.0903,2,2.0903,0,41,41,68,1,180,tree,yogurt,,88924,001,2022-04-24_15h56.51.001,SPAMnetsValid,2021.1.4,Win32,60.48874909,,,,,,,,,,,,,,,,,,,,,,,,,,,,,,,,,,,,,,,,,,,,,,,,,,,,,,,,,,,,,,,,,,,,,,,,,,,,,,,,,,,,,,,,,
,,3,4.4673,3,4.4673,0,42,42,34,1,153,carrot,pretzel,,88924,001,2022-04-24_15h56.51.001,SPAMnetsValid,2021.1.4,Win32,60.48874909,,,,,,,,,,,,,,,,,,,,,,,,,,,,,,,,,,,,,,,,,,,,,,,,,,,,,,,,,,,,,,,,,,,,,,,,,,,,,,,,,,,,,,,,,
,,6,1.8142,6,1.8142,0,43,43,36,1,161,kitchen,pretzel,,88924,001,2022-04-24_15h56.51.001,SPAMnetsValid,2021.1.4,Win32,60.48874909,,,,,,,,,,,,,,,,,,,,,,,,,,,,,,,,,,,,,,,,,,,,,,,,,,,,,,,,,,,,,,,,,,,,,,,,,,,,,,,,,,,,,,,,,
,,1,1.6374,1,1.6374,0,44,44,54,1,101,cactus,kitchen,,88924,001,2022-04-24_15h56.51.001,SPAMnetsValid,2021.1.4,Win32,60.48874909,,,,,,,,,,,,,,,,,,,,,,,,,,,,,,,,,,,,,,,,,,,,,,,,,,,,,,,,,,,,,,,,,,,,,,,,,,,,,,,,,,,,,,,,,
,,1,1.2244,1,1.2244,0,45,45,71,1,187,cactus,microwave,,88924,001,2022-04-24_15h56.51.001,SPAMnetsValid,2021.1.4,Win32,60.48874909,,,,,,,,,,,,,,,,,,,,,,,,,,,,,,,,,,,,,,,,,,,,,,,,,,,,,,,,,,,,,,,,,,,,,,,,,,,,,,,,,,,,,,,,,
,,5,2.4211,5,2.4211,0,46,46,41,1,175,melon,onion,,88924,001,2022-04-24_15h56.51.001,SPAMnetsValid,2021.1.4,Win32,60.48874909,,,,,,,,,,,,,,,,,,,,,,,,,,,,,,,,,,,,,,,,,,,,,,,,,,,,,,,,,,,,,,,,,,,,,,,,,,,,,,,,,,,,,,,,,
,,6,2.7524,6,2.7524,0,47,47,92,1,170,cookie,microwave,,88924,001,2022-04-24_15h56.51.001,SPAMnetsValid,2021.1.4,Win32,60.48874909,,,,,,,,,,,,,,,,,,,,,,,,,,,,,,,,,,,,,,,,,,,,,,,,,,,,,,,,,,,,,,,,,,,,,,,,,,,,,,,,,,,,,,,,,
,,2,1.9685,2,1.9685,0,48,48,21,1,159,cookie,flower,,88924,001,2022-04-24_15h56.51.001,SPAMnetsValid,2021.1.4,Win32,60.48874909,,,,,,,,,,,,,,,,,,,,,,,,,,,,,,,,,,,,,,,,,,,,,,,,,,,,,,,,,,,,,,,,,,,,,,,,,,,,,,,,,,,,,,,,,
,,1,1.9189,1,1.9189,0,49,49,45,1,179,broom,oven,,88924,001,2022-04-24_15h56.51.001,SPAMnetsValid,2021.1.4,Win32,60.48874909,,,,,,,,,,,,,,,,,,,,,,,,,,,,,,,,,,,,,,,,,,,,,,,,,,,,,,,,,,,,,,,,,,,,,,,,,,,,,,,,,,,,,,,,,
,,9,2.2824,9,2.2824,0,50,50,61,1,138,flower,rose,,88924,001,2022-04-24_15h56.51.001,SPAMnetsValid,2021.1.4,Win32,60.48874909,,,,,,,,,,,,,,,,,,,,,,,,,,,,,,,,,,,,,,,,,,,,,,,,,,,,,,,,,,,,,,,,,,,,,,,,,,,,,,,,,,,,,,,,,
,,6,2.6374,6,2.6374,0,51,51,0,1,106,cake,strawberry,,88924,001,2022-04-24_15h56.51.001,SPAMnetsValid,2021.1.4,Win32,60.48874909,,,,,,,,,,,,,,,,,,,,,,,,,,,,,,,,,,,,,,,,,,,,,,,,,,,,,,,,,,,,,,,,,,,,,,,,,,,,,,,,,,,,,,,,,
,,1,2.8423,1,2.8423,0,52,52,19,1,183,cake,rose,,88924,001,2022-04-24_15h56.51.001,SPAMnetsValid,2021.1.4,Win32,60.48874909,,,,,,,,,,,,,,,,,,,,,,,,,,,,,,,,,,,,,,,,,,,,,,,,,,,,,,,,,,,,,,,,,,,,,,,,,,,,,,,,,,,,,,,,,
,,6,1.9295,6,1.9295,0,53,53,85,1,115,refrigerator,tomato,,88924,001,2022-04-24_15h56.51.001,SPAMnetsValid,2021.1.4,Win32,60.48874909,,,,,,,,,,,,,,,,,,,,,,,,,,,,,,,,,,,,,,,,,,,,,,,,,,,,,,,,,,,,,,,,,,,,,,,,,,,,,,,,,,,,,,,,,
,,1,1.6735,1,1.6735,0,54,54,3,1,129,cactus,refrigerator,,88924,001,2022-04-24_15h56.51.001,SPAMnetsValid,2021.1.4,Win32,60.48874909,,,,,,,,,,,,,,,,,,,,,,,,,,,,,,,,,,,,,,,,,,,,,,,,,,,,,,,,,,,,,,,,,,,,,,,,,,,,,,,,,,,,,,,,,
,,5,2.2847,5,2.2847,0,55,55,89,1,140,cookie,refrigerator,,88924,001,2022-04-24_15h56.51.001,SPAMnetsValid,2021.1.4,Win32,60.48874909,,,,,,,,,,,,,,,,,,,,,,,,,,,,,,,,,,,,,,,,,,,,,,,,,,,,,,,,,,,,,,,,,,,,,,,,,,,,,,,,,,,,,,,,,
,,2,2.042,2,2.042,0,56,56,94,1,133,cake,flower,,88924,001,2022-04-24_15h56.51.001,SPAMnetsValid,2021.1.4,Win32,60.48874909,,,,,,,,,,,,,,,,,,,,,,,,,,,,,,,,,,,,,,,,,,,,,,,,,,,,,,,,,,,,,,,,,,,,,,,,,,,,,,,,,,,,,,,,,
,,1,2.553,1,2.553,0,57,57,59,1,164,cookie,garden,,88924,001,2022-04-24_15h56.51.001,SPAMnetsValid,2021.1.4,Win32,60.48874909,,,,,,,,,,,,,,,,,,,,,,,,,,,,,,,,,,,,,,,,,,,,,,,,,,,,,,,,,,,,,,,,,,,,,,,,,,,,,,,,,,,,,,,,,
,,5,4.2564,5,4.2564,0,58,58,37,1,139,carrot,strawberry,,88924,001,2022-04-24_15h56.51.001,SPAMnetsValid,2021.1.4,Win32,60.48874909,,,,,,,,,,,,,,,,,,,,,,,,,,,,,,,,,,,,,,,,,,,,,,,,,,,,,,,,,,,,,,,,,,,,,,,,,,,,,,,,,,,,,,,,,
,,1,1.7218,1,1.7218,0,59,59,20,1,149,broom,tomato,,88924,001,2022-04-24_15h56.51.001,SPAMnetsValid,2021.1.4,Win32,60.48874909,,,,,,,,,,,,,,,,,,,,,,,,,,,,,,,,,,,,,,,,,,,,,,,,,,,,,,,,,,,,,,,,,,,,,,,,,,,,,,,,,,,,,,,,,
,,5,8.3207,5,8.3207,0,60,60,17,1,99,garden,melon,,88924,001,2022-04-24_15h56.51.001,SPAMnetsValid,2021.1.4,Win32,60.48874909,,,,,,,,,,,,,,,,,,,,,,,,,,,,,,,,,,,,,,,,,,,,,,,,,,,,,,,,,,,,,,,,,,,,,,,,,,,,,,,,,,,,,,,,,
,,4,3.506,4,3.506,0,61,61,73,1,135,carrot,oven,,88924,001,2022-04-24_15h56.51.001,SPAMnetsValid,2021.1.4,Win32,60.48874909,,,,,,,,,,,,,,,,,,,,,,,,,,,,,,,,,,,,,,,,,,,,,,,,,,,,,,,,,,,,,,,,,,,,,,,,,,,,,,,,,,,,,,,,,
,,2,2.5053,2,2.5053,0,62,62,40,1,165,onion,rose,,88924,001,2022-04-24_15h56.51.001,SPAMnetsValid,2021.1.4,Win32,60.48874909,,,,,,,,,,,,,,,,,,,,,,,,,,,,,,,,,,,,,,,,,,,,,,,,,,,,,,,,,,,,,,,,,,,,,,,,,,,,,,,,,,,,,,,,,
,,3,3.1052,3,3.1052,0,63,63,38,1,155,carrot,cookie,,88924,001,2022-04-24_15h56.51.001,SPAMnetsValid,2021.1.4,Win32,60.48874909,,,,,,,,,,,,,,,,,,,,,,,,,,,,,,,,,,,,,,,,,,,,,,,,,,,,,,,,,,,,,,,,,,,,,,,,,,,,,,,,,,,,,,,,,
,,7,1.9859,7,1.9859,0,64,64,65,1,160,cookie,kitchen,,88924,001,2022-04-24_15h56.51.001,SPAMnetsValid,2021.1.4,Win32,60.48874909,,,,,,,,,,,,,,,,,,,,,,,,,,,,,,,,,,,,,,,,,,,,,,,,,,,,,,,,,,,,,,,,,,,,,,,,,,,,,,,,,,,,,,,,,
,,3,2.0521,3,2.0521,0,65,65,26,1,107,rose,tomato,,88924,001,2022-04-24_15h56.51.001,SPAMnetsValid,2021.1.4,Win32,60.48874909,,,,,,,,,,,,,,,,,,,,,,,,,,,,,,,,,,,,,,,,,,,,,,,,,,,,,,,,,,,,,,,,,,,,,,,,,,,,,,,,,,,,,,,,,
,,1,1.7069,1,1.7069,0,66,66,81,1,104,garden,microwave,,88924,001,2022-04-24_15h56.51.001,SPAMnetsValid,2021.1.4,Win32,60.48874909,,,,,,,,,,,,,,,,,,,,,,,,,,,,,,,,,,,,,,,,,,,,,,,,,,,,,,,,,,,,,,,,,,,,,,,,,,,,,,,,,,,,,,,,,
,,4,2.5578,4,2.5578,0,67,67,6,1,151,microwave,onion,,88924,001,2022-04-24_15h56.51.001,SPAMnetsValid,2021.1.4,Win32,60.48874909,,,,,,,,,,,,,,,,,,,,,,,,,,,,,,,,,,,,,,,,,,,,,,,,,,,,,,,,,,,,,,,,,,,,,,,,,,,,,,,,,,,,,,,,,
,,1,1.7397,1,1.7397,0,68,68,57,1,127,cactus,chocolate,,88924,001,2022-04-24_15h56.51.001,SPAMnetsValid,2021.1.4,Win32,60.48874909,,,,,,,,,,,,,,,,,,,,,,,,,,,,,,,,,,,,,,,,,,,,,,,,,,,,,,,,,,,,,,,,,,,,,,,,,,,,,,,,,,,,,,,,,
,,1,1.5257,1,1.5257,0,69,69,78,1,132,broom,tree,,88924,001,2022-04-24_15h56.51.001,SPAMnetsValid,2021.1.4,Win32,60.48874909,,,,,,,,,,,,,,,,,,,,,,,,,,,,,,,,,,,,,,,,,,,,,,,,,,,,,,,,,,,,,,,,,,,,,,,,,,,,,,,,,,,,,,,,,
,,2,3.8897,2,3.8897,0,70,70,87,1,114,cookie,strawberry,,88924,001,2022-04-24_15h56.51.001,SPAMnetsValid,2021.1.4,Win32,60.48874909,,,,,,,,,,,,,,,,,,,,,,,,,,,,,,,,,,,,,,,,,,,,,,,,,,,,,,,,,,,,,,,,,,,,,,,,,,,,,,,,,,,,,,,,,
,,1,1.5736,1,1.5736,0,71,71,4,1,109,broom,strawberry,,88924,001,2022-04-24_15h56.51.001,SPAMnetsValid,2021.1.4,Win32,60.48874909,,,,,,,,,,,,,,,,,,,,,,,,,,,,,,,,,,,,,,,,,,,,,,,,,,,,,,,,,,,,,,,,,,,,,,,,,,,,,,,,,,,,,,,,,
,,1,2.2694,1,2.2694,0,72,72,95,1,121,broom,microwave,,88924,001,2022-04-24_15h56.51.001,SPAMnetsValid,2021.1.4,Win32,60.48874909,,,,,,,,,,,,,,,,,,,,,,,,,,,,,,,,,,,,,,,,,,,,,,,,,,,,,,,,,,,,,,,,,,,,,,,,,,,,,,,,,,,,,,,,,
,,1,2.6176,1,2.6176,0,73,73,84,1,130,microwave,yogurt,,88924,001,2022-04-24_15h56.51.001,SPAMnetsValid,2021.1.4,Win32,60.48874909,,,,,,,,,,,,,,,,,,,,,,,,,,,,,,,,,,,,,,,,,,,,,,,,,,,,,,,,,,,,,,,,,,,,,,,,,,,,,,,,,,,,,,,,,
,,7,2.5764,7,2.5764,0,74,74,39,1,112,cake,carrot,,88924,001,2022-04-24_15h56.51.001,SPAMnetsValid,2021.1.4,Win32,60.48874909,,,,,,,,,,,,,,,,,,,,,,,,,,,,,,,,,,,,,,,,,,,,,,,,,,,,,,,,,,,,,,,,,,,,,,,,,,,,,,,,,,,,,,,,,
,,9,3.3113,9,3.3113,0,75,75,93,1,134,carrot,flower,,88924,001,2022-04-24_15h56.51.001,SPAMnetsValid,2021.1.4,Win32,60.48874909,,,,,,,,,,,,,,,,,,,,,,,,,,,,,,,,,,,,,,,,,,,,,,,,,,,,,,,,,,,,,,,,,,,,,,,,,,,,,,,,,,,,,,,,,
,,7,2.5711,7,2.5711,0,76,76,29,1,163,melon,refrigerator,,88924,001,2022-04-24_15h56.51.001,SPAMnetsValid,2021.1.4,Win32,60.48874909,,,,,,,,,,,,,,,,,,,,,,,,,,,,,,,,,,,,,,,,,,,,,,,,,,,,,,,,,,,,,,,,,,,,,,,,,,,,,,,,,,,,,,,,,
,,9,3.5171,9,3.5171,0,77,77,83,1,100,garden,tomato,,88924,001,2022-04-24_15h56.51.001,SPAMnetsValid,2021.1.4,Win32,60.48874909,,,,,,,,,,,,,,,,,,,,,,,,,,,,,,,,,,,,,,,,,,,,,,,,,,,,,,,,,,,,,,,,,,,,,,,,,,,,,,,,,,,,,,,,,
,,6,3.1698,6,3.1698,0,78,78,35,1,147,cake,refrigerator,,88924,001,2022-04-24_15h56.51.001,SPAMnetsValid,2021.1.4,Win32,60.48874909,,,,,,,,,,,,,,,,,,,,,,,,,,,,,,,,,,,,,,,,,,,,,,,,,,,,,,,,,,,,,,,,,,,,,,,,,,,,,,,,,,,,,,,,,
,,3,4.1012,3,4.1012,0,79,79,90,1,190,microwave,strawberry,,88924,001,2022-04-24_15h56.51.001,SPAMnetsValid,2021.1.4,Win32,60.48874909,,,,,,,,,,,,,,,,,,,,,,,,,,,,,,,,,,,,,,,,,,,,,,,,,,,,,,,,,,,,,,,,,,,,,,,,,,,,,,,,,,,,,,,,,
,,3,1.611,3,1.611,0,80,80,55,1,143,pretzel,rose,,88924,001,2022-04-24_15h56.51.001,SPAMnetsValid,2021.1.4,Win32,60.48874909,,,,,,,,,,,,,,,,,,,,,,,,,,,,,,,,,,,,,,,,,,,,,,,,,,,,,,,,,,,,,,,,,,,,,,,,,,,,,,,,,,,,,,,,,
,,2,1.9522,2,1.9522,0,81,81,79,1,103,pretzel,tomato,,88924,001,2022-04-24_15h56.51.001,SPAMnetsValid,2021.1.4,Win32,60.48874909,,,,,,,,,,,,,,,,,,,,,,,,,,,,,,,,,,,,,,,,,,,,,,,,,,,,,,,,,,,,,,,,,,,,,,,,,,,,,,,,,,,,,,,,,
,,9,2.1905,9,2.1905,0,82,82,53,1,177,chocolate,strawberry,,88924,001,2022-04-24_15h56.51.001,SPAMnetsValid,2021.1.4,Win32,60.48874909,,,,,,,,,,,,,,,,,,,,,,,,,,,,,,,,,,,,,,,,,,,,,,,,,,,,,,,,,,,,,,,,,,,,,,,,,,,,,,,,,,,,,,,,,
,,3,2.4406,3,2.4406,0,83,83,32,1,182,flower,refrigerator,,88924,001,2022-04-24_15h56.51.001,SPAMnetsValid,2021.1.4,Win32,60.48874909,,,,,,,,,,,,,,,,,,,,,,,,,,,,,,,,,,,,,,,,,,,,,,,,,,,,,,,,,,,,,,,,,,,,,,,,,,,,,,,,,,,,,,,,,
,,4,4.3725,4,4.3725,0,84,84,18,1,119,strawberry,tree,,88924,001,2022-04-24_15h56.51.001,SPAMnetsValid,2021.1.4,Win32,60.48874909,,,,,,,,,,,,,,,,,,,,,,,,,,,,,,,,,,,,,,,,,,,,,,,,,,,,,,,,,,,,,,,,,,,,,,,,,,,,,,,,,,,,,,,,,
,,9,2.0523,9,2.0523,0,85,85,47,1,167,carrot,garden,,88924,001,2022-04-24_15h56.51.001,SPAMnetsValid,2021.1.4,Win32,60.48874909,,,,,,,,,,,,,,,,,,,,,,,,,,,,,,,,,,,,,,,,,,,,,,,,,,,,,,,,,,,,,,,,,,,,,,,,,,,,,,,,,,,,,,,,,
,,1,1.7127,1,1.7127,0,86,86,24,1,169,onion,yogurt,,88924,001,2022-04-24_15h56.51.001,SPAMnetsValid,2021.1.4,Win32,60.48874909,,,,,,,,,,,,,,,,,,,,,,,,,,,,,,,,,,,,,,,,,,,,,,,,,,,,,,,,,,,,,,,,,,,,,,,,,,,,,,,,,,,,,,,,,
,,6,3.1513,6,3.1513,0,87,87,43,1,185,cactus,rose,,88924,001,2022-04-24_15h56.51.001,SPAMnetsValid,2021.1.4,Win32,60.48874909,,,,,,,,,,,,,,,,,,,,,,,,,,,,,,,,,,,,,,,,,,,,,,,,,,,,,,,,,,,,,,,,,,,,,,,,,,,,,,,,,,,,,,,,,
,,5,2.6747,5,2.6747,0,88,88,33,1,131,cactus,garden,,88924,001,2022-04-24_15h56.51.001,SPAMnetsValid,2021.1.4,Win32,60.48874909,,,,,,,,,,,,,,,,,,,,,,,,,,,,,,,,,,,,,,,,,,,,,,,,,,,,,,,,,,,,,,,,,,,,,,,,,,,,,,,,,,,,,,,,,
,,1,2.2528,1,2.2528,0,89,89,49,1,152,cactus,strawberry,,88924,001,2022-04-24_15h56.51.001,SPAMnetsValid,2021.1.4,Win32,60.48874909,,,,,,,,,,,,,,,,,,,,,,,,,,,,,,,,,,,,,,,,,,,,,,,,,,,,,,,,,,,,,,,,,,,,,,,,,,,,,,,,,,,,,,,,,
,,1,1.6603,1,1.6603,0,90,90,15,1,145,cactus,yogurt,,88924,001,2022-04-24_15h56.51.001,SPAMnetsValid,2021.1.4,Win32,60.48874909,,,,,,,,,,,,,,,,,,,,,,,,,,,,,,,,,,,,,,,,,,,,,,,,,,,,,,,,,,,,,,,,,,,,,,,,,,,,,,,,,,,,,,,,,
,,7,2.8189,7,2.8189,0,91,91,76,1,102,chocolate,refrigerator,,88924,001,2022-04-24_15h56.51.001,SPAMnetsValid,2021.1.4,Win32,60.48874909,,,,,,,,,,,,,,,,,,,,,,,,,,,,,,,,,,,,,,,,,,,,,,,,,,,,,,,,,,,,,,,,,,,,,,,,,,,,,,,,,,,,,,,,,
,,9,3.224,9,3.224,0,92,92,28,1,154,strawberry,yogurt,,88924,001,2022-04-24_15h56.51.001,SPAMnetsValid,2021.1.4,Win32,60.48874909,,,,,,,,,,,,,,,,,,,,,,,,,,,,,,,,,,,,,,,,,,,,,,,,,,,,,,,,,,,,,,,,,,,,,,,,,,,,,,,,,,,,,,,,,
,,3,2.0855,3,2.0855,0,93,93,67,1,96,oven,strawberry,,88924,001,2022-04-24_15h56.51.001,SPAMnetsValid,2021.1.4,Win32,60.48874909,,,,,,,,,,,,,,,,,,,,,,,,,,,,,,,,,,,,,,,,,,,,,,,,,,,,,,,,,,,,,,,,,,,,,,,,,,,,,,,,,,,,,,,,,
,,1,1.3445,1,1.3445,0,94,94,13,1,105,cactus,oven,,88924,001,2022-04-24_15h56.51.001,SPAMnetsValid,2021.1.4,Win32,60.48874909,,,,,,,,,,,,,,,,,,,,,,,,,,,,,,,,,,,,,,,,,,,,,,,,,,,,,,,,,,,,,,,,,,,,,,,,,,,,,,,,,,,,,,,,,
,,6,3.0621,6,3.0621,0,95,95,69,1,124,oven,refrigerator,,88924,001,2022-04-24_15h56.51.001,SPAMnetsValid,2021.1.4,Win32,60.48874909,,,,,,,,,,,,,,,,,,,,,,,,,,,,,,,,,,,,,,,,,,,,,,,,,,,,,,,,,,,,,,,,,,,,,,,,,,,,,,,,,,,,,,,,,
,,2,5.8314,2,5.8314,0,96,96,88,1,171,cake,tomato,,88924,001,2022-04-24_15h56.51.001,SPAMnetsValid,2021.1.4,Win32,60.48874909,,,,,,,,,,,,,,,,,,,,,,,,,,,,,,,,,,,,,,,,,,,,,,,,,,,,,,,,,,,,,,,,,,,,,,,,,,,,,,,,,,,,,,,,,
,,,,,,,,,,,,,,,88924,001,2022-04-24_15h56.51.001,SPAMnetsValid,2021.1.4,Win32,60.48874909,0,0,0,0,1,,,,,,,,,,,,,,,,,,,,,,,,,,,,,,,,,,,,,,,,,,,,,,,,,,,,,,,,,,,,,,,,,,,,,,,,,,,,,,,,,,,,
,,,,,,,,,,,,,,,88924,001,2022-04-24_15h56.51.001,SPAMnetsValid,2021.1.4,Win32,60.48874909,,,,,,0,0,0,1,1,0,1,,,,,,,,,,,,,,,,,,,,,,,,,,,,,,,,,,,,,,,,,,,,,,,,,,,,,,,,,,,,,,,,,,,,,,,,,,,,,
,,,,1,10.9132,,,,,,24,cookie,tomato,,88924,001,2022-04-24_15h56.51.001,SPAMnetsValid,2021.1.4,Win32,60.48874909,,,,,,,,,,,,,1,10.9132,0,0,0,68,1,,,,,,,,,,,,,,,,,,,,,,,,,,,,,,,,,,,,,,,,,,,,,,,,,,,,,,,,,,,,,,,,,,,,,,
,,,,1,2.8036,,,,,,1,rose,yogurt,,88924,001,2022-04-24_15h56.51.001,SPAMnetsValid,2021.1.4,Win32,60.48874909,,,,,,,,,,,,,1,2.8036,0,1,1,55,1,,,,,,,,,,,,,,,,,,,,,,,,,,,,,,,,,,,,,,,,,,,,,,,,,,,,,,,,,,,,,,,,,,,,,,
,,,,9,1.8209,,,,,,191,cake,cake,CHECK,88924,001,2022-04-24_15h56.51.001,SPAMnetsValid,2021.1.4,Win32,60.48874909,,,,,,,,,,,,,9,1.8209,0,2,2,10,1,,,,,,,,,,,,,,,,,,,,,,,,,,,,,,,,,,,,,,,,,,,,,,,,,,,,,,,,,,,,,,,,,,,,,,
,,,,2,6.2002,,,,,,68,flower,tomato,,88924,001,2022-04-24_15h56.51.001,SPAMnetsValid,2021.1.4,Win32,60.48874909,,,,,,,,,,,,,2,6.2002,0,3,3,94,1,,,,,,,,,,,,,,,,,,,,,,,,,,,,,,,,,,,,,,,,,,,,,,,,,,,,,,,,,,,,,,,,,,,,,,
,,,,2,3.3166,,,,,,56,cactus,tree,,88924,001,2022-04-24_15h56.51.001,SPAMnetsValid,2021.1.4,Win32,60.48874909,,,,,,,,,,,,,2,3.3166,0,4,4,21,1,,,,,,,,,,,,,,,,,,,,,,,,,,,,,,,,,,,,,,,,,,,,,,,,,,,,,,,,,,,,,,,,,,,,,,
,,,,3,2.5686,,,,,,15,onion,oven,,88924,001,2022-04-24_15h56.51.001,SPAMnetsValid,2021.1.4,Win32,60.48874909,,,,,,,,,,,,,3,2.5686,0,5,5,39,1,,,,,,,,,,,,,,,,,,,,,,,,,,,,,,,,,,,,,,,,,,,,,,,,,,,,,,,,,,,,,,,,,,,,,,
,,,,9,2.4078,,,,,,76,garden,rose,,88924,001,2022-04-24_15h56.51.001,SPAMnetsValid,2021.1.4,Win32,60.48874909,,,,,,,,,,,,,9,2.4078,0,6,6,19,1,,,,,,,,,,,,,,,,,,,,,,,,,,,,,,,,,,,,,,,,,,,,,,,,,,,,,,,,,,,,,,,,,,,,,,
,,,,1,15.2155,,,,,,85,cake,tree,,88924,001,2022-04-24_15h56.51.001,SPAMnetsValid,2021.1.4,Win32,60.48874909,,,,,,,,,,,,,1,15.2155,0,7,7,18,1,,,,,,,,,,,,,,,,,,,,,,,,,,,,,,,,,,,,,,,,,,,,,,,,,,,,,,,,,,,,,,,,,,,,,,
,,,,1,1.9018,,,,,,73,broom,chocolate,,88924,001,2022-04-24_15h56.51.001,SPAMnetsValid,2021.1.4,Win32,60.48874909,,,,,,,,,,,,,1,1.9018,0,8,8,47,1,,,,,,,,,,,,,,,,,,,,,,,,,,,,,,,,,,,,,,,,,,,,,,,,,,,,,,,,,,,,,,,,,,,,,,
,,,,5,5.2983,,,,,,39,melon,pretzel,,88924,001,2022-04-24_15h56.51.001,SPAMnetsValid,2021.1.4,Win32,60.48874909,,,,,,,,,,,,,5,5.2983,0,9,9,20,1,,,,,,,,,,,,,,,,,,,,,,,,,,,,,,,,,,,,,,,,,,,,,,,,,,,,,,,,,,,,,,,,,,,,,,
,,,,5,4.2359,,,,,,59,rose,strawberry,,88924,001,2022-04-24_15h56.51.001,SPAMnetsValid,2021.1.4,Win32,60.48874909,,,,,,,,,,,,,5,4.2359,0,10,10,72,1,,,,,,,,,,,,,,,,,,,,,,,,,,,,,,,,,,,,,,,,,,,,,,,,,,,,,,,,,,,,,,,,,,,,,,
,,,,1,3.5882,,,,,,86,oven,rose,,88924,001,2022-04-24_15h56.51.001,SPAMnetsValid,2021.1.4,Win32,60.48874909,,,,,,,,,,,,,1,3.5882,0,11,11,79,1,,,,,,,,,,,,,,,,,,,,,,,,,,,,,,,,,,,,,,,,,,,,,,,,,,,,,,,,,,,,,,,,,,,,,,
,,,,5,2.5859,,,,,,49,flower,strawberry,,88924,001,2022-04-24_15h56.51.001,SPAMnetsValid,2021.1.4,Win32,60.48874909,,,,,,,,,,,,,5,2.5859,0,12,12,3,1,,,,,,,,,,,,,,,,,,,,,,,,,,,,,,,,,,,,,,,,,,,,,,,,,,,,,,,,,,,,,,,,,,,,,,
,,,,5,2.2179,,,,,,26,tomato,yogurt,,88924,001,2022-04-24_15h56.51.001,SPAMnetsValid,2021.1.4,Win32,60.48874909,,,,,,,,,,,,,5,2.2179,0,13,13,13,1,,,,,,,,,,,,,,,,,,,,,,,,,,,,,,,,,,,,,,,,,,,,,,,,,,,,,,,,,,,,,,,,,,,,,,
,,,,1,2.4749,,,,,,65,broom,garden,,88924,001,2022-04-24_15h56.51.001,SPAMnetsValid,2021.1.4,Win32,60.48874909,,,,,,,,,,,,,1,2.4749,0,14,14,23,1,,,,,,,,,,,,,,,,,,,,,,,,,,,,,,,,,,,,,,,,,,,,,,,,,,,,,,,,,,,,,,,,,,,,,,
,,,,1,2.1072,,,,,,78,cookie,rose,,88924,001,2022-04-24_15h56.51.001,SPAMnetsValid,2021.1.4,Win32,60.48874909,,,,,,,,,,,,,1,2.1072,0,15,15,56,1,,,,,,,,,,,,,,,,,,,,,,,,,,,,,,,,,,,,,,,,,,,,,,,,,,,,,,,,,,,,,,,,,,,,,,
,,,,6,2.4365,,,,,,2,kitchen,onion,,88924,001,2022-04-24_15h56.51.001,SPAMnetsValid,2021.1.4,Win32,60.48874909,,,,,,,,,,,,,6,2.4365,0,16,16,91,1,,,,,,,,,,,,,,,,,,,,,,,,,,,,,,,,,,,,,,,,,,,,,,,,,,,,,,,,,,,,,,,,,,,,,,
,,,,6,2.0108,,,,,,47,onion,tomato,,88924,001,2022-04-24_15h56.51.001,SPAMnetsValid,2021.1.4,Win32,60.48874909,,,,,,,,,,,,,6,2.0108,0,17,17,51,1,,,,,,,,,,,,,,,,,,,,,,,,,,,,,,,,,,,,,,,,,,,,,,,,,,,,,,,,,,,,,,,,,,,,,,
,,,,1,2.1372,,,,,,35,flower,pretzel,,88924,001,2022-04-24_15h56.51.001,SPAMnetsValid,2021.1.4,Win32,60.48874909,,,,,,,,,,,,,1,2.1372,0,18,18,26,1,,,,,,,,,,,,,,,,,,,,,,,,,,,,,,,,,,,,,,,,,,,,,,,,,,,,,,,,,,,,,,,,,,,,,,
,,,,1,2.1265,,,,,,46,garden,yogurt,,88924,001,2022-04-24_15h56.51.001,SPAMnetsValid,2021.1.4,Win32,60.48874909,,,,,,,,,,,,,1,2.1265,0,19,19,65,1,,,,,,,,,,,,,,,,,,,,,,,,,,,,,,,,,,,,,,,,,,,,,,,,,,,,,,,,,,,,,,,,,,,,,,
,,,,1,3.7845,,,,,,64,chocolate,garden,,88924,001,2022-04-24_15h56.51.001,SPAMnetsValid,2021.1.4,Win32,60.48874909,,,,,,,,,,,,,1,3.7845,0,20,20,14,1,,,,,,,,,,,,,,,,,,,,,,,,,,,,,,,,,,,,,,,,,,,,,,,,,,,,,,,,,,,,,,,,,,,,,,
,,,,6,3.1335,,,,,,52,carrot,tomato,,88924,001,2022-04-24_15h56.51.001,SPAMnetsValid,2021.1.4,Win32,60.48874909,,,,,,,,,,,,,6,3.1335,0,21,21,95,1,,,,,,,,,,,,,,,,,,,,,,,,,,,,,,,,,,,,,,,,,,,,,,,,,,,,,,,,,,,,,,,,,,,,,,
,,,,1,2.541,,,,,,58,garden,oven,,88924,001,2022-04-24_15h56.51.001,SPAMnetsValid,2021.1.4,Win32,60.48874909,,,,,,,,,,,,,1,2.541,0,22,22,37,1,,,,,,,,,,,,,,,,,,,,,,,,,,,,,,,,,,,,,,,,,,,,,,,,,,,,,,,,,,,,,,,,,,,,,,
,,,,7,3.0838,,,,,,66,melon,yogurt,,88924,001,2022-04-24_15h56.51.001,SPAMnetsValid,2021.1.4,Win32,60.48874909,,,,,,,,,,,,,7,3.0838,0,23,23,48,1,,,,,,,,,,,,,,,,,,,,,,,,,,,,,,,,,,,,,,,,,,,,,,,,,,,,,,,,,,,,,,,,,,,,,,
,,,,1,4.742,,,,,,74,broom,pretzel,,88924,001,2022-04-24_15h56.51.001,SPAMnetsValid,2021.1.4,Win32,60.48874909,,,,,,,,,,,,,1,4.742,0,24,24,40,1,,,,,,,,,,,,,,,,,,,,,,,,,,,,,,,,,,,,,,,,,,,,,,,,,,,,,,,,,,,,,,,,,,,,,,
,,,,2,5.1122,,,,,,44,cookie,melon,,88924,001,2022-04-24_15h56.51.001,SPAMnetsValid,2021.1.4,Win32,60.48874909,,,,,,,,,,,,,2,5.1122,0,25,25,92,1,,,,,,,,,,,,,,,,,,,,,,,,,,,,,,,,,,,,,,,,,,,,,,,,,,,,,,,,,,,,,,,,,,,,,,
,,,,3,2.4144,,,,,,87,carrot,yogurt,,88924,001,2022-04-24_15h56.51.001,SPAMnetsValid,2021.1.4,Win32,60.48874909,,,,,,,,,,,,,3,2.4144,0,26,26,6,1,,,,,,,,,,,,,,,,,,,,,,,,,,,,,,,,,,,,,,,,,,,,,,,,,,,,,,,,,,,,,,,,,,,,,,
,,,,4,2.4424,,,,,,7,melon,tree,,88924,001,2022-04-24_15h56.51.001,SPAMnetsValid,2021.1.4,Win32,60.48874909,,,,,,,,,,,,,4,2.4424,0,27,27,77,1,,,,,,,,,,,,,,,,,,,,,,,,,,,,,,,,,,,,,,,,,,,,,,,,,,,,,,,,,,,,,,,,,,,,,,
,,,,5,3.1334,,,,,,57,flower,kitchen,,88924,001,2022-04-24_15h56.51.001,SPAMnetsValid,2021.1.4,Win32,60.48874909,,,,,,,,,,,,,5,3.1334,0,28,28,49,1,,,,,,,,,,,,,,,,,,,,,,,,,,,,,,,,,,,,,,,,,,,,,,,,,,,,,,,,,,,,,,,,,,,,,,
,,,,9,2.6724,,,,,,79,garden,strawberry,,88924,001,2022-04-24_15h56.51.001,SPAMnetsValid,2021.1.4,Win32,60.48874909,,,,,,,,,,,,,9,2.6724,0,29,29,87,1,,,,,,,,,,,,,,,,,,,,,,,,,,,,,,,,,,,,,,,,,,,,,,,,,,,,,,,,,,,,,,,,,,,,,,
,,,,2,1.9885,,,,,,43,chocolate,tomato,,88924,001,2022-04-24_15h56.51.001,SPAMnetsValid,2021.1.4,Win32,60.48874909,,,,,,,,,,,,,2,1.9885,0,30,30,8,1,,,,,,,,,,,,,,,,,,,,,,,,,,,,,,,,,,,,,,,,,,,,,,,,,,,,,,,,,,,,,,,,,,,,,,
,,,,6,1.8428,,,,,,25,carrot,onion,,88924,001,2022-04-24_15h56.51.001,SPAMnetsValid,2021.1.4,Win32,60.48874909,,,,,,,,,,,,,6,1.8428,0,31,31,44,1,,,,,,,,,,,,,,,,,,,,,,,,,,,,,,,,,,,,,,,,,,,,,,,,,,,,,,,,,,,,,,,,,,,,,,
,,,,7,2.4271,,,,,,30,cookie,pretzel,,88924,001,2022-04-24_15h56.51.001,SPAMnetsValid,2021.1.4,Win32,60.48874909,,,,,,,,,,,,,7,2.4271,0,32,32,78,1,,,,,,,,,,,,,,,,,,,,,,,,,,,,,,,,,,,,,,,,,,,,,,,,,,,,,,,,,,,,,,,,,,,,,,
,,,,3,2.7942,,,,,,42,garden,kitchen,,88924,001,2022-04-24_15h56.51.001,SPAMnetsValid,2021.1.4,Win32,60.48874909,,,,,,,,,,,,,3,2.7942,0,33,33,29,1,,,,,,,,,,,,,,,,,,,,,,,,,,,,,,,,,,,,,,,,,,,,,,,,,,,,,,,,,,,,,,,,,,,,,,
,,,,6,2.4047,,,,,,82,cake,kitchen,,88924,001,2022-04-24_15h56.51.001,SPAMnetsValid,2021.1.4,Win32,60.48874909,,,,,,,,,,,,,6,2.4047,0,34,34,96,1,,,,,,,,,,,,,,,,,,,,,,,,,,,,,,,,,,,,,,,,,,,,,,,,,,,,,,,,,,,,,,,,,,,,,,
,,,,6,2.7888,,,,,,37,garden,refrigerator,,88924,001,2022-04-24_15h56.51.001,SPAMnetsValid,2021.1.4,Win32,60.48874909,,,,,,,,,,,,,6,2.7888,0,35,35,11,1,,,,,,,,,,,,,,,,,,,,,,,,,,,,,,,,,,,,,,,,,,,,,,,,,,,,,,,,,,,,,,,,,,,,,,
,,,,1,2.3871,,,,,,95,broom,refrigerator,,88924,001,2022-04-24_15h56.51.001,SPAMnetsValid,2021.1.4,Win32,60.48874909,,,,,,,,,,,,,1,2.3871,0,36,36,90,1,,,,,,,,,,,,,,,,,,,,,,,,,,,,,,,,,,,,,,,,,,,,,,,,,,,,,,,,,,,,,,,,,,,,,,
,,,,1,2.2055,,,,,,14,broom,cookie,,88924,001,2022-04-24_15h56.51.001,SPAMnetsValid,2021.1.4,Win32,60.48874909,,,,,,,,,,,,,1,2.2055,0,37,37,16,1,,,,,,,,,,,,,,,,,,,,,,,,,,,,,,,,,,,,,,,,,,,,,,,,,,,,,,,,,,,,,,,,,,,,,,
,,,,1,2.0247,,,,,,31,cactus,pretzel,,88924,001,2022-04-24_15h56.51.001,SPAMnetsValid,2021.1.4,Win32,60.48874909,,,,,,,,,,,,,1,2.0247,0,38,38,1,1,,,,,,,,,,,,,,,,,,,,,,,,,,,,,,,,,,,,,,,,,,,,,,,,,,,,,,,,,,,,,,,,,,,,,,
,,,,7,2.2905,,,,,,54,chocolate,yogurt,,88924,001,2022-04-24_15h56.51.001,SPAMnetsValid,2021.1.4,Win32,60.48874909,,,,,,,,,,,,,7,2.2905,0,39,39,67,1,,,,,,,,,,,,,,,,,,,,,,,,,,,,,,,,,,,,,,,,,,,,,,,,,,,,,,,,,,,,,,,,,,,,,,
,,,,7,1.5195,,,,,,63,cake,cookie,,88924,001,2022-04-24_15h56.51.001,SPAMnetsValid,2021.1.4,Win32,60.48874909,,,,,,,,,,,,,7,1.5195,0,40,40,93,1,,,,,,,,,,,,,,,,,,,,,,,,,,,,,,,,,,,,,,,,,,,,,,,,,,,,,,,,,,,,,,,,,,,,,,
,,,,1,2.0322,,,,,,60,cactus,onion,,88924,001,2022-04-24_15h56.51.001,SPAMnetsValid,2021.1.4,Win32,60.48874909,,,,,,,,,,,,,1,2.0322,0,41,41,81,1,,,,,,,,,,,,,,,,,,,,,,,,,,,,,,,,,,,,,,,,,,,,,,,,,,,,,,,,,,,,,,,,,,,,,,
,,,,5,2.6055,,,,,,17,carrot,melon,,88924,001,2022-04-24_15h56.51.001,SPAMnetsValid,2021.1.4,Win32,60.48874909,,,,,,,,,,,,,5,2.6055,0,42,42,24,1,,,,,,,,,,,,,,,,,,,,,,,,,,,,,,,,,,,,,,,,,,,,,,,,,,,,,,,,,,,,,,,,,,,,,,
,,,,1,1.7066,,,,,,40,broom,cake,,88924,001,2022-04-24_15h56.51.001,SPAMnetsValid,2021.1.4,Win32,60.48874909,,,,,,,,,,,,,1,1.7066,0,43,43,32,1,,,,,,,,,,,,,,,,,,,,,,,,,,,,,,,,,,,,,,,,,,,,,,,,,,,,,,,,,,,,,,,,,,,,,,
,,,,1,1.3693,,,,,,11,refrigerator,tree,,88924,001,2022-04-24_15h56.51.001,SPAMnetsValid,2021.1.4,Win32,60.48874909,,,,,,,,,,,,,1,1.3693,0,44,44,43,1,,,,,,,,,,,,,,,,,,,,,,,,,,,,,,,,,,,,,,,,,,,,,,,,,,,,,,,,,,,,,,,,,,,,,,
,,,,1,2.6662,,,,,,23,flower,microwave,,88924,001,2022-04-24_15h56.51.001,SPAMnetsValid,2021.1.4,Win32,60.48874909,,,,,,,,,,,,,1,2.6662,0,45,45,25,1,,,,,,,,,,,,,,,,,,,,,,,,,,,,,,,,,,,,,,,,,,,,,,,,,,,,,,,,,,,,,,,,,,,,,,
,,,,5,2.1355,,,,,,4,chocolate,pretzel,,88924,001,2022-04-24_15h56.51.001,SPAMnetsValid,2021.1.4,Win32,60.48874909,,,,,,,,,,,,,5,2.1355,0,46,46,52,1,,,,,,,,,,,,,,,,,,,,,,,,,,,,,,,,,,,,,,,,,,,,,,,,,,,,,,,,,,,,,,,,,,,,,,
,,,,1,2.2037,,,,,,13,broom,yogurt,,88924,001,2022-04-24_15h56.51.001,SPAMnetsValid,2021.1.4,Win32,60.48874909,,,,,,,,,,,,,1,2.2037,0,47,47,5,1,,,,,,,,,,,,,,,,,,,,,,,,,,,,,,,,,,,,,,,,,,,,,,,,,,,,,,,,,,,,,,,,,,,,,,
,,,,3,3.9005,,,,,,55,tomato,tree,,88924,001,2022-04-24_15h56.51.001,SPAMnetsValid,2021.1.4,Win32,60.48874909,,,,,,,,,,,,,3,3.9005,0,48,48,35,1,,,,,,,,,,,,,,,,,,,,,,,,,,,,,,,,,,,,,,,,,,,,,,,,,,,,,,,,,,,,,,,,,,,,,,
,,,,1,2.0205,,,,,,92,broom,flower,,88924,001,2022-04-24_15h56.51.001,SPAMnetsValid,2021.1.4,Win32,60.48874909,,,,,,,,,,,,,1,2.0205,0,49,49,88,1,,,,,,,,,,,,,,,,,,,,,,,,,,,,,,,,,,,,,,,,,,,,,,,,,,,,,,,,,,,,,,,,,,,,,,
,,,,1,1.9182,,,,,,8,broom,melon,,88924,001,2022-04-24_15h56.51.001,SPAMnetsValid,2021.1.4,Win32,60.48874909,,,,,,,,,,,,,1,1.9182,0,50,50,59,1,,,,,,,,,,,,,,,,,,,,,,,,,,,,,,,,,,,,,,,,,,,,,,,,,,,,,,,,,,,,,,,,,,,,,,
,,,,1,1.9417,,,,,,32,cake,microwave,,88924,001,2022-04-24_15h56.51.001,SPAMnetsValid,2021.1.4,Win32,60.48874909,,,,,,,,,,,,,1,1.9417,0,51,51,33,1,,,,,,,,,,,,,,,,,,,,,,,,,,,,,,,,,,,,,,,,,,,,,,,,,,,,,,,,,,,,,,,,,,,,,,
,,,,1,2.7025,,,,,,19,microwave,pretzel,,88924,001,2022-04-24_15h56.51.001,SPAMnetsValid,2021.1.4,Win32,60.48874909,,,,,,,,,,,,,1,2.7025,0,52,52,41,1,,,,,,,,,,,,,,,,,,,,,,,,,,,,,,,,,,,,,,,,,,,,,,,,,,,,,,,,,,,,,,,,,,,,,,
,,,,5,4.6687,,,,,,18,onion,refrigerator,,88924,001,2022-04-24_15h56.51.001,SPAMnetsValid,2021.1.4,Win32,60.48874909,,,,,,,,,,,,,5,4.6687,0,53,53,62,1,,,,,,,,,,,,,,,,,,,,,,,,,,,,,,,,,,,,,,,,,,,,,,,,,,,,,,,,,,,,,,,,,,,,,,
,,,,8,2.0923,,,,,,77,refrigerator,yogurt,,88924,001,2022-04-24_15h56.51.001,SPAMnetsValid,2021.1.4,Win32,60.48874909,,,,,,,,,,,,,8,2.0923,0,54,54,42,1,,,,,,,,,,,,,,,,,,,,,,,,,,,,,,,,,,,,,,,,,,,,,,,,,,,,,,,,,,,,,,,,,,,,,,
,,,,3,3.2668,,,,,,51,onion,strawberry,,88924,001,2022-04-24_15h56.51.001,SPAMnetsValid,2021.1.4,Win32,60.48874909,,,,,,,,,,,,,3,3.2668,0,55,55,86,1,,,,,,,,,,,,,,,,,,,,,,,,,,,,,,,,,,,,,,,,,,,,,,,,,,,,,,,,,,,,,,,,,,,,,,
,,,,1,2.6362,,,,,,27,cactus,cookie,,88924,001,2022-04-24_15h56.51.001,SPAMnetsValid,2021.1.4,Win32,60.48874909,,,,,,,,,,,,,1,2.6362,0,56,56,17,1,,,,,,,,,,,,,,,,,,,,,,,,,,,,,,,,,,,,,,,,,,,,,,,,,,,,,,,,,,,,,,,,,,,,,,
,,,,2,4.1678,,,,,,33,oven,yogurt,,88924,001,2022-04-24_15h56.51.001,SPAMnetsValid,2021.1.4,Win32,60.48874909,,,,,,,,,,,,,2,4.1678,0,57,57,31,1,,,,,,,,,,,,,,,,,,,,,,,,,,,,,,,,,,,,,,,,,,,,,,,,,,,,,,,,,,,,,,,,,,,,,,
,,,,2,4.1914,,,,,,62,kitchen,rose,,88924,001,2022-04-24_15h56.51.001,SPAMnetsValid,2021.1.4,Win32,60.48874909,,,,,,,,,,,,,2,4.1914,0,58,58,57,1,,,,,,,,,,,,,,,,,,,,,,,,,,,,,,,,,,,,,,,,,,,,,,,,,,,,,,,,,,,,,,,,,,,,,,
,,,,9,2.4678,,,,,,9,kitchen,refrigerator,,88924,001,2022-04-24_15h56.51.001,SPAMnetsValid,2021.1.4,Win32,60.48874909,,,,,,,,,,,,,9,2.4678,0,59,59,64,1,,,,,,,,,,,,,,,,,,,,,,,,,,,,,,,,,,,,,,,,,,,,,,,,,,,,,,,,,,,,,,,,,,,,,,
,,,,8,1.9684,,,,,,22,kitchen,strawberry,,88924,001,2022-04-24_15h56.51.001,SPAMnetsValid,2021.1.4,Win32,60.48874909,,,,,,,,,,,,,8,1.9684,0,60,60,2,1,,,,,,,,,,,,,,,,,,,,,,,,,,,,,,,,,,,,,,,,,,,,,,,,,,,,,,,,,,,,,,,,,,,,,,
,,,,2,2.2269,,,,,,48,flower,oven,,88924,001,2022-04-24_15h56.51.001,SPAMnetsValid,2021.1.4,Win32,60.48874909,,,,,,,,,,,,,2,2.2269,0,61,61,15,1,,,,,,,,,,,,,,,,,,,,,,,,,,,,,,,,,,,,,,,,,,,,,,,,,,,,,,,,,,,,,,,,,,,,,,
,,,,1,1.7028,,,,,,41,broom,cactus,,88924,001,2022-04-24_15h56.51.001,SPAMnetsValid,2021.1.4,Win32,60.48874909,,,,,,,,,,,,,1,1.7028,0,62,62,46,1,,,,,,,,,,,,,,,,,,,,,,,,,,,,,,,,,,,,,,,,,,,,,,,,,,,,,,,,,,,,,,,,,,,,,,
,,,,3,5.0843,,,,,,38,pretzel,refrigerator,,88924,001,2022-04-24_15h56.51.001,SPAMnetsValid,2021.1.4,Win32,60.48874909,,,,,,,,,,,,,3,5.0843,0,63,63,71,1,,,,,,,,,,,,,,,,,,,,,,,,,,,,,,,,,,,,,,,,,,,,,,,,,,,,,,,,,,,,,,,,,,,,,,
,,,,4,1.7254,,,,,,61,strawberry,tomato,,88924,001,2022-04-24_15h56.51.001,SPAMnetsValid,2021.1.4,Win32,60.48874909,,,,,,,,,,,,,4,1.7254,0,64,64,80,1,,,,,,,,,,,,,,,,,,,,,,,,,,,,,,,,,,,,,,,,,,,,,,,,,,,,,,,,,,,,,,,,,,,,,,
,,,,3,2.1253,,,,,,88,cactus,melon,,88924,001,2022-04-24_15h56.51.001,SPAMnetsValid,2021.1.4,Win32,60.48874909,,,,,,,,,,,,,3,2.1253,0,65,65,38,1,,,,,,,,,,,,,,,,,,,,,,,,,,,,,,,,,,,,,,,,,,,,,,,,,,,,,,,,,,,,,,,,,,,,,,
,,,,6,2.3019,,,,,,36,broom,kitchen,,88924,001,2022-04-24_15h56.51.001,SPAMnetsValid,2021.1.4,Win32,60.48874909,,,,,,,,,,,,,6,2.3019,0,66,66,76,1,,,,,,,,,,,,,,,,,,,,,,,,,,,,,,,,,,,,,,,,,,,,,,,,,,,,,,,,,,,,,,,,,,,,,,
,,,,2,3.0559,,,,,,75,cookie,onion,,88924,001,2022-04-24_15h56.51.001,SPAMnetsValid,2021.1.4,Win32,60.48874909,,,,,,,,,,,,,2,3.0559,0,67,67,9,1,,,,,,,,,,,,,,,,,,,,,,,,,,,,,,,,,,,,,,,,,,,,,,,,,,,,,,,,,,,,,,,,,,,,,,
,,,,9,2.1897,,,,,,93,kitchen,oven,,88924,001,2022-04-24_15h56.51.001,SPAMnetsValid,2021.1.4,Win32,60.48874909,,,,,,,,,,,,,9,2.1897,0,68,68,82,1,,,,,,,,,,,,,,,,,,,,,,,,,,,,,,,,,,,,,,,,,,,,,,,,,,,,,,,,,,,,,,,,,,,,,,
,,,,4,2.957,,,,,,84,oven,tomato,,88924,001,2022-04-24_15h56.51.001,SPAMnetsValid,2021.1.4,Win32,60.48874909,,,,,,,,,,,,,4,2.957,0,69,69,28,1,,,,,,,,,,,,,,,,,,,,,,,,,,,,,,,,,,,,,,,,,,,,,,,,,,,,,,,,,,,,,,,,,,,,,,
,,,,5,2.5913,,,,,,16,chocolate,flower,,88924,001,2022-04-24_15h56.51.001,SPAMnetsValid,2021.1.4,Win32,60.48874909,,,,,,,,,,,,,5,2.5913,0,70,70,22,1,,,,,,,,,,,,,,,,,,,,,,,,,,,,,,,,,,,,,,,,,,,,,,,,,,,,,,,,,,,,,,,,,,,,,,
,,,,4,6.6526,,,,,,81,pretzel,yogurt,,88924,001,2022-04-24_15h56.51.001,SPAMnetsValid,2021.1.4,Win32,60.48874909,,,,,,,,,,,,,4,6.6526,0,71,71,50,1,,,,,,,,,,,,,,,,,,,,,,,,,,,,,,,,,,,,,,,,,,,,,,,,,,,,,,,,,,,,,,,,,,,,,,
,,,,4,1.8104,,,,,,12,cookie,yogurt,,88924,001,2022-04-24_15h56.51.001,SPAMnetsValid,2021.1.4,Win32,60.48874909,,,,,,,,,,,,,4,1.8104,0,72,72,36,1,,,,,,,,,,,,,,,,,,,,,,,,,,,,,,,,,,,,,,,,,,,,,,,,,,,,,,,,,,,,,,,,,,,,,,
,,,,2,1.5597,,,,,,21,cake,onion,,88924,001,2022-04-24_15h56.51.001,SPAMnetsValid,2021.1.4,Win32,60.48874909,,,,,,,,,,,,,2,1.5597,0,73,73,63,1,,,,,,,,,,,,,,,,,,,,,,,,,,,,,,,,,,,,,,,,,,,,,,,,,,,,,,,,,,,,,,,,,,,,,,
,,,,3,1.9855,,,,,,34,melon,oven,,88924,001,2022-04-24_15h56.51.001,SPAMnetsValid,2021.1.4,Win32,60.48874909,,,,,,,,,,,,,3,1.9855,0,74,74,7,1,,,,,,,,,,,,,,,,,,,,,,,,,,,,,,,,,,,,,,,,,,,,,,,,,,,,,,,,,,,,,,,,,,,,,,
,,,,9,2.3516,,,,,,3,cake,oven,,88924,001,2022-04-24_15h56.51.001,SPAMnetsValid,2021.1.4,Win32,60.48874909,,,,,,,,,,,,,9,2.3516,0,75,75,30,1,,,,,,,,,,,,,,,,,,,,,,,,,,,,,,,,,,,,,,,,,,,,,,,,,,,,,,,,,,,,,,,,,,,,,,
,,,,8,3.1933,,,,,,6,garden,onion,,88924,001,2022-04-24_15h56.51.001,SPAMnetsValid,2021.1.4,Win32,60.48874909,,,,,,,,,,,,,8,3.1933,0,76,76,83,1,,,,,,,,,,,,,,,,,,,,,,,,,,,,,,,,,,,,,,,,,,,,,,,,,,,,,,,,,,,,,,,,,,,,,,
,,,,9,3.9185,,,,,,94,kitchen,microwave,,88924,001,2022-04-24_15h56.51.001,SPAMnetsValid,2021.1.4,Win32,60.48874909,,,,,,,,,,,,,9,3.9185,0,77,77,58,1,,,,,,,,,,,,,,,,,,,,,,,,,,,,,,,,,,,,,,,,,,,,,,,,,,,,,,,,,,,,,,,,,,,,,,
,,,,2,4.191,,,,,,67,flower,yogurt,,88924,001,2022-04-24_15h56.51.001,SPAMnetsValid,2021.1.4,Win32,60.48874909,,,,,,,,,,,,,2,4.191,0,78,78,12,1,,,,,,,,,,,,,,,,,,,,,,,,,,,,,,,,,,,,,,,,,,,,,,,,,,,,,,,,,,,,,,,,,,,,,,
,,,,2,1.4615,,,,,,45,onion,pretzel,,88924,001,2022-04-24_15h56.51.001,SPAMnetsValid,2021.1.4,Win32,60.48874909,,,,,,,,,,,,,2,1.4615,0,79,79,69,1,,,,,,,,,,,,,,,,,,,,,,,,,,,,,,,,,,,,,,,,,,,,,,,,,,,,,,,,,,,,,,,,,,,,,,
,,,,6,2.6248,,,,,,80,chocolate,tree,,88924,001,2022-04-24_15h56.51.001,SPAMnetsValid,2021.1.4,Win32,60.48874909,,,,,,,,,,,,,6,2.6248,0,80,80,89,1,,,,,,,,,,,,,,,,,,,,,,,,,,,,,,,,,,,,,,,,,,,,,,,,,,,,,,,,,,,,,,,,,,,,,,
,,,,1,2.7515,,,,,,53,garden,pretzel,,88924,001,2022-04-24_15h56.51.001,SPAMnetsValid,2021.1.4,Win32,60.48874909,,,,,,,,,,,,,1,2.7515,0,81,81,0,1,,,,,,,,,,,,,,,,,,,,,,,,,,,,,,,,,,,,,,,,,,,,,,,,,,,,,,,,,,,,,,,,,,,,,,
,,,,1,2.1865,,,,,,70,chocolate,onion,,88924,001,2022-04-24_15h56.51.001,SPAMnetsValid,2021.1.4,Win32,60.48874909,,,,,,,,,,,,,1,2.1865,0,82,82,74,1,,,,,,,,,,,,,,,,,,,,,,,,,,,,,,,,,,,,,,,,,,,,,,,,,,,,,,,,,,,,,,,,,,,,,,
,,,,1,1.7575,,,,,,71,broom,rose,,88924,001,2022-04-24_15h56.51.001,SPAMnetsValid,2021.1.4,Win32,60.48874909,,,,,,,,,,,,,1,1.7575,0,83,83,61,1,,,,,,,,,,,,,,,,,,,,,,,,,,,,,,,,,,,,,,,,,,,,,,,,,,,,,,,,,,,,,,,,,,,,,,
,,,,3,3.3771,,,,,,20,rose,tree,,88924,001,2022-04-24_15h56.51.001,SPAMnetsValid,2021.1.4,Win32,60.48874909,,,,,,,,,,,,,3,3.3771,0,84,84,66,1,,,,,,,,,,,,,,,,,,,,,,,,,,,,,,,,,,,,,,,,,,,,,,,,,,,,,,,,,,,,,,,,,,,,,,
,,,,1,1.7851,,,,,,10,flower,onion,,88924,001,2022-04-24_15h56.51.001,SPAMnetsValid,2021.1.4,Win32,60.48874909,,,,,,,,,,,,,1,1.7851,0,85,85,45,1,,,,,,,,,,,,,,,,,,,,,,,,,,,,,,,,,,,,,,,,,,,,,,,,,,,,,,,,,,,,,,,,,,,,,,
,,,,1,1.8239,,,,,,5,oven,tree,,88924,001,2022-04-24_15h56.51.001,SPAMnetsValid,2021.1.4,Win32,60.48874909,,,,,,,,,,,,,1,1.8239,0,86,86,70,1,,,,,,,,,,,,,,,,,,,,,,,,,,,,,,,,,,,,,,,,,,,,,,,,,,,,,,,,,,,,,,,,,,,,,,
,,,,6,2.826,,,,,,69,carrot,refrigerator,,88924,001,2022-04-24_15h56.51.001,SPAMnetsValid,2021.1.4,Win32,60.48874909,,,,,,,,,,,,,6,2.826,0,87,87,75,1,,,,,,,,,,,,,,,,,,,,,,,,,,,,,,,,,,,,,,,,,,,,,,,,,,,,,,,,,,,,,,,,,,,,,,
,,,,3,2.5683,,,,,,28,cake,melon,,88924,001,2022-04-24_15h56.51.001,SPAMnetsValid,2021.1.4,Win32,60.48874909,,,,,,,,,,,,,3,2.5683,0,88,88,54,1,,,,,,,,,,,,,,,,,,,,,,,,,,,,,,,,,,,,,,,,,,,,,,,,,,,,,,,,,,,,,,,,,,,,,,
,,,,2,1.8757,,,,,,91,microwave,rose,,88924,001,2022-04-24_15h56.51.001,SPAMnetsValid,2021.1.4,Win32,60.48874909,,,,,,,,,,,,,2,1.8757,0,89,89,84,1,,,,,,,,,,,,,,,,,,,,,,,,,,,,,,,,,,,,,,,,,,,,,,,,,,,,,,,,,,,,,,,,,,,,,,
,,,,1,2.057,,,,,,83,broom,carrot,,88924,001,2022-04-24_15h56.51.001,SPAMnetsValid,2021.1.4,Win32,60.48874909,,,,,,,,,,,,,1,2.057,0,90,90,4,1,,,,,,,,,,,,,,,,,,,,,,,,,,,,,,,,,,,,,,,,,,,,,,,,,,,,,,,,,,,,,,,,,,,,,,
,,,,2,2.7348,,,,,,50,carrot,rose,,88924,001,2022-04-24_15h56.51.001,SPAMnetsValid,2021.1.4,Win32,60.48874909,,,,,,,,,,,,,2,2.7348,0,91,91,73,1,,,,,,,,,,,,,,,,,,,,,,,,,,,,,,,,,,,,,,,,,,,,,,,,,,,,,,,,,,,,,,,,,,,,,,
,,,,1,1.9642,,,,,,90,cactus,cake,,88924,001,2022-04-24_15h56.51.001,SPAMnetsValid,2021.1.4,Win32,60.48874909,,,,,,,,,,,,,1,1.9642,0,92,92,85,1,,,,,,,,,,,,,,,,,,,,,,,,,,,,,,,,,,,,,,,,,,,,,,,,,,,,,,,,,,,,,,,,,,,,,,
,,,,3,2.307,,,,,,89,chocolate,rose,,88924,001,2022-04-24_15h56.51.001,SPAMnetsValid,2021.1.4,Win32,60.48874909,,,,,,,,,,,,,3,2.307,0,93,93,60,1,,,,,,,,,,,,,,,,,,,,,,,,,,,,,,,,,,,,,,,,,,,,,,,,,,,,,,,,,,,,,,,,,,,,,,
,,,,9,2.0405,,,,,,192,microwave,microwave,CHECK,88924,001,2022-04-24_15h56.51.001,SPAMnetsValid,2021.1.4,Win32,60.48874909,,,,,,,,,,,,,9,2.0405,0,94,94,53,1,,,,,,,,,,,,,,,,,,,,,,,,,,,,,,,,,,,,,,,,,,,,,,,,,,,,,,,,,,,,,,,,,,,,,,
,,,,2,2.1223,,,,,,29,chocolate,melon,,88924,001,2022-04-24_15h56.51.001,SPAMnetsValid,2021.1.4,Win32,60.48874909,,,,,,,,,,,,,2,2.1223,0,95,95,34,1,,,,,,,,,,,,,,,,,,,,,,,,,,,,,,,,,,,,,,,,,,,,,,,,,,,,,,,,,,,,,,,,,,,,,,
,,,,1,3.7747,,,,,,72,broom,onion,,88924,001,2022-04-24_15h56.51.001,SPAMnetsValid,2021.1.4,Win32,60.48874909,,,,,,,,,,,,,1,3.7747,0,96,96,27,1,,,,,,,,,,,,,,,,,,,,,,,,,,,,,,,,,,,,,,,,,,,,,,,,,,,,,,,,,,,,,,,,,,,,,,
,,,,,,,,,,,,,,,88924,001,2022-04-24_15h56.51.001,SPAMnetsValid,2021.1.4,Win32,60.48874909,,,,,,,,,,,,,,,,,,,,0,0,0,0,1,,,,,,,,,,,,,,,,,,,,,,,,,,,,,,,,,,,,,,,,,,,,,,,,,,,,,,,,,,,,,,,,,
,,,,,,,,,,,,,,,88924,001,2022-04-24_15h56.51.001,SPAMnetsValid,2021.1.4,Win32,60.48874909,,,,,,0,1,1,0,1,1,0,,,,,,,,,,,,,,,,,,,,,,,,,,,,,,,,,,,,,,,,,,,,,,,,,,,,,,,,,,,,,,,,,,,,,,,,,,,,,
,,,,,,,,,,,,,,,88924,001,2022-04-24_15h56.51.001,SPAMnetsValid,2021.1.4,Win32,60.48874909,,,,,,,,,,,,,,,,,,,,,,,,,3,9.3558,0,0,0,0,1,rancor,forbearance,ridicule,malice,bravery,3,,,,,,,,,,,,,,,,,,,,,,,,,,,,,,,,,,,,,,,,,,,,,,,,,,,,
,,,,,,,,,,,,,,,88924,001,2022-04-24_15h56.51.001,SPAMnetsValid,2021.1.4,Win32,60.48874909,,,,,,,,,,,,,,,,,,,,,,,,,4,5.7177,0,1,1,1,1,raucous,empty,quiet,smooth,harsh,4,,,,,,,,,,,,,,,,,,,,,,,,,,,,,,,,,,,,,,,,,,,,,,,,,,,,
,,,,,,,,,,,,,,,88924,001,2022-04-24_15h56.51.001,SPAMnetsValid,2021.1.4,Win32,60.48874909,,,,,,,,,,,,,,,,,,,,,,,,,3,4.8586,0,2,2,2,1,gargoyle,oil,medicine,carved waterspout,ugly building,3,,,,,,,,,,,,,,,,,,,,,,,,,,,,,,,,,,,,,,,,,,,,,,,,,,,,
,,,,,,,,,,,,,,,88924,001,2022-04-24_15h56.51.001,SPAMnetsValid,2021.1.4,Win32,60.48874909,,,,,,,,,,,,,,,,,,,,,,,,,1,8.1812,0,3,3,3,1,recrudesce,purify,renew activity,lack refinement,crush,2,,,,,,,,,,,,,,,,,,,,,,,,,,,,,,,,,,,,,,,,,,,,,,,,,,,,
,,,,,,,,,,,,,,,88924,001,2022-04-24_15h56.51.001,SPAMnetsValid,2021.1.4,Win32,60.48874909,,,,,,,,,,,,,,,,,,,,,,,,,2,14.1942,0,4,4,4,1,specious,"plausible, but not genuine",noteworthy,class or variety,roomy,1,,,,,,,,,,,,,,,,,,,,,,,,,,,,,,,,,,,,,,,,,,,,,,,,,,,,
,,,,,,,,,,,,,,,88924,001,2022-04-24_15h56.51.001,SPAMnetsValid,2021.1.4,Win32,60.48874909,,,,,,,,,,,,,,,,,,,,,,,,,3,4.0451,0,5,5,5,1,bauble,bubble,showy plaything,idle talk,confusion,2,,,,,,,,,,,,,,,,,,,,,,,,,,,,,,,,,,,,,,,,,,,,,,,,,,,,
,,,,,,,,,,,,,,,88924,001,2022-04-24_15h56.51.001,SPAMnetsValid,2021.1.4,Win32,60.48874909,,,,,,,,,,,,,,,,,,,,,,,,,4,7.8381,0,6,6,6,1,prolific,scarce,producing abundantly,reckless,speaking profanely,2,,,,,,,,,,,,,,,,,,,,,,,,,,,,,,,,,,,,,,,,,,,,,,,,,,,,
,,,,,,,,,,,,,,,88924,001,2022-04-24_15h56.51.001,SPAMnetsValid,2021.1.4,Win32,60.48874909,,,,,,,,,,,,,,,,,,,,,,,,,2,8.8709,0,7,7,7,1,opulent,party,wealthy,happy frame of mind,semiprecious stone,2,,,,,,,,,,,,,,,,,,,,,,,,,,,,,,,,,,,,,,,,,,,,,,,,,,,,
,,,,,,,,,,,,,,,88924,001,2022-04-24_15h56.51.001,SPAMnetsValid,2021.1.4,Win32,60.48874909,,,,,,,,,,,,,,,,,,,,,,,,,1,4.7067,0,8,8,8,1,coercion,conspiracy,strategy,restraint,attraction,3,,,,,,,,,,,,,,,,,,,,,,,,,,,,,,,,,,,,,,,,,,,,,,,,,,,,
,,,,,,,,,,,,,,,88924,001,2022-04-24_15h56.51.001,SPAMnetsValid,2021.1.4,Win32,60.48874909,,,,,,,,,,,,,,,,,,,,,,,,,4,22.1787,0,9,9,9,1,hiatus,animal,calamity,dread,gap,4,,,,,,,,,,,,,,,,,,,,,,,,,,,,,,,,,,,,,,,,,,,,,,,,,,,,
,,,,,,,,,,,,,,,88924,001,2022-04-24_15h56.51.001,SPAMnetsValid,2021.1.4,Win32,60.48874909,,,,,,,,,,,,,,,,,,,,,,,,,3,9.586,0,10,10,10,1,germane,microbe,contagious,relevant,different,3,,,,,,,,,,,,,,,,,,,,,,,,,,,,,,,,,,,,,,,,,,,,,,,,,,,,
,,,,,,,,,,,,,,,88924,001,2022-04-24_15h56.51.001,SPAMnetsValid,2021.1.4,Win32,60.48874909,,,,,,,,,,,,,,,,,,,,,,,,,4,14.5017,0,11,11,11,1,perfunctory,fundamental,formal,superficial,careful,3,,,,,,,,,,,,,,,,,,,,,,,,,,,,,,,,,,,,,,,,,,,,,,,,,,,,
,,,,,,,,,,,,,,,88924,001,2022-04-24_15h56.51.001,SPAMnetsValid,2021.1.4,Win32,60.48874909,,,,,,,,,,,,,,,,,,,,,,,,,4,4.3056,0,12,12,12,1,diverge,reveal,chant,distract the attention of,differ or turn off from,4,,,,,,,,,,,,,,,,,,,,,,,,,,,,,,,,,,,,,,,,,,,,,,,,,,,,
,,,,,,,,,,,,,,,88924,001,2022-04-24_15h56.51.001,SPAMnetsValid,2021.1.4,Win32,60.48874909,,,,,,,,,,,,,,,,,,,,,,,,,1,7.932,0,13,13,13,1,evoke,take away,anger,connect,bring out,4,,,,,,,,,,,,,,,,,,,,,,,,,,,,,,,,,,,,,,,,,,,,,,,,,,,,
,,,,,,,,,,,,,,,88924,001,2022-04-24_15h56.51.001,SPAMnetsValid,2021.1.4,Win32,60.48874909,,,,,,,,,,,,,,,,,,,,,,,,,1,8.3474,0,14,14,14,1,pertinent,relevant,lying next to,necessary,bold,1,,,,,,,,,,,,,,,,,,,,,,,,,,,,,,,,,,,,,,,,,,,,,,,,,,,,
,,,,,,,,,,,,,,,88924,001,2022-04-24_15h56.51.001,SPAMnetsValid,2021.1.4,Win32,60.48874909,,,,,,,,,,,,,,,,,,,,,,,,,2,4.843,0,15,15,15,1,holocaust,entirety,destruction,saintly,price,2,,,,,,,,,,,,,,,,,,,,,,,,,,,,,,,,,,,,,,,,,,,,,,,,,,,,
,,,,,,,,,,,,,,,88924,001,2022-04-24_15h56.51.001,SPAMnetsValid,2021.1.4,Win32,60.48874909,,,,,,,,,,,,,,,,,,,,,,,,,3,8.7029,0,16,16,16,1,piquant,mellow,fish,pungent,cloth,3,,,,,,,,,,,,,,,,,,,,,,,,,,,,,,,,,,,,,,,,,,,,,,,,,,,,
,,,,,,,,,,,,,,,88924,001,2022-04-24_15h56.51.001,SPAMnetsValid,2021.1.4,Win32,60.48874909,,,,,,,,,,,,,,,,,,,,,,,,,3,4.9758,0,17,17,17,1,firmament,foundation,heavens,strong,glue,2,,,,,,,,,,,,,,,,,,,,,,,,,,,,,,,,,,,,,,,,,,,,,,,,,,,,
,,,,,,,,,,,,,,,88924,001,2022-04-24_15h56.51.001,SPAMnetsValid,2021.1.4,Win32,60.48874909,,,,,,,,,,,,,,,,,,,,,,,,,,,,,,,,,,,,,,3,16.4406,0,0,0,0,1,marketable,partisan,jocular,marriageable,salable,essential,4,,,,,,,,,,,,,,,,,,,,,,,,,,,,,,,,,,,,,,
,,,,,,,,,,,,,,,88924,001,2022-04-24_15h56.51.001,SPAMnetsValid,2021.1.4,Win32,60.48874909,,,,,,,,,,,,,,,,,,,,,,,,,,,,,,,,,,,,,,4,9.4546,0,1,1,1,1,cottontail,squirrel,poplar,boa,marshy plant,rabbit,5,,,,,,,,,,,,,,,,,,,,,,,,,,,,,,,,,,,,,,
,,,,,,,,,,,,,,,88924,001,2022-04-24_15h56.51.001,SPAMnetsValid,2021.1.4,Win32,60.48874909,,,,,,,,,,,,,,,,,,,,,,,,,,,,,,,,,,,,,,3,3.2551,0,2,2,2,1,boggy,afraid,false,marshy,dense,black,3,,,,,,,,,,,,,,,,,,,,,,,,,,,,,,,,,,,,,,
,,,,,,,,,,,,,,,88924,001,2022-04-24_15h56.51.001,SPAMnetsValid,2021.1.4,Win32,60.48874909,,,,,,,,,,,,,,,,,,,,,,,,,,,,,,,,,,,,,,3,24.1406,0,3,3,3,1,gruesomeness,blackness,falseness,vindictiveness,drunkenness,ghastliness,5,,,,,,,,,,,,,,,,,,,,,,,,,,,,,,,,,,,,,,
,,,,,,,,,,,,,,,88924,001,2022-04-24_15h56.51.001,SPAMnetsValid,2021.1.4,Win32,60.48874909,,,,,,,,,,,,,,,,,,,,,,,,,,,,,,,,,,,,,,3,5.5501,0,4,4,4,1,loathing,diffidence,laziness,abhorrence,cleverness,comfort,3,,,,,,,,,,,,,,,,,,,,,,,,,,,,,,,,,,,,,,
,,,,,,,,,,,,,,,88924,001,2022-04-24_15h56.51.001,SPAMnetsValid,2021.1.4,Win32,60.48874909,,,,,,,,,,,,,,,,,,,,,,,,,,,,,,,,,,,,,,1,9.8901,0,5,5,5,1,bantam,fowl,ridicule,cripple,vegetable,ensign,1,,,,,,,,,,,,,,,,,,,,,,,,,,,,,,,,,,,,,,
,,,,,,,,,,,,,,,88924,001,2022-04-24_15h56.51.001,SPAMnetsValid,2021.1.4,Win32,60.48874909,,,,,,,,,,,,,,,,,,,,,,,,,,,,,,,,,,,,,,5,15.233,0,6,6,6,1,evoke,wake up,surrender,reconnoiter,transcend,call forth,5,,,,,,,,,,,,,,,,,,,,,,,,,,,,,,,,,,,,,,
,,,,,,,,,,,,,,,88924,001,2022-04-24_15h56.51.001,SPAMnetsValid,2021.1.4,Win32,60.48874909,,,,,,,,,,,,,,,,,,,,,,,,,,,,,,,,,,,,,,5,8.0669,0,7,7,7,1,unobtrusive,unintelligent,epileptic,illogical,lineal,modest,5,,,,,,,,,,,,,,,,,,,,,,,,,,,,,,,,,,,,,,
,,,,,,,,,,,,,,,88924,001,2022-04-24_15h56.51.001,SPAMnetsValid,2021.1.4,Win32,60.48874909,,,,,,,,,,,,,,,,,,,,,,,,,,,,,,,,,,,,,,4,3.2431,0,8,8,8,1,terrain,ice cream,final test,tractor,area of ground,weight,4,,,,,,,,,,,,,,,,,,,,,,,,,,,,,,,,,,,,,,
,,,,,,,,,,,,,,,88924,001,2022-04-24_15h56.51.001,SPAMnetsValid,2021.1.4,Win32,60.48874909,,,,,,,,,,,,,,,,,,,,,,,,,,,,,,,,,,,,,,1,5.476,0,9,9,9,1,capriciousness,stubbornness,courage,whimsicality,amazement,greediness,3,,,,,,,,,,,,,,,,,,,,,,,,,,,,,,,,,,,,,,
,,,,,,,,,,,,,,,88924,001,2022-04-24_15h56.51.001,SPAMnetsValid,2021.1.4,Win32,60.48874909,,,,,,,,,,,,,,,,,,,,,,,,,,,,,,,,,,,,,,2,19.7203,0,10,10,10,1,maelstrom,slander,whirlpool,enmity,armor,majolica,2,,,,,,,,,,,,,,,,,,,,,,,,,,,,,,,,,,,,,,
,,,,,,,,,,,,,,,88924,001,2022-04-24_15h56.51.001,SPAMnetsValid,2021.1.4,Win32,60.48874909,,,,,,,,,,,,,,,,,,,,,,,,,,,,,,,,,,,,,,5,4.0768,0,11,11,11,1,tentative,critical,conclusive,authentic,provisional,apprehensive,4,,,,,,,,,,,,,,,,,,,,,,,,,,,,,,,,,,,,,,
,,,,,,,,,,,,,,,88924,001,2022-04-24_15h56.51.001,SPAMnetsValid,2021.1.4,Win32,60.48874909,,,,,,,,,,,,,,,,,,,,,,,,,,,,,,,,,,,,,,5,11.7316,0,12,12,12,1,placate,rehabilitate,plagiarize,depredate,apprise,conciliate,5,,,,,,,,,,,,,,,,,,,,,,,,,,,,,,,,,,,,,,
,,,,,,,,,,,,,,,88924,001,2022-04-24_15h56.51.001,SPAMnetsValid,2021.1.4,Win32,60.48874909,,,,,,,,,,,,,,,,,,,,,,,,,,,,,,,,,,,,,,5,8.1728,0,13,13,13,1,surcease,enlightenment,cessation,inattention,censor,substitution,2,,,,,,,,,,,,,,,,,,,,,,,,,,,,,,,,,,,,,,
,,,,,,,,,,,,,,,88924,001,2022-04-24_15h56.51.001,SPAMnetsValid,2021.1.4,Win32,60.48874909,,,,,,,,,,,,,,,,,,,,,,,,,,,,,,,,,,,,,,2,7.573,0,14,14,14,1,apathetic,wandering,impassive,hateful,prophetic,overflowing,2,,,,,,,,,,,,,,,,,,,,,,,,,,,,,,,,,,,,,,
,,,,,,,,,,,,,,,88924,001,2022-04-24_15h56.51.001,SPAMnetsValid,2021.1.4,Win32,60.48874909,,,,,,,,,,,,,,,,,,,,,,,,,,,,,,,,,,,,,,4,28.9681,0,15,15,15,1,paternoster,paternalism,patricide,malediction,benediction,prayer,5,,,,,,,,,,,,,,,,,,,,,,,,,,,,,,,,,,,,,,
,,,,,,,,,,,,,,,88924,001,2022-04-24_15h56.51.001,SPAMnetsValid,2021.1.4,Win32,60.48874909,,,,,,,,,,,,,,,,,,,,,,,,,,,,,,,,,,,,,,1,4.1186,0,16,16,16,1,opalescence,opulence,senescence,bankruptcy,iridescence,assiduity,4,,,,,,,,,,,,,,,,,,,,,,,,,,,,,,,,,,,,,,
,,,,,,,,,,,,,,,88924,001,2022-04-24_15h56.51.001,SPAMnetsValid,2021.1.4,Win32,60.48874909,,,,,,,,,,,,,,,,,,,,,,,,,,,,,,,,,,,,,,2,9.4362,0,17,17,17,1,lush,stupid,luxurious,hazy,putrid,languishing,2,,,,,,,,,,,,,,,,,,,,,,,,,,,,,,,,,,,,,,
,,,,,,,,,,,,,,,88924,001,2022-04-24_15h56.51.001,SPAMnetsValid,2021.1.4,Win32,60.48874909,,,,,,,,,,,,,,,,,,,,,,,,,,,,,,,,,,,,,,5,12.002,0,18,18,18,1,curtailment,expenditure,abandonment,abridgment,improvement,forgery,3,,,,,,,,,,,,,,,,,,,,,,,,,,,,,,,,,,,,,,
,,,,,,,,,,,,,,,88924,001,2022-04-24_15h56.51.001,SPAMnetsValid,2021.1.4,Win32,60.48874909,,,,,,,,,,,,,,,,,,,,,,,,,,,,,,,,,,,,,,2,11.4694,0,19,19,19,1,perversity,adversity,perviousness,travesty,waywardness,gentility,4,,,,,,,,,,,,,,,,,,,,,,,,,,,,,,,,,,,,,,
,,,,,,,,,,,,,,,88924,001,2022-04-24_15h56.51.001,SPAMnetsValid,2021.1.4,Win32,60.48874909,,,,,,,,,,,,,,,,,,,,,,,,,,,,,,,,,,,,,,3,12.0994,0,20,20,20,1,calumnious,complimentary,analogous,slanderous,tempestuous,magnanimous,3,,,,,,,,,,,,,,,,,,,,,,,,,,,,,,,,,,,,,,
,,,,,,,,,,,,,,,88924,001,2022-04-24_15h56.51.001,SPAMnetsValid,2021.1.4,Win32,60.48874909,,,,,,,,,,,,,,,,,,,,,,,,,,,,,,,,,,,,,,2,6.7864,0,21,21,21,1,illiberality,bigotry,imbecility,illegibility,cautery,immaturity,1,,,,,,,,,,,,,,,,,,,,,,,,,,,,,,,,,,,,,,
,,,,,,,,,,,,,,,88924,001,2022-04-24_15h56.51.001,SPAMnetsValid,2021.1.4,Win32,60.48874909,,,,,,,,,,,,,,,,,,,,,,,,,,,,,,,,,,,,,,2,2.2118,0,22,22,22,1,clabber,rejoice,gossip,curdle,crow,hobble,3,,,,,,,,,,,,,,,,,,,,,,,,,,,,,,,,,,,,,,
,,,,,,,,,,,,,,,88924,001,2022-04-24_15h56.51.001,SPAMnetsValid,2021.1.4,Win32,60.48874909,,,,,,,,,,,,,,,,,,,,,,,,,,,,,,,,,,,,,,1,7.7984,0,23,23,23,1,sedulousness,diligence,credulousness,seduction,perilousness,frankness,1,,,,,,,,,,,,,,,,,,,,,,,,,,,,,,,,,,,,,,
,,,,,,,,,,,,,,,88924,001,2022-04-24_15h56.51.001,SPAMnetsValid,2021.1.4,Win32,60.48874909,,,,,,,,,,,,,,,,,,,,,,,,,,,,,,,,,,,,,,,,,,,,,,,,,,,,relaxation,candle,0,0,0,0,1,,,,,,,,,,,,,,,,,,,,,,,,,,,,,,,
,,,,,,,,,,,,,,,88924,001,2022-04-24_15h56.51.001,SPAMnetsValid,2021.1.4,Win32,60.48874909,,,,,,,,,,,,,,,,,,,,,,,,,,,,,,,,,,,,,,,,,,,,,,,,,,,,light,candle,1,0,1,0,1,,,,,,,,,,,,,,,,,,,,,,,,,,,,,,,
,,,,,,,,,,,,,,,88924,001,2022-04-24_15h56.51.001,SPAMnetsValid,2021.1.4,Win32,60.48874909,,,,,,,,,,,,,,,,,,,,,,,,,,,,,,,,,,,,,,,,,,,,,,,,,,,,provides a good scent,candle,2,0,2,0,1,,,,,,,,,,,,,,,,,,,,,,,,,,,,,,,
,,,,,,,,,,,,,,,88924,001,2022-04-24_15h56.51.001,SPAMnetsValid,2021.1.4,Win32,60.48874909,,,,,,,,,,,,,,,,,,,,,,,,,,,,,,,,,,,,,,,,,,,,,,,,,,,,romance,candle,3,0,3,0,1,,,,,,,,,,,,,,,,,,,,,,,,,,,,,,,
,,,,,,,,,,,,,,,88924,001,2022-04-24_15h56.51.001,SPAMnetsValid,2021.1.4,Win32,60.48874909,,,,,,,,,,,,,,,,,,,,,,,,,,,,,,,,,,,,,,,,,,,,,,,,,,,,decoration,candle,4,0,4,0,1,,,,,,,,,,,,,,,,,,,,,,,,,,,,,,,
,,,,,,,,,,,,,,,88924,001,2022-04-24_15h56.51.001,SPAMnetsValid,2021.1.4,Win32,60.48874909,,,,,,,,,,,,,,,,,,,,,,,,,,,,,,,,,,,,,,,,,,,,,,,,,,,,emergency lighting,candle,5,0,5,0,1,,,,,,,,,,,,,,,,,,,,,,,,,,,,,,,
,,,,,,,,,,,,,,,88924,001,2022-04-24_15h56.51.001,SPAMnetsValid,2021.1.4,Win32,60.48874909,,,,,,,,,,,,,,,,,,,,,,,,,,,,,,,,,,,,,,,,,,,,,,,,,,,,used for a religious purpuse,candle,6,0,6,0,1,,,,,,,,,,,,,,,,,,,,,,,,,,,,,,,
,,,,,,,,,,,,,,,88924,001,2022-04-24_15h56.51.001,SPAMnetsValid,2021.1.4,Win32,60.48874909,,,,,,,,,,,,,,,,,,,,,,,,,,,,,,,,,,,,,,,,,,,,,,,,,,,,found at a dinner table,candle,7,0,7,0,1,,,,,,,,,,,,,,,,,,,,,,,,,,,,,,,
,,,,,,,,,,,,,,,88924,001,2022-04-24_15h56.51.001,SPAMnetsValid,2021.1.4,Win32,60.48874909,,,,,,,,,,,,,,,,,,,,,,,,,,,,,,,,,,,,,,,,,,,,,,,,,,,,,,,,,,,0,0,0,1,1,candle,,,,,,,,,,,,,,,,,,,,,,,,,
,,,,,,,,,,,,,,,88924,001,2022-04-24_15h56.51.001,SPAMnetsValid,2021.1.4,Win32,60.48874909,,,,,,,,,,,,,,,,,,,,,,,,,,,,,,,,,,,,,,,,,,,,,,,,,,,,carry water,bucket,0,0,0,0,1,,,,,,,,,,,,,,,,,,,,,,,,,,,,,,,
,,,,,,,,,,,,,,,88924,001,2022-04-24_15h56.51.001,SPAMnetsValid,2021.1.4,Win32,60.48874909,,,,,,,,,,,,,,,,,,,,,,,,,,,,,,,,,,,,,,,,,,,,,,,,,,,,at the beach to carry sand,bucket,1,0,1,0,1,,,,,,,,,,,,,,,,,,,,,,,,,,,,,,,
,,,,,,,,,,,,,,,88924,001,2022-04-24_15h56.51.001,SPAMnetsValid,2021.1.4,Win32,60.48874909,,,,,,,,,,,,,,,,,,,,,,,,,,,,,,,,,,,,,,,,,,,,,,,,,,,,can be used as a planter,bucket,2,0,2,0,1,,,,,,,,,,,,,,,,,,,,,,,,,,,,,,,
,,,,,,,,,,,,,,,88924,001,2022-04-24_15h56.51.001,SPAMnetsValid,2021.1.4,Win32,60.48874909,,,,,,,,,,,,,,,,,,,,,,,,,,,,,,,,,,,,,,,,,,,,,,,,,,,,hold trash,bucket,3,0,3,0,1,,,,,,,,,,,,,,,,,,,,,,,,,,,,,,,
,,,,,,,,,,,,,,,88924,001,2022-04-24_15h56.51.001,SPAMnetsValid,2021.1.4,Win32,60.48874909,,,,,,,,,,,,,,,,,,,,,,,,,,,,,,,,,,,,,,,,,,,,,,,,,,,,composte,bucket,4,0,4,0,1,,,,,,,,,,,,,,,,,,,,,,,,,,,,,,,
,,,,,,,,,,,,,,,88924,001,2022-04-24_15h56.51.001,SPAMnetsValid,2021.1.4,Win32,60.48874909,,,,,,,,,,,,,,,,,,,,,,,,,,,,,,,,,,,,,,,,,,,,,,,,,,,,improvised toilet,bucket,5,0,5,0,1,,,,,,,,,,,,,,,,,,,,,,,,,,,,,,,
,,,,,,,,,,,,,,,88924,001,2022-04-24_15h56.51.001,SPAMnetsValid,2021.1.4,Win32,60.48874909,,,,,,,,,,,,,,,,,,,,,,,,,,,,,,,,,,,,,,,,,,,,,,,,,,,,,,,,,,,0,1,1,0,1,bucket,,,,,,,,,,,,,,,,,,,,,,,,,
,,,,,,,,,,,,,,,88924,001,2022-04-24_15h56.51.001,SPAMnetsValid,2021.1.4,Win32,60.48874909,,,,,,,,,,,,,,,,,,,,,,,,,,,,,,,,,,,,,,,,,,,,,,,,,,,,sleep,pillow,0,0,0,0,1,,,,,,,,,,,,,,,,,,,,,,,,,,,,,,,
,,,,,,,,,,,,,,,88924,001,2022-04-24_15h56.51.001,SPAMnetsValid,2021.1.4,Win32,60.48874909,,,,,,,,,,,,,,,,,,,,,,,,,,,,,,,,,,,,,,,,,,,,,,,,,,,,pillow fight,pillow,1,0,1,0,1,,,,,,,,,,,,,,,,,,,,,,,,,,,,,,,
,,,,,,,,,,,,,,,88924,001,2022-04-24_15h56.51.001,SPAMnetsValid,2021.1.4,Win32,60.48874909,,,,,,,,,,,,,,,,,,,,,,,,,,,,,,,,,,,,,,,,,,,,,,,,,,,,back support,pillow,2,0,2,0,1,,,,,,,,,,,,,,,,,,,,,,,,,,,,,,,
,,,,,,,,,,,,,,,88924,001,2022-04-24_15h56.51.001,SPAMnetsValid,2021.1.4,Win32,60.48874909,,,,,,,,,,,,,,,,,,,,,,,,,,,,,,,,,,,,,,,,,,,,,,,,,,,,supports head,pillow,3,0,3,0,1,,,,,,,,,,,,,,,,,,,,,,,,,,,,,,,
,,,,,,,,,,,,,,,88924,001,2022-04-24_15h56.51.001,SPAMnetsValid,2021.1.4,Win32,60.48874909,,,,,,,,,,,,,,,,,,,,,,,,,,,,,,,,,,,,,,,,,,,,,,,,,,,,pillow fort,pillow,4,0,4,0,1,,,,,,,,,,,,,,,,,,,,,,,,,,,,,,,
,,,,,,,,,,,,,,,88924,001,2022-04-24_15h56.51.001,SPAMnetsValid,2021.1.4,Win32,60.48874909,,,,,,,,,,,,,,,,,,,,,,,,,,,,,,,,,,,,,,,,,,,,,,,,,,,,seating,pillow,5,0,5,0,1,,,,,,,,,,,,,,,,,,,,,,,,,,,,,,,
,,,,,,,,,,,,,,,88924,001,2022-04-24_15h56.51.001,SPAMnetsValid,2021.1.4,Win32,60.48874909,,,,,,,,,,,,,,,,,,,,,,,,,,,,,,,,,,,,,,,,,,,,,,,,,,,,pet bed,pillow,6,0,6,0,1,,,,,,,,,,,,,,,,,,,,,,,,,,,,,,,
,,,,,,,,,,,,,,,88924,001,2022-04-24_15h56.51.001,SPAMnetsValid,2021.1.4,Win32,60.48874909,,,,,,,,,,,,,,,,,,,,,,,,,,,,,,,,,,,,,,,,,,,,,,,,,,,,,,,,,,,0,2,2,2,1,pillow,,,,,,,,,,,,,,,,,,,,,,,,,
,,,,,,,,,,,,,,,88924,001,2022-04-24_15h56.51.001,SPAMnetsValid,2021.1.4,Win32,60.48874909,,,,,,,,,,,,,,,,,,,,,,,,,,,,,,,,,,,,,,,,,,,,,,,,,,,,,,,,,,,,,,,,,dog,Animals,0,0,0,0,1,,,,,,,,,,,,,,,,,,
,,,,,,,,,,,,,,,88924,001,2022-04-24_15h56.51.001,SPAMnetsValid,2021.1.4,Win32,60.48874909,,,,,,,,,,,,,,,,,,,,,,,,,,,,,,,,,,,,,,,,,,,,,,,,,,,,,,,,,,,,,,,,,cat,Animals,1,0,1,0,1,,,,,,,,,,,,,,,,,,
,,,,,,,,,,,,,,,88924,001,2022-04-24_15h56.51.001,SPAMnetsValid,2021.1.4,Win32,60.48874909,,,,,,,,,,,,,,,,,,,,,,,,,,,,,,,,,,,,,,,,,,,,,,,,,,,,,,,,,,,,,,,,,horse,Animals,2,0,2,0,1,,,,,,,,,,,,,,,,,,
,,,,,,,,,,,,,,,88924,001,2022-04-24_15h56.51.001,SPAMnetsValid,2021.1.4,Win32,60.48874909,,,,,,,,,,,,,,,,,,,,,,,,,,,,,,,,,,,,,,,,,,,,,,,,,,,,,,,,,,,,,,,,,zebra,Animals,3,0,3,0,1,,,,,,,,,,,,,,,,,,
,,,,,,,,,,,,,,,88924,001,2022-04-24_15h56.51.001,SPAMnetsValid,2021.1.4,Win32,60.48874909,,,,,,,,,,,,,,,,,,,,,,,,,,,,,,,,,,,,,,,,,,,,,,,,,,,,,,,,,,,,,,,,,lion,Animals,4,0,4,0,1,,,,,,,,,,,,,,,,,,
,,,,,,,,,,,,,,,88924,001,2022-04-24_15h56.51.001,SPAMnetsValid,2021.1.4,Win32,60.48874909,,,,,,,,,,,,,,,,,,,,,,,,,,,,,,,,,,,,,,,,,,,,,,,,,,,,,,,,,,,,,,,,,panther,Animals,5,0,5,0,1,,,,,,,,,,,,,,,,,,
,,,,,,,,,,,,,,,88924,001,2022-04-24_15h56.51.001,SPAMnetsValid,2021.1.4,Win32,60.48874909,,,,,,,,,,,,,,,,,,,,,,,,,,,,,,,,,,,,,,,,,,,,,,,,,,,,,,,,,,,,,,,,,bear,Animals,6,0,6,0,1,,,,,,,,,,,,,,,,,,
,,,,,,,,,,,,,,,88924,001,2022-04-24_15h56.51.001,SPAMnetsValid,2021.1.4,Win32,60.48874909,,,,,,,,,,,,,,,,,,,,,,,,,,,,,,,,,,,,,,,,,,,,,,,,,,,,,,,,,,,,,,,,,fish,Animals,7,0,7,0,1,,,,,,,,,,,,,,,,,,
,,,,,,,,,,,,,,,88924,001,2022-04-24_15h56.51.001,SPAMnetsValid,2021.1.4,Win32,60.48874909,,,,,,,,,,,,,,,,,,,,,,,,,,,,,,,,,,,,,,,,,,,,,,,,,,,,,,,,,,,,,,,,,cheetah,Animals,8,0,8,0,1,,,,,,,,,,,,,,,,,,
,,,,,,,,,,,,,,,88924,001,2022-04-24_15h56.51.001,SPAMnetsValid,2021.1.4,Win32,60.48874909,,,,,,,,,,,,,,,,,,,,,,,,,,,,,,,,,,,,,,,,,,,,,,,,,,,,,,,,,,,,,,,,,giraffe,Animals,9,0,9,0,1,,,,,,,,,,,,,,,,,,
,,,,,,,,,,,,,,,88924,001,2022-04-24_15h56.51.001,SPAMnetsValid,2021.1.4,Win32,60.48874909,,,,,,,,,,,,,,,,,,,,,,,,,,,,,,,,,,,,,,,,,,,,,,,,,,,,,,,,,,,,,,,,,parrot,Animals,10,0,10,0,1,,,,,,,,,,,,,,,,,,
,,,,,,,,,,,,,,,88924,001,2022-04-24_15h56.51.001,SPAMnetsValid,2021.1.4,Win32,60.48874909,,,,,,,,,,,,,,,,,,,,,,,,,,,,,,,,,,,,,,,,,,,,,,,,,,,,,,,,,,,,,,,,,polar bear,Animals,11,0,11,0,1,,,,,,,,,,,,,,,,,,
,,,,,,,,,,,,,,,88924,001,2022-04-24_15h56.51.001,SPAMnetsValid,2021.1.4,Win32,60.48874909,,,,,,,,,,,,,,,,,,,,,,,,,,,,,,,,,,,,,,,,,,,,,,,,,,,,,,,,,,,,,,,,,penguin,Animals,12,0,12,0,1,,,,,,,,,,,,,,,,,,
,,,,,,,,,,,,,,,88924,001,2022-04-24_15h56.51.001,SPAMnetsValid,2021.1.4,Win32,60.48874909,,,,,,,,,,,,,,,,,,,,,,,,,,,,,,,,,,,,,,,,,,,,,,,,,,,,,,,,,,,,,,,,,sheep,Animals,13,0,13,0,1,,,,,,,,,,,,,,,,,,
,,,,,,,,,,,,,,,88924,001,2022-04-24_15h56.51.001,SPAMnetsValid,2021.1.4,Win32,60.48874909,,,,,,,,,,,,,,,,,,,,,,,,,,,,,,,,,,,,,,,,,,,,,,,,,,,,,,,,,,,,,,,,,cow,Animals,14,0,14,0,1,,,,,,,,,,,,,,,,,,
,,,,,,,,,,,,,,,88924,001,2022-04-24_15h56.51.001,SPAMnetsValid,2021.1.4,Win32,60.48874909,,,,,,,,,,,,,,,,,,,,,,,,,,,,,,,,,,,,,,,,,,,,,,,,,,,,,,,,,,,,,,,,,pig,Animals,15,0,15,0,1,,,,,,,,,,,,,,,,,,
,,,,,,,,,,,,,,,88924,001,2022-04-24_15h56.51.001,SPAMnetsValid,2021.1.4,Win32,60.48874909,,,,,,,,,,,,,,,,,,,,,,,,,,,,,,,,,,,,,,,,,,,,,,,,,,,,,,,,,,,,,,,,,goat,Animals,16,0,16,0,1,,,,,,,,,,,,,,,,,,
,,,,,,,,,,,,,,,88924,001,2022-04-24_15h56.51.001,SPAMnetsValid,2021.1.4,Win32,60.48874909,,,,,,,,,,,,,,,,,,,,,,,,,,,,,,,,,,,,,,,,,,,,,,,,,,,,,,,,,,,,,,,,,sea otter,Animals,17,0,17,0,1,,,,,,,,,,,,,,,,,,
,,,,,,,,,,,,,,,88924,001,2022-04-24_15h56.51.001,SPAMnetsValid,2021.1.4,Win32,60.48874909,,,,,,,,,,,,,,,,,,,,,,,,,,,,,,,,,,,,,,,,,,,,,,,,,,,,,,,,,,,,,,,,,manatee,Animals,18,0,18,0,1,,,,,,,,,,,,,,,,,,
,,,,,,,,,,,,,,,88924,001,2022-04-24_15h56.51.001,SPAMnetsValid,2021.1.4,Win32,60.48874909,,,,,,,,,,,,,,,,,,,,,,,,,,,,,,,,,,,,,,,,,,,,,,,,,,,,,,,,,,,,,,,,,dolphin,Animals,19,0,19,0,1,,,,,,,,,,,,,,,,,,
,,,,,,,,,,,,,,,88924,001,2022-04-24_15h56.51.001,SPAMnetsValid,2021.1.4,Win32,60.48874909,,,,,,,,,,,,,,,,,,,,,,,,,,,,,,,,,,,,,,,,,,,,,,,,,,,,,,,,,,,,,,,,,shark,Animals,20,0,20,0,1,,,,,,,,,,,,,,,,,,
,,,,,,,,,,,,,,,88924,001,2022-04-24_15h56.51.001,SPAMnetsValid,2021.1.4,Win32,60.48874909,,,,,,,,,,,,,,,,,,,,,,,,,,,,,,,,,,,,,,,,,,,,,,,,,,,,,,,,,,,,,,,,,octopus,Animals,21,0,21,0,1,,,,,,,,,,,,,,,,,,
,,,,,,,,,,,,,,,88924,001,2022-04-24_15h56.51.001,SPAMnetsValid,2021.1.4,Win32,60.48874909,,,,,,,,,,,,,,,,,,,,,,,,,,,,,,,,,,,,,,,,,,,,,,,,,,,,,,,,,,,,,,,,,crab,Animals,22,0,22,0,1,,,,,,,,,,,,,,,,,,
,,,,,,,,,,,,,,,88924,001,2022-04-24_15h56.51.001,SPAMnetsValid,2021.1.4,Win32,60.48874909,,,,,,,,,,,,,,,,,,,,,,,,,,,,,,,,,,,,,,,,,,,,,,,,,,,,,,,,,,,,,,,,,monkey,Animals,23,0,23,0,1,,,,,,,,,,,,,,,,,,
,,,,,,,,,,,,,,,88924,001,2022-04-24_15h56.51.001,SPAMnetsValid,2021.1.4,Win32,60.48874909,,,,,,,,,,,,,,,,,,,,,,,,,,,,,,,,,,,,,,,,,,,,,,,,,,,,,,,,,,,,,,,,,chicken,Animals,24,0,24,0,1,,,,,,,,,,,,,,,,,,
,,,,,,,,,,,,,,,88924,001,2022-04-24_15h56.51.001,SPAMnetsValid,2021.1.4,Win32,60.48874909,,,,,,,,,,,,,,,,,,,,,,,,,,,,,,,,,,,,,,,,,,,,,,,,,,,,,,,,,,,,,,,,,,,,,,,,0,0,0,0,1,Animals,,,,,,,,,,,,
,,,,,,,,,,,,,,,88924,001,2022-04-24_15h56.51.001,SPAMnetsValid,2021.1.4,Win32,60.48874909,,,,,,,,,,,,,,,,,,,,,,,,,,,,,,,,,,,,,,,,,,,,,,,,,,,,,,,,,,,,,,,,,,,,,,,,,,,,,,4,7.2009,0,0,0,0,1,"I enjoy concentrating on a fantasy or daydream and exploring all its possibilities, letting it grow and develop.",0,1,,
,,,,,,,,,,,,,,,88924,001,2022-04-24_15h56.51.001,SPAMnetsValid,2021.1.4,Win32,60.48874909,,,,,,,,,,,,,,,,,,,,,,,,,,,,,,,,,,,,,,,,,,,,,,,,,,,,,,,,,,,,,,,,,,,,,,,,,,,,,,4,2.5439,0,1,1,1,1,I think it's interesting to learn and develop new hobbies.,0,2,,
,,,,,,,,,,,,,,,88924,001,2022-04-24_15h56.51.001,SPAMnetsValid,2021.1.4,Win32,60.48874909,,,,,,,,,,,,,,,,,,,,,,,,,,,,,,,,,,,,,,,,,,,,,,,,,,,,,,,,,,,,,,,,,,,,,,,,,,,,,,3,3.0743,0,2,2,2,1,I am intrigued by the patterns I find in art and nature.,0,3,,
,,,,,,,,,,,,,,,88924,001,2022-04-24_15h56.51.001,SPAMnetsValid,2021.1.4,Win32,60.48874909,,,,,,,,,,,,,,,,,,,,,,,,,,,,,,,,,,,,,,,,,,,,,,,,,,,,,,,,,,,,,,,,,,,,,,,,,,,,,,2,5.6551,0,3,3,3,1,I believe letting students hear controversial speakers can only confuse and mislead them.,1,4,,
,,,,,,,,,,,,,,,88924,001,2022-04-24_15h56.51.001,SPAMnetsValid,2021.1.4,Win32,60.48874909,,,,,,,,,,,,,,,,,,,,,,,,,,,,,,,,,,,,,,,,,,,,,,,,,,,,,,,,,,,,,,,,,,,,,,,,,,,,,,4,4.5349,0,4,4,4,1,Poetry has little or no effect on me.,1,5,,
,,,,,,,,,,,,,,,88924,001,2022-04-24_15h56.51.001,SPAMnetsValid,2021.1.4,Win32,60.48874909,,,,,,,,,,,,,,,,,,,,,,,,,,,,,,,,,,,,,,,,,,,,,,,,,,,,,,,,,,,,,,,,,,,,,,,,,,,,,,4,6.5994,0,5,5,5,1,I would have difficulty just letting my mind wander without control or guidance.,1,6,,
,,,,,,,,,,,,,,,88924,001,2022-04-24_15h56.51.001,SPAMnetsValid,2021.1.4,Win32,60.48874909,,,,,,,,,,,,,,,,,,,,,,,,,,,,,,,,,,,,,,,,,,,,,,,,,,,,,,,,,,,,,,,,,,,,,,,,,,,,,,3,5.2874,0,6,6,6,1,I seldom notice the moods or feelings that different environments produce.,1,7,,
,,,,,,,,,,,,,,,88924,001,2022-04-24_15h56.51.001,SPAMnetsValid,2021.1.4,Win32,60.48874909,,,,,,,,,,,,,,,,,,,,,,,,,,,,,,,,,,,,,,,,,,,,,,,,,,,,,,,,,,,,,,,,,,,,,,,,,,,,,,2,3.8464,0,7,7,7,1,I experience a wide range of emotions or feelings.,0,8,,
,,,,,,,,,,,,,,,88924,001,2022-04-24_15h56.51.001,SPAMnetsValid,2021.1.4,Win32,60.48874909,,,,,,,,,,,,,,,,,,,,,,,,,,,,,,,,,,,,,,,,,,,,,,,,,,,,,,,,,,,,,,,,,,,,,,,,,,,,,,2,4.0265,0,8,8,8,1,"Sometimes when I am reading poetry or looking at a work of art, I feel a chill or wave of excitement.",0,9,,
,,,,,,,,,,,,,,,88924,001,2022-04-24_15h56.51.001,SPAMnetsValid,2021.1.4,Win32,60.48874909,,,,,,,,,,,,,,,,,,,,,,,,,,,,,,,,,,,,,,,,,,,,,,,,,,,,,,,,,,,,,,,,,,,,,,,,,,,,,,3,7.5914,0,9,9,9,1,I have little interest in speculating on the nature of the universe or the human condition.,1,10,,
,,,,,,,,,,,,,,,88924,001,2022-04-24_15h56.51.001,SPAMnetsValid,2021.1.4,Win32,60.48874909,,,,,,,,,,,,,,,,,,,,,,,,,,,,,,,,,,,,,,,,,,,,,,,,,,,,,,,,,,,,,,,,,,,,,,,,,,,,,,3,2.9396,0,10,10,10,1,I have a lot of intellectual curiosity.,0,11,,
,,,,,,,,,,,,,,,88924,001,2022-04-24_15h56.51.001,SPAMnetsValid,2021.1.4,Win32,60.48874909,,,,,,,,,,,,,,,,,,,,,,,,,,,,,,,,,,,,,,,,,,,,,,,,,,,,,,,,,,,,,,,,,,,,,,,,,,,,,,3,4.9186,0,11,11,11,1,I often enjoy playing with theories or abstract ideas.,0,12,,
,,,,,,,,,,,,,,,88924,001,2022-04-24_15h56.51.001,SPAMnetsValid,2021.1.4,Win32,60.48874909,,,,,,,,,,,,,,,,,,,,,,,,,,,,,,,,,,,,,,,,,,,,,,,,,,,,,,,,,,,,,,,,,,,,,,,,,,,,,,,,,,,,,,,,return,111.5444
