key_resp_3.keys,key_resp_3.rt,slider_2.response,slider_2.rt,rjt_rating,rjt_RT,trials_24.thisRepN,trials_24.thisTrialN,trials_24.thisN,trials_24.thisIndex,trials_24.ran,rjt_order,word1,word2,attention,participant,session,date,expName,psychopyVersion,OS,frameRate,trials_4.thisRepN,trials_4.thisTrialN,trials_4.thisN,trials_4.thisIndex,trials_4.ran,trials_5.thisRepN,trials_5.thisTrialN,trials_5.thisN,trials_5.thisIndex,trials_5.ran,repOne,repTwo,slider.response,slider.rt,trials_22.thisRepN,trials_22.thisTrialN,trials_22.thisN,trials_22.thisIndex,trials_22.ran,trials_99.thisRepN,trials_99.thisTrialN,trials_99.thisN,trials_99.thisIndex,trials_99.ran,slider_extend_2.response,slider_extend_2.rt,trials_6.thisRepN,trials_6.thisTrialN,trials_6.thisN,trials_6.thisIndex,trials_6.ran,vCue2,R1,R2,R3,R4,correct,sliderVocab.response,sliderVocab.rt,trials_7.thisRepN,trials_7.thisTrialN,trials_7.thisN,trials_7.thisIndex,trials_7.ran,VocabCue,VR1,VR2,VR3,VR4,VR5,VocabCorrect,AUT_resp,AUT_label,trials.thisRepN,trials.thisTrialN,trials.thisN,trials.thisIndex,trials.ran,trials_2.thisRepN,trials_2.thisTrialN,trials_2.thisN,trials_2.thisIndex,trials_2.ran,aut_prompt,VF_response,VF_tag,trials_16.thisRepN,trials_16.thisTrialN,trials_16.thisN,trials_16.thisIndex,trials_16.ran,trials_17.thisRepN,trials_17.thisTrialN,trials_17.thisN,trials_17.thisIndex,trials_17.ran,VFcond,open_slider.response,open_slider.rt,trials_3.thisRepN,trials_3.thisTrialN,trials_3.thisN,trials_3.thisIndex,trials_3.ran,OpenQ,Rev,OPEN_ORDER,key_resp_2.keys,key_resp_2.rt
return,2.3417,2,15.6199,2,15.6199,0,0,0,40,1,165,onion,rose,,88965,001,2022-04-25_11h28.04.911,SPAMnetsValid,2021.1.4,Win32,119.9616123,,,,,,,,,,,,,,,,,,,,,,,,,,,,,,,,,,,,,,,,,,,,,,,,,,,,,,,,,,,,,,,,,,,,,,,,,,,,,,,,,,,,,,,,,
,,1,1.6325,1,1.6325,0,1,1,29,1,163,melon,refrigerator,,88965,001,2022-04-25_11h28.04.911,SPAMnetsValid,2021.1.4,Win32,119.9616123,,,,,,,,,,,,,,,,,,,,,,,,,,,,,,,,,,,,,,,,,,,,,,,,,,,,,,,,,,,,,,,,,,,,,,,,,,,,,,,,,,,,,,,,,
,,6,4.2573,6,4.2573,0,2,2,60,1,122,flower,garden,,88965,001,2022-04-25_11h28.04.911,SPAMnetsValid,2021.1.4,Win32,119.9616123,,,,,,,,,,,,,,,,,,,,,,,,,,,,,,,,,,,,,,,,,,,,,,,,,,,,,,,,,,,,,,,,,,,,,,,,,,,,,,,,,,,,,,,,,
,,1,2.6831,1,2.6831,0,3,3,93,1,134,carrot,flower,,88965,001,2022-04-25_11h28.04.911,SPAMnetsValid,2021.1.4,Win32,119.9616123,,,,,,,,,,,,,,,,,,,,,,,,,,,,,,,,,,,,,,,,,,,,,,,,,,,,,,,,,,,,,,,,,,,,,,,,,,,,,,,,,,,,,,,,,
,,1,1.1245,1,1.1245,0,4,4,31,1,156,melon,rose,,88965,001,2022-04-25_11h28.04.911,SPAMnetsValid,2021.1.4,Win32,119.9616123,,,,,,,,,,,,,,,,,,,,,,,,,,,,,,,,,,,,,,,,,,,,,,,,,,,,,,,,,,,,,,,,,,,,,,,,,,,,,,,,,,,,,,,,,
,,1,0.9996,1,0.9996,0,5,5,38,1,155,carrot,cookie,,88965,001,2022-04-25_11h28.04.911,SPAMnetsValid,2021.1.4,Win32,119.9616123,,,,,,,,,,,,,,,,,,,,,,,,,,,,,,,,,,,,,,,,,,,,,,,,,,,,,,,,,,,,,,,,,,,,,,,,,,,,,,,,,,,,,,,,,
,,1,0.9831,1,0.9831,0,6,6,50,1,126,kitchen,tree,,88965,001,2022-04-25_11h28.04.911,SPAMnetsValid,2021.1.4,Win32,119.9616123,,,,,,,,,,,,,,,,,,,,,,,,,,,,,,,,,,,,,,,,,,,,,,,,,,,,,,,,,,,,,,,,,,,,,,,,,,,,,,,,,,,,,,,,,
,,1,1.1163,1,1.1163,0,7,7,79,1,103,pretzel,tomato,,88965,001,2022-04-25_11h28.04.911,SPAMnetsValid,2021.1.4,Win32,119.9616123,,,,,,,,,,,,,,,,,,,,,,,,,,,,,,,,,,,,,,,,,,,,,,,,,,,,,,,,,,,,,,,,,,,,,,,,,,,,,,,,,,,,,,,,,
,,1,0.8245,1,0.8245,0,8,8,36,1,161,kitchen,pretzel,,88965,001,2022-04-25_11h28.04.911,SPAMnetsValid,2021.1.4,Win32,119.9616123,,,,,,,,,,,,,,,,,,,,,,,,,,,,,,,,,,,,,,,,,,,,,,,,,,,,,,,,,,,,,,,,,,,,,,,,,,,,,,,,,,,,,,,,,
,,1,1.1163,1,1.1163,0,9,9,74,1,128,melon,microwave,,88965,001,2022-04-25_11h28.04.911,SPAMnetsValid,2021.1.4,Win32,119.9616123,,,,,,,,,,,,,,,,,,,,,,,,,,,,,,,,,,,,,,,,,,,,,,,,,,,,,,,,,,,,,,,,,,,,,,,,,,,,,,,,,,,,,,,,,
,,1,1.7495,1,1.7495,0,10,10,94,1,133,cake,flower,,88965,001,2022-04-25_11h28.04.911,SPAMnetsValid,2021.1.4,Win32,119.9616123,,,,,,,,,,,,,,,,,,,,,,,,,,,,,,,,,,,,,,,,,,,,,,,,,,,,,,,,,,,,,,,,,,,,,,,,,,,,,,,,,,,,,,,,,
,,1,0.9996,1,0.9996,0,11,11,8,1,97,chocolate,kitchen,,88965,001,2022-04-25_11h28.04.911,SPAMnetsValid,2021.1.4,Win32,119.9616123,,,,,,,,,,,,,,,,,,,,,,,,,,,,,,,,,,,,,,,,,,,,,,,,,,,,,,,,,,,,,,,,,,,,,,,,,,,,,,,,,,,,,,,,,
,,1,6.533,1,6.533,0,12,12,22,1,142,garden,tree,,88965,001,2022-04-25_11h28.04.911,SPAMnetsValid,2021.1.4,Win32,119.9616123,,,,,,,,,,,,,,,,,,,,,,,,,,,,,,,,,,,,,,,,,,,,,,,,,,,,,,,,,,,,,,,,,,,,,,,,,,,,,,,,,,,,,,,,,
,,1,2.533,1,2.533,0,13,13,4,1,109,broom,strawberry,,88965,001,2022-04-25_11h28.04.911,SPAMnetsValid,2021.1.4,Win32,119.9616123,,,,,,,,,,,,,,,,,,,,,,,,,,,,,,,,,,,,,,,,,,,,,,,,,,,,,,,,,,,,,,,,,,,,,,,,,,,,,,,,,,,,,,,,,
,,1,0.8081,1,0.8081,0,14,14,59,1,164,cookie,garden,,88965,001,2022-04-25_11h28.04.911,SPAMnetsValid,2021.1.4,Win32,119.9616123,,,,,,,,,,,,,,,,,,,,,,,,,,,,,,,,,,,,,,,,,,,,,,,,,,,,,,,,,,,,,,,,,,,,,,,,,,,,,,,,,,,,,,,,,
,,1,0.808,1,0.808,0,15,15,77,1,172,kitchen,melon,,88965,001,2022-04-25_11h28.04.911,SPAMnetsValid,2021.1.4,Win32,119.9616123,,,,,,,,,,,,,,,,,,,,,,,,,,,,,,,,,,,,,,,,,,,,,,,,,,,,,,,,,,,,,,,,,,,,,,,,,,,,,,,,,,,,,,,,,
,,1,0.9582,1,0.9582,0,16,16,56,1,113,refrigerator,strawberry,,88965,001,2022-04-25_11h28.04.911,SPAMnetsValid,2021.1.4,Win32,119.9616123,,,,,,,,,,,,,,,,,,,,,,,,,,,,,,,,,,,,,,,,,,,,,,,,,,,,,,,,,,,,,,,,,,,,,,,,,,,,,,,,,,,,,,,,,
,,1,2.3078,1,2.3078,0,17,17,35,1,147,cake,refrigerator,,88965,001,2022-04-25_11h28.04.911,SPAMnetsValid,2021.1.4,Win32,119.9616123,,,,,,,,,,,,,,,,,,,,,,,,,,,,,,,,,,,,,,,,,,,,,,,,,,,,,,,,,,,,,,,,,,,,,,,,,,,,,,,,,,,,,,,,,
,,1,3.1835,1,3.1835,0,18,18,65,1,160,cookie,kitchen,,88965,001,2022-04-25_11h28.04.911,SPAMnetsValid,2021.1.4,Win32,119.9616123,,,,,,,,,,,,,,,,,,,,,,,,,,,,,,,,,,,,,,,,,,,,,,,,,,,,,,,,,,,,,,,,,,,,,,,,,,,,,,,,,,,,,,,,,
,,1,0.9077,1,0.9077,0,19,19,2,1,174,cake,pretzel,,88965,001,2022-04-25_11h28.04.911,SPAMnetsValid,2021.1.4,Win32,119.9616123,,,,,,,,,,,,,,,,,,,,,,,,,,,,,,,,,,,,,,,,,,,,,,,,,,,,,,,,,,,,,,,,,,,,,,,,,,,,,,,,,,,,,,,,,
,,9,1.3991,9,1.3991,0,20,20,25,1,194,cactus,cactus,CHECK,88965,001,2022-04-25_11h28.04.911,SPAMnetsValid,2021.1.4,Win32,119.9616123,,,,,,,,,,,,,,,,,,,,,,,,,,,,,,,,,,,,,,,,,,,,,,,,,,,,,,,,,,,,,,,,,,,,,,,,,,,,,,,,,,,,,,,,,
,,1,1.0248,1,1.0248,0,21,21,80,1,146,pretzel,tree,,88965,001,2022-04-25_11h28.04.911,SPAMnetsValid,2021.1.4,Win32,119.9616123,,,,,,,,,,,,,,,,,,,,,,,,,,,,,,,,,,,,,,,,,,,,,,,,,,,,,,,,,,,,,,,,,,,,,,,,,,,,,,,,,,,,,,,,,
,,1,0.8248,1,0.8248,0,22,22,87,1,114,cookie,strawberry,,88965,001,2022-04-25_11h28.04.911,SPAMnetsValid,2021.1.4,Win32,119.9616123,,,,,,,,,,,,,,,,,,,,,,,,,,,,,,,,,,,,,,,,,,,,,,,,,,,,,,,,,,,,,,,,,,,,,,,,,,,,,,,,,,,,,,,,,
,,1,0.6913,1,0.6913,0,23,23,15,1,145,cactus,yogurt,,88965,001,2022-04-25_11h28.04.911,SPAMnetsValid,2021.1.4,Win32,119.9616123,,,,,,,,,,,,,,,,,,,,,,,,,,,,,,,,,,,,,,,,,,,,,,,,,,,,,,,,,,,,,,,,,,,,,,,,,,,,,,,,,,,,,,,,,
,,1,0.9164,1,0.9164,0,24,24,0,1,106,cake,strawberry,,88965,001,2022-04-25_11h28.04.911,SPAMnetsValid,2021.1.4,Win32,119.9616123,,,,,,,,,,,,,,,,,,,,,,,,,,,,,,,,,,,,,,,,,,,,,,,,,,,,,,,,,,,,,,,,,,,,,,,,,,,,,,,,,,,,,,,,,
,,1,1.7746,1,1.7746,0,25,25,49,1,152,cactus,strawberry,,88965,001,2022-04-25_11h28.04.911,SPAMnetsValid,2021.1.4,Win32,119.9616123,,,,,,,,,,,,,,,,,,,,,,,,,,,,,,,,,,,,,,,,,,,,,,,,,,,,,,,,,,,,,,,,,,,,,,,,,,,,,,,,,,,,,,,,,
,,1,3.7253,1,3.7253,0,26,26,5,1,108,carrot,chocolate,,88965,001,2022-04-25_11h28.04.911,SPAMnetsValid,2021.1.4,Win32,119.9616123,,,,,,,,,,,,,,,,,,,,,,,,,,,,,,,,,,,,,,,,,,,,,,,,,,,,,,,,,,,,,,,,,,,,,,,,,,,,,,,,,,,,,,,,,
,,1,1.4342,1,1.4342,0,27,27,76,1,102,chocolate,refrigerator,,88965,001,2022-04-25_11h28.04.911,SPAMnetsValid,2021.1.4,Win32,119.9616123,,,,,,,,,,,,,,,,,,,,,,,,,,,,,,,,,,,,,,,,,,,,,,,,,,,,,,,,,,,,,,,,,,,,,,,,,,,,,,,,,,,,,,,,,
,,7,2.0746,7,2.0746,0,28,28,14,1,120,microwave,oven,,88965,001,2022-04-25_11h28.04.911,SPAMnetsValid,2021.1.4,Win32,119.9616123,,,,,,,,,,,,,,,,,,,,,,,,,,,,,,,,,,,,,,,,,,,,,,,,,,,,,,,,,,,,,,,,,,,,,,,,,,,,,,,,,,,,,,,,,
,,1,1.0662,1,1.0662,0,29,29,16,1,111,carrot,microwave,,88965,001,2022-04-25_11h28.04.911,SPAMnetsValid,2021.1.4,Win32,119.9616123,,,,,,,,,,,,,,,,,,,,,,,,,,,,,,,,,,,,,,,,,,,,,,,,,,,,,,,,,,,,,,,,,,,,,,,,,,,,,,,,,,,,,,,,,
,,1,0.783,1,0.783,0,30,30,20,1,149,broom,tomato,,88965,001,2022-04-25_11h28.04.911,SPAMnetsValid,2021.1.4,Win32,119.9616123,,,,,,,,,,,,,,,,,,,,,,,,,,,,,,,,,,,,,,,,,,,,,,,,,,,,,,,,,,,,,,,,,,,,,,,,,,,,,,,,,,,,,,,,,
,,1,0.7913,1,0.7913,0,31,31,88,1,171,cake,tomato,,88965,001,2022-04-25_11h28.04.911,SPAMnetsValid,2021.1.4,Win32,119.9616123,,,,,,,,,,,,,,,,,,,,,,,,,,,,,,,,,,,,,,,,,,,,,,,,,,,,,,,,,,,,,,,,,,,,,,,,,,,,,,,,,,,,,,,,,
,,1,1.3744,1,1.3744,0,32,32,95,1,121,broom,microwave,,88965,001,2022-04-25_11h28.04.911,SPAMnetsValid,2021.1.4,Win32,119.9616123,,,,,,,,,,,,,,,,,,,,,,,,,,,,,,,,,,,,,,,,,,,,,,,,,,,,,,,,,,,,,,,,,,,,,,,,,,,,,,,,,,,,,,,,,
,,1,0.7331,1,0.7331,0,33,33,96,1,136,chocolate,microwave,,88965,001,2022-04-25_11h28.04.911,SPAMnetsValid,2021.1.4,Win32,119.9616123,,,,,,,,,,,,,,,,,,,,,,,,,,,,,,,,,,,,,,,,,,,,,,,,,,,,,,,,,,,,,,,,,,,,,,,,,,,,,,,,,,,,,,,,,
,,1,0.8083,1,0.8083,0,34,34,19,1,183,cake,rose,,88965,001,2022-04-25_11h28.04.911,SPAMnetsValid,2021.1.4,Win32,119.9616123,,,,,,,,,,,,,,,,,,,,,,,,,,,,,,,,,,,,,,,,,,,,,,,,,,,,,,,,,,,,,,,,,,,,,,,,,,,,,,,,,,,,,,,,,
,,1,0.8498,1,0.8498,0,35,35,44,1,116,cake,chocolate,,88965,001,2022-04-25_11h28.04.911,SPAMnetsValid,2021.1.4,Win32,119.9616123,,,,,,,,,,,,,,,,,,,,,,,,,,,,,,,,,,,,,,,,,,,,,,,,,,,,,,,,,,,,,,,,,,,,,,,,,,,,,,,,,,,,,,,,,
,,1,8.6164,1,8.6164,0,36,36,34,1,153,carrot,pretzel,,88965,001,2022-04-25_11h28.04.911,SPAMnetsValid,2021.1.4,Win32,119.9616123,,,,,,,,,,,,,,,,,,,,,,,,,,,,,,,,,,,,,,,,,,,,,,,,,,,,,,,,,,,,,,,,,,,,,,,,,,,,,,,,,,,,,,,,,
,,1,0.8164,1,0.8164,0,37,37,1,1,173,kitchen,tomato,,88965,001,2022-04-25_11h28.04.911,SPAMnetsValid,2021.1.4,Win32,119.9616123,,,,,,,,,,,,,,,,,,,,,,,,,,,,,,,,,,,,,,,,,,,,,,,,,,,,,,,,,,,,,,,,,,,,,,,,,,,,,,,,,,,,,,,,,
,,1,0.708,1,0.708,0,38,38,62,1,189,onion,tree,,88965,001,2022-04-25_11h28.04.911,SPAMnetsValid,2021.1.4,Win32,119.9616123,,,,,,,,,,,,,,,,,,,,,,,,,,,,,,,,,,,,,,,,,,,,,,,,,,,,,,,,,,,,,,,,,,,,,,,,,,,,,,,,,,,,,,,,,
,,1,1.0583,1,1.0583,0,39,39,6,1,151,microwave,onion,,88965,001,2022-04-25_11h28.04.911,SPAMnetsValid,2021.1.4,Win32,119.9616123,,,,,,,,,,,,,,,,,,,,,,,,,,,,,,,,,,,,,,,,,,,,,,,,,,,,,,,,,,,,,,,,,,,,,,,,,,,,,,,,,,,,,,,,,
,,1,2.6247,1,2.6247,0,40,40,70,1,141,melon,tomato,,88965,001,2022-04-25_11h28.04.911,SPAMnetsValid,2021.1.4,Win32,119.9616123,,,,,,,,,,,,,,,,,,,,,,,,,,,,,,,,,,,,,,,,,,,,,,,,,,,,,,,,,,,,,,,,,,,,,,,,,,,,,,,,,,,,,,,,,
,,1,2.233,1,2.233,0,41,41,67,1,96,oven,strawberry,,88965,001,2022-04-25_11h28.04.911,SPAMnetsValid,2021.1.4,Win32,119.9616123,,,,,,,,,,,,,,,,,,,,,,,,,,,,,,,,,,,,,,,,,,,,,,,,,,,,,,,,,,,,,,,,,,,,,,,,,,,,,,,,,,,,,,,,,
,,1,3.0251,1,3.0251,0,42,42,83,1,100,garden,tomato,,88965,001,2022-04-25_11h28.04.911,SPAMnetsValid,2021.1.4,Win32,119.9616123,,,,,,,,,,,,,,,,,,,,,,,,,,,,,,,,,,,,,,,,,,,,,,,,,,,,,,,,,,,,,,,,,,,,,,,,,,,,,,,,,,,,,,,,,
,,3,3.3915,3,3.3915,0,43,43,43,1,185,cactus,rose,,88965,001,2022-04-25_11h28.04.911,SPAMnetsValid,2021.1.4,Win32,119.9616123,,,,,,,,,,,,,,,,,,,,,,,,,,,,,,,,,,,,,,,,,,,,,,,,,,,,,,,,,,,,,,,,,,,,,,,,,,,,,,,,,,,,,,,,,
,,1,1.991,1,1.991,0,44,44,17,1,99,garden,melon,,88965,001,2022-04-25_11h28.04.911,SPAMnetsValid,2021.1.4,Win32,119.9616123,,,,,,,,,,,,,,,,,,,,,,,,,,,,,,,,,,,,,,,,,,,,,,,,,,,,,,,,,,,,,,,,,,,,,,,,,,,,,,,,,,,,,,,,,
,,1,1.8246,1,1.8246,0,45,45,54,1,101,cactus,kitchen,,88965,001,2022-04-25_11h28.04.911,SPAMnetsValid,2021.1.4,Win32,119.9616123,,,,,,,,,,,,,,,,,,,,,,,,,,,,,,,,,,,,,,,,,,,,,,,,,,,,,,,,,,,,,,,,,,,,,,,,,,,,,,,,,,,,,,,,,
,,1,1.0414,1,1.0414,0,46,46,24,1,169,onion,yogurt,,88965,001,2022-04-25_11h28.04.911,SPAMnetsValid,2021.1.4,Win32,119.9616123,,,,,,,,,,,,,,,,,,,,,,,,,,,,,,,,,,,,,,,,,,,,,,,,,,,,,,,,,,,,,,,,,,,,,,,,,,,,,,,,,,,,,,,,,
,,1,0.9996,1,0.9996,0,47,47,71,1,187,cactus,microwave,,88965,001,2022-04-25_11h28.04.911,SPAMnetsValid,2021.1.4,Win32,119.9616123,,,,,,,,,,,,,,,,,,,,,,,,,,,,,,,,,,,,,,,,,,,,,,,,,,,,,,,,,,,,,,,,,,,,,,,,,,,,,,,,,,,,,,,,,
,,1,0.9914,1,0.9914,0,48,48,64,1,157,refrigerator,rose,,88965,001,2022-04-25_11h28.04.911,SPAMnetsValid,2021.1.4,Win32,119.9616123,,,,,,,,,,,,,,,,,,,,,,,,,,,,,,,,,,,,,,,,,,,,,,,,,,,,,,,,,,,,,,,,,,,,,,,,,,,,,,,,,,,,,,,,,
,,1,0.7831,1,0.7831,0,49,49,68,1,180,tree,yogurt,,88965,001,2022-04-25_11h28.04.911,SPAMnetsValid,2021.1.4,Win32,119.9616123,,,,,,,,,,,,,,,,,,,,,,,,,,,,,,,,,,,,,,,,,,,,,,,,,,,,,,,,,,,,,,,,,,,,,,,,,,,,,,,,,,,,,,,,,
,,1,0.8831,1,0.8831,0,50,50,81,1,104,garden,microwave,,88965,001,2022-04-25_11h28.04.911,SPAMnetsValid,2021.1.4,Win32,119.9616123,,,,,,,,,,,,,,,,,,,,,,,,,,,,,,,,,,,,,,,,,,,,,,,,,,,,,,,,,,,,,,,,,,,,,,,,,,,,,,,,,,,,,,,,,
,,1,0.8499,1,0.8499,0,51,51,63,1,137,microwave,tree,,88965,001,2022-04-25_11h28.04.911,SPAMnetsValid,2021.1.4,Win32,119.9616123,,,,,,,,,,,,,,,,,,,,,,,,,,,,,,,,,,,,,,,,,,,,,,,,,,,,,,,,,,,,,,,,,,,,,,,,,,,,,,,,,,,,,,,,,
,,3,4.1662,3,4.1662,0,52,52,42,1,184,oven,pretzel,,88965,001,2022-04-25_11h28.04.911,SPAMnetsValid,2021.1.4,Win32,119.9616123,,,,,,,,,,,,,,,,,,,,,,,,,,,,,,,,,,,,,,,,,,,,,,,,,,,,,,,,,,,,,,,,,,,,,,,,,,,,,,,,,,,,,,,,,
,,1,1.1832,1,1.1832,0,53,53,82,1,98,pretzel,strawberry,,88965,001,2022-04-25_11h28.04.911,SPAMnetsValid,2021.1.4,Win32,119.9616123,,,,,,,,,,,,,,,,,,,,,,,,,,,,,,,,,,,,,,,,,,,,,,,,,,,,,,,,,,,,,,,,,,,,,,,,,,,,,,,,,,,,,,,,,
,,1,2.3664,1,2.3664,0,54,54,72,1,181,carrot,kitchen,,88965,001,2022-04-25_11h28.04.911,SPAMnetsValid,2021.1.4,Win32,119.9616123,,,,,,,,,,,,,,,,,,,,,,,,,,,,,,,,,,,,,,,,,,,,,,,,,,,,,,,,,,,,,,,,,,,,,,,,,,,,,,,,,,,,,,,,,
,,9,1.2995,9,1.2995,0,55,55,86,1,193,melon,melon,CHECK,88965,001,2022-04-25_11h28.04.911,SPAMnetsValid,2021.1.4,Win32,119.9616123,,,,,,,,,,,,,,,,,,,,,,,,,,,,,,,,,,,,,,,,,,,,,,,,,,,,,,,,,,,,,,,,,,,,,,,,,,,,,,,,,,,,,,,,,
,,1,0.9328,1,0.9328,0,56,56,84,1,130,microwave,yogurt,,88965,001,2022-04-25_11h28.04.911,SPAMnetsValid,2021.1.4,Win32,119.9616123,,,,,,,,,,,,,,,,,,,,,,,,,,,,,,,,,,,,,,,,,,,,,,,,,,,,,,,,,,,,,,,,,,,,,,,,,,,,,,,,,,,,,,,,,
,,1,3.383,1,3.383,0,57,57,32,1,182,flower,refrigerator,,88965,001,2022-04-25_11h28.04.911,SPAMnetsValid,2021.1.4,Win32,119.9616123,,,,,,,,,,,,,,,,,,,,,,,,,,,,,,,,,,,,,,,,,,,,,,,,,,,,,,,,,,,,,,,,,,,,,,,,,,,,,,,,,,,,,,,,,
,,1,2.0157,1,2.0157,0,58,58,11,1,117,melon,strawberry,,88965,001,2022-04-25_11h28.04.911,SPAMnetsValid,2021.1.4,Win32,119.9616123,,,,,,,,,,,,,,,,,,,,,,,,,,,,,,,,,,,,,,,,,,,,,,,,,,,,,,,,,,,,,,,,,,,,,,,,,,,,,,,,,,,,,,,,,
,,4,3.608,4,3.608,0,59,59,39,1,112,cake,carrot,,88965,001,2022-04-25_11h28.04.911,SPAMnetsValid,2021.1.4,Win32,119.9616123,,,,,,,,,,,,,,,,,,,,,,,,,,,,,,,,,,,,,,,,,,,,,,,,,,,,,,,,,,,,,,,,,,,,,,,,,,,,,,,,,,,,,,,,,
,,4,3.1249,4,3.1249,0,60,60,52,1,110,chocolate,cookie,,88965,001,2022-04-25_11h28.04.911,SPAMnetsValid,2021.1.4,Win32,119.9616123,,,,,,,,,,,,,,,,,,,,,,,,,,,,,,,,,,,,,,,,,,,,,,,,,,,,,,,,,,,,,,,,,,,,,,,,,,,,,,,,,,,,,,,,,
,,4,5.1664,4,5.1664,0,61,61,51,1,168,cactus,flower,,88965,001,2022-04-25_11h28.04.911,SPAMnetsValid,2021.1.4,Win32,119.9616123,,,,,,,,,,,,,,,,,,,,,,,,,,,,,,,,,,,,,,,,,,,,,,,,,,,,,,,,,,,,,,,,,,,,,,,,,,,,,,,,,,,,,,,,,
,,1,0.9246,1,0.9246,0,62,62,57,1,127,cactus,chocolate,,88965,001,2022-04-25_11h28.04.911,SPAMnetsValid,2021.1.4,Win32,119.9616123,,,,,,,,,,,,,,,,,,,,,,,,,,,,,,,,,,,,,,,,,,,,,,,,,,,,,,,,,,,,,,,,,,,,,,,,,,,,,,,,,,,,,,,,,
,,1,0.824,1,0.824,0,63,63,90,1,190,microwave,strawberry,,88965,001,2022-04-25_11h28.04.911,SPAMnetsValid,2021.1.4,Win32,119.9616123,,,,,,,,,,,,,,,,,,,,,,,,,,,,,,,,,,,,,,,,,,,,,,,,,,,,,,,,,,,,,,,,,,,,,,,,,,,,,,,,,,,,,,,,,
,,1,0.6914,1,0.6914,0,64,64,28,1,154,strawberry,yogurt,,88965,001,2022-04-25_11h28.04.911,SPAMnetsValid,2021.1.4,Win32,119.9616123,,,,,,,,,,,,,,,,,,,,,,,,,,,,,,,,,,,,,,,,,,,,,,,,,,,,,,,,,,,,,,,,,,,,,,,,,,,,,,,,,,,,,,,,,
,,1,1.0078,1,1.0078,0,65,65,45,1,179,broom,oven,,88965,001,2022-04-25_11h28.04.911,SPAMnetsValid,2021.1.4,Win32,119.9616123,,,,,,,,,,,,,,,,,,,,,,,,,,,,,,,,,,,,,,,,,,,,,,,,,,,,,,,,,,,,,,,,,,,,,,,,,,,,,,,,,,,,,,,,,
,,1,1.108,1,1.108,0,66,66,89,1,140,cookie,refrigerator,,88965,001,2022-04-25_11h28.04.911,SPAMnetsValid,2021.1.4,Win32,119.9616123,,,,,,,,,,,,,,,,,,,,,,,,,,,,,,,,,,,,,,,,,,,,,,,,,,,,,,,,,,,,,,,,,,,,,,,,,,,,,,,,,,,,,,,,,
,,1,2.0246,1,2.0246,0,67,67,21,1,159,cookie,flower,,88965,001,2022-04-25_11h28.04.911,SPAMnetsValid,2021.1.4,Win32,119.9616123,,,,,,,,,,,,,,,,,,,,,,,,,,,,,,,,,,,,,,,,,,,,,,,,,,,,,,,,,,,,,,,,,,,,,,,,,,,,,,,,,,,,,,,,,
,,1,1.283,1,1.283,0,68,68,55,1,143,pretzel,rose,,88965,001,2022-04-25_11h28.04.911,SPAMnetsValid,2021.1.4,Win32,119.9616123,,,,,,,,,,,,,,,,,,,,,,,,,,,,,,,,,,,,,,,,,,,,,,,,,,,,,,,,,,,,,,,,,,,,,,,,,,,,,,,,,,,,,,,,,
,,4,2.4079,4,2.4079,0,69,69,66,1,150,microwave,refrigerator,,88965,001,2022-04-25_11h28.04.911,SPAMnetsValid,2021.1.4,Win32,119.9616123,,,,,,,,,,,,,,,,,,,,,,,,,,,,,,,,,,,,,,,,,,,,,,,,,,,,,,,,,,,,,,,,,,,,,,,,,,,,,,,,,,,,,,,,,
,,7,4.6997,7,4.6997,0,70,70,61,1,138,flower,rose,,88965,001,2022-04-25_11h28.04.911,SPAMnetsValid,2021.1.4,Win32,119.9616123,,,,,,,,,,,,,,,,,,,,,,,,,,,,,,,,,,,,,,,,,,,,,,,,,,,,,,,,,,,,,,,,,,,,,,,,,,,,,,,,,,,,,,,,,
,,1,1.083,1,1.083,0,71,71,73,1,135,carrot,oven,,88965,001,2022-04-25_11h28.04.911,SPAMnetsValid,2021.1.4,Win32,119.9616123,,,,,,,,,,,,,,,,,,,,,,,,,,,,,,,,,,,,,,,,,,,,,,,,,,,,,,,,,,,,,,,,,,,,,,,,,,,,,,,,,,,,,,,,,
,,1,2.3497,1,2.3497,0,72,72,78,1,132,broom,tree,,88965,001,2022-04-25_11h28.04.911,SPAMnetsValid,2021.1.4,Win32,119.9616123,,,,,,,,,,,,,,,,,,,,,,,,,,,,,,,,,,,,,,,,,,,,,,,,,,,,,,,,,,,,,,,,,,,,,,,,,,,,,,,,,,,,,,,,,
,,1,1.033,1,1.033,0,73,73,13,1,105,cactus,oven,,88965,001,2022-04-25_11h28.04.911,SPAMnetsValid,2021.1.4,Win32,119.9616123,,,,,,,,,,,,,,,,,,,,,,,,,,,,,,,,,,,,,,,,,,,,,,,,,,,,,,,,,,,,,,,,,,,,,,,,,,,,,,,,,,,,,,,,,
,,1,0.7412,1,0.7412,0,74,74,58,1,144,cake,garden,,88965,001,2022-04-25_11h28.04.911,SPAMnetsValid,2021.1.4,Win32,119.9616123,,,,,,,,,,,,,,,,,,,,,,,,,,,,,,,,,,,,,,,,,,,,,,,,,,,,,,,,,,,,,,,,,,,,,,,,,,,,,,,,,,,,,,,,,
,,1,1.2079,1,1.2079,0,75,75,26,1,107,rose,tomato,,88965,001,2022-04-25_11h28.04.911,SPAMnetsValid,2021.1.4,Win32,119.9616123,,,,,,,,,,,,,,,,,,,,,,,,,,,,,,,,,,,,,,,,,,,,,,,,,,,,,,,,,,,,,,,,,,,,,,,,,,,,,,,,,,,,,,,,,
,,1,0.9164,1,0.9164,0,76,76,46,1,123,cookie,tree,,88965,001,2022-04-25_11h28.04.911,SPAMnetsValid,2021.1.4,Win32,119.9616123,,,,,,,,,,,,,,,,,,,,,,,,,,,,,,,,,,,,,,,,,,,,,,,,,,,,,,,,,,,,,,,,,,,,,,,,,,,,,,,,,,,,,,,,,
,,1,1.708,1,1.708,0,77,77,12,1,162,microwave,tomato,,88965,001,2022-04-25_11h28.04.911,SPAMnetsValid,2021.1.4,Win32,119.9616123,,,,,,,,,,,,,,,,,,,,,,,,,,,,,,,,,,,,,,,,,,,,,,,,,,,,,,,,,,,,,,,,,,,,,,,,,,,,,,,,,,,,,,,,,
,,1,0.5999,1,0.5999,0,78,78,91,1,166,cake,yogurt,,88965,001,2022-04-25_11h28.04.911,SPAMnetsValid,2021.1.4,Win32,119.9616123,,,,,,,,,,,,,,,,,,,,,,,,,,,,,,,,,,,,,,,,,,,,,,,,,,,,,,,,,,,,,,,,,,,,,,,,,,,,,,,,,,,,,,,,,
,,1,0.908,1,0.908,0,79,79,23,1,148,flower,melon,,88965,001,2022-04-25_11h28.04.911,SPAMnetsValid,2021.1.4,Win32,119.9616123,,,,,,,,,,,,,,,,,,,,,,,,,,,,,,,,,,,,,,,,,,,,,,,,,,,,,,,,,,,,,,,,,,,,,,,,,,,,,,,,,,,,,,,,,
,,1,0.9999,1,0.9999,0,80,80,18,1,119,strawberry,tree,,88965,001,2022-04-25_11h28.04.911,SPAMnetsValid,2021.1.4,Win32,119.9616123,,,,,,,,,,,,,,,,,,,,,,,,,,,,,,,,,,,,,,,,,,,,,,,,,,,,,,,,,,,,,,,,,,,,,,,,,,,,,,,,,,,,,,,,,
,,1,1.4163,1,1.4163,0,81,81,48,1,186,kitchen,yogurt,,88965,001,2022-04-25_11h28.04.911,SPAMnetsValid,2021.1.4,Win32,119.9616123,,,,,,,,,,,,,,,,,,,,,,,,,,,,,,,,,,,,,,,,,,,,,,,,,,,,,,,,,,,,,,,,,,,,,,,,,,,,,,,,,,,,,,,,,
,,1,0.8248,1,0.8248,0,82,82,3,1,129,cactus,refrigerator,,88965,001,2022-04-25_11h28.04.911,SPAMnetsValid,2021.1.4,Win32,119.9616123,,,,,,,,,,,,,,,,,,,,,,,,,,,,,,,,,,,,,,,,,,,,,,,,,,,,,,,,,,,,,,,,,,,,,,,,,,,,,,,,,,,,,,,,,
,,1,1.083,1,1.083,0,83,83,85,1,115,refrigerator,tomato,,88965,001,2022-04-25_11h28.04.911,SPAMnetsValid,2021.1.4,Win32,119.9616123,,,,,,,,,,,,,,,,,,,,,,,,,,,,,,,,,,,,,,,,,,,,,,,,,,,,,,,,,,,,,,,,,,,,,,,,,,,,,,,,,,,,,,,,,
,,1,0.8832,1,0.8832,0,84,84,33,1,131,cactus,garden,,88965,001,2022-04-25_11h28.04.911,SPAMnetsValid,2021.1.4,Win32,119.9616123,,,,,,,,,,,,,,,,,,,,,,,,,,,,,,,,,,,,,,,,,,,,,,,,,,,,,,,,,,,,,,,,,,,,,,,,,,,,,,,,,,,,,,,,,
,,4,1.6664,4,1.6664,0,85,85,53,1,177,chocolate,strawberry,,88965,001,2022-04-25_11h28.04.911,SPAMnetsValid,2021.1.4,Win32,119.9616123,,,,,,,,,,,,,,,,,,,,,,,,,,,,,,,,,,,,,,,,,,,,,,,,,,,,,,,,,,,,,,,,,,,,,,,,,,,,,,,,,,,,,,,,,
,,1,1.3662,1,1.3662,0,86,86,10,1,118,chocolate,oven,,88965,001,2022-04-25_11h28.04.911,SPAMnetsValid,2021.1.4,Win32,119.9616123,,,,,,,,,,,,,,,,,,,,,,,,,,,,,,,,,,,,,,,,,,,,,,,,,,,,,,,,,,,,,,,,,,,,,,,,,,,,,,,,,,,,,,,,,
,,1,2.4081,1,2.4081,0,87,87,92,1,170,cookie,microwave,,88965,001,2022-04-25_11h28.04.911,SPAMnetsValid,2021.1.4,Win32,119.9616123,,,,,,,,,,,,,,,,,,,,,,,,,,,,,,,,,,,,,,,,,,,,,,,,,,,,,,,,,,,,,,,,,,,,,,,,,,,,,,,,,,,,,,,,,
,,1,3.6418,1,3.6418,0,88,88,7,1,188,flower,tree,,88965,001,2022-04-25_11h28.04.911,SPAMnetsValid,2021.1.4,Win32,119.9616123,,,,,,,,,,,,,,,,,,,,,,,,,,,,,,,,,,,,,,,,,,,,,,,,,,,,,,,,,,,,,,,,,,,,,,,,,,,,,,,,,,,,,,,,,
,,1,1.2412,1,1.2412,0,89,89,41,1,175,melon,onion,,88965,001,2022-04-25_11h28.04.911,SPAMnetsValid,2021.1.4,Win32,119.9616123,,,,,,,,,,,,,,,,,,,,,,,,,,,,,,,,,,,,,,,,,,,,,,,,,,,,,,,,,,,,,,,,,,,,,,,,,,,,,,,,,,,,,,,,,
,,1,0.8247,1,0.8247,0,90,90,27,1,158,cookie,oven,,88965,001,2022-04-25_11h28.04.911,SPAMnetsValid,2021.1.4,Win32,119.9616123,,,,,,,,,,,,,,,,,,,,,,,,,,,,,,,,,,,,,,,,,,,,,,,,,,,,,,,,,,,,,,,,,,,,,,,,,,,,,,,,,,,,,,,,,
,,1,2.0499,1,2.0499,0,91,91,37,1,139,carrot,strawberry,,88965,001,2022-04-25_11h28.04.911,SPAMnetsValid,2021.1.4,Win32,119.9616123,,,,,,,,,,,,,,,,,,,,,,,,,,,,,,,,,,,,,,,,,,,,,,,,,,,,,,,,,,,,,,,,,,,,,,,,,,,,,,,,,,,,,,,,,
,,1,0.8914,1,0.8914,0,92,92,47,1,167,carrot,garden,,88965,001,2022-04-25_11h28.04.911,SPAMnetsValid,2021.1.4,Win32,119.9616123,,,,,,,,,,,,,,,,,,,,,,,,,,,,,,,,,,,,,,,,,,,,,,,,,,,,,,,,,,,,,,,,,,,,,,,,,,,,,,,,,,,,,,,,,
,,1,0.9246,1,0.9246,0,93,93,9,1,176,cactus,tomato,,88965,001,2022-04-25_11h28.04.911,SPAMnetsValid,2021.1.4,Win32,119.9616123,,,,,,,,,,,,,,,,,,,,,,,,,,,,,,,,,,,,,,,,,,,,,,,,,,,,,,,,,,,,,,,,,,,,,,,,,,,,,,,,,,,,,,,,,
,,4,2.4331,4,2.4331,0,94,94,69,1,124,oven,refrigerator,,88965,001,2022-04-25_11h28.04.911,SPAMnetsValid,2021.1.4,Win32,119.9616123,,,,,,,,,,,,,,,,,,,,,,,,,,,,,,,,,,,,,,,,,,,,,,,,,,,,,,,,,,,,,,,,,,,,,,,,,,,,,,,,,,,,,,,,,
,,1,1.3914,1,1.3914,0,95,95,30,1,125,carrot,tree,,88965,001,2022-04-25_11h28.04.911,SPAMnetsValid,2021.1.4,Win32,119.9616123,,,,,,,,,,,,,,,,,,,,,,,,,,,,,,,,,,,,,,,,,,,,,,,,,,,,,,,,,,,,,,,,,,,,,,,,,,,,,,,,,,,,,,,,,
,,1,1.958,1,1.958,0,96,96,75,1,178,cactus,carrot,,88965,001,2022-04-25_11h28.04.911,SPAMnetsValid,2021.1.4,Win32,119.9616123,,,,,,,,,,,,,,,,,,,,,,,,,,,,,,,,,,,,,,,,,,,,,,,,,,,,,,,,,,,,,,,,,,,,,,,,,,,,,,,,,,,,,,,,,
,,,,,,,,,,,,,,,88965,001,2022-04-25_11h28.04.911,SPAMnetsValid,2021.1.4,Win32,119.9616123,0,0,0,0,1,,,,,,,,,,,,,,,,,,,,,,,,,,,,,,,,,,,,,,,,,,,,,,,,,,,,,,,,,,,,,,,,,,,,,,,,,,,,,,,,,,,,
,,,,,,,,,,,,,,,88965,001,2022-04-25_11h28.04.911,SPAMnetsValid,2021.1.4,Win32,119.9616123,,,,,,0,0,0,1,1,0,1,,,,,,,,,,,,,,,,,,,,,,,,,,,,,,,,,,,,,,,,,,,,,,,,,,,,,,,,,,,,,,,,,,,,,,,,,,,,,
,,,,4,1.9063,,,,,,63,cake,cookie,,88965,001,2022-04-25_11h28.04.911,SPAMnetsValid,2021.1.4,Win32,119.9616123,,,,,,,,,,,,,4,1.9063,0,0,0,93,1,,,,,,,,,,,,,,,,,,,,,,,,,,,,,,,,,,,,,,,,,,,,,,,,,,,,,,,,,,,,,,,,,,,,,,
,,,,1,0.9755,,,,,,64,chocolate,garden,,88965,001,2022-04-25_11h28.04.911,SPAMnetsValid,2021.1.4,Win32,119.9616123,,,,,,,,,,,,,1,0.9755,0,1,1,14,1,,,,,,,,,,,,,,,,,,,,,,,,,,,,,,,,,,,,,,,,,,,,,,,,,,,,,,,,,,,,,,,,,,,,,,
,,,,4,42.4934,,,,,,9,kitchen,refrigerator,,88965,001,2022-04-25_11h28.04.911,SPAMnetsValid,2021.1.4,Win32,119.9616123,,,,,,,,,,,,,4,42.4934,0,2,2,64,1,,,,,,,,,,,,,,,,,,,,,,,,,,,,,,,,,,,,,,,,,,,,,,,,,,,,,,,,,,,,,,,,,,,,,,
,,,,1,1.2119,,,,,,95,broom,refrigerator,,88965,001,2022-04-25_11h28.04.911,SPAMnetsValid,2021.1.4,Win32,119.9616123,,,,,,,,,,,,,1,1.2119,0,3,3,90,1,,,,,,,,,,,,,,,,,,,,,,,,,,,,,,,,,,,,,,,,,,,,,,,,,,,,,,,,,,,,,,,,,,,,,,
,,,,1,1.0214,,,,,,47,onion,tomato,,88965,001,2022-04-25_11h28.04.911,SPAMnetsValid,2021.1.4,Win32,119.9616123,,,,,,,,,,,,,1,1.0214,0,4,4,51,1,,,,,,,,,,,,,,,,,,,,,,,,,,,,,,,,,,,,,,,,,,,,,,,,,,,,,,,,,,,,,,,,,,,,,,
,,,,1,0.6939,,,,,,66,melon,yogurt,,88965,001,2022-04-25_11h28.04.911,SPAMnetsValid,2021.1.4,Win32,119.9616123,,,,,,,,,,,,,1,0.6939,0,5,5,48,1,,,,,,,,,,,,,,,,,,,,,,,,,,,,,,,,,,,,,,,,,,,,,,,,,,,,,,,,,,,,,,,,,,,,,,
,,,,1,0.8001,,,,,,44,cookie,melon,,88965,001,2022-04-25_11h28.04.911,SPAMnetsValid,2021.1.4,Win32,119.9616123,,,,,,,,,,,,,1,0.8001,0,6,6,92,1,,,,,,,,,,,,,,,,,,,,,,,,,,,,,,,,,,,,,,,,,,,,,,,,,,,,,,,,,,,,,,,,,,,,,,
,,,,1,1.1684,,,,,,49,flower,strawberry,,88965,001,2022-04-25_11h28.04.911,SPAMnetsValid,2021.1.4,Win32,119.9616123,,,,,,,,,,,,,1,1.1684,0,7,7,3,1,,,,,,,,,,,,,,,,,,,,,,,,,,,,,,,,,,,,,,,,,,,,,,,,,,,,,,,,,,,,,,,,,,,,,,
,,,,1,1.1181,,,,,,81,pretzel,yogurt,,88965,001,2022-04-25_11h28.04.911,SPAMnetsValid,2021.1.4,Win32,119.9616123,,,,,,,,,,,,,1,1.1181,0,8,8,50,1,,,,,,,,,,,,,,,,,,,,,,,,,,,,,,,,,,,,,,,,,,,,,,,,,,,,,,,,,,,,,,,,,,,,,,
,,,,1,1.1946,,,,,,55,tomato,tree,,88965,001,2022-04-25_11h28.04.911,SPAMnetsValid,2021.1.4,Win32,119.9616123,,,,,,,,,,,,,1,1.1946,0,9,9,35,1,,,,,,,,,,,,,,,,,,,,,,,,,,,,,,,,,,,,,,,,,,,,,,,,,,,,,,,,,,,,,,,,,,,,,,
,,,,1,1.7733,,,,,,28,cake,melon,,88965,001,2022-04-25_11h28.04.911,SPAMnetsValid,2021.1.4,Win32,119.9616123,,,,,,,,,,,,,1,1.7733,0,10,10,54,1,,,,,,,,,,,,,,,,,,,,,,,,,,,,,,,,,,,,,,,,,,,,,,,,,,,,,,,,,,,,,,,,,,,,,,
,,,,1,0.9558,,,,,,34,melon,oven,,88965,001,2022-04-25_11h28.04.911,SPAMnetsValid,2021.1.4,Win32,119.9616123,,,,,,,,,,,,,1,0.9558,0,11,11,7,1,,,,,,,,,,,,,,,,,,,,,,,,,,,,,,,,,,,,,,,,,,,,,,,,,,,,,,,,,,,,,,,,,,,,,,
,,,,1,0.9601,,,,,,14,broom,cookie,,88965,001,2022-04-25_11h28.04.911,SPAMnetsValid,2021.1.4,Win32,119.9616123,,,,,,,,,,,,,1,0.9601,0,12,12,16,1,,,,,,,,,,,,,,,,,,,,,,,,,,,,,,,,,,,,,,,,,,,,,,,,,,,,,,,,,,,,,,,,,,,,,,
,,,,1,0.8979,,,,,,78,cookie,rose,,88965,001,2022-04-25_11h28.04.911,SPAMnetsValid,2021.1.4,Win32,119.9616123,,,,,,,,,,,,,1,0.8979,0,13,13,56,1,,,,,,,,,,,,,,,,,,,,,,,,,,,,,,,,,,,,,,,,,,,,,,,,,,,,,,,,,,,,,,,,,,,,,,
,,,,1,1.8567,,,,,,33,oven,yogurt,,88965,001,2022-04-25_11h28.04.911,SPAMnetsValid,2021.1.4,Win32,119.9616123,,,,,,,,,,,,,1,1.8567,0,14,14,31,1,,,,,,,,,,,,,,,,,,,,,,,,,,,,,,,,,,,,,,,,,,,,,,,,,,,,,,,,,,,,,,,,,,,,,,
,,,,1,0.934,,,,,,60,cactus,onion,,88965,001,2022-04-25_11h28.04.911,SPAMnetsValid,2021.1.4,Win32,119.9616123,,,,,,,,,,,,,1,0.934,0,15,15,81,1,,,,,,,,,,,,,,,,,,,,,,,,,,,,,,,,,,,,,,,,,,,,,,,,,,,,,,,,,,,,,,,,,,,,,,
,,,,1,0.6774,,,,,,26,tomato,yogurt,,88965,001,2022-04-25_11h28.04.911,SPAMnetsValid,2021.1.4,Win32,119.9616123,,,,,,,,,,,,,1,0.6774,0,16,16,13,1,,,,,,,,,,,,,,,,,,,,,,,,,,,,,,,,,,,,,,,,,,,,,,,,,,,,,,,,,,,,,,,,,,,,,,
,,,,1,1.1322,,,,,,24,cookie,tomato,,88965,001,2022-04-25_11h28.04.911,SPAMnetsValid,2021.1.4,Win32,119.9616123,,,,,,,,,,,,,1,1.1322,0,17,17,68,1,,,,,,,,,,,,,,,,,,,,,,,,,,,,,,,,,,,,,,,,,,,,,,,,,,,,,,,,,,,,,,,,,,,,,,
,,,,1,0.862,,,,,,23,flower,microwave,,88965,001,2022-04-25_11h28.04.911,SPAMnetsValid,2021.1.4,Win32,119.9616123,,,,,,,,,,,,,1,0.862,0,18,18,25,1,,,,,,,,,,,,,,,,,,,,,,,,,,,,,,,,,,,,,,,,,,,,,,,,,,,,,,,,,,,,,,,,,,,,,,
,,,,4,2.2717,,,,,,3,cake,oven,,88965,001,2022-04-25_11h28.04.911,SPAMnetsValid,2021.1.4,Win32,119.9616123,,,,,,,,,,,,,4,2.2717,0,19,19,30,1,,,,,,,,,,,,,,,,,,,,,,,,,,,,,,,,,,,,,,,,,,,,,,,,,,,,,,,,,,,,,,,,,,,,,,
,,,,3,3.0913,,,,,,68,flower,tomato,,88965,001,2022-04-25_11h28.04.911,SPAMnetsValid,2021.1.4,Win32,119.9616123,,,,,,,,,,,,,3,3.0913,0,20,20,94,1,,,,,,,,,,,,,,,,,,,,,,,,,,,,,,,,,,,,,,,,,,,,,,,,,,,,,,,,,,,,,,,,,,,,,,
,,,,1,1.203,,,,,,41,broom,cactus,,88965,001,2022-04-25_11h28.04.911,SPAMnetsValid,2021.1.4,Win32,119.9616123,,,,,,,,,,,,,1,1.203,0,21,21,46,1,,,,,,,,,,,,,,,,,,,,,,,,,,,,,,,,,,,,,,,,,,,,,,,,,,,,,,,,,,,,,,,,,,,,,,
,,,,1,0.8594,,,,,,31,cactus,pretzel,,88965,001,2022-04-25_11h28.04.911,SPAMnetsValid,2021.1.4,Win32,119.9616123,,,,,,,,,,,,,1,0.8594,0,22,22,1,1,,,,,,,,,,,,,,,,,,,,,,,,,,,,,,,,,,,,,,,,,,,,,,,,,,,,,,,,,,,,,,,,,,,,,,
,,,,1,0.8229,,,,,,69,carrot,refrigerator,,88965,001,2022-04-25_11h28.04.911,SPAMnetsValid,2021.1.4,Win32,119.9616123,,,,,,,,,,,,,1,0.8229,0,23,23,75,1,,,,,,,,,,,,,,,,,,,,,,,,,,,,,,,,,,,,,,,,,,,,,,,,,,,,,,,,,,,,,,,,,,,,,,
,,,,1,0.9698,,,,,,15,onion,oven,,88965,001,2022-04-25_11h28.04.911,SPAMnetsValid,2021.1.4,Win32,119.9616123,,,,,,,,,,,,,1,0.9698,0,24,24,39,1,,,,,,,,,,,,,,,,,,,,,,,,,,,,,,,,,,,,,,,,,,,,,,,,,,,,,,,,,,,,,,,,,,,,,,
,,,,1,0.693,,,,,,12,cookie,yogurt,,88965,001,2022-04-25_11h28.04.911,SPAMnetsValid,2021.1.4,Win32,119.9616123,,,,,,,,,,,,,1,0.693,0,25,25,36,1,,,,,,,,,,,,,,,,,,,,,,,,,,,,,,,,,,,,,,,,,,,,,,,,,,,,,,,,,,,,,,,,,,,,,,
,,,,1,0.7095,,,,,,71,broom,rose,,88965,001,2022-04-25_11h28.04.911,SPAMnetsValid,2021.1.4,Win32,119.9616123,,,,,,,,,,,,,1,0.7095,0,26,26,61,1,,,,,,,,,,,,,,,,,,,,,,,,,,,,,,,,,,,,,,,,,,,,,,,,,,,,,,,,,,,,,,,,,,,,,,
,,,,1,0.7971,,,,,,38,pretzel,refrigerator,,88965,001,2022-04-25_11h28.04.911,SPAMnetsValid,2021.1.4,Win32,119.9616123,,,,,,,,,,,,,1,0.7971,0,27,27,71,1,,,,,,,,,,,,,,,,,,,,,,,,,,,,,,,,,,,,,,,,,,,,,,,,,,,,,,,,,,,,,,,,,,,,,,
,,,,9,1.342,,,,,,191,cake,cake,CHECK,88965,001,2022-04-25_11h28.04.911,SPAMnetsValid,2021.1.4,Win32,119.9616123,,,,,,,,,,,,,9,1.342,0,28,28,10,1,,,,,,,,,,,,,,,,,,,,,,,,,,,,,,,,,,,,,,,,,,,,,,,,,,,,,,,,,,,,,,,,,,,,,,
,,,,1,1.5282,,,,,,84,oven,tomato,,88965,001,2022-04-25_11h28.04.911,SPAMnetsValid,2021.1.4,Win32,119.9616123,,,,,,,,,,,,,1,1.5282,0,29,29,28,1,,,,,,,,,,,,,,,,,,,,,,,,,,,,,,,,,,,,,,,,,,,,,,,,,,,,,,,,,,,,,,,,,,,,,,
,,,,1,0.6154,,,,,,1,rose,yogurt,,88965,001,2022-04-25_11h28.04.911,SPAMnetsValid,2021.1.4,Win32,119.9616123,,,,,,,,,,,,,1,0.6154,0,30,30,55,1,,,,,,,,,,,,,,,,,,,,,,,,,,,,,,,,,,,,,,,,,,,,,,,,,,,,,,,,,,,,,,,,,,,,,,
,,,,1,0.8264,,,,,,70,chocolate,onion,,88965,001,2022-04-25_11h28.04.911,SPAMnetsValid,2021.1.4,Win32,119.9616123,,,,,,,,,,,,,1,0.8264,0,31,31,74,1,,,,,,,,,,,,,,,,,,,,,,,,,,,,,,,,,,,,,,,,,,,,,,,,,,,,,,,,,,,,,,,,,,,,,,
,,,,1,1.6463,,,,,,11,refrigerator,tree,,88965,001,2022-04-25_11h28.04.911,SPAMnetsValid,2021.1.4,Win32,119.9616123,,,,,,,,,,,,,1,1.6463,0,32,32,43,1,,,,,,,,,,,,,,,,,,,,,,,,,,,,,,,,,,,,,,,,,,,,,,,,,,,,,,,,,,,,,,,,,,,,,,
,,,,1,2.6001,,,,,,92,broom,flower,,88965,001,2022-04-25_11h28.04.911,SPAMnetsValid,2021.1.4,Win32,119.9616123,,,,,,,,,,,,,1,2.6001,0,33,33,88,1,,,,,,,,,,,,,,,,,,,,,,,,,,,,,,,,,,,,,,,,,,,,,,,,,,,,,,,,,,,,,,,,,,,,,,
,,,,4,1.8581,,,,,,94,kitchen,microwave,,88965,001,2022-04-25_11h28.04.911,SPAMnetsValid,2021.1.4,Win32,119.9616123,,,,,,,,,,,,,4,1.8581,0,34,34,58,1,,,,,,,,,,,,,,,,,,,,,,,,,,,,,,,,,,,,,,,,,,,,,,,,,,,,,,,,,,,,,,,,,,,,,,
,,,,1,0.7817,,,,,,18,onion,refrigerator,,88965,001,2022-04-25_11h28.04.911,SPAMnetsValid,2021.1.4,Win32,119.9616123,,,,,,,,,,,,,1,0.7817,0,35,35,62,1,,,,,,,,,,,,,,,,,,,,,,,,,,,,,,,,,,,,,,,,,,,,,,,,,,,,,,,,,,,,,,,,,,,,,,
,,,,1,1.2136,,,,,,89,chocolate,rose,,88965,001,2022-04-25_11h28.04.911,SPAMnetsValid,2021.1.4,Win32,119.9616123,,,,,,,,,,,,,1,1.2136,0,36,36,60,1,,,,,,,,,,,,,,,,,,,,,,,,,,,,,,,,,,,,,,,,,,,,,,,,,,,,,,,,,,,,,,,,,,,,,,
,,,,1,1.2179,,,,,,37,garden,refrigerator,,88965,001,2022-04-25_11h28.04.911,SPAMnetsValid,2021.1.4,Win32,119.9616123,,,,,,,,,,,,,1,1.2179,0,37,37,11,1,,,,,,,,,,,,,,,,,,,,,,,,,,,,,,,,,,,,,,,,,,,,,,,,,,,,,,,,,,,,,,,,,,,,,,
,,,,1,2.2297,,,,,,8,broom,melon,,88965,001,2022-04-25_11h28.04.911,SPAMnetsValid,2021.1.4,Win32,119.9616123,,,,,,,,,,,,,1,2.2297,0,38,38,59,1,,,,,,,,,,,,,,,,,,,,,,,,,,,,,,,,,,,,,,,,,,,,,,,,,,,,,,,,,,,,,,,,,,,,,,
,,,,1,1.3583,,,,,,21,cake,onion,,88965,001,2022-04-25_11h28.04.911,SPAMnetsValid,2021.1.4,Win32,119.9616123,,,,,,,,,,,,,1,1.3583,0,39,39,63,1,,,,,,,,,,,,,,,,,,,,,,,,,,,,,,,,,,,,,,,,,,,,,,,,,,,,,,,,,,,,,,,,,,,,,,
,,,,1,1.182,,,,,,17,carrot,melon,,88965,001,2022-04-25_11h28.04.911,SPAMnetsValid,2021.1.4,Win32,119.9616123,,,,,,,,,,,,,1,1.182,0,40,40,24,1,,,,,,,,,,,,,,,,,,,,,,,,,,,,,,,,,,,,,,,,,,,,,,,,,,,,,,,,,,,,,,,,,,,,,,
,,,,1,1.3185,,,,,,50,carrot,rose,,88965,001,2022-04-25_11h28.04.911,SPAMnetsValid,2021.1.4,Win32,119.9616123,,,,,,,,,,,,,1,1.3185,0,41,41,73,1,,,,,,,,,,,,,,,,,,,,,,,,,,,,,,,,,,,,,,,,,,,,,,,,,,,,,,,,,,,,,,,,,,,,,,
,,,,1,1.1679,,,,,,48,flower,oven,,88965,001,2022-04-25_11h28.04.911,SPAMnetsValid,2021.1.4,Win32,119.9616123,,,,,,,,,,,,,1,1.1679,0,42,42,15,1,,,,,,,,,,,,,,,,,,,,,,,,,,,,,,,,,,,,,,,,,,,,,,,,,,,,,,,,,,,,,,,,,,,,,,
,,,,1,1.0898,,,,,,65,broom,garden,,88965,001,2022-04-25_11h28.04.911,SPAMnetsValid,2021.1.4,Win32,119.9616123,,,,,,,,,,,,,1,1.0898,0,43,43,23,1,,,,,,,,,,,,,,,,,,,,,,,,,,,,,,,,,,,,,,,,,,,,,,,,,,,,,,,,,,,,,,,,,,,,,,
,,,,1,2.3328,,,,,,59,rose,strawberry,,88965,001,2022-04-25_11h28.04.911,SPAMnetsValid,2021.1.4,Win32,119.9616123,,,,,,,,,,,,,1,2.3328,0,44,44,72,1,,,,,,,,,,,,,,,,,,,,,,,,,,,,,,,,,,,,,,,,,,,,,,,,,,,,,,,,,,,,,,,,,,,,,,
,,,,1,0.7234,,,,,,13,broom,yogurt,,88965,001,2022-04-25_11h28.04.911,SPAMnetsValid,2021.1.4,Win32,119.9616123,,,,,,,,,,,,,1,0.7234,0,45,45,5,1,,,,,,,,,,,,,,,,,,,,,,,,,,,,,,,,,,,,,,,,,,,,,,,,,,,,,,,,,,,,,,,,,,,,,,
,,,,1,0.6588,,,,,,46,garden,yogurt,,88965,001,2022-04-25_11h28.04.911,SPAMnetsValid,2021.1.4,Win32,119.9616123,,,,,,,,,,,,,1,0.6588,0,46,46,65,1,,,,,,,,,,,,,,,,,,,,,,,,,,,,,,,,,,,,,,,,,,,,,,,,,,,,,,,,,,,,,,,,,,,,,,
,,,,1,3.0675,,,,,,2,kitchen,onion,,88965,001,2022-04-25_11h28.04.911,SPAMnetsValid,2021.1.4,Win32,119.9616123,,,,,,,,,,,,,1,3.0675,0,47,47,91,1,,,,,,,,,,,,,,,,,,,,,,,,,,,,,,,,,,,,,,,,,,,,,,,,,,,,,,,,,,,,,,,,,,,,,,
,,,,1,0.8266,,,,,,75,cookie,onion,,88965,001,2022-04-25_11h28.04.911,SPAMnetsValid,2021.1.4,Win32,119.9616123,,,,,,,,,,,,,1,0.8266,0,48,48,9,1,,,,,,,,,,,,,,,,,,,,,,,,,,,,,,,,,,,,,,,,,,,,,,,,,,,,,,,,,,,,,,,,,,,,,,
,,,,1,1.0133,,,,,,27,cactus,cookie,,88965,001,2022-04-25_11h28.04.911,SPAMnetsValid,2021.1.4,Win32,119.9616123,,,,,,,,,,,,,1,1.0133,0,49,49,17,1,,,,,,,,,,,,,,,,,,,,,,,,,,,,,,,,,,,,,,,,,,,,,,,,,,,,,,,,,,,,,,,,,,,,,,
,,,,1,1.0582,,,,,,53,garden,pretzel,,88965,001,2022-04-25_11h28.04.911,SPAMnetsValid,2021.1.4,Win32,119.9616123,,,,,,,,,,,,,1,1.0582,0,50,50,0,1,,,,,,,,,,,,,,,,,,,,,,,,,,,,,,,,,,,,,,,,,,,,,,,,,,,,,,,,,,,,,,,,,,,,,,
,,,,1,0.6819,,,,,,29,chocolate,melon,,88965,001,2022-04-25_11h28.04.911,SPAMnetsValid,2021.1.4,Win32,119.9616123,,,,,,,,,,,,,1,0.6819,0,51,51,34,1,,,,,,,,,,,,,,,,,,,,,,,,,,,,,,,,,,,,,,,,,,,,,,,,,,,,,,,,,,,,,,,,,,,,,,
,,,,1,0.9406,,,,,,16,chocolate,flower,,88965,001,2022-04-25_11h28.04.911,SPAMnetsValid,2021.1.4,Win32,119.9616123,,,,,,,,,,,,,1,0.9406,0,52,52,22,1,,,,,,,,,,,,,,,,,,,,,,,,,,,,,,,,,,,,,,,,,,,,,,,,,,,,,,,,,,,,,,,,,,,,,,
,,,,1,0.8489,,,,,,85,cake,tree,,88965,001,2022-04-25_11h28.04.911,SPAMnetsValid,2021.1.4,Win32,119.9616123,,,,,,,,,,,,,1,0.8489,0,53,53,18,1,,,,,,,,,,,,,,,,,,,,,,,,,,,,,,,,,,,,,,,,,,,,,,,,,,,,,,,,,,,,,,,,,,,,,,
,,,,1,0.719,,,,,,88,cactus,melon,,88965,001,2022-04-25_11h28.04.911,SPAMnetsValid,2021.1.4,Win32,119.9616123,,,,,,,,,,,,,1,0.719,0,54,54,38,1,,,,,,,,,,,,,,,,,,,,,,,,,,,,,,,,,,,,,,,,,,,,,,,,,,,,,,,,,,,,,,,,,,,,,,
,,,,1,0.6839,,,,,,87,carrot,yogurt,,88965,001,2022-04-25_11h28.04.911,SPAMnetsValid,2021.1.4,Win32,119.9616123,,,,,,,,,,,,,1,0.6839,0,55,55,6,1,,,,,,,,,,,,,,,,,,,,,,,,,,,,,,,,,,,,,,,,,,,,,,,,,,,,,,,,,,,,,,,,,,,,,,
,,,,1,4.6341,,,,,,72,broom,onion,,88965,001,2022-04-25_11h28.04.911,SPAMnetsValid,2021.1.4,Win32,119.9616123,,,,,,,,,,,,,1,4.6341,0,56,56,27,1,,,,,,,,,,,,,,,,,,,,,,,,,,,,,,,,,,,,,,,,,,,,,,,,,,,,,,,,,,,,,,,,,,,,,,
,,,,9,1.4512,,,,,,192,microwave,microwave,CHECK,88965,001,2022-04-25_11h28.04.911,SPAMnetsValid,2021.1.4,Win32,119.9616123,,,,,,,,,,,,,9,1.4512,0,57,57,53,1,,,,,,,,,,,,,,,,,,,,,,,,,,,,,,,,,,,,,,,,,,,,,,,,,,,,,,,,,,,,,,,,,,,,,,
,,,,1,3.9075,,,,,,73,broom,chocolate,,88965,001,2022-04-25_11h28.04.911,SPAMnetsValid,2021.1.4,Win32,119.9616123,,,,,,,,,,,,,1,3.9075,0,58,58,47,1,,,,,,,,,,,,,,,,,,,,,,,,,,,,,,,,,,,,,,,,,,,,,,,,,,,,,,,,,,,,,,,,,,,,,,
,,,,1,1.1732,,,,,,61,strawberry,tomato,,88965,001,2022-04-25_11h28.04.911,SPAMnetsValid,2021.1.4,Win32,119.9616123,,,,,,,,,,,,,1,1.1732,0,59,59,80,1,,,,,,,,,,,,,,,,,,,,,,,,,,,,,,,,,,,,,,,,,,,,,,,,,,,,,,,,,,,,,,,,,,,,,,
,,,,1,0.5953,,,,,,39,melon,pretzel,,88965,001,2022-04-25_11h28.04.911,SPAMnetsValid,2021.1.4,Win32,119.9616123,,,,,,,,,,,,,1,0.5953,0,60,60,20,1,,,,,,,,,,,,,,,,,,,,,,,,,,,,,,,,,,,,,,,,,,,,,,,,,,,,,,,,,,,,,,,,,,,,,,
,,,,1,0.8147,,,,,,7,melon,tree,,88965,001,2022-04-25_11h28.04.911,SPAMnetsValid,2021.1.4,Win32,119.9616123,,,,,,,,,,,,,1,0.8147,0,61,61,77,1,,,,,,,,,,,,,,,,,,,,,,,,,,,,,,,,,,,,,,,,,,,,,,,,,,,,,,,,,,,,,,,,,,,,,,
,,,,1,0.6315,,,,,,51,onion,strawberry,,88965,001,2022-04-25_11h28.04.911,SPAMnetsValid,2021.1.4,Win32,119.9616123,,,,,,,,,,,,,1,0.6315,0,62,62,86,1,,,,,,,,,,,,,,,,,,,,,,,,,,,,,,,,,,,,,,,,,,,,,,,,,,,,,,,,,,,,,,,,,,,,,,
,,,,1,0.8043,,,,,,77,refrigerator,yogurt,,88965,001,2022-04-25_11h28.04.911,SPAMnetsValid,2021.1.4,Win32,119.9616123,,,,,,,,,,,,,1,0.8043,0,63,63,42,1,,,,,,,,,,,,,,,,,,,,,,,,,,,,,,,,,,,,,,,,,,,,,,,,,,,,,,,,,,,,,,,,,,,,,,
,,,,1,0.6102,,,,,,25,carrot,onion,,88965,001,2022-04-25_11h28.04.911,SPAMnetsValid,2021.1.4,Win32,119.9616123,,,,,,,,,,,,,1,0.6102,0,64,64,44,1,,,,,,,,,,,,,,,,,,,,,,,,,,,,,,,,,,,,,,,,,,,,,,,,,,,,,,,,,,,,,,,,,,,,,,
,,,,1,1.2218,,,,,,42,garden,kitchen,,88965,001,2022-04-25_11h28.04.911,SPAMnetsValid,2021.1.4,Win32,119.9616123,,,,,,,,,,,,,1,1.2218,0,65,65,29,1,,,,,,,,,,,,,,,,,,,,,,,,,,,,,,,,,,,,,,,,,,,,,,,,,,,,,,,,,,,,,,,,,,,,,,
,,,,1,1.0714,,,,,,91,microwave,rose,,88965,001,2022-04-25_11h28.04.911,SPAMnetsValid,2021.1.4,Win32,119.9616123,,,,,,,,,,,,,1,1.0714,0,66,66,84,1,,,,,,,,,,,,,,,,,,,,,,,,,,,,,,,,,,,,,,,,,,,,,,,,,,,,,,,,,,,,,,,,,,,,,,
,,,,1,0.8461,,,,,,45,onion,pretzel,,88965,001,2022-04-25_11h28.04.911,SPAMnetsValid,2021.1.4,Win32,119.9616123,,,,,,,,,,,,,1,0.8461,0,67,67,69,1,,,,,,,,,,,,,,,,,,,,,,,,,,,,,,,,,,,,,,,,,,,,,,,,,,,,,,,,,,,,,,,,,,,,,,
,,,,1,0.7138,,,,,,80,chocolate,tree,,88965,001,2022-04-25_11h28.04.911,SPAMnetsValid,2021.1.4,Win32,119.9616123,,,,,,,,,,,,,1,0.7138,0,68,68,89,1,,,,,,,,,,,,,,,,,,,,,,,,,,,,,,,,,,,,,,,,,,,,,,,,,,,,,,,,,,,,,,,,,,,,,,
,,,,1,0.7563,,,,,,79,garden,strawberry,,88965,001,2022-04-25_11h28.04.911,SPAMnetsValid,2021.1.4,Win32,119.9616123,,,,,,,,,,,,,1,0.7563,0,69,69,87,1,,,,,,,,,,,,,,,,,,,,,,,,,,,,,,,,,,,,,,,,,,,,,,,,,,,,,,,,,,,,,,,,,,,,,,
,,,,6,2.5092,,,,,,76,garden,rose,,88965,001,2022-04-25_11h28.04.911,SPAMnetsValid,2021.1.4,Win32,119.9616123,,,,,,,,,,,,,6,2.5092,0,70,70,19,1,,,,,,,,,,,,,,,,,,,,,,,,,,,,,,,,,,,,,,,,,,,,,,,,,,,,,,,,,,,,,,,,,,,,,,
,,,,1,0.9004,,,,,,22,kitchen,strawberry,,88965,001,2022-04-25_11h28.04.911,SPAMnetsValid,2021.1.4,Win32,119.9616123,,,,,,,,,,,,,1,0.9004,0,71,71,2,1,,,,,,,,,,,,,,,,,,,,,,,,,,,,,,,,,,,,,,,,,,,,,,,,,,,,,,,,,,,,,,,,,,,,,,
,,,,1,0.7603,,,,,,43,chocolate,tomato,,88965,001,2022-04-25_11h28.04.911,SPAMnetsValid,2021.1.4,Win32,119.9616123,,,,,,,,,,,,,1,0.7603,0,72,72,8,1,,,,,,,,,,,,,,,,,,,,,,,,,,,,,,,,,,,,,,,,,,,,,,,,,,,,,,,,,,,,,,,,,,,,,,
,,,,1,0.8174,,,,,,4,chocolate,pretzel,,88965,001,2022-04-25_11h28.04.911,SPAMnetsValid,2021.1.4,Win32,119.9616123,,,,,,,,,,,,,1,0.8174,0,73,73,52,1,,,,,,,,,,,,,,,,,,,,,,,,,,,,,,,,,,,,,,,,,,,,,,,,,,,,,,,,,,,,,,,,,,,,,,
,,,,6,3.2448,,,,,,93,kitchen,oven,,88965,001,2022-04-25_11h28.04.911,SPAMnetsValid,2021.1.4,Win32,119.9616123,,,,,,,,,,,,,6,3.2448,0,74,74,82,1,,,,,,,,,,,,,,,,,,,,,,,,,,,,,,,,,,,,,,,,,,,,,,,,,,,,,,,,,,,,,,,,,,,,,,
,,,,1,1.969,,,,,,36,broom,kitchen,,88965,001,2022-04-25_11h28.04.911,SPAMnetsValid,2021.1.4,Win32,119.9616123,,,,,,,,,,,,,1,1.969,0,75,75,76,1,,,,,,,,,,,,,,,,,,,,,,,,,,,,,,,,,,,,,,,,,,,,,,,,,,,,,,,,,,,,,,,,,,,,,,
,,,,1,0.8174,,,,,,20,rose,tree,,88965,001,2022-04-25_11h28.04.911,SPAMnetsValid,2021.1.4,Win32,119.9616123,,,,,,,,,,,,,1,0.8174,0,76,76,66,1,,,,,,,,,,,,,,,,,,,,,,,,,,,,,,,,,,,,,,,,,,,,,,,,,,,,,,,,,,,,,,,,,,,,,,
,,,,1,0.7662,,,,,,5,oven,tree,,88965,001,2022-04-25_11h28.04.911,SPAMnetsValid,2021.1.4,Win32,119.9616123,,,,,,,,,,,,,1,0.7662,0,77,77,70,1,,,,,,,,,,,,,,,,,,,,,,,,,,,,,,,,,,,,,,,,,,,,,,,,,,,,,,,,,,,,,,,,,,,,,,
,,,,2,2.6214,,,,,,52,carrot,tomato,,88965,001,2022-04-25_11h28.04.911,SPAMnetsValid,2021.1.4,Win32,119.9616123,,,,,,,,,,,,,2,2.6214,0,78,78,95,1,,,,,,,,,,,,,,,,,,,,,,,,,,,,,,,,,,,,,,,,,,,,,,,,,,,,,,,,,,,,,,,,,,,,,,
,,,,1,0.5813,,,,,,90,cactus,cake,,88965,001,2022-04-25_11h28.04.911,SPAMnetsValid,2021.1.4,Win32,119.9616123,,,,,,,,,,,,,1,0.5813,0,79,79,85,1,,,,,,,,,,,,,,,,,,,,,,,,,,,,,,,,,,,,,,,,,,,,,,,,,,,,,,,,,,,,,,,,,,,,,,
,,,,1,0.5003,,,,,,40,broom,cake,,88965,001,2022-04-25_11h28.04.911,SPAMnetsValid,2021.1.4,Win32,119.9616123,,,,,,,,,,,,,1,0.5003,0,80,80,32,1,,,,,,,,,,,,,,,,,,,,,,,,,,,,,,,,,,,,,,,,,,,,,,,,,,,,,,,,,,,,,,,,,,,,,,
,,,,1,1.4805,,,,,,83,broom,carrot,,88965,001,2022-04-25_11h28.04.911,SPAMnetsValid,2021.1.4,Win32,119.9616123,,,,,,,,,,,,,1,1.4805,0,81,81,4,1,,,,,,,,,,,,,,,,,,,,,,,,,,,,,,,,,,,,,,,,,,,,,,,,,,,,,,,,,,,,,,,,,,,,,,
,,,,1,0.6626,,,,,,74,broom,pretzel,,88965,001,2022-04-25_11h28.04.911,SPAMnetsValid,2021.1.4,Win32,119.9616123,,,,,,,,,,,,,1,0.6626,0,82,82,40,1,,,,,,,,,,,,,,,,,,,,,,,,,,,,,,,,,,,,,,,,,,,,,,,,,,,,,,,,,,,,,,,,,,,,,,
,,,,1,0.9508,,,,,,86,oven,rose,,88965,001,2022-04-25_11h28.04.911,SPAMnetsValid,2021.1.4,Win32,119.9616123,,,,,,,,,,,,,1,0.9508,0,83,83,79,1,,,,,,,,,,,,,,,,,,,,,,,,,,,,,,,,,,,,,,,,,,,,,,,,,,,,,,,,,,,,,,,,,,,,,,
,,,,1,0.5951,,,,,,6,garden,onion,,88965,001,2022-04-25_11h28.04.911,SPAMnetsValid,2021.1.4,Win32,119.9616123,,,,,,,,,,,,,1,0.5951,0,84,84,83,1,,,,,,,,,,,,,,,,,,,,,,,,,,,,,,,,,,,,,,,,,,,,,,,,,,,,,,,,,,,,,,,,,,,,,,
,,,,1,0.9714,,,,,,32,cake,microwave,,88965,001,2022-04-25_11h28.04.911,SPAMnetsValid,2021.1.4,Win32,119.9616123,,,,,,,,,,,,,1,0.9714,0,85,85,33,1,,,,,,,,,,,,,,,,,,,,,,,,,,,,,,,,,,,,,,,,,,,,,,,,,,,,,,,,,,,,,,,,,,,,,,
,,,,1,1.2202,,,,,,10,flower,onion,,88965,001,2022-04-25_11h28.04.911,SPAMnetsValid,2021.1.4,Win32,119.9616123,,,,,,,,,,,,,1,1.2202,0,86,86,45,1,,,,,,,,,,,,,,,,,,,,,,,,,,,,,,,,,,,,,,,,,,,,,,,,,,,,,,,,,,,,,,,,,,,,,,
,,,,1,1.0969,,,,,,57,flower,kitchen,,88965,001,2022-04-25_11h28.04.911,SPAMnetsValid,2021.1.4,Win32,119.9616123,,,,,,,,,,,,,1,1.0969,0,87,87,49,1,,,,,,,,,,,,,,,,,,,,,,,,,,,,,,,,,,,,,,,,,,,,,,,,,,,,,,,,,,,,,,,,,,,,,,
,,,,1,0.7122,,,,,,19,microwave,pretzel,,88965,001,2022-04-25_11h28.04.911,SPAMnetsValid,2021.1.4,Win32,119.9616123,,,,,,,,,,,,,1,0.7122,0,88,88,41,1,,,,,,,,,,,,,,,,,,,,,,,,,,,,,,,,,,,,,,,,,,,,,,,,,,,,,,,,,,,,,,,,,,,,,,
,,,,1,0.6197,,,,,,82,cake,kitchen,,88965,001,2022-04-25_11h28.04.911,SPAMnetsValid,2021.1.4,Win32,119.9616123,,,,,,,,,,,,,1,0.6197,0,89,89,96,1,,,,,,,,,,,,,,,,,,,,,,,,,,,,,,,,,,,,,,,,,,,,,,,,,,,,,,,,,,,,,,,,,,,,,,
,,,,1,1.7522,,,,,,67,flower,yogurt,,88965,001,2022-04-25_11h28.04.911,SPAMnetsValid,2021.1.4,Win32,119.9616123,,,,,,,,,,,,,1,1.7522,0,90,90,12,1,,,,,,,,,,,,,,,,,,,,,,,,,,,,,,,,,,,,,,,,,,,,,,,,,,,,,,,,,,,,,,,,,,,,,,
,,,,1,0.6233,,,,,,62,kitchen,rose,,88965,001,2022-04-25_11h28.04.911,SPAMnetsValid,2021.1.4,Win32,119.9616123,,,,,,,,,,,,,1,0.6233,0,91,91,57,1,,,,,,,,,,,,,,,,,,,,,,,,,,,,,,,,,,,,,,,,,,,,,,,,,,,,,,,,,,,,,,,,,,,,,,
,,,,1,0.6094,,,,,,56,cactus,tree,,88965,001,2022-04-25_11h28.04.911,SPAMnetsValid,2021.1.4,Win32,119.9616123,,,,,,,,,,,,,1,0.6094,0,92,92,21,1,,,,,,,,,,,,,,,,,,,,,,,,,,,,,,,,,,,,,,,,,,,,,,,,,,,,,,,,,,,,,,,,,,,,,,
,,,,1,0.6012,,,,,,30,cookie,pretzel,,88965,001,2022-04-25_11h28.04.911,SPAMnetsValid,2021.1.4,Win32,119.9616123,,,,,,,,,,,,,1,0.6012,0,93,93,78,1,,,,,,,,,,,,,,,,,,,,,,,,,,,,,,,,,,,,,,,,,,,,,,,,,,,,,,,,,,,,,,,,,,,,,,
,,,,1,2.36,,,,,,58,garden,oven,,88965,001,2022-04-25_11h28.04.911,SPAMnetsValid,2021.1.4,Win32,119.9616123,,,,,,,,,,,,,1,2.36,0,94,94,37,1,,,,,,,,,,,,,,,,,,,,,,,,,,,,,,,,,,,,,,,,,,,,,,,,,,,,,,,,,,,,,,,,,,,,,,
,,,,1,0.6717,,,,,,54,chocolate,yogurt,,88965,001,2022-04-25_11h28.04.911,SPAMnetsValid,2021.1.4,Win32,119.9616123,,,,,,,,,,,,,1,0.6717,0,95,95,67,1,,,,,,,,,,,,,,,,,,,,,,,,,,,,,,,,,,,,,,,,,,,,,,,,,,,,,,,,,,,,,,,,,,,,,,
,,,,1,6.066,,,,,,35,flower,pretzel,,88965,001,2022-04-25_11h28.04.911,SPAMnetsValid,2021.1.4,Win32,119.9616123,,,,,,,,,,,,,1,6.066,0,96,96,26,1,,,,,,,,,,,,,,,,,,,,,,,,,,,,,,,,,,,,,,,,,,,,,,,,,,,,,,,,,,,,,,,,,,,,,,
,,,,,,,,,,,,,,,88965,001,2022-04-25_11h28.04.911,SPAMnetsValid,2021.1.4,Win32,119.9616123,,,,,,,,,,,,,,,,,,,,0,0,0,0,1,,,,,,,,,,,,,,,,,,,,,,,,,,,,,,,,,,,,,,,,,,,,,,,,,,,,,,,,,,,,,,,,,
,,,,,,,,,,,,,,,88965,001,2022-04-25_11h28.04.911,SPAMnetsValid,2021.1.4,Win32,119.9616123,,,,,,0,1,1,0,1,1,0,,,,,,,,,,,,,,,,,,,,,,,,,,,,,,,,,,,,,,,,,,,,,,,,,,,,,,,,,,,,,,,,,,,,,,,,,,,,,
,,,,,,,,,,,,,,,88965,001,2022-04-25_11h28.04.911,SPAMnetsValid,2021.1.4,Win32,119.9616123,,,,,,,,,,,,,,,,,,,,,,,,,3,18.0693,0,0,0,0,1,rancor,forbearance,ridicule,malice,bravery,3,,,,,,,,,,,,,,,,,,,,,,,,,,,,,,,,,,,,,,,,,,,,,,,,,,,,
,,,,,,,,,,,,,,,88965,001,2022-04-25_11h28.04.911,SPAMnetsValid,2021.1.4,Win32,119.9616123,,,,,,,,,,,,,,,,,,,,,,,,,4,8.8701,0,1,1,1,1,raucous,empty,quiet,smooth,harsh,4,,,,,,,,,,,,,,,,,,,,,,,,,,,,,,,,,,,,,,,,,,,,,,,,,,,,
,,,,,,,,,,,,,,,88965,001,2022-04-25_11h28.04.911,SPAMnetsValid,2021.1.4,Win32,119.9616123,,,,,,,,,,,,,,,,,,,,,,,,,4,4.3894,0,2,2,2,1,gargoyle,oil,medicine,carved waterspout,ugly building,3,,,,,,,,,,,,,,,,,,,,,,,,,,,,,,,,,,,,,,,,,,,,,,,,,,,,
,,,,,,,,,,,,,,,88965,001,2022-04-25_11h28.04.911,SPAMnetsValid,2021.1.4,Win32,119.9616123,,,,,,,,,,,,,,,,,,,,,,,,,2,13.237,0,3,3,3,1,recrudesce,purify,renew activity,lack refinement,crush,2,,,,,,,,,,,,,,,,,,,,,,,,,,,,,,,,,,,,,,,,,,,,,,,,,,,,
,,,,,,,,,,,,,,,88965,001,2022-04-25_11h28.04.911,SPAMnetsValid,2021.1.4,Win32,119.9616123,,,,,,,,,,,,,,,,,,,,,,,,,3,2.9086,0,4,4,4,1,specious,"plausible, but not genuine",noteworthy,class or variety,roomy,1,,,,,,,,,,,,,,,,,,,,,,,,,,,,,,,,,,,,,,,,,,,,,,,,,,,,
,,,,,,,,,,,,,,,88965,001,2022-04-25_11h28.04.911,SPAMnetsValid,2021.1.4,Win32,119.9616123,,,,,,,,,,,,,,,,,,,,,,,,,3,2.1775,0,5,5,5,1,bauble,bubble,showy plaything,idle talk,confusion,2,,,,,,,,,,,,,,,,,,,,,,,,,,,,,,,,,,,,,,,,,,,,,,,,,,,,
,,,,,,,,,,,,,,,88965,001,2022-04-25_11h28.04.911,SPAMnetsValid,2021.1.4,Win32,119.9616123,,,,,,,,,,,,,,,,,,,,,,,,,2,4.1863,0,6,6,6,1,prolific,scarce,producing abundantly,reckless,speaking profanely,2,,,,,,,,,,,,,,,,,,,,,,,,,,,,,,,,,,,,,,,,,,,,,,,,,,,,
,,,,,,,,,,,,,,,88965,001,2022-04-25_11h28.04.911,SPAMnetsValid,2021.1.4,Win32,119.9616123,,,,,,,,,,,,,,,,,,,,,,,,,2,1.4081,0,7,7,7,1,opulent,party,wealthy,happy frame of mind,semiprecious stone,2,,,,,,,,,,,,,,,,,,,,,,,,,,,,,,,,,,,,,,,,,,,,,,,,,,,,
,,,,,,,,,,,,,,,88965,001,2022-04-25_11h28.04.911,SPAMnetsValid,2021.1.4,Win32,119.9616123,,,,,,,,,,,,,,,,,,,,,,,,,1,6.4298,0,8,8,8,1,coercion,conspiracy,strategy,restraint,attraction,3,,,,,,,,,,,,,,,,,,,,,,,,,,,,,,,,,,,,,,,,,,,,,,,,,,,,
,,,,,,,,,,,,,,,88965,001,2022-04-25_11h28.04.911,SPAMnetsValid,2021.1.4,Win32,119.9616123,,,,,,,,,,,,,,,,,,,,,,,,,4,2.7542,0,9,9,9,1,hiatus,animal,calamity,dread,gap,4,,,,,,,,,,,,,,,,,,,,,,,,,,,,,,,,,,,,,,,,,,,,,,,,,,,,
,,,,,,,,,,,,,,,88965,001,2022-04-25_11h28.04.911,SPAMnetsValid,2021.1.4,Win32,119.9616123,,,,,,,,,,,,,,,,,,,,,,,,,3,11.0223,0,10,10,10,1,germane,microbe,contagious,relevant,different,3,,,,,,,,,,,,,,,,,,,,,,,,,,,,,,,,,,,,,,,,,,,,,,,,,,,,
,,,,,,,,,,,,,,,88965,001,2022-04-25_11h28.04.911,SPAMnetsValid,2021.1.4,Win32,119.9616123,,,,,,,,,,,,,,,,,,,,,,,,,3,15.6685,0,11,11,11,1,perfunctory,fundamental,formal,superficial,careful,3,,,,,,,,,,,,,,,,,,,,,,,,,,,,,,,,,,,,,,,,,,,,,,,,,,,,
,,,,,,,,,,,,,,,88965,001,2022-04-25_11h28.04.911,SPAMnetsValid,2021.1.4,Win32,119.9616123,,,,,,,,,,,,,,,,,,,,,,,,,4,3.2276,0,12,12,12,1,diverge,reveal,chant,distract the attention of,differ or turn off from,4,,,,,,,,,,,,,,,,,,,,,,,,,,,,,,,,,,,,,,,,,,,,,,,,,,,,
,,,,,,,,,,,,,,,88965,001,2022-04-25_11h28.04.911,SPAMnetsValid,2021.1.4,Win32,119.9616123,,,,,,,,,,,,,,,,,,,,,,,,,4,2.7287,0,13,13,13,1,evoke,take away,anger,connect,bring out,4,,,,,,,,,,,,,,,,,,,,,,,,,,,,,,,,,,,,,,,,,,,,,,,,,,,,
,,,,,,,,,,,,,,,88965,001,2022-04-25_11h28.04.911,SPAMnetsValid,2021.1.4,Win32,119.9616123,,,,,,,,,,,,,,,,,,,,,,,,,1,1.8664,0,14,14,14,1,pertinent,relevant,lying next to,necessary,bold,1,,,,,,,,,,,,,,,,,,,,,,,,,,,,,,,,,,,,,,,,,,,,,,,,,,,,
,,,,,,,,,,,,,,,88965,001,2022-04-25_11h28.04.911,SPAMnetsValid,2021.1.4,Win32,119.9616123,,,,,,,,,,,,,,,,,,,,,,,,,2,2.5676,0,15,15,15,1,holocaust,entirety,destruction,saintly,price,2,,,,,,,,,,,,,,,,,,,,,,,,,,,,,,,,,,,,,,,,,,,,,,,,,,,,
,,,,,,,,,,,,,,,88965,001,2022-04-25_11h28.04.911,SPAMnetsValid,2021.1.4,Win32,119.9616123,,,,,,,,,,,,,,,,,,,,,,,,,1,3.2769,0,16,16,16,1,piquant,mellow,fish,pungent,cloth,3,,,,,,,,,,,,,,,,,,,,,,,,,,,,,,,,,,,,,,,,,,,,,,,,,,,,
,,,,,,,,,,,,,,,88965,001,2022-04-25_11h28.04.911,SPAMnetsValid,2021.1.4,Win32,119.9616123,,,,,,,,,,,,,,,,,,,,,,,,,3,3.9637,0,17,17,17,1,firmament,foundation,heavens,strong,glue,2,,,,,,,,,,,,,,,,,,,,,,,,,,,,,,,,,,,,,,,,,,,,,,,,,,,,
,,,,,,,,,,,,,,,88965,001,2022-04-25_11h28.04.911,SPAMnetsValid,2021.1.4,Win32,119.9616123,,,,,,,,,,,,,,,,,,,,,,,,,,,,,,,,,,,,,,4,3.4738,0,0,0,0,1,marketable,partisan,jocular,marriageable,salable,essential,4,,,,,,,,,,,,,,,,,,,,,,,,,,,,,,,,,,,,,,
,,,,,,,,,,,,,,,88965,001,2022-04-25_11h28.04.911,SPAMnetsValid,2021.1.4,Win32,119.9616123,,,,,,,,,,,,,,,,,,,,,,,,,,,,,,,,,,,,,,5,18.3096,0,1,1,1,1,cottontail,squirrel,poplar,boa,marshy plant,rabbit,5,,,,,,,,,,,,,,,,,,,,,,,,,,,,,,,,,,,,,,
,,,,,,,,,,,,,,,88965,001,2022-04-25_11h28.04.911,SPAMnetsValid,2021.1.4,Win32,119.9616123,,,,,,,,,,,,,,,,,,,,,,,,,,,,,,,,,,,,,,4,2.2003,0,2,2,2,1,boggy,afraid,false,marshy,dense,black,3,,,,,,,,,,,,,,,,,,,,,,,,,,,,,,,,,,,,,,
,,,,,,,,,,,,,,,88965,001,2022-04-25_11h28.04.911,SPAMnetsValid,2021.1.4,Win32,119.9616123,,,,,,,,,,,,,,,,,,,,,,,,,,,,,,,,,,,,,,5,5.1643,0,3,3,3,1,gruesomeness,blackness,falseness,vindictiveness,drunkenness,ghastliness,5,,,,,,,,,,,,,,,,,,,,,,,,,,,,,,,,,,,,,,
,,,,,,,,,,,,,,,88965,001,2022-04-25_11h28.04.911,SPAMnetsValid,2021.1.4,Win32,119.9616123,,,,,,,,,,,,,,,,,,,,,,,,,,,,,,,,,,,,,,3,9.2019,0,4,4,4,1,loathing,diffidence,laziness,abhorrence,cleverness,comfort,3,,,,,,,,,,,,,,,,,,,,,,,,,,,,,,,,,,,,,,
,,,,,,,,,,,,,,,88965,001,2022-04-25_11h28.04.911,SPAMnetsValid,2021.1.4,Win32,119.9616123,,,,,,,,,,,,,,,,,,,,,,,,,,,,,,,,,,,,,,2,14.6219,0,5,5,5,1,bantam,fowl,ridicule,cripple,vegetable,ensign,1,,,,,,,,,,,,,,,,,,,,,,,,,,,,,,,,,,,,,,
,,,,,,,,,,,,,,,88965,001,2022-04-25_11h28.04.911,SPAMnetsValid,2021.1.4,Win32,119.9616123,,,,,,,,,,,,,,,,,,,,,,,,,,,,,,,,,,,,,,5,2.9343,0,6,6,6,1,evoke,wake up,surrender,reconnoiter,transcend,call forth,5,,,,,,,,,,,,,,,,,,,,,,,,,,,,,,,,,,,,,,
,,,,,,,,,,,,,,,88965,001,2022-04-25_11h28.04.911,SPAMnetsValid,2021.1.4,Win32,119.9616123,,,,,,,,,,,,,,,,,,,,,,,,,,,,,,,,,,,,,,5,9.3744,0,7,7,7,1,unobtrusive,unintelligent,epileptic,illogical,lineal,modest,5,,,,,,,,,,,,,,,,,,,,,,,,,,,,,,,,,,,,,,
,,,,,,,,,,,,,,,88965,001,2022-04-25_11h28.04.911,SPAMnetsValid,2021.1.4,Win32,119.9616123,,,,,,,,,,,,,,,,,,,,,,,,,,,,,,,,,,,,,,4,2.3785,0,8,8,8,1,terrain,ice cream,final test,tractor,area of ground,weight,4,,,,,,,,,,,,,,,,,,,,,,,,,,,,,,,,,,,,,,
,,,,,,,,,,,,,,,88965,001,2022-04-25_11h28.04.911,SPAMnetsValid,2021.1.4,Win32,119.9616123,,,,,,,,,,,,,,,,,,,,,,,,,,,,,,,,,,,,,,3,13.6187,0,9,9,9,1,capriciousness,stubbornness,courage,whimsicality,amazement,greediness,3,,,,,,,,,,,,,,,,,,,,,,,,,,,,,,,,,,,,,,
,,,,,,,,,,,,,,,88965,001,2022-04-25_11h28.04.911,SPAMnetsValid,2021.1.4,Win32,119.9616123,,,,,,,,,,,,,,,,,,,,,,,,,,,,,,,,,,,,,,2,1.6546,0,10,10,10,1,maelstrom,slander,whirlpool,enmity,armor,majolica,2,,,,,,,,,,,,,,,,,,,,,,,,,,,,,,,,,,,,,,
,,,,,,,,,,,,,,,88965,001,2022-04-25_11h28.04.911,SPAMnetsValid,2021.1.4,Win32,119.9616123,,,,,,,,,,,,,,,,,,,,,,,,,,,,,,,,,,,,,,5,4.8038,0,11,11,11,1,tentative,critical,conclusive,authentic,provisional,apprehensive,4,,,,,,,,,,,,,,,,,,,,,,,,,,,,,,,,,,,,,,
,,,,,,,,,,,,,,,88965,001,2022-04-25_11h28.04.911,SPAMnetsValid,2021.1.4,Win32,119.9616123,,,,,,,,,,,,,,,,,,,,,,,,,,,,,,,,,,,,,,4,3.6309,0,12,12,12,1,placate,rehabilitate,plagiarize,depredate,apprise,conciliate,5,,,,,,,,,,,,,,,,,,,,,,,,,,,,,,,,,,,,,,
,,,,,,,,,,,,,,,88965,001,2022-04-25_11h28.04.911,SPAMnetsValid,2021.1.4,Win32,119.9616123,,,,,,,,,,,,,,,,,,,,,,,,,,,,,,,,,,,,,,2,5.1239,0,13,13,13,1,surcease,enlightenment,cessation,inattention,censor,substitution,2,,,,,,,,,,,,,,,,,,,,,,,,,,,,,,,,,,,,,,
,,,,,,,,,,,,,,,88965,001,2022-04-25_11h28.04.911,SPAMnetsValid,2021.1.4,Win32,119.9616123,,,,,,,,,,,,,,,,,,,,,,,,,,,,,,,,,,,,,,3,6.2314,0,14,14,14,1,apathetic,wandering,impassive,hateful,prophetic,overflowing,2,,,,,,,,,,,,,,,,,,,,,,,,,,,,,,,,,,,,,,
,,,,,,,,,,,,,,,88965,001,2022-04-25_11h28.04.911,SPAMnetsValid,2021.1.4,Win32,119.9616123,,,,,,,,,,,,,,,,,,,,,,,,,,,,,,,,,,,,,,5,15.3099,0,15,15,15,1,paternoster,paternalism,patricide,malediction,benediction,prayer,5,,,,,,,,,,,,,,,,,,,,,,,,,,,,,,,,,,,,,,
,,,,,,,,,,,,,,,88965,001,2022-04-25_11h28.04.911,SPAMnetsValid,2021.1.4,Win32,119.9616123,,,,,,,,,,,,,,,,,,,,,,,,,,,,,,,,,,,,,,1,3.064,0,16,16,16,1,opalescence,opulence,senescence,bankruptcy,iridescence,assiduity,4,,,,,,,,,,,,,,,,,,,,,,,,,,,,,,,,,,,,,,
,,,,,,,,,,,,,,,88965,001,2022-04-25_11h28.04.911,SPAMnetsValid,2021.1.4,Win32,119.9616123,,,,,,,,,,,,,,,,,,,,,,,,,,,,,,,,,,,,,,2,1.5927,0,17,17,17,1,lush,stupid,luxurious,hazy,putrid,languishing,2,,,,,,,,,,,,,,,,,,,,,,,,,,,,,,,,,,,,,,
,,,,,,,,,,,,,,,88965,001,2022-04-25_11h28.04.911,SPAMnetsValid,2021.1.4,Win32,119.9616123,,,,,,,,,,,,,,,,,,,,,,,,,,,,,,,,,,,,,,2,4.1624,0,18,18,18,1,curtailment,expenditure,abandonment,abridgment,improvement,forgery,3,,,,,,,,,,,,,,,,,,,,,,,,,,,,,,,,,,,,,,
,,,,,,,,,,,,,,,88965,001,2022-04-25_11h28.04.911,SPAMnetsValid,2021.1.4,Win32,119.9616123,,,,,,,,,,,,,,,,,,,,,,,,,,,,,,,,,,,,,,4,12.3016,0,19,19,19,1,perversity,adversity,perviousness,travesty,waywardness,gentility,4,,,,,,,,,,,,,,,,,,,,,,,,,,,,,,,,,,,,,,
,,,,,,,,,,,,,,,88965,001,2022-04-25_11h28.04.911,SPAMnetsValid,2021.1.4,Win32,119.9616123,,,,,,,,,,,,,,,,,,,,,,,,,,,,,,,,,,,,,,4,3.9146,0,20,20,20,1,calumnious,complimentary,analogous,slanderous,tempestuous,magnanimous,3,,,,,,,,,,,,,,,,,,,,,,,,,,,,,,,,,,,,,,
,,,,,,,,,,,,,,,88965,001,2022-04-25_11h28.04.911,SPAMnetsValid,2021.1.4,Win32,119.9616123,,,,,,,,,,,,,,,,,,,,,,,,,,,,,,,,,,,,,,1,12.2364,0,21,21,21,1,illiberality,bigotry,imbecility,illegibility,cautery,immaturity,1,,,,,,,,,,,,,,,,,,,,,,,,,,,,,,,,,,,,,,
,,,,,,,,,,,,,,,88965,001,2022-04-25_11h28.04.911,SPAMnetsValid,2021.1.4,Win32,119.9616123,,,,,,,,,,,,,,,,,,,,,,,,,,,,,,,,,,,,,,3,7.3438,0,22,22,22,1,clabber,rejoice,gossip,curdle,crow,hobble,3,,,,,,,,,,,,,,,,,,,,,,,,,,,,,,,,,,,,,,
,,,,,,,,,,,,,,,88965,001,2022-04-25_11h28.04.911,SPAMnetsValid,2021.1.4,Win32,119.9616123,,,,,,,,,,,,,,,,,,,,,,,,,,,,,,,,,,,,,,1,14.7637,0,23,23,23,1,sedulousness,diligence,credulousness,seduction,perilousness,frankness,1,,,,,,,,,,,,,,,,,,,,,,,,,,,,,,,,,,,,,,
,,,,,,,,,,,,,,,88965,001,2022-04-25_11h28.04.911,SPAMnetsValid,2021.1.4,Win32,119.9616123,,,,,,,,,,,,,,,,,,,,,,,,,,,,,,,,,,,,,,,,,,,,,,,,,,,,carrying water,bucket,0,0,0,0,1,,,,,,,,,,,,,,,,,,,,,,,,,,,,,,,
,,,,,,,,,,,,,,,88965,001,2022-04-25_11h28.04.911,SPAMnetsValid,2021.1.4,Win32,119.9616123,,,,,,,,,,,,,,,,,,,,,,,,,,,,,,,,,,,,,,,,,,,,,,,,,,,,carrying feces from outhouse,bucket,1,0,1,0,1,,,,,,,,,,,,,,,,,,,,,,,,,,,,,,,
,,,,,,,,,,,,,,,88965,001,2022-04-25_11h28.04.911,SPAMnetsValid,2021.1.4,Win32,119.9616123,,,,,,,,,,,,,,,,,,,,,,,,,,,,,,,,,,,,,,,,,,,,,,,,,,,,mulch to garden,bucket,2,0,2,0,1,,,,,,,,,,,,,,,,,,,,,,,,,,,,,,,
,,,,,,,,,,,,,,,88965,001,2022-04-25_11h28.04.911,SPAMnetsValid,2021.1.4,Win32,119.9616123,,,,,,,,,,,,,,,,,,,,,,,,,,,,,,,,,,,,,,,,,,,,,,,,,,,,carrying sand for sand castle,bucket,3,0,3,0,1,,,,,,,,,,,,,,,,,,,,,,,,,,,,,,,
,,,,,,,,,,,,,,,88965,001,2022-04-25_11h28.04.911,SPAMnetsValid,2021.1.4,Win32,119.9616123,,,,,,,,,,,,,,,,,,,,,,,,,,,,,,,,,,,,,,,,,,,,,,,,,,,,classic bucket of water on top door prank,bucket,4,0,4,0,1,,,,,,,,,,,,,,,,,,,,,,,,,,,,,,,
,,,,,,,,,,,,,,,88965,001,2022-04-25_11h28.04.911,SPAMnetsValid,2021.1.4,Win32,119.9616123,,,,,,,,,,,,,,,,,,,,,,,,,,,,,,,,,,,,,,,,,,,,,,,,,,,,carrying more solid objects like toys,bucket,5,0,5,0,1,,,,,,,,,,,,,,,,,,,,,,,,,,,,,,,
,,,,,,,,,,,,,,,88965,001,2022-04-25_11h28.04.911,SPAMnetsValid,2021.1.4,Win32,119.9616123,,,,,,,,,,,,,,,,,,,,,,,,,,,,,,,,,,,,,,,,,,,,,,,,,,,,catching fish,bucket,6,0,6,0,1,,,,,,,,,,,,,,,,,,,,,,,,,,,,,,,
,,,,,,,,,,,,,,,88965,001,2022-04-25_11h28.04.911,SPAMnetsValid,2021.1.4,Win32,119.9616123,,,,,,,,,,,,,,,,,,,,,,,,,,,,,,,,,,,,,,,,,,,,,,,,,,,,,,,,,,,0,0,0,0,1,bucket,,,,,,,,,,,,,,,,,,,,,,,,,
,,,,,,,,,,,,,,,88965,001,2022-04-25_11h28.04.911,SPAMnetsValid,2021.1.4,Win32,119.9616123,,,,,,,,,,,,,,,,,,,,,,,,,,,,,,,,,,,,,,,,,,,,,,,,,,,,decoration,pillow,0,0,0,0,1,,,,,,,,,,,,,,,,,,,,,,,,,,,,,,,
,,,,,,,,,,,,,,,88965,001,2022-04-25_11h28.04.911,SPAMnetsValid,2021.1.4,Win32,119.9616123,,,,,,,,,,,,,,,,,,,,,,,,,,,,,,,,,,,,,,,,,,,,,,,,,,,,weapon,pillow,1,0,1,0,1,,,,,,,,,,,,,,,,,,,,,,,,,,,,,,,
,,,,,,,,,,,,,,,88965,001,2022-04-25_11h28.04.911,SPAMnetsValid,2021.1.4,Win32,119.9616123,,,,,,,,,,,,,,,,,,,,,,,,,,,,,,,,,,,,,,,,,,,,,,,,,,,,protective wear,pillow,2,0,2,0,1,,,,,,,,,,,,,,,,,,,,,,,,,,,,,,,
,,,,,,,,,,,,,,,88965,001,2022-04-25_11h28.04.911,SPAMnetsValid,2021.1.4,Win32,119.9616123,,,,,,,,,,,,,,,,,,,,,,,,,,,,,,,,,,,,,,,,,,,,,,,,,,,,cushion for fall,pillow,3,0,3,0,1,,,,,,,,,,,,,,,,,,,,,,,,,,,,,,,
,,,,,,,,,,,,,,,88965,001,2022-04-25_11h28.04.911,SPAMnetsValid,2021.1.4,Win32,119.9616123,,,,,,,,,,,,,,,,,,,,,,,,,,,,,,,,,,,,,,,,,,,,,,,,,,,,using it as a potato bag hopping,pillow,4,0,4,0,1,,,,,,,,,,,,,,,,,,,,,,,,,,,,,,,
,,,,,,,,,,,,,,,88965,001,2022-04-25_11h28.04.911,SPAMnetsValid,2021.1.4,Win32,119.9616123,,,,,,,,,,,,,,,,,,,,,,,,,,,,,,,,,,,,,,,,,,,,,,,,,,,,comfort,pillow,5,0,5,0,1,,,,,,,,,,,,,,,,,,,,,,,,,,,,,,,
,,,,,,,,,,,,,,,88965,001,2022-04-25_11h28.04.911,SPAMnetsValid,2021.1.4,Win32,119.9616123,,,,,,,,,,,,,,,,,,,,,,,,,,,,,,,,,,,,,,,,,,,,,,,,,,,,,,,,,,,0,1,1,2,1,pillow,,,,,,,,,,,,,,,,,,,,,,,,,
,,,,,,,,,,,,,,,88965,001,2022-04-25_11h28.04.911,SPAMnetsValid,2021.1.4,Win32,119.9616123,,,,,,,,,,,,,,,,,,,,,,,,,,,,,,,,,,,,,,,,,,,,,,,,,,,,scent,candle,0,0,0,0,1,,,,,,,,,,,,,,,,,,,,,,,,,,,,,,,
,,,,,,,,,,,,,,,88965,001,2022-04-25_11h28.04.911,SPAMnetsValid,2021.1.4,Win32,119.9616123,,,,,,,,,,,,,,,,,,,,,,,,,,,,,,,,,,,,,,,,,,,,,,,,,,,,cosnervation of electrictiy,candle,1,0,1,0,1,,,,,,,,,,,,,,,,,,,,,,,,,,,,,,,
,,,,,,,,,,,,,,,88965,001,2022-04-25_11h28.04.911,SPAMnetsValid,2021.1.4,Win32,119.9616123,,,,,,,,,,,,,,,,,,,,,,,,,,,,,,,,,,,,,,,,,,,,,,,,,,,,using wax to make art,candle,2,0,2,0,1,,,,,,,,,,,,,,,,,,,,,,,,,,,,,,,
,,,,,,,,,,,,,,,88965,001,2022-04-25_11h28.04.911,SPAMnetsValid,2021.1.4,Win32,119.9616123,,,,,,,,,,,,,,,,,,,,,,,,,,,,,,,,,,,,,,,,,,,,,,,,,,,,create a scenic point at night,candle,3,0,3,0,1,,,,,,,,,,,,,,,,,,,,,,,,,,,,,,,
,,,,,,,,,,,,,,,88965,001,2022-04-25_11h28.04.911,SPAMnetsValid,2021.1.4,Win32,119.9616123,,,,,,,,,,,,,,,,,,,,,,,,,,,,,,,,,,,,,,,,,,,,,,,,,,,,romantic lighting,candle,4,0,4,0,1,,,,,,,,,,,,,,,,,,,,,,,,,,,,,,,
,,,,,,,,,,,,,,,88965,001,2022-04-25_11h28.04.911,SPAMnetsValid,2021.1.4,Win32,119.9616123,,,,,,,,,,,,,,,,,,,,,,,,,,,,,,,,,,,,,,,,,,,,,,,,,,,,weaker battery less flashlights,candle,5,0,5,0,1,,,,,,,,,,,,,,,,,,,,,,,,,,,,,,,
,,,,,,,,,,,,,,,88965,001,2022-04-25_11h28.04.911,SPAMnetsValid,2021.1.4,Win32,119.9616123,,,,,,,,,,,,,,,,,,,,,,,,,,,,,,,,,,,,,,,,,,,,,,,,,,,,,,,,,,,0,2,2,1,1,candle,,,,,,,,,,,,,,,,,,,,,,,,,
,,,,,,,,,,,,,,,88965,001,2022-04-25_11h28.04.911,SPAMnetsValid,2021.1.4,Win32,119.9616123,,,,,,,,,,,,,,,,,,,,,,,,,,,,,,,,,,,,,,,,,,,,,,,,,,,,,,,,,,,,,,,,,zebra,Animals,0,0,0,0,1,,,,,,,,,,,,,,,,,,
,,,,,,,,,,,,,,,88965,001,2022-04-25_11h28.04.911,SPAMnetsValid,2021.1.4,Win32,119.9616123,,,,,,,,,,,,,,,,,,,,,,,,,,,,,,,,,,,,,,,,,,,,,,,,,,,,,,,,,,,,,,,,,cat,Animals,1,0,1,0,1,,,,,,,,,,,,,,,,,,
,,,,,,,,,,,,,,,88965,001,2022-04-25_11h28.04.911,SPAMnetsValid,2021.1.4,Win32,119.9616123,,,,,,,,,,,,,,,,,,,,,,,,,,,,,,,,,,,,,,,,,,,,,,,,,,,,,,,,,,,,,,,,,dog,Animals,2,0,2,0,1,,,,,,,,,,,,,,,,,,
,,,,,,,,,,,,,,,88965,001,2022-04-25_11h28.04.911,SPAMnetsValid,2021.1.4,Win32,119.9616123,,,,,,,,,,,,,,,,,,,,,,,,,,,,,,,,,,,,,,,,,,,,,,,,,,,,,,,,,,,,,,,,,horse,Animals,3,0,3,0,1,,,,,,,,,,,,,,,,,,
,,,,,,,,,,,,,,,88965,001,2022-04-25_11h28.04.911,SPAMnetsValid,2021.1.4,Win32,119.9616123,,,,,,,,,,,,,,,,,,,,,,,,,,,,,,,,,,,,,,,,,,,,,,,,,,,,,,,,,,,,,,,,,wolf,Animals,4,0,4,0,1,,,,,,,,,,,,,,,,,,
,,,,,,,,,,,,,,,88965,001,2022-04-25_11h28.04.911,SPAMnetsValid,2021.1.4,Win32,119.9616123,,,,,,,,,,,,,,,,,,,,,,,,,,,,,,,,,,,,,,,,,,,,,,,,,,,,,,,,,,,,,,,,,gorilla,Animals,5,0,5,0,1,,,,,,,,,,,,,,,,,,
,,,,,,,,,,,,,,,88965,001,2022-04-25_11h28.04.911,SPAMnetsValid,2021.1.4,Win32,119.9616123,,,,,,,,,,,,,,,,,,,,,,,,,,,,,,,,,,,,,,,,,,,,,,,,,,,,,,,,,,,,,,,,,chimpanzee,Animals,6,0,6,0,1,,,,,,,,,,,,,,,,,,
,,,,,,,,,,,,,,,88965,001,2022-04-25_11h28.04.911,SPAMnetsValid,2021.1.4,Win32,119.9616123,,,,,,,,,,,,,,,,,,,,,,,,,,,,,,,,,,,,,,,,,,,,,,,,,,,,,,,,,,,,,,,,,bonobo,Animals,7,0,7,0,1,,,,,,,,,,,,,,,,,,
,,,,,,,,,,,,,,,88965,001,2022-04-25_11h28.04.911,SPAMnetsValid,2021.1.4,Win32,119.9616123,,,,,,,,,,,,,,,,,,,,,,,,,,,,,,,,,,,,,,,,,,,,,,,,,,,,,,,,,,,,,,,,,gibbon,Animals,8,0,8,0,1,,,,,,,,,,,,,,,,,,
,,,,,,,,,,,,,,,88965,001,2022-04-25_11h28.04.911,SPAMnetsValid,2021.1.4,Win32,119.9616123,,,,,,,,,,,,,,,,,,,,,,,,,,,,,,,,,,,,,,,,,,,,,,,,,,,,,,,,,,,,,,,,,camel,Animals,9,0,9,0,1,,,,,,,,,,,,,,,,,,
,,,,,,,,,,,,,,,88965,001,2022-04-25_11h28.04.911,SPAMnetsValid,2021.1.4,Win32,119.9616123,,,,,,,,,,,,,,,,,,,,,,,,,,,,,,,,,,,,,,,,,,,,,,,,,,,,,,,,,,,,,,,,,panther,Animals,10,0,10,0,1,,,,,,,,,,,,,,,,,,
,,,,,,,,,,,,,,,88965,001,2022-04-25_11h28.04.911,SPAMnetsValid,2021.1.4,Win32,119.9616123,,,,,,,,,,,,,,,,,,,,,,,,,,,,,,,,,,,,,,,,,,,,,,,,,,,,,,,,,,,,,,,,,puma,Animals,11,0,11,0,1,,,,,,,,,,,,,,,,,,
,,,,,,,,,,,,,,,88965,001,2022-04-25_11h28.04.911,SPAMnetsValid,2021.1.4,Win32,119.9616123,,,,,,,,,,,,,,,,,,,,,,,,,,,,,,,,,,,,,,,,,,,,,,,,,,,,,,,,,,,,,,,,,leopard,Animals,12,0,12,0,1,,,,,,,,,,,,,,,,,,
,,,,,,,,,,,,,,,88965,001,2022-04-25_11h28.04.911,SPAMnetsValid,2021.1.4,Win32,119.9616123,,,,,,,,,,,,,,,,,,,,,,,,,,,,,,,,,,,,,,,,,,,,,,,,,,,,,,,,,,,,,,,,,lion,Animals,13,0,13,0,1,,,,,,,,,,,,,,,,,,
,,,,,,,,,,,,,,,88965,001,2022-04-25_11h28.04.911,SPAMnetsValid,2021.1.4,Win32,119.9616123,,,,,,,,,,,,,,,,,,,,,,,,,,,,,,,,,,,,,,,,,,,,,,,,,,,,,,,,,,,,,,,,,tiger,Animals,14,0,14,0,1,,,,,,,,,,,,,,,,,,
,,,,,,,,,,,,,,,88965,001,2022-04-25_11h28.04.911,SPAMnetsValid,2021.1.4,Win32,119.9616123,,,,,,,,,,,,,,,,,,,,,,,,,,,,,,,,,,,,,,,,,,,,,,,,,,,,,,,,,,,,,,,,,ram,Animals,15,0,15,0,1,,,,,,,,,,,,,,,,,,
,,,,,,,,,,,,,,,88965,001,2022-04-25_11h28.04.911,SPAMnetsValid,2021.1.4,Win32,119.9616123,,,,,,,,,,,,,,,,,,,,,,,,,,,,,,,,,,,,,,,,,,,,,,,,,,,,,,,,,,,,,,,,,goat,Animals,16,0,16,0,1,,,,,,,,,,,,,,,,,,
,,,,,,,,,,,,,,,88965,001,2022-04-25_11h28.04.911,SPAMnetsValid,2021.1.4,Win32,119.9616123,,,,,,,,,,,,,,,,,,,,,,,,,,,,,,,,,,,,,,,,,,,,,,,,,,,,,,,,,,,,,,,,,eagle,Animals,17,0,17,0,1,,,,,,,,,,,,,,,,,,
,,,,,,,,,,,,,,,88965,001,2022-04-25_11h28.04.911,SPAMnetsValid,2021.1.4,Win32,119.9616123,,,,,,,,,,,,,,,,,,,,,,,,,,,,,,,,,,,,,,,,,,,,,,,,,,,,,,,,,,,,,,,,,fish,Animals,18,0,18,0,1,,,,,,,,,,,,,,,,,,
,,,,,,,,,,,,,,,88965,001,2022-04-25_11h28.04.911,SPAMnetsValid,2021.1.4,Win32,119.9616123,,,,,,,,,,,,,,,,,,,,,,,,,,,,,,,,,,,,,,,,,,,,,,,,,,,,,,,,,,,,,,,,,lizards,Animals,19,0,19,0,1,,,,,,,,,,,,,,,,,,
,,,,,,,,,,,,,,,88965,001,2022-04-25_11h28.04.911,SPAMnetsValid,2021.1.4,Win32,119.9616123,,,,,,,,,,,,,,,,,,,,,,,,,,,,,,,,,,,,,,,,,,,,,,,,,,,,,,,,,,,,,,,,,hawk,Animals,20,0,20,0,1,,,,,,,,,,,,,,,,,,
,,,,,,,,,,,,,,,88965,001,2022-04-25_11h28.04.911,SPAMnetsValid,2021.1.4,Win32,119.9616123,,,,,,,,,,,,,,,,,,,,,,,,,,,,,,,,,,,,,,,,,,,,,,,,,,,,,,,,,,,,,,,,,owl,Animals,21,0,21,0,1,,,,,,,,,,,,,,,,,,
,,,,,,,,,,,,,,,88965,001,2022-04-25_11h28.04.911,SPAMnetsValid,2021.1.4,Win32,119.9616123,,,,,,,,,,,,,,,,,,,,,,,,,,,,,,,,,,,,,,,,,,,,,,,,,,,,,,,,,,,,,,,,,wilderbeast,Animals,22,0,22,0,1,,,,,,,,,,,,,,,,,,
,,,,,,,,,,,,,,,88965,001,2022-04-25_11h28.04.911,SPAMnetsValid,2021.1.4,Win32,119.9616123,,,,,,,,,,,,,,,,,,,,,,,,,,,,,,,,,,,,,,,,,,,,,,,,,,,,,,,,,,,,,,,,,ant eater,Animals,23,0,23,0,1,,,,,,,,,,,,,,,,,,
,,,,,,,,,,,,,,,88965,001,2022-04-25_11h28.04.911,SPAMnetsValid,2021.1.4,Win32,119.9616123,,,,,,,,,,,,,,,,,,,,,,,,,,,,,,,,,,,,,,,,,,,,,,,,,,,,,,,,,,,,,,,,,mongoose,Animals,24,0,24,0,1,,,,,,,,,,,,,,,,,,
,,,,,,,,,,,,,,,88965,001,2022-04-25_11h28.04.911,SPAMnetsValid,2021.1.4,Win32,119.9616123,,,,,,,,,,,,,,,,,,,,,,,,,,,,,,,,,,,,,,,,,,,,,,,,,,,,,,,,,,,,,,,,,snakes,Animals,25,0,25,0,1,,,,,,,,,,,,,,,,,,
,,,,,,,,,,,,,,,88965,001,2022-04-25_11h28.04.911,SPAMnetsValid,2021.1.4,Win32,119.9616123,,,,,,,,,,,,,,,,,,,,,,,,,,,,,,,,,,,,,,,,,,,,,,,,,,,,,,,,,,,,,,,,,stingray,Animals,26,0,26,0,1,,,,,,,,,,,,,,,,,,
,,,,,,,,,,,,,,,88965,001,2022-04-25_11h28.04.911,SPAMnetsValid,2021.1.4,Win32,119.9616123,,,,,,,,,,,,,,,,,,,,,,,,,,,,,,,,,,,,,,,,,,,,,,,,,,,,,,,,,,,,,,,,,whale,Animals,27,0,27,0,1,,,,,,,,,,,,,,,,,,
,,,,,,,,,,,,,,,88965,001,2022-04-25_11h28.04.911,SPAMnetsValid,2021.1.4,Win32,119.9616123,,,,,,,,,,,,,,,,,,,,,,,,,,,,,,,,,,,,,,,,,,,,,,,,,,,,,,,,,,,,,,,,,dolphins,Animals,28,0,28,0,1,,,,,,,,,,,,,,,,,,
,,,,,,,,,,,,,,,88965,001,2022-04-25_11h28.04.911,SPAMnetsValid,2021.1.4,Win32,119.9616123,,,,,,,,,,,,,,,,,,,,,,,,,,,,,,,,,,,,,,,,,,,,,,,,,,,,,,,,,,,,,,,,,raccoon,Animals,29,0,29,0,1,,,,,,,,,,,,,,,,,,
,,,,,,,,,,,,,,,88965,001,2022-04-25_11h28.04.911,SPAMnetsValid,2021.1.4,Win32,119.9616123,,,,,,,,,,,,,,,,,,,,,,,,,,,,,,,,,,,,,,,,,,,,,,,,,,,,,,,,,,,,,,,,,gopher,Animals,30,0,30,0,1,,,,,,,,,,,,,,,,,,
,,,,,,,,,,,,,,,88965,001,2022-04-25_11h28.04.911,SPAMnetsValid,2021.1.4,Win32,119.9616123,,,,,,,,,,,,,,,,,,,,,,,,,,,,,,,,,,,,,,,,,,,,,,,,,,,,,,,,,,,,,,,,,,,,,,,,0,0,0,0,1,Animals,,,,,,,,,,,,
,,,,,,,,,,,,,,,88965,001,2022-04-25_11h28.04.911,SPAMnetsValid,2021.1.4,Win32,119.9616123,,,,,,,,,,,,,,,,,,,,,,,,,,,,,,,,,,,,,,,,,,,,,,,,,,,,,,,,,,,,,,,,,,,,,,,,,,,,,,4,4.6438,0,0,0,0,1,"I enjoy concentrating on a fantasy or daydream and exploring all its possibilities, letting it grow and develop.",0,1,,
,,,,,,,,,,,,,,,88965,001,2022-04-25_11h28.04.911,SPAMnetsValid,2021.1.4,Win32,119.9616123,,,,,,,,,,,,,,,,,,,,,,,,,,,,,,,,,,,,,,,,,,,,,,,,,,,,,,,,,,,,,,,,,,,,,,,,,,,,,,5,2.5118,0,1,1,1,1,I think it's interesting to learn and develop new hobbies.,0,2,,
,,,,,,,,,,,,,,,88965,001,2022-04-25_11h28.04.911,SPAMnetsValid,2021.1.4,Win32,119.9616123,,,,,,,,,,,,,,,,,,,,,,,,,,,,,,,,,,,,,,,,,,,,,,,,,,,,,,,,,,,,,,,,,,,,,,,,,,,,,,4,1.8446,0,2,2,2,1,I am intrigued by the patterns I find in art and nature.,0,3,,
,,,,,,,,,,,,,,,88965,001,2022-04-25_11h28.04.911,SPAMnetsValid,2021.1.4,Win32,119.9616123,,,,,,,,,,,,,,,,,,,,,,,,,,,,,,,,,,,,,,,,,,,,,,,,,,,,,,,,,,,,,,,,,,,,,,,,,,,,,,1,9.5738,0,3,3,3,1,I believe letting students hear controversial speakers can only confuse and mislead them.,1,4,,
,,,,,,,,,,,,,,,88965,001,2022-04-25_11h28.04.911,SPAMnetsValid,2021.1.4,Win32,119.9616123,,,,,,,,,,,,,,,,,,,,,,,,,,,,,,,,,,,,,,,,,,,,,,,,,,,,,,,,,,,,,,,,,,,,,,,,,,,,,,2,4.5735,0,4,4,4,1,Poetry has little or no effect on me.,1,5,,
,,,,,,,,,,,,,,,88965,001,2022-04-25_11h28.04.911,SPAMnetsValid,2021.1.4,Win32,119.9616123,,,,,,,,,,,,,,,,,,,,,,,,,,,,,,,,,,,,,,,,,,,,,,,,,,,,,,,,,,,,,,,,,,,,,,,,,,,,,,2,5.5696,0,5,5,5,1,I would have difficulty just letting my mind wander without control or guidance.,1,6,,
,,,,,,,,,,,,,,,88965,001,2022-04-25_11h28.04.911,SPAMnetsValid,2021.1.4,Win32,119.9616123,,,,,,,,,,,,,,,,,,,,,,,,,,,,,,,,,,,,,,,,,,,,,,,,,,,,,,,,,,,,,,,,,,,,,,,,,,,,,,1,3.9742,0,6,6,6,1,I seldom notice the moods or feelings that different environments produce.,1,7,,
,,,,,,,,,,,,,,,88965,001,2022-04-25_11h28.04.911,SPAMnetsValid,2021.1.4,Win32,119.9616123,,,,,,,,,,,,,,,,,,,,,,,,,,,,,,,,,,,,,,,,,,,,,,,,,,,,,,,,,,,,,,,,,,,,,,,,,,,,,,5,1.9946,0,7,7,7,1,I experience a wide range of emotions or feelings.,0,8,,
,,,,,,,,,,,,,,,88965,001,2022-04-25_11h28.04.911,SPAMnetsValid,2021.1.4,Win32,119.9616123,,,,,,,,,,,,,,,,,,,,,,,,,,,,,,,,,,,,,,,,,,,,,,,,,,,,,,,,,,,,,,,,,,,,,,,,,,,,,,4,3.9534,0,8,8,8,1,"Sometimes when I am reading poetry or looking at a work of art, I feel a chill or wave of excitement.",0,9,,
,,,,,,,,,,,,,,,88965,001,2022-04-25_11h28.04.911,SPAMnetsValid,2021.1.4,Win32,119.9616123,,,,,,,,,,,,,,,,,,,,,,,,,,,,,,,,,,,,,,,,,,,,,,,,,,,,,,,,,,,,,,,,,,,,,,,,,,,,,,2,3.3368,0,9,9,9,1,I have little interest in speculating on the nature of the universe or the human condition.,1,10,,
,,,,,,,,,,,,,,,88965,001,2022-04-25_11h28.04.911,SPAMnetsValid,2021.1.4,Win32,119.9616123,,,,,,,,,,,,,,,,,,,,,,,,,,,,,,,,,,,,,,,,,,,,,,,,,,,,,,,,,,,,,,,,,,,,,,,,,,,,,,5,1.6947,0,10,10,10,1,I have a lot of intellectual curiosity.,0,11,,
,,,,,,,,,,,,,,,88965,001,2022-04-25_11h28.04.911,SPAMnetsValid,2021.1.4,Win32,119.9616123,,,,,,,,,,,,,,,,,,,,,,,,,,,,,,,,,,,,,,,,,,,,,,,,,,,,,,,,,,,,,,,,,,,,,,,,,,,,,,5,2.7616,0,11,11,11,1,I often enjoy playing with theories or abstract ideas.,0,12,,
,,,,,,,,,,,,,,,88965,001,2022-04-25_11h28.04.911,SPAMnetsValid,2021.1.4,Win32,119.9616123,,,,,,,,,,,,,,,,,,,,,,,,,,,,,,,,,,,,,,,,,,,,,,,,,,,,,,,,,,,,,,,,,,,,,,,,,,,,,,,,,,,,,,,,return,11.9122
