key_resp_3.keys,key_resp_3.rt,slider.response,slider.rt,rjt_rating,rjt_RT,trials_22.thisRepN,trials_22.thisTrialN,trials_22.thisN,trials_22.thisIndex,trials_22.ran,rjt_order,word1,word2,attention,participant,session,date,expName,psychopyVersion,OS,frameRate,trials_99.thisRepN,trials_99.thisTrialN,trials_99.thisN,trials_99.thisIndex,trials_99.ran,trials_5.thisRepN,trials_5.thisTrialN,trials_5.thisN,trials_5.thisIndex,trials_5.ran,repOne,repTwo,slider_2.response,slider_2.rt,trials_24.thisRepN,trials_24.thisTrialN,trials_24.thisN,trials_24.thisIndex,trials_24.ran,trials_4.thisRepN,trials_4.thisTrialN,trials_4.thisN,trials_4.thisIndex,trials_4.ran,slider_extend_2.response,slider_extend_2.rt,trials_6.thisRepN,trials_6.thisTrialN,trials_6.thisN,trials_6.thisIndex,trials_6.ran,vCue2,R1,R2,R3,R4,correct,sliderVocab.response,sliderVocab.rt,trials_7.thisRepN,trials_7.thisTrialN,trials_7.thisN,trials_7.thisIndex,trials_7.ran,VocabCue,VR1,VR2,VR3,VR4,VR5,VocabCorrect,AUT_resp,AUT_label,trials.thisRepN,trials.thisTrialN,trials.thisN,trials.thisIndex,trials.ran,trials_2.thisRepN,trials_2.thisTrialN,trials_2.thisN,trials_2.thisIndex,trials_2.ran,aut_prompt,VF_response,VF_tag,trials_16.thisRepN,trials_16.thisTrialN,trials_16.thisN,trials_16.thisIndex,trials_16.ran,trials_17.thisRepN,trials_17.thisTrialN,trials_17.thisN,trials_17.thisIndex,trials_17.ran,VFcond,open_slider.response,open_slider.rt,trials_3.thisRepN,trials_3.thisTrialN,trials_3.thisN,trials_3.thisIndex,trials_3.ran,OpenQ,Rev,OPEN_ORDER,key_resp_2.keys,key_resp_2.rt
return,105.3258,9,7.2377,9,7.2377,0,0,0,10,1,191,cake,cake,CHECK,89007,001,2022-04-23_21h11.36.534,SPAMnetsValid,2021.1.4,Win32,59.96641881,,,,,,,,,,,,,,,,,,,,,,,,,,,,,,,,,,,,,,,,,,,,,,,,,,,,,,,,,,,,,,,,,,,,,,,,,,,,,,,,,,,,,,,,,
,,9,2.5149,9,2.5149,0,1,1,76,1,36,broom,kitchen,,89007,001,2022-04-23_21h11.36.534,SPAMnetsValid,2021.1.4,Win32,59.96641881,,,,,,,,,,,,,,,,,,,,,,,,,,,,,,,,,,,,,,,,,,,,,,,,,,,,,,,,,,,,,,,,,,,,,,,,,,,,,,,,,,,,,,,,,
,,1,2.8527,1,2.8527,0,2,2,46,1,41,broom,cactus,,89007,001,2022-04-23_21h11.36.534,SPAMnetsValid,2021.1.4,Win32,59.96641881,,,,,,,,,,,,,,,,,,,,,,,,,,,,,,,,,,,,,,,,,,,,,,,,,,,,,,,,,,,,,,,,,,,,,,,,,,,,,,,,,,,,,,,,,
,,2,2.9281,2,2.9281,0,3,3,4,1,83,broom,carrot,,89007,001,2022-04-23_21h11.36.534,SPAMnetsValid,2021.1.4,Win32,59.96641881,,,,,,,,,,,,,,,,,,,,,,,,,,,,,,,,,,,,,,,,,,,,,,,,,,,,,,,,,,,,,,,,,,,,,,,,,,,,,,,,,,,,,,,,,
,,2,2.7885,2,2.7885,0,4,4,55,1,1,rose,yogurt,,89007,001,2022-04-23_21h11.36.534,SPAMnetsValid,2021.1.4,Win32,59.96641881,,,,,,,,,,,,,,,,,,,,,,,,,,,,,,,,,,,,,,,,,,,,,,,,,,,,,,,,,,,,,,,,,,,,,,,,,,,,,,,,,,,,,,,,,
,,6,2.31,6,2.31,0,5,5,86,1,51,onion,strawberry,,89007,001,2022-04-23_21h11.36.534,SPAMnetsValid,2021.1.4,Win32,59.96641881,,,,,,,,,,,,,,,,,,,,,,,,,,,,,,,,,,,,,,,,,,,,,,,,,,,,,,,,,,,,,,,,,,,,,,,,,,,,,,,,,,,,,,,,,
,,3,1.9609,3,1.9609,0,6,6,1,1,31,cactus,pretzel,,89007,001,2022-04-23_21h11.36.534,SPAMnetsValid,2021.1.4,Win32,59.96641881,,,,,,,,,,,,,,,,,,,,,,,,,,,,,,,,,,,,,,,,,,,,,,,,,,,,,,,,,,,,,,,,,,,,,,,,,,,,,,,,,,,,,,,,,
,,8,3.4562,8,3.4562,0,7,7,78,1,30,cookie,pretzel,,89007,001,2022-04-23_21h11.36.534,SPAMnetsValid,2021.1.4,Win32,59.96641881,,,,,,,,,,,,,,,,,,,,,,,,,,,,,,,,,,,,,,,,,,,,,,,,,,,,,,,,,,,,,,,,,,,,,,,,,,,,,,,,,,,,,,,,,
,,6,30.9122,6,30.9122,0,8,8,74,1,70,chocolate,onion,,89007,001,2022-04-23_21h11.36.534,SPAMnetsValid,2021.1.4,Win32,59.96641881,,,,,,,,,,,,,,,,,,,,,,,,,,,,,,,,,,,,,,,,,,,,,,,,,,,,,,,,,,,,,,,,,,,,,,,,,,,,,,,,,,,,,,,,,
,,3,1.6629,3,1.6629,0,9,9,81,1,60,cactus,onion,,89007,001,2022-04-23_21h11.36.534,SPAMnetsValid,2021.1.4,Win32,59.96641881,,,,,,,,,,,,,,,,,,,,,,,,,,,,,,,,,,,,,,,,,,,,,,,,,,,,,,,,,,,,,,,,,,,,,,,,,,,,,,,,,,,,,,,,,
,,3,6.8825,3,6.8825,0,10,10,45,1,10,flower,onion,,89007,001,2022-04-23_21h11.36.534,SPAMnetsValid,2021.1.4,Win32,59.96641881,,,,,,,,,,,,,,,,,,,,,,,,,,,,,,,,,,,,,,,,,,,,,,,,,,,,,,,,,,,,,,,,,,,,,,,,,,,,,,,,,,,,,,,,,
,,4,2.2453,4,2.2453,0,11,11,31,1,33,oven,yogurt,,89007,001,2022-04-23_21h11.36.534,SPAMnetsValid,2021.1.4,Win32,59.96641881,,,,,,,,,,,,,,,,,,,,,,,,,,,,,,,,,,,,,,,,,,,,,,,,,,,,,,,,,,,,,,,,,,,,,,,,,,,,,,,,,,,,,,,,,
,,5,4.5935,5,4.5935,0,12,12,67,1,54,chocolate,yogurt,,89007,001,2022-04-23_21h11.36.534,SPAMnetsValid,2021.1.4,Win32,59.96641881,,,,,,,,,,,,,,,,,,,,,,,,,,,,,,,,,,,,,,,,,,,,,,,,,,,,,,,,,,,,,,,,,,,,,,,,,,,,,,,,,,,,,,,,,
,,1,9.4558,1,9.4558,0,13,13,14,1,64,chocolate,garden,,89007,001,2022-04-23_21h11.36.534,SPAMnetsValid,2021.1.4,Win32,59.96641881,,,,,,,,,,,,,,,,,,,,,,,,,,,,,,,,,,,,,,,,,,,,,,,,,,,,,,,,,,,,,,,,,,,,,,,,,,,,,,,,,,,,,,,,,
,,3,2.568,3,2.568,0,14,14,49,1,57,flower,kitchen,,89007,001,2022-04-23_21h11.36.534,SPAMnetsValid,2021.1.4,Win32,59.96641881,,,,,,,,,,,,,,,,,,,,,,,,,,,,,,,,,,,,,,,,,,,,,,,,,,,,,,,,,,,,,,,,,,,,,,,,,,,,,,,,,,,,,,,,,
,,7,7.1318,7,7.1318,0,15,15,66,1,20,rose,tree,,89007,001,2022-04-23_21h11.36.534,SPAMnetsValid,2021.1.4,Win32,59.96641881,,,,,,,,,,,,,,,,,,,,,,,,,,,,,,,,,,,,,,,,,,,,,,,,,,,,,,,,,,,,,,,,,,,,,,,,,,,,,,,,,,,,,,,,,
,,6,2.4379,6,2.4379,0,16,16,35,1,55,tomato,tree,,89007,001,2022-04-23_21h11.36.534,SPAMnetsValid,2021.1.4,Win32,59.96641881,,,,,,,,,,,,,,,,,,,,,,,,,,,,,,,,,,,,,,,,,,,,,,,,,,,,,,,,,,,,,,,,,,,,,,,,,,,,,,,,,,,,,,,,,
,,1,2.1628,1,2.1628,0,17,17,0,1,53,garden,pretzel,,89007,001,2022-04-23_21h11.36.534,SPAMnetsValid,2021.1.4,Win32,59.96641881,,,,,,,,,,,,,,,,,,,,,,,,,,,,,,,,,,,,,,,,,,,,,,,,,,,,,,,,,,,,,,,,,,,,,,,,,,,,,,,,,,,,,,,,,
,,1,6.903,1,6.903,0,18,18,27,1,72,broom,onion,,89007,001,2022-04-23_21h11.36.534,SPAMnetsValid,2021.1.4,Win32,59.96641881,,,,,,,,,,,,,,,,,,,,,,,,,,,,,,,,,,,,,,,,,,,,,,,,,,,,,,,,,,,,,,,,,,,,,,,,,,,,,,,,,,,,,,,,,
,,1,2.8247,1,2.8247,0,19,19,61,1,71,broom,rose,,89007,001,2022-04-23_21h11.36.534,SPAMnetsValid,2021.1.4,Win32,59.96641881,,,,,,,,,,,,,,,,,,,,,,,,,,,,,,,,,,,,,,,,,,,,,,,,,,,,,,,,,,,,,,,,,,,,,,,,,,,,,,,,,,,,,,,,,
,,1,1.5765,1,1.5765,0,20,20,59,1,8,broom,melon,,89007,001,2022-04-23_21h11.36.534,SPAMnetsValid,2021.1.4,Win32,59.96641881,,,,,,,,,,,,,,,,,,,,,,,,,,,,,,,,,,,,,,,,,,,,,,,,,,,,,,,,,,,,,,,,,,,,,,,,,,,,,,,,,,,,,,,,,
,,7,4.5502,7,4.5502,0,21,21,2,1,22,kitchen,strawberry,,89007,001,2022-04-23_21h11.36.534,SPAMnetsValid,2021.1.4,Win32,59.96641881,,,,,,,,,,,,,,,,,,,,,,,,,,,,,,,,,,,,,,,,,,,,,,,,,,,,,,,,,,,,,,,,,,,,,,,,,,,,,,,,,,,,,,,,,
,,6,1.972,6,1.972,0,22,22,6,1,87,carrot,yogurt,,89007,001,2022-04-23_21h11.36.534,SPAMnetsValid,2021.1.4,Win32,59.96641881,,,,,,,,,,,,,,,,,,,,,,,,,,,,,,,,,,,,,,,,,,,,,,,,,,,,,,,,,,,,,,,,,,,,,,,,,,,,,,,,,,,,,,,,,
,,1,5.2595,1,5.2595,0,23,23,37,1,58,garden,oven,,89007,001,2022-04-23_21h11.36.534,SPAMnetsValid,2021.1.4,Win32,59.96641881,,,,,,,,,,,,,,,,,,,,,,,,,,,,,,,,,,,,,,,,,,,,,,,,,,,,,,,,,,,,,,,,,,,,,,,,,,,,,,,,,,,,,,,,,
,,1,3.6493,1,3.6493,0,24,24,43,1,11,refrigerator,tree,,89007,001,2022-04-23_21h11.36.534,SPAMnetsValid,2021.1.4,Win32,59.96641881,,,,,,,,,,,,,,,,,,,,,,,,,,,,,,,,,,,,,,,,,,,,,,,,,,,,,,,,,,,,,,,,,,,,,,,,,,,,,,,,,,,,,,,,,
,,9,4.517,9,4.517,0,25,25,44,1,25,carrot,onion,,89007,001,2022-04-23_21h11.36.534,SPAMnetsValid,2021.1.4,Win32,59.96641881,,,,,,,,,,,,,,,,,,,,,,,,,,,,,,,,,,,,,,,,,,,,,,,,,,,,,,,,,,,,,,,,,,,,,,,,,,,,,,,,,,,,,,,,,
,,5,2.7966,5,2.7966,0,26,26,73,1,50,carrot,rose,,89007,001,2022-04-23_21h11.36.534,SPAMnetsValid,2021.1.4,Win32,59.96641881,,,,,,,,,,,,,,,,,,,,,,,,,,,,,,,,,,,,,,,,,,,,,,,,,,,,,,,,,,,,,,,,,,,,,,,,,,,,,,,,,,,,,,,,,
,,9,8.0022,9,8.0022,0,27,27,80,1,61,strawberry,tomato,,89007,001,2022-04-23_21h11.36.534,SPAMnetsValid,2021.1.4,Win32,59.96641881,,,,,,,,,,,,,,,,,,,,,,,,,,,,,,,,,,,,,,,,,,,,,,,,,,,,,,,,,,,,,,,,,,,,,,,,,,,,,,,,,,,,,,,,,
,,4,2.2104,4,2.2104,0,28,28,13,1,26,tomato,yogurt,,89007,001,2022-04-23_21h11.36.534,SPAMnetsValid,2021.1.4,Win32,59.96641881,,,,,,,,,,,,,,,,,,,,,,,,,,,,,,,,,,,,,,,,,,,,,,,,,,,,,,,,,,,,,,,,,,,,,,,,,,,,,,,,,,,,,,,,,
,,9,3.0267,9,3.0267,0,29,29,82,1,93,kitchen,oven,,89007,001,2022-04-23_21h11.36.534,SPAMnetsValid,2021.1.4,Win32,59.96641881,,,,,,,,,,,,,,,,,,,,,,,,,,,,,,,,,,,,,,,,,,,,,,,,,,,,,,,,,,,,,,,,,,,,,,,,,,,,,,,,,,,,,,,,,
,,3,2.0117,3,2.0117,0,30,30,56,1,78,cookie,rose,,89007,001,2022-04-23_21h11.36.534,SPAMnetsValid,2021.1.4,Win32,59.96641881,,,,,,,,,,,,,,,,,,,,,,,,,,,,,,,,,,,,,,,,,,,,,,,,,,,,,,,,,,,,,,,,,,,,,,,,,,,,,,,,,,,,,,,,,
,,4,5.0758,4,5.0758,0,31,31,68,1,24,cookie,tomato,,89007,001,2022-04-23_21h11.36.534,SPAMnetsValid,2021.1.4,Win32,59.96641881,,,,,,,,,,,,,,,,,,,,,,,,,,,,,,,,,,,,,,,,,,,,,,,,,,,,,,,,,,,,,,,,,,,,,,,,,,,,,,,,,,,,,,,,,
,,2,6.1947,2,6.1947,0,32,32,29,1,42,garden,kitchen,,89007,001,2022-04-23_21h11.36.534,SPAMnetsValid,2021.1.4,Win32,59.96641881,,,,,,,,,,,,,,,,,,,,,,,,,,,,,,,,,,,,,,,,,,,,,,,,,,,,,,,,,,,,,,,,,,,,,,,,,,,,,,,,,,,,,,,,,
,,8,9.3662,8,9.3662,0,33,33,52,1,4,chocolate,pretzel,,89007,001,2022-04-23_21h11.36.534,SPAMnetsValid,2021.1.4,Win32,59.96641881,,,,,,,,,,,,,,,,,,,,,,,,,,,,,,,,,,,,,,,,,,,,,,,,,,,,,,,,,,,,,,,,,,,,,,,,,,,,,,,,,,,,,,,,,
,,3,19.9518,3,19.9518,0,34,34,57,1,62,kitchen,rose,,89007,001,2022-04-23_21h11.36.534,SPAMnetsValid,2021.1.4,Win32,59.96641881,,,,,,,,,,,,,,,,,,,,,,,,,,,,,,,,,,,,,,,,,,,,,,,,,,,,,,,,,,,,,,,,,,,,,,,,,,,,,,,,,,,,,,,,,
,,4,6.4192,4,6.4192,0,35,35,28,1,84,oven,tomato,,89007,001,2022-04-23_21h11.36.534,SPAMnetsValid,2021.1.4,Win32,59.96641881,,,,,,,,,,,,,,,,,,,,,,,,,,,,,,,,,,,,,,,,,,,,,,,,,,,,,,,,,,,,,,,,,,,,,,,,,,,,,,,,,,,,,,,,,
,,2,7.3729,2,7.3729,0,36,36,89,1,80,chocolate,tree,,89007,001,2022-04-23_21h11.36.534,SPAMnetsValid,2021.1.4,Win32,59.96641881,,,,,,,,,,,,,,,,,,,,,,,,,,,,,,,,,,,,,,,,,,,,,,,,,,,,,,,,,,,,,,,,,,,,,,,,,,,,,,,,,,,,,,,,,
,,6,1.9942,6,1.9942,0,37,37,90,1,95,broom,refrigerator,,89007,001,2022-04-23_21h11.36.534,SPAMnetsValid,2021.1.4,Win32,59.96641881,,,,,,,,,,,,,,,,,,,,,,,,,,,,,,,,,,,,,,,,,,,,,,,,,,,,,,,,,,,,,,,,,,,,,,,,,,,,,,,,,,,,,,,,,
,,2,2.4547,2,2.4547,0,38,38,16,1,14,broom,cookie,,89007,001,2022-04-23_21h11.36.534,SPAMnetsValid,2021.1.4,Win32,59.96641881,,,,,,,,,,,,,,,,,,,,,,,,,,,,,,,,,,,,,,,,,,,,,,,,,,,,,,,,,,,,,,,,,,,,,,,,,,,,,,,,,,,,,,,,,
,,3,2.5403,3,2.5403,0,39,39,72,1,59,rose,strawberry,,89007,001,2022-04-23_21h11.36.534,SPAMnetsValid,2021.1.4,Win32,59.96641881,,,,,,,,,,,,,,,,,,,,,,,,,,,,,,,,,,,,,,,,,,,,,,,,,,,,,,,,,,,,,,,,,,,,,,,,,,,,,,,,,,,,,,,,,
,,9,1.6135,9,1.6135,0,40,40,53,1,192,microwave,microwave,CHECK,89007,001,2022-04-23_21h11.36.534,SPAMnetsValid,2021.1.4,Win32,59.96641881,,,,,,,,,,,,,,,,,,,,,,,,,,,,,,,,,,,,,,,,,,,,,,,,,,,,,,,,,,,,,,,,,,,,,,,,,,,,,,,,,,,,,,,,,
,,6,44.107,6,44.107,0,41,41,21,1,56,cactus,tree,,89007,001,2022-04-23_21h11.36.534,SPAMnetsValid,2021.1.4,Win32,59.96641881,,,,,,,,,,,,,,,,,,,,,,,,,,,,,,,,,,,,,,,,,,,,,,,,,,,,,,,,,,,,,,,,,,,,,,,,,,,,,,,,,,,,,,,,,
,,5,2.6692,5,2.6692,0,42,42,83,1,6,garden,onion,,89007,001,2022-04-23_21h11.36.534,SPAMnetsValid,2021.1.4,Win32,59.96641881,,,,,,,,,,,,,,,,,,,,,,,,,,,,,,,,,,,,,,,,,,,,,,,,,,,,,,,,,,,,,,,,,,,,,,,,,,,,,,,,,,,,,,,,,
,,7,1.8633,7,1.8633,0,43,43,95,1,52,carrot,tomato,,89007,001,2022-04-23_21h11.36.534,SPAMnetsValid,2021.1.4,Win32,59.96641881,,,,,,,,,,,,,,,,,,,,,,,,,,,,,,,,,,,,,,,,,,,,,,,,,,,,,,,,,,,,,,,,,,,,,,,,,,,,,,,,,,,,,,,,,
,,2,2.9952,2,2.9952,0,44,44,23,1,65,broom,garden,,89007,001,2022-04-23_21h11.36.534,SPAMnetsValid,2021.1.4,Win32,59.96641881,,,,,,,,,,,,,,,,,,,,,,,,,,,,,,,,,,,,,,,,,,,,,,,,,,,,,,,,,,,,,,,,,,,,,,,,,,,,,,,,,,,,,,,,,
,,5,3.7484,5,3.7484,0,45,45,39,1,15,onion,oven,,89007,001,2022-04-23_21h11.36.534,SPAMnetsValid,2021.1.4,Win32,59.96641881,,,,,,,,,,,,,,,,,,,,,,,,,,,,,,,,,,,,,,,,,,,,,,,,,,,,,,,,,,,,,,,,,,,,,,,,,,,,,,,,,,,,,,,,,
,,7,3.8195,7,3.8195,0,46,46,24,1,17,carrot,melon,,89007,001,2022-04-23_21h11.36.534,SPAMnetsValid,2021.1.4,Win32,59.96641881,,,,,,,,,,,,,,,,,,,,,,,,,,,,,,,,,,,,,,,,,,,,,,,,,,,,,,,,,,,,,,,,,,,,,,,,,,,,,,,,,,,,,,,,,
,,2,1.5541,2,1.5541,0,47,47,88,1,92,broom,flower,,89007,001,2022-04-23_21h11.36.534,SPAMnetsValid,2021.1.4,Win32,59.96641881,,,,,,,,,,,,,,,,,,,,,,,,,,,,,,,,,,,,,,,,,,,,,,,,,,,,,,,,,,,,,,,,,,,,,,,,,,,,,,,,,,,,,,,,,
,,6,2.7573,6,2.7573,0,48,48,62,1,18,onion,refrigerator,,89007,001,2022-04-23_21h11.36.534,SPAMnetsValid,2021.1.4,Win32,59.96641881,,,,,,,,,,,,,,,,,,,,,,,,,,,,,,,,,,,,,,,,,,,,,,,,,,,,,,,,,,,,,,,,,,,,,,,,,,,,,,,,,,,,,,,,,
,,6,2.0617,6,2.0617,0,49,49,20,1,39,melon,pretzel,,89007,001,2022-04-23_21h11.36.534,SPAMnetsValid,2021.1.4,Win32,59.96641881,,,,,,,,,,,,,,,,,,,,,,,,,,,,,,,,,,,,,,,,,,,,,,,,,,,,,,,,,,,,,,,,,,,,,,,,,,,,,,,,,,,,,,,,,
,,1,3.5181,1,3.5181,0,50,50,18,1,85,cake,tree,,89007,001,2022-04-23_21h11.36.534,SPAMnetsValid,2021.1.4,Win32,59.96641881,,,,,,,,,,,,,,,,,,,,,,,,,,,,,,,,,,,,,,,,,,,,,,,,,,,,,,,,,,,,,,,,,,,,,,,,,,,,,,,,,,,,,,,,,
,,9,2.2358,9,2.2358,0,51,51,30,1,3,cake,oven,,89007,001,2022-04-23_21h11.36.534,SPAMnetsValid,2021.1.4,Win32,59.96641881,,,,,,,,,,,,,,,,,,,,,,,,,,,,,,,,,,,,,,,,,,,,,,,,,,,,,,,,,,,,,,,,,,,,,,,,,,,,,,,,,,,,,,,,,
,,4,2.683,4,2.683,0,52,52,7,1,34,melon,oven,,89007,001,2022-04-23_21h11.36.534,SPAMnetsValid,2021.1.4,Win32,59.96641881,,,,,,,,,,,,,,,,,,,,,,,,,,,,,,,,,,,,,,,,,,,,,,,,,,,,,,,,,,,,,,,,,,,,,,,,,,,,,,,,,,,,,,,,,
,,4,4.1749,4,4.1749,0,53,53,85,1,90,cactus,cake,,89007,001,2022-04-23_21h11.36.534,SPAMnetsValid,2021.1.4,Win32,59.96641881,,,,,,,,,,,,,,,,,,,,,,,,,,,,,,,,,,,,,,,,,,,,,,,,,,,,,,,,,,,,,,,,,,,,,,,,,,,,,,,,,,,,,,,,,
,,9,7.8928,9,7.8928,0,54,54,60,1,89,chocolate,rose,,89007,001,2022-04-23_21h11.36.534,SPAMnetsValid,2021.1.4,Win32,59.96641881,,,,,,,,,,,,,,,,,,,,,,,,,,,,,,,,,,,,,,,,,,,,,,,,,,,,,,,,,,,,,,,,,,,,,,,,,,,,,,,,,,,,,,,,,
,,3,2.3787,3,2.3787,0,55,55,79,1,86,oven,rose,,89007,001,2022-04-23_21h11.36.534,SPAMnetsValid,2021.1.4,Win32,59.96641881,,,,,,,,,,,,,,,,,,,,,,,,,,,,,,,,,,,,,,,,,,,,,,,,,,,,,,,,,,,,,,,,,,,,,,,,,,,,,,,,,,,,,,,,,
,,7,27.209,7,27.209,0,56,56,51,1,47,onion,tomato,,89007,001,2022-04-23_21h11.36.534,SPAMnetsValid,2021.1.4,Win32,59.96641881,,,,,,,,,,,,,,,,,,,,,,,,,,,,,,,,,,,,,,,,,,,,,,,,,,,,,,,,,,,,,,,,,,,,,,,,,,,,,,,,,,,,,,,,,
,,3,3.4948,3,3.4948,0,57,57,11,1,37,garden,refrigerator,,89007,001,2022-04-23_21h11.36.534,SPAMnetsValid,2021.1.4,Win32,59.96641881,,,,,,,,,,,,,,,,,,,,,,,,,,,,,,,,,,,,,,,,,,,,,,,,,,,,,,,,,,,,,,,,,,,,,,,,,,,,,,,,,,,,,,,,,
,,5,26.6374,5,26.6374,0,58,58,48,1,66,melon,yogurt,,89007,001,2022-04-23_21h11.36.534,SPAMnetsValid,2021.1.4,Win32,59.96641881,,,,,,,,,,,,,,,,,,,,,,,,,,,,,,,,,,,,,,,,,,,,,,,,,,,,,,,,,,,,,,,,,,,,,,,,,,,,,,,,,,,,,,,,,
,,3,1.4313,3,1.4313,0,59,59,40,1,74,broom,pretzel,,89007,001,2022-04-23_21h11.36.534,SPAMnetsValid,2021.1.4,Win32,59.96641881,,,,,,,,,,,,,,,,,,,,,,,,,,,,,,,,,,,,,,,,,,,,,,,,,,,,,,,,,,,,,,,,,,,,,,,,,,,,,,,,,,,,,,,,,
,,9,2.7209,9,2.7209,0,60,60,22,1,16,chocolate,flower,,89007,001,2022-04-23_21h11.36.534,SPAMnetsValid,2021.1.4,Win32,59.96641881,,,,,,,,,,,,,,,,,,,,,,,,,,,,,,,,,,,,,,,,,,,,,,,,,,,,,,,,,,,,,,,,,,,,,,,,,,,,,,,,,,,,,,,,,
,,4,2.3393,4,2.3393,0,61,61,34,1,29,chocolate,melon,,89007,001,2022-04-23_21h11.36.534,SPAMnetsValid,2021.1.4,Win32,59.96641881,,,,,,,,,,,,,,,,,,,,,,,,,,,,,,,,,,,,,,,,,,,,,,,,,,,,,,,,,,,,,,,,,,,,,,,,,,,,,,,,,,,,,,,,,
,,4,3.5321,4,3.5321,0,62,62,94,1,68,flower,tomato,,89007,001,2022-04-23_21h11.36.534,SPAMnetsValid,2021.1.4,Win32,59.96641881,,,,,,,,,,,,,,,,,,,,,,,,,,,,,,,,,,,,,,,,,,,,,,,,,,,,,,,,,,,,,,,,,,,,,,,,,,,,,,,,,,,,,,,,,
,,9,1.8376,9,1.8376,0,63,63,19,1,76,garden,rose,,89007,001,2022-04-23_21h11.36.534,SPAMnetsValid,2021.1.4,Win32,59.96641881,,,,,,,,,,,,,,,,,,,,,,,,,,,,,,,,,,,,,,,,,,,,,,,,,,,,,,,,,,,,,,,,,,,,,,,,,,,,,,,,,,,,,,,,,
,,3,2.1321,3,2.1321,0,64,64,8,1,43,chocolate,tomato,,89007,001,2022-04-23_21h11.36.534,SPAMnetsValid,2021.1.4,Win32,59.96641881,,,,,,,,,,,,,,,,,,,,,,,,,,,,,,,,,,,,,,,,,,,,,,,,,,,,,,,,,,,,,,,,,,,,,,,,,,,,,,,,,,,,,,,,,
,,9,1.2242,9,1.2242,0,65,65,87,1,79,garden,strawberry,,89007,001,2022-04-23_21h11.36.534,SPAMnetsValid,2021.1.4,Win32,59.96641881,,,,,,,,,,,,,,,,,,,,,,,,,,,,,,,,,,,,,,,,,,,,,,,,,,,,,,,,,,,,,,,,,,,,,,,,,,,,,,,,,,,,,,,,,
,,1,4.6074,1,4.6074,0,66,66,63,1,21,cake,onion,,89007,001,2022-04-23_21h11.36.534,SPAMnetsValid,2021.1.4,Win32,59.96641881,,,,,,,,,,,,,,,,,,,,,,,,,,,,,,,,,,,,,,,,,,,,,,,,,,,,,,,,,,,,,,,,,,,,,,,,,,,,,,,,,,,,,,,,,
,,1,4.8113,1,4.8113,0,67,67,47,1,73,broom,chocolate,,89007,001,2022-04-23_21h11.36.534,SPAMnetsValid,2021.1.4,Win32,59.96641881,,,,,,,,,,,,,,,,,,,,,,,,,,,,,,,,,,,,,,,,,,,,,,,,,,,,,,,,,,,,,,,,,,,,,,,,,,,,,,,,,,,,,,,,,
,,6,2.673,6,2.673,0,68,68,41,1,19,microwave,pretzel,,89007,001,2022-04-23_21h11.36.534,SPAMnetsValid,2021.1.4,Win32,59.96641881,,,,,,,,,,,,,,,,,,,,,,,,,,,,,,,,,,,,,,,,,,,,,,,,,,,,,,,,,,,,,,,,,,,,,,,,,,,,,,,,,,,,,,,,,
,,6,28.8364,6,28.8364,0,69,69,75,1,69,carrot,refrigerator,,89007,001,2022-04-23_21h11.36.534,SPAMnetsValid,2021.1.4,Win32,59.96641881,,,,,,,,,,,,,,,,,,,,,,,,,,,,,,,,,,,,,,,,,,,,,,,,,,,,,,,,,,,,,,,,,,,,,,,,,,,,,,,,,,,,,,,,,
,,8,21.1705,8,21.1705,0,70,70,36,1,12,cookie,yogurt,,89007,001,2022-04-23_21h11.36.534,SPAMnetsValid,2021.1.4,Win32,59.96641881,,,,,,,,,,,,,,,,,,,,,,,,,,,,,,,,,,,,,,,,,,,,,,,,,,,,,,,,,,,,,,,,,,,,,,,,,,,,,,,,,,,,,,,,,
,,6,2.8156,6,2.8156,0,71,71,38,1,88,cactus,melon,,89007,001,2022-04-23_21h11.36.534,SPAMnetsValid,2021.1.4,Win32,59.96641881,,,,,,,,,,,,,,,,,,,,,,,,,,,,,,,,,,,,,,,,,,,,,,,,,,,,,,,,,,,,,,,,,,,,,,,,,,,,,,,,,,,,,,,,,
,,4,3.2158,4,3.2158,0,72,72,54,1,28,cake,melon,,89007,001,2022-04-23_21h11.36.534,SPAMnetsValid,2021.1.4,Win32,59.96641881,,,,,,,,,,,,,,,,,,,,,,,,,,,,,,,,,,,,,,,,,,,,,,,,,,,,,,,,,,,,,,,,,,,,,,,,,,,,,,,,,,,,,,,,,
,,1,2.59,1,2.59,0,73,73,84,1,91,microwave,rose,,89007,001,2022-04-23_21h11.36.534,SPAMnetsValid,2021.1.4,Win32,59.96641881,,,,,,,,,,,,,,,,,,,,,,,,,,,,,,,,,,,,,,,,,,,,,,,,,,,,,,,,,,,,,,,,,,,,,,,,,,,,,,,,,,,,,,,,,
,,5,8.6812,5,8.6812,0,74,74,9,1,75,cookie,onion,,89007,001,2022-04-23_21h11.36.534,SPAMnetsValid,2021.1.4,Win32,59.96641881,,,,,,,,,,,,,,,,,,,,,,,,,,,,,,,,,,,,,,,,,,,,,,,,,,,,,,,,,,,,,,,,,,,,,,,,,,,,,,,,,,,,,,,,,
,,5,9.6955,5,9.6955,0,75,75,50,1,81,pretzel,yogurt,,89007,001,2022-04-23_21h11.36.534,SPAMnetsValid,2021.1.4,Win32,59.96641881,,,,,,,,,,,,,,,,,,,,,,,,,,,,,,,,,,,,,,,,,,,,,,,,,,,,,,,,,,,,,,,,,,,,,,,,,,,,,,,,,,,,,,,,,
,,9,3.2586,9,3.2586,0,76,76,58,1,94,kitchen,microwave,,89007,001,2022-04-23_21h11.36.534,SPAMnetsValid,2021.1.4,Win32,59.96641881,,,,,,,,,,,,,,,,,,,,,,,,,,,,,,,,,,,,,,,,,,,,,,,,,,,,,,,,,,,,,,,,,,,,,,,,,,,,,,,,,,,,,,,,,
,,2,2.0531,2,2.0531,0,77,77,69,1,45,onion,pretzel,,89007,001,2022-04-23_21h11.36.534,SPAMnetsValid,2021.1.4,Win32,59.96641881,,,,,,,,,,,,,,,,,,,,,,,,,,,,,,,,,,,,,,,,,,,,,,,,,,,,,,,,,,,,,,,,,,,,,,,,,,,,,,,,,,,,,,,,,
,,1,1.7727,1,1.7727,0,78,78,70,1,5,oven,tree,,89007,001,2022-04-23_21h11.36.534,SPAMnetsValid,2021.1.4,Win32,59.96641881,,,,,,,,,,,,,,,,,,,,,,,,,,,,,,,,,,,,,,,,,,,,,,,,,,,,,,,,,,,,,,,,,,,,,,,,,,,,,,,,,,,,,,,,,
,,9,1.4704,9,1.4704,0,79,79,64,1,9,kitchen,refrigerator,,89007,001,2022-04-23_21h11.36.534,SPAMnetsValid,2021.1.4,Win32,59.96641881,,,,,,,,,,,,,,,,,,,,,,,,,,,,,,,,,,,,,,,,,,,,,,,,,,,,,,,,,,,,,,,,,,,,,,,,,,,,,,,,,,,,,,,,,
,,1,12.9028,1,12.9028,0,80,80,17,1,27,cactus,cookie,,89007,001,2022-04-23_21h11.36.534,SPAMnetsValid,2021.1.4,Win32,59.96641881,,,,,,,,,,,,,,,,,,,,,,,,,,,,,,,,,,,,,,,,,,,,,,,,,,,,,,,,,,,,,,,,,,,,,,,,,,,,,,,,,,,,,,,,,
,,1,2.0226,1,2.0226,0,81,81,26,1,35,flower,pretzel,,89007,001,2022-04-23_21h11.36.534,SPAMnetsValid,2021.1.4,Win32,59.96641881,,,,,,,,,,,,,,,,,,,,,,,,,,,,,,,,,,,,,,,,,,,,,,,,,,,,,,,,,,,,,,,,,,,,,,,,,,,,,,,,,,,,,,,,,
,,1,1.507,1,1.507,0,82,82,12,1,67,flower,yogurt,,89007,001,2022-04-23_21h11.36.534,SPAMnetsValid,2021.1.4,Win32,59.96641881,,,,,,,,,,,,,,,,,,,,,,,,,,,,,,,,,,,,,,,,,,,,,,,,,,,,,,,,,,,,,,,,,,,,,,,,,,,,,,,,,,,,,,,,,
,,7,2.3793,7,2.3793,0,83,83,91,1,2,kitchen,onion,,89007,001,2022-04-23_21h11.36.534,SPAMnetsValid,2021.1.4,Win32,59.96641881,,,,,,,,,,,,,,,,,,,,,,,,,,,,,,,,,,,,,,,,,,,,,,,,,,,,,,,,,,,,,,,,,,,,,,,,,,,,,,,,,,,,,,,,,
,,1,1.9361,1,1.9361,0,84,84,92,1,44,cookie,melon,,89007,001,2022-04-23_21h11.36.534,SPAMnetsValid,2021.1.4,Win32,59.96641881,,,,,,,,,,,,,,,,,,,,,,,,,,,,,,,,,,,,,,,,,,,,,,,,,,,,,,,,,,,,,,,,,,,,,,,,,,,,,,,,,,,,,,,,,
,,7,9.0751,7,9.0751,0,85,85,3,1,49,flower,strawberry,,89007,001,2022-04-23_21h11.36.534,SPAMnetsValid,2021.1.4,Win32,59.96641881,,,,,,,,,,,,,,,,,,,,,,,,,,,,,,,,,,,,,,,,,,,,,,,,,,,,,,,,,,,,,,,,,,,,,,,,,,,,,,,,,,,,,,,,,
,,1,1.734,1,1.734,0,86,86,5,1,13,broom,yogurt,,89007,001,2022-04-23_21h11.36.534,SPAMnetsValid,2021.1.4,Win32,59.96641881,,,,,,,,,,,,,,,,,,,,,,,,,,,,,,,,,,,,,,,,,,,,,,,,,,,,,,,,,,,,,,,,,,,,,,,,,,,,,,,,,,,,,,,,,
,,1,3.6999,1,3.6999,0,87,87,25,1,23,flower,microwave,,89007,001,2022-04-23_21h11.36.534,SPAMnetsValid,2021.1.4,Win32,59.96641881,,,,,,,,,,,,,,,,,,,,,,,,,,,,,,,,,,,,,,,,,,,,,,,,,,,,,,,,,,,,,,,,,,,,,,,,,,,,,,,,,,,,,,,,,
,,3,2.7817,3,2.7817,0,88,88,33,1,32,cake,microwave,,89007,001,2022-04-23_21h11.36.534,SPAMnetsValid,2021.1.4,Win32,59.96641881,,,,,,,,,,,,,,,,,,,,,,,,,,,,,,,,,,,,,,,,,,,,,,,,,,,,,,,,,,,,,,,,,,,,,,,,,,,,,,,,,,,,,,,,,
,,1,3.0573,1,3.0573,0,89,89,65,1,46,garden,yogurt,,89007,001,2022-04-23_21h11.36.534,SPAMnetsValid,2021.1.4,Win32,59.96641881,,,,,,,,,,,,,,,,,,,,,,,,,,,,,,,,,,,,,,,,,,,,,,,,,,,,,,,,,,,,,,,,,,,,,,,,,,,,,,,,,,,,,,,,,
,,9,1.393,9,1.393,0,90,90,42,1,77,refrigerator,yogurt,,89007,001,2022-04-23_21h11.36.534,SPAMnetsValid,2021.1.4,Win32,59.96641881,,,,,,,,,,,,,,,,,,,,,,,,,,,,,,,,,,,,,,,,,,,,,,,,,,,,,,,,,,,,,,,,,,,,,,,,,,,,,,,,,,,,,,,,,
,,1,4.2381,1,4.2381,0,91,91,77,1,7,melon,tree,,89007,001,2022-04-23_21h11.36.534,SPAMnetsValid,2021.1.4,Win32,59.96641881,,,,,,,,,,,,,,,,,,,,,,,,,,,,,,,,,,,,,,,,,,,,,,,,,,,,,,,,,,,,,,,,,,,,,,,,,,,,,,,,,,,,,,,,,
,,9,2.2479,9,2.2479,0,92,92,93,1,63,cake,cookie,,89007,001,2022-04-23_21h11.36.534,SPAMnetsValid,2021.1.4,Win32,59.96641881,,,,,,,,,,,,,,,,,,,,,,,,,,,,,,,,,,,,,,,,,,,,,,,,,,,,,,,,,,,,,,,,,,,,,,,,,,,,,,,,,,,,,,,,,
,,9,1.1603,9,1.1603,0,93,93,96,1,82,cake,kitchen,,89007,001,2022-04-23_21h11.36.534,SPAMnetsValid,2021.1.4,Win32,59.96641881,,,,,,,,,,,,,,,,,,,,,,,,,,,,,,,,,,,,,,,,,,,,,,,,,,,,,,,,,,,,,,,,,,,,,,,,,,,,,,,,,,,,,,,,,
,,1,1.5719,1,1.5719,0,94,94,15,1,48,flower,oven,,89007,001,2022-04-23_21h11.36.534,SPAMnetsValid,2021.1.4,Win32,59.96641881,,,,,,,,,,,,,,,,,,,,,,,,,,,,,,,,,,,,,,,,,,,,,,,,,,,,,,,,,,,,,,,,,,,,,,,,,,,,,,,,,,,,,,,,,
,,1,2.4423,1,2.4423,0,95,95,32,1,40,broom,cake,,89007,001,2022-04-23_21h11.36.534,SPAMnetsValid,2021.1.4,Win32,59.96641881,,,,,,,,,,,,,,,,,,,,,,,,,,,,,,,,,,,,,,,,,,,,,,,,,,,,,,,,,,,,,,,,,,,,,,,,,,,,,,,,,,,,,,,,,
,,1,34.6305,1,34.6305,0,96,96,71,1,38,pretzel,refrigerator,,89007,001,2022-04-23_21h11.36.534,SPAMnetsValid,2021.1.4,Win32,59.96641881,,,,,,,,,,,,,,,,,,,,,,,,,,,,,,,,,,,,,,,,,,,,,,,,,,,,,,,,,,,,,,,,,,,,,,,,,,,,,,,,,,,,,,,,,
,,,,,,,,,,,,,,,89007,001,2022-04-23_21h11.36.534,SPAMnetsValid,2021.1.4,Win32,59.96641881,0,0,0,0,1,,,,,,,,,,,,,,,,,,,,,,,,,,,,,,,,,,,,,,,,,,,,,,,,,,,,,,,,,,,,,,,,,,,,,,,,,,,,,,,,,,,,
,,,,,,,,,,,,,,,89007,001,2022-04-23_21h11.36.534,SPAMnetsValid,2021.1.4,Win32,59.96641881,,,,,,0,0,0,0,1,1,0,,,,,,,,,,,,,,,,,,,,,,,,,,,,,,,,,,,,,,,,,,,,,,,,,,,,,,,,,,,,,,,,,,,,,,,,,,,,,
,,,,4,45.4345,,,,,,151,microwave,onion,,89007,001,2022-04-23_21h11.36.534,SPAMnetsValid,2021.1.4,Win32,59.96641881,,,,,,,,,,,,,4,45.4345,0,0,0,6,1,,,,,,,,,,,,,,,,,,,,,,,,,,,,,,,,,,,,,,,,,,,,,,,,,,,,,,,,,,,,,,,,,,,,,,
,,,,1,51.0234,,,,,,129,cactus,refrigerator,,89007,001,2022-04-23_21h11.36.534,SPAMnetsValid,2021.1.4,Win32,59.96641881,,,,,,,,,,,,,1,51.0234,0,1,1,3,1,,,,,,,,,,,,,,,,,,,,,,,,,,,,,,,,,,,,,,,,,,,,,,,,,,,,,,,,,,,,,,,,,,,,,,
,,,,3,2.701,,,,,,136,chocolate,microwave,,89007,001,2022-04-23_21h11.36.534,SPAMnetsValid,2021.1.4,Win32,59.96641881,,,,,,,,,,,,,3,2.701,0,2,2,96,1,,,,,,,,,,,,,,,,,,,,,,,,,,,,,,,,,,,,,,,,,,,,,,,,,,,,,,,,,,,,,,,,,,,,,,
,,,,9,1.9434,,,,,,154,strawberry,yogurt,,89007,001,2022-04-23_21h11.36.534,SPAMnetsValid,2021.1.4,Win32,59.96641881,,,,,,,,,,,,,9,1.9434,0,3,3,28,1,,,,,,,,,,,,,,,,,,,,,,,,,,,,,,,,,,,,,,,,,,,,,,,,,,,,,,,,,,,,,,,,,,,,,,
,,,,1,1.6766,,,,,,121,broom,microwave,,89007,001,2022-04-23_21h11.36.534,SPAMnetsValid,2021.1.4,Win32,59.96641881,,,,,,,,,,,,,1,1.6766,0,4,4,95,1,,,,,,,,,,,,,,,,,,,,,,,,,,,,,,,,,,,,,,,,,,,,,,,,,,,,,,,,,,,,,,,,,,,,,,
,,,,2,1.876,,,,,,148,flower,melon,,89007,001,2022-04-23_21h11.36.534,SPAMnetsValid,2021.1.4,Win32,59.96641881,,,,,,,,,,,,,2,1.876,0,5,5,23,1,,,,,,,,,,,,,,,,,,,,,,,,,,,,,,,,,,,,,,,,,,,,,,,,,,,,,,,,,,,,,,,,,,,,,,
,,,,1,9.8001,,,,,,182,flower,refrigerator,,89007,001,2022-04-23_21h11.36.534,SPAMnetsValid,2021.1.4,Win32,59.96641881,,,,,,,,,,,,,1,9.8001,0,6,6,32,1,,,,,,,,,,,,,,,,,,,,,,,,,,,,,,,,,,,,,,,,,,,,,,,,,,,,,,,,,,,,,,,,,,,,,,
,,,,3,4.5305,,,,,,141,melon,tomato,,89007,001,2022-04-23_21h11.36.534,SPAMnetsValid,2021.1.4,Win32,59.96641881,,,,,,,,,,,,,3,4.5305,0,7,7,70,1,,,,,,,,,,,,,,,,,,,,,,,,,,,,,,,,,,,,,,,,,,,,,,,,,,,,,,,,,,,,,,,,,,,,,,
,,,,2,5.2058,,,,,,134,carrot,flower,,89007,001,2022-04-23_21h11.36.534,SPAMnetsValid,2021.1.4,Win32,59.96641881,,,,,,,,,,,,,2,5.2058,0,8,8,93,1,,,,,,,,,,,,,,,,,,,,,,,,,,,,,,,,,,,,,,,,,,,,,,,,,,,,,,,,,,,,,,,,,,,,,,
,,,,8,3.2632,,,,,,101,cactus,kitchen,,89007,001,2022-04-23_21h11.36.534,SPAMnetsValid,2021.1.4,Win32,59.96641881,,,,,,,,,,,,,8,3.2632,0,9,9,54,1,,,,,,,,,,,,,,,,,,,,,,,,,,,,,,,,,,,,,,,,,,,,,,,,,,,,,,,,,,,,,,,,,,,,,,
,,,,5,8.8762,,,,,,102,chocolate,refrigerator,,89007,001,2022-04-23_21h11.36.534,SPAMnetsValid,2021.1.4,Win32,59.96641881,,,,,,,,,,,,,5,8.8762,0,10,10,76,1,,,,,,,,,,,,,,,,,,,,,,,,,,,,,,,,,,,,,,,,,,,,,,,,,,,,,,,,,,,,,,,,,,,,,,
,,,,5,77.8859,,,,,,155,carrot,cookie,,89007,001,2022-04-23_21h11.36.534,SPAMnetsValid,2021.1.4,Win32,59.96641881,,,,,,,,,,,,,5,77.8859,0,11,11,38,1,,,,,,,,,,,,,,,,,,,,,,,,,,,,,,,,,,,,,,,,,,,,,,,,,,,,,,,,,,,,,,,,,,,,,,
,,,,8,38.4943,,,,,,124,oven,refrigerator,,89007,001,2022-04-23_21h11.36.534,SPAMnetsValid,2021.1.4,Win32,59.96641881,,,,,,,,,,,,,8,38.4943,0,12,12,69,1,,,,,,,,,,,,,,,,,,,,,,,,,,,,,,,,,,,,,,,,,,,,,,,,,,,,,,,,,,,,,,,,,,,,,,
,,,,5,4.6653,,,,,,119,strawberry,tree,,89007,001,2022-04-23_21h11.36.534,SPAMnetsValid,2021.1.4,Win32,59.96641881,,,,,,,,,,,,,5,4.6653,0,13,13,18,1,,,,,,,,,,,,,,,,,,,,,,,,,,,,,,,,,,,,,,,,,,,,,,,,,,,,,,,,,,,,,,,,,,,,,,
,,,,1,1.7568,,,,,,137,microwave,tree,,89007,001,2022-04-23_21h11.36.534,SPAMnetsValid,2021.1.4,Win32,59.96641881,,,,,,,,,,,,,1,1.7568,0,14,14,63,1,,,,,,,,,,,,,,,,,,,,,,,,,,,,,,,,,,,,,,,,,,,,,,,,,,,,,,,,,,,,,,,,,,,,,,
,,,,2,4.6112,,,,,,111,carrot,microwave,,89007,001,2022-04-23_21h11.36.534,SPAMnetsValid,2021.1.4,Win32,59.96641881,,,,,,,,,,,,,2,4.6112,0,15,15,16,1,,,,,,,,,,,,,,,,,,,,,,,,,,,,,,,,,,,,,,,,,,,,,,,,,,,,,,,,,,,,,,,,,,,,,,
,,,,5,3.0907,,,,,,114,cookie,strawberry,,89007,001,2022-04-23_21h11.36.534,SPAMnetsValid,2021.1.4,Win32,59.96641881,,,,,,,,,,,,,5,3.0907,0,16,16,87,1,,,,,,,,,,,,,,,,,,,,,,,,,,,,,,,,,,,,,,,,,,,,,,,,,,,,,,,,,,,,,,,,,,,,,,
,,,,7,2.4692,,,,,,106,cake,strawberry,,89007,001,2022-04-23_21h11.36.534,SPAMnetsValid,2021.1.4,Win32,59.96641881,,,,,,,,,,,,,7,2.4692,0,17,17,0,1,,,,,,,,,,,,,,,,,,,,,,,,,,,,,,,,,,,,,,,,,,,,,,,,,,,,,,,,,,,,,,,,,,,,,,
,,,,6,3.3721,,,,,,166,cake,yogurt,,89007,001,2022-04-23_21h11.36.534,SPAMnetsValid,2021.1.4,Win32,59.96641881,,,,,,,,,,,,,6,3.3721,0,18,18,91,1,,,,,,,,,,,,,,,,,,,,,,,,,,,,,,,,,,,,,,,,,,,,,,,,,,,,,,,,,,,,,,,,,,,,,,
,,,,1,2.5074,,,,,,128,melon,microwave,,89007,001,2022-04-23_21h11.36.534,SPAMnetsValid,2021.1.4,Win32,59.96641881,,,,,,,,,,,,,1,2.5074,0,19,19,74,1,,,,,,,,,,,,,,,,,,,,,,,,,,,,,,,,,,,,,,,,,,,,,,,,,,,,,,,,,,,,,,,,,,,,,,
,,,,3,11.3556,,,,,,156,melon,rose,,89007,001,2022-04-23_21h11.36.534,SPAMnetsValid,2021.1.4,Win32,59.96641881,,,,,,,,,,,,,3,11.3556,0,20,20,31,1,,,,,,,,,,,,,,,,,,,,,,,,,,,,,,,,,,,,,,,,,,,,,,,,,,,,,,,,,,,,,,,,,,,,,,
,,,,2,16.9337,,,,,,190,microwave,strawberry,,89007,001,2022-04-23_21h11.36.534,SPAMnetsValid,2021.1.4,Win32,59.96641881,,,,,,,,,,,,,2,16.9337,0,21,21,90,1,,,,,,,,,,,,,,,,,,,,,,,,,,,,,,,,,,,,,,,,,,,,,,,,,,,,,,,,,,,,,,,,,,,,,,
,,,,1,3.694,,,,,,109,broom,strawberry,,89007,001,2022-04-23_21h11.36.534,SPAMnetsValid,2021.1.4,Win32,59.96641881,,,,,,,,,,,,,1,3.694,0,22,22,4,1,,,,,,,,,,,,,,,,,,,,,,,,,,,,,,,,,,,,,,,,,,,,,,,,,,,,,,,,,,,,,,,,,,,,,,
,,,,7,3.461,,,,,,161,kitchen,pretzel,,89007,001,2022-04-23_21h11.36.534,SPAMnetsValid,2021.1.4,Win32,59.96641881,,,,,,,,,,,,,7,3.461,0,23,23,36,1,,,,,,,,,,,,,,,,,,,,,,,,,,,,,,,,,,,,,,,,,,,,,,,,,,,,,,,,,,,,,,,,,,,,,,
,,,,9,2.572,,,,,,145,cactus,yogurt,,89007,001,2022-04-23_21h11.36.534,SPAMnetsValid,2021.1.4,Win32,59.96641881,,,,,,,,,,,,,9,2.572,0,24,24,15,1,,,,,,,,,,,,,,,,,,,,,,,,,,,,,,,,,,,,,,,,,,,,,,,,,,,,,,,,,,,,,,,,,,,,,,
,,,,1,13.115,,,,,,157,refrigerator,rose,,89007,001,2022-04-23_21h11.36.534,SPAMnetsValid,2021.1.4,Win32,59.96641881,,,,,,,,,,,,,1,13.115,0,25,25,64,1,,,,,,,,,,,,,,,,,,,,,,,,,,,,,,,,,,,,,,,,,,,,,,,,,,,,,,,,,,,,,,,,,,,,,,
,,,,6,2.652,,,,,,125,carrot,tree,,89007,001,2022-04-23_21h11.36.534,SPAMnetsValid,2021.1.4,Win32,59.96641881,,,,,,,,,,,,,6,2.652,0,26,26,30,1,,,,,,,,,,,,,,,,,,,,,,,,,,,,,,,,,,,,,,,,,,,,,,,,,,,,,,,,,,,,,,,,,,,,,,
,,,,9,7.484,,,,,,120,microwave,oven,,89007,001,2022-04-23_21h11.36.534,SPAMnetsValid,2021.1.4,Win32,59.96641881,,,,,,,,,,,,,9,7.484,0,27,27,14,1,,,,,,,,,,,,,,,,,,,,,,,,,,,,,,,,,,,,,,,,,,,,,,,,,,,,,,,,,,,,,,,,,,,,,,
,,,,2,16.0605,,,,,,183,cake,rose,,89007,001,2022-04-23_21h11.36.534,SPAMnetsValid,2021.1.4,Win32,59.96641881,,,,,,,,,,,,,2,16.0605,0,28,28,19,1,,,,,,,,,,,,,,,,,,,,,,,,,,,,,,,,,,,,,,,,,,,,,,,,,,,,,,,,,,,,,,,,,,,,,,
,,,,8,8.9578,,,,,,160,cookie,kitchen,,89007,001,2022-04-23_21h11.36.534,SPAMnetsValid,2021.1.4,Win32,59.96641881,,,,,,,,,,,,,8,8.9578,0,29,29,65,1,,,,,,,,,,,,,,,,,,,,,,,,,,,,,,,,,,,,,,,,,,,,,,,,,,,,,,,,,,,,,,,,,,,,,,
,,,,1,1.6487,,,,,,164,cookie,garden,,89007,001,2022-04-23_21h11.36.534,SPAMnetsValid,2021.1.4,Win32,59.96641881,,,,,,,,,,,,,1,1.6487,0,30,30,59,1,,,,,,,,,,,,,,,,,,,,,,,,,,,,,,,,,,,,,,,,,,,,,,,,,,,,,,,,,,,,,,,,,,,,,,
,,,,7,2.9762,,,,,,147,cake,refrigerator,,89007,001,2022-04-23_21h11.36.534,SPAMnetsValid,2021.1.4,Win32,59.96641881,,,,,,,,,,,,,7,2.9762,0,31,31,35,1,,,,,,,,,,,,,,,,,,,,,,,,,,,,,,,,,,,,,,,,,,,,,,,,,,,,,,,,,,,,,,,,,,,,,,
,,,,7,2.85,,,,,,107,rose,tomato,,89007,001,2022-04-23_21h11.36.534,SPAMnetsValid,2021.1.4,Win32,59.96641881,,,,,,,,,,,,,7,2.85,0,32,32,26,1,,,,,,,,,,,,,,,,,,,,,,,,,,,,,,,,,,,,,,,,,,,,,,,,,,,,,,,,,,,,,,,,,,,,,,
,,,,6,3.1502,,,,,,176,cactus,tomato,,89007,001,2022-04-23_21h11.36.534,SPAMnetsValid,2021.1.4,Win32,59.96641881,,,,,,,,,,,,,6,3.1502,0,33,33,9,1,,,,,,,,,,,,,,,,,,,,,,,,,,,,,,,,,,,,,,,,,,,,,,,,,,,,,,,,,,,,,,,,,,,,,,
,,,,9,1.3569,,,,,,173,kitchen,tomato,,89007,001,2022-04-23_21h11.36.534,SPAMnetsValid,2021.1.4,Win32,59.96641881,,,,,,,,,,,,,9,1.3569,0,34,34,1,1,,,,,,,,,,,,,,,,,,,,,,,,,,,,,,,,,,,,,,,,,,,,,,,,,,,,,,,,,,,,,,,,,,,,,,
,,,,9,1.9219,,,,,,122,flower,garden,,89007,001,2022-04-23_21h11.36.534,SPAMnetsValid,2021.1.4,Win32,59.96641881,,,,,,,,,,,,,9,1.9219,0,35,35,60,1,,,,,,,,,,,,,,,,,,,,,,,,,,,,,,,,,,,,,,,,,,,,,,,,,,,,,,,,,,,,,,,,,,,,,,
,,,,5,2.4695,,,,,,135,carrot,oven,,89007,001,2022-04-23_21h11.36.534,SPAMnetsValid,2021.1.4,Win32,59.96641881,,,,,,,,,,,,,5,2.4695,0,36,36,73,1,,,,,,,,,,,,,,,,,,,,,,,,,,,,,,,,,,,,,,,,,,,,,,,,,,,,,,,,,,,,,,,,,,,,,,
,,,,6,2.3386,,,,,,152,cactus,strawberry,,89007,001,2022-04-23_21h11.36.534,SPAMnetsValid,2021.1.4,Win32,59.96641881,,,,,,,,,,,,,6,2.3386,0,37,37,49,1,,,,,,,,,,,,,,,,,,,,,,,,,,,,,,,,,,,,,,,,,,,,,,,,,,,,,,,,,,,,,,,,,,,,,,
,,,,4,1.6069,,,,,,99,garden,melon,,89007,001,2022-04-23_21h11.36.534,SPAMnetsValid,2021.1.4,Win32,59.96641881,,,,,,,,,,,,,4,1.6069,0,38,38,17,1,,,,,,,,,,,,,,,,,,,,,,,,,,,,,,,,,,,,,,,,,,,,,,,,,,,,,,,,,,,,,,,,,,,,,,
,,,,9,1.3741,,,,,,158,cookie,oven,,89007,001,2022-04-23_21h11.36.534,SPAMnetsValid,2021.1.4,Win32,59.96641881,,,,,,,,,,,,,9,1.3741,0,39,39,27,1,,,,,,,,,,,,,,,,,,,,,,,,,,,,,,,,,,,,,,,,,,,,,,,,,,,,,,,,,,,,,,,,,,,,,,
,,,,6,2.9733,,,,,,163,melon,refrigerator,,89007,001,2022-04-23_21h11.36.534,SPAMnetsValid,2021.1.4,Win32,59.96641881,,,,,,,,,,,,,6,2.9733,0,40,40,29,1,,,,,,,,,,,,,,,,,,,,,,,,,,,,,,,,,,,,,,,,,,,,,,,,,,,,,,,,,,,,,,,,,,,,,,
,,,,3,2.1896,,,,,,127,cactus,chocolate,,89007,001,2022-04-23_21h11.36.534,SPAMnetsValid,2021.1.4,Win32,59.96641881,,,,,,,,,,,,,3,2.1896,0,41,41,57,1,,,,,,,,,,,,,,,,,,,,,,,,,,,,,,,,,,,,,,,,,,,,,,,,,,,,,,,,,,,,,,,,,,,,,,
,,,,6,1.268,,,,,,174,cake,pretzel,,89007,001,2022-04-23_21h11.36.534,SPAMnetsValid,2021.1.4,Win32,59.96641881,,,,,,,,,,,,,6,1.268,0,42,42,2,1,,,,,,,,,,,,,,,,,,,,,,,,,,,,,,,,,,,,,,,,,,,,,,,,,,,,,,,,,,,,,,,,,,,,,,
,,,,4,2.4485,,,,,,117,melon,strawberry,,89007,001,2022-04-23_21h11.36.534,SPAMnetsValid,2021.1.4,Win32,59.96641881,,,,,,,,,,,,,4,2.4485,0,43,43,11,1,,,,,,,,,,,,,,,,,,,,,,,,,,,,,,,,,,,,,,,,,,,,,,,,,,,,,,,,,,,,,,,,,,,,,,
,,,,9,1.4503,,,,,,150,microwave,refrigerator,,89007,001,2022-04-23_21h11.36.534,SPAMnetsValid,2021.1.4,Win32,59.96641881,,,,,,,,,,,,,9,1.4503,0,44,44,66,1,,,,,,,,,,,,,,,,,,,,,,,,,,,,,,,,,,,,,,,,,,,,,,,,,,,,,,,,,,,,,,,,,,,,,,
,,,,7,2.8093,,,,,,188,flower,tree,,89007,001,2022-04-23_21h11.36.534,SPAMnetsValid,2021.1.4,Win32,59.96641881,,,,,,,,,,,,,7,2.8093,0,45,45,7,1,,,,,,,,,,,,,,,,,,,,,,,,,,,,,,,,,,,,,,,,,,,,,,,,,,,,,,,,,,,,,,,,,,,,,,
,,,,9,1.5795,,,,,,194,cactus,cactus,CHECK,89007,001,2022-04-23_21h11.36.534,SPAMnetsValid,2021.1.4,Win32,59.96641881,,,,,,,,,,,,,9,1.5795,0,46,46,25,1,,,,,,,,,,,,,,,,,,,,,,,,,,,,,,,,,,,,,,,,,,,,,,,,,,,,,,,,,,,,,,,,,,,,,,
,,,,3,7.7826,,,,,,123,cookie,tree,,89007,001,2022-04-23_21h11.36.534,SPAMnetsValid,2021.1.4,Win32,59.96641881,,,,,,,,,,,,,3,7.7826,0,47,47,46,1,,,,,,,,,,,,,,,,,,,,,,,,,,,,,,,,,,,,,,,,,,,,,,,,,,,,,,,,,,,,,,,,,,,,,,
,,,,7,4.2019,,,,,,170,cookie,microwave,,89007,001,2022-04-23_21h11.36.534,SPAMnetsValid,2021.1.4,Win32,59.96641881,,,,,,,,,,,,,7,4.2019,0,48,48,92,1,,,,,,,,,,,,,,,,,,,,,,,,,,,,,,,,,,,,,,,,,,,,,,,,,,,,,,,,,,,,,,,,,,,,,,
,,,,1,3.9884,,,,,,144,cake,garden,,89007,001,2022-04-23_21h11.36.534,SPAMnetsValid,2021.1.4,Win32,59.96641881,,,,,,,,,,,,,1,3.9884,0,49,49,58,1,,,,,,,,,,,,,,,,,,,,,,,,,,,,,,,,,,,,,,,,,,,,,,,,,,,,,,,,,,,,,,,,,,,,,,
,,,,3,6.0548,,,,,,115,refrigerator,tomato,,89007,001,2022-04-23_21h11.36.534,SPAMnetsValid,2021.1.4,Win32,59.96641881,,,,,,,,,,,,,3,6.0548,0,50,50,85,1,,,,,,,,,,,,,,,,,,,,,,,,,,,,,,,,,,,,,,,,,,,,,,,,,,,,,,,,,,,,,,,,,,,,,,
,,,,4,137.2605,,,,,,108,carrot,chocolate,,89007,001,2022-04-23_21h11.36.534,SPAMnetsValid,2021.1.4,Win32,59.96641881,,,,,,,,,,,,,4,137.2605,0,51,51,5,1,,,,,,,,,,,,,,,,,,,,,,,,,,,,,,,,,,,,,,,,,,,,,,,,,,,,,,,,,,,,,,,,,,,,,,
,,,,3,1.8058,,,,,,149,broom,tomato,,89007,001,2022-04-23_21h11.36.534,SPAMnetsValid,2021.1.4,Win32,59.96641881,,,,,,,,,,,,,3,1.8058,0,52,52,20,1,,,,,,,,,,,,,,,,,,,,,,,,,,,,,,,,,,,,,,,,,,,,,,,,,,,,,,,,,,,,,,,,,,,,,,
,,,,5,7.0092,,,,,,98,pretzel,strawberry,,89007,001,2022-04-23_21h11.36.534,SPAMnetsValid,2021.1.4,Win32,59.96641881,,,,,,,,,,,,,5,7.0092,0,53,53,82,1,,,,,,,,,,,,,,,,,,,,,,,,,,,,,,,,,,,,,,,,,,,,,,,,,,,,,,,,,,,,,,,,,,,,,,
,,,,4,1.721,,,,,,143,pretzel,rose,,89007,001,2022-04-23_21h11.36.534,SPAMnetsValid,2021.1.4,Win32,59.96641881,,,,,,,,,,,,,4,1.721,0,54,54,55,1,,,,,,,,,,,,,,,,,,,,,,,,,,,,,,,,,,,,,,,,,,,,,,,,,,,,,,,,,,,,,,,,,,,,,,
,,,,8,62.2015,,,,,,167,carrot,garden,,89007,001,2022-04-23_21h11.36.534,SPAMnetsValid,2021.1.4,Win32,59.96641881,,,,,,,,,,,,,8,62.2015,0,55,55,47,1,,,,,,,,,,,,,,,,,,,,,,,,,,,,,,,,,,,,,,,,,,,,,,,,,,,,,,,,,,,,,,,,,,,,,,
,,,,1,5.8744,,,,,,104,garden,microwave,,89007,001,2022-04-23_21h11.36.534,SPAMnetsValid,2021.1.4,Win32,59.96641881,,,,,,,,,,,,,1,5.8744,0,56,56,81,1,,,,,,,,,,,,,,,,,,,,,,,,,,,,,,,,,,,,,,,,,,,,,,,,,,,,,,,,,,,,,,,,,,,,,,
,,,,3,2.4573,,,,,,96,oven,strawberry,,89007,001,2022-04-23_21h11.36.534,SPAMnetsValid,2021.1.4,Win32,59.96641881,,,,,,,,,,,,,3,2.4573,0,57,57,67,1,,,,,,,,,,,,,,,,,,,,,,,,,,,,,,,,,,,,,,,,,,,,,,,,,,,,,,,,,,,,,,,,,,,,,,
,,,,9,7.2251,,,,,,138,flower,rose,,89007,001,2022-04-23_21h11.36.534,SPAMnetsValid,2021.1.4,Win32,59.96641881,,,,,,,,,,,,,9,7.2251,0,58,58,61,1,,,,,,,,,,,,,,,,,,,,,,,,,,,,,,,,,,,,,,,,,,,,,,,,,,,,,,,,,,,,,,,,,,,,,,
,,,,8,1.6537,,,,,,168,cactus,flower,,89007,001,2022-04-23_21h11.36.534,SPAMnetsValid,2021.1.4,Win32,59.96641881,,,,,,,,,,,,,8,1.6537,0,59,59,51,1,,,,,,,,,,,,,,,,,,,,,,,,,,,,,,,,,,,,,,,,,,,,,,,,,,,,,,,,,,,,,,,,,,,,,,
,,,,7,6.3085,,,,,,184,oven,pretzel,,89007,001,2022-04-23_21h11.36.534,SPAMnetsValid,2021.1.4,Win32,59.96641881,,,,,,,,,,,,,7,6.3085,0,60,60,42,1,,,,,,,,,,,,,,,,,,,,,,,,,,,,,,,,,,,,,,,,,,,,,,,,,,,,,,,,,,,,,,,,,,,,,,
,,,,9,1.2009,,,,,,193,melon,melon,CHECK,89007,001,2022-04-23_21h11.36.534,SPAMnetsValid,2021.1.4,Win32,59.96641881,,,,,,,,,,,,,9,1.2009,0,61,61,86,1,,,,,,,,,,,,,,,,,,,,,,,,,,,,,,,,,,,,,,,,,,,,,,,,,,,,,,,,,,,,,,,,,,,,,,
,,,,6,2.7247,,,,,,178,cactus,carrot,,89007,001,2022-04-23_21h11.36.534,SPAMnetsValid,2021.1.4,Win32,59.96641881,,,,,,,,,,,,,6,2.7247,0,62,62,75,1,,,,,,,,,,,,,,,,,,,,,,,,,,,,,,,,,,,,,,,,,,,,,,,,,,,,,,,,,,,,,,,,,,,,,,
,,,,1,2.5713,,,,,,169,onion,yogurt,,89007,001,2022-04-23_21h11.36.534,SPAMnetsValid,2021.1.4,Win32,59.96641881,,,,,,,,,,,,,1,2.5713,0,63,63,24,1,,,,,,,,,,,,,,,,,,,,,,,,,,,,,,,,,,,,,,,,,,,,,,,,,,,,,,,,,,,,,,,,,,,,,,
,,,,6,2.2114,,,,,,113,refrigerator,strawberry,,89007,001,2022-04-23_21h11.36.534,SPAMnetsValid,2021.1.4,Win32,59.96641881,,,,,,,,,,,,,6,2.2114,0,64,64,56,1,,,,,,,,,,,,,,,,,,,,,,,,,,,,,,,,,,,,,,,,,,,,,,,,,,,,,,,,,,,,,,,,,,,,,,
,,,,9,1.668,,,,,,100,garden,tomato,,89007,001,2022-04-23_21h11.36.534,SPAMnetsValid,2021.1.4,Win32,59.96641881,,,,,,,,,,,,,9,1.668,0,65,65,83,1,,,,,,,,,,,,,,,,,,,,,,,,,,,,,,,,,,,,,,,,,,,,,,,,,,,,,,,,,,,,,,,,,,,,,,
,,,,1,3.6311,,,,,,130,microwave,yogurt,,89007,001,2022-04-23_21h11.36.534,SPAMnetsValid,2021.1.4,Win32,59.96641881,,,,,,,,,,,,,1,3.6311,0,66,66,84,1,,,,,,,,,,,,,,,,,,,,,,,,,,,,,,,,,,,,,,,,,,,,,,,,,,,,,,,,,,,,,,,,,,,,,,
,,,,9,4.0738,,,,,,181,carrot,kitchen,,89007,001,2022-04-23_21h11.36.534,SPAMnetsValid,2021.1.4,Win32,59.96641881,,,,,,,,,,,,,9,4.0738,0,67,67,72,1,,,,,,,,,,,,,,,,,,,,,,,,,,,,,,,,,,,,,,,,,,,,,,,,,,,,,,,,,,,,,,,,,,,,,,
,,,,1,1.0899,,,,,,132,broom,tree,,89007,001,2022-04-23_21h11.36.534,SPAMnetsValid,2021.1.4,Win32,59.96641881,,,,,,,,,,,,,1,1.0899,0,68,68,78,1,,,,,,,,,,,,,,,,,,,,,,,,,,,,,,,,,,,,,,,,,,,,,,,,,,,,,,,,,,,,,,,,,,,,,,
,,,,9,7.7691,,,,,,177,chocolate,strawberry,,89007,001,2022-04-23_21h11.36.534,SPAMnetsValid,2021.1.4,Win32,59.96641881,,,,,,,,,,,,,9,7.7691,0,69,69,53,1,,,,,,,,,,,,,,,,,,,,,,,,,,,,,,,,,,,,,,,,,,,,,,,,,,,,,,,,,,,,,,,,,,,,,,
,,,,1,5.3497,,,,,,146,pretzel,tree,,89007,001,2022-04-23_21h11.36.534,SPAMnetsValid,2021.1.4,Win32,59.96641881,,,,,,,,,,,,,1,5.3497,0,70,70,80,1,,,,,,,,,,,,,,,,,,,,,,,,,,,,,,,,,,,,,,,,,,,,,,,,,,,,,,,,,,,,,,,,,,,,,,
,,,,1,1.7733,,,,,,105,cactus,oven,,89007,001,2022-04-23_21h11.36.534,SPAMnetsValid,2021.1.4,Win32,59.96641881,,,,,,,,,,,,,1,1.7733,0,71,71,13,1,,,,,,,,,,,,,,,,,,,,,,,,,,,,,,,,,,,,,,,,,,,,,,,,,,,,,,,,,,,,,,,,,,,,,,
,,,,1,2.2769,,,,,,133,cake,flower,,89007,001,2022-04-23_21h11.36.534,SPAMnetsValid,2021.1.4,Win32,59.96641881,,,,,,,,,,,,,1,2.2769,0,72,72,94,1,,,,,,,,,,,,,,,,,,,,,,,,,,,,,,,,,,,,,,,,,,,,,,,,,,,,,,,,,,,,,,,,,,,,,,
,,,,5,3.6692,,,,,,179,broom,oven,,89007,001,2022-04-23_21h11.36.534,SPAMnetsValid,2021.1.4,Win32,59.96641881,,,,,,,,,,,,,5,3.6692,0,73,73,45,1,,,,,,,,,,,,,,,,,,,,,,,,,,,,,,,,,,,,,,,,,,,,,,,,,,,,,,,,,,,,,,,,,,,,,,
,,,,1,2.0602,,,,,,159,cookie,flower,,89007,001,2022-04-23_21h11.36.534,SPAMnetsValid,2021.1.4,Win32,59.96641881,,,,,,,,,,,,,1,2.0602,0,74,74,21,1,,,,,,,,,,,,,,,,,,,,,,,,,,,,,,,,,,,,,,,,,,,,,,,,,,,,,,,,,,,,,,,,,,,,,,
,,,,7,2.0236,,,,,,97,chocolate,kitchen,,89007,001,2022-04-23_21h11.36.534,SPAMnetsValid,2021.1.4,Win32,59.96641881,,,,,,,,,,,,,7,2.0236,0,75,75,8,1,,,,,,,,,,,,,,,,,,,,,,,,,,,,,,,,,,,,,,,,,,,,,,,,,,,,,,,,,,,,,,,,,,,,,,
,,,,4,2.1167,,,,,,103,pretzel,tomato,,89007,001,2022-04-23_21h11.36.534,SPAMnetsValid,2021.1.4,Win32,59.96641881,,,,,,,,,,,,,4,2.1167,0,76,76,79,1,,,,,,,,,,,,,,,,,,,,,,,,,,,,,,,,,,,,,,,,,,,,,,,,,,,,,,,,,,,,,,,,,,,,,,
,,,,3,2.313,,,,,,162,microwave,tomato,,89007,001,2022-04-23_21h11.36.534,SPAMnetsValid,2021.1.4,Win32,59.96641881,,,,,,,,,,,,,3,2.313,0,77,77,12,1,,,,,,,,,,,,,,,,,,,,,,,,,,,,,,,,,,,,,,,,,,,,,,,,,,,,,,,,,,,,,,,,,,,,,,
,,,,2,1.4623,,,,,,187,cactus,microwave,,89007,001,2022-04-23_21h11.36.534,SPAMnetsValid,2021.1.4,Win32,59.96641881,,,,,,,,,,,,,2,1.4623,0,78,78,71,1,,,,,,,,,,,,,,,,,,,,,,,,,,,,,,,,,,,,,,,,,,,,,,,,,,,,,,,,,,,,,,,,,,,,,,
,,,,4,2.506,,,,,,185,cactus,rose,,89007,001,2022-04-23_21h11.36.534,SPAMnetsValid,2021.1.4,Win32,59.96641881,,,,,,,,,,,,,4,2.506,0,79,79,43,1,,,,,,,,,,,,,,,,,,,,,,,,,,,,,,,,,,,,,,,,,,,,,,,,,,,,,,,,,,,,,,,,,,,,,,
,,,,2,3.4494,,,,,,189,onion,tree,,89007,001,2022-04-23_21h11.36.534,SPAMnetsValid,2021.1.4,Win32,59.96641881,,,,,,,,,,,,,2,3.4494,0,80,80,62,1,,,,,,,,,,,,,,,,,,,,,,,,,,,,,,,,,,,,,,,,,,,,,,,,,,,,,,,,,,,,,,,,,,,,,,
,,,,3,20.6705,,,,,,153,carrot,pretzel,,89007,001,2022-04-23_21h11.36.534,SPAMnetsValid,2021.1.4,Win32,59.96641881,,,,,,,,,,,,,3,20.6705,0,81,81,34,1,,,,,,,,,,,,,,,,,,,,,,,,,,,,,,,,,,,,,,,,,,,,,,,,,,,,,,,,,,,,,,,,,,,,,,
,,,,3,14.6164,,,,,,139,carrot,strawberry,,89007,001,2022-04-23_21h11.36.534,SPAMnetsValid,2021.1.4,Win32,59.96641881,,,,,,,,,,,,,3,14.6164,0,82,82,37,1,,,,,,,,,,,,,,,,,,,,,,,,,,,,,,,,,,,,,,,,,,,,,,,,,,,,,,,,,,,,,,,,,,,,,,
,,,,9,2.3877,,,,,,110,chocolate,cookie,,89007,001,2022-04-23_21h11.36.534,SPAMnetsValid,2021.1.4,Win32,59.96641881,,,,,,,,,,,,,9,2.3877,0,83,83,52,1,,,,,,,,,,,,,,,,,,,,,,,,,,,,,,,,,,,,,,,,,,,,,,,,,,,,,,,,,,,,,,,,,,,,,,
,,,,4,1.9458,,,,,,171,cake,tomato,,89007,001,2022-04-23_21h11.36.534,SPAMnetsValid,2021.1.4,Win32,59.96641881,,,,,,,,,,,,,4,1.9458,0,84,84,88,1,,,,,,,,,,,,,,,,,,,,,,,,,,,,,,,,,,,,,,,,,,,,,,,,,,,,,,,,,,,,,,,,,,,,,,
,,,,7,51.7393,,,,,,118,chocolate,oven,,89007,001,2022-04-23_21h11.36.534,SPAMnetsValid,2021.1.4,Win32,59.96641881,,,,,,,,,,,,,7,51.7393,0,85,85,10,1,,,,,,,,,,,,,,,,,,,,,,,,,,,,,,,,,,,,,,,,,,,,,,,,,,,,,,,,,,,,,,,,,,,,,,
,,,,4,1.6489,,,,,,140,cookie,refrigerator,,89007,001,2022-04-23_21h11.36.534,SPAMnetsValid,2021.1.4,Win32,59.96641881,,,,,,,,,,,,,4,1.6489,0,86,86,89,1,,,,,,,,,,,,,,,,,,,,,,,,,,,,,,,,,,,,,,,,,,,,,,,,,,,,,,,,,,,,,,,,,,,,,,
,,,,1,2.1074,,,,,,165,onion,rose,,89007,001,2022-04-23_21h11.36.534,SPAMnetsValid,2021.1.4,Win32,59.96641881,,,,,,,,,,,,,1,2.1074,0,87,87,40,1,,,,,,,,,,,,,,,,,,,,,,,,,,,,,,,,,,,,,,,,,,,,,,,,,,,,,,,,,,,,,,,,,,,,,,
,,,,6,14.4207,,,,,,186,kitchen,yogurt,,89007,001,2022-04-23_21h11.36.534,SPAMnetsValid,2021.1.4,Win32,59.96641881,,,,,,,,,,,,,6,14.4207,0,88,88,48,1,,,,,,,,,,,,,,,,,,,,,,,,,,,,,,,,,,,,,,,,,,,,,,,,,,,,,,,,,,,,,,,,,,,,,,
,,,,4,1.3061,,,,,,175,melon,onion,,89007,001,2022-04-23_21h11.36.534,SPAMnetsValid,2021.1.4,Win32,59.96641881,,,,,,,,,,,,,4,1.3061,0,89,89,41,1,,,,,,,,,,,,,,,,,,,,,,,,,,,,,,,,,,,,,,,,,,,,,,,,,,,,,,,,,,,,,,,,,,,,,,
,,,,2,1.41,,,,,,180,tree,yogurt,,89007,001,2022-04-23_21h11.36.534,SPAMnetsValid,2021.1.4,Win32,59.96641881,,,,,,,,,,,,,2,1.41,0,90,90,68,1,,,,,,,,,,,,,,,,,,,,,,,,,,,,,,,,,,,,,,,,,,,,,,,,,,,,,,,,,,,,,,,,,,,,,,
,,,,2,2.4248,,,,,,126,kitchen,tree,,89007,001,2022-04-23_21h11.36.534,SPAMnetsValid,2021.1.4,Win32,59.96641881,,,,,,,,,,,,,2,2.4248,0,91,91,50,1,,,,,,,,,,,,,,,,,,,,,,,,,,,,,,,,,,,,,,,,,,,,,,,,,,,,,,,,,,,,,,,,,,,,,,
,,,,6,1.8141,,,,,,142,garden,tree,,89007,001,2022-04-23_21h11.36.534,SPAMnetsValid,2021.1.4,Win32,59.96641881,,,,,,,,,,,,,6,1.8141,0,92,92,22,1,,,,,,,,,,,,,,,,,,,,,,,,,,,,,,,,,,,,,,,,,,,,,,,,,,,,,,,,,,,,,,,,,,,,,,
,,,,9,1.2634,,,,,,112,cake,carrot,,89007,001,2022-04-23_21h11.36.534,SPAMnetsValid,2021.1.4,Win32,59.96641881,,,,,,,,,,,,,9,1.2634,0,93,93,39,1,,,,,,,,,,,,,,,,,,,,,,,,,,,,,,,,,,,,,,,,,,,,,,,,,,,,,,,,,,,,,,,,,,,,,,
,,,,9,1.7574,,,,,,116,cake,chocolate,,89007,001,2022-04-23_21h11.36.534,SPAMnetsValid,2021.1.4,Win32,59.96641881,,,,,,,,,,,,,9,1.7574,0,94,94,44,1,,,,,,,,,,,,,,,,,,,,,,,,,,,,,,,,,,,,,,,,,,,,,,,,,,,,,,,,,,,,,,,,,,,,,,
,,,,4,2.1213,,,,,,131,cactus,garden,,89007,001,2022-04-23_21h11.36.534,SPAMnetsValid,2021.1.4,Win32,59.96641881,,,,,,,,,,,,,4,2.1213,0,95,95,33,1,,,,,,,,,,,,,,,,,,,,,,,,,,,,,,,,,,,,,,,,,,,,,,,,,,,,,,,,,,,,,,,,,,,,,,
,,,,3,2.8399,,,,,,172,kitchen,melon,,89007,001,2022-04-23_21h11.36.534,SPAMnetsValid,2021.1.4,Win32,59.96641881,,,,,,,,,,,,,3,2.8399,0,96,96,77,1,,,,,,,,,,,,,,,,,,,,,,,,,,,,,,,,,,,,,,,,,,,,,,,,,,,,,,,,,,,,,,,,,,,,,,
,,,,,,,,,,,,,,,89007,001,2022-04-23_21h11.36.534,SPAMnetsValid,2021.1.4,Win32,59.96641881,,,,,,,,,,,,,,,,,,,,0,0,0,0,1,,,,,,,,,,,,,,,,,,,,,,,,,,,,,,,,,,,,,,,,,,,,,,,,,,,,,,,,,,,,,,,,,
,,,,,,,,,,,,,,,89007,001,2022-04-23_21h11.36.534,SPAMnetsValid,2021.1.4,Win32,59.96641881,,,,,,0,1,1,1,1,0,1,,,,,,,,,,,,,,,,,,,,,,,,,,,,,,,,,,,,,,,,,,,,,,,,,,,,,,,,,,,,,,,,,,,,,,,,,,,,,
,,,,,,,,,,,,,,,89007,001,2022-04-23_21h11.36.534,SPAMnetsValid,2021.1.4,Win32,59.96641881,,,,,,,,,,,,,,,,,,,,,,,,,3,10.6929,0,0,0,0,1,rancor,forbearance,ridicule,malice,bravery,3,,,,,,,,,,,,,,,,,,,,,,,,,,,,,,,,,,,,,,,,,,,,,,,,,,,,
,,,,,,,,,,,,,,,89007,001,2022-04-23_21h11.36.534,SPAMnetsValid,2021.1.4,Win32,59.96641881,,,,,,,,,,,,,,,,,,,,,,,,,4,4.0167,0,1,1,1,1,raucous,empty,quiet,smooth,harsh,4,,,,,,,,,,,,,,,,,,,,,,,,,,,,,,,,,,,,,,,,,,,,,,,,,,,,
,,,,,,,,,,,,,,,89007,001,2022-04-23_21h11.36.534,SPAMnetsValid,2021.1.4,Win32,59.96641881,,,,,,,,,,,,,,,,,,,,,,,,,4,5.9804,0,2,2,2,1,gargoyle,oil,medicine,carved waterspout,ugly building,3,,,,,,,,,,,,,,,,,,,,,,,,,,,,,,,,,,,,,,,,,,,,,,,,,,,,
,,,,,,,,,,,,,,,89007,001,2022-04-23_21h11.36.534,SPAMnetsValid,2021.1.4,Win32,59.96641881,,,,,,,,,,,,,,,,,,,,,,,,,1,22.3038,0,3,3,3,1,recrudesce,purify,renew activity,lack refinement,crush,2,,,,,,,,,,,,,,,,,,,,,,,,,,,,,,,,,,,,,,,,,,,,,,,,,,,,
,,,,,,,,,,,,,,,89007,001,2022-04-23_21h11.36.534,SPAMnetsValid,2021.1.4,Win32,59.96641881,,,,,,,,,,,,,,,,,,,,,,,,,3,7.9141,0,4,4,4,1,specious,"plausible, but not genuine",noteworthy,class or variety,roomy,1,,,,,,,,,,,,,,,,,,,,,,,,,,,,,,,,,,,,,,,,,,,,,,,,,,,,
,,,,,,,,,,,,,,,89007,001,2022-04-23_21h11.36.534,SPAMnetsValid,2021.1.4,Win32,59.96641881,,,,,,,,,,,,,,,,,,,,,,,,,2,12.654,0,5,5,5,1,bauble,bubble,showy plaything,idle talk,confusion,2,,,,,,,,,,,,,,,,,,,,,,,,,,,,,,,,,,,,,,,,,,,,,,,,,,,,
,,,,,,,,,,,,,,,89007,001,2022-04-23_21h11.36.534,SPAMnetsValid,2021.1.4,Win32,59.96641881,,,,,,,,,,,,,,,,,,,,,,,,,2,5.3556,0,6,6,6,1,prolific,scarce,producing abundantly,reckless,speaking profanely,2,,,,,,,,,,,,,,,,,,,,,,,,,,,,,,,,,,,,,,,,,,,,,,,,,,,,
,,,,,,,,,,,,,,,89007,001,2022-04-23_21h11.36.534,SPAMnetsValid,2021.1.4,Win32,59.96641881,,,,,,,,,,,,,,,,,,,,,,,,,2,2.7436,0,7,7,7,1,opulent,party,wealthy,happy frame of mind,semiprecious stone,2,,,,,,,,,,,,,,,,,,,,,,,,,,,,,,,,,,,,,,,,,,,,,,,,,,,,
,,,,,,,,,,,,,,,89007,001,2022-04-23_21h11.36.534,SPAMnetsValid,2021.1.4,Win32,59.96641881,,,,,,,,,,,,,,,,,,,,,,,,,1,6.2164,0,8,8,8,1,coercion,conspiracy,strategy,restraint,attraction,3,,,,,,,,,,,,,,,,,,,,,,,,,,,,,,,,,,,,,,,,,,,,,,,,,,,,
,,,,,,,,,,,,,,,89007,001,2022-04-23_21h11.36.534,SPAMnetsValid,2021.1.4,Win32,59.96641881,,,,,,,,,,,,,,,,,,,,,,,,,4,5.1947,0,9,9,9,1,hiatus,animal,calamity,dread,gap,4,,,,,,,,,,,,,,,,,,,,,,,,,,,,,,,,,,,,,,,,,,,,,,,,,,,,
,,,,,,,,,,,,,,,89007,001,2022-04-23_21h11.36.534,SPAMnetsValid,2021.1.4,Win32,59.96641881,,,,,,,,,,,,,,,,,,,,,,,,,1,20.6802,0,10,10,10,1,germane,microbe,contagious,relevant,different,3,,,,,,,,,,,,,,,,,,,,,,,,,,,,,,,,,,,,,,,,,,,,,,,,,,,,
,,,,,,,,,,,,,,,89007,001,2022-04-23_21h11.36.534,SPAMnetsValid,2021.1.4,Win32,59.96641881,,,,,,,,,,,,,,,,,,,,,,,,,1,28.5347,0,11,11,11,1,perfunctory,fundamental,formal,superficial,careful,3,,,,,,,,,,,,,,,,,,,,,,,,,,,,,,,,,,,,,,,,,,,,,,,,,,,,
,,,,,,,,,,,,,,,89007,001,2022-04-23_21h11.36.534,SPAMnetsValid,2021.1.4,Win32,59.96641881,,,,,,,,,,,,,,,,,,,,,,,,,4,2.9352,0,12,12,12,1,diverge,reveal,chant,distract the attention of,differ or turn off from,4,,,,,,,,,,,,,,,,,,,,,,,,,,,,,,,,,,,,,,,,,,,,,,,,,,,,
,,,,,,,,,,,,,,,89007,001,2022-04-23_21h11.36.534,SPAMnetsValid,2021.1.4,Win32,59.96641881,,,,,,,,,,,,,,,,,,,,,,,,,4,28.8895,0,13,13,13,1,evoke,take away,anger,connect,bring out,4,,,,,,,,,,,,,,,,,,,,,,,,,,,,,,,,,,,,,,,,,,,,,,,,,,,,
,,,,,,,,,,,,,,,89007,001,2022-04-23_21h11.36.534,SPAMnetsValid,2021.1.4,Win32,59.96641881,,,,,,,,,,,,,,,,,,,,,,,,,,,0,14,14,14,1,pertinent,relevant,lying next to,necessary,bold,1,,,,,,,,,,,,,,,,,,,,,,,,,,,,,,,,,,,,,,,,,,,,,,,,,,,,
,,,,,,,,,,,,,,,89007,001,2022-04-23_21h11.36.534,SPAMnetsValid,2021.1.4,Win32,59.96641881,,,,,,,,,,,,,,,,,,,,,,,,,2,1.9872,0,15,15,15,1,holocaust,entirety,destruction,saintly,price,2,,,,,,,,,,,,,,,,,,,,,,,,,,,,,,,,,,,,,,,,,,,,,,,,,,,,
,,,,,,,,,,,,,,,89007,001,2022-04-23_21h11.36.534,SPAMnetsValid,2021.1.4,Win32,59.96641881,,,,,,,,,,,,,,,,,,,,,,,,,1,5.9361,0,16,16,16,1,piquant,mellow,fish,pungent,cloth,3,,,,,,,,,,,,,,,,,,,,,,,,,,,,,,,,,,,,,,,,,,,,,,,,,,,,
,,,,,,,,,,,,,,,89007,001,2022-04-23_21h11.36.534,SPAMnetsValid,2021.1.4,Win32,59.96641881,,,,,,,,,,,,,,,,,,,,,,,,,3,5.6018,0,17,17,17,1,firmament,foundation,heavens,strong,glue,2,,,,,,,,,,,,,,,,,,,,,,,,,,,,,,,,,,,,,,,,,,,,,,,,,,,,
,,,,,,,,,,,,,,,89007,001,2022-04-23_21h11.36.534,SPAMnetsValid,2021.1.4,Win32,59.96641881,,,,,,,,,,,,,,,,,,,,,,,,,,,,,,,,,,,,,,4,8.5829,0,0,0,0,1,marketable,partisan,jocular,marriageable,salable,essential,4,,,,,,,,,,,,,,,,,,,,,,,,,,,,,,,,,,,,,,
,,,,,,,,,,,,,,,89007,001,2022-04-23_21h11.36.534,SPAMnetsValid,2021.1.4,Win32,59.96641881,,,,,,,,,,,,,,,,,,,,,,,,,,,,,,,,,,,,,,5,3.1689,0,1,1,1,1,cottontail,squirrel,poplar,boa,marshy plant,rabbit,5,,,,,,,,,,,,,,,,,,,,,,,,,,,,,,,,,,,,,,
,,,,,,,,,,,,,,,89007,001,2022-04-23_21h11.36.534,SPAMnetsValid,2021.1.4,Win32,59.96641881,,,,,,,,,,,,,,,,,,,,,,,,,,,,,,,,,,,,,,3,1.6837,0,2,2,2,1,boggy,afraid,false,marshy,dense,black,3,,,,,,,,,,,,,,,,,,,,,,,,,,,,,,,,,,,,,,
,,,,,,,,,,,,,,,89007,001,2022-04-23_21h11.36.534,SPAMnetsValid,2021.1.4,Win32,59.96641881,,,,,,,,,,,,,,,,,,,,,,,,,,,,,,,,,,,,,,5,3.546,0,3,3,3,1,gruesomeness,blackness,falseness,vindictiveness,drunkenness,ghastliness,5,,,,,,,,,,,,,,,,,,,,,,,,,,,,,,,,,,,,,,
,,,,,,,,,,,,,,,89007,001,2022-04-23_21h11.36.534,SPAMnetsValid,2021.1.4,Win32,59.96641881,,,,,,,,,,,,,,,,,,,,,,,,,,,,,,,,,,,,,,3,5.5468,0,4,4,4,1,loathing,diffidence,laziness,abhorrence,cleverness,comfort,3,,,,,,,,,,,,,,,,,,,,,,,,,,,,,,,,,,,,,,
,,,,,,,,,,,,,,,89007,001,2022-04-23_21h11.36.534,SPAMnetsValid,2021.1.4,Win32,59.96641881,,,,,,,,,,,,,,,,,,,,,,,,,,,,,,,,,,,,,,2,2.57,0,5,5,5,1,bantam,fowl,ridicule,cripple,vegetable,ensign,1,,,,,,,,,,,,,,,,,,,,,,,,,,,,,,,,,,,,,,
,,,,,,,,,,,,,,,89007,001,2022-04-23_21h11.36.534,SPAMnetsValid,2021.1.4,Win32,59.96641881,,,,,,,,,,,,,,,,,,,,,,,,,,,,,,,,,,,,,,5,40.1336,0,6,6,6,1,evoke,wake up,surrender,reconnoiter,transcend,call forth,5,,,,,,,,,,,,,,,,,,,,,,,,,,,,,,,,,,,,,,
,,,,,,,,,,,,,,,89007,001,2022-04-23_21h11.36.534,SPAMnetsValid,2021.1.4,Win32,59.96641881,,,,,,,,,,,,,,,,,,,,,,,,,,,,,,,,,,,,,,4,9.2757,0,7,7,7,1,unobtrusive,unintelligent,epileptic,illogical,lineal,modest,5,,,,,,,,,,,,,,,,,,,,,,,,,,,,,,,,,,,,,,
,,,,,,,,,,,,,,,89007,001,2022-04-23_21h11.36.534,SPAMnetsValid,2021.1.4,Win32,59.96641881,,,,,,,,,,,,,,,,,,,,,,,,,,,,,,,,,,,,,,4,2.4225,0,8,8,8,1,terrain,ice cream,final test,tractor,area of ground,weight,4,,,,,,,,,,,,,,,,,,,,,,,,,,,,,,,,,,,,,,
,,,,,,,,,,,,,,,89007,001,2022-04-23_21h11.36.534,SPAMnetsValid,2021.1.4,Win32,59.96641881,,,,,,,,,,,,,,,,,,,,,,,,,,,,,,,,,,,,,,1,6.1049,0,9,9,9,1,capriciousness,stubbornness,courage,whimsicality,amazement,greediness,3,,,,,,,,,,,,,,,,,,,,,,,,,,,,,,,,,,,,,,
,,,,,,,,,,,,,,,89007,001,2022-04-23_21h11.36.534,SPAMnetsValid,2021.1.4,Win32,59.96641881,,,,,,,,,,,,,,,,,,,,,,,,,,,,,,,,,,,,,,2,4.0225,0,10,10,10,1,maelstrom,slander,whirlpool,enmity,armor,majolica,2,,,,,,,,,,,,,,,,,,,,,,,,,,,,,,,,,,,,,,
,,,,,,,,,,,,,,,89007,001,2022-04-23_21h11.36.534,SPAMnetsValid,2021.1.4,Win32,59.96641881,,,,,,,,,,,,,,,,,,,,,,,,,,,,,,,,,,,,,,5,3.2215,0,11,11,11,1,tentative,critical,conclusive,authentic,provisional,apprehensive,4,,,,,,,,,,,,,,,,,,,,,,,,,,,,,,,,,,,,,,
,,,,,,,,,,,,,,,89007,001,2022-04-23_21h11.36.534,SPAMnetsValid,2021.1.4,Win32,59.96641881,,,,,,,,,,,,,,,,,,,,,,,,,,,,,,,,,,,,,,5,6.9905,0,12,12,12,1,placate,rehabilitate,plagiarize,depredate,apprise,conciliate,5,,,,,,,,,,,,,,,,,,,,,,,,,,,,,,,,,,,,,,
,,,,,,,,,,,,,,,89007,001,2022-04-23_21h11.36.534,SPAMnetsValid,2021.1.4,Win32,59.96641881,,,,,,,,,,,,,,,,,,,,,,,,,,,,,,,,,,,,,,5,7.8881,0,13,13,13,1,surcease,enlightenment,cessation,inattention,censor,substitution,2,,,,,,,,,,,,,,,,,,,,,,,,,,,,,,,,,,,,,,
,,,,,,,,,,,,,,,89007,001,2022-04-23_21h11.36.534,SPAMnetsValid,2021.1.4,Win32,59.96641881,,,,,,,,,,,,,,,,,,,,,,,,,,,,,,,,,,,,,,2,9.4458,0,14,14,14,1,apathetic,wandering,impassive,hateful,prophetic,overflowing,2,,,,,,,,,,,,,,,,,,,,,,,,,,,,,,,,,,,,,,
,,,,,,,,,,,,,,,89007,001,2022-04-23_21h11.36.534,SPAMnetsValid,2021.1.4,Win32,59.96641881,,,,,,,,,,,,,,,,,,,,,,,,,,,,,,,,,,,,,,5,11.8837,0,15,15,15,1,paternoster,paternalism,patricide,malediction,benediction,prayer,5,,,,,,,,,,,,,,,,,,,,,,,,,,,,,,,,,,,,,,
,,,,,,,,,,,,,,,89007,001,2022-04-23_21h11.36.534,SPAMnetsValid,2021.1.4,Win32,59.96641881,,,,,,,,,,,,,,,,,,,,,,,,,,,,,,,,,,,,,,4,15.7174,0,16,16,16,1,opalescence,opulence,senescence,bankruptcy,iridescence,assiduity,4,,,,,,,,,,,,,,,,,,,,,,,,,,,,,,,,,,,,,,
,,,,,,,,,,,,,,,89007,001,2022-04-23_21h11.36.534,SPAMnetsValid,2021.1.4,Win32,59.96641881,,,,,,,,,,,,,,,,,,,,,,,,,,,,,,,,,,,,,,2,2.7912,0,17,17,17,1,lush,stupid,luxurious,hazy,putrid,languishing,2,,,,,,,,,,,,,,,,,,,,,,,,,,,,,,,,,,,,,,
,,,,,,,,,,,,,,,89007,001,2022-04-23_21h11.36.534,SPAMnetsValid,2021.1.4,Win32,59.96641881,,,,,,,,,,,,,,,,,,,,,,,,,,,,,,,,,,,,,,2,17.1418,0,18,18,18,1,curtailment,expenditure,abandonment,abridgment,improvement,forgery,3,,,,,,,,,,,,,,,,,,,,,,,,,,,,,,,,,,,,,,
,,,,,,,,,,,,,,,89007,001,2022-04-23_21h11.36.534,SPAMnetsValid,2021.1.4,Win32,59.96641881,,,,,,,,,,,,,,,,,,,,,,,,,,,,,,,,,,,,,,4,6.1669,0,19,19,19,1,perversity,adversity,perviousness,travesty,waywardness,gentility,4,,,,,,,,,,,,,,,,,,,,,,,,,,,,,,,,,,,,,,
,,,,,,,,,,,,,,,89007,001,2022-04-23_21h11.36.534,SPAMnetsValid,2021.1.4,Win32,59.96641881,,,,,,,,,,,,,,,,,,,,,,,,,,,,,,,,,,,,,,3,29.8446,0,20,20,20,1,calumnious,complimentary,analogous,slanderous,tempestuous,magnanimous,3,,,,,,,,,,,,,,,,,,,,,,,,,,,,,,,,,,,,,,
,,,,,,,,,,,,,,,89007,001,2022-04-23_21h11.36.534,SPAMnetsValid,2021.1.4,Win32,59.96641881,,,,,,,,,,,,,,,,,,,,,,,,,,,,,,,,,,,,,,1,3.2152,0,21,21,21,1,illiberality,bigotry,imbecility,illegibility,cautery,immaturity,1,,,,,,,,,,,,,,,,,,,,,,,,,,,,,,,,,,,,,,
,,,,,,,,,,,,,,,89007,001,2022-04-23_21h11.36.534,SPAMnetsValid,2021.1.4,Win32,59.96641881,,,,,,,,,,,,,,,,,,,,,,,,,,,,,,,,,,,,,,2,6.9777,0,22,22,22,1,clabber,rejoice,gossip,curdle,crow,hobble,3,,,,,,,,,,,,,,,,,,,,,,,,,,,,,,,,,,,,,,
,,,,,,,,,,,,,,,89007,001,2022-04-23_21h11.36.534,SPAMnetsValid,2021.1.4,Win32,59.96641881,,,,,,,,,,,,,,,,,,,,,,,,,,,,,,,,,,,,,,5,8.7981,0,23,23,23,1,sedulousness,diligence,credulousness,seduction,perilousness,frankness,1,,,,,,,,,,,,,,,,,,,,,,,,,,,,,,,,,,,,,,
,,,,,,,,,,,,,,,89007,001,2022-04-23_21h11.36.534,SPAMnetsValid,2021.1.4,Win32,59.96641881,,,,,,,,,,,,,,,,,,,,,,,,,,,,,,,,,,,,,,,,,,,,,,,,,,,,hat,bucket,0,0,0,0,1,,,,,,,,,,,,,,,,,,,,,,,,,,,,,,,
,,,,,,,,,,,,,,,89007,001,2022-04-23_21h11.36.534,SPAMnetsValid,2021.1.4,Win32,59.96641881,,,,,,,,,,,,,,,,,,,,,,,,,,,,,,,,,,,,,,,,,,,,,,,,,,,,fill it as a counterweight,bucket,1,0,1,0,1,,,,,,,,,,,,,,,,,,,,,,,,,,,,,,,
,,,,,,,,,,,,,,,89007,001,2022-04-23_21h11.36.534,SPAMnetsValid,2021.1.4,Win32,59.96641881,,,,,,,,,,,,,,,,,,,,,,,,,,,,,,,,,,,,,,,,,,,,,,,,,,,,use it to drink from,bucket,2,0,2,0,1,,,,,,,,,,,,,,,,,,,,,,,,,,,,,,,
,,,,,,,,,,,,,,,89007,001,2022-04-23_21h11.36.534,SPAMnetsValid,2021.1.4,Win32,59.96641881,,,,,,,,,,,,,,,,,,,,,,,,,,,,,,,,,,,,,,,,,,,,,,,,,,,,use it as a stool,bucket,3,0,3,0,1,,,,,,,,,,,,,,,,,,,,,,,,,,,,,,,
,,,,,,,,,,,,,,,89007,001,2022-04-23_21h11.36.534,SPAMnetsValid,2021.1.4,Win32,59.96641881,,,,,,,,,,,,,,,,,,,,,,,,,,,,,,,,,,,,,,,,,,,,,,,,,,,,wear it as a mask and poke holes in it,bucket,4,0,4,0,1,,,,,,,,,,,,,,,,,,,,,,,,,,,,,,,
,,,,,,,,,,,,,,,89007,001,2022-04-23_21h11.36.534,SPAMnetsValid,2021.1.4,Win32,59.96641881,,,,,,,,,,,,,,,,,,,,,,,,,,,,,,,,,,,,,,,,,,,,,,,,,,,,probably could be used as a weapon,bucket,5,0,5,0,1,,,,,,,,,,,,,,,,,,,,,,,,,,,,,,,
,,,,,,,,,,,,,,,89007,001,2022-04-23_21h11.36.534,SPAMnetsValid,2021.1.4,Win32,59.96641881,,,,,,,,,,,,,,,,,,,,,,,,,,,,,,,,,,,,,,,,,,,,,,,,,,,,cool physics experiments,bucket,6,0,6,0,1,,,,,,,,,,,,,,,,,,,,,,,,,,,,,,,
,,,,,,,,,,,,,,,89007,001,2022-04-23_21h11.36.534,SPAMnetsValid,2021.1.4,Win32,59.96641881,,,,,,,,,,,,,,,,,,,,,,,,,,,,,,,,,,,,,,,,,,,,,,,,,,,,storing milk is also cool,bucket,7,0,7,0,1,,,,,,,,,,,,,,,,,,,,,,,,,,,,,,,
,,,,,,,,,,,,,,,89007,001,2022-04-23_21h11.36.534,SPAMnetsValid,2021.1.4,Win32,59.96641881,,,,,,,,,,,,,,,,,,,,,,,,,,,,,,,,,,,,,,,,,,,,,,,,,,,,,,,,,,,0,0,0,0,1,bucket,,,,,,,,,,,,,,,,,,,,,,,,,
,,,,,,,,,,,,,,,89007,001,2022-04-23_21h11.36.534,SPAMnetsValid,2021.1.4,Win32,59.96641881,,,,,,,,,,,,,,,,,,,,,,,,,,,,,,,,,,,,,,,,,,,,,,,,,,,,burn stuff,candle,0,0,0,0,1,,,,,,,,,,,,,,,,,,,,,,,,,,,,,,,
,,,,,,,,,,,,,,,89007,001,2022-04-23_21h11.36.534,SPAMnetsValid,2021.1.4,Win32,59.96641881,,,,,,,,,,,,,,,,,,,,,,,,,,,,,,,,,,,,,,,,,,,,,,,,,,,,light source,candle,1,0,1,0,1,,,,,,,,,,,,,,,,,,,,,,,,,,,,,,,
,,,,,,,,,,,,,,,89007,001,2022-04-23_21h11.36.534,SPAMnetsValid,2021.1.4,Win32,59.96641881,,,,,,,,,,,,,,,,,,,,,,,,,,,,,,,,,,,,,,,,,,,,,,,,,,,,as a form of a timer based on the height of it,candle,2,0,2,0,1,,,,,,,,,,,,,,,,,,,,,,,,,,,,,,,
,,,,,,,,,,,,,,,89007,001,2022-04-23_21h11.36.534,SPAMnetsValid,2021.1.4,Win32,59.96641881,,,,,,,,,,,,,,,,,,,,,,,,,,,,,,,,,,,,,,,,,,,,,,,,,,,,wax of a candle can be used as stamp material,candle,3,0,3,0,1,,,,,,,,,,,,,,,,,,,,,,,,,,,,,,,
,,,,,,,,,,,,,,,89007,001,2022-04-23_21h11.36.534,SPAMnetsValid,2021.1.4,Win32,59.96641881,,,,,,,,,,,,,,,,,,,,,,,,,,,,,,,,,,,,,,,,,,,,,,,,,,,,make a jack o lantern with it,candle,4,0,4,0,1,,,,,,,,,,,,,,,,,,,,,,,,,,,,,,,
,,,,,,,,,,,,,,,89007,001,2022-04-23_21h11.36.534,SPAMnetsValid,2021.1.4,Win32,59.96641881,,,,,,,,,,,,,,,,,,,,,,,,,,,,,,,,,,,,,,,,,,,,,,,,,,,,makes for a decent animated movie character,candle,5,0,5,0,1,,,,,,,,,,,,,,,,,,,,,,,,,,,,,,,
,,,,,,,,,,,,,,,89007,001,2022-04-23_21h11.36.534,SPAMnetsValid,2021.1.4,Win32,59.96641881,,,,,,,,,,,,,,,,,,,,,,,,,,,,,,,,,,,,,,,,,,,,,,,,,,,,,,,,,,,0,1,1,1,1,candle,,,,,,,,,,,,,,,,,,,,,,,,,
,,,,,,,,,,,,,,,89007,001,2022-04-23_21h11.36.534,SPAMnetsValid,2021.1.4,Win32,59.96641881,,,,,,,,,,,,,,,,,,,,,,,,,,,,,,,,,,,,,,,,,,,,,,,,,,,,sleep with,pillow,0,0,0,0,1,,,,,,,,,,,,,,,,,,,,,,,,,,,,,,,
,,,,,,,,,,,,,,,89007,001,2022-04-23_21h11.36.534,SPAMnetsValid,2021.1.4,Win32,59.96641881,,,,,,,,,,,,,,,,,,,,,,,,,,,,,,,,,,,,,,,,,,,,,,,,,,,,make a fort with it,pillow,1,0,1,0,1,,,,,,,,,,,,,,,,,,,,,,,,,,,,,,,
,,,,,,,,,,,,,,,89007,001,2022-04-23_21h11.36.534,SPAMnetsValid,2021.1.4,Win32,59.96641881,,,,,,,,,,,,,,,,,,,,,,,,,,,,,,,,,,,,,,,,,,,,,,,,,,,,have fights with it,pillow,2,0,2,0,1,,,,,,,,,,,,,,,,,,,,,,,,,,,,,,,
,,,,,,,,,,,,,,,89007,001,2022-04-23_21h11.36.534,SPAMnetsValid,2021.1.4,Win32,59.96641881,,,,,,,,,,,,,,,,,,,,,,,,,,,,,,,,,,,,,,,,,,,,,,,,,,,,use it as a shield or armor,pillow,3,0,3,0,1,,,,,,,,,,,,,,,,,,,,,,,,,,,,,,,
,,,,,,,,,,,,,,,89007,001,2022-04-23_21h11.36.534,SPAMnetsValid,2021.1.4,Win32,59.96641881,,,,,,,,,,,,,,,,,,,,,,,,,,,,,,,,,,,,,,,,,,,,,,,,,,,,,pillow,4,0,4,0,1,,,,,,,,,,,,,,,,,,,,,,,,,,,,,,,
,,,,,,,,,,,,,,,89007,001,2022-04-23_21h11.36.534,SPAMnetsValid,2021.1.4,Win32,59.96641881,,,,,,,,,,,,,,,,,,,,,,,,,,,,,,,,,,,,,,,,,,,,,,,,,,,,a backrest,pillow,5,0,5,0,1,,,,,,,,,,,,,,,,,,,,,,,,,,,,,,,
,,,,,,,,,,,,,,,89007,001,2022-04-23_21h11.36.534,SPAMnetsValid,2021.1.4,Win32,59.96641881,,,,,,,,,,,,,,,,,,,,,,,,,,,,,,,,,,,,,,,,,,,,,,,,,,,,,,,,,,,0,2,2,2,1,pillow,,,,,,,,,,,,,,,,,,,,,,,,,
,,,,,,,,,,,,,,,89007,001,2022-04-23_21h11.36.534,SPAMnetsValid,2021.1.4,Win32,59.96641881,,,,,,,,,,,,,,,,,,,,,,,,,,,,,,,,,,,,,,,,,,,,,,,,,,,,,,,,,,,,,,,,,,Animals,0,0,0,0,1,,,,,,,,,,,,,,,,,,
,,,,,,,,,,,,,,,89007,001,2022-04-23_21h11.36.534,SPAMnetsValid,2021.1.4,Win32,59.96641881,,,,,,,,,,,,,,,,,,,,,,,,,,,,,,,,,,,,,,,,,,,,,,,,,,,,,,,,,,,,,,,,,lion,Animals,1,0,1,0,1,,,,,,,,,,,,,,,,,,
,,,,,,,,,,,,,,,89007,001,2022-04-23_21h11.36.534,SPAMnetsValid,2021.1.4,Win32,59.96641881,,,,,,,,,,,,,,,,,,,,,,,,,,,,,,,,,,,,,,,,,,,,,,,,,,,,,,,,,,,,,,,,,tiger,Animals,2,0,2,0,1,,,,,,,,,,,,,,,,,,
,,,,,,,,,,,,,,,89007,001,2022-04-23_21h11.36.534,SPAMnetsValid,2021.1.4,Win32,59.96641881,,,,,,,,,,,,,,,,,,,,,,,,,,,,,,,,,,,,,,,,,,,,,,,,,,,,,,,,,,,,,,,,,zebra,Animals,3,0,3,0,1,,,,,,,,,,,,,,,,,,
,,,,,,,,,,,,,,,89007,001,2022-04-23_21h11.36.534,SPAMnetsValid,2021.1.4,Win32,59.96641881,,,,,,,,,,,,,,,,,,,,,,,,,,,,,,,,,,,,,,,,,,,,,,,,,,,,,,,,,,,,,,,,,giraffe,Animals,4,0,4,0,1,,,,,,,,,,,,,,,,,,
,,,,,,,,,,,,,,,89007,001,2022-04-23_21h11.36.534,SPAMnetsValid,2021.1.4,Win32,59.96641881,,,,,,,,,,,,,,,,,,,,,,,,,,,,,,,,,,,,,,,,,,,,,,,,,,,,,,,,,,,,,,,,,elephant,Animals,5,0,5,0,1,,,,,,,,,,,,,,,,,,
,,,,,,,,,,,,,,,89007,001,2022-04-23_21h11.36.534,SPAMnetsValid,2021.1.4,Win32,59.96641881,,,,,,,,,,,,,,,,,,,,,,,,,,,,,,,,,,,,,,,,,,,,,,,,,,,,,,,,,,,,,,,,,dog,Animals,6,0,6,0,1,,,,,,,,,,,,,,,,,,
,,,,,,,,,,,,,,,89007,001,2022-04-23_21h11.36.534,SPAMnetsValid,2021.1.4,Win32,59.96641881,,,,,,,,,,,,,,,,,,,,,,,,,,,,,,,,,,,,,,,,,,,,,,,,,,,,,,,,,,,,,,,,,cat,Animals,7,0,7,0,1,,,,,,,,,,,,,,,,,,
,,,,,,,,,,,,,,,89007,001,2022-04-23_21h11.36.534,SPAMnetsValid,2021.1.4,Win32,59.96641881,,,,,,,,,,,,,,,,,,,,,,,,,,,,,,,,,,,,,,,,,,,,,,,,,,,,,,,,,,,,,,,,,mouse,Animals,8,0,8,0,1,,,,,,,,,,,,,,,,,,
,,,,,,,,,,,,,,,89007,001,2022-04-23_21h11.36.534,SPAMnetsValid,2021.1.4,Win32,59.96641881,,,,,,,,,,,,,,,,,,,,,,,,,,,,,,,,,,,,,,,,,,,,,,,,,,,,,,,,,,,,,,,,,rat,Animals,9,0,9,0,1,,,,,,,,,,,,,,,,,,
,,,,,,,,,,,,,,,89007,001,2022-04-23_21h11.36.534,SPAMnetsValid,2021.1.4,Win32,59.96641881,,,,,,,,,,,,,,,,,,,,,,,,,,,,,,,,,,,,,,,,,,,,,,,,,,,,,,,,,,,,,,,,,crow,Animals,10,0,10,0,1,,,,,,,,,,,,,,,,,,
,,,,,,,,,,,,,,,89007,001,2022-04-23_21h11.36.534,SPAMnetsValid,2021.1.4,Win32,59.96641881,,,,,,,,,,,,,,,,,,,,,,,,,,,,,,,,,,,,,,,,,,,,,,,,,,,,,,,,,,,,,,,,,robin,Animals,11,0,11,0,1,,,,,,,,,,,,,,,,,,
,,,,,,,,,,,,,,,89007,001,2022-04-23_21h11.36.534,SPAMnetsValid,2021.1.4,Win32,59.96641881,,,,,,,,,,,,,,,,,,,,,,,,,,,,,,,,,,,,,,,,,,,,,,,,,,,,,,,,,,,,,,,,,cardinal,Animals,12,0,12,0,1,,,,,,,,,,,,,,,,,,
,,,,,,,,,,,,,,,89007,001,2022-04-23_21h11.36.534,SPAMnetsValid,2021.1.4,Win32,59.96641881,,,,,,,,,,,,,,,,,,,,,,,,,,,,,,,,,,,,,,,,,,,,,,,,,,,,,,,,,,,,,,,,,blue jay,Animals,13,0,13,0,1,,,,,,,,,,,,,,,,,,
,,,,,,,,,,,,,,,89007,001,2022-04-23_21h11.36.534,SPAMnetsValid,2021.1.4,Win32,59.96641881,,,,,,,,,,,,,,,,,,,,,,,,,,,,,,,,,,,,,,,,,,,,,,,,,,,,,,,,,,,,,,,,,birds,Animals,14,0,14,0,1,,,,,,,,,,,,,,,,,,
,,,,,,,,,,,,,,,89007,001,2022-04-23_21h11.36.534,SPAMnetsValid,2021.1.4,Win32,59.96641881,,,,,,,,,,,,,,,,,,,,,,,,,,,,,,,,,,,,,,,,,,,,,,,,,,,,,,,,,,,,,,,,,squirrel,Animals,15,0,15,0,1,,,,,,,,,,,,,,,,,,
,,,,,,,,,,,,,,,89007,001,2022-04-23_21h11.36.534,SPAMnetsValid,2021.1.4,Win32,59.96641881,,,,,,,,,,,,,,,,,,,,,,,,,,,,,,,,,,,,,,,,,,,,,,,,,,,,,,,,,,,,,,,,,chipmunk,Animals,16,0,16,0,1,,,,,,,,,,,,,,,,,,
,,,,,,,,,,,,,,,89007,001,2022-04-23_21h11.36.534,SPAMnetsValid,2021.1.4,Win32,59.96641881,,,,,,,,,,,,,,,,,,,,,,,,,,,,,,,,,,,,,,,,,,,,,,,,,,,,,,,,,,,,,,,,,hamster,Animals,17,0,17,0,1,,,,,,,,,,,,,,,,,,
,,,,,,,,,,,,,,,89007,001,2022-04-23_21h11.36.534,SPAMnetsValid,2021.1.4,Win32,59.96641881,,,,,,,,,,,,,,,,,,,,,,,,,,,,,,,,,,,,,,,,,,,,,,,,,,,,,,,,,,,,,,,,,rabbit,Animals,18,0,18,0,1,,,,,,,,,,,,,,,,,,
,,,,,,,,,,,,,,,89007,001,2022-04-23_21h11.36.534,SPAMnetsValid,2021.1.4,Win32,59.96641881,,,,,,,,,,,,,,,,,,,,,,,,,,,,,,,,,,,,,,,,,,,,,,,,,,,,,,,,,,,,,,,,,ants,Animals,19,0,19,0,1,,,,,,,,,,,,,,,,,,
,,,,,,,,,,,,,,,89007,001,2022-04-23_21h11.36.534,SPAMnetsValid,2021.1.4,Win32,59.96641881,,,,,,,,,,,,,,,,,,,,,,,,,,,,,,,,,,,,,,,,,,,,,,,,,,,,,,,,,,,,,,,,,catepillar,Animals,20,0,20,0,1,,,,,,,,,,,,,,,,,,
,,,,,,,,,,,,,,,89007,001,2022-04-23_21h11.36.534,SPAMnetsValid,2021.1.4,Win32,59.96641881,,,,,,,,,,,,,,,,,,,,,,,,,,,,,,,,,,,,,,,,,,,,,,,,,,,,,,,,,,,,,,,,,penguin,Animals,21,0,21,0,1,,,,,,,,,,,,,,,,,,
,,,,,,,,,,,,,,,89007,001,2022-04-23_21h11.36.534,SPAMnetsValid,2021.1.4,Win32,59.96641881,,,,,,,,,,,,,,,,,,,,,,,,,,,,,,,,,,,,,,,,,,,,,,,,,,,,,,,,,,,,,,,,,monkey,Animals,22,0,22,0,1,,,,,,,,,,,,,,,,,,
,,,,,,,,,,,,,,,89007,001,2022-04-23_21h11.36.534,SPAMnetsValid,2021.1.4,Win32,59.96641881,,,,,,,,,,,,,,,,,,,,,,,,,,,,,,,,,,,,,,,,,,,,,,,,,,,,,,,,,,,,,,,,,turtle,Animals,23,0,23,0,1,,,,,,,,,,,,,,,,,,
,,,,,,,,,,,,,,,89007,001,2022-04-23_21h11.36.534,SPAMnetsValid,2021.1.4,Win32,59.96641881,,,,,,,,,,,,,,,,,,,,,,,,,,,,,,,,,,,,,,,,,,,,,,,,,,,,,,,,,,,,,,,,,trout,Animals,24,0,24,0,1,,,,,,,,,,,,,,,,,,
,,,,,,,,,,,,,,,89007,001,2022-04-23_21h11.36.534,SPAMnetsValid,2021.1.4,Win32,59.96641881,,,,,,,,,,,,,,,,,,,,,,,,,,,,,,,,,,,,,,,,,,,,,,,,,,,,,,,,,,,,,,,,,salmon,Animals,25,0,25,0,1,,,,,,,,,,,,,,,,,,
,,,,,,,,,,,,,,,89007,001,2022-04-23_21h11.36.534,SPAMnetsValid,2021.1.4,Win32,59.96641881,,,,,,,,,,,,,,,,,,,,,,,,,,,,,,,,,,,,,,,,,,,,,,,,,,,,,,,,,,,,,,,,,catfish,Animals,26,0,26,0,1,,,,,,,,,,,,,,,,,,
,,,,,,,,,,,,,,,89007,001,2022-04-23_21h11.36.534,SPAMnetsValid,2021.1.4,Win32,59.96641881,,,,,,,,,,,,,,,,,,,,,,,,,,,,,,,,,,,,,,,,,,,,,,,,,,,,,,,,,,,,,,,,,seahorse,Animals,27,0,27,0,1,,,,,,,,,,,,,,,,,,
,,,,,,,,,,,,,,,89007,001,2022-04-23_21h11.36.534,SPAMnetsValid,2021.1.4,Win32,59.96641881,,,,,,,,,,,,,,,,,,,,,,,,,,,,,,,,,,,,,,,,,,,,,,,,,,,,,,,,,,,,,,,,,chicken,Animals,28,0,28,0,1,,,,,,,,,,,,,,,,,,
,,,,,,,,,,,,,,,89007,001,2022-04-23_21h11.36.534,SPAMnetsValid,2021.1.4,Win32,59.96641881,,,,,,,,,,,,,,,,,,,,,,,,,,,,,,,,,,,,,,,,,,,,,,,,,,,,,,,,,,,,,,,,,rooster,Animals,29,0,29,0,1,,,,,,,,,,,,,,,,,,
,,,,,,,,,,,,,,,89007,001,2022-04-23_21h11.36.534,SPAMnetsValid,2021.1.4,Win32,59.96641881,,,,,,,,,,,,,,,,,,,,,,,,,,,,,,,,,,,,,,,,,,,,,,,,,,,,,,,,,,,,,,,,,cow,Animals,30,0,30,0,1,,,,,,,,,,,,,,,,,,
,,,,,,,,,,,,,,,89007,001,2022-04-23_21h11.36.534,SPAMnetsValid,2021.1.4,Win32,59.96641881,,,,,,,,,,,,,,,,,,,,,,,,,,,,,,,,,,,,,,,,,,,,,,,,,,,,,,,,,,,,,,,,,pig,Animals,31,0,31,0,1,,,,,,,,,,,,,,,,,,
,,,,,,,,,,,,,,,89007,001,2022-04-23_21h11.36.534,SPAMnetsValid,2021.1.4,Win32,59.96641881,,,,,,,,,,,,,,,,,,,,,,,,,,,,,,,,,,,,,,,,,,,,,,,,,,,,,,,,,,,,,,,,,sheep,Animals,32,0,32,0,1,,,,,,,,,,,,,,,,,,
,,,,,,,,,,,,,,,89007,001,2022-04-23_21h11.36.534,SPAMnetsValid,2021.1.4,Win32,59.96641881,,,,,,,,,,,,,,,,,,,,,,,,,,,,,,,,,,,,,,,,,,,,,,,,,,,,,,,,,,,,,,,,,squid,Animals,33,0,33,0,1,,,,,,,,,,,,,,,,,,
,,,,,,,,,,,,,,,89007,001,2022-04-23_21h11.36.534,SPAMnetsValid,2021.1.4,Win32,59.96641881,,,,,,,,,,,,,,,,,,,,,,,,,,,,,,,,,,,,,,,,,,,,,,,,,,,,,,,,,,,,,,,,,shark,Animals,34,0,34,0,1,,,,,,,,,,,,,,,,,,
,,,,,,,,,,,,,,,89007,001,2022-04-23_21h11.36.534,SPAMnetsValid,2021.1.4,Win32,59.96641881,,,,,,,,,,,,,,,,,,,,,,,,,,,,,,,,,,,,,,,,,,,,,,,,,,,,,,,,,,,,,,,,,hippo,Animals,35,0,35,0,1,,,,,,,,,,,,,,,,,,
,,,,,,,,,,,,,,,89007,001,2022-04-23_21h11.36.534,SPAMnetsValid,2021.1.4,Win32,59.96641881,,,,,,,,,,,,,,,,,,,,,,,,,,,,,,,,,,,,,,,,,,,,,,,,,,,,,,,,,,,,,,,,,rhino,Animals,36,0,36,0,1,,,,,,,,,,,,,,,,,,
,,,,,,,,,,,,,,,89007,001,2022-04-23_21h11.36.534,SPAMnetsValid,2021.1.4,Win32,59.96641881,,,,,,,,,,,,,,,,,,,,,,,,,,,,,,,,,,,,,,,,,,,,,,,,,,,,,,,,,,,,,,,,,,,,,,,,0,0,0,0,1,Animals,,,,,,,,,,,,
,,,,,,,,,,,,,,,89007,001,2022-04-23_21h11.36.534,SPAMnetsValid,2021.1.4,Win32,59.96641881,,,,,,,,,,,,,,,,,,,,,,,,,,,,,,,,,,,,,,,,,,,,,,,,,,,,,,,,,,,,,,,,,,,,,,,,,,,,,,5,225.3738,0,0,0,0,1,"I enjoy concentrating on a fantasy or daydream and exploring all its possibilities, letting it grow and develop.",0,1,,
,,,,,,,,,,,,,,,89007,001,2022-04-23_21h11.36.534,SPAMnetsValid,2021.1.4,Win32,59.96641881,,,,,,,,,,,,,,,,,,,,,,,,,,,,,,,,,,,,,,,,,,,,,,,,,,,,,,,,,,,,,,,,,,,,,,,,,,,,,,3,3.1139,0,1,1,1,1,I think it's interesting to learn and develop new hobbies.,0,2,,
,,,,,,,,,,,,,,,89007,001,2022-04-23_21h11.36.534,SPAMnetsValid,2021.1.4,Win32,59.96641881,,,,,,,,,,,,,,,,,,,,,,,,,,,,,,,,,,,,,,,,,,,,,,,,,,,,,,,,,,,,,,,,,,,,,,,,,,,,,,2,2.4579,0,2,2,2,1,I am intrigued by the patterns I find in art and nature.,0,3,,
,,,,,,,,,,,,,,,89007,001,2022-04-23_21h11.36.534,SPAMnetsValid,2021.1.4,Win32,59.96641881,,,,,,,,,,,,,,,,,,,,,,,,,,,,,,,,,,,,,,,,,,,,,,,,,,,,,,,,,,,,,,,,,,,,,,,,,,,,,,1,4.1721,0,3,3,3,1,I believe letting students hear controversial speakers can only confuse and mislead them.,1,4,,
,,,,,,,,,,,,,,,89007,001,2022-04-23_21h11.36.534,SPAMnetsValid,2021.1.4,Win32,59.96641881,,,,,,,,,,,,,,,,,,,,,,,,,,,,,,,,,,,,,,,,,,,,,,,,,,,,,,,,,,,,,,,,,,,,,,,,,,,,,,4,3.079,0,4,4,4,1,Poetry has little or no effect on me.,1,5,,
,,,,,,,,,,,,,,,89007,001,2022-04-23_21h11.36.534,SPAMnetsValid,2021.1.4,Win32,59.96641881,,,,,,,,,,,,,,,,,,,,,,,,,,,,,,,,,,,,,,,,,,,,,,,,,,,,,,,,,,,,,,,,,,,,,,,,,,,,,,2,7.9808,0,5,5,5,1,I would have difficulty just letting my mind wander without control or guidance.,1,6,,
,,,,,,,,,,,,,,,89007,001,2022-04-23_21h11.36.534,SPAMnetsValid,2021.1.4,Win32,59.96641881,,,,,,,,,,,,,,,,,,,,,,,,,,,,,,,,,,,,,,,,,,,,,,,,,,,,,,,,,,,,,,,,,,,,,,,,,,,,,,2,17.5314,0,6,6,6,1,I seldom notice the moods or feelings that different environments produce.,1,7,,
,,,,,,,,,,,,,,,89007,001,2022-04-23_21h11.36.534,SPAMnetsValid,2021.1.4,Win32,59.96641881,,,,,,,,,,,,,,,,,,,,,,,,,,,,,,,,,,,,,,,,,,,,,,,,,,,,,,,,,,,,,,,,,,,,,,,,,,,,,,3,82.7082,0,7,7,7,1,I experience a wide range of emotions or feelings.,0,8,,
,,,,,,,,,,,,,,,89007,001,2022-04-23_21h11.36.534,SPAMnetsValid,2021.1.4,Win32,59.96641881,,,,,,,,,,,,,,,,,,,,,,,,,,,,,,,,,,,,,,,,,,,,,,,,,,,,,,,,,,,,,,,,,,,,,,,,,,,,,,4,7.8163,0,8,8,8,1,"Sometimes when I am reading poetry or looking at a work of art, I feel a chill or wave of excitement.",0,9,,
,,,,,,,,,,,,,,,89007,001,2022-04-23_21h11.36.534,SPAMnetsValid,2021.1.4,Win32,59.96641881,,,,,,,,,,,,,,,,,,,,,,,,,,,,,,,,,,,,,,,,,,,,,,,,,,,,,,,,,,,,,,,,,,,,,,,,,,,,,,2,5.2583,0,9,9,9,1,I have little interest in speculating on the nature of the universe or the human condition.,1,10,,
,,,,,,,,,,,,,,,89007,001,2022-04-23_21h11.36.534,SPAMnetsValid,2021.1.4,Win32,59.96641881,,,,,,,,,,,,,,,,,,,,,,,,,,,,,,,,,,,,,,,,,,,,,,,,,,,,,,,,,,,,,,,,,,,,,,,,,,,,,,4,2.1588,0,10,10,10,1,I have a lot of intellectual curiosity.,0,11,,
,,,,,,,,,,,,,,,89007,001,2022-04-23_21h11.36.534,SPAMnetsValid,2021.1.4,Win32,59.96641881,,,,,,,,,,,,,,,,,,,,,,,,,,,,,,,,,,,,,,,,,,,,,,,,,,,,,,,,,,,,,,,,,,,,,,,,,,,,,,3,2.2502,0,11,11,11,1,I often enjoy playing with theories or abstract ideas.,0,12,,
,,,,,,,,,,,,,,,89007,001,2022-04-23_21h11.36.534,SPAMnetsValid,2021.1.4,Win32,59.96641881,,,,,,,,,,,,,,,,,,,,,,,,,,,,,,,,,,,,,,,,,,,,,,,,,,,,,,,,,,,,,,,,,,,,,,,,,,,,,,,,,,,,,,,,return,10.3953
