key_resp_3.keys,key_resp_3.rt,slider.response,slider.rt,rjt_rating,rjt_RT,trials_22.thisRepN,trials_22.thisTrialN,trials_22.thisN,trials_22.thisIndex,trials_22.ran,rjt_order,word1,word2,attention,participant,session,date,expName,psychopyVersion,OS,frameRate,trials_99.thisRepN,trials_99.thisTrialN,trials_99.thisN,trials_99.thisIndex,trials_99.ran,trials_5.thisRepN,trials_5.thisTrialN,trials_5.thisN,trials_5.thisIndex,trials_5.ran,repOne,repTwo,slider_2.response,slider_2.rt,trials_24.thisRepN,trials_24.thisTrialN,trials_24.thisN,trials_24.thisIndex,trials_24.ran,trials_4.thisRepN,trials_4.thisTrialN,trials_4.thisN,trials_4.thisIndex,trials_4.ran,slider_extend_2.response,slider_extend_2.rt,trials_6.thisRepN,trials_6.thisTrialN,trials_6.thisN,trials_6.thisIndex,trials_6.ran,vCue2,R1,R2,R3,R4,correct,sliderVocab.response,sliderVocab.rt,trials_7.thisRepN,trials_7.thisTrialN,trials_7.thisN,trials_7.thisIndex,trials_7.ran,VocabCue,VR1,VR2,VR3,VR4,VR5,VocabCorrect,AUT_resp,AUT_label,trials.thisRepN,trials.thisTrialN,trials.thisN,trials.thisIndex,trials.ran,trials_2.thisRepN,trials_2.thisTrialN,trials_2.thisN,trials_2.thisIndex,trials_2.ran,aut_prompt,VF_response,VF_tag,trials_16.thisRepN,trials_16.thisTrialN,trials_16.thisN,trials_16.thisIndex,trials_16.ran,trials_17.thisRepN,trials_17.thisTrialN,trials_17.thisN,trials_17.thisIndex,trials_17.ran,VFcond,open_slider.response,open_slider.rt,trials_3.thisRepN,trials_3.thisTrialN,trials_3.thisN,trials_3.thisIndex,trials_3.ran,OpenQ,Rev,OPEN_ORDER,key_resp_2.keys,key_resp_2.rt
return,22.31,8,4.828,8,4.828,0,0,0,83,1,6,garden,onion,,89029,001,2022-04-29_09h45.30.405,SPAMnetsValid,2021.1.4,MacIntel,90.90909091,,,,,,,,,,,,,,,,,,,,,,,,,,,,,,,,,,,,,,,,,,,,,,,,,,,,,,,,,,,,,,,,,,,,,,,,,,,,,,,,,,,,,,,,,
,,2,3.074,2,3.074,0,1,1,71,1,38,pretzel,refrigerator,,89029,001,2022-04-29_09h45.30.405,SPAMnetsValid,2021.1.4,MacIntel,90.90909091,,,,,,,,,,,,,,,,,,,,,,,,,,,,,,,,,,,,,,,,,,,,,,,,,,,,,,,,,,,,,,,,,,,,,,,,,,,,,,,,,,,,,,,,,
,,9,2.367,9,2.367,0,2,2,58,1,94,kitchen,microwave,,89029,001,2022-04-29_09h45.30.405,SPAMnetsValid,2021.1.4,MacIntel,90.90909091,,,,,,,,,,,,,,,,,,,,,,,,,,,,,,,,,,,,,,,,,,,,,,,,,,,,,,,,,,,,,,,,,,,,,,,,,,,,,,,,,,,,,,,,,
,,1,2.083,1,2.083,0,3,3,92,1,44,cookie,melon,,89029,001,2022-04-29_09h45.30.405,SPAMnetsValid,2021.1.4,MacIntel,90.90909091,,,,,,,,,,,,,,,,,,,,,,,,,,,,,,,,,,,,,,,,,,,,,,,,,,,,,,,,,,,,,,,,,,,,,,,,,,,,,,,,,,,,,,,,,
,,6,2.017,6,2.017,0,4,4,41,1,19,microwave,pretzel,,89029,001,2022-04-29_09h45.30.405,SPAMnetsValid,2021.1.4,MacIntel,90.90909091,,,,,,,,,,,,,,,,,,,,,,,,,,,,,,,,,,,,,,,,,,,,,,,,,,,,,,,,,,,,,,,,,,,,,,,,,,,,,,,,,,,,,,,,,
,,1,1.827,1,1.827,0,5,5,8,1,43,chocolate,tomato,,89029,001,2022-04-29_09h45.30.405,SPAMnetsValid,2021.1.4,MacIntel,90.90909091,,,,,,,,,,,,,,,,,,,,,,,,,,,,,,,,,,,,,,,,,,,,,,,,,,,,,,,,,,,,,,,,,,,,,,,,,,,,,,,,,,,,,,,,,
,,9,1.846,9,1.846,0,6,6,10,1,191,cake,cake,CHECK,89029,001,2022-04-29_09h45.30.405,SPAMnetsValid,2021.1.4,MacIntel,90.90909091,,,,,,,,,,,,,,,,,,,,,,,,,,,,,,,,,,,,,,,,,,,,,,,,,,,,,,,,,,,,,,,,,,,,,,,,,,,,,,,,,,,,,,,,,
,,6,2.418,6,2.418,0,7,7,34,1,29,chocolate,melon,,89029,001,2022-04-29_09h45.30.405,SPAMnetsValid,2021.1.4,MacIntel,90.90909091,,,,,,,,,,,,,,,,,,,,,,,,,,,,,,,,,,,,,,,,,,,,,,,,,,,,,,,,,,,,,,,,,,,,,,,,,,,,,,,,,,,,,,,,,
,,6,2.104,6,2.104,0,8,8,24,1,17,carrot,melon,,89029,001,2022-04-29_09h45.30.405,SPAMnetsValid,2021.1.4,MacIntel,90.90909091,,,,,,,,,,,,,,,,,,,,,,,,,,,,,,,,,,,,,,,,,,,,,,,,,,,,,,,,,,,,,,,,,,,,,,,,,,,,,,,,,,,,,,,,,
,,2,2.198,2,2.198,0,9,9,88,1,92,broom,flower,,89029,001,2022-04-29_09h45.30.405,SPAMnetsValid,2021.1.4,MacIntel,90.90909091,,,,,,,,,,,,,,,,,,,,,,,,,,,,,,,,,,,,,,,,,,,,,,,,,,,,,,,,,,,,,,,,,,,,,,,,,,,,,,,,,,,,,,,,,
,,9,2.506,9,2.506,0,10,10,76,1,36,broom,kitchen,,89029,001,2022-04-29_09h45.30.405,SPAMnetsValid,2021.1.4,MacIntel,90.90909091,,,,,,,,,,,,,,,,,,,,,,,,,,,,,,,,,,,,,,,,,,,,,,,,,,,,,,,,,,,,,,,,,,,,,,,,,,,,,,,,,,,,,,,,,
,,2,16.813,2,16.813,0,11,11,50,1,81,pretzel,yogurt,,89029,001,2022-04-29_09h45.30.405,SPAMnetsValid,2021.1.4,MacIntel,90.90909091,,,,,,,,,,,,,,,,,,,,,,,,,,,,,,,,,,,,,,,,,,,,,,,,,,,,,,,,,,,,,,,,,,,,,,,,,,,,,,,,,,,,,,,,,
,,2,1.367,2,1.367,0,12,12,62,1,18,onion,refrigerator,,89029,001,2022-04-29_09h45.30.405,SPAMnetsValid,2021.1.4,MacIntel,90.90909091,,,,,,,,,,,,,,,,,,,,,,,,,,,,,,,,,,,,,,,,,,,,,,,,,,,,,,,,,,,,,,,,,,,,,,,,,,,,,,,,,,,,,,,,,
,,7,2.043,7,2.043,0,13,13,36,1,12,cookie,yogurt,,89029,001,2022-04-29_09h45.30.405,SPAMnetsValid,2021.1.4,MacIntel,90.90909091,,,,,,,,,,,,,,,,,,,,,,,,,,,,,,,,,,,,,,,,,,,,,,,,,,,,,,,,,,,,,,,,,,,,,,,,,,,,,,,,,,,,,,,,,
,,7,1.401,7,1.401,0,14,14,37,1,58,garden,oven,,89029,001,2022-04-29_09h45.30.405,SPAMnetsValid,2021.1.4,MacIntel,90.90909091,,,,,,,,,,,,,,,,,,,,,,,,,,,,,,,,,,,,,,,,,,,,,,,,,,,,,,,,,,,,,,,,,,,,,,,,,,,,,,,,,,,,,,,,,
,,6,33.457,6,33.457,0,15,15,45,1,10,flower,onion,,89029,001,2022-04-29_09h45.30.405,SPAMnetsValid,2021.1.4,MacIntel,90.90909091,,,,,,,,,,,,,,,,,,,,,,,,,,,,,,,,,,,,,,,,,,,,,,,,,,,,,,,,,,,,,,,,,,,,,,,,,,,,,,,,,,,,,,,,,
,,2,1.516,2,1.516,0,16,16,56,1,78,cookie,rose,,89029,001,2022-04-29_09h45.30.405,SPAMnetsValid,2021.1.4,MacIntel,90.90909091,,,,,,,,,,,,,,,,,,,,,,,,,,,,,,,,,,,,,,,,,,,,,,,,,,,,,,,,,,,,,,,,,,,,,,,,,,,,,,,,,,,,,,,,,
,,1,2.054,1,2.054,0,17,17,47,1,73,broom,chocolate,,89029,001,2022-04-29_09h45.30.405,SPAMnetsValid,2021.1.4,MacIntel,90.90909091,,,,,,,,,,,,,,,,,,,,,,,,,,,,,,,,,,,,,,,,,,,,,,,,,,,,,,,,,,,,,,,,,,,,,,,,,,,,,,,,,,,,,,,,,
,,1,1.335,1,1.335,0,18,18,79,1,86,oven,rose,,89029,001,2022-04-29_09h45.30.405,SPAMnetsValid,2021.1.4,MacIntel,90.90909091,,,,,,,,,,,,,,,,,,,,,,,,,,,,,,,,,,,,,,,,,,,,,,,,,,,,,,,,,,,,,,,,,,,,,,,,,,,,,,,,,,,,,,,,,
,,1,1.207,1,1.207,0,19,19,74,1,70,chocolate,onion,,89029,001,2022-04-29_09h45.30.405,SPAMnetsValid,2021.1.4,MacIntel,90.90909091,,,,,,,,,,,,,,,,,,,,,,,,,,,,,,,,,,,,,,,,,,,,,,,,,,,,,,,,,,,,,,,,,,,,,,,,,,,,,,,,,,,,,,,,,
,,9,2.491,9,2.491,0,20,20,22,1,16,chocolate,flower,,89029,001,2022-04-29_09h45.30.405,SPAMnetsValid,2021.1.4,MacIntel,90.90909091,,,,,,,,,,,,,,,,,,,,,,,,,,,,,,,,,,,,,,,,,,,,,,,,,,,,,,,,,,,,,,,,,,,,,,,,,,,,,,,,,,,,,,,,,
,,3,1.861,3,1.861,0,21,21,77,1,7,melon,tree,,89029,001,2022-04-29_09h45.30.405,SPAMnetsValid,2021.1.4,MacIntel,90.90909091,,,,,,,,,,,,,,,,,,,,,,,,,,,,,,,,,,,,,,,,,,,,,,,,,,,,,,,,,,,,,,,,,,,,,,,,,,,,,,,,,,,,,,,,,
,,2,2.404,2,2.404,0,22,22,43,1,11,refrigerator,tree,,89029,001,2022-04-29_09h45.30.405,SPAMnetsValid,2021.1.4,MacIntel,90.90909091,,,,,,,,,,,,,,,,,,,,,,,,,,,,,,,,,,,,,,,,,,,,,,,,,,,,,,,,,,,,,,,,,,,,,,,,,,,,,,,,,,,,,,,,,
,,2,1.144,2,1.144,0,23,23,32,1,40,broom,cake,,89029,001,2022-04-29_09h45.30.405,SPAMnetsValid,2021.1.4,MacIntel,90.90909091,,,,,,,,,,,,,,,,,,,,,,,,,,,,,,,,,,,,,,,,,,,,,,,,,,,,,,,,,,,,,,,,,,,,,,,,,,,,,,,,,,,,,,,,,
,,9,1.501,9,1.501,0,24,24,60,1,89,chocolate,rose,,89029,001,2022-04-29_09h45.30.405,SPAMnetsValid,2021.1.4,MacIntel,90.90909091,,,,,,,,,,,,,,,,,,,,,,,,,,,,,,,,,,,,,,,,,,,,,,,,,,,,,,,,,,,,,,,,,,,,,,,,,,,,,,,,,,,,,,,,,
,,1,1.859,1,1.859,0,25,25,40,1,74,broom,pretzel,,89029,001,2022-04-29_09h45.30.405,SPAMnetsValid,2021.1.4,MacIntel,90.90909091,,,,,,,,,,,,,,,,,,,,,,,,,,,,,,,,,,,,,,,,,,,,,,,,,,,,,,,,,,,,,,,,,,,,,,,,,,,,,,,,,,,,,,,,,
,,8,1.667,8,1.667,0,26,26,96,1,82,cake,kitchen,,89029,001,2022-04-29_09h45.30.405,SPAMnetsValid,2021.1.4,MacIntel,90.90909091,,,,,,,,,,,,,,,,,,,,,,,,,,,,,,,,,,,,,,,,,,,,,,,,,,,,,,,,,,,,,,,,,,,,,,,,,,,,,,,,,,,,,,,,,
,,3,1.156,3,1.156,0,27,27,54,1,28,cake,melon,,89029,001,2022-04-29_09h45.30.405,SPAMnetsValid,2021.1.4,MacIntel,90.90909091,,,,,,,,,,,,,,,,,,,,,,,,,,,,,,,,,,,,,,,,,,,,,,,,,,,,,,,,,,,,,,,,,,,,,,,,,,,,,,,,,,,,,,,,,
,,2,2.145,2,2.145,0,28,28,84,1,91,microwave,rose,,89029,001,2022-04-29_09h45.30.405,SPAMnetsValid,2021.1.4,MacIntel,90.90909091,,,,,,,,,,,,,,,,,,,,,,,,,,,,,,,,,,,,,,,,,,,,,,,,,,,,,,,,,,,,,,,,,,,,,,,,,,,,,,,,,,,,,,,,,
,,2,2.793,2,2.793,0,29,29,73,1,50,carrot,rose,,89029,001,2022-04-29_09h45.30.405,SPAMnetsValid,2021.1.4,MacIntel,90.90909091,,,,,,,,,,,,,,,,,,,,,,,,,,,,,,,,,,,,,,,,,,,,,,,,,,,,,,,,,,,,,,,,,,,,,,,,,,,,,,,,,,,,,,,,,
,,6,2.042,6,2.042,0,30,30,23,1,65,broom,garden,,89029,001,2022-04-29_09h45.30.405,SPAMnetsValid,2021.1.4,MacIntel,90.90909091,,,,,,,,,,,,,,,,,,,,,,,,,,,,,,,,,,,,,,,,,,,,,,,,,,,,,,,,,,,,,,,,,,,,,,,,,,,,,,,,,,,,,,,,,
,,8,2.168,8,2.168,0,31,31,44,1,25,carrot,onion,,89029,001,2022-04-29_09h45.30.405,SPAMnetsValid,2021.1.4,MacIntel,90.90909091,,,,,,,,,,,,,,,,,,,,,,,,,,,,,,,,,,,,,,,,,,,,,,,,,,,,,,,,,,,,,,,,,,,,,,,,,,,,,,,,,,,,,,,,,
,,2,1.684,2,1.684,0,32,32,15,1,48,flower,oven,,89029,001,2022-04-29_09h45.30.405,SPAMnetsValid,2021.1.4,MacIntel,90.90909091,,,,,,,,,,,,,,,,,,,,,,,,,,,,,,,,,,,,,,,,,,,,,,,,,,,,,,,,,,,,,,,,,,,,,,,,,,,,,,,,,,,,,,,,,
,,8,1.399,8,1.399,0,33,33,93,1,63,cake,cookie,,89029,001,2022-04-29_09h45.30.405,SPAMnetsValid,2021.1.4,MacIntel,90.90909091,,,,,,,,,,,,,,,,,,,,,,,,,,,,,,,,,,,,,,,,,,,,,,,,,,,,,,,,,,,,,,,,,,,,,,,,,,,,,,,,,,,,,,,,,
,,9,1.272,9,1.272,0,34,34,52,1,4,chocolate,pretzel,,89029,001,2022-04-29_09h45.30.405,SPAMnetsValid,2021.1.4,MacIntel,90.90909091,,,,,,,,,,,,,,,,,,,,,,,,,,,,,,,,,,,,,,,,,,,,,,,,,,,,,,,,,,,,,,,,,,,,,,,,,,,,,,,,,,,,,,,,,
,,9,1.357,9,1.357,0,35,35,75,1,69,carrot,refrigerator,,89029,001,2022-04-29_09h45.30.405,SPAMnetsValid,2021.1.4,MacIntel,90.90909091,,,,,,,,,,,,,,,,,,,,,,,,,,,,,,,,,,,,,,,,,,,,,,,,,,,,,,,,,,,,,,,,,,,,,,,,,,,,,,,,,,,,,,,,,
,,2,1.816,2,1.816,0,36,36,85,1,90,cactus,cake,,89029,001,2022-04-29_09h45.30.405,SPAMnetsValid,2021.1.4,MacIntel,90.90909091,,,,,,,,,,,,,,,,,,,,,,,,,,,,,,,,,,,,,,,,,,,,,,,,,,,,,,,,,,,,,,,,,,,,,,,,,,,,,,,,,,,,,,,,,
,,9,1.536,9,1.536,0,37,37,82,1,93,kitchen,oven,,89029,001,2022-04-29_09h45.30.405,SPAMnetsValid,2021.1.4,MacIntel,90.90909091,,,,,,,,,,,,,,,,,,,,,,,,,,,,,,,,,,,,,,,,,,,,,,,,,,,,,,,,,,,,,,,,,,,,,,,,,,,,,,,,,,,,,,,,,
,,1,1.519,1,1.519,0,38,38,16,1,14,broom,cookie,,89029,001,2022-04-29_09h45.30.405,SPAMnetsValid,2021.1.4,MacIntel,90.90909091,,,,,,,,,,,,,,,,,,,,,,,,,,,,,,,,,,,,,,,,,,,,,,,,,,,,,,,,,,,,,,,,,,,,,,,,,,,,,,,,,,,,,,,,,
,,8,1.653,8,1.653,0,39,39,39,1,15,onion,oven,,89029,001,2022-04-29_09h45.30.405,SPAMnetsValid,2021.1.4,MacIntel,90.90909091,,,,,,,,,,,,,,,,,,,,,,,,,,,,,,,,,,,,,,,,,,,,,,,,,,,,,,,,,,,,,,,,,,,,,,,,,,,,,,,,,,,,,,,,,
,,8,1.974,8,1.974,0,40,40,81,1,60,cactus,onion,,89029,001,2022-04-29_09h45.30.405,SPAMnetsValid,2021.1.4,MacIntel,90.90909091,,,,,,,,,,,,,,,,,,,,,,,,,,,,,,,,,,,,,,,,,,,,,,,,,,,,,,,,,,,,,,,,,,,,,,,,,,,,,,,,,,,,,,,,,
,,2,1.372,2,1.372,0,41,41,63,1,21,cake,onion,,89029,001,2022-04-29_09h45.30.405,SPAMnetsValid,2021.1.4,MacIntel,90.90909091,,,,,,,,,,,,,,,,,,,,,,,,,,,,,,,,,,,,,,,,,,,,,,,,,,,,,,,,,,,,,,,,,,,,,,,,,,,,,,,,,,,,,,,,,
,,2,1.292,2,1.292,0,42,42,46,1,41,broom,cactus,,89029,001,2022-04-29_09h45.30.405,SPAMnetsValid,2021.1.4,MacIntel,90.90909091,,,,,,,,,,,,,,,,,,,,,,,,,,,,,,,,,,,,,,,,,,,,,,,,,,,,,,,,,,,,,,,,,,,,,,,,,,,,,,,,,,,,,,,,,
,,8,1.923,8,1.923,0,43,43,69,1,45,onion,pretzel,,89029,001,2022-04-29_09h45.30.405,SPAMnetsValid,2021.1.4,MacIntel,90.90909091,,,,,,,,,,,,,,,,,,,,,,,,,,,,,,,,,,,,,,,,,,,,,,,,,,,,,,,,,,,,,,,,,,,,,,,,,,,,,,,,,,,,,,,,,
,,8,1.15,8,1.15,0,44,44,72,1,59,rose,strawberry,,89029,001,2022-04-29_09h45.30.405,SPAMnetsValid,2021.1.4,MacIntel,90.90909091,,,,,,,,,,,,,,,,,,,,,,,,,,,,,,,,,,,,,,,,,,,,,,,,,,,,,,,,,,,,,,,,,,,,,,,,,,,,,,,,,,,,,,,,,
,,3,1.321,3,1.321,0,45,45,59,1,8,broom,melon,,89029,001,2022-04-29_09h45.30.405,SPAMnetsValid,2021.1.4,MacIntel,90.90909091,,,,,,,,,,,,,,,,,,,,,,,,,,,,,,,,,,,,,,,,,,,,,,,,,,,,,,,,,,,,,,,,,,,,,,,,,,,,,,,,,,,,,,,,,
,,3,1.533,3,1.533,0,46,46,80,1,61,strawberry,tomato,,89029,001,2022-04-29_09h45.30.405,SPAMnetsValid,2021.1.4,MacIntel,90.90909091,,,,,,,,,,,,,,,,,,,,,,,,,,,,,,,,,,,,,,,,,,,,,,,,,,,,,,,,,,,,,,,,,,,,,,,,,,,,,,,,,,,,,,,,,
,,2,2.789,2,2.789,0,47,47,31,1,33,oven,yogurt,,89029,001,2022-04-29_09h45.30.405,SPAMnetsValid,2021.1.4,MacIntel,90.90909091,,,,,,,,,,,,,,,,,,,,,,,,,,,,,,,,,,,,,,,,,,,,,,,,,,,,,,,,,,,,,,,,,,,,,,,,,,,,,,,,,,,,,,,,,
,,2,1.554,2,1.554,0,48,48,4,1,83,broom,carrot,,89029,001,2022-04-29_09h45.30.405,SPAMnetsValid,2021.1.4,MacIntel,90.90909091,,,,,,,,,,,,,,,,,,,,,,,,,,,,,,,,,,,,,,,,,,,,,,,,,,,,,,,,,,,,,,,,,,,,,,,,,,,,,,,,,,,,,,,,,
,,2,1.34,2,1.34,0,49,49,20,1,39,melon,pretzel,,89029,001,2022-04-29_09h45.30.405,SPAMnetsValid,2021.1.4,MacIntel,90.90909091,,,,,,,,,,,,,,,,,,,,,,,,,,,,,,,,,,,,,,,,,,,,,,,,,,,,,,,,,,,,,,,,,,,,,,,,,,,,,,,,,,,,,,,,,
,,1,2.374,1,2.374,0,50,50,18,1,85,cake,tree,,89029,001,2022-04-29_09h45.30.405,SPAMnetsValid,2021.1.4,MacIntel,90.90909091,,,,,,,,,,,,,,,,,,,,,,,,,,,,,,,,,,,,,,,,,,,,,,,,,,,,,,,,,,,,,,,,,,,,,,,,,,,,,,,,,,,,,,,,,
,,9,1.328,9,1.328,0,51,51,87,1,79,garden,strawberry,,89029,001,2022-04-29_09h45.30.405,SPAMnetsValid,2021.1.4,MacIntel,90.90909091,,,,,,,,,,,,,,,,,,,,,,,,,,,,,,,,,,,,,,,,,,,,,,,,,,,,,,,,,,,,,,,,,,,,,,,,,,,,,,,,,,,,,,,,,
,,3,1.27,3,1.27,0,52,52,17,1,27,cactus,cookie,,89029,001,2022-04-29_09h45.30.405,SPAMnetsValid,2021.1.4,MacIntel,90.90909091,,,,,,,,,,,,,,,,,,,,,,,,,,,,,,,,,,,,,,,,,,,,,,,,,,,,,,,,,,,,,,,,,,,,,,,,,,,,,,,,,,,,,,,,,
,,7,1.291,7,1.291,0,53,53,3,1,49,flower,strawberry,,89029,001,2022-04-29_09h45.30.405,SPAMnetsValid,2021.1.4,MacIntel,90.90909091,,,,,,,,,,,,,,,,,,,,,,,,,,,,,,,,,,,,,,,,,,,,,,,,,,,,,,,,,,,,,,,,,,,,,,,,,,,,,,,,,,,,,,,,,
,,3,1.201,3,1.201,0,54,54,28,1,84,oven,tomato,,89029,001,2022-04-29_09h45.30.405,SPAMnetsValid,2021.1.4,MacIntel,90.90909091,,,,,,,,,,,,,,,,,,,,,,,,,,,,,,,,,,,,,,,,,,,,,,,,,,,,,,,,,,,,,,,,,,,,,,,,,,,,,,,,,,,,,,,,,
,,7,1.051,7,1.051,0,55,55,78,1,30,cookie,pretzel,,89029,001,2022-04-29_09h45.30.405,SPAMnetsValid,2021.1.4,MacIntel,90.90909091,,,,,,,,,,,,,,,,,,,,,,,,,,,,,,,,,,,,,,,,,,,,,,,,,,,,,,,,,,,,,,,,,,,,,,,,,,,,,,,,,,,,,,,,,
,,7,1.568,7,1.568,0,56,56,2,1,22,kitchen,strawberry,,89029,001,2022-04-29_09h45.30.405,SPAMnetsValid,2021.1.4,MacIntel,90.90909091,,,,,,,,,,,,,,,,,,,,,,,,,,,,,,,,,,,,,,,,,,,,,,,,,,,,,,,,,,,,,,,,,,,,,,,,,,,,,,,,,,,,,,,,,
,,8,1.397,8,1.397,0,57,57,33,1,32,cake,microwave,,89029,001,2022-04-29_09h45.30.405,SPAMnetsValid,2021.1.4,MacIntel,90.90909091,,,,,,,,,,,,,,,,,,,,,,,,,,,,,,,,,,,,,,,,,,,,,,,,,,,,,,,,,,,,,,,,,,,,,,,,,,,,,,,,,,,,,,,,,
,,1,1.495,1,1.495,0,58,58,70,1,5,oven,tree,,89029,001,2022-04-29_09h45.30.405,SPAMnetsValid,2021.1.4,MacIntel,90.90909091,,,,,,,,,,,,,,,,,,,,,,,,,,,,,,,,,,,,,,,,,,,,,,,,,,,,,,,,,,,,,,,,,,,,,,,,,,,,,,,,,,,,,,,,,
,,2,0.901,2,0.901,0,59,59,65,1,46,garden,yogurt,,89029,001,2022-04-29_09h45.30.405,SPAMnetsValid,2021.1.4,MacIntel,90.90909091,,,,,,,,,,,,,,,,,,,,,,,,,,,,,,,,,,,,,,,,,,,,,,,,,,,,,,,,,,,,,,,,,,,,,,,,,,,,,,,,,,,,,,,,,
,,2,2.16,2,2.16,0,60,60,5,1,13,broom,yogurt,,89029,001,2022-04-29_09h45.30.405,SPAMnetsValid,2021.1.4,MacIntel,90.90909091,,,,,,,,,,,,,,,,,,,,,,,,,,,,,,,,,,,,,,,,,,,,,,,,,,,,,,,,,,,,,,,,,,,,,,,,,,,,,,,,,,,,,,,,,
,,9,1.522,9,1.522,0,61,61,19,1,76,garden,rose,,89029,001,2022-04-29_09h45.30.405,SPAMnetsValid,2021.1.4,MacIntel,90.90909091,,,,,,,,,,,,,,,,,,,,,,,,,,,,,,,,,,,,,,,,,,,,,,,,,,,,,,,,,,,,,,,,,,,,,,,,,,,,,,,,,,,,,,,,,
,,7,1.594,7,1.594,0,62,62,21,1,56,cactus,tree,,89029,001,2022-04-29_09h45.30.405,SPAMnetsValid,2021.1.4,MacIntel,90.90909091,,,,,,,,,,,,,,,,,,,,,,,,,,,,,,,,,,,,,,,,,,,,,,,,,,,,,,,,,,,,,,,,,,,,,,,,,,,,,,,,,,,,,,,,,
,,3,2.272,3,2.272,0,63,63,11,1,37,garden,refrigerator,,89029,001,2022-04-29_09h45.30.405,SPAMnetsValid,2021.1.4,MacIntel,90.90909091,,,,,,,,,,,,,,,,,,,,,,,,,,,,,,,,,,,,,,,,,,,,,,,,,,,,,,,,,,,,,,,,,,,,,,,,,,,,,,,,,,,,,,,,,
,,2,1.446,2,1.446,0,64,64,13,1,26,tomato,yogurt,,89029,001,2022-04-29_09h45.30.405,SPAMnetsValid,2021.1.4,MacIntel,90.90909091,,,,,,,,,,,,,,,,,,,,,,,,,,,,,,,,,,,,,,,,,,,,,,,,,,,,,,,,,,,,,,,,,,,,,,,,,,,,,,,,,,,,,,,,,
,,7,1.185,7,1.185,0,65,65,38,1,88,cactus,melon,,89029,001,2022-04-29_09h45.30.405,SPAMnetsValid,2021.1.4,MacIntel,90.90909091,,,,,,,,,,,,,,,,,,,,,,,,,,,,,,,,,,,,,,,,,,,,,,,,,,,,,,,,,,,,,,,,,,,,,,,,,,,,,,,,,,,,,,,,,
,,8,1.608,8,1.608,0,66,66,64,1,9,kitchen,refrigerator,,89029,001,2022-04-29_09h45.30.405,SPAMnetsValid,2021.1.4,MacIntel,90.90909091,,,,,,,,,,,,,,,,,,,,,,,,,,,,,,,,,,,,,,,,,,,,,,,,,,,,,,,,,,,,,,,,,,,,,,,,,,,,,,,,,,,,,,,,,
,,9,1.438,9,1.438,0,67,67,42,1,77,refrigerator,yogurt,,89029,001,2022-04-29_09h45.30.405,SPAMnetsValid,2021.1.4,MacIntel,90.90909091,,,,,,,,,,,,,,,,,,,,,,,,,,,,,,,,,,,,,,,,,,,,,,,,,,,,,,,,,,,,,,,,,,,,,,,,,,,,,,,,,,,,,,,,,
,,8,0.765,8,0.765,0,68,68,91,1,2,kitchen,onion,,89029,001,2022-04-29_09h45.30.405,SPAMnetsValid,2021.1.4,MacIntel,90.90909091,,,,,,,,,,,,,,,,,,,,,,,,,,,,,,,,,,,,,,,,,,,,,,,,,,,,,,,,,,,,,,,,,,,,,,,,,,,,,,,,,,,,,,,,,
,,1,2.268,1,2.268,0,69,69,14,1,64,chocolate,garden,,89029,001,2022-04-29_09h45.30.405,SPAMnetsValid,2021.1.4,MacIntel,90.90909091,,,,,,,,,,,,,,,,,,,,,,,,,,,,,,,,,,,,,,,,,,,,,,,,,,,,,,,,,,,,,,,,,,,,,,,,,,,,,,,,,,,,,,,,,
,,2,1.211,2,1.211,0,70,70,27,1,72,broom,onion,,89029,001,2022-04-29_09h45.30.405,SPAMnetsValid,2021.1.4,MacIntel,90.90909091,,,,,,,,,,,,,,,,,,,,,,,,,,,,,,,,,,,,,,,,,,,,,,,,,,,,,,,,,,,,,,,,,,,,,,,,,,,,,,,,,,,,,,,,,
,,2,1.524,2,1.524,0,71,71,9,1,75,cookie,onion,,89029,001,2022-04-29_09h45.30.405,SPAMnetsValid,2021.1.4,MacIntel,90.90909091,,,,,,,,,,,,,,,,,,,,,,,,,,,,,,,,,,,,,,,,,,,,,,,,,,,,,,,,,,,,,,,,,,,,,,,,,,,,,,,,,,,,,,,,,
,,2,0.895,2,0.895,0,72,72,68,1,24,cookie,tomato,,89029,001,2022-04-29_09h45.30.405,SPAMnetsValid,2021.1.4,MacIntel,90.90909091,,,,,,,,,,,,,,,,,,,,,,,,,,,,,,,,,,,,,,,,,,,,,,,,,,,,,,,,,,,,,,,,,,,,,,,,,,,,,,,,,,,,,,,,,
,,2,1.248,2,1.248,0,73,73,12,1,67,flower,yogurt,,89029,001,2022-04-29_09h45.30.405,SPAMnetsValid,2021.1.4,MacIntel,90.90909091,,,,,,,,,,,,,,,,,,,,,,,,,,,,,,,,,,,,,,,,,,,,,,,,,,,,,,,,,,,,,,,,,,,,,,,,,,,,,,,,,,,,,,,,,
,,9,1.691,9,1.691,0,74,74,53,1,192,microwave,microwave,CHECK,89029,001,2022-04-29_09h45.30.405,SPAMnetsValid,2021.1.4,MacIntel,90.90909091,,,,,,,,,,,,,,,,,,,,,,,,,,,,,,,,,,,,,,,,,,,,,,,,,,,,,,,,,,,,,,,,,,,,,,,,,,,,,,,,,,,,,,,,,
,,3,1.1,3,1.1,0,75,75,7,1,34,melon,oven,,89029,001,2022-04-29_09h45.30.405,SPAMnetsValid,2021.1.4,MacIntel,90.90909091,,,,,,,,,,,,,,,,,,,,,,,,,,,,,,,,,,,,,,,,,,,,,,,,,,,,,,,,,,,,,,,,,,,,,,,,,,,,,,,,,,,,,,,,,
,,3,1.21,3,1.21,0,76,76,89,1,80,chocolate,tree,,89029,001,2022-04-29_09h45.30.405,SPAMnetsValid,2021.1.4,MacIntel,90.90909091,,,,,,,,,,,,,,,,,,,,,,,,,,,,,,,,,,,,,,,,,,,,,,,,,,,,,,,,,,,,,,,,,,,,,,,,,,,,,,,,,,,,,,,,,
,,3,1.304,3,1.304,0,77,77,26,1,35,flower,pretzel,,89029,001,2022-04-29_09h45.30.405,SPAMnetsValid,2021.1.4,MacIntel,90.90909091,,,,,,,,,,,,,,,,,,,,,,,,,,,,,,,,,,,,,,,,,,,,,,,,,,,,,,,,,,,,,,,,,,,,,,,,,,,,,,,,,,,,,,,,,
,,1,1.721,1,1.721,0,78,78,6,1,87,carrot,yogurt,,89029,001,2022-04-29_09h45.30.405,SPAMnetsValid,2021.1.4,MacIntel,90.90909091,,,,,,,,,,,,,,,,,,,,,,,,,,,,,,,,,,,,,,,,,,,,,,,,,,,,,,,,,,,,,,,,,,,,,,,,,,,,,,,,,,,,,,,,,
,,9,1.635,9,1.635,0,79,79,95,1,52,carrot,tomato,,89029,001,2022-04-29_09h45.30.405,SPAMnetsValid,2021.1.4,MacIntel,90.90909091,,,,,,,,,,,,,,,,,,,,,,,,,,,,,,,,,,,,,,,,,,,,,,,,,,,,,,,,,,,,,,,,,,,,,,,,,,,,,,,,,,,,,,,,,
,,3,1.626,3,1.626,0,80,80,48,1,66,melon,yogurt,,89029,001,2022-04-29_09h45.30.405,SPAMnetsValid,2021.1.4,MacIntel,90.90909091,,,,,,,,,,,,,,,,,,,,,,,,,,,,,,,,,,,,,,,,,,,,,,,,,,,,,,,,,,,,,,,,,,,,,,,,,,,,,,,,,,,,,,,,,
,,3,1.551,3,1.551,0,81,81,25,1,23,flower,microwave,,89029,001,2022-04-29_09h45.30.405,SPAMnetsValid,2021.1.4,MacIntel,90.90909091,,,,,,,,,,,,,,,,,,,,,,,,,,,,,,,,,,,,,,,,,,,,,,,,,,,,,,,,,,,,,,,,,,,,,,,,,,,,,,,,,,,,,,,,,
,,8,1.633,8,1.633,0,82,82,30,1,3,cake,oven,,89029,001,2022-04-29_09h45.30.405,SPAMnetsValid,2021.1.4,MacIntel,90.90909091,,,,,,,,,,,,,,,,,,,,,,,,,,,,,,,,,,,,,,,,,,,,,,,,,,,,,,,,,,,,,,,,,,,,,,,,,,,,,,,,,,,,,,,,,
,,6,2.398,6,2.398,0,83,83,29,1,42,garden,kitchen,,89029,001,2022-04-29_09h45.30.405,SPAMnetsValid,2021.1.4,MacIntel,90.90909091,,,,,,,,,,,,,,,,,,,,,,,,,,,,,,,,,,,,,,,,,,,,,,,,,,,,,,,,,,,,,,,,,,,,,,,,,,,,,,,,,,,,,,,,,
,,3,1.191,3,1.191,0,84,84,55,1,1,rose,yogurt,,89029,001,2022-04-29_09h45.30.405,SPAMnetsValid,2021.1.4,MacIntel,90.90909091,,,,,,,,,,,,,,,,,,,,,,,,,,,,,,,,,,,,,,,,,,,,,,,,,,,,,,,,,,,,,,,,,,,,,,,,,,,,,,,,,,,,,,,,,
,,3,1.182,3,1.182,0,85,85,49,1,57,flower,kitchen,,89029,001,2022-04-29_09h45.30.405,SPAMnetsValid,2021.1.4,MacIntel,90.90909091,,,,,,,,,,,,,,,,,,,,,,,,,,,,,,,,,,,,,,,,,,,,,,,,,,,,,,,,,,,,,,,,,,,,,,,,,,,,,,,,,,,,,,,,,
,,8,1.317,8,1.317,0,86,86,94,1,68,flower,tomato,,89029,001,2022-04-29_09h45.30.405,SPAMnetsValid,2021.1.4,MacIntel,90.90909091,,,,,,,,,,,,,,,,,,,,,,,,,,,,,,,,,,,,,,,,,,,,,,,,,,,,,,,,,,,,,,,,,,,,,,,,,,,,,,,,,,,,,,,,,
,,2,1.28,2,1.28,0,87,87,57,1,62,kitchen,rose,,89029,001,2022-04-29_09h45.30.405,SPAMnetsValid,2021.1.4,MacIntel,90.90909091,,,,,,,,,,,,,,,,,,,,,,,,,,,,,,,,,,,,,,,,,,,,,,,,,,,,,,,,,,,,,,,,,,,,,,,,,,,,,,,,,,,,,,,,,
,,2,0.951,2,0.951,0,88,88,1,1,31,cactus,pretzel,,89029,001,2022-04-29_09h45.30.405,SPAMnetsValid,2021.1.4,MacIntel,90.90909091,,,,,,,,,,,,,,,,,,,,,,,,,,,,,,,,,,,,,,,,,,,,,,,,,,,,,,,,,,,,,,,,,,,,,,,,,,,,,,,,,,,,,,,,,
,,7,1.266,7,1.266,0,89,89,51,1,47,onion,tomato,,89029,001,2022-04-29_09h45.30.405,SPAMnetsValid,2021.1.4,MacIntel,90.90909091,,,,,,,,,,,,,,,,,,,,,,,,,,,,,,,,,,,,,,,,,,,,,,,,,,,,,,,,,,,,,,,,,,,,,,,,,,,,,,,,,,,,,,,,,
,,3,1.441,3,1.441,0,90,90,86,1,51,onion,strawberry,,89029,001,2022-04-29_09h45.30.405,SPAMnetsValid,2021.1.4,MacIntel,90.90909091,,,,,,,,,,,,,,,,,,,,,,,,,,,,,,,,,,,,,,,,,,,,,,,,,,,,,,,,,,,,,,,,,,,,,,,,,,,,,,,,,,,,,,,,,
,,3,1.322,3,1.322,0,91,91,0,1,53,garden,pretzel,,89029,001,2022-04-29_09h45.30.405,SPAMnetsValid,2021.1.4,MacIntel,90.90909091,,,,,,,,,,,,,,,,,,,,,,,,,,,,,,,,,,,,,,,,,,,,,,,,,,,,,,,,,,,,,,,,,,,,,,,,,,,,,,,,,,,,,,,,,
,,1,1.137,1,1.137,0,92,92,67,1,54,chocolate,yogurt,,89029,001,2022-04-29_09h45.30.405,SPAMnetsValid,2021.1.4,MacIntel,90.90909091,,,,,,,,,,,,,,,,,,,,,,,,,,,,,,,,,,,,,,,,,,,,,,,,,,,,,,,,,,,,,,,,,,,,,,,,,,,,,,,,,,,,,,,,,
,,8,1.309,8,1.309,0,93,93,90,1,95,broom,refrigerator,,89029,001,2022-04-29_09h45.30.405,SPAMnetsValid,2021.1.4,MacIntel,90.90909091,,,,,,,,,,,,,,,,,,,,,,,,,,,,,,,,,,,,,,,,,,,,,,,,,,,,,,,,,,,,,,,,,,,,,,,,,,,,,,,,,,,,,,,,,
,,7,0.934,7,0.934,0,94,94,66,1,20,rose,tree,,89029,001,2022-04-29_09h45.30.405,SPAMnetsValid,2021.1.4,MacIntel,90.90909091,,,,,,,,,,,,,,,,,,,,,,,,,,,,,,,,,,,,,,,,,,,,,,,,,,,,,,,,,,,,,,,,,,,,,,,,,,,,,,,,,,,,,,,,,
,,6,1.671,6,1.671,0,95,95,35,1,55,tomato,tree,,89029,001,2022-04-29_09h45.30.405,SPAMnetsValid,2021.1.4,MacIntel,90.90909091,,,,,,,,,,,,,,,,,,,,,,,,,,,,,,,,,,,,,,,,,,,,,,,,,,,,,,,,,,,,,,,,,,,,,,,,,,,,,,,,,,,,,,,,,
,,3,0.94,3,0.94,0,96,96,61,1,71,broom,rose,,89029,001,2022-04-29_09h45.30.405,SPAMnetsValid,2021.1.4,MacIntel,90.90909091,,,,,,,,,,,,,,,,,,,,,,,,,,,,,,,,,,,,,,,,,,,,,,,,,,,,,,,,,,,,,,,,,,,,,,,,,,,,,,,,,,,,,,,,,
,,,,,,,,,,,,,,,89029,001,2022-04-29_09h45.30.405,SPAMnetsValid,2021.1.4,MacIntel,90.90909091,0,0,0,0,1,,,,,,,,,,,,,,,,,,,,,,,,,,,,,,,,,,,,,,,,,,,,,,,,,,,,,,,,,,,,,,,,,,,,,,,,,,,,,,,,,,,,
,,,,,,,,,,,,,,,89029,001,2022-04-29_09h45.30.405,SPAMnetsValid,2021.1.4,MacIntel,90.90909091,,,,,,0,0,0,0,1,1,0,,,,,,,,,,,,,,,,,,,,,,,,,,,,,,,,,,,,,,,,,,,,,,,,,,,,,,,,,,,,,,,,,,,,,,,,,,,,,
,,,,9,3.557,,,,,,138,flower,rose,,89029,001,2022-04-29_09h45.30.405,SPAMnetsValid,2021.1.4,MacIntel,90.90909091,,,,,,,,,,,,,9,3.557,0,0,0,61,1,,,,,,,,,,,,,,,,,,,,,,,,,,,,,,,,,,,,,,,,,,,,,,,,,,,,,,,,,,,,,,,,,,,,,,
,,,,7,0.922,,,,,,170,cookie,microwave,,89029,001,2022-04-29_09h45.30.405,SPAMnetsValid,2021.1.4,MacIntel,90.90909091,,,,,,,,,,,,,7,0.922,0,1,1,92,1,,,,,,,,,,,,,,,,,,,,,,,,,,,,,,,,,,,,,,,,,,,,,,,,,,,,,,,,,,,,,,,,,,,,,,
,,,,1,1.041,,,,,,165,onion,rose,,89029,001,2022-04-29_09h45.30.405,SPAMnetsValid,2021.1.4,MacIntel,90.90909091,,,,,,,,,,,,,1,1.041,0,2,2,40,1,,,,,,,,,,,,,,,,,,,,,,,,,,,,,,,,,,,,,,,,,,,,,,,,,,,,,,,,,,,,,,,,,,,,,,
,,,,7,1.849,,,,,,181,carrot,kitchen,,89029,001,2022-04-29_09h45.30.405,SPAMnetsValid,2021.1.4,MacIntel,90.90909091,,,,,,,,,,,,,7,1.849,0,3,3,72,1,,,,,,,,,,,,,,,,,,,,,,,,,,,,,,,,,,,,,,,,,,,,,,,,,,,,,,,,,,,,,,,,,,,,,,
,,,,6,1.973,,,,,,161,kitchen,pretzel,,89029,001,2022-04-29_09h45.30.405,SPAMnetsValid,2021.1.4,MacIntel,90.90909091,,,,,,,,,,,,,6,1.973,0,4,4,36,1,,,,,,,,,,,,,,,,,,,,,,,,,,,,,,,,,,,,,,,,,,,,,,,,,,,,,,,,,,,,,,,,,,,,,,
,,,,3,3.008,,,,,,137,microwave,tree,,89029,001,2022-04-29_09h45.30.405,SPAMnetsValid,2021.1.4,MacIntel,90.90909091,,,,,,,,,,,,,3,3.008,0,5,5,63,1,,,,,,,,,,,,,,,,,,,,,,,,,,,,,,,,,,,,,,,,,,,,,,,,,,,,,,,,,,,,,,,,,,,,,,
,,,,9,1.818,,,,,,110,chocolate,cookie,,89029,001,2022-04-29_09h45.30.405,SPAMnetsValid,2021.1.4,MacIntel,90.90909091,,,,,,,,,,,,,9,1.818,0,6,6,52,1,,,,,,,,,,,,,,,,,,,,,,,,,,,,,,,,,,,,,,,,,,,,,,,,,,,,,,,,,,,,,,,,,,,,,,
,,,,2,1.443,,,,,,180,tree,yogurt,,89029,001,2022-04-29_09h45.30.405,SPAMnetsValid,2021.1.4,MacIntel,90.90909091,,,,,,,,,,,,,2,1.443,0,7,7,68,1,,,,,,,,,,,,,,,,,,,,,,,,,,,,,,,,,,,,,,,,,,,,,,,,,,,,,,,,,,,,,,,,,,,,,,
,,,,9,1.175,,,,,,193,melon,melon,CHECK,89029,001,2022-04-29_09h45.30.405,SPAMnetsValid,2021.1.4,MacIntel,90.90909091,,,,,,,,,,,,,9,1.175,0,8,8,86,1,,,,,,,,,,,,,,,,,,,,,,,,,,,,,,,,,,,,,,,,,,,,,,,,,,,,,,,,,,,,,,,,,,,,,,
,,,,8,1.383,,,,,,118,chocolate,oven,,89029,001,2022-04-29_09h45.30.405,SPAMnetsValid,2021.1.4,MacIntel,90.90909091,,,,,,,,,,,,,8,1.383,0,9,9,10,1,,,,,,,,,,,,,,,,,,,,,,,,,,,,,,,,,,,,,,,,,,,,,,,,,,,,,,,,,,,,,,,,,,,,,,
,,,,6,2.78,,,,,,133,cake,flower,,89029,001,2022-04-29_09h45.30.405,SPAMnetsValid,2021.1.4,MacIntel,90.90909091,,,,,,,,,,,,,6,2.78,0,10,10,94,1,,,,,,,,,,,,,,,,,,,,,,,,,,,,,,,,,,,,,,,,,,,,,,,,,,,,,,,,,,,,,,,,,,,,,,
,,,,1,1.217,,,,,,121,broom,microwave,,89029,001,2022-04-29_09h45.30.405,SPAMnetsValid,2021.1.4,MacIntel,90.90909091,,,,,,,,,,,,,1,1.217,0,11,11,95,1,,,,,,,,,,,,,,,,,,,,,,,,,,,,,,,,,,,,,,,,,,,,,,,,,,,,,,,,,,,,,,,,,,,,,,
,,,,7,1.182,,,,,,141,melon,tomato,,89029,001,2022-04-29_09h45.30.405,SPAMnetsValid,2021.1.4,MacIntel,90.90909091,,,,,,,,,,,,,7,1.182,0,12,12,70,1,,,,,,,,,,,,,,,,,,,,,,,,,,,,,,,,,,,,,,,,,,,,,,,,,,,,,,,,,,,,,,,,,,,,,,
,,,,2,1.832,,,,,,172,kitchen,melon,,89029,001,2022-04-29_09h45.30.405,SPAMnetsValid,2021.1.4,MacIntel,90.90909091,,,,,,,,,,,,,2,1.832,0,13,13,77,1,,,,,,,,,,,,,,,,,,,,,,,,,,,,,,,,,,,,,,,,,,,,,,,,,,,,,,,,,,,,,,,,,,,,,,
,,,,6,1.395,,,,,,108,carrot,chocolate,,89029,001,2022-04-29_09h45.30.405,SPAMnetsValid,2021.1.4,MacIntel,90.90909091,,,,,,,,,,,,,6,1.395,0,14,14,5,1,,,,,,,,,,,,,,,,,,,,,,,,,,,,,,,,,,,,,,,,,,,,,,,,,,,,,,,,,,,,,,,,,,,,,,
,,,,3,0.806,,,,,,188,flower,tree,,89029,001,2022-04-29_09h45.30.405,SPAMnetsValid,2021.1.4,MacIntel,90.90909091,,,,,,,,,,,,,3,0.806,0,15,15,7,1,,,,,,,,,,,,,,,,,,,,,,,,,,,,,,,,,,,,,,,,,,,,,,,,,,,,,,,,,,,,,,,,,,,,,,
,,,,7,0.789,,,,,,97,chocolate,kitchen,,89029,001,2022-04-29_09h45.30.405,SPAMnetsValid,2021.1.4,MacIntel,90.90909091,,,,,,,,,,,,,7,0.789,0,16,16,8,1,,,,,,,,,,,,,,,,,,,,,,,,,,,,,,,,,,,,,,,,,,,,,,,,,,,,,,,,,,,,,,,,,,,,,,
,,,,3,1.419,,,,,,159,cookie,flower,,89029,001,2022-04-29_09h45.30.405,SPAMnetsValid,2021.1.4,MacIntel,90.90909091,,,,,,,,,,,,,3,1.419,0,17,17,21,1,,,,,,,,,,,,,,,,,,,,,,,,,,,,,,,,,,,,,,,,,,,,,,,,,,,,,,,,,,,,,,,,,,,,,,
,,,,9,1.476,,,,,,131,cactus,garden,,89029,001,2022-04-29_09h45.30.405,SPAMnetsValid,2021.1.4,MacIntel,90.90909091,,,,,,,,,,,,,9,1.476,0,18,18,33,1,,,,,,,,,,,,,,,,,,,,,,,,,,,,,,,,,,,,,,,,,,,,,,,,,,,,,,,,,,,,,,,,,,,,,,
,,,,7,1.226,,,,,,162,microwave,tomato,,89029,001,2022-04-29_09h45.30.405,SPAMnetsValid,2021.1.4,MacIntel,90.90909091,,,,,,,,,,,,,7,1.226,0,19,19,12,1,,,,,,,,,,,,,,,,,,,,,,,,,,,,,,,,,,,,,,,,,,,,,,,,,,,,,,,,,,,,,,,,,,,,,,
,,,,6,1.317,,,,,,96,oven,strawberry,,89029,001,2022-04-29_09h45.30.405,SPAMnetsValid,2021.1.4,MacIntel,90.90909091,,,,,,,,,,,,,6,1.317,0,20,20,67,1,,,,,,,,,,,,,,,,,,,,,,,,,,,,,,,,,,,,,,,,,,,,,,,,,,,,,,,,,,,,,,,,,,,,,,
,,,,4,1.538,,,,,,157,refrigerator,rose,,89029,001,2022-04-29_09h45.30.405,SPAMnetsValid,2021.1.4,MacIntel,90.90909091,,,,,,,,,,,,,4,1.538,0,21,21,64,1,,,,,,,,,,,,,,,,,,,,,,,,,,,,,,,,,,,,,,,,,,,,,,,,,,,,,,,,,,,,,,,,,,,,,,
,,,,2,1.55,,,,,,103,pretzel,tomato,,89029,001,2022-04-29_09h45.30.405,SPAMnetsValid,2021.1.4,MacIntel,90.90909091,,,,,,,,,,,,,2,1.55,0,22,22,79,1,,,,,,,,,,,,,,,,,,,,,,,,,,,,,,,,,,,,,,,,,,,,,,,,,,,,,,,,,,,,,,,,,,,,,,
,,,,8,1.325,,,,,,154,strawberry,yogurt,,89029,001,2022-04-29_09h45.30.405,SPAMnetsValid,2021.1.4,MacIntel,90.90909091,,,,,,,,,,,,,8,1.325,0,23,23,28,1,,,,,,,,,,,,,,,,,,,,,,,,,,,,,,,,,,,,,,,,,,,,,,,,,,,,,,,,,,,,,,,,,,,,,,
,,,,8,1.173,,,,,,119,strawberry,tree,,89029,001,2022-04-29_09h45.30.405,SPAMnetsValid,2021.1.4,MacIntel,90.90909091,,,,,,,,,,,,,8,1.173,0,24,24,18,1,,,,,,,,,,,,,,,,,,,,,,,,,,,,,,,,,,,,,,,,,,,,,,,,,,,,,,,,,,,,,,,,,,,,,,
,,,,4,1.661,,,,,,105,cactus,oven,,89029,001,2022-04-29_09h45.30.405,SPAMnetsValid,2021.1.4,MacIntel,90.90909091,,,,,,,,,,,,,4,1.661,0,25,25,13,1,,,,,,,,,,,,,,,,,,,,,,,,,,,,,,,,,,,,,,,,,,,,,,,,,,,,,,,,,,,,,,,,,,,,,,
,,,,9,1.992,,,,,,112,cake,carrot,,89029,001,2022-04-29_09h45.30.405,SPAMnetsValid,2021.1.4,MacIntel,90.90909091,,,,,,,,,,,,,9,1.992,0,26,26,39,1,,,,,,,,,,,,,,,,,,,,,,,,,,,,,,,,,,,,,,,,,,,,,,,,,,,,,,,,,,,,,,,,,,,,,,
,,,,9,1.553,,,,,,194,cactus,cactus,CHECK,89029,001,2022-04-29_09h45.30.405,SPAMnetsValid,2021.1.4,MacIntel,90.90909091,,,,,,,,,,,,,9,1.553,0,27,27,25,1,,,,,,,,,,,,,,,,,,,,,,,,,,,,,,,,,,,,,,,,,,,,,,,,,,,,,,,,,,,,,,,,,,,,,,
,,,,7,1.444,,,,,,111,carrot,microwave,,89029,001,2022-04-29_09h45.30.405,SPAMnetsValid,2021.1.4,MacIntel,90.90909091,,,,,,,,,,,,,7,1.444,0,28,28,16,1,,,,,,,,,,,,,,,,,,,,,,,,,,,,,,,,,,,,,,,,,,,,,,,,,,,,,,,,,,,,,,,,,,,,,,
,,,,6,1.009,,,,,,183,cake,rose,,89029,001,2022-04-29_09h45.30.405,SPAMnetsValid,2021.1.4,MacIntel,90.90909091,,,,,,,,,,,,,6,1.009,0,29,29,19,1,,,,,,,,,,,,,,,,,,,,,,,,,,,,,,,,,,,,,,,,,,,,,,,,,,,,,,,,,,,,,,,,,,,,,,
,,,,3,0.984,,,,,,115,refrigerator,tomato,,89029,001,2022-04-29_09h45.30.405,SPAMnetsValid,2021.1.4,MacIntel,90.90909091,,,,,,,,,,,,,3,0.984,0,30,30,85,1,,,,,,,,,,,,,,,,,,,,,,,,,,,,,,,,,,,,,,,,,,,,,,,,,,,,,,,,,,,,,,,,,,,,,,
,,,,3,1.71,,,,,,104,garden,microwave,,89029,001,2022-04-29_09h45.30.405,SPAMnetsValid,2021.1.4,MacIntel,90.90909091,,,,,,,,,,,,,3,1.71,0,31,31,81,1,,,,,,,,,,,,,,,,,,,,,,,,,,,,,,,,,,,,,,,,,,,,,,,,,,,,,,,,,,,,,,,,,,,,,,
,,,,7,1.553,,,,,,99,garden,melon,,89029,001,2022-04-29_09h45.30.405,SPAMnetsValid,2021.1.4,MacIntel,90.90909091,,,,,,,,,,,,,7,1.553,0,32,32,17,1,,,,,,,,,,,,,,,,,,,,,,,,,,,,,,,,,,,,,,,,,,,,,,,,,,,,,,,,,,,,,,,,,,,,,,
,,,,8,1.132,,,,,,168,cactus,flower,,89029,001,2022-04-29_09h45.30.405,SPAMnetsValid,2021.1.4,MacIntel,90.90909091,,,,,,,,,,,,,8,1.132,0,33,33,51,1,,,,,,,,,,,,,,,,,,,,,,,,,,,,,,,,,,,,,,,,,,,,,,,,,,,,,,,,,,,,,,,,,,,,,,
,,,,6,1.767,,,,,,130,microwave,yogurt,,89029,001,2022-04-29_09h45.30.405,SPAMnetsValid,2021.1.4,MacIntel,90.90909091,,,,,,,,,,,,,6,1.767,0,34,34,84,1,,,,,,,,,,,,,,,,,,,,,,,,,,,,,,,,,,,,,,,,,,,,,,,,,,,,,,,,,,,,,,,,,,,,,,
,,,,3,0.91,,,,,,128,melon,microwave,,89029,001,2022-04-29_09h45.30.405,SPAMnetsValid,2021.1.4,MacIntel,90.90909091,,,,,,,,,,,,,3,0.91,0,35,35,74,1,,,,,,,,,,,,,,,,,,,,,,,,,,,,,,,,,,,,,,,,,,,,,,,,,,,,,,,,,,,,,,,,,,,,,,
,,,,8,2.492,,,,,,117,melon,strawberry,,89029,001,2022-04-29_09h45.30.405,SPAMnetsValid,2021.1.4,MacIntel,90.90909091,,,,,,,,,,,,,8,2.492,0,36,36,11,1,,,,,,,,,,,,,,,,,,,,,,,,,,,,,,,,,,,,,,,,,,,,,,,,,,,,,,,,,,,,,,,,,,,,,,
,,,,8,1.349,,,,,,151,microwave,onion,,89029,001,2022-04-29_09h45.30.405,SPAMnetsValid,2021.1.4,MacIntel,90.90909091,,,,,,,,,,,,,8,1.349,0,37,37,6,1,,,,,,,,,,,,,,,,,,,,,,,,,,,,,,,,,,,,,,,,,,,,,,,,,,,,,,,,,,,,,,,,,,,,,,
,,,,1,1.332,,,,,,148,flower,melon,,89029,001,2022-04-29_09h45.30.405,SPAMnetsValid,2021.1.4,MacIntel,90.90909091,,,,,,,,,,,,,1,1.332,0,38,38,23,1,,,,,,,,,,,,,,,,,,,,,,,,,,,,,,,,,,,,,,,,,,,,,,,,,,,,,,,,,,,,,,,,,,,,,,
,,,,6,2.472,,,,,,125,carrot,tree,,89029,001,2022-04-29_09h45.30.405,SPAMnetsValid,2021.1.4,MacIntel,90.90909091,,,,,,,,,,,,,6,2.472,0,39,39,30,1,,,,,,,,,,,,,,,,,,,,,,,,,,,,,,,,,,,,,,,,,,,,,,,,,,,,,,,,,,,,,,,,,,,,,,
,,,,7,1.403,,,,,,178,cactus,carrot,,89029,001,2022-04-29_09h45.30.405,SPAMnetsValid,2021.1.4,MacIntel,90.90909091,,,,,,,,,,,,,7,1.403,0,40,40,75,1,,,,,,,,,,,,,,,,,,,,,,,,,,,,,,,,,,,,,,,,,,,,,,,,,,,,,,,,,,,,,,,,,,,,,,
,,,,3,1.717,,,,,,98,pretzel,strawberry,,89029,001,2022-04-29_09h45.30.405,SPAMnetsValid,2021.1.4,MacIntel,90.90909091,,,,,,,,,,,,,3,1.717,0,41,41,82,1,,,,,,,,,,,,,,,,,,,,,,,,,,,,,,,,,,,,,,,,,,,,,,,,,,,,,,,,,,,,,,,,,,,,,,
,,,,7,1.66,,,,,,173,kitchen,tomato,,89029,001,2022-04-29_09h45.30.405,SPAMnetsValid,2021.1.4,MacIntel,90.90909091,,,,,,,,,,,,,7,1.66,0,42,42,1,1,,,,,,,,,,,,,,,,,,,,,,,,,,,,,,,,,,,,,,,,,,,,,,,,,,,,,,,,,,,,,,,,,,,,,,
,,,,4,1.623,,,,,,101,cactus,kitchen,,89029,001,2022-04-29_09h45.30.405,SPAMnetsValid,2021.1.4,MacIntel,90.90909091,,,,,,,,,,,,,4,1.623,0,43,43,54,1,,,,,,,,,,,,,,,,,,,,,,,,,,,,,,,,,,,,,,,,,,,,,,,,,,,,,,,,,,,,,,,,,,,,,,
,,,,9,1.166,,,,,,113,refrigerator,strawberry,,89029,001,2022-04-29_09h45.30.405,SPAMnetsValid,2021.1.4,MacIntel,90.90909091,,,,,,,,,,,,,9,1.166,0,44,44,56,1,,,,,,,,,,,,,,,,,,,,,,,,,,,,,,,,,,,,,,,,,,,,,,,,,,,,,,,,,,,,,,,,,,,,,,
,,,,3,1.234,,,,,,174,cake,pretzel,,89029,001,2022-04-29_09h45.30.405,SPAMnetsValid,2021.1.4,MacIntel,90.90909091,,,,,,,,,,,,,3,1.234,0,45,45,2,1,,,,,,,,,,,,,,,,,,,,,,,,,,,,,,,,,,,,,,,,,,,,,,,,,,,,,,,,,,,,,,,,,,,,,,
,,,,8,1.263,,,,,,142,garden,tree,,89029,001,2022-04-29_09h45.30.405,SPAMnetsValid,2021.1.4,MacIntel,90.90909091,,,,,,,,,,,,,8,1.263,0,46,46,22,1,,,,,,,,,,,,,,,,,,,,,,,,,,,,,,,,,,,,,,,,,,,,,,,,,,,,,,,,,,,,,,,,,,,,,,
,,,,3,1.924,,,,,,155,carrot,cookie,,89029,001,2022-04-29_09h45.30.405,SPAMnetsValid,2021.1.4,MacIntel,90.90909091,,,,,,,,,,,,,3,1.924,0,47,47,38,1,,,,,,,,,,,,,,,,,,,,,,,,,,,,,,,,,,,,,,,,,,,,,,,,,,,,,,,,,,,,,,,,,,,,,,
,,,,8,1.449,,,,,,147,cake,refrigerator,,89029,001,2022-04-29_09h45.30.405,SPAMnetsValid,2021.1.4,MacIntel,90.90909091,,,,,,,,,,,,,8,1.449,0,48,48,35,1,,,,,,,,,,,,,,,,,,,,,,,,,,,,,,,,,,,,,,,,,,,,,,,,,,,,,,,,,,,,,,,,,,,,,,
,,,,7,0.899,,,,,,102,chocolate,refrigerator,,89029,001,2022-04-29_09h45.30.405,SPAMnetsValid,2021.1.4,MacIntel,90.90909091,,,,,,,,,,,,,7,0.899,0,49,49,76,1,,,,,,,,,,,,,,,,,,,,,,,,,,,,,,,,,,,,,,,,,,,,,,,,,,,,,,,,,,,,,,,,,,,,,,
,,,,7,2.153,,,,,,114,cookie,strawberry,,89029,001,2022-04-29_09h45.30.405,SPAMnetsValid,2021.1.4,MacIntel,90.90909091,,,,,,,,,,,,,7,2.153,0,50,50,87,1,,,,,,,,,,,,,,,,,,,,,,,,,,,,,,,,,,,,,,,,,,,,,,,,,,,,,,,,,,,,,,,,,,,,,,
,,,,6,0.999,,,,,,132,broom,tree,,89029,001,2022-04-29_09h45.30.405,SPAMnetsValid,2021.1.4,MacIntel,90.90909091,,,,,,,,,,,,,6,0.999,0,51,51,78,1,,,,,,,,,,,,,,,,,,,,,,,,,,,,,,,,,,,,,,,,,,,,,,,,,,,,,,,,,,,,,,,,,,,,,,
,,,,3,0.992,,,,,,167,carrot,garden,,89029,001,2022-04-29_09h45.30.405,SPAMnetsValid,2021.1.4,MacIntel,90.90909091,,,,,,,,,,,,,3,0.992,0,52,52,47,1,,,,,,,,,,,,,,,,,,,,,,,,,,,,,,,,,,,,,,,,,,,,,,,,,,,,,,,,,,,,,,,,,,,,,,
,,,,9,1.399,,,,,,100,garden,tomato,,89029,001,2022-04-29_09h45.30.405,SPAMnetsValid,2021.1.4,MacIntel,90.90909091,,,,,,,,,,,,,9,1.399,0,53,53,83,1,,,,,,,,,,,,,,,,,,,,,,,,,,,,,,,,,,,,,,,,,,,,,,,,,,,,,,,,,,,,,,,,,,,,,,
,,,,6,1.115,,,,,,134,carrot,flower,,89029,001,2022-04-29_09h45.30.405,SPAMnetsValid,2021.1.4,MacIntel,90.90909091,,,,,,,,,,,,,6,1.115,0,54,54,93,1,,,,,,,,,,,,,,,,,,,,,,,,,,,,,,,,,,,,,,,,,,,,,,,,,,,,,,,,,,,,,,,,,,,,,,
,,,,2,1.142,,,,,,109,broom,strawberry,,89029,001,2022-04-29_09h45.30.405,SPAMnetsValid,2021.1.4,MacIntel,90.90909091,,,,,,,,,,,,,2,1.142,0,55,55,4,1,,,,,,,,,,,,,,,,,,,,,,,,,,,,,,,,,,,,,,,,,,,,,,,,,,,,,,,,,,,,,,,,,,,,,,
,,,,9,1.416,,,,,,158,cookie,oven,,89029,001,2022-04-29_09h45.30.405,SPAMnetsValid,2021.1.4,MacIntel,90.90909091,,,,,,,,,,,,,9,1.416,0,56,56,27,1,,,,,,,,,,,,,,,,,,,,,,,,,,,,,,,,,,,,,,,,,,,,,,,,,,,,,,,,,,,,,,,,,,,,,,
,,,,4,1.073,,,,,,153,carrot,pretzel,,89029,001,2022-04-29_09h45.30.405,SPAMnetsValid,2021.1.4,MacIntel,90.90909091,,,,,,,,,,,,,4,1.073,0,57,57,34,1,,,,,,,,,,,,,,,,,,,,,,,,,,,,,,,,,,,,,,,,,,,,,,,,,,,,,,,,,,,,,,,,,,,,,,
,,,,2,1.417,,,,,,187,cactus,microwave,,89029,001,2022-04-29_09h45.30.405,SPAMnetsValid,2021.1.4,MacIntel,90.90909091,,,,,,,,,,,,,2,1.417,0,58,58,71,1,,,,,,,,,,,,,,,,,,,,,,,,,,,,,,,,,,,,,,,,,,,,,,,,,,,,,,,,,,,,,,,,,,,,,,
,,,,4,1.332,,,,,,189,onion,tree,,89029,001,2022-04-29_09h45.30.405,SPAMnetsValid,2021.1.4,MacIntel,90.90909091,,,,,,,,,,,,,4,1.332,0,59,59,62,1,,,,,,,,,,,,,,,,,,,,,,,,,,,,,,,,,,,,,,,,,,,,,,,,,,,,,,,,,,,,,,,,,,,,,,
,,,,3,1.266,,,,,,164,cookie,garden,,89029,001,2022-04-29_09h45.30.405,SPAMnetsValid,2021.1.4,MacIntel,90.90909091,,,,,,,,,,,,,3,1.266,0,60,60,59,1,,,,,,,,,,,,,,,,,,,,,,,,,,,,,,,,,,,,,,,,,,,,,,,,,,,,,,,,,,,,,,,,,,,,,,
,,,,8,1.671,,,,,,160,cookie,kitchen,,89029,001,2022-04-29_09h45.30.405,SPAMnetsValid,2021.1.4,MacIntel,90.90909091,,,,,,,,,,,,,8,1.671,0,61,61,65,1,,,,,,,,,,,,,,,,,,,,,,,,,,,,,,,,,,,,,,,,,,,,,,,,,,,,,,,,,,,,,,,,,,,,,,
,,,,2,1.51,,,,,,146,pretzel,tree,,89029,001,2022-04-29_09h45.30.405,SPAMnetsValid,2021.1.4,MacIntel,90.90909091,,,,,,,,,,,,,2,1.51,0,62,62,80,1,,,,,,,,,,,,,,,,,,,,,,,,,,,,,,,,,,,,,,,,,,,,,,,,,,,,,,,,,,,,,,,,,,,,,,
,,,,6,1.026,,,,,,139,carrot,strawberry,,89029,001,2022-04-29_09h45.30.405,SPAMnetsValid,2021.1.4,MacIntel,90.90909091,,,,,,,,,,,,,6,1.026,0,63,63,37,1,,,,,,,,,,,,,,,,,,,,,,,,,,,,,,,,,,,,,,,,,,,,,,,,,,,,,,,,,,,,,,,,,,,,,,
,,,,6,1.493,,,,,,129,cactus,refrigerator,,89029,001,2022-04-29_09h45.30.405,SPAMnetsValid,2021.1.4,MacIntel,90.90909091,,,,,,,,,,,,,6,1.493,0,64,64,3,1,,,,,,,,,,,,,,,,,,,,,,,,,,,,,,,,,,,,,,,,,,,,,,,,,,,,,,,,,,,,,,,,,,,,,,
,,,,2,1.385,,,,,,144,cake,garden,,89029,001,2022-04-29_09h45.30.405,SPAMnetsValid,2021.1.4,MacIntel,90.90909091,,,,,,,,,,,,,2,1.385,0,65,65,58,1,,,,,,,,,,,,,,,,,,,,,,,,,,,,,,,,,,,,,,,,,,,,,,,,,,,,,,,,,,,,,,,,,,,,,,
,,,,9,1.463,,,,,,116,cake,chocolate,,89029,001,2022-04-29_09h45.30.405,SPAMnetsValid,2021.1.4,MacIntel,90.90909091,,,,,,,,,,,,,9,1.463,0,66,66,44,1,,,,,,,,,,,,,,,,,,,,,,,,,,,,,,,,,,,,,,,,,,,,,,,,,,,,,,,,,,,,,,,,,,,,,,
,,,,7,1.584,,,,,,179,broom,oven,,89029,001,2022-04-29_09h45.30.405,SPAMnetsValid,2021.1.4,MacIntel,90.90909091,,,,,,,,,,,,,7,1.584,0,67,67,45,1,,,,,,,,,,,,,,,,,,,,,,,,,,,,,,,,,,,,,,,,,,,,,,,,,,,,,,,,,,,,,,,,,,,,,,
,,,,8,1.525,,,,,,185,cactus,rose,,89029,001,2022-04-29_09h45.30.405,SPAMnetsValid,2021.1.4,MacIntel,90.90909091,,,,,,,,,,,,,8,1.525,0,68,68,43,1,,,,,,,,,,,,,,,,,,,,,,,,,,,,,,,,,,,,,,,,,,,,,,,,,,,,,,,,,,,,,,,,,,,,,,
,,,,8,2.281,,,,,,150,microwave,refrigerator,,89029,001,2022-04-29_09h45.30.405,SPAMnetsValid,2021.1.4,MacIntel,90.90909091,,,,,,,,,,,,,8,2.281,0,69,69,66,1,,,,,,,,,,,,,,,,,,,,,,,,,,,,,,,,,,,,,,,,,,,,,,,,,,,,,,,,,,,,,,,,,,,,,,
,,,,1,1.834,,,,,,169,onion,yogurt,,89029,001,2022-04-29_09h45.30.405,SPAMnetsValid,2021.1.4,MacIntel,90.90909091,,,,,,,,,,,,,1,1.834,0,70,70,24,1,,,,,,,,,,,,,,,,,,,,,,,,,,,,,,,,,,,,,,,,,,,,,,,,,,,,,,,,,,,,,,,,,,,,,,
,,,,2,0.921,,,,,,135,carrot,oven,,89029,001,2022-04-29_09h45.30.405,SPAMnetsValid,2021.1.4,MacIntel,90.90909091,,,,,,,,,,,,,2,0.921,0,71,71,73,1,,,,,,,,,,,,,,,,,,,,,,,,,,,,,,,,,,,,,,,,,,,,,,,,,,,,,,,,,,,,,,,,,,,,,,
,,,,7,1.625,,,,,,106,cake,strawberry,,89029,001,2022-04-29_09h45.30.405,SPAMnetsValid,2021.1.4,MacIntel,90.90909091,,,,,,,,,,,,,7,1.625,0,72,72,0,1,,,,,,,,,,,,,,,,,,,,,,,,,,,,,,,,,,,,,,,,,,,,,,,,,,,,,,,,,,,,,,,,,,,,,,
,,,,8,1.134,,,,,,177,chocolate,strawberry,,89029,001,2022-04-29_09h45.30.405,SPAMnetsValid,2021.1.4,MacIntel,90.90909091,,,,,,,,,,,,,8,1.134,0,73,73,53,1,,,,,,,,,,,,,,,,,,,,,,,,,,,,,,,,,,,,,,,,,,,,,,,,,,,,,,,,,,,,,,,,,,,,,,
,,,,3,0.991,,,,,,126,kitchen,tree,,89029,001,2022-04-29_09h45.30.405,SPAMnetsValid,2021.1.4,MacIntel,90.90909091,,,,,,,,,,,,,3,0.991,0,74,74,50,1,,,,,,,,,,,,,,,,,,,,,,,,,,,,,,,,,,,,,,,,,,,,,,,,,,,,,,,,,,,,,,,,,,,,,,
,,,,9,1.609,,,,,,122,flower,garden,,89029,001,2022-04-29_09h45.30.405,SPAMnetsValid,2021.1.4,MacIntel,90.90909091,,,,,,,,,,,,,9,1.609,0,75,75,60,1,,,,,,,,,,,,,,,,,,,,,,,,,,,,,,,,,,,,,,,,,,,,,,,,,,,,,,,,,,,,,,,,,,,,,,
,,,,3,1.181,,,,,,190,microwave,strawberry,,89029,001,2022-04-29_09h45.30.405,SPAMnetsValid,2021.1.4,MacIntel,90.90909091,,,,,,,,,,,,,3,1.181,0,76,76,90,1,,,,,,,,,,,,,,,,,,,,,,,,,,,,,,,,,,,,,,,,,,,,,,,,,,,,,,,,,,,,,,,,,,,,,,
,,,,6,0.782,,,,,,149,broom,tomato,,89029,001,2022-04-29_09h45.30.405,SPAMnetsValid,2021.1.4,MacIntel,90.90909091,,,,,,,,,,,,,6,0.782,0,77,77,20,1,,,,,,,,,,,,,,,,,,,,,,,,,,,,,,,,,,,,,,,,,,,,,,,,,,,,,,,,,,,,,,,,,,,,,,
,,,,4,0.929,,,,,,136,chocolate,microwave,,89029,001,2022-04-29_09h45.30.405,SPAMnetsValid,2021.1.4,MacIntel,90.90909091,,,,,,,,,,,,,4,0.929,0,78,78,96,1,,,,,,,,,,,,,,,,,,,,,,,,,,,,,,,,,,,,,,,,,,,,,,,,,,,,,,,,,,,,,,,,,,,,,,
,,,,2,0.806,,,,,,127,cactus,chocolate,,89029,001,2022-04-29_09h45.30.405,SPAMnetsValid,2021.1.4,MacIntel,90.90909091,,,,,,,,,,,,,2,0.806,0,79,79,57,1,,,,,,,,,,,,,,,,,,,,,,,,,,,,,,,,,,,,,,,,,,,,,,,,,,,,,,,,,,,,,,,,,,,,,,
,,,,3,0.937,,,,,,182,flower,refrigerator,,89029,001,2022-04-29_09h45.30.405,SPAMnetsValid,2021.1.4,MacIntel,90.90909091,,,,,,,,,,,,,3,0.937,0,80,80,32,1,,,,,,,,,,,,,,,,,,,,,,,,,,,,,,,,,,,,,,,,,,,,,,,,,,,,,,,,,,,,,,,,,,,,,,
,,,,2,0.872,,,,,,143,pretzel,rose,,89029,001,2022-04-29_09h45.30.405,SPAMnetsValid,2021.1.4,MacIntel,90.90909091,,,,,,,,,,,,,2,0.872,0,81,81,55,1,,,,,,,,,,,,,,,,,,,,,,,,,,,,,,,,,,,,,,,,,,,,,,,,,,,,,,,,,,,,,,,,,,,,,,
,,,,1,1.107,,,,,,145,cactus,yogurt,,89029,001,2022-04-29_09h45.30.405,SPAMnetsValid,2021.1.4,MacIntel,90.90909091,,,,,,,,,,,,,1,1.107,0,82,82,15,1,,,,,,,,,,,,,,,,,,,,,,,,,,,,,,,,,,,,,,,,,,,,,,,,,,,,,,,,,,,,,,,,,,,,,,
,,,,7,1.457,,,,,,186,kitchen,yogurt,,89029,001,2022-04-29_09h45.30.405,SPAMnetsValid,2021.1.4,MacIntel,90.90909091,,,,,,,,,,,,,7,1.457,0,83,83,48,1,,,,,,,,,,,,,,,,,,,,,,,,,,,,,,,,,,,,,,,,,,,,,,,,,,,,,,,,,,,,,,,,,,,,,,
,,,,2,0.984,,,,,,163,melon,refrigerator,,89029,001,2022-04-29_09h45.30.405,SPAMnetsValid,2021.1.4,MacIntel,90.90909091,,,,,,,,,,,,,2,0.984,0,84,84,29,1,,,,,,,,,,,,,,,,,,,,,,,,,,,,,,,,,,,,,,,,,,,,,,,,,,,,,,,,,,,,,,,,,,,,,,
,,,,7,0.947,,,,,,166,cake,yogurt,,89029,001,2022-04-29_09h45.30.405,SPAMnetsValid,2021.1.4,MacIntel,90.90909091,,,,,,,,,,,,,7,0.947,0,85,85,91,1,,,,,,,,,,,,,,,,,,,,,,,,,,,,,,,,,,,,,,,,,,,,,,,,,,,,,,,,,,,,,,,,,,,,,,
,,,,4,0.732,,,,,,175,melon,onion,,89029,001,2022-04-29_09h45.30.405,SPAMnetsValid,2021.1.4,MacIntel,90.90909091,,,,,,,,,,,,,4,0.732,0,86,86,41,1,,,,,,,,,,,,,,,,,,,,,,,,,,,,,,,,,,,,,,,,,,,,,,,,,,,,,,,,,,,,,,,,,,,,,,
,,,,2,0.79,,,,,,123,cookie,tree,,89029,001,2022-04-29_09h45.30.405,SPAMnetsValid,2021.1.4,MacIntel,90.90909091,,,,,,,,,,,,,2,0.79,0,87,87,46,1,,,,,,,,,,,,,,,,,,,,,,,,,,,,,,,,,,,,,,,,,,,,,,,,,,,,,,,,,,,,,,,,,,,,,,
,,,,7,1.659,,,,,,156,melon,rose,,89029,001,2022-04-29_09h45.30.405,SPAMnetsValid,2021.1.4,MacIntel,90.90909091,,,,,,,,,,,,,7,1.659,0,88,88,31,1,,,,,,,,,,,,,,,,,,,,,,,,,,,,,,,,,,,,,,,,,,,,,,,,,,,,,,,,,,,,,,,,,,,,,,
,,,,2,1.016,,,,,,171,cake,tomato,,89029,001,2022-04-29_09h45.30.405,SPAMnetsValid,2021.1.4,MacIntel,90.90909091,,,,,,,,,,,,,2,1.016,0,89,89,88,1,,,,,,,,,,,,,,,,,,,,,,,,,,,,,,,,,,,,,,,,,,,,,,,,,,,,,,,,,,,,,,,,,,,,,,
,,,,7,1.09,,,,,,124,oven,refrigerator,,89029,001,2022-04-29_09h45.30.405,SPAMnetsValid,2021.1.4,MacIntel,90.90909091,,,,,,,,,,,,,7,1.09,0,90,90,69,1,,,,,,,,,,,,,,,,,,,,,,,,,,,,,,,,,,,,,,,,,,,,,,,,,,,,,,,,,,,,,,,,,,,,,,
,,,,8,1.767,,,,,,184,oven,pretzel,,89029,001,2022-04-29_09h45.30.405,SPAMnetsValid,2021.1.4,MacIntel,90.90909091,,,,,,,,,,,,,8,1.767,0,91,91,42,1,,,,,,,,,,,,,,,,,,,,,,,,,,,,,,,,,,,,,,,,,,,,,,,,,,,,,,,,,,,,,,,,,,,,,,
,,,,3,1.14,,,,,,107,rose,tomato,,89029,001,2022-04-29_09h45.30.405,SPAMnetsValid,2021.1.4,MacIntel,90.90909091,,,,,,,,,,,,,3,1.14,0,92,92,26,1,,,,,,,,,,,,,,,,,,,,,,,,,,,,,,,,,,,,,,,,,,,,,,,,,,,,,,,,,,,,,,,,,,,,,,
,,,,6,2.391,,,,,,140,cookie,refrigerator,,89029,001,2022-04-29_09h45.30.405,SPAMnetsValid,2021.1.4,MacIntel,90.90909091,,,,,,,,,,,,,6,2.391,0,93,93,89,1,,,,,,,,,,,,,,,,,,,,,,,,,,,,,,,,,,,,,,,,,,,,,,,,,,,,,,,,,,,,,,,,,,,,,,
,,,,7,1.466,,,,,,152,cactus,strawberry,,89029,001,2022-04-29_09h45.30.405,SPAMnetsValid,2021.1.4,MacIntel,90.90909091,,,,,,,,,,,,,7,1.466,0,94,94,49,1,,,,,,,,,,,,,,,,,,,,,,,,,,,,,,,,,,,,,,,,,,,,,,,,,,,,,,,,,,,,,,,,,,,,,,
,,,,7,1.1,,,,,,176,cactus,tomato,,89029,001,2022-04-29_09h45.30.405,SPAMnetsValid,2021.1.4,MacIntel,90.90909091,,,,,,,,,,,,,7,1.1,0,95,95,9,1,,,,,,,,,,,,,,,,,,,,,,,,,,,,,,,,,,,,,,,,,,,,,,,,,,,,,,,,,,,,,,,,,,,,,,
,,,,8,1.376,,,,,,120,microwave,oven,,89029,001,2022-04-29_09h45.30.405,SPAMnetsValid,2021.1.4,MacIntel,90.90909091,,,,,,,,,,,,,8,1.376,0,96,96,14,1,,,,,,,,,,,,,,,,,,,,,,,,,,,,,,,,,,,,,,,,,,,,,,,,,,,,,,,,,,,,,,,,,,,,,,
,,,,,,,,,,,,,,,89029,001,2022-04-29_09h45.30.405,SPAMnetsValid,2021.1.4,MacIntel,90.90909091,,,,,,,,,,,,,,,,,,,,0,0,0,0,1,,,,,,,,,,,,,,,,,,,,,,,,,,,,,,,,,,,,,,,,,,,,,,,,,,,,,,,,,,,,,,,,,
,,,,,,,,,,,,,,,89029,001,2022-04-29_09h45.30.405,SPAMnetsValid,2021.1.4,MacIntel,90.90909091,,,,,,0,1,1,1,1,0,1,,,,,,,,,,,,,,,,,,,,,,,,,,,,,,,,,,,,,,,,,,,,,,,,,,,,,,,,,,,,,,,,,,,,,,,,,,,,,
,,,,,,,,,,,,,,,89029,001,2022-04-29_09h45.30.405,SPAMnetsValid,2021.1.4,MacIntel,90.90909091,,,,,,,,,,,,,,,,,,,,,,,,,2,3.403,0,0,0,0,1,rancor,forbearance,ridicule,malice,bravery,3,,,,,,,,,,,,,,,,,,,,,,,,,,,,,,,,,,,,,,,,,,,,,,,,,,,,
,,,,,,,,,,,,,,,89029,001,2022-04-29_09h45.30.405,SPAMnetsValid,2021.1.4,MacIntel,90.90909091,,,,,,,,,,,,,,,,,,,,,,,,,4,3.635,0,1,1,1,1,raucous,empty,quiet,smooth,harsh,4,,,,,,,,,,,,,,,,,,,,,,,,,,,,,,,,,,,,,,,,,,,,,,,,,,,,
,,,,,,,,,,,,,,,89029,001,2022-04-29_09h45.30.405,SPAMnetsValid,2021.1.4,MacIntel,90.90909091,,,,,,,,,,,,,,,,,,,,,,,,,4,3.517,0,2,2,2,1,gargoyle,oil,medicine,carved waterspout,ugly building,3,,,,,,,,,,,,,,,,,,,,,,,,,,,,,,,,,,,,,,,,,,,,,,,,,,,,
,,,,,,,,,,,,,,,89029,001,2022-04-29_09h45.30.405,SPAMnetsValid,2021.1.4,MacIntel,90.90909091,,,,,,,,,,,,,,,,,,,,,,,,,3,3.284,0,3,3,3,1,recrudesce,purify,renew activity,lack refinement,crush,2,,,,,,,,,,,,,,,,,,,,,,,,,,,,,,,,,,,,,,,,,,,,,,,,,,,,
,,,,,,,,,,,,,,,89029,001,2022-04-29_09h45.30.405,SPAMnetsValid,2021.1.4,MacIntel,90.90909091,,,,,,,,,,,,,,,,,,,,,,,,,2,3.125,0,4,4,4,1,specious,"plausible, but not genuine",noteworthy,class or variety,roomy,1,,,,,,,,,,,,,,,,,,,,,,,,,,,,,,,,,,,,,,,,,,,,,,,,,,,,
,,,,,,,,,,,,,,,89029,001,2022-04-29_09h45.30.405,SPAMnetsValid,2021.1.4,MacIntel,90.90909091,,,,,,,,,,,,,,,,,,,,,,,,,1,3.037,0,5,5,5,1,bauble,bubble,showy plaything,idle talk,confusion,2,,,,,,,,,,,,,,,,,,,,,,,,,,,,,,,,,,,,,,,,,,,,,,,,,,,,
,,,,,,,,,,,,,,,89029,001,2022-04-29_09h45.30.405,SPAMnetsValid,2021.1.4,MacIntel,90.90909091,,,,,,,,,,,,,,,,,,,,,,,,,4,3.666,0,6,6,6,1,prolific,scarce,producing abundantly,reckless,speaking profanely,2,,,,,,,,,,,,,,,,,,,,,,,,,,,,,,,,,,,,,,,,,,,,,,,,,,,,
,,,,,,,,,,,,,,,89029,001,2022-04-29_09h45.30.405,SPAMnetsValid,2021.1.4,MacIntel,90.90909091,,,,,,,,,,,,,,,,,,,,,,,,,4,2.016,0,7,7,7,1,opulent,party,wealthy,happy frame of mind,semiprecious stone,2,,,,,,,,,,,,,,,,,,,,,,,,,,,,,,,,,,,,,,,,,,,,,,,,,,,,
,,,,,,,,,,,,,,,89029,001,2022-04-29_09h45.30.405,SPAMnetsValid,2021.1.4,MacIntel,90.90909091,,,,,,,,,,,,,,,,,,,,,,,,,1,4.233,0,8,8,8,1,coercion,conspiracy,strategy,restraint,attraction,3,,,,,,,,,,,,,,,,,,,,,,,,,,,,,,,,,,,,,,,,,,,,,,,,,,,,
,,,,,,,,,,,,,,,89029,001,2022-04-29_09h45.30.405,SPAMnetsValid,2021.1.4,MacIntel,90.90909091,,,,,,,,,,,,,,,,,,,,,,,,,4,2.692,0,9,9,9,1,hiatus,animal,calamity,dread,gap,4,,,,,,,,,,,,,,,,,,,,,,,,,,,,,,,,,,,,,,,,,,,,,,,,,,,,
,,,,,,,,,,,,,,,89029,001,2022-04-29_09h45.30.405,SPAMnetsValid,2021.1.4,MacIntel,90.90909091,,,,,,,,,,,,,,,,,,,,,,,,,2,3.701,0,10,10,10,1,germane,microbe,contagious,relevant,different,3,,,,,,,,,,,,,,,,,,,,,,,,,,,,,,,,,,,,,,,,,,,,,,,,,,,,
,,,,,,,,,,,,,,,89029,001,2022-04-29_09h45.30.405,SPAMnetsValid,2021.1.4,MacIntel,90.90909091,,,,,,,,,,,,,,,,,,,,,,,,,1,2.11,0,11,11,11,1,perfunctory,fundamental,formal,superficial,careful,3,,,,,,,,,,,,,,,,,,,,,,,,,,,,,,,,,,,,,,,,,,,,,,,,,,,,
,,,,,,,,,,,,,,,89029,001,2022-04-29_09h45.30.405,SPAMnetsValid,2021.1.4,MacIntel,90.90909091,,,,,,,,,,,,,,,,,,,,,,,,,3,3.041,0,12,12,12,1,diverge,reveal,chant,distract the attention of,differ or turn off from,4,,,,,,,,,,,,,,,,,,,,,,,,,,,,,,,,,,,,,,,,,,,,,,,,,,,,
,,,,,,,,,,,,,,,89029,001,2022-04-29_09h45.30.405,SPAMnetsValid,2021.1.4,MacIntel,90.90909091,,,,,,,,,,,,,,,,,,,,,,,,,4,3.597,0,13,13,13,1,evoke,take away,anger,connect,bring out,4,,,,,,,,,,,,,,,,,,,,,,,,,,,,,,,,,,,,,,,,,,,,,,,,,,,,
,,,,,,,,,,,,,,,89029,001,2022-04-29_09h45.30.405,SPAMnetsValid,2021.1.4,MacIntel,90.90909091,,,,,,,,,,,,,,,,,,,,,,,,,2,2.213,0,14,14,14,1,pertinent,relevant,lying next to,necessary,bold,1,,,,,,,,,,,,,,,,,,,,,,,,,,,,,,,,,,,,,,,,,,,,,,,,,,,,
,,,,,,,,,,,,,,,89029,001,2022-04-29_09h45.30.405,SPAMnetsValid,2021.1.4,MacIntel,90.90909091,,,,,,,,,,,,,,,,,,,,,,,,,2,1.443,0,15,15,15,1,holocaust,entirety,destruction,saintly,price,2,,,,,,,,,,,,,,,,,,,,,,,,,,,,,,,,,,,,,,,,,,,,,,,,,,,,
,,,,,,,,,,,,,,,89029,001,2022-04-29_09h45.30.405,SPAMnetsValid,2021.1.4,MacIntel,90.90909091,,,,,,,,,,,,,,,,,,,,,,,,,3,1.856,0,16,16,16,1,piquant,mellow,fish,pungent,cloth,3,,,,,,,,,,,,,,,,,,,,,,,,,,,,,,,,,,,,,,,,,,,,,,,,,,,,
,,,,,,,,,,,,,,,89029,001,2022-04-29_09h45.30.405,SPAMnetsValid,2021.1.4,MacIntel,90.90909091,,,,,,,,,,,,,,,,,,,,,,,,,2,1.126,0,17,17,17,1,firmament,foundation,heavens,strong,glue,2,,,,,,,,,,,,,,,,,,,,,,,,,,,,,,,,,,,,,,,,,,,,,,,,,,,,
,,,,,,,,,,,,,,,89029,001,2022-04-29_09h45.30.405,SPAMnetsValid,2021.1.4,MacIntel,90.90909091,,,,,,,,,,,,,,,,,,,,,,,,,,,,,,,,,,,,,,2,0.786,0,0,0,0,1,marketable,partisan,jocular,marriageable,salable,essential,4,,,,,,,,,,,,,,,,,,,,,,,,,,,,,,,,,,,,,,
,,,,,,,,,,,,,,,89029,001,2022-04-29_09h45.30.405,SPAMnetsValid,2021.1.4,MacIntel,90.90909091,,,,,,,,,,,,,,,,,,,,,,,,,,,,,,,,,,,,,,3,0.9,0,1,1,1,1,cottontail,squirrel,poplar,boa,marshy plant,rabbit,5,,,,,,,,,,,,,,,,,,,,,,,,,,,,,,,,,,,,,,
,,,,,,,,,,,,,,,89029,001,2022-04-29_09h45.30.405,SPAMnetsValid,2021.1.4,MacIntel,90.90909091,,,,,,,,,,,,,,,,,,,,,,,,,,,,,,,,,,,,,,4,0.935,0,2,2,2,1,boggy,afraid,false,marshy,dense,black,3,,,,,,,,,,,,,,,,,,,,,,,,,,,,,,,,,,,,,,
,,,,,,,,,,,,,,,89029,001,2022-04-29_09h45.30.405,SPAMnetsValid,2021.1.4,MacIntel,90.90909091,,,,,,,,,,,,,,,,,,,,,,,,,,,,,,,,,,,,,,3,2.468,0,3,3,3,1,gruesomeness,blackness,falseness,vindictiveness,drunkenness,ghastliness,5,,,,,,,,,,,,,,,,,,,,,,,,,,,,,,,,,,,,,,
,,,,,,,,,,,,,,,89029,001,2022-04-29_09h45.30.405,SPAMnetsValid,2021.1.4,MacIntel,90.90909091,,,,,,,,,,,,,,,,,,,,,,,,,,,,,,,,,,,,,,2,1.184,0,4,4,4,1,loathing,diffidence,laziness,abhorrence,cleverness,comfort,3,,,,,,,,,,,,,,,,,,,,,,,,,,,,,,,,,,,,,,
,,,,,,,,,,,,,,,89029,001,2022-04-29_09h45.30.405,SPAMnetsValid,2021.1.4,MacIntel,90.90909091,,,,,,,,,,,,,,,,,,,,,,,,,,,,,,,,,,,,,,3,0.904,0,5,5,5,1,bantam,fowl,ridicule,cripple,vegetable,ensign,1,,,,,,,,,,,,,,,,,,,,,,,,,,,,,,,,,,,,,,
,,,,,,,,,,,,,,,89029,001,2022-04-29_09h45.30.405,SPAMnetsValid,2021.1.4,MacIntel,90.90909091,,,,,,,,,,,,,,,,,,,,,,,,,,,,,,,,,,,,,,2,0.942,0,6,6,6,1,evoke,wake up,surrender,reconnoiter,transcend,call forth,5,,,,,,,,,,,,,,,,,,,,,,,,,,,,,,,,,,,,,,
,,,,,,,,,,,,,,,89029,001,2022-04-29_09h45.30.405,SPAMnetsValid,2021.1.4,MacIntel,90.90909091,,,,,,,,,,,,,,,,,,,,,,,,,,,,,,,,,,,,,,1,0.916,0,7,7,7,1,unobtrusive,unintelligent,epileptic,illogical,lineal,modest,5,,,,,,,,,,,,,,,,,,,,,,,,,,,,,,,,,,,,,,
,,,,,,,,,,,,,,,89029,001,2022-04-29_09h45.30.405,SPAMnetsValid,2021.1.4,MacIntel,90.90909091,,,,,,,,,,,,,,,,,,,,,,,,,,,,,,,,,,,,,,4,1.016,0,8,8,8,1,terrain,ice cream,final test,tractor,area of ground,weight,4,,,,,,,,,,,,,,,,,,,,,,,,,,,,,,,,,,,,,,
,,,,,,,,,,,,,,,89029,001,2022-04-29_09h45.30.405,SPAMnetsValid,2021.1.4,MacIntel,90.90909091,,,,,,,,,,,,,,,,,,,,,,,,,,,,,,,,,,,,,,5,0.908,0,9,9,9,1,capriciousness,stubbornness,courage,whimsicality,amazement,greediness,3,,,,,,,,,,,,,,,,,,,,,,,,,,,,,,,,,,,,,,
,,,,,,,,,,,,,,,89029,001,2022-04-29_09h45.30.405,SPAMnetsValid,2021.1.4,MacIntel,90.90909091,,,,,,,,,,,,,,,,,,,,,,,,,,,,,,,,,,,,,,3,0.767,0,10,10,10,1,maelstrom,slander,whirlpool,enmity,armor,majolica,2,,,,,,,,,,,,,,,,,,,,,,,,,,,,,,,,,,,,,,
,,,,,,,,,,,,,,,89029,001,2022-04-29_09h45.30.405,SPAMnetsValid,2021.1.4,MacIntel,90.90909091,,,,,,,,,,,,,,,,,,,,,,,,,,,,,,,,,,,,,,2,0.708,0,11,11,11,1,tentative,critical,conclusive,authentic,provisional,apprehensive,4,,,,,,,,,,,,,,,,,,,,,,,,,,,,,,,,,,,,,,
,,,,,,,,,,,,,,,89029,001,2022-04-29_09h45.30.405,SPAMnetsValid,2021.1.4,MacIntel,90.90909091,,,,,,,,,,,,,,,,,,,,,,,,,,,,,,,,,,,,,,1,0.81,0,12,12,12,1,placate,rehabilitate,plagiarize,depredate,apprise,conciliate,5,,,,,,,,,,,,,,,,,,,,,,,,,,,,,,,,,,,,,,
,,,,,,,,,,,,,,,89029,001,2022-04-29_09h45.30.405,SPAMnetsValid,2021.1.4,MacIntel,90.90909091,,,,,,,,,,,,,,,,,,,,,,,,,,,,,,,,,,,,,,4,1.041,0,13,13,13,1,surcease,enlightenment,cessation,inattention,censor,substitution,2,,,,,,,,,,,,,,,,,,,,,,,,,,,,,,,,,,,,,,
,,,,,,,,,,,,,,,89029,001,2022-04-29_09h45.30.405,SPAMnetsValid,2021.1.4,MacIntel,90.90909091,,,,,,,,,,,,,,,,,,,,,,,,,,,,,,,,,,,,,,3,0.857,0,14,14,14,1,apathetic,wandering,impassive,hateful,prophetic,overflowing,2,,,,,,,,,,,,,,,,,,,,,,,,,,,,,,,,,,,,,,
,,,,,,,,,,,,,,,89029,001,2022-04-29_09h45.30.405,SPAMnetsValid,2021.1.4,MacIntel,90.90909091,,,,,,,,,,,,,,,,,,,,,,,,,,,,,,,,,,,,,,2,1.007,0,15,15,15,1,paternoster,paternalism,patricide,malediction,benediction,prayer,5,,,,,,,,,,,,,,,,,,,,,,,,,,,,,,,,,,,,,,
,,,,,,,,,,,,,,,89029,001,2022-04-29_09h45.30.405,SPAMnetsValid,2021.1.4,MacIntel,90.90909091,,,,,,,,,,,,,,,,,,,,,,,,,,,,,,,,,,,,,,1,0.955,0,16,16,16,1,opalescence,opulence,senescence,bankruptcy,iridescence,assiduity,4,,,,,,,,,,,,,,,,,,,,,,,,,,,,,,,,,,,,,,
,,,,,,,,,,,,,,,89029,001,2022-04-29_09h45.30.405,SPAMnetsValid,2021.1.4,MacIntel,90.90909091,,,,,,,,,,,,,,,,,,,,,,,,,,,,,,,,,,,,,,4,0.903,0,17,17,17,1,lush,stupid,luxurious,hazy,putrid,languishing,2,,,,,,,,,,,,,,,,,,,,,,,,,,,,,,,,,,,,,,
,,,,,,,,,,,,,,,89029,001,2022-04-29_09h45.30.405,SPAMnetsValid,2021.1.4,MacIntel,90.90909091,,,,,,,,,,,,,,,,,,,,,,,,,,,,,,,,,,,,,,3,0.688,0,18,18,18,1,curtailment,expenditure,abandonment,abridgment,improvement,forgery,3,,,,,,,,,,,,,,,,,,,,,,,,,,,,,,,,,,,,,,
,,,,,,,,,,,,,,,89029,001,2022-04-29_09h45.30.405,SPAMnetsValid,2021.1.4,MacIntel,90.90909091,,,,,,,,,,,,,,,,,,,,,,,,,,,,,,,,,,,,,,2,0.915,0,19,19,19,1,perversity,adversity,perviousness,travesty,waywardness,gentility,4,,,,,,,,,,,,,,,,,,,,,,,,,,,,,,,,,,,,,,
,,,,,,,,,,,,,,,89029,001,2022-04-29_09h45.30.405,SPAMnetsValid,2021.1.4,MacIntel,90.90909091,,,,,,,,,,,,,,,,,,,,,,,,,,,,,,,,,,,,,,1,0.866,0,20,20,20,1,calumnious,complimentary,analogous,slanderous,tempestuous,magnanimous,3,,,,,,,,,,,,,,,,,,,,,,,,,,,,,,,,,,,,,,
,,,,,,,,,,,,,,,89029,001,2022-04-29_09h45.30.405,SPAMnetsValid,2021.1.4,MacIntel,90.90909091,,,,,,,,,,,,,,,,,,,,,,,,,,,,,,,,,,,,,,4,0.902,0,21,21,21,1,illiberality,bigotry,imbecility,illegibility,cautery,immaturity,1,,,,,,,,,,,,,,,,,,,,,,,,,,,,,,,,,,,,,,
,,,,,,,,,,,,,,,89029,001,2022-04-29_09h45.30.405,SPAMnetsValid,2021.1.4,MacIntel,90.90909091,,,,,,,,,,,,,,,,,,,,,,,,,,,,,,,,,,,,,,5,0.828,0,22,22,22,1,clabber,rejoice,gossip,curdle,crow,hobble,3,,,,,,,,,,,,,,,,,,,,,,,,,,,,,,,,,,,,,,
,,,,,,,,,,,,,,,89029,001,2022-04-29_09h45.30.405,SPAMnetsValid,2021.1.4,MacIntel,90.90909091,,,,,,,,,,,,,,,,,,,,,,,,,,,,,,,,,,,,,,3,0.811,0,23,23,23,1,sedulousness,diligence,credulousness,seduction,perilousness,frankness,1,,,,,,,,,,,,,,,,,,,,,,,,,,,,,,,,,,,,,,
,,,,,,,,,,,,,,,89029,001,2022-04-29_09h45.30.405,SPAMnetsValid,2021.1.4,MacIntel,90.90909091,,,,,,,,,,,,,,,,,,,,,,,,,,,,,,,,,,,,,,,,,,,,,,,,,,,,to build a sandcastle,bucket,0,0,0,0,1,,,,,,,,,,,,,,,,,,,,,,,,,,,,,,,
,,,,,,,,,,,,,,,89029,001,2022-04-29_09h45.30.405,SPAMnetsValid,2021.1.4,MacIntel,90.90909091,,,,,,,,,,,,,,,,,,,,,,,,,,,,,,,,,,,,,,,,,,,,,,,,,,,,to dig a ditch,bucket,1,0,1,0,1,,,,,,,,,,,,,,,,,,,,,,,,,,,,,,,
,,,,,,,,,,,,,,,89029,001,2022-04-29_09h45.30.405,SPAMnetsValid,2021.1.4,MacIntel,90.90909091,,,,,,,,,,,,,,,,,,,,,,,,,,,,,,,,,,,,,,,,,,,,,,,,,,,,wear as a hat,bucket,2,0,2,0,1,,,,,,,,,,,,,,,,,,,,,,,,,,,,,,,
,,,,,,,,,,,,,,,89029,001,2022-04-29_09h45.30.405,SPAMnetsValid,2021.1.4,MacIntel,90.90909091,,,,,,,,,,,,,,,,,,,,,,,,,,,,,,,,,,,,,,,,,,,,,,,,,,,,carry things,bucket,3,0,3,0,1,,,,,,,,,,,,,,,,,,,,,,,,,,,,,,,
,,,,,,,,,,,,,,,89029,001,2022-04-29_09h45.30.405,SPAMnetsValid,2021.1.4,MacIntel,90.90909091,,,,,,,,,,,,,,,,,,,,,,,,,,,,,,,,,,,,,,,,,,,,,,,,,,,,digging,bucket,4,0,4,0,1,,,,,,,,,,,,,,,,,,,,,,,,,,,,,,,
,,,,,,,,,,,,,,,89029,001,2022-04-29_09h45.30.405,SPAMnetsValid,2021.1.4,MacIntel,90.90909091,,,,,,,,,,,,,,,,,,,,,,,,,,,,,,,,,,,,,,,,,,,,,,,,,,,,contruction,bucket,5,0,5,0,1,,,,,,,,,,,,,,,,,,,,,,,,,,,,,,,
,,,,,,,,,,,,,,,89029,001,2022-04-29_09h45.30.405,SPAMnetsValid,2021.1.4,MacIntel,90.90909091,,,,,,,,,,,,,,,,,,,,,,,,,,,,,,,,,,,,,,,,,,,,,,,,,,,,gardening,bucket,6,0,6,0,1,,,,,,,,,,,,,,,,,,,,,,,,,,,,,,,
,,,,,,,,,,,,,,,89029,001,2022-04-29_09h45.30.405,SPAMnetsValid,2021.1.4,MacIntel,90.90909091,,,,,,,,,,,,,,,,,,,,,,,,,,,,,,,,,,,,,,,,,,,,,,,,,,,,beach,bucket,7,0,7,0,1,,,,,,,,,,,,,,,,,,,,,,,,,,,,,,,
,,,,,,,,,,,,,,,89029,001,2022-04-29_09h45.30.405,SPAMnetsValid,2021.1.4,MacIntel,90.90909091,,,,,,,,,,,,,,,,,,,,,,,,,,,,,,,,,,,,,,,,,,,,,,,,,,,,,,,,,,,0,0,0,0,1,bucket,,,,,,,,,,,,,,,,,,,,,,,,,
,,,,,,,,,,,,,,,89029,001,2022-04-29_09h45.30.405,SPAMnetsValid,2021.1.4,MacIntel,90.90909091,,,,,,,,,,,,,,,,,,,,,,,,,,,,,,,,,,,,,,,,,,,,,,,,,,,,light,candle,0,0,0,0,1,,,,,,,,,,,,,,,,,,,,,,,,,,,,,,,
,,,,,,,,,,,,,,,89029,001,2022-04-29_09h45.30.405,SPAMnetsValid,2021.1.4,MacIntel,90.90909091,,,,,,,,,,,,,,,,,,,,,,,,,,,,,,,,,,,,,,,,,,,,,,,,,,,,birthday,candle,1,0,1,0,1,,,,,,,,,,,,,,,,,,,,,,,,,,,,,,,
,,,,,,,,,,,,,,,89029,001,2022-04-29_09h45.30.405,SPAMnetsValid,2021.1.4,MacIntel,90.90909091,,,,,,,,,,,,,,,,,,,,,,,,,,,,,,,,,,,,,,,,,,,,,,,,,,,,lights out,candle,2,0,2,0,1,,,,,,,,,,,,,,,,,,,,,,,,,,,,,,,
,,,,,,,,,,,,,,,89029,001,2022-04-29_09h45.30.405,SPAMnetsValid,2021.1.4,MacIntel,90.90909091,,,,,,,,,,,,,,,,,,,,,,,,,,,,,,,,,,,,,,,,,,,,,,,,,,,,smell good,candle,3,0,3,0,1,,,,,,,,,,,,,,,,,,,,,,,,,,,,,,,
,,,,,,,,,,,,,,,89029,001,2022-04-29_09h45.30.405,SPAMnetsValid,2021.1.4,MacIntel,90.90909091,,,,,,,,,,,,,,,,,,,,,,,,,,,,,,,,,,,,,,,,,,,,,,,,,,,,warmth ,candle,4,0,4,0,1,,,,,,,,,,,,,,,,,,,,,,,,,,,,,,,
,,,,,,,,,,,,,,,89029,001,2022-04-29_09h45.30.405,SPAMnetsValid,2021.1.4,MacIntel,90.90909091,,,,,,,,,,,,,,,,,,,,,,,,,,,,,,,,,,,,,,,,,,,,,,,,,,,,letters,candle,5,0,5,0,1,,,,,,,,,,,,,,,,,,,,,,,,,,,,,,,
,,,,,,,,,,,,,,,89029,001,2022-04-29_09h45.30.405,SPAMnetsValid,2021.1.4,MacIntel,90.90909091,,,,,,,,,,,,,,,,,,,,,,,,,,,,,,,,,,,,,,,,,,,,,,,,,,,,decor,candle,6,0,6,0,1,,,,,,,,,,,,,,,,,,,,,,,,,,,,,,,
,,,,,,,,,,,,,,,89029,001,2022-04-29_09h45.30.405,SPAMnetsValid,2021.1.4,MacIntel,90.90909091,,,,,,,,,,,,,,,,,,,,,,,,,,,,,,,,,,,,,,,,,,,,,,,,,,,,,,,,,,,0,1,1,1,1,candle,,,,,,,,,,,,,,,,,,,,,,,,,
,,,,,,,,,,,,,,,89029,001,2022-04-29_09h45.30.405,SPAMnetsValid,2021.1.4,MacIntel,90.90909091,,,,,,,,,,,,,,,,,,,,,,,,,,,,,,,,,,,,,,,,,,,,,,,,,,,,sleep,pillow,0,0,0,0,1,,,,,,,,,,,,,,,,,,,,,,,,,,,,,,,
,,,,,,,,,,,,,,,89029,001,2022-04-29_09h45.30.405,SPAMnetsValid,2021.1.4,MacIntel,90.90909091,,,,,,,,,,,,,,,,,,,,,,,,,,,,,,,,,,,,,,,,,,,,,,,,,,,,forts,pillow,1,0,1,0,1,,,,,,,,,,,,,,,,,,,,,,,,,,,,,,,
,,,,,,,,,,,,,,,89029,001,2022-04-29_09h45.30.405,SPAMnetsValid,2021.1.4,MacIntel,90.90909091,,,,,,,,,,,,,,,,,,,,,,,,,,,,,,,,,,,,,,,,,,,,,,,,,,,,decor,pillow,2,0,2,0,1,,,,,,,,,,,,,,,,,,,,,,,,,,,,,,,
,,,,,,,,,,,,,,,89029,001,2022-04-29_09h45.30.405,SPAMnetsValid,2021.1.4,MacIntel,90.90909091,,,,,,,,,,,,,,,,,,,,,,,,,,,,,,,,,,,,,,,,,,,,,,,,,,,,laying down,pillow,3,0,3,0,1,,,,,,,,,,,,,,,,,,,,,,,,,,,,,,,
,,,,,,,,,,,,,,,89029,001,2022-04-29_09h45.30.405,SPAMnetsValid,2021.1.4,MacIntel,90.90909091,,,,,,,,,,,,,,,,,,,,,,,,,,,,,,,,,,,,,,,,,,,,,,,,,,,,back support,pillow,4,0,4,0,1,,,,,,,,,,,,,,,,,,,,,,,,,,,,,,,
,,,,,,,,,,,,,,,89029,001,2022-04-29_09h45.30.405,SPAMnetsValid,2021.1.4,MacIntel,90.90909091,,,,,,,,,,,,,,,,,,,,,,,,,,,,,,,,,,,,,,,,,,,,,,,,,,,,,,,,,,,0,2,2,2,1,pillow,,,,,,,,,,,,,,,,,,,,,,,,,
,,,,,,,,,,,,,,,89029,001,2022-04-29_09h45.30.405,SPAMnetsValid,2021.1.4,MacIntel,90.90909091,,,,,,,,,,,,,,,,,,,,,,,,,,,,,,,,,,,,,,,,,,,,,,,,,,,,,,,,,,,,,,,,,,Animals,0,0,0,0,1,,,,,,,,,,,,,,,,,,
,,,,,,,,,,,,,,,89029,001,2022-04-29_09h45.30.405,SPAMnetsValid,2021.1.4,MacIntel,90.90909091,,,,,,,,,,,,,,,,,,,,,,,,,,,,,,,,,,,,,,,,,,,,,,,,,,,,,,,,,,,,,,,,,,Animals,1,0,1,0,1,,,,,,,,,,,,,,,,,,
,,,,,,,,,,,,,,,89029,001,2022-04-29_09h45.30.405,SPAMnetsValid,2021.1.4,MacIntel,90.90909091,,,,,,,,,,,,,,,,,,,,,,,,,,,,,,,,,,,,,,,,,,,,,,,,,,,,,,,,,,,,,,,,,animals,Animals,2,0,2,0,1,,,,,,,,,,,,,,,,,,
,,,,,,,,,,,,,,,89029,001,2022-04-29_09h45.30.405,SPAMnetsValid,2021.1.4,MacIntel,90.90909091,,,,,,,,,,,,,,,,,,,,,,,,,,,,,,,,,,,,,,,,,,,,,,,,,,,,,,,,,,,,,,,,,shark,Animals,3,0,3,0,1,,,,,,,,,,,,,,,,,,
,,,,,,,,,,,,,,,89029,001,2022-04-29_09h45.30.405,SPAMnetsValid,2021.1.4,MacIntel,90.90909091,,,,,,,,,,,,,,,,,,,,,,,,,,,,,,,,,,,,,,,,,,,,,,,,,,,,,,,,,,,,,,,,,lion,Animals,4,0,4,0,1,,,,,,,,,,,,,,,,,,
,,,,,,,,,,,,,,,89029,001,2022-04-29_09h45.30.405,SPAMnetsValid,2021.1.4,MacIntel,90.90909091,,,,,,,,,,,,,,,,,,,,,,,,,,,,,,,,,,,,,,,,,,,,,,,,,,,,,,,,,,,,,,,,,tiger,Animals,5,0,5,0,1,,,,,,,,,,,,,,,,,,
,,,,,,,,,,,,,,,89029,001,2022-04-29_09h45.30.405,SPAMnetsValid,2021.1.4,MacIntel,90.90909091,,,,,,,,,,,,,,,,,,,,,,,,,,,,,,,,,,,,,,,,,,,,,,,,,,,,,,,,,,,,,,,,,zebra,Animals,6,0,6,0,1,,,,,,,,,,,,,,,,,,
,,,,,,,,,,,,,,,89029,001,2022-04-29_09h45.30.405,SPAMnetsValid,2021.1.4,MacIntel,90.90909091,,,,,,,,,,,,,,,,,,,,,,,,,,,,,,,,,,,,,,,,,,,,,,,,,,,,,,,,,,,,,,,,,jaguar,Animals,7,0,7,0,1,,,,,,,,,,,,,,,,,,
,,,,,,,,,,,,,,,89029,001,2022-04-29_09h45.30.405,SPAMnetsValid,2021.1.4,MacIntel,90.90909091,,,,,,,,,,,,,,,,,,,,,,,,,,,,,,,,,,,,,,,,,,,,,,,,,,,,,,,,,,,,,,,,,flamingo,Animals,8,0,8,0,1,,,,,,,,,,,,,,,,,,
,,,,,,,,,,,,,,,89029,001,2022-04-29_09h45.30.405,SPAMnetsValid,2021.1.4,MacIntel,90.90909091,,,,,,,,,,,,,,,,,,,,,,,,,,,,,,,,,,,,,,,,,,,,,,,,,,,,,,,,,,,,,,,,,bird,Animals,9,0,9,0,1,,,,,,,,,,,,,,,,,,
,,,,,,,,,,,,,,,89029,001,2022-04-29_09h45.30.405,SPAMnetsValid,2021.1.4,MacIntel,90.90909091,,,,,,,,,,,,,,,,,,,,,,,,,,,,,,,,,,,,,,,,,,,,,,,,,,,,,,,,,,,,,,,,,liger,Animals,10,0,10,0,1,,,,,,,,,,,,,,,,,,
,,,,,,,,,,,,,,,89029,001,2022-04-29_09h45.30.405,SPAMnetsValid,2021.1.4,MacIntel,90.90909091,,,,,,,,,,,,,,,,,,,,,,,,,,,,,,,,,,,,,,,,,,,,,,,,,,,,,,,,,,,,,,,,,shark,Animals,11,0,11,0,1,,,,,,,,,,,,,,,,,,
,,,,,,,,,,,,,,,89029,001,2022-04-29_09h45.30.405,SPAMnetsValid,2021.1.4,MacIntel,90.90909091,,,,,,,,,,,,,,,,,,,,,,,,,,,,,,,,,,,,,,,,,,,,,,,,,,,,,,,,,,,,,,,,,tuna,Animals,12,0,12,0,1,,,,,,,,,,,,,,,,,,
,,,,,,,,,,,,,,,89029,001,2022-04-29_09h45.30.405,SPAMnetsValid,2021.1.4,MacIntel,90.90909091,,,,,,,,,,,,,,,,,,,,,,,,,,,,,,,,,,,,,,,,,,,,,,,,,,,,,,,,,,,,,,,,,fish,Animals,13,0,13,0,1,,,,,,,,,,,,,,,,,,
,,,,,,,,,,,,,,,89029,001,2022-04-29_09h45.30.405,SPAMnetsValid,2021.1.4,MacIntel,90.90909091,,,,,,,,,,,,,,,,,,,,,,,,,,,,,,,,,,,,,,,,,,,,,,,,,,,,,,,,,,,,,,,,,cod,Animals,14,0,14,0,1,,,,,,,,,,,,,,,,,,
,,,,,,,,,,,,,,,89029,001,2022-04-29_09h45.30.405,SPAMnetsValid,2021.1.4,MacIntel,90.90909091,,,,,,,,,,,,,,,,,,,,,,,,,,,,,,,,,,,,,,,,,,,,,,,,,,,,,,,,,,,,,,,,,butterfly,Animals,15,0,15,0,1,,,,,,,,,,,,,,,,,,
,,,,,,,,,,,,,,,89029,001,2022-04-29_09h45.30.405,SPAMnetsValid,2021.1.4,MacIntel,90.90909091,,,,,,,,,,,,,,,,,,,,,,,,,,,,,,,,,,,,,,,,,,,,,,,,,,,,,,,,,,,,,,,,,dinosaur,Animals,16,0,16,0,1,,,,,,,,,,,,,,,,,,
,,,,,,,,,,,,,,,89029,001,2022-04-29_09h45.30.405,SPAMnetsValid,2021.1.4,MacIntel,90.90909091,,,,,,,,,,,,,,,,,,,,,,,,,,,,,,,,,,,,,,,,,,,,,,,,,,,,,,,,,,,,,,,,,reptile,Animals,17,0,17,0,1,,,,,,,,,,,,,,,,,,
,,,,,,,,,,,,,,,89029,001,2022-04-29_09h45.30.405,SPAMnetsValid,2021.1.4,MacIntel,90.90909091,,,,,,,,,,,,,,,,,,,,,,,,,,,,,,,,,,,,,,,,,,,,,,,,,,,,,,,,,,,,,,,,,snakes,Animals,18,0,18,0,1,,,,,,,,,,,,,,,,,,
,,,,,,,,,,,,,,,89029,001,2022-04-29_09h45.30.405,SPAMnetsValid,2021.1.4,MacIntel,90.90909091,,,,,,,,,,,,,,,,,,,,,,,,,,,,,,,,,,,,,,,,,,,,,,,,,,,,,,,,,,,,,,,,,spiders,Animals,19,0,19,0,1,,,,,,,,,,,,,,,,,,
,,,,,,,,,,,,,,,89029,001,2022-04-29_09h45.30.405,SPAMnetsValid,2021.1.4,MacIntel,90.90909091,,,,,,,,,,,,,,,,,,,,,,,,,,,,,,,,,,,,,,,,,,,,,,,,,,,,,,,,,,,,,,,,,dogs,Animals,20,0,20,0,1,,,,,,,,,,,,,,,,,,
,,,,,,,,,,,,,,,89029,001,2022-04-29_09h45.30.405,SPAMnetsValid,2021.1.4,MacIntel,90.90909091,,,,,,,,,,,,,,,,,,,,,,,,,,,,,,,,,,,,,,,,,,,,,,,,,,,,,,,,,,,,,,,,,cats,Animals,21,0,21,0,1,,,,,,,,,,,,,,,,,,
,,,,,,,,,,,,,,,89029,001,2022-04-29_09h45.30.405,SPAMnetsValid,2021.1.4,MacIntel,90.90909091,,,,,,,,,,,,,,,,,,,,,,,,,,,,,,,,,,,,,,,,,,,,,,,,,,,,,,,,,,,,,,,,,household pets,Animals,22,0,22,0,1,,,,,,,,,,,,,,,,,,
,,,,,,,,,,,,,,,89029,001,2022-04-29_09h45.30.405,SPAMnetsValid,2021.1.4,MacIntel,90.90909091,,,,,,,,,,,,,,,,,,,,,,,,,,,,,,,,,,,,,,,,,,,,,,,,,,,,,,,,,,,,,,,,,mammal,Animals,23,0,23,0,1,,,,,,,,,,,,,,,,,,
,,,,,,,,,,,,,,,89029,001,2022-04-29_09h45.30.405,SPAMnetsValid,2021.1.4,MacIntel,90.90909091,,,,,,,,,,,,,,,,,,,,,,,,,,,,,,,,,,,,,,,,,,,,,,,,,,,,,,,,,,,,,,,,,moose,Animals,24,0,24,0,1,,,,,,,,,,,,,,,,,,
,,,,,,,,,,,,,,,89029,001,2022-04-29_09h45.30.405,SPAMnetsValid,2021.1.4,MacIntel,90.90909091,,,,,,,,,,,,,,,,,,,,,,,,,,,,,,,,,,,,,,,,,,,,,,,,,,,,,,,,,,,,,,,,,monkey,Animals,25,0,25,0,1,,,,,,,,,,,,,,,,,,
,,,,,,,,,,,,,,,89029,001,2022-04-29_09h45.30.405,SPAMnetsValid,2021.1.4,MacIntel,90.90909091,,,,,,,,,,,,,,,,,,,,,,,,,,,,,,,,,,,,,,,,,,,,,,,,,,,,,,,,,,,,,,,,,beagal,Animals,26,0,26,0,1,,,,,,,,,,,,,,,,,,
,,,,,,,,,,,,,,,89029,001,2022-04-29_09h45.30.405,SPAMnetsValid,2021.1.4,MacIntel,90.90909091,,,,,,,,,,,,,,,,,,,,,,,,,,,,,,,,,,,,,,,,,,,,,,,,,,,,,,,,,,,,,,,,,rhino,Animals,27,0,27,0,1,,,,,,,,,,,,,,,,,,
,,,,,,,,,,,,,,,89029,001,2022-04-29_09h45.30.405,SPAMnetsValid,2021.1.4,MacIntel,90.90909091,,,,,,,,,,,,,,,,,,,,,,,,,,,,,,,,,,,,,,,,,,,,,,,,,,,,,,,,,,,,,,,,,elephant,Animals,28,0,28,0,1,,,,,,,,,,,,,,,,,,
,,,,,,,,,,,,,,,89029,001,2022-04-29_09h45.30.405,SPAMnetsValid,2021.1.4,MacIntel,90.90909091,,,,,,,,,,,,,,,,,,,,,,,,,,,,,,,,,,,,,,,,,,,,,,,,,,,,,,,,,,,,,,,,,bamboo,Animals,29,0,29,0,1,,,,,,,,,,,,,,,,,,
,,,,,,,,,,,,,,,89029,001,2022-04-29_09h45.30.405,SPAMnetsValid,2021.1.4,MacIntel,90.90909091,,,,,,,,,,,,,,,,,,,,,,,,,,,,,,,,,,,,,,,,,,,,,,,,,,,,,,,,,,,,,,,,,eels,Animals,30,0,30,0,1,,,,,,,,,,,,,,,,,,
,,,,,,,,,,,,,,,89029,001,2022-04-29_09h45.30.405,SPAMnetsValid,2021.1.4,MacIntel,90.90909091,,,,,,,,,,,,,,,,,,,,,,,,,,,,,,,,,,,,,,,,,,,,,,,,,,,,,,,,,,,,,,,,,,,,,,,,0,0,0,0,1,Animals,,,,,,,,,,,,
,,,,,,,,,,,,,,,89029,001,2022-04-29_09h45.30.405,SPAMnetsValid,2021.1.4,MacIntel,90.90909091,,,,,,,,,,,,,,,,,,,,,,,,,,,,,,,,,,,,,,,,,,,,,,,,,,,,,,,,,,,,,,,,,,,,,,,,,,,,,,4,8.439,0,0,0,0,1,"I enjoy concentrating on a fantasy or daydream and exploring all its possibilities, letting it grow and develop.",0,1,,
,,,,,,,,,,,,,,,89029,001,2022-04-29_09h45.30.405,SPAMnetsValid,2021.1.4,MacIntel,90.90909091,,,,,,,,,,,,,,,,,,,,,,,,,,,,,,,,,,,,,,,,,,,,,,,,,,,,,,,,,,,,,,,,,,,,,,,,,,,,,,5,7.752,0,1,1,1,1,I think it's interesting to learn and develop new hobbies.,0,2,,
,,,,,,,,,,,,,,,89029,001,2022-04-29_09h45.30.405,SPAMnetsValid,2021.1.4,MacIntel,90.90909091,,,,,,,,,,,,,,,,,,,,,,,,,,,,,,,,,,,,,,,,,,,,,,,,,,,,,,,,,,,,,,,,,,,,,,,,,,,,,,4,2.533,0,2,2,2,1,I am intrigued by the patterns I find in art and nature.,0,3,,
,,,,,,,,,,,,,,,89029,001,2022-04-29_09h45.30.405,SPAMnetsValid,2021.1.4,MacIntel,90.90909091,,,,,,,,,,,,,,,,,,,,,,,,,,,,,,,,,,,,,,,,,,,,,,,,,,,,,,,,,,,,,,,,,,,,,,,,,,,,,,2,15.849,0,3,3,3,1,I believe letting students hear controversial speakers can only confuse and mislead them.,1,4,,
,,,,,,,,,,,,,,,89029,001,2022-04-29_09h45.30.405,SPAMnetsValid,2021.1.4,MacIntel,90.90909091,,,,,,,,,,,,,,,,,,,,,,,,,,,,,,,,,,,,,,,,,,,,,,,,,,,,,,,,,,,,,,,,,,,,,,,,,,,,,,5,3.897,0,4,4,4,1,Poetry has little or no effect on me.,1,5,,
,,,,,,,,,,,,,,,89029,001,2022-04-29_09h45.30.405,SPAMnetsValid,2021.1.4,MacIntel,90.90909091,,,,,,,,,,,,,,,,,,,,,,,,,,,,,,,,,,,,,,,,,,,,,,,,,,,,,,,,,,,,,,,,,,,,,,,,,,,,,,2,6.195,0,5,5,5,1,I would have difficulty just letting my mind wander without control or guidance.,1,6,,
,,,,,,,,,,,,,,,89029,001,2022-04-29_09h45.30.405,SPAMnetsValid,2021.1.4,MacIntel,90.90909091,,,,,,,,,,,,,,,,,,,,,,,,,,,,,,,,,,,,,,,,,,,,,,,,,,,,,,,,,,,,,,,,,,,,,,,,,,,,,,2,2.116,0,6,6,6,1,I seldom notice the moods or feelings that different environments produce.,1,7,,
,,,,,,,,,,,,,,,89029,001,2022-04-29_09h45.30.405,SPAMnetsValid,2021.1.4,MacIntel,90.90909091,,,,,,,,,,,,,,,,,,,,,,,,,,,,,,,,,,,,,,,,,,,,,,,,,,,,,,,,,,,,,,,,,,,,,,,,,,,,,,4,1.945,0,7,7,7,1,I experience a wide range of emotions or feelings.,0,8,,
,,,,,,,,,,,,,,,89029,001,2022-04-29_09h45.30.405,SPAMnetsValid,2021.1.4,MacIntel,90.90909091,,,,,,,,,,,,,,,,,,,,,,,,,,,,,,,,,,,,,,,,,,,,,,,,,,,,,,,,,,,,,,,,,,,,,,,,,,,,,,1,3.746,0,8,8,8,1,"Sometimes when I am reading poetry or looking at a work of art, I feel a chill or wave of excitement.",0,9,,
,,,,,,,,,,,,,,,89029,001,2022-04-29_09h45.30.405,SPAMnetsValid,2021.1.4,MacIntel,90.90909091,,,,,,,,,,,,,,,,,,,,,,,,,,,,,,,,,,,,,,,,,,,,,,,,,,,,,,,,,,,,,,,,,,,,,,,,,,,,,,2,9.217,0,9,9,9,1,I have little interest in speculating on the nature of the universe or the human condition.,1,10,,
,,,,,,,,,,,,,,,89029,001,2022-04-29_09h45.30.405,SPAMnetsValid,2021.1.4,MacIntel,90.90909091,,,,,,,,,,,,,,,,,,,,,,,,,,,,,,,,,,,,,,,,,,,,,,,,,,,,,,,,,,,,,,,,,,,,,,,,,,,,,,5,2.068,0,10,10,10,1,I have a lot of intellectual curiosity.,0,11,,
,,,,,,,,,,,,,,,89029,001,2022-04-29_09h45.30.405,SPAMnetsValid,2021.1.4,MacIntel,90.90909091,,,,,,,,,,,,,,,,,,,,,,,,,,,,,,,,,,,,,,,,,,,,,,,,,,,,,,,,,,,,,,,,,,,,,,,,,,,,,,4,2.567,0,11,11,11,1,I often enjoy playing with theories or abstract ideas.,0,12,,
,,,,,,,,,,,,,,,89029,001,2022-04-29_09h45.30.405,SPAMnetsValid,2021.1.4,MacIntel,90.90909091,,,,,,,,,,,,,,,,,,,,,,,,,,,,,,,,,,,,,,,,,,,,,,,,,,,,,,,,,,,,,,,,,,,,,,,,,,,,,,,,,,,,,,,,return,4.6
