key_resp_3.keys,key_resp_3.rt,slider_2.response,slider_2.rt,rjt_rating,rjt_RT,trials_24.thisRepN,trials_24.thisTrialN,trials_24.thisN,trials_24.thisIndex,trials_24.ran,rjt_order,word1,word2,attention,participant,session,date,expName,psychopyVersion,OS,frameRate,trials_4.thisRepN,trials_4.thisTrialN,trials_4.thisN,trials_4.thisIndex,trials_4.ran,trials_5.thisRepN,trials_5.thisTrialN,trials_5.thisN,trials_5.thisIndex,trials_5.ran,repOne,repTwo,slider.response,slider.rt,trials_22.thisRepN,trials_22.thisTrialN,trials_22.thisN,trials_22.thisIndex,trials_22.ran,trials_99.thisRepN,trials_99.thisTrialN,trials_99.thisN,trials_99.thisIndex,trials_99.ran,slider_extend_2.response,slider_extend_2.rt,trials_6.thisRepN,trials_6.thisTrialN,trials_6.thisN,trials_6.thisIndex,trials_6.ran,vCue2,R1,R2,R3,R4,correct,sliderVocab.response,sliderVocab.rt,trials_7.thisRepN,trials_7.thisTrialN,trials_7.thisN,trials_7.thisIndex,trials_7.ran,VocabCue,VR1,VR2,VR3,VR4,VR5,VocabCorrect,AUT_resp,AUT_label,trials.thisRepN,trials.thisTrialN,trials.thisN,trials.thisIndex,trials.ran,trials_2.thisRepN,trials_2.thisTrialN,trials_2.thisN,trials_2.thisIndex,trials_2.ran,aut_prompt,VF_response,VF_tag,trials_16.thisRepN,trials_16.thisTrialN,trials_16.thisN,trials_16.thisIndex,trials_16.ran,trials_17.thisRepN,trials_17.thisTrialN,trials_17.thisN,trials_17.thisIndex,trials_17.ran,VFcond,open_slider.response,open_slider.rt,trials_3.thisRepN,trials_3.thisTrialN,trials_3.thisN,trials_3.thisIndex,trials_3.ran,OpenQ,Rev,OPEN_ORDER,key_resp_2.keys,key_resp_2.rt
return,7.3527,6,8.3259,6,8.3259,0,0,0,82,1,98,pretzel,strawberry,,89037,001,2022-04-24_15h52.24.132,SPAMnetsValid,2021.1.4,MacIntel,30.00120005,,,,,,,,,,,,,,,,,,,,,,,,,,,,,,,,,,,,,,,,,,,,,,,,,,,,,,,,,,,,,,,,,,,,,,,,,,,,,,,,,,,,,,,,,
,,4,3.7982,4,3.7982,0,1,1,95,1,121,broom,microwave,,89037,001,2022-04-24_15h52.24.132,SPAMnetsValid,2021.1.4,MacIntel,30.00120005,,,,,,,,,,,,,,,,,,,,,,,,,,,,,,,,,,,,,,,,,,,,,,,,,,,,,,,,,,,,,,,,,,,,,,,,,,,,,,,,,,,,,,,,,
,,5,5.6834,5,5.6834,0,2,2,23,1,148,flower,melon,,89037,001,2022-04-24_15h52.24.132,SPAMnetsValid,2021.1.4,MacIntel,30.00120005,,,,,,,,,,,,,,,,,,,,,,,,,,,,,,,,,,,,,,,,,,,,,,,,,,,,,,,,,,,,,,,,,,,,,,,,,,,,,,,,,,,,,,,,,
,,7,2.2676,7,2.2676,0,3,3,70,1,141,melon,tomato,,89037,001,2022-04-24_15h52.24.132,SPAMnetsValid,2021.1.4,MacIntel,30.00120005,,,,,,,,,,,,,,,,,,,,,,,,,,,,,,,,,,,,,,,,,,,,,,,,,,,,,,,,,,,,,,,,,,,,,,,,,,,,,,,,,,,,,,,,,
,,6,2.7813,6,2.7813,0,4,4,91,1,166,cake,yogurt,,89037,001,2022-04-24_15h52.24.132,SPAMnetsValid,2021.1.4,MacIntel,30.00120005,,,,,,,,,,,,,,,,,,,,,,,,,,,,,,,,,,,,,,,,,,,,,,,,,,,,,,,,,,,,,,,,,,,,,,,,,,,,,,,,,,,,,,,,,
,,3,2.7174,3,2.7174,0,5,5,55,1,143,pretzel,rose,,89037,001,2022-04-24_15h52.24.132,SPAMnetsValid,2021.1.4,MacIntel,30.00120005,,,,,,,,,,,,,,,,,,,,,,,,,,,,,,,,,,,,,,,,,,,,,,,,,,,,,,,,,,,,,,,,,,,,,,,,,,,,,,,,,,,,,,,,,
,,9,1.7493,9,1.7493,0,6,6,60,1,122,flower,garden,,89037,001,2022-04-24_15h52.24.132,SPAMnetsValid,2021.1.4,MacIntel,30.00120005,,,,,,,,,,,,,,,,,,,,,,,,,,,,,,,,,,,,,,,,,,,,,,,,,,,,,,,,,,,,,,,,,,,,,,,,,,,,,,,,,,,,,,,,,
,,6,2.7799,6,2.7799,0,7,7,49,1,152,cactus,strawberry,,89037,001,2022-04-24_15h52.24.132,SPAMnetsValid,2021.1.4,MacIntel,30.00120005,,,,,,,,,,,,,,,,,,,,,,,,,,,,,,,,,,,,,,,,,,,,,,,,,,,,,,,,,,,,,,,,,,,,,,,,,,,,,,,,,,,,,,,,,
,,4,3.1691,4,3.1691,0,8,8,74,1,128,melon,microwave,,89037,001,2022-04-24_15h52.24.132,SPAMnetsValid,2021.1.4,MacIntel,30.00120005,,,,,,,,,,,,,,,,,,,,,,,,,,,,,,,,,,,,,,,,,,,,,,,,,,,,,,,,,,,,,,,,,,,,,,,,,,,,,,,,,,,,,,,,,
,,7,2.582,7,2.582,0,9,9,41,1,175,melon,onion,,89037,001,2022-04-24_15h52.24.132,SPAMnetsValid,2021.1.4,MacIntel,30.00120005,,,,,,,,,,,,,,,,,,,,,,,,,,,,,,,,,,,,,,,,,,,,,,,,,,,,,,,,,,,,,,,,,,,,,,,,,,,,,,,,,,,,,,,,,
,,9,1.7805,9,1.7805,0,10,10,27,1,158,cookie,oven,,89037,001,2022-04-24_15h52.24.132,SPAMnetsValid,2021.1.4,MacIntel,30.00120005,,,,,,,,,,,,,,,,,,,,,,,,,,,,,,,,,,,,,,,,,,,,,,,,,,,,,,,,,,,,,,,,,,,,,,,,,,,,,,,,,,,,,,,,,
,,9,2.0111,9,2.0111,0,11,11,83,1,100,garden,tomato,,89037,001,2022-04-24_15h52.24.132,SPAMnetsValid,2021.1.4,MacIntel,30.00120005,,,,,,,,,,,,,,,,,,,,,,,,,,,,,,,,,,,,,,,,,,,,,,,,,,,,,,,,,,,,,,,,,,,,,,,,,,,,,,,,,,,,,,,,,
,,8,1.9166,8,1.9166,0,12,12,52,1,110,chocolate,cookie,,89037,001,2022-04-24_15h52.24.132,SPAMnetsValid,2021.1.4,MacIntel,30.00120005,,,,,,,,,,,,,,,,,,,,,,,,,,,,,,,,,,,,,,,,,,,,,,,,,,,,,,,,,,,,,,,,,,,,,,,,,,,,,,,,,,,,,,,,,
,,7,2.0005,7,2.0005,0,13,13,90,1,190,microwave,strawberry,,89037,001,2022-04-24_15h52.24.132,SPAMnetsValid,2021.1.4,MacIntel,30.00120005,,,,,,,,,,,,,,,,,,,,,,,,,,,,,,,,,,,,,,,,,,,,,,,,,,,,,,,,,,,,,,,,,,,,,,,,,,,,,,,,,,,,,,,,,
,,2,2.2933,2,2.2933,0,14,14,54,1,101,cactus,kitchen,,89037,001,2022-04-24_15h52.24.132,SPAMnetsValid,2021.1.4,MacIntel,30.00120005,,,,,,,,,,,,,,,,,,,,,,,,,,,,,,,,,,,,,,,,,,,,,,,,,,,,,,,,,,,,,,,,,,,,,,,,,,,,,,,,,,,,,,,,,
,,9,1.5838,9,1.5838,0,15,15,25,1,194,cactus,cactus,CHECK,89037,001,2022-04-24_15h52.24.132,SPAMnetsValid,2021.1.4,MacIntel,30.00120005,,,,,,,,,,,,,,,,,,,,,,,,,,,,,,,,,,,,,,,,,,,,,,,,,,,,,,,,,,,,,,,,,,,,,,,,,,,,,,,,,,,,,,,,,
,,7,4.3474,7,4.3474,0,16,16,34,1,153,carrot,pretzel,,89037,001,2022-04-24_15h52.24.132,SPAMnetsValid,2021.1.4,MacIntel,30.00120005,,,,,,,,,,,,,,,,,,,,,,,,,,,,,,,,,,,,,,,,,,,,,,,,,,,,,,,,,,,,,,,,,,,,,,,,,,,,,,,,,,,,,,,,,
,,3,6.8168,3,6.8168,0,17,17,26,1,107,rose,tomato,,89037,001,2022-04-24_15h52.24.132,SPAMnetsValid,2021.1.4,MacIntel,30.00120005,,,,,,,,,,,,,,,,,,,,,,,,,,,,,,,,,,,,,,,,,,,,,,,,,,,,,,,,,,,,,,,,,,,,,,,,,,,,,,,,,,,,,,,,,
,,5,3.3485,5,3.3485,0,18,18,68,1,180,tree,yogurt,,89037,001,2022-04-24_15h52.24.132,SPAMnetsValid,2021.1.4,MacIntel,30.00120005,,,,,,,,,,,,,,,,,,,,,,,,,,,,,,,,,,,,,,,,,,,,,,,,,,,,,,,,,,,,,,,,,,,,,,,,,,,,,,,,,,,,,,,,,
,,7,1.7888,7,1.7888,0,19,19,5,1,108,carrot,chocolate,,89037,001,2022-04-24_15h52.24.132,SPAMnetsValid,2021.1.4,MacIntel,30.00120005,,,,,,,,,,,,,,,,,,,,,,,,,,,,,,,,,,,,,,,,,,,,,,,,,,,,,,,,,,,,,,,,,,,,,,,,,,,,,,,,,,,,,,,,,
,,6,1.8728,6,1.8728,0,20,20,92,1,170,cookie,microwave,,89037,001,2022-04-24_15h52.24.132,SPAMnetsValid,2021.1.4,MacIntel,30.00120005,,,,,,,,,,,,,,,,,,,,,,,,,,,,,,,,,,,,,,,,,,,,,,,,,,,,,,,,,,,,,,,,,,,,,,,,,,,,,,,,,,,,,,,,,
,,8,1.9141,8,1.9141,0,21,21,47,1,167,carrot,garden,,89037,001,2022-04-24_15h52.24.132,SPAMnetsValid,2021.1.4,MacIntel,30.00120005,,,,,,,,,,,,,,,,,,,,,,,,,,,,,,,,,,,,,,,,,,,,,,,,,,,,,,,,,,,,,,,,,,,,,,,,,,,,,,,,,,,,,,,,,
,,7,2.0007,7,2.0007,0,22,22,8,1,97,chocolate,kitchen,,89037,001,2022-04-24_15h52.24.132,SPAMnetsValid,2021.1.4,MacIntel,30.00120005,,,,,,,,,,,,,,,,,,,,,,,,,,,,,,,,,,,,,,,,,,,,,,,,,,,,,,,,,,,,,,,,,,,,,,,,,,,,,,,,,,,,,,,,,
,,3,1.6155,3,1.6155,0,23,23,63,1,137,microwave,tree,,89037,001,2022-04-24_15h52.24.132,SPAMnetsValid,2021.1.4,MacIntel,30.00120005,,,,,,,,,,,,,,,,,,,,,,,,,,,,,,,,,,,,,,,,,,,,,,,,,,,,,,,,,,,,,,,,,,,,,,,,,,,,,,,,,,,,,,,,,
,,4,1.7659,4,1.7659,0,24,24,6,1,151,microwave,onion,,89037,001,2022-04-24_15h52.24.132,SPAMnetsValid,2021.1.4,MacIntel,30.00120005,,,,,,,,,,,,,,,,,,,,,,,,,,,,,,,,,,,,,,,,,,,,,,,,,,,,,,,,,,,,,,,,,,,,,,,,,,,,,,,,,,,,,,,,,
,,8,2.1209,8,2.1209,0,25,25,85,1,115,refrigerator,tomato,,89037,001,2022-04-24_15h52.24.132,SPAMnetsValid,2021.1.4,MacIntel,30.00120005,,,,,,,,,,,,,,,,,,,,,,,,,,,,,,,,,,,,,,,,,,,,,,,,,,,,,,,,,,,,,,,,,,,,,,,,,,,,,,,,,,,,,,,,,
,,3,1.5848,3,1.5848,0,26,26,3,1,129,cactus,refrigerator,,89037,001,2022-04-24_15h52.24.132,SPAMnetsValid,2021.1.4,MacIntel,30.00120005,,,,,,,,,,,,,,,,,,,,,,,,,,,,,,,,,,,,,,,,,,,,,,,,,,,,,,,,,,,,,,,,,,,,,,,,,,,,,,,,,,,,,,,,,
,,6,1.8832,6,1.8832,0,27,27,79,1,103,pretzel,tomato,,89037,001,2022-04-24_15h52.24.132,SPAMnetsValid,2021.1.4,MacIntel,30.00120005,,,,,,,,,,,,,,,,,,,,,,,,,,,,,,,,,,,,,,,,,,,,,,,,,,,,,,,,,,,,,,,,,,,,,,,,,,,,,,,,,,,,,,,,,
,,8,2.0633,8,2.0633,0,28,28,56,1,113,refrigerator,strawberry,,89037,001,2022-04-24_15h52.24.132,SPAMnetsValid,2021.1.4,MacIntel,30.00120005,,,,,,,,,,,,,,,,,,,,,,,,,,,,,,,,,,,,,,,,,,,,,,,,,,,,,,,,,,,,,,,,,,,,,,,,,,,,,,,,,,,,,,,,,
,,7,2.1989,7,2.1989,0,29,29,77,1,172,kitchen,melon,,89037,001,2022-04-24_15h52.24.132,SPAMnetsValid,2021.1.4,MacIntel,30.00120005,,,,,,,,,,,,,,,,,,,,,,,,,,,,,,,,,,,,,,,,,,,,,,,,,,,,,,,,,,,,,,,,,,,,,,,,,,,,,,,,,,,,,,,,,
,,6,1.7321,6,1.7321,0,30,30,17,1,99,garden,melon,,89037,001,2022-04-24_15h52.24.132,SPAMnetsValid,2021.1.4,MacIntel,30.00120005,,,,,,,,,,,,,,,,,,,,,,,,,,,,,,,,,,,,,,,,,,,,,,,,,,,,,,,,,,,,,,,,,,,,,,,,,,,,,,,,,,,,,,,,,
,,5,2.3978,5,2.3978,0,31,31,18,1,119,strawberry,tree,,89037,001,2022-04-24_15h52.24.132,SPAMnetsValid,2021.1.4,MacIntel,30.00120005,,,,,,,,,,,,,,,,,,,,,,,,,,,,,,,,,,,,,,,,,,,,,,,,,,,,,,,,,,,,,,,,,,,,,,,,,,,,,,,,,,,,,,,,,
,,9,1.4124,9,1.4124,0,32,32,86,1,193,melon,melon,CHECK,89037,001,2022-04-24_15h52.24.132,SPAMnetsValid,2021.1.4,MacIntel,30.00120005,,,,,,,,,,,,,,,,,,,,,,,,,,,,,,,,,,,,,,,,,,,,,,,,,,,,,,,,,,,,,,,,,,,,,,,,,,,,,,,,,,,,,,,,,
,,3,1.9924,3,1.9924,0,33,33,4,1,109,broom,strawberry,,89037,001,2022-04-24_15h52.24.132,SPAMnetsValid,2021.1.4,MacIntel,30.00120005,,,,,,,,,,,,,,,,,,,,,,,,,,,,,,,,,,,,,,,,,,,,,,,,,,,,,,,,,,,,,,,,,,,,,,,,,,,,,,,,,,,,,,,,,
,,6,1.7827,6,1.7827,0,34,34,36,1,161,kitchen,pretzel,,89037,001,2022-04-24_15h52.24.132,SPAMnetsValid,2021.1.4,MacIntel,30.00120005,,,,,,,,,,,,,,,,,,,,,,,,,,,,,,,,,,,,,,,,,,,,,,,,,,,,,,,,,,,,,,,,,,,,,,,,,,,,,,,,,,,,,,,,,
,,8,1.9556,8,1.9556,0,35,35,94,1,133,cake,flower,,89037,001,2022-04-24_15h52.24.132,SPAMnetsValid,2021.1.4,MacIntel,30.00120005,,,,,,,,,,,,,,,,,,,,,,,,,,,,,,,,,,,,,,,,,,,,,,,,,,,,,,,,,,,,,,,,,,,,,,,,,,,,,,,,,,,,,,,,,
,,4,5.0688,4,5.0688,0,36,36,31,1,156,melon,rose,,89037,001,2022-04-24_15h52.24.132,SPAMnetsValid,2021.1.4,MacIntel,30.00120005,,,,,,,,,,,,,,,,,,,,,,,,,,,,,,,,,,,,,,,,,,,,,,,,,,,,,,,,,,,,,,,,,,,,,,,,,,,,,,,,,,,,,,,,,
,,4,1.634,4,1.634,0,37,37,40,1,165,onion,rose,,89037,001,2022-04-24_15h52.24.132,SPAMnetsValid,2021.1.4,MacIntel,30.00120005,,,,,,,,,,,,,,,,,,,,,,,,,,,,,,,,,,,,,,,,,,,,,,,,,,,,,,,,,,,,,,,,,,,,,,,,,,,,,,,,,,,,,,,,,
,,7,2.6686,7,2.6686,0,38,38,42,1,184,oven,pretzel,,89037,001,2022-04-24_15h52.24.132,SPAMnetsValid,2021.1.4,MacIntel,30.00120005,,,,,,,,,,,,,,,,,,,,,,,,,,,,,,,,,,,,,,,,,,,,,,,,,,,,,,,,,,,,,,,,,,,,,,,,,,,,,,,,,,,,,,,,,
,,2,3.7165,2,3.7165,0,39,39,81,1,104,garden,microwave,,89037,001,2022-04-24_15h52.24.132,SPAMnetsValid,2021.1.4,MacIntel,30.00120005,,,,,,,,,,,,,,,,,,,,,,,,,,,,,,,,,,,,,,,,,,,,,,,,,,,,,,,,,,,,,,,,,,,,,,,,,,,,,,,,,,,,,,,,,
,,7,2.6269,7,2.6269,0,40,40,53,1,177,chocolate,strawberry,,89037,001,2022-04-24_15h52.24.132,SPAMnetsValid,2021.1.4,MacIntel,30.00120005,,,,,,,,,,,,,,,,,,,,,,,,,,,,,,,,,,,,,,,,,,,,,,,,,,,,,,,,,,,,,,,,,,,,,,,,,,,,,,,,,,,,,,,,,
,,3,2.5678,3,2.5678,0,41,41,16,1,111,carrot,microwave,,89037,001,2022-04-24_15h52.24.132,SPAMnetsValid,2021.1.4,MacIntel,30.00120005,,,,,,,,,,,,,,,,,,,,,,,,,,,,,,,,,,,,,,,,,,,,,,,,,,,,,,,,,,,,,,,,,,,,,,,,,,,,,,,,,,,,,,,,,
,,4,1.583,4,1.583,0,42,42,46,1,123,cookie,tree,,89037,001,2022-04-24_15h52.24.132,SPAMnetsValid,2021.1.4,MacIntel,30.00120005,,,,,,,,,,,,,,,,,,,,,,,,,,,,,,,,,,,,,,,,,,,,,,,,,,,,,,,,,,,,,,,,,,,,,,,,,,,,,,,,,,,,,,,,,
,,4,4.7624,4,4.7624,0,43,43,78,1,132,broom,tree,,89037,001,2022-04-24_15h52.24.132,SPAMnetsValid,2021.1.4,MacIntel,30.00120005,,,,,,,,,,,,,,,,,,,,,,,,,,,,,,,,,,,,,,,,,,,,,,,,,,,,,,,,,,,,,,,,,,,,,,,,,,,,,,,,,,,,,,,,,
,,5,5.5669,5,5.5669,0,44,44,43,1,185,cactus,rose,,89037,001,2022-04-24_15h52.24.132,SPAMnetsValid,2021.1.4,MacIntel,30.00120005,,,,,,,,,,,,,,,,,,,,,,,,,,,,,,,,,,,,,,,,,,,,,,,,,,,,,,,,,,,,,,,,,,,,,,,,,,,,,,,,,,,,,,,,,
,,6,1.8,6,1.8,0,45,45,87,1,114,cookie,strawberry,,89037,001,2022-04-24_15h52.24.132,SPAMnetsValid,2021.1.4,MacIntel,30.00120005,,,,,,,,,,,,,,,,,,,,,,,,,,,,,,,,,,,,,,,,,,,,,,,,,,,,,,,,,,,,,,,,,,,,,,,,,,,,,,,,,,,,,,,,,
,,4,2.5971,4,2.5971,0,46,46,32,1,182,flower,refrigerator,,89037,001,2022-04-24_15h52.24.132,SPAMnetsValid,2021.1.4,MacIntel,30.00120005,,,,,,,,,,,,,,,,,,,,,,,,,,,,,,,,,,,,,,,,,,,,,,,,,,,,,,,,,,,,,,,,,,,,,,,,,,,,,,,,,,,,,,,,,
,,5,2.0354,5,2.0354,0,47,47,76,1,102,chocolate,refrigerator,,89037,001,2022-04-24_15h52.24.132,SPAMnetsValid,2021.1.4,MacIntel,30.00120005,,,,,,,,,,,,,,,,,,,,,,,,,,,,,,,,,,,,,,,,,,,,,,,,,,,,,,,,,,,,,,,,,,,,,,,,,,,,,,,,,,,,,,,,,
,,8,1.5964,8,1.5964,0,48,48,7,1,188,flower,tree,,89037,001,2022-04-24_15h52.24.132,SPAMnetsValid,2021.1.4,MacIntel,30.00120005,,,,,,,,,,,,,,,,,,,,,,,,,,,,,,,,,,,,,,,,,,,,,,,,,,,,,,,,,,,,,,,,,,,,,,,,,,,,,,,,,,,,,,,,,
,,9,1.8999,9,1.8999,0,49,49,66,1,150,microwave,refrigerator,,89037,001,2022-04-24_15h52.24.132,SPAMnetsValid,2021.1.4,MacIntel,30.00120005,,,,,,,,,,,,,,,,,,,,,,,,,,,,,,,,,,,,,,,,,,,,,,,,,,,,,,,,,,,,,,,,,,,,,,,,,,,,,,,,,,,,,,,,,
,,6,3.1847,6,3.1847,0,50,50,62,1,189,onion,tree,,89037,001,2022-04-24_15h52.24.132,SPAMnetsValid,2021.1.4,MacIntel,30.00120005,,,,,,,,,,,,,,,,,,,,,,,,,,,,,,,,,,,,,,,,,,,,,,,,,,,,,,,,,,,,,,,,,,,,,,,,,,,,,,,,,,,,,,,,,
,,7,2.0011,7,2.0011,0,51,51,38,1,155,carrot,cookie,,89037,001,2022-04-24_15h52.24.132,SPAMnetsValid,2021.1.4,MacIntel,30.00120005,,,,,,,,,,,,,,,,,,,,,,,,,,,,,,,,,,,,,,,,,,,,,,,,,,,,,,,,,,,,,,,,,,,,,,,,,,,,,,,,,,,,,,,,,
,,7,1.467,7,1.467,0,52,52,1,1,173,kitchen,tomato,,89037,001,2022-04-24_15h52.24.132,SPAMnetsValid,2021.1.4,MacIntel,30.00120005,,,,,,,,,,,,,,,,,,,,,,,,,,,,,,,,,,,,,,,,,,,,,,,,,,,,,,,,,,,,,,,,,,,,,,,,,,,,,,,,,,,,,,,,,
,,4,3.883,4,3.883,0,53,53,13,1,105,cactus,oven,,89037,001,2022-04-24_15h52.24.132,SPAMnetsValid,2021.1.4,MacIntel,30.00120005,,,,,,,,,,,,,,,,,,,,,,,,,,,,,,,,,,,,,,,,,,,,,,,,,,,,,,,,,,,,,,,,,,,,,,,,,,,,,,,,,,,,,,,,,
,,6,1.5999,6,1.5999,0,54,54,96,1,136,chocolate,microwave,,89037,001,2022-04-24_15h52.24.132,SPAMnetsValid,2021.1.4,MacIntel,30.00120005,,,,,,,,,,,,,,,,,,,,,,,,,,,,,,,,,,,,,,,,,,,,,,,,,,,,,,,,,,,,,,,,,,,,,,,,,,,,,,,,,,,,,,,,,
,,3,1.7828,3,1.7828,0,55,55,80,1,146,pretzel,tree,,89037,001,2022-04-24_15h52.24.132,SPAMnetsValid,2021.1.4,MacIntel,30.00120005,,,,,,,,,,,,,,,,,,,,,,,,,,,,,,,,,,,,,,,,,,,,,,,,,,,,,,,,,,,,,,,,,,,,,,,,,,,,,,,,,,,,,,,,,
,,6,7.8826,6,7.8826,0,56,56,33,1,131,cactus,garden,,89037,001,2022-04-24_15h52.24.132,SPAMnetsValid,2021.1.4,MacIntel,30.00120005,,,,,,,,,,,,,,,,,,,,,,,,,,,,,,,,,,,,,,,,,,,,,,,,,,,,,,,,,,,,,,,,,,,,,,,,,,,,,,,,,,,,,,,,,
,,4,3.5326,4,3.5326,0,57,57,20,1,149,broom,tomato,,89037,001,2022-04-24_15h52.24.132,SPAMnetsValid,2021.1.4,MacIntel,30.00120005,,,,,,,,,,,,,,,,,,,,,,,,,,,,,,,,,,,,,,,,,,,,,,,,,,,,,,,,,,,,,,,,,,,,,,,,,,,,,,,,,,,,,,,,,
,,3,3.3482,3,3.3482,0,58,58,58,1,144,cake,garden,,89037,001,2022-04-24_15h52.24.132,SPAMnetsValid,2021.1.4,MacIntel,30.00120005,,,,,,,,,,,,,,,,,,,,,,,,,,,,,,,,,,,,,,,,,,,,,,,,,,,,,,,,,,,,,,,,,,,,,,,,,,,,,,,,,,,,,,,,,
,,9,2.8313,9,2.8313,0,59,59,22,1,142,garden,tree,,89037,001,2022-04-24_15h52.24.132,SPAMnetsValid,2021.1.4,MacIntel,30.00120005,,,,,,,,,,,,,,,,,,,,,,,,,,,,,,,,,,,,,,,,,,,,,,,,,,,,,,,,,,,,,,,,,,,,,,,,,,,,,,,,,,,,,,,,,
,,6,1.4174,6,1.4174,0,60,60,50,1,126,kitchen,tree,,89037,001,2022-04-24_15h52.24.132,SPAMnetsValid,2021.1.4,MacIntel,30.00120005,,,,,,,,,,,,,,,,,,,,,,,,,,,,,,,,,,,,,,,,,,,,,,,,,,,,,,,,,,,,,,,,,,,,,,,,,,,,,,,,,,,,,,,,,
,,4,6.218,4,6.218,0,61,61,19,1,183,cake,rose,,89037,001,2022-04-24_15h52.24.132,SPAMnetsValid,2021.1.4,MacIntel,30.00120005,,,,,,,,,,,,,,,,,,,,,,,,,,,,,,,,,,,,,,,,,,,,,,,,,,,,,,,,,,,,,,,,,,,,,,,,,,,,,,,,,,,,,,,,,
,,6,7.6747,6,7.6747,0,62,62,84,1,130,microwave,yogurt,,89037,001,2022-04-24_15h52.24.132,SPAMnetsValid,2021.1.4,MacIntel,30.00120005,,,,,,,,,,,,,,,,,,,,,,,,,,,,,,,,,,,,,,,,,,,,,,,,,,,,,,,,,,,,,,,,,,,,,,,,,,,,,,,,,,,,,,,,,
,,3,1.4498,3,1.4498,0,63,63,15,1,145,cactus,yogurt,,89037,001,2022-04-24_15h52.24.132,SPAMnetsValid,2021.1.4,MacIntel,30.00120005,,,,,,,,,,,,,,,,,,,,,,,,,,,,,,,,,,,,,,,,,,,,,,,,,,,,,,,,,,,,,,,,,,,,,,,,,,,,,,,,,,,,,,,,,
,,4,1.8625,4,1.8625,0,64,64,75,1,178,cactus,carrot,,89037,001,2022-04-24_15h52.24.132,SPAMnetsValid,2021.1.4,MacIntel,30.00120005,,,,,,,,,,,,,,,,,,,,,,,,,,,,,,,,,,,,,,,,,,,,,,,,,,,,,,,,,,,,,,,,,,,,,,,,,,,,,,,,,,,,,,,,,
,,5,1.9686,5,1.9686,0,65,65,12,1,162,microwave,tomato,,89037,001,2022-04-24_15h52.24.132,SPAMnetsValid,2021.1.4,MacIntel,30.00120005,,,,,,,,,,,,,,,,,,,,,,,,,,,,,,,,,,,,,,,,,,,,,,,,,,,,,,,,,,,,,,,,,,,,,,,,,,,,,,,,,,,,,,,,,
,,6,1.9012,6,1.9012,0,66,66,73,1,135,carrot,oven,,89037,001,2022-04-24_15h52.24.132,SPAMnetsValid,2021.1.4,MacIntel,30.00120005,,,,,,,,,,,,,,,,,,,,,,,,,,,,,,,,,,,,,,,,,,,,,,,,,,,,,,,,,,,,,,,,,,,,,,,,,,,,,,,,,,,,,,,,,
,,7,1.9829,7,1.9829,0,67,67,0,1,106,cake,strawberry,,89037,001,2022-04-24_15h52.24.132,SPAMnetsValid,2021.1.4,MacIntel,30.00120005,,,,,,,,,,,,,,,,,,,,,,,,,,,,,,,,,,,,,,,,,,,,,,,,,,,,,,,,,,,,,,,,,,,,,,,,,,,,,,,,,,,,,,,,,
,,4,4.8679,4,4.8679,0,68,68,64,1,157,refrigerator,rose,,89037,001,2022-04-24_15h52.24.132,SPAMnetsValid,2021.1.4,MacIntel,30.00120005,,,,,,,,,,,,,,,,,,,,,,,,,,,,,,,,,,,,,,,,,,,,,,,,,,,,,,,,,,,,,,,,,,,,,,,,,,,,,,,,,,,,,,,,,
,,8,2.5081,8,2.5081,0,69,69,44,1,116,cake,chocolate,,89037,001,2022-04-24_15h52.24.132,SPAMnetsValid,2021.1.4,MacIntel,30.00120005,,,,,,,,,,,,,,,,,,,,,,,,,,,,,,,,,,,,,,,,,,,,,,,,,,,,,,,,,,,,,,,,,,,,,,,,,,,,,,,,,,,,,,,,,
,,6,6.05,6,6.05,0,70,70,67,1,96,oven,strawberry,,89037,001,2022-04-24_15h52.24.132,SPAMnetsValid,2021.1.4,MacIntel,30.00120005,,,,,,,,,,,,,,,,,,,,,,,,,,,,,,,,,,,,,,,,,,,,,,,,,,,,,,,,,,,,,,,,,,,,,,,,,,,,,,,,,,,,,,,,,
,,3,2.3051,3,2.3051,0,71,71,93,1,134,carrot,flower,,89037,001,2022-04-24_15h52.24.132,SPAMnetsValid,2021.1.4,MacIntel,30.00120005,,,,,,,,,,,,,,,,,,,,,,,,,,,,,,,,,,,,,,,,,,,,,,,,,,,,,,,,,,,,,,,,,,,,,,,,,,,,,,,,,,,,,,,,,
,,7,12.5124,7,12.5124,0,72,72,45,1,179,broom,oven,,89037,001,2022-04-24_15h52.24.132,SPAMnetsValid,2021.1.4,MacIntel,30.00120005,,,,,,,,,,,,,,,,,,,,,,,,,,,,,,,,,,,,,,,,,,,,,,,,,,,,,,,,,,,,,,,,,,,,,,,,,,,,,,,,,,,,,,,,,
,,4,1.968,4,1.968,0,73,73,57,1,127,cactus,chocolate,,89037,001,2022-04-24_15h52.24.132,SPAMnetsValid,2021.1.4,MacIntel,30.00120005,,,,,,,,,,,,,,,,,,,,,,,,,,,,,,,,,,,,,,,,,,,,,,,,,,,,,,,,,,,,,,,,,,,,,,,,,,,,,,,,,,,,,,,,,
,,8,2.4381,8,2.4381,0,74,74,11,1,117,melon,strawberry,,89037,001,2022-04-24_15h52.24.132,SPAMnetsValid,2021.1.4,MacIntel,30.00120005,,,,,,,,,,,,,,,,,,,,,,,,,,,,,,,,,,,,,,,,,,,,,,,,,,,,,,,,,,,,,,,,,,,,,,,,,,,,,,,,,,,,,,,,,
,,8,1.4019,8,1.4019,0,75,75,37,1,139,carrot,strawberry,,89037,001,2022-04-24_15h52.24.132,SPAMnetsValid,2021.1.4,MacIntel,30.00120005,,,,,,,,,,,,,,,,,,,,,,,,,,,,,,,,,,,,,,,,,,,,,,,,,,,,,,,,,,,,,,,,,,,,,,,,,,,,,,,,,,,,,,,,,
,,9,2.4018,9,2.4018,0,76,76,39,1,112,cake,carrot,,89037,001,2022-04-24_15h52.24.132,SPAMnetsValid,2021.1.4,MacIntel,30.00120005,,,,,,,,,,,,,,,,,,,,,,,,,,,,,,,,,,,,,,,,,,,,,,,,,,,,,,,,,,,,,,,,,,,,,,,,,,,,,,,,,,,,,,,,,
,,7,2.2247,7,2.2247,0,77,77,10,1,118,chocolate,oven,,89037,001,2022-04-24_15h52.24.132,SPAMnetsValid,2021.1.4,MacIntel,30.00120005,,,,,,,,,,,,,,,,,,,,,,,,,,,,,,,,,,,,,,,,,,,,,,,,,,,,,,,,,,,,,,,,,,,,,,,,,,,,,,,,,,,,,,,,,
,,9,1.9646,9,1.9646,0,78,78,28,1,154,strawberry,yogurt,,89037,001,2022-04-24_15h52.24.132,SPAMnetsValid,2021.1.4,MacIntel,30.00120005,,,,,,,,,,,,,,,,,,,,,,,,,,,,,,,,,,,,,,,,,,,,,,,,,,,,,,,,,,,,,,,,,,,,,,,,,,,,,,,,,,,,,,,,,
,,9,2.3096,9,2.3096,0,79,79,61,1,138,flower,rose,,89037,001,2022-04-24_15h52.24.132,SPAMnetsValid,2021.1.4,MacIntel,30.00120005,,,,,,,,,,,,,,,,,,,,,,,,,,,,,,,,,,,,,,,,,,,,,,,,,,,,,,,,,,,,,,,,,,,,,,,,,,,,,,,,,,,,,,,,,
,,8,2.8007,8,2.8007,0,80,80,35,1,147,cake,refrigerator,,89037,001,2022-04-24_15h52.24.132,SPAMnetsValid,2021.1.4,MacIntel,30.00120005,,,,,,,,,,,,,,,,,,,,,,,,,,,,,,,,,,,,,,,,,,,,,,,,,,,,,,,,,,,,,,,,,,,,,,,,,,,,,,,,,,,,,,,,,
,,7,1.8289,7,1.8289,0,81,81,9,1,176,cactus,tomato,,89037,001,2022-04-24_15h52.24.132,SPAMnetsValid,2021.1.4,MacIntel,30.00120005,,,,,,,,,,,,,,,,,,,,,,,,,,,,,,,,,,,,,,,,,,,,,,,,,,,,,,,,,,,,,,,,,,,,,,,,,,,,,,,,,,,,,,,,,
,,7,2.2204,7,2.2204,0,82,82,29,1,163,melon,refrigerator,,89037,001,2022-04-24_15h52.24.132,SPAMnetsValid,2021.1.4,MacIntel,30.00120005,,,,,,,,,,,,,,,,,,,,,,,,,,,,,,,,,,,,,,,,,,,,,,,,,,,,,,,,,,,,,,,,,,,,,,,,,,,,,,,,,,,,,,,,,
,,4,2.3653,4,2.3653,0,83,83,21,1,159,cookie,flower,,89037,001,2022-04-24_15h52.24.132,SPAMnetsValid,2021.1.4,MacIntel,30.00120005,,,,,,,,,,,,,,,,,,,,,,,,,,,,,,,,,,,,,,,,,,,,,,,,,,,,,,,,,,,,,,,,,,,,,,,,,,,,,,,,,,,,,,,,,
,,4,3.4512,4,3.4512,0,84,84,2,1,174,cake,pretzel,,89037,001,2022-04-24_15h52.24.132,SPAMnetsValid,2021.1.4,MacIntel,30.00120005,,,,,,,,,,,,,,,,,,,,,,,,,,,,,,,,,,,,,,,,,,,,,,,,,,,,,,,,,,,,,,,,,,,,,,,,,,,,,,,,,,,,,,,,,
,,6,4.5708,6,4.5708,0,85,85,72,1,181,carrot,kitchen,,89037,001,2022-04-24_15h52.24.132,SPAMnetsValid,2021.1.4,MacIntel,30.00120005,,,,,,,,,,,,,,,,,,,,,,,,,,,,,,,,,,,,,,,,,,,,,,,,,,,,,,,,,,,,,,,,,,,,,,,,,,,,,,,,,,,,,,,,,
,,7,1.4163,7,1.4163,0,86,86,65,1,160,cookie,kitchen,,89037,001,2022-04-24_15h52.24.132,SPAMnetsValid,2021.1.4,MacIntel,30.00120005,,,,,,,,,,,,,,,,,,,,,,,,,,,,,,,,,,,,,,,,,,,,,,,,,,,,,,,,,,,,,,,,,,,,,,,,,,,,,,,,,,,,,,,,,
,,7,1.638,7,1.638,0,87,87,48,1,186,kitchen,yogurt,,89037,001,2022-04-24_15h52.24.132,SPAMnetsValid,2021.1.4,MacIntel,30.00120005,,,,,,,,,,,,,,,,,,,,,,,,,,,,,,,,,,,,,,,,,,,,,,,,,,,,,,,,,,,,,,,,,,,,,,,,,,,,,,,,,,,,,,,,,
,,2,1.7563,2,1.7563,0,88,88,71,1,187,cactus,microwave,,89037,001,2022-04-24_15h52.24.132,SPAMnetsValid,2021.1.4,MacIntel,30.00120005,,,,,,,,,,,,,,,,,,,,,,,,,,,,,,,,,,,,,,,,,,,,,,,,,,,,,,,,,,,,,,,,,,,,,,,,,,,,,,,,,,,,,,,,,
,,6,2.7687,6,2.7687,0,89,89,24,1,169,onion,yogurt,,89037,001,2022-04-24_15h52.24.132,SPAMnetsValid,2021.1.4,MacIntel,30.00120005,,,,,,,,,,,,,,,,,,,,,,,,,,,,,,,,,,,,,,,,,,,,,,,,,,,,,,,,,,,,,,,,,,,,,,,,,,,,,,,,,,,,,,,,,
,,4,2.6727,4,2.6727,0,90,90,59,1,164,cookie,garden,,89037,001,2022-04-24_15h52.24.132,SPAMnetsValid,2021.1.4,MacIntel,30.00120005,,,,,,,,,,,,,,,,,,,,,,,,,,,,,,,,,,,,,,,,,,,,,,,,,,,,,,,,,,,,,,,,,,,,,,,,,,,,,,,,,,,,,,,,,
,,8,6.5834,8,6.5834,0,91,91,69,1,124,oven,refrigerator,,89037,001,2022-04-24_15h52.24.132,SPAMnetsValid,2021.1.4,MacIntel,30.00120005,,,,,,,,,,,,,,,,,,,,,,,,,,,,,,,,,,,,,,,,,,,,,,,,,,,,,,,,,,,,,,,,,,,,,,,,,,,,,,,,,,,,,,,,,
,,8,1.1964,8,1.1964,0,92,92,14,1,120,microwave,oven,,89037,001,2022-04-24_15h52.24.132,SPAMnetsValid,2021.1.4,MacIntel,30.00120005,,,,,,,,,,,,,,,,,,,,,,,,,,,,,,,,,,,,,,,,,,,,,,,,,,,,,,,,,,,,,,,,,,,,,,,,,,,,,,,,,,,,,,,,,
,,5,2.8225,5,2.8225,0,93,93,51,1,168,cactus,flower,,89037,001,2022-04-24_15h52.24.132,SPAMnetsValid,2021.1.4,MacIntel,30.00120005,,,,,,,,,,,,,,,,,,,,,,,,,,,,,,,,,,,,,,,,,,,,,,,,,,,,,,,,,,,,,,,,,,,,,,,,,,,,,,,,,,,,,,,,,
,,7,1.8938,7,1.8938,0,94,94,30,1,125,carrot,tree,,89037,001,2022-04-24_15h52.24.132,SPAMnetsValid,2021.1.4,MacIntel,30.00120005,,,,,,,,,,,,,,,,,,,,,,,,,,,,,,,,,,,,,,,,,,,,,,,,,,,,,,,,,,,,,,,,,,,,,,,,,,,,,,,,,,,,,,,,,
,,6,1.6293,6,1.6293,0,95,95,89,1,140,cookie,refrigerator,,89037,001,2022-04-24_15h52.24.132,SPAMnetsValid,2021.1.4,MacIntel,30.00120005,,,,,,,,,,,,,,,,,,,,,,,,,,,,,,,,,,,,,,,,,,,,,,,,,,,,,,,,,,,,,,,,,,,,,,,,,,,,,,,,,,,,,,,,,
,,6,6.4542,6,6.4542,0,96,96,88,1,171,cake,tomato,,89037,001,2022-04-24_15h52.24.132,SPAMnetsValid,2021.1.4,MacIntel,30.00120005,,,,,,,,,,,,,,,,,,,,,,,,,,,,,,,,,,,,,,,,,,,,,,,,,,,,,,,,,,,,,,,,,,,,,,,,,,,,,,,,,,,,,,,,,
,,,,,,,,,,,,,,,89037,001,2022-04-24_15h52.24.132,SPAMnetsValid,2021.1.4,MacIntel,30.00120005,0,0,0,0,1,,,,,,,,,,,,,,,,,,,,,,,,,,,,,,,,,,,,,,,,,,,,,,,,,,,,,,,,,,,,,,,,,,,,,,,,,,,,,,,,,,,,
,,,,,,,,,,,,,,,89037,001,2022-04-24_15h52.24.132,SPAMnetsValid,2021.1.4,MacIntel,30.00120005,,,,,,0,0,0,1,1,0,1,,,,,,,,,,,,,,,,,,,,,,,,,,,,,,,,,,,,,,,,,,,,,,,,,,,,,,,,,,,,,,,,,,,,,,,,,,,,,
,,,,4,10.2433,,,,,,18,onion,refrigerator,,89037,001,2022-04-24_15h52.24.132,SPAMnetsValid,2021.1.4,MacIntel,30.00120005,,,,,,,,,,,,,4,10.2433,0,0,0,62,1,,,,,,,,,,,,,,,,,,,,,,,,,,,,,,,,,,,,,,,,,,,,,,,,,,,,,,,,,,,,,,,,,,,,,,
,,,,5,2.4995,,,,,,44,cookie,melon,,89037,001,2022-04-24_15h52.24.132,SPAMnetsValid,2021.1.4,MacIntel,30.00120005,,,,,,,,,,,,,5,2.4995,0,1,1,92,1,,,,,,,,,,,,,,,,,,,,,,,,,,,,,,,,,,,,,,,,,,,,,,,,,,,,,,,,,,,,,,,,,,,,,,
,,,,3,4.6829,,,,,,31,cactus,pretzel,,89037,001,2022-04-24_15h52.24.132,SPAMnetsValid,2021.1.4,MacIntel,30.00120005,,,,,,,,,,,,,3,4.6829,0,2,2,1,1,,,,,,,,,,,,,,,,,,,,,,,,,,,,,,,,,,,,,,,,,,,,,,,,,,,,,,,,,,,,,,,,,,,,,,
,,,,3,1.3669,,,,,,14,broom,cookie,,89037,001,2022-04-24_15h52.24.132,SPAMnetsValid,2021.1.4,MacIntel,30.00120005,,,,,,,,,,,,,3,1.3669,0,3,3,16,1,,,,,,,,,,,,,,,,,,,,,,,,,,,,,,,,,,,,,,,,,,,,,,,,,,,,,,,,,,,,,,,,,,,,,,
,,,,6,1.8458,,,,,,22,kitchen,strawberry,,89037,001,2022-04-24_15h52.24.132,SPAMnetsValid,2021.1.4,MacIntel,30.00120005,,,,,,,,,,,,,6,1.8458,0,4,4,2,1,,,,,,,,,,,,,,,,,,,,,,,,,,,,,,,,,,,,,,,,,,,,,,,,,,,,,,,,,,,,,,,,,,,,,,
,,,,2,2.0327,,,,,,37,garden,refrigerator,,89037,001,2022-04-24_15h52.24.132,SPAMnetsValid,2021.1.4,MacIntel,30.00120005,,,,,,,,,,,,,2,2.0327,0,5,5,11,1,,,,,,,,,,,,,,,,,,,,,,,,,,,,,,,,,,,,,,,,,,,,,,,,,,,,,,,,,,,,,,,,,,,,,,
,,,,2,2.0982,,,,,,64,chocolate,garden,,89037,001,2022-04-24_15h52.24.132,SPAMnetsValid,2021.1.4,MacIntel,30.00120005,,,,,,,,,,,,,2,2.0982,0,6,6,14,1,,,,,,,,,,,,,,,,,,,,,,,,,,,,,,,,,,,,,,,,,,,,,,,,,,,,,,,,,,,,,,,,,,,,,,
,,,,9,1.6377,,,,,,191,cake,cake,CHECK,89037,001,2022-04-24_15h52.24.132,SPAMnetsValid,2021.1.4,MacIntel,30.00120005,,,,,,,,,,,,,9,1.6377,0,7,7,10,1,,,,,,,,,,,,,,,,,,,,,,,,,,,,,,,,,,,,,,,,,,,,,,,,,,,,,,,,,,,,,,,,,,,,,,
,,,,8,6.0443,,,,,,3,cake,oven,,89037,001,2022-04-24_15h52.24.132,SPAMnetsValid,2021.1.4,MacIntel,30.00120005,,,,,,,,,,,,,8,6.0443,0,8,8,30,1,,,,,,,,,,,,,,,,,,,,,,,,,,,,,,,,,,,,,,,,,,,,,,,,,,,,,,,,,,,,,,,,,,,,,,
,,,,3,1.7159,,,,,,67,flower,yogurt,,89037,001,2022-04-24_15h52.24.132,SPAMnetsValid,2021.1.4,MacIntel,30.00120005,,,,,,,,,,,,,3,1.7159,0,9,9,12,1,,,,,,,,,,,,,,,,,,,,,,,,,,,,,,,,,,,,,,,,,,,,,,,,,,,,,,,,,,,,,,,,,,,,,,
,,,,9,1.6172,,,,,,63,cake,cookie,,89037,001,2022-04-24_15h52.24.132,SPAMnetsValid,2021.1.4,MacIntel,30.00120005,,,,,,,,,,,,,9,1.6172,0,10,10,93,1,,,,,,,,,,,,,,,,,,,,,,,,,,,,,,,,,,,,,,,,,,,,,,,,,,,,,,,,,,,,,,,,,,,,,,
,,,,4,2.185,,,,,,54,chocolate,yogurt,,89037,001,2022-04-24_15h52.24.132,SPAMnetsValid,2021.1.4,MacIntel,30.00120005,,,,,,,,,,,,,4,2.185,0,11,11,67,1,,,,,,,,,,,,,,,,,,,,,,,,,,,,,,,,,,,,,,,,,,,,,,,,,,,,,,,,,,,,,,,,,,,,,,
,,,,2,1.9378,,,,,,72,broom,onion,,89037,001,2022-04-24_15h52.24.132,SPAMnetsValid,2021.1.4,MacIntel,30.00120005,,,,,,,,,,,,,2,1.9378,0,12,12,27,1,,,,,,,,,,,,,,,,,,,,,,,,,,,,,,,,,,,,,,,,,,,,,,,,,,,,,,,,,,,,,,,,,,,,,,
,,,,1,2.2155,,,,,,58,garden,oven,,89037,001,2022-04-24_15h52.24.132,SPAMnetsValid,2021.1.4,MacIntel,30.00120005,,,,,,,,,,,,,1,2.2155,0,13,13,37,1,,,,,,,,,,,,,,,,,,,,,,,,,,,,,,,,,,,,,,,,,,,,,,,,,,,,,,,,,,,,,,,,,,,,,,
,,,,4,3.5824,,,,,,87,carrot,yogurt,,89037,001,2022-04-24_15h52.24.132,SPAMnetsValid,2021.1.4,MacIntel,30.00120005,,,,,,,,,,,,,4,3.5824,0,14,14,6,1,,,,,,,,,,,,,,,,,,,,,,,,,,,,,,,,,,,,,,,,,,,,,,,,,,,,,,,,,,,,,,,,,,,,,,
,,,,4,1.6102,,,,,,24,cookie,tomato,,89037,001,2022-04-24_15h52.24.132,SPAMnetsValid,2021.1.4,MacIntel,30.00120005,,,,,,,,,,,,,4,1.6102,0,15,15,68,1,,,,,,,,,,,,,,,,,,,,,,,,,,,,,,,,,,,,,,,,,,,,,,,,,,,,,,,,,,,,,,,,,,,,,,
,,,,4,1.366,,,,,,12,cookie,yogurt,,89037,001,2022-04-24_15h52.24.132,SPAMnetsValid,2021.1.4,MacIntel,30.00120005,,,,,,,,,,,,,4,1.366,0,16,16,36,1,,,,,,,,,,,,,,,,,,,,,,,,,,,,,,,,,,,,,,,,,,,,,,,,,,,,,,,,,,,,,,,,,,,,,,
,,,,6,3.6998,,,,,,2,kitchen,onion,,89037,001,2022-04-24_15h52.24.132,SPAMnetsValid,2021.1.4,MacIntel,30.00120005,,,,,,,,,,,,,6,3.6998,0,17,17,91,1,,,,,,,,,,,,,,,,,,,,,,,,,,,,,,,,,,,,,,,,,,,,,,,,,,,,,,,,,,,,,,,,,,,,,,
,,,,4,2.7338,,,,,,34,melon,oven,,89037,001,2022-04-24_15h52.24.132,SPAMnetsValid,2021.1.4,MacIntel,30.00120005,,,,,,,,,,,,,4,2.7338,0,18,18,7,1,,,,,,,,,,,,,,,,,,,,,,,,,,,,,,,,,,,,,,,,,,,,,,,,,,,,,,,,,,,,,,,,,,,,,,
,,,,5,2.2704,,,,,,7,melon,tree,,89037,001,2022-04-24_15h52.24.132,SPAMnetsValid,2021.1.4,MacIntel,30.00120005,,,,,,,,,,,,,5,2.2704,0,19,19,77,1,,,,,,,,,,,,,,,,,,,,,,,,,,,,,,,,,,,,,,,,,,,,,,,,,,,,,,,,,,,,,,,,,,,,,,
,,,,9,2.8007,,,,,,76,garden,rose,,89037,001,2022-04-24_15h52.24.132,SPAMnetsValid,2021.1.4,MacIntel,30.00120005,,,,,,,,,,,,,9,2.8007,0,20,20,19,1,,,,,,,,,,,,,,,,,,,,,,,,,,,,,,,,,,,,,,,,,,,,,,,,,,,,,,,,,,,,,,,,,,,,,,
,,,,5,4.9452,,,,,,26,tomato,yogurt,,89037,001,2022-04-24_15h52.24.132,SPAMnetsValid,2021.1.4,MacIntel,30.00120005,,,,,,,,,,,,,5,4.9452,0,21,21,13,1,,,,,,,,,,,,,,,,,,,,,,,,,,,,,,,,,,,,,,,,,,,,,,,,,,,,,,,,,,,,,,,,,,,,,,
,,,,5,1.3981,,,,,,6,garden,onion,,89037,001,2022-04-24_15h52.24.132,SPAMnetsValid,2021.1.4,MacIntel,30.00120005,,,,,,,,,,,,,5,1.3981,0,22,22,83,1,,,,,,,,,,,,,,,,,,,,,,,,,,,,,,,,,,,,,,,,,,,,,,,,,,,,,,,,,,,,,,,,,,,,,,
,,,,5,3.3213,,,,,,21,cake,onion,,89037,001,2022-04-24_15h52.24.132,SPAMnetsValid,2021.1.4,MacIntel,30.00120005,,,,,,,,,,,,,5,3.3213,0,23,23,63,1,,,,,,,,,,,,,,,,,,,,,,,,,,,,,,,,,,,,,,,,,,,,,,,,,,,,,,,,,,,,,,,,,,,,,,
,,,,2,2.1034,,,,,,41,broom,cactus,,89037,001,2022-04-24_15h52.24.132,SPAMnetsValid,2021.1.4,MacIntel,30.00120005,,,,,,,,,,,,,2,2.1034,0,24,24,46,1,,,,,,,,,,,,,,,,,,,,,,,,,,,,,,,,,,,,,,,,,,,,,,,,,,,,,,,,,,,,,,,,,,,,,,
,,,,6,6.503,,,,,,39,melon,pretzel,,89037,001,2022-04-24_15h52.24.132,SPAMnetsValid,2021.1.4,MacIntel,30.00120005,,,,,,,,,,,,,6,6.503,0,25,25,20,1,,,,,,,,,,,,,,,,,,,,,,,,,,,,,,,,,,,,,,,,,,,,,,,,,,,,,,,,,,,,,,,,,,,,,,
,,,,5,11.3696,,,,,,50,carrot,rose,,89037,001,2022-04-24_15h52.24.132,SPAMnetsValid,2021.1.4,MacIntel,30.00120005,,,,,,,,,,,,,5,11.3696,0,26,26,73,1,,,,,,,,,,,,,,,,,,,,,,,,,,,,,,,,,,,,,,,,,,,,,,,,,,,,,,,,,,,,,,,,,,,,,,
,,,,4,20.4164,,,,,,95,broom,refrigerator,,89037,001,2022-04-24_15h52.24.132,SPAMnetsValid,2021.1.4,MacIntel,30.00120005,,,,,,,,,,,,,4,20.4164,0,27,27,90,1,,,,,,,,,,,,,,,,,,,,,,,,,,,,,,,,,,,,,,,,,,,,,,,,,,,,,,,,,,,,,,,,,,,,,,
,,,,7,4.3451,,,,,,56,cactus,tree,,89037,001,2022-04-24_15h52.24.132,SPAMnetsValid,2021.1.4,MacIntel,30.00120005,,,,,,,,,,,,,7,4.3451,0,28,28,21,1,,,,,,,,,,,,,,,,,,,,,,,,,,,,,,,,,,,,,,,,,,,,,,,,,,,,,,,,,,,,,,,,,,,,,,
,,,,8,1.9227,,,,,,79,garden,strawberry,,89037,001,2022-04-24_15h52.24.132,SPAMnetsValid,2021.1.4,MacIntel,30.00120005,,,,,,,,,,,,,8,1.9227,0,29,29,87,1,,,,,,,,,,,,,,,,,,,,,,,,,,,,,,,,,,,,,,,,,,,,,,,,,,,,,,,,,,,,,,,,,,,,,,
,,,,4,2.1835,,,,,,92,broom,flower,,89037,001,2022-04-24_15h52.24.132,SPAMnetsValid,2021.1.4,MacIntel,30.00120005,,,,,,,,,,,,,4,2.1835,0,30,30,88,1,,,,,,,,,,,,,,,,,,,,,,,,,,,,,,,,,,,,,,,,,,,,,,,,,,,,,,,,,,,,,,,,,,,,,,
,,,,3,2.2296,,,,,,53,garden,pretzel,,89037,001,2022-04-24_15h52.24.132,SPAMnetsValid,2021.1.4,MacIntel,30.00120005,,,,,,,,,,,,,3,2.2296,0,31,31,0,1,,,,,,,,,,,,,,,,,,,,,,,,,,,,,,,,,,,,,,,,,,,,,,,,,,,,,,,,,,,,,,,,,,,,,,
,,,,4,1.563,,,,,,65,broom,garden,,89037,001,2022-04-24_15h52.24.132,SPAMnetsValid,2021.1.4,MacIntel,30.00120005,,,,,,,,,,,,,4,1.563,0,32,32,23,1,,,,,,,,,,,,,,,,,,,,,,,,,,,,,,,,,,,,,,,,,,,,,,,,,,,,,,,,,,,,,,,,,,,,,,
,,,,7,2.2173,,,,,,57,flower,kitchen,,89037,001,2022-04-24_15h52.24.132,SPAMnetsValid,2021.1.4,MacIntel,30.00120005,,,,,,,,,,,,,7,2.2173,0,33,33,49,1,,,,,,,,,,,,,,,,,,,,,,,,,,,,,,,,,,,,,,,,,,,,,,,,,,,,,,,,,,,,,,,,,,,,,,
,,,,4,3.6357,,,,,,35,flower,pretzel,,89037,001,2022-04-24_15h52.24.132,SPAMnetsValid,2021.1.4,MacIntel,30.00120005,,,,,,,,,,,,,4,3.6357,0,34,34,26,1,,,,,,,,,,,,,,,,,,,,,,,,,,,,,,,,,,,,,,,,,,,,,,,,,,,,,,,,,,,,,,,,,,,,,,
,,,,6,2.2867,,,,,,30,cookie,pretzel,,89037,001,2022-04-24_15h52.24.132,SPAMnetsValid,2021.1.4,MacIntel,30.00120005,,,,,,,,,,,,,6,2.2867,0,35,35,78,1,,,,,,,,,,,,,,,,,,,,,,,,,,,,,,,,,,,,,,,,,,,,,,,,,,,,,,,,,,,,,,,,,,,,,,
,,,,7,2.3117,,,,,,62,kitchen,rose,,89037,001,2022-04-24_15h52.24.132,SPAMnetsValid,2021.1.4,MacIntel,30.00120005,,,,,,,,,,,,,7,2.3117,0,36,36,57,1,,,,,,,,,,,,,,,,,,,,,,,,,,,,,,,,,,,,,,,,,,,,,,,,,,,,,,,,,,,,,,,,,,,,,,
,,,,4,2.8363,,,,,,10,flower,onion,,89037,001,2022-04-24_15h52.24.132,SPAMnetsValid,2021.1.4,MacIntel,30.00120005,,,,,,,,,,,,,4,2.8363,0,37,37,45,1,,,,,,,,,,,,,,,,,,,,,,,,,,,,,,,,,,,,,,,,,,,,,,,,,,,,,,,,,,,,,,,,,,,,,,
,,,,1,1.84,,,,,,11,refrigerator,tree,,89037,001,2022-04-24_15h52.24.132,SPAMnetsValid,2021.1.4,MacIntel,30.00120005,,,,,,,,,,,,,1,1.84,0,38,38,43,1,,,,,,,,,,,,,,,,,,,,,,,,,,,,,,,,,,,,,,,,,,,,,,,,,,,,,,,,,,,,,,,,,,,,,,
,,,,2,4.6973,,,,,,13,broom,yogurt,,89037,001,2022-04-24_15h52.24.132,SPAMnetsValid,2021.1.4,MacIntel,30.00120005,,,,,,,,,,,,,2,4.6973,0,39,39,5,1,,,,,,,,,,,,,,,,,,,,,,,,,,,,,,,,,,,,,,,,,,,,,,,,,,,,,,,,,,,,,,,,,,,,,,
,,,,1,2.445,,,,,,86,oven,rose,,89037,001,2022-04-24_15h52.24.132,SPAMnetsValid,2021.1.4,MacIntel,30.00120005,,,,,,,,,,,,,1,2.445,0,40,40,79,1,,,,,,,,,,,,,,,,,,,,,,,,,,,,,,,,,,,,,,,,,,,,,,,,,,,,,,,,,,,,,,,,,,,,,,
,,,,9,2.225,,,,,,93,kitchen,oven,,89037,001,2022-04-24_15h52.24.132,SPAMnetsValid,2021.1.4,MacIntel,30.00120005,,,,,,,,,,,,,9,2.225,0,41,41,82,1,,,,,,,,,,,,,,,,,,,,,,,,,,,,,,,,,,,,,,,,,,,,,,,,,,,,,,,,,,,,,,,,,,,,,,
,,,,6,2.4237,,,,,,75,cookie,onion,,89037,001,2022-04-24_15h52.24.132,SPAMnetsValid,2021.1.4,MacIntel,30.00120005,,,,,,,,,,,,,6,2.4237,0,42,42,9,1,,,,,,,,,,,,,,,,,,,,,,,,,,,,,,,,,,,,,,,,,,,,,,,,,,,,,,,,,,,,,,,,,,,,,,
,,,,4,1.7961,,,,,,19,microwave,pretzel,,89037,001,2022-04-24_15h52.24.132,SPAMnetsValid,2021.1.4,MacIntel,30.00120005,,,,,,,,,,,,,4,1.7961,0,43,43,41,1,,,,,,,,,,,,,,,,,,,,,,,,,,,,,,,,,,,,,,,,,,,,,,,,,,,,,,,,,,,,,,,,,,,,,,
,,,,3,3.0539,,,,,,42,garden,kitchen,,89037,001,2022-04-24_15h52.24.132,SPAMnetsValid,2021.1.4,MacIntel,30.00120005,,,,,,,,,,,,,3,3.0539,0,44,44,29,1,,,,,,,,,,,,,,,,,,,,,,,,,,,,,,,,,,,,,,,,,,,,,,,,,,,,,,,,,,,,,,,,,,,,,,
,,,,9,1.9225,,,,,,25,carrot,onion,,89037,001,2022-04-24_15h52.24.132,SPAMnetsValid,2021.1.4,MacIntel,30.00120005,,,,,,,,,,,,,9,1.9225,0,45,45,44,1,,,,,,,,,,,,,,,,,,,,,,,,,,,,,,,,,,,,,,,,,,,,,,,,,,,,,,,,,,,,,,,,,,,,,,
,,,,5,2.6111,,,,,,85,cake,tree,,89037,001,2022-04-24_15h52.24.132,SPAMnetsValid,2021.1.4,MacIntel,30.00120005,,,,,,,,,,,,,5,2.6111,0,46,46,18,1,,,,,,,,,,,,,,,,,,,,,,,,,,,,,,,,,,,,,,,,,,,,,,,,,,,,,,,,,,,,,,,,,,,,,,
,,,,6,2.4786,,,,,,4,chocolate,pretzel,,89037,001,2022-04-24_15h52.24.132,SPAMnetsValid,2021.1.4,MacIntel,30.00120005,,,,,,,,,,,,,6,2.4786,0,47,47,52,1,,,,,,,,,,,,,,,,,,,,,,,,,,,,,,,,,,,,,,,,,,,,,,,,,,,,,,,,,,,,,,,,,,,,,,
,,,,4,5.3661,,,,,,83,broom,carrot,,89037,001,2022-04-24_15h52.24.132,SPAMnetsValid,2021.1.4,MacIntel,30.00120005,,,,,,,,,,,,,4,5.3661,0,48,48,4,1,,,,,,,,,,,,,,,,,,,,,,,,,,,,,,,,,,,,,,,,,,,,,,,,,,,,,,,,,,,,,,,,,,,,,,
,,,,3,6.6832,,,,,,73,broom,chocolate,,89037,001,2022-04-24_15h52.24.132,SPAMnetsValid,2021.1.4,MacIntel,30.00120005,,,,,,,,,,,,,3,6.6832,0,49,49,47,1,,,,,,,,,,,,,,,,,,,,,,,,,,,,,,,,,,,,,,,,,,,,,,,,,,,,,,,,,,,,,,,,,,,,,,
,,,,7,1.7249,,,,,,20,rose,tree,,89037,001,2022-04-24_15h52.24.132,SPAMnetsValid,2021.1.4,MacIntel,30.00120005,,,,,,,,,,,,,7,1.7249,0,50,50,66,1,,,,,,,,,,,,,,,,,,,,,,,,,,,,,,,,,,,,,,,,,,,,,,,,,,,,,,,,,,,,,,,,,,,,,,
,,,,5,2.7491,,,,,,88,cactus,melon,,89037,001,2022-04-24_15h52.24.132,SPAMnetsValid,2021.1.4,MacIntel,30.00120005,,,,,,,,,,,,,5,2.7491,0,51,51,38,1,,,,,,,,,,,,,,,,,,,,,,,,,,,,,,,,,,,,,,,,,,,,,,,,,,,,,,,,,,,,,,,,,,,,,,
,,,,5,2.6287,,,,,,70,chocolate,onion,,89037,001,2022-04-24_15h52.24.132,SPAMnetsValid,2021.1.4,MacIntel,30.00120005,,,,,,,,,,,,,5,2.6287,0,52,52,74,1,,,,,,,,,,,,,,,,,,,,,,,,,,,,,,,,,,,,,,,,,,,,,,,,,,,,,,,,,,,,,,,,,,,,,,
,,,,7,2.1051,,,,,,59,rose,strawberry,,89037,001,2022-04-24_15h52.24.132,SPAMnetsValid,2021.1.4,MacIntel,30.00120005,,,,,,,,,,,,,7,2.1051,0,53,53,72,1,,,,,,,,,,,,,,,,,,,,,,,,,,,,,,,,,,,,,,,,,,,,,,,,,,,,,,,,,,,,,,,,,,,,,,
,,,,4,1.9327,,,,,,91,microwave,rose,,89037,001,2022-04-24_15h52.24.132,SPAMnetsValid,2021.1.4,MacIntel,30.00120005,,,,,,,,,,,,,4,1.9327,0,54,54,84,1,,,,,,,,,,,,,,,,,,,,,,,,,,,,,,,,,,,,,,,,,,,,,,,,,,,,,,,,,,,,,,,,,,,,,,
,,,,7,2.4248,,,,,,51,onion,strawberry,,89037,001,2022-04-24_15h52.24.132,SPAMnetsValid,2021.1.4,MacIntel,30.00120005,,,,,,,,,,,,,7,2.4248,0,55,55,86,1,,,,,,,,,,,,,,,,,,,,,,,,,,,,,,,,,,,,,,,,,,,,,,,,,,,,,,,,,,,,,,,,,,,,,,
,,,,3,2.5682,,,,,,78,cookie,rose,,89037,001,2022-04-24_15h52.24.132,SPAMnetsValid,2021.1.4,MacIntel,30.00120005,,,,,,,,,,,,,3,2.5682,0,56,56,56,1,,,,,,,,,,,,,,,,,,,,,,,,,,,,,,,,,,,,,,,,,,,,,,,,,,,,,,,,,,,,,,,,,,,,,,
,,,,3,1.946,,,,,,89,chocolate,rose,,89037,001,2022-04-24_15h52.24.132,SPAMnetsValid,2021.1.4,MacIntel,30.00120005,,,,,,,,,,,,,3,1.946,0,57,57,60,1,,,,,,,,,,,,,,,,,,,,,,,,,,,,,,,,,,,,,,,,,,,,,,,,,,,,,,,,,,,,,,,,,,,,,,
,,,,7,1.9785,,,,,,17,carrot,melon,,89037,001,2022-04-24_15h52.24.132,SPAMnetsValid,2021.1.4,MacIntel,30.00120005,,,,,,,,,,,,,7,1.9785,0,58,58,24,1,,,,,,,,,,,,,,,,,,,,,,,,,,,,,,,,,,,,,,,,,,,,,,,,,,,,,,,,,,,,,,,,,,,,,,
,,,,4,1.9653,,,,,,8,broom,melon,,89037,001,2022-04-24_15h52.24.132,SPAMnetsValid,2021.1.4,MacIntel,30.00120005,,,,,,,,,,,,,4,1.9653,0,59,59,59,1,,,,,,,,,,,,,,,,,,,,,,,,,,,,,,,,,,,,,,,,,,,,,,,,,,,,,,,,,,,,,,,,,,,,,,
,,,,8,4.1842,,,,,,94,kitchen,microwave,,89037,001,2022-04-24_15h52.24.132,SPAMnetsValid,2021.1.4,MacIntel,30.00120005,,,,,,,,,,,,,8,4.1842,0,60,60,58,1,,,,,,,,,,,,,,,,,,,,,,,,,,,,,,,,,,,,,,,,,,,,,,,,,,,,,,,,,,,,,,,,,,,,,,
,,,,2,5.1857,,,,,,23,flower,microwave,,89037,001,2022-04-24_15h52.24.132,SPAMnetsValid,2021.1.4,MacIntel,30.00120005,,,,,,,,,,,,,2,5.1857,0,61,61,25,1,,,,,,,,,,,,,,,,,,,,,,,,,,,,,,,,,,,,,,,,,,,,,,,,,,,,,,,,,,,,,,,,,,,,,,
,,,,2,1.5134,,,,,,46,garden,yogurt,,89037,001,2022-04-24_15h52.24.132,SPAMnetsValid,2021.1.4,MacIntel,30.00120005,,,,,,,,,,,,,2,1.5134,0,62,62,65,1,,,,,,,,,,,,,,,,,,,,,,,,,,,,,,,,,,,,,,,,,,,,,,,,,,,,,,,,,,,,,,,,,,,,,,
,,,,4,2.5136,,,,,,38,pretzel,refrigerator,,89037,001,2022-04-24_15h52.24.132,SPAMnetsValid,2021.1.4,MacIntel,30.00120005,,,,,,,,,,,,,4,2.5136,0,63,63,71,1,,,,,,,,,,,,,,,,,,,,,,,,,,,,,,,,,,,,,,,,,,,,,,,,,,,,,,,,,,,,,,,,,,,,,,
,,,,3,1.6111,,,,,,15,onion,oven,,89037,001,2022-04-24_15h52.24.132,SPAMnetsValid,2021.1.4,MacIntel,30.00120005,,,,,,,,,,,,,3,1.6111,0,64,64,39,1,,,,,,,,,,,,,,,,,,,,,,,,,,,,,,,,,,,,,,,,,,,,,,,,,,,,,,,,,,,,,,,,,,,,,,
,,,,9,1.6311,,,,,,192,microwave,microwave,CHECK,89037,001,2022-04-24_15h52.24.132,SPAMnetsValid,2021.1.4,MacIntel,30.00120005,,,,,,,,,,,,,9,1.6311,0,65,65,53,1,,,,,,,,,,,,,,,,,,,,,,,,,,,,,,,,,,,,,,,,,,,,,,,,,,,,,,,,,,,,,,,,,,,,,,
,,,,7,8.4588,,,,,,68,flower,tomato,,89037,001,2022-04-24_15h52.24.132,SPAMnetsValid,2021.1.4,MacIntel,30.00120005,,,,,,,,,,,,,7,8.4588,0,66,66,94,1,,,,,,,,,,,,,,,,,,,,,,,,,,,,,,,,,,,,,,,,,,,,,,,,,,,,,,,,,,,,,,,,,,,,,,
,,,,3,1.6172,,,,,,84,oven,tomato,,89037,001,2022-04-24_15h52.24.132,SPAMnetsValid,2021.1.4,MacIntel,30.00120005,,,,,,,,,,,,,3,1.6172,0,67,67,28,1,,,,,,,,,,,,,,,,,,,,,,,,,,,,,,,,,,,,,,,,,,,,,,,,,,,,,,,,,,,,,,,,,,,,,,
,,,,3,1.5499,,,,,,74,broom,pretzel,,89037,001,2022-04-24_15h52.24.132,SPAMnetsValid,2021.1.4,MacIntel,30.00120005,,,,,,,,,,,,,3,1.5499,0,68,68,40,1,,,,,,,,,,,,,,,,,,,,,,,,,,,,,,,,,,,,,,,,,,,,,,,,,,,,,,,,,,,,,,,,,,,,,,
,,,,3,1.4603,,,,,,71,broom,rose,,89037,001,2022-04-24_15h52.24.132,SPAMnetsValid,2021.1.4,MacIntel,30.00120005,,,,,,,,,,,,,3,1.4603,0,69,69,61,1,,,,,,,,,,,,,,,,,,,,,,,,,,,,,,,,,,,,,,,,,,,,,,,,,,,,,,,,,,,,,,,,,,,,,,
,,,,3,1.2995,,,,,,40,broom,cake,,89037,001,2022-04-24_15h52.24.132,SPAMnetsValid,2021.1.4,MacIntel,30.00120005,,,,,,,,,,,,,3,1.2995,0,70,70,32,1,,,,,,,,,,,,,,,,,,,,,,,,,,,,,,,,,,,,,,,,,,,,,,,,,,,,,,,,,,,,,,,,,,,,,,
,,,,8,3.8821,,,,,,61,strawberry,tomato,,89037,001,2022-04-24_15h52.24.132,SPAMnetsValid,2021.1.4,MacIntel,30.00120005,,,,,,,,,,,,,8,3.8821,0,71,71,80,1,,,,,,,,,,,,,,,,,,,,,,,,,,,,,,,,,,,,,,,,,,,,,,,,,,,,,,,,,,,,,,,,,,,,,,
,,,,4,1.5825,,,,,,33,oven,yogurt,,89037,001,2022-04-24_15h52.24.132,SPAMnetsValid,2021.1.4,MacIntel,30.00120005,,,,,,,,,,,,,4,1.5825,0,72,72,31,1,,,,,,,,,,,,,,,,,,,,,,,,,,,,,,,,,,,,,,,,,,,,,,,,,,,,,,,,,,,,,,,,,,,,,,
,,,,8,1.8457,,,,,,36,broom,kitchen,,89037,001,2022-04-24_15h52.24.132,SPAMnetsValid,2021.1.4,MacIntel,30.00120005,,,,,,,,,,,,,8,1.8457,0,73,73,76,1,,,,,,,,,,,,,,,,,,,,,,,,,,,,,,,,,,,,,,,,,,,,,,,,,,,,,,,,,,,,,,,,,,,,,,
,,,,4,5.2961,,,,,,1,rose,yogurt,,89037,001,2022-04-24_15h52.24.132,SPAMnetsValid,2021.1.4,MacIntel,30.00120005,,,,,,,,,,,,,4,5.2961,0,74,74,55,1,,,,,,,,,,,,,,,,,,,,,,,,,,,,,,,,,,,,,,,,,,,,,,,,,,,,,,,,,,,,,,,,,,,,,,
,,,,7,2.5393,,,,,,52,carrot,tomato,,89037,001,2022-04-24_15h52.24.132,SPAMnetsValid,2021.1.4,MacIntel,30.00120005,,,,,,,,,,,,,7,2.5393,0,75,75,95,1,,,,,,,,,,,,,,,,,,,,,,,,,,,,,,,,,,,,,,,,,,,,,,,,,,,,,,,,,,,,,,,,,,,,,,
,,,,9,2.2941,,,,,,9,kitchen,refrigerator,,89037,001,2022-04-24_15h52.24.132,SPAMnetsValid,2021.1.4,MacIntel,30.00120005,,,,,,,,,,,,,9,2.2941,0,76,76,64,1,,,,,,,,,,,,,,,,,,,,,,,,,,,,,,,,,,,,,,,,,,,,,,,,,,,,,,,,,,,,,,,,,,,,,,
,,,,7,2.9231,,,,,,28,cake,melon,,89037,001,2022-04-24_15h52.24.132,SPAMnetsValid,2021.1.4,MacIntel,30.00120005,,,,,,,,,,,,,7,2.9231,0,77,77,54,1,,,,,,,,,,,,,,,,,,,,,,,,,,,,,,,,,,,,,,,,,,,,,,,,,,,,,,,,,,,,,,,,,,,,,,
,,,,4,5.4884,,,,,,69,carrot,refrigerator,,89037,001,2022-04-24_15h52.24.132,SPAMnetsValid,2021.1.4,MacIntel,30.00120005,,,,,,,,,,,,,4,5.4884,0,78,78,75,1,,,,,,,,,,,,,,,,,,,,,,,,,,,,,,,,,,,,,,,,,,,,,,,,,,,,,,,,,,,,,,,,,,,,,,
,,,,8,1.9665,,,,,,47,onion,tomato,,89037,001,2022-04-24_15h52.24.132,SPAMnetsValid,2021.1.4,MacIntel,30.00120005,,,,,,,,,,,,,8,1.9665,0,79,79,51,1,,,,,,,,,,,,,,,,,,,,,,,,,,,,,,,,,,,,,,,,,,,,,,,,,,,,,,,,,,,,,,,,,,,,,,
,,,,5,2.544,,,,,,32,cake,microwave,,89037,001,2022-04-24_15h52.24.132,SPAMnetsValid,2021.1.4,MacIntel,30.00120005,,,,,,,,,,,,,5,2.544,0,80,80,33,1,,,,,,,,,,,,,,,,,,,,,,,,,,,,,,,,,,,,,,,,,,,,,,,,,,,,,,,,,,,,,,,,,,,,,,
,,,,6,1.8328,,,,,,45,onion,pretzel,,89037,001,2022-04-24_15h52.24.132,SPAMnetsValid,2021.1.4,MacIntel,30.00120005,,,,,,,,,,,,,6,1.8328,0,81,81,69,1,,,,,,,,,,,,,,,,,,,,,,,,,,,,,,,,,,,,,,,,,,,,,,,,,,,,,,,,,,,,,,,,,,,,,,
,,,,3,2.196,,,,,,60,cactus,onion,,89037,001,2022-04-24_15h52.24.132,SPAMnetsValid,2021.1.4,MacIntel,30.00120005,,,,,,,,,,,,,3,2.196,0,82,82,81,1,,,,,,,,,,,,,,,,,,,,,,,,,,,,,,,,,,,,,,,,,,,,,,,,,,,,,,,,,,,,,,,,,,,,,,
,,,,8,2.6821,,,,,,77,refrigerator,yogurt,,89037,001,2022-04-24_15h52.24.132,SPAMnetsValid,2021.1.4,MacIntel,30.00120005,,,,,,,,,,,,,8,2.6821,0,83,83,42,1,,,,,,,,,,,,,,,,,,,,,,,,,,,,,,,,,,,,,,,,,,,,,,,,,,,,,,,,,,,,,,,,,,,,,,
,,,,8,3.104,,,,,,82,cake,kitchen,,89037,001,2022-04-24_15h52.24.132,SPAMnetsValid,2021.1.4,MacIntel,30.00120005,,,,,,,,,,,,,8,3.104,0,84,84,96,1,,,,,,,,,,,,,,,,,,,,,,,,,,,,,,,,,,,,,,,,,,,,,,,,,,,,,,,,,,,,,,,,,,,,,,
,,,,6,1.7197,,,,,,49,flower,strawberry,,89037,001,2022-04-24_15h52.24.132,SPAMnetsValid,2021.1.4,MacIntel,30.00120005,,,,,,,,,,,,,6,1.7197,0,85,85,3,1,,,,,,,,,,,,,,,,,,,,,,,,,,,,,,,,,,,,,,,,,,,,,,,,,,,,,,,,,,,,,,,,,,,,,,
,,,,3,2.0782,,,,,,16,chocolate,flower,,89037,001,2022-04-24_15h52.24.132,SPAMnetsValid,2021.1.4,MacIntel,30.00120005,,,,,,,,,,,,,3,2.0782,0,86,86,22,1,,,,,,,,,,,,,,,,,,,,,,,,,,,,,,,,,,,,,,,,,,,,,,,,,,,,,,,,,,,,,,,,,,,,,,
,,,,6,1.9826,,,,,,55,tomato,tree,,89037,001,2022-04-24_15h52.24.132,SPAMnetsValid,2021.1.4,MacIntel,30.00120005,,,,,,,,,,,,,6,1.9826,0,87,87,35,1,,,,,,,,,,,,,,,,,,,,,,,,,,,,,,,,,,,,,,,,,,,,,,,,,,,,,,,,,,,,,,,,,,,,,,
,,,,3,4.1814,,,,,,90,cactus,cake,,89037,001,2022-04-24_15h52.24.132,SPAMnetsValid,2021.1.4,MacIntel,30.00120005,,,,,,,,,,,,,3,4.1814,0,88,88,85,1,,,,,,,,,,,,,,,,,,,,,,,,,,,,,,,,,,,,,,,,,,,,,,,,,,,,,,,,,,,,,,,,,,,,,,
,,,,2,1.786,,,,,,27,cactus,cookie,,89037,001,2022-04-24_15h52.24.132,SPAMnetsValid,2021.1.4,MacIntel,30.00120005,,,,,,,,,,,,,2,1.786,0,89,89,17,1,,,,,,,,,,,,,,,,,,,,,,,,,,,,,,,,,,,,,,,,,,,,,,,,,,,,,,,,,,,,,,,,,,,,,,
,,,,4,3.1621,,,,,,29,chocolate,melon,,89037,001,2022-04-24_15h52.24.132,SPAMnetsValid,2021.1.4,MacIntel,30.00120005,,,,,,,,,,,,,4,3.1621,0,90,90,34,1,,,,,,,,,,,,,,,,,,,,,,,,,,,,,,,,,,,,,,,,,,,,,,,,,,,,,,,,,,,,,,,,,,,,,,
,,,,4,1.7294,,,,,,43,chocolate,tomato,,89037,001,2022-04-24_15h52.24.132,SPAMnetsValid,2021.1.4,MacIntel,30.00120005,,,,,,,,,,,,,4,1.7294,0,91,91,8,1,,,,,,,,,,,,,,,,,,,,,,,,,,,,,,,,,,,,,,,,,,,,,,,,,,,,,,,,,,,,,,,,,,,,,,
,,,,4,1.6304,,,,,,81,pretzel,yogurt,,89037,001,2022-04-24_15h52.24.132,SPAMnetsValid,2021.1.4,MacIntel,30.00120005,,,,,,,,,,,,,4,1.6304,0,92,92,50,1,,,,,,,,,,,,,,,,,,,,,,,,,,,,,,,,,,,,,,,,,,,,,,,,,,,,,,,,,,,,,,,,,,,,,,
,,,,2,1.9987,,,,,,5,oven,tree,,89037,001,2022-04-24_15h52.24.132,SPAMnetsValid,2021.1.4,MacIntel,30.00120005,,,,,,,,,,,,,2,1.9987,0,93,93,70,1,,,,,,,,,,,,,,,,,,,,,,,,,,,,,,,,,,,,,,,,,,,,,,,,,,,,,,,,,,,,,,,,,,,,,,
,,,,4,3.4966,,,,,,66,melon,yogurt,,89037,001,2022-04-24_15h52.24.132,SPAMnetsValid,2021.1.4,MacIntel,30.00120005,,,,,,,,,,,,,4,3.4966,0,94,94,48,1,,,,,,,,,,,,,,,,,,,,,,,,,,,,,,,,,,,,,,,,,,,,,,,,,,,,,,,,,,,,,,,,,,,,,,
,,,,1,2.1764,,,,,,48,flower,oven,,89037,001,2022-04-24_15h52.24.132,SPAMnetsValid,2021.1.4,MacIntel,30.00120005,,,,,,,,,,,,,1,2.1764,0,95,95,15,1,,,,,,,,,,,,,,,,,,,,,,,,,,,,,,,,,,,,,,,,,,,,,,,,,,,,,,,,,,,,,,,,,,,,,,
,,,,2,7.6357,,,,,,80,chocolate,tree,,89037,001,2022-04-24_15h52.24.132,SPAMnetsValid,2021.1.4,MacIntel,30.00120005,,,,,,,,,,,,,2,7.6357,0,96,96,89,1,,,,,,,,,,,,,,,,,,,,,,,,,,,,,,,,,,,,,,,,,,,,,,,,,,,,,,,,,,,,,,,,,,,,,,
,,,,,,,,,,,,,,,89037,001,2022-04-24_15h52.24.132,SPAMnetsValid,2021.1.4,MacIntel,30.00120005,,,,,,,,,,,,,,,,,,,,0,0,0,0,1,,,,,,,,,,,,,,,,,,,,,,,,,,,,,,,,,,,,,,,,,,,,,,,,,,,,,,,,,,,,,,,,,
,,,,,,,,,,,,,,,89037,001,2022-04-24_15h52.24.132,SPAMnetsValid,2021.1.4,MacIntel,30.00120005,,,,,,0,1,1,0,1,1,0,,,,,,,,,,,,,,,,,,,,,,,,,,,,,,,,,,,,,,,,,,,,,,,,,,,,,,,,,,,,,,,,,,,,,,,,,,,,,
,,,,,,,,,,,,,,,89037,001,2022-04-24_15h52.24.132,SPAMnetsValid,2021.1.4,MacIntel,30.00120005,,,,,,,,,,,,,,,,,,,,,,,,,3,5.4167,0,0,0,0,1,rancor,forbearance,ridicule,malice,bravery,3,,,,,,,,,,,,,,,,,,,,,,,,,,,,,,,,,,,,,,,,,,,,,,,,,,,,
,,,,,,,,,,,,,,,89037,001,2022-04-24_15h52.24.132,SPAMnetsValid,2021.1.4,MacIntel,30.00120005,,,,,,,,,,,,,,,,,,,,,,,,,4,3.8716,0,1,1,1,1,raucous,empty,quiet,smooth,harsh,4,,,,,,,,,,,,,,,,,,,,,,,,,,,,,,,,,,,,,,,,,,,,,,,,,,,,
,,,,,,,,,,,,,,,89037,001,2022-04-24_15h52.24.132,SPAMnetsValid,2021.1.4,MacIntel,30.00120005,,,,,,,,,,,,,,,,,,,,,,,,,4,4.0162,0,2,2,2,1,gargoyle,oil,medicine,carved waterspout,ugly building,3,,,,,,,,,,,,,,,,,,,,,,,,,,,,,,,,,,,,,,,,,,,,,,,,,,,,
,,,,,,,,,,,,,,,89037,001,2022-04-24_15h52.24.132,SPAMnetsValid,2021.1.4,MacIntel,30.00120005,,,,,,,,,,,,,,,,,,,,,,,,,3,3.6003,0,3,3,3,1,recrudesce,purify,renew activity,lack refinement,crush,2,,,,,,,,,,,,,,,,,,,,,,,,,,,,,,,,,,,,,,,,,,,,,,,,,,,,
,,,,,,,,,,,,,,,89037,001,2022-04-24_15h52.24.132,SPAMnetsValid,2021.1.4,MacIntel,30.00120005,,,,,,,,,,,,,,,,,,,,,,,,,2,7.5159,0,4,4,4,1,specious,"plausible, but not genuine",noteworthy,class or variety,roomy,1,,,,,,,,,,,,,,,,,,,,,,,,,,,,,,,,,,,,,,,,,,,,,,,,,,,,
,,,,,,,,,,,,,,,89037,001,2022-04-24_15h52.24.132,SPAMnetsValid,2021.1.4,MacIntel,30.00120005,,,,,,,,,,,,,,,,,,,,,,,,,3,2.4637,0,5,5,5,1,bauble,bubble,showy plaything,idle talk,confusion,2,,,,,,,,,,,,,,,,,,,,,,,,,,,,,,,,,,,,,,,,,,,,,,,,,,,,
,,,,,,,,,,,,,,,89037,001,2022-04-24_15h52.24.132,SPAMnetsValid,2021.1.4,MacIntel,30.00120005,,,,,,,,,,,,,,,,,,,,,,,,,4,5.1036,0,6,6,6,1,prolific,scarce,producing abundantly,reckless,speaking profanely,2,,,,,,,,,,,,,,,,,,,,,,,,,,,,,,,,,,,,,,,,,,,,,,,,,,,,
,,,,,,,,,,,,,,,89037,001,2022-04-24_15h52.24.132,SPAMnetsValid,2021.1.4,MacIntel,30.00120005,,,,,,,,,,,,,,,,,,,,,,,,,4,6.2657,0,7,7,7,1,opulent,party,wealthy,happy frame of mind,semiprecious stone,2,,,,,,,,,,,,,,,,,,,,,,,,,,,,,,,,,,,,,,,,,,,,,,,,,,,,
,,,,,,,,,,,,,,,89037,001,2022-04-24_15h52.24.132,SPAMnetsValid,2021.1.4,MacIntel,30.00120005,,,,,,,,,,,,,,,,,,,,,,,,,1,2.6662,0,8,8,8,1,coercion,conspiracy,strategy,restraint,attraction,3,,,,,,,,,,,,,,,,,,,,,,,,,,,,,,,,,,,,,,,,,,,,,,,,,,,,
,,,,,,,,,,,,,,,89037,001,2022-04-24_15h52.24.132,SPAMnetsValid,2021.1.4,MacIntel,30.00120005,,,,,,,,,,,,,,,,,,,,,,,,,1,4.1862,0,9,9,9,1,hiatus,animal,calamity,dread,gap,4,,,,,,,,,,,,,,,,,,,,,,,,,,,,,,,,,,,,,,,,,,,,,,,,,,,,
,,,,,,,,,,,,,,,89037,001,2022-04-24_15h52.24.132,SPAMnetsValid,2021.1.4,MacIntel,30.00120005,,,,,,,,,,,,,,,,,,,,,,,,,2,4.0004,0,10,10,10,1,germane,microbe,contagious,relevant,different,3,,,,,,,,,,,,,,,,,,,,,,,,,,,,,,,,,,,,,,,,,,,,,,,,,,,,
,,,,,,,,,,,,,,,89037,001,2022-04-24_15h52.24.132,SPAMnetsValid,2021.1.4,MacIntel,30.00120005,,,,,,,,,,,,,,,,,,,,,,,,,1,6.8703,0,11,11,11,1,perfunctory,fundamental,formal,superficial,careful,3,,,,,,,,,,,,,,,,,,,,,,,,,,,,,,,,,,,,,,,,,,,,,,,,,,,,
,,,,,,,,,,,,,,,89037,001,2022-04-24_15h52.24.132,SPAMnetsValid,2021.1.4,MacIntel,30.00120005,,,,,,,,,,,,,,,,,,,,,,,,,1,7.3691,0,12,12,12,1,diverge,reveal,chant,distract the attention of,differ or turn off from,4,,,,,,,,,,,,,,,,,,,,,,,,,,,,,,,,,,,,,,,,,,,,,,,,,,,,
,,,,,,,,,,,,,,,89037,001,2022-04-24_15h52.24.132,SPAMnetsValid,2021.1.4,MacIntel,30.00120005,,,,,,,,,,,,,,,,,,,,,,,,,4,3.3752,0,13,13,13,1,evoke,take away,anger,connect,bring out,4,,,,,,,,,,,,,,,,,,,,,,,,,,,,,,,,,,,,,,,,,,,,,,,,,,,,
,,,,,,,,,,,,,,,89037,001,2022-04-24_15h52.24.132,SPAMnetsValid,2021.1.4,MacIntel,30.00120005,,,,,,,,,,,,,,,,,,,,,,,,,1,4.8672,0,14,14,14,1,pertinent,relevant,lying next to,necessary,bold,1,,,,,,,,,,,,,,,,,,,,,,,,,,,,,,,,,,,,,,,,,,,,,,,,,,,,
,,,,,,,,,,,,,,,89037,001,2022-04-24_15h52.24.132,SPAMnetsValid,2021.1.4,MacIntel,30.00120005,,,,,,,,,,,,,,,,,,,,,,,,,2,3.1106,0,15,15,15,1,holocaust,entirety,destruction,saintly,price,2,,,,,,,,,,,,,,,,,,,,,,,,,,,,,,,,,,,,,,,,,,,,,,,,,,,,
,,,,,,,,,,,,,,,89037,001,2022-04-24_15h52.24.132,SPAMnetsValid,2021.1.4,MacIntel,30.00120005,,,,,,,,,,,,,,,,,,,,,,,,,3,3.4679,0,16,16,16,1,piquant,mellow,fish,pungent,cloth,3,,,,,,,,,,,,,,,,,,,,,,,,,,,,,,,,,,,,,,,,,,,,,,,,,,,,
,,,,,,,,,,,,,,,89037,001,2022-04-24_15h52.24.132,SPAMnetsValid,2021.1.4,MacIntel,30.00120005,,,,,,,,,,,,,,,,,,,,,,,,,1,4.0622,0,17,17,17,1,firmament,foundation,heavens,strong,glue,2,,,,,,,,,,,,,,,,,,,,,,,,,,,,,,,,,,,,,,,,,,,,,,,,,,,,
,,,,,,,,,,,,,,,89037,001,2022-04-24_15h52.24.132,SPAMnetsValid,2021.1.4,MacIntel,30.00120005,,,,,,,,,,,,,,,,,,,,,,,,,,,,,,,,,,,,,,4,6.14,0,0,0,0,1,marketable,partisan,jocular,marriageable,salable,essential,4,,,,,,,,,,,,,,,,,,,,,,,,,,,,,,,,,,,,,,
,,,,,,,,,,,,,,,89037,001,2022-04-24_15h52.24.132,SPAMnetsValid,2021.1.4,MacIntel,30.00120005,,,,,,,,,,,,,,,,,,,,,,,,,,,,,,,,,,,,,,5,4.7478,0,1,1,1,1,cottontail,squirrel,poplar,boa,marshy plant,rabbit,5,,,,,,,,,,,,,,,,,,,,,,,,,,,,,,,,,,,,,,
,,,,,,,,,,,,,,,89037,001,2022-04-24_15h52.24.132,SPAMnetsValid,2021.1.4,MacIntel,30.00120005,,,,,,,,,,,,,,,,,,,,,,,,,,,,,,,,,,,,,,3,4.6002,0,2,2,2,1,boggy,afraid,false,marshy,dense,black,3,,,,,,,,,,,,,,,,,,,,,,,,,,,,,,,,,,,,,,
,,,,,,,,,,,,,,,89037,001,2022-04-24_15h52.24.132,SPAMnetsValid,2021.1.4,MacIntel,30.00120005,,,,,,,,,,,,,,,,,,,,,,,,,,,,,,,,,,,,,,3,5.3327,0,3,3,3,1,gruesomeness,blackness,falseness,vindictiveness,drunkenness,ghastliness,5,,,,,,,,,,,,,,,,,,,,,,,,,,,,,,,,,,,,,,
,,,,,,,,,,,,,,,89037,001,2022-04-24_15h52.24.132,SPAMnetsValid,2021.1.4,MacIntel,30.00120005,,,,,,,,,,,,,,,,,,,,,,,,,,,,,,,,,,,,,,3,4.0012,0,4,4,4,1,loathing,diffidence,laziness,abhorrence,cleverness,comfort,3,,,,,,,,,,,,,,,,,,,,,,,,,,,,,,,,,,,,,,
,,,,,,,,,,,,,,,89037,001,2022-04-24_15h52.24.132,SPAMnetsValid,2021.1.4,MacIntel,30.00120005,,,,,,,,,,,,,,,,,,,,,,,,,,,,,,,,,,,,,,5,4.6985,0,5,5,5,1,bantam,fowl,ridicule,cripple,vegetable,ensign,1,,,,,,,,,,,,,,,,,,,,,,,,,,,,,,,,,,,,,,
,,,,,,,,,,,,,,,89037,001,2022-04-24_15h52.24.132,SPAMnetsValid,2021.1.4,MacIntel,30.00120005,,,,,,,,,,,,,,,,,,,,,,,,,,,,,,,,,,,,,,2,5.55,0,6,6,6,1,evoke,wake up,surrender,reconnoiter,transcend,call forth,5,,,,,,,,,,,,,,,,,,,,,,,,,,,,,,,,,,,,,,
,,,,,,,,,,,,,,,89037,001,2022-04-24_15h52.24.132,SPAMnetsValid,2021.1.4,MacIntel,30.00120005,,,,,,,,,,,,,,,,,,,,,,,,,,,,,,,,,,,,,,5,5.3997,0,7,7,7,1,unobtrusive,unintelligent,epileptic,illogical,lineal,modest,5,,,,,,,,,,,,,,,,,,,,,,,,,,,,,,,,,,,,,,
,,,,,,,,,,,,,,,89037,001,2022-04-24_15h52.24.132,SPAMnetsValid,2021.1.4,MacIntel,30.00120005,,,,,,,,,,,,,,,,,,,,,,,,,,,,,,,,,,,,,,4,3.9134,0,8,8,8,1,terrain,ice cream,final test,tractor,area of ground,weight,4,,,,,,,,,,,,,,,,,,,,,,,,,,,,,,,,,,,,,,
,,,,,,,,,,,,,,,89037,001,2022-04-24_15h52.24.132,SPAMnetsValid,2021.1.4,MacIntel,30.00120005,,,,,,,,,,,,,,,,,,,,,,,,,,,,,,,,,,,,,,3,4.6677,0,9,9,9,1,capriciousness,stubbornness,courage,whimsicality,amazement,greediness,3,,,,,,,,,,,,,,,,,,,,,,,,,,,,,,,,,,,,,,
,,,,,,,,,,,,,,,89037,001,2022-04-24_15h52.24.132,SPAMnetsValid,2021.1.4,MacIntel,30.00120005,,,,,,,,,,,,,,,,,,,,,,,,,,,,,,,,,,,,,,2,2.1562,0,10,10,10,1,maelstrom,slander,whirlpool,enmity,armor,majolica,2,,,,,,,,,,,,,,,,,,,,,,,,,,,,,,,,,,,,,,
,,,,,,,,,,,,,,,89037,001,2022-04-24_15h52.24.132,SPAMnetsValid,2021.1.4,MacIntel,30.00120005,,,,,,,,,,,,,,,,,,,,,,,,,,,,,,,,,,,,,,4,3.7188,0,11,11,11,1,tentative,critical,conclusive,authentic,provisional,apprehensive,4,,,,,,,,,,,,,,,,,,,,,,,,,,,,,,,,,,,,,,
,,,,,,,,,,,,,,,89037,001,2022-04-24_15h52.24.132,SPAMnetsValid,2021.1.4,MacIntel,30.00120005,,,,,,,,,,,,,,,,,,,,,,,,,,,,,,,,,,,,,,3,3.8472,0,12,12,12,1,placate,rehabilitate,plagiarize,depredate,apprise,conciliate,5,,,,,,,,,,,,,,,,,,,,,,,,,,,,,,,,,,,,,,
,,,,,,,,,,,,,,,89037,001,2022-04-24_15h52.24.132,SPAMnetsValid,2021.1.4,MacIntel,30.00120005,,,,,,,,,,,,,,,,,,,,,,,,,,,,,,,,,,,,,,2,7.401,0,13,13,13,1,surcease,enlightenment,cessation,inattention,censor,substitution,2,,,,,,,,,,,,,,,,,,,,,,,,,,,,,,,,,,,,,,
,,,,,,,,,,,,,,,89037,001,2022-04-24_15h52.24.132,SPAMnetsValid,2021.1.4,MacIntel,30.00120005,,,,,,,,,,,,,,,,,,,,,,,,,,,,,,,,,,,,,,2,18.6851,0,14,14,14,1,apathetic,wandering,impassive,hateful,prophetic,overflowing,2,,,,,,,,,,,,,,,,,,,,,,,,,,,,,,,,,,,,,,
,,,,,,,,,,,,,,,89037,001,2022-04-24_15h52.24.132,SPAMnetsValid,2021.1.4,MacIntel,30.00120005,,,,,,,,,,,,,,,,,,,,,,,,,,,,,,,,,,,,,,1,2.8321,0,15,15,15,1,paternoster,paternalism,patricide,malediction,benediction,prayer,5,,,,,,,,,,,,,,,,,,,,,,,,,,,,,,,,,,,,,,
,,,,,,,,,,,,,,,89037,001,2022-04-24_15h52.24.132,SPAMnetsValid,2021.1.4,MacIntel,30.00120005,,,,,,,,,,,,,,,,,,,,,,,,,,,,,,,,,,,,,,1,3.8624,0,16,16,16,1,opalescence,opulence,senescence,bankruptcy,iridescence,assiduity,4,,,,,,,,,,,,,,,,,,,,,,,,,,,,,,,,,,,,,,
,,,,,,,,,,,,,,,89037,001,2022-04-24_15h52.24.132,SPAMnetsValid,2021.1.4,MacIntel,30.00120005,,,,,,,,,,,,,,,,,,,,,,,,,,,,,,,,,,,,,,2,3.3826,0,17,17,17,1,lush,stupid,luxurious,hazy,putrid,languishing,2,,,,,,,,,,,,,,,,,,,,,,,,,,,,,,,,,,,,,,
,,,,,,,,,,,,,,,89037,001,2022-04-24_15h52.24.132,SPAMnetsValid,2021.1.4,MacIntel,30.00120005,,,,,,,,,,,,,,,,,,,,,,,,,,,,,,,,,,,,,,2,6.8353,0,18,18,18,1,curtailment,expenditure,abandonment,abridgment,improvement,forgery,3,,,,,,,,,,,,,,,,,,,,,,,,,,,,,,,,,,,,,,
,,,,,,,,,,,,,,,89037,001,2022-04-24_15h52.24.132,SPAMnetsValid,2021.1.4,MacIntel,30.00120005,,,,,,,,,,,,,,,,,,,,,,,,,,,,,,,,,,,,,,2,6.3183,0,19,19,19,1,perversity,adversity,perviousness,travesty,waywardness,gentility,4,,,,,,,,,,,,,,,,,,,,,,,,,,,,,,,,,,,,,,
,,,,,,,,,,,,,,,89037,001,2022-04-24_15h52.24.132,SPAMnetsValid,2021.1.4,MacIntel,30.00120005,,,,,,,,,,,,,,,,,,,,,,,,,,,,,,,,,,,,,,1,11.6011,0,20,20,20,1,calumnious,complimentary,analogous,slanderous,tempestuous,magnanimous,3,,,,,,,,,,,,,,,,,,,,,,,,,,,,,,,,,,,,,,
,,,,,,,,,,,,,,,89037,001,2022-04-24_15h52.24.132,SPAMnetsValid,2021.1.4,MacIntel,30.00120005,,,,,,,,,,,,,,,,,,,,,,,,,,,,,,,,,,,,,,4,5.6349,0,21,21,21,1,illiberality,bigotry,imbecility,illegibility,cautery,immaturity,1,,,,,,,,,,,,,,,,,,,,,,,,,,,,,,,,,,,,,,
,,,,,,,,,,,,,,,89037,001,2022-04-24_15h52.24.132,SPAMnetsValid,2021.1.4,MacIntel,30.00120005,,,,,,,,,,,,,,,,,,,,,,,,,,,,,,,,,,,,,,2,3.135,0,22,22,22,1,clabber,rejoice,gossip,curdle,crow,hobble,3,,,,,,,,,,,,,,,,,,,,,,,,,,,,,,,,,,,,,,
,,,,,,,,,,,,,,,89037,001,2022-04-24_15h52.24.132,SPAMnetsValid,2021.1.4,MacIntel,30.00120005,,,,,,,,,,,,,,,,,,,,,,,,,,,,,,,,,,,,,,3,3.6313,0,23,23,23,1,sedulousness,diligence,credulousness,seduction,perilousness,frankness,1,,,,,,,,,,,,,,,,,,,,,,,,,,,,,,,,,,,,,,
,,,,,,,,,,,,,,,89037,001,2022-04-24_15h52.24.132,SPAMnetsValid,2021.1.4,MacIntel,30.00120005,,,,,,,,,,,,,,,,,,,,,,,,,,,,,,,,,,,,,,,,,,,,,,,,,,,,lighting up a room,candle,0,0,0,0,1,,,,,,,,,,,,,,,,,,,,,,,,,,,,,,,
,,,,,,,,,,,,,,,89037,001,2022-04-24_15h52.24.132,SPAMnetsValid,2021.1.4,MacIntel,30.00120005,,,,,,,,,,,,,,,,,,,,,,,,,,,,,,,,,,,,,,,,,,,,,,,,,,,,smell,candle,1,0,1,0,1,,,,,,,,,,,,,,,,,,,,,,,,,,,,,,,
,,,,,,,,,,,,,,,89037,001,2022-04-24_15h52.24.132,SPAMnetsValid,2021.1.4,MacIntel,30.00120005,,,,,,,,,,,,,,,,,,,,,,,,,,,,,,,,,,,,,,,,,,,,,,,,,,,,classicness,candle,2,0,2,0,1,,,,,,,,,,,,,,,,,,,,,,,,,,,,,,,
,,,,,,,,,,,,,,,89037,001,2022-04-24_15h52.24.132,SPAMnetsValid,2021.1.4,MacIntel,30.00120005,,,,,,,,,,,,,,,,,,,,,,,,,,,,,,,,,,,,,,,,,,,,,,,,,,,,ambiance,candle,3,0,3,0,1,,,,,,,,,,,,,,,,,,,,,,,,,,,,,,,
,,,,,,,,,,,,,,,89037,001,2022-04-24_15h52.24.132,SPAMnetsValid,2021.1.4,MacIntel,30.00120005,,,,,,,,,,,,,,,,,,,,,,,,,,,,,,,,,,,,,,,,,,,,,,,,,,,,a feeling of solemness,candle,4,0,4,0,1,,,,,,,,,,,,,,,,,,,,,,,,,,,,,,,
,,,,,,,,,,,,,,,89037,001,2022-04-24_15h52.24.132,SPAMnetsValid,2021.1.4,MacIntel,30.00120005,,,,,,,,,,,,,,,,,,,,,,,,,,,,,,,,,,,,,,,,,,,,,,,,,,,,to use in memory of someone or somethin g,candle,5,0,5,0,1,,,,,,,,,,,,,,,,,,,,,,,,,,,,,,,
,,,,,,,,,,,,,,,89037,001,2022-04-24_15h52.24.132,SPAMnetsValid,2021.1.4,MacIntel,30.00120005,,,,,,,,,,,,,,,,,,,,,,,,,,,,,,,,,,,,,,,,,,,,,,,,,,,,decoration,candle,6,0,6,0,1,,,,,,,,,,,,,,,,,,,,,,,,,,,,,,,
,,,,,,,,,,,,,,,89037,001,2022-04-24_15h52.24.132,SPAMnetsValid,2021.1.4,MacIntel,30.00120005,,,,,,,,,,,,,,,,,,,,,,,,,,,,,,,,,,,,,,,,,,,,,,,,,,,,spookiness,candle,7,0,7,0,1,,,,,,,,,,,,,,,,,,,,,,,,,,,,,,,
,,,,,,,,,,,,,,,89037,001,2022-04-24_15h52.24.132,SPAMnetsValid,2021.1.4,MacIntel,30.00120005,,,,,,,,,,,,,,,,,,,,,,,,,,,,,,,,,,,,,,,,,,,,,,,,,,,,to set a creepy tone to a room,candle,8,0,8,0,1,,,,,,,,,,,,,,,,,,,,,,,,,,,,,,,
,,,,,,,,,,,,,,,89037,001,2022-04-24_15h52.24.132,SPAMnetsValid,2021.1.4,MacIntel,30.00120005,,,,,,,,,,,,,,,,,,,,,,,,,,,,,,,,,,,,,,,,,,,,,,,,,,,,,,,,,,,0,0,0,1,1,candle,,,,,,,,,,,,,,,,,,,,,,,,,
,,,,,,,,,,,,,,,89037,001,2022-04-24_15h52.24.132,SPAMnetsValid,2021.1.4,MacIntel,30.00120005,,,,,,,,,,,,,,,,,,,,,,,,,,,,,,,,,,,,,,,,,,,,,,,,,,,,to hold water,bucket,0,0,0,0,1,,,,,,,,,,,,,,,,,,,,,,,,,,,,,,,
,,,,,,,,,,,,,,,89037,001,2022-04-24_15h52.24.132,SPAMnetsValid,2021.1.4,MacIntel,30.00120005,,,,,,,,,,,,,,,,,,,,,,,,,,,,,,,,,,,,,,,,,,,,,,,,,,,,to hold sand,bucket,1,0,1,0,1,,,,,,,,,,,,,,,,,,,,,,,,,,,,,,,
,,,,,,,,,,,,,,,89037,001,2022-04-24_15h52.24.132,SPAMnetsValid,2021.1.4,MacIntel,30.00120005,,,,,,,,,,,,,,,,,,,,,,,,,,,,,,,,,,,,,,,,,,,,,,,,,,,,to hold oil,bucket,2,0,2,0,1,,,,,,,,,,,,,,,,,,,,,,,,,,,,,,,
,,,,,,,,,,,,,,,89037,001,2022-04-24_15h52.24.132,SPAMnetsValid,2021.1.4,MacIntel,30.00120005,,,,,,,,,,,,,,,,,,,,,,,,,,,,,,,,,,,,,,,,,,,,,,,,,,,,to hold gas,bucket,3,0,3,0,1,,,,,,,,,,,,,,,,,,,,,,,,,,,,,,,
,,,,,,,,,,,,,,,89037,001,2022-04-24_15h52.24.132,SPAMnetsValid,2021.1.4,MacIntel,30.00120005,,,,,,,,,,,,,,,,,,,,,,,,,,,,,,,,,,,,,,,,,,,,,,,,,,,,to sit on when flipped upsidown,bucket,4,0,4,0,1,,,,,,,,,,,,,,,,,,,,,,,,,,,,,,,
,,,,,,,,,,,,,,,89037,001,2022-04-24_15h52.24.132,SPAMnetsValid,2021.1.4,MacIntel,30.00120005,,,,,,,,,,,,,,,,,,,,,,,,,,,,,,,,,,,,,,,,,,,,,,,,,,,,to carry lots of small objects,bucket,5,0,5,0,1,,,,,,,,,,,,,,,,,,,,,,,,,,,,,,,
,,,,,,,,,,,,,,,89037,001,2022-04-24_15h52.24.132,SPAMnetsValid,2021.1.4,MacIntel,30.00120005,,,,,,,,,,,,,,,,,,,,,,,,,,,,,,,,,,,,,,,,,,,,,,,,,,,,to use for games,bucket,6,0,6,0,1,,,,,,,,,,,,,,,,,,,,,,,,,,,,,,,
,,,,,,,,,,,,,,,89037,001,2022-04-24_15h52.24.132,SPAMnetsValid,2021.1.4,MacIntel,30.00120005,,,,,,,,,,,,,,,,,,,,,,,,,,,,,,,,,,,,,,,,,,,,,,,,,,,,to hold dirt,bucket,7,0,7,0,1,,,,,,,,,,,,,,,,,,,,,,,,,,,,,,,
,,,,,,,,,,,,,,,89037,001,2022-04-24_15h52.24.132,SPAMnetsValid,2021.1.4,MacIntel,30.00120005,,,,,,,,,,,,,,,,,,,,,,,,,,,,,,,,,,,,,,,,,,,,,,,,,,,,to cover up something,bucket,8,0,8,0,1,,,,,,,,,,,,,,,,,,,,,,,,,,,,,,,
,,,,,,,,,,,,,,,89037,001,2022-04-24_15h52.24.132,SPAMnetsValid,2021.1.4,MacIntel,30.00120005,,,,,,,,,,,,,,,,,,,,,,,,,,,,,,,,,,,,,,,,,,,,,,,,,,,,to trap an animal or insect,bucket,9,0,9,0,1,,,,,,,,,,,,,,,,,,,,,,,,,,,,,,,
,,,,,,,,,,,,,,,89037,001,2022-04-24_15h52.24.132,SPAMnetsValid,2021.1.4,MacIntel,30.00120005,,,,,,,,,,,,,,,,,,,,,,,,,,,,,,,,,,,,,,,,,,,,,,,,,,,,,,,,,,,0,1,1,0,1,bucket,,,,,,,,,,,,,,,,,,,,,,,,,
,,,,,,,,,,,,,,,89037,001,2022-04-24_15h52.24.132,SPAMnetsValid,2021.1.4,MacIntel,30.00120005,,,,,,,,,,,,,,,,,,,,,,,,,,,,,,,,,,,,,,,,,,,,,,,,,,,,to sleep on,pillow,0,0,0,0,1,,,,,,,,,,,,,,,,,,,,,,,,,,,,,,,
,,,,,,,,,,,,,,,89037,001,2022-04-24_15h52.24.132,SPAMnetsValid,2021.1.4,MacIntel,30.00120005,,,,,,,,,,,,,,,,,,,,,,,,,,,,,,,,,,,,,,,,,,,,,,,,,,,,to soften the fall of something,pillow,1,0,1,0,1,,,,,,,,,,,,,,,,,,,,,,,,,,,,,,,
,,,,,,,,,,,,,,,89037,001,2022-04-24_15h52.24.132,SPAMnetsValid,2021.1.4,MacIntel,30.00120005,,,,,,,,,,,,,,,,,,,,,,,,,,,,,,,,,,,,,,,,,,,,,,,,,,,,to protect something on a long travel ,pillow,2,0,2,0,1,,,,,,,,,,,,,,,,,,,,,,,,,,,,,,,
,,,,,,,,,,,,,,,89037,001,2022-04-24_15h52.24.132,SPAMnetsValid,2021.1.4,MacIntel,30.00120005,,,,,,,,,,,,,,,,,,,,,,,,,,,,,,,,,,,,,,,,,,,,,,,,,,,,to rest on,pillow,3,0,3,0,1,,,,,,,,,,,,,,,,,,,,,,,,,,,,,,,
,,,,,,,,,,,,,,,89037,001,2022-04-24_15h52.24.132,SPAMnetsValid,2021.1.4,MacIntel,30.00120005,,,,,,,,,,,,,,,,,,,,,,,,,,,,,,,,,,,,,,,,,,,,,,,,,,,,to elevate your head,pillow,4,0,4,0,1,,,,,,,,,,,,,,,,,,,,,,,,,,,,,,,
,,,,,,,,,,,,,,,89037,001,2022-04-24_15h52.24.132,SPAMnetsValid,2021.1.4,MacIntel,30.00120005,,,,,,,,,,,,,,,,,,,,,,,,,,,,,,,,,,,,,,,,,,,,,,,,,,,,pillow fighting,pillow,5,0,5,0,1,,,,,,,,,,,,,,,,,,,,,,,,,,,,,,,
,,,,,,,,,,,,,,,89037,001,2022-04-24_15h52.24.132,SPAMnetsValid,2021.1.4,MacIntel,30.00120005,,,,,,,,,,,,,,,,,,,,,,,,,,,,,,,,,,,,,,,,,,,,,,,,,,,,to throw for fun,pillow,6,0,6,0,1,,,,,,,,,,,,,,,,,,,,,,,,,,,,,,,
,,,,,,,,,,,,,,,89037,001,2022-04-24_15h52.24.132,SPAMnetsValid,2021.1.4,MacIntel,30.00120005,,,,,,,,,,,,,,,,,,,,,,,,,,,,,,,,,,,,,,,,,,,,,,,,,,,,to lean on,pillow,7,0,7,0,1,,,,,,,,,,,,,,,,,,,,,,,,,,,,,,,
,,,,,,,,,,,,,,,89037,001,2022-04-24_15h52.24.132,SPAMnetsValid,2021.1.4,MacIntel,30.00120005,,,,,,,,,,,,,,,,,,,,,,,,,,,,,,,,,,,,,,,,,,,,,,,,,,,,,,,,,,,0,2,2,2,1,pillow,,,,,,,,,,,,,,,,,,,,,,,,,
,,,,,,,,,,,,,,,89037,001,2022-04-24_15h52.24.132,SPAMnetsValid,2021.1.4,MacIntel,30.00120005,,,,,,,,,,,,,,,,,,,,,,,,,,,,,,,,,,,,,,,,,,,,,,,,,,,,,,,,,,,,,,,,,dog,Animals,0,0,0,0,1,,,,,,,,,,,,,,,,,,
,,,,,,,,,,,,,,,89037,001,2022-04-24_15h52.24.132,SPAMnetsValid,2021.1.4,MacIntel,30.00120005,,,,,,,,,,,,,,,,,,,,,,,,,,,,,,,,,,,,,,,,,,,,,,,,,,,,,,,,,,,,,,,,,cat,Animals,1,0,1,0,1,,,,,,,,,,,,,,,,,,
,,,,,,,,,,,,,,,89037,001,2022-04-24_15h52.24.132,SPAMnetsValid,2021.1.4,MacIntel,30.00120005,,,,,,,,,,,,,,,,,,,,,,,,,,,,,,,,,,,,,,,,,,,,,,,,,,,,,,,,,,,,,,,,,mammal,Animals,2,0,2,0,1,,,,,,,,,,,,,,,,,,
,,,,,,,,,,,,,,,89037,001,2022-04-24_15h52.24.132,SPAMnetsValid,2021.1.4,MacIntel,30.00120005,,,,,,,,,,,,,,,,,,,,,,,,,,,,,,,,,,,,,,,,,,,,,,,,,,,,,,,,,,,,,,,,,mouse,Animals,3,0,3,0,1,,,,,,,,,,,,,,,,,,
,,,,,,,,,,,,,,,89037,001,2022-04-24_15h52.24.132,SPAMnetsValid,2021.1.4,MacIntel,30.00120005,,,,,,,,,,,,,,,,,,,,,,,,,,,,,,,,,,,,,,,,,,,,,,,,,,,,,,,,,,,,,,,,,rat,Animals,4,0,4,0,1,,,,,,,,,,,,,,,,,,
,,,,,,,,,,,,,,,89037,001,2022-04-24_15h52.24.132,SPAMnetsValid,2021.1.4,MacIntel,30.00120005,,,,,,,,,,,,,,,,,,,,,,,,,,,,,,,,,,,,,,,,,,,,,,,,,,,,,,,,,,,,,,,,,lion,Animals,5,0,5,0,1,,,,,,,,,,,,,,,,,,
,,,,,,,,,,,,,,,89037,001,2022-04-24_15h52.24.132,SPAMnetsValid,2021.1.4,MacIntel,30.00120005,,,,,,,,,,,,,,,,,,,,,,,,,,,,,,,,,,,,,,,,,,,,,,,,,,,,,,,,,,,,,,,,,cheetah,Animals,6,0,6,0,1,,,,,,,,,,,,,,,,,,
,,,,,,,,,,,,,,,89037,001,2022-04-24_15h52.24.132,SPAMnetsValid,2021.1.4,MacIntel,30.00120005,,,,,,,,,,,,,,,,,,,,,,,,,,,,,,,,,,,,,,,,,,,,,,,,,,,,,,,,,,,,,,,,,monkey,Animals,7,0,7,0,1,,,,,,,,,,,,,,,,,,
,,,,,,,,,,,,,,,89037,001,2022-04-24_15h52.24.132,SPAMnetsValid,2021.1.4,MacIntel,30.00120005,,,,,,,,,,,,,,,,,,,,,,,,,,,,,,,,,,,,,,,,,,,,,,,,,,,,,,,,,,,,,,,,,ape,Animals,8,0,8,0,1,,,,,,,,,,,,,,,,,,
,,,,,,,,,,,,,,,89037,001,2022-04-24_15h52.24.132,SPAMnetsValid,2021.1.4,MacIntel,30.00120005,,,,,,,,,,,,,,,,,,,,,,,,,,,,,,,,,,,,,,,,,,,,,,,,,,,,,,,,,,,,,,,,,cow,Animals,9,0,9,0,1,,,,,,,,,,,,,,,,,,
,,,,,,,,,,,,,,,89037,001,2022-04-24_15h52.24.132,SPAMnetsValid,2021.1.4,MacIntel,30.00120005,,,,,,,,,,,,,,,,,,,,,,,,,,,,,,,,,,,,,,,,,,,,,,,,,,,,,,,,,,,,,,,,,donkey,Animals,10,0,10,0,1,,,,,,,,,,,,,,,,,,
,,,,,,,,,,,,,,,89037,001,2022-04-24_15h52.24.132,SPAMnetsValid,2021.1.4,MacIntel,30.00120005,,,,,,,,,,,,,,,,,,,,,,,,,,,,,,,,,,,,,,,,,,,,,,,,,,,,,,,,,,,,,,,,,horse,Animals,11,0,11,0,1,,,,,,,,,,,,,,,,,,
,,,,,,,,,,,,,,,89037,001,2022-04-24_15h52.24.132,SPAMnetsValid,2021.1.4,MacIntel,30.00120005,,,,,,,,,,,,,,,,,,,,,,,,,,,,,,,,,,,,,,,,,,,,,,,,,,,,,,,,,,,,,,,,,chicken,Animals,12,0,12,0,1,,,,,,,,,,,,,,,,,,
,,,,,,,,,,,,,,,89037,001,2022-04-24_15h52.24.132,SPAMnetsValid,2021.1.4,MacIntel,30.00120005,,,,,,,,,,,,,,,,,,,,,,,,,,,,,,,,,,,,,,,,,,,,,,,,,,,,,,,,,,,,,,,,,cow,Animals,13,0,13,0,1,,,,,,,,,,,,,,,,,,
,,,,,,,,,,,,,,,89037,001,2022-04-24_15h52.24.132,SPAMnetsValid,2021.1.4,MacIntel,30.00120005,,,,,,,,,,,,,,,,,,,,,,,,,,,,,,,,,,,,,,,,,,,,,,,,,,,,,,,,,,,,,,,,,rooster,Animals,14,0,14,0,1,,,,,,,,,,,,,,,,,,
,,,,,,,,,,,,,,,89037,001,2022-04-24_15h52.24.132,SPAMnetsValid,2021.1.4,MacIntel,30.00120005,,,,,,,,,,,,,,,,,,,,,,,,,,,,,,,,,,,,,,,,,,,,,,,,,,,,,,,,,,,,,,,,,hen,Animals,15,0,15,0,1,,,,,,,,,,,,,,,,,,
,,,,,,,,,,,,,,,89037,001,2022-04-24_15h52.24.132,SPAMnetsValid,2021.1.4,MacIntel,30.00120005,,,,,,,,,,,,,,,,,,,,,,,,,,,,,,,,,,,,,,,,,,,,,,,,,,,,,,,,,,,,,,,,,pig,Animals,16,0,16,0,1,,,,,,,,,,,,,,,,,,
,,,,,,,,,,,,,,,89037,001,2022-04-24_15h52.24.132,SPAMnetsValid,2021.1.4,MacIntel,30.00120005,,,,,,,,,,,,,,,,,,,,,,,,,,,,,,,,,,,,,,,,,,,,,,,,,,,,,,,,,,,,,,,,,frog,Animals,17,0,17,0,1,,,,,,,,,,,,,,,,,,
,,,,,,,,,,,,,,,89037,001,2022-04-24_15h52.24.132,SPAMnetsValid,2021.1.4,MacIntel,30.00120005,,,,,,,,,,,,,,,,,,,,,,,,,,,,,,,,,,,,,,,,,,,,,,,,,,,,,,,,,,,,,,,,,hamster,Animals,18,0,18,0,1,,,,,,,,,,,,,,,,,,
,,,,,,,,,,,,,,,89037,001,2022-04-24_15h52.24.132,SPAMnetsValid,2021.1.4,MacIntel,30.00120005,,,,,,,,,,,,,,,,,,,,,,,,,,,,,,,,,,,,,,,,,,,,,,,,,,,,,,,,,,,,,,,,,guinea pig,Animals,19,0,19,0,1,,,,,,,,,,,,,,,,,,
,,,,,,,,,,,,,,,89037,001,2022-04-24_15h52.24.132,SPAMnetsValid,2021.1.4,MacIntel,30.00120005,,,,,,,,,,,,,,,,,,,,,,,,,,,,,,,,,,,,,,,,,,,,,,,,,,,,,,,,,,,,,,,,,ox,Animals,20,0,20,0,1,,,,,,,,,,,,,,,,,,
,,,,,,,,,,,,,,,89037,001,2022-04-24_15h52.24.132,SPAMnetsValid,2021.1.4,MacIntel,30.00120005,,,,,,,,,,,,,,,,,,,,,,,,,,,,,,,,,,,,,,,,,,,,,,,,,,,,,,,,,,,,,,,,,ram,Animals,21,0,21,0,1,,,,,,,,,,,,,,,,,,
,,,,,,,,,,,,,,,89037,001,2022-04-24_15h52.24.132,SPAMnetsValid,2021.1.4,MacIntel,30.00120005,,,,,,,,,,,,,,,,,,,,,,,,,,,,,,,,,,,,,,,,,,,,,,,,,,,,,,,,,,,,,,,,,hog,Animals,22,0,22,0,1,,,,,,,,,,,,,,,,,,
,,,,,,,,,,,,,,,89037,001,2022-04-24_15h52.24.132,SPAMnetsValid,2021.1.4,MacIntel,30.00120005,,,,,,,,,,,,,,,,,,,,,,,,,,,,,,,,,,,,,,,,,,,,,,,,,,,,,,,,,,,,,,,,,kangaroo,Animals,23,0,23,0,1,,,,,,,,,,,,,,,,,,
,,,,,,,,,,,,,,,89037,001,2022-04-24_15h52.24.132,SPAMnetsValid,2021.1.4,MacIntel,30.00120005,,,,,,,,,,,,,,,,,,,,,,,,,,,,,,,,,,,,,,,,,,,,,,,,,,,,,,,,,,,,,,,,,koala,Animals,24,0,24,0,1,,,,,,,,,,,,,,,,,,
,,,,,,,,,,,,,,,89037,001,2022-04-24_15h52.24.132,SPAMnetsValid,2021.1.4,MacIntel,30.00120005,,,,,,,,,,,,,,,,,,,,,,,,,,,,,,,,,,,,,,,,,,,,,,,,,,,,,,,,,,,,,,,,,fish,Animals,25,0,25,0,1,,,,,,,,,,,,,,,,,,
,,,,,,,,,,,,,,,89037,001,2022-04-24_15h52.24.132,SPAMnetsValid,2021.1.4,MacIntel,30.00120005,,,,,,,,,,,,,,,,,,,,,,,,,,,,,,,,,,,,,,,,,,,,,,,,,,,,,,,,,,,,,,,,,whale,Animals,26,0,26,0,1,,,,,,,,,,,,,,,,,,
,,,,,,,,,,,,,,,89037,001,2022-04-24_15h52.24.132,SPAMnetsValid,2021.1.4,MacIntel,30.00120005,,,,,,,,,,,,,,,,,,,,,,,,,,,,,,,,,,,,,,,,,,,,,,,,,,,,,,,,,,,,,,,,,shark,Animals,27,0,27,0,1,,,,,,,,,,,,,,,,,,
,,,,,,,,,,,,,,,89037,001,2022-04-24_15h52.24.132,SPAMnetsValid,2021.1.4,MacIntel,30.00120005,,,,,,,,,,,,,,,,,,,,,,,,,,,,,,,,,,,,,,,,,,,,,,,,,,,,,,,,,,,,,,,,,dolphin,Animals,28,0,28,0,1,,,,,,,,,,,,,,,,,,
,,,,,,,,,,,,,,,89037,001,2022-04-24_15h52.24.132,SPAMnetsValid,2021.1.4,MacIntel,30.00120005,,,,,,,,,,,,,,,,,,,,,,,,,,,,,,,,,,,,,,,,,,,,,,,,,,,,,,,,,,,,,,,,,,,,,,,,0,0,0,0,1,Animals,,,,,,,,,,,,
,,,,,,,,,,,,,,,89037,001,2022-04-24_15h52.24.132,SPAMnetsValid,2021.1.4,MacIntel,30.00120005,,,,,,,,,,,,,,,,,,,,,,,,,,,,,,,,,,,,,,,,,,,,,,,,,,,,,,,,,,,,,,,,,,,,,,,,,,,,,,3,6.1362,0,0,0,0,1,"I enjoy concentrating on a fantasy or daydream and exploring all its possibilities, letting it grow and develop.",0,1,,
,,,,,,,,,,,,,,,89037,001,2022-04-24_15h52.24.132,SPAMnetsValid,2021.1.4,MacIntel,30.00120005,,,,,,,,,,,,,,,,,,,,,,,,,,,,,,,,,,,,,,,,,,,,,,,,,,,,,,,,,,,,,,,,,,,,,,,,,,,,,,4,3.3635,0,1,1,1,1,I think it's interesting to learn and develop new hobbies.,0,2,,
,,,,,,,,,,,,,,,89037,001,2022-04-24_15h52.24.132,SPAMnetsValid,2021.1.4,MacIntel,30.00120005,,,,,,,,,,,,,,,,,,,,,,,,,,,,,,,,,,,,,,,,,,,,,,,,,,,,,,,,,,,,,,,,,,,,,,,,,,,,,,4,2.0381,0,2,2,2,1,I am intrigued by the patterns I find in art and nature.,0,3,,
,,,,,,,,,,,,,,,89037,001,2022-04-24_15h52.24.132,SPAMnetsValid,2021.1.4,MacIntel,30.00120005,,,,,,,,,,,,,,,,,,,,,,,,,,,,,,,,,,,,,,,,,,,,,,,,,,,,,,,,,,,,,,,,,,,,,,,,,,,,,,5,4.733,0,3,3,3,1,I believe letting students hear controversial speakers can only confuse and mislead them.,1,4,,
,,,,,,,,,,,,,,,89037,001,2022-04-24_15h52.24.132,SPAMnetsValid,2021.1.4,MacIntel,30.00120005,,,,,,,,,,,,,,,,,,,,,,,,,,,,,,,,,,,,,,,,,,,,,,,,,,,,,,,,,,,,,,,,,,,,,,,,,,,,,,5,3.0243,0,4,4,4,1,Poetry has little or no effect on me.,1,5,,
,,,,,,,,,,,,,,,89037,001,2022-04-24_15h52.24.132,SPAMnetsValid,2021.1.4,MacIntel,30.00120005,,,,,,,,,,,,,,,,,,,,,,,,,,,,,,,,,,,,,,,,,,,,,,,,,,,,,,,,,,,,,,,,,,,,,,,,,,,,,,4,4.3991,0,5,5,5,1,I would have difficulty just letting my mind wander without control or guidance.,1,6,,
,,,,,,,,,,,,,,,89037,001,2022-04-24_15h52.24.132,SPAMnetsValid,2021.1.4,MacIntel,30.00120005,,,,,,,,,,,,,,,,,,,,,,,,,,,,,,,,,,,,,,,,,,,,,,,,,,,,,,,,,,,,,,,,,,,,,,,,,,,,,,3,5.4459,0,6,6,6,1,I seldom notice the moods or feelings that different environments produce.,1,7,,
,,,,,,,,,,,,,,,89037,001,2022-04-24_15h52.24.132,SPAMnetsValid,2021.1.4,MacIntel,30.00120005,,,,,,,,,,,,,,,,,,,,,,,,,,,,,,,,,,,,,,,,,,,,,,,,,,,,,,,,,,,,,,,,,,,,,,,,,,,,,,5,9.2238,0,7,7,7,1,I experience a wide range of emotions or feelings.,0,8,,
,,,,,,,,,,,,,,,89037,001,2022-04-24_15h52.24.132,SPAMnetsValid,2021.1.4,MacIntel,30.00120005,,,,,,,,,,,,,,,,,,,,,,,,,,,,,,,,,,,,,,,,,,,,,,,,,,,,,,,,,,,,,,,,,,,,,,,,,,,,,,3,4.6687,0,8,8,8,1,"Sometimes when I am reading poetry or looking at a work of art, I feel a chill or wave of excitement.",0,9,,
,,,,,,,,,,,,,,,89037,001,2022-04-24_15h52.24.132,SPAMnetsValid,2021.1.4,MacIntel,30.00120005,,,,,,,,,,,,,,,,,,,,,,,,,,,,,,,,,,,,,,,,,,,,,,,,,,,,,,,,,,,,,,,,,,,,,,,,,,,,,,5,5.5138,0,9,9,9,1,I have little interest in speculating on the nature of the universe or the human condition.,1,10,,
,,,,,,,,,,,,,,,89037,001,2022-04-24_15h52.24.132,SPAMnetsValid,2021.1.4,MacIntel,30.00120005,,,,,,,,,,,,,,,,,,,,,,,,,,,,,,,,,,,,,,,,,,,,,,,,,,,,,,,,,,,,,,,,,,,,,,,,,,,,,,5,2.767,0,10,10,10,1,I have a lot of intellectual curiosity.,0,11,,
,,,,,,,,,,,,,,,89037,001,2022-04-24_15h52.24.132,SPAMnetsValid,2021.1.4,MacIntel,30.00120005,,,,,,,,,,,,,,,,,,,,,,,,,,,,,,,,,,,,,,,,,,,,,,,,,,,,,,,,,,,,,,,,,,,,,,,,,,,,,,5,2.1878,0,11,11,11,1,I often enjoy playing with theories or abstract ideas.,0,12,,
,,,,,,,,,,,,,,,89037,001,2022-04-24_15h52.24.132,SPAMnetsValid,2021.1.4,MacIntel,30.00120005,,,,,,,,,,,,,,,,,,,,,,,,,,,,,,,,,,,,,,,,,,,,,,,,,,,,,,,,,,,,,,,,,,,,,,,,,,,,,,,,,,,,,,,,return,368.2929
