key_resp_3.keys,key_resp_3.rt,slider.response,slider.rt,rjt_rating,rjt_RT,trials_22.thisRepN,trials_22.thisTrialN,trials_22.thisN,trials_22.thisIndex,trials_22.ran,rjt_order,word1,word2,attention,participant,session,date,expName,psychopyVersion,OS,frameRate,trials_99.thisRepN,trials_99.thisTrialN,trials_99.thisN,trials_99.thisIndex,trials_99.ran,trials_5.thisRepN,trials_5.thisTrialN,trials_5.thisN,trials_5.thisIndex,trials_5.ran,repOne,repTwo,slider_2.response,slider_2.rt,trials_24.thisRepN,trials_24.thisTrialN,trials_24.thisN,trials_24.thisIndex,trials_24.ran,trials_4.thisRepN,trials_4.thisTrialN,trials_4.thisN,trials_4.thisIndex,trials_4.ran,slider_extend_2.response,slider_extend_2.rt,trials_6.thisRepN,trials_6.thisTrialN,trials_6.thisN,trials_6.thisIndex,trials_6.ran,vCue2,R1,R2,R3,R4,correct,sliderVocab.response,sliderVocab.rt,trials_7.thisRepN,trials_7.thisTrialN,trials_7.thisN,trials_7.thisIndex,trials_7.ran,VocabCue,VR1,VR2,VR3,VR4,VR5,VocabCorrect,AUT_resp,AUT_label,trials.thisRepN,trials.thisTrialN,trials.thisN,trials.thisIndex,trials.ran,trials_2.thisRepN,trials_2.thisTrialN,trials_2.thisN,trials_2.thisIndex,trials_2.ran,aut_prompt,VF_response,VF_tag,trials_16.thisRepN,trials_16.thisTrialN,trials_16.thisN,trials_16.thisIndex,trials_16.ran,trials_17.thisRepN,trials_17.thisTrialN,trials_17.thisN,trials_17.thisIndex,trials_17.ran,VFcond,open_slider.response,open_slider.rt,trials_3.thisRepN,trials_3.thisTrialN,trials_3.thisN,trials_3.thisIndex,trials_3.ran,OpenQ,Rev,OPEN_ORDER,key_resp_2.keys,key_resp_2.rt
return,0.63,7,2.9518,7,2.9518,0,0,0,47,1,73,broom,chocolate,,89096,001,2022-04-29_13h28.00.852,SPAMnetsValid,2021.1.4,MacIntel,59.97720866,,,,,,,,,,,,,,,,,,,,,,,,,,,,,,,,,,,,,,,,,,,,,,,,,,,,,,,,,,,,,,,,,,,,,,,,,,,,,,,,,,,,,,,,,
,,6,0.9792,6,0.9792,0,1,1,2,1,22,kitchen,strawberry,,89096,001,2022-04-29_13h28.00.852,SPAMnetsValid,2021.1.4,MacIntel,59.97720866,,,,,,,,,,,,,,,,,,,,,,,,,,,,,,,,,,,,,,,,,,,,,,,,,,,,,,,,,,,,,,,,,,,,,,,,,,,,,,,,,,,,,,,,,
,,3,0.6487,3,0.6487,0,2,2,61,1,71,broom,rose,,89096,001,2022-04-29_13h28.00.852,SPAMnetsValid,2021.1.4,MacIntel,59.97720866,,,,,,,,,,,,,,,,,,,,,,,,,,,,,,,,,,,,,,,,,,,,,,,,,,,,,,,,,,,,,,,,,,,,,,,,,,,,,,,,,,,,,,,,,
,,2,0.766,2,0.766,0,3,3,89,1,80,chocolate,tree,,89096,001,2022-04-29_13h28.00.852,SPAMnetsValid,2021.1.4,MacIntel,59.97720866,,,,,,,,,,,,,,,,,,,,,,,,,,,,,,,,,,,,,,,,,,,,,,,,,,,,,,,,,,,,,,,,,,,,,,,,,,,,,,,,,,,,,,,,,
,,3,0.9437,3,0.9437,0,4,4,19,1,76,garden,rose,,89096,001,2022-04-29_13h28.00.852,SPAMnetsValid,2021.1.4,MacIntel,59.97720866,,,,,,,,,,,,,,,,,,,,,,,,,,,,,,,,,,,,,,,,,,,,,,,,,,,,,,,,,,,,,,,,,,,,,,,,,,,,,,,,,,,,,,,,,
,,4,0.6956,4,0.6956,0,5,5,67,1,54,chocolate,yogurt,,89096,001,2022-04-29_13h28.00.852,SPAMnetsValid,2021.1.4,MacIntel,59.97720866,,,,,,,,,,,,,,,,,,,,,,,,,,,,,,,,,,,,,,,,,,,,,,,,,,,,,,,,,,,,,,,,,,,,,,,,,,,,,,,,,,,,,,,,,
,,6,0.7458,6,0.7458,0,6,6,85,1,90,cactus,cake,,89096,001,2022-04-29_13h28.00.852,SPAMnetsValid,2021.1.4,MacIntel,59.97720866,,,,,,,,,,,,,,,,,,,,,,,,,,,,,,,,,,,,,,,,,,,,,,,,,,,,,,,,,,,,,,,,,,,,,,,,,,,,,,,,,,,,,,,,,
,,4,0.7477,4,0.7477,0,7,7,8,1,43,chocolate,tomato,,89096,001,2022-04-29_13h28.00.852,SPAMnetsValid,2021.1.4,MacIntel,59.97720866,,,,,,,,,,,,,,,,,,,,,,,,,,,,,,,,,,,,,,,,,,,,,,,,,,,,,,,,,,,,,,,,,,,,,,,,,,,,,,,,,,,,,,,,,
,,6,0.7653,6,0.7653,0,8,8,76,1,36,broom,kitchen,,89096,001,2022-04-29_13h28.00.852,SPAMnetsValid,2021.1.4,MacIntel,59.97720866,,,,,,,,,,,,,,,,,,,,,,,,,,,,,,,,,,,,,,,,,,,,,,,,,,,,,,,,,,,,,,,,,,,,,,,,,,,,,,,,,,,,,,,,,
,,4,0.8122,4,0.8122,0,9,9,10,1,191,cake,cake,CHECK,89096,001,2022-04-29_13h28.00.852,SPAMnetsValid,2021.1.4,MacIntel,59.97720866,,,,,,,,,,,,,,,,,,,,,,,,,,,,,,,,,,,,,,,,,,,,,,,,,,,,,,,,,,,,,,,,,,,,,,,,,,,,,,,,,,,,,,,,,
,,6,0.7659,6,0.7659,0,10,10,82,1,93,kitchen,oven,,89096,001,2022-04-29_13h28.00.852,SPAMnetsValid,2021.1.4,MacIntel,59.97720866,,,,,,,,,,,,,,,,,,,,,,,,,,,,,,,,,,,,,,,,,,,,,,,,,,,,,,,,,,,,,,,,,,,,,,,,,,,,,,,,,,,,,,,,,
,,4,0.7632,4,0.7632,0,11,11,1,1,31,cactus,pretzel,,89096,001,2022-04-29_13h28.00.852,SPAMnetsValid,2021.1.4,MacIntel,59.97720866,,,,,,,,,,,,,,,,,,,,,,,,,,,,,,,,,,,,,,,,,,,,,,,,,,,,,,,,,,,,,,,,,,,,,,,,,,,,,,,,,,,,,,,,,
,,6,1.3982,6,1.3982,0,12,12,57,1,62,kitchen,rose,,89096,001,2022-04-29_13h28.00.852,SPAMnetsValid,2021.1.4,MacIntel,59.97720866,,,,,,,,,,,,,,,,,,,,,,,,,,,,,,,,,,,,,,,,,,,,,,,,,,,,,,,,,,,,,,,,,,,,,,,,,,,,,,,,,,,,,,,,,
,,5,1.1303,5,1.1303,0,13,13,62,1,18,onion,refrigerator,,89096,001,2022-04-29_13h28.00.852,SPAMnetsValid,2021.1.4,MacIntel,59.97720866,,,,,,,,,,,,,,,,,,,,,,,,,,,,,,,,,,,,,,,,,,,,,,,,,,,,,,,,,,,,,,,,,,,,,,,,,,,,,,,,,,,,,,,,,
,,6,0.8313,6,0.8313,0,14,14,52,1,4,chocolate,pretzel,,89096,001,2022-04-29_13h28.00.852,SPAMnetsValid,2021.1.4,MacIntel,59.97720866,,,,,,,,,,,,,,,,,,,,,,,,,,,,,,,,,,,,,,,,,,,,,,,,,,,,,,,,,,,,,,,,,,,,,,,,,,,,,,,,,,,,,,,,,
,,6,0.8293,6,0.8293,0,15,15,3,1,49,flower,strawberry,,89096,001,2022-04-29_13h28.00.852,SPAMnetsValid,2021.1.4,MacIntel,59.97720866,,,,,,,,,,,,,,,,,,,,,,,,,,,,,,,,,,,,,,,,,,,,,,,,,,,,,,,,,,,,,,,,,,,,,,,,,,,,,,,,,,,,,,,,,
,,6,0.7957,6,0.7957,0,16,16,26,1,35,flower,pretzel,,89096,001,2022-04-29_13h28.00.852,SPAMnetsValid,2021.1.4,MacIntel,59.97720866,,,,,,,,,,,,,,,,,,,,,,,,,,,,,,,,,,,,,,,,,,,,,,,,,,,,,,,,,,,,,,,,,,,,,,,,,,,,,,,,,,,,,,,,,
,,4,0.8454,4,0.8454,0,17,17,80,1,61,strawberry,tomato,,89096,001,2022-04-29_13h28.00.852,SPAMnetsValid,2021.1.4,MacIntel,59.97720866,,,,,,,,,,,,,,,,,,,,,,,,,,,,,,,,,,,,,,,,,,,,,,,,,,,,,,,,,,,,,,,,,,,,,,,,,,,,,,,,,,,,,,,,,
,,4,0.8273,4,0.8273,0,18,18,91,1,2,kitchen,onion,,89096,001,2022-04-29_13h28.00.852,SPAMnetsValid,2021.1.4,MacIntel,59.97720866,,,,,,,,,,,,,,,,,,,,,,,,,,,,,,,,,,,,,,,,,,,,,,,,,,,,,,,,,,,,,,,,,,,,,,,,,,,,,,,,,,,,,,,,,
,,4,2.3297,4,2.3297,0,19,19,88,1,92,broom,flower,,89096,001,2022-04-29_13h28.00.852,SPAMnetsValid,2021.1.4,MacIntel,59.97720866,,,,,,,,,,,,,,,,,,,,,,,,,,,,,,,,,,,,,,,,,,,,,,,,,,,,,,,,,,,,,,,,,,,,,,,,,,,,,,,,,,,,,,,,,
,,6,0.9007,6,0.9007,0,20,20,23,1,65,broom,garden,,89096,001,2022-04-29_13h28.00.852,SPAMnetsValid,2021.1.4,MacIntel,59.97720866,,,,,,,,,,,,,,,,,,,,,,,,,,,,,,,,,,,,,,,,,,,,,,,,,,,,,,,,,,,,,,,,,,,,,,,,,,,,,,,,,,,,,,,,,
,,3,0.9327,3,0.9327,0,21,21,43,1,11,refrigerator,tree,,89096,001,2022-04-29_13h28.00.852,SPAMnetsValid,2021.1.4,MacIntel,59.97720866,,,,,,,,,,,,,,,,,,,,,,,,,,,,,,,,,,,,,,,,,,,,,,,,,,,,,,,,,,,,,,,,,,,,,,,,,,,,,,,,,,,,,,,,,
,,7,0.9517,7,0.9517,0,22,22,66,1,20,rose,tree,,89096,001,2022-04-29_13h28.00.852,SPAMnetsValid,2021.1.4,MacIntel,59.97720866,,,,,,,,,,,,,,,,,,,,,,,,,,,,,,,,,,,,,,,,,,,,,,,,,,,,,,,,,,,,,,,,,,,,,,,,,,,,,,,,,,,,,,,,,
,,3,0.8327,3,0.8327,0,23,23,34,1,29,chocolate,melon,,89096,001,2022-04-29_13h28.00.852,SPAMnetsValid,2021.1.4,MacIntel,59.97720866,,,,,,,,,,,,,,,,,,,,,,,,,,,,,,,,,,,,,,,,,,,,,,,,,,,,,,,,,,,,,,,,,,,,,,,,,,,,,,,,,,,,,,,,,
,,7,0.8125,7,0.8125,0,24,24,40,1,74,broom,pretzel,,89096,001,2022-04-29_13h28.00.852,SPAMnetsValid,2021.1.4,MacIntel,59.97720866,,,,,,,,,,,,,,,,,,,,,,,,,,,,,,,,,,,,,,,,,,,,,,,,,,,,,,,,,,,,,,,,,,,,,,,,,,,,,,,,,,,,,,,,,
,,6,0.8874,6,0.8874,0,25,25,18,1,85,cake,tree,,89096,001,2022-04-29_13h28.00.852,SPAMnetsValid,2021.1.4,MacIntel,59.97720866,,,,,,,,,,,,,,,,,,,,,,,,,,,,,,,,,,,,,,,,,,,,,,,,,,,,,,,,,,,,,,,,,,,,,,,,,,,,,,,,,,,,,,,,,
,,8,0.8965,8,0.8965,0,26,26,90,1,95,broom,refrigerator,,89096,001,2022-04-29_13h28.00.852,SPAMnetsValid,2021.1.4,MacIntel,59.97720866,,,,,,,,,,,,,,,,,,,,,,,,,,,,,,,,,,,,,,,,,,,,,,,,,,,,,,,,,,,,,,,,,,,,,,,,,,,,,,,,,,,,,,,,,
,,3,0.9951,3,0.9951,0,27,27,20,1,39,melon,pretzel,,89096,001,2022-04-29_13h28.00.852,SPAMnetsValid,2021.1.4,MacIntel,59.97720866,,,,,,,,,,,,,,,,,,,,,,,,,,,,,,,,,,,,,,,,,,,,,,,,,,,,,,,,,,,,,,,,,,,,,,,,,,,,,,,,,,,,,,,,,
,,8,0.8808,8,0.8808,0,28,28,49,1,57,flower,kitchen,,89096,001,2022-04-29_13h28.00.852,SPAMnetsValid,2021.1.4,MacIntel,59.97720866,,,,,,,,,,,,,,,,,,,,,,,,,,,,,,,,,,,,,,,,,,,,,,,,,,,,,,,,,,,,,,,,,,,,,,,,,,,,,,,,,,,,,,,,,
,,2,0.907,2,0.907,0,29,29,94,1,68,flower,tomato,,89096,001,2022-04-29_13h28.00.852,SPAMnetsValid,2021.1.4,MacIntel,59.97720866,,,,,,,,,,,,,,,,,,,,,,,,,,,,,,,,,,,,,,,,,,,,,,,,,,,,,,,,,,,,,,,,,,,,,,,,,,,,,,,,,,,,,,,,,
,,8,0.9499,8,0.9499,0,30,30,72,1,59,rose,strawberry,,89096,001,2022-04-29_13h28.00.852,SPAMnetsValid,2021.1.4,MacIntel,59.97720866,,,,,,,,,,,,,,,,,,,,,,,,,,,,,,,,,,,,,,,,,,,,,,,,,,,,,,,,,,,,,,,,,,,,,,,,,,,,,,,,,,,,,,,,,
,,6,0.9328,6,0.9328,0,31,31,16,1,14,broom,cookie,,89096,001,2022-04-29_13h28.00.852,SPAMnetsValid,2021.1.4,MacIntel,59.97720866,,,,,,,,,,,,,,,,,,,,,,,,,,,,,,,,,,,,,,,,,,,,,,,,,,,,,,,,,,,,,,,,,,,,,,,,,,,,,,,,,,,,,,,,,
,,4,0.8181,4,0.8181,0,32,32,95,1,52,carrot,tomato,,89096,001,2022-04-29_13h28.00.852,SPAMnetsValid,2021.1.4,MacIntel,59.97720866,,,,,,,,,,,,,,,,,,,,,,,,,,,,,,,,,,,,,,,,,,,,,,,,,,,,,,,,,,,,,,,,,,,,,,,,,,,,,,,,,,,,,,,,,
,,2,0.8608,2,0.8608,0,33,33,27,1,72,broom,onion,,89096,001,2022-04-29_13h28.00.852,SPAMnetsValid,2021.1.4,MacIntel,59.97720866,,,,,,,,,,,,,,,,,,,,,,,,,,,,,,,,,,,,,,,,,,,,,,,,,,,,,,,,,,,,,,,,,,,,,,,,,,,,,,,,,,,,,,,,,
,,2,1.0817,2,1.0817,0,34,34,22,1,16,chocolate,flower,,89096,001,2022-04-29_13h28.00.852,SPAMnetsValid,2021.1.4,MacIntel,59.97720866,,,,,,,,,,,,,,,,,,,,,,,,,,,,,,,,,,,,,,,,,,,,,,,,,,,,,,,,,,,,,,,,,,,,,,,,,,,,,,,,,,,,,,,,,
,,7,0.9307,7,0.9307,0,35,35,21,1,56,cactus,tree,,89096,001,2022-04-29_13h28.00.852,SPAMnetsValid,2021.1.4,MacIntel,59.97720866,,,,,,,,,,,,,,,,,,,,,,,,,,,,,,,,,,,,,,,,,,,,,,,,,,,,,,,,,,,,,,,,,,,,,,,,,,,,,,,,,,,,,,,,,
,,3,0.8991,3,0.8991,0,36,36,32,1,40,broom,cake,,89096,001,2022-04-29_13h28.00.852,SPAMnetsValid,2021.1.4,MacIntel,59.97720866,,,,,,,,,,,,,,,,,,,,,,,,,,,,,,,,,,,,,,,,,,,,,,,,,,,,,,,,,,,,,,,,,,,,,,,,,,,,,,,,,,,,,,,,,
,,7,0.895,7,0.895,0,37,37,12,1,67,flower,yogurt,,89096,001,2022-04-29_13h28.00.852,SPAMnetsValid,2021.1.4,MacIntel,59.97720866,,,,,,,,,,,,,,,,,,,,,,,,,,,,,,,,,,,,,,,,,,,,,,,,,,,,,,,,,,,,,,,,,,,,,,,,,,,,,,,,,,,,,,,,,
,,3,0.9321,3,0.9321,0,38,38,14,1,64,chocolate,garden,,89096,001,2022-04-29_13h28.00.852,SPAMnetsValid,2021.1.4,MacIntel,59.97720866,,,,,,,,,,,,,,,,,,,,,,,,,,,,,,,,,,,,,,,,,,,,,,,,,,,,,,,,,,,,,,,,,,,,,,,,,,,,,,,,,,,,,,,,,
,,6,1.145,6,1.145,0,39,39,58,1,94,kitchen,microwave,,89096,001,2022-04-29_13h28.00.852,SPAMnetsValid,2021.1.4,MacIntel,59.97720866,,,,,,,,,,,,,,,,,,,,,,,,,,,,,,,,,,,,,,,,,,,,,,,,,,,,,,,,,,,,,,,,,,,,,,,,,,,,,,,,,,,,,,,,,
,,6,0.8325,6,0.8325,0,40,40,30,1,3,cake,oven,,89096,001,2022-04-29_13h28.00.852,SPAMnetsValid,2021.1.4,MacIntel,59.97720866,,,,,,,,,,,,,,,,,,,,,,,,,,,,,,,,,,,,,,,,,,,,,,,,,,,,,,,,,,,,,,,,,,,,,,,,,,,,,,,,,,,,,,,,,
,,3,0.975,3,0.975,0,41,41,73,1,50,carrot,rose,,89096,001,2022-04-29_13h28.00.852,SPAMnetsValid,2021.1.4,MacIntel,59.97720866,,,,,,,,,,,,,,,,,,,,,,,,,,,,,,,,,,,,,,,,,,,,,,,,,,,,,,,,,,,,,,,,,,,,,,,,,,,,,,,,,,,,,,,,,
,,8,3.2801,8,3.2801,0,42,42,31,1,33,oven,yogurt,,89096,001,2022-04-29_13h28.00.852,SPAMnetsValid,2021.1.4,MacIntel,59.97720866,,,,,,,,,,,,,,,,,,,,,,,,,,,,,,,,,,,,,,,,,,,,,,,,,,,,,,,,,,,,,,,,,,,,,,,,,,,,,,,,,,,,,,,,,
,,3,0.9491,3,0.9491,0,43,43,65,1,46,garden,yogurt,,89096,001,2022-04-29_13h28.00.852,SPAMnetsValid,2021.1.4,MacIntel,59.97720866,,,,,,,,,,,,,,,,,,,,,,,,,,,,,,,,,,,,,,,,,,,,,,,,,,,,,,,,,,,,,,,,,,,,,,,,,,,,,,,,,,,,,,,,,
,,2,0.8643,2,0.8643,0,44,44,51,1,47,onion,tomato,,89096,001,2022-04-29_13h28.00.852,SPAMnetsValid,2021.1.4,MacIntel,59.97720866,,,,,,,,,,,,,,,,,,,,,,,,,,,,,,,,,,,,,,,,,,,,,,,,,,,,,,,,,,,,,,,,,,,,,,,,,,,,,,,,,,,,,,,,,
,,9,0.8647,9,0.8647,0,45,45,39,1,15,onion,oven,,89096,001,2022-04-29_13h28.00.852,SPAMnetsValid,2021.1.4,MacIntel,59.97720866,,,,,,,,,,,,,,,,,,,,,,,,,,,,,,,,,,,,,,,,,,,,,,,,,,,,,,,,,,,,,,,,,,,,,,,,,,,,,,,,,,,,,,,,,
,,3,0.9633,3,0.9633,0,46,46,29,1,42,garden,kitchen,,89096,001,2022-04-29_13h28.00.852,SPAMnetsValid,2021.1.4,MacIntel,59.97720866,,,,,,,,,,,,,,,,,,,,,,,,,,,,,,,,,,,,,,,,,,,,,,,,,,,,,,,,,,,,,,,,,,,,,,,,,,,,,,,,,,,,,,,,,
,,7,0.8814,7,0.8814,0,47,47,68,1,24,cookie,tomato,,89096,001,2022-04-29_13h28.00.852,SPAMnetsValid,2021.1.4,MacIntel,59.97720866,,,,,,,,,,,,,,,,,,,,,,,,,,,,,,,,,,,,,,,,,,,,,,,,,,,,,,,,,,,,,,,,,,,,,,,,,,,,,,,,,,,,,,,,,
,,2,0.7987,2,0.7987,0,48,48,0,1,53,garden,pretzel,,89096,001,2022-04-29_13h28.00.852,SPAMnetsValid,2021.1.4,MacIntel,59.97720866,,,,,,,,,,,,,,,,,,,,,,,,,,,,,,,,,,,,,,,,,,,,,,,,,,,,,,,,,,,,,,,,,,,,,,,,,,,,,,,,,,,,,,,,,
,,7,0.9789,7,0.9789,0,49,49,84,1,91,microwave,rose,,89096,001,2022-04-29_13h28.00.852,SPAMnetsValid,2021.1.4,MacIntel,59.97720866,,,,,,,,,,,,,,,,,,,,,,,,,,,,,,,,,,,,,,,,,,,,,,,,,,,,,,,,,,,,,,,,,,,,,,,,,,,,,,,,,,,,,,,,,
,,2,0.8094,2,0.8094,0,50,50,60,1,89,chocolate,rose,,89096,001,2022-04-29_13h28.00.852,SPAMnetsValid,2021.1.4,MacIntel,59.97720866,,,,,,,,,,,,,,,,,,,,,,,,,,,,,,,,,,,,,,,,,,,,,,,,,,,,,,,,,,,,,,,,,,,,,,,,,,,,,,,,,,,,,,,,,
,,8,0.916,8,0.916,0,51,51,53,1,192,microwave,microwave,CHECK,89096,001,2022-04-29_13h28.00.852,SPAMnetsValid,2021.1.4,MacIntel,59.97720866,,,,,,,,,,,,,,,,,,,,,,,,,,,,,,,,,,,,,,,,,,,,,,,,,,,,,,,,,,,,,,,,,,,,,,,,,,,,,,,,,,,,,,,,,
,,3,0.8653,3,0.8653,0,52,52,96,1,82,cake,kitchen,,89096,001,2022-04-29_13h28.00.852,SPAMnetsValid,2021.1.4,MacIntel,59.97720866,,,,,,,,,,,,,,,,,,,,,,,,,,,,,,,,,,,,,,,,,,,,,,,,,,,,,,,,,,,,,,,,,,,,,,,,,,,,,,,,,,,,,,,,,
,,3,0.6989,3,0.6989,0,53,53,13,1,26,tomato,yogurt,,89096,001,2022-04-29_13h28.00.852,SPAMnetsValid,2021.1.4,MacIntel,59.97720866,,,,,,,,,,,,,,,,,,,,,,,,,,,,,,,,,,,,,,,,,,,,,,,,,,,,,,,,,,,,,,,,,,,,,,,,,,,,,,,,,,,,,,,,,
,,6,0.7813,6,0.7813,0,54,54,17,1,27,cactus,cookie,,89096,001,2022-04-29_13h28.00.852,SPAMnetsValid,2021.1.4,MacIntel,59.97720866,,,,,,,,,,,,,,,,,,,,,,,,,,,,,,,,,,,,,,,,,,,,,,,,,,,,,,,,,,,,,,,,,,,,,,,,,,,,,,,,,,,,,,,,,
,,3,0.7645,3,0.7645,0,55,55,63,1,21,cake,onion,,89096,001,2022-04-29_13h28.00.852,SPAMnetsValid,2021.1.4,MacIntel,59.97720866,,,,,,,,,,,,,,,,,,,,,,,,,,,,,,,,,,,,,,,,,,,,,,,,,,,,,,,,,,,,,,,,,,,,,,,,,,,,,,,,,,,,,,,,,
,,7,0.7353,7,0.7353,0,56,56,50,1,81,pretzel,yogurt,,89096,001,2022-04-29_13h28.00.852,SPAMnetsValid,2021.1.4,MacIntel,59.97720866,,,,,,,,,,,,,,,,,,,,,,,,,,,,,,,,,,,,,,,,,,,,,,,,,,,,,,,,,,,,,,,,,,,,,,,,,,,,,,,,,,,,,,,,,
,,3,1.0277,3,1.0277,0,57,57,9,1,75,cookie,onion,,89096,001,2022-04-29_13h28.00.852,SPAMnetsValid,2021.1.4,MacIntel,59.97720866,,,,,,,,,,,,,,,,,,,,,,,,,,,,,,,,,,,,,,,,,,,,,,,,,,,,,,,,,,,,,,,,,,,,,,,,,,,,,,,,,,,,,,,,,
,,3,1.1986,3,1.1986,0,58,58,25,1,23,flower,microwave,,89096,001,2022-04-29_13h28.00.852,SPAMnetsValid,2021.1.4,MacIntel,59.97720866,,,,,,,,,,,,,,,,,,,,,,,,,,,,,,,,,,,,,,,,,,,,,,,,,,,,,,,,,,,,,,,,,,,,,,,,,,,,,,,,,,,,,,,,,
,,6,1.1337,6,1.1337,0,59,59,77,1,7,melon,tree,,89096,001,2022-04-29_13h28.00.852,SPAMnetsValid,2021.1.4,MacIntel,59.97720866,,,,,,,,,,,,,,,,,,,,,,,,,,,,,,,,,,,,,,,,,,,,,,,,,,,,,,,,,,,,,,,,,,,,,,,,,,,,,,,,,,,,,,,,,
,,7,0.7659,7,0.7659,0,60,60,87,1,79,garden,strawberry,,89096,001,2022-04-29_13h28.00.852,SPAMnetsValid,2021.1.4,MacIntel,59.97720866,,,,,,,,,,,,,,,,,,,,,,,,,,,,,,,,,,,,,,,,,,,,,,,,,,,,,,,,,,,,,,,,,,,,,,,,,,,,,,,,,,,,,,,,,
,,7,0.847,7,0.847,0,61,61,11,1,37,garden,refrigerator,,89096,001,2022-04-29_13h28.00.852,SPAMnetsValid,2021.1.4,MacIntel,59.97720866,,,,,,,,,,,,,,,,,,,,,,,,,,,,,,,,,,,,,,,,,,,,,,,,,,,,,,,,,,,,,,,,,,,,,,,,,,,,,,,,,,,,,,,,,
,,4,0.9009,4,0.9009,0,62,62,36,1,12,cookie,yogurt,,89096,001,2022-04-29_13h28.00.852,SPAMnetsValid,2021.1.4,MacIntel,59.97720866,,,,,,,,,,,,,,,,,,,,,,,,,,,,,,,,,,,,,,,,,,,,,,,,,,,,,,,,,,,,,,,,,,,,,,,,,,,,,,,,,,,,,,,,,
,,2,0.9665,2,0.9665,0,63,63,46,1,41,broom,cactus,,89096,001,2022-04-29_13h28.00.852,SPAMnetsValid,2021.1.4,MacIntel,59.97720866,,,,,,,,,,,,,,,,,,,,,,,,,,,,,,,,,,,,,,,,,,,,,,,,,,,,,,,,,,,,,,,,,,,,,,,,,,,,,,,,,,,,,,,,,
,,8,0.8651,8,0.8651,0,64,64,6,1,87,carrot,yogurt,,89096,001,2022-04-29_13h28.00.852,SPAMnetsValid,2021.1.4,MacIntel,59.97720866,,,,,,,,,,,,,,,,,,,,,,,,,,,,,,,,,,,,,,,,,,,,,,,,,,,,,,,,,,,,,,,,,,,,,,,,,,,,,,,,,,,,,,,,,
,,3,1.3304,3,1.3304,0,65,65,44,1,25,carrot,onion,,89096,001,2022-04-29_13h28.00.852,SPAMnetsValid,2021.1.4,MacIntel,59.97720866,,,,,,,,,,,,,,,,,,,,,,,,,,,,,,,,,,,,,,,,,,,,,,,,,,,,,,,,,,,,,,,,,,,,,,,,,,,,,,,,,,,,,,,,,
,,8,0.8802,8,0.8802,0,66,66,45,1,10,flower,onion,,89096,001,2022-04-29_13h28.00.852,SPAMnetsValid,2021.1.4,MacIntel,59.97720866,,,,,,,,,,,,,,,,,,,,,,,,,,,,,,,,,,,,,,,,,,,,,,,,,,,,,,,,,,,,,,,,,,,,,,,,,,,,,,,,,,,,,,,,,
,,4,0.8973,4,0.8973,0,67,67,56,1,78,cookie,rose,,89096,001,2022-04-29_13h28.00.852,SPAMnetsValid,2021.1.4,MacIntel,59.97720866,,,,,,,,,,,,,,,,,,,,,,,,,,,,,,,,,,,,,,,,,,,,,,,,,,,,,,,,,,,,,,,,,,,,,,,,,,,,,,,,,,,,,,,,,
,,6,0.9754,6,0.9754,0,68,68,24,1,17,carrot,melon,,89096,001,2022-04-29_13h28.00.852,SPAMnetsValid,2021.1.4,MacIntel,59.97720866,,,,,,,,,,,,,,,,,,,,,,,,,,,,,,,,,,,,,,,,,,,,,,,,,,,,,,,,,,,,,,,,,,,,,,,,,,,,,,,,,,,,,,,,,
,,3,0.9804,3,0.9804,0,69,69,4,1,83,broom,carrot,,89096,001,2022-04-29_13h28.00.852,SPAMnetsValid,2021.1.4,MacIntel,59.97720866,,,,,,,,,,,,,,,,,,,,,,,,,,,,,,,,,,,,,,,,,,,,,,,,,,,,,,,,,,,,,,,,,,,,,,,,,,,,,,,,,,,,,,,,,
,,9,2.2551,9,2.2551,0,70,70,55,1,1,rose,yogurt,,89096,001,2022-04-29_13h28.00.852,SPAMnetsValid,2021.1.4,MacIntel,59.97720866,,,,,,,,,,,,,,,,,,,,,,,,,,,,,,,,,,,,,,,,,,,,,,,,,,,,,,,,,,,,,,,,,,,,,,,,,,,,,,,,,,,,,,,,,
,,3,2.5376,3,2.5376,0,71,71,83,1,6,garden,onion,,89096,001,2022-04-29_13h28.00.852,SPAMnetsValid,2021.1.4,MacIntel,59.97720866,,,,,,,,,,,,,,,,,,,,,,,,,,,,,,,,,,,,,,,,,,,,,,,,,,,,,,,,,,,,,,,,,,,,,,,,,,,,,,,,,,,,,,,,,
,,2,1.0292,2,1.0292,0,72,72,7,1,34,melon,oven,,89096,001,2022-04-29_13h28.00.852,SPAMnetsValid,2021.1.4,MacIntel,59.97720866,,,,,,,,,,,,,,,,,,,,,,,,,,,,,,,,,,,,,,,,,,,,,,,,,,,,,,,,,,,,,,,,,,,,,,,,,,,,,,,,,,,,,,,,,
,,4,1.2246,4,1.2246,0,73,73,69,1,45,onion,pretzel,,89096,001,2022-04-29_13h28.00.852,SPAMnetsValid,2021.1.4,MacIntel,59.97720866,,,,,,,,,,,,,,,,,,,,,,,,,,,,,,,,,,,,,,,,,,,,,,,,,,,,,,,,,,,,,,,,,,,,,,,,,,,,,,,,,,,,,,,,,
,,6,0.9564,6,0.9564,0,74,74,15,1,48,flower,oven,,89096,001,2022-04-29_13h28.00.852,SPAMnetsValid,2021.1.4,MacIntel,59.97720866,,,,,,,,,,,,,,,,,,,,,,,,,,,,,,,,,,,,,,,,,,,,,,,,,,,,,,,,,,,,,,,,,,,,,,,,,,,,,,,,,,,,,,,,,
,,4,0.8673,4,0.8673,0,75,75,78,1,30,cookie,pretzel,,89096,001,2022-04-29_13h28.00.852,SPAMnetsValid,2021.1.4,MacIntel,59.97720866,,,,,,,,,,,,,,,,,,,,,,,,,,,,,,,,,,,,,,,,,,,,,,,,,,,,,,,,,,,,,,,,,,,,,,,,,,,,,,,,,,,,,,,,,
,,7,0.7919,7,0.7919,0,76,76,92,1,44,cookie,melon,,89096,001,2022-04-29_13h28.00.852,SPAMnetsValid,2021.1.4,MacIntel,59.97720866,,,,,,,,,,,,,,,,,,,,,,,,,,,,,,,,,,,,,,,,,,,,,,,,,,,,,,,,,,,,,,,,,,,,,,,,,,,,,,,,,,,,,,,,,
,,4,0.9116,4,0.9116,0,77,77,64,1,9,kitchen,refrigerator,,89096,001,2022-04-29_13h28.00.852,SPAMnetsValid,2021.1.4,MacIntel,59.97720866,,,,,,,,,,,,,,,,,,,,,,,,,,,,,,,,,,,,,,,,,,,,,,,,,,,,,,,,,,,,,,,,,,,,,,,,,,,,,,,,,,,,,,,,,
,,8,0.9161,8,0.9161,0,78,78,41,1,19,microwave,pretzel,,89096,001,2022-04-29_13h28.00.852,SPAMnetsValid,2021.1.4,MacIntel,59.97720866,,,,,,,,,,,,,,,,,,,,,,,,,,,,,,,,,,,,,,,,,,,,,,,,,,,,,,,,,,,,,,,,,,,,,,,,,,,,,,,,,,,,,,,,,
,,8,1.2615,8,1.2615,0,79,79,33,1,32,cake,microwave,,89096,001,2022-04-29_13h28.00.852,SPAMnetsValid,2021.1.4,MacIntel,59.97720866,,,,,,,,,,,,,,,,,,,,,,,,,,,,,,,,,,,,,,,,,,,,,,,,,,,,,,,,,,,,,,,,,,,,,,,,,,,,,,,,,,,,,,,,,
,,2,1.3114,2,1.3114,0,80,80,59,1,8,broom,melon,,89096,001,2022-04-29_13h28.00.852,SPAMnetsValid,2021.1.4,MacIntel,59.97720866,,,,,,,,,,,,,,,,,,,,,,,,,,,,,,,,,,,,,,,,,,,,,,,,,,,,,,,,,,,,,,,,,,,,,,,,,,,,,,,,,,,,,,,,,
,,7,1.1755,7,1.1755,0,81,81,71,1,38,pretzel,refrigerator,,89096,001,2022-04-29_13h28.00.852,SPAMnetsValid,2021.1.4,MacIntel,59.97720866,,,,,,,,,,,,,,,,,,,,,,,,,,,,,,,,,,,,,,,,,,,,,,,,,,,,,,,,,,,,,,,,,,,,,,,,,,,,,,,,,,,,,,,,,
,,9,0.9461,9,0.9461,0,82,82,70,1,5,oven,tree,,89096,001,2022-04-29_13h28.00.852,SPAMnetsValid,2021.1.4,MacIntel,59.97720866,,,,,,,,,,,,,,,,,,,,,,,,,,,,,,,,,,,,,,,,,,,,,,,,,,,,,,,,,,,,,,,,,,,,,,,,,,,,,,,,,,,,,,,,,
,,3,0.8322,3,0.8322,0,83,83,5,1,13,broom,yogurt,,89096,001,2022-04-29_13h28.00.852,SPAMnetsValid,2021.1.4,MacIntel,59.97720866,,,,,,,,,,,,,,,,,,,,,,,,,,,,,,,,,,,,,,,,,,,,,,,,,,,,,,,,,,,,,,,,,,,,,,,,,,,,,,,,,,,,,,,,,
,,3,1.1296,3,1.1296,0,84,84,74,1,70,chocolate,onion,,89096,001,2022-04-29_13h28.00.852,SPAMnetsValid,2021.1.4,MacIntel,59.97720866,,,,,,,,,,,,,,,,,,,,,,,,,,,,,,,,,,,,,,,,,,,,,,,,,,,,,,,,,,,,,,,,,,,,,,,,,,,,,,,,,,,,,,,,,
,,3,1.0136,3,1.0136,0,85,85,54,1,28,cake,melon,,89096,001,2022-04-29_13h28.00.852,SPAMnetsValid,2021.1.4,MacIntel,59.97720866,,,,,,,,,,,,,,,,,,,,,,,,,,,,,,,,,,,,,,,,,,,,,,,,,,,,,,,,,,,,,,,,,,,,,,,,,,,,,,,,,,,,,,,,,
,,6,0.8315,6,0.8315,0,86,86,79,1,86,oven,rose,,89096,001,2022-04-29_13h28.00.852,SPAMnetsValid,2021.1.4,MacIntel,59.97720866,,,,,,,,,,,,,,,,,,,,,,,,,,,,,,,,,,,,,,,,,,,,,,,,,,,,,,,,,,,,,,,,,,,,,,,,,,,,,,,,,,,,,,,,,
,,3,0.7308,3,0.7308,0,87,87,81,1,60,cactus,onion,,89096,001,2022-04-29_13h28.00.852,SPAMnetsValid,2021.1.4,MacIntel,59.97720866,,,,,,,,,,,,,,,,,,,,,,,,,,,,,,,,,,,,,,,,,,,,,,,,,,,,,,,,,,,,,,,,,,,,,,,,,,,,,,,,,,,,,,,,,
,,6,0.9315,6,0.9315,0,88,88,38,1,88,cactus,melon,,89096,001,2022-04-29_13h28.00.852,SPAMnetsValid,2021.1.4,MacIntel,59.97720866,,,,,,,,,,,,,,,,,,,,,,,,,,,,,,,,,,,,,,,,,,,,,,,,,,,,,,,,,,,,,,,,,,,,,,,,,,,,,,,,,,,,,,,,,
,,4,1.0178,4,1.0178,0,89,89,93,1,63,cake,cookie,,89096,001,2022-04-29_13h28.00.852,SPAMnetsValid,2021.1.4,MacIntel,59.97720866,,,,,,,,,,,,,,,,,,,,,,,,,,,,,,,,,,,,,,,,,,,,,,,,,,,,,,,,,,,,,,,,,,,,,,,,,,,,,,,,,,,,,,,,,
,,5,0.7906,5,0.7906,0,90,90,35,1,55,tomato,tree,,89096,001,2022-04-29_13h28.00.852,SPAMnetsValid,2021.1.4,MacIntel,59.97720866,,,,,,,,,,,,,,,,,,,,,,,,,,,,,,,,,,,,,,,,,,,,,,,,,,,,,,,,,,,,,,,,,,,,,,,,,,,,,,,,,,,,,,,,,
,,5,0.4897,5,0.4897,0,91,91,28,1,84,oven,tomato,,89096,001,2022-04-29_13h28.00.852,SPAMnetsValid,2021.1.4,MacIntel,59.97720866,,,,,,,,,,,,,,,,,,,,,,,,,,,,,,,,,,,,,,,,,,,,,,,,,,,,,,,,,,,,,,,,,,,,,,,,,,,,,,,,,,,,,,,,,
,,5,1.5166,5,1.5166,0,92,92,37,1,58,garden,oven,,89096,001,2022-04-29_13h28.00.852,SPAMnetsValid,2021.1.4,MacIntel,59.97720866,,,,,,,,,,,,,,,,,,,,,,,,,,,,,,,,,,,,,,,,,,,,,,,,,,,,,,,,,,,,,,,,,,,,,,,,,,,,,,,,,,,,,,,,,
,,5,0.9148,5,0.9148,0,93,93,48,1,66,melon,yogurt,,89096,001,2022-04-29_13h28.00.852,SPAMnetsValid,2021.1.4,MacIntel,59.97720866,,,,,,,,,,,,,,,,,,,,,,,,,,,,,,,,,,,,,,,,,,,,,,,,,,,,,,,,,,,,,,,,,,,,,,,,,,,,,,,,,,,,,,,,,
,,6,0.9627,6,0.9627,0,94,94,75,1,69,carrot,refrigerator,,89096,001,2022-04-29_13h28.00.852,SPAMnetsValid,2021.1.4,MacIntel,59.97720866,,,,,,,,,,,,,,,,,,,,,,,,,,,,,,,,,,,,,,,,,,,,,,,,,,,,,,,,,,,,,,,,,,,,,,,,,,,,,,,,,,,,,,,,,
,,3,0.8792,3,0.8792,0,95,95,42,1,77,refrigerator,yogurt,,89096,001,2022-04-29_13h28.00.852,SPAMnetsValid,2021.1.4,MacIntel,59.97720866,,,,,,,,,,,,,,,,,,,,,,,,,,,,,,,,,,,,,,,,,,,,,,,,,,,,,,,,,,,,,,,,,,,,,,,,,,,,,,,,,,,,,,,,,
,,6,1.3996,6,1.3996,0,96,96,86,1,51,onion,strawberry,,89096,001,2022-04-29_13h28.00.852,SPAMnetsValid,2021.1.4,MacIntel,59.97720866,,,,,,,,,,,,,,,,,,,,,,,,,,,,,,,,,,,,,,,,,,,,,,,,,,,,,,,,,,,,,,,,,,,,,,,,,,,,,,,,,,,,,,,,,
,,,,,,,,,,,,,,,89096,001,2022-04-29_13h28.00.852,SPAMnetsValid,2021.1.4,MacIntel,59.97720866,0,0,0,0,1,,,,,,,,,,,,,,,,,,,,,,,,,,,,,,,,,,,,,,,,,,,,,,,,,,,,,,,,,,,,,,,,,,,,,,,,,,,,,,,,,,,,
,,,,,,,,,,,,,,,89096,001,2022-04-29_13h28.00.852,SPAMnetsValid,2021.1.4,MacIntel,59.97720866,,,,,,0,0,0,0,1,1,0,,,,,,,,,,,,,,,,,,,,,,,,,,,,,,,,,,,,,,,,,,,,,,,,,,,,,,,,,,,,,,,,,,,,,,,,,,,,,
,,,,4,1.6697,,,,,,112,cake,carrot,,89096,001,2022-04-29_13h28.00.852,SPAMnetsValid,2021.1.4,MacIntel,59.97720866,,,,,,,,,,,,,4,1.6697,0,0,0,39,1,,,,,,,,,,,,,,,,,,,,,,,,,,,,,,,,,,,,,,,,,,,,,,,,,,,,,,,,,,,,,,,,,,,,,,
,,,,6,0.8409,,,,,,107,rose,tomato,,89096,001,2022-04-29_13h28.00.852,SPAMnetsValid,2021.1.4,MacIntel,59.97720866,,,,,,,,,,,,,6,0.8409,0,1,1,26,1,,,,,,,,,,,,,,,,,,,,,,,,,,,,,,,,,,,,,,,,,,,,,,,,,,,,,,,,,,,,,,,,,,,,,,
,,,,3,0.6639,,,,,,133,cake,flower,,89096,001,2022-04-29_13h28.00.852,SPAMnetsValid,2021.1.4,MacIntel,59.97720866,,,,,,,,,,,,,3,0.6639,0,2,2,94,1,,,,,,,,,,,,,,,,,,,,,,,,,,,,,,,,,,,,,,,,,,,,,,,,,,,,,,,,,,,,,,,,,,,,,,
,,,,8,0.865,,,,,,179,broom,oven,,89096,001,2022-04-29_13h28.00.852,SPAMnetsValid,2021.1.4,MacIntel,59.97720866,,,,,,,,,,,,,8,0.865,0,3,3,45,1,,,,,,,,,,,,,,,,,,,,,,,,,,,,,,,,,,,,,,,,,,,,,,,,,,,,,,,,,,,,,,,,,,,,,,
,,,,3,0.8812,,,,,,146,pretzel,tree,,89096,001,2022-04-29_13h28.00.852,SPAMnetsValid,2021.1.4,MacIntel,59.97720866,,,,,,,,,,,,,3,0.8812,0,4,4,80,1,,,,,,,,,,,,,,,,,,,,,,,,,,,,,,,,,,,,,,,,,,,,,,,,,,,,,,,,,,,,,,,,,,,,,,
,,,,3,0.8947,,,,,,164,cookie,garden,,89096,001,2022-04-29_13h28.00.852,SPAMnetsValid,2021.1.4,MacIntel,59.97720866,,,,,,,,,,,,,3,0.8947,0,5,5,59,1,,,,,,,,,,,,,,,,,,,,,,,,,,,,,,,,,,,,,,,,,,,,,,,,,,,,,,,,,,,,,,,,,,,,,,
,,,,3,0.8481,,,,,,194,cactus,cactus,CHECK,89096,001,2022-04-29_13h28.00.852,SPAMnetsValid,2021.1.4,MacIntel,59.97720866,,,,,,,,,,,,,3,0.8481,0,6,6,25,1,,,,,,,,,,,,,,,,,,,,,,,,,,,,,,,,,,,,,,,,,,,,,,,,,,,,,,,,,,,,,,,,,,,,,,
,,,,3,0.7984,,,,,,159,cookie,flower,,89096,001,2022-04-29_13h28.00.852,SPAMnetsValid,2021.1.4,MacIntel,59.97720866,,,,,,,,,,,,,3,0.7984,0,7,7,21,1,,,,,,,,,,,,,,,,,,,,,,,,,,,,,,,,,,,,,,,,,,,,,,,,,,,,,,,,,,,,,,,,,,,,,,
,,,,6,0.7498,,,,,,101,cactus,kitchen,,89096,001,2022-04-29_13h28.00.852,SPAMnetsValid,2021.1.4,MacIntel,59.97720866,,,,,,,,,,,,,6,0.7498,0,8,8,54,1,,,,,,,,,,,,,,,,,,,,,,,,,,,,,,,,,,,,,,,,,,,,,,,,,,,,,,,,,,,,,,,,,,,,,,
,,,,3,0.7137,,,,,,193,melon,melon,CHECK,89096,001,2022-04-29_13h28.00.852,SPAMnetsValid,2021.1.4,MacIntel,59.97720866,,,,,,,,,,,,,3,0.7137,0,9,9,86,1,,,,,,,,,,,,,,,,,,,,,,,,,,,,,,,,,,,,,,,,,,,,,,,,,,,,,,,,,,,,,,,,,,,,,,
,,,,6,0.8514,,,,,,120,microwave,oven,,89096,001,2022-04-29_13h28.00.852,SPAMnetsValid,2021.1.4,MacIntel,59.97720866,,,,,,,,,,,,,6,0.8514,0,10,10,14,1,,,,,,,,,,,,,,,,,,,,,,,,,,,,,,,,,,,,,,,,,,,,,,,,,,,,,,,,,,,,,,,,,,,,,,
,,,,4,0.7552,,,,,,165,onion,rose,,89096,001,2022-04-29_13h28.00.852,SPAMnetsValid,2021.1.4,MacIntel,59.97720866,,,,,,,,,,,,,4,0.7552,0,11,11,40,1,,,,,,,,,,,,,,,,,,,,,,,,,,,,,,,,,,,,,,,,,,,,,,,,,,,,,,,,,,,,,,,,,,,,,,
,,,,7,0.8819,,,,,,125,carrot,tree,,89096,001,2022-04-29_13h28.00.852,SPAMnetsValid,2021.1.4,MacIntel,59.97720866,,,,,,,,,,,,,7,0.8819,0,12,12,30,1,,,,,,,,,,,,,,,,,,,,,,,,,,,,,,,,,,,,,,,,,,,,,,,,,,,,,,,,,,,,,,,,,,,,,,
,,,,3,0.7946,,,,,,151,microwave,onion,,89096,001,2022-04-29_13h28.00.852,SPAMnetsValid,2021.1.4,MacIntel,59.97720866,,,,,,,,,,,,,3,0.7946,0,13,13,6,1,,,,,,,,,,,,,,,,,,,,,,,,,,,,,,,,,,,,,,,,,,,,,,,,,,,,,,,,,,,,,,,,,,,,,,
,,,,7,0.9828,,,,,,186,kitchen,yogurt,,89096,001,2022-04-29_13h28.00.852,SPAMnetsValid,2021.1.4,MacIntel,59.97720866,,,,,,,,,,,,,7,0.9828,0,14,14,48,1,,,,,,,,,,,,,,,,,,,,,,,,,,,,,,,,,,,,,,,,,,,,,,,,,,,,,,,,,,,,,,,,,,,,,,
,,,,3,1.1454,,,,,,180,tree,yogurt,,89096,001,2022-04-29_13h28.00.852,SPAMnetsValid,2021.1.4,MacIntel,59.97720866,,,,,,,,,,,,,3,1.1454,0,15,15,68,1,,,,,,,,,,,,,,,,,,,,,,,,,,,,,,,,,,,,,,,,,,,,,,,,,,,,,,,,,,,,,,,,,,,,,,
,,,,7,1.1626,,,,,,187,cactus,microwave,,89096,001,2022-04-29_13h28.00.852,SPAMnetsValid,2021.1.4,MacIntel,59.97720866,,,,,,,,,,,,,7,1.1626,0,16,16,71,1,,,,,,,,,,,,,,,,,,,,,,,,,,,,,,,,,,,,,,,,,,,,,,,,,,,,,,,,,,,,,,,,,,,,,,
,,,,4,0.8748,,,,,,106,cake,strawberry,,89096,001,2022-04-29_13h28.00.852,SPAMnetsValid,2021.1.4,MacIntel,59.97720866,,,,,,,,,,,,,4,0.8748,0,17,17,0,1,,,,,,,,,,,,,,,,,,,,,,,,,,,,,,,,,,,,,,,,,,,,,,,,,,,,,,,,,,,,,,,,,,,,,,
,,,,2,0.8049,,,,,,144,cake,garden,,89096,001,2022-04-29_13h28.00.852,SPAMnetsValid,2021.1.4,MacIntel,59.97720866,,,,,,,,,,,,,2,0.8049,0,18,18,58,1,,,,,,,,,,,,,,,,,,,,,,,,,,,,,,,,,,,,,,,,,,,,,,,,,,,,,,,,,,,,,,,,,,,,,,
,,,,7,1.1481,,,,,,189,onion,tree,,89096,001,2022-04-29_13h28.00.852,SPAMnetsValid,2021.1.4,MacIntel,59.97720866,,,,,,,,,,,,,7,1.1481,0,19,19,62,1,,,,,,,,,,,,,,,,,,,,,,,,,,,,,,,,,,,,,,,,,,,,,,,,,,,,,,,,,,,,,,,,,,,,,,
,,,,3,0.8478,,,,,,130,microwave,yogurt,,89096,001,2022-04-29_13h28.00.852,SPAMnetsValid,2021.1.4,MacIntel,59.97720866,,,,,,,,,,,,,3,0.8478,0,20,20,84,1,,,,,,,,,,,,,,,,,,,,,,,,,,,,,,,,,,,,,,,,,,,,,,,,,,,,,,,,,,,,,,,,,,,,,,
,,,,2,0.9666,,,,,,117,melon,strawberry,,89096,001,2022-04-29_13h28.00.852,SPAMnetsValid,2021.1.4,MacIntel,59.97720866,,,,,,,,,,,,,2,0.9666,0,21,21,11,1,,,,,,,,,,,,,,,,,,,,,,,,,,,,,,,,,,,,,,,,,,,,,,,,,,,,,,,,,,,,,,,,,,,,,,
,,,,8,1.0302,,,,,,145,cactus,yogurt,,89096,001,2022-04-29_13h28.00.852,SPAMnetsValid,2021.1.4,MacIntel,59.97720866,,,,,,,,,,,,,8,1.0302,0,22,22,15,1,,,,,,,,,,,,,,,,,,,,,,,,,,,,,,,,,,,,,,,,,,,,,,,,,,,,,,,,,,,,,,,,,,,,,,
,,,,3,1.15,,,,,,178,cactus,carrot,,89096,001,2022-04-29_13h28.00.852,SPAMnetsValid,2021.1.4,MacIntel,59.97720866,,,,,,,,,,,,,3,1.15,0,23,23,75,1,,,,,,,,,,,,,,,,,,,,,,,,,,,,,,,,,,,,,,,,,,,,,,,,,,,,,,,,,,,,,,,,,,,,,,
,,,,6,0.9448,,,,,,183,cake,rose,,89096,001,2022-04-29_13h28.00.852,SPAMnetsValid,2021.1.4,MacIntel,59.97720866,,,,,,,,,,,,,6,0.9448,0,24,24,19,1,,,,,,,,,,,,,,,,,,,,,,,,,,,,,,,,,,,,,,,,,,,,,,,,,,,,,,,,,,,,,,,,,,,,,,
,,,,3,0.7466,,,,,,148,flower,melon,,89096,001,2022-04-29_13h28.00.852,SPAMnetsValid,2021.1.4,MacIntel,59.97720866,,,,,,,,,,,,,3,0.7466,0,25,25,23,1,,,,,,,,,,,,,,,,,,,,,,,,,,,,,,,,,,,,,,,,,,,,,,,,,,,,,,,,,,,,,,,,,,,,,,
,,,,9,0.9358,,,,,,163,melon,refrigerator,,89096,001,2022-04-29_13h28.00.852,SPAMnetsValid,2021.1.4,MacIntel,59.97720866,,,,,,,,,,,,,9,0.9358,0,26,26,29,1,,,,,,,,,,,,,,,,,,,,,,,,,,,,,,,,,,,,,,,,,,,,,,,,,,,,,,,,,,,,,,,,,,,,,,
,,,,4,1.0169,,,,,,161,kitchen,pretzel,,89096,001,2022-04-29_13h28.00.852,SPAMnetsValid,2021.1.4,MacIntel,59.97720866,,,,,,,,,,,,,4,1.0169,0,27,27,36,1,,,,,,,,,,,,,,,,,,,,,,,,,,,,,,,,,,,,,,,,,,,,,,,,,,,,,,,,,,,,,,,,,,,,,,
,,,,3,0.9192,,,,,,175,melon,onion,,89096,001,2022-04-29_13h28.00.852,SPAMnetsValid,2021.1.4,MacIntel,59.97720866,,,,,,,,,,,,,3,0.9192,0,28,28,41,1,,,,,,,,,,,,,,,,,,,,,,,,,,,,,,,,,,,,,,,,,,,,,,,,,,,,,,,,,,,,,,,,,,,,,,
,,,,2,1.0276,,,,,,139,carrot,strawberry,,89096,001,2022-04-29_13h28.00.852,SPAMnetsValid,2021.1.4,MacIntel,59.97720866,,,,,,,,,,,,,2,1.0276,0,29,29,37,1,,,,,,,,,,,,,,,,,,,,,,,,,,,,,,,,,,,,,,,,,,,,,,,,,,,,,,,,,,,,,,,,,,,,,,
,,,,3,0.9147,,,,,,166,cake,yogurt,,89096,001,2022-04-29_13h28.00.852,SPAMnetsValid,2021.1.4,MacIntel,59.97720866,,,,,,,,,,,,,3,0.9147,0,30,30,91,1,,,,,,,,,,,,,,,,,,,,,,,,,,,,,,,,,,,,,,,,,,,,,,,,,,,,,,,,,,,,,,,,,,,,,,
,,,,7,0.8018,,,,,,126,kitchen,tree,,89096,001,2022-04-29_13h28.00.852,SPAMnetsValid,2021.1.4,MacIntel,59.97720866,,,,,,,,,,,,,7,0.8018,0,31,31,50,1,,,,,,,,,,,,,,,,,,,,,,,,,,,,,,,,,,,,,,,,,,,,,,,,,,,,,,,,,,,,,,,,,,,,,,
,,,,3,0.8118,,,,,,136,chocolate,microwave,,89096,001,2022-04-29_13h28.00.852,SPAMnetsValid,2021.1.4,MacIntel,59.97720866,,,,,,,,,,,,,3,0.8118,0,32,32,96,1,,,,,,,,,,,,,,,,,,,,,,,,,,,,,,,,,,,,,,,,,,,,,,,,,,,,,,,,,,,,,,,,,,,,,,
,,,,4,0.9298,,,,,,147,cake,refrigerator,,89096,001,2022-04-29_13h28.00.852,SPAMnetsValid,2021.1.4,MacIntel,59.97720866,,,,,,,,,,,,,4,0.9298,0,33,33,35,1,,,,,,,,,,,,,,,,,,,,,,,,,,,,,,,,,,,,,,,,,,,,,,,,,,,,,,,,,,,,,,,,,,,,,,
,,,,6,0.758,,,,,,132,broom,tree,,89096,001,2022-04-29_13h28.00.852,SPAMnetsValid,2021.1.4,MacIntel,59.97720866,,,,,,,,,,,,,6,0.758,0,34,34,78,1,,,,,,,,,,,,,,,,,,,,,,,,,,,,,,,,,,,,,,,,,,,,,,,,,,,,,,,,,,,,,,,,,,,,,,
,,,,4,2.2639,,,,,,140,cookie,refrigerator,,89096,001,2022-04-29_13h28.00.852,SPAMnetsValid,2021.1.4,MacIntel,59.97720866,,,,,,,,,,,,,4,2.2639,0,35,35,89,1,,,,,,,,,,,,,,,,,,,,,,,,,,,,,,,,,,,,,,,,,,,,,,,,,,,,,,,,,,,,,,,,,,,,,,
,,,,4,1.0532,,,,,,102,chocolate,refrigerator,,89096,001,2022-04-29_13h28.00.852,SPAMnetsValid,2021.1.4,MacIntel,59.97720866,,,,,,,,,,,,,4,1.0532,0,36,36,76,1,,,,,,,,,,,,,,,,,,,,,,,,,,,,,,,,,,,,,,,,,,,,,,,,,,,,,,,,,,,,,,,,,,,,,,
,,,,7,0.7789,,,,,,121,broom,microwave,,89096,001,2022-04-29_13h28.00.852,SPAMnetsValid,2021.1.4,MacIntel,59.97720866,,,,,,,,,,,,,7,0.7789,0,37,37,95,1,,,,,,,,,,,,,,,,,,,,,,,,,,,,,,,,,,,,,,,,,,,,,,,,,,,,,,,,,,,,,,,,,,,,,,
,,,,4,0.7931,,,,,,181,carrot,kitchen,,89096,001,2022-04-29_13h28.00.852,SPAMnetsValid,2021.1.4,MacIntel,59.97720866,,,,,,,,,,,,,4,0.7931,0,38,38,72,1,,,,,,,,,,,,,,,,,,,,,,,,,,,,,,,,,,,,,,,,,,,,,,,,,,,,,,,,,,,,,,,,,,,,,,
,,,,2,0.8281,,,,,,169,onion,yogurt,,89096,001,2022-04-29_13h28.00.852,SPAMnetsValid,2021.1.4,MacIntel,59.97720866,,,,,,,,,,,,,2,0.8281,0,39,39,24,1,,,,,,,,,,,,,,,,,,,,,,,,,,,,,,,,,,,,,,,,,,,,,,,,,,,,,,,,,,,,,,,,,,,,,,
,,,,6,1.0137,,,,,,119,strawberry,tree,,89096,001,2022-04-29_13h28.00.852,SPAMnetsValid,2021.1.4,MacIntel,59.97720866,,,,,,,,,,,,,6,1.0137,0,40,40,18,1,,,,,,,,,,,,,,,,,,,,,,,,,,,,,,,,,,,,,,,,,,,,,,,,,,,,,,,,,,,,,,,,,,,,,,
,,,,8,0.9484,,,,,,176,cactus,tomato,,89096,001,2022-04-29_13h28.00.852,SPAMnetsValid,2021.1.4,MacIntel,59.97720866,,,,,,,,,,,,,8,0.9484,0,41,41,9,1,,,,,,,,,,,,,,,,,,,,,,,,,,,,,,,,,,,,,,,,,,,,,,,,,,,,,,,,,,,,,,,,,,,,,,
,,,,3,0.9665,,,,,,170,cookie,microwave,,89096,001,2022-04-29_13h28.00.852,SPAMnetsValid,2021.1.4,MacIntel,59.97720866,,,,,,,,,,,,,3,0.9665,0,42,42,92,1,,,,,,,,,,,,,,,,,,,,,,,,,,,,,,,,,,,,,,,,,,,,,,,,,,,,,,,,,,,,,,,,,,,,,,
,,,,3,0.8774,,,,,,137,microwave,tree,,89096,001,2022-04-29_13h28.00.852,SPAMnetsValid,2021.1.4,MacIntel,59.97720866,,,,,,,,,,,,,3,0.8774,0,43,43,63,1,,,,,,,,,,,,,,,,,,,,,,,,,,,,,,,,,,,,,,,,,,,,,,,,,,,,,,,,,,,,,,,,,,,,,,
,,,,7,1.0672,,,,,,150,microwave,refrigerator,,89096,001,2022-04-29_13h28.00.852,SPAMnetsValid,2021.1.4,MacIntel,59.97720866,,,,,,,,,,,,,7,1.0672,0,44,44,66,1,,,,,,,,,,,,,,,,,,,,,,,,,,,,,,,,,,,,,,,,,,,,,,,,,,,,,,,,,,,,,,,,,,,,,,
,,,,4,0.8597,,,,,,162,microwave,tomato,,89096,001,2022-04-29_13h28.00.852,SPAMnetsValid,2021.1.4,MacIntel,59.97720866,,,,,,,,,,,,,4,0.8597,0,45,45,12,1,,,,,,,,,,,,,,,,,,,,,,,,,,,,,,,,,,,,,,,,,,,,,,,,,,,,,,,,,,,,,,,,,,,,,,
,,,,2,0.8485,,,,,,131,cactus,garden,,89096,001,2022-04-29_13h28.00.852,SPAMnetsValid,2021.1.4,MacIntel,59.97720866,,,,,,,,,,,,,2,0.8485,0,46,46,33,1,,,,,,,,,,,,,,,,,,,,,,,,,,,,,,,,,,,,,,,,,,,,,,,,,,,,,,,,,,,,,,,,,,,,,,
,,,,2,0.9005,,,,,,135,carrot,oven,,89096,001,2022-04-29_13h28.00.852,SPAMnetsValid,2021.1.4,MacIntel,59.97720866,,,,,,,,,,,,,2,0.9005,0,47,47,73,1,,,,,,,,,,,,,,,,,,,,,,,,,,,,,,,,,,,,,,,,,,,,,,,,,,,,,,,,,,,,,,,,,,,,,,
,,,,3,0.8491,,,,,,160,cookie,kitchen,,89096,001,2022-04-29_13h28.00.852,SPAMnetsValid,2021.1.4,MacIntel,59.97720866,,,,,,,,,,,,,3,0.8491,0,48,48,65,1,,,,,,,,,,,,,,,,,,,,,,,,,,,,,,,,,,,,,,,,,,,,,,,,,,,,,,,,,,,,,,,,,,,,,,
,,,,7,0.8144,,,,,,182,flower,refrigerator,,89096,001,2022-04-29_13h28.00.852,SPAMnetsValid,2021.1.4,MacIntel,59.97720866,,,,,,,,,,,,,7,0.8144,0,49,49,32,1,,,,,,,,,,,,,,,,,,,,,,,,,,,,,,,,,,,,,,,,,,,,,,,,,,,,,,,,,,,,,,,,,,,,,,
,,,,4,0.811,,,,,,188,flower,tree,,89096,001,2022-04-29_13h28.00.852,SPAMnetsValid,2021.1.4,MacIntel,59.97720866,,,,,,,,,,,,,4,0.811,0,50,50,7,1,,,,,,,,,,,,,,,,,,,,,,,,,,,,,,,,,,,,,,,,,,,,,,,,,,,,,,,,,,,,,,,,,,,,,,
,,,,7,0.7841,,,,,,174,cake,pretzel,,89096,001,2022-04-29_13h28.00.852,SPAMnetsValid,2021.1.4,MacIntel,59.97720866,,,,,,,,,,,,,7,0.7841,0,51,51,2,1,,,,,,,,,,,,,,,,,,,,,,,,,,,,,,,,,,,,,,,,,,,,,,,,,,,,,,,,,,,,,,,,,,,,,,
,,,,4,4.6481,,,,,,127,cactus,chocolate,,89096,001,2022-04-29_13h28.00.852,SPAMnetsValid,2021.1.4,MacIntel,59.97720866,,,,,,,,,,,,,4,4.6481,0,52,52,57,1,,,,,,,,,,,,,,,,,,,,,,,,,,,,,,,,,,,,,,,,,,,,,,,,,,,,,,,,,,,,,,,,,,,,,,
,,,,6,1.3096,,,,,,99,garden,melon,,89096,001,2022-04-29_13h28.00.852,SPAMnetsValid,2021.1.4,MacIntel,59.97720866,,,,,,,,,,,,,6,1.3096,0,53,53,17,1,,,,,,,,,,,,,,,,,,,,,,,,,,,,,,,,,,,,,,,,,,,,,,,,,,,,,,,,,,,,,,,,,,,,,,
,,,,7,1.0622,,,,,,108,carrot,chocolate,,89096,001,2022-04-29_13h28.00.852,SPAMnetsValid,2021.1.4,MacIntel,59.97720866,,,,,,,,,,,,,7,1.0622,0,54,54,5,1,,,,,,,,,,,,,,,,,,,,,,,,,,,,,,,,,,,,,,,,,,,,,,,,,,,,,,,,,,,,,,,,,,,,,,
,,,,8,0.9815,,,,,,149,broom,tomato,,89096,001,2022-04-29_13h28.00.852,SPAMnetsValid,2021.1.4,MacIntel,59.97720866,,,,,,,,,,,,,8,0.9815,0,55,55,20,1,,,,,,,,,,,,,,,,,,,,,,,,,,,,,,,,,,,,,,,,,,,,,,,,,,,,,,,,,,,,,,,,,,,,,,
,,,,4,0.9297,,,,,,185,cactus,rose,,89096,001,2022-04-29_13h28.00.852,SPAMnetsValid,2021.1.4,MacIntel,59.97720866,,,,,,,,,,,,,4,0.9297,0,56,56,43,1,,,,,,,,,,,,,,,,,,,,,,,,,,,,,,,,,,,,,,,,,,,,,,,,,,,,,,,,,,,,,,,,,,,,,,
,,,,2,0.7529,,,,,,155,carrot,cookie,,89096,001,2022-04-29_13h28.00.852,SPAMnetsValid,2021.1.4,MacIntel,59.97720866,,,,,,,,,,,,,2,0.7529,0,57,57,38,1,,,,,,,,,,,,,,,,,,,,,,,,,,,,,,,,,,,,,,,,,,,,,,,,,,,,,,,,,,,,,,,,,,,,,,
,,,,6,0.9997,,,,,,190,microwave,strawberry,,89096,001,2022-04-29_13h28.00.852,SPAMnetsValid,2021.1.4,MacIntel,59.97720866,,,,,,,,,,,,,6,0.9997,0,58,58,90,1,,,,,,,,,,,,,,,,,,,,,,,,,,,,,,,,,,,,,,,,,,,,,,,,,,,,,,,,,,,,,,,,,,,,,,
,,,,4,0.7746,,,,,,177,chocolate,strawberry,,89096,001,2022-04-29_13h28.00.852,SPAMnetsValid,2021.1.4,MacIntel,59.97720866,,,,,,,,,,,,,4,0.7746,0,59,59,53,1,,,,,,,,,,,,,,,,,,,,,,,,,,,,,,,,,,,,,,,,,,,,,,,,,,,,,,,,,,,,,,,,,,,,,,
,,,,7,0.8188,,,,,,116,cake,chocolate,,89096,001,2022-04-29_13h28.00.852,SPAMnetsValid,2021.1.4,MacIntel,59.97720866,,,,,,,,,,,,,7,0.8188,0,60,60,44,1,,,,,,,,,,,,,,,,,,,,,,,,,,,,,,,,,,,,,,,,,,,,,,,,,,,,,,,,,,,,,,,,,,,,,,
,,,,4,0.8247,,,,,,109,broom,strawberry,,89096,001,2022-04-29_13h28.00.852,SPAMnetsValid,2021.1.4,MacIntel,59.97720866,,,,,,,,,,,,,4,0.8247,0,61,61,4,1,,,,,,,,,,,,,,,,,,,,,,,,,,,,,,,,,,,,,,,,,,,,,,,,,,,,,,,,,,,,,,,,,,,,,,
,,,,3,0.8156,,,,,,124,oven,refrigerator,,89096,001,2022-04-29_13h28.00.852,SPAMnetsValid,2021.1.4,MacIntel,59.97720866,,,,,,,,,,,,,3,0.8156,0,62,62,69,1,,,,,,,,,,,,,,,,,,,,,,,,,,,,,,,,,,,,,,,,,,,,,,,,,,,,,,,,,,,,,,,,,,,,,,
,,,,7,0.8464,,,,,,138,flower,rose,,89096,001,2022-04-29_13h28.00.852,SPAMnetsValid,2021.1.4,MacIntel,59.97720866,,,,,,,,,,,,,7,0.8464,0,63,63,61,1,,,,,,,,,,,,,,,,,,,,,,,,,,,,,,,,,,,,,,,,,,,,,,,,,,,,,,,,,,,,,,,,,,,,,,
,,,,7,0.9285,,,,,,157,refrigerator,rose,,89096,001,2022-04-29_13h28.00.852,SPAMnetsValid,2021.1.4,MacIntel,59.97720866,,,,,,,,,,,,,7,0.9285,0,64,64,64,1,,,,,,,,,,,,,,,,,,,,,,,,,,,,,,,,,,,,,,,,,,,,,,,,,,,,,,,,,,,,,,,,,,,,,,
,,,,4,0.8127,,,,,,98,pretzel,strawberry,,89096,001,2022-04-29_13h28.00.852,SPAMnetsValid,2021.1.4,MacIntel,59.97720866,,,,,,,,,,,,,4,0.8127,0,65,65,82,1,,,,,,,,,,,,,,,,,,,,,,,,,,,,,,,,,,,,,,,,,,,,,,,,,,,,,,,,,,,,,,,,,,,,,,
,,,,7,0.7646,,,,,,158,cookie,oven,,89096,001,2022-04-29_13h28.00.852,SPAMnetsValid,2021.1.4,MacIntel,59.97720866,,,,,,,,,,,,,7,0.7646,0,66,66,27,1,,,,,,,,,,,,,,,,,,,,,,,,,,,,,,,,,,,,,,,,,,,,,,,,,,,,,,,,,,,,,,,,,,,,,,
,,,,4,0.7316,,,,,,171,cake,tomato,,89096,001,2022-04-29_13h28.00.852,SPAMnetsValid,2021.1.4,MacIntel,59.97720866,,,,,,,,,,,,,4,0.7316,0,67,67,88,1,,,,,,,,,,,,,,,,,,,,,,,,,,,,,,,,,,,,,,,,,,,,,,,,,,,,,,,,,,,,,,,,,,,,,,
,,,,7,0.7809,,,,,,104,garden,microwave,,89096,001,2022-04-29_13h28.00.852,SPAMnetsValid,2021.1.4,MacIntel,59.97720866,,,,,,,,,,,,,7,0.7809,0,68,68,81,1,,,,,,,,,,,,,,,,,,,,,,,,,,,,,,,,,,,,,,,,,,,,,,,,,,,,,,,,,,,,,,,,,,,,,,
,,,,3,0.7454,,,,,,122,flower,garden,,89096,001,2022-04-29_13h28.00.852,SPAMnetsValid,2021.1.4,MacIntel,59.97720866,,,,,,,,,,,,,3,0.7454,0,69,69,60,1,,,,,,,,,,,,,,,,,,,,,,,,,,,,,,,,,,,,,,,,,,,,,,,,,,,,,,,,,,,,,,,,,,,,,,
,,,,2,0.8331,,,,,,141,melon,tomato,,89096,001,2022-04-29_13h28.00.852,SPAMnetsValid,2021.1.4,MacIntel,59.97720866,,,,,,,,,,,,,2,0.8331,0,70,70,70,1,,,,,,,,,,,,,,,,,,,,,,,,,,,,,,,,,,,,,,,,,,,,,,,,,,,,,,,,,,,,,,,,,,,,,,
,,,,7,0.8341,,,,,,128,melon,microwave,,89096,001,2022-04-29_13h28.00.852,SPAMnetsValid,2021.1.4,MacIntel,59.97720866,,,,,,,,,,,,,7,0.8341,0,71,71,74,1,,,,,,,,,,,,,,,,,,,,,,,,,,,,,,,,,,,,,,,,,,,,,,,,,,,,,,,,,,,,,,,,,,,,,,
,,,,5,0.7465,,,,,,110,chocolate,cookie,,89096,001,2022-04-29_13h28.00.852,SPAMnetsValid,2021.1.4,MacIntel,59.97720866,,,,,,,,,,,,,5,0.7465,0,72,72,52,1,,,,,,,,,,,,,,,,,,,,,,,,,,,,,,,,,,,,,,,,,,,,,,,,,,,,,,,,,,,,,,,,,,,,,,
,,,,5,0.7162,,,,,,114,cookie,strawberry,,89096,001,2022-04-29_13h28.00.852,SPAMnetsValid,2021.1.4,MacIntel,59.97720866,,,,,,,,,,,,,5,0.7162,0,73,73,87,1,,,,,,,,,,,,,,,,,,,,,,,,,,,,,,,,,,,,,,,,,,,,,,,,,,,,,,,,,,,,,,,,,,,,,,
,,,,5,1.2329,,,,,,173,kitchen,tomato,,89096,001,2022-04-29_13h28.00.852,SPAMnetsValid,2021.1.4,MacIntel,59.97720866,,,,,,,,,,,,,5,1.2329,0,74,74,1,1,,,,,,,,,,,,,,,,,,,,,,,,,,,,,,,,,,,,,,,,,,,,,,,,,,,,,,,,,,,,,,,,,,,,,,
,,,,5,0.6182,,,,,,129,cactus,refrigerator,,89096,001,2022-04-29_13h28.00.852,SPAMnetsValid,2021.1.4,MacIntel,59.97720866,,,,,,,,,,,,,5,0.6182,0,75,75,3,1,,,,,,,,,,,,,,,,,,,,,,,,,,,,,,,,,,,,,,,,,,,,,,,,,,,,,,,,,,,,,,,,,,,,,,
,,,,5,18.1042,,,,,,152,cactus,strawberry,,89096,001,2022-04-29_13h28.00.852,SPAMnetsValid,2021.1.4,MacIntel,59.97720866,,,,,,,,,,,,,5,18.1042,0,76,76,49,1,,,,,,,,,,,,,,,,,,,,,,,,,,,,,,,,,,,,,,,,,,,,,,,,,,,,,,,,,,,,,,,,,,,,,,
,,,,5,0.2128,,,,,,167,carrot,garden,,89096,001,2022-04-29_13h28.00.852,SPAMnetsValid,2021.1.4,MacIntel,59.97720866,,,,,,,,,,,,,5,0.2128,0,77,77,47,1,,,,,,,,,,,,,,,,,,,,,,,,,,,,,,,,,,,,,,,,,,,,,,,,,,,,,,,,,,,,,,,,,,,,,,
,,,,5,0.1846,,,,,,100,garden,tomato,,89096,001,2022-04-29_13h28.00.852,SPAMnetsValid,2021.1.4,MacIntel,59.97720866,,,,,,,,,,,,,5,0.1846,0,78,78,83,1,,,,,,,,,,,,,,,,,,,,,,,,,,,,,,,,,,,,,,,,,,,,,,,,,,,,,,,,,,,,,,,,,,,,,,
,,,,5,0.1667,,,,,,123,cookie,tree,,89096,001,2022-04-29_13h28.00.852,SPAMnetsValid,2021.1.4,MacIntel,59.97720866,,,,,,,,,,,,,5,0.1667,0,79,79,46,1,,,,,,,,,,,,,,,,,,,,,,,,,,,,,,,,,,,,,,,,,,,,,,,,,,,,,,,,,,,,,,,,,,,,,,
,,,,5,0.3543,,,,,,113,refrigerator,strawberry,,89096,001,2022-04-29_13h28.00.852,SPAMnetsValid,2021.1.4,MacIntel,59.97720866,,,,,,,,,,,,,5,0.3543,0,80,80,56,1,,,,,,,,,,,,,,,,,,,,,,,,,,,,,,,,,,,,,,,,,,,,,,,,,,,,,,,,,,,,,,,,,,,,,,
,,,,5,0.1652,,,,,,143,pretzel,rose,,89096,001,2022-04-29_13h28.00.852,SPAMnetsValid,2021.1.4,MacIntel,59.97720866,,,,,,,,,,,,,5,0.1652,0,81,81,55,1,,,,,,,,,,,,,,,,,,,,,,,,,,,,,,,,,,,,,,,,,,,,,,,,,,,,,,,,,,,,,,,,,,,,,,
,,,,5,0.237,,,,,,97,chocolate,kitchen,,89096,001,2022-04-29_13h28.00.852,SPAMnetsValid,2021.1.4,MacIntel,59.97720866,,,,,,,,,,,,,5,0.237,0,82,82,8,1,,,,,,,,,,,,,,,,,,,,,,,,,,,,,,,,,,,,,,,,,,,,,,,,,,,,,,,,,,,,,,,,,,,,,,
,,,,5,0.1719,,,,,,103,pretzel,tomato,,89096,001,2022-04-29_13h28.00.852,SPAMnetsValid,2021.1.4,MacIntel,59.97720866,,,,,,,,,,,,,5,0.1719,0,83,83,79,1,,,,,,,,,,,,,,,,,,,,,,,,,,,,,,,,,,,,,,,,,,,,,,,,,,,,,,,,,,,,,,,,,,,,,,
,,,,5,0.3325,,,,,,184,oven,pretzel,,89096,001,2022-04-29_13h28.00.852,SPAMnetsValid,2021.1.4,MacIntel,59.97720866,,,,,,,,,,,,,5,0.3325,0,84,84,42,1,,,,,,,,,,,,,,,,,,,,,,,,,,,,,,,,,,,,,,,,,,,,,,,,,,,,,,,,,,,,,,,,,,,,,,
,,,,5,0.1987,,,,,,96,oven,strawberry,,89096,001,2022-04-29_13h28.00.852,SPAMnetsValid,2021.1.4,MacIntel,59.97720866,,,,,,,,,,,,,5,0.1987,0,85,85,67,1,,,,,,,,,,,,,,,,,,,,,,,,,,,,,,,,,,,,,,,,,,,,,,,,,,,,,,,,,,,,,,,,,,,,,,
,,,,5,0.1824,,,,,,153,carrot,pretzel,,89096,001,2022-04-29_13h28.00.852,SPAMnetsValid,2021.1.4,MacIntel,59.97720866,,,,,,,,,,,,,5,0.1824,0,86,86,34,1,,,,,,,,,,,,,,,,,,,,,,,,,,,,,,,,,,,,,,,,,,,,,,,,,,,,,,,,,,,,,,,,,,,,,,
,,,,5,0.1304,,,,,,105,cactus,oven,,89096,001,2022-04-29_13h28.00.852,SPAMnetsValid,2021.1.4,MacIntel,59.97720866,,,,,,,,,,,,,5,0.1304,0,87,87,13,1,,,,,,,,,,,,,,,,,,,,,,,,,,,,,,,,,,,,,,,,,,,,,,,,,,,,,,,,,,,,,,,,,,,,,,
,,,,5,0.2256,,,,,,111,carrot,microwave,,89096,001,2022-04-29_13h28.00.852,SPAMnetsValid,2021.1.4,MacIntel,59.97720866,,,,,,,,,,,,,5,0.2256,0,88,88,16,1,,,,,,,,,,,,,,,,,,,,,,,,,,,,,,,,,,,,,,,,,,,,,,,,,,,,,,,,,,,,,,,,,,,,,,
,,,,5,0.1457,,,,,,142,garden,tree,,89096,001,2022-04-29_13h28.00.852,SPAMnetsValid,2021.1.4,MacIntel,59.97720866,,,,,,,,,,,,,5,0.1457,0,89,89,22,1,,,,,,,,,,,,,,,,,,,,,,,,,,,,,,,,,,,,,,,,,,,,,,,,,,,,,,,,,,,,,,,,,,,,,,
,,,,5,0.1172,,,,,,115,refrigerator,tomato,,89096,001,2022-04-29_13h28.00.852,SPAMnetsValid,2021.1.4,MacIntel,59.97720866,,,,,,,,,,,,,5,0.1172,0,90,90,85,1,,,,,,,,,,,,,,,,,,,,,,,,,,,,,,,,,,,,,,,,,,,,,,,,,,,,,,,,,,,,,,,,,,,,,,
,,,,5,0.1115,,,,,,134,carrot,flower,,89096,001,2022-04-29_13h28.00.852,SPAMnetsValid,2021.1.4,MacIntel,59.97720866,,,,,,,,,,,,,5,0.1115,0,91,91,93,1,,,,,,,,,,,,,,,,,,,,,,,,,,,,,,,,,,,,,,,,,,,,,,,,,,,,,,,,,,,,,,,,,,,,,,
,,,,5,0.1325,,,,,,154,strawberry,yogurt,,89096,001,2022-04-29_13h28.00.852,SPAMnetsValid,2021.1.4,MacIntel,59.97720866,,,,,,,,,,,,,5,0.1325,0,92,92,28,1,,,,,,,,,,,,,,,,,,,,,,,,,,,,,,,,,,,,,,,,,,,,,,,,,,,,,,,,,,,,,,,,,,,,,,
,,,,5,0.1244,,,,,,156,melon,rose,,89096,001,2022-04-29_13h28.00.852,SPAMnetsValid,2021.1.4,MacIntel,59.97720866,,,,,,,,,,,,,5,0.1244,0,93,93,31,1,,,,,,,,,,,,,,,,,,,,,,,,,,,,,,,,,,,,,,,,,,,,,,,,,,,,,,,,,,,,,,,,,,,,,,
,,,,5,0.1182,,,,,,172,kitchen,melon,,89096,001,2022-04-29_13h28.00.852,SPAMnetsValid,2021.1.4,MacIntel,59.97720866,,,,,,,,,,,,,5,0.1182,0,94,94,77,1,,,,,,,,,,,,,,,,,,,,,,,,,,,,,,,,,,,,,,,,,,,,,,,,,,,,,,,,,,,,,,,,,,,,,,
,,,,5,0.0966,,,,,,118,chocolate,oven,,89096,001,2022-04-29_13h28.00.852,SPAMnetsValid,2021.1.4,MacIntel,59.97720866,,,,,,,,,,,,,5,0.0966,0,95,95,10,1,,,,,,,,,,,,,,,,,,,,,,,,,,,,,,,,,,,,,,,,,,,,,,,,,,,,,,,,,,,,,,,,,,,,,,
,,,,5,0.0812,,,,,,168,cactus,flower,,89096,001,2022-04-29_13h28.00.852,SPAMnetsValid,2021.1.4,MacIntel,59.97720866,,,,,,,,,,,,,5,0.0812,0,96,96,51,1,,,,,,,,,,,,,,,,,,,,,,,,,,,,,,,,,,,,,,,,,,,,,,,,,,,,,,,,,,,,,,,,,,,,,,
,,,,,,,,,,,,,,,89096,001,2022-04-29_13h28.00.852,SPAMnetsValid,2021.1.4,MacIntel,59.97720866,,,,,,,,,,,,,,,,,,,,0,0,0,0,1,,,,,,,,,,,,,,,,,,,,,,,,,,,,,,,,,,,,,,,,,,,,,,,,,,,,,,,,,,,,,,,,,
,,,,,,,,,,,,,,,89096,001,2022-04-29_13h28.00.852,SPAMnetsValid,2021.1.4,MacIntel,59.97720866,,,,,,0,1,1,1,1,0,1,,,,,,,,,,,,,,,,,,,,,,,,,,,,,,,,,,,,,,,,,,,,,,,,,,,,,,,,,,,,,,,,,,,,,,,,,,,,,
,,,,,,,,,,,,,,,89096,001,2022-04-29_13h28.00.852,SPAMnetsValid,2021.1.4,MacIntel,59.97720866,,,,,,,,,,,,,,,,,,,,,,,,,2,4.6516,0,0,0,0,1,rancor,forbearance,ridicule,malice,bravery,3,,,,,,,,,,,,,,,,,,,,,,,,,,,,,,,,,,,,,,,,,,,,,,,,,,,,
,,,,,,,,,,,,,,,89096,001,2022-04-29_13h28.00.852,SPAMnetsValid,2021.1.4,MacIntel,59.97720866,,,,,,,,,,,,,,,,,,,,,,,,,4,4.0689,0,1,1,1,1,raucous,empty,quiet,smooth,harsh,4,,,,,,,,,,,,,,,,,,,,,,,,,,,,,,,,,,,,,,,,,,,,,,,,,,,,
,,,,,,,,,,,,,,,89096,001,2022-04-29_13h28.00.852,SPAMnetsValid,2021.1.4,MacIntel,59.97720866,,,,,,,,,,,,,,,,,,,,,,,,,,,0,2,2,2,1,gargoyle,oil,medicine,carved waterspout,ugly building,3,,,,,,,,,,,,,,,,,,,,,,,,,,,,,,,,,,,,,,,,,,,,,,,,,,,,
,,,,,,,,,,,,,,,89096,001,2022-04-29_13h28.00.852,SPAMnetsValid,2021.1.4,MacIntel,59.97720866,,,,,,,,,,,,,,,,,,,,,,,,,4,0.0328,0,3,3,3,1,recrudesce,purify,renew activity,lack refinement,crush,2,,,,,,,,,,,,,,,,,,,,,,,,,,,,,,,,,,,,,,,,,,,,,,,,,,,,
,,,,,,,,,,,,,,,89096,001,2022-04-29_13h28.00.852,SPAMnetsValid,2021.1.4,MacIntel,59.97720866,,,,,,,,,,,,,,,,,,,,,,,,,,,0,4,4,4,1,specious,"plausible, but not genuine",noteworthy,class or variety,roomy,1,,,,,,,,,,,,,,,,,,,,,,,,,,,,,,,,,,,,,,,,,,,,,,,,,,,,
,,,,,,,,,,,,,,,89096,001,2022-04-29_13h28.00.852,SPAMnetsValid,2021.1.4,MacIntel,59.97720866,,,,,,,,,,,,,,,,,,,,,,,,,,,0,5,5,5,1,bauble,bubble,showy plaything,idle talk,confusion,2,,,,,,,,,,,,,,,,,,,,,,,,,,,,,,,,,,,,,,,,,,,,,,,,,,,,
,,,,,,,,,,,,,,,89096,001,2022-04-29_13h28.00.852,SPAMnetsValid,2021.1.4,MacIntel,59.97720866,,,,,,,,,,,,,,,,,,,,,,,,,,,0,6,6,6,1,prolific,scarce,producing abundantly,reckless,speaking profanely,2,,,,,,,,,,,,,,,,,,,,,,,,,,,,,,,,,,,,,,,,,,,,,,,,,,,,
,,,,,,,,,,,,,,,89096,001,2022-04-29_13h28.00.852,SPAMnetsValid,2021.1.4,MacIntel,59.97720866,,,,,,,,,,,,,,,,,,,,,,,,,,,0,7,7,7,1,opulent,party,wealthy,happy frame of mind,semiprecious stone,2,,,,,,,,,,,,,,,,,,,,,,,,,,,,,,,,,,,,,,,,,,,,,,,,,,,,
,,,,,,,,,,,,,,,89096,001,2022-04-29_13h28.00.852,SPAMnetsValid,2021.1.4,MacIntel,59.97720866,,,,,,,,,,,,,,,,,,,,,,,,,,,0,8,8,8,1,coercion,conspiracy,strategy,restraint,attraction,3,,,,,,,,,,,,,,,,,,,,,,,,,,,,,,,,,,,,,,,,,,,,,,,,,,,,
,,,,,,,,,,,,,,,89096,001,2022-04-29_13h28.00.852,SPAMnetsValid,2021.1.4,MacIntel,59.97720866,,,,,,,,,,,,,,,,,,,,,,,,,,,0,9,9,9,1,hiatus,animal,calamity,dread,gap,4,,,,,,,,,,,,,,,,,,,,,,,,,,,,,,,,,,,,,,,,,,,,,,,,,,,,
,,,,,,,,,,,,,,,89096,001,2022-04-29_13h28.00.852,SPAMnetsValid,2021.1.4,MacIntel,59.97720866,,,,,,,,,,,,,,,,,,,,,,,,,,,0,10,10,10,1,germane,microbe,contagious,relevant,different,3,,,,,,,,,,,,,,,,,,,,,,,,,,,,,,,,,,,,,,,,,,,,,,,,,,,,
,,,,,,,,,,,,,,,89096,001,2022-04-29_13h28.00.852,SPAMnetsValid,2021.1.4,MacIntel,59.97720866,,,,,,,,,,,,,,,,,,,,,,,,,,,0,11,11,11,1,perfunctory,fundamental,formal,superficial,careful,3,,,,,,,,,,,,,,,,,,,,,,,,,,,,,,,,,,,,,,,,,,,,,,,,,,,,
,,,,,,,,,,,,,,,89096,001,2022-04-29_13h28.00.852,SPAMnetsValid,2021.1.4,MacIntel,59.97720866,,,,,,,,,,,,,,,,,,,,,,,,,,,0,12,12,12,1,diverge,reveal,chant,distract the attention of,differ or turn off from,4,,,,,,,,,,,,,,,,,,,,,,,,,,,,,,,,,,,,,,,,,,,,,,,,,,,,
,,,,,,,,,,,,,,,89096,001,2022-04-29_13h28.00.852,SPAMnetsValid,2021.1.4,MacIntel,59.97720866,,,,,,,,,,,,,,,,,,,,,,,,,,,0,13,13,13,1,evoke,take away,anger,connect,bring out,4,,,,,,,,,,,,,,,,,,,,,,,,,,,,,,,,,,,,,,,,,,,,,,,,,,,,
,,,,,,,,,,,,,,,89096,001,2022-04-29_13h28.00.852,SPAMnetsValid,2021.1.4,MacIntel,59.97720866,,,,,,,,,,,,,,,,,,,,,,,,,,,0,14,14,14,1,pertinent,relevant,lying next to,necessary,bold,1,,,,,,,,,,,,,,,,,,,,,,,,,,,,,,,,,,,,,,,,,,,,,,,,,,,,
,,,,,,,,,,,,,,,89096,001,2022-04-29_13h28.00.852,SPAMnetsValid,2021.1.4,MacIntel,59.97720866,,,,,,,,,,,,,,,,,,,,,,,,,,,0,15,15,15,1,holocaust,entirety,destruction,saintly,price,2,,,,,,,,,,,,,,,,,,,,,,,,,,,,,,,,,,,,,,,,,,,,,,,,,,,,
,,,,,,,,,,,,,,,89096,001,2022-04-29_13h28.00.852,SPAMnetsValid,2021.1.4,MacIntel,59.97720866,,,,,,,,,,,,,,,,,,,,,,,,,,,0,16,16,16,1,piquant,mellow,fish,pungent,cloth,3,,,,,,,,,,,,,,,,,,,,,,,,,,,,,,,,,,,,,,,,,,,,,,,,,,,,
,,,,,,,,,,,,,,,89096,001,2022-04-29_13h28.00.852,SPAMnetsValid,2021.1.4,MacIntel,59.97720866,,,,,,,,,,,,,,,,,,,,,,,,,,,0,17,17,17,1,firmament,foundation,heavens,strong,glue,2,,,,,,,,,,,,,,,,,,,,,,,,,,,,,,,,,,,,,,,,,,,,,,,,,,,,
,,,,,,,,,,,,,,,89096,001,2022-04-29_13h28.00.852,SPAMnetsValid,2021.1.4,MacIntel,59.97720866,,,,,,,,,,,,,,,,,,,,,,,,,,,,,,,,,,,,,,4,0.0751,0,0,0,0,1,marketable,partisan,jocular,marriageable,salable,essential,4,,,,,,,,,,,,,,,,,,,,,,,,,,,,,,,,,,,,,,
,,,,,,,,,,,,,,,89096,001,2022-04-29_13h28.00.852,SPAMnetsValid,2021.1.4,MacIntel,59.97720866,,,,,,,,,,,,,,,,,,,,,,,,,,,,,,,,,,,,,,4,0.0347,0,1,1,1,1,cottontail,squirrel,poplar,boa,marshy plant,rabbit,5,,,,,,,,,,,,,,,,,,,,,,,,,,,,,,,,,,,,,,
,,,,,,,,,,,,,,,89096,001,2022-04-29_13h28.00.852,SPAMnetsValid,2021.1.4,MacIntel,59.97720866,,,,,,,,,,,,,,,,,,,,,,,,,,,,,,,,,,,,,,4,0.0389,0,2,2,2,1,boggy,afraid,false,marshy,dense,black,3,,,,,,,,,,,,,,,,,,,,,,,,,,,,,,,,,,,,,,
,,,,,,,,,,,,,,,89096,001,2022-04-29_13h28.00.852,SPAMnetsValid,2021.1.4,MacIntel,59.97720866,,,,,,,,,,,,,,,,,,,,,,,,,,,,,,,,,,,,,,4,0.4991,0,3,3,3,1,gruesomeness,blackness,falseness,vindictiveness,drunkenness,ghastliness,5,,,,,,,,,,,,,,,,,,,,,,,,,,,,,,,,,,,,,,
,,,,,,,,,,,,,,,89096,001,2022-04-29_13h28.00.852,SPAMnetsValid,2021.1.4,MacIntel,59.97720866,,,,,,,,,,,,,,,,,,,,,,,,,,,,,,,,,,,,,,4,0.2407,0,4,4,4,1,loathing,diffidence,laziness,abhorrence,cleverness,comfort,3,,,,,,,,,,,,,,,,,,,,,,,,,,,,,,,,,,,,,,
,,,,,,,,,,,,,,,89096,001,2022-04-29_13h28.00.852,SPAMnetsValid,2021.1.4,MacIntel,59.97720866,,,,,,,,,,,,,,,,,,,,,,,,,,,,,,,,,,,,,,4,0.2176,0,5,5,5,1,bantam,fowl,ridicule,cripple,vegetable,ensign,1,,,,,,,,,,,,,,,,,,,,,,,,,,,,,,,,,,,,,,
,,,,,,,,,,,,,,,89096,001,2022-04-29_13h28.00.852,SPAMnetsValid,2021.1.4,MacIntel,59.97720866,,,,,,,,,,,,,,,,,,,,,,,,,,,,,,,,,,,,,,4,0.1945,0,6,6,6,1,evoke,wake up,surrender,reconnoiter,transcend,call forth,5,,,,,,,,,,,,,,,,,,,,,,,,,,,,,,,,,,,,,,
,,,,,,,,,,,,,,,89096,001,2022-04-29_13h28.00.852,SPAMnetsValid,2021.1.4,MacIntel,59.97720866,,,,,,,,,,,,,,,,,,,,,,,,,,,,,,,,,,,,,,4,0.1926,0,7,7,7,1,unobtrusive,unintelligent,epileptic,illogical,lineal,modest,5,,,,,,,,,,,,,,,,,,,,,,,,,,,,,,,,,,,,,,
,,,,,,,,,,,,,,,89096,001,2022-04-29_13h28.00.852,SPAMnetsValid,2021.1.4,MacIntel,59.97720866,,,,,,,,,,,,,,,,,,,,,,,,,,,,,,,,,,,,,,4,0.1867,0,8,8,8,1,terrain,ice cream,final test,tractor,area of ground,weight,4,,,,,,,,,,,,,,,,,,,,,,,,,,,,,,,,,,,,,,
,,,,,,,,,,,,,,,89096,001,2022-04-29_13h28.00.852,SPAMnetsValid,2021.1.4,MacIntel,59.97720866,,,,,,,,,,,,,,,,,,,,,,,,,,,,,,,,,,,,,,4,0.1656,0,9,9,9,1,capriciousness,stubbornness,courage,whimsicality,amazement,greediness,3,,,,,,,,,,,,,,,,,,,,,,,,,,,,,,,,,,,,,,
,,,,,,,,,,,,,,,89096,001,2022-04-29_13h28.00.852,SPAMnetsValid,2021.1.4,MacIntel,59.97720866,,,,,,,,,,,,,,,,,,,,,,,,,,,,,,,,,,,,,,4,0.1461,0,10,10,10,1,maelstrom,slander,whirlpool,enmity,armor,majolica,2,,,,,,,,,,,,,,,,,,,,,,,,,,,,,,,,,,,,,,
,,,,,,,,,,,,,,,89096,001,2022-04-29_13h28.00.852,SPAMnetsValid,2021.1.4,MacIntel,59.97720866,,,,,,,,,,,,,,,,,,,,,,,,,,,,,,,,,,,,,,4,0.2019,0,11,11,11,1,tentative,critical,conclusive,authentic,provisional,apprehensive,4,,,,,,,,,,,,,,,,,,,,,,,,,,,,,,,,,,,,,,
,,,,,,,,,,,,,,,89096,001,2022-04-29_13h28.00.852,SPAMnetsValid,2021.1.4,MacIntel,59.97720866,,,,,,,,,,,,,,,,,,,,,,,,,,,,,,,,,,,,,,4,0.1464,0,12,12,12,1,placate,rehabilitate,plagiarize,depredate,apprise,conciliate,5,,,,,,,,,,,,,,,,,,,,,,,,,,,,,,,,,,,,,,
,,,,,,,,,,,,,,,89096,001,2022-04-29_13h28.00.852,SPAMnetsValid,2021.1.4,MacIntel,59.97720866,,,,,,,,,,,,,,,,,,,,,,,,,,,,,,,,,,,,,,4,0.3477,0,13,13,13,1,surcease,enlightenment,cessation,inattention,censor,substitution,2,,,,,,,,,,,,,,,,,,,,,,,,,,,,,,,,,,,,,,
,,,,,,,,,,,,,,,89096,001,2022-04-29_13h28.00.852,SPAMnetsValid,2021.1.4,MacIntel,59.97720866,,,,,,,,,,,,,,,,,,,,,,,,,,,,,,,,,,,,,,,,0,14,14,14,1,apathetic,wandering,impassive,hateful,prophetic,overflowing,2,,,,,,,,,,,,,,,,,,,,,,,,,,,,,,,,,,,,,,
,,,,,,,,,,,,,,,89096,001,2022-04-29_13h28.00.852,SPAMnetsValid,2021.1.4,MacIntel,59.97720866,,,,,,,,,,,,,,,,,,,,,,,,,,,,,,,,,,,,,,,,0,15,15,15,1,paternoster,paternalism,patricide,malediction,benediction,prayer,5,,,,,,,,,,,,,,,,,,,,,,,,,,,,,,,,,,,,,,
,,,,,,,,,,,,,,,89096,001,2022-04-29_13h28.00.852,SPAMnetsValid,2021.1.4,MacIntel,59.97720866,,,,,,,,,,,,,,,,,,,,,,,,,,,,,,,,,,,,,,,,0,16,16,16,1,opalescence,opulence,senescence,bankruptcy,iridescence,assiduity,4,,,,,,,,,,,,,,,,,,,,,,,,,,,,,,,,,,,,,,
,,,,,,,,,,,,,,,89096,001,2022-04-29_13h28.00.852,SPAMnetsValid,2021.1.4,MacIntel,59.97720866,,,,,,,,,,,,,,,,,,,,,,,,,,,,,,,,,,,,,,4,0.2636,0,17,17,17,1,lush,stupid,luxurious,hazy,putrid,languishing,2,,,,,,,,,,,,,,,,,,,,,,,,,,,,,,,,,,,,,,
,,,,,,,,,,,,,,,89096,001,2022-04-29_13h28.00.852,SPAMnetsValid,2021.1.4,MacIntel,59.97720866,,,,,,,,,,,,,,,,,,,,,,,,,,,,,,,,,,,,,,4,0.1851,0,18,18,18,1,curtailment,expenditure,abandonment,abridgment,improvement,forgery,3,,,,,,,,,,,,,,,,,,,,,,,,,,,,,,,,,,,,,,
,,,,,,,,,,,,,,,89096,001,2022-04-29_13h28.00.852,SPAMnetsValid,2021.1.4,MacIntel,59.97720866,,,,,,,,,,,,,,,,,,,,,,,,,,,,,,,,,,,,,,4,0.485,0,19,19,19,1,perversity,adversity,perviousness,travesty,waywardness,gentility,4,,,,,,,,,,,,,,,,,,,,,,,,,,,,,,,,,,,,,,
,,,,,,,,,,,,,,,89096,001,2022-04-29_13h28.00.852,SPAMnetsValid,2021.1.4,MacIntel,59.97720866,,,,,,,,,,,,,,,,,,,,,,,,,,,,,,,,,,,,,,4,0.1788,0,20,20,20,1,calumnious,complimentary,analogous,slanderous,tempestuous,magnanimous,3,,,,,,,,,,,,,,,,,,,,,,,,,,,,,,,,,,,,,,
,,,,,,,,,,,,,,,89096,001,2022-04-29_13h28.00.852,SPAMnetsValid,2021.1.4,MacIntel,59.97720866,,,,,,,,,,,,,,,,,,,,,,,,,,,,,,,,,,,,,,4,0.2288,0,21,21,21,1,illiberality,bigotry,imbecility,illegibility,cautery,immaturity,1,,,,,,,,,,,,,,,,,,,,,,,,,,,,,,,,,,,,,,
,,,,,,,,,,,,,,,89096,001,2022-04-29_13h28.00.852,SPAMnetsValid,2021.1.4,MacIntel,59.97720866,,,,,,,,,,,,,,,,,,,,,,,,,,,,,,,,,,,,,,4,0.1822,0,22,22,22,1,clabber,rejoice,gossip,curdle,crow,hobble,3,,,,,,,,,,,,,,,,,,,,,,,,,,,,,,,,,,,,,,
,,,,,,,,,,,,,,,89096,001,2022-04-29_13h28.00.852,SPAMnetsValid,2021.1.4,MacIntel,59.97720866,,,,,,,,,,,,,,,,,,,,,,,,,,,,,,,,,,,,,,4,0.1982,0,23,23,23,1,sedulousness,diligence,credulousness,seduction,perilousness,frankness,1,,,,,,,,,,,,,,,,,,,,,,,,,,,,,,,,,,,,,,
,,,,,,,,,,,,,,,89096,001,2022-04-29_13h28.00.852,SPAMnetsValid,2021.1.4,MacIntel,59.97720866,,,,,,,,,,,,,,,,,,,,,,,,,,,,,,,,,,,,,,,,,,,,,,,,,,,,sleep,pillow,0,0,0,0,1,,,,,,,,,,,,,,,,,,,,,,,,,,,,,,,
,,,,,,,,,,,,,,,89096,001,2022-04-29_13h28.00.852,SPAMnetsValid,2021.1.4,MacIntel,59.97720866,,,,,,,,,,,,,,,,,,,,,,,,,,,,,,,,,,,,,,,,,,,,,,,,,,,,play,pillow,1,0,1,0,1,,,,,,,,,,,,,,,,,,,,,,,,,,,,,,,
,,,,,,,,,,,,,,,89096,001,2022-04-29_13h28.00.852,SPAMnetsValid,2021.1.4,MacIntel,59.97720866,,,,,,,,,,,,,,,,,,,,,,,,,,,,,,,,,,,,,,,,,,,,,,,,,,,,rst,pillow,2,0,2,0,1,,,,,,,,,,,,,,,,,,,,,,,,,,,,,,,
,,,,,,,,,,,,,,,89096,001,2022-04-29_13h28.00.852,SPAMnetsValid,2021.1.4,MacIntel,59.97720866,,,,,,,,,,,,,,,,,,,,,,,,,,,,,,,,,,,,,,,,,,,,,,,,,,,,,,,,,,,0,0,0,2,1,pillow,,,,,,,,,,,,,,,,,,,,,,,,,
,,,,,,,,,,,,,,,89096,001,2022-04-29_13h28.00.852,SPAMnetsValid,2021.1.4,MacIntel,59.97720866,,,,,,,,,,,,,,,,,,,,,,,,,,,,,,,,,,,,,,,,,,,,,,,,,,,,smell,candle,0,0,0,0,1,,,,,,,,,,,,,,,,,,,,,,,,,,,,,,,
,,,,,,,,,,,,,,,89096,001,2022-04-29_13h28.00.852,SPAMnetsValid,2021.1.4,MacIntel,59.97720866,,,,,,,,,,,,,,,,,,,,,,,,,,,,,,,,,,,,,,,,,,,,,,,,,,,,scent,candle,1,0,1,0,1,,,,,,,,,,,,,,,,,,,,,,,,,,,,,,,
,,,,,,,,,,,,,,,89096,001,2022-04-29_13h28.00.852,SPAMnetsValid,2021.1.4,MacIntel,59.97720866,,,,,,,,,,,,,,,,,,,,,,,,,,,,,,,,,,,,,,,,,,,,,,,,,,,,light source,candle,2,0,2,0,1,,,,,,,,,,,,,,,,,,,,,,,,,,,,,,,
,,,,,,,,,,,,,,,89096,001,2022-04-29_13h28.00.852,SPAMnetsValid,2021.1.4,MacIntel,59.97720866,,,,,,,,,,,,,,,,,,,,,,,,,,,,,,,,,,,,,,,,,,,,,,,,,,,,,,,,,,,0,1,1,1,1,candle,,,,,,,,,,,,,,,,,,,,,,,,,
,,,,,,,,,,,,,,,89096,001,2022-04-29_13h28.00.852,SPAMnetsValid,2021.1.4,MacIntel,59.97720866,,,,,,,,,,,,,,,,,,,,,,,,,,,,,,,,,,,,,,,,,,,,,,,,,,,,water,bucket,0,0,0,0,1,,,,,,,,,,,,,,,,,,,,,,,,,,,,,,,
,,,,,,,,,,,,,,,89096,001,2022-04-29_13h28.00.852,SPAMnetsValid,2021.1.4,MacIntel,59.97720866,,,,,,,,,,,,,,,,,,,,,,,,,,,,,,,,,,,,,,,,,,,,,,,,,,,,hat,bucket,1,0,1,0,1,,,,,,,,,,,,,,,,,,,,,,,,,,,,,,,
,,,,,,,,,,,,,,,89096,001,2022-04-29_13h28.00.852,SPAMnetsValid,2021.1.4,MacIntel,59.97720866,,,,,,,,,,,,,,,,,,,,,,,,,,,,,,,,,,,,,,,,,,,,,,,,,,,,paint,bucket,2,0,2,0,1,,,,,,,,,,,,,,,,,,,,,,,,,,,,,,,
,,,,,,,,,,,,,,,89096,001,2022-04-29_13h28.00.852,SPAMnetsValid,2021.1.4,MacIntel,59.97720866,,,,,,,,,,,,,,,,,,,,,,,,,,,,,,,,,,,,,,,,,,,,,,,,,,,,baseballs,bucket,3,0,3,0,1,,,,,,,,,,,,,,,,,,,,,,,,,,,,,,,
,,,,,,,,,,,,,,,89096,001,2022-04-29_13h28.00.852,SPAMnetsValid,2021.1.4,MacIntel,59.97720866,,,,,,,,,,,,,,,,,,,,,,,,,,,,,,,,,,,,,,,,,,,,,,,,,,,,,,,,,,,0,2,2,0,1,bucket,,,,,,,,,,,,,,,,,,,,,,,,,
,,,,,,,,,,,,,,,89096,001,2022-04-29_13h28.00.852,SPAMnetsValid,2021.1.4,MacIntel,59.97720866,,,,,,,,,,,,,,,,,,,,,,,,,,,,,,,,,,,,,,,,,,,,,,,,,,,,,,,,,,,,,,,,,cow,Animals,0,0,0,0,1,,,,,,,,,,,,,,,,,,
,,,,,,,,,,,,,,,89096,001,2022-04-29_13h28.00.852,SPAMnetsValid,2021.1.4,MacIntel,59.97720866,,,,,,,,,,,,,,,,,,,,,,,,,,,,,,,,,,,,,,,,,,,,,,,,,,,,,,,,,,,,,,,,,cat,Animals,1,0,1,0,1,,,,,,,,,,,,,,,,,,
,,,,,,,,,,,,,,,89096,001,2022-04-29_13h28.00.852,SPAMnetsValid,2021.1.4,MacIntel,59.97720866,,,,,,,,,,,,,,,,,,,,,,,,,,,,,,,,,,,,,,,,,,,,,,,,,,,,,,,,,,,,,,,,,croc,Animals,2,0,2,0,1,,,,,,,,,,,,,,,,,,
,,,,,,,,,,,,,,,89096,001,2022-04-29_13h28.00.852,SPAMnetsValid,2021.1.4,MacIntel,59.97720866,,,,,,,,,,,,,,,,,,,,,,,,,,,,,,,,,,,,,,,,,,,,,,,,,,,,,,,,,,,,,,,,,rat,Animals,3,0,3,0,1,,,,,,,,,,,,,,,,,,
,,,,,,,,,,,,,,,89096,001,2022-04-29_13h28.00.852,SPAMnetsValid,2021.1.4,MacIntel,59.97720866,,,,,,,,,,,,,,,,,,,,,,,,,,,,,,,,,,,,,,,,,,,,,,,,,,,,,,,,,,,,,,,,,bat,Animals,4,0,4,0,1,,,,,,,,,,,,,,,,,,
,,,,,,,,,,,,,,,89096,001,2022-04-29_13h28.00.852,SPAMnetsValid,2021.1.4,MacIntel,59.97720866,,,,,,,,,,,,,,,,,,,,,,,,,,,,,,,,,,,,,,,,,,,,,,,,,,,,,,,,,,,,,,,,,dog,Animals,5,0,5,0,1,,,,,,,,,,,,,,,,,,
,,,,,,,,,,,,,,,89096,001,2022-04-29_13h28.00.852,SPAMnetsValid,2021.1.4,MacIntel,59.97720866,,,,,,,,,,,,,,,,,,,,,,,,,,,,,,,,,,,,,,,,,,,,,,,,,,,,,,,,,,,,,,,,,snake,Animals,6,0,6,0,1,,,,,,,,,,,,,,,,,,
,,,,,,,,,,,,,,,89096,001,2022-04-29_13h28.00.852,SPAMnetsValid,2021.1.4,MacIntel,59.97720866,,,,,,,,,,,,,,,,,,,,,,,,,,,,,,,,,,,,,,,,,,,,,,,,,,,,,,,,,,,,,,,,,hawk,Animals,7,0,7,0,1,,,,,,,,,,,,,,,,,,
,,,,,,,,,,,,,,,89096,001,2022-04-29_13h28.00.852,SPAMnetsValid,2021.1.4,MacIntel,59.97720866,,,,,,,,,,,,,,,,,,,,,,,,,,,,,,,,,,,,,,,,,,,,,,,,,,,,,,,,,,,,,,,,,gator,Animals,8,0,8,0,1,,,,,,,,,,,,,,,,,,
,,,,,,,,,,,,,,,89096,001,2022-04-29_13h28.00.852,SPAMnetsValid,2021.1.4,MacIntel,59.97720866,,,,,,,,,,,,,,,,,,,,,,,,,,,,,,,,,,,,,,,,,,,,,,,,,,,,,,,,,,,,,,,,,,,,,,,,0,0,0,0,1,Animals,,,,,,,,,,,,
,,,,,,,,,,,,,,,89096,001,2022-04-29_13h28.00.852,SPAMnetsValid,2021.1.4,MacIntel,59.97720866,,,,,,,,,,,,,,,,,,,,,,,,,,,,,,,,,,,,,,,,,,,,,,,,,,,,,,,,,,,,,,,,,,,,,,,,,,,,,,3,2.056,0,0,0,0,1,"I enjoy concentrating on a fantasy or daydream and exploring all its possibilities, letting it grow and develop.",0,1,,
,,,,,,,,,,,,,,,89096,001,2022-04-29_13h28.00.852,SPAMnetsValid,2021.1.4,MacIntel,59.97720866,,,,,,,,,,,,,,,,,,,,,,,,,,,,,,,,,,,,,,,,,,,,,,,,,,,,,,,,,,,,,,,,,,,,,,,,,,,,,,3,0.5604,0,1,1,1,1,I think it's interesting to learn and develop new hobbies.,0,2,,
,,,,,,,,,,,,,,,89096,001,2022-04-29_13h28.00.852,SPAMnetsValid,2021.1.4,MacIntel,59.97720866,,,,,,,,,,,,,,,,,,,,,,,,,,,,,,,,,,,,,,,,,,,,,,,,,,,,,,,,,,,,,,,,,,,,,,,,,,,,,,3,0.5924,0,2,2,2,1,I am intrigued by the patterns I find in art and nature.,0,3,,
,,,,,,,,,,,,,,,89096,001,2022-04-29_13h28.00.852,SPAMnetsValid,2021.1.4,MacIntel,59.97720866,,,,,,,,,,,,,,,,,,,,,,,,,,,,,,,,,,,,,,,,,,,,,,,,,,,,,,,,,,,,,,,,,,,,,,,,,,,,,,3,0.5953,0,3,3,3,1,I believe letting students hear controversial speakers can only confuse and mislead them.,1,4,,
,,,,,,,,,,,,,,,89096,001,2022-04-29_13h28.00.852,SPAMnetsValid,2021.1.4,MacIntel,59.97720866,,,,,,,,,,,,,,,,,,,,,,,,,,,,,,,,,,,,,,,,,,,,,,,,,,,,,,,,,,,,,,,,,,,,,,,,,,,,,,3,0.5811,0,4,4,4,1,Poetry has little or no effect on me.,1,5,,
,,,,,,,,,,,,,,,89096,001,2022-04-29_13h28.00.852,SPAMnetsValid,2021.1.4,MacIntel,59.97720866,,,,,,,,,,,,,,,,,,,,,,,,,,,,,,,,,,,,,,,,,,,,,,,,,,,,,,,,,,,,,,,,,,,,,,,,,,,,,,3,0.5964,0,5,5,5,1,I would have difficulty just letting my mind wander without control or guidance.,1,6,,
,,,,,,,,,,,,,,,89096,001,2022-04-29_13h28.00.852,SPAMnetsValid,2021.1.4,MacIntel,59.97720866,,,,,,,,,,,,,,,,,,,,,,,,,,,,,,,,,,,,,,,,,,,,,,,,,,,,,,,,,,,,,,,,,,,,,,,,,,,,,,3,0.5182,0,6,6,6,1,I seldom notice the moods or feelings that different environments produce.,1,7,,
,,,,,,,,,,,,,,,89096,001,2022-04-29_13h28.00.852,SPAMnetsValid,2021.1.4,MacIntel,59.97720866,,,,,,,,,,,,,,,,,,,,,,,,,,,,,,,,,,,,,,,,,,,,,,,,,,,,,,,,,,,,,,,,,,,,,,,,,,,,,,3,1.2635,0,7,7,7,1,I experience a wide range of emotions or feelings.,0,8,,
,,,,,,,,,,,,,,,89096,001,2022-04-29_13h28.00.852,SPAMnetsValid,2021.1.4,MacIntel,59.97720866,,,,,,,,,,,,,,,,,,,,,,,,,,,,,,,,,,,,,,,,,,,,,,,,,,,,,,,,,,,,,,,,,,,,,,,,,,,,,,3,0.5933,0,8,8,8,1,"Sometimes when I am reading poetry or looking at a work of art, I feel a chill or wave of excitement.",0,9,,
,,,,,,,,,,,,,,,89096,001,2022-04-29_13h28.00.852,SPAMnetsValid,2021.1.4,MacIntel,59.97720866,,,,,,,,,,,,,,,,,,,,,,,,,,,,,,,,,,,,,,,,,,,,,,,,,,,,,,,,,,,,,,,,,,,,,,,,,,,,,,3,0.9031,0,9,9,9,1,I have little interest in speculating on the nature of the universe or the human condition.,1,10,,
,,,,,,,,,,,,,,,89096,001,2022-04-29_13h28.00.852,SPAMnetsValid,2021.1.4,MacIntel,59.97720866,,,,,,,,,,,,,,,,,,,,,,,,,,,,,,,,,,,,,,,,,,,,,,,,,,,,,,,,,,,,,,,,,,,,,,,,,,,,,,3,0.6325,0,10,10,10,1,I have a lot of intellectual curiosity.,0,11,,
,,,,,,,,,,,,,,,89096,001,2022-04-29_13h28.00.852,SPAMnetsValid,2021.1.4,MacIntel,59.97720866,,,,,,,,,,,,,,,,,,,,,,,,,,,,,,,,,,,,,,,,,,,,,,,,,,,,,,,,,,,,,,,,,,,,,,,,,,,,,,3,0.5401,0,11,11,11,1,I often enjoy playing with theories or abstract ideas.,0,12,,
,,,,,,,,,,,,,,,89096,001,2022-04-29_13h28.00.852,SPAMnetsValid,2021.1.4,MacIntel,59.97720866,,,,,,,,,,,,,,,,,,,,,,,,,,,,,,,,,,,,,,,,,,,,,,,,,,,,,,,,,,,,,,,,,,,,,,,,,,,,,,,,,,,,,,,,return,7.6627
