key_resp_3.keys,key_resp_3.rt,slider.response,slider.rt,rjt_rating,rjt_RT,trials_22.thisRepN,trials_22.thisTrialN,trials_22.thisN,trials_22.thisIndex,trials_22.ran,rjt_order,word1,word2,attention,participant,session,date,expName,psychopyVersion,OS,frameRate,trials_99.thisRepN,trials_99.thisTrialN,trials_99.thisN,trials_99.thisIndex,trials_99.ran,trials_5.thisRepN,trials_5.thisTrialN,trials_5.thisN,trials_5.thisIndex,trials_5.ran,repOne,repTwo,slider_2.response,slider_2.rt,trials_24.thisRepN,trials_24.thisTrialN,trials_24.thisN,trials_24.thisIndex,trials_24.ran,trials_4.thisRepN,trials_4.thisTrialN,trials_4.thisN,trials_4.thisIndex,trials_4.ran,slider_extend_2.response,slider_extend_2.rt,trials_6.thisRepN,trials_6.thisTrialN,trials_6.thisN,trials_6.thisIndex,trials_6.ran,vCue2,R1,R2,R3,R4,correct,sliderVocab.response,sliderVocab.rt,trials_7.thisRepN,trials_7.thisTrialN,trials_7.thisN,trials_7.thisIndex,trials_7.ran,VocabCue,VR1,VR2,VR3,VR4,VR5,VocabCorrect,AUT_resp,AUT_label,trials.thisRepN,trials.thisTrialN,trials.thisN,trials.thisIndex,trials.ran,trials_2.thisRepN,trials_2.thisTrialN,trials_2.thisN,trials_2.thisIndex,trials_2.ran,aut_prompt,VF_response,VF_tag,trials_16.thisRepN,trials_16.thisTrialN,trials_16.thisN,trials_16.thisIndex,trials_16.ran,trials_17.thisRepN,trials_17.thisTrialN,trials_17.thisN,trials_17.thisIndex,trials_17.ran,VFcond,open_slider.response,open_slider.rt,trials_3.thisRepN,trials_3.thisTrialN,trials_3.thisN,trials_3.thisIndex,trials_3.ran,OpenQ,Rev,OPEN_ORDER,key_resp_2.keys,key_resp_2.rt
return,1.2031,7,13.6644,7,13.6644,0,0,0,72,1,59,rose,strawberry,,89168,001,2022-04-25_17h11.06.832,SPAMnetsValid,2021.1.4,MacIntel,59.97361161,,,,,,,,,,,,,,,,,,,,,,,,,,,,,,,,,,,,,,,,,,,,,,,,,,,,,,,,,,,,,,,,,,,,,,,,,,,,,,,,,,,,,,,,,
,,1,1.9945,1,1.9945,0,1,1,27,1,72,broom,onion,,89168,001,2022-04-25_17h11.06.832,SPAMnetsValid,2021.1.4,MacIntel,59.97361161,,,,,,,,,,,,,,,,,,,,,,,,,,,,,,,,,,,,,,,,,,,,,,,,,,,,,,,,,,,,,,,,,,,,,,,,,,,,,,,,,,,,,,,,,
,,8,2.2098,8,2.2098,0,2,2,30,1,3,cake,oven,,89168,001,2022-04-25_17h11.06.832,SPAMnetsValid,2021.1.4,MacIntel,59.97361161,,,,,,,,,,,,,,,,,,,,,,,,,,,,,,,,,,,,,,,,,,,,,,,,,,,,,,,,,,,,,,,,,,,,,,,,,,,,,,,,,,,,,,,,,
,,3,2.4765,3,2.4765,0,3,3,92,1,44,cookie,melon,,89168,001,2022-04-25_17h11.06.832,SPAMnetsValid,2021.1.4,MacIntel,59.97361161,,,,,,,,,,,,,,,,,,,,,,,,,,,,,,,,,,,,,,,,,,,,,,,,,,,,,,,,,,,,,,,,,,,,,,,,,,,,,,,,,,,,,,,,,
,,1,1.6445,1,1.6445,0,4,4,17,1,27,cactus,cookie,,89168,001,2022-04-25_17h11.06.832,SPAMnetsValid,2021.1.4,MacIntel,59.97361161,,,,,,,,,,,,,,,,,,,,,,,,,,,,,,,,,,,,,,,,,,,,,,,,,,,,,,,,,,,,,,,,,,,,,,,,,,,,,,,,,,,,,,,,,
,,3,3.2112,3,3.2112,0,5,5,43,1,11,refrigerator,tree,,89168,001,2022-04-25_17h11.06.832,SPAMnetsValid,2021.1.4,MacIntel,59.97361161,,,,,,,,,,,,,,,,,,,,,,,,,,,,,,,,,,,,,,,,,,,,,,,,,,,,,,,,,,,,,,,,,,,,,,,,,,,,,,,,,,,,,,,,,
,,5,4.5098,5,4.5098,0,6,6,94,1,68,flower,tomato,,89168,001,2022-04-25_17h11.06.832,SPAMnetsValid,2021.1.4,MacIntel,59.97361161,,,,,,,,,,,,,,,,,,,,,,,,,,,,,,,,,,,,,,,,,,,,,,,,,,,,,,,,,,,,,,,,,,,,,,,,,,,,,,,,,,,,,,,,,
,,1,1.7979,1,1.7979,0,7,7,0,1,53,garden,pretzel,,89168,001,2022-04-25_17h11.06.832,SPAMnetsValid,2021.1.4,MacIntel,59.97361161,,,,,,,,,,,,,,,,,,,,,,,,,,,,,,,,,,,,,,,,,,,,,,,,,,,,,,,,,,,,,,,,,,,,,,,,,,,,,,,,,,,,,,,,,
,,1,1.8264,1,1.8264,0,8,8,56,1,78,cookie,rose,,89168,001,2022-04-25_17h11.06.832,SPAMnetsValid,2021.1.4,MacIntel,59.97361161,,,,,,,,,,,,,,,,,,,,,,,,,,,,,,,,,,,,,,,,,,,,,,,,,,,,,,,,,,,,,,,,,,,,,,,,,,,,,,,,,,,,,,,,,
,,2,2.824,2,2.824,0,9,9,36,1,12,cookie,yogurt,,89168,001,2022-04-25_17h11.06.832,SPAMnetsValid,2021.1.4,MacIntel,59.97361161,,,,,,,,,,,,,,,,,,,,,,,,,,,,,,,,,,,,,,,,,,,,,,,,,,,,,,,,,,,,,,,,,,,,,,,,,,,,,,,,,,,,,,,,,
,,8,2.9816,8,2.9816,0,10,10,76,1,36,broom,kitchen,,89168,001,2022-04-25_17h11.06.832,SPAMnetsValid,2021.1.4,MacIntel,59.97361161,,,,,,,,,,,,,,,,,,,,,,,,,,,,,,,,,,,,,,,,,,,,,,,,,,,,,,,,,,,,,,,,,,,,,,,,,,,,,,,,,,,,,,,,,
,,1,1.6571,1,1.6571,0,11,11,61,1,71,broom,rose,,89168,001,2022-04-25_17h11.06.832,SPAMnetsValid,2021.1.4,MacIntel,59.97361161,,,,,,,,,,,,,,,,,,,,,,,,,,,,,,,,,,,,,,,,,,,,,,,,,,,,,,,,,,,,,,,,,,,,,,,,,,,,,,,,,,,,,,,,,
,,9,1.5759,9,1.5759,0,12,12,93,1,63,cake,cookie,,89168,001,2022-04-25_17h11.06.832,SPAMnetsValid,2021.1.4,MacIntel,59.97361161,,,,,,,,,,,,,,,,,,,,,,,,,,,,,,,,,,,,,,,,,,,,,,,,,,,,,,,,,,,,,,,,,,,,,,,,,,,,,,,,,,,,,,,,,
,,4,2.2264,4,2.2264,0,13,13,39,1,15,onion,oven,,89168,001,2022-04-25_17h11.06.832,SPAMnetsValid,2021.1.4,MacIntel,59.97361161,,,,,,,,,,,,,,,,,,,,,,,,,,,,,,,,,,,,,,,,,,,,,,,,,,,,,,,,,,,,,,,,,,,,,,,,,,,,,,,,,,,,,,,,,
,,6,3.1454,6,3.1454,0,14,14,75,1,69,carrot,refrigerator,,89168,001,2022-04-25_17h11.06.832,SPAMnetsValid,2021.1.4,MacIntel,59.97361161,,,,,,,,,,,,,,,,,,,,,,,,,,,,,,,,,,,,,,,,,,,,,,,,,,,,,,,,,,,,,,,,,,,,,,,,,,,,,,,,,,,,,,,,,
,,6,2.698,6,2.698,0,15,15,28,1,84,oven,tomato,,89168,001,2022-04-25_17h11.06.832,SPAMnetsValid,2021.1.4,MacIntel,59.97361161,,,,,,,,,,,,,,,,,,,,,,,,,,,,,,,,,,,,,,,,,,,,,,,,,,,,,,,,,,,,,,,,,,,,,,,,,,,,,,,,,,,,,,,,,
,,3,3.1094,3,3.1094,0,16,16,68,1,24,cookie,tomato,,89168,001,2022-04-25_17h11.06.832,SPAMnetsValid,2021.1.4,MacIntel,59.97361161,,,,,,,,,,,,,,,,,,,,,,,,,,,,,,,,,,,,,,,,,,,,,,,,,,,,,,,,,,,,,,,,,,,,,,,,,,,,,,,,,,,,,,,,,
,,2,9.296,2,9.296,0,17,17,12,1,67,flower,yogurt,,89168,001,2022-04-25_17h11.06.832,SPAMnetsValid,2021.1.4,MacIntel,59.97361161,,,,,,,,,,,,,,,,,,,,,,,,,,,,,,,,,,,,,,,,,,,,,,,,,,,,,,,,,,,,,,,,,,,,,,,,,,,,,,,,,,,,,,,,,
,,2,1.5928,2,1.5928,0,18,18,14,1,64,chocolate,garden,,89168,001,2022-04-25_17h11.06.832,SPAMnetsValid,2021.1.4,MacIntel,59.97361161,,,,,,,,,,,,,,,,,,,,,,,,,,,,,,,,,,,,,,,,,,,,,,,,,,,,,,,,,,,,,,,,,,,,,,,,,,,,,,,,,,,,,,,,,
,,1,1.1767,1,1.1767,0,19,19,1,1,31,cactus,pretzel,,89168,001,2022-04-25_17h11.06.832,SPAMnetsValid,2021.1.4,MacIntel,59.97361161,,,,,,,,,,,,,,,,,,,,,,,,,,,,,,,,,,,,,,,,,,,,,,,,,,,,,,,,,,,,,,,,,,,,,,,,,,,,,,,,,,,,,,,,,
,,2,1.3922,2,1.3922,0,20,20,26,1,35,flower,pretzel,,89168,001,2022-04-25_17h11.06.832,SPAMnetsValid,2021.1.4,MacIntel,59.97361161,,,,,,,,,,,,,,,,,,,,,,,,,,,,,,,,,,,,,,,,,,,,,,,,,,,,,,,,,,,,,,,,,,,,,,,,,,,,,,,,,,,,,,,,,
,,2,2.9774,2,2.9774,0,21,21,55,1,1,rose,yogurt,,89168,001,2022-04-25_17h11.06.832,SPAMnetsValid,2021.1.4,MacIntel,59.97361161,,,,,,,,,,,,,,,,,,,,,,,,,,,,,,,,,,,,,,,,,,,,,,,,,,,,,,,,,,,,,,,,,,,,,,,,,,,,,,,,,,,,,,,,,
,,2,2.2918,2,2.2918,0,22,22,5,1,13,broom,yogurt,,89168,001,2022-04-25_17h11.06.832,SPAMnetsValid,2021.1.4,MacIntel,59.97361161,,,,,,,,,,,,,,,,,,,,,,,,,,,,,,,,,,,,,,,,,,,,,,,,,,,,,,,,,,,,,,,,,,,,,,,,,,,,,,,,,,,,,,,,,
,,2,1.1775,2,1.1775,0,23,23,59,1,8,broom,melon,,89168,001,2022-04-25_17h11.06.832,SPAMnetsValid,2021.1.4,MacIntel,59.97361161,,,,,,,,,,,,,,,,,,,,,,,,,,,,,,,,,,,,,,,,,,,,,,,,,,,,,,,,,,,,,,,,,,,,,,,,,,,,,,,,,,,,,,,,,
,,1,2.6625,1,2.6625,0,24,24,25,1,23,flower,microwave,,89168,001,2022-04-25_17h11.06.832,SPAMnetsValid,2021.1.4,MacIntel,59.97361161,,,,,,,,,,,,,,,,,,,,,,,,,,,,,,,,,,,,,,,,,,,,,,,,,,,,,,,,,,,,,,,,,,,,,,,,,,,,,,,,,,,,,,,,,
,,5,7.1943,5,7.1943,0,25,25,62,1,18,onion,refrigerator,,89168,001,2022-04-25_17h11.06.832,SPAMnetsValid,2021.1.4,MacIntel,59.97361161,,,,,,,,,,,,,,,,,,,,,,,,,,,,,,,,,,,,,,,,,,,,,,,,,,,,,,,,,,,,,,,,,,,,,,,,,,,,,,,,,,,,,,,,,
,,3,38.4328,3,38.4328,0,26,26,8,1,43,chocolate,tomato,,89168,001,2022-04-25_17h11.06.832,SPAMnetsValid,2021.1.4,MacIntel,59.97361161,,,,,,,,,,,,,,,,,,,,,,,,,,,,,,,,,,,,,,,,,,,,,,,,,,,,,,,,,,,,,,,,,,,,,,,,,,,,,,,,,,,,,,,,,
,,1,2.4605,1,2.4605,0,27,27,70,1,5,oven,tree,,89168,001,2022-04-25_17h11.06.832,SPAMnetsValid,2021.1.4,MacIntel,59.97361161,,,,,,,,,,,,,,,,,,,,,,,,,,,,,,,,,,,,,,,,,,,,,,,,,,,,,,,,,,,,,,,,,,,,,,,,,,,,,,,,,,,,,,,,,
,,7,1.6245,7,1.6245,0,28,28,42,1,77,refrigerator,yogurt,,89168,001,2022-04-25_17h11.06.832,SPAMnetsValid,2021.1.4,MacIntel,59.97361161,,,,,,,,,,,,,,,,,,,,,,,,,,,,,,,,,,,,,,,,,,,,,,,,,,,,,,,,,,,,,,,,,,,,,,,,,,,,,,,,,,,,,,,,,
,,1,1.7762,1,1.7762,0,29,29,79,1,86,oven,rose,,89168,001,2022-04-25_17h11.06.832,SPAMnetsValid,2021.1.4,MacIntel,59.97361161,,,,,,,,,,,,,,,,,,,,,,,,,,,,,,,,,,,,,,,,,,,,,,,,,,,,,,,,,,,,,,,,,,,,,,,,,,,,,,,,,,,,,,,,,
,,3,2.2607,3,2.2607,0,30,30,13,1,26,tomato,yogurt,,89168,001,2022-04-25_17h11.06.832,SPAMnetsValid,2021.1.4,MacIntel,59.97361161,,,,,,,,,,,,,,,,,,,,,,,,,,,,,,,,,,,,,,,,,,,,,,,,,,,,,,,,,,,,,,,,,,,,,,,,,,,,,,,,,,,,,,,,,
,,1,1.6124,1,1.6124,0,31,31,47,1,73,broom,chocolate,,89168,001,2022-04-25_17h11.06.832,SPAMnetsValid,2021.1.4,MacIntel,59.97361161,,,,,,,,,,,,,,,,,,,,,,,,,,,,,,,,,,,,,,,,,,,,,,,,,,,,,,,,,,,,,,,,,,,,,,,,,,,,,,,,,,,,,,,,,
,,5,1.96,5,1.96,0,32,32,50,1,81,pretzel,yogurt,,89168,001,2022-04-25_17h11.06.832,SPAMnetsValid,2021.1.4,MacIntel,59.97361161,,,,,,,,,,,,,,,,,,,,,,,,,,,,,,,,,,,,,,,,,,,,,,,,,,,,,,,,,,,,,,,,,,,,,,,,,,,,,,,,,,,,,,,,,
,,9,1.6441,9,1.6441,0,33,33,53,1,192,microwave,microwave,CHECK,89168,001,2022-04-25_17h11.06.832,SPAMnetsValid,2021.1.4,MacIntel,59.97361161,,,,,,,,,,,,,,,,,,,,,,,,,,,,,,,,,,,,,,,,,,,,,,,,,,,,,,,,,,,,,,,,,,,,,,,,,,,,,,,,,,,,,,,,,
,,1,1.577,1,1.577,0,34,34,46,1,41,broom,cactus,,89168,001,2022-04-25_17h11.06.832,SPAMnetsValid,2021.1.4,MacIntel,59.97361161,,,,,,,,,,,,,,,,,,,,,,,,,,,,,,,,,,,,,,,,,,,,,,,,,,,,,,,,,,,,,,,,,,,,,,,,,,,,,,,,,,,,,,,,,
,,8,1.6432,8,1.6432,0,35,35,44,1,25,carrot,onion,,89168,001,2022-04-25_17h11.06.832,SPAMnetsValid,2021.1.4,MacIntel,59.97361161,,,,,,,,,,,,,,,,,,,,,,,,,,,,,,,,,,,,,,,,,,,,,,,,,,,,,,,,,,,,,,,,,,,,,,,,,,,,,,,,,,,,,,,,,
,,2,2.0949,2,2.0949,0,36,36,49,1,57,flower,kitchen,,89168,001,2022-04-25_17h11.06.832,SPAMnetsValid,2021.1.4,MacIntel,59.97361161,,,,,,,,,,,,,,,,,,,,,,,,,,,,,,,,,,,,,,,,,,,,,,,,,,,,,,,,,,,,,,,,,,,,,,,,,,,,,,,,,,,,,,,,,
,,3,1.746,3,1.746,0,37,37,67,1,54,chocolate,yogurt,,89168,001,2022-04-25_17h11.06.832,SPAMnetsValid,2021.1.4,MacIntel,59.97361161,,,,,,,,,,,,,,,,,,,,,,,,,,,,,,,,,,,,,,,,,,,,,,,,,,,,,,,,,,,,,,,,,,,,,,,,,,,,,,,,,,,,,,,,,
,,4,1.4264,4,1.4264,0,38,38,54,1,28,cake,melon,,89168,001,2022-04-25_17h11.06.832,SPAMnetsValid,2021.1.4,MacIntel,59.97361161,,,,,,,,,,,,,,,,,,,,,,,,,,,,,,,,,,,,,,,,,,,,,,,,,,,,,,,,,,,,,,,,,,,,,,,,,,,,,,,,,,,,,,,,,
,,2,2.3969,2,2.3969,0,39,39,90,1,95,broom,refrigerator,,89168,001,2022-04-25_17h11.06.832,SPAMnetsValid,2021.1.4,MacIntel,59.97361161,,,,,,,,,,,,,,,,,,,,,,,,,,,,,,,,,,,,,,,,,,,,,,,,,,,,,,,,,,,,,,,,,,,,,,,,,,,,,,,,,,,,,,,,,
,,1,1.6768,1,1.6768,0,40,40,16,1,14,broom,cookie,,89168,001,2022-04-25_17h11.06.832,SPAMnetsValid,2021.1.4,MacIntel,59.97361161,,,,,,,,,,,,,,,,,,,,,,,,,,,,,,,,,,,,,,,,,,,,,,,,,,,,,,,,,,,,,,,,,,,,,,,,,,,,,,,,,,,,,,,,,
,,3,4.6823,3,4.6823,0,41,41,48,1,66,melon,yogurt,,89168,001,2022-04-25_17h11.06.832,SPAMnetsValid,2021.1.4,MacIntel,59.97361161,,,,,,,,,,,,,,,,,,,,,,,,,,,,,,,,,,,,,,,,,,,,,,,,,,,,,,,,,,,,,,,,,,,,,,,,,,,,,,,,,,,,,,,,,
,,1,1.5425,1,1.5425,0,42,42,84,1,91,microwave,rose,,89168,001,2022-04-25_17h11.06.832,SPAMnetsValid,2021.1.4,MacIntel,59.97361161,,,,,,,,,,,,,,,,,,,,,,,,,,,,,,,,,,,,,,,,,,,,,,,,,,,,,,,,,,,,,,,,,,,,,,,,,,,,,,,,,,,,,,,,,
,,8,3.1285,8,3.1285,0,43,43,66,1,20,rose,tree,,89168,001,2022-04-25_17h11.06.832,SPAMnetsValid,2021.1.4,MacIntel,59.97361161,,,,,,,,,,,,,,,,,,,,,,,,,,,,,,,,,,,,,,,,,,,,,,,,,,,,,,,,,,,,,,,,,,,,,,,,,,,,,,,,,,,,,,,,,
,,4,3.0442,4,3.0442,0,44,44,63,1,21,cake,onion,,89168,001,2022-04-25_17h11.06.832,SPAMnetsValid,2021.1.4,MacIntel,59.97361161,,,,,,,,,,,,,,,,,,,,,,,,,,,,,,,,,,,,,,,,,,,,,,,,,,,,,,,,,,,,,,,,,,,,,,,,,,,,,,,,,,,,,,,,,
,,4,1.6257,4,1.6257,0,45,45,74,1,70,chocolate,onion,,89168,001,2022-04-25_17h11.06.832,SPAMnetsValid,2021.1.4,MacIntel,59.97361161,,,,,,,,,,,,,,,,,,,,,,,,,,,,,,,,,,,,,,,,,,,,,,,,,,,,,,,,,,,,,,,,,,,,,,,,,,,,,,,,,,,,,,,,,
,,6,2.3277,6,2.3277,0,46,46,95,1,52,carrot,tomato,,89168,001,2022-04-25_17h11.06.832,SPAMnetsValid,2021.1.4,MacIntel,59.97361161,,,,,,,,,,,,,,,,,,,,,,,,,,,,,,,,,,,,,,,,,,,,,,,,,,,,,,,,,,,,,,,,,,,,,,,,,,,,,,,,,,,,,,,,,
,,6,0.9097,6,0.9097,0,47,47,35,1,55,tomato,tree,,89168,001,2022-04-25_17h11.06.832,SPAMnetsValid,2021.1.4,MacIntel,59.97361161,,,,,,,,,,,,,,,,,,,,,,,,,,,,,,,,,,,,,,,,,,,,,,,,,,,,,,,,,,,,,,,,,,,,,,,,,,,,,,,,,,,,,,,,,
,,3,2.561,3,2.561,0,48,48,9,1,75,cookie,onion,,89168,001,2022-04-25_17h11.06.832,SPAMnetsValid,2021.1.4,MacIntel,59.97361161,,,,,,,,,,,,,,,,,,,,,,,,,,,,,,,,,,,,,,,,,,,,,,,,,,,,,,,,,,,,,,,,,,,,,,,,,,,,,,,,,,,,,,,,,
,,7,3.23,7,3.23,0,49,49,91,1,2,kitchen,onion,,89168,001,2022-04-25_17h11.06.832,SPAMnetsValid,2021.1.4,MacIntel,59.97361161,,,,,,,,,,,,,,,,,,,,,,,,,,,,,,,,,,,,,,,,,,,,,,,,,,,,,,,,,,,,,,,,,,,,,,,,,,,,,,,,,,,,,,,,,
,,4,2.2939,4,2.2939,0,50,50,86,1,51,onion,strawberry,,89168,001,2022-04-25_17h11.06.832,SPAMnetsValid,2021.1.4,MacIntel,59.97361161,,,,,,,,,,,,,,,,,,,,,,,,,,,,,,,,,,,,,,,,,,,,,,,,,,,,,,,,,,,,,,,,,,,,,,,,,,,,,,,,,,,,,,,,,
,,9,2.2605,9,2.2605,0,51,51,19,1,76,garden,rose,,89168,001,2022-04-25_17h11.06.832,SPAMnetsValid,2021.1.4,MacIntel,59.97361161,,,,,,,,,,,,,,,,,,,,,,,,,,,,,,,,,,,,,,,,,,,,,,,,,,,,,,,,,,,,,,,,,,,,,,,,,,,,,,,,,,,,,,,,,
,,9,1.2768,9,1.2768,0,52,52,21,1,56,cactus,tree,,89168,001,2022-04-25_17h11.06.832,SPAMnetsValid,2021.1.4,MacIntel,59.97361161,,,,,,,,,,,,,,,,,,,,,,,,,,,,,,,,,,,,,,,,,,,,,,,,,,,,,,,,,,,,,,,,,,,,,,,,,,,,,,,,,,,,,,,,,
,,2,1.7107,2,1.7107,0,53,53,40,1,74,broom,pretzel,,89168,001,2022-04-25_17h11.06.832,SPAMnetsValid,2021.1.4,MacIntel,59.97361161,,,,,,,,,,,,,,,,,,,,,,,,,,,,,,,,,,,,,,,,,,,,,,,,,,,,,,,,,,,,,,,,,,,,,,,,,,,,,,,,,,,,,,,,,
,,2,1.062,2,1.062,0,54,54,69,1,45,onion,pretzel,,89168,001,2022-04-25_17h11.06.832,SPAMnetsValid,2021.1.4,MacIntel,59.97361161,,,,,,,,,,,,,,,,,,,,,,,,,,,,,,,,,,,,,,,,,,,,,,,,,,,,,,,,,,,,,,,,,,,,,,,,,,,,,,,,,,,,,,,,,
,,2,0.6429,2,0.6429,0,55,55,20,1,39,melon,pretzel,,89168,001,2022-04-25_17h11.06.832,SPAMnetsValid,2021.1.4,MacIntel,59.97361161,,,,,,,,,,,,,,,,,,,,,,,,,,,,,,,,,,,,,,,,,,,,,,,,,,,,,,,,,,,,,,,,,,,,,,,,,,,,,,,,,,,,,,,,,
,,3,0.5772,3,0.5772,0,56,56,41,1,19,microwave,pretzel,,89168,001,2022-04-25_17h11.06.832,SPAMnetsValid,2021.1.4,MacIntel,59.97361161,,,,,,,,,,,,,,,,,,,,,,,,,,,,,,,,,,,,,,,,,,,,,,,,,,,,,,,,,,,,,,,,,,,,,,,,,,,,,,,,,,,,,,,,,
,,4,0.4603,4,0.4603,0,57,57,23,1,65,broom,garden,,89168,001,2022-04-25_17h11.06.832,SPAMnetsValid,2021.1.4,MacIntel,59.97361161,,,,,,,,,,,,,,,,,,,,,,,,,,,,,,,,,,,,,,,,,,,,,,,,,,,,,,,,,,,,,,,,,,,,,,,,,,,,,,,,,,,,,,,,,
,,1,0.5101,1,0.5101,0,58,58,18,1,85,cake,tree,,89168,001,2022-04-25_17h11.06.832,SPAMnetsValid,2021.1.4,MacIntel,59.97361161,,,,,,,,,,,,,,,,,,,,,,,,,,,,,,,,,,,,,,,,,,,,,,,,,,,,,,,,,,,,,,,,,,,,,,,,,,,,,,,,,,,,,,,,,
,,2,0.5761,2,0.5761,0,59,59,88,1,92,broom,flower,,89168,001,2022-04-25_17h11.06.832,SPAMnetsValid,2021.1.4,MacIntel,59.97361161,,,,,,,,,,,,,,,,,,,,,,,,,,,,,,,,,,,,,,,,,,,,,,,,,,,,,,,,,,,,,,,,,,,,,,,,,,,,,,,,,,,,,,,,,
,,9,1.9599,9,1.9599,0,60,60,82,1,93,kitchen,oven,,89168,001,2022-04-25_17h11.06.832,SPAMnetsValid,2021.1.4,MacIntel,59.97361161,,,,,,,,,,,,,,,,,,,,,,,,,,,,,,,,,,,,,,,,,,,,,,,,,,,,,,,,,,,,,,,,,,,,,,,,,,,,,,,,,,,,,,,,,
,,6,2.2283,6,2.2283,0,61,61,33,1,32,cake,microwave,,89168,001,2022-04-25_17h11.06.832,SPAMnetsValid,2021.1.4,MacIntel,59.97361161,,,,,,,,,,,,,,,,,,,,,,,,,,,,,,,,,,,,,,,,,,,,,,,,,,,,,,,,,,,,,,,,,,,,,,,,,,,,,,,,,,,,,,,,,
,,6,1.6598,6,1.6598,0,62,62,57,1,62,kitchen,rose,,89168,001,2022-04-25_17h11.06.832,SPAMnetsValid,2021.1.4,MacIntel,59.97361161,,,,,,,,,,,,,,,,,,,,,,,,,,,,,,,,,,,,,,,,,,,,,,,,,,,,,,,,,,,,,,,,,,,,,,,,,,,,,,,,,,,,,,,,,
,,5,0.4407,5,0.4407,0,63,63,71,1,38,pretzel,refrigerator,,89168,001,2022-04-25_17h11.06.832,SPAMnetsValid,2021.1.4,MacIntel,59.97361161,,,,,,,,,,,,,,,,,,,,,,,,,,,,,,,,,,,,,,,,,,,,,,,,,,,,,,,,,,,,,,,,,,,,,,,,,,,,,,,,,,,,,,,,,
,,4,0.4573,4,0.4573,0,64,64,52,1,4,chocolate,pretzel,,89168,001,2022-04-25_17h11.06.832,SPAMnetsValid,2021.1.4,MacIntel,59.97361161,,,,,,,,,,,,,,,,,,,,,,,,,,,,,,,,,,,,,,,,,,,,,,,,,,,,,,,,,,,,,,,,,,,,,,,,,,,,,,,,,,,,,,,,,
,,5,0.5095,5,0.5095,0,65,65,11,1,37,garden,refrigerator,,89168,001,2022-04-25_17h11.06.832,SPAMnetsValid,2021.1.4,MacIntel,59.97361161,,,,,,,,,,,,,,,,,,,,,,,,,,,,,,,,,,,,,,,,,,,,,,,,,,,,,,,,,,,,,,,,,,,,,,,,,,,,,,,,,,,,,,,,,
,,2,0.4758,2,0.4758,0,66,66,24,1,17,carrot,melon,,89168,001,2022-04-25_17h11.06.832,SPAMnetsValid,2021.1.4,MacIntel,59.97361161,,,,,,,,,,,,,,,,,,,,,,,,,,,,,,,,,,,,,,,,,,,,,,,,,,,,,,,,,,,,,,,,,,,,,,,,,,,,,,,,,,,,,,,,,
,,6,1.4102,6,1.4102,0,67,67,60,1,89,chocolate,rose,,89168,001,2022-04-25_17h11.06.832,SPAMnetsValid,2021.1.4,MacIntel,59.97361161,,,,,,,,,,,,,,,,,,,,,,,,,,,,,,,,,,,,,,,,,,,,,,,,,,,,,,,,,,,,,,,,,,,,,,,,,,,,,,,,,,,,,,,,,
,,5,0.4753,5,0.4753,0,68,68,4,1,83,broom,carrot,,89168,001,2022-04-25_17h11.06.832,SPAMnetsValid,2021.1.4,MacIntel,59.97361161,,,,,,,,,,,,,,,,,,,,,,,,,,,,,,,,,,,,,,,,,,,,,,,,,,,,,,,,,,,,,,,,,,,,,,,,,,,,,,,,,,,,,,,,,
,,4,1.3265,4,1.3265,0,69,69,15,1,48,flower,oven,,89168,001,2022-04-25_17h11.06.832,SPAMnetsValid,2021.1.4,MacIntel,59.97361161,,,,,,,,,,,,,,,,,,,,,,,,,,,,,,,,,,,,,,,,,,,,,,,,,,,,,,,,,,,,,,,,,,,,,,,,,,,,,,,,,,,,,,,,,
,,3,0.5432,3,0.5432,0,70,70,77,1,7,melon,tree,,89168,001,2022-04-25_17h11.06.832,SPAMnetsValid,2021.1.4,MacIntel,59.97361161,,,,,,,,,,,,,,,,,,,,,,,,,,,,,,,,,,,,,,,,,,,,,,,,,,,,,,,,,,,,,,,,,,,,,,,,,,,,,,,,,,,,,,,,,
,,6,0.5773,6,0.5773,0,71,71,81,1,60,cactus,onion,,89168,001,2022-04-25_17h11.06.832,SPAMnetsValid,2021.1.4,MacIntel,59.97361161,,,,,,,,,,,,,,,,,,,,,,,,,,,,,,,,,,,,,,,,,,,,,,,,,,,,,,,,,,,,,,,,,,,,,,,,,,,,,,,,,,,,,,,,,
,,5,0.6415,5,0.6415,0,72,72,73,1,50,carrot,rose,,89168,001,2022-04-25_17h11.06.832,SPAMnetsValid,2021.1.4,MacIntel,59.97361161,,,,,,,,,,,,,,,,,,,,,,,,,,,,,,,,,,,,,,,,,,,,,,,,,,,,,,,,,,,,,,,,,,,,,,,,,,,,,,,,,,,,,,,,,
,,4,0.5096,4,0.5096,0,73,73,7,1,34,melon,oven,,89168,001,2022-04-25_17h11.06.832,SPAMnetsValid,2021.1.4,MacIntel,59.97361161,,,,,,,,,,,,,,,,,,,,,,,,,,,,,,,,,,,,,,,,,,,,,,,,,,,,,,,,,,,,,,,,,,,,,,,,,,,,,,,,,,,,,,,,,
,,2,1.8752,2,1.8752,0,74,74,85,1,90,cactus,cake,,89168,001,2022-04-25_17h11.06.832,SPAMnetsValid,2021.1.4,MacIntel,59.97361161,,,,,,,,,,,,,,,,,,,,,,,,,,,,,,,,,,,,,,,,,,,,,,,,,,,,,,,,,,,,,,,,,,,,,,,,,,,,,,,,,,,,,,,,,
,,2,0.776,2,0.776,0,75,75,38,1,88,cactus,melon,,89168,001,2022-04-25_17h11.06.832,SPAMnetsValid,2021.1.4,MacIntel,59.97361161,,,,,,,,,,,,,,,,,,,,,,,,,,,,,,,,,,,,,,,,,,,,,,,,,,,,,,,,,,,,,,,,,,,,,,,,,,,,,,,,,,,,,,,,,
,,3,0.6107,3,0.6107,0,76,76,3,1,49,flower,strawberry,,89168,001,2022-04-25_17h11.06.832,SPAMnetsValid,2021.1.4,MacIntel,59.97361161,,,,,,,,,,,,,,,,,,,,,,,,,,,,,,,,,,,,,,,,,,,,,,,,,,,,,,,,,,,,,,,,,,,,,,,,,,,,,,,,,,,,,,,,,
,,2,1.1267,2,1.1267,0,77,77,2,1,22,kitchen,strawberry,,89168,001,2022-04-25_17h11.06.832,SPAMnetsValid,2021.1.4,MacIntel,59.97361161,,,,,,,,,,,,,,,,,,,,,,,,,,,,,,,,,,,,,,,,,,,,,,,,,,,,,,,,,,,,,,,,,,,,,,,,,,,,,,,,,,,,,,,,,
,,9,1.794,9,1.794,0,78,78,10,1,191,cake,cake,CHECK,89168,001,2022-04-25_17h11.06.832,SPAMnetsValid,2021.1.4,MacIntel,59.97361161,,,,,,,,,,,,,,,,,,,,,,,,,,,,,,,,,,,,,,,,,,,,,,,,,,,,,,,,,,,,,,,,,,,,,,,,,,,,,,,,,,,,,,,,,
,,8,3.6914,8,3.6914,0,79,79,89,1,80,chocolate,tree,,89168,001,2022-04-25_17h11.06.832,SPAMnetsValid,2021.1.4,MacIntel,59.97361161,,,,,,,,,,,,,,,,,,,,,,,,,,,,,,,,,,,,,,,,,,,,,,,,,,,,,,,,,,,,,,,,,,,,,,,,,,,,,,,,,,,,,,,,,
,,3,2.0085,3,2.0085,0,80,80,37,1,58,garden,oven,,89168,001,2022-04-25_17h11.06.832,SPAMnetsValid,2021.1.4,MacIntel,59.97361161,,,,,,,,,,,,,,,,,,,,,,,,,,,,,,,,,,,,,,,,,,,,,,,,,,,,,,,,,,,,,,,,,,,,,,,,,,,,,,,,,,,,,,,,,
,,3,0.9946,3,0.9946,0,81,81,80,1,61,strawberry,tomato,,89168,001,2022-04-25_17h11.06.832,SPAMnetsValid,2021.1.4,MacIntel,59.97361161,,,,,,,,,,,,,,,,,,,,,,,,,,,,,,,,,,,,,,,,,,,,,,,,,,,,,,,,,,,,,,,,,,,,,,,,,,,,,,,,,,,,,,,,,
,,3,1.976,3,1.976,0,82,82,65,1,46,garden,yogurt,,89168,001,2022-04-25_17h11.06.832,SPAMnetsValid,2021.1.4,MacIntel,59.97361161,,,,,,,,,,,,,,,,,,,,,,,,,,,,,,,,,,,,,,,,,,,,,,,,,,,,,,,,,,,,,,,,,,,,,,,,,,,,,,,,,,,,,,,,,
,,4,0.7097,4,0.7097,0,83,83,58,1,94,kitchen,microwave,,89168,001,2022-04-25_17h11.06.832,SPAMnetsValid,2021.1.4,MacIntel,59.97361161,,,,,,,,,,,,,,,,,,,,,,,,,,,,,,,,,,,,,,,,,,,,,,,,,,,,,,,,,,,,,,,,,,,,,,,,,,,,,,,,,,,,,,,,,
,,3,1.0776,3,1.0776,0,84,84,96,1,82,cake,kitchen,,89168,001,2022-04-25_17h11.06.832,SPAMnetsValid,2021.1.4,MacIntel,59.97361161,,,,,,,,,,,,,,,,,,,,,,,,,,,,,,,,,,,,,,,,,,,,,,,,,,,,,,,,,,,,,,,,,,,,,,,,,,,,,,,,,,,,,,,,,
,,7,1.8617,7,1.8617,0,85,85,22,1,16,chocolate,flower,,89168,001,2022-04-25_17h11.06.832,SPAMnetsValid,2021.1.4,MacIntel,59.97361161,,,,,,,,,,,,,,,,,,,,,,,,,,,,,,,,,,,,,,,,,,,,,,,,,,,,,,,,,,,,,,,,,,,,,,,,,,,,,,,,,,,,,,,,,
,,3,2.1787,3,2.1787,0,86,86,32,1,40,broom,cake,,89168,001,2022-04-25_17h11.06.832,SPAMnetsValid,2021.1.4,MacIntel,59.97361161,,,,,,,,,,,,,,,,,,,,,,,,,,,,,,,,,,,,,,,,,,,,,,,,,,,,,,,,,,,,,,,,,,,,,,,,,,,,,,,,,,,,,,,,,
,,4,2.5928,4,2.5928,0,87,87,31,1,33,oven,yogurt,,89168,001,2022-04-25_17h11.06.832,SPAMnetsValid,2021.1.4,MacIntel,59.97361161,,,,,,,,,,,,,,,,,,,,,,,,,,,,,,,,,,,,,,,,,,,,,,,,,,,,,,,,,,,,,,,,,,,,,,,,,,,,,,,,,,,,,,,,,
,,3,2.9771,3,2.9771,0,88,88,6,1,87,carrot,yogurt,,89168,001,2022-04-25_17h11.06.832,SPAMnetsValid,2021.1.4,MacIntel,59.97361161,,,,,,,,,,,,,,,,,,,,,,,,,,,,,,,,,,,,,,,,,,,,,,,,,,,,,,,,,,,,,,,,,,,,,,,,,,,,,,,,,,,,,,,,,
,,7,2.0267,7,2.0267,0,89,89,51,1,47,onion,tomato,,89168,001,2022-04-25_17h11.06.832,SPAMnetsValid,2021.1.4,MacIntel,59.97361161,,,,,,,,,,,,,,,,,,,,,,,,,,,,,,,,,,,,,,,,,,,,,,,,,,,,,,,,,,,,,,,,,,,,,,,,,,,,,,,,,,,,,,,,,
,,1,1.2263,1,1.2263,0,90,90,34,1,29,chocolate,melon,,89168,001,2022-04-25_17h11.06.832,SPAMnetsValid,2021.1.4,MacIntel,59.97361161,,,,,,,,,,,,,,,,,,,,,,,,,,,,,,,,,,,,,,,,,,,,,,,,,,,,,,,,,,,,,,,,,,,,,,,,,,,,,,,,,,,,,,,,,
,,8,1.2601,8,1.2601,0,91,91,45,1,10,flower,onion,,89168,001,2022-04-25_17h11.06.832,SPAMnetsValid,2021.1.4,MacIntel,59.97361161,,,,,,,,,,,,,,,,,,,,,,,,,,,,,,,,,,,,,,,,,,,,,,,,,,,,,,,,,,,,,,,,,,,,,,,,,,,,,,,,,,,,,,,,,
,,7,1.1424,7,1.1424,0,92,92,87,1,79,garden,strawberry,,89168,001,2022-04-25_17h11.06.832,SPAMnetsValid,2021.1.4,MacIntel,59.97361161,,,,,,,,,,,,,,,,,,,,,,,,,,,,,,,,,,,,,,,,,,,,,,,,,,,,,,,,,,,,,,,,,,,,,,,,,,,,,,,,,,,,,,,,,
,,9,2.2125,9,2.2125,0,93,93,64,1,9,kitchen,refrigerator,,89168,001,2022-04-25_17h11.06.832,SPAMnetsValid,2021.1.4,MacIntel,59.97361161,,,,,,,,,,,,,,,,,,,,,,,,,,,,,,,,,,,,,,,,,,,,,,,,,,,,,,,,,,,,,,,,,,,,,,,,,,,,,,,,,,,,,,,,,
,,9,0.8112,9,0.8112,0,94,94,29,1,42,garden,kitchen,,89168,001,2022-04-25_17h11.06.832,SPAMnetsValid,2021.1.4,MacIntel,59.97361161,,,,,,,,,,,,,,,,,,,,,,,,,,,,,,,,,,,,,,,,,,,,,,,,,,,,,,,,,,,,,,,,,,,,,,,,,,,,,,,,,,,,,,,,,
,,9,0.8951,9,0.8951,0,95,95,83,1,6,garden,onion,,89168,001,2022-04-25_17h11.06.832,SPAMnetsValid,2021.1.4,MacIntel,59.97361161,,,,,,,,,,,,,,,,,,,,,,,,,,,,,,,,,,,,,,,,,,,,,,,,,,,,,,,,,,,,,,,,,,,,,,,,,,,,,,,,,,,,,,,,,
,,1,2.0607,1,2.0607,0,96,96,78,1,30,cookie,pretzel,,89168,001,2022-04-25_17h11.06.832,SPAMnetsValid,2021.1.4,MacIntel,59.97361161,,,,,,,,,,,,,,,,,,,,,,,,,,,,,,,,,,,,,,,,,,,,,,,,,,,,,,,,,,,,,,,,,,,,,,,,,,,,,,,,,,,,,,,,,
,,,,,,,,,,,,,,,89168,001,2022-04-25_17h11.06.832,SPAMnetsValid,2021.1.4,MacIntel,59.97361161,0,0,0,0,1,,,,,,,,,,,,,,,,,,,,,,,,,,,,,,,,,,,,,,,,,,,,,,,,,,,,,,,,,,,,,,,,,,,,,,,,,,,,,,,,,,,,
,,,,,,,,,,,,,,,89168,001,2022-04-25_17h11.06.832,SPAMnetsValid,2021.1.4,MacIntel,59.97361161,,,,,,0,0,0,0,1,1,0,,,,,,,,,,,,,,,,,,,,,,,,,,,,,,,,,,,,,,,,,,,,,,,,,,,,,,,,,,,,,,,,,,,,,,,,,,,,,
,,,,7,5.0358,,,,,,141,melon,tomato,,89168,001,2022-04-25_17h11.06.832,SPAMnetsValid,2021.1.4,MacIntel,59.97361161,,,,,,,,,,,,,7,5.0358,0,0,0,70,1,,,,,,,,,,,,,,,,,,,,,,,,,,,,,,,,,,,,,,,,,,,,,,,,,,,,,,,,,,,,,,,,,,,,,,
,,,,8,2.0917,,,,,,188,flower,tree,,89168,001,2022-04-25_17h11.06.832,SPAMnetsValid,2021.1.4,MacIntel,59.97361161,,,,,,,,,,,,,8,2.0917,0,1,1,7,1,,,,,,,,,,,,,,,,,,,,,,,,,,,,,,,,,,,,,,,,,,,,,,,,,,,,,,,,,,,,,,,,,,,,,,
,,,,3,2.174,,,,,,175,melon,onion,,89168,001,2022-04-25_17h11.06.832,SPAMnetsValid,2021.1.4,MacIntel,59.97361161,,,,,,,,,,,,,3,2.174,0,2,2,41,1,,,,,,,,,,,,,,,,,,,,,,,,,,,,,,,,,,,,,,,,,,,,,,,,,,,,,,,,,,,,,,,,,,,,,,
,,,,3,0.7422,,,,,,139,carrot,strawberry,,89168,001,2022-04-25_17h11.06.832,SPAMnetsValid,2021.1.4,MacIntel,59.97361161,,,,,,,,,,,,,3,0.7422,0,3,3,37,1,,,,,,,,,,,,,,,,,,,,,,,,,,,,,,,,,,,,,,,,,,,,,,,,,,,,,,,,,,,,,,,,,,,,,,
,,,,7,1.5267,,,,,,134,carrot,flower,,89168,001,2022-04-25_17h11.06.832,SPAMnetsValid,2021.1.4,MacIntel,59.97361161,,,,,,,,,,,,,7,1.5267,0,4,4,93,1,,,,,,,,,,,,,,,,,,,,,,,,,,,,,,,,,,,,,,,,,,,,,,,,,,,,,,,,,,,,,,,,,,,,,,
,,,,2,1.5411,,,,,,182,flower,refrigerator,,89168,001,2022-04-25_17h11.06.832,SPAMnetsValid,2021.1.4,MacIntel,59.97361161,,,,,,,,,,,,,2,1.5411,0,5,5,32,1,,,,,,,,,,,,,,,,,,,,,,,,,,,,,,,,,,,,,,,,,,,,,,,,,,,,,,,,,,,,,,,,,,,,,,
,,,,4,2.4783,,,,,,140,cookie,refrigerator,,89168,001,2022-04-25_17h11.06.832,SPAMnetsValid,2021.1.4,MacIntel,59.97361161,,,,,,,,,,,,,4,2.4783,0,6,6,89,1,,,,,,,,,,,,,,,,,,,,,,,,,,,,,,,,,,,,,,,,,,,,,,,,,,,,,,,,,,,,,,,,,,,,,,
,,,,5,1.8275,,,,,,173,kitchen,tomato,,89168,001,2022-04-25_17h11.06.832,SPAMnetsValid,2021.1.4,MacIntel,59.97361161,,,,,,,,,,,,,5,1.8275,0,7,7,1,1,,,,,,,,,,,,,,,,,,,,,,,,,,,,,,,,,,,,,,,,,,,,,,,,,,,,,,,,,,,,,,,,,,,,,,
,,,,5,0.8765,,,,,,113,refrigerator,strawberry,,89168,001,2022-04-25_17h11.06.832,SPAMnetsValid,2021.1.4,MacIntel,59.97361161,,,,,,,,,,,,,5,0.8765,0,8,8,56,1,,,,,,,,,,,,,,,,,,,,,,,,,,,,,,,,,,,,,,,,,,,,,,,,,,,,,,,,,,,,,,,,,,,,,,
,,,,1,1.9435,,,,,,146,pretzel,tree,,89168,001,2022-04-25_17h11.06.832,SPAMnetsValid,2021.1.4,MacIntel,59.97361161,,,,,,,,,,,,,1,1.9435,0,9,9,80,1,,,,,,,,,,,,,,,,,,,,,,,,,,,,,,,,,,,,,,,,,,,,,,,,,,,,,,,,,,,,,,,,,,,,,,
,,,,2,1.3598,,,,,,129,cactus,refrigerator,,89168,001,2022-04-25_17h11.06.832,SPAMnetsValid,2021.1.4,MacIntel,59.97361161,,,,,,,,,,,,,2,1.3598,0,10,10,3,1,,,,,,,,,,,,,,,,,,,,,,,,,,,,,,,,,,,,,,,,,,,,,,,,,,,,,,,,,,,,,,,,,,,,,,
,,,,2,1.274,,,,,,179,broom,oven,,89168,001,2022-04-25_17h11.06.832,SPAMnetsValid,2021.1.4,MacIntel,59.97361161,,,,,,,,,,,,,2,1.274,0,11,11,45,1,,,,,,,,,,,,,,,,,,,,,,,,,,,,,,,,,,,,,,,,,,,,,,,,,,,,,,,,,,,,,,,,,,,,,,
,,,,7,1.827,,,,,,114,cookie,strawberry,,89168,001,2022-04-25_17h11.06.832,SPAMnetsValid,2021.1.4,MacIntel,59.97361161,,,,,,,,,,,,,7,1.827,0,12,12,87,1,,,,,,,,,,,,,,,,,,,,,,,,,,,,,,,,,,,,,,,,,,,,,,,,,,,,,,,,,,,,,,,,,,,,,,
,,,,2,2.539,,,,,,123,cookie,tree,,89168,001,2022-04-25_17h11.06.832,SPAMnetsValid,2021.1.4,MacIntel,59.97361161,,,,,,,,,,,,,2,2.539,0,13,13,46,1,,,,,,,,,,,,,,,,,,,,,,,,,,,,,,,,,,,,,,,,,,,,,,,,,,,,,,,,,,,,,,,,,,,,,,
,,,,7,2.1608,,,,,,117,melon,strawberry,,89168,001,2022-04-25_17h11.06.832,SPAMnetsValid,2021.1.4,MacIntel,59.97361161,,,,,,,,,,,,,7,2.1608,0,14,14,11,1,,,,,,,,,,,,,,,,,,,,,,,,,,,,,,,,,,,,,,,,,,,,,,,,,,,,,,,,,,,,,,,,,,,,,,
,,,,1,2.7071,,,,,,164,cookie,garden,,89168,001,2022-04-25_17h11.06.832,SPAMnetsValid,2021.1.4,MacIntel,59.97361161,,,,,,,,,,,,,1,2.7071,0,15,15,59,1,,,,,,,,,,,,,,,,,,,,,,,,,,,,,,,,,,,,,,,,,,,,,,,,,,,,,,,,,,,,,,,,,,,,,,
,,,,3,0.508,,,,,,121,broom,microwave,,89168,001,2022-04-25_17h11.06.832,SPAMnetsValid,2021.1.4,MacIntel,59.97361161,,,,,,,,,,,,,3,0.508,0,16,16,95,1,,,,,,,,,,,,,,,,,,,,,,,,,,,,,,,,,,,,,,,,,,,,,,,,,,,,,,,,,,,,,,,,,,,,,,
,,,,4,0.4923,,,,,,184,oven,pretzel,,89168,001,2022-04-25_17h11.06.832,SPAMnetsValid,2021.1.4,MacIntel,59.97361161,,,,,,,,,,,,,4,0.4923,0,17,17,42,1,,,,,,,,,,,,,,,,,,,,,,,,,,,,,,,,,,,,,,,,,,,,,,,,,,,,,,,,,,,,,,,,,,,,,,
,,,,6,0.4597,,,,,,152,cactus,strawberry,,89168,001,2022-04-25_17h11.06.832,SPAMnetsValid,2021.1.4,MacIntel,59.97361161,,,,,,,,,,,,,6,0.4597,0,18,18,49,1,,,,,,,,,,,,,,,,,,,,,,,,,,,,,,,,,,,,,,,,,,,,,,,,,,,,,,,,,,,,,,,,,,,,,,
,,,,4,0.5419,,,,,,166,cake,yogurt,,89168,001,2022-04-25_17h11.06.832,SPAMnetsValid,2021.1.4,MacIntel,59.97361161,,,,,,,,,,,,,4,0.5419,0,19,19,91,1,,,,,,,,,,,,,,,,,,,,,,,,,,,,,,,,,,,,,,,,,,,,,,,,,,,,,,,,,,,,,,,,,,,,,,
,,,,6,0.5424,,,,,,101,cactus,kitchen,,89168,001,2022-04-25_17h11.06.832,SPAMnetsValid,2021.1.4,MacIntel,59.97361161,,,,,,,,,,,,,6,0.5424,0,20,20,54,1,,,,,,,,,,,,,,,,,,,,,,,,,,,,,,,,,,,,,,,,,,,,,,,,,,,,,,,,,,,,,,,,,,,,,,
,,,,3,0.5592,,,,,,147,cake,refrigerator,,89168,001,2022-04-25_17h11.06.832,SPAMnetsValid,2021.1.4,MacIntel,59.97361161,,,,,,,,,,,,,3,0.5592,0,21,21,35,1,,,,,,,,,,,,,,,,,,,,,,,,,,,,,,,,,,,,,,,,,,,,,,,,,,,,,,,,,,,,,,,,,,,,,,
,,,,6,0.5937,,,,,,149,broom,tomato,,89168,001,2022-04-25_17h11.06.832,SPAMnetsValid,2021.1.4,MacIntel,59.97361161,,,,,,,,,,,,,6,0.5937,0,22,22,20,1,,,,,,,,,,,,,,,,,,,,,,,,,,,,,,,,,,,,,,,,,,,,,,,,,,,,,,,,,,,,,,,,,,,,,,
,,,,7,0.5263,,,,,,99,garden,melon,,89168,001,2022-04-25_17h11.06.832,SPAMnetsValid,2021.1.4,MacIntel,59.97361161,,,,,,,,,,,,,7,0.5263,0,23,23,17,1,,,,,,,,,,,,,,,,,,,,,,,,,,,,,,,,,,,,,,,,,,,,,,,,,,,,,,,,,,,,,,,,,,,,,,
,,,,6,0.6098,,,,,,176,cactus,tomato,,89168,001,2022-04-25_17h11.06.832,SPAMnetsValid,2021.1.4,MacIntel,59.97361161,,,,,,,,,,,,,6,0.6098,0,24,24,9,1,,,,,,,,,,,,,,,,,,,,,,,,,,,,,,,,,,,,,,,,,,,,,,,,,,,,,,,,,,,,,,,,,,,,,,
,,,,7,0.4599,,,,,,153,carrot,pretzel,,89168,001,2022-04-25_17h11.06.832,SPAMnetsValid,2021.1.4,MacIntel,59.97361161,,,,,,,,,,,,,7,0.4599,0,25,25,34,1,,,,,,,,,,,,,,,,,,,,,,,,,,,,,,,,,,,,,,,,,,,,,,,,,,,,,,,,,,,,,,,,,,,,,,
,,,,6,0.9273,,,,,,104,garden,microwave,,89168,001,2022-04-25_17h11.06.832,SPAMnetsValid,2021.1.4,MacIntel,59.97361161,,,,,,,,,,,,,6,0.9273,0,26,26,81,1,,,,,,,,,,,,,,,,,,,,,,,,,,,,,,,,,,,,,,,,,,,,,,,,,,,,,,,,,,,,,,,,,,,,,,
,,,,9,1.3047,,,,,,194,cactus,cactus,CHECK,89168,001,2022-04-25_17h11.06.832,SPAMnetsValid,2021.1.4,MacIntel,59.97361161,,,,,,,,,,,,,9,1.3047,0,27,27,25,1,,,,,,,,,,,,,,,,,,,,,,,,,,,,,,,,,,,,,,,,,,,,,,,,,,,,,,,,,,,,,,,,,,,,,,
,,,,2,2.2091,,,,,,126,kitchen,tree,,89168,001,2022-04-25_17h11.06.832,SPAMnetsValid,2021.1.4,MacIntel,59.97361161,,,,,,,,,,,,,2,2.2091,0,28,28,50,1,,,,,,,,,,,,,,,,,,,,,,,,,,,,,,,,,,,,,,,,,,,,,,,,,,,,,,,,,,,,,,,,,,,,,,
,,,,9,1.1932,,,,,,158,cookie,oven,,89168,001,2022-04-25_17h11.06.832,SPAMnetsValid,2021.1.4,MacIntel,59.97361161,,,,,,,,,,,,,9,1.1932,0,29,29,27,1,,,,,,,,,,,,,,,,,,,,,,,,,,,,,,,,,,,,,,,,,,,,,,,,,,,,,,,,,,,,,,,,,,,,,,
,,,,7,1.2424,,,,,,155,carrot,cookie,,89168,001,2022-04-25_17h11.06.832,SPAMnetsValid,2021.1.4,MacIntel,59.97361161,,,,,,,,,,,,,7,1.2424,0,30,30,38,1,,,,,,,,,,,,,,,,,,,,,,,,,,,,,,,,,,,,,,,,,,,,,,,,,,,,,,,,,,,,,,,,,,,,,,
,,,,8,0.6452,,,,,,171,cake,tomato,,89168,001,2022-04-25_17h11.06.832,SPAMnetsValid,2021.1.4,MacIntel,59.97361161,,,,,,,,,,,,,8,0.6452,0,31,31,88,1,,,,,,,,,,,,,,,,,,,,,,,,,,,,,,,,,,,,,,,,,,,,,,,,,,,,,,,,,,,,,,,,,,,,,,
,,,,6,1.0111,,,,,,119,strawberry,tree,,89168,001,2022-04-25_17h11.06.832,SPAMnetsValid,2021.1.4,MacIntel,59.97361161,,,,,,,,,,,,,6,1.0111,0,32,32,18,1,,,,,,,,,,,,,,,,,,,,,,,,,,,,,,,,,,,,,,,,,,,,,,,,,,,,,,,,,,,,,,,,,,,,,,
,,,,3,0.4252,,,,,,178,cactus,carrot,,89168,001,2022-04-25_17h11.06.832,SPAMnetsValid,2021.1.4,MacIntel,59.97361161,,,,,,,,,,,,,3,0.4252,0,33,33,75,1,,,,,,,,,,,,,,,,,,,,,,,,,,,,,,,,,,,,,,,,,,,,,,,,,,,,,,,,,,,,,,,,,,,,,,
,,,,6,0.3616,,,,,,165,onion,rose,,89168,001,2022-04-25_17h11.06.832,SPAMnetsValid,2021.1.4,MacIntel,59.97361161,,,,,,,,,,,,,6,0.3616,0,34,34,40,1,,,,,,,,,,,,,,,,,,,,,,,,,,,,,,,,,,,,,,,,,,,,,,,,,,,,,,,,,,,,,,,,,,,,,,
,,,,7,0.443,,,,,,187,cactus,microwave,,89168,001,2022-04-25_17h11.06.832,SPAMnetsValid,2021.1.4,MacIntel,59.97361161,,,,,,,,,,,,,7,0.443,0,35,35,71,1,,,,,,,,,,,,,,,,,,,,,,,,,,,,,,,,,,,,,,,,,,,,,,,,,,,,,,,,,,,,,,,,,,,,,,
,,,,4,0.5778,,,,,,97,chocolate,kitchen,,89168,001,2022-04-25_17h11.06.832,SPAMnetsValid,2021.1.4,MacIntel,59.97361161,,,,,,,,,,,,,4,0.5778,0,36,36,8,1,,,,,,,,,,,,,,,,,,,,,,,,,,,,,,,,,,,,,,,,,,,,,,,,,,,,,,,,,,,,,,,,,,,,,,
,,,,6,0.5242,,,,,,157,refrigerator,rose,,89168,001,2022-04-25_17h11.06.832,SPAMnetsValid,2021.1.4,MacIntel,59.97361161,,,,,,,,,,,,,6,0.5242,0,37,37,64,1,,,,,,,,,,,,,,,,,,,,,,,,,,,,,,,,,,,,,,,,,,,,,,,,,,,,,,,,,,,,,,,,,,,,,,
,,,,7,0.6278,,,,,,168,cactus,flower,,89168,001,2022-04-25_17h11.06.832,SPAMnetsValid,2021.1.4,MacIntel,59.97361161,,,,,,,,,,,,,7,0.6278,0,38,38,51,1,,,,,,,,,,,,,,,,,,,,,,,,,,,,,,,,,,,,,,,,,,,,,,,,,,,,,,,,,,,,,,,,,,,,,,
,,,,8,0.7094,,,,,,174,cake,pretzel,,89168,001,2022-04-25_17h11.06.832,SPAMnetsValid,2021.1.4,MacIntel,59.97361161,,,,,,,,,,,,,8,0.7094,0,39,39,2,1,,,,,,,,,,,,,,,,,,,,,,,,,,,,,,,,,,,,,,,,,,,,,,,,,,,,,,,,,,,,,,,,,,,,,,
,,,,2,0.5604,,,,,,144,cake,garden,,89168,001,2022-04-25_17h11.06.832,SPAMnetsValid,2021.1.4,MacIntel,59.97361161,,,,,,,,,,,,,2,0.5604,0,40,40,58,1,,,,,,,,,,,,,,,,,,,,,,,,,,,,,,,,,,,,,,,,,,,,,,,,,,,,,,,,,,,,,,,,,,,,,,
,,,,5,0.4044,,,,,,138,flower,rose,,89168,001,2022-04-25_17h11.06.832,SPAMnetsValid,2021.1.4,MacIntel,59.97361161,,,,,,,,,,,,,5,0.4044,0,41,41,61,1,,,,,,,,,,,,,,,,,,,,,,,,,,,,,,,,,,,,,,,,,,,,,,,,,,,,,,,,,,,,,,,,,,,,,,
,,,,5,0.4765,,,,,,127,cactus,chocolate,,89168,001,2022-04-25_17h11.06.832,SPAMnetsValid,2021.1.4,MacIntel,59.97361161,,,,,,,,,,,,,5,0.4765,0,42,42,57,1,,,,,,,,,,,,,,,,,,,,,,,,,,,,,,,,,,,,,,,,,,,,,,,,,,,,,,,,,,,,,,,,,,,,,,
,,,,6,0.5437,,,,,,159,cookie,flower,,89168,001,2022-04-25_17h11.06.832,SPAMnetsValid,2021.1.4,MacIntel,59.97361161,,,,,,,,,,,,,6,0.5437,0,43,43,21,1,,,,,,,,,,,,,,,,,,,,,,,,,,,,,,,,,,,,,,,,,,,,,,,,,,,,,,,,,,,,,,,,,,,,,,
,,,,3,0.4099,,,,,,143,pretzel,rose,,89168,001,2022-04-25_17h11.06.832,SPAMnetsValid,2021.1.4,MacIntel,59.97361161,,,,,,,,,,,,,3,0.4099,0,44,44,55,1,,,,,,,,,,,,,,,,,,,,,,,,,,,,,,,,,,,,,,,,,,,,,,,,,,,,,,,,,,,,,,,,,,,,,,
,,,,2,0.5773,,,,,,109,broom,strawberry,,89168,001,2022-04-25_17h11.06.832,SPAMnetsValid,2021.1.4,MacIntel,59.97361161,,,,,,,,,,,,,2,0.5773,0,45,45,4,1,,,,,,,,,,,,,,,,,,,,,,,,,,,,,,,,,,,,,,,,,,,,,,,,,,,,,,,,,,,,,,,,,,,,,,
,,,,9,1.5425,,,,,,193,melon,melon,CHECK,89168,001,2022-04-25_17h11.06.832,SPAMnetsValid,2021.1.4,MacIntel,59.97361161,,,,,,,,,,,,,9,1.5425,0,46,46,86,1,,,,,,,,,,,,,,,,,,,,,,,,,,,,,,,,,,,,,,,,,,,,,,,,,,,,,,,,,,,,,,,,,,,,,,
,,,,6,1.127,,,,,,132,broom,tree,,89168,001,2022-04-25_17h11.06.832,SPAMnetsValid,2021.1.4,MacIntel,59.97361161,,,,,,,,,,,,,6,1.127,0,47,47,78,1,,,,,,,,,,,,,,,,,,,,,,,,,,,,,,,,,,,,,,,,,,,,,,,,,,,,,,,,,,,,,,,,,,,,,,
,,,,4,0.3939,,,,,,110,chocolate,cookie,,89168,001,2022-04-25_17h11.06.832,SPAMnetsValid,2021.1.4,MacIntel,59.97361161,,,,,,,,,,,,,4,0.3939,0,48,48,52,1,,,,,,,,,,,,,,,,,,,,,,,,,,,,,,,,,,,,,,,,,,,,,,,,,,,,,,,,,,,,,,,,,,,,,,
,,,,7,0.3232,,,,,,103,pretzel,tomato,,89168,001,2022-04-25_17h11.06.832,SPAMnetsValid,2021.1.4,MacIntel,59.97361161,,,,,,,,,,,,,7,0.3232,0,49,49,79,1,,,,,,,,,,,,,,,,,,,,,,,,,,,,,,,,,,,,,,,,,,,,,,,,,,,,,,,,,,,,,,,,,,,,,,
,,,,7,0.5116,,,,,,151,microwave,onion,,89168,001,2022-04-25_17h11.06.832,SPAMnetsValid,2021.1.4,MacIntel,59.97361161,,,,,,,,,,,,,7,0.5116,0,50,50,6,1,,,,,,,,,,,,,,,,,,,,,,,,,,,,,,,,,,,,,,,,,,,,,,,,,,,,,,,,,,,,,,,,,,,,,,
,,,,6,0.8592,,,,,,120,microwave,oven,,89168,001,2022-04-25_17h11.06.832,SPAMnetsValid,2021.1.4,MacIntel,59.97361161,,,,,,,,,,,,,6,0.8592,0,51,51,14,1,,,,,,,,,,,,,,,,,,,,,,,,,,,,,,,,,,,,,,,,,,,,,,,,,,,,,,,,,,,,,,,,,,,,,,
,,,,7,0.3941,,,,,,160,cookie,kitchen,,89168,001,2022-04-25_17h11.06.832,SPAMnetsValid,2021.1.4,MacIntel,59.97361161,,,,,,,,,,,,,7,0.3941,0,52,52,65,1,,,,,,,,,,,,,,,,,,,,,,,,,,,,,,,,,,,,,,,,,,,,,,,,,,,,,,,,,,,,,,,,,,,,,,
,,,,6,1.7261,,,,,,116,cake,chocolate,,89168,001,2022-04-25_17h11.06.832,SPAMnetsValid,2021.1.4,MacIntel,59.97361161,,,,,,,,,,,,,6,1.7261,0,53,53,44,1,,,,,,,,,,,,,,,,,,,,,,,,,,,,,,,,,,,,,,,,,,,,,,,,,,,,,,,,,,,,,,,,,,,,,,
,,,,7,0.6442,,,,,,107,rose,tomato,,89168,001,2022-04-25_17h11.06.832,SPAMnetsValid,2021.1.4,MacIntel,59.97361161,,,,,,,,,,,,,7,0.6442,0,54,54,26,1,,,,,,,,,,,,,,,,,,,,,,,,,,,,,,,,,,,,,,,,,,,,,,,,,,,,,,,,,,,,,,,,,,,,,,
,,,,3,0.51,,,,,,124,oven,refrigerator,,89168,001,2022-04-25_17h11.06.832,SPAMnetsValid,2021.1.4,MacIntel,59.97361161,,,,,,,,,,,,,3,0.51,0,55,55,69,1,,,,,,,,,,,,,,,,,,,,,,,,,,,,,,,,,,,,,,,,,,,,,,,,,,,,,,,,,,,,,,,,,,,,,,
,,,,4,0.4112,,,,,,189,onion,tree,,89168,001,2022-04-25_17h11.06.832,SPAMnetsValid,2021.1.4,MacIntel,59.97361161,,,,,,,,,,,,,4,0.4112,0,56,56,62,1,,,,,,,,,,,,,,,,,,,,,,,,,,,,,,,,,,,,,,,,,,,,,,,,,,,,,,,,,,,,,,,,,,,,,,
,,,,4,0.5257,,,,,,106,cake,strawberry,,89168,001,2022-04-25_17h11.06.832,SPAMnetsValid,2021.1.4,MacIntel,59.97361161,,,,,,,,,,,,,4,0.5257,0,57,57,0,1,,,,,,,,,,,,,,,,,,,,,,,,,,,,,,,,,,,,,,,,,,,,,,,,,,,,,,,,,,,,,,,,,,,,,,
,,,,5,0.4933,,,,,,128,melon,microwave,,89168,001,2022-04-25_17h11.06.832,SPAMnetsValid,2021.1.4,MacIntel,59.97361161,,,,,,,,,,,,,5,0.4933,0,58,58,74,1,,,,,,,,,,,,,,,,,,,,,,,,,,,,,,,,,,,,,,,,,,,,,,,,,,,,,,,,,,,,,,,,,,,,,,
,,,,2,1.5769,,,,,,98,pretzel,strawberry,,89168,001,2022-04-25_17h11.06.832,SPAMnetsValid,2021.1.4,MacIntel,59.97361161,,,,,,,,,,,,,2,1.5769,0,59,59,82,1,,,,,,,,,,,,,,,,,,,,,,,,,,,,,,,,,,,,,,,,,,,,,,,,,,,,,,,,,,,,,,,,,,,,,,
,,,,6,2.1275,,,,,,163,melon,refrigerator,,89168,001,2022-04-25_17h11.06.832,SPAMnetsValid,2021.1.4,MacIntel,59.97361161,,,,,,,,,,,,,6,2.1275,0,60,60,29,1,,,,,,,,,,,,,,,,,,,,,,,,,,,,,,,,,,,,,,,,,,,,,,,,,,,,,,,,,,,,,,,,,,,,,,
,,,,2,2.2282,,,,,,118,chocolate,oven,,89168,001,2022-04-25_17h11.06.832,SPAMnetsValid,2021.1.4,MacIntel,59.97361161,,,,,,,,,,,,,2,2.2282,0,61,61,10,1,,,,,,,,,,,,,,,,,,,,,,,,,,,,,,,,,,,,,,,,,,,,,,,,,,,,,,,,,,,,,,,,,,,,,,
,,,,6,3.3445,,,,,,136,chocolate,microwave,,89168,001,2022-04-25_17h11.06.832,SPAMnetsValid,2021.1.4,MacIntel,59.97361161,,,,,,,,,,,,,6,3.3445,0,62,62,96,1,,,,,,,,,,,,,,,,,,,,,,,,,,,,,,,,,,,,,,,,,,,,,,,,,,,,,,,,,,,,,,,,,,,,,,
,,,,1,1.4108,,,,,,105,cactus,oven,,89168,001,2022-04-25_17h11.06.832,SPAMnetsValid,2021.1.4,MacIntel,59.97361161,,,,,,,,,,,,,1,1.4108,0,63,63,13,1,,,,,,,,,,,,,,,,,,,,,,,,,,,,,,,,,,,,,,,,,,,,,,,,,,,,,,,,,,,,,,,,,,,,,,
,,,,7,1.61,,,,,,131,cactus,garden,,89168,001,2022-04-25_17h11.06.832,SPAMnetsValid,2021.1.4,MacIntel,59.97361161,,,,,,,,,,,,,7,1.61,0,64,64,33,1,,,,,,,,,,,,,,,,,,,,,,,,,,,,,,,,,,,,,,,,,,,,,,,,,,,,,,,,,,,,,,,,,,,,,,
,,,,8,2.7584,,,,,,112,cake,carrot,,89168,001,2022-04-25_17h11.06.832,SPAMnetsValid,2021.1.4,MacIntel,59.97361161,,,,,,,,,,,,,8,2.7584,0,65,65,39,1,,,,,,,,,,,,,,,,,,,,,,,,,,,,,,,,,,,,,,,,,,,,,,,,,,,,,,,,,,,,,,,,,,,,,,
,,,,3,1.9122,,,,,,96,oven,strawberry,,89168,001,2022-04-25_17h11.06.832,SPAMnetsValid,2021.1.4,MacIntel,59.97361161,,,,,,,,,,,,,3,1.9122,0,66,66,67,1,,,,,,,,,,,,,,,,,,,,,,,,,,,,,,,,,,,,,,,,,,,,,,,,,,,,,,,,,,,,,,,,,,,,,,
,,,,2,2.2617,,,,,,145,cactus,yogurt,,89168,001,2022-04-25_17h11.06.832,SPAMnetsValid,2021.1.4,MacIntel,59.97361161,,,,,,,,,,,,,2,2.2617,0,67,67,15,1,,,,,,,,,,,,,,,,,,,,,,,,,,,,,,,,,,,,,,,,,,,,,,,,,,,,,,,,,,,,,,,,,,,,,,
,,,,8,2.5111,,,,,,185,cactus,rose,,89168,001,2022-04-25_17h11.06.832,SPAMnetsValid,2021.1.4,MacIntel,59.97361161,,,,,,,,,,,,,8,2.5111,0,68,68,43,1,,,,,,,,,,,,,,,,,,,,,,,,,,,,,,,,,,,,,,,,,,,,,,,,,,,,,,,,,,,,,,,,,,,,,,
,,,,8,0.8284,,,,,,122,flower,garden,,89168,001,2022-04-25_17h11.06.832,SPAMnetsValid,2021.1.4,MacIntel,59.97361161,,,,,,,,,,,,,8,0.8284,0,69,69,60,1,,,,,,,,,,,,,,,,,,,,,,,,,,,,,,,,,,,,,,,,,,,,,,,,,,,,,,,,,,,,,,,,,,,,,,
,,,,7,2.7941,,,,,,133,cake,flower,,89168,001,2022-04-25_17h11.06.832,SPAMnetsValid,2021.1.4,MacIntel,59.97361161,,,,,,,,,,,,,7,2.7941,0,70,70,94,1,,,,,,,,,,,,,,,,,,,,,,,,,,,,,,,,,,,,,,,,,,,,,,,,,,,,,,,,,,,,,,,,,,,,,,
,,,,7,3.0454,,,,,,130,microwave,yogurt,,89168,001,2022-04-25_17h11.06.832,SPAMnetsValid,2021.1.4,MacIntel,59.97361161,,,,,,,,,,,,,7,3.0454,0,71,71,84,1,,,,,,,,,,,,,,,,,,,,,,,,,,,,,,,,,,,,,,,,,,,,,,,,,,,,,,,,,,,,,,,,,,,,,,
,,,,2,2.2793,,,,,,111,carrot,microwave,,89168,001,2022-04-25_17h11.06.832,SPAMnetsValid,2021.1.4,MacIntel,59.97361161,,,,,,,,,,,,,2,2.2793,0,72,72,16,1,,,,,,,,,,,,,,,,,,,,,,,,,,,,,,,,,,,,,,,,,,,,,,,,,,,,,,,,,,,,,,,,,,,,,,
,,,,2,4.6951,,,,,,180,tree,yogurt,,89168,001,2022-04-25_17h11.06.832,SPAMnetsValid,2021.1.4,MacIntel,59.97361161,,,,,,,,,,,,,2,4.6951,0,73,73,68,1,,,,,,,,,,,,,,,,,,,,,,,,,,,,,,,,,,,,,,,,,,,,,,,,,,,,,,,,,,,,,,,,,,,,,,
,,,,4,2.5453,,,,,,148,flower,melon,,89168,001,2022-04-25_17h11.06.832,SPAMnetsValid,2021.1.4,MacIntel,59.97361161,,,,,,,,,,,,,4,2.5453,0,74,74,23,1,,,,,,,,,,,,,,,,,,,,,,,,,,,,,,,,,,,,,,,,,,,,,,,,,,,,,,,,,,,,,,,,,,,,,,
,,,,8,3.3453,,,,,,170,cookie,microwave,,89168,001,2022-04-25_17h11.06.832,SPAMnetsValid,2021.1.4,MacIntel,59.97361161,,,,,,,,,,,,,8,3.3453,0,75,75,92,1,,,,,,,,,,,,,,,,,,,,,,,,,,,,,,,,,,,,,,,,,,,,,,,,,,,,,,,,,,,,,,,,,,,,,,
,,,,2,3.3187,,,,,,156,melon,rose,,89168,001,2022-04-25_17h11.06.832,SPAMnetsValid,2021.1.4,MacIntel,59.97361161,,,,,,,,,,,,,2,3.3187,0,76,76,31,1,,,,,,,,,,,,,,,,,,,,,,,,,,,,,,,,,,,,,,,,,,,,,,,,,,,,,,,,,,,,,,,,,,,,,,
,,,,7,2.4268,,,,,,125,carrot,tree,,89168,001,2022-04-25_17h11.06.832,SPAMnetsValid,2021.1.4,MacIntel,59.97361161,,,,,,,,,,,,,7,2.4268,0,77,77,30,1,,,,,,,,,,,,,,,,,,,,,,,,,,,,,,,,,,,,,,,,,,,,,,,,,,,,,,,,,,,,,,,,,,,,,,
,,,,7,1.1234,,,,,,102,chocolate,refrigerator,,89168,001,2022-04-25_17h11.06.832,SPAMnetsValid,2021.1.4,MacIntel,59.97361161,,,,,,,,,,,,,7,1.1234,0,78,78,76,1,,,,,,,,,,,,,,,,,,,,,,,,,,,,,,,,,,,,,,,,,,,,,,,,,,,,,,,,,,,,,,,,,,,,,,
,,,,2,2.7096,,,,,,183,cake,rose,,89168,001,2022-04-25_17h11.06.832,SPAMnetsValid,2021.1.4,MacIntel,59.97361161,,,,,,,,,,,,,2,2.7096,0,79,79,19,1,,,,,,,,,,,,,,,,,,,,,,,,,,,,,,,,,,,,,,,,,,,,,,,,,,,,,,,,,,,,,,,,,,,,,,
,,,,2,1.4772,,,,,,162,microwave,tomato,,89168,001,2022-04-25_17h11.06.832,SPAMnetsValid,2021.1.4,MacIntel,59.97361161,,,,,,,,,,,,,2,1.4772,0,80,80,12,1,,,,,,,,,,,,,,,,,,,,,,,,,,,,,,,,,,,,,,,,,,,,,,,,,,,,,,,,,,,,,,,,,,,,,,
,,,,6,2.0599,,,,,,186,kitchen,yogurt,,89168,001,2022-04-25_17h11.06.832,SPAMnetsValid,2021.1.4,MacIntel,59.97361161,,,,,,,,,,,,,6,2.0599,0,81,81,48,1,,,,,,,,,,,,,,,,,,,,,,,,,,,,,,,,,,,,,,,,,,,,,,,,,,,,,,,,,,,,,,,,,,,,,,
,,,,4,1.9106,,,,,,169,onion,yogurt,,89168,001,2022-04-25_17h11.06.832,SPAMnetsValid,2021.1.4,MacIntel,59.97361161,,,,,,,,,,,,,4,1.9106,0,82,82,24,1,,,,,,,,,,,,,,,,,,,,,,,,,,,,,,,,,,,,,,,,,,,,,,,,,,,,,,,,,,,,,,,,,,,,,,
,,,,1,2.3129,,,,,,150,microwave,refrigerator,,89168,001,2022-04-25_17h11.06.832,SPAMnetsValid,2021.1.4,MacIntel,59.97361161,,,,,,,,,,,,,1,2.3129,0,83,83,66,1,,,,,,,,,,,,,,,,,,,,,,,,,,,,,,,,,,,,,,,,,,,,,,,,,,,,,,,,,,,,,,,,,,,,,,
,,,,3,1.6271,,,,,,154,strawberry,yogurt,,89168,001,2022-04-25_17h11.06.832,SPAMnetsValid,2021.1.4,MacIntel,59.97361161,,,,,,,,,,,,,3,1.6271,0,84,84,28,1,,,,,,,,,,,,,,,,,,,,,,,,,,,,,,,,,,,,,,,,,,,,,,,,,,,,,,,,,,,,,,,,,,,,,,
,,,,2,2.5624,,,,,,108,carrot,chocolate,,89168,001,2022-04-25_17h11.06.832,SPAMnetsValid,2021.1.4,MacIntel,59.97361161,,,,,,,,,,,,,2,2.5624,0,85,85,5,1,,,,,,,,,,,,,,,,,,,,,,,,,,,,,,,,,,,,,,,,,,,,,,,,,,,,,,,,,,,,,,,,,,,,,,
,,,,1,1.9113,,,,,,137,microwave,tree,,89168,001,2022-04-25_17h11.06.832,SPAMnetsValid,2021.1.4,MacIntel,59.97361161,,,,,,,,,,,,,1,1.9113,0,86,86,63,1,,,,,,,,,,,,,,,,,,,,,,,,,,,,,,,,,,,,,,,,,,,,,,,,,,,,,,,,,,,,,,,,,,,,,,
,,,,7,2.3595,,,,,,135,carrot,oven,,89168,001,2022-04-25_17h11.06.832,SPAMnetsValid,2021.1.4,MacIntel,59.97361161,,,,,,,,,,,,,7,2.3595,0,87,87,73,1,,,,,,,,,,,,,,,,,,,,,,,,,,,,,,,,,,,,,,,,,,,,,,,,,,,,,,,,,,,,,,,,,,,,,,
,,,,9,1.5268,,,,,,100,garden,tomato,,89168,001,2022-04-25_17h11.06.832,SPAMnetsValid,2021.1.4,MacIntel,59.97361161,,,,,,,,,,,,,9,1.5268,0,88,88,83,1,,,,,,,,,,,,,,,,,,,,,,,,,,,,,,,,,,,,,,,,,,,,,,,,,,,,,,,,,,,,,,,,,,,,,,
,,,,2,5.1134,,,,,,190,microwave,strawberry,,89168,001,2022-04-25_17h11.06.832,SPAMnetsValid,2021.1.4,MacIntel,59.97361161,,,,,,,,,,,,,2,5.1134,0,89,89,90,1,,,,,,,,,,,,,,,,,,,,,,,,,,,,,,,,,,,,,,,,,,,,,,,,,,,,,,,,,,,,,,,,,,,,,,
,,,,9,1.8761,,,,,,142,garden,tree,,89168,001,2022-04-25_17h11.06.832,SPAMnetsValid,2021.1.4,MacIntel,59.97361161,,,,,,,,,,,,,9,1.8761,0,90,90,22,1,,,,,,,,,,,,,,,,,,,,,,,,,,,,,,,,,,,,,,,,,,,,,,,,,,,,,,,,,,,,,,,,,,,,,,
,,,,9,1.41,,,,,,167,carrot,garden,,89168,001,2022-04-25_17h11.06.832,SPAMnetsValid,2021.1.4,MacIntel,59.97361161,,,,,,,,,,,,,9,1.41,0,91,91,47,1,,,,,,,,,,,,,,,,,,,,,,,,,,,,,,,,,,,,,,,,,,,,,,,,,,,,,,,,,,,,,,,,,,,,,,
,,,,4,2.2955,,,,,,177,chocolate,strawberry,,89168,001,2022-04-25_17h11.06.832,SPAMnetsValid,2021.1.4,MacIntel,59.97361161,,,,,,,,,,,,,4,2.2955,0,92,92,53,1,,,,,,,,,,,,,,,,,,,,,,,,,,,,,,,,,,,,,,,,,,,,,,,,,,,,,,,,,,,,,,,,,,,,,,
,,,,5,3.0117,,,,,,115,refrigerator,tomato,,89168,001,2022-04-25_17h11.06.832,SPAMnetsValid,2021.1.4,MacIntel,59.97361161,,,,,,,,,,,,,5,3.0117,0,93,93,85,1,,,,,,,,,,,,,,,,,,,,,,,,,,,,,,,,,,,,,,,,,,,,,,,,,,,,,,,,,,,,,,,,,,,,,,
,,,,5,2.3434,,,,,,172,kitchen,melon,,89168,001,2022-04-25_17h11.06.832,SPAMnetsValid,2021.1.4,MacIntel,59.97361161,,,,,,,,,,,,,5,2.3434,0,94,94,77,1,,,,,,,,,,,,,,,,,,,,,,,,,,,,,,,,,,,,,,,,,,,,,,,,,,,,,,,,,,,,,,,,,,,,,,
,,,,5,1.0104,,,,,,161,kitchen,pretzel,,89168,001,2022-04-25_17h11.06.832,SPAMnetsValid,2021.1.4,MacIntel,59.97361161,,,,,,,,,,,,,5,1.0104,0,95,95,36,1,,,,,,,,,,,,,,,,,,,,,,,,,,,,,,,,,,,,,,,,,,,,,,,,,,,,,,,,,,,,,,,,,,,,,,
,,,,5,1.8284,,,,,,181,carrot,kitchen,,89168,001,2022-04-25_17h11.06.832,SPAMnetsValid,2021.1.4,MacIntel,59.97361161,,,,,,,,,,,,,5,1.8284,0,96,96,72,1,,,,,,,,,,,,,,,,,,,,,,,,,,,,,,,,,,,,,,,,,,,,,,,,,,,,,,,,,,,,,,,,,,,,,,
,,,,,,,,,,,,,,,89168,001,2022-04-25_17h11.06.832,SPAMnetsValid,2021.1.4,MacIntel,59.97361161,,,,,,,,,,,,,,,,,,,,0,0,0,0,1,,,,,,,,,,,,,,,,,,,,,,,,,,,,,,,,,,,,,,,,,,,,,,,,,,,,,,,,,,,,,,,,,
,,,,,,,,,,,,,,,89168,001,2022-04-25_17h11.06.832,SPAMnetsValid,2021.1.4,MacIntel,59.97361161,,,,,,0,1,1,1,1,0,1,,,,,,,,,,,,,,,,,,,,,,,,,,,,,,,,,,,,,,,,,,,,,,,,,,,,,,,,,,,,,,,,,,,,,,,,,,,,,
,,,,,,,,,,,,,,,89168,001,2022-04-25_17h11.06.832,SPAMnetsValid,2021.1.4,MacIntel,59.97361161,,,,,,,,,,,,,,,,,,,,,,,,,4,5.3572,0,0,0,0,1,rancor,forbearance,ridicule,malice,bravery,3,,,,,,,,,,,,,,,,,,,,,,,,,,,,,,,,,,,,,,,,,,,,,,,,,,,,
,,,,,,,,,,,,,,,89168,001,2022-04-25_17h11.06.832,SPAMnetsValid,2021.1.4,MacIntel,59.97361161,,,,,,,,,,,,,,,,,,,,,,,,,4,3.844,0,1,1,1,1,raucous,empty,quiet,smooth,harsh,4,,,,,,,,,,,,,,,,,,,,,,,,,,,,,,,,,,,,,,,,,,,,,,,,,,,,
,,,,,,,,,,,,,,,89168,001,2022-04-25_17h11.06.832,SPAMnetsValid,2021.1.4,MacIntel,59.97361161,,,,,,,,,,,,,,,,,,,,,,,,,4,2.6475,0,2,2,2,1,gargoyle,oil,medicine,carved waterspout,ugly building,3,,,,,,,,,,,,,,,,,,,,,,,,,,,,,,,,,,,,,,,,,,,,,,,,,,,,
,,,,,,,,,,,,,,,89168,001,2022-04-25_17h11.06.832,SPAMnetsValid,2021.1.4,MacIntel,59.97361161,,,,,,,,,,,,,,,,,,,,,,,,,3,3.9389,0,3,3,3,1,recrudesce,purify,renew activity,lack refinement,crush,2,,,,,,,,,,,,,,,,,,,,,,,,,,,,,,,,,,,,,,,,,,,,,,,,,,,,
,,,,,,,,,,,,,,,89168,001,2022-04-25_17h11.06.832,SPAMnetsValid,2021.1.4,MacIntel,59.97361161,,,,,,,,,,,,,,,,,,,,,,,,,3,2.5595,0,4,4,4,1,specious,"plausible, but not genuine",noteworthy,class or variety,roomy,1,,,,,,,,,,,,,,,,,,,,,,,,,,,,,,,,,,,,,,,,,,,,,,,,,,,,
,,,,,,,,,,,,,,,89168,001,2022-04-25_17h11.06.832,SPAMnetsValid,2021.1.4,MacIntel,59.97361161,,,,,,,,,,,,,,,,,,,,,,,,,3,1.8629,0,5,5,5,1,bauble,bubble,showy plaything,idle talk,confusion,2,,,,,,,,,,,,,,,,,,,,,,,,,,,,,,,,,,,,,,,,,,,,,,,,,,,,
,,,,,,,,,,,,,,,89168,001,2022-04-25_17h11.06.832,SPAMnetsValid,2021.1.4,MacIntel,59.97361161,,,,,,,,,,,,,,,,,,,,,,,,,2,3.3468,0,6,6,6,1,prolific,scarce,producing abundantly,reckless,speaking profanely,2,,,,,,,,,,,,,,,,,,,,,,,,,,,,,,,,,,,,,,,,,,,,,,,,,,,,
,,,,,,,,,,,,,,,89168,001,2022-04-25_17h11.06.832,SPAMnetsValid,2021.1.4,MacIntel,59.97361161,,,,,,,,,,,,,,,,,,,,,,,,,3,3.728,0,7,7,7,1,opulent,party,wealthy,happy frame of mind,semiprecious stone,2,,,,,,,,,,,,,,,,,,,,,,,,,,,,,,,,,,,,,,,,,,,,,,,,,,,,
,,,,,,,,,,,,,,,89168,001,2022-04-25_17h11.06.832,SPAMnetsValid,2021.1.4,MacIntel,59.97361161,,,,,,,,,,,,,,,,,,,,,,,,,2,2.8798,0,8,8,8,1,coercion,conspiracy,strategy,restraint,attraction,3,,,,,,,,,,,,,,,,,,,,,,,,,,,,,,,,,,,,,,,,,,,,,,,,,,,,
,,,,,,,,,,,,,,,89168,001,2022-04-25_17h11.06.832,SPAMnetsValid,2021.1.4,MacIntel,59.97361161,,,,,,,,,,,,,,,,,,,,,,,,,4,3.7619,0,9,9,9,1,hiatus,animal,calamity,dread,gap,4,,,,,,,,,,,,,,,,,,,,,,,,,,,,,,,,,,,,,,,,,,,,,,,,,,,,
,,,,,,,,,,,,,,,89168,001,2022-04-25_17h11.06.832,SPAMnetsValid,2021.1.4,MacIntel,59.97361161,,,,,,,,,,,,,,,,,,,,,,,,,1,2.6142,0,10,10,10,1,germane,microbe,contagious,relevant,different,3,,,,,,,,,,,,,,,,,,,,,,,,,,,,,,,,,,,,,,,,,,,,,,,,,,,,
,,,,,,,,,,,,,,,89168,001,2022-04-25_17h11.06.832,SPAMnetsValid,2021.1.4,MacIntel,59.97361161,,,,,,,,,,,,,,,,,,,,,,,,,3,3.1619,0,11,11,11,1,perfunctory,fundamental,formal,superficial,careful,3,,,,,,,,,,,,,,,,,,,,,,,,,,,,,,,,,,,,,,,,,,,,,,,,,,,,
,,,,,,,,,,,,,,,89168,001,2022-04-25_17h11.06.832,SPAMnetsValid,2021.1.4,MacIntel,59.97361161,,,,,,,,,,,,,,,,,,,,,,,,,3,3.2126,0,12,12,12,1,diverge,reveal,chant,distract the attention of,differ or turn off from,4,,,,,,,,,,,,,,,,,,,,,,,,,,,,,,,,,,,,,,,,,,,,,,,,,,,,
,,,,,,,,,,,,,,,89168,001,2022-04-25_17h11.06.832,SPAMnetsValid,2021.1.4,MacIntel,59.97361161,,,,,,,,,,,,,,,,,,,,,,,,,4,3.0294,0,13,13,13,1,evoke,take away,anger,connect,bring out,4,,,,,,,,,,,,,,,,,,,,,,,,,,,,,,,,,,,,,,,,,,,,,,,,,,,,
,,,,,,,,,,,,,,,89168,001,2022-04-25_17h11.06.832,SPAMnetsValid,2021.1.4,MacIntel,59.97361161,,,,,,,,,,,,,,,,,,,,,,,,,1,3.6656,0,14,14,14,1,pertinent,relevant,lying next to,necessary,bold,1,,,,,,,,,,,,,,,,,,,,,,,,,,,,,,,,,,,,,,,,,,,,,,,,,,,,
,,,,,,,,,,,,,,,89168,001,2022-04-25_17h11.06.832,SPAMnetsValid,2021.1.4,MacIntel,59.97361161,,,,,,,,,,,,,,,,,,,,,,,,,2,1.6967,0,15,15,15,1,holocaust,entirety,destruction,saintly,price,2,,,,,,,,,,,,,,,,,,,,,,,,,,,,,,,,,,,,,,,,,,,,,,,,,,,,
,,,,,,,,,,,,,,,89168,001,2022-04-25_17h11.06.832,SPAMnetsValid,2021.1.4,MacIntel,59.97361161,,,,,,,,,,,,,,,,,,,,,,,,,2,7.4117,0,16,16,16,1,piquant,mellow,fish,pungent,cloth,3,,,,,,,,,,,,,,,,,,,,,,,,,,,,,,,,,,,,,,,,,,,,,,,,,,,,
,,,,,,,,,,,,,,,89168,001,2022-04-25_17h11.06.832,SPAMnetsValid,2021.1.4,MacIntel,59.97361161,,,,,,,,,,,,,,,,,,,,,,,,,1,7.2463,0,17,17,17,1,firmament,foundation,heavens,strong,glue,2,,,,,,,,,,,,,,,,,,,,,,,,,,,,,,,,,,,,,,,,,,,,,,,,,,,,
,,,,,,,,,,,,,,,89168,001,2022-04-25_17h11.06.832,SPAMnetsValid,2021.1.4,MacIntel,59.97361161,,,,,,,,,,,,,,,,,,,,,,,,,,,,,,,,,,,,,,4,7.4209,0,0,0,0,1,marketable,partisan,jocular,marriageable,salable,essential,4,,,,,,,,,,,,,,,,,,,,,,,,,,,,,,,,,,,,,,
,,,,,,,,,,,,,,,89168,001,2022-04-25_17h11.06.832,SPAMnetsValid,2021.1.4,MacIntel,59.97361161,,,,,,,,,,,,,,,,,,,,,,,,,,,,,,,,,,,,,,5,4.6782,0,1,1,1,1,cottontail,squirrel,poplar,boa,marshy plant,rabbit,5,,,,,,,,,,,,,,,,,,,,,,,,,,,,,,,,,,,,,,
,,,,,,,,,,,,,,,89168,001,2022-04-25_17h11.06.832,SPAMnetsValid,2021.1.4,MacIntel,59.97361161,,,,,,,,,,,,,,,,,,,,,,,,,,,,,,,,,,,,,,4,5.7316,0,2,2,2,1,boggy,afraid,false,marshy,dense,black,3,,,,,,,,,,,,,,,,,,,,,,,,,,,,,,,,,,,,,,
,,,,,,,,,,,,,,,89168,001,2022-04-25_17h11.06.832,SPAMnetsValid,2021.1.4,MacIntel,59.97361161,,,,,,,,,,,,,,,,,,,,,,,,,,,,,,,,,,,,,,1,5.9805,0,3,3,3,1,gruesomeness,blackness,falseness,vindictiveness,drunkenness,ghastliness,5,,,,,,,,,,,,,,,,,,,,,,,,,,,,,,,,,,,,,,
,,,,,,,,,,,,,,,89168,001,2022-04-25_17h11.06.832,SPAMnetsValid,2021.1.4,MacIntel,59.97361161,,,,,,,,,,,,,,,,,,,,,,,,,,,,,,,,,,,,,,2,8.8664,0,4,4,4,1,loathing,diffidence,laziness,abhorrence,cleverness,comfort,3,,,,,,,,,,,,,,,,,,,,,,,,,,,,,,,,,,,,,,
,,,,,,,,,,,,,,,89168,001,2022-04-25_17h11.06.832,SPAMnetsValid,2021.1.4,MacIntel,59.97361161,,,,,,,,,,,,,,,,,,,,,,,,,,,,,,,,,,,,,,2,3.9957,0,5,5,5,1,bantam,fowl,ridicule,cripple,vegetable,ensign,1,,,,,,,,,,,,,,,,,,,,,,,,,,,,,,,,,,,,,,
,,,,,,,,,,,,,,,89168,001,2022-04-25_17h11.06.832,SPAMnetsValid,2021.1.4,MacIntel,59.97361161,,,,,,,,,,,,,,,,,,,,,,,,,,,,,,,,,,,,,,1,5.4475,0,6,6,6,1,evoke,wake up,surrender,reconnoiter,transcend,call forth,5,,,,,,,,,,,,,,,,,,,,,,,,,,,,,,,,,,,,,,
,,,,,,,,,,,,,,,89168,001,2022-04-25_17h11.06.832,SPAMnetsValid,2021.1.4,MacIntel,59.97361161,,,,,,,,,,,,,,,,,,,,,,,,,,,,,,,,,,,,,,5,10.8976,0,7,7,7,1,unobtrusive,unintelligent,epileptic,illogical,lineal,modest,5,,,,,,,,,,,,,,,,,,,,,,,,,,,,,,,,,,,,,,
,,,,,,,,,,,,,,,89168,001,2022-04-25_17h11.06.832,SPAMnetsValid,2021.1.4,MacIntel,59.97361161,,,,,,,,,,,,,,,,,,,,,,,,,,,,,,,,,,,,,,4,2.8601,0,8,8,8,1,terrain,ice cream,final test,tractor,area of ground,weight,4,,,,,,,,,,,,,,,,,,,,,,,,,,,,,,,,,,,,,,
,,,,,,,,,,,,,,,89168,001,2022-04-25_17h11.06.832,SPAMnetsValid,2021.1.4,MacIntel,59.97361161,,,,,,,,,,,,,,,,,,,,,,,,,,,,,,,,,,,,,,2,7.6457,0,9,9,9,1,capriciousness,stubbornness,courage,whimsicality,amazement,greediness,3,,,,,,,,,,,,,,,,,,,,,,,,,,,,,,,,,,,,,,
,,,,,,,,,,,,,,,89168,001,2022-04-25_17h11.06.832,SPAMnetsValid,2021.1.4,MacIntel,59.97361161,,,,,,,,,,,,,,,,,,,,,,,,,,,,,,,,,,,,,,4,8.4325,0,10,10,10,1,maelstrom,slander,whirlpool,enmity,armor,majolica,2,,,,,,,,,,,,,,,,,,,,,,,,,,,,,,,,,,,,,,
,,,,,,,,,,,,,,,89168,001,2022-04-25_17h11.06.832,SPAMnetsValid,2021.1.4,MacIntel,59.97361161,,,,,,,,,,,,,,,,,,,,,,,,,,,,,,,,,,,,,,4,5.9463,0,11,11,11,1,tentative,critical,conclusive,authentic,provisional,apprehensive,4,,,,,,,,,,,,,,,,,,,,,,,,,,,,,,,,,,,,,,
,,,,,,,,,,,,,,,89168,001,2022-04-25_17h11.06.832,SPAMnetsValid,2021.1.4,MacIntel,59.97361161,,,,,,,,,,,,,,,,,,,,,,,,,,,,,,,,,,,,,,2,4.6614,0,12,12,12,1,placate,rehabilitate,plagiarize,depredate,apprise,conciliate,5,,,,,,,,,,,,,,,,,,,,,,,,,,,,,,,,,,,,,,
,,,,,,,,,,,,,,,89168,001,2022-04-25_17h11.06.832,SPAMnetsValid,2021.1.4,MacIntel,59.97361161,,,,,,,,,,,,,,,,,,,,,,,,,,,,,,,,,,,,,,2,3.8965,0,13,13,13,1,surcease,enlightenment,cessation,inattention,censor,substitution,2,,,,,,,,,,,,,,,,,,,,,,,,,,,,,,,,,,,,,,
,,,,,,,,,,,,,,,89168,001,2022-04-25_17h11.06.832,SPAMnetsValid,2021.1.4,MacIntel,59.97361161,,,,,,,,,,,,,,,,,,,,,,,,,,,,,,,,,,,,,,4,2.7812,0,14,14,14,1,apathetic,wandering,impassive,hateful,prophetic,overflowing,2,,,,,,,,,,,,,,,,,,,,,,,,,,,,,,,,,,,,,,
,,,,,,,,,,,,,,,89168,001,2022-04-25_17h11.06.832,SPAMnetsValid,2021.1.4,MacIntel,59.97361161,,,,,,,,,,,,,,,,,,,,,,,,,,,,,,,,,,,,,,4,3.0973,0,15,15,15,1,paternoster,paternalism,patricide,malediction,benediction,prayer,5,,,,,,,,,,,,,,,,,,,,,,,,,,,,,,,,,,,,,,
,,,,,,,,,,,,,,,89168,001,2022-04-25_17h11.06.832,SPAMnetsValid,2021.1.4,MacIntel,59.97361161,,,,,,,,,,,,,,,,,,,,,,,,,,,,,,,,,,,,,,4,4.998,0,16,16,16,1,opalescence,opulence,senescence,bankruptcy,iridescence,assiduity,4,,,,,,,,,,,,,,,,,,,,,,,,,,,,,,,,,,,,,,
,,,,,,,,,,,,,,,89168,001,2022-04-25_17h11.06.832,SPAMnetsValid,2021.1.4,MacIntel,59.97361161,,,,,,,,,,,,,,,,,,,,,,,,,,,,,,,,,,,,,,2,7.9277,0,17,17,17,1,lush,stupid,luxurious,hazy,putrid,languishing,2,,,,,,,,,,,,,,,,,,,,,,,,,,,,,,,,,,,,,,
,,,,,,,,,,,,,,,89168,001,2022-04-25_17h11.06.832,SPAMnetsValid,2021.1.4,MacIntel,59.97361161,,,,,,,,,,,,,,,,,,,,,,,,,,,,,,,,,,,,,,1,31.6767,0,18,18,18,1,curtailment,expenditure,abandonment,abridgment,improvement,forgery,3,,,,,,,,,,,,,,,,,,,,,,,,,,,,,,,,,,,,,,
,,,,,,,,,,,,,,,89168,001,2022-04-25_17h11.06.832,SPAMnetsValid,2021.1.4,MacIntel,59.97361161,,,,,,,,,,,,,,,,,,,,,,,,,,,,,,,,,,,,,,2,7.3831,0,19,19,19,1,perversity,adversity,perviousness,travesty,waywardness,gentility,4,,,,,,,,,,,,,,,,,,,,,,,,,,,,,,,,,,,,,,
,,,,,,,,,,,,,,,89168,001,2022-04-25_17h11.06.832,SPAMnetsValid,2021.1.4,MacIntel,59.97361161,,,,,,,,,,,,,,,,,,,,,,,,,,,,,,,,,,,,,,4,3.3302,0,20,20,20,1,calumnious,complimentary,analogous,slanderous,tempestuous,magnanimous,3,,,,,,,,,,,,,,,,,,,,,,,,,,,,,,,,,,,,,,
,,,,,,,,,,,,,,,89168,001,2022-04-25_17h11.06.832,SPAMnetsValid,2021.1.4,MacIntel,59.97361161,,,,,,,,,,,,,,,,,,,,,,,,,,,,,,,,,,,,,,3,7.364,0,21,21,21,1,illiberality,bigotry,imbecility,illegibility,cautery,immaturity,1,,,,,,,,,,,,,,,,,,,,,,,,,,,,,,,,,,,,,,
,,,,,,,,,,,,,,,89168,001,2022-04-25_17h11.06.832,SPAMnetsValid,2021.1.4,MacIntel,59.97361161,,,,,,,,,,,,,,,,,,,,,,,,,,,,,,,,,,,,,,2,3.1087,0,22,22,22,1,clabber,rejoice,gossip,curdle,crow,hobble,3,,,,,,,,,,,,,,,,,,,,,,,,,,,,,,,,,,,,,,
,,,,,,,,,,,,,,,89168,001,2022-04-25_17h11.06.832,SPAMnetsValid,2021.1.4,MacIntel,59.97361161,,,,,,,,,,,,,,,,,,,,,,,,,,,,,,,,,,,,,,4,4.5824,0,23,23,23,1,sedulousness,diligence,credulousness,seduction,perilousness,frankness,1,,,,,,,,,,,,,,,,,,,,,,,,,,,,,,,,,,,,,,
,,,,,,,,,,,,,,,89168,001,2022-04-25_17h11.06.832,SPAMnetsValid,2021.1.4,MacIntel,59.97361161,,,,,,,,,,,,,,,,,,,,,,,,,,,,,,,,,,,,,,,,,,,,,,,,,,,,fill with water,bucket,0,0,0,0,1,,,,,,,,,,,,,,,,,,,,,,,,,,,,,,,
,,,,,,,,,,,,,,,89168,001,2022-04-25_17h11.06.832,SPAMnetsValid,2021.1.4,MacIntel,59.97361161,,,,,,,,,,,,,,,,,,,,,,,,,,,,,,,,,,,,,,,,,,,,,,,,,,,,fill with sand,bucket,1,0,1,0,1,,,,,,,,,,,,,,,,,,,,,,,,,,,,,,,
,,,,,,,,,,,,,,,89168,001,2022-04-25_17h11.06.832,SPAMnetsValid,2021.1.4,MacIntel,59.97361161,,,,,,,,,,,,,,,,,,,,,,,,,,,,,,,,,,,,,,,,,,,,,,,,,,,,mix concrete and water,bucket,2,0,2,0,1,,,,,,,,,,,,,,,,,,,,,,,,,,,,,,,
,,,,,,,,,,,,,,,89168,001,2022-04-25_17h11.06.832,SPAMnetsValid,2021.1.4,MacIntel,59.97361161,,,,,,,,,,,,,,,,,,,,,,,,,,,,,,,,,,,,,,,,,,,,,,,,,,,,put soap and water,bucket,3,0,3,0,1,,,,,,,,,,,,,,,,,,,,,,,,,,,,,,,
,,,,,,,,,,,,,,,89168,001,2022-04-25_17h11.06.832,SPAMnetsValid,2021.1.4,MacIntel,59.97361161,,,,,,,,,,,,,,,,,,,,,,,,,,,,,,,,,,,,,,,,,,,,,,,,,,,,,bucket,4,0,4,0,1,,,,,,,,,,,,,,,,,,,,,,,,,,,,,,,
,,,,,,,,,,,,,,,89168,001,2022-04-25_17h11.06.832,SPAMnetsValid,2021.1.4,MacIntel,59.97361161,,,,,,,,,,,,,,,,,,,,,,,,,,,,,,,,,,,,,,,,,,,,,,,,,,,,fill with paint,bucket,5,0,5,0,1,,,,,,,,,,,,,,,,,,,,,,,,,,,,,,,
,,,,,,,,,,,,,,,89168,001,2022-04-25_17h11.06.832,SPAMnetsValid,2021.1.4,MacIntel,59.97361161,,,,,,,,,,,,,,,,,,,,,,,,,,,,,,,,,,,,,,,,,,,,,,,,,,,,sit on,bucket,6,0,6,0,1,,,,,,,,,,,,,,,,,,,,,,,,,,,,,,,
,,,,,,,,,,,,,,,89168,001,2022-04-25_17h11.06.832,SPAMnetsValid,2021.1.4,MacIntel,59.97361161,,,,,,,,,,,,,,,,,,,,,,,,,,,,,,,,,,,,,,,,,,,,,,,,,,,,,bucket,7,0,7,0,1,,,,,,,,,,,,,,,,,,,,,,,,,,,,,,,
,,,,,,,,,,,,,,,89168,001,2022-04-25_17h11.06.832,SPAMnetsValid,2021.1.4,MacIntel,59.97361161,,,,,,,,,,,,,,,,,,,,,,,,,,,,,,,,,,,,,,,,,,,,,,,,,,,,,bucket,8,0,8,0,1,,,,,,,,,,,,,,,,,,,,,,,,,,,,,,,
,,,,,,,,,,,,,,,89168,001,2022-04-25_17h11.06.832,SPAMnetsValid,2021.1.4,MacIntel,59.97361161,,,,,,,,,,,,,,,,,,,,,,,,,,,,,,,,,,,,,,,,,,,,,,,,,,,,f,bucket,9,0,9,0,1,,,,,,,,,,,,,,,,,,,,,,,,,,,,,,,
,,,,,,,,,,,,,,,89168,001,2022-04-25_17h11.06.832,SPAMnetsValid,2021.1.4,MacIntel,59.97361161,,,,,,,,,,,,,,,,,,,,,,,,,,,,,,,,,,,,,,,,,,,,,,,,,,,,f,bucket,10,0,10,0,1,,,,,,,,,,,,,,,,,,,,,,,,,,,,,,,
,,,,,,,,,,,,,,,89168,001,2022-04-25_17h11.06.832,SPAMnetsValid,2021.1.4,MacIntel,59.97361161,,,,,,,,,,,,,,,,,,,,,,,,,,,,,,,,,,,,,,,,,,,,,,,,,,,,f,bucket,11,0,11,0,1,,,,,,,,,,,,,,,,,,,,,,,,,,,,,,,
,,,,,,,,,,,,,,,89168,001,2022-04-25_17h11.06.832,SPAMnetsValid,2021.1.4,MacIntel,59.97361161,,,,,,,,,,,,,,,,,,,,,,,,,,,,,,,,,,,,,,,,,,,,,,,,,,,,f,bucket,12,0,12,0,1,,,,,,,,,,,,,,,,,,,,,,,,,,,,,,,
,,,,,,,,,,,,,,,89168,001,2022-04-25_17h11.06.832,SPAMnetsValid,2021.1.4,MacIntel,59.97361161,,,,,,,,,,,,,,,,,,,,,,,,,,,,,,,,,,,,,,,,,,,,,,,,,,,,f,bucket,13,0,13,0,1,,,,,,,,,,,,,,,,,,,,,,,,,,,,,,,
,,,,,,,,,,,,,,,89168,001,2022-04-25_17h11.06.832,SPAMnetsValid,2021.1.4,MacIntel,59.97361161,,,,,,,,,,,,,,,,,,,,,,,,,,,,,,,,,,,,,,,,,,,,,,,,,,,,,,,,,,,0,0,0,0,1,bucket,,,,,,,,,,,,,,,,,,,,,,,,,
,,,,,,,,,,,,,,,89168,001,2022-04-25_17h11.06.832,SPAMnetsValid,2021.1.4,MacIntel,59.97361161,,,,,,,,,,,,,,,,,,,,,,,,,,,,,,,,,,,,,,,,,,,,,,,,,,,,lay head on,pillow,0,0,0,0,1,,,,,,,,,,,,,,,,,,,,,,,,,,,,,,,
,,,,,,,,,,,,,,,89168,001,2022-04-25_17h11.06.832,SPAMnetsValid,2021.1.4,MacIntel,59.97361161,,,,,,,,,,,,,,,,,,,,,,,,,,,,,,,,,,,,,,,,,,,,,,,,,,,,have a fight iwht,pillow,1,0,1,0,1,,,,,,,,,,,,,,,,,,,,,,,,,,,,,,,
,,,,,,,,,,,,,,,89168,001,2022-04-25_17h11.06.832,SPAMnetsValid,2021.1.4,MacIntel,59.97361161,,,,,,,,,,,,,,,,,,,,,,,,,,,,,,,,,,,,,,,,,,,,,,,,,,,,with,pillow,2,0,2,0,1,,,,,,,,,,,,,,,,,,,,,,,,,,,,,,,
,,,,,,,,,,,,,,,89168,001,2022-04-25_17h11.06.832,SPAMnetsValid,2021.1.4,MacIntel,59.97361161,,,,,,,,,,,,,,,,,,,,,,,,,,,,,,,,,,,,,,,,,,,,,,,,,,,,build a fort,pillow,3,0,3,0,1,,,,,,,,,,,,,,,,,,,,,,,,,,,,,,,
,,,,,,,,,,,,,,,89168,001,2022-04-25_17h11.06.832,SPAMnetsValid,2021.1.4,MacIntel,59.97361161,,,,,,,,,,,,,,,,,,,,,,,,,,,,,,,,,,,,,,,,,,,,,,,,,,,,put out a fire,pillow,4,0,4,0,1,,,,,,,,,,,,,,,,,,,,,,,,,,,,,,,
,,,,,,,,,,,,,,,89168,001,2022-04-25_17h11.06.832,SPAMnetsValid,2021.1.4,MacIntel,59.97361161,,,,,,,,,,,,,,,,,,,,,,,,,,,,,,,,,,,,,,,,,,,,,,,,,,,,sit on lol,pillow,5,0,5,0,1,,,,,,,,,,,,,,,,,,,,,,,,,,,,,,,
,,,,,,,,,,,,,,,89168,001,2022-04-25_17h11.06.832,SPAMnetsValid,2021.1.4,MacIntel,59.97361161,,,,,,,,,,,,,,,,,,,,,,,,,,,,,,,,,,,,,,,,,,,,,,,,,,,,use for back support,pillow,6,0,6,0,1,,,,,,,,,,,,,,,,,,,,,,,,,,,,,,,
,,,,,,,,,,,,,,,89168,001,2022-04-25_17h11.06.832,SPAMnetsValid,2021.1.4,MacIntel,59.97361161,,,,,,,,,,,,,,,,,,,,,,,,,,,,,,,,,,,,,,,,,,,,,,,,,,,,use for neck support,pillow,7,0,7,0,1,,,,,,,,,,,,,,,,,,,,,,,,,,,,,,,
,,,,,,,,,,,,,,,89168,001,2022-04-25_17h11.06.832,SPAMnetsValid,2021.1.4,MacIntel,59.97361161,,,,,,,,,,,,,,,,,,,,,,,,,,,,,,,,,,,,,,,,,,,,,,,,,,,,,,,,,,,0,1,1,2,1,pillow,,,,,,,,,,,,,,,,,,,,,,,,,
,,,,,,,,,,,,,,,89168,001,2022-04-25_17h11.06.832,SPAMnetsValid,2021.1.4,MacIntel,59.97361161,,,,,,,,,,,,,,,,,,,,,,,,,,,,,,,,,,,,,,,,,,,,,,,,,,,,light on fire,candle,0,0,0,0,1,,,,,,,,,,,,,,,,,,,,,,,,,,,,,,,
,,,,,,,,,,,,,,,89168,001,2022-04-25_17h11.06.832,SPAMnetsValid,2021.1.4,MacIntel,59.97361161,,,,,,,,,,,,,,,,,,,,,,,,,,,,,,,,,,,,,,,,,,,,,,,,,,,,to make smell better,candle,1,0,1,0,1,,,,,,,,,,,,,,,,,,,,,,,,,,,,,,,
,,,,,,,,,,,,,,,89168,001,2022-04-25_17h11.06.832,SPAMnetsValid,2021.1.4,MacIntel,59.97361161,,,,,,,,,,,,,,,,,,,,,,,,,,,,,,,,,,,,,,,,,,,,,,,,,,,,to hide the smell of something,candle,2,0,2,0,1,,,,,,,,,,,,,,,,,,,,,,,,,,,,,,,
,,,,,,,,,,,,,,,89168,001,2022-04-25_17h11.06.832,SPAMnetsValid,2021.1.4,MacIntel,59.97361161,,,,,,,,,,,,,,,,,,,,,,,,,,,,,,,,,,,,,,,,,,,,,,,,,,,,to start a different fire,candle,3,0,3,0,1,,,,,,,,,,,,,,,,,,,,,,,,,,,,,,,
,,,,,,,,,,,,,,,89168,001,2022-04-25_17h11.06.832,SPAMnetsValid,2021.1.4,MacIntel,59.97361161,,,,,,,,,,,,,,,,,,,,,,,,,,,,,,,,,,,,,,,,,,,,,,,,,,,,for vigils,candle,4,0,4,0,1,,,,,,,,,,,,,,,,,,,,,,,,,,,,,,,
,,,,,,,,,,,,,,,89168,001,2022-04-25_17h11.06.832,SPAMnetsValid,2021.1.4,MacIntel,59.97361161,,,,,,,,,,,,,,,,,,,,,,,,,,,,,,,,,,,,,,,,,,,,,,,,,,,,for celebrations,candle,5,0,5,0,1,,,,,,,,,,,,,,,,,,,,,,,,,,,,,,,
,,,,,,,,,,,,,,,89168,001,2022-04-25_17h11.06.832,SPAMnetsValid,2021.1.4,MacIntel,59.97361161,,,,,,,,,,,,,,,,,,,,,,,,,,,,,,,,,,,,,,,,,,,,,,,,,,,,for prayer,candle,6,0,6,0,1,,,,,,,,,,,,,,,,,,,,,,,,,,,,,,,
,,,,,,,,,,,,,,,89168,001,2022-04-25_17h11.06.832,SPAMnetsValid,2021.1.4,MacIntel,59.97361161,,,,,,,,,,,,,,,,,,,,,,,,,,,,,,,,,,,,,,,,,,,,,,,,,,,,,candle,7,0,7,0,1,,,,,,,,,,,,,,,,,,,,,,,,,,,,,,,
,,,,,,,,,,,,,,,89168,001,2022-04-25_17h11.06.832,SPAMnetsValid,2021.1.4,MacIntel,59.97361161,,,,,,,,,,,,,,,,,,,,,,,,,,,,,,,,,,,,,,,,,,,,,,,,,,,,,candle,8,0,8,0,1,,,,,,,,,,,,,,,,,,,,,,,,,,,,,,,
,,,,,,,,,,,,,,,89168,001,2022-04-25_17h11.06.832,SPAMnetsValid,2021.1.4,MacIntel,59.97361161,,,,,,,,,,,,,,,,,,,,,,,,,,,,,,,,,,,,,,,,,,,,,,,,,,,,,candle,9,0,9,0,1,,,,,,,,,,,,,,,,,,,,,,,,,,,,,,,
,,,,,,,,,,,,,,,89168,001,2022-04-25_17h11.06.832,SPAMnetsValid,2021.1.4,MacIntel,59.97361161,,,,,,,,,,,,,,,,,,,,,,,,,,,,,,,,,,,,,,,,,,,,,,,,,,,,,candle,10,0,10,0,1,,,,,,,,,,,,,,,,,,,,,,,,,,,,,,,
,,,,,,,,,,,,,,,89168,001,2022-04-25_17h11.06.832,SPAMnetsValid,2021.1.4,MacIntel,59.97361161,,,,,,,,,,,,,,,,,,,,,,,,,,,,,,,,,,,,,,,,,,,,,,,,,,,,,candle,11,0,11,0,1,,,,,,,,,,,,,,,,,,,,,,,,,,,,,,,
,,,,,,,,,,,,,,,89168,001,2022-04-25_17h11.06.832,SPAMnetsValid,2021.1.4,MacIntel,59.97361161,,,,,,,,,,,,,,,,,,,,,,,,,,,,,,,,,,,,,,,,,,,,,,,,,,,,,candle,12,0,12,0,1,,,,,,,,,,,,,,,,,,,,,,,,,,,,,,,
,,,,,,,,,,,,,,,89168,001,2022-04-25_17h11.06.832,SPAMnetsValid,2021.1.4,MacIntel,59.97361161,,,,,,,,,,,,,,,,,,,,,,,,,,,,,,,,,,,,,,,,,,,,,,,,,,,,,candle,13,0,13,0,1,,,,,,,,,,,,,,,,,,,,,,,,,,,,,,,
,,,,,,,,,,,,,,,89168,001,2022-04-25_17h11.06.832,SPAMnetsValid,2021.1.4,MacIntel,59.97361161,,,,,,,,,,,,,,,,,,,,,,,,,,,,,,,,,,,,,,,,,,,,,,,,,,,,,,,,,,,0,2,2,1,1,candle,,,,,,,,,,,,,,,,,,,,,,,,,
,,,,,,,,,,,,,,,89168,001,2022-04-25_17h11.06.832,SPAMnetsValid,2021.1.4,MacIntel,59.97361161,,,,,,,,,,,,,,,,,,,,,,,,,,,,,,,,,,,,,,,,,,,,,,,,,,,,,,,,,,,,,,,,,cat,Animals,0,0,0,0,1,,,,,,,,,,,,,,,,,,
,,,,,,,,,,,,,,,89168,001,2022-04-25_17h11.06.832,SPAMnetsValid,2021.1.4,MacIntel,59.97361161,,,,,,,,,,,,,,,,,,,,,,,,,,,,,,,,,,,,,,,,,,,,,,,,,,,,,,,,,,,,,,,,,dog,Animals,1,0,1,0,1,,,,,,,,,,,,,,,,,,
,,,,,,,,,,,,,,,89168,001,2022-04-25_17h11.06.832,SPAMnetsValid,2021.1.4,MacIntel,59.97361161,,,,,,,,,,,,,,,,,,,,,,,,,,,,,,,,,,,,,,,,,,,,,,,,,,,,,,,,,,,,,,,,,hippo,Animals,2,0,2,0,1,,,,,,,,,,,,,,,,,,
,,,,,,,,,,,,,,,89168,001,2022-04-25_17h11.06.832,SPAMnetsValid,2021.1.4,MacIntel,59.97361161,,,,,,,,,,,,,,,,,,,,,,,,,,,,,,,,,,,,,,,,,,,,,,,,,,,,,,,,,,,,,,,,,elephant,Animals,3,0,3,0,1,,,,,,,,,,,,,,,,,,
,,,,,,,,,,,,,,,89168,001,2022-04-25_17h11.06.832,SPAMnetsValid,2021.1.4,MacIntel,59.97361161,,,,,,,,,,,,,,,,,,,,,,,,,,,,,,,,,,,,,,,,,,,,,,,,,,,,,,,,,,,,,,,,,ants,Animals,4,0,4,0,1,,,,,,,,,,,,,,,,,,
,,,,,,,,,,,,,,,89168,001,2022-04-25_17h11.06.832,SPAMnetsValid,2021.1.4,MacIntel,59.97361161,,,,,,,,,,,,,,,,,,,,,,,,,,,,,,,,,,,,,,,,,,,,,,,,,,,,,,,,,,,,,,,,,lizards,Animals,5,0,5,0,1,,,,,,,,,,,,,,,,,,
,,,,,,,,,,,,,,,89168,001,2022-04-25_17h11.06.832,SPAMnetsValid,2021.1.4,MacIntel,59.97361161,,,,,,,,,,,,,,,,,,,,,,,,,,,,,,,,,,,,,,,,,,,,,,,,,,,,,,,,,,,,,,,,,snakes,Animals,6,0,6,0,1,,,,,,,,,,,,,,,,,,
,,,,,,,,,,,,,,,89168,001,2022-04-25_17h11.06.832,SPAMnetsValid,2021.1.4,MacIntel,59.97361161,,,,,,,,,,,,,,,,,,,,,,,,,,,,,,,,,,,,,,,,,,,,,,,,,,,,,,,,,,,,,,,,,tigers,Animals,7,0,7,0,1,,,,,,,,,,,,,,,,,,
,,,,,,,,,,,,,,,89168,001,2022-04-25_17h11.06.832,SPAMnetsValid,2021.1.4,MacIntel,59.97361161,,,,,,,,,,,,,,,,,,,,,,,,,,,,,,,,,,,,,,,,,,,,,,,,,,,,,,,,,,,,,,,,,puma,Animals,8,0,8,0,1,,,,,,,,,,,,,,,,,,
,,,,,,,,,,,,,,,89168,001,2022-04-25_17h11.06.832,SPAMnetsValid,2021.1.4,MacIntel,59.97361161,,,,,,,,,,,,,,,,,,,,,,,,,,,,,,,,,,,,,,,,,,,,,,,,,,,,,,,,,,,,,,,,,boar,Animals,9,0,9,0,1,,,,,,,,,,,,,,,,,,
,,,,,,,,,,,,,,,89168,001,2022-04-25_17h11.06.832,SPAMnetsValid,2021.1.4,MacIntel,59.97361161,,,,,,,,,,,,,,,,,,,,,,,,,,,,,,,,,,,,,,,,,,,,,,,,,,,,,,,,,,,,,,,,,pig,Animals,10,0,10,0,1,,,,,,,,,,,,,,,,,,
,,,,,,,,,,,,,,,89168,001,2022-04-25_17h11.06.832,SPAMnetsValid,2021.1.4,MacIntel,59.97361161,,,,,,,,,,,,,,,,,,,,,,,,,,,,,,,,,,,,,,,,,,,,,,,,,,,,,,,,,,,,,,,,,horse,Animals,11,0,11,0,1,,,,,,,,,,,,,,,,,,
,,,,,,,,,,,,,,,89168,001,2022-04-25_17h11.06.832,SPAMnetsValid,2021.1.4,MacIntel,59.97361161,,,,,,,,,,,,,,,,,,,,,,,,,,,,,,,,,,,,,,,,,,,,,,,,,,,,,,,,,,,,,,,,,bull,Animals,12,0,12,0,1,,,,,,,,,,,,,,,,,,
,,,,,,,,,,,,,,,89168,001,2022-04-25_17h11.06.832,SPAMnetsValid,2021.1.4,MacIntel,59.97361161,,,,,,,,,,,,,,,,,,,,,,,,,,,,,,,,,,,,,,,,,,,,,,,,,,,,,,,,,,,,,,,,,cow,Animals,13,0,13,0,1,,,,,,,,,,,,,,,,,,
,,,,,,,,,,,,,,,89168,001,2022-04-25_17h11.06.832,SPAMnetsValid,2021.1.4,MacIntel,59.97361161,,,,,,,,,,,,,,,,,,,,,,,,,,,,,,,,,,,,,,,,,,,,,,,,,,,,,,,,,,,,,,,,,tuna,Animals,14,0,14,0,1,,,,,,,,,,,,,,,,,,
,,,,,,,,,,,,,,,89168,001,2022-04-25_17h11.06.832,SPAMnetsValid,2021.1.4,MacIntel,59.97361161,,,,,,,,,,,,,,,,,,,,,,,,,,,,,,,,,,,,,,,,,,,,,,,,,,,,,,,,,,,,,,,,,fish,Animals,15,0,15,0,1,,,,,,,,,,,,,,,,,,
,,,,,,,,,,,,,,,89168,001,2022-04-25_17h11.06.832,SPAMnetsValid,2021.1.4,MacIntel,59.97361161,,,,,,,,,,,,,,,,,,,,,,,,,,,,,,,,,,,,,,,,,,,,,,,,,,,,,,,,,,,,,,,,,mollusks,Animals,16,0,16,0,1,,,,,,,,,,,,,,,,,,
,,,,,,,,,,,,,,,89168,001,2022-04-25_17h11.06.832,SPAMnetsValid,2021.1.4,MacIntel,59.97361161,,,,,,,,,,,,,,,,,,,,,,,,,,,,,,,,,,,,,,,,,,,,,,,,,,,,,,,,,,,,,,,,,shellfish,Animals,17,0,17,0,1,,,,,,,,,,,,,,,,,,
,,,,,,,,,,,,,,,89168,001,2022-04-25_17h11.06.832,SPAMnetsValid,2021.1.4,MacIntel,59.97361161,,,,,,,,,,,,,,,,,,,,,,,,,,,,,,,,,,,,,,,,,,,,,,,,,,,,,,,,,,,,,,,,,anteater,Animals,18,0,18,0,1,,,,,,,,,,,,,,,,,,
,,,,,,,,,,,,,,,89168,001,2022-04-25_17h11.06.832,SPAMnetsValid,2021.1.4,MacIntel,59.97361161,,,,,,,,,,,,,,,,,,,,,,,,,,,,,,,,,,,,,,,,,,,,,,,,,,,,,,,,,,,,,,,,,rat,Animals,19,0,19,0,1,,,,,,,,,,,,,,,,,,
,,,,,,,,,,,,,,,89168,001,2022-04-25_17h11.06.832,SPAMnetsValid,2021.1.4,MacIntel,59.97361161,,,,,,,,,,,,,,,,,,,,,,,,,,,,,,,,,,,,,,,,,,,,,,,,,,,,,,,,,,,,,,,,,bat,Animals,20,0,20,0,1,,,,,,,,,,,,,,,,,,
,,,,,,,,,,,,,,,89168,001,2022-04-25_17h11.06.832,SPAMnetsValid,2021.1.4,MacIntel,59.97361161,,,,,,,,,,,,,,,,,,,,,,,,,,,,,,,,,,,,,,,,,,,,,,,,,,,,,,,,,,,,,,,,,mouse,Animals,21,0,21,0,1,,,,,,,,,,,,,,,,,,
,,,,,,,,,,,,,,,89168,001,2022-04-25_17h11.06.832,SPAMnetsValid,2021.1.4,MacIntel,59.97361161,,,,,,,,,,,,,,,,,,,,,,,,,,,,,,,,,,,,,,,,,,,,,,,,,,,,,,,,,,,,,,,,,kitten,Animals,22,0,22,0,1,,,,,,,,,,,,,,,,,,
,,,,,,,,,,,,,,,89168,001,2022-04-25_17h11.06.832,SPAMnetsValid,2021.1.4,MacIntel,59.97361161,,,,,,,,,,,,,,,,,,,,,,,,,,,,,,,,,,,,,,,,,,,,,,,,,,,,,,,,,,,,,,,,,puppy,Animals,23,0,23,0,1,,,,,,,,,,,,,,,,,,
,,,,,,,,,,,,,,,89168,001,2022-04-25_17h11.06.832,SPAMnetsValid,2021.1.4,MacIntel,59.97361161,,,,,,,,,,,,,,,,,,,,,,,,,,,,,,,,,,,,,,,,,,,,,,,,,,,,,,,,,,,,,,,,,spiders,Animals,24,0,24,0,1,,,,,,,,,,,,,,,,,,
,,,,,,,,,,,,,,,89168,001,2022-04-25_17h11.06.832,SPAMnetsValid,2021.1.4,MacIntel,59.97361161,,,,,,,,,,,,,,,,,,,,,,,,,,,,,,,,,,,,,,,,,,,,,,,,,,,,,,,,,,,,,,,,,crickets,Animals,25,0,25,0,1,,,,,,,,,,,,,,,,,,
,,,,,,,,,,,,,,,89168,001,2022-04-25_17h11.06.832,SPAMnetsValid,2021.1.4,MacIntel,59.97361161,,,,,,,,,,,,,,,,,,,,,,,,,,,,,,,,,,,,,,,,,,,,,,,,,,,,,,,,,,,,,,,,,sheep,Animals,26,0,26,0,1,,,,,,,,,,,,,,,,,,
,,,,,,,,,,,,,,,89168,001,2022-04-25_17h11.06.832,SPAMnetsValid,2021.1.4,MacIntel,59.97361161,,,,,,,,,,,,,,,,,,,,,,,,,,,,,,,,,,,,,,,,,,,,,,,,,,,,,,,,,,,,,,,,,goats,Animals,27,0,27,0,1,,,,,,,,,,,,,,,,,,
,,,,,,,,,,,,,,,89168,001,2022-04-25_17h11.06.832,SPAMnetsValid,2021.1.4,MacIntel,59.97361161,,,,,,,,,,,,,,,,,,,,,,,,,,,,,,,,,,,,,,,,,,,,,,,,,,,,,,,,,,,,,,,,,ducks,Animals,28,0,28,0,1,,,,,,,,,,,,,,,,,,
,,,,,,,,,,,,,,,89168,001,2022-04-25_17h11.06.832,SPAMnetsValid,2021.1.4,MacIntel,59.97361161,,,,,,,,,,,,,,,,,,,,,,,,,,,,,,,,,,,,,,,,,,,,,,,,,,,,,,,,,,,,,,,,,chicken,Animals,29,0,29,0,1,,,,,,,,,,,,,,,,,,
,,,,,,,,,,,,,,,89168,001,2022-04-25_17h11.06.832,SPAMnetsValid,2021.1.4,MacIntel,59.97361161,,,,,,,,,,,,,,,,,,,,,,,,,,,,,,,,,,,,,,,,,,,,,,,,,,,,,,,,,,,,,,,,,birds,Animals,30,0,30,0,1,,,,,,,,,,,,,,,,,,
,,,,,,,,,,,,,,,89168,001,2022-04-25_17h11.06.832,SPAMnetsValid,2021.1.4,MacIntel,59.97361161,,,,,,,,,,,,,,,,,,,,,,,,,,,,,,,,,,,,,,,,,,,,,,,,,,,,,,,,,,,,,,,,,whale,Animals,31,0,31,0,1,,,,,,,,,,,,,,,,,,
,,,,,,,,,,,,,,,89168,001,2022-04-25_17h11.06.832,SPAMnetsValid,2021.1.4,MacIntel,59.97361161,,,,,,,,,,,,,,,,,,,,,,,,,,,,,,,,,,,,,,,,,,,,,,,,,,,,,,,,,,,,,,,,,shark,Animals,32,0,32,0,1,,,,,,,,,,,,,,,,,,
,,,,,,,,,,,,,,,89168,001,2022-04-25_17h11.06.832,SPAMnetsValid,2021.1.4,MacIntel,59.97361161,,,,,,,,,,,,,,,,,,,,,,,,,,,,,,,,,,,,,,,,,,,,,,,,,,,,,,,,,,,,,,,,,,,,,,,,0,0,0,0,1,Animals,,,,,,,,,,,,
,,,,,,,,,,,,,,,89168,001,2022-04-25_17h11.06.832,SPAMnetsValid,2021.1.4,MacIntel,59.97361161,,,,,,,,,,,,,,,,,,,,,,,,,,,,,,,,,,,,,,,,,,,,,,,,,,,,,,,,,,,,,,,,,,,,,,,,,,,,,,4,5.9916,0,0,0,0,1,"I enjoy concentrating on a fantasy or daydream and exploring all its possibilities, letting it grow and develop.",0,1,,
,,,,,,,,,,,,,,,89168,001,2022-04-25_17h11.06.832,SPAMnetsValid,2021.1.4,MacIntel,59.97361161,,,,,,,,,,,,,,,,,,,,,,,,,,,,,,,,,,,,,,,,,,,,,,,,,,,,,,,,,,,,,,,,,,,,,,,,,,,,,,4,1.5424,0,1,1,1,1,I think it's interesting to learn and develop new hobbies.,0,2,,
,,,,,,,,,,,,,,,89168,001,2022-04-25_17h11.06.832,SPAMnetsValid,2021.1.4,MacIntel,59.97361161,,,,,,,,,,,,,,,,,,,,,,,,,,,,,,,,,,,,,,,,,,,,,,,,,,,,,,,,,,,,,,,,,,,,,,,,,,,,,,4,1.3124,0,2,2,2,1,I am intrigued by the patterns I find in art and nature.,0,3,,
,,,,,,,,,,,,,,,89168,001,2022-04-25_17h11.06.832,SPAMnetsValid,2021.1.4,MacIntel,59.97361161,,,,,,,,,,,,,,,,,,,,,,,,,,,,,,,,,,,,,,,,,,,,,,,,,,,,,,,,,,,,,,,,,,,,,,,,,,,,,,3,2.5953,0,3,3,3,1,I believe letting students hear controversial speakers can only confuse and mislead them.,1,4,,
,,,,,,,,,,,,,,,89168,001,2022-04-25_17h11.06.832,SPAMnetsValid,2021.1.4,MacIntel,59.97361161,,,,,,,,,,,,,,,,,,,,,,,,,,,,,,,,,,,,,,,,,,,,,,,,,,,,,,,,,,,,,,,,,,,,,,,,,,,,,,3,0.3617,0,4,4,4,1,Poetry has little or no effect on me.,1,5,,
,,,,,,,,,,,,,,,89168,001,2022-04-25_17h11.06.832,SPAMnetsValid,2021.1.4,MacIntel,59.97361161,,,,,,,,,,,,,,,,,,,,,,,,,,,,,,,,,,,,,,,,,,,,,,,,,,,,,,,,,,,,,,,,,,,,,,,,,,,,,,3,0.8632,0,5,5,5,1,I would have difficulty just letting my mind wander without control or guidance.,1,6,,
,,,,,,,,,,,,,,,89168,001,2022-04-25_17h11.06.832,SPAMnetsValid,2021.1.4,MacIntel,59.97361161,,,,,,,,,,,,,,,,,,,,,,,,,,,,,,,,,,,,,,,,,,,,,,,,,,,,,,,,,,,,,,,,,,,,,,,,,,,,,,3,1.0792,0,6,6,6,1,I seldom notice the moods or feelings that different environments produce.,1,7,,
,,,,,,,,,,,,,,,89168,001,2022-04-25_17h11.06.832,SPAMnetsValid,2021.1.4,MacIntel,59.97361161,,,,,,,,,,,,,,,,,,,,,,,,,,,,,,,,,,,,,,,,,,,,,,,,,,,,,,,,,,,,,,,,,,,,,,,,,,,,,,4,2.2449,0,7,7,7,1,I experience a wide range of emotions or feelings.,0,8,,
,,,,,,,,,,,,,,,89168,001,2022-04-25_17h11.06.832,SPAMnetsValid,2021.1.4,MacIntel,59.97361161,,,,,,,,,,,,,,,,,,,,,,,,,,,,,,,,,,,,,,,,,,,,,,,,,,,,,,,,,,,,,,,,,,,,,,,,,,,,,,1,2.614,0,8,8,8,1,"Sometimes when I am reading poetry or looking at a work of art, I feel a chill or wave of excitement.",0,9,,
,,,,,,,,,,,,,,,89168,001,2022-04-25_17h11.06.832,SPAMnetsValid,2021.1.4,MacIntel,59.97361161,,,,,,,,,,,,,,,,,,,,,,,,,,,,,,,,,,,,,,,,,,,,,,,,,,,,,,,,,,,,,,,,,,,,,,,,,,,,,,4,3.9975,0,9,9,9,1,I have little interest in speculating on the nature of the universe or the human condition.,1,10,,
,,,,,,,,,,,,,,,89168,001,2022-04-25_17h11.06.832,SPAMnetsValid,2021.1.4,MacIntel,59.97361161,,,,,,,,,,,,,,,,,,,,,,,,,,,,,,,,,,,,,,,,,,,,,,,,,,,,,,,,,,,,,,,,,,,,,,,,,,,,,,4,1.8449,0,10,10,10,1,I have a lot of intellectual curiosity.,0,11,,
,,,,,,,,,,,,,,,89168,001,2022-04-25_17h11.06.832,SPAMnetsValid,2021.1.4,MacIntel,59.97361161,,,,,,,,,,,,,,,,,,,,,,,,,,,,,,,,,,,,,,,,,,,,,,,,,,,,,,,,,,,,,,,,,,,,,,,,,,,,,,3,0.9596,0,11,11,11,1,I often enjoy playing with theories or abstract ideas.,0,12,,
,,,,,,,,,,,,,,,89168,001,2022-04-25_17h11.06.832,SPAMnetsValid,2021.1.4,MacIntel,59.97361161,,,,,,,,,,,,,,,,,,,,,,,,,,,,,,,,,,,,,,,,,,,,,,,,,,,,,,,,,,,,,,,,,,,,,,,,,,,,,,,,,,,,,,,,return,5.4359
