key_resp_3.keys,key_resp_3.rt,slider.response,slider.rt,rjt_rating,rjt_RT,trials_22.thisRepN,trials_22.thisTrialN,trials_22.thisN,trials_22.thisIndex,trials_22.ran,rjt_order,word1,word2,attention,participant,session,date,expName,psychopyVersion,OS,frameRate,trials_99.thisRepN,trials_99.thisTrialN,trials_99.thisN,trials_99.thisIndex,trials_99.ran,trials_5.thisRepN,trials_5.thisTrialN,trials_5.thisN,trials_5.thisIndex,trials_5.ran,repOne,repTwo,slider_2.response,slider_2.rt,trials_24.thisRepN,trials_24.thisTrialN,trials_24.thisN,trials_24.thisIndex,trials_24.ran,trials_4.thisRepN,trials_4.thisTrialN,trials_4.thisN,trials_4.thisIndex,trials_4.ran,slider_extend_2.response,slider_extend_2.rt,trials_6.thisRepN,trials_6.thisTrialN,trials_6.thisN,trials_6.thisIndex,trials_6.ran,vCue2,R1,R2,R3,R4,correct,sliderVocab.response,sliderVocab.rt,trials_7.thisRepN,trials_7.thisTrialN,trials_7.thisN,trials_7.thisIndex,trials_7.ran,VocabCue,VR1,VR2,VR3,VR4,VR5,VocabCorrect,AUT_resp,AUT_label,trials.thisRepN,trials.thisTrialN,trials.thisN,trials.thisIndex,trials.ran,trials_2.thisRepN,trials_2.thisTrialN,trials_2.thisN,trials_2.thisIndex,trials_2.ran,aut_prompt,VF_response,VF_tag,trials_16.thisRepN,trials_16.thisTrialN,trials_16.thisN,trials_16.thisIndex,trials_16.ran,trials_17.thisRepN,trials_17.thisTrialN,trials_17.thisN,trials_17.thisIndex,trials_17.ran,VFcond,open_slider.response,open_slider.rt,trials_3.thisRepN,trials_3.thisTrialN,trials_3.thisN,trials_3.thisIndex,trials_3.ran,OpenQ,Rev,OPEN_ORDER,key_resp_2.keys,key_resp_2.rt
return,1.6386,7,2.6555,7,2.6555,0,0,0,90,1,95,broom,refrigerator,,89191,001,2022-04-21_14h09.32.932,SPAMnetsValid,2021.1.4,Win32,60.89392279,,,,,,,,,,,,,,,,,,,,,,,,,,,,,,,,,,,,,,,,,,,,,,,,,,,,,,,,,,,,,,,,,,,,,,,,,,,,,,,,,,,,,,,,,
,,9,3.5423,9,3.5423,0,1,1,58,1,94,kitchen,microwave,,89191,001,2022-04-21_14h09.32.932,SPAMnetsValid,2021.1.4,Win32,60.89392279,,,,,,,,,,,,,,,,,,,,,,,,,,,,,,,,,,,,,,,,,,,,,,,,,,,,,,,,,,,,,,,,,,,,,,,,,,,,,,,,,,,,,,,,,
,,1,2.8243,1,2.8243,0,2,2,84,1,91,microwave,rose,,89191,001,2022-04-21_14h09.32.932,SPAMnetsValid,2021.1.4,Win32,60.89392279,,,,,,,,,,,,,,,,,,,,,,,,,,,,,,,,,,,,,,,,,,,,,,,,,,,,,,,,,,,,,,,,,,,,,,,,,,,,,,,,,,,,,,,,,
,,1,2.085,1,2.085,0,3,3,31,1,33,oven,yogurt,,89191,001,2022-04-21_14h09.32.932,SPAMnetsValid,2021.1.4,Win32,60.89392279,,,,,,,,,,,,,,,,,,,,,,,,,,,,,,,,,,,,,,,,,,,,,,,,,,,,,,,,,,,,,,,,,,,,,,,,,,,,,,,,,,,,,,,,,
,,1,1.4155,1,1.4155,0,4,4,70,1,5,oven,tree,,89191,001,2022-04-21_14h09.32.932,SPAMnetsValid,2021.1.4,Win32,60.89392279,,,,,,,,,,,,,,,,,,,,,,,,,,,,,,,,,,,,,,,,,,,,,,,,,,,,,,,,,,,,,,,,,,,,,,,,,,,,,,,,,,,,,,,,,
,,1,3.7707,1,3.7707,0,5,5,55,1,1,rose,yogurt,,89191,001,2022-04-21_14h09.32.932,SPAMnetsValid,2021.1.4,Win32,60.89392279,,,,,,,,,,,,,,,,,,,,,,,,,,,,,,,,,,,,,,,,,,,,,,,,,,,,,,,,,,,,,,,,,,,,,,,,,,,,,,,,,,,,,,,,,
,,3,2.5481,3,2.5481,0,6,6,35,1,55,tomato,tree,,89191,001,2022-04-21_14h09.32.932,SPAMnetsValid,2021.1.4,Win32,60.89392279,,,,,,,,,,,,,,,,,,,,,,,,,,,,,,,,,,,,,,,,,,,,,,,,,,,,,,,,,,,,,,,,,,,,,,,,,,,,,,,,,,,,,,,,,
,,6,3.4478,6,3.4478,0,7,7,63,1,21,cake,onion,,89191,001,2022-04-21_14h09.32.932,SPAMnetsValid,2021.1.4,Win32,60.89392279,,,,,,,,,,,,,,,,,,,,,,,,,,,,,,,,,,,,,,,,,,,,,,,,,,,,,,,,,,,,,,,,,,,,,,,,,,,,,,,,,,,,,,,,,
,,4,4.2009,4,4.2009,0,8,8,22,1,16,chocolate,flower,,89191,001,2022-04-21_14h09.32.932,SPAMnetsValid,2021.1.4,Win32,60.89392279,,,,,,,,,,,,,,,,,,,,,,,,,,,,,,,,,,,,,,,,,,,,,,,,,,,,,,,,,,,,,,,,,,,,,,,,,,,,,,,,,,,,,,,,,
,,5,5.0425,5,5.0425,0,9,9,39,1,15,onion,oven,,89191,001,2022-04-21_14h09.32.932,SPAMnetsValid,2021.1.4,Win32,60.89392279,,,,,,,,,,,,,,,,,,,,,,,,,,,,,,,,,,,,,,,,,,,,,,,,,,,,,,,,,,,,,,,,,,,,,,,,,,,,,,,,,,,,,,,,,
,,3,2.2789,3,2.2789,0,10,10,0,1,53,garden,pretzel,,89191,001,2022-04-21_14h09.32.932,SPAMnetsValid,2021.1.4,Win32,60.89392279,,,,,,,,,,,,,,,,,,,,,,,,,,,,,,,,,,,,,,,,,,,,,,,,,,,,,,,,,,,,,,,,,,,,,,,,,,,,,,,,,,,,,,,,,
,,1,6.7906,1,6.7906,0,11,11,25,1,23,flower,microwave,,89191,001,2022-04-21_14h09.32.932,SPAMnetsValid,2021.1.4,Win32,60.89392279,,,,,,,,,,,,,,,,,,,,,,,,,,,,,,,,,,,,,,,,,,,,,,,,,,,,,,,,,,,,,,,,,,,,,,,,,,,,,,,,,,,,,,,,,
,,7,2.6693,7,2.6693,0,12,12,94,1,68,flower,tomato,,89191,001,2022-04-21_14h09.32.932,SPAMnetsValid,2021.1.4,Win32,60.89392279,,,,,,,,,,,,,,,,,,,,,,,,,,,,,,,,,,,,,,,,,,,,,,,,,,,,,,,,,,,,,,,,,,,,,,,,,,,,,,,,,,,,,,,,,
,,4,1.9001,4,1.9001,0,13,13,14,1,64,chocolate,garden,,89191,001,2022-04-21_14h09.32.932,SPAMnetsValid,2021.1.4,Win32,60.89392279,,,,,,,,,,,,,,,,,,,,,,,,,,,,,,,,,,,,,,,,,,,,,,,,,,,,,,,,,,,,,,,,,,,,,,,,,,,,,,,,,,,,,,,,,
,,4,2.7784,4,2.7784,0,14,14,57,1,62,kitchen,rose,,89191,001,2022-04-21_14h09.32.932,SPAMnetsValid,2021.1.4,Win32,60.89392279,,,,,,,,,,,,,,,,,,,,,,,,,,,,,,,,,,,,,,,,,,,,,,,,,,,,,,,,,,,,,,,,,,,,,,,,,,,,,,,,,,,,,,,,,
,,8,3.1719,8,3.1719,0,15,15,33,1,32,cake,microwave,,89191,001,2022-04-21_14h09.32.932,SPAMnetsValid,2021.1.4,Win32,60.89392279,,,,,,,,,,,,,,,,,,,,,,,,,,,,,,,,,,,,,,,,,,,,,,,,,,,,,,,,,,,,,,,,,,,,,,,,,,,,,,,,,,,,,,,,,
,,9,2.0044,9,2.0044,0,16,16,75,1,69,carrot,refrigerator,,89191,001,2022-04-21_14h09.32.932,SPAMnetsValid,2021.1.4,Win32,60.89392279,,,,,,,,,,,,,,,,,,,,,,,,,,,,,,,,,,,,,,,,,,,,,,,,,,,,,,,,,,,,,,,,,,,,,,,,,,,,,,,,,,,,,,,,,
,,9,1.9198,9,1.9198,0,17,17,21,1,56,cactus,tree,,89191,001,2022-04-21_14h09.32.932,SPAMnetsValid,2021.1.4,Win32,60.89392279,,,,,,,,,,,,,,,,,,,,,,,,,,,,,,,,,,,,,,,,,,,,,,,,,,,,,,,,,,,,,,,,,,,,,,,,,,,,,,,,,,,,,,,,,
,,7,3.7003,7,3.7003,0,18,18,36,1,12,cookie,yogurt,,89191,001,2022-04-21_14h09.32.932,SPAMnetsValid,2021.1.4,Win32,60.89392279,,,,,,,,,,,,,,,,,,,,,,,,,,,,,,,,,,,,,,,,,,,,,,,,,,,,,,,,,,,,,,,,,,,,,,,,,,,,,,,,,,,,,,,,,
,,7,2.7154,7,2.7154,0,19,19,48,1,66,melon,yogurt,,89191,001,2022-04-21_14h09.32.932,SPAMnetsValid,2021.1.4,Win32,60.89392279,,,,,,,,,,,,,,,,,,,,,,,,,,,,,,,,,,,,,,,,,,,,,,,,,,,,,,,,,,,,,,,,,,,,,,,,,,,,,,,,,,,,,,,,,
,,4,2.7033,4,2.7033,0,20,20,27,1,72,broom,onion,,89191,001,2022-04-21_14h09.32.932,SPAMnetsValid,2021.1.4,Win32,60.89392279,,,,,,,,,,,,,,,,,,,,,,,,,,,,,,,,,,,,,,,,,,,,,,,,,,,,,,,,,,,,,,,,,,,,,,,,,,,,,,,,,,,,,,,,,
,,9,2.2695,9,2.2695,0,21,21,76,1,36,broom,kitchen,,89191,001,2022-04-21_14h09.32.932,SPAMnetsValid,2021.1.4,Win32,60.89392279,,,,,,,,,,,,,,,,,,,,,,,,,,,,,,,,,,,,,,,,,,,,,,,,,,,,,,,,,,,,,,,,,,,,,,,,,,,,,,,,,,,,,,,,,
,,9,1.6204,9,1.6204,0,22,22,62,1,18,onion,refrigerator,,89191,001,2022-04-21_14h09.32.932,SPAMnetsValid,2021.1.4,Win32,60.89392279,,,,,,,,,,,,,,,,,,,,,,,,,,,,,,,,,,,,,,,,,,,,,,,,,,,,,,,,,,,,,,,,,,,,,,,,,,,,,,,,,,,,,,,,,
,,6,2.042,6,2.042,0,23,23,3,1,49,flower,strawberry,,89191,001,2022-04-21_14h09.32.932,SPAMnetsValid,2021.1.4,Win32,60.89392279,,,,,,,,,,,,,,,,,,,,,,,,,,,,,,,,,,,,,,,,,,,,,,,,,,,,,,,,,,,,,,,,,,,,,,,,,,,,,,,,,,,,,,,,,
,,8,1.6419,8,1.6419,0,24,24,34,1,29,chocolate,melon,,89191,001,2022-04-21_14h09.32.932,SPAMnetsValid,2021.1.4,Win32,60.89392279,,,,,,,,,,,,,,,,,,,,,,,,,,,,,,,,,,,,,,,,,,,,,,,,,,,,,,,,,,,,,,,,,,,,,,,,,,,,,,,,,,,,,,,,,
,,6,2.0783,6,2.0783,0,25,25,77,1,7,melon,tree,,89191,001,2022-04-21_14h09.32.932,SPAMnetsValid,2021.1.4,Win32,60.89392279,,,,,,,,,,,,,,,,,,,,,,,,,,,,,,,,,,,,,,,,,,,,,,,,,,,,,,,,,,,,,,,,,,,,,,,,,,,,,,,,,,,,,,,,,
,,2,1.5506,2,1.5506,0,26,26,56,1,78,cookie,rose,,89191,001,2022-04-21_14h09.32.932,SPAMnetsValid,2021.1.4,Win32,60.89392279,,,,,,,,,,,,,,,,,,,,,,,,,,,,,,,,,,,,,,,,,,,,,,,,,,,,,,,,,,,,,,,,,,,,,,,,,,,,,,,,,,,,,,,,,
,,3,1.3621,3,1.3621,0,27,27,47,1,73,broom,chocolate,,89191,001,2022-04-21_14h09.32.932,SPAMnetsValid,2021.1.4,Win32,60.89392279,,,,,,,,,,,,,,,,,,,,,,,,,,,,,,,,,,,,,,,,,,,,,,,,,,,,,,,,,,,,,,,,,,,,,,,,,,,,,,,,,,,,,,,,,
,,1,1.5541,1,1.5541,0,28,28,32,1,40,broom,cake,,89191,001,2022-04-21_14h09.32.932,SPAMnetsValid,2021.1.4,Win32,60.89392279,,,,,,,,,,,,,,,,,,,,,,,,,,,,,,,,,,,,,,,,,,,,,,,,,,,,,,,,,,,,,,,,,,,,,,,,,,,,,,,,,,,,,,,,,
,,1,1.4196,1,1.4196,0,29,29,46,1,41,broom,cactus,,89191,001,2022-04-21_14h09.32.932,SPAMnetsValid,2021.1.4,Win32,60.89392279,,,,,,,,,,,,,,,,,,,,,,,,,,,,,,,,,,,,,,,,,,,,,,,,,,,,,,,,,,,,,,,,,,,,,,,,,,,,,,,,,,,,,,,,,
,,1,1.5293,1,1.5293,0,30,30,1,1,31,cactus,pretzel,,89191,001,2022-04-21_14h09.32.932,SPAMnetsValid,2021.1.4,Win32,60.89392279,,,,,,,,,,,,,,,,,,,,,,,,,,,,,,,,,,,,,,,,,,,,,,,,,,,,,,,,,,,,,,,,,,,,,,,,,,,,,,,,,,,,,,,,,
,,3,6.6903,3,6.6903,0,31,31,73,1,50,carrot,rose,,89191,001,2022-04-21_14h09.32.932,SPAMnetsValid,2021.1.4,Win32,60.89392279,,,,,,,,,,,,,,,,,,,,,,,,,,,,,,,,,,,,,,,,,,,,,,,,,,,,,,,,,,,,,,,,,,,,,,,,,,,,,,,,,,,,,,,,,
,,2,1.7229,2,1.7229,0,32,32,40,1,74,broom,pretzel,,89191,001,2022-04-21_14h09.32.932,SPAMnetsValid,2021.1.4,Win32,60.89392279,,,,,,,,,,,,,,,,,,,,,,,,,,,,,,,,,,,,,,,,,,,,,,,,,,,,,,,,,,,,,,,,,,,,,,,,,,,,,,,,,,,,,,,,,
,,9,1.7207,9,1.7207,0,33,33,51,1,47,onion,tomato,,89191,001,2022-04-21_14h09.32.932,SPAMnetsValid,2021.1.4,Win32,60.89392279,,,,,,,,,,,,,,,,,,,,,,,,,,,,,,,,,,,,,,,,,,,,,,,,,,,,,,,,,,,,,,,,,,,,,,,,,,,,,,,,,,,,,,,,,
,,1,2.069,1,2.069,0,34,34,23,1,65,broom,garden,,89191,001,2022-04-21_14h09.32.932,SPAMnetsValid,2021.1.4,Win32,60.89392279,,,,,,,,,,,,,,,,,,,,,,,,,,,,,,,,,,,,,,,,,,,,,,,,,,,,,,,,,,,,,,,,,,,,,,,,,,,,,,,,,,,,,,,,,
,,6,1.9387,6,1.9387,0,35,35,41,1,19,microwave,pretzel,,89191,001,2022-04-21_14h09.32.932,SPAMnetsValid,2021.1.4,Win32,60.89392279,,,,,,,,,,,,,,,,,,,,,,,,,,,,,,,,,,,,,,,,,,,,,,,,,,,,,,,,,,,,,,,,,,,,,,,,,,,,,,,,,,,,,,,,,
,,5,2.1858,5,2.1858,0,36,36,17,1,27,cactus,cookie,,89191,001,2022-04-21_14h09.32.932,SPAMnetsValid,2021.1.4,Win32,60.89392279,,,,,,,,,,,,,,,,,,,,,,,,,,,,,,,,,,,,,,,,,,,,,,,,,,,,,,,,,,,,,,,,,,,,,,,,,,,,,,,,,,,,,,,,,
,,3,1.9726,3,1.9726,0,37,37,89,1,80,chocolate,tree,,89191,001,2022-04-21_14h09.32.932,SPAMnetsValid,2021.1.4,Win32,60.89392279,,,,,,,,,,,,,,,,,,,,,,,,,,,,,,,,,,,,,,,,,,,,,,,,,,,,,,,,,,,,,,,,,,,,,,,,,,,,,,,,,,,,,,,,,
,,8,6.7211,8,6.7211,0,38,38,44,1,25,carrot,onion,,89191,001,2022-04-21_14h09.32.932,SPAMnetsValid,2021.1.4,Win32,60.89392279,,,,,,,,,,,,,,,,,,,,,,,,,,,,,,,,,,,,,,,,,,,,,,,,,,,,,,,,,,,,,,,,,,,,,,,,,,,,,,,,,,,,,,,,,
,,9,2.0604,9,2.0604,0,39,39,82,1,93,kitchen,oven,,89191,001,2022-04-21_14h09.32.932,SPAMnetsValid,2021.1.4,Win32,60.89392279,,,,,,,,,,,,,,,,,,,,,,,,,,,,,,,,,,,,,,,,,,,,,,,,,,,,,,,,,,,,,,,,,,,,,,,,,,,,,,,,,,,,,,,,,
,,4,1.902,4,1.902,0,40,40,38,1,88,cactus,melon,,89191,001,2022-04-21_14h09.32.932,SPAMnetsValid,2021.1.4,Win32,60.89392279,,,,,,,,,,,,,,,,,,,,,,,,,,,,,,,,,,,,,,,,,,,,,,,,,,,,,,,,,,,,,,,,,,,,,,,,,,,,,,,,,,,,,,,,,
,,3,3.4031,3,3.4031,0,41,41,20,1,39,melon,pretzel,,89191,001,2022-04-21_14h09.32.932,SPAMnetsValid,2021.1.4,Win32,60.89392279,,,,,,,,,,,,,,,,,,,,,,,,,,,,,,,,,,,,,,,,,,,,,,,,,,,,,,,,,,,,,,,,,,,,,,,,,,,,,,,,,,,,,,,,,
,,2,2.4503,2,2.4503,0,42,42,88,1,92,broom,flower,,89191,001,2022-04-21_14h09.32.932,SPAMnetsValid,2021.1.4,Win32,60.89392279,,,,,,,,,,,,,,,,,,,,,,,,,,,,,,,,,,,,,,,,,,,,,,,,,,,,,,,,,,,,,,,,,,,,,,,,,,,,,,,,,,,,,,,,,
,,9,2.1294,9,2.1294,0,43,43,19,1,76,garden,rose,,89191,001,2022-04-21_14h09.32.932,SPAMnetsValid,2021.1.4,Win32,60.89392279,,,,,,,,,,,,,,,,,,,,,,,,,,,,,,,,,,,,,,,,,,,,,,,,,,,,,,,,,,,,,,,,,,,,,,,,,,,,,,,,,,,,,,,,,
,,1,2.5572,1,2.5572,0,44,44,15,1,48,flower,oven,,89191,001,2022-04-21_14h09.32.932,SPAMnetsValid,2021.1.4,Win32,60.89392279,,,,,,,,,,,,,,,,,,,,,,,,,,,,,,,,,,,,,,,,,,,,,,,,,,,,,,,,,,,,,,,,,,,,,,,,,,,,,,,,,,,,,,,,,
,,7,5.3457,7,5.3457,0,45,45,68,1,24,cookie,tomato,,89191,001,2022-04-21_14h09.32.932,SPAMnetsValid,2021.1.4,Win32,60.89392279,,,,,,,,,,,,,,,,,,,,,,,,,,,,,,,,,,,,,,,,,,,,,,,,,,,,,,,,,,,,,,,,,,,,,,,,,,,,,,,,,,,,,,,,,
,,2,1.7695,2,1.7695,0,46,46,37,1,58,garden,oven,,89191,001,2022-04-21_14h09.32.932,SPAMnetsValid,2021.1.4,Win32,60.89392279,,,,,,,,,,,,,,,,,,,,,,,,,,,,,,,,,,,,,,,,,,,,,,,,,,,,,,,,,,,,,,,,,,,,,,,,,,,,,,,,,,,,,,,,,
,,1,1.5191,1,1.5191,0,47,47,45,1,10,flower,onion,,89191,001,2022-04-21_14h09.32.932,SPAMnetsValid,2021.1.4,Win32,60.89392279,,,,,,,,,,,,,,,,,,,,,,,,,,,,,,,,,,,,,,,,,,,,,,,,,,,,,,,,,,,,,,,,,,,,,,,,,,,,,,,,,,,,,,,,,
,,1,2.0582,1,2.0582,0,48,48,43,1,11,refrigerator,tree,,89191,001,2022-04-21_14h09.32.932,SPAMnetsValid,2021.1.4,Win32,60.89392279,,,,,,,,,,,,,,,,,,,,,,,,,,,,,,,,,,,,,,,,,,,,,,,,,,,,,,,,,,,,,,,,,,,,,,,,,,,,,,,,,,,,,,,,,
,,1,5.1777,1,5.1777,0,49,49,4,1,83,broom,carrot,,89191,001,2022-04-21_14h09.32.932,SPAMnetsValid,2021.1.4,Win32,60.89392279,,,,,,,,,,,,,,,,,,,,,,,,,,,,,,,,,,,,,,,,,,,,,,,,,,,,,,,,,,,,,,,,,,,,,,,,,,,,,,,,,,,,,,,,,
,,3,2.3391,3,2.3391,0,50,50,81,1,60,cactus,onion,,89191,001,2022-04-21_14h09.32.932,SPAMnetsValid,2021.1.4,Win32,60.89392279,,,,,,,,,,,,,,,,,,,,,,,,,,,,,,,,,,,,,,,,,,,,,,,,,,,,,,,,,,,,,,,,,,,,,,,,,,,,,,,,,,,,,,,,,
,,9,1.8205,9,1.8205,0,51,51,10,1,191,cake,cake,CHECK,89191,001,2022-04-21_14h09.32.932,SPAMnetsValid,2021.1.4,Win32,60.89392279,,,,,,,,,,,,,,,,,,,,,,,,,,,,,,,,,,,,,,,,,,,,,,,,,,,,,,,,,,,,,,,,,,,,,,,,,,,,,,,,,,,,,,,,,
,,6,1.7691,6,1.7691,0,52,52,74,1,70,chocolate,onion,,89191,001,2022-04-21_14h09.32.932,SPAMnetsValid,2021.1.4,Win32,60.89392279,,,,,,,,,,,,,,,,,,,,,,,,,,,,,,,,,,,,,,,,,,,,,,,,,,,,,,,,,,,,,,,,,,,,,,,,,,,,,,,,,,,,,,,,,
,,2,1.9702,2,1.9702,0,53,53,59,1,8,broom,melon,,89191,001,2022-04-21_14h09.32.932,SPAMnetsValid,2021.1.4,Win32,60.89392279,,,,,,,,,,,,,,,,,,,,,,,,,,,,,,,,,,,,,,,,,,,,,,,,,,,,,,,,,,,,,,,,,,,,,,,,,,,,,,,,,,,,,,,,,
,,1,1.5188,1,1.5188,0,54,54,79,1,86,oven,rose,,89191,001,2022-04-21_14h09.32.932,SPAMnetsValid,2021.1.4,Win32,60.89392279,,,,,,,,,,,,,,,,,,,,,,,,,,,,,,,,,,,,,,,,,,,,,,,,,,,,,,,,,,,,,,,,,,,,,,,,,,,,,,,,,,,,,,,,,
,,7,1.9725,7,1.9725,0,55,55,6,1,87,carrot,yogurt,,89191,001,2022-04-21_14h09.32.932,SPAMnetsValid,2021.1.4,Win32,60.89392279,,,,,,,,,,,,,,,,,,,,,,,,,,,,,,,,,,,,,,,,,,,,,,,,,,,,,,,,,,,,,,,,,,,,,,,,,,,,,,,,,,,,,,,,,
,,2,1.6165,2,1.6165,0,56,56,7,1,34,melon,oven,,89191,001,2022-04-21_14h09.32.932,SPAMnetsValid,2021.1.4,Win32,60.89392279,,,,,,,,,,,,,,,,,,,,,,,,,,,,,,,,,,,,,,,,,,,,,,,,,,,,,,,,,,,,,,,,,,,,,,,,,,,,,,,,,,,,,,,,,
,,9,1.6857,9,1.6857,0,57,57,53,1,192,microwave,microwave,CHECK,89191,001,2022-04-21_14h09.32.932,SPAMnetsValid,2021.1.4,Win32,60.89392279,,,,,,,,,,,,,,,,,,,,,,,,,,,,,,,,,,,,,,,,,,,,,,,,,,,,,,,,,,,,,,,,,,,,,,,,,,,,,,,,,,,,,,,,,
,,3,2.0333,3,2.0333,0,58,58,60,1,89,chocolate,rose,,89191,001,2022-04-21_14h09.32.932,SPAMnetsValid,2021.1.4,Win32,60.89392279,,,,,,,,,,,,,,,,,,,,,,,,,,,,,,,,,,,,,,,,,,,,,,,,,,,,,,,,,,,,,,,,,,,,,,,,,,,,,,,,,,,,,,,,,
,,1,1.6697,1,1.6697,0,59,59,29,1,42,garden,kitchen,,89191,001,2022-04-21_14h09.32.932,SPAMnetsValid,2021.1.4,Win32,60.89392279,,,,,,,,,,,,,,,,,,,,,,,,,,,,,,,,,,,,,,,,,,,,,,,,,,,,,,,,,,,,,,,,,,,,,,,,,,,,,,,,,,,,,,,,,
,,3,3.5761,3,3.5761,0,60,60,49,1,57,flower,kitchen,,89191,001,2022-04-21_14h09.32.932,SPAMnetsValid,2021.1.4,Win32,60.89392279,,,,,,,,,,,,,,,,,,,,,,,,,,,,,,,,,,,,,,,,,,,,,,,,,,,,,,,,,,,,,,,,,,,,,,,,,,,,,,,,,,,,,,,,,
,,7,1.956,7,1.956,0,61,61,86,1,51,onion,strawberry,,89191,001,2022-04-21_14h09.32.932,SPAMnetsValid,2021.1.4,Win32,60.89392279,,,,,,,,,,,,,,,,,,,,,,,,,,,,,,,,,,,,,,,,,,,,,,,,,,,,,,,,,,,,,,,,,,,,,,,,,,,,,,,,,,,,,,,,,
,,8,2.5539,8,2.5539,0,62,62,87,1,79,garden,strawberry,,89191,001,2022-04-21_14h09.32.932,SPAMnetsValid,2021.1.4,Win32,60.89392279,,,,,,,,,,,,,,,,,,,,,,,,,,,,,,,,,,,,,,,,,,,,,,,,,,,,,,,,,,,,,,,,,,,,,,,,,,,,,,,,,,,,,,,,,
,,7,1.6635,7,1.6635,0,63,63,85,1,90,cactus,cake,,89191,001,2022-04-21_14h09.32.932,SPAMnetsValid,2021.1.4,Win32,60.89392279,,,,,,,,,,,,,,,,,,,,,,,,,,,,,,,,,,,,,,,,,,,,,,,,,,,,,,,,,,,,,,,,,,,,,,,,,,,,,,,,,,,,,,,,,
,,3,2.7459,3,2.7459,0,64,64,65,1,46,garden,yogurt,,89191,001,2022-04-21_14h09.32.932,SPAMnetsValid,2021.1.4,Win32,60.89392279,,,,,,,,,,,,,,,,,,,,,,,,,,,,,,,,,,,,,,,,,,,,,,,,,,,,,,,,,,,,,,,,,,,,,,,,,,,,,,,,,,,,,,,,,
,,2,2.3398,2,2.3398,0,65,65,16,1,14,broom,cookie,,89191,001,2022-04-21_14h09.32.932,SPAMnetsValid,2021.1.4,Win32,60.89392279,,,,,,,,,,,,,,,,,,,,,,,,,,,,,,,,,,,,,,,,,,,,,,,,,,,,,,,,,,,,,,,,,,,,,,,,,,,,,,,,,,,,,,,,,
,,3,1.6421,3,1.6421,0,66,66,5,1,13,broom,yogurt,,89191,001,2022-04-21_14h09.32.932,SPAMnetsValid,2021.1.4,Win32,60.89392279,,,,,,,,,,,,,,,,,,,,,,,,,,,,,,,,,,,,,,,,,,,,,,,,,,,,,,,,,,,,,,,,,,,,,,,,,,,,,,,,,,,,,,,,,
,,8,2.0286,8,2.0286,0,67,67,66,1,20,rose,tree,,89191,001,2022-04-21_14h09.32.932,SPAMnetsValid,2021.1.4,Win32,60.89392279,,,,,,,,,,,,,,,,,,,,,,,,,,,,,,,,,,,,,,,,,,,,,,,,,,,,,,,,,,,,,,,,,,,,,,,,,,,,,,,,,,,,,,,,,
,,3,1.4915,3,1.4915,0,68,68,72,1,59,rose,strawberry,,89191,001,2022-04-21_14h09.32.932,SPAMnetsValid,2021.1.4,Win32,60.89392279,,,,,,,,,,,,,,,,,,,,,,,,,,,,,,,,,,,,,,,,,,,,,,,,,,,,,,,,,,,,,,,,,,,,,,,,,,,,,,,,,,,,,,,,,
,,3,4.5566,3,4.5566,0,69,69,12,1,67,flower,yogurt,,89191,001,2022-04-21_14h09.32.932,SPAMnetsValid,2021.1.4,Win32,60.89392279,,,,,,,,,,,,,,,,,,,,,,,,,,,,,,,,,,,,,,,,,,,,,,,,,,,,,,,,,,,,,,,,,,,,,,,,,,,,,,,,,,,,,,,,,
,,7,1.495,7,1.495,0,70,70,24,1,17,carrot,melon,,89191,001,2022-04-21_14h09.32.932,SPAMnetsValid,2021.1.4,Win32,60.89392279,,,,,,,,,,,,,,,,,,,,,,,,,,,,,,,,,,,,,,,,,,,,,,,,,,,,,,,,,,,,,,,,,,,,,,,,,,,,,,,,,,,,,,,,,
,,7,1.7705,7,1.7705,0,71,71,67,1,54,chocolate,yogurt,,89191,001,2022-04-21_14h09.32.932,SPAMnetsValid,2021.1.4,Win32,60.89392279,,,,,,,,,,,,,,,,,,,,,,,,,,,,,,,,,,,,,,,,,,,,,,,,,,,,,,,,,,,,,,,,,,,,,,,,,,,,,,,,,,,,,,,,,
,,6,1.7214,6,1.7214,0,72,72,71,1,38,pretzel,refrigerator,,89191,001,2022-04-21_14h09.32.932,SPAMnetsValid,2021.1.4,Win32,60.89392279,,,,,,,,,,,,,,,,,,,,,,,,,,,,,,,,,,,,,,,,,,,,,,,,,,,,,,,,,,,,,,,,,,,,,,,,,,,,,,,,,,,,,,,,,
,,6,1.792,6,1.792,0,73,73,9,1,75,cookie,onion,,89191,001,2022-04-21_14h09.32.932,SPAMnetsValid,2021.1.4,Win32,60.89392279,,,,,,,,,,,,,,,,,,,,,,,,,,,,,,,,,,,,,,,,,,,,,,,,,,,,,,,,,,,,,,,,,,,,,,,,,,,,,,,,,,,,,,,,,
,,9,1.987,9,1.987,0,74,74,78,1,30,cookie,pretzel,,89191,001,2022-04-21_14h09.32.932,SPAMnetsValid,2021.1.4,Win32,60.89392279,,,,,,,,,,,,,,,,,,,,,,,,,,,,,,,,,,,,,,,,,,,,,,,,,,,,,,,,,,,,,,,,,,,,,,,,,,,,,,,,,,,,,,,,,
,,9,1.3542,9,1.3542,0,75,75,93,1,63,cake,cookie,,89191,001,2022-04-21_14h09.32.932,SPAMnetsValid,2021.1.4,Win32,60.89392279,,,,,,,,,,,,,,,,,,,,,,,,,,,,,,,,,,,,,,,,,,,,,,,,,,,,,,,,,,,,,,,,,,,,,,,,,,,,,,,,,,,,,,,,,
,,5,2.1992,5,2.1992,0,76,76,50,1,81,pretzel,yogurt,,89191,001,2022-04-21_14h09.32.932,SPAMnetsValid,2021.1.4,Win32,60.89392279,,,,,,,,,,,,,,,,,,,,,,,,,,,,,,,,,,,,,,,,,,,,,,,,,,,,,,,,,,,,,,,,,,,,,,,,,,,,,,,,,,,,,,,,,
,,1,3.4359,1,3.4359,0,77,77,18,1,85,cake,tree,,89191,001,2022-04-21_14h09.32.932,SPAMnetsValid,2021.1.4,Win32,60.89392279,,,,,,,,,,,,,,,,,,,,,,,,,,,,,,,,,,,,,,,,,,,,,,,,,,,,,,,,,,,,,,,,,,,,,,,,,,,,,,,,,,,,,,,,,
,,4,1.7599,4,1.7599,0,78,78,54,1,28,cake,melon,,89191,001,2022-04-21_14h09.32.932,SPAMnetsValid,2021.1.4,Win32,60.89392279,,,,,,,,,,,,,,,,,,,,,,,,,,,,,,,,,,,,,,,,,,,,,,,,,,,,,,,,,,,,,,,,,,,,,,,,,,,,,,,,,,,,,,,,,
,,9,1.6196,9,1.6196,0,79,79,64,1,9,kitchen,refrigerator,,89191,001,2022-04-21_14h09.32.932,SPAMnetsValid,2021.1.4,Win32,60.89392279,,,,,,,,,,,,,,,,,,,,,,,,,,,,,,,,,,,,,,,,,,,,,,,,,,,,,,,,,,,,,,,,,,,,,,,,,,,,,,,,,,,,,,,,,
,,6,3.0296,6,3.0296,0,80,80,13,1,26,tomato,yogurt,,89191,001,2022-04-21_14h09.32.932,SPAMnetsValid,2021.1.4,Win32,60.89392279,,,,,,,,,,,,,,,,,,,,,,,,,,,,,,,,,,,,,,,,,,,,,,,,,,,,,,,,,,,,,,,,,,,,,,,,,,,,,,,,,,,,,,,,,
,,6,1.4266,6,1.4266,0,81,81,8,1,43,chocolate,tomato,,89191,001,2022-04-21_14h09.32.932,SPAMnetsValid,2021.1.4,Win32,60.89392279,,,,,,,,,,,,,,,,,,,,,,,,,,,,,,,,,,,,,,,,,,,,,,,,,,,,,,,,,,,,,,,,,,,,,,,,,,,,,,,,,,,,,,,,,
,,7,2.0863,7,2.0863,0,82,82,83,1,6,garden,onion,,89191,001,2022-04-21_14h09.32.932,SPAMnetsValid,2021.1.4,Win32,60.89392279,,,,,,,,,,,,,,,,,,,,,,,,,,,,,,,,,,,,,,,,,,,,,,,,,,,,,,,,,,,,,,,,,,,,,,,,,,,,,,,,,,,,,,,,,
,,7,2.3753,7,2.3753,0,83,83,91,1,2,kitchen,onion,,89191,001,2022-04-21_14h09.32.932,SPAMnetsValid,2021.1.4,Win32,60.89392279,,,,,,,,,,,,,,,,,,,,,,,,,,,,,,,,,,,,,,,,,,,,,,,,,,,,,,,,,,,,,,,,,,,,,,,,,,,,,,,,,,,,,,,,,
,,8,1.6204,8,1.6204,0,84,84,96,1,82,cake,kitchen,,89191,001,2022-04-21_14h09.32.932,SPAMnetsValid,2021.1.4,Win32,60.89392279,,,,,,,,,,,,,,,,,,,,,,,,,,,,,,,,,,,,,,,,,,,,,,,,,,,,,,,,,,,,,,,,,,,,,,,,,,,,,,,,,,,,,,,,,
,,6,3.0375,6,3.0375,0,85,85,28,1,84,oven,tomato,,89191,001,2022-04-21_14h09.32.932,SPAMnetsValid,2021.1.4,Win32,60.89392279,,,,,,,,,,,,,,,,,,,,,,,,,,,,,,,,,,,,,,,,,,,,,,,,,,,,,,,,,,,,,,,,,,,,,,,,,,,,,,,,,,,,,,,,,
,,8,2.381,8,2.381,0,86,86,95,1,52,carrot,tomato,,89191,001,2022-04-21_14h09.32.932,SPAMnetsValid,2021.1.4,Win32,60.89392279,,,,,,,,,,,,,,,,,,,,,,,,,,,,,,,,,,,,,,,,,,,,,,,,,,,,,,,,,,,,,,,,,,,,,,,,,,,,,,,,,,,,,,,,,
,,6,2.6427,6,2.6427,0,87,87,92,1,44,cookie,melon,,89191,001,2022-04-21_14h09.32.932,SPAMnetsValid,2021.1.4,Win32,60.89392279,,,,,,,,,,,,,,,,,,,,,,,,,,,,,,,,,,,,,,,,,,,,,,,,,,,,,,,,,,,,,,,,,,,,,,,,,,,,,,,,,,,,,,,,,
,,2,1.7933,2,1.7933,0,88,88,61,1,71,broom,rose,,89191,001,2022-04-21_14h09.32.932,SPAMnetsValid,2021.1.4,Win32,60.89392279,,,,,,,,,,,,,,,,,,,,,,,,,,,,,,,,,,,,,,,,,,,,,,,,,,,,,,,,,,,,,,,,,,,,,,,,,,,,,,,,,,,,,,,,,
,,6,3.3704,6,3.3704,0,89,89,2,1,22,kitchen,strawberry,,89191,001,2022-04-21_14h09.32.932,SPAMnetsValid,2021.1.4,Win32,60.89392279,,,,,,,,,,,,,,,,,,,,,,,,,,,,,,,,,,,,,,,,,,,,,,,,,,,,,,,,,,,,,,,,,,,,,,,,,,,,,,,,,,,,,,,,,
,,4,5.3225,4,5.3225,0,90,90,26,1,35,flower,pretzel,,89191,001,2022-04-21_14h09.32.932,SPAMnetsValid,2021.1.4,Win32,60.89392279,,,,,,,,,,,,,,,,,,,,,,,,,,,,,,,,,,,,,,,,,,,,,,,,,,,,,,,,,,,,,,,,,,,,,,,,,,,,,,,,,,,,,,,,,
,,7,4.8127,7,4.8127,0,91,91,80,1,61,strawberry,tomato,,89191,001,2022-04-21_14h09.32.932,SPAMnetsValid,2021.1.4,Win32,60.89392279,,,,,,,,,,,,,,,,,,,,,,,,,,,,,,,,,,,,,,,,,,,,,,,,,,,,,,,,,,,,,,,,,,,,,,,,,,,,,,,,,,,,,,,,,
,,9,2.0021,9,2.0021,0,92,92,52,1,4,chocolate,pretzel,,89191,001,2022-04-21_14h09.32.932,SPAMnetsValid,2021.1.4,Win32,60.89392279,,,,,,,,,,,,,,,,,,,,,,,,,,,,,,,,,,,,,,,,,,,,,,,,,,,,,,,,,,,,,,,,,,,,,,,,,,,,,,,,,,,,,,,,,
,,6,1.5059,6,1.5059,0,93,93,69,1,45,onion,pretzel,,89191,001,2022-04-21_14h09.32.932,SPAMnetsValid,2021.1.4,Win32,60.89392279,,,,,,,,,,,,,,,,,,,,,,,,,,,,,,,,,,,,,,,,,,,,,,,,,,,,,,,,,,,,,,,,,,,,,,,,,,,,,,,,,,,,,,,,,
,,1,3.121,1,3.121,0,94,94,11,1,37,garden,refrigerator,,89191,001,2022-04-21_14h09.32.932,SPAMnetsValid,2021.1.4,Win32,60.89392279,,,,,,,,,,,,,,,,,,,,,,,,,,,,,,,,,,,,,,,,,,,,,,,,,,,,,,,,,,,,,,,,,,,,,,,,,,,,,,,,,,,,,,,,,
,,8,1.816,8,1.816,0,95,95,30,1,3,cake,oven,,89191,001,2022-04-21_14h09.32.932,SPAMnetsValid,2021.1.4,Win32,60.89392279,,,,,,,,,,,,,,,,,,,,,,,,,,,,,,,,,,,,,,,,,,,,,,,,,,,,,,,,,,,,,,,,,,,,,,,,,,,,,,,,,,,,,,,,,
,,7,7.5067,7,7.5067,0,96,96,42,1,77,refrigerator,yogurt,,89191,001,2022-04-21_14h09.32.932,SPAMnetsValid,2021.1.4,Win32,60.89392279,,,,,,,,,,,,,,,,,,,,,,,,,,,,,,,,,,,,,,,,,,,,,,,,,,,,,,,,,,,,,,,,,,,,,,,,,,,,,,,,,,,,,,,,,
,,,,,,,,,,,,,,,89191,001,2022-04-21_14h09.32.932,SPAMnetsValid,2021.1.4,Win32,60.89392279,0,0,0,0,1,,,,,,,,,,,,,,,,,,,,,,,,,,,,,,,,,,,,,,,,,,,,,,,,,,,,,,,,,,,,,,,,,,,,,,,,,,,,,,,,,,,,
,,,,,,,,,,,,,,,89191,001,2022-04-21_14h09.32.932,SPAMnetsValid,2021.1.4,Win32,60.89392279,,,,,,0,0,0,0,1,1,0,,,,,,,,,,,,,,,,,,,,,,,,,,,,,,,,,,,,,,,,,,,,,,,,,,,,,,,,,,,,,,,,,,,,,,,,,,,,,
,,,,5,3.7741,,,,,,157,refrigerator,rose,,89191,001,2022-04-21_14h09.32.932,SPAMnetsValid,2021.1.4,Win32,60.89392279,,,,,,,,,,,,,5,3.7741,0,0,0,64,1,,,,,,,,,,,,,,,,,,,,,,,,,,,,,,,,,,,,,,,,,,,,,,,,,,,,,,,,,,,,,,,,,,,,,,
,,,,7,2.7784,,,,,,184,oven,pretzel,,89191,001,2022-04-21_14h09.32.932,SPAMnetsValid,2021.1.4,Win32,60.89392279,,,,,,,,,,,,,7,2.7784,0,1,1,42,1,,,,,,,,,,,,,,,,,,,,,,,,,,,,,,,,,,,,,,,,,,,,,,,,,,,,,,,,,,,,,,,,,,,,,,
,,,,6,1.8989,,,,,,102,chocolate,refrigerator,,89191,001,2022-04-21_14h09.32.932,SPAMnetsValid,2021.1.4,Win32,60.89392279,,,,,,,,,,,,,6,1.8989,0,2,2,76,1,,,,,,,,,,,,,,,,,,,,,,,,,,,,,,,,,,,,,,,,,,,,,,,,,,,,,,,,,,,,,,,,,,,,,,
,,,,6,1.6616,,,,,,97,chocolate,kitchen,,89191,001,2022-04-21_14h09.32.932,SPAMnetsValid,2021.1.4,Win32,60.89392279,,,,,,,,,,,,,6,1.6616,0,3,3,8,1,,,,,,,,,,,,,,,,,,,,,,,,,,,,,,,,,,,,,,,,,,,,,,,,,,,,,,,,,,,,,,,,,,,,,,
,,,,8,1.9928,,,,,,100,garden,tomato,,89191,001,2022-04-21_14h09.32.932,SPAMnetsValid,2021.1.4,Win32,60.89392279,,,,,,,,,,,,,8,1.9928,0,4,4,83,1,,,,,,,,,,,,,,,,,,,,,,,,,,,,,,,,,,,,,,,,,,,,,,,,,,,,,,,,,,,,,,,,,,,,,,
,,,,9,1.9522,,,,,,124,oven,refrigerator,,89191,001,2022-04-21_14h09.32.932,SPAMnetsValid,2021.1.4,Win32,60.89392279,,,,,,,,,,,,,9,1.9522,0,5,5,69,1,,,,,,,,,,,,,,,,,,,,,,,,,,,,,,,,,,,,,,,,,,,,,,,,,,,,,,,,,,,,,,,,,,,,,,
,,,,6,2.3531,,,,,,139,carrot,strawberry,,89191,001,2022-04-21_14h09.32.932,SPAMnetsValid,2021.1.4,Win32,60.89392279,,,,,,,,,,,,,6,2.3531,0,6,6,37,1,,,,,,,,,,,,,,,,,,,,,,,,,,,,,,,,,,,,,,,,,,,,,,,,,,,,,,,,,,,,,,,,,,,,,,
,,,,2,1.8165,,,,,,183,cake,rose,,89191,001,2022-04-21_14h09.32.932,SPAMnetsValid,2021.1.4,Win32,60.89392279,,,,,,,,,,,,,2,1.8165,0,7,7,19,1,,,,,,,,,,,,,,,,,,,,,,,,,,,,,,,,,,,,,,,,,,,,,,,,,,,,,,,,,,,,,,,,,,,,,,
,,,,1,8.3556,,,,,,152,cactus,strawberry,,89191,001,2022-04-21_14h09.32.932,SPAMnetsValid,2021.1.4,Win32,60.89392279,,,,,,,,,,,,,1,8.3556,0,8,8,49,1,,,,,,,,,,,,,,,,,,,,,,,,,,,,,,,,,,,,,,,,,,,,,,,,,,,,,,,,,,,,,,,,,,,,,,
,,,,1,1.5376,,,,,,107,rose,tomato,,89191,001,2022-04-21_14h09.32.932,SPAMnetsValid,2021.1.4,Win32,60.89392279,,,,,,,,,,,,,1,1.5376,0,9,9,26,1,,,,,,,,,,,,,,,,,,,,,,,,,,,,,,,,,,,,,,,,,,,,,,,,,,,,,,,,,,,,,,,,,,,,,,
,,,,4,2.2899,,,,,,103,pretzel,tomato,,89191,001,2022-04-21_14h09.32.932,SPAMnetsValid,2021.1.4,Win32,60.89392279,,,,,,,,,,,,,4,2.2899,0,10,10,79,1,,,,,,,,,,,,,,,,,,,,,,,,,,,,,,,,,,,,,,,,,,,,,,,,,,,,,,,,,,,,,,,,,,,,,,
,,,,9,1.6242,,,,,,120,microwave,oven,,89191,001,2022-04-21_14h09.32.932,SPAMnetsValid,2021.1.4,Win32,60.89392279,,,,,,,,,,,,,9,1.6242,0,11,11,14,1,,,,,,,,,,,,,,,,,,,,,,,,,,,,,,,,,,,,,,,,,,,,,,,,,,,,,,,,,,,,,,,,,,,,,,
,,,,3,2.5033,,,,,,190,microwave,strawberry,,89191,001,2022-04-21_14h09.32.932,SPAMnetsValid,2021.1.4,Win32,60.89392279,,,,,,,,,,,,,3,2.5033,0,12,12,90,1,,,,,,,,,,,,,,,,,,,,,,,,,,,,,,,,,,,,,,,,,,,,,,,,,,,,,,,,,,,,,,,,,,,,,,
,,,,9,1.8692,,,,,,142,garden,tree,,89191,001,2022-04-21_14h09.32.932,SPAMnetsValid,2021.1.4,Win32,60.89392279,,,,,,,,,,,,,9,1.8692,0,13,13,22,1,,,,,,,,,,,,,,,,,,,,,,,,,,,,,,,,,,,,,,,,,,,,,,,,,,,,,,,,,,,,,,,,,,,,,,
,,,,8,5.2797,,,,,,113,refrigerator,strawberry,,89191,001,2022-04-21_14h09.32.932,SPAMnetsValid,2021.1.4,Win32,60.89392279,,,,,,,,,,,,,8,5.2797,0,14,14,56,1,,,,,,,,,,,,,,,,,,,,,,,,,,,,,,,,,,,,,,,,,,,,,,,,,,,,,,,,,,,,,,,,,,,,,,
,,,,5,3.1229,,,,,,148,flower,melon,,89191,001,2022-04-21_14h09.32.932,SPAMnetsValid,2021.1.4,Win32,60.89392279,,,,,,,,,,,,,5,3.1229,0,15,15,23,1,,,,,,,,,,,,,,,,,,,,,,,,,,,,,,,,,,,,,,,,,,,,,,,,,,,,,,,,,,,,,,,,,,,,,,
,,,,3,1.7189,,,,,,169,onion,yogurt,,89191,001,2022-04-21_14h09.32.932,SPAMnetsValid,2021.1.4,Win32,60.89392279,,,,,,,,,,,,,3,1.7189,0,16,16,24,1,,,,,,,,,,,,,,,,,,,,,,,,,,,,,,,,,,,,,,,,,,,,,,,,,,,,,,,,,,,,,,,,,,,,,,
,,,,8,1.8034,,,,,,115,refrigerator,tomato,,89191,001,2022-04-21_14h09.32.932,SPAMnetsValid,2021.1.4,Win32,60.89392279,,,,,,,,,,,,,8,1.8034,0,17,17,85,1,,,,,,,,,,,,,,,,,,,,,,,,,,,,,,,,,,,,,,,,,,,,,,,,,,,,,,,,,,,,,,,,,,,,,,
,,,,9,2.5068,,,,,,110,chocolate,cookie,,89191,001,2022-04-21_14h09.32.932,SPAMnetsValid,2021.1.4,Win32,60.89392279,,,,,,,,,,,,,9,2.5068,0,18,18,52,1,,,,,,,,,,,,,,,,,,,,,,,,,,,,,,,,,,,,,,,,,,,,,,,,,,,,,,,,,,,,,,,,,,,,,,
,,,,7,2.6007,,,,,,158,cookie,oven,,89191,001,2022-04-21_14h09.32.932,SPAMnetsValid,2021.1.4,Win32,60.89392279,,,,,,,,,,,,,7,2.6007,0,19,19,27,1,,,,,,,,,,,,,,,,,,,,,,,,,,,,,,,,,,,,,,,,,,,,,,,,,,,,,,,,,,,,,,,,,,,,,,
,,,,2,2.0788,,,,,,144,cake,garden,,89191,001,2022-04-21_14h09.32.932,SPAMnetsValid,2021.1.4,Win32,60.89392279,,,,,,,,,,,,,2,2.0788,0,20,20,58,1,,,,,,,,,,,,,,,,,,,,,,,,,,,,,,,,,,,,,,,,,,,,,,,,,,,,,,,,,,,,,,,,,,,,,,
,,,,1,2.6407,,,,,,104,garden,microwave,,89191,001,2022-04-21_14h09.32.932,SPAMnetsValid,2021.1.4,Win32,60.89392279,,,,,,,,,,,,,1,2.6407,0,21,21,81,1,,,,,,,,,,,,,,,,,,,,,,,,,,,,,,,,,,,,,,,,,,,,,,,,,,,,,,,,,,,,,,,,,,,,,,
,,,,1,7.0374,,,,,,165,onion,rose,,89191,001,2022-04-21_14h09.32.932,SPAMnetsValid,2021.1.4,Win32,60.89392279,,,,,,,,,,,,,1,7.0374,0,22,22,40,1,,,,,,,,,,,,,,,,,,,,,,,,,,,,,,,,,,,,,,,,,,,,,,,,,,,,,,,,,,,,,,,,,,,,,,
,,,,9,4.1881,,,,,,122,flower,garden,,89191,001,2022-04-21_14h09.32.932,SPAMnetsValid,2021.1.4,Win32,60.89392279,,,,,,,,,,,,,9,4.1881,0,23,23,60,1,,,,,,,,,,,,,,,,,,,,,,,,,,,,,,,,,,,,,,,,,,,,,,,,,,,,,,,,,,,,,,,,,,,,,,
,,,,6,1.7696,,,,,,189,onion,tree,,89191,001,2022-04-21_14h09.32.932,SPAMnetsValid,2021.1.4,Win32,60.89392279,,,,,,,,,,,,,6,1.7696,0,24,24,62,1,,,,,,,,,,,,,,,,,,,,,,,,,,,,,,,,,,,,,,,,,,,,,,,,,,,,,,,,,,,,,,,,,,,,,,
,,,,4,2.219,,,,,,96,oven,strawberry,,89191,001,2022-04-21_14h09.32.932,SPAMnetsValid,2021.1.4,Win32,60.89392279,,,,,,,,,,,,,4,2.219,0,25,25,67,1,,,,,,,,,,,,,,,,,,,,,,,,,,,,,,,,,,,,,,,,,,,,,,,,,,,,,,,,,,,,,,,,,,,,,,
,,,,6,9.4535,,,,,,172,kitchen,melon,,89191,001,2022-04-21_14h09.32.932,SPAMnetsValid,2021.1.4,Win32,60.89392279,,,,,,,,,,,,,6,9.4535,0,26,26,77,1,,,,,,,,,,,,,,,,,,,,,,,,,,,,,,,,,,,,,,,,,,,,,,,,,,,,,,,,,,,,,,,,,,,,,,
,,,,3,1.8386,,,,,,156,melon,rose,,89191,001,2022-04-21_14h09.32.932,SPAMnetsValid,2021.1.4,Win32,60.89392279,,,,,,,,,,,,,3,1.8386,0,27,27,31,1,,,,,,,,,,,,,,,,,,,,,,,,,,,,,,,,,,,,,,,,,,,,,,,,,,,,,,,,,,,,,,,,,,,,,,
,,,,5,1.9838,,,,,,173,kitchen,tomato,,89191,001,2022-04-21_14h09.32.932,SPAMnetsValid,2021.1.4,Win32,60.89392279,,,,,,,,,,,,,5,1.9838,0,28,28,1,1,,,,,,,,,,,,,,,,,,,,,,,,,,,,,,,,,,,,,,,,,,,,,,,,,,,,,,,,,,,,,,,,,,,,,,
,,,,6,2.3618,,,,,,108,carrot,chocolate,,89191,001,2022-04-21_14h09.32.932,SPAMnetsValid,2021.1.4,Win32,60.89392279,,,,,,,,,,,,,6,2.3618,0,29,29,5,1,,,,,,,,,,,,,,,,,,,,,,,,,,,,,,,,,,,,,,,,,,,,,,,,,,,,,,,,,,,,,,,,,,,,,,
,,,,2,27.6721,,,,,,132,broom,tree,,89191,001,2022-04-21_14h09.32.932,SPAMnetsValid,2021.1.4,Win32,60.89392279,,,,,,,,,,,,,2,27.6721,0,30,30,78,1,,,,,,,,,,,,,,,,,,,,,,,,,,,,,,,,,,,,,,,,,,,,,,,,,,,,,,,,,,,,,,,,,,,,,,
,,,,7,3.8056,,,,,,161,kitchen,pretzel,,89191,001,2022-04-21_14h09.32.932,SPAMnetsValid,2021.1.4,Win32,60.89392279,,,,,,,,,,,,,7,3.8056,0,31,31,36,1,,,,,,,,,,,,,,,,,,,,,,,,,,,,,,,,,,,,,,,,,,,,,,,,,,,,,,,,,,,,,,,,,,,,,,
,,,,8,1.9526,,,,,,167,carrot,garden,,89191,001,2022-04-21_14h09.32.932,SPAMnetsValid,2021.1.4,Win32,60.89392279,,,,,,,,,,,,,8,1.9526,0,32,32,47,1,,,,,,,,,,,,,,,,,,,,,,,,,,,,,,,,,,,,,,,,,,,,,,,,,,,,,,,,,,,,,,,,,,,,,,
,,,,6,1.4652,,,,,,141,melon,tomato,,89191,001,2022-04-21_14h09.32.932,SPAMnetsValid,2021.1.4,Win32,60.89392279,,,,,,,,,,,,,6,1.4652,0,33,33,70,1,,,,,,,,,,,,,,,,,,,,,,,,,,,,,,,,,,,,,,,,,,,,,,,,,,,,,,,,,,,,,,,,,,,,,,
,,,,4,2.034,,,,,,162,microwave,tomato,,89191,001,2022-04-21_14h09.32.932,SPAMnetsValid,2021.1.4,Win32,60.89392279,,,,,,,,,,,,,4,2.034,0,34,34,12,1,,,,,,,,,,,,,,,,,,,,,,,,,,,,,,,,,,,,,,,,,,,,,,,,,,,,,,,,,,,,,,,,,,,,,,
,,,,9,1.6941,,,,,,116,cake,chocolate,,89191,001,2022-04-21_14h09.32.932,SPAMnetsValid,2021.1.4,Win32,60.89392279,,,,,,,,,,,,,9,1.6941,0,35,35,44,1,,,,,,,,,,,,,,,,,,,,,,,,,,,,,,,,,,,,,,,,,,,,,,,,,,,,,,,,,,,,,,,,,,,,,,
,,,,5,1.8708,,,,,,98,pretzel,strawberry,,89191,001,2022-04-21_14h09.32.932,SPAMnetsValid,2021.1.4,Win32,60.89392279,,,,,,,,,,,,,5,1.8708,0,36,36,82,1,,,,,,,,,,,,,,,,,,,,,,,,,,,,,,,,,,,,,,,,,,,,,,,,,,,,,,,,,,,,,,,,,,,,,,
,,,,4,2.2356,,,,,,136,chocolate,microwave,,89191,001,2022-04-21_14h09.32.932,SPAMnetsValid,2021.1.4,Win32,60.89392279,,,,,,,,,,,,,4,2.2356,0,37,37,96,1,,,,,,,,,,,,,,,,,,,,,,,,,,,,,,,,,,,,,,,,,,,,,,,,,,,,,,,,,,,,,,,,,,,,,,
,,,,4,2.4033,,,,,,171,cake,tomato,,89191,001,2022-04-21_14h09.32.932,SPAMnetsValid,2021.1.4,Win32,60.89392279,,,,,,,,,,,,,4,2.4033,0,38,38,88,1,,,,,,,,,,,,,,,,,,,,,,,,,,,,,,,,,,,,,,,,,,,,,,,,,,,,,,,,,,,,,,,,,,,,,,
,,,,4,3.0233,,,,,,170,cookie,microwave,,89191,001,2022-04-21_14h09.32.932,SPAMnetsValid,2021.1.4,Win32,60.89392279,,,,,,,,,,,,,4,3.0233,0,39,39,92,1,,,,,,,,,,,,,,,,,,,,,,,,,,,,,,,,,,,,,,,,,,,,,,,,,,,,,,,,,,,,,,,,,,,,,,
,,,,8,1.5,,,,,,181,carrot,kitchen,,89191,001,2022-04-21_14h09.32.932,SPAMnetsValid,2021.1.4,Win32,60.89392279,,,,,,,,,,,,,8,1.5,0,40,40,72,1,,,,,,,,,,,,,,,,,,,,,,,,,,,,,,,,,,,,,,,,,,,,,,,,,,,,,,,,,,,,,,,,,,,,,,
,,,,9,1.3028,,,,,,150,microwave,refrigerator,,89191,001,2022-04-21_14h09.32.932,SPAMnetsValid,2021.1.4,Win32,60.89392279,,,,,,,,,,,,,9,1.3028,0,41,41,66,1,,,,,,,,,,,,,,,,,,,,,,,,,,,,,,,,,,,,,,,,,,,,,,,,,,,,,,,,,,,,,,,,,,,,,,
,,,,4,2.7117,,,,,,130,microwave,yogurt,,89191,001,2022-04-21_14h09.32.932,SPAMnetsValid,2021.1.4,Win32,60.89392279,,,,,,,,,,,,,4,2.7117,0,42,42,84,1,,,,,,,,,,,,,,,,,,,,,,,,,,,,,,,,,,,,,,,,,,,,,,,,,,,,,,,,,,,,,,,,,,,,,,
,,,,6,2.1111,,,,,,128,melon,microwave,,89191,001,2022-04-21_14h09.32.932,SPAMnetsValid,2021.1.4,Win32,60.89392279,,,,,,,,,,,,,6,2.1111,0,43,43,74,1,,,,,,,,,,,,,,,,,,,,,,,,,,,,,,,,,,,,,,,,,,,,,,,,,,,,,,,,,,,,,,,,,,,,,,
,,,,1,2.7457,,,,,,164,cookie,garden,,89191,001,2022-04-21_14h09.32.932,SPAMnetsValid,2021.1.4,Win32,60.89392279,,,,,,,,,,,,,1,2.7457,0,44,44,59,1,,,,,,,,,,,,,,,,,,,,,,,,,,,,,,,,,,,,,,,,,,,,,,,,,,,,,,,,,,,,,,,,,,,,,,
,,,,4,2.4494,,,,,,153,carrot,pretzel,,89191,001,2022-04-21_14h09.32.932,SPAMnetsValid,2021.1.4,Win32,60.89392279,,,,,,,,,,,,,4,2.4494,0,45,45,34,1,,,,,,,,,,,,,,,,,,,,,,,,,,,,,,,,,,,,,,,,,,,,,,,,,,,,,,,,,,,,,,,,,,,,,,
,,,,1,1.6037,,,,,,176,cactus,tomato,,89191,001,2022-04-21_14h09.32.932,SPAMnetsValid,2021.1.4,Win32,60.89392279,,,,,,,,,,,,,1,1.6037,0,46,46,9,1,,,,,,,,,,,,,,,,,,,,,,,,,,,,,,,,,,,,,,,,,,,,,,,,,,,,,,,,,,,,,,,,,,,,,,
,,,,6,11.8515,,,,,,166,cake,yogurt,,89191,001,2022-04-21_14h09.32.932,SPAMnetsValid,2021.1.4,Win32,60.89392279,,,,,,,,,,,,,6,11.8515,0,47,47,91,1,,,,,,,,,,,,,,,,,,,,,,,,,,,,,,,,,,,,,,,,,,,,,,,,,,,,,,,,,,,,,,,,,,,,,,
,,,,4,9.9283,,,,,,160,cookie,kitchen,,89191,001,2022-04-21_14h09.32.932,SPAMnetsValid,2021.1.4,Win32,60.89392279,,,,,,,,,,,,,4,9.9283,0,48,48,65,1,,,,,,,,,,,,,,,,,,,,,,,,,,,,,,,,,,,,,,,,,,,,,,,,,,,,,,,,,,,,,,,,,,,,,,
,,,,9,2.4878,,,,,,138,flower,rose,,89191,001,2022-04-21_14h09.32.932,SPAMnetsValid,2021.1.4,Win32,60.89392279,,,,,,,,,,,,,9,2.4878,0,49,49,61,1,,,,,,,,,,,,,,,,,,,,,,,,,,,,,,,,,,,,,,,,,,,,,,,,,,,,,,,,,,,,,,,,,,,,,,
,,,,4,1.5004,,,,,,159,cookie,flower,,89191,001,2022-04-21_14h09.32.932,SPAMnetsValid,2021.1.4,Win32,60.89392279,,,,,,,,,,,,,4,1.5004,0,50,50,21,1,,,,,,,,,,,,,,,,,,,,,,,,,,,,,,,,,,,,,,,,,,,,,,,,,,,,,,,,,,,,,,,,,,,,,,
,,,,6,2.4604,,,,,,121,broom,microwave,,89191,001,2022-04-21_14h09.32.932,SPAMnetsValid,2021.1.4,Win32,60.89392279,,,,,,,,,,,,,6,2.4604,0,51,51,95,1,,,,,,,,,,,,,,,,,,,,,,,,,,,,,,,,,,,,,,,,,,,,,,,,,,,,,,,,,,,,,,,,,,,,,,
,,,,3,1.7435,,,,,,111,carrot,microwave,,89191,001,2022-04-21_14h09.32.932,SPAMnetsValid,2021.1.4,Win32,60.89392279,,,,,,,,,,,,,3,1.7435,0,52,52,16,1,,,,,,,,,,,,,,,,,,,,,,,,,,,,,,,,,,,,,,,,,,,,,,,,,,,,,,,,,,,,,,,,,,,,,,
,,,,3,1.4041,,,,,,145,cactus,yogurt,,89191,001,2022-04-21_14h09.32.932,SPAMnetsValid,2021.1.4,Win32,60.89392279,,,,,,,,,,,,,3,1.4041,0,53,53,15,1,,,,,,,,,,,,,,,,,,,,,,,,,,,,,,,,,,,,,,,,,,,,,,,,,,,,,,,,,,,,,,,,,,,,,,
,,,,2,1.5018,,,,,,109,broom,strawberry,,89191,001,2022-04-21_14h09.32.932,SPAMnetsValid,2021.1.4,Win32,60.89392279,,,,,,,,,,,,,2,1.5018,0,54,54,4,1,,,,,,,,,,,,,,,,,,,,,,,,,,,,,,,,,,,,,,,,,,,,,,,,,,,,,,,,,,,,,,,,,,,,,,
,,,,4,2.0696,,,,,,134,carrot,flower,,89191,001,2022-04-21_14h09.32.932,SPAMnetsValid,2021.1.4,Win32,60.89392279,,,,,,,,,,,,,4,2.0696,0,55,55,93,1,,,,,,,,,,,,,,,,,,,,,,,,,,,,,,,,,,,,,,,,,,,,,,,,,,,,,,,,,,,,,,,,,,,,,,
,,,,2,1.6186,,,,,,123,cookie,tree,,89191,001,2022-04-21_14h09.32.932,SPAMnetsValid,2021.1.4,Win32,60.89392279,,,,,,,,,,,,,2,1.6186,0,56,56,46,1,,,,,,,,,,,,,,,,,,,,,,,,,,,,,,,,,,,,,,,,,,,,,,,,,,,,,,,,,,,,,,,,,,,,,,
,,,,4,2.2871,,,,,,147,cake,refrigerator,,89191,001,2022-04-21_14h09.32.932,SPAMnetsValid,2021.1.4,Win32,60.89392279,,,,,,,,,,,,,4,2.2871,0,57,57,35,1,,,,,,,,,,,,,,,,,,,,,,,,,,,,,,,,,,,,,,,,,,,,,,,,,,,,,,,,,,,,,,,,,,,,,,
,,,,9,1.7825,,,,,,117,melon,strawberry,,89191,001,2022-04-21_14h09.32.932,SPAMnetsValid,2021.1.4,Win32,60.89392279,,,,,,,,,,,,,9,1.7825,0,58,58,11,1,,,,,,,,,,,,,,,,,,,,,,,,,,,,,,,,,,,,,,,,,,,,,,,,,,,,,,,,,,,,,,,,,,,,,,
,,,,6,2.7771,,,,,,114,cookie,strawberry,,89191,001,2022-04-21_14h09.32.932,SPAMnetsValid,2021.1.4,Win32,60.89392279,,,,,,,,,,,,,6,2.7771,0,59,59,87,1,,,,,,,,,,,,,,,,,,,,,,,,,,,,,,,,,,,,,,,,,,,,,,,,,,,,,,,,,,,,,,,,,,,,,,
,,,,3,1.5008,,,,,,179,broom,oven,,89191,001,2022-04-21_14h09.32.932,SPAMnetsValid,2021.1.4,Win32,60.89392279,,,,,,,,,,,,,3,1.5008,0,60,60,45,1,,,,,,,,,,,,,,,,,,,,,,,,,,,,,,,,,,,,,,,,,,,,,,,,,,,,,,,,,,,,,,,,,,,,,,
,,,,3,3.5797,,,,,,151,microwave,onion,,89191,001,2022-04-21_14h09.32.932,SPAMnetsValid,2021.1.4,Win32,60.89392279,,,,,,,,,,,,,3,3.5797,0,61,61,6,1,,,,,,,,,,,,,,,,,,,,,,,,,,,,,,,,,,,,,,,,,,,,,,,,,,,,,,,,,,,,,,,,,,,,,,
,,,,8,4.6532,,,,,,185,cactus,rose,,89191,001,2022-04-21_14h09.32.932,SPAMnetsValid,2021.1.4,Win32,60.89392279,,,,,,,,,,,,,8,4.6532,0,62,62,43,1,,,,,,,,,,,,,,,,,,,,,,,,,,,,,,,,,,,,,,,,,,,,,,,,,,,,,,,,,,,,,,,,,,,,,,
,,,,6,1.8768,,,,,,127,cactus,chocolate,,89191,001,2022-04-21_14h09.32.932,SPAMnetsValid,2021.1.4,Win32,60.89392279,,,,,,,,,,,,,6,1.8768,0,63,63,57,1,,,,,,,,,,,,,,,,,,,,,,,,,,,,,,,,,,,,,,,,,,,,,,,,,,,,,,,,,,,,,,,,,,,,,,
,,,,4,1.3942,,,,,,187,cactus,microwave,,89191,001,2022-04-21_14h09.32.932,SPAMnetsValid,2021.1.4,Win32,60.89392279,,,,,,,,,,,,,4,1.3942,0,64,64,71,1,,,,,,,,,,,,,,,,,,,,,,,,,,,,,,,,,,,,,,,,,,,,,,,,,,,,,,,,,,,,,,,,,,,,,,
,,,,7,2.1658,,,,,,125,carrot,tree,,89191,001,2022-04-21_14h09.32.932,SPAMnetsValid,2021.1.4,Win32,60.89392279,,,,,,,,,,,,,7,2.1658,0,65,65,30,1,,,,,,,,,,,,,,,,,,,,,,,,,,,,,,,,,,,,,,,,,,,,,,,,,,,,,,,,,,,,,,,,,,,,,,
,,,,4,7.3056,,,,,,163,melon,refrigerator,,89191,001,2022-04-21_14h09.32.932,SPAMnetsValid,2021.1.4,Win32,60.89392279,,,,,,,,,,,,,4,7.3056,0,66,66,29,1,,,,,,,,,,,,,,,,,,,,,,,,,,,,,,,,,,,,,,,,,,,,,,,,,,,,,,,,,,,,,,,,,,,,,,
,,,,2,5.5374,,,,,,129,cactus,refrigerator,,89191,001,2022-04-21_14h09.32.932,SPAMnetsValid,2021.1.4,Win32,60.89392279,,,,,,,,,,,,,2,5.5374,0,67,67,3,1,,,,,,,,,,,,,,,,,,,,,,,,,,,,,,,,,,,,,,,,,,,,,,,,,,,,,,,,,,,,,,,,,,,,,,
,,,,8,2.7578,,,,,,131,cactus,garden,,89191,001,2022-04-21_14h09.32.932,SPAMnetsValid,2021.1.4,Win32,60.89392279,,,,,,,,,,,,,8,2.7578,0,68,68,33,1,,,,,,,,,,,,,,,,,,,,,,,,,,,,,,,,,,,,,,,,,,,,,,,,,,,,,,,,,,,,,,,,,,,,,,
,,,,4,4.9841,,,,,,135,carrot,oven,,89191,001,2022-04-21_14h09.32.932,SPAMnetsValid,2021.1.4,Win32,60.89392279,,,,,,,,,,,,,4,4.9841,0,69,69,73,1,,,,,,,,,,,,,,,,,,,,,,,,,,,,,,,,,,,,,,,,,,,,,,,,,,,,,,,,,,,,,,,,,,,,,,
,,,,9,1.7858,,,,,,177,chocolate,strawberry,,89191,001,2022-04-21_14h09.32.932,SPAMnetsValid,2021.1.4,Win32,60.89392279,,,,,,,,,,,,,9,1.7858,0,70,70,53,1,,,,,,,,,,,,,,,,,,,,,,,,,,,,,,,,,,,,,,,,,,,,,,,,,,,,,,,,,,,,,,,,,,,,,,
,,,,4,1.4875,,,,,,146,pretzel,tree,,89191,001,2022-04-21_14h09.32.932,SPAMnetsValid,2021.1.4,Win32,60.89392279,,,,,,,,,,,,,4,1.4875,0,71,71,80,1,,,,,,,,,,,,,,,,,,,,,,,,,,,,,,,,,,,,,,,,,,,,,,,,,,,,,,,,,,,,,,,,,,,,,,
,,,,9,1.5184,,,,,,194,cactus,cactus,CHECK,89191,001,2022-04-21_14h09.32.932,SPAMnetsValid,2021.1.4,Win32,60.89392279,,,,,,,,,,,,,9,1.5184,0,72,72,25,1,,,,,,,,,,,,,,,,,,,,,,,,,,,,,,,,,,,,,,,,,,,,,,,,,,,,,,,,,,,,,,,,,,,,,,
,,,,8,1.472,,,,,,168,cactus,flower,,89191,001,2022-04-21_14h09.32.932,SPAMnetsValid,2021.1.4,Win32,60.89392279,,,,,,,,,,,,,8,1.472,0,73,73,51,1,,,,,,,,,,,,,,,,,,,,,,,,,,,,,,,,,,,,,,,,,,,,,,,,,,,,,,,,,,,,,,,,,,,,,,
,,,,6,1.6019,,,,,,178,cactus,carrot,,89191,001,2022-04-21_14h09.32.932,SPAMnetsValid,2021.1.4,Win32,60.89392279,,,,,,,,,,,,,6,1.6019,0,74,74,75,1,,,,,,,,,,,,,,,,,,,,,,,,,,,,,,,,,,,,,,,,,,,,,,,,,,,,,,,,,,,,,,,,,,,,,,
,,,,6,1.5607,,,,,,155,carrot,cookie,,89191,001,2022-04-21_14h09.32.932,SPAMnetsValid,2021.1.4,Win32,60.89392279,,,,,,,,,,,,,6,1.5607,0,75,75,38,1,,,,,,,,,,,,,,,,,,,,,,,,,,,,,,,,,,,,,,,,,,,,,,,,,,,,,,,,,,,,,,,,,,,,,,
,,,,2,1.4794,,,,,,126,kitchen,tree,,89191,001,2022-04-21_14h09.32.932,SPAMnetsValid,2021.1.4,Win32,60.89392279,,,,,,,,,,,,,2,1.4794,0,76,76,50,1,,,,,,,,,,,,,,,,,,,,,,,,,,,,,,,,,,,,,,,,,,,,,,,,,,,,,,,,,,,,,,,,,,,,,,
,,,,4,2.3093,,,,,,175,melon,onion,,89191,001,2022-04-21_14h09.32.932,SPAMnetsValid,2021.1.4,Win32,60.89392279,,,,,,,,,,,,,4,2.3093,0,77,77,41,1,,,,,,,,,,,,,,,,,,,,,,,,,,,,,,,,,,,,,,,,,,,,,,,,,,,,,,,,,,,,,,,,,,,,,,
,,,,2,2.5847,,,,,,133,cake,flower,,89191,001,2022-04-21_14h09.32.932,SPAMnetsValid,2021.1.4,Win32,60.89392279,,,,,,,,,,,,,2,2.5847,0,78,78,94,1,,,,,,,,,,,,,,,,,,,,,,,,,,,,,,,,,,,,,,,,,,,,,,,,,,,,,,,,,,,,,,,,,,,,,,
,,,,6,1.7419,,,,,,112,cake,carrot,,89191,001,2022-04-21_14h09.32.932,SPAMnetsValid,2021.1.4,Win32,60.89392279,,,,,,,,,,,,,6,1.7419,0,79,79,39,1,,,,,,,,,,,,,,,,,,,,,,,,,,,,,,,,,,,,,,,,,,,,,,,,,,,,,,,,,,,,,,,,,,,,,,
,,,,1,1.8885,,,,,,101,cactus,kitchen,,89191,001,2022-04-21_14h09.32.932,SPAMnetsValid,2021.1.4,Win32,60.89392279,,,,,,,,,,,,,1,1.8885,0,80,80,54,1,,,,,,,,,,,,,,,,,,,,,,,,,,,,,,,,,,,,,,,,,,,,,,,,,,,,,,,,,,,,,,,,,,,,,,
,,,,7,2.1933,,,,,,119,strawberry,tree,,89191,001,2022-04-21_14h09.32.932,SPAMnetsValid,2021.1.4,Win32,60.89392279,,,,,,,,,,,,,7,2.1933,0,81,81,18,1,,,,,,,,,,,,,,,,,,,,,,,,,,,,,,,,,,,,,,,,,,,,,,,,,,,,,,,,,,,,,,,,,,,,,,
,,,,1,4.7337,,,,,,149,broom,tomato,,89191,001,2022-04-21_14h09.32.932,SPAMnetsValid,2021.1.4,Win32,60.89392279,,,,,,,,,,,,,1,4.7337,0,82,82,20,1,,,,,,,,,,,,,,,,,,,,,,,,,,,,,,,,,,,,,,,,,,,,,,,,,,,,,,,,,,,,,,,,,,,,,,
,,,,1,1.9569,,,,,,137,microwave,tree,,89191,001,2022-04-21_14h09.32.932,SPAMnetsValid,2021.1.4,Win32,60.89392279,,,,,,,,,,,,,1,1.9569,0,83,83,63,1,,,,,,,,,,,,,,,,,,,,,,,,,,,,,,,,,,,,,,,,,,,,,,,,,,,,,,,,,,,,,,,,,,,,,,
,,,,6,1.5859,,,,,,154,strawberry,yogurt,,89191,001,2022-04-21_14h09.32.932,SPAMnetsValid,2021.1.4,Win32,60.89392279,,,,,,,,,,,,,6,1.5859,0,84,84,28,1,,,,,,,,,,,,,,,,,,,,,,,,,,,,,,,,,,,,,,,,,,,,,,,,,,,,,,,,,,,,,,,,,,,,,,
,,,,7,2.7744,,,,,,106,cake,strawberry,,89191,001,2022-04-21_14h09.32.932,SPAMnetsValid,2021.1.4,Win32,60.89392279,,,,,,,,,,,,,7,2.7744,0,85,85,0,1,,,,,,,,,,,,,,,,,,,,,,,,,,,,,,,,,,,,,,,,,,,,,,,,,,,,,,,,,,,,,,,,,,,,,,
,,,,9,1.6069,,,,,,188,flower,tree,,89191,001,2022-04-21_14h09.32.932,SPAMnetsValid,2021.1.4,Win32,60.89392279,,,,,,,,,,,,,9,1.6069,0,86,86,7,1,,,,,,,,,,,,,,,,,,,,,,,,,,,,,,,,,,,,,,,,,,,,,,,,,,,,,,,,,,,,,,,,,,,,,,
,,,,6,3.5288,,,,,,186,kitchen,yogurt,,89191,001,2022-04-21_14h09.32.932,SPAMnetsValid,2021.1.4,Win32,60.89392279,,,,,,,,,,,,,6,3.5288,0,87,87,48,1,,,,,,,,,,,,,,,,,,,,,,,,,,,,,,,,,,,,,,,,,,,,,,,,,,,,,,,,,,,,,,,,,,,,,,
,,,,5,2.9085,,,,,,99,garden,melon,,89191,001,2022-04-21_14h09.32.932,SPAMnetsValid,2021.1.4,Win32,60.89392279,,,,,,,,,,,,,5,2.9085,0,88,88,17,1,,,,,,,,,,,,,,,,,,,,,,,,,,,,,,,,,,,,,,,,,,,,,,,,,,,,,,,,,,,,,,,,,,,,,,
,,,,4,5.8332,,,,,,174,cake,pretzel,,89191,001,2022-04-21_14h09.32.932,SPAMnetsValid,2021.1.4,Win32,60.89392279,,,,,,,,,,,,,4,5.8332,0,89,89,2,1,,,,,,,,,,,,,,,,,,,,,,,,,,,,,,,,,,,,,,,,,,,,,,,,,,,,,,,,,,,,,,,,,,,,,,
,,,,1,2.8356,,,,,,143,pretzel,rose,,89191,001,2022-04-21_14h09.32.932,SPAMnetsValid,2021.1.4,Win32,60.89392279,,,,,,,,,,,,,1,2.8356,0,90,90,55,1,,,,,,,,,,,,,,,,,,,,,,,,,,,,,,,,,,,,,,,,,,,,,,,,,,,,,,,,,,,,,,,,,,,,,,
,,,,9,1.4493,,,,,,193,melon,melon,CHECK,89191,001,2022-04-21_14h09.32.932,SPAMnetsValid,2021.1.4,Win32,60.89392279,,,,,,,,,,,,,9,1.4493,0,91,91,86,1,,,,,,,,,,,,,,,,,,,,,,,,,,,,,,,,,,,,,,,,,,,,,,,,,,,,,,,,,,,,,,,,,,,,,,
,,,,2,1.8025,,,,,,182,flower,refrigerator,,89191,001,2022-04-21_14h09.32.932,SPAMnetsValid,2021.1.4,Win32,60.89392279,,,,,,,,,,,,,2,1.8025,0,92,92,32,1,,,,,,,,,,,,,,,,,,,,,,,,,,,,,,,,,,,,,,,,,,,,,,,,,,,,,,,,,,,,,,,,,,,,,,
,,,,1,1.5133,,,,,,140,cookie,refrigerator,,89191,001,2022-04-21_14h09.32.932,SPAMnetsValid,2021.1.4,Win32,60.89392279,,,,,,,,,,,,,1,1.5133,0,93,93,89,1,,,,,,,,,,,,,,,,,,,,,,,,,,,,,,,,,,,,,,,,,,,,,,,,,,,,,,,,,,,,,,,,,,,,,,
,,,,2,16.7194,,,,,,118,chocolate,oven,,89191,001,2022-04-21_14h09.32.932,SPAMnetsValid,2021.1.4,Win32,60.89392279,,,,,,,,,,,,,2,16.7194,0,94,94,10,1,,,,,,,,,,,,,,,,,,,,,,,,,,,,,,,,,,,,,,,,,,,,,,,,,,,,,,,,,,,,,,,,,,,,,,
,,,,1,5.6865,,,,,,180,tree,yogurt,,89191,001,2022-04-21_14h09.32.932,SPAMnetsValid,2021.1.4,Win32,60.89392279,,,,,,,,,,,,,1,5.6865,0,95,95,68,1,,,,,,,,,,,,,,,,,,,,,,,,,,,,,,,,,,,,,,,,,,,,,,,,,,,,,,,,,,,,,,,,,,,,,,
,,,,1,4.0727,,,,,,105,cactus,oven,,89191,001,2022-04-21_14h09.32.932,SPAMnetsValid,2021.1.4,Win32,60.89392279,,,,,,,,,,,,,1,4.0727,0,96,96,13,1,,,,,,,,,,,,,,,,,,,,,,,,,,,,,,,,,,,,,,,,,,,,,,,,,,,,,,,,,,,,,,,,,,,,,,
,,,,,,,,,,,,,,,89191,001,2022-04-21_14h09.32.932,SPAMnetsValid,2021.1.4,Win32,60.89392279,,,,,,,,,,,,,,,,,,,,0,0,0,0,1,,,,,,,,,,,,,,,,,,,,,,,,,,,,,,,,,,,,,,,,,,,,,,,,,,,,,,,,,,,,,,,,,
,,,,,,,,,,,,,,,89191,001,2022-04-21_14h09.32.932,SPAMnetsValid,2021.1.4,Win32,60.89392279,,,,,,0,1,1,1,1,0,1,,,,,,,,,,,,,,,,,,,,,,,,,,,,,,,,,,,,,,,,,,,,,,,,,,,,,,,,,,,,,,,,,,,,,,,,,,,,,
,,,,,,,,,,,,,,,89191,001,2022-04-21_14h09.32.932,SPAMnetsValid,2021.1.4,Win32,60.89392279,,,,,,,,,,,,,,,,,,,,,,,,,2,2.9289,0,0,0,0,1,rancor,forbearance,ridicule,malice,bravery,3,,,,,,,,,,,,,,,,,,,,,,,,,,,,,,,,,,,,,,,,,,,,,,,,,,,,
,,,,,,,,,,,,,,,89191,001,2022-04-21_14h09.32.932,SPAMnetsValid,2021.1.4,Win32,60.89392279,,,,,,,,,,,,,,,,,,,,,,,,,4,5.4415,0,1,1,1,1,raucous,empty,quiet,smooth,harsh,4,,,,,,,,,,,,,,,,,,,,,,,,,,,,,,,,,,,,,,,,,,,,,,,,,,,,
,,,,,,,,,,,,,,,89191,001,2022-04-21_14h09.32.932,SPAMnetsValid,2021.1.4,Win32,60.89392279,,,,,,,,,,,,,,,,,,,,,,,,,4,3.7145,0,2,2,2,1,gargoyle,oil,medicine,carved waterspout,ugly building,3,,,,,,,,,,,,,,,,,,,,,,,,,,,,,,,,,,,,,,,,,,,,,,,,,,,,
,,,,,,,,,,,,,,,89191,001,2022-04-21_14h09.32.932,SPAMnetsValid,2021.1.4,Win32,60.89392279,,,,,,,,,,,,,,,,,,,,,,,,,3,2.9256,0,3,3,3,1,recrudesce,purify,renew activity,lack refinement,crush,2,,,,,,,,,,,,,,,,,,,,,,,,,,,,,,,,,,,,,,,,,,,,,,,,,,,,
,,,,,,,,,,,,,,,89191,001,2022-04-21_14h09.32.932,SPAMnetsValid,2021.1.4,Win32,60.89392279,,,,,,,,,,,,,,,,,,,,,,,,,4,3.8899,0,4,4,4,1,specious,"plausible, but not genuine",noteworthy,class or variety,roomy,1,,,,,,,,,,,,,,,,,,,,,,,,,,,,,,,,,,,,,,,,,,,,,,,,,,,,
,,,,,,,,,,,,,,,89191,001,2022-04-21_14h09.32.932,SPAMnetsValid,2021.1.4,Win32,60.89392279,,,,,,,,,,,,,,,,,,,,,,,,,3,3.0753,0,5,5,5,1,bauble,bubble,showy plaything,idle talk,confusion,2,,,,,,,,,,,,,,,,,,,,,,,,,,,,,,,,,,,,,,,,,,,,,,,,,,,,
,,,,,,,,,,,,,,,89191,001,2022-04-21_14h09.32.932,SPAMnetsValid,2021.1.4,Win32,60.89392279,,,,,,,,,,,,,,,,,,,,,,,,,4,3.7946,0,6,6,6,1,prolific,scarce,producing abundantly,reckless,speaking profanely,2,,,,,,,,,,,,,,,,,,,,,,,,,,,,,,,,,,,,,,,,,,,,,,,,,,,,
,,,,,,,,,,,,,,,89191,001,2022-04-21_14h09.32.932,SPAMnetsValid,2021.1.4,Win32,60.89392279,,,,,,,,,,,,,,,,,,,,,,,,,3,9.4407,0,7,7,7,1,opulent,party,wealthy,happy frame of mind,semiprecious stone,2,,,,,,,,,,,,,,,,,,,,,,,,,,,,,,,,,,,,,,,,,,,,,,,,,,,,
,,,,,,,,,,,,,,,89191,001,2022-04-21_14h09.32.932,SPAMnetsValid,2021.1.4,Win32,60.89392279,,,,,,,,,,,,,,,,,,,,,,,,,1,3.0141,0,8,8,8,1,coercion,conspiracy,strategy,restraint,attraction,3,,,,,,,,,,,,,,,,,,,,,,,,,,,,,,,,,,,,,,,,,,,,,,,,,,,,
,,,,,,,,,,,,,,,89191,001,2022-04-21_14h09.32.932,SPAMnetsValid,2021.1.4,Win32,60.89392279,,,,,,,,,,,,,,,,,,,,,,,,,4,2.9966,0,9,9,9,1,hiatus,animal,calamity,dread,gap,4,,,,,,,,,,,,,,,,,,,,,,,,,,,,,,,,,,,,,,,,,,,,,,,,,,,,
,,,,,,,,,,,,,,,89191,001,2022-04-21_14h09.32.932,SPAMnetsValid,2021.1.4,Win32,60.89392279,,,,,,,,,,,,,,,,,,,,,,,,,1,2.8872,0,10,10,10,1,germane,microbe,contagious,relevant,different,3,,,,,,,,,,,,,,,,,,,,,,,,,,,,,,,,,,,,,,,,,,,,,,,,,,,,
,,,,,,,,,,,,,,,89191,001,2022-04-21_14h09.32.932,SPAMnetsValid,2021.1.4,Win32,60.89392279,,,,,,,,,,,,,,,,,,,,,,,,,2,3.9084,0,11,11,11,1,perfunctory,fundamental,formal,superficial,careful,3,,,,,,,,,,,,,,,,,,,,,,,,,,,,,,,,,,,,,,,,,,,,,,,,,,,,
,,,,,,,,,,,,,,,89191,001,2022-04-21_14h09.32.932,SPAMnetsValid,2021.1.4,Win32,60.89392279,,,,,,,,,,,,,,,,,,,,,,,,,4,3.507,0,12,12,12,1,diverge,reveal,chant,distract the attention of,differ or turn off from,4,,,,,,,,,,,,,,,,,,,,,,,,,,,,,,,,,,,,,,,,,,,,,,,,,,,,
,,,,,,,,,,,,,,,89191,001,2022-04-21_14h09.32.932,SPAMnetsValid,2021.1.4,Win32,60.89392279,,,,,,,,,,,,,,,,,,,,,,,,,4,5.4663,0,13,13,13,1,evoke,take away,anger,connect,bring out,4,,,,,,,,,,,,,,,,,,,,,,,,,,,,,,,,,,,,,,,,,,,,,,,,,,,,
,,,,,,,,,,,,,,,89191,001,2022-04-21_14h09.32.932,SPAMnetsValid,2021.1.4,Win32,60.89392279,,,,,,,,,,,,,,,,,,,,,,,,,4,3.75,0,14,14,14,1,pertinent,relevant,lying next to,necessary,bold,1,,,,,,,,,,,,,,,,,,,,,,,,,,,,,,,,,,,,,,,,,,,,,,,,,,,,
,,,,,,,,,,,,,,,89191,001,2022-04-21_14h09.32.932,SPAMnetsValid,2021.1.4,Win32,60.89392279,,,,,,,,,,,,,,,,,,,,,,,,,2,2.9947,0,15,15,15,1,holocaust,entirety,destruction,saintly,price,2,,,,,,,,,,,,,,,,,,,,,,,,,,,,,,,,,,,,,,,,,,,,,,,,,,,,
,,,,,,,,,,,,,,,89191,001,2022-04-21_14h09.32.932,SPAMnetsValid,2021.1.4,Win32,60.89392279,,,,,,,,,,,,,,,,,,,,,,,,,3,3.0749,0,16,16,16,1,piquant,mellow,fish,pungent,cloth,3,,,,,,,,,,,,,,,,,,,,,,,,,,,,,,,,,,,,,,,,,,,,,,,,,,,,
,,,,,,,,,,,,,,,89191,001,2022-04-21_14h09.32.932,SPAMnetsValid,2021.1.4,Win32,60.89392279,,,,,,,,,,,,,,,,,,,,,,,,,1,2.3941,0,17,17,17,1,firmament,foundation,heavens,strong,glue,2,,,,,,,,,,,,,,,,,,,,,,,,,,,,,,,,,,,,,,,,,,,,,,,,,,,,
,,,,,,,,,,,,,,,89191,001,2022-04-21_14h09.32.932,SPAMnetsValid,2021.1.4,Win32,60.89392279,,,,,,,,,,,,,,,,,,,,,,,,,,,,,,,,,,,,,,4,5.4292,0,0,0,0,1,marketable,partisan,jocular,marriageable,salable,essential,4,,,,,,,,,,,,,,,,,,,,,,,,,,,,,,,,,,,,,,
,,,,,,,,,,,,,,,89191,001,2022-04-21_14h09.32.932,SPAMnetsValid,2021.1.4,Win32,60.89392279,,,,,,,,,,,,,,,,,,,,,,,,,,,,,,,,,,,,,,5,3.7929,0,1,1,1,1,cottontail,squirrel,poplar,boa,marshy plant,rabbit,5,,,,,,,,,,,,,,,,,,,,,,,,,,,,,,,,,,,,,,
,,,,,,,,,,,,,,,89191,001,2022-04-21_14h09.32.932,SPAMnetsValid,2021.1.4,Win32,60.89392279,,,,,,,,,,,,,,,,,,,,,,,,,,,,,,,,,,,,,,3,2.644,0,2,2,2,1,boggy,afraid,false,marshy,dense,black,3,,,,,,,,,,,,,,,,,,,,,,,,,,,,,,,,,,,,,,
,,,,,,,,,,,,,,,89191,001,2022-04-21_14h09.32.932,SPAMnetsValid,2021.1.4,Win32,60.89392279,,,,,,,,,,,,,,,,,,,,,,,,,,,,,,,,,,,,,,5,4.0907,0,3,3,3,1,gruesomeness,blackness,falseness,vindictiveness,drunkenness,ghastliness,5,,,,,,,,,,,,,,,,,,,,,,,,,,,,,,,,,,,,,,
,,,,,,,,,,,,,,,89191,001,2022-04-21_14h09.32.932,SPAMnetsValid,2021.1.4,Win32,60.89392279,,,,,,,,,,,,,,,,,,,,,,,,,,,,,,,,,,,,,,1,2.9238,0,4,4,4,1,loathing,diffidence,laziness,abhorrence,cleverness,comfort,3,,,,,,,,,,,,,,,,,,,,,,,,,,,,,,,,,,,,,,
,,,,,,,,,,,,,,,89191,001,2022-04-21_14h09.32.932,SPAMnetsValid,2021.1.4,Win32,60.89392279,,,,,,,,,,,,,,,,,,,,,,,,,,,,,,,,,,,,,,5,7.8584,0,5,5,5,1,bantam,fowl,ridicule,cripple,vegetable,ensign,1,,,,,,,,,,,,,,,,,,,,,,,,,,,,,,,,,,,,,,
,,,,,,,,,,,,,,,89191,001,2022-04-21_14h09.32.932,SPAMnetsValid,2021.1.4,Win32,60.89392279,,,,,,,,,,,,,,,,,,,,,,,,,,,,,,,,,,,,,,5,4.2082,0,6,6,6,1,evoke,wake up,surrender,reconnoiter,transcend,call forth,5,,,,,,,,,,,,,,,,,,,,,,,,,,,,,,,,,,,,,,
,,,,,,,,,,,,,,,89191,001,2022-04-21_14h09.32.932,SPAMnetsValid,2021.1.4,Win32,60.89392279,,,,,,,,,,,,,,,,,,,,,,,,,,,,,,,,,,,,,,3,7.8127,0,7,7,7,1,unobtrusive,unintelligent,epileptic,illogical,lineal,modest,5,,,,,,,,,,,,,,,,,,,,,,,,,,,,,,,,,,,,,,
,,,,,,,,,,,,,,,89191,001,2022-04-21_14h09.32.932,SPAMnetsValid,2021.1.4,Win32,60.89392279,,,,,,,,,,,,,,,,,,,,,,,,,,,,,,,,,,,,,,4,2.9065,0,8,8,8,1,terrain,ice cream,final test,tractor,area of ground,weight,4,,,,,,,,,,,,,,,,,,,,,,,,,,,,,,,,,,,,,,
,,,,,,,,,,,,,,,89191,001,2022-04-21_14h09.32.932,SPAMnetsValid,2021.1.4,Win32,60.89392279,,,,,,,,,,,,,,,,,,,,,,,,,,,,,,,,,,,,,,1,3.1911,0,9,9,9,1,capriciousness,stubbornness,courage,whimsicality,amazement,greediness,3,,,,,,,,,,,,,,,,,,,,,,,,,,,,,,,,,,,,,,
,,,,,,,,,,,,,,,89191,001,2022-04-21_14h09.32.932,SPAMnetsValid,2021.1.4,Win32,60.89392279,,,,,,,,,,,,,,,,,,,,,,,,,,,,,,,,,,,,,,2,9.4126,0,10,10,10,1,maelstrom,slander,whirlpool,enmity,armor,majolica,2,,,,,,,,,,,,,,,,,,,,,,,,,,,,,,,,,,,,,,
,,,,,,,,,,,,,,,89191,001,2022-04-21_14h09.32.932,SPAMnetsValid,2021.1.4,Win32,60.89392279,,,,,,,,,,,,,,,,,,,,,,,,,,,,,,,,,,,,,,5,2.1725,0,11,11,11,1,tentative,critical,conclusive,authentic,provisional,apprehensive,4,,,,,,,,,,,,,,,,,,,,,,,,,,,,,,,,,,,,,,
,,,,,,,,,,,,,,,89191,001,2022-04-21_14h09.32.932,SPAMnetsValid,2021.1.4,Win32,60.89392279,,,,,,,,,,,,,,,,,,,,,,,,,,,,,,,,,,,,,,2,2.2375,0,12,12,12,1,placate,rehabilitate,plagiarize,depredate,apprise,conciliate,5,,,,,,,,,,,,,,,,,,,,,,,,,,,,,,,,,,,,,,
,,,,,,,,,,,,,,,89191,001,2022-04-21_14h09.32.932,SPAMnetsValid,2021.1.4,Win32,60.89392279,,,,,,,,,,,,,,,,,,,,,,,,,,,,,,,,,,,,,,1,17.1905,0,13,13,13,1,surcease,enlightenment,cessation,inattention,censor,substitution,2,,,,,,,,,,,,,,,,,,,,,,,,,,,,,,,,,,,,,,
,,,,,,,,,,,,,,,89191,001,2022-04-21_14h09.32.932,SPAMnetsValid,2021.1.4,Win32,60.89392279,,,,,,,,,,,,,,,,,,,,,,,,,,,,,,,,,,,,,,2,3.559,0,14,14,14,1,apathetic,wandering,impassive,hateful,prophetic,overflowing,2,,,,,,,,,,,,,,,,,,,,,,,,,,,,,,,,,,,,,,
,,,,,,,,,,,,,,,89191,001,2022-04-21_14h09.32.932,SPAMnetsValid,2021.1.4,Win32,60.89392279,,,,,,,,,,,,,,,,,,,,,,,,,,,,,,,,,,,,,,1,5.0124,0,15,15,15,1,paternoster,paternalism,patricide,malediction,benediction,prayer,5,,,,,,,,,,,,,,,,,,,,,,,,,,,,,,,,,,,,,,
,,,,,,,,,,,,,,,89191,001,2022-04-21_14h09.32.932,SPAMnetsValid,2021.1.4,Win32,60.89392279,,,,,,,,,,,,,,,,,,,,,,,,,,,,,,,,,,,,,,4,8.2292,0,16,16,16,1,opalescence,opulence,senescence,bankruptcy,iridescence,assiduity,4,,,,,,,,,,,,,,,,,,,,,,,,,,,,,,,,,,,,,,
,,,,,,,,,,,,,,,89191,001,2022-04-21_14h09.32.932,SPAMnetsValid,2021.1.4,Win32,60.89392279,,,,,,,,,,,,,,,,,,,,,,,,,,,,,,,,,,,,,,2,3.3733,0,17,17,17,1,lush,stupid,luxurious,hazy,putrid,languishing,2,,,,,,,,,,,,,,,,,,,,,,,,,,,,,,,,,,,,,,
,,,,,,,,,,,,,,,89191,001,2022-04-21_14h09.32.932,SPAMnetsValid,2021.1.4,Win32,60.89392279,,,,,,,,,,,,,,,,,,,,,,,,,,,,,,,,,,,,,,2,4.494,0,18,18,18,1,curtailment,expenditure,abandonment,abridgment,improvement,forgery,3,,,,,,,,,,,,,,,,,,,,,,,,,,,,,,,,,,,,,,
,,,,,,,,,,,,,,,89191,001,2022-04-21_14h09.32.932,SPAMnetsValid,2021.1.4,Win32,60.89392279,,,,,,,,,,,,,,,,,,,,,,,,,,,,,,,,,,,,,,5,5.3231,0,19,19,19,1,perversity,adversity,perviousness,travesty,waywardness,gentility,4,,,,,,,,,,,,,,,,,,,,,,,,,,,,,,,,,,,,,,
,,,,,,,,,,,,,,,89191,001,2022-04-21_14h09.32.932,SPAMnetsValid,2021.1.4,Win32,60.89392279,,,,,,,,,,,,,,,,,,,,,,,,,,,,,,,,,,,,,,4,17.3639,0,20,20,20,1,calumnious,complimentary,analogous,slanderous,tempestuous,magnanimous,3,,,,,,,,,,,,,,,,,,,,,,,,,,,,,,,,,,,,,,
,,,,,,,,,,,,,,,89191,001,2022-04-21_14h09.32.932,SPAMnetsValid,2021.1.4,Win32,60.89392279,,,,,,,,,,,,,,,,,,,,,,,,,,,,,,,,,,,,,,3,3.0806,0,21,21,21,1,illiberality,bigotry,imbecility,illegibility,cautery,immaturity,1,,,,,,,,,,,,,,,,,,,,,,,,,,,,,,,,,,,,,,
,,,,,,,,,,,,,,,89191,001,2022-04-21_14h09.32.932,SPAMnetsValid,2021.1.4,Win32,60.89392279,,,,,,,,,,,,,,,,,,,,,,,,,,,,,,,,,,,,,,4,5.1756,0,22,22,22,1,clabber,rejoice,gossip,curdle,crow,hobble,3,,,,,,,,,,,,,,,,,,,,,,,,,,,,,,,,,,,,,,
,,,,,,,,,,,,,,,89191,001,2022-04-21_14h09.32.932,SPAMnetsValid,2021.1.4,Win32,60.89392279,,,,,,,,,,,,,,,,,,,,,,,,,,,,,,,,,,,,,,2,2.9631,0,23,23,23,1,sedulousness,diligence,credulousness,seduction,perilousness,frankness,1,,,,,,,,,,,,,,,,,,,,,,,,,,,,,,,,,,,,,,
,,,,,,,,,,,,,,,89191,001,2022-04-21_14h09.32.932,SPAMnetsValid,2021.1.4,Win32,60.89392279,,,,,,,,,,,,,,,,,,,,,,,,,,,,,,,,,,,,,,,,,,,,,,,,,,,,use to sleep,pillow,0,0,0,0,1,,,,,,,,,,,,,,,,,,,,,,,,,,,,,,,
,,,,,,,,,,,,,,,89191,001,2022-04-21_14h09.32.932,SPAMnetsValid,2021.1.4,Win32,60.89392279,,,,,,,,,,,,,,,,,,,,,,,,,,,,,,,,,,,,,,,,,,,,,,,,,,,,build a fort,pillow,1,0,1,0,1,,,,,,,,,,,,,,,,,,,,,,,,,,,,,,,
,,,,,,,,,,,,,,,89191,001,2022-04-21_14h09.32.932,SPAMnetsValid,2021.1.4,Win32,60.89392279,,,,,,,,,,,,,,,,,,,,,,,,,,,,,,,,,,,,,,,,,,,,,,,,,,,,fluff something up,pillow,2,0,2,0,1,,,,,,,,,,,,,,,,,,,,,,,,,,,,,,,
,,,,,,,,,,,,,,,89191,001,2022-04-21_14h09.32.932,SPAMnetsValid,2021.1.4,Win32,60.89392279,,,,,,,,,,,,,,,,,,,,,,,,,,,,,,,,,,,,,,,,,,,,,,,,,,,,help elevate something,pillow,3,0,3,0,1,,,,,,,,,,,,,,,,,,,,,,,,,,,,,,,
,,,,,,,,,,,,,,,89191,001,2022-04-21_14h09.32.932,SPAMnetsValid,2021.1.4,Win32,60.89392279,,,,,,,,,,,,,,,,,,,,,,,,,,,,,,,,,,,,,,,,,,,,,,,,,,,,an arcing product,pillow,4,0,4,0,1,,,,,,,,,,,,,,,,,,,,,,,,,,,,,,,
,,,,,,,,,,,,,,,89191,001,2022-04-21_14h09.32.932,SPAMnetsValid,2021.1.4,Win32,60.89392279,,,,,,,,,,,,,,,,,,,,,,,,,,,,,,,,,,,,,,,,,,,,,,,,,,,,sumo wrestling,pillow,5,0,5,0,1,,,,,,,,,,,,,,,,,,,,,,,,,,,,,,,
,,,,,,,,,,,,,,,89191,001,2022-04-21_14h09.32.932,SPAMnetsValid,2021.1.4,Win32,60.89392279,,,,,,,,,,,,,,,,,,,,,,,,,,,,,,,,,,,,,,,,,,,,,,,,,,,,create a shape,pillow,6,0,6,0,1,,,,,,,,,,,,,,,,,,,,,,,,,,,,,,,
,,,,,,,,,,,,,,,89191,001,2022-04-21_14h09.32.932,SPAMnetsValid,2021.1.4,Win32,60.89392279,,,,,,,,,,,,,,,,,,,,,,,,,,,,,,,,,,,,,,,,,,,,,,,,,,,,pillow fight,pillow,7,0,7,0,1,,,,,,,,,,,,,,,,,,,,,,,,,,,,,,,
,,,,,,,,,,,,,,,89191,001,2022-04-21_14h09.32.932,SPAMnetsValid,2021.1.4,Win32,60.89392279,,,,,,,,,,,,,,,,,,,,,,,,,,,,,,,,,,,,,,,,,,,,,,,,,,,,decoration,pillow,8,0,8,0,1,,,,,,,,,,,,,,,,,,,,,,,,,,,,,,,
,,,,,,,,,,,,,,,89191,001,2022-04-21_14h09.32.932,SPAMnetsValid,2021.1.4,Win32,60.89392279,,,,,,,,,,,,,,,,,,,,,,,,,,,,,,,,,,,,,,,,,,,,,,,,,,,,,,,,,,,0,0,0,2,1,pillow,,,,,,,,,,,,,,,,,,,,,,,,,
,,,,,,,,,,,,,,,89191,001,2022-04-21_14h09.32.932,SPAMnetsValid,2021.1.4,Win32,60.89392279,,,,,,,,,,,,,,,,,,,,,,,,,,,,,,,,,,,,,,,,,,,,,,,,,,,,collect something,bucket,0,0,0,0,1,,,,,,,,,,,,,,,,,,,,,,,,,,,,,,,
,,,,,,,,,,,,,,,89191,001,2022-04-21_14h09.32.932,SPAMnetsValid,2021.1.4,Win32,60.89392279,,,,,,,,,,,,,,,,,,,,,,,,,,,,,,,,,,,,,,,,,,,,,,,,,,,,as a drum,bucket,1,0,1,0,1,,,,,,,,,,,,,,,,,,,,,,,,,,,,,,,
,,,,,,,,,,,,,,,89191,001,2022-04-21_14h09.32.932,SPAMnetsValid,2021.1.4,Win32,60.89392279,,,,,,,,,,,,,,,,,,,,,,,,,,,,,,,,,,,,,,,,,,,,,,,,,,,,carry something somewhere,bucket,2,0,2,0,1,,,,,,,,,,,,,,,,,,,,,,,,,,,,,,,
,,,,,,,,,,,,,,,89191,001,2022-04-21_14h09.32.932,SPAMnetsValid,2021.1.4,Win32,60.89392279,,,,,,,,,,,,,,,,,,,,,,,,,,,,,,,,,,,,,,,,,,,,,,,,,,,,storage,bucket,3,0,3,0,1,,,,,,,,,,,,,,,,,,,,,,,,,,,,,,,
,,,,,,,,,,,,,,,89191,001,2022-04-21_14h09.32.932,SPAMnetsValid,2021.1.4,Win32,60.89392279,,,,,,,,,,,,,,,,,,,,,,,,,,,,,,,,,,,,,,,,,,,,,,,,,,,,counting a product,bucket,4,0,4,0,1,,,,,,,,,,,,,,,,,,,,,,,,,,,,,,,
,,,,,,,,,,,,,,,89191,001,2022-04-21_14h09.32.932,SPAMnetsValid,2021.1.4,Win32,60.89392279,,,,,,,,,,,,,,,,,,,,,,,,,,,,,,,,,,,,,,,,,,,,,,,,,,,,shopping carrier,bucket,5,0,5,0,1,,,,,,,,,,,,,,,,,,,,,,,,,,,,,,,
,,,,,,,,,,,,,,,89191,001,2022-04-21_14h09.32.932,SPAMnetsValid,2021.1.4,Win32,60.89392279,,,,,,,,,,,,,,,,,,,,,,,,,,,,,,,,,,,,,,,,,,,,,,,,,,,,rain water collector,bucket,6,0,6,0,1,,,,,,,,,,,,,,,,,,,,,,,,,,,,,,,
,,,,,,,,,,,,,,,89191,001,2022-04-21_14h09.32.932,SPAMnetsValid,2021.1.4,Win32,60.89392279,,,,,,,,,,,,,,,,,,,,,,,,,,,,,,,,,,,,,,,,,,,,,,,,,,,,throw away bin,bucket,7,0,7,0,1,,,,,,,,,,,,,,,,,,,,,,,,,,,,,,,
,,,,,,,,,,,,,,,89191,001,2022-04-21_14h09.32.932,SPAMnetsValid,2021.1.4,Win32,60.89392279,,,,,,,,,,,,,,,,,,,,,,,,,,,,,,,,,,,,,,,,,,,,,,,,,,,,snow collector,bucket,8,0,8,0,1,,,,,,,,,,,,,,,,,,,,,,,,,,,,,,,
,,,,,,,,,,,,,,,89191,001,2022-04-21_14h09.32.932,SPAMnetsValid,2021.1.4,Win32,60.89392279,,,,,,,,,,,,,,,,,,,,,,,,,,,,,,,,,,,,,,,,,,,,,,,,,,,,,,,,,,,0,1,1,0,1,bucket,,,,,,,,,,,,,,,,,,,,,,,,,
,,,,,,,,,,,,,,,89191,001,2022-04-21_14h09.32.932,SPAMnetsValid,2021.1.4,Win32,60.89392279,,,,,,,,,,,,,,,,,,,,,,,,,,,,,,,,,,,,,,,,,,,,,,,,,,,,burning,candle,0,0,0,0,1,,,,,,,,,,,,,,,,,,,,,,,,,,,,,,,
,,,,,,,,,,,,,,,89191,001,2022-04-21_14h09.32.932,SPAMnetsValid,2021.1.4,Win32,60.89392279,,,,,,,,,,,,,,,,,,,,,,,,,,,,,,,,,,,,,,,,,,,,,,,,,,,,for light,candle,1,0,1,0,1,,,,,,,,,,,,,,,,,,,,,,,,,,,,,,,
,,,,,,,,,,,,,,,89191,001,2022-04-21_14h09.32.932,SPAMnetsValid,2021.1.4,Win32,60.89392279,,,,,,,,,,,,,,,,,,,,,,,,,,,,,,,,,,,,,,,,,,,,,,,,,,,,for scent,candle,2,0,2,0,1,,,,,,,,,,,,,,,,,,,,,,,,,,,,,,,
,,,,,,,,,,,,,,,89191,001,2022-04-21_14h09.32.932,SPAMnetsValid,2021.1.4,Win32,60.89392279,,,,,,,,,,,,,,,,,,,,,,,,,,,,,,,,,,,,,,,,,,,,,,,,,,,,could be eaten,candle,3,0,3,0,1,,,,,,,,,,,,,,,,,,,,,,,,,,,,,,,
,,,,,,,,,,,,,,,89191,001,2022-04-21_14h09.32.932,SPAMnetsValid,2021.1.4,Win32,60.89392279,,,,,,,,,,,,,,,,,,,,,,,,,,,,,,,,,,,,,,,,,,,,,,,,,,,,use for the wax,candle,4,0,4,0,1,,,,,,,,,,,,,,,,,,,,,,,,,,,,,,,
,,,,,,,,,,,,,,,89191,001,2022-04-21_14h09.32.932,SPAMnetsValid,2021.1.4,Win32,60.89392279,,,,,,,,,,,,,,,,,,,,,,,,,,,,,,,,,,,,,,,,,,,,,,,,,,,,could be used to clean out ears,candle,5,0,5,0,1,,,,,,,,,,,,,,,,,,,,,,,,,,,,,,,
,,,,,,,,,,,,,,,89191,001,2022-04-21_14h09.32.932,SPAMnetsValid,2021.1.4,Win32,60.89392279,,,,,,,,,,,,,,,,,,,,,,,,,,,,,,,,,,,,,,,,,,,,,,,,,,,,,,,,,,,0,2,2,1,1,candle,,,,,,,,,,,,,,,,,,,,,,,,,
,,,,,,,,,,,,,,,89191,001,2022-04-21_14h09.32.932,SPAMnetsValid,2021.1.4,Win32,60.89392279,,,,,,,,,,,,,,,,,,,,,,,,,,,,,,,,,,,,,,,,,,,,,,,,,,,,,,,,,,,,,,,,,dogs,Animals,0,0,0,0,1,,,,,,,,,,,,,,,,,,
,,,,,,,,,,,,,,,89191,001,2022-04-21_14h09.32.932,SPAMnetsValid,2021.1.4,Win32,60.89392279,,,,,,,,,,,,,,,,,,,,,,,,,,,,,,,,,,,,,,,,,,,,,,,,,,,,,,,,,,,,,,,,,cats,Animals,1,0,1,0,1,,,,,,,,,,,,,,,,,,
,,,,,,,,,,,,,,,89191,001,2022-04-21_14h09.32.932,SPAMnetsValid,2021.1.4,Win32,60.89392279,,,,,,,,,,,,,,,,,,,,,,,,,,,,,,,,,,,,,,,,,,,,,,,,,,,,,,,,,,,,,,,,,lion,Animals,2,0,2,0,1,,,,,,,,,,,,,,,,,,
,,,,,,,,,,,,,,,89191,001,2022-04-21_14h09.32.932,SPAMnetsValid,2021.1.4,Win32,60.89392279,,,,,,,,,,,,,,,,,,,,,,,,,,,,,,,,,,,,,,,,,,,,,,,,,,,,,,,,,,,,,,,,,tiger,Animals,3,0,3,0,1,,,,,,,,,,,,,,,,,,
,,,,,,,,,,,,,,,89191,001,2022-04-21_14h09.32.932,SPAMnetsValid,2021.1.4,Win32,60.89392279,,,,,,,,,,,,,,,,,,,,,,,,,,,,,,,,,,,,,,,,,,,,,,,,,,,,,,,,,,,,,,,,,bear,Animals,4,0,4,0,1,,,,,,,,,,,,,,,,,,
,,,,,,,,,,,,,,,89191,001,2022-04-21_14h09.32.932,SPAMnetsValid,2021.1.4,Win32,60.89392279,,,,,,,,,,,,,,,,,,,,,,,,,,,,,,,,,,,,,,,,,,,,,,,,,,,,,,,,,,,,,,,,,snake,Animals,5,0,5,0,1,,,,,,,,,,,,,,,,,,
,,,,,,,,,,,,,,,89191,001,2022-04-21_14h09.32.932,SPAMnetsValid,2021.1.4,Win32,60.89392279,,,,,,,,,,,,,,,,,,,,,,,,,,,,,,,,,,,,,,,,,,,,,,,,,,,,,,,,,,,,,,,,,shark,Animals,6,0,6,0,1,,,,,,,,,,,,,,,,,,
,,,,,,,,,,,,,,,89191,001,2022-04-21_14h09.32.932,SPAMnetsValid,2021.1.4,Win32,60.89392279,,,,,,,,,,,,,,,,,,,,,,,,,,,,,,,,,,,,,,,,,,,,,,,,,,,,,,,,,,,,,,,,,turtle,Animals,7,0,7,0,1,,,,,,,,,,,,,,,,,,
,,,,,,,,,,,,,,,89191,001,2022-04-21_14h09.32.932,SPAMnetsValid,2021.1.4,Win32,60.89392279,,,,,,,,,,,,,,,,,,,,,,,,,,,,,,,,,,,,,,,,,,,,,,,,,,,,,,,,,,,,,,,,,frog,Animals,8,0,8,0,1,,,,,,,,,,,,,,,,,,
,,,,,,,,,,,,,,,89191,001,2022-04-21_14h09.32.932,SPAMnetsValid,2021.1.4,Win32,60.89392279,,,,,,,,,,,,,,,,,,,,,,,,,,,,,,,,,,,,,,,,,,,,,,,,,,,,,,,,,,,,,,,,,toad,Animals,9,0,9,0,1,,,,,,,,,,,,,,,,,,
,,,,,,,,,,,,,,,89191,001,2022-04-21_14h09.32.932,SPAMnetsValid,2021.1.4,Win32,60.89392279,,,,,,,,,,,,,,,,,,,,,,,,,,,,,,,,,,,,,,,,,,,,,,,,,,,,,,,,,,,,,,,,,squirrel,Animals,10,0,10,0,1,,,,,,,,,,,,,,,,,,
,,,,,,,,,,,,,,,89191,001,2022-04-21_14h09.32.932,SPAMnetsValid,2021.1.4,Win32,60.89392279,,,,,,,,,,,,,,,,,,,,,,,,,,,,,,,,,,,,,,,,,,,,,,,,,,,,,,,,,,,,,,,,,monkey,Animals,11,0,11,0,1,,,,,,,,,,,,,,,,,,
,,,,,,,,,,,,,,,89191,001,2022-04-21_14h09.32.932,SPAMnetsValid,2021.1.4,Win32,60.89392279,,,,,,,,,,,,,,,,,,,,,,,,,,,,,,,,,,,,,,,,,,,,,,,,,,,,,,,,,,,,,,,,,ape,Animals,12,0,12,0,1,,,,,,,,,,,,,,,,,,
,,,,,,,,,,,,,,,89191,001,2022-04-21_14h09.32.932,SPAMnetsValid,2021.1.4,Win32,60.89392279,,,,,,,,,,,,,,,,,,,,,,,,,,,,,,,,,,,,,,,,,,,,,,,,,,,,,,,,,,,,,,,,,gorilla,Animals,13,0,13,0,1,,,,,,,,,,,,,,,,,,
,,,,,,,,,,,,,,,89191,001,2022-04-21_14h09.32.932,SPAMnetsValid,2021.1.4,Win32,60.89392279,,,,,,,,,,,,,,,,,,,,,,,,,,,,,,,,,,,,,,,,,,,,,,,,,,,,,,,,,,,,,,,,,meerkat,Animals,14,0,14,0,1,,,,,,,,,,,,,,,,,,
,,,,,,,,,,,,,,,89191,001,2022-04-21_14h09.32.932,SPAMnetsValid,2021.1.4,Win32,60.89392279,,,,,,,,,,,,,,,,,,,,,,,,,,,,,,,,,,,,,,,,,,,,,,,,,,,,,,,,,,,,,,,,,fish,Animals,15,0,15,0,1,,,,,,,,,,,,,,,,,,
,,,,,,,,,,,,,,,89191,001,2022-04-21_14h09.32.932,SPAMnetsValid,2021.1.4,Win32,60.89392279,,,,,,,,,,,,,,,,,,,,,,,,,,,,,,,,,,,,,,,,,,,,,,,,,,,,,,,,,,,,,,,,,dolphin,Animals,16,0,16,0,1,,,,,,,,,,,,,,,,,,
,,,,,,,,,,,,,,,89191,001,2022-04-21_14h09.32.932,SPAMnetsValid,2021.1.4,Win32,60.89392279,,,,,,,,,,,,,,,,,,,,,,,,,,,,,,,,,,,,,,,,,,,,,,,,,,,,,,,,,,,,,,,,,orca,Animals,17,0,17,0,1,,,,,,,,,,,,,,,,,,
,,,,,,,,,,,,,,,89191,001,2022-04-21_14h09.32.932,SPAMnetsValid,2021.1.4,Win32,60.89392279,,,,,,,,,,,,,,,,,,,,,,,,,,,,,,,,,,,,,,,,,,,,,,,,,,,,,,,,,,,,,,,,,shrimp,Animals,18,0,18,0,1,,,,,,,,,,,,,,,,,,
,,,,,,,,,,,,,,,89191,001,2022-04-21_14h09.32.932,SPAMnetsValid,2021.1.4,Win32,60.89392279,,,,,,,,,,,,,,,,,,,,,,,,,,,,,,,,,,,,,,,,,,,,,,,,,,,,,,,,,,,,,,,,,krill,Animals,19,0,19,0,1,,,,,,,,,,,,,,,,,,
,,,,,,,,,,,,,,,89191,001,2022-04-21_14h09.32.932,SPAMnetsValid,2021.1.4,Win32,60.89392279,,,,,,,,,,,,,,,,,,,,,,,,,,,,,,,,,,,,,,,,,,,,,,,,,,,,,,,,,,,,,,,,,penguin,Animals,20,0,20,0,1,,,,,,,,,,,,,,,,,,
,,,,,,,,,,,,,,,89191,001,2022-04-21_14h09.32.932,SPAMnetsValid,2021.1.4,Win32,60.89392279,,,,,,,,,,,,,,,,,,,,,,,,,,,,,,,,,,,,,,,,,,,,,,,,,,,,,,,,,,,,,,,,,puffin,Animals,21,0,21,0,1,,,,,,,,,,,,,,,,,,
,,,,,,,,,,,,,,,89191,001,2022-04-21_14h09.32.932,SPAMnetsValid,2021.1.4,Win32,60.89392279,,,,,,,,,,,,,,,,,,,,,,,,,,,,,,,,,,,,,,,,,,,,,,,,,,,,,,,,,,,,,,,,,lion seal,Animals,22,0,22,0,1,,,,,,,,,,,,,,,,,,
,,,,,,,,,,,,,,,89191,001,2022-04-21_14h09.32.932,SPAMnetsValid,2021.1.4,Win32,60.89392279,,,,,,,,,,,,,,,,,,,,,,,,,,,,,,,,,,,,,,,,,,,,,,,,,,,,,,,,,,,,,,,,,tiger shark,Animals,23,0,23,0,1,,,,,,,,,,,,,,,,,,
,,,,,,,,,,,,,,,89191,001,2022-04-21_14h09.32.932,SPAMnetsValid,2021.1.4,Win32,60.89392279,,,,,,,,,,,,,,,,,,,,,,,,,,,,,,,,,,,,,,,,,,,,,,,,,,,,,,,,,,,,,,,,,squid,Animals,24,0,24,0,1,,,,,,,,,,,,,,,,,,
,,,,,,,,,,,,,,,89191,001,2022-04-21_14h09.32.932,SPAMnetsValid,2021.1.4,Win32,60.89392279,,,,,,,,,,,,,,,,,,,,,,,,,,,,,,,,,,,,,,,,,,,,,,,,,,,,,,,,,,,,,,,,,octopus,Animals,25,0,25,0,1,,,,,,,,,,,,,,,,,,
,,,,,,,,,,,,,,,89191,001,2022-04-21_14h09.32.932,SPAMnetsValid,2021.1.4,Win32,60.89392279,,,,,,,,,,,,,,,,,,,,,,,,,,,,,,,,,,,,,,,,,,,,,,,,,,,,,,,,,,,,,,,,,,,,,,,,0,0,0,0,1,Animals,,,,,,,,,,,,
,,,,,,,,,,,,,,,89191,001,2022-04-21_14h09.32.932,SPAMnetsValid,2021.1.4,Win32,60.89392279,,,,,,,,,,,,,,,,,,,,,,,,,,,,,,,,,,,,,,,,,,,,,,,,,,,,,,,,,,,,,,,,,,,,,,,,,,,,,,3,4.5146,0,0,0,0,1,"I enjoy concentrating on a fantasy or daydream and exploring all its possibilities, letting it grow and develop.",0,1,,
,,,,,,,,,,,,,,,89191,001,2022-04-21_14h09.32.932,SPAMnetsValid,2021.1.4,Win32,60.89392279,,,,,,,,,,,,,,,,,,,,,,,,,,,,,,,,,,,,,,,,,,,,,,,,,,,,,,,,,,,,,,,,,,,,,,,,,,,,,,4,4.1395,0,1,1,1,1,I think it's interesting to learn and develop new hobbies.,0,2,,
,,,,,,,,,,,,,,,89191,001,2022-04-21_14h09.32.932,SPAMnetsValid,2021.1.4,Win32,60.89392279,,,,,,,,,,,,,,,,,,,,,,,,,,,,,,,,,,,,,,,,,,,,,,,,,,,,,,,,,,,,,,,,,,,,,,,,,,,,,,2,2.9487,0,2,2,2,1,I am intrigued by the patterns I find in art and nature.,0,3,,
,,,,,,,,,,,,,,,89191,001,2022-04-21_14h09.32.932,SPAMnetsValid,2021.1.4,Win32,60.89392279,,,,,,,,,,,,,,,,,,,,,,,,,,,,,,,,,,,,,,,,,,,,,,,,,,,,,,,,,,,,,,,,,,,,,,,,,,,,,,2,3.6637,0,3,3,3,1,I believe letting students hear controversial speakers can only confuse and mislead them.,1,4,,
,,,,,,,,,,,,,,,89191,001,2022-04-21_14h09.32.932,SPAMnetsValid,2021.1.4,Win32,60.89392279,,,,,,,,,,,,,,,,,,,,,,,,,,,,,,,,,,,,,,,,,,,,,,,,,,,,,,,,,,,,,,,,,,,,,,,,,,,,,,4,4.8288,0,4,4,4,1,Poetry has little or no effect on me.,1,5,,
,,,,,,,,,,,,,,,89191,001,2022-04-21_14h09.32.932,SPAMnetsValid,2021.1.4,Win32,60.89392279,,,,,,,,,,,,,,,,,,,,,,,,,,,,,,,,,,,,,,,,,,,,,,,,,,,,,,,,,,,,,,,,,,,,,,,,,,,,,,3,2.7946,0,5,5,5,1,I would have difficulty just letting my mind wander without control or guidance.,1,6,,
,,,,,,,,,,,,,,,89191,001,2022-04-21_14h09.32.932,SPAMnetsValid,2021.1.4,Win32,60.89392279,,,,,,,,,,,,,,,,,,,,,,,,,,,,,,,,,,,,,,,,,,,,,,,,,,,,,,,,,,,,,,,,,,,,,,,,,,,,,,3,10.6982,0,6,6,6,1,I seldom notice the moods or feelings that different environments produce.,1,7,,
,,,,,,,,,,,,,,,89191,001,2022-04-21_14h09.32.932,SPAMnetsValid,2021.1.4,Win32,60.89392279,,,,,,,,,,,,,,,,,,,,,,,,,,,,,,,,,,,,,,,,,,,,,,,,,,,,,,,,,,,,,,,,,,,,,,,,,,,,,,4,2.956,0,7,7,7,1,I experience a wide range of emotions or feelings.,0,8,,
,,,,,,,,,,,,,,,89191,001,2022-04-21_14h09.32.932,SPAMnetsValid,2021.1.4,Win32,60.89392279,,,,,,,,,,,,,,,,,,,,,,,,,,,,,,,,,,,,,,,,,,,,,,,,,,,,,,,,,,,,,,,,,,,,,,,,,,,,,,2,6.7094,0,8,8,8,1,"Sometimes when I am reading poetry or looking at a work of art, I feel a chill or wave of excitement.",0,9,,
,,,,,,,,,,,,,,,89191,001,2022-04-21_14h09.32.932,SPAMnetsValid,2021.1.4,Win32,60.89392279,,,,,,,,,,,,,,,,,,,,,,,,,,,,,,,,,,,,,,,,,,,,,,,,,,,,,,,,,,,,,,,,,,,,,,,,,,,,,,3,2.6807,0,9,9,9,1,I have little interest in speculating on the nature of the universe or the human condition.,1,10,,
,,,,,,,,,,,,,,,89191,001,2022-04-21_14h09.32.932,SPAMnetsValid,2021.1.4,Win32,60.89392279,,,,,,,,,,,,,,,,,,,,,,,,,,,,,,,,,,,,,,,,,,,,,,,,,,,,,,,,,,,,,,,,,,,,,,,,,,,,,,4,2.5958,0,10,10,10,1,I have a lot of intellectual curiosity.,0,11,,
,,,,,,,,,,,,,,,89191,001,2022-04-21_14h09.32.932,SPAMnetsValid,2021.1.4,Win32,60.89392279,,,,,,,,,,,,,,,,,,,,,,,,,,,,,,,,,,,,,,,,,,,,,,,,,,,,,,,,,,,,,,,,,,,,,,,,,,,,,,3,3.1366,0,11,11,11,1,I often enjoy playing with theories or abstract ideas.,0,12,,
,,,,,,,,,,,,,,,89191,001,2022-04-21_14h09.32.932,SPAMnetsValid,2021.1.4,Win32,60.89392279,,,,,,,,,,,,,,,,,,,,,,,,,,,,,,,,,,,,,,,,,,,,,,,,,,,,,,,,,,,,,,,,,,,,,,,,,,,,,,,,,,,,,,,,return,8.5373
