key_resp_3.keys,key_resp_3.rt,slider.response,slider.rt,rjt_rating,rjt_RT,trials_22.thisRepN,trials_22.thisTrialN,trials_22.thisN,trials_22.thisIndex,trials_22.ran,rjt_order,word1,word2,attention,participant,session,date,expName,psychopyVersion,OS,frameRate,trials_99.thisRepN,trials_99.thisTrialN,trials_99.thisN,trials_99.thisIndex,trials_99.ran,trials_5.thisRepN,trials_5.thisTrialN,trials_5.thisN,trials_5.thisIndex,trials_5.ran,repOne,repTwo,slider_2.response,slider_2.rt,trials_24.thisRepN,trials_24.thisTrialN,trials_24.thisN,trials_24.thisIndex,trials_24.ran,trials_4.thisRepN,trials_4.thisTrialN,trials_4.thisN,trials_4.thisIndex,trials_4.ran,slider_extend_2.response,slider_extend_2.rt,trials_6.thisRepN,trials_6.thisTrialN,trials_6.thisN,trials_6.thisIndex,trials_6.ran,vCue2,R1,R2,R3,R4,correct,sliderVocab.response,sliderVocab.rt,trials_7.thisRepN,trials_7.thisTrialN,trials_7.thisN,trials_7.thisIndex,trials_7.ran,VocabCue,VR1,VR2,VR3,VR4,VR5,VocabCorrect,AUT_resp,AUT_label,trials.thisRepN,trials.thisTrialN,trials.thisN,trials.thisIndex,trials.ran,trials_2.thisRepN,trials_2.thisTrialN,trials_2.thisN,trials_2.thisIndex,trials_2.ran,aut_prompt,VF_response,VF_tag,trials_16.thisRepN,trials_16.thisTrialN,trials_16.thisN,trials_16.thisIndex,trials_16.ran,trials_17.thisRepN,trials_17.thisTrialN,trials_17.thisN,trials_17.thisIndex,trials_17.ran,VFcond,open_slider.response,open_slider.rt,trials_3.thisRepN,trials_3.thisTrialN,trials_3.thisN,trials_3.thisIndex,trials_3.ran,OpenQ,Rev,OPEN_ORDER,key_resp_2.keys,key_resp_2.rt
return,1.9117,1,3.7403,1,3.7403,0,0,0,4,1,83,broom,carrot,,89197,001,2022-04-26_17h14.24.271,SPAMnetsValid,2021.1.4,Win32,60.04563468,,,,,,,,,,,,,,,,,,,,,,,,,,,,,,,,,,,,,,,,,,,,,,,,,,,,,,,,,,,,,,,,,,,,,,,,,,,,,,,,,,,,,,,,,
,,9,2.4974,9,2.4974,0,1,1,87,1,79,garden,strawberry,,89197,001,2022-04-26_17h14.24.271,SPAMnetsValid,2021.1.4,Win32,60.04563468,,,,,,,,,,,,,,,,,,,,,,,,,,,,,,,,,,,,,,,,,,,,,,,,,,,,,,,,,,,,,,,,,,,,,,,,,,,,,,,,,,,,,,,,,
,,8,2.0324,8,2.0324,0,2,2,38,1,88,cactus,melon,,89197,001,2022-04-26_17h14.24.271,SPAMnetsValid,2021.1.4,Win32,60.04563468,,,,,,,,,,,,,,,,,,,,,,,,,,,,,,,,,,,,,,,,,,,,,,,,,,,,,,,,,,,,,,,,,,,,,,,,,,,,,,,,,,,,,,,,,
,,1,1.3806,1,1.3806,0,3,3,27,1,72,broom,onion,,89197,001,2022-04-26_17h14.24.271,SPAMnetsValid,2021.1.4,Win32,60.04563468,,,,,,,,,,,,,,,,,,,,,,,,,,,,,,,,,,,,,,,,,,,,,,,,,,,,,,,,,,,,,,,,,,,,,,,,,,,,,,,,,,,,,,,,,
,,2,2.366,2,2.366,0,4,4,79,1,86,oven,rose,,89197,001,2022-04-26_17h14.24.271,SPAMnetsValid,2021.1.4,Win32,60.04563468,,,,,,,,,,,,,,,,,,,,,,,,,,,,,,,,,,,,,,,,,,,,,,,,,,,,,,,,,,,,,,,,,,,,,,,,,,,,,,,,,,,,,,,,,
,,8,2.018,8,2.018,0,5,5,94,1,68,flower,tomato,,89197,001,2022-04-26_17h14.24.271,SPAMnetsValid,2021.1.4,Win32,60.04563468,,,,,,,,,,,,,,,,,,,,,,,,,,,,,,,,,,,,,,,,,,,,,,,,,,,,,,,,,,,,,,,,,,,,,,,,,,,,,,,,,,,,,,,,,
,,9,2.0956,9,2.0956,0,6,6,66,1,20,rose,tree,,89197,001,2022-04-26_17h14.24.271,SPAMnetsValid,2021.1.4,Win32,60.04563468,,,,,,,,,,,,,,,,,,,,,,,,,,,,,,,,,,,,,,,,,,,,,,,,,,,,,,,,,,,,,,,,,,,,,,,,,,,,,,,,,,,,,,,,,
,,6,3.4316,6,3.4316,0,7,7,23,1,65,broom,garden,,89197,001,2022-04-26_17h14.24.271,SPAMnetsValid,2021.1.4,Win32,60.04563468,,,,,,,,,,,,,,,,,,,,,,,,,,,,,,,,,,,,,,,,,,,,,,,,,,,,,,,,,,,,,,,,,,,,,,,,,,,,,,,,,,,,,,,,,
,,6,1.4145,6,1.4145,0,8,8,49,1,57,flower,kitchen,,89197,001,2022-04-26_17h14.24.271,SPAMnetsValid,2021.1.4,Win32,60.04563468,,,,,,,,,,,,,,,,,,,,,,,,,,,,,,,,,,,,,,,,,,,,,,,,,,,,,,,,,,,,,,,,,,,,,,,,,,,,,,,,,,,,,,,,,
,,9,2.3491,9,2.3491,0,9,9,44,1,25,carrot,onion,,89197,001,2022-04-26_17h14.24.271,SPAMnetsValid,2021.1.4,Win32,60.04563468,,,,,,,,,,,,,,,,,,,,,,,,,,,,,,,,,,,,,,,,,,,,,,,,,,,,,,,,,,,,,,,,,,,,,,,,,,,,,,,,,,,,,,,,,
,,2,3.0508,2,3.0508,0,10,10,1,1,31,cactus,pretzel,,89197,001,2022-04-26_17h14.24.271,SPAMnetsValid,2021.1.4,Win32,60.04563468,,,,,,,,,,,,,,,,,,,,,,,,,,,,,,,,,,,,,,,,,,,,,,,,,,,,,,,,,,,,,,,,,,,,,,,,,,,,,,,,,,,,,,,,,
,,1,1.2492,1,1.2492,0,11,11,59,1,8,broom,melon,,89197,001,2022-04-26_17h14.24.271,SPAMnetsValid,2021.1.4,Win32,60.04563468,,,,,,,,,,,,,,,,,,,,,,,,,,,,,,,,,,,,,,,,,,,,,,,,,,,,,,,,,,,,,,,,,,,,,,,,,,,,,,,,,,,,,,,,,
,,4,1.904,4,1.904,0,12,12,20,1,39,melon,pretzel,,89197,001,2022-04-26_17h14.24.271,SPAMnetsValid,2021.1.4,Win32,60.04563468,,,,,,,,,,,,,,,,,,,,,,,,,,,,,,,,,,,,,,,,,,,,,,,,,,,,,,,,,,,,,,,,,,,,,,,,,,,,,,,,,,,,,,,,,
,,2,2.0009,2,2.0009,0,13,13,56,1,78,cookie,rose,,89197,001,2022-04-26_17h14.24.271,SPAMnetsValid,2021.1.4,Win32,60.04563468,,,,,,,,,,,,,,,,,,,,,,,,,,,,,,,,,,,,,,,,,,,,,,,,,,,,,,,,,,,,,,,,,,,,,,,,,,,,,,,,,,,,,,,,,
,,1,1.4031,1,1.4031,0,14,14,61,1,71,broom,rose,,89197,001,2022-04-26_17h14.24.271,SPAMnetsValid,2021.1.4,Win32,60.04563468,,,,,,,,,,,,,,,,,,,,,,,,,,,,,,,,,,,,,,,,,,,,,,,,,,,,,,,,,,,,,,,,,,,,,,,,,,,,,,,,,,,,,,,,,
,,9,1.2487,9,1.2487,0,15,15,75,1,69,carrot,refrigerator,,89197,001,2022-04-26_17h14.24.271,SPAMnetsValid,2021.1.4,Win32,60.04563468,,,,,,,,,,,,,,,,,,,,,,,,,,,,,,,,,,,,,,,,,,,,,,,,,,,,,,,,,,,,,,,,,,,,,,,,,,,,,,,,,,,,,,,,,
,,7,1.1513,7,1.1513,0,16,16,36,1,12,cookie,yogurt,,89197,001,2022-04-26_17h14.24.271,SPAMnetsValid,2021.1.4,Win32,60.04563468,,,,,,,,,,,,,,,,,,,,,,,,,,,,,,,,,,,,,,,,,,,,,,,,,,,,,,,,,,,,,,,,,,,,,,,,,,,,,,,,,,,,,,,,,
,,2,1.9992,2,1.9992,0,17,17,0,1,53,garden,pretzel,,89197,001,2022-04-26_17h14.24.271,SPAMnetsValid,2021.1.4,Win32,60.04563468,,,,,,,,,,,,,,,,,,,,,,,,,,,,,,,,,,,,,,,,,,,,,,,,,,,,,,,,,,,,,,,,,,,,,,,,,,,,,,,,,,,,,,,,,
,,1,1.2659,1,1.2659,0,18,18,46,1,41,broom,cactus,,89197,001,2022-04-26_17h14.24.271,SPAMnetsValid,2021.1.4,Win32,60.04563468,,,,,,,,,,,,,,,,,,,,,,,,,,,,,,,,,,,,,,,,,,,,,,,,,,,,,,,,,,,,,,,,,,,,,,,,,,,,,,,,,,,,,,,,,
,,9,1.3516,9,1.3516,0,19,19,96,1,82,cake,kitchen,,89197,001,2022-04-26_17h14.24.271,SPAMnetsValid,2021.1.4,Win32,60.04563468,,,,,,,,,,,,,,,,,,,,,,,,,,,,,,,,,,,,,,,,,,,,,,,,,,,,,,,,,,,,,,,,,,,,,,,,,,,,,,,,,,,,,,,,,
,,9,1.3347,9,1.3347,0,20,20,58,1,94,kitchen,microwave,,89197,001,2022-04-26_17h14.24.271,SPAMnetsValid,2021.1.4,Win32,60.04563468,,,,,,,,,,,,,,,,,,,,,,,,,,,,,,,,,,,,,,,,,,,,,,,,,,,,,,,,,,,,,,,,,,,,,,,,,,,,,,,,,,,,,,,,,
,,1,1.2175,1,1.2175,0,21,21,40,1,74,broom,pretzel,,89197,001,2022-04-26_17h14.24.271,SPAMnetsValid,2021.1.4,Win32,60.04563468,,,,,,,,,,,,,,,,,,,,,,,,,,,,,,,,,,,,,,,,,,,,,,,,,,,,,,,,,,,,,,,,,,,,,,,,,,,,,,,,,,,,,,,,,
,,2,2.2345,2,2.2345,0,22,22,7,1,34,melon,oven,,89197,001,2022-04-26_17h14.24.271,SPAMnetsValid,2021.1.4,Win32,60.04563468,,,,,,,,,,,,,,,,,,,,,,,,,,,,,,,,,,,,,,,,,,,,,,,,,,,,,,,,,,,,,,,,,,,,,,,,,,,,,,,,,,,,,,,,,
,,2,1.6852,2,1.6852,0,23,23,15,1,48,flower,oven,,89197,001,2022-04-26_17h14.24.271,SPAMnetsValid,2021.1.4,Win32,60.04563468,,,,,,,,,,,,,,,,,,,,,,,,,,,,,,,,,,,,,,,,,,,,,,,,,,,,,,,,,,,,,,,,,,,,,,,,,,,,,,,,,,,,,,,,,
,,9,1.9235,9,1.9235,0,24,24,2,1,22,kitchen,strawberry,,89197,001,2022-04-26_17h14.24.271,SPAMnetsValid,2021.1.4,Win32,60.04563468,,,,,,,,,,,,,,,,,,,,,,,,,,,,,,,,,,,,,,,,,,,,,,,,,,,,,,,,,,,,,,,,,,,,,,,,,,,,,,,,,,,,,,,,,
,,9,1.0207,9,1.0207,0,25,25,19,1,76,garden,rose,,89197,001,2022-04-26_17h14.24.271,SPAMnetsValid,2021.1.4,Win32,60.04563468,,,,,,,,,,,,,,,,,,,,,,,,,,,,,,,,,,,,,,,,,,,,,,,,,,,,,,,,,,,,,,,,,,,,,,,,,,,,,,,,,,,,,,,,,
,,1,1.0502,1,1.0502,0,26,26,90,1,95,broom,refrigerator,,89197,001,2022-04-26_17h14.24.271,SPAMnetsValid,2021.1.4,Win32,60.04563468,,,,,,,,,,,,,,,,,,,,,,,,,,,,,,,,,,,,,,,,,,,,,,,,,,,,,,,,,,,,,,,,,,,,,,,,,,,,,,,,,,,,,,,,,
,,9,1.681,9,1.681,0,27,27,29,1,42,garden,kitchen,,89197,001,2022-04-26_17h14.24.271,SPAMnetsValid,2021.1.4,Win32,60.04563468,,,,,,,,,,,,,,,,,,,,,,,,,,,,,,,,,,,,,,,,,,,,,,,,,,,,,,,,,,,,,,,,,,,,,,,,,,,,,,,,,,,,,,,,,
,,7,1.2262,7,1.2262,0,28,28,57,1,62,kitchen,rose,,89197,001,2022-04-26_17h14.24.271,SPAMnetsValid,2021.1.4,Win32,60.04563468,,,,,,,,,,,,,,,,,,,,,,,,,,,,,,,,,,,,,,,,,,,,,,,,,,,,,,,,,,,,,,,,,,,,,,,,,,,,,,,,,,,,,,,,,
,,4,1.4327,4,1.4327,0,29,29,54,1,28,cake,melon,,89197,001,2022-04-26_17h14.24.271,SPAMnetsValid,2021.1.4,Win32,60.04563468,,,,,,,,,,,,,,,,,,,,,,,,,,,,,,,,,,,,,,,,,,,,,,,,,,,,,,,,,,,,,,,,,,,,,,,,,,,,,,,,,,,,,,,,,
,,2,1.9901,2,1.9901,0,30,30,70,1,5,oven,tree,,89197,001,2022-04-26_17h14.24.271,SPAMnetsValid,2021.1.4,Win32,60.04563468,,,,,,,,,,,,,,,,,,,,,,,,,,,,,,,,,,,,,,,,,,,,,,,,,,,,,,,,,,,,,,,,,,,,,,,,,,,,,,,,,,,,,,,,,
,,7,2.467,7,2.467,0,31,31,78,1,30,cookie,pretzel,,89197,001,2022-04-26_17h14.24.271,SPAMnetsValid,2021.1.4,Win32,60.04563468,,,,,,,,,,,,,,,,,,,,,,,,,,,,,,,,,,,,,,,,,,,,,,,,,,,,,,,,,,,,,,,,,,,,,,,,,,,,,,,,,,,,,,,,,
,,9,1.1809,9,1.1809,0,32,32,64,1,9,kitchen,refrigerator,,89197,001,2022-04-26_17h14.24.271,SPAMnetsValid,2021.1.4,Win32,60.04563468,,,,,,,,,,,,,,,,,,,,,,,,,,,,,,,,,,,,,,,,,,,,,,,,,,,,,,,,,,,,,,,,,,,,,,,,,,,,,,,,,,,,,,,,,
,,8,1.8148,8,1.8148,0,33,33,62,1,18,onion,refrigerator,,89197,001,2022-04-26_17h14.24.271,SPAMnetsValid,2021.1.4,Win32,60.04563468,,,,,,,,,,,,,,,,,,,,,,,,,,,,,,,,,,,,,,,,,,,,,,,,,,,,,,,,,,,,,,,,,,,,,,,,,,,,,,,,,,,,,,,,,
,,6,2.0654,6,2.0654,0,34,34,50,1,81,pretzel,yogurt,,89197,001,2022-04-26_17h14.24.271,SPAMnetsValid,2021.1.4,Win32,60.04563468,,,,,,,,,,,,,,,,,,,,,,,,,,,,,,,,,,,,,,,,,,,,,,,,,,,,,,,,,,,,,,,,,,,,,,,,,,,,,,,,,,,,,,,,,
,,1,1.1678,1,1.1678,0,35,35,88,1,92,broom,flower,,89197,001,2022-04-26_17h14.24.271,SPAMnetsValid,2021.1.4,Win32,60.04563468,,,,,,,,,,,,,,,,,,,,,,,,,,,,,,,,,,,,,,,,,,,,,,,,,,,,,,,,,,,,,,,,,,,,,,,,,,,,,,,,,,,,,,,,,
,,6,1.6656,6,1.6656,0,36,36,63,1,21,cake,onion,,89197,001,2022-04-26_17h14.24.271,SPAMnetsValid,2021.1.4,Win32,60.04563468,,,,,,,,,,,,,,,,,,,,,,,,,,,,,,,,,,,,,,,,,,,,,,,,,,,,,,,,,,,,,,,,,,,,,,,,,,,,,,,,,,,,,,,,,
,,2,3.2158,2,3.2158,0,37,37,85,1,90,cactus,cake,,89197,001,2022-04-26_17h14.24.271,SPAMnetsValid,2021.1.4,Win32,60.04563468,,,,,,,,,,,,,,,,,,,,,,,,,,,,,,,,,,,,,,,,,,,,,,,,,,,,,,,,,,,,,,,,,,,,,,,,,,,,,,,,,,,,,,,,,
,,1,2.5997,1,2.5997,0,38,38,16,1,14,broom,cookie,,89197,001,2022-04-26_17h14.24.271,SPAMnetsValid,2021.1.4,Win32,60.04563468,,,,,,,,,,,,,,,,,,,,,,,,,,,,,,,,,,,,,,,,,,,,,,,,,,,,,,,,,,,,,,,,,,,,,,,,,,,,,,,,,,,,,,,,,
,,9,1.6512,9,1.6512,0,39,39,53,1,192,microwave,microwave,CHECK,89197,001,2022-04-26_17h14.24.271,SPAMnetsValid,2021.1.4,Win32,60.04563468,,,,,,,,,,,,,,,,,,,,,,,,,,,,,,,,,,,,,,,,,,,,,,,,,,,,,,,,,,,,,,,,,,,,,,,,,,,,,,,,,,,,,,,,,
,,7,1.9955,7,1.9955,0,40,40,21,1,56,cactus,tree,,89197,001,2022-04-26_17h14.24.271,SPAMnetsValid,2021.1.4,Win32,60.04563468,,,,,,,,,,,,,,,,,,,,,,,,,,,,,,,,,,,,,,,,,,,,,,,,,,,,,,,,,,,,,,,,,,,,,,,,,,,,,,,,,,,,,,,,,
,,2,1.9319,2,1.9319,0,41,41,41,1,19,microwave,pretzel,,89197,001,2022-04-26_17h14.24.271,SPAMnetsValid,2021.1.4,Win32,60.04563468,,,,,,,,,,,,,,,,,,,,,,,,,,,,,,,,,,,,,,,,,,,,,,,,,,,,,,,,,,,,,,,,,,,,,,,,,,,,,,,,,,,,,,,,,
,,1,1.486,1,1.486,0,42,42,47,1,73,broom,chocolate,,89197,001,2022-04-26_17h14.24.271,SPAMnetsValid,2021.1.4,Win32,60.04563468,,,,,,,,,,,,,,,,,,,,,,,,,,,,,,,,,,,,,,,,,,,,,,,,,,,,,,,,,,,,,,,,,,,,,,,,,,,,,,,,,,,,,,,,,
,,1,1.058,1,1.058,0,43,43,43,1,11,refrigerator,tree,,89197,001,2022-04-26_17h14.24.271,SPAMnetsValid,2021.1.4,Win32,60.04563468,,,,,,,,,,,,,,,,,,,,,,,,,,,,,,,,,,,,,,,,,,,,,,,,,,,,,,,,,,,,,,,,,,,,,,,,,,,,,,,,,,,,,,,,,
,,1,1.2058,1,1.2058,0,44,44,12,1,67,flower,yogurt,,89197,001,2022-04-26_17h14.24.271,SPAMnetsValid,2021.1.4,Win32,60.04563468,,,,,,,,,,,,,,,,,,,,,,,,,,,,,,,,,,,,,,,,,,,,,,,,,,,,,,,,,,,,,,,,,,,,,,,,,,,,,,,,,,,,,,,,,
,,9,1.4679,9,1.4679,0,45,45,35,1,55,tomato,tree,,89197,001,2022-04-26_17h14.24.271,SPAMnetsValid,2021.1.4,Win32,60.04563468,,,,,,,,,,,,,,,,,,,,,,,,,,,,,,,,,,,,,,,,,,,,,,,,,,,,,,,,,,,,,,,,,,,,,,,,,,,,,,,,,,,,,,,,,
,,8,2.0537,8,2.0537,0,46,46,42,1,77,refrigerator,yogurt,,89197,001,2022-04-26_17h14.24.271,SPAMnetsValid,2021.1.4,Win32,60.04563468,,,,,,,,,,,,,,,,,,,,,,,,,,,,,,,,,,,,,,,,,,,,,,,,,,,,,,,,,,,,,,,,,,,,,,,,,,,,,,,,,,,,,,,,,
,,9,2.2023,9,2.2023,0,47,47,30,1,3,cake,oven,,89197,001,2022-04-26_17h14.24.271,SPAMnetsValid,2021.1.4,Win32,60.04563468,,,,,,,,,,,,,,,,,,,,,,,,,,,,,,,,,,,,,,,,,,,,,,,,,,,,,,,,,,,,,,,,,,,,,,,,,,,,,,,,,,,,,,,,,
,,2,1.942,2,1.942,0,48,48,34,1,29,chocolate,melon,,89197,001,2022-04-26_17h14.24.271,SPAMnetsValid,2021.1.4,Win32,60.04563468,,,,,,,,,,,,,,,,,,,,,,,,,,,,,,,,,,,,,,,,,,,,,,,,,,,,,,,,,,,,,,,,,,,,,,,,,,,,,,,,,,,,,,,,,
,,2,0.851,2,0.851,0,49,49,71,1,38,pretzel,refrigerator,,89197,001,2022-04-26_17h14.24.271,SPAMnetsValid,2021.1.4,Win32,60.04563468,,,,,,,,,,,,,,,,,,,,,,,,,,,,,,,,,,,,,,,,,,,,,,,,,,,,,,,,,,,,,,,,,,,,,,,,,,,,,,,,,,,,,,,,,
,,8,1.4658,8,1.4658,0,50,50,45,1,10,flower,onion,,89197,001,2022-04-26_17h14.24.271,SPAMnetsValid,2021.1.4,Win32,60.04563468,,,,,,,,,,,,,,,,,,,,,,,,,,,,,,,,,,,,,,,,,,,,,,,,,,,,,,,,,,,,,,,,,,,,,,,,,,,,,,,,,,,,,,,,,
,,2,1.1237,2,1.1237,0,51,51,14,1,64,chocolate,garden,,89197,001,2022-04-26_17h14.24.271,SPAMnetsValid,2021.1.4,Win32,60.04563468,,,,,,,,,,,,,,,,,,,,,,,,,,,,,,,,,,,,,,,,,,,,,,,,,,,,,,,,,,,,,,,,,,,,,,,,,,,,,,,,,,,,,,,,,
,,1,2.2833,1,2.2833,0,52,52,26,1,35,flower,pretzel,,89197,001,2022-04-26_17h14.24.271,SPAMnetsValid,2021.1.4,Win32,60.04563468,,,,,,,,,,,,,,,,,,,,,,,,,,,,,,,,,,,,,,,,,,,,,,,,,,,,,,,,,,,,,,,,,,,,,,,,,,,,,,,,,,,,,,,,,
,,6,2.4898,6,2.4898,0,53,53,92,1,44,cookie,melon,,89197,001,2022-04-26_17h14.24.271,SPAMnetsValid,2021.1.4,Win32,60.04563468,,,,,,,,,,,,,,,,,,,,,,,,,,,,,,,,,,,,,,,,,,,,,,,,,,,,,,,,,,,,,,,,,,,,,,,,,,,,,,,,,,,,,,,,,
,,6,1.1322,6,1.1322,0,54,54,39,1,15,onion,oven,,89197,001,2022-04-26_17h14.24.271,SPAMnetsValid,2021.1.4,Win32,60.04563468,,,,,,,,,,,,,,,,,,,,,,,,,,,,,,,,,,,,,,,,,,,,,,,,,,,,,,,,,,,,,,,,,,,,,,,,,,,,,,,,,,,,,,,,,
,,8,1.4747,8,1.4747,0,55,55,95,1,52,carrot,tomato,,89197,001,2022-04-26_17h14.24.271,SPAMnetsValid,2021.1.4,Win32,60.04563468,,,,,,,,,,,,,,,,,,,,,,,,,,,,,,,,,,,,,,,,,,,,,,,,,,,,,,,,,,,,,,,,,,,,,,,,,,,,,,,,,,,,,,,,,
,,7,3.2839,7,3.2839,0,56,56,81,1,60,cactus,onion,,89197,001,2022-04-26_17h14.24.271,SPAMnetsValid,2021.1.4,Win32,60.04563468,,,,,,,,,,,,,,,,,,,,,,,,,,,,,,,,,,,,,,,,,,,,,,,,,,,,,,,,,,,,,,,,,,,,,,,,,,,,,,,,,,,,,,,,,
,,6,1.3823,6,1.3823,0,57,57,72,1,59,rose,strawberry,,89197,001,2022-04-26_17h14.24.271,SPAMnetsValid,2021.1.4,Win32,60.04563468,,,,,,,,,,,,,,,,,,,,,,,,,,,,,,,,,,,,,,,,,,,,,,,,,,,,,,,,,,,,,,,,,,,,,,,,,,,,,,,,,,,,,,,,,
,,2,2.0229,2,2.0229,0,58,58,84,1,91,microwave,rose,,89197,001,2022-04-26_17h14.24.271,SPAMnetsValid,2021.1.4,Win32,60.04563468,,,,,,,,,,,,,,,,,,,,,,,,,,,,,,,,,,,,,,,,,,,,,,,,,,,,,,,,,,,,,,,,,,,,,,,,,,,,,,,,,,,,,,,,,
,,6,2.0983,6,2.0983,0,59,59,9,1,75,cookie,onion,,89197,001,2022-04-26_17h14.24.271,SPAMnetsValid,2021.1.4,Win32,60.04563468,,,,,,,,,,,,,,,,,,,,,,,,,,,,,,,,,,,,,,,,,,,,,,,,,,,,,,,,,,,,,,,,,,,,,,,,,,,,,,,,,,,,,,,,,
,,1,1.649,1,1.649,0,60,60,52,1,4,chocolate,pretzel,,89197,001,2022-04-26_17h14.24.271,SPAMnetsValid,2021.1.4,Win32,60.04563468,,,,,,,,,,,,,,,,,,,,,,,,,,,,,,,,,,,,,,,,,,,,,,,,,,,,,,,,,,,,,,,,,,,,,,,,,,,,,,,,,,,,,,,,,
,,1,2.8164,1,2.8164,0,61,61,22,1,16,chocolate,flower,,89197,001,2022-04-26_17h14.24.271,SPAMnetsValid,2021.1.4,Win32,60.04563468,,,,,,,,,,,,,,,,,,,,,,,,,,,,,,,,,,,,,,,,,,,,,,,,,,,,,,,,,,,,,,,,,,,,,,,,,,,,,,,,,,,,,,,,,
,,2,2.8869,2,2.8869,0,62,62,13,1,26,tomato,yogurt,,89197,001,2022-04-26_17h14.24.271,SPAMnetsValid,2021.1.4,Win32,60.04563468,,,,,,,,,,,,,,,,,,,,,,,,,,,,,,,,,,,,,,,,,,,,,,,,,,,,,,,,,,,,,,,,,,,,,,,,,,,,,,,,,,,,,,,,,
,,2,1.4648,2,1.4648,0,63,63,68,1,24,cookie,tomato,,89197,001,2022-04-26_17h14.24.271,SPAMnetsValid,2021.1.4,Win32,60.04563468,,,,,,,,,,,,,,,,,,,,,,,,,,,,,,,,,,,,,,,,,,,,,,,,,,,,,,,,,,,,,,,,,,,,,,,,,,,,,,,,,,,,,,,,,
,,2,1.3324,2,1.3324,0,64,64,48,1,66,melon,yogurt,,89197,001,2022-04-26_17h14.24.271,SPAMnetsValid,2021.1.4,Win32,60.04563468,,,,,,,,,,,,,,,,,,,,,,,,,,,,,,,,,,,,,,,,,,,,,,,,,,,,,,,,,,,,,,,,,,,,,,,,,,,,,,,,,,,,,,,,,
,,2,1.2299,2,1.2299,0,65,65,89,1,80,chocolate,tree,,89197,001,2022-04-26_17h14.24.271,SPAMnetsValid,2021.1.4,Win32,60.04563468,,,,,,,,,,,,,,,,,,,,,,,,,,,,,,,,,,,,,,,,,,,,,,,,,,,,,,,,,,,,,,,,,,,,,,,,,,,,,,,,,,,,,,,,,
,,2,1.0855,2,1.0855,0,66,66,73,1,50,carrot,rose,,89197,001,2022-04-26_17h14.24.271,SPAMnetsValid,2021.1.4,Win32,60.04563468,,,,,,,,,,,,,,,,,,,,,,,,,,,,,,,,,,,,,,,,,,,,,,,,,,,,,,,,,,,,,,,,,,,,,,,,,,,,,,,,,,,,,,,,,
,,9,1.6823,9,1.6823,0,67,67,10,1,191,cake,cake,CHECK,89197,001,2022-04-26_17h14.24.271,SPAMnetsValid,2021.1.4,Win32,60.04563468,,,,,,,,,,,,,,,,,,,,,,,,,,,,,,,,,,,,,,,,,,,,,,,,,,,,,,,,,,,,,,,,,,,,,,,,,,,,,,,,,,,,,,,,,
,,2,1.8843,2,1.8843,0,68,68,17,1,27,cactus,cookie,,89197,001,2022-04-26_17h14.24.271,SPAMnetsValid,2021.1.4,Win32,60.04563468,,,,,,,,,,,,,,,,,,,,,,,,,,,,,,,,,,,,,,,,,,,,,,,,,,,,,,,,,,,,,,,,,,,,,,,,,,,,,,,,,,,,,,,,,
,,2,0.7826,2,0.7826,0,69,69,5,1,13,broom,yogurt,,89197,001,2022-04-26_17h14.24.271,SPAMnetsValid,2021.1.4,Win32,60.04563468,,,,,,,,,,,,,,,,,,,,,,,,,,,,,,,,,,,,,,,,,,,,,,,,,,,,,,,,,,,,,,,,,,,,,,,,,,,,,,,,,,,,,,,,,
,,8,2.0378,8,2.0378,0,70,70,3,1,49,flower,strawberry,,89197,001,2022-04-26_17h14.24.271,SPAMnetsValid,2021.1.4,Win32,60.04563468,,,,,,,,,,,,,,,,,,,,,,,,,,,,,,,,,,,,,,,,,,,,,,,,,,,,,,,,,,,,,,,,,,,,,,,,,,,,,,,,,,,,,,,,,
,,2,1.4155,2,1.4155,0,71,71,67,1,54,chocolate,yogurt,,89197,001,2022-04-26_17h14.24.271,SPAMnetsValid,2021.1.4,Win32,60.04563468,,,,,,,,,,,,,,,,,,,,,,,,,,,,,,,,,,,,,,,,,,,,,,,,,,,,,,,,,,,,,,,,,,,,,,,,,,,,,,,,,,,,,,,,,
,,1,1.6377,1,1.6377,0,72,72,32,1,40,broom,cake,,89197,001,2022-04-26_17h14.24.271,SPAMnetsValid,2021.1.4,Win32,60.04563468,,,,,,,,,,,,,,,,,,,,,,,,,,,,,,,,,,,,,,,,,,,,,,,,,,,,,,,,,,,,,,,,,,,,,,,,,,,,,,,,,,,,,,,,,
,,8,1.3017,8,1.3017,0,73,73,80,1,61,strawberry,tomato,,89197,001,2022-04-26_17h14.24.271,SPAMnetsValid,2021.1.4,Win32,60.04563468,,,,,,,,,,,,,,,,,,,,,,,,,,,,,,,,,,,,,,,,,,,,,,,,,,,,,,,,,,,,,,,,,,,,,,,,,,,,,,,,,,,,,,,,,
,,1,1.2658,1,1.2658,0,74,74,31,1,33,oven,yogurt,,89197,001,2022-04-26_17h14.24.271,SPAMnetsValid,2021.1.4,Win32,60.04563468,,,,,,,,,,,,,,,,,,,,,,,,,,,,,,,,,,,,,,,,,,,,,,,,,,,,,,,,,,,,,,,,,,,,,,,,,,,,,,,,,,,,,,,,,
,,1,0.8583,1,0.8583,0,75,75,55,1,1,rose,yogurt,,89197,001,2022-04-26_17h14.24.271,SPAMnetsValid,2021.1.4,Win32,60.04563468,,,,,,,,,,,,,,,,,,,,,,,,,,,,,,,,,,,,,,,,,,,,,,,,,,,,,,,,,,,,,,,,,,,,,,,,,,,,,,,,,,,,,,,,,
,,1,0.8104,1,0.8104,0,76,76,76,1,36,broom,kitchen,,89197,001,2022-04-26_17h14.24.271,SPAMnetsValid,2021.1.4,Win32,60.04563468,,,,,,,,,,,,,,,,,,,,,,,,,,,,,,,,,,,,,,,,,,,,,,,,,,,,,,,,,,,,,,,,,,,,,,,,,,,,,,,,,,,,,,,,,
,,8,1.9177,8,1.9177,0,77,77,91,1,2,kitchen,onion,,89197,001,2022-04-26_17h14.24.271,SPAMnetsValid,2021.1.4,Win32,60.04563468,,,,,,,,,,,,,,,,,,,,,,,,,,,,,,,,,,,,,,,,,,,,,,,,,,,,,,,,,,,,,,,,,,,,,,,,,,,,,,,,,,,,,,,,,
,,2,5.0858,2,5.0858,0,78,78,60,1,89,chocolate,rose,,89197,001,2022-04-26_17h14.24.271,SPAMnetsValid,2021.1.4,Win32,60.04563468,,,,,,,,,,,,,,,,,,,,,,,,,,,,,,,,,,,,,,,,,,,,,,,,,,,,,,,,,,,,,,,,,,,,,,,,,,,,,,,,,,,,,,,,,
,,8,1.4994,8,1.4994,0,79,79,83,1,6,garden,onion,,89197,001,2022-04-26_17h14.24.271,SPAMnetsValid,2021.1.4,Win32,60.04563468,,,,,,,,,,,,,,,,,,,,,,,,,,,,,,,,,,,,,,,,,,,,,,,,,,,,,,,,,,,,,,,,,,,,,,,,,,,,,,,,,,,,,,,,,
,,1,2.133,1,2.133,0,80,80,25,1,23,flower,microwave,,89197,001,2022-04-26_17h14.24.271,SPAMnetsValid,2021.1.4,Win32,60.04563468,,,,,,,,,,,,,,,,,,,,,,,,,,,,,,,,,,,,,,,,,,,,,,,,,,,,,,,,,,,,,,,,,,,,,,,,,,,,,,,,,,,,,,,,,
,,8,1.1996,8,1.1996,0,81,81,86,1,51,onion,strawberry,,89197,001,2022-04-26_17h14.24.271,SPAMnetsValid,2021.1.4,Win32,60.04563468,,,,,,,,,,,,,,,,,,,,,,,,,,,,,,,,,,,,,,,,,,,,,,,,,,,,,,,,,,,,,,,,,,,,,,,,,,,,,,,,,,,,,,,,,
,,6,1.2327,6,1.2327,0,82,82,8,1,43,chocolate,tomato,,89197,001,2022-04-26_17h14.24.271,SPAMnetsValid,2021.1.4,Win32,60.04563468,,,,,,,,,,,,,,,,,,,,,,,,,,,,,,,,,,,,,,,,,,,,,,,,,,,,,,,,,,,,,,,,,,,,,,,,,,,,,,,,,,,,,,,,,
,,6,1.1534,6,1.1534,0,83,83,74,1,70,chocolate,onion,,89197,001,2022-04-26_17h14.24.271,SPAMnetsValid,2021.1.4,Win32,60.04563468,,,,,,,,,,,,,,,,,,,,,,,,,,,,,,,,,,,,,,,,,,,,,,,,,,,,,,,,,,,,,,,,,,,,,,,,,,,,,,,,,,,,,,,,,
,,6,1.7684,6,1.7684,0,84,84,11,1,37,garden,refrigerator,,89197,001,2022-04-26_17h14.24.271,SPAMnetsValid,2021.1.4,Win32,60.04563468,,,,,,,,,,,,,,,,,,,,,,,,,,,,,,,,,,,,,,,,,,,,,,,,,,,,,,,,,,,,,,,,,,,,,,,,,,,,,,,,,,,,,,,,,
,,6,1.704,6,1.704,0,85,85,33,1,32,cake,microwave,,89197,001,2022-04-26_17h14.24.271,SPAMnetsValid,2021.1.4,Win32,60.04563468,,,,,,,,,,,,,,,,,,,,,,,,,,,,,,,,,,,,,,,,,,,,,,,,,,,,,,,,,,,,,,,,,,,,,,,,,,,,,,,,,,,,,,,,,
,,2,1.7657,2,1.7657,0,86,86,18,1,85,cake,tree,,89197,001,2022-04-26_17h14.24.271,SPAMnetsValid,2021.1.4,Win32,60.04563468,,,,,,,,,,,,,,,,,,,,,,,,,,,,,,,,,,,,,,,,,,,,,,,,,,,,,,,,,,,,,,,,,,,,,,,,,,,,,,,,,,,,,,,,,
,,9,1.9343,9,1.9343,0,87,87,93,1,63,cake,cookie,,89197,001,2022-04-26_17h14.24.271,SPAMnetsValid,2021.1.4,Win32,60.04563468,,,,,,,,,,,,,,,,,,,,,,,,,,,,,,,,,,,,,,,,,,,,,,,,,,,,,,,,,,,,,,,,,,,,,,,,,,,,,,,,,,,,,,,,,
,,8,1.6388,8,1.6388,0,88,88,51,1,47,onion,tomato,,89197,001,2022-04-26_17h14.24.271,SPAMnetsValid,2021.1.4,Win32,60.04563468,,,,,,,,,,,,,,,,,,,,,,,,,,,,,,,,,,,,,,,,,,,,,,,,,,,,,,,,,,,,,,,,,,,,,,,,,,,,,,,,,,,,,,,,,
,,2,2.1349,2,2.1349,0,89,89,6,1,87,carrot,yogurt,,89197,001,2022-04-26_17h14.24.271,SPAMnetsValid,2021.1.4,Win32,60.04563468,,,,,,,,,,,,,,,,,,,,,,,,,,,,,,,,,,,,,,,,,,,,,,,,,,,,,,,,,,,,,,,,,,,,,,,,,,,,,,,,,,,,,,,,,
,,9,2.3678,9,2.3678,0,90,90,82,1,93,kitchen,oven,,89197,001,2022-04-26_17h14.24.271,SPAMnetsValid,2021.1.4,Win32,60.04563468,,,,,,,,,,,,,,,,,,,,,,,,,,,,,,,,,,,,,,,,,,,,,,,,,,,,,,,,,,,,,,,,,,,,,,,,,,,,,,,,,,,,,,,,,
,,2,1.353,2,1.353,0,91,91,37,1,58,garden,oven,,89197,001,2022-04-26_17h14.24.271,SPAMnetsValid,2021.1.4,Win32,60.04563468,,,,,,,,,,,,,,,,,,,,,,,,,,,,,,,,,,,,,,,,,,,,,,,,,,,,,,,,,,,,,,,,,,,,,,,,,,,,,,,,,,,,,,,,,
,,6,1.4635,6,1.4635,0,92,92,69,1,45,onion,pretzel,,89197,001,2022-04-26_17h14.24.271,SPAMnetsValid,2021.1.4,Win32,60.04563468,,,,,,,,,,,,,,,,,,,,,,,,,,,,,,,,,,,,,,,,,,,,,,,,,,,,,,,,,,,,,,,,,,,,,,,,,,,,,,,,,,,,,,,,,
,,1,1.5659,1,1.5659,0,93,93,65,1,46,garden,yogurt,,89197,001,2022-04-26_17h14.24.271,SPAMnetsValid,2021.1.4,Win32,60.04563468,,,,,,,,,,,,,,,,,,,,,,,,,,,,,,,,,,,,,,,,,,,,,,,,,,,,,,,,,,,,,,,,,,,,,,,,,,,,,,,,,,,,,,,,,
,,8,2.1135,8,2.1135,0,94,94,24,1,17,carrot,melon,,89197,001,2022-04-26_17h14.24.271,SPAMnetsValid,2021.1.4,Win32,60.04563468,,,,,,,,,,,,,,,,,,,,,,,,,,,,,,,,,,,,,,,,,,,,,,,,,,,,,,,,,,,,,,,,,,,,,,,,,,,,,,,,,,,,,,,,,
,,8,1.0328,8,1.0328,0,95,95,77,1,7,melon,tree,,89197,001,2022-04-26_17h14.24.271,SPAMnetsValid,2021.1.4,Win32,60.04563468,,,,,,,,,,,,,,,,,,,,,,,,,,,,,,,,,,,,,,,,,,,,,,,,,,,,,,,,,,,,,,,,,,,,,,,,,,,,,,,,,,,,,,,,,
,,1,1.688,1,1.688,0,96,96,28,1,84,oven,tomato,,89197,001,2022-04-26_17h14.24.271,SPAMnetsValid,2021.1.4,Win32,60.04563468,,,,,,,,,,,,,,,,,,,,,,,,,,,,,,,,,,,,,,,,,,,,,,,,,,,,,,,,,,,,,,,,,,,,,,,,,,,,,,,,,,,,,,,,,
,,,,,,,,,,,,,,,89197,001,2022-04-26_17h14.24.271,SPAMnetsValid,2021.1.4,Win32,60.04563468,0,0,0,0,1,,,,,,,,,,,,,,,,,,,,,,,,,,,,,,,,,,,,,,,,,,,,,,,,,,,,,,,,,,,,,,,,,,,,,,,,,,,,,,,,,,,,
,,,,,,,,,,,,,,,89197,001,2022-04-26_17h14.24.271,SPAMnetsValid,2021.1.4,Win32,60.04563468,,,,,,0,0,0,0,1,1,0,,,,,,,,,,,,,,,,,,,,,,,,,,,,,,,,,,,,,,,,,,,,,,,,,,,,,,,,,,,,,,,,,,,,,,,,,,,,,
,,,,1,1.3853,,,,,,183,cake,rose,,89197,001,2022-04-26_17h14.24.271,SPAMnetsValid,2021.1.4,Win32,60.04563468,,,,,,,,,,,,,1,1.3853,0,0,0,19,1,,,,,,,,,,,,,,,,,,,,,,,,,,,,,,,,,,,,,,,,,,,,,,,,,,,,,,,,,,,,,,,,,,,,,,
,,,,1,2.2951,,,,,,104,garden,microwave,,89197,001,2022-04-26_17h14.24.271,SPAMnetsValid,2021.1.4,Win32,60.04563468,,,,,,,,,,,,,1,2.2951,0,1,1,81,1,,,,,,,,,,,,,,,,,,,,,,,,,,,,,,,,,,,,,,,,,,,,,,,,,,,,,,,,,,,,,,,,,,,,,,
,,,,1,0.7824,,,,,,180,tree,yogurt,,89197,001,2022-04-26_17h14.24.271,SPAMnetsValid,2021.1.4,Win32,60.04563468,,,,,,,,,,,,,1,0.7824,0,2,2,68,1,,,,,,,,,,,,,,,,,,,,,,,,,,,,,,,,,,,,,,,,,,,,,,,,,,,,,,,,,,,,,,,,,,,,,,
,,,,6,1.4315,,,,,,155,carrot,cookie,,89197,001,2022-04-26_17h14.24.271,SPAMnetsValid,2021.1.4,Win32,60.04563468,,,,,,,,,,,,,6,1.4315,0,3,3,38,1,,,,,,,,,,,,,,,,,,,,,,,,,,,,,,,,,,,,,,,,,,,,,,,,,,,,,,,,,,,,,,,,,,,,,,
,,,,8,1.8924,,,,,,100,garden,tomato,,89197,001,2022-04-26_17h14.24.271,SPAMnetsValid,2021.1.4,Win32,60.04563468,,,,,,,,,,,,,8,1.8924,0,4,4,83,1,,,,,,,,,,,,,,,,,,,,,,,,,,,,,,,,,,,,,,,,,,,,,,,,,,,,,,,,,,,,,,,,,,,,,,
,,,,1,4.9645,,,,,,145,cactus,yogurt,,89197,001,2022-04-26_17h14.24.271,SPAMnetsValid,2021.1.4,Win32,60.04563468,,,,,,,,,,,,,1,4.9645,0,5,5,15,1,,,,,,,,,,,,,,,,,,,,,,,,,,,,,,,,,,,,,,,,,,,,,,,,,,,,,,,,,,,,,,,,,,,,,,
,,,,7,1.5925,,,,,,141,melon,tomato,,89197,001,2022-04-26_17h14.24.271,SPAMnetsValid,2021.1.4,Win32,60.04563468,,,,,,,,,,,,,7,1.5925,0,6,6,70,1,,,,,,,,,,,,,,,,,,,,,,,,,,,,,,,,,,,,,,,,,,,,,,,,,,,,,,,,,,,,,,,,,,,,,,
,,,,6,1.7984,,,,,,176,cactus,tomato,,89197,001,2022-04-26_17h14.24.271,SPAMnetsValid,2021.1.4,Win32,60.04563468,,,,,,,,,,,,,6,1.7984,0,7,7,9,1,,,,,,,,,,,,,,,,,,,,,,,,,,,,,,,,,,,,,,,,,,,,,,,,,,,,,,,,,,,,,,,,,,,,,,
,,,,9,6.8995,,,,,,124,oven,refrigerator,,89197,001,2022-04-26_17h14.24.271,SPAMnetsValid,2021.1.4,Win32,60.04563468,,,,,,,,,,,,,9,6.8995,0,8,8,69,1,,,,,,,,,,,,,,,,,,,,,,,,,,,,,,,,,,,,,,,,,,,,,,,,,,,,,,,,,,,,,,,,,,,,,,
,,,,2,5.3336,,,,,,172,kitchen,melon,,89197,001,2022-04-26_17h14.24.271,SPAMnetsValid,2021.1.4,Win32,60.04563468,,,,,,,,,,,,,2,5.3336,0,9,9,77,1,,,,,,,,,,,,,,,,,,,,,,,,,,,,,,,,,,,,,,,,,,,,,,,,,,,,,,,,,,,,,,,,,,,,,,
,,,,9,2.4959,,,,,,177,chocolate,strawberry,,89197,001,2022-04-26_17h14.24.271,SPAMnetsValid,2021.1.4,Win32,60.04563468,,,,,,,,,,,,,9,2.4959,0,10,10,53,1,,,,,,,,,,,,,,,,,,,,,,,,,,,,,,,,,,,,,,,,,,,,,,,,,,,,,,,,,,,,,,,,,,,,,,
,,,,9,1.4743,,,,,,116,cake,chocolate,,89197,001,2022-04-26_17h14.24.271,SPAMnetsValid,2021.1.4,Win32,60.04563468,,,,,,,,,,,,,9,1.4743,0,11,11,44,1,,,,,,,,,,,,,,,,,,,,,,,,,,,,,,,,,,,,,,,,,,,,,,,,,,,,,,,,,,,,,,,,,,,,,,
,,,,1,1.454,,,,,,162,microwave,tomato,,89197,001,2022-04-26_17h14.24.271,SPAMnetsValid,2021.1.4,Win32,60.04563468,,,,,,,,,,,,,1,1.454,0,12,12,12,1,,,,,,,,,,,,,,,,,,,,,,,,,,,,,,,,,,,,,,,,,,,,,,,,,,,,,,,,,,,,,,,,,,,,,,
,,,,1,2.4482,,,,,,101,cactus,kitchen,,89197,001,2022-04-26_17h14.24.271,SPAMnetsValid,2021.1.4,Win32,60.04563468,,,,,,,,,,,,,1,2.4482,0,13,13,54,1,,,,,,,,,,,,,,,,,,,,,,,,,,,,,,,,,,,,,,,,,,,,,,,,,,,,,,,,,,,,,,,,,,,,,,
,,,,2,11.0975,,,,,,151,microwave,onion,,89197,001,2022-04-26_17h14.24.271,SPAMnetsValid,2021.1.4,Win32,60.04563468,,,,,,,,,,,,,2,11.0975,0,14,14,6,1,,,,,,,,,,,,,,,,,,,,,,,,,,,,,,,,,,,,,,,,,,,,,,,,,,,,,,,,,,,,,,,,,,,,,,
,,,,1,2.4835,,,,,,126,kitchen,tree,,89197,001,2022-04-26_17h14.24.271,SPAMnetsValid,2021.1.4,Win32,60.04563468,,,,,,,,,,,,,1,2.4835,0,15,15,50,1,,,,,,,,,,,,,,,,,,,,,,,,,,,,,,,,,,,,,,,,,,,,,,,,,,,,,,,,,,,,,,,,,,,,,,
,,,,9,4.9982,,,,,,106,cake,strawberry,,89197,001,2022-04-26_17h14.24.271,SPAMnetsValid,2021.1.4,Win32,60.04563468,,,,,,,,,,,,,9,4.9982,0,16,16,0,1,,,,,,,,,,,,,,,,,,,,,,,,,,,,,,,,,,,,,,,,,,,,,,,,,,,,,,,,,,,,,,,,,,,,,,
,,,,8,2.1336,,,,,,102,chocolate,refrigerator,,89197,001,2022-04-26_17h14.24.271,SPAMnetsValid,2021.1.4,Win32,60.04563468,,,,,,,,,,,,,8,2.1336,0,17,17,76,1,,,,,,,,,,,,,,,,,,,,,,,,,,,,,,,,,,,,,,,,,,,,,,,,,,,,,,,,,,,,,,,,,,,,,,
,,,,6,1.3755,,,,,,161,kitchen,pretzel,,89197,001,2022-04-26_17h14.24.271,SPAMnetsValid,2021.1.4,Win32,60.04563468,,,,,,,,,,,,,6,1.3755,0,18,18,36,1,,,,,,,,,,,,,,,,,,,,,,,,,,,,,,,,,,,,,,,,,,,,,,,,,,,,,,,,,,,,,,,,,,,,,,
,,,,9,1.7202,,,,,,142,garden,tree,,89197,001,2022-04-26_17h14.24.271,SPAMnetsValid,2021.1.4,Win32,60.04563468,,,,,,,,,,,,,9,1.7202,0,19,19,22,1,,,,,,,,,,,,,,,,,,,,,,,,,,,,,,,,,,,,,,,,,,,,,,,,,,,,,,,,,,,,,,,,,,,,,,
,,,,6,1.701,,,,,,98,pretzel,strawberry,,89197,001,2022-04-26_17h14.24.271,SPAMnetsValid,2021.1.4,Win32,60.04563468,,,,,,,,,,,,,6,1.701,0,20,20,82,1,,,,,,,,,,,,,,,,,,,,,,,,,,,,,,,,,,,,,,,,,,,,,,,,,,,,,,,,,,,,,,,,,,,,,,
,,,,1,1.5607,,,,,,159,cookie,flower,,89197,001,2022-04-26_17h14.24.271,SPAMnetsValid,2021.1.4,Win32,60.04563468,,,,,,,,,,,,,1,1.5607,0,21,21,21,1,,,,,,,,,,,,,,,,,,,,,,,,,,,,,,,,,,,,,,,,,,,,,,,,,,,,,,,,,,,,,,,,,,,,,,
,,,,1,1.0348,,,,,,137,microwave,tree,,89197,001,2022-04-26_17h14.24.271,SPAMnetsValid,2021.1.4,Win32,60.04563468,,,,,,,,,,,,,1,1.0348,0,22,22,63,1,,,,,,,,,,,,,,,,,,,,,,,,,,,,,,,,,,,,,,,,,,,,,,,,,,,,,,,,,,,,,,,,,,,,,,
,,,,1,0.8805,,,,,,121,broom,microwave,,89197,001,2022-04-26_17h14.24.271,SPAMnetsValid,2021.1.4,Win32,60.04563468,,,,,,,,,,,,,1,0.8805,0,23,23,95,1,,,,,,,,,,,,,,,,,,,,,,,,,,,,,,,,,,,,,,,,,,,,,,,,,,,,,,,,,,,,,,,,,,,,,,
,,,,8,1.8196,,,,,,148,flower,melon,,89197,001,2022-04-26_17h14.24.271,SPAMnetsValid,2021.1.4,Win32,60.04563468,,,,,,,,,,,,,8,1.8196,0,24,24,23,1,,,,,,,,,,,,,,,,,,,,,,,,,,,,,,,,,,,,,,,,,,,,,,,,,,,,,,,,,,,,,,,,,,,,,,
,,,,1,1.4197,,,,,,169,onion,yogurt,,89197,001,2022-04-26_17h14.24.271,SPAMnetsValid,2021.1.4,Win32,60.04563468,,,,,,,,,,,,,1,1.4197,0,25,25,24,1,,,,,,,,,,,,,,,,,,,,,,,,,,,,,,,,,,,,,,,,,,,,,,,,,,,,,,,,,,,,,,,,,,,,,,
,,,,9,1.8867,,,,,,160,cookie,kitchen,,89197,001,2022-04-26_17h14.24.271,SPAMnetsValid,2021.1.4,Win32,60.04563468,,,,,,,,,,,,,9,1.8867,0,26,26,65,1,,,,,,,,,,,,,,,,,,,,,,,,,,,,,,,,,,,,,,,,,,,,,,,,,,,,,,,,,,,,,,,,,,,,,,
,,,,9,1.8473,,,,,,119,strawberry,tree,,89197,001,2022-04-26_17h14.24.271,SPAMnetsValid,2021.1.4,Win32,60.04563468,,,,,,,,,,,,,9,1.8473,0,27,27,18,1,,,,,,,,,,,,,,,,,,,,,,,,,,,,,,,,,,,,,,,,,,,,,,,,,,,,,,,,,,,,,,,,,,,,,,
,,,,9,1.6931,,,,,,167,carrot,garden,,89197,001,2022-04-26_17h14.24.271,SPAMnetsValid,2021.1.4,Win32,60.04563468,,,,,,,,,,,,,9,1.6931,0,28,28,47,1,,,,,,,,,,,,,,,,,,,,,,,,,,,,,,,,,,,,,,,,,,,,,,,,,,,,,,,,,,,,,,,,,,,,,,
,,,,9,0.9837,,,,,,110,chocolate,cookie,,89197,001,2022-04-26_17h14.24.271,SPAMnetsValid,2021.1.4,Win32,60.04563468,,,,,,,,,,,,,9,0.9837,0,29,29,52,1,,,,,,,,,,,,,,,,,,,,,,,,,,,,,,,,,,,,,,,,,,,,,,,,,,,,,,,,,,,,,,,,,,,,,,
,,,,6,1.5498,,,,,,181,carrot,kitchen,,89197,001,2022-04-26_17h14.24.271,SPAMnetsValid,2021.1.4,Win32,60.04563468,,,,,,,,,,,,,6,1.5498,0,30,30,72,1,,,,,,,,,,,,,,,,,,,,,,,,,,,,,,,,,,,,,,,,,,,,,,,,,,,,,,,,,,,,,,,,,,,,,,
,,,,7,2.0681,,,,,,156,melon,rose,,89197,001,2022-04-26_17h14.24.271,SPAMnetsValid,2021.1.4,Win32,60.04563468,,,,,,,,,,,,,7,2.0681,0,31,31,31,1,,,,,,,,,,,,,,,,,,,,,,,,,,,,,,,,,,,,,,,,,,,,,,,,,,,,,,,,,,,,,,,,,,,,,,
,,,,8,1.64,,,,,,186,kitchen,yogurt,,89197,001,2022-04-26_17h14.24.271,SPAMnetsValid,2021.1.4,Win32,60.04563468,,,,,,,,,,,,,8,1.64,0,32,32,48,1,,,,,,,,,,,,,,,,,,,,,,,,,,,,,,,,,,,,,,,,,,,,,,,,,,,,,,,,,,,,,,,,,,,,,,
,,,,8,0.9897,,,,,,135,carrot,oven,,89197,001,2022-04-26_17h14.24.271,SPAMnetsValid,2021.1.4,Win32,60.04563468,,,,,,,,,,,,,8,0.9897,0,33,33,73,1,,,,,,,,,,,,,,,,,,,,,,,,,,,,,,,,,,,,,,,,,,,,,,,,,,,,,,,,,,,,,,,,,,,,,,
,,,,8,0.7492,,,,,,111,carrot,microwave,,89197,001,2022-04-26_17h14.24.271,SPAMnetsValid,2021.1.4,Win32,60.04563468,,,,,,,,,,,,,8,0.7492,0,34,34,16,1,,,,,,,,,,,,,,,,,,,,,,,,,,,,,,,,,,,,,,,,,,,,,,,,,,,,,,,,,,,,,,,,,,,,,,
,,,,8,0.7953,,,,,,118,chocolate,oven,,89197,001,2022-04-26_17h14.24.271,SPAMnetsValid,2021.1.4,Win32,60.04563468,,,,,,,,,,,,,8,0.7953,0,35,35,10,1,,,,,,,,,,,,,,,,,,,,,,,,,,,,,,,,,,,,,,,,,,,,,,,,,,,,,,,,,,,,,,,,,,,,,,
,,,,1,2.1843,,,,,,149,broom,tomato,,89197,001,2022-04-26_17h14.24.271,SPAMnetsValid,2021.1.4,Win32,60.04563468,,,,,,,,,,,,,1,2.1843,0,36,36,20,1,,,,,,,,,,,,,,,,,,,,,,,,,,,,,,,,,,,,,,,,,,,,,,,,,,,,,,,,,,,,,,,,,,,,,,
,,,,9,1.4156,,,,,,173,kitchen,tomato,,89197,001,2022-04-26_17h14.24.271,SPAMnetsValid,2021.1.4,Win32,60.04563468,,,,,,,,,,,,,9,1.4156,0,37,37,1,1,,,,,,,,,,,,,,,,,,,,,,,,,,,,,,,,,,,,,,,,,,,,,,,,,,,,,,,,,,,,,,,,,,,,,,
,,,,2,2.0334,,,,,,129,cactus,refrigerator,,89197,001,2022-04-26_17h14.24.271,SPAMnetsValid,2021.1.4,Win32,60.04563468,,,,,,,,,,,,,2,2.0334,0,38,38,3,1,,,,,,,,,,,,,,,,,,,,,,,,,,,,,,,,,,,,,,,,,,,,,,,,,,,,,,,,,,,,,,,,,,,,,,
,,,,9,1.5005,,,,,,125,carrot,tree,,89197,001,2022-04-26_17h14.24.271,SPAMnetsValid,2021.1.4,Win32,60.04563468,,,,,,,,,,,,,9,1.5005,0,39,39,30,1,,,,,,,,,,,,,,,,,,,,,,,,,,,,,,,,,,,,,,,,,,,,,,,,,,,,,,,,,,,,,,,,,,,,,,
,,,,3,1.9364,,,,,,166,cake,yogurt,,89197,001,2022-04-26_17h14.24.271,SPAMnetsValid,2021.1.4,Win32,60.04563468,,,,,,,,,,,,,3,1.9364,0,40,40,91,1,,,,,,,,,,,,,,,,,,,,,,,,,,,,,,,,,,,,,,,,,,,,,,,,,,,,,,,,,,,,,,,,,,,,,,
,,,,7,1.7852,,,,,,152,cactus,strawberry,,89197,001,2022-04-26_17h14.24.271,SPAMnetsValid,2021.1.4,Win32,60.04563468,,,,,,,,,,,,,7,1.7852,0,41,41,49,1,,,,,,,,,,,,,,,,,,,,,,,,,,,,,,,,,,,,,,,,,,,,,,,,,,,,,,,,,,,,,,,,,,,,,,
,,,,9,1.6591,,,,,,193,melon,melon,CHECK,89197,001,2022-04-26_17h14.24.271,SPAMnetsValid,2021.1.4,Win32,60.04563468,,,,,,,,,,,,,9,1.6591,0,42,42,86,1,,,,,,,,,,,,,,,,,,,,,,,,,,,,,,,,,,,,,,,,,,,,,,,,,,,,,,,,,,,,,,,,,,,,,,
,,,,9,4.616,,,,,,134,carrot,flower,,89197,001,2022-04-26_17h14.24.271,SPAMnetsValid,2021.1.4,Win32,60.04563468,,,,,,,,,,,,,9,4.616,0,43,43,93,1,,,,,,,,,,,,,,,,,,,,,,,,,,,,,,,,,,,,,,,,,,,,,,,,,,,,,,,,,,,,,,,,,,,,,,
,,,,9,0.9329,,,,,,188,flower,tree,,89197,001,2022-04-26_17h14.24.271,SPAMnetsValid,2021.1.4,Win32,60.04563468,,,,,,,,,,,,,9,0.9329,0,44,44,7,1,,,,,,,,,,,,,,,,,,,,,,,,,,,,,,,,,,,,,,,,,,,,,,,,,,,,,,,,,,,,,,,,,,,,,,
,,,,9,0.8714,,,,,,138,flower,rose,,89197,001,2022-04-26_17h14.24.271,SPAMnetsValid,2021.1.4,Win32,60.04563468,,,,,,,,,,,,,9,0.8714,0,45,45,61,1,,,,,,,,,,,,,,,,,,,,,,,,,,,,,,,,,,,,,,,,,,,,,,,,,,,,,,,,,,,,,,,,,,,,,,
,,,,6,1.4506,,,,,,103,pretzel,tomato,,89197,001,2022-04-26_17h14.24.271,SPAMnetsValid,2021.1.4,Win32,60.04563468,,,,,,,,,,,,,6,1.4506,0,46,46,79,1,,,,,,,,,,,,,,,,,,,,,,,,,,,,,,,,,,,,,,,,,,,,,,,,,,,,,,,,,,,,,,,,,,,,,,
,,,,1,1.425,,,,,,109,broom,strawberry,,89197,001,2022-04-26_17h14.24.271,SPAMnetsValid,2021.1.4,Win32,60.04563468,,,,,,,,,,,,,1,1.425,0,47,47,4,1,,,,,,,,,,,,,,,,,,,,,,,,,,,,,,,,,,,,,,,,,,,,,,,,,,,,,,,,,,,,,,,,,,,,,,
,,,,8,1.9135,,,,,,140,cookie,refrigerator,,89197,001,2022-04-26_17h14.24.271,SPAMnetsValid,2021.1.4,Win32,60.04563468,,,,,,,,,,,,,8,1.9135,0,48,48,89,1,,,,,,,,,,,,,,,,,,,,,,,,,,,,,,,,,,,,,,,,,,,,,,,,,,,,,,,,,,,,,,,,,,,,,,
,,,,1,1.656,,,,,,179,broom,oven,,89197,001,2022-04-26_17h14.24.271,SPAMnetsValid,2021.1.4,Win32,60.04563468,,,,,,,,,,,,,1,1.656,0,49,49,45,1,,,,,,,,,,,,,,,,,,,,,,,,,,,,,,,,,,,,,,,,,,,,,,,,,,,,,,,,,,,,,,,,,,,,,,
,,,,9,1.9844,,,,,,185,cactus,rose,,89197,001,2022-04-26_17h14.24.271,SPAMnetsValid,2021.1.4,Win32,60.04563468,,,,,,,,,,,,,9,1.9844,0,50,50,43,1,,,,,,,,,,,,,,,,,,,,,,,,,,,,,,,,,,,,,,,,,,,,,,,,,,,,,,,,,,,,,,,,,,,,,,
,,,,1,1.3151,,,,,,182,flower,refrigerator,,89197,001,2022-04-26_17h14.24.271,SPAMnetsValid,2021.1.4,Win32,60.04563468,,,,,,,,,,,,,1,1.3151,0,51,51,32,1,,,,,,,,,,,,,,,,,,,,,,,,,,,,,,,,,,,,,,,,,,,,,,,,,,,,,,,,,,,,,,,,,,,,,,
,,,,9,2.6722,,,,,,158,cookie,oven,,89197,001,2022-04-26_17h14.24.271,SPAMnetsValid,2021.1.4,Win32,60.04563468,,,,,,,,,,,,,9,2.6722,0,52,52,27,1,,,,,,,,,,,,,,,,,,,,,,,,,,,,,,,,,,,,,,,,,,,,,,,,,,,,,,,,,,,,,,,,,,,,,,
,,,,6,3.03,,,,,,97,chocolate,kitchen,,89197,001,2022-04-26_17h14.24.271,SPAMnetsValid,2021.1.4,Win32,60.04563468,,,,,,,,,,,,,6,3.03,0,53,53,8,1,,,,,,,,,,,,,,,,,,,,,,,,,,,,,,,,,,,,,,,,,,,,,,,,,,,,,,,,,,,,,,,,,,,,,,
,,,,2,5.5499,,,,,,144,cake,garden,,89197,001,2022-04-26_17h14.24.271,SPAMnetsValid,2021.1.4,Win32,60.04563468,,,,,,,,,,,,,2,5.5499,0,54,54,58,1,,,,,,,,,,,,,,,,,,,,,,,,,,,,,,,,,,,,,,,,,,,,,,,,,,,,,,,,,,,,,,,,,,,,,,
,,,,6,13.6995,,,,,,153,carrot,pretzel,,89197,001,2022-04-26_17h14.24.271,SPAMnetsValid,2021.1.4,Win32,60.04563468,,,,,,,,,,,,,6,13.6995,0,55,55,34,1,,,,,,,,,,,,,,,,,,,,,,,,,,,,,,,,,,,,,,,,,,,,,,,,,,,,,,,,,,,,,,,,,,,,,,
,,,,1,1.6658,,,,,,132,broom,tree,,89197,001,2022-04-26_17h14.24.271,SPAMnetsValid,2021.1.4,Win32,60.04563468,,,,,,,,,,,,,1,1.6658,0,56,56,78,1,,,,,,,,,,,,,,,,,,,,,,,,,,,,,,,,,,,,,,,,,,,,,,,,,,,,,,,,,,,,,,,,,,,,,,
,,,,1,5.7497,,,,,,146,pretzel,tree,,89197,001,2022-04-26_17h14.24.271,SPAMnetsValid,2021.1.4,Win32,60.04563468,,,,,,,,,,,,,1,5.7497,0,57,57,80,1,,,,,,,,,,,,,,,,,,,,,,,,,,,,,,,,,,,,,,,,,,,,,,,,,,,,,,,,,,,,,,,,,,,,,,
,,,,9,8.117,,,,,,139,carrot,strawberry,,89197,001,2022-04-26_17h14.24.271,SPAMnetsValid,2021.1.4,Win32,60.04563468,,,,,,,,,,,,,9,8.117,0,58,58,37,1,,,,,,,,,,,,,,,,,,,,,,,,,,,,,,,,,,,,,,,,,,,,,,,,,,,,,,,,,,,,,,,,,,,,,,
,,,,9,1.5181,,,,,,175,melon,onion,,89197,001,2022-04-26_17h14.24.271,SPAMnetsValid,2021.1.4,Win32,60.04563468,,,,,,,,,,,,,9,1.5181,0,59,59,41,1,,,,,,,,,,,,,,,,,,,,,,,,,,,,,,,,,,,,,,,,,,,,,,,,,,,,,,,,,,,,,,,,,,,,,,
,,,,9,3.0011,,,,,,117,melon,strawberry,,89197,001,2022-04-26_17h14.24.271,SPAMnetsValid,2021.1.4,Win32,60.04563468,,,,,,,,,,,,,9,3.0011,0,60,60,11,1,,,,,,,,,,,,,,,,,,,,,,,,,,,,,,,,,,,,,,,,,,,,,,,,,,,,,,,,,,,,,,,,,,,,,,
,,,,7,9.6803,,,,,,171,cake,tomato,,89197,001,2022-04-26_17h14.24.271,SPAMnetsValid,2021.1.4,Win32,60.04563468,,,,,,,,,,,,,7,9.6803,0,61,61,88,1,,,,,,,,,,,,,,,,,,,,,,,,,,,,,,,,,,,,,,,,,,,,,,,,,,,,,,,,,,,,,,,,,,,,,,
,,,,8,1.5773,,,,,,189,onion,tree,,89197,001,2022-04-26_17h14.24.271,SPAMnetsValid,2021.1.4,Win32,60.04563468,,,,,,,,,,,,,8,1.5773,0,62,62,62,1,,,,,,,,,,,,,,,,,,,,,,,,,,,,,,,,,,,,,,,,,,,,,,,,,,,,,,,,,,,,,,,,,,,,,,
,,,,2,6.6511,,,,,,164,cookie,garden,,89197,001,2022-04-26_17h14.24.271,SPAMnetsValid,2021.1.4,Win32,60.04563468,,,,,,,,,,,,,2,6.6511,0,63,63,59,1,,,,,,,,,,,,,,,,,,,,,,,,,,,,,,,,,,,,,,,,,,,,,,,,,,,,,,,,,,,,,,,,,,,,,,
,,,,9,1.4506,,,,,,99,garden,melon,,89197,001,2022-04-26_17h14.24.271,SPAMnetsValid,2021.1.4,Win32,60.04563468,,,,,,,,,,,,,9,1.4506,0,64,64,17,1,,,,,,,,,,,,,,,,,,,,,,,,,,,,,,,,,,,,,,,,,,,,,,,,,,,,,,,,,,,,,,,,,,,,,,
,,,,7,8.9566,,,,,,136,chocolate,microwave,,89197,001,2022-04-26_17h14.24.271,SPAMnetsValid,2021.1.4,Win32,60.04563468,,,,,,,,,,,,,7,8.9566,0,65,65,96,1,,,,,,,,,,,,,,,,,,,,,,,,,,,,,,,,,,,,,,,,,,,,,,,,,,,,,,,,,,,,,,,,,,,,,,
,,,,8,1.4209,,,,,,115,refrigerator,tomato,,89197,001,2022-04-26_17h14.24.271,SPAMnetsValid,2021.1.4,Win32,60.04563468,,,,,,,,,,,,,8,1.4209,0,66,66,85,1,,,,,,,,,,,,,,,,,,,,,,,,,,,,,,,,,,,,,,,,,,,,,,,,,,,,,,,,,,,,,,,,,,,,,,
,,,,2,1.4593,,,,,,143,pretzel,rose,,89197,001,2022-04-26_17h14.24.271,SPAMnetsValid,2021.1.4,Win32,60.04563468,,,,,,,,,,,,,2,1.4593,0,67,67,55,1,,,,,,,,,,,,,,,,,,,,,,,,,,,,,,,,,,,,,,,,,,,,,,,,,,,,,,,,,,,,,,,,,,,,,,
,,,,1,1.1654,,,,,,187,cactus,microwave,,89197,001,2022-04-26_17h14.24.271,SPAMnetsValid,2021.1.4,Win32,60.04563468,,,,,,,,,,,,,1,1.1654,0,68,68,71,1,,,,,,,,,,,,,,,,,,,,,,,,,,,,,,,,,,,,,,,,,,,,,,,,,,,,,,,,,,,,,,,,,,,,,,
,,,,2,1.6316,,,,,,123,cookie,tree,,89197,001,2022-04-26_17h14.24.271,SPAMnetsValid,2021.1.4,Win32,60.04563468,,,,,,,,,,,,,2,1.6316,0,69,69,46,1,,,,,,,,,,,,,,,,,,,,,,,,,,,,,,,,,,,,,,,,,,,,,,,,,,,,,,,,,,,,,,,,,,,,,,
,,,,2,1.2015,,,,,,128,melon,microwave,,89197,001,2022-04-26_17h14.24.271,SPAMnetsValid,2021.1.4,Win32,60.04563468,,,,,,,,,,,,,2,1.2015,0,70,70,74,1,,,,,,,,,,,,,,,,,,,,,,,,,,,,,,,,,,,,,,,,,,,,,,,,,,,,,,,,,,,,,,,,,,,,,,
,,,,7,1.7152,,,,,,170,cookie,microwave,,89197,001,2022-04-26_17h14.24.271,SPAMnetsValid,2021.1.4,Win32,60.04563468,,,,,,,,,,,,,7,1.7152,0,71,71,92,1,,,,,,,,,,,,,,,,,,,,,,,,,,,,,,,,,,,,,,,,,,,,,,,,,,,,,,,,,,,,,,,,,,,,,,
,,,,9,1.6974,,,,,,194,cactus,cactus,CHECK,89197,001,2022-04-26_17h14.24.271,SPAMnetsValid,2021.1.4,Win32,60.04563468,,,,,,,,,,,,,9,1.6974,0,72,72,25,1,,,,,,,,,,,,,,,,,,,,,,,,,,,,,,,,,,,,,,,,,,,,,,,,,,,,,,,,,,,,,,,,,,,,,,
,,,,1,1.9369,,,,,,190,microwave,strawberry,,89197,001,2022-04-26_17h14.24.271,SPAMnetsValid,2021.1.4,Win32,60.04563468,,,,,,,,,,,,,1,1.9369,0,73,73,90,1,,,,,,,,,,,,,,,,,,,,,,,,,,,,,,,,,,,,,,,,,,,,,,,,,,,,,,,,,,,,,,,,,,,,,,
,,,,7,14.5148,,,,,,147,cake,refrigerator,,89197,001,2022-04-26_17h14.24.271,SPAMnetsValid,2021.1.4,Win32,60.04563468,,,,,,,,,,,,,7,14.5148,0,74,74,35,1,,,,,,,,,,,,,,,,,,,,,,,,,,,,,,,,,,,,,,,,,,,,,,,,,,,,,,,,,,,,,,,,,,,,,,
,,,,7,1.0143,,,,,,113,refrigerator,strawberry,,89197,001,2022-04-26_17h14.24.271,SPAMnetsValid,2021.1.4,Win32,60.04563468,,,,,,,,,,,,,7,1.0143,0,75,75,56,1,,,,,,,,,,,,,,,,,,,,,,,,,,,,,,,,,,,,,,,,,,,,,,,,,,,,,,,,,,,,,,,,,,,,,,
,,,,1,1.5062,,,,,,127,cactus,chocolate,,89197,001,2022-04-26_17h14.24.271,SPAMnetsValid,2021.1.4,Win32,60.04563468,,,,,,,,,,,,,1,1.5062,0,76,76,57,1,,,,,,,,,,,,,,,,,,,,,,,,,,,,,,,,,,,,,,,,,,,,,,,,,,,,,,,,,,,,,,,,,,,,,,
,,,,2,1.4657,,,,,,184,oven,pretzel,,89197,001,2022-04-26_17h14.24.271,SPAMnetsValid,2021.1.4,Win32,60.04563468,,,,,,,,,,,,,2,1.4657,0,77,77,42,1,,,,,,,,,,,,,,,,,,,,,,,,,,,,,,,,,,,,,,,,,,,,,,,,,,,,,,,,,,,,,,,,,,,,,,
,,,,8,1.5427,,,,,,133,cake,flower,,89197,001,2022-04-26_17h14.24.271,SPAMnetsValid,2021.1.4,Win32,60.04563468,,,,,,,,,,,,,8,1.5427,0,78,78,94,1,,,,,,,,,,,,,,,,,,,,,,,,,,,,,,,,,,,,,,,,,,,,,,,,,,,,,,,,,,,,,,,,,,,,,,
,,,,9,1.882,,,,,,163,melon,refrigerator,,89197,001,2022-04-26_17h14.24.271,SPAMnetsValid,2021.1.4,Win32,60.04563468,,,,,,,,,,,,,9,1.882,0,79,79,29,1,,,,,,,,,,,,,,,,,,,,,,,,,,,,,,,,,,,,,,,,,,,,,,,,,,,,,,,,,,,,,,,,,,,,,,
,,,,7,1.7369,,,,,,114,cookie,strawberry,,89197,001,2022-04-26_17h14.24.271,SPAMnetsValid,2021.1.4,Win32,60.04563468,,,,,,,,,,,,,7,1.7369,0,80,80,87,1,,,,,,,,,,,,,,,,,,,,,,,,,,,,,,,,,,,,,,,,,,,,,,,,,,,,,,,,,,,,,,,,,,,,,,
,,,,3,1.6178,,,,,,96,oven,strawberry,,89197,001,2022-04-26_17h14.24.271,SPAMnetsValid,2021.1.4,Win32,60.04563468,,,,,,,,,,,,,3,1.6178,0,81,81,67,1,,,,,,,,,,,,,,,,,,,,,,,,,,,,,,,,,,,,,,,,,,,,,,,,,,,,,,,,,,,,,,,,,,,,,,
,,,,9,1.8162,,,,,,168,cactus,flower,,89197,001,2022-04-26_17h14.24.271,SPAMnetsValid,2021.1.4,Win32,60.04563468,,,,,,,,,,,,,9,1.8162,0,82,82,51,1,,,,,,,,,,,,,,,,,,,,,,,,,,,,,,,,,,,,,,,,,,,,,,,,,,,,,,,,,,,,,,,,,,,,,,
,,,,9,0.7993,,,,,,131,cactus,garden,,89197,001,2022-04-26_17h14.24.271,SPAMnetsValid,2021.1.4,Win32,60.04563468,,,,,,,,,,,,,9,0.7993,0,83,83,33,1,,,,,,,,,,,,,,,,,,,,,,,,,,,,,,,,,,,,,,,,,,,,,,,,,,,,,,,,,,,,,,,,,,,,,,
,,,,9,1.9653,,,,,,150,microwave,refrigerator,,89197,001,2022-04-26_17h14.24.271,SPAMnetsValid,2021.1.4,Win32,60.04563468,,,,,,,,,,,,,9,1.9653,0,84,84,66,1,,,,,,,,,,,,,,,,,,,,,,,,,,,,,,,,,,,,,,,,,,,,,,,,,,,,,,,,,,,,,,,,,,,,,,
,,,,9,1.7193,,,,,,154,strawberry,yogurt,,89197,001,2022-04-26_17h14.24.271,SPAMnetsValid,2021.1.4,Win32,60.04563468,,,,,,,,,,,,,9,1.7193,0,85,85,28,1,,,,,,,,,,,,,,,,,,,,,,,,,,,,,,,,,,,,,,,,,,,,,,,,,,,,,,,,,,,,,,,,,,,,,,
,,,,9,0.7274,,,,,,120,microwave,oven,,89197,001,2022-04-26_17h14.24.271,SPAMnetsValid,2021.1.4,Win32,60.04563468,,,,,,,,,,,,,9,0.7274,0,86,86,14,1,,,,,,,,,,,,,,,,,,,,,,,,,,,,,,,,,,,,,,,,,,,,,,,,,,,,,,,,,,,,,,,,,,,,,,
,,,,9,1.0805,,,,,,165,onion,rose,,89197,001,2022-04-26_17h14.24.271,SPAMnetsValid,2021.1.4,Win32,60.04563468,,,,,,,,,,,,,9,1.0805,0,87,87,40,1,,,,,,,,,,,,,,,,,,,,,,,,,,,,,,,,,,,,,,,,,,,,,,,,,,,,,,,,,,,,,,,,,,,,,,
,,,,9,0.6325,,,,,,108,carrot,chocolate,,89197,001,2022-04-26_17h14.24.271,SPAMnetsValid,2021.1.4,Win32,60.04563468,,,,,,,,,,,,,9,0.6325,0,88,88,5,1,,,,,,,,,,,,,,,,,,,,,,,,,,,,,,,,,,,,,,,,,,,,,,,,,,,,,,,,,,,,,,,,,,,,,,
,,,,9,0.5715,,,,,,178,cactus,carrot,,89197,001,2022-04-26_17h14.24.271,SPAMnetsValid,2021.1.4,Win32,60.04563468,,,,,,,,,,,,,9,0.5715,0,89,89,75,1,,,,,,,,,,,,,,,,,,,,,,,,,,,,,,,,,,,,,,,,,,,,,,,,,,,,,,,,,,,,,,,,,,,,,,
,,,,9,0.6157,,,,,,130,microwave,yogurt,,89197,001,2022-04-26_17h14.24.271,SPAMnetsValid,2021.1.4,Win32,60.04563468,,,,,,,,,,,,,9,0.6157,0,90,90,84,1,,,,,,,,,,,,,,,,,,,,,,,,,,,,,,,,,,,,,,,,,,,,,,,,,,,,,,,,,,,,,,,,,,,,,,
,,,,9,0.5985,,,,,,174,cake,pretzel,,89197,001,2022-04-26_17h14.24.271,SPAMnetsValid,2021.1.4,Win32,60.04563468,,,,,,,,,,,,,9,0.5985,0,91,91,2,1,,,,,,,,,,,,,,,,,,,,,,,,,,,,,,,,,,,,,,,,,,,,,,,,,,,,,,,,,,,,,,,,,,,,,,
,,,,9,0.8786,,,,,,107,rose,tomato,,89197,001,2022-04-26_17h14.24.271,SPAMnetsValid,2021.1.4,Win32,60.04563468,,,,,,,,,,,,,9,0.8786,0,92,92,26,1,,,,,,,,,,,,,,,,,,,,,,,,,,,,,,,,,,,,,,,,,,,,,,,,,,,,,,,,,,,,,,,,,,,,,,
,,,,1,2.4076,,,,,,105,cactus,oven,,89197,001,2022-04-26_17h14.24.271,SPAMnetsValid,2021.1.4,Win32,60.04563468,,,,,,,,,,,,,1,2.4076,0,93,93,13,1,,,,,,,,,,,,,,,,,,,,,,,,,,,,,,,,,,,,,,,,,,,,,,,,,,,,,,,,,,,,,,,,,,,,,,
,,,,7,1.9321,,,,,,157,refrigerator,rose,,89197,001,2022-04-26_17h14.24.271,SPAMnetsValid,2021.1.4,Win32,60.04563468,,,,,,,,,,,,,7,1.9321,0,94,94,64,1,,,,,,,,,,,,,,,,,,,,,,,,,,,,,,,,,,,,,,,,,,,,,,,,,,,,,,,,,,,,,,,,,,,,,,
,,,,9,1.8078,,,,,,122,flower,garden,,89197,001,2022-04-26_17h14.24.271,SPAMnetsValid,2021.1.4,Win32,60.04563468,,,,,,,,,,,,,9,1.8078,0,95,95,60,1,,,,,,,,,,,,,,,,,,,,,,,,,,,,,,,,,,,,,,,,,,,,,,,,,,,,,,,,,,,,,,,,,,,,,,
,,,,7,2.7147,,,,,,112,cake,carrot,,89197,001,2022-04-26_17h14.24.271,SPAMnetsValid,2021.1.4,Win32,60.04563468,,,,,,,,,,,,,7,2.7147,0,96,96,39,1,,,,,,,,,,,,,,,,,,,,,,,,,,,,,,,,,,,,,,,,,,,,,,,,,,,,,,,,,,,,,,,,,,,,,,
,,,,,,,,,,,,,,,89197,001,2022-04-26_17h14.24.271,SPAMnetsValid,2021.1.4,Win32,60.04563468,,,,,,,,,,,,,,,,,,,,0,0,0,0,1,,,,,,,,,,,,,,,,,,,,,,,,,,,,,,,,,,,,,,,,,,,,,,,,,,,,,,,,,,,,,,,,,
,,,,,,,,,,,,,,,89197,001,2022-04-26_17h14.24.271,SPAMnetsValid,2021.1.4,Win32,60.04563468,,,,,,0,1,1,1,1,0,1,,,,,,,,,,,,,,,,,,,,,,,,,,,,,,,,,,,,,,,,,,,,,,,,,,,,,,,,,,,,,,,,,,,,,,,,,,,,,
,,,,,,,,,,,,,,,89197,001,2022-04-26_17h14.24.271,SPAMnetsValid,2021.1.4,Win32,60.04563468,,,,,,,,,,,,,,,,,,,,,,,,,3,3.1714,0,0,0,0,1,rancor,forbearance,ridicule,malice,bravery,3,,,,,,,,,,,,,,,,,,,,,,,,,,,,,,,,,,,,,,,,,,,,,,,,,,,,
,,,,,,,,,,,,,,,89197,001,2022-04-26_17h14.24.271,SPAMnetsValid,2021.1.4,Win32,60.04563468,,,,,,,,,,,,,,,,,,,,,,,,,4,3.7872,0,1,1,1,1,raucous,empty,quiet,smooth,harsh,4,,,,,,,,,,,,,,,,,,,,,,,,,,,,,,,,,,,,,,,,,,,,,,,,,,,,
,,,,,,,,,,,,,,,89197,001,2022-04-26_17h14.24.271,SPAMnetsValid,2021.1.4,Win32,60.04563468,,,,,,,,,,,,,,,,,,,,,,,,,4,2.8642,0,2,2,2,1,gargoyle,oil,medicine,carved waterspout,ugly building,3,,,,,,,,,,,,,,,,,,,,,,,,,,,,,,,,,,,,,,,,,,,,,,,,,,,,
,,,,,,,,,,,,,,,89197,001,2022-04-26_17h14.24.271,SPAMnetsValid,2021.1.4,Win32,60.04563468,,,,,,,,,,,,,,,,,,,,,,,,,3,3.797,0,3,3,3,1,recrudesce,purify,renew activity,lack refinement,crush,2,,,,,,,,,,,,,,,,,,,,,,,,,,,,,,,,,,,,,,,,,,,,,,,,,,,,
,,,,,,,,,,,,,,,89197,001,2022-04-26_17h14.24.271,SPAMnetsValid,2021.1.4,Win32,60.04563468,,,,,,,,,,,,,,,,,,,,,,,,,2,6.0531,0,4,4,4,1,specious,"plausible, but not genuine",noteworthy,class or variety,roomy,1,,,,,,,,,,,,,,,,,,,,,,,,,,,,,,,,,,,,,,,,,,,,,,,,,,,,
,,,,,,,,,,,,,,,89197,001,2022-04-26_17h14.24.271,SPAMnetsValid,2021.1.4,Win32,60.04563468,,,,,,,,,,,,,,,,,,,,,,,,,1,4.6545,0,5,5,5,1,bauble,bubble,showy plaything,idle talk,confusion,2,,,,,,,,,,,,,,,,,,,,,,,,,,,,,,,,,,,,,,,,,,,,,,,,,,,,
,,,,,,,,,,,,,,,89197,001,2022-04-26_17h14.24.271,SPAMnetsValid,2021.1.4,Win32,60.04563468,,,,,,,,,,,,,,,,,,,,,,,,,2,7.0022,0,6,6,6,1,prolific,scarce,producing abundantly,reckless,speaking profanely,2,,,,,,,,,,,,,,,,,,,,,,,,,,,,,,,,,,,,,,,,,,,,,,,,,,,,
,,,,,,,,,,,,,,,89197,001,2022-04-26_17h14.24.271,SPAMnetsValid,2021.1.4,Win32,60.04563468,,,,,,,,,,,,,,,,,,,,,,,,,2,1.1084,0,7,7,7,1,opulent,party,wealthy,happy frame of mind,semiprecious stone,2,,,,,,,,,,,,,,,,,,,,,,,,,,,,,,,,,,,,,,,,,,,,,,,,,,,,
,,,,,,,,,,,,,,,89197,001,2022-04-26_17h14.24.271,SPAMnetsValid,2021.1.4,Win32,60.04563468,,,,,,,,,,,,,,,,,,,,,,,,,4,3.0198,0,8,8,8,1,coercion,conspiracy,strategy,restraint,attraction,3,,,,,,,,,,,,,,,,,,,,,,,,,,,,,,,,,,,,,,,,,,,,,,,,,,,,
,,,,,,,,,,,,,,,89197,001,2022-04-26_17h14.24.271,SPAMnetsValid,2021.1.4,Win32,60.04563468,,,,,,,,,,,,,,,,,,,,,,,,,4,2.1623,0,9,9,9,1,hiatus,animal,calamity,dread,gap,4,,,,,,,,,,,,,,,,,,,,,,,,,,,,,,,,,,,,,,,,,,,,,,,,,,,,
,,,,,,,,,,,,,,,89197,001,2022-04-26_17h14.24.271,SPAMnetsValid,2021.1.4,Win32,60.04563468,,,,,,,,,,,,,,,,,,,,,,,,,3,7.221,0,10,10,10,1,germane,microbe,contagious,relevant,different,3,,,,,,,,,,,,,,,,,,,,,,,,,,,,,,,,,,,,,,,,,,,,,,,,,,,,
,,,,,,,,,,,,,,,89197,001,2022-04-26_17h14.24.271,SPAMnetsValid,2021.1.4,Win32,60.04563468,,,,,,,,,,,,,,,,,,,,,,,,,2,1.6704,0,11,11,11,1,perfunctory,fundamental,formal,superficial,careful,3,,,,,,,,,,,,,,,,,,,,,,,,,,,,,,,,,,,,,,,,,,,,,,,,,,,,
,,,,,,,,,,,,,,,89197,001,2022-04-26_17h14.24.271,SPAMnetsValid,2021.1.4,Win32,60.04563468,,,,,,,,,,,,,,,,,,,,,,,,,4,2.5261,0,12,12,12,1,diverge,reveal,chant,distract the attention of,differ or turn off from,4,,,,,,,,,,,,,,,,,,,,,,,,,,,,,,,,,,,,,,,,,,,,,,,,,,,,
,,,,,,,,,,,,,,,89197,001,2022-04-26_17h14.24.271,SPAMnetsValid,2021.1.4,Win32,60.04563468,,,,,,,,,,,,,,,,,,,,,,,,,4,1.6735,0,13,13,13,1,evoke,take away,anger,connect,bring out,4,,,,,,,,,,,,,,,,,,,,,,,,,,,,,,,,,,,,,,,,,,,,,,,,,,,,
,,,,,,,,,,,,,,,89197,001,2022-04-26_17h14.24.271,SPAMnetsValid,2021.1.4,Win32,60.04563468,,,,,,,,,,,,,,,,,,,,,,,,,3,5.2303,0,14,14,14,1,pertinent,relevant,lying next to,necessary,bold,1,,,,,,,,,,,,,,,,,,,,,,,,,,,,,,,,,,,,,,,,,,,,,,,,,,,,
,,,,,,,,,,,,,,,89197,001,2022-04-26_17h14.24.271,SPAMnetsValid,2021.1.4,Win32,60.04563468,,,,,,,,,,,,,,,,,,,,,,,,,2,2.8069,0,15,15,15,1,holocaust,entirety,destruction,saintly,price,2,,,,,,,,,,,,,,,,,,,,,,,,,,,,,,,,,,,,,,,,,,,,,,,,,,,,
,,,,,,,,,,,,,,,89197,001,2022-04-26_17h14.24.271,SPAMnetsValid,2021.1.4,Win32,60.04563468,,,,,,,,,,,,,,,,,,,,,,,,,1,3.8925,0,16,16,16,1,piquant,mellow,fish,pungent,cloth,3,,,,,,,,,,,,,,,,,,,,,,,,,,,,,,,,,,,,,,,,,,,,,,,,,,,,
,,,,,,,,,,,,,,,89197,001,2022-04-26_17h14.24.271,SPAMnetsValid,2021.1.4,Win32,60.04563468,,,,,,,,,,,,,,,,,,,,,,,,,3,2.9389,0,17,17,17,1,firmament,foundation,heavens,strong,glue,2,,,,,,,,,,,,,,,,,,,,,,,,,,,,,,,,,,,,,,,,,,,,,,,,,,,,
,,,,,,,,,,,,,,,89197,001,2022-04-26_17h14.24.271,SPAMnetsValid,2021.1.4,Win32,60.04563468,,,,,,,,,,,,,,,,,,,,,,,,,,,,,,,,,,,,,,4,3.438,0,0,0,0,1,marketable,partisan,jocular,marriageable,salable,essential,4,,,,,,,,,,,,,,,,,,,,,,,,,,,,,,,,,,,,,,
,,,,,,,,,,,,,,,89197,001,2022-04-26_17h14.24.271,SPAMnetsValid,2021.1.4,Win32,60.04563468,,,,,,,,,,,,,,,,,,,,,,,,,,,,,,,,,,,,,,5,2.5617,0,1,1,1,1,cottontail,squirrel,poplar,boa,marshy plant,rabbit,5,,,,,,,,,,,,,,,,,,,,,,,,,,,,,,,,,,,,,,
,,,,,,,,,,,,,,,89197,001,2022-04-26_17h14.24.271,SPAMnetsValid,2021.1.4,Win32,60.04563468,,,,,,,,,,,,,,,,,,,,,,,,,,,,,,,,,,,,,,3,1.5422,0,2,2,2,1,boggy,afraid,false,marshy,dense,black,3,,,,,,,,,,,,,,,,,,,,,,,,,,,,,,,,,,,,,,
,,,,,,,,,,,,,,,89197,001,2022-04-26_17h14.24.271,SPAMnetsValid,2021.1.4,Win32,60.04563468,,,,,,,,,,,,,,,,,,,,,,,,,,,,,,,,,,,,,,5,2.0961,0,3,3,3,1,gruesomeness,blackness,falseness,vindictiveness,drunkenness,ghastliness,5,,,,,,,,,,,,,,,,,,,,,,,,,,,,,,,,,,,,,,
,,,,,,,,,,,,,,,89197,001,2022-04-26_17h14.24.271,SPAMnetsValid,2021.1.4,Win32,60.04563468,,,,,,,,,,,,,,,,,,,,,,,,,,,,,,,,,,,,,,3,1.874,0,4,4,4,1,loathing,diffidence,laziness,abhorrence,cleverness,comfort,3,,,,,,,,,,,,,,,,,,,,,,,,,,,,,,,,,,,,,,
,,,,,,,,,,,,,,,89197,001,2022-04-26_17h14.24.271,SPAMnetsValid,2021.1.4,Win32,60.04563468,,,,,,,,,,,,,,,,,,,,,,,,,,,,,,,,,,,,,,2,3.8364,0,5,5,5,1,bantam,fowl,ridicule,cripple,vegetable,ensign,1,,,,,,,,,,,,,,,,,,,,,,,,,,,,,,,,,,,,,,
,,,,,,,,,,,,,,,89197,001,2022-04-26_17h14.24.271,SPAMnetsValid,2021.1.4,Win32,60.04563468,,,,,,,,,,,,,,,,,,,,,,,,,,,,,,,,,,,,,,5,1.8703,0,6,6,6,1,evoke,wake up,surrender,reconnoiter,transcend,call forth,5,,,,,,,,,,,,,,,,,,,,,,,,,,,,,,,,,,,,,,
,,,,,,,,,,,,,,,89197,001,2022-04-26_17h14.24.271,SPAMnetsValid,2021.1.4,Win32,60.04563468,,,,,,,,,,,,,,,,,,,,,,,,,,,,,,,,,,,,,,1,3.2619,0,7,7,7,1,unobtrusive,unintelligent,epileptic,illogical,lineal,modest,5,,,,,,,,,,,,,,,,,,,,,,,,,,,,,,,,,,,,,,
,,,,,,,,,,,,,,,89197,001,2022-04-26_17h14.24.271,SPAMnetsValid,2021.1.4,Win32,60.04563468,,,,,,,,,,,,,,,,,,,,,,,,,,,,,,,,,,,,,,4,3.5884,0,8,8,8,1,terrain,ice cream,final test,tractor,area of ground,weight,4,,,,,,,,,,,,,,,,,,,,,,,,,,,,,,,,,,,,,,
,,,,,,,,,,,,,,,89197,001,2022-04-26_17h14.24.271,SPAMnetsValid,2021.1.4,Win32,60.04563468,,,,,,,,,,,,,,,,,,,,,,,,,,,,,,,,,,,,,,3,3.3371,0,9,9,9,1,capriciousness,stubbornness,courage,whimsicality,amazement,greediness,3,,,,,,,,,,,,,,,,,,,,,,,,,,,,,,,,,,,,,,
,,,,,,,,,,,,,,,89197,001,2022-04-26_17h14.24.271,SPAMnetsValid,2021.1.4,Win32,60.04563468,,,,,,,,,,,,,,,,,,,,,,,,,,,,,,,,,,,,,,3,1.4953,0,10,10,10,1,maelstrom,slander,whirlpool,enmity,armor,majolica,2,,,,,,,,,,,,,,,,,,,,,,,,,,,,,,,,,,,,,,
,,,,,,,,,,,,,,,89197,001,2022-04-26_17h14.24.271,SPAMnetsValid,2021.1.4,Win32,60.04563468,,,,,,,,,,,,,,,,,,,,,,,,,,,,,,,,,,,,,,5,2.0299,0,11,11,11,1,tentative,critical,conclusive,authentic,provisional,apprehensive,4,,,,,,,,,,,,,,,,,,,,,,,,,,,,,,,,,,,,,,
,,,,,,,,,,,,,,,89197,001,2022-04-26_17h14.24.271,SPAMnetsValid,2021.1.4,Win32,60.04563468,,,,,,,,,,,,,,,,,,,,,,,,,,,,,,,,,,,,,,4,2.1405,0,12,12,12,1,placate,rehabilitate,plagiarize,depredate,apprise,conciliate,5,,,,,,,,,,,,,,,,,,,,,,,,,,,,,,,,,,,,,,
,,,,,,,,,,,,,,,89197,001,2022-04-26_17h14.24.271,SPAMnetsValid,2021.1.4,Win32,60.04563468,,,,,,,,,,,,,,,,,,,,,,,,,,,,,,,,,,,,,,4,0.7295,0,13,13,13,1,surcease,enlightenment,cessation,inattention,censor,substitution,2,,,,,,,,,,,,,,,,,,,,,,,,,,,,,,,,,,,,,,
,,,,,,,,,,,,,,,89197,001,2022-04-26_17h14.24.271,SPAMnetsValid,2021.1.4,Win32,60.04563468,,,,,,,,,,,,,,,,,,,,,,,,,,,,,,,,,,,,,,2,3.8245,0,14,14,14,1,apathetic,wandering,impassive,hateful,prophetic,overflowing,2,,,,,,,,,,,,,,,,,,,,,,,,,,,,,,,,,,,,,,
,,,,,,,,,,,,,,,89197,001,2022-04-26_17h14.24.271,SPAMnetsValid,2021.1.4,Win32,60.04563468,,,,,,,,,,,,,,,,,,,,,,,,,,,,,,,,,,,,,,2,2.4716,0,15,15,15,1,paternoster,paternalism,patricide,malediction,benediction,prayer,5,,,,,,,,,,,,,,,,,,,,,,,,,,,,,,,,,,,,,,
,,,,,,,,,,,,,,,89197,001,2022-04-26_17h14.24.271,SPAMnetsValid,2021.1.4,Win32,60.04563468,,,,,,,,,,,,,,,,,,,,,,,,,,,,,,,,,,,,,,1,2.786,0,16,16,16,1,opalescence,opulence,senescence,bankruptcy,iridescence,assiduity,4,,,,,,,,,,,,,,,,,,,,,,,,,,,,,,,,,,,,,,
,,,,,,,,,,,,,,,89197,001,2022-04-26_17h14.24.271,SPAMnetsValid,2021.1.4,Win32,60.04563468,,,,,,,,,,,,,,,,,,,,,,,,,,,,,,,,,,,,,,2,1.9901,0,17,17,17,1,lush,stupid,luxurious,hazy,putrid,languishing,2,,,,,,,,,,,,,,,,,,,,,,,,,,,,,,,,,,,,,,
,,,,,,,,,,,,,,,89197,001,2022-04-26_17h14.24.271,SPAMnetsValid,2021.1.4,Win32,60.04563468,,,,,,,,,,,,,,,,,,,,,,,,,,,,,,,,,,,,,,2,0.9883,0,18,18,18,1,curtailment,expenditure,abandonment,abridgment,improvement,forgery,3,,,,,,,,,,,,,,,,,,,,,,,,,,,,,,,,,,,,,,
,,,,,,,,,,,,,,,89197,001,2022-04-26_17h14.24.271,SPAMnetsValid,2021.1.4,Win32,60.04563468,,,,,,,,,,,,,,,,,,,,,,,,,,,,,,,,,,,,,,2,0.5792,0,19,19,19,1,perversity,adversity,perviousness,travesty,waywardness,gentility,4,,,,,,,,,,,,,,,,,,,,,,,,,,,,,,,,,,,,,,
,,,,,,,,,,,,,,,89197,001,2022-04-26_17h14.24.271,SPAMnetsValid,2021.1.4,Win32,60.04563468,,,,,,,,,,,,,,,,,,,,,,,,,,,,,,,,,,,,,,2,0.4215,0,20,20,20,1,calumnious,complimentary,analogous,slanderous,tempestuous,magnanimous,3,,,,,,,,,,,,,,,,,,,,,,,,,,,,,,,,,,,,,,
,,,,,,,,,,,,,,,89197,001,2022-04-26_17h14.24.271,SPAMnetsValid,2021.1.4,Win32,60.04563468,,,,,,,,,,,,,,,,,,,,,,,,,,,,,,,,,,,,,,,,0,21,21,21,1,illiberality,bigotry,imbecility,illegibility,cautery,immaturity,1,,,,,,,,,,,,,,,,,,,,,,,,,,,,,,,,,,,,,,
,,,,,,,,,,,,,,,89197,001,2022-04-26_17h14.24.271,SPAMnetsValid,2021.1.4,Win32,60.04563468,,,,,,,,,,,,,,,,,,,,,,,,,,,,,,,,,,,,,,2,0.5255,0,22,22,22,1,clabber,rejoice,gossip,curdle,crow,hobble,3,,,,,,,,,,,,,,,,,,,,,,,,,,,,,,,,,,,,,,
,,,,,,,,,,,,,,,89197,001,2022-04-26_17h14.24.271,SPAMnetsValid,2021.1.4,Win32,60.04563468,,,,,,,,,,,,,,,,,,,,,,,,,,,,,,,,,,,,,,2,0.4277,0,23,23,23,1,sedulousness,diligence,credulousness,seduction,perilousness,frankness,1,,,,,,,,,,,,,,,,,,,,,,,,,,,,,,,,,,,,,,
,,,,,,,,,,,,,,,89197,001,2022-04-26_17h14.24.271,SPAMnetsValid,2021.1.4,Win32,60.04563468,,,,,,,,,,,,,,,,,,,,,,,,,,,,,,,,,,,,,,,,,,,,,,,,,,,,lotion,candle,0,0,0,0,1,,,,,,,,,,,,,,,,,,,,,,,,,,,,,,,
,,,,,,,,,,,,,,,89197,001,2022-04-26_17h14.24.271,SPAMnetsValid,2021.1.4,Win32,60.04563468,,,,,,,,,,,,,,,,,,,,,,,,,,,,,,,,,,,,,,,,,,,,,,,,,,,,decoration,candle,1,0,1,0,1,,,,,,,,,,,,,,,,,,,,,,,,,,,,,,,
,,,,,,,,,,,,,,,89197,001,2022-04-26_17h14.24.271,SPAMnetsValid,2021.1.4,Win32,60.04563468,,,,,,,,,,,,,,,,,,,,,,,,,,,,,,,,,,,,,,,,,,,,,,,,,,,,art,candle,2,0,2,0,1,,,,,,,,,,,,,,,,,,,,,,,,,,,,,,,
,,,,,,,,,,,,,,,89197,001,2022-04-26_17h14.24.271,SPAMnetsValid,2021.1.4,Win32,60.04563468,,,,,,,,,,,,,,,,,,,,,,,,,,,,,,,,,,,,,,,,,,,,,,,,,,,,paint,candle,3,0,3,0,1,,,,,,,,,,,,,,,,,,,,,,,,,,,,,,,
,,,,,,,,,,,,,,,89197,001,2022-04-26_17h14.24.271,SPAMnetsValid,2021.1.4,Win32,60.04563468,,,,,,,,,,,,,,,,,,,,,,,,,,,,,,,,,,,,,,,,,,,,,,,,,,,,wax seal,candle,4,0,4,0,1,,,,,,,,,,,,,,,,,,,,,,,,,,,,,,,
,,,,,,,,,,,,,,,89197,001,2022-04-26_17h14.24.271,SPAMnetsValid,2021.1.4,Win32,60.04563468,,,,,,,,,,,,,,,,,,,,,,,,,,,,,,,,,,,,,,,,,,,,,,,,,,,,sex,candle,5,0,5,0,1,,,,,,,,,,,,,,,,,,,,,,,,,,,,,,,
,,,,,,,,,,,,,,,89197,001,2022-04-26_17h14.24.271,SPAMnetsValid,2021.1.4,Win32,60.04563468,,,,,,,,,,,,,,,,,,,,,,,,,,,,,,,,,,,,,,,,,,,,,,,,,,,,lighting ,candle,6,0,6,0,1,,,,,,,,,,,,,,,,,,,,,,,,,,,,,,,
,,,,,,,,,,,,,,,89197,001,2022-04-26_17h14.24.271,SPAMnetsValid,2021.1.4,Win32,60.04563468,,,,,,,,,,,,,,,,,,,,,,,,,,,,,,,,,,,,,,,,,,,,,,,,,,,,wax melts,candle,7,0,7,0,1,,,,,,,,,,,,,,,,,,,,,,,,,,,,,,,
,,,,,,,,,,,,,,,89197,001,2022-04-26_17h14.24.271,SPAMnetsValid,2021.1.4,Win32,60.04563468,,,,,,,,,,,,,,,,,,,,,,,,,,,,,,,,,,,,,,,,,,,,,,,,,,,,drip art,candle,8,0,8,0,1,,,,,,,,,,,,,,,,,,,,,,,,,,,,,,,
,,,,,,,,,,,,,,,89197,001,2022-04-26_17h14.24.271,SPAMnetsValid,2021.1.4,Win32,60.04563468,,,,,,,,,,,,,,,,,,,,,,,,,,,,,,,,,,,,,,,,,,,,,,,,,,,,makeup,candle,9,0,9,0,1,,,,,,,,,,,,,,,,,,,,,,,,,,,,,,,
,,,,,,,,,,,,,,,89197,001,2022-04-26_17h14.24.271,SPAMnetsValid,2021.1.4,Win32,60.04563468,,,,,,,,,,,,,,,,,,,,,,,,,,,,,,,,,,,,,,,,,,,,,,,,,,,,oil,candle,10,0,10,0,1,,,,,,,,,,,,,,,,,,,,,,,,,,,,,,,
,,,,,,,,,,,,,,,89197,001,2022-04-26_17h14.24.271,SPAMnetsValid,2021.1.4,Win32,60.04563468,,,,,,,,,,,,,,,,,,,,,,,,,,,,,,,,,,,,,,,,,,,,,,,,,,,,photos,candle,11,0,11,0,1,,,,,,,,,,,,,,,,,,,,,,,,,,,,,,,
,,,,,,,,,,,,,,,89197,001,2022-04-26_17h14.24.271,SPAMnetsValid,2021.1.4,Win32,60.04563468,,,,,,,,,,,,,,,,,,,,,,,,,,,,,,,,,,,,,,,,,,,,,,,,,,,,,candle,12,0,12,0,1,,,,,,,,,,,,,,,,,,,,,,,,,,,,,,,
,,,,,,,,,,,,,,,89197,001,2022-04-26_17h14.24.271,SPAMnetsValid,2021.1.4,Win32,60.04563468,,,,,,,,,,,,,,,,,,,,,,,,,,,,,,,,,,,,,,,,,,,,,,,,,,,,,,,,,,,0,0,0,1,1,candle,,,,,,,,,,,,,,,,,,,,,,,,,
,,,,,,,,,,,,,,,89197,001,2022-04-26_17h14.24.271,SPAMnetsValid,2021.1.4,Win32,60.04563468,,,,,,,,,,,,,,,,,,,,,,,,,,,,,,,,,,,,,,,,,,,,,,,,,,,,photoshoot,pillow,0,0,0,0,1,,,,,,,,,,,,,,,,,,,,,,,,,,,,,,,
,,,,,,,,,,,,,,,89197,001,2022-04-26_17h14.24.271,SPAMnetsValid,2021.1.4,Win32,60.04563468,,,,,,,,,,,,,,,,,,,,,,,,,,,,,,,,,,,,,,,,,,,,,,,,,,,,costume,pillow,1,0,1,0,1,,,,,,,,,,,,,,,,,,,,,,,,,,,,,,,
,,,,,,,,,,,,,,,89197,001,2022-04-26_17h14.24.271,SPAMnetsValid,2021.1.4,Win32,60.04563468,,,,,,,,,,,,,,,,,,,,,,,,,,,,,,,,,,,,,,,,,,,,,,,,,,,,statues,pillow,2,0,2,0,1,,,,,,,,,,,,,,,,,,,,,,,,,,,,,,,
,,,,,,,,,,,,,,,89197,001,2022-04-26_17h14.24.271,SPAMnetsValid,2021.1.4,Win32,60.04563468,,,,,,,,,,,,,,,,,,,,,,,,,,,,,,,,,,,,,,,,,,,,,,,,,,,,fight,pillow,3,0,3,0,1,,,,,,,,,,,,,,,,,,,,,,,,,,,,,,,
,,,,,,,,,,,,,,,89197,001,2022-04-26_17h14.24.271,SPAMnetsValid,2021.1.4,Win32,60.04563468,,,,,,,,,,,,,,,,,,,,,,,,,,,,,,,,,,,,,,,,,,,,,,,,,,,,clothes,pillow,4,0,4,0,1,,,,,,,,,,,,,,,,,,,,,,,,,,,,,,,
,,,,,,,,,,,,,,,89197,001,2022-04-26_17h14.24.271,SPAMnetsValid,2021.1.4,Win32,60.04563468,,,,,,,,,,,,,,,,,,,,,,,,,,,,,,,,,,,,,,,,,,,,,,,,,,,,cushion,pillow,5,0,5,0,1,,,,,,,,,,,,,,,,,,,,,,,,,,,,,,,
,,,,,,,,,,,,,,,89197,001,2022-04-26_17h14.24.271,SPAMnetsValid,2021.1.4,Win32,60.04563468,,,,,,,,,,,,,,,,,,,,,,,,,,,,,,,,,,,,,,,,,,,,,,,,,,,,fort,pillow,6,0,6,0,1,,,,,,,,,,,,,,,,,,,,,,,,,,,,,,,
,,,,,,,,,,,,,,,89197,001,2022-04-26_17h14.24.271,SPAMnetsValid,2021.1.4,Win32,60.04563468,,,,,,,,,,,,,,,,,,,,,,,,,,,,,,,,,,,,,,,,,,,,,,,,,,,,faking a pregnancy,pillow,7,0,7,0,1,,,,,,,,,,,,,,,,,,,,,,,,,,,,,,,
,,,,,,,,,,,,,,,89197,001,2022-04-26_17h14.24.271,SPAMnetsValid,2021.1.4,Win32,60.04563468,,,,,,,,,,,,,,,,,,,,,,,,,,,,,,,,,,,,,,,,,,,,,,,,,,,,child,pillow,8,0,8,0,1,,,,,,,,,,,,,,,,,,,,,,,,,,,,,,,
,,,,,,,,,,,,,,,89197,001,2022-04-26_17h14.24.271,SPAMnetsValid,2021.1.4,Win32,60.04563468,,,,,,,,,,,,,,,,,,,,,,,,,,,,,,,,,,,,,,,,,,,,,,,,,,,,fake butt,pillow,9,0,9,0,1,,,,,,,,,,,,,,,,,,,,,,,,,,,,,,,
,,,,,,,,,,,,,,,89197,001,2022-04-26_17h14.24.271,SPAMnetsValid,2021.1.4,Win32,60.04563468,,,,,,,,,,,,,,,,,,,,,,,,,,,,,,,,,,,,,,,,,,,,,,,,,,,,fake boobs,pillow,10,0,10,0,1,,,,,,,,,,,,,,,,,,,,,,,,,,,,,,,
,,,,,,,,,,,,,,,89197,001,2022-04-26_17h14.24.271,SPAMnetsValid,2021.1.4,Win32,60.04563468,,,,,,,,,,,,,,,,,,,,,,,,,,,,,,,,,,,,,,,,,,,,,,,,,,,,pet,pillow,11,0,11,0,1,,,,,,,,,,,,,,,,,,,,,,,,,,,,,,,
,,,,,,,,,,,,,,,89197,001,2022-04-26_17h14.24.271,SPAMnetsValid,2021.1.4,Win32,60.04563468,,,,,,,,,,,,,,,,,,,,,,,,,,,,,,,,,,,,,,,,,,,,,,,,,,,,murder,pillow,12,0,12,0,1,,,,,,,,,,,,,,,,,,,,,,,,,,,,,,,
,,,,,,,,,,,,,,,89197,001,2022-04-26_17h14.24.271,SPAMnetsValid,2021.1.4,Win32,60.04563468,,,,,,,,,,,,,,,,,,,,,,,,,,,,,,,,,,,,,,,,,,,,,,,,,,,,,,,,,,,0,1,1,2,1,pillow,,,,,,,,,,,,,,,,,,,,,,,,,
,,,,,,,,,,,,,,,89197,001,2022-04-26_17h14.24.271,SPAMnetsValid,2021.1.4,Win32,60.04563468,,,,,,,,,,,,,,,,,,,,,,,,,,,,,,,,,,,,,,,,,,,,,,,,,,,,water,bucket,0,0,0,0,1,,,,,,,,,,,,,,,,,,,,,,,,,,,,,,,
,,,,,,,,,,,,,,,89197,001,2022-04-26_17h14.24.271,SPAMnetsValid,2021.1.4,Win32,60.04563468,,,,,,,,,,,,,,,,,,,,,,,,,,,,,,,,,,,,,,,,,,,,,,,,,,,,paint,bucket,1,0,1,0,1,,,,,,,,,,,,,,,,,,,,,,,,,,,,,,,
,,,,,,,,,,,,,,,89197,001,2022-04-26_17h14.24.271,SPAMnetsValid,2021.1.4,Win32,60.04563468,,,,,,,,,,,,,,,,,,,,,,,,,,,,,,,,,,,,,,,,,,,,,,,,,,,,helmet,bucket,2,0,2,0,1,,,,,,,,,,,,,,,,,,,,,,,,,,,,,,,
,,,,,,,,,,,,,,,89197,001,2022-04-26_17h14.24.271,SPAMnetsValid,2021.1.4,Win32,60.04563468,,,,,,,,,,,,,,,,,,,,,,,,,,,,,,,,,,,,,,,,,,,,,,,,,,,,seat,bucket,3,0,3,0,1,,,,,,,,,,,,,,,,,,,,,,,,,,,,,,,
,,,,,,,,,,,,,,,89197,001,2022-04-26_17h14.24.271,SPAMnetsValid,2021.1.4,Win32,60.04563468,,,,,,,,,,,,,,,,,,,,,,,,,,,,,,,,,,,,,,,,,,,,,,,,,,,,balls,bucket,4,0,4,0,1,,,,,,,,,,,,,,,,,,,,,,,,,,,,,,,
,,,,,,,,,,,,,,,89197,001,2022-04-26_17h14.24.271,SPAMnetsValid,2021.1.4,Win32,60.04563468,,,,,,,,,,,,,,,,,,,,,,,,,,,,,,,,,,,,,,,,,,,,,,,,,,,,basketball,bucket,5,0,5,0,1,,,,,,,,,,,,,,,,,,,,,,,,,,,,,,,
,,,,,,,,,,,,,,,89197,001,2022-04-26_17h14.24.271,SPAMnetsValid,2021.1.4,Win32,60.04563468,,,,,,,,,,,,,,,,,,,,,,,,,,,,,,,,,,,,,,,,,,,,,,,,,,,,hat,bucket,6,0,6,0,1,,,,,,,,,,,,,,,,,,,,,,,,,,,,,,,
,,,,,,,,,,,,,,,89197,001,2022-04-26_17h14.24.271,SPAMnetsValid,2021.1.4,Win32,60.04563468,,,,,,,,,,,,,,,,,,,,,,,,,,,,,,,,,,,,,,,,,,,,,,,,,,,,stand,bucket,7,0,7,0,1,,,,,,,,,,,,,,,,,,,,,,,,,,,,,,,
,,,,,,,,,,,,,,,89197,001,2022-04-26_17h14.24.271,SPAMnetsValid,2021.1.4,Win32,60.04563468,,,,,,,,,,,,,,,,,,,,,,,,,,,,,,,,,,,,,,,,,,,,,,,,,,,,stool,bucket,8,0,8,0,1,,,,,,,,,,,,,,,,,,,,,,,,,,,,,,,
,,,,,,,,,,,,,,,89197,001,2022-04-26_17h14.24.271,SPAMnetsValid,2021.1.4,Win32,60.04563468,,,,,,,,,,,,,,,,,,,,,,,,,,,,,,,,,,,,,,,,,,,,,,,,,,,,pool,bucket,9,0,9,0,1,,,,,,,,,,,,,,,,,,,,,,,,,,,,,,,
,,,,,,,,,,,,,,,89197,001,2022-04-26_17h14.24.271,SPAMnetsValid,2021.1.4,Win32,60.04563468,,,,,,,,,,,,,,,,,,,,,,,,,,,,,,,,,,,,,,,,,,,,,,,,,,,,house,bucket,10,0,10,0,1,,,,,,,,,,,,,,,,,,,,,,,,,,,,,,,
,,,,,,,,,,,,,,,89197,001,2022-04-26_17h14.24.271,SPAMnetsValid,2021.1.4,Win32,60.04563468,,,,,,,,,,,,,,,,,,,,,,,,,,,,,,,,,,,,,,,,,,,,,,,,,,,,habitat,bucket,11,0,11,0,1,,,,,,,,,,,,,,,,,,,,,,,,,,,,,,,
,,,,,,,,,,,,,,,89197,001,2022-04-26_17h14.24.271,SPAMnetsValid,2021.1.4,Win32,60.04563468,,,,,,,,,,,,,,,,,,,,,,,,,,,,,,,,,,,,,,,,,,,,,,,,,,,,turtles,bucket,12,0,12,0,1,,,,,,,,,,,,,,,,,,,,,,,,,,,,,,,
,,,,,,,,,,,,,,,89197,001,2022-04-26_17h14.24.271,SPAMnetsValid,2021.1.4,Win32,60.04563468,,,,,,,,,,,,,,,,,,,,,,,,,,,,,,,,,,,,,,,,,,,,,,,,,,,,pee,bucket,13,0,13,0,1,,,,,,,,,,,,,,,,,,,,,,,,,,,,,,,
,,,,,,,,,,,,,,,89197,001,2022-04-26_17h14.24.271,SPAMnetsValid,2021.1.4,Win32,60.04563468,,,,,,,,,,,,,,,,,,,,,,,,,,,,,,,,,,,,,,,,,,,,,,,,,,,,slime,bucket,14,0,14,0,1,,,,,,,,,,,,,,,,,,,,,,,,,,,,,,,
,,,,,,,,,,,,,,,89197,001,2022-04-26_17h14.24.271,SPAMnetsValid,2021.1.4,Win32,60.04563468,,,,,,,,,,,,,,,,,,,,,,,,,,,,,,,,,,,,,,,,,,,,,,,,,,,,,,,,,,,0,2,2,0,1,bucket,,,,,,,,,,,,,,,,,,,,,,,,,
,,,,,,,,,,,,,,,89197,001,2022-04-26_17h14.24.271,SPAMnetsValid,2021.1.4,Win32,60.04563468,,,,,,,,,,,,,,,,,,,,,,,,,,,,,,,,,,,,,,,,,,,,,,,,,,,,,,,,,,,,,,,,,lion,Animals,0,0,0,0,1,,,,,,,,,,,,,,,,,,
,,,,,,,,,,,,,,,89197,001,2022-04-26_17h14.24.271,SPAMnetsValid,2021.1.4,Win32,60.04563468,,,,,,,,,,,,,,,,,,,,,,,,,,,,,,,,,,,,,,,,,,,,,,,,,,,,,,,,,,,,,,,,,turtle,Animals,1,0,1,0,1,,,,,,,,,,,,,,,,,,
,,,,,,,,,,,,,,,89197,001,2022-04-26_17h14.24.271,SPAMnetsValid,2021.1.4,Win32,60.04563468,,,,,,,,,,,,,,,,,,,,,,,,,,,,,,,,,,,,,,,,,,,,,,,,,,,,,,,,,,,,,,,,,bird,Animals,2,0,2,0,1,,,,,,,,,,,,,,,,,,
,,,,,,,,,,,,,,,89197,001,2022-04-26_17h14.24.271,SPAMnetsValid,2021.1.4,Win32,60.04563468,,,,,,,,,,,,,,,,,,,,,,,,,,,,,,,,,,,,,,,,,,,,,,,,,,,,,,,,,,,,,,,,,peacock,Animals,3,0,3,0,1,,,,,,,,,,,,,,,,,,
,,,,,,,,,,,,,,,89197,001,2022-04-26_17h14.24.271,SPAMnetsValid,2021.1.4,Win32,60.04563468,,,,,,,,,,,,,,,,,,,,,,,,,,,,,,,,,,,,,,,,,,,,,,,,,,,,,,,,,,,,,,,,,squirrel,Animals,4,0,4,0,1,,,,,,,,,,,,,,,,,,
,,,,,,,,,,,,,,,89197,001,2022-04-26_17h14.24.271,SPAMnetsValid,2021.1.4,Win32,60.04563468,,,,,,,,,,,,,,,,,,,,,,,,,,,,,,,,,,,,,,,,,,,,,,,,,,,,,,,,,,,,,,,,,bunny,Animals,5,0,5,0,1,,,,,,,,,,,,,,,,,,
,,,,,,,,,,,,,,,89197,001,2022-04-26_17h14.24.271,SPAMnetsValid,2021.1.4,Win32,60.04563468,,,,,,,,,,,,,,,,,,,,,,,,,,,,,,,,,,,,,,,,,,,,,,,,,,,,,,,,,,,,,,,,,chipmunk,Animals,6,0,6,0,1,,,,,,,,,,,,,,,,,,
,,,,,,,,,,,,,,,89197,001,2022-04-26_17h14.24.271,SPAMnetsValid,2021.1.4,Win32,60.04563468,,,,,,,,,,,,,,,,,,,,,,,,,,,,,,,,,,,,,,,,,,,,,,,,,,,,,,,,,,,,,,,,,elephant,Animals,7,0,7,0,1,,,,,,,,,,,,,,,,,,
,,,,,,,,,,,,,,,89197,001,2022-04-26_17h14.24.271,SPAMnetsValid,2021.1.4,Win32,60.04563468,,,,,,,,,,,,,,,,,,,,,,,,,,,,,,,,,,,,,,,,,,,,,,,,,,,,,,,,,,,,,,,,,cat,Animals,8,0,8,0,1,,,,,,,,,,,,,,,,,,
,,,,,,,,,,,,,,,89197,001,2022-04-26_17h14.24.271,SPAMnetsValid,2021.1.4,Win32,60.04563468,,,,,,,,,,,,,,,,,,,,,,,,,,,,,,,,,,,,,,,,,,,,,,,,,,,,,,,,,,,,,,,,,dog,Animals,9,0,9,0,1,,,,,,,,,,,,,,,,,,
,,,,,,,,,,,,,,,89197,001,2022-04-26_17h14.24.271,SPAMnetsValid,2021.1.4,Win32,60.04563468,,,,,,,,,,,,,,,,,,,,,,,,,,,,,,,,,,,,,,,,,,,,,,,,,,,,,,,,,,,,,,,,,cat,Animals,10,0,10,0,1,,,,,,,,,,,,,,,,,,
,,,,,,,,,,,,,,,89197,001,2022-04-26_17h14.24.271,SPAMnetsValid,2021.1.4,Win32,60.04563468,,,,,,,,,,,,,,,,,,,,,,,,,,,,,,,,,,,,,,,,,,,,,,,,,,,,,,,,,,,,,,,,,dog,Animals,11,0,11,0,1,,,,,,,,,,,,,,,,,,
,,,,,,,,,,,,,,,89197,001,2022-04-26_17h14.24.271,SPAMnetsValid,2021.1.4,Win32,60.04563468,,,,,,,,,,,,,,,,,,,,,,,,,,,,,,,,,,,,,,,,,,,,,,,,,,,,,,,,,,,,,,,,,lizard,Animals,12,0,12,0,1,,,,,,,,,,,,,,,,,,
,,,,,,,,,,,,,,,89197,001,2022-04-26_17h14.24.271,SPAMnetsValid,2021.1.4,Win32,60.04563468,,,,,,,,,,,,,,,,,,,,,,,,,,,,,,,,,,,,,,,,,,,,,,,,,,,,,,,,,,,,,,,,,cow,Animals,13,0,13,0,1,,,,,,,,,,,,,,,,,,
,,,,,,,,,,,,,,,89197,001,2022-04-26_17h14.24.271,SPAMnetsValid,2021.1.4,Win32,60.04563468,,,,,,,,,,,,,,,,,,,,,,,,,,,,,,,,,,,,,,,,,,,,,,,,,,,,,,,,,,,,,,,,,pig,Animals,14,0,14,0,1,,,,,,,,,,,,,,,,,,
,,,,,,,,,,,,,,,89197,001,2022-04-26_17h14.24.271,SPAMnetsValid,2021.1.4,Win32,60.04563468,,,,,,,,,,,,,,,,,,,,,,,,,,,,,,,,,,,,,,,,,,,,,,,,,,,,,,,,,,,,,,,,,rooster,Animals,15,0,15,0,1,,,,,,,,,,,,,,,,,,
,,,,,,,,,,,,,,,89197,001,2022-04-26_17h14.24.271,SPAMnetsValid,2021.1.4,Win32,60.04563468,,,,,,,,,,,,,,,,,,,,,,,,,,,,,,,,,,,,,,,,,,,,,,,,,,,,,,,,,,,,,,,,,giraffe,Animals,16,0,16,0,1,,,,,,,,,,,,,,,,,,
,,,,,,,,,,,,,,,89197,001,2022-04-26_17h14.24.271,SPAMnetsValid,2021.1.4,Win32,60.04563468,,,,,,,,,,,,,,,,,,,,,,,,,,,,,,,,,,,,,,,,,,,,,,,,,,,,,,,,,,,,,,,,,rhinoceros,Animals,17,0,17,0,1,,,,,,,,,,,,,,,,,,
,,,,,,,,,,,,,,,89197,001,2022-04-26_17h14.24.271,SPAMnetsValid,2021.1.4,Win32,60.04563468,,,,,,,,,,,,,,,,,,,,,,,,,,,,,,,,,,,,,,,,,,,,,,,,,,,,,,,,,,,,,,,,,zebra,Animals,18,0,18,0,1,,,,,,,,,,,,,,,,,,
,,,,,,,,,,,,,,,89197,001,2022-04-26_17h14.24.271,SPAMnetsValid,2021.1.4,Win32,60.04563468,,,,,,,,,,,,,,,,,,,,,,,,,,,,,,,,,,,,,,,,,,,,,,,,,,,,,,,,,,,,,,,,,capybara,Animals,19,0,19,0,1,,,,,,,,,,,,,,,,,,
,,,,,,,,,,,,,,,89197,001,2022-04-26_17h14.24.271,SPAMnetsValid,2021.1.4,Win32,60.04563468,,,,,,,,,,,,,,,,,,,,,,,,,,,,,,,,,,,,,,,,,,,,,,,,,,,,,,,,,,,,,,,,,otter,Animals,20,0,20,0,1,,,,,,,,,,,,,,,,,,
,,,,,,,,,,,,,,,89197,001,2022-04-26_17h14.24.271,SPAMnetsValid,2021.1.4,Win32,60.04563468,,,,,,,,,,,,,,,,,,,,,,,,,,,,,,,,,,,,,,,,,,,,,,,,,,,,,,,,,,,,,,,,,starfish,Animals,21,0,21,0,1,,,,,,,,,,,,,,,,,,
,,,,,,,,,,,,,,,89197,001,2022-04-26_17h14.24.271,SPAMnetsValid,2021.1.4,Win32,60.04563468,,,,,,,,,,,,,,,,,,,,,,,,,,,,,,,,,,,,,,,,,,,,,,,,,,,,,,,,,,,,,,,,,dolphin,Animals,22,0,22,0,1,,,,,,,,,,,,,,,,,,
,,,,,,,,,,,,,,,89197,001,2022-04-26_17h14.24.271,SPAMnetsValid,2021.1.4,Win32,60.04563468,,,,,,,,,,,,,,,,,,,,,,,,,,,,,,,,,,,,,,,,,,,,,,,,,,,,,,,,,,,,,,,,,whale,Animals,23,0,23,0,1,,,,,,,,,,,,,,,,,,
,,,,,,,,,,,,,,,89197,001,2022-04-26_17h14.24.271,SPAMnetsValid,2021.1.4,Win32,60.04563468,,,,,,,,,,,,,,,,,,,,,,,,,,,,,,,,,,,,,,,,,,,,,,,,,,,,,,,,,,,,,,,,,fish,Animals,24,0,24,0,1,,,,,,,,,,,,,,,,,,
,,,,,,,,,,,,,,,89197,001,2022-04-26_17h14.24.271,SPAMnetsValid,2021.1.4,Win32,60.04563468,,,,,,,,,,,,,,,,,,,,,,,,,,,,,,,,,,,,,,,,,,,,,,,,,,,,,,,,,,,,,,,,,octopuc,Animals,25,0,25,0,1,,,,,,,,,,,,,,,,,,
,,,,,,,,,,,,,,,89197,001,2022-04-26_17h14.24.271,SPAMnetsValid,2021.1.4,Win32,60.04563468,,,,,,,,,,,,,,,,,,,,,,,,,,,,,,,,,,,,,,,,,,,,,,,,,,,,,,,,,,,,,,,,,octopus,Animals,26,0,26,0,1,,,,,,,,,,,,,,,,,,
,,,,,,,,,,,,,,,89197,001,2022-04-26_17h14.24.271,SPAMnetsValid,2021.1.4,Win32,60.04563468,,,,,,,,,,,,,,,,,,,,,,,,,,,,,,,,,,,,,,,,,,,,,,,,,,,,,,,,,,,,,,,,,shrimp,Animals,27,0,27,0,1,,,,,,,,,,,,,,,,,,
,,,,,,,,,,,,,,,89197,001,2022-04-26_17h14.24.271,SPAMnetsValid,2021.1.4,Win32,60.04563468,,,,,,,,,,,,,,,,,,,,,,,,,,,,,,,,,,,,,,,,,,,,,,,,,,,,,,,,,,,,,,,,,alligator,Animals,28,0,28,0,1,,,,,,,,,,,,,,,,,,
,,,,,,,,,,,,,,,89197,001,2022-04-26_17h14.24.271,SPAMnetsValid,2021.1.4,Win32,60.04563468,,,,,,,,,,,,,,,,,,,,,,,,,,,,,,,,,,,,,,,,,,,,,,,,,,,,,,,,,,,,,,,,,ox,Animals,29,0,29,0,1,,,,,,,,,,,,,,,,,,
,,,,,,,,,,,,,,,89197,001,2022-04-26_17h14.24.271,SPAMnetsValid,2021.1.4,Win32,60.04563468,,,,,,,,,,,,,,,,,,,,,,,,,,,,,,,,,,,,,,,,,,,,,,,,,,,,,,,,,,,,,,,,,koala,Animals,30,0,30,0,1,,,,,,,,,,,,,,,,,,
,,,,,,,,,,,,,,,89197,001,2022-04-26_17h14.24.271,SPAMnetsValid,2021.1.4,Win32,60.04563468,,,,,,,,,,,,,,,,,,,,,,,,,,,,,,,,,,,,,,,,,,,,,,,,,,,,,,,,,,,,,,,,,parrot,Animals,31,0,31,0,1,,,,,,,,,,,,,,,,,,
,,,,,,,,,,,,,,,89197,001,2022-04-26_17h14.24.271,SPAMnetsValid,2021.1.4,Win32,60.04563468,,,,,,,,,,,,,,,,,,,,,,,,,,,,,,,,,,,,,,,,,,,,,,,,,,,,,,,,,,,,,,,,,lemur,Animals,32,0,32,0,1,,,,,,,,,,,,,,,,,,
,,,,,,,,,,,,,,,89197,001,2022-04-26_17h14.24.271,SPAMnetsValid,2021.1.4,Win32,60.04563468,,,,,,,,,,,,,,,,,,,,,,,,,,,,,,,,,,,,,,,,,,,,,,,,,,,,,,,,,,,,,,,,,panda,Animals,33,0,33,0,1,,,,,,,,,,,,,,,,,,
,,,,,,,,,,,,,,,89197,001,2022-04-26_17h14.24.271,SPAMnetsValid,2021.1.4,Win32,60.04563468,,,,,,,,,,,,,,,,,,,,,,,,,,,,,,,,,,,,,,,,,,,,,,,,,,,,,,,,,,,,,,,,,red panda,Animals,34,0,34,0,1,,,,,,,,,,,,,,,,,,
,,,,,,,,,,,,,,,89197,001,2022-04-26_17h14.24.271,SPAMnetsValid,2021.1.4,Win32,60.04563468,,,,,,,,,,,,,,,,,,,,,,,,,,,,,,,,,,,,,,,,,,,,,,,,,,,,,,,,,,,,,,,,,mink,Animals,35,0,35,0,1,,,,,,,,,,,,,,,,,,
,,,,,,,,,,,,,,,89197,001,2022-04-26_17h14.24.271,SPAMnetsValid,2021.1.4,Win32,60.04563468,,,,,,,,,,,,,,,,,,,,,,,,,,,,,,,,,,,,,,,,,,,,,,,,,,,,,,,,,,,,,,,,,polar bear,Animals,36,0,36,0,1,,,,,,,,,,,,,,,,,,
,,,,,,,,,,,,,,,89197,001,2022-04-26_17h14.24.271,SPAMnetsValid,2021.1.4,Win32,60.04563468,,,,,,,,,,,,,,,,,,,,,,,,,,,,,,,,,,,,,,,,,,,,,,,,,,,,,,,,,,,,,,,,,,,,,,,,0,0,0,0,1,Animals,,,,,,,,,,,,
,,,,,,,,,,,,,,,89197,001,2022-04-26_17h14.24.271,SPAMnetsValid,2021.1.4,Win32,60.04563468,,,,,,,,,,,,,,,,,,,,,,,,,,,,,,,,,,,,,,,,,,,,,,,,,,,,,,,,,,,,,,,,,,,,,,,,,,,,,,5,2.441,0,0,0,0,1,"I enjoy concentrating on a fantasy or daydream and exploring all its possibilities, letting it grow and develop.",0,1,,
,,,,,,,,,,,,,,,89197,001,2022-04-26_17h14.24.271,SPAMnetsValid,2021.1.4,Win32,60.04563468,,,,,,,,,,,,,,,,,,,,,,,,,,,,,,,,,,,,,,,,,,,,,,,,,,,,,,,,,,,,,,,,,,,,,,,,,,,,,,5,2.8522,0,1,1,1,1,I think it's interesting to learn and develop new hobbies.,0,2,,
,,,,,,,,,,,,,,,89197,001,2022-04-26_17h14.24.271,SPAMnetsValid,2021.1.4,Win32,60.04563468,,,,,,,,,,,,,,,,,,,,,,,,,,,,,,,,,,,,,,,,,,,,,,,,,,,,,,,,,,,,,,,,,,,,,,,,,,,,,,5,17.0614,0,2,2,2,1,I am intrigued by the patterns I find in art and nature.,0,3,,
,,,,,,,,,,,,,,,89197,001,2022-04-26_17h14.24.271,SPAMnetsValid,2021.1.4,Win32,60.04563468,,,,,,,,,,,,,,,,,,,,,,,,,,,,,,,,,,,,,,,,,,,,,,,,,,,,,,,,,,,,,,,,,,,,,,,,,,,,,,4,3.3092,0,3,3,3,1,I believe letting students hear controversial speakers can only confuse and mislead them.,1,4,,
,,,,,,,,,,,,,,,89197,001,2022-04-26_17h14.24.271,SPAMnetsValid,2021.1.4,Win32,60.04563468,,,,,,,,,,,,,,,,,,,,,,,,,,,,,,,,,,,,,,,,,,,,,,,,,,,,,,,,,,,,,,,,,,,,,,,,,,,,,,4,2.4329,0,4,4,4,1,Poetry has little or no effect on me.,1,5,,
,,,,,,,,,,,,,,,89197,001,2022-04-26_17h14.24.271,SPAMnetsValid,2021.1.4,Win32,60.04563468,,,,,,,,,,,,,,,,,,,,,,,,,,,,,,,,,,,,,,,,,,,,,,,,,,,,,,,,,,,,,,,,,,,,,,,,,,,,,,5,1.7681,0,5,5,5,1,I would have difficulty just letting my mind wander without control or guidance.,1,6,,
,,,,,,,,,,,,,,,89197,001,2022-04-26_17h14.24.271,SPAMnetsValid,2021.1.4,Win32,60.04563468,,,,,,,,,,,,,,,,,,,,,,,,,,,,,,,,,,,,,,,,,,,,,,,,,,,,,,,,,,,,,,,,,,,,,,,,,,,,,,2,2.5174,0,6,6,6,1,I seldom notice the moods or feelings that different environments produce.,1,7,,
,,,,,,,,,,,,,,,89197,001,2022-04-26_17h14.24.271,SPAMnetsValid,2021.1.4,Win32,60.04563468,,,,,,,,,,,,,,,,,,,,,,,,,,,,,,,,,,,,,,,,,,,,,,,,,,,,,,,,,,,,,,,,,,,,,,,,,,,,,,5,1.618,0,7,7,7,1,I experience a wide range of emotions or feelings.,0,8,,
,,,,,,,,,,,,,,,89197,001,2022-04-26_17h14.24.271,SPAMnetsValid,2021.1.4,Win32,60.04563468,,,,,,,,,,,,,,,,,,,,,,,,,,,,,,,,,,,,,,,,,,,,,,,,,,,,,,,,,,,,,,,,,,,,,,,,,,,,,,5,0.9371,0,8,8,8,1,"Sometimes when I am reading poetry or looking at a work of art, I feel a chill or wave of excitement.",0,9,,
,,,,,,,,,,,,,,,89197,001,2022-04-26_17h14.24.271,SPAMnetsValid,2021.1.4,Win32,60.04563468,,,,,,,,,,,,,,,,,,,,,,,,,,,,,,,,,,,,,,,,,,,,,,,,,,,,,,,,,,,,,,,,,,,,,,,,,,,,,,1,2.2153,0,9,9,9,1,I have little interest in speculating on the nature of the universe or the human condition.,1,10,,
,,,,,,,,,,,,,,,89197,001,2022-04-26_17h14.24.271,SPAMnetsValid,2021.1.4,Win32,60.04563468,,,,,,,,,,,,,,,,,,,,,,,,,,,,,,,,,,,,,,,,,,,,,,,,,,,,,,,,,,,,,,,,,,,,,,,,,,,,,,5,5.3913,0,10,10,10,1,I have a lot of intellectual curiosity.,0,11,,
,,,,,,,,,,,,,,,89197,001,2022-04-26_17h14.24.271,SPAMnetsValid,2021.1.4,Win32,60.04563468,,,,,,,,,,,,,,,,,,,,,,,,,,,,,,,,,,,,,,,,,,,,,,,,,,,,,,,,,,,,,,,,,,,,,,,,,,,,,,5,0.7521,0,11,11,11,1,I often enjoy playing with theories or abstract ideas.,0,12,,
,,,,,,,,,,,,,,,89197,001,2022-04-26_17h14.24.271,SPAMnetsValid,2021.1.4,Win32,60.04563468,,,,,,,,,,,,,,,,,,,,,,,,,,,,,,,,,,,,,,,,,,,,,,,,,,,,,,,,,,,,,,,,,,,,,,,,,,,,,,,,,,,,,,,,return,5.9761
