key_resp_3.keys,key_resp_3.rt,slider.response,slider.rt,rjt_rating,rjt_RT,trials_22.thisRepN,trials_22.thisTrialN,trials_22.thisN,trials_22.thisIndex,trials_22.ran,rjt_order,word1,word2,attention,participant,session,date,expName,psychopyVersion,OS,frameRate,trials_99.thisRepN,trials_99.thisTrialN,trials_99.thisN,trials_99.thisIndex,trials_99.ran,trials_5.thisRepN,trials_5.thisTrialN,trials_5.thisN,trials_5.thisIndex,trials_5.ran,repOne,repTwo,slider_2.response,slider_2.rt,trials_24.thisRepN,trials_24.thisTrialN,trials_24.thisN,trials_24.thisIndex,trials_24.ran,trials_4.thisRepN,trials_4.thisTrialN,trials_4.thisN,trials_4.thisIndex,trials_4.ran,slider_extend_2.response,slider_extend_2.rt,trials_6.thisRepN,trials_6.thisTrialN,trials_6.thisN,trials_6.thisIndex,trials_6.ran,vCue2,R1,R2,R3,R4,correct,sliderVocab.response,sliderVocab.rt,trials_7.thisRepN,trials_7.thisTrialN,trials_7.thisN,trials_7.thisIndex,trials_7.ran,VocabCue,VR1,VR2,VR3,VR4,VR5,VocabCorrect,AUT_resp,AUT_label,trials.thisRepN,trials.thisTrialN,trials.thisN,trials.thisIndex,trials.ran,trials_2.thisRepN,trials_2.thisTrialN,trials_2.thisN,trials_2.thisIndex,trials_2.ran,aut_prompt,VF_response,VF_tag,trials_16.thisRepN,trials_16.thisTrialN,trials_16.thisN,trials_16.thisIndex,trials_16.ran,trials_17.thisRepN,trials_17.thisTrialN,trials_17.thisN,trials_17.thisIndex,trials_17.ran,VFcond,open_slider.response,open_slider.rt,trials_3.thisRepN,trials_3.thisTrialN,trials_3.thisN,trials_3.thisIndex,trials_3.ran,OpenQ,Rev,OPEN_ORDER,key_resp_2.keys,key_resp_2.rt
return,5.402,7,7.3927,7,7.3927,0,0,0,77,1,7,melon,tree,,89194,001,2022-04-27_10h55.16.440,SPAMnetsValid,2021.1.4,Win32,59.85873339,,,,,,,,,,,,,,,,,,,,,,,,,,,,,,,,,,,,,,,,,,,,,,,,,,,,,,,,,,,,,,,,,,,,,,,,,,,,,,,,,,,,,,,,,
,,2,5.266,2,5.266,0,1,1,84,1,91,microwave,rose,,89194,001,2022-04-27_10h55.16.440,SPAMnetsValid,2021.1.4,Win32,59.85873339,,,,,,,,,,,,,,,,,,,,,,,,,,,,,,,,,,,,,,,,,,,,,,,,,,,,,,,,,,,,,,,,,,,,,,,,,,,,,,,,,,,,,,,,,
,,4,7.4668,4,7.4668,0,2,2,1,1,31,cactus,pretzel,,89194,001,2022-04-27_10h55.16.440,SPAMnetsValid,2021.1.4,Win32,59.85873339,,,,,,,,,,,,,,,,,,,,,,,,,,,,,,,,,,,,,,,,,,,,,,,,,,,,,,,,,,,,,,,,,,,,,,,,,,,,,,,,,,,,,,,,,
,,3,2.2915,3,2.2915,0,3,3,26,1,35,flower,pretzel,,89194,001,2022-04-27_10h55.16.440,SPAMnetsValid,2021.1.4,Win32,59.85873339,,,,,,,,,,,,,,,,,,,,,,,,,,,,,,,,,,,,,,,,,,,,,,,,,,,,,,,,,,,,,,,,,,,,,,,,,,,,,,,,,,,,,,,,,
,,6,2.8016,6,2.8016,0,4,4,94,1,68,flower,tomato,,89194,001,2022-04-27_10h55.16.440,SPAMnetsValid,2021.1.4,Win32,59.85873339,,,,,,,,,,,,,,,,,,,,,,,,,,,,,,,,,,,,,,,,,,,,,,,,,,,,,,,,,,,,,,,,,,,,,,,,,,,,,,,,,,,,,,,,,
,,5,1.9839,5,1.9839,0,5,5,62,1,18,onion,refrigerator,,89194,001,2022-04-27_10h55.16.440,SPAMnetsValid,2021.1.4,Win32,59.85873339,,,,,,,,,,,,,,,,,,,,,,,,,,,,,,,,,,,,,,,,,,,,,,,,,,,,,,,,,,,,,,,,,,,,,,,,,,,,,,,,,,,,,,,,,
,,2,3.3992,2,3.3992,0,6,6,47,1,73,broom,chocolate,,89194,001,2022-04-27_10h55.16.440,SPAMnetsValid,2021.1.4,Win32,59.85873339,,,,,,,,,,,,,,,,,,,,,,,,,,,,,,,,,,,,,,,,,,,,,,,,,,,,,,,,,,,,,,,,,,,,,,,,,,,,,,,,,,,,,,,,,
,,4,2.0754,4,2.0754,0,7,7,80,1,61,strawberry,tomato,,89194,001,2022-04-27_10h55.16.440,SPAMnetsValid,2021.1.4,Win32,59.85873339,,,,,,,,,,,,,,,,,,,,,,,,,,,,,,,,,,,,,,,,,,,,,,,,,,,,,,,,,,,,,,,,,,,,,,,,,,,,,,,,,,,,,,,,,
,,2,2.0961,2,2.0961,0,8,8,9,1,75,cookie,onion,,89194,001,2022-04-27_10h55.16.440,SPAMnetsValid,2021.1.4,Win32,59.85873339,,,,,,,,,,,,,,,,,,,,,,,,,,,,,,,,,,,,,,,,,,,,,,,,,,,,,,,,,,,,,,,,,,,,,,,,,,,,,,,,,,,,,,,,,
,,2,3.3061,2,3.3061,0,9,9,33,1,32,cake,microwave,,89194,001,2022-04-27_10h55.16.440,SPAMnetsValid,2021.1.4,Win32,59.85873339,,,,,,,,,,,,,,,,,,,,,,,,,,,,,,,,,,,,,,,,,,,,,,,,,,,,,,,,,,,,,,,,,,,,,,,,,,,,,,,,,,,,,,,,,
,,6,2.8368,6,2.8368,0,10,10,35,1,55,tomato,tree,,89194,001,2022-04-27_10h55.16.440,SPAMnetsValid,2021.1.4,Win32,59.85873339,,,,,,,,,,,,,,,,,,,,,,,,,,,,,,,,,,,,,,,,,,,,,,,,,,,,,,,,,,,,,,,,,,,,,,,,,,,,,,,,,,,,,,,,,
,,4,2.6174,4,2.6174,0,11,11,39,1,15,onion,oven,,89194,001,2022-04-27_10h55.16.440,SPAMnetsValid,2021.1.4,Win32,59.85873339,,,,,,,,,,,,,,,,,,,,,,,,,,,,,,,,,,,,,,,,,,,,,,,,,,,,,,,,,,,,,,,,,,,,,,,,,,,,,,,,,,,,,,,,,
,,5,2.1806,5,2.1806,0,12,12,36,1,12,cookie,yogurt,,89194,001,2022-04-27_10h55.16.440,SPAMnetsValid,2021.1.4,Win32,59.85873339,,,,,,,,,,,,,,,,,,,,,,,,,,,,,,,,,,,,,,,,,,,,,,,,,,,,,,,,,,,,,,,,,,,,,,,,,,,,,,,,,,,,,,,,,
,,5,1.2115,5,1.2115,0,13,13,18,1,85,cake,tree,,89194,001,2022-04-27_10h55.16.440,SPAMnetsValid,2021.1.4,Win32,59.85873339,,,,,,,,,,,,,,,,,,,,,,,,,,,,,,,,,,,,,,,,,,,,,,,,,,,,,,,,,,,,,,,,,,,,,,,,,,,,,,,,,,,,,,,,,
,,7,4.8616,7,4.8616,0,14,14,76,1,36,broom,kitchen,,89194,001,2022-04-27_10h55.16.440,SPAMnetsValid,2021.1.4,Win32,59.85873339,,,,,,,,,,,,,,,,,,,,,,,,,,,,,,,,,,,,,,,,,,,,,,,,,,,,,,,,,,,,,,,,,,,,,,,,,,,,,,,,,,,,,,,,,
,,5,2.0829,5,2.0829,0,15,15,56,1,78,cookie,rose,,89194,001,2022-04-27_10h55.16.440,SPAMnetsValid,2021.1.4,Win32,59.85873339,,,,,,,,,,,,,,,,,,,,,,,,,,,,,,,,,,,,,,,,,,,,,,,,,,,,,,,,,,,,,,,,,,,,,,,,,,,,,,,,,,,,,,,,,
,,2,2.236,2,2.236,0,16,16,88,1,92,broom,flower,,89194,001,2022-04-27_10h55.16.440,SPAMnetsValid,2021.1.4,Win32,59.85873339,,,,,,,,,,,,,,,,,,,,,,,,,,,,,,,,,,,,,,,,,,,,,,,,,,,,,,,,,,,,,,,,,,,,,,,,,,,,,,,,,,,,,,,,,
,,3,1.7222,3,1.7222,0,17,17,81,1,60,cactus,onion,,89194,001,2022-04-27_10h55.16.440,SPAMnetsValid,2021.1.4,Win32,59.85873339,,,,,,,,,,,,,,,,,,,,,,,,,,,,,,,,,,,,,,,,,,,,,,,,,,,,,,,,,,,,,,,,,,,,,,,,,,,,,,,,,,,,,,,,,
,,2,1.6484,2,1.6484,0,18,18,8,1,43,chocolate,tomato,,89194,001,2022-04-27_10h55.16.440,SPAMnetsValid,2021.1.4,Win32,59.85873339,,,,,,,,,,,,,,,,,,,,,,,,,,,,,,,,,,,,,,,,,,,,,,,,,,,,,,,,,,,,,,,,,,,,,,,,,,,,,,,,,,,,,,,,,
,,7,2.1149,7,2.1149,0,19,19,87,1,79,garden,strawberry,,89194,001,2022-04-27_10h55.16.440,SPAMnetsValid,2021.1.4,Win32,59.85873339,,,,,,,,,,,,,,,,,,,,,,,,,,,,,,,,,,,,,,,,,,,,,,,,,,,,,,,,,,,,,,,,,,,,,,,,,,,,,,,,,,,,,,,,,
,,2,2.1598,2,2.1598,0,20,20,5,1,13,broom,yogurt,,89194,001,2022-04-27_10h55.16.440,SPAMnetsValid,2021.1.4,Win32,59.85873339,,,,,,,,,,,,,,,,,,,,,,,,,,,,,,,,,,,,,,,,,,,,,,,,,,,,,,,,,,,,,,,,,,,,,,,,,,,,,,,,,,,,,,,,,
,,5,2.0044,5,2.0044,0,21,21,91,1,2,kitchen,onion,,89194,001,2022-04-27_10h55.16.440,SPAMnetsValid,2021.1.4,Win32,59.85873339,,,,,,,,,,,,,,,,,,,,,,,,,,,,,,,,,,,,,,,,,,,,,,,,,,,,,,,,,,,,,,,,,,,,,,,,,,,,,,,,,,,,,,,,,
,,5,1.2211,5,1.2211,0,22,22,44,1,25,carrot,onion,,89194,001,2022-04-27_10h55.16.440,SPAMnetsValid,2021.1.4,Win32,59.85873339,,,,,,,,,,,,,,,,,,,,,,,,,,,,,,,,,,,,,,,,,,,,,,,,,,,,,,,,,,,,,,,,,,,,,,,,,,,,,,,,,,,,,,,,,
,,2,1.9571,2,1.9571,0,23,23,40,1,74,broom,pretzel,,89194,001,2022-04-27_10h55.16.440,SPAMnetsValid,2021.1.4,Win32,59.85873339,,,,,,,,,,,,,,,,,,,,,,,,,,,,,,,,,,,,,,,,,,,,,,,,,,,,,,,,,,,,,,,,,,,,,,,,,,,,,,,,,,,,,,,,,
,,3,1.8109,3,1.8109,0,24,24,4,1,83,broom,carrot,,89194,001,2022-04-27_10h55.16.440,SPAMnetsValid,2021.1.4,Win32,59.85873339,,,,,,,,,,,,,,,,,,,,,,,,,,,,,,,,,,,,,,,,,,,,,,,,,,,,,,,,,,,,,,,,,,,,,,,,,,,,,,,,,,,,,,,,,
,,2,1.8638,2,1.8638,0,25,25,70,1,5,oven,tree,,89194,001,2022-04-27_10h55.16.440,SPAMnetsValid,2021.1.4,Win32,59.85873339,,,,,,,,,,,,,,,,,,,,,,,,,,,,,,,,,,,,,,,,,,,,,,,,,,,,,,,,,,,,,,,,,,,,,,,,,,,,,,,,,,,,,,,,,
,,2,1.753,2,1.753,0,26,26,25,1,23,flower,microwave,,89194,001,2022-04-27_10h55.16.440,SPAMnetsValid,2021.1.4,Win32,59.85873339,,,,,,,,,,,,,,,,,,,,,,,,,,,,,,,,,,,,,,,,,,,,,,,,,,,,,,,,,,,,,,,,,,,,,,,,,,,,,,,,,,,,,,,,,
,,3,1.8853,3,1.8853,0,27,27,27,1,72,broom,onion,,89194,001,2022-04-27_10h55.16.440,SPAMnetsValid,2021.1.4,Win32,59.85873339,,,,,,,,,,,,,,,,,,,,,,,,,,,,,,,,,,,,,,,,,,,,,,,,,,,,,,,,,,,,,,,,,,,,,,,,,,,,,,,,,,,,,,,,,
,,3,1.8041,3,1.8041,0,28,28,46,1,41,broom,cactus,,89194,001,2022-04-27_10h55.16.440,SPAMnetsValid,2021.1.4,Win32,59.85873339,,,,,,,,,,,,,,,,,,,,,,,,,,,,,,,,,,,,,,,,,,,,,,,,,,,,,,,,,,,,,,,,,,,,,,,,,,,,,,,,,,,,,,,,,
,,7,4.6464,7,4.6464,0,29,29,29,1,42,garden,kitchen,,89194,001,2022-04-27_10h55.16.440,SPAMnetsValid,2021.1.4,Win32,59.85873339,,,,,,,,,,,,,,,,,,,,,,,,,,,,,,,,,,,,,,,,,,,,,,,,,,,,,,,,,,,,,,,,,,,,,,,,,,,,,,,,,,,,,,,,,
,,6,2.2663,6,2.2663,0,30,30,50,1,81,pretzel,yogurt,,89194,001,2022-04-27_10h55.16.440,SPAMnetsValid,2021.1.4,Win32,59.85873339,,,,,,,,,,,,,,,,,,,,,,,,,,,,,,,,,,,,,,,,,,,,,,,,,,,,,,,,,,,,,,,,,,,,,,,,,,,,,,,,,,,,,,,,,
,,2,1.5516,2,1.5516,0,31,31,89,1,80,chocolate,tree,,89194,001,2022-04-27_10h55.16.440,SPAMnetsValid,2021.1.4,Win32,59.85873339,,,,,,,,,,,,,,,,,,,,,,,,,,,,,,,,,,,,,,,,,,,,,,,,,,,,,,,,,,,,,,,,,,,,,,,,,,,,,,,,,,,,,,,,,
,,4,1.7348,4,1.7348,0,32,32,23,1,65,broom,garden,,89194,001,2022-04-27_10h55.16.440,SPAMnetsValid,2021.1.4,Win32,59.85873339,,,,,,,,,,,,,,,,,,,,,,,,,,,,,,,,,,,,,,,,,,,,,,,,,,,,,,,,,,,,,,,,,,,,,,,,,,,,,,,,,,,,,,,,,
,,4,2.5568,4,2.5568,0,33,33,38,1,88,cactus,melon,,89194,001,2022-04-27_10h55.16.440,SPAMnetsValid,2021.1.4,Win32,59.85873339,,,,,,,,,,,,,,,,,,,,,,,,,,,,,,,,,,,,,,,,,,,,,,,,,,,,,,,,,,,,,,,,,,,,,,,,,,,,,,,,,,,,,,,,,
,,5,1.8351,5,1.8351,0,34,34,75,1,69,carrot,refrigerator,,89194,001,2022-04-27_10h55.16.440,SPAMnetsValid,2021.1.4,Win32,59.85873339,,,,,,,,,,,,,,,,,,,,,,,,,,,,,,,,,,,,,,,,,,,,,,,,,,,,,,,,,,,,,,,,,,,,,,,,,,,,,,,,,,,,,,,,,
,,5,1.0517,5,1.0517,0,35,35,68,1,24,cookie,tomato,,89194,001,2022-04-27_10h55.16.440,SPAMnetsValid,2021.1.4,Win32,59.85873339,,,,,,,,,,,,,,,,,,,,,,,,,,,,,,,,,,,,,,,,,,,,,,,,,,,,,,,,,,,,,,,,,,,,,,,,,,,,,,,,,,,,,,,,,
,,7,2.7351,7,2.7351,0,36,36,19,1,76,garden,rose,,89194,001,2022-04-27_10h55.16.440,SPAMnetsValid,2021.1.4,Win32,59.85873339,,,,,,,,,,,,,,,,,,,,,,,,,,,,,,,,,,,,,,,,,,,,,,,,,,,,,,,,,,,,,,,,,,,,,,,,,,,,,,,,,,,,,,,,,
,,3,3.4913,3,3.4913,0,37,37,61,1,71,broom,rose,,89194,001,2022-04-27_10h55.16.440,SPAMnetsValid,2021.1.4,Win32,59.85873339,,,,,,,,,,,,,,,,,,,,,,,,,,,,,,,,,,,,,,,,,,,,,,,,,,,,,,,,,,,,,,,,,,,,,,,,,,,,,,,,,,,,,,,,,
,,4,1.4715,4,1.4715,0,38,38,65,1,46,garden,yogurt,,89194,001,2022-04-27_10h55.16.440,SPAMnetsValid,2021.1.4,Win32,59.85873339,,,,,,,,,,,,,,,,,,,,,,,,,,,,,,,,,,,,,,,,,,,,,,,,,,,,,,,,,,,,,,,,,,,,,,,,,,,,,,,,,,,,,,,,,
,,4,1.3558,4,1.3558,0,39,39,43,1,11,refrigerator,tree,,89194,001,2022-04-27_10h55.16.440,SPAMnetsValid,2021.1.4,Win32,59.85873339,,,,,,,,,,,,,,,,,,,,,,,,,,,,,,,,,,,,,,,,,,,,,,,,,,,,,,,,,,,,,,,,,,,,,,,,,,,,,,,,,,,,,,,,,
,,2,1.2545,2,1.2545,0,40,40,42,1,77,refrigerator,yogurt,,89194,001,2022-04-27_10h55.16.440,SPAMnetsValid,2021.1.4,Win32,59.85873339,,,,,,,,,,,,,,,,,,,,,,,,,,,,,,,,,,,,,,,,,,,,,,,,,,,,,,,,,,,,,,,,,,,,,,,,,,,,,,,,,,,,,,,,,
,,6,1.5445,6,1.5445,0,41,41,59,1,8,broom,melon,,89194,001,2022-04-27_10h55.16.440,SPAMnetsValid,2021.1.4,Win32,59.85873339,,,,,,,,,,,,,,,,,,,,,,,,,,,,,,,,,,,,,,,,,,,,,,,,,,,,,,,,,,,,,,,,,,,,,,,,,,,,,,,,,,,,,,,,,
,,3,1.4022,3,1.4022,0,42,42,24,1,17,carrot,melon,,89194,001,2022-04-27_10h55.16.440,SPAMnetsValid,2021.1.4,Win32,59.85873339,,,,,,,,,,,,,,,,,,,,,,,,,,,,,,,,,,,,,,,,,,,,,,,,,,,,,,,,,,,,,,,,,,,,,,,,,,,,,,,,,,,,,,,,,
,,6,1.4664,6,1.4664,0,43,43,73,1,50,carrot,rose,,89194,001,2022-04-27_10h55.16.440,SPAMnetsValid,2021.1.4,Win32,59.85873339,,,,,,,,,,,,,,,,,,,,,,,,,,,,,,,,,,,,,,,,,,,,,,,,,,,,,,,,,,,,,,,,,,,,,,,,,,,,,,,,,,,,,,,,,
,,2,2.5352,2,2.5352,0,44,44,20,1,39,melon,pretzel,,89194,001,2022-04-27_10h55.16.440,SPAMnetsValid,2021.1.4,Win32,59.85873339,,,,,,,,,,,,,,,,,,,,,,,,,,,,,,,,,,,,,,,,,,,,,,,,,,,,,,,,,,,,,,,,,,,,,,,,,,,,,,,,,,,,,,,,,
,,4,2.5561,4,2.5561,0,45,45,67,1,54,chocolate,yogurt,,89194,001,2022-04-27_10h55.16.440,SPAMnetsValid,2021.1.4,Win32,59.85873339,,,,,,,,,,,,,,,,,,,,,,,,,,,,,,,,,,,,,,,,,,,,,,,,,,,,,,,,,,,,,,,,,,,,,,,,,,,,,,,,,,,,,,,,,
,,4,1.5475,4,1.5475,0,46,46,28,1,84,oven,tomato,,89194,001,2022-04-27_10h55.16.440,SPAMnetsValid,2021.1.4,Win32,59.85873339,,,,,,,,,,,,,,,,,,,,,,,,,,,,,,,,,,,,,,,,,,,,,,,,,,,,,,,,,,,,,,,,,,,,,,,,,,,,,,,,,,,,,,,,,
,,2,4.3495,2,4.3495,0,47,47,86,1,51,onion,strawberry,,89194,001,2022-04-27_10h55.16.440,SPAMnetsValid,2021.1.4,Win32,59.85873339,,,,,,,,,,,,,,,,,,,,,,,,,,,,,,,,,,,,,,,,,,,,,,,,,,,,,,,,,,,,,,,,,,,,,,,,,,,,,,,,,,,,,,,,,
,,3,2.0693,3,2.0693,0,48,48,85,1,90,cactus,cake,,89194,001,2022-04-27_10h55.16.440,SPAMnetsValid,2021.1.4,Win32,59.85873339,,,,,,,,,,,,,,,,,,,,,,,,,,,,,,,,,,,,,,,,,,,,,,,,,,,,,,,,,,,,,,,,,,,,,,,,,,,,,,,,,,,,,,,,,
,,5,2.558,5,2.558,0,49,49,57,1,62,kitchen,rose,,89194,001,2022-04-27_10h55.16.440,SPAMnetsValid,2021.1.4,Win32,59.85873339,,,,,,,,,,,,,,,,,,,,,,,,,,,,,,,,,,,,,,,,,,,,,,,,,,,,,,,,,,,,,,,,,,,,,,,,,,,,,,,,,,,,,,,,,
,,5,1.1413,5,1.1413,0,50,50,3,1,49,flower,strawberry,,89194,001,2022-04-27_10h55.16.440,SPAMnetsValid,2021.1.4,Win32,59.85873339,,,,,,,,,,,,,,,,,,,,,,,,,,,,,,,,,,,,,,,,,,,,,,,,,,,,,,,,,,,,,,,,,,,,,,,,,,,,,,,,,,,,,,,,,
,,4,2.3014,4,2.3014,0,51,51,22,1,16,chocolate,flower,,89194,001,2022-04-27_10h55.16.440,SPAMnetsValid,2021.1.4,Win32,59.85873339,,,,,,,,,,,,,,,,,,,,,,,,,,,,,,,,,,,,,,,,,,,,,,,,,,,,,,,,,,,,,,,,,,,,,,,,,,,,,,,,,,,,,,,,,
,,2,1.7664,2,1.7664,0,52,52,79,1,86,oven,rose,,89194,001,2022-04-27_10h55.16.440,SPAMnetsValid,2021.1.4,Win32,59.85873339,,,,,,,,,,,,,,,,,,,,,,,,,,,,,,,,,,,,,,,,,,,,,,,,,,,,,,,,,,,,,,,,,,,,,,,,,,,,,,,,,,,,,,,,,
,,8,2.8843,8,2.8843,0,53,53,64,1,9,kitchen,refrigerator,,89194,001,2022-04-27_10h55.16.440,SPAMnetsValid,2021.1.4,Win32,59.85873339,,,,,,,,,,,,,,,,,,,,,,,,,,,,,,,,,,,,,,,,,,,,,,,,,,,,,,,,,,,,,,,,,,,,,,,,,,,,,,,,,,,,,,,,,
,,6,4.0051,6,4.0051,0,54,54,11,1,37,garden,refrigerator,,89194,001,2022-04-27_10h55.16.440,SPAMnetsValid,2021.1.4,Win32,59.85873339,,,,,,,,,,,,,,,,,,,,,,,,,,,,,,,,,,,,,,,,,,,,,,,,,,,,,,,,,,,,,,,,,,,,,,,,,,,,,,,,,,,,,,,,,
,,4,2.6436,4,2.6436,0,55,55,7,1,34,melon,oven,,89194,001,2022-04-27_10h55.16.440,SPAMnetsValid,2021.1.4,Win32,59.85873339,,,,,,,,,,,,,,,,,,,,,,,,,,,,,,,,,,,,,,,,,,,,,,,,,,,,,,,,,,,,,,,,,,,,,,,,,,,,,,,,,,,,,,,,,
,,2,1.4542,2,1.4542,0,56,56,16,1,14,broom,cookie,,89194,001,2022-04-27_10h55.16.440,SPAMnetsValid,2021.1.4,Win32,59.85873339,,,,,,,,,,,,,,,,,,,,,,,,,,,,,,,,,,,,,,,,,,,,,,,,,,,,,,,,,,,,,,,,,,,,,,,,,,,,,,,,,,,,,,,,,
,,4,2.0555,4,2.0555,0,57,57,78,1,30,cookie,pretzel,,89194,001,2022-04-27_10h55.16.440,SPAMnetsValid,2021.1.4,Win32,59.85873339,,,,,,,,,,,,,,,,,,,,,,,,,,,,,,,,,,,,,,,,,,,,,,,,,,,,,,,,,,,,,,,,,,,,,,,,,,,,,,,,,,,,,,,,,
,,3,1.7241,3,1.7241,0,58,58,41,1,19,microwave,pretzel,,89194,001,2022-04-27_10h55.16.440,SPAMnetsValid,2021.1.4,Win32,59.85873339,,,,,,,,,,,,,,,,,,,,,,,,,,,,,,,,,,,,,,,,,,,,,,,,,,,,,,,,,,,,,,,,,,,,,,,,,,,,,,,,,,,,,,,,,
,,7,2.155,7,2.155,0,59,59,83,1,6,garden,onion,,89194,001,2022-04-27_10h55.16.440,SPAMnetsValid,2021.1.4,Win32,59.85873339,,,,,,,,,,,,,,,,,,,,,,,,,,,,,,,,,,,,,,,,,,,,,,,,,,,,,,,,,,,,,,,,,,,,,,,,,,,,,,,,,,,,,,,,,
,,3,2.353,3,2.353,0,60,60,37,1,58,garden,oven,,89194,001,2022-04-27_10h55.16.440,SPAMnetsValid,2021.1.4,Win32,59.85873339,,,,,,,,,,,,,,,,,,,,,,,,,,,,,,,,,,,,,,,,,,,,,,,,,,,,,,,,,,,,,,,,,,,,,,,,,,,,,,,,,,,,,,,,,
,,3,1.2815,3,1.2815,0,61,61,92,1,44,cookie,melon,,89194,001,2022-04-27_10h55.16.440,SPAMnetsValid,2021.1.4,Win32,59.85873339,,,,,,,,,,,,,,,,,,,,,,,,,,,,,,,,,,,,,,,,,,,,,,,,,,,,,,,,,,,,,,,,,,,,,,,,,,,,,,,,,,,,,,,,,
,,6,1.9951,6,1.9951,0,62,62,14,1,64,chocolate,garden,,89194,001,2022-04-27_10h55.16.440,SPAMnetsValid,2021.1.4,Win32,59.85873339,,,,,,,,,,,,,,,,,,,,,,,,,,,,,,,,,,,,,,,,,,,,,,,,,,,,,,,,,,,,,,,,,,,,,,,,,,,,,,,,,,,,,,,,,
,,3,1.423,3,1.423,0,63,63,53,1,192,microwave,microwave,CHECK,89194,001,2022-04-27_10h55.16.440,SPAMnetsValid,2021.1.4,Win32,59.85873339,,,,,,,,,,,,,,,,,,,,,,,,,,,,,,,,,,,,,,,,,,,,,,,,,,,,,,,,,,,,,,,,,,,,,,,,,,,,,,,,,,,,,,,,,
,,3,1.3314,3,1.3314,0,64,64,96,1,82,cake,kitchen,,89194,001,2022-04-27_10h55.16.440,SPAMnetsValid,2021.1.4,Win32,59.85873339,,,,,,,,,,,,,,,,,,,,,,,,,,,,,,,,,,,,,,,,,,,,,,,,,,,,,,,,,,,,,,,,,,,,,,,,,,,,,,,,,,,,,,,,,
,,4,1.3576,4,1.3576,0,65,65,12,1,67,flower,yogurt,,89194,001,2022-04-27_10h55.16.440,SPAMnetsValid,2021.1.4,Win32,59.85873339,,,,,,,,,,,,,,,,,,,,,,,,,,,,,,,,,,,,,,,,,,,,,,,,,,,,,,,,,,,,,,,,,,,,,,,,,,,,,,,,,,,,,,,,,
,,3,1.4578,3,1.4578,0,66,66,13,1,26,tomato,yogurt,,89194,001,2022-04-27_10h55.16.440,SPAMnetsValid,2021.1.4,Win32,59.85873339,,,,,,,,,,,,,,,,,,,,,,,,,,,,,,,,,,,,,,,,,,,,,,,,,,,,,,,,,,,,,,,,,,,,,,,,,,,,,,,,,,,,,,,,,
,,4,1.4493,4,1.4493,0,67,67,63,1,21,cake,onion,,89194,001,2022-04-27_10h55.16.440,SPAMnetsValid,2021.1.4,Win32,59.85873339,,,,,,,,,,,,,,,,,,,,,,,,,,,,,,,,,,,,,,,,,,,,,,,,,,,,,,,,,,,,,,,,,,,,,,,,,,,,,,,,,,,,,,,,,
,,3,1.3321,3,1.3321,0,68,68,34,1,29,chocolate,melon,,89194,001,2022-04-27_10h55.16.440,SPAMnetsValid,2021.1.4,Win32,59.85873339,,,,,,,,,,,,,,,,,,,,,,,,,,,,,,,,,,,,,,,,,,,,,,,,,,,,,,,,,,,,,,,,,,,,,,,,,,,,,,,,,,,,,,,,,
,,3,1.5051,3,1.5051,0,69,69,51,1,47,onion,tomato,,89194,001,2022-04-27_10h55.16.440,SPAMnetsValid,2021.1.4,Win32,59.85873339,,,,,,,,,,,,,,,,,,,,,,,,,,,,,,,,,,,,,,,,,,,,,,,,,,,,,,,,,,,,,,,,,,,,,,,,,,,,,,,,,,,,,,,,,
,,2,1.3404,2,1.3404,0,70,70,49,1,57,flower,kitchen,,89194,001,2022-04-27_10h55.16.440,SPAMnetsValid,2021.1.4,Win32,59.85873339,,,,,,,,,,,,,,,,,,,,,,,,,,,,,,,,,,,,,,,,,,,,,,,,,,,,,,,,,,,,,,,,,,,,,,,,,,,,,,,,,,,,,,,,,
,,3,1.2856,3,1.2856,0,71,71,55,1,1,rose,yogurt,,89194,001,2022-04-27_10h55.16.440,SPAMnetsValid,2021.1.4,Win32,59.85873339,,,,,,,,,,,,,,,,,,,,,,,,,,,,,,,,,,,,,,,,,,,,,,,,,,,,,,,,,,,,,,,,,,,,,,,,,,,,,,,,,,,,,,,,,
,,3,2.6048,3,2.6048,0,72,72,71,1,38,pretzel,refrigerator,,89194,001,2022-04-27_10h55.16.440,SPAMnetsValid,2021.1.4,Win32,59.85873339,,,,,,,,,,,,,,,,,,,,,,,,,,,,,,,,,,,,,,,,,,,,,,,,,,,,,,,,,,,,,,,,,,,,,,,,,,,,,,,,,,,,,,,,,
,,4,2.1198,4,2.1198,0,73,73,82,1,93,kitchen,oven,,89194,001,2022-04-27_10h55.16.440,SPAMnetsValid,2021.1.4,Win32,59.85873339,,,,,,,,,,,,,,,,,,,,,,,,,,,,,,,,,,,,,,,,,,,,,,,,,,,,,,,,,,,,,,,,,,,,,,,,,,,,,,,,,,,,,,,,,
,,3,1.2297,3,1.2297,0,74,74,90,1,95,broom,refrigerator,,89194,001,2022-04-27_10h55.16.440,SPAMnetsValid,2021.1.4,Win32,59.85873339,,,,,,,,,,,,,,,,,,,,,,,,,,,,,,,,,,,,,,,,,,,,,,,,,,,,,,,,,,,,,,,,,,,,,,,,,,,,,,,,,,,,,,,,,
,,4,1.3606,4,1.3606,0,75,75,95,1,52,carrot,tomato,,89194,001,2022-04-27_10h55.16.440,SPAMnetsValid,2021.1.4,Win32,59.85873339,,,,,,,,,,,,,,,,,,,,,,,,,,,,,,,,,,,,,,,,,,,,,,,,,,,,,,,,,,,,,,,,,,,,,,,,,,,,,,,,,,,,,,,,,
,,6,1.4219,6,1.4219,0,76,76,48,1,66,melon,yogurt,,89194,001,2022-04-27_10h55.16.440,SPAMnetsValid,2021.1.4,Win32,59.85873339,,,,,,,,,,,,,,,,,,,,,,,,,,,,,,,,,,,,,,,,,,,,,,,,,,,,,,,,,,,,,,,,,,,,,,,,,,,,,,,,,,,,,,,,,
,,3,1.1686,3,1.1686,0,77,77,2,1,22,kitchen,strawberry,,89194,001,2022-04-27_10h55.16.440,SPAMnetsValid,2021.1.4,Win32,59.85873339,,,,,,,,,,,,,,,,,,,,,,,,,,,,,,,,,,,,,,,,,,,,,,,,,,,,,,,,,,,,,,,,,,,,,,,,,,,,,,,,,,,,,,,,,
,,3,1.5394,3,1.5394,0,78,78,69,1,45,onion,pretzel,,89194,001,2022-04-27_10h55.16.440,SPAMnetsValid,2021.1.4,Win32,59.85873339,,,,,,,,,,,,,,,,,,,,,,,,,,,,,,,,,,,,,,,,,,,,,,,,,,,,,,,,,,,,,,,,,,,,,,,,,,,,,,,,,,,,,,,,,
,,2,1.3968,2,1.3968,0,79,79,58,1,94,kitchen,microwave,,89194,001,2022-04-27_10h55.16.440,SPAMnetsValid,2021.1.4,Win32,59.85873339,,,,,,,,,,,,,,,,,,,,,,,,,,,,,,,,,,,,,,,,,,,,,,,,,,,,,,,,,,,,,,,,,,,,,,,,,,,,,,,,,,,,,,,,,
,,4,1.5435,4,1.5435,0,80,80,32,1,40,broom,cake,,89194,001,2022-04-27_10h55.16.440,SPAMnetsValid,2021.1.4,Win32,59.85873339,,,,,,,,,,,,,,,,,,,,,,,,,,,,,,,,,,,,,,,,,,,,,,,,,,,,,,,,,,,,,,,,,,,,,,,,,,,,,,,,,,,,,,,,,
,,4,1.3982,4,1.3982,0,81,81,30,1,3,cake,oven,,89194,001,2022-04-27_10h55.16.440,SPAMnetsValid,2021.1.4,Win32,59.85873339,,,,,,,,,,,,,,,,,,,,,,,,,,,,,,,,,,,,,,,,,,,,,,,,,,,,,,,,,,,,,,,,,,,,,,,,,,,,,,,,,,,,,,,,,
,,6,2.5407,6,2.5407,0,82,82,21,1,56,cactus,tree,,89194,001,2022-04-27_10h55.16.440,SPAMnetsValid,2021.1.4,Win32,59.85873339,,,,,,,,,,,,,,,,,,,,,,,,,,,,,,,,,,,,,,,,,,,,,,,,,,,,,,,,,,,,,,,,,,,,,,,,,,,,,,,,,,,,,,,,,
,,7,1.7725,7,1.7725,0,83,83,6,1,87,carrot,yogurt,,89194,001,2022-04-27_10h55.16.440,SPAMnetsValid,2021.1.4,Win32,59.85873339,,,,,,,,,,,,,,,,,,,,,,,,,,,,,,,,,,,,,,,,,,,,,,,,,,,,,,,,,,,,,,,,,,,,,,,,,,,,,,,,,,,,,,,,,
,,3,1.6553,3,1.6553,0,84,84,60,1,89,chocolate,rose,,89194,001,2022-04-27_10h55.16.440,SPAMnetsValid,2021.1.4,Win32,59.85873339,,,,,,,,,,,,,,,,,,,,,,,,,,,,,,,,,,,,,,,,,,,,,,,,,,,,,,,,,,,,,,,,,,,,,,,,,,,,,,,,,,,,,,,,,
,,2,2.5574,2,2.5574,0,85,85,31,1,33,oven,yogurt,,89194,001,2022-04-27_10h55.16.440,SPAMnetsValid,2021.1.4,Win32,59.85873339,,,,,,,,,,,,,,,,,,,,,,,,,,,,,,,,,,,,,,,,,,,,,,,,,,,,,,,,,,,,,,,,,,,,,,,,,,,,,,,,,,,,,,,,,
,,3,7.5018,3,7.5018,0,86,86,17,1,27,cactus,cookie,,89194,001,2022-04-27_10h55.16.440,SPAMnetsValid,2021.1.4,Win32,59.85873339,,,,,,,,,,,,,,,,,,,,,,,,,,,,,,,,,,,,,,,,,,,,,,,,,,,,,,,,,,,,,,,,,,,,,,,,,,,,,,,,,,,,,,,,,
,,7,1.7103,7,1.7103,0,87,87,52,1,4,chocolate,pretzel,,89194,001,2022-04-27_10h55.16.440,SPAMnetsValid,2021.1.4,Win32,59.85873339,,,,,,,,,,,,,,,,,,,,,,,,,,,,,,,,,,,,,,,,,,,,,,,,,,,,,,,,,,,,,,,,,,,,,,,,,,,,,,,,,,,,,,,,,
,,5,1.6531,5,1.6531,0,88,88,66,1,20,rose,tree,,89194,001,2022-04-27_10h55.16.440,SPAMnetsValid,2021.1.4,Win32,59.85873339,,,,,,,,,,,,,,,,,,,,,,,,,,,,,,,,,,,,,,,,,,,,,,,,,,,,,,,,,,,,,,,,,,,,,,,,,,,,,,,,,,,,,,,,,
,,3,1.5033,3,1.5033,0,89,89,15,1,48,flower,oven,,89194,001,2022-04-27_10h55.16.440,SPAMnetsValid,2021.1.4,Win32,59.85873339,,,,,,,,,,,,,,,,,,,,,,,,,,,,,,,,,,,,,,,,,,,,,,,,,,,,,,,,,,,,,,,,,,,,,,,,,,,,,,,,,,,,,,,,,
,,9,2.0729,9,2.0729,0,90,90,10,1,191,cake,cake,CHECK,89194,001,2022-04-27_10h55.16.440,SPAMnetsValid,2021.1.4,Win32,59.85873339,,,,,,,,,,,,,,,,,,,,,,,,,,,,,,,,,,,,,,,,,,,,,,,,,,,,,,,,,,,,,,,,,,,,,,,,,,,,,,,,,,,,,,,,,
,,3,2.9041,3,2.9041,0,91,91,45,1,10,flower,onion,,89194,001,2022-04-27_10h55.16.440,SPAMnetsValid,2021.1.4,Win32,59.85873339,,,,,,,,,,,,,,,,,,,,,,,,,,,,,,,,,,,,,,,,,,,,,,,,,,,,,,,,,,,,,,,,,,,,,,,,,,,,,,,,,,,,,,,,,
,,2,3.7449,2,3.7449,0,92,92,74,1,70,chocolate,onion,,89194,001,2022-04-27_10h55.16.440,SPAMnetsValid,2021.1.4,Win32,59.85873339,,,,,,,,,,,,,,,,,,,,,,,,,,,,,,,,,,,,,,,,,,,,,,,,,,,,,,,,,,,,,,,,,,,,,,,,,,,,,,,,,,,,,,,,,
,,3,1.3519,3,1.3519,0,93,93,72,1,59,rose,strawberry,,89194,001,2022-04-27_10h55.16.440,SPAMnetsValid,2021.1.4,Win32,59.85873339,,,,,,,,,,,,,,,,,,,,,,,,,,,,,,,,,,,,,,,,,,,,,,,,,,,,,,,,,,,,,,,,,,,,,,,,,,,,,,,,,,,,,,,,,
,,7,2.6182,7,2.6182,0,94,94,93,1,63,cake,cookie,,89194,001,2022-04-27_10h55.16.440,SPAMnetsValid,2021.1.4,Win32,59.85873339,,,,,,,,,,,,,,,,,,,,,,,,,,,,,,,,,,,,,,,,,,,,,,,,,,,,,,,,,,,,,,,,,,,,,,,,,,,,,,,,,,,,,,,,,
,,2,2.6055,2,2.6055,0,95,95,0,1,53,garden,pretzel,,89194,001,2022-04-27_10h55.16.440,SPAMnetsValid,2021.1.4,Win32,59.85873339,,,,,,,,,,,,,,,,,,,,,,,,,,,,,,,,,,,,,,,,,,,,,,,,,,,,,,,,,,,,,,,,,,,,,,,,,,,,,,,,,,,,,,,,,
,,3,1.9687,3,1.9687,0,96,96,54,1,28,cake,melon,,89194,001,2022-04-27_10h55.16.440,SPAMnetsValid,2021.1.4,Win32,59.85873339,,,,,,,,,,,,,,,,,,,,,,,,,,,,,,,,,,,,,,,,,,,,,,,,,,,,,,,,,,,,,,,,,,,,,,,,,,,,,,,,,,,,,,,,,
,,,,,,,,,,,,,,,89194,001,2022-04-27_10h55.16.440,SPAMnetsValid,2021.1.4,Win32,59.85873339,0,0,0,0,1,,,,,,,,,,,,,,,,,,,,,,,,,,,,,,,,,,,,,,,,,,,,,,,,,,,,,,,,,,,,,,,,,,,,,,,,,,,,,,,,,,,,
,,,,,,,,,,,,,,,89194,001,2022-04-27_10h55.16.440,SPAMnetsValid,2021.1.4,Win32,59.85873339,,,,,,0,0,0,0,1,1,0,,,,,,,,,,,,,,,,,,,,,,,,,,,,,,,,,,,,,,,,,,,,,,,,,,,,,,,,,,,,,,,,,,,,,,,,,,,,,
,,,,4,5.529,,,,,,106,cake,strawberry,,89194,001,2022-04-27_10h55.16.440,SPAMnetsValid,2021.1.4,Win32,59.85873339,,,,,,,,,,,,,4,5.529,0,0,0,0,1,,,,,,,,,,,,,,,,,,,,,,,,,,,,,,,,,,,,,,,,,,,,,,,,,,,,,,,,,,,,,,,,,,,,,,
,,,,3,1.1711,,,,,,109,broom,strawberry,,89194,001,2022-04-27_10h55.16.440,SPAMnetsValid,2021.1.4,Win32,59.85873339,,,,,,,,,,,,,3,1.1711,0,1,1,4,1,,,,,,,,,,,,,,,,,,,,,,,,,,,,,,,,,,,,,,,,,,,,,,,,,,,,,,,,,,,,,,,,,,,,,,
,,,,2,1.45,,,,,,112,cake,carrot,,89194,001,2022-04-27_10h55.16.440,SPAMnetsValid,2021.1.4,Win32,59.85873339,,,,,,,,,,,,,2,1.45,0,2,2,39,1,,,,,,,,,,,,,,,,,,,,,,,,,,,,,,,,,,,,,,,,,,,,,,,,,,,,,,,,,,,,,,,,,,,,,,
,,,,6,1.8904,,,,,,146,pretzel,tree,,89194,001,2022-04-27_10h55.16.440,SPAMnetsValid,2021.1.4,Win32,59.85873339,,,,,,,,,,,,,6,1.8904,0,3,3,80,1,,,,,,,,,,,,,,,,,,,,,,,,,,,,,,,,,,,,,,,,,,,,,,,,,,,,,,,,,,,,,,,,,,,,,,
,,,,7,1.7209,,,,,,175,melon,onion,,89194,001,2022-04-27_10h55.16.440,SPAMnetsValid,2021.1.4,Win32,59.85873339,,,,,,,,,,,,,7,1.7209,0,4,4,41,1,,,,,,,,,,,,,,,,,,,,,,,,,,,,,,,,,,,,,,,,,,,,,,,,,,,,,,,,,,,,,,,,,,,,,,
,,,,4,1.5522,,,,,,127,cactus,chocolate,,89194,001,2022-04-27_10h55.16.440,SPAMnetsValid,2021.1.4,Win32,59.85873339,,,,,,,,,,,,,4,1.5522,0,5,5,57,1,,,,,,,,,,,,,,,,,,,,,,,,,,,,,,,,,,,,,,,,,,,,,,,,,,,,,,,,,,,,,,,,,,,,,,
,,,,6,1.7355,,,,,,119,strawberry,tree,,89194,001,2022-04-27_10h55.16.440,SPAMnetsValid,2021.1.4,Win32,59.85873339,,,,,,,,,,,,,6,1.7355,0,6,6,18,1,,,,,,,,,,,,,,,,,,,,,,,,,,,,,,,,,,,,,,,,,,,,,,,,,,,,,,,,,,,,,,,,,,,,,,
,,,,3,1.4194,,,,,,114,cookie,strawberry,,89194,001,2022-04-27_10h55.16.440,SPAMnetsValid,2021.1.4,Win32,59.85873339,,,,,,,,,,,,,3,1.4194,0,7,7,87,1,,,,,,,,,,,,,,,,,,,,,,,,,,,,,,,,,,,,,,,,,,,,,,,,,,,,,,,,,,,,,,,,,,,,,,
,,,,8,1.8442,,,,,,122,flower,garden,,89194,001,2022-04-27_10h55.16.440,SPAMnetsValid,2021.1.4,Win32,59.85873339,,,,,,,,,,,,,8,1.8442,0,8,8,60,1,,,,,,,,,,,,,,,,,,,,,,,,,,,,,,,,,,,,,,,,,,,,,,,,,,,,,,,,,,,,,,,,,,,,,,
,,,,3,3.1863,,,,,,132,broom,tree,,89194,001,2022-04-27_10h55.16.440,SPAMnetsValid,2021.1.4,Win32,59.85873339,,,,,,,,,,,,,3,3.1863,0,9,9,78,1,,,,,,,,,,,,,,,,,,,,,,,,,,,,,,,,,,,,,,,,,,,,,,,,,,,,,,,,,,,,,,,,,,,,,,
,,,,7,1.5544,,,,,,134,carrot,flower,,89194,001,2022-04-27_10h55.16.440,SPAMnetsValid,2021.1.4,Win32,59.85873339,,,,,,,,,,,,,7,1.5544,0,10,10,93,1,,,,,,,,,,,,,,,,,,,,,,,,,,,,,,,,,,,,,,,,,,,,,,,,,,,,,,,,,,,,,,,,,,,,,,
,,,,7,0.8505,,,,,,130,microwave,yogurt,,89194,001,2022-04-27_10h55.16.440,SPAMnetsValid,2021.1.4,Win32,59.85873339,,,,,,,,,,,,,7,0.8505,0,11,11,84,1,,,,,,,,,,,,,,,,,,,,,,,,,,,,,,,,,,,,,,,,,,,,,,,,,,,,,,,,,,,,,,,,,,,,,,
,,,,5,1.5377,,,,,,133,cake,flower,,89194,001,2022-04-27_10h55.16.440,SPAMnetsValid,2021.1.4,Win32,59.85873339,,,,,,,,,,,,,5,1.5377,0,12,12,94,1,,,,,,,,,,,,,,,,,,,,,,,,,,,,,,,,,,,,,,,,,,,,,,,,,,,,,,,,,,,,,,,,,,,,,,
,,,,5,1.1857,,,,,,186,kitchen,yogurt,,89194,001,2022-04-27_10h55.16.440,SPAMnetsValid,2021.1.4,Win32,59.85873339,,,,,,,,,,,,,5,1.1857,0,13,13,48,1,,,,,,,,,,,,,,,,,,,,,,,,,,,,,,,,,,,,,,,,,,,,,,,,,,,,,,,,,,,,,,,,,,,,,,
,,,,3,1.4304,,,,,,131,cactus,garden,,89194,001,2022-04-27_10h55.16.440,SPAMnetsValid,2021.1.4,Win32,59.85873339,,,,,,,,,,,,,3,1.4304,0,14,14,33,1,,,,,,,,,,,,,,,,,,,,,,,,,,,,,,,,,,,,,,,,,,,,,,,,,,,,,,,,,,,,,,,,,,,,,,
,,,,9,1.4253,,,,,,194,cactus,cactus,CHECK,89194,001,2022-04-27_10h55.16.440,SPAMnetsValid,2021.1.4,Win32,59.85873339,,,,,,,,,,,,,9,1.4253,0,15,15,25,1,,,,,,,,,,,,,,,,,,,,,,,,,,,,,,,,,,,,,,,,,,,,,,,,,,,,,,,,,,,,,,,,,,,,,,
,,,,4,1.7118,,,,,,135,carrot,oven,,89194,001,2022-04-27_10h55.16.440,SPAMnetsValid,2021.1.4,Win32,59.85873339,,,,,,,,,,,,,4,1.7118,0,16,16,73,1,,,,,,,,,,,,,,,,,,,,,,,,,,,,,,,,,,,,,,,,,,,,,,,,,,,,,,,,,,,,,,,,,,,,,,
,,,,6,1.7736,,,,,,97,chocolate,kitchen,,89194,001,2022-04-27_10h55.16.440,SPAMnetsValid,2021.1.4,Win32,59.85873339,,,,,,,,,,,,,6,1.7736,0,17,17,8,1,,,,,,,,,,,,,,,,,,,,,,,,,,,,,,,,,,,,,,,,,,,,,,,,,,,,,,,,,,,,,,,,,,,,,,
,,,,6,1.6283,,,,,,182,flower,refrigerator,,89194,001,2022-04-27_10h55.16.440,SPAMnetsValid,2021.1.4,Win32,59.85873339,,,,,,,,,,,,,6,1.6283,0,18,18,32,1,,,,,,,,,,,,,,,,,,,,,,,,,,,,,,,,,,,,,,,,,,,,,,,,,,,,,,,,,,,,,,,,,,,,,,
,,,,1,1.5224,,,,,,128,melon,microwave,,89194,001,2022-04-27_10h55.16.440,SPAMnetsValid,2021.1.4,Win32,59.85873339,,,,,,,,,,,,,1,1.5224,0,19,19,74,1,,,,,,,,,,,,,,,,,,,,,,,,,,,,,,,,,,,,,,,,,,,,,,,,,,,,,,,,,,,,,,,,,,,,,,
,,,,7,1.5739,,,,,,173,kitchen,tomato,,89194,001,2022-04-27_10h55.16.440,SPAMnetsValid,2021.1.4,Win32,59.85873339,,,,,,,,,,,,,7,1.5739,0,20,20,1,1,,,,,,,,,,,,,,,,,,,,,,,,,,,,,,,,,,,,,,,,,,,,,,,,,,,,,,,,,,,,,,,,,,,,,,
,,,,4,1.5386,,,,,,108,carrot,chocolate,,89194,001,2022-04-27_10h55.16.440,SPAMnetsValid,2021.1.4,Win32,59.85873339,,,,,,,,,,,,,4,1.5386,0,21,21,5,1,,,,,,,,,,,,,,,,,,,,,,,,,,,,,,,,,,,,,,,,,,,,,,,,,,,,,,,,,,,,,,,,,,,,,,
,,,,3,1.2955,,,,,,153,carrot,pretzel,,89194,001,2022-04-27_10h55.16.440,SPAMnetsValid,2021.1.4,Win32,59.85873339,,,,,,,,,,,,,3,1.2955,0,22,22,34,1,,,,,,,,,,,,,,,,,,,,,,,,,,,,,,,,,,,,,,,,,,,,,,,,,,,,,,,,,,,,,,,,,,,,,,
,,,,2,2.1454,,,,,,164,cookie,garden,,89194,001,2022-04-27_10h55.16.440,SPAMnetsValid,2021.1.4,Win32,59.85873339,,,,,,,,,,,,,2,2.1454,0,23,23,59,1,,,,,,,,,,,,,,,,,,,,,,,,,,,,,,,,,,,,,,,,,,,,,,,,,,,,,,,,,,,,,,,,,,,,,,
,,,,4,1.5359,,,,,,166,cake,yogurt,,89194,001,2022-04-27_10h55.16.440,SPAMnetsValid,2021.1.4,Win32,59.85873339,,,,,,,,,,,,,4,1.5359,0,24,24,91,1,,,,,,,,,,,,,,,,,,,,,,,,,,,,,,,,,,,,,,,,,,,,,,,,,,,,,,,,,,,,,,,,,,,,,,
,,,,3,1.3689,,,,,,149,broom,tomato,,89194,001,2022-04-27_10h55.16.440,SPAMnetsValid,2021.1.4,Win32,59.85873339,,,,,,,,,,,,,3,1.3689,0,25,25,20,1,,,,,,,,,,,,,,,,,,,,,,,,,,,,,,,,,,,,,,,,,,,,,,,,,,,,,,,,,,,,,,,,,,,,,,
,,,,3,1.3365,,,,,,123,cookie,tree,,89194,001,2022-04-27_10h55.16.440,SPAMnetsValid,2021.1.4,Win32,59.85873339,,,,,,,,,,,,,3,1.3365,0,26,26,46,1,,,,,,,,,,,,,,,,,,,,,,,,,,,,,,,,,,,,,,,,,,,,,,,,,,,,,,,,,,,,,,,,,,,,,,
,,,,6,1.9247,,,,,,139,carrot,strawberry,,89194,001,2022-04-27_10h55.16.440,SPAMnetsValid,2021.1.4,Win32,59.85873339,,,,,,,,,,,,,6,1.9247,0,27,27,37,1,,,,,,,,,,,,,,,,,,,,,,,,,,,,,,,,,,,,,,,,,,,,,,,,,,,,,,,,,,,,,,,,,,,,,,
,,,,2,1.5244,,,,,,169,onion,yogurt,,89194,001,2022-04-27_10h55.16.440,SPAMnetsValid,2021.1.4,Win32,59.85873339,,,,,,,,,,,,,2,1.5244,0,28,28,24,1,,,,,,,,,,,,,,,,,,,,,,,,,,,,,,,,,,,,,,,,,,,,,,,,,,,,,,,,,,,,,,,,,,,,,,
,,,,6,3.5354,,,,,,158,cookie,oven,,89194,001,2022-04-27_10h55.16.440,SPAMnetsValid,2021.1.4,Win32,59.85873339,,,,,,,,,,,,,6,3.5354,0,29,29,27,1,,,,,,,,,,,,,,,,,,,,,,,,,,,,,,,,,,,,,,,,,,,,,,,,,,,,,,,,,,,,,,,,,,,,,,
,,,,3,5.4186,,,,,,126,kitchen,tree,,89194,001,2022-04-27_10h55.16.440,SPAMnetsValid,2021.1.4,Win32,59.85873339,,,,,,,,,,,,,3,5.4186,0,30,30,50,1,,,,,,,,,,,,,,,,,,,,,,,,,,,,,,,,,,,,,,,,,,,,,,,,,,,,,,,,,,,,,,,,,,,,,,
,,,,3,1.3833,,,,,,171,cake,tomato,,89194,001,2022-04-27_10h55.16.440,SPAMnetsValid,2021.1.4,Win32,59.85873339,,,,,,,,,,,,,3,1.3833,0,31,31,88,1,,,,,,,,,,,,,,,,,,,,,,,,,,,,,,,,,,,,,,,,,,,,,,,,,,,,,,,,,,,,,,,,,,,,,,
,,,,3,1.6529,,,,,,168,cactus,flower,,89194,001,2022-04-27_10h55.16.440,SPAMnetsValid,2021.1.4,Win32,59.85873339,,,,,,,,,,,,,3,1.6529,0,32,32,51,1,,,,,,,,,,,,,,,,,,,,,,,,,,,,,,,,,,,,,,,,,,,,,,,,,,,,,,,,,,,,,,,,,,,,,,
,,,,3,1.3193,,,,,,143,pretzel,rose,,89194,001,2022-04-27_10h55.16.440,SPAMnetsValid,2021.1.4,Win32,59.85873339,,,,,,,,,,,,,3,1.3193,0,33,33,55,1,,,,,,,,,,,,,,,,,,,,,,,,,,,,,,,,,,,,,,,,,,,,,,,,,,,,,,,,,,,,,,,,,,,,,,
,,,,4,1.3326,,,,,,157,refrigerator,rose,,89194,001,2022-04-27_10h55.16.440,SPAMnetsValid,2021.1.4,Win32,59.85873339,,,,,,,,,,,,,4,1.3326,0,34,34,64,1,,,,,,,,,,,,,,,,,,,,,,,,,,,,,,,,,,,,,,,,,,,,,,,,,,,,,,,,,,,,,,,,,,,,,,
,,,,6,1.7689,,,,,,178,cactus,carrot,,89194,001,2022-04-27_10h55.16.440,SPAMnetsValid,2021.1.4,Win32,59.85873339,,,,,,,,,,,,,6,1.7689,0,35,35,75,1,,,,,,,,,,,,,,,,,,,,,,,,,,,,,,,,,,,,,,,,,,,,,,,,,,,,,,,,,,,,,,,,,,,,,,
,,,,3,1.5824,,,,,,137,microwave,tree,,89194,001,2022-04-27_10h55.16.440,SPAMnetsValid,2021.1.4,Win32,59.85873339,,,,,,,,,,,,,3,1.5824,0,36,36,63,1,,,,,,,,,,,,,,,,,,,,,,,,,,,,,,,,,,,,,,,,,,,,,,,,,,,,,,,,,,,,,,,,,,,,,,
,,,,7,2.4471,,,,,,107,rose,tomato,,89194,001,2022-04-27_10h55.16.440,SPAMnetsValid,2021.1.4,Win32,59.85873339,,,,,,,,,,,,,7,2.4471,0,37,37,26,1,,,,,,,,,,,,,,,,,,,,,,,,,,,,,,,,,,,,,,,,,,,,,,,,,,,,,,,,,,,,,,,,,,,,,,
,,,,2,1.2832,,,,,,96,oven,strawberry,,89194,001,2022-04-27_10h55.16.440,SPAMnetsValid,2021.1.4,Win32,59.85873339,,,,,,,,,,,,,2,1.2832,0,38,38,67,1,,,,,,,,,,,,,,,,,,,,,,,,,,,,,,,,,,,,,,,,,,,,,,,,,,,,,,,,,,,,,,,,,,,,,,
,,,,8,1.8778,,,,,,163,melon,refrigerator,,89194,001,2022-04-27_10h55.16.440,SPAMnetsValid,2021.1.4,Win32,59.85873339,,,,,,,,,,,,,8,1.8778,0,39,39,29,1,,,,,,,,,,,,,,,,,,,,,,,,,,,,,,,,,,,,,,,,,,,,,,,,,,,,,,,,,,,,,,,,,,,,,,
,,,,3,2.2164,,,,,,136,chocolate,microwave,,89194,001,2022-04-27_10h55.16.440,SPAMnetsValid,2021.1.4,Win32,59.85873339,,,,,,,,,,,,,3,2.2164,0,40,40,96,1,,,,,,,,,,,,,,,,,,,,,,,,,,,,,,,,,,,,,,,,,,,,,,,,,,,,,,,,,,,,,,,,,,,,,,
,,,,2,1.3825,,,,,,162,microwave,tomato,,89194,001,2022-04-27_10h55.16.440,SPAMnetsValid,2021.1.4,Win32,59.85873339,,,,,,,,,,,,,2,1.3825,0,41,41,12,1,,,,,,,,,,,,,,,,,,,,,,,,,,,,,,,,,,,,,,,,,,,,,,,,,,,,,,,,,,,,,,,,,,,,,,
,,,,3,1.9182,,,,,,187,cactus,microwave,,89194,001,2022-04-27_10h55.16.440,SPAMnetsValid,2021.1.4,Win32,59.85873339,,,,,,,,,,,,,3,1.9182,0,42,42,71,1,,,,,,,,,,,,,,,,,,,,,,,,,,,,,,,,,,,,,,,,,,,,,,,,,,,,,,,,,,,,,,,,,,,,,,
,,,,3,3.0736,,,,,,159,cookie,flower,,89194,001,2022-04-27_10h55.16.440,SPAMnetsValid,2021.1.4,Win32,59.85873339,,,,,,,,,,,,,3,3.0736,0,43,43,21,1,,,,,,,,,,,,,,,,,,,,,,,,,,,,,,,,,,,,,,,,,,,,,,,,,,,,,,,,,,,,,,,,,,,,,,
,,,,8,1.6933,,,,,,110,chocolate,cookie,,89194,001,2022-04-27_10h55.16.440,SPAMnetsValid,2021.1.4,Win32,59.85873339,,,,,,,,,,,,,8,1.6933,0,44,44,52,1,,,,,,,,,,,,,,,,,,,,,,,,,,,,,,,,,,,,,,,,,,,,,,,,,,,,,,,,,,,,,,,,,,,,,,
,,,,8,2.0394,,,,,,124,oven,refrigerator,,89194,001,2022-04-27_10h55.16.440,SPAMnetsValid,2021.1.4,Win32,59.85873339,,,,,,,,,,,,,8,2.0394,0,45,45,69,1,,,,,,,,,,,,,,,,,,,,,,,,,,,,,,,,,,,,,,,,,,,,,,,,,,,,,,,,,,,,,,,,,,,,,,
,,,,6,1.6245,,,,,,141,melon,tomato,,89194,001,2022-04-27_10h55.16.440,SPAMnetsValid,2021.1.4,Win32,59.85873339,,,,,,,,,,,,,6,1.6245,0,46,46,70,1,,,,,,,,,,,,,,,,,,,,,,,,,,,,,,,,,,,,,,,,,,,,,,,,,,,,,,,,,,,,,,,,,,,,,,
,,,,1,1.5162,,,,,,156,melon,rose,,89194,001,2022-04-27_10h55.16.440,SPAMnetsValid,2021.1.4,Win32,59.85873339,,,,,,,,,,,,,1,1.5162,0,47,47,31,1,,,,,,,,,,,,,,,,,,,,,,,,,,,,,,,,,,,,,,,,,,,,,,,,,,,,,,,,,,,,,,,,,,,,,,
,,,,3,1.4351,,,,,,151,microwave,onion,,89194,001,2022-04-27_10h55.16.440,SPAMnetsValid,2021.1.4,Win32,59.85873339,,,,,,,,,,,,,3,1.4351,0,48,48,6,1,,,,,,,,,,,,,,,,,,,,,,,,,,,,,,,,,,,,,,,,,,,,,,,,,,,,,,,,,,,,,,,,,,,,,,
,,,,8,4.3164,,,,,,170,cookie,microwave,,89194,001,2022-04-27_10h55.16.440,SPAMnetsValid,2021.1.4,Win32,59.85873339,,,,,,,,,,,,,8,4.3164,0,49,49,92,1,,,,,,,,,,,,,,,,,,,,,,,,,,,,,,,,,,,,,,,,,,,,,,,,,,,,,,,,,,,,,,,,,,,,,,
,,,,2,1.7016,,,,,,152,cactus,strawberry,,89194,001,2022-04-27_10h55.16.440,SPAMnetsValid,2021.1.4,Win32,59.85873339,,,,,,,,,,,,,2,1.7016,0,50,50,49,1,,,,,,,,,,,,,,,,,,,,,,,,,,,,,,,,,,,,,,,,,,,,,,,,,,,,,,,,,,,,,,,,,,,,,,
,,,,7,2.0496,,,,,,181,carrot,kitchen,,89194,001,2022-04-27_10h55.16.440,SPAMnetsValid,2021.1.4,Win32,59.85873339,,,,,,,,,,,,,7,2.0496,0,51,51,72,1,,,,,,,,,,,,,,,,,,,,,,,,,,,,,,,,,,,,,,,,,,,,,,,,,,,,,,,,,,,,,,,,,,,,,,
,,,,8,1.5516,,,,,,150,microwave,refrigerator,,89194,001,2022-04-27_10h55.16.440,SPAMnetsValid,2021.1.4,Win32,59.85873339,,,,,,,,,,,,,8,1.5516,0,52,52,66,1,,,,,,,,,,,,,,,,,,,,,,,,,,,,,,,,,,,,,,,,,,,,,,,,,,,,,,,,,,,,,,,,,,,,,,
,,,,6,1.5276,,,,,,174,cake,pretzel,,89194,001,2022-04-27_10h55.16.440,SPAMnetsValid,2021.1.4,Win32,59.85873339,,,,,,,,,,,,,6,1.5276,0,53,53,2,1,,,,,,,,,,,,,,,,,,,,,,,,,,,,,,,,,,,,,,,,,,,,,,,,,,,,,,,,,,,,,,,,,,,,,,
,,,,3,1.7182,,,,,,105,cactus,oven,,89194,001,2022-04-27_10h55.16.440,SPAMnetsValid,2021.1.4,Win32,59.85873339,,,,,,,,,,,,,3,1.7182,0,54,54,13,1,,,,,,,,,,,,,,,,,,,,,,,,,,,,,,,,,,,,,,,,,,,,,,,,,,,,,,,,,,,,,,,,,,,,,,
,,,,2,1.649,,,,,,129,cactus,refrigerator,,89194,001,2022-04-27_10h55.16.440,SPAMnetsValid,2021.1.4,Win32,59.85873339,,,,,,,,,,,,,2,1.649,0,55,55,3,1,,,,,,,,,,,,,,,,,,,,,,,,,,,,,,,,,,,,,,,,,,,,,,,,,,,,,,,,,,,,,,,,,,,,,,
,,,,3,1.5993,,,,,,185,cactus,rose,,89194,001,2022-04-27_10h55.16.440,SPAMnetsValid,2021.1.4,Win32,59.85873339,,,,,,,,,,,,,3,1.5993,0,56,56,43,1,,,,,,,,,,,,,,,,,,,,,,,,,,,,,,,,,,,,,,,,,,,,,,,,,,,,,,,,,,,,,,,,,,,,,,
,,,,6,1.5503,,,,,,147,cake,refrigerator,,89194,001,2022-04-27_10h55.16.440,SPAMnetsValid,2021.1.4,Win32,59.85873339,,,,,,,,,,,,,6,1.5503,0,57,57,35,1,,,,,,,,,,,,,,,,,,,,,,,,,,,,,,,,,,,,,,,,,,,,,,,,,,,,,,,,,,,,,,,,,,,,,,
,,,,3,1.5166,,,,,,104,garden,microwave,,89194,001,2022-04-27_10h55.16.440,SPAMnetsValid,2021.1.4,Win32,59.85873339,,,,,,,,,,,,,3,1.5166,0,58,58,81,1,,,,,,,,,,,,,,,,,,,,,,,,,,,,,,,,,,,,,,,,,,,,,,,,,,,,,,,,,,,,,,,,,,,,,,
,,,,8,1.3716,,,,,,100,garden,tomato,,89194,001,2022-04-27_10h55.16.440,SPAMnetsValid,2021.1.4,Win32,59.85873339,,,,,,,,,,,,,8,1.3716,0,59,59,83,1,,,,,,,,,,,,,,,,,,,,,,,,,,,,,,,,,,,,,,,,,,,,,,,,,,,,,,,,,,,,,,,,,,,,,,
,,,,7,1.7684,,,,,,148,flower,melon,,89194,001,2022-04-27_10h55.16.440,SPAMnetsValid,2021.1.4,Win32,59.85873339,,,,,,,,,,,,,7,1.7684,0,60,60,23,1,,,,,,,,,,,,,,,,,,,,,,,,,,,,,,,,,,,,,,,,,,,,,,,,,,,,,,,,,,,,,,,,,,,,,,
,,,,8,2.089,,,,,,184,oven,pretzel,,89194,001,2022-04-27_10h55.16.440,SPAMnetsValid,2021.1.4,Win32,59.85873339,,,,,,,,,,,,,8,2.089,0,61,61,42,1,,,,,,,,,,,,,,,,,,,,,,,,,,,,,,,,,,,,,,,,,,,,,,,,,,,,,,,,,,,,,,,,,,,,,,
,,,,4,1.5872,,,,,,183,cake,rose,,89194,001,2022-04-27_10h55.16.440,SPAMnetsValid,2021.1.4,Win32,59.85873339,,,,,,,,,,,,,4,1.5872,0,62,62,19,1,,,,,,,,,,,,,,,,,,,,,,,,,,,,,,,,,,,,,,,,,,,,,,,,,,,,,,,,,,,,,,,,,,,,,,
,,,,4,1.3524,,,,,,111,carrot,microwave,,89194,001,2022-04-27_10h55.16.440,SPAMnetsValid,2021.1.4,Win32,59.85873339,,,,,,,,,,,,,4,1.3524,0,63,63,16,1,,,,,,,,,,,,,,,,,,,,,,,,,,,,,,,,,,,,,,,,,,,,,,,,,,,,,,,,,,,,,,,,,,,,,,
,,,,4,1.3606,,,,,,125,carrot,tree,,89194,001,2022-04-27_10h55.16.440,SPAMnetsValid,2021.1.4,Win32,59.85873339,,,,,,,,,,,,,4,1.3606,0,64,64,30,1,,,,,,,,,,,,,,,,,,,,,,,,,,,,,,,,,,,,,,,,,,,,,,,,,,,,,,,,,,,,,,,,,,,,,,
,,,,7,0.9,,,,,,165,onion,rose,,89194,001,2022-04-27_10h55.16.440,SPAMnetsValid,2021.1.4,Win32,59.85873339,,,,,,,,,,,,,7,0.9,0,65,65,40,1,,,,,,,,,,,,,,,,,,,,,,,,,,,,,,,,,,,,,,,,,,,,,,,,,,,,,,,,,,,,,,,,,,,,,,
,,,,3,1.4071,,,,,,155,carrot,cookie,,89194,001,2022-04-27_10h55.16.440,SPAMnetsValid,2021.1.4,Win32,59.85873339,,,,,,,,,,,,,3,1.4071,0,66,66,38,1,,,,,,,,,,,,,,,,,,,,,,,,,,,,,,,,,,,,,,,,,,,,,,,,,,,,,,,,,,,,,,,,,,,,,,
,,,,3,2.3865,,,,,,98,pretzel,strawberry,,89194,001,2022-04-27_10h55.16.440,SPAMnetsValid,2021.1.4,Win32,59.85873339,,,,,,,,,,,,,3,2.3865,0,67,67,82,1,,,,,,,,,,,,,,,,,,,,,,,,,,,,,,,,,,,,,,,,,,,,,,,,,,,,,,,,,,,,,,,,,,,,,,
,,,,4,0.9518,,,,,,154,strawberry,yogurt,,89194,001,2022-04-27_10h55.16.440,SPAMnetsValid,2021.1.4,Win32,59.85873339,,,,,,,,,,,,,4,0.9518,0,68,68,28,1,,,,,,,,,,,,,,,,,,,,,,,,,,,,,,,,,,,,,,,,,,,,,,,,,,,,,,,,,,,,,,,,,,,,,,
,,,,4,0.923,,,,,,161,kitchen,pretzel,,89194,001,2022-04-27_10h55.16.440,SPAMnetsValid,2021.1.4,Win32,59.85873339,,,,,,,,,,,,,4,0.923,0,69,69,36,1,,,,,,,,,,,,,,,,,,,,,,,,,,,,,,,,,,,,,,,,,,,,,,,,,,,,,,,,,,,,,,,,,,,,,,
,,,,4,0.7349,,,,,,188,flower,tree,,89194,001,2022-04-27_10h55.16.440,SPAMnetsValid,2021.1.4,Win32,59.85873339,,,,,,,,,,,,,4,0.7349,0,70,70,7,1,,,,,,,,,,,,,,,,,,,,,,,,,,,,,,,,,,,,,,,,,,,,,,,,,,,,,,,,,,,,,,,,,,,,,,
,,,,7,1.4472,,,,,,102,chocolate,refrigerator,,89194,001,2022-04-27_10h55.16.440,SPAMnetsValid,2021.1.4,Win32,59.85873339,,,,,,,,,,,,,7,1.4472,0,71,71,76,1,,,,,,,,,,,,,,,,,,,,,,,,,,,,,,,,,,,,,,,,,,,,,,,,,,,,,,,,,,,,,,,,,,,,,,
,,,,8,2.178,,,,,,177,chocolate,strawberry,,89194,001,2022-04-27_10h55.16.440,SPAMnetsValid,2021.1.4,Win32,59.85873339,,,,,,,,,,,,,8,2.178,0,72,72,53,1,,,,,,,,,,,,,,,,,,,,,,,,,,,,,,,,,,,,,,,,,,,,,,,,,,,,,,,,,,,,,,,,,,,,,,
,,,,8,1.3862,,,,,,142,garden,tree,,89194,001,2022-04-27_10h55.16.440,SPAMnetsValid,2021.1.4,Win32,59.85873339,,,,,,,,,,,,,8,1.3862,0,73,73,22,1,,,,,,,,,,,,,,,,,,,,,,,,,,,,,,,,,,,,,,,,,,,,,,,,,,,,,,,,,,,,,,,,,,,,,,
,,,,8,1.3665,,,,,,160,cookie,kitchen,,89194,001,2022-04-27_10h55.16.440,SPAMnetsValid,2021.1.4,Win32,59.85873339,,,,,,,,,,,,,8,1.3665,0,74,74,65,1,,,,,,,,,,,,,,,,,,,,,,,,,,,,,,,,,,,,,,,,,,,,,,,,,,,,,,,,,,,,,,,,,,,,,,
,,,,8,1.0168,,,,,,167,carrot,garden,,89194,001,2022-04-27_10h55.16.440,SPAMnetsValid,2021.1.4,Win32,59.85873339,,,,,,,,,,,,,8,1.0168,0,75,75,47,1,,,,,,,,,,,,,,,,,,,,,,,,,,,,,,,,,,,,,,,,,,,,,,,,,,,,,,,,,,,,,,,,,,,,,,
,,,,6,1.9183,,,,,,103,pretzel,tomato,,89194,001,2022-04-27_10h55.16.440,SPAMnetsValid,2021.1.4,Win32,59.85873339,,,,,,,,,,,,,6,1.9183,0,76,76,79,1,,,,,,,,,,,,,,,,,,,,,,,,,,,,,,,,,,,,,,,,,,,,,,,,,,,,,,,,,,,,,,,,,,,,,,
,,,,7,1.8033,,,,,,115,refrigerator,tomato,,89194,001,2022-04-27_10h55.16.440,SPAMnetsValid,2021.1.4,Win32,59.85873339,,,,,,,,,,,,,7,1.8033,0,77,77,85,1,,,,,,,,,,,,,,,,,,,,,,,,,,,,,,,,,,,,,,,,,,,,,,,,,,,,,,,,,,,,,,,,,,,,,,
,,,,6,1.4686,,,,,,172,kitchen,melon,,89194,001,2022-04-27_10h55.16.440,SPAMnetsValid,2021.1.4,Win32,59.85873339,,,,,,,,,,,,,6,1.4686,0,78,78,77,1,,,,,,,,,,,,,,,,,,,,,,,,,,,,,,,,,,,,,,,,,,,,,,,,,,,,,,,,,,,,,,,,,,,,,,
,,,,3,1.1329,,,,,,117,melon,strawberry,,89194,001,2022-04-27_10h55.16.440,SPAMnetsValid,2021.1.4,Win32,59.85873339,,,,,,,,,,,,,3,1.1329,0,79,79,11,1,,,,,,,,,,,,,,,,,,,,,,,,,,,,,,,,,,,,,,,,,,,,,,,,,,,,,,,,,,,,,,,,,,,,,,
,,,,7,1.4165,,,,,,113,refrigerator,strawberry,,89194,001,2022-04-27_10h55.16.440,SPAMnetsValid,2021.1.4,Win32,59.85873339,,,,,,,,,,,,,7,1.4165,0,80,80,56,1,,,,,,,,,,,,,,,,,,,,,,,,,,,,,,,,,,,,,,,,,,,,,,,,,,,,,,,,,,,,,,,,,,,,,,
,,,,3,1.4821,,,,,,121,broom,microwave,,89194,001,2022-04-27_10h55.16.440,SPAMnetsValid,2021.1.4,Win32,59.85873339,,,,,,,,,,,,,3,1.4821,0,81,81,95,1,,,,,,,,,,,,,,,,,,,,,,,,,,,,,,,,,,,,,,,,,,,,,,,,,,,,,,,,,,,,,,,,,,,,,,
,,,,6,1.1834,,,,,,176,cactus,tomato,,89194,001,2022-04-27_10h55.16.440,SPAMnetsValid,2021.1.4,Win32,59.85873339,,,,,,,,,,,,,6,1.1834,0,82,82,9,1,,,,,,,,,,,,,,,,,,,,,,,,,,,,,,,,,,,,,,,,,,,,,,,,,,,,,,,,,,,,,,,,,,,,,,
,,,,8,1.8842,,,,,,138,flower,rose,,89194,001,2022-04-27_10h55.16.440,SPAMnetsValid,2021.1.4,Win32,59.85873339,,,,,,,,,,,,,8,1.8842,0,83,83,61,1,,,,,,,,,,,,,,,,,,,,,,,,,,,,,,,,,,,,,,,,,,,,,,,,,,,,,,,,,,,,,,,,,,,,,,
,,,,3,1.5687,,,,,,180,tree,yogurt,,89194,001,2022-04-27_10h55.16.440,SPAMnetsValid,2021.1.4,Win32,59.85873339,,,,,,,,,,,,,3,1.5687,0,84,84,68,1,,,,,,,,,,,,,,,,,,,,,,,,,,,,,,,,,,,,,,,,,,,,,,,,,,,,,,,,,,,,,,,,,,,,,,
,,,,3,1.9186,,,,,,101,cactus,kitchen,,89194,001,2022-04-27_10h55.16.440,SPAMnetsValid,2021.1.4,Win32,59.85873339,,,,,,,,,,,,,3,1.9186,0,85,85,54,1,,,,,,,,,,,,,,,,,,,,,,,,,,,,,,,,,,,,,,,,,,,,,,,,,,,,,,,,,,,,,,,,,,,,,,
,,,,2,1.8172,,,,,,144,cake,garden,,89194,001,2022-04-27_10h55.16.440,SPAMnetsValid,2021.1.4,Win32,59.85873339,,,,,,,,,,,,,2,1.8172,0,86,86,58,1,,,,,,,,,,,,,,,,,,,,,,,,,,,,,,,,,,,,,,,,,,,,,,,,,,,,,,,,,,,,,,,,,,,,,,
,,,,3,1.1854,,,,,,145,cactus,yogurt,,89194,001,2022-04-27_10h55.16.440,SPAMnetsValid,2021.1.4,Win32,59.85873339,,,,,,,,,,,,,3,1.1854,0,87,87,15,1,,,,,,,,,,,,,,,,,,,,,,,,,,,,,,,,,,,,,,,,,,,,,,,,,,,,,,,,,,,,,,,,,,,,,,
,,,,3,1.0303,,,,,,189,onion,tree,,89194,001,2022-04-27_10h55.16.440,SPAMnetsValid,2021.1.4,Win32,59.85873339,,,,,,,,,,,,,3,1.0303,0,88,88,62,1,,,,,,,,,,,,,,,,,,,,,,,,,,,,,,,,,,,,,,,,,,,,,,,,,,,,,,,,,,,,,,,,,,,,,,
,,,,3,1.3022,,,,,,118,chocolate,oven,,89194,001,2022-04-27_10h55.16.440,SPAMnetsValid,2021.1.4,Win32,59.85873339,,,,,,,,,,,,,3,1.3022,0,89,89,10,1,,,,,,,,,,,,,,,,,,,,,,,,,,,,,,,,,,,,,,,,,,,,,,,,,,,,,,,,,,,,,,,,,,,,,,
,,,,7,1.5334,,,,,,140,cookie,refrigerator,,89194,001,2022-04-27_10h55.16.440,SPAMnetsValid,2021.1.4,Win32,59.85873339,,,,,,,,,,,,,7,1.5334,0,90,90,89,1,,,,,,,,,,,,,,,,,,,,,,,,,,,,,,,,,,,,,,,,,,,,,,,,,,,,,,,,,,,,,,,,,,,,,,
,,,,9,1.5614,,,,,,193,melon,melon,CHECK,89194,001,2022-04-27_10h55.16.440,SPAMnetsValid,2021.1.4,Win32,59.85873339,,,,,,,,,,,,,9,1.5614,0,91,91,86,1,,,,,,,,,,,,,,,,,,,,,,,,,,,,,,,,,,,,,,,,,,,,,,,,,,,,,,,,,,,,,,,,,,,,,,
,,,,8,1.9517,,,,,,116,cake,chocolate,,89194,001,2022-04-27_10h55.16.440,SPAMnetsValid,2021.1.4,Win32,59.85873339,,,,,,,,,,,,,8,1.9517,0,92,92,44,1,,,,,,,,,,,,,,,,,,,,,,,,,,,,,,,,,,,,,,,,,,,,,,,,,,,,,,,,,,,,,,,,,,,,,,
,,,,8,1.8165,,,,,,179,broom,oven,,89194,001,2022-04-27_10h55.16.440,SPAMnetsValid,2021.1.4,Win32,59.85873339,,,,,,,,,,,,,8,1.8165,0,93,93,45,1,,,,,,,,,,,,,,,,,,,,,,,,,,,,,,,,,,,,,,,,,,,,,,,,,,,,,,,,,,,,,,,,,,,,,,
,,,,4,1.4418,,,,,,190,microwave,strawberry,,89194,001,2022-04-27_10h55.16.440,SPAMnetsValid,2021.1.4,Win32,59.85873339,,,,,,,,,,,,,4,1.4418,0,94,94,90,1,,,,,,,,,,,,,,,,,,,,,,,,,,,,,,,,,,,,,,,,,,,,,,,,,,,,,,,,,,,,,,,,,,,,,,
,,,,4,2.4343,,,,,,99,garden,melon,,89194,001,2022-04-27_10h55.16.440,SPAMnetsValid,2021.1.4,Win32,59.85873339,,,,,,,,,,,,,4,2.4343,0,95,95,17,1,,,,,,,,,,,,,,,,,,,,,,,,,,,,,,,,,,,,,,,,,,,,,,,,,,,,,,,,,,,,,,,,,,,,,,
,,,,7,2.4555,,,,,,120,microwave,oven,,89194,001,2022-04-27_10h55.16.440,SPAMnetsValid,2021.1.4,Win32,59.85873339,,,,,,,,,,,,,7,2.4555,0,96,96,14,1,,,,,,,,,,,,,,,,,,,,,,,,,,,,,,,,,,,,,,,,,,,,,,,,,,,,,,,,,,,,,,,,,,,,,,
,,,,,,,,,,,,,,,89194,001,2022-04-27_10h55.16.440,SPAMnetsValid,2021.1.4,Win32,59.85873339,,,,,,,,,,,,,,,,,,,,0,0,0,0,1,,,,,,,,,,,,,,,,,,,,,,,,,,,,,,,,,,,,,,,,,,,,,,,,,,,,,,,,,,,,,,,,,
,,,,,,,,,,,,,,,89194,001,2022-04-27_10h55.16.440,SPAMnetsValid,2021.1.4,Win32,59.85873339,,,,,,0,1,1,1,1,0,1,,,,,,,,,,,,,,,,,,,,,,,,,,,,,,,,,,,,,,,,,,,,,,,,,,,,,,,,,,,,,,,,,,,,,,,,,,,,,
,,,,,,,,,,,,,,,89194,001,2022-04-27_10h55.16.440,SPAMnetsValid,2021.1.4,Win32,59.85873339,,,,,,,,,,,,,,,,,,,,,,,,,2,6.862,0,0,0,0,1,rancor,forbearance,ridicule,malice,bravery,3,,,,,,,,,,,,,,,,,,,,,,,,,,,,,,,,,,,,,,,,,,,,,,,,,,,,
,,,,,,,,,,,,,,,89194,001,2022-04-27_10h55.16.440,SPAMnetsValid,2021.1.4,Win32,59.85873339,,,,,,,,,,,,,,,,,,,,,,,,,4,4.0694,0,1,1,1,1,raucous,empty,quiet,smooth,harsh,4,,,,,,,,,,,,,,,,,,,,,,,,,,,,,,,,,,,,,,,,,,,,,,,,,,,,
,,,,,,,,,,,,,,,89194,001,2022-04-27_10h55.16.440,SPAMnetsValid,2021.1.4,Win32,59.85873339,,,,,,,,,,,,,,,,,,,,,,,,,4,6.28,0,2,2,2,1,gargoyle,oil,medicine,carved waterspout,ugly building,3,,,,,,,,,,,,,,,,,,,,,,,,,,,,,,,,,,,,,,,,,,,,,,,,,,,,
,,,,,,,,,,,,,,,89194,001,2022-04-27_10h55.16.440,SPAMnetsValid,2021.1.4,Win32,59.85873339,,,,,,,,,,,,,,,,,,,,,,,,,2,2.251,0,3,3,3,1,recrudesce,purify,renew activity,lack refinement,crush,2,,,,,,,,,,,,,,,,,,,,,,,,,,,,,,,,,,,,,,,,,,,,,,,,,,,,
,,,,,,,,,,,,,,,89194,001,2022-04-27_10h55.16.440,SPAMnetsValid,2021.1.4,Win32,59.85873339,,,,,,,,,,,,,,,,,,,,,,,,,2,0.8856,0,4,4,4,1,specious,"plausible, but not genuine",noteworthy,class or variety,roomy,1,,,,,,,,,,,,,,,,,,,,,,,,,,,,,,,,,,,,,,,,,,,,,,,,,,,,
,,,,,,,,,,,,,,,89194,001,2022-04-27_10h55.16.440,SPAMnetsValid,2021.1.4,Win32,59.85873339,,,,,,,,,,,,,,,,,,,,,,,,,3,1.3,0,5,5,5,1,bauble,bubble,showy plaything,idle talk,confusion,2,,,,,,,,,,,,,,,,,,,,,,,,,,,,,,,,,,,,,,,,,,,,,,,,,,,,
,,,,,,,,,,,,,,,89194,001,2022-04-27_10h55.16.440,SPAMnetsValid,2021.1.4,Win32,59.85873339,,,,,,,,,,,,,,,,,,,,,,,,,2,1.2043,0,6,6,6,1,prolific,scarce,producing abundantly,reckless,speaking profanely,2,,,,,,,,,,,,,,,,,,,,,,,,,,,,,,,,,,,,,,,,,,,,,,,,,,,,
,,,,,,,,,,,,,,,89194,001,2022-04-27_10h55.16.440,SPAMnetsValid,2021.1.4,Win32,59.85873339,,,,,,,,,,,,,,,,,,,,,,,,,2,1.5343,0,7,7,7,1,opulent,party,wealthy,happy frame of mind,semiprecious stone,2,,,,,,,,,,,,,,,,,,,,,,,,,,,,,,,,,,,,,,,,,,,,,,,,,,,,
,,,,,,,,,,,,,,,89194,001,2022-04-27_10h55.16.440,SPAMnetsValid,2021.1.4,Win32,59.85873339,,,,,,,,,,,,,,,,,,,,,,,,,1,3.8573,0,8,8,8,1,coercion,conspiracy,strategy,restraint,attraction,3,,,,,,,,,,,,,,,,,,,,,,,,,,,,,,,,,,,,,,,,,,,,,,,,,,,,
,,,,,,,,,,,,,,,89194,001,2022-04-27_10h55.16.440,SPAMnetsValid,2021.1.4,Win32,59.85873339,,,,,,,,,,,,,,,,,,,,,,,,,4,2.3855,0,9,9,9,1,hiatus,animal,calamity,dread,gap,4,,,,,,,,,,,,,,,,,,,,,,,,,,,,,,,,,,,,,,,,,,,,,,,,,,,,
,,,,,,,,,,,,,,,89194,001,2022-04-27_10h55.16.440,SPAMnetsValid,2021.1.4,Win32,59.85873339,,,,,,,,,,,,,,,,,,,,,,,,,1,2.7858,0,10,10,10,1,germane,microbe,contagious,relevant,different,3,,,,,,,,,,,,,,,,,,,,,,,,,,,,,,,,,,,,,,,,,,,,,,,,,,,,
,,,,,,,,,,,,,,,89194,001,2022-04-27_10h55.16.440,SPAMnetsValid,2021.1.4,Win32,59.85873339,,,,,,,,,,,,,,,,,,,,,,,,,3,2.7004,0,11,11,11,1,perfunctory,fundamental,formal,superficial,careful,3,,,,,,,,,,,,,,,,,,,,,,,,,,,,,,,,,,,,,,,,,,,,,,,,,,,,
,,,,,,,,,,,,,,,89194,001,2022-04-27_10h55.16.440,SPAMnetsValid,2021.1.4,Win32,59.85873339,,,,,,,,,,,,,,,,,,,,,,,,,3,2.3001,0,12,12,12,1,diverge,reveal,chant,distract the attention of,differ or turn off from,4,,,,,,,,,,,,,,,,,,,,,,,,,,,,,,,,,,,,,,,,,,,,,,,,,,,,
,,,,,,,,,,,,,,,89194,001,2022-04-27_10h55.16.440,SPAMnetsValid,2021.1.4,Win32,59.85873339,,,,,,,,,,,,,,,,,,,,,,,,,4,3.0507,0,13,13,13,1,evoke,take away,anger,connect,bring out,4,,,,,,,,,,,,,,,,,,,,,,,,,,,,,,,,,,,,,,,,,,,,,,,,,,,,
,,,,,,,,,,,,,,,89194,001,2022-04-27_10h55.16.440,SPAMnetsValid,2021.1.4,Win32,59.85873339,,,,,,,,,,,,,,,,,,,,,,,,,2,2.401,0,14,14,14,1,pertinent,relevant,lying next to,necessary,bold,1,,,,,,,,,,,,,,,,,,,,,,,,,,,,,,,,,,,,,,,,,,,,,,,,,,,,
,,,,,,,,,,,,,,,89194,001,2022-04-27_10h55.16.440,SPAMnetsValid,2021.1.4,Win32,59.85873339,,,,,,,,,,,,,,,,,,,,,,,,,2,8.3189,0,15,15,15,1,holocaust,entirety,destruction,saintly,price,2,,,,,,,,,,,,,,,,,,,,,,,,,,,,,,,,,,,,,,,,,,,,,,,,,,,,
,,,,,,,,,,,,,,,89194,001,2022-04-27_10h55.16.440,SPAMnetsValid,2021.1.4,Win32,59.85873339,,,,,,,,,,,,,,,,,,,,,,,,,,,0,16,16,16,1,piquant,mellow,fish,pungent,cloth,3,,,,,,,,,,,,,,,,,,,,,,,,,,,,,,,,,,,,,,,,,,,,,,,,,,,,
,,,,,,,,,,,,,,,89194,001,2022-04-27_10h55.16.440,SPAMnetsValid,2021.1.4,Win32,59.85873339,,,,,,,,,,,,,,,,,,,,,,,,,2,4.2352,0,17,17,17,1,firmament,foundation,heavens,strong,glue,2,,,,,,,,,,,,,,,,,,,,,,,,,,,,,,,,,,,,,,,,,,,,,,,,,,,,
,,,,,,,,,,,,,,,89194,001,2022-04-27_10h55.16.440,SPAMnetsValid,2021.1.4,Win32,59.85873339,,,,,,,,,,,,,,,,,,,,,,,,,,,,,,,,,,,,,,5,2.8088,0,0,0,0,1,marketable,partisan,jocular,marriageable,salable,essential,4,,,,,,,,,,,,,,,,,,,,,,,,,,,,,,,,,,,,,,
,,,,,,,,,,,,,,,89194,001,2022-04-27_10h55.16.440,SPAMnetsValid,2021.1.4,Win32,59.85873339,,,,,,,,,,,,,,,,,,,,,,,,,,,,,,,,,,,,,,4,3.3166,0,1,1,1,1,cottontail,squirrel,poplar,boa,marshy plant,rabbit,5,,,,,,,,,,,,,,,,,,,,,,,,,,,,,,,,,,,,,,
,,,,,,,,,,,,,,,89194,001,2022-04-27_10h55.16.440,SPAMnetsValid,2021.1.4,Win32,59.85873339,,,,,,,,,,,,,,,,,,,,,,,,,,,,,,,,,,,,,,3,1.871,0,2,2,2,1,boggy,afraid,false,marshy,dense,black,3,,,,,,,,,,,,,,,,,,,,,,,,,,,,,,,,,,,,,,
,,,,,,,,,,,,,,,89194,001,2022-04-27_10h55.16.440,SPAMnetsValid,2021.1.4,Win32,59.85873339,,,,,,,,,,,,,,,,,,,,,,,,,,,,,,,,,,,,,,5,5.2024,0,3,3,3,1,gruesomeness,blackness,falseness,vindictiveness,drunkenness,ghastliness,5,,,,,,,,,,,,,,,,,,,,,,,,,,,,,,,,,,,,,,
,,,,,,,,,,,,,,,89194,001,2022-04-27_10h55.16.440,SPAMnetsValid,2021.1.4,Win32,59.85873339,,,,,,,,,,,,,,,,,,,,,,,,,,,,,,,,,,,,,,2,2.4361,0,4,4,4,1,loathing,diffidence,laziness,abhorrence,cleverness,comfort,3,,,,,,,,,,,,,,,,,,,,,,,,,,,,,,,,,,,,,,
,,,,,,,,,,,,,,,89194,001,2022-04-27_10h55.16.440,SPAMnetsValid,2021.1.4,Win32,59.85873339,,,,,,,,,,,,,,,,,,,,,,,,,,,,,,,,,,,,,,2,3.2239,0,5,5,5,1,bantam,fowl,ridicule,cripple,vegetable,ensign,1,,,,,,,,,,,,,,,,,,,,,,,,,,,,,,,,,,,,,,
,,,,,,,,,,,,,,,89194,001,2022-04-27_10h55.16.440,SPAMnetsValid,2021.1.4,Win32,59.85873339,,,,,,,,,,,,,,,,,,,,,,,,,,,,,,,,,,,,,,2,1.5941,0,6,6,6,1,evoke,wake up,surrender,reconnoiter,transcend,call forth,5,,,,,,,,,,,,,,,,,,,,,,,,,,,,,,,,,,,,,,
,,,,,,,,,,,,,,,89194,001,2022-04-27_10h55.16.440,SPAMnetsValid,2021.1.4,Win32,59.85873339,,,,,,,,,,,,,,,,,,,,,,,,,,,,,,,,,,,,,,3,1.2838,0,7,7,7,1,unobtrusive,unintelligent,epileptic,illogical,lineal,modest,5,,,,,,,,,,,,,,,,,,,,,,,,,,,,,,,,,,,,,,
,,,,,,,,,,,,,,,89194,001,2022-04-27_10h55.16.440,SPAMnetsValid,2021.1.4,Win32,59.85873339,,,,,,,,,,,,,,,,,,,,,,,,,,,,,,,,,,,,,,3,1.2505,0,8,8,8,1,terrain,ice cream,final test,tractor,area of ground,weight,4,,,,,,,,,,,,,,,,,,,,,,,,,,,,,,,,,,,,,,
,,,,,,,,,,,,,,,89194,001,2022-04-27_10h55.16.440,SPAMnetsValid,2021.1.4,Win32,59.85873339,,,,,,,,,,,,,,,,,,,,,,,,,,,,,,,,,,,,,,3,1.6009,0,9,9,9,1,capriciousness,stubbornness,courage,whimsicality,amazement,greediness,3,,,,,,,,,,,,,,,,,,,,,,,,,,,,,,,,,,,,,,
,,,,,,,,,,,,,,,89194,001,2022-04-27_10h55.16.440,SPAMnetsValid,2021.1.4,Win32,59.85873339,,,,,,,,,,,,,,,,,,,,,,,,,,,,,,,,,,,,,,1,2.6489,0,10,10,10,1,maelstrom,slander,whirlpool,enmity,armor,majolica,2,,,,,,,,,,,,,,,,,,,,,,,,,,,,,,,,,,,,,,
,,,,,,,,,,,,,,,89194,001,2022-04-27_10h55.16.440,SPAMnetsValid,2021.1.4,Win32,59.85873339,,,,,,,,,,,,,,,,,,,,,,,,,,,,,,,,,,,,,,3,6.5183,0,11,11,11,1,tentative,critical,conclusive,authentic,provisional,apprehensive,4,,,,,,,,,,,,,,,,,,,,,,,,,,,,,,,,,,,,,,
,,,,,,,,,,,,,,,89194,001,2022-04-27_10h55.16.440,SPAMnetsValid,2021.1.4,Win32,59.85873339,,,,,,,,,,,,,,,,,,,,,,,,,,,,,,,,,,,,,,3,3.7625,0,12,12,12,1,placate,rehabilitate,plagiarize,depredate,apprise,conciliate,5,,,,,,,,,,,,,,,,,,,,,,,,,,,,,,,,,,,,,,
,,,,,,,,,,,,,,,89194,001,2022-04-27_10h55.16.440,SPAMnetsValid,2021.1.4,Win32,59.85873339,,,,,,,,,,,,,,,,,,,,,,,,,,,,,,,,,,,,,,2,1.6262,0,13,13,13,1,surcease,enlightenment,cessation,inattention,censor,substitution,2,,,,,,,,,,,,,,,,,,,,,,,,,,,,,,,,,,,,,,
,,,,,,,,,,,,,,,89194,001,2022-04-27_10h55.16.440,SPAMnetsValid,2021.1.4,Win32,59.85873339,,,,,,,,,,,,,,,,,,,,,,,,,,,,,,,,,,,,,,3,1.7262,0,14,14,14,1,apathetic,wandering,impassive,hateful,prophetic,overflowing,2,,,,,,,,,,,,,,,,,,,,,,,,,,,,,,,,,,,,,,
,,,,,,,,,,,,,,,89194,001,2022-04-27_10h55.16.440,SPAMnetsValid,2021.1.4,Win32,59.85873339,,,,,,,,,,,,,,,,,,,,,,,,,,,,,,,,,,,,,,4,3.1488,0,15,15,15,1,paternoster,paternalism,patricide,malediction,benediction,prayer,5,,,,,,,,,,,,,,,,,,,,,,,,,,,,,,,,,,,,,,
,,,,,,,,,,,,,,,89194,001,2022-04-27_10h55.16.440,SPAMnetsValid,2021.1.4,Win32,59.85873339,,,,,,,,,,,,,,,,,,,,,,,,,,,,,,,,,,,,,,3,2.0618,0,16,16,16,1,opalescence,opulence,senescence,bankruptcy,iridescence,assiduity,4,,,,,,,,,,,,,,,,,,,,,,,,,,,,,,,,,,,,,,
,,,,,,,,,,,,,,,89194,001,2022-04-27_10h55.16.440,SPAMnetsValid,2021.1.4,Win32,59.85873339,,,,,,,,,,,,,,,,,,,,,,,,,,,,,,,,,,,,,,2,2.0291,0,17,17,17,1,lush,stupid,luxurious,hazy,putrid,languishing,2,,,,,,,,,,,,,,,,,,,,,,,,,,,,,,,,,,,,,,
,,,,,,,,,,,,,,,89194,001,2022-04-27_10h55.16.440,SPAMnetsValid,2021.1.4,Win32,59.85873339,,,,,,,,,,,,,,,,,,,,,,,,,,,,,,,,,,,,,,2,1.7668,0,18,18,18,1,curtailment,expenditure,abandonment,abridgment,improvement,forgery,3,,,,,,,,,,,,,,,,,,,,,,,,,,,,,,,,,,,,,,
,,,,,,,,,,,,,,,89194,001,2022-04-27_10h55.16.440,SPAMnetsValid,2021.1.4,Win32,59.85873339,,,,,,,,,,,,,,,,,,,,,,,,,,,,,,,,,,,,,,2,2.6668,0,19,19,19,1,perversity,adversity,perviousness,travesty,waywardness,gentility,4,,,,,,,,,,,,,,,,,,,,,,,,,,,,,,,,,,,,,,
,,,,,,,,,,,,,,,89194,001,2022-04-27_10h55.16.440,SPAMnetsValid,2021.1.4,Win32,59.85873339,,,,,,,,,,,,,,,,,,,,,,,,,,,,,,,,,,,,,,3,1.4156,0,20,20,20,1,calumnious,complimentary,analogous,slanderous,tempestuous,magnanimous,3,,,,,,,,,,,,,,,,,,,,,,,,,,,,,,,,,,,,,,
,,,,,,,,,,,,,,,89194,001,2022-04-27_10h55.16.440,SPAMnetsValid,2021.1.4,Win32,59.85873339,,,,,,,,,,,,,,,,,,,,,,,,,,,,,,,,,,,,,,3,1.0831,0,21,21,21,1,illiberality,bigotry,imbecility,illegibility,cautery,immaturity,1,,,,,,,,,,,,,,,,,,,,,,,,,,,,,,,,,,,,,,
,,,,,,,,,,,,,,,89194,001,2022-04-27_10h55.16.440,SPAMnetsValid,2021.1.4,Win32,59.85873339,,,,,,,,,,,,,,,,,,,,,,,,,,,,,,,,,,,,,,2,1.4162,0,22,22,22,1,clabber,rejoice,gossip,curdle,crow,hobble,3,,,,,,,,,,,,,,,,,,,,,,,,,,,,,,,,,,,,,,
,,,,,,,,,,,,,,,89194,001,2022-04-27_10h55.16.440,SPAMnetsValid,2021.1.4,Win32,59.85873339,,,,,,,,,,,,,,,,,,,,,,,,,,,,,,,,,,,,,,3,1.4354,0,23,23,23,1,sedulousness,diligence,credulousness,seduction,perilousness,frankness,1,,,,,,,,,,,,,,,,,,,,,,,,,,,,,,,,,,,,,,
,,,,,,,,,,,,,,,89194,001,2022-04-27_10h55.16.440,SPAMnetsValid,2021.1.4,Win32,59.85873339,,,,,,,,,,,,,,,,,,,,,,,,,,,,,,,,,,,,,,,,,,,,,,,,,,,,scent,candle,0,0,0,0,1,,,,,,,,,,,,,,,,,,,,,,,,,,,,,,,
,,,,,,,,,,,,,,,89194,001,2022-04-27_10h55.16.440,SPAMnetsValid,2021.1.4,Win32,59.85873339,,,,,,,,,,,,,,,,,,,,,,,,,,,,,,,,,,,,,,,,,,,,,,,,,,,,smoke\,candle,1,0,1,0,1,,,,,,,,,,,,,,,,,,,,,,,,,,,,,,,
,,,,,,,,,,,,,,,89194,001,2022-04-27_10h55.16.440,SPAMnetsValid,2021.1.4,Win32,59.85873339,,,,,,,,,,,,,,,,,,,,,,,,,,,,,,,,,,,,,,,,,,,,,,,,,,,,anchor,candle,2,0,2,0,1,,,,,,,,,,,,,,,,,,,,,,,,,,,,,,,
,,,,,,,,,,,,,,,89194,001,2022-04-27_10h55.16.440,SPAMnetsValid,2021.1.4,Win32,59.85873339,,,,,,,,,,,,,,,,,,,,,,,,,,,,,,,,,,,,,,,,,,,,,,,,,,,,wax,candle,3,0,3,0,1,,,,,,,,,,,,,,,,,,,,,,,,,,,,,,,
,,,,,,,,,,,,,,,89194,001,2022-04-27_10h55.16.440,SPAMnetsValid,2021.1.4,Win32,59.85873339,,,,,,,,,,,,,,,,,,,,,,,,,,,,,,,,,,,,,,,,,,,,,,,,,,,,hiding smell,candle,4,0,4,0,1,,,,,,,,,,,,,,,,,,,,,,,,,,,,,,,
,,,,,,,,,,,,,,,89194,001,2022-04-27_10h55.16.440,SPAMnetsValid,2021.1.4,Win32,59.85873339,,,,,,,,,,,,,,,,,,,,,,,,,,,,,,,,,,,,,,,,,,,,,,,,,,,,jack o lantern,candle,5,0,5,0,1,,,,,,,,,,,,,,,,,,,,,,,,,,,,,,,
,,,,,,,,,,,,,,,89194,001,2022-04-27_10h55.16.440,SPAMnetsValid,2021.1.4,Win32,59.85873339,,,,,,,,,,,,,,,,,,,,,,,,,,,,,,,,,,,,,,,,,,,,,,,,,,,,light,candle,6,0,6,0,1,,,,,,,,,,,,,,,,,,,,,,,,,,,,,,,
,,,,,,,,,,,,,,,89194,001,2022-04-27_10h55.16.440,SPAMnetsValid,2021.1.4,Win32,59.85873339,,,,,,,,,,,,,,,,,,,,,,,,,,,,,,,,,,,,,,,,,,,,,,,,,,,,nice to look at,candle,7,0,7,0,1,,,,,,,,,,,,,,,,,,,,,,,,,,,,,,,
,,,,,,,,,,,,,,,89194,001,2022-04-27_10h55.16.440,SPAMnetsValid,2021.1.4,Win32,59.85873339,,,,,,,,,,,,,,,,,,,,,,,,,,,,,,,,,,,,,,,,,,,,,,,,,,,,decoration,candle,8,0,8,0,1,,,,,,,,,,,,,,,,,,,,,,,,,,,,,,,
,,,,,,,,,,,,,,,89194,001,2022-04-27_10h55.16.440,SPAMnetsValid,2021.1.4,Win32,59.85873339,,,,,,,,,,,,,,,,,,,,,,,,,,,,,,,,,,,,,,,,,,,,,,,,,,,,ambience,candle,9,0,9,0,1,,,,,,,,,,,,,,,,,,,,,,,,,,,,,,,
,,,,,,,,,,,,,,,89194,001,2022-04-27_10h55.16.440,SPAMnetsValid,2021.1.4,Win32,59.85873339,,,,,,,,,,,,,,,,,,,,,,,,,,,,,,,,,,,,,,,,,,,,,,,,,,,,scent,candle,10,0,10,0,1,,,,,,,,,,,,,,,,,,,,,,,,,,,,,,,
,,,,,,,,,,,,,,,89194,001,2022-04-27_10h55.16.440,SPAMnetsValid,2021.1.4,Win32,59.85873339,,,,,,,,,,,,,,,,,,,,,,,,,,,,,,,,,,,,,,,,,,,,,,,,,,,,,,,,,,,0,0,0,1,1,candle,,,,,,,,,,,,,,,,,,,,,,,,,
,,,,,,,,,,,,,,,89194,001,2022-04-27_10h55.16.440,SPAMnetsValid,2021.1.4,Win32,59.85873339,,,,,,,,,,,,,,,,,,,,,,,,,,,,,,,,,,,,,,,,,,,,,,,,,,,,water,bucket,0,0,0,0,1,,,,,,,,,,,,,,,,,,,,,,,,,,,,,,,
,,,,,,,,,,,,,,,89194,001,2022-04-27_10h55.16.440,SPAMnetsValid,2021.1.4,Win32,59.85873339,,,,,,,,,,,,,,,,,,,,,,,,,,,,,,,,,,,,,,,,,,,,,,,,,,,,hat,bucket,1,0,1,0,1,,,,,,,,,,,,,,,,,,,,,,,,,,,,,,,
,,,,,,,,,,,,,,,89194,001,2022-04-27_10h55.16.440,SPAMnetsValid,2021.1.4,Win32,59.85873339,,,,,,,,,,,,,,,,,,,,,,,,,,,,,,,,,,,,,,,,,,,,,,,,,,,,wash feet,bucket,2,0,2,0,1,,,,,,,,,,,,,,,,,,,,,,,,,,,,,,,
,,,,,,,,,,,,,,,89194,001,2022-04-27_10h55.16.440,SPAMnetsValid,2021.1.4,Win32,59.85873339,,,,,,,,,,,,,,,,,,,,,,,,,,,,,,,,,,,,,,,,,,,,,,,,,,,,sand castle,bucket,3,0,3,0,1,,,,,,,,,,,,,,,,,,,,,,,,,,,,,,,
,,,,,,,,,,,,,,,89194,001,2022-04-27_10h55.16.440,SPAMnetsValid,2021.1.4,Win32,59.85873339,,,,,,,,,,,,,,,,,,,,,,,,,,,,,,,,,,,,,,,,,,,,,,,,,,,,move items,bucket,4,0,4,0,1,,,,,,,,,,,,,,,,,,,,,,,,,,,,,,,
,,,,,,,,,,,,,,,89194,001,2022-04-27_10h55.16.440,SPAMnetsValid,2021.1.4,Win32,59.85873339,,,,,,,,,,,,,,,,,,,,,,,,,,,,,,,,,,,,,,,,,,,,,,,,,,,,hold water,bucket,5,0,5,0,1,,,,,,,,,,,,,,,,,,,,,,,,,,,,,,,
,,,,,,,,,,,,,,,89194,001,2022-04-27_10h55.16.440,SPAMnetsValid,2021.1.4,Win32,59.85873339,,,,,,,,,,,,,,,,,,,,,,,,,,,,,,,,,,,,,,,,,,,,,,,,,,,,put out a fire,bucket,6,0,6,0,1,,,,,,,,,,,,,,,,,,,,,,,,,,,,,,,
,,,,,,,,,,,,,,,89194,001,2022-04-27_10h55.16.440,SPAMnetsValid,2021.1.4,Win32,59.85873339,,,,,,,,,,,,,,,,,,,,,,,,,,,,,,,,,,,,,,,,,,,,,,,,,,,,,,,,,,,0,1,1,0,1,bucket,,,,,,,,,,,,,,,,,,,,,,,,,
,,,,,,,,,,,,,,,89194,001,2022-04-27_10h55.16.440,SPAMnetsValid,2021.1.4,Win32,59.85873339,,,,,,,,,,,,,,,,,,,,,,,,,,,,,,,,,,,,,,,,,,,,,,,,,,,,fort,pillow,0,0,0,0,1,,,,,,,,,,,,,,,,,,,,,,,,,,,,,,,
,,,,,,,,,,,,,,,89194,001,2022-04-27_10h55.16.440,SPAMnetsValid,2021.1.4,Win32,59.85873339,,,,,,,,,,,,,,,,,,,,,,,,,,,,,,,,,,,,,,,,,,,,,,,,,,,,sleeping,pillow,1,0,1,0,1,,,,,,,,,,,,,,,,,,,,,,,,,,,,,,,
,,,,,,,,,,,,,,,89194,001,2022-04-27_10h55.16.440,SPAMnetsValid,2021.1.4,Win32,59.85873339,,,,,,,,,,,,,,,,,,,,,,,,,,,,,,,,,,,,,,,,,,,,,,,,,,,,pillow fight,pillow,2,0,2,0,1,,,,,,,,,,,,,,,,,,,,,,,,,,,,,,,
,,,,,,,,,,,,,,,89194,001,2022-04-27_10h55.16.440,SPAMnetsValid,2021.1.4,Win32,59.85873339,,,,,,,,,,,,,,,,,,,,,,,,,,,,,,,,,,,,,,,,,,,,,,,,,,,,head rest,pillow,3,0,3,0,1,,,,,,,,,,,,,,,,,,,,,,,,,,,,,,,
,,,,,,,,,,,,,,,89194,001,2022-04-27_10h55.16.440,SPAMnetsValid,2021.1.4,Win32,59.85873339,,,,,,,,,,,,,,,,,,,,,,,,,,,,,,,,,,,,,,,,,,,,,,,,,,,,seat cushion,pillow,4,0,4,0,1,,,,,,,,,,,,,,,,,,,,,,,,,,,,,,,
,,,,,,,,,,,,,,,89194,001,2022-04-27_10h55.16.440,SPAMnetsValid,2021.1.4,Win32,59.85873339,,,,,,,,,,,,,,,,,,,,,,,,,,,,,,,,,,,,,,,,,,,,,,,,,,,,,,,,,,,0,2,2,2,1,pillow,,,,,,,,,,,,,,,,,,,,,,,,,
,,,,,,,,,,,,,,,89194,001,2022-04-27_10h55.16.440,SPAMnetsValid,2021.1.4,Win32,59.85873339,,,,,,,,,,,,,,,,,,,,,,,,,,,,,,,,,,,,,,,,,,,,,,,,,,,,,,,,,,,,,,,,,,Animals,0,0,0,0,1,,,,,,,,,,,,,,,,,,
,,,,,,,,,,,,,,,89194,001,2022-04-27_10h55.16.440,SPAMnetsValid,2021.1.4,Win32,59.85873339,,,,,,,,,,,,,,,,,,,,,,,,,,,,,,,,,,,,,,,,,,,,,,,,,,,,,,,,,,,,,,,,,dog,Animals,1,0,1,0,1,,,,,,,,,,,,,,,,,,
,,,,,,,,,,,,,,,89194,001,2022-04-27_10h55.16.440,SPAMnetsValid,2021.1.4,Win32,59.85873339,,,,,,,,,,,,,,,,,,,,,,,,,,,,,,,,,,,,,,,,,,,,,,,,,,,,,,,,,,,,,,,,,cat,Animals,2,0,2,0,1,,,,,,,,,,,,,,,,,,
,,,,,,,,,,,,,,,89194,001,2022-04-27_10h55.16.440,SPAMnetsValid,2021.1.4,Win32,59.85873339,,,,,,,,,,,,,,,,,,,,,,,,,,,,,,,,,,,,,,,,,,,,,,,,,,,,,,,,,,,,,,,,,fish,Animals,3,0,3,0,1,,,,,,,,,,,,,,,,,,
,,,,,,,,,,,,,,,89194,001,2022-04-27_10h55.16.440,SPAMnetsValid,2021.1.4,Win32,59.85873339,,,,,,,,,,,,,,,,,,,,,,,,,,,,,,,,,,,,,,,,,,,,,,,,,,,,,,,,,,,,,,,,,lizard,Animals,4,0,4,0,1,,,,,,,,,,,,,,,,,,
,,,,,,,,,,,,,,,89194,001,2022-04-27_10h55.16.440,SPAMnetsValid,2021.1.4,Win32,59.85873339,,,,,,,,,,,,,,,,,,,,,,,,,,,,,,,,,,,,,,,,,,,,,,,,,,,,,,,,,,,,,,,,,bird,Animals,5,0,5,0,1,,,,,,,,,,,,,,,,,,
,,,,,,,,,,,,,,,89194,001,2022-04-27_10h55.16.440,SPAMnetsValid,2021.1.4,Win32,59.85873339,,,,,,,,,,,,,,,,,,,,,,,,,,,,,,,,,,,,,,,,,,,,,,,,,,,,,,,,,,,,,,,,,dolphin\,Animals,6,0,6,0,1,,,,,,,,,,,,,,,,,,
,,,,,,,,,,,,,,,89194,001,2022-04-27_10h55.16.440,SPAMnetsValid,2021.1.4,Win32,59.85873339,,,,,,,,,,,,,,,,,,,,,,,,,,,,,,,,,,,,,,,,,,,,,,,,,,,,,,,,,,,,,,,,,turtle,Animals,7,0,7,0,1,,,,,,,,,,,,,,,,,,
,,,,,,,,,,,,,,,89194,001,2022-04-27_10h55.16.440,SPAMnetsValid,2021.1.4,Win32,59.85873339,,,,,,,,,,,,,,,,,,,,,,,,,,,,,,,,,,,,,,,,,,,,,,,,,,,,,,,,,,,,,,,,,groundhog,Animals,8,0,8,0,1,,,,,,,,,,,,,,,,,,
,,,,,,,,,,,,,,,89194,001,2022-04-27_10h55.16.440,SPAMnetsValid,2021.1.4,Win32,59.85873339,,,,,,,,,,,,,,,,,,,,,,,,,,,,,,,,,,,,,,,,,,,,,,,,,,,,,,,,,,,,,,,,,deer,Animals,9,0,9,0,1,,,,,,,,,,,,,,,,,,
,,,,,,,,,,,,,,,89194,001,2022-04-27_10h55.16.440,SPAMnetsValid,2021.1.4,Win32,59.85873339,,,,,,,,,,,,,,,,,,,,,,,,,,,,,,,,,,,,,,,,,,,,,,,,,,,,,,,,,,,,,,,,,bear,Animals,10,0,10,0,1,,,,,,,,,,,,,,,,,,
,,,,,,,,,,,,,,,89194,001,2022-04-27_10h55.16.440,SPAMnetsValid,2021.1.4,Win32,59.85873339,,,,,,,,,,,,,,,,,,,,,,,,,,,,,,,,,,,,,,,,,,,,,,,,,,,,,,,,,,,,,,,,,squirrel,Animals,11,0,11,0,1,,,,,,,,,,,,,,,,,,
,,,,,,,,,,,,,,,89194,001,2022-04-27_10h55.16.440,SPAMnetsValid,2021.1.4,Win32,59.85873339,,,,,,,,,,,,,,,,,,,,,,,,,,,,,,,,,,,,,,,,,,,,,,,,,,,,,,,,,,,,,,,,,skunk,Animals,12,0,12,0,1,,,,,,,,,,,,,,,,,,
,,,,,,,,,,,,,,,89194,001,2022-04-27_10h55.16.440,SPAMnetsValid,2021.1.4,Win32,59.85873339,,,,,,,,,,,,,,,,,,,,,,,,,,,,,,,,,,,,,,,,,,,,,,,,,,,,,,,,,,,,,,,,,snake,Animals,13,0,13,0,1,,,,,,,,,,,,,,,,,,
,,,,,,,,,,,,,,,89194,001,2022-04-27_10h55.16.440,SPAMnetsValid,2021.1.4,Win32,59.85873339,,,,,,,,,,,,,,,,,,,,,,,,,,,,,,,,,,,,,,,,,,,,,,,,,,,,,,,,,,,,,,,,,shark,Animals,14,0,14,0,1,,,,,,,,,,,,,,,,,,
,,,,,,,,,,,,,,,89194,001,2022-04-27_10h55.16.440,SPAMnetsValid,2021.1.4,Win32,59.85873339,,,,,,,,,,,,,,,,,,,,,,,,,,,,,,,,,,,,,,,,,,,,,,,,,,,,,,,,,,,,,,,,,jellyfish,Animals,15,0,15,0,1,,,,,,,,,,,,,,,,,,
,,,,,,,,,,,,,,,89194,001,2022-04-27_10h55.16.440,SPAMnetsValid,2021.1.4,Win32,59.85873339,,,,,,,,,,,,,,,,,,,,,,,,,,,,,,,,,,,,,,,,,,,,,,,,,,,,,,,,,,,,,,,,,cheetah,Animals,16,0,16,0,1,,,,,,,,,,,,,,,,,,
,,,,,,,,,,,,,,,89194,001,2022-04-27_10h55.16.440,SPAMnetsValid,2021.1.4,Win32,59.85873339,,,,,,,,,,,,,,,,,,,,,,,,,,,,,,,,,,,,,,,,,,,,,,,,,,,,,,,,,,,,,,,,,giraffe,Animals,17,0,17,0,1,,,,,,,,,,,,,,,,,,
,,,,,,,,,,,,,,,89194,001,2022-04-27_10h55.16.440,SPAMnetsValid,2021.1.4,Win32,59.85873339,,,,,,,,,,,,,,,,,,,,,,,,,,,,,,,,,,,,,,,,,,,,,,,,,,,,,,,,,,,,,,,,,lion,Animals,18,0,18,0,1,,,,,,,,,,,,,,,,,,
,,,,,,,,,,,,,,,89194,001,2022-04-27_10h55.16.440,SPAMnetsValid,2021.1.4,Win32,59.85873339,,,,,,,,,,,,,,,,,,,,,,,,,,,,,,,,,,,,,,,,,,,,,,,,,,,,,,,,,,,,,,,,,hippo,Animals,19,0,19,0,1,,,,,,,,,,,,,,,,,,
,,,,,,,,,,,,,,,89194,001,2022-04-27_10h55.16.440,SPAMnetsValid,2021.1.4,Win32,59.85873339,,,,,,,,,,,,,,,,,,,,,,,,,,,,,,,,,,,,,,,,,,,,,,,,,,,,,,,,,,,,,,,,,penguin,Animals,20,0,20,0,1,,,,,,,,,,,,,,,,,,
,,,,,,,,,,,,,,,89194,001,2022-04-27_10h55.16.440,SPAMnetsValid,2021.1.4,Win32,59.85873339,,,,,,,,,,,,,,,,,,,,,,,,,,,,,,,,,,,,,,,,,,,,,,,,,,,,,,,,,,,,,,,,,fox,Animals,21,0,21,0,1,,,,,,,,,,,,,,,,,,
,,,,,,,,,,,,,,,89194,001,2022-04-27_10h55.16.440,SPAMnetsValid,2021.1.4,Win32,59.85873339,,,,,,,,,,,,,,,,,,,,,,,,,,,,,,,,,,,,,,,,,,,,,,,,,,,,,,,,,,,,,,,,,coyote,Animals,22,0,22,0,1,,,,,,,,,,,,,,,,,,
,,,,,,,,,,,,,,,89194,001,2022-04-27_10h55.16.440,SPAMnetsValid,2021.1.4,Win32,59.85873339,,,,,,,,,,,,,,,,,,,,,,,,,,,,,,,,,,,,,,,,,,,,,,,,,,,,,,,,,,,,,,,,,,,,,,,,0,0,0,0,1,Animals,,,,,,,,,,,,
,,,,,,,,,,,,,,,89194,001,2022-04-27_10h55.16.440,SPAMnetsValid,2021.1.4,Win32,59.85873339,,,,,,,,,,,,,,,,,,,,,,,,,,,,,,,,,,,,,,,,,,,,,,,,,,,,,,,,,,,,,,,,,,,,,,,,,,,,,,5,5.5104,0,0,0,0,1,"I enjoy concentrating on a fantasy or daydream and exploring all its possibilities, letting it grow and develop.",0,1,,
,,,,,,,,,,,,,,,89194,001,2022-04-27_10h55.16.440,SPAMnetsValid,2021.1.4,Win32,59.85873339,,,,,,,,,,,,,,,,,,,,,,,,,,,,,,,,,,,,,,,,,,,,,,,,,,,,,,,,,,,,,,,,,,,,,,,,,,,,,,4,2.8051,0,1,1,1,1,I think it's interesting to learn and develop new hobbies.,0,2,,
,,,,,,,,,,,,,,,89194,001,2022-04-27_10h55.16.440,SPAMnetsValid,2021.1.4,Win32,59.85873339,,,,,,,,,,,,,,,,,,,,,,,,,,,,,,,,,,,,,,,,,,,,,,,,,,,,,,,,,,,,,,,,,,,,,,,,,,,,,,5,2.1437,0,2,2,2,1,I am intrigued by the patterns I find in art and nature.,0,3,,
,,,,,,,,,,,,,,,89194,001,2022-04-27_10h55.16.440,SPAMnetsValid,2021.1.4,Win32,59.85873339,,,,,,,,,,,,,,,,,,,,,,,,,,,,,,,,,,,,,,,,,,,,,,,,,,,,,,,,,,,,,,,,,,,,,,,,,,,,,,3,3.9297,0,3,3,3,1,I believe letting students hear controversial speakers can only confuse and mislead them.,1,4,,
,,,,,,,,,,,,,,,89194,001,2022-04-27_10h55.16.440,SPAMnetsValid,2021.1.4,Win32,59.85873339,,,,,,,,,,,,,,,,,,,,,,,,,,,,,,,,,,,,,,,,,,,,,,,,,,,,,,,,,,,,,,,,,,,,,,,,,,,,,,4,2.386,0,4,4,4,1,Poetry has little or no effect on me.,1,5,,
,,,,,,,,,,,,,,,89194,001,2022-04-27_10h55.16.440,SPAMnetsValid,2021.1.4,Win32,59.85873339,,,,,,,,,,,,,,,,,,,,,,,,,,,,,,,,,,,,,,,,,,,,,,,,,,,,,,,,,,,,,,,,,,,,,,,,,,,,,,5,4.3521,0,5,5,5,1,I would have difficulty just letting my mind wander without control or guidance.,1,6,,
,,,,,,,,,,,,,,,89194,001,2022-04-27_10h55.16.440,SPAMnetsValid,2021.1.4,Win32,59.85873339,,,,,,,,,,,,,,,,,,,,,,,,,,,,,,,,,,,,,,,,,,,,,,,,,,,,,,,,,,,,,,,,,,,,,,,,,,,,,,5,2.3356,0,6,6,6,1,I seldom notice the moods or feelings that different environments produce.,1,7,,
,,,,,,,,,,,,,,,89194,001,2022-04-27_10h55.16.440,SPAMnetsValid,2021.1.4,Win32,59.85873339,,,,,,,,,,,,,,,,,,,,,,,,,,,,,,,,,,,,,,,,,,,,,,,,,,,,,,,,,,,,,,,,,,,,,,,,,,,,,,5,1.7168,0,7,7,7,1,I experience a wide range of emotions or feelings.,0,8,,
,,,,,,,,,,,,,,,89194,001,2022-04-27_10h55.16.440,SPAMnetsValid,2021.1.4,Win32,59.85873339,,,,,,,,,,,,,,,,,,,,,,,,,,,,,,,,,,,,,,,,,,,,,,,,,,,,,,,,,,,,,,,,,,,,,,,,,,,,,,4,4.6595,0,8,8,8,1,"Sometimes when I am reading poetry or looking at a work of art, I feel a chill or wave of excitement.",0,9,,
,,,,,,,,,,,,,,,89194,001,2022-04-27_10h55.16.440,SPAMnetsValid,2021.1.4,Win32,59.85873339,,,,,,,,,,,,,,,,,,,,,,,,,,,,,,,,,,,,,,,,,,,,,,,,,,,,,,,,,,,,,,,,,,,,,,,,,,,,,,1,4.3773,0,9,9,9,1,I have little interest in speculating on the nature of the universe or the human condition.,1,10,,
,,,,,,,,,,,,,,,89194,001,2022-04-27_10h55.16.440,SPAMnetsValid,2021.1.4,Win32,59.85873339,,,,,,,,,,,,,,,,,,,,,,,,,,,,,,,,,,,,,,,,,,,,,,,,,,,,,,,,,,,,,,,,,,,,,,,,,,,,,,1,2.096,0,10,10,10,1,I have a lot of intellectual curiosity.,0,11,,
,,,,,,,,,,,,,,,89194,001,2022-04-27_10h55.16.440,SPAMnetsValid,2021.1.4,Win32,59.85873339,,,,,,,,,,,,,,,,,,,,,,,,,,,,,,,,,,,,,,,,,,,,,,,,,,,,,,,,,,,,,,,,,,,,,,,,,,,,,,1,2.0027,0,11,11,11,1,I often enjoy playing with theories or abstract ideas.,0,12,,
,,,,,,,,,,,,,,,89194,001,2022-04-27_10h55.16.440,SPAMnetsValid,2021.1.4,Win32,59.85873339,,,,,,,,,,,,,,,,,,,,,,,,,,,,,,,,,,,,,,,,,,,,,,,,,,,,,,,,,,,,,,,,,,,,,,,,,,,,,,,,,,,,,,,,return,3.0259
