key_resp_3.keys,key_resp_3.rt,slider.response,slider.rt,rjt_rating,rjt_RT,trials_22.thisRepN,trials_22.thisTrialN,trials_22.thisN,trials_22.thisIndex,trials_22.ran,rjt_order,word1,word2,attention,participant,session,date,expName,psychopyVersion,OS,frameRate,trials_99.thisRepN,trials_99.thisTrialN,trials_99.thisN,trials_99.thisIndex,trials_99.ran,trials_5.thisRepN,trials_5.thisTrialN,trials_5.thisN,trials_5.thisIndex,trials_5.ran,repOne,repTwo,slider_2.response,slider_2.rt,trials_24.thisRepN,trials_24.thisTrialN,trials_24.thisN,trials_24.thisIndex,trials_24.ran,trials_4.thisRepN,trials_4.thisTrialN,trials_4.thisN,trials_4.thisIndex,trials_4.ran,slider_extend_2.response,slider_extend_2.rt,trials_6.thisRepN,trials_6.thisTrialN,trials_6.thisN,trials_6.thisIndex,trials_6.ran,vCue2,R1,R2,R3,R4,correct,sliderVocab.response,sliderVocab.rt,trials_7.thisRepN,trials_7.thisTrialN,trials_7.thisN,trials_7.thisIndex,trials_7.ran,VocabCue,VR1,VR2,VR3,VR4,VR5,VocabCorrect,AUT_resp,AUT_label,trials.thisRepN,trials.thisTrialN,trials.thisN,trials.thisIndex,trials.ran,trials_2.thisRepN,trials_2.thisTrialN,trials_2.thisN,trials_2.thisIndex,trials_2.ran,aut_prompt,VF_response,VF_tag,trials_16.thisRepN,trials_16.thisTrialN,trials_16.thisN,trials_16.thisIndex,trials_16.ran,trials_17.thisRepN,trials_17.thisTrialN,trials_17.thisN,trials_17.thisIndex,trials_17.ran,VFcond,open_slider.response,open_slider.rt,trials_3.thisRepN,trials_3.thisTrialN,trials_3.thisN,trials_3.thisIndex,trials_3.ran,OpenQ,Rev,OPEN_ORDER,key_resp_2.keys,key_resp_2.rt
return,16.672,6,6.548,6,6.548,0,0,0,67,1,54,chocolate,yogurt,,89198,001,2022-04-25_20h14.23.761,SPAMnetsValid,2021.1.4,MacIntel,62.5,,,,,,,,,,,,,,,,,,,,,,,,,,,,,,,,,,,,,,,,,,,,,,,,,,,,,,,,,,,,,,,,,,,,,,,,,,,,,,,,,,,,,,,,,
,,3,3.919,3,3.919,0,1,1,28,1,84,oven,tomato,,89198,001,2022-04-25_20h14.23.761,SPAMnetsValid,2021.1.4,MacIntel,62.5,,,,,,,,,,,,,,,,,,,,,,,,,,,,,,,,,,,,,,,,,,,,,,,,,,,,,,,,,,,,,,,,,,,,,,,,,,,,,,,,,,,,,,,,,
,,2,2.253,2,2.253,0,2,2,16,1,14,broom,cookie,,89198,001,2022-04-25_20h14.23.761,SPAMnetsValid,2021.1.4,MacIntel,62.5,,,,,,,,,,,,,,,,,,,,,,,,,,,,,,,,,,,,,,,,,,,,,,,,,,,,,,,,,,,,,,,,,,,,,,,,,,,,,,,,,,,,,,,,,
,,1,3.44,1,3.44,0,3,3,79,1,86,oven,rose,,89198,001,2022-04-25_20h14.23.761,SPAMnetsValid,2021.1.4,MacIntel,62.5,,,,,,,,,,,,,,,,,,,,,,,,,,,,,,,,,,,,,,,,,,,,,,,,,,,,,,,,,,,,,,,,,,,,,,,,,,,,,,,,,,,,,,,,,
,,5,3.854,5,3.854,0,4,4,8,1,43,chocolate,tomato,,89198,001,2022-04-25_20h14.23.761,SPAMnetsValid,2021.1.4,MacIntel,62.5,,,,,,,,,,,,,,,,,,,,,,,,,,,,,,,,,,,,,,,,,,,,,,,,,,,,,,,,,,,,,,,,,,,,,,,,,,,,,,,,,,,,,,,,,
,,5,5.118,5,5.118,0,5,5,34,1,29,chocolate,melon,,89198,001,2022-04-25_20h14.23.761,SPAMnetsValid,2021.1.4,MacIntel,62.5,,,,,,,,,,,,,,,,,,,,,,,,,,,,,,,,,,,,,,,,,,,,,,,,,,,,,,,,,,,,,,,,,,,,,,,,,,,,,,,,,,,,,,,,,
,,1,7.77,1,7.77,0,6,6,61,1,71,broom,rose,,89198,001,2022-04-25_20h14.23.761,SPAMnetsValid,2021.1.4,MacIntel,62.5,,,,,,,,,,,,,,,,,,,,,,,,,,,,,,,,,,,,,,,,,,,,,,,,,,,,,,,,,,,,,,,,,,,,,,,,,,,,,,,,,,,,,,,,,
,,6,4.087,6,4.087,0,7,7,72,1,59,rose,strawberry,,89198,001,2022-04-25_20h14.23.761,SPAMnetsValid,2021.1.4,MacIntel,62.5,,,,,,,,,,,,,,,,,,,,,,,,,,,,,,,,,,,,,,,,,,,,,,,,,,,,,,,,,,,,,,,,,,,,,,,,,,,,,,,,,,,,,,,,,
,,5,2.57,5,2.57,0,8,8,85,1,90,cactus,cake,,89198,001,2022-04-25_20h14.23.761,SPAMnetsValid,2021.1.4,MacIntel,62.5,,,,,,,,,,,,,,,,,,,,,,,,,,,,,,,,,,,,,,,,,,,,,,,,,,,,,,,,,,,,,,,,,,,,,,,,,,,,,,,,,,,,,,,,,
,,5,1.039,5,1.039,0,9,9,17,1,27,cactus,cookie,,89198,001,2022-04-25_20h14.23.761,SPAMnetsValid,2021.1.4,MacIntel,62.5,,,,,,,,,,,,,,,,,,,,,,,,,,,,,,,,,,,,,,,,,,,,,,,,,,,,,,,,,,,,,,,,,,,,,,,,,,,,,,,,,,,,,,,,,
,,3,4.701,3,4.701,0,10,10,37,1,58,garden,oven,,89198,001,2022-04-25_20h14.23.761,SPAMnetsValid,2021.1.4,MacIntel,62.5,,,,,,,,,,,,,,,,,,,,,,,,,,,,,,,,,,,,,,,,,,,,,,,,,,,,,,,,,,,,,,,,,,,,,,,,,,,,,,,,,,,,,,,,,
,,1,2.203,1,2.203,0,11,11,46,1,41,broom,cactus,,89198,001,2022-04-25_20h14.23.761,SPAMnetsValid,2021.1.4,MacIntel,62.5,,,,,,,,,,,,,,,,,,,,,,,,,,,,,,,,,,,,,,,,,,,,,,,,,,,,,,,,,,,,,,,,,,,,,,,,,,,,,,,,,,,,,,,,,
,,7,2.506,7,2.506,0,12,12,50,1,81,pretzel,yogurt,,89198,001,2022-04-25_20h14.23.761,SPAMnetsValid,2021.1.4,MacIntel,62.5,,,,,,,,,,,,,,,,,,,,,,,,,,,,,,,,,,,,,,,,,,,,,,,,,,,,,,,,,,,,,,,,,,,,,,,,,,,,,,,,,,,,,,,,,
,,2,2.072,2,2.072,0,13,13,59,1,8,broom,melon,,89198,001,2022-04-25_20h14.23.761,SPAMnetsValid,2021.1.4,MacIntel,62.5,,,,,,,,,,,,,,,,,,,,,,,,,,,,,,,,,,,,,,,,,,,,,,,,,,,,,,,,,,,,,,,,,,,,,,,,,,,,,,,,,,,,,,,,,
,,7,6.189,7,6.189,0,14,14,95,1,52,carrot,tomato,,89198,001,2022-04-25_20h14.23.761,SPAMnetsValid,2021.1.4,MacIntel,62.5,,,,,,,,,,,,,,,,,,,,,,,,,,,,,,,,,,,,,,,,,,,,,,,,,,,,,,,,,,,,,,,,,,,,,,,,,,,,,,,,,,,,,,,,,
,,5,2.081,5,2.081,0,15,15,6,1,87,carrot,yogurt,,89198,001,2022-04-25_20h14.23.761,SPAMnetsValid,2021.1.4,MacIntel,62.5,,,,,,,,,,,,,,,,,,,,,,,,,,,,,,,,,,,,,,,,,,,,,,,,,,,,,,,,,,,,,,,,,,,,,,,,,,,,,,,,,,,,,,,,,
,,6,3.17,6,3.17,0,16,16,75,1,69,carrot,refrigerator,,89198,001,2022-04-25_20h14.23.761,SPAMnetsValid,2021.1.4,MacIntel,62.5,,,,,,,,,,,,,,,,,,,,,,,,,,,,,,,,,,,,,,,,,,,,,,,,,,,,,,,,,,,,,,,,,,,,,,,,,,,,,,,,,,,,,,,,,
,,6,5.071,6,5.071,0,17,17,3,1,49,flower,strawberry,,89198,001,2022-04-25_20h14.23.761,SPAMnetsValid,2021.1.4,MacIntel,62.5,,,,,,,,,,,,,,,,,,,,,,,,,,,,,,,,,,,,,,,,,,,,,,,,,,,,,,,,,,,,,,,,,,,,,,,,,,,,,,,,,,,,,,,,,
,,2,5.804,2,5.804,0,18,18,35,1,55,tomato,tree,,89198,001,2022-04-25_20h14.23.761,SPAMnetsValid,2021.1.4,MacIntel,62.5,,,,,,,,,,,,,,,,,,,,,,,,,,,,,,,,,,,,,,,,,,,,,,,,,,,,,,,,,,,,,,,,,,,,,,,,,,,,,,,,,,,,,,,,,
,,5,3.556,5,3.556,0,19,19,69,1,45,onion,pretzel,,89198,001,2022-04-25_20h14.23.761,SPAMnetsValid,2021.1.4,MacIntel,62.5,,,,,,,,,,,,,,,,,,,,,,,,,,,,,,,,,,,,,,,,,,,,,,,,,,,,,,,,,,,,,,,,,,,,,,,,,,,,,,,,,,,,,,,,,
,,8,3.9,8,3.9,0,20,20,93,1,63,cake,cookie,,89198,001,2022-04-25_20h14.23.761,SPAMnetsValid,2021.1.4,MacIntel,62.5,,,,,,,,,,,,,,,,,,,,,,,,,,,,,,,,,,,,,,,,,,,,,,,,,,,,,,,,,,,,,,,,,,,,,,,,,,,,,,,,,,,,,,,,,
,,7,1.869,7,1.869,0,21,21,78,1,30,cookie,pretzel,,89198,001,2022-04-25_20h14.23.761,SPAMnetsValid,2021.1.4,MacIntel,62.5,,,,,,,,,,,,,,,,,,,,,,,,,,,,,,,,,,,,,,,,,,,,,,,,,,,,,,,,,,,,,,,,,,,,,,,,,,,,,,,,,,,,,,,,,
,,2,2.535,2,2.535,0,22,22,90,1,95,broom,refrigerator,,89198,001,2022-04-25_20h14.23.761,SPAMnetsValid,2021.1.4,MacIntel,62.5,,,,,,,,,,,,,,,,,,,,,,,,,,,,,,,,,,,,,,,,,,,,,,,,,,,,,,,,,,,,,,,,,,,,,,,,,,,,,,,,,,,,,,,,,
,,2,2.453,2,2.453,0,23,23,65,1,46,garden,yogurt,,89198,001,2022-04-25_20h14.23.761,SPAMnetsValid,2021.1.4,MacIntel,62.5,,,,,,,,,,,,,,,,,,,,,,,,,,,,,,,,,,,,,,,,,,,,,,,,,,,,,,,,,,,,,,,,,,,,,,,,,,,,,,,,,,,,,,,,,
,,6,4.233,6,4.233,0,24,24,51,1,47,onion,tomato,,89198,001,2022-04-25_20h14.23.761,SPAMnetsValid,2021.1.4,MacIntel,62.5,,,,,,,,,,,,,,,,,,,,,,,,,,,,,,,,,,,,,,,,,,,,,,,,,,,,,,,,,,,,,,,,,,,,,,,,,,,,,,,,,,,,,,,,,
,,5,2.99,5,2.99,0,25,25,20,1,39,melon,pretzel,,89198,001,2022-04-25_20h14.23.761,SPAMnetsValid,2021.1.4,MacIntel,62.5,,,,,,,,,,,,,,,,,,,,,,,,,,,,,,,,,,,,,,,,,,,,,,,,,,,,,,,,,,,,,,,,,,,,,,,,,,,,,,,,,,,,,,,,,
,,3,5.042,3,5.042,0,26,26,1,1,31,cactus,pretzel,,89198,001,2022-04-25_20h14.23.761,SPAMnetsValid,2021.1.4,MacIntel,62.5,,,,,,,,,,,,,,,,,,,,,,,,,,,,,,,,,,,,,,,,,,,,,,,,,,,,,,,,,,,,,,,,,,,,,,,,,,,,,,,,,,,,,,,,,
,,6,9.992,6,9.992,0,27,27,77,1,7,melon,tree,,89198,001,2022-04-25_20h14.23.761,SPAMnetsValid,2021.1.4,MacIntel,62.5,,,,,,,,,,,,,,,,,,,,,,,,,,,,,,,,,,,,,,,,,,,,,,,,,,,,,,,,,,,,,,,,,,,,,,,,,,,,,,,,,,,,,,,,,
,,5,2.221,5,2.221,0,28,28,68,1,24,cookie,tomato,,89198,001,2022-04-25_20h14.23.761,SPAMnetsValid,2021.1.4,MacIntel,62.5,,,,,,,,,,,,,,,,,,,,,,,,,,,,,,,,,,,,,,,,,,,,,,,,,,,,,,,,,,,,,,,,,,,,,,,,,,,,,,,,,,,,,,,,,
,,6,2.31,6,2.31,0,29,29,45,1,10,flower,onion,,89198,001,2022-04-25_20h14.23.761,SPAMnetsValid,2021.1.4,MacIntel,62.5,,,,,,,,,,,,,,,,,,,,,,,,,,,,,,,,,,,,,,,,,,,,,,,,,,,,,,,,,,,,,,,,,,,,,,,,,,,,,,,,,,,,,,,,,
,,7,2.81,7,2.81,0,30,30,82,1,93,kitchen,oven,,89198,001,2022-04-25_20h14.23.761,SPAMnetsValid,2021.1.4,MacIntel,62.5,,,,,,,,,,,,,,,,,,,,,,,,,,,,,,,,,,,,,,,,,,,,,,,,,,,,,,,,,,,,,,,,,,,,,,,,,,,,,,,,,,,,,,,,,
,,9,3.241,9,3.241,0,31,31,10,1,191,cake,cake,CHECK,89198,001,2022-04-25_20h14.23.761,SPAMnetsValid,2021.1.4,MacIntel,62.5,,,,,,,,,,,,,,,,,,,,,,,,,,,,,,,,,,,,,,,,,,,,,,,,,,,,,,,,,,,,,,,,,,,,,,,,,,,,,,,,,,,,,,,,,
,,7,2.353,7,2.353,0,32,32,52,1,4,chocolate,pretzel,,89198,001,2022-04-25_20h14.23.761,SPAMnetsValid,2021.1.4,MacIntel,62.5,,,,,,,,,,,,,,,,,,,,,,,,,,,,,,,,,,,,,,,,,,,,,,,,,,,,,,,,,,,,,,,,,,,,,,,,,,,,,,,,,,,,,,,,,
,,5,5.972,5,5.972,0,33,33,74,1,70,chocolate,onion,,89198,001,2022-04-25_20h14.23.761,SPAMnetsValid,2021.1.4,MacIntel,62.5,,,,,,,,,,,,,,,,,,,,,,,,,,,,,,,,,,,,,,,,,,,,,,,,,,,,,,,,,,,,,,,,,,,,,,,,,,,,,,,,,,,,,,,,,
,,5,1.464,5,1.464,0,34,34,54,1,28,cake,melon,,89198,001,2022-04-25_20h14.23.761,SPAMnetsValid,2021.1.4,MacIntel,62.5,,,,,,,,,,,,,,,,,,,,,,,,,,,,,,,,,,,,,,,,,,,,,,,,,,,,,,,,,,,,,,,,,,,,,,,,,,,,,,,,,,,,,,,,,
,,8,2.194,8,2.194,0,35,35,19,1,76,garden,rose,,89198,001,2022-04-25_20h14.23.761,SPAMnetsValid,2021.1.4,MacIntel,62.5,,,,,,,,,,,,,,,,,,,,,,,,,,,,,,,,,,,,,,,,,,,,,,,,,,,,,,,,,,,,,,,,,,,,,,,,,,,,,,,,,,,,,,,,,
,,2,2.473,2,2.473,0,36,36,40,1,74,broom,pretzel,,89198,001,2022-04-25_20h14.23.761,SPAMnetsValid,2021.1.4,MacIntel,62.5,,,,,,,,,,,,,,,,,,,,,,,,,,,,,,,,,,,,,,,,,,,,,,,,,,,,,,,,,,,,,,,,,,,,,,,,,,,,,,,,,,,,,,,,,
,,2,2.028,2,2.028,0,37,37,43,1,11,refrigerator,tree,,89198,001,2022-04-25_20h14.23.761,SPAMnetsValid,2021.1.4,MacIntel,62.5,,,,,,,,,,,,,,,,,,,,,,,,,,,,,,,,,,,,,,,,,,,,,,,,,,,,,,,,,,,,,,,,,,,,,,,,,,,,,,,,,,,,,,,,,
,,2,2.053,2,2.053,0,38,38,70,1,5,oven,tree,,89198,001,2022-04-25_20h14.23.761,SPAMnetsValid,2021.1.4,MacIntel,62.5,,,,,,,,,,,,,,,,,,,,,,,,,,,,,,,,,,,,,,,,,,,,,,,,,,,,,,,,,,,,,,,,,,,,,,,,,,,,,,,,,,,,,,,,,
,,3,3.869,3,3.869,0,39,39,7,1,34,melon,oven,,89198,001,2022-04-25_20h14.23.761,SPAMnetsValid,2021.1.4,MacIntel,62.5,,,,,,,,,,,,,,,,,,,,,,,,,,,,,,,,,,,,,,,,,,,,,,,,,,,,,,,,,,,,,,,,,,,,,,,,,,,,,,,,,,,,,,,,,
,,9,1.471,9,1.471,0,40,40,53,1,192,microwave,microwave,CHECK,89198,001,2022-04-25_20h14.23.761,SPAMnetsValid,2021.1.4,MacIntel,62.5,,,,,,,,,,,,,,,,,,,,,,,,,,,,,,,,,,,,,,,,,,,,,,,,,,,,,,,,,,,,,,,,,,,,,,,,,,,,,,,,,,,,,,,,,
,,3,2.956,3,2.956,0,41,41,33,1,32,cake,microwave,,89198,001,2022-04-25_20h14.23.761,SPAMnetsValid,2021.1.4,MacIntel,62.5,,,,,,,,,,,,,,,,,,,,,,,,,,,,,,,,,,,,,,,,,,,,,,,,,,,,,,,,,,,,,,,,,,,,,,,,,,,,,,,,,,,,,,,,,
,,6,2.674,6,2.674,0,42,42,86,1,51,onion,strawberry,,89198,001,2022-04-25_20h14.23.761,SPAMnetsValid,2021.1.4,MacIntel,62.5,,,,,,,,,,,,,,,,,,,,,,,,,,,,,,,,,,,,,,,,,,,,,,,,,,,,,,,,,,,,,,,,,,,,,,,,,,,,,,,,,,,,,,,,,
,,3,3.748,3,3.748,0,43,43,60,1,89,chocolate,rose,,89198,001,2022-04-25_20h14.23.761,SPAMnetsValid,2021.1.4,MacIntel,62.5,,,,,,,,,,,,,,,,,,,,,,,,,,,,,,,,,,,,,,,,,,,,,,,,,,,,,,,,,,,,,,,,,,,,,,,,,,,,,,,,,,,,,,,,,
,,8,4.841,8,4.841,0,44,44,64,1,9,kitchen,refrigerator,,89198,001,2022-04-25_20h14.23.761,SPAMnetsValid,2021.1.4,MacIntel,62.5,,,,,,,,,,,,,,,,,,,,,,,,,,,,,,,,,,,,,,,,,,,,,,,,,,,,,,,,,,,,,,,,,,,,,,,,,,,,,,,,,,,,,,,,,
,,5,3.087,5,3.087,0,45,45,9,1,75,cookie,onion,,89198,001,2022-04-25_20h14.23.761,SPAMnetsValid,2021.1.4,MacIntel,62.5,,,,,,,,,,,,,,,,,,,,,,,,,,,,,,,,,,,,,,,,,,,,,,,,,,,,,,,,,,,,,,,,,,,,,,,,,,,,,,,,,,,,,,,,,
,,2,1.738,2,1.738,0,46,46,15,1,48,flower,oven,,89198,001,2022-04-25_20h14.23.761,SPAMnetsValid,2021.1.4,MacIntel,62.5,,,,,,,,,,,,,,,,,,,,,,,,,,,,,,,,,,,,,,,,,,,,,,,,,,,,,,,,,,,,,,,,,,,,,,,,,,,,,,,,,,,,,,,,,
,,2,4.154,2,4.154,0,47,47,25,1,23,flower,microwave,,89198,001,2022-04-25_20h14.23.761,SPAMnetsValid,2021.1.4,MacIntel,62.5,,,,,,,,,,,,,,,,,,,,,,,,,,,,,,,,,,,,,,,,,,,,,,,,,,,,,,,,,,,,,,,,,,,,,,,,,,,,,,,,,,,,,,,,,
,,4,3.572,4,3.572,0,48,48,41,1,19,microwave,pretzel,,89198,001,2022-04-25_20h14.23.761,SPAMnetsValid,2021.1.4,MacIntel,62.5,,,,,,,,,,,,,,,,,,,,,,,,,,,,,,,,,,,,,,,,,,,,,,,,,,,,,,,,,,,,,,,,,,,,,,,,,,,,,,,,,,,,,,,,,
,,5,3.748,5,3.748,0,49,49,63,1,21,cake,onion,,89198,001,2022-04-25_20h14.23.761,SPAMnetsValid,2021.1.4,MacIntel,62.5,,,,,,,,,,,,,,,,,,,,,,,,,,,,,,,,,,,,,,,,,,,,,,,,,,,,,,,,,,,,,,,,,,,,,,,,,,,,,,,,,,,,,,,,,
,,6,2.303,6,2.303,0,50,50,62,1,18,onion,refrigerator,,89198,001,2022-04-25_20h14.23.761,SPAMnetsValid,2021.1.4,MacIntel,62.5,,,,,,,,,,,,,,,,,,,,,,,,,,,,,,,,,,,,,,,,,,,,,,,,,,,,,,,,,,,,,,,,,,,,,,,,,,,,,,,,,,,,,,,,,
,,6,4.934,6,4.934,0,51,51,92,1,44,cookie,melon,,89198,001,2022-04-25_20h14.23.761,SPAMnetsValid,2021.1.4,MacIntel,62.5,,,,,,,,,,,,,,,,,,,,,,,,,,,,,,,,,,,,,,,,,,,,,,,,,,,,,,,,,,,,,,,,,,,,,,,,,,,,,,,,,,,,,,,,,
,,2,2.437,2,2.437,0,52,52,55,1,1,rose,yogurt,,89198,001,2022-04-25_20h14.23.761,SPAMnetsValid,2021.1.4,MacIntel,62.5,,,,,,,,,,,,,,,,,,,,,,,,,,,,,,,,,,,,,,,,,,,,,,,,,,,,,,,,,,,,,,,,,,,,,,,,,,,,,,,,,,,,,,,,,
,,7,2.243,7,2.243,0,53,53,87,1,79,garden,strawberry,,89198,001,2022-04-25_20h14.23.761,SPAMnetsValid,2021.1.4,MacIntel,62.5,,,,,,,,,,,,,,,,,,,,,,,,,,,,,,,,,,,,,,,,,,,,,,,,,,,,,,,,,,,,,,,,,,,,,,,,,,,,,,,,,,,,,,,,,
,,5,1.96,5,1.96,0,54,54,13,1,26,tomato,yogurt,,89198,001,2022-04-25_20h14.23.761,SPAMnetsValid,2021.1.4,MacIntel,62.5,,,,,,,,,,,,,,,,,,,,,,,,,,,,,,,,,,,,,,,,,,,,,,,,,,,,,,,,,,,,,,,,,,,,,,,,,,,,,,,,,,,,,,,,,
,,1,2.005,1,2.005,0,55,55,88,1,92,broom,flower,,89198,001,2022-04-25_20h14.23.761,SPAMnetsValid,2021.1.4,MacIntel,62.5,,,,,,,,,,,,,,,,,,,,,,,,,,,,,,,,,,,,,,,,,,,,,,,,,,,,,,,,,,,,,,,,,,,,,,,,,,,,,,,,,,,,,,,,,
,,7,9.241,7,9.241,0,56,56,44,1,25,carrot,onion,,89198,001,2022-04-25_20h14.23.761,SPAMnetsValid,2021.1.4,MacIntel,62.5,,,,,,,,,,,,,,,,,,,,,,,,,,,,,,,,,,,,,,,,,,,,,,,,,,,,,,,,,,,,,,,,,,,,,,,,,,,,,,,,,,,,,,,,,
,,2,2.986,2,2.986,0,57,57,47,1,73,broom,chocolate,,89198,001,2022-04-25_20h14.23.761,SPAMnetsValid,2021.1.4,MacIntel,62.5,,,,,,,,,,,,,,,,,,,,,,,,,,,,,,,,,,,,,,,,,,,,,,,,,,,,,,,,,,,,,,,,,,,,,,,,,,,,,,,,,,,,,,,,,
,,8,3.736,8,3.736,0,58,58,48,1,66,melon,yogurt,,89198,001,2022-04-25_20h14.23.761,SPAMnetsValid,2021.1.4,MacIntel,62.5,,,,,,,,,,,,,,,,,,,,,,,,,,,,,,,,,,,,,,,,,,,,,,,,,,,,,,,,,,,,,,,,,,,,,,,,,,,,,,,,,,,,,,,,,
,,7,2.17,7,2.17,0,59,59,91,1,2,kitchen,onion,,89198,001,2022-04-25_20h14.23.761,SPAMnetsValid,2021.1.4,MacIntel,62.5,,,,,,,,,,,,,,,,,,,,,,,,,,,,,,,,,,,,,,,,,,,,,,,,,,,,,,,,,,,,,,,,,,,,,,,,,,,,,,,,,,,,,,,,,
,,7,2.044,7,2.044,0,60,60,96,1,82,cake,kitchen,,89198,001,2022-04-25_20h14.23.761,SPAMnetsValid,2021.1.4,MacIntel,62.5,,,,,,,,,,,,,,,,,,,,,,,,,,,,,,,,,,,,,,,,,,,,,,,,,,,,,,,,,,,,,,,,,,,,,,,,,,,,,,,,,,,,,,,,,
,,7,4.622,7,4.622,0,61,61,83,1,6,garden,onion,,89198,001,2022-04-25_20h14.23.761,SPAMnetsValid,2021.1.4,MacIntel,62.5,,,,,,,,,,,,,,,,,,,,,,,,,,,,,,,,,,,,,,,,,,,,,,,,,,,,,,,,,,,,,,,,,,,,,,,,,,,,,,,,,,,,,,,,,
,,8,2.754,8,2.754,0,62,62,66,1,20,rose,tree,,89198,001,2022-04-25_20h14.23.761,SPAMnetsValid,2021.1.4,MacIntel,62.5,,,,,,,,,,,,,,,,,,,,,,,,,,,,,,,,,,,,,,,,,,,,,,,,,,,,,,,,,,,,,,,,,,,,,,,,,,,,,,,,,,,,,,,,,
,,2,5.92,2,5.92,0,63,63,11,1,37,garden,refrigerator,,89198,001,2022-04-25_20h14.23.761,SPAMnetsValid,2021.1.4,MacIntel,62.5,,,,,,,,,,,,,,,,,,,,,,,,,,,,,,,,,,,,,,,,,,,,,,,,,,,,,,,,,,,,,,,,,,,,,,,,,,,,,,,,,,,,,,,,,
,,6,3.208,6,3.208,0,64,64,38,1,88,cactus,melon,,89198,001,2022-04-25_20h14.23.761,SPAMnetsValid,2021.1.4,MacIntel,62.5,,,,,,,,,,,,,,,,,,,,,,,,,,,,,,,,,,,,,,,,,,,,,,,,,,,,,,,,,,,,,,,,,,,,,,,,,,,,,,,,,,,,,,,,,
,,3,1.954,3,1.954,0,65,65,39,1,15,onion,oven,,89198,001,2022-04-25_20h14.23.761,SPAMnetsValid,2021.1.4,MacIntel,62.5,,,,,,,,,,,,,,,,,,,,,,,,,,,,,,,,,,,,,,,,,,,,,,,,,,,,,,,,,,,,,,,,,,,,,,,,,,,,,,,,,,,,,,,,,
,,4,2.923,4,2.923,0,66,66,49,1,57,flower,kitchen,,89198,001,2022-04-25_20h14.23.761,SPAMnetsValid,2021.1.4,MacIntel,62.5,,,,,,,,,,,,,,,,,,,,,,,,,,,,,,,,,,,,,,,,,,,,,,,,,,,,,,,,,,,,,,,,,,,,,,,,,,,,,,,,,,,,,,,,,
,,5,5.119,5,5.119,0,67,67,71,1,38,pretzel,refrigerator,,89198,001,2022-04-25_20h14.23.761,SPAMnetsValid,2021.1.4,MacIntel,62.5,,,,,,,,,,,,,,,,,,,,,,,,,,,,,,,,,,,,,,,,,,,,,,,,,,,,,,,,,,,,,,,,,,,,,,,,,,,,,,,,,,,,,,,,,
,,7,3.507,7,3.507,0,68,68,80,1,61,strawberry,tomato,,89198,001,2022-04-25_20h14.23.761,SPAMnetsValid,2021.1.4,MacIntel,62.5,,,,,,,,,,,,,,,,,,,,,,,,,,,,,,,,,,,,,,,,,,,,,,,,,,,,,,,,,,,,,,,,,,,,,,,,,,,,,,,,,,,,,,,,,
,,5,3.071,5,3.071,0,69,69,2,1,22,kitchen,strawberry,,89198,001,2022-04-25_20h14.23.761,SPAMnetsValid,2021.1.4,MacIntel,62.5,,,,,,,,,,,,,,,,,,,,,,,,,,,,,,,,,,,,,,,,,,,,,,,,,,,,,,,,,,,,,,,,,,,,,,,,,,,,,,,,,,,,,,,,,
,,8,1.644,8,1.644,0,70,70,58,1,94,kitchen,microwave,,89198,001,2022-04-25_20h14.23.761,SPAMnetsValid,2021.1.4,MacIntel,62.5,,,,,,,,,,,,,,,,,,,,,,,,,,,,,,,,,,,,,,,,,,,,,,,,,,,,,,,,,,,,,,,,,,,,,,,,,,,,,,,,,,,,,,,,,
,,2,1.904,2,1.904,0,71,71,5,1,13,broom,yogurt,,89198,001,2022-04-25_20h14.23.761,SPAMnetsValid,2021.1.4,MacIntel,62.5,,,,,,,,,,,,,,,,,,,,,,,,,,,,,,,,,,,,,,,,,,,,,,,,,,,,,,,,,,,,,,,,,,,,,,,,,,,,,,,,,,,,,,,,,
,,6,4.388,6,4.388,0,72,72,81,1,60,cactus,onion,,89198,001,2022-04-25_20h14.23.761,SPAMnetsValid,2021.1.4,MacIntel,62.5,,,,,,,,,,,,,,,,,,,,,,,,,,,,,,,,,,,,,,,,,,,,,,,,,,,,,,,,,,,,,,,,,,,,,,,,,,,,,,,,,,,,,,,,,
,,4,2.453,4,2.453,0,73,73,57,1,62,kitchen,rose,,89198,001,2022-04-25_20h14.23.761,SPAMnetsValid,2021.1.4,MacIntel,62.5,,,,,,,,,,,,,,,,,,,,,,,,,,,,,,,,,,,,,,,,,,,,,,,,,,,,,,,,,,,,,,,,,,,,,,,,,,,,,,,,,,,,,,,,,
,,6,1.954,6,1.954,0,74,74,73,1,50,carrot,rose,,89198,001,2022-04-25_20h14.23.761,SPAMnetsValid,2021.1.4,MacIntel,62.5,,,,,,,,,,,,,,,,,,,,,,,,,,,,,,,,,,,,,,,,,,,,,,,,,,,,,,,,,,,,,,,,,,,,,,,,,,,,,,,,,,,,,,,,,
,,6,6.471,6,6.471,0,75,75,36,1,12,cookie,yogurt,,89198,001,2022-04-25_20h14.23.761,SPAMnetsValid,2021.1.4,MacIntel,62.5,,,,,,,,,,,,,,,,,,,,,,,,,,,,,,,,,,,,,,,,,,,,,,,,,,,,,,,,,,,,,,,,,,,,,,,,,,,,,,,,,,,,,,,,,
,,7,2.585,7,2.585,0,76,76,30,1,3,cake,oven,,89198,001,2022-04-25_20h14.23.761,SPAMnetsValid,2021.1.4,MacIntel,62.5,,,,,,,,,,,,,,,,,,,,,,,,,,,,,,,,,,,,,,,,,,,,,,,,,,,,,,,,,,,,,,,,,,,,,,,,,,,,,,,,,,,,,,,,,
,,2,2.343,2,2.343,0,77,77,32,1,40,broom,cake,,89198,001,2022-04-25_20h14.23.761,SPAMnetsValid,2021.1.4,MacIntel,62.5,,,,,,,,,,,,,,,,,,,,,,,,,,,,,,,,,,,,,,,,,,,,,,,,,,,,,,,,,,,,,,,,,,,,,,,,,,,,,,,,,,,,,,,,,
,,1,3.708,1,3.708,0,78,78,4,1,83,broom,carrot,,89198,001,2022-04-25_20h14.23.761,SPAMnetsValid,2021.1.4,MacIntel,62.5,,,,,,,,,,,,,,,,,,,,,,,,,,,,,,,,,,,,,,,,,,,,,,,,,,,,,,,,,,,,,,,,,,,,,,,,,,,,,,,,,,,,,,,,,
,,2,3.812,2,3.812,0,79,79,89,1,80,chocolate,tree,,89198,001,2022-04-25_20h14.23.761,SPAMnetsValid,2021.1.4,MacIntel,62.5,,,,,,,,,,,,,,,,,,,,,,,,,,,,,,,,,,,,,,,,,,,,,,,,,,,,,,,,,,,,,,,,,,,,,,,,,,,,,,,,,,,,,,,,,
,,2,4.204,2,4.204,0,80,80,84,1,91,microwave,rose,,89198,001,2022-04-25_20h14.23.761,SPAMnetsValid,2021.1.4,MacIntel,62.5,,,,,,,,,,,,,,,,,,,,,,,,,,,,,,,,,,,,,,,,,,,,,,,,,,,,,,,,,,,,,,,,,,,,,,,,,,,,,,,,,,,,,,,,,
,,6,3.928,6,3.928,0,81,81,76,1,36,broom,kitchen,,89198,001,2022-04-25_20h14.23.761,SPAMnetsValid,2021.1.4,MacIntel,62.5,,,,,,,,,,,,,,,,,,,,,,,,,,,,,,,,,,,,,,,,,,,,,,,,,,,,,,,,,,,,,,,,,,,,,,,,,,,,,,,,,,,,,,,,,
,,4,3.024,4,3.024,0,82,82,0,1,53,garden,pretzel,,89198,001,2022-04-25_20h14.23.761,SPAMnetsValid,2021.1.4,MacIntel,62.5,,,,,,,,,,,,,,,,,,,,,,,,,,,,,,,,,,,,,,,,,,,,,,,,,,,,,,,,,,,,,,,,,,,,,,,,,,,,,,,,,,,,,,,,,
,,4,3.421,4,3.421,0,83,83,14,1,64,chocolate,garden,,89198,001,2022-04-25_20h14.23.761,SPAMnetsValid,2021.1.4,MacIntel,62.5,,,,,,,,,,,,,,,,,,,,,,,,,,,,,,,,,,,,,,,,,,,,,,,,,,,,,,,,,,,,,,,,,,,,,,,,,,,,,,,,,,,,,,,,,
,,5,2.045,5,2.045,0,84,84,23,1,65,broom,garden,,89198,001,2022-04-25_20h14.23.761,SPAMnetsValid,2021.1.4,MacIntel,62.5,,,,,,,,,,,,,,,,,,,,,,,,,,,,,,,,,,,,,,,,,,,,,,,,,,,,,,,,,,,,,,,,,,,,,,,,,,,,,,,,,,,,,,,,,
,,8,3.412,8,3.412,0,85,85,21,1,56,cactus,tree,,89198,001,2022-04-25_20h14.23.761,SPAMnetsValid,2021.1.4,MacIntel,62.5,,,,,,,,,,,,,,,,,,,,,,,,,,,,,,,,,,,,,,,,,,,,,,,,,,,,,,,,,,,,,,,,,,,,,,,,,,,,,,,,,,,,,,,,,
,,6,3.253,6,3.253,0,86,86,94,1,68,flower,tomato,,89198,001,2022-04-25_20h14.23.761,SPAMnetsValid,2021.1.4,MacIntel,62.5,,,,,,,,,,,,,,,,,,,,,,,,,,,,,,,,,,,,,,,,,,,,,,,,,,,,,,,,,,,,,,,,,,,,,,,,,,,,,,,,,,,,,,,,,
,,4,1.513,4,1.513,0,87,87,22,1,16,chocolate,flower,,89198,001,2022-04-25_20h14.23.761,SPAMnetsValid,2021.1.4,MacIntel,62.5,,,,,,,,,,,,,,,,,,,,,,,,,,,,,,,,,,,,,,,,,,,,,,,,,,,,,,,,,,,,,,,,,,,,,,,,,,,,,,,,,,,,,,,,,
,,3,3.289,3,3.289,0,88,88,26,1,35,flower,pretzel,,89198,001,2022-04-25_20h14.23.761,SPAMnetsValid,2021.1.4,MacIntel,62.5,,,,,,,,,,,,,,,,,,,,,,,,,,,,,,,,,,,,,,,,,,,,,,,,,,,,,,,,,,,,,,,,,,,,,,,,,,,,,,,,,,,,,,,,,
,,6,4.171,6,4.171,0,89,89,24,1,17,carrot,melon,,89198,001,2022-04-25_20h14.23.761,SPAMnetsValid,2021.1.4,MacIntel,62.5,,,,,,,,,,,,,,,,,,,,,,,,,,,,,,,,,,,,,,,,,,,,,,,,,,,,,,,,,,,,,,,,,,,,,,,,,,,,,,,,,,,,,,,,,
,,7,2.603,7,2.603,0,90,90,29,1,42,garden,kitchen,,89198,001,2022-04-25_20h14.23.761,SPAMnetsValid,2021.1.4,MacIntel,62.5,,,,,,,,,,,,,,,,,,,,,,,,,,,,,,,,,,,,,,,,,,,,,,,,,,,,,,,,,,,,,,,,,,,,,,,,,,,,,,,,,,,,,,,,,
,,3,2.375,3,2.375,0,91,91,18,1,85,cake,tree,,89198,001,2022-04-25_20h14.23.761,SPAMnetsValid,2021.1.4,MacIntel,62.5,,,,,,,,,,,,,,,,,,,,,,,,,,,,,,,,,,,,,,,,,,,,,,,,,,,,,,,,,,,,,,,,,,,,,,,,,,,,,,,,,,,,,,,,,
,,7,3.927,7,3.927,0,92,92,42,1,77,refrigerator,yogurt,,89198,001,2022-04-25_20h14.23.761,SPAMnetsValid,2021.1.4,MacIntel,62.5,,,,,,,,,,,,,,,,,,,,,,,,,,,,,,,,,,,,,,,,,,,,,,,,,,,,,,,,,,,,,,,,,,,,,,,,,,,,,,,,,,,,,,,,,
,,3,3.452,3,3.452,0,93,93,56,1,78,cookie,rose,,89198,001,2022-04-25_20h14.23.761,SPAMnetsValid,2021.1.4,MacIntel,62.5,,,,,,,,,,,,,,,,,,,,,,,,,,,,,,,,,,,,,,,,,,,,,,,,,,,,,,,,,,,,,,,,,,,,,,,,,,,,,,,,,,,,,,,,,
,,1,1.904,1,1.904,0,94,94,27,1,72,broom,onion,,89198,001,2022-04-25_20h14.23.761,SPAMnetsValid,2021.1.4,MacIntel,62.5,,,,,,,,,,,,,,,,,,,,,,,,,,,,,,,,,,,,,,,,,,,,,,,,,,,,,,,,,,,,,,,,,,,,,,,,,,,,,,,,,,,,,,,,,
,,2,5.739,2,5.739,0,95,95,31,1,33,oven,yogurt,,89198,001,2022-04-25_20h14.23.761,SPAMnetsValid,2021.1.4,MacIntel,62.5,,,,,,,,,,,,,,,,,,,,,,,,,,,,,,,,,,,,,,,,,,,,,,,,,,,,,,,,,,,,,,,,,,,,,,,,,,,,,,,,,,,,,,,,,
,,5,6.728,5,6.728,0,96,96,12,1,67,flower,yogurt,,89198,001,2022-04-25_20h14.23.761,SPAMnetsValid,2021.1.4,MacIntel,62.5,,,,,,,,,,,,,,,,,,,,,,,,,,,,,,,,,,,,,,,,,,,,,,,,,,,,,,,,,,,,,,,,,,,,,,,,,,,,,,,,,,,,,,,,,
,,,,,,,,,,,,,,,89198,001,2022-04-25_20h14.23.761,SPAMnetsValid,2021.1.4,MacIntel,62.5,0,0,0,0,1,,,,,,,,,,,,,,,,,,,,,,,,,,,,,,,,,,,,,,,,,,,,,,,,,,,,,,,,,,,,,,,,,,,,,,,,,,,,,,,,,,,,
,,,,,,,,,,,,,,,89198,001,2022-04-25_20h14.23.761,SPAMnetsValid,2021.1.4,MacIntel,62.5,,,,,,0,0,0,0,1,1,0,,,,,,,,,,,,,,,,,,,,,,,,,,,,,,,,,,,,,,,,,,,,,,,,,,,,,,,,,,,,,,,,,,,,,,,,,,,,,
,,,,3,4.118,,,,,,127,cactus,chocolate,,89198,001,2022-04-25_20h14.23.761,SPAMnetsValid,2021.1.4,MacIntel,62.5,,,,,,,,,,,,,3,4.118,0,0,0,57,1,,,,,,,,,,,,,,,,,,,,,,,,,,,,,,,,,,,,,,,,,,,,,,,,,,,,,,,,,,,,,,,,,,,,,,
,,,,8,2.61,,,,,,110,chocolate,cookie,,89198,001,2022-04-25_20h14.23.761,SPAMnetsValid,2021.1.4,MacIntel,62.5,,,,,,,,,,,,,8,2.61,0,1,1,52,1,,,,,,,,,,,,,,,,,,,,,,,,,,,,,,,,,,,,,,,,,,,,,,,,,,,,,,,,,,,,,,,,,,,,,,
,,,,7,1.601,,,,,,140,cookie,refrigerator,,89198,001,2022-04-25_20h14.23.761,SPAMnetsValid,2021.1.4,MacIntel,62.5,,,,,,,,,,,,,7,1.601,0,2,2,89,1,,,,,,,,,,,,,,,,,,,,,,,,,,,,,,,,,,,,,,,,,,,,,,,,,,,,,,,,,,,,,,,,,,,,,,
,,,,8,1.84,,,,,,124,oven,refrigerator,,89198,001,2022-04-25_20h14.23.761,SPAMnetsValid,2021.1.4,MacIntel,62.5,,,,,,,,,,,,,8,1.84,0,3,3,69,1,,,,,,,,,,,,,,,,,,,,,,,,,,,,,,,,,,,,,,,,,,,,,,,,,,,,,,,,,,,,,,,,,,,,,,
,,,,5,2.903,,,,,,103,pretzel,tomato,,89198,001,2022-04-25_20h14.23.761,SPAMnetsValid,2021.1.4,MacIntel,62.5,,,,,,,,,,,,,5,2.903,0,4,4,79,1,,,,,,,,,,,,,,,,,,,,,,,,,,,,,,,,,,,,,,,,,,,,,,,,,,,,,,,,,,,,,,,,,,,,,,
,,,,5,1.736,,,,,,98,pretzel,strawberry,,89198,001,2022-04-25_20h14.23.761,SPAMnetsValid,2021.1.4,MacIntel,62.5,,,,,,,,,,,,,5,1.736,0,5,5,82,1,,,,,,,,,,,,,,,,,,,,,,,,,,,,,,,,,,,,,,,,,,,,,,,,,,,,,,,,,,,,,,,,,,,,,,
,,,,8,2.045,,,,,,120,microwave,oven,,89198,001,2022-04-25_20h14.23.761,SPAMnetsValid,2021.1.4,MacIntel,62.5,,,,,,,,,,,,,8,2.045,0,6,6,14,1,,,,,,,,,,,,,,,,,,,,,,,,,,,,,,,,,,,,,,,,,,,,,,,,,,,,,,,,,,,,,,,,,,,,,,
,,,,2,4.186,,,,,,149,broom,tomato,,89198,001,2022-04-25_20h14.23.761,SPAMnetsValid,2021.1.4,MacIntel,62.5,,,,,,,,,,,,,2,4.186,0,7,7,20,1,,,,,,,,,,,,,,,,,,,,,,,,,,,,,,,,,,,,,,,,,,,,,,,,,,,,,,,,,,,,,,,,,,,,,,
,,,,6,3.337,,,,,,97,chocolate,kitchen,,89198,001,2022-04-25_20h14.23.761,SPAMnetsValid,2021.1.4,MacIntel,62.5,,,,,,,,,,,,,6,3.337,0,8,8,8,1,,,,,,,,,,,,,,,,,,,,,,,,,,,,,,,,,,,,,,,,,,,,,,,,,,,,,,,,,,,,,,,,,,,,,,
,,,,2,2.156,,,,,,190,microwave,strawberry,,89198,001,2022-04-25_20h14.23.761,SPAMnetsValid,2021.1.4,MacIntel,62.5,,,,,,,,,,,,,2,2.156,0,9,9,90,1,,,,,,,,,,,,,,,,,,,,,,,,,,,,,,,,,,,,,,,,,,,,,,,,,,,,,,,,,,,,,,,,,,,,,,
,,,,3,2.375,,,,,,105,cactus,oven,,89198,001,2022-04-25_20h14.23.761,SPAMnetsValid,2021.1.4,MacIntel,62.5,,,,,,,,,,,,,3,2.375,0,10,10,13,1,,,,,,,,,,,,,,,,,,,,,,,,,,,,,,,,,,,,,,,,,,,,,,,,,,,,,,,,,,,,,,,,,,,,,,
,,,,5,2.445,,,,,,155,carrot,cookie,,89198,001,2022-04-25_20h14.23.761,SPAMnetsValid,2021.1.4,MacIntel,62.5,,,,,,,,,,,,,5,2.445,0,11,11,38,1,,,,,,,,,,,,,,,,,,,,,,,,,,,,,,,,,,,,,,,,,,,,,,,,,,,,,,,,,,,,,,,,,,,,,,
,,,,7,1.904,,,,,,160,cookie,kitchen,,89198,001,2022-04-25_20h14.23.761,SPAMnetsValid,2021.1.4,MacIntel,62.5,,,,,,,,,,,,,7,1.904,0,12,12,65,1,,,,,,,,,,,,,,,,,,,,,,,,,,,,,,,,,,,,,,,,,,,,,,,,,,,,,,,,,,,,,,,,,,,,,,
,,,,2,1.77,,,,,,187,cactus,microwave,,89198,001,2022-04-25_20h14.23.761,SPAMnetsValid,2021.1.4,MacIntel,62.5,,,,,,,,,,,,,2,1.77,0,13,13,71,1,,,,,,,,,,,,,,,,,,,,,,,,,,,,,,,,,,,,,,,,,,,,,,,,,,,,,,,,,,,,,,,,,,,,,,
,,,,5,3.303,,,,,,153,carrot,pretzel,,89198,001,2022-04-25_20h14.23.761,SPAMnetsValid,2021.1.4,MacIntel,62.5,,,,,,,,,,,,,5,3.303,0,14,14,34,1,,,,,,,,,,,,,,,,,,,,,,,,,,,,,,,,,,,,,,,,,,,,,,,,,,,,,,,,,,,,,,,,,,,,,,
,,,,8,3.171,,,,,,131,cactus,garden,,89198,001,2022-04-25_20h14.23.761,SPAMnetsValid,2021.1.4,MacIntel,62.5,,,,,,,,,,,,,8,3.171,0,15,15,33,1,,,,,,,,,,,,,,,,,,,,,,,,,,,,,,,,,,,,,,,,,,,,,,,,,,,,,,,,,,,,,,,,,,,,,,
,,,,2,1.873,,,,,,137,microwave,tree,,89198,001,2022-04-25_20h14.23.761,SPAMnetsValid,2021.1.4,MacIntel,62.5,,,,,,,,,,,,,2,1.873,0,16,16,63,1,,,,,,,,,,,,,,,,,,,,,,,,,,,,,,,,,,,,,,,,,,,,,,,,,,,,,,,,,,,,,,,,,,,,,,
,,,,2,7.587,,,,,,104,garden,microwave,,89198,001,2022-04-25_20h14.23.761,SPAMnetsValid,2021.1.4,MacIntel,62.5,,,,,,,,,,,,,2,7.587,0,17,17,81,1,,,,,,,,,,,,,,,,,,,,,,,,,,,,,,,,,,,,,,,,,,,,,,,,,,,,,,,,,,,,,,,,,,,,,,
,,,,5,2.36,,,,,,108,carrot,chocolate,,89198,001,2022-04-25_20h14.23.761,SPAMnetsValid,2021.1.4,MacIntel,62.5,,,,,,,,,,,,,5,2.36,0,18,18,5,1,,,,,,,,,,,,,,,,,,,,,,,,,,,,,,,,,,,,,,,,,,,,,,,,,,,,,,,,,,,,,,,,,,,,,,
,,,,7,2.241,,,,,,119,strawberry,tree,,89198,001,2022-04-25_20h14.23.761,SPAMnetsValid,2021.1.4,MacIntel,62.5,,,,,,,,,,,,,7,2.241,0,19,19,18,1,,,,,,,,,,,,,,,,,,,,,,,,,,,,,,,,,,,,,,,,,,,,,,,,,,,,,,,,,,,,,,,,,,,,,,
,,,,3,5.072,,,,,,129,cactus,refrigerator,,89198,001,2022-04-25_20h14.23.761,SPAMnetsValid,2021.1.4,MacIntel,62.5,,,,,,,,,,,,,3,5.072,0,20,20,3,1,,,,,,,,,,,,,,,,,,,,,,,,,,,,,,,,,,,,,,,,,,,,,,,,,,,,,,,,,,,,,,,,,,,,,,
,,,,5,2.441,,,,,,169,onion,yogurt,,89198,001,2022-04-25_20h14.23.761,SPAMnetsValid,2021.1.4,MacIntel,62.5,,,,,,,,,,,,,5,2.441,0,21,21,24,1,,,,,,,,,,,,,,,,,,,,,,,,,,,,,,,,,,,,,,,,,,,,,,,,,,,,,,,,,,,,,,,,,,,,,,
,,,,7,3.153,,,,,,163,melon,refrigerator,,89198,001,2022-04-25_20h14.23.761,SPAMnetsValid,2021.1.4,MacIntel,62.5,,,,,,,,,,,,,7,3.153,0,22,22,29,1,,,,,,,,,,,,,,,,,,,,,,,,,,,,,,,,,,,,,,,,,,,,,,,,,,,,,,,,,,,,,,,,,,,,,,
,,,,1,4.659,,,,,,121,broom,microwave,,89198,001,2022-04-25_20h14.23.761,SPAMnetsValid,2021.1.4,MacIntel,62.5,,,,,,,,,,,,,1,4.659,0,23,23,95,1,,,,,,,,,,,,,,,,,,,,,,,,,,,,,,,,,,,,,,,,,,,,,,,,,,,,,,,,,,,,,,,,,,,,,,
,,,,9,1.554,,,,,,193,melon,melon,CHECK,89198,001,2022-04-25_20h14.23.761,SPAMnetsValid,2021.1.4,MacIntel,62.5,,,,,,,,,,,,,9,1.554,0,24,24,86,1,,,,,,,,,,,,,,,,,,,,,,,,,,,,,,,,,,,,,,,,,,,,,,,,,,,,,,,,,,,,,,,,,,,,,,
,,,,7,2.105,,,,,,184,oven,pretzel,,89198,001,2022-04-25_20h14.23.761,SPAMnetsValid,2021.1.4,MacIntel,62.5,,,,,,,,,,,,,7,2.105,0,25,25,42,1,,,,,,,,,,,,,,,,,,,,,,,,,,,,,,,,,,,,,,,,,,,,,,,,,,,,,,,,,,,,,,,,,,,,,,
,,,,1,1.657,,,,,,132,broom,tree,,89198,001,2022-04-25_20h14.23.761,SPAMnetsValid,2021.1.4,MacIntel,62.5,,,,,,,,,,,,,1,1.657,0,26,26,78,1,,,,,,,,,,,,,,,,,,,,,,,,,,,,,,,,,,,,,,,,,,,,,,,,,,,,,,,,,,,,,,,,,,,,,,
,,,,6,3.42,,,,,,174,cake,pretzel,,89198,001,2022-04-25_20h14.23.761,SPAMnetsValid,2021.1.4,MacIntel,62.5,,,,,,,,,,,,,6,3.42,0,27,27,2,1,,,,,,,,,,,,,,,,,,,,,,,,,,,,,,,,,,,,,,,,,,,,,,,,,,,,,,,,,,,,,,,,,,,,,,
,,,,5,2.757,,,,,,139,carrot,strawberry,,89198,001,2022-04-25_20h14.23.761,SPAMnetsValid,2021.1.4,MacIntel,62.5,,,,,,,,,,,,,5,2.757,0,28,28,37,1,,,,,,,,,,,,,,,,,,,,,,,,,,,,,,,,,,,,,,,,,,,,,,,,,,,,,,,,,,,,,,,,,,,,,,
,,,,5,3.802,,,,,,179,broom,oven,,89198,001,2022-04-25_20h14.23.761,SPAMnetsValid,2021.1.4,MacIntel,62.5,,,,,,,,,,,,,5,3.802,0,29,29,45,1,,,,,,,,,,,,,,,,,,,,,,,,,,,,,,,,,,,,,,,,,,,,,,,,,,,,,,,,,,,,,,,,,,,,,,
,,,,7,2.025,,,,,,116,cake,chocolate,,89198,001,2022-04-25_20h14.23.761,SPAMnetsValid,2021.1.4,MacIntel,62.5,,,,,,,,,,,,,7,2.025,0,30,30,44,1,,,,,,,,,,,,,,,,,,,,,,,,,,,,,,,,,,,,,,,,,,,,,,,,,,,,,,,,,,,,,,,,,,,,,,
,,,,7,1.37,,,,,,161,kitchen,pretzel,,89198,001,2022-04-25_20h14.23.761,SPAMnetsValid,2021.1.4,MacIntel,62.5,,,,,,,,,,,,,7,1.37,0,31,31,36,1,,,,,,,,,,,,,,,,,,,,,,,,,,,,,,,,,,,,,,,,,,,,,,,,,,,,,,,,,,,,,,,,,,,,,,
,,,,2,1.306,,,,,,123,cookie,tree,,89198,001,2022-04-25_20h14.23.761,SPAMnetsValid,2021.1.4,MacIntel,62.5,,,,,,,,,,,,,2,1.306,0,32,32,46,1,,,,,,,,,,,,,,,,,,,,,,,,,,,,,,,,,,,,,,,,,,,,,,,,,,,,,,,,,,,,,,,,,,,,,,
,,,,6,4.055,,,,,,134,carrot,flower,,89198,001,2022-04-25_20h14.23.761,SPAMnetsValid,2021.1.4,MacIntel,62.5,,,,,,,,,,,,,6,4.055,0,33,33,93,1,,,,,,,,,,,,,,,,,,,,,,,,,,,,,,,,,,,,,,,,,,,,,,,,,,,,,,,,,,,,,,,,,,,,,,
,,,,2,1.603,,,,,,182,flower,refrigerator,,89198,001,2022-04-25_20h14.23.761,SPAMnetsValid,2021.1.4,MacIntel,62.5,,,,,,,,,,,,,2,1.603,0,34,34,32,1,,,,,,,,,,,,,,,,,,,,,,,,,,,,,,,,,,,,,,,,,,,,,,,,,,,,,,,,,,,,,,,,,,,,,,
,,,,7,1.618,,,,,,150,microwave,refrigerator,,89198,001,2022-04-25_20h14.23.761,SPAMnetsValid,2021.1.4,MacIntel,62.5,,,,,,,,,,,,,7,1.618,0,35,35,66,1,,,,,,,,,,,,,,,,,,,,,,,,,,,,,,,,,,,,,,,,,,,,,,,,,,,,,,,,,,,,,,,,,,,,,,
,,,,7,3.519,,,,,,166,cake,yogurt,,89198,001,2022-04-25_20h14.23.761,SPAMnetsValid,2021.1.4,MacIntel,62.5,,,,,,,,,,,,,7,3.519,0,36,36,91,1,,,,,,,,,,,,,,,,,,,,,,,,,,,,,,,,,,,,,,,,,,,,,,,,,,,,,,,,,,,,,,,,,,,,,,
,,,,6,2.055,,,,,,141,melon,tomato,,89198,001,2022-04-25_20h14.23.761,SPAMnetsValid,2021.1.4,MacIntel,62.5,,,,,,,,,,,,,6,2.055,0,37,37,70,1,,,,,,,,,,,,,,,,,,,,,,,,,,,,,,,,,,,,,,,,,,,,,,,,,,,,,,,,,,,,,,,,,,,,,,
,,,,5,2.775,,,,,,125,carrot,tree,,89198,001,2022-04-25_20h14.23.761,SPAMnetsValid,2021.1.4,MacIntel,62.5,,,,,,,,,,,,,5,2.775,0,38,38,30,1,,,,,,,,,,,,,,,,,,,,,,,,,,,,,,,,,,,,,,,,,,,,,,,,,,,,,,,,,,,,,,,,,,,,,,
,,,,1,2.208,,,,,,111,carrot,microwave,,89198,001,2022-04-25_20h14.23.761,SPAMnetsValid,2021.1.4,MacIntel,62.5,,,,,,,,,,,,,1,2.208,0,39,39,16,1,,,,,,,,,,,,,,,,,,,,,,,,,,,,,,,,,,,,,,,,,,,,,,,,,,,,,,,,,,,,,,,,,,,,,,
,,,,6,4.361,,,,,,115,refrigerator,tomato,,89198,001,2022-04-25_20h14.23.761,SPAMnetsValid,2021.1.4,MacIntel,62.5,,,,,,,,,,,,,6,4.361,0,40,40,85,1,,,,,,,,,,,,,,,,,,,,,,,,,,,,,,,,,,,,,,,,,,,,,,,,,,,,,,,,,,,,,,,,,,,,,,
,,,,3,3.49,,,,,,136,chocolate,microwave,,89198,001,2022-04-25_20h14.23.761,SPAMnetsValid,2021.1.4,MacIntel,62.5,,,,,,,,,,,,,3,3.49,0,41,41,96,1,,,,,,,,,,,,,,,,,,,,,,,,,,,,,,,,,,,,,,,,,,,,,,,,,,,,,,,,,,,,,,,,,,,,,,
,,,,7,9.921,,,,,,168,cactus,flower,,89198,001,2022-04-25_20h14.23.761,SPAMnetsValid,2021.1.4,MacIntel,62.5,,,,,,,,,,,,,7,9.921,0,42,42,51,1,,,,,,,,,,,,,,,,,,,,,,,,,,,,,,,,,,,,,,,,,,,,,,,,,,,,,,,,,,,,,,,,,,,,,,
,,,,6,8.288,,,,,,102,chocolate,refrigerator,,89198,001,2022-04-25_20h14.23.761,SPAMnetsValid,2021.1.4,MacIntel,62.5,,,,,,,,,,,,,6,8.288,0,43,43,76,1,,,,,,,,,,,,,,,,,,,,,,,,,,,,,,,,,,,,,,,,,,,,,,,,,,,,,,,,,,,,,,,,,,,,,,
,,,,6,2.399,,,,,,118,chocolate,oven,,89198,001,2022-04-25_20h14.23.761,SPAMnetsValid,2021.1.4,MacIntel,62.5,,,,,,,,,,,,,6,2.399,0,44,44,10,1,,,,,,,,,,,,,,,,,,,,,,,,,,,,,,,,,,,,,,,,,,,,,,,,,,,,,,,,,,,,,,,,,,,,,,
,,,,1,6.036,,,,,,162,microwave,tomato,,89198,001,2022-04-25_20h14.23.761,SPAMnetsValid,2021.1.4,MacIntel,62.5,,,,,,,,,,,,,1,6.036,0,45,45,12,1,,,,,,,,,,,,,,,,,,,,,,,,,,,,,,,,,,,,,,,,,,,,,,,,,,,,,,,,,,,,,,,,,,,,,,
,,,,3,8.738,,,,,,101,cactus,kitchen,,89198,001,2022-04-25_20h14.23.761,SPAMnetsValid,2021.1.4,MacIntel,62.5,,,,,,,,,,,,,3,8.738,0,46,46,54,1,,,,,,,,,,,,,,,,,,,,,,,,,,,,,,,,,,,,,,,,,,,,,,,,,,,,,,,,,,,,,,,,,,,,,,
,,,,6,1.685,,,,,,186,kitchen,yogurt,,89198,001,2022-04-25_20h14.23.761,SPAMnetsValid,2021.1.4,MacIntel,62.5,,,,,,,,,,,,,6,1.685,0,47,47,48,1,,,,,,,,,,,,,,,,,,,,,,,,,,,,,,,,,,,,,,,,,,,,,,,,,,,,,,,,,,,,,,,,,,,,,,
,,,,4,2.221,,,,,,159,cookie,flower,,89198,001,2022-04-25_20h14.23.761,SPAMnetsValid,2021.1.4,MacIntel,62.5,,,,,,,,,,,,,4,2.221,0,48,48,21,1,,,,,,,,,,,,,,,,,,,,,,,,,,,,,,,,,,,,,,,,,,,,,,,,,,,,,,,,,,,,,,,,,,,,,,
,,,,2,1.511,,,,,,96,oven,strawberry,,89198,001,2022-04-25_20h14.23.761,SPAMnetsValid,2021.1.4,MacIntel,62.5,,,,,,,,,,,,,2,1.511,0,49,49,67,1,,,,,,,,,,,,,,,,,,,,,,,,,,,,,,,,,,,,,,,,,,,,,,,,,,,,,,,,,,,,,,,,,,,,,,
,,,,9,1.453,,,,,,194,cactus,cactus,CHECK,89198,001,2022-04-25_20h14.23.761,SPAMnetsValid,2021.1.4,MacIntel,62.5,,,,,,,,,,,,,9,1.453,0,50,50,25,1,,,,,,,,,,,,,,,,,,,,,,,,,,,,,,,,,,,,,,,,,,,,,,,,,,,,,,,,,,,,,,,,,,,,,,
,,,,7,1.621,,,,,,99,garden,melon,,89198,001,2022-04-25_20h14.23.761,SPAMnetsValid,2021.1.4,MacIntel,62.5,,,,,,,,,,,,,7,1.621,0,51,51,17,1,,,,,,,,,,,,,,,,,,,,,,,,,,,,,,,,,,,,,,,,,,,,,,,,,,,,,,,,,,,,,,,,,,,,,,
,,,,6,3.727,,,,,,185,cactus,rose,,89198,001,2022-04-25_20h14.23.761,SPAMnetsValid,2021.1.4,MacIntel,62.5,,,,,,,,,,,,,6,3.727,0,52,52,43,1,,,,,,,,,,,,,,,,,,,,,,,,,,,,,,,,,,,,,,,,,,,,,,,,,,,,,,,,,,,,,,,,,,,,,,
,,,,7,6.338,,,,,,147,cake,refrigerator,,89198,001,2022-04-25_20h14.23.761,SPAMnetsValid,2021.1.4,MacIntel,62.5,,,,,,,,,,,,,7,6.338,0,53,53,35,1,,,,,,,,,,,,,,,,,,,,,,,,,,,,,,,,,,,,,,,,,,,,,,,,,,,,,,,,,,,,,,,,,,,,,,
,,,,3,1.357,,,,,,144,cake,garden,,89198,001,2022-04-25_20h14.23.761,SPAMnetsValid,2021.1.4,MacIntel,62.5,,,,,,,,,,,,,3,1.357,0,54,54,58,1,,,,,,,,,,,,,,,,,,,,,,,,,,,,,,,,,,,,,,,,,,,,,,,,,,,,,,,,,,,,,,,,,,,,,,
,,,,6,1.795,,,,,,152,cactus,strawberry,,89198,001,2022-04-25_20h14.23.761,SPAMnetsValid,2021.1.4,MacIntel,62.5,,,,,,,,,,,,,6,1.795,0,55,55,49,1,,,,,,,,,,,,,,,,,,,,,,,,,,,,,,,,,,,,,,,,,,,,,,,,,,,,,,,,,,,,,,,,,,,,,,
,,,,6,2.636,,,,,,156,melon,rose,,89198,001,2022-04-25_20h14.23.761,SPAMnetsValid,2021.1.4,MacIntel,62.5,,,,,,,,,,,,,6,2.636,0,56,56,31,1,,,,,,,,,,,,,,,,,,,,,,,,,,,,,,,,,,,,,,,,,,,,,,,,,,,,,,,,,,,,,,,,,,,,,,
,,,,6,3.058,,,,,,114,cookie,strawberry,,89198,001,2022-04-25_20h14.23.761,SPAMnetsValid,2021.1.4,MacIntel,62.5,,,,,,,,,,,,,6,3.058,0,57,57,87,1,,,,,,,,,,,,,,,,,,,,,,,,,,,,,,,,,,,,,,,,,,,,,,,,,,,,,,,,,,,,,,,,,,,,,,
,,,,2,5.973,,,,,,133,cake,flower,,89198,001,2022-04-25_20h14.23.761,SPAMnetsValid,2021.1.4,MacIntel,62.5,,,,,,,,,,,,,2,5.973,0,58,58,94,1,,,,,,,,,,,,,,,,,,,,,,,,,,,,,,,,,,,,,,,,,,,,,,,,,,,,,,,,,,,,,,,,,,,,,,
,,,,8,4.675,,,,,,158,cookie,oven,,89198,001,2022-04-25_20h14.23.761,SPAMnetsValid,2021.1.4,MacIntel,62.5,,,,,,,,,,,,,8,4.675,0,59,59,27,1,,,,,,,,,,,,,,,,,,,,,,,,,,,,,,,,,,,,,,,,,,,,,,,,,,,,,,,,,,,,,,,,,,,,,,
,,,,2,6.22,,,,,,135,carrot,oven,,89198,001,2022-04-25_20h14.23.761,SPAMnetsValid,2021.1.4,MacIntel,62.5,,,,,,,,,,,,,2,6.22,0,60,60,73,1,,,,,,,,,,,,,,,,,,,,,,,,,,,,,,,,,,,,,,,,,,,,,,,,,,,,,,,,,,,,,,,,,,,,,,
,,,,3,4.818,,,,,,183,cake,rose,,89198,001,2022-04-25_20h14.23.761,SPAMnetsValid,2021.1.4,MacIntel,62.5,,,,,,,,,,,,,3,4.818,0,61,61,19,1,,,,,,,,,,,,,,,,,,,,,,,,,,,,,,,,,,,,,,,,,,,,,,,,,,,,,,,,,,,,,,,,,,,,,,
,,,,8,1.869,,,,,,154,strawberry,yogurt,,89198,001,2022-04-25_20h14.23.761,SPAMnetsValid,2021.1.4,MacIntel,62.5,,,,,,,,,,,,,8,1.869,0,62,62,28,1,,,,,,,,,,,,,,,,,,,,,,,,,,,,,,,,,,,,,,,,,,,,,,,,,,,,,,,,,,,,,,,,,,,,,,
,,,,3,2.557,,,,,,164,cookie,garden,,89198,001,2022-04-25_20h14.23.761,SPAMnetsValid,2021.1.4,MacIntel,62.5,,,,,,,,,,,,,3,2.557,0,63,63,59,1,,,,,,,,,,,,,,,,,,,,,,,,,,,,,,,,,,,,,,,,,,,,,,,,,,,,,,,,,,,,,,,,,,,,,,
,,,,4,2.187,,,,,,112,cake,carrot,,89198,001,2022-04-25_20h14.23.761,SPAMnetsValid,2021.1.4,MacIntel,62.5,,,,,,,,,,,,,4,2.187,0,64,64,39,1,,,,,,,,,,,,,,,,,,,,,,,,,,,,,,,,,,,,,,,,,,,,,,,,,,,,,,,,,,,,,,,,,,,,,,
,,,,7,3.576,,,,,,167,carrot,garden,,89198,001,2022-04-25_20h14.23.761,SPAMnetsValid,2021.1.4,MacIntel,62.5,,,,,,,,,,,,,7,3.576,0,65,65,47,1,,,,,,,,,,,,,,,,,,,,,,,,,,,,,,,,,,,,,,,,,,,,,,,,,,,,,,,,,,,,,,,,,,,,,,
,,,,5,1.953,,,,,,189,onion,tree,,89198,001,2022-04-25_20h14.23.761,SPAMnetsValid,2021.1.4,MacIntel,62.5,,,,,,,,,,,,,5,1.953,0,66,66,62,1,,,,,,,,,,,,,,,,,,,,,,,,,,,,,,,,,,,,,,,,,,,,,,,,,,,,,,,,,,,,,,,,,,,,,,
,,,,5,3.786,,,,,,148,flower,melon,,89198,001,2022-04-25_20h14.23.761,SPAMnetsValid,2021.1.4,MacIntel,62.5,,,,,,,,,,,,,5,3.786,0,67,67,23,1,,,,,,,,,,,,,,,,,,,,,,,,,,,,,,,,,,,,,,,,,,,,,,,,,,,,,,,,,,,,,,,,,,,,,,
,,,,6,1.828,,,,,,188,flower,tree,,89198,001,2022-04-25_20h14.23.761,SPAMnetsValid,2021.1.4,MacIntel,62.5,,,,,,,,,,,,,6,1.828,0,68,68,7,1,,,,,,,,,,,,,,,,,,,,,,,,,,,,,,,,,,,,,,,,,,,,,,,,,,,,,,,,,,,,,,,,,,,,,,
,,,,1,2.892,,,,,,109,broom,strawberry,,89198,001,2022-04-25_20h14.23.761,SPAMnetsValid,2021.1.4,MacIntel,62.5,,,,,,,,,,,,,1,2.892,0,69,69,4,1,,,,,,,,,,,,,,,,,,,,,,,,,,,,,,,,,,,,,,,,,,,,,,,,,,,,,,,,,,,,,,,,,,,,,,
,,,,3,2.502,,,,,,177,chocolate,strawberry,,89198,001,2022-04-25_20h14.23.761,SPAMnetsValid,2021.1.4,MacIntel,62.5,,,,,,,,,,,,,3,2.502,0,70,70,53,1,,,,,,,,,,,,,,,,,,,,,,,,,,,,,,,,,,,,,,,,,,,,,,,,,,,,,,,,,,,,,,,,,,,,,,
,,,,6,5.609,,,,,,106,cake,strawberry,,89198,001,2022-04-25_20h14.23.761,SPAMnetsValid,2021.1.4,MacIntel,62.5,,,,,,,,,,,,,6,5.609,0,71,71,0,1,,,,,,,,,,,,,,,,,,,,,,,,,,,,,,,,,,,,,,,,,,,,,,,,,,,,,,,,,,,,,,,,,,,,,,
,,,,5,1.937,,,,,,157,refrigerator,rose,,89198,001,2022-04-25_20h14.23.761,SPAMnetsValid,2021.1.4,MacIntel,62.5,,,,,,,,,,,,,5,1.937,0,72,72,64,1,,,,,,,,,,,,,,,,,,,,,,,,,,,,,,,,,,,,,,,,,,,,,,,,,,,,,,,,,,,,,,,,,,,,,,
,,,,5,2.822,,,,,,171,cake,tomato,,89198,001,2022-04-25_20h14.23.761,SPAMnetsValid,2021.1.4,MacIntel,62.5,,,,,,,,,,,,,5,2.822,0,73,73,88,1,,,,,,,,,,,,,,,,,,,,,,,,,,,,,,,,,,,,,,,,,,,,,,,,,,,,,,,,,,,,,,,,,,,,,,
,,,,8,3.878,,,,,,142,garden,tree,,89198,001,2022-04-25_20h14.23.761,SPAMnetsValid,2021.1.4,MacIntel,62.5,,,,,,,,,,,,,8,3.878,0,74,74,22,1,,,,,,,,,,,,,,,,,,,,,,,,,,,,,,,,,,,,,,,,,,,,,,,,,,,,,,,,,,,,,,,,,,,,,,
,,,,5,2.485,,,,,,145,cactus,yogurt,,89198,001,2022-04-25_20h14.23.761,SPAMnetsValid,2021.1.4,MacIntel,62.5,,,,,,,,,,,,,5,2.485,0,75,75,15,1,,,,,,,,,,,,,,,,,,,,,,,,,,,,,,,,,,,,,,,,,,,,,,,,,,,,,,,,,,,,,,,,,,,,,,
,,,,3,4.973,,,,,,126,kitchen,tree,,89198,001,2022-04-25_20h14.23.761,SPAMnetsValid,2021.1.4,MacIntel,62.5,,,,,,,,,,,,,3,4.973,0,76,76,50,1,,,,,,,,,,,,,,,,,,,,,,,,,,,,,,,,,,,,,,,,,,,,,,,,,,,,,,,,,,,,,,,,,,,,,,
,,,,7,3.191,,,,,,117,melon,strawberry,,89198,001,2022-04-25_20h14.23.761,SPAMnetsValid,2021.1.4,MacIntel,62.5,,,,,,,,,,,,,7,3.191,0,77,77,11,1,,,,,,,,,,,,,,,,,,,,,,,,,,,,,,,,,,,,,,,,,,,,,,,,,,,,,,,,,,,,,,,,,,,,,,
,,,,8,1.889,,,,,,100,garden,tomato,,89198,001,2022-04-25_20h14.23.761,SPAMnetsValid,2021.1.4,MacIntel,62.5,,,,,,,,,,,,,8,1.889,0,78,78,83,1,,,,,,,,,,,,,,,,,,,,,,,,,,,,,,,,,,,,,,,,,,,,,,,,,,,,,,,,,,,,,,,,,,,,,,
,,,,9,3.353,,,,,,138,flower,rose,,89198,001,2022-04-25_20h14.23.761,SPAMnetsValid,2021.1.4,MacIntel,62.5,,,,,,,,,,,,,9,3.353,0,79,79,61,1,,,,,,,,,,,,,,,,,,,,,,,,,,,,,,,,,,,,,,,,,,,,,,,,,,,,,,,,,,,,,,,,,,,,,,
,,,,6,5.787,,,,,,172,kitchen,melon,,89198,001,2022-04-25_20h14.23.761,SPAMnetsValid,2021.1.4,MacIntel,62.5,,,,,,,,,,,,,6,5.787,0,80,80,77,1,,,,,,,,,,,,,,,,,,,,,,,,,,,,,,,,,,,,,,,,,,,,,,,,,,,,,,,,,,,,,,,,,,,,,,
,,,,6,1.358,,,,,,173,kitchen,tomato,,89198,001,2022-04-25_20h14.23.761,SPAMnetsValid,2021.1.4,MacIntel,62.5,,,,,,,,,,,,,6,1.358,0,81,81,1,1,,,,,,,,,,,,,,,,,,,,,,,,,,,,,,,,,,,,,,,,,,,,,,,,,,,,,,,,,,,,,,,,,,,,,,
,,,,6,2.504,,,,,,170,cookie,microwave,,89198,001,2022-04-25_20h14.23.761,SPAMnetsValid,2021.1.4,MacIntel,62.5,,,,,,,,,,,,,6,2.504,0,82,82,92,1,,,,,,,,,,,,,,,,,,,,,,,,,,,,,,,,,,,,,,,,,,,,,,,,,,,,,,,,,,,,,,,,,,,,,,
,,,,4,2.037,,,,,,143,pretzel,rose,,89198,001,2022-04-25_20h14.23.761,SPAMnetsValid,2021.1.4,MacIntel,62.5,,,,,,,,,,,,,4,2.037,0,83,83,55,1,,,,,,,,,,,,,,,,,,,,,,,,,,,,,,,,,,,,,,,,,,,,,,,,,,,,,,,,,,,,,,,,,,,,,,
,,,,6,2.793,,,,,,180,tree,yogurt,,89198,001,2022-04-25_20h14.23.761,SPAMnetsValid,2021.1.4,MacIntel,62.5,,,,,,,,,,,,,6,2.793,0,84,84,68,1,,,,,,,,,,,,,,,,,,,,,,,,,,,,,,,,,,,,,,,,,,,,,,,,,,,,,,,,,,,,,,,,,,,,,,
,,,,3,4.487,,,,,,176,cactus,tomato,,89198,001,2022-04-25_20h14.23.761,SPAMnetsValid,2021.1.4,MacIntel,62.5,,,,,,,,,,,,,3,4.487,0,85,85,9,1,,,,,,,,,,,,,,,,,,,,,,,,,,,,,,,,,,,,,,,,,,,,,,,,,,,,,,,,,,,,,,,,,,,,,,
,,,,6,4.253,,,,,,175,melon,onion,,89198,001,2022-04-25_20h14.23.761,SPAMnetsValid,2021.1.4,MacIntel,62.5,,,,,,,,,,,,,6,4.253,0,86,86,41,1,,,,,,,,,,,,,,,,,,,,,,,,,,,,,,,,,,,,,,,,,,,,,,,,,,,,,,,,,,,,,,,,,,,,,,
,,,,3,1.32,,,,,,128,melon,microwave,,89198,001,2022-04-25_20h14.23.761,SPAMnetsValid,2021.1.4,MacIntel,62.5,,,,,,,,,,,,,3,1.32,0,87,87,74,1,,,,,,,,,,,,,,,,,,,,,,,,,,,,,,,,,,,,,,,,,,,,,,,,,,,,,,,,,,,,,,,,,,,,,,
,,,,1,1.509,,,,,,151,microwave,onion,,89198,001,2022-04-25_20h14.23.761,SPAMnetsValid,2021.1.4,MacIntel,62.5,,,,,,,,,,,,,1,1.509,0,88,88,6,1,,,,,,,,,,,,,,,,,,,,,,,,,,,,,,,,,,,,,,,,,,,,,,,,,,,,,,,,,,,,,,,,,,,,,,
,,,,6,3.154,,,,,,178,cactus,carrot,,89198,001,2022-04-25_20h14.23.761,SPAMnetsValid,2021.1.4,MacIntel,62.5,,,,,,,,,,,,,6,3.154,0,89,89,75,1,,,,,,,,,,,,,,,,,,,,,,,,,,,,,,,,,,,,,,,,,,,,,,,,,,,,,,,,,,,,,,,,,,,,,,
,,,,8,2.053,,,,,,122,flower,garden,,89198,001,2022-04-25_20h14.23.761,SPAMnetsValid,2021.1.4,MacIntel,62.5,,,,,,,,,,,,,8,2.053,0,90,90,60,1,,,,,,,,,,,,,,,,,,,,,,,,,,,,,,,,,,,,,,,,,,,,,,,,,,,,,,,,,,,,,,,,,,,,,,
,,,,5,3.604,,,,,,165,onion,rose,,89198,001,2022-04-25_20h14.23.761,SPAMnetsValid,2021.1.4,MacIntel,62.5,,,,,,,,,,,,,5,3.604,0,91,91,40,1,,,,,,,,,,,,,,,,,,,,,,,,,,,,,,,,,,,,,,,,,,,,,,,,,,,,,,,,,,,,,,,,,,,,,,
,,,,6,1.82,,,,,,181,carrot,kitchen,,89198,001,2022-04-25_20h14.23.761,SPAMnetsValid,2021.1.4,MacIntel,62.5,,,,,,,,,,,,,6,1.82,0,92,92,72,1,,,,,,,,,,,,,,,,,,,,,,,,,,,,,,,,,,,,,,,,,,,,,,,,,,,,,,,,,,,,,,,,,,,,,,
,,,,6,1.295,,,,,,130,microwave,yogurt,,89198,001,2022-04-25_20h14.23.761,SPAMnetsValid,2021.1.4,MacIntel,62.5,,,,,,,,,,,,,6,1.295,0,93,93,84,1,,,,,,,,,,,,,,,,,,,,,,,,,,,,,,,,,,,,,,,,,,,,,,,,,,,,,,,,,,,,,,,,,,,,,,
,,,,6,6.311,,,,,,107,rose,tomato,,89198,001,2022-04-25_20h14.23.761,SPAMnetsValid,2021.1.4,MacIntel,62.5,,,,,,,,,,,,,6,6.311,0,94,94,26,1,,,,,,,,,,,,,,,,,,,,,,,,,,,,,,,,,,,,,,,,,,,,,,,,,,,,,,,,,,,,,,,,,,,,,,
,,,,7,1.67,,,,,,113,refrigerator,strawberry,,89198,001,2022-04-25_20h14.23.761,SPAMnetsValid,2021.1.4,MacIntel,62.5,,,,,,,,,,,,,7,1.67,0,95,95,56,1,,,,,,,,,,,,,,,,,,,,,,,,,,,,,,,,,,,,,,,,,,,,,,,,,,,,,,,,,,,,,,,,,,,,,,
,,,,4,2.771,,,,,,146,pretzel,tree,,89198,001,2022-04-25_20h14.23.761,SPAMnetsValid,2021.1.4,MacIntel,62.5,,,,,,,,,,,,,4,2.771,0,96,96,80,1,,,,,,,,,,,,,,,,,,,,,,,,,,,,,,,,,,,,,,,,,,,,,,,,,,,,,,,,,,,,,,,,,,,,,,
,,,,,,,,,,,,,,,89198,001,2022-04-25_20h14.23.761,SPAMnetsValid,2021.1.4,MacIntel,62.5,,,,,,,,,,,,,,,,,,,,0,0,0,0,1,,,,,,,,,,,,,,,,,,,,,,,,,,,,,,,,,,,,,,,,,,,,,,,,,,,,,,,,,,,,,,,,,
,,,,,,,,,,,,,,,89198,001,2022-04-25_20h14.23.761,SPAMnetsValid,2021.1.4,MacIntel,62.5,,,,,,0,1,1,1,1,0,1,,,,,,,,,,,,,,,,,,,,,,,,,,,,,,,,,,,,,,,,,,,,,,,,,,,,,,,,,,,,,,,,,,,,,,,,,,,,,
,,,,,,,,,,,,,,,89198,001,2022-04-25_20h14.23.761,SPAMnetsValid,2021.1.4,MacIntel,62.5,,,,,,,,,,,,,,,,,,,,,,,,,3,5.142,0,0,0,0,1,rancor,forbearance,ridicule,malice,bravery,3,,,,,,,,,,,,,,,,,,,,,,,,,,,,,,,,,,,,,,,,,,,,,,,,,,,,
,,,,,,,,,,,,,,,89198,001,2022-04-25_20h14.23.761,SPAMnetsValid,2021.1.4,MacIntel,62.5,,,,,,,,,,,,,,,,,,,,,,,,,2,6.406,0,1,1,1,1,raucous,empty,quiet,smooth,harsh,4,,,,,,,,,,,,,,,,,,,,,,,,,,,,,,,,,,,,,,,,,,,,,,,,,,,,
,,,,,,,,,,,,,,,89198,001,2022-04-25_20h14.23.761,SPAMnetsValid,2021.1.4,MacIntel,62.5,,,,,,,,,,,,,,,,,,,,,,,,,3,6.871,0,2,2,2,1,gargoyle,oil,medicine,carved waterspout,ugly building,3,,,,,,,,,,,,,,,,,,,,,,,,,,,,,,,,,,,,,,,,,,,,,,,,,,,,
,,,,,,,,,,,,,,,89198,001,2022-04-25_20h14.23.761,SPAMnetsValid,2021.1.4,MacIntel,62.5,,,,,,,,,,,,,,,,,,,,,,,,,3,7.956,0,3,3,3,1,recrudesce,purify,renew activity,lack refinement,crush,2,,,,,,,,,,,,,,,,,,,,,,,,,,,,,,,,,,,,,,,,,,,,,,,,,,,,
,,,,,,,,,,,,,,,89198,001,2022-04-25_20h14.23.761,SPAMnetsValid,2021.1.4,MacIntel,62.5,,,,,,,,,,,,,,,,,,,,,,,,,2,9.204,0,4,4,4,1,specious,"plausible, but not genuine",noteworthy,class or variety,roomy,1,,,,,,,,,,,,,,,,,,,,,,,,,,,,,,,,,,,,,,,,,,,,,,,,,,,,
,,,,,,,,,,,,,,,89198,001,2022-04-25_20h14.23.761,SPAMnetsValid,2021.1.4,MacIntel,62.5,,,,,,,,,,,,,,,,,,,,,,,,,3,2.219,0,5,5,5,1,bauble,bubble,showy plaything,idle talk,confusion,2,,,,,,,,,,,,,,,,,,,,,,,,,,,,,,,,,,,,,,,,,,,,,,,,,,,,
,,,,,,,,,,,,,,,89198,001,2022-04-25_20h14.23.761,SPAMnetsValid,2021.1.4,MacIntel,62.5,,,,,,,,,,,,,,,,,,,,,,,,,2,5.667,0,6,6,6,1,prolific,scarce,producing abundantly,reckless,speaking profanely,2,,,,,,,,,,,,,,,,,,,,,,,,,,,,,,,,,,,,,,,,,,,,,,,,,,,,
,,,,,,,,,,,,,,,89198,001,2022-04-25_20h14.23.761,SPAMnetsValid,2021.1.4,MacIntel,62.5,,,,,,,,,,,,,,,,,,,,,,,,,2,7.387,0,7,7,7,1,opulent,party,wealthy,happy frame of mind,semiprecious stone,2,,,,,,,,,,,,,,,,,,,,,,,,,,,,,,,,,,,,,,,,,,,,,,,,,,,,
,,,,,,,,,,,,,,,89198,001,2022-04-25_20h14.23.761,SPAMnetsValid,2021.1.4,MacIntel,62.5,,,,,,,,,,,,,,,,,,,,,,,,,1,4.621,0,8,8,8,1,coercion,conspiracy,strategy,restraint,attraction,3,,,,,,,,,,,,,,,,,,,,,,,,,,,,,,,,,,,,,,,,,,,,,,,,,,,,
,,,,,,,,,,,,,,,89198,001,2022-04-25_20h14.23.761,SPAMnetsValid,2021.1.4,MacIntel,62.5,,,,,,,,,,,,,,,,,,,,,,,,,2,10.22,0,9,9,9,1,hiatus,animal,calamity,dread,gap,4,,,,,,,,,,,,,,,,,,,,,,,,,,,,,,,,,,,,,,,,,,,,,,,,,,,,
,,,,,,,,,,,,,,,89198,001,2022-04-25_20h14.23.761,SPAMnetsValid,2021.1.4,MacIntel,62.5,,,,,,,,,,,,,,,,,,,,,,,,,4,7.804,0,10,10,10,1,germane,microbe,contagious,relevant,different,3,,,,,,,,,,,,,,,,,,,,,,,,,,,,,,,,,,,,,,,,,,,,,,,,,,,,
,,,,,,,,,,,,,,,89198,001,2022-04-25_20h14.23.761,SPAMnetsValid,2021.1.4,MacIntel,62.5,,,,,,,,,,,,,,,,,,,,,,,,,3,3.962,0,11,11,11,1,perfunctory,fundamental,formal,superficial,careful,3,,,,,,,,,,,,,,,,,,,,,,,,,,,,,,,,,,,,,,,,,,,,,,,,,,,,
,,,,,,,,,,,,,,,89198,001,2022-04-25_20h14.23.761,SPAMnetsValid,2021.1.4,MacIntel,62.5,,,,,,,,,,,,,,,,,,,,,,,,,3,4.187,0,12,12,12,1,diverge,reveal,chant,distract the attention of,differ or turn off from,4,,,,,,,,,,,,,,,,,,,,,,,,,,,,,,,,,,,,,,,,,,,,,,,,,,,,
,,,,,,,,,,,,,,,89198,001,2022-04-25_20h14.23.761,SPAMnetsValid,2021.1.4,MacIntel,62.5,,,,,,,,,,,,,,,,,,,,,,,,,2,5.121,0,13,13,13,1,evoke,take away,anger,connect,bring out,4,,,,,,,,,,,,,,,,,,,,,,,,,,,,,,,,,,,,,,,,,,,,,,,,,,,,
,,,,,,,,,,,,,,,89198,001,2022-04-25_20h14.23.761,SPAMnetsValid,2021.1.4,MacIntel,62.5,,,,,,,,,,,,,,,,,,,,,,,,,,,0,14,14,14,1,pertinent,relevant,lying next to,necessary,bold,1,,,,,,,,,,,,,,,,,,,,,,,,,,,,,,,,,,,,,,,,,,,,,,,,,,,,
,,,,,,,,,,,,,,,89198,001,2022-04-25_20h14.23.761,SPAMnetsValid,2021.1.4,MacIntel,62.5,,,,,,,,,,,,,,,,,,,,,,,,,2,2.754,0,15,15,15,1,holocaust,entirety,destruction,saintly,price,2,,,,,,,,,,,,,,,,,,,,,,,,,,,,,,,,,,,,,,,,,,,,,,,,,,,,
,,,,,,,,,,,,,,,89198,001,2022-04-25_20h14.23.761,SPAMnetsValid,2021.1.4,MacIntel,62.5,,,,,,,,,,,,,,,,,,,,,,,,,1,5.604,0,16,16,16,1,piquant,mellow,fish,pungent,cloth,3,,,,,,,,,,,,,,,,,,,,,,,,,,,,,,,,,,,,,,,,,,,,,,,,,,,,
,,,,,,,,,,,,,,,89198,001,2022-04-25_20h14.23.761,SPAMnetsValid,2021.1.4,MacIntel,62.5,,,,,,,,,,,,,,,,,,,,,,,,,4,5.106,0,17,17,17,1,firmament,foundation,heavens,strong,glue,2,,,,,,,,,,,,,,,,,,,,,,,,,,,,,,,,,,,,,,,,,,,,,,,,,,,,
,,,,,,,,,,,,,,,89198,001,2022-04-25_20h14.23.761,SPAMnetsValid,2021.1.4,MacIntel,62.5,,,,,,,,,,,,,,,,,,,,,,,,,,,,,,,,,,,,,,4,13.57,0,0,0,0,1,marketable,partisan,jocular,marriageable,salable,essential,4,,,,,,,,,,,,,,,,,,,,,,,,,,,,,,,,,,,,,,
,,,,,,,,,,,,,,,89198,001,2022-04-25_20h14.23.761,SPAMnetsValid,2021.1.4,MacIntel,62.5,,,,,,,,,,,,,,,,,,,,,,,,,,,,,,,,,,,,,,5,6.727,0,1,1,1,1,cottontail,squirrel,poplar,boa,marshy plant,rabbit,5,,,,,,,,,,,,,,,,,,,,,,,,,,,,,,,,,,,,,,
,,,,,,,,,,,,,,,89198,001,2022-04-25_20h14.23.761,SPAMnetsValid,2021.1.4,MacIntel,62.5,,,,,,,,,,,,,,,,,,,,,,,,,,,,,,,,,,,,,,4,6.798,0,2,2,2,1,boggy,afraid,false,marshy,dense,black,3,,,,,,,,,,,,,,,,,,,,,,,,,,,,,,,,,,,,,,
,,,,,,,,,,,,,,,89198,001,2022-04-25_20h14.23.761,SPAMnetsValid,2021.1.4,MacIntel,62.5,,,,,,,,,,,,,,,,,,,,,,,,,,,,,,,,,,,,,,5,3.895,0,3,3,3,1,gruesomeness,blackness,falseness,vindictiveness,drunkenness,ghastliness,5,,,,,,,,,,,,,,,,,,,,,,,,,,,,,,,,,,,,,,
,,,,,,,,,,,,,,,89198,001,2022-04-25_20h14.23.761,SPAMnetsValid,2021.1.4,MacIntel,62.5,,,,,,,,,,,,,,,,,,,,,,,,,,,,,,,,,,,,,,3,3.219,0,4,4,4,1,loathing,diffidence,laziness,abhorrence,cleverness,comfort,3,,,,,,,,,,,,,,,,,,,,,,,,,,,,,,,,,,,,,,
,,,,,,,,,,,,,,,89198,001,2022-04-25_20h14.23.761,SPAMnetsValid,2021.1.4,MacIntel,62.5,,,,,,,,,,,,,,,,,,,,,,,,,,,,,,,,,,,,,,5,3.853,0,5,5,5,1,bantam,fowl,ridicule,cripple,vegetable,ensign,1,,,,,,,,,,,,,,,,,,,,,,,,,,,,,,,,,,,,,,
,,,,,,,,,,,,,,,89198,001,2022-04-25_20h14.23.761,SPAMnetsValid,2021.1.4,MacIntel,62.5,,,,,,,,,,,,,,,,,,,,,,,,,,,,,,,,,,,,,,5,9.291,0,6,6,6,1,evoke,wake up,surrender,reconnoiter,transcend,call forth,5,,,,,,,,,,,,,,,,,,,,,,,,,,,,,,,,,,,,,,
,,,,,,,,,,,,,,,89198,001,2022-04-25_20h14.23.761,SPAMnetsValid,2021.1.4,MacIntel,62.5,,,,,,,,,,,,,,,,,,,,,,,,,,,,,,,,,,,,,,4,12.792,0,7,7,7,1,unobtrusive,unintelligent,epileptic,illogical,lineal,modest,5,,,,,,,,,,,,,,,,,,,,,,,,,,,,,,,,,,,,,,
,,,,,,,,,,,,,,,89198,001,2022-04-25_20h14.23.761,SPAMnetsValid,2021.1.4,MacIntel,62.5,,,,,,,,,,,,,,,,,,,,,,,,,,,,,,,,,,,,,,4,3.247,0,8,8,8,1,terrain,ice cream,final test,tractor,area of ground,weight,4,,,,,,,,,,,,,,,,,,,,,,,,,,,,,,,,,,,,,,
,,,,,,,,,,,,,,,89198,001,2022-04-25_20h14.23.761,SPAMnetsValid,2021.1.4,MacIntel,62.5,,,,,,,,,,,,,,,,,,,,,,,,,,,,,,,,,,,,,,4,6.389,0,9,9,9,1,capriciousness,stubbornness,courage,whimsicality,amazement,greediness,3,,,,,,,,,,,,,,,,,,,,,,,,,,,,,,,,,,,,,,
,,,,,,,,,,,,,,,89198,001,2022-04-25_20h14.23.761,SPAMnetsValid,2021.1.4,MacIntel,62.5,,,,,,,,,,,,,,,,,,,,,,,,,,,,,,,,,,,,,,2,3.706,0,10,10,10,1,maelstrom,slander,whirlpool,enmity,armor,majolica,2,,,,,,,,,,,,,,,,,,,,,,,,,,,,,,,,,,,,,,
,,,,,,,,,,,,,,,89198,001,2022-04-25_20h14.23.761,SPAMnetsValid,2021.1.4,MacIntel,62.5,,,,,,,,,,,,,,,,,,,,,,,,,,,,,,,,,,,,,,1,6.194,0,11,11,11,1,tentative,critical,conclusive,authentic,provisional,apprehensive,4,,,,,,,,,,,,,,,,,,,,,,,,,,,,,,,,,,,,,,
,,,,,,,,,,,,,,,89198,001,2022-04-25_20h14.23.761,SPAMnetsValid,2021.1.4,MacIntel,62.5,,,,,,,,,,,,,,,,,,,,,,,,,,,,,,,,,,,,,,2,8.409,0,12,12,12,1,placate,rehabilitate,plagiarize,depredate,apprise,conciliate,5,,,,,,,,,,,,,,,,,,,,,,,,,,,,,,,,,,,,,,
,,,,,,,,,,,,,,,89198,001,2022-04-25_20h14.23.761,SPAMnetsValid,2021.1.4,MacIntel,62.5,,,,,,,,,,,,,,,,,,,,,,,,,,,,,,,,,,,,,,5,7.638,0,13,13,13,1,surcease,enlightenment,cessation,inattention,censor,substitution,2,,,,,,,,,,,,,,,,,,,,,,,,,,,,,,,,,,,,,,
,,,,,,,,,,,,,,,89198,001,2022-04-25_20h14.23.761,SPAMnetsValid,2021.1.4,MacIntel,62.5,,,,,,,,,,,,,,,,,,,,,,,,,,,,,,,,,,,,,,2,11.723,0,14,14,14,1,apathetic,wandering,impassive,hateful,prophetic,overflowing,2,,,,,,,,,,,,,,,,,,,,,,,,,,,,,,,,,,,,,,
,,,,,,,,,,,,,,,89198,001,2022-04-25_20h14.23.761,SPAMnetsValid,2021.1.4,MacIntel,62.5,,,,,,,,,,,,,,,,,,,,,,,,,,,,,,,,,,,,,,1,5.49,0,15,15,15,1,paternoster,paternalism,patricide,malediction,benediction,prayer,5,,,,,,,,,,,,,,,,,,,,,,,,,,,,,,,,,,,,,,
,,,,,,,,,,,,,,,89198,001,2022-04-25_20h14.23.761,SPAMnetsValid,2021.1.4,MacIntel,62.5,,,,,,,,,,,,,,,,,,,,,,,,,,,,,,,,,,,,,,3,7.704,0,16,16,16,1,opalescence,opulence,senescence,bankruptcy,iridescence,assiduity,4,,,,,,,,,,,,,,,,,,,,,,,,,,,,,,,,,,,,,,
,,,,,,,,,,,,,,,89198,001,2022-04-25_20h14.23.761,SPAMnetsValid,2021.1.4,MacIntel,62.5,,,,,,,,,,,,,,,,,,,,,,,,,,,,,,,,,,,,,,2,1.804,0,17,17,17,1,lush,stupid,luxurious,hazy,putrid,languishing,2,,,,,,,,,,,,,,,,,,,,,,,,,,,,,,,,,,,,,,
,,,,,,,,,,,,,,,89198,001,2022-04-25_20h14.23.761,SPAMnetsValid,2021.1.4,MacIntel,62.5,,,,,,,,,,,,,,,,,,,,,,,,,,,,,,,,,,,,,,2,7.745,0,18,18,18,1,curtailment,expenditure,abandonment,abridgment,improvement,forgery,3,,,,,,,,,,,,,,,,,,,,,,,,,,,,,,,,,,,,,,
,,,,,,,,,,,,,,,89198,001,2022-04-25_20h14.23.761,SPAMnetsValid,2021.1.4,MacIntel,62.5,,,,,,,,,,,,,,,,,,,,,,,,,,,,,,,,,,,,,,2,5.16,0,19,19,19,1,perversity,adversity,perviousness,travesty,waywardness,gentility,4,,,,,,,,,,,,,,,,,,,,,,,,,,,,,,,,,,,,,,
,,,,,,,,,,,,,,,89198,001,2022-04-25_20h14.23.761,SPAMnetsValid,2021.1.4,MacIntel,62.5,,,,,,,,,,,,,,,,,,,,,,,,,,,,,,,,,,,,,,2,8.39,0,20,20,20,1,calumnious,complimentary,analogous,slanderous,tempestuous,magnanimous,3,,,,,,,,,,,,,,,,,,,,,,,,,,,,,,,,,,,,,,
,,,,,,,,,,,,,,,89198,001,2022-04-25_20h14.23.761,SPAMnetsValid,2021.1.4,MacIntel,62.5,,,,,,,,,,,,,,,,,,,,,,,,,,,,,,,,,,,,,,1,10.377,0,21,21,21,1,illiberality,bigotry,imbecility,illegibility,cautery,immaturity,1,,,,,,,,,,,,,,,,,,,,,,,,,,,,,,,,,,,,,,
,,,,,,,,,,,,,,,89198,001,2022-04-25_20h14.23.761,SPAMnetsValid,2021.1.4,MacIntel,62.5,,,,,,,,,,,,,,,,,,,,,,,,,,,,,,,,,,,,,,2,2.194,0,22,22,22,1,clabber,rejoice,gossip,curdle,crow,hobble,3,,,,,,,,,,,,,,,,,,,,,,,,,,,,,,,,,,,,,,
,,,,,,,,,,,,,,,89198,001,2022-04-25_20h14.23.761,SPAMnetsValid,2021.1.4,MacIntel,62.5,,,,,,,,,,,,,,,,,,,,,,,,,,,,,,,,,,,,,,1,7.137,0,23,23,23,1,sedulousness,diligence,credulousness,seduction,perilousness,frankness,1,,,,,,,,,,,,,,,,,,,,,,,,,,,,,,,,,,,,,,
,,,,,,,,,,,,,,,89198,001,2022-04-25_20h14.23.761,SPAMnetsValid,2021.1.4,MacIntel,62.5,,,,,,,,,,,,,,,,,,,,,,,,,,,,,,,,,,,,,,,,,,,,,,,,,,,,throw it,bucket,0,0,0,0,1,,,,,,,,,,,,,,,,,,,,,,,,,,,,,,,
,,,,,,,,,,,,,,,89198,001,2022-04-25_20h14.23.761,SPAMnetsValid,2021.1.4,MacIntel,62.5,,,,,,,,,,,,,,,,,,,,,,,,,,,,,,,,,,,,,,,,,,,,,,,,,,,,drink from it,bucket,1,0,1,0,1,,,,,,,,,,,,,,,,,,,,,,,,,,,,,,,
,,,,,,,,,,,,,,,89198,001,2022-04-25_20h14.23.761,SPAMnetsValid,2021.1.4,MacIntel,62.5,,,,,,,,,,,,,,,,,,,,,,,,,,,,,,,,,,,,,,,,,,,,,,,,,,,,fill it,bucket,2,0,2,0,1,,,,,,,,,,,,,,,,,,,,,,,,,,,,,,,
,,,,,,,,,,,,,,,89198,001,2022-04-25_20h14.23.761,SPAMnetsValid,2021.1.4,MacIntel,62.5,,,,,,,,,,,,,,,,,,,,,,,,,,,,,,,,,,,,,,,,,,,,,,,,,,,,sit on it,bucket,3,0,3,0,1,,,,,,,,,,,,,,,,,,,,,,,,,,,,,,,
,,,,,,,,,,,,,,,89198,001,2022-04-25_20h14.23.761,SPAMnetsValid,2021.1.4,MacIntel,62.5,,,,,,,,,,,,,,,,,,,,,,,,,,,,,,,,,,,,,,,,,,,,,,,,,,,,decorate it,bucket,4,0,4,0,1,,,,,,,,,,,,,,,,,,,,,,,,,,,,,,,
,,,,,,,,,,,,,,,89198,001,2022-04-25_20h14.23.761,SPAMnetsValid,2021.1.4,MacIntel,62.5,,,,,,,,,,,,,,,,,,,,,,,,,,,,,,,,,,,,,,,,,,,,,,,,,,,,hide it,bucket,5,0,5,0,1,,,,,,,,,,,,,,,,,,,,,,,,,,,,,,,
,,,,,,,,,,,,,,,89198,001,2022-04-25_20h14.23.761,SPAMnetsValid,2021.1.4,MacIntel,62.5,,,,,,,,,,,,,,,,,,,,,,,,,,,,,,,,,,,,,,,,,,,,,,,,,,,,flatten it,bucket,6,0,6,0,1,,,,,,,,,,,,,,,,,,,,,,,,,,,,,,,
,,,,,,,,,,,,,,,89198,001,2022-04-25_20h14.23.761,SPAMnetsValid,2021.1.4,MacIntel,62.5,,,,,,,,,,,,,,,,,,,,,,,,,,,,,,,,,,,,,,,,,,,,,,,,,,,,dissasemble it,bucket,7,0,7,0,1,,,,,,,,,,,,,,,,,,,,,,,,,,,,,,,
,,,,,,,,,,,,,,,89198,001,2022-04-25_20h14.23.761,SPAMnetsValid,2021.1.4,MacIntel,62.5,,,,,,,,,,,,,,,,,,,,,,,,,,,,,,,,,,,,,,,,,,,,,,,,,,,,use it as a backpack,bucket,8,0,8,0,1,,,,,,,,,,,,,,,,,,,,,,,,,,,,,,,
,,,,,,,,,,,,,,,89198,001,2022-04-25_20h14.23.761,SPAMnetsValid,2021.1.4,MacIntel,62.5,,,,,,,,,,,,,,,,,,,,,,,,,,,,,,,,,,,,,,,,,,,,,,,,,,,,use it as a helmet,bucket,9,0,9,0,1,,,,,,,,,,,,,,,,,,,,,,,,,,,,,,,
,,,,,,,,,,,,,,,89198,001,2022-04-25_20h14.23.761,SPAMnetsValid,2021.1.4,MacIntel,62.5,,,,,,,,,,,,,,,,,,,,,,,,,,,,,,,,,,,,,,,,,,,,,,,,,,,,throw balls at it,bucket,10,0,10,0,1,,,,,,,,,,,,,,,,,,,,,,,,,,,,,,,
,,,,,,,,,,,,,,,89198,001,2022-04-25_20h14.23.761,SPAMnetsValid,2021.1.4,MacIntel,62.5,,,,,,,,,,,,,,,,,,,,,,,,,,,,,,,,,,,,,,,,,,,,,,,,,,,,use it as a hurdle,bucket,11,0,11,0,1,,,,,,,,,,,,,,,,,,,,,,,,,,,,,,,
,,,,,,,,,,,,,,,89198,001,2022-04-25_20h14.23.761,SPAMnetsValid,2021.1.4,MacIntel,62.5,,,,,,,,,,,,,,,,,,,,,,,,,,,,,,,,,,,,,,,,,,,,,,,,,,,,make cool noises with it,bucket,12,0,12,0,1,,,,,,,,,,,,,,,,,,,,,,,,,,,,,,,
,,,,,,,,,,,,,,,89198,001,2022-04-25_20h14.23.761,SPAMnetsValid,2021.1.4,MacIntel,62.5,,,,,,,,,,,,,,,,,,,,,,,,,,,,,,,,,,,,,,,,,,,,,,,,,,,,step stool,bucket,13,0,13,0,1,,,,,,,,,,,,,,,,,,,,,,,,,,,,,,,
,,,,,,,,,,,,,,,89198,001,2022-04-25_20h14.23.761,SPAMnetsValid,2021.1.4,MacIntel,62.5,,,,,,,,,,,,,,,,,,,,,,,,,,,,,,,,,,,,,,,,,,,,,,,,,,,,,,,,,,,0,0,0,0,1,bucket,,,,,,,,,,,,,,,,,,,,,,,,,
,,,,,,,,,,,,,,,89198,001,2022-04-25_20h14.23.761,SPAMnetsValid,2021.1.4,MacIntel,62.5,,,,,,,,,,,,,,,,,,,,,,,,,,,,,,,,,,,,,,,,,,,,,,,,,,,,sleep on it,pillow,0,0,0,0,1,,,,,,,,,,,,,,,,,,,,,,,,,,,,,,,
,,,,,,,,,,,,,,,89198,001,2022-04-25_20h14.23.761,SPAMnetsValid,2021.1.4,MacIntel,62.5,,,,,,,,,,,,,,,,,,,,,,,,,,,,,,,,,,,,,,,,,,,,,,,,,,,,pillow fight,pillow,1,0,1,0,1,,,,,,,,,,,,,,,,,,,,,,,,,,,,,,,
,,,,,,,,,,,,,,,89198,001,2022-04-25_20h14.23.761,SPAMnetsValid,2021.1.4,MacIntel,62.5,,,,,,,,,,,,,,,,,,,,,,,,,,,,,,,,,,,,,,,,,,,,,,,,,,,,use the case as a bag for candy,pillow,2,0,2,0,1,,,,,,,,,,,,,,,,,,,,,,,,,,,,,,,
,,,,,,,,,,,,,,,89198,001,2022-04-25_20h14.23.761,SPAMnetsValid,2021.1.4,MacIntel,62.5,,,,,,,,,,,,,,,,,,,,,,,,,,,,,,,,,,,,,,,,,,,,,,,,,,,,sit on it,pillow,3,0,3,0,1,,,,,,,,,,,,,,,,,,,,,,,,,,,,,,,
,,,,,,,,,,,,,,,89198,001,2022-04-25_20h14.23.761,SPAMnetsValid,2021.1.4,MacIntel,62.5,,,,,,,,,,,,,,,,,,,,,,,,,,,,,,,,,,,,,,,,,,,,,,,,,,,,nail it to a wall to cover a hole,pillow,4,0,4,0,1,,,,,,,,,,,,,,,,,,,,,,,,,,,,,,,
,,,,,,,,,,,,,,,89198,001,2022-04-25_20h14.23.761,SPAMnetsValid,2021.1.4,MacIntel,62.5,,,,,,,,,,,,,,,,,,,,,,,,,,,,,,,,,,,,,,,,,,,,,,,,,,,,door stop,pillow,5,0,5,0,1,,,,,,,,,,,,,,,,,,,,,,,,,,,,,,,
,,,,,,,,,,,,,,,89198,001,2022-04-25_20h14.23.761,SPAMnetsValid,2021.1.4,MacIntel,62.5,,,,,,,,,,,,,,,,,,,,,,,,,,,,,,,,,,,,,,,,,,,,,,,,,,,,blindfold,pillow,6,0,6,0,1,,,,,,,,,,,,,,,,,,,,,,,,,,,,,,,
,,,,,,,,,,,,,,,89198,001,2022-04-25_20h14.23.761,SPAMnetsValid,2021.1.4,MacIntel,62.5,,,,,,,,,,,,,,,,,,,,,,,,,,,,,,,,,,,,,,,,,,,,,,,,,,,,throw things at it,pillow,7,0,7,0,1,,,,,,,,,,,,,,,,,,,,,,,,,,,,,,,
,,,,,,,,,,,,,,,89198,001,2022-04-25_20h14.23.761,SPAMnetsValid,2021.1.4,MacIntel,62.5,,,,,,,,,,,,,,,,,,,,,,,,,,,,,,,,,,,,,,,,,,,,,,,,,,,,land on it after jumping,pillow,8,0,8,0,1,,,,,,,,,,,,,,,,,,,,,,,,,,,,,,,
,,,,,,,,,,,,,,,89198,001,2022-04-25_20h14.23.761,SPAMnetsValid,2021.1.4,MacIntel,62.5,,,,,,,,,,,,,,,,,,,,,,,,,,,,,,,,,,,,,,,,,,,,,,,,,,,,make cool noises with it,pillow,9,0,9,0,1,,,,,,,,,,,,,,,,,,,,,,,,,,,,,,,
,,,,,,,,,,,,,,,89198,001,2022-04-25_20h14.23.761,SPAMnetsValid,2021.1.4,MacIntel,62.5,,,,,,,,,,,,,,,,,,,,,,,,,,,,,,,,,,,,,,,,,,,,,,,,,,,,yell into it to make it quiter,pillow,10,0,10,0,1,,,,,,,,,,,,,,,,,,,,,,,,,,,,,,,
,,,,,,,,,,,,,,,89198,001,2022-04-25_20h14.23.761,SPAMnetsValid,2021.1.4,MacIntel,62.5,,,,,,,,,,,,,,,,,,,,,,,,,,,,,,,,,,,,,,,,,,,,,,,,,,,,,,,,,,,0,1,1,2,1,pillow,,,,,,,,,,,,,,,,,,,,,,,,,
,,,,,,,,,,,,,,,89198,001,2022-04-25_20h14.23.761,SPAMnetsValid,2021.1.4,MacIntel,62.5,,,,,,,,,,,,,,,,,,,,,,,,,,,,,,,,,,,,,,,,,,,,,,,,,,,,use it for light,candle,0,0,0,0,1,,,,,,,,,,,,,,,,,,,,,,,,,,,,,,,
,,,,,,,,,,,,,,,89198,001,2022-04-25_20h14.23.761,SPAMnetsValid,2021.1.4,MacIntel,62.5,,,,,,,,,,,,,,,,,,,,,,,,,,,,,,,,,,,,,,,,,,,,,,,,,,,,melt the wax and make something with it,candle,1,0,1,0,1,,,,,,,,,,,,,,,,,,,,,,,,,,,,,,,
,,,,,,,,,,,,,,,89198,001,2022-04-25_20h14.23.761,SPAMnetsValid,2021.1.4,MacIntel,62.5,,,,,,,,,,,,,,,,,,,,,,,,,,,,,,,,,,,,,,,,,,,,,,,,,,,,door stop,candle,2,0,2,0,1,,,,,,,,,,,,,,,,,,,,,,,,,,,,,,,
,,,,,,,,,,,,,,,89198,001,2022-04-25_20h14.23.761,SPAMnetsValid,2021.1.4,MacIntel,62.5,,,,,,,,,,,,,,,,,,,,,,,,,,,,,,,,,,,,,,,,,,,,,,,,,,,,make a room smell better,candle,3,0,3,0,1,,,,,,,,,,,,,,,,,,,,,,,,,,,,,,,
,,,,,,,,,,,,,,,89198,001,2022-04-25_20h14.23.761,SPAMnetsValid,2021.1.4,MacIntel,62.5,,,,,,,,,,,,,,,,,,,,,,,,,,,,,,,,,,,,,,,,,,,,,,,,,,,,fill it with water if you dont have a cup,candle,4,0,4,0,1,,,,,,,,,,,,,,,,,,,,,,,,,,,,,,,
,,,,,,,,,,,,,,,89198,001,2022-04-25_20h14.23.761,SPAMnetsValid,2021.1.4,MacIntel,62.5,,,,,,,,,,,,,,,,,,,,,,,,,,,,,,,,,,,,,,,,,,,,,,,,,,,,use it as a lighter,candle,5,0,5,0,1,,,,,,,,,,,,,,,,,,,,,,,,,,,,,,,
,,,,,,,,,,,,,,,89198,001,2022-04-25_20h14.23.761,SPAMnetsValid,2021.1.4,MacIntel,62.5,,,,,,,,,,,,,,,,,,,,,,,,,,,,,,,,,,,,,,,,,,,,,,,,,,,,to transfer fire,candle,6,0,6,0,1,,,,,,,,,,,,,,,,,,,,,,,,,,,,,,,
,,,,,,,,,,,,,,,89198,001,2022-04-25_20h14.23.761,SPAMnetsValid,2021.1.4,MacIntel,62.5,,,,,,,,,,,,,,,,,,,,,,,,,,,,,,,,,,,,,,,,,,,,,,,,,,,,use it as a basketball hoop for small pieces of paper,candle,7,0,7,0,1,,,,,,,,,,,,,,,,,,,,,,,,,,,,,,,
,,,,,,,,,,,,,,,89198,001,2022-04-25_20h14.23.761,SPAMnetsValid,2021.1.4,MacIntel,62.5,,,,,,,,,,,,,,,,,,,,,,,,,,,,,,,,,,,,,,,,,,,,,,,,,,,,throw it,candle,8,0,8,0,1,,,,,,,,,,,,,,,,,,,,,,,,,,,,,,,
,,,,,,,,,,,,,,,89198,001,2022-04-25_20h14.23.761,SPAMnetsValid,2021.1.4,MacIntel,62.5,,,,,,,,,,,,,,,,,,,,,,,,,,,,,,,,,,,,,,,,,,,,,,,,,,,,gift it,candle,9,0,9,0,1,,,,,,,,,,,,,,,,,,,,,,,,,,,,,,,
,,,,,,,,,,,,,,,89198,001,2022-04-25_20h14.23.761,SPAMnetsValid,2021.1.4,MacIntel,62.5,,,,,,,,,,,,,,,,,,,,,,,,,,,,,,,,,,,,,,,,,,,,,,,,,,,,,,,,,,,0,2,2,1,1,candle,,,,,,,,,,,,,,,,,,,,,,,,,
,,,,,,,,,,,,,,,89198,001,2022-04-25_20h14.23.761,SPAMnetsValid,2021.1.4,MacIntel,62.5,,,,,,,,,,,,,,,,,,,,,,,,,,,,,,,,,,,,,,,,,,,,,,,,,,,,,,,,,,,,,,,,,cat,Animals,0,0,0,0,1,,,,,,,,,,,,,,,,,,
,,,,,,,,,,,,,,,89198,001,2022-04-25_20h14.23.761,SPAMnetsValid,2021.1.4,MacIntel,62.5,,,,,,,,,,,,,,,,,,,,,,,,,,,,,,,,,,,,,,,,,,,,,,,,,,,,,,,,,,,,,,,,,dog,Animals,1,0,1,0,1,,,,,,,,,,,,,,,,,,
,,,,,,,,,,,,,,,89198,001,2022-04-25_20h14.23.761,SPAMnetsValid,2021.1.4,MacIntel,62.5,,,,,,,,,,,,,,,,,,,,,,,,,,,,,,,,,,,,,,,,,,,,,,,,,,,,,,,,,,,,,,,,,leapord,Animals,2,0,2,0,1,,,,,,,,,,,,,,,,,,
,,,,,,,,,,,,,,,89198,001,2022-04-25_20h14.23.761,SPAMnetsValid,2021.1.4,MacIntel,62.5,,,,,,,,,,,,,,,,,,,,,,,,,,,,,,,,,,,,,,,,,,,,,,,,,,,,,,,,,,,,,,,,,tiger,Animals,3,0,3,0,1,,,,,,,,,,,,,,,,,,
,,,,,,,,,,,,,,,89198,001,2022-04-25_20h14.23.761,SPAMnetsValid,2021.1.4,MacIntel,62.5,,,,,,,,,,,,,,,,,,,,,,,,,,,,,,,,,,,,,,,,,,,,,,,,,,,,,,,,,,,,,,,,,whale,Animals,4,0,4,0,1,,,,,,,,,,,,,,,,,,
,,,,,,,,,,,,,,,89198,001,2022-04-25_20h14.23.761,SPAMnetsValid,2021.1.4,MacIntel,62.5,,,,,,,,,,,,,,,,,,,,,,,,,,,,,,,,,,,,,,,,,,,,,,,,,,,,,,,,,,,,,,,,,human,Animals,5,0,5,0,1,,,,,,,,,,,,,,,,,,
,,,,,,,,,,,,,,,89198,001,2022-04-25_20h14.23.761,SPAMnetsValid,2021.1.4,MacIntel,62.5,,,,,,,,,,,,,,,,,,,,,,,,,,,,,,,,,,,,,,,,,,,,,,,,,,,,,,,,,,,,,,,,,rabbot,Animals,6,0,6,0,1,,,,,,,,,,,,,,,,,,
,,,,,,,,,,,,,,,89198,001,2022-04-25_20h14.23.761,SPAMnetsValid,2021.1.4,MacIntel,62.5,,,,,,,,,,,,,,,,,,,,,,,,,,,,,,,,,,,,,,,,,,,,,,,,,,,,,,,,,,,,,,,,,rat,Animals,7,0,7,0,1,,,,,,,,,,,,,,,,,,
,,,,,,,,,,,,,,,89198,001,2022-04-25_20h14.23.761,SPAMnetsValid,2021.1.4,MacIntel,62.5,,,,,,,,,,,,,,,,,,,,,,,,,,,,,,,,,,,,,,,,,,,,,,,,,,,,,,,,,,,,,,,,,mouse,Animals,8,0,8,0,1,,,,,,,,,,,,,,,,,,
,,,,,,,,,,,,,,,89198,001,2022-04-25_20h14.23.761,SPAMnetsValid,2021.1.4,MacIntel,62.5,,,,,,,,,,,,,,,,,,,,,,,,,,,,,,,,,,,,,,,,,,,,,,,,,,,,,,,,,,,,,,,,,mosquito,Animals,9,0,9,0,1,,,,,,,,,,,,,,,,,,
,,,,,,,,,,,,,,,89198,001,2022-04-25_20h14.23.761,SPAMnetsValid,2021.1.4,MacIntel,62.5,,,,,,,,,,,,,,,,,,,,,,,,,,,,,,,,,,,,,,,,,,,,,,,,,,,,,,,,,,,,,,,,,wasp,Animals,10,0,10,0,1,,,,,,,,,,,,,,,,,,
,,,,,,,,,,,,,,,89198,001,2022-04-25_20h14.23.761,SPAMnetsValid,2021.1.4,MacIntel,62.5,,,,,,,,,,,,,,,,,,,,,,,,,,,,,,,,,,,,,,,,,,,,,,,,,,,,,,,,,,,,,,,,,ferret,Animals,11,0,11,0,1,,,,,,,,,,,,,,,,,,
,,,,,,,,,,,,,,,89198,001,2022-04-25_20h14.23.761,SPAMnetsValid,2021.1.4,MacIntel,62.5,,,,,,,,,,,,,,,,,,,,,,,,,,,,,,,,,,,,,,,,,,,,,,,,,,,,,,,,,,,,,,,,,boar,Animals,12,0,12,0,1,,,,,,,,,,,,,,,,,,
,,,,,,,,,,,,,,,89198,001,2022-04-25_20h14.23.761,SPAMnetsValid,2021.1.4,MacIntel,62.5,,,,,,,,,,,,,,,,,,,,,,,,,,,,,,,,,,,,,,,,,,,,,,,,,,,,,,,,,,,,,,,,,pig,Animals,13,0,13,0,1,,,,,,,,,,,,,,,,,,
,,,,,,,,,,,,,,,89198,001,2022-04-25_20h14.23.761,SPAMnetsValid,2021.1.4,MacIntel,62.5,,,,,,,,,,,,,,,,,,,,,,,,,,,,,,,,,,,,,,,,,,,,,,,,,,,,,,,,,,,,,,,,,cow,Animals,14,0,14,0,1,,,,,,,,,,,,,,,,,,
,,,,,,,,,,,,,,,89198,001,2022-04-25_20h14.23.761,SPAMnetsValid,2021.1.4,MacIntel,62.5,,,,,,,,,,,,,,,,,,,,,,,,,,,,,,,,,,,,,,,,,,,,,,,,,,,,,,,,,,,,,,,,,seagull,Animals,15,0,15,0,1,,,,,,,,,,,,,,,,,,
,,,,,,,,,,,,,,,89198,001,2022-04-25_20h14.23.761,SPAMnetsValid,2021.1.4,MacIntel,62.5,,,,,,,,,,,,,,,,,,,,,,,,,,,,,,,,,,,,,,,,,,,,,,,,,,,,,,,,,,,,,,,,,goose,Animals,16,0,16,0,1,,,,,,,,,,,,,,,,,,
,,,,,,,,,,,,,,,89198,001,2022-04-25_20h14.23.761,SPAMnetsValid,2021.1.4,MacIntel,62.5,,,,,,,,,,,,,,,,,,,,,,,,,,,,,,,,,,,,,,,,,,,,,,,,,,,,,,,,,,,,,,,,,deer,Animals,17,0,17,0,1,,,,,,,,,,,,,,,,,,
,,,,,,,,,,,,,,,89198,001,2022-04-25_20h14.23.761,SPAMnetsValid,2021.1.4,MacIntel,62.5,,,,,,,,,,,,,,,,,,,,,,,,,,,,,,,,,,,,,,,,,,,,,,,,,,,,,,,,,,,,,,,,,turkey,Animals,18,0,18,0,1,,,,,,,,,,,,,,,,,,
,,,,,,,,,,,,,,,89198,001,2022-04-25_20h14.23.761,SPAMnetsValid,2021.1.4,MacIntel,62.5,,,,,,,,,,,,,,,,,,,,,,,,,,,,,,,,,,,,,,,,,,,,,,,,,,,,,,,,,,,,,,,,,chicken,Animals,19,0,19,0,1,,,,,,,,,,,,,,,,,,
,,,,,,,,,,,,,,,89198,001,2022-04-25_20h14.23.761,SPAMnetsValid,2021.1.4,MacIntel,62.5,,,,,,,,,,,,,,,,,,,,,,,,,,,,,,,,,,,,,,,,,,,,,,,,,,,,,,,,,,,,,,,,,hamster,Animals,20,0,20,0,1,,,,,,,,,,,,,,,,,,
,,,,,,,,,,,,,,,89198,001,2022-04-25_20h14.23.761,SPAMnetsValid,2021.1.4,MacIntel,62.5,,,,,,,,,,,,,,,,,,,,,,,,,,,,,,,,,,,,,,,,,,,,,,,,,,,,,,,,,,,,,,,,,squirrel,Animals,21,0,21,0,1,,,,,,,,,,,,,,,,,,
,,,,,,,,,,,,,,,89198,001,2022-04-25_20h14.23.761,SPAMnetsValid,2021.1.4,MacIntel,62.5,,,,,,,,,,,,,,,,,,,,,,,,,,,,,,,,,,,,,,,,,,,,,,,,,,,,,,,,,,,,,,,,,chipmunk,Animals,22,0,22,0,1,,,,,,,,,,,,,,,,,,
,,,,,,,,,,,,,,,89198,001,2022-04-25_20h14.23.761,SPAMnetsValid,2021.1.4,MacIntel,62.5,,,,,,,,,,,,,,,,,,,,,,,,,,,,,,,,,,,,,,,,,,,,,,,,,,,,,,,,,,,,,,,,,black bear,Animals,23,0,23,0,1,,,,,,,,,,,,,,,,,,
,,,,,,,,,,,,,,,89198,001,2022-04-25_20h14.23.761,SPAMnetsValid,2021.1.4,MacIntel,62.5,,,,,,,,,,,,,,,,,,,,,,,,,,,,,,,,,,,,,,,,,,,,,,,,,,,,,,,,,,,,,,,,,brown bear,Animals,24,0,24,0,1,,,,,,,,,,,,,,,,,,
,,,,,,,,,,,,,,,89198,001,2022-04-25_20h14.23.761,SPAMnetsValid,2021.1.4,MacIntel,62.5,,,,,,,,,,,,,,,,,,,,,,,,,,,,,,,,,,,,,,,,,,,,,,,,,,,,,,,,,,,,,,,,,wolf,Animals,25,0,25,0,1,,,,,,,,,,,,,,,,,,
,,,,,,,,,,,,,,,89198,001,2022-04-25_20h14.23.761,SPAMnetsValid,2021.1.4,MacIntel,62.5,,,,,,,,,,,,,,,,,,,,,,,,,,,,,,,,,,,,,,,,,,,,,,,,,,,,,,,,,,,,,,,,,cyote,Animals,26,0,26,0,1,,,,,,,,,,,,,,,,,,
,,,,,,,,,,,,,,,89198,001,2022-04-25_20h14.23.761,SPAMnetsValid,2021.1.4,MacIntel,62.5,,,,,,,,,,,,,,,,,,,,,,,,,,,,,,,,,,,,,,,,,,,,,,,,,,,,,,,,,,,,,,,,,armadillo,Animals,27,0,27,0,1,,,,,,,,,,,,,,,,,,
,,,,,,,,,,,,,,,89198,001,2022-04-25_20h14.23.761,SPAMnetsValid,2021.1.4,MacIntel,62.5,,,,,,,,,,,,,,,,,,,,,,,,,,,,,,,,,,,,,,,,,,,,,,,,,,,,,,,,,,,,,,,,,horse,Animals,28,0,28,0,1,,,,,,,,,,,,,,,,,,
,,,,,,,,,,,,,,,89198,001,2022-04-25_20h14.23.761,SPAMnetsValid,2021.1.4,MacIntel,62.5,,,,,,,,,,,,,,,,,,,,,,,,,,,,,,,,,,,,,,,,,,,,,,,,,,,,,,,,,,,,,,,,,donkey,Animals,29,0,29,0,1,,,,,,,,,,,,,,,,,,
,,,,,,,,,,,,,,,89198,001,2022-04-25_20h14.23.761,SPAMnetsValid,2021.1.4,MacIntel,62.5,,,,,,,,,,,,,,,,,,,,,,,,,,,,,,,,,,,,,,,,,,,,,,,,,,,,,,,,,,,,,,,,,mule,Animals,30,0,30,0,1,,,,,,,,,,,,,,,,,,
,,,,,,,,,,,,,,,89198,001,2022-04-25_20h14.23.761,SPAMnetsValid,2021.1.4,MacIntel,62.5,,,,,,,,,,,,,,,,,,,,,,,,,,,,,,,,,,,,,,,,,,,,,,,,,,,,,,,,,,,,,,,,,sheep,Animals,31,0,31,0,1,,,,,,,,,,,,,,,,,,
,,,,,,,,,,,,,,,89198,001,2022-04-25_20h14.23.761,SPAMnetsValid,2021.1.4,MacIntel,62.5,,,,,,,,,,,,,,,,,,,,,,,,,,,,,,,,,,,,,,,,,,,,,,,,,,,,,,,,,,,,,,,,,fish,Animals,32,0,32,0,1,,,,,,,,,,,,,,,,,,
,,,,,,,,,,,,,,,89198,001,2022-04-25_20h14.23.761,SPAMnetsValid,2021.1.4,MacIntel,62.5,,,,,,,,,,,,,,,,,,,,,,,,,,,,,,,,,,,,,,,,,,,,,,,,,,,,,,,,,,,,,,,,,dolphin,Animals,33,0,33,0,1,,,,,,,,,,,,,,,,,,
,,,,,,,,,,,,,,,89198,001,2022-04-25_20h14.23.761,SPAMnetsValid,2021.1.4,MacIntel,62.5,,,,,,,,,,,,,,,,,,,,,,,,,,,,,,,,,,,,,,,,,,,,,,,,,,,,,,,,,,,,,,,,,turtle,Animals,34,0,34,0,1,,,,,,,,,,,,,,,,,,
,,,,,,,,,,,,,,,89198,001,2022-04-25_20h14.23.761,SPAMnetsValid,2021.1.4,MacIntel,62.5,,,,,,,,,,,,,,,,,,,,,,,,,,,,,,,,,,,,,,,,,,,,,,,,,,,,,,,,,,,,,,,,,seahorse,Animals,35,0,35,0,1,,,,,,,,,,,,,,,,,,
,,,,,,,,,,,,,,,89198,001,2022-04-25_20h14.23.761,SPAMnetsValid,2021.1.4,MacIntel,62.5,,,,,,,,,,,,,,,,,,,,,,,,,,,,,,,,,,,,,,,,,,,,,,,,,,,,,,,,,,,,,,,,,crab,Animals,36,0,36,0,1,,,,,,,,,,,,,,,,,,
,,,,,,,,,,,,,,,89198,001,2022-04-25_20h14.23.761,SPAMnetsValid,2021.1.4,MacIntel,62.5,,,,,,,,,,,,,,,,,,,,,,,,,,,,,,,,,,,,,,,,,,,,,,,,,,,,,,,,,,,,,,,,,shrimp,Animals,37,0,37,0,1,,,,,,,,,,,,,,,,,,
,,,,,,,,,,,,,,,89198,001,2022-04-25_20h14.23.761,SPAMnetsValid,2021.1.4,MacIntel,62.5,,,,,,,,,,,,,,,,,,,,,,,,,,,,,,,,,,,,,,,,,,,,,,,,,,,,,,,,,,,,,,,,,lobster,Animals,38,0,38,0,1,,,,,,,,,,,,,,,,,,
,,,,,,,,,,,,,,,89198,001,2022-04-25_20h14.23.761,SPAMnetsValid,2021.1.4,MacIntel,62.5,,,,,,,,,,,,,,,,,,,,,,,,,,,,,,,,,,,,,,,,,,,,,,,,,,,,,,,,,,,,,,,,,jellyfish,Animals,39,0,39,0,1,,,,,,,,,,,,,,,,,,
,,,,,,,,,,,,,,,89198,001,2022-04-25_20h14.23.761,SPAMnetsValid,2021.1.4,MacIntel,62.5,,,,,,,,,,,,,,,,,,,,,,,,,,,,,,,,,,,,,,,,,,,,,,,,,,,,,,,,,,,,,,,,,,,,,,,,0,0,0,0,1,Animals,,,,,,,,,,,,
,,,,,,,,,,,,,,,89198,001,2022-04-25_20h14.23.761,SPAMnetsValid,2021.1.4,MacIntel,62.5,,,,,,,,,,,,,,,,,,,,,,,,,,,,,,,,,,,,,,,,,,,,,,,,,,,,,,,,,,,,,,,,,,,,,,,,,,,,,,4,7.161,0,0,0,0,1,"I enjoy concentrating on a fantasy or daydream and exploring all its possibilities, letting it grow and develop.",0,1,,
,,,,,,,,,,,,,,,89198,001,2022-04-25_20h14.23.761,SPAMnetsValid,2021.1.4,MacIntel,62.5,,,,,,,,,,,,,,,,,,,,,,,,,,,,,,,,,,,,,,,,,,,,,,,,,,,,,,,,,,,,,,,,,,,,,,,,,,,,,,5,3.036,0,1,1,1,1,I think it's interesting to learn and develop new hobbies.,0,2,,
,,,,,,,,,,,,,,,89198,001,2022-04-25_20h14.23.761,SPAMnetsValid,2021.1.4,MacIntel,62.5,,,,,,,,,,,,,,,,,,,,,,,,,,,,,,,,,,,,,,,,,,,,,,,,,,,,,,,,,,,,,,,,,,,,,,,,,,,,,,3,3.189,0,2,2,2,1,I am intrigued by the patterns I find in art and nature.,0,3,,
,,,,,,,,,,,,,,,89198,001,2022-04-25_20h14.23.761,SPAMnetsValid,2021.1.4,MacIntel,62.5,,,,,,,,,,,,,,,,,,,,,,,,,,,,,,,,,,,,,,,,,,,,,,,,,,,,,,,,,,,,,,,,,,,,,,,,,,,,,,2,6.904,0,3,3,3,1,I believe letting students hear controversial speakers can only confuse and mislead them.,1,4,,
,,,,,,,,,,,,,,,89198,001,2022-04-25_20h14.23.761,SPAMnetsValid,2021.1.4,MacIntel,62.5,,,,,,,,,,,,,,,,,,,,,,,,,,,,,,,,,,,,,,,,,,,,,,,,,,,,,,,,,,,,,,,,,,,,,,,,,,,,,,2,4.523,0,4,4,4,1,Poetry has little or no effect on me.,1,5,,
,,,,,,,,,,,,,,,89198,001,2022-04-25_20h14.23.761,SPAMnetsValid,2021.1.4,MacIntel,62.5,,,,,,,,,,,,,,,,,,,,,,,,,,,,,,,,,,,,,,,,,,,,,,,,,,,,,,,,,,,,,,,,,,,,,,,,,,,,,,2,6.637,0,5,5,5,1,I would have difficulty just letting my mind wander without control or guidance.,1,6,,
,,,,,,,,,,,,,,,89198,001,2022-04-25_20h14.23.761,SPAMnetsValid,2021.1.4,MacIntel,62.5,,,,,,,,,,,,,,,,,,,,,,,,,,,,,,,,,,,,,,,,,,,,,,,,,,,,,,,,,,,,,,,,,,,,,,,,,,,,,,4,5.503,0,6,6,6,1,I seldom notice the moods or feelings that different environments produce.,1,7,,
,,,,,,,,,,,,,,,89198,001,2022-04-25_20h14.23.761,SPAMnetsValid,2021.1.4,MacIntel,62.5,,,,,,,,,,,,,,,,,,,,,,,,,,,,,,,,,,,,,,,,,,,,,,,,,,,,,,,,,,,,,,,,,,,,,,,,,,,,,,2,3.324,0,7,7,7,1,I experience a wide range of emotions or feelings.,0,8,,
,,,,,,,,,,,,,,,89198,001,2022-04-25_20h14.23.761,SPAMnetsValid,2021.1.4,MacIntel,62.5,,,,,,,,,,,,,,,,,,,,,,,,,,,,,,,,,,,,,,,,,,,,,,,,,,,,,,,,,,,,,,,,,,,,,,,,,,,,,,4,8.427,0,8,8,8,1,"Sometimes when I am reading poetry or looking at a work of art, I feel a chill or wave of excitement.",0,9,,
,,,,,,,,,,,,,,,89198,001,2022-04-25_20h14.23.761,SPAMnetsValid,2021.1.4,MacIntel,62.5,,,,,,,,,,,,,,,,,,,,,,,,,,,,,,,,,,,,,,,,,,,,,,,,,,,,,,,,,,,,,,,,,,,,,,,,,,,,,,1,4.957,0,9,9,9,1,I have little interest in speculating on the nature of the universe or the human condition.,1,10,,
,,,,,,,,,,,,,,,89198,001,2022-04-25_20h14.23.761,SPAMnetsValid,2021.1.4,MacIntel,62.5,,,,,,,,,,,,,,,,,,,,,,,,,,,,,,,,,,,,,,,,,,,,,,,,,,,,,,,,,,,,,,,,,,,,,,,,,,,,,,5,3.043,0,10,10,10,1,I have a lot of intellectual curiosity.,0,11,,
,,,,,,,,,,,,,,,89198,001,2022-04-25_20h14.23.761,SPAMnetsValid,2021.1.4,MacIntel,62.5,,,,,,,,,,,,,,,,,,,,,,,,,,,,,,,,,,,,,,,,,,,,,,,,,,,,,,,,,,,,,,,,,,,,,,,,,,,,,,5,3.018,0,11,11,11,1,I often enjoy playing with theories or abstract ideas.,0,12,,
,,,,,,,,,,,,,,,89198,001,2022-04-25_20h14.23.761,SPAMnetsValid,2021.1.4,MacIntel,62.5,,,,,,,,,,,,,,,,,,,,,,,,,,,,,,,,,,,,,,,,,,,,,,,,,,,,,,,,,,,,,,,,,,,,,,,,,,,,,,,,,,,,,,,,return,13.119
