key_resp_3.keys,key_resp_3.rt,slider_2.response,slider_2.rt,rjt_rating,rjt_RT,trials_24.thisRepN,trials_24.thisTrialN,trials_24.thisN,trials_24.thisIndex,trials_24.ran,rjt_order,word1,word2,attention,participant,session,date,expName,psychopyVersion,OS,frameRate,trials_4.thisRepN,trials_4.thisTrialN,trials_4.thisN,trials_4.thisIndex,trials_4.ran,trials_5.thisRepN,trials_5.thisTrialN,trials_5.thisN,trials_5.thisIndex,trials_5.ran,repOne,repTwo,slider.response,slider.rt,trials_22.thisRepN,trials_22.thisTrialN,trials_22.thisN,trials_22.thisIndex,trials_22.ran,trials_99.thisRepN,trials_99.thisTrialN,trials_99.thisN,trials_99.thisIndex,trials_99.ran,slider_extend_2.response,slider_extend_2.rt,trials_6.thisRepN,trials_6.thisTrialN,trials_6.thisN,trials_6.thisIndex,trials_6.ran,vCue2,R1,R2,R3,R4,correct,sliderVocab.response,sliderVocab.rt,trials_7.thisRepN,trials_7.thisTrialN,trials_7.thisN,trials_7.thisIndex,trials_7.ran,VocabCue,VR1,VR2,VR3,VR4,VR5,VocabCorrect,AUT_resp,AUT_label,trials.thisRepN,trials.thisTrialN,trials.thisN,trials.thisIndex,trials.ran,trials_2.thisRepN,trials_2.thisTrialN,trials_2.thisN,trials_2.thisIndex,trials_2.ran,aut_prompt,VF_response,VF_tag,trials_16.thisRepN,trials_16.thisTrialN,trials_16.thisN,trials_16.thisIndex,trials_16.ran,trials_17.thisRepN,trials_17.thisTrialN,trials_17.thisN,trials_17.thisIndex,trials_17.ran,VFcond,open_slider.response,open_slider.rt,trials_3.thisRepN,trials_3.thisTrialN,trials_3.thisN,trials_3.thisIndex,trials_3.ran,OpenQ,Rev,OPEN_ORDER,key_resp_2.keys,key_resp_2.rt
return,6.4202,3,17.9833,3,17.9833,0,0,0,55,1,143,pretzel,rose,,89231,001,2022-04-26_16h49.43.732,SPAMnetsValid,2021.1.4,Win32,61.28577557,,,,,,,,,,,,,,,,,,,,,,,,,,,,,,,,,,,,,,,,,,,,,,,,,,,,,,,,,,,,,,,,,,,,,,,,,,,,,,,,,,,,,,,,,
,,6,3.0162,6,3.0162,0,1,1,76,1,102,chocolate,refrigerator,,89231,001,2022-04-26_16h49.43.732,SPAMnetsValid,2021.1.4,Win32,61.28577557,,,,,,,,,,,,,,,,,,,,,,,,,,,,,,,,,,,,,,,,,,,,,,,,,,,,,,,,,,,,,,,,,,,,,,,,,,,,,,,,,,,,,,,,,
,,8,2.1432,8,2.1432,0,2,2,48,1,186,kitchen,yogurt,,89231,001,2022-04-26_16h49.43.732,SPAMnetsValid,2021.1.4,Win32,61.28577557,,,,,,,,,,,,,,,,,,,,,,,,,,,,,,,,,,,,,,,,,,,,,,,,,,,,,,,,,,,,,,,,,,,,,,,,,,,,,,,,,,,,,,,,,
,,7,2.3611,7,2.3611,0,3,3,8,1,97,chocolate,kitchen,,89231,001,2022-04-26_16h49.43.732,SPAMnetsValid,2021.1.4,Win32,61.28577557,,,,,,,,,,,,,,,,,,,,,,,,,,,,,,,,,,,,,,,,,,,,,,,,,,,,,,,,,,,,,,,,,,,,,,,,,,,,,,,,,,,,,,,,,
,,1,2.2913,1,2.2913,0,4,4,74,1,128,melon,microwave,,89231,001,2022-04-26_16h49.43.732,SPAMnetsValid,2021.1.4,Win32,61.28577557,,,,,,,,,,,,,,,,,,,,,,,,,,,,,,,,,,,,,,,,,,,,,,,,,,,,,,,,,,,,,,,,,,,,,,,,,,,,,,,,,,,,,,,,,
,,3,3.1278,3,3.1278,0,5,5,4,1,109,broom,strawberry,,89231,001,2022-04-26_16h49.43.732,SPAMnetsValid,2021.1.4,Win32,61.28577557,,,,,,,,,,,,,,,,,,,,,,,,,,,,,,,,,,,,,,,,,,,,,,,,,,,,,,,,,,,,,,,,,,,,,,,,,,,,,,,,,,,,,,,,,
,,9,1.4302,9,1.4302,0,6,6,86,1,193,melon,melon,CHECK,89231,001,2022-04-26_16h49.43.732,SPAMnetsValid,2021.1.4,Win32,61.28577557,,,,,,,,,,,,,,,,,,,,,,,,,,,,,,,,,,,,,,,,,,,,,,,,,,,,,,,,,,,,,,,,,,,,,,,,,,,,,,,,,,,,,,,,,
,,6,4.5085,6,4.5085,0,7,7,87,1,114,cookie,strawberry,,89231,001,2022-04-26_16h49.43.732,SPAMnetsValid,2021.1.4,Win32,61.28577557,,,,,,,,,,,,,,,,,,,,,,,,,,,,,,,,,,,,,,,,,,,,,,,,,,,,,,,,,,,,,,,,,,,,,,,,,,,,,,,,,,,,,,,,,
,,2,4.3877,2,4.3877,0,8,8,46,1,123,cookie,tree,,89231,001,2022-04-26_16h49.43.732,SPAMnetsValid,2021.1.4,Win32,61.28577557,,,,,,,,,,,,,,,,,,,,,,,,,,,,,,,,,,,,,,,,,,,,,,,,,,,,,,,,,,,,,,,,,,,,,,,,,,,,,,,,,,,,,,,,,
,,7,3.8847,7,3.8847,0,9,9,93,1,134,carrot,flower,,89231,001,2022-04-26_16h49.43.732,SPAMnetsValid,2021.1.4,Win32,61.28577557,,,,,,,,,,,,,,,,,,,,,,,,,,,,,,,,,,,,,,,,,,,,,,,,,,,,,,,,,,,,,,,,,,,,,,,,,,,,,,,,,,,,,,,,,
,,2,3.0466,2,3.0466,0,10,10,3,1,129,cactus,refrigerator,,89231,001,2022-04-26_16h49.43.732,SPAMnetsValid,2021.1.4,Win32,61.28577557,,,,,,,,,,,,,,,,,,,,,,,,,,,,,,,,,,,,,,,,,,,,,,,,,,,,,,,,,,,,,,,,,,,,,,,,,,,,,,,,,,,,,,,,,
,,1,3.7411,1,3.7411,0,11,11,15,1,145,cactus,yogurt,,89231,001,2022-04-26_16h49.43.732,SPAMnetsValid,2021.1.4,Win32,61.28577557,,,,,,,,,,,,,,,,,,,,,,,,,,,,,,,,,,,,,,,,,,,,,,,,,,,,,,,,,,,,,,,,,,,,,,,,,,,,,,,,,,,,,,,,,
,,9,1.973,9,1.973,0,12,12,35,1,147,cake,refrigerator,,89231,001,2022-04-26_16h49.43.732,SPAMnetsValid,2021.1.4,Win32,61.28577557,,,,,,,,,,,,,,,,,,,,,,,,,,,,,,,,,,,,,,,,,,,,,,,,,,,,,,,,,,,,,,,,,,,,,,,,,,,,,,,,,,,,,,,,,
,,7,3.1251,7,3.1251,0,13,13,77,1,172,kitchen,melon,,89231,001,2022-04-26_16h49.43.732,SPAMnetsValid,2021.1.4,Win32,61.28577557,,,,,,,,,,,,,,,,,,,,,,,,,,,,,,,,,,,,,,,,,,,,,,,,,,,,,,,,,,,,,,,,,,,,,,,,,,,,,,,,,,,,,,,,,
,,8,2.2013,8,2.2013,0,14,14,22,1,142,garden,tree,,89231,001,2022-04-26_16h49.43.732,SPAMnetsValid,2021.1.4,Win32,61.28577557,,,,,,,,,,,,,,,,,,,,,,,,,,,,,,,,,,,,,,,,,,,,,,,,,,,,,,,,,,,,,,,,,,,,,,,,,,,,,,,,,,,,,,,,,
,,8,2.4039,8,2.4039,0,15,15,56,1,113,refrigerator,strawberry,,89231,001,2022-04-26_16h49.43.732,SPAMnetsValid,2021.1.4,Win32,61.28577557,,,,,,,,,,,,,,,,,,,,,,,,,,,,,,,,,,,,,,,,,,,,,,,,,,,,,,,,,,,,,,,,,,,,,,,,,,,,,,,,,,,,,,,,,
,,5,2.885,5,2.885,0,16,16,32,1,182,flower,refrigerator,,89231,001,2022-04-26_16h49.43.732,SPAMnetsValid,2021.1.4,Win32,61.28577557,,,,,,,,,,,,,,,,,,,,,,,,,,,,,,,,,,,,,,,,,,,,,,,,,,,,,,,,,,,,,,,,,,,,,,,,,,,,,,,,,,,,,,,,,
,,4,3.6157,4,3.6157,0,17,17,96,1,136,chocolate,microwave,,89231,001,2022-04-26_16h49.43.732,SPAMnetsValid,2021.1.4,Win32,61.28577557,,,,,,,,,,,,,,,,,,,,,,,,,,,,,,,,,,,,,,,,,,,,,,,,,,,,,,,,,,,,,,,,,,,,,,,,,,,,,,,,,,,,,,,,,
,,1,1.4505,1,1.4505,0,18,18,71,1,187,cactus,microwave,,89231,001,2022-04-26_16h49.43.732,SPAMnetsValid,2021.1.4,Win32,61.28577557,,,,,,,,,,,,,,,,,,,,,,,,,,,,,,,,,,,,,,,,,,,,,,,,,,,,,,,,,,,,,,,,,,,,,,,,,,,,,,,,,,,,,,,,,
,,9,2.407,9,2.407,0,19,19,60,1,122,flower,garden,,89231,001,2022-04-26_16h49.43.732,SPAMnetsValid,2021.1.4,Win32,61.28577557,,,,,,,,,,,,,,,,,,,,,,,,,,,,,,,,,,,,,,,,,,,,,,,,,,,,,,,,,,,,,,,,,,,,,,,,,,,,,,,,,,,,,,,,,
,,4,2.5699,4,2.5699,0,20,20,6,1,151,microwave,onion,,89231,001,2022-04-26_16h49.43.732,SPAMnetsValid,2021.1.4,Win32,61.28577557,,,,,,,,,,,,,,,,,,,,,,,,,,,,,,,,,,,,,,,,,,,,,,,,,,,,,,,,,,,,,,,,,,,,,,,,,,,,,,,,,,,,,,,,,
,,3,9.8688,3,9.8688,0,21,21,78,1,132,broom,tree,,89231,001,2022-04-26_16h49.43.732,SPAMnetsValid,2021.1.4,Win32,61.28577557,,,,,,,,,,,,,,,,,,,,,,,,,,,,,,,,,,,,,,,,,,,,,,,,,,,,,,,,,,,,,,,,,,,,,,,,,,,,,,,,,,,,,,,,,
,,8,1.7187,8,1.7187,0,22,22,7,1,188,flower,tree,,89231,001,2022-04-26_16h49.43.732,SPAMnetsValid,2021.1.4,Win32,61.28577557,,,,,,,,,,,,,,,,,,,,,,,,,,,,,,,,,,,,,,,,,,,,,,,,,,,,,,,,,,,,,,,,,,,,,,,,,,,,,,,,,,,,,,,,,
,,5,5.6314,5,5.6314,0,23,23,19,1,183,cake,rose,,89231,001,2022-04-26_16h49.43.732,SPAMnetsValid,2021.1.4,Win32,61.28577557,,,,,,,,,,,,,,,,,,,,,,,,,,,,,,,,,,,,,,,,,,,,,,,,,,,,,,,,,,,,,,,,,,,,,,,,,,,,,,,,,,,,,,,,,
,,2,3.6504,2,3.6504,0,24,24,20,1,149,broom,tomato,,89231,001,2022-04-26_16h49.43.732,SPAMnetsValid,2021.1.4,Win32,61.28577557,,,,,,,,,,,,,,,,,,,,,,,,,,,,,,,,,,,,,,,,,,,,,,,,,,,,,,,,,,,,,,,,,,,,,,,,,,,,,,,,,,,,,,,,,
,,6,13.99,6,13.99,0,25,25,91,1,166,cake,yogurt,,89231,001,2022-04-26_16h49.43.732,SPAMnetsValid,2021.1.4,Win32,61.28577557,,,,,,,,,,,,,,,,,,,,,,,,,,,,,,,,,,,,,,,,,,,,,,,,,,,,,,,,,,,,,,,,,,,,,,,,,,,,,,,,,,,,,,,,,
,,8,59.1893,8,59.1893,0,26,26,28,1,154,strawberry,yogurt,,89231,001,2022-04-26_16h49.43.732,SPAMnetsValid,2021.1.4,Win32,61.28577557,,,,,,,,,,,,,,,,,,,,,,,,,,,,,,,,,,,,,,,,,,,,,,,,,,,,,,,,,,,,,,,,,,,,,,,,,,,,,,,,,,,,,,,,,
,,5,6.1829,5,6.1829,0,27,27,40,1,165,onion,rose,,89231,001,2022-04-26_16h49.43.732,SPAMnetsValid,2021.1.4,Win32,61.28577557,,,,,,,,,,,,,,,,,,,,,,,,,,,,,,,,,,,,,,,,,,,,,,,,,,,,,,,,,,,,,,,,,,,,,,,,,,,,,,,,,,,,,,,,,
,,8,2.6938,8,2.6938,0,28,28,11,1,117,melon,strawberry,,89231,001,2022-04-26_16h49.43.732,SPAMnetsValid,2021.1.4,Win32,61.28577557,,,,,,,,,,,,,,,,,,,,,,,,,,,,,,,,,,,,,,,,,,,,,,,,,,,,,,,,,,,,,,,,,,,,,,,,,,,,,,,,,,,,,,,,,
,,1,2.4882,1,2.4882,0,29,29,84,1,130,microwave,yogurt,,89231,001,2022-04-26_16h49.43.732,SPAMnetsValid,2021.1.4,Win32,61.28577557,,,,,,,,,,,,,,,,,,,,,,,,,,,,,,,,,,,,,,,,,,,,,,,,,,,,,,,,,,,,,,,,,,,,,,,,,,,,,,,,,,,,,,,,,
,,2,5.136,2,5.136,0,30,30,45,1,179,broom,oven,,89231,001,2022-04-26_16h49.43.732,SPAMnetsValid,2021.1.4,Win32,61.28577557,,,,,,,,,,,,,,,,,,,,,,,,,,,,,,,,,,,,,,,,,,,,,,,,,,,,,,,,,,,,,,,,,,,,,,,,,,,,,,,,,,,,,,,,,
,,6,8.5058,6,8.5058,0,31,31,79,1,103,pretzel,tomato,,89231,001,2022-04-26_16h49.43.732,SPAMnetsValid,2021.1.4,Win32,61.28577557,,,,,,,,,,,,,,,,,,,,,,,,,,,,,,,,,,,,,,,,,,,,,,,,,,,,,,,,,,,,,,,,,,,,,,,,,,,,,,,,,,,,,,,,,
,,5,5.0982,5,5.0982,0,32,32,62,1,189,onion,tree,,89231,001,2022-04-26_16h49.43.732,SPAMnetsValid,2021.1.4,Win32,61.28577557,,,,,,,,,,,,,,,,,,,,,,,,,,,,,,,,,,,,,,,,,,,,,,,,,,,,,,,,,,,,,,,,,,,,,,,,,,,,,,,,,,,,,,,,,
,,9,2.8029,9,2.8029,0,33,33,52,1,110,chocolate,cookie,,89231,001,2022-04-26_16h49.43.732,SPAMnetsValid,2021.1.4,Win32,61.28577557,,,,,,,,,,,,,,,,,,,,,,,,,,,,,,,,,,,,,,,,,,,,,,,,,,,,,,,,,,,,,,,,,,,,,,,,,,,,,,,,,,,,,,,,,
,,5,3.2399,5,3.2399,0,34,34,2,1,174,cake,pretzel,,89231,001,2022-04-26_16h49.43.732,SPAMnetsValid,2021.1.4,Win32,61.28577557,,,,,,,,,,,,,,,,,,,,,,,,,,,,,,,,,,,,,,,,,,,,,,,,,,,,,,,,,,,,,,,,,,,,,,,,,,,,,,,,,,,,,,,,,
,,9,1.9071,9,1.9071,0,35,35,47,1,167,carrot,garden,,89231,001,2022-04-26_16h49.43.732,SPAMnetsValid,2021.1.4,Win32,61.28577557,,,,,,,,,,,,,,,,,,,,,,,,,,,,,,,,,,,,,,,,,,,,,,,,,,,,,,,,,,,,,,,,,,,,,,,,,,,,,,,,,,,,,,,,,
,,8,3.267,8,3.267,0,36,36,0,1,106,cake,strawberry,,89231,001,2022-04-26_16h49.43.732,SPAMnetsValid,2021.1.4,Win32,61.28577557,,,,,,,,,,,,,,,,,,,,,,,,,,,,,,,,,,,,,,,,,,,,,,,,,,,,,,,,,,,,,,,,,,,,,,,,,,,,,,,,,,,,,,,,,
,,3,11.6494,3,11.6494,0,37,37,50,1,126,kitchen,tree,,89231,001,2022-04-26_16h49.43.732,SPAMnetsValid,2021.1.4,Win32,61.28577557,,,,,,,,,,,,,,,,,,,,,,,,,,,,,,,,,,,,,,,,,,,,,,,,,,,,,,,,,,,,,,,,,,,,,,,,,,,,,,,,,,,,,,,,,
,,4,6.2307,4,6.2307,0,38,38,67,1,96,oven,strawberry,,89231,001,2022-04-26_16h49.43.732,SPAMnetsValid,2021.1.4,Win32,61.28577557,,,,,,,,,,,,,,,,,,,,,,,,,,,,,,,,,,,,,,,,,,,,,,,,,,,,,,,,,,,,,,,,,,,,,,,,,,,,,,,,,,,,,,,,,
,,9,2.3728,9,2.3728,0,39,39,44,1,116,cake,chocolate,,89231,001,2022-04-26_16h49.43.732,SPAMnetsValid,2021.1.4,Win32,61.28577557,,,,,,,,,,,,,,,,,,,,,,,,,,,,,,,,,,,,,,,,,,,,,,,,,,,,,,,,,,,,,,,,,,,,,,,,,,,,,,,,,,,,,,,,,
,,5,4.8846,5,4.8846,0,40,40,38,1,155,carrot,cookie,,89231,001,2022-04-26_16h49.43.732,SPAMnetsValid,2021.1.4,Win32,61.28577557,,,,,,,,,,,,,,,,,,,,,,,,,,,,,,,,,,,,,,,,,,,,,,,,,,,,,,,,,,,,,,,,,,,,,,,,,,,,,,,,,,,,,,,,,
,,5,16.3184,5,16.3184,0,41,41,23,1,148,flower,melon,,89231,001,2022-04-26_16h49.43.732,SPAMnetsValid,2021.1.4,Win32,61.28577557,,,,,,,,,,,,,,,,,,,,,,,,,,,,,,,,,,,,,,,,,,,,,,,,,,,,,,,,,,,,,,,,,,,,,,,,,,,,,,,,,,,,,,,,,
,,2,7.4966,2,7.4966,0,42,42,13,1,105,cactus,oven,,89231,001,2022-04-26_16h49.43.732,SPAMnetsValid,2021.1.4,Win32,61.28577557,,,,,,,,,,,,,,,,,,,,,,,,,,,,,,,,,,,,,,,,,,,,,,,,,,,,,,,,,,,,,,,,,,,,,,,,,,,,,,,,,,,,,,,,,
,,3,6.0139,3,6.0139,0,43,43,21,1,159,cookie,flower,,89231,001,2022-04-26_16h49.43.732,SPAMnetsValid,2021.1.4,Win32,61.28577557,,,,,,,,,,,,,,,,,,,,,,,,,,,,,,,,,,,,,,,,,,,,,,,,,,,,,,,,,,,,,,,,,,,,,,,,,,,,,,,,,,,,,,,,,
,,6,3.1792,6,3.1792,0,44,44,30,1,125,carrot,tree,,89231,001,2022-04-26_16h49.43.732,SPAMnetsValid,2021.1.4,Win32,61.28577557,,,,,,,,,,,,,,,,,,,,,,,,,,,,,,,,,,,,,,,,,,,,,,,,,,,,,,,,,,,,,,,,,,,,,,,,,,,,,,,,,,,,,,,,,
,,9,8.1955,9,8.1955,0,45,45,25,1,194,cactus,cactus,CHECK,89231,001,2022-04-26_16h49.43.732,SPAMnetsValid,2021.1.4,Win32,61.28577557,,,,,,,,,,,,,,,,,,,,,,,,,,,,,,,,,,,,,,,,,,,,,,,,,,,,,,,,,,,,,,,,,,,,,,,,,,,,,,,,,,,,,,,,,
,,6,3.3118,6,3.3118,0,46,46,75,1,178,cactus,carrot,,89231,001,2022-04-26_16h49.43.732,SPAMnetsValid,2021.1.4,Win32,61.28577557,,,,,,,,,,,,,,,,,,,,,,,,,,,,,,,,,,,,,,,,,,,,,,,,,,,,,,,,,,,,,,,,,,,,,,,,,,,,,,,,,,,,,,,,,
,,8,3.6853,8,3.6853,0,47,47,37,1,139,carrot,strawberry,,89231,001,2022-04-26_16h49.43.732,SPAMnetsValid,2021.1.4,Win32,61.28577557,,,,,,,,,,,,,,,,,,,,,,,,,,,,,,,,,,,,,,,,,,,,,,,,,,,,,,,,,,,,,,,,,,,,,,,,,,,,,,,,,,,,,,,,,
,,8,4.6206,8,4.6206,0,48,48,92,1,170,cookie,microwave,,89231,001,2022-04-26_16h49.43.732,SPAMnetsValid,2021.1.4,Win32,61.28577557,,,,,,,,,,,,,,,,,,,,,,,,,,,,,,,,,,,,,,,,,,,,,,,,,,,,,,,,,,,,,,,,,,,,,,,,,,,,,,,,,,,,,,,,,
,,5,4.033,5,4.033,0,49,49,31,1,156,melon,rose,,89231,001,2022-04-26_16h49.43.732,SPAMnetsValid,2021.1.4,Win32,61.28577557,,,,,,,,,,,,,,,,,,,,,,,,,,,,,,,,,,,,,,,,,,,,,,,,,,,,,,,,,,,,,,,,,,,,,,,,,,,,,,,,,,,,,,,,,
,,8,2.5093,8,2.5093,0,50,50,70,1,141,melon,tomato,,89231,001,2022-04-26_16h49.43.732,SPAMnetsValid,2021.1.4,Win32,61.28577557,,,,,,,,,,,,,,,,,,,,,,,,,,,,,,,,,,,,,,,,,,,,,,,,,,,,,,,,,,,,,,,,,,,,,,,,,,,,,,,,,,,,,,,,,
,,2,14.3813,2,14.3813,0,51,51,59,1,164,cookie,garden,,89231,001,2022-04-26_16h49.43.732,SPAMnetsValid,2021.1.4,Win32,61.28577557,,,,,,,,,,,,,,,,,,,,,,,,,,,,,,,,,,,,,,,,,,,,,,,,,,,,,,,,,,,,,,,,,,,,,,,,,,,,,,,,,,,,,,,,,
,,2,4.1171,2,4.1171,0,52,52,58,1,144,cake,garden,,89231,001,2022-04-26_16h49.43.732,SPAMnetsValid,2021.1.4,Win32,61.28577557,,,,,,,,,,,,,,,,,,,,,,,,,,,,,,,,,,,,,,,,,,,,,,,,,,,,,,,,,,,,,,,,,,,,,,,,,,,,,,,,,,,,,,,,,
,,9,2.2308,9,2.2308,0,53,53,65,1,160,cookie,kitchen,,89231,001,2022-04-26_16h49.43.732,SPAMnetsValid,2021.1.4,Win32,61.28577557,,,,,,,,,,,,,,,,,,,,,,,,,,,,,,,,,,,,,,,,,,,,,,,,,,,,,,,,,,,,,,,,,,,,,,,,,,,,,,,,,,,,,,,,,
,,6,2.2567,6,2.2567,0,54,54,49,1,152,cactus,strawberry,,89231,001,2022-04-26_16h49.43.732,SPAMnetsValid,2021.1.4,Win32,61.28577557,,,,,,,,,,,,,,,,,,,,,,,,,,,,,,,,,,,,,,,,,,,,,,,,,,,,,,,,,,,,,,,,,,,,,,,,,,,,,,,,,,,,,,,,,
,,7,2.8342,7,2.8342,0,55,55,43,1,185,cactus,rose,,89231,001,2022-04-26_16h49.43.732,SPAMnetsValid,2021.1.4,Win32,61.28577557,,,,,,,,,,,,,,,,,,,,,,,,,,,,,,,,,,,,,,,,,,,,,,,,,,,,,,,,,,,,,,,,,,,,,,,,,,,,,,,,,,,,,,,,,
,,3,26.1192,3,26.1192,0,56,56,94,1,133,cake,flower,,89231,001,2022-04-26_16h49.43.732,SPAMnetsValid,2021.1.4,Win32,61.28577557,,,,,,,,,,,,,,,,,,,,,,,,,,,,,,,,,,,,,,,,,,,,,,,,,,,,,,,,,,,,,,,,,,,,,,,,,,,,,,,,,,,,,,,,,
,,1,2.1959,1,2.1959,0,57,57,81,1,104,garden,microwave,,89231,001,2022-04-26_16h49.43.732,SPAMnetsValid,2021.1.4,Win32,61.28577557,,,,,,,,,,,,,,,,,,,,,,,,,,,,,,,,,,,,,,,,,,,,,,,,,,,,,,,,,,,,,,,,,,,,,,,,,,,,,,,,,,,,,,,,,
,,8,3.8824,8,3.8824,0,58,58,36,1,161,kitchen,pretzel,,89231,001,2022-04-26_16h49.43.732,SPAMnetsValid,2021.1.4,Win32,61.28577557,,,,,,,,,,,,,,,,,,,,,,,,,,,,,,,,,,,,,,,,,,,,,,,,,,,,,,,,,,,,,,,,,,,,,,,,,,,,,,,,,,,,,,,,,
,,7,2.5334,7,2.5334,0,59,59,41,1,175,melon,onion,,89231,001,2022-04-26_16h49.43.732,SPAMnetsValid,2021.1.4,Win32,61.28577557,,,,,,,,,,,,,,,,,,,,,,,,,,,,,,,,,,,,,,,,,,,,,,,,,,,,,,,,,,,,,,,,,,,,,,,,,,,,,,,,,,,,,,,,,
,,9,3.9594,9,3.9594,0,60,60,27,1,158,cookie,oven,,89231,001,2022-04-26_16h49.43.732,SPAMnetsValid,2021.1.4,Win32,61.28577557,,,,,,,,,,,,,,,,,,,,,,,,,,,,,,,,,,,,,,,,,,,,,,,,,,,,,,,,,,,,,,,,,,,,,,,,,,,,,,,,,,,,,,,,,
,,3,10.7619,3,10.7619,0,61,61,12,1,162,microwave,tomato,,89231,001,2022-04-26_16h49.43.732,SPAMnetsValid,2021.1.4,Win32,61.28577557,,,,,,,,,,,,,,,,,,,,,,,,,,,,,,,,,,,,,,,,,,,,,,,,,,,,,,,,,,,,,,,,,,,,,,,,,,,,,,,,,,,,,,,,,
,,6,2.4519,6,2.4519,0,62,62,26,1,107,rose,tomato,,89231,001,2022-04-26_16h49.43.732,SPAMnetsValid,2021.1.4,Win32,61.28577557,,,,,,,,,,,,,,,,,,,,,,,,,,,,,,,,,,,,,,,,,,,,,,,,,,,,,,,,,,,,,,,,,,,,,,,,,,,,,,,,,,,,,,,,,
,,3,4.6094,3,4.6094,0,63,63,34,1,153,carrot,pretzel,,89231,001,2022-04-26_16h49.43.732,SPAMnetsValid,2021.1.4,Win32,61.28577557,,,,,,,,,,,,,,,,,,,,,,,,,,,,,,,,,,,,,,,,,,,,,,,,,,,,,,,,,,,,,,,,,,,,,,,,,,,,,,,,,,,,,,,,,
,,9,4.2869,9,4.2869,0,64,64,61,1,138,flower,rose,,89231,001,2022-04-26_16h49.43.732,SPAMnetsValid,2021.1.4,Win32,61.28577557,,,,,,,,,,,,,,,,,,,,,,,,,,,,,,,,,,,,,,,,,,,,,,,,,,,,,,,,,,,,,,,,,,,,,,,,,,,,,,,,,,,,,,,,,
,,3,3.893,3,3.893,0,65,65,88,1,171,cake,tomato,,89231,001,2022-04-26_16h49.43.732,SPAMnetsValid,2021.1.4,Win32,61.28577557,,,,,,,,,,,,,,,,,,,,,,,,,,,,,,,,,,,,,,,,,,,,,,,,,,,,,,,,,,,,,,,,,,,,,,,,,,,,,,,,,,,,,,,,,
,,4,9.0628,4,9.0628,0,66,66,18,1,119,strawberry,tree,,89231,001,2022-04-26_16h49.43.732,SPAMnetsValid,2021.1.4,Win32,61.28577557,,,,,,,,,,,,,,,,,,,,,,,,,,,,,,,,,,,,,,,,,,,,,,,,,,,,,,,,,,,,,,,,,,,,,,,,,,,,,,,,,,,,,,,,,
,,3,5.0392,3,5.0392,0,67,67,5,1,108,carrot,chocolate,,89231,001,2022-04-26_16h49.43.732,SPAMnetsValid,2021.1.4,Win32,61.28577557,,,,,,,,,,,,,,,,,,,,,,,,,,,,,,,,,,,,,,,,,,,,,,,,,,,,,,,,,,,,,,,,,,,,,,,,,,,,,,,,,,,,,,,,,
,,7,22.9593,7,22.9593,0,68,68,33,1,131,cactus,garden,,89231,001,2022-04-26_16h49.43.732,SPAMnetsValid,2021.1.4,Win32,61.28577557,,,,,,,,,,,,,,,,,,,,,,,,,,,,,,,,,,,,,,,,,,,,,,,,,,,,,,,,,,,,,,,,,,,,,,,,,,,,,,,,,,,,,,,,,
,,2,2.1293,2,2.1293,0,69,69,68,1,180,tree,yogurt,,89231,001,2022-04-26_16h49.43.732,SPAMnetsValid,2021.1.4,Win32,61.28577557,,,,,,,,,,,,,,,,,,,,,,,,,,,,,,,,,,,,,,,,,,,,,,,,,,,,,,,,,,,,,,,,,,,,,,,,,,,,,,,,,,,,,,,,,
,,8,2.6233,8,2.6233,0,70,70,10,1,118,chocolate,oven,,89231,001,2022-04-26_16h49.43.732,SPAMnetsValid,2021.1.4,Win32,61.28577557,,,,,,,,,,,,,,,,,,,,,,,,,,,,,,,,,,,,,,,,,,,,,,,,,,,,,,,,,,,,,,,,,,,,,,,,,,,,,,,,,,,,,,,,,
,,9,1.6045,9,1.6045,0,71,71,83,1,100,garden,tomato,,89231,001,2022-04-26_16h49.43.732,SPAMnetsValid,2021.1.4,Win32,61.28577557,,,,,,,,,,,,,,,,,,,,,,,,,,,,,,,,,,,,,,,,,,,,,,,,,,,,,,,,,,,,,,,,,,,,,,,,,,,,,,,,,,,,,,,,,
,,8,10.7436,8,10.7436,0,72,72,89,1,140,cookie,refrigerator,,89231,001,2022-04-26_16h49.43.732,SPAMnetsValid,2021.1.4,Win32,61.28577557,,,,,,,,,,,,,,,,,,,,,,,,,,,,,,,,,,,,,,,,,,,,,,,,,,,,,,,,,,,,,,,,,,,,,,,,,,,,,,,,,,,,,,,,,
,,7,2.0425,7,2.0425,0,73,73,51,1,168,cactus,flower,,89231,001,2022-04-26_16h49.43.732,SPAMnetsValid,2021.1.4,Win32,61.28577557,,,,,,,,,,,,,,,,,,,,,,,,,,,,,,,,,,,,,,,,,,,,,,,,,,,,,,,,,,,,,,,,,,,,,,,,,,,,,,,,,,,,,,,,,
,,1,8.1475,1,8.1475,0,74,74,80,1,146,pretzel,tree,,89231,001,2022-04-26_16h49.43.732,SPAMnetsValid,2021.1.4,Win32,61.28577557,,,,,,,,,,,,,,,,,,,,,,,,,,,,,,,,,,,,,,,,,,,,,,,,,,,,,,,,,,,,,,,,,,,,,,,,,,,,,,,,,,,,,,,,,
,,8,3.2248,8,3.2248,0,75,75,17,1,99,garden,melon,,89231,001,2022-04-26_16h49.43.732,SPAMnetsValid,2021.1.4,Win32,61.28577557,,,,,,,,,,,,,,,,,,,,,,,,,,,,,,,,,,,,,,,,,,,,,,,,,,,,,,,,,,,,,,,,,,,,,,,,,,,,,,,,,,,,,,,,,
,,6,11.6048,6,11.6048,0,76,76,64,1,157,refrigerator,rose,,89231,001,2022-04-26_16h49.43.732,SPAMnetsValid,2021.1.4,Win32,61.28577557,,,,,,,,,,,,,,,,,,,,,,,,,,,,,,,,,,,,,,,,,,,,,,,,,,,,,,,,,,,,,,,,,,,,,,,,,,,,,,,,,,,,,,,,,
,,9,3.3476,9,3.3476,0,77,77,42,1,184,oven,pretzel,,89231,001,2022-04-26_16h49.43.732,SPAMnetsValid,2021.1.4,Win32,61.28577557,,,,,,,,,,,,,,,,,,,,,,,,,,,,,,,,,,,,,,,,,,,,,,,,,,,,,,,,,,,,,,,,,,,,,,,,,,,,,,,,,,,,,,,,,
,,9,2.3167,9,2.3167,0,78,78,39,1,112,cake,carrot,,89231,001,2022-04-26_16h49.43.732,SPAMnetsValid,2021.1.4,Win32,61.28577557,,,,,,,,,,,,,,,,,,,,,,,,,,,,,,,,,,,,,,,,,,,,,,,,,,,,,,,,,,,,,,,,,,,,,,,,,,,,,,,,,,,,,,,,,
,,7,2.2659,7,2.2659,0,79,79,72,1,181,carrot,kitchen,,89231,001,2022-04-26_16h49.43.732,SPAMnetsValid,2021.1.4,Win32,61.28577557,,,,,,,,,,,,,,,,,,,,,,,,,,,,,,,,,,,,,,,,,,,,,,,,,,,,,,,,,,,,,,,,,,,,,,,,,,,,,,,,,,,,,,,,,
,,4,3.8992,4,3.8992,0,80,80,16,1,111,carrot,microwave,,89231,001,2022-04-26_16h49.43.732,SPAMnetsValid,2021.1.4,Win32,61.28577557,,,,,,,,,,,,,,,,,,,,,,,,,,,,,,,,,,,,,,,,,,,,,,,,,,,,,,,,,,,,,,,,,,,,,,,,,,,,,,,,,,,,,,,,,
,,4,3.3872,4,3.3872,0,81,81,90,1,190,microwave,strawberry,,89231,001,2022-04-26_16h49.43.732,SPAMnetsValid,2021.1.4,Win32,61.28577557,,,,,,,,,,,,,,,,,,,,,,,,,,,,,,,,,,,,,,,,,,,,,,,,,,,,,,,,,,,,,,,,,,,,,,,,,,,,,,,,,,,,,,,,,
,,7,2.2059,7,2.2059,0,82,82,85,1,115,refrigerator,tomato,,89231,001,2022-04-26_16h49.43.732,SPAMnetsValid,2021.1.4,Win32,61.28577557,,,,,,,,,,,,,,,,,,,,,,,,,,,,,,,,,,,,,,,,,,,,,,,,,,,,,,,,,,,,,,,,,,,,,,,,,,,,,,,,,,,,,,,,,
,,5,3.678,5,3.678,0,83,83,9,1,176,cactus,tomato,,89231,001,2022-04-26_16h49.43.732,SPAMnetsValid,2021.1.4,Win32,61.28577557,,,,,,,,,,,,,,,,,,,,,,,,,,,,,,,,,,,,,,,,,,,,,,,,,,,,,,,,,,,,,,,,,,,,,,,,,,,,,,,,,,,,,,,,,
,,8,4.5174,8,4.5174,0,84,84,53,1,177,chocolate,strawberry,,89231,001,2022-04-26_16h49.43.732,SPAMnetsValid,2021.1.4,Win32,61.28577557,,,,,,,,,,,,,,,,,,,,,,,,,,,,,,,,,,,,,,,,,,,,,,,,,,,,,,,,,,,,,,,,,,,,,,,,,,,,,,,,,,,,,,,,,
,,9,6.5887,9,6.5887,0,85,85,66,1,150,microwave,refrigerator,,89231,001,2022-04-26_16h49.43.732,SPAMnetsValid,2021.1.4,Win32,61.28577557,,,,,,,,,,,,,,,,,,,,,,,,,,,,,,,,,,,,,,,,,,,,,,,,,,,,,,,,,,,,,,,,,,,,,,,,,,,,,,,,,,,,,,,,,
,,2,3.2361,2,3.2361,0,86,86,24,1,169,onion,yogurt,,89231,001,2022-04-26_16h49.43.732,SPAMnetsValid,2021.1.4,Win32,61.28577557,,,,,,,,,,,,,,,,,,,,,,,,,,,,,,,,,,,,,,,,,,,,,,,,,,,,,,,,,,,,,,,,,,,,,,,,,,,,,,,,,,,,,,,,,
,,3,3.1758,3,3.1758,0,87,87,82,1,98,pretzel,strawberry,,89231,001,2022-04-26_16h49.43.732,SPAMnetsValid,2021.1.4,Win32,61.28577557,,,,,,,,,,,,,,,,,,,,,,,,,,,,,,,,,,,,,,,,,,,,,,,,,,,,,,,,,,,,,,,,,,,,,,,,,,,,,,,,,,,,,,,,,
,,9,2.6089,9,2.6089,0,88,88,14,1,120,microwave,oven,,89231,001,2022-04-26_16h49.43.732,SPAMnetsValid,2021.1.4,Win32,61.28577557,,,,,,,,,,,,,,,,,,,,,,,,,,,,,,,,,,,,,,,,,,,,,,,,,,,,,,,,,,,,,,,,,,,,,,,,,,,,,,,,,,,,,,,,,
,,3,5.0084,3,5.0084,0,89,89,95,1,121,broom,microwave,,89231,001,2022-04-26_16h49.43.732,SPAMnetsValid,2021.1.4,Win32,61.28577557,,,,,,,,,,,,,,,,,,,,,,,,,,,,,,,,,,,,,,,,,,,,,,,,,,,,,,,,,,,,,,,,,,,,,,,,,,,,,,,,,,,,,,,,,
,,2,4.0672,2,4.0672,0,90,90,63,1,137,microwave,tree,,89231,001,2022-04-26_16h49.43.732,SPAMnetsValid,2021.1.4,Win32,61.28577557,,,,,,,,,,,,,,,,,,,,,,,,,,,,,,,,,,,,,,,,,,,,,,,,,,,,,,,,,,,,,,,,,,,,,,,,,,,,,,,,,,,,,,,,,
,,5,6.8707,5,6.8707,0,91,91,54,1,101,cactus,kitchen,,89231,001,2022-04-26_16h49.43.732,SPAMnetsValid,2021.1.4,Win32,61.28577557,,,,,,,,,,,,,,,,,,,,,,,,,,,,,,,,,,,,,,,,,,,,,,,,,,,,,,,,,,,,,,,,,,,,,,,,,,,,,,,,,,,,,,,,,
,,4,6.6142,4,6.6142,0,92,92,57,1,127,cactus,chocolate,,89231,001,2022-04-26_16h49.43.732,SPAMnetsValid,2021.1.4,Win32,61.28577557,,,,,,,,,,,,,,,,,,,,,,,,,,,,,,,,,,,,,,,,,,,,,,,,,,,,,,,,,,,,,,,,,,,,,,,,,,,,,,,,,,,,,,,,,
,,8,2.5576,8,2.5576,0,93,93,29,1,163,melon,refrigerator,,89231,001,2022-04-26_16h49.43.732,SPAMnetsValid,2021.1.4,Win32,61.28577557,,,,,,,,,,,,,,,,,,,,,,,,,,,,,,,,,,,,,,,,,,,,,,,,,,,,,,,,,,,,,,,,,,,,,,,,,,,,,,,,,,,,,,,,,
,,8,5.4231,8,5.4231,0,94,94,1,1,173,kitchen,tomato,,89231,001,2022-04-26_16h49.43.732,SPAMnetsValid,2021.1.4,Win32,61.28577557,,,,,,,,,,,,,,,,,,,,,,,,,,,,,,,,,,,,,,,,,,,,,,,,,,,,,,,,,,,,,,,,,,,,,,,,,,,,,,,,,,,,,,,,,
,,6,2.3511,6,2.3511,0,95,95,73,1,135,carrot,oven,,89231,001,2022-04-26_16h49.43.732,SPAMnetsValid,2021.1.4,Win32,61.28577557,,,,,,,,,,,,,,,,,,,,,,,,,,,,,,,,,,,,,,,,,,,,,,,,,,,,,,,,,,,,,,,,,,,,,,,,,,,,,,,,,,,,,,,,,
,,9,1.9411,9,1.9411,0,96,96,69,1,124,oven,refrigerator,,89231,001,2022-04-26_16h49.43.732,SPAMnetsValid,2021.1.4,Win32,61.28577557,,,,,,,,,,,,,,,,,,,,,,,,,,,,,,,,,,,,,,,,,,,,,,,,,,,,,,,,,,,,,,,,,,,,,,,,,,,,,,,,,,,,,,,,,
,,,,,,,,,,,,,,,89231,001,2022-04-26_16h49.43.732,SPAMnetsValid,2021.1.4,Win32,61.28577557,0,0,0,0,1,,,,,,,,,,,,,,,,,,,,,,,,,,,,,,,,,,,,,,,,,,,,,,,,,,,,,,,,,,,,,,,,,,,,,,,,,,,,,,,,,,,,
,,,,,,,,,,,,,,,89231,001,2022-04-26_16h49.43.732,SPAMnetsValid,2021.1.4,Win32,61.28577557,,,,,,0,0,0,1,1,0,1,,,,,,,,,,,,,,,,,,,,,,,,,,,,,,,,,,,,,,,,,,,,,,,,,,,,,,,,,,,,,,,,,,,,,,,,,,,,,
,,,,6,7.3883,,,,,,49,flower,strawberry,,89231,001,2022-04-26_16h49.43.732,SPAMnetsValid,2021.1.4,Win32,61.28577557,,,,,,,,,,,,,6,7.3883,0,0,0,3,1,,,,,,,,,,,,,,,,,,,,,,,,,,,,,,,,,,,,,,,,,,,,,,,,,,,,,,,,,,,,,,,,,,,,,,
,,,,6,1.3777,,,,,,59,rose,strawberry,,89231,001,2022-04-26_16h49.43.732,SPAMnetsValid,2021.1.4,Win32,61.28577557,,,,,,,,,,,,,6,1.3777,0,1,1,72,1,,,,,,,,,,,,,,,,,,,,,,,,,,,,,,,,,,,,,,,,,,,,,,,,,,,,,,,,,,,,,,,,,,,,,,
,,,,3,3.6864,,,,,,95,broom,refrigerator,,89231,001,2022-04-26_16h49.43.732,SPAMnetsValid,2021.1.4,Win32,61.28577557,,,,,,,,,,,,,3,3.6864,0,2,2,90,1,,,,,,,,,,,,,,,,,,,,,,,,,,,,,,,,,,,,,,,,,,,,,,,,,,,,,,,,,,,,,,,,,,,,,,
,,,,5,2.5177,,,,,,1,rose,yogurt,,89231,001,2022-04-26_16h49.43.732,SPAMnetsValid,2021.1.4,Win32,61.28577557,,,,,,,,,,,,,5,2.5177,0,3,3,55,1,,,,,,,,,,,,,,,,,,,,,,,,,,,,,,,,,,,,,,,,,,,,,,,,,,,,,,,,,,,,,,,,,,,,,,
,,,,5,3.7611,,,,,,58,garden,oven,,89231,001,2022-04-26_16h49.43.732,SPAMnetsValid,2021.1.4,Win32,61.28577557,,,,,,,,,,,,,5,3.7611,0,4,4,37,1,,,,,,,,,,,,,,,,,,,,,,,,,,,,,,,,,,,,,,,,,,,,,,,,,,,,,,,,,,,,,,,,,,,,,,
,,,,6,4.6872,,,,,,51,onion,strawberry,,89231,001,2022-04-26_16h49.43.732,SPAMnetsValid,2021.1.4,Win32,61.28577557,,,,,,,,,,,,,6,4.6872,0,5,5,86,1,,,,,,,,,,,,,,,,,,,,,,,,,,,,,,,,,,,,,,,,,,,,,,,,,,,,,,,,,,,,,,,,,,,,,,
,,,,8,2.9221,,,,,,82,cake,kitchen,,89231,001,2022-04-26_16h49.43.732,SPAMnetsValid,2021.1.4,Win32,61.28577557,,,,,,,,,,,,,8,2.9221,0,6,6,96,1,,,,,,,,,,,,,,,,,,,,,,,,,,,,,,,,,,,,,,,,,,,,,,,,,,,,,,,,,,,,,,,,,,,,,,
,,,,3,5.3155,,,,,,87,carrot,yogurt,,89231,001,2022-04-26_16h49.43.732,SPAMnetsValid,2021.1.4,Win32,61.28577557,,,,,,,,,,,,,3,5.3155,0,7,7,6,1,,,,,,,,,,,,,,,,,,,,,,,,,,,,,,,,,,,,,,,,,,,,,,,,,,,,,,,,,,,,,,,,,,,,,,
,,,,1,2.5376,,,,,,72,broom,onion,,89231,001,2022-04-26_16h49.43.732,SPAMnetsValid,2021.1.4,Win32,61.28577557,,,,,,,,,,,,,1,2.5376,0,8,8,27,1,,,,,,,,,,,,,,,,,,,,,,,,,,,,,,,,,,,,,,,,,,,,,,,,,,,,,,,,,,,,,,,,,,,,,,
,,,,8,4.4997,,,,,,63,cake,cookie,,89231,001,2022-04-26_16h49.43.732,SPAMnetsValid,2021.1.4,Win32,61.28577557,,,,,,,,,,,,,8,4.4997,0,9,9,93,1,,,,,,,,,,,,,,,,,,,,,,,,,,,,,,,,,,,,,,,,,,,,,,,,,,,,,,,,,,,,,,,,,,,,,,
,,,,7,2.124,,,,,,2,kitchen,onion,,89231,001,2022-04-26_16h49.43.732,SPAMnetsValid,2021.1.4,Win32,61.28577557,,,,,,,,,,,,,7,2.124,0,10,10,91,1,,,,,,,,,,,,,,,,,,,,,,,,,,,,,,,,,,,,,,,,,,,,,,,,,,,,,,,,,,,,,,,,,,,,,,
,,,,2,3.3704,,,,,,48,flower,oven,,89231,001,2022-04-26_16h49.43.732,SPAMnetsValid,2021.1.4,Win32,61.28577557,,,,,,,,,,,,,2,3.3704,0,11,11,15,1,,,,,,,,,,,,,,,,,,,,,,,,,,,,,,,,,,,,,,,,,,,,,,,,,,,,,,,,,,,,,,,,,,,,,,
,,,,7,4.2475,,,,,,19,microwave,pretzel,,89231,001,2022-04-26_16h49.43.732,SPAMnetsValid,2021.1.4,Win32,61.28577557,,,,,,,,,,,,,7,4.2475,0,12,12,41,1,,,,,,,,,,,,,,,,,,,,,,,,,,,,,,,,,,,,,,,,,,,,,,,,,,,,,,,,,,,,,,,,,,,,,,
,,,,8,2.4515,,,,,,47,onion,tomato,,89231,001,2022-04-26_16h49.43.732,SPAMnetsValid,2021.1.4,Win32,61.28577557,,,,,,,,,,,,,8,2.4515,0,13,13,51,1,,,,,,,,,,,,,,,,,,,,,,,,,,,,,,,,,,,,,,,,,,,,,,,,,,,,,,,,,,,,,,,,,,,,,,
,,,,8,19.3696,,,,,,54,chocolate,yogurt,,89231,001,2022-04-26_16h49.43.732,SPAMnetsValid,2021.1.4,Win32,61.28577557,,,,,,,,,,,,,8,19.3696,0,14,14,67,1,,,,,,,,,,,,,,,,,,,,,,,,,,,,,,,,,,,,,,,,,,,,,,,,,,,,,,,,,,,,,,,,,,,,,,
,,,,6,2.6792,,,,,,57,flower,kitchen,,89231,001,2022-04-26_16h49.43.732,SPAMnetsValid,2021.1.4,Win32,61.28577557,,,,,,,,,,,,,6,2.6792,0,15,15,49,1,,,,,,,,,,,,,,,,,,,,,,,,,,,,,,,,,,,,,,,,,,,,,,,,,,,,,,,,,,,,,,,,,,,,,,
,,,,9,1.7371,,,,,,94,kitchen,microwave,,89231,001,2022-04-26_16h49.43.732,SPAMnetsValid,2021.1.4,Win32,61.28577557,,,,,,,,,,,,,9,1.7371,0,16,16,58,1,,,,,,,,,,,,,,,,,,,,,,,,,,,,,,,,,,,,,,,,,,,,,,,,,,,,,,,,,,,,,,,,,,,,,,
,,,,3,4.2834,,,,,,40,broom,cake,,89231,001,2022-04-26_16h49.43.732,SPAMnetsValid,2021.1.4,Win32,61.28577557,,,,,,,,,,,,,3,4.2834,0,17,17,32,1,,,,,,,,,,,,,,,,,,,,,,,,,,,,,,,,,,,,,,,,,,,,,,,,,,,,,,,,,,,,,,,,,,,,,,
,,,,6,2.2823,,,,,,15,onion,oven,,89231,001,2022-04-26_16h49.43.732,SPAMnetsValid,2021.1.4,Win32,61.28577557,,,,,,,,,,,,,6,2.2823,0,18,18,39,1,,,,,,,,,,,,,,,,,,,,,,,,,,,,,,,,,,,,,,,,,,,,,,,,,,,,,,,,,,,,,,,,,,,,,,
,,,,9,1.6266,,,,,,3,cake,oven,,89231,001,2022-04-26_16h49.43.732,SPAMnetsValid,2021.1.4,Win32,61.28577557,,,,,,,,,,,,,9,1.6266,0,19,19,30,1,,,,,,,,,,,,,,,,,,,,,,,,,,,,,,,,,,,,,,,,,,,,,,,,,,,,,,,,,,,,,,,,,,,,,,
,,,,6,1.8007,,,,,,21,cake,onion,,89231,001,2022-04-26_16h49.43.732,SPAMnetsValid,2021.1.4,Win32,61.28577557,,,,,,,,,,,,,6,1.8007,0,20,20,63,1,,,,,,,,,,,,,,,,,,,,,,,,,,,,,,,,,,,,,,,,,,,,,,,,,,,,,,,,,,,,,,,,,,,,,,
,,,,2,2.627,,,,,,46,garden,yogurt,,89231,001,2022-04-26_16h49.43.732,SPAMnetsValid,2021.1.4,Win32,61.28577557,,,,,,,,,,,,,2,2.627,0,21,21,65,1,,,,,,,,,,,,,,,,,,,,,,,,,,,,,,,,,,,,,,,,,,,,,,,,,,,,,,,,,,,,,,,,,,,,,,
,,,,5,4.1859,,,,,,29,chocolate,melon,,89231,001,2022-04-26_16h49.43.732,SPAMnetsValid,2021.1.4,Win32,61.28577557,,,,,,,,,,,,,5,4.1859,0,22,22,34,1,,,,,,,,,,,,,,,,,,,,,,,,,,,,,,,,,,,,,,,,,,,,,,,,,,,,,,,,,,,,,,,,,,,,,,
,,,,4,1.8198,,,,,,78,cookie,rose,,89231,001,2022-04-26_16h49.43.732,SPAMnetsValid,2021.1.4,Win32,61.28577557,,,,,,,,,,,,,4,1.8198,0,23,23,56,1,,,,,,,,,,,,,,,,,,,,,,,,,,,,,,,,,,,,,,,,,,,,,,,,,,,,,,,,,,,,,,,,,,,,,,
,,,,6,6.6243,,,,,,68,flower,tomato,,89231,001,2022-04-26_16h49.43.732,SPAMnetsValid,2021.1.4,Win32,61.28577557,,,,,,,,,,,,,6,6.6243,0,24,24,94,1,,,,,,,,,,,,,,,,,,,,,,,,,,,,,,,,,,,,,,,,,,,,,,,,,,,,,,,,,,,,,,,,,,,,,,
,,,,5,2.3994,,,,,,55,tomato,tree,,89231,001,2022-04-26_16h49.43.732,SPAMnetsValid,2021.1.4,Win32,61.28577557,,,,,,,,,,,,,5,2.3994,0,25,25,35,1,,,,,,,,,,,,,,,,,,,,,,,,,,,,,,,,,,,,,,,,,,,,,,,,,,,,,,,,,,,,,,,,,,,,,,
,,,,3,5.3873,,,,,,73,broom,chocolate,,89231,001,2022-04-26_16h49.43.732,SPAMnetsValid,2021.1.4,Win32,61.28577557,,,,,,,,,,,,,3,5.3873,0,26,26,47,1,,,,,,,,,,,,,,,,,,,,,,,,,,,,,,,,,,,,,,,,,,,,,,,,,,,,,,,,,,,,,,,,,,,,,,
,,,,2,2.3645,,,,,,86,oven,rose,,89231,001,2022-04-26_16h49.43.732,SPAMnetsValid,2021.1.4,Win32,61.28577557,,,,,,,,,,,,,2,2.3645,0,27,27,79,1,,,,,,,,,,,,,,,,,,,,,,,,,,,,,,,,,,,,,,,,,,,,,,,,,,,,,,,,,,,,,,,,,,,,,,
,,,,4,1.8756,,,,,,71,broom,rose,,89231,001,2022-04-26_16h49.43.732,SPAMnetsValid,2021.1.4,Win32,61.28577557,,,,,,,,,,,,,4,1.8756,0,28,28,61,1,,,,,,,,,,,,,,,,,,,,,,,,,,,,,,,,,,,,,,,,,,,,,,,,,,,,,,,,,,,,,,,,,,,,,,
,,,,2,4.7195,,,,,,75,cookie,onion,,89231,001,2022-04-26_16h49.43.732,SPAMnetsValid,2021.1.4,Win32,61.28577557,,,,,,,,,,,,,2,4.7195,0,29,29,9,1,,,,,,,,,,,,,,,,,,,,,,,,,,,,,,,,,,,,,,,,,,,,,,,,,,,,,,,,,,,,,,,,,,,,,,
,,,,7,4.3119,,,,,,56,cactus,tree,,89231,001,2022-04-26_16h49.43.732,SPAMnetsValid,2021.1.4,Win32,61.28577557,,,,,,,,,,,,,7,4.3119,0,30,30,21,1,,,,,,,,,,,,,,,,,,,,,,,,,,,,,,,,,,,,,,,,,,,,,,,,,,,,,,,,,,,,,,,,,,,,,,
,,,,5,4.3387,,,,,,60,cactus,onion,,89231,001,2022-04-26_16h49.43.732,SPAMnetsValid,2021.1.4,Win32,61.28577557,,,,,,,,,,,,,5,4.3387,0,31,31,81,1,,,,,,,,,,,,,,,,,,,,,,,,,,,,,,,,,,,,,,,,,,,,,,,,,,,,,,,,,,,,,,,,,,,,,,
,,,,6,3.3673,,,,,,84,oven,tomato,,89231,001,2022-04-26_16h49.43.732,SPAMnetsValid,2021.1.4,Win32,61.28577557,,,,,,,,,,,,,6,3.3673,0,32,32,28,1,,,,,,,,,,,,,,,,,,,,,,,,,,,,,,,,,,,,,,,,,,,,,,,,,,,,,,,,,,,,,,,,,,,,,,
,,,,2,8.1093,,,,,,11,refrigerator,tree,,89231,001,2022-04-26_16h49.43.732,SPAMnetsValid,2021.1.4,Win32,61.28577557,,,,,,,,,,,,,2,8.1093,0,33,33,43,1,,,,,,,,,,,,,,,,,,,,,,,,,,,,,,,,,,,,,,,,,,,,,,,,,,,,,,,,,,,,,,,,,,,,,,
,,,,3,13.77,,,,,,16,chocolate,flower,,89231,001,2022-04-26_16h49.43.732,SPAMnetsValid,2021.1.4,Win32,61.28577557,,,,,,,,,,,,,3,13.77,0,34,34,22,1,,,,,,,,,,,,,,,,,,,,,,,,,,,,,,,,,,,,,,,,,,,,,,,,,,,,,,,,,,,,,,,,,,,,,,
,,,,4,11.7762,,,,,,64,chocolate,garden,,89231,001,2022-04-26_16h49.43.732,SPAMnetsValid,2021.1.4,Win32,61.28577557,,,,,,,,,,,,,4,11.7762,0,35,35,14,1,,,,,,,,,,,,,,,,,,,,,,,,,,,,,,,,,,,,,,,,,,,,,,,,,,,,,,,,,,,,,,,,,,,,,,
,,,,3,1.7634,,,,,,23,flower,microwave,,89231,001,2022-04-26_16h49.43.732,SPAMnetsValid,2021.1.4,Win32,61.28577557,,,,,,,,,,,,,3,1.7634,0,36,36,25,1,,,,,,,,,,,,,,,,,,,,,,,,,,,,,,,,,,,,,,,,,,,,,,,,,,,,,,,,,,,,,,,,,,,,,,
,,,,5,2.6143,,,,,,28,cake,melon,,89231,001,2022-04-26_16h49.43.732,SPAMnetsValid,2021.1.4,Win32,61.28577557,,,,,,,,,,,,,5,2.6143,0,37,37,54,1,,,,,,,,,,,,,,,,,,,,,,,,,,,,,,,,,,,,,,,,,,,,,,,,,,,,,,,,,,,,,,,,,,,,,,
,,,,5,4.7606,,,,,,10,flower,onion,,89231,001,2022-04-26_16h49.43.732,SPAMnetsValid,2021.1.4,Win32,61.28577557,,,,,,,,,,,,,5,4.7606,0,38,38,45,1,,,,,,,,,,,,,,,,,,,,,,,,,,,,,,,,,,,,,,,,,,,,,,,,,,,,,,,,,,,,,,,,,,,,,,
,,,,7,4.1224,,,,,,61,strawberry,tomato,,89231,001,2022-04-26_16h49.43.732,SPAMnetsValid,2021.1.4,Win32,61.28577557,,,,,,,,,,,,,7,4.1224,0,39,39,80,1,,,,,,,,,,,,,,,,,,,,,,,,,,,,,,,,,,,,,,,,,,,,,,,,,,,,,,,,,,,,,,,,,,,,,,
,,,,2,2.1797,,,,,,83,broom,carrot,,89231,001,2022-04-26_16h49.43.732,SPAMnetsValid,2021.1.4,Win32,61.28577557,,,,,,,,,,,,,2,2.1797,0,40,40,4,1,,,,,,,,,,,,,,,,,,,,,,,,,,,,,,,,,,,,,,,,,,,,,,,,,,,,,,,,,,,,,,,,,,,,,,
,,,,5,1.6633,,,,,,43,chocolate,tomato,,89231,001,2022-04-26_16h49.43.732,SPAMnetsValid,2021.1.4,Win32,61.28577557,,,,,,,,,,,,,5,1.6633,0,41,41,8,1,,,,,,,,,,,,,,,,,,,,,,,,,,,,,,,,,,,,,,,,,,,,,,,,,,,,,,,,,,,,,,,,,,,,,,
,,,,4,7.8454,,,,,,65,broom,garden,,89231,001,2022-04-26_16h49.43.732,SPAMnetsValid,2021.1.4,Win32,61.28577557,,,,,,,,,,,,,4,7.8454,0,42,42,23,1,,,,,,,,,,,,,,,,,,,,,,,,,,,,,,,,,,,,,,,,,,,,,,,,,,,,,,,,,,,,,,,,,,,,,,
,,,,8,3.4665,,,,,,37,garden,refrigerator,,89231,001,2022-04-26_16h49.43.732,SPAMnetsValid,2021.1.4,Win32,61.28577557,,,,,,,,,,,,,8,3.4665,0,43,43,11,1,,,,,,,,,,,,,,,,,,,,,,,,,,,,,,,,,,,,,,,,,,,,,,,,,,,,,,,,,,,,,,,,,,,,,,
,,,,3,32.3123,,,,,,13,broom,yogurt,,89231,001,2022-04-26_16h49.43.732,SPAMnetsValid,2021.1.4,Win32,61.28577557,,,,,,,,,,,,,3,32.3123,0,44,44,5,1,,,,,,,,,,,,,,,,,,,,,,,,,,,,,,,,,,,,,,,,,,,,,,,,,,,,,,,,,,,,,,,,,,,,,,
,,,,5,2.8985,,,,,,66,melon,yogurt,,89231,001,2022-04-26_16h49.43.732,SPAMnetsValid,2021.1.4,Win32,61.28577557,,,,,,,,,,,,,5,2.8985,0,45,45,48,1,,,,,,,,,,,,,,,,,,,,,,,,,,,,,,,,,,,,,,,,,,,,,,,,,,,,,,,,,,,,,,,,,,,,,,
,,,,5,2.2985,,,,,,24,cookie,tomato,,89231,001,2022-04-26_16h49.43.732,SPAMnetsValid,2021.1.4,Win32,61.28577557,,,,,,,,,,,,,5,2.2985,0,46,46,68,1,,,,,,,,,,,,,,,,,,,,,,,,,,,,,,,,,,,,,,,,,,,,,,,,,,,,,,,,,,,,,,,,,,,,,,
,,,,4,3.1064,,,,,,74,broom,pretzel,,89231,001,2022-04-26_16h49.43.732,SPAMnetsValid,2021.1.4,Win32,61.28577557,,,,,,,,,,,,,4,3.1064,0,47,47,40,1,,,,,,,,,,,,,,,,,,,,,,,,,,,,,,,,,,,,,,,,,,,,,,,,,,,,,,,,,,,,,,,,,,,,,,
,,,,8,4.7646,,,,,,22,kitchen,strawberry,,89231,001,2022-04-26_16h49.43.732,SPAMnetsValid,2021.1.4,Win32,61.28577557,,,,,,,,,,,,,8,4.7646,0,48,48,2,1,,,,,,,,,,,,,,,,,,,,,,,,,,,,,,,,,,,,,,,,,,,,,,,,,,,,,,,,,,,,,,,,,,,,,,
,,,,5,2.7624,,,,,,81,pretzel,yogurt,,89231,001,2022-04-26_16h49.43.732,SPAMnetsValid,2021.1.4,Win32,61.28577557,,,,,,,,,,,,,5,2.7624,0,49,49,50,1,,,,,,,,,,,,,,,,,,,,,,,,,,,,,,,,,,,,,,,,,,,,,,,,,,,,,,,,,,,,,,,,,,,,,,
,,,,3,2.984,,,,,,89,chocolate,rose,,89231,001,2022-04-26_16h49.43.732,SPAMnetsValid,2021.1.4,Win32,61.28577557,,,,,,,,,,,,,3,2.984,0,50,50,60,1,,,,,,,,,,,,,,,,,,,,,,,,,,,,,,,,,,,,,,,,,,,,,,,,,,,,,,,,,,,,,,,,,,,,,,
,,,,5,7.695,,,,,,70,chocolate,onion,,89231,001,2022-04-26_16h49.43.732,SPAMnetsValid,2021.1.4,Win32,61.28577557,,,,,,,,,,,,,5,7.695,0,51,51,74,1,,,,,,,,,,,,,,,,,,,,,,,,,,,,,,,,,,,,,,,,,,,,,,,,,,,,,,,,,,,,,,,,,,,,,,
,,,,4,6.8934,,,,,,14,broom,cookie,,89231,001,2022-04-26_16h49.43.732,SPAMnetsValid,2021.1.4,Win32,61.28577557,,,,,,,,,,,,,4,6.8934,0,52,52,16,1,,,,,,,,,,,,,,,,,,,,,,,,,,,,,,,,,,,,,,,,,,,,,,,,,,,,,,,,,,,,,,,,,,,,,,
,,,,5,4.2329,,,,,,5,oven,tree,,89231,001,2022-04-26_16h49.43.732,SPAMnetsValid,2021.1.4,Win32,61.28577557,,,,,,,,,,,,,5,4.2329,0,53,53,70,1,,,,,,,,,,,,,,,,,,,,,,,,,,,,,,,,,,,,,,,,,,,,,,,,,,,,,,,,,,,,,,,,,,,,,,
,,,,4,4.088,,,,,,8,broom,melon,,89231,001,2022-04-26_16h49.43.732,SPAMnetsValid,2021.1.4,Win32,61.28577557,,,,,,,,,,,,,4,4.088,0,54,54,59,1,,,,,,,,,,,,,,,,,,,,,,,,,,,,,,,,,,,,,,,,,,,,,,,,,,,,,,,,,,,,,,,,,,,,,,
,,,,5,2.0676,,,,,,26,tomato,yogurt,,89231,001,2022-04-26_16h49.43.732,SPAMnetsValid,2021.1.4,Win32,61.28577557,,,,,,,,,,,,,5,2.0676,0,55,55,13,1,,,,,,,,,,,,,,,,,,,,,,,,,,,,,,,,,,,,,,,,,,,,,,,,,,,,,,,,,,,,,,,,,,,,,,
,,,,5,1.2806,,,,,,45,onion,pretzel,,89231,001,2022-04-26_16h49.43.732,SPAMnetsValid,2021.1.4,Win32,61.28577557,,,,,,,,,,,,,5,1.2806,0,56,56,69,1,,,,,,,,,,,,,,,,,,,,,,,,,,,,,,,,,,,,,,,,,,,,,,,,,,,,,,,,,,,,,,,,,,,,,,
,,,,4,2.0778,,,,,,90,cactus,cake,,89231,001,2022-04-26_16h49.43.732,SPAMnetsValid,2021.1.4,Win32,61.28577557,,,,,,,,,,,,,4,2.0778,0,57,57,85,1,,,,,,,,,,,,,,,,,,,,,,,,,,,,,,,,,,,,,,,,,,,,,,,,,,,,,,,,,,,,,,,,,,,,,,
,,,,3,3.3515,,,,,,53,garden,pretzel,,89231,001,2022-04-26_16h49.43.732,SPAMnetsValid,2021.1.4,Win32,61.28577557,,,,,,,,,,,,,3,3.3515,0,58,58,0,1,,,,,,,,,,,,,,,,,,,,,,,,,,,,,,,,,,,,,,,,,,,,,,,,,,,,,,,,,,,,,,,,,,,,,,
,,,,9,1.678,,,,,,191,cake,cake,CHECK,89231,001,2022-04-26_16h49.43.732,SPAMnetsValid,2021.1.4,Win32,61.28577557,,,,,,,,,,,,,9,1.678,0,59,59,10,1,,,,,,,,,,,,,,,,,,,,,,,,,,,,,,,,,,,,,,,,,,,,,,,,,,,,,,,,,,,,,,,,,,,,,,
,,,,8,3.8165,,,,,,79,garden,strawberry,,89231,001,2022-04-26_16h49.43.732,SPAMnetsValid,2021.1.4,Win32,61.28577557,,,,,,,,,,,,,8,3.8165,0,60,60,87,1,,,,,,,,,,,,,,,,,,,,,,,,,,,,,,,,,,,,,,,,,,,,,,,,,,,,,,,,,,,,,,,,,,,,,,
,,,,8,2.799,,,,,,30,cookie,pretzel,,89231,001,2022-04-26_16h49.43.732,SPAMnetsValid,2021.1.4,Win32,61.28577557,,,,,,,,,,,,,8,2.799,0,61,61,78,1,,,,,,,,,,,,,,,,,,,,,,,,,,,,,,,,,,,,,,,,,,,,,,,,,,,,,,,,,,,,,,,,,,,,,,
,,,,8,2.2806,,,,,,25,carrot,onion,,89231,001,2022-04-26_16h49.43.732,SPAMnetsValid,2021.1.4,Win32,61.28577557,,,,,,,,,,,,,8,2.2806,0,62,62,44,1,,,,,,,,,,,,,,,,,,,,,,,,,,,,,,,,,,,,,,,,,,,,,,,,,,,,,,,,,,,,,,,,,,,,,,
,,,,4,13.859,,,,,,34,melon,oven,,89231,001,2022-04-26_16h49.43.732,SPAMnetsValid,2021.1.4,Win32,61.28577557,,,,,,,,,,,,,4,13.859,0,63,63,7,1,,,,,,,,,,,,,,,,,,,,,,,,,,,,,,,,,,,,,,,,,,,,,,,,,,,,,,,,,,,,,,,,,,,,,,
,,,,5,5.1021,,,,,,88,cactus,melon,,89231,001,2022-04-26_16h49.43.732,SPAMnetsValid,2021.1.4,Win32,61.28577557,,,,,,,,,,,,,5,5.1021,0,64,64,38,1,,,,,,,,,,,,,,,,,,,,,,,,,,,,,,,,,,,,,,,,,,,,,,,,,,,,,,,,,,,,,,,,,,,,,,
,,,,7,2.134,,,,,,32,cake,microwave,,89231,001,2022-04-26_16h49.43.732,SPAMnetsValid,2021.1.4,Win32,61.28577557,,,,,,,,,,,,,7,2.134,0,65,65,33,1,,,,,,,,,,,,,,,,,,,,,,,,,,,,,,,,,,,,,,,,,,,,,,,,,,,,,,,,,,,,,,,,,,,,,,
,,,,4,5.5833,,,,,,35,flower,pretzel,,89231,001,2022-04-26_16h49.43.732,SPAMnetsValid,2021.1.4,Win32,61.28577557,,,,,,,,,,,,,4,5.5833,0,66,66,26,1,,,,,,,,,,,,,,,,,,,,,,,,,,,,,,,,,,,,,,,,,,,,,,,,,,,,,,,,,,,,,,,,,,,,,,
,,,,9,1.7789,,,,,,93,kitchen,oven,,89231,001,2022-04-26_16h49.43.732,SPAMnetsValid,2021.1.4,Win32,61.28577557,,,,,,,,,,,,,9,1.7789,0,67,67,82,1,,,,,,,,,,,,,,,,,,,,,,,,,,,,,,,,,,,,,,,,,,,,,,,,,,,,,,,,,,,,,,,,,,,,,,
,,,,3,3.1431,,,,,,41,broom,cactus,,89231,001,2022-04-26_16h49.43.732,SPAMnetsValid,2021.1.4,Win32,61.28577557,,,,,,,,,,,,,3,3.1431,0,68,68,46,1,,,,,,,,,,,,,,,,,,,,,,,,,,,,,,,,,,,,,,,,,,,,,,,,,,,,,,,,,,,,,,,,,,,,,,
,,,,4,2.5398,,,,,,67,flower,yogurt,,89231,001,2022-04-26_16h49.43.732,SPAMnetsValid,2021.1.4,Win32,61.28577557,,,,,,,,,,,,,4,2.5398,0,69,69,12,1,,,,,,,,,,,,,,,,,,,,,,,,,,,,,,,,,,,,,,,,,,,,,,,,,,,,,,,,,,,,,,,,,,,,,,
,,,,3,2.7171,,,,,,27,cactus,cookie,,89231,001,2022-04-26_16h49.43.732,SPAMnetsValid,2021.1.4,Win32,61.28577557,,,,,,,,,,,,,3,2.7171,0,70,70,17,1,,,,,,,,,,,,,,,,,,,,,,,,,,,,,,,,,,,,,,,,,,,,,,,,,,,,,,,,,,,,,,,,,,,,,,
,,,,3,5.5559,,,,,,33,oven,yogurt,,89231,001,2022-04-26_16h49.43.732,SPAMnetsValid,2021.1.4,Win32,61.28577557,,,,,,,,,,,,,3,5.5559,0,71,71,31,1,,,,,,,,,,,,,,,,,,,,,,,,,,,,,,,,,,,,,,,,,,,,,,,,,,,,,,,,,,,,,,,,,,,,,,
,,,,9,1.8028,,,,,,52,carrot,tomato,,89231,001,2022-04-26_16h49.43.732,SPAMnetsValid,2021.1.4,Win32,61.28577557,,,,,,,,,,,,,9,1.8028,0,72,72,95,1,,,,,,,,,,,,,,,,,,,,,,,,,,,,,,,,,,,,,,,,,,,,,,,,,,,,,,,,,,,,,,,,,,,,,,
,,,,6,2.0222,,,,,,39,melon,pretzel,,89231,001,2022-04-26_16h49.43.732,SPAMnetsValid,2021.1.4,Win32,61.28577557,,,,,,,,,,,,,6,2.0222,0,73,73,20,1,,,,,,,,,,,,,,,,,,,,,,,,,,,,,,,,,,,,,,,,,,,,,,,,,,,,,,,,,,,,,,,,,,,,,,
,,,,6,8.1909,,,,,,44,cookie,melon,,89231,001,2022-04-26_16h49.43.732,SPAMnetsValid,2021.1.4,Win32,61.28577557,,,,,,,,,,,,,6,8.1909,0,74,74,92,1,,,,,,,,,,,,,,,,,,,,,,,,,,,,,,,,,,,,,,,,,,,,,,,,,,,,,,,,,,,,,,,,,,,,,,
,,,,8,2.6396,,,,,,9,kitchen,refrigerator,,89231,001,2022-04-26_16h49.43.732,SPAMnetsValid,2021.1.4,Win32,61.28577557,,,,,,,,,,,,,8,2.6396,0,75,75,64,1,,,,,,,,,,,,,,,,,,,,,,,,,,,,,,,,,,,,,,,,,,,,,,,,,,,,,,,,,,,,,,,,,,,,,,
,,,,7,1.8028,,,,,,20,rose,tree,,89231,001,2022-04-26_16h49.43.732,SPAMnetsValid,2021.1.4,Win32,61.28577557,,,,,,,,,,,,,7,1.8028,0,76,76,66,1,,,,,,,,,,,,,,,,,,,,,,,,,,,,,,,,,,,,,,,,,,,,,,,,,,,,,,,,,,,,,,,,,,,,,,
,,,,6,1.7523,,,,,,18,onion,refrigerator,,89231,001,2022-04-26_16h49.43.732,SPAMnetsValid,2021.1.4,Win32,61.28577557,,,,,,,,,,,,,6,1.7523,0,77,77,62,1,,,,,,,,,,,,,,,,,,,,,,,,,,,,,,,,,,,,,,,,,,,,,,,,,,,,,,,,,,,,,,,,,,,,,,
,,,,4,47.5358,,,,,,92,broom,flower,,89231,001,2022-04-26_16h49.43.732,SPAMnetsValid,2021.1.4,Win32,61.28577557,,,,,,,,,,,,,4,47.5358,0,78,78,88,1,,,,,,,,,,,,,,,,,,,,,,,,,,,,,,,,,,,,,,,,,,,,,,,,,,,,,,,,,,,,,,,,,,,,,,
,,,,9,1.6194,,,,,,192,microwave,microwave,CHECK,89231,001,2022-04-26_16h49.43.732,SPAMnetsValid,2021.1.4,Win32,61.28577557,,,,,,,,,,,,,9,1.6194,0,79,79,53,1,,,,,,,,,,,,,,,,,,,,,,,,,,,,,,,,,,,,,,,,,,,,,,,,,,,,,,,,,,,,,,,,,,,,,,
,,,,6,1.8683,,,,,,50,carrot,rose,,89231,001,2022-04-26_16h49.43.732,SPAMnetsValid,2021.1.4,Win32,61.28577557,,,,,,,,,,,,,6,1.8683,0,80,80,73,1,,,,,,,,,,,,,,,,,,,,,,,,,,,,,,,,,,,,,,,,,,,,,,,,,,,,,,,,,,,,,,,,,,,,,,
,,,,8,3.1455,,,,,,42,garden,kitchen,,89231,001,2022-04-26_16h49.43.732,SPAMnetsValid,2021.1.4,Win32,61.28577557,,,,,,,,,,,,,8,3.1455,0,81,81,29,1,,,,,,,,,,,,,,,,,,,,,,,,,,,,,,,,,,,,,,,,,,,,,,,,,,,,,,,,,,,,,,,,,,,,,,
,,,,2,8.7022,,,,,,91,microwave,rose,,89231,001,2022-04-26_16h49.43.732,SPAMnetsValid,2021.1.4,Win32,61.28577557,,,,,,,,,,,,,2,8.7022,0,82,82,84,1,,,,,,,,,,,,,,,,,,,,,,,,,,,,,,,,,,,,,,,,,,,,,,,,,,,,,,,,,,,,,,,,,,,,,,
,,,,8,2.1046,,,,,,76,garden,rose,,89231,001,2022-04-26_16h49.43.732,SPAMnetsValid,2021.1.4,Win32,61.28577557,,,,,,,,,,,,,8,2.1046,0,83,83,19,1,,,,,,,,,,,,,,,,,,,,,,,,,,,,,,,,,,,,,,,,,,,,,,,,,,,,,,,,,,,,,,,,,,,,,,
,,,,7,10.8353,,,,,,12,cookie,yogurt,,89231,001,2022-04-26_16h49.43.732,SPAMnetsValid,2021.1.4,Win32,61.28577557,,,,,,,,,,,,,7,10.8353,0,84,84,36,1,,,,,,,,,,,,,,,,,,,,,,,,,,,,,,,,,,,,,,,,,,,,,,,,,,,,,,,,,,,,,,,,,,,,,,
,,,,8,2.1705,,,,,,17,carrot,melon,,89231,001,2022-04-26_16h49.43.732,SPAMnetsValid,2021.1.4,Win32,61.28577557,,,,,,,,,,,,,8,2.1705,0,85,85,24,1,,,,,,,,,,,,,,,,,,,,,,,,,,,,,,,,,,,,,,,,,,,,,,,,,,,,,,,,,,,,,,,,,,,,,,
,,,,3,1.6507,,,,,,80,chocolate,tree,,89231,001,2022-04-26_16h49.43.732,SPAMnetsValid,2021.1.4,Win32,61.28577557,,,,,,,,,,,,,3,1.6507,0,86,86,89,1,,,,,,,,,,,,,,,,,,,,,,,,,,,,,,,,,,,,,,,,,,,,,,,,,,,,,,,,,,,,,,,,,,,,,,
,,,,5,5.643,,,,,,62,kitchen,rose,,89231,001,2022-04-26_16h49.43.732,SPAMnetsValid,2021.1.4,Win32,61.28577557,,,,,,,,,,,,,5,5.643,0,87,87,57,1,,,,,,,,,,,,,,,,,,,,,,,,,,,,,,,,,,,,,,,,,,,,,,,,,,,,,,,,,,,,,,,,,,,,,,
,,,,2,1.8146,,,,,,85,cake,tree,,89231,001,2022-04-26_16h49.43.732,SPAMnetsValid,2021.1.4,Win32,61.28577557,,,,,,,,,,,,,2,1.8146,0,88,88,18,1,,,,,,,,,,,,,,,,,,,,,,,,,,,,,,,,,,,,,,,,,,,,,,,,,,,,,,,,,,,,,,,,,,,,,,
,,,,8,1.6495,,,,,,69,carrot,refrigerator,,89231,001,2022-04-26_16h49.43.732,SPAMnetsValid,2021.1.4,Win32,61.28577557,,,,,,,,,,,,,8,1.6495,0,89,89,75,1,,,,,,,,,,,,,,,,,,,,,,,,,,,,,,,,,,,,,,,,,,,,,,,,,,,,,,,,,,,,,,,,,,,,,,
,,,,7,12.4595,,,,,,7,melon,tree,,89231,001,2022-04-26_16h49.43.732,SPAMnetsValid,2021.1.4,Win32,61.28577557,,,,,,,,,,,,,7,12.4595,0,90,90,77,1,,,,,,,,,,,,,,,,,,,,,,,,,,,,,,,,,,,,,,,,,,,,,,,,,,,,,,,,,,,,,,,,,,,,,,
,,,,9,1.9451,,,,,,36,broom,kitchen,,89231,001,2022-04-26_16h49.43.732,SPAMnetsValid,2021.1.4,Win32,61.28577557,,,,,,,,,,,,,9,1.9451,0,91,91,76,1,,,,,,,,,,,,,,,,,,,,,,,,,,,,,,,,,,,,,,,,,,,,,,,,,,,,,,,,,,,,,,,,,,,,,,
,,,,9,4.0641,,,,,,4,chocolate,pretzel,,89231,001,2022-04-26_16h49.43.732,SPAMnetsValid,2021.1.4,Win32,61.28577557,,,,,,,,,,,,,9,4.0641,0,92,92,52,1,,,,,,,,,,,,,,,,,,,,,,,,,,,,,,,,,,,,,,,,,,,,,,,,,,,,,,,,,,,,,,,,,,,,,,
,,,,5,1.8407,,,,,,38,pretzel,refrigerator,,89231,001,2022-04-26_16h49.43.732,SPAMnetsValid,2021.1.4,Win32,61.28577557,,,,,,,,,,,,,5,1.8407,0,93,93,71,1,,,,,,,,,,,,,,,,,,,,,,,,,,,,,,,,,,,,,,,,,,,,,,,,,,,,,,,,,,,,,,,,,,,,,,
,,,,8,1.7041,,,,,,6,garden,onion,,89231,001,2022-04-26_16h49.43.732,SPAMnetsValid,2021.1.4,Win32,61.28577557,,,,,,,,,,,,,8,1.7041,0,94,94,83,1,,,,,,,,,,,,,,,,,,,,,,,,,,,,,,,,,,,,,,,,,,,,,,,,,,,,,,,,,,,,,,,,,,,,,,
,,,,3,2.4627,,,,,,31,cactus,pretzel,,89231,001,2022-04-26_16h49.43.732,SPAMnetsValid,2021.1.4,Win32,61.28577557,,,,,,,,,,,,,3,2.4627,0,95,95,1,1,,,,,,,,,,,,,,,,,,,,,,,,,,,,,,,,,,,,,,,,,,,,,,,,,,,,,,,,,,,,,,,,,,,,,,
,,,,9,20.0802,,,,,,77,refrigerator,yogurt,,89231,001,2022-04-26_16h49.43.732,SPAMnetsValid,2021.1.4,Win32,61.28577557,,,,,,,,,,,,,9,20.0802,0,96,96,42,1,,,,,,,,,,,,,,,,,,,,,,,,,,,,,,,,,,,,,,,,,,,,,,,,,,,,,,,,,,,,,,,,,,,,,,
,,,,,,,,,,,,,,,89231,001,2022-04-26_16h49.43.732,SPAMnetsValid,2021.1.4,Win32,61.28577557,,,,,,,,,,,,,,,,,,,,0,0,0,0,1,,,,,,,,,,,,,,,,,,,,,,,,,,,,,,,,,,,,,,,,,,,,,,,,,,,,,,,,,,,,,,,,,
,,,,,,,,,,,,,,,89231,001,2022-04-26_16h49.43.732,SPAMnetsValid,2021.1.4,Win32,61.28577557,,,,,,0,1,1,0,1,1,0,,,,,,,,,,,,,,,,,,,,,,,,,,,,,,,,,,,,,,,,,,,,,,,,,,,,,,,,,,,,,,,,,,,,,,,,,,,,,
,,,,,,,,,,,,,,,89231,001,2022-04-26_16h49.43.732,SPAMnetsValid,2021.1.4,Win32,61.28577557,,,,,,,,,,,,,,,,,,,,,,,,,3,7.622,0,0,0,0,1,rancor,forbearance,ridicule,malice,bravery,3,,,,,,,,,,,,,,,,,,,,,,,,,,,,,,,,,,,,,,,,,,,,,,,,,,,,
,,,,,,,,,,,,,,,89231,001,2022-04-26_16h49.43.732,SPAMnetsValid,2021.1.4,Win32,61.28577557,,,,,,,,,,,,,,,,,,,,,,,,,4,6.0672,0,1,1,1,1,raucous,empty,quiet,smooth,harsh,4,,,,,,,,,,,,,,,,,,,,,,,,,,,,,,,,,,,,,,,,,,,,,,,,,,,,
,,,,,,,,,,,,,,,89231,001,2022-04-26_16h49.43.732,SPAMnetsValid,2021.1.4,Win32,61.28577557,,,,,,,,,,,,,,,,,,,,,,,,,4,5.1343,0,2,2,2,1,gargoyle,oil,medicine,carved waterspout,ugly building,3,,,,,,,,,,,,,,,,,,,,,,,,,,,,,,,,,,,,,,,,,,,,,,,,,,,,
,,,,,,,,,,,,,,,89231,001,2022-04-26_16h49.43.732,SPAMnetsValid,2021.1.4,Win32,61.28577557,,,,,,,,,,,,,,,,,,,,,,,,,3,7.0732,0,3,3,3,1,recrudesce,purify,renew activity,lack refinement,crush,2,,,,,,,,,,,,,,,,,,,,,,,,,,,,,,,,,,,,,,,,,,,,,,,,,,,,
,,,,,,,,,,,,,,,89231,001,2022-04-26_16h49.43.732,SPAMnetsValid,2021.1.4,Win32,61.28577557,,,,,,,,,,,,,,,,,,,,,,,,,,,0,4,4,4,1,specious,"plausible, but not genuine",noteworthy,class or variety,roomy,1,,,,,,,,,,,,,,,,,,,,,,,,,,,,,,,,,,,,,,,,,,,,,,,,,,,,
,,,,,,,,,,,,,,,89231,001,2022-04-26_16h49.43.732,SPAMnetsValid,2021.1.4,Win32,61.28577557,,,,,,,,,,,,,,,,,,,,,,,,,3,9.0682,0,5,5,5,1,bauble,bubble,showy plaything,idle talk,confusion,2,,,,,,,,,,,,,,,,,,,,,,,,,,,,,,,,,,,,,,,,,,,,,,,,,,,,
,,,,,,,,,,,,,,,89231,001,2022-04-26_16h49.43.732,SPAMnetsValid,2021.1.4,Win32,61.28577557,,,,,,,,,,,,,,,,,,,,,,,,,4,18.3876,0,6,6,6,1,prolific,scarce,producing abundantly,reckless,speaking profanely,2,,,,,,,,,,,,,,,,,,,,,,,,,,,,,,,,,,,,,,,,,,,,,,,,,,,,
,,,,,,,,,,,,,,,89231,001,2022-04-26_16h49.43.732,SPAMnetsValid,2021.1.4,Win32,61.28577557,,,,,,,,,,,,,,,,,,,,,,,,,3,5.2651,0,7,7,7,1,opulent,party,wealthy,happy frame of mind,semiprecious stone,2,,,,,,,,,,,,,,,,,,,,,,,,,,,,,,,,,,,,,,,,,,,,,,,,,,,,
,,,,,,,,,,,,,,,89231,001,2022-04-26_16h49.43.732,SPAMnetsValid,2021.1.4,Win32,61.28577557,,,,,,,,,,,,,,,,,,,,,,,,,4,4.4397,0,8,8,8,1,coercion,conspiracy,strategy,restraint,attraction,3,,,,,,,,,,,,,,,,,,,,,,,,,,,,,,,,,,,,,,,,,,,,,,,,,,,,
,,,,,,,,,,,,,,,89231,001,2022-04-26_16h49.43.732,SPAMnetsValid,2021.1.4,Win32,61.28577557,,,,,,,,,,,,,,,,,,,,,,,,,,,0,9,9,9,1,hiatus,animal,calamity,dread,gap,4,,,,,,,,,,,,,,,,,,,,,,,,,,,,,,,,,,,,,,,,,,,,,,,,,,,,
,,,,,,,,,,,,,,,89231,001,2022-04-26_16h49.43.732,SPAMnetsValid,2021.1.4,Win32,61.28577557,,,,,,,,,,,,,,,,,,,,,,,,,3,18.6199,0,10,10,10,1,germane,microbe,contagious,relevant,different,3,,,,,,,,,,,,,,,,,,,,,,,,,,,,,,,,,,,,,,,,,,,,,,,,,,,,
,,,,,,,,,,,,,,,89231,001,2022-04-26_16h49.43.732,SPAMnetsValid,2021.1.4,Win32,61.28577557,,,,,,,,,,,,,,,,,,,,,,,,,1,7.0501,0,11,11,11,1,perfunctory,fundamental,formal,superficial,careful,3,,,,,,,,,,,,,,,,,,,,,,,,,,,,,,,,,,,,,,,,,,,,,,,,,,,,
,,,,,,,,,,,,,,,89231,001,2022-04-26_16h49.43.732,SPAMnetsValid,2021.1.4,Win32,61.28577557,,,,,,,,,,,,,,,,,,,,,,,,,4,3.0782,0,12,12,12,1,diverge,reveal,chant,distract the attention of,differ or turn off from,4,,,,,,,,,,,,,,,,,,,,,,,,,,,,,,,,,,,,,,,,,,,,,,,,,,,,
,,,,,,,,,,,,,,,89231,001,2022-04-26_16h49.43.732,SPAMnetsValid,2021.1.4,Win32,61.28577557,,,,,,,,,,,,,,,,,,,,,,,,,4,2.0433,0,13,13,13,1,evoke,take away,anger,connect,bring out,4,,,,,,,,,,,,,,,,,,,,,,,,,,,,,,,,,,,,,,,,,,,,,,,,,,,,
,,,,,,,,,,,,,,,89231,001,2022-04-26_16h49.43.732,SPAMnetsValid,2021.1.4,Win32,61.28577557,,,,,,,,,,,,,,,,,,,,,,,,,1,7.8848,0,14,14,14,1,pertinent,relevant,lying next to,necessary,bold,1,,,,,,,,,,,,,,,,,,,,,,,,,,,,,,,,,,,,,,,,,,,,,,,,,,,,
,,,,,,,,,,,,,,,89231,001,2022-04-26_16h49.43.732,SPAMnetsValid,2021.1.4,Win32,61.28577557,,,,,,,,,,,,,,,,,,,,,,,,,,,0,15,15,15,1,holocaust,entirety,destruction,saintly,price,2,,,,,,,,,,,,,,,,,,,,,,,,,,,,,,,,,,,,,,,,,,,,,,,,,,,,
,,,,,,,,,,,,,,,89231,001,2022-04-26_16h49.43.732,SPAMnetsValid,2021.1.4,Win32,61.28577557,,,,,,,,,,,,,,,,,,,,,,,,,1,32.0103,0,16,16,16,1,piquant,mellow,fish,pungent,cloth,3,,,,,,,,,,,,,,,,,,,,,,,,,,,,,,,,,,,,,,,,,,,,,,,,,,,,
,,,,,,,,,,,,,,,89231,001,2022-04-26_16h49.43.732,SPAMnetsValid,2021.1.4,Win32,61.28577557,,,,,,,,,,,,,,,,,,,,,,,,,4,5.7095,0,17,17,17,1,firmament,foundation,heavens,strong,glue,2,,,,,,,,,,,,,,,,,,,,,,,,,,,,,,,,,,,,,,,,,,,,,,,,,,,,
,,,,,,,,,,,,,,,89231,001,2022-04-26_16h49.43.732,SPAMnetsValid,2021.1.4,Win32,61.28577557,,,,,,,,,,,,,,,,,,,,,,,,,,,,,,,,,,,,,,4,5.6101,0,0,0,0,1,marketable,partisan,jocular,marriageable,salable,essential,4,,,,,,,,,,,,,,,,,,,,,,,,,,,,,,,,,,,,,,
,,,,,,,,,,,,,,,89231,001,2022-04-26_16h49.43.732,SPAMnetsValid,2021.1.4,Win32,61.28577557,,,,,,,,,,,,,,,,,,,,,,,,,,,,,,,,,,,,,,5,4.043,0,1,1,1,1,cottontail,squirrel,poplar,boa,marshy plant,rabbit,5,,,,,,,,,,,,,,,,,,,,,,,,,,,,,,,,,,,,,,
,,,,,,,,,,,,,,,89231,001,2022-04-26_16h49.43.732,SPAMnetsValid,2021.1.4,Win32,61.28577557,,,,,,,,,,,,,,,,,,,,,,,,,,,,,,,,,,,,,,3,1.8953,0,2,2,2,1,boggy,afraid,false,marshy,dense,black,3,,,,,,,,,,,,,,,,,,,,,,,,,,,,,,,,,,,,,,
,,,,,,,,,,,,,,,89231,001,2022-04-26_16h49.43.732,SPAMnetsValid,2021.1.4,Win32,61.28577557,,,,,,,,,,,,,,,,,,,,,,,,,,,,,,,,,,,,,,5,5.2156,0,3,3,3,1,gruesomeness,blackness,falseness,vindictiveness,drunkenness,ghastliness,5,,,,,,,,,,,,,,,,,,,,,,,,,,,,,,,,,,,,,,
,,,,,,,,,,,,,,,89231,001,2022-04-26_16h49.43.732,SPAMnetsValid,2021.1.4,Win32,61.28577557,,,,,,,,,,,,,,,,,,,,,,,,,,,,,,,,,,,,,,3,22.9951,0,4,4,4,1,loathing,diffidence,laziness,abhorrence,cleverness,comfort,3,,,,,,,,,,,,,,,,,,,,,,,,,,,,,,,,,,,,,,
,,,,,,,,,,,,,,,89231,001,2022-04-26_16h49.43.732,SPAMnetsValid,2021.1.4,Win32,61.28577557,,,,,,,,,,,,,,,,,,,,,,,,,,,,,,,,,,,,,,1,4.9795,0,5,5,5,1,bantam,fowl,ridicule,cripple,vegetable,ensign,1,,,,,,,,,,,,,,,,,,,,,,,,,,,,,,,,,,,,,,
,,,,,,,,,,,,,,,89231,001,2022-04-26_16h49.43.732,SPAMnetsValid,2021.1.4,Win32,61.28577557,,,,,,,,,,,,,,,,,,,,,,,,,,,,,,,,,,,,,,5,5.8339,0,6,6,6,1,evoke,wake up,surrender,reconnoiter,transcend,call forth,5,,,,,,,,,,,,,,,,,,,,,,,,,,,,,,,,,,,,,,
,,,,,,,,,,,,,,,89231,001,2022-04-26_16h49.43.732,SPAMnetsValid,2021.1.4,Win32,61.28577557,,,,,,,,,,,,,,,,,,,,,,,,,,,,,,,,,,,,,,1,16.4576,0,7,7,7,1,unobtrusive,unintelligent,epileptic,illogical,lineal,modest,5,,,,,,,,,,,,,,,,,,,,,,,,,,,,,,,,,,,,,,
,,,,,,,,,,,,,,,89231,001,2022-04-26_16h49.43.732,SPAMnetsValid,2021.1.4,Win32,61.28577557,,,,,,,,,,,,,,,,,,,,,,,,,,,,,,,,,,,,,,4,2.9713,0,8,8,8,1,terrain,ice cream,final test,tractor,area of ground,weight,4,,,,,,,,,,,,,,,,,,,,,,,,,,,,,,,,,,,,,,
,,,,,,,,,,,,,,,89231,001,2022-04-26_16h49.43.732,SPAMnetsValid,2021.1.4,Win32,61.28577557,,,,,,,,,,,,,,,,,,,,,,,,,,,,,,,,,,,,,,5,13.0064,0,9,9,9,1,capriciousness,stubbornness,courage,whimsicality,amazement,greediness,3,,,,,,,,,,,,,,,,,,,,,,,,,,,,,,,,,,,,,,
,,,,,,,,,,,,,,,89231,001,2022-04-26_16h49.43.732,SPAMnetsValid,2021.1.4,Win32,61.28577557,,,,,,,,,,,,,,,,,,,,,,,,,,,,,,,,,,,,,,1,10.4447,0,10,10,10,1,maelstrom,slander,whirlpool,enmity,armor,majolica,2,,,,,,,,,,,,,,,,,,,,,,,,,,,,,,,,,,,,,,
,,,,,,,,,,,,,,,89231,001,2022-04-26_16h49.43.732,SPAMnetsValid,2021.1.4,Win32,61.28577557,,,,,,,,,,,,,,,,,,,,,,,,,,,,,,,,,,,,,,1,5.4353,0,11,11,11,1,tentative,critical,conclusive,authentic,provisional,apprehensive,4,,,,,,,,,,,,,,,,,,,,,,,,,,,,,,,,,,,,,,
,,,,,,,,,,,,,,,89231,001,2022-04-26_16h49.43.732,SPAMnetsValid,2021.1.4,Win32,61.28577557,,,,,,,,,,,,,,,,,,,,,,,,,,,,,,,,,,,,,,2,6.5546,0,12,12,12,1,placate,rehabilitate,plagiarize,depredate,apprise,conciliate,5,,,,,,,,,,,,,,,,,,,,,,,,,,,,,,,,,,,,,,
,,,,,,,,,,,,,,,89231,001,2022-04-26_16h49.43.732,SPAMnetsValid,2021.1.4,Win32,61.28577557,,,,,,,,,,,,,,,,,,,,,,,,,,,,,,,,,,,,,,2,5.9505,0,13,13,13,1,surcease,enlightenment,cessation,inattention,censor,substitution,2,,,,,,,,,,,,,,,,,,,,,,,,,,,,,,,,,,,,,,
,,,,,,,,,,,,,,,89231,001,2022-04-26_16h49.43.732,SPAMnetsValid,2021.1.4,Win32,61.28577557,,,,,,,,,,,,,,,,,,,,,,,,,,,,,,,,,,,,,,4,5.8458,0,14,14,14,1,apathetic,wandering,impassive,hateful,prophetic,overflowing,2,,,,,,,,,,,,,,,,,,,,,,,,,,,,,,,,,,,,,,
,,,,,,,,,,,,,,,89231,001,2022-04-26_16h49.43.732,SPAMnetsValid,2021.1.4,Win32,61.28577557,,,,,,,,,,,,,,,,,,,,,,,,,,,,,,,,,,,,,,4,5.8518,0,15,15,15,1,paternoster,paternalism,patricide,malediction,benediction,prayer,5,,,,,,,,,,,,,,,,,,,,,,,,,,,,,,,,,,,,,,
,,,,,,,,,,,,,,,89231,001,2022-04-26_16h49.43.732,SPAMnetsValid,2021.1.4,Win32,61.28577557,,,,,,,,,,,,,,,,,,,,,,,,,,,,,,,,,,,,,,1,8.0626,0,16,16,16,1,opalescence,opulence,senescence,bankruptcy,iridescence,assiduity,4,,,,,,,,,,,,,,,,,,,,,,,,,,,,,,,,,,,,,,
,,,,,,,,,,,,,,,89231,001,2022-04-26_16h49.43.732,SPAMnetsValid,2021.1.4,Win32,61.28577557,,,,,,,,,,,,,,,,,,,,,,,,,,,,,,,,,,,,,,2,5.7278,0,17,17,17,1,lush,stupid,luxurious,hazy,putrid,languishing,2,,,,,,,,,,,,,,,,,,,,,,,,,,,,,,,,,,,,,,
,,,,,,,,,,,,,,,89231,001,2022-04-26_16h49.43.732,SPAMnetsValid,2021.1.4,Win32,61.28577557,,,,,,,,,,,,,,,,,,,,,,,,,,,,,,,,,,,,,,3,3.1299,0,18,18,18,1,curtailment,expenditure,abandonment,abridgment,improvement,forgery,3,,,,,,,,,,,,,,,,,,,,,,,,,,,,,,,,,,,,,,
,,,,,,,,,,,,,,,89231,001,2022-04-26_16h49.43.732,SPAMnetsValid,2021.1.4,Win32,61.28577557,,,,,,,,,,,,,,,,,,,,,,,,,,,,,,,,,,,,,,2,10.8604,0,19,19,19,1,perversity,adversity,perviousness,travesty,waywardness,gentility,4,,,,,,,,,,,,,,,,,,,,,,,,,,,,,,,,,,,,,,
,,,,,,,,,,,,,,,89231,001,2022-04-26_16h49.43.732,SPAMnetsValid,2021.1.4,Win32,61.28577557,,,,,,,,,,,,,,,,,,,,,,,,,,,,,,,,,,,,,,2,17.8662,0,20,20,20,1,calumnious,complimentary,analogous,slanderous,tempestuous,magnanimous,3,,,,,,,,,,,,,,,,,,,,,,,,,,,,,,,,,,,,,,
,,,,,,,,,,,,,,,89231,001,2022-04-26_16h49.43.732,SPAMnetsValid,2021.1.4,Win32,61.28577557,,,,,,,,,,,,,,,,,,,,,,,,,,,,,,,,,,,,,,1,11.3964,0,21,21,21,1,illiberality,bigotry,imbecility,illegibility,cautery,immaturity,1,,,,,,,,,,,,,,,,,,,,,,,,,,,,,,,,,,,,,,
,,,,,,,,,,,,,,,89231,001,2022-04-26_16h49.43.732,SPAMnetsValid,2021.1.4,Win32,61.28577557,,,,,,,,,,,,,,,,,,,,,,,,,,,,,,,,,,,,,,3,4.3084,0,22,22,22,1,clabber,rejoice,gossip,curdle,crow,hobble,3,,,,,,,,,,,,,,,,,,,,,,,,,,,,,,,,,,,,,,
,,,,,,,,,,,,,,,89231,001,2022-04-26_16h49.43.732,SPAMnetsValid,2021.1.4,Win32,61.28577557,,,,,,,,,,,,,,,,,,,,,,,,,,,,,,,,,,,,,,4,11.0869,0,23,23,23,1,sedulousness,diligence,credulousness,seduction,perilousness,frankness,1,,,,,,,,,,,,,,,,,,,,,,,,,,,,,,,,,,,,,,
,,,,,,,,,,,,,,,89231,001,2022-04-26_16h49.43.732,SPAMnetsValid,2021.1.4,Win32,61.28577557,,,,,,,,,,,,,,,,,,,,,,,,,,,,,,,,,,,,,,,,,,,,,,,,,,,,sleeping,pillow,0,0,0,0,1,,,,,,,,,,,,,,,,,,,,,,,,,,,,,,,
,,,,,,,,,,,,,,,89231,001,2022-04-26_16h49.43.732,SPAMnetsValid,2021.1.4,Win32,61.28577557,,,,,,,,,,,,,,,,,,,,,,,,,,,,,,,,,,,,,,,,,,,,,,,,,,,,fighting,pillow,1,0,1,0,1,,,,,,,,,,,,,,,,,,,,,,,,,,,,,,,
,,,,,,,,,,,,,,,89231,001,2022-04-26_16h49.43.732,SPAMnetsValid,2021.1.4,Win32,61.28577557,,,,,,,,,,,,,,,,,,,,,,,,,,,,,,,,,,,,,,,,,,,,,,,,,,,,hiding,pillow,2,0,2,0,1,,,,,,,,,,,,,,,,,,,,,,,,,,,,,,,
,,,,,,,,,,,,,,,89231,001,2022-04-26_16h49.43.732,SPAMnetsValid,2021.1.4,Win32,61.28577557,,,,,,,,,,,,,,,,,,,,,,,,,,,,,,,,,,,,,,,,,,,,,,,,,,,,lying,pillow,3,0,3,0,1,,,,,,,,,,,,,,,,,,,,,,,,,,,,,,,
,,,,,,,,,,,,,,,89231,001,2022-04-26_16h49.43.732,SPAMnetsValid,2021.1.4,Win32,61.28577557,,,,,,,,,,,,,,,,,,,,,,,,,,,,,,,,,,,,,,,,,,,,,,,,,,,,eating,pillow,4,0,4,0,1,,,,,,,,,,,,,,,,,,,,,,,,,,,,,,,
,,,,,,,,,,,,,,,89231,001,2022-04-26_16h49.43.732,SPAMnetsValid,2021.1.4,Win32,61.28577557,,,,,,,,,,,,,,,,,,,,,,,,,,,,,,,,,,,,,,,,,,,,,,,,,,,,sitting,pillow,5,0,5,0,1,,,,,,,,,,,,,,,,,,,,,,,,,,,,,,,
,,,,,,,,,,,,,,,89231,001,2022-04-26_16h49.43.732,SPAMnetsValid,2021.1.4,Win32,61.28577557,,,,,,,,,,,,,,,,,,,,,,,,,,,,,,,,,,,,,,,,,,,,,,,,,,,,yelling,pillow,6,0,6,0,1,,,,,,,,,,,,,,,,,,,,,,,,,,,,,,,
,,,,,,,,,,,,,,,89231,001,2022-04-26_16h49.43.732,SPAMnetsValid,2021.1.4,Win32,61.28577557,,,,,,,,,,,,,,,,,,,,,,,,,,,,,,,,,,,,,,,,,,,,,,,,,,,,kicking,pillow,7,0,7,0,1,,,,,,,,,,,,,,,,,,,,,,,,,,,,,,,
,,,,,,,,,,,,,,,89231,001,2022-04-26_16h49.43.732,SPAMnetsValid,2021.1.4,Win32,61.28577557,,,,,,,,,,,,,,,,,,,,,,,,,,,,,,,,,,,,,,,,,,,,,,,,,,,,sledding,pillow,8,0,8,0,1,,,,,,,,,,,,,,,,,,,,,,,,,,,,,,,
,,,,,,,,,,,,,,,89231,001,2022-04-26_16h49.43.732,SPAMnetsValid,2021.1.4,Win32,61.28577557,,,,,,,,,,,,,,,,,,,,,,,,,,,,,,,,,,,,,,,,,,,,,,,,,,,,arm rest,pillow,9,0,9,0,1,,,,,,,,,,,,,,,,,,,,,,,,,,,,,,,
,,,,,,,,,,,,,,,89231,001,2022-04-26_16h49.43.732,SPAMnetsValid,2021.1.4,Win32,61.28577557,,,,,,,,,,,,,,,,,,,,,,,,,,,,,,,,,,,,,,,,,,,,,,,,,,,,,,,,,,,0,0,0,2,1,pillow,,,,,,,,,,,,,,,,,,,,,,,,,
,,,,,,,,,,,,,,,89231,001,2022-04-26_16h49.43.732,SPAMnetsValid,2021.1.4,Win32,61.28577557,,,,,,,,,,,,,,,,,,,,,,,,,,,,,,,,,,,,,,,,,,,,,,,,,,,,making light,candle,0,0,0,0,1,,,,,,,,,,,,,,,,,,,,,,,,,,,,,,,
,,,,,,,,,,,,,,,89231,001,2022-04-26_16h49.43.732,SPAMnetsValid,2021.1.4,Win32,61.28577557,,,,,,,,,,,,,,,,,,,,,,,,,,,,,,,,,,,,,,,,,,,,,,,,,,,,cooking,candle,1,0,1,0,1,,,,,,,,,,,,,,,,,,,,,,,,,,,,,,,
,,,,,,,,,,,,,,,89231,001,2022-04-26_16h49.43.732,SPAMnetsValid,2021.1.4,Win32,61.28577557,,,,,,,,,,,,,,,,,,,,,,,,,,,,,,,,,,,,,,,,,,,,,,,,,,,,heating,candle,2,0,2,0,1,,,,,,,,,,,,,,,,,,,,,,,,,,,,,,,
,,,,,,,,,,,,,,,89231,001,2022-04-26_16h49.43.732,SPAMnetsValid,2021.1.4,Win32,61.28577557,,,,,,,,,,,,,,,,,,,,,,,,,,,,,,,,,,,,,,,,,,,,,,,,,,,,,,,,,,,0,1,1,1,1,candle,,,,,,,,,,,,,,,,,,,,,,,,,
,,,,,,,,,,,,,,,89231,001,2022-04-26_16h49.43.732,SPAMnetsValid,2021.1.4,Win32,61.28577557,,,,,,,,,,,,,,,,,,,,,,,,,,,,,,,,,,,,,,,,,,,,,,,,,,,,putting water in,bucket,0,0,0,0,1,,,,,,,,,,,,,,,,,,,,,,,,,,,,,,,
,,,,,,,,,,,,,,,89231,001,2022-04-26_16h49.43.732,SPAMnetsValid,2021.1.4,Win32,61.28577557,,,,,,,,,,,,,,,,,,,,,,,,,,,,,,,,,,,,,,,,,,,,,,,,,,,,dumping water out,bucket,1,0,1,0,1,,,,,,,,,,,,,,,,,,,,,,,,,,,,,,,
,,,,,,,,,,,,,,,89231,001,2022-04-26_16h49.43.732,SPAMnetsValid,2021.1.4,Win32,61.28577557,,,,,,,,,,,,,,,,,,,,,,,,,,,,,,,,,,,,,,,,,,,,,,,,,,,,putting sand in to make a sand castle,bucket,2,0,2,0,1,,,,,,,,,,,,,,,,,,,,,,,,,,,,,,,
,,,,,,,,,,,,,,,89231,001,2022-04-26_16h49.43.732,SPAMnetsValid,2021.1.4,Win32,61.28577557,,,,,,,,,,,,,,,,,,,,,,,,,,,,,,,,,,,,,,,,,,,,,,,,,,,,putting fish in it,bucket,3,0,3,0,1,,,,,,,,,,,,,,,,,,,,,,,,,,,,,,,
,,,,,,,,,,,,,,,89231,001,2022-04-26_16h49.43.732,SPAMnetsValid,2021.1.4,Win32,61.28577557,,,,,,,,,,,,,,,,,,,,,,,,,,,,,,,,,,,,,,,,,,,,,,,,,,,,,,,,,,,0,2,2,0,1,bucket,,,,,,,,,,,,,,,,,,,,,,,,,
,,,,,,,,,,,,,,,89231,001,2022-04-26_16h49.43.732,SPAMnetsValid,2021.1.4,Win32,61.28577557,,,,,,,,,,,,,,,,,,,,,,,,,,,,,,,,,,,,,,,,,,,,,,,,,,,,,,,,,,,,,,,,,cat,Animals,0,0,0,0,1,,,,,,,,,,,,,,,,,,
,,,,,,,,,,,,,,,89231,001,2022-04-26_16h49.43.732,SPAMnetsValid,2021.1.4,Win32,61.28577557,,,,,,,,,,,,,,,,,,,,,,,,,,,,,,,,,,,,,,,,,,,,,,,,,,,,,,,,,,,,,,,,,dog,Animals,1,0,1,0,1,,,,,,,,,,,,,,,,,,
,,,,,,,,,,,,,,,89231,001,2022-04-26_16h49.43.732,SPAMnetsValid,2021.1.4,Win32,61.28577557,,,,,,,,,,,,,,,,,,,,,,,,,,,,,,,,,,,,,,,,,,,,,,,,,,,,,,,,,,,,,,,,,snake,Animals,2,0,2,0,1,,,,,,,,,,,,,,,,,,
,,,,,,,,,,,,,,,89231,001,2022-04-26_16h49.43.732,SPAMnetsValid,2021.1.4,Win32,61.28577557,,,,,,,,,,,,,,,,,,,,,,,,,,,,,,,,,,,,,,,,,,,,,,,,,,,,,,,,,,,,,,,,,rabbit,Animals,3,0,3,0,1,,,,,,,,,,,,,,,,,,
,,,,,,,,,,,,,,,89231,001,2022-04-26_16h49.43.732,SPAMnetsValid,2021.1.4,Win32,61.28577557,,,,,,,,,,,,,,,,,,,,,,,,,,,,,,,,,,,,,,,,,,,,,,,,,,,,,,,,,,,,,,,,,fish,Animals,4,0,4,0,1,,,,,,,,,,,,,,,,,,
,,,,,,,,,,,,,,,89231,001,2022-04-26_16h49.43.732,SPAMnetsValid,2021.1.4,Win32,61.28577557,,,,,,,,,,,,,,,,,,,,,,,,,,,,,,,,,,,,,,,,,,,,,,,,,,,,,,,,,,,,,,,,,shark,Animals,5,0,5,0,1,,,,,,,,,,,,,,,,,,
,,,,,,,,,,,,,,,89231,001,2022-04-26_16h49.43.732,SPAMnetsValid,2021.1.4,Win32,61.28577557,,,,,,,,,,,,,,,,,,,,,,,,,,,,,,,,,,,,,,,,,,,,,,,,,,,,,,,,,,,,,,,,,bird,Animals,6,0,6,0,1,,,,,,,,,,,,,,,,,,
,,,,,,,,,,,,,,,89231,001,2022-04-26_16h49.43.732,SPAMnetsValid,2021.1.4,Win32,61.28577557,,,,,,,,,,,,,,,,,,,,,,,,,,,,,,,,,,,,,,,,,,,,,,,,,,,,,,,,,,,,,,,,,eagle,Animals,7,0,7,0,1,,,,,,,,,,,,,,,,,,
,,,,,,,,,,,,,,,89231,001,2022-04-26_16h49.43.732,SPAMnetsValid,2021.1.4,Win32,61.28577557,,,,,,,,,,,,,,,,,,,,,,,,,,,,,,,,,,,,,,,,,,,,,,,,,,,,,,,,,,,,,,,,,hawk,Animals,8,0,8,0,1,,,,,,,,,,,,,,,,,,
,,,,,,,,,,,,,,,89231,001,2022-04-26_16h49.43.732,SPAMnetsValid,2021.1.4,Win32,61.28577557,,,,,,,,,,,,,,,,,,,,,,,,,,,,,,,,,,,,,,,,,,,,,,,,,,,,,,,,,,,,,,,,,lion,Animals,9,0,9,0,1,,,,,,,,,,,,,,,,,,
,,,,,,,,,,,,,,,89231,001,2022-04-26_16h49.43.732,SPAMnetsValid,2021.1.4,Win32,61.28577557,,,,,,,,,,,,,,,,,,,,,,,,,,,,,,,,,,,,,,,,,,,,,,,,,,,,,,,,,,,,,,,,,zebra,Animals,10,0,10,0,1,,,,,,,,,,,,,,,,,,
,,,,,,,,,,,,,,,89231,001,2022-04-26_16h49.43.732,SPAMnetsValid,2021.1.4,Win32,61.28577557,,,,,,,,,,,,,,,,,,,,,,,,,,,,,,,,,,,,,,,,,,,,,,,,,,,,,,,,,,,,,,,,,gorilla,Animals,11,0,11,0,1,,,,,,,,,,,,,,,,,,
,,,,,,,,,,,,,,,89231,001,2022-04-26_16h49.43.732,SPAMnetsValid,2021.1.4,Win32,61.28577557,,,,,,,,,,,,,,,,,,,,,,,,,,,,,,,,,,,,,,,,,,,,,,,,,,,,,,,,,,,,,,,,,antelope,Animals,12,0,12,0,1,,,,,,,,,,,,,,,,,,
,,,,,,,,,,,,,,,89231,001,2022-04-26_16h49.43.732,SPAMnetsValid,2021.1.4,Win32,61.28577557,,,,,,,,,,,,,,,,,,,,,,,,,,,,,,,,,,,,,,,,,,,,,,,,,,,,,,,,,,,,,,,,,buffalo,Animals,13,0,13,0,1,,,,,,,,,,,,,,,,,,
,,,,,,,,,,,,,,,89231,001,2022-04-26_16h49.43.732,SPAMnetsValid,2021.1.4,Win32,61.28577557,,,,,,,,,,,,,,,,,,,,,,,,,,,,,,,,,,,,,,,,,,,,,,,,,,,,,,,,,,,,,,,,,polar bear,Animals,14,0,14,0,1,,,,,,,,,,,,,,,,,,
,,,,,,,,,,,,,,,89231,001,2022-04-26_16h49.43.732,SPAMnetsValid,2021.1.4,Win32,61.28577557,,,,,,,,,,,,,,,,,,,,,,,,,,,,,,,,,,,,,,,,,,,,,,,,,,,,,,,,,,,,,,,,,black bear,Animals,15,0,15,0,1,,,,,,,,,,,,,,,,,,
,,,,,,,,,,,,,,,89231,001,2022-04-26_16h49.43.732,SPAMnetsValid,2021.1.4,Win32,61.28577557,,,,,,,,,,,,,,,,,,,,,,,,,,,,,,,,,,,,,,,,,,,,,,,,,,,,,,,,,,,,,,,,,grizzly bear,Animals,16,0,16,0,1,,,,,,,,,,,,,,,,,,
,,,,,,,,,,,,,,,89231,001,2022-04-26_16h49.43.732,SPAMnetsValid,2021.1.4,Win32,61.28577557,,,,,,,,,,,,,,,,,,,,,,,,,,,,,,,,,,,,,,,,,,,,,,,,,,,,,,,,,,,,,,,,,frog,Animals,17,0,17,0,1,,,,,,,,,,,,,,,,,,
,,,,,,,,,,,,,,,89231,001,2022-04-26_16h49.43.732,SPAMnetsValid,2021.1.4,Win32,61.28577557,,,,,,,,,,,,,,,,,,,,,,,,,,,,,,,,,,,,,,,,,,,,,,,,,,,,,,,,,,,,,,,,,toad,Animals,18,0,18,0,1,,,,,,,,,,,,,,,,,,
,,,,,,,,,,,,,,,89231,001,2022-04-26_16h49.43.732,SPAMnetsValid,2021.1.4,Win32,61.28577557,,,,,,,,,,,,,,,,,,,,,,,,,,,,,,,,,,,,,,,,,,,,,,,,,,,,,,,,,,,,,,,,,dolphin,Animals,19,0,19,0,1,,,,,,,,,,,,,,,,,,
,,,,,,,,,,,,,,,89231,001,2022-04-26_16h49.43.732,SPAMnetsValid,2021.1.4,Win32,61.28577557,,,,,,,,,,,,,,,,,,,,,,,,,,,,,,,,,,,,,,,,,,,,,,,,,,,,,,,,,,,,,,,,,whale,Animals,20,0,20,0,1,,,,,,,,,,,,,,,,,,
,,,,,,,,,,,,,,,89231,001,2022-04-26_16h49.43.732,SPAMnetsValid,2021.1.4,Win32,61.28577557,,,,,,,,,,,,,,,,,,,,,,,,,,,,,,,,,,,,,,,,,,,,,,,,,,,,,,,,,,,,,,,,,mole,Animals,21,0,21,0,1,,,,,,,,,,,,,,,,,,
,,,,,,,,,,,,,,,89231,001,2022-04-26_16h49.43.732,SPAMnetsValid,2021.1.4,Win32,61.28577557,,,,,,,,,,,,,,,,,,,,,,,,,,,,,,,,,,,,,,,,,,,,,,,,,,,,,,,,,,,,,,,,,ground hog,Animals,22,0,22,0,1,,,,,,,,,,,,,,,,,,
,,,,,,,,,,,,,,,89231,001,2022-04-26_16h49.43.732,SPAMnetsValid,2021.1.4,Win32,61.28577557,,,,,,,,,,,,,,,,,,,,,,,,,,,,,,,,,,,,,,,,,,,,,,,,,,,,,,,,,,,,,,,,,fox,Animals,23,0,23,0,1,,,,,,,,,,,,,,,,,,
,,,,,,,,,,,,,,,89231,001,2022-04-26_16h49.43.732,SPAMnetsValid,2021.1.4,Win32,61.28577557,,,,,,,,,,,,,,,,,,,,,,,,,,,,,,,,,,,,,,,,,,,,,,,,,,,,,,,,,,,,,,,,,hedgehog,Animals,24,0,24,0,1,,,,,,,,,,,,,,,,,,
,,,,,,,,,,,,,,,89231,001,2022-04-26_16h49.43.732,SPAMnetsValid,2021.1.4,Win32,61.28577557,,,,,,,,,,,,,,,,,,,,,,,,,,,,,,,,,,,,,,,,,,,,,,,,,,,,,,,,,,,,,,,,,squrriel,Animals,25,0,25,0,1,,,,,,,,,,,,,,,,,,
,,,,,,,,,,,,,,,89231,001,2022-04-26_16h49.43.732,SPAMnetsValid,2021.1.4,Win32,61.28577557,,,,,,,,,,,,,,,,,,,,,,,,,,,,,,,,,,,,,,,,,,,,,,,,,,,,,,,,,,,,,,,,,,,,,,,,0,0,0,0,1,Animals,,,,,,,,,,,,
,,,,,,,,,,,,,,,89231,001,2022-04-26_16h49.43.732,SPAMnetsValid,2021.1.4,Win32,61.28577557,,,,,,,,,,,,,,,,,,,,,,,,,,,,,,,,,,,,,,,,,,,,,,,,,,,,,,,,,,,,,,,,,,,,,,,,,,,,,,4,8.0234,0,0,0,0,1,"I enjoy concentrating on a fantasy or daydream and exploring all its possibilities, letting it grow and develop.",0,1,,
,,,,,,,,,,,,,,,89231,001,2022-04-26_16h49.43.732,SPAMnetsValid,2021.1.4,Win32,61.28577557,,,,,,,,,,,,,,,,,,,,,,,,,,,,,,,,,,,,,,,,,,,,,,,,,,,,,,,,,,,,,,,,,,,,,,,,,,,,,,3,4.29,0,1,1,1,1,I think it's interesting to learn and develop new hobbies.,0,2,,
,,,,,,,,,,,,,,,89231,001,2022-04-26_16h49.43.732,SPAMnetsValid,2021.1.4,Win32,61.28577557,,,,,,,,,,,,,,,,,,,,,,,,,,,,,,,,,,,,,,,,,,,,,,,,,,,,,,,,,,,,,,,,,,,,,,,,,,,,,,3,2.8595,0,2,2,2,1,I am intrigued by the patterns I find in art and nature.,0,3,,
,,,,,,,,,,,,,,,89231,001,2022-04-26_16h49.43.732,SPAMnetsValid,2021.1.4,Win32,61.28577557,,,,,,,,,,,,,,,,,,,,,,,,,,,,,,,,,,,,,,,,,,,,,,,,,,,,,,,,,,,,,,,,,,,,,,,,,,,,,,3,6.0062,0,3,3,3,1,I believe letting students hear controversial speakers can only confuse and mislead them.,1,4,,
,,,,,,,,,,,,,,,89231,001,2022-04-26_16h49.43.732,SPAMnetsValid,2021.1.4,Win32,61.28577557,,,,,,,,,,,,,,,,,,,,,,,,,,,,,,,,,,,,,,,,,,,,,,,,,,,,,,,,,,,,,,,,,,,,,,,,,,,,,,3,5.0541,0,4,4,4,1,Poetry has little or no effect on me.,1,5,,
,,,,,,,,,,,,,,,89231,001,2022-04-26_16h49.43.732,SPAMnetsValid,2021.1.4,Win32,61.28577557,,,,,,,,,,,,,,,,,,,,,,,,,,,,,,,,,,,,,,,,,,,,,,,,,,,,,,,,,,,,,,,,,,,,,,,,,,,,,,2,7.8712,0,5,5,5,1,I would have difficulty just letting my mind wander without control or guidance.,1,6,,
,,,,,,,,,,,,,,,89231,001,2022-04-26_16h49.43.732,SPAMnetsValid,2021.1.4,Win32,61.28577557,,,,,,,,,,,,,,,,,,,,,,,,,,,,,,,,,,,,,,,,,,,,,,,,,,,,,,,,,,,,,,,,,,,,,,,,,,,,,,2,5.4714,0,6,6,6,1,I seldom notice the moods or feelings that different environments produce.,1,7,,
,,,,,,,,,,,,,,,89231,001,2022-04-26_16h49.43.732,SPAMnetsValid,2021.1.4,Win32,61.28577557,,,,,,,,,,,,,,,,,,,,,,,,,,,,,,,,,,,,,,,,,,,,,,,,,,,,,,,,,,,,,,,,,,,,,,,,,,,,,,4,3.4521,0,7,7,7,1,I experience a wide range of emotions or feelings.,0,8,,
,,,,,,,,,,,,,,,89231,001,2022-04-26_16h49.43.732,SPAMnetsValid,2021.1.4,Win32,61.28577557,,,,,,,,,,,,,,,,,,,,,,,,,,,,,,,,,,,,,,,,,,,,,,,,,,,,,,,,,,,,,,,,,,,,,,,,,,,,,,3,5.8426,0,8,8,8,1,"Sometimes when I am reading poetry or looking at a work of art, I feel a chill or wave of excitement.",0,9,,
,,,,,,,,,,,,,,,89231,001,2022-04-26_16h49.43.732,SPAMnetsValid,2021.1.4,Win32,61.28577557,,,,,,,,,,,,,,,,,,,,,,,,,,,,,,,,,,,,,,,,,,,,,,,,,,,,,,,,,,,,,,,,,,,,,,,,,,,,,,3,8.6442,0,9,9,9,1,I have little interest in speculating on the nature of the universe or the human condition.,1,10,,
,,,,,,,,,,,,,,,89231,001,2022-04-26_16h49.43.732,SPAMnetsValid,2021.1.4,Win32,61.28577557,,,,,,,,,,,,,,,,,,,,,,,,,,,,,,,,,,,,,,,,,,,,,,,,,,,,,,,,,,,,,,,,,,,,,,,,,,,,,,4,2.3848,0,10,10,10,1,I have a lot of intellectual curiosity.,0,11,,
,,,,,,,,,,,,,,,89231,001,2022-04-26_16h49.43.732,SPAMnetsValid,2021.1.4,Win32,61.28577557,,,,,,,,,,,,,,,,,,,,,,,,,,,,,,,,,,,,,,,,,,,,,,,,,,,,,,,,,,,,,,,,,,,,,,,,,,,,,,3,3.4793,0,11,11,11,1,I often enjoy playing with theories or abstract ideas.,0,12,,
,,,,,,,,,,,,,,,89231,001,2022-04-26_16h49.43.732,SPAMnetsValid,2021.1.4,Win32,61.28577557,,,,,,,,,,,,,,,,,,,,,,,,,,,,,,,,,,,,,,,,,,,,,,,,,,,,,,,,,,,,,,,,,,,,,,,,,,,,,,,,,,,,,,,,return,7.2264
