key_resp_3.keys,key_resp_3.rt,slider.response,slider.rt,rjt_rating,rjt_RT,trials_22.thisRepN,trials_22.thisTrialN,trials_22.thisN,trials_22.thisIndex,trials_22.ran,rjt_order,word1,word2,attention,participant,session,date,expName,psychopyVersion,OS,frameRate,trials_99.thisRepN,trials_99.thisTrialN,trials_99.thisN,trials_99.thisIndex,trials_99.ran,trials_5.thisRepN,trials_5.thisTrialN,trials_5.thisN,trials_5.thisIndex,trials_5.ran,repOne,repTwo,slider_2.response,slider_2.rt,trials_24.thisRepN,trials_24.thisTrialN,trials_24.thisN,trials_24.thisIndex,trials_24.ran,trials_4.thisRepN,trials_4.thisTrialN,trials_4.thisN,trials_4.thisIndex,trials_4.ran,slider_extend_2.response,slider_extend_2.rt,trials_6.thisRepN,trials_6.thisTrialN,trials_6.thisN,trials_6.thisIndex,trials_6.ran,vCue2,R1,R2,R3,R4,correct,sliderVocab.response,sliderVocab.rt,trials_7.thisRepN,trials_7.thisTrialN,trials_7.thisN,trials_7.thisIndex,trials_7.ran,VocabCue,VR1,VR2,VR3,VR4,VR5,VocabCorrect,AUT_resp,AUT_label,trials.thisRepN,trials.thisTrialN,trials.thisN,trials.thisIndex,trials.ran,trials_2.thisRepN,trials_2.thisTrialN,trials_2.thisN,trials_2.thisIndex,trials_2.ran,aut_prompt,VF_response,VF_tag,trials_16.thisRepN,trials_16.thisTrialN,trials_16.thisN,trials_16.thisIndex,trials_16.ran,trials_17.thisRepN,trials_17.thisTrialN,trials_17.thisN,trials_17.thisIndex,trials_17.ran,VFcond,open_slider.response,open_slider.rt,trials_3.thisRepN,trials_3.thisTrialN,trials_3.thisN,trials_3.thisIndex,trials_3.ran,OpenQ,Rev,OPEN_ORDER,key_resp_2.keys,key_resp_2.rt
return,5.5842,9,5.0642,9,5.0642,0,0,0,19,1,76,garden,rose,,89259,001,2022-04-26_16h33.20.074,SPAMnetsValid,2021.1.4,Win32,60.06366749,,,,,,,,,,,,,,,,,,,,,,,,,,,,,,,,,,,,,,,,,,,,,,,,,,,,,,,,,,,,,,,,,,,,,,,,,,,,,,,,,,,,,,,,,
,,1,1.5986,1,1.5986,0,1,1,84,1,91,microwave,rose,,89259,001,2022-04-26_16h33.20.074,SPAMnetsValid,2021.1.4,Win32,60.06366749,,,,,,,,,,,,,,,,,,,,,,,,,,,,,,,,,,,,,,,,,,,,,,,,,,,,,,,,,,,,,,,,,,,,,,,,,,,,,,,,,,,,,,,,,
,,1,1.3898,1,1.3898,0,2,2,5,1,13,broom,yogurt,,89259,001,2022-04-26_16h33.20.074,SPAMnetsValid,2021.1.4,Win32,60.06366749,,,,,,,,,,,,,,,,,,,,,,,,,,,,,,,,,,,,,,,,,,,,,,,,,,,,,,,,,,,,,,,,,,,,,,,,,,,,,,,,,,,,,,,,,
,,1,1.2781,1,1.2781,0,3,3,23,1,65,broom,garden,,89259,001,2022-04-26_16h33.20.074,SPAMnetsValid,2021.1.4,Win32,60.06366749,,,,,,,,,,,,,,,,,,,,,,,,,,,,,,,,,,,,,,,,,,,,,,,,,,,,,,,,,,,,,,,,,,,,,,,,,,,,,,,,,,,,,,,,,
,,9,2.3669,9,2.3669,0,4,4,10,1,191,cake,cake,CHECK,89259,001,2022-04-26_16h33.20.074,SPAMnetsValid,2021.1.4,Win32,60.06366749,,,,,,,,,,,,,,,,,,,,,,,,,,,,,,,,,,,,,,,,,,,,,,,,,,,,,,,,,,,,,,,,,,,,,,,,,,,,,,,,,,,,,,,,,
,,9,1.5576,9,1.5576,0,5,5,53,1,192,microwave,microwave,CHECK,89259,001,2022-04-26_16h33.20.074,SPAMnetsValid,2021.1.4,Win32,60.06366749,,,,,,,,,,,,,,,,,,,,,,,,,,,,,,,,,,,,,,,,,,,,,,,,,,,,,,,,,,,,,,,,,,,,,,,,,,,,,,,,,,,,,,,,,
,,1,1.7761,1,1.7761,0,6,6,65,1,46,garden,yogurt,,89259,001,2022-04-26_16h33.20.074,SPAMnetsValid,2021.1.4,Win32,60.06366749,,,,,,,,,,,,,,,,,,,,,,,,,,,,,,,,,,,,,,,,,,,,,,,,,,,,,,,,,,,,,,,,,,,,,,,,,,,,,,,,,,,,,,,,,
,,1,1.598,1,1.598,0,7,7,20,1,39,melon,pretzel,,89259,001,2022-04-26_16h33.20.074,SPAMnetsValid,2021.1.4,Win32,60.06366749,,,,,,,,,,,,,,,,,,,,,,,,,,,,,,,,,,,,,,,,,,,,,,,,,,,,,,,,,,,,,,,,,,,,,,,,,,,,,,,,,,,,,,,,,
,,9,1.3766,9,1.3766,0,8,8,58,1,94,kitchen,microwave,,89259,001,2022-04-26_16h33.20.074,SPAMnetsValid,2021.1.4,Win32,60.06366749,,,,,,,,,,,,,,,,,,,,,,,,,,,,,,,,,,,,,,,,,,,,,,,,,,,,,,,,,,,,,,,,,,,,,,,,,,,,,,,,,,,,,,,,,
,,1,1.7451,1,1.7451,0,9,9,0,1,53,garden,pretzel,,89259,001,2022-04-26_16h33.20.074,SPAMnetsValid,2021.1.4,Win32,60.06366749,,,,,,,,,,,,,,,,,,,,,,,,,,,,,,,,,,,,,,,,,,,,,,,,,,,,,,,,,,,,,,,,,,,,,,,,,,,,,,,,,,,,,,,,,
,,1,1.6892,1,1.6892,0,10,10,18,1,85,cake,tree,,89259,001,2022-04-26_16h33.20.074,SPAMnetsValid,2021.1.4,Win32,60.06366749,,,,,,,,,,,,,,,,,,,,,,,,,,,,,,,,,,,,,,,,,,,,,,,,,,,,,,,,,,,,,,,,,,,,,,,,,,,,,,,,,,,,,,,,,
,,1,1.5543,1,1.5543,0,11,11,47,1,73,broom,chocolate,,89259,001,2022-04-26_16h33.20.074,SPAMnetsValid,2021.1.4,Win32,60.06366749,,,,,,,,,,,,,,,,,,,,,,,,,,,,,,,,,,,,,,,,,,,,,,,,,,,,,,,,,,,,,,,,,,,,,,,,,,,,,,,,,,,,,,,,,
,,7,2.7484,7,2.7484,0,12,12,54,1,28,cake,melon,,89259,001,2022-04-26_16h33.20.074,SPAMnetsValid,2021.1.4,Win32,60.06366749,,,,,,,,,,,,,,,,,,,,,,,,,,,,,,,,,,,,,,,,,,,,,,,,,,,,,,,,,,,,,,,,,,,,,,,,,,,,,,,,,,,,,,,,,
,,1,1.3344,1,1.3344,0,13,13,14,1,64,chocolate,garden,,89259,001,2022-04-26_16h33.20.074,SPAMnetsValid,2021.1.4,Win32,60.06366749,,,,,,,,,,,,,,,,,,,,,,,,,,,,,,,,,,,,,,,,,,,,,,,,,,,,,,,,,,,,,,,,,,,,,,,,,,,,,,,,,,,,,,,,,
,,9,1.1922,9,1.1922,0,14,14,82,1,93,kitchen,oven,,89259,001,2022-04-26_16h33.20.074,SPAMnetsValid,2021.1.4,Win32,60.06366749,,,,,,,,,,,,,,,,,,,,,,,,,,,,,,,,,,,,,,,,,,,,,,,,,,,,,,,,,,,,,,,,,,,,,,,,,,,,,,,,,,,,,,,,,
,,7,2.4117,7,2.4117,0,15,15,34,1,29,chocolate,melon,,89259,001,2022-04-26_16h33.20.074,SPAMnetsValid,2021.1.4,Win32,60.06366749,,,,,,,,,,,,,,,,,,,,,,,,,,,,,,,,,,,,,,,,,,,,,,,,,,,,,,,,,,,,,,,,,,,,,,,,,,,,,,,,,,,,,,,,,
,,4,0.9928,4,0.9928,0,16,16,88,1,92,broom,flower,,89259,001,2022-04-26_16h33.20.074,SPAMnetsValid,2021.1.4,Win32,60.06366749,,,,,,,,,,,,,,,,,,,,,,,,,,,,,,,,,,,,,,,,,,,,,,,,,,,,,,,,,,,,,,,,,,,,,,,,,,,,,,,,,,,,,,,,,
,,9,1.6287,9,1.6287,0,17,17,96,1,82,cake,kitchen,,89259,001,2022-04-26_16h33.20.074,SPAMnetsValid,2021.1.4,Win32,60.06366749,,,,,,,,,,,,,,,,,,,,,,,,,,,,,,,,,,,,,,,,,,,,,,,,,,,,,,,,,,,,,,,,,,,,,,,,,,,,,,,,,,,,,,,,,
,,1,2.0898,1,2.0898,0,18,18,13,1,26,tomato,yogurt,,89259,001,2022-04-26_16h33.20.074,SPAMnetsValid,2021.1.4,Win32,60.06366749,,,,,,,,,,,,,,,,,,,,,,,,,,,,,,,,,,,,,,,,,,,,,,,,,,,,,,,,,,,,,,,,,,,,,,,,,,,,,,,,,,,,,,,,,
,,9,2.0645,9,2.0645,0,19,19,44,1,25,carrot,onion,,89259,001,2022-04-26_16h33.20.074,SPAMnetsValid,2021.1.4,Win32,60.06366749,,,,,,,,,,,,,,,,,,,,,,,,,,,,,,,,,,,,,,,,,,,,,,,,,,,,,,,,,,,,,,,,,,,,,,,,,,,,,,,,,,,,,,,,,
,,1,2.0169,1,2.0169,0,20,20,50,1,81,pretzel,yogurt,,89259,001,2022-04-26_16h33.20.074,SPAMnetsValid,2021.1.4,Win32,60.06366749,,,,,,,,,,,,,,,,,,,,,,,,,,,,,,,,,,,,,,,,,,,,,,,,,,,,,,,,,,,,,,,,,,,,,,,,,,,,,,,,,,,,,,,,,
,,6,1.951,6,1.951,0,21,21,39,1,15,onion,oven,,89259,001,2022-04-26_16h33.20.074,SPAMnetsValid,2021.1.4,Win32,60.06366749,,,,,,,,,,,,,,,,,,,,,,,,,,,,,,,,,,,,,,,,,,,,,,,,,,,,,,,,,,,,,,,,,,,,,,,,,,,,,,,,,,,,,,,,,
,,1,1.2749,1,1.2749,0,22,22,55,1,1,rose,yogurt,,89259,001,2022-04-26_16h33.20.074,SPAMnetsValid,2021.1.4,Win32,60.06366749,,,,,,,,,,,,,,,,,,,,,,,,,,,,,,,,,,,,,,,,,,,,,,,,,,,,,,,,,,,,,,,,,,,,,,,,,,,,,,,,,,,,,,,,,
,,1,1.5259,1,1.5259,0,23,23,79,1,86,oven,rose,,89259,001,2022-04-26_16h33.20.074,SPAMnetsValid,2021.1.4,Win32,60.06366749,,,,,,,,,,,,,,,,,,,,,,,,,,,,,,,,,,,,,,,,,,,,,,,,,,,,,,,,,,,,,,,,,,,,,,,,,,,,,,,,,,,,,,,,,
,,9,1.523,9,1.523,0,24,24,30,1,3,cake,oven,,89259,001,2022-04-26_16h33.20.074,SPAMnetsValid,2021.1.4,Win32,60.06366749,,,,,,,,,,,,,,,,,,,,,,,,,,,,,,,,,,,,,,,,,,,,,,,,,,,,,,,,,,,,,,,,,,,,,,,,,,,,,,,,,,,,,,,,,
,,7,4.0884,7,4.0884,0,25,25,36,1,12,cookie,yogurt,,89259,001,2022-04-26_16h33.20.074,SPAMnetsValid,2021.1.4,Win32,60.06366749,,,,,,,,,,,,,,,,,,,,,,,,,,,,,,,,,,,,,,,,,,,,,,,,,,,,,,,,,,,,,,,,,,,,,,,,,,,,,,,,,,,,,,,,,
,,1,2.0668,1,2.0668,0,26,26,90,1,95,broom,refrigerator,,89259,001,2022-04-26_16h33.20.074,SPAMnetsValid,2021.1.4,Win32,60.06366749,,,,,,,,,,,,,,,,,,,,,,,,,,,,,,,,,,,,,,,,,,,,,,,,,,,,,,,,,,,,,,,,,,,,,,,,,,,,,,,,,,,,,,,,,
,,9,1.6636,9,1.6636,0,27,27,75,1,69,carrot,refrigerator,,89259,001,2022-04-26_16h33.20.074,SPAMnetsValid,2021.1.4,Win32,60.06366749,,,,,,,,,,,,,,,,,,,,,,,,,,,,,,,,,,,,,,,,,,,,,,,,,,,,,,,,,,,,,,,,,,,,,,,,,,,,,,,,,,,,,,,,,
,,1,1.3524,1,1.3524,0,28,28,61,1,71,broom,rose,,89259,001,2022-04-26_16h33.20.074,SPAMnetsValid,2021.1.4,Win32,60.06366749,,,,,,,,,,,,,,,,,,,,,,,,,,,,,,,,,,,,,,,,,,,,,,,,,,,,,,,,,,,,,,,,,,,,,,,,,,,,,,,,,,,,,,,,,
,,1,4.0275,1,4.0275,0,29,29,85,1,90,cactus,cake,,89259,001,2022-04-26_16h33.20.074,SPAMnetsValid,2021.1.4,Win32,60.06366749,,,,,,,,,,,,,,,,,,,,,,,,,,,,,,,,,,,,,,,,,,,,,,,,,,,,,,,,,,,,,,,,,,,,,,,,,,,,,,,,,,,,,,,,,
,,7,2.6471,7,2.6471,0,30,30,68,1,24,cookie,tomato,,89259,001,2022-04-26_16h33.20.074,SPAMnetsValid,2021.1.4,Win32,60.06366749,,,,,,,,,,,,,,,,,,,,,,,,,,,,,,,,,,,,,,,,,,,,,,,,,,,,,,,,,,,,,,,,,,,,,,,,,,,,,,,,,,,,,,,,,
,,8,1.4216,8,1.4216,0,31,31,89,1,80,chocolate,tree,,89259,001,2022-04-26_16h33.20.074,SPAMnetsValid,2021.1.4,Win32,60.06366749,,,,,,,,,,,,,,,,,,,,,,,,,,,,,,,,,,,,,,,,,,,,,,,,,,,,,,,,,,,,,,,,,,,,,,,,,,,,,,,,,,,,,,,,,
,,5,1.1719,5,1.1719,0,32,32,9,1,75,cookie,onion,,89259,001,2022-04-26_16h33.20.074,SPAMnetsValid,2021.1.4,Win32,60.06366749,,,,,,,,,,,,,,,,,,,,,,,,,,,,,,,,,,,,,,,,,,,,,,,,,,,,,,,,,,,,,,,,,,,,,,,,,,,,,,,,,,,,,,,,,
,,1,1.89,1,1.89,0,33,33,37,1,58,garden,oven,,89259,001,2022-04-26_16h33.20.074,SPAMnetsValid,2021.1.4,Win32,60.06366749,,,,,,,,,,,,,,,,,,,,,,,,,,,,,,,,,,,,,,,,,,,,,,,,,,,,,,,,,,,,,,,,,,,,,,,,,,,,,,,,,,,,,,,,,
,,1,1.4215,1,1.4215,0,34,34,15,1,48,flower,oven,,89259,001,2022-04-26_16h33.20.074,SPAMnetsValid,2021.1.4,Win32,60.06366749,,,,,,,,,,,,,,,,,,,,,,,,,,,,,,,,,,,,,,,,,,,,,,,,,,,,,,,,,,,,,,,,,,,,,,,,,,,,,,,,,,,,,,,,,
,,1,1.887,1,1.887,0,35,35,29,1,42,garden,kitchen,,89259,001,2022-04-26_16h33.20.074,SPAMnetsValid,2021.1.4,Win32,60.06366749,,,,,,,,,,,,,,,,,,,,,,,,,,,,,,,,,,,,,,,,,,,,,,,,,,,,,,,,,,,,,,,,,,,,,,,,,,,,,,,,,,,,,,,,,
,,7,1.516,7,1.516,0,36,36,86,1,51,onion,strawberry,,89259,001,2022-04-26_16h33.20.074,SPAMnetsValid,2021.1.4,Win32,60.06366749,,,,,,,,,,,,,,,,,,,,,,,,,,,,,,,,,,,,,,,,,,,,,,,,,,,,,,,,,,,,,,,,,,,,,,,,,,,,,,,,,,,,,,,,,
,,7,1.0699,7,1.0699,0,37,37,42,1,77,refrigerator,yogurt,,89259,001,2022-04-26_16h33.20.074,SPAMnetsValid,2021.1.4,Win32,60.06366749,,,,,,,,,,,,,,,,,,,,,,,,,,,,,,,,,,,,,,,,,,,,,,,,,,,,,,,,,,,,,,,,,,,,,,,,,,,,,,,,,,,,,,,,,
,,1,0.9379,1,0.9379,0,38,38,59,1,8,broom,melon,,89259,001,2022-04-26_16h33.20.074,SPAMnetsValid,2021.1.4,Win32,60.06366749,,,,,,,,,,,,,,,,,,,,,,,,,,,,,,,,,,,,,,,,,,,,,,,,,,,,,,,,,,,,,,,,,,,,,,,,,,,,,,,,,,,,,,,,,
,,1,1.3287,1,1.3287,0,39,39,52,1,4,chocolate,pretzel,,89259,001,2022-04-26_16h33.20.074,SPAMnetsValid,2021.1.4,Win32,60.06366749,,,,,,,,,,,,,,,,,,,,,,,,,,,,,,,,,,,,,,,,,,,,,,,,,,,,,,,,,,,,,,,,,,,,,,,,,,,,,,,,,,,,,,,,,
,,7,1.5887,7,1.5887,0,40,40,21,1,56,cactus,tree,,89259,001,2022-04-26_16h33.20.074,SPAMnetsValid,2021.1.4,Win32,60.06366749,,,,,,,,,,,,,,,,,,,,,,,,,,,,,,,,,,,,,,,,,,,,,,,,,,,,,,,,,,,,,,,,,,,,,,,,,,,,,,,,,,,,,,,,,
,,1,0.9683,1,0.9683,0,41,41,40,1,74,broom,pretzel,,89259,001,2022-04-26_16h33.20.074,SPAMnetsValid,2021.1.4,Win32,60.06366749,,,,,,,,,,,,,,,,,,,,,,,,,,,,,,,,,,,,,,,,,,,,,,,,,,,,,,,,,,,,,,,,,,,,,,,,,,,,,,,,,,,,,,,,,
,,1,1.3526,1,1.3526,0,42,42,11,1,37,garden,refrigerator,,89259,001,2022-04-26_16h33.20.074,SPAMnetsValid,2021.1.4,Win32,60.06366749,,,,,,,,,,,,,,,,,,,,,,,,,,,,,,,,,,,,,,,,,,,,,,,,,,,,,,,,,,,,,,,,,,,,,,,,,,,,,,,,,,,,,,,,,
,,1,1.2852,1,1.2852,0,43,43,8,1,43,chocolate,tomato,,89259,001,2022-04-26_16h33.20.074,SPAMnetsValid,2021.1.4,Win32,60.06366749,,,,,,,,,,,,,,,,,,,,,,,,,,,,,,,,,,,,,,,,,,,,,,,,,,,,,,,,,,,,,,,,,,,,,,,,,,,,,,,,,,,,,,,,,
,,6,1.805,6,1.805,0,44,44,49,1,57,flower,kitchen,,89259,001,2022-04-26_16h33.20.074,SPAMnetsValid,2021.1.4,Win32,60.06366749,,,,,,,,,,,,,,,,,,,,,,,,,,,,,,,,,,,,,,,,,,,,,,,,,,,,,,,,,,,,,,,,,,,,,,,,,,,,,,,,,,,,,,,,,
,,1,1.117,1,1.117,0,45,45,17,1,27,cactus,cookie,,89259,001,2022-04-26_16h33.20.074,SPAMnetsValid,2021.1.4,Win32,60.06366749,,,,,,,,,,,,,,,,,,,,,,,,,,,,,,,,,,,,,,,,,,,,,,,,,,,,,,,,,,,,,,,,,,,,,,,,,,,,,,,,,,,,,,,,,
,,8,1.438,8,1.438,0,46,46,64,1,9,kitchen,refrigerator,,89259,001,2022-04-26_16h33.20.074,SPAMnetsValid,2021.1.4,Win32,60.06366749,,,,,,,,,,,,,,,,,,,,,,,,,,,,,,,,,,,,,,,,,,,,,,,,,,,,,,,,,,,,,,,,,,,,,,,,,,,,,,,,,,,,,,,,,
,,7,1.5868,7,1.5868,0,47,47,71,1,38,pretzel,refrigerator,,89259,001,2022-04-26_16h33.20.074,SPAMnetsValid,2021.1.4,Win32,60.06366749,,,,,,,,,,,,,,,,,,,,,,,,,,,,,,,,,,,,,,,,,,,,,,,,,,,,,,,,,,,,,,,,,,,,,,,,,,,,,,,,,,,,,,,,,
,,7,1.2192,7,1.2192,0,48,48,95,1,52,carrot,tomato,,89259,001,2022-04-26_16h33.20.074,SPAMnetsValid,2021.1.4,Win32,60.06366749,,,,,,,,,,,,,,,,,,,,,,,,,,,,,,,,,,,,,,,,,,,,,,,,,,,,,,,,,,,,,,,,,,,,,,,,,,,,,,,,,,,,,,,,,
,,7,1.3811,7,1.3811,0,49,49,78,1,30,cookie,pretzel,,89259,001,2022-04-26_16h33.20.074,SPAMnetsValid,2021.1.4,Win32,60.06366749,,,,,,,,,,,,,,,,,,,,,,,,,,,,,,,,,,,,,,,,,,,,,,,,,,,,,,,,,,,,,,,,,,,,,,,,,,,,,,,,,,,,,,,,,
,,6,2.0093,6,2.0093,0,50,50,74,1,70,chocolate,onion,,89259,001,2022-04-26_16h33.20.074,SPAMnetsValid,2021.1.4,Win32,60.06366749,,,,,,,,,,,,,,,,,,,,,,,,,,,,,,,,,,,,,,,,,,,,,,,,,,,,,,,,,,,,,,,,,,,,,,,,,,,,,,,,,,,,,,,,,
,,7,1.1189,7,1.1189,0,51,51,51,1,47,onion,tomato,,89259,001,2022-04-26_16h33.20.074,SPAMnetsValid,2021.1.4,Win32,60.06366749,,,,,,,,,,,,,,,,,,,,,,,,,,,,,,,,,,,,,,,,,,,,,,,,,,,,,,,,,,,,,,,,,,,,,,,,,,,,,,,,,,,,,,,,,
,,7,1.267,7,1.267,0,52,52,57,1,62,kitchen,rose,,89259,001,2022-04-26_16h33.20.074,SPAMnetsValid,2021.1.4,Win32,60.06366749,,,,,,,,,,,,,,,,,,,,,,,,,,,,,,,,,,,,,,,,,,,,,,,,,,,,,,,,,,,,,,,,,,,,,,,,,,,,,,,,,,,,,,,,,
,,1,1.5668,1,1.5668,0,53,53,4,1,83,broom,carrot,,89259,001,2022-04-26_16h33.20.074,SPAMnetsValid,2021.1.4,Win32,60.06366749,,,,,,,,,,,,,,,,,,,,,,,,,,,,,,,,,,,,,,,,,,,,,,,,,,,,,,,,,,,,,,,,,,,,,,,,,,,,,,,,,,,,,,,,,
,,1,1.4823,1,1.4823,0,54,54,70,1,5,oven,tree,,89259,001,2022-04-26_16h33.20.074,SPAMnetsValid,2021.1.4,Win32,60.06366749,,,,,,,,,,,,,,,,,,,,,,,,,,,,,,,,,,,,,,,,,,,,,,,,,,,,,,,,,,,,,,,,,,,,,,,,,,,,,,,,,,,,,,,,,
,,1,1.4199,1,1.4199,0,55,55,56,1,78,cookie,rose,,89259,001,2022-04-26_16h33.20.074,SPAMnetsValid,2021.1.4,Win32,60.06366749,,,,,,,,,,,,,,,,,,,,,,,,,,,,,,,,,,,,,,,,,,,,,,,,,,,,,,,,,,,,,,,,,,,,,,,,,,,,,,,,,,,,,,,,,
,,7,1.4176,7,1.4176,0,56,56,92,1,44,cookie,melon,,89259,001,2022-04-26_16h33.20.074,SPAMnetsValid,2021.1.4,Win32,60.06366749,,,,,,,,,,,,,,,,,,,,,,,,,,,,,,,,,,,,,,,,,,,,,,,,,,,,,,,,,,,,,,,,,,,,,,,,,,,,,,,,,,,,,,,,,
,,1,1.2336,1,1.2336,0,57,57,22,1,16,chocolate,flower,,89259,001,2022-04-26_16h33.20.074,SPAMnetsValid,2021.1.4,Win32,60.06366749,,,,,,,,,,,,,,,,,,,,,,,,,,,,,,,,,,,,,,,,,,,,,,,,,,,,,,,,,,,,,,,,,,,,,,,,,,,,,,,,,,,,,,,,,
,,1,1.4626,1,1.4626,0,58,58,12,1,67,flower,yogurt,,89259,001,2022-04-26_16h33.20.074,SPAMnetsValid,2021.1.4,Win32,60.06366749,,,,,,,,,,,,,,,,,,,,,,,,,,,,,,,,,,,,,,,,,,,,,,,,,,,,,,,,,,,,,,,,,,,,,,,,,,,,,,,,,,,,,,,,,
,,8,1.8293,8,1.8293,0,59,59,91,1,2,kitchen,onion,,89259,001,2022-04-26_16h33.20.074,SPAMnetsValid,2021.1.4,Win32,60.06366749,,,,,,,,,,,,,,,,,,,,,,,,,,,,,,,,,,,,,,,,,,,,,,,,,,,,,,,,,,,,,,,,,,,,,,,,,,,,,,,,,,,,,,,,,
,,9,2.0831,9,2.0831,0,60,60,83,1,6,garden,onion,,89259,001,2022-04-26_16h33.20.074,SPAMnetsValid,2021.1.4,Win32,60.06366749,,,,,,,,,,,,,,,,,,,,,,,,,,,,,,,,,,,,,,,,,,,,,,,,,,,,,,,,,,,,,,,,,,,,,,,,,,,,,,,,,,,,,,,,,
,,1,1.2496,1,1.2496,0,61,61,25,1,23,flower,microwave,,89259,001,2022-04-26_16h33.20.074,SPAMnetsValid,2021.1.4,Win32,60.06366749,,,,,,,,,,,,,,,,,,,,,,,,,,,,,,,,,,,,,,,,,,,,,,,,,,,,,,,,,,,,,,,,,,,,,,,,,,,,,,,,,,,,,,,,,
,,1,1.1594,1,1.1594,0,62,62,26,1,35,flower,pretzel,,89259,001,2022-04-26_16h33.20.074,SPAMnetsValid,2021.1.4,Win32,60.06366749,,,,,,,,,,,,,,,,,,,,,,,,,,,,,,,,,,,,,,,,,,,,,,,,,,,,,,,,,,,,,,,,,,,,,,,,,,,,,,,,,,,,,,,,,
,,6,1.6836,6,1.6836,0,63,63,35,1,55,tomato,tree,,89259,001,2022-04-26_16h33.20.074,SPAMnetsValid,2021.1.4,Win32,60.06366749,,,,,,,,,,,,,,,,,,,,,,,,,,,,,,,,,,,,,,,,,,,,,,,,,,,,,,,,,,,,,,,,,,,,,,,,,,,,,,,,,,,,,,,,,
,,1,0.9391,1,0.9391,0,64,64,41,1,19,microwave,pretzel,,89259,001,2022-04-26_16h33.20.074,SPAMnetsValid,2021.1.4,Win32,60.06366749,,,,,,,,,,,,,,,,,,,,,,,,,,,,,,,,,,,,,,,,,,,,,,,,,,,,,,,,,,,,,,,,,,,,,,,,,,,,,,,,,,,,,,,,,
,,1,1.7176,1,1.7176,0,65,65,16,1,14,broom,cookie,,89259,001,2022-04-26_16h33.20.074,SPAMnetsValid,2021.1.4,Win32,60.06366749,,,,,,,,,,,,,,,,,,,,,,,,,,,,,,,,,,,,,,,,,,,,,,,,,,,,,,,,,,,,,,,,,,,,,,,,,,,,,,,,,,,,,,,,,
,,1,1.0745,1,1.0745,0,66,66,27,1,72,broom,onion,,89259,001,2022-04-26_16h33.20.074,SPAMnetsValid,2021.1.4,Win32,60.06366749,,,,,,,,,,,,,,,,,,,,,,,,,,,,,,,,,,,,,,,,,,,,,,,,,,,,,,,,,,,,,,,,,,,,,,,,,,,,,,,,,,,,,,,,,
,,7,1.5563,7,1.5563,0,67,67,69,1,45,onion,pretzel,,89259,001,2022-04-26_16h33.20.074,SPAMnetsValid,2021.1.4,Win32,60.06366749,,,,,,,,,,,,,,,,,,,,,,,,,,,,,,,,,,,,,,,,,,,,,,,,,,,,,,,,,,,,,,,,,,,,,,,,,,,,,,,,,,,,,,,,,
,,7,1.7692,7,1.7692,0,68,68,67,1,54,chocolate,yogurt,,89259,001,2022-04-26_16h33.20.074,SPAMnetsValid,2021.1.4,Win32,60.06366749,,,,,,,,,,,,,,,,,,,,,,,,,,,,,,,,,,,,,,,,,,,,,,,,,,,,,,,,,,,,,,,,,,,,,,,,,,,,,,,,,,,,,,,,,
,,8,1.6042,8,1.6042,0,69,69,24,1,17,carrot,melon,,89259,001,2022-04-26_16h33.20.074,SPAMnetsValid,2021.1.4,Win32,60.06366749,,,,,,,,,,,,,,,,,,,,,,,,,,,,,,,,,,,,,,,,,,,,,,,,,,,,,,,,,,,,,,,,,,,,,,,,,,,,,,,,,,,,,,,,,
,,1,1.3544,1,1.3544,0,70,70,46,1,41,broom,cactus,,89259,001,2022-04-26_16h33.20.074,SPAMnetsValid,2021.1.4,Win32,60.06366749,,,,,,,,,,,,,,,,,,,,,,,,,,,,,,,,,,,,,,,,,,,,,,,,,,,,,,,,,,,,,,,,,,,,,,,,,,,,,,,,,,,,,,,,,
,,9,1.4615,9,1.4615,0,71,71,76,1,36,broom,kitchen,,89259,001,2022-04-26_16h33.20.074,SPAMnetsValid,2021.1.4,Win32,60.06366749,,,,,,,,,,,,,,,,,,,,,,,,,,,,,,,,,,,,,,,,,,,,,,,,,,,,,,,,,,,,,,,,,,,,,,,,,,,,,,,,,,,,,,,,,
,,6,2.8244,6,2.8244,0,72,72,81,1,60,cactus,onion,,89259,001,2022-04-26_16h33.20.074,SPAMnetsValid,2021.1.4,Win32,60.06366749,,,,,,,,,,,,,,,,,,,,,,,,,,,,,,,,,,,,,,,,,,,,,,,,,,,,,,,,,,,,,,,,,,,,,,,,,,,,,,,,,,,,,,,,,
,,1,1.9579,1,1.9579,0,73,73,32,1,40,broom,cake,,89259,001,2022-04-26_16h33.20.074,SPAMnetsValid,2021.1.4,Win32,60.06366749,,,,,,,,,,,,,,,,,,,,,,,,,,,,,,,,,,,,,,,,,,,,,,,,,,,,,,,,,,,,,,,,,,,,,,,,,,,,,,,,,,,,,,,,,
,,9,1.6206,9,1.6206,0,74,74,93,1,63,cake,cookie,,89259,001,2022-04-26_16h33.20.074,SPAMnetsValid,2021.1.4,Win32,60.06366749,,,,,,,,,,,,,,,,,,,,,,,,,,,,,,,,,,,,,,,,,,,,,,,,,,,,,,,,,,,,,,,,,,,,,,,,,,,,,,,,,,,,,,,,,
,,1,1.1368,1,1.1368,0,75,75,45,1,10,flower,onion,,89259,001,2022-04-26_16h33.20.074,SPAMnetsValid,2021.1.4,Win32,60.06366749,,,,,,,,,,,,,,,,,,,,,,,,,,,,,,,,,,,,,,,,,,,,,,,,,,,,,,,,,,,,,,,,,,,,,,,,,,,,,,,,,,,,,,,,,
,,1,1.2666,1,1.2666,0,76,76,28,1,84,oven,tomato,,89259,001,2022-04-26_16h33.20.074,SPAMnetsValid,2021.1.4,Win32,60.06366749,,,,,,,,,,,,,,,,,,,,,,,,,,,,,,,,,,,,,,,,,,,,,,,,,,,,,,,,,,,,,,,,,,,,,,,,,,,,,,,,,,,,,,,,,
,,1,2.2341,1,2.2341,0,77,77,43,1,11,refrigerator,tree,,89259,001,2022-04-26_16h33.20.074,SPAMnetsValid,2021.1.4,Win32,60.06366749,,,,,,,,,,,,,,,,,,,,,,,,,,,,,,,,,,,,,,,,,,,,,,,,,,,,,,,,,,,,,,,,,,,,,,,,,,,,,,,,,,,,,,,,,
,,7,1.335,7,1.335,0,78,78,48,1,66,melon,yogurt,,89259,001,2022-04-26_16h33.20.074,SPAMnetsValid,2021.1.4,Win32,60.06366749,,,,,,,,,,,,,,,,,,,,,,,,,,,,,,,,,,,,,,,,,,,,,,,,,,,,,,,,,,,,,,,,,,,,,,,,,,,,,,,,,,,,,,,,,
,,1,2.6502,1,2.6502,0,79,79,3,1,49,flower,strawberry,,89259,001,2022-04-26_16h33.20.074,SPAMnetsValid,2021.1.4,Win32,60.06366749,,,,,,,,,,,,,,,,,,,,,,,,,,,,,,,,,,,,,,,,,,,,,,,,,,,,,,,,,,,,,,,,,,,,,,,,,,,,,,,,,,,,,,,,,
,,6,0.0335,6,0.0335,0,80,80,1,1,31,cactus,pretzel,,89259,001,2022-04-26_16h33.20.074,SPAMnetsValid,2021.1.4,Win32,60.06366749,,,,,,,,,,,,,,,,,,,,,,,,,,,,,,,,,,,,,,,,,,,,,,,,,,,,,,,,,,,,,,,,,,,,,,,,,,,,,,,,,,,,,,,,,
,,7,1.536,7,1.536,0,81,81,80,1,61,strawberry,tomato,,89259,001,2022-04-26_16h33.20.074,SPAMnetsValid,2021.1.4,Win32,60.06366749,,,,,,,,,,,,,,,,,,,,,,,,,,,,,,,,,,,,,,,,,,,,,,,,,,,,,,,,,,,,,,,,,,,,,,,,,,,,,,,,,,,,,,,,,
,,1,1.9749,1,1.9749,0,82,82,73,1,50,carrot,rose,,89259,001,2022-04-26_16h33.20.074,SPAMnetsValid,2021.1.4,Win32,60.06366749,,,,,,,,,,,,,,,,,,,,,,,,,,,,,,,,,,,,,,,,,,,,,,,,,,,,,,,,,,,,,,,,,,,,,,,,,,,,,,,,,,,,,,,,,
,,7,0.0235,7,0.0235,0,83,83,87,1,79,garden,strawberry,,89259,001,2022-04-26_16h33.20.074,SPAMnetsValid,2021.1.4,Win32,60.06366749,,,,,,,,,,,,,,,,,,,,,,,,,,,,,,,,,,,,,,,,,,,,,,,,,,,,,,,,,,,,,,,,,,,,,,,,,,,,,,,,,,,,,,,,,
,,1,1.0749,1,1.0749,0,84,84,63,1,21,cake,onion,,89259,001,2022-04-26_16h33.20.074,SPAMnetsValid,2021.1.4,Win32,60.06366749,,,,,,,,,,,,,,,,,,,,,,,,,,,,,,,,,,,,,,,,,,,,,,,,,,,,,,,,,,,,,,,,,,,,,,,,,,,,,,,,,,,,,,,,,
,,7,1.9275,7,1.9275,0,85,85,62,1,18,onion,refrigerator,,89259,001,2022-04-26_16h33.20.074,SPAMnetsValid,2021.1.4,Win32,60.06366749,,,,,,,,,,,,,,,,,,,,,,,,,,,,,,,,,,,,,,,,,,,,,,,,,,,,,,,,,,,,,,,,,,,,,,,,,,,,,,,,,,,,,,,,,
,,9,2.1038,9,2.1038,0,86,86,2,1,22,kitchen,strawberry,,89259,001,2022-04-26_16h33.20.074,SPAMnetsValid,2021.1.4,Win32,60.06366749,,,,,,,,,,,,,,,,,,,,,,,,,,,,,,,,,,,,,,,,,,,,,,,,,,,,,,,,,,,,,,,,,,,,,,,,,,,,,,,,,,,,,,,,,
,,1,1.3187,1,1.3187,0,87,87,33,1,32,cake,microwave,,89259,001,2022-04-26_16h33.20.074,SPAMnetsValid,2021.1.4,Win32,60.06366749,,,,,,,,,,,,,,,,,,,,,,,,,,,,,,,,,,,,,,,,,,,,,,,,,,,,,,,,,,,,,,,,,,,,,,,,,,,,,,,,,,,,,,,,,
,,7,1.9655,7,1.9655,0,88,88,72,1,59,rose,strawberry,,89259,001,2022-04-26_16h33.20.074,SPAMnetsValid,2021.1.4,Win32,60.06366749,,,,,,,,,,,,,,,,,,,,,,,,,,,,,,,,,,,,,,,,,,,,,,,,,,,,,,,,,,,,,,,,,,,,,,,,,,,,,,,,,,,,,,,,,
,,1,1.4546,1,1.4546,0,89,89,31,1,33,oven,yogurt,,89259,001,2022-04-26_16h33.20.074,SPAMnetsValid,2021.1.4,Win32,60.06366749,,,,,,,,,,,,,,,,,,,,,,,,,,,,,,,,,,,,,,,,,,,,,,,,,,,,,,,,,,,,,,,,,,,,,,,,,,,,,,,,,,,,,,,,,
,,1,2.6411,1,2.6411,0,90,90,66,1,20,rose,tree,,89259,001,2022-04-26_16h33.20.074,SPAMnetsValid,2021.1.4,Win32,60.06366749,,,,,,,,,,,,,,,,,,,,,,,,,,,,,,,,,,,,,,,,,,,,,,,,,,,,,,,,,,,,,,,,,,,,,,,,,,,,,,,,,,,,,,,,,
,,7,1.8535,7,1.8535,0,91,91,6,1,87,carrot,yogurt,,89259,001,2022-04-26_16h33.20.074,SPAMnetsValid,2021.1.4,Win32,60.06366749,,,,,,,,,,,,,,,,,,,,,,,,,,,,,,,,,,,,,,,,,,,,,,,,,,,,,,,,,,,,,,,,,,,,,,,,,,,,,,,,,,,,,,,,,
,,1,1.4515,1,1.4515,0,92,92,60,1,89,chocolate,rose,,89259,001,2022-04-26_16h33.20.074,SPAMnetsValid,2021.1.4,Win32,60.06366749,,,,,,,,,,,,,,,,,,,,,,,,,,,,,,,,,,,,,,,,,,,,,,,,,,,,,,,,,,,,,,,,,,,,,,,,,,,,,,,,,,,,,,,,,
,,6,1.1549,6,1.1549,0,93,93,77,1,7,melon,tree,,89259,001,2022-04-26_16h33.20.074,SPAMnetsValid,2021.1.4,Win32,60.06366749,,,,,,,,,,,,,,,,,,,,,,,,,,,,,,,,,,,,,,,,,,,,,,,,,,,,,,,,,,,,,,,,,,,,,,,,,,,,,,,,,,,,,,,,,
,,6,0.9965,6,0.9965,0,94,94,94,1,68,flower,tomato,,89259,001,2022-04-26_16h33.20.074,SPAMnetsValid,2021.1.4,Win32,60.06366749,,,,,,,,,,,,,,,,,,,,,,,,,,,,,,,,,,,,,,,,,,,,,,,,,,,,,,,,,,,,,,,,,,,,,,,,,,,,,,,,,,,,,,,,,
,,1,1.125,1,1.125,0,95,95,7,1,34,melon,oven,,89259,001,2022-04-26_16h33.20.074,SPAMnetsValid,2021.1.4,Win32,60.06366749,,,,,,,,,,,,,,,,,,,,,,,,,,,,,,,,,,,,,,,,,,,,,,,,,,,,,,,,,,,,,,,,,,,,,,,,,,,,,,,,,,,,,,,,,
,,1,2.8761,1,2.8761,0,96,96,38,1,88,cactus,melon,,89259,001,2022-04-26_16h33.20.074,SPAMnetsValid,2021.1.4,Win32,60.06366749,,,,,,,,,,,,,,,,,,,,,,,,,,,,,,,,,,,,,,,,,,,,,,,,,,,,,,,,,,,,,,,,,,,,,,,,,,,,,,,,,,,,,,,,,
,,,,,,,,,,,,,,,89259,001,2022-04-26_16h33.20.074,SPAMnetsValid,2021.1.4,Win32,60.06366749,0,0,0,0,1,,,,,,,,,,,,,,,,,,,,,,,,,,,,,,,,,,,,,,,,,,,,,,,,,,,,,,,,,,,,,,,,,,,,,,,,,,,,,,,,,,,,
,,,,,,,,,,,,,,,89259,001,2022-04-26_16h33.20.074,SPAMnetsValid,2021.1.4,Win32,60.06366749,,,,,,0,0,0,0,1,1,0,,,,,,,,,,,,,,,,,,,,,,,,,,,,,,,,,,,,,,,,,,,,,,,,,,,,,,,,,,,,,,,,,,,,,,,,,,,,,
,,,,1,2.8524,,,,,,186,kitchen,yogurt,,89259,001,2022-04-26_16h33.20.074,SPAMnetsValid,2021.1.4,Win32,60.06366749,,,,,,,,,,,,,1,2.8524,0,0,0,48,1,,,,,,,,,,,,,,,,,,,,,,,,,,,,,,,,,,,,,,,,,,,,,,,,,,,,,,,,,,,,,,,,,,,,,,
,,,,1,1.8165,,,,,,171,cake,tomato,,89259,001,2022-04-26_16h33.20.074,SPAMnetsValid,2021.1.4,Win32,60.06366749,,,,,,,,,,,,,1,1.8165,0,1,1,88,1,,,,,,,,,,,,,,,,,,,,,,,,,,,,,,,,,,,,,,,,,,,,,,,,,,,,,,,,,,,,,,,,,,,,,,
,,,,7,0.0389,,,,,,134,carrot,flower,,89259,001,2022-04-26_16h33.20.074,SPAMnetsValid,2021.1.4,Win32,60.06366749,,,,,,,,,,,,,7,0.0389,0,2,2,93,1,,,,,,,,,,,,,,,,,,,,,,,,,,,,,,,,,,,,,,,,,,,,,,,,,,,,,,,,,,,,,,,,,,,,,,
,,,,7,1.3714,,,,,,136,chocolate,microwave,,89259,001,2022-04-26_16h33.20.074,SPAMnetsValid,2021.1.4,Win32,60.06366749,,,,,,,,,,,,,7,1.3714,0,3,3,96,1,,,,,,,,,,,,,,,,,,,,,,,,,,,,,,,,,,,,,,,,,,,,,,,,,,,,,,,,,,,,,,,,,,,,,,
,,,,6,1.9793,,,,,,117,melon,strawberry,,89259,001,2022-04-26_16h33.20.074,SPAMnetsValid,2021.1.4,Win32,60.06366749,,,,,,,,,,,,,6,1.9793,0,4,4,11,1,,,,,,,,,,,,,,,,,,,,,,,,,,,,,,,,,,,,,,,,,,,,,,,,,,,,,,,,,,,,,,,,,,,,,,
,,,,7,0.9272,,,,,,157,refrigerator,rose,,89259,001,2022-04-26_16h33.20.074,SPAMnetsValid,2021.1.4,Win32,60.06366749,,,,,,,,,,,,,7,0.9272,0,5,5,64,1,,,,,,,,,,,,,,,,,,,,,,,,,,,,,,,,,,,,,,,,,,,,,,,,,,,,,,,,,,,,,,,,,,,,,,
,,,,9,4.6001,,,,,,158,cookie,oven,,89259,001,2022-04-26_16h33.20.074,SPAMnetsValid,2021.1.4,Win32,60.06366749,,,,,,,,,,,,,9,4.6001,0,6,6,27,1,,,,,,,,,,,,,,,,,,,,,,,,,,,,,,,,,,,,,,,,,,,,,,,,,,,,,,,,,,,,,,,,,,,,,,
,,,,9,1.2003,,,,,,118,chocolate,oven,,89259,001,2022-04-26_16h33.20.074,SPAMnetsValid,2021.1.4,Win32,60.06366749,,,,,,,,,,,,,9,1.2003,0,7,7,10,1,,,,,,,,,,,,,,,,,,,,,,,,,,,,,,,,,,,,,,,,,,,,,,,,,,,,,,,,,,,,,,,,,,,,,,
,,,,7,1.1301,,,,,,113,refrigerator,strawberry,,89259,001,2022-04-26_16h33.20.074,SPAMnetsValid,2021.1.4,Win32,60.06366749,,,,,,,,,,,,,7,1.1301,0,8,8,56,1,,,,,,,,,,,,,,,,,,,,,,,,,,,,,,,,,,,,,,,,,,,,,,,,,,,,,,,,,,,,,,,,,,,,,,
,,,,1,1.3656,,,,,,178,cactus,carrot,,89259,001,2022-04-26_16h33.20.074,SPAMnetsValid,2021.1.4,Win32,60.06366749,,,,,,,,,,,,,1,1.3656,0,9,9,75,1,,,,,,,,,,,,,,,,,,,,,,,,,,,,,,,,,,,,,,,,,,,,,,,,,,,,,,,,,,,,,,,,,,,,,,
,,,,2,1.9293,,,,,,130,microwave,yogurt,,89259,001,2022-04-26_16h33.20.074,SPAMnetsValid,2021.1.4,Win32,60.06366749,,,,,,,,,,,,,2,1.9293,0,10,10,84,1,,,,,,,,,,,,,,,,,,,,,,,,,,,,,,,,,,,,,,,,,,,,,,,,,,,,,,,,,,,,,,,,,,,,,,
,,,,2,0.4521,,,,,,176,cactus,tomato,,89259,001,2022-04-26_16h33.20.074,SPAMnetsValid,2021.1.4,Win32,60.06366749,,,,,,,,,,,,,2,0.4521,0,11,11,9,1,,,,,,,,,,,,,,,,,,,,,,,,,,,,,,,,,,,,,,,,,,,,,,,,,,,,,,,,,,,,,,,,,,,,,,
,,,,7,0.8928,,,,,,96,oven,strawberry,,89259,001,2022-04-26_16h33.20.074,SPAMnetsValid,2021.1.4,Win32,60.06366749,,,,,,,,,,,,,7,0.8928,0,12,12,67,1,,,,,,,,,,,,,,,,,,,,,,,,,,,,,,,,,,,,,,,,,,,,,,,,,,,,,,,,,,,,,,,,,,,,,,
,,,,7,0.3558,,,,,,194,cactus,cactus,CHECK,89259,001,2022-04-26_16h33.20.074,SPAMnetsValid,2021.1.4,Win32,60.06366749,,,,,,,,,,,,,7,0.3558,0,13,13,25,1,,,,,,,,,,,,,,,,,,,,,,,,,,,,,,,,,,,,,,,,,,,,,,,,,,,,,,,,,,,,,,,,,,,,,,
,,,,3,2.3775,,,,,,98,pretzel,strawberry,,89259,001,2022-04-26_16h33.20.074,SPAMnetsValid,2021.1.4,Win32,60.06366749,,,,,,,,,,,,,3,2.3775,0,14,14,82,1,,,,,,,,,,,,,,,,,,,,,,,,,,,,,,,,,,,,,,,,,,,,,,,,,,,,,,,,,,,,,,,,,,,,,,
,,,,3,0.0272,,,,,,156,melon,rose,,89259,001,2022-04-26_16h33.20.074,SPAMnetsValid,2021.1.4,Win32,60.06366749,,,,,,,,,,,,,3,0.0272,0,15,15,31,1,,,,,,,,,,,,,,,,,,,,,,,,,,,,,,,,,,,,,,,,,,,,,,,,,,,,,,,,,,,,,,,,,,,,,,
,,,,1,25.8851,,,,,,187,cactus,microwave,,89259,001,2022-04-26_16h33.20.074,SPAMnetsValid,2021.1.4,Win32,60.06366749,,,,,,,,,,,,,1,25.8851,0,16,16,71,1,,,,,,,,,,,,,,,,,,,,,,,,,,,,,,,,,,,,,,,,,,,,,,,,,,,,,,,,,,,,,,,,,,,,,,
,,,,1,1.8349,,,,,,126,kitchen,tree,,89259,001,2022-04-26_16h33.20.074,SPAMnetsValid,2021.1.4,Win32,60.06366749,,,,,,,,,,,,,1,1.8349,0,17,17,50,1,,,,,,,,,,,,,,,,,,,,,,,,,,,,,,,,,,,,,,,,,,,,,,,,,,,,,,,,,,,,,,,,,,,,,,
,,,,8,1.5504,,,,,,138,flower,rose,,89259,001,2022-04-26_16h33.20.074,SPAMnetsValid,2021.1.4,Win32,60.06366749,,,,,,,,,,,,,8,1.5504,0,18,18,61,1,,,,,,,,,,,,,,,,,,,,,,,,,,,,,,,,,,,,,,,,,,,,,,,,,,,,,,,,,,,,,,,,,,,,,,
,,,,8,0.8297,,,,,,122,flower,garden,,89259,001,2022-04-26_16h33.20.074,SPAMnetsValid,2021.1.4,Win32,60.06366749,,,,,,,,,,,,,8,0.8297,0,19,19,60,1,,,,,,,,,,,,,,,,,,,,,,,,,,,,,,,,,,,,,,,,,,,,,,,,,,,,,,,,,,,,,,,,,,,,,,
,,,,8,0.7525,,,,,,151,microwave,onion,,89259,001,2022-04-26_16h33.20.074,SPAMnetsValid,2021.1.4,Win32,60.06366749,,,,,,,,,,,,,8,0.7525,0,20,20,6,1,,,,,,,,,,,,,,,,,,,,,,,,,,,,,,,,,,,,,,,,,,,,,,,,,,,,,,,,,,,,,,,,,,,,,,
,,,,1,0.028,,,,,,101,cactus,kitchen,,89259,001,2022-04-26_16h33.20.074,SPAMnetsValid,2021.1.4,Win32,60.06366749,,,,,,,,,,,,,1,0.028,0,21,21,54,1,,,,,,,,,,,,,,,,,,,,,,,,,,,,,,,,,,,,,,,,,,,,,,,,,,,,,,,,,,,,,,,,,,,,,,
,,,,1,2.9888,,,,,,172,kitchen,melon,,89259,001,2022-04-26_16h33.20.074,SPAMnetsValid,2021.1.4,Win32,60.06366749,,,,,,,,,,,,,1,2.9888,0,22,22,77,1,,,,,,,,,,,,,,,,,,,,,,,,,,,,,,,,,,,,,,,,,,,,,,,,,,,,,,,,,,,,,,,,,,,,,,
,,,,9,1.6953,,,,,,173,kitchen,tomato,,89259,001,2022-04-26_16h33.20.074,SPAMnetsValid,2021.1.4,Win32,60.06366749,,,,,,,,,,,,,9,1.6953,0,23,23,1,1,,,,,,,,,,,,,,,,,,,,,,,,,,,,,,,,,,,,,,,,,,,,,,,,,,,,,,,,,,,,,,,,,,,,,,
,,,,8,1.4686,,,,,,164,cookie,garden,,89259,001,2022-04-26_16h33.20.074,SPAMnetsValid,2021.1.4,Win32,60.06366749,,,,,,,,,,,,,8,1.4686,0,24,24,59,1,,,,,,,,,,,,,,,,,,,,,,,,,,,,,,,,,,,,,,,,,,,,,,,,,,,,,,,,,,,,,,,,,,,,,,
,,,,8,0.8429,,,,,,102,chocolate,refrigerator,,89259,001,2022-04-26_16h33.20.074,SPAMnetsValid,2021.1.4,Win32,60.06366749,,,,,,,,,,,,,8,0.8429,0,25,25,76,1,,,,,,,,,,,,,,,,,,,,,,,,,,,,,,,,,,,,,,,,,,,,,,,,,,,,,,,,,,,,,,,,,,,,,,
,,,,8,1.2117,,,,,,152,cactus,strawberry,,89259,001,2022-04-26_16h33.20.074,SPAMnetsValid,2021.1.4,Win32,60.06366749,,,,,,,,,,,,,8,1.2117,0,26,26,49,1,,,,,,,,,,,,,,,,,,,,,,,,,,,,,,,,,,,,,,,,,,,,,,,,,,,,,,,,,,,,,,,,,,,,,,
,,,,7,1.4063,,,,,,97,chocolate,kitchen,,89259,001,2022-04-26_16h33.20.074,SPAMnetsValid,2021.1.4,Win32,60.06366749,,,,,,,,,,,,,7,1.4063,0,27,27,8,1,,,,,,,,,,,,,,,,,,,,,,,,,,,,,,,,,,,,,,,,,,,,,,,,,,,,,,,,,,,,,,,,,,,,,,
,,,,7,0.8771,,,,,,125,carrot,tree,,89259,001,2022-04-26_16h33.20.074,SPAMnetsValid,2021.1.4,Win32,60.06366749,,,,,,,,,,,,,7,0.8771,0,28,28,30,1,,,,,,,,,,,,,,,,,,,,,,,,,,,,,,,,,,,,,,,,,,,,,,,,,,,,,,,,,,,,,,,,,,,,,,
,,,,7,1.4371,,,,,,107,rose,tomato,,89259,001,2022-04-26_16h33.20.074,SPAMnetsValid,2021.1.4,Win32,60.06366749,,,,,,,,,,,,,7,1.4371,0,29,29,26,1,,,,,,,,,,,,,,,,,,,,,,,,,,,,,,,,,,,,,,,,,,,,,,,,,,,,,,,,,,,,,,,,,,,,,,
,,,,1,1.4438,,,,,,162,microwave,tomato,,89259,001,2022-04-26_16h33.20.074,SPAMnetsValid,2021.1.4,Win32,60.06366749,,,,,,,,,,,,,1,1.4438,0,30,30,12,1,,,,,,,,,,,,,,,,,,,,,,,,,,,,,,,,,,,,,,,,,,,,,,,,,,,,,,,,,,,,,,,,,,,,,,
,,,,7,1.5362,,,,,,175,melon,onion,,89259,001,2022-04-26_16h33.20.074,SPAMnetsValid,2021.1.4,Win32,60.06366749,,,,,,,,,,,,,7,1.5362,0,31,31,41,1,,,,,,,,,,,,,,,,,,,,,,,,,,,,,,,,,,,,,,,,,,,,,,,,,,,,,,,,,,,,,,,,,,,,,,
,,,,7,0.952,,,,,,170,cookie,microwave,,89259,001,2022-04-26_16h33.20.074,SPAMnetsValid,2021.1.4,Win32,60.06366749,,,,,,,,,,,,,7,0.952,0,32,32,92,1,,,,,,,,,,,,,,,,,,,,,,,,,,,,,,,,,,,,,,,,,,,,,,,,,,,,,,,,,,,,,,,,,,,,,,
,,,,1,1.4202,,,,,,143,pretzel,rose,,89259,001,2022-04-26_16h33.20.074,SPAMnetsValid,2021.1.4,Win32,60.06366749,,,,,,,,,,,,,1,1.4202,0,33,33,55,1,,,,,,,,,,,,,,,,,,,,,,,,,,,,,,,,,,,,,,,,,,,,,,,,,,,,,,,,,,,,,,,,,,,,,,
,,,,8,0.8707,,,,,,139,carrot,strawberry,,89259,001,2022-04-26_16h33.20.074,SPAMnetsValid,2021.1.4,Win32,60.06366749,,,,,,,,,,,,,8,0.8707,0,34,34,37,1,,,,,,,,,,,,,,,,,,,,,,,,,,,,,,,,,,,,,,,,,,,,,,,,,,,,,,,,,,,,,,,,,,,,,,
,,,,1,2.0249,,,,,,182,flower,refrigerator,,89259,001,2022-04-26_16h33.20.074,SPAMnetsValid,2021.1.4,Win32,60.06366749,,,,,,,,,,,,,1,2.0249,0,35,35,32,1,,,,,,,,,,,,,,,,,,,,,,,,,,,,,,,,,,,,,,,,,,,,,,,,,,,,,,,,,,,,,,,,,,,,,,
,,,,7,1.886,,,,,,119,strawberry,tree,,89259,001,2022-04-26_16h33.20.074,SPAMnetsValid,2021.1.4,Win32,60.06366749,,,,,,,,,,,,,7,1.886,0,36,36,18,1,,,,,,,,,,,,,,,,,,,,,,,,,,,,,,,,,,,,,,,,,,,,,,,,,,,,,,,,,,,,,,,,,,,,,,
,,,,1,1.5719,,,,,,146,pretzel,tree,,89259,001,2022-04-26_16h33.20.074,SPAMnetsValid,2021.1.4,Win32,60.06366749,,,,,,,,,,,,,1,1.5719,0,37,37,80,1,,,,,,,,,,,,,,,,,,,,,,,,,,,,,,,,,,,,,,,,,,,,,,,,,,,,,,,,,,,,,,,,,,,,,,
,,,,7,1.1407,,,,,,127,cactus,chocolate,,89259,001,2022-04-26_16h33.20.074,SPAMnetsValid,2021.1.4,Win32,60.06366749,,,,,,,,,,,,,7,1.1407,0,38,38,57,1,,,,,,,,,,,,,,,,,,,,,,,,,,,,,,,,,,,,,,,,,,,,,,,,,,,,,,,,,,,,,,,,,,,,,,
,,,,1,1.1782,,,,,,165,onion,rose,,89259,001,2022-04-26_16h33.20.074,SPAMnetsValid,2021.1.4,Win32,60.06366749,,,,,,,,,,,,,1,1.1782,0,39,39,40,1,,,,,,,,,,,,,,,,,,,,,,,,,,,,,,,,,,,,,,,,,,,,,,,,,,,,,,,,,,,,,,,,,,,,,,
,,,,9,0.8466,,,,,,112,cake,carrot,,89259,001,2022-04-26_16h33.20.074,SPAMnetsValid,2021.1.4,Win32,60.06366749,,,,,,,,,,,,,9,0.8466,0,40,40,39,1,,,,,,,,,,,,,,,,,,,,,,,,,,,,,,,,,,,,,,,,,,,,,,,,,,,,,,,,,,,,,,,,,,,,,,
,,,,9,1.3002,,,,,,144,cake,garden,,89259,001,2022-04-26_16h33.20.074,SPAMnetsValid,2021.1.4,Win32,60.06366749,,,,,,,,,,,,,9,1.3002,0,41,41,58,1,,,,,,,,,,,,,,,,,,,,,,,,,,,,,,,,,,,,,,,,,,,,,,,,,,,,,,,,,,,,,,,,,,,,,,
,,,,1,1.6514,,,,,,129,cactus,refrigerator,,89259,001,2022-04-26_16h33.20.074,SPAMnetsValid,2021.1.4,Win32,60.06366749,,,,,,,,,,,,,1,1.6514,0,42,42,3,1,,,,,,,,,,,,,,,,,,,,,,,,,,,,,,,,,,,,,,,,,,,,,,,,,,,,,,,,,,,,,,,,,,,,,,
,,,,6,1.7554,,,,,,188,flower,tree,,89259,001,2022-04-26_16h33.20.074,SPAMnetsValid,2021.1.4,Win32,60.06366749,,,,,,,,,,,,,6,1.7554,0,43,43,7,1,,,,,,,,,,,,,,,,,,,,,,,,,,,,,,,,,,,,,,,,,,,,,,,,,,,,,,,,,,,,,,,,,,,,,,
,,,,8,2.5188,,,,,,169,onion,yogurt,,89259,001,2022-04-26_16h33.20.074,SPAMnetsValid,2021.1.4,Win32,60.06366749,,,,,,,,,,,,,8,2.5188,0,44,44,24,1,,,,,,,,,,,,,,,,,,,,,,,,,,,,,,,,,,,,,,,,,,,,,,,,,,,,,,,,,,,,,,,,,,,,,,
,,,,1,1.3268,,,,,,185,cactus,rose,,89259,001,2022-04-26_16h33.20.074,SPAMnetsValid,2021.1.4,Win32,60.06366749,,,,,,,,,,,,,1,1.3268,0,45,45,43,1,,,,,,,,,,,,,,,,,,,,,,,,,,,,,,,,,,,,,,,,,,,,,,,,,,,,,,,,,,,,,,,,,,,,,,
,,,,7,0.9581,,,,,,141,melon,tomato,,89259,001,2022-04-26_16h33.20.074,SPAMnetsValid,2021.1.4,Win32,60.06366749,,,,,,,,,,,,,7,0.9581,0,46,46,70,1,,,,,,,,,,,,,,,,,,,,,,,,,,,,,,,,,,,,,,,,,,,,,,,,,,,,,,,,,,,,,,,,,,,,,,
,,,,7,0.8211,,,,,,103,pretzel,tomato,,89259,001,2022-04-26_16h33.20.074,SPAMnetsValid,2021.1.4,Win32,60.06366749,,,,,,,,,,,,,7,0.8211,0,47,47,79,1,,,,,,,,,,,,,,,,,,,,,,,,,,,,,,,,,,,,,,,,,,,,,,,,,,,,,,,,,,,,,,,,,,,,,,
,,,,9,2.3334,,,,,,124,oven,refrigerator,,89259,001,2022-04-26_16h33.20.074,SPAMnetsValid,2021.1.4,Win32,60.06366749,,,,,,,,,,,,,9,2.3334,0,48,48,69,1,,,,,,,,,,,,,,,,,,,,,,,,,,,,,,,,,,,,,,,,,,,,,,,,,,,,,,,,,,,,,,,,,,,,,,
,,,,9,0.9667,,,,,,150,microwave,refrigerator,,89259,001,2022-04-26_16h33.20.074,SPAMnetsValid,2021.1.4,Win32,60.06366749,,,,,,,,,,,,,9,0.9667,0,49,49,66,1,,,,,,,,,,,,,,,,,,,,,,,,,,,,,,,,,,,,,,,,,,,,,,,,,,,,,,,,,,,,,,,,,,,,,,
,,,,6,1.492,,,,,,148,flower,melon,,89259,001,2022-04-26_16h33.20.074,SPAMnetsValid,2021.1.4,Win32,60.06366749,,,,,,,,,,,,,6,1.492,0,50,50,23,1,,,,,,,,,,,,,,,,,,,,,,,,,,,,,,,,,,,,,,,,,,,,,,,,,,,,,,,,,,,,,,,,,,,,,,
,,,,7,1.6679,,,,,,163,melon,refrigerator,,89259,001,2022-04-26_16h33.20.074,SPAMnetsValid,2021.1.4,Win32,60.06366749,,,,,,,,,,,,,7,1.6679,0,51,51,29,1,,,,,,,,,,,,,,,,,,,,,,,,,,,,,,,,,,,,,,,,,,,,,,,,,,,,,,,,,,,,,,,,,,,,,,
,,,,1,1.9004,,,,,,105,cactus,oven,,89259,001,2022-04-26_16h33.20.074,SPAMnetsValid,2021.1.4,Win32,60.06366749,,,,,,,,,,,,,1,1.9004,0,52,52,13,1,,,,,,,,,,,,,,,,,,,,,,,,,,,,,,,,,,,,,,,,,,,,,,,,,,,,,,,,,,,,,,,,,,,,,,
,,,,9,1.863,,,,,,181,carrot,kitchen,,89259,001,2022-04-26_16h33.20.074,SPAMnetsValid,2021.1.4,Win32,60.06366749,,,,,,,,,,,,,9,1.863,0,53,53,72,1,,,,,,,,,,,,,,,,,,,,,,,,,,,,,,,,,,,,,,,,,,,,,,,,,,,,,,,,,,,,,,,,,,,,,,
,,,,7,2.3234,,,,,,133,cake,flower,,89259,001,2022-04-26_16h33.20.074,SPAMnetsValid,2021.1.4,Win32,60.06366749,,,,,,,,,,,,,7,2.3234,0,54,54,94,1,,,,,,,,,,,,,,,,,,,,,,,,,,,,,,,,,,,,,,,,,,,,,,,,,,,,,,,,,,,,,,,,,,,,,,
,,,,7,0.7552,,,,,,100,garden,tomato,,89259,001,2022-04-26_16h33.20.074,SPAMnetsValid,2021.1.4,Win32,60.06366749,,,,,,,,,,,,,7,0.7552,0,55,55,83,1,,,,,,,,,,,,,,,,,,,,,,,,,,,,,,,,,,,,,,,,,,,,,,,,,,,,,,,,,,,,,,,,,,,,,,
,,,,7,1.1481,,,,,,184,oven,pretzel,,89259,001,2022-04-26_16h33.20.074,SPAMnetsValid,2021.1.4,Win32,60.06366749,,,,,,,,,,,,,7,1.1481,0,56,56,42,1,,,,,,,,,,,,,,,,,,,,,,,,,,,,,,,,,,,,,,,,,,,,,,,,,,,,,,,,,,,,,,,,,,,,,,
,,,,1,1.6512,,,,,,128,melon,microwave,,89259,001,2022-04-26_16h33.20.074,SPAMnetsValid,2021.1.4,Win32,60.06366749,,,,,,,,,,,,,1,1.6512,0,57,57,74,1,,,,,,,,,,,,,,,,,,,,,,,,,,,,,,,,,,,,,,,,,,,,,,,,,,,,,,,,,,,,,,,,,,,,,,
,,,,7,1.8289,,,,,,114,cookie,strawberry,,89259,001,2022-04-26_16h33.20.074,SPAMnetsValid,2021.1.4,Win32,60.06366749,,,,,,,,,,,,,7,1.8289,0,58,58,87,1,,,,,,,,,,,,,,,,,,,,,,,,,,,,,,,,,,,,,,,,,,,,,,,,,,,,,,,,,,,,,,,,,,,,,,
,,,,6,1.1508,,,,,,137,microwave,tree,,89259,001,2022-04-26_16h33.20.074,SPAMnetsValid,2021.1.4,Win32,60.06366749,,,,,,,,,,,,,6,1.1508,0,59,59,63,1,,,,,,,,,,,,,,,,,,,,,,,,,,,,,,,,,,,,,,,,,,,,,,,,,,,,,,,,,,,,,,,,,,,,,,
,,,,6,1.0891,,,,,,145,cactus,yogurt,,89259,001,2022-04-26_16h33.20.074,SPAMnetsValid,2021.1.4,Win32,60.06366749,,,,,,,,,,,,,6,1.0891,0,60,60,15,1,,,,,,,,,,,,,,,,,,,,,,,,,,,,,,,,,,,,,,,,,,,,,,,,,,,,,,,,,,,,,,,,,,,,,,
,,,,8,1.9546,,,,,,161,kitchen,pretzel,,89259,001,2022-04-26_16h33.20.074,SPAMnetsValid,2021.1.4,Win32,60.06366749,,,,,,,,,,,,,8,1.9546,0,61,61,36,1,,,,,,,,,,,,,,,,,,,,,,,,,,,,,,,,,,,,,,,,,,,,,,,,,,,,,,,,,,,,,,,,,,,,,,
,,,,8,1.9377,,,,,,106,cake,strawberry,,89259,001,2022-04-26_16h33.20.074,SPAMnetsValid,2021.1.4,Win32,60.06366749,,,,,,,,,,,,,8,1.9377,0,62,62,0,1,,,,,,,,,,,,,,,,,,,,,,,,,,,,,,,,,,,,,,,,,,,,,,,,,,,,,,,,,,,,,,,,,,,,,,
,,,,1,1.5674,,,,,,149,broom,tomato,,89259,001,2022-04-26_16h33.20.074,SPAMnetsValid,2021.1.4,Win32,60.06366749,,,,,,,,,,,,,1,1.5674,0,63,63,20,1,,,,,,,,,,,,,,,,,,,,,,,,,,,,,,,,,,,,,,,,,,,,,,,,,,,,,,,,,,,,,,,,,,,,,,
,,,,7,2.6453,,,,,,167,carrot,garden,,89259,001,2022-04-26_16h33.20.074,SPAMnetsValid,2021.1.4,Win32,60.06366749,,,,,,,,,,,,,7,2.6453,0,64,64,47,1,,,,,,,,,,,,,,,,,,,,,,,,,,,,,,,,,,,,,,,,,,,,,,,,,,,,,,,,,,,,,,,,,,,,,,
,,,,6,1.3478,,,,,,168,cactus,flower,,89259,001,2022-04-26_16h33.20.074,SPAMnetsValid,2021.1.4,Win32,60.06366749,,,,,,,,,,,,,6,1.3478,0,65,65,51,1,,,,,,,,,,,,,,,,,,,,,,,,,,,,,,,,,,,,,,,,,,,,,,,,,,,,,,,,,,,,,,,,,,,,,,
,,,,9,3.0005,,,,,,193,melon,melon,CHECK,89259,001,2022-04-26_16h33.20.074,SPAMnetsValid,2021.1.4,Win32,60.06366749,,,,,,,,,,,,,9,3.0005,0,66,66,86,1,,,,,,,,,,,,,,,,,,,,,,,,,,,,,,,,,,,,,,,,,,,,,,,,,,,,,,,,,,,,,,,,,,,,,,
,,,,9,1.5947,,,,,,115,refrigerator,tomato,,89259,001,2022-04-26_16h33.20.074,SPAMnetsValid,2021.1.4,Win32,60.06366749,,,,,,,,,,,,,9,1.5947,0,67,67,85,1,,,,,,,,,,,,,,,,,,,,,,,,,,,,,,,,,,,,,,,,,,,,,,,,,,,,,,,,,,,,,,,,,,,,,,
,,,,8,1.542,,,,,,155,carrot,cookie,,89259,001,2022-04-26_16h33.20.074,SPAMnetsValid,2021.1.4,Win32,60.06366749,,,,,,,,,,,,,8,1.542,0,68,68,38,1,,,,,,,,,,,,,,,,,,,,,,,,,,,,,,,,,,,,,,,,,,,,,,,,,,,,,,,,,,,,,,,,,,,,,,
,,,,8,1.3223,,,,,,160,cookie,kitchen,,89259,001,2022-04-26_16h33.20.074,SPAMnetsValid,2021.1.4,Win32,60.06366749,,,,,,,,,,,,,8,1.3223,0,69,69,65,1,,,,,,,,,,,,,,,,,,,,,,,,,,,,,,,,,,,,,,,,,,,,,,,,,,,,,,,,,,,,,,,,,,,,,,
,,,,1,1.7378,,,,,,183,cake,rose,,89259,001,2022-04-26_16h33.20.074,SPAMnetsValid,2021.1.4,Win32,60.06366749,,,,,,,,,,,,,1,1.7378,0,70,70,19,1,,,,,,,,,,,,,,,,,,,,,,,,,,,,,,,,,,,,,,,,,,,,,,,,,,,,,,,,,,,,,,,,,,,,,,
,,,,9,1.7111,,,,,,116,cake,chocolate,,89259,001,2022-04-26_16h33.20.074,SPAMnetsValid,2021.1.4,Win32,60.06366749,,,,,,,,,,,,,9,1.7111,0,71,71,44,1,,,,,,,,,,,,,,,,,,,,,,,,,,,,,,,,,,,,,,,,,,,,,,,,,,,,,,,,,,,,,,,,,,,,,,
,,,,9,0.9247,,,,,,166,cake,yogurt,,89259,001,2022-04-26_16h33.20.074,SPAMnetsValid,2021.1.4,Win32,60.06366749,,,,,,,,,,,,,9,0.9247,0,72,72,91,1,,,,,,,,,,,,,,,,,,,,,,,,,,,,,,,,,,,,,,,,,,,,,,,,,,,,,,,,,,,,,,,,,,,,,,
,,,,9,1.0061,,,,,,140,cookie,refrigerator,,89259,001,2022-04-26_16h33.20.074,SPAMnetsValid,2021.1.4,Win32,60.06366749,,,,,,,,,,,,,9,1.0061,0,73,73,89,1,,,,,,,,,,,,,,,,,,,,,,,,,,,,,,,,,,,,,,,,,,,,,,,,,,,,,,,,,,,,,,,,,,,,,,
,,,,9,1.9621,,,,,,99,garden,melon,,89259,001,2022-04-26_16h33.20.074,SPAMnetsValid,2021.1.4,Win32,60.06366749,,,,,,,,,,,,,9,1.9621,0,74,74,17,1,,,,,,,,,,,,,,,,,,,,,,,,,,,,,,,,,,,,,,,,,,,,,,,,,,,,,,,,,,,,,,,,,,,,,,
,,,,1,1.1592,,,,,,190,microwave,strawberry,,89259,001,2022-04-26_16h33.20.074,SPAMnetsValid,2021.1.4,Win32,60.06366749,,,,,,,,,,,,,1,1.1592,0,75,75,90,1,,,,,,,,,,,,,,,,,,,,,,,,,,,,,,,,,,,,,,,,,,,,,,,,,,,,,,,,,,,,,,,,,,,,,,
,,,,9,1.685,,,,,,177,chocolate,strawberry,,89259,001,2022-04-26_16h33.20.074,SPAMnetsValid,2021.1.4,Win32,60.06366749,,,,,,,,,,,,,9,1.685,0,76,76,53,1,,,,,,,,,,,,,,,,,,,,,,,,,,,,,,,,,,,,,,,,,,,,,,,,,,,,,,,,,,,,,,,,,,,,,,
,,,,1,1.5223,,,,,,189,onion,tree,,89259,001,2022-04-26_16h33.20.074,SPAMnetsValid,2021.1.4,Win32,60.06366749,,,,,,,,,,,,,1,1.5223,0,77,77,62,1,,,,,,,,,,,,,,,,,,,,,,,,,,,,,,,,,,,,,,,,,,,,,,,,,,,,,,,,,,,,,,,,,,,,,,
,,,,9,1.1132,,,,,,110,chocolate,cookie,,89259,001,2022-04-26_16h33.20.074,SPAMnetsValid,2021.1.4,Win32,60.06366749,,,,,,,,,,,,,9,1.1132,0,78,78,52,1,,,,,,,,,,,,,,,,,,,,,,,,,,,,,,,,,,,,,,,,,,,,,,,,,,,,,,,,,,,,,,,,,,,,,,
,,,,6,3.5365,,,,,,132,broom,tree,,89259,001,2022-04-26_16h33.20.074,SPAMnetsValid,2021.1.4,Win32,60.06366749,,,,,,,,,,,,,6,3.5365,0,79,79,78,1,,,,,,,,,,,,,,,,,,,,,,,,,,,,,,,,,,,,,,,,,,,,,,,,,,,,,,,,,,,,,,,,,,,,,,
,,,,9,1.0481,,,,,,147,cake,refrigerator,,89259,001,2022-04-26_16h33.20.074,SPAMnetsValid,2021.1.4,Win32,60.06366749,,,,,,,,,,,,,9,1.0481,0,80,80,35,1,,,,,,,,,,,,,,,,,,,,,,,,,,,,,,,,,,,,,,,,,,,,,,,,,,,,,,,,,,,,,,,,,,,,,,
,,,,6,2.4164,,,,,,131,cactus,garden,,89259,001,2022-04-26_16h33.20.074,SPAMnetsValid,2021.1.4,Win32,60.06366749,,,,,,,,,,,,,6,2.4164,0,81,81,33,1,,,,,,,,,,,,,,,,,,,,,,,,,,,,,,,,,,,,,,,,,,,,,,,,,,,,,,,,,,,,,,,,,,,,,,
,,,,1,1.4453,,,,,,174,cake,pretzel,,89259,001,2022-04-26_16h33.20.074,SPAMnetsValid,2021.1.4,Win32,60.06366749,,,,,,,,,,,,,1,1.4453,0,82,82,2,1,,,,,,,,,,,,,,,,,,,,,,,,,,,,,,,,,,,,,,,,,,,,,,,,,,,,,,,,,,,,,,,,,,,,,,
,,,,1,3.7639,,,,,,111,carrot,microwave,,89259,001,2022-04-26_16h33.20.074,SPAMnetsValid,2021.1.4,Win32,60.06366749,,,,,,,,,,,,,1,3.7639,0,83,83,16,1,,,,,,,,,,,,,,,,,,,,,,,,,,,,,,,,,,,,,,,,,,,,,,,,,,,,,,,,,,,,,,,,,,,,,,
,,,,1,2.0226,,,,,,109,broom,strawberry,,89259,001,2022-04-26_16h33.20.074,SPAMnetsValid,2021.1.4,Win32,60.06366749,,,,,,,,,,,,,1,2.0226,0,84,84,4,1,,,,,,,,,,,,,,,,,,,,,,,,,,,,,,,,,,,,,,,,,,,,,,,,,,,,,,,,,,,,,,,,,,,,,,
,,,,1,2.1124,,,,,,104,garden,microwave,,89259,001,2022-04-26_16h33.20.074,SPAMnetsValid,2021.1.4,Win32,60.06366749,,,,,,,,,,,,,1,2.1124,0,85,85,81,1,,,,,,,,,,,,,,,,,,,,,,,,,,,,,,,,,,,,,,,,,,,,,,,,,,,,,,,,,,,,,,,,,,,,,,
,,,,6,1.4172,,,,,,180,tree,yogurt,,89259,001,2022-04-26_16h33.20.074,SPAMnetsValid,2021.1.4,Win32,60.06366749,,,,,,,,,,,,,6,1.4172,0,86,86,68,1,,,,,,,,,,,,,,,,,,,,,,,,,,,,,,,,,,,,,,,,,,,,,,,,,,,,,,,,,,,,,,,,,,,,,,
,,,,1,0.8956,,,,,,179,broom,oven,,89259,001,2022-04-26_16h33.20.074,SPAMnetsValid,2021.1.4,Win32,60.06366749,,,,,,,,,,,,,1,0.8956,0,87,87,45,1,,,,,,,,,,,,,,,,,,,,,,,,,,,,,,,,,,,,,,,,,,,,,,,,,,,,,,,,,,,,,,,,,,,,,,
,,,,8,2.2284,,,,,,153,carrot,pretzel,,89259,001,2022-04-26_16h33.20.074,SPAMnetsValid,2021.1.4,Win32,60.06366749,,,,,,,,,,,,,8,2.2284,0,88,88,34,1,,,,,,,,,,,,,,,,,,,,,,,,,,,,,,,,,,,,,,,,,,,,,,,,,,,,,,,,,,,,,,,,,,,,,,
,,,,9,9.8894,,,,,,120,microwave,oven,,89259,001,2022-04-26_16h33.20.074,SPAMnetsValid,2021.1.4,Win32,60.06366749,,,,,,,,,,,,,9,9.8894,0,89,89,14,1,,,,,,,,,,,,,,,,,,,,,,,,,,,,,,,,,,,,,,,,,,,,,,,,,,,,,,,,,,,,,,,,,,,,,,
,,,,6,1.2525,,,,,,108,carrot,chocolate,,89259,001,2022-04-26_16h33.20.074,SPAMnetsValid,2021.1.4,Win32,60.06366749,,,,,,,,,,,,,6,1.2525,0,90,90,5,1,,,,,,,,,,,,,,,,,,,,,,,,,,,,,,,,,,,,,,,,,,,,,,,,,,,,,,,,,,,,,,,,,,,,,,
,,,,6,1.0188,,,,,,135,carrot,oven,,89259,001,2022-04-26_16h33.20.074,SPAMnetsValid,2021.1.4,Win32,60.06366749,,,,,,,,,,,,,6,1.0188,0,91,91,73,1,,,,,,,,,,,,,,,,,,,,,,,,,,,,,,,,,,,,,,,,,,,,,,,,,,,,,,,,,,,,,,,,,,,,,,
,,,,1,1.8033,,,,,,123,cookie,tree,,89259,001,2022-04-26_16h33.20.074,SPAMnetsValid,2021.1.4,Win32,60.06366749,,,,,,,,,,,,,1,1.8033,0,92,92,46,1,,,,,,,,,,,,,,,,,,,,,,,,,,,,,,,,,,,,,,,,,,,,,,,,,,,,,,,,,,,,,,,,,,,,,,
,,,,6,1.0185,,,,,,154,strawberry,yogurt,,89259,001,2022-04-26_16h33.20.074,SPAMnetsValid,2021.1.4,Win32,60.06366749,,,,,,,,,,,,,6,1.0185,0,93,93,28,1,,,,,,,,,,,,,,,,,,,,,,,,,,,,,,,,,,,,,,,,,,,,,,,,,,,,,,,,,,,,,,,,,,,,,,
,,,,9,1.3612,,,,,,159,cookie,flower,,89259,001,2022-04-26_16h33.20.074,SPAMnetsValid,2021.1.4,Win32,60.06366749,,,,,,,,,,,,,9,1.3612,0,94,94,21,1,,,,,,,,,,,,,,,,,,,,,,,,,,,,,,,,,,,,,,,,,,,,,,,,,,,,,,,,,,,,,,,,,,,,,,
,,,,9,1.5895,,,,,,142,garden,tree,,89259,001,2022-04-26_16h33.20.074,SPAMnetsValid,2021.1.4,Win32,60.06366749,,,,,,,,,,,,,9,1.5895,0,95,95,22,1,,,,,,,,,,,,,,,,,,,,,,,,,,,,,,,,,,,,,,,,,,,,,,,,,,,,,,,,,,,,,,,,,,,,,,
,,,,9,1.5417,,,,,,121,broom,microwave,,89259,001,2022-04-26_16h33.20.074,SPAMnetsValid,2021.1.4,Win32,60.06366749,,,,,,,,,,,,,9,1.5417,0,96,96,95,1,,,,,,,,,,,,,,,,,,,,,,,,,,,,,,,,,,,,,,,,,,,,,,,,,,,,,,,,,,,,,,,,,,,,,,
,,,,,,,,,,,,,,,89259,001,2022-04-26_16h33.20.074,SPAMnetsValid,2021.1.4,Win32,60.06366749,,,,,,,,,,,,,,,,,,,,0,0,0,0,1,,,,,,,,,,,,,,,,,,,,,,,,,,,,,,,,,,,,,,,,,,,,,,,,,,,,,,,,,,,,,,,,,
,,,,,,,,,,,,,,,89259,001,2022-04-26_16h33.20.074,SPAMnetsValid,2021.1.4,Win32,60.06366749,,,,,,0,1,1,1,1,0,1,,,,,,,,,,,,,,,,,,,,,,,,,,,,,,,,,,,,,,,,,,,,,,,,,,,,,,,,,,,,,,,,,,,,,,,,,,,,,
,,,,,,,,,,,,,,,89259,001,2022-04-26_16h33.20.074,SPAMnetsValid,2021.1.4,Win32,60.06366749,,,,,,,,,,,,,,,,,,,,,,,,,2,2.5939,0,0,0,0,1,rancor,forbearance,ridicule,malice,bravery,3,,,,,,,,,,,,,,,,,,,,,,,,,,,,,,,,,,,,,,,,,,,,,,,,,,,,
,,,,,,,,,,,,,,,89259,001,2022-04-26_16h33.20.074,SPAMnetsValid,2021.1.4,Win32,60.06366749,,,,,,,,,,,,,,,,,,,,,,,,,1,3.2389,0,1,1,1,1,raucous,empty,quiet,smooth,harsh,4,,,,,,,,,,,,,,,,,,,,,,,,,,,,,,,,,,,,,,,,,,,,,,,,,,,,
,,,,,,,,,,,,,,,89259,001,2022-04-26_16h33.20.074,SPAMnetsValid,2021.1.4,Win32,60.06366749,,,,,,,,,,,,,,,,,,,,,,,,,4,3.3916,0,2,2,2,1,gargoyle,oil,medicine,carved waterspout,ugly building,3,,,,,,,,,,,,,,,,,,,,,,,,,,,,,,,,,,,,,,,,,,,,,,,,,,,,
,,,,,,,,,,,,,,,89259,001,2022-04-26_16h33.20.074,SPAMnetsValid,2021.1.4,Win32,60.06366749,,,,,,,,,,,,,,,,,,,,,,,,,3,2.0094,0,3,3,3,1,recrudesce,purify,renew activity,lack refinement,crush,2,,,,,,,,,,,,,,,,,,,,,,,,,,,,,,,,,,,,,,,,,,,,,,,,,,,,
,,,,,,,,,,,,,,,89259,001,2022-04-26_16h33.20.074,SPAMnetsValid,2021.1.4,Win32,60.06366749,,,,,,,,,,,,,,,,,,,,,,,,,4,1.9884,0,4,4,4,1,specious,"plausible, but not genuine",noteworthy,class or variety,roomy,1,,,,,,,,,,,,,,,,,,,,,,,,,,,,,,,,,,,,,,,,,,,,,,,,,,,,
,,,,,,,,,,,,,,,89259,001,2022-04-26_16h33.20.074,SPAMnetsValid,2021.1.4,Win32,60.06366749,,,,,,,,,,,,,,,,,,,,,,,,,4,3.1456,0,5,5,5,1,bauble,bubble,showy plaything,idle talk,confusion,2,,,,,,,,,,,,,,,,,,,,,,,,,,,,,,,,,,,,,,,,,,,,,,,,,,,,
,,,,,,,,,,,,,,,89259,001,2022-04-26_16h33.20.074,SPAMnetsValid,2021.1.4,Win32,60.06366749,,,,,,,,,,,,,,,,,,,,,,,,,4,2.7043,0,6,6,6,1,prolific,scarce,producing abundantly,reckless,speaking profanely,2,,,,,,,,,,,,,,,,,,,,,,,,,,,,,,,,,,,,,,,,,,,,,,,,,,,,
,,,,,,,,,,,,,,,89259,001,2022-04-26_16h33.20.074,SPAMnetsValid,2021.1.4,Win32,60.06366749,,,,,,,,,,,,,,,,,,,,,,,,,3,3.7869,0,7,7,7,1,opulent,party,wealthy,happy frame of mind,semiprecious stone,2,,,,,,,,,,,,,,,,,,,,,,,,,,,,,,,,,,,,,,,,,,,,,,,,,,,,
,,,,,,,,,,,,,,,89259,001,2022-04-26_16h33.20.074,SPAMnetsValid,2021.1.4,Win32,60.06366749,,,,,,,,,,,,,,,,,,,,,,,,,2,0.5655,0,8,8,8,1,coercion,conspiracy,strategy,restraint,attraction,3,,,,,,,,,,,,,,,,,,,,,,,,,,,,,,,,,,,,,,,,,,,,,,,,,,,,
,,,,,,,,,,,,,,,89259,001,2022-04-26_16h33.20.074,SPAMnetsValid,2021.1.4,Win32,60.06366749,,,,,,,,,,,,,,,,,,,,,,,,,4,0.5194,0,9,9,9,1,hiatus,animal,calamity,dread,gap,4,,,,,,,,,,,,,,,,,,,,,,,,,,,,,,,,,,,,,,,,,,,,,,,,,,,,
,,,,,,,,,,,,,,,89259,001,2022-04-26_16h33.20.074,SPAMnetsValid,2021.1.4,Win32,60.06366749,,,,,,,,,,,,,,,,,,,,,,,,,1,0.8262,0,10,10,10,1,germane,microbe,contagious,relevant,different,3,,,,,,,,,,,,,,,,,,,,,,,,,,,,,,,,,,,,,,,,,,,,,,,,,,,,
,,,,,,,,,,,,,,,89259,001,2022-04-26_16h33.20.074,SPAMnetsValid,2021.1.4,Win32,60.06366749,,,,,,,,,,,,,,,,,,,,,,,,,1,1.5533,0,11,11,11,1,perfunctory,fundamental,formal,superficial,careful,3,,,,,,,,,,,,,,,,,,,,,,,,,,,,,,,,,,,,,,,,,,,,,,,,,,,,
,,,,,,,,,,,,,,,89259,001,2022-04-26_16h33.20.074,SPAMnetsValid,2021.1.4,Win32,60.06366749,,,,,,,,,,,,,,,,,,,,,,,,,3,2.2319,0,12,12,12,1,diverge,reveal,chant,distract the attention of,differ or turn off from,4,,,,,,,,,,,,,,,,,,,,,,,,,,,,,,,,,,,,,,,,,,,,,,,,,,,,
,,,,,,,,,,,,,,,89259,001,2022-04-26_16h33.20.074,SPAMnetsValid,2021.1.4,Win32,60.06366749,,,,,,,,,,,,,,,,,,,,,,,,,2,1.2133,0,13,13,13,1,evoke,take away,anger,connect,bring out,4,,,,,,,,,,,,,,,,,,,,,,,,,,,,,,,,,,,,,,,,,,,,,,,,,,,,
,,,,,,,,,,,,,,,89259,001,2022-04-26_16h33.20.074,SPAMnetsValid,2021.1.4,Win32,60.06366749,,,,,,,,,,,,,,,,,,,,,,,,,4,0.6083,0,14,14,14,1,pertinent,relevant,lying next to,necessary,bold,1,,,,,,,,,,,,,,,,,,,,,,,,,,,,,,,,,,,,,,,,,,,,,,,,,,,,
,,,,,,,,,,,,,,,89259,001,2022-04-26_16h33.20.074,SPAMnetsValid,2021.1.4,Win32,60.06366749,,,,,,,,,,,,,,,,,,,,,,,,,2,4.8283,0,15,15,15,1,holocaust,entirety,destruction,saintly,price,2,,,,,,,,,,,,,,,,,,,,,,,,,,,,,,,,,,,,,,,,,,,,,,,,,,,,
,,,,,,,,,,,,,,,89259,001,2022-04-26_16h33.20.074,SPAMnetsValid,2021.1.4,Win32,60.06366749,,,,,,,,,,,,,,,,,,,,,,,,,2,1.0969,0,16,16,16,1,piquant,mellow,fish,pungent,cloth,3,,,,,,,,,,,,,,,,,,,,,,,,,,,,,,,,,,,,,,,,,,,,,,,,,,,,
,,,,,,,,,,,,,,,89259,001,2022-04-26_16h33.20.074,SPAMnetsValid,2021.1.4,Win32,60.06366749,,,,,,,,,,,,,,,,,,,,,,,,,3,0.6619,0,17,17,17,1,firmament,foundation,heavens,strong,glue,2,,,,,,,,,,,,,,,,,,,,,,,,,,,,,,,,,,,,,,,,,,,,,,,,,,,,
,,,,,,,,,,,,,,,89259,001,2022-04-26_16h33.20.074,SPAMnetsValid,2021.1.4,Win32,60.06366749,,,,,,,,,,,,,,,,,,,,,,,,,,,,,,,,,,,,,,5,0.9982,0,0,0,0,1,marketable,partisan,jocular,marriageable,salable,essential,4,,,,,,,,,,,,,,,,,,,,,,,,,,,,,,,,,,,,,,
,,,,,,,,,,,,,,,89259,001,2022-04-26_16h33.20.074,SPAMnetsValid,2021.1.4,Win32,60.06366749,,,,,,,,,,,,,,,,,,,,,,,,,,,,,,,,,,,,,,2,0.6102,0,1,1,1,1,cottontail,squirrel,poplar,boa,marshy plant,rabbit,5,,,,,,,,,,,,,,,,,,,,,,,,,,,,,,,,,,,,,,
,,,,,,,,,,,,,,,89259,001,2022-04-26_16h33.20.074,SPAMnetsValid,2021.1.4,Win32,60.06366749,,,,,,,,,,,,,,,,,,,,,,,,,,,,,,,,,,,,,,4,0.8872,0,2,2,2,1,boggy,afraid,false,marshy,dense,black,3,,,,,,,,,,,,,,,,,,,,,,,,,,,,,,,,,,,,,,
,,,,,,,,,,,,,,,89259,001,2022-04-26_16h33.20.074,SPAMnetsValid,2021.1.4,Win32,60.06366749,,,,,,,,,,,,,,,,,,,,,,,,,,,,,,,,,,,,,,3,0.6953,0,3,3,3,1,gruesomeness,blackness,falseness,vindictiveness,drunkenness,ghastliness,5,,,,,,,,,,,,,,,,,,,,,,,,,,,,,,,,,,,,,,
,,,,,,,,,,,,,,,89259,001,2022-04-26_16h33.20.074,SPAMnetsValid,2021.1.4,Win32,60.06366749,,,,,,,,,,,,,,,,,,,,,,,,,,,,,,,,,,,,,,5,3.0478,0,4,4,4,1,loathing,diffidence,laziness,abhorrence,cleverness,comfort,3,,,,,,,,,,,,,,,,,,,,,,,,,,,,,,,,,,,,,,
,,,,,,,,,,,,,,,89259,001,2022-04-26_16h33.20.074,SPAMnetsValid,2021.1.4,Win32,60.06366749,,,,,,,,,,,,,,,,,,,,,,,,,,,,,,,,,,,,,,5,1.6563,0,5,5,5,1,bantam,fowl,ridicule,cripple,vegetable,ensign,1,,,,,,,,,,,,,,,,,,,,,,,,,,,,,,,,,,,,,,
,,,,,,,,,,,,,,,89259,001,2022-04-26_16h33.20.074,SPAMnetsValid,2021.1.4,Win32,60.06366749,,,,,,,,,,,,,,,,,,,,,,,,,,,,,,,,,,,,,,4,2.6213,0,6,6,6,1,evoke,wake up,surrender,reconnoiter,transcend,call forth,5,,,,,,,,,,,,,,,,,,,,,,,,,,,,,,,,,,,,,,
,,,,,,,,,,,,,,,89259,001,2022-04-26_16h33.20.074,SPAMnetsValid,2021.1.4,Win32,60.06366749,,,,,,,,,,,,,,,,,,,,,,,,,,,,,,,,,,,,,,2,1.2731,0,7,7,7,1,unobtrusive,unintelligent,epileptic,illogical,lineal,modest,5,,,,,,,,,,,,,,,,,,,,,,,,,,,,,,,,,,,,,,
,,,,,,,,,,,,,,,89259,001,2022-04-26_16h33.20.074,SPAMnetsValid,2021.1.4,Win32,60.06366749,,,,,,,,,,,,,,,,,,,,,,,,,,,,,,,,,,,,,,4,2.2445,0,8,8,8,1,terrain,ice cream,final test,tractor,area of ground,weight,4,,,,,,,,,,,,,,,,,,,,,,,,,,,,,,,,,,,,,,
,,,,,,,,,,,,,,,89259,001,2022-04-26_16h33.20.074,SPAMnetsValid,2021.1.4,Win32,60.06366749,,,,,,,,,,,,,,,,,,,,,,,,,,,,,,,,,,,,,,,,0,9,9,9,1,capriciousness,stubbornness,courage,whimsicality,amazement,greediness,3,,,,,,,,,,,,,,,,,,,,,,,,,,,,,,,,,,,,,,
,,,,,,,,,,,,,,,89259,001,2022-04-26_16h33.20.074,SPAMnetsValid,2021.1.4,Win32,60.06366749,,,,,,,,,,,,,,,,,,,,,,,,,,,,,,,,,,,,,,2,0.9098,0,10,10,10,1,maelstrom,slander,whirlpool,enmity,armor,majolica,2,,,,,,,,,,,,,,,,,,,,,,,,,,,,,,,,,,,,,,
,,,,,,,,,,,,,,,89259,001,2022-04-26_16h33.20.074,SPAMnetsValid,2021.1.4,Win32,60.06366749,,,,,,,,,,,,,,,,,,,,,,,,,,,,,,,,,,,,,,4,0.6055,0,11,11,11,1,tentative,critical,conclusive,authentic,provisional,apprehensive,4,,,,,,,,,,,,,,,,,,,,,,,,,,,,,,,,,,,,,,
,,,,,,,,,,,,,,,89259,001,2022-04-26_16h33.20.074,SPAMnetsValid,2021.1.4,Win32,60.06366749,,,,,,,,,,,,,,,,,,,,,,,,,,,,,,,,,,,,,,3,0.9704,0,12,12,12,1,placate,rehabilitate,plagiarize,depredate,apprise,conciliate,5,,,,,,,,,,,,,,,,,,,,,,,,,,,,,,,,,,,,,,
,,,,,,,,,,,,,,,89259,001,2022-04-26_16h33.20.074,SPAMnetsValid,2021.1.4,Win32,60.06366749,,,,,,,,,,,,,,,,,,,,,,,,,,,,,,,,,,,,,,5,0.8393,0,13,13,13,1,surcease,enlightenment,cessation,inattention,censor,substitution,2,,,,,,,,,,,,,,,,,,,,,,,,,,,,,,,,,,,,,,
,,,,,,,,,,,,,,,89259,001,2022-04-26_16h33.20.074,SPAMnetsValid,2021.1.4,Win32,60.06366749,,,,,,,,,,,,,,,,,,,,,,,,,,,,,,,,,,,,,,4,0.9456,0,14,14,14,1,apathetic,wandering,impassive,hateful,prophetic,overflowing,2,,,,,,,,,,,,,,,,,,,,,,,,,,,,,,,,,,,,,,
,,,,,,,,,,,,,,,89259,001,2022-04-26_16h33.20.074,SPAMnetsValid,2021.1.4,Win32,60.06366749,,,,,,,,,,,,,,,,,,,,,,,,,,,,,,,,,,,,,,2,0.8634,0,15,15,15,1,paternoster,paternalism,patricide,malediction,benediction,prayer,5,,,,,,,,,,,,,,,,,,,,,,,,,,,,,,,,,,,,,,
,,,,,,,,,,,,,,,89259,001,2022-04-26_16h33.20.074,SPAMnetsValid,2021.1.4,Win32,60.06366749,,,,,,,,,,,,,,,,,,,,,,,,,,,,,,,,,,,,,,2,1.6885,0,16,16,16,1,opalescence,opulence,senescence,bankruptcy,iridescence,assiduity,4,,,,,,,,,,,,,,,,,,,,,,,,,,,,,,,,,,,,,,
,,,,,,,,,,,,,,,89259,001,2022-04-26_16h33.20.074,SPAMnetsValid,2021.1.4,Win32,60.06366749,,,,,,,,,,,,,,,,,,,,,,,,,,,,,,,,,,,,,,5,1.5972,0,17,17,17,1,lush,stupid,luxurious,hazy,putrid,languishing,2,,,,,,,,,,,,,,,,,,,,,,,,,,,,,,,,,,,,,,
,,,,,,,,,,,,,,,89259,001,2022-04-26_16h33.20.074,SPAMnetsValid,2021.1.4,Win32,60.06366749,,,,,,,,,,,,,,,,,,,,,,,,,,,,,,,,,,,,,,4,5.4707,0,18,18,18,1,curtailment,expenditure,abandonment,abridgment,improvement,forgery,3,,,,,,,,,,,,,,,,,,,,,,,,,,,,,,,,,,,,,,
,,,,,,,,,,,,,,,89259,001,2022-04-26_16h33.20.074,SPAMnetsValid,2021.1.4,Win32,60.06366749,,,,,,,,,,,,,,,,,,,,,,,,,,,,,,,,,,,,,,2,0.8823,0,19,19,19,1,perversity,adversity,perviousness,travesty,waywardness,gentility,4,,,,,,,,,,,,,,,,,,,,,,,,,,,,,,,,,,,,,,
,,,,,,,,,,,,,,,89259,001,2022-04-26_16h33.20.074,SPAMnetsValid,2021.1.4,Win32,60.06366749,,,,,,,,,,,,,,,,,,,,,,,,,,,,,,,,,,,,,,5,1.124,0,20,20,20,1,calumnious,complimentary,analogous,slanderous,tempestuous,magnanimous,3,,,,,,,,,,,,,,,,,,,,,,,,,,,,,,,,,,,,,,
,,,,,,,,,,,,,,,89259,001,2022-04-26_16h33.20.074,SPAMnetsValid,2021.1.4,Win32,60.06366749,,,,,,,,,,,,,,,,,,,,,,,,,,,,,,,,,,,,,,3,2.8186,0,21,21,21,1,illiberality,bigotry,imbecility,illegibility,cautery,immaturity,1,,,,,,,,,,,,,,,,,,,,,,,,,,,,,,,,,,,,,,
,,,,,,,,,,,,,,,89259,001,2022-04-26_16h33.20.074,SPAMnetsValid,2021.1.4,Win32,60.06366749,,,,,,,,,,,,,,,,,,,,,,,,,,,,,,,,,,,,,,3,1.8573,0,22,22,22,1,clabber,rejoice,gossip,curdle,crow,hobble,3,,,,,,,,,,,,,,,,,,,,,,,,,,,,,,,,,,,,,,
,,,,,,,,,,,,,,,89259,001,2022-04-26_16h33.20.074,SPAMnetsValid,2021.1.4,Win32,60.06366749,,,,,,,,,,,,,,,,,,,,,,,,,,,,,,,,,,,,,,4,1.8418,0,23,23,23,1,sedulousness,diligence,credulousness,seduction,perilousness,frankness,1,,,,,,,,,,,,,,,,,,,,,,,,,,,,,,,,,,,,,,
,,,,,,,,,,,,,,,89259,001,2022-04-26_16h33.20.074,SPAMnetsValid,2021.1.4,Win32,60.06366749,,,,,,,,,,,,,,,,,,,,,,,,,,,,,,,,,,,,,,,,,,,,,,,,,,,,"fort,bed ",pillow,0,0,0,0,1,,,,,,,,,,,,,,,,,,,,,,,,,,,,,,,
,,,,,,,,,,,,,,,89259,001,2022-04-26_16h33.20.074,SPAMnetsValid,2021.1.4,Win32,60.06366749,,,,,,,,,,,,,,,,,,,,,,,,,,,,,,,,,,,,,,,,,,,,,,,,,,,,,pillow,1,0,1,0,1,,,,,,,,,,,,,,,,,,,,,,,,,,,,,,,
,,,,,,,,,,,,,,,89259,001,2022-04-26_16h33.20.074,SPAMnetsValid,2021.1.4,Win32,60.06366749,,,,,,,,,,,,,,,,,,,,,,,,,,,,,,,,,,,,,,,,,,,,,,,,,,,,sleeping,pillow,2,0,2,0,1,,,,,,,,,,,,,,,,,,,,,,,,,,,,,,,
,,,,,,,,,,,,,,,89259,001,2022-04-26_16h33.20.074,SPAMnetsValid,2021.1.4,Win32,60.06366749,,,,,,,,,,,,,,,,,,,,,,,,,,,,,,,,,,,,,,,,,,,,,,,,,,,,sheild,pillow,3,0,3,0,1,,,,,,,,,,,,,,,,,,,,,,,,,,,,,,,
,,,,,,,,,,,,,,,89259,001,2022-04-26_16h33.20.074,SPAMnetsValid,2021.1.4,Win32,60.06366749,,,,,,,,,,,,,,,,,,,,,,,,,,,,,,,,,,,,,,,,,,,,,,,,,,,,protection,pillow,4,0,4,0,1,,,,,,,,,,,,,,,,,,,,,,,,,,,,,,,
,,,,,,,,,,,,,,,89259,001,2022-04-26_16h33.20.074,SPAMnetsValid,2021.1.4,Win32,60.06366749,,,,,,,,,,,,,,,,,,,,,,,,,,,,,,,,,,,,,,,,,,,,,,,,,,,,,pillow,5,0,5,0,1,,,,,,,,,,,,,,,,,,,,,,,,,,,,,,,
,,,,,,,,,,,,,,,89259,001,2022-04-26_16h33.20.074,SPAMnetsValid,2021.1.4,Win32,60.06366749,,,,,,,,,,,,,,,,,,,,,,,,,,,,,,,,,,,,,,,,,,,,,,,,,,,,,pillow,6,0,6,0,1,,,,,,,,,,,,,,,,,,,,,,,,,,,,,,,
,,,,,,,,,,,,,,,89259,001,2022-04-26_16h33.20.074,SPAMnetsValid,2021.1.4,Win32,60.06366749,,,,,,,,,,,,,,,,,,,,,,,,,,,,,,,,,,,,,,,,,,,,,,,,,,,,,pillow,7,0,7,0,1,,,,,,,,,,,,,,,,,,,,,,,,,,,,,,,
,,,,,,,,,,,,,,,89259,001,2022-04-26_16h33.20.074,SPAMnetsValid,2021.1.4,Win32,60.06366749,,,,,,,,,,,,,,,,,,,,,,,,,,,,,,,,,,,,,,,,,,,,,,,,,,,,,pillow,8,0,8,0,1,,,,,,,,,,,,,,,,,,,,,,,,,,,,,,,
,,,,,,,,,,,,,,,89259,001,2022-04-26_16h33.20.074,SPAMnetsValid,2021.1.4,Win32,60.06366749,,,,,,,,,,,,,,,,,,,,,,,,,,,,,,,,,,,,,,,,,,,,,,,,,,,,,pillow,9,0,9,0,1,,,,,,,,,,,,,,,,,,,,,,,,,,,,,,,
,,,,,,,,,,,,,,,89259,001,2022-04-26_16h33.20.074,SPAMnetsValid,2021.1.4,Win32,60.06366749,,,,,,,,,,,,,,,,,,,,,,,,,,,,,,,,,,,,,,,,,,,,,,,,,,,,,,,,,,,0,0,0,2,1,pillow,,,,,,,,,,,,,,,,,,,,,,,,,
,,,,,,,,,,,,,,,89259,001,2022-04-26_16h33.20.074,SPAMnetsValid,2021.1.4,Win32,60.06366749,,,,,,,,,,,,,,,,,,,,,,,,,,,,,,,,,,,,,,,,,,,,,,,,,,,,for water ,bucket,0,0,0,0,1,,,,,,,,,,,,,,,,,,,,,,,,,,,,,,,
,,,,,,,,,,,,,,,89259,001,2022-04-26_16h33.20.074,SPAMnetsValid,2021.1.4,Win32,60.06366749,,,,,,,,,,,,,,,,,,,,,,,,,,,,,,,,,,,,,,,,,,,,,,,,,,,,sand castle,bucket,1,0,1,0,1,,,,,,,,,,,,,,,,,,,,,,,,,,,,,,,
,,,,,,,,,,,,,,,89259,001,2022-04-26_16h33.20.074,SPAMnetsValid,2021.1.4,Win32,60.06366749,,,,,,,,,,,,,,,,,,,,,,,,,,,,,,,,,,,,,,,,,,,,,,,,,,,,picking up water ,bucket,2,0,2,0,1,,,,,,,,,,,,,,,,,,,,,,,,,,,,,,,
,,,,,,,,,,,,,,,89259,001,2022-04-26_16h33.20.074,SPAMnetsValid,2021.1.4,Win32,60.06366749,,,,,,,,,,,,,,,,,,,,,,,,,,,,,,,,,,,,,,,,,,,,,,,,,,,,for picking up objects ,bucket,3,0,3,0,1,,,,,,,,,,,,,,,,,,,,,,,,,,,,,,,
,,,,,,,,,,,,,,,89259,001,2022-04-26_16h33.20.074,SPAMnetsValid,2021.1.4,Win32,60.06366749,,,,,,,,,,,,,,,,,,,,,,,,,,,,,,,,,,,,,,,,,,,,,,,,,,,,transporting obhects ,bucket,4,0,4,0,1,,,,,,,,,,,,,,,,,,,,,,,,,,,,,,,
,,,,,,,,,,,,,,,89259,001,2022-04-26_16h33.20.074,SPAMnetsValid,2021.1.4,Win32,60.06366749,,,,,,,,,,,,,,,,,,,,,,,,,,,,,,,,,,,,,,,,,,,,,,,,,,,,,,,,,,,0,1,1,0,1,bucket,,,,,,,,,,,,,,,,,,,,,,,,,
,,,,,,,,,,,,,,,89259,001,2022-04-26_16h33.20.074,SPAMnetsValid,2021.1.4,Win32,60.06366749,,,,,,,,,,,,,,,,,,,,,,,,,,,,,,,,,,,,,,,,,,,,,,,,,,,,for light,candle,0,0,0,0,1,,,,,,,,,,,,,,,,,,,,,,,,,,,,,,,
,,,,,,,,,,,,,,,89259,001,2022-04-26_16h33.20.074,SPAMnetsValid,2021.1.4,Win32,60.06366749,,,,,,,,,,,,,,,,,,,,,,,,,,,,,,,,,,,,,,,,,,,,,,,,,,,,illuminating rooms,candle,1,0,1,0,1,,,,,,,,,,,,,,,,,,,,,,,,,,,,,,,
,,,,,,,,,,,,,,,89259,001,2022-04-26_16h33.20.074,SPAMnetsValid,2021.1.4,Win32,60.06366749,,,,,,,,,,,,,,,,,,,,,,,,,,,,,,,,,,,,,,,,,,,,,,,,,,,,warmth,candle,2,0,2,0,1,,,,,,,,,,,,,,,,,,,,,,,,,,,,,,,
,,,,,,,,,,,,,,,89259,001,2022-04-26_16h33.20.074,SPAMnetsValid,2021.1.4,Win32,60.06366749,,,,,,,,,,,,,,,,,,,,,,,,,,,,,,,,,,,,,,,,,,,,,,,,,,,,for heat,candle,3,0,3,0,1,,,,,,,,,,,,,,,,,,,,,,,,,,,,,,,
,,,,,,,,,,,,,,,89259,001,2022-04-26_16h33.20.074,SPAMnetsValid,2021.1.4,Win32,60.06366749,,,,,,,,,,,,,,,,,,,,,,,,,,,,,,,,,,,,,,,,,,,,,,,,,,,,,,,,,,,0,2,2,1,1,candle,,,,,,,,,,,,,,,,,,,,,,,,,
,,,,,,,,,,,,,,,89259,001,2022-04-26_16h33.20.074,SPAMnetsValid,2021.1.4,Win32,60.06366749,,,,,,,,,,,,,,,,,,,,,,,,,,,,,,,,,,,,,,,,,,,,,,,,,,,,,,,,,,,,,,,,,,Animals,0,0,0,0,1,,,,,,,,,,,,,,,,,,
,,,,,,,,,,,,,,,89259,001,2022-04-26_16h33.20.074,SPAMnetsValid,2021.1.4,Win32,60.06366749,,,,,,,,,,,,,,,,,,,,,,,,,,,,,,,,,,,,,,,,,,,,,,,,,,,,,,,,,,,,,,,,,farm,Animals,1,0,1,0,1,,,,,,,,,,,,,,,,,,
,,,,,,,,,,,,,,,89259,001,2022-04-26_16h33.20.074,SPAMnetsValid,2021.1.4,Win32,60.06366749,,,,,,,,,,,,,,,,,,,,,,,,,,,,,,,,,,,,,,,,,,,,,,,,,,,,,,,,,,,,,,,,,food,Animals,2,0,2,0,1,,,,,,,,,,,,,,,,,,
,,,,,,,,,,,,,,,89259,001,2022-04-26_16h33.20.074,SPAMnetsValid,2021.1.4,Win32,60.06366749,,,,,,,,,,,,,,,,,,,,,,,,,,,,,,,,,,,,,,,,,,,,,,,,,,,,,,,,,,,,,,,,,,,,,,,,0,0,0,0,1,Animals,,,,,,,,,,,,
,,,,,,,,,,,,,,,89259,001,2022-04-26_16h33.20.074,SPAMnetsValid,2021.1.4,Win32,60.06366749,,,,,,,,,,,,,,,,,,,,,,,,,,,,,,,,,,,,,,,,,,,,,,,,,,,,,,,,,,,,,,,,,,,,,,,,,,,,,,4,3.7013,0,0,0,0,1,"I enjoy concentrating on a fantasy or daydream and exploring all its possibilities, letting it grow and develop.",0,1,,
,,,,,,,,,,,,,,,89259,001,2022-04-26_16h33.20.074,SPAMnetsValid,2021.1.4,Win32,60.06366749,,,,,,,,,,,,,,,,,,,,,,,,,,,,,,,,,,,,,,,,,,,,,,,,,,,,,,,,,,,,,,,,,,,,,,,,,,,,,,5,2.1655,0,1,1,1,1,I think it's interesting to learn and develop new hobbies.,0,2,,
,,,,,,,,,,,,,,,89259,001,2022-04-26_16h33.20.074,SPAMnetsValid,2021.1.4,Win32,60.06366749,,,,,,,,,,,,,,,,,,,,,,,,,,,,,,,,,,,,,,,,,,,,,,,,,,,,,,,,,,,,,,,,,,,,,,,,,,,,,,5,1.9496,0,2,2,2,1,I am intrigued by the patterns I find in art and nature.,0,3,,
,,,,,,,,,,,,,,,89259,001,2022-04-26_16h33.20.074,SPAMnetsValid,2021.1.4,Win32,60.06366749,,,,,,,,,,,,,,,,,,,,,,,,,,,,,,,,,,,,,,,,,,,,,,,,,,,,,,,,,,,,,,,,,,,,,,,,,,,,,,4,3.9167,0,3,3,3,1,I believe letting students hear controversial speakers can only confuse and mislead them.,1,4,,
,,,,,,,,,,,,,,,89259,001,2022-04-26_16h33.20.074,SPAMnetsValid,2021.1.4,Win32,60.06366749,,,,,,,,,,,,,,,,,,,,,,,,,,,,,,,,,,,,,,,,,,,,,,,,,,,,,,,,,,,,,,,,,,,,,,,,,,,,,,2,2.4914,0,4,4,4,1,Poetry has little or no effect on me.,1,5,,
,,,,,,,,,,,,,,,89259,001,2022-04-26_16h33.20.074,SPAMnetsValid,2021.1.4,Win32,60.06366749,,,,,,,,,,,,,,,,,,,,,,,,,,,,,,,,,,,,,,,,,,,,,,,,,,,,,,,,,,,,,,,,,,,,,,,,,,,,,,4,6.7169,0,5,5,5,1,I would have difficulty just letting my mind wander without control or guidance.,1,6,,
,,,,,,,,,,,,,,,89259,001,2022-04-26_16h33.20.074,SPAMnetsValid,2021.1.4,Win32,60.06366749,,,,,,,,,,,,,,,,,,,,,,,,,,,,,,,,,,,,,,,,,,,,,,,,,,,,,,,,,,,,,,,,,,,,,,,,,,,,,,4,2.6319,0,6,6,6,1,I seldom notice the moods or feelings that different environments produce.,1,7,,
,,,,,,,,,,,,,,,89259,001,2022-04-26_16h33.20.074,SPAMnetsValid,2021.1.4,Win32,60.06366749,,,,,,,,,,,,,,,,,,,,,,,,,,,,,,,,,,,,,,,,,,,,,,,,,,,,,,,,,,,,,,,,,,,,,,,,,,,,,,4,2.9097,0,7,7,7,1,I experience a wide range of emotions or feelings.,0,8,,
,,,,,,,,,,,,,,,89259,001,2022-04-26_16h33.20.074,SPAMnetsValid,2021.1.4,Win32,60.06366749,,,,,,,,,,,,,,,,,,,,,,,,,,,,,,,,,,,,,,,,,,,,,,,,,,,,,,,,,,,,,,,,,,,,,,,,,,,,,,4,2.2267,0,8,8,8,1,"Sometimes when I am reading poetry or looking at a work of art, I feel a chill or wave of excitement.",0,9,,
,,,,,,,,,,,,,,,89259,001,2022-04-26_16h33.20.074,SPAMnetsValid,2021.1.4,Win32,60.06366749,,,,,,,,,,,,,,,,,,,,,,,,,,,,,,,,,,,,,,,,,,,,,,,,,,,,,,,,,,,,,,,,,,,,,,,,,,,,,,2,3.9161,0,9,9,9,1,I have little interest in speculating on the nature of the universe or the human condition.,1,10,,
,,,,,,,,,,,,,,,89259,001,2022-04-26_16h33.20.074,SPAMnetsValid,2021.1.4,Win32,60.06366749,,,,,,,,,,,,,,,,,,,,,,,,,,,,,,,,,,,,,,,,,,,,,,,,,,,,,,,,,,,,,,,,,,,,,,,,,,,,,,4,27.4007,0,10,10,10,1,I have a lot of intellectual curiosity.,0,11,,
,,,,,,,,,,,,,,,89259,001,2022-04-26_16h33.20.074,SPAMnetsValid,2021.1.4,Win32,60.06366749,,,,,,,,,,,,,,,,,,,,,,,,,,,,,,,,,,,,,,,,,,,,,,,,,,,,,,,,,,,,,,,,,,,,,,,,,,,,,,4,17.7331,0,11,11,11,1,I often enjoy playing with theories or abstract ideas.,0,12,,
,,,,,,,,,,,,,,,89259,001,2022-04-26_16h33.20.074,SPAMnetsValid,2021.1.4,Win32,60.06366749,,,,,,,,,,,,,,,,,,,,,,,,,,,,,,,,,,,,,,,,,,,,,,,,,,,,,,,,,,,,,,,,,,,,,,,,,,,,,,,,,,,,,,,,return,7.571
