key_resp_3.keys,key_resp_3.rt,slider_2.response,slider_2.rt,rjt_rating,rjt_RT,trials_24.thisRepN,trials_24.thisTrialN,trials_24.thisN,trials_24.thisIndex,trials_24.ran,rjt_order,word1,word2,attention,participant,session,date,expName,psychopyVersion,OS,frameRate,trials_4.thisRepN,trials_4.thisTrialN,trials_4.thisN,trials_4.thisIndex,trials_4.ran,trials_5.thisRepN,trials_5.thisTrialN,trials_5.thisN,trials_5.thisIndex,trials_5.ran,repOne,repTwo,slider.response,slider.rt,trials_22.thisRepN,trials_22.thisTrialN,trials_22.thisN,trials_22.thisIndex,trials_22.ran,trials_99.thisRepN,trials_99.thisTrialN,trials_99.thisN,trials_99.thisIndex,trials_99.ran,slider_extend_2.response,slider_extend_2.rt,trials_6.thisRepN,trials_6.thisTrialN,trials_6.thisN,trials_6.thisIndex,trials_6.ran,vCue2,R1,R2,R3,R4,correct,sliderVocab.response,sliderVocab.rt,trials_7.thisRepN,trials_7.thisTrialN,trials_7.thisN,trials_7.thisIndex,trials_7.ran,VocabCue,VR1,VR2,VR3,VR4,VR5,VocabCorrect,AUT_resp,AUT_label,trials.thisRepN,trials.thisTrialN,trials.thisN,trials.thisIndex,trials.ran,trials_2.thisRepN,trials_2.thisTrialN,trials_2.thisN,trials_2.thisIndex,trials_2.ran,aut_prompt,VF_response,VF_tag,trials_16.thisRepN,trials_16.thisTrialN,trials_16.thisN,trials_16.thisIndex,trials_16.ran,trials_17.thisRepN,trials_17.thisTrialN,trials_17.thisN,trials_17.thisIndex,trials_17.ran,VFcond,open_slider.response,open_slider.rt,trials_3.thisRepN,trials_3.thisTrialN,trials_3.thisN,trials_3.thisIndex,trials_3.ran,OpenQ,Rev,OPEN_ORDER,key_resp_2.keys,key_resp_2.rt
return,14.414,3,9.19,3,9.19,0,0,0,93,1,134,carrot,flower,,89309,001,2022-04-25_14h36.31.167,SPAMnetsValid,2021.1.4,MacIntel,60.0240096,,,,,,,,,,,,,,,,,,,,,,,,,,,,,,,,,,,,,,,,,,,,,,,,,,,,,,,,,,,,,,,,,,,,,,,,,,,,,,,,,,,,,,,,,
,,1,4.294,1,4.294,0,1,1,16,1,111,carrot,microwave,,89309,001,2022-04-25_14h36.31.167,SPAMnetsValid,2021.1.4,MacIntel,60.0240096,,,,,,,,,,,,,,,,,,,,,,,,,,,,,,,,,,,,,,,,,,,,,,,,,,,,,,,,,,,,,,,,,,,,,,,,,,,,,,,,,,,,,,,,,
,,4,2.883,4,2.883,0,2,2,5,1,108,carrot,chocolate,,89309,001,2022-04-25_14h36.31.167,SPAMnetsValid,2021.1.4,MacIntel,60.0240096,,,,,,,,,,,,,,,,,,,,,,,,,,,,,,,,,,,,,,,,,,,,,,,,,,,,,,,,,,,,,,,,,,,,,,,,,,,,,,,,,,,,,,,,,
,,7,2.178,7,2.178,0,3,3,75,1,178,cactus,carrot,,89309,001,2022-04-25_14h36.31.167,SPAMnetsValid,2021.1.4,MacIntel,60.0240096,,,,,,,,,,,,,,,,,,,,,,,,,,,,,,,,,,,,,,,,,,,,,,,,,,,,,,,,,,,,,,,,,,,,,,,,,,,,,,,,,,,,,,,,,
,,3,2.655,3,2.655,0,4,4,84,1,130,microwave,yogurt,,89309,001,2022-04-25_14h36.31.167,SPAMnetsValid,2021.1.4,MacIntel,60.0240096,,,,,,,,,,,,,,,,,,,,,,,,,,,,,,,,,,,,,,,,,,,,,,,,,,,,,,,,,,,,,,,,,,,,,,,,,,,,,,,,,,,,,,,,,
,,8,2.27,8,2.27,0,5,5,17,1,99,garden,melon,,89309,001,2022-04-25_14h36.31.167,SPAMnetsValid,2021.1.4,MacIntel,60.0240096,,,,,,,,,,,,,,,,,,,,,,,,,,,,,,,,,,,,,,,,,,,,,,,,,,,,,,,,,,,,,,,,,,,,,,,,,,,,,,,,,,,,,,,,,
,,3,2.749,3,2.749,0,6,6,28,1,154,strawberry,yogurt,,89309,001,2022-04-25_14h36.31.167,SPAMnetsValid,2021.1.4,MacIntel,60.0240096,,,,,,,,,,,,,,,,,,,,,,,,,,,,,,,,,,,,,,,,,,,,,,,,,,,,,,,,,,,,,,,,,,,,,,,,,,,,,,,,,,,,,,,,,
,,3,3.737,3,3.737,0,7,7,55,1,143,pretzel,rose,,89309,001,2022-04-25_14h36.31.167,SPAMnetsValid,2021.1.4,MacIntel,60.0240096,,,,,,,,,,,,,,,,,,,,,,,,,,,,,,,,,,,,,,,,,,,,,,,,,,,,,,,,,,,,,,,,,,,,,,,,,,,,,,,,,,,,,,,,,
,,6,1.864,6,1.864,0,8,8,42,1,184,oven,pretzel,,89309,001,2022-04-25_14h36.31.167,SPAMnetsValid,2021.1.4,MacIntel,60.0240096,,,,,,,,,,,,,,,,,,,,,,,,,,,,,,,,,,,,,,,,,,,,,,,,,,,,,,,,,,,,,,,,,,,,,,,,,,,,,,,,,,,,,,,,,
,,9,1.744,9,1.744,0,9,9,25,1,194,cactus,cactus,CHECK,89309,001,2022-04-25_14h36.31.167,SPAMnetsValid,2021.1.4,MacIntel,60.0240096,,,,,,,,,,,,,,,,,,,,,,,,,,,,,,,,,,,,,,,,,,,,,,,,,,,,,,,,,,,,,,,,,,,,,,,,,,,,,,,,,,,,,,,,,
,,2,2.246,2,2.246,0,10,10,45,1,179,broom,oven,,89309,001,2022-04-25_14h36.31.167,SPAMnetsValid,2021.1.4,MacIntel,60.0240096,,,,,,,,,,,,,,,,,,,,,,,,,,,,,,,,,,,,,,,,,,,,,,,,,,,,,,,,,,,,,,,,,,,,,,,,,,,,,,,,,,,,,,,,,
,,1,2.288,1,2.288,0,11,11,63,1,137,microwave,tree,,89309,001,2022-04-25_14h36.31.167,SPAMnetsValid,2021.1.4,MacIntel,60.0240096,,,,,,,,,,,,,,,,,,,,,,,,,,,,,,,,,,,,,,,,,,,,,,,,,,,,,,,,,,,,,,,,,,,,,,,,,,,,,,,,,,,,,,,,,
,,9,1.404,9,1.404,0,12,12,86,1,193,melon,melon,CHECK,89309,001,2022-04-25_14h36.31.167,SPAMnetsValid,2021.1.4,MacIntel,60.0240096,,,,,,,,,,,,,,,,,,,,,,,,,,,,,,,,,,,,,,,,,,,,,,,,,,,,,,,,,,,,,,,,,,,,,,,,,,,,,,,,,,,,,,,,,
,,2,1.772,2,1.772,0,13,13,46,1,123,cookie,tree,,89309,001,2022-04-25_14h36.31.167,SPAMnetsValid,2021.1.4,MacIntel,60.0240096,,,,,,,,,,,,,,,,,,,,,,,,,,,,,,,,,,,,,,,,,,,,,,,,,,,,,,,,,,,,,,,,,,,,,,,,,,,,,,,,,,,,,,,,,
,,7,1.797,7,1.797,0,14,14,34,1,153,carrot,pretzel,,89309,001,2022-04-25_14h36.31.167,SPAMnetsValid,2021.1.4,MacIntel,60.0240096,,,,,,,,,,,,,,,,,,,,,,,,,,,,,,,,,,,,,,,,,,,,,,,,,,,,,,,,,,,,,,,,,,,,,,,,,,,,,,,,,,,,,,,,,
,,1,1.72,1,1.72,0,15,15,94,1,133,cake,flower,,89309,001,2022-04-25_14h36.31.167,SPAMnetsValid,2021.1.4,MacIntel,60.0240096,,,,,,,,,,,,,,,,,,,,,,,,,,,,,,,,,,,,,,,,,,,,,,,,,,,,,,,,,,,,,,,,,,,,,,,,,,,,,,,,,,,,,,,,,
,,4,1.846,4,1.846,0,16,16,40,1,165,onion,rose,,89309,001,2022-04-25_14h36.31.167,SPAMnetsValid,2021.1.4,MacIntel,60.0240096,,,,,,,,,,,,,,,,,,,,,,,,,,,,,,,,,,,,,,,,,,,,,,,,,,,,,,,,,,,,,,,,,,,,,,,,,,,,,,,,,,,,,,,,,
,,1,2.092,1,2.092,0,17,17,13,1,105,cactus,oven,,89309,001,2022-04-25_14h36.31.167,SPAMnetsValid,2021.1.4,MacIntel,60.0240096,,,,,,,,,,,,,,,,,,,,,,,,,,,,,,,,,,,,,,,,,,,,,,,,,,,,,,,,,,,,,,,,,,,,,,,,,,,,,,,,,,,,,,,,,
,,8,2.723,8,2.723,0,18,18,44,1,116,cake,chocolate,,89309,001,2022-04-25_14h36.31.167,SPAMnetsValid,2021.1.4,MacIntel,60.0240096,,,,,,,,,,,,,,,,,,,,,,,,,,,,,,,,,,,,,,,,,,,,,,,,,,,,,,,,,,,,,,,,,,,,,,,,,,,,,,,,,,,,,,,,,
,,6,2.804,6,2.804,0,19,19,95,1,121,broom,microwave,,89309,001,2022-04-25_14h36.31.167,SPAMnetsValid,2021.1.4,MacIntel,60.0240096,,,,,,,,,,,,,,,,,,,,,,,,,,,,,,,,,,,,,,,,,,,,,,,,,,,,,,,,,,,,,,,,,,,,,,,,,,,,,,,,,,,,,,,,,
,,8,2.613,8,2.613,0,20,20,83,1,100,garden,tomato,,89309,001,2022-04-25_14h36.31.167,SPAMnetsValid,2021.1.4,MacIntel,60.0240096,,,,,,,,,,,,,,,,,,,,,,,,,,,,,,,,,,,,,,,,,,,,,,,,,,,,,,,,,,,,,,,,,,,,,,,,,,,,,,,,,,,,,,,,,
,,8,1.863,8,1.863,0,21,21,11,1,117,melon,strawberry,,89309,001,2022-04-25_14h36.31.167,SPAMnetsValid,2021.1.4,MacIntel,60.0240096,,,,,,,,,,,,,,,,,,,,,,,,,,,,,,,,,,,,,,,,,,,,,,,,,,,,,,,,,,,,,,,,,,,,,,,,,,,,,,,,,,,,,,,,,
,,7,1.397,7,1.397,0,22,22,38,1,155,carrot,cookie,,89309,001,2022-04-25_14h36.31.167,SPAMnetsValid,2021.1.4,MacIntel,60.0240096,,,,,,,,,,,,,,,,,,,,,,,,,,,,,,,,,,,,,,,,,,,,,,,,,,,,,,,,,,,,,,,,,,,,,,,,,,,,,,,,,,,,,,,,,
,,3,1.771,3,1.771,0,23,23,6,1,151,microwave,onion,,89309,001,2022-04-25_14h36.31.167,SPAMnetsValid,2021.1.4,MacIntel,60.0240096,,,,,,,,,,,,,,,,,,,,,,,,,,,,,,,,,,,,,,,,,,,,,,,,,,,,,,,,,,,,,,,,,,,,,,,,,,,,,,,,,,,,,,,,,
,,8,1.82,8,1.82,0,24,24,47,1,167,carrot,garden,,89309,001,2022-04-25_14h36.31.167,SPAMnetsValid,2021.1.4,MacIntel,60.0240096,,,,,,,,,,,,,,,,,,,,,,,,,,,,,,,,,,,,,,,,,,,,,,,,,,,,,,,,,,,,,,,,,,,,,,,,,,,,,,,,,,,,,,,,,
,,8,4.107,8,4.107,0,25,25,14,1,120,microwave,oven,,89309,001,2022-04-25_14h36.31.167,SPAMnetsValid,2021.1.4,MacIntel,60.0240096,,,,,,,,,,,,,,,,,,,,,,,,,,,,,,,,,,,,,,,,,,,,,,,,,,,,,,,,,,,,,,,,,,,,,,,,,,,,,,,,,,,,,,,,,
,,3,2.226,3,2.226,0,26,26,58,1,144,cake,garden,,89309,001,2022-04-25_14h36.31.167,SPAMnetsValid,2021.1.4,MacIntel,60.0240096,,,,,,,,,,,,,,,,,,,,,,,,,,,,,,,,,,,,,,,,,,,,,,,,,,,,,,,,,,,,,,,,,,,,,,,,,,,,,,,,,,,,,,,,,
,,2,1.521,2,1.521,0,27,27,21,1,159,cookie,flower,,89309,001,2022-04-25_14h36.31.167,SPAMnetsValid,2021.1.4,MacIntel,60.0240096,,,,,,,,,,,,,,,,,,,,,,,,,,,,,,,,,,,,,,,,,,,,,,,,,,,,,,,,,,,,,,,,,,,,,,,,,,,,,,,,,,,,,,,,,
,,1,1.475,1,1.475,0,28,28,32,1,182,flower,refrigerator,,89309,001,2022-04-25_14h36.31.167,SPAMnetsValid,2021.1.4,MacIntel,60.0240096,,,,,,,,,,,,,,,,,,,,,,,,,,,,,,,,,,,,,,,,,,,,,,,,,,,,,,,,,,,,,,,,,,,,,,,,,,,,,,,,,,,,,,,,,
,,1,1.373,1,1.373,0,29,29,20,1,149,broom,tomato,,89309,001,2022-04-25_14h36.31.167,SPAMnetsValid,2021.1.4,MacIntel,60.0240096,,,,,,,,,,,,,,,,,,,,,,,,,,,,,,,,,,,,,,,,,,,,,,,,,,,,,,,,,,,,,,,,,,,,,,,,,,,,,,,,,,,,,,,,,
,,8,2.474,8,2.474,0,30,30,61,1,138,flower,rose,,89309,001,2022-04-25_14h36.31.167,SPAMnetsValid,2021.1.4,MacIntel,60.0240096,,,,,,,,,,,,,,,,,,,,,,,,,,,,,,,,,,,,,,,,,,,,,,,,,,,,,,,,,,,,,,,,,,,,,,,,,,,,,,,,,,,,,,,,,
,,1,2.461,1,2.461,0,31,31,29,1,163,melon,refrigerator,,89309,001,2022-04-25_14h36.31.167,SPAMnetsValid,2021.1.4,MacIntel,60.0240096,,,,,,,,,,,,,,,,,,,,,,,,,,,,,,,,,,,,,,,,,,,,,,,,,,,,,,,,,,,,,,,,,,,,,,,,,,,,,,,,,,,,,,,,,
,,1,2.644,1,2.644,0,32,32,73,1,135,carrot,oven,,89309,001,2022-04-25_14h36.31.167,SPAMnetsValid,2021.1.4,MacIntel,60.0240096,,,,,,,,,,,,,,,,,,,,,,,,,,,,,,,,,,,,,,,,,,,,,,,,,,,,,,,,,,,,,,,,,,,,,,,,,,,,,,,,,,,,,,,,,
,,6,2.32,6,2.32,0,33,33,70,1,141,melon,tomato,,89309,001,2022-04-25_14h36.31.167,SPAMnetsValid,2021.1.4,MacIntel,60.0240096,,,,,,,,,,,,,,,,,,,,,,,,,,,,,,,,,,,,,,,,,,,,,,,,,,,,,,,,,,,,,,,,,,,,,,,,,,,,,,,,,,,,,,,,,
,,4,2.905,4,2.905,0,34,34,18,1,119,strawberry,tree,,89309,001,2022-04-25_14h36.31.167,SPAMnetsValid,2021.1.4,MacIntel,60.0240096,,,,,,,,,,,,,,,,,,,,,,,,,,,,,,,,,,,,,,,,,,,,,,,,,,,,,,,,,,,,,,,,,,,,,,,,,,,,,,,,,,,,,,,,,
,,3,2.256,3,2.256,0,35,35,88,1,171,cake,tomato,,89309,001,2022-04-25_14h36.31.167,SPAMnetsValid,2021.1.4,MacIntel,60.0240096,,,,,,,,,,,,,,,,,,,,,,,,,,,,,,,,,,,,,,,,,,,,,,,,,,,,,,,,,,,,,,,,,,,,,,,,,,,,,,,,,,,,,,,,,
,,6,1.971,6,1.971,0,36,36,22,1,142,garden,tree,,89309,001,2022-04-25_14h36.31.167,SPAMnetsValid,2021.1.4,MacIntel,60.0240096,,,,,,,,,,,,,,,,,,,,,,,,,,,,,,,,,,,,,,,,,,,,,,,,,,,,,,,,,,,,,,,,,,,,,,,,,,,,,,,,,,,,,,,,,
,,8,5.454,8,5.454,0,37,37,69,1,124,oven,refrigerator,,89309,001,2022-04-25_14h36.31.167,SPAMnetsValid,2021.1.4,MacIntel,60.0240096,,,,,,,,,,,,,,,,,,,,,,,,,,,,,,,,,,,,,,,,,,,,,,,,,,,,,,,,,,,,,,,,,,,,,,,,,,,,,,,,,,,,,,,,,
,,2,3.107,2,3.107,0,38,38,59,1,164,cookie,garden,,89309,001,2022-04-25_14h36.31.167,SPAMnetsValid,2021.1.4,MacIntel,60.0240096,,,,,,,,,,,,,,,,,,,,,,,,,,,,,,,,,,,,,,,,,,,,,,,,,,,,,,,,,,,,,,,,,,,,,,,,,,,,,,,,,,,,,,,,,
,,5,2.447,5,2.447,0,39,39,81,1,104,garden,microwave,,89309,001,2022-04-25_14h36.31.167,SPAMnetsValid,2021.1.4,MacIntel,60.0240096,,,,,,,,,,,,,,,,,,,,,,,,,,,,,,,,,,,,,,,,,,,,,,,,,,,,,,,,,,,,,,,,,,,,,,,,,,,,,,,,,,,,,,,,,
,,5,5.188,5,5.188,0,40,40,49,1,152,cactus,strawberry,,89309,001,2022-04-25_14h36.31.167,SPAMnetsValid,2021.1.4,MacIntel,60.0240096,,,,,,,,,,,,,,,,,,,,,,,,,,,,,,,,,,,,,,,,,,,,,,,,,,,,,,,,,,,,,,,,,,,,,,,,,,,,,,,,,,,,,,,,,
,,3,1.43,3,1.43,0,41,41,71,1,187,cactus,microwave,,89309,001,2022-04-25_14h36.31.167,SPAMnetsValid,2021.1.4,MacIntel,60.0240096,,,,,,,,,,,,,,,,,,,,,,,,,,,,,,,,,,,,,,,,,,,,,,,,,,,,,,,,,,,,,,,,,,,,,,,,,,,,,,,,,,,,,,,,,
,,1,1.588,1,1.588,0,42,42,89,1,140,cookie,refrigerator,,89309,001,2022-04-25_14h36.31.167,SPAMnetsValid,2021.1.4,MacIntel,60.0240096,,,,,,,,,,,,,,,,,,,,,,,,,,,,,,,,,,,,,,,,,,,,,,,,,,,,,,,,,,,,,,,,,,,,,,,,,,,,,,,,,,,,,,,,,
,,6,2.255,6,2.255,0,43,43,91,1,166,cake,yogurt,,89309,001,2022-04-25_14h36.31.167,SPAMnetsValid,2021.1.4,MacIntel,60.0240096,,,,,,,,,,,,,,,,,,,,,,,,,,,,,,,,,,,,,,,,,,,,,,,,,,,,,,,,,,,,,,,,,,,,,,,,,,,,,,,,,,,,,,,,,
,,6,1.878,6,1.878,0,44,44,24,1,169,onion,yogurt,,89309,001,2022-04-25_14h36.31.167,SPAMnetsValid,2021.1.4,MacIntel,60.0240096,,,,,,,,,,,,,,,,,,,,,,,,,,,,,,,,,,,,,,,,,,,,,,,,,,,,,,,,,,,,,,,,,,,,,,,,,,,,,,,,,,,,,,,,,
,,8,2.27,8,2.27,0,45,45,66,1,150,microwave,refrigerator,,89309,001,2022-04-25_14h36.31.167,SPAMnetsValid,2021.1.4,MacIntel,60.0240096,,,,,,,,,,,,,,,,,,,,,,,,,,,,,,,,,,,,,,,,,,,,,,,,,,,,,,,,,,,,,,,,,,,,,,,,,,,,,,,,,,,,,,,,,
,,2,1.874,2,1.874,0,46,46,72,1,181,carrot,kitchen,,89309,001,2022-04-25_14h36.31.167,SPAMnetsValid,2021.1.4,MacIntel,60.0240096,,,,,,,,,,,,,,,,,,,,,,,,,,,,,,,,,,,,,,,,,,,,,,,,,,,,,,,,,,,,,,,,,,,,,,,,,,,,,,,,,,,,,,,,,
,,2,1.99,2,1.99,0,47,47,92,1,170,cookie,microwave,,89309,001,2022-04-25_14h36.31.167,SPAMnetsValid,2021.1.4,MacIntel,60.0240096,,,,,,,,,,,,,,,,,,,,,,,,,,,,,,,,,,,,,,,,,,,,,,,,,,,,,,,,,,,,,,,,,,,,,,,,,,,,,,,,,,,,,,,,,
,,7,2.037,7,2.037,0,48,48,52,1,110,chocolate,cookie,,89309,001,2022-04-25_14h36.31.167,SPAMnetsValid,2021.1.4,MacIntel,60.0240096,,,,,,,,,,,,,,,,,,,,,,,,,,,,,,,,,,,,,,,,,,,,,,,,,,,,,,,,,,,,,,,,,,,,,,,,,,,,,,,,,,,,,,,,,
,,2,2.439,2,2.439,0,49,49,35,1,147,cake,refrigerator,,89309,001,2022-04-25_14h36.31.167,SPAMnetsValid,2021.1.4,MacIntel,60.0240096,,,,,,,,,,,,,,,,,,,,,,,,,,,,,,,,,,,,,,,,,,,,,,,,,,,,,,,,,,,,,,,,,,,,,,,,,,,,,,,,,,,,,,,,,
,,4,2.63,4,2.63,0,50,50,78,1,132,broom,tree,,89309,001,2022-04-25_14h36.31.167,SPAMnetsValid,2021.1.4,MacIntel,60.0240096,,,,,,,,,,,,,,,,,,,,,,,,,,,,,,,,,,,,,,,,,,,,,,,,,,,,,,,,,,,,,,,,,,,,,,,,,,,,,,,,,,,,,,,,,
,,3,1.554,3,1.554,0,51,51,65,1,160,cookie,kitchen,,89309,001,2022-04-25_14h36.31.167,SPAMnetsValid,2021.1.4,MacIntel,60.0240096,,,,,,,,,,,,,,,,,,,,,,,,,,,,,,,,,,,,,,,,,,,,,,,,,,,,,,,,,,,,,,,,,,,,,,,,,,,,,,,,,,,,,,,,,
,,1,2.473,1,2.473,0,52,52,67,1,96,oven,strawberry,,89309,001,2022-04-25_14h36.31.167,SPAMnetsValid,2021.1.4,MacIntel,60.0240096,,,,,,,,,,,,,,,,,,,,,,,,,,,,,,,,,,,,,,,,,,,,,,,,,,,,,,,,,,,,,,,,,,,,,,,,,,,,,,,,,,,,,,,,,
,,6,2.443,6,2.443,0,53,53,51,1,168,cactus,flower,,89309,001,2022-04-25_14h36.31.167,SPAMnetsValid,2021.1.4,MacIntel,60.0240096,,,,,,,,,,,,,,,,,,,,,,,,,,,,,,,,,,,,,,,,,,,,,,,,,,,,,,,,,,,,,,,,,,,,,,,,,,,,,,,,,,,,,,,,,
,,3,1.655,3,1.655,0,54,54,19,1,183,cake,rose,,89309,001,2022-04-25_14h36.31.167,SPAMnetsValid,2021.1.4,MacIntel,60.0240096,,,,,,,,,,,,,,,,,,,,,,,,,,,,,,,,,,,,,,,,,,,,,,,,,,,,,,,,,,,,,,,,,,,,,,,,,,,,,,,,,,,,,,,,,
,,3,2.022,3,2.022,0,55,55,1,1,173,kitchen,tomato,,89309,001,2022-04-25_14h36.31.167,SPAMnetsValid,2021.1.4,MacIntel,60.0240096,,,,,,,,,,,,,,,,,,,,,,,,,,,,,,,,,,,,,,,,,,,,,,,,,,,,,,,,,,,,,,,,,,,,,,,,,,,,,,,,,,,,,,,,,
,,2,1.637,2,1.637,0,56,56,48,1,186,kitchen,yogurt,,89309,001,2022-04-25_14h36.31.167,SPAMnetsValid,2021.1.4,MacIntel,60.0240096,,,,,,,,,,,,,,,,,,,,,,,,,,,,,,,,,,,,,,,,,,,,,,,,,,,,,,,,,,,,,,,,,,,,,,,,,,,,,,,,,,,,,,,,,
,,6,1.638,6,1.638,0,57,57,53,1,177,chocolate,strawberry,,89309,001,2022-04-25_14h36.31.167,SPAMnetsValid,2021.1.4,MacIntel,60.0240096,,,,,,,,,,,,,,,,,,,,,,,,,,,,,,,,,,,,,,,,,,,,,,,,,,,,,,,,,,,,,,,,,,,,,,,,,,,,,,,,,,,,,,,,,
,,3,2.876,3,2.876,0,58,58,64,1,157,refrigerator,rose,,89309,001,2022-04-25_14h36.31.167,SPAMnetsValid,2021.1.4,MacIntel,60.0240096,,,,,,,,,,,,,,,,,,,,,,,,,,,,,,,,,,,,,,,,,,,,,,,,,,,,,,,,,,,,,,,,,,,,,,,,,,,,,,,,,,,,,,,,,
,,7,2.073,7,2.073,0,59,59,7,1,188,flower,tree,,89309,001,2022-04-25_14h36.31.167,SPAMnetsValid,2021.1.4,MacIntel,60.0240096,,,,,,,,,,,,,,,,,,,,,,,,,,,,,,,,,,,,,,,,,,,,,,,,,,,,,,,,,,,,,,,,,,,,,,,,,,,,,,,,,,,,,,,,,
,,2,1.961,2,1.961,0,60,60,96,1,136,chocolate,microwave,,89309,001,2022-04-25_14h36.31.167,SPAMnetsValid,2021.1.4,MacIntel,60.0240096,,,,,,,,,,,,,,,,,,,,,,,,,,,,,,,,,,,,,,,,,,,,,,,,,,,,,,,,,,,,,,,,,,,,,,,,,,,,,,,,,,,,,,,,,
,,2,3.79,2,3.79,0,61,61,56,1,113,refrigerator,strawberry,,89309,001,2022-04-25_14h36.31.167,SPAMnetsValid,2021.1.4,MacIntel,60.0240096,,,,,,,,,,,,,,,,,,,,,,,,,,,,,,,,,,,,,,,,,,,,,,,,,,,,,,,,,,,,,,,,,,,,,,,,,,,,,,,,,,,,,,,,,
,,2,2.435,2,2.435,0,62,62,27,1,158,cookie,oven,,89309,001,2022-04-25_14h36.31.167,SPAMnetsValid,2021.1.4,MacIntel,60.0240096,,,,,,,,,,,,,,,,,,,,,,,,,,,,,,,,,,,,,,,,,,,,,,,,,,,,,,,,,,,,,,,,,,,,,,,,,,,,,,,,,,,,,,,,,
,,2,1.575,2,1.575,0,63,63,77,1,172,kitchen,melon,,89309,001,2022-04-25_14h36.31.167,SPAMnetsValid,2021.1.4,MacIntel,60.0240096,,,,,,,,,,,,,,,,,,,,,,,,,,,,,,,,,,,,,,,,,,,,,,,,,,,,,,,,,,,,,,,,,,,,,,,,,,,,,,,,,,,,,,,,,
,,6,1.555,6,1.555,0,64,64,30,1,125,carrot,tree,,89309,001,2022-04-25_14h36.31.167,SPAMnetsValid,2021.1.4,MacIntel,60.0240096,,,,,,,,,,,,,,,,,,,,,,,,,,,,,,,,,,,,,,,,,,,,,,,,,,,,,,,,,,,,,,,,,,,,,,,,,,,,,,,,,,,,,,,,,
,,6,2.346,6,2.346,0,65,65,0,1,106,cake,strawberry,,89309,001,2022-04-25_14h36.31.167,SPAMnetsValid,2021.1.4,MacIntel,60.0240096,,,,,,,,,,,,,,,,,,,,,,,,,,,,,,,,,,,,,,,,,,,,,,,,,,,,,,,,,,,,,,,,,,,,,,,,,,,,,,,,,,,,,,,,,
,,1,1.325,1,1.325,0,66,66,74,1,128,melon,microwave,,89309,001,2022-04-25_14h36.31.167,SPAMnetsValid,2021.1.4,MacIntel,60.0240096,,,,,,,,,,,,,,,,,,,,,,,,,,,,,,,,,,,,,,,,,,,,,,,,,,,,,,,,,,,,,,,,,,,,,,,,,,,,,,,,,,,,,,,,,
,,1,1.615,1,1.615,0,67,67,54,1,101,cactus,kitchen,,89309,001,2022-04-25_14h36.31.167,SPAMnetsValid,2021.1.4,MacIntel,60.0240096,,,,,,,,,,,,,,,,,,,,,,,,,,,,,,,,,,,,,,,,,,,,,,,,,,,,,,,,,,,,,,,,,,,,,,,,,,,,,,,,,,,,,,,,,
,,1,1.422,1,1.422,0,68,68,3,1,129,cactus,refrigerator,,89309,001,2022-04-25_14h36.31.167,SPAMnetsValid,2021.1.4,MacIntel,60.0240096,,,,,,,,,,,,,,,,,,,,,,,,,,,,,,,,,,,,,,,,,,,,,,,,,,,,,,,,,,,,,,,,,,,,,,,,,,,,,,,,,,,,,,,,,
,,1,1.54,1,1.54,0,69,69,36,1,161,kitchen,pretzel,,89309,001,2022-04-25_14h36.31.167,SPAMnetsValid,2021.1.4,MacIntel,60.0240096,,,,,,,,,,,,,,,,,,,,,,,,,,,,,,,,,,,,,,,,,,,,,,,,,,,,,,,,,,,,,,,,,,,,,,,,,,,,,,,,,,,,,,,,,
,,5,3.397,5,3.397,0,70,70,9,1,176,cactus,tomato,,89309,001,2022-04-25_14h36.31.167,SPAMnetsValid,2021.1.4,MacIntel,60.0240096,,,,,,,,,,,,,,,,,,,,,,,,,,,,,,,,,,,,,,,,,,,,,,,,,,,,,,,,,,,,,,,,,,,,,,,,,,,,,,,,,,,,,,,,,
,,1,4.856,1,4.856,0,71,71,68,1,180,tree,yogurt,,89309,001,2022-04-25_14h36.31.167,SPAMnetsValid,2021.1.4,MacIntel,60.0240096,,,,,,,,,,,,,,,,,,,,,,,,,,,,,,,,,,,,,,,,,,,,,,,,,,,,,,,,,,,,,,,,,,,,,,,,,,,,,,,,,,,,,,,,,
,,1,1.445,1,1.445,0,72,72,80,1,146,pretzel,tree,,89309,001,2022-04-25_14h36.31.167,SPAMnetsValid,2021.1.4,MacIntel,60.0240096,,,,,,,,,,,,,,,,,,,,,,,,,,,,,,,,,,,,,,,,,,,,,,,,,,,,,,,,,,,,,,,,,,,,,,,,,,,,,,,,,,,,,,,,,
,,3,1.582,3,1.582,0,73,73,31,1,156,melon,rose,,89309,001,2022-04-25_14h36.31.167,SPAMnetsValid,2021.1.4,MacIntel,60.0240096,,,,,,,,,,,,,,,,,,,,,,,,,,,,,,,,,,,,,,,,,,,,,,,,,,,,,,,,,,,,,,,,,,,,,,,,,,,,,,,,,,,,,,,,,
,,7,8.973,7,8.973,0,74,74,26,1,107,rose,tomato,,89309,001,2022-04-25_14h36.31.167,SPAMnetsValid,2021.1.4,MacIntel,60.0240096,,,,,,,,,,,,,,,,,,,,,,,,,,,,,,,,,,,,,,,,,,,,,,,,,,,,,,,,,,,,,,,,,,,,,,,,,,,,,,,,,,,,,,,,,
,,2,2.62,2,2.62,0,75,75,57,1,127,cactus,chocolate,,89309,001,2022-04-25_14h36.31.167,SPAMnetsValid,2021.1.4,MacIntel,60.0240096,,,,,,,,,,,,,,,,,,,,,,,,,,,,,,,,,,,,,,,,,,,,,,,,,,,,,,,,,,,,,,,,,,,,,,,,,,,,,,,,,,,,,,,,,
,,4,2.153,4,2.153,0,76,76,37,1,139,carrot,strawberry,,89309,001,2022-04-25_14h36.31.167,SPAMnetsValid,2021.1.4,MacIntel,60.0240096,,,,,,,,,,,,,,,,,,,,,,,,,,,,,,,,,,,,,,,,,,,,,,,,,,,,,,,,,,,,,,,,,,,,,,,,,,,,,,,,,,,,,,,,,
,,6,3.365,6,3.365,0,77,77,41,1,175,melon,onion,,89309,001,2022-04-25_14h36.31.167,SPAMnetsValid,2021.1.4,MacIntel,60.0240096,,,,,,,,,,,,,,,,,,,,,,,,,,,,,,,,,,,,,,,,,,,,,,,,,,,,,,,,,,,,,,,,,,,,,,,,,,,,,,,,,,,,,,,,,
,,2,1.646,2,1.646,0,78,78,12,1,162,microwave,tomato,,89309,001,2022-04-25_14h36.31.167,SPAMnetsValid,2021.1.4,MacIntel,60.0240096,,,,,,,,,,,,,,,,,,,,,,,,,,,,,,,,,,,,,,,,,,,,,,,,,,,,,,,,,,,,,,,,,,,,,,,,,,,,,,,,,,,,,,,,,
,,4,2.496,4,2.496,0,79,79,33,1,131,cactus,garden,,89309,001,2022-04-25_14h36.31.167,SPAMnetsValid,2021.1.4,MacIntel,60.0240096,,,,,,,,,,,,,,,,,,,,,,,,,,,,,,,,,,,,,,,,,,,,,,,,,,,,,,,,,,,,,,,,,,,,,,,,,,,,,,,,,,,,,,,,,
,,1,1.971,1,1.971,0,80,80,76,1,102,chocolate,refrigerator,,89309,001,2022-04-25_14h36.31.167,SPAMnetsValid,2021.1.4,MacIntel,60.0240096,,,,,,,,,,,,,,,,,,,,,,,,,,,,,,,,,,,,,,,,,,,,,,,,,,,,,,,,,,,,,,,,,,,,,,,,,,,,,,,,,,,,,,,,,
,,3,3.404,3,3.404,0,81,81,87,1,114,cookie,strawberry,,89309,001,2022-04-25_14h36.31.167,SPAMnetsValid,2021.1.4,MacIntel,60.0240096,,,,,,,,,,,,,,,,,,,,,,,,,,,,,,,,,,,,,,,,,,,,,,,,,,,,,,,,,,,,,,,,,,,,,,,,,,,,,,,,,,,,,,,,,
,,4,1.458,4,1.458,0,82,82,82,1,98,pretzel,strawberry,,89309,001,2022-04-25_14h36.31.167,SPAMnetsValid,2021.1.4,MacIntel,60.0240096,,,,,,,,,,,,,,,,,,,,,,,,,,,,,,,,,,,,,,,,,,,,,,,,,,,,,,,,,,,,,,,,,,,,,,,,,,,,,,,,,,,,,,,,,
,,5,4.888,5,4.888,0,83,83,23,1,148,flower,melon,,89309,001,2022-04-25_14h36.31.167,SPAMnetsValid,2021.1.4,MacIntel,60.0240096,,,,,,,,,,,,,,,,,,,,,,,,,,,,,,,,,,,,,,,,,,,,,,,,,,,,,,,,,,,,,,,,,,,,,,,,,,,,,,,,,,,,,,,,,
,,3,1.941,3,1.941,0,84,84,79,1,103,pretzel,tomato,,89309,001,2022-04-25_14h36.31.167,SPAMnetsValid,2021.1.4,MacIntel,60.0240096,,,,,,,,,,,,,,,,,,,,,,,,,,,,,,,,,,,,,,,,,,,,,,,,,,,,,,,,,,,,,,,,,,,,,,,,,,,,,,,,,,,,,,,,,
,,1,6.594,1,6.594,0,85,85,90,1,190,microwave,strawberry,,89309,001,2022-04-25_14h36.31.167,SPAMnetsValid,2021.1.4,MacIntel,60.0240096,,,,,,,,,,,,,,,,,,,,,,,,,,,,,,,,,,,,,,,,,,,,,,,,,,,,,,,,,,,,,,,,,,,,,,,,,,,,,,,,,,,,,,,,,
,,3,2.953,3,2.953,0,86,86,10,1,118,chocolate,oven,,89309,001,2022-04-25_14h36.31.167,SPAMnetsValid,2021.1.4,MacIntel,60.0240096,,,,,,,,,,,,,,,,,,,,,,,,,,,,,,,,,,,,,,,,,,,,,,,,,,,,,,,,,,,,,,,,,,,,,,,,,,,,,,,,,,,,,,,,,
,,1,7.407,1,7.407,0,87,87,50,1,126,kitchen,tree,,89309,001,2022-04-25_14h36.31.167,SPAMnetsValid,2021.1.4,MacIntel,60.0240096,,,,,,,,,,,,,,,,,,,,,,,,,,,,,,,,,,,,,,,,,,,,,,,,,,,,,,,,,,,,,,,,,,,,,,,,,,,,,,,,,,,,,,,,,
,,1,2.906,1,2.906,0,88,88,85,1,115,refrigerator,tomato,,89309,001,2022-04-25_14h36.31.167,SPAMnetsValid,2021.1.4,MacIntel,60.0240096,,,,,,,,,,,,,,,,,,,,,,,,,,,,,,,,,,,,,,,,,,,,,,,,,,,,,,,,,,,,,,,,,,,,,,,,,,,,,,,,,,,,,,,,,
,,4,2.728,4,2.728,0,89,89,43,1,185,cactus,rose,,89309,001,2022-04-25_14h36.31.167,SPAMnetsValid,2021.1.4,MacIntel,60.0240096,,,,,,,,,,,,,,,,,,,,,,,,,,,,,,,,,,,,,,,,,,,,,,,,,,,,,,,,,,,,,,,,,,,,,,,,,,,,,,,,,,,,,,,,,
,,6,1.656,6,1.656,0,90,90,62,1,189,onion,tree,,89309,001,2022-04-25_14h36.31.167,SPAMnetsValid,2021.1.4,MacIntel,60.0240096,,,,,,,,,,,,,,,,,,,,,,,,,,,,,,,,,,,,,,,,,,,,,,,,,,,,,,,,,,,,,,,,,,,,,,,,,,,,,,,,,,,,,,,,,
,,8,1.82,8,1.82,0,91,91,60,1,122,flower,garden,,89309,001,2022-04-25_14h36.31.167,SPAMnetsValid,2021.1.4,MacIntel,60.0240096,,,,,,,,,,,,,,,,,,,,,,,,,,,,,,,,,,,,,,,,,,,,,,,,,,,,,,,,,,,,,,,,,,,,,,,,,,,,,,,,,,,,,,,,,
,,7,2.078,7,2.078,0,92,92,2,1,174,cake,pretzel,,89309,001,2022-04-25_14h36.31.167,SPAMnetsValid,2021.1.4,MacIntel,60.0240096,,,,,,,,,,,,,,,,,,,,,,,,,,,,,,,,,,,,,,,,,,,,,,,,,,,,,,,,,,,,,,,,,,,,,,,,,,,,,,,,,,,,,,,,,
,,2,2.221,2,2.221,0,93,93,4,1,109,broom,strawberry,,89309,001,2022-04-25_14h36.31.167,SPAMnetsValid,2021.1.4,MacIntel,60.0240096,,,,,,,,,,,,,,,,,,,,,,,,,,,,,,,,,,,,,,,,,,,,,,,,,,,,,,,,,,,,,,,,,,,,,,,,,,,,,,,,,,,,,,,,,
,,2,2.391,2,2.391,0,94,94,8,1,97,chocolate,kitchen,,89309,001,2022-04-25_14h36.31.167,SPAMnetsValid,2021.1.4,MacIntel,60.0240096,,,,,,,,,,,,,,,,,,,,,,,,,,,,,,,,,,,,,,,,,,,,,,,,,,,,,,,,,,,,,,,,,,,,,,,,,,,,,,,,,,,,,,,,,
,,2,2.006,2,2.006,0,95,95,15,1,145,cactus,yogurt,,89309,001,2022-04-25_14h36.31.167,SPAMnetsValid,2021.1.4,MacIntel,60.0240096,,,,,,,,,,,,,,,,,,,,,,,,,,,,,,,,,,,,,,,,,,,,,,,,,,,,,,,,,,,,,,,,,,,,,,,,,,,,,,,,,,,,,,,,,
,,6,2.571,6,2.571,0,96,96,39,1,112,cake,carrot,,89309,001,2022-04-25_14h36.31.167,SPAMnetsValid,2021.1.4,MacIntel,60.0240096,,,,,,,,,,,,,,,,,,,,,,,,,,,,,,,,,,,,,,,,,,,,,,,,,,,,,,,,,,,,,,,,,,,,,,,,,,,,,,,,,,,,,,,,,
,,,,,,,,,,,,,,,89309,001,2022-04-25_14h36.31.167,SPAMnetsValid,2021.1.4,MacIntel,60.0240096,0,0,0,0,1,,,,,,,,,,,,,,,,,,,,,,,,,,,,,,,,,,,,,,,,,,,,,,,,,,,,,,,,,,,,,,,,,,,,,,,,,,,,,,,,,,,,
,,,,,,,,,,,,,,,89309,001,2022-04-25_14h36.31.167,SPAMnetsValid,2021.1.4,MacIntel,60.0240096,,,,,,0,0,0,1,1,0,1,,,,,,,,,,,,,,,,,,,,,,,,,,,,,,,,,,,,,,,,,,,,,,,,,,,,,,,,,,,,,,,,,,,,,,,,,,,,,
,,,,7,4.627,,,,,,56,cactus,tree,,89309,001,2022-04-25_14h36.31.167,SPAMnetsValid,2021.1.4,MacIntel,60.0240096,,,,,,,,,,,,,7,4.627,0,0,0,21,1,,,,,,,,,,,,,,,,,,,,,,,,,,,,,,,,,,,,,,,,,,,,,,,,,,,,,,,,,,,,,,,,,,,,,,
,,,,3,7.362,,,,,,3,cake,oven,,89309,001,2022-04-25_14h36.31.167,SPAMnetsValid,2021.1.4,MacIntel,60.0240096,,,,,,,,,,,,,3,7.362,0,1,1,30,1,,,,,,,,,,,,,,,,,,,,,,,,,,,,,,,,,,,,,,,,,,,,,,,,,,,,,,,,,,,,,,,,,,,,,,
,,,,1,1.222,,,,,,58,garden,oven,,89309,001,2022-04-25_14h36.31.167,SPAMnetsValid,2021.1.4,MacIntel,60.0240096,,,,,,,,,,,,,1,1.222,0,2,2,37,1,,,,,,,,,,,,,,,,,,,,,,,,,,,,,,,,,,,,,,,,,,,,,,,,,,,,,,,,,,,,,,,,,,,,,,
,,,,3,1.79,,,,,,10,flower,onion,,89309,001,2022-04-25_14h36.31.167,SPAMnetsValid,2021.1.4,MacIntel,60.0240096,,,,,,,,,,,,,3,1.79,0,3,3,45,1,,,,,,,,,,,,,,,,,,,,,,,,,,,,,,,,,,,,,,,,,,,,,,,,,,,,,,,,,,,,,,,,,,,,,,
,,,,3,4.706,,,,,,90,cactus,cake,,89309,001,2022-04-25_14h36.31.167,SPAMnetsValid,2021.1.4,MacIntel,60.0240096,,,,,,,,,,,,,3,4.706,0,4,4,85,1,,,,,,,,,,,,,,,,,,,,,,,,,,,,,,,,,,,,,,,,,,,,,,,,,,,,,,,,,,,,,,,,,,,,,,
,,,,2,1.147,,,,,,1,rose,yogurt,,89309,001,2022-04-25_14h36.31.167,SPAMnetsValid,2021.1.4,MacIntel,60.0240096,,,,,,,,,,,,,2,1.147,0,5,5,55,1,,,,,,,,,,,,,,,,,,,,,,,,,,,,,,,,,,,,,,,,,,,,,,,,,,,,,,,,,,,,,,,,,,,,,,
,,,,1,1.412,,,,,,15,onion,oven,,89309,001,2022-04-25_14h36.31.167,SPAMnetsValid,2021.1.4,MacIntel,60.0240096,,,,,,,,,,,,,1,1.412,0,6,6,39,1,,,,,,,,,,,,,,,,,,,,,,,,,,,,,,,,,,,,,,,,,,,,,,,,,,,,,,,,,,,,,,,,,,,,,,
,,,,2,1.938,,,,,,27,cactus,cookie,,89309,001,2022-04-25_14h36.31.167,SPAMnetsValid,2021.1.4,MacIntel,60.0240096,,,,,,,,,,,,,2,1.938,0,7,7,17,1,,,,,,,,,,,,,,,,,,,,,,,,,,,,,,,,,,,,,,,,,,,,,,,,,,,,,,,,,,,,,,,,,,,,,,
,,,,1,1.263,,,,,,5,oven,tree,,89309,001,2022-04-25_14h36.31.167,SPAMnetsValid,2021.1.4,MacIntel,60.0240096,,,,,,,,,,,,,1,1.263,0,8,8,70,1,,,,,,,,,,,,,,,,,,,,,,,,,,,,,,,,,,,,,,,,,,,,,,,,,,,,,,,,,,,,,,,,,,,,,,
,,,,4,2.306,,,,,,4,chocolate,pretzel,,89309,001,2022-04-25_14h36.31.167,SPAMnetsValid,2021.1.4,MacIntel,60.0240096,,,,,,,,,,,,,4,2.306,0,9,9,52,1,,,,,,,,,,,,,,,,,,,,,,,,,,,,,,,,,,,,,,,,,,,,,,,,,,,,,,,,,,,,,,,,,,,,,,
,,,,1,1.149,,,,,,72,broom,onion,,89309,001,2022-04-25_14h36.31.167,SPAMnetsValid,2021.1.4,MacIntel,60.0240096,,,,,,,,,,,,,1,1.149,0,10,10,27,1,,,,,,,,,,,,,,,,,,,,,,,,,,,,,,,,,,,,,,,,,,,,,,,,,,,,,,,,,,,,,,,,,,,,,,
,,,,7,1.678,,,,,,88,cactus,melon,,89309,001,2022-04-25_14h36.31.167,SPAMnetsValid,2021.1.4,MacIntel,60.0240096,,,,,,,,,,,,,7,1.678,0,11,11,38,1,,,,,,,,,,,,,,,,,,,,,,,,,,,,,,,,,,,,,,,,,,,,,,,,,,,,,,,,,,,,,,,,,,,,,,
,,,,1,1.597,,,,,,22,kitchen,strawberry,,89309,001,2022-04-25_14h36.31.167,SPAMnetsValid,2021.1.4,MacIntel,60.0240096,,,,,,,,,,,,,1,1.597,0,12,12,2,1,,,,,,,,,,,,,,,,,,,,,,,,,,,,,,,,,,,,,,,,,,,,,,,,,,,,,,,,,,,,,,,,,,,,,,
,,,,1,1.086,,,,,,80,chocolate,tree,,89309,001,2022-04-25_14h36.31.167,SPAMnetsValid,2021.1.4,MacIntel,60.0240096,,,,,,,,,,,,,1,1.086,0,13,13,89,1,,,,,,,,,,,,,,,,,,,,,,,,,,,,,,,,,,,,,,,,,,,,,,,,,,,,,,,,,,,,,,,,,,,,,,
,,,,2,1.657,,,,,,7,melon,tree,,89309,001,2022-04-25_14h36.31.167,SPAMnetsValid,2021.1.4,MacIntel,60.0240096,,,,,,,,,,,,,2,1.657,0,14,14,77,1,,,,,,,,,,,,,,,,,,,,,,,,,,,,,,,,,,,,,,,,,,,,,,,,,,,,,,,,,,,,,,,,,,,,,,
,,,,3,1.364,,,,,,82,cake,kitchen,,89309,001,2022-04-25_14h36.31.167,SPAMnetsValid,2021.1.4,MacIntel,60.0240096,,,,,,,,,,,,,3,1.364,0,15,15,96,1,,,,,,,,,,,,,,,,,,,,,,,,,,,,,,,,,,,,,,,,,,,,,,,,,,,,,,,,,,,,,,,,,,,,,,
,,,,2,1.253,,,,,,68,flower,tomato,,89309,001,2022-04-25_14h36.31.167,SPAMnetsValid,2021.1.4,MacIntel,60.0240096,,,,,,,,,,,,,2,1.253,0,16,16,94,1,,,,,,,,,,,,,,,,,,,,,,,,,,,,,,,,,,,,,,,,,,,,,,,,,,,,,,,,,,,,,,,,,,,,,,
,,,,5,9.53,,,,,,30,cookie,pretzel,,89309,001,2022-04-25_14h36.31.167,SPAMnetsValid,2021.1.4,MacIntel,60.0240096,,,,,,,,,,,,,5,9.53,0,17,17,78,1,,,,,,,,,,,,,,,,,,,,,,,,,,,,,,,,,,,,,,,,,,,,,,,,,,,,,,,,,,,,,,,,,,,,,,
,,,,9,1.704,,,,,,191,cake,cake,CHECK,89309,001,2022-04-25_14h36.31.167,SPAMnetsValid,2021.1.4,MacIntel,60.0240096,,,,,,,,,,,,,9,1.704,0,18,18,10,1,,,,,,,,,,,,,,,,,,,,,,,,,,,,,,,,,,,,,,,,,,,,,,,,,,,,,,,,,,,,,,,,,,,,,,
,,,,3,2.272,,,,,,57,flower,kitchen,,89309,001,2022-04-25_14h36.31.167,SPAMnetsValid,2021.1.4,MacIntel,60.0240096,,,,,,,,,,,,,3,2.272,0,19,19,49,1,,,,,,,,,,,,,,,,,,,,,,,,,,,,,,,,,,,,,,,,,,,,,,,,,,,,,,,,,,,,,,,,,,,,,,
,,,,6,1.237,,,,,,29,chocolate,melon,,89309,001,2022-04-25_14h36.31.167,SPAMnetsValid,2021.1.4,MacIntel,60.0240096,,,,,,,,,,,,,6,1.237,0,20,20,34,1,,,,,,,,,,,,,,,,,,,,,,,,,,,,,,,,,,,,,,,,,,,,,,,,,,,,,,,,,,,,,,,,,,,,,,
,,,,4,3.289,,,,,,39,melon,pretzel,,89309,001,2022-04-25_14h36.31.167,SPAMnetsValid,2021.1.4,MacIntel,60.0240096,,,,,,,,,,,,,4,3.289,0,21,21,20,1,,,,,,,,,,,,,,,,,,,,,,,,,,,,,,,,,,,,,,,,,,,,,,,,,,,,,,,,,,,,,,,,,,,,,,
,,,,6,13.75,,,,,,26,tomato,yogurt,,89309,001,2022-04-25_14h36.31.167,SPAMnetsValid,2021.1.4,MacIntel,60.0240096,,,,,,,,,,,,,6,13.75,0,22,22,13,1,,,,,,,,,,,,,,,,,,,,,,,,,,,,,,,,,,,,,,,,,,,,,,,,,,,,,,,,,,,,,,,,,,,,,,
,,,,2,1.553,,,,,,34,melon,oven,,89309,001,2022-04-25_14h36.31.167,SPAMnetsValid,2021.1.4,MacIntel,60.0240096,,,,,,,,,,,,,2,1.553,0,23,23,7,1,,,,,,,,,,,,,,,,,,,,,,,,,,,,,,,,,,,,,,,,,,,,,,,,,,,,,,,,,,,,,,,,,,,,,,
,,,,3,2.029,,,,,,44,cookie,melon,,89309,001,2022-04-25_14h36.31.167,SPAMnetsValid,2021.1.4,MacIntel,60.0240096,,,,,,,,,,,,,3,2.029,0,24,24,92,1,,,,,,,,,,,,,,,,,,,,,,,,,,,,,,,,,,,,,,,,,,,,,,,,,,,,,,,,,,,,,,,,,,,,,,
,,,,4,1.857,,,,,,81,pretzel,yogurt,,89309,001,2022-04-25_14h36.31.167,SPAMnetsValid,2021.1.4,MacIntel,60.0240096,,,,,,,,,,,,,4,1.857,0,25,25,50,1,,,,,,,,,,,,,,,,,,,,,,,,,,,,,,,,,,,,,,,,,,,,,,,,,,,,,,,,,,,,,,,,,,,,,,
,,,,3,1.565,,,,,,21,cake,onion,,89309,001,2022-04-25_14h36.31.167,SPAMnetsValid,2021.1.4,MacIntel,60.0240096,,,,,,,,,,,,,3,1.565,0,26,26,63,1,,,,,,,,,,,,,,,,,,,,,,,,,,,,,,,,,,,,,,,,,,,,,,,,,,,,,,,,,,,,,,,,,,,,,,
,,,,3,4.872,,,,,,53,garden,pretzel,,89309,001,2022-04-25_14h36.31.167,SPAMnetsValid,2021.1.4,MacIntel,60.0240096,,,,,,,,,,,,,3,4.872,0,27,27,0,1,,,,,,,,,,,,,,,,,,,,,,,,,,,,,,,,,,,,,,,,,,,,,,,,,,,,,,,,,,,,,,,,,,,,,,
,,,,8,1.831,,,,,,52,carrot,tomato,,89309,001,2022-04-25_14h36.31.167,SPAMnetsValid,2021.1.4,MacIntel,60.0240096,,,,,,,,,,,,,8,1.831,0,28,28,95,1,,,,,,,,,,,,,,,,,,,,,,,,,,,,,,,,,,,,,,,,,,,,,,,,,,,,,,,,,,,,,,,,,,,,,,
,,,,6,1.555,,,,,,31,cactus,pretzel,,89309,001,2022-04-25_14h36.31.167,SPAMnetsValid,2021.1.4,MacIntel,60.0240096,,,,,,,,,,,,,6,1.555,0,29,29,1,1,,,,,,,,,,,,,,,,,,,,,,,,,,,,,,,,,,,,,,,,,,,,,,,,,,,,,,,,,,,,,,,,,,,,,,
,,,,2,1.647,,,,,,37,garden,refrigerator,,89309,001,2022-04-25_14h36.31.167,SPAMnetsValid,2021.1.4,MacIntel,60.0240096,,,,,,,,,,,,,2,1.647,0,30,30,11,1,,,,,,,,,,,,,,,,,,,,,,,,,,,,,,,,,,,,,,,,,,,,,,,,,,,,,,,,,,,,,,,,,,,,,,
,,,,7,1.986,,,,,,36,broom,kitchen,,89309,001,2022-04-25_14h36.31.167,SPAMnetsValid,2021.1.4,MacIntel,60.0240096,,,,,,,,,,,,,7,1.986,0,31,31,76,1,,,,,,,,,,,,,,,,,,,,,,,,,,,,,,,,,,,,,,,,,,,,,,,,,,,,,,,,,,,,,,,,,,,,,,
,,,,2,2.324,,,,,,78,cookie,rose,,89309,001,2022-04-25_14h36.31.167,SPAMnetsValid,2021.1.4,MacIntel,60.0240096,,,,,,,,,,,,,2,2.324,0,32,32,56,1,,,,,,,,,,,,,,,,,,,,,,,,,,,,,,,,,,,,,,,,,,,,,,,,,,,,,,,,,,,,,,,,,,,,,,
,,,,4,3.888,,,,,,71,broom,rose,,89309,001,2022-04-25_14h36.31.167,SPAMnetsValid,2021.1.4,MacIntel,60.0240096,,,,,,,,,,,,,4,3.888,0,33,33,61,1,,,,,,,,,,,,,,,,,,,,,,,,,,,,,,,,,,,,,,,,,,,,,,,,,,,,,,,,,,,,,,,,,,,,,,
,,,,3,1.53,,,,,,35,flower,pretzel,,89309,001,2022-04-25_14h36.31.167,SPAMnetsValid,2021.1.4,MacIntel,60.0240096,,,,,,,,,,,,,3,1.53,0,34,34,26,1,,,,,,,,,,,,,,,,,,,,,,,,,,,,,,,,,,,,,,,,,,,,,,,,,,,,,,,,,,,,,,,,,,,,,,
,,,,3,14.988,,,,,,64,chocolate,garden,,89309,001,2022-04-25_14h36.31.167,SPAMnetsValid,2021.1.4,MacIntel,60.0240096,,,,,,,,,,,,,3,14.988,0,35,35,14,1,,,,,,,,,,,,,,,,,,,,,,,,,,,,,,,,,,,,,,,,,,,,,,,,,,,,,,,,,,,,,,,,,,,,,,
,,,,3,1.388,,,,,,73,broom,chocolate,,89309,001,2022-04-25_14h36.31.167,SPAMnetsValid,2021.1.4,MacIntel,60.0240096,,,,,,,,,,,,,3,1.388,0,36,36,47,1,,,,,,,,,,,,,,,,,,,,,,,,,,,,,,,,,,,,,,,,,,,,,,,,,,,,,,,,,,,,,,,,,,,,,,
,,,,4,1.212,,,,,,43,chocolate,tomato,,89309,001,2022-04-25_14h36.31.167,SPAMnetsValid,2021.1.4,MacIntel,60.0240096,,,,,,,,,,,,,4,1.212,0,37,37,8,1,,,,,,,,,,,,,,,,,,,,,,,,,,,,,,,,,,,,,,,,,,,,,,,,,,,,,,,,,,,,,,,,,,,,,,
,,,,7,1.563,,,,,,50,carrot,rose,,89309,001,2022-04-25_14h36.31.167,SPAMnetsValid,2021.1.4,MacIntel,60.0240096,,,,,,,,,,,,,7,1.563,0,38,38,73,1,,,,,,,,,,,,,,,,,,,,,,,,,,,,,,,,,,,,,,,,,,,,,,,,,,,,,,,,,,,,,,,,,,,,,,
,,,,7,1.537,,,,,,59,rose,strawberry,,89309,001,2022-04-25_14h36.31.167,SPAMnetsValid,2021.1.4,MacIntel,60.0240096,,,,,,,,,,,,,7,1.537,0,39,39,72,1,,,,,,,,,,,,,,,,,,,,,,,,,,,,,,,,,,,,,,,,,,,,,,,,,,,,,,,,,,,,,,,,,,,,,,
,,,,3,1.962,,,,,,13,broom,yogurt,,89309,001,2022-04-25_14h36.31.167,SPAMnetsValid,2021.1.4,MacIntel,60.0240096,,,,,,,,,,,,,3,1.962,0,40,40,5,1,,,,,,,,,,,,,,,,,,,,,,,,,,,,,,,,,,,,,,,,,,,,,,,,,,,,,,,,,,,,,,,,,,,,,,
,,,,6,1.591,,,,,,55,tomato,tree,,89309,001,2022-04-25_14h36.31.167,SPAMnetsValid,2021.1.4,MacIntel,60.0240096,,,,,,,,,,,,,6,1.591,0,41,41,35,1,,,,,,,,,,,,,,,,,,,,,,,,,,,,,,,,,,,,,,,,,,,,,,,,,,,,,,,,,,,,,,,,,,,,,,
,,,,4,1.216,,,,,,12,cookie,yogurt,,89309,001,2022-04-25_14h36.31.167,SPAMnetsValid,2021.1.4,MacIntel,60.0240096,,,,,,,,,,,,,4,1.216,0,42,42,36,1,,,,,,,,,,,,,,,,,,,,,,,,,,,,,,,,,,,,,,,,,,,,,,,,,,,,,,,,,,,,,,,,,,,,,,
,,,,8,5.511,,,,,,9,kitchen,refrigerator,,89309,001,2022-04-25_14h36.31.167,SPAMnetsValid,2021.1.4,MacIntel,60.0240096,,,,,,,,,,,,,8,5.511,0,43,43,64,1,,,,,,,,,,,,,,,,,,,,,,,,,,,,,,,,,,,,,,,,,,,,,,,,,,,,,,,,,,,,,,,,,,,,,,
,,,,7,1.77,,,,,,61,strawberry,tomato,,89309,001,2022-04-25_14h36.31.167,SPAMnetsValid,2021.1.4,MacIntel,60.0240096,,,,,,,,,,,,,7,1.77,0,44,44,80,1,,,,,,,,,,,,,,,,,,,,,,,,,,,,,,,,,,,,,,,,,,,,,,,,,,,,,,,,,,,,,,,,,,,,,,
,,,,7,1.822,,,,,,20,rose,tree,,89309,001,2022-04-25_14h36.31.167,SPAMnetsValid,2021.1.4,MacIntel,60.0240096,,,,,,,,,,,,,7,1.822,0,45,45,66,1,,,,,,,,,,,,,,,,,,,,,,,,,,,,,,,,,,,,,,,,,,,,,,,,,,,,,,,,,,,,,,,,,,,,,,
,,,,6,1.122,,,,,,28,cake,melon,,89309,001,2022-04-25_14h36.31.167,SPAMnetsValid,2021.1.4,MacIntel,60.0240096,,,,,,,,,,,,,6,1.122,0,46,46,54,1,,,,,,,,,,,,,,,,,,,,,,,,,,,,,,,,,,,,,,,,,,,,,,,,,,,,,,,,,,,,,,,,,,,,,,
,,,,3,2.48,,,,,,19,microwave,pretzel,,89309,001,2022-04-25_14h36.31.167,SPAMnetsValid,2021.1.4,MacIntel,60.0240096,,,,,,,,,,,,,3,2.48,0,47,47,41,1,,,,,,,,,,,,,,,,,,,,,,,,,,,,,,,,,,,,,,,,,,,,,,,,,,,,,,,,,,,,,,,,,,,,,,
,,,,1,2.071,,,,,,18,onion,refrigerator,,89309,001,2022-04-25_14h36.31.167,SPAMnetsValid,2021.1.4,MacIntel,60.0240096,,,,,,,,,,,,,1,2.071,0,48,48,62,1,,,,,,,,,,,,,,,,,,,,,,,,,,,,,,,,,,,,,,,,,,,,,,,,,,,,,,,,,,,,,,,,,,,,,,
,,,,1,1.038,,,,,,62,kitchen,rose,,89309,001,2022-04-25_14h36.31.167,SPAMnetsValid,2021.1.4,MacIntel,60.0240096,,,,,,,,,,,,,1,1.038,0,49,49,57,1,,,,,,,,,,,,,,,,,,,,,,,,,,,,,,,,,,,,,,,,,,,,,,,,,,,,,,,,,,,,,,,,,,,,,,
,,,,2,8.806,,,,,,84,oven,tomato,,89309,001,2022-04-25_14h36.31.167,SPAMnetsValid,2021.1.4,MacIntel,60.0240096,,,,,,,,,,,,,2,8.806,0,50,50,28,1,,,,,,,,,,,,,,,,,,,,,,,,,,,,,,,,,,,,,,,,,,,,,,,,,,,,,,,,,,,,,,,,,,,,,,
,,,,3,1.281,,,,,,66,melon,yogurt,,89309,001,2022-04-25_14h36.31.167,SPAMnetsValid,2021.1.4,MacIntel,60.0240096,,,,,,,,,,,,,3,1.281,0,51,51,48,1,,,,,,,,,,,,,,,,,,,,,,,,,,,,,,,,,,,,,,,,,,,,,,,,,,,,,,,,,,,,,,,,,,,,,,
,,,,2,0.961,,,,,,51,onion,strawberry,,89309,001,2022-04-25_14h36.31.167,SPAMnetsValid,2021.1.4,MacIntel,60.0240096,,,,,,,,,,,,,2,0.961,0,52,52,86,1,,,,,,,,,,,,,,,,,,,,,,,,,,,,,,,,,,,,,,,,,,,,,,,,,,,,,,,,,,,,,,,,,,,,,,
,,,,3,1.506,,,,,,45,onion,pretzel,,89309,001,2022-04-25_14h36.31.167,SPAMnetsValid,2021.1.4,MacIntel,60.0240096,,,,,,,,,,,,,3,1.506,0,53,53,69,1,,,,,,,,,,,,,,,,,,,,,,,,,,,,,,,,,,,,,,,,,,,,,,,,,,,,,,,,,,,,,,,,,,,,,,
,,,,1,1.605,,,,,,83,broom,carrot,,89309,001,2022-04-25_14h36.31.167,SPAMnetsValid,2021.1.4,MacIntel,60.0240096,,,,,,,,,,,,,1,1.605,0,54,54,4,1,,,,,,,,,,,,,,,,,,,,,,,,,,,,,,,,,,,,,,,,,,,,,,,,,,,,,,,,,,,,,,,,,,,,,,
,,,,2,1.162,,,,,,70,chocolate,onion,,89309,001,2022-04-25_14h36.31.167,SPAMnetsValid,2021.1.4,MacIntel,60.0240096,,,,,,,,,,,,,2,1.162,0,55,55,74,1,,,,,,,,,,,,,,,,,,,,,,,,,,,,,,,,,,,,,,,,,,,,,,,,,,,,,,,,,,,,,,,,,,,,,,
,,,,7,1.937,,,,,,76,garden,rose,,89309,001,2022-04-25_14h36.31.167,SPAMnetsValid,2021.1.4,MacIntel,60.0240096,,,,,,,,,,,,,7,1.937,0,56,56,19,1,,,,,,,,,,,,,,,,,,,,,,,,,,,,,,,,,,,,,,,,,,,,,,,,,,,,,,,,,,,,,,,,,,,,,,
,,,,6,1.175,,,,,,60,cactus,onion,,89309,001,2022-04-25_14h36.31.167,SPAMnetsValid,2021.1.4,MacIntel,60.0240096,,,,,,,,,,,,,6,1.175,0,57,57,81,1,,,,,,,,,,,,,,,,,,,,,,,,,,,,,,,,,,,,,,,,,,,,,,,,,,,,,,,,,,,,,,,,,,,,,,
,,,,1,1.729,,,,,,69,carrot,refrigerator,,89309,001,2022-04-25_14h36.31.167,SPAMnetsValid,2021.1.4,MacIntel,60.0240096,,,,,,,,,,,,,1,1.729,0,58,58,75,1,,,,,,,,,,,,,,,,,,,,,,,,,,,,,,,,,,,,,,,,,,,,,,,,,,,,,,,,,,,,,,,,,,,,,,
,,,,8,1.878,,,,,,94,kitchen,microwave,,89309,001,2022-04-25_14h36.31.167,SPAMnetsValid,2021.1.4,MacIntel,60.0240096,,,,,,,,,,,,,8,1.878,0,59,59,58,1,,,,,,,,,,,,,,,,,,,,,,,,,,,,,,,,,,,,,,,,,,,,,,,,,,,,,,,,,,,,,,,,,,,,,,
,,,,7,1.92,,,,,,6,garden,onion,,89309,001,2022-04-25_14h36.31.167,SPAMnetsValid,2021.1.4,MacIntel,60.0240096,,,,,,,,,,,,,7,1.92,0,60,60,83,1,,,,,,,,,,,,,,,,,,,,,,,,,,,,,,,,,,,,,,,,,,,,,,,,,,,,,,,,,,,,,,,,,,,,,,
,,,,1,1.553,,,,,,11,refrigerator,tree,,89309,001,2022-04-25_14h36.31.167,SPAMnetsValid,2021.1.4,MacIntel,60.0240096,,,,,,,,,,,,,1,1.553,0,61,61,43,1,,,,,,,,,,,,,,,,,,,,,,,,,,,,,,,,,,,,,,,,,,,,,,,,,,,,,,,,,,,,,,,,,,,,,,
,,,,1,1.265,,,,,,85,cake,tree,,89309,001,2022-04-25_14h36.31.167,SPAMnetsValid,2021.1.4,MacIntel,60.0240096,,,,,,,,,,,,,1,1.265,0,62,62,18,1,,,,,,,,,,,,,,,,,,,,,,,,,,,,,,,,,,,,,,,,,,,,,,,,,,,,,,,,,,,,,,,,,,,,,,
,,,,6,1.656,,,,,,95,broom,refrigerator,,89309,001,2022-04-25_14h36.31.167,SPAMnetsValid,2021.1.4,MacIntel,60.0240096,,,,,,,,,,,,,6,1.656,0,63,63,90,1,,,,,,,,,,,,,,,,,,,,,,,,,,,,,,,,,,,,,,,,,,,,,,,,,,,,,,,,,,,,,,,,,,,,,,
,,,,3,1.506,,,,,,2,kitchen,onion,,89309,001,2022-04-25_14h36.31.167,SPAMnetsValid,2021.1.4,MacIntel,60.0240096,,,,,,,,,,,,,3,1.506,0,64,64,91,1,,,,,,,,,,,,,,,,,,,,,,,,,,,,,,,,,,,,,,,,,,,,,,,,,,,,,,,,,,,,,,,,,,,,,,
,,,,1,2.79,,,,,,65,broom,garden,,89309,001,2022-04-25_14h36.31.167,SPAMnetsValid,2021.1.4,MacIntel,60.0240096,,,,,,,,,,,,,1,2.79,0,65,65,23,1,,,,,,,,,,,,,,,,,,,,,,,,,,,,,,,,,,,,,,,,,,,,,,,,,,,,,,,,,,,,,,,,,,,,,,
,,,,2,8.146,,,,,,38,pretzel,refrigerator,,89309,001,2022-04-25_14h36.31.167,SPAMnetsValid,2021.1.4,MacIntel,60.0240096,,,,,,,,,,,,,2,8.146,0,66,66,71,1,,,,,,,,,,,,,,,,,,,,,,,,,,,,,,,,,,,,,,,,,,,,,,,,,,,,,,,,,,,,,,,,,,,,,,
,,,,1,2.341,,,,,,92,broom,flower,,89309,001,2022-04-25_14h36.31.167,SPAMnetsValid,2021.1.4,MacIntel,60.0240096,,,,,,,,,,,,,1,2.341,0,67,67,88,1,,,,,,,,,,,,,,,,,,,,,,,,,,,,,,,,,,,,,,,,,,,,,,,,,,,,,,,,,,,,,,,,,,,,,,
,,,,6,3.045,,,,,,49,flower,strawberry,,89309,001,2022-04-25_14h36.31.167,SPAMnetsValid,2021.1.4,MacIntel,60.0240096,,,,,,,,,,,,,6,3.045,0,68,68,3,1,,,,,,,,,,,,,,,,,,,,,,,,,,,,,,,,,,,,,,,,,,,,,,,,,,,,,,,,,,,,,,,,,,,,,,
,,,,2,1.98,,,,,,74,broom,pretzel,,89309,001,2022-04-25_14h36.31.167,SPAMnetsValid,2021.1.4,MacIntel,60.0240096,,,,,,,,,,,,,2,1.98,0,69,69,40,1,,,,,,,,,,,,,,,,,,,,,,,,,,,,,,,,,,,,,,,,,,,,,,,,,,,,,,,,,,,,,,,,,,,,,,
,,,,7,1.87,,,,,,63,cake,cookie,,89309,001,2022-04-25_14h36.31.167,SPAMnetsValid,2021.1.4,MacIntel,60.0240096,,,,,,,,,,,,,7,1.87,0,70,70,93,1,,,,,,,,,,,,,,,,,,,,,,,,,,,,,,,,,,,,,,,,,,,,,,,,,,,,,,,,,,,,,,,,,,,,,,
,,,,3,1.673,,,,,,24,cookie,tomato,,89309,001,2022-04-25_14h36.31.167,SPAMnetsValid,2021.1.4,MacIntel,60.0240096,,,,,,,,,,,,,3,1.673,0,71,71,68,1,,,,,,,,,,,,,,,,,,,,,,,,,,,,,,,,,,,,,,,,,,,,,,,,,,,,,,,,,,,,,,,,,,,,,,
,,,,8,1.71,,,,,,93,kitchen,oven,,89309,001,2022-04-25_14h36.31.167,SPAMnetsValid,2021.1.4,MacIntel,60.0240096,,,,,,,,,,,,,8,1.71,0,72,72,82,1,,,,,,,,,,,,,,,,,,,,,,,,,,,,,,,,,,,,,,,,,,,,,,,,,,,,,,,,,,,,,,,,,,,,,,
,,,,3,2.475,,,,,,40,broom,cake,,89309,001,2022-04-25_14h36.31.167,SPAMnetsValid,2021.1.4,MacIntel,60.0240096,,,,,,,,,,,,,3,2.475,0,73,73,32,1,,,,,,,,,,,,,,,,,,,,,,,,,,,,,,,,,,,,,,,,,,,,,,,,,,,,,,,,,,,,,,,,,,,,,,
,,,,3,7.948,,,,,,86,oven,rose,,89309,001,2022-04-25_14h36.31.167,SPAMnetsValid,2021.1.4,MacIntel,60.0240096,,,,,,,,,,,,,3,7.948,0,74,74,79,1,,,,,,,,,,,,,,,,,,,,,,,,,,,,,,,,,,,,,,,,,,,,,,,,,,,,,,,,,,,,,,,,,,,,,,
,,,,7,4.436,,,,,,25,carrot,onion,,89309,001,2022-04-25_14h36.31.167,SPAMnetsValid,2021.1.4,MacIntel,60.0240096,,,,,,,,,,,,,7,4.436,0,75,75,44,1,,,,,,,,,,,,,,,,,,,,,,,,,,,,,,,,,,,,,,,,,,,,,,,,,,,,,,,,,,,,,,,,,,,,,,
,,,,4,1.694,,,,,,77,refrigerator,yogurt,,89309,001,2022-04-25_14h36.31.167,SPAMnetsValid,2021.1.4,MacIntel,60.0240096,,,,,,,,,,,,,4,1.694,0,76,76,42,1,,,,,,,,,,,,,,,,,,,,,,,,,,,,,,,,,,,,,,,,,,,,,,,,,,,,,,,,,,,,,,,,,,,,,,
,,,,8,2.604,,,,,,47,onion,tomato,,89309,001,2022-04-25_14h36.31.167,SPAMnetsValid,2021.1.4,MacIntel,60.0240096,,,,,,,,,,,,,8,2.604,0,77,77,51,1,,,,,,,,,,,,,,,,,,,,,,,,,,,,,,,,,,,,,,,,,,,,,,,,,,,,,,,,,,,,,,,,,,,,,,
,,,,3,1.744,,,,,,16,chocolate,flower,,89309,001,2022-04-25_14h36.31.167,SPAMnetsValid,2021.1.4,MacIntel,60.0240096,,,,,,,,,,,,,3,1.744,0,78,78,22,1,,,,,,,,,,,,,,,,,,,,,,,,,,,,,,,,,,,,,,,,,,,,,,,,,,,,,,,,,,,,,,,,,,,,,,
,,,,2,2.78,,,,,,14,broom,cookie,,89309,001,2022-04-25_14h36.31.167,SPAMnetsValid,2021.1.4,MacIntel,60.0240096,,,,,,,,,,,,,2,2.78,0,79,79,16,1,,,,,,,,,,,,,,,,,,,,,,,,,,,,,,,,,,,,,,,,,,,,,,,,,,,,,,,,,,,,,,,,,,,,,,
,,,,1,1.238,,,,,,8,broom,melon,,89309,001,2022-04-25_14h36.31.167,SPAMnetsValid,2021.1.4,MacIntel,60.0240096,,,,,,,,,,,,,1,1.238,0,80,80,59,1,,,,,,,,,,,,,,,,,,,,,,,,,,,,,,,,,,,,,,,,,,,,,,,,,,,,,,,,,,,,,,,,,,,,,,
,,,,1,1.938,,,,,,41,broom,cactus,,89309,001,2022-04-25_14h36.31.167,SPAMnetsValid,2021.1.4,MacIntel,60.0240096,,,,,,,,,,,,,1,1.938,0,81,81,46,1,,,,,,,,,,,,,,,,,,,,,,,,,,,,,,,,,,,,,,,,,,,,,,,,,,,,,,,,,,,,,,,,,,,,,,
,,,,3,2.696,,,,,,89,chocolate,rose,,89309,001,2022-04-25_14h36.31.167,SPAMnetsValid,2021.1.4,MacIntel,60.0240096,,,,,,,,,,,,,3,2.696,0,82,82,60,1,,,,,,,,,,,,,,,,,,,,,,,,,,,,,,,,,,,,,,,,,,,,,,,,,,,,,,,,,,,,,,,,,,,,,,
,,,,1,1.354,,,,,,67,flower,yogurt,,89309,001,2022-04-25_14h36.31.167,SPAMnetsValid,2021.1.4,MacIntel,60.0240096,,,,,,,,,,,,,1,1.354,0,83,83,12,1,,,,,,,,,,,,,,,,,,,,,,,,,,,,,,,,,,,,,,,,,,,,,,,,,,,,,,,,,,,,,,,,,,,,,,
,,,,1,0.881,,,,,,48,flower,oven,,89309,001,2022-04-25_14h36.31.167,SPAMnetsValid,2021.1.4,MacIntel,60.0240096,,,,,,,,,,,,,1,0.881,0,84,84,15,1,,,,,,,,,,,,,,,,,,,,,,,,,,,,,,,,,,,,,,,,,,,,,,,,,,,,,,,,,,,,,,,,,,,,,,
,,,,8,2.364,,,,,,79,garden,strawberry,,89309,001,2022-04-25_14h36.31.167,SPAMnetsValid,2021.1.4,MacIntel,60.0240096,,,,,,,,,,,,,8,2.364,0,85,85,87,1,,,,,,,,,,,,,,,,,,,,,,,,,,,,,,,,,,,,,,,,,,,,,,,,,,,,,,,,,,,,,,,,,,,,,,
,,,,3,2.289,,,,,,33,oven,yogurt,,89309,001,2022-04-25_14h36.31.167,SPAMnetsValid,2021.1.4,MacIntel,60.0240096,,,,,,,,,,,,,3,2.289,0,86,86,31,1,,,,,,,,,,,,,,,,,,,,,,,,,,,,,,,,,,,,,,,,,,,,,,,,,,,,,,,,,,,,,,,,,,,,,,
,,,,9,1.398,,,,,,192,microwave,microwave,CHECK,89309,001,2022-04-25_14h36.31.167,SPAMnetsValid,2021.1.4,MacIntel,60.0240096,,,,,,,,,,,,,9,1.398,0,87,87,53,1,,,,,,,,,,,,,,,,,,,,,,,,,,,,,,,,,,,,,,,,,,,,,,,,,,,,,,,,,,,,,,,,,,,,,,
,,,,1,3.237,,,,,,91,microwave,rose,,89309,001,2022-04-25_14h36.31.167,SPAMnetsValid,2021.1.4,MacIntel,60.0240096,,,,,,,,,,,,,1,3.237,0,88,88,84,1,,,,,,,,,,,,,,,,,,,,,,,,,,,,,,,,,,,,,,,,,,,,,,,,,,,,,,,,,,,,,,,,,,,,,,
,,,,2,1.072,,,,,,54,chocolate,yogurt,,89309,001,2022-04-25_14h36.31.167,SPAMnetsValid,2021.1.4,MacIntel,60.0240096,,,,,,,,,,,,,2,1.072,0,89,89,67,1,,,,,,,,,,,,,,,,,,,,,,,,,,,,,,,,,,,,,,,,,,,,,,,,,,,,,,,,,,,,,,,,,,,,,,
,,,,3,1.788,,,,,,75,cookie,onion,,89309,001,2022-04-25_14h36.31.167,SPAMnetsValid,2021.1.4,MacIntel,60.0240096,,,,,,,,,,,,,3,1.788,0,90,90,9,1,,,,,,,,,,,,,,,,,,,,,,,,,,,,,,,,,,,,,,,,,,,,,,,,,,,,,,,,,,,,,,,,,,,,,,
,,,,2,1.705,,,,,,46,garden,yogurt,,89309,001,2022-04-25_14h36.31.167,SPAMnetsValid,2021.1.4,MacIntel,60.0240096,,,,,,,,,,,,,2,1.705,0,91,91,65,1,,,,,,,,,,,,,,,,,,,,,,,,,,,,,,,,,,,,,,,,,,,,,,,,,,,,,,,,,,,,,,,,,,,,,,
,,,,3,1.847,,,,,,87,carrot,yogurt,,89309,001,2022-04-25_14h36.31.167,SPAMnetsValid,2021.1.4,MacIntel,60.0240096,,,,,,,,,,,,,3,1.847,0,92,92,6,1,,,,,,,,,,,,,,,,,,,,,,,,,,,,,,,,,,,,,,,,,,,,,,,,,,,,,,,,,,,,,,,,,,,,,,
,,,,2,2.822,,,,,,42,garden,kitchen,,89309,001,2022-04-25_14h36.31.167,SPAMnetsValid,2021.1.4,MacIntel,60.0240096,,,,,,,,,,,,,2,2.822,0,93,93,29,1,,,,,,,,,,,,,,,,,,,,,,,,,,,,,,,,,,,,,,,,,,,,,,,,,,,,,,,,,,,,,,,,,,,,,,
,,,,7,2.255,,,,,,17,carrot,melon,,89309,001,2022-04-25_14h36.31.167,SPAMnetsValid,2021.1.4,MacIntel,60.0240096,,,,,,,,,,,,,7,2.255,0,94,94,24,1,,,,,,,,,,,,,,,,,,,,,,,,,,,,,,,,,,,,,,,,,,,,,,,,,,,,,,,,,,,,,,,,,,,,,,
,,,,1,2.463,,,,,,23,flower,microwave,,89309,001,2022-04-25_14h36.31.167,SPAMnetsValid,2021.1.4,MacIntel,60.0240096,,,,,,,,,,,,,1,2.463,0,95,95,25,1,,,,,,,,,,,,,,,,,,,,,,,,,,,,,,,,,,,,,,,,,,,,,,,,,,,,,,,,,,,,,,,,,,,,,,
,,,,3,1.447,,,,,,32,cake,microwave,,89309,001,2022-04-25_14h36.31.167,SPAMnetsValid,2021.1.4,MacIntel,60.0240096,,,,,,,,,,,,,3,1.447,0,96,96,33,1,,,,,,,,,,,,,,,,,,,,,,,,,,,,,,,,,,,,,,,,,,,,,,,,,,,,,,,,,,,,,,,,,,,,,,
,,,,,,,,,,,,,,,89309,001,2022-04-25_14h36.31.167,SPAMnetsValid,2021.1.4,MacIntel,60.0240096,,,,,,,,,,,,,,,,,,,,0,0,0,0,1,,,,,,,,,,,,,,,,,,,,,,,,,,,,,,,,,,,,,,,,,,,,,,,,,,,,,,,,,,,,,,,,,
,,,,,,,,,,,,,,,89309,001,2022-04-25_14h36.31.167,SPAMnetsValid,2021.1.4,MacIntel,60.0240096,,,,,,0,1,1,0,1,1,0,,,,,,,,,,,,,,,,,,,,,,,,,,,,,,,,,,,,,,,,,,,,,,,,,,,,,,,,,,,,,,,,,,,,,,,,,,,,,
,,,,,,,,,,,,,,,89309,001,2022-04-25_14h36.31.167,SPAMnetsValid,2021.1.4,MacIntel,60.0240096,,,,,,,,,,,,,,,,,,,,,,,,,2,4.003,0,0,0,0,1,rancor,forbearance,ridicule,malice,bravery,3,,,,,,,,,,,,,,,,,,,,,,,,,,,,,,,,,,,,,,,,,,,,,,,,,,,,
,,,,,,,,,,,,,,,89309,001,2022-04-25_14h36.31.167,SPAMnetsValid,2021.1.4,MacIntel,60.0240096,,,,,,,,,,,,,,,,,,,,,,,,,4,3.15,0,1,1,1,1,raucous,empty,quiet,smooth,harsh,4,,,,,,,,,,,,,,,,,,,,,,,,,,,,,,,,,,,,,,,,,,,,,,,,,,,,
,,,,,,,,,,,,,,,89309,001,2022-04-25_14h36.31.167,SPAMnetsValid,2021.1.4,MacIntel,60.0240096,,,,,,,,,,,,,,,,,,,,,,,,,3,5.445,0,2,2,2,1,gargoyle,oil,medicine,carved waterspout,ugly building,3,,,,,,,,,,,,,,,,,,,,,,,,,,,,,,,,,,,,,,,,,,,,,,,,,,,,
,,,,,,,,,,,,,,,89309,001,2022-04-25_14h36.31.167,SPAMnetsValid,2021.1.4,MacIntel,60.0240096,,,,,,,,,,,,,,,,,,,,,,,,,2,5.913,0,3,3,3,1,recrudesce,purify,renew activity,lack refinement,crush,2,,,,,,,,,,,,,,,,,,,,,,,,,,,,,,,,,,,,,,,,,,,,,,,,,,,,
,,,,,,,,,,,,,,,89309,001,2022-04-25_14h36.31.167,SPAMnetsValid,2021.1.4,MacIntel,60.0240096,,,,,,,,,,,,,,,,,,,,,,,,,1,3.416,0,4,4,4,1,specious,"plausible, but not genuine",noteworthy,class or variety,roomy,1,,,,,,,,,,,,,,,,,,,,,,,,,,,,,,,,,,,,,,,,,,,,,,,,,,,,
,,,,,,,,,,,,,,,89309,001,2022-04-25_14h36.31.167,SPAMnetsValid,2021.1.4,MacIntel,60.0240096,,,,,,,,,,,,,,,,,,,,,,,,,3,2.88,0,5,5,5,1,bauble,bubble,showy plaything,idle talk,confusion,2,,,,,,,,,,,,,,,,,,,,,,,,,,,,,,,,,,,,,,,,,,,,,,,,,,,,
,,,,,,,,,,,,,,,89309,001,2022-04-25_14h36.31.167,SPAMnetsValid,2021.1.4,MacIntel,60.0240096,,,,,,,,,,,,,,,,,,,,,,,,,2,1.895,0,6,6,6,1,prolific,scarce,producing abundantly,reckless,speaking profanely,2,,,,,,,,,,,,,,,,,,,,,,,,,,,,,,,,,,,,,,,,,,,,,,,,,,,,
,,,,,,,,,,,,,,,89309,001,2022-04-25_14h36.31.167,SPAMnetsValid,2021.1.4,MacIntel,60.0240096,,,,,,,,,,,,,,,,,,,,,,,,,2,2.722,0,7,7,7,1,opulent,party,wealthy,happy frame of mind,semiprecious stone,2,,,,,,,,,,,,,,,,,,,,,,,,,,,,,,,,,,,,,,,,,,,,,,,,,,,,
,,,,,,,,,,,,,,,89309,001,2022-04-25_14h36.31.167,SPAMnetsValid,2021.1.4,MacIntel,60.0240096,,,,,,,,,,,,,,,,,,,,,,,,,3,4.455,0,8,8,8,1,coercion,conspiracy,strategy,restraint,attraction,3,,,,,,,,,,,,,,,,,,,,,,,,,,,,,,,,,,,,,,,,,,,,,,,,,,,,
,,,,,,,,,,,,,,,89309,001,2022-04-25_14h36.31.167,SPAMnetsValid,2021.1.4,MacIntel,60.0240096,,,,,,,,,,,,,,,,,,,,,,,,,4,2.358,0,9,9,9,1,hiatus,animal,calamity,dread,gap,4,,,,,,,,,,,,,,,,,,,,,,,,,,,,,,,,,,,,,,,,,,,,,,,,,,,,
,,,,,,,,,,,,,,,89309,001,2022-04-25_14h36.31.167,SPAMnetsValid,2021.1.4,MacIntel,60.0240096,,,,,,,,,,,,,,,,,,,,,,,,,3,6.754,0,10,10,10,1,germane,microbe,contagious,relevant,different,3,,,,,,,,,,,,,,,,,,,,,,,,,,,,,,,,,,,,,,,,,,,,,,,,,,,,
,,,,,,,,,,,,,,,89309,001,2022-04-25_14h36.31.167,SPAMnetsValid,2021.1.4,MacIntel,60.0240096,,,,,,,,,,,,,,,,,,,,,,,,,1,3.955,0,11,11,11,1,perfunctory,fundamental,formal,superficial,careful,3,,,,,,,,,,,,,,,,,,,,,,,,,,,,,,,,,,,,,,,,,,,,,,,,,,,,
,,,,,,,,,,,,,,,89309,001,2022-04-25_14h36.31.167,SPAMnetsValid,2021.1.4,MacIntel,60.0240096,,,,,,,,,,,,,,,,,,,,,,,,,4,2.648,0,12,12,12,1,diverge,reveal,chant,distract the attention of,differ or turn off from,4,,,,,,,,,,,,,,,,,,,,,,,,,,,,,,,,,,,,,,,,,,,,,,,,,,,,
,,,,,,,,,,,,,,,89309,001,2022-04-25_14h36.31.167,SPAMnetsValid,2021.1.4,MacIntel,60.0240096,,,,,,,,,,,,,,,,,,,,,,,,,4,2.358,0,13,13,13,1,evoke,take away,anger,connect,bring out,4,,,,,,,,,,,,,,,,,,,,,,,,,,,,,,,,,,,,,,,,,,,,,,,,,,,,
,,,,,,,,,,,,,,,89309,001,2022-04-25_14h36.31.167,SPAMnetsValid,2021.1.4,MacIntel,60.0240096,,,,,,,,,,,,,,,,,,,,,,,,,1,9.279,0,14,14,14,1,pertinent,relevant,lying next to,necessary,bold,1,,,,,,,,,,,,,,,,,,,,,,,,,,,,,,,,,,,,,,,,,,,,,,,,,,,,
,,,,,,,,,,,,,,,89309,001,2022-04-25_14h36.31.167,SPAMnetsValid,2021.1.4,MacIntel,60.0240096,,,,,,,,,,,,,,,,,,,,,,,,,2,4.855,0,15,15,15,1,holocaust,entirety,destruction,saintly,price,2,,,,,,,,,,,,,,,,,,,,,,,,,,,,,,,,,,,,,,,,,,,,,,,,,,,,
,,,,,,,,,,,,,,,89309,001,2022-04-25_14h36.31.167,SPAMnetsValid,2021.1.4,MacIntel,60.0240096,,,,,,,,,,,,,,,,,,,,,,,,,3,5.04,0,16,16,16,1,piquant,mellow,fish,pungent,cloth,3,,,,,,,,,,,,,,,,,,,,,,,,,,,,,,,,,,,,,,,,,,,,,,,,,,,,
,,,,,,,,,,,,,,,89309,001,2022-04-25_14h36.31.167,SPAMnetsValid,2021.1.4,MacIntel,60.0240096,,,,,,,,,,,,,,,,,,,,,,,,,1,2.907,0,17,17,17,1,firmament,foundation,heavens,strong,glue,2,,,,,,,,,,,,,,,,,,,,,,,,,,,,,,,,,,,,,,,,,,,,,,,,,,,,
,,,,,,,,,,,,,,,89309,001,2022-04-25_14h36.31.167,SPAMnetsValid,2021.1.4,MacIntel,60.0240096,,,,,,,,,,,,,,,,,,,,,,,,,,,,,,,,,,,,,,4,2.27,0,0,0,0,1,marketable,partisan,jocular,marriageable,salable,essential,4,,,,,,,,,,,,,,,,,,,,,,,,,,,,,,,,,,,,,,
,,,,,,,,,,,,,,,89309,001,2022-04-25_14h36.31.167,SPAMnetsValid,2021.1.4,MacIntel,60.0240096,,,,,,,,,,,,,,,,,,,,,,,,,,,,,,,,,,,,,,5,2.454,0,1,1,1,1,cottontail,squirrel,poplar,boa,marshy plant,rabbit,5,,,,,,,,,,,,,,,,,,,,,,,,,,,,,,,,,,,,,,
,,,,,,,,,,,,,,,89309,001,2022-04-25_14h36.31.167,SPAMnetsValid,2021.1.4,MacIntel,60.0240096,,,,,,,,,,,,,,,,,,,,,,,,,,,,,,,,,,,,,,3,1.855,0,2,2,2,1,boggy,afraid,false,marshy,dense,black,3,,,,,,,,,,,,,,,,,,,,,,,,,,,,,,,,,,,,,,
,,,,,,,,,,,,,,,89309,001,2022-04-25_14h36.31.167,SPAMnetsValid,2021.1.4,MacIntel,60.0240096,,,,,,,,,,,,,,,,,,,,,,,,,,,,,,,,,,,,,,5,8.622,0,3,3,3,1,gruesomeness,blackness,falseness,vindictiveness,drunkenness,ghastliness,5,,,,,,,,,,,,,,,,,,,,,,,,,,,,,,,,,,,,,,
,,,,,,,,,,,,,,,89309,001,2022-04-25_14h36.31.167,SPAMnetsValid,2021.1.4,MacIntel,60.0240096,,,,,,,,,,,,,,,,,,,,,,,,,,,,,,,,,,,,,,3,1.758,0,4,4,4,1,loathing,diffidence,laziness,abhorrence,cleverness,comfort,3,,,,,,,,,,,,,,,,,,,,,,,,,,,,,,,,,,,,,,
,,,,,,,,,,,,,,,89309,001,2022-04-25_14h36.31.167,SPAMnetsValid,2021.1.4,MacIntel,60.0240096,,,,,,,,,,,,,,,,,,,,,,,,,,,,,,,,,,,,,,2,4.054,0,5,5,5,1,bantam,fowl,ridicule,cripple,vegetable,ensign,1,,,,,,,,,,,,,,,,,,,,,,,,,,,,,,,,,,,,,,
,,,,,,,,,,,,,,,89309,001,2022-04-25_14h36.31.167,SPAMnetsValid,2021.1.4,MacIntel,60.0240096,,,,,,,,,,,,,,,,,,,,,,,,,,,,,,,,,,,,,,5,2.348,0,6,6,6,1,evoke,wake up,surrender,reconnoiter,transcend,call forth,5,,,,,,,,,,,,,,,,,,,,,,,,,,,,,,,,,,,,,,
,,,,,,,,,,,,,,,89309,001,2022-04-25_14h36.31.167,SPAMnetsValid,2021.1.4,MacIntel,60.0240096,,,,,,,,,,,,,,,,,,,,,,,,,,,,,,,,,,,,,,5,2.429,0,7,7,7,1,unobtrusive,unintelligent,epileptic,illogical,lineal,modest,5,,,,,,,,,,,,,,,,,,,,,,,,,,,,,,,,,,,,,,
,,,,,,,,,,,,,,,89309,001,2022-04-25_14h36.31.167,SPAMnetsValid,2021.1.4,MacIntel,60.0240096,,,,,,,,,,,,,,,,,,,,,,,,,,,,,,,,,,,,,,4,3.311,0,8,8,8,1,terrain,ice cream,final test,tractor,area of ground,weight,4,,,,,,,,,,,,,,,,,,,,,,,,,,,,,,,,,,,,,,
,,,,,,,,,,,,,,,89309,001,2022-04-25_14h36.31.167,SPAMnetsValid,2021.1.4,MacIntel,60.0240096,,,,,,,,,,,,,,,,,,,,,,,,,,,,,,,,,,,,,,3,2.39,0,9,9,9,1,capriciousness,stubbornness,courage,whimsicality,amazement,greediness,3,,,,,,,,,,,,,,,,,,,,,,,,,,,,,,,,,,,,,,
,,,,,,,,,,,,,,,89309,001,2022-04-25_14h36.31.167,SPAMnetsValid,2021.1.4,MacIntel,60.0240096,,,,,,,,,,,,,,,,,,,,,,,,,,,,,,,,,,,,,,2,2.057,0,10,10,10,1,maelstrom,slander,whirlpool,enmity,armor,majolica,2,,,,,,,,,,,,,,,,,,,,,,,,,,,,,,,,,,,,,,
,,,,,,,,,,,,,,,89309,001,2022-04-25_14h36.31.167,SPAMnetsValid,2021.1.4,MacIntel,60.0240096,,,,,,,,,,,,,,,,,,,,,,,,,,,,,,,,,,,,,,5,3.656,0,11,11,11,1,tentative,critical,conclusive,authentic,provisional,apprehensive,4,,,,,,,,,,,,,,,,,,,,,,,,,,,,,,,,,,,,,,
,,,,,,,,,,,,,,,89309,001,2022-04-25_14h36.31.167,SPAMnetsValid,2021.1.4,MacIntel,60.0240096,,,,,,,,,,,,,,,,,,,,,,,,,,,,,,,,,,,,,,5,3.997,0,12,12,12,1,placate,rehabilitate,plagiarize,depredate,apprise,conciliate,5,,,,,,,,,,,,,,,,,,,,,,,,,,,,,,,,,,,,,,
,,,,,,,,,,,,,,,89309,001,2022-04-25_14h36.31.167,SPAMnetsValid,2021.1.4,MacIntel,60.0240096,,,,,,,,,,,,,,,,,,,,,,,,,,,,,,,,,,,,,,2,4.989,0,13,13,13,1,surcease,enlightenment,cessation,inattention,censor,substitution,2,,,,,,,,,,,,,,,,,,,,,,,,,,,,,,,,,,,,,,
,,,,,,,,,,,,,,,89309,001,2022-04-25_14h36.31.167,SPAMnetsValid,2021.1.4,MacIntel,60.0240096,,,,,,,,,,,,,,,,,,,,,,,,,,,,,,,,,,,,,,2,3.089,0,14,14,14,1,apathetic,wandering,impassive,hateful,prophetic,overflowing,2,,,,,,,,,,,,,,,,,,,,,,,,,,,,,,,,,,,,,,
,,,,,,,,,,,,,,,89309,001,2022-04-25_14h36.31.167,SPAMnetsValid,2021.1.4,MacIntel,60.0240096,,,,,,,,,,,,,,,,,,,,,,,,,,,,,,,,,,,,,,1,10.372,0,15,15,15,1,paternoster,paternalism,patricide,malediction,benediction,prayer,5,,,,,,,,,,,,,,,,,,,,,,,,,,,,,,,,,,,,,,
,,,,,,,,,,,,,,,89309,001,2022-04-25_14h36.31.167,SPAMnetsValid,2021.1.4,MacIntel,60.0240096,,,,,,,,,,,,,,,,,,,,,,,,,,,,,,,,,,,,,,4,4.277,0,16,16,16,1,opalescence,opulence,senescence,bankruptcy,iridescence,assiduity,4,,,,,,,,,,,,,,,,,,,,,,,,,,,,,,,,,,,,,,
,,,,,,,,,,,,,,,89309,001,2022-04-25_14h36.31.167,SPAMnetsValid,2021.1.4,MacIntel,60.0240096,,,,,,,,,,,,,,,,,,,,,,,,,,,,,,,,,,,,,,2,1.653,0,17,17,17,1,lush,stupid,luxurious,hazy,putrid,languishing,2,,,,,,,,,,,,,,,,,,,,,,,,,,,,,,,,,,,,,,
,,,,,,,,,,,,,,,89309,001,2022-04-25_14h36.31.167,SPAMnetsValid,2021.1.4,MacIntel,60.0240096,,,,,,,,,,,,,,,,,,,,,,,,,,,,,,,,,,,,,,3,5.473,0,18,18,18,1,curtailment,expenditure,abandonment,abridgment,improvement,forgery,3,,,,,,,,,,,,,,,,,,,,,,,,,,,,,,,,,,,,,,
,,,,,,,,,,,,,,,89309,001,2022-04-25_14h36.31.167,SPAMnetsValid,2021.1.4,MacIntel,60.0240096,,,,,,,,,,,,,,,,,,,,,,,,,,,,,,,,,,,,,,3,4.25,0,19,19,19,1,perversity,adversity,perviousness,travesty,waywardness,gentility,4,,,,,,,,,,,,,,,,,,,,,,,,,,,,,,,,,,,,,,
,,,,,,,,,,,,,,,89309,001,2022-04-25_14h36.31.167,SPAMnetsValid,2021.1.4,MacIntel,60.0240096,,,,,,,,,,,,,,,,,,,,,,,,,,,,,,,,,,,,,,4,7.722,0,20,20,20,1,calumnious,complimentary,analogous,slanderous,tempestuous,magnanimous,3,,,,,,,,,,,,,,,,,,,,,,,,,,,,,,,,,,,,,,
,,,,,,,,,,,,,,,89309,001,2022-04-25_14h36.31.167,SPAMnetsValid,2021.1.4,MacIntel,60.0240096,,,,,,,,,,,,,,,,,,,,,,,,,,,,,,,,,,,,,,1,6.595,0,21,21,21,1,illiberality,bigotry,imbecility,illegibility,cautery,immaturity,1,,,,,,,,,,,,,,,,,,,,,,,,,,,,,,,,,,,,,,
,,,,,,,,,,,,,,,89309,001,2022-04-25_14h36.31.167,SPAMnetsValid,2021.1.4,MacIntel,60.0240096,,,,,,,,,,,,,,,,,,,,,,,,,,,,,,,,,,,,,,2,3.089,0,22,22,22,1,clabber,rejoice,gossip,curdle,crow,hobble,3,,,,,,,,,,,,,,,,,,,,,,,,,,,,,,,,,,,,,,
,,,,,,,,,,,,,,,89309,001,2022-04-25_14h36.31.167,SPAMnetsValid,2021.1.4,MacIntel,60.0240096,,,,,,,,,,,,,,,,,,,,,,,,,,,,,,,,,,,,,,4,6.381,0,23,23,23,1,sedulousness,diligence,credulousness,seduction,perilousness,frankness,1,,,,,,,,,,,,,,,,,,,,,,,,,,,,,,,,,,,,,,
,,,,,,,,,,,,,,,89309,001,2022-04-25_14h36.31.167,SPAMnetsValid,2021.1.4,MacIntel,60.0240096,,,,,,,,,,,,,,,,,,,,,,,,,,,,,,,,,,,,,,,,,,,,,,,,,,,,cook food,candle,0,0,0,0,1,,,,,,,,,,,,,,,,,,,,,,,,,,,,,,,
,,,,,,,,,,,,,,,89309,001,2022-04-25_14h36.31.167,SPAMnetsValid,2021.1.4,MacIntel,60.0240096,,,,,,,,,,,,,,,,,,,,,,,,,,,,,,,,,,,,,,,,,,,,,,,,,,,,to use as a writing apparatus,candle,1,0,1,0,1,,,,,,,,,,,,,,,,,,,,,,,,,,,,,,,
,,,,,,,,,,,,,,,89309,001,2022-04-25_14h36.31.167,SPAMnetsValid,2021.1.4,MacIntel,60.0240096,,,,,,,,,,,,,,,,,,,,,,,,,,,,,,,,,,,,,,,,,,,,,,,,,,,,to use to make tattoos or markings,candle,2,0,2,0,1,,,,,,,,,,,,,,,,,,,,,,,,,,,,,,,
,,,,,,,,,,,,,,,89309,001,2022-04-25_14h36.31.167,SPAMnetsValid,2021.1.4,MacIntel,60.0240096,,,,,,,,,,,,,,,,,,,,,,,,,,,,,,,,,,,,,,,,,,,,,,,,,,,,to use the wax as armor,candle,3,0,3,0,1,,,,,,,,,,,,,,,,,,,,,,,,,,,,,,,
,,,,,,,,,,,,,,,89309,001,2022-04-25_14h36.31.167,SPAMnetsValid,2021.1.4,MacIntel,60.0240096,,,,,,,,,,,,,,,,,,,,,,,,,,,,,,,,,,,,,,,,,,,,,,,,,,,,to use the wick to clean cobwebs,candle,4,0,4,0,1,,,,,,,,,,,,,,,,,,,,,,,,,,,,,,,
,,,,,,,,,,,,,,,89309,001,2022-04-25_14h36.31.167,SPAMnetsValid,2021.1.4,MacIntel,60.0240096,,,,,,,,,,,,,,,,,,,,,,,,,,,,,,,,,,,,,,,,,,,,,,,,,,,,the glass component can be smashed to make music,candle,5,0,5,0,1,,,,,,,,,,,,,,,,,,,,,,,,,,,,,,,
,,,,,,,,,,,,,,,89309,001,2022-04-25_14h36.31.167,SPAMnetsValid,2021.1.4,MacIntel,60.0240096,,,,,,,,,,,,,,,,,,,,,,,,,,,,,,,,,,,,,,,,,,,,,,,,,,,,the wax can be melted and stuck on the bottom of someone's shoes to make it slide,candle,6,0,6,0,1,,,,,,,,,,,,,,,,,,,,,,,,,,,,,,,
,,,,,,,,,,,,,,,89309,001,2022-04-25_14h36.31.167,SPAMnetsValid,2021.1.4,MacIntel,60.0240096,,,,,,,,,,,,,,,,,,,,,,,,,,,,,,,,,,,,,,,,,,,,,,,,,,,,,,,,,,,0,0,0,1,1,candle,,,,,,,,,,,,,,,,,,,,,,,,,
,,,,,,,,,,,,,,,89309,001,2022-04-25_14h36.31.167,SPAMnetsValid,2021.1.4,MacIntel,60.0240096,,,,,,,,,,,,,,,,,,,,,,,,,,,,,,,,,,,,,,,,,,,,,,,,,,,,use as a hat,bucket,0,0,0,0,1,,,,,,,,,,,,,,,,,,,,,,,,,,,,,,,
,,,,,,,,,,,,,,,89309,001,2022-04-25_14h36.31.167,SPAMnetsValid,2021.1.4,MacIntel,60.0240096,,,,,,,,,,,,,,,,,,,,,,,,,,,,,,,,,,,,,,,,,,,,,,,,,,,,use as a spare toilet,bucket,1,0,1,0,1,,,,,,,,,,,,,,,,,,,,,,,,,,,,,,,
,,,,,,,,,,,,,,,89309,001,2022-04-25_14h36.31.167,SPAMnetsValid,2021.1.4,MacIntel,60.0240096,,,,,,,,,,,,,,,,,,,,,,,,,,,,,,,,,,,,,,,,,,,,,,,,,,,,flip the bucket over and use as an instrument,bucket,2,0,2,0,1,,,,,,,,,,,,,,,,,,,,,,,,,,,,,,,
,,,,,,,,,,,,,,,89309,001,2022-04-25_14h36.31.167,SPAMnetsValid,2021.1.4,MacIntel,60.0240096,,,,,,,,,,,,,,,,,,,,,,,,,,,,,,,,,,,,,,,,,,,,,,,,,,,,"put your pet in the bucket and with a string, use as an elevator",bucket,3,0,3,0,1,,,,,,,,,,,,,,,,,,,,,,,,,,,,,,,
,,,,,,,,,,,,,,,89309,001,2022-04-25_14h36.31.167,SPAMnetsValid,2021.1.4,MacIntel,60.0240096,,,,,,,,,,,,,,,,,,,,,,,,,,,,,,,,,,,,,,,,,,,,,,,,,,,,use buckets as boxing gloves,bucket,4,0,4,0,1,,,,,,,,,,,,,,,,,,,,,,,,,,,,,,,
,,,,,,,,,,,,,,,89309,001,2022-04-25_14h36.31.167,SPAMnetsValid,2021.1.4,MacIntel,60.0240096,,,,,,,,,,,,,,,,,,,,,,,,,,,,,,,,,,,,,,,,,,,,,,,,,,,,use the bucket as a bell,bucket,5,0,5,0,1,,,,,,,,,,,,,,,,,,,,,,,,,,,,,,,
,,,,,,,,,,,,,,,89309,001,2022-04-25_14h36.31.167,SPAMnetsValid,2021.1.4,MacIntel,60.0240096,,,,,,,,,,,,,,,,,,,,,,,,,,,,,,,,,,,,,,,,,,,,,,,,,,,,,,,,,,,0,1,1,0,1,bucket,,,,,,,,,,,,,,,,,,,,,,,,,
,,,,,,,,,,,,,,,89309,001,2022-04-25_14h36.31.167,SPAMnetsValid,2021.1.4,MacIntel,60.0240096,,,,,,,,,,,,,,,,,,,,,,,,,,,,,,,,,,,,,,,,,,,,,,,,,,,,punching bag,pillow,0,0,0,0,1,,,,,,,,,,,,,,,,,,,,,,,,,,,,,,,
,,,,,,,,,,,,,,,89309,001,2022-04-25_14h36.31.167,SPAMnetsValid,2021.1.4,MacIntel,60.0240096,,,,,,,,,,,,,,,,,,,,,,,,,,,,,,,,,,,,,,,,,,,,,,,,,,,,sled,pillow,1,0,1,0,1,,,,,,,,,,,,,,,,,,,,,,,,,,,,,,,
,,,,,,,,,,,,,,,89309,001,2022-04-25_14h36.31.167,SPAMnetsValid,2021.1.4,MacIntel,60.0240096,,,,,,,,,,,,,,,,,,,,,,,,,,,,,,,,,,,,,,,,,,,,,,,,,,,,cut open pillow and use as clothing,pillow,2,0,2,0,1,,,,,,,,,,,,,,,,,,,,,,,,,,,,,,,
,,,,,,,,,,,,,,,89309,001,2022-04-25_14h36.31.167,SPAMnetsValid,2021.1.4,MacIntel,60.0240096,,,,,,,,,,,,,,,,,,,,,,,,,,,,,,,,,,,,,,,,,,,,,,,,,,,,use as armor,pillow,3,0,3,0,1,,,,,,,,,,,,,,,,,,,,,,,,,,,,,,,
,,,,,,,,,,,,,,,89309,001,2022-04-25_14h36.31.167,SPAMnetsValid,2021.1.4,MacIntel,60.0240096,,,,,,,,,,,,,,,,,,,,,,,,,,,,,,,,,,,,,,,,,,,,,,,,,,,,empty pillow of stuffing and use as backpack,pillow,4,0,4,0,1,,,,,,,,,,,,,,,,,,,,,,,,,,,,,,,
,,,,,,,,,,,,,,,89309,001,2022-04-25_14h36.31.167,SPAMnetsValid,2021.1.4,MacIntel,60.0240096,,,,,,,,,,,,,,,,,,,,,,,,,,,,,,,,,,,,,,,,,,,,,,,,,,,,use stuffing in pillow as fake snow for decor,pillow,5,0,5,0,1,,,,,,,,,,,,,,,,,,,,,,,,,,,,,,,
,,,,,,,,,,,,,,,89309,001,2022-04-25_14h36.31.167,SPAMnetsValid,2021.1.4,MacIntel,60.0240096,,,,,,,,,,,,,,,,,,,,,,,,,,,,,,,,,,,,,,,,,,,,,,,,,,,,pin cushion,pillow,6,0,6,0,1,,,,,,,,,,,,,,,,,,,,,,,,,,,,,,,
,,,,,,,,,,,,,,,89309,001,2022-04-25_14h36.31.167,SPAMnetsValid,2021.1.4,MacIntel,60.0240096,,,,,,,,,,,,,,,,,,,,,,,,,,,,,,,,,,,,,,,,,,,,,,,,,,,,,,,,,,,0,2,2,2,1,pillow,,,,,,,,,,,,,,,,,,,,,,,,,
,,,,,,,,,,,,,,,89309,001,2022-04-25_14h36.31.167,SPAMnetsValid,2021.1.4,MacIntel,60.0240096,,,,,,,,,,,,,,,,,,,,,,,,,,,,,,,,,,,,,,,,,,,,,,,,,,,,,,,,,,,,,,,,,,Animals,0,0,0,0,1,,,,,,,,,,,,,,,,,,
,,,,,,,,,,,,,,,89309,001,2022-04-25_14h36.31.167,SPAMnetsValid,2021.1.4,MacIntel,60.0240096,,,,,,,,,,,,,,,,,,,,,,,,,,,,,,,,,,,,,,,,,,,,,,,,,,,,,,,,,,,,,,,,,cat,Animals,1,0,1,0,1,,,,,,,,,,,,,,,,,,
,,,,,,,,,,,,,,,89309,001,2022-04-25_14h36.31.167,SPAMnetsValid,2021.1.4,MacIntel,60.0240096,,,,,,,,,,,,,,,,,,,,,,,,,,,,,,,,,,,,,,,,,,,,,,,,,,,,,,,,,,,,,,,,,dog,Animals,2,0,2,0,1,,,,,,,,,,,,,,,,,,
,,,,,,,,,,,,,,,89309,001,2022-04-25_14h36.31.167,SPAMnetsValid,2021.1.4,MacIntel,60.0240096,,,,,,,,,,,,,,,,,,,,,,,,,,,,,,,,,,,,,,,,,,,,,,,,,,,,,,,,,,,,,,,,,squirrel,Animals,3,0,3,0,1,,,,,,,,,,,,,,,,,,
,,,,,,,,,,,,,,,89309,001,2022-04-25_14h36.31.167,SPAMnetsValid,2021.1.4,MacIntel,60.0240096,,,,,,,,,,,,,,,,,,,,,,,,,,,,,,,,,,,,,,,,,,,,,,,,,,,,,,,,,,,,,,,,,bird,Animals,4,0,4,0,1,,,,,,,,,,,,,,,,,,
,,,,,,,,,,,,,,,89309,001,2022-04-25_14h36.31.167,SPAMnetsValid,2021.1.4,MacIntel,60.0240096,,,,,,,,,,,,,,,,,,,,,,,,,,,,,,,,,,,,,,,,,,,,,,,,,,,,,,,,,,,,,,,,,starfish,Animals,5,0,5,0,1,,,,,,,,,,,,,,,,,,
,,,,,,,,,,,,,,,89309,001,2022-04-25_14h36.31.167,SPAMnetsValid,2021.1.4,MacIntel,60.0240096,,,,,,,,,,,,,,,,,,,,,,,,,,,,,,,,,,,,,,,,,,,,,,,,,,,,,,,,,,,,,,,,,koala,Animals,6,0,6,0,1,,,,,,,,,,,,,,,,,,
,,,,,,,,,,,,,,,89309,001,2022-04-25_14h36.31.167,SPAMnetsValid,2021.1.4,MacIntel,60.0240096,,,,,,,,,,,,,,,,,,,,,,,,,,,,,,,,,,,,,,,,,,,,,,,,,,,,,,,,,,,,,,,,,kangaroo,Animals,7,0,7,0,1,,,,,,,,,,,,,,,,,,
,,,,,,,,,,,,,,,89309,001,2022-04-25_14h36.31.167,SPAMnetsValid,2021.1.4,MacIntel,60.0240096,,,,,,,,,,,,,,,,,,,,,,,,,,,,,,,,,,,,,,,,,,,,,,,,,,,,,,,,,,,,,,,,,spider,Animals,8,0,8,0,1,,,,,,,,,,,,,,,,,,
,,,,,,,,,,,,,,,89309,001,2022-04-25_14h36.31.167,SPAMnetsValid,2021.1.4,MacIntel,60.0240096,,,,,,,,,,,,,,,,,,,,,,,,,,,,,,,,,,,,,,,,,,,,,,,,,,,,,,,,,,,,,,,,,tarantula,Animals,9,0,9,0,1,,,,,,,,,,,,,,,,,,
,,,,,,,,,,,,,,,89309,001,2022-04-25_14h36.31.167,SPAMnetsValid,2021.1.4,MacIntel,60.0240096,,,,,,,,,,,,,,,,,,,,,,,,,,,,,,,,,,,,,,,,,,,,,,,,,,,,,,,,,,,,,,,,,penguin,Animals,10,0,10,0,1,,,,,,,,,,,,,,,,,,
,,,,,,,,,,,,,,,89309,001,2022-04-25_14h36.31.167,SPAMnetsValid,2021.1.4,MacIntel,60.0240096,,,,,,,,,,,,,,,,,,,,,,,,,,,,,,,,,,,,,,,,,,,,,,,,,,,,,,,,,,,,,,,,,polar bear,Animals,11,0,11,0,1,,,,,,,,,,,,,,,,,,
,,,,,,,,,,,,,,,89309,001,2022-04-25_14h36.31.167,SPAMnetsValid,2021.1.4,MacIntel,60.0240096,,,,,,,,,,,,,,,,,,,,,,,,,,,,,,,,,,,,,,,,,,,,,,,,,,,,,,,,,,,,,,,,,seal,Animals,12,0,12,0,1,,,,,,,,,,,,,,,,,,
,,,,,,,,,,,,,,,89309,001,2022-04-25_14h36.31.167,SPAMnetsValid,2021.1.4,MacIntel,60.0240096,,,,,,,,,,,,,,,,,,,,,,,,,,,,,,,,,,,,,,,,,,,,,,,,,,,,,,,,,,,,,,,,,walrus,Animals,13,0,13,0,1,,,,,,,,,,,,,,,,,,
,,,,,,,,,,,,,,,89309,001,2022-04-25_14h36.31.167,SPAMnetsValid,2021.1.4,MacIntel,60.0240096,,,,,,,,,,,,,,,,,,,,,,,,,,,,,,,,,,,,,,,,,,,,,,,,,,,,,,,,,,,,,,,,,orca,Animals,14,0,14,0,1,,,,,,,,,,,,,,,,,,
,,,,,,,,,,,,,,,89309,001,2022-04-25_14h36.31.167,SPAMnetsValid,2021.1.4,MacIntel,60.0240096,,,,,,,,,,,,,,,,,,,,,,,,,,,,,,,,,,,,,,,,,,,,,,,,,,,,,,,,,,,,,,,,,dolphin,Animals,15,0,15,0,1,,,,,,,,,,,,,,,,,,
,,,,,,,,,,,,,,,89309,001,2022-04-25_14h36.31.167,SPAMnetsValid,2021.1.4,MacIntel,60.0240096,,,,,,,,,,,,,,,,,,,,,,,,,,,,,,,,,,,,,,,,,,,,,,,,,,,,,,,,,,,,,,,,,whale,Animals,16,0,16,0,1,,,,,,,,,,,,,,,,,,
,,,,,,,,,,,,,,,89309,001,2022-04-25_14h36.31.167,SPAMnetsValid,2021.1.4,MacIntel,60.0240096,,,,,,,,,,,,,,,,,,,,,,,,,,,,,,,,,,,,,,,,,,,,,,,,,,,,,,,,,,,,,,,,,flatworm,Animals,17,0,17,0,1,,,,,,,,,,,,,,,,,,
,,,,,,,,,,,,,,,89309,001,2022-04-25_14h36.31.167,SPAMnetsValid,2021.1.4,MacIntel,60.0240096,,,,,,,,,,,,,,,,,,,,,,,,,,,,,,,,,,,,,,,,,,,,,,,,,,,,,,,,,,,,,,,,,roundworm,Animals,18,0,18,0,1,,,,,,,,,,,,,,,,,,
,,,,,,,,,,,,,,,89309,001,2022-04-25_14h36.31.167,SPAMnetsValid,2021.1.4,MacIntel,60.0240096,,,,,,,,,,,,,,,,,,,,,,,,,,,,,,,,,,,,,,,,,,,,,,,,,,,,,,,,,,,,,,,,,ring worm,Animals,19,0,19,0,1,,,,,,,,,,,,,,,,,,
,,,,,,,,,,,,,,,89309,001,2022-04-25_14h36.31.167,SPAMnetsValid,2021.1.4,MacIntel,60.0240096,,,,,,,,,,,,,,,,,,,,,,,,,,,,,,,,,,,,,,,,,,,,,,,,,,,,,,,,,,,,,,,,,tapeworm,Animals,20,0,20,0,1,,,,,,,,,,,,,,,,,,
,,,,,,,,,,,,,,,89309,001,2022-04-25_14h36.31.167,SPAMnetsValid,2021.1.4,MacIntel,60.0240096,,,,,,,,,,,,,,,,,,,,,,,,,,,,,,,,,,,,,,,,,,,,,,,,,,,,,,,,,,,,,,,,,crab,Animals,21,0,21,0,1,,,,,,,,,,,,,,,,,,
,,,,,,,,,,,,,,,89309,001,2022-04-25_14h36.31.167,SPAMnetsValid,2021.1.4,MacIntel,60.0240096,,,,,,,,,,,,,,,,,,,,,,,,,,,,,,,,,,,,,,,,,,,,,,,,,,,,,,,,,,,,,,,,,lobster,Animals,22,0,22,0,1,,,,,,,,,,,,,,,,,,
,,,,,,,,,,,,,,,89309,001,2022-04-25_14h36.31.167,SPAMnetsValid,2021.1.4,MacIntel,60.0240096,,,,,,,,,,,,,,,,,,,,,,,,,,,,,,,,,,,,,,,,,,,,,,,,,,,,,,,,,,,,,,,,,shrimp,Animals,23,0,23,0,1,,,,,,,,,,,,,,,,,,
,,,,,,,,,,,,,,,89309,001,2022-04-25_14h36.31.167,SPAMnetsValid,2021.1.4,MacIntel,60.0240096,,,,,,,,,,,,,,,,,,,,,,,,,,,,,,,,,,,,,,,,,,,,,,,,,,,,,,,,,,,,,,,,,sparrow,Animals,24,0,24,0,1,,,,,,,,,,,,,,,,,,
,,,,,,,,,,,,,,,89309,001,2022-04-25_14h36.31.167,SPAMnetsValid,2021.1.4,MacIntel,60.0240096,,,,,,,,,,,,,,,,,,,,,,,,,,,,,,,,,,,,,,,,,,,,,,,,,,,,,,,,,,,,,,,,,raven,Animals,25,0,25,0,1,,,,,,,,,,,,,,,,,,
,,,,,,,,,,,,,,,89309,001,2022-04-25_14h36.31.167,SPAMnetsValid,2021.1.4,MacIntel,60.0240096,,,,,,,,,,,,,,,,,,,,,,,,,,,,,,,,,,,,,,,,,,,,,,,,,,,,,,,,,,,,,,,,,owl,Animals,26,0,26,0,1,,,,,,,,,,,,,,,,,,
,,,,,,,,,,,,,,,89309,001,2022-04-25_14h36.31.167,SPAMnetsValid,2021.1.4,MacIntel,60.0240096,,,,,,,,,,,,,,,,,,,,,,,,,,,,,,,,,,,,,,,,,,,,,,,,,,,,,,,,,,,,,,,,,cardinal,Animals,27,0,27,0,1,,,,,,,,,,,,,,,,,,
,,,,,,,,,,,,,,,89309,001,2022-04-25_14h36.31.167,SPAMnetsValid,2021.1.4,MacIntel,60.0240096,,,,,,,,,,,,,,,,,,,,,,,,,,,,,,,,,,,,,,,,,,,,,,,,,,,,,,,,,,,,,,,,,robin,Animals,28,0,28,0,1,,,,,,,,,,,,,,,,,,
,,,,,,,,,,,,,,,89309,001,2022-04-25_14h36.31.167,SPAMnetsValid,2021.1.4,MacIntel,60.0240096,,,,,,,,,,,,,,,,,,,,,,,,,,,,,,,,,,,,,,,,,,,,,,,,,,,,,,,,,,,,,,,,,mouse,Animals,29,0,29,0,1,,,,,,,,,,,,,,,,,,
,,,,,,,,,,,,,,,89309,001,2022-04-25_14h36.31.167,SPAMnetsValid,2021.1.4,MacIntel,60.0240096,,,,,,,,,,,,,,,,,,,,,,,,,,,,,,,,,,,,,,,,,,,,,,,,,,,,,,,,,,,,,,,,,rabbit,Animals,30,0,30,0,1,,,,,,,,,,,,,,,,,,
,,,,,,,,,,,,,,,89309,001,2022-04-25_14h36.31.167,SPAMnetsValid,2021.1.4,MacIntel,60.0240096,,,,,,,,,,,,,,,,,,,,,,,,,,,,,,,,,,,,,,,,,,,,,,,,,,,,,,,,,,,,,,,,,hare,Animals,31,0,31,0,1,,,,,,,,,,,,,,,,,,
,,,,,,,,,,,,,,,89309,001,2022-04-25_14h36.31.167,SPAMnetsValid,2021.1.4,MacIntel,60.0240096,,,,,,,,,,,,,,,,,,,,,,,,,,,,,,,,,,,,,,,,,,,,,,,,,,,,,,,,,,,,,,,,,skunk,Animals,32,0,32,0,1,,,,,,,,,,,,,,,,,,
,,,,,,,,,,,,,,,89309,001,2022-04-25_14h36.31.167,SPAMnetsValid,2021.1.4,MacIntel,60.0240096,,,,,,,,,,,,,,,,,,,,,,,,,,,,,,,,,,,,,,,,,,,,,,,,,,,,,,,,,,,,,,,,,skink,Animals,33,0,33,0,1,,,,,,,,,,,,,,,,,,
,,,,,,,,,,,,,,,89309,001,2022-04-25_14h36.31.167,SPAMnetsValid,2021.1.4,MacIntel,60.0240096,,,,,,,,,,,,,,,,,,,,,,,,,,,,,,,,,,,,,,,,,,,,,,,,,,,,,,,,,,,,,,,,,kamodo dragon,Animals,34,0,34,0,1,,,,,,,,,,,,,,,,,,
,,,,,,,,,,,,,,,89309,001,2022-04-25_14h36.31.167,SPAMnetsValid,2021.1.4,MacIntel,60.0240096,,,,,,,,,,,,,,,,,,,,,,,,,,,,,,,,,,,,,,,,,,,,,,,,,,,,,,,,,,,,,,,,,frog,Animals,35,0,35,0,1,,,,,,,,,,,,,,,,,,
,,,,,,,,,,,,,,,89309,001,2022-04-25_14h36.31.167,SPAMnetsValid,2021.1.4,MacIntel,60.0240096,,,,,,,,,,,,,,,,,,,,,,,,,,,,,,,,,,,,,,,,,,,,,,,,,,,,,,,,,,,,,,,,,toad,Animals,36,0,36,0,1,,,,,,,,,,,,,,,,,,
,,,,,,,,,,,,,,,89309,001,2022-04-25_14h36.31.167,SPAMnetsValid,2021.1.4,MacIntel,60.0240096,,,,,,,,,,,,,,,,,,,,,,,,,,,,,,,,,,,,,,,,,,,,,,,,,,,,,,,,,,,,,,,,,snake,Animals,37,0,37,0,1,,,,,,,,,,,,,,,,,,
,,,,,,,,,,,,,,,89309,001,2022-04-25_14h36.31.167,SPAMnetsValid,2021.1.4,MacIntel,60.0240096,,,,,,,,,,,,,,,,,,,,,,,,,,,,,,,,,,,,,,,,,,,,,,,,,,,,,,,,,,,,,,,,,boa,Animals,38,0,38,0,1,,,,,,,,,,,,,,,,,,
,,,,,,,,,,,,,,,89309,001,2022-04-25_14h36.31.167,SPAMnetsValid,2021.1.4,MacIntel,60.0240096,,,,,,,,,,,,,,,,,,,,,,,,,,,,,,,,,,,,,,,,,,,,,,,,,,,,,,,,,,,,,,,,,ball python,Animals,39,0,39,0,1,,,,,,,,,,,,,,,,,,
,,,,,,,,,,,,,,,89309,001,2022-04-25_14h36.31.167,SPAMnetsValid,2021.1.4,MacIntel,60.0240096,,,,,,,,,,,,,,,,,,,,,,,,,,,,,,,,,,,,,,,,,,,,,,,,,,,,,,,,,,,,,,,,,anaconda,Animals,40,0,40,0,1,,,,,,,,,,,,,,,,,,
,,,,,,,,,,,,,,,89309,001,2022-04-25_14h36.31.167,SPAMnetsValid,2021.1.4,MacIntel,60.0240096,,,,,,,,,,,,,,,,,,,,,,,,,,,,,,,,,,,,,,,,,,,,,,,,,,,,,,,,,,,,,,,,,deer,Animals,41,0,41,0,1,,,,,,,,,,,,,,,,,,
,,,,,,,,,,,,,,,89309,001,2022-04-25_14h36.31.167,SPAMnetsValid,2021.1.4,MacIntel,60.0240096,,,,,,,,,,,,,,,,,,,,,,,,,,,,,,,,,,,,,,,,,,,,,,,,,,,,,,,,,,,,,,,,,moose,Animals,42,0,42,0,1,,,,,,,,,,,,,,,,,,
,,,,,,,,,,,,,,,89309,001,2022-04-25_14h36.31.167,SPAMnetsValid,2021.1.4,MacIntel,60.0240096,,,,,,,,,,,,,,,,,,,,,,,,,,,,,,,,,,,,,,,,,,,,,,,,,,,,,,,,,,,,,,,,,elk,Animals,43,0,43,0,1,,,,,,,,,,,,,,,,,,
,,,,,,,,,,,,,,,89309,001,2022-04-25_14h36.31.167,SPAMnetsValid,2021.1.4,MacIntel,60.0240096,,,,,,,,,,,,,,,,,,,,,,,,,,,,,,,,,,,,,,,,,,,,,,,,,,,,,,,,,,,,,,,,,wolf,Animals,44,0,44,0,1,,,,,,,,,,,,,,,,,,
,,,,,,,,,,,,,,,89309,001,2022-04-25_14h36.31.167,SPAMnetsValid,2021.1.4,MacIntel,60.0240096,,,,,,,,,,,,,,,,,,,,,,,,,,,,,,,,,,,,,,,,,,,,,,,,,,,,,,,,,,,,,,,,,bear,Animals,45,0,45,0,1,,,,,,,,,,,,,,,,,,
,,,,,,,,,,,,,,,89309,001,2022-04-25_14h36.31.167,SPAMnetsValid,2021.1.4,MacIntel,60.0240096,,,,,,,,,,,,,,,,,,,,,,,,,,,,,,,,,,,,,,,,,,,,,,,,,,,,,,,,,,,,,,,,,lion,Animals,46,0,46,0,1,,,,,,,,,,,,,,,,,,
,,,,,,,,,,,,,,,89309,001,2022-04-25_14h36.31.167,SPAMnetsValid,2021.1.4,MacIntel,60.0240096,,,,,,,,,,,,,,,,,,,,,,,,,,,,,,,,,,,,,,,,,,,,,,,,,,,,,,,,,,,,,,,,,tiger,Animals,47,0,47,0,1,,,,,,,,,,,,,,,,,,
,,,,,,,,,,,,,,,89309,001,2022-04-25_14h36.31.167,SPAMnetsValid,2021.1.4,MacIntel,60.0240096,,,,,,,,,,,,,,,,,,,,,,,,,,,,,,,,,,,,,,,,,,,,,,,,,,,,,,,,,,,,,,,,,,,,,,,,0,0,0,0,1,Animals,,,,,,,,,,,,
,,,,,,,,,,,,,,,89309,001,2022-04-25_14h36.31.167,SPAMnetsValid,2021.1.4,MacIntel,60.0240096,,,,,,,,,,,,,,,,,,,,,,,,,,,,,,,,,,,,,,,,,,,,,,,,,,,,,,,,,,,,,,,,,,,,,,,,,,,,,,4,4.124,0,0,0,0,1,"I enjoy concentrating on a fantasy or daydream and exploring all its possibilities, letting it grow and develop.",0,1,,
,,,,,,,,,,,,,,,89309,001,2022-04-25_14h36.31.167,SPAMnetsValid,2021.1.4,MacIntel,60.0240096,,,,,,,,,,,,,,,,,,,,,,,,,,,,,,,,,,,,,,,,,,,,,,,,,,,,,,,,,,,,,,,,,,,,,,,,,,,,,,4,1.572,0,1,1,1,1,I think it's interesting to learn and develop new hobbies.,0,2,,
,,,,,,,,,,,,,,,89309,001,2022-04-25_14h36.31.167,SPAMnetsValid,2021.1.4,MacIntel,60.0240096,,,,,,,,,,,,,,,,,,,,,,,,,,,,,,,,,,,,,,,,,,,,,,,,,,,,,,,,,,,,,,,,,,,,,,,,,,,,,,4,1.307,0,2,2,2,1,I am intrigued by the patterns I find in art and nature.,0,3,,
,,,,,,,,,,,,,,,89309,001,2022-04-25_14h36.31.167,SPAMnetsValid,2021.1.4,MacIntel,60.0240096,,,,,,,,,,,,,,,,,,,,,,,,,,,,,,,,,,,,,,,,,,,,,,,,,,,,,,,,,,,,,,,,,,,,,,,,,,,,,,1,6.272,0,3,3,3,1,I believe letting students hear controversial speakers can only confuse and mislead them.,1,4,,
,,,,,,,,,,,,,,,89309,001,2022-04-25_14h36.31.167,SPAMnetsValid,2021.1.4,MacIntel,60.0240096,,,,,,,,,,,,,,,,,,,,,,,,,,,,,,,,,,,,,,,,,,,,,,,,,,,,,,,,,,,,,,,,,,,,,,,,,,,,,,3,2.006,0,4,4,4,1,Poetry has little or no effect on me.,1,5,,
,,,,,,,,,,,,,,,89309,001,2022-04-25_14h36.31.167,SPAMnetsValid,2021.1.4,MacIntel,60.0240096,,,,,,,,,,,,,,,,,,,,,,,,,,,,,,,,,,,,,,,,,,,,,,,,,,,,,,,,,,,,,,,,,,,,,,,,,,,,,,2,7.707,0,5,5,5,1,I would have difficulty just letting my mind wander without control or guidance.,1,6,,
,,,,,,,,,,,,,,,89309,001,2022-04-25_14h36.31.167,SPAMnetsValid,2021.1.4,MacIntel,60.0240096,,,,,,,,,,,,,,,,,,,,,,,,,,,,,,,,,,,,,,,,,,,,,,,,,,,,,,,,,,,,,,,,,,,,,,,,,,,,,,2,2.473,0,6,6,6,1,I seldom notice the moods or feelings that different environments produce.,1,7,,
,,,,,,,,,,,,,,,89309,001,2022-04-25_14h36.31.167,SPAMnetsValid,2021.1.4,MacIntel,60.0240096,,,,,,,,,,,,,,,,,,,,,,,,,,,,,,,,,,,,,,,,,,,,,,,,,,,,,,,,,,,,,,,,,,,,,,,,,,,,,,5,2.095,0,7,7,7,1,I experience a wide range of emotions or feelings.,0,8,,
,,,,,,,,,,,,,,,89309,001,2022-04-25_14h36.31.167,SPAMnetsValid,2021.1.4,MacIntel,60.0240096,,,,,,,,,,,,,,,,,,,,,,,,,,,,,,,,,,,,,,,,,,,,,,,,,,,,,,,,,,,,,,,,,,,,,,,,,,,,,,3,2.475,0,8,8,8,1,"Sometimes when I am reading poetry or looking at a work of art, I feel a chill or wave of excitement.",0,9,,
,,,,,,,,,,,,,,,89309,001,2022-04-25_14h36.31.167,SPAMnetsValid,2021.1.4,MacIntel,60.0240096,,,,,,,,,,,,,,,,,,,,,,,,,,,,,,,,,,,,,,,,,,,,,,,,,,,,,,,,,,,,,,,,,,,,,,,,,,,,,,2,3.832,0,9,9,9,1,I have little interest in speculating on the nature of the universe or the human condition.,1,10,,
,,,,,,,,,,,,,,,89309,001,2022-04-25_14h36.31.167,SPAMnetsValid,2021.1.4,MacIntel,60.0240096,,,,,,,,,,,,,,,,,,,,,,,,,,,,,,,,,,,,,,,,,,,,,,,,,,,,,,,,,,,,,,,,,,,,,,,,,,,,,,4,2.263,0,10,10,10,1,I have a lot of intellectual curiosity.,0,11,,
,,,,,,,,,,,,,,,89309,001,2022-04-25_14h36.31.167,SPAMnetsValid,2021.1.4,MacIntel,60.0240096,,,,,,,,,,,,,,,,,,,,,,,,,,,,,,,,,,,,,,,,,,,,,,,,,,,,,,,,,,,,,,,,,,,,,,,,,,,,,,5,1.97,0,11,11,11,1,I often enjoy playing with theories or abstract ideas.,0,12,,
,,,,,,,,,,,,,,,89309,001,2022-04-25_14h36.31.167,SPAMnetsValid,2021.1.4,MacIntel,60.0240096,,,,,,,,,,,,,,,,,,,,,,,,,,,,,,,,,,,,,,,,,,,,,,,,,,,,,,,,,,,,,,,,,,,,,,,,,,,,,,,,,,,,,,,,return,15.169
