key_resp_3.keys,key_resp_3.rt,slider_2.response,slider_2.rt,rjt_rating,rjt_RT,trials_24.thisRepN,trials_24.thisTrialN,trials_24.thisN,trials_24.thisIndex,trials_24.ran,rjt_order,word1,word2,attention,participant,session,date,expName,psychopyVersion,OS,frameRate,trials_4.thisRepN,trials_4.thisTrialN,trials_4.thisN,trials_4.thisIndex,trials_4.ran,trials_5.thisRepN,trials_5.thisTrialN,trials_5.thisN,trials_5.thisIndex,trials_5.ran,repOne,repTwo,slider.response,slider.rt,trials_22.thisRepN,trials_22.thisTrialN,trials_22.thisN,trials_22.thisIndex,trials_22.ran,trials_99.thisRepN,trials_99.thisTrialN,trials_99.thisN,trials_99.thisIndex,trials_99.ran,slider_extend_2.response,slider_extend_2.rt,trials_6.thisRepN,trials_6.thisTrialN,trials_6.thisN,trials_6.thisIndex,trials_6.ran,vCue2,R1,R2,R3,R4,correct,sliderVocab.response,sliderVocab.rt,trials_7.thisRepN,trials_7.thisTrialN,trials_7.thisN,trials_7.thisIndex,trials_7.ran,VocabCue,VR1,VR2,VR3,VR4,VR5,VocabCorrect,AUT_resp,AUT_label,trials.thisRepN,trials.thisTrialN,trials.thisN,trials.thisIndex,trials.ran,trials_2.thisRepN,trials_2.thisTrialN,trials_2.thisN,trials_2.thisIndex,trials_2.ran,aut_prompt,VF_response,VF_tag,trials_16.thisRepN,trials_16.thisTrialN,trials_16.thisN,trials_16.thisIndex,trials_16.ran,trials_17.thisRepN,trials_17.thisTrialN,trials_17.thisN,trials_17.thisIndex,trials_17.ran,VFcond,open_slider.response,open_slider.rt,trials_3.thisRepN,trials_3.thisTrialN,trials_3.thisN,trials_3.thisIndex,trials_3.ran,OpenQ,Rev,OPEN_ORDER,key_resp_2.keys,key_resp_2.rt
return,11.2868,8,4.2562,8,4.2562,0,0,0,17,1,99,garden,melon,,89347,001,2022-04-25_15h41.16.157,SPAMnetsValid,2021.1.4,MacIntel,59.99880002,,,,,,,,,,,,,,,,,,,,,,,,,,,,,,,,,,,,,,,,,,,,,,,,,,,,,,,,,,,,,,,,,,,,,,,,,,,,,,,,,,,,,,,,,
,,8,2.3608,8,2.3608,0,1,1,11,1,117,melon,strawberry,,89347,001,2022-04-25_15h41.16.157,SPAMnetsValid,2021.1.4,MacIntel,59.99880002,,,,,,,,,,,,,,,,,,,,,,,,,,,,,,,,,,,,,,,,,,,,,,,,,,,,,,,,,,,,,,,,,,,,,,,,,,,,,,,,,,,,,,,,,
,,7,2.2137,7,2.2137,0,2,2,51,1,168,cactus,flower,,89347,001,2022-04-25_15h41.16.157,SPAMnetsValid,2021.1.4,MacIntel,59.99880002,,,,,,,,,,,,,,,,,,,,,,,,,,,,,,,,,,,,,,,,,,,,,,,,,,,,,,,,,,,,,,,,,,,,,,,,,,,,,,,,,,,,,,,,,
,,3,2.5709,3,2.5709,0,3,3,93,1,134,carrot,flower,,89347,001,2022-04-25_15h41.16.157,SPAMnetsValid,2021.1.4,MacIntel,59.99880002,,,,,,,,,,,,,,,,,,,,,,,,,,,,,,,,,,,,,,,,,,,,,,,,,,,,,,,,,,,,,,,,,,,,,,,,,,,,,,,,,,,,,,,,,
,,7,1.572,7,1.572,0,4,4,22,1,142,garden,tree,,89347,001,2022-04-25_15h41.16.157,SPAMnetsValid,2021.1.4,MacIntel,59.99880002,,,,,,,,,,,,,,,,,,,,,,,,,,,,,,,,,,,,,,,,,,,,,,,,,,,,,,,,,,,,,,,,,,,,,,,,,,,,,,,,,,,,,,,,,
,,1,1.6746,1,1.6746,0,5,5,80,1,146,pretzel,tree,,89347,001,2022-04-25_15h41.16.157,SPAMnetsValid,2021.1.4,MacIntel,59.99880002,,,,,,,,,,,,,,,,,,,,,,,,,,,,,,,,,,,,,,,,,,,,,,,,,,,,,,,,,,,,,,,,,,,,,,,,,,,,,,,,,,,,,,,,,
,,8,1.6307,8,1.6307,0,6,6,83,1,100,garden,tomato,,89347,001,2022-04-25_15h41.16.157,SPAMnetsValid,2021.1.4,MacIntel,59.99880002,,,,,,,,,,,,,,,,,,,,,,,,,,,,,,,,,,,,,,,,,,,,,,,,,,,,,,,,,,,,,,,,,,,,,,,,,,,,,,,,,,,,,,,,,
,,7,2.9687,7,2.9687,0,7,7,0,1,106,cake,strawberry,,89347,001,2022-04-25_15h41.16.157,SPAMnetsValid,2021.1.4,MacIntel,59.99880002,,,,,,,,,,,,,,,,,,,,,,,,,,,,,,,,,,,,,,,,,,,,,,,,,,,,,,,,,,,,,,,,,,,,,,,,,,,,,,,,,,,,,,,,,
,,1,1.571,1,1.571,0,8,8,56,1,113,refrigerator,strawberry,,89347,001,2022-04-25_15h41.16.157,SPAMnetsValid,2021.1.4,MacIntel,59.99880002,,,,,,,,,,,,,,,,,,,,,,,,,,,,,,,,,,,,,,,,,,,,,,,,,,,,,,,,,,,,,,,,,,,,,,,,,,,,,,,,,,,,,,,,,
,,3,2.3501,3,2.3501,0,9,9,33,1,131,cactus,garden,,89347,001,2022-04-25_15h41.16.157,SPAMnetsValid,2021.1.4,MacIntel,59.99880002,,,,,,,,,,,,,,,,,,,,,,,,,,,,,,,,,,,,,,,,,,,,,,,,,,,,,,,,,,,,,,,,,,,,,,,,,,,,,,,,,,,,,,,,,
,,3,2.1547,3,2.1547,0,10,10,9,1,176,cactus,tomato,,89347,001,2022-04-25_15h41.16.157,SPAMnetsValid,2021.1.4,MacIntel,59.99880002,,,,,,,,,,,,,,,,,,,,,,,,,,,,,,,,,,,,,,,,,,,,,,,,,,,,,,,,,,,,,,,,,,,,,,,,,,,,,,,,,,,,,,,,,
,,6,2.9306,6,2.9306,0,11,11,94,1,133,cake,flower,,89347,001,2022-04-25_15h41.16.157,SPAMnetsValid,2021.1.4,MacIntel,59.99880002,,,,,,,,,,,,,,,,,,,,,,,,,,,,,,,,,,,,,,,,,,,,,,,,,,,,,,,,,,,,,,,,,,,,,,,,,,,,,,,,,,,,,,,,,
,,3,1.8535,3,1.8535,0,12,12,62,1,189,onion,tree,,89347,001,2022-04-25_15h41.16.157,SPAMnetsValid,2021.1.4,MacIntel,59.99880002,,,,,,,,,,,,,,,,,,,,,,,,,,,,,,,,,,,,,,,,,,,,,,,,,,,,,,,,,,,,,,,,,,,,,,,,,,,,,,,,,,,,,,,,,
,,6,2.4486,6,2.4486,0,13,13,96,1,136,chocolate,microwave,,89347,001,2022-04-25_15h41.16.157,SPAMnetsValid,2021.1.4,MacIntel,59.99880002,,,,,,,,,,,,,,,,,,,,,,,,,,,,,,,,,,,,,,,,,,,,,,,,,,,,,,,,,,,,,,,,,,,,,,,,,,,,,,,,,,,,,,,,,
,,6,1.2262,6,1.2262,0,14,14,28,1,154,strawberry,yogurt,,89347,001,2022-04-25_15h41.16.157,SPAMnetsValid,2021.1.4,MacIntel,59.99880002,,,,,,,,,,,,,,,,,,,,,,,,,,,,,,,,,,,,,,,,,,,,,,,,,,,,,,,,,,,,,,,,,,,,,,,,,,,,,,,,,,,,,,,,,
,,7,1.9217,7,1.9217,0,15,15,69,1,124,oven,refrigerator,,89347,001,2022-04-25_15h41.16.157,SPAMnetsValid,2021.1.4,MacIntel,59.99880002,,,,,,,,,,,,,,,,,,,,,,,,,,,,,,,,,,,,,,,,,,,,,,,,,,,,,,,,,,,,,,,,,,,,,,,,,,,,,,,,,,,,,,,,,
,,3,1.91,3,1.91,0,16,16,49,1,152,cactus,strawberry,,89347,001,2022-04-25_15h41.16.157,SPAMnetsValid,2021.1.4,MacIntel,59.99880002,,,,,,,,,,,,,,,,,,,,,,,,,,,,,,,,,,,,,,,,,,,,,,,,,,,,,,,,,,,,,,,,,,,,,,,,,,,,,,,,,,,,,,,,,
,,6,2.2734,6,2.2734,0,17,17,35,1,147,cake,refrigerator,,89347,001,2022-04-25_15h41.16.157,SPAMnetsValid,2021.1.4,MacIntel,59.99880002,,,,,,,,,,,,,,,,,,,,,,,,,,,,,,,,,,,,,,,,,,,,,,,,,,,,,,,,,,,,,,,,,,,,,,,,,,,,,,,,,,,,,,,,,
,,4,2.6222,4,2.6222,0,18,18,45,1,179,broom,oven,,89347,001,2022-04-25_15h41.16.157,SPAMnetsValid,2021.1.4,MacIntel,59.99880002,,,,,,,,,,,,,,,,,,,,,,,,,,,,,,,,,,,,,,,,,,,,,,,,,,,,,,,,,,,,,,,,,,,,,,,,,,,,,,,,,,,,,,,,,
,,3,1.8206,3,1.8206,0,19,19,5,1,108,carrot,chocolate,,89347,001,2022-04-25_15h41.16.157,SPAMnetsValid,2021.1.4,MacIntel,59.99880002,,,,,,,,,,,,,,,,,,,,,,,,,,,,,,,,,,,,,,,,,,,,,,,,,,,,,,,,,,,,,,,,,,,,,,,,,,,,,,,,,,,,,,,,,
,,9,1.6541,9,1.6541,0,20,20,86,1,193,melon,melon,CHECK,89347,001,2022-04-25_15h41.16.157,SPAMnetsValid,2021.1.4,MacIntel,59.99880002,,,,,,,,,,,,,,,,,,,,,,,,,,,,,,,,,,,,,,,,,,,,,,,,,,,,,,,,,,,,,,,,,,,,,,,,,,,,,,,,,,,,,,,,,
,,9,2.2897,9,2.2897,0,21,21,61,1,138,flower,rose,,89347,001,2022-04-25_15h41.16.157,SPAMnetsValid,2021.1.4,MacIntel,59.99880002,,,,,,,,,,,,,,,,,,,,,,,,,,,,,,,,,,,,,,,,,,,,,,,,,,,,,,,,,,,,,,,,,,,,,,,,,,,,,,,,,,,,,,,,,
,,7,2.2231,7,2.2231,0,22,22,60,1,122,flower,garden,,89347,001,2022-04-25_15h41.16.157,SPAMnetsValid,2021.1.4,MacIntel,59.99880002,,,,,,,,,,,,,,,,,,,,,,,,,,,,,,,,,,,,,,,,,,,,,,,,,,,,,,,,,,,,,,,,,,,,,,,,,,,,,,,,,,,,,,,,,
,,2,1.5902,2,1.5902,0,23,23,63,1,137,microwave,tree,,89347,001,2022-04-25_15h41.16.157,SPAMnetsValid,2021.1.4,MacIntel,59.99880002,,,,,,,,,,,,,,,,,,,,,,,,,,,,,,,,,,,,,,,,,,,,,,,,,,,,,,,,,,,,,,,,,,,,,,,,,,,,,,,,,,,,,,,,,
,,6,1.372,6,1.372,0,24,24,91,1,166,cake,yogurt,,89347,001,2022-04-25_15h41.16.157,SPAMnetsValid,2021.1.4,MacIntel,59.99880002,,,,,,,,,,,,,,,,,,,,,,,,,,,,,,,,,,,,,,,,,,,,,,,,,,,,,,,,,,,,,,,,,,,,,,,,,,,,,,,,,,,,,,,,,
,,6,2.8146,6,2.8146,0,25,25,23,1,148,flower,melon,,89347,001,2022-04-25_15h41.16.157,SPAMnetsValid,2021.1.4,MacIntel,59.99880002,,,,,,,,,,,,,,,,,,,,,,,,,,,,,,,,,,,,,,,,,,,,,,,,,,,,,,,,,,,,,,,,,,,,,,,,,,,,,,,,,,,,,,,,,
,,7,2.5719,7,2.5719,0,26,26,42,1,184,oven,pretzel,,89347,001,2022-04-25_15h41.16.157,SPAMnetsValid,2021.1.4,MacIntel,59.99880002,,,,,,,,,,,,,,,,,,,,,,,,,,,,,,,,,,,,,,,,,,,,,,,,,,,,,,,,,,,,,,,,,,,,,,,,,,,,,,,,,,,,,,,,,
,,1,1.6372,1,1.6372,0,27,27,24,1,169,onion,yogurt,,89347,001,2022-04-25_15h41.16.157,SPAMnetsValid,2021.1.4,MacIntel,59.99880002,,,,,,,,,,,,,,,,,,,,,,,,,,,,,,,,,,,,,,,,,,,,,,,,,,,,,,,,,,,,,,,,,,,,,,,,,,,,,,,,,,,,,,,,,
,,3,2.4391,3,2.4391,0,28,28,38,1,155,carrot,cookie,,89347,001,2022-04-25_15h41.16.157,SPAMnetsValid,2021.1.4,MacIntel,59.99880002,,,,,,,,,,,,,,,,,,,,,,,,,,,,,,,,,,,,,,,,,,,,,,,,,,,,,,,,,,,,,,,,,,,,,,,,,,,,,,,,,,,,,,,,,
,,2,1.6102,2,1.6102,0,29,29,59,1,164,cookie,garden,,89347,001,2022-04-25_15h41.16.157,SPAMnetsValid,2021.1.4,MacIntel,59.99880002,,,,,,,,,,,,,,,,,,,,,,,,,,,,,,,,,,,,,,,,,,,,,,,,,,,,,,,,,,,,,,,,,,,,,,,,,,,,,,,,,,,,,,,,,
,,2,1.288,2,1.288,0,30,30,32,1,182,flower,refrigerator,,89347,001,2022-04-25_15h41.16.157,SPAMnetsValid,2021.1.4,MacIntel,59.99880002,,,,,,,,,,,,,,,,,,,,,,,,,,,,,,,,,,,,,,,,,,,,,,,,,,,,,,,,,,,,,,,,,,,,,,,,,,,,,,,,,,,,,,,,,
,,6,1.4811,6,1.4811,0,31,31,70,1,141,melon,tomato,,89347,001,2022-04-25_15h41.16.157,SPAMnetsValid,2021.1.4,MacIntel,59.99880002,,,,,,,,,,,,,,,,,,,,,,,,,,,,,,,,,,,,,,,,,,,,,,,,,,,,,,,,,,,,,,,,,,,,,,,,,,,,,,,,,,,,,,,,,
,,6,1.4076,6,1.4076,0,32,32,82,1,98,pretzel,strawberry,,89347,001,2022-04-25_15h41.16.157,SPAMnetsValid,2021.1.4,MacIntel,59.99880002,,,,,,,,,,,,,,,,,,,,,,,,,,,,,,,,,,,,,,,,,,,,,,,,,,,,,,,,,,,,,,,,,,,,,,,,,,,,,,,,,,,,,,,,,
,,6,1.4471,6,1.4471,0,33,33,10,1,118,chocolate,oven,,89347,001,2022-04-25_15h41.16.157,SPAMnetsValid,2021.1.4,MacIntel,59.99880002,,,,,,,,,,,,,,,,,,,,,,,,,,,,,,,,,,,,,,,,,,,,,,,,,,,,,,,,,,,,,,,,,,,,,,,,,,,,,,,,,,,,,,,,,
,,4,1.3404,4,1.3404,0,34,34,79,1,103,pretzel,tomato,,89347,001,2022-04-25_15h41.16.157,SPAMnetsValid,2021.1.4,MacIntel,59.99880002,,,,,,,,,,,,,,,,,,,,,,,,,,,,,,,,,,,,,,,,,,,,,,,,,,,,,,,,,,,,,,,,,,,,,,,,,,,,,,,,,,,,,,,,,
,,3,1.6206,3,1.6206,0,35,35,12,1,162,microwave,tomato,,89347,001,2022-04-25_15h41.16.157,SPAMnetsValid,2021.1.4,MacIntel,59.99880002,,,,,,,,,,,,,,,,,,,,,,,,,,,,,,,,,,,,,,,,,,,,,,,,,,,,,,,,,,,,,,,,,,,,,,,,,,,,,,,,,,,,,,,,,
,,1,3.59,1,3.59,0,36,36,15,1,145,cactus,yogurt,,89347,001,2022-04-25_15h41.16.157,SPAMnetsValid,2021.1.4,MacIntel,59.99880002,,,,,,,,,,,,,,,,,,,,,,,,,,,,,,,,,,,,,,,,,,,,,,,,,,,,,,,,,,,,,,,,,,,,,,,,,,,,,,,,,,,,,,,,,
,,2,1.4246,2,1.4246,0,37,37,6,1,151,microwave,onion,,89347,001,2022-04-25_15h41.16.157,SPAMnetsValid,2021.1.4,MacIntel,59.99880002,,,,,,,,,,,,,,,,,,,,,,,,,,,,,,,,,,,,,,,,,,,,,,,,,,,,,,,,,,,,,,,,,,,,,,,,,,,,,,,,,,,,,,,,,
,,8,1.5227,8,1.5227,0,38,38,44,1,116,cake,chocolate,,89347,001,2022-04-25_15h41.16.157,SPAMnetsValid,2021.1.4,MacIntel,59.99880002,,,,,,,,,,,,,,,,,,,,,,,,,,,,,,,,,,,,,,,,,,,,,,,,,,,,,,,,,,,,,,,,,,,,,,,,,,,,,,,,,,,,,,,,,
,,4,1.3972,4,1.3972,0,39,39,29,1,163,melon,refrigerator,,89347,001,2022-04-25_15h41.16.157,SPAMnetsValid,2021.1.4,MacIntel,59.99880002,,,,,,,,,,,,,,,,,,,,,,,,,,,,,,,,,,,,,,,,,,,,,,,,,,,,,,,,,,,,,,,,,,,,,,,,,,,,,,,,,,,,,,,,,
,,9,2.7217,9,2.7217,0,40,40,25,1,194,cactus,cactus,CHECK,89347,001,2022-04-25_15h41.16.157,SPAMnetsValid,2021.1.4,MacIntel,59.99880002,,,,,,,,,,,,,,,,,,,,,,,,,,,,,,,,,,,,,,,,,,,,,,,,,,,,,,,,,,,,,,,,,,,,,,,,,,,,,,,,,,,,,,,,,
,,2,1.5815,2,1.5815,0,41,41,4,1,109,broom,strawberry,,89347,001,2022-04-25_15h41.16.157,SPAMnetsValid,2021.1.4,MacIntel,59.99880002,,,,,,,,,,,,,,,,,,,,,,,,,,,,,,,,,,,,,,,,,,,,,,,,,,,,,,,,,,,,,,,,,,,,,,,,,,,,,,,,,,,,,,,,,
,,6,1.8888,6,1.8888,0,42,42,87,1,114,cookie,strawberry,,89347,001,2022-04-25_15h41.16.157,SPAMnetsValid,2021.1.4,MacIntel,59.99880002,,,,,,,,,,,,,,,,,,,,,,,,,,,,,,,,,,,,,,,,,,,,,,,,,,,,,,,,,,,,,,,,,,,,,,,,,,,,,,,,,,,,,,,,,
,,9,2.5545,9,2.5545,0,43,43,52,1,110,chocolate,cookie,,89347,001,2022-04-25_15h41.16.157,SPAMnetsValid,2021.1.4,MacIntel,59.99880002,,,,,,,,,,,,,,,,,,,,,,,,,,,,,,,,,,,,,,,,,,,,,,,,,,,,,,,,,,,,,,,,,,,,,,,,,,,,,,,,,,,,,,,,,
,,3,1.4598,3,1.4598,0,44,44,89,1,140,cookie,refrigerator,,89347,001,2022-04-25_15h41.16.157,SPAMnetsValid,2021.1.4,MacIntel,59.99880002,,,,,,,,,,,,,,,,,,,,,,,,,,,,,,,,,,,,,,,,,,,,,,,,,,,,,,,,,,,,,,,,,,,,,,,,,,,,,,,,,,,,,,,,,
,,3,2.5079,3,2.5079,0,45,45,36,1,161,kitchen,pretzel,,89347,001,2022-04-25_15h41.16.157,SPAMnetsValid,2021.1.4,MacIntel,59.99880002,,,,,,,,,,,,,,,,,,,,,,,,,,,,,,,,,,,,,,,,,,,,,,,,,,,,,,,,,,,,,,,,,,,,,,,,,,,,,,,,,,,,,,,,,
,,8,3.5708,8,3.5708,0,46,46,47,1,167,carrot,garden,,89347,001,2022-04-25_15h41.16.157,SPAMnetsValid,2021.1.4,MacIntel,59.99880002,,,,,,,,,,,,,,,,,,,,,,,,,,,,,,,,,,,,,,,,,,,,,,,,,,,,,,,,,,,,,,,,,,,,,,,,,,,,,,,,,,,,,,,,,
,,6,2.5925,6,2.5925,0,47,47,41,1,175,melon,onion,,89347,001,2022-04-25_15h41.16.157,SPAMnetsValid,2021.1.4,MacIntel,59.99880002,,,,,,,,,,,,,,,,,,,,,,,,,,,,,,,,,,,,,,,,,,,,,,,,,,,,,,,,,,,,,,,,,,,,,,,,,,,,,,,,,,,,,,,,,
,,9,1.7302,9,1.7302,0,48,48,65,1,160,cookie,kitchen,,89347,001,2022-04-25_15h41.16.157,SPAMnetsValid,2021.1.4,MacIntel,59.99880002,,,,,,,,,,,,,,,,,,,,,,,,,,,,,,,,,,,,,,,,,,,,,,,,,,,,,,,,,,,,,,,,,,,,,,,,,,,,,,,,,,,,,,,,,
,,1,3.0895,1,3.0895,0,49,49,81,1,104,garden,microwave,,89347,001,2022-04-25_15h41.16.157,SPAMnetsValid,2021.1.4,MacIntel,59.99880002,,,,,,,,,,,,,,,,,,,,,,,,,,,,,,,,,,,,,,,,,,,,,,,,,,,,,,,,,,,,,,,,,,,,,,,,,,,,,,,,,,,,,,,,,
,,7,2.2645,7,2.2645,0,50,50,39,1,112,cake,carrot,,89347,001,2022-04-25_15h41.16.157,SPAMnetsValid,2021.1.4,MacIntel,59.99880002,,,,,,,,,,,,,,,,,,,,,,,,,,,,,,,,,,,,,,,,,,,,,,,,,,,,,,,,,,,,,,,,,,,,,,,,,,,,,,,,,,,,,,,,,
,,2,2.2949,2,2.2949,0,51,51,16,1,111,carrot,microwave,,89347,001,2022-04-25_15h41.16.157,SPAMnetsValid,2021.1.4,MacIntel,59.99880002,,,,,,,,,,,,,,,,,,,,,,,,,,,,,,,,,,,,,,,,,,,,,,,,,,,,,,,,,,,,,,,,,,,,,,,,,,,,,,,,,,,,,,,,,
,,6,2.457,6,2.457,0,52,52,30,1,125,carrot,tree,,89347,001,2022-04-25_15h41.16.157,SPAMnetsValid,2021.1.4,MacIntel,59.99880002,,,,,,,,,,,,,,,,,,,,,,,,,,,,,,,,,,,,,,,,,,,,,,,,,,,,,,,,,,,,,,,,,,,,,,,,,,,,,,,,,,,,,,,,,
,,2,1.6114,2,1.6114,0,53,53,72,1,181,carrot,kitchen,,89347,001,2022-04-25_15h41.16.157,SPAMnetsValid,2021.1.4,MacIntel,59.99880002,,,,,,,,,,,,,,,,,,,,,,,,,,,,,,,,,,,,,,,,,,,,,,,,,,,,,,,,,,,,,,,,,,,,,,,,,,,,,,,,,,,,,,,,,
,,1,1.5046,1,1.5046,0,54,54,54,1,101,cactus,kitchen,,89347,001,2022-04-25_15h41.16.157,SPAMnetsValid,2021.1.4,MacIntel,59.99880002,,,,,,,,,,,,,,,,,,,,,,,,,,,,,,,,,,,,,,,,,,,,,,,,,,,,,,,,,,,,,,,,,,,,,,,,,,,,,,,,,,,,,,,,,
,,1,1.3552,1,1.3552,0,55,55,74,1,128,melon,microwave,,89347,001,2022-04-25_15h41.16.157,SPAMnetsValid,2021.1.4,MacIntel,59.99880002,,,,,,,,,,,,,,,,,,,,,,,,,,,,,,,,,,,,,,,,,,,,,,,,,,,,,,,,,,,,,,,,,,,,,,,,,,,,,,,,,,,,,,,,,
,,1,1.1584,1,1.1584,0,56,56,64,1,157,refrigerator,rose,,89347,001,2022-04-25_15h41.16.157,SPAMnetsValid,2021.1.4,MacIntel,59.99880002,,,,,,,,,,,,,,,,,,,,,,,,,,,,,,,,,,,,,,,,,,,,,,,,,,,,,,,,,,,,,,,,,,,,,,,,,,,,,,,,,,,,,,,,,
,,3,2.1951,3,2.1951,0,57,57,26,1,107,rose,tomato,,89347,001,2022-04-25_15h41.16.157,SPAMnetsValid,2021.1.4,MacIntel,59.99880002,,,,,,,,,,,,,,,,,,,,,,,,,,,,,,,,,,,,,,,,,,,,,,,,,,,,,,,,,,,,,,,,,,,,,,,,,,,,,,,,,,,,,,,,,
,,2,2.0275,2,2.0275,0,58,58,73,1,135,carrot,oven,,89347,001,2022-04-25_15h41.16.157,SPAMnetsValid,2021.1.4,MacIntel,59.99880002,,,,,,,,,,,,,,,,,,,,,,,,,,,,,,,,,,,,,,,,,,,,,,,,,,,,,,,,,,,,,,,,,,,,,,,,,,,,,,,,,,,,,,,,,
,,1,2.7498,1,2.7498,0,59,59,88,1,171,cake,tomato,,89347,001,2022-04-25_15h41.16.157,SPAMnetsValid,2021.1.4,MacIntel,59.99880002,,,,,,,,,,,,,,,,,,,,,,,,,,,,,,,,,,,,,,,,,,,,,,,,,,,,,,,,,,,,,,,,,,,,,,,,,,,,,,,,,,,,,,,,,
,,2,2.1054,2,2.1054,0,60,60,57,1,127,cactus,chocolate,,89347,001,2022-04-25_15h41.16.157,SPAMnetsValid,2021.1.4,MacIntel,59.99880002,,,,,,,,,,,,,,,,,,,,,,,,,,,,,,,,,,,,,,,,,,,,,,,,,,,,,,,,,,,,,,,,,,,,,,,,,,,,,,,,,,,,,,,,,
,,3,4.7556,3,4.7556,0,61,61,21,1,159,cookie,flower,,89347,001,2022-04-25_15h41.16.157,SPAMnetsValid,2021.1.4,MacIntel,59.99880002,,,,,,,,,,,,,,,,,,,,,,,,,,,,,,,,,,,,,,,,,,,,,,,,,,,,,,,,,,,,,,,,,,,,,,,,,,,,,,,,,,,,,,,,,
,,2,2.521,2,2.521,0,62,62,84,1,130,microwave,yogurt,,89347,001,2022-04-25_15h41.16.157,SPAMnetsValid,2021.1.4,MacIntel,59.99880002,,,,,,,,,,,,,,,,,,,,,,,,,,,,,,,,,,,,,,,,,,,,,,,,,,,,,,,,,,,,,,,,,,,,,,,,,,,,,,,,,,,,,,,,,
,,8,2.9565,8,2.9565,0,63,63,14,1,120,microwave,oven,,89347,001,2022-04-25_15h41.16.157,SPAMnetsValid,2021.1.4,MacIntel,59.99880002,,,,,,,,,,,,,,,,,,,,,,,,,,,,,,,,,,,,,,,,,,,,,,,,,,,,,,,,,,,,,,,,,,,,,,,,,,,,,,,,,,,,,,,,,
,,2,2.9381,2,2.9381,0,64,64,50,1,126,kitchen,tree,,89347,001,2022-04-25_15h41.16.157,SPAMnetsValid,2021.1.4,MacIntel,59.99880002,,,,,,,,,,,,,,,,,,,,,,,,,,,,,,,,,,,,,,,,,,,,,,,,,,,,,,,,,,,,,,,,,,,,,,,,,,,,,,,,,,,,,,,,,
,,5,2.1099,5,2.1099,0,65,65,18,1,119,strawberry,tree,,89347,001,2022-04-25_15h41.16.157,SPAMnetsValid,2021.1.4,MacIntel,59.99880002,,,,,,,,,,,,,,,,,,,,,,,,,,,,,,,,,,,,,,,,,,,,,,,,,,,,,,,,,,,,,,,,,,,,,,,,,,,,,,,,,,,,,,,,,
,,6,2.2761,6,2.2761,0,66,66,43,1,185,cactus,rose,,89347,001,2022-04-25_15h41.16.157,SPAMnetsValid,2021.1.4,MacIntel,59.99880002,,,,,,,,,,,,,,,,,,,,,,,,,,,,,,,,,,,,,,,,,,,,,,,,,,,,,,,,,,,,,,,,,,,,,,,,,,,,,,,,,,,,,,,,,
,,4,1.5744,4,1.5744,0,67,67,31,1,156,melon,rose,,89347,001,2022-04-25_15h41.16.157,SPAMnetsValid,2021.1.4,MacIntel,59.99880002,,,,,,,,,,,,,,,,,,,,,,,,,,,,,,,,,,,,,,,,,,,,,,,,,,,,,,,,,,,,,,,,,,,,,,,,,,,,,,,,,,,,,,,,,
,,1,1.84,1,1.84,0,68,68,67,1,96,oven,strawberry,,89347,001,2022-04-25_15h41.16.157,SPAMnetsValid,2021.1.4,MacIntel,59.99880002,,,,,,,,,,,,,,,,,,,,,,,,,,,,,,,,,,,,,,,,,,,,,,,,,,,,,,,,,,,,,,,,,,,,,,,,,,,,,,,,,,,,,,,,,
,,2,1.098,2,1.098,0,69,69,77,1,172,kitchen,melon,,89347,001,2022-04-25_15h41.16.157,SPAMnetsValid,2021.1.4,MacIntel,59.99880002,,,,,,,,,,,,,,,,,,,,,,,,,,,,,,,,,,,,,,,,,,,,,,,,,,,,,,,,,,,,,,,,,,,,,,,,,,,,,,,,,,,,,,,,,
,,2,3.1051,2,3.1051,0,70,70,3,1,129,cactus,refrigerator,,89347,001,2022-04-25_15h41.16.157,SPAMnetsValid,2021.1.4,MacIntel,59.99880002,,,,,,,,,,,,,,,,,,,,,,,,,,,,,,,,,,,,,,,,,,,,,,,,,,,,,,,,,,,,,,,,,,,,,,,,,,,,,,,,,,,,,,,,,
,,8,1.8602,8,1.8602,0,71,71,8,1,97,chocolate,kitchen,,89347,001,2022-04-25_15h41.16.157,SPAMnetsValid,2021.1.4,MacIntel,59.99880002,,,,,,,,,,,,,,,,,,,,,,,,,,,,,,,,,,,,,,,,,,,,,,,,,,,,,,,,,,,,,,,,,,,,,,,,,,,,,,,,,,,,,,,,,
,,4,2.5045,4,2.5045,0,72,72,95,1,121,broom,microwave,,89347,001,2022-04-25_15h41.16.157,SPAMnetsValid,2021.1.4,MacIntel,59.99880002,,,,,,,,,,,,,,,,,,,,,,,,,,,,,,,,,,,,,,,,,,,,,,,,,,,,,,,,,,,,,,,,,,,,,,,,,,,,,,,,,,,,,,,,,
,,6,2.1603,6,2.1603,0,73,73,76,1,102,chocolate,refrigerator,,89347,001,2022-04-25_15h41.16.157,SPAMnetsValid,2021.1.4,MacIntel,59.99880002,,,,,,,,,,,,,,,,,,,,,,,,,,,,,,,,,,,,,,,,,,,,,,,,,,,,,,,,,,,,,,,,,,,,,,,,,,,,,,,,,,,,,,,,,
,,8,2.4468,8,2.4468,0,74,74,66,1,150,microwave,refrigerator,,89347,001,2022-04-25_15h41.16.157,SPAMnetsValid,2021.1.4,MacIntel,59.99880002,,,,,,,,,,,,,,,,,,,,,,,,,,,,,,,,,,,,,,,,,,,,,,,,,,,,,,,,,,,,,,,,,,,,,,,,,,,,,,,,,,,,,,,,,
,,6,1.8326,6,1.8326,0,75,75,1,1,173,kitchen,tomato,,89347,001,2022-04-25_15h41.16.157,SPAMnetsValid,2021.1.4,MacIntel,59.99880002,,,,,,,,,,,,,,,,,,,,,,,,,,,,,,,,,,,,,,,,,,,,,,,,,,,,,,,,,,,,,,,,,,,,,,,,,,,,,,,,,,,,,,,,,
,,3,3.8635,3,3.8635,0,76,76,78,1,132,broom,tree,,89347,001,2022-04-25_15h41.16.157,SPAMnetsValid,2021.1.4,MacIntel,59.99880002,,,,,,,,,,,,,,,,,,,,,,,,,,,,,,,,,,,,,,,,,,,,,,,,,,,,,,,,,,,,,,,,,,,,,,,,,,,,,,,,,,,,,,,,,
,,3,1.426,3,1.426,0,77,77,46,1,123,cookie,tree,,89347,001,2022-04-25_15h41.16.157,SPAMnetsValid,2021.1.4,MacIntel,59.99880002,,,,,,,,,,,,,,,,,,,,,,,,,,,,,,,,,,,,,,,,,,,,,,,,,,,,,,,,,,,,,,,,,,,,,,,,,,,,,,,,,,,,,,,,,
,,3,1.3076,3,1.3076,0,78,78,90,1,190,microwave,strawberry,,89347,001,2022-04-25_15h41.16.157,SPAMnetsValid,2021.1.4,MacIntel,59.99880002,,,,,,,,,,,,,,,,,,,,,,,,,,,,,,,,,,,,,,,,,,,,,,,,,,,,,,,,,,,,,,,,,,,,,,,,,,,,,,,,,,,,,,,,,
,,3,1.1096,3,1.1096,0,79,79,20,1,149,broom,tomato,,89347,001,2022-04-25_15h41.16.157,SPAMnetsValid,2021.1.4,MacIntel,59.99880002,,,,,,,,,,,,,,,,,,,,,,,,,,,,,,,,,,,,,,,,,,,,,,,,,,,,,,,,,,,,,,,,,,,,,,,,,,,,,,,,,,,,,,,,,
,,6,2.0888,6,2.0888,0,80,80,75,1,178,cactus,carrot,,89347,001,2022-04-25_15h41.16.157,SPAMnetsValid,2021.1.4,MacIntel,59.99880002,,,,,,,,,,,,,,,,,,,,,,,,,,,,,,,,,,,,,,,,,,,,,,,,,,,,,,,,,,,,,,,,,,,,,,,,,,,,,,,,,,,,,,,,,
,,7,1.9641,7,1.9641,0,81,81,2,1,174,cake,pretzel,,89347,001,2022-04-25_15h41.16.157,SPAMnetsValid,2021.1.4,MacIntel,59.99880002,,,,,,,,,,,,,,,,,,,,,,,,,,,,,,,,,,,,,,,,,,,,,,,,,,,,,,,,,,,,,,,,,,,,,,,,,,,,,,,,,,,,,,,,,
,,8,1.0777,8,1.0777,0,82,82,7,1,188,flower,tree,,89347,001,2022-04-25_15h41.16.157,SPAMnetsValid,2021.1.4,MacIntel,59.99880002,,,,,,,,,,,,,,,,,,,,,,,,,,,,,,,,,,,,,,,,,,,,,,,,,,,,,,,,,,,,,,,,,,,,,,,,,,,,,,,,,,,,,,,,,
,,2,1.3725,2,1.3725,0,83,83,55,1,143,pretzel,rose,,89347,001,2022-04-25_15h41.16.157,SPAMnetsValid,2021.1.4,MacIntel,59.99880002,,,,,,,,,,,,,,,,,,,,,,,,,,,,,,,,,,,,,,,,,,,,,,,,,,,,,,,,,,,,,,,,,,,,,,,,,,,,,,,,,,,,,,,,,
,,2,1.4286,2,1.4286,0,84,84,58,1,144,cake,garden,,89347,001,2022-04-25_15h41.16.157,SPAMnetsValid,2021.1.4,MacIntel,59.99880002,,,,,,,,,,,,,,,,,,,,,,,,,,,,,,,,,,,,,,,,,,,,,,,,,,,,,,,,,,,,,,,,,,,,,,,,,,,,,,,,,,,,,,,,,
,,5,2.0944,5,2.0944,0,85,85,40,1,165,onion,rose,,89347,001,2022-04-25_15h41.16.157,SPAMnetsValid,2021.1.4,MacIntel,59.99880002,,,,,,,,,,,,,,,,,,,,,,,,,,,,,,,,,,,,,,,,,,,,,,,,,,,,,,,,,,,,,,,,,,,,,,,,,,,,,,,,,,,,,,,,,
,,6,1.6389,6,1.6389,0,86,86,34,1,153,carrot,pretzel,,89347,001,2022-04-25_15h41.16.157,SPAMnetsValid,2021.1.4,MacIntel,59.99880002,,,,,,,,,,,,,,,,,,,,,,,,,,,,,,,,,,,,,,,,,,,,,,,,,,,,,,,,,,,,,,,,,,,,,,,,,,,,,,,,,,,,,,,,,
,,4,1.2145,4,1.2145,0,87,87,19,1,183,cake,rose,,89347,001,2022-04-25_15h41.16.157,SPAMnetsValid,2021.1.4,MacIntel,59.99880002,,,,,,,,,,,,,,,,,,,,,,,,,,,,,,,,,,,,,,,,,,,,,,,,,,,,,,,,,,,,,,,,,,,,,,,,,,,,,,,,,,,,,,,,,
,,2,2.3116,2,2.3116,0,88,88,13,1,105,cactus,oven,,89347,001,2022-04-25_15h41.16.157,SPAMnetsValid,2021.1.4,MacIntel,59.99880002,,,,,,,,,,,,,,,,,,,,,,,,,,,,,,,,,,,,,,,,,,,,,,,,,,,,,,,,,,,,,,,,,,,,,,,,,,,,,,,,,,,,,,,,,
,,3,3.7227,3,3.7227,0,89,89,68,1,180,tree,yogurt,,89347,001,2022-04-25_15h41.16.157,SPAMnetsValid,2021.1.4,MacIntel,59.99880002,,,,,,,,,,,,,,,,,,,,,,,,,,,,,,,,,,,,,,,,,,,,,,,,,,,,,,,,,,,,,,,,,,,,,,,,,,,,,,,,,,,,,,,,,
,,6,1.6722,6,1.6722,0,90,90,92,1,170,cookie,microwave,,89347,001,2022-04-25_15h41.16.157,SPAMnetsValid,2021.1.4,MacIntel,59.99880002,,,,,,,,,,,,,,,,,,,,,,,,,,,,,,,,,,,,,,,,,,,,,,,,,,,,,,,,,,,,,,,,,,,,,,,,,,,,,,,,,,,,,,,,,
,,7,3.1254,7,3.1254,0,91,91,37,1,139,carrot,strawberry,,89347,001,2022-04-25_15h41.16.157,SPAMnetsValid,2021.1.4,MacIntel,59.99880002,,,,,,,,,,,,,,,,,,,,,,,,,,,,,,,,,,,,,,,,,,,,,,,,,,,,,,,,,,,,,,,,,,,,,,,,,,,,,,,,,,,,,,,,,
,,7,2.2955,7,2.2955,0,92,92,48,1,186,kitchen,yogurt,,89347,001,2022-04-25_15h41.16.157,SPAMnetsValid,2021.1.4,MacIntel,59.99880002,,,,,,,,,,,,,,,,,,,,,,,,,,,,,,,,,,,,,,,,,,,,,,,,,,,,,,,,,,,,,,,,,,,,,,,,,,,,,,,,,,,,,,,,,
,,9,2.7754,9,2.7754,0,93,93,27,1,158,cookie,oven,,89347,001,2022-04-25_15h41.16.157,SPAMnetsValid,2021.1.4,MacIntel,59.99880002,,,,,,,,,,,,,,,,,,,,,,,,,,,,,,,,,,,,,,,,,,,,,,,,,,,,,,,,,,,,,,,,,,,,,,,,,,,,,,,,,,,,,,,,,
,,1,2.4377,1,2.4377,0,94,94,71,1,187,cactus,microwave,,89347,001,2022-04-25_15h41.16.157,SPAMnetsValid,2021.1.4,MacIntel,59.99880002,,,,,,,,,,,,,,,,,,,,,,,,,,,,,,,,,,,,,,,,,,,,,,,,,,,,,,,,,,,,,,,,,,,,,,,,,,,,,,,,,,,,,,,,,
,,7,2.0315,7,2.0315,0,95,95,85,1,115,refrigerator,tomato,,89347,001,2022-04-25_15h41.16.157,SPAMnetsValid,2021.1.4,MacIntel,59.99880002,,,,,,,,,,,,,,,,,,,,,,,,,,,,,,,,,,,,,,,,,,,,,,,,,,,,,,,,,,,,,,,,,,,,,,,,,,,,,,,,,,,,,,,,,
,,8,1.3782,8,1.3782,0,96,96,53,1,177,chocolate,strawberry,,89347,001,2022-04-25_15h41.16.157,SPAMnetsValid,2021.1.4,MacIntel,59.99880002,,,,,,,,,,,,,,,,,,,,,,,,,,,,,,,,,,,,,,,,,,,,,,,,,,,,,,,,,,,,,,,,,,,,,,,,,,,,,,,,,,,,,,,,,
,,,,,,,,,,,,,,,89347,001,2022-04-25_15h41.16.157,SPAMnetsValid,2021.1.4,MacIntel,59.99880002,0,0,0,0,1,,,,,,,,,,,,,,,,,,,,,,,,,,,,,,,,,,,,,,,,,,,,,,,,,,,,,,,,,,,,,,,,,,,,,,,,,,,,,,,,,,,,
,,,,,,,,,,,,,,,89347,001,2022-04-25_15h41.16.157,SPAMnetsValid,2021.1.4,MacIntel,59.99880002,,,,,,0,0,0,1,1,0,1,,,,,,,,,,,,,,,,,,,,,,,,,,,,,,,,,,,,,,,,,,,,,,,,,,,,,,,,,,,,,,,,,,,,,,,,,,,,,
,,,,3,13.5591,,,,,,67,flower,yogurt,,89347,001,2022-04-25_15h41.16.157,SPAMnetsValid,2021.1.4,MacIntel,59.99880002,,,,,,,,,,,,,3,13.5591,0,0,0,12,1,,,,,,,,,,,,,,,,,,,,,,,,,,,,,,,,,,,,,,,,,,,,,,,,,,,,,,,,,,,,,,,,,,,,,,
,,,,6,1.403,,,,,,22,kitchen,strawberry,,89347,001,2022-04-25_15h41.16.157,SPAMnetsValid,2021.1.4,MacIntel,59.99880002,,,,,,,,,,,,,6,1.403,0,1,1,2,1,,,,,,,,,,,,,,,,,,,,,,,,,,,,,,,,,,,,,,,,,,,,,,,,,,,,,,,,,,,,,,,,,,,,,,
,,,,6,2.0895,,,,,,49,flower,strawberry,,89347,001,2022-04-25_15h41.16.157,SPAMnetsValid,2021.1.4,MacIntel,59.99880002,,,,,,,,,,,,,6,2.0895,0,2,2,3,1,,,,,,,,,,,,,,,,,,,,,,,,,,,,,,,,,,,,,,,,,,,,,,,,,,,,,,,,,,,,,,,,,,,,,,
,,,,8,2.1548,,,,,,76,garden,rose,,89347,001,2022-04-25_15h41.16.157,SPAMnetsValid,2021.1.4,MacIntel,59.99880002,,,,,,,,,,,,,8,2.1548,0,3,3,19,1,,,,,,,,,,,,,,,,,,,,,,,,,,,,,,,,,,,,,,,,,,,,,,,,,,,,,,,,,,,,,,,,,,,,,,
,,,,2,2.606,,,,,,21,cake,onion,,89347,001,2022-04-25_15h41.16.157,SPAMnetsValid,2021.1.4,MacIntel,59.99880002,,,,,,,,,,,,,2,2.606,0,4,4,63,1,,,,,,,,,,,,,,,,,,,,,,,,,,,,,,,,,,,,,,,,,,,,,,,,,,,,,,,,,,,,,,,,,,,,,,
,,,,6,1.8149,,,,,,88,cactus,melon,,89347,001,2022-04-25_15h41.16.157,SPAMnetsValid,2021.1.4,MacIntel,59.99880002,,,,,,,,,,,,,6,1.8149,0,5,5,38,1,,,,,,,,,,,,,,,,,,,,,,,,,,,,,,,,,,,,,,,,,,,,,,,,,,,,,,,,,,,,,,,,,,,,,,
,,,,3,1.9714,,,,,,53,garden,pretzel,,89347,001,2022-04-25_15h41.16.157,SPAMnetsValid,2021.1.4,MacIntel,59.99880002,,,,,,,,,,,,,3,1.9714,0,6,6,0,1,,,,,,,,,,,,,,,,,,,,,,,,,,,,,,,,,,,,,,,,,,,,,,,,,,,,,,,,,,,,,,,,,,,,,,
,,,,8,2.8752,,,,,,47,onion,tomato,,89347,001,2022-04-25_15h41.16.157,SPAMnetsValid,2021.1.4,MacIntel,59.99880002,,,,,,,,,,,,,8,2.8752,0,7,7,51,1,,,,,,,,,,,,,,,,,,,,,,,,,,,,,,,,,,,,,,,,,,,,,,,,,,,,,,,,,,,,,,,,,,,,,,
,,,,6,1.6285,,,,,,62,kitchen,rose,,89347,001,2022-04-25_15h41.16.157,SPAMnetsValid,2021.1.4,MacIntel,59.99880002,,,,,,,,,,,,,6,1.6285,0,8,8,57,1,,,,,,,,,,,,,,,,,,,,,,,,,,,,,,,,,,,,,,,,,,,,,,,,,,,,,,,,,,,,,,,,,,,,,,
,,,,7,1.5297,,,,,,25,carrot,onion,,89347,001,2022-04-25_15h41.16.157,SPAMnetsValid,2021.1.4,MacIntel,59.99880002,,,,,,,,,,,,,7,1.5297,0,9,9,44,1,,,,,,,,,,,,,,,,,,,,,,,,,,,,,,,,,,,,,,,,,,,,,,,,,,,,,,,,,,,,,,,,,,,,,,
,,,,9,1.6441,,,,,,94,kitchen,microwave,,89347,001,2022-04-25_15h41.16.157,SPAMnetsValid,2021.1.4,MacIntel,59.99880002,,,,,,,,,,,,,9,1.6441,0,10,10,58,1,,,,,,,,,,,,,,,,,,,,,,,,,,,,,,,,,,,,,,,,,,,,,,,,,,,,,,,,,,,,,,,,,,,,,,
,,,,1,2.4818,,,,,,70,chocolate,onion,,89347,001,2022-04-25_15h41.16.157,SPAMnetsValid,2021.1.4,MacIntel,59.99880002,,,,,,,,,,,,,1,2.4818,0,11,11,74,1,,,,,,,,,,,,,,,,,,,,,,,,,,,,,,,,,,,,,,,,,,,,,,,,,,,,,,,,,,,,,,,,,,,,,,
,,,,5,4.1488,,,,,,15,onion,oven,,89347,001,2022-04-25_15h41.16.157,SPAMnetsValid,2021.1.4,MacIntel,59.99880002,,,,,,,,,,,,,5,4.1488,0,12,12,39,1,,,,,,,,,,,,,,,,,,,,,,,,,,,,,,,,,,,,,,,,,,,,,,,,,,,,,,,,,,,,,,,,,,,,,,
,,,,5,4.5395,,,,,,30,cookie,pretzel,,89347,001,2022-04-25_15h41.16.157,SPAMnetsValid,2021.1.4,MacIntel,59.99880002,,,,,,,,,,,,,5,4.5395,0,13,13,78,1,,,,,,,,,,,,,,,,,,,,,,,,,,,,,,,,,,,,,,,,,,,,,,,,,,,,,,,,,,,,,,,,,,,,,,
,,,,3,2.9962,,,,,,38,pretzel,refrigerator,,89347,001,2022-04-25_15h41.16.157,SPAMnetsValid,2021.1.4,MacIntel,59.99880002,,,,,,,,,,,,,3,2.9962,0,14,14,71,1,,,,,,,,,,,,,,,,,,,,,,,,,,,,,,,,,,,,,,,,,,,,,,,,,,,,,,,,,,,,,,,,,,,,,,
,,,,6,2.822,,,,,,89,chocolate,rose,,89347,001,2022-04-25_15h41.16.157,SPAMnetsValid,2021.1.4,MacIntel,59.99880002,,,,,,,,,,,,,6,2.822,0,15,15,60,1,,,,,,,,,,,,,,,,,,,,,,,,,,,,,,,,,,,,,,,,,,,,,,,,,,,,,,,,,,,,,,,,,,,,,,
,,,,6,2.8869,,,,,,52,carrot,tomato,,89347,001,2022-04-25_15h41.16.157,SPAMnetsValid,2021.1.4,MacIntel,59.99880002,,,,,,,,,,,,,6,2.8869,0,16,16,95,1,,,,,,,,,,,,,,,,,,,,,,,,,,,,,,,,,,,,,,,,,,,,,,,,,,,,,,,,,,,,,,,,,,,,,,
,,,,1,1.5784,,,,,,5,oven,tree,,89347,001,2022-04-25_15h41.16.157,SPAMnetsValid,2021.1.4,MacIntel,59.99880002,,,,,,,,,,,,,1,1.5784,0,17,17,70,1,,,,,,,,,,,,,,,,,,,,,,,,,,,,,,,,,,,,,,,,,,,,,,,,,,,,,,,,,,,,,,,,,,,,,,
,,,,3,1.3984,,,,,,81,pretzel,yogurt,,89347,001,2022-04-25_15h41.16.157,SPAMnetsValid,2021.1.4,MacIntel,59.99880002,,,,,,,,,,,,,3,1.3984,0,18,18,50,1,,,,,,,,,,,,,,,,,,,,,,,,,,,,,,,,,,,,,,,,,,,,,,,,,,,,,,,,,,,,,,,,,,,,,,
,,,,6,2.4208,,,,,,87,carrot,yogurt,,89347,001,2022-04-25_15h41.16.157,SPAMnetsValid,2021.1.4,MacIntel,59.99880002,,,,,,,,,,,,,6,2.4208,0,19,19,6,1,,,,,,,,,,,,,,,,,,,,,,,,,,,,,,,,,,,,,,,,,,,,,,,,,,,,,,,,,,,,,,,,,,,,,,
,,,,4,2.6457,,,,,,44,cookie,melon,,89347,001,2022-04-25_15h41.16.157,SPAMnetsValid,2021.1.4,MacIntel,59.99880002,,,,,,,,,,,,,4,2.6457,0,20,20,92,1,,,,,,,,,,,,,,,,,,,,,,,,,,,,,,,,,,,,,,,,,,,,,,,,,,,,,,,,,,,,,,,,,,,,,,
,,,,1,1.9814,,,,,,41,broom,cactus,,89347,001,2022-04-25_15h41.16.157,SPAMnetsValid,2021.1.4,MacIntel,59.99880002,,,,,,,,,,,,,1,1.9814,0,21,21,46,1,,,,,,,,,,,,,,,,,,,,,,,,,,,,,,,,,,,,,,,,,,,,,,,,,,,,,,,,,,,,,,,,,,,,,,
,,,,6,3.0557,,,,,,16,chocolate,flower,,89347,001,2022-04-25_15h41.16.157,SPAMnetsValid,2021.1.4,MacIntel,59.99880002,,,,,,,,,,,,,6,3.0557,0,22,22,22,1,,,,,,,,,,,,,,,,,,,,,,,,,,,,,,,,,,,,,,,,,,,,,,,,,,,,,,,,,,,,,,,,,,,,,,
,,,,2,2.0662,,,,,,35,flower,pretzel,,89347,001,2022-04-25_15h41.16.157,SPAMnetsValid,2021.1.4,MacIntel,59.99880002,,,,,,,,,,,,,2,2.0662,0,23,23,26,1,,,,,,,,,,,,,,,,,,,,,,,,,,,,,,,,,,,,,,,,,,,,,,,,,,,,,,,,,,,,,,,,,,,,,,
,,,,5,3.7587,,,,,,54,chocolate,yogurt,,89347,001,2022-04-25_15h41.16.157,SPAMnetsValid,2021.1.4,MacIntel,59.99880002,,,,,,,,,,,,,5,3.7587,0,24,24,67,1,,,,,,,,,,,,,,,,,,,,,,,,,,,,,,,,,,,,,,,,,,,,,,,,,,,,,,,,,,,,,,,,,,,,,,
,,,,2,1.7054,,,,,,60,cactus,onion,,89347,001,2022-04-25_15h41.16.157,SPAMnetsValid,2021.1.4,MacIntel,59.99880002,,,,,,,,,,,,,2,1.7054,0,25,25,81,1,,,,,,,,,,,,,,,,,,,,,,,,,,,,,,,,,,,,,,,,,,,,,,,,,,,,,,,,,,,,,,,,,,,,,,
,,,,1,1.5609,,,,,,14,broom,cookie,,89347,001,2022-04-25_15h41.16.157,SPAMnetsValid,2021.1.4,MacIntel,59.99880002,,,,,,,,,,,,,1,1.5609,0,26,26,16,1,,,,,,,,,,,,,,,,,,,,,,,,,,,,,,,,,,,,,,,,,,,,,,,,,,,,,,,,,,,,,,,,,,,,,,
,,,,1,1.5435,,,,,,75,cookie,onion,,89347,001,2022-04-25_15h41.16.157,SPAMnetsValid,2021.1.4,MacIntel,59.99880002,,,,,,,,,,,,,1,1.5435,0,27,27,9,1,,,,,,,,,,,,,,,,,,,,,,,,,,,,,,,,,,,,,,,,,,,,,,,,,,,,,,,,,,,,,,,,,,,,,,
,,,,2,1.9103,,,,,,74,broom,pretzel,,89347,001,2022-04-25_15h41.16.157,SPAMnetsValid,2021.1.4,MacIntel,59.99880002,,,,,,,,,,,,,2,1.9103,0,28,28,40,1,,,,,,,,,,,,,,,,,,,,,,,,,,,,,,,,,,,,,,,,,,,,,,,,,,,,,,,,,,,,,,,,,,,,,,
,,,,1,1.8561,,,,,,64,chocolate,garden,,89347,001,2022-04-25_15h41.16.157,SPAMnetsValid,2021.1.4,MacIntel,59.99880002,,,,,,,,,,,,,1,1.8561,0,29,29,14,1,,,,,,,,,,,,,,,,,,,,,,,,,,,,,,,,,,,,,,,,,,,,,,,,,,,,,,,,,,,,,,,,,,,,,,
,,,,6,1.6712,,,,,,61,strawberry,tomato,,89347,001,2022-04-25_15h41.16.157,SPAMnetsValid,2021.1.4,MacIntel,59.99880002,,,,,,,,,,,,,6,1.6712,0,30,30,80,1,,,,,,,,,,,,,,,,,,,,,,,,,,,,,,,,,,,,,,,,,,,,,,,,,,,,,,,,,,,,,,,,,,,,,,
,,,,6,1.1402,,,,,,59,rose,strawberry,,89347,001,2022-04-25_15h41.16.157,SPAMnetsValid,2021.1.4,MacIntel,59.99880002,,,,,,,,,,,,,6,1.1402,0,31,31,72,1,,,,,,,,,,,,,,,,,,,,,,,,,,,,,,,,,,,,,,,,,,,,,,,,,,,,,,,,,,,,,,,,,,,,,,
,,,,3,1.5324,,,,,,58,garden,oven,,89347,001,2022-04-25_15h41.16.157,SPAMnetsValid,2021.1.4,MacIntel,59.99880002,,,,,,,,,,,,,3,1.5324,0,32,32,37,1,,,,,,,,,,,,,,,,,,,,,,,,,,,,,,,,,,,,,,,,,,,,,,,,,,,,,,,,,,,,,,,,,,,,,,
,,,,6,2.1406,,,,,,37,garden,refrigerator,,89347,001,2022-04-25_15h41.16.157,SPAMnetsValid,2021.1.4,MacIntel,59.99880002,,,,,,,,,,,,,6,2.1406,0,33,33,11,1,,,,,,,,,,,,,,,,,,,,,,,,,,,,,,,,,,,,,,,,,,,,,,,,,,,,,,,,,,,,,,,,,,,,,,
,,,,8,2.0059,,,,,,79,garden,strawberry,,89347,001,2022-04-25_15h41.16.157,SPAMnetsValid,2021.1.4,MacIntel,59.99880002,,,,,,,,,,,,,8,2.0059,0,34,34,87,1,,,,,,,,,,,,,,,,,,,,,,,,,,,,,,,,,,,,,,,,,,,,,,,,,,,,,,,,,,,,,,,,,,,,,,
,,,,3,1.6379,,,,,,10,flower,onion,,89347,001,2022-04-25_15h41.16.157,SPAMnetsValid,2021.1.4,MacIntel,59.99880002,,,,,,,,,,,,,3,1.6379,0,35,35,45,1,,,,,,,,,,,,,,,,,,,,,,,,,,,,,,,,,,,,,,,,,,,,,,,,,,,,,,,,,,,,,,,,,,,,,,
,,,,1,1.4226,,,,,,26,tomato,yogurt,,89347,001,2022-04-25_15h41.16.157,SPAMnetsValid,2021.1.4,MacIntel,59.99880002,,,,,,,,,,,,,1,1.4226,0,36,36,13,1,,,,,,,,,,,,,,,,,,,,,,,,,,,,,,,,,,,,,,,,,,,,,,,,,,,,,,,,,,,,,,,,,,,,,,
,,,,9,1.8159,,,,,,93,kitchen,oven,,89347,001,2022-04-25_15h41.16.157,SPAMnetsValid,2021.1.4,MacIntel,59.99880002,,,,,,,,,,,,,9,1.8159,0,37,37,82,1,,,,,,,,,,,,,,,,,,,,,,,,,,,,,,,,,,,,,,,,,,,,,,,,,,,,,,,,,,,,,,,,,,,,,,
,,,,8,1.4573,,,,,,63,cake,cookie,,89347,001,2022-04-25_15h41.16.157,SPAMnetsValid,2021.1.4,MacIntel,59.99880002,,,,,,,,,,,,,8,1.4573,0,38,38,93,1,,,,,,,,,,,,,,,,,,,,,,,,,,,,,,,,,,,,,,,,,,,,,,,,,,,,,,,,,,,,,,,,,,,,,,
,,,,1,1.4224,,,,,,90,cactus,cake,,89347,001,2022-04-25_15h41.16.157,SPAMnetsValid,2021.1.4,MacIntel,59.99880002,,,,,,,,,,,,,1,1.4224,0,39,39,85,1,,,,,,,,,,,,,,,,,,,,,,,,,,,,,,,,,,,,,,,,,,,,,,,,,,,,,,,,,,,,,,,,,,,,,,
,,,,1,1.8411,,,,,,91,microwave,rose,,89347,001,2022-04-25_15h41.16.157,SPAMnetsValid,2021.1.4,MacIntel,59.99880002,,,,,,,,,,,,,1,1.8411,0,40,40,84,1,,,,,,,,,,,,,,,,,,,,,,,,,,,,,,,,,,,,,,,,,,,,,,,,,,,,,,,,,,,,,,,,,,,,,,
,,,,1,1.3713,,,,,,34,melon,oven,,89347,001,2022-04-25_15h41.16.157,SPAMnetsValid,2021.1.4,MacIntel,59.99880002,,,,,,,,,,,,,1,1.3713,0,41,41,7,1,,,,,,,,,,,,,,,,,,,,,,,,,,,,,,,,,,,,,,,,,,,,,,,,,,,,,,,,,,,,,,,,,,,,,,
,,,,6,2.4275,,,,,,18,onion,refrigerator,,89347,001,2022-04-25_15h41.16.157,SPAMnetsValid,2021.1.4,MacIntel,59.99880002,,,,,,,,,,,,,6,2.4275,0,42,42,62,1,,,,,,,,,,,,,,,,,,,,,,,,,,,,,,,,,,,,,,,,,,,,,,,,,,,,,,,,,,,,,,,,,,,,,,
,,,,4,2.935,,,,,,78,cookie,rose,,89347,001,2022-04-25_15h41.16.157,SPAMnetsValid,2021.1.4,MacIntel,59.99880002,,,,,,,,,,,,,4,2.935,0,43,43,56,1,,,,,,,,,,,,,,,,,,,,,,,,,,,,,,,,,,,,,,,,,,,,,,,,,,,,,,,,,,,,,,,,,,,,,,
,,,,2,1.6248,,,,,,92,broom,flower,,89347,001,2022-04-25_15h41.16.157,SPAMnetsValid,2021.1.4,MacIntel,59.99880002,,,,,,,,,,,,,2,1.6248,0,44,44,88,1,,,,,,,,,,,,,,,,,,,,,,,,,,,,,,,,,,,,,,,,,,,,,,,,,,,,,,,,,,,,,,,,,,,,,,
,,,,1,1.3805,,,,,,48,flower,oven,,89347,001,2022-04-25_15h41.16.157,SPAMnetsValid,2021.1.4,MacIntel,59.99880002,,,,,,,,,,,,,1,1.3805,0,45,45,15,1,,,,,,,,,,,,,,,,,,,,,,,,,,,,,,,,,,,,,,,,,,,,,,,,,,,,,,,,,,,,,,,,,,,,,,
,,,,2,2.5311,,,,,,51,onion,strawberry,,89347,001,2022-04-25_15h41.16.157,SPAMnetsValid,2021.1.4,MacIntel,59.99880002,,,,,,,,,,,,,2,2.5311,0,46,46,86,1,,,,,,,,,,,,,,,,,,,,,,,,,,,,,,,,,,,,,,,,,,,,,,,,,,,,,,,,,,,,,,,,,,,,,,
,,,,6,1.4051,,,,,,2,kitchen,onion,,89347,001,2022-04-25_15h41.16.157,SPAMnetsValid,2021.1.4,MacIntel,59.99880002,,,,,,,,,,,,,6,1.4051,0,47,47,91,1,,,,,,,,,,,,,,,,,,,,,,,,,,,,,,,,,,,,,,,,,,,,,,,,,,,,,,,,,,,,,,,,,,,,,,
,,,,2,2.1879,,,,,,40,broom,cake,,89347,001,2022-04-25_15h41.16.157,SPAMnetsValid,2021.1.4,MacIntel,59.99880002,,,,,,,,,,,,,2,2.1879,0,48,48,32,1,,,,,,,,,,,,,,,,,,,,,,,,,,,,,,,,,,,,,,,,,,,,,,,,,,,,,,,,,,,,,,,,,,,,,,
,,,,3,3.4921,,,,,,45,onion,pretzel,,89347,001,2022-04-25_15h41.16.157,SPAMnetsValid,2021.1.4,MacIntel,59.99880002,,,,,,,,,,,,,3,3.4921,0,49,49,69,1,,,,,,,,,,,,,,,,,,,,,,,,,,,,,,,,,,,,,,,,,,,,,,,,,,,,,,,,,,,,,,,,,,,,,,
,,,,9,2.8731,,,,,,4,chocolate,pretzel,,89347,001,2022-04-25_15h41.16.157,SPAMnetsValid,2021.1.4,MacIntel,59.99880002,,,,,,,,,,,,,9,2.8731,0,50,50,52,1,,,,,,,,,,,,,,,,,,,,,,,,,,,,,,,,,,,,,,,,,,,,,,,,,,,,,,,,,,,,,,,,,,,,,,
,,,,9,1.2818,,,,,,9,kitchen,refrigerator,,89347,001,2022-04-25_15h41.16.157,SPAMnetsValid,2021.1.4,MacIntel,59.99880002,,,,,,,,,,,,,9,1.2818,0,51,51,64,1,,,,,,,,,,,,,,,,,,,,,,,,,,,,,,,,,,,,,,,,,,,,,,,,,,,,,,,,,,,,,,,,,,,,,,
,,,,4,1.5618,,,,,,68,flower,tomato,,89347,001,2022-04-25_15h41.16.157,SPAMnetsValid,2021.1.4,MacIntel,59.99880002,,,,,,,,,,,,,4,1.5618,0,52,52,94,1,,,,,,,,,,,,,,,,,,,,,,,,,,,,,,,,,,,,,,,,,,,,,,,,,,,,,,,,,,,,,,,,,,,,,,
,,,,1,1.6381,,,,,,33,oven,yogurt,,89347,001,2022-04-25_15h41.16.157,SPAMnetsValid,2021.1.4,MacIntel,59.99880002,,,,,,,,,,,,,1,1.6381,0,53,53,31,1,,,,,,,,,,,,,,,,,,,,,,,,,,,,,,,,,,,,,,,,,,,,,,,,,,,,,,,,,,,,,,,,,,,,,,
,,,,1,1.5524,,,,,,83,broom,carrot,,89347,001,2022-04-25_15h41.16.157,SPAMnetsValid,2021.1.4,MacIntel,59.99880002,,,,,,,,,,,,,1,1.5524,0,54,54,4,1,,,,,,,,,,,,,,,,,,,,,,,,,,,,,,,,,,,,,,,,,,,,,,,,,,,,,,,,,,,,,,,,,,,,,,
,,,,4,1.6662,,,,,,65,broom,garden,,89347,001,2022-04-25_15h41.16.157,SPAMnetsValid,2021.1.4,MacIntel,59.99880002,,,,,,,,,,,,,4,1.6662,0,55,55,23,1,,,,,,,,,,,,,,,,,,,,,,,,,,,,,,,,,,,,,,,,,,,,,,,,,,,,,,,,,,,,,,,,,,,,,,
,,,,2,3.7664,,,,,,11,refrigerator,tree,,89347,001,2022-04-25_15h41.16.157,SPAMnetsValid,2021.1.4,MacIntel,59.99880002,,,,,,,,,,,,,2,3.7664,0,56,56,43,1,,,,,,,,,,,,,,,,,,,,,,,,,,,,,,,,,,,,,,,,,,,,,,,,,,,,,,,,,,,,,,,,,,,,,,
,,,,7,3.8881,,,,,,32,cake,microwave,,89347,001,2022-04-25_15h41.16.157,SPAMnetsValid,2021.1.4,MacIntel,59.99880002,,,,,,,,,,,,,7,3.8881,0,57,57,33,1,,,,,,,,,,,,,,,,,,,,,,,,,,,,,,,,,,,,,,,,,,,,,,,,,,,,,,,,,,,,,,,,,,,,,,
,,,,4,1.354,,,,,,12,cookie,yogurt,,89347,001,2022-04-25_15h41.16.157,SPAMnetsValid,2021.1.4,MacIntel,59.99880002,,,,,,,,,,,,,4,1.354,0,58,58,36,1,,,,,,,,,,,,,,,,,,,,,,,,,,,,,,,,,,,,,,,,,,,,,,,,,,,,,,,,,,,,,,,,,,,,,,
,,,,1,3.0882,,,,,,31,cactus,pretzel,,89347,001,2022-04-25_15h41.16.157,SPAMnetsValid,2021.1.4,MacIntel,59.99880002,,,,,,,,,,,,,1,3.0882,0,59,59,1,1,,,,,,,,,,,,,,,,,,,,,,,,,,,,,,,,,,,,,,,,,,,,,,,,,,,,,,,,,,,,,,,,,,,,,,
,,,,1,1.1038,,,,,,39,melon,pretzel,,89347,001,2022-04-25_15h41.16.157,SPAMnetsValid,2021.1.4,MacIntel,59.99880002,,,,,,,,,,,,,1,1.1038,0,60,60,20,1,,,,,,,,,,,,,,,,,,,,,,,,,,,,,,,,,,,,,,,,,,,,,,,,,,,,,,,,,,,,,,,,,,,,,,
,,,,8,1.7247,,,,,,77,refrigerator,yogurt,,89347,001,2022-04-25_15h41.16.157,SPAMnetsValid,2021.1.4,MacIntel,59.99880002,,,,,,,,,,,,,8,1.7247,0,61,61,42,1,,,,,,,,,,,,,,,,,,,,,,,,,,,,,,,,,,,,,,,,,,,,,,,,,,,,,,,,,,,,,,,,,,,,,,
,,,,1,1.7403,,,,,,73,broom,chocolate,,89347,001,2022-04-25_15h41.16.157,SPAMnetsValid,2021.1.4,MacIntel,59.99880002,,,,,,,,,,,,,1,1.7403,0,62,62,47,1,,,,,,,,,,,,,,,,,,,,,,,,,,,,,,,,,,,,,,,,,,,,,,,,,,,,,,,,,,,,,,,,,,,,,,
,,,,2,2.163,,,,,,43,chocolate,tomato,,89347,001,2022-04-25_15h41.16.157,SPAMnetsValid,2021.1.4,MacIntel,59.99880002,,,,,,,,,,,,,2,2.163,0,63,63,8,1,,,,,,,,,,,,,,,,,,,,,,,,,,,,,,,,,,,,,,,,,,,,,,,,,,,,,,,,,,,,,,,,,,,,,,
,,,,4,2.3269,,,,,,95,broom,refrigerator,,89347,001,2022-04-25_15h41.16.157,SPAMnetsValid,2021.1.4,MacIntel,59.99880002,,,,,,,,,,,,,4,2.3269,0,64,64,90,1,,,,,,,,,,,,,,,,,,,,,,,,,,,,,,,,,,,,,,,,,,,,,,,,,,,,,,,,,,,,,,,,,,,,,,
,,,,5,1.194,,,,,,7,melon,tree,,89347,001,2022-04-25_15h41.16.157,SPAMnetsValid,2021.1.4,MacIntel,59.99880002,,,,,,,,,,,,,5,1.194,0,65,65,77,1,,,,,,,,,,,,,,,,,,,,,,,,,,,,,,,,,,,,,,,,,,,,,,,,,,,,,,,,,,,,,,,,,,,,,,
,,,,6,1.6465,,,,,,6,garden,onion,,89347,001,2022-04-25_15h41.16.157,SPAMnetsValid,2021.1.4,MacIntel,59.99880002,,,,,,,,,,,,,6,1.6465,0,66,66,83,1,,,,,,,,,,,,,,,,,,,,,,,,,,,,,,,,,,,,,,,,,,,,,,,,,,,,,,,,,,,,,,,,,,,,,,
,,,,2,1.5853,,,,,,85,cake,tree,,89347,001,2022-04-25_15h41.16.157,SPAMnetsValid,2021.1.4,MacIntel,59.99880002,,,,,,,,,,,,,2,1.5853,0,67,67,18,1,,,,,,,,,,,,,,,,,,,,,,,,,,,,,,,,,,,,,,,,,,,,,,,,,,,,,,,,,,,,,,,,,,,,,,
,,,,2,1.2355,,,,,,27,cactus,cookie,,89347,001,2022-04-25_15h41.16.157,SPAMnetsValid,2021.1.4,MacIntel,59.99880002,,,,,,,,,,,,,2,1.2355,0,68,68,17,1,,,,,,,,,,,,,,,,,,,,,,,,,,,,,,,,,,,,,,,,,,,,,,,,,,,,,,,,,,,,,,,,,,,,,,
,,,,9,1.4441,,,,,,192,microwave,microwave,CHECK,89347,001,2022-04-25_15h41.16.157,SPAMnetsValid,2021.1.4,MacIntel,59.99880002,,,,,,,,,,,,,9,1.4441,0,69,69,53,1,,,,,,,,,,,,,,,,,,,,,,,,,,,,,,,,,,,,,,,,,,,,,,,,,,,,,,,,,,,,,,,,,,,,,,
,,,,9,1.8313,,,,,,3,cake,oven,,89347,001,2022-04-25_15h41.16.157,SPAMnetsValid,2021.1.4,MacIntel,59.99880002,,,,,,,,,,,,,9,1.8313,0,70,70,30,1,,,,,,,,,,,,,,,,,,,,,,,,,,,,,,,,,,,,,,,,,,,,,,,,,,,,,,,,,,,,,,,,,,,,,,
,,,,8,1.6892,,,,,,69,carrot,refrigerator,,89347,001,2022-04-25_15h41.16.157,SPAMnetsValid,2021.1.4,MacIntel,59.99880002,,,,,,,,,,,,,8,1.6892,0,71,71,75,1,,,,,,,,,,,,,,,,,,,,,,,,,,,,,,,,,,,,,,,,,,,,,,,,,,,,,,,,,,,,,,,,,,,,,,
,,,,2,2.2153,,,,,,29,chocolate,melon,,89347,001,2022-04-25_15h41.16.157,SPAMnetsValid,2021.1.4,MacIntel,59.99880002,,,,,,,,,,,,,2,2.2153,0,72,72,34,1,,,,,,,,,,,,,,,,,,,,,,,,,,,,,,,,,,,,,,,,,,,,,,,,,,,,,,,,,,,,,,,,,,,,,,
,,,,2,1.3445,,,,,,23,flower,microwave,,89347,001,2022-04-25_15h41.16.157,SPAMnetsValid,2021.1.4,MacIntel,59.99880002,,,,,,,,,,,,,2,1.3445,0,73,73,25,1,,,,,,,,,,,,,,,,,,,,,,,,,,,,,,,,,,,,,,,,,,,,,,,,,,,,,,,,,,,,,,,,,,,,,,
,,,,3,1.7115,,,,,,50,carrot,rose,,89347,001,2022-04-25_15h41.16.157,SPAMnetsValid,2021.1.4,MacIntel,59.99880002,,,,,,,,,,,,,3,1.7115,0,74,74,73,1,,,,,,,,,,,,,,,,,,,,,,,,,,,,,,,,,,,,,,,,,,,,,,,,,,,,,,,,,,,,,,,,,,,,,,
,,,,7,2.1976,,,,,,82,cake,kitchen,,89347,001,2022-04-25_15h41.16.157,SPAMnetsValid,2021.1.4,MacIntel,59.99880002,,,,,,,,,,,,,7,2.1976,0,75,75,96,1,,,,,,,,,,,,,,,,,,,,,,,,,,,,,,,,,,,,,,,,,,,,,,,,,,,,,,,,,,,,,,,,,,,,,,
,,,,4,1.528,,,,,,56,cactus,tree,,89347,001,2022-04-25_15h41.16.157,SPAMnetsValid,2021.1.4,MacIntel,59.99880002,,,,,,,,,,,,,4,1.528,0,76,76,21,1,,,,,,,,,,,,,,,,,,,,,,,,,,,,,,,,,,,,,,,,,,,,,,,,,,,,,,,,,,,,,,,,,,,,,,
,,,,2,1.7266,,,,,,80,chocolate,tree,,89347,001,2022-04-25_15h41.16.157,SPAMnetsValid,2021.1.4,MacIntel,59.99880002,,,,,,,,,,,,,2,1.7266,0,77,77,89,1,,,,,,,,,,,,,,,,,,,,,,,,,,,,,,,,,,,,,,,,,,,,,,,,,,,,,,,,,,,,,,,,,,,,,,
,,,,6,1.4113,,,,,,57,flower,kitchen,,89347,001,2022-04-25_15h41.16.157,SPAMnetsValid,2021.1.4,MacIntel,59.99880002,,,,,,,,,,,,,6,1.4113,0,78,78,49,1,,,,,,,,,,,,,,,,,,,,,,,,,,,,,,,,,,,,,,,,,,,,,,,,,,,,,,,,,,,,,,,,,,,,,,
,,,,2,1.9899,,,,,,8,broom,melon,,89347,001,2022-04-25_15h41.16.157,SPAMnetsValid,2021.1.4,MacIntel,59.99880002,,,,,,,,,,,,,2,1.9899,0,79,79,59,1,,,,,,,,,,,,,,,,,,,,,,,,,,,,,,,,,,,,,,,,,,,,,,,,,,,,,,,,,,,,,,,,,,,,,,
,,,,2,1.712,,,,,,1,rose,yogurt,,89347,001,2022-04-25_15h41.16.157,SPAMnetsValid,2021.1.4,MacIntel,59.99880002,,,,,,,,,,,,,2,1.712,0,80,80,55,1,,,,,,,,,,,,,,,,,,,,,,,,,,,,,,,,,,,,,,,,,,,,,,,,,,,,,,,,,,,,,,,,,,,,,,
,,,,6,2.5824,,,,,,42,garden,kitchen,,89347,001,2022-04-25_15h41.16.157,SPAMnetsValid,2021.1.4,MacIntel,59.99880002,,,,,,,,,,,,,6,2.5824,0,81,81,29,1,,,,,,,,,,,,,,,,,,,,,,,,,,,,,,,,,,,,,,,,,,,,,,,,,,,,,,,,,,,,,,,,,,,,,,
,,,,2,1.4654,,,,,,13,broom,yogurt,,89347,001,2022-04-25_15h41.16.157,SPAMnetsValid,2021.1.4,MacIntel,59.99880002,,,,,,,,,,,,,2,1.4654,0,82,82,5,1,,,,,,,,,,,,,,,,,,,,,,,,,,,,,,,,,,,,,,,,,,,,,,,,,,,,,,,,,,,,,,,,,,,,,,
,,,,2,1.2154,,,,,,84,oven,tomato,,89347,001,2022-04-25_15h41.16.157,SPAMnetsValid,2021.1.4,MacIntel,59.99880002,,,,,,,,,,,,,2,1.2154,0,83,83,28,1,,,,,,,,,,,,,,,,,,,,,,,,,,,,,,,,,,,,,,,,,,,,,,,,,,,,,,,,,,,,,,,,,,,,,,
,,,,5,3.2154,,,,,,20,rose,tree,,89347,001,2022-04-25_15h41.16.157,SPAMnetsValid,2021.1.4,MacIntel,59.99880002,,,,,,,,,,,,,5,3.2154,0,84,84,66,1,,,,,,,,,,,,,,,,,,,,,,,,,,,,,,,,,,,,,,,,,,,,,,,,,,,,,,,,,,,,,,,,,,,,,,
,,,,2,4.6737,,,,,,19,microwave,pretzel,,89347,001,2022-04-25_15h41.16.157,SPAMnetsValid,2021.1.4,MacIntel,59.99880002,,,,,,,,,,,,,2,4.6737,0,85,85,41,1,,,,,,,,,,,,,,,,,,,,,,,,,,,,,,,,,,,,,,,,,,,,,,,,,,,,,,,,,,,,,,,,,,,,,,
,,,,1,2.6718,,,,,,46,garden,yogurt,,89347,001,2022-04-25_15h41.16.157,SPAMnetsValid,2021.1.4,MacIntel,59.99880002,,,,,,,,,,,,,1,2.6718,0,86,86,65,1,,,,,,,,,,,,,,,,,,,,,,,,,,,,,,,,,,,,,,,,,,,,,,,,,,,,,,,,,,,,,,,,,,,,,,
,,,,1,2.1891,,,,,,86,oven,rose,,89347,001,2022-04-25_15h41.16.157,SPAMnetsValid,2021.1.4,MacIntel,59.99880002,,,,,,,,,,,,,1,2.1891,0,87,87,79,1,,,,,,,,,,,,,,,,,,,,,,,,,,,,,,,,,,,,,,,,,,,,,,,,,,,,,,,,,,,,,,,,,,,,,,
,,,,1,1.9407,,,,,,28,cake,melon,,89347,001,2022-04-25_15h41.16.157,SPAMnetsValid,2021.1.4,MacIntel,59.99880002,,,,,,,,,,,,,1,1.9407,0,88,88,54,1,,,,,,,,,,,,,,,,,,,,,,,,,,,,,,,,,,,,,,,,,,,,,,,,,,,,,,,,,,,,,,,,,,,,,,
,,,,1,0.9466,,,,,,71,broom,rose,,89347,001,2022-04-25_15h41.16.157,SPAMnetsValid,2021.1.4,MacIntel,59.99880002,,,,,,,,,,,,,1,0.9466,0,89,89,61,1,,,,,,,,,,,,,,,,,,,,,,,,,,,,,,,,,,,,,,,,,,,,,,,,,,,,,,,,,,,,,,,,,,,,,,
,,,,1,0.7213,,,,,,55,tomato,tree,,89347,001,2022-04-25_15h41.16.157,SPAMnetsValid,2021.1.4,MacIntel,59.99880002,,,,,,,,,,,,,1,0.7213,0,90,90,35,1,,,,,,,,,,,,,,,,,,,,,,,,,,,,,,,,,,,,,,,,,,,,,,,,,,,,,,,,,,,,,,,,,,,,,,
,,,,6,2.806,,,,,,36,broom,kitchen,,89347,001,2022-04-25_15h41.16.157,SPAMnetsValid,2021.1.4,MacIntel,59.99880002,,,,,,,,,,,,,6,2.806,0,91,91,76,1,,,,,,,,,,,,,,,,,,,,,,,,,,,,,,,,,,,,,,,,,,,,,,,,,,,,,,,,,,,,,,,,,,,,,,
,,,,9,1.2145,,,,,,191,cake,cake,CHECK,89347,001,2022-04-25_15h41.16.157,SPAMnetsValid,2021.1.4,MacIntel,59.99880002,,,,,,,,,,,,,9,1.2145,0,92,92,10,1,,,,,,,,,,,,,,,,,,,,,,,,,,,,,,,,,,,,,,,,,,,,,,,,,,,,,,,,,,,,,,,,,,,,,,
,,,,3,4.3156,,,,,,66,melon,yogurt,,89347,001,2022-04-25_15h41.16.157,SPAMnetsValid,2021.1.4,MacIntel,59.99880002,,,,,,,,,,,,,3,4.3156,0,93,93,48,1,,,,,,,,,,,,,,,,,,,,,,,,,,,,,,,,,,,,,,,,,,,,,,,,,,,,,,,,,,,,,,,,,,,,,,
,,,,2,1.3051,,,,,,24,cookie,tomato,,89347,001,2022-04-25_15h41.16.157,SPAMnetsValid,2021.1.4,MacIntel,59.99880002,,,,,,,,,,,,,2,1.3051,0,94,94,68,1,,,,,,,,,,,,,,,,,,,,,,,,,,,,,,,,,,,,,,,,,,,,,,,,,,,,,,,,,,,,,,,,,,,,,,
,,,,6,2.4376,,,,,,17,carrot,melon,,89347,001,2022-04-25_15h41.16.157,SPAMnetsValid,2021.1.4,MacIntel,59.99880002,,,,,,,,,,,,,6,2.4376,0,95,95,24,1,,,,,,,,,,,,,,,,,,,,,,,,,,,,,,,,,,,,,,,,,,,,,,,,,,,,,,,,,,,,,,,,,,,,,,
,,,,2,2.4722,,,,,,72,broom,onion,,89347,001,2022-04-25_15h41.16.157,SPAMnetsValid,2021.1.4,MacIntel,59.99880002,,,,,,,,,,,,,2,2.4722,0,96,96,27,1,,,,,,,,,,,,,,,,,,,,,,,,,,,,,,,,,,,,,,,,,,,,,,,,,,,,,,,,,,,,,,,,,,,,,,
,,,,,,,,,,,,,,,89347,001,2022-04-25_15h41.16.157,SPAMnetsValid,2021.1.4,MacIntel,59.99880002,,,,,,,,,,,,,,,,,,,,0,0,0,0,1,,,,,,,,,,,,,,,,,,,,,,,,,,,,,,,,,,,,,,,,,,,,,,,,,,,,,,,,,,,,,,,,,
,,,,,,,,,,,,,,,89347,001,2022-04-25_15h41.16.157,SPAMnetsValid,2021.1.4,MacIntel,59.99880002,,,,,,0,1,1,0,1,1,0,,,,,,,,,,,,,,,,,,,,,,,,,,,,,,,,,,,,,,,,,,,,,,,,,,,,,,,,,,,,,,,,,,,,,,,,,,,,,
,,,,,,,,,,,,,,,89347,001,2022-04-25_15h41.16.157,SPAMnetsValid,2021.1.4,MacIntel,59.99880002,,,,,,,,,,,,,,,,,,,,,,,,,2,8.7788,0,0,0,0,1,rancor,forbearance,ridicule,malice,bravery,3,,,,,,,,,,,,,,,,,,,,,,,,,,,,,,,,,,,,,,,,,,,,,,,,,,,,
,,,,,,,,,,,,,,,89347,001,2022-04-25_15h41.16.157,SPAMnetsValid,2021.1.4,MacIntel,59.99880002,,,,,,,,,,,,,,,,,,,,,,,,,4,3.1057,0,1,1,1,1,raucous,empty,quiet,smooth,harsh,4,,,,,,,,,,,,,,,,,,,,,,,,,,,,,,,,,,,,,,,,,,,,,,,,,,,,
,,,,,,,,,,,,,,,89347,001,2022-04-25_15h41.16.157,SPAMnetsValid,2021.1.4,MacIntel,59.99880002,,,,,,,,,,,,,,,,,,,,,,,,,3,5.1741,0,2,2,2,1,gargoyle,oil,medicine,carved waterspout,ugly building,3,,,,,,,,,,,,,,,,,,,,,,,,,,,,,,,,,,,,,,,,,,,,,,,,,,,,
,,,,,,,,,,,,,,,89347,001,2022-04-25_15h41.16.157,SPAMnetsValid,2021.1.4,MacIntel,59.99880002,,,,,,,,,,,,,,,,,,,,,,,,,3,6.1292,0,3,3,3,1,recrudesce,purify,renew activity,lack refinement,crush,2,,,,,,,,,,,,,,,,,,,,,,,,,,,,,,,,,,,,,,,,,,,,,,,,,,,,
,,,,,,,,,,,,,,,89347,001,2022-04-25_15h41.16.157,SPAMnetsValid,2021.1.4,MacIntel,59.99880002,,,,,,,,,,,,,,,,,,,,,,,,,3,5.7483,0,4,4,4,1,specious,"plausible, but not genuine",noteworthy,class or variety,roomy,1,,,,,,,,,,,,,,,,,,,,,,,,,,,,,,,,,,,,,,,,,,,,,,,,,,,,
,,,,,,,,,,,,,,,89347,001,2022-04-25_15h41.16.157,SPAMnetsValid,2021.1.4,MacIntel,59.99880002,,,,,,,,,,,,,,,,,,,,,,,,,3,2.7128,0,5,5,5,1,bauble,bubble,showy plaything,idle talk,confusion,2,,,,,,,,,,,,,,,,,,,,,,,,,,,,,,,,,,,,,,,,,,,,,,,,,,,,
,,,,,,,,,,,,,,,89347,001,2022-04-25_15h41.16.157,SPAMnetsValid,2021.1.4,MacIntel,59.99880002,,,,,,,,,,,,,,,,,,,,,,,,,2,2.8086,0,6,6,6,1,prolific,scarce,producing abundantly,reckless,speaking profanely,2,,,,,,,,,,,,,,,,,,,,,,,,,,,,,,,,,,,,,,,,,,,,,,,,,,,,
,,,,,,,,,,,,,,,89347,001,2022-04-25_15h41.16.157,SPAMnetsValid,2021.1.4,MacIntel,59.99880002,,,,,,,,,,,,,,,,,,,,,,,,,3,5.4898,0,7,7,7,1,opulent,party,wealthy,happy frame of mind,semiprecious stone,2,,,,,,,,,,,,,,,,,,,,,,,,,,,,,,,,,,,,,,,,,,,,,,,,,,,,
,,,,,,,,,,,,,,,89347,001,2022-04-25_15h41.16.157,SPAMnetsValid,2021.1.4,MacIntel,59.99880002,,,,,,,,,,,,,,,,,,,,,,,,,1,2.6418,0,8,8,8,1,coercion,conspiracy,strategy,restraint,attraction,3,,,,,,,,,,,,,,,,,,,,,,,,,,,,,,,,,,,,,,,,,,,,,,,,,,,,
,,,,,,,,,,,,,,,89347,001,2022-04-25_15h41.16.157,SPAMnetsValid,2021.1.4,MacIntel,59.99880002,,,,,,,,,,,,,,,,,,,,,,,,,4,2.9566,0,9,9,9,1,hiatus,animal,calamity,dread,gap,4,,,,,,,,,,,,,,,,,,,,,,,,,,,,,,,,,,,,,,,,,,,,,,,,,,,,
,,,,,,,,,,,,,,,89347,001,2022-04-25_15h41.16.157,SPAMnetsValid,2021.1.4,MacIntel,59.99880002,,,,,,,,,,,,,,,,,,,,,,,,,4,2.1898,0,10,10,10,1,germane,microbe,contagious,relevant,different,3,,,,,,,,,,,,,,,,,,,,,,,,,,,,,,,,,,,,,,,,,,,,,,,,,,,,
,,,,,,,,,,,,,,,89347,001,2022-04-25_15h41.16.157,SPAMnetsValid,2021.1.4,MacIntel,59.99880002,,,,,,,,,,,,,,,,,,,,,,,,,1,2.7444,0,11,11,11,1,perfunctory,fundamental,formal,superficial,careful,3,,,,,,,,,,,,,,,,,,,,,,,,,,,,,,,,,,,,,,,,,,,,,,,,,,,,
,,,,,,,,,,,,,,,89347,001,2022-04-25_15h41.16.157,SPAMnetsValid,2021.1.4,MacIntel,59.99880002,,,,,,,,,,,,,,,,,,,,,,,,,4,3.3834,0,12,12,12,1,diverge,reveal,chant,distract the attention of,differ or turn off from,4,,,,,,,,,,,,,,,,,,,,,,,,,,,,,,,,,,,,,,,,,,,,,,,,,,,,
,,,,,,,,,,,,,,,89347,001,2022-04-25_15h41.16.157,SPAMnetsValid,2021.1.4,MacIntel,59.99880002,,,,,,,,,,,,,,,,,,,,,,,,,4,3.4438,0,13,13,13,1,evoke,take away,anger,connect,bring out,4,,,,,,,,,,,,,,,,,,,,,,,,,,,,,,,,,,,,,,,,,,,,,,,,,,,,
,,,,,,,,,,,,,,,89347,001,2022-04-25_15h41.16.157,SPAMnetsValid,2021.1.4,MacIntel,59.99880002,,,,,,,,,,,,,,,,,,,,,,,,,1,3.3883,0,14,14,14,1,pertinent,relevant,lying next to,necessary,bold,1,,,,,,,,,,,,,,,,,,,,,,,,,,,,,,,,,,,,,,,,,,,,,,,,,,,,
,,,,,,,,,,,,,,,89347,001,2022-04-25_15h41.16.157,SPAMnetsValid,2021.1.4,MacIntel,59.99880002,,,,,,,,,,,,,,,,,,,,,,,,,2,2.2726,0,15,15,15,1,holocaust,entirety,destruction,saintly,price,2,,,,,,,,,,,,,,,,,,,,,,,,,,,,,,,,,,,,,,,,,,,,,,,,,,,,
,,,,,,,,,,,,,,,89347,001,2022-04-25_15h41.16.157,SPAMnetsValid,2021.1.4,MacIntel,59.99880002,,,,,,,,,,,,,,,,,,,,,,,,,3,4.2914,0,16,16,16,1,piquant,mellow,fish,pungent,cloth,3,,,,,,,,,,,,,,,,,,,,,,,,,,,,,,,,,,,,,,,,,,,,,,,,,,,,
,,,,,,,,,,,,,,,89347,001,2022-04-25_15h41.16.157,SPAMnetsValid,2021.1.4,MacIntel,59.99880002,,,,,,,,,,,,,,,,,,,,,,,,,3,2.3731,0,17,17,17,1,firmament,foundation,heavens,strong,glue,2,,,,,,,,,,,,,,,,,,,,,,,,,,,,,,,,,,,,,,,,,,,,,,,,,,,,
,,,,,,,,,,,,,,,89347,001,2022-04-25_15h41.16.157,SPAMnetsValid,2021.1.4,MacIntel,59.99880002,,,,,,,,,,,,,,,,,,,,,,,,,,,,,,,,,,,,,,5,4.1913,0,0,0,0,1,marketable,partisan,jocular,marriageable,salable,essential,4,,,,,,,,,,,,,,,,,,,,,,,,,,,,,,,,,,,,,,
,,,,,,,,,,,,,,,89347,001,2022-04-25_15h41.16.157,SPAMnetsValid,2021.1.4,MacIntel,59.99880002,,,,,,,,,,,,,,,,,,,,,,,,,,,,,,,,,,,,,,5,3.4559,0,1,1,1,1,cottontail,squirrel,poplar,boa,marshy plant,rabbit,5,,,,,,,,,,,,,,,,,,,,,,,,,,,,,,,,,,,,,,
,,,,,,,,,,,,,,,89347,001,2022-04-25_15h41.16.157,SPAMnetsValid,2021.1.4,MacIntel,59.99880002,,,,,,,,,,,,,,,,,,,,,,,,,,,,,,,,,,,,,,3,1.7294,0,2,2,2,1,boggy,afraid,false,marshy,dense,black,3,,,,,,,,,,,,,,,,,,,,,,,,,,,,,,,,,,,,,,
,,,,,,,,,,,,,,,89347,001,2022-04-25_15h41.16.157,SPAMnetsValid,2021.1.4,MacIntel,59.99880002,,,,,,,,,,,,,,,,,,,,,,,,,,,,,,,,,,,,,,3,4.5956,0,3,3,3,1,gruesomeness,blackness,falseness,vindictiveness,drunkenness,ghastliness,5,,,,,,,,,,,,,,,,,,,,,,,,,,,,,,,,,,,,,,
,,,,,,,,,,,,,,,89347,001,2022-04-25_15h41.16.157,SPAMnetsValid,2021.1.4,MacIntel,59.99880002,,,,,,,,,,,,,,,,,,,,,,,,,,,,,,,,,,,,,,3,2.5256,0,4,4,4,1,loathing,diffidence,laziness,abhorrence,cleverness,comfort,3,,,,,,,,,,,,,,,,,,,,,,,,,,,,,,,,,,,,,,
,,,,,,,,,,,,,,,89347,001,2022-04-25_15h41.16.157,SPAMnetsValid,2021.1.4,MacIntel,59.99880002,,,,,,,,,,,,,,,,,,,,,,,,,,,,,,,,,,,,,,2,2.7214,0,5,5,5,1,bantam,fowl,ridicule,cripple,vegetable,ensign,1,,,,,,,,,,,,,,,,,,,,,,,,,,,,,,,,,,,,,,
,,,,,,,,,,,,,,,89347,001,2022-04-25_15h41.16.157,SPAMnetsValid,2021.1.4,MacIntel,59.99880002,,,,,,,,,,,,,,,,,,,,,,,,,,,,,,,,,,,,,,5,2.6084,0,6,6,6,1,evoke,wake up,surrender,reconnoiter,transcend,call forth,5,,,,,,,,,,,,,,,,,,,,,,,,,,,,,,,,,,,,,,
,,,,,,,,,,,,,,,89347,001,2022-04-25_15h41.16.157,SPAMnetsValid,2021.1.4,MacIntel,59.99880002,,,,,,,,,,,,,,,,,,,,,,,,,,,,,,,,,,,,,,5,3.0665,0,7,7,7,1,unobtrusive,unintelligent,epileptic,illogical,lineal,modest,5,,,,,,,,,,,,,,,,,,,,,,,,,,,,,,,,,,,,,,
,,,,,,,,,,,,,,,89347,001,2022-04-25_15h41.16.157,SPAMnetsValid,2021.1.4,MacIntel,59.99880002,,,,,,,,,,,,,,,,,,,,,,,,,,,,,,,,,,,,,,4,2.7164,0,8,8,8,1,terrain,ice cream,final test,tractor,area of ground,weight,4,,,,,,,,,,,,,,,,,,,,,,,,,,,,,,,,,,,,,,
,,,,,,,,,,,,,,,89347,001,2022-04-25_15h41.16.157,SPAMnetsValid,2021.1.4,MacIntel,59.99880002,,,,,,,,,,,,,,,,,,,,,,,,,,,,,,,,,,,,,,3,3.7652,0,9,9,9,1,capriciousness,stubbornness,courage,whimsicality,amazement,greediness,3,,,,,,,,,,,,,,,,,,,,,,,,,,,,,,,,,,,,,,
,,,,,,,,,,,,,,,89347,001,2022-04-25_15h41.16.157,SPAMnetsValid,2021.1.4,MacIntel,59.99880002,,,,,,,,,,,,,,,,,,,,,,,,,,,,,,,,,,,,,,4,6.6383,0,10,10,10,1,maelstrom,slander,whirlpool,enmity,armor,majolica,2,,,,,,,,,,,,,,,,,,,,,,,,,,,,,,,,,,,,,,
,,,,,,,,,,,,,,,89347,001,2022-04-25_15h41.16.157,SPAMnetsValid,2021.1.4,MacIntel,59.99880002,,,,,,,,,,,,,,,,,,,,,,,,,,,,,,,,,,,,,,2,3.9104,0,11,11,11,1,tentative,critical,conclusive,authentic,provisional,apprehensive,4,,,,,,,,,,,,,,,,,,,,,,,,,,,,,,,,,,,,,,
,,,,,,,,,,,,,,,89347,001,2022-04-25_15h41.16.157,SPAMnetsValid,2021.1.4,MacIntel,59.99880002,,,,,,,,,,,,,,,,,,,,,,,,,,,,,,,,,,,,,,1,10.4415,0,12,12,12,1,placate,rehabilitate,plagiarize,depredate,apprise,conciliate,5,,,,,,,,,,,,,,,,,,,,,,,,,,,,,,,,,,,,,,
,,,,,,,,,,,,,,,89347,001,2022-04-25_15h41.16.157,SPAMnetsValid,2021.1.4,MacIntel,59.99880002,,,,,,,,,,,,,,,,,,,,,,,,,,,,,,,,,,,,,,4,4.3923,0,13,13,13,1,surcease,enlightenment,cessation,inattention,censor,substitution,2,,,,,,,,,,,,,,,,,,,,,,,,,,,,,,,,,,,,,,
,,,,,,,,,,,,,,,89347,001,2022-04-25_15h41.16.157,SPAMnetsValid,2021.1.4,MacIntel,59.99880002,,,,,,,,,,,,,,,,,,,,,,,,,,,,,,,,,,,,,,3,2.1425,0,14,14,14,1,apathetic,wandering,impassive,hateful,prophetic,overflowing,2,,,,,,,,,,,,,,,,,,,,,,,,,,,,,,,,,,,,,,
,,,,,,,,,,,,,,,89347,001,2022-04-25_15h41.16.157,SPAMnetsValid,2021.1.4,MacIntel,59.99880002,,,,,,,,,,,,,,,,,,,,,,,,,,,,,,,,,,,,,,1,4.9634,0,15,15,15,1,paternoster,paternalism,patricide,malediction,benediction,prayer,5,,,,,,,,,,,,,,,,,,,,,,,,,,,,,,,,,,,,,,
,,,,,,,,,,,,,,,89347,001,2022-04-25_15h41.16.157,SPAMnetsValid,2021.1.4,MacIntel,59.99880002,,,,,,,,,,,,,,,,,,,,,,,,,,,,,,,,,,,,,,1,2.3405,0,16,16,16,1,opalescence,opulence,senescence,bankruptcy,iridescence,assiduity,4,,,,,,,,,,,,,,,,,,,,,,,,,,,,,,,,,,,,,,
,,,,,,,,,,,,,,,89347,001,2022-04-25_15h41.16.157,SPAMnetsValid,2021.1.4,MacIntel,59.99880002,,,,,,,,,,,,,,,,,,,,,,,,,,,,,,,,,,,,,,2,1.6731,0,17,17,17,1,lush,stupid,luxurious,hazy,putrid,languishing,2,,,,,,,,,,,,,,,,,,,,,,,,,,,,,,,,,,,,,,
,,,,,,,,,,,,,,,89347,001,2022-04-25_15h41.16.157,SPAMnetsValid,2021.1.4,MacIntel,59.99880002,,,,,,,,,,,,,,,,,,,,,,,,,,,,,,,,,,,,,,2,3.8897,0,18,18,18,1,curtailment,expenditure,abandonment,abridgment,improvement,forgery,3,,,,,,,,,,,,,,,,,,,,,,,,,,,,,,,,,,,,,,
,,,,,,,,,,,,,,,89347,001,2022-04-25_15h41.16.157,SPAMnetsValid,2021.1.4,MacIntel,59.99880002,,,,,,,,,,,,,,,,,,,,,,,,,,,,,,,,,,,,,,2,5.6483,0,19,19,19,1,perversity,adversity,perviousness,travesty,waywardness,gentility,4,,,,,,,,,,,,,,,,,,,,,,,,,,,,,,,,,,,,,,
,,,,,,,,,,,,,,,89347,001,2022-04-25_15h41.16.157,SPAMnetsValid,2021.1.4,MacIntel,59.99880002,,,,,,,,,,,,,,,,,,,,,,,,,,,,,,,,,,,,,,2,5.9886,0,20,20,20,1,calumnious,complimentary,analogous,slanderous,tempestuous,magnanimous,3,,,,,,,,,,,,,,,,,,,,,,,,,,,,,,,,,,,,,,
,,,,,,,,,,,,,,,89347,001,2022-04-25_15h41.16.157,SPAMnetsValid,2021.1.4,MacIntel,59.99880002,,,,,,,,,,,,,,,,,,,,,,,,,,,,,,,,,,,,,,1,4.3253,0,21,21,21,1,illiberality,bigotry,imbecility,illegibility,cautery,immaturity,1,,,,,,,,,,,,,,,,,,,,,,,,,,,,,,,,,,,,,,
,,,,,,,,,,,,,,,89347,001,2022-04-25_15h41.16.157,SPAMnetsValid,2021.1.4,MacIntel,59.99880002,,,,,,,,,,,,,,,,,,,,,,,,,,,,,,,,,,,,,,2,3.775,0,22,22,22,1,clabber,rejoice,gossip,curdle,crow,hobble,3,,,,,,,,,,,,,,,,,,,,,,,,,,,,,,,,,,,,,,
,,,,,,,,,,,,,,,89347,001,2022-04-25_15h41.16.157,SPAMnetsValid,2021.1.4,MacIntel,59.99880002,,,,,,,,,,,,,,,,,,,,,,,,,,,,,,,,,,,,,,3,6.0479,0,23,23,23,1,sedulousness,diligence,credulousness,seduction,perilousness,frankness,1,,,,,,,,,,,,,,,,,,,,,,,,,,,,,,,,,,,,,,
,,,,,,,,,,,,,,,89347,001,2022-04-25_15h41.16.157,SPAMnetsValid,2021.1.4,MacIntel,59.99880002,,,,,,,,,,,,,,,,,,,,,,,,,,,,,,,,,,,,,,,,,,,,,,,,,,,,sand,bucket,0,0,0,0,1,,,,,,,,,,,,,,,,,,,,,,,,,,,,,,,
,,,,,,,,,,,,,,,89347,001,2022-04-25_15h41.16.157,SPAMnetsValid,2021.1.4,MacIntel,59.99880002,,,,,,,,,,,,,,,,,,,,,,,,,,,,,,,,,,,,,,,,,,,,,,,,,,,,water,bucket,1,0,1,0,1,,,,,,,,,,,,,,,,,,,,,,,,,,,,,,,
,,,,,,,,,,,,,,,89347,001,2022-04-25_15h41.16.157,SPAMnetsValid,2021.1.4,MacIntel,59.99880002,,,,,,,,,,,,,,,,,,,,,,,,,,,,,,,,,,,,,,,,,,,,,,,,,,,,sandcastle,bucket,2,0,2,0,1,,,,,,,,,,,,,,,,,,,,,,,,,,,,,,,
,,,,,,,,,,,,,,,89347,001,2022-04-25_15h41.16.157,SPAMnetsValid,2021.1.4,MacIntel,59.99880002,,,,,,,,,,,,,,,,,,,,,,,,,,,,,,,,,,,,,,,,,,,,,,,,,,,, hatww,bucket,3,0,3,0,1,,,,,,,,,,,,,,,,,,,,,,,,,,,,,,,
,,,,,,,,,,,,,,,89347,001,2022-04-25_15h41.16.157,SPAMnetsValid,2021.1.4,MacIntel,59.99880002,,,,,,,,,,,,,,,,,,,,,,,,,,,,,,,,,,,,,,,,,,,,,,,,,,,,hat,bucket,4,0,4,0,1,,,,,,,,,,,,,,,,,,,,,,,,,,,,,,,
,,,,,,,,,,,,,,,89347,001,2022-04-25_15h41.16.157,SPAMnetsValid,2021.1.4,MacIntel,59.99880002,,,,,,,,,,,,,,,,,,,,,,,,,,,,,,,,,,,,,,,,,,,,,,,,,,,,seat,bucket,5,0,5,0,1,,,,,,,,,,,,,,,,,,,,,,,,,,,,,,,
,,,,,,,,,,,,,,,89347,001,2022-04-25_15h41.16.157,SPAMnetsValid,2021.1.4,MacIntel,59.99880002,,,,,,,,,,,,,,,,,,,,,,,,,,,,,,,,,,,,,,,,,,,,,,,,,,,,stool,bucket,6,0,6,0,1,,,,,,,,,,,,,,,,,,,,,,,,,,,,,,,
,,,,,,,,,,,,,,,89347,001,2022-04-25_15h41.16.157,SPAMnetsValid,2021.1.4,MacIntel,59.99880002,,,,,,,,,,,,,,,,,,,,,,,,,,,,,,,,,,,,,,,,,,,,,,,,,,,,table,bucket,7,0,7,0,1,,,,,,,,,,,,,,,,,,,,,,,,,,,,,,,
,,,,,,,,,,,,,,,89347,001,2022-04-25_15h41.16.157,SPAMnetsValid,2021.1.4,MacIntel,59.99880002,,,,,,,,,,,,,,,,,,,,,,,,,,,,,,,,,,,,,,,,,,,,,,,,,,,,pot,bucket,8,0,8,0,1,,,,,,,,,,,,,,,,,,,,,,,,,,,,,,,
,,,,,,,,,,,,,,,89347,001,2022-04-25_15h41.16.157,SPAMnetsValid,2021.1.4,MacIntel,59.99880002,,,,,,,,,,,,,,,,,,,,,,,,,,,,,,,,,,,,,,,,,,,,,,,,,,,,storage,bucket,9,0,9,0,1,,,,,,,,,,,,,,,,,,,,,,,,,,,,,,,
,,,,,,,,,,,,,,,89347,001,2022-04-25_15h41.16.157,SPAMnetsValid,2021.1.4,MacIntel,59.99880002,,,,,,,,,,,,,,,,,,,,,,,,,,,,,,,,,,,,,,,,,,,,,,,,,,,,rocks,bucket,10,0,10,0,1,,,,,,,,,,,,,,,,,,,,,,,,,,,,,,,
,,,,,,,,,,,,,,,89347,001,2022-04-25_15h41.16.157,SPAMnetsValid,2021.1.4,MacIntel,59.99880002,,,,,,,,,,,,,,,,,,,,,,,,,,,,,,,,,,,,,,,,,,,,,,,,,,,,gravel,bucket,11,0,11,0,1,,,,,,,,,,,,,,,,,,,,,,,,,,,,,,,
,,,,,,,,,,,,,,,89347,001,2022-04-25_15h41.16.157,SPAMnetsValid,2021.1.4,MacIntel,59.99880002,,,,,,,,,,,,,,,,,,,,,,,,,,,,,,,,,,,,,,,,,,,,,,,,,,,,mulch,bucket,12,0,12,0,1,,,,,,,,,,,,,,,,,,,,,,,,,,,,,,,
,,,,,,,,,,,,,,,89347,001,2022-04-25_15h41.16.157,SPAMnetsValid,2021.1.4,MacIntel,59.99880002,,,,,,,,,,,,,,,,,,,,,,,,,,,,,,,,,,,,,,,,,,,,,,,,,,,,flowerpot,bucket,13,0,13,0,1,,,,,,,,,,,,,,,,,,,,,,,,,,,,,,,
,,,,,,,,,,,,,,,89347,001,2022-04-25_15h41.16.157,SPAMnetsValid,2021.1.4,MacIntel,59.99880002,,,,,,,,,,,,,,,,,,,,,,,,,,,,,,,,,,,,,,,,,,,,,,,,,,,,decoration,bucket,14,0,14,0,1,,,,,,,,,,,,,,,,,,,,,,,,,,,,,,,
,,,,,,,,,,,,,,,89347,001,2022-04-25_15h41.16.157,SPAMnetsValid,2021.1.4,MacIntel,59.99880002,,,,,,,,,,,,,,,,,,,,,,,,,,,,,,,,,,,,,,,,,,,,,,,,,,,,travel,bucket,15,0,15,0,1,,,,,,,,,,,,,,,,,,,,,,,,,,,,,,,
,,,,,,,,,,,,,,,89347,001,2022-04-25_15h41.16.157,SPAMnetsValid,2021.1.4,MacIntel,59.99880002,,,,,,,,,,,,,,,,,,,,,,,,,,,,,,,,,,,,,,,,,,,,,,,,,,,,,,,,,,,0,0,0,0,1,bucket,,,,,,,,,,,,,,,,,,,,,,,,,
,,,,,,,,,,,,,,,89347,001,2022-04-25_15h41.16.157,SPAMnetsValid,2021.1.4,MacIntel,59.99880002,,,,,,,,,,,,,,,,,,,,,,,,,,,,,,,,,,,,,,,,,,,,,,,,,,,,rest,pillow,0,0,0,0,1,,,,,,,,,,,,,,,,,,,,,,,,,,,,,,,
,,,,,,,,,,,,,,,89347,001,2022-04-25_15h41.16.157,SPAMnetsValid,2021.1.4,MacIntel,59.99880002,,,,,,,,,,,,,,,,,,,,,,,,,,,,,,,,,,,,,,,,,,,,,,,,,,,,sleep,pillow,1,0,1,0,1,,,,,,,,,,,,,,,,,,,,,,,,,,,,,,,
,,,,,,,,,,,,,,,89347,001,2022-04-25_15h41.16.157,SPAMnetsValid,2021.1.4,MacIntel,59.99880002,,,,,,,,,,,,,,,,,,,,,,,,,,,,,,,,,,,,,,,,,,,,,,,,,,,,cushion,pillow,2,0,2,0,1,,,,,,,,,,,,,,,,,,,,,,,,,,,,,,,
,,,,,,,,,,,,,,,89347,001,2022-04-25_15h41.16.157,SPAMnetsValid,2021.1.4,MacIntel,59.99880002,,,,,,,,,,,,,,,,,,,,,,,,,,,,,,,,,,,,,,,,,,,,,,,,,,,,seat,pillow,3,0,3,0,1,,,,,,,,,,,,,,,,,,,,,,,,,,,,,,,
,,,,,,,,,,,,,,,89347,001,2022-04-25_15h41.16.157,SPAMnetsValid,2021.1.4,MacIntel,59.99880002,,,,,,,,,,,,,,,,,,,,,,,,,,,,,,,,,,,,,,,,,,,,,,,,,,,,travel pillow,pillow,4,0,4,0,1,,,,,,,,,,,,,,,,,,,,,,,,,,,,,,,
,,,,,,,,,,,,,,,89347,001,2022-04-25_15h41.16.157,SPAMnetsValid,2021.1.4,MacIntel,59.99880002,,,,,,,,,,,,,,,,,,,,,,,,,,,,,,,,,,,,,,,,,,,,,,,,,,,,lap desk,pillow,5,0,5,0,1,,,,,,,,,,,,,,,,,,,,,,,,,,,,,,,
,,,,,,,,,,,,,,,89347,001,2022-04-25_15h41.16.157,SPAMnetsValid,2021.1.4,MacIntel,59.99880002,,,,,,,,,,,,,,,,,,,,,,,,,,,,,,,,,,,,,,,,,,,,,,,,,,,,stuffed animal,pillow,6,0,6,0,1,,,,,,,,,,,,,,,,,,,,,,,,,,,,,,,
,,,,,,,,,,,,,,,89347,001,2022-04-25_15h41.16.157,SPAMnetsValid,2021.1.4,MacIntel,59.99880002,,,,,,,,,,,,,,,,,,,,,,,,,,,,,,,,,,,,,,,,,,,,,,,,,,,,nap,pillow,7,0,7,0,1,,,,,,,,,,,,,,,,,,,,,,,,,,,,,,,
,,,,,,,,,,,,,,,89347,001,2022-04-25_15h41.16.157,SPAMnetsValid,2021.1.4,MacIntel,59.99880002,,,,,,,,,,,,,,,,,,,,,,,,,,,,,,,,,,,,,,,,,,,,,,,,,,,,dog toy,pillow,8,0,8,0,1,,,,,,,,,,,,,,,,,,,,,,,,,,,,,,,
,,,,,,,,,,,,,,,89347,001,2022-04-25_15h41.16.157,SPAMnetsValid,2021.1.4,MacIntel,59.99880002,,,,,,,,,,,,,,,,,,,,,,,,,,,,,,,,,,,,,,,,,,,,,,,,,,,,dog bed,pillow,9,0,9,0,1,,,,,,,,,,,,,,,,,,,,,,,,,,,,,,,
,,,,,,,,,,,,,,,89347,001,2022-04-25_15h41.16.157,SPAMnetsValid,2021.1.4,MacIntel,59.99880002,,,,,,,,,,,,,,,,,,,,,,,,,,,,,,,,,,,,,,,,,,,,,,,,,,,,,,,,,,,0,1,1,2,1,pillow,,,,,,,,,,,,,,,,,,,,,,,,,
,,,,,,,,,,,,,,,89347,001,2022-04-25_15h41.16.157,SPAMnetsValid,2021.1.4,MacIntel,59.99880002,,,,,,,,,,,,,,,,,,,,,,,,,,,,,,,,,,,,,,,,,,,,,,,,,,,,smell,candle,0,0,0,0,1,,,,,,,,,,,,,,,,,,,,,,,,,,,,,,,
,,,,,,,,,,,,,,,89347,001,2022-04-25_15h41.16.157,SPAMnetsValid,2021.1.4,MacIntel,59.99880002,,,,,,,,,,,,,,,,,,,,,,,,,,,,,,,,,,,,,,,,,,,,,,,,,,,,odor removal,candle,1,0,1,0,1,,,,,,,,,,,,,,,,,,,,,,,,,,,,,,,
,,,,,,,,,,,,,,,89347,001,2022-04-25_15h41.16.157,SPAMnetsValid,2021.1.4,MacIntel,59.99880002,,,,,,,,,,,,,,,,,,,,,,,,,,,,,,,,,,,,,,,,,,,,,,,,,,,,ambiance,candle,2,0,2,0,1,,,,,,,,,,,,,,,,,,,,,,,,,,,,,,,
,,,,,,,,,,,,,,,89347,001,2022-04-25_15h41.16.157,SPAMnetsValid,2021.1.4,MacIntel,59.99880002,,,,,,,,,,,,,,,,,,,,,,,,,,,,,,,,,,,,,,,,,,,,,,,,,,,,wax seals,candle,3,0,3,0,1,,,,,,,,,,,,,,,,,,,,,,,,,,,,,,,
,,,,,,,,,,,,,,,89347,001,2022-04-25_15h41.16.157,SPAMnetsValid,2021.1.4,MacIntel,59.99880002,,,,,,,,,,,,,,,,,,,,,,,,,,,,,,,,,,,,,,,,,,,,,,,,,,,,birthday cake,candle,4,0,4,0,1,,,,,,,,,,,,,,,,,,,,,,,,,,,,,,,
,,,,,,,,,,,,,,,89347,001,2022-04-25_15h41.16.157,SPAMnetsValid,2021.1.4,MacIntel,59.99880002,,,,,,,,,,,,,,,,,,,,,,,,,,,,,,,,,,,,,,,,,,,,,,,,,,,,wax art,candle,5,0,5,0,1,,,,,,,,,,,,,,,,,,,,,,,,,,,,,,,
,,,,,,,,,,,,,,,89347,001,2022-04-25_15h41.16.157,SPAMnetsValid,2021.1.4,MacIntel,59.99880002,,,,,,,,,,,,,,,,,,,,,,,,,,,,,,,,,,,,,,,,,,,,,,,,,,,,,,,,,,,0,2,2,1,1,candle,,,,,,,,,,,,,,,,,,,,,,,,,
,,,,,,,,,,,,,,,89347,001,2022-04-25_15h41.16.157,SPAMnetsValid,2021.1.4,MacIntel,59.99880002,,,,,,,,,,,,,,,,,,,,,,,,,,,,,,,,,,,,,,,,,,,,,,,,,,,,,,,,,,,,,,,,,rabbit,Animals,0,0,0,0,1,,,,,,,,,,,,,,,,,,
,,,,,,,,,,,,,,,89347,001,2022-04-25_15h41.16.157,SPAMnetsValid,2021.1.4,MacIntel,59.99880002,,,,,,,,,,,,,,,,,,,,,,,,,,,,,,,,,,,,,,,,,,,,,,,,,,,,,,,,,,,,,,,,,horse,Animals,1,0,1,0,1,,,,,,,,,,,,,,,,,,
,,,,,,,,,,,,,,,89347,001,2022-04-25_15h41.16.157,SPAMnetsValid,2021.1.4,MacIntel,59.99880002,,,,,,,,,,,,,,,,,,,,,,,,,,,,,,,,,,,,,,,,,,,,,,,,,,,,,,,,,,,,,,,,,bunny,Animals,2,0,2,0,1,,,,,,,,,,,,,,,,,,
,,,,,,,,,,,,,,,89347,001,2022-04-25_15h41.16.157,SPAMnetsValid,2021.1.4,MacIntel,59.99880002,,,,,,,,,,,,,,,,,,,,,,,,,,,,,,,,,,,,,,,,,,,,,,,,,,,,,,,,,,,,,,,,,cow,Animals,3,0,3,0,1,,,,,,,,,,,,,,,,,,
,,,,,,,,,,,,,,,89347,001,2022-04-25_15h41.16.157,SPAMnetsValid,2021.1.4,MacIntel,59.99880002,,,,,,,,,,,,,,,,,,,,,,,,,,,,,,,,,,,,,,,,,,,,,,,,,,,,,,,,,,,,,,,,,dog,Animals,4,0,4,0,1,,,,,,,,,,,,,,,,,,
,,,,,,,,,,,,,,,89347,001,2022-04-25_15h41.16.157,SPAMnetsValid,2021.1.4,MacIntel,59.99880002,,,,,,,,,,,,,,,,,,,,,,,,,,,,,,,,,,,,,,,,,,,,,,,,,,,,,,,,,,,,,,,,,cat,Animals,5,0,5,0,1,,,,,,,,,,,,,,,,,,
,,,,,,,,,,,,,,,89347,001,2022-04-25_15h41.16.157,SPAMnetsValid,2021.1.4,MacIntel,59.99880002,,,,,,,,,,,,,,,,,,,,,,,,,,,,,,,,,,,,,,,,,,,,,,,,,,,,,,,,,,,,,,,,,fish,Animals,6,0,6,0,1,,,,,,,,,,,,,,,,,,
,,,,,,,,,,,,,,,89347,001,2022-04-25_15h41.16.157,SPAMnetsValid,2021.1.4,MacIntel,59.99880002,,,,,,,,,,,,,,,,,,,,,,,,,,,,,,,,,,,,,,,,,,,,,,,,,,,,,,,,,,,,,,,,,seal,Animals,7,0,7,0,1,,,,,,,,,,,,,,,,,,
,,,,,,,,,,,,,,,89347,001,2022-04-25_15h41.16.157,SPAMnetsValid,2021.1.4,MacIntel,59.99880002,,,,,,,,,,,,,,,,,,,,,,,,,,,,,,,,,,,,,,,,,,,,,,,,,,,,,,,,,,,,,,,,,whale,Animals,8,0,8,0,1,,,,,,,,,,,,,,,,,,
,,,,,,,,,,,,,,,89347,001,2022-04-25_15h41.16.157,SPAMnetsValid,2021.1.4,MacIntel,59.99880002,,,,,,,,,,,,,,,,,,,,,,,,,,,,,,,,,,,,,,,,,,,,,,,,,,,,,,,,,,,,,,,,,penguin,Animals,9,0,9,0,1,,,,,,,,,,,,,,,,,,
,,,,,,,,,,,,,,,89347,001,2022-04-25_15h41.16.157,SPAMnetsValid,2021.1.4,MacIntel,59.99880002,,,,,,,,,,,,,,,,,,,,,,,,,,,,,,,,,,,,,,,,,,,,,,,,,,,,,,,,,,,,,,,,,shark,Animals,10,0,10,0,1,,,,,,,,,,,,,,,,,,
,,,,,,,,,,,,,,,89347,001,2022-04-25_15h41.16.157,SPAMnetsValid,2021.1.4,MacIntel,59.99880002,,,,,,,,,,,,,,,,,,,,,,,,,,,,,,,,,,,,,,,,,,,,,,,,,,,,,,,,,,,,,,,,,fish,Animals,11,0,11,0,1,,,,,,,,,,,,,,,,,,
,,,,,,,,,,,,,,,89347,001,2022-04-25_15h41.16.157,SPAMnetsValid,2021.1.4,MacIntel,59.99880002,,,,,,,,,,,,,,,,,,,,,,,,,,,,,,,,,,,,,,,,,,,,,,,,,,,,,,,,,,,,,,,,,clam,Animals,12,0,12,0,1,,,,,,,,,,,,,,,,,,
,,,,,,,,,,,,,,,89347,001,2022-04-25_15h41.16.157,SPAMnetsValid,2021.1.4,MacIntel,59.99880002,,,,,,,,,,,,,,,,,,,,,,,,,,,,,,,,,,,,,,,,,,,,,,,,,,,,,,,,,,,,,,,,,oyster,Animals,13,0,13,0,1,,,,,,,,,,,,,,,,,,
,,,,,,,,,,,,,,,89347,001,2022-04-25_15h41.16.157,SPAMnetsValid,2021.1.4,MacIntel,59.99880002,,,,,,,,,,,,,,,,,,,,,,,,,,,,,,,,,,,,,,,,,,,,,,,,,,,,,,,,,,,,,,,,,starfish,Animals,14,0,14,0,1,,,,,,,,,,,,,,,,,,
,,,,,,,,,,,,,,,89347,001,2022-04-25_15h41.16.157,SPAMnetsValid,2021.1.4,MacIntel,59.99880002,,,,,,,,,,,,,,,,,,,,,,,,,,,,,,,,,,,,,,,,,,,,,,,,,,,,,,,,,,,,,,,,,angel fish,Animals,15,0,15,0,1,,,,,,,,,,,,,,,,,,
,,,,,,,,,,,,,,,89347,001,2022-04-25_15h41.16.157,SPAMnetsValid,2021.1.4,MacIntel,59.99880002,,,,,,,,,,,,,,,,,,,,,,,,,,,,,,,,,,,,,,,,,,,,,,,,,,,,,,,,,,,,,,,,,lion fish,Animals,16,0,16,0,1,,,,,,,,,,,,,,,,,,
,,,,,,,,,,,,,,,89347,001,2022-04-25_15h41.16.157,SPAMnetsValid,2021.1.4,MacIntel,59.99880002,,,,,,,,,,,,,,,,,,,,,,,,,,,,,,,,,,,,,,,,,,,,,,,,,,,,,,,,,,,,,,,,,orca,Animals,17,0,17,0,1,,,,,,,,,,,,,,,,,,
,,,,,,,,,,,,,,,89347,001,2022-04-25_15h41.16.157,SPAMnetsValid,2021.1.4,MacIntel,59.99880002,,,,,,,,,,,,,,,,,,,,,,,,,,,,,,,,,,,,,,,,,,,,,,,,,,,,,,,,,,,,,,,,,frog,Animals,18,0,18,0,1,,,,,,,,,,,,,,,,,,
,,,,,,,,,,,,,,,89347,001,2022-04-25_15h41.16.157,SPAMnetsValid,2021.1.4,MacIntel,59.99880002,,,,,,,,,,,,,,,,,,,,,,,,,,,,,,,,,,,,,,,,,,,,,,,,,,,,,,,,,,,,,,,,,ant,Animals,19,0,19,0,1,,,,,,,,,,,,,,,,,,
,,,,,,,,,,,,,,,89347,001,2022-04-25_15h41.16.157,SPAMnetsValid,2021.1.4,MacIntel,59.99880002,,,,,,,,,,,,,,,,,,,,,,,,,,,,,,,,,,,,,,,,,,,,,,,,,,,,,,,,,,,,,,,,,beetle,Animals,20,0,20,0,1,,,,,,,,,,,,,,,,,,
,,,,,,,,,,,,,,,89347,001,2022-04-25_15h41.16.157,SPAMnetsValid,2021.1.4,MacIntel,59.99880002,,,,,,,,,,,,,,,,,,,,,,,,,,,,,,,,,,,,,,,,,,,,,,,,,,,,,,,,,,,,,,,,,worm,Animals,21,0,21,0,1,,,,,,,,,,,,,,,,,,
,,,,,,,,,,,,,,,89347,001,2022-04-25_15h41.16.157,SPAMnetsValid,2021.1.4,MacIntel,59.99880002,,,,,,,,,,,,,,,,,,,,,,,,,,,,,,,,,,,,,,,,,,,,,,,,,,,,,,,,,,,,,,,,,toad,Animals,22,0,22,0,1,,,,,,,,,,,,,,,,,,
,,,,,,,,,,,,,,,89347,001,2022-04-25_15h41.16.157,SPAMnetsValid,2021.1.4,MacIntel,59.99880002,,,,,,,,,,,,,,,,,,,,,,,,,,,,,,,,,,,,,,,,,,,,,,,,,,,,,,,,,,,,,,,,,giraffe,Animals,23,0,23,0,1,,,,,,,,,,,,,,,,,,
,,,,,,,,,,,,,,,89347,001,2022-04-25_15h41.16.157,SPAMnetsValid,2021.1.4,MacIntel,59.99880002,,,,,,,,,,,,,,,,,,,,,,,,,,,,,,,,,,,,,,,,,,,,,,,,,,,,,,,,,,,,,,,,,zebra,Animals,24,0,24,0,1,,,,,,,,,,,,,,,,,,
,,,,,,,,,,,,,,,89347,001,2022-04-25_15h41.16.157,SPAMnetsValid,2021.1.4,MacIntel,59.99880002,,,,,,,,,,,,,,,,,,,,,,,,,,,,,,,,,,,,,,,,,,,,,,,,,,,,,,,,,,,,,,,,,lion,Animals,25,0,25,0,1,,,,,,,,,,,,,,,,,,
,,,,,,,,,,,,,,,89347,001,2022-04-25_15h41.16.157,SPAMnetsValid,2021.1.4,MacIntel,59.99880002,,,,,,,,,,,,,,,,,,,,,,,,,,,,,,,,,,,,,,,,,,,,,,,,,,,,,,,,,,,,,,,,,elephant,Animals,26,0,26,0,1,,,,,,,,,,,,,,,,,,
,,,,,,,,,,,,,,,89347,001,2022-04-25_15h41.16.157,SPAMnetsValid,2021.1.4,MacIntel,59.99880002,,,,,,,,,,,,,,,,,,,,,,,,,,,,,,,,,,,,,,,,,,,,,,,,,,,,,,,,,,,,,,,,,hippo,Animals,27,0,27,0,1,,,,,,,,,,,,,,,,,,
,,,,,,,,,,,,,,,89347,001,2022-04-25_15h41.16.157,SPAMnetsValid,2021.1.4,MacIntel,59.99880002,,,,,,,,,,,,,,,,,,,,,,,,,,,,,,,,,,,,,,,,,,,,,,,,,,,,,,,,,,,,,,,,,seagull,Animals,28,0,28,0,1,,,,,,,,,,,,,,,,,,
,,,,,,,,,,,,,,,89347,001,2022-04-25_15h41.16.157,SPAMnetsValid,2021.1.4,MacIntel,59.99880002,,,,,,,,,,,,,,,,,,,,,,,,,,,,,,,,,,,,,,,,,,,,,,,,,,,,,,,,,,,,,,,,,chickadee,Animals,29,0,29,0,1,,,,,,,,,,,,,,,,,,
,,,,,,,,,,,,,,,89347,001,2022-04-25_15h41.16.157,SPAMnetsValid,2021.1.4,MacIntel,59.99880002,,,,,,,,,,,,,,,,,,,,,,,,,,,,,,,,,,,,,,,,,,,,,,,,,,,,,,,,,,,,,,,,,blue jay,Animals,30,0,30,0,1,,,,,,,,,,,,,,,,,,
,,,,,,,,,,,,,,,89347,001,2022-04-25_15h41.16.157,SPAMnetsValid,2021.1.4,MacIntel,59.99880002,,,,,,,,,,,,,,,,,,,,,,,,,,,,,,,,,,,,,,,,,,,,,,,,,,,,,,,,,,,,,,,,,cardinal,Animals,31,0,31,0,1,,,,,,,,,,,,,,,,,,
,,,,,,,,,,,,,,,89347,001,2022-04-25_15h41.16.157,SPAMnetsValid,2021.1.4,MacIntel,59.99880002,,,,,,,,,,,,,,,,,,,,,,,,,,,,,,,,,,,,,,,,,,,,,,,,,,,,,,,,,,,,,,,,,,,,,,,,0,0,0,0,1,Animals,,,,,,,,,,,,
,,,,,,,,,,,,,,,89347,001,2022-04-25_15h41.16.157,SPAMnetsValid,2021.1.4,MacIntel,59.99880002,,,,,,,,,,,,,,,,,,,,,,,,,,,,,,,,,,,,,,,,,,,,,,,,,,,,,,,,,,,,,,,,,,,,,,,,,,,,,,4,4.3679,0,0,0,0,1,"I enjoy concentrating on a fantasy or daydream and exploring all its possibilities, letting it grow and develop.",0,1,,
,,,,,,,,,,,,,,,89347,001,2022-04-25_15h41.16.157,SPAMnetsValid,2021.1.4,MacIntel,59.99880002,,,,,,,,,,,,,,,,,,,,,,,,,,,,,,,,,,,,,,,,,,,,,,,,,,,,,,,,,,,,,,,,,,,,,,,,,,,,,,4,1.7067,0,1,1,1,1,I think it's interesting to learn and develop new hobbies.,0,2,,
,,,,,,,,,,,,,,,89347,001,2022-04-25_15h41.16.157,SPAMnetsValid,2021.1.4,MacIntel,59.99880002,,,,,,,,,,,,,,,,,,,,,,,,,,,,,,,,,,,,,,,,,,,,,,,,,,,,,,,,,,,,,,,,,,,,,,,,,,,,,,4,1.0974,0,2,2,2,1,I am intrigued by the patterns I find in art and nature.,0,3,,
,,,,,,,,,,,,,,,89347,001,2022-04-25_15h41.16.157,SPAMnetsValid,2021.1.4,MacIntel,59.99880002,,,,,,,,,,,,,,,,,,,,,,,,,,,,,,,,,,,,,,,,,,,,,,,,,,,,,,,,,,,,,,,,,,,,,,,,,,,,,,2,4.4661,0,3,3,3,1,I believe letting students hear controversial speakers can only confuse and mislead them.,1,4,,
,,,,,,,,,,,,,,,89347,001,2022-04-25_15h41.16.157,SPAMnetsValid,2021.1.4,MacIntel,59.99880002,,,,,,,,,,,,,,,,,,,,,,,,,,,,,,,,,,,,,,,,,,,,,,,,,,,,,,,,,,,,,,,,,,,,,,,,,,,,,,2,2.8411,0,4,4,4,1,Poetry has little or no effect on me.,1,5,,
,,,,,,,,,,,,,,,89347,001,2022-04-25_15h41.16.157,SPAMnetsValid,2021.1.4,MacIntel,59.99880002,,,,,,,,,,,,,,,,,,,,,,,,,,,,,,,,,,,,,,,,,,,,,,,,,,,,,,,,,,,,,,,,,,,,,,,,,,,,,,2,4.2089,0,5,5,5,1,I would have difficulty just letting my mind wander without control or guidance.,1,6,,
,,,,,,,,,,,,,,,89347,001,2022-04-25_15h41.16.157,SPAMnetsValid,2021.1.4,MacIntel,59.99880002,,,,,,,,,,,,,,,,,,,,,,,,,,,,,,,,,,,,,,,,,,,,,,,,,,,,,,,,,,,,,,,,,,,,,,,,,,,,,,1,4.7974,0,6,6,6,1,I seldom notice the moods or feelings that different environments produce.,1,7,,
,,,,,,,,,,,,,,,89347,001,2022-04-25_15h41.16.157,SPAMnetsValid,2021.1.4,MacIntel,59.99880002,,,,,,,,,,,,,,,,,,,,,,,,,,,,,,,,,,,,,,,,,,,,,,,,,,,,,,,,,,,,,,,,,,,,,,,,,,,,,,5,2.6134,0,7,7,7,1,I experience a wide range of emotions or feelings.,0,8,,
,,,,,,,,,,,,,,,89347,001,2022-04-25_15h41.16.157,SPAMnetsValid,2021.1.4,MacIntel,59.99880002,,,,,,,,,,,,,,,,,,,,,,,,,,,,,,,,,,,,,,,,,,,,,,,,,,,,,,,,,,,,,,,,,,,,,,,,,,,,,,4,3.0652,0,8,8,8,1,"Sometimes when I am reading poetry or looking at a work of art, I feel a chill or wave of excitement.",0,9,,
,,,,,,,,,,,,,,,89347,001,2022-04-25_15h41.16.157,SPAMnetsValid,2021.1.4,MacIntel,59.99880002,,,,,,,,,,,,,,,,,,,,,,,,,,,,,,,,,,,,,,,,,,,,,,,,,,,,,,,,,,,,,,,,,,,,,,,,,,,,,,1,5.8461,0,9,9,9,1,I have little interest in speculating on the nature of the universe or the human condition.,1,10,,
,,,,,,,,,,,,,,,89347,001,2022-04-25_15h41.16.157,SPAMnetsValid,2021.1.4,MacIntel,59.99880002,,,,,,,,,,,,,,,,,,,,,,,,,,,,,,,,,,,,,,,,,,,,,,,,,,,,,,,,,,,,,,,,,,,,,,,,,,,,,,5,1.5545,0,10,10,10,1,I have a lot of intellectual curiosity.,0,11,,
,,,,,,,,,,,,,,,89347,001,2022-04-25_15h41.16.157,SPAMnetsValid,2021.1.4,MacIntel,59.99880002,,,,,,,,,,,,,,,,,,,,,,,,,,,,,,,,,,,,,,,,,,,,,,,,,,,,,,,,,,,,,,,,,,,,,,,,,,,,,,4,1.5718,0,11,11,11,1,I often enjoy playing with theories or abstract ideas.,0,12,,
,,,,,,,,,,,,,,,89347,001,2022-04-25_15h41.16.157,SPAMnetsValid,2021.1.4,MacIntel,59.99880002,,,,,,,,,,,,,,,,,,,,,,,,,,,,,,,,,,,,,,,,,,,,,,,,,,,,,,,,,,,,,,,,,,,,,,,,,,,,,,,,,,,,,,,,return,15.0921
