key_resp_3.keys,key_resp_3.rt,slider_2.response,slider_2.rt,rjt_rating,rjt_RT,trials_24.thisRepN,trials_24.thisTrialN,trials_24.thisN,trials_24.thisIndex,trials_24.ran,rjt_order,word1,word2,attention,participant,session,date,expName,psychopyVersion,OS,frameRate,trials_4.thisRepN,trials_4.thisTrialN,trials_4.thisN,trials_4.thisIndex,trials_4.ran,trials_5.thisRepN,trials_5.thisTrialN,trials_5.thisN,trials_5.thisIndex,trials_5.ran,repOne,repTwo,slider.response,slider.rt,trials_22.thisRepN,trials_22.thisTrialN,trials_22.thisN,trials_22.thisIndex,trials_22.ran,trials_99.thisRepN,trials_99.thisTrialN,trials_99.thisN,trials_99.thisIndex,trials_99.ran,slider_extend_2.response,slider_extend_2.rt,trials_6.thisRepN,trials_6.thisTrialN,trials_6.thisN,trials_6.thisIndex,trials_6.ran,vCue2,R1,R2,R3,R4,correct,sliderVocab.response,sliderVocab.rt,trials_7.thisRepN,trials_7.thisTrialN,trials_7.thisN,trials_7.thisIndex,trials_7.ran,VocabCue,VR1,VR2,VR3,VR4,VR5,VocabCorrect,AUT_resp,AUT_label,trials.thisRepN,trials.thisTrialN,trials.thisN,trials.thisIndex,trials.ran,trials_2.thisRepN,trials_2.thisTrialN,trials_2.thisN,trials_2.thisIndex,trials_2.ran,aut_prompt,VF_response,VF_tag,trials_16.thisRepN,trials_16.thisTrialN,trials_16.thisN,trials_16.thisIndex,trials_16.ran,trials_17.thisRepN,trials_17.thisTrialN,trials_17.thisN,trials_17.thisIndex,trials_17.ran,VFcond,open_slider.response,open_slider.rt,trials_3.thisRepN,trials_3.thisTrialN,trials_3.thisN,trials_3.thisIndex,trials_3.ran,OpenQ,Rev,OPEN_ORDER,key_resp_2.keys,key_resp_2.rt
return,1.5659,1,10.0315,1,10.0315,0,0,0,16,1,111,carrot,microwave,,89344,001,2022-04-29_15h25.54.050,SPAMnetsValid,2021.1.4,Win32,58.16320596,,,,,,,,,,,,,,,,,,,,,,,,,,,,,,,,,,,,,,,,,,,,,,,,,,,,,,,,,,,,,,,,,,,,,,,,,,,,,,,,,,,,,,,,,
,,9,2.1173,9,2.1173,0,1,1,60,1,122,flower,garden,,89344,001,2022-04-29_15h25.54.050,SPAMnetsValid,2021.1.4,Win32,58.16320596,,,,,,,,,,,,,,,,,,,,,,,,,,,,,,,,,,,,,,,,,,,,,,,,,,,,,,,,,,,,,,,,,,,,,,,,,,,,,,,,,,,,,,,,,
,,1,2.1738,1,2.1738,0,2,2,19,1,183,cake,rose,,89344,001,2022-04-29_15h25.54.050,SPAMnetsValid,2021.1.4,Win32,58.16320596,,,,,,,,,,,,,,,,,,,,,,,,,,,,,,,,,,,,,,,,,,,,,,,,,,,,,,,,,,,,,,,,,,,,,,,,,,,,,,,,,,,,,,,,,
,,1,1.6611,1,1.6611,0,3,3,84,1,130,microwave,yogurt,,89344,001,2022-04-29_15h25.54.050,SPAMnetsValid,2021.1.4,Win32,58.16320596,,,,,,,,,,,,,,,,,,,,,,,,,,,,,,,,,,,,,,,,,,,,,,,,,,,,,,,,,,,,,,,,,,,,,,,,,,,,,,,,,,,,,,,,,
,,8,3.0661,8,3.0661,0,4,4,1,1,173,kitchen,tomato,,89344,001,2022-04-29_15h25.54.050,SPAMnetsValid,2021.1.4,Win32,58.16320596,,,,,,,,,,,,,,,,,,,,,,,,,,,,,,,,,,,,,,,,,,,,,,,,,,,,,,,,,,,,,,,,,,,,,,,,,,,,,,,,,,,,,,,,,
,,1,32.834,1,32.834,0,5,5,45,1,179,broom,oven,,89344,001,2022-04-29_15h25.54.050,SPAMnetsValid,2021.1.4,Win32,58.16320596,,,,,,,,,,,,,,,,,,,,,,,,,,,,,,,,,,,,,,,,,,,,,,,,,,,,,,,,,,,,,,,,,,,,,,,,,,,,,,,,,,,,,,,,,
,,6,3.4321,6,3.4321,0,6,6,43,1,185,cactus,rose,,89344,001,2022-04-29_15h25.54.050,SPAMnetsValid,2021.1.4,Win32,58.16320596,,,,,,,,,,,,,,,,,,,,,,,,,,,,,,,,,,,,,,,,,,,,,,,,,,,,,,,,,,,,,,,,,,,,,,,,,,,,,,,,,,,,,,,,,
,,2,1.8345,2,1.8345,0,7,7,9,1,176,cactus,tomato,,89344,001,2022-04-29_15h25.54.050,SPAMnetsValid,2021.1.4,Win32,58.16320596,,,,,,,,,,,,,,,,,,,,,,,,,,,,,,,,,,,,,,,,,,,,,,,,,,,,,,,,,,,,,,,,,,,,,,,,,,,,,,,,,,,,,,,,,
,,9,1.5467,9,1.5467,0,8,8,52,1,110,chocolate,cookie,,89344,001,2022-04-29_15h25.54.050,SPAMnetsValid,2021.1.4,Win32,58.16320596,,,,,,,,,,,,,,,,,,,,,,,,,,,,,,,,,,,,,,,,,,,,,,,,,,,,,,,,,,,,,,,,,,,,,,,,,,,,,,,,,,,,,,,,,
,,1,2.561,1,2.561,0,9,9,34,1,153,carrot,pretzel,,89344,001,2022-04-29_15h25.54.050,SPAMnetsValid,2021.1.4,Win32,58.16320596,,,,,,,,,,,,,,,,,,,,,,,,,,,,,,,,,,,,,,,,,,,,,,,,,,,,,,,,,,,,,,,,,,,,,,,,,,,,,,,,,,,,,,,,,
,,7,2.7094,7,2.7094,0,10,10,62,1,189,onion,tree,,89344,001,2022-04-29_15h25.54.050,SPAMnetsValid,2021.1.4,Win32,58.16320596,,,,,,,,,,,,,,,,,,,,,,,,,,,,,,,,,,,,,,,,,,,,,,,,,,,,,,,,,,,,,,,,,,,,,,,,,,,,,,,,,,,,,,,,,
,,4,2.5983,4,2.5983,0,11,11,42,1,184,oven,pretzel,,89344,001,2022-04-29_15h25.54.050,SPAMnetsValid,2021.1.4,Win32,58.16320596,,,,,,,,,,,,,,,,,,,,,,,,,,,,,,,,,,,,,,,,,,,,,,,,,,,,,,,,,,,,,,,,,,,,,,,,,,,,,,,,,,,,,,,,,
,,9,2.1339,9,2.1339,0,12,12,56,1,113,refrigerator,strawberry,,89344,001,2022-04-29_15h25.54.050,SPAMnetsValid,2021.1.4,Win32,58.16320596,,,,,,,,,,,,,,,,,,,,,,,,,,,,,,,,,,,,,,,,,,,,,,,,,,,,,,,,,,,,,,,,,,,,,,,,,,,,,,,,,,,,,,,,,
,,1,6.5302,1,6.5302,0,13,13,38,1,155,carrot,cookie,,89344,001,2022-04-29_15h25.54.050,SPAMnetsValid,2021.1.4,Win32,58.16320596,,,,,,,,,,,,,,,,,,,,,,,,,,,,,,,,,,,,,,,,,,,,,,,,,,,,,,,,,,,,,,,,,,,,,,,,,,,,,,,,,,,,,,,,,
,,6,1.8956,6,1.8956,0,14,14,70,1,141,melon,tomato,,89344,001,2022-04-29_15h25.54.050,SPAMnetsValid,2021.1.4,Win32,58.16320596,,,,,,,,,,,,,,,,,,,,,,,,,,,,,,,,,,,,,,,,,,,,,,,,,,,,,,,,,,,,,,,,,,,,,,,,,,,,,,,,,,,,,,,,,
,,2,2.0954,2,2.0954,0,15,15,87,1,114,cookie,strawberry,,89344,001,2022-04-29_15h25.54.050,SPAMnetsValid,2021.1.4,Win32,58.16320596,,,,,,,,,,,,,,,,,,,,,,,,,,,,,,,,,,,,,,,,,,,,,,,,,,,,,,,,,,,,,,,,,,,,,,,,,,,,,,,,,,,,,,,,,
,,1,1.8176,1,1.8176,0,16,16,81,1,104,garden,microwave,,89344,001,2022-04-29_15h25.54.050,SPAMnetsValid,2021.1.4,Win32,58.16320596,,,,,,,,,,,,,,,,,,,,,,,,,,,,,,,,,,,,,,,,,,,,,,,,,,,,,,,,,,,,,,,,,,,,,,,,,,,,,,,,,,,,,,,,,
,,9,2.1693,9,2.1693,0,17,17,18,1,119,strawberry,tree,,89344,001,2022-04-29_15h25.54.050,SPAMnetsValid,2021.1.4,Win32,58.16320596,,,,,,,,,,,,,,,,,,,,,,,,,,,,,,,,,,,,,,,,,,,,,,,,,,,,,,,,,,,,,,,,,,,,,,,,,,,,,,,,,,,,,,,,,
,,2,2.9459,2,2.9459,0,18,18,39,1,112,cake,carrot,,89344,001,2022-04-29_15h25.54.050,SPAMnetsValid,2021.1.4,Win32,58.16320596,,,,,,,,,,,,,,,,,,,,,,,,,,,,,,,,,,,,,,,,,,,,,,,,,,,,,,,,,,,,,,,,,,,,,,,,,,,,,,,,,,,,,,,,,
,,4,1.9065,4,1.9065,0,19,19,49,1,152,cactus,strawberry,,89344,001,2022-04-29_15h25.54.050,SPAMnetsValid,2021.1.4,Win32,58.16320596,,,,,,,,,,,,,,,,,,,,,,,,,,,,,,,,,,,,,,,,,,,,,,,,,,,,,,,,,,,,,,,,,,,,,,,,,,,,,,,,,,,,,,,,,
,,7,2.612,7,2.612,0,20,20,69,1,124,oven,refrigerator,,89344,001,2022-04-29_15h25.54.050,SPAMnetsValid,2021.1.4,Win32,58.16320596,,,,,,,,,,,,,,,,,,,,,,,,,,,,,,,,,,,,,,,,,,,,,,,,,,,,,,,,,,,,,,,,,,,,,,,,,,,,,,,,,,,,,,,,,
,,9,2.0964,9,2.0964,0,21,21,22,1,142,garden,tree,,89344,001,2022-04-29_15h25.54.050,SPAMnetsValid,2021.1.4,Win32,58.16320596,,,,,,,,,,,,,,,,,,,,,,,,,,,,,,,,,,,,,,,,,,,,,,,,,,,,,,,,,,,,,,,,,,,,,,,,,,,,,,,,,,,,,,,,,
,,1,1.757,1,1.757,0,22,22,67,1,96,oven,strawberry,,89344,001,2022-04-29_15h25.54.050,SPAMnetsValid,2021.1.4,Win32,58.16320596,,,,,,,,,,,,,,,,,,,,,,,,,,,,,,,,,,,,,,,,,,,,,,,,,,,,,,,,,,,,,,,,,,,,,,,,,,,,,,,,,,,,,,,,,
,,9,1.8434,9,1.8434,0,23,23,86,1,193,melon,melon,CHECK,89344,001,2022-04-29_15h25.54.050,SPAMnetsValid,2021.1.4,Win32,58.16320596,,,,,,,,,,,,,,,,,,,,,,,,,,,,,,,,,,,,,,,,,,,,,,,,,,,,,,,,,,,,,,,,,,,,,,,,,,,,,,,,,,,,,,,,,
,,9,1.6541,9,1.6541,0,24,24,85,1,115,refrigerator,tomato,,89344,001,2022-04-29_15h25.54.050,SPAMnetsValid,2021.1.4,Win32,58.16320596,,,,,,,,,,,,,,,,,,,,,,,,,,,,,,,,,,,,,,,,,,,,,,,,,,,,,,,,,,,,,,,,,,,,,,,,,,,,,,,,,,,,,,,,,
,,3,1.9017,3,1.9017,0,25,25,54,1,101,cactus,kitchen,,89344,001,2022-04-29_15h25.54.050,SPAMnetsValid,2021.1.4,Win32,58.16320596,,,,,,,,,,,,,,,,,,,,,,,,,,,,,,,,,,,,,,,,,,,,,,,,,,,,,,,,,,,,,,,,,,,,,,,,,,,,,,,,,,,,,,,,,
,,1,3.625,1,3.625,0,26,26,4,1,109,broom,strawberry,,89344,001,2022-04-29_15h25.54.050,SPAMnetsValid,2021.1.4,Win32,58.16320596,,,,,,,,,,,,,,,,,,,,,,,,,,,,,,,,,,,,,,,,,,,,,,,,,,,,,,,,,,,,,,,,,,,,,,,,,,,,,,,,,,,,,,,,,
,,2,1.851,2,1.851,0,27,27,90,1,190,microwave,strawberry,,89344,001,2022-04-29_15h25.54.050,SPAMnetsValid,2021.1.4,Win32,58.16320596,,,,,,,,,,,,,,,,,,,,,,,,,,,,,,,,,,,,,,,,,,,,,,,,,,,,,,,,,,,,,,,,,,,,,,,,,,,,,,,,,,,,,,,,,
,,7,1.7434,7,1.7434,0,28,28,10,1,118,chocolate,oven,,89344,001,2022-04-29_15h25.54.050,SPAMnetsValid,2021.1.4,Win32,58.16320596,,,,,,,,,,,,,,,,,,,,,,,,,,,,,,,,,,,,,,,,,,,,,,,,,,,,,,,,,,,,,,,,,,,,,,,,,,,,,,,,,,,,,,,,,
,,9,2.5649,9,2.5649,0,29,29,51,1,168,cactus,flower,,89344,001,2022-04-29_15h25.54.050,SPAMnetsValid,2021.1.4,Win32,58.16320596,,,,,,,,,,,,,,,,,,,,,,,,,,,,,,,,,,,,,,,,,,,,,,,,,,,,,,,,,,,,,,,,,,,,,,,,,,,,,,,,,,,,,,,,,
,,1,1.6023,1,1.6023,0,30,30,68,1,180,tree,yogurt,,89344,001,2022-04-29_15h25.54.050,SPAMnetsValid,2021.1.4,Win32,58.16320596,,,,,,,,,,,,,,,,,,,,,,,,,,,,,,,,,,,,,,,,,,,,,,,,,,,,,,,,,,,,,,,,,,,,,,,,,,,,,,,,,,,,,,,,,
,,6,1.5363,6,1.5363,0,31,31,65,1,160,cookie,kitchen,,89344,001,2022-04-29_15h25.54.050,SPAMnetsValid,2021.1.4,Win32,58.16320596,,,,,,,,,,,,,,,,,,,,,,,,,,,,,,,,,,,,,,,,,,,,,,,,,,,,,,,,,,,,,,,,,,,,,,,,,,,,,,,,,,,,,,,,,
,,1,1.4257,1,1.4257,0,32,32,59,1,164,cookie,garden,,89344,001,2022-04-29_15h25.54.050,SPAMnetsValid,2021.1.4,Win32,58.16320596,,,,,,,,,,,,,,,,,,,,,,,,,,,,,,,,,,,,,,,,,,,,,,,,,,,,,,,,,,,,,,,,,,,,,,,,,,,,,,,,,,,,,,,,,
,,7,2.4007,7,2.4007,0,33,33,31,1,156,melon,rose,,89344,001,2022-04-29_15h25.54.050,SPAMnetsValid,2021.1.4,Win32,58.16320596,,,,,,,,,,,,,,,,,,,,,,,,,,,,,,,,,,,,,,,,,,,,,,,,,,,,,,,,,,,,,,,,,,,,,,,,,,,,,,,,,,,,,,,,,
,,1,1.4515,1,1.4515,0,34,34,73,1,135,carrot,oven,,89344,001,2022-04-29_15h25.54.050,SPAMnetsValid,2021.1.4,Win32,58.16320596,,,,,,,,,,,,,,,,,,,,,,,,,,,,,,,,,,,,,,,,,,,,,,,,,,,,,,,,,,,,,,,,,,,,,,,,,,,,,,,,,,,,,,,,,
,,9,1.8539,9,1.8539,0,35,35,47,1,167,carrot,garden,,89344,001,2022-04-29_15h25.54.050,SPAMnetsValid,2021.1.4,Win32,58.16320596,,,,,,,,,,,,,,,,,,,,,,,,,,,,,,,,,,,,,,,,,,,,,,,,,,,,,,,,,,,,,,,,,,,,,,,,,,,,,,,,,,,,,,,,,
,,1,1.8901,1,1.8901,0,36,36,55,1,143,pretzel,rose,,89344,001,2022-04-29_15h25.54.050,SPAMnetsValid,2021.1.4,Win32,58.16320596,,,,,,,,,,,,,,,,,,,,,,,,,,,,,,,,,,,,,,,,,,,,,,,,,,,,,,,,,,,,,,,,,,,,,,,,,,,,,,,,,,,,,,,,,
,,4,3.1849,4,3.1849,0,37,37,3,1,129,cactus,refrigerator,,89344,001,2022-04-29_15h25.54.050,SPAMnetsValid,2021.1.4,Win32,58.16320596,,,,,,,,,,,,,,,,,,,,,,,,,,,,,,,,,,,,,,,,,,,,,,,,,,,,,,,,,,,,,,,,,,,,,,,,,,,,,,,,,,,,,,,,,
,,9,2.6218,9,2.6218,0,38,38,17,1,99,garden,melon,,89344,001,2022-04-29_15h25.54.050,SPAMnetsValid,2021.1.4,Win32,58.16320596,,,,,,,,,,,,,,,,,,,,,,,,,,,,,,,,,,,,,,,,,,,,,,,,,,,,,,,,,,,,,,,,,,,,,,,,,,,,,,,,,,,,,,,,,
,,9,1.4206,9,1.4206,0,39,39,75,1,178,cactus,carrot,,89344,001,2022-04-29_15h25.54.050,SPAMnetsValid,2021.1.4,Win32,58.16320596,,,,,,,,,,,,,,,,,,,,,,,,,,,,,,,,,,,,,,,,,,,,,,,,,,,,,,,,,,,,,,,,,,,,,,,,,,,,,,,,,,,,,,,,,
,,9,0.9215,9,0.9215,0,40,40,25,1,194,cactus,cactus,CHECK,89344,001,2022-04-29_15h25.54.050,SPAMnetsValid,2021.1.4,Win32,58.16320596,,,,,,,,,,,,,,,,,,,,,,,,,,,,,,,,,,,,,,,,,,,,,,,,,,,,,,,,,,,,,,,,,,,,,,,,,,,,,,,,,,,,,,,,,
,,1,1.5515,1,1.5515,0,41,41,13,1,105,cactus,oven,,89344,001,2022-04-29_15h25.54.050,SPAMnetsValid,2021.1.4,Win32,58.16320596,,,,,,,,,,,,,,,,,,,,,,,,,,,,,,,,,,,,,,,,,,,,,,,,,,,,,,,,,,,,,,,,,,,,,,,,,,,,,,,,,,,,,,,,,
,,3,2.0069,3,2.0069,0,42,42,24,1,169,onion,yogurt,,89344,001,2022-04-29_15h25.54.050,SPAMnetsValid,2021.1.4,Win32,58.16320596,,,,,,,,,,,,,,,,,,,,,,,,,,,,,,,,,,,,,,,,,,,,,,,,,,,,,,,,,,,,,,,,,,,,,,,,,,,,,,,,,,,,,,,,,
,,8,2.2132,8,2.2132,0,43,43,95,1,121,broom,microwave,,89344,001,2022-04-29_15h25.54.050,SPAMnetsValid,2021.1.4,Win32,58.16320596,,,,,,,,,,,,,,,,,,,,,,,,,,,,,,,,,,,,,,,,,,,,,,,,,,,,,,,,,,,,,,,,,,,,,,,,,,,,,,,,,,,,,,,,,
,,2,2.8711,2,2.8711,0,44,44,2,1,174,cake,pretzel,,89344,001,2022-04-29_15h25.54.050,SPAMnetsValid,2021.1.4,Win32,58.16320596,,,,,,,,,,,,,,,,,,,,,,,,,,,,,,,,,,,,,,,,,,,,,,,,,,,,,,,,,,,,,,,,,,,,,,,,,,,,,,,,,,,,,,,,,
,,4,2.661,4,2.661,0,45,45,76,1,102,chocolate,refrigerator,,89344,001,2022-04-29_15h25.54.050,SPAMnetsValid,2021.1.4,Win32,58.16320596,,,,,,,,,,,,,,,,,,,,,,,,,,,,,,,,,,,,,,,,,,,,,,,,,,,,,,,,,,,,,,,,,,,,,,,,,,,,,,,,,,,,,,,,,
,,2,1.7616,2,1.7616,0,46,46,15,1,145,cactus,yogurt,,89344,001,2022-04-29_15h25.54.050,SPAMnetsValid,2021.1.4,Win32,58.16320596,,,,,,,,,,,,,,,,,,,,,,,,,,,,,,,,,,,,,,,,,,,,,,,,,,,,,,,,,,,,,,,,,,,,,,,,,,,,,,,,,,,,,,,,,
,,7,2.2832,7,2.2832,0,47,47,66,1,150,microwave,refrigerator,,89344,001,2022-04-29_15h25.54.050,SPAMnetsValid,2021.1.4,Win32,58.16320596,,,,,,,,,,,,,,,,,,,,,,,,,,,,,,,,,,,,,,,,,,,,,,,,,,,,,,,,,,,,,,,,,,,,,,,,,,,,,,,,,,,,,,,,,
,,2,2.8035,2,2.8035,0,48,48,92,1,170,cookie,microwave,,89344,001,2022-04-29_15h25.54.050,SPAMnetsValid,2021.1.4,Win32,58.16320596,,,,,,,,,,,,,,,,,,,,,,,,,,,,,,,,,,,,,,,,,,,,,,,,,,,,,,,,,,,,,,,,,,,,,,,,,,,,,,,,,,,,,,,,,
,,6,1.8501,6,1.8501,0,49,49,91,1,166,cake,yogurt,,89344,001,2022-04-29_15h25.54.050,SPAMnetsValid,2021.1.4,Win32,58.16320596,,,,,,,,,,,,,,,,,,,,,,,,,,,,,,,,,,,,,,,,,,,,,,,,,,,,,,,,,,,,,,,,,,,,,,,,,,,,,,,,,,,,,,,,,
,,9,2.1389,9,2.1389,0,50,50,26,1,107,rose,tomato,,89344,001,2022-04-29_15h25.54.050,SPAMnetsValid,2021.1.4,Win32,58.16320596,,,,,,,,,,,,,,,,,,,,,,,,,,,,,,,,,,,,,,,,,,,,,,,,,,,,,,,,,,,,,,,,,,,,,,,,,,,,,,,,,,,,,,,,,
,,6,3.7285,6,3.7285,0,51,51,36,1,161,kitchen,pretzel,,89344,001,2022-04-29_15h25.54.050,SPAMnetsValid,2021.1.4,Win32,58.16320596,,,,,,,,,,,,,,,,,,,,,,,,,,,,,,,,,,,,,,,,,,,,,,,,,,,,,,,,,,,,,,,,,,,,,,,,,,,,,,,,,,,,,,,,,
,,6,1.8669,6,1.8669,0,52,52,48,1,186,kitchen,yogurt,,89344,001,2022-04-29_15h25.54.050,SPAMnetsValid,2021.1.4,Win32,58.16320596,,,,,,,,,,,,,,,,,,,,,,,,,,,,,,,,,,,,,,,,,,,,,,,,,,,,,,,,,,,,,,,,,,,,,,,,,,,,,,,,,,,,,,,,,
,,9,1.721,9,1.721,0,53,53,33,1,131,cactus,garden,,89344,001,2022-04-29_15h25.54.050,SPAMnetsValid,2021.1.4,Win32,58.16320596,,,,,,,,,,,,,,,,,,,,,,,,,,,,,,,,,,,,,,,,,,,,,,,,,,,,,,,,,,,,,,,,,,,,,,,,,,,,,,,,,,,,,,,,,
,,6,2.1925,6,2.1925,0,54,54,14,1,120,microwave,oven,,89344,001,2022-04-29_15h25.54.050,SPAMnetsValid,2021.1.4,Win32,58.16320596,,,,,,,,,,,,,,,,,,,,,,,,,,,,,,,,,,,,,,,,,,,,,,,,,,,,,,,,,,,,,,,,,,,,,,,,,,,,,,,,,,,,,,,,,
,,4,1.656,4,1.656,0,55,55,79,1,103,pretzel,tomato,,89344,001,2022-04-29_15h25.54.050,SPAMnetsValid,2021.1.4,Win32,58.16320596,,,,,,,,,,,,,,,,,,,,,,,,,,,,,,,,,,,,,,,,,,,,,,,,,,,,,,,,,,,,,,,,,,,,,,,,,,,,,,,,,,,,,,,,,
,,1,1.9695,1,1.9695,0,56,56,5,1,108,carrot,chocolate,,89344,001,2022-04-29_15h25.54.050,SPAMnetsValid,2021.1.4,Win32,58.16320596,,,,,,,,,,,,,,,,,,,,,,,,,,,,,,,,,,,,,,,,,,,,,,,,,,,,,,,,,,,,,,,,,,,,,,,,,,,,,,,,,,,,,,,,,
,,2,1.7703,2,1.7703,0,57,57,63,1,137,microwave,tree,,89344,001,2022-04-29_15h25.54.050,SPAMnetsValid,2021.1.4,Win32,58.16320596,,,,,,,,,,,,,,,,,,,,,,,,,,,,,,,,,,,,,,,,,,,,,,,,,,,,,,,,,,,,,,,,,,,,,,,,,,,,,,,,,,,,,,,,,
,,3,1.4607,3,1.4607,0,58,58,8,1,97,chocolate,kitchen,,89344,001,2022-04-29_15h25.54.050,SPAMnetsValid,2021.1.4,Win32,58.16320596,,,,,,,,,,,,,,,,,,,,,,,,,,,,,,,,,,,,,,,,,,,,,,,,,,,,,,,,,,,,,,,,,,,,,,,,,,,,,,,,,,,,,,,,,
,,9,1.6107,9,1.6107,0,59,59,37,1,139,carrot,strawberry,,89344,001,2022-04-29_15h25.54.050,SPAMnetsValid,2021.1.4,Win32,58.16320596,,,,,,,,,,,,,,,,,,,,,,,,,,,,,,,,,,,,,,,,,,,,,,,,,,,,,,,,,,,,,,,,,,,,,,,,,,,,,,,,,,,,,,,,,
,,6,1.9407,6,1.9407,0,60,60,35,1,147,cake,refrigerator,,89344,001,2022-04-29_15h25.54.050,SPAMnetsValid,2021.1.4,Win32,58.16320596,,,,,,,,,,,,,,,,,,,,,,,,,,,,,,,,,,,,,,,,,,,,,,,,,,,,,,,,,,,,,,,,,,,,,,,,,,,,,,,,,,,,,,,,,
,,2,2.1012,2,2.1012,0,61,61,88,1,171,cake,tomato,,89344,001,2022-04-29_15h25.54.050,SPAMnetsValid,2021.1.4,Win32,58.16320596,,,,,,,,,,,,,,,,,,,,,,,,,,,,,,,,,,,,,,,,,,,,,,,,,,,,,,,,,,,,,,,,,,,,,,,,,,,,,,,,,,,,,,,,,
,,1,2.0872,1,2.0872,0,62,62,6,1,151,microwave,onion,,89344,001,2022-04-29_15h25.54.050,SPAMnetsValid,2021.1.4,Win32,58.16320596,,,,,,,,,,,,,,,,,,,,,,,,,,,,,,,,,,,,,,,,,,,,,,,,,,,,,,,,,,,,,,,,,,,,,,,,,,,,,,,,,,,,,,,,,
,,4,1.4682,4,1.4682,0,63,63,21,1,159,cookie,flower,,89344,001,2022-04-29_15h25.54.050,SPAMnetsValid,2021.1.4,Win32,58.16320596,,,,,,,,,,,,,,,,,,,,,,,,,,,,,,,,,,,,,,,,,,,,,,,,,,,,,,,,,,,,,,,,,,,,,,,,,,,,,,,,,,,,,,,,,
,,9,1.2686,9,1.2686,0,64,64,93,1,134,carrot,flower,,89344,001,2022-04-29_15h25.54.050,SPAMnetsValid,2021.1.4,Win32,58.16320596,,,,,,,,,,,,,,,,,,,,,,,,,,,,,,,,,,,,,,,,,,,,,,,,,,,,,,,,,,,,,,,,,,,,,,,,,,,,,,,,,,,,,,,,,
,,6,1.7923,6,1.7923,0,65,65,0,1,106,cake,strawberry,,89344,001,2022-04-29_15h25.54.050,SPAMnetsValid,2021.1.4,Win32,58.16320596,,,,,,,,,,,,,,,,,,,,,,,,,,,,,,,,,,,,,,,,,,,,,,,,,,,,,,,,,,,,,,,,,,,,,,,,,,,,,,,,,,,,,,,,,
,,6,2.9286,6,2.9286,0,66,66,96,1,136,chocolate,microwave,,89344,001,2022-04-29_15h25.54.050,SPAMnetsValid,2021.1.4,Win32,58.16320596,,,,,,,,,,,,,,,,,,,,,,,,,,,,,,,,,,,,,,,,,,,,,,,,,,,,,,,,,,,,,,,,,,,,,,,,,,,,,,,,,,,,,,,,,
,,1,1.8077,1,1.8077,0,67,67,58,1,144,cake,garden,,89344,001,2022-04-29_15h25.54.050,SPAMnetsValid,2021.1.4,Win32,58.16320596,,,,,,,,,,,,,,,,,,,,,,,,,,,,,,,,,,,,,,,,,,,,,,,,,,,,,,,,,,,,,,,,,,,,,,,,,,,,,,,,,,,,,,,,,
,,6,1.3762,6,1.3762,0,68,68,72,1,181,carrot,kitchen,,89344,001,2022-04-29_15h25.54.050,SPAMnetsValid,2021.1.4,Win32,58.16320596,,,,,,,,,,,,,,,,,,,,,,,,,,,,,,,,,,,,,,,,,,,,,,,,,,,,,,,,,,,,,,,,,,,,,,,,,,,,,,,,,,,,,,,,,
,,4,2.1506,4,2.1506,0,69,69,64,1,157,refrigerator,rose,,89344,001,2022-04-29_15h25.54.050,SPAMnetsValid,2021.1.4,Win32,58.16320596,,,,,,,,,,,,,,,,,,,,,,,,,,,,,,,,,,,,,,,,,,,,,,,,,,,,,,,,,,,,,,,,,,,,,,,,,,,,,,,,,,,,,,,,,
,,9,2.2023,9,2.2023,0,70,70,28,1,154,strawberry,yogurt,,89344,001,2022-04-29_15h25.54.050,SPAMnetsValid,2021.1.4,Win32,58.16320596,,,,,,,,,,,,,,,,,,,,,,,,,,,,,,,,,,,,,,,,,,,,,,,,,,,,,,,,,,,,,,,,,,,,,,,,,,,,,,,,,,,,,,,,,
,,9,1.6555,9,1.6555,0,71,71,77,1,172,kitchen,melon,,89344,001,2022-04-29_15h25.54.050,SPAMnetsValid,2021.1.4,Win32,58.16320596,,,,,,,,,,,,,,,,,,,,,,,,,,,,,,,,,,,,,,,,,,,,,,,,,,,,,,,,,,,,,,,,,,,,,,,,,,,,,,,,,,,,,,,,,
,,9,1.2572,9,1.2572,0,72,72,23,1,148,flower,melon,,89344,001,2022-04-29_15h25.54.050,SPAMnetsValid,2021.1.4,Win32,58.16320596,,,,,,,,,,,,,,,,,,,,,,,,,,,,,,,,,,,,,,,,,,,,,,,,,,,,,,,,,,,,,,,,,,,,,,,,,,,,,,,,,,,,,,,,,
,,9,0.9464,9,0.9464,0,73,73,50,1,126,kitchen,tree,,89344,001,2022-04-29_15h25.54.050,SPAMnetsValid,2021.1.4,Win32,58.16320596,,,,,,,,,,,,,,,,,,,,,,,,,,,,,,,,,,,,,,,,,,,,,,,,,,,,,,,,,,,,,,,,,,,,,,,,,,,,,,,,,,,,,,,,,
,,9,0.8122,9,0.8122,0,74,74,7,1,188,flower,tree,,89344,001,2022-04-29_15h25.54.050,SPAMnetsValid,2021.1.4,Win32,58.16320596,,,,,,,,,,,,,,,,,,,,,,,,,,,,,,,,,,,,,,,,,,,,,,,,,,,,,,,,,,,,,,,,,,,,,,,,,,,,,,,,,,,,,,,,,
,,1,1.8023,1,1.8023,0,75,75,71,1,187,cactus,microwave,,89344,001,2022-04-29_15h25.54.050,SPAMnetsValid,2021.1.4,Win32,58.16320596,,,,,,,,,,,,,,,,,,,,,,,,,,,,,,,,,,,,,,,,,,,,,,,,,,,,,,,,,,,,,,,,,,,,,,,,,,,,,,,,,,,,,,,,,
,,8,1.3085,8,1.3085,0,76,76,40,1,165,onion,rose,,89344,001,2022-04-29_15h25.54.050,SPAMnetsValid,2021.1.4,Win32,58.16320596,,,,,,,,,,,,,,,,,,,,,,,,,,,,,,,,,,,,,,,,,,,,,,,,,,,,,,,,,,,,,,,,,,,,,,,,,,,,,,,,,,,,,,,,,
,,6,1.1977,6,1.1977,0,77,77,11,1,117,melon,strawberry,,89344,001,2022-04-29_15h25.54.050,SPAMnetsValid,2021.1.4,Win32,58.16320596,,,,,,,,,,,,,,,,,,,,,,,,,,,,,,,,,,,,,,,,,,,,,,,,,,,,,,,,,,,,,,,,,,,,,,,,,,,,,,,,,,,,,,,,,
,,1,1.3886,1,1.3886,0,78,78,82,1,98,pretzel,strawberry,,89344,001,2022-04-29_15h25.54.050,SPAMnetsValid,2021.1.4,Win32,58.16320596,,,,,,,,,,,,,,,,,,,,,,,,,,,,,,,,,,,,,,,,,,,,,,,,,,,,,,,,,,,,,,,,,,,,,,,,,,,,,,,,,,,,,,,,,
,,9,2.5542,9,2.5542,0,79,79,27,1,158,cookie,oven,,89344,001,2022-04-29_15h25.54.050,SPAMnetsValid,2021.1.4,Win32,58.16320596,,,,,,,,,,,,,,,,,,,,,,,,,,,,,,,,,,,,,,,,,,,,,,,,,,,,,,,,,,,,,,,,,,,,,,,,,,,,,,,,,,,,,,,,,
,,5,2.5517,5,2.5517,0,80,80,94,1,133,cake,flower,,89344,001,2022-04-29_15h25.54.050,SPAMnetsValid,2021.1.4,Win32,58.16320596,,,,,,,,,,,,,,,,,,,,,,,,,,,,,,,,,,,,,,,,,,,,,,,,,,,,,,,,,,,,,,,,,,,,,,,,,,,,,,,,,,,,,,,,,
,,4,2.5842,4,2.5842,0,81,81,57,1,127,cactus,chocolate,,89344,001,2022-04-29_15h25.54.050,SPAMnetsValid,2021.1.4,Win32,58.16320596,,,,,,,,,,,,,,,,,,,,,,,,,,,,,,,,,,,,,,,,,,,,,,,,,,,,,,,,,,,,,,,,,,,,,,,,,,,,,,,,,,,,,,,,,
,,9,2.6393,9,2.6393,0,82,82,44,1,116,cake,chocolate,,89344,001,2022-04-29_15h25.54.050,SPAMnetsValid,2021.1.4,Win32,58.16320596,,,,,,,,,,,,,,,,,,,,,,,,,,,,,,,,,,,,,,,,,,,,,,,,,,,,,,,,,,,,,,,,,,,,,,,,,,,,,,,,,,,,,,,,,
,,9,1.9696,9,1.9696,0,83,83,61,1,138,flower,rose,,89344,001,2022-04-29_15h25.54.050,SPAMnetsValid,2021.1.4,Win32,58.16320596,,,,,,,,,,,,,,,,,,,,,,,,,,,,,,,,,,,,,,,,,,,,,,,,,,,,,,,,,,,,,,,,,,,,,,,,,,,,,,,,,,,,,,,,,
,,4,1.896,4,1.896,0,84,84,46,1,123,cookie,tree,,89344,001,2022-04-29_15h25.54.050,SPAMnetsValid,2021.1.4,Win32,58.16320596,,,,,,,,,,,,,,,,,,,,,,,,,,,,,,,,,,,,,,,,,,,,,,,,,,,,,,,,,,,,,,,,,,,,,,,,,,,,,,,,,,,,,,,,,
,,9,1.4373,9,1.4373,0,85,85,41,1,175,melon,onion,,89344,001,2022-04-29_15h25.54.050,SPAMnetsValid,2021.1.4,Win32,58.16320596,,,,,,,,,,,,,,,,,,,,,,,,,,,,,,,,,,,,,,,,,,,,,,,,,,,,,,,,,,,,,,,,,,,,,,,,,,,,,,,,,,,,,,,,,
,,1,5.4126,1,5.4126,0,86,86,74,1,128,melon,microwave,,89344,001,2022-04-29_15h25.54.050,SPAMnetsValid,2021.1.4,Win32,58.16320596,,,,,,,,,,,,,,,,,,,,,,,,,,,,,,,,,,,,,,,,,,,,,,,,,,,,,,,,,,,,,,,,,,,,,,,,,,,,,,,,,,,,,,,,,
,,1,1.9178,1,1.9178,0,87,87,20,1,149,broom,tomato,,89344,001,2022-04-29_15h25.54.050,SPAMnetsValid,2021.1.4,Win32,58.16320596,,,,,,,,,,,,,,,,,,,,,,,,,,,,,,,,,,,,,,,,,,,,,,,,,,,,,,,,,,,,,,,,,,,,,,,,,,,,,,,,,,,,,,,,,
,,9,1.5869,9,1.5869,0,88,88,29,1,163,melon,refrigerator,,89344,001,2022-04-29_15h25.54.050,SPAMnetsValid,2021.1.4,Win32,58.16320596,,,,,,,,,,,,,,,,,,,,,,,,,,,,,,,,,,,,,,,,,,,,,,,,,,,,,,,,,,,,,,,,,,,,,,,,,,,,,,,,,,,,,,,,,
,,4,1.2427,4,1.2427,0,89,89,78,1,132,broom,tree,,89344,001,2022-04-29_15h25.54.050,SPAMnetsValid,2021.1.4,Win32,58.16320596,,,,,,,,,,,,,,,,,,,,,,,,,,,,,,,,,,,,,,,,,,,,,,,,,,,,,,,,,,,,,,,,,,,,,,,,,,,,,,,,,,,,,,,,,
,,3,2.6334,3,2.6334,0,90,90,32,1,182,flower,refrigerator,,89344,001,2022-04-29_15h25.54.050,SPAMnetsValid,2021.1.4,Win32,58.16320596,,,,,,,,,,,,,,,,,,,,,,,,,,,,,,,,,,,,,,,,,,,,,,,,,,,,,,,,,,,,,,,,,,,,,,,,,,,,,,,,,,,,,,,,,
,,4,1.313,4,1.313,0,91,91,80,1,146,pretzel,tree,,89344,001,2022-04-29_15h25.54.050,SPAMnetsValid,2021.1.4,Win32,58.16320596,,,,,,,,,,,,,,,,,,,,,,,,,,,,,,,,,,,,,,,,,,,,,,,,,,,,,,,,,,,,,,,,,,,,,,,,,,,,,,,,,,,,,,,,,
,,1,1.5442,1,1.5442,0,92,92,89,1,140,cookie,refrigerator,,89344,001,2022-04-29_15h25.54.050,SPAMnetsValid,2021.1.4,Win32,58.16320596,,,,,,,,,,,,,,,,,,,,,,,,,,,,,,,,,,,,,,,,,,,,,,,,,,,,,,,,,,,,,,,,,,,,,,,,,,,,,,,,,,,,,,,,,
,,9,1.4337,9,1.4337,0,93,93,30,1,125,carrot,tree,,89344,001,2022-04-29_15h25.54.050,SPAMnetsValid,2021.1.4,Win32,58.16320596,,,,,,,,,,,,,,,,,,,,,,,,,,,,,,,,,,,,,,,,,,,,,,,,,,,,,,,,,,,,,,,,,,,,,,,,,,,,,,,,,,,,,,,,,
,,1,1.7969,1,1.7969,0,94,94,12,1,162,microwave,tomato,,89344,001,2022-04-29_15h25.54.050,SPAMnetsValid,2021.1.4,Win32,58.16320596,,,,,,,,,,,,,,,,,,,,,,,,,,,,,,,,,,,,,,,,,,,,,,,,,,,,,,,,,,,,,,,,,,,,,,,,,,,,,,,,,,,,,,,,,
,,9,1.728,9,1.728,0,95,95,83,1,100,garden,tomato,,89344,001,2022-04-29_15h25.54.050,SPAMnetsValid,2021.1.4,Win32,58.16320596,,,,,,,,,,,,,,,,,,,,,,,,,,,,,,,,,,,,,,,,,,,,,,,,,,,,,,,,,,,,,,,,,,,,,,,,,,,,,,,,,,,,,,,,,
,,9,1.6099,9,1.6099,0,96,96,53,1,177,chocolate,strawberry,,89344,001,2022-04-29_15h25.54.050,SPAMnetsValid,2021.1.4,Win32,58.16320596,,,,,,,,,,,,,,,,,,,,,,,,,,,,,,,,,,,,,,,,,,,,,,,,,,,,,,,,,,,,,,,,,,,,,,,,,,,,,,,,,,,,,,,,,
,,,,,,,,,,,,,,,89344,001,2022-04-29_15h25.54.050,SPAMnetsValid,2021.1.4,Win32,58.16320596,0,0,0,0,1,,,,,,,,,,,,,,,,,,,,,,,,,,,,,,,,,,,,,,,,,,,,,,,,,,,,,,,,,,,,,,,,,,,,,,,,,,,,,,,,,,,,
,,,,,,,,,,,,,,,89344,001,2022-04-29_15h25.54.050,SPAMnetsValid,2021.1.4,Win32,58.16320596,,,,,,0,0,0,1,1,0,1,,,,,,,,,,,,,,,,,,,,,,,,,,,,,,,,,,,,,,,,,,,,,,,,,,,,,,,,,,,,,,,,,,,,,,,,,,,,,
,,,,9,7.2854,,,,,,22,kitchen,strawberry,,89344,001,2022-04-29_15h25.54.050,SPAMnetsValid,2021.1.4,Win32,58.16320596,,,,,,,,,,,,,9,7.2854,0,0,0,2,1,,,,,,,,,,,,,,,,,,,,,,,,,,,,,,,,,,,,,,,,,,,,,,,,,,,,,,,,,,,,,,,,,,,,,,
,,,,1,5.8826,,,,,,71,broom,rose,,89344,001,2022-04-29_15h25.54.050,SPAMnetsValid,2021.1.4,Win32,58.16320596,,,,,,,,,,,,,1,5.8826,0,1,1,61,1,,,,,,,,,,,,,,,,,,,,,,,,,,,,,,,,,,,,,,,,,,,,,,,,,,,,,,,,,,,,,,,,,,,,,,
,,,,1,1.6972,,,,,,86,oven,rose,,89344,001,2022-04-29_15h25.54.050,SPAMnetsValid,2021.1.4,Win32,58.16320596,,,,,,,,,,,,,1,1.6972,0,2,2,79,1,,,,,,,,,,,,,,,,,,,,,,,,,,,,,,,,,,,,,,,,,,,,,,,,,,,,,,,,,,,,,,,,,,,,,,
,,,,1,2.1514,,,,,,64,chocolate,garden,,89344,001,2022-04-29_15h25.54.050,SPAMnetsValid,2021.1.4,Win32,58.16320596,,,,,,,,,,,,,1,2.1514,0,3,3,14,1,,,,,,,,,,,,,,,,,,,,,,,,,,,,,,,,,,,,,,,,,,,,,,,,,,,,,,,,,,,,,,,,,,,,,,
,,,,4,1.6632,,,,,,30,cookie,pretzel,,89344,001,2022-04-29_15h25.54.050,SPAMnetsValid,2021.1.4,Win32,58.16320596,,,,,,,,,,,,,4,1.6632,0,4,4,78,1,,,,,,,,,,,,,,,,,,,,,,,,,,,,,,,,,,,,,,,,,,,,,,,,,,,,,,,,,,,,,,,,,,,,,,
,,,,9,1.3369,,,,,,47,onion,tomato,,89344,001,2022-04-29_15h25.54.050,SPAMnetsValid,2021.1.4,Win32,58.16320596,,,,,,,,,,,,,9,1.3369,0,5,5,51,1,,,,,,,,,,,,,,,,,,,,,,,,,,,,,,,,,,,,,,,,,,,,,,,,,,,,,,,,,,,,,,,,,,,,,,
,,,,4,1.7271,,,,,,49,flower,strawberry,,89344,001,2022-04-29_15h25.54.050,SPAMnetsValid,2021.1.4,Win32,58.16320596,,,,,,,,,,,,,4,1.7271,0,6,6,3,1,,,,,,,,,,,,,,,,,,,,,,,,,,,,,,,,,,,,,,,,,,,,,,,,,,,,,,,,,,,,,,,,,,,,,,
,,,,1,3.2713,,,,,,38,pretzel,refrigerator,,89344,001,2022-04-29_15h25.54.050,SPAMnetsValid,2021.1.4,Win32,58.16320596,,,,,,,,,,,,,1,3.2713,0,7,7,71,1,,,,,,,,,,,,,,,,,,,,,,,,,,,,,,,,,,,,,,,,,,,,,,,,,,,,,,,,,,,,,,,,,,,,,,
,,,,6,2.1171,,,,,,93,kitchen,oven,,89344,001,2022-04-29_15h25.54.050,SPAMnetsValid,2021.1.4,Win32,58.16320596,,,,,,,,,,,,,6,2.1171,0,8,8,82,1,,,,,,,,,,,,,,,,,,,,,,,,,,,,,,,,,,,,,,,,,,,,,,,,,,,,,,,,,,,,,,,,,,,,,,
,,,,4,5.7809,,,,,,87,carrot,yogurt,,89344,001,2022-04-29_15h25.54.050,SPAMnetsValid,2021.1.4,Win32,58.16320596,,,,,,,,,,,,,4,5.7809,0,9,9,6,1,,,,,,,,,,,,,,,,,,,,,,,,,,,,,,,,,,,,,,,,,,,,,,,,,,,,,,,,,,,,,,,,,,,,,,
,,,,9,2.5852,,,,,,10,flower,onion,,89344,001,2022-04-29_15h25.54.050,SPAMnetsValid,2021.1.4,Win32,58.16320596,,,,,,,,,,,,,9,2.5852,0,10,10,45,1,,,,,,,,,,,,,,,,,,,,,,,,,,,,,,,,,,,,,,,,,,,,,,,,,,,,,,,,,,,,,,,,,,,,,,
,,,,1,1.5183,,,,,,40,broom,cake,,89344,001,2022-04-29_15h25.54.050,SPAMnetsValid,2021.1.4,Win32,58.16320596,,,,,,,,,,,,,1,1.5183,0,11,11,32,1,,,,,,,,,,,,,,,,,,,,,,,,,,,,,,,,,,,,,,,,,,,,,,,,,,,,,,,,,,,,,,,,,,,,,,
,,,,4,1.6576,,,,,,28,cake,melon,,89344,001,2022-04-29_15h25.54.050,SPAMnetsValid,2021.1.4,Win32,58.16320596,,,,,,,,,,,,,4,1.6576,0,12,12,54,1,,,,,,,,,,,,,,,,,,,,,,,,,,,,,,,,,,,,,,,,,,,,,,,,,,,,,,,,,,,,,,,,,,,,,,
,,,,3,1.5889,,,,,,73,broom,chocolate,,89344,001,2022-04-29_15h25.54.050,SPAMnetsValid,2021.1.4,Win32,58.16320596,,,,,,,,,,,,,3,1.5889,0,13,13,47,1,,,,,,,,,,,,,,,,,,,,,,,,,,,,,,,,,,,,,,,,,,,,,,,,,,,,,,,,,,,,,,,,,,,,,,
,,,,6,1.964,,,,,,62,kitchen,rose,,89344,001,2022-04-29_15h25.54.050,SPAMnetsValid,2021.1.4,Win32,58.16320596,,,,,,,,,,,,,6,1.964,0,14,14,57,1,,,,,,,,,,,,,,,,,,,,,,,,,,,,,,,,,,,,,,,,,,,,,,,,,,,,,,,,,,,,,,,,,,,,,,
,,,,3,1.8751,,,,,,29,chocolate,melon,,89344,001,2022-04-29_15h25.54.050,SPAMnetsValid,2021.1.4,Win32,58.16320596,,,,,,,,,,,,,3,1.8751,0,15,15,34,1,,,,,,,,,,,,,,,,,,,,,,,,,,,,,,,,,,,,,,,,,,,,,,,,,,,,,,,,,,,,,,,,,,,,,,
,,,,1,4.3374,,,,,,24,cookie,tomato,,89344,001,2022-04-29_15h25.54.050,SPAMnetsValid,2021.1.4,Win32,58.16320596,,,,,,,,,,,,,1,4.3374,0,16,16,68,1,,,,,,,,,,,,,,,,,,,,,,,,,,,,,,,,,,,,,,,,,,,,,,,,,,,,,,,,,,,,,,,,,,,,,,
,,,,6,1.94,,,,,,69,carrot,refrigerator,,89344,001,2022-04-29_15h25.54.050,SPAMnetsValid,2021.1.4,Win32,58.16320596,,,,,,,,,,,,,6,1.94,0,17,17,75,1,,,,,,,,,,,,,,,,,,,,,,,,,,,,,,,,,,,,,,,,,,,,,,,,,,,,,,,,,,,,,,,,,,,,,,
,,,,6,1.3289,,,,,,77,refrigerator,yogurt,,89344,001,2022-04-29_15h25.54.050,SPAMnetsValid,2021.1.4,Win32,58.16320596,,,,,,,,,,,,,6,1.3289,0,18,18,42,1,,,,,,,,,,,,,,,,,,,,,,,,,,,,,,,,,,,,,,,,,,,,,,,,,,,,,,,,,,,,,,,,,,,,,,
,,,,9,1.3382,,,,,,51,onion,strawberry,,89344,001,2022-04-29_15h25.54.050,SPAMnetsValid,2021.1.4,Win32,58.16320596,,,,,,,,,,,,,9,1.3382,0,19,19,86,1,,,,,,,,,,,,,,,,,,,,,,,,,,,,,,,,,,,,,,,,,,,,,,,,,,,,,,,,,,,,,,,,,,,,,,
,,,,4,1.1017,,,,,,15,onion,oven,,89344,001,2022-04-29_15h25.54.050,SPAMnetsValid,2021.1.4,Win32,58.16320596,,,,,,,,,,,,,4,1.1017,0,20,20,39,1,,,,,,,,,,,,,,,,,,,,,,,,,,,,,,,,,,,,,,,,,,,,,,,,,,,,,,,,,,,,,,,,,,,,,,
,,,,2,1.4853,,,,,,74,broom,pretzel,,89344,001,2022-04-29_15h25.54.050,SPAMnetsValid,2021.1.4,Win32,58.16320596,,,,,,,,,,,,,2,1.4853,0,21,21,40,1,,,,,,,,,,,,,,,,,,,,,,,,,,,,,,,,,,,,,,,,,,,,,,,,,,,,,,,,,,,,,,,,,,,,,,
,,,,9,2.2202,,,,,,191,cake,cake,CHECK,89344,001,2022-04-29_15h25.54.050,SPAMnetsValid,2021.1.4,Win32,58.16320596,,,,,,,,,,,,,9,2.2202,0,22,22,10,1,,,,,,,,,,,,,,,,,,,,,,,,,,,,,,,,,,,,,,,,,,,,,,,,,,,,,,,,,,,,,,,,,,,,,,
,,,,1,1.4939,,,,,,41,broom,cactus,,89344,001,2022-04-29_15h25.54.050,SPAMnetsValid,2021.1.4,Win32,58.16320596,,,,,,,,,,,,,1,1.4939,0,23,23,46,1,,,,,,,,,,,,,,,,,,,,,,,,,,,,,,,,,,,,,,,,,,,,,,,,,,,,,,,,,,,,,,,,,,,,,,
,,,,9,1.9566,,,,,,55,tomato,tree,,89344,001,2022-04-29_15h25.54.050,SPAMnetsValid,2021.1.4,Win32,58.16320596,,,,,,,,,,,,,9,1.9566,0,24,24,35,1,,,,,,,,,,,,,,,,,,,,,,,,,,,,,,,,,,,,,,,,,,,,,,,,,,,,,,,,,,,,,,,,,,,,,,
,,,,8,1.4308,,,,,,42,garden,kitchen,,89344,001,2022-04-29_15h25.54.050,SPAMnetsValid,2021.1.4,Win32,58.16320596,,,,,,,,,,,,,8,1.4308,0,25,25,29,1,,,,,,,,,,,,,,,,,,,,,,,,,,,,,,,,,,,,,,,,,,,,,,,,,,,,,,,,,,,,,,,,,,,,,,
,,,,4,1.4183,,,,,,39,melon,pretzel,,89344,001,2022-04-29_15h25.54.050,SPAMnetsValid,2021.1.4,Win32,58.16320596,,,,,,,,,,,,,4,1.4183,0,26,26,20,1,,,,,,,,,,,,,,,,,,,,,,,,,,,,,,,,,,,,,,,,,,,,,,,,,,,,,,,,,,,,,,,,,,,,,,
,,,,2,1.7465,,,,,,43,chocolate,tomato,,89344,001,2022-04-29_15h25.54.050,SPAMnetsValid,2021.1.4,Win32,58.16320596,,,,,,,,,,,,,2,1.7465,0,27,27,8,1,,,,,,,,,,,,,,,,,,,,,,,,,,,,,,,,,,,,,,,,,,,,,,,,,,,,,,,,,,,,,,,,,,,,,,
,,,,6,1.2128,,,,,,1,rose,yogurt,,89344,001,2022-04-29_15h25.54.050,SPAMnetsValid,2021.1.4,Win32,58.16320596,,,,,,,,,,,,,6,1.2128,0,28,28,55,1,,,,,,,,,,,,,,,,,,,,,,,,,,,,,,,,,,,,,,,,,,,,,,,,,,,,,,,,,,,,,,,,,,,,,,
,,,,9,1.3703,,,,,,6,garden,onion,,89344,001,2022-04-29_15h25.54.050,SPAMnetsValid,2021.1.4,Win32,58.16320596,,,,,,,,,,,,,9,1.3703,0,29,29,83,1,,,,,,,,,,,,,,,,,,,,,,,,,,,,,,,,,,,,,,,,,,,,,,,,,,,,,,,,,,,,,,,,,,,,,,
,,,,1,1.2175,,,,,,19,microwave,pretzel,,89344,001,2022-04-29_15h25.54.050,SPAMnetsValid,2021.1.4,Win32,58.16320596,,,,,,,,,,,,,1,1.2175,0,30,30,41,1,,,,,,,,,,,,,,,,,,,,,,,,,,,,,,,,,,,,,,,,,,,,,,,,,,,,,,,,,,,,,,,,,,,,,,
,,,,7,2.0009,,,,,,18,onion,refrigerator,,89344,001,2022-04-29_15h25.54.050,SPAMnetsValid,2021.1.4,Win32,58.16320596,,,,,,,,,,,,,7,2.0009,0,31,31,62,1,,,,,,,,,,,,,,,,,,,,,,,,,,,,,,,,,,,,,,,,,,,,,,,,,,,,,,,,,,,,,,,,,,,,,,
,,,,1,1.3686,,,,,,91,microwave,rose,,89344,001,2022-04-29_15h25.54.050,SPAMnetsValid,2021.1.4,Win32,58.16320596,,,,,,,,,,,,,1,1.3686,0,32,32,84,1,,,,,,,,,,,,,,,,,,,,,,,,,,,,,,,,,,,,,,,,,,,,,,,,,,,,,,,,,,,,,,,,,,,,,,
,,,,9,4.2178,,,,,,17,carrot,melon,,89344,001,2022-04-29_15h25.54.050,SPAMnetsValid,2021.1.4,Win32,58.16320596,,,,,,,,,,,,,9,4.2178,0,33,33,24,1,,,,,,,,,,,,,,,,,,,,,,,,,,,,,,,,,,,,,,,,,,,,,,,,,,,,,,,,,,,,,,,,,,,,,,
,,,,1,1.8007,,,,,,34,melon,oven,,89344,001,2022-04-29_15h25.54.050,SPAMnetsValid,2021.1.4,Win32,58.16320596,,,,,,,,,,,,,1,1.8007,0,34,34,7,1,,,,,,,,,,,,,,,,,,,,,,,,,,,,,,,,,,,,,,,,,,,,,,,,,,,,,,,,,,,,,,,,,,,,,,
,,,,6,1.8306,,,,,,95,broom,refrigerator,,89344,001,2022-04-29_15h25.54.050,SPAMnetsValid,2021.1.4,Win32,58.16320596,,,,,,,,,,,,,6,1.8306,0,35,35,90,1,,,,,,,,,,,,,,,,,,,,,,,,,,,,,,,,,,,,,,,,,,,,,,,,,,,,,,,,,,,,,,,,,,,,,,
,,,,3,1.4276,,,,,,35,flower,pretzel,,89344,001,2022-04-29_15h25.54.050,SPAMnetsValid,2021.1.4,Win32,58.16320596,,,,,,,,,,,,,3,1.4276,0,36,36,26,1,,,,,,,,,,,,,,,,,,,,,,,,,,,,,,,,,,,,,,,,,,,,,,,,,,,,,,,,,,,,,,,,,,,,,,
,,,,2,1.3019,,,,,,92,broom,flower,,89344,001,2022-04-29_15h25.54.050,SPAMnetsValid,2021.1.4,Win32,58.16320596,,,,,,,,,,,,,2,1.3019,0,37,37,88,1,,,,,,,,,,,,,,,,,,,,,,,,,,,,,,,,,,,,,,,,,,,,,,,,,,,,,,,,,,,,,,,,,,,,,,
,,,,6,0.925,,,,,,3,cake,oven,,89344,001,2022-04-29_15h25.54.050,SPAMnetsValid,2021.1.4,Win32,58.16320596,,,,,,,,,,,,,6,0.925,0,38,38,30,1,,,,,,,,,,,,,,,,,,,,,,,,,,,,,,,,,,,,,,,,,,,,,,,,,,,,,,,,,,,,,,,,,,,,,,
,,,,9,2.3065,,,,,,52,carrot,tomato,,89344,001,2022-04-29_15h25.54.050,SPAMnetsValid,2021.1.4,Win32,58.16320596,,,,,,,,,,,,,9,2.3065,0,39,39,95,1,,,,,,,,,,,,,,,,,,,,,,,,,,,,,,,,,,,,,,,,,,,,,,,,,,,,,,,,,,,,,,,,,,,,,,
,,,,9,1.3535,,,,,,60,cactus,onion,,89344,001,2022-04-29_15h25.54.050,SPAMnetsValid,2021.1.4,Win32,58.16320596,,,,,,,,,,,,,9,1.3535,0,40,40,81,1,,,,,,,,,,,,,,,,,,,,,,,,,,,,,,,,,,,,,,,,,,,,,,,,,,,,,,,,,,,,,,,,,,,,,,
,,,,8,0.9025,,,,,,59,rose,strawberry,,89344,001,2022-04-29_15h25.54.050,SPAMnetsValid,2021.1.4,Win32,58.16320596,,,,,,,,,,,,,8,0.9025,0,41,41,72,1,,,,,,,,,,,,,,,,,,,,,,,,,,,,,,,,,,,,,,,,,,,,,,,,,,,,,,,,,,,,,,,,,,,,,,
,,,,1,2.4112,,,,,,11,refrigerator,tree,,89344,001,2022-04-29_15h25.54.050,SPAMnetsValid,2021.1.4,Win32,58.16320596,,,,,,,,,,,,,1,2.4112,0,42,42,43,1,,,,,,,,,,,,,,,,,,,,,,,,,,,,,,,,,,,,,,,,,,,,,,,,,,,,,,,,,,,,,,,,,,,,,,
,,,,9,1.9746,,,,,,4,chocolate,pretzel,,89344,001,2022-04-29_15h25.54.050,SPAMnetsValid,2021.1.4,Win32,58.16320596,,,,,,,,,,,,,9,1.9746,0,43,43,52,1,,,,,,,,,,,,,,,,,,,,,,,,,,,,,,,,,,,,,,,,,,,,,,,,,,,,,,,,,,,,,,,,,,,,,,
,,,,9,2.6927,,,,,,37,garden,refrigerator,,89344,001,2022-04-29_15h25.54.050,SPAMnetsValid,2021.1.4,Win32,58.16320596,,,,,,,,,,,,,9,2.6927,0,44,44,11,1,,,,,,,,,,,,,,,,,,,,,,,,,,,,,,,,,,,,,,,,,,,,,,,,,,,,,,,,,,,,,,,,,,,,,,
,,,,9,2.105,,,,,,32,cake,microwave,,89344,001,2022-04-29_15h25.54.050,SPAMnetsValid,2021.1.4,Win32,58.16320596,,,,,,,,,,,,,9,2.105,0,45,45,33,1,,,,,,,,,,,,,,,,,,,,,,,,,,,,,,,,,,,,,,,,,,,,,,,,,,,,,,,,,,,,,,,,,,,,,,
,,,,1,2.6939,,,,,,5,oven,tree,,89344,001,2022-04-29_15h25.54.050,SPAMnetsValid,2021.1.4,Win32,58.16320596,,,,,,,,,,,,,1,2.6939,0,46,46,70,1,,,,,,,,,,,,,,,,,,,,,,,,,,,,,,,,,,,,,,,,,,,,,,,,,,,,,,,,,,,,,,,,,,,,,,
,,,,9,2.1067,,,,,,63,cake,cookie,,89344,001,2022-04-29_15h25.54.050,SPAMnetsValid,2021.1.4,Win32,58.16320596,,,,,,,,,,,,,9,2.1067,0,47,47,93,1,,,,,,,,,,,,,,,,,,,,,,,,,,,,,,,,,,,,,,,,,,,,,,,,,,,,,,,,,,,,,,,,,,,,,,
,,,,6,1.7504,,,,,,48,flower,oven,,89344,001,2022-04-29_15h25.54.050,SPAMnetsValid,2021.1.4,Win32,58.16320596,,,,,,,,,,,,,6,1.7504,0,48,48,15,1,,,,,,,,,,,,,,,,,,,,,,,,,,,,,,,,,,,,,,,,,,,,,,,,,,,,,,,,,,,,,,,,,,,,,,
,,,,9,1.7902,,,,,,192,microwave,microwave,CHECK,89344,001,2022-04-29_15h25.54.050,SPAMnetsValid,2021.1.4,Win32,58.16320596,,,,,,,,,,,,,9,1.7902,0,49,49,53,1,,,,,,,,,,,,,,,,,,,,,,,,,,,,,,,,,,,,,,,,,,,,,,,,,,,,,,,,,,,,,,,,,,,,,,
,,,,9,4.1841,,,,,,46,garden,yogurt,,89344,001,2022-04-29_15h25.54.050,SPAMnetsValid,2021.1.4,Win32,58.16320596,,,,,,,,,,,,,9,4.1841,0,50,50,65,1,,,,,,,,,,,,,,,,,,,,,,,,,,,,,,,,,,,,,,,,,,,,,,,,,,,,,,,,,,,,,,,,,,,,,,
,,,,1,3.3903,,,,,,44,cookie,melon,,89344,001,2022-04-29_15h25.54.050,SPAMnetsValid,2021.1.4,Win32,58.16320596,,,,,,,,,,,,,1,3.3903,0,51,51,92,1,,,,,,,,,,,,,,,,,,,,,,,,,,,,,,,,,,,,,,,,,,,,,,,,,,,,,,,,,,,,,,,,,,,,,,
,,,,5,5.1295,,,,,,76,garden,rose,,89344,001,2022-04-29_15h25.54.050,SPAMnetsValid,2021.1.4,Win32,58.16320596,,,,,,,,,,,,,5,5.1295,0,52,52,19,1,,,,,,,,,,,,,,,,,,,,,,,,,,,,,,,,,,,,,,,,,,,,,,,,,,,,,,,,,,,,,,,,,,,,,,
,,,,5,2.592,,,,,,81,pretzel,yogurt,,89344,001,2022-04-29_15h25.54.050,SPAMnetsValid,2021.1.4,Win32,58.16320596,,,,,,,,,,,,,5,2.592,0,53,53,50,1,,,,,,,,,,,,,,,,,,,,,,,,,,,,,,,,,,,,,,,,,,,,,,,,,,,,,,,,,,,,,,,,,,,,,,
,,,,9,1.3372,,,,,,20,rose,tree,,89344,001,2022-04-29_15h25.54.050,SPAMnetsValid,2021.1.4,Win32,58.16320596,,,,,,,,,,,,,9,1.3372,0,54,54,66,1,,,,,,,,,,,,,,,,,,,,,,,,,,,,,,,,,,,,,,,,,,,,,,,,,,,,,,,,,,,,,,,,,,,,,,
,,,,9,1.1214,,,,,,56,cactus,tree,,89344,001,2022-04-29_15h25.54.050,SPAMnetsValid,2021.1.4,Win32,58.16320596,,,,,,,,,,,,,9,1.1214,0,55,55,21,1,,,,,,,,,,,,,,,,,,,,,,,,,,,,,,,,,,,,,,,,,,,,,,,,,,,,,,,,,,,,,,,,,,,,,,
,,,,9,0.6778,,,,,,7,melon,tree,,89344,001,2022-04-29_15h25.54.050,SPAMnetsValid,2021.1.4,Win32,58.16320596,,,,,,,,,,,,,9,0.6778,0,56,56,77,1,,,,,,,,,,,,,,,,,,,,,,,,,,,,,,,,,,,,,,,,,,,,,,,,,,,,,,,,,,,,,,,,,,,,,,
,,,,7,1.7275,,,,,,2,kitchen,onion,,89344,001,2022-04-29_15h25.54.050,SPAMnetsValid,2021.1.4,Win32,58.16320596,,,,,,,,,,,,,7,1.7275,0,57,57,91,1,,,,,,,,,,,,,,,,,,,,,,,,,,,,,,,,,,,,,,,,,,,,,,,,,,,,,,,,,,,,,,,,,,,,,,
,,,,6,2.8177,,,,,,57,flower,kitchen,,89344,001,2022-04-29_15h25.54.050,SPAMnetsValid,2021.1.4,Win32,58.16320596,,,,,,,,,,,,,6,2.8177,0,58,58,49,1,,,,,,,,,,,,,,,,,,,,,,,,,,,,,,,,,,,,,,,,,,,,,,,,,,,,,,,,,,,,,,,,,,,,,,
,,,,9,1.8074,,,,,,61,strawberry,tomato,,89344,001,2022-04-29_15h25.54.050,SPAMnetsValid,2021.1.4,Win32,58.16320596,,,,,,,,,,,,,9,1.8074,0,59,59,80,1,,,,,,,,,,,,,,,,,,,,,,,,,,,,,,,,,,,,,,,,,,,,,,,,,,,,,,,,,,,,,,,,,,,,,,
,,,,1,1.7523,,,,,,31,cactus,pretzel,,89344,001,2022-04-29_15h25.54.050,SPAMnetsValid,2021.1.4,Win32,58.16320596,,,,,,,,,,,,,1,1.7523,0,60,60,1,1,,,,,,,,,,,,,,,,,,,,,,,,,,,,,,,,,,,,,,,,,,,,,,,,,,,,,,,,,,,,,,,,,,,,,,
,,,,3,1.0863,,,,,,14,broom,cookie,,89344,001,2022-04-29_15h25.54.050,SPAMnetsValid,2021.1.4,Win32,58.16320596,,,,,,,,,,,,,3,1.0863,0,61,61,16,1,,,,,,,,,,,,,,,,,,,,,,,,,,,,,,,,,,,,,,,,,,,,,,,,,,,,,,,,,,,,,,,,,,,,,,
,,,,7,2.0407,,,,,,36,broom,kitchen,,89344,001,2022-04-29_15h25.54.050,SPAMnetsValid,2021.1.4,Win32,58.16320596,,,,,,,,,,,,,7,2.0407,0,62,62,76,1,,,,,,,,,,,,,,,,,,,,,,,,,,,,,,,,,,,,,,,,,,,,,,,,,,,,,,,,,,,,,,,,,,,,,,
,,,,9,2.0386,,,,,,88,cactus,melon,,89344,001,2022-04-29_15h25.54.050,SPAMnetsValid,2021.1.4,Win32,58.16320596,,,,,,,,,,,,,9,2.0386,0,63,63,38,1,,,,,,,,,,,,,,,,,,,,,,,,,,,,,,,,,,,,,,,,,,,,,,,,,,,,,,,,,,,,,,,,,,,,,,
,,,,8,1.3094,,,,,,66,melon,yogurt,,89344,001,2022-04-29_15h25.54.050,SPAMnetsValid,2021.1.4,Win32,58.16320596,,,,,,,,,,,,,8,1.3094,0,64,64,48,1,,,,,,,,,,,,,,,,,,,,,,,,,,,,,,,,,,,,,,,,,,,,,,,,,,,,,,,,,,,,,,,,,,,,,,
,,,,9,1.2859,,,,,,79,garden,strawberry,,89344,001,2022-04-29_15h25.54.050,SPAMnetsValid,2021.1.4,Win32,58.16320596,,,,,,,,,,,,,9,1.2859,0,65,65,87,1,,,,,,,,,,,,,,,,,,,,,,,,,,,,,,,,,,,,,,,,,,,,,,,,,,,,,,,,,,,,,,,,,,,,,,
,,,,9,1.2017,,,,,,67,flower,yogurt,,89344,001,2022-04-29_15h25.54.050,SPAMnetsValid,2021.1.4,Win32,58.16320596,,,,,,,,,,,,,9,1.2017,0,66,66,12,1,,,,,,,,,,,,,,,,,,,,,,,,,,,,,,,,,,,,,,,,,,,,,,,,,,,,,,,,,,,,,,,,,,,,,,
,,,,6,1.3635,,,,,,82,cake,kitchen,,89344,001,2022-04-29_15h25.54.050,SPAMnetsValid,2021.1.4,Win32,58.16320596,,,,,,,,,,,,,6,1.3635,0,67,67,96,1,,,,,,,,,,,,,,,,,,,,,,,,,,,,,,,,,,,,,,,,,,,,,,,,,,,,,,,,,,,,,,,,,,,,,,
,,,,4,1.1675,,,,,,78,cookie,rose,,89344,001,2022-04-29_15h25.54.050,SPAMnetsValid,2021.1.4,Win32,58.16320596,,,,,,,,,,,,,4,1.1675,0,68,68,56,1,,,,,,,,,,,,,,,,,,,,,,,,,,,,,,,,,,,,,,,,,,,,,,,,,,,,,,,,,,,,,,,,,,,,,,
,,,,8,1.7846,,,,,,9,kitchen,refrigerator,,89344,001,2022-04-29_15h25.54.050,SPAMnetsValid,2021.1.4,Win32,58.16320596,,,,,,,,,,,,,8,1.7846,0,69,69,64,1,,,,,,,,,,,,,,,,,,,,,,,,,,,,,,,,,,,,,,,,,,,,,,,,,,,,,,,,,,,,,,,,,,,,,,
,,,,4,1.9223,,,,,,12,cookie,yogurt,,89344,001,2022-04-29_15h25.54.050,SPAMnetsValid,2021.1.4,Win32,58.16320596,,,,,,,,,,,,,4,1.9223,0,70,70,36,1,,,,,,,,,,,,,,,,,,,,,,,,,,,,,,,,,,,,,,,,,,,,,,,,,,,,,,,,,,,,,,,,,,,,,,
,,,,1,2.739,,,,,,84,oven,tomato,,89344,001,2022-04-29_15h25.54.050,SPAMnetsValid,2021.1.4,Win32,58.16320596,,,,,,,,,,,,,1,2.739,0,71,71,28,1,,,,,,,,,,,,,,,,,,,,,,,,,,,,,,,,,,,,,,,,,,,,,,,,,,,,,,,,,,,,,,,,,,,,,,
,,,,7,1.1887,,,,,,8,broom,melon,,89344,001,2022-04-29_15h25.54.050,SPAMnetsValid,2021.1.4,Win32,58.16320596,,,,,,,,,,,,,7,1.1887,0,72,72,59,1,,,,,,,,,,,,,,,,,,,,,,,,,,,,,,,,,,,,,,,,,,,,,,,,,,,,,,,,,,,,,,,,,,,,,,
,,,,9,1.4409,,,,,,94,kitchen,microwave,,89344,001,2022-04-29_15h25.54.050,SPAMnetsValid,2021.1.4,Win32,58.16320596,,,,,,,,,,,,,9,1.4409,0,73,73,58,1,,,,,,,,,,,,,,,,,,,,,,,,,,,,,,,,,,,,,,,,,,,,,,,,,,,,,,,,,,,,,,,,,,,,,,
,,,,2,1.9194,,,,,,16,chocolate,flower,,89344,001,2022-04-29_15h25.54.050,SPAMnetsValid,2021.1.4,Win32,58.16320596,,,,,,,,,,,,,2,1.9194,0,74,74,22,1,,,,,,,,,,,,,,,,,,,,,,,,,,,,,,,,,,,,,,,,,,,,,,,,,,,,,,,,,,,,,,,,,,,,,,
,,,,1,1.8341,,,,,,85,cake,tree,,89344,001,2022-04-29_15h25.54.050,SPAMnetsValid,2021.1.4,Win32,58.16320596,,,,,,,,,,,,,1,1.8341,0,75,75,18,1,,,,,,,,,,,,,,,,,,,,,,,,,,,,,,,,,,,,,,,,,,,,,,,,,,,,,,,,,,,,,,,,,,,,,,
,,,,1,1.8399,,,,,,65,broom,garden,,89344,001,2022-04-29_15h25.54.050,SPAMnetsValid,2021.1.4,Win32,58.16320596,,,,,,,,,,,,,1,1.8399,0,76,76,23,1,,,,,,,,,,,,,,,,,,,,,,,,,,,,,,,,,,,,,,,,,,,,,,,,,,,,,,,,,,,,,,,,,,,,,,
,,,,1,1.3881,,,,,,75,cookie,onion,,89344,001,2022-04-29_15h25.54.050,SPAMnetsValid,2021.1.4,Win32,58.16320596,,,,,,,,,,,,,1,1.3881,0,77,77,9,1,,,,,,,,,,,,,,,,,,,,,,,,,,,,,,,,,,,,,,,,,,,,,,,,,,,,,,,,,,,,,,,,,,,,,,
,,,,1,1.3688,,,,,,80,chocolate,tree,,89344,001,2022-04-29_15h25.54.050,SPAMnetsValid,2021.1.4,Win32,58.16320596,,,,,,,,,,,,,1,1.3688,0,78,78,89,1,,,,,,,,,,,,,,,,,,,,,,,,,,,,,,,,,,,,,,,,,,,,,,,,,,,,,,,,,,,,,,,,,,,,,,
,,,,1,1.4022,,,,,,13,broom,yogurt,,89344,001,2022-04-29_15h25.54.050,SPAMnetsValid,2021.1.4,Win32,58.16320596,,,,,,,,,,,,,1,1.4022,0,79,79,5,1,,,,,,,,,,,,,,,,,,,,,,,,,,,,,,,,,,,,,,,,,,,,,,,,,,,,,,,,,,,,,,,,,,,,,,
,,,,9,4.101,,,,,,54,chocolate,yogurt,,89344,001,2022-04-29_15h25.54.050,SPAMnetsValid,2021.1.4,Win32,58.16320596,,,,,,,,,,,,,9,4.101,0,80,80,67,1,,,,,,,,,,,,,,,,,,,,,,,,,,,,,,,,,,,,,,,,,,,,,,,,,,,,,,,,,,,,,,,,,,,,,,
,,,,1,2.4437,,,,,,53,garden,pretzel,,89344,001,2022-04-29_15h25.54.050,SPAMnetsValid,2021.1.4,Win32,58.16320596,,,,,,,,,,,,,1,2.4437,0,81,81,0,1,,,,,,,,,,,,,,,,,,,,,,,,,,,,,,,,,,,,,,,,,,,,,,,,,,,,,,,,,,,,,,,,,,,,,,
,,,,1,1.8598,,,,,,72,broom,onion,,89344,001,2022-04-29_15h25.54.050,SPAMnetsValid,2021.1.4,Win32,58.16320596,,,,,,,,,,,,,1,1.8598,0,82,82,27,1,,,,,,,,,,,,,,,,,,,,,,,,,,,,,,,,,,,,,,,,,,,,,,,,,,,,,,,,,,,,,,,,,,,,,,
,,,,2,2.0571,,,,,,23,flower,microwave,,89344,001,2022-04-29_15h25.54.050,SPAMnetsValid,2021.1.4,Win32,58.16320596,,,,,,,,,,,,,2,2.0571,0,83,83,25,1,,,,,,,,,,,,,,,,,,,,,,,,,,,,,,,,,,,,,,,,,,,,,,,,,,,,,,,,,,,,,,,,,,,,,,
,,,,8,3.2999,,,,,,89,chocolate,rose,,89344,001,2022-04-29_15h25.54.050,SPAMnetsValid,2021.1.4,Win32,58.16320596,,,,,,,,,,,,,8,3.2999,0,84,84,60,1,,,,,,,,,,,,,,,,,,,,,,,,,,,,,,,,,,,,,,,,,,,,,,,,,,,,,,,,,,,,,,,,,,,,,,
,,,,9,1.8849,,,,,,50,carrot,rose,,89344,001,2022-04-29_15h25.54.050,SPAMnetsValid,2021.1.4,Win32,58.16320596,,,,,,,,,,,,,9,1.8849,0,85,85,73,1,,,,,,,,,,,,,,,,,,,,,,,,,,,,,,,,,,,,,,,,,,,,,,,,,,,,,,,,,,,,,,,,,,,,,,
,,,,9,1.5192,,,,,,25,carrot,onion,,89344,001,2022-04-29_15h25.54.050,SPAMnetsValid,2021.1.4,Win32,58.16320596,,,,,,,,,,,,,9,1.5192,0,86,86,44,1,,,,,,,,,,,,,,,,,,,,,,,,,,,,,,,,,,,,,,,,,,,,,,,,,,,,,,,,,,,,,,,,,,,,,,
,,,,5,1.7116,,,,,,27,cactus,cookie,,89344,001,2022-04-29_15h25.54.050,SPAMnetsValid,2021.1.4,Win32,58.16320596,,,,,,,,,,,,,5,1.7116,0,87,87,17,1,,,,,,,,,,,,,,,,,,,,,,,,,,,,,,,,,,,,,,,,,,,,,,,,,,,,,,,,,,,,,,,,,,,,,,
,,,,1,1.6563,,,,,,33,oven,yogurt,,89344,001,2022-04-29_15h25.54.050,SPAMnetsValid,2021.1.4,Win32,58.16320596,,,,,,,,,,,,,1,1.6563,0,88,88,31,1,,,,,,,,,,,,,,,,,,,,,,,,,,,,,,,,,,,,,,,,,,,,,,,,,,,,,,,,,,,,,,,,,,,,,,
,,,,2,1.3354,,,,,,83,broom,carrot,,89344,001,2022-04-29_15h25.54.050,SPAMnetsValid,2021.1.4,Win32,58.16320596,,,,,,,,,,,,,2,1.3354,0,89,89,4,1,,,,,,,,,,,,,,,,,,,,,,,,,,,,,,,,,,,,,,,,,,,,,,,,,,,,,,,,,,,,,,,,,,,,,,
,,,,7,1.3241,,,,,,68,flower,tomato,,89344,001,2022-04-29_15h25.54.050,SPAMnetsValid,2021.1.4,Win32,58.16320596,,,,,,,,,,,,,7,1.3241,0,90,90,94,1,,,,,,,,,,,,,,,,,,,,,,,,,,,,,,,,,,,,,,,,,,,,,,,,,,,,,,,,,,,,,,,,,,,,,,
,,,,2,1.801,,,,,,90,cactus,cake,,89344,001,2022-04-29_15h25.54.050,SPAMnetsValid,2021.1.4,Win32,58.16320596,,,,,,,,,,,,,2,1.801,0,91,91,85,1,,,,,,,,,,,,,,,,,,,,,,,,,,,,,,,,,,,,,,,,,,,,,,,,,,,,,,,,,,,,,,,,,,,,,,
,,,,1,1.5806,,,,,,70,chocolate,onion,,89344,001,2022-04-29_15h25.54.050,SPAMnetsValid,2021.1.4,Win32,58.16320596,,,,,,,,,,,,,1,1.5806,0,92,92,74,1,,,,,,,,,,,,,,,,,,,,,,,,,,,,,,,,,,,,,,,,,,,,,,,,,,,,,,,,,,,,,,,,,,,,,,
,,,,7,1.1271,,,,,,26,tomato,yogurt,,89344,001,2022-04-29_15h25.54.050,SPAMnetsValid,2021.1.4,Win32,58.16320596,,,,,,,,,,,,,7,1.1271,0,93,93,13,1,,,,,,,,,,,,,,,,,,,,,,,,,,,,,,,,,,,,,,,,,,,,,,,,,,,,,,,,,,,,,,,,,,,,,,
,,,,1,1.2883,,,,,,21,cake,onion,,89344,001,2022-04-29_15h25.54.050,SPAMnetsValid,2021.1.4,Win32,58.16320596,,,,,,,,,,,,,1,1.2883,0,94,94,63,1,,,,,,,,,,,,,,,,,,,,,,,,,,,,,,,,,,,,,,,,,,,,,,,,,,,,,,,,,,,,,,,,,,,,,,
,,,,1,1.0182,,,,,,45,onion,pretzel,,89344,001,2022-04-29_15h25.54.050,SPAMnetsValid,2021.1.4,Win32,58.16320596,,,,,,,,,,,,,1,1.0182,0,95,95,69,1,,,,,,,,,,,,,,,,,,,,,,,,,,,,,,,,,,,,,,,,,,,,,,,,,,,,,,,,,,,,,,,,,,,,,,
,,,,2,3.7149,,,,,,58,garden,oven,,89344,001,2022-04-29_15h25.54.050,SPAMnetsValid,2021.1.4,Win32,58.16320596,,,,,,,,,,,,,2,3.7149,0,96,96,37,1,,,,,,,,,,,,,,,,,,,,,,,,,,,,,,,,,,,,,,,,,,,,,,,,,,,,,,,,,,,,,,,,,,,,,,
,,,,,,,,,,,,,,,89344,001,2022-04-29_15h25.54.050,SPAMnetsValid,2021.1.4,Win32,58.16320596,,,,,,,,,,,,,,,,,,,,0,0,0,0,1,,,,,,,,,,,,,,,,,,,,,,,,,,,,,,,,,,,,,,,,,,,,,,,,,,,,,,,,,,,,,,,,,
,,,,,,,,,,,,,,,89344,001,2022-04-29_15h25.54.050,SPAMnetsValid,2021.1.4,Win32,58.16320596,,,,,,0,1,1,0,1,1,0,,,,,,,,,,,,,,,,,,,,,,,,,,,,,,,,,,,,,,,,,,,,,,,,,,,,,,,,,,,,,,,,,,,,,,,,,,,,,
,,,,,,,,,,,,,,,89344,001,2022-04-29_15h25.54.050,SPAMnetsValid,2021.1.4,Win32,58.16320596,,,,,,,,,,,,,,,,,,,,,,,,,2,9.6714,0,0,0,0,1,rancor,forbearance,ridicule,malice,bravery,3,,,,,,,,,,,,,,,,,,,,,,,,,,,,,,,,,,,,,,,,,,,,,,,,,,,,
,,,,,,,,,,,,,,,89344,001,2022-04-29_15h25.54.050,SPAMnetsValid,2021.1.4,Win32,58.16320596,,,,,,,,,,,,,,,,,,,,,,,,,4,6.1483,0,1,1,1,1,raucous,empty,quiet,smooth,harsh,4,,,,,,,,,,,,,,,,,,,,,,,,,,,,,,,,,,,,,,,,,,,,,,,,,,,,
,,,,,,,,,,,,,,,89344,001,2022-04-29_15h25.54.050,SPAMnetsValid,2021.1.4,Win32,58.16320596,,,,,,,,,,,,,,,,,,,,,,,,,4,7.8355,0,2,2,2,1,gargoyle,oil,medicine,carved waterspout,ugly building,3,,,,,,,,,,,,,,,,,,,,,,,,,,,,,,,,,,,,,,,,,,,,,,,,,,,,
,,,,,,,,,,,,,,,89344,001,2022-04-29_15h25.54.050,SPAMnetsValid,2021.1.4,Win32,58.16320596,,,,,,,,,,,,,,,,,,,,,,,,,3,3.7645,0,3,3,3,1,recrudesce,purify,renew activity,lack refinement,crush,2,,,,,,,,,,,,,,,,,,,,,,,,,,,,,,,,,,,,,,,,,,,,,,,,,,,,
,,,,,,,,,,,,,,,89344,001,2022-04-29_15h25.54.050,SPAMnetsValid,2021.1.4,Win32,58.16320596,,,,,,,,,,,,,,,,,,,,,,,,,3,4.59,0,4,4,4,1,specious,"plausible, but not genuine",noteworthy,class or variety,roomy,1,,,,,,,,,,,,,,,,,,,,,,,,,,,,,,,,,,,,,,,,,,,,,,,,,,,,
,,,,,,,,,,,,,,,89344,001,2022-04-29_15h25.54.050,SPAMnetsValid,2021.1.4,Win32,58.16320596,,,,,,,,,,,,,,,,,,,,,,,,,3,9.6115,0,5,5,5,1,bauble,bubble,showy plaything,idle talk,confusion,2,,,,,,,,,,,,,,,,,,,,,,,,,,,,,,,,,,,,,,,,,,,,,,,,,,,,
,,,,,,,,,,,,,,,89344,001,2022-04-29_15h25.54.050,SPAMnetsValid,2021.1.4,Win32,58.16320596,,,,,,,,,,,,,,,,,,,,,,,,,2,6.6889,0,6,6,6,1,prolific,scarce,producing abundantly,reckless,speaking profanely,2,,,,,,,,,,,,,,,,,,,,,,,,,,,,,,,,,,,,,,,,,,,,,,,,,,,,
,,,,,,,,,,,,,,,89344,001,2022-04-29_15h25.54.050,SPAMnetsValid,2021.1.4,Win32,58.16320596,,,,,,,,,,,,,,,,,,,,,,,,,3,5.2046,0,7,7,7,1,opulent,party,wealthy,happy frame of mind,semiprecious stone,2,,,,,,,,,,,,,,,,,,,,,,,,,,,,,,,,,,,,,,,,,,,,,,,,,,,,
,,,,,,,,,,,,,,,89344,001,2022-04-29_15h25.54.050,SPAMnetsValid,2021.1.4,Win32,58.16320596,,,,,,,,,,,,,,,,,,,,,,,,,2,4.8566,0,8,8,8,1,coercion,conspiracy,strategy,restraint,attraction,3,,,,,,,,,,,,,,,,,,,,,,,,,,,,,,,,,,,,,,,,,,,,,,,,,,,,
,,,,,,,,,,,,,,,89344,001,2022-04-29_15h25.54.050,SPAMnetsValid,2021.1.4,Win32,58.16320596,,,,,,,,,,,,,,,,,,,,,,,,,2,3.5833,0,9,9,9,1,hiatus,animal,calamity,dread,gap,4,,,,,,,,,,,,,,,,,,,,,,,,,,,,,,,,,,,,,,,,,,,,,,,,,,,,
,,,,,,,,,,,,,,,89344,001,2022-04-29_15h25.54.050,SPAMnetsValid,2021.1.4,Win32,58.16320596,,,,,,,,,,,,,,,,,,,,,,,,,3,8.4531,0,10,10,10,1,germane,microbe,contagious,relevant,different,3,,,,,,,,,,,,,,,,,,,,,,,,,,,,,,,,,,,,,,,,,,,,,,,,,,,,
,,,,,,,,,,,,,,,89344,001,2022-04-29_15h25.54.050,SPAMnetsValid,2021.1.4,Win32,58.16320596,,,,,,,,,,,,,,,,,,,,,,,,,1,8.5353,0,11,11,11,1,perfunctory,fundamental,formal,superficial,careful,3,,,,,,,,,,,,,,,,,,,,,,,,,,,,,,,,,,,,,,,,,,,,,,,,,,,,
,,,,,,,,,,,,,,,89344,001,2022-04-29_15h25.54.050,SPAMnetsValid,2021.1.4,Win32,58.16320596,,,,,,,,,,,,,,,,,,,,,,,,,4,4.0114,0,12,12,12,1,diverge,reveal,chant,distract the attention of,differ or turn off from,4,,,,,,,,,,,,,,,,,,,,,,,,,,,,,,,,,,,,,,,,,,,,,,,,,,,,
,,,,,,,,,,,,,,,89344,001,2022-04-29_15h25.54.050,SPAMnetsValid,2021.1.4,Win32,58.16320596,,,,,,,,,,,,,,,,,,,,,,,,,4,3.5926,0,13,13,13,1,evoke,take away,anger,connect,bring out,4,,,,,,,,,,,,,,,,,,,,,,,,,,,,,,,,,,,,,,,,,,,,,,,,,,,,
,,,,,,,,,,,,,,,89344,001,2022-04-29_15h25.54.050,SPAMnetsValid,2021.1.4,Win32,58.16320596,,,,,,,,,,,,,,,,,,,,,,,,,1,3.5239,0,14,14,14,1,pertinent,relevant,lying next to,necessary,bold,1,,,,,,,,,,,,,,,,,,,,,,,,,,,,,,,,,,,,,,,,,,,,,,,,,,,,
,,,,,,,,,,,,,,,89344,001,2022-04-29_15h25.54.050,SPAMnetsValid,2021.1.4,Win32,58.16320596,,,,,,,,,,,,,,,,,,,,,,,,,2,6.1478,0,15,15,15,1,holocaust,entirety,destruction,saintly,price,2,,,,,,,,,,,,,,,,,,,,,,,,,,,,,,,,,,,,,,,,,,,,,,,,,,,,
,,,,,,,,,,,,,,,89344,001,2022-04-29_15h25.54.050,SPAMnetsValid,2021.1.4,Win32,58.16320596,,,,,,,,,,,,,,,,,,,,,,,,,1,3.9354,0,16,16,16,1,piquant,mellow,fish,pungent,cloth,3,,,,,,,,,,,,,,,,,,,,,,,,,,,,,,,,,,,,,,,,,,,,,,,,,,,,
,,,,,,,,,,,,,,,89344,001,2022-04-29_15h25.54.050,SPAMnetsValid,2021.1.4,Win32,58.16320596,,,,,,,,,,,,,,,,,,,,,,,,,3,6.4106,0,17,17,17,1,firmament,foundation,heavens,strong,glue,2,,,,,,,,,,,,,,,,,,,,,,,,,,,,,,,,,,,,,,,,,,,,,,,,,,,,
,,,,,,,,,,,,,,,89344,001,2022-04-29_15h25.54.050,SPAMnetsValid,2021.1.4,Win32,58.16320596,,,,,,,,,,,,,,,,,,,,,,,,,,,,,,,,,,,,,,4,4.6888,0,0,0,0,1,marketable,partisan,jocular,marriageable,salable,essential,4,,,,,,,,,,,,,,,,,,,,,,,,,,,,,,,,,,,,,,
,,,,,,,,,,,,,,,89344,001,2022-04-29_15h25.54.050,SPAMnetsValid,2021.1.4,Win32,58.16320596,,,,,,,,,,,,,,,,,,,,,,,,,,,,,,,,,,,,,,5,7.5179,0,1,1,1,1,cottontail,squirrel,poplar,boa,marshy plant,rabbit,5,,,,,,,,,,,,,,,,,,,,,,,,,,,,,,,,,,,,,,
,,,,,,,,,,,,,,,89344,001,2022-04-29_15h25.54.050,SPAMnetsValid,2021.1.4,Win32,58.16320596,,,,,,,,,,,,,,,,,,,,,,,,,,,,,,,,,,,,,,1,7.0497,0,2,2,2,1,boggy,afraid,false,marshy,dense,black,3,,,,,,,,,,,,,,,,,,,,,,,,,,,,,,,,,,,,,,
,,,,,,,,,,,,,,,89344,001,2022-04-29_15h25.54.050,SPAMnetsValid,2021.1.4,Win32,58.16320596,,,,,,,,,,,,,,,,,,,,,,,,,,,,,,,,,,,,,,3,8.8381,0,3,3,3,1,gruesomeness,blackness,falseness,vindictiveness,drunkenness,ghastliness,5,,,,,,,,,,,,,,,,,,,,,,,,,,,,,,,,,,,,,,
,,,,,,,,,,,,,,,89344,001,2022-04-29_15h25.54.050,SPAMnetsValid,2021.1.4,Win32,58.16320596,,,,,,,,,,,,,,,,,,,,,,,,,,,,,,,,,,,,,,4,6.225,0,4,4,4,1,loathing,diffidence,laziness,abhorrence,cleverness,comfort,3,,,,,,,,,,,,,,,,,,,,,,,,,,,,,,,,,,,,,,
,,,,,,,,,,,,,,,89344,001,2022-04-29_15h25.54.050,SPAMnetsValid,2021.1.4,Win32,58.16320596,,,,,,,,,,,,,,,,,,,,,,,,,,,,,,,,,,,,,,2,10.0051,0,5,5,5,1,bantam,fowl,ridicule,cripple,vegetable,ensign,1,,,,,,,,,,,,,,,,,,,,,,,,,,,,,,,,,,,,,,
,,,,,,,,,,,,,,,89344,001,2022-04-29_15h25.54.050,SPAMnetsValid,2021.1.4,Win32,58.16320596,,,,,,,,,,,,,,,,,,,,,,,,,,,,,,,,,,,,,,5,8.5681,0,6,6,6,1,evoke,wake up,surrender,reconnoiter,transcend,call forth,5,,,,,,,,,,,,,,,,,,,,,,,,,,,,,,,,,,,,,,
,,,,,,,,,,,,,,,89344,001,2022-04-29_15h25.54.050,SPAMnetsValid,2021.1.4,Win32,58.16320596,,,,,,,,,,,,,,,,,,,,,,,,,,,,,,,,,,,,,,5,29.6874,0,7,7,7,1,unobtrusive,unintelligent,epileptic,illogical,lineal,modest,5,,,,,,,,,,,,,,,,,,,,,,,,,,,,,,,,,,,,,,
,,,,,,,,,,,,,,,89344,001,2022-04-29_15h25.54.050,SPAMnetsValid,2021.1.4,Win32,58.16320596,,,,,,,,,,,,,,,,,,,,,,,,,,,,,,,,,,,,,,4,7.0061,0,8,8,8,1,terrain,ice cream,final test,tractor,area of ground,weight,4,,,,,,,,,,,,,,,,,,,,,,,,,,,,,,,,,,,,,,
,,,,,,,,,,,,,,,89344,001,2022-04-29_15h25.54.050,SPAMnetsValid,2021.1.4,Win32,58.16320596,,,,,,,,,,,,,,,,,,,,,,,,,,,,,,,,,,,,,,3,7.6504,0,9,9,9,1,capriciousness,stubbornness,courage,whimsicality,amazement,greediness,3,,,,,,,,,,,,,,,,,,,,,,,,,,,,,,,,,,,,,,
,,,,,,,,,,,,,,,89344,001,2022-04-29_15h25.54.050,SPAMnetsValid,2021.1.4,Win32,58.16320596,,,,,,,,,,,,,,,,,,,,,,,,,,,,,,,,,,,,,,1,2.3412,0,10,10,10,1,maelstrom,slander,whirlpool,enmity,armor,majolica,2,,,,,,,,,,,,,,,,,,,,,,,,,,,,,,,,,,,,,,
,,,,,,,,,,,,,,,89344,001,2022-04-29_15h25.54.050,SPAMnetsValid,2021.1.4,Win32,58.16320596,,,,,,,,,,,,,,,,,,,,,,,,,,,,,,,,,,,,,,5,6.0265,0,11,11,11,1,tentative,critical,conclusive,authentic,provisional,apprehensive,4,,,,,,,,,,,,,,,,,,,,,,,,,,,,,,,,,,,,,,
,,,,,,,,,,,,,,,89344,001,2022-04-29_15h25.54.050,SPAMnetsValid,2021.1.4,Win32,58.16320596,,,,,,,,,,,,,,,,,,,,,,,,,,,,,,,,,,,,,,1,4.2787,0,12,12,12,1,placate,rehabilitate,plagiarize,depredate,apprise,conciliate,5,,,,,,,,,,,,,,,,,,,,,,,,,,,,,,,,,,,,,,
,,,,,,,,,,,,,,,89344,001,2022-04-29_15h25.54.050,SPAMnetsValid,2021.1.4,Win32,58.16320596,,,,,,,,,,,,,,,,,,,,,,,,,,,,,,,,,,,,,,2,4.3531,0,13,13,13,1,surcease,enlightenment,cessation,inattention,censor,substitution,2,,,,,,,,,,,,,,,,,,,,,,,,,,,,,,,,,,,,,,
,,,,,,,,,,,,,,,89344,001,2022-04-29_15h25.54.050,SPAMnetsValid,2021.1.4,Win32,58.16320596,,,,,,,,,,,,,,,,,,,,,,,,,,,,,,,,,,,,,,2,4.9608,0,14,14,14,1,apathetic,wandering,impassive,hateful,prophetic,overflowing,2,,,,,,,,,,,,,,,,,,,,,,,,,,,,,,,,,,,,,,
,,,,,,,,,,,,,,,89344,001,2022-04-29_15h25.54.050,SPAMnetsValid,2021.1.4,Win32,58.16320596,,,,,,,,,,,,,,,,,,,,,,,,,,,,,,,,,,,,,,3,2.258,0,15,15,15,1,paternoster,paternalism,patricide,malediction,benediction,prayer,5,,,,,,,,,,,,,,,,,,,,,,,,,,,,,,,,,,,,,,
,,,,,,,,,,,,,,,89344,001,2022-04-29_15h25.54.050,SPAMnetsValid,2021.1.4,Win32,58.16320596,,,,,,,,,,,,,,,,,,,,,,,,,,,,,,,,,,,,,,4,1.2781,0,16,16,16,1,opalescence,opulence,senescence,bankruptcy,iridescence,assiduity,4,,,,,,,,,,,,,,,,,,,,,,,,,,,,,,,,,,,,,,
,,,,,,,,,,,,,,,89344,001,2022-04-29_15h25.54.050,SPAMnetsValid,2021.1.4,Win32,58.16320596,,,,,,,,,,,,,,,,,,,,,,,,,,,,,,,,,,,,,,5,4.1355,0,17,17,17,1,lush,stupid,luxurious,hazy,putrid,languishing,2,,,,,,,,,,,,,,,,,,,,,,,,,,,,,,,,,,,,,,
,,,,,,,,,,,,,,,89344,001,2022-04-29_15h25.54.050,SPAMnetsValid,2021.1.4,Win32,58.16320596,,,,,,,,,,,,,,,,,,,,,,,,,,,,,,,,,,,,,,1,3.1863,0,18,18,18,1,curtailment,expenditure,abandonment,abridgment,improvement,forgery,3,,,,,,,,,,,,,,,,,,,,,,,,,,,,,,,,,,,,,,
,,,,,,,,,,,,,,,89344,001,2022-04-29_15h25.54.050,SPAMnetsValid,2021.1.4,Win32,58.16320596,,,,,,,,,,,,,,,,,,,,,,,,,,,,,,,,,,,,,,3,3.4874,0,19,19,19,1,perversity,adversity,perviousness,travesty,waywardness,gentility,4,,,,,,,,,,,,,,,,,,,,,,,,,,,,,,,,,,,,,,
,,,,,,,,,,,,,,,89344,001,2022-04-29_15h25.54.050,SPAMnetsValid,2021.1.4,Win32,58.16320596,,,,,,,,,,,,,,,,,,,,,,,,,,,,,,,,,,,,,,2,6.0883,0,20,20,20,1,calumnious,complimentary,analogous,slanderous,tempestuous,magnanimous,3,,,,,,,,,,,,,,,,,,,,,,,,,,,,,,,,,,,,,,
,,,,,,,,,,,,,,,89344,001,2022-04-29_15h25.54.050,SPAMnetsValid,2021.1.4,Win32,58.16320596,,,,,,,,,,,,,,,,,,,,,,,,,,,,,,,,,,,,,,1,6.9398,0,21,21,21,1,illiberality,bigotry,imbecility,illegibility,cautery,immaturity,1,,,,,,,,,,,,,,,,,,,,,,,,,,,,,,,,,,,,,,
,,,,,,,,,,,,,,,89344,001,2022-04-29_15h25.54.050,SPAMnetsValid,2021.1.4,Win32,58.16320596,,,,,,,,,,,,,,,,,,,,,,,,,,,,,,,,,,,,,,5,4.4365,0,22,22,22,1,clabber,rejoice,gossip,curdle,crow,hobble,3,,,,,,,,,,,,,,,,,,,,,,,,,,,,,,,,,,,,,,
,,,,,,,,,,,,,,,89344,001,2022-04-29_15h25.54.050,SPAMnetsValid,2021.1.4,Win32,58.16320596,,,,,,,,,,,,,,,,,,,,,,,,,,,,,,,,,,,,,,1,7.0493,0,23,23,23,1,sedulousness,diligence,credulousness,seduction,perilousness,frankness,1,,,,,,,,,,,,,,,,,,,,,,,,,,,,,,,,,,,,,,
,,,,,,,,,,,,,,,89344,001,2022-04-29_15h25.54.050,SPAMnetsValid,2021.1.4,Win32,58.16320596,,,,,,,,,,,,,,,,,,,,,,,,,,,,,,,,,,,,,,,,,,,,,,,,,,,,tub,bucket,0,0,0,0,1,,,,,,,,,,,,,,,,,,,,,,,,,,,,,,,
,,,,,,,,,,,,,,,89344,001,2022-04-29_15h25.54.050,SPAMnetsValid,2021.1.4,Win32,58.16320596,,,,,,,,,,,,,,,,,,,,,,,,,,,,,,,,,,,,,,,,,,,,,,,,,,,,pale,bucket,1,0,1,0,1,,,,,,,,,,,,,,,,,,,,,,,,,,,,,,,
,,,,,,,,,,,,,,,89344,001,2022-04-29_15h25.54.050,SPAMnetsValid,2021.1.4,Win32,58.16320596,,,,,,,,,,,,,,,,,,,,,,,,,,,,,,,,,,,,,,,,,,,,,,,,,,,,pail,bucket,2,0,2,0,1,,,,,,,,,,,,,,,,,,,,,,,,,,,,,,,
,,,,,,,,,,,,,,,89344,001,2022-04-29_15h25.54.050,SPAMnetsValid,2021.1.4,Win32,58.16320596,,,,,,,,,,,,,,,,,,,,,,,,,,,,,,,,,,,,,,,,,,,,,,,,,,,,pitcher,bucket,3,0,3,0,1,,,,,,,,,,,,,,,,,,,,,,,,,,,,,,,
,,,,,,,,,,,,,,,89344,001,2022-04-29_15h25.54.050,SPAMnetsValid,2021.1.4,Win32,58.16320596,,,,,,,,,,,,,,,,,,,,,,,,,,,,,,,,,,,,,,,,,,,,,,,,,,,,kettle,bucket,4,0,4,0,1,,,,,,,,,,,,,,,,,,,,,,,,,,,,,,,
,,,,,,,,,,,,,,,89344,001,2022-04-29_15h25.54.050,SPAMnetsValid,2021.1.4,Win32,58.16320596,,,,,,,,,,,,,,,,,,,,,,,,,,,,,,,,,,,,,,,,,,,,,,,,,,,,pot,bucket,5,0,5,0,1,,,,,,,,,,,,,,,,,,,,,,,,,,,,,,,
,,,,,,,,,,,,,,,89344,001,2022-04-29_15h25.54.050,SPAMnetsValid,2021.1.4,Win32,58.16320596,,,,,,,,,,,,,,,,,,,,,,,,,,,,,,,,,,,,,,,,,,,,,,,,,,,,can,bucket,6,0,6,0,1,,,,,,,,,,,,,,,,,,,,,,,,,,,,,,,
,,,,,,,,,,,,,,,89344,001,2022-04-29_15h25.54.050,SPAMnetsValid,2021.1.4,Win32,58.16320596,,,,,,,,,,,,,,,,,,,,,,,,,,,,,,,,,,,,,,,,,,,,,,,,,,,,cup,bucket,7,0,7,0,1,,,,,,,,,,,,,,,,,,,,,,,,,,,,,,,
,,,,,,,,,,,,,,,89344,001,2022-04-29_15h25.54.050,SPAMnetsValid,2021.1.4,Win32,58.16320596,,,,,,,,,,,,,,,,,,,,,,,,,,,,,,,,,,,,,,,,,,,,,,,,,,,,container,bucket,8,0,8,0,1,,,,,,,,,,,,,,,,,,,,,,,,,,,,,,,
,,,,,,,,,,,,,,,89344,001,2022-04-29_15h25.54.050,SPAMnetsValid,2021.1.4,Win32,58.16320596,,,,,,,,,,,,,,,,,,,,,,,,,,,,,,,,,,,,,,,,,,,,,,,,,,,,,,,,,,,0,0,0,0,1,bucket,,,,,,,,,,,,,,,,,,,,,,,,,
,,,,,,,,,,,,,,,89344,001,2022-04-29_15h25.54.050,SPAMnetsValid,2021.1.4,Win32,58.16320596,,,,,,,,,,,,,,,,,,,,,,,,,,,,,,,,,,,,,,,,,,,,,,,,,,,,stick,candle,0,0,0,0,1,,,,,,,,,,,,,,,,,,,,,,,,,,,,,,,
,,,,,,,,,,,,,,,89344,001,2022-04-29_15h25.54.050,SPAMnetsValid,2021.1.4,Win32,58.16320596,,,,,,,,,,,,,,,,,,,,,,,,,,,,,,,,,,,,,,,,,,,,,,,,,,,,fire stick,candle,1,0,1,0,1,,,,,,,,,,,,,,,,,,,,,,,,,,,,,,,
,,,,,,,,,,,,,,,89344,001,2022-04-29_15h25.54.050,SPAMnetsValid,2021.1.4,Win32,58.16320596,,,,,,,,,,,,,,,,,,,,,,,,,,,,,,,,,,,,,,,,,,,,,,,,,,,,wax thing,candle,2,0,2,0,1,,,,,,,,,,,,,,,,,,,,,,,,,,,,,,,
,,,,,,,,,,,,,,,89344,001,2022-04-29_15h25.54.050,SPAMnetsValid,2021.1.4,Win32,58.16320596,,,,,,,,,,,,,,,,,,,,,,,,,,,,,,,,,,,,,,,,,,,,,,,,,,,,natural flashlight,candle,3,0,3,0,1,,,,,,,,,,,,,,,,,,,,,,,,,,,,,,,
,,,,,,,,,,,,,,,89344,001,2022-04-29_15h25.54.050,SPAMnetsValid,2021.1.4,Win32,58.16320596,,,,,,,,,,,,,,,,,,,,,,,,,,,,,,,,,,,,,,,,,,,,,,,,,,,,gods light,candle,4,0,4,0,1,,,,,,,,,,,,,,,,,,,,,,,,,,,,,,,
,,,,,,,,,,,,,,,89344,001,2022-04-29_15h25.54.050,SPAMnetsValid,2021.1.4,Win32,58.16320596,,,,,,,,,,,,,,,,,,,,,,,,,,,,,,,,,,,,,,,,,,,,,,,,,,,,church stick,candle,5,0,5,0,1,,,,,,,,,,,,,,,,,,,,,,,,,,,,,,,
,,,,,,,,,,,,,,,89344,001,2022-04-29_15h25.54.050,SPAMnetsValid,2021.1.4,Win32,58.16320596,,,,,,,,,,,,,,,,,,,,,,,,,,,,,,,,,,,,,,,,,,,,,,,,,,,,tall waxy fire,candle,6,0,6,0,1,,,,,,,,,,,,,,,,,,,,,,,,,,,,,,,
,,,,,,,,,,,,,,,89344,001,2022-04-29_15h25.54.050,SPAMnetsValid,2021.1.4,Win32,58.16320596,,,,,,,,,,,,,,,,,,,,,,,,,,,,,,,,,,,,,,,,,,,,,,,,,,,,,,,,,,,0,1,1,1,1,candle,,,,,,,,,,,,,,,,,,,,,,,,,
,,,,,,,,,,,,,,,89344,001,2022-04-29_15h25.54.050,SPAMnetsValid,2021.1.4,Win32,58.16320596,,,,,,,,,,,,,,,,,,,,,,,,,,,,,,,,,,,,,,,,,,,,,,,,,,,,cushion ,pillow,0,0,0,0,1,,,,,,,,,,,,,,,,,,,,,,,,,,,,,,,
,,,,,,,,,,,,,,,89344,001,2022-04-29_15h25.54.050,SPAMnetsValid,2021.1.4,Win32,58.16320596,,,,,,,,,,,,,,,,,,,,,,,,,,,,,,,,,,,,,,,,,,,,,,,,,,,,feather block,pillow,1,0,1,0,1,,,,,,,,,,,,,,,,,,,,,,,,,,,,,,,
,,,,,,,,,,,,,,,89344,001,2022-04-29_15h25.54.050,SPAMnetsValid,2021.1.4,Win32,58.16320596,,,,,,,,,,,,,,,,,,,,,,,,,,,,,,,,,,,,,,,,,,,,,,,,,,,,fluffy bag,pillow,2,0,2,0,1,,,,,,,,,,,,,,,,,,,,,,,,,,,,,,,
,,,,,,,,,,,,,,,89344,001,2022-04-29_15h25.54.050,SPAMnetsValid,2021.1.4,Win32,58.16320596,,,,,,,,,,,,,,,,,,,,,,,,,,,,,,,,,,,,,,,,,,,,,,,,,,,,soft headrest,pillow,3,0,3,0,1,,,,,,,,,,,,,,,,,,,,,,,,,,,,,,,
,,,,,,,,,,,,,,,89344,001,2022-04-29_15h25.54.050,SPAMnetsValid,2021.1.4,Win32,58.16320596,,,,,,,,,,,,,,,,,,,,,,,,,,,,,,,,,,,,,,,,,,,,,,,,,,,,cotton cushion,pillow,4,0,4,0,1,,,,,,,,,,,,,,,,,,,,,,,,,,,,,,,
,,,,,,,,,,,,,,,89344,001,2022-04-29_15h25.54.050,SPAMnetsValid,2021.1.4,Win32,58.16320596,,,,,,,,,,,,,,,,,,,,,,,,,,,,,,,,,,,,,,,,,,,,,,,,,,,,,,,,,,,0,2,2,2,1,pillow,,,,,,,,,,,,,,,,,,,,,,,,,
,,,,,,,,,,,,,,,89344,001,2022-04-29_15h25.54.050,SPAMnetsValid,2021.1.4,Win32,58.16320596,,,,,,,,,,,,,,,,,,,,,,,,,,,,,,,,,,,,,,,,,,,,,,,,,,,,,,,,,,,,,,,,,,Animals,0,0,0,0,1,,,,,,,,,,,,,,,,,,
,,,,,,,,,,,,,,,89344,001,2022-04-29_15h25.54.050,SPAMnetsValid,2021.1.4,Win32,58.16320596,,,,,,,,,,,,,,,,,,,,,,,,,,,,,,,,,,,,,,,,,,,,,,,,,,,,,,,,,,,,,,,,,rat,Animals,1,0,1,0,1,,,,,,,,,,,,,,,,,,
,,,,,,,,,,,,,,,89344,001,2022-04-29_15h25.54.050,SPAMnetsValid,2021.1.4,Win32,58.16320596,,,,,,,,,,,,,,,,,,,,,,,,,,,,,,,,,,,,,,,,,,,,,,,,,,,,,,,,,,,,,,,,,cat,Animals,2,0,2,0,1,,,,,,,,,,,,,,,,,,
,,,,,,,,,,,,,,,89344,001,2022-04-29_15h25.54.050,SPAMnetsValid,2021.1.4,Win32,58.16320596,,,,,,,,,,,,,,,,,,,,,,,,,,,,,,,,,,,,,,,,,,,,,,,,,,,,,,,,,,,,,,,,,dog,Animals,3,0,3,0,1,,,,,,,,,,,,,,,,,,
,,,,,,,,,,,,,,,89344,001,2022-04-29_15h25.54.050,SPAMnetsValid,2021.1.4,Win32,58.16320596,,,,,,,,,,,,,,,,,,,,,,,,,,,,,,,,,,,,,,,,,,,,,,,,,,,,,,,,,,,,,,,,,bird,Animals,4,0,4,0,1,,,,,,,,,,,,,,,,,,
,,,,,,,,,,,,,,,89344,001,2022-04-29_15h25.54.050,SPAMnetsValid,2021.1.4,Win32,58.16320596,,,,,,,,,,,,,,,,,,,,,,,,,,,,,,,,,,,,,,,,,,,,,,,,,,,,,,,,,,,,,,,,,bat,Animals,5,0,5,0,1,,,,,,,,,,,,,,,,,,
,,,,,,,,,,,,,,,89344,001,2022-04-29_15h25.54.050,SPAMnetsValid,2021.1.4,Win32,58.16320596,,,,,,,,,,,,,,,,,,,,,,,,,,,,,,,,,,,,,,,,,,,,,,,,,,,,,,,,,,,,,,,,,horse,Animals,6,0,6,0,1,,,,,,,,,,,,,,,,,,
,,,,,,,,,,,,,,,89344,001,2022-04-29_15h25.54.050,SPAMnetsValid,2021.1.4,Win32,58.16320596,,,,,,,,,,,,,,,,,,,,,,,,,,,,,,,,,,,,,,,,,,,,,,,,,,,,,,,,,,,,,,,,,cow,Animals,7,0,7,0,1,,,,,,,,,,,,,,,,,,
,,,,,,,,,,,,,,,89344,001,2022-04-29_15h25.54.050,SPAMnetsValid,2021.1.4,Win32,58.16320596,,,,,,,,,,,,,,,,,,,,,,,,,,,,,,,,,,,,,,,,,,,,,,,,,,,,,,,,,,,,,,,,,bear,Animals,8,0,8,0,1,,,,,,,,,,,,,,,,,,
,,,,,,,,,,,,,,,89344,001,2022-04-29_15h25.54.050,SPAMnetsValid,2021.1.4,Win32,58.16320596,,,,,,,,,,,,,,,,,,,,,,,,,,,,,,,,,,,,,,,,,,,,,,,,,,,,,,,,,,,,,,,,,shark,Animals,9,0,9,0,1,,,,,,,,,,,,,,,,,,
,,,,,,,,,,,,,,,89344,001,2022-04-29_15h25.54.050,SPAMnetsValid,2021.1.4,Win32,58.16320596,,,,,,,,,,,,,,,,,,,,,,,,,,,,,,,,,,,,,,,,,,,,,,,,,,,,,,,,,,,,,,,,,fish,Animals,10,0,10,0,1,,,,,,,,,,,,,,,,,,
,,,,,,,,,,,,,,,89344,001,2022-04-29_15h25.54.050,SPAMnetsValid,2021.1.4,Win32,58.16320596,,,,,,,,,,,,,,,,,,,,,,,,,,,,,,,,,,,,,,,,,,,,,,,,,,,,,,,,,,,,,,,,,whale ,Animals,11,0,11,0,1,,,,,,,,,,,,,,,,,,
,,,,,,,,,,,,,,,89344,001,2022-04-29_15h25.54.050,SPAMnetsValid,2021.1.4,Win32,58.16320596,,,,,,,,,,,,,,,,,,,,,,,,,,,,,,,,,,,,,,,,,,,,,,,,,,,,,,,,,,,,,,,,,monkey,Animals,12,0,12,0,1,,,,,,,,,,,,,,,,,,
,,,,,,,,,,,,,,,89344,001,2022-04-29_15h25.54.050,SPAMnetsValid,2021.1.4,Win32,58.16320596,,,,,,,,,,,,,,,,,,,,,,,,,,,,,,,,,,,,,,,,,,,,,,,,,,,,,,,,,,,,,,,,,giraffe,Animals,13,0,13,0,1,,,,,,,,,,,,,,,,,,
,,,,,,,,,,,,,,,89344,001,2022-04-29_15h25.54.050,SPAMnetsValid,2021.1.4,Win32,58.16320596,,,,,,,,,,,,,,,,,,,,,,,,,,,,,,,,,,,,,,,,,,,,,,,,,,,,,,,,,,,,,,,,,humans,Animals,14,0,14,0,1,,,,,,,,,,,,,,,,,,
,,,,,,,,,,,,,,,89344,001,2022-04-29_15h25.54.050,SPAMnetsValid,2021.1.4,Win32,58.16320596,,,,,,,,,,,,,,,,,,,,,,,,,,,,,,,,,,,,,,,,,,,,,,,,,,,,,,,,,,,,,,,,,hamster,Animals,15,0,15,0,1,,,,,,,,,,,,,,,,,,
,,,,,,,,,,,,,,,89344,001,2022-04-29_15h25.54.050,SPAMnetsValid,2021.1.4,Win32,58.16320596,,,,,,,,,,,,,,,,,,,,,,,,,,,,,,,,,,,,,,,,,,,,,,,,,,,,,,,,,,,,,,,,,bull,Animals,16,0,16,0,1,,,,,,,,,,,,,,,,,,
,,,,,,,,,,,,,,,89344,001,2022-04-29_15h25.54.050,SPAMnetsValid,2021.1.4,Win32,58.16320596,,,,,,,,,,,,,,,,,,,,,,,,,,,,,,,,,,,,,,,,,,,,,,,,,,,,,,,,,,,,,,,,,chicken,Animals,17,0,17,0,1,,,,,,,,,,,,,,,,,,
,,,,,,,,,,,,,,,89344,001,2022-04-29_15h25.54.050,SPAMnetsValid,2021.1.4,Win32,58.16320596,,,,,,,,,,,,,,,,,,,,,,,,,,,,,,,,,,,,,,,,,,,,,,,,,,,,,,,,,,,,,,,,,sheep,Animals,18,0,18,0,1,,,,,,,,,,,,,,,,,,
,,,,,,,,,,,,,,,89344,001,2022-04-29_15h25.54.050,SPAMnetsValid,2021.1.4,Win32,58.16320596,,,,,,,,,,,,,,,,,,,,,,,,,,,,,,,,,,,,,,,,,,,,,,,,,,,,,,,,,,,,,,,,,goat,Animals,19,0,19,0,1,,,,,,,,,,,,,,,,,,
,,,,,,,,,,,,,,,89344,001,2022-04-29_15h25.54.050,SPAMnetsValid,2021.1.4,Win32,58.16320596,,,,,,,,,,,,,,,,,,,,,,,,,,,,,,,,,,,,,,,,,,,,,,,,,,,,,,,,,,,,,,,,,dolphins,Animals,20,0,20,0,1,,,,,,,,,,,,,,,,,,
,,,,,,,,,,,,,,,89344,001,2022-04-29_15h25.54.050,SPAMnetsValid,2021.1.4,Win32,58.16320596,,,,,,,,,,,,,,,,,,,,,,,,,,,,,,,,,,,,,,,,,,,,,,,,,,,,,,,,,,,,,,,,,,,,,,,,0,0,0,0,1,Animals,,,,,,,,,,,,
,,,,,,,,,,,,,,,89344,001,2022-04-29_15h25.54.050,SPAMnetsValid,2021.1.4,Win32,58.16320596,,,,,,,,,,,,,,,,,,,,,,,,,,,,,,,,,,,,,,,,,,,,,,,,,,,,,,,,,,,,,,,,,,,,,,,,,,,,,,4,6.7304,0,0,0,0,1,"I enjoy concentrating on a fantasy or daydream and exploring all its possibilities, letting it grow and develop.",0,1,,
,,,,,,,,,,,,,,,89344,001,2022-04-29_15h25.54.050,SPAMnetsValid,2021.1.4,Win32,58.16320596,,,,,,,,,,,,,,,,,,,,,,,,,,,,,,,,,,,,,,,,,,,,,,,,,,,,,,,,,,,,,,,,,,,,,,,,,,,,,,4,2.3841,0,1,1,1,1,I think it's interesting to learn and develop new hobbies.,0,2,,
,,,,,,,,,,,,,,,89344,001,2022-04-29_15h25.54.050,SPAMnetsValid,2021.1.4,Win32,58.16320596,,,,,,,,,,,,,,,,,,,,,,,,,,,,,,,,,,,,,,,,,,,,,,,,,,,,,,,,,,,,,,,,,,,,,,,,,,,,,,2,4.8081,0,2,2,2,1,I am intrigued by the patterns I find in art and nature.,0,3,,
,,,,,,,,,,,,,,,89344,001,2022-04-29_15h25.54.050,SPAMnetsValid,2021.1.4,Win32,58.16320596,,,,,,,,,,,,,,,,,,,,,,,,,,,,,,,,,,,,,,,,,,,,,,,,,,,,,,,,,,,,,,,,,,,,,,,,,,,,,,3,6.6967,0,3,3,3,1,I believe letting students hear controversial speakers can only confuse and mislead them.,1,4,,
,,,,,,,,,,,,,,,89344,001,2022-04-29_15h25.54.050,SPAMnetsValid,2021.1.4,Win32,58.16320596,,,,,,,,,,,,,,,,,,,,,,,,,,,,,,,,,,,,,,,,,,,,,,,,,,,,,,,,,,,,,,,,,,,,,,,,,,,,,,4,3.6206,0,4,4,4,1,Poetry has little or no effect on me.,1,5,,
,,,,,,,,,,,,,,,89344,001,2022-04-29_15h25.54.050,SPAMnetsValid,2021.1.4,Win32,58.16320596,,,,,,,,,,,,,,,,,,,,,,,,,,,,,,,,,,,,,,,,,,,,,,,,,,,,,,,,,,,,,,,,,,,,,,,,,,,,,,5,4.7714,0,5,5,5,1,I would have difficulty just letting my mind wander without control or guidance.,1,6,,
,,,,,,,,,,,,,,,89344,001,2022-04-29_15h25.54.050,SPAMnetsValid,2021.1.4,Win32,58.16320596,,,,,,,,,,,,,,,,,,,,,,,,,,,,,,,,,,,,,,,,,,,,,,,,,,,,,,,,,,,,,,,,,,,,,,,,,,,,,,1,8.4991,0,6,6,6,1,I seldom notice the moods or feelings that different environments produce.,1,7,,
,,,,,,,,,,,,,,,89344,001,2022-04-29_15h25.54.050,SPAMnetsValid,2021.1.4,Win32,58.16320596,,,,,,,,,,,,,,,,,,,,,,,,,,,,,,,,,,,,,,,,,,,,,,,,,,,,,,,,,,,,,,,,,,,,,,,,,,,,,,4,2.6222,0,7,7,7,1,I experience a wide range of emotions or feelings.,0,8,,
,,,,,,,,,,,,,,,89344,001,2022-04-29_15h25.54.050,SPAMnetsValid,2021.1.4,Win32,58.16320596,,,,,,,,,,,,,,,,,,,,,,,,,,,,,,,,,,,,,,,,,,,,,,,,,,,,,,,,,,,,,,,,,,,,,,,,,,,,,,2,3.469,0,8,8,8,1,"Sometimes when I am reading poetry or looking at a work of art, I feel a chill or wave of excitement.",0,9,,
,,,,,,,,,,,,,,,89344,001,2022-04-29_15h25.54.050,SPAMnetsValid,2021.1.4,Win32,58.16320596,,,,,,,,,,,,,,,,,,,,,,,,,,,,,,,,,,,,,,,,,,,,,,,,,,,,,,,,,,,,,,,,,,,,,,,,,,,,,,2,3.202,0,9,9,9,1,I have little interest in speculating on the nature of the universe or the human condition.,1,10,,
,,,,,,,,,,,,,,,89344,001,2022-04-29_15h25.54.050,SPAMnetsValid,2021.1.4,Win32,58.16320596,,,,,,,,,,,,,,,,,,,,,,,,,,,,,,,,,,,,,,,,,,,,,,,,,,,,,,,,,,,,,,,,,,,,,,,,,,,,,,4,2.1407,0,10,10,10,1,I have a lot of intellectual curiosity.,0,11,,
,,,,,,,,,,,,,,,89344,001,2022-04-29_15h25.54.050,SPAMnetsValid,2021.1.4,Win32,58.16320596,,,,,,,,,,,,,,,,,,,,,,,,,,,,,,,,,,,,,,,,,,,,,,,,,,,,,,,,,,,,,,,,,,,,,,,,,,,,,,4,2.3591,0,11,11,11,1,I often enjoy playing with theories or abstract ideas.,0,12,,
,,,,,,,,,,,,,,,89344,001,2022-04-29_15h25.54.050,SPAMnetsValid,2021.1.4,Win32,58.16320596,,,,,,,,,,,,,,,,,,,,,,,,,,,,,,,,,,,,,,,,,,,,,,,,,,,,,,,,,,,,,,,,,,,,,,,,,,,,,,,,,,,,,,,,return,14.8433
