key_resp_3.keys,key_resp_3.rt,slider_2.response,slider_2.rt,rjt_rating,rjt_RT,trials_24.thisRepN,trials_24.thisTrialN,trials_24.thisN,trials_24.thisIndex,trials_24.ran,rjt_order,word1,word2,attention,participant,session,date,expName,psychopyVersion,OS,frameRate,trials_4.thisRepN,trials_4.thisTrialN,trials_4.thisN,trials_4.thisIndex,trials_4.ran,trials_5.thisRepN,trials_5.thisTrialN,trials_5.thisN,trials_5.thisIndex,trials_5.ran,repOne,repTwo,slider.response,slider.rt,trials_22.thisRepN,trials_22.thisTrialN,trials_22.thisN,trials_22.thisIndex,trials_22.ran,trials_99.thisRepN,trials_99.thisTrialN,trials_99.thisN,trials_99.thisIndex,trials_99.ran,slider_extend_2.response,slider_extend_2.rt,trials_6.thisRepN,trials_6.thisTrialN,trials_6.thisN,trials_6.thisIndex,trials_6.ran,vCue2,R1,R2,R3,R4,correct,sliderVocab.response,sliderVocab.rt,trials_7.thisRepN,trials_7.thisTrialN,trials_7.thisN,trials_7.thisIndex,trials_7.ran,VocabCue,VR1,VR2,VR3,VR4,VR5,VocabCorrect,AUT_resp,AUT_label,trials.thisRepN,trials.thisTrialN,trials.thisN,trials.thisIndex,trials.ran,trials_2.thisRepN,trials_2.thisTrialN,trials_2.thisN,trials_2.thisIndex,trials_2.ran,aut_prompt,VF_response,VF_tag,trials_16.thisRepN,trials_16.thisTrialN,trials_16.thisN,trials_16.thisIndex,trials_16.ran,trials_17.thisRepN,trials_17.thisTrialN,trials_17.thisN,trials_17.thisIndex,trials_17.ran,VFcond,open_slider.response,open_slider.rt,trials_3.thisRepN,trials_3.thisTrialN,trials_3.thisN,trials_3.thisIndex,trials_3.ran,OpenQ,Rev,OPEN_ORDER,key_resp_2.keys,key_resp_2.rt
return,7.2929,8,7.9942,8,7.9942,0,0,0,48,1,186,kitchen,yogurt,,89355,001,2022-04-21_13h21.31.192,SPAMnetsValid,2021.1.4,Win32,60.10699044,,,,,,,,,,,,,,,,,,,,,,,,,,,,,,,,,,,,,,,,,,,,,,,,,,,,,,,,,,,,,,,,,,,,,,,,,,,,,,,,,,,,,,,,,
,,1,5.2982,1,5.2982,0,1,1,78,1,132,broom,tree,,89355,001,2022-04-21_13h21.31.192,SPAMnetsValid,2021.1.4,Win32,60.10699044,,,,,,,,,,,,,,,,,,,,,,,,,,,,,,,,,,,,,,,,,,,,,,,,,,,,,,,,,,,,,,,,,,,,,,,,,,,,,,,,,,,,,,,,,
,,6,3.6816,6,3.6816,0,2,2,75,1,178,cactus,carrot,,89355,001,2022-04-21_13h21.31.192,SPAMnetsValid,2021.1.4,Win32,60.10699044,,,,,,,,,,,,,,,,,,,,,,,,,,,,,,,,,,,,,,,,,,,,,,,,,,,,,,,,,,,,,,,,,,,,,,,,,,,,,,,,,,,,,,,,,
,,8,1.8229,8,1.8229,0,3,3,1,1,173,kitchen,tomato,,89355,001,2022-04-21_13h21.31.192,SPAMnetsValid,2021.1.4,Win32,60.10699044,,,,,,,,,,,,,,,,,,,,,,,,,,,,,,,,,,,,,,,,,,,,,,,,,,,,,,,,,,,,,,,,,,,,,,,,,,,,,,,,,,,,,,,,,
,,1,2.1452,1,2.1452,0,4,4,71,1,187,cactus,microwave,,89355,001,2022-04-21_13h21.31.192,SPAMnetsValid,2021.1.4,Win32,60.10699044,,,,,,,,,,,,,,,,,,,,,,,,,,,,,,,,,,,,,,,,,,,,,,,,,,,,,,,,,,,,,,,,,,,,,,,,,,,,,,,,,,,,,,,,,
,,1,1.5682,1,1.5682,0,5,5,3,1,129,cactus,refrigerator,,89355,001,2022-04-21_13h21.31.192,SPAMnetsValid,2021.1.4,Win32,60.10699044,,,,,,,,,,,,,,,,,,,,,,,,,,,,,,,,,,,,,,,,,,,,,,,,,,,,,,,,,,,,,,,,,,,,,,,,,,,,,,,,,,,,,,,,,
,,8,3.0277,8,3.0277,0,6,6,87,1,114,cookie,strawberry,,89355,001,2022-04-21_13h21.31.192,SPAMnetsValid,2021.1.4,Win32,60.10699044,,,,,,,,,,,,,,,,,,,,,,,,,,,,,,,,,,,,,,,,,,,,,,,,,,,,,,,,,,,,,,,,,,,,,,,,,,,,,,,,,,,,,,,,,
,,9,3.7955,9,3.7955,0,7,7,14,1,120,microwave,oven,,89355,001,2022-04-21_13h21.31.192,SPAMnetsValid,2021.1.4,Win32,60.10699044,,,,,,,,,,,,,,,,,,,,,,,,,,,,,,,,,,,,,,,,,,,,,,,,,,,,,,,,,,,,,,,,,,,,,,,,,,,,,,,,,,,,,,,,,
,,7,1.8823,7,1.8823,0,8,8,95,1,121,broom,microwave,,89355,001,2022-04-21_13h21.31.192,SPAMnetsValid,2021.1.4,Win32,60.10699044,,,,,,,,,,,,,,,,,,,,,,,,,,,,,,,,,,,,,,,,,,,,,,,,,,,,,,,,,,,,,,,,,,,,,,,,,,,,,,,,,,,,,,,,,
,,6,2.1152,6,2.1152,0,9,9,43,1,185,cactus,rose,,89355,001,2022-04-21_13h21.31.192,SPAMnetsValid,2021.1.4,Win32,60.10699044,,,,,,,,,,,,,,,,,,,,,,,,,,,,,,,,,,,,,,,,,,,,,,,,,,,,,,,,,,,,,,,,,,,,,,,,,,,,,,,,,,,,,,,,,
,,7,1.9451,7,1.9451,0,10,10,76,1,102,chocolate,refrigerator,,89355,001,2022-04-21_13h21.31.192,SPAMnetsValid,2021.1.4,Win32,60.10699044,,,,,,,,,,,,,,,,,,,,,,,,,,,,,,,,,,,,,,,,,,,,,,,,,,,,,,,,,,,,,,,,,,,,,,,,,,,,,,,,,,,,,,,,,
,,7,1.5193,7,1.5193,0,11,11,74,1,128,melon,microwave,,89355,001,2022-04-21_13h21.31.192,SPAMnetsValid,2021.1.4,Win32,60.10699044,,,,,,,,,,,,,,,,,,,,,,,,,,,,,,,,,,,,,,,,,,,,,,,,,,,,,,,,,,,,,,,,,,,,,,,,,,,,,,,,,,,,,,,,,
,,7,2.2441,7,2.2441,0,12,12,40,1,165,onion,rose,,89355,001,2022-04-21_13h21.31.192,SPAMnetsValid,2021.1.4,Win32,60.10699044,,,,,,,,,,,,,,,,,,,,,,,,,,,,,,,,,,,,,,,,,,,,,,,,,,,,,,,,,,,,,,,,,,,,,,,,,,,,,,,,,,,,,,,,,
,,7,1.8387,7,1.8387,0,13,13,26,1,107,rose,tomato,,89355,001,2022-04-21_13h21.31.192,SPAMnetsValid,2021.1.4,Win32,60.10699044,,,,,,,,,,,,,,,,,,,,,,,,,,,,,,,,,,,,,,,,,,,,,,,,,,,,,,,,,,,,,,,,,,,,,,,,,,,,,,,,,,,,,,,,,
,,7,1.9621,7,1.9621,0,14,14,62,1,189,onion,tree,,89355,001,2022-04-21_13h21.31.192,SPAMnetsValid,2021.1.4,Win32,60.10699044,,,,,,,,,,,,,,,,,,,,,,,,,,,,,,,,,,,,,,,,,,,,,,,,,,,,,,,,,,,,,,,,,,,,,,,,,,,,,,,,,,,,,,,,,
,,8,2.8118,8,2.8118,0,15,15,79,1,103,pretzel,tomato,,89355,001,2022-04-21_13h21.31.192,SPAMnetsValid,2021.1.4,Win32,60.10699044,,,,,,,,,,,,,,,,,,,,,,,,,,,,,,,,,,,,,,,,,,,,,,,,,,,,,,,,,,,,,,,,,,,,,,,,,,,,,,,,,,,,,,,,,
,,9,2.0918,9,2.0918,0,16,16,47,1,167,carrot,garden,,89355,001,2022-04-21_13h21.31.192,SPAMnetsValid,2021.1.4,Win32,60.10699044,,,,,,,,,,,,,,,,,,,,,,,,,,,,,,,,,,,,,,,,,,,,,,,,,,,,,,,,,,,,,,,,,,,,,,,,,,,,,,,,,,,,,,,,,
,,7,1.6019,7,1.6019,0,17,17,12,1,162,microwave,tomato,,89355,001,2022-04-21_13h21.31.192,SPAMnetsValid,2021.1.4,Win32,60.10699044,,,,,,,,,,,,,,,,,,,,,,,,,,,,,,,,,,,,,,,,,,,,,,,,,,,,,,,,,,,,,,,,,,,,,,,,,,,,,,,,,,,,,,,,,
,,7,1.5867,7,1.5867,0,18,18,53,1,177,chocolate,strawberry,,89355,001,2022-04-21_13h21.31.192,SPAMnetsValid,2021.1.4,Win32,60.10699044,,,,,,,,,,,,,,,,,,,,,,,,,,,,,,,,,,,,,,,,,,,,,,,,,,,,,,,,,,,,,,,,,,,,,,,,,,,,,,,,,,,,,,,,,
,,8,1.7842,8,1.7842,0,19,19,66,1,150,microwave,refrigerator,,89355,001,2022-04-21_13h21.31.192,SPAMnetsValid,2021.1.4,Win32,60.10699044,,,,,,,,,,,,,,,,,,,,,,,,,,,,,,,,,,,,,,,,,,,,,,,,,,,,,,,,,,,,,,,,,,,,,,,,,,,,,,,,,,,,,,,,,
,,1,3.0171,1,3.0171,0,20,20,50,1,126,kitchen,tree,,89355,001,2022-04-21_13h21.31.192,SPAMnetsValid,2021.1.4,Win32,60.10699044,,,,,,,,,,,,,,,,,,,,,,,,,,,,,,,,,,,,,,,,,,,,,,,,,,,,,,,,,,,,,,,,,,,,,,,,,,,,,,,,,,,,,,,,,
,,9,3.1535,9,3.1535,0,21,21,37,1,139,carrot,strawberry,,89355,001,2022-04-21_13h21.31.192,SPAMnetsValid,2021.1.4,Win32,60.10699044,,,,,,,,,,,,,,,,,,,,,,,,,,,,,,,,,,,,,,,,,,,,,,,,,,,,,,,,,,,,,,,,,,,,,,,,,,,,,,,,,,,,,,,,,
,,1,3.7686,1,3.7686,0,22,22,15,1,145,cactus,yogurt,,89355,001,2022-04-21_13h21.31.192,SPAMnetsValid,2021.1.4,Win32,60.10699044,,,,,,,,,,,,,,,,,,,,,,,,,,,,,,,,,,,,,,,,,,,,,,,,,,,,,,,,,,,,,,,,,,,,,,,,,,,,,,,,,,,,,,,,,
,,8,1.7812,8,1.7812,0,23,23,72,1,181,carrot,kitchen,,89355,001,2022-04-21_13h21.31.192,SPAMnetsValid,2021.1.4,Win32,60.10699044,,,,,,,,,,,,,,,,,,,,,,,,,,,,,,,,,,,,,,,,,,,,,,,,,,,,,,,,,,,,,,,,,,,,,,,,,,,,,,,,,,,,,,,,,
,,8,1.8312,8,1.8312,0,24,24,2,1,174,cake,pretzel,,89355,001,2022-04-21_13h21.31.192,SPAMnetsValid,2021.1.4,Win32,60.10699044,,,,,,,,,,,,,,,,,,,,,,,,,,,,,,,,,,,,,,,,,,,,,,,,,,,,,,,,,,,,,,,,,,,,,,,,,,,,,,,,,,,,,,,,,
,,9,3.8097,9,3.8097,0,25,25,52,1,110,chocolate,cookie,,89355,001,2022-04-21_13h21.31.192,SPAMnetsValid,2021.1.4,Win32,60.10699044,,,,,,,,,,,,,,,,,,,,,,,,,,,,,,,,,,,,,,,,,,,,,,,,,,,,,,,,,,,,,,,,,,,,,,,,,,,,,,,,,,,,,,,,,
,,8,2.0701,8,2.0701,0,26,26,22,1,142,garden,tree,,89355,001,2022-04-21_13h21.31.192,SPAMnetsValid,2021.1.4,Win32,60.10699044,,,,,,,,,,,,,,,,,,,,,,,,,,,,,,,,,,,,,,,,,,,,,,,,,,,,,,,,,,,,,,,,,,,,,,,,,,,,,,,,,,,,,,,,,
,,7,2.7225,7,2.7225,0,27,27,29,1,163,melon,refrigerator,,89355,001,2022-04-21_13h21.31.192,SPAMnetsValid,2021.1.4,Win32,60.10699044,,,,,,,,,,,,,,,,,,,,,,,,,,,,,,,,,,,,,,,,,,,,,,,,,,,,,,,,,,,,,,,,,,,,,,,,,,,,,,,,,,,,,,,,,
,,3,2.3018,3,2.3018,0,28,28,33,1,131,cactus,garden,,89355,001,2022-04-21_13h21.31.192,SPAMnetsValid,2021.1.4,Win32,60.10699044,,,,,,,,,,,,,,,,,,,,,,,,,,,,,,,,,,,,,,,,,,,,,,,,,,,,,,,,,,,,,,,,,,,,,,,,,,,,,,,,,,,,,,,,,
,,3,2.658,3,2.658,0,29,29,46,1,123,cookie,tree,,89355,001,2022-04-21_13h21.31.192,SPAMnetsValid,2021.1.4,Win32,60.10699044,,,,,,,,,,,,,,,,,,,,,,,,,,,,,,,,,,,,,,,,,,,,,,,,,,,,,,,,,,,,,,,,,,,,,,,,,,,,,,,,,,,,,,,,,
,,7,6.0927,7,6.0927,0,30,30,90,1,190,microwave,strawberry,,89355,001,2022-04-21_13h21.31.192,SPAMnetsValid,2021.1.4,Win32,60.10699044,,,,,,,,,,,,,,,,,,,,,,,,,,,,,,,,,,,,,,,,,,,,,,,,,,,,,,,,,,,,,,,,,,,,,,,,,,,,,,,,,,,,,,,,,
,,2,1.9237,2,1.9237,0,31,31,57,1,127,cactus,chocolate,,89355,001,2022-04-21_13h21.31.192,SPAMnetsValid,2021.1.4,Win32,60.10699044,,,,,,,,,,,,,,,,,,,,,,,,,,,,,,,,,,,,,,,,,,,,,,,,,,,,,,,,,,,,,,,,,,,,,,,,,,,,,,,,,,,,,,,,,
,,2,2.0698,2,2.0698,0,32,32,59,1,164,cookie,garden,,89355,001,2022-04-21_13h21.31.192,SPAMnetsValid,2021.1.4,Win32,60.10699044,,,,,,,,,,,,,,,,,,,,,,,,,,,,,,,,,,,,,,,,,,,,,,,,,,,,,,,,,,,,,,,,,,,,,,,,,,,,,,,,,,,,,,,,,
,,2,3.3371,2,3.3371,0,33,33,58,1,144,cake,garden,,89355,001,2022-04-21_13h21.31.192,SPAMnetsValid,2021.1.4,Win32,60.10699044,,,,,,,,,,,,,,,,,,,,,,,,,,,,,,,,,,,,,,,,,,,,,,,,,,,,,,,,,,,,,,,,,,,,,,,,,,,,,,,,,,,,,,,,,
,,7,3.8365,7,3.8365,0,34,34,89,1,140,cookie,refrigerator,,89355,001,2022-04-21_13h21.31.192,SPAMnetsValid,2021.1.4,Win32,60.10699044,,,,,,,,,,,,,,,,,,,,,,,,,,,,,,,,,,,,,,,,,,,,,,,,,,,,,,,,,,,,,,,,,,,,,,,,,,,,,,,,,,,,,,,,,
,,3,1.918,3,1.918,0,35,35,49,1,152,cactus,strawberry,,89355,001,2022-04-21_13h21.31.192,SPAMnetsValid,2021.1.4,Win32,60.10699044,,,,,,,,,,,,,,,,,,,,,,,,,,,,,,,,,,,,,,,,,,,,,,,,,,,,,,,,,,,,,,,,,,,,,,,,,,,,,,,,,,,,,,,,,
,,1,5.2836,1,5.2836,0,36,36,32,1,182,flower,refrigerator,,89355,001,2022-04-21_13h21.31.192,SPAMnetsValid,2021.1.4,Win32,60.10699044,,,,,,,,,,,,,,,,,,,,,,,,,,,,,,,,,,,,,,,,,,,,,,,,,,,,,,,,,,,,,,,,,,,,,,,,,,,,,,,,,,,,,,,,,
,,8,1.917,8,1.917,0,37,37,11,1,117,melon,strawberry,,89355,001,2022-04-21_13h21.31.192,SPAMnetsValid,2021.1.4,Win32,60.10699044,,,,,,,,,,,,,,,,,,,,,,,,,,,,,,,,,,,,,,,,,,,,,,,,,,,,,,,,,,,,,,,,,,,,,,,,,,,,,,,,,,,,,,,,,
,,9,2.8844,9,2.8844,0,38,38,56,1,113,refrigerator,strawberry,,89355,001,2022-04-21_13h21.31.192,SPAMnetsValid,2021.1.4,Win32,60.10699044,,,,,,,,,,,,,,,,,,,,,,,,,,,,,,,,,,,,,,,,,,,,,,,,,,,,,,,,,,,,,,,,,,,,,,,,,,,,,,,,,,,,,,,,,
,,9,1.3703,9,1.3703,0,39,39,86,1,193,melon,melon,CHECK,89355,001,2022-04-21_13h21.31.192,SPAMnetsValid,2021.1.4,Win32,60.10699044,,,,,,,,,,,,,,,,,,,,,,,,,,,,,,,,,,,,,,,,,,,,,,,,,,,,,,,,,,,,,,,,,,,,,,,,,,,,,,,,,,,,,,,,,
,,9,1.7439,9,1.7439,0,40,40,60,1,122,flower,garden,,89355,001,2022-04-21_13h21.31.192,SPAMnetsValid,2021.1.4,Win32,60.10699044,,,,,,,,,,,,,,,,,,,,,,,,,,,,,,,,,,,,,,,,,,,,,,,,,,,,,,,,,,,,,,,,,,,,,,,,,,,,,,,,,,,,,,,,,
,,8,1.9735,8,1.9735,0,41,41,7,1,188,flower,tree,,89355,001,2022-04-21_13h21.31.192,SPAMnetsValid,2021.1.4,Win32,60.10699044,,,,,,,,,,,,,,,,,,,,,,,,,,,,,,,,,,,,,,,,,,,,,,,,,,,,,,,,,,,,,,,,,,,,,,,,,,,,,,,,,,,,,,,,,
,,1,8.8959,1,8.8959,0,42,42,80,1,146,pretzel,tree,,89355,001,2022-04-21_13h21.31.192,SPAMnetsValid,2021.1.4,Win32,60.10699044,,,,,,,,,,,,,,,,,,,,,,,,,,,,,,,,,,,,,,,,,,,,,,,,,,,,,,,,,,,,,,,,,,,,,,,,,,,,,,,,,,,,,,,,,
,,8,5.232,8,5.232,0,43,43,44,1,116,cake,chocolate,,89355,001,2022-04-21_13h21.31.192,SPAMnetsValid,2021.1.4,Win32,60.10699044,,,,,,,,,,,,,,,,,,,,,,,,,,,,,,,,,,,,,,,,,,,,,,,,,,,,,,,,,,,,,,,,,,,,,,,,,,,,,,,,,,,,,,,,,
,,1,1.5375,1,1.5375,0,44,44,13,1,105,cactus,oven,,89355,001,2022-04-21_13h21.31.192,SPAMnetsValid,2021.1.4,Win32,60.10699044,,,,,,,,,,,,,,,,,,,,,,,,,,,,,,,,,,,,,,,,,,,,,,,,,,,,,,,,,,,,,,,,,,,,,,,,,,,,,,,,,,,,,,,,,
,,1,1.5277,1,1.5277,0,45,45,55,1,143,pretzel,rose,,89355,001,2022-04-21_13h21.31.192,SPAMnetsValid,2021.1.4,Win32,60.10699044,,,,,,,,,,,,,,,,,,,,,,,,,,,,,,,,,,,,,,,,,,,,,,,,,,,,,,,,,,,,,,,,,,,,,,,,,,,,,,,,,,,,,,,,,
,,1,3.4035,1,3.4035,0,46,46,64,1,157,refrigerator,rose,,89355,001,2022-04-21_13h21.31.192,SPAMnetsValid,2021.1.4,Win32,60.10699044,,,,,,,,,,,,,,,,,,,,,,,,,,,,,,,,,,,,,,,,,,,,,,,,,,,,,,,,,,,,,,,,,,,,,,,,,,,,,,,,,,,,,,,,,
,,1,1.6401,1,1.6401,0,47,47,68,1,180,tree,yogurt,,89355,001,2022-04-21_13h21.31.192,SPAMnetsValid,2021.1.4,Win32,60.10699044,,,,,,,,,,,,,,,,,,,,,,,,,,,,,,,,,,,,,,,,,,,,,,,,,,,,,,,,,,,,,,,,,,,,,,,,,,,,,,,,,,,,,,,,,
,,9,2.171,9,2.171,0,48,48,83,1,100,garden,tomato,,89355,001,2022-04-21_13h21.31.192,SPAMnetsValid,2021.1.4,Win32,60.10699044,,,,,,,,,,,,,,,,,,,,,,,,,,,,,,,,,,,,,,,,,,,,,,,,,,,,,,,,,,,,,,,,,,,,,,,,,,,,,,,,,,,,,,,,,
,,7,9.0335,7,9.0335,0,49,49,73,1,135,carrot,oven,,89355,001,2022-04-21_13h21.31.192,SPAMnetsValid,2021.1.4,Win32,60.10699044,,,,,,,,,,,,,,,,,,,,,,,,,,,,,,,,,,,,,,,,,,,,,,,,,,,,,,,,,,,,,,,,,,,,,,,,,,,,,,,,,,,,,,,,,
,,7,2.8917,7,2.8917,0,50,50,45,1,179,broom,oven,,89355,001,2022-04-21_13h21.31.192,SPAMnetsValid,2021.1.4,Win32,60.10699044,,,,,,,,,,,,,,,,,,,,,,,,,,,,,,,,,,,,,,,,,,,,,,,,,,,,,,,,,,,,,,,,,,,,,,,,,,,,,,,,,,,,,,,,,
,,7,3.3645,7,3.3645,0,51,51,18,1,119,strawberry,tree,,89355,001,2022-04-21_13h21.31.192,SPAMnetsValid,2021.1.4,Win32,60.10699044,,,,,,,,,,,,,,,,,,,,,,,,,,,,,,,,,,,,,,,,,,,,,,,,,,,,,,,,,,,,,,,,,,,,,,,,,,,,,,,,,,,,,,,,,
,,8,1.9436,8,1.9436,0,52,52,28,1,154,strawberry,yogurt,,89355,001,2022-04-21_13h21.31.192,SPAMnetsValid,2021.1.4,Win32,60.10699044,,,,,,,,,,,,,,,,,,,,,,,,,,,,,,,,,,,,,,,,,,,,,,,,,,,,,,,,,,,,,,,,,,,,,,,,,,,,,,,,,,,,,,,,,
,,7,1.688,7,1.688,0,53,53,6,1,151,microwave,onion,,89355,001,2022-04-21_13h21.31.192,SPAMnetsValid,2021.1.4,Win32,60.10699044,,,,,,,,,,,,,,,,,,,,,,,,,,,,,,,,,,,,,,,,,,,,,,,,,,,,,,,,,,,,,,,,,,,,,,,,,,,,,,,,,,,,,,,,,
,,7,1.6077,7,1.6077,0,54,54,77,1,172,kitchen,melon,,89355,001,2022-04-21_13h21.31.192,SPAMnetsValid,2021.1.4,Win32,60.10699044,,,,,,,,,,,,,,,,,,,,,,,,,,,,,,,,,,,,,,,,,,,,,,,,,,,,,,,,,,,,,,,,,,,,,,,,,,,,,,,,,,,,,,,,,
,,1,2.0741,1,2.0741,0,55,55,42,1,184,oven,pretzel,,89355,001,2022-04-21_13h21.31.192,SPAMnetsValid,2021.1.4,Win32,60.10699044,,,,,,,,,,,,,,,,,,,,,,,,,,,,,,,,,,,,,,,,,,,,,,,,,,,,,,,,,,,,,,,,,,,,,,,,,,,,,,,,,,,,,,,,,
,,1,2.6084,1,2.6084,0,56,56,81,1,104,garden,microwave,,89355,001,2022-04-21_13h21.31.192,SPAMnetsValid,2021.1.4,Win32,60.10699044,,,,,,,,,,,,,,,,,,,,,,,,,,,,,,,,,,,,,,,,,,,,,,,,,,,,,,,,,,,,,,,,,,,,,,,,,,,,,,,,,,,,,,,,,
,,9,3.4216,9,3.4216,0,57,57,51,1,168,cactus,flower,,89355,001,2022-04-21_13h21.31.192,SPAMnetsValid,2021.1.4,Win32,60.10699044,,,,,,,,,,,,,,,,,,,,,,,,,,,,,,,,,,,,,,,,,,,,,,,,,,,,,,,,,,,,,,,,,,,,,,,,,,,,,,,,,,,,,,,,,
,,3,3.608,3,3.608,0,58,58,19,1,183,cake,rose,,89355,001,2022-04-21_13h21.31.192,SPAMnetsValid,2021.1.4,Win32,60.10699044,,,,,,,,,,,,,,,,,,,,,,,,,,,,,,,,,,,,,,,,,,,,,,,,,,,,,,,,,,,,,,,,,,,,,,,,,,,,,,,,,,,,,,,,,
,,7,4.1069,7,4.1069,0,59,59,24,1,169,onion,yogurt,,89355,001,2022-04-21_13h21.31.192,SPAMnetsValid,2021.1.4,Win32,60.10699044,,,,,,,,,,,,,,,,,,,,,,,,,,,,,,,,,,,,,,,,,,,,,,,,,,,,,,,,,,,,,,,,,,,,,,,,,,,,,,,,,,,,,,,,,
,,3,2.7196,3,2.7196,0,60,60,9,1,176,cactus,tomato,,89355,001,2022-04-21_13h21.31.192,SPAMnetsValid,2021.1.4,Win32,60.10699044,,,,,,,,,,,,,,,,,,,,,,,,,,,,,,,,,,,,,,,,,,,,,,,,,,,,,,,,,,,,,,,,,,,,,,,,,,,,,,,,,,,,,,,,,
,,7,5.4367,7,5.4367,0,61,61,35,1,147,cake,refrigerator,,89355,001,2022-04-21_13h21.31.192,SPAMnetsValid,2021.1.4,Win32,60.10699044,,,,,,,,,,,,,,,,,,,,,,,,,,,,,,,,,,,,,,,,,,,,,,,,,,,,,,,,,,,,,,,,,,,,,,,,,,,,,,,,,,,,,,,,,
,,6,1.9706,6,1.9706,0,62,62,30,1,125,carrot,tree,,89355,001,2022-04-21_13h21.31.192,SPAMnetsValid,2021.1.4,Win32,60.10699044,,,,,,,,,,,,,,,,,,,,,,,,,,,,,,,,,,,,,,,,,,,,,,,,,,,,,,,,,,,,,,,,,,,,,,,,,,,,,,,,,,,,,,,,,
,,6,3.9907,6,3.9907,0,63,63,36,1,161,kitchen,pretzel,,89355,001,2022-04-21_13h21.31.192,SPAMnetsValid,2021.1.4,Win32,60.10699044,,,,,,,,,,,,,,,,,,,,,,,,,,,,,,,,,,,,,,,,,,,,,,,,,,,,,,,,,,,,,,,,,,,,,,,,,,,,,,,,,,,,,,,,,
,,6,1.889,6,1.889,0,64,64,0,1,106,cake,strawberry,,89355,001,2022-04-21_13h21.31.192,SPAMnetsValid,2021.1.4,Win32,60.10699044,,,,,,,,,,,,,,,,,,,,,,,,,,,,,,,,,,,,,,,,,,,,,,,,,,,,,,,,,,,,,,,,,,,,,,,,,,,,,,,,,,,,,,,,,
,,1,2.9025,1,2.9025,0,65,65,63,1,137,microwave,tree,,89355,001,2022-04-21_13h21.31.192,SPAMnetsValid,2021.1.4,Win32,60.10699044,,,,,,,,,,,,,,,,,,,,,,,,,,,,,,,,,,,,,,,,,,,,,,,,,,,,,,,,,,,,,,,,,,,,,,,,,,,,,,,,,,,,,,,,,
,,8,2.5126,8,2.5126,0,66,66,70,1,141,melon,tomato,,89355,001,2022-04-21_13h21.31.192,SPAMnetsValid,2021.1.4,Win32,60.10699044,,,,,,,,,,,,,,,,,,,,,,,,,,,,,,,,,,,,,,,,,,,,,,,,,,,,,,,,,,,,,,,,,,,,,,,,,,,,,,,,,,,,,,,,,
,,9,1.6447,9,1.6447,0,67,67,25,1,194,cactus,cactus,CHECK,89355,001,2022-04-21_13h21.31.192,SPAMnetsValid,2021.1.4,Win32,60.10699044,,,,,,,,,,,,,,,,,,,,,,,,,,,,,,,,,,,,,,,,,,,,,,,,,,,,,,,,,,,,,,,,,,,,,,,,,,,,,,,,,,,,,,,,,
,,8,1.6534,8,1.6534,0,68,68,38,1,155,carrot,cookie,,89355,001,2022-04-21_13h21.31.192,SPAMnetsValid,2021.1.4,Win32,60.10699044,,,,,,,,,,,,,,,,,,,,,,,,,,,,,,,,,,,,,,,,,,,,,,,,,,,,,,,,,,,,,,,,,,,,,,,,,,,,,,,,,,,,,,,,,
,,8,1.6541,8,1.6541,0,69,69,5,1,108,carrot,chocolate,,89355,001,2022-04-21_13h21.31.192,SPAMnetsValid,2021.1.4,Win32,60.10699044,,,,,,,,,,,,,,,,,,,,,,,,,,,,,,,,,,,,,,,,,,,,,,,,,,,,,,,,,,,,,,,,,,,,,,,,,,,,,,,,,,,,,,,,,
,,9,2.7402,9,2.7402,0,70,70,69,1,124,oven,refrigerator,,89355,001,2022-04-21_13h21.31.192,SPAMnetsValid,2021.1.4,Win32,60.10699044,,,,,,,,,,,,,,,,,,,,,,,,,,,,,,,,,,,,,,,,,,,,,,,,,,,,,,,,,,,,,,,,,,,,,,,,,,,,,,,,,,,,,,,,,
,,8,3.2107,8,3.2107,0,71,71,91,1,166,cake,yogurt,,89355,001,2022-04-21_13h21.31.192,SPAMnetsValid,2021.1.4,Win32,60.10699044,,,,,,,,,,,,,,,,,,,,,,,,,,,,,,,,,,,,,,,,,,,,,,,,,,,,,,,,,,,,,,,,,,,,,,,,,,,,,,,,,,,,,,,,,
,,8,1.444,8,1.444,0,72,72,34,1,153,carrot,pretzel,,89355,001,2022-04-21_13h21.31.192,SPAMnetsValid,2021.1.4,Win32,60.10699044,,,,,,,,,,,,,,,,,,,,,,,,,,,,,,,,,,,,,,,,,,,,,,,,,,,,,,,,,,,,,,,,,,,,,,,,,,,,,,,,,,,,,,,,,
,,2,3.688,2,3.688,0,73,73,94,1,133,cake,flower,,89355,001,2022-04-21_13h21.31.192,SPAMnetsValid,2021.1.4,Win32,60.10699044,,,,,,,,,,,,,,,,,,,,,,,,,,,,,,,,,,,,,,,,,,,,,,,,,,,,,,,,,,,,,,,,,,,,,,,,,,,,,,,,,,,,,,,,,
,,2,1.2921,2,1.2921,0,74,74,20,1,149,broom,tomato,,89355,001,2022-04-21_13h21.31.192,SPAMnetsValid,2021.1.4,Win32,60.10699044,,,,,,,,,,,,,,,,,,,,,,,,,,,,,,,,,,,,,,,,,,,,,,,,,,,,,,,,,,,,,,,,,,,,,,,,,,,,,,,,,,,,,,,,,
,,7,2.7665,7,2.7665,0,75,75,10,1,118,chocolate,oven,,89355,001,2022-04-21_13h21.31.192,SPAMnetsValid,2021.1.4,Win32,60.10699044,,,,,,,,,,,,,,,,,,,,,,,,,,,,,,,,,,,,,,,,,,,,,,,,,,,,,,,,,,,,,,,,,,,,,,,,,,,,,,,,,,,,,,,,,
,,7,1.4533,7,1.4533,0,76,76,84,1,130,microwave,yogurt,,89355,001,2022-04-21_13h21.31.192,SPAMnetsValid,2021.1.4,Win32,60.10699044,,,,,,,,,,,,,,,,,,,,,,,,,,,,,,,,,,,,,,,,,,,,,,,,,,,,,,,,,,,,,,,,,,,,,,,,,,,,,,,,,,,,,,,,,
,,8,1.3377,8,1.3377,0,77,77,82,1,98,pretzel,strawberry,,89355,001,2022-04-21_13h21.31.192,SPAMnetsValid,2021.1.4,Win32,60.10699044,,,,,,,,,,,,,,,,,,,,,,,,,,,,,,,,,,,,,,,,,,,,,,,,,,,,,,,,,,,,,,,,,,,,,,,,,,,,,,,,,,,,,,,,,
,,7,4.198,7,4.198,0,78,78,93,1,134,carrot,flower,,89355,001,2022-04-21_13h21.31.192,SPAMnetsValid,2021.1.4,Win32,60.10699044,,,,,,,,,,,,,,,,,,,,,,,,,,,,,,,,,,,,,,,,,,,,,,,,,,,,,,,,,,,,,,,,,,,,,,,,,,,,,,,,,,,,,,,,,
,,9,2.1963,9,2.1963,0,79,79,61,1,138,flower,rose,,89355,001,2022-04-21_13h21.31.192,SPAMnetsValid,2021.1.4,Win32,60.10699044,,,,,,,,,,,,,,,,,,,,,,,,,,,,,,,,,,,,,,,,,,,,,,,,,,,,,,,,,,,,,,,,,,,,,,,,,,,,,,,,,,,,,,,,,
,,8,1.4786,8,1.4786,0,80,80,23,1,148,flower,melon,,89355,001,2022-04-21_13h21.31.192,SPAMnetsValid,2021.1.4,Win32,60.10699044,,,,,,,,,,,,,,,,,,,,,,,,,,,,,,,,,,,,,,,,,,,,,,,,,,,,,,,,,,,,,,,,,,,,,,,,,,,,,,,,,,,,,,,,,
,,7,1.8218,7,1.8218,0,81,81,96,1,136,chocolate,microwave,,89355,001,2022-04-21_13h21.31.192,SPAMnetsValid,2021.1.4,Win32,60.10699044,,,,,,,,,,,,,,,,,,,,,,,,,,,,,,,,,,,,,,,,,,,,,,,,,,,,,,,,,,,,,,,,,,,,,,,,,,,,,,,,,,,,,,,,,
,,7,2.3967,7,2.3967,0,82,82,16,1,111,carrot,microwave,,89355,001,2022-04-21_13h21.31.192,SPAMnetsValid,2021.1.4,Win32,60.10699044,,,,,,,,,,,,,,,,,,,,,,,,,,,,,,,,,,,,,,,,,,,,,,,,,,,,,,,,,,,,,,,,,,,,,,,,,,,,,,,,,,,,,,,,,
,,7,1.8339,7,1.8339,0,83,83,31,1,156,melon,rose,,89355,001,2022-04-21_13h21.31.192,SPAMnetsValid,2021.1.4,Win32,60.10699044,,,,,,,,,,,,,,,,,,,,,,,,,,,,,,,,,,,,,,,,,,,,,,,,,,,,,,,,,,,,,,,,,,,,,,,,,,,,,,,,,,,,,,,,,
,,7,1.4192,7,1.4192,0,84,84,65,1,160,cookie,kitchen,,89355,001,2022-04-21_13h21.31.192,SPAMnetsValid,2021.1.4,Win32,60.10699044,,,,,,,,,,,,,,,,,,,,,,,,,,,,,,,,,,,,,,,,,,,,,,,,,,,,,,,,,,,,,,,,,,,,,,,,,,,,,,,,,,,,,,,,,
,,7,1.4533,7,1.4533,0,85,85,67,1,96,oven,strawberry,,89355,001,2022-04-21_13h21.31.192,SPAMnetsValid,2021.1.4,Win32,60.10699044,,,,,,,,,,,,,,,,,,,,,,,,,,,,,,,,,,,,,,,,,,,,,,,,,,,,,,,,,,,,,,,,,,,,,,,,,,,,,,,,,,,,,,,,,
,,7,2.0149,7,2.0149,0,86,86,4,1,109,broom,strawberry,,89355,001,2022-04-21_13h21.31.192,SPAMnetsValid,2021.1.4,Win32,60.10699044,,,,,,,,,,,,,,,,,,,,,,,,,,,,,,,,,,,,,,,,,,,,,,,,,,,,,,,,,,,,,,,,,,,,,,,,,,,,,,,,,,,,,,,,,
,,1,3.3386,1,3.3386,0,87,87,54,1,101,cactus,kitchen,,89355,001,2022-04-21_13h21.31.192,SPAMnetsValid,2021.1.4,Win32,60.10699044,,,,,,,,,,,,,,,,,,,,,,,,,,,,,,,,,,,,,,,,,,,,,,,,,,,,,,,,,,,,,,,,,,,,,,,,,,,,,,,,,,,,,,,,,
,,7,2.4715,7,2.4715,0,88,88,85,1,115,refrigerator,tomato,,89355,001,2022-04-21_13h21.31.192,SPAMnetsValid,2021.1.4,Win32,60.10699044,,,,,,,,,,,,,,,,,,,,,,,,,,,,,,,,,,,,,,,,,,,,,,,,,,,,,,,,,,,,,,,,,,,,,,,,,,,,,,,,,,,,,,,,,
,,8,1.709,8,1.709,0,89,89,88,1,171,cake,tomato,,89355,001,2022-04-21_13h21.31.192,SPAMnetsValid,2021.1.4,Win32,60.10699044,,,,,,,,,,,,,,,,,,,,,,,,,,,,,,,,,,,,,,,,,,,,,,,,,,,,,,,,,,,,,,,,,,,,,,,,,,,,,,,,,,,,,,,,,
,,9,2.3092,9,2.3092,0,90,90,27,1,158,cookie,oven,,89355,001,2022-04-21_13h21.31.192,SPAMnetsValid,2021.1.4,Win32,60.10699044,,,,,,,,,,,,,,,,,,,,,,,,,,,,,,,,,,,,,,,,,,,,,,,,,,,,,,,,,,,,,,,,,,,,,,,,,,,,,,,,,,,,,,,,,
,,8,2.5321,8,2.5321,0,91,91,92,1,170,cookie,microwave,,89355,001,2022-04-21_13h21.31.192,SPAMnetsValid,2021.1.4,Win32,60.10699044,,,,,,,,,,,,,,,,,,,,,,,,,,,,,,,,,,,,,,,,,,,,,,,,,,,,,,,,,,,,,,,,,,,,,,,,,,,,,,,,,,,,,,,,,
,,8,1.1194,8,1.1194,0,92,92,8,1,97,chocolate,kitchen,,89355,001,2022-04-21_13h21.31.192,SPAMnetsValid,2021.1.4,Win32,60.10699044,,,,,,,,,,,,,,,,,,,,,,,,,,,,,,,,,,,,,,,,,,,,,,,,,,,,,,,,,,,,,,,,,,,,,,,,,,,,,,,,,,,,,,,,,
,,8,1.8298,8,1.8298,0,93,93,39,1,112,cake,carrot,,89355,001,2022-04-21_13h21.31.192,SPAMnetsValid,2021.1.4,Win32,60.10699044,,,,,,,,,,,,,,,,,,,,,,,,,,,,,,,,,,,,,,,,,,,,,,,,,,,,,,,,,,,,,,,,,,,,,,,,,,,,,,,,,,,,,,,,,
,,8,2.1592,8,2.1592,0,94,94,41,1,175,melon,onion,,89355,001,2022-04-21_13h21.31.192,SPAMnetsValid,2021.1.4,Win32,60.10699044,,,,,,,,,,,,,,,,,,,,,,,,,,,,,,,,,,,,,,,,,,,,,,,,,,,,,,,,,,,,,,,,,,,,,,,,,,,,,,,,,,,,,,,,,
,,4,2.4025,4,2.4025,0,95,95,21,1,159,cookie,flower,,89355,001,2022-04-21_13h21.31.192,SPAMnetsValid,2021.1.4,Win32,60.10699044,,,,,,,,,,,,,,,,,,,,,,,,,,,,,,,,,,,,,,,,,,,,,,,,,,,,,,,,,,,,,,,,,,,,,,,,,,,,,,,,,,,,,,,,,
,,8,2.3085,8,2.3085,0,96,96,17,1,99,garden,melon,,89355,001,2022-04-21_13h21.31.192,SPAMnetsValid,2021.1.4,Win32,60.10699044,,,,,,,,,,,,,,,,,,,,,,,,,,,,,,,,,,,,,,,,,,,,,,,,,,,,,,,,,,,,,,,,,,,,,,,,,,,,,,,,,,,,,,,,,
,,,,,,,,,,,,,,,89355,001,2022-04-21_13h21.31.192,SPAMnetsValid,2021.1.4,Win32,60.10699044,0,0,0,0,1,,,,,,,,,,,,,,,,,,,,,,,,,,,,,,,,,,,,,,,,,,,,,,,,,,,,,,,,,,,,,,,,,,,,,,,,,,,,,,,,,,,,
,,,,,,,,,,,,,,,89355,001,2022-04-21_13h21.31.192,SPAMnetsValid,2021.1.4,Win32,60.10699044,,,,,,0,0,0,1,1,0,1,,,,,,,,,,,,,,,,,,,,,,,,,,,,,,,,,,,,,,,,,,,,,,,,,,,,,,,,,,,,,,,,,,,,,,,,,,,,,
,,,,3,7.1851,,,,,,16,chocolate,flower,,89355,001,2022-04-21_13h21.31.192,SPAMnetsValid,2021.1.4,Win32,60.10699044,,,,,,,,,,,,,3,7.1851,0,0,0,22,1,,,,,,,,,,,,,,,,,,,,,,,,,,,,,,,,,,,,,,,,,,,,,,,,,,,,,,,,,,,,,,,,,,,,,,
,,,,8,2.5033,,,,,,39,melon,pretzel,,89355,001,2022-04-21_13h21.31.192,SPAMnetsValid,2021.1.4,Win32,60.10699044,,,,,,,,,,,,,8,2.5033,0,1,1,20,1,,,,,,,,,,,,,,,,,,,,,,,,,,,,,,,,,,,,,,,,,,,,,,,,,,,,,,,,,,,,,,,,,,,,,,
,,,,2,1.6773,,,,,,92,broom,flower,,89355,001,2022-04-21_13h21.31.192,SPAMnetsValid,2021.1.4,Win32,60.10699044,,,,,,,,,,,,,2,1.6773,0,2,2,88,1,,,,,,,,,,,,,,,,,,,,,,,,,,,,,,,,,,,,,,,,,,,,,,,,,,,,,,,,,,,,,,,,,,,,,,
,,,,1,2.1513,,,,,,41,broom,cactus,,89355,001,2022-04-21_13h21.31.192,SPAMnetsValid,2021.1.4,Win32,60.10699044,,,,,,,,,,,,,1,2.1513,0,3,3,46,1,,,,,,,,,,,,,,,,,,,,,,,,,,,,,,,,,,,,,,,,,,,,,,,,,,,,,,,,,,,,,,,,,,,,,,
,,,,7,5.1241,,,,,,20,rose,tree,,89355,001,2022-04-21_13h21.31.192,SPAMnetsValid,2021.1.4,Win32,60.10699044,,,,,,,,,,,,,7,5.1241,0,4,4,66,1,,,,,,,,,,,,,,,,,,,,,,,,,,,,,,,,,,,,,,,,,,,,,,,,,,,,,,,,,,,,,,,,,,,,,,
,,,,1,2.657,,,,,,31,cactus,pretzel,,89355,001,2022-04-21_13h21.31.192,SPAMnetsValid,2021.1.4,Win32,60.10699044,,,,,,,,,,,,,1,2.657,0,5,5,1,1,,,,,,,,,,,,,,,,,,,,,,,,,,,,,,,,,,,,,,,,,,,,,,,,,,,,,,,,,,,,,,,,,,,,,,
,,,,1,1.2761,,,,,,65,broom,garden,,89355,001,2022-04-21_13h21.31.192,SPAMnetsValid,2021.1.4,Win32,60.10699044,,,,,,,,,,,,,1,1.2761,0,6,6,23,1,,,,,,,,,,,,,,,,,,,,,,,,,,,,,,,,,,,,,,,,,,,,,,,,,,,,,,,,,,,,,,,,,,,,,,
,,,,8,1.647,,,,,,51,onion,strawberry,,89355,001,2022-04-21_13h21.31.192,SPAMnetsValid,2021.1.4,Win32,60.10699044,,,,,,,,,,,,,8,1.647,0,7,7,86,1,,,,,,,,,,,,,,,,,,,,,,,,,,,,,,,,,,,,,,,,,,,,,,,,,,,,,,,,,,,,,,,,,,,,,,
,,,,2,1.6808,,,,,,88,cactus,melon,,89355,001,2022-04-21_13h21.31.192,SPAMnetsValid,2021.1.4,Win32,60.10699044,,,,,,,,,,,,,2,1.6808,0,8,8,38,1,,,,,,,,,,,,,,,,,,,,,,,,,,,,,,,,,,,,,,,,,,,,,,,,,,,,,,,,,,,,,,,,,,,,,,
,,,,9,1.7029,,,,,,192,microwave,microwave,CHECK,89355,001,2022-04-21_13h21.31.192,SPAMnetsValid,2021.1.4,Win32,60.10699044,,,,,,,,,,,,,9,1.7029,0,9,9,53,1,,,,,,,,,,,,,,,,,,,,,,,,,,,,,,,,,,,,,,,,,,,,,,,,,,,,,,,,,,,,,,,,,,,,,,
,,,,8,1.6237,,,,,,61,strawberry,tomato,,89355,001,2022-04-21_13h21.31.192,SPAMnetsValid,2021.1.4,Win32,60.10699044,,,,,,,,,,,,,8,1.6237,0,10,10,80,1,,,,,,,,,,,,,,,,,,,,,,,,,,,,,,,,,,,,,,,,,,,,,,,,,,,,,,,,,,,,,,,,,,,,,,
,,,,7,1.6925,,,,,,91,microwave,rose,,89355,001,2022-04-21_13h21.31.192,SPAMnetsValid,2021.1.4,Win32,60.10699044,,,,,,,,,,,,,7,1.6925,0,11,11,84,1,,,,,,,,,,,,,,,,,,,,,,,,,,,,,,,,,,,,,,,,,,,,,,,,,,,,,,,,,,,,,,,,,,,,,,
,,,,7,1.1888,,,,,,23,flower,microwave,,89355,001,2022-04-21_13h21.31.192,SPAMnetsValid,2021.1.4,Win32,60.10699044,,,,,,,,,,,,,7,1.1888,0,12,12,25,1,,,,,,,,,,,,,,,,,,,,,,,,,,,,,,,,,,,,,,,,,,,,,,,,,,,,,,,,,,,,,,,,,,,,,,
,,,,9,1.4848,,,,,,76,garden,rose,,89355,001,2022-04-21_13h21.31.192,SPAMnetsValid,2021.1.4,Win32,60.10699044,,,,,,,,,,,,,9,1.4848,0,13,13,19,1,,,,,,,,,,,,,,,,,,,,,,,,,,,,,,,,,,,,,,,,,,,,,,,,,,,,,,,,,,,,,,,,,,,,,,
,,,,9,1.4433,,,,,,94,kitchen,microwave,,89355,001,2022-04-21_13h21.31.192,SPAMnetsValid,2021.1.4,Win32,60.10699044,,,,,,,,,,,,,9,1.4433,0,14,14,58,1,,,,,,,,,,,,,,,,,,,,,,,,,,,,,,,,,,,,,,,,,,,,,,,,,,,,,,,,,,,,,,,,,,,,,,
,,,,8,1.3721,,,,,,66,melon,yogurt,,89355,001,2022-04-21_13h21.31.192,SPAMnetsValid,2021.1.4,Win32,60.10699044,,,,,,,,,,,,,8,1.3721,0,15,15,48,1,,,,,,,,,,,,,,,,,,,,,,,,,,,,,,,,,,,,,,,,,,,,,,,,,,,,,,,,,,,,,,,,,,,,,,
,,,,5,3.1761,,,,,,95,broom,refrigerator,,89355,001,2022-04-21_13h21.31.192,SPAMnetsValid,2021.1.4,Win32,60.10699044,,,,,,,,,,,,,5,3.1761,0,16,16,90,1,,,,,,,,,,,,,,,,,,,,,,,,,,,,,,,,,,,,,,,,,,,,,,,,,,,,,,,,,,,,,,,,,,,,,,
,,,,8,1.8024,,,,,,47,onion,tomato,,89355,001,2022-04-21_13h21.31.192,SPAMnetsValid,2021.1.4,Win32,60.10699044,,,,,,,,,,,,,8,1.8024,0,17,17,51,1,,,,,,,,,,,,,,,,,,,,,,,,,,,,,,,,,,,,,,,,,,,,,,,,,,,,,,,,,,,,,,,,,,,,,,
,,,,6,3.4492,,,,,,57,flower,kitchen,,89355,001,2022-04-21_13h21.31.192,SPAMnetsValid,2021.1.4,Win32,60.10699044,,,,,,,,,,,,,6,3.4492,0,18,18,49,1,,,,,,,,,,,,,,,,,,,,,,,,,,,,,,,,,,,,,,,,,,,,,,,,,,,,,,,,,,,,,,,,,,,,,,
,,,,8,1.6044,,,,,,24,cookie,tomato,,89355,001,2022-04-21_13h21.31.192,SPAMnetsValid,2021.1.4,Win32,60.10699044,,,,,,,,,,,,,8,1.6044,0,19,19,68,1,,,,,,,,,,,,,,,,,,,,,,,,,,,,,,,,,,,,,,,,,,,,,,,,,,,,,,,,,,,,,,,,,,,,,,
,,,,1,3.0227,,,,,,35,flower,pretzel,,89355,001,2022-04-21_13h21.31.192,SPAMnetsValid,2021.1.4,Win32,60.10699044,,,,,,,,,,,,,1,3.0227,0,20,20,26,1,,,,,,,,,,,,,,,,,,,,,,,,,,,,,,,,,,,,,,,,,,,,,,,,,,,,,,,,,,,,,,,,,,,,,,
,,,,1,4.3639,,,,,,74,broom,pretzel,,89355,001,2022-04-21_13h21.31.192,SPAMnetsValid,2021.1.4,Win32,60.10699044,,,,,,,,,,,,,1,4.3639,0,21,21,40,1,,,,,,,,,,,,,,,,,,,,,,,,,,,,,,,,,,,,,,,,,,,,,,,,,,,,,,,,,,,,,,,,,,,,,,
,,,,6,3.7201,,,,,,56,cactus,tree,,89355,001,2022-04-21_13h21.31.192,SPAMnetsValid,2021.1.4,Win32,60.10699044,,,,,,,,,,,,,6,3.7201,0,22,22,21,1,,,,,,,,,,,,,,,,,,,,,,,,,,,,,,,,,,,,,,,,,,,,,,,,,,,,,,,,,,,,,,,,,,,,,,
,,,,1,2.1905,,,,,,8,broom,melon,,89355,001,2022-04-21_13h21.31.192,SPAMnetsValid,2021.1.4,Win32,60.10699044,,,,,,,,,,,,,1,2.1905,0,23,23,59,1,,,,,,,,,,,,,,,,,,,,,,,,,,,,,,,,,,,,,,,,,,,,,,,,,,,,,,,,,,,,,,,,,,,,,,
,,,,7,2.3026,,,,,,50,carrot,rose,,89355,001,2022-04-21_13h21.31.192,SPAMnetsValid,2021.1.4,Win32,60.10699044,,,,,,,,,,,,,7,2.3026,0,24,24,73,1,,,,,,,,,,,,,,,,,,,,,,,,,,,,,,,,,,,,,,,,,,,,,,,,,,,,,,,,,,,,,,,,,,,,,,
,,,,8,1.9034,,,,,,68,flower,tomato,,89355,001,2022-04-21_13h21.31.192,SPAMnetsValid,2021.1.4,Win32,60.10699044,,,,,,,,,,,,,8,1.9034,0,25,25,94,1,,,,,,,,,,,,,,,,,,,,,,,,,,,,,,,,,,,,,,,,,,,,,,,,,,,,,,,,,,,,,,,,,,,,,,
,,,,9,1.618,,,,,,3,cake,oven,,89355,001,2022-04-21_13h21.31.192,SPAMnetsValid,2021.1.4,Win32,60.10699044,,,,,,,,,,,,,9,1.618,0,26,26,30,1,,,,,,,,,,,,,,,,,,,,,,,,,,,,,,,,,,,,,,,,,,,,,,,,,,,,,,,,,,,,,,,,,,,,,,
,,,,1,1.8027,,,,,,40,broom,cake,,89355,001,2022-04-21_13h21.31.192,SPAMnetsValid,2021.1.4,Win32,60.10699044,,,,,,,,,,,,,1,1.8027,0,27,27,32,1,,,,,,,,,,,,,,,,,,,,,,,,,,,,,,,,,,,,,,,,,,,,,,,,,,,,,,,,,,,,,,,,,,,,,,
,,,,8,1.902,,,,,,25,carrot,onion,,89355,001,2022-04-21_13h21.31.192,SPAMnetsValid,2021.1.4,Win32,60.10699044,,,,,,,,,,,,,8,1.902,0,28,28,44,1,,,,,,,,,,,,,,,,,,,,,,,,,,,,,,,,,,,,,,,,,,,,,,,,,,,,,,,,,,,,,,,,,,,,,,
,,,,8,2.088,,,,,,34,melon,oven,,89355,001,2022-04-21_13h21.31.192,SPAMnetsValid,2021.1.4,Win32,60.10699044,,,,,,,,,,,,,8,2.088,0,29,29,7,1,,,,,,,,,,,,,,,,,,,,,,,,,,,,,,,,,,,,,,,,,,,,,,,,,,,,,,,,,,,,,,,,,,,,,,
,,,,8,2.591,,,,,,19,microwave,pretzel,,89355,001,2022-04-21_13h21.31.192,SPAMnetsValid,2021.1.4,Win32,60.10699044,,,,,,,,,,,,,8,2.591,0,30,30,41,1,,,,,,,,,,,,,,,,,,,,,,,,,,,,,,,,,,,,,,,,,,,,,,,,,,,,,,,,,,,,,,,,,,,,,,
,,,,8,1.6501,,,,,,15,onion,oven,,89355,001,2022-04-21_13h21.31.192,SPAMnetsValid,2021.1.4,Win32,60.10699044,,,,,,,,,,,,,8,1.6501,0,31,31,39,1,,,,,,,,,,,,,,,,,,,,,,,,,,,,,,,,,,,,,,,,,,,,,,,,,,,,,,,,,,,,,,,,,,,,,,
,,,,8,1.0081,,,,,,12,cookie,yogurt,,89355,001,2022-04-21_13h21.31.192,SPAMnetsValid,2021.1.4,Win32,60.10699044,,,,,,,,,,,,,8,1.0081,0,32,32,36,1,,,,,,,,,,,,,,,,,,,,,,,,,,,,,,,,,,,,,,,,,,,,,,,,,,,,,,,,,,,,,,,,,,,,,,
,,,,8,1.4563,,,,,,4,chocolate,pretzel,,89355,001,2022-04-21_13h21.31.192,SPAMnetsValid,2021.1.4,Win32,60.10699044,,,,,,,,,,,,,8,1.4563,0,33,33,52,1,,,,,,,,,,,,,,,,,,,,,,,,,,,,,,,,,,,,,,,,,,,,,,,,,,,,,,,,,,,,,,,,,,,,,,
,,,,8,0.7971,,,,,,75,cookie,onion,,89355,001,2022-04-21_13h21.31.192,SPAMnetsValid,2021.1.4,Win32,60.10699044,,,,,,,,,,,,,8,0.7971,0,34,34,9,1,,,,,,,,,,,,,,,,,,,,,,,,,,,,,,,,,,,,,,,,,,,,,,,,,,,,,,,,,,,,,,,,,,,,,,
,,,,8,1.0534,,,,,,10,flower,onion,,89355,001,2022-04-21_13h21.31.192,SPAMnetsValid,2021.1.4,Win32,60.10699044,,,,,,,,,,,,,8,1.0534,0,35,35,45,1,,,,,,,,,,,,,,,,,,,,,,,,,,,,,,,,,,,,,,,,,,,,,,,,,,,,,,,,,,,,,,,,,,,,,,
,,,,8,0.878,,,,,,81,pretzel,yogurt,,89355,001,2022-04-21_13h21.31.192,SPAMnetsValid,2021.1.4,Win32,60.10699044,,,,,,,,,,,,,8,0.878,0,36,36,50,1,,,,,,,,,,,,,,,,,,,,,,,,,,,,,,,,,,,,,,,,,,,,,,,,,,,,,,,,,,,,,,,,,,,,,,
,,,,1,2.4184,,,,,,90,cactus,cake,,89355,001,2022-04-21_13h21.31.192,SPAMnetsValid,2021.1.4,Win32,60.10699044,,,,,,,,,,,,,1,2.4184,0,37,37,85,1,,,,,,,,,,,,,,,,,,,,,,,,,,,,,,,,,,,,,,,,,,,,,,,,,,,,,,,,,,,,,,,,,,,,,,
,,,,9,1.2922,,,,,,191,cake,cake,CHECK,89355,001,2022-04-21_13h21.31.192,SPAMnetsValid,2021.1.4,Win32,60.10699044,,,,,,,,,,,,,9,1.2922,0,38,38,10,1,,,,,,,,,,,,,,,,,,,,,,,,,,,,,,,,,,,,,,,,,,,,,,,,,,,,,,,,,,,,,,,,,,,,,,
,,,,2,2.0859,,,,,,27,cactus,cookie,,89355,001,2022-04-21_13h21.31.192,SPAMnetsValid,2021.1.4,Win32,60.10699044,,,,,,,,,,,,,2,2.0859,0,39,39,17,1,,,,,,,,,,,,,,,,,,,,,,,,,,,,,,,,,,,,,,,,,,,,,,,,,,,,,,,,,,,,,,,,,,,,,,
,,,,1,2.97,,,,,,11,refrigerator,tree,,89355,001,2022-04-21_13h21.31.192,SPAMnetsValid,2021.1.4,Win32,60.10699044,,,,,,,,,,,,,1,2.97,0,40,40,43,1,,,,,,,,,,,,,,,,,,,,,,,,,,,,,,,,,,,,,,,,,,,,,,,,,,,,,,,,,,,,,,,,,,,,,,
,,,,3,2.938,,,,,,53,garden,pretzel,,89355,001,2022-04-21_13h21.31.192,SPAMnetsValid,2021.1.4,Win32,60.10699044,,,,,,,,,,,,,3,2.938,0,41,41,0,1,,,,,,,,,,,,,,,,,,,,,,,,,,,,,,,,,,,,,,,,,,,,,,,,,,,,,,,,,,,,,,,,,,,,,,
,,,,6,2.0858,,,,,,59,rose,strawberry,,89355,001,2022-04-21_13h21.31.192,SPAMnetsValid,2021.1.4,Win32,60.10699044,,,,,,,,,,,,,6,2.0858,0,42,42,72,1,,,,,,,,,,,,,,,,,,,,,,,,,,,,,,,,,,,,,,,,,,,,,,,,,,,,,,,,,,,,,,,,,,,,,,
,,,,8,2.1916,,,,,,79,garden,strawberry,,89355,001,2022-04-21_13h21.31.192,SPAMnetsValid,2021.1.4,Win32,60.10699044,,,,,,,,,,,,,8,2.1916,0,43,43,87,1,,,,,,,,,,,,,,,,,,,,,,,,,,,,,,,,,,,,,,,,,,,,,,,,,,,,,,,,,,,,,,,,,,,,,,
,,,,8,1.0482,,,,,,29,chocolate,melon,,89355,001,2022-04-21_13h21.31.192,SPAMnetsValid,2021.1.4,Win32,60.10699044,,,,,,,,,,,,,8,1.0482,0,44,44,34,1,,,,,,,,,,,,,,,,,,,,,,,,,,,,,,,,,,,,,,,,,,,,,,,,,,,,,,,,,,,,,,,,,,,,,,
,,,,8,0.7386,,,,,,54,chocolate,yogurt,,89355,001,2022-04-21_13h21.31.192,SPAMnetsValid,2021.1.4,Win32,60.10699044,,,,,,,,,,,,,8,0.7386,0,45,45,67,1,,,,,,,,,,,,,,,,,,,,,,,,,,,,,,,,,,,,,,,,,,,,,,,,,,,,,,,,,,,,,,,,,,,,,,
,,,,7,1.8526,,,,,,1,rose,yogurt,,89355,001,2022-04-21_13h21.31.192,SPAMnetsValid,2021.1.4,Win32,60.10699044,,,,,,,,,,,,,7,1.8526,0,46,46,55,1,,,,,,,,,,,,,,,,,,,,,,,,,,,,,,,,,,,,,,,,,,,,,,,,,,,,,,,,,,,,,,,,,,,,,,
,,,,8,1.3348,,,,,,63,cake,cookie,,89355,001,2022-04-21_13h21.31.192,SPAMnetsValid,2021.1.4,Win32,60.10699044,,,,,,,,,,,,,8,1.3348,0,47,47,93,1,,,,,,,,,,,,,,,,,,,,,,,,,,,,,,,,,,,,,,,,,,,,,,,,,,,,,,,,,,,,,,,,,,,,,,
,,,,2,2.4762,,,,,,5,oven,tree,,89355,001,2022-04-21_13h21.31.192,SPAMnetsValid,2021.1.4,Win32,60.10699044,,,,,,,,,,,,,2,2.4762,0,48,48,70,1,,,,,,,,,,,,,,,,,,,,,,,,,,,,,,,,,,,,,,,,,,,,,,,,,,,,,,,,,,,,,,,,,,,,,,
,,,,8,2.0199,,,,,,36,broom,kitchen,,89355,001,2022-04-21_13h21.31.192,SPAMnetsValid,2021.1.4,Win32,60.10699044,,,,,,,,,,,,,8,2.0199,0,49,49,76,1,,,,,,,,,,,,,,,,,,,,,,,,,,,,,,,,,,,,,,,,,,,,,,,,,,,,,,,,,,,,,,,,,,,,,,
,,,,8,1.2692,,,,,,84,oven,tomato,,89355,001,2022-04-21_13h21.31.192,SPAMnetsValid,2021.1.4,Win32,60.10699044,,,,,,,,,,,,,8,1.2692,0,50,50,28,1,,,,,,,,,,,,,,,,,,,,,,,,,,,,,,,,,,,,,,,,,,,,,,,,,,,,,,,,,,,,,,,,,,,,,,
,,,,2,3.4279,,,,,,58,garden,oven,,89355,001,2022-04-21_13h21.31.192,SPAMnetsValid,2021.1.4,Win32,60.10699044,,,,,,,,,,,,,2,3.4279,0,51,51,37,1,,,,,,,,,,,,,,,,,,,,,,,,,,,,,,,,,,,,,,,,,,,,,,,,,,,,,,,,,,,,,,,,,,,,,,
,,,,8,1.4584,,,,,,28,cake,melon,,89355,001,2022-04-21_13h21.31.192,SPAMnetsValid,2021.1.4,Win32,60.10699044,,,,,,,,,,,,,8,1.4584,0,52,52,54,1,,,,,,,,,,,,,,,,,,,,,,,,,,,,,,,,,,,,,,,,,,,,,,,,,,,,,,,,,,,,,,,,,,,,,,
,,,,8,0.7373,,,,,,52,carrot,tomato,,89355,001,2022-04-21_13h21.31.192,SPAMnetsValid,2021.1.4,Win32,60.10699044,,,,,,,,,,,,,8,0.7373,0,53,53,95,1,,,,,,,,,,,,,,,,,,,,,,,,,,,,,,,,,,,,,,,,,,,,,,,,,,,,,,,,,,,,,,,,,,,,,,
,,,,1,1.8636,,,,,,83,broom,carrot,,89355,001,2022-04-21_13h21.31.192,SPAMnetsValid,2021.1.4,Win32,60.10699044,,,,,,,,,,,,,1,1.8636,0,54,54,4,1,,,,,,,,,,,,,,,,,,,,,,,,,,,,,,,,,,,,,,,,,,,,,,,,,,,,,,,,,,,,,,,,,,,,,,
,,,,3,3.3461,,,,,,89,chocolate,rose,,89355,001,2022-04-21_13h21.31.192,SPAMnetsValid,2021.1.4,Win32,60.10699044,,,,,,,,,,,,,3,3.3461,0,55,55,60,1,,,,,,,,,,,,,,,,,,,,,,,,,,,,,,,,,,,,,,,,,,,,,,,,,,,,,,,,,,,,,,,,,,,,,,
,,,,8,1.7362,,,,,,18,onion,refrigerator,,89355,001,2022-04-21_13h21.31.192,SPAMnetsValid,2021.1.4,Win32,60.10699044,,,,,,,,,,,,,8,1.7362,0,56,56,62,1,,,,,,,,,,,,,,,,,,,,,,,,,,,,,,,,,,,,,,,,,,,,,,,,,,,,,,,,,,,,,,,,,,,,,,
,,,,2,2.1362,,,,,,42,garden,kitchen,,89355,001,2022-04-21_13h21.31.192,SPAMnetsValid,2021.1.4,Win32,60.10699044,,,,,,,,,,,,,2,2.1362,0,57,57,29,1,,,,,,,,,,,,,,,,,,,,,,,,,,,,,,,,,,,,,,,,,,,,,,,,,,,,,,,,,,,,,,,,,,,,,,
,,,,3,2.0029,,,,,,67,flower,yogurt,,89355,001,2022-04-21_13h21.31.192,SPAMnetsValid,2021.1.4,Win32,60.10699044,,,,,,,,,,,,,3,2.0029,0,58,58,12,1,,,,,,,,,,,,,,,,,,,,,,,,,,,,,,,,,,,,,,,,,,,,,,,,,,,,,,,,,,,,,,,,,,,,,,
,,,,8,3.7474,,,,,,70,chocolate,onion,,89355,001,2022-04-21_13h21.31.192,SPAMnetsValid,2021.1.4,Win32,60.10699044,,,,,,,,,,,,,8,3.7474,0,59,59,74,1,,,,,,,,,,,,,,,,,,,,,,,,,,,,,,,,,,,,,,,,,,,,,,,,,,,,,,,,,,,,,,,,,,,,,,
,,,,2,2.7974,,,,,,86,oven,rose,,89355,001,2022-04-21_13h21.31.192,SPAMnetsValid,2021.1.4,Win32,60.10699044,,,,,,,,,,,,,2,2.7974,0,60,60,79,1,,,,,,,,,,,,,,,,,,,,,,,,,,,,,,,,,,,,,,,,,,,,,,,,,,,,,,,,,,,,,,,,,,,,,,
,,,,1,1.3895,,,,,,78,cookie,rose,,89355,001,2022-04-21_13h21.31.192,SPAMnetsValid,2021.1.4,Win32,60.10699044,,,,,,,,,,,,,1,1.3895,0,61,61,56,1,,,,,,,,,,,,,,,,,,,,,,,,,,,,,,,,,,,,,,,,,,,,,,,,,,,,,,,,,,,,,,,,,,,,,,
,,,,7,3.335,,,,,,7,melon,tree,,89355,001,2022-04-21_13h21.31.192,SPAMnetsValid,2021.1.4,Win32,60.10699044,,,,,,,,,,,,,7,3.335,0,62,62,77,1,,,,,,,,,,,,,,,,,,,,,,,,,,,,,,,,,,,,,,,,,,,,,,,,,,,,,,,,,,,,,,,,,,,,,,
,,,,8,1.837,,,,,,2,kitchen,onion,,89355,001,2022-04-21_13h21.31.192,SPAMnetsValid,2021.1.4,Win32,60.10699044,,,,,,,,,,,,,8,1.837,0,63,63,91,1,,,,,,,,,,,,,,,,,,,,,,,,,,,,,,,,,,,,,,,,,,,,,,,,,,,,,,,,,,,,,,,,,,,,,,
,,,,8,0.9459,,,,,,44,cookie,melon,,89355,001,2022-04-21_13h21.31.192,SPAMnetsValid,2021.1.4,Win32,60.10699044,,,,,,,,,,,,,8,0.9459,0,64,64,92,1,,,,,,,,,,,,,,,,,,,,,,,,,,,,,,,,,,,,,,,,,,,,,,,,,,,,,,,,,,,,,,,,,,,,,,
,,,,2,2.4353,,,,,,73,broom,chocolate,,89355,001,2022-04-21_13h21.31.192,SPAMnetsValid,2021.1.4,Win32,60.10699044,,,,,,,,,,,,,2,2.4353,0,65,65,47,1,,,,,,,,,,,,,,,,,,,,,,,,,,,,,,,,,,,,,,,,,,,,,,,,,,,,,,,,,,,,,,,,,,,,,,
,,,,8,1.8193,,,,,,17,carrot,melon,,89355,001,2022-04-21_13h21.31.192,SPAMnetsValid,2021.1.4,Win32,60.10699044,,,,,,,,,,,,,8,1.8193,0,66,66,24,1,,,,,,,,,,,,,,,,,,,,,,,,,,,,,,,,,,,,,,,,,,,,,,,,,,,,,,,,,,,,,,,,,,,,,,
,,,,1,2.3358,,,,,,38,pretzel,refrigerator,,89355,001,2022-04-21_13h21.31.192,SPAMnetsValid,2021.1.4,Win32,60.10699044,,,,,,,,,,,,,1,2.3358,0,67,67,71,1,,,,,,,,,,,,,,,,,,,,,,,,,,,,,,,,,,,,,,,,,,,,,,,,,,,,,,,,,,,,,,,,,,,,,,
,,,,8,1.1875,,,,,,21,cake,onion,,89355,001,2022-04-21_13h21.31.192,SPAMnetsValid,2021.1.4,Win32,60.10699044,,,,,,,,,,,,,8,1.1875,0,68,68,63,1,,,,,,,,,,,,,,,,,,,,,,,,,,,,,,,,,,,,,,,,,,,,,,,,,,,,,,,,,,,,,,,,,,,,,,
,,,,1,2.212,,,,,,77,refrigerator,yogurt,,89355,001,2022-04-21_13h21.31.192,SPAMnetsValid,2021.1.4,Win32,60.10699044,,,,,,,,,,,,,1,2.212,0,69,69,42,1,,,,,,,,,,,,,,,,,,,,,,,,,,,,,,,,,,,,,,,,,,,,,,,,,,,,,,,,,,,,,,,,,,,,,,
,,,,7,3.0214,,,,,,82,cake,kitchen,,89355,001,2022-04-21_13h21.31.192,SPAMnetsValid,2021.1.4,Win32,60.10699044,,,,,,,,,,,,,7,3.0214,0,70,70,96,1,,,,,,,,,,,,,,,,,,,,,,,,,,,,,,,,,,,,,,,,,,,,,,,,,,,,,,,,,,,,,,,,,,,,,,
,,,,1,2.5902,,,,,,37,garden,refrigerator,,89355,001,2022-04-21_13h21.31.192,SPAMnetsValid,2021.1.4,Win32,60.10699044,,,,,,,,,,,,,1,2.5902,0,71,71,11,1,,,,,,,,,,,,,,,,,,,,,,,,,,,,,,,,,,,,,,,,,,,,,,,,,,,,,,,,,,,,,,,,,,,,,,
,,,,4,2.7361,,,,,,49,flower,strawberry,,89355,001,2022-04-21_13h21.31.192,SPAMnetsValid,2021.1.4,Win32,60.10699044,,,,,,,,,,,,,4,2.7361,0,72,72,3,1,,,,,,,,,,,,,,,,,,,,,,,,,,,,,,,,,,,,,,,,,,,,,,,,,,,,,,,,,,,,,,,,,,,,,,
,,,,6,5.0022,,,,,,22,kitchen,strawberry,,89355,001,2022-04-21_13h21.31.192,SPAMnetsValid,2021.1.4,Win32,60.10699044,,,,,,,,,,,,,6,5.0022,0,73,73,2,1,,,,,,,,,,,,,,,,,,,,,,,,,,,,,,,,,,,,,,,,,,,,,,,,,,,,,,,,,,,,,,,,,,,,,,
,,,,5,4.4254,,,,,,60,cactus,onion,,89355,001,2022-04-21_13h21.31.192,SPAMnetsValid,2021.1.4,Win32,60.10699044,,,,,,,,,,,,,5,4.4254,0,74,74,81,1,,,,,,,,,,,,,,,,,,,,,,,,,,,,,,,,,,,,,,,,,,,,,,,,,,,,,,,,,,,,,,,,,,,,,,
,,,,9,1.6812,,,,,,6,garden,onion,,89355,001,2022-04-21_13h21.31.192,SPAMnetsValid,2021.1.4,Win32,60.10699044,,,,,,,,,,,,,9,1.6812,0,75,75,83,1,,,,,,,,,,,,,,,,,,,,,,,,,,,,,,,,,,,,,,,,,,,,,,,,,,,,,,,,,,,,,,,,,,,,,,
,,,,9,1.7313,,,,,,9,kitchen,refrigerator,,89355,001,2022-04-21_13h21.31.192,SPAMnetsValid,2021.1.4,Win32,60.10699044,,,,,,,,,,,,,9,1.7313,0,76,76,64,1,,,,,,,,,,,,,,,,,,,,,,,,,,,,,,,,,,,,,,,,,,,,,,,,,,,,,,,,,,,,,,,,,,,,,,
,,,,7,2.4804,,,,,,55,tomato,tree,,89355,001,2022-04-21_13h21.31.192,SPAMnetsValid,2021.1.4,Win32,60.10699044,,,,,,,,,,,,,7,2.4804,0,77,77,35,1,,,,,,,,,,,,,,,,,,,,,,,,,,,,,,,,,,,,,,,,,,,,,,,,,,,,,,,,,,,,,,,,,,,,,,
,,,,5,2.8015,,,,,,64,chocolate,garden,,89355,001,2022-04-21_13h21.31.192,SPAMnetsValid,2021.1.4,Win32,60.10699044,,,,,,,,,,,,,5,2.8015,0,78,78,14,1,,,,,,,,,,,,,,,,,,,,,,,,,,,,,,,,,,,,,,,,,,,,,,,,,,,,,,,,,,,,,,,,,,,,,,
,,,,1,2.6257,,,,,,13,broom,yogurt,,89355,001,2022-04-21_13h21.31.192,SPAMnetsValid,2021.1.4,Win32,60.10699044,,,,,,,,,,,,,1,2.6257,0,79,79,5,1,,,,,,,,,,,,,,,,,,,,,,,,,,,,,,,,,,,,,,,,,,,,,,,,,,,,,,,,,,,,,,,,,,,,,,
,,,,1,1.72,,,,,,71,broom,rose,,89355,001,2022-04-21_13h21.31.192,SPAMnetsValid,2021.1.4,Win32,60.10699044,,,,,,,,,,,,,1,1.72,0,80,80,61,1,,,,,,,,,,,,,,,,,,,,,,,,,,,,,,,,,,,,,,,,,,,,,,,,,,,,,,,,,,,,,,,,,,,,,,
,,,,8,1.5527,,,,,,43,chocolate,tomato,,89355,001,2022-04-21_13h21.31.192,SPAMnetsValid,2021.1.4,Win32,60.10699044,,,,,,,,,,,,,8,1.5527,0,81,81,8,1,,,,,,,,,,,,,,,,,,,,,,,,,,,,,,,,,,,,,,,,,,,,,,,,,,,,,,,,,,,,,,,,,,,,,,
,,,,1,2.4571,,,,,,85,cake,tree,,89355,001,2022-04-21_13h21.31.192,SPAMnetsValid,2021.1.4,Win32,60.10699044,,,,,,,,,,,,,1,2.4571,0,82,82,18,1,,,,,,,,,,,,,,,,,,,,,,,,,,,,,,,,,,,,,,,,,,,,,,,,,,,,,,,,,,,,,,,,,,,,,,
,,,,8,1.8748,,,,,,30,cookie,pretzel,,89355,001,2022-04-21_13h21.31.192,SPAMnetsValid,2021.1.4,Win32,60.10699044,,,,,,,,,,,,,8,1.8748,0,83,83,78,1,,,,,,,,,,,,,,,,,,,,,,,,,,,,,,,,,,,,,,,,,,,,,,,,,,,,,,,,,,,,,,,,,,,,,,
,,,,2,1.718,,,,,,72,broom,onion,,89355,001,2022-04-21_13h21.31.192,SPAMnetsValid,2021.1.4,Win32,60.10699044,,,,,,,,,,,,,2,1.718,0,84,84,27,1,,,,,,,,,,,,,,,,,,,,,,,,,,,,,,,,,,,,,,,,,,,,,,,,,,,,,,,,,,,,,,,,,,,,,,
,,,,2,2.3308,,,,,,48,flower,oven,,89355,001,2022-04-21_13h21.31.192,SPAMnetsValid,2021.1.4,Win32,60.10699044,,,,,,,,,,,,,2,2.3308,0,85,85,15,1,,,,,,,,,,,,,,,,,,,,,,,,,,,,,,,,,,,,,,,,,,,,,,,,,,,,,,,,,,,,,,,,,,,,,,
,,,,8,2.6818,,,,,,87,carrot,yogurt,,89355,001,2022-04-21_13h21.31.192,SPAMnetsValid,2021.1.4,Win32,60.10699044,,,,,,,,,,,,,8,2.6818,0,86,86,6,1,,,,,,,,,,,,,,,,,,,,,,,,,,,,,,,,,,,,,,,,,,,,,,,,,,,,,,,,,,,,,,,,,,,,,,
,,,,9,2.6188,,,,,,93,kitchen,oven,,89355,001,2022-04-21_13h21.31.192,SPAMnetsValid,2021.1.4,Win32,60.10699044,,,,,,,,,,,,,9,2.6188,0,87,87,82,1,,,,,,,,,,,,,,,,,,,,,,,,,,,,,,,,,,,,,,,,,,,,,,,,,,,,,,,,,,,,,,,,,,,,,,
,,,,7,1.4537,,,,,,32,cake,microwave,,89355,001,2022-04-21_13h21.31.192,SPAMnetsValid,2021.1.4,Win32,60.10699044,,,,,,,,,,,,,7,1.4537,0,88,88,33,1,,,,,,,,,,,,,,,,,,,,,,,,,,,,,,,,,,,,,,,,,,,,,,,,,,,,,,,,,,,,,,,,,,,,,,
,,,,8,1.7503,,,,,,45,onion,pretzel,,89355,001,2022-04-21_13h21.31.192,SPAMnetsValid,2021.1.4,Win32,60.10699044,,,,,,,,,,,,,8,1.7503,0,89,89,69,1,,,,,,,,,,,,,,,,,,,,,,,,,,,,,,,,,,,,,,,,,,,,,,,,,,,,,,,,,,,,,,,,,,,,,,
,,,,8,3.4696,,,,,,69,carrot,refrigerator,,89355,001,2022-04-21_13h21.31.192,SPAMnetsValid,2021.1.4,Win32,60.10699044,,,,,,,,,,,,,8,3.4696,0,90,90,75,1,,,,,,,,,,,,,,,,,,,,,,,,,,,,,,,,,,,,,,,,,,,,,,,,,,,,,,,,,,,,,,,,,,,,,,
,,,,2,2.3035,,,,,,62,kitchen,rose,,89355,001,2022-04-21_13h21.31.192,SPAMnetsValid,2021.1.4,Win32,60.10699044,,,,,,,,,,,,,2,2.3035,0,91,91,57,1,,,,,,,,,,,,,,,,,,,,,,,,,,,,,,,,,,,,,,,,,,,,,,,,,,,,,,,,,,,,,,,,,,,,,,
,,,,6,3.4685,,,,,,46,garden,yogurt,,89355,001,2022-04-21_13h21.31.192,SPAMnetsValid,2021.1.4,Win32,60.10699044,,,,,,,,,,,,,6,3.4685,0,92,92,65,1,,,,,,,,,,,,,,,,,,,,,,,,,,,,,,,,,,,,,,,,,,,,,,,,,,,,,,,,,,,,,,,,,,,,,,
,,,,2,2.5771,,,,,,80,chocolate,tree,,89355,001,2022-04-21_13h21.31.192,SPAMnetsValid,2021.1.4,Win32,60.10699044,,,,,,,,,,,,,2,2.5771,0,93,93,89,1,,,,,,,,,,,,,,,,,,,,,,,,,,,,,,,,,,,,,,,,,,,,,,,,,,,,,,,,,,,,,,,,,,,,,,
,,,,7,2.5411,,,,,,33,oven,yogurt,,89355,001,2022-04-21_13h21.31.192,SPAMnetsValid,2021.1.4,Win32,60.10699044,,,,,,,,,,,,,7,2.5411,0,94,94,31,1,,,,,,,,,,,,,,,,,,,,,,,,,,,,,,,,,,,,,,,,,,,,,,,,,,,,,,,,,,,,,,,,,,,,,,
,,,,8,1.0938,,,,,,26,tomato,yogurt,,89355,001,2022-04-21_13h21.31.192,SPAMnetsValid,2021.1.4,Win32,60.10699044,,,,,,,,,,,,,8,1.0938,0,95,95,13,1,,,,,,,,,,,,,,,,,,,,,,,,,,,,,,,,,,,,,,,,,,,,,,,,,,,,,,,,,,,,,,,,,,,,,,
,,,,1,3.174,,,,,,14,broom,cookie,,89355,001,2022-04-21_13h21.31.192,SPAMnetsValid,2021.1.4,Win32,60.10699044,,,,,,,,,,,,,1,3.174,0,96,96,16,1,,,,,,,,,,,,,,,,,,,,,,,,,,,,,,,,,,,,,,,,,,,,,,,,,,,,,,,,,,,,,,,,,,,,,,
,,,,,,,,,,,,,,,89355,001,2022-04-21_13h21.31.192,SPAMnetsValid,2021.1.4,Win32,60.10699044,,,,,,,,,,,,,,,,,,,,0,0,0,0,1,,,,,,,,,,,,,,,,,,,,,,,,,,,,,,,,,,,,,,,,,,,,,,,,,,,,,,,,,,,,,,,,,
,,,,,,,,,,,,,,,89355,001,2022-04-21_13h21.31.192,SPAMnetsValid,2021.1.4,Win32,60.10699044,,,,,,0,1,1,0,1,1,0,,,,,,,,,,,,,,,,,,,,,,,,,,,,,,,,,,,,,,,,,,,,,,,,,,,,,,,,,,,,,,,,,,,,,,,,,,,,,
,,,,,,,,,,,,,,,89355,001,2022-04-21_13h21.31.192,SPAMnetsValid,2021.1.4,Win32,60.10699044,,,,,,,,,,,,,,,,,,,,,,,,,3,5.4292,0,0,0,0,1,rancor,forbearance,ridicule,malice,bravery,3,,,,,,,,,,,,,,,,,,,,,,,,,,,,,,,,,,,,,,,,,,,,,,,,,,,,
,,,,,,,,,,,,,,,89355,001,2022-04-21_13h21.31.192,SPAMnetsValid,2021.1.4,Win32,60.10699044,,,,,,,,,,,,,,,,,,,,,,,,,4,3.0743,0,1,1,1,1,raucous,empty,quiet,smooth,harsh,4,,,,,,,,,,,,,,,,,,,,,,,,,,,,,,,,,,,,,,,,,,,,,,,,,,,,
,,,,,,,,,,,,,,,89355,001,2022-04-21_13h21.31.192,SPAMnetsValid,2021.1.4,Win32,60.10699044,,,,,,,,,,,,,,,,,,,,,,,,,3,2.3543,0,2,2,2,1,gargoyle,oil,medicine,carved waterspout,ugly building,3,,,,,,,,,,,,,,,,,,,,,,,,,,,,,,,,,,,,,,,,,,,,,,,,,,,,
,,,,,,,,,,,,,,,89355,001,2022-04-21_13h21.31.192,SPAMnetsValid,2021.1.4,Win32,60.10699044,,,,,,,,,,,,,,,,,,,,,,,,,3,5.469,0,3,3,3,1,recrudesce,purify,renew activity,lack refinement,crush,2,,,,,,,,,,,,,,,,,,,,,,,,,,,,,,,,,,,,,,,,,,,,,,,,,,,,
,,,,,,,,,,,,,,,89355,001,2022-04-21_13h21.31.192,SPAMnetsValid,2021.1.4,Win32,60.10699044,,,,,,,,,,,,,,,,,,,,,,,,,3,7.42,0,4,4,4,1,specious,"plausible, but not genuine",noteworthy,class or variety,roomy,1,,,,,,,,,,,,,,,,,,,,,,,,,,,,,,,,,,,,,,,,,,,,,,,,,,,,
,,,,,,,,,,,,,,,89355,001,2022-04-21_13h21.31.192,SPAMnetsValid,2021.1.4,Win32,60.10699044,,,,,,,,,,,,,,,,,,,,,,,,,3,6.0263,0,5,5,5,1,bauble,bubble,showy plaything,idle talk,confusion,2,,,,,,,,,,,,,,,,,,,,,,,,,,,,,,,,,,,,,,,,,,,,,,,,,,,,
,,,,,,,,,,,,,,,89355,001,2022-04-21_13h21.31.192,SPAMnetsValid,2021.1.4,Win32,60.10699044,,,,,,,,,,,,,,,,,,,,,,,,,2,3.0056,0,6,6,6,1,prolific,scarce,producing abundantly,reckless,speaking profanely,2,,,,,,,,,,,,,,,,,,,,,,,,,,,,,,,,,,,,,,,,,,,,,,,,,,,,
,,,,,,,,,,,,,,,89355,001,2022-04-21_13h21.31.192,SPAMnetsValid,2021.1.4,Win32,60.10699044,,,,,,,,,,,,,,,,,,,,,,,,,2,1.5136,0,7,7,7,1,opulent,party,wealthy,happy frame of mind,semiprecious stone,2,,,,,,,,,,,,,,,,,,,,,,,,,,,,,,,,,,,,,,,,,,,,,,,,,,,,
,,,,,,,,,,,,,,,89355,001,2022-04-21_13h21.31.192,SPAMnetsValid,2021.1.4,Win32,60.10699044,,,,,,,,,,,,,,,,,,,,,,,,,1,2.2751,0,8,8,8,1,coercion,conspiracy,strategy,restraint,attraction,3,,,,,,,,,,,,,,,,,,,,,,,,,,,,,,,,,,,,,,,,,,,,,,,,,,,,
,,,,,,,,,,,,,,,89355,001,2022-04-21_13h21.31.192,SPAMnetsValid,2021.1.4,Win32,60.10699044,,,,,,,,,,,,,,,,,,,,,,,,,4,2.8277,0,9,9,9,1,hiatus,animal,calamity,dread,gap,4,,,,,,,,,,,,,,,,,,,,,,,,,,,,,,,,,,,,,,,,,,,,,,,,,,,,
,,,,,,,,,,,,,,,89355,001,2022-04-21_13h21.31.192,SPAMnetsValid,2021.1.4,Win32,60.10699044,,,,,,,,,,,,,,,,,,,,,,,,,4,20.4647,0,10,10,10,1,germane,microbe,contagious,relevant,different,3,,,,,,,,,,,,,,,,,,,,,,,,,,,,,,,,,,,,,,,,,,,,,,,,,,,,
,,,,,,,,,,,,,,,89355,001,2022-04-21_13h21.31.192,SPAMnetsValid,2021.1.4,Win32,60.10699044,,,,,,,,,,,,,,,,,,,,,,,,,1,3.2723,0,11,11,11,1,perfunctory,fundamental,formal,superficial,careful,3,,,,,,,,,,,,,,,,,,,,,,,,,,,,,,,,,,,,,,,,,,,,,,,,,,,,
,,,,,,,,,,,,,,,89355,001,2022-04-21_13h21.31.192,SPAMnetsValid,2021.1.4,Win32,60.10699044,,,,,,,,,,,,,,,,,,,,,,,,,4,2.5512,0,12,12,12,1,diverge,reveal,chant,distract the attention of,differ or turn off from,4,,,,,,,,,,,,,,,,,,,,,,,,,,,,,,,,,,,,,,,,,,,,,,,,,,,,
,,,,,,,,,,,,,,,89355,001,2022-04-21_13h21.31.192,SPAMnetsValid,2021.1.4,Win32,60.10699044,,,,,,,,,,,,,,,,,,,,,,,,,4,1.8758,0,13,13,13,1,evoke,take away,anger,connect,bring out,4,,,,,,,,,,,,,,,,,,,,,,,,,,,,,,,,,,,,,,,,,,,,,,,,,,,,
,,,,,,,,,,,,,,,89355,001,2022-04-21_13h21.31.192,SPAMnetsValid,2021.1.4,Win32,60.10699044,,,,,,,,,,,,,,,,,,,,,,,,,3,1.8573,0,14,14,14,1,pertinent,relevant,lying next to,necessary,bold,1,,,,,,,,,,,,,,,,,,,,,,,,,,,,,,,,,,,,,,,,,,,,,,,,,,,,
,,,,,,,,,,,,,,,89355,001,2022-04-21_13h21.31.192,SPAMnetsValid,2021.1.4,Win32,60.10699044,,,,,,,,,,,,,,,,,,,,,,,,,2,4.0063,0,15,15,15,1,holocaust,entirety,destruction,saintly,price,2,,,,,,,,,,,,,,,,,,,,,,,,,,,,,,,,,,,,,,,,,,,,,,,,,,,,
,,,,,,,,,,,,,,,89355,001,2022-04-21_13h21.31.192,SPAMnetsValid,2021.1.4,Win32,60.10699044,,,,,,,,,,,,,,,,,,,,,,,,,3,3.7131,0,16,16,16,1,piquant,mellow,fish,pungent,cloth,3,,,,,,,,,,,,,,,,,,,,,,,,,,,,,,,,,,,,,,,,,,,,,,,,,,,,
,,,,,,,,,,,,,,,89355,001,2022-04-21_13h21.31.192,SPAMnetsValid,2021.1.4,Win32,60.10699044,,,,,,,,,,,,,,,,,,,,,,,,,3,3.6865,0,17,17,17,1,firmament,foundation,heavens,strong,glue,2,,,,,,,,,,,,,,,,,,,,,,,,,,,,,,,,,,,,,,,,,,,,,,,,,,,,
,,,,,,,,,,,,,,,89355,001,2022-04-21_13h21.31.192,SPAMnetsValid,2021.1.4,Win32,60.10699044,,,,,,,,,,,,,,,,,,,,,,,,,,,,,,,,,,,,,,4,4.9081,0,0,0,0,1,marketable,partisan,jocular,marriageable,salable,essential,4,,,,,,,,,,,,,,,,,,,,,,,,,,,,,,,,,,,,,,
,,,,,,,,,,,,,,,89355,001,2022-04-21_13h21.31.192,SPAMnetsValid,2021.1.4,Win32,60.10699044,,,,,,,,,,,,,,,,,,,,,,,,,,,,,,,,,,,,,,5,2.805,0,1,1,1,1,cottontail,squirrel,poplar,boa,marshy plant,rabbit,5,,,,,,,,,,,,,,,,,,,,,,,,,,,,,,,,,,,,,,
,,,,,,,,,,,,,,,89355,001,2022-04-21_13h21.31.192,SPAMnetsValid,2021.1.4,Win32,60.10699044,,,,,,,,,,,,,,,,,,,,,,,,,,,,,,,,,,,,,,3,1.752,0,2,2,2,1,boggy,afraid,false,marshy,dense,black,3,,,,,,,,,,,,,,,,,,,,,,,,,,,,,,,,,,,,,,
,,,,,,,,,,,,,,,89355,001,2022-04-21_13h21.31.192,SPAMnetsValid,2021.1.4,Win32,60.10699044,,,,,,,,,,,,,,,,,,,,,,,,,,,,,,,,,,,,,,5,29.1332,0,3,3,3,1,gruesomeness,blackness,falseness,vindictiveness,drunkenness,ghastliness,5,,,,,,,,,,,,,,,,,,,,,,,,,,,,,,,,,,,,,,
,,,,,,,,,,,,,,,89355,001,2022-04-21_13h21.31.192,SPAMnetsValid,2021.1.4,Win32,60.10699044,,,,,,,,,,,,,,,,,,,,,,,,,,,,,,,,,,,,,,3,3.3092,0,4,4,4,1,loathing,diffidence,laziness,abhorrence,cleverness,comfort,3,,,,,,,,,,,,,,,,,,,,,,,,,,,,,,,,,,,,,,
,,,,,,,,,,,,,,,89355,001,2022-04-21_13h21.31.192,SPAMnetsValid,2021.1.4,Win32,60.10699044,,,,,,,,,,,,,,,,,,,,,,,,,,,,,,,,,,,,,,2,5.3213,0,5,5,5,1,bantam,fowl,ridicule,cripple,vegetable,ensign,1,,,,,,,,,,,,,,,,,,,,,,,,,,,,,,,,,,,,,,
,,,,,,,,,,,,,,,89355,001,2022-04-21_13h21.31.192,SPAMnetsValid,2021.1.4,Win32,60.10699044,,,,,,,,,,,,,,,,,,,,,,,,,,,,,,,,,,,,,,5,2.2482,0,6,6,6,1,evoke,wake up,surrender,reconnoiter,transcend,call forth,5,,,,,,,,,,,,,,,,,,,,,,,,,,,,,,,,,,,,,,
,,,,,,,,,,,,,,,89355,001,2022-04-21_13h21.31.192,SPAMnetsValid,2021.1.4,Win32,60.10699044,,,,,,,,,,,,,,,,,,,,,,,,,,,,,,,,,,,,,,4,5.3224,0,7,7,7,1,unobtrusive,unintelligent,epileptic,illogical,lineal,modest,5,,,,,,,,,,,,,,,,,,,,,,,,,,,,,,,,,,,,,,
,,,,,,,,,,,,,,,89355,001,2022-04-21_13h21.31.192,SPAMnetsValid,2021.1.4,Win32,60.10699044,,,,,,,,,,,,,,,,,,,,,,,,,,,,,,,,,,,,,,4,1.9749,0,8,8,8,1,terrain,ice cream,final test,tractor,area of ground,weight,4,,,,,,,,,,,,,,,,,,,,,,,,,,,,,,,,,,,,,,
,,,,,,,,,,,,,,,89355,001,2022-04-21_13h21.31.192,SPAMnetsValid,2021.1.4,Win32,60.10699044,,,,,,,,,,,,,,,,,,,,,,,,,,,,,,,,,,,,,,3,5.901,0,9,9,9,1,capriciousness,stubbornness,courage,whimsicality,amazement,greediness,3,,,,,,,,,,,,,,,,,,,,,,,,,,,,,,,,,,,,,,
,,,,,,,,,,,,,,,89355,001,2022-04-21_13h21.31.192,SPAMnetsValid,2021.1.4,Win32,60.10699044,,,,,,,,,,,,,,,,,,,,,,,,,,,,,,,,,,,,,,5,6.2535,0,10,10,10,1,maelstrom,slander,whirlpool,enmity,armor,majolica,2,,,,,,,,,,,,,,,,,,,,,,,,,,,,,,,,,,,,,,
,,,,,,,,,,,,,,,89355,001,2022-04-21_13h21.31.192,SPAMnetsValid,2021.1.4,Win32,60.10699044,,,,,,,,,,,,,,,,,,,,,,,,,,,,,,,,,,,,,,4,6.7814,0,11,11,11,1,tentative,critical,conclusive,authentic,provisional,apprehensive,4,,,,,,,,,,,,,,,,,,,,,,,,,,,,,,,,,,,,,,
,,,,,,,,,,,,,,,89355,001,2022-04-21_13h21.31.192,SPAMnetsValid,2021.1.4,Win32,60.10699044,,,,,,,,,,,,,,,,,,,,,,,,,,,,,,,,,,,,,,3,2.3473,0,12,12,12,1,placate,rehabilitate,plagiarize,depredate,apprise,conciliate,5,,,,,,,,,,,,,,,,,,,,,,,,,,,,,,,,,,,,,,
,,,,,,,,,,,,,,,89355,001,2022-04-21_13h21.31.192,SPAMnetsValid,2021.1.4,Win32,60.10699044,,,,,,,,,,,,,,,,,,,,,,,,,,,,,,,,,,,,,,4,7.4736,0,13,13,13,1,surcease,enlightenment,cessation,inattention,censor,substitution,2,,,,,,,,,,,,,,,,,,,,,,,,,,,,,,,,,,,,,,
,,,,,,,,,,,,,,,89355,001,2022-04-21_13h21.31.192,SPAMnetsValid,2021.1.4,Win32,60.10699044,,,,,,,,,,,,,,,,,,,,,,,,,,,,,,,,,,,,,,3,6.6352,0,14,14,14,1,apathetic,wandering,impassive,hateful,prophetic,overflowing,2,,,,,,,,,,,,,,,,,,,,,,,,,,,,,,,,,,,,,,
,,,,,,,,,,,,,,,89355,001,2022-04-21_13h21.31.192,SPAMnetsValid,2021.1.4,Win32,60.10699044,,,,,,,,,,,,,,,,,,,,,,,,,,,,,,,,,,,,,,2,6.0632,0,15,15,15,1,paternoster,paternalism,patricide,malediction,benediction,prayer,5,,,,,,,,,,,,,,,,,,,,,,,,,,,,,,,,,,,,,,
,,,,,,,,,,,,,,,89355,001,2022-04-21_13h21.31.192,SPAMnetsValid,2021.1.4,Win32,60.10699044,,,,,,,,,,,,,,,,,,,,,,,,,,,,,,,,,,,,,,4,3.0571,0,16,16,16,1,opalescence,opulence,senescence,bankruptcy,iridescence,assiduity,4,,,,,,,,,,,,,,,,,,,,,,,,,,,,,,,,,,,,,,
,,,,,,,,,,,,,,,89355,001,2022-04-21_13h21.31.192,SPAMnetsValid,2021.1.4,Win32,60.10699044,,,,,,,,,,,,,,,,,,,,,,,,,,,,,,,,,,,,,,2,3.2717,0,17,17,17,1,lush,stupid,luxurious,hazy,putrid,languishing,2,,,,,,,,,,,,,,,,,,,,,,,,,,,,,,,,,,,,,,
,,,,,,,,,,,,,,,89355,001,2022-04-21_13h21.31.192,SPAMnetsValid,2021.1.4,Win32,60.10699044,,,,,,,,,,,,,,,,,,,,,,,,,,,,,,,,,,,,,,3,4.9078,0,18,18,18,1,curtailment,expenditure,abandonment,abridgment,improvement,forgery,3,,,,,,,,,,,,,,,,,,,,,,,,,,,,,,,,,,,,,,
,,,,,,,,,,,,,,,89355,001,2022-04-21_13h21.31.192,SPAMnetsValid,2021.1.4,Win32,60.10699044,,,,,,,,,,,,,,,,,,,,,,,,,,,,,,,,,,,,,,2,2.6549,0,19,19,19,1,perversity,adversity,perviousness,travesty,waywardness,gentility,4,,,,,,,,,,,,,,,,,,,,,,,,,,,,,,,,,,,,,,
,,,,,,,,,,,,,,,89355,001,2022-04-21_13h21.31.192,SPAMnetsValid,2021.1.4,Win32,60.10699044,,,,,,,,,,,,,,,,,,,,,,,,,,,,,,,,,,,,,,5,6.9192,0,20,20,20,1,calumnious,complimentary,analogous,slanderous,tempestuous,magnanimous,3,,,,,,,,,,,,,,,,,,,,,,,,,,,,,,,,,,,,,,
,,,,,,,,,,,,,,,89355,001,2022-04-21_13h21.31.192,SPAMnetsValid,2021.1.4,Win32,60.10699044,,,,,,,,,,,,,,,,,,,,,,,,,,,,,,,,,,,,,,2,4.7364,0,21,21,21,1,illiberality,bigotry,imbecility,illegibility,cautery,immaturity,1,,,,,,,,,,,,,,,,,,,,,,,,,,,,,,,,,,,,,,
,,,,,,,,,,,,,,,89355,001,2022-04-21_13h21.31.192,SPAMnetsValid,2021.1.4,Win32,60.10699044,,,,,,,,,,,,,,,,,,,,,,,,,,,,,,,,,,,,,,2,4.3601,0,22,22,22,1,clabber,rejoice,gossip,curdle,crow,hobble,3,,,,,,,,,,,,,,,,,,,,,,,,,,,,,,,,,,,,,,
,,,,,,,,,,,,,,,89355,001,2022-04-21_13h21.31.192,SPAMnetsValid,2021.1.4,Win32,60.10699044,,,,,,,,,,,,,,,,,,,,,,,,,,,,,,,,,,,,,,5,5.6546,0,23,23,23,1,sedulousness,diligence,credulousness,seduction,perilousness,frankness,1,,,,,,,,,,,,,,,,,,,,,,,,,,,,,,,,,,,,,,
,,,,,,,,,,,,,,,89355,001,2022-04-21_13h21.31.192,SPAMnetsValid,2021.1.4,Win32,60.10699044,,,,,,,,,,,,,,,,,,,,,,,,,,,,,,,,,,,,,,,,,,,,,,,,,,,,cushion,pillow,0,0,0,0,1,,,,,,,,,,,,,,,,,,,,,,,,,,,,,,,
,,,,,,,,,,,,,,,89355,001,2022-04-21_13h21.31.192,SPAMnetsValid,2021.1.4,Win32,60.10699044,,,,,,,,,,,,,,,,,,,,,,,,,,,,,,,,,,,,,,,,,,,,,,,,,,,,to absorb sound,pillow,1,0,1,0,1,,,,,,,,,,,,,,,,,,,,,,,,,,,,,,,
,,,,,,,,,,,,,,,89355,001,2022-04-21_13h21.31.192,SPAMnetsValid,2021.1.4,Win32,60.10699044,,,,,,,,,,,,,,,,,,,,,,,,,,,,,,,,,,,,,,,,,,,,,,,,,,,,soak up liquid,pillow,2,0,2,0,1,,,,,,,,,,,,,,,,,,,,,,,,,,,,,,,
,,,,,,,,,,,,,,,89355,001,2022-04-21_13h21.31.192,SPAMnetsValid,2021.1.4,Win32,60.10699044,,,,,,,,,,,,,,,,,,,,,,,,,,,,,,,,,,,,,,,,,,,,,,,,,,,,storage,pillow,3,0,3,0,1,,,,,,,,,,,,,,,,,,,,,,,,,,,,,,,
,,,,,,,,,,,,,,,89355,001,2022-04-21_13h21.31.192,SPAMnetsValid,2021.1.4,Win32,60.10699044,,,,,,,,,,,,,,,,,,,,,,,,,,,,,,,,,,,,,,,,,,,,,,,,,,,,,,,,,,,0,0,0,2,1,pillow,,,,,,,,,,,,,,,,,,,,,,,,,
,,,,,,,,,,,,,,,89355,001,2022-04-21_13h21.31.192,SPAMnetsValid,2021.1.4,Win32,60.10699044,,,,,,,,,,,,,,,,,,,,,,,,,,,,,,,,,,,,,,,,,,,,,,,,,,,,light,candle,0,0,0,0,1,,,,,,,,,,,,,,,,,,,,,,,,,,,,,,,
,,,,,,,,,,,,,,,89355,001,2022-04-21_13h21.31.192,SPAMnetsValid,2021.1.4,Win32,60.10699044,,,,,,,,,,,,,,,,,,,,,,,,,,,,,,,,,,,,,,,,,,,,,,,,,,,,to start a fire,candle,1,0,1,0,1,,,,,,,,,,,,,,,,,,,,,,,,,,,,,,,
,,,,,,,,,,,,,,,89355,001,2022-04-21_13h21.31.192,SPAMnetsValid,2021.1.4,Win32,60.10699044,,,,,,,,,,,,,,,,,,,,,,,,,,,,,,,,,,,,,,,,,,,,,,,,,,,,heat,candle,2,0,2,0,1,,,,,,,,,,,,,,,,,,,,,,,,,,,,,,,
,,,,,,,,,,,,,,,89355,001,2022-04-21_13h21.31.192,SPAMnetsValid,2021.1.4,Win32,60.10699044,,,,,,,,,,,,,,,,,,,,,,,,,,,,,,,,,,,,,,,,,,,,,,,,,,,,wax for sealant,candle,3,0,3,0,1,,,,,,,,,,,,,,,,,,,,,,,,,,,,,,,
,,,,,,,,,,,,,,,89355,001,2022-04-21_13h21.31.192,SPAMnetsValid,2021.1.4,Win32,60.10699044,,,,,,,,,,,,,,,,,,,,,,,,,,,,,,,,,,,,,,,,,,,,,,,,,,,,weapon,candle,4,0,4,0,1,,,,,,,,,,,,,,,,,,,,,,,,,,,,,,,
,,,,,,,,,,,,,,,89355,001,2022-04-21_13h21.31.192,SPAMnetsValid,2021.1.4,Win32,60.10699044,,,,,,,,,,,,,,,,,,,,,,,,,,,,,,,,,,,,,,,,,,,,,,,,,,,,chopstick,candle,5,0,5,0,1,,,,,,,,,,,,,,,,,,,,,,,,,,,,,,,
,,,,,,,,,,,,,,,89355,001,2022-04-21_13h21.31.192,SPAMnetsValid,2021.1.4,Win32,60.10699044,,,,,,,,,,,,,,,,,,,,,,,,,,,,,,,,,,,,,,,,,,,,,,,,,,,,air freshener,candle,6,0,6,0,1,,,,,,,,,,,,,,,,,,,,,,,,,,,,,,,
,,,,,,,,,,,,,,,89355,001,2022-04-21_13h21.31.192,SPAMnetsValid,2021.1.4,Win32,60.10699044,,,,,,,,,,,,,,,,,,,,,,,,,,,,,,,,,,,,,,,,,,,,,,,,,,,,,,,,,,,0,1,1,1,1,candle,,,,,,,,,,,,,,,,,,,,,,,,,
,,,,,,,,,,,,,,,89355,001,2022-04-21_13h21.31.192,SPAMnetsValid,2021.1.4,Win32,60.10699044,,,,,,,,,,,,,,,,,,,,,,,,,,,,,,,,,,,,,,,,,,,,,,,,,,,,bath,bucket,0,0,0,0,1,,,,,,,,,,,,,,,,,,,,,,,,,,,,,,,
,,,,,,,,,,,,,,,89355,001,2022-04-21_13h21.31.192,SPAMnetsValid,2021.1.4,Win32,60.10699044,,,,,,,,,,,,,,,,,,,,,,,,,,,,,,,,,,,,,,,,,,,,,,,,,,,,shower,bucket,1,0,1,0,1,,,,,,,,,,,,,,,,,,,,,,,,,,,,,,,
,,,,,,,,,,,,,,,89355,001,2022-04-21_13h21.31.192,SPAMnetsValid,2021.1.4,Win32,60.10699044,,,,,,,,,,,,,,,,,,,,,,,,,,,,,,,,,,,,,,,,,,,,,,,,,,,,wash hands,bucket,2,0,2,0,1,,,,,,,,,,,,,,,,,,,,,,,,,,,,,,,
,,,,,,,,,,,,,,,89355,001,2022-04-21_13h21.31.192,SPAMnetsValid,2021.1.4,Win32,60.10699044,,,,,,,,,,,,,,,,,,,,,,,,,,,,,,,,,,,,,,,,,,,,,,,,,,,,hat,bucket,3,0,3,0,1,,,,,,,,,,,,,,,,,,,,,,,,,,,,,,,
,,,,,,,,,,,,,,,89355,001,2022-04-21_13h21.31.192,SPAMnetsValid,2021.1.4,Win32,60.10699044,,,,,,,,,,,,,,,,,,,,,,,,,,,,,,,,,,,,,,,,,,,,,,,,,,,,storage,bucket,4,0,4,0,1,,,,,,,,,,,,,,,,,,,,,,,,,,,,,,,
,,,,,,,,,,,,,,,89355,001,2022-04-21_13h21.31.192,SPAMnetsValid,2021.1.4,Win32,60.10699044,,,,,,,,,,,,,,,,,,,,,,,,,,,,,,,,,,,,,,,,,,,,,,,,,,,,drum,bucket,5,0,5,0,1,,,,,,,,,,,,,,,,,,,,,,,,,,,,,,,
,,,,,,,,,,,,,,,89355,001,2022-04-21_13h21.31.192,SPAMnetsValid,2021.1.4,Win32,60.10699044,,,,,,,,,,,,,,,,,,,,,,,,,,,,,,,,,,,,,,,,,,,,,,,,,,,,,,,,,,,0,2,2,0,1,bucket,,,,,,,,,,,,,,,,,,,,,,,,,
,,,,,,,,,,,,,,,89355,001,2022-04-21_13h21.31.192,SPAMnetsValid,2021.1.4,Win32,60.10699044,,,,,,,,,,,,,,,,,,,,,,,,,,,,,,,,,,,,,,,,,,,,,,,,,,,,,,,,,,,,,,,,,dog,Animals,0,0,0,0,1,,,,,,,,,,,,,,,,,,
,,,,,,,,,,,,,,,89355,001,2022-04-21_13h21.31.192,SPAMnetsValid,2021.1.4,Win32,60.10699044,,,,,,,,,,,,,,,,,,,,,,,,,,,,,,,,,,,,,,,,,,,,,,,,,,,,,,,,,,,,,,,,,cat,Animals,1,0,1,0,1,,,,,,,,,,,,,,,,,,
,,,,,,,,,,,,,,,89355,001,2022-04-21_13h21.31.192,SPAMnetsValid,2021.1.4,Win32,60.10699044,,,,,,,,,,,,,,,,,,,,,,,,,,,,,,,,,,,,,,,,,,,,,,,,,,,,,,,,,,,,,,,,,giraffe,Animals,2,0,2,0,1,,,,,,,,,,,,,,,,,,
,,,,,,,,,,,,,,,89355,001,2022-04-21_13h21.31.192,SPAMnetsValid,2021.1.4,Win32,60.10699044,,,,,,,,,,,,,,,,,,,,,,,,,,,,,,,,,,,,,,,,,,,,,,,,,,,,,,,,,,,,,,,,,alligator,Animals,3,0,3,0,1,,,,,,,,,,,,,,,,,,
,,,,,,,,,,,,,,,89355,001,2022-04-21_13h21.31.192,SPAMnetsValid,2021.1.4,Win32,60.10699044,,,,,,,,,,,,,,,,,,,,,,,,,,,,,,,,,,,,,,,,,,,,,,,,,,,,,,,,,,,,,,,,,bear,Animals,4,0,4,0,1,,,,,,,,,,,,,,,,,,
,,,,,,,,,,,,,,,89355,001,2022-04-21_13h21.31.192,SPAMnetsValid,2021.1.4,Win32,60.10699044,,,,,,,,,,,,,,,,,,,,,,,,,,,,,,,,,,,,,,,,,,,,,,,,,,,,,,,,,,,,,,,,,monkey,Animals,5,0,5,0,1,,,,,,,,,,,,,,,,,,
,,,,,,,,,,,,,,,89355,001,2022-04-21_13h21.31.192,SPAMnetsValid,2021.1.4,Win32,60.10699044,,,,,,,,,,,,,,,,,,,,,,,,,,,,,,,,,,,,,,,,,,,,,,,,,,,,,,,,,,,,,,,,,lizard,Animals,6,0,6,0,1,,,,,,,,,,,,,,,,,,
,,,,,,,,,,,,,,,89355,001,2022-04-21_13h21.31.192,SPAMnetsValid,2021.1.4,Win32,60.10699044,,,,,,,,,,,,,,,,,,,,,,,,,,,,,,,,,,,,,,,,,,,,,,,,,,,,,,,,,,,,,,,,,dragon,Animals,7,0,7,0,1,,,,,,,,,,,,,,,,,,
,,,,,,,,,,,,,,,89355,001,2022-04-21_13h21.31.192,SPAMnetsValid,2021.1.4,Win32,60.10699044,,,,,,,,,,,,,,,,,,,,,,,,,,,,,,,,,,,,,,,,,,,,,,,,,,,,,,,,,,,,,,,,,gecko,Animals,8,0,8,0,1,,,,,,,,,,,,,,,,,,
,,,,,,,,,,,,,,,89355,001,2022-04-21_13h21.31.192,SPAMnetsValid,2021.1.4,Win32,60.10699044,,,,,,,,,,,,,,,,,,,,,,,,,,,,,,,,,,,,,,,,,,,,,,,,,,,,,,,,,,,,,,,,,fish,Animals,9,0,9,0,1,,,,,,,,,,,,,,,,,,
,,,,,,,,,,,,,,,89355,001,2022-04-21_13h21.31.192,SPAMnetsValid,2021.1.4,Win32,60.10699044,,,,,,,,,,,,,,,,,,,,,,,,,,,,,,,,,,,,,,,,,,,,,,,,,,,,,,,,,,,,,,,,,kangaroo,Animals,10,0,10,0,1,,,,,,,,,,,,,,,,,,
,,,,,,,,,,,,,,,89355,001,2022-04-21_13h21.31.192,SPAMnetsValid,2021.1.4,Win32,60.10699044,,,,,,,,,,,,,,,,,,,,,,,,,,,,,,,,,,,,,,,,,,,,,,,,,,,,,,,,,,,,,,,,,rhino,Animals,11,0,11,0,1,,,,,,,,,,,,,,,,,,
,,,,,,,,,,,,,,,89355,001,2022-04-21_13h21.31.192,SPAMnetsValid,2021.1.4,Win32,60.10699044,,,,,,,,,,,,,,,,,,,,,,,,,,,,,,,,,,,,,,,,,,,,,,,,,,,,,,,,,,,,,,,,,elephant,Animals,12,0,12,0,1,,,,,,,,,,,,,,,,,,
,,,,,,,,,,,,,,,89355,001,2022-04-21_13h21.31.192,SPAMnetsValid,2021.1.4,Win32,60.10699044,,,,,,,,,,,,,,,,,,,,,,,,,,,,,,,,,,,,,,,,,,,,,,,,,,,,,,,,,,,,,,,,,hippo,Animals,13,0,13,0,1,,,,,,,,,,,,,,,,,,
,,,,,,,,,,,,,,,89355,001,2022-04-21_13h21.31.192,SPAMnetsValid,2021.1.4,Win32,60.10699044,,,,,,,,,,,,,,,,,,,,,,,,,,,,,,,,,,,,,,,,,,,,,,,,,,,,,,,,,,,,,,,,,opposum,Animals,14,0,14,0,1,,,,,,,,,,,,,,,,,,
,,,,,,,,,,,,,,,89355,001,2022-04-21_13h21.31.192,SPAMnetsValid,2021.1.4,Win32,60.10699044,,,,,,,,,,,,,,,,,,,,,,,,,,,,,,,,,,,,,,,,,,,,,,,,,,,,,,,,,,,,,,,,,raccoon,Animals,15,0,15,0,1,,,,,,,,,,,,,,,,,,
,,,,,,,,,,,,,,,89355,001,2022-04-21_13h21.31.192,SPAMnetsValid,2021.1.4,Win32,60.10699044,,,,,,,,,,,,,,,,,,,,,,,,,,,,,,,,,,,,,,,,,,,,,,,,,,,,,,,,,,,,,,,,,bird,Animals,16,0,16,0,1,,,,,,,,,,,,,,,,,,
,,,,,,,,,,,,,,,89355,001,2022-04-21_13h21.31.192,SPAMnetsValid,2021.1.4,Win32,60.10699044,,,,,,,,,,,,,,,,,,,,,,,,,,,,,,,,,,,,,,,,,,,,,,,,,,,,,,,,,,,,,,,,,turkey,Animals,17,0,17,0,1,,,,,,,,,,,,,,,,,,
,,,,,,,,,,,,,,,89355,001,2022-04-21_13h21.31.192,SPAMnetsValid,2021.1.4,Win32,60.10699044,,,,,,,,,,,,,,,,,,,,,,,,,,,,,,,,,,,,,,,,,,,,,,,,,,,,,,,,,,,,,,,,,chicken,Animals,18,0,18,0,1,,,,,,,,,,,,,,,,,,
,,,,,,,,,,,,,,,89355,001,2022-04-21_13h21.31.192,SPAMnetsValid,2021.1.4,Win32,60.10699044,,,,,,,,,,,,,,,,,,,,,,,,,,,,,,,,,,,,,,,,,,,,,,,,,,,,,,,,,,,,,,,,,pig,Animals,19,0,19,0,1,,,,,,,,,,,,,,,,,,
,,,,,,,,,,,,,,,89355,001,2022-04-21_13h21.31.192,SPAMnetsValid,2021.1.4,Win32,60.10699044,,,,,,,,,,,,,,,,,,,,,,,,,,,,,,,,,,,,,,,,,,,,,,,,,,,,,,,,,,,,,,,,,cow,Animals,20,0,20,0,1,,,,,,,,,,,,,,,,,,
,,,,,,,,,,,,,,,89355,001,2022-04-21_13h21.31.192,SPAMnetsValid,2021.1.4,Win32,60.10699044,,,,,,,,,,,,,,,,,,,,,,,,,,,,,,,,,,,,,,,,,,,,,,,,,,,,,,,,,,,,,,,,,horse,Animals,21,0,21,0,1,,,,,,,,,,,,,,,,,,
,,,,,,,,,,,,,,,89355,001,2022-04-21_13h21.31.192,SPAMnetsValid,2021.1.4,Win32,60.10699044,,,,,,,,,,,,,,,,,,,,,,,,,,,,,,,,,,,,,,,,,,,,,,,,,,,,,,,,,,,,,,,,,goat,Animals,22,0,22,0,1,,,,,,,,,,,,,,,,,,
,,,,,,,,,,,,,,,89355,001,2022-04-21_13h21.31.192,SPAMnetsValid,2021.1.4,Win32,60.10699044,,,,,,,,,,,,,,,,,,,,,,,,,,,,,,,,,,,,,,,,,,,,,,,,,,,,,,,,,,,,,,,,,sheep,Animals,23,0,23,0,1,,,,,,,,,,,,,,,,,,
,,,,,,,,,,,,,,,89355,001,2022-04-21_13h21.31.192,SPAMnetsValid,2021.1.4,Win32,60.10699044,,,,,,,,,,,,,,,,,,,,,,,,,,,,,,,,,,,,,,,,,,,,,,,,,,,,,,,,,,,,,,,,,iguana,Animals,24,0,24,0,1,,,,,,,,,,,,,,,,,,
,,,,,,,,,,,,,,,89355,001,2022-04-21_13h21.31.192,SPAMnetsValid,2021.1.4,Win32,60.10699044,,,,,,,,,,,,,,,,,,,,,,,,,,,,,,,,,,,,,,,,,,,,,,,,,,,,,,,,,,,,,,,,,turtle,Animals,25,0,25,0,1,,,,,,,,,,,,,,,,,,
,,,,,,,,,,,,,,,89355,001,2022-04-21_13h21.31.192,SPAMnetsValid,2021.1.4,Win32,60.10699044,,,,,,,,,,,,,,,,,,,,,,,,,,,,,,,,,,,,,,,,,,,,,,,,,,,,,,,,,,,,,,,,,tortoise,Animals,26,0,26,0,1,,,,,,,,,,,,,,,,,,
,,,,,,,,,,,,,,,89355,001,2022-04-21_13h21.31.192,SPAMnetsValid,2021.1.4,Win32,60.10699044,,,,,,,,,,,,,,,,,,,,,,,,,,,,,,,,,,,,,,,,,,,,,,,,,,,,,,,,,,,,,,,,,hare,Animals,27,0,27,0,1,,,,,,,,,,,,,,,,,,
,,,,,,,,,,,,,,,89355,001,2022-04-21_13h21.31.192,SPAMnetsValid,2021.1.4,Win32,60.10699044,,,,,,,,,,,,,,,,,,,,,,,,,,,,,,,,,,,,,,,,,,,,,,,,,,,,,,,,,,,,,,,,,bunny,Animals,28,0,28,0,1,,,,,,,,,,,,,,,,,,
,,,,,,,,,,,,,,,89355,001,2022-04-21_13h21.31.192,SPAMnetsValid,2021.1.4,Win32,60.10699044,,,,,,,,,,,,,,,,,,,,,,,,,,,,,,,,,,,,,,,,,,,,,,,,,,,,,,,,,,,,,,,,,,,,,,,,0,0,0,0,1,Animals,,,,,,,,,,,,
,,,,,,,,,,,,,,,89355,001,2022-04-21_13h21.31.192,SPAMnetsValid,2021.1.4,Win32,60.10699044,,,,,,,,,,,,,,,,,,,,,,,,,,,,,,,,,,,,,,,,,,,,,,,,,,,,,,,,,,,,,,,,,,,,,,,,,,,,,,3,6.0896,0,0,0,0,1,"I enjoy concentrating on a fantasy or daydream and exploring all its possibilities, letting it grow and develop.",0,1,,
,,,,,,,,,,,,,,,89355,001,2022-04-21_13h21.31.192,SPAMnetsValid,2021.1.4,Win32,60.10699044,,,,,,,,,,,,,,,,,,,,,,,,,,,,,,,,,,,,,,,,,,,,,,,,,,,,,,,,,,,,,,,,,,,,,,,,,,,,,,4,9.3541,0,1,1,1,1,I think it's interesting to learn and develop new hobbies.,0,2,,
,,,,,,,,,,,,,,,89355,001,2022-04-21_13h21.31.192,SPAMnetsValid,2021.1.4,Win32,60.10699044,,,,,,,,,,,,,,,,,,,,,,,,,,,,,,,,,,,,,,,,,,,,,,,,,,,,,,,,,,,,,,,,,,,,,,,,,,,,,,4,1.9563,0,2,2,2,1,I am intrigued by the patterns I find in art and nature.,0,3,,
,,,,,,,,,,,,,,,89355,001,2022-04-21_13h21.31.192,SPAMnetsValid,2021.1.4,Win32,60.10699044,,,,,,,,,,,,,,,,,,,,,,,,,,,,,,,,,,,,,,,,,,,,,,,,,,,,,,,,,,,,,,,,,,,,,,,,,,,,,,1,3.6951,0,3,3,3,1,I believe letting students hear controversial speakers can only confuse and mislead them.,1,4,,
,,,,,,,,,,,,,,,89355,001,2022-04-21_13h21.31.192,SPAMnetsValid,2021.1.4,Win32,60.10699044,,,,,,,,,,,,,,,,,,,,,,,,,,,,,,,,,,,,,,,,,,,,,,,,,,,,,,,,,,,,,,,,,,,,,,,,,,,,,,2,2.572,0,4,4,4,1,Poetry has little or no effect on me.,1,5,,
,,,,,,,,,,,,,,,89355,001,2022-04-21_13h21.31.192,SPAMnetsValid,2021.1.4,Win32,60.10699044,,,,,,,,,,,,,,,,,,,,,,,,,,,,,,,,,,,,,,,,,,,,,,,,,,,,,,,,,,,,,,,,,,,,,,,,,,,,,,1,6.178,0,5,5,5,1,I would have difficulty just letting my mind wander without control or guidance.,1,6,,
,,,,,,,,,,,,,,,89355,001,2022-04-21_13h21.31.192,SPAMnetsValid,2021.1.4,Win32,60.10699044,,,,,,,,,,,,,,,,,,,,,,,,,,,,,,,,,,,,,,,,,,,,,,,,,,,,,,,,,,,,,,,,,,,,,,,,,,,,,,1,3.9059,0,6,6,6,1,I seldom notice the moods or feelings that different environments produce.,1,7,,
,,,,,,,,,,,,,,,89355,001,2022-04-21_13h21.31.192,SPAMnetsValid,2021.1.4,Win32,60.10699044,,,,,,,,,,,,,,,,,,,,,,,,,,,,,,,,,,,,,,,,,,,,,,,,,,,,,,,,,,,,,,,,,,,,,,,,,,,,,,4,2.4247,0,7,7,7,1,I experience a wide range of emotions or feelings.,0,8,,
,,,,,,,,,,,,,,,89355,001,2022-04-21_13h21.31.192,SPAMnetsValid,2021.1.4,Win32,60.10699044,,,,,,,,,,,,,,,,,,,,,,,,,,,,,,,,,,,,,,,,,,,,,,,,,,,,,,,,,,,,,,,,,,,,,,,,,,,,,,4,2.3222,0,8,8,8,1,"Sometimes when I am reading poetry or looking at a work of art, I feel a chill or wave of excitement.",0,9,,
,,,,,,,,,,,,,,,89355,001,2022-04-21_13h21.31.192,SPAMnetsValid,2021.1.4,Win32,60.10699044,,,,,,,,,,,,,,,,,,,,,,,,,,,,,,,,,,,,,,,,,,,,,,,,,,,,,,,,,,,,,,,,,,,,,,,,,,,,,,2,3.4132,0,9,9,9,1,I have little interest in speculating on the nature of the universe or the human condition.,1,10,,
,,,,,,,,,,,,,,,89355,001,2022-04-21_13h21.31.192,SPAMnetsValid,2021.1.4,Win32,60.10699044,,,,,,,,,,,,,,,,,,,,,,,,,,,,,,,,,,,,,,,,,,,,,,,,,,,,,,,,,,,,,,,,,,,,,,,,,,,,,,4,2.0395,0,10,10,10,1,I have a lot of intellectual curiosity.,0,11,,
,,,,,,,,,,,,,,,89355,001,2022-04-21_13h21.31.192,SPAMnetsValid,2021.1.4,Win32,60.10699044,,,,,,,,,,,,,,,,,,,,,,,,,,,,,,,,,,,,,,,,,,,,,,,,,,,,,,,,,,,,,,,,,,,,,,,,,,,,,,4,2.1223,0,11,11,11,1,I often enjoy playing with theories or abstract ideas.,0,12,,
,,,,,,,,,,,,,,,89355,001,2022-04-21_13h21.31.192,SPAMnetsValid,2021.1.4,Win32,60.10699044,,,,,,,,,,,,,,,,,,,,,,,,,,,,,,,,,,,,,,,,,,,,,,,,,,,,,,,,,,,,,,,,,,,,,,,,,,,,,,,,,,,,,,,,return,6.0988
