key_resp_3.keys,key_resp_3.rt,slider_2.response,slider_2.rt,rjt_rating,rjt_RT,trials_24.thisRepN,trials_24.thisTrialN,trials_24.thisN,trials_24.thisIndex,trials_24.ran,rjt_order,word1,word2,attention,participant,session,date,expName,psychopyVersion,OS,frameRate,trials_4.thisRepN,trials_4.thisTrialN,trials_4.thisN,trials_4.thisIndex,trials_4.ran,trials_5.thisRepN,trials_5.thisTrialN,trials_5.thisN,trials_5.thisIndex,trials_5.ran,repOne,repTwo,slider.response,slider.rt,trials_22.thisRepN,trials_22.thisTrialN,trials_22.thisN,trials_22.thisIndex,trials_22.ran,trials_99.thisRepN,trials_99.thisTrialN,trials_99.thisN,trials_99.thisIndex,trials_99.ran,slider_extend_2.response,slider_extend_2.rt,trials_6.thisRepN,trials_6.thisTrialN,trials_6.thisN,trials_6.thisIndex,trials_6.ran,vCue2,R1,R2,R3,R4,correct,sliderVocab.response,sliderVocab.rt,trials_7.thisRepN,trials_7.thisTrialN,trials_7.thisN,trials_7.thisIndex,trials_7.ran,VocabCue,VR1,VR2,VR3,VR4,VR5,VocabCorrect,AUT_resp,AUT_label,trials.thisRepN,trials.thisTrialN,trials.thisN,trials.thisIndex,trials.ran,trials_2.thisRepN,trials_2.thisTrialN,trials_2.thisN,trials_2.thisIndex,trials_2.ran,aut_prompt,VF_response,VF_tag,trials_16.thisRepN,trials_16.thisTrialN,trials_16.thisN,trials_16.thisIndex,trials_16.ran,trials_17.thisRepN,trials_17.thisTrialN,trials_17.thisN,trials_17.thisIndex,trials_17.ran,VFcond,open_slider.response,open_slider.rt,trials_3.thisRepN,trials_3.thisTrialN,trials_3.thisN,trials_3.thisIndex,trials_3.ran,OpenQ,Rev,OPEN_ORDER,key_resp_2.keys,key_resp_2.rt
return,1.1396,7,2.7758,7,2.7758,0,0,0,33,1,131,cactus,garden,,89355,001,2022-04-21_13h46.58.218,SPAMnetsValid,2021.1.4,Win32,60.11783095,,,,,,,,,,,,,,,,,,,,,,,,,,,,,,,,,,,,,,,,,,,,,,,,,,,,,,,,,,,,,,,,,,,,,,,,,,,,,,,,,,,,,,,,,
,,7,2.6065,7,2.6065,0,1,1,12,1,162,microwave,tomato,,89355,001,2022-04-21_13h46.58.218,SPAMnetsValid,2021.1.4,Win32,60.11783095,,,,,,,,,,,,,,,,,,,,,,,,,,,,,,,,,,,,,,,,,,,,,,,,,,,,,,,,,,,,,,,,,,,,,,,,,,,,,,,,,,,,,,,,,
,,8,1.6669,8,1.6669,0,2,2,1,1,173,kitchen,tomato,,89355,001,2022-04-21_13h46.58.218,SPAMnetsValid,2021.1.4,Win32,60.11783095,,,,,,,,,,,,,,,,,,,,,,,,,,,,,,,,,,,,,,,,,,,,,,,,,,,,,,,,,,,,,,,,,,,,,,,,,,,,,,,,,,,,,,,,,
,,8,0.871,8,0.871,0,3,3,38,1,155,carrot,cookie,,89355,001,2022-04-21_13h46.58.218,SPAMnetsValid,2021.1.4,Win32,60.11783095,,,,,,,,,,,,,,,,,,,,,,,,,,,,,,,,,,,,,,,,,,,,,,,,,,,,,,,,,,,,,,,,,,,,,,,,,,,,,,,,,,,,,,,,,
,,8,0.9011,8,0.9011,0,4,4,0,1,106,cake,strawberry,,89355,001,2022-04-21_13h46.58.218,SPAMnetsValid,2021.1.4,Win32,60.11783095,,,,,,,,,,,,,,,,,,,,,,,,,,,,,,,,,,,,,,,,,,,,,,,,,,,,,,,,,,,,,,,,,,,,,,,,,,,,,,,,,,,,,,,,,
,,8,1.0085,8,1.0085,0,5,5,69,1,124,oven,refrigerator,,89355,001,2022-04-21_13h46.58.218,SPAMnetsValid,2021.1.4,Win32,60.11783095,,,,,,,,,,,,,,,,,,,,,,,,,,,,,,,,,,,,,,,,,,,,,,,,,,,,,,,,,,,,,,,,,,,,,,,,,,,,,,,,,,,,,,,,,
,,8,1.1993,8,1.1993,0,6,6,51,1,168,cactus,flower,,89355,001,2022-04-21_13h46.58.218,SPAMnetsValid,2021.1.4,Win32,60.11783095,,,,,,,,,,,,,,,,,,,,,,,,,,,,,,,,,,,,,,,,,,,,,,,,,,,,,,,,,,,,,,,,,,,,,,,,,,,,,,,,,,,,,,,,,
,,9,1.8644,9,1.8644,0,7,7,47,1,167,carrot,garden,,89355,001,2022-04-21_13h46.58.218,SPAMnetsValid,2021.1.4,Win32,60.11783095,,,,,,,,,,,,,,,,,,,,,,,,,,,,,,,,,,,,,,,,,,,,,,,,,,,,,,,,,,,,,,,,,,,,,,,,,,,,,,,,,,,,,,,,,
,,3,1.8815,3,1.8815,0,8,8,46,1,123,cookie,tree,,89355,001,2022-04-21_13h46.58.218,SPAMnetsValid,2021.1.4,Win32,60.11783095,,,,,,,,,,,,,,,,,,,,,,,,,,,,,,,,,,,,,,,,,,,,,,,,,,,,,,,,,,,,,,,,,,,,,,,,,,,,,,,,,,,,,,,,,
,,8,4.6827,8,4.6827,0,9,9,91,1,166,cake,yogurt,,89355,001,2022-04-21_13h46.58.218,SPAMnetsValid,2021.1.4,Win32,60.11783095,,,,,,,,,,,,,,,,,,,,,,,,,,,,,,,,,,,,,,,,,,,,,,,,,,,,,,,,,,,,,,,,,,,,,,,,,,,,,,,,,,,,,,,,,
,,3,3.0691,3,3.0691,0,10,10,81,1,104,garden,microwave,,89355,001,2022-04-21_13h46.58.218,SPAMnetsValid,2021.1.4,Win32,60.11783095,,,,,,,,,,,,,,,,,,,,,,,,,,,,,,,,,,,,,,,,,,,,,,,,,,,,,,,,,,,,,,,,,,,,,,,,,,,,,,,,,,,,,,,,,
,,2,2.1287,2,2.1287,0,11,11,15,1,145,cactus,yogurt,,89355,001,2022-04-21_13h46.58.218,SPAMnetsValid,2021.1.4,Win32,60.11783095,,,,,,,,,,,,,,,,,,,,,,,,,,,,,,,,,,,,,,,,,,,,,,,,,,,,,,,,,,,,,,,,,,,,,,,,,,,,,,,,,,,,,,,,,
,,8,19.6386,8,19.6386,0,12,12,87,1,114,cookie,strawberry,,89355,001,2022-04-21_13h46.58.218,SPAMnetsValid,2021.1.4,Win32,60.11783095,,,,,,,,,,,,,,,,,,,,,,,,,,,,,,,,,,,,,,,,,,,,,,,,,,,,,,,,,,,,,,,,,,,,,,,,,,,,,,,,,,,,,,,,,
,,8,1.6128,8,1.6128,0,13,13,42,1,184,oven,pretzel,,89355,001,2022-04-21_13h46.58.218,SPAMnetsValid,2021.1.4,Win32,60.11783095,,,,,,,,,,,,,,,,,,,,,,,,,,,,,,,,,,,,,,,,,,,,,,,,,,,,,,,,,,,,,,,,,,,,,,,,,,,,,,,,,,,,,,,,,
,,2,1.7524,2,1.7524,0,14,14,71,1,187,cactus,microwave,,89355,001,2022-04-21_13h46.58.218,SPAMnetsValid,2021.1.4,Win32,60.11783095,,,,,,,,,,,,,,,,,,,,,,,,,,,,,,,,,,,,,,,,,,,,,,,,,,,,,,,,,,,,,,,,,,,,,,,,,,,,,,,,,,,,,,,,,
,,3,2.7623,3,2.7623,0,15,15,9,1,176,cactus,tomato,,89355,001,2022-04-21_13h46.58.218,SPAMnetsValid,2021.1.4,Win32,60.11783095,,,,,,,,,,,,,,,,,,,,,,,,,,,,,,,,,,,,,,,,,,,,,,,,,,,,,,,,,,,,,,,,,,,,,,,,,,,,,,,,,,,,,,,,,
,,8,1.5832,8,1.5832,0,16,16,85,1,115,refrigerator,tomato,,89355,001,2022-04-21_13h46.58.218,SPAMnetsValid,2021.1.4,Win32,60.11783095,,,,,,,,,,,,,,,,,,,,,,,,,,,,,,,,,,,,,,,,,,,,,,,,,,,,,,,,,,,,,,,,,,,,,,,,,,,,,,,,,,,,,,,,,
,,7,2.1473,7,2.1473,0,17,17,36,1,161,kitchen,pretzel,,89355,001,2022-04-21_13h46.58.218,SPAMnetsValid,2021.1.4,Win32,60.11783095,,,,,,,,,,,,,,,,,,,,,,,,,,,,,,,,,,,,,,,,,,,,,,,,,,,,,,,,,,,,,,,,,,,,,,,,,,,,,,,,,,,,,,,,,
,,9,3.1688,9,3.1688,0,18,18,25,1,194,cactus,cactus,CHECK,89355,001,2022-04-21_13h46.58.218,SPAMnetsValid,2021.1.4,Win32,60.11783095,,,,,,,,,,,,,,,,,,,,,,,,,,,,,,,,,,,,,,,,,,,,,,,,,,,,,,,,,,,,,,,,,,,,,,,,,,,,,,,,,,,,,,,,,
,,8,1.053,8,1.053,0,19,19,82,1,98,pretzel,strawberry,,89355,001,2022-04-21_13h46.58.218,SPAMnetsValid,2021.1.4,Win32,60.11783095,,,,,,,,,,,,,,,,,,,,,,,,,,,,,,,,,,,,,,,,,,,,,,,,,,,,,,,,,,,,,,,,,,,,,,,,,,,,,,,,,,,,,,,,,
,,8,0.8505,8,0.8505,0,20,20,24,1,169,onion,yogurt,,89355,001,2022-04-21_13h46.58.218,SPAMnetsValid,2021.1.4,Win32,60.11783095,,,,,,,,,,,,,,,,,,,,,,,,,,,,,,,,,,,,,,,,,,,,,,,,,,,,,,,,,,,,,,,,,,,,,,,,,,,,,,,,,,,,,,,,,
,,7,2.1802,7,2.1802,0,21,21,96,1,136,chocolate,microwave,,89355,001,2022-04-21_13h46.58.218,SPAMnetsValid,2021.1.4,Win32,60.11783095,,,,,,,,,,,,,,,,,,,,,,,,,,,,,,,,,,,,,,,,,,,,,,,,,,,,,,,,,,,,,,,,,,,,,,,,,,,,,,,,,,,,,,,,,
,,8,1.0636,8,1.0636,0,22,22,53,1,177,chocolate,strawberry,,89355,001,2022-04-21_13h46.58.218,SPAMnetsValid,2021.1.4,Win32,60.11783095,,,,,,,,,,,,,,,,,,,,,,,,,,,,,,,,,,,,,,,,,,,,,,,,,,,,,,,,,,,,,,,,,,,,,,,,,,,,,,,,,,,,,,,,,
,,2,1.5637,2,1.5637,0,23,23,68,1,180,tree,yogurt,,89355,001,2022-04-21_13h46.58.218,SPAMnetsValid,2021.1.4,Win32,60.11783095,,,,,,,,,,,,,,,,,,,,,,,,,,,,,,,,,,,,,,,,,,,,,,,,,,,,,,,,,,,,,,,,,,,,,,,,,,,,,,,,,,,,,,,,,
,,2,2.966,2,2.966,0,24,24,13,1,105,cactus,oven,,89355,001,2022-04-21_13h46.58.218,SPAMnetsValid,2021.1.4,Win32,60.11783095,,,,,,,,,,,,,,,,,,,,,,,,,,,,,,,,,,,,,,,,,,,,,,,,,,,,,,,,,,,,,,,,,,,,,,,,,,,,,,,,,,,,,,,,,
,,7,3.2492,7,3.2492,0,25,25,10,1,118,chocolate,oven,,89355,001,2022-04-21_13h46.58.218,SPAMnetsValid,2021.1.4,Win32,60.11783095,,,,,,,,,,,,,,,,,,,,,,,,,,,,,,,,,,,,,,,,,,,,,,,,,,,,,,,,,,,,,,,,,,,,,,,,,,,,,,,,,,,,,,,,,
,,7,1.2213,7,1.2213,0,26,26,32,1,182,flower,refrigerator,,89355,001,2022-04-21_13h46.58.218,SPAMnetsValid,2021.1.4,Win32,60.11783095,,,,,,,,,,,,,,,,,,,,,,,,,,,,,,,,,,,,,,,,,,,,,,,,,,,,,,,,,,,,,,,,,,,,,,,,,,,,,,,,,,,,,,,,,
,,8,1.2416,8,1.2416,0,27,27,34,1,153,carrot,pretzel,,89355,001,2022-04-21_13h46.58.218,SPAMnetsValid,2021.1.4,Win32,60.11783095,,,,,,,,,,,,,,,,,,,,,,,,,,,,,,,,,,,,,,,,,,,,,,,,,,,,,,,,,,,,,,,,,,,,,,,,,,,,,,,,,,,,,,,,,
,,8,0.8192,8,0.8192,0,28,28,88,1,171,cake,tomato,,89355,001,2022-04-21_13h46.58.218,SPAMnetsValid,2021.1.4,Win32,60.11783095,,,,,,,,,,,,,,,,,,,,,,,,,,,,,,,,,,,,,,,,,,,,,,,,,,,,,,,,,,,,,,,,,,,,,,,,,,,,,,,,,,,,,,,,,
,,2,1.6595,2,1.6595,0,29,29,54,1,101,cactus,kitchen,,89355,001,2022-04-21_13h46.58.218,SPAMnetsValid,2021.1.4,Win32,60.11783095,,,,,,,,,,,,,,,,,,,,,,,,,,,,,,,,,,,,,,,,,,,,,,,,,,,,,,,,,,,,,,,,,,,,,,,,,,,,,,,,,,,,,,,,,
,,9,1.5861,9,1.5861,0,30,30,83,1,100,garden,tomato,,89355,001,2022-04-21_13h46.58.218,SPAMnetsValid,2021.1.4,Win32,60.11783095,,,,,,,,,,,,,,,,,,,,,,,,,,,,,,,,,,,,,,,,,,,,,,,,,,,,,,,,,,,,,,,,,,,,,,,,,,,,,,,,,,,,,,,,,
,,8,1.7145,8,1.7145,0,31,31,30,1,125,carrot,tree,,89355,001,2022-04-21_13h46.58.218,SPAMnetsValid,2021.1.4,Win32,60.11783095,,,,,,,,,,,,,,,,,,,,,,,,,,,,,,,,,,,,,,,,,,,,,,,,,,,,,,,,,,,,,,,,,,,,,,,,,,,,,,,,,,,,,,,,,
,,8,1.3943,8,1.3943,0,32,32,5,1,108,carrot,chocolate,,89355,001,2022-04-21_13h46.58.218,SPAMnetsValid,2021.1.4,Win32,60.11783095,,,,,,,,,,,,,,,,,,,,,,,,,,,,,,,,,,,,,,,,,,,,,,,,,,,,,,,,,,,,,,,,,,,,,,,,,,,,,,,,,,,,,,,,,
,,8,1.2753,8,1.2753,0,33,33,28,1,154,strawberry,yogurt,,89355,001,2022-04-21_13h46.58.218,SPAMnetsValid,2021.1.4,Win32,60.11783095,,,,,,,,,,,,,,,,,,,,,,,,,,,,,,,,,,,,,,,,,,,,,,,,,,,,,,,,,,,,,,,,,,,,,,,,,,,,,,,,,,,,,,,,,
,,8,0.9128,8,0.9128,0,34,34,93,1,134,carrot,flower,,89355,001,2022-04-21_13h46.58.218,SPAMnetsValid,2021.1.4,Win32,60.11783095,,,,,,,,,,,,,,,,,,,,,,,,,,,,,,,,,,,,,,,,,,,,,,,,,,,,,,,,,,,,,,,,,,,,,,,,,,,,,,,,,,,,,,,,,
,,8,1.0992,8,1.0992,0,35,35,77,1,172,kitchen,melon,,89355,001,2022-04-21_13h46.58.218,SPAMnetsValid,2021.1.4,Win32,60.11783095,,,,,,,,,,,,,,,,,,,,,,,,,,,,,,,,,,,,,,,,,,,,,,,,,,,,,,,,,,,,,,,,,,,,,,,,,,,,,,,,,,,,,,,,,
,,1,2.0861,1,2.0861,0,36,36,78,1,132,broom,tree,,89355,001,2022-04-21_13h46.58.218,SPAMnetsValid,2021.1.4,Win32,60.11783095,,,,,,,,,,,,,,,,,,,,,,,,,,,,,,,,,,,,,,,,,,,,,,,,,,,,,,,,,,,,,,,,,,,,,,,,,,,,,,,,,,,,,,,,,
,,7,3.0973,7,3.0973,0,37,37,90,1,190,microwave,strawberry,,89355,001,2022-04-21_13h46.58.218,SPAMnetsValid,2021.1.4,Win32,60.11783095,,,,,,,,,,,,,,,,,,,,,,,,,,,,,,,,,,,,,,,,,,,,,,,,,,,,,,,,,,,,,,,,,,,,,,,,,,,,,,,,,,,,,,,,,
,,8,1.271,8,1.271,0,38,38,94,1,133,cake,flower,,89355,001,2022-04-21_13h46.58.218,SPAMnetsValid,2021.1.4,Win32,60.11783095,,,,,,,,,,,,,,,,,,,,,,,,,,,,,,,,,,,,,,,,,,,,,,,,,,,,,,,,,,,,,,,,,,,,,,,,,,,,,,,,,,,,,,,,,
,,8,0.8875,8,0.8875,0,39,39,70,1,141,melon,tomato,,89355,001,2022-04-21_13h46.58.218,SPAMnetsValid,2021.1.4,Win32,60.11783095,,,,,,,,,,,,,,,,,,,,,,,,,,,,,,,,,,,,,,,,,,,,,,,,,,,,,,,,,,,,,,,,,,,,,,,,,,,,,,,,,,,,,,,,,
,,7,1.6371,7,1.6371,0,40,40,65,1,160,cookie,kitchen,,89355,001,2022-04-21_13h46.58.218,SPAMnetsValid,2021.1.4,Win32,60.11783095,,,,,,,,,,,,,,,,,,,,,,,,,,,,,,,,,,,,,,,,,,,,,,,,,,,,,,,,,,,,,,,,,,,,,,,,,,,,,,,,,,,,,,,,,
,,9,2.8673,9,2.8673,0,41,41,86,1,193,melon,melon,CHECK,89355,001,2022-04-21_13h46.58.218,SPAMnetsValid,2021.1.4,Win32,60.11783095,,,,,,,,,,,,,,,,,,,,,,,,,,,,,,,,,,,,,,,,,,,,,,,,,,,,,,,,,,,,,,,,,,,,,,,,,,,,,,,,,,,,,,,,,
,,7,1.7723,7,1.7723,0,42,42,7,1,188,flower,tree,,89355,001,2022-04-21_13h46.58.218,SPAMnetsValid,2021.1.4,Win32,60.11783095,,,,,,,,,,,,,,,,,,,,,,,,,,,,,,,,,,,,,,,,,,,,,,,,,,,,,,,,,,,,,,,,,,,,,,,,,,,,,,,,,,,,,,,,,
,,1,1.7531,1,1.7531,0,43,43,4,1,109,broom,strawberry,,89355,001,2022-04-21_13h46.58.218,SPAMnetsValid,2021.1.4,Win32,60.11783095,,,,,,,,,,,,,,,,,,,,,,,,,,,,,,,,,,,,,,,,,,,,,,,,,,,,,,,,,,,,,,,,,,,,,,,,,,,,,,,,,,,,,,,,,
,,9,2.9186,9,2.9186,0,44,44,60,1,122,flower,garden,,89355,001,2022-04-21_13h46.58.218,SPAMnetsValid,2021.1.4,Win32,60.11783095,,,,,,,,,,,,,,,,,,,,,,,,,,,,,,,,,,,,,,,,,,,,,,,,,,,,,,,,,,,,,,,,,,,,,,,,,,,,,,,,,,,,,,,,,
,,9,2.9357,9,2.9357,0,45,45,61,1,138,flower,rose,,89355,001,2022-04-21_13h46.58.218,SPAMnetsValid,2021.1.4,Win32,60.11783095,,,,,,,,,,,,,,,,,,,,,,,,,,,,,,,,,,,,,,,,,,,,,,,,,,,,,,,,,,,,,,,,,,,,,,,,,,,,,,,,,,,,,,,,,
,,7,2.0497,7,2.0497,0,46,46,84,1,130,microwave,yogurt,,89355,001,2022-04-21_13h46.58.218,SPAMnetsValid,2021.1.4,Win32,60.11783095,,,,,,,,,,,,,,,,,,,,,,,,,,,,,,,,,,,,,,,,,,,,,,,,,,,,,,,,,,,,,,,,,,,,,,,,,,,,,,,,,,,,,,,,,
,,1,1.4334,1,1.4334,0,47,47,95,1,121,broom,microwave,,89355,001,2022-04-21_13h46.58.218,SPAMnetsValid,2021.1.4,Win32,60.11783095,,,,,,,,,,,,,,,,,,,,,,,,,,,,,,,,,,,,,,,,,,,,,,,,,,,,,,,,,,,,,,,,,,,,,,,,,,,,,,,,,,,,,,,,,
,,7,1.3692,7,1.3692,0,48,48,73,1,135,carrot,oven,,89355,001,2022-04-21_13h46.58.218,SPAMnetsValid,2021.1.4,Win32,60.11783095,,,,,,,,,,,,,,,,,,,,,,,,,,,,,,,,,,,,,,,,,,,,,,,,,,,,,,,,,,,,,,,,,,,,,,,,,,,,,,,,,,,,,,,,,
,,7,3.4152,7,3.4152,0,49,49,29,1,163,melon,refrigerator,,89355,001,2022-04-21_13h46.58.218,SPAMnetsValid,2021.1.4,Win32,60.11783095,,,,,,,,,,,,,,,,,,,,,,,,,,,,,,,,,,,,,,,,,,,,,,,,,,,,,,,,,,,,,,,,,,,,,,,,,,,,,,,,,,,,,,,,,
,,7,29.0504,7,29.0504,0,50,50,35,1,147,cake,refrigerator,,89355,001,2022-04-21_13h46.58.218,SPAMnetsValid,2021.1.4,Win32,60.11783095,,,,,,,,,,,,,,,,,,,,,,,,,,,,,,,,,,,,,,,,,,,,,,,,,,,,,,,,,,,,,,,,,,,,,,,,,,,,,,,,,,,,,,,,,
,,7,1.8629,7,1.8629,0,51,51,22,1,142,garden,tree,,89355,001,2022-04-21_13h46.58.218,SPAMnetsValid,2021.1.4,Win32,60.11783095,,,,,,,,,,,,,,,,,,,,,,,,,,,,,,,,,,,,,,,,,,,,,,,,,,,,,,,,,,,,,,,,,,,,,,,,,,,,,,,,,,,,,,,,,
,,7,2.8804,7,2.8804,0,52,52,8,1,97,chocolate,kitchen,,89355,001,2022-04-21_13h46.58.218,SPAMnetsValid,2021.1.4,Win32,60.11783095,,,,,,,,,,,,,,,,,,,,,,,,,,,,,,,,,,,,,,,,,,,,,,,,,,,,,,,,,,,,,,,,,,,,,,,,,,,,,,,,,,,,,,,,,
,,7,1.4684,7,1.4684,0,53,53,6,1,151,microwave,onion,,89355,001,2022-04-21_13h46.58.218,SPAMnetsValid,2021.1.4,Win32,60.11783095,,,,,,,,,,,,,,,,,,,,,,,,,,,,,,,,,,,,,,,,,,,,,,,,,,,,,,,,,,,,,,,,,,,,,,,,,,,,,,,,,,,,,,,,,
,,2,2.1886,2,2.1886,0,54,54,59,1,164,cookie,garden,,89355,001,2022-04-21_13h46.58.218,SPAMnetsValid,2021.1.4,Win32,60.11783095,,,,,,,,,,,,,,,,,,,,,,,,,,,,,,,,,,,,,,,,,,,,,,,,,,,,,,,,,,,,,,,,,,,,,,,,,,,,,,,,,,,,,,,,,
,,8,2.298,8,2.298,0,55,55,27,1,158,cookie,oven,,89355,001,2022-04-21_13h46.58.218,SPAMnetsValid,2021.1.4,Win32,60.11783095,,,,,,,,,,,,,,,,,,,,,,,,,,,,,,,,,,,,,,,,,,,,,,,,,,,,,,,,,,,,,,,,,,,,,,,,,,,,,,,,,,,,,,,,,
,,2,1.9217,2,1.9217,0,56,56,3,1,129,cactus,refrigerator,,89355,001,2022-04-21_13h46.58.218,SPAMnetsValid,2021.1.4,Win32,60.11783095,,,,,,,,,,,,,,,,,,,,,,,,,,,,,,,,,,,,,,,,,,,,,,,,,,,,,,,,,,,,,,,,,,,,,,,,,,,,,,,,,,,,,,,,,
,,7,2.2474,7,2.2474,0,57,57,74,1,128,melon,microwave,,89355,001,2022-04-21_13h46.58.218,SPAMnetsValid,2021.1.4,Win32,60.11783095,,,,,,,,,,,,,,,,,,,,,,,,,,,,,,,,,,,,,,,,,,,,,,,,,,,,,,,,,,,,,,,,,,,,,,,,,,,,,,,,,,,,,,,,,
,,1,1.8671,1,1.8671,0,58,58,58,1,144,cake,garden,,89355,001,2022-04-21_13h46.58.218,SPAMnetsValid,2021.1.4,Win32,60.11783095,,,,,,,,,,,,,,,,,,,,,,,,,,,,,,,,,,,,,,,,,,,,,,,,,,,,,,,,,,,,,,,,,,,,,,,,,,,,,,,,,,,,,,,,,
,,7,2.8368,7,2.8368,0,59,59,45,1,179,broom,oven,,89355,001,2022-04-21_13h46.58.218,SPAMnetsValid,2021.1.4,Win32,60.11783095,,,,,,,,,,,,,,,,,,,,,,,,,,,,,,,,,,,,,,,,,,,,,,,,,,,,,,,,,,,,,,,,,,,,,,,,,,,,,,,,,,,,,,,,,
,,7,1.8021,7,1.8021,0,60,60,75,1,178,cactus,carrot,,89355,001,2022-04-21_13h46.58.218,SPAMnetsValid,2021.1.4,Win32,60.11783095,,,,,,,,,,,,,,,,,,,,,,,,,,,,,,,,,,,,,,,,,,,,,,,,,,,,,,,,,,,,,,,,,,,,,,,,,,,,,,,,,,,,,,,,,
,,8,1.7824,8,1.7824,0,61,61,17,1,99,garden,melon,,89355,001,2022-04-21_13h46.58.218,SPAMnetsValid,2021.1.4,Win32,60.11783095,,,,,,,,,,,,,,,,,,,,,,,,,,,,,,,,,,,,,,,,,,,,,,,,,,,,,,,,,,,,,,,,,,,,,,,,,,,,,,,,,,,,,,,,,
,,8,1.203,8,1.203,0,62,62,41,1,175,melon,onion,,89355,001,2022-04-21_13h46.58.218,SPAMnetsValid,2021.1.4,Win32,60.11783095,,,,,,,,,,,,,,,,,,,,,,,,,,,,,,,,,,,,,,,,,,,,,,,,,,,,,,,,,,,,,,,,,,,,,,,,,,,,,,,,,,,,,,,,,
,,2,3.2048,2,3.2048,0,63,63,57,1,127,cactus,chocolate,,89355,001,2022-04-21_13h46.58.218,SPAMnetsValid,2021.1.4,Win32,60.11783095,,,,,,,,,,,,,,,,,,,,,,,,,,,,,,,,,,,,,,,,,,,,,,,,,,,,,,,,,,,,,,,,,,,,,,,,,,,,,,,,,,,,,,,,,
,,7,3.7685,7,3.7685,0,64,64,72,1,181,carrot,kitchen,,89355,001,2022-04-21_13h46.58.218,SPAMnetsValid,2021.1.4,Win32,60.11783095,,,,,,,,,,,,,,,,,,,,,,,,,,,,,,,,,,,,,,,,,,,,,,,,,,,,,,,,,,,,,,,,,,,,,,,,,,,,,,,,,,,,,,,,,
,,7,2.2013,7,2.2013,0,65,65,56,1,113,refrigerator,strawberry,,89355,001,2022-04-21_13h46.58.218,SPAMnetsValid,2021.1.4,Win32,60.11783095,,,,,,,,,,,,,,,,,,,,,,,,,,,,,,,,,,,,,,,,,,,,,,,,,,,,,,,,,,,,,,,,,,,,,,,,,,,,,,,,,,,,,,,,,
,,8,6.3341,8,6.3341,0,66,66,23,1,148,flower,melon,,89355,001,2022-04-21_13h46.58.218,SPAMnetsValid,2021.1.4,Win32,60.11783095,,,,,,,,,,,,,,,,,,,,,,,,,,,,,,,,,,,,,,,,,,,,,,,,,,,,,,,,,,,,,,,,,,,,,,,,,,,,,,,,,,,,,,,,,
,,7,2.9186,7,2.9186,0,67,67,49,1,152,cactus,strawberry,,89355,001,2022-04-21_13h46.58.218,SPAMnetsValid,2021.1.4,Win32,60.11783095,,,,,,,,,,,,,,,,,,,,,,,,,,,,,,,,,,,,,,,,,,,,,,,,,,,,,,,,,,,,,,,,,,,,,,,,,,,,,,,,,,,,,,,,,
,,9,2.4355,9,2.4355,0,68,68,14,1,120,microwave,oven,,89355,001,2022-04-21_13h46.58.218,SPAMnetsValid,2021.1.4,Win32,60.11783095,,,,,,,,,,,,,,,,,,,,,,,,,,,,,,,,,,,,,,,,,,,,,,,,,,,,,,,,,,,,,,,,,,,,,,,,,,,,,,,,,,,,,,,,,
,,1,1.6436,1,1.6436,0,69,69,20,1,149,broom,tomato,,89355,001,2022-04-21_13h46.58.218,SPAMnetsValid,2021.1.4,Win32,60.11783095,,,,,,,,,,,,,,,,,,,,,,,,,,,,,,,,,,,,,,,,,,,,,,,,,,,,,,,,,,,,,,,,,,,,,,,,,,,,,,,,,,,,,,,,,
,,7,4.2368,7,4.2368,0,70,70,43,1,185,cactus,rose,,89355,001,2022-04-21_13h46.58.218,SPAMnetsValid,2021.1.4,Win32,60.11783095,,,,,,,,,,,,,,,,,,,,,,,,,,,,,,,,,,,,,,,,,,,,,,,,,,,,,,,,,,,,,,,,,,,,,,,,,,,,,,,,,,,,,,,,,
,,7,1.4022,7,1.4022,0,71,71,62,1,189,onion,tree,,89355,001,2022-04-21_13h46.58.218,SPAMnetsValid,2021.1.4,Win32,60.11783095,,,,,,,,,,,,,,,,,,,,,,,,,,,,,,,,,,,,,,,,,,,,,,,,,,,,,,,,,,,,,,,,,,,,,,,,,,,,,,,,,,,,,,,,,
,,2,1.9695,2,1.9695,0,72,72,63,1,137,microwave,tree,,89355,001,2022-04-21_13h46.58.218,SPAMnetsValid,2021.1.4,Win32,60.11783095,,,,,,,,,,,,,,,,,,,,,,,,,,,,,,,,,,,,,,,,,,,,,,,,,,,,,,,,,,,,,,,,,,,,,,,,,,,,,,,,,,,,,,,,,
,,8,1.6032,8,1.6032,0,73,73,79,1,103,pretzel,tomato,,89355,001,2022-04-21_13h46.58.218,SPAMnetsValid,2021.1.4,Win32,60.11783095,,,,,,,,,,,,,,,,,,,,,,,,,,,,,,,,,,,,,,,,,,,,,,,,,,,,,,,,,,,,,,,,,,,,,,,,,,,,,,,,,,,,,,,,,
,,7,1.7689,7,1.7689,0,74,74,48,1,186,kitchen,yogurt,,89355,001,2022-04-21_13h46.58.218,SPAMnetsValid,2021.1.4,Win32,60.11783095,,,,,,,,,,,,,,,,,,,,,,,,,,,,,,,,,,,,,,,,,,,,,,,,,,,,,,,,,,,,,,,,,,,,,,,,,,,,,,,,,,,,,,,,,
,,8,1.3764,8,1.3764,0,75,75,40,1,165,onion,rose,,89355,001,2022-04-21_13h46.58.218,SPAMnetsValid,2021.1.4,Win32,60.11783095,,,,,,,,,,,,,,,,,,,,,,,,,,,,,,,,,,,,,,,,,,,,,,,,,,,,,,,,,,,,,,,,,,,,,,,,,,,,,,,,,,,,,,,,,
,,8,3.004,8,3.004,0,76,76,26,1,107,rose,tomato,,89355,001,2022-04-21_13h46.58.218,SPAMnetsValid,2021.1.4,Win32,60.11783095,,,,,,,,,,,,,,,,,,,,,,,,,,,,,,,,,,,,,,,,,,,,,,,,,,,,,,,,,,,,,,,,,,,,,,,,,,,,,,,,,,,,,,,,,
,,2,1.7684,2,1.7684,0,77,77,50,1,126,kitchen,tree,,89355,001,2022-04-21_13h46.58.218,SPAMnetsValid,2021.1.4,Win32,60.11783095,,,,,,,,,,,,,,,,,,,,,,,,,,,,,,,,,,,,,,,,,,,,,,,,,,,,,,,,,,,,,,,,,,,,,,,,,,,,,,,,,,,,,,,,,
,,8,1.9184,8,1.9184,0,78,78,19,1,183,cake,rose,,89355,001,2022-04-21_13h46.58.218,SPAMnetsValid,2021.1.4,Win32,60.11783095,,,,,,,,,,,,,,,,,,,,,,,,,,,,,,,,,,,,,,,,,,,,,,,,,,,,,,,,,,,,,,,,,,,,,,,,,,,,,,,,,,,,,,,,,
,,8,1.0204,8,1.0204,0,79,79,39,1,112,cake,carrot,,89355,001,2022-04-21_13h46.58.218,SPAMnetsValid,2021.1.4,Win32,60.11783095,,,,,,,,,,,,,,,,,,,,,,,,,,,,,,,,,,,,,,,,,,,,,,,,,,,,,,,,,,,,,,,,,,,,,,,,,,,,,,,,,,,,,,,,,
,,9,1.8628,9,1.8628,0,80,80,66,1,150,microwave,refrigerator,,89355,001,2022-04-21_13h46.58.218,SPAMnetsValid,2021.1.4,Win32,60.11783095,,,,,,,,,,,,,,,,,,,,,,,,,,,,,,,,,,,,,,,,,,,,,,,,,,,,,,,,,,,,,,,,,,,,,,,,,,,,,,,,,,,,,,,,,
,,8,1.2461,8,1.2461,0,81,81,2,1,174,cake,pretzel,,89355,001,2022-04-21_13h46.58.218,SPAMnetsValid,2021.1.4,Win32,60.11783095,,,,,,,,,,,,,,,,,,,,,,,,,,,,,,,,,,,,,,,,,,,,,,,,,,,,,,,,,,,,,,,,,,,,,,,,,,,,,,,,,,,,,,,,,
,,7,1.8985,7,1.8985,0,82,82,16,1,111,carrot,microwave,,89355,001,2022-04-21_13h46.58.218,SPAMnetsValid,2021.1.4,Win32,60.11783095,,,,,,,,,,,,,,,,,,,,,,,,,,,,,,,,,,,,,,,,,,,,,,,,,,,,,,,,,,,,,,,,,,,,,,,,,,,,,,,,,,,,,,,,,
,,8,14.3477,8,14.3477,0,83,83,52,1,110,chocolate,cookie,,89355,001,2022-04-21_13h46.58.218,SPAMnetsValid,2021.1.4,Win32,60.11783095,,,,,,,,,,,,,,,,,,,,,,,,,,,,,,,,,,,,,,,,,,,,,,,,,,,,,,,,,,,,,,,,,,,,,,,,,,,,,,,,,,,,,,,,,
,,7,2.9357,7,2.9357,0,84,84,55,1,143,pretzel,rose,,89355,001,2022-04-21_13h46.58.218,SPAMnetsValid,2021.1.4,Win32,60.11783095,,,,,,,,,,,,,,,,,,,,,,,,,,,,,,,,,,,,,,,,,,,,,,,,,,,,,,,,,,,,,,,,,,,,,,,,,,,,,,,,,,,,,,,,,
,,7,5.6039,7,5.6039,0,85,85,64,1,157,refrigerator,rose,,89355,001,2022-04-21_13h46.58.218,SPAMnetsValid,2021.1.4,Win32,60.11783095,,,,,,,,,,,,,,,,,,,,,,,,,,,,,,,,,,,,,,,,,,,,,,,,,,,,,,,,,,,,,,,,,,,,,,,,,,,,,,,,,,,,,,,,,
,,8,1.5702,8,1.5702,0,86,86,37,1,139,carrot,strawberry,,89355,001,2022-04-21_13h46.58.218,SPAMnetsValid,2021.1.4,Win32,60.11783095,,,,,,,,,,,,,,,,,,,,,,,,,,,,,,,,,,,,,,,,,,,,,,,,,,,,,,,,,,,,,,,,,,,,,,,,,,,,,,,,,,,,,,,,,
,,7,15.043,7,15.043,0,87,87,92,1,170,cookie,microwave,,89355,001,2022-04-21_13h46.58.218,SPAMnetsValid,2021.1.4,Win32,60.11783095,,,,,,,,,,,,,,,,,,,,,,,,,,,,,,,,,,,,,,,,,,,,,,,,,,,,,,,,,,,,,,,,,,,,,,,,,,,,,,,,,,,,,,,,,
,,7,1.2041,7,1.2041,0,88,88,67,1,96,oven,strawberry,,89355,001,2022-04-21_13h46.58.218,SPAMnetsValid,2021.1.4,Win32,60.11783095,,,,,,,,,,,,,,,,,,,,,,,,,,,,,,,,,,,,,,,,,,,,,,,,,,,,,,,,,,,,,,,,,,,,,,,,,,,,,,,,,,,,,,,,,
,,7,0.9753,7,0.9753,0,89,89,76,1,102,chocolate,refrigerator,,89355,001,2022-04-21_13h46.58.218,SPAMnetsValid,2021.1.4,Win32,60.11783095,,,,,,,,,,,,,,,,,,,,,,,,,,,,,,,,,,,,,,,,,,,,,,,,,,,,,,,,,,,,,,,,,,,,,,,,,,,,,,,,,,,,,,,,,
,,8,1.4219,8,1.4219,0,90,90,11,1,117,melon,strawberry,,89355,001,2022-04-21_13h46.58.218,SPAMnetsValid,2021.1.4,Win32,60.11783095,,,,,,,,,,,,,,,,,,,,,,,,,,,,,,,,,,,,,,,,,,,,,,,,,,,,,,,,,,,,,,,,,,,,,,,,,,,,,,,,,,,,,,,,,
,,7,5.1867,7,5.1867,0,91,91,18,1,119,strawberry,tree,,89355,001,2022-04-21_13h46.58.218,SPAMnetsValid,2021.1.4,Win32,60.11783095,,,,,,,,,,,,,,,,,,,,,,,,,,,,,,,,,,,,,,,,,,,,,,,,,,,,,,,,,,,,,,,,,,,,,,,,,,,,,,,,,,,,,,,,,
,,2,2.7846,2,2.7846,0,92,92,80,1,146,pretzel,tree,,89355,001,2022-04-21_13h46.58.218,SPAMnetsValid,2021.1.4,Win32,60.11783095,,,,,,,,,,,,,,,,,,,,,,,,,,,,,,,,,,,,,,,,,,,,,,,,,,,,,,,,,,,,,,,,,,,,,,,,,,,,,,,,,,,,,,,,,
,,8,1.4082,8,1.4082,0,93,93,44,1,116,cake,chocolate,,89355,001,2022-04-21_13h46.58.218,SPAMnetsValid,2021.1.4,Win32,60.11783095,,,,,,,,,,,,,,,,,,,,,,,,,,,,,,,,,,,,,,,,,,,,,,,,,,,,,,,,,,,,,,,,,,,,,,,,,,,,,,,,,,,,,,,,,
,,7,3.0869,7,3.0869,0,94,94,21,1,159,cookie,flower,,89355,001,2022-04-21_13h46.58.218,SPAMnetsValid,2021.1.4,Win32,60.11783095,,,,,,,,,,,,,,,,,,,,,,,,,,,,,,,,,,,,,,,,,,,,,,,,,,,,,,,,,,,,,,,,,,,,,,,,,,,,,,,,,,,,,,,,,
,,7,1.3196,7,1.3196,0,95,95,31,1,156,melon,rose,,89355,001,2022-04-21_13h46.58.218,SPAMnetsValid,2021.1.4,Win32,60.11783095,,,,,,,,,,,,,,,,,,,,,,,,,,,,,,,,,,,,,,,,,,,,,,,,,,,,,,,,,,,,,,,,,,,,,,,,,,,,,,,,,,,,,,,,,
,,7,3.9367,7,3.9367,0,96,96,89,1,140,cookie,refrigerator,,89355,001,2022-04-21_13h46.58.218,SPAMnetsValid,2021.1.4,Win32,60.11783095,,,,,,,,,,,,,,,,,,,,,,,,,,,,,,,,,,,,,,,,,,,,,,,,,,,,,,,,,,,,,,,,,,,,,,,,,,,,,,,,,,,,,,,,,
,,,,,,,,,,,,,,,89355,001,2022-04-21_13h46.58.218,SPAMnetsValid,2021.1.4,Win32,60.11783095,0,0,0,0,1,,,,,,,,,,,,,,,,,,,,,,,,,,,,,,,,,,,,,,,,,,,,,,,,,,,,,,,,,,,,,,,,,,,,,,,,,,,,,,,,,,,,
,,,,,,,,,,,,,,,89355,001,2022-04-21_13h46.58.218,SPAMnetsValid,2021.1.4,Win32,60.11783095,,,,,,0,0,0,1,1,0,1,,,,,,,,,,,,,,,,,,,,,,,,,,,,,,,,,,,,,,,,,,,,,,,,,,,,,,,,,,,,,,,,,,,,,,,,,,,,,
,,,,9,7.0968,,,,,,52,carrot,tomato,,89355,001,2022-04-21_13h46.58.218,SPAMnetsValid,2021.1.4,Win32,60.11783095,,,,,,,,,,,,,9,7.0968,0,0,0,95,1,,,,,,,,,,,,,,,,,,,,,,,,,,,,,,,,,,,,,,,,,,,,,,,,,,,,,,,,,,,,,,,,,,,,,,
,,,,8,1.6217,,,,,,56,cactus,tree,,89355,001,2022-04-21_13h46.58.218,SPAMnetsValid,2021.1.4,Win32,60.11783095,,,,,,,,,,,,,8,1.6217,0,1,1,21,1,,,,,,,,,,,,,,,,,,,,,,,,,,,,,,,,,,,,,,,,,,,,,,,,,,,,,,,,,,,,,,,,,,,,,,
,,,,7,12.5611,,,,,,46,garden,yogurt,,89355,001,2022-04-21_13h46.58.218,SPAMnetsValid,2021.1.4,Win32,60.11783095,,,,,,,,,,,,,7,12.5611,0,2,2,65,1,,,,,,,,,,,,,,,,,,,,,,,,,,,,,,,,,,,,,,,,,,,,,,,,,,,,,,,,,,,,,,,,,,,,,,
,,,,8,1.4374,,,,,,63,cake,cookie,,89355,001,2022-04-21_13h46.58.218,SPAMnetsValid,2021.1.4,Win32,60.11783095,,,,,,,,,,,,,8,1.4374,0,3,3,93,1,,,,,,,,,,,,,,,,,,,,,,,,,,,,,,,,,,,,,,,,,,,,,,,,,,,,,,,,,,,,,,,,,,,,,,
,,,,8,1.7031,,,,,,39,melon,pretzel,,89355,001,2022-04-21_13h46.58.218,SPAMnetsValid,2021.1.4,Win32,60.11783095,,,,,,,,,,,,,8,1.7031,0,4,4,20,1,,,,,,,,,,,,,,,,,,,,,,,,,,,,,,,,,,,,,,,,,,,,,,,,,,,,,,,,,,,,,,,,,,,,,,
,,,,2,1.5185,,,,,,83,broom,carrot,,89355,001,2022-04-21_13h46.58.218,SPAMnetsValid,2021.1.4,Win32,60.11783095,,,,,,,,,,,,,2,1.5185,0,5,5,4,1,,,,,,,,,,,,,,,,,,,,,,,,,,,,,,,,,,,,,,,,,,,,,,,,,,,,,,,,,,,,,,,,,,,,,,
,,,,9,1.6563,,,,,,94,kitchen,microwave,,89355,001,2022-04-21_13h46.58.218,SPAMnetsValid,2021.1.4,Win32,60.11783095,,,,,,,,,,,,,9,1.6563,0,6,6,58,1,,,,,,,,,,,,,,,,,,,,,,,,,,,,,,,,,,,,,,,,,,,,,,,,,,,,,,,,,,,,,,,,,,,,,,
,,,,8,3.5466,,,,,,50,carrot,rose,,89355,001,2022-04-21_13h46.58.218,SPAMnetsValid,2021.1.4,Win32,60.11783095,,,,,,,,,,,,,8,3.5466,0,7,7,73,1,,,,,,,,,,,,,,,,,,,,,,,,,,,,,,,,,,,,,,,,,,,,,,,,,,,,,,,,,,,,,,,,,,,,,,
,,,,1,2.1486,,,,,,72,broom,onion,,89355,001,2022-04-21_13h46.58.218,SPAMnetsValid,2021.1.4,Win32,60.11783095,,,,,,,,,,,,,1,2.1486,0,8,8,27,1,,,,,,,,,,,,,,,,,,,,,,,,,,,,,,,,,,,,,,,,,,,,,,,,,,,,,,,,,,,,,,,,,,,,,,
,,,,3,4.751,,,,,,57,flower,kitchen,,89355,001,2022-04-21_13h46.58.218,SPAMnetsValid,2021.1.4,Win32,60.11783095,,,,,,,,,,,,,3,4.751,0,9,9,49,1,,,,,,,,,,,,,,,,,,,,,,,,,,,,,,,,,,,,,,,,,,,,,,,,,,,,,,,,,,,,,,,,,,,,,,
,,,,7,1.6213,,,,,,55,tomato,tree,,89355,001,2022-04-21_13h46.58.218,SPAMnetsValid,2021.1.4,Win32,60.11783095,,,,,,,,,,,,,7,1.6213,0,10,10,35,1,,,,,,,,,,,,,,,,,,,,,,,,,,,,,,,,,,,,,,,,,,,,,,,,,,,,,,,,,,,,,,,,,,,,,,
,,,,6,5.3348,,,,,,7,melon,tree,,89355,001,2022-04-21_13h46.58.218,SPAMnetsValid,2021.1.4,Win32,60.11783095,,,,,,,,,,,,,6,5.3348,0,11,11,77,1,,,,,,,,,,,,,,,,,,,,,,,,,,,,,,,,,,,,,,,,,,,,,,,,,,,,,,,,,,,,,,,,,,,,,,
,,,,7,1.8743,,,,,,32,cake,microwave,,89355,001,2022-04-21_13h46.58.218,SPAMnetsValid,2021.1.4,Win32,60.11783095,,,,,,,,,,,,,7,1.8743,0,12,12,33,1,,,,,,,,,,,,,,,,,,,,,,,,,,,,,,,,,,,,,,,,,,,,,,,,,,,,,,,,,,,,,,,,,,,,,,
,,,,7,1.4231,,,,,,34,melon,oven,,89355,001,2022-04-21_13h46.58.218,SPAMnetsValid,2021.1.4,Win32,60.11783095,,,,,,,,,,,,,7,1.4231,0,13,13,7,1,,,,,,,,,,,,,,,,,,,,,,,,,,,,,,,,,,,,,,,,,,,,,,,,,,,,,,,,,,,,,,,,,,,,,,
,,,,8,1.4593,,,,,,10,flower,onion,,89355,001,2022-04-21_13h46.58.218,SPAMnetsValid,2021.1.4,Win32,60.11783095,,,,,,,,,,,,,8,1.4593,0,14,14,45,1,,,,,,,,,,,,,,,,,,,,,,,,,,,,,,,,,,,,,,,,,,,,,,,,,,,,,,,,,,,,,,,,,,,,,,
,,,,7,2.2313,,,,,,19,microwave,pretzel,,89355,001,2022-04-21_13h46.58.218,SPAMnetsValid,2021.1.4,Win32,60.11783095,,,,,,,,,,,,,7,2.2313,0,15,15,41,1,,,,,,,,,,,,,,,,,,,,,,,,,,,,,,,,,,,,,,,,,,,,,,,,,,,,,,,,,,,,,,,,,,,,,,
,,,,9,2.2182,,,,,,6,garden,onion,,89355,001,2022-04-21_13h46.58.218,SPAMnetsValid,2021.1.4,Win32,60.11783095,,,,,,,,,,,,,9,2.2182,0,16,16,83,1,,,,,,,,,,,,,,,,,,,,,,,,,,,,,,,,,,,,,,,,,,,,,,,,,,,,,,,,,,,,,,,,,,,,,,
,,,,8,1.9818,,,,,,87,carrot,yogurt,,89355,001,2022-04-21_13h46.58.218,SPAMnetsValid,2021.1.4,Win32,60.11783095,,,,,,,,,,,,,8,1.9818,0,17,17,6,1,,,,,,,,,,,,,,,,,,,,,,,,,,,,,,,,,,,,,,,,,,,,,,,,,,,,,,,,,,,,,,,,,,,,,,
,,,,8,1.5921,,,,,,61,strawberry,tomato,,89355,001,2022-04-21_13h46.58.218,SPAMnetsValid,2021.1.4,Win32,60.11783095,,,,,,,,,,,,,8,1.5921,0,18,18,80,1,,,,,,,,,,,,,,,,,,,,,,,,,,,,,,,,,,,,,,,,,,,,,,,,,,,,,,,,,,,,,,,,,,,,,,
,,,,2,1.8978,,,,,,73,broom,chocolate,,89355,001,2022-04-21_13h46.58.218,SPAMnetsValid,2021.1.4,Win32,60.11783095,,,,,,,,,,,,,2,1.8978,0,19,19,47,1,,,,,,,,,,,,,,,,,,,,,,,,,,,,,,,,,,,,,,,,,,,,,,,,,,,,,,,,,,,,,,,,,,,,,,
,,,,8,2.0628,,,,,,51,onion,strawberry,,89355,001,2022-04-21_13h46.58.218,SPAMnetsValid,2021.1.4,Win32,60.11783095,,,,,,,,,,,,,8,2.0628,0,20,20,86,1,,,,,,,,,,,,,,,,,,,,,,,,,,,,,,,,,,,,,,,,,,,,,,,,,,,,,,,,,,,,,,,,,,,,,,
,,,,8,1.4365,,,,,,47,onion,tomato,,89355,001,2022-04-21_13h46.58.218,SPAMnetsValid,2021.1.4,Win32,60.11783095,,,,,,,,,,,,,8,1.4365,0,21,21,51,1,,,,,,,,,,,,,,,,,,,,,,,,,,,,,,,,,,,,,,,,,,,,,,,,,,,,,,,,,,,,,,,,,,,,,,
,,,,8,0.939,,,,,,43,chocolate,tomato,,89355,001,2022-04-21_13h46.58.218,SPAMnetsValid,2021.1.4,Win32,60.11783095,,,,,,,,,,,,,8,0.939,0,22,22,8,1,,,,,,,,,,,,,,,,,,,,,,,,,,,,,,,,,,,,,,,,,,,,,,,,,,,,,,,,,,,,,,,,,,,,,,
,,,,9,2.2359,,,,,,93,kitchen,oven,,89355,001,2022-04-21_13h46.58.218,SPAMnetsValid,2021.1.4,Win32,60.11783095,,,,,,,,,,,,,9,2.2359,0,23,23,82,1,,,,,,,,,,,,,,,,,,,,,,,,,,,,,,,,,,,,,,,,,,,,,,,,,,,,,,,,,,,,,,,,,,,,,,
,,,,7,3.1633,,,,,,89,chocolate,rose,,89355,001,2022-04-21_13h46.58.218,SPAMnetsValid,2021.1.4,Win32,60.11783095,,,,,,,,,,,,,7,3.1633,0,24,24,60,1,,,,,,,,,,,,,,,,,,,,,,,,,,,,,,,,,,,,,,,,,,,,,,,,,,,,,,,,,,,,,,,,,,,,,,
,,,,7,1.404,,,,,,37,garden,refrigerator,,89355,001,2022-04-21_13h46.58.218,SPAMnetsValid,2021.1.4,Win32,60.11783095,,,,,,,,,,,,,7,1.404,0,25,25,11,1,,,,,,,,,,,,,,,,,,,,,,,,,,,,,,,,,,,,,,,,,,,,,,,,,,,,,,,,,,,,,,,,,,,,,,
,,,,8,18.1119,,,,,,42,garden,kitchen,,89355,001,2022-04-21_13h46.58.218,SPAMnetsValid,2021.1.4,Win32,60.11783095,,,,,,,,,,,,,8,18.1119,0,26,26,29,1,,,,,,,,,,,,,,,,,,,,,,,,,,,,,,,,,,,,,,,,,,,,,,,,,,,,,,,,,,,,,,,,,,,,,,
,,,,7,1.6002,,,,,,60,cactus,onion,,89355,001,2022-04-21_13h46.58.218,SPAMnetsValid,2021.1.4,Win32,60.11783095,,,,,,,,,,,,,7,1.6002,0,27,27,81,1,,,,,,,,,,,,,,,,,,,,,,,,,,,,,,,,,,,,,,,,,,,,,,,,,,,,,,,,,,,,,,,,,,,,,,
,,,,7,1.1524,,,,,,16,chocolate,flower,,89355,001,2022-04-21_13h46.58.218,SPAMnetsValid,2021.1.4,Win32,60.11783095,,,,,,,,,,,,,7,1.1524,0,28,28,22,1,,,,,,,,,,,,,,,,,,,,,,,,,,,,,,,,,,,,,,,,,,,,,,,,,,,,,,,,,,,,,,,,,,,,,,
,,,,8,1.2154,,,,,,30,cookie,pretzel,,89355,001,2022-04-21_13h46.58.218,SPAMnetsValid,2021.1.4,Win32,60.11783095,,,,,,,,,,,,,8,1.2154,0,29,29,78,1,,,,,,,,,,,,,,,,,,,,,,,,,,,,,,,,,,,,,,,,,,,,,,,,,,,,,,,,,,,,,,,,,,,,,,
,,,,3,2.1524,,,,,,67,flower,yogurt,,89355,001,2022-04-21_13h46.58.218,SPAMnetsValid,2021.1.4,Win32,60.11783095,,,,,,,,,,,,,3,2.1524,0,30,30,12,1,,,,,,,,,,,,,,,,,,,,,,,,,,,,,,,,,,,,,,,,,,,,,,,,,,,,,,,,,,,,,,,,,,,,,,
,,,,8,1.3867,,,,,,25,carrot,onion,,89355,001,2022-04-21_13h46.58.218,SPAMnetsValid,2021.1.4,Win32,60.11783095,,,,,,,,,,,,,8,1.3867,0,31,31,44,1,,,,,,,,,,,,,,,,,,,,,,,,,,,,,,,,,,,,,,,,,,,,,,,,,,,,,,,,,,,,,,,,,,,,,,
,,,,1,1.3876,,,,,,13,broom,yogurt,,89355,001,2022-04-21_13h46.58.218,SPAMnetsValid,2021.1.4,Win32,60.11783095,,,,,,,,,,,,,1,1.3876,0,32,32,5,1,,,,,,,,,,,,,,,,,,,,,,,,,,,,,,,,,,,,,,,,,,,,,,,,,,,,,,,,,,,,,,,,,,,,,,
,,,,1,1.4182,,,,,,8,broom,melon,,89355,001,2022-04-21_13h46.58.218,SPAMnetsValid,2021.1.4,Win32,60.11783095,,,,,,,,,,,,,1,1.4182,0,33,33,59,1,,,,,,,,,,,,,,,,,,,,,,,,,,,,,,,,,,,,,,,,,,,,,,,,,,,,,,,,,,,,,,,,,,,,,,
,,,,8,1.8028,,,,,,81,pretzel,yogurt,,89355,001,2022-04-21_13h46.58.218,SPAMnetsValid,2021.1.4,Win32,60.11783095,,,,,,,,,,,,,8,1.8028,0,34,34,50,1,,,,,,,,,,,,,,,,,,,,,,,,,,,,,,,,,,,,,,,,,,,,,,,,,,,,,,,,,,,,,,,,,,,,,,
,,,,8,0.9869,,,,,,44,cookie,melon,,89355,001,2022-04-21_13h46.58.218,SPAMnetsValid,2021.1.4,Win32,60.11783095,,,,,,,,,,,,,8,0.9869,0,35,35,92,1,,,,,,,,,,,,,,,,,,,,,,,,,,,,,,,,,,,,,,,,,,,,,,,,,,,,,,,,,,,,,,,,,,,,,,
,,,,7,2.0723,,,,,,20,rose,tree,,89355,001,2022-04-21_13h46.58.218,SPAMnetsValid,2021.1.4,Win32,60.11783095,,,,,,,,,,,,,7,2.0723,0,36,36,66,1,,,,,,,,,,,,,,,,,,,,,,,,,,,,,,,,,,,,,,,,,,,,,,,,,,,,,,,,,,,,,,,,,,,,,,
,,,,3,1.8407,,,,,,53,garden,pretzel,,89355,001,2022-04-21_13h46.58.218,SPAMnetsValid,2021.1.4,Win32,60.11783095,,,,,,,,,,,,,3,1.8407,0,37,37,0,1,,,,,,,,,,,,,,,,,,,,,,,,,,,,,,,,,,,,,,,,,,,,,,,,,,,,,,,,,,,,,,,,,,,,,,
,,,,7,2.9483,,,,,,18,onion,refrigerator,,89355,001,2022-04-21_13h46.58.218,SPAMnetsValid,2021.1.4,Win32,60.11783095,,,,,,,,,,,,,7,2.9483,0,38,38,62,1,,,,,,,,,,,,,,,,,,,,,,,,,,,,,,,,,,,,,,,,,,,,,,,,,,,,,,,,,,,,,,,,,,,,,,
,,,,7,2.0522,,,,,,91,microwave,rose,,89355,001,2022-04-21_13h46.58.218,SPAMnetsValid,2021.1.4,Win32,60.11783095,,,,,,,,,,,,,7,2.0522,0,39,39,84,1,,,,,,,,,,,,,,,,,,,,,,,,,,,,,,,,,,,,,,,,,,,,,,,,,,,,,,,,,,,,,,,,,,,,,,
,,,,7,1.9929,,,,,,90,cactus,cake,,89355,001,2022-04-21_13h46.58.218,SPAMnetsValid,2021.1.4,Win32,60.11783095,,,,,,,,,,,,,7,1.9929,0,40,40,85,1,,,,,,,,,,,,,,,,,,,,,,,,,,,,,,,,,,,,,,,,,,,,,,,,,,,,,,,,,,,,,,,,,,,,,,
,,,,4,2.8686,,,,,,86,oven,rose,,89355,001,2022-04-21_13h46.58.218,SPAMnetsValid,2021.1.4,Win32,60.11783095,,,,,,,,,,,,,4,2.8686,0,41,41,79,1,,,,,,,,,,,,,,,,,,,,,,,,,,,,,,,,,,,,,,,,,,,,,,,,,,,,,,,,,,,,,,,,,,,,,,
,,,,5,2.1217,,,,,,11,refrigerator,tree,,89355,001,2022-04-21_13h46.58.218,SPAMnetsValid,2021.1.4,Win32,60.11783095,,,,,,,,,,,,,5,2.1217,0,42,42,43,1,,,,,,,,,,,,,,,,,,,,,,,,,,,,,,,,,,,,,,,,,,,,,,,,,,,,,,,,,,,,,,,,,,,,,,
,,,,9,2.1031,,,,,,36,broom,kitchen,,89355,001,2022-04-21_13h46.58.218,SPAMnetsValid,2021.1.4,Win32,60.11783095,,,,,,,,,,,,,9,2.1031,0,43,43,76,1,,,,,,,,,,,,,,,,,,,,,,,,,,,,,,,,,,,,,,,,,,,,,,,,,,,,,,,,,,,,,,,,,,,,,,
,,,,8,1.6081,,,,,,69,carrot,refrigerator,,89355,001,2022-04-21_13h46.58.218,SPAMnetsValid,2021.1.4,Win32,60.11783095,,,,,,,,,,,,,8,1.6081,0,44,44,75,1,,,,,,,,,,,,,,,,,,,,,,,,,,,,,,,,,,,,,,,,,,,,,,,,,,,,,,,,,,,,,,,,,,,,,,
,,,,7,2.7686,,,,,,14,broom,cookie,,89355,001,2022-04-21_13h46.58.218,SPAMnetsValid,2021.1.4,Win32,60.11783095,,,,,,,,,,,,,7,2.7686,0,45,45,16,1,,,,,,,,,,,,,,,,,,,,,,,,,,,,,,,,,,,,,,,,,,,,,,,,,,,,,,,,,,,,,,,,,,,,,,
,,,,2,2.3276,,,,,,65,broom,garden,,89355,001,2022-04-21_13h46.58.218,SPAMnetsValid,2021.1.4,Win32,60.11783095,,,,,,,,,,,,,2,2.3276,0,46,46,23,1,,,,,,,,,,,,,,,,,,,,,,,,,,,,,,,,,,,,,,,,,,,,,,,,,,,,,,,,,,,,,,,,,,,,,,
,,,,8,1.3911,,,,,,54,chocolate,yogurt,,89355,001,2022-04-21_13h46.58.218,SPAMnetsValid,2021.1.4,Win32,60.11783095,,,,,,,,,,,,,8,1.3911,0,47,47,67,1,,,,,,,,,,,,,,,,,,,,,,,,,,,,,,,,,,,,,,,,,,,,,,,,,,,,,,,,,,,,,,,,,,,,,,
,,,,7,1.4769,,,,,,68,flower,tomato,,89355,001,2022-04-21_13h46.58.218,SPAMnetsValid,2021.1.4,Win32,60.11783095,,,,,,,,,,,,,7,1.4769,0,48,48,94,1,,,,,,,,,,,,,,,,,,,,,,,,,,,,,,,,,,,,,,,,,,,,,,,,,,,,,,,,,,,,,,,,,,,,,,
,,,,7,1.5966,,,,,,58,garden,oven,,89355,001,2022-04-21_13h46.58.218,SPAMnetsValid,2021.1.4,Win32,60.11783095,,,,,,,,,,,,,7,1.5966,0,49,49,37,1,,,,,,,,,,,,,,,,,,,,,,,,,,,,,,,,,,,,,,,,,,,,,,,,,,,,,,,,,,,,,,,,,,,,,,
,,,,7,5.7546,,,,,,95,broom,refrigerator,,89355,001,2022-04-21_13h46.58.218,SPAMnetsValid,2021.1.4,Win32,60.11783095,,,,,,,,,,,,,7,5.7546,0,50,50,90,1,,,,,,,,,,,,,,,,,,,,,,,,,,,,,,,,,,,,,,,,,,,,,,,,,,,,,,,,,,,,,,,,,,,,,,
,,,,7,1.3228,,,,,,77,refrigerator,yogurt,,89355,001,2022-04-21_13h46.58.218,SPAMnetsValid,2021.1.4,Win32,60.11783095,,,,,,,,,,,,,7,1.3228,0,51,51,42,1,,,,,,,,,,,,,,,,,,,,,,,,,,,,,,,,,,,,,,,,,,,,,,,,,,,,,,,,,,,,,,,,,,,,,,
,,,,3,2.3421,,,,,,62,kitchen,rose,,89355,001,2022-04-21_13h46.58.218,SPAMnetsValid,2021.1.4,Win32,60.11783095,,,,,,,,,,,,,3,2.3421,0,52,52,57,1,,,,,,,,,,,,,,,,,,,,,,,,,,,,,,,,,,,,,,,,,,,,,,,,,,,,,,,,,,,,,,,,,,,,,,
,,,,8,1.7518,,,,,,24,cookie,tomato,,89355,001,2022-04-21_13h46.58.218,SPAMnetsValid,2021.1.4,Win32,60.11783095,,,,,,,,,,,,,8,1.7518,0,53,53,68,1,,,,,,,,,,,,,,,,,,,,,,,,,,,,,,,,,,,,,,,,,,,,,,,,,,,,,,,,,,,,,,,,,,,,,,
,,,,4,2.9622,,,,,,27,cactus,cookie,,89355,001,2022-04-21_13h46.58.218,SPAMnetsValid,2021.1.4,Win32,60.11783095,,,,,,,,,,,,,4,2.9622,0,54,54,17,1,,,,,,,,,,,,,,,,,,,,,,,,,,,,,,,,,,,,,,,,,,,,,,,,,,,,,,,,,,,,,,,,,,,,,,
,,,,8,3.481,,,,,,12,cookie,yogurt,,89355,001,2022-04-21_13h46.58.218,SPAMnetsValid,2021.1.4,Win32,60.11783095,,,,,,,,,,,,,8,3.481,0,55,55,36,1,,,,,,,,,,,,,,,,,,,,,,,,,,,,,,,,,,,,,,,,,,,,,,,,,,,,,,,,,,,,,,,,,,,,,,
,,,,6,1.9637,,,,,,48,flower,oven,,89355,001,2022-04-21_13h46.58.218,SPAMnetsValid,2021.1.4,Win32,60.11783095,,,,,,,,,,,,,6,1.9637,0,56,56,15,1,,,,,,,,,,,,,,,,,,,,,,,,,,,,,,,,,,,,,,,,,,,,,,,,,,,,,,,,,,,,,,,,,,,,,,
,,,,3,8.7596,,,,,,88,cactus,melon,,89355,001,2022-04-21_13h46.58.218,SPAMnetsValid,2021.1.4,Win32,60.11783095,,,,,,,,,,,,,3,8.7596,0,57,57,38,1,,,,,,,,,,,,,,,,,,,,,,,,,,,,,,,,,,,,,,,,,,,,,,,,,,,,,,,,,,,,,,,,,,,,,,
,,,,9,1.7052,,,,,,192,microwave,microwave,CHECK,89355,001,2022-04-21_13h46.58.218,SPAMnetsValid,2021.1.4,Win32,60.11783095,,,,,,,,,,,,,9,1.7052,0,58,58,53,1,,,,,,,,,,,,,,,,,,,,,,,,,,,,,,,,,,,,,,,,,,,,,,,,,,,,,,,,,,,,,,,,,,,,,,
,,,,3,1.6765,,,,,,5,oven,tree,,89355,001,2022-04-21_13h46.58.218,SPAMnetsValid,2021.1.4,Win32,60.11783095,,,,,,,,,,,,,3,1.6765,0,59,59,70,1,,,,,,,,,,,,,,,,,,,,,,,,,,,,,,,,,,,,,,,,,,,,,,,,,,,,,,,,,,,,,,,,,,,,,,
,,,,6,1.6737,,,,,,84,oven,tomato,,89355,001,2022-04-21_13h46.58.218,SPAMnetsValid,2021.1.4,Win32,60.11783095,,,,,,,,,,,,,6,1.6737,0,60,60,28,1,,,,,,,,,,,,,,,,,,,,,,,,,,,,,,,,,,,,,,,,,,,,,,,,,,,,,,,,,,,,,,,,,,,,,,
,,,,9,1.7712,,,,,,76,garden,rose,,89355,001,2022-04-21_13h46.58.218,SPAMnetsValid,2021.1.4,Win32,60.11783095,,,,,,,,,,,,,9,1.7712,0,61,61,19,1,,,,,,,,,,,,,,,,,,,,,,,,,,,,,,,,,,,,,,,,,,,,,,,,,,,,,,,,,,,,,,,,,,,,,,
,,,,7,1.343,,,,,,15,onion,oven,,89355,001,2022-04-21_13h46.58.218,SPAMnetsValid,2021.1.4,Win32,60.11783095,,,,,,,,,,,,,7,1.343,0,62,62,39,1,,,,,,,,,,,,,,,,,,,,,,,,,,,,,,,,,,,,,,,,,,,,,,,,,,,,,,,,,,,,,,,,,,,,,,
,,,,7,1.7873,,,,,,64,chocolate,garden,,89355,001,2022-04-21_13h46.58.218,SPAMnetsValid,2021.1.4,Win32,60.11783095,,,,,,,,,,,,,7,1.7873,0,63,63,14,1,,,,,,,,,,,,,,,,,,,,,,,,,,,,,,,,,,,,,,,,,,,,,,,,,,,,,,,,,,,,,,,,,,,,,,
,,,,7,1.5535,,,,,,80,chocolate,tree,,89355,001,2022-04-21_13h46.58.218,SPAMnetsValid,2021.1.4,Win32,60.11783095,,,,,,,,,,,,,7,1.5535,0,64,64,89,1,,,,,,,,,,,,,,,,,,,,,,,,,,,,,,,,,,,,,,,,,,,,,,,,,,,,,,,,,,,,,,,,,,,,,,
,,,,7,1.4315,,,,,,35,flower,pretzel,,89355,001,2022-04-21_13h46.58.218,SPAMnetsValid,2021.1.4,Win32,60.11783095,,,,,,,,,,,,,7,1.4315,0,65,65,26,1,,,,,,,,,,,,,,,,,,,,,,,,,,,,,,,,,,,,,,,,,,,,,,,,,,,,,,,,,,,,,,,,,,,,,,
,,,,7,1.6179,,,,,,33,oven,yogurt,,89355,001,2022-04-21_13h46.58.218,SPAMnetsValid,2021.1.4,Win32,60.11783095,,,,,,,,,,,,,7,1.6179,0,66,66,31,1,,,,,,,,,,,,,,,,,,,,,,,,,,,,,,,,,,,,,,,,,,,,,,,,,,,,,,,,,,,,,,,,,,,,,,
,,,,1,1.6374,,,,,,41,broom,cactus,,89355,001,2022-04-21_13h46.58.218,SPAMnetsValid,2021.1.4,Win32,60.11783095,,,,,,,,,,,,,1,1.6374,0,67,67,46,1,,,,,,,,,,,,,,,,,,,,,,,,,,,,,,,,,,,,,,,,,,,,,,,,,,,,,,,,,,,,,,,,,,,,,,
,,,,9,1.886,,,,,,191,cake,cake,CHECK,89355,001,2022-04-21_13h46.58.218,SPAMnetsValid,2021.1.4,Win32,60.11783095,,,,,,,,,,,,,9,1.886,0,68,68,10,1,,,,,,,,,,,,,,,,,,,,,,,,,,,,,,,,,,,,,,,,,,,,,,,,,,,,,,,,,,,,,,,,,,,,,,
,,,,8,1.3714,,,,,,66,melon,yogurt,,89355,001,2022-04-21_13h46.58.218,SPAMnetsValid,2021.1.4,Win32,60.11783095,,,,,,,,,,,,,8,1.3714,0,69,69,48,1,,,,,,,,,,,,,,,,,,,,,,,,,,,,,,,,,,,,,,,,,,,,,,,,,,,,,,,,,,,,,,,,,,,,,,
,,,,6,1.6344,,,,,,78,cookie,rose,,89355,001,2022-04-21_13h46.58.218,SPAMnetsValid,2021.1.4,Win32,60.11783095,,,,,,,,,,,,,6,1.6344,0,70,70,56,1,,,,,,,,,,,,,,,,,,,,,,,,,,,,,,,,,,,,,,,,,,,,,,,,,,,,,,,,,,,,,,,,,,,,,,
,,,,1,3.5041,,,,,,74,broom,pretzel,,89355,001,2022-04-21_13h46.58.218,SPAMnetsValid,2021.1.4,Win32,60.11783095,,,,,,,,,,,,,1,3.5041,0,71,71,40,1,,,,,,,,,,,,,,,,,,,,,,,,,,,,,,,,,,,,,,,,,,,,,,,,,,,,,,,,,,,,,,,,,,,,,,
,,,,8,1.4204,,,,,,75,cookie,onion,,89355,001,2022-04-21_13h46.58.218,SPAMnetsValid,2021.1.4,Win32,60.11783095,,,,,,,,,,,,,8,1.4204,0,72,72,9,1,,,,,,,,,,,,,,,,,,,,,,,,,,,,,,,,,,,,,,,,,,,,,,,,,,,,,,,,,,,,,,,,,,,,,,
,,,,6,4.2711,,,,,,79,garden,strawberry,,89355,001,2022-04-21_13h46.58.218,SPAMnetsValid,2021.1.4,Win32,60.11783095,,,,,,,,,,,,,6,4.2711,0,73,73,87,1,,,,,,,,,,,,,,,,,,,,,,,,,,,,,,,,,,,,,,,,,,,,,,,,,,,,,,,,,,,,,,,,,,,,,,
,,,,7,3.7396,,,,,,82,cake,kitchen,,89355,001,2022-04-21_13h46.58.218,SPAMnetsValid,2021.1.4,Win32,60.11783095,,,,,,,,,,,,,7,3.7396,0,74,74,96,1,,,,,,,,,,,,,,,,,,,,,,,,,,,,,,,,,,,,,,,,,,,,,,,,,,,,,,,,,,,,,,,,,,,,,,
,,,,7,33.5768,,,,,,38,pretzel,refrigerator,,89355,001,2022-04-21_13h46.58.218,SPAMnetsValid,2021.1.4,Win32,60.11783095,,,,,,,,,,,,,7,33.5768,0,75,75,71,1,,,,,,,,,,,,,,,,,,,,,,,,,,,,,,,,,,,,,,,,,,,,,,,,,,,,,,,,,,,,,,,,,,,,,,
,,,,9,1.5767,,,,,,3,cake,oven,,89355,001,2022-04-21_13h46.58.218,SPAMnetsValid,2021.1.4,Win32,60.11783095,,,,,,,,,,,,,9,1.5767,0,76,76,30,1,,,,,,,,,,,,,,,,,,,,,,,,,,,,,,,,,,,,,,,,,,,,,,,,,,,,,,,,,,,,,,,,,,,,,,
,,,,8,1.1425,,,,,,29,chocolate,melon,,89355,001,2022-04-21_13h46.58.218,SPAMnetsValid,2021.1.4,Win32,60.11783095,,,,,,,,,,,,,8,1.1425,0,77,77,34,1,,,,,,,,,,,,,,,,,,,,,,,,,,,,,,,,,,,,,,,,,,,,,,,,,,,,,,,,,,,,,,,,,,,,,,
,,,,6,1.3358,,,,,,85,cake,tree,,89355,001,2022-04-21_13h46.58.218,SPAMnetsValid,2021.1.4,Win32,60.11783095,,,,,,,,,,,,,6,1.3358,0,78,78,18,1,,,,,,,,,,,,,,,,,,,,,,,,,,,,,,,,,,,,,,,,,,,,,,,,,,,,,,,,,,,,,,,,,,,,,,
,,,,9,11.4107,,,,,,9,kitchen,refrigerator,,89355,001,2022-04-21_13h46.58.218,SPAMnetsValid,2021.1.4,Win32,60.11783095,,,,,,,,,,,,,9,11.4107,0,79,79,64,1,,,,,,,,,,,,,,,,,,,,,,,,,,,,,,,,,,,,,,,,,,,,,,,,,,,,,,,,,,,,,,,,,,,,,,
,,,,8,1.0842,,,,,,2,kitchen,onion,,89355,001,2022-04-21_13h46.58.218,SPAMnetsValid,2021.1.4,Win32,60.11783095,,,,,,,,,,,,,8,1.0842,0,80,80,91,1,,,,,,,,,,,,,,,,,,,,,,,,,,,,,,,,,,,,,,,,,,,,,,,,,,,,,,,,,,,,,,,,,,,,,,
,,,,2,1.2722,,,,,,92,broom,flower,,89355,001,2022-04-21_13h46.58.218,SPAMnetsValid,2021.1.4,Win32,60.11783095,,,,,,,,,,,,,2,1.2722,0,81,81,88,1,,,,,,,,,,,,,,,,,,,,,,,,,,,,,,,,,,,,,,,,,,,,,,,,,,,,,,,,,,,,,,,,,,,,,,
,,,,8,1.3347,,,,,,70,chocolate,onion,,89355,001,2022-04-21_13h46.58.218,SPAMnetsValid,2021.1.4,Win32,60.11783095,,,,,,,,,,,,,8,1.3347,0,82,82,74,1,,,,,,,,,,,,,,,,,,,,,,,,,,,,,,,,,,,,,,,,,,,,,,,,,,,,,,,,,,,,,,,,,,,,,,
,,,,8,0.7137,,,,,,4,chocolate,pretzel,,89355,001,2022-04-21_13h46.58.218,SPAMnetsValid,2021.1.4,Win32,60.11783095,,,,,,,,,,,,,8,0.7137,0,83,83,52,1,,,,,,,,,,,,,,,,,,,,,,,,,,,,,,,,,,,,,,,,,,,,,,,,,,,,,,,,,,,,,,,,,,,,,,
,,,,6,1.6285,,,,,,59,rose,strawberry,,89355,001,2022-04-21_13h46.58.218,SPAMnetsValid,2021.1.4,Win32,60.11783095,,,,,,,,,,,,,6,1.6285,0,84,84,72,1,,,,,,,,,,,,,,,,,,,,,,,,,,,,,,,,,,,,,,,,,,,,,,,,,,,,,,,,,,,,,,,,,,,,,,
,,,,8,1.8702,,,,,,45,onion,pretzel,,89355,001,2022-04-21_13h46.58.218,SPAMnetsValid,2021.1.4,Win32,60.11783095,,,,,,,,,,,,,8,1.8702,0,85,85,69,1,,,,,,,,,,,,,,,,,,,,,,,,,,,,,,,,,,,,,,,,,,,,,,,,,,,,,,,,,,,,,,,,,,,,,,
,,,,8,2.1287,,,,,,17,carrot,melon,,89355,001,2022-04-21_13h46.58.218,SPAMnetsValid,2021.1.4,Win32,60.11783095,,,,,,,,,,,,,8,2.1287,0,86,86,24,1,,,,,,,,,,,,,,,,,,,,,,,,,,,,,,,,,,,,,,,,,,,,,,,,,,,,,,,,,,,,,,,,,,,,,,
,,,,7,2.3336,,,,,,22,kitchen,strawberry,,89355,001,2022-04-21_13h46.58.218,SPAMnetsValid,2021.1.4,Win32,60.11783095,,,,,,,,,,,,,7,2.3336,0,87,87,2,1,,,,,,,,,,,,,,,,,,,,,,,,,,,,,,,,,,,,,,,,,,,,,,,,,,,,,,,,,,,,,,,,,,,,,,
,,,,8,1.1871,,,,,,21,cake,onion,,89355,001,2022-04-21_13h46.58.218,SPAMnetsValid,2021.1.4,Win32,60.11783095,,,,,,,,,,,,,8,1.1871,0,88,88,63,1,,,,,,,,,,,,,,,,,,,,,,,,,,,,,,,,,,,,,,,,,,,,,,,,,,,,,,,,,,,,,,,,,,,,,,
,,,,8,0.9811,,,,,,28,cake,melon,,89355,001,2022-04-21_13h46.58.218,SPAMnetsValid,2021.1.4,Win32,60.11783095,,,,,,,,,,,,,8,0.9811,0,89,89,54,1,,,,,,,,,,,,,,,,,,,,,,,,,,,,,,,,,,,,,,,,,,,,,,,,,,,,,,,,,,,,,,,,,,,,,,
,,,,6,2.0529,,,,,,1,rose,yogurt,,89355,001,2022-04-21_13h46.58.218,SPAMnetsValid,2021.1.4,Win32,60.11783095,,,,,,,,,,,,,6,2.0529,0,90,90,55,1,,,,,,,,,,,,,,,,,,,,,,,,,,,,,,,,,,,,,,,,,,,,,,,,,,,,,,,,,,,,,,,,,,,,,,
,,,,6,1.3524,,,,,,49,flower,strawberry,,89355,001,2022-04-21_13h46.58.218,SPAMnetsValid,2021.1.4,Win32,60.11783095,,,,,,,,,,,,,6,1.3524,0,91,91,3,1,,,,,,,,,,,,,,,,,,,,,,,,,,,,,,,,,,,,,,,,,,,,,,,,,,,,,,,,,,,,,,,,,,,,,,
,,,,8,1.4265,,,,,,26,tomato,yogurt,,89355,001,2022-04-21_13h46.58.218,SPAMnetsValid,2021.1.4,Win32,60.11783095,,,,,,,,,,,,,8,1.4265,0,92,92,13,1,,,,,,,,,,,,,,,,,,,,,,,,,,,,,,,,,,,,,,,,,,,,,,,,,,,,,,,,,,,,,,,,,,,,,,
,,,,2,1.4233,,,,,,71,broom,rose,,89355,001,2022-04-21_13h46.58.218,SPAMnetsValid,2021.1.4,Win32,60.11783095,,,,,,,,,,,,,2,1.4233,0,93,93,61,1,,,,,,,,,,,,,,,,,,,,,,,,,,,,,,,,,,,,,,,,,,,,,,,,,,,,,,,,,,,,,,,,,,,,,,
,,,,2,2.2702,,,,,,23,flower,microwave,,89355,001,2022-04-21_13h46.58.218,SPAMnetsValid,2021.1.4,Win32,60.11783095,,,,,,,,,,,,,2,2.2702,0,94,94,25,1,,,,,,,,,,,,,,,,,,,,,,,,,,,,,,,,,,,,,,,,,,,,,,,,,,,,,,,,,,,,,,,,,,,,,,
,,,,2,11.9127,,,,,,31,cactus,pretzel,,89355,001,2022-04-21_13h46.58.218,SPAMnetsValid,2021.1.4,Win32,60.11783095,,,,,,,,,,,,,2,11.9127,0,95,95,1,1,,,,,,,,,,,,,,,,,,,,,,,,,,,,,,,,,,,,,,,,,,,,,,,,,,,,,,,,,,,,,,,,,,,,,,
,,,,1,1.7352,,,,,,40,broom,cake,,89355,001,2022-04-21_13h46.58.218,SPAMnetsValid,2021.1.4,Win32,60.11783095,,,,,,,,,,,,,1,1.7352,0,96,96,32,1,,,,,,,,,,,,,,,,,,,,,,,,,,,,,,,,,,,,,,,,,,,,,,,,,,,,,,,,,,,,,,,,,,,,,,
,,,,,,,,,,,,,,,89355,001,2022-04-21_13h46.58.218,SPAMnetsValid,2021.1.4,Win32,60.11783095,,,,,,,,,,,,,,,,,,,,0,0,0,0,1,,,,,,,,,,,,,,,,,,,,,,,,,,,,,,,,,,,,,,,,,,,,,,,,,,,,,,,,,,,,,,,,,
,,,,,,,,,,,,,,,89355,001,2022-04-21_13h46.58.218,SPAMnetsValid,2021.1.4,Win32,60.11783095,,,,,,0,1,1,0,1,1,0,,,,,,,,,,,,,,,,,,,,,,,,,,,,,,,,,,,,,,,,,,,,,,,,,,,,,,,,,,,,,,,,,,,,,,,,,,,,,
,,,,,,,,,,,,,,,89355,001,2022-04-21_13h46.58.218,SPAMnetsValid,2021.1.4,Win32,60.11783095,,,,,,,,,,,,,,,,,,,,,,,,,3,1.3683,0,0,0,0,1,rancor,forbearance,ridicule,malice,bravery,3,,,,,,,,,,,,,,,,,,,,,,,,,,,,,,,,,,,,,,,,,,,,,,,,,,,,
,,,,,,,,,,,,,,,89355,001,2022-04-21_13h46.58.218,SPAMnetsValid,2021.1.4,Win32,60.11783095,,,,,,,,,,,,,,,,,,,,,,,,,4,2.5262,0,1,1,1,1,raucous,empty,quiet,smooth,harsh,4,,,,,,,,,,,,,,,,,,,,,,,,,,,,,,,,,,,,,,,,,,,,,,,,,,,,
,,,,,,,,,,,,,,,89355,001,2022-04-21_13h46.58.218,SPAMnetsValid,2021.1.4,Win32,60.11783095,,,,,,,,,,,,,,,,,,,,,,,,,3,3.6535,0,2,2,2,1,gargoyle,oil,medicine,carved waterspout,ugly building,3,,,,,,,,,,,,,,,,,,,,,,,,,,,,,,,,,,,,,,,,,,,,,,,,,,,,
,,,,,,,,,,,,,,,89355,001,2022-04-21_13h46.58.218,SPAMnetsValid,2021.1.4,Win32,60.11783095,,,,,,,,,,,,,,,,,,,,,,,,,3,1.3252,0,3,3,3,1,recrudesce,purify,renew activity,lack refinement,crush,2,,,,,,,,,,,,,,,,,,,,,,,,,,,,,,,,,,,,,,,,,,,,,,,,,,,,
,,,,,,,,,,,,,,,89355,001,2022-04-21_13h46.58.218,SPAMnetsValid,2021.1.4,Win32,60.11783095,,,,,,,,,,,,,,,,,,,,,,,,,3,1.2233,0,4,4,4,1,specious,"plausible, but not genuine",noteworthy,class or variety,roomy,1,,,,,,,,,,,,,,,,,,,,,,,,,,,,,,,,,,,,,,,,,,,,,,,,,,,,
,,,,,,,,,,,,,,,89355,001,2022-04-21_13h46.58.218,SPAMnetsValid,2021.1.4,Win32,60.11783095,,,,,,,,,,,,,,,,,,,,,,,,,3,1.4792,0,5,5,5,1,bauble,bubble,showy plaything,idle talk,confusion,2,,,,,,,,,,,,,,,,,,,,,,,,,,,,,,,,,,,,,,,,,,,,,,,,,,,,
,,,,,,,,,,,,,,,89355,001,2022-04-21_13h46.58.218,SPAMnetsValid,2021.1.4,Win32,60.11783095,,,,,,,,,,,,,,,,,,,,,,,,,2,1.4585,0,6,6,6,1,prolific,scarce,producing abundantly,reckless,speaking profanely,2,,,,,,,,,,,,,,,,,,,,,,,,,,,,,,,,,,,,,,,,,,,,,,,,,,,,
,,,,,,,,,,,,,,,89355,001,2022-04-21_13h46.58.218,SPAMnetsValid,2021.1.4,Win32,60.11783095,,,,,,,,,,,,,,,,,,,,,,,,,2,1.3119,0,7,7,7,1,opulent,party,wealthy,happy frame of mind,semiprecious stone,2,,,,,,,,,,,,,,,,,,,,,,,,,,,,,,,,,,,,,,,,,,,,,,,,,,,,
,,,,,,,,,,,,,,,89355,001,2022-04-21_13h46.58.218,SPAMnetsValid,2021.1.4,Win32,60.11783095,,,,,,,,,,,,,,,,,,,,,,,,,1,1.9058,0,8,8,8,1,coercion,conspiracy,strategy,restraint,attraction,3,,,,,,,,,,,,,,,,,,,,,,,,,,,,,,,,,,,,,,,,,,,,,,,,,,,,
,,,,,,,,,,,,,,,89355,001,2022-04-21_13h46.58.218,SPAMnetsValid,2021.1.4,Win32,60.11783095,,,,,,,,,,,,,,,,,,,,,,,,,4,1.9791,0,9,9,9,1,hiatus,animal,calamity,dread,gap,4,,,,,,,,,,,,,,,,,,,,,,,,,,,,,,,,,,,,,,,,,,,,,,,,,,,,
,,,,,,,,,,,,,,,89355,001,2022-04-21_13h46.58.218,SPAMnetsValid,2021.1.4,Win32,60.11783095,,,,,,,,,,,,,,,,,,,,,,,,,2,1.8463,0,10,10,10,1,germane,microbe,contagious,relevant,different,3,,,,,,,,,,,,,,,,,,,,,,,,,,,,,,,,,,,,,,,,,,,,,,,,,,,,
,,,,,,,,,,,,,,,89355,001,2022-04-21_13h46.58.218,SPAMnetsValid,2021.1.4,Win32,60.11783095,,,,,,,,,,,,,,,,,,,,,,,,,1,1.6168,0,11,11,11,1,perfunctory,fundamental,formal,superficial,careful,3,,,,,,,,,,,,,,,,,,,,,,,,,,,,,,,,,,,,,,,,,,,,,,,,,,,,
,,,,,,,,,,,,,,,89355,001,2022-04-21_13h46.58.218,SPAMnetsValid,2021.1.4,Win32,60.11783095,,,,,,,,,,,,,,,,,,,,,,,,,4,1.3765,0,12,12,12,1,diverge,reveal,chant,distract the attention of,differ or turn off from,4,,,,,,,,,,,,,,,,,,,,,,,,,,,,,,,,,,,,,,,,,,,,,,,,,,,,
,,,,,,,,,,,,,,,89355,001,2022-04-21_13h46.58.218,SPAMnetsValid,2021.1.4,Win32,60.11783095,,,,,,,,,,,,,,,,,,,,,,,,,4,1.2766,0,13,13,13,1,evoke,take away,anger,connect,bring out,4,,,,,,,,,,,,,,,,,,,,,,,,,,,,,,,,,,,,,,,,,,,,,,,,,,,,
,,,,,,,,,,,,,,,89355,001,2022-04-21_13h46.58.218,SPAMnetsValid,2021.1.4,Win32,60.11783095,,,,,,,,,,,,,,,,,,,,,,,,,1,2.7056,0,14,14,14,1,pertinent,relevant,lying next to,necessary,bold,1,,,,,,,,,,,,,,,,,,,,,,,,,,,,,,,,,,,,,,,,,,,,,,,,,,,,
,,,,,,,,,,,,,,,89355,001,2022-04-21_13h46.58.218,SPAMnetsValid,2021.1.4,Win32,60.11783095,,,,,,,,,,,,,,,,,,,,,,,,,2,1.4724,0,15,15,15,1,holocaust,entirety,destruction,saintly,price,2,,,,,,,,,,,,,,,,,,,,,,,,,,,,,,,,,,,,,,,,,,,,,,,,,,,,
,,,,,,,,,,,,,,,89355,001,2022-04-21_13h46.58.218,SPAMnetsValid,2021.1.4,Win32,60.11783095,,,,,,,,,,,,,,,,,,,,,,,,,3,2.4549,0,16,16,16,1,piquant,mellow,fish,pungent,cloth,3,,,,,,,,,,,,,,,,,,,,,,,,,,,,,,,,,,,,,,,,,,,,,,,,,,,,
,,,,,,,,,,,,,,,89355,001,2022-04-21_13h46.58.218,SPAMnetsValid,2021.1.4,Win32,60.11783095,,,,,,,,,,,,,,,,,,,,,,,,,1,2.7953,0,17,17,17,1,firmament,foundation,heavens,strong,glue,2,,,,,,,,,,,,,,,,,,,,,,,,,,,,,,,,,,,,,,,,,,,,,,,,,,,,
,,,,,,,,,,,,,,,89355,001,2022-04-21_13h46.58.218,SPAMnetsValid,2021.1.4,Win32,60.11783095,,,,,,,,,,,,,,,,,,,,,,,,,,,,,,,,,,,,,,4,4.3994,0,0,0,0,1,marketable,partisan,jocular,marriageable,salable,essential,4,,,,,,,,,,,,,,,,,,,,,,,,,,,,,,,,,,,,,,
,,,,,,,,,,,,,,,89355,001,2022-04-21_13h46.58.218,SPAMnetsValid,2021.1.4,Win32,60.11783095,,,,,,,,,,,,,,,,,,,,,,,,,,,,,,,,,,,,,,5,2.2815,0,1,1,1,1,cottontail,squirrel,poplar,boa,marshy plant,rabbit,5,,,,,,,,,,,,,,,,,,,,,,,,,,,,,,,,,,,,,,
,,,,,,,,,,,,,,,89355,001,2022-04-21_13h46.58.218,SPAMnetsValid,2021.1.4,Win32,60.11783095,,,,,,,,,,,,,,,,,,,,,,,,,,,,,,,,,,,,,,3,1.3891,0,2,2,2,1,boggy,afraid,false,marshy,dense,black,3,,,,,,,,,,,,,,,,,,,,,,,,,,,,,,,,,,,,,,
,,,,,,,,,,,,,,,89355,001,2022-04-21_13h46.58.218,SPAMnetsValid,2021.1.4,Win32,60.11783095,,,,,,,,,,,,,,,,,,,,,,,,,,,,,,,,,,,,,,5,3.2606,0,3,3,3,1,gruesomeness,blackness,falseness,vindictiveness,drunkenness,ghastliness,5,,,,,,,,,,,,,,,,,,,,,,,,,,,,,,,,,,,,,,
,,,,,,,,,,,,,,,89355,001,2022-04-21_13h46.58.218,SPAMnetsValid,2021.1.4,Win32,60.11783095,,,,,,,,,,,,,,,,,,,,,,,,,,,,,,,,,,,,,,3,3.8611,0,4,4,4,1,loathing,diffidence,laziness,abhorrence,cleverness,comfort,3,,,,,,,,,,,,,,,,,,,,,,,,,,,,,,,,,,,,,,
,,,,,,,,,,,,,,,89355,001,2022-04-21_13h46.58.218,SPAMnetsValid,2021.1.4,Win32,60.11783095,,,,,,,,,,,,,,,,,,,,,,,,,,,,,,,,,,,,,,2,2.9039,0,5,5,5,1,bantam,fowl,ridicule,cripple,vegetable,ensign,1,,,,,,,,,,,,,,,,,,,,,,,,,,,,,,,,,,,,,,
,,,,,,,,,,,,,,,89355,001,2022-04-21_13h46.58.218,SPAMnetsValid,2021.1.4,Win32,60.11783095,,,,,,,,,,,,,,,,,,,,,,,,,,,,,,,,,,,,,,5,2.6258,0,6,6,6,1,evoke,wake up,surrender,reconnoiter,transcend,call forth,5,,,,,,,,,,,,,,,,,,,,,,,,,,,,,,,,,,,,,,
,,,,,,,,,,,,,,,89355,001,2022-04-21_13h46.58.218,SPAMnetsValid,2021.1.4,Win32,60.11783095,,,,,,,,,,,,,,,,,,,,,,,,,,,,,,,,,,,,,,4,1.523,0,7,7,7,1,unobtrusive,unintelligent,epileptic,illogical,lineal,modest,5,,,,,,,,,,,,,,,,,,,,,,,,,,,,,,,,,,,,,,
,,,,,,,,,,,,,,,89355,001,2022-04-21_13h46.58.218,SPAMnetsValid,2021.1.4,Win32,60.11783095,,,,,,,,,,,,,,,,,,,,,,,,,,,,,,,,,,,,,,,,0,8,8,8,1,terrain,ice cream,final test,tractor,area of ground,weight,4,,,,,,,,,,,,,,,,,,,,,,,,,,,,,,,,,,,,,,
,,,,,,,,,,,,,,,89355,001,2022-04-21_13h46.58.218,SPAMnetsValid,2021.1.4,Win32,60.11783095,,,,,,,,,,,,,,,,,,,,,,,,,,,,,,,,,,,,,,5,3.4729,0,9,9,9,1,capriciousness,stubbornness,courage,whimsicality,amazement,greediness,3,,,,,,,,,,,,,,,,,,,,,,,,,,,,,,,,,,,,,,
,,,,,,,,,,,,,,,89355,001,2022-04-21_13h46.58.218,SPAMnetsValid,2021.1.4,Win32,60.11783095,,,,,,,,,,,,,,,,,,,,,,,,,,,,,,,,,,,,,,5,7.9402,0,10,10,10,1,maelstrom,slander,whirlpool,enmity,armor,majolica,2,,,,,,,,,,,,,,,,,,,,,,,,,,,,,,,,,,,,,,
,,,,,,,,,,,,,,,89355,001,2022-04-21_13h46.58.218,SPAMnetsValid,2021.1.4,Win32,60.11783095,,,,,,,,,,,,,,,,,,,,,,,,,,,,,,,,,,,,,,4,3.9389,0,11,11,11,1,tentative,critical,conclusive,authentic,provisional,apprehensive,4,,,,,,,,,,,,,,,,,,,,,,,,,,,,,,,,,,,,,,
,,,,,,,,,,,,,,,89355,001,2022-04-21_13h46.58.218,SPAMnetsValid,2021.1.4,Win32,60.11783095,,,,,,,,,,,,,,,,,,,,,,,,,,,,,,,,,,,,,,4,4.0561,0,12,12,12,1,placate,rehabilitate,plagiarize,depredate,apprise,conciliate,5,,,,,,,,,,,,,,,,,,,,,,,,,,,,,,,,,,,,,,
,,,,,,,,,,,,,,,89355,001,2022-04-21_13h46.58.218,SPAMnetsValid,2021.1.4,Win32,60.11783095,,,,,,,,,,,,,,,,,,,,,,,,,,,,,,,,,,,,,,5,12.7325,0,13,13,13,1,surcease,enlightenment,cessation,inattention,censor,substitution,2,,,,,,,,,,,,,,,,,,,,,,,,,,,,,,,,,,,,,,
,,,,,,,,,,,,,,,89355,001,2022-04-21_13h46.58.218,SPAMnetsValid,2021.1.4,Win32,60.11783095,,,,,,,,,,,,,,,,,,,,,,,,,,,,,,,,,,,,,,3,2.7038,0,14,14,14,1,apathetic,wandering,impassive,hateful,prophetic,overflowing,2,,,,,,,,,,,,,,,,,,,,,,,,,,,,,,,,,,,,,,
,,,,,,,,,,,,,,,89355,001,2022-04-21_13h46.58.218,SPAMnetsValid,2021.1.4,Win32,60.11783095,,,,,,,,,,,,,,,,,,,,,,,,,,,,,,,,,,,,,,3,16.7117,0,15,15,15,1,paternoster,paternalism,patricide,malediction,benediction,prayer,5,,,,,,,,,,,,,,,,,,,,,,,,,,,,,,,,,,,,,,
,,,,,,,,,,,,,,,89355,001,2022-04-21_13h46.58.218,SPAMnetsValid,2021.1.4,Win32,60.11783095,,,,,,,,,,,,,,,,,,,,,,,,,,,,,,,,,,,,,,4,2.008,0,16,16,16,1,opalescence,opulence,senescence,bankruptcy,iridescence,assiduity,4,,,,,,,,,,,,,,,,,,,,,,,,,,,,,,,,,,,,,,
,,,,,,,,,,,,,,,89355,001,2022-04-21_13h46.58.218,SPAMnetsValid,2021.1.4,Win32,60.11783095,,,,,,,,,,,,,,,,,,,,,,,,,,,,,,,,,,,,,,2,1.6425,0,17,17,17,1,lush,stupid,luxurious,hazy,putrid,languishing,2,,,,,,,,,,,,,,,,,,,,,,,,,,,,,,,,,,,,,,
,,,,,,,,,,,,,,,89355,001,2022-04-21_13h46.58.218,SPAMnetsValid,2021.1.4,Win32,60.11783095,,,,,,,,,,,,,,,,,,,,,,,,,,,,,,,,,,,,,,3,1.7771,0,18,18,18,1,curtailment,expenditure,abandonment,abridgment,improvement,forgery,3,,,,,,,,,,,,,,,,,,,,,,,,,,,,,,,,,,,,,,
,,,,,,,,,,,,,,,89355,001,2022-04-21_13h46.58.218,SPAMnetsValid,2021.1.4,Win32,60.11783095,,,,,,,,,,,,,,,,,,,,,,,,,,,,,,,,,,,,,,2,2.6544,0,19,19,19,1,perversity,adversity,perviousness,travesty,waywardness,gentility,4,,,,,,,,,,,,,,,,,,,,,,,,,,,,,,,,,,,,,,
,,,,,,,,,,,,,,,89355,001,2022-04-21_13h46.58.218,SPAMnetsValid,2021.1.4,Win32,60.11783095,,,,,,,,,,,,,,,,,,,,,,,,,,,,,,,,,,,,,,3,9.571,0,20,20,20,1,calumnious,complimentary,analogous,slanderous,tempestuous,magnanimous,3,,,,,,,,,,,,,,,,,,,,,,,,,,,,,,,,,,,,,,
,,,,,,,,,,,,,,,89355,001,2022-04-21_13h46.58.218,SPAMnetsValid,2021.1.4,Win32,60.11783095,,,,,,,,,,,,,,,,,,,,,,,,,,,,,,,,,,,,,,3,1.4766,0,21,21,21,1,illiberality,bigotry,imbecility,illegibility,cautery,immaturity,1,,,,,,,,,,,,,,,,,,,,,,,,,,,,,,,,,,,,,,
,,,,,,,,,,,,,,,89355,001,2022-04-21_13h46.58.218,SPAMnetsValid,2021.1.4,Win32,60.11783095,,,,,,,,,,,,,,,,,,,,,,,,,,,,,,,,,,,,,,2,2.4557,0,22,22,22,1,clabber,rejoice,gossip,curdle,crow,hobble,3,,,,,,,,,,,,,,,,,,,,,,,,,,,,,,,,,,,,,,
,,,,,,,,,,,,,,,89355,001,2022-04-21_13h46.58.218,SPAMnetsValid,2021.1.4,Win32,60.11783095,,,,,,,,,,,,,,,,,,,,,,,,,,,,,,,,,,,,,,4,2.7774,0,23,23,23,1,sedulousness,diligence,credulousness,seduction,perilousness,frankness,1,,,,,,,,,,,,,,,,,,,,,,,,,,,,,,,,,,,,,,
,,,,,,,,,,,,,,,89355,001,2022-04-21_13h46.58.218,SPAMnetsValid,2021.1.4,Win32,60.11783095,,,,,,,,,,,,,,,,,,,,,,,,,,,,,,,,,,,,,,,,,,,,,,,,,,,,hat,bucket,0,0,0,0,1,,,,,,,,,,,,,,,,,,,,,,,,,,,,,,,
,,,,,,,,,,,,,,,89355,001,2022-04-21_13h46.58.218,SPAMnetsValid,2021.1.4,Win32,60.11783095,,,,,,,,,,,,,,,,,,,,,,,,,,,,,,,,,,,,,,,,,,,,,,,,,,,,collect liquid,bucket,1,0,1,0,1,,,,,,,,,,,,,,,,,,,,,,,,,,,,,,,
,,,,,,,,,,,,,,,89355,001,2022-04-21_13h46.58.218,SPAMnetsValid,2021.1.4,Win32,60.11783095,,,,,,,,,,,,,,,,,,,,,,,,,,,,,,,,,,,,,,,,,,,,,,,,,,,,storage,bucket,2,0,2,0,1,,,,,,,,,,,,,,,,,,,,,,,,,,,,,,,
,,,,,,,,,,,,,,,89355,001,2022-04-21_13h46.58.218,SPAMnetsValid,2021.1.4,Win32,60.11783095,,,,,,,,,,,,,,,,,,,,,,,,,,,,,,,,,,,,,,,,,,,,,,,,,,,,drum,bucket,3,0,3,0,1,,,,,,,,,,,,,,,,,,,,,,,,,,,,,,,
,,,,,,,,,,,,,,,89355,001,2022-04-21_13h46.58.218,SPAMnetsValid,2021.1.4,Win32,60.11783095,,,,,,,,,,,,,,,,,,,,,,,,,,,,,,,,,,,,,,,,,,,,,,,,,,,,speaker,bucket,4,0,4,0,1,,,,,,,,,,,,,,,,,,,,,,,,,,,,,,,
,,,,,,,,,,,,,,,89355,001,2022-04-21_13h46.58.218,SPAMnetsValid,2021.1.4,Win32,60.11783095,,,,,,,,,,,,,,,,,,,,,,,,,,,,,,,,,,,,,,,,,,,,,,,,,,,,cooking,bucket,5,0,5,0,1,,,,,,,,,,,,,,,,,,,,,,,,,,,,,,,
,,,,,,,,,,,,,,,89355,001,2022-04-21_13h46.58.218,SPAMnetsValid,2021.1.4,Win32,60.11783095,,,,,,,,,,,,,,,,,,,,,,,,,,,,,,,,,,,,,,,,,,,,,,,,,,,,fire,bucket,6,0,6,0,1,,,,,,,,,,,,,,,,,,,,,,,,,,,,,,,
,,,,,,,,,,,,,,,89355,001,2022-04-21_13h46.58.218,SPAMnetsValid,2021.1.4,Win32,60.11783095,,,,,,,,,,,,,,,,,,,,,,,,,,,,,,,,,,,,,,,,,,,,,,,,,,,,,,,,,,,0,0,0,0,1,bucket,,,,,,,,,,,,,,,,,,,,,,,,,
,,,,,,,,,,,,,,,89355,001,2022-04-21_13h46.58.218,SPAMnetsValid,2021.1.4,Win32,60.11783095,,,,,,,,,,,,,,,,,,,,,,,,,,,,,,,,,,,,,,,,,,,,,,,,,,,,absorb liquid ,pillow,0,0,0,0,1,,,,,,,,,,,,,,,,,,,,,,,,,,,,,,,
,,,,,,,,,,,,,,,89355,001,2022-04-21_13h46.58.218,SPAMnetsValid,2021.1.4,Win32,60.11783095,,,,,,,,,,,,,,,,,,,,,,,,,,,,,,,,,,,,,,,,,,,,,,,,,,,,absorb sound,pillow,1,0,1,0,1,,,,,,,,,,,,,,,,,,,,,,,,,,,,,,,
,,,,,,,,,,,,,,,89355,001,2022-04-21_13h46.58.218,SPAMnetsValid,2021.1.4,Win32,60.11783095,,,,,,,,,,,,,,,,,,,,,,,,,,,,,,,,,,,,,,,,,,,,,,,,,,,,comfort,pillow,2,0,2,0,1,,,,,,,,,,,,,,,,,,,,,,,,,,,,,,,
,,,,,,,,,,,,,,,89355,001,2022-04-21_13h46.58.218,SPAMnetsValid,2021.1.4,Win32,60.11783095,,,,,,,,,,,,,,,,,,,,,,,,,,,,,,,,,,,,,,,,,,,,,,,,,,,,weapon,pillow,3,0,3,0,1,,,,,,,,,,,,,,,,,,,,,,,,,,,,,,,
,,,,,,,,,,,,,,,89355,001,2022-04-21_13h46.58.218,SPAMnetsValid,2021.1.4,Win32,60.11783095,,,,,,,,,,,,,,,,,,,,,,,,,,,,,,,,,,,,,,,,,,,,,,,,,,,,use stuffing for something ,pillow,4,0,4,0,1,,,,,,,,,,,,,,,,,,,,,,,,,,,,,,,
,,,,,,,,,,,,,,,89355,001,2022-04-21_13h46.58.218,SPAMnetsValid,2021.1.4,Win32,60.11783095,,,,,,,,,,,,,,,,,,,,,,,,,,,,,,,,,,,,,,,,,,,,,,,,,,,,clothes,pillow,5,0,5,0,1,,,,,,,,,,,,,,,,,,,,,,,,,,,,,,,
,,,,,,,,,,,,,,,89355,001,2022-04-21_13h46.58.218,SPAMnetsValid,2021.1.4,Win32,60.11783095,,,,,,,,,,,,,,,,,,,,,,,,,,,,,,,,,,,,,,,,,,,,,,,,,,,,blanket,pillow,6,0,6,0,1,,,,,,,,,,,,,,,,,,,,,,,,,,,,,,,
,,,,,,,,,,,,,,,89355,001,2022-04-21_13h46.58.218,SPAMnetsValid,2021.1.4,Win32,60.11783095,,,,,,,,,,,,,,,,,,,,,,,,,,,,,,,,,,,,,,,,,,,,,,,,,,,,fire starter,pillow,7,0,7,0,1,,,,,,,,,,,,,,,,,,,,,,,,,,,,,,,
,,,,,,,,,,,,,,,89355,001,2022-04-21_13h46.58.218,SPAMnetsValid,2021.1.4,Win32,60.11783095,,,,,,,,,,,,,,,,,,,,,,,,,,,,,,,,,,,,,,,,,,,,,,,,,,,,,,,,,,,0,1,1,2,1,pillow,,,,,,,,,,,,,,,,,,,,,,,,,
,,,,,,,,,,,,,,,89355,001,2022-04-21_13h46.58.218,SPAMnetsValid,2021.1.4,Win32,60.11783095,,,,,,,,,,,,,,,,,,,,,,,,,,,,,,,,,,,,,,,,,,,,,,,,,,,,light,candle,0,0,0,0,1,,,,,,,,,,,,,,,,,,,,,,,,,,,,,,,
,,,,,,,,,,,,,,,89355,001,2022-04-21_13h46.58.218,SPAMnetsValid,2021.1.4,Win32,60.11783095,,,,,,,,,,,,,,,,,,,,,,,,,,,,,,,,,,,,,,,,,,,,,,,,,,,,heat,candle,1,0,1,0,1,,,,,,,,,,,,,,,,,,,,,,,,,,,,,,,
,,,,,,,,,,,,,,,89355,001,2022-04-21_13h46.58.218,SPAMnetsValid,2021.1.4,Win32,60.11783095,,,,,,,,,,,,,,,,,,,,,,,,,,,,,,,,,,,,,,,,,,,,,,,,,,,,cooking,candle,2,0,2,0,1,,,,,,,,,,,,,,,,,,,,,,,,,,,,,,,
,,,,,,,,,,,,,,,89355,001,2022-04-21_13h46.58.218,SPAMnetsValid,2021.1.4,Win32,60.11783095,,,,,,,,,,,,,,,,,,,,,,,,,,,,,,,,,,,,,,,,,,,,,,,,,,,,weapon,candle,3,0,3,0,1,,,,,,,,,,,,,,,,,,,,,,,,,,,,,,,
,,,,,,,,,,,,,,,89355,001,2022-04-21_13h46.58.218,SPAMnetsValid,2021.1.4,Win32,60.11783095,,,,,,,,,,,,,,,,,,,,,,,,,,,,,,,,,,,,,,,,,,,,,,,,,,,,air freshener,candle,4,0,4,0,1,,,,,,,,,,,,,,,,,,,,,,,,,,,,,,,
,,,,,,,,,,,,,,,89355,001,2022-04-21_13h46.58.218,SPAMnetsValid,2021.1.4,Win32,60.11783095,,,,,,,,,,,,,,,,,,,,,,,,,,,,,,,,,,,,,,,,,,,,,,,,,,,,wax for sealant,candle,5,0,5,0,1,,,,,,,,,,,,,,,,,,,,,,,,,,,,,,,
,,,,,,,,,,,,,,,89355,001,2022-04-21_13h46.58.218,SPAMnetsValid,2021.1.4,Win32,60.11783095,,,,,,,,,,,,,,,,,,,,,,,,,,,,,,,,,,,,,,,,,,,,,,,,,,,,support for something,candle,6,0,6,0,1,,,,,,,,,,,,,,,,,,,,,,,,,,,,,,,
,,,,,,,,,,,,,,,89355,001,2022-04-21_13h46.58.218,SPAMnetsValid,2021.1.4,Win32,60.11783095,,,,,,,,,,,,,,,,,,,,,,,,,,,,,,,,,,,,,,,,,,,,,,,,,,,,cooking,candle,7,0,7,0,1,,,,,,,,,,,,,,,,,,,,,,,,,,,,,,,
,,,,,,,,,,,,,,,89355,001,2022-04-21_13h46.58.218,SPAMnetsValid,2021.1.4,Win32,60.11783095,,,,,,,,,,,,,,,,,,,,,,,,,,,,,,,,,,,,,,,,,,,,,,,,,,,,,,,,,,,0,2,2,1,1,candle,,,,,,,,,,,,,,,,,,,,,,,,,
,,,,,,,,,,,,,,,89355,001,2022-04-21_13h46.58.218,SPAMnetsValid,2021.1.4,Win32,60.11783095,,,,,,,,,,,,,,,,,,,,,,,,,,,,,,,,,,,,,,,,,,,,,,,,,,,,,,,,,,,,,,,,,dog,Animals,0,0,0,0,1,,,,,,,,,,,,,,,,,,
,,,,,,,,,,,,,,,89355,001,2022-04-21_13h46.58.218,SPAMnetsValid,2021.1.4,Win32,60.11783095,,,,,,,,,,,,,,,,,,,,,,,,,,,,,,,,,,,,,,,,,,,,,,,,,,,,,,,,,,,,,,,,,cat,Animals,1,0,1,0,1,,,,,,,,,,,,,,,,,,
,,,,,,,,,,,,,,,89355,001,2022-04-21_13h46.58.218,SPAMnetsValid,2021.1.4,Win32,60.11783095,,,,,,,,,,,,,,,,,,,,,,,,,,,,,,,,,,,,,,,,,,,,,,,,,,,,,,,,,,,,,,,,,bird,Animals,2,0,2,0,1,,,,,,,,,,,,,,,,,,
,,,,,,,,,,,,,,,89355,001,2022-04-21_13h46.58.218,SPAMnetsValid,2021.1.4,Win32,60.11783095,,,,,,,,,,,,,,,,,,,,,,,,,,,,,,,,,,,,,,,,,,,,,,,,,,,,,,,,,,,,,,,,,bear,Animals,3,0,3,0,1,,,,,,,,,,,,,,,,,,
,,,,,,,,,,,,,,,89355,001,2022-04-21_13h46.58.218,SPAMnetsValid,2021.1.4,Win32,60.11783095,,,,,,,,,,,,,,,,,,,,,,,,,,,,,,,,,,,,,,,,,,,,,,,,,,,,,,,,,,,,,,,,,monkey,Animals,4,0,4,0,1,,,,,,,,,,,,,,,,,,
,,,,,,,,,,,,,,,89355,001,2022-04-21_13h46.58.218,SPAMnetsValid,2021.1.4,Win32,60.11783095,,,,,,,,,,,,,,,,,,,,,,,,,,,,,,,,,,,,,,,,,,,,,,,,,,,,,,,,,,,,,,,,,rhino,Animals,5,0,5,0,1,,,,,,,,,,,,,,,,,,
,,,,,,,,,,,,,,,89355,001,2022-04-21_13h46.58.218,SPAMnetsValid,2021.1.4,Win32,60.11783095,,,,,,,,,,,,,,,,,,,,,,,,,,,,,,,,,,,,,,,,,,,,,,,,,,,,,,,,,,,,,,,,,giraffe,Animals,6,0,6,0,1,,,,,,,,,,,,,,,,,,
,,,,,,,,,,,,,,,89355,001,2022-04-21_13h46.58.218,SPAMnetsValid,2021.1.4,Win32,60.11783095,,,,,,,,,,,,,,,,,,,,,,,,,,,,,,,,,,,,,,,,,,,,,,,,,,,,,,,,,,,,,,,,,frog,Animals,7,0,7,0,1,,,,,,,,,,,,,,,,,,
,,,,,,,,,,,,,,,89355,001,2022-04-21_13h46.58.218,SPAMnetsValid,2021.1.4,Win32,60.11783095,,,,,,,,,,,,,,,,,,,,,,,,,,,,,,,,,,,,,,,,,,,,,,,,,,,,,,,,,,,,,,,,,dragon,Animals,8,0,8,0,1,,,,,,,,,,,,,,,,,,
,,,,,,,,,,,,,,,89355,001,2022-04-21_13h46.58.218,SPAMnetsValid,2021.1.4,Win32,60.11783095,,,,,,,,,,,,,,,,,,,,,,,,,,,,,,,,,,,,,,,,,,,,,,,,,,,,,,,,,,,,,,,,,lizard,Animals,9,0,9,0,1,,,,,,,,,,,,,,,,,,
,,,,,,,,,,,,,,,89355,001,2022-04-21_13h46.58.218,SPAMnetsValid,2021.1.4,Win32,60.11783095,,,,,,,,,,,,,,,,,,,,,,,,,,,,,,,,,,,,,,,,,,,,,,,,,,,,,,,,,,,,,,,,,chameleon,Animals,10,0,10,0,1,,,,,,,,,,,,,,,,,,
,,,,,,,,,,,,,,,89355,001,2022-04-21_13h46.58.218,SPAMnetsValid,2021.1.4,Win32,60.11783095,,,,,,,,,,,,,,,,,,,,,,,,,,,,,,,,,,,,,,,,,,,,,,,,,,,,,,,,,,,,,,,,,orangutang,Animals,11,0,11,0,1,,,,,,,,,,,,,,,,,,
,,,,,,,,,,,,,,,89355,001,2022-04-21_13h46.58.218,SPAMnetsValid,2021.1.4,Win32,60.11783095,,,,,,,,,,,,,,,,,,,,,,,,,,,,,,,,,,,,,,,,,,,,,,,,,,,,,,,,,,,,,,,,,chimp,Animals,12,0,12,0,1,,,,,,,,,,,,,,,,,,
,,,,,,,,,,,,,,,89355,001,2022-04-21_13h46.58.218,SPAMnetsValid,2021.1.4,Win32,60.11783095,,,,,,,,,,,,,,,,,,,,,,,,,,,,,,,,,,,,,,,,,,,,,,,,,,,,,,,,,,,,,,,,,gorilla,Animals,13,0,13,0,1,,,,,,,,,,,,,,,,,,
,,,,,,,,,,,,,,,89355,001,2022-04-21_13h46.58.218,SPAMnetsValid,2021.1.4,Win32,60.11783095,,,,,,,,,,,,,,,,,,,,,,,,,,,,,,,,,,,,,,,,,,,,,,,,,,,,,,,,,,,,,,,,,kangaroo,Animals,14,0,14,0,1,,,,,,,,,,,,,,,,,,
,,,,,,,,,,,,,,,89355,001,2022-04-21_13h46.58.218,SPAMnetsValid,2021.1.4,Win32,60.11783095,,,,,,,,,,,,,,,,,,,,,,,,,,,,,,,,,,,,,,,,,,,,,,,,,,,,,,,,,,,,,,,,,hippo,Animals,15,0,15,0,1,,,,,,,,,,,,,,,,,,
,,,,,,,,,,,,,,,89355,001,2022-04-21_13h46.58.218,SPAMnetsValid,2021.1.4,Win32,60.11783095,,,,,,,,,,,,,,,,,,,,,,,,,,,,,,,,,,,,,,,,,,,,,,,,,,,,,,,,,,,,,,,,,elephant,Animals,16,0,16,0,1,,,,,,,,,,,,,,,,,,
,,,,,,,,,,,,,,,89355,001,2022-04-21_13h46.58.218,SPAMnetsValid,2021.1.4,Win32,60.11783095,,,,,,,,,,,,,,,,,,,,,,,,,,,,,,,,,,,,,,,,,,,,,,,,,,,,,,,,,,,,,,,,,lion,Animals,17,0,17,0,1,,,,,,,,,,,,,,,,,,
,,,,,,,,,,,,,,,89355,001,2022-04-21_13h46.58.218,SPAMnetsValid,2021.1.4,Win32,60.11783095,,,,,,,,,,,,,,,,,,,,,,,,,,,,,,,,,,,,,,,,,,,,,,,,,,,,,,,,,,,,,,,,,jaguar,Animals,18,0,18,0,1,,,,,,,,,,,,,,,,,,
,,,,,,,,,,,,,,,89355,001,2022-04-21_13h46.58.218,SPAMnetsValid,2021.1.4,Win32,60.11783095,,,,,,,,,,,,,,,,,,,,,,,,,,,,,,,,,,,,,,,,,,,,,,,,,,,,,,,,,,,,,,,,,leopard,Animals,19,0,19,0,1,,,,,,,,,,,,,,,,,,
,,,,,,,,,,,,,,,89355,001,2022-04-21_13h46.58.218,SPAMnetsValid,2021.1.4,Win32,60.11783095,,,,,,,,,,,,,,,,,,,,,,,,,,,,,,,,,,,,,,,,,,,,,,,,,,,,,,,,,,,,,,,,,lynx,Animals,20,0,20,0,1,,,,,,,,,,,,,,,,,,
,,,,,,,,,,,,,,,89355,001,2022-04-21_13h46.58.218,SPAMnetsValid,2021.1.4,Win32,60.11783095,,,,,,,,,,,,,,,,,,,,,,,,,,,,,,,,,,,,,,,,,,,,,,,,,,,,,,,,,,,,,,,,,bobcat,Animals,21,0,21,0,1,,,,,,,,,,,,,,,,,,
,,,,,,,,,,,,,,,89355,001,2022-04-21_13h46.58.218,SPAMnetsValid,2021.1.4,Win32,60.11783095,,,,,,,,,,,,,,,,,,,,,,,,,,,,,,,,,,,,,,,,,,,,,,,,,,,,,,,,,,,,,,,,,fish,Animals,22,0,22,0,1,,,,,,,,,,,,,,,,,,
,,,,,,,,,,,,,,,89355,001,2022-04-21_13h46.58.218,SPAMnetsValid,2021.1.4,Win32,60.11783095,,,,,,,,,,,,,,,,,,,,,,,,,,,,,,,,,,,,,,,,,,,,,,,,,,,,,,,,,,,,,,,,,turtle,Animals,23,0,23,0,1,,,,,,,,,,,,,,,,,,
,,,,,,,,,,,,,,,89355,001,2022-04-21_13h46.58.218,SPAMnetsValid,2021.1.4,Win32,60.11783095,,,,,,,,,,,,,,,,,,,,,,,,,,,,,,,,,,,,,,,,,,,,,,,,,,,,,,,,,,,,,,,,,tortoise,Animals,24,0,24,0,1,,,,,,,,,,,,,,,,,,
,,,,,,,,,,,,,,,89355,001,2022-04-21_13h46.58.218,SPAMnetsValid,2021.1.4,Win32,60.11783095,,,,,,,,,,,,,,,,,,,,,,,,,,,,,,,,,,,,,,,,,,,,,,,,,,,,,,,,,,,,,,,,,hare,Animals,25,0,25,0,1,,,,,,,,,,,,,,,,,,
,,,,,,,,,,,,,,,89355,001,2022-04-21_13h46.58.218,SPAMnetsValid,2021.1.4,Win32,60.11783095,,,,,,,,,,,,,,,,,,,,,,,,,,,,,,,,,,,,,,,,,,,,,,,,,,,,,,,,,,,,,,,,,bunny,Animals,26,0,26,0,1,,,,,,,,,,,,,,,,,,
,,,,,,,,,,,,,,,89355,001,2022-04-21_13h46.58.218,SPAMnetsValid,2021.1.4,Win32,60.11783095,,,,,,,,,,,,,,,,,,,,,,,,,,,,,,,,,,,,,,,,,,,,,,,,,,,,,,,,,,,,,,,,,oppossum,Animals,27,0,27,0,1,,,,,,,,,,,,,,,,,,
,,,,,,,,,,,,,,,89355,001,2022-04-21_13h46.58.218,SPAMnetsValid,2021.1.4,Win32,60.11783095,,,,,,,,,,,,,,,,,,,,,,,,,,,,,,,,,,,,,,,,,,,,,,,,,,,,,,,,,,,,,,,,,raccoon,Animals,28,0,28,0,1,,,,,,,,,,,,,,,,,,
,,,,,,,,,,,,,,,89355,001,2022-04-21_13h46.58.218,SPAMnetsValid,2021.1.4,Win32,60.11783095,,,,,,,,,,,,,,,,,,,,,,,,,,,,,,,,,,,,,,,,,,,,,,,,,,,,,,,,,,,,,,,,,mouse,Animals,29,0,29,0,1,,,,,,,,,,,,,,,,,,
,,,,,,,,,,,,,,,89355,001,2022-04-21_13h46.58.218,SPAMnetsValid,2021.1.4,Win32,60.11783095,,,,,,,,,,,,,,,,,,,,,,,,,,,,,,,,,,,,,,,,,,,,,,,,,,,,,,,,,,,,,,,,,squirrel,Animals,30,0,30,0,1,,,,,,,,,,,,,,,,,,
,,,,,,,,,,,,,,,89355,001,2022-04-21_13h46.58.218,SPAMnetsValid,2021.1.4,Win32,60.11783095,,,,,,,,,,,,,,,,,,,,,,,,,,,,,,,,,,,,,,,,,,,,,,,,,,,,,,,,,,,,,,,,,turkey,Animals,31,0,31,0,1,,,,,,,,,,,,,,,,,,
,,,,,,,,,,,,,,,89355,001,2022-04-21_13h46.58.218,SPAMnetsValid,2021.1.4,Win32,60.11783095,,,,,,,,,,,,,,,,,,,,,,,,,,,,,,,,,,,,,,,,,,,,,,,,,,,,,,,,,,,,,,,,,chicken,Animals,32,0,32,0,1,,,,,,,,,,,,,,,,,,
,,,,,,,,,,,,,,,89355,001,2022-04-21_13h46.58.218,SPAMnetsValid,2021.1.4,Win32,60.11783095,,,,,,,,,,,,,,,,,,,,,,,,,,,,,,,,,,,,,,,,,,,,,,,,,,,,,,,,,,,,,,,,,horse,Animals,33,0,33,0,1,,,,,,,,,,,,,,,,,,
,,,,,,,,,,,,,,,89355,001,2022-04-21_13h46.58.218,SPAMnetsValid,2021.1.4,Win32,60.11783095,,,,,,,,,,,,,,,,,,,,,,,,,,,,,,,,,,,,,,,,,,,,,,,,,,,,,,,,,,,,,,,,,pig,Animals,34,0,34,0,1,,,,,,,,,,,,,,,,,,
,,,,,,,,,,,,,,,89355,001,2022-04-21_13h46.58.218,SPAMnetsValid,2021.1.4,Win32,60.11783095,,,,,,,,,,,,,,,,,,,,,,,,,,,,,,,,,,,,,,,,,,,,,,,,,,,,,,,,,,,,,,,,,cow,Animals,35,0,35,0,1,,,,,,,,,,,,,,,,,,
,,,,,,,,,,,,,,,89355,001,2022-04-21_13h46.58.218,SPAMnetsValid,2021.1.4,Win32,60.11783095,,,,,,,,,,,,,,,,,,,,,,,,,,,,,,,,,,,,,,,,,,,,,,,,,,,,,,,,,,,,,,,,,sheep,Animals,36,0,36,0,1,,,,,,,,,,,,,,,,,,
,,,,,,,,,,,,,,,89355,001,2022-04-21_13h46.58.218,SPAMnetsValid,2021.1.4,Win32,60.11783095,,,,,,,,,,,,,,,,,,,,,,,,,,,,,,,,,,,,,,,,,,,,,,,,,,,,,,,,,,,,,,,,,goat,Animals,37,0,37,0,1,,,,,,,,,,,,,,,,,,
,,,,,,,,,,,,,,,89355,001,2022-04-21_13h46.58.218,SPAMnetsValid,2021.1.4,Win32,60.11783095,,,,,,,,,,,,,,,,,,,,,,,,,,,,,,,,,,,,,,,,,,,,,,,,,,,,,,,,,,,,,,,,,mountain lion,Animals,38,0,38,0,1,,,,,,,,,,,,,,,,,,
,,,,,,,,,,,,,,,89355,001,2022-04-21_13h46.58.218,SPAMnetsValid,2021.1.4,Win32,60.11783095,,,,,,,,,,,,,,,,,,,,,,,,,,,,,,,,,,,,,,,,,,,,,,,,,,,,,,,,,,,,,,,,,,,,,,,,0,0,0,0,1,Animals,,,,,,,,,,,,
,,,,,,,,,,,,,,,89355,001,2022-04-21_13h46.58.218,SPAMnetsValid,2021.1.4,Win32,60.11783095,,,,,,,,,,,,,,,,,,,,,,,,,,,,,,,,,,,,,,,,,,,,,,,,,,,,,,,,,,,,,,,,,,,,,,,,,,,,,,4,3.3387,0,0,0,0,1,"I enjoy concentrating on a fantasy or daydream and exploring all its possibilities, letting it grow and develop.",0,1,,
,,,,,,,,,,,,,,,89355,001,2022-04-21_13h46.58.218,SPAMnetsValid,2021.1.4,Win32,60.11783095,,,,,,,,,,,,,,,,,,,,,,,,,,,,,,,,,,,,,,,,,,,,,,,,,,,,,,,,,,,,,,,,,,,,,,,,,,,,,,4,1.7311,0,1,1,1,1,I think it's interesting to learn and develop new hobbies.,0,2,,
,,,,,,,,,,,,,,,89355,001,2022-04-21_13h46.58.218,SPAMnetsValid,2021.1.4,Win32,60.11783095,,,,,,,,,,,,,,,,,,,,,,,,,,,,,,,,,,,,,,,,,,,,,,,,,,,,,,,,,,,,,,,,,,,,,,,,,,,,,,4,0.9494,0,2,2,2,1,I am intrigued by the patterns I find in art and nature.,0,3,,
,,,,,,,,,,,,,,,89355,001,2022-04-21_13h46.58.218,SPAMnetsValid,2021.1.4,Win32,60.11783095,,,,,,,,,,,,,,,,,,,,,,,,,,,,,,,,,,,,,,,,,,,,,,,,,,,,,,,,,,,,,,,,,,,,,,,,,,,,,,1,1.6948,0,3,3,3,1,I believe letting students hear controversial speakers can only confuse and mislead them.,1,4,,
,,,,,,,,,,,,,,,89355,001,2022-04-21_13h46.58.218,SPAMnetsValid,2021.1.4,Win32,60.11783095,,,,,,,,,,,,,,,,,,,,,,,,,,,,,,,,,,,,,,,,,,,,,,,,,,,,,,,,,,,,,,,,,,,,,,,,,,,,,,2,2.3109,0,4,4,4,1,Poetry has little or no effect on me.,1,5,,
,,,,,,,,,,,,,,,89355,001,2022-04-21_13h46.58.218,SPAMnetsValid,2021.1.4,Win32,60.11783095,,,,,,,,,,,,,,,,,,,,,,,,,,,,,,,,,,,,,,,,,,,,,,,,,,,,,,,,,,,,,,,,,,,,,,,,,,,,,,2,2.7784,0,5,5,5,1,I would have difficulty just letting my mind wander without control or guidance.,1,6,,
,,,,,,,,,,,,,,,89355,001,2022-04-21_13h46.58.218,SPAMnetsValid,2021.1.4,Win32,60.11783095,,,,,,,,,,,,,,,,,,,,,,,,,,,,,,,,,,,,,,,,,,,,,,,,,,,,,,,,,,,,,,,,,,,,,,,,,,,,,,1,3.992,0,6,6,6,1,I seldom notice the moods or feelings that different environments produce.,1,7,,
,,,,,,,,,,,,,,,89355,001,2022-04-21_13h46.58.218,SPAMnetsValid,2021.1.4,Win32,60.11783095,,,,,,,,,,,,,,,,,,,,,,,,,,,,,,,,,,,,,,,,,,,,,,,,,,,,,,,,,,,,,,,,,,,,,,,,,,,,,,4,2.6658,0,7,7,7,1,I experience a wide range of emotions or feelings.,0,8,,
,,,,,,,,,,,,,,,89355,001,2022-04-21_13h46.58.218,SPAMnetsValid,2021.1.4,Win32,60.11783095,,,,,,,,,,,,,,,,,,,,,,,,,,,,,,,,,,,,,,,,,,,,,,,,,,,,,,,,,,,,,,,,,,,,,,,,,,,,,,4,2.0425,0,8,8,8,1,"Sometimes when I am reading poetry or looking at a work of art, I feel a chill or wave of excitement.",0,9,,
,,,,,,,,,,,,,,,89355,001,2022-04-21_13h46.58.218,SPAMnetsValid,2021.1.4,Win32,60.11783095,,,,,,,,,,,,,,,,,,,,,,,,,,,,,,,,,,,,,,,,,,,,,,,,,,,,,,,,,,,,,,,,,,,,,,,,,,,,,,1,2.3238,0,9,9,9,1,I have little interest in speculating on the nature of the universe or the human condition.,1,10,,
,,,,,,,,,,,,,,,89355,001,2022-04-21_13h46.58.218,SPAMnetsValid,2021.1.4,Win32,60.11783095,,,,,,,,,,,,,,,,,,,,,,,,,,,,,,,,,,,,,,,,,,,,,,,,,,,,,,,,,,,,,,,,,,,,,,,,,,,,,,4,1.7398,0,10,10,10,1,I have a lot of intellectual curiosity.,0,11,,
,,,,,,,,,,,,,,,89355,001,2022-04-21_13h46.58.218,SPAMnetsValid,2021.1.4,Win32,60.11783095,,,,,,,,,,,,,,,,,,,,,,,,,,,,,,,,,,,,,,,,,,,,,,,,,,,,,,,,,,,,,,,,,,,,,,,,,,,,,,4,1.1586,0,11,11,11,1,I often enjoy playing with theories or abstract ideas.,0,12,,
,,,,,,,,,,,,,,,89355,001,2022-04-21_13h46.58.218,SPAMnetsValid,2021.1.4,Win32,60.11783095,,,,,,,,,,,,,,,,,,,,,,,,,,,,,,,,,,,,,,,,,,,,,,,,,,,,,,,,,,,,,,,,,,,,,,,,,,,,,,,,,,,,,,,,return,1.0199
