key_resp_3.keys,key_resp_3.rt,slider_2.response,slider_2.rt,rjt_rating,rjt_RT,trials_24.thisRepN,trials_24.thisTrialN,trials_24.thisN,trials_24.thisIndex,trials_24.ran,rjt_order,word1,word2,attention,participant,session,date,expName,psychopyVersion,OS,frameRate,trials_4.thisRepN,trials_4.thisTrialN,trials_4.thisN,trials_4.thisIndex,trials_4.ran,trials_5.thisRepN,trials_5.thisTrialN,trials_5.thisN,trials_5.thisIndex,trials_5.ran,repOne,repTwo,slider.response,slider.rt,trials_22.thisRepN,trials_22.thisTrialN,trials_22.thisN,trials_22.thisIndex,trials_22.ran,trials_99.thisRepN,trials_99.thisTrialN,trials_99.thisN,trials_99.thisIndex,trials_99.ran,slider_extend_2.response,slider_extend_2.rt,trials_6.thisRepN,trials_6.thisTrialN,trials_6.thisN,trials_6.thisIndex,trials_6.ran,vCue2,R1,R2,R3,R4,correct,sliderVocab.response,sliderVocab.rt,trials_7.thisRepN,trials_7.thisTrialN,trials_7.thisN,trials_7.thisIndex,trials_7.ran,VocabCue,VR1,VR2,VR3,VR4,VR5,VocabCorrect,AUT_resp,AUT_label,trials.thisRepN,trials.thisTrialN,trials.thisN,trials.thisIndex,trials.ran,trials_2.thisRepN,trials_2.thisTrialN,trials_2.thisN,trials_2.thisIndex,trials_2.ran,aut_prompt,VF_response,VF_tag,trials_16.thisRepN,trials_16.thisTrialN,trials_16.thisN,trials_16.thisIndex,trials_16.ran,trials_17.thisRepN,trials_17.thisTrialN,trials_17.thisN,trials_17.thisIndex,trials_17.ran,VFcond,open_slider.response,open_slider.rt,trials_3.thisRepN,trials_3.thisTrialN,trials_3.thisN,trials_3.thisIndex,trials_3.ran,OpenQ,Rev,OPEN_ORDER,key_resp_2.keys,key_resp_2.rt
return,6.8722,2,10.2464,2,10.2464,0,0,0,91,1,166,cake,yogurt,,89379,001,2022-04-25_15h53.54.160,SPAMnetsValid,2021.1.4,Win32,59.84082341,,,,,,,,,,,,,,,,,,,,,,,,,,,,,,,,,,,,,,,,,,,,,,,,,,,,,,,,,,,,,,,,,,,,,,,,,,,,,,,,,,,,,,,,,
,,7,3.9342,7,3.9342,0,1,1,60,1,122,flower,garden,,89379,001,2022-04-25_15h53.54.160,SPAMnetsValid,2021.1.4,Win32,59.84082341,,,,,,,,,,,,,,,,,,,,,,,,,,,,,,,,,,,,,,,,,,,,,,,,,,,,,,,,,,,,,,,,,,,,,,,,,,,,,,,,,,,,,,,,,
,,1,3.9576,1,3.9576,0,2,2,19,1,183,cake,rose,,89379,001,2022-04-25_15h53.54.160,SPAMnetsValid,2021.1.4,Win32,59.84082341,,,,,,,,,,,,,,,,,,,,,,,,,,,,,,,,,,,,,,,,,,,,,,,,,,,,,,,,,,,,,,,,,,,,,,,,,,,,,,,,,,,,,,,,,
,,1,2.312,1,2.312,0,3,3,55,1,143,pretzel,rose,,89379,001,2022-04-25_15h53.54.160,SPAMnetsValid,2021.1.4,Win32,59.84082341,,,,,,,,,,,,,,,,,,,,,,,,,,,,,,,,,,,,,,,,,,,,,,,,,,,,,,,,,,,,,,,,,,,,,,,,,,,,,,,,,,,,,,,,,
,,6,3.8008,6,3.8008,0,4,4,66,1,150,microwave,refrigerator,,89379,001,2022-04-25_15h53.54.160,SPAMnetsValid,2021.1.4,Win32,59.84082341,,,,,,,,,,,,,,,,,,,,,,,,,,,,,,,,,,,,,,,,,,,,,,,,,,,,,,,,,,,,,,,,,,,,,,,,,,,,,,,,,,,,,,,,,
,,5,3.2912,5,3.2912,0,5,5,44,1,116,cake,chocolate,,89379,001,2022-04-25_15h53.54.160,SPAMnetsValid,2021.1.4,Win32,59.84082341,,,,,,,,,,,,,,,,,,,,,,,,,,,,,,,,,,,,,,,,,,,,,,,,,,,,,,,,,,,,,,,,,,,,,,,,,,,,,,,,,,,,,,,,,
,,1,2.7264,1,2.7264,0,6,6,81,1,104,garden,microwave,,89379,001,2022-04-25_15h53.54.160,SPAMnetsValid,2021.1.4,Win32,59.84082341,,,,,,,,,,,,,,,,,,,,,,,,,,,,,,,,,,,,,,,,,,,,,,,,,,,,,,,,,,,,,,,,,,,,,,,,,,,,,,,,,,,,,,,,,
,,3,4.9266,3,4.9266,0,7,7,94,1,133,cake,flower,,89379,001,2022-04-25_15h53.54.160,SPAMnetsValid,2021.1.4,Win32,59.84082341,,,,,,,,,,,,,,,,,,,,,,,,,,,,,,,,,,,,,,,,,,,,,,,,,,,,,,,,,,,,,,,,,,,,,,,,,,,,,,,,,,,,,,,,,
,,5,9.1116,5,9.1116,0,8,8,9,1,176,cactus,tomato,,89379,001,2022-04-25_15h53.54.160,SPAMnetsValid,2021.1.4,Win32,59.84082341,,,,,,,,,,,,,,,,,,,,,,,,,,,,,,,,,,,,,,,,,,,,,,,,,,,,,,,,,,,,,,,,,,,,,,,,,,,,,,,,,,,,,,,,,
,,5,4.8435,5,4.8435,0,9,9,70,1,141,melon,tomato,,89379,001,2022-04-25_15h53.54.160,SPAMnetsValid,2021.1.4,Win32,59.84082341,,,,,,,,,,,,,,,,,,,,,,,,,,,,,,,,,,,,,,,,,,,,,,,,,,,,,,,,,,,,,,,,,,,,,,,,,,,,,,,,,,,,,,,,,
,,3,3.4746,3,3.4746,0,10,10,87,1,114,cookie,strawberry,,89379,001,2022-04-25_15h53.54.160,SPAMnetsValid,2021.1.4,Win32,59.84082341,,,,,,,,,,,,,,,,,,,,,,,,,,,,,,,,,,,,,,,,,,,,,,,,,,,,,,,,,,,,,,,,,,,,,,,,,,,,,,,,,,,,,,,,,
,,2,3.2285,2,3.2285,0,11,11,6,1,151,microwave,onion,,89379,001,2022-04-25_15h53.54.160,SPAMnetsValid,2021.1.4,Win32,59.84082341,,,,,,,,,,,,,,,,,,,,,,,,,,,,,,,,,,,,,,,,,,,,,,,,,,,,,,,,,,,,,,,,,,,,,,,,,,,,,,,,,,,,,,,,,
,,6,6.2613,6,6.2613,0,12,12,56,1,113,refrigerator,strawberry,,89379,001,2022-04-25_15h53.54.160,SPAMnetsValid,2021.1.4,Win32,59.84082341,,,,,,,,,,,,,,,,,,,,,,,,,,,,,,,,,,,,,,,,,,,,,,,,,,,,,,,,,,,,,,,,,,,,,,,,,,,,,,,,,,,,,,,,,
,,2,2.1737,2,2.1737,0,13,13,90,1,190,microwave,strawberry,,89379,001,2022-04-25_15h53.54.160,SPAMnetsValid,2021.1.4,Win32,59.84082341,,,,,,,,,,,,,,,,,,,,,,,,,,,,,,,,,,,,,,,,,,,,,,,,,,,,,,,,,,,,,,,,,,,,,,,,,,,,,,,,,,,,,,,,,
,,7,2.35,7,2.35,0,14,14,83,1,100,garden,tomato,,89379,001,2022-04-25_15h53.54.160,SPAMnetsValid,2021.1.4,Win32,59.84082341,,,,,,,,,,,,,,,,,,,,,,,,,,,,,,,,,,,,,,,,,,,,,,,,,,,,,,,,,,,,,,,,,,,,,,,,,,,,,,,,,,,,,,,,,
,,7,2.9078,7,2.9078,0,15,15,14,1,120,microwave,oven,,89379,001,2022-04-25_15h53.54.160,SPAMnetsValid,2021.1.4,Win32,59.84082341,,,,,,,,,,,,,,,,,,,,,,,,,,,,,,,,,,,,,,,,,,,,,,,,,,,,,,,,,,,,,,,,,,,,,,,,,,,,,,,,,,,,,,,,,
,,3,3.1906,3,3.1906,0,16,16,45,1,179,broom,oven,,89379,001,2022-04-25_15h53.54.160,SPAMnetsValid,2021.1.4,Win32,59.84082341,,,,,,,,,,,,,,,,,,,,,,,,,,,,,,,,,,,,,,,,,,,,,,,,,,,,,,,,,,,,,,,,,,,,,,,,,,,,,,,,,,,,,,,,,
,,6,2.0237,6,2.0237,0,17,17,28,1,154,strawberry,yogurt,,89379,001,2022-04-25_15h53.54.160,SPAMnetsValid,2021.1.4,Win32,59.84082341,,,,,,,,,,,,,,,,,,,,,,,,,,,,,,,,,,,,,,,,,,,,,,,,,,,,,,,,,,,,,,,,,,,,,,,,,,,,,,,,,,,,,,,,,
,,4,3.0139,4,3.0139,0,18,18,76,1,102,chocolate,refrigerator,,89379,001,2022-04-25_15h53.54.160,SPAMnetsValid,2021.1.4,Win32,59.84082341,,,,,,,,,,,,,,,,,,,,,,,,,,,,,,,,,,,,,,,,,,,,,,,,,,,,,,,,,,,,,,,,,,,,,,,,,,,,,,,,,,,,,,,,,
,,5,6.8326,5,6.8326,0,19,19,8,1,97,chocolate,kitchen,,89379,001,2022-04-25_15h53.54.160,SPAMnetsValid,2021.1.4,Win32,59.84082341,,,,,,,,,,,,,,,,,,,,,,,,,,,,,,,,,,,,,,,,,,,,,,,,,,,,,,,,,,,,,,,,,,,,,,,,,,,,,,,,,,,,,,,,,
,,5,3.1976,5,3.1976,0,20,20,37,1,139,carrot,strawberry,,89379,001,2022-04-25_15h53.54.160,SPAMnetsValid,2021.1.4,Win32,59.84082341,,,,,,,,,,,,,,,,,,,,,,,,,,,,,,,,,,,,,,,,,,,,,,,,,,,,,,,,,,,,,,,,,,,,,,,,,,,,,,,,,,,,,,,,,
,,1,4.0747,1,4.0747,0,21,21,82,1,98,pretzel,strawberry,,89379,001,2022-04-25_15h53.54.160,SPAMnetsValid,2021.1.4,Win32,59.84082341,,,,,,,,,,,,,,,,,,,,,,,,,,,,,,,,,,,,,,,,,,,,,,,,,,,,,,,,,,,,,,,,,,,,,,,,,,,,,,,,,,,,,,,,,
,,3,32.4366,3,32.4366,0,22,22,65,1,160,cookie,kitchen,,89379,001,2022-04-25_15h53.54.160,SPAMnetsValid,2021.1.4,Win32,59.84082341,,,,,,,,,,,,,,,,,,,,,,,,,,,,,,,,,,,,,,,,,,,,,,,,,,,,,,,,,,,,,,,,,,,,,,,,,,,,,,,,,,,,,,,,,
,,6,4.0388,6,4.0388,0,23,23,17,1,99,garden,melon,,89379,001,2022-04-25_15h53.54.160,SPAMnetsValid,2021.1.4,Win32,59.84082341,,,,,,,,,,,,,,,,,,,,,,,,,,,,,,,,,,,,,,,,,,,,,,,,,,,,,,,,,,,,,,,,,,,,,,,,,,,,,,,,,,,,,,,,,
,,3,2.3063,3,2.3063,0,24,24,35,1,147,cake,refrigerator,,89379,001,2022-04-25_15h53.54.160,SPAMnetsValid,2021.1.4,Win32,59.84082341,,,,,,,,,,,,,,,,,,,,,,,,,,,,,,,,,,,,,,,,,,,,,,,,,,,,,,,,,,,,,,,,,,,,,,,,,,,,,,,,,,,,,,,,,
,,1,2.3571,1,2.3571,0,25,25,57,1,127,cactus,chocolate,,89379,001,2022-04-25_15h53.54.160,SPAMnetsValid,2021.1.4,Win32,59.84082341,,,,,,,,,,,,,,,,,,,,,,,,,,,,,,,,,,,,,,,,,,,,,,,,,,,,,,,,,,,,,,,,,,,,,,,,,,,,,,,,,,,,,,,,,
,,3,3.8084,3,3.8084,0,26,26,40,1,165,onion,rose,,89379,001,2022-04-25_15h53.54.160,SPAMnetsValid,2021.1.4,Win32,59.84082341,,,,,,,,,,,,,,,,,,,,,,,,,,,,,,,,,,,,,,,,,,,,,,,,,,,,,,,,,,,,,,,,,,,,,,,,,,,,,,,,,,,,,,,,,
,,1,1.9268,1,1.9268,0,27,27,59,1,164,cookie,garden,,89379,001,2022-04-25_15h53.54.160,SPAMnetsValid,2021.1.4,Win32,59.84082341,,,,,,,,,,,,,,,,,,,,,,,,,,,,,,,,,,,,,,,,,,,,,,,,,,,,,,,,,,,,,,,,,,,,,,,,,,,,,,,,,,,,,,,,,
,,1,2.0905,1,2.0905,0,28,28,21,1,159,cookie,flower,,89379,001,2022-04-25_15h53.54.160,SPAMnetsValid,2021.1.4,Win32,59.84082341,,,,,,,,,,,,,,,,,,,,,,,,,,,,,,,,,,,,,,,,,,,,,,,,,,,,,,,,,,,,,,,,,,,,,,,,,,,,,,,,,,,,,,,,,
,,2,3.8521,2,3.8521,0,29,29,67,1,96,oven,strawberry,,89379,001,2022-04-25_15h53.54.160,SPAMnetsValid,2021.1.4,Win32,59.84082341,,,,,,,,,,,,,,,,,,,,,,,,,,,,,,,,,,,,,,,,,,,,,,,,,,,,,,,,,,,,,,,,,,,,,,,,,,,,,,,,,,,,,,,,,
,,5,3.4087,5,3.4087,0,30,30,18,1,119,strawberry,tree,,89379,001,2022-04-25_15h53.54.160,SPAMnetsValid,2021.1.4,Win32,59.84082341,,,,,,,,,,,,,,,,,,,,,,,,,,,,,,,,,,,,,,,,,,,,,,,,,,,,,,,,,,,,,,,,,,,,,,,,,,,,,,,,,,,,,,,,,
,,1,2.7804,1,2.7804,0,31,31,34,1,153,carrot,pretzel,,89379,001,2022-04-25_15h53.54.160,SPAMnetsValid,2021.1.4,Win32,59.84082341,,,,,,,,,,,,,,,,,,,,,,,,,,,,,,,,,,,,,,,,,,,,,,,,,,,,,,,,,,,,,,,,,,,,,,,,,,,,,,,,,,,,,,,,,
,,7,2.566,7,2.566,0,32,32,43,1,185,cactus,rose,,89379,001,2022-04-25_15h53.54.160,SPAMnetsValid,2021.1.4,Win32,59.84082341,,,,,,,,,,,,,,,,,,,,,,,,,,,,,,,,,,,,,,,,,,,,,,,,,,,,,,,,,,,,,,,,,,,,,,,,,,,,,,,,,,,,,,,,,
,,1,2.5732,1,2.5732,0,33,33,20,1,149,broom,tomato,,89379,001,2022-04-25_15h53.54.160,SPAMnetsValid,2021.1.4,Win32,59.84082341,,,,,,,,,,,,,,,,,,,,,,,,,,,,,,,,,,,,,,,,,,,,,,,,,,,,,,,,,,,,,,,,,,,,,,,,,,,,,,,,,,,,,,,,,
,,1,1.6894,1,1.6894,0,34,34,32,1,182,flower,refrigerator,,89379,001,2022-04-25_15h53.54.160,SPAMnetsValid,2021.1.4,Win32,59.84082341,,,,,,,,,,,,,,,,,,,,,,,,,,,,,,,,,,,,,,,,,,,,,,,,,,,,,,,,,,,,,,,,,,,,,,,,,,,,,,,,,,,,,,,,,
,,6,2.3318,6,2.3318,0,35,35,10,1,118,chocolate,oven,,89379,001,2022-04-25_15h53.54.160,SPAMnetsValid,2021.1.4,Win32,59.84082341,,,,,,,,,,,,,,,,,,,,,,,,,,,,,,,,,,,,,,,,,,,,,,,,,,,,,,,,,,,,,,,,,,,,,,,,,,,,,,,,,,,,,,,,,
,,3,4.2942,3,4.2942,0,36,36,16,1,111,carrot,microwave,,89379,001,2022-04-25_15h53.54.160,SPAMnetsValid,2021.1.4,Win32,59.84082341,,,,,,,,,,,,,,,,,,,,,,,,,,,,,,,,,,,,,,,,,,,,,,,,,,,,,,,,,,,,,,,,,,,,,,,,,,,,,,,,,,,,,,,,,
,,7,2.1443,7,2.1443,0,37,37,22,1,142,garden,tree,,89379,001,2022-04-25_15h53.54.160,SPAMnetsValid,2021.1.4,Win32,59.84082341,,,,,,,,,,,,,,,,,,,,,,,,,,,,,,,,,,,,,,,,,,,,,,,,,,,,,,,,,,,,,,,,,,,,,,,,,,,,,,,,,,,,,,,,,
,,7,1.9401,7,1.9401,0,38,38,47,1,167,carrot,garden,,89379,001,2022-04-25_15h53.54.160,SPAMnetsValid,2021.1.4,Win32,59.84082341,,,,,,,,,,,,,,,,,,,,,,,,,,,,,,,,,,,,,,,,,,,,,,,,,,,,,,,,,,,,,,,,,,,,,,,,,,,,,,,,,,,,,,,,,
,,1,1.4142,1,1.4142,0,39,39,79,1,103,pretzel,tomato,,89379,001,2022-04-25_15h53.54.160,SPAMnetsValid,2021.1.4,Win32,59.84082341,,,,,,,,,,,,,,,,,,,,,,,,,,,,,,,,,,,,,,,,,,,,,,,,,,,,,,,,,,,,,,,,,,,,,,,,,,,,,,,,,,,,,,,,,
,,3,2.4397,3,2.4397,0,40,40,73,1,135,carrot,oven,,89379,001,2022-04-25_15h53.54.160,SPAMnetsValid,2021.1.4,Win32,59.84082341,,,,,,,,,,,,,,,,,,,,,,,,,,,,,,,,,,,,,,,,,,,,,,,,,,,,,,,,,,,,,,,,,,,,,,,,,,,,,,,,,,,,,,,,,
,,6,1.9126,6,1.9126,0,41,41,69,1,124,oven,refrigerator,,89379,001,2022-04-25_15h53.54.160,SPAMnetsValid,2021.1.4,Win32,59.84082341,,,,,,,,,,,,,,,,,,,,,,,,,,,,,,,,,,,,,,,,,,,,,,,,,,,,,,,,,,,,,,,,,,,,,,,,,,,,,,,,,,,,,,,,,
,,1,2.6441,1,2.6441,0,42,42,74,1,128,melon,microwave,,89379,001,2022-04-25_15h53.54.160,SPAMnetsValid,2021.1.4,Win32,59.84082341,,,,,,,,,,,,,,,,,,,,,,,,,,,,,,,,,,,,,,,,,,,,,,,,,,,,,,,,,,,,,,,,,,,,,,,,,,,,,,,,,,,,,,,,,
,,6,4.5688,6,4.5688,0,43,43,23,1,148,flower,melon,,89379,001,2022-04-25_15h53.54.160,SPAMnetsValid,2021.1.4,Win32,59.84082341,,,,,,,,,,,,,,,,,,,,,,,,,,,,,,,,,,,,,,,,,,,,,,,,,,,,,,,,,,,,,,,,,,,,,,,,,,,,,,,,,,,,,,,,,
,,6,4.0963,6,4.0963,0,44,44,72,1,181,carrot,kitchen,,89379,001,2022-04-25_15h53.54.160,SPAMnetsValid,2021.1.4,Win32,59.84082341,,,,,,,,,,,,,,,,,,,,,,,,,,,,,,,,,,,,,,,,,,,,,,,,,,,,,,,,,,,,,,,,,,,,,,,,,,,,,,,,,,,,,,,,,
,,6,3.7083,6,3.7083,0,45,45,39,1,112,cake,carrot,,89379,001,2022-04-25_15h53.54.160,SPAMnetsValid,2021.1.4,Win32,59.84082341,,,,,,,,,,,,,,,,,,,,,,,,,,,,,,,,,,,,,,,,,,,,,,,,,,,,,,,,,,,,,,,,,,,,,,,,,,,,,,,,,,,,,,,,,
,,6,2.1157,6,2.1157,0,46,46,33,1,131,cactus,garden,,89379,001,2022-04-25_15h53.54.160,SPAMnetsValid,2021.1.4,Win32,59.84082341,,,,,,,,,,,,,,,,,,,,,,,,,,,,,,,,,,,,,,,,,,,,,,,,,,,,,,,,,,,,,,,,,,,,,,,,,,,,,,,,,,,,,,,,,
,,6,7.5439,6,7.5439,0,47,47,27,1,158,cookie,oven,,89379,001,2022-04-25_15h53.54.160,SPAMnetsValid,2021.1.4,Win32,59.84082341,,,,,,,,,,,,,,,,,,,,,,,,,,,,,,,,,,,,,,,,,,,,,,,,,,,,,,,,,,,,,,,,,,,,,,,,,,,,,,,,,,,,,,,,,
,,1,1.9123,1,1.9123,0,48,48,41,1,175,melon,onion,,89379,001,2022-04-25_15h53.54.160,SPAMnetsValid,2021.1.4,Win32,59.84082341,,,,,,,,,,,,,,,,,,,,,,,,,,,,,,,,,,,,,,,,,,,,,,,,,,,,,,,,,,,,,,,,,,,,,,,,,,,,,,,,,,,,,,,,,
,,1,1.7976,1,1.7976,0,49,49,2,1,174,cake,pretzel,,89379,001,2022-04-25_15h53.54.160,SPAMnetsValid,2021.1.4,Win32,59.84082341,,,,,,,,,,,,,,,,,,,,,,,,,,,,,,,,,,,,,,,,,,,,,,,,,,,,,,,,,,,,,,,,,,,,,,,,,,,,,,,,,,,,,,,,,
,,6,1.9576,6,1.9576,0,50,50,75,1,178,cactus,carrot,,89379,001,2022-04-25_15h53.54.160,SPAMnetsValid,2021.1.4,Win32,59.84082341,,,,,,,,,,,,,,,,,,,,,,,,,,,,,,,,,,,,,,,,,,,,,,,,,,,,,,,,,,,,,,,,,,,,,,,,,,,,,,,,,,,,,,,,,
,,6,2.665,6,2.665,0,51,51,92,1,170,cookie,microwave,,89379,001,2022-04-25_15h53.54.160,SPAMnetsValid,2021.1.4,Win32,59.84082341,,,,,,,,,,,,,,,,,,,,,,,,,,,,,,,,,,,,,,,,,,,,,,,,,,,,,,,,,,,,,,,,,,,,,,,,,,,,,,,,,,,,,,,,,
,,1,3.3243,1,3.3243,0,52,52,5,1,108,carrot,chocolate,,89379,001,2022-04-25_15h53.54.160,SPAMnetsValid,2021.1.4,Win32,59.84082341,,,,,,,,,,,,,,,,,,,,,,,,,,,,,,,,,,,,,,,,,,,,,,,,,,,,,,,,,,,,,,,,,,,,,,,,,,,,,,,,,,,,,,,,,
,,6,1.7728,6,1.7728,0,53,53,0,1,106,cake,strawberry,,89379,001,2022-04-25_15h53.54.160,SPAMnetsValid,2021.1.4,Win32,59.84082341,,,,,,,,,,,,,,,,,,,,,,,,,,,,,,,,,,,,,,,,,,,,,,,,,,,,,,,,,,,,,,,,,,,,,,,,,,,,,,,,,,,,,,,,,
,,6,1.5861,6,1.5861,0,54,54,42,1,184,oven,pretzel,,89379,001,2022-04-25_15h53.54.160,SPAMnetsValid,2021.1.4,Win32,59.84082341,,,,,,,,,,,,,,,,,,,,,,,,,,,,,,,,,,,,,,,,,,,,,,,,,,,,,,,,,,,,,,,,,,,,,,,,,,,,,,,,,,,,,,,,,
,,1,1.8271,1,1.8271,0,55,55,68,1,180,tree,yogurt,,89379,001,2022-04-25_15h53.54.160,SPAMnetsValid,2021.1.4,Win32,59.84082341,,,,,,,,,,,,,,,,,,,,,,,,,,,,,,,,,,,,,,,,,,,,,,,,,,,,,,,,,,,,,,,,,,,,,,,,,,,,,,,,,,,,,,,,,
,,1,1.8089,1,1.8089,0,56,56,4,1,109,broom,strawberry,,89379,001,2022-04-25_15h53.54.160,SPAMnetsValid,2021.1.4,Win32,59.84082341,,,,,,,,,,,,,,,,,,,,,,,,,,,,,,,,,,,,,,,,,,,,,,,,,,,,,,,,,,,,,,,,,,,,,,,,,,,,,,,,,,,,,,,,,
,,6,2.1126,6,2.1126,0,57,57,29,1,163,melon,refrigerator,,89379,001,2022-04-25_15h53.54.160,SPAMnetsValid,2021.1.4,Win32,59.84082341,,,,,,,,,,,,,,,,,,,,,,,,,,,,,,,,,,,,,,,,,,,,,,,,,,,,,,,,,,,,,,,,,,,,,,,,,,,,,,,,,,,,,,,,,
,,1,3.4,1,3.4,0,58,58,80,1,146,pretzel,tree,,89379,001,2022-04-25_15h53.54.160,SPAMnetsValid,2021.1.4,Win32,59.84082341,,,,,,,,,,,,,,,,,,,,,,,,,,,,,,,,,,,,,,,,,,,,,,,,,,,,,,,,,,,,,,,,,,,,,,,,,,,,,,,,,,,,,,,,,
,,7,2.5942,7,2.5942,0,59,59,11,1,117,melon,strawberry,,89379,001,2022-04-25_15h53.54.160,SPAMnetsValid,2021.1.4,Win32,59.84082341,,,,,,,,,,,,,,,,,,,,,,,,,,,,,,,,,,,,,,,,,,,,,,,,,,,,,,,,,,,,,,,,,,,,,,,,,,,,,,,,,,,,,,,,,
,,6,1.6647,6,1.6647,0,60,60,77,1,172,kitchen,melon,,89379,001,2022-04-25_15h53.54.160,SPAMnetsValid,2021.1.4,Win32,59.84082341,,,,,,,,,,,,,,,,,,,,,,,,,,,,,,,,,,,,,,,,,,,,,,,,,,,,,,,,,,,,,,,,,,,,,,,,,,,,,,,,,,,,,,,,,
,,1,1.4168,1,1.4168,0,61,61,88,1,171,cake,tomato,,89379,001,2022-04-25_15h53.54.160,SPAMnetsValid,2021.1.4,Win32,59.84082341,,,,,,,,,,,,,,,,,,,,,,,,,,,,,,,,,,,,,,,,,,,,,,,,,,,,,,,,,,,,,,,,,,,,,,,,,,,,,,,,,,,,,,,,,
,,6,1.6078,6,1.6078,0,62,62,85,1,115,refrigerator,tomato,,89379,001,2022-04-25_15h53.54.160,SPAMnetsValid,2021.1.4,Win32,59.84082341,,,,,,,,,,,,,,,,,,,,,,,,,,,,,,,,,,,,,,,,,,,,,,,,,,,,,,,,,,,,,,,,,,,,,,,,,,,,,,,,,,,,,,,,,
,,7,3.6253,7,3.6253,0,63,63,52,1,110,chocolate,cookie,,89379,001,2022-04-25_15h53.54.160,SPAMnetsValid,2021.1.4,Win32,59.84082341,,,,,,,,,,,,,,,,,,,,,,,,,,,,,,,,,,,,,,,,,,,,,,,,,,,,,,,,,,,,,,,,,,,,,,,,,,,,,,,,,,,,,,,,,
,,1,2.9255,1,2.9255,0,64,64,46,1,123,cookie,tree,,89379,001,2022-04-25_15h53.54.160,SPAMnetsValid,2021.1.4,Win32,59.84082341,,,,,,,,,,,,,,,,,,,,,,,,,,,,,,,,,,,,,,,,,,,,,,,,,,,,,,,,,,,,,,,,,,,,,,,,,,,,,,,,,,,,,,,,,
,,2,3.1169,2,3.1169,0,65,65,3,1,129,cactus,refrigerator,,89379,001,2022-04-25_15h53.54.160,SPAMnetsValid,2021.1.4,Win32,59.84082341,,,,,,,,,,,,,,,,,,,,,,,,,,,,,,,,,,,,,,,,,,,,,,,,,,,,,,,,,,,,,,,,,,,,,,,,,,,,,,,,,,,,,,,,,
,,1,1.757,1,1.757,0,66,66,24,1,169,onion,yogurt,,89379,001,2022-04-25_15h53.54.160,SPAMnetsValid,2021.1.4,Win32,59.84082341,,,,,,,,,,,,,,,,,,,,,,,,,,,,,,,,,,,,,,,,,,,,,,,,,,,,,,,,,,,,,,,,,,,,,,,,,,,,,,,,,,,,,,,,,
,,9,1.8725,9,1.8725,0,67,67,86,1,193,melon,melon,CHECK,89379,001,2022-04-25_15h53.54.160,SPAMnetsValid,2021.1.4,Win32,59.84082341,,,,,,,,,,,,,,,,,,,,,,,,,,,,,,,,,,,,,,,,,,,,,,,,,,,,,,,,,,,,,,,,,,,,,,,,,,,,,,,,,,,,,,,,,
,,6,2.0136,6,2.0136,0,68,68,48,1,186,kitchen,yogurt,,89379,001,2022-04-25_15h53.54.160,SPAMnetsValid,2021.1.4,Win32,59.84082341,,,,,,,,,,,,,,,,,,,,,,,,,,,,,,,,,,,,,,,,,,,,,,,,,,,,,,,,,,,,,,,,,,,,,,,,,,,,,,,,,,,,,,,,,
,,1,1.4243,1,1.4243,0,69,69,93,1,134,carrot,flower,,89379,001,2022-04-25_15h53.54.160,SPAMnetsValid,2021.1.4,Win32,59.84082341,,,,,,,,,,,,,,,,,,,,,,,,,,,,,,,,,,,,,,,,,,,,,,,,,,,,,,,,,,,,,,,,,,,,,,,,,,,,,,,,,,,,,,,,,
,,1,1.6743,1,1.6743,0,70,70,58,1,144,cake,garden,,89379,001,2022-04-25_15h53.54.160,SPAMnetsValid,2021.1.4,Win32,59.84082341,,,,,,,,,,,,,,,,,,,,,,,,,,,,,,,,,,,,,,,,,,,,,,,,,,,,,,,,,,,,,,,,,,,,,,,,,,,,,,,,,,,,,,,,,
,,2,2.4494,2,2.4494,0,71,71,15,1,145,cactus,yogurt,,89379,001,2022-04-25_15h53.54.160,SPAMnetsValid,2021.1.4,Win32,59.84082341,,,,,,,,,,,,,,,,,,,,,,,,,,,,,,,,,,,,,,,,,,,,,,,,,,,,,,,,,,,,,,,,,,,,,,,,,,,,,,,,,,,,,,,,,
,,1,1.6658,1,1.6658,0,72,72,50,1,126,kitchen,tree,,89379,001,2022-04-25_15h53.54.160,SPAMnetsValid,2021.1.4,Win32,59.84082341,,,,,,,,,,,,,,,,,,,,,,,,,,,,,,,,,,,,,,,,,,,,,,,,,,,,,,,,,,,,,,,,,,,,,,,,,,,,,,,,,,,,,,,,,
,,8,3.307,8,3.307,0,73,73,51,1,168,cactus,flower,,89379,001,2022-04-25_15h53.54.160,SPAMnetsValid,2021.1.4,Win32,59.84082341,,,,,,,,,,,,,,,,,,,,,,,,,,,,,,,,,,,,,,,,,,,,,,,,,,,,,,,,,,,,,,,,,,,,,,,,,,,,,,,,,,,,,,,,,
,,1,1.4224,1,1.4224,0,74,74,63,1,137,microwave,tree,,89379,001,2022-04-25_15h53.54.160,SPAMnetsValid,2021.1.4,Win32,59.84082341,,,,,,,,,,,,,,,,,,,,,,,,,,,,,,,,,,,,,,,,,,,,,,,,,,,,,,,,,,,,,,,,,,,,,,,,,,,,,,,,,,,,,,,,,
,,1,1.6394,1,1.6394,0,75,75,64,1,157,refrigerator,rose,,89379,001,2022-04-25_15h53.54.160,SPAMnetsValid,2021.1.4,Win32,59.84082341,,,,,,,,,,,,,,,,,,,,,,,,,,,,,,,,,,,,,,,,,,,,,,,,,,,,,,,,,,,,,,,,,,,,,,,,,,,,,,,,,,,,,,,,,
,,3,4.5913,3,4.5913,0,76,76,53,1,177,chocolate,strawberry,,89379,001,2022-04-25_15h53.54.160,SPAMnetsValid,2021.1.4,Win32,59.84082341,,,,,,,,,,,,,,,,,,,,,,,,,,,,,,,,,,,,,,,,,,,,,,,,,,,,,,,,,,,,,,,,,,,,,,,,,,,,,,,,,,,,,,,,,
,,1,7.5034,1,7.5034,0,77,77,62,1,189,onion,tree,,89379,001,2022-04-25_15h53.54.160,SPAMnetsValid,2021.1.4,Win32,59.84082341,,,,,,,,,,,,,,,,,,,,,,,,,,,,,,,,,,,,,,,,,,,,,,,,,,,,,,,,,,,,,,,,,,,,,,,,,,,,,,,,,,,,,,,,,
,,7,2.1572,7,2.1572,0,78,78,7,1,188,flower,tree,,89379,001,2022-04-25_15h53.54.160,SPAMnetsValid,2021.1.4,Win32,59.84082341,,,,,,,,,,,,,,,,,,,,,,,,,,,,,,,,,,,,,,,,,,,,,,,,,,,,,,,,,,,,,,,,,,,,,,,,,,,,,,,,,,,,,,,,,
,,5,2.374,5,2.374,0,79,79,78,1,132,broom,tree,,89379,001,2022-04-25_15h53.54.160,SPAMnetsValid,2021.1.4,Win32,59.84082341,,,,,,,,,,,,,,,,,,,,,,,,,,,,,,,,,,,,,,,,,,,,,,,,,,,,,,,,,,,,,,,,,,,,,,,,,,,,,,,,,,,,,,,,,
,,1,1.511,1,1.511,0,80,80,95,1,121,broom,microwave,,89379,001,2022-04-25_15h53.54.160,SPAMnetsValid,2021.1.4,Win32,59.84082341,,,,,,,,,,,,,,,,,,,,,,,,,,,,,,,,,,,,,,,,,,,,,,,,,,,,,,,,,,,,,,,,,,,,,,,,,,,,,,,,,,,,,,,,,
,,1,3.8238,1,3.8238,0,81,81,30,1,125,carrot,tree,,89379,001,2022-04-25_15h53.54.160,SPAMnetsValid,2021.1.4,Win32,59.84082341,,,,,,,,,,,,,,,,,,,,,,,,,,,,,,,,,,,,,,,,,,,,,,,,,,,,,,,,,,,,,,,,,,,,,,,,,,,,,,,,,,,,,,,,,
,,2,5.3119,2,5.3119,0,82,82,13,1,105,cactus,oven,,89379,001,2022-04-25_15h53.54.160,SPAMnetsValid,2021.1.4,Win32,59.84082341,,,,,,,,,,,,,,,,,,,,,,,,,,,,,,,,,,,,,,,,,,,,,,,,,,,,,,,,,,,,,,,,,,,,,,,,,,,,,,,,,,,,,,,,,
,,1,1.5725,1,1.5725,0,83,83,49,1,152,cactus,strawberry,,89379,001,2022-04-25_15h53.54.160,SPAMnetsValid,2021.1.4,Win32,59.84082341,,,,,,,,,,,,,,,,,,,,,,,,,,,,,,,,,,,,,,,,,,,,,,,,,,,,,,,,,,,,,,,,,,,,,,,,,,,,,,,,,,,,,,,,,
,,1,2.863,1,2.863,0,84,84,84,1,130,microwave,yogurt,,89379,001,2022-04-25_15h53.54.160,SPAMnetsValid,2021.1.4,Win32,59.84082341,,,,,,,,,,,,,,,,,,,,,,,,,,,,,,,,,,,,,,,,,,,,,,,,,,,,,,,,,,,,,,,,,,,,,,,,,,,,,,,,,,,,,,,,,
,,9,2.5738,9,2.5738,0,85,85,61,1,138,flower,rose,,89379,001,2022-04-25_15h53.54.160,SPAMnetsValid,2021.1.4,Win32,59.84082341,,,,,,,,,,,,,,,,,,,,,,,,,,,,,,,,,,,,,,,,,,,,,,,,,,,,,,,,,,,,,,,,,,,,,,,,,,,,,,,,,,,,,,,,,
,,3,2.2906,3,2.2906,0,86,86,96,1,136,chocolate,microwave,,89379,001,2022-04-25_15h53.54.160,SPAMnetsValid,2021.1.4,Win32,59.84082341,,,,,,,,,,,,,,,,,,,,,,,,,,,,,,,,,,,,,,,,,,,,,,,,,,,,,,,,,,,,,,,,,,,,,,,,,,,,,,,,,,,,,,,,,
,,1,2.1668,1,2.1668,0,87,87,38,1,155,carrot,cookie,,89379,001,2022-04-25_15h53.54.160,SPAMnetsValid,2021.1.4,Win32,59.84082341,,,,,,,,,,,,,,,,,,,,,,,,,,,,,,,,,,,,,,,,,,,,,,,,,,,,,,,,,,,,,,,,,,,,,,,,,,,,,,,,,,,,,,,,,
,,3,2.9969,3,2.9969,0,88,88,26,1,107,rose,tomato,,89379,001,2022-04-25_15h53.54.160,SPAMnetsValid,2021.1.4,Win32,59.84082341,,,,,,,,,,,,,,,,,,,,,,,,,,,,,,,,,,,,,,,,,,,,,,,,,,,,,,,,,,,,,,,,,,,,,,,,,,,,,,,,,,,,,,,,,
,,3,2.7064,3,2.7064,0,89,89,89,1,140,cookie,refrigerator,,89379,001,2022-04-25_15h53.54.160,SPAMnetsValid,2021.1.4,Win32,59.84082341,,,,,,,,,,,,,,,,,,,,,,,,,,,,,,,,,,,,,,,,,,,,,,,,,,,,,,,,,,,,,,,,,,,,,,,,,,,,,,,,,,,,,,,,,
,,3,2.6091,3,2.6091,0,90,90,12,1,162,microwave,tomato,,89379,001,2022-04-25_15h53.54.160,SPAMnetsValid,2021.1.4,Win32,59.84082341,,,,,,,,,,,,,,,,,,,,,,,,,,,,,,,,,,,,,,,,,,,,,,,,,,,,,,,,,,,,,,,,,,,,,,,,,,,,,,,,,,,,,,,,,
,,3,3.4772,3,3.4772,0,91,91,31,1,156,melon,rose,,89379,001,2022-04-25_15h53.54.160,SPAMnetsValid,2021.1.4,Win32,59.84082341,,,,,,,,,,,,,,,,,,,,,,,,,,,,,,,,,,,,,,,,,,,,,,,,,,,,,,,,,,,,,,,,,,,,,,,,,,,,,,,,,,,,,,,,,
,,4,2.225,4,2.225,0,92,92,1,1,173,kitchen,tomato,,89379,001,2022-04-25_15h53.54.160,SPAMnetsValid,2021.1.4,Win32,59.84082341,,,,,,,,,,,,,,,,,,,,,,,,,,,,,,,,,,,,,,,,,,,,,,,,,,,,,,,,,,,,,,,,,,,,,,,,,,,,,,,,,,,,,,,,,
,,3,2.2117,3,2.2117,0,93,93,36,1,161,kitchen,pretzel,,89379,001,2022-04-25_15h53.54.160,SPAMnetsValid,2021.1.4,Win32,59.84082341,,,,,,,,,,,,,,,,,,,,,,,,,,,,,,,,,,,,,,,,,,,,,,,,,,,,,,,,,,,,,,,,,,,,,,,,,,,,,,,,,,,,,,,,,
,,2,2.0398,2,2.0398,0,94,94,54,1,101,cactus,kitchen,,89379,001,2022-04-25_15h53.54.160,SPAMnetsValid,2021.1.4,Win32,59.84082341,,,,,,,,,,,,,,,,,,,,,,,,,,,,,,,,,,,,,,,,,,,,,,,,,,,,,,,,,,,,,,,,,,,,,,,,,,,,,,,,,,,,,,,,,
,,1,2.4226,1,2.4226,0,95,95,71,1,187,cactus,microwave,,89379,001,2022-04-25_15h53.54.160,SPAMnetsValid,2021.1.4,Win32,59.84082341,,,,,,,,,,,,,,,,,,,,,,,,,,,,,,,,,,,,,,,,,,,,,,,,,,,,,,,,,,,,,,,,,,,,,,,,,,,,,,,,,,,,,,,,,
,,9,1.9764,9,1.9764,0,96,96,25,1,194,cactus,cactus,CHECK,89379,001,2022-04-25_15h53.54.160,SPAMnetsValid,2021.1.4,Win32,59.84082341,,,,,,,,,,,,,,,,,,,,,,,,,,,,,,,,,,,,,,,,,,,,,,,,,,,,,,,,,,,,,,,,,,,,,,,,,,,,,,,,,,,,,,,,,
,,,,,,,,,,,,,,,89379,001,2022-04-25_15h53.54.160,SPAMnetsValid,2021.1.4,Win32,59.84082341,0,0,0,0,1,,,,,,,,,,,,,,,,,,,,,,,,,,,,,,,,,,,,,,,,,,,,,,,,,,,,,,,,,,,,,,,,,,,,,,,,,,,,,,,,,,,,
,,,,,,,,,,,,,,,89379,001,2022-04-25_15h53.54.160,SPAMnetsValid,2021.1.4,Win32,59.84082341,,,,,,0,0,0,1,1,0,1,,,,,,,,,,,,,,,,,,,,,,,,,,,,,,,,,,,,,,,,,,,,,,,,,,,,,,,,,,,,,,,,,,,,,,,,,,,,,
,,,,1,6.1656,,,,,,90,cactus,cake,,89379,001,2022-04-25_15h53.54.160,SPAMnetsValid,2021.1.4,Win32,59.84082341,,,,,,,,,,,,,1,6.1656,0,0,0,85,1,,,,,,,,,,,,,,,,,,,,,,,,,,,,,,,,,,,,,,,,,,,,,,,,,,,,,,,,,,,,,,,,,,,,,,
,,,,5,2.6215,,,,,,4,chocolate,pretzel,,89379,001,2022-04-25_15h53.54.160,SPAMnetsValid,2021.1.4,Win32,59.84082341,,,,,,,,,,,,,5,2.6215,0,1,1,52,1,,,,,,,,,,,,,,,,,,,,,,,,,,,,,,,,,,,,,,,,,,,,,,,,,,,,,,,,,,,,,,,,,,,,,,
,,,,1,1.4325,,,,,,12,cookie,yogurt,,89379,001,2022-04-25_15h53.54.160,SPAMnetsValid,2021.1.4,Win32,59.84082341,,,,,,,,,,,,,1,1.4325,0,2,2,36,1,,,,,,,,,,,,,,,,,,,,,,,,,,,,,,,,,,,,,,,,,,,,,,,,,,,,,,,,,,,,,,,,,,,,,,
,,,,1,1.5038,,,,,,60,cactus,onion,,89379,001,2022-04-25_15h53.54.160,SPAMnetsValid,2021.1.4,Win32,59.84082341,,,,,,,,,,,,,1,1.5038,0,3,3,81,1,,,,,,,,,,,,,,,,,,,,,,,,,,,,,,,,,,,,,,,,,,,,,,,,,,,,,,,,,,,,,,,,,,,,,,
,,,,1,3.8117,,,,,,45,onion,pretzel,,89379,001,2022-04-25_15h53.54.160,SPAMnetsValid,2021.1.4,Win32,59.84082341,,,,,,,,,,,,,1,3.8117,0,4,4,69,1,,,,,,,,,,,,,,,,,,,,,,,,,,,,,,,,,,,,,,,,,,,,,,,,,,,,,,,,,,,,,,,,,,,,,,
,,,,1,1.2946,,,,,,87,carrot,yogurt,,89379,001,2022-04-25_15h53.54.160,SPAMnetsValid,2021.1.4,Win32,59.84082341,,,,,,,,,,,,,1,1.2946,0,5,5,6,1,,,,,,,,,,,,,,,,,,,,,,,,,,,,,,,,,,,,,,,,,,,,,,,,,,,,,,,,,,,,,,,,,,,,,,
,,,,1,1.4478,,,,,,75,cookie,onion,,89379,001,2022-04-25_15h53.54.160,SPAMnetsValid,2021.1.4,Win32,59.84082341,,,,,,,,,,,,,1,1.4478,0,6,6,9,1,,,,,,,,,,,,,,,,,,,,,,,,,,,,,,,,,,,,,,,,,,,,,,,,,,,,,,,,,,,,,,,,,,,,,,
,,,,1,1.4315,,,,,,11,refrigerator,tree,,89379,001,2022-04-25_15h53.54.160,SPAMnetsValid,2021.1.4,Win32,59.84082341,,,,,,,,,,,,,1,1.4315,0,7,7,43,1,,,,,,,,,,,,,,,,,,,,,,,,,,,,,,,,,,,,,,,,,,,,,,,,,,,,,,,,,,,,,,,,,,,,,,
,,,,2,2.689,,,,,,62,kitchen,rose,,89379,001,2022-04-25_15h53.54.160,SPAMnetsValid,2021.1.4,Win32,59.84082341,,,,,,,,,,,,,2,2.689,0,8,8,57,1,,,,,,,,,,,,,,,,,,,,,,,,,,,,,,,,,,,,,,,,,,,,,,,,,,,,,,,,,,,,,,,,,,,,,,
,,,,2,2.2421,,,,,,49,flower,strawberry,,89379,001,2022-04-25_15h53.54.160,SPAMnetsValid,2021.1.4,Win32,59.84082341,,,,,,,,,,,,,2,2.2421,0,9,9,3,1,,,,,,,,,,,,,,,,,,,,,,,,,,,,,,,,,,,,,,,,,,,,,,,,,,,,,,,,,,,,,,,,,,,,,,
,,,,6,2.4443,,,,,,52,carrot,tomato,,89379,001,2022-04-25_15h53.54.160,SPAMnetsValid,2021.1.4,Win32,59.84082341,,,,,,,,,,,,,6,2.4443,0,10,10,95,1,,,,,,,,,,,,,,,,,,,,,,,,,,,,,,,,,,,,,,,,,,,,,,,,,,,,,,,,,,,,,,,,,,,,,,
,,,,1,1.2389,,,,,,91,microwave,rose,,89379,001,2022-04-25_15h53.54.160,SPAMnetsValid,2021.1.4,Win32,59.84082341,,,,,,,,,,,,,1,1.2389,0,11,11,84,1,,,,,,,,,,,,,,,,,,,,,,,,,,,,,,,,,,,,,,,,,,,,,,,,,,,,,,,,,,,,,,,,,,,,,,
,,,,4,3.242,,,,,,15,onion,oven,,89379,001,2022-04-25_15h53.54.160,SPAMnetsValid,2021.1.4,Win32,59.84082341,,,,,,,,,,,,,4,3.242,0,12,12,39,1,,,,,,,,,,,,,,,,,,,,,,,,,,,,,,,,,,,,,,,,,,,,,,,,,,,,,,,,,,,,,,,,,,,,,,
,,,,1,1.5444,,,,,,73,broom,chocolate,,89379,001,2022-04-25_15h53.54.160,SPAMnetsValid,2021.1.4,Win32,59.84082341,,,,,,,,,,,,,1,1.5444,0,13,13,47,1,,,,,,,,,,,,,,,,,,,,,,,,,,,,,,,,,,,,,,,,,,,,,,,,,,,,,,,,,,,,,,,,,,,,,,
,,,,1,1.4709,,,,,,24,cookie,tomato,,89379,001,2022-04-25_15h53.54.160,SPAMnetsValid,2021.1.4,Win32,59.84082341,,,,,,,,,,,,,1,1.4709,0,14,14,68,1,,,,,,,,,,,,,,,,,,,,,,,,,,,,,,,,,,,,,,,,,,,,,,,,,,,,,,,,,,,,,,,,,,,,,,
,,,,2,2.4799,,,,,,34,melon,oven,,89379,001,2022-04-25_15h53.54.160,SPAMnetsValid,2021.1.4,Win32,59.84082341,,,,,,,,,,,,,2,2.4799,0,15,15,7,1,,,,,,,,,,,,,,,,,,,,,,,,,,,,,,,,,,,,,,,,,,,,,,,,,,,,,,,,,,,,,,,,,,,,,,
,,,,1,2.6924,,,,,,5,oven,tree,,89379,001,2022-04-25_15h53.54.160,SPAMnetsValid,2021.1.4,Win32,59.84082341,,,,,,,,,,,,,1,2.6924,0,16,16,70,1,,,,,,,,,,,,,,,,,,,,,,,,,,,,,,,,,,,,,,,,,,,,,,,,,,,,,,,,,,,,,,,,,,,,,,
,,,,3,2.0251,,,,,,54,chocolate,yogurt,,89379,001,2022-04-25_15h53.54.160,SPAMnetsValid,2021.1.4,Win32,59.84082341,,,,,,,,,,,,,3,2.0251,0,17,17,67,1,,,,,,,,,,,,,,,,,,,,,,,,,,,,,,,,,,,,,,,,,,,,,,,,,,,,,,,,,,,,,,,,,,,,,,
,,,,1,3.122,,,,,,51,onion,strawberry,,89379,001,2022-04-25_15h53.54.160,SPAMnetsValid,2021.1.4,Win32,59.84082341,,,,,,,,,,,,,1,3.122,0,18,18,86,1,,,,,,,,,,,,,,,,,,,,,,,,,,,,,,,,,,,,,,,,,,,,,,,,,,,,,,,,,,,,,,,,,,,,,,
,,,,7,1.8326,,,,,,6,garden,onion,,89379,001,2022-04-25_15h53.54.160,SPAMnetsValid,2021.1.4,Win32,59.84082341,,,,,,,,,,,,,7,1.8326,0,19,19,83,1,,,,,,,,,,,,,,,,,,,,,,,,,,,,,,,,,,,,,,,,,,,,,,,,,,,,,,,,,,,,,,,,,,,,,,
,,,,1,2.4149,,,,,,13,broom,yogurt,,89379,001,2022-04-25_15h53.54.160,SPAMnetsValid,2021.1.4,Win32,59.84082341,,,,,,,,,,,,,1,2.4149,0,20,20,5,1,,,,,,,,,,,,,,,,,,,,,,,,,,,,,,,,,,,,,,,,,,,,,,,,,,,,,,,,,,,,,,,,,,,,,,
,,,,3,2.8463,,,,,,88,cactus,melon,,89379,001,2022-04-25_15h53.54.160,SPAMnetsValid,2021.1.4,Win32,59.84082341,,,,,,,,,,,,,3,2.8463,0,21,21,38,1,,,,,,,,,,,,,,,,,,,,,,,,,,,,,,,,,,,,,,,,,,,,,,,,,,,,,,,,,,,,,,,,,,,,,,
,,,,1,2.0719,,,,,,43,chocolate,tomato,,89379,001,2022-04-25_15h53.54.160,SPAMnetsValid,2021.1.4,Win32,59.84082341,,,,,,,,,,,,,1,2.0719,0,22,22,8,1,,,,,,,,,,,,,,,,,,,,,,,,,,,,,,,,,,,,,,,,,,,,,,,,,,,,,,,,,,,,,,,,,,,,,,
,,,,1,1.5208,,,,,,92,broom,flower,,89379,001,2022-04-25_15h53.54.160,SPAMnetsValid,2021.1.4,Win32,59.84082341,,,,,,,,,,,,,1,1.5208,0,23,23,88,1,,,,,,,,,,,,,,,,,,,,,,,,,,,,,,,,,,,,,,,,,,,,,,,,,,,,,,,,,,,,,,,,,,,,,,
,,,,1,1.5043,,,,,,31,cactus,pretzel,,89379,001,2022-04-25_15h53.54.160,SPAMnetsValid,2021.1.4,Win32,59.84082341,,,,,,,,,,,,,1,1.5043,0,24,24,1,1,,,,,,,,,,,,,,,,,,,,,,,,,,,,,,,,,,,,,,,,,,,,,,,,,,,,,,,,,,,,,,,,,,,,,,
,,,,1,2.2215,,,,,,21,cake,onion,,89379,001,2022-04-25_15h53.54.160,SPAMnetsValid,2021.1.4,Win32,59.84082341,,,,,,,,,,,,,1,2.2215,0,25,25,63,1,,,,,,,,,,,,,,,,,,,,,,,,,,,,,,,,,,,,,,,,,,,,,,,,,,,,,,,,,,,,,,,,,,,,,,
,,,,6,1.7664,,,,,,77,refrigerator,yogurt,,89379,001,2022-04-25_15h53.54.160,SPAMnetsValid,2021.1.4,Win32,59.84082341,,,,,,,,,,,,,6,1.7664,0,26,26,42,1,,,,,,,,,,,,,,,,,,,,,,,,,,,,,,,,,,,,,,,,,,,,,,,,,,,,,,,,,,,,,,,,,,,,,,
,,,,4,3.1918,,,,,,81,pretzel,yogurt,,89379,001,2022-04-25_15h53.54.160,SPAMnetsValid,2021.1.4,Win32,59.84082341,,,,,,,,,,,,,4,3.1918,0,27,27,50,1,,,,,,,,,,,,,,,,,,,,,,,,,,,,,,,,,,,,,,,,,,,,,,,,,,,,,,,,,,,,,,,,,,,,,,
,,,,1,3.8062,,,,,,42,garden,kitchen,,89379,001,2022-04-25_15h53.54.160,SPAMnetsValid,2021.1.4,Win32,59.84082341,,,,,,,,,,,,,1,3.8062,0,28,28,29,1,,,,,,,,,,,,,,,,,,,,,,,,,,,,,,,,,,,,,,,,,,,,,,,,,,,,,,,,,,,,,,,,,,,,,,
,,,,4,4.0775,,,,,,20,rose,tree,,89379,001,2022-04-25_15h53.54.160,SPAMnetsValid,2021.1.4,Win32,59.84082341,,,,,,,,,,,,,4,4.0775,0,29,29,66,1,,,,,,,,,,,,,,,,,,,,,,,,,,,,,,,,,,,,,,,,,,,,,,,,,,,,,,,,,,,,,,,,,,,,,,
,,,,1,2.8714,,,,,,17,carrot,melon,,89379,001,2022-04-25_15h53.54.160,SPAMnetsValid,2021.1.4,Win32,59.84082341,,,,,,,,,,,,,1,2.8714,0,30,30,24,1,,,,,,,,,,,,,,,,,,,,,,,,,,,,,,,,,,,,,,,,,,,,,,,,,,,,,,,,,,,,,,,,,,,,,,
,,,,1,1.5979,,,,,,7,melon,tree,,89379,001,2022-04-25_15h53.54.160,SPAMnetsValid,2021.1.4,Win32,59.84082341,,,,,,,,,,,,,1,1.5979,0,31,31,77,1,,,,,,,,,,,,,,,,,,,,,,,,,,,,,,,,,,,,,,,,,,,,,,,,,,,,,,,,,,,,,,,,,,,,,,
,,,,2,3.1489,,,,,,38,pretzel,refrigerator,,89379,001,2022-04-25_15h53.54.160,SPAMnetsValid,2021.1.4,Win32,59.84082341,,,,,,,,,,,,,2,3.1489,0,32,32,71,1,,,,,,,,,,,,,,,,,,,,,,,,,,,,,,,,,,,,,,,,,,,,,,,,,,,,,,,,,,,,,,,,,,,,,,
,,,,1,1.771,,,,,,28,cake,melon,,89379,001,2022-04-25_15h53.54.160,SPAMnetsValid,2021.1.4,Win32,59.84082341,,,,,,,,,,,,,1,1.771,0,33,33,54,1,,,,,,,,,,,,,,,,,,,,,,,,,,,,,,,,,,,,,,,,,,,,,,,,,,,,,,,,,,,,,,,,,,,,,,
,,,,1,1.4047,,,,,,16,chocolate,flower,,89379,001,2022-04-25_15h53.54.160,SPAMnetsValid,2021.1.4,Win32,59.84082341,,,,,,,,,,,,,1,1.4047,0,34,34,22,1,,,,,,,,,,,,,,,,,,,,,,,,,,,,,,,,,,,,,,,,,,,,,,,,,,,,,,,,,,,,,,,,,,,,,,
,,,,2,2.8973,,,,,,61,strawberry,tomato,,89379,001,2022-04-25_15h53.54.160,SPAMnetsValid,2021.1.4,Win32,59.84082341,,,,,,,,,,,,,2,2.8973,0,35,35,80,1,,,,,,,,,,,,,,,,,,,,,,,,,,,,,,,,,,,,,,,,,,,,,,,,,,,,,,,,,,,,,,,,,,,,,,
,,,,1,1.5068,,,,,,67,flower,yogurt,,89379,001,2022-04-25_15h53.54.160,SPAMnetsValid,2021.1.4,Win32,59.84082341,,,,,,,,,,,,,1,1.5068,0,36,36,12,1,,,,,,,,,,,,,,,,,,,,,,,,,,,,,,,,,,,,,,,,,,,,,,,,,,,,,,,,,,,,,,,,,,,,,,
,,,,1,2.3531,,,,,,70,chocolate,onion,,89379,001,2022-04-25_15h53.54.160,SPAMnetsValid,2021.1.4,Win32,59.84082341,,,,,,,,,,,,,1,2.3531,0,37,37,74,1,,,,,,,,,,,,,,,,,,,,,,,,,,,,,,,,,,,,,,,,,,,,,,,,,,,,,,,,,,,,,,,,,,,,,,
,,,,3,4.0675,,,,,,30,cookie,pretzel,,89379,001,2022-04-25_15h53.54.160,SPAMnetsValid,2021.1.4,Win32,59.84082341,,,,,,,,,,,,,3,4.0675,0,38,38,78,1,,,,,,,,,,,,,,,,,,,,,,,,,,,,,,,,,,,,,,,,,,,,,,,,,,,,,,,,,,,,,,,,,,,,,,
,,,,1,1.479,,,,,,26,tomato,yogurt,,89379,001,2022-04-25_15h53.54.160,SPAMnetsValid,2021.1.4,Win32,59.84082341,,,,,,,,,,,,,1,1.479,0,39,39,13,1,,,,,,,,,,,,,,,,,,,,,,,,,,,,,,,,,,,,,,,,,,,,,,,,,,,,,,,,,,,,,,,,,,,,,,
,,,,5,2.3057,,,,,,63,cake,cookie,,89379,001,2022-04-25_15h53.54.160,SPAMnetsValid,2021.1.4,Win32,59.84082341,,,,,,,,,,,,,5,2.3057,0,40,40,93,1,,,,,,,,,,,,,,,,,,,,,,,,,,,,,,,,,,,,,,,,,,,,,,,,,,,,,,,,,,,,,,,,,,,,,,
,,,,1,1.5879,,,,,,1,rose,yogurt,,89379,001,2022-04-25_15h53.54.160,SPAMnetsValid,2021.1.4,Win32,59.84082341,,,,,,,,,,,,,1,1.5879,0,41,41,55,1,,,,,,,,,,,,,,,,,,,,,,,,,,,,,,,,,,,,,,,,,,,,,,,,,,,,,,,,,,,,,,,,,,,,,,
,,,,4,2.0394,,,,,,32,cake,microwave,,89379,001,2022-04-25_15h53.54.160,SPAMnetsValid,2021.1.4,Win32,59.84082341,,,,,,,,,,,,,4,2.0394,0,42,42,33,1,,,,,,,,,,,,,,,,,,,,,,,,,,,,,,,,,,,,,,,,,,,,,,,,,,,,,,,,,,,,,,,,,,,,,,
,,,,1,1.2649,,,,,,14,broom,cookie,,89379,001,2022-04-25_15h53.54.160,SPAMnetsValid,2021.1.4,Win32,59.84082341,,,,,,,,,,,,,1,1.2649,0,43,43,16,1,,,,,,,,,,,,,,,,,,,,,,,,,,,,,,,,,,,,,,,,,,,,,,,,,,,,,,,,,,,,,,,,,,,,,,
,,,,1,1.4652,,,,,,46,garden,yogurt,,89379,001,2022-04-25_15h53.54.160,SPAMnetsValid,2021.1.4,Win32,59.84082341,,,,,,,,,,,,,1,1.4652,0,44,44,65,1,,,,,,,,,,,,,,,,,,,,,,,,,,,,,,,,,,,,,,,,,,,,,,,,,,,,,,,,,,,,,,,,,,,,,,
,,,,1,1.5326,,,,,,27,cactus,cookie,,89379,001,2022-04-25_15h53.54.160,SPAMnetsValid,2021.1.4,Win32,59.84082341,,,,,,,,,,,,,1,1.5326,0,45,45,17,1,,,,,,,,,,,,,,,,,,,,,,,,,,,,,,,,,,,,,,,,,,,,,,,,,,,,,,,,,,,,,,,,,,,,,,
,,,,1,1.4715,,,,,,53,garden,pretzel,,89379,001,2022-04-25_15h53.54.160,SPAMnetsValid,2021.1.4,Win32,59.84082341,,,,,,,,,,,,,1,1.4715,0,46,46,0,1,,,,,,,,,,,,,,,,,,,,,,,,,,,,,,,,,,,,,,,,,,,,,,,,,,,,,,,,,,,,,,,,,,,,,,
,,,,7,2.1437,,,,,,94,kitchen,microwave,,89379,001,2022-04-25_15h53.54.160,SPAMnetsValid,2021.1.4,Win32,59.84082341,,,,,,,,,,,,,7,2.1437,0,47,47,58,1,,,,,,,,,,,,,,,,,,,,,,,,,,,,,,,,,,,,,,,,,,,,,,,,,,,,,,,,,,,,,,,,,,,,,,
,,,,4,2.7005,,,,,,57,flower,kitchen,,89379,001,2022-04-25_15h53.54.160,SPAMnetsValid,2021.1.4,Win32,59.84082341,,,,,,,,,,,,,4,2.7005,0,48,48,49,1,,,,,,,,,,,,,,,,,,,,,,,,,,,,,,,,,,,,,,,,,,,,,,,,,,,,,,,,,,,,,,,,,,,,,,
,,,,3,3.1729,,,,,,55,tomato,tree,,89379,001,2022-04-25_15h53.54.160,SPAMnetsValid,2021.1.4,Win32,59.84082341,,,,,,,,,,,,,3,3.1729,0,49,49,35,1,,,,,,,,,,,,,,,,,,,,,,,,,,,,,,,,,,,,,,,,,,,,,,,,,,,,,,,,,,,,,,,,,,,,,,
,,,,4,2.7298,,,,,,36,broom,kitchen,,89379,001,2022-04-25_15h53.54.160,SPAMnetsValid,2021.1.4,Win32,59.84082341,,,,,,,,,,,,,4,2.7298,0,50,50,76,1,,,,,,,,,,,,,,,,,,,,,,,,,,,,,,,,,,,,,,,,,,,,,,,,,,,,,,,,,,,,,,,,,,,,,,
,,,,1,2.985,,,,,,58,garden,oven,,89379,001,2022-04-25_15h53.54.160,SPAMnetsValid,2021.1.4,Win32,59.84082341,,,,,,,,,,,,,1,2.985,0,51,51,37,1,,,,,,,,,,,,,,,,,,,,,,,,,,,,,,,,,,,,,,,,,,,,,,,,,,,,,,,,,,,,,,,,,,,,,,
,,,,9,2.3125,,,,,,191,cake,cake,CHECK,89379,001,2022-04-25_15h53.54.160,SPAMnetsValid,2021.1.4,Win32,59.84082341,,,,,,,,,,,,,9,2.3125,0,52,52,10,1,,,,,,,,,,,,,,,,,,,,,,,,,,,,,,,,,,,,,,,,,,,,,,,,,,,,,,,,,,,,,,,,,,,,,,
,,,,1,1.8388,,,,,,85,cake,tree,,89379,001,2022-04-25_15h53.54.160,SPAMnetsValid,2021.1.4,Win32,59.84082341,,,,,,,,,,,,,1,1.8388,0,53,53,18,1,,,,,,,,,,,,,,,,,,,,,,,,,,,,,,,,,,,,,,,,,,,,,,,,,,,,,,,,,,,,,,,,,,,,,,
,,,,1,1.5387,,,,,,78,cookie,rose,,89379,001,2022-04-25_15h53.54.160,SPAMnetsValid,2021.1.4,Win32,59.84082341,,,,,,,,,,,,,1,1.5387,0,54,54,56,1,,,,,,,,,,,,,,,,,,,,,,,,,,,,,,,,,,,,,,,,,,,,,,,,,,,,,,,,,,,,,,,,,,,,,,
,,,,1,1.2396,,,,,,44,cookie,melon,,89379,001,2022-04-25_15h53.54.160,SPAMnetsValid,2021.1.4,Win32,59.84082341,,,,,,,,,,,,,1,1.2396,0,55,55,92,1,,,,,,,,,,,,,,,,,,,,,,,,,,,,,,,,,,,,,,,,,,,,,,,,,,,,,,,,,,,,,,,,,,,,,,
,,,,7,1.8842,,,,,,93,kitchen,oven,,89379,001,2022-04-25_15h53.54.160,SPAMnetsValid,2021.1.4,Win32,59.84082341,,,,,,,,,,,,,7,1.8842,0,56,56,82,1,,,,,,,,,,,,,,,,,,,,,,,,,,,,,,,,,,,,,,,,,,,,,,,,,,,,,,,,,,,,,,,,,,,,,,
,,,,1,2.7635,,,,,,74,broom,pretzel,,89379,001,2022-04-25_15h53.54.160,SPAMnetsValid,2021.1.4,Win32,59.84082341,,,,,,,,,,,,,1,2.7635,0,57,57,40,1,,,,,,,,,,,,,,,,,,,,,,,,,,,,,,,,,,,,,,,,,,,,,,,,,,,,,,,,,,,,,,,,,,,,,,
,,,,9,1.7054,,,,,,192,microwave,microwave,CHECK,89379,001,2022-04-25_15h53.54.160,SPAMnetsValid,2021.1.4,Win32,59.84082341,,,,,,,,,,,,,9,1.7054,0,58,58,53,1,,,,,,,,,,,,,,,,,,,,,,,,,,,,,,,,,,,,,,,,,,,,,,,,,,,,,,,,,,,,,,,,,,,,,,
,,,,1,1.7603,,,,,,89,chocolate,rose,,89379,001,2022-04-25_15h53.54.160,SPAMnetsValid,2021.1.4,Win32,59.84082341,,,,,,,,,,,,,1,1.7603,0,59,59,60,1,,,,,,,,,,,,,,,,,,,,,,,,,,,,,,,,,,,,,,,,,,,,,,,,,,,,,,,,,,,,,,,,,,,,,,
,,,,2,2.293,,,,,,19,microwave,pretzel,,89379,001,2022-04-25_15h53.54.160,SPAMnetsValid,2021.1.4,Win32,59.84082341,,,,,,,,,,,,,2,2.293,0,60,60,41,1,,,,,,,,,,,,,,,,,,,,,,,,,,,,,,,,,,,,,,,,,,,,,,,,,,,,,,,,,,,,,,,,,,,,,,
,,,,4,2.5865,,,,,,2,kitchen,onion,,89379,001,2022-04-25_15h53.54.160,SPAMnetsValid,2021.1.4,Win32,59.84082341,,,,,,,,,,,,,4,2.5865,0,61,61,91,1,,,,,,,,,,,,,,,,,,,,,,,,,,,,,,,,,,,,,,,,,,,,,,,,,,,,,,,,,,,,,,,,,,,,,,
,,,,1,1.4398,,,,,,40,broom,cake,,89379,001,2022-04-25_15h53.54.160,SPAMnetsValid,2021.1.4,Win32,59.84082341,,,,,,,,,,,,,1,1.4398,0,62,62,32,1,,,,,,,,,,,,,,,,,,,,,,,,,,,,,,,,,,,,,,,,,,,,,,,,,,,,,,,,,,,,,,,,,,,,,,
,,,,1,0.9593,,,,,,41,broom,cactus,,89379,001,2022-04-25_15h53.54.160,SPAMnetsValid,2021.1.4,Win32,59.84082341,,,,,,,,,,,,,1,0.9593,0,63,63,46,1,,,,,,,,,,,,,,,,,,,,,,,,,,,,,,,,,,,,,,,,,,,,,,,,,,,,,,,,,,,,,,,,,,,,,,
,,,,2,3.0778,,,,,,33,oven,yogurt,,89379,001,2022-04-25_15h53.54.160,SPAMnetsValid,2021.1.4,Win32,59.84082341,,,,,,,,,,,,,2,3.0778,0,64,64,31,1,,,,,,,,,,,,,,,,,,,,,,,,,,,,,,,,,,,,,,,,,,,,,,,,,,,,,,,,,,,,,,,,,,,,,,
,,,,1,3.5219,,,,,,59,rose,strawberry,,89379,001,2022-04-25_15h53.54.160,SPAMnetsValid,2021.1.4,Win32,59.84082341,,,,,,,,,,,,,1,3.5219,0,65,65,72,1,,,,,,,,,,,,,,,,,,,,,,,,,,,,,,,,,,,,,,,,,,,,,,,,,,,,,,,,,,,,,,,,,,,,,,
,,,,7,2.6493,,,,,,3,cake,oven,,89379,001,2022-04-25_15h53.54.160,SPAMnetsValid,2021.1.4,Win32,59.84082341,,,,,,,,,,,,,7,2.6493,0,66,66,30,1,,,,,,,,,,,,,,,,,,,,,,,,,,,,,,,,,,,,,,,,,,,,,,,,,,,,,,,,,,,,,,,,,,,,,,
,,,,1,2.2221,,,,,,35,flower,pretzel,,89379,001,2022-04-25_15h53.54.160,SPAMnetsValid,2021.1.4,Win32,59.84082341,,,,,,,,,,,,,1,2.2221,0,67,67,26,1,,,,,,,,,,,,,,,,,,,,,,,,,,,,,,,,,,,,,,,,,,,,,,,,,,,,,,,,,,,,,,,,,,,,,,
,,,,8,1.8712,,,,,,76,garden,rose,,89379,001,2022-04-25_15h53.54.160,SPAMnetsValid,2021.1.4,Win32,59.84082341,,,,,,,,,,,,,8,1.8712,0,68,68,19,1,,,,,,,,,,,,,,,,,,,,,,,,,,,,,,,,,,,,,,,,,,,,,,,,,,,,,,,,,,,,,,,,,,,,,,
,,,,1,2.1069,,,,,,10,flower,onion,,89379,001,2022-04-25_15h53.54.160,SPAMnetsValid,2021.1.4,Win32,59.84082341,,,,,,,,,,,,,1,2.1069,0,69,69,45,1,,,,,,,,,,,,,,,,,,,,,,,,,,,,,,,,,,,,,,,,,,,,,,,,,,,,,,,,,,,,,,,,,,,,,,
,,,,3,1.6719,,,,,,56,cactus,tree,,89379,001,2022-04-25_15h53.54.160,SPAMnetsValid,2021.1.4,Win32,59.84082341,,,,,,,,,,,,,3,1.6719,0,70,70,21,1,,,,,,,,,,,,,,,,,,,,,,,,,,,,,,,,,,,,,,,,,,,,,,,,,,,,,,,,,,,,,,,,,,,,,,
,,,,1,1.1549,,,,,,71,broom,rose,,89379,001,2022-04-25_15h53.54.160,SPAMnetsValid,2021.1.4,Win32,59.84082341,,,,,,,,,,,,,1,1.1549,0,71,71,61,1,,,,,,,,,,,,,,,,,,,,,,,,,,,,,,,,,,,,,,,,,,,,,,,,,,,,,,,,,,,,,,,,,,,,,,
,,,,1,1.8667,,,,,,68,flower,tomato,,89379,001,2022-04-25_15h53.54.160,SPAMnetsValid,2021.1.4,Win32,59.84082341,,,,,,,,,,,,,1,1.8667,0,72,72,94,1,,,,,,,,,,,,,,,,,,,,,,,,,,,,,,,,,,,,,,,,,,,,,,,,,,,,,,,,,,,,,,,,,,,,,,
,,,,1,2.3075,,,,,,29,chocolate,melon,,89379,001,2022-04-25_15h53.54.160,SPAMnetsValid,2021.1.4,Win32,59.84082341,,,,,,,,,,,,,1,2.3075,0,73,73,34,1,,,,,,,,,,,,,,,,,,,,,,,,,,,,,,,,,,,,,,,,,,,,,,,,,,,,,,,,,,,,,,,,,,,,,,
,,,,1,1.3048,,,,,,64,chocolate,garden,,89379,001,2022-04-25_15h53.54.160,SPAMnetsValid,2021.1.4,Win32,59.84082341,,,,,,,,,,,,,1,1.3048,0,74,74,14,1,,,,,,,,,,,,,,,,,,,,,,,,,,,,,,,,,,,,,,,,,,,,,,,,,,,,,,,,,,,,,,,,,,,,,,
,,,,7,1.8268,,,,,,9,kitchen,refrigerator,,89379,001,2022-04-25_15h53.54.160,SPAMnetsValid,2021.1.4,Win32,59.84082341,,,,,,,,,,,,,7,1.8268,0,75,75,64,1,,,,,,,,,,,,,,,,,,,,,,,,,,,,,,,,,,,,,,,,,,,,,,,,,,,,,,,,,,,,,,,,,,,,,,
,,,,1,2.1391,,,,,,80,chocolate,tree,,89379,001,2022-04-25_15h53.54.160,SPAMnetsValid,2021.1.4,Win32,59.84082341,,,,,,,,,,,,,1,2.1391,0,76,76,89,1,,,,,,,,,,,,,,,,,,,,,,,,,,,,,,,,,,,,,,,,,,,,,,,,,,,,,,,,,,,,,,,,,,,,,,
,,,,1,5.5652,,,,,,8,broom,melon,,89379,001,2022-04-25_15h53.54.160,SPAMnetsValid,2021.1.4,Win32,59.84082341,,,,,,,,,,,,,1,5.5652,0,77,77,59,1,,,,,,,,,,,,,,,,,,,,,,,,,,,,,,,,,,,,,,,,,,,,,,,,,,,,,,,,,,,,,,,,,,,,,,
,,,,1,0.8567,,,,,,39,melon,pretzel,,89379,001,2022-04-25_15h53.54.160,SPAMnetsValid,2021.1.4,Win32,59.84082341,,,,,,,,,,,,,1,0.8567,0,78,78,20,1,,,,,,,,,,,,,,,,,,,,,,,,,,,,,,,,,,,,,,,,,,,,,,,,,,,,,,,,,,,,,,,,,,,,,,
,,,,1,1.3756,,,,,,48,flower,oven,,89379,001,2022-04-25_15h53.54.160,SPAMnetsValid,2021.1.4,Win32,59.84082341,,,,,,,,,,,,,1,1.3756,0,79,79,15,1,,,,,,,,,,,,,,,,,,,,,,,,,,,,,,,,,,,,,,,,,,,,,,,,,,,,,,,,,,,,,,,,,,,,,,
,,,,1,0.9545,,,,,,72,broom,onion,,89379,001,2022-04-25_15h53.54.160,SPAMnetsValid,2021.1.4,Win32,59.84082341,,,,,,,,,,,,,1,0.9545,0,80,80,27,1,,,,,,,,,,,,,,,,,,,,,,,,,,,,,,,,,,,,,,,,,,,,,,,,,,,,,,,,,,,,,,,,,,,,,,
,,,,2,2.0921,,,,,,84,oven,tomato,,89379,001,2022-04-25_15h53.54.160,SPAMnetsValid,2021.1.4,Win32,59.84082341,,,,,,,,,,,,,2,2.0921,0,81,81,28,1,,,,,,,,,,,,,,,,,,,,,,,,,,,,,,,,,,,,,,,,,,,,,,,,,,,,,,,,,,,,,,,,,,,,,,
,,,,3,2.7727,,,,,,22,kitchen,strawberry,,89379,001,2022-04-25_15h53.54.160,SPAMnetsValid,2021.1.4,Win32,59.84082341,,,,,,,,,,,,,3,2.7727,0,82,82,2,1,,,,,,,,,,,,,,,,,,,,,,,,,,,,,,,,,,,,,,,,,,,,,,,,,,,,,,,,,,,,,,,,,,,,,,
,,,,1,1.6129,,,,,,86,oven,rose,,89379,001,2022-04-25_15h53.54.160,SPAMnetsValid,2021.1.4,Win32,59.84082341,,,,,,,,,,,,,1,1.6129,0,83,83,79,1,,,,,,,,,,,,,,,,,,,,,,,,,,,,,,,,,,,,,,,,,,,,,,,,,,,,,,,,,,,,,,,,,,,,,,
,,,,5,3.7726,,,,,,82,cake,kitchen,,89379,001,2022-04-25_15h53.54.160,SPAMnetsValid,2021.1.4,Win32,59.84082341,,,,,,,,,,,,,5,3.7726,0,84,84,96,1,,,,,,,,,,,,,,,,,,,,,,,,,,,,,,,,,,,,,,,,,,,,,,,,,,,,,,,,,,,,,,,,,,,,,,
,,,,3,1.9217,,,,,,18,onion,refrigerator,,89379,001,2022-04-25_15h53.54.160,SPAMnetsValid,2021.1.4,Win32,59.84082341,,,,,,,,,,,,,3,1.9217,0,85,85,62,1,,,,,,,,,,,,,,,,,,,,,,,,,,,,,,,,,,,,,,,,,,,,,,,,,,,,,,,,,,,,,,,,,,,,,,
,,,,3,2.3108,,,,,,25,carrot,onion,,89379,001,2022-04-25_15h53.54.160,SPAMnetsValid,2021.1.4,Win32,59.84082341,,,,,,,,,,,,,3,2.3108,0,86,86,44,1,,,,,,,,,,,,,,,,,,,,,,,,,,,,,,,,,,,,,,,,,,,,,,,,,,,,,,,,,,,,,,,,,,,,,,
,,,,1,1.4933,,,,,,23,flower,microwave,,89379,001,2022-04-25_15h53.54.160,SPAMnetsValid,2021.1.4,Win32,59.84082341,,,,,,,,,,,,,1,1.4933,0,87,87,25,1,,,,,,,,,,,,,,,,,,,,,,,,,,,,,,,,,,,,,,,,,,,,,,,,,,,,,,,,,,,,,,,,,,,,,,
,,,,1,1.3063,,,,,,83,broom,carrot,,89379,001,2022-04-25_15h53.54.160,SPAMnetsValid,2021.1.4,Win32,59.84082341,,,,,,,,,,,,,1,1.3063,0,88,88,4,1,,,,,,,,,,,,,,,,,,,,,,,,,,,,,,,,,,,,,,,,,,,,,,,,,,,,,,,,,,,,,,,,,,,,,,
,,,,1,2.4261,,,,,,37,garden,refrigerator,,89379,001,2022-04-25_15h53.54.160,SPAMnetsValid,2021.1.4,Win32,59.84082341,,,,,,,,,,,,,1,2.4261,0,89,89,11,1,,,,,,,,,,,,,,,,,,,,,,,,,,,,,,,,,,,,,,,,,,,,,,,,,,,,,,,,,,,,,,,,,,,,,,
,,,,1,1.2806,,,,,,65,broom,garden,,89379,001,2022-04-25_15h53.54.160,SPAMnetsValid,2021.1.4,Win32,59.84082341,,,,,,,,,,,,,1,1.2806,0,90,90,23,1,,,,,,,,,,,,,,,,,,,,,,,,,,,,,,,,,,,,,,,,,,,,,,,,,,,,,,,,,,,,,,,,,,,,,,
,,,,1,1.4082,,,,,,95,broom,refrigerator,,89379,001,2022-04-25_15h53.54.160,SPAMnetsValid,2021.1.4,Win32,59.84082341,,,,,,,,,,,,,1,1.4082,0,91,91,90,1,,,,,,,,,,,,,,,,,,,,,,,,,,,,,,,,,,,,,,,,,,,,,,,,,,,,,,,,,,,,,,,,,,,,,,
,,,,7,2.777,,,,,,79,garden,strawberry,,89379,001,2022-04-25_15h53.54.160,SPAMnetsValid,2021.1.4,Win32,59.84082341,,,,,,,,,,,,,7,2.777,0,92,92,87,1,,,,,,,,,,,,,,,,,,,,,,,,,,,,,,,,,,,,,,,,,,,,,,,,,,,,,,,,,,,,,,,,,,,,,,
,,,,4,1.8553,,,,,,69,carrot,refrigerator,,89379,001,2022-04-25_15h53.54.160,SPAMnetsValid,2021.1.4,Win32,59.84082341,,,,,,,,,,,,,4,1.8553,0,93,93,75,1,,,,,,,,,,,,,,,,,,,,,,,,,,,,,,,,,,,,,,,,,,,,,,,,,,,,,,,,,,,,,,,,,,,,,,
,,,,1,2.0281,,,,,,50,carrot,rose,,89379,001,2022-04-25_15h53.54.160,SPAMnetsValid,2021.1.4,Win32,59.84082341,,,,,,,,,,,,,1,2.0281,0,94,94,73,1,,,,,,,,,,,,,,,,,,,,,,,,,,,,,,,,,,,,,,,,,,,,,,,,,,,,,,,,,,,,,,,,,,,,,,
,,,,4,1.7651,,,,,,47,onion,tomato,,89379,001,2022-04-25_15h53.54.160,SPAMnetsValid,2021.1.4,Win32,59.84082341,,,,,,,,,,,,,4,1.7651,0,95,95,51,1,,,,,,,,,,,,,,,,,,,,,,,,,,,,,,,,,,,,,,,,,,,,,,,,,,,,,,,,,,,,,,,,,,,,,,
,,,,3,6.0254,,,,,,66,melon,yogurt,,89379,001,2022-04-25_15h53.54.160,SPAMnetsValid,2021.1.4,Win32,59.84082341,,,,,,,,,,,,,3,6.0254,0,96,96,48,1,,,,,,,,,,,,,,,,,,,,,,,,,,,,,,,,,,,,,,,,,,,,,,,,,,,,,,,,,,,,,,,,,,,,,,
,,,,,,,,,,,,,,,89379,001,2022-04-25_15h53.54.160,SPAMnetsValid,2021.1.4,Win32,59.84082341,,,,,,,,,,,,,,,,,,,,0,0,0,0,1,,,,,,,,,,,,,,,,,,,,,,,,,,,,,,,,,,,,,,,,,,,,,,,,,,,,,,,,,,,,,,,,,
,,,,,,,,,,,,,,,89379,001,2022-04-25_15h53.54.160,SPAMnetsValid,2021.1.4,Win32,59.84082341,,,,,,0,1,1,0,1,1,0,,,,,,,,,,,,,,,,,,,,,,,,,,,,,,,,,,,,,,,,,,,,,,,,,,,,,,,,,,,,,,,,,,,,,,,,,,,,,
,,,,,,,,,,,,,,,89379,001,2022-04-25_15h53.54.160,SPAMnetsValid,2021.1.4,Win32,59.84082341,,,,,,,,,,,,,,,,,,,,,,,,,2,6.0465,0,0,0,0,1,rancor,forbearance,ridicule,malice,bravery,3,,,,,,,,,,,,,,,,,,,,,,,,,,,,,,,,,,,,,,,,,,,,,,,,,,,,
,,,,,,,,,,,,,,,89379,001,2022-04-25_15h53.54.160,SPAMnetsValid,2021.1.4,Win32,59.84082341,,,,,,,,,,,,,,,,,,,,,,,,,4,4.8598,0,1,1,1,1,raucous,empty,quiet,smooth,harsh,4,,,,,,,,,,,,,,,,,,,,,,,,,,,,,,,,,,,,,,,,,,,,,,,,,,,,
,,,,,,,,,,,,,,,89379,001,2022-04-25_15h53.54.160,SPAMnetsValid,2021.1.4,Win32,59.84082341,,,,,,,,,,,,,,,,,,,,,,,,,4,7.513,0,2,2,2,1,gargoyle,oil,medicine,carved waterspout,ugly building,3,,,,,,,,,,,,,,,,,,,,,,,,,,,,,,,,,,,,,,,,,,,,,,,,,,,,
,,,,,,,,,,,,,,,89379,001,2022-04-25_15h53.54.160,SPAMnetsValid,2021.1.4,Win32,59.84082341,,,,,,,,,,,,,,,,,,,,,,,,,2,6.3105,0,3,3,3,1,recrudesce,purify,renew activity,lack refinement,crush,2,,,,,,,,,,,,,,,,,,,,,,,,,,,,,,,,,,,,,,,,,,,,,,,,,,,,
,,,,,,,,,,,,,,,89379,001,2022-04-25_15h53.54.160,SPAMnetsValid,2021.1.4,Win32,59.84082341,,,,,,,,,,,,,,,,,,,,,,,,,1,10.8137,0,4,4,4,1,specious,"plausible, but not genuine",noteworthy,class or variety,roomy,1,,,,,,,,,,,,,,,,,,,,,,,,,,,,,,,,,,,,,,,,,,,,,,,,,,,,
,,,,,,,,,,,,,,,89379,001,2022-04-25_15h53.54.160,SPAMnetsValid,2021.1.4,Win32,59.84082341,,,,,,,,,,,,,,,,,,,,,,,,,4,5.5801,0,5,5,5,1,bauble,bubble,showy plaything,idle talk,confusion,2,,,,,,,,,,,,,,,,,,,,,,,,,,,,,,,,,,,,,,,,,,,,,,,,,,,,
,,,,,,,,,,,,,,,89379,001,2022-04-25_15h53.54.160,SPAMnetsValid,2021.1.4,Win32,59.84082341,,,,,,,,,,,,,,,,,,,,,,,,,2,6.4951,0,6,6,6,1,prolific,scarce,producing abundantly,reckless,speaking profanely,2,,,,,,,,,,,,,,,,,,,,,,,,,,,,,,,,,,,,,,,,,,,,,,,,,,,,
,,,,,,,,,,,,,,,89379,001,2022-04-25_15h53.54.160,SPAMnetsValid,2021.1.4,Win32,59.84082341,,,,,,,,,,,,,,,,,,,,,,,,,2,5.6978,0,7,7,7,1,opulent,party,wealthy,happy frame of mind,semiprecious stone,2,,,,,,,,,,,,,,,,,,,,,,,,,,,,,,,,,,,,,,,,,,,,,,,,,,,,
,,,,,,,,,,,,,,,89379,001,2022-04-25_15h53.54.160,SPAMnetsValid,2021.1.4,Win32,59.84082341,,,,,,,,,,,,,,,,,,,,,,,,,1,4.1332,0,8,8,8,1,coercion,conspiracy,strategy,restraint,attraction,3,,,,,,,,,,,,,,,,,,,,,,,,,,,,,,,,,,,,,,,,,,,,,,,,,,,,
,,,,,,,,,,,,,,,89379,001,2022-04-25_15h53.54.160,SPAMnetsValid,2021.1.4,Win32,59.84082341,,,,,,,,,,,,,,,,,,,,,,,,,2,3.6318,0,9,9,9,1,hiatus,animal,calamity,dread,gap,4,,,,,,,,,,,,,,,,,,,,,,,,,,,,,,,,,,,,,,,,,,,,,,,,,,,,
,,,,,,,,,,,,,,,89379,001,2022-04-25_15h53.54.160,SPAMnetsValid,2021.1.4,Win32,59.84082341,,,,,,,,,,,,,,,,,,,,,,,,,4,4.4702,0,10,10,10,1,germane,microbe,contagious,relevant,different,3,,,,,,,,,,,,,,,,,,,,,,,,,,,,,,,,,,,,,,,,,,,,,,,,,,,,
,,,,,,,,,,,,,,,89379,001,2022-04-25_15h53.54.160,SPAMnetsValid,2021.1.4,Win32,59.84082341,,,,,,,,,,,,,,,,,,,,,,,,,3,6.4161,0,11,11,11,1,perfunctory,fundamental,formal,superficial,careful,3,,,,,,,,,,,,,,,,,,,,,,,,,,,,,,,,,,,,,,,,,,,,,,,,,,,,
,,,,,,,,,,,,,,,89379,001,2022-04-25_15h53.54.160,SPAMnetsValid,2021.1.4,Win32,59.84082341,,,,,,,,,,,,,,,,,,,,,,,,,4,4.4036,0,12,12,12,1,diverge,reveal,chant,distract the attention of,differ or turn off from,4,,,,,,,,,,,,,,,,,,,,,,,,,,,,,,,,,,,,,,,,,,,,,,,,,,,,
,,,,,,,,,,,,,,,89379,001,2022-04-25_15h53.54.160,SPAMnetsValid,2021.1.4,Win32,59.84082341,,,,,,,,,,,,,,,,,,,,,,,,,4,3.9626,0,13,13,13,1,evoke,take away,anger,connect,bring out,4,,,,,,,,,,,,,,,,,,,,,,,,,,,,,,,,,,,,,,,,,,,,,,,,,,,,
,,,,,,,,,,,,,,,89379,001,2022-04-25_15h53.54.160,SPAMnetsValid,2021.1.4,Win32,59.84082341,,,,,,,,,,,,,,,,,,,,,,,,,1,3.6452,0,14,14,14,1,pertinent,relevant,lying next to,necessary,bold,1,,,,,,,,,,,,,,,,,,,,,,,,,,,,,,,,,,,,,,,,,,,,,,,,,,,,
,,,,,,,,,,,,,,,89379,001,2022-04-25_15h53.54.160,SPAMnetsValid,2021.1.4,Win32,59.84082341,,,,,,,,,,,,,,,,,,,,,,,,,2,4.0965,0,15,15,15,1,holocaust,entirety,destruction,saintly,price,2,,,,,,,,,,,,,,,,,,,,,,,,,,,,,,,,,,,,,,,,,,,,,,,,,,,,
,,,,,,,,,,,,,,,89379,001,2022-04-25_15h53.54.160,SPAMnetsValid,2021.1.4,Win32,59.84082341,,,,,,,,,,,,,,,,,,,,,,,,,1,5.2789,0,16,16,16,1,piquant,mellow,fish,pungent,cloth,3,,,,,,,,,,,,,,,,,,,,,,,,,,,,,,,,,,,,,,,,,,,,,,,,,,,,
,,,,,,,,,,,,,,,89379,001,2022-04-25_15h53.54.160,SPAMnetsValid,2021.1.4,Win32,59.84082341,,,,,,,,,,,,,,,,,,,,,,,,,3,2.2578,0,17,17,17,1,firmament,foundation,heavens,strong,glue,2,,,,,,,,,,,,,,,,,,,,,,,,,,,,,,,,,,,,,,,,,,,,,,,,,,,,
,,,,,,,,,,,,,,,89379,001,2022-04-25_15h53.54.160,SPAMnetsValid,2021.1.4,Win32,59.84082341,,,,,,,,,,,,,,,,,,,,,,,,,,,,,,,,,,,,,,5,8.8349,0,0,0,0,1,marketable,partisan,jocular,marriageable,salable,essential,4,,,,,,,,,,,,,,,,,,,,,,,,,,,,,,,,,,,,,,
,,,,,,,,,,,,,,,89379,001,2022-04-25_15h53.54.160,SPAMnetsValid,2021.1.4,Win32,59.84082341,,,,,,,,,,,,,,,,,,,,,,,,,,,,,,,,,,,,,,4,8.2793,0,1,1,1,1,cottontail,squirrel,poplar,boa,marshy plant,rabbit,5,,,,,,,,,,,,,,,,,,,,,,,,,,,,,,,,,,,,,,
,,,,,,,,,,,,,,,89379,001,2022-04-25_15h53.54.160,SPAMnetsValid,2021.1.4,Win32,59.84082341,,,,,,,,,,,,,,,,,,,,,,,,,,,,,,,,,,,,,,4,7.4131,0,2,2,2,1,boggy,afraid,false,marshy,dense,black,3,,,,,,,,,,,,,,,,,,,,,,,,,,,,,,,,,,,,,,
,,,,,,,,,,,,,,,89379,001,2022-04-25_15h53.54.160,SPAMnetsValid,2021.1.4,Win32,59.84082341,,,,,,,,,,,,,,,,,,,,,,,,,,,,,,,,,,,,,,5,7.5961,0,3,3,3,1,gruesomeness,blackness,falseness,vindictiveness,drunkenness,ghastliness,5,,,,,,,,,,,,,,,,,,,,,,,,,,,,,,,,,,,,,,
,,,,,,,,,,,,,,,89379,001,2022-04-25_15h53.54.160,SPAMnetsValid,2021.1.4,Win32,59.84082341,,,,,,,,,,,,,,,,,,,,,,,,,,,,,,,,,,,,,,2,5.8435,0,4,4,4,1,loathing,diffidence,laziness,abhorrence,cleverness,comfort,3,,,,,,,,,,,,,,,,,,,,,,,,,,,,,,,,,,,,,,
,,,,,,,,,,,,,,,89379,001,2022-04-25_15h53.54.160,SPAMnetsValid,2021.1.4,Win32,59.84082341,,,,,,,,,,,,,,,,,,,,,,,,,,,,,,,,,,,,,,2,4.8951,0,5,5,5,1,bantam,fowl,ridicule,cripple,vegetable,ensign,1,,,,,,,,,,,,,,,,,,,,,,,,,,,,,,,,,,,,,,
,,,,,,,,,,,,,,,89379,001,2022-04-25_15h53.54.160,SPAMnetsValid,2021.1.4,Win32,59.84082341,,,,,,,,,,,,,,,,,,,,,,,,,,,,,,,,,,,,,,5,4.995,0,6,6,6,1,evoke,wake up,surrender,reconnoiter,transcend,call forth,5,,,,,,,,,,,,,,,,,,,,,,,,,,,,,,,,,,,,,,
,,,,,,,,,,,,,,,89379,001,2022-04-25_15h53.54.160,SPAMnetsValid,2021.1.4,Win32,59.84082341,,,,,,,,,,,,,,,,,,,,,,,,,,,,,,,,,,,,,,4,7.3967,0,7,7,7,1,unobtrusive,unintelligent,epileptic,illogical,lineal,modest,5,,,,,,,,,,,,,,,,,,,,,,,,,,,,,,,,,,,,,,
,,,,,,,,,,,,,,,89379,001,2022-04-25_15h53.54.160,SPAMnetsValid,2021.1.4,Win32,59.84082341,,,,,,,,,,,,,,,,,,,,,,,,,,,,,,,,,,,,,,4,4.5305,0,8,8,8,1,terrain,ice cream,final test,tractor,area of ground,weight,4,,,,,,,,,,,,,,,,,,,,,,,,,,,,,,,,,,,,,,
,,,,,,,,,,,,,,,89379,001,2022-04-25_15h53.54.160,SPAMnetsValid,2021.1.4,Win32,59.84082341,,,,,,,,,,,,,,,,,,,,,,,,,,,,,,,,,,,,,,2,7.5235,0,9,9,9,1,capriciousness,stubbornness,courage,whimsicality,amazement,greediness,3,,,,,,,,,,,,,,,,,,,,,,,,,,,,,,,,,,,,,,
,,,,,,,,,,,,,,,89379,001,2022-04-25_15h53.54.160,SPAMnetsValid,2021.1.4,Win32,59.84082341,,,,,,,,,,,,,,,,,,,,,,,,,,,,,,,,,,,,,,3,5.8737,0,10,10,10,1,maelstrom,slander,whirlpool,enmity,armor,majolica,2,,,,,,,,,,,,,,,,,,,,,,,,,,,,,,,,,,,,,,
,,,,,,,,,,,,,,,89379,001,2022-04-25_15h53.54.160,SPAMnetsValid,2021.1.4,Win32,59.84082341,,,,,,,,,,,,,,,,,,,,,,,,,,,,,,,,,,,,,,5,4.8751,0,11,11,11,1,tentative,critical,conclusive,authentic,provisional,apprehensive,4,,,,,,,,,,,,,,,,,,,,,,,,,,,,,,,,,,,,,,
,,,,,,,,,,,,,,,89379,001,2022-04-25_15h53.54.160,SPAMnetsValid,2021.1.4,Win32,59.84082341,,,,,,,,,,,,,,,,,,,,,,,,,,,,,,,,,,,,,,5,4.5261,0,12,12,12,1,placate,rehabilitate,plagiarize,depredate,apprise,conciliate,5,,,,,,,,,,,,,,,,,,,,,,,,,,,,,,,,,,,,,,
,,,,,,,,,,,,,,,89379,001,2022-04-25_15h53.54.160,SPAMnetsValid,2021.1.4,Win32,59.84082341,,,,,,,,,,,,,,,,,,,,,,,,,,,,,,,,,,,,,,5,6.4129,0,13,13,13,1,surcease,enlightenment,cessation,inattention,censor,substitution,2,,,,,,,,,,,,,,,,,,,,,,,,,,,,,,,,,,,,,,
,,,,,,,,,,,,,,,89379,001,2022-04-25_15h53.54.160,SPAMnetsValid,2021.1.4,Win32,59.84082341,,,,,,,,,,,,,,,,,,,,,,,,,,,,,,,,,,,,,,3,5.3993,0,14,14,14,1,apathetic,wandering,impassive,hateful,prophetic,overflowing,2,,,,,,,,,,,,,,,,,,,,,,,,,,,,,,,,,,,,,,
,,,,,,,,,,,,,,,89379,001,2022-04-25_15h53.54.160,SPAMnetsValid,2021.1.4,Win32,59.84082341,,,,,,,,,,,,,,,,,,,,,,,,,,,,,,,,,,,,,,3,7.5462,0,15,15,15,1,paternoster,paternalism,patricide,malediction,benediction,prayer,5,,,,,,,,,,,,,,,,,,,,,,,,,,,,,,,,,,,,,,
,,,,,,,,,,,,,,,89379,001,2022-04-25_15h53.54.160,SPAMnetsValid,2021.1.4,Win32,59.84082341,,,,,,,,,,,,,,,,,,,,,,,,,,,,,,,,,,,,,,1,5.2587,0,16,16,16,1,opalescence,opulence,senescence,bankruptcy,iridescence,assiduity,4,,,,,,,,,,,,,,,,,,,,,,,,,,,,,,,,,,,,,,
,,,,,,,,,,,,,,,89379,001,2022-04-25_15h53.54.160,SPAMnetsValid,2021.1.4,Win32,59.84082341,,,,,,,,,,,,,,,,,,,,,,,,,,,,,,,,,,,,,,5,6.6543,0,17,17,17,1,lush,stupid,luxurious,hazy,putrid,languishing,2,,,,,,,,,,,,,,,,,,,,,,,,,,,,,,,,,,,,,,
,,,,,,,,,,,,,,,89379,001,2022-04-25_15h53.54.160,SPAMnetsValid,2021.1.4,Win32,59.84082341,,,,,,,,,,,,,,,,,,,,,,,,,,,,,,,,,,,,,,3,9.8802,0,18,18,18,1,curtailment,expenditure,abandonment,abridgment,improvement,forgery,3,,,,,,,,,,,,,,,,,,,,,,,,,,,,,,,,,,,,,,
,,,,,,,,,,,,,,,89379,001,2022-04-25_15h53.54.160,SPAMnetsValid,2021.1.4,Win32,59.84082341,,,,,,,,,,,,,,,,,,,,,,,,,,,,,,,,,,,,,,5,5.8352,0,19,19,19,1,perversity,adversity,perviousness,travesty,waywardness,gentility,4,,,,,,,,,,,,,,,,,,,,,,,,,,,,,,,,,,,,,,
,,,,,,,,,,,,,,,89379,001,2022-04-25_15h53.54.160,SPAMnetsValid,2021.1.4,Win32,59.84082341,,,,,,,,,,,,,,,,,,,,,,,,,,,,,,,,,,,,,,5,8.0547,0,20,20,20,1,calumnious,complimentary,analogous,slanderous,tempestuous,magnanimous,3,,,,,,,,,,,,,,,,,,,,,,,,,,,,,,,,,,,,,,
,,,,,,,,,,,,,,,89379,001,2022-04-25_15h53.54.160,SPAMnetsValid,2021.1.4,Win32,59.84082341,,,,,,,,,,,,,,,,,,,,,,,,,,,,,,,,,,,,,,2,6.0365,0,21,21,21,1,illiberality,bigotry,imbecility,illegibility,cautery,immaturity,1,,,,,,,,,,,,,,,,,,,,,,,,,,,,,,,,,,,,,,
,,,,,,,,,,,,,,,89379,001,2022-04-25_15h53.54.160,SPAMnetsValid,2021.1.4,Win32,59.84082341,,,,,,,,,,,,,,,,,,,,,,,,,,,,,,,,,,,,,,1,6.4716,0,22,22,22,1,clabber,rejoice,gossip,curdle,crow,hobble,3,,,,,,,,,,,,,,,,,,,,,,,,,,,,,,,,,,,,,,
,,,,,,,,,,,,,,,89379,001,2022-04-25_15h53.54.160,SPAMnetsValid,2021.1.4,Win32,59.84082341,,,,,,,,,,,,,,,,,,,,,,,,,,,,,,,,,,,,,,5,7.1995,0,23,23,23,1,sedulousness,diligence,credulousness,seduction,perilousness,frankness,1,,,,,,,,,,,,,,,,,,,,,,,,,,,,,,,,,,,,,,
,,,,,,,,,,,,,,,89379,001,2022-04-25_15h53.54.160,SPAMnetsValid,2021.1.4,Win32,59.84082341,,,,,,,,,,,,,,,,,,,,,,,,,,,,,,,,,,,,,,,,,,,,,,,,,,,,light,candle,0,0,0,0,1,,,,,,,,,,,,,,,,,,,,,,,,,,,,,,,
,,,,,,,,,,,,,,,89379,001,2022-04-25_15h53.54.160,SPAMnetsValid,2021.1.4,Win32,59.84082341,,,,,,,,,,,,,,,,,,,,,,,,,,,,,,,,,,,,,,,,,,,,,,,,,,,,heat,candle,1,0,1,0,1,,,,,,,,,,,,,,,,,,,,,,,,,,,,,,,
,,,,,,,,,,,,,,,89379,001,2022-04-25_15h53.54.160,SPAMnetsValid,2021.1.4,Win32,59.84082341,,,,,,,,,,,,,,,,,,,,,,,,,,,,,,,,,,,,,,,,,,,,,,,,,,,,warmth,candle,2,0,2,0,1,,,,,,,,,,,,,,,,,,,,,,,,,,,,,,,
,,,,,,,,,,,,,,,89379,001,2022-04-25_15h53.54.160,SPAMnetsValid,2021.1.4,Win32,59.84082341,,,,,,,,,,,,,,,,,,,,,,,,,,,,,,,,,,,,,,,,,,,,,,,,,,,,fusion,candle,3,0,3,0,1,,,,,,,,,,,,,,,,,,,,,,,,,,,,,,,
,,,,,,,,,,,,,,,89379,001,2022-04-25_15h53.54.160,SPAMnetsValid,2021.1.4,Win32,59.84082341,,,,,,,,,,,,,,,,,,,,,,,,,,,,,,,,,,,,,,,,,,,,,,,,,,,,mood,candle,4,0,4,0,1,,,,,,,,,,,,,,,,,,,,,,,,,,,,,,,
,,,,,,,,,,,,,,,89379,001,2022-04-25_15h53.54.160,SPAMnetsValid,2021.1.4,Win32,59.84082341,,,,,,,,,,,,,,,,,,,,,,,,,,,,,,,,,,,,,,,,,,,,,,,,,,,,scent,candle,5,0,5,0,1,,,,,,,,,,,,,,,,,,,,,,,,,,,,,,,
,,,,,,,,,,,,,,,89379,001,2022-04-25_15h53.54.160,SPAMnetsValid,2021.1.4,Win32,59.84082341,,,,,,,,,,,,,,,,,,,,,,,,,,,,,,,,,,,,,,,,,,,,,,,,,,,,less fearsome,candle,6,0,6,0,1,,,,,,,,,,,,,,,,,,,,,,,,,,,,,,,
,,,,,,,,,,,,,,,89379,001,2022-04-25_15h53.54.160,SPAMnetsValid,2021.1.4,Win32,59.84082341,,,,,,,,,,,,,,,,,,,,,,,,,,,,,,,,,,,,,,,,,,,,,,,,,,,,tone,candle,7,0,7,0,1,,,,,,,,,,,,,,,,,,,,,,,,,,,,,,,
,,,,,,,,,,,,,,,89379,001,2022-04-25_15h53.54.160,SPAMnetsValid,2021.1.4,Win32,59.84082341,,,,,,,,,,,,,,,,,,,,,,,,,,,,,,,,,,,,,,,,,,,,,,,,,,,,relax,candle,8,0,8,0,1,,,,,,,,,,,,,,,,,,,,,,,,,,,,,,,
,,,,,,,,,,,,,,,89379,001,2022-04-25_15h53.54.160,SPAMnetsValid,2021.1.4,Win32,59.84082341,,,,,,,,,,,,,,,,,,,,,,,,,,,,,,,,,,,,,,,,,,,,,,,,,,,,distract,candle,9,0,9,0,1,,,,,,,,,,,,,,,,,,,,,,,,,,,,,,,
,,,,,,,,,,,,,,,89379,001,2022-04-25_15h53.54.160,SPAMnetsValid,2021.1.4,Win32,59.84082341,,,,,,,,,,,,,,,,,,,,,,,,,,,,,,,,,,,,,,,,,,,,,,,,,,,,,,,,,,,0,0,0,1,1,candle,,,,,,,,,,,,,,,,,,,,,,,,,
,,,,,,,,,,,,,,,89379,001,2022-04-25_15h53.54.160,SPAMnetsValid,2021.1.4,Win32,59.84082341,,,,,,,,,,,,,,,,,,,,,,,,,,,,,,,,,,,,,,,,,,,,,,,,,,,,transport,bucket,0,0,0,0,1,,,,,,,,,,,,,,,,,,,,,,,,,,,,,,,
,,,,,,,,,,,,,,,89379,001,2022-04-25_15h53.54.160,SPAMnetsValid,2021.1.4,Win32,59.84082341,,,,,,,,,,,,,,,,,,,,,,,,,,,,,,,,,,,,,,,,,,,,,,,,,,,,fill up,bucket,1,0,1,0,1,,,,,,,,,,,,,,,,,,,,,,,,,,,,,,,
,,,,,,,,,,,,,,,89379,001,2022-04-25_15h53.54.160,SPAMnetsValid,2021.1.4,Win32,59.84082341,,,,,,,,,,,,,,,,,,,,,,,,,,,,,,,,,,,,,,,,,,,,,,,,,,,,elevation,bucket,2,0,2,0,1,,,,,,,,,,,,,,,,,,,,,,,,,,,,,,,
,,,,,,,,,,,,,,,89379,001,2022-04-25_15h53.54.160,SPAMnetsValid,2021.1.4,Win32,59.84082341,,,,,,,,,,,,,,,,,,,,,,,,,,,,,,,,,,,,,,,,,,,,,,,,,,,,hat,bucket,3,0,3,0,1,,,,,,,,,,,,,,,,,,,,,,,,,,,,,,,
,,,,,,,,,,,,,,,89379,001,2022-04-25_15h53.54.160,SPAMnetsValid,2021.1.4,Win32,59.84082341,,,,,,,,,,,,,,,,,,,,,,,,,,,,,,,,,,,,,,,,,,,,,,,,,,,,leaks,bucket,4,0,4,0,1,,,,,,,,,,,,,,,,,,,,,,,,,,,,,,,
,,,,,,,,,,,,,,,89379,001,2022-04-25_15h53.54.160,SPAMnetsValid,2021.1.4,Win32,59.84082341,,,,,,,,,,,,,,,,,,,,,,,,,,,,,,,,,,,,,,,,,,,,,,,,,,,,pouring,bucket,5,0,5,0,1,,,,,,,,,,,,,,,,,,,,,,,,,,,,,,,
,,,,,,,,,,,,,,,89379,001,2022-04-25_15h53.54.160,SPAMnetsValid,2021.1.4,Win32,59.84082341,,,,,,,,,,,,,,,,,,,,,,,,,,,,,,,,,,,,,,,,,,,,,,,,,,,,seat,bucket,6,0,6,0,1,,,,,,,,,,,,,,,,,,,,,,,,,,,,,,,
,,,,,,,,,,,,,,,89379,001,2022-04-25_15h53.54.160,SPAMnetsValid,2021.1.4,Win32,59.84082341,,,,,,,,,,,,,,,,,,,,,,,,,,,,,,,,,,,,,,,,,,,,,,,,,,,,stool,bucket,7,0,7,0,1,,,,,,,,,,,,,,,,,,,,,,,,,,,,,,,
,,,,,,,,,,,,,,,89379,001,2022-04-25_15h53.54.160,SPAMnetsValid,2021.1.4,Win32,59.84082341,,,,,,,,,,,,,,,,,,,,,,,,,,,,,,,,,,,,,,,,,,,,,,,,,,,,carry,bucket,8,0,8,0,1,,,,,,,,,,,,,,,,,,,,,,,,,,,,,,,
,,,,,,,,,,,,,,,89379,001,2022-04-25_15h53.54.160,SPAMnetsValid,2021.1.4,Win32,59.84082341,,,,,,,,,,,,,,,,,,,,,,,,,,,,,,,,,,,,,,,,,,,,,,,,,,,,hold stuff,bucket,9,0,9,0,1,,,,,,,,,,,,,,,,,,,,,,,,,,,,,,,
,,,,,,,,,,,,,,,89379,001,2022-04-25_15h53.54.160,SPAMnetsValid,2021.1.4,Win32,59.84082341,,,,,,,,,,,,,,,,,,,,,,,,,,,,,,,,,,,,,,,,,,,,,,,,,,,,,,,,,,,0,1,1,0,1,bucket,,,,,,,,,,,,,,,,,,,,,,,,,
,,,,,,,,,,,,,,,89379,001,2022-04-25_15h53.54.160,SPAMnetsValid,2021.1.4,Win32,59.84082341,,,,,,,,,,,,,,,,,,,,,,,,,,,,,,,,,,,,,,,,,,,,,,,,,,,,sleep,pillow,0,0,0,0,1,,,,,,,,,,,,,,,,,,,,,,,,,,,,,,,
,,,,,,,,,,,,,,,89379,001,2022-04-25_15h53.54.160,SPAMnetsValid,2021.1.4,Win32,59.84082341,,,,,,,,,,,,,,,,,,,,,,,,,,,,,,,,,,,,,,,,,,,,,,,,,,,,comfort,pillow,1,0,1,0,1,,,,,,,,,,,,,,,,,,,,,,,,,,,,,,,
,,,,,,,,,,,,,,,89379,001,2022-04-25_15h53.54.160,SPAMnetsValid,2021.1.4,Win32,59.84082341,,,,,,,,,,,,,,,,,,,,,,,,,,,,,,,,,,,,,,,,,,,,,,,,,,,,cooling,pillow,2,0,2,0,1,,,,,,,,,,,,,,,,,,,,,,,,,,,,,,,
,,,,,,,,,,,,,,,89379,001,2022-04-25_15h53.54.160,SPAMnetsValid,2021.1.4,Win32,59.84082341,,,,,,,,,,,,,,,,,,,,,,,,,,,,,,,,,,,,,,,,,,,,,,,,,,,,rest head,pillow,3,0,3,0,1,,,,,,,,,,,,,,,,,,,,,,,,,,,,,,,
,,,,,,,,,,,,,,,89379,001,2022-04-25_15h53.54.160,SPAMnetsValid,2021.1.4,Win32,59.84082341,,,,,,,,,,,,,,,,,,,,,,,,,,,,,,,,,,,,,,,,,,,,,,,,,,,,stuff,pillow,4,0,4,0,1,,,,,,,,,,,,,,,,,,,,,,,,,,,,,,,
,,,,,,,,,,,,,,,89379,001,2022-04-25_15h53.54.160,SPAMnetsValid,2021.1.4,Win32,59.84082341,,,,,,,,,,,,,,,,,,,,,,,,,,,,,,,,,,,,,,,,,,,,,,,,,,,,fill with,pillow,5,0,5,0,1,,,,,,,,,,,,,,,,,,,,,,,,,,,,,,,
,,,,,,,,,,,,,,,89379,001,2022-04-25_15h53.54.160,SPAMnetsValid,2021.1.4,Win32,59.84082341,,,,,,,,,,,,,,,,,,,,,,,,,,,,,,,,,,,,,,,,,,,,,,,,,,,,carry,pillow,6,0,6,0,1,,,,,,,,,,,,,,,,,,,,,,,,,,,,,,,
,,,,,,,,,,,,,,,89379,001,2022-04-25_15h53.54.160,SPAMnetsValid,2021.1.4,Win32,59.84082341,,,,,,,,,,,,,,,,,,,,,,,,,,,,,,,,,,,,,,,,,,,,,,,,,,,,decoration,pillow,7,0,7,0,1,,,,,,,,,,,,,,,,,,,,,,,,,,,,,,,
,,,,,,,,,,,,,,,89379,001,2022-04-25_15h53.54.160,SPAMnetsValid,2021.1.4,Win32,59.84082341,,,,,,,,,,,,,,,,,,,,,,,,,,,,,,,,,,,,,,,,,,,,,,,,,,,,,,,,,,,0,2,2,2,1,pillow,,,,,,,,,,,,,,,,,,,,,,,,,
,,,,,,,,,,,,,,,89379,001,2022-04-25_15h53.54.160,SPAMnetsValid,2021.1.4,Win32,59.84082341,,,,,,,,,,,,,,,,,,,,,,,,,,,,,,,,,,,,,,,,,,,,,,,,,,,,,,,,,,,,,,,,,cow,Animals,0,0,0,0,1,,,,,,,,,,,,,,,,,,
,,,,,,,,,,,,,,,89379,001,2022-04-25_15h53.54.160,SPAMnetsValid,2021.1.4,Win32,59.84082341,,,,,,,,,,,,,,,,,,,,,,,,,,,,,,,,,,,,,,,,,,,,,,,,,,,,,,,,,,,,,,,,,pig,Animals,1,0,1,0,1,,,,,,,,,,,,,,,,,,
,,,,,,,,,,,,,,,89379,001,2022-04-25_15h53.54.160,SPAMnetsValid,2021.1.4,Win32,59.84082341,,,,,,,,,,,,,,,,,,,,,,,,,,,,,,,,,,,,,,,,,,,,,,,,,,,,,,,,,,,,,,,,,snake,Animals,2,0,2,0,1,,,,,,,,,,,,,,,,,,
,,,,,,,,,,,,,,,89379,001,2022-04-25_15h53.54.160,SPAMnetsValid,2021.1.4,Win32,59.84082341,,,,,,,,,,,,,,,,,,,,,,,,,,,,,,,,,,,,,,,,,,,,,,,,,,,,,,,,,,,,,,,,,donkey,Animals,3,0,3,0,1,,,,,,,,,,,,,,,,,,
,,,,,,,,,,,,,,,89379,001,2022-04-25_15h53.54.160,SPAMnetsValid,2021.1.4,Win32,59.84082341,,,,,,,,,,,,,,,,,,,,,,,,,,,,,,,,,,,,,,,,,,,,,,,,,,,,,,,,,,,,,,,,,dog,Animals,4,0,4,0,1,,,,,,,,,,,,,,,,,,
,,,,,,,,,,,,,,,89379,001,2022-04-25_15h53.54.160,SPAMnetsValid,2021.1.4,Win32,59.84082341,,,,,,,,,,,,,,,,,,,,,,,,,,,,,,,,,,,,,,,,,,,,,,,,,,,,,,,,,,,,,,,,,cat,Animals,5,0,5,0,1,,,,,,,,,,,,,,,,,,
,,,,,,,,,,,,,,,89379,001,2022-04-25_15h53.54.160,SPAMnetsValid,2021.1.4,Win32,59.84082341,,,,,,,,,,,,,,,,,,,,,,,,,,,,,,,,,,,,,,,,,,,,,,,,,,,,,,,,,,,,,,,,,fish,Animals,6,0,6,0,1,,,,,,,,,,,,,,,,,,
,,,,,,,,,,,,,,,89379,001,2022-04-25_15h53.54.160,SPAMnetsValid,2021.1.4,Win32,59.84082341,,,,,,,,,,,,,,,,,,,,,,,,,,,,,,,,,,,,,,,,,,,,,,,,,,,,,,,,,,,,,,,,,frog,Animals,7,0,7,0,1,,,,,,,,,,,,,,,,,,
,,,,,,,,,,,,,,,89379,001,2022-04-25_15h53.54.160,SPAMnetsValid,2021.1.4,Win32,59.84082341,,,,,,,,,,,,,,,,,,,,,,,,,,,,,,,,,,,,,,,,,,,,,,,,,,,,,,,,,,,,,,,,,duck,Animals,8,0,8,0,1,,,,,,,,,,,,,,,,,,
,,,,,,,,,,,,,,,89379,001,2022-04-25_15h53.54.160,SPAMnetsValid,2021.1.4,Win32,59.84082341,,,,,,,,,,,,,,,,,,,,,,,,,,,,,,,,,,,,,,,,,,,,,,,,,,,,,,,,,,,,,,,,,chicken,Animals,9,0,9,0,1,,,,,,,,,,,,,,,,,,
,,,,,,,,,,,,,,,89379,001,2022-04-25_15h53.54.160,SPAMnetsValid,2021.1.4,Win32,59.84082341,,,,,,,,,,,,,,,,,,,,,,,,,,,,,,,,,,,,,,,,,,,,,,,,,,,,,,,,,,,,,,,,,rooster,Animals,10,0,10,0,1,,,,,,,,,,,,,,,,,,
,,,,,,,,,,,,,,,89379,001,2022-04-25_15h53.54.160,SPAMnetsValid,2021.1.4,Win32,59.84082341,,,,,,,,,,,,,,,,,,,,,,,,,,,,,,,,,,,,,,,,,,,,,,,,,,,,,,,,,,,,,,,,,tiger,Animals,11,0,11,0,1,,,,,,,,,,,,,,,,,,
,,,,,,,,,,,,,,,89379,001,2022-04-25_15h53.54.160,SPAMnetsValid,2021.1.4,Win32,59.84082341,,,,,,,,,,,,,,,,,,,,,,,,,,,,,,,,,,,,,,,,,,,,,,,,,,,,,,,,,,,,,,,,,lion,Animals,12,0,12,0,1,,,,,,,,,,,,,,,,,,
,,,,,,,,,,,,,,,89379,001,2022-04-25_15h53.54.160,SPAMnetsValid,2021.1.4,Win32,59.84082341,,,,,,,,,,,,,,,,,,,,,,,,,,,,,,,,,,,,,,,,,,,,,,,,,,,,,,,,,,,,,,,,,elephant,Animals,13,0,13,0,1,,,,,,,,,,,,,,,,,,
,,,,,,,,,,,,,,,89379,001,2022-04-25_15h53.54.160,SPAMnetsValid,2021.1.4,Win32,59.84082341,,,,,,,,,,,,,,,,,,,,,,,,,,,,,,,,,,,,,,,,,,,,,,,,,,,,,,,,,,,,,,,,,shark,Animals,14,0,14,0,1,,,,,,,,,,,,,,,,,,
,,,,,,,,,,,,,,,89379,001,2022-04-25_15h53.54.160,SPAMnetsValid,2021.1.4,Win32,59.84082341,,,,,,,,,,,,,,,,,,,,,,,,,,,,,,,,,,,,,,,,,,,,,,,,,,,,,,,,,,,,,,,,,whale,Animals,15,0,15,0,1,,,,,,,,,,,,,,,,,,
,,,,,,,,,,,,,,,89379,001,2022-04-25_15h53.54.160,SPAMnetsValid,2021.1.4,Win32,59.84082341,,,,,,,,,,,,,,,,,,,,,,,,,,,,,,,,,,,,,,,,,,,,,,,,,,,,,,,,,,,,,,,,,sea lion,Animals,16,0,16,0,1,,,,,,,,,,,,,,,,,,
,,,,,,,,,,,,,,,89379,001,2022-04-25_15h53.54.160,SPAMnetsValid,2021.1.4,Win32,59.84082341,,,,,,,,,,,,,,,,,,,,,,,,,,,,,,,,,,,,,,,,,,,,,,,,,,,,,,,,,,,,,,,,,penguin,Animals,17,0,17,0,1,,,,,,,,,,,,,,,,,,
,,,,,,,,,,,,,,,89379,001,2022-04-25_15h53.54.160,SPAMnetsValid,2021.1.4,Win32,59.84082341,,,,,,,,,,,,,,,,,,,,,,,,,,,,,,,,,,,,,,,,,,,,,,,,,,,,,,,,,,,,,,,,,bear,Animals,18,0,18,0,1,,,,,,,,,,,,,,,,,,
,,,,,,,,,,,,,,,89379,001,2022-04-25_15h53.54.160,SPAMnetsValid,2021.1.4,Win32,59.84082341,,,,,,,,,,,,,,,,,,,,,,,,,,,,,,,,,,,,,,,,,,,,,,,,,,,,,,,,,,,,,,,,,wold,Animals,19,0,19,0,1,,,,,,,,,,,,,,,,,,
,,,,,,,,,,,,,,,89379,001,2022-04-25_15h53.54.160,SPAMnetsValid,2021.1.4,Win32,59.84082341,,,,,,,,,,,,,,,,,,,,,,,,,,,,,,,,,,,,,,,,,,,,,,,,,,,,,,,,,,,,,,,,,coyote,Animals,20,0,20,0,1,,,,,,,,,,,,,,,,,,
,,,,,,,,,,,,,,,89379,001,2022-04-25_15h53.54.160,SPAMnetsValid,2021.1.4,Win32,59.84082341,,,,,,,,,,,,,,,,,,,,,,,,,,,,,,,,,,,,,,,,,,,,,,,,,,,,,,,,,,,,,,,,,deer,Animals,21,0,21,0,1,,,,,,,,,,,,,,,,,,
,,,,,,,,,,,,,,,89379,001,2022-04-25_15h53.54.160,SPAMnetsValid,2021.1.4,Win32,59.84082341,,,,,,,,,,,,,,,,,,,,,,,,,,,,,,,,,,,,,,,,,,,,,,,,,,,,,,,,,,,,,,,,,moose,Animals,22,0,22,0,1,,,,,,,,,,,,,,,,,,
,,,,,,,,,,,,,,,89379,001,2022-04-25_15h53.54.160,SPAMnetsValid,2021.1.4,Win32,59.84082341,,,,,,,,,,,,,,,,,,,,,,,,,,,,,,,,,,,,,,,,,,,,,,,,,,,,,,,,,,,,,,,,,pigeon,Animals,23,0,23,0,1,,,,,,,,,,,,,,,,,,
,,,,,,,,,,,,,,,89379,001,2022-04-25_15h53.54.160,SPAMnetsValid,2021.1.4,Win32,59.84082341,,,,,,,,,,,,,,,,,,,,,,,,,,,,,,,,,,,,,,,,,,,,,,,,,,,,,,,,,,,,,,,,,bee,Animals,24,0,24,0,1,,,,,,,,,,,,,,,,,,
,,,,,,,,,,,,,,,89379,001,2022-04-25_15h53.54.160,SPAMnetsValid,2021.1.4,Win32,59.84082341,,,,,,,,,,,,,,,,,,,,,,,,,,,,,,,,,,,,,,,,,,,,,,,,,,,,,,,,,,,,,,,,,hyena,Animals,25,0,25,0,1,,,,,,,,,,,,,,,,,,
,,,,,,,,,,,,,,,89379,001,2022-04-25_15h53.54.160,SPAMnetsValid,2021.1.4,Win32,59.84082341,,,,,,,,,,,,,,,,,,,,,,,,,,,,,,,,,,,,,,,,,,,,,,,,,,,,,,,,,,,,,,,,,bobcat,Animals,26,0,26,0,1,,,,,,,,,,,,,,,,,,
,,,,,,,,,,,,,,,89379,001,2022-04-25_15h53.54.160,SPAMnetsValid,2021.1.4,Win32,59.84082341,,,,,,,,,,,,,,,,,,,,,,,,,,,,,,,,,,,,,,,,,,,,,,,,,,,,,,,,,,,,,,,,,leopard,Animals,27,0,27,0,1,,,,,,,,,,,,,,,,,,
,,,,,,,,,,,,,,,89379,001,2022-04-25_15h53.54.160,SPAMnetsValid,2021.1.4,Win32,59.84082341,,,,,,,,,,,,,,,,,,,,,,,,,,,,,,,,,,,,,,,,,,,,,,,,,,,,,,,,,,,,,,,,,,,,,,,,0,0,0,0,1,Animals,,,,,,,,,,,,
,,,,,,,,,,,,,,,89379,001,2022-04-25_15h53.54.160,SPAMnetsValid,2021.1.4,Win32,59.84082341,,,,,,,,,,,,,,,,,,,,,,,,,,,,,,,,,,,,,,,,,,,,,,,,,,,,,,,,,,,,,,,,,,,,,,,,,,,,,,2,7.2171,0,0,0,0,1,"I enjoy concentrating on a fantasy or daydream and exploring all its possibilities, letting it grow and develop.",0,1,,
,,,,,,,,,,,,,,,89379,001,2022-04-25_15h53.54.160,SPAMnetsValid,2021.1.4,Win32,59.84082341,,,,,,,,,,,,,,,,,,,,,,,,,,,,,,,,,,,,,,,,,,,,,,,,,,,,,,,,,,,,,,,,,,,,,,,,,,,,,,4,3.0658,0,1,1,1,1,I think it's interesting to learn and develop new hobbies.,0,2,,
,,,,,,,,,,,,,,,89379,001,2022-04-25_15h53.54.160,SPAMnetsValid,2021.1.4,Win32,59.84082341,,,,,,,,,,,,,,,,,,,,,,,,,,,,,,,,,,,,,,,,,,,,,,,,,,,,,,,,,,,,,,,,,,,,,,,,,,,,,,2,2.9128,0,2,2,2,1,I am intrigued by the patterns I find in art and nature.,0,3,,
,,,,,,,,,,,,,,,89379,001,2022-04-25_15h53.54.160,SPAMnetsValid,2021.1.4,Win32,59.84082341,,,,,,,,,,,,,,,,,,,,,,,,,,,,,,,,,,,,,,,,,,,,,,,,,,,,,,,,,,,,,,,,,,,,,,,,,,,,,,2,5.0608,0,3,3,3,1,I believe letting students hear controversial speakers can only confuse and mislead them.,1,4,,
,,,,,,,,,,,,,,,89379,001,2022-04-25_15h53.54.160,SPAMnetsValid,2021.1.4,Win32,59.84082341,,,,,,,,,,,,,,,,,,,,,,,,,,,,,,,,,,,,,,,,,,,,,,,,,,,,,,,,,,,,,,,,,,,,,,,,,,,,,,4,3.7135,0,4,4,4,1,Poetry has little or no effect on me.,1,5,,
,,,,,,,,,,,,,,,89379,001,2022-04-25_15h53.54.160,SPAMnetsValid,2021.1.4,Win32,59.84082341,,,,,,,,,,,,,,,,,,,,,,,,,,,,,,,,,,,,,,,,,,,,,,,,,,,,,,,,,,,,,,,,,,,,,,,,,,,,,,2,5.5825,0,5,5,5,1,I would have difficulty just letting my mind wander without control or guidance.,1,6,,
,,,,,,,,,,,,,,,89379,001,2022-04-25_15h53.54.160,SPAMnetsValid,2021.1.4,Win32,59.84082341,,,,,,,,,,,,,,,,,,,,,,,,,,,,,,,,,,,,,,,,,,,,,,,,,,,,,,,,,,,,,,,,,,,,,,,,,,,,,,4,6.1559,0,6,6,6,1,I seldom notice the moods or feelings that different environments produce.,1,7,,
,,,,,,,,,,,,,,,89379,001,2022-04-25_15h53.54.160,SPAMnetsValid,2021.1.4,Win32,59.84082341,,,,,,,,,,,,,,,,,,,,,,,,,,,,,,,,,,,,,,,,,,,,,,,,,,,,,,,,,,,,,,,,,,,,,,,,,,,,,,4,3.4374,0,7,7,7,1,I experience a wide range of emotions or feelings.,0,8,,
,,,,,,,,,,,,,,,89379,001,2022-04-25_15h53.54.160,SPAMnetsValid,2021.1.4,Win32,59.84082341,,,,,,,,,,,,,,,,,,,,,,,,,,,,,,,,,,,,,,,,,,,,,,,,,,,,,,,,,,,,,,,,,,,,,,,,,,,,,,3,6.8719,0,8,8,8,1,"Sometimes when I am reading poetry or looking at a work of art, I feel a chill or wave of excitement.",0,9,,
,,,,,,,,,,,,,,,89379,001,2022-04-25_15h53.54.160,SPAMnetsValid,2021.1.4,Win32,59.84082341,,,,,,,,,,,,,,,,,,,,,,,,,,,,,,,,,,,,,,,,,,,,,,,,,,,,,,,,,,,,,,,,,,,,,,,,,,,,,,3,6.3797,0,9,9,9,1,I have little interest in speculating on the nature of the universe or the human condition.,1,10,,
,,,,,,,,,,,,,,,89379,001,2022-04-25_15h53.54.160,SPAMnetsValid,2021.1.4,Win32,59.84082341,,,,,,,,,,,,,,,,,,,,,,,,,,,,,,,,,,,,,,,,,,,,,,,,,,,,,,,,,,,,,,,,,,,,,,,,,,,,,,3,2.7274,0,10,10,10,1,I have a lot of intellectual curiosity.,0,11,,
,,,,,,,,,,,,,,,89379,001,2022-04-25_15h53.54.160,SPAMnetsValid,2021.1.4,Win32,59.84082341,,,,,,,,,,,,,,,,,,,,,,,,,,,,,,,,,,,,,,,,,,,,,,,,,,,,,,,,,,,,,,,,,,,,,,,,,,,,,,2,3.445,0,11,11,11,1,I often enjoy playing with theories or abstract ideas.,0,12,,
,,,,,,,,,,,,,,,89379,001,2022-04-25_15h53.54.160,SPAMnetsValid,2021.1.4,Win32,59.84082341,,,,,,,,,,,,,,,,,,,,,,,,,,,,,,,,,,,,,,,,,,,,,,,,,,,,,,,,,,,,,,,,,,,,,,,,,,,,,,,,,,,,,,,,return,9.5398
