key_resp_3.keys,key_resp_3.rt,slider.response,slider.rt,rjt_rating,rjt_RT,trials_22.thisRepN,trials_22.thisTrialN,trials_22.thisN,trials_22.thisIndex,trials_22.ran,rjt_order,word1,word2,attention,participant,session,date,expName,psychopyVersion,OS,frameRate,trials_99.thisRepN,trials_99.thisTrialN,trials_99.thisN,trials_99.thisIndex,trials_99.ran,trials_5.thisRepN,trials_5.thisTrialN,trials_5.thisN,trials_5.thisIndex,trials_5.ran,repOne,repTwo,slider_2.response,slider_2.rt,trials_24.thisRepN,trials_24.thisTrialN,trials_24.thisN,trials_24.thisIndex,trials_24.ran,trials_4.thisRepN,trials_4.thisTrialN,trials_4.thisN,trials_4.thisIndex,trials_4.ran,slider_extend_2.response,slider_extend_2.rt,trials_6.thisRepN,trials_6.thisTrialN,trials_6.thisN,trials_6.thisIndex,trials_6.ran,vCue2,R1,R2,R3,R4,correct,sliderVocab.response,sliderVocab.rt,trials_7.thisRepN,trials_7.thisTrialN,trials_7.thisN,trials_7.thisIndex,trials_7.ran,VocabCue,VR1,VR2,VR3,VR4,VR5,VocabCorrect,AUT_resp,AUT_label,trials.thisRepN,trials.thisTrialN,trials.thisN,trials.thisIndex,trials.ran,trials_2.thisRepN,trials_2.thisTrialN,trials_2.thisN,trials_2.thisIndex,trials_2.ran,aut_prompt,VF_response,VF_tag,trials_16.thisRepN,trials_16.thisTrialN,trials_16.thisN,trials_16.thisIndex,trials_16.ran,trials_17.thisRepN,trials_17.thisTrialN,trials_17.thisN,trials_17.thisIndex,trials_17.ran,VFcond,open_slider.response,open_slider.rt,trials_3.thisRepN,trials_3.thisTrialN,trials_3.thisN,trials_3.thisIndex,trials_3.ran,OpenQ,Rev,OPEN_ORDER,key_resp_2.keys,key_resp_2.rt
return,11.6479,6,8.3416,6,8.3416,0,0,0,52,1,4,chocolate,pretzel,,89418,001,2022-04-25_14h37.13.274,SPAMnetsValid,2021.1.4,Win32,60.04924038,,,,,,,,,,,,,,,,,,,,,,,,,,,,,,,,,,,,,,,,,,,,,,,,,,,,,,,,,,,,,,,,,,,,,,,,,,,,,,,,,,,,,,,,,
,,6,5.4843,6,5.4843,0,1,1,88,1,92,broom,flower,,89418,001,2022-04-25_14h37.13.274,SPAMnetsValid,2021.1.4,Win32,60.04924038,,,,,,,,,,,,,,,,,,,,,,,,,,,,,,,,,,,,,,,,,,,,,,,,,,,,,,,,,,,,,,,,,,,,,,,,,,,,,,,,,,,,,,,,,
,,7,1.644,7,1.644,0,2,2,70,1,5,oven,tree,,89418,001,2022-04-25_14h37.13.274,SPAMnetsValid,2021.1.4,Win32,60.04924038,,,,,,,,,,,,,,,,,,,,,,,,,,,,,,,,,,,,,,,,,,,,,,,,,,,,,,,,,,,,,,,,,,,,,,,,,,,,,,,,,,,,,,,,,
,,7,1.4572,7,1.4572,0,3,3,95,1,52,carrot,tomato,,89418,001,2022-04-25_14h37.13.274,SPAMnetsValid,2021.1.4,Win32,60.04924038,,,,,,,,,,,,,,,,,,,,,,,,,,,,,,,,,,,,,,,,,,,,,,,,,,,,,,,,,,,,,,,,,,,,,,,,,,,,,,,,,,,,,,,,,
,,3,1.4877,3,1.4877,0,4,4,81,1,60,cactus,onion,,89418,001,2022-04-25_14h37.13.274,SPAMnetsValid,2021.1.4,Win32,60.04924038,,,,,,,,,,,,,,,,,,,,,,,,,,,,,,,,,,,,,,,,,,,,,,,,,,,,,,,,,,,,,,,,,,,,,,,,,,,,,,,,,,,,,,,,,
,,6,1.8708,6,1.8708,0,5,5,86,1,51,onion,strawberry,,89418,001,2022-04-25_14h37.13.274,SPAMnetsValid,2021.1.4,Win32,60.04924038,,,,,,,,,,,,,,,,,,,,,,,,,,,,,,,,,,,,,,,,,,,,,,,,,,,,,,,,,,,,,,,,,,,,,,,,,,,,,,,,,,,,,,,,,
,,6,1.2285,6,1.2285,0,6,6,31,1,33,oven,yogurt,,89418,001,2022-04-25_14h37.13.274,SPAMnetsValid,2021.1.4,Win32,60.04924038,,,,,,,,,,,,,,,,,,,,,,,,,,,,,,,,,,,,,,,,,,,,,,,,,,,,,,,,,,,,,,,,,,,,,,,,,,,,,,,,,,,,,,,,,
,,6,1.4137,6,1.4137,0,7,7,41,1,19,microwave,pretzel,,89418,001,2022-04-25_14h37.13.274,SPAMnetsValid,2021.1.4,Win32,60.04924038,,,,,,,,,,,,,,,,,,,,,,,,,,,,,,,,,,,,,,,,,,,,,,,,,,,,,,,,,,,,,,,,,,,,,,,,,,,,,,,,,,,,,,,,,
,,6,1.676,6,1.676,0,8,8,78,1,30,cookie,pretzel,,89418,001,2022-04-25_14h37.13.274,SPAMnetsValid,2021.1.4,Win32,60.04924038,,,,,,,,,,,,,,,,,,,,,,,,,,,,,,,,,,,,,,,,,,,,,,,,,,,,,,,,,,,,,,,,,,,,,,,,,,,,,,,,,,,,,,,,,
,,7,1.2136,7,1.2136,0,9,9,74,1,70,chocolate,onion,,89418,001,2022-04-25_14h37.13.274,SPAMnetsValid,2021.1.4,Win32,60.04924038,,,,,,,,,,,,,,,,,,,,,,,,,,,,,,,,,,,,,,,,,,,,,,,,,,,,,,,,,,,,,,,,,,,,,,,,,,,,,,,,,,,,,,,,,
,,7,1.6385,7,1.6385,0,10,10,45,1,10,flower,onion,,89418,001,2022-04-25_14h37.13.274,SPAMnetsValid,2021.1.4,Win32,60.04924038,,,,,,,,,,,,,,,,,,,,,,,,,,,,,,,,,,,,,,,,,,,,,,,,,,,,,,,,,,,,,,,,,,,,,,,,,,,,,,,,,,,,,,,,,
,,8,2.122,8,2.122,0,11,11,12,1,67,flower,yogurt,,89418,001,2022-04-25_14h37.13.274,SPAMnetsValid,2021.1.4,Win32,60.04924038,,,,,,,,,,,,,,,,,,,,,,,,,,,,,,,,,,,,,,,,,,,,,,,,,,,,,,,,,,,,,,,,,,,,,,,,,,,,,,,,,,,,,,,,,
,,6,1.7378,6,1.7378,0,12,12,5,1,13,broom,yogurt,,89418,001,2022-04-25_14h37.13.274,SPAMnetsValid,2021.1.4,Win32,60.04924038,,,,,,,,,,,,,,,,,,,,,,,,,,,,,,,,,,,,,,,,,,,,,,,,,,,,,,,,,,,,,,,,,,,,,,,,,,,,,,,,,,,,,,,,,
,,6,1.1192,6,1.1192,0,13,13,23,1,65,broom,garden,,89418,001,2022-04-25_14h37.13.274,SPAMnetsValid,2021.1.4,Win32,60.04924038,,,,,,,,,,,,,,,,,,,,,,,,,,,,,,,,,,,,,,,,,,,,,,,,,,,,,,,,,,,,,,,,,,,,,,,,,,,,,,,,,,,,,,,,,
,,6,2.0946,6,2.0946,0,14,14,42,1,77,refrigerator,yogurt,,89418,001,2022-04-25_14h37.13.274,SPAMnetsValid,2021.1.4,Win32,60.04924038,,,,,,,,,,,,,,,,,,,,,,,,,,,,,,,,,,,,,,,,,,,,,,,,,,,,,,,,,,,,,,,,,,,,,,,,,,,,,,,,,,,,,,,,,
,,6,1.2631,6,1.2631,0,15,15,91,1,2,kitchen,onion,,89418,001,2022-04-25_14h37.13.274,SPAMnetsValid,2021.1.4,Win32,60.04924038,,,,,,,,,,,,,,,,,,,,,,,,,,,,,,,,,,,,,,,,,,,,,,,,,,,,,,,,,,,,,,,,,,,,,,,,,,,,,,,,,,,,,,,,,
,,6,1.1538,6,1.1538,0,16,16,93,1,63,cake,cookie,,89418,001,2022-04-25_14h37.13.274,SPAMnetsValid,2021.1.4,Win32,60.04924038,,,,,,,,,,,,,,,,,,,,,,,,,,,,,,,,,,,,,,,,,,,,,,,,,,,,,,,,,,,,,,,,,,,,,,,,,,,,,,,,,,,,,,,,,
,,6,1.9444,6,1.9444,0,17,17,9,1,75,cookie,onion,,89418,001,2022-04-25_14h37.13.274,SPAMnetsValid,2021.1.4,Win32,60.04924038,,,,,,,,,,,,,,,,,,,,,,,,,,,,,,,,,,,,,,,,,,,,,,,,,,,,,,,,,,,,,,,,,,,,,,,,,,,,,,,,,,,,,,,,,
,,6,1.7308,6,1.7308,0,18,18,18,1,85,cake,tree,,89418,001,2022-04-25_14h37.13.274,SPAMnetsValid,2021.1.4,Win32,60.04924038,,,,,,,,,,,,,,,,,,,,,,,,,,,,,,,,,,,,,,,,,,,,,,,,,,,,,,,,,,,,,,,,,,,,,,,,,,,,,,,,,,,,,,,,,
,,7,3.5145,7,3.5145,0,19,19,2,1,22,kitchen,strawberry,,89418,001,2022-04-25_14h37.13.274,SPAMnetsValid,2021.1.4,Win32,60.04924038,,,,,,,,,,,,,,,,,,,,,,,,,,,,,,,,,,,,,,,,,,,,,,,,,,,,,,,,,,,,,,,,,,,,,,,,,,,,,,,,,,,,,,,,,
,,6,1.5366,6,1.5366,0,20,20,1,1,31,cactus,pretzel,,89418,001,2022-04-25_14h37.13.274,SPAMnetsValid,2021.1.4,Win32,60.04924038,,,,,,,,,,,,,,,,,,,,,,,,,,,,,,,,,,,,,,,,,,,,,,,,,,,,,,,,,,,,,,,,,,,,,,,,,,,,,,,,,,,,,,,,,
,,6,1.3384,6,1.3384,0,21,21,40,1,74,broom,pretzel,,89418,001,2022-04-25_14h37.13.274,SPAMnetsValid,2021.1.4,Win32,60.04924038,,,,,,,,,,,,,,,,,,,,,,,,,,,,,,,,,,,,,,,,,,,,,,,,,,,,,,,,,,,,,,,,,,,,,,,,,,,,,,,,,,,,,,,,,
,,7,5.7212,7,5.7212,0,22,22,67,1,54,chocolate,yogurt,,89418,001,2022-04-25_14h37.13.274,SPAMnetsValid,2021.1.4,Win32,60.04924038,,,,,,,,,,,,,,,,,,,,,,,,,,,,,,,,,,,,,,,,,,,,,,,,,,,,,,,,,,,,,,,,,,,,,,,,,,,,,,,,,,,,,,,,,
,,4,8.8383,4,8.8383,0,23,23,17,1,27,cactus,cookie,,89418,001,2022-04-25_14h37.13.274,SPAMnetsValid,2021.1.4,Win32,60.04924038,,,,,,,,,,,,,,,,,,,,,,,,,,,,,,,,,,,,,,,,,,,,,,,,,,,,,,,,,,,,,,,,,,,,,,,,,,,,,,,,,,,,,,,,,
,,4,2.1692,4,2.1692,0,24,24,49,1,57,flower,kitchen,,89418,001,2022-04-25_14h37.13.274,SPAMnetsValid,2021.1.4,Win32,60.04924038,,,,,,,,,,,,,,,,,,,,,,,,,,,,,,,,,,,,,,,,,,,,,,,,,,,,,,,,,,,,,,,,,,,,,,,,,,,,,,,,,,,,,,,,,
,,4,1.6141,4,1.6141,0,25,25,64,1,9,kitchen,refrigerator,,89418,001,2022-04-25_14h37.13.274,SPAMnetsValid,2021.1.4,Win32,60.04924038,,,,,,,,,,,,,,,,,,,,,,,,,,,,,,,,,,,,,,,,,,,,,,,,,,,,,,,,,,,,,,,,,,,,,,,,,,,,,,,,,,,,,,,,,
,,4,1.8369,4,1.8369,0,26,26,13,1,26,tomato,yogurt,,89418,001,2022-04-25_14h37.13.274,SPAMnetsValid,2021.1.4,Win32,60.04924038,,,,,,,,,,,,,,,,,,,,,,,,,,,,,,,,,,,,,,,,,,,,,,,,,,,,,,,,,,,,,,,,,,,,,,,,,,,,,,,,,,,,,,,,,
,,4,1.5862,4,1.5862,0,27,27,59,1,8,broom,melon,,89418,001,2022-04-25_14h37.13.274,SPAMnetsValid,2021.1.4,Win32,60.04924038,,,,,,,,,,,,,,,,,,,,,,,,,,,,,,,,,,,,,,,,,,,,,,,,,,,,,,,,,,,,,,,,,,,,,,,,,,,,,,,,,,,,,,,,,
,,3,1.4945,3,1.4945,0,28,28,43,1,11,refrigerator,tree,,89418,001,2022-04-25_14h37.13.274,SPAMnetsValid,2021.1.4,Win32,60.04924038,,,,,,,,,,,,,,,,,,,,,,,,,,,,,,,,,,,,,,,,,,,,,,,,,,,,,,,,,,,,,,,,,,,,,,,,,,,,,,,,,,,,,,,,,
,,6,2.5615,6,2.5615,0,29,29,72,1,59,rose,strawberry,,89418,001,2022-04-25_14h37.13.274,SPAMnetsValid,2021.1.4,Win32,60.04924038,,,,,,,,,,,,,,,,,,,,,,,,,,,,,,,,,,,,,,,,,,,,,,,,,,,,,,,,,,,,,,,,,,,,,,,,,,,,,,,,,,,,,,,,,
,,6,2.3457,6,2.3457,0,30,30,8,1,43,chocolate,tomato,,89418,001,2022-04-25_14h37.13.274,SPAMnetsValid,2021.1.4,Win32,60.04924038,,,,,,,,,,,,,,,,,,,,,,,,,,,,,,,,,,,,,,,,,,,,,,,,,,,,,,,,,,,,,,,,,,,,,,,,,,,,,,,,,,,,,,,,,
,,6,1.8946,6,1.8946,0,31,31,84,1,91,microwave,rose,,89418,001,2022-04-25_14h37.13.274,SPAMnetsValid,2021.1.4,Win32,60.04924038,,,,,,,,,,,,,,,,,,,,,,,,,,,,,,,,,,,,,,,,,,,,,,,,,,,,,,,,,,,,,,,,,,,,,,,,,,,,,,,,,,,,,,,,,
,,6,1.5314,6,1.5314,0,32,32,21,1,56,cactus,tree,,89418,001,2022-04-25_14h37.13.274,SPAMnetsValid,2021.1.4,Win32,60.04924038,,,,,,,,,,,,,,,,,,,,,,,,,,,,,,,,,,,,,,,,,,,,,,,,,,,,,,,,,,,,,,,,,,,,,,,,,,,,,,,,,,,,,,,,,
,,6,1.5986,6,1.5986,0,33,33,79,1,86,oven,rose,,89418,001,2022-04-25_14h37.13.274,SPAMnetsValid,2021.1.4,Win32,60.04924038,,,,,,,,,,,,,,,,,,,,,,,,,,,,,,,,,,,,,,,,,,,,,,,,,,,,,,,,,,,,,,,,,,,,,,,,,,,,,,,,,,,,,,,,,
,,7,1.6039,7,1.6039,0,34,34,73,1,50,carrot,rose,,89418,001,2022-04-25_14h37.13.274,SPAMnetsValid,2021.1.4,Win32,60.04924038,,,,,,,,,,,,,,,,,,,,,,,,,,,,,,,,,,,,,,,,,,,,,,,,,,,,,,,,,,,,,,,,,,,,,,,,,,,,,,,,,,,,,,,,,
,,7,1.3661,7,1.3661,0,35,35,82,1,93,kitchen,oven,,89418,001,2022-04-25_14h37.13.274,SPAMnetsValid,2021.1.4,Win32,60.04924038,,,,,,,,,,,,,,,,,,,,,,,,,,,,,,,,,,,,,,,,,,,,,,,,,,,,,,,,,,,,,,,,,,,,,,,,,,,,,,,,,,,,,,,,,
,,7,1.4731,7,1.4731,0,36,36,83,1,6,garden,onion,,89418,001,2022-04-25_14h37.13.274,SPAMnetsValid,2021.1.4,Win32,60.04924038,,,,,,,,,,,,,,,,,,,,,,,,,,,,,,,,,,,,,,,,,,,,,,,,,,,,,,,,,,,,,,,,,,,,,,,,,,,,,,,,,,,,,,,,,
,,6,1.446,6,1.446,0,37,37,30,1,3,cake,oven,,89418,001,2022-04-25_14h37.13.274,SPAMnetsValid,2021.1.4,Win32,60.04924038,,,,,,,,,,,,,,,,,,,,,,,,,,,,,,,,,,,,,,,,,,,,,,,,,,,,,,,,,,,,,,,,,,,,,,,,,,,,,,,,,,,,,,,,,
,,7,1.4745,7,1.4745,0,38,38,47,1,73,broom,chocolate,,89418,001,2022-04-25_14h37.13.274,SPAMnetsValid,2021.1.4,Win32,60.04924038,,,,,,,,,,,,,,,,,,,,,,,,,,,,,,,,,,,,,,,,,,,,,,,,,,,,,,,,,,,,,,,,,,,,,,,,,,,,,,,,,,,,,,,,,
,,7,1.4215,7,1.4215,0,39,39,94,1,68,flower,tomato,,89418,001,2022-04-25_14h37.13.274,SPAMnetsValid,2021.1.4,Win32,60.04924038,,,,,,,,,,,,,,,,,,,,,,,,,,,,,,,,,,,,,,,,,,,,,,,,,,,,,,,,,,,,,,,,,,,,,,,,,,,,,,,,,,,,,,,,,
,,6,1.5121,6,1.5121,0,40,40,24,1,17,carrot,melon,,89418,001,2022-04-25_14h37.13.274,SPAMnetsValid,2021.1.4,Win32,60.04924038,,,,,,,,,,,,,,,,,,,,,,,,,,,,,,,,,,,,,,,,,,,,,,,,,,,,,,,,,,,,,,,,,,,,,,,,,,,,,,,,,,,,,,,,,
,,7,1.5048,7,1.5048,0,41,41,96,1,82,cake,kitchen,,89418,001,2022-04-25_14h37.13.274,SPAMnetsValid,2021.1.4,Win32,60.04924038,,,,,,,,,,,,,,,,,,,,,,,,,,,,,,,,,,,,,,,,,,,,,,,,,,,,,,,,,,,,,,,,,,,,,,,,,,,,,,,,,,,,,,,,,
,,6,1.456,6,1.456,0,42,42,61,1,71,broom,rose,,89418,001,2022-04-25_14h37.13.274,SPAMnetsValid,2021.1.4,Win32,60.04924038,,,,,,,,,,,,,,,,,,,,,,,,,,,,,,,,,,,,,,,,,,,,,,,,,,,,,,,,,,,,,,,,,,,,,,,,,,,,,,,,,,,,,,,,,
,,6,1.5118,6,1.5118,0,43,43,55,1,1,rose,yogurt,,89418,001,2022-04-25_14h37.13.274,SPAMnetsValid,2021.1.4,Win32,60.04924038,,,,,,,,,,,,,,,,,,,,,,,,,,,,,,,,,,,,,,,,,,,,,,,,,,,,,,,,,,,,,,,,,,,,,,,,,,,,,,,,,,,,,,,,,
,,7,1.3026,7,1.3026,0,44,44,26,1,35,flower,pretzel,,89418,001,2022-04-25_14h37.13.274,SPAMnetsValid,2021.1.4,Win32,60.04924038,,,,,,,,,,,,,,,,,,,,,,,,,,,,,,,,,,,,,,,,,,,,,,,,,,,,,,,,,,,,,,,,,,,,,,,,,,,,,,,,,,,,,,,,,
,,6,1.5391,6,1.5391,0,45,45,3,1,49,flower,strawberry,,89418,001,2022-04-25_14h37.13.274,SPAMnetsValid,2021.1.4,Win32,60.04924038,,,,,,,,,,,,,,,,,,,,,,,,,,,,,,,,,,,,,,,,,,,,,,,,,,,,,,,,,,,,,,,,,,,,,,,,,,,,,,,,,,,,,,,,,
,,6,1.761,6,1.761,0,46,46,34,1,29,chocolate,melon,,89418,001,2022-04-25_14h37.13.274,SPAMnetsValid,2021.1.4,Win32,60.04924038,,,,,,,,,,,,,,,,,,,,,,,,,,,,,,,,,,,,,,,,,,,,,,,,,,,,,,,,,,,,,,,,,,,,,,,,,,,,,,,,,,,,,,,,,
,,6,1.8096,6,1.8096,0,47,47,62,1,18,onion,refrigerator,,89418,001,2022-04-25_14h37.13.274,SPAMnetsValid,2021.1.4,Win32,60.04924038,,,,,,,,,,,,,,,,,,,,,,,,,,,,,,,,,,,,,,,,,,,,,,,,,,,,,,,,,,,,,,,,,,,,,,,,,,,,,,,,,,,,,,,,,
,,6,1.7278,6,1.7278,0,48,48,16,1,14,broom,cookie,,89418,001,2022-04-25_14h37.13.274,SPAMnetsValid,2021.1.4,Win32,60.04924038,,,,,,,,,,,,,,,,,,,,,,,,,,,,,,,,,,,,,,,,,,,,,,,,,,,,,,,,,,,,,,,,,,,,,,,,,,,,,,,,,,,,,,,,,
,,6,2.2443,6,2.2443,0,49,49,50,1,81,pretzel,yogurt,,89418,001,2022-04-25_14h37.13.274,SPAMnetsValid,2021.1.4,Win32,60.04924038,,,,,,,,,,,,,,,,,,,,,,,,,,,,,,,,,,,,,,,,,,,,,,,,,,,,,,,,,,,,,,,,,,,,,,,,,,,,,,,,,,,,,,,,,
,,6,2.1047,6,2.1047,0,50,50,85,1,90,cactus,cake,,89418,001,2022-04-25_14h37.13.274,SPAMnetsValid,2021.1.4,Win32,60.04924038,,,,,,,,,,,,,,,,,,,,,,,,,,,,,,,,,,,,,,,,,,,,,,,,,,,,,,,,,,,,,,,,,,,,,,,,,,,,,,,,,,,,,,,,,
,,6,2.054,6,2.054,0,51,51,10,1,191,cake,cake,CHECK,89418,001,2022-04-25_14h37.13.274,SPAMnetsValid,2021.1.4,Win32,60.04924038,,,,,,,,,,,,,,,,,,,,,,,,,,,,,,,,,,,,,,,,,,,,,,,,,,,,,,,,,,,,,,,,,,,,,,,,,,,,,,,,,,,,,,,,,
,,7,1.498,7,1.498,0,52,52,7,1,34,melon,oven,,89418,001,2022-04-25_14h37.13.274,SPAMnetsValid,2021.1.4,Win32,60.04924038,,,,,,,,,,,,,,,,,,,,,,,,,,,,,,,,,,,,,,,,,,,,,,,,,,,,,,,,,,,,,,,,,,,,,,,,,,,,,,,,,,,,,,,,,
,,7,1.8192,7,1.8192,0,53,53,69,1,45,onion,pretzel,,89418,001,2022-04-25_14h37.13.274,SPAMnetsValid,2021.1.4,Win32,60.04924038,,,,,,,,,,,,,,,,,,,,,,,,,,,,,,,,,,,,,,,,,,,,,,,,,,,,,,,,,,,,,,,,,,,,,,,,,,,,,,,,,,,,,,,,,
,,6,1.672,6,1.672,0,54,54,19,1,76,garden,rose,,89418,001,2022-04-25_14h37.13.274,SPAMnetsValid,2021.1.4,Win32,60.04924038,,,,,,,,,,,,,,,,,,,,,,,,,,,,,,,,,,,,,,,,,,,,,,,,,,,,,,,,,,,,,,,,,,,,,,,,,,,,,,,,,,,,,,,,,
,,6,1.8297,6,1.8297,0,55,55,56,1,78,cookie,rose,,89418,001,2022-04-25_14h37.13.274,SPAMnetsValid,2021.1.4,Win32,60.04924038,,,,,,,,,,,,,,,,,,,,,,,,,,,,,,,,,,,,,,,,,,,,,,,,,,,,,,,,,,,,,,,,,,,,,,,,,,,,,,,,,,,,,,,,,
,,6,2.5192,6,2.5192,0,56,56,22,1,16,chocolate,flower,,89418,001,2022-04-25_14h37.13.274,SPAMnetsValid,2021.1.4,Win32,60.04924038,,,,,,,,,,,,,,,,,,,,,,,,,,,,,,,,,,,,,,,,,,,,,,,,,,,,,,,,,,,,,,,,,,,,,,,,,,,,,,,,,,,,,,,,,
,,6,2.3856,6,2.3856,0,57,57,39,1,15,onion,oven,,89418,001,2022-04-25_14h37.13.274,SPAMnetsValid,2021.1.4,Win32,60.04924038,,,,,,,,,,,,,,,,,,,,,,,,,,,,,,,,,,,,,,,,,,,,,,,,,,,,,,,,,,,,,,,,,,,,,,,,,,,,,,,,,,,,,,,,,
,,7,2.1781,7,2.1781,0,58,58,66,1,20,rose,tree,,89418,001,2022-04-25_14h37.13.274,SPAMnetsValid,2021.1.4,Win32,60.04924038,,,,,,,,,,,,,,,,,,,,,,,,,,,,,,,,,,,,,,,,,,,,,,,,,,,,,,,,,,,,,,,,,,,,,,,,,,,,,,,,,,,,,,,,,
,,6,1.6908,6,1.6908,0,59,59,51,1,47,onion,tomato,,89418,001,2022-04-25_14h37.13.274,SPAMnetsValid,2021.1.4,Win32,60.04924038,,,,,,,,,,,,,,,,,,,,,,,,,,,,,,,,,,,,,,,,,,,,,,,,,,,,,,,,,,,,,,,,,,,,,,,,,,,,,,,,,,,,,,,,,
,,7,1.4477,7,1.4477,0,60,60,68,1,24,cookie,tomato,,89418,001,2022-04-25_14h37.13.274,SPAMnetsValid,2021.1.4,Win32,60.04924038,,,,,,,,,,,,,,,,,,,,,,,,,,,,,,,,,,,,,,,,,,,,,,,,,,,,,,,,,,,,,,,,,,,,,,,,,,,,,,,,,,,,,,,,,
,,7,1.5228,7,1.5228,0,61,61,89,1,80,chocolate,tree,,89418,001,2022-04-25_14h37.13.274,SPAMnetsValid,2021.1.4,Win32,60.04924038,,,,,,,,,,,,,,,,,,,,,,,,,,,,,,,,,,,,,,,,,,,,,,,,,,,,,,,,,,,,,,,,,,,,,,,,,,,,,,,,,,,,,,,,,
,,3,2.0286,3,2.0286,0,62,62,60,1,89,chocolate,rose,,89418,001,2022-04-25_14h37.13.274,SPAMnetsValid,2021.1.4,Win32,60.04924038,,,,,,,,,,,,,,,,,,,,,,,,,,,,,,,,,,,,,,,,,,,,,,,,,,,,,,,,,,,,,,,,,,,,,,,,,,,,,,,,,,,,,,,,,
,,4,1.5555,4,1.5555,0,63,63,58,1,94,kitchen,microwave,,89418,001,2022-04-25_14h37.13.274,SPAMnetsValid,2021.1.4,Win32,60.04924038,,,,,,,,,,,,,,,,,,,,,,,,,,,,,,,,,,,,,,,,,,,,,,,,,,,,,,,,,,,,,,,,,,,,,,,,,,,,,,,,,,,,,,,,,
,,3,1.4692,3,1.4692,0,64,64,75,1,69,carrot,refrigerator,,89418,001,2022-04-25_14h37.13.274,SPAMnetsValid,2021.1.4,Win32,60.04924038,,,,,,,,,,,,,,,,,,,,,,,,,,,,,,,,,,,,,,,,,,,,,,,,,,,,,,,,,,,,,,,,,,,,,,,,,,,,,,,,,,,,,,,,,
,,3,2.2376,3,2.2376,0,65,65,65,1,46,garden,yogurt,,89418,001,2022-04-25_14h37.13.274,SPAMnetsValid,2021.1.4,Win32,60.04924038,,,,,,,,,,,,,,,,,,,,,,,,,,,,,,,,,,,,,,,,,,,,,,,,,,,,,,,,,,,,,,,,,,,,,,,,,,,,,,,,,,,,,,,,,
,,7,1.7895,7,1.7895,0,66,66,90,1,95,broom,refrigerator,,89418,001,2022-04-25_14h37.13.274,SPAMnetsValid,2021.1.4,Win32,60.04924038,,,,,,,,,,,,,,,,,,,,,,,,,,,,,,,,,,,,,,,,,,,,,,,,,,,,,,,,,,,,,,,,,,,,,,,,,,,,,,,,,,,,,,,,,
,,7,1.4884,7,1.4884,0,67,67,32,1,40,broom,cake,,89418,001,2022-04-25_14h37.13.274,SPAMnetsValid,2021.1.4,Win32,60.04924038,,,,,,,,,,,,,,,,,,,,,,,,,,,,,,,,,,,,,,,,,,,,,,,,,,,,,,,,,,,,,,,,,,,,,,,,,,,,,,,,,,,,,,,,,
,,6,1.7943,6,1.7943,0,68,68,14,1,64,chocolate,garden,,89418,001,2022-04-25_14h37.13.274,SPAMnetsValid,2021.1.4,Win32,60.04924038,,,,,,,,,,,,,,,,,,,,,,,,,,,,,,,,,,,,,,,,,,,,,,,,,,,,,,,,,,,,,,,,,,,,,,,,,,,,,,,,,,,,,,,,,
,,7,1.5369,7,1.5369,0,69,69,92,1,44,cookie,melon,,89418,001,2022-04-25_14h37.13.274,SPAMnetsValid,2021.1.4,Win32,60.04924038,,,,,,,,,,,,,,,,,,,,,,,,,,,,,,,,,,,,,,,,,,,,,,,,,,,,,,,,,,,,,,,,,,,,,,,,,,,,,,,,,,,,,,,,,
,,7,1.5887,7,1.5887,0,70,70,44,1,25,carrot,onion,,89418,001,2022-04-25_14h37.13.274,SPAMnetsValid,2021.1.4,Win32,60.04924038,,,,,,,,,,,,,,,,,,,,,,,,,,,,,,,,,,,,,,,,,,,,,,,,,,,,,,,,,,,,,,,,,,,,,,,,,,,,,,,,,,,,,,,,,
,,6,1.7912,6,1.7912,0,71,71,6,1,87,carrot,yogurt,,89418,001,2022-04-25_14h37.13.274,SPAMnetsValid,2021.1.4,Win32,60.04924038,,,,,,,,,,,,,,,,,,,,,,,,,,,,,,,,,,,,,,,,,,,,,,,,,,,,,,,,,,,,,,,,,,,,,,,,,,,,,,,,,,,,,,,,,
,,7,1.5092,7,1.5092,0,72,72,25,1,23,flower,microwave,,89418,001,2022-04-25_14h37.13.274,SPAMnetsValid,2021.1.4,Win32,60.04924038,,,,,,,,,,,,,,,,,,,,,,,,,,,,,,,,,,,,,,,,,,,,,,,,,,,,,,,,,,,,,,,,,,,,,,,,,,,,,,,,,,,,,,,,,
,,6,1.4908,6,1.4908,0,73,73,46,1,41,broom,cactus,,89418,001,2022-04-25_14h37.13.274,SPAMnetsValid,2021.1.4,Win32,60.04924038,,,,,,,,,,,,,,,,,,,,,,,,,,,,,,,,,,,,,,,,,,,,,,,,,,,,,,,,,,,,,,,,,,,,,,,,,,,,,,,,,,,,,,,,,
,,7,1.4564,7,1.4564,0,74,74,33,1,32,cake,microwave,,89418,001,2022-04-25_14h37.13.274,SPAMnetsValid,2021.1.4,Win32,60.04924038,,,,,,,,,,,,,,,,,,,,,,,,,,,,,,,,,,,,,,,,,,,,,,,,,,,,,,,,,,,,,,,,,,,,,,,,,,,,,,,,,,,,,,,,,
,,7,1.3486,7,1.3486,0,75,75,38,1,88,cactus,melon,,89418,001,2022-04-25_14h37.13.274,SPAMnetsValid,2021.1.4,Win32,60.04924038,,,,,,,,,,,,,,,,,,,,,,,,,,,,,,,,,,,,,,,,,,,,,,,,,,,,,,,,,,,,,,,,,,,,,,,,,,,,,,,,,,,,,,,,,
,,7,1.4713,7,1.4713,0,76,76,4,1,83,broom,carrot,,89418,001,2022-04-25_14h37.13.274,SPAMnetsValid,2021.1.4,Win32,60.04924038,,,,,,,,,,,,,,,,,,,,,,,,,,,,,,,,,,,,,,,,,,,,,,,,,,,,,,,,,,,,,,,,,,,,,,,,,,,,,,,,,,,,,,,,,
,,6,1.3119,6,1.3119,0,77,77,54,1,28,cake,melon,,89418,001,2022-04-25_14h37.13.274,SPAMnetsValid,2021.1.4,Win32,60.04924038,,,,,,,,,,,,,,,,,,,,,,,,,,,,,,,,,,,,,,,,,,,,,,,,,,,,,,,,,,,,,,,,,,,,,,,,,,,,,,,,,,,,,,,,,
,,6,1.3066,6,1.3066,0,78,78,57,1,62,kitchen,rose,,89418,001,2022-04-25_14h37.13.274,SPAMnetsValid,2021.1.4,Win32,60.04924038,,,,,,,,,,,,,,,,,,,,,,,,,,,,,,,,,,,,,,,,,,,,,,,,,,,,,,,,,,,,,,,,,,,,,,,,,,,,,,,,,,,,,,,,,
,,6,1.5645,6,1.5645,0,79,79,11,1,37,garden,refrigerator,,89418,001,2022-04-25_14h37.13.274,SPAMnetsValid,2021.1.4,Win32,60.04924038,,,,,,,,,,,,,,,,,,,,,,,,,,,,,,,,,,,,,,,,,,,,,,,,,,,,,,,,,,,,,,,,,,,,,,,,,,,,,,,,,,,,,,,,,
,,6,1.8544,6,1.8544,0,80,80,63,1,21,cake,onion,,89418,001,2022-04-25_14h37.13.274,SPAMnetsValid,2021.1.4,Win32,60.04924038,,,,,,,,,,,,,,,,,,,,,,,,,,,,,,,,,,,,,,,,,,,,,,,,,,,,,,,,,,,,,,,,,,,,,,,,,,,,,,,,,,,,,,,,,
,,6,2.1214,6,2.1214,0,81,81,53,1,192,microwave,microwave,CHECK,89418,001,2022-04-25_14h37.13.274,SPAMnetsValid,2021.1.4,Win32,60.04924038,,,,,,,,,,,,,,,,,,,,,,,,,,,,,,,,,,,,,,,,,,,,,,,,,,,,,,,,,,,,,,,,,,,,,,,,,,,,,,,,,,,,,,,,,
,,6,1.3384,6,1.3384,0,82,82,76,1,36,broom,kitchen,,89418,001,2022-04-25_14h37.13.274,SPAMnetsValid,2021.1.4,Win32,60.04924038,,,,,,,,,,,,,,,,,,,,,,,,,,,,,,,,,,,,,,,,,,,,,,,,,,,,,,,,,,,,,,,,,,,,,,,,,,,,,,,,,,,,,,,,,
,,7,1.4615,7,1.4615,0,83,83,80,1,61,strawberry,tomato,,89418,001,2022-04-25_14h37.13.274,SPAMnetsValid,2021.1.4,Win32,60.04924038,,,,,,,,,,,,,,,,,,,,,,,,,,,,,,,,,,,,,,,,,,,,,,,,,,,,,,,,,,,,,,,,,,,,,,,,,,,,,,,,,,,,,,,,,
,,7,1.4463,7,1.4463,0,84,84,27,1,72,broom,onion,,89418,001,2022-04-25_14h37.13.274,SPAMnetsValid,2021.1.4,Win32,60.04924038,,,,,,,,,,,,,,,,,,,,,,,,,,,,,,,,,,,,,,,,,,,,,,,,,,,,,,,,,,,,,,,,,,,,,,,,,,,,,,,,,,,,,,,,,
,,6,1.2382,6,1.2382,0,85,85,37,1,58,garden,oven,,89418,001,2022-04-25_14h37.13.274,SPAMnetsValid,2021.1.4,Win32,60.04924038,,,,,,,,,,,,,,,,,,,,,,,,,,,,,,,,,,,,,,,,,,,,,,,,,,,,,,,,,,,,,,,,,,,,,,,,,,,,,,,,,,,,,,,,,
,,7,1.3112,7,1.3112,0,86,86,71,1,38,pretzel,refrigerator,,89418,001,2022-04-25_14h37.13.274,SPAMnetsValid,2021.1.4,Win32,60.04924038,,,,,,,,,,,,,,,,,,,,,,,,,,,,,,,,,,,,,,,,,,,,,,,,,,,,,,,,,,,,,,,,,,,,,,,,,,,,,,,,,,,,,,,,,
,,7,1.2384,7,1.2384,0,87,87,15,1,48,flower,oven,,89418,001,2022-04-25_14h37.13.274,SPAMnetsValid,2021.1.4,Win32,60.04924038,,,,,,,,,,,,,,,,,,,,,,,,,,,,,,,,,,,,,,,,,,,,,,,,,,,,,,,,,,,,,,,,,,,,,,,,,,,,,,,,,,,,,,,,,
,,7,1.2228,7,1.2228,0,88,88,20,1,39,melon,pretzel,,89418,001,2022-04-25_14h37.13.274,SPAMnetsValid,2021.1.4,Win32,60.04924038,,,,,,,,,,,,,,,,,,,,,,,,,,,,,,,,,,,,,,,,,,,,,,,,,,,,,,,,,,,,,,,,,,,,,,,,,,,,,,,,,,,,,,,,,
,,7,1.2865,7,1.2865,0,89,89,29,1,42,garden,kitchen,,89418,001,2022-04-25_14h37.13.274,SPAMnetsValid,2021.1.4,Win32,60.04924038,,,,,,,,,,,,,,,,,,,,,,,,,,,,,,,,,,,,,,,,,,,,,,,,,,,,,,,,,,,,,,,,,,,,,,,,,,,,,,,,,,,,,,,,,
,,7,1.2972,7,1.2972,0,90,90,0,1,53,garden,pretzel,,89418,001,2022-04-25_14h37.13.274,SPAMnetsValid,2021.1.4,Win32,60.04924038,,,,,,,,,,,,,,,,,,,,,,,,,,,,,,,,,,,,,,,,,,,,,,,,,,,,,,,,,,,,,,,,,,,,,,,,,,,,,,,,,,,,,,,,,
,,7,1.2458,7,1.2458,0,91,91,36,1,12,cookie,yogurt,,89418,001,2022-04-25_14h37.13.274,SPAMnetsValid,2021.1.4,Win32,60.04924038,,,,,,,,,,,,,,,,,,,,,,,,,,,,,,,,,,,,,,,,,,,,,,,,,,,,,,,,,,,,,,,,,,,,,,,,,,,,,,,,,,,,,,,,,
,,7,1.2121,7,1.2121,0,92,92,77,1,7,melon,tree,,89418,001,2022-04-25_14h37.13.274,SPAMnetsValid,2021.1.4,Win32,60.04924038,,,,,,,,,,,,,,,,,,,,,,,,,,,,,,,,,,,,,,,,,,,,,,,,,,,,,,,,,,,,,,,,,,,,,,,,,,,,,,,,,,,,,,,,,
,,7,1.3889,7,1.3889,0,93,93,48,1,66,melon,yogurt,,89418,001,2022-04-25_14h37.13.274,SPAMnetsValid,2021.1.4,Win32,60.04924038,,,,,,,,,,,,,,,,,,,,,,,,,,,,,,,,,,,,,,,,,,,,,,,,,,,,,,,,,,,,,,,,,,,,,,,,,,,,,,,,,,,,,,,,,
,,7,1.7526,7,1.7526,0,94,94,87,1,79,garden,strawberry,,89418,001,2022-04-25_14h37.13.274,SPAMnetsValid,2021.1.4,Win32,60.04924038,,,,,,,,,,,,,,,,,,,,,,,,,,,,,,,,,,,,,,,,,,,,,,,,,,,,,,,,,,,,,,,,,,,,,,,,,,,,,,,,,,,,,,,,,
,,7,1.5605,7,1.5605,0,95,95,35,1,55,tomato,tree,,89418,001,2022-04-25_14h37.13.274,SPAMnetsValid,2021.1.4,Win32,60.04924038,,,,,,,,,,,,,,,,,,,,,,,,,,,,,,,,,,,,,,,,,,,,,,,,,,,,,,,,,,,,,,,,,,,,,,,,,,,,,,,,,,,,,,,,,
,,6,3.6264,6,3.6264,0,96,96,28,1,84,oven,tomato,,89418,001,2022-04-25_14h37.13.274,SPAMnetsValid,2021.1.4,Win32,60.04924038,,,,,,,,,,,,,,,,,,,,,,,,,,,,,,,,,,,,,,,,,,,,,,,,,,,,,,,,,,,,,,,,,,,,,,,,,,,,,,,,,,,,,,,,,
,,,,,,,,,,,,,,,89418,001,2022-04-25_14h37.13.274,SPAMnetsValid,2021.1.4,Win32,60.04924038,0,0,0,0,1,,,,,,,,,,,,,,,,,,,,,,,,,,,,,,,,,,,,,,,,,,,,,,,,,,,,,,,,,,,,,,,,,,,,,,,,,,,,,,,,,,,,
,,,,,,,,,,,,,,,89418,001,2022-04-25_14h37.13.274,SPAMnetsValid,2021.1.4,Win32,60.04924038,,,,,,0,0,0,0,1,1,0,,,,,,,,,,,,,,,,,,,,,,,,,,,,,,,,,,,,,,,,,,,,,,,,,,,,,,,,,,,,,,,,,,,,,,,,,,,,,
,,,,6,2.2038,,,,,,123,cookie,tree,,89418,001,2022-04-25_14h37.13.274,SPAMnetsValid,2021.1.4,Win32,60.04924038,,,,,,,,,,,,,6,2.2038,0,0,0,46,1,,,,,,,,,,,,,,,,,,,,,,,,,,,,,,,,,,,,,,,,,,,,,,,,,,,,,,,,,,,,,,,,,,,,,,
,,,,7,1.2365,,,,,,128,melon,microwave,,89418,001,2022-04-25_14h37.13.274,SPAMnetsValid,2021.1.4,Win32,60.04924038,,,,,,,,,,,,,7,1.2365,0,1,1,74,1,,,,,,,,,,,,,,,,,,,,,,,,,,,,,,,,,,,,,,,,,,,,,,,,,,,,,,,,,,,,,,,,,,,,,,
,,,,6,1.4706,,,,,,163,melon,refrigerator,,89418,001,2022-04-25_14h37.13.274,SPAMnetsValid,2021.1.4,Win32,60.04924038,,,,,,,,,,,,,6,1.4706,0,2,2,29,1,,,,,,,,,,,,,,,,,,,,,,,,,,,,,,,,,,,,,,,,,,,,,,,,,,,,,,,,,,,,,,,,,,,,,,
,,,,6,1.6767,,,,,,153,carrot,pretzel,,89418,001,2022-04-25_14h37.13.274,SPAMnetsValid,2021.1.4,Win32,60.04924038,,,,,,,,,,,,,6,1.6767,0,3,3,34,1,,,,,,,,,,,,,,,,,,,,,,,,,,,,,,,,,,,,,,,,,,,,,,,,,,,,,,,,,,,,,,,,,,,,,,
,,,,6,1.4086,,,,,,181,carrot,kitchen,,89418,001,2022-04-25_14h37.13.274,SPAMnetsValid,2021.1.4,Win32,60.04924038,,,,,,,,,,,,,6,1.4086,0,4,4,72,1,,,,,,,,,,,,,,,,,,,,,,,,,,,,,,,,,,,,,,,,,,,,,,,,,,,,,,,,,,,,,,,,,,,,,,
,,,,7,1.6696,,,,,,133,cake,flower,,89418,001,2022-04-25_14h37.13.274,SPAMnetsValid,2021.1.4,Win32,60.04924038,,,,,,,,,,,,,7,1.6696,0,5,5,94,1,,,,,,,,,,,,,,,,,,,,,,,,,,,,,,,,,,,,,,,,,,,,,,,,,,,,,,,,,,,,,,,,,,,,,,
,,,,6,1.7456,,,,,,140,cookie,refrigerator,,89418,001,2022-04-25_14h37.13.274,SPAMnetsValid,2021.1.4,Win32,60.04924038,,,,,,,,,,,,,6,1.7456,0,6,6,89,1,,,,,,,,,,,,,,,,,,,,,,,,,,,,,,,,,,,,,,,,,,,,,,,,,,,,,,,,,,,,,,,,,,,,,,
,,,,4,1.8214,,,,,,189,onion,tree,,89418,001,2022-04-25_14h37.13.274,SPAMnetsValid,2021.1.4,Win32,60.04924038,,,,,,,,,,,,,4,1.8214,0,7,7,62,1,,,,,,,,,,,,,,,,,,,,,,,,,,,,,,,,,,,,,,,,,,,,,,,,,,,,,,,,,,,,,,,,,,,,,,
,,,,3,1.7061,,,,,,158,cookie,oven,,89418,001,2022-04-25_14h37.13.274,SPAMnetsValid,2021.1.4,Win32,60.04924038,,,,,,,,,,,,,3,1.7061,0,8,8,27,1,,,,,,,,,,,,,,,,,,,,,,,,,,,,,,,,,,,,,,,,,,,,,,,,,,,,,,,,,,,,,,,,,,,,,,
,,,,3,2.5718,,,,,,115,refrigerator,tomato,,89418,001,2022-04-25_14h37.13.274,SPAMnetsValid,2021.1.4,Win32,60.04924038,,,,,,,,,,,,,3,2.5718,0,9,9,85,1,,,,,,,,,,,,,,,,,,,,,,,,,,,,,,,,,,,,,,,,,,,,,,,,,,,,,,,,,,,,,,,,,,,,,,
,,,,5,1.8391,,,,,,103,pretzel,tomato,,89418,001,2022-04-25_14h37.13.274,SPAMnetsValid,2021.1.4,Win32,60.04924038,,,,,,,,,,,,,5,1.8391,0,10,10,79,1,,,,,,,,,,,,,,,,,,,,,,,,,,,,,,,,,,,,,,,,,,,,,,,,,,,,,,,,,,,,,,,,,,,,,,
,,,,6,2.1303,,,,,,100,garden,tomato,,89418,001,2022-04-25_14h37.13.274,SPAMnetsValid,2021.1.4,Win32,60.04924038,,,,,,,,,,,,,6,2.1303,0,11,11,83,1,,,,,,,,,,,,,,,,,,,,,,,,,,,,,,,,,,,,,,,,,,,,,,,,,,,,,,,,,,,,,,,,,,,,,,
,,,,7,1.2578,,,,,,190,microwave,strawberry,,89418,001,2022-04-25_14h37.13.274,SPAMnetsValid,2021.1.4,Win32,60.04924038,,,,,,,,,,,,,7,1.2578,0,12,12,90,1,,,,,,,,,,,,,,,,,,,,,,,,,,,,,,,,,,,,,,,,,,,,,,,,,,,,,,,,,,,,,,,,,,,,,,
,,,,6,1.2044,,,,,,171,cake,tomato,,89418,001,2022-04-25_14h37.13.274,SPAMnetsValid,2021.1.4,Win32,60.04924038,,,,,,,,,,,,,6,1.2044,0,13,13,88,1,,,,,,,,,,,,,,,,,,,,,,,,,,,,,,,,,,,,,,,,,,,,,,,,,,,,,,,,,,,,,,,,,,,,,,
,,,,7,1.2528,,,,,,113,refrigerator,strawberry,,89418,001,2022-04-25_14h37.13.274,SPAMnetsValid,2021.1.4,Win32,60.04924038,,,,,,,,,,,,,7,1.2528,0,14,14,56,1,,,,,,,,,,,,,,,,,,,,,,,,,,,,,,,,,,,,,,,,,,,,,,,,,,,,,,,,,,,,,,,,,,,,,,
,,,,7,1.4544,,,,,,172,kitchen,melon,,89418,001,2022-04-25_14h37.13.274,SPAMnetsValid,2021.1.4,Win32,60.04924038,,,,,,,,,,,,,7,1.4544,0,15,15,77,1,,,,,,,,,,,,,,,,,,,,,,,,,,,,,,,,,,,,,,,,,,,,,,,,,,,,,,,,,,,,,,,,,,,,,,
,,,,6,1.1765,,,,,,182,flower,refrigerator,,89418,001,2022-04-25_14h37.13.274,SPAMnetsValid,2021.1.4,Win32,60.04924038,,,,,,,,,,,,,6,1.1765,0,16,16,32,1,,,,,,,,,,,,,,,,,,,,,,,,,,,,,,,,,,,,,,,,,,,,,,,,,,,,,,,,,,,,,,,,,,,,,,
,,,,6,1.9542,,,,,,119,strawberry,tree,,89418,001,2022-04-25_14h37.13.274,SPAMnetsValid,2021.1.4,Win32,60.04924038,,,,,,,,,,,,,6,1.9542,0,17,17,18,1,,,,,,,,,,,,,,,,,,,,,,,,,,,,,,,,,,,,,,,,,,,,,,,,,,,,,,,,,,,,,,,,,,,,,,
,,,,7,3.3214,,,,,,151,microwave,onion,,89418,001,2022-04-25_14h37.13.274,SPAMnetsValid,2021.1.4,Win32,60.04924038,,,,,,,,,,,,,7,3.3214,0,18,18,6,1,,,,,,,,,,,,,,,,,,,,,,,,,,,,,,,,,,,,,,,,,,,,,,,,,,,,,,,,,,,,,,,,,,,,,,
,,,,6,1.4043,,,,,,148,flower,melon,,89418,001,2022-04-25_14h37.13.274,SPAMnetsValid,2021.1.4,Win32,60.04924038,,,,,,,,,,,,,6,1.4043,0,19,19,23,1,,,,,,,,,,,,,,,,,,,,,,,,,,,,,,,,,,,,,,,,,,,,,,,,,,,,,,,,,,,,,,,,,,,,,,
,,,,6,1.3406,,,,,,114,cookie,strawberry,,89418,001,2022-04-25_14h37.13.274,SPAMnetsValid,2021.1.4,Win32,60.04924038,,,,,,,,,,,,,6,1.3406,0,20,20,87,1,,,,,,,,,,,,,,,,,,,,,,,,,,,,,,,,,,,,,,,,,,,,,,,,,,,,,,,,,,,,,,,,,,,,,,
,,,,6,1.2906,,,,,,112,cake,carrot,,89418,001,2022-04-25_14h37.13.274,SPAMnetsValid,2021.1.4,Win32,60.04924038,,,,,,,,,,,,,6,1.2906,0,21,21,39,1,,,,,,,,,,,,,,,,,,,,,,,,,,,,,,,,,,,,,,,,,,,,,,,,,,,,,,,,,,,,,,,,,,,,,,
,,,,6,1.5964,,,,,,102,chocolate,refrigerator,,89418,001,2022-04-25_14h37.13.274,SPAMnetsValid,2021.1.4,Win32,60.04924038,,,,,,,,,,,,,6,1.5964,0,22,22,76,1,,,,,,,,,,,,,,,,,,,,,,,,,,,,,,,,,,,,,,,,,,,,,,,,,,,,,,,,,,,,,,,,,,,,,,
,,,,7,1.4134,,,,,,108,carrot,chocolate,,89418,001,2022-04-25_14h37.13.274,SPAMnetsValid,2021.1.4,Win32,60.04924038,,,,,,,,,,,,,7,1.4134,0,23,23,5,1,,,,,,,,,,,,,,,,,,,,,,,,,,,,,,,,,,,,,,,,,,,,,,,,,,,,,,,,,,,,,,,,,,,,,,
,,,,6,2.297,,,,,,129,cactus,refrigerator,,89418,001,2022-04-25_14h37.13.274,SPAMnetsValid,2021.1.4,Win32,60.04924038,,,,,,,,,,,,,6,2.297,0,24,24,3,1,,,,,,,,,,,,,,,,,,,,,,,,,,,,,,,,,,,,,,,,,,,,,,,,,,,,,,,,,,,,,,,,,,,,,,
,,,,6,1.4889,,,,,,127,cactus,chocolate,,89418,001,2022-04-25_14h37.13.274,SPAMnetsValid,2021.1.4,Win32,60.04924038,,,,,,,,,,,,,6,1.4889,0,25,25,57,1,,,,,,,,,,,,,,,,,,,,,,,,,,,,,,,,,,,,,,,,,,,,,,,,,,,,,,,,,,,,,,,,,,,,,,
,,,,6,1.3602,,,,,,178,cactus,carrot,,89418,001,2022-04-25_14h37.13.274,SPAMnetsValid,2021.1.4,Win32,60.04924038,,,,,,,,,,,,,6,1.3602,0,26,26,75,1,,,,,,,,,,,,,,,,,,,,,,,,,,,,,,,,,,,,,,,,,,,,,,,,,,,,,,,,,,,,,,,,,,,,,,
,,,,6,1.3547,,,,,,110,chocolate,cookie,,89418,001,2022-04-25_14h37.13.274,SPAMnetsValid,2021.1.4,Win32,60.04924038,,,,,,,,,,,,,6,1.3547,0,27,27,52,1,,,,,,,,,,,,,,,,,,,,,,,,,,,,,,,,,,,,,,,,,,,,,,,,,,,,,,,,,,,,,,,,,,,,,,
,,,,6,1.3551,,,,,,146,pretzel,tree,,89418,001,2022-04-25_14h37.13.274,SPAMnetsValid,2021.1.4,Win32,60.04924038,,,,,,,,,,,,,6,1.3551,0,28,28,80,1,,,,,,,,,,,,,,,,,,,,,,,,,,,,,,,,,,,,,,,,,,,,,,,,,,,,,,,,,,,,,,,,,,,,,,
,,,,6,1.4414,,,,,,134,carrot,flower,,89418,001,2022-04-25_14h37.13.274,SPAMnetsValid,2021.1.4,Win32,60.04924038,,,,,,,,,,,,,6,1.4414,0,29,29,93,1,,,,,,,,,,,,,,,,,,,,,,,,,,,,,,,,,,,,,,,,,,,,,,,,,,,,,,,,,,,,,,,,,,,,,,
,,,,6,1.3404,,,,,,168,cactus,flower,,89418,001,2022-04-25_14h37.13.274,SPAMnetsValid,2021.1.4,Win32,60.04924038,,,,,,,,,,,,,6,1.3404,0,30,30,51,1,,,,,,,,,,,,,,,,,,,,,,,,,,,,,,,,,,,,,,,,,,,,,,,,,,,,,,,,,,,,,,,,,,,,,,
,,,,6,1.3312,,,,,,121,broom,microwave,,89418,001,2022-04-25_14h37.13.274,SPAMnetsValid,2021.1.4,Win32,60.04924038,,,,,,,,,,,,,6,1.3312,0,31,31,95,1,,,,,,,,,,,,,,,,,,,,,,,,,,,,,,,,,,,,,,,,,,,,,,,,,,,,,,,,,,,,,,,,,,,,,,
,,,,6,1.3386,,,,,,167,carrot,garden,,89418,001,2022-04-25_14h37.13.274,SPAMnetsValid,2021.1.4,Win32,60.04924038,,,,,,,,,,,,,6,1.3386,0,32,32,47,1,,,,,,,,,,,,,,,,,,,,,,,,,,,,,,,,,,,,,,,,,,,,,,,,,,,,,,,,,,,,,,,,,,,,,,
,,,,6,1.5386,,,,,,104,garden,microwave,,89418,001,2022-04-25_14h37.13.274,SPAMnetsValid,2021.1.4,Win32,60.04924038,,,,,,,,,,,,,6,1.5386,0,33,33,81,1,,,,,,,,,,,,,,,,,,,,,,,,,,,,,,,,,,,,,,,,,,,,,,,,,,,,,,,,,,,,,,,,,,,,,,
,,,,6,1.4954,,,,,,175,melon,onion,,89418,001,2022-04-25_14h37.13.274,SPAMnetsValid,2021.1.4,Win32,60.04924038,,,,,,,,,,,,,6,1.4954,0,34,34,41,1,,,,,,,,,,,,,,,,,,,,,,,,,,,,,,,,,,,,,,,,,,,,,,,,,,,,,,,,,,,,,,,,,,,,,,
,,,,7,1.5728,,,,,,185,cactus,rose,,89418,001,2022-04-25_14h37.13.274,SPAMnetsValid,2021.1.4,Win32,60.04924038,,,,,,,,,,,,,7,1.5728,0,35,35,43,1,,,,,,,,,,,,,,,,,,,,,,,,,,,,,,,,,,,,,,,,,,,,,,,,,,,,,,,,,,,,,,,,,,,,,,
,,,,6,1.771,,,,,,130,microwave,yogurt,,89418,001,2022-04-25_14h37.13.274,SPAMnetsValid,2021.1.4,Win32,60.04924038,,,,,,,,,,,,,6,1.771,0,36,36,84,1,,,,,,,,,,,,,,,,,,,,,,,,,,,,,,,,,,,,,,,,,,,,,,,,,,,,,,,,,,,,,,,,,,,,,,
,,,,7,1.6536,,,,,,142,garden,tree,,89418,001,2022-04-25_14h37.13.274,SPAMnetsValid,2021.1.4,Win32,60.04924038,,,,,,,,,,,,,7,1.6536,0,37,37,22,1,,,,,,,,,,,,,,,,,,,,,,,,,,,,,,,,,,,,,,,,,,,,,,,,,,,,,,,,,,,,,,,,,,,,,,
,,,,7,1.7828,,,,,,154,strawberry,yogurt,,89418,001,2022-04-25_14h37.13.274,SPAMnetsValid,2021.1.4,Win32,60.04924038,,,,,,,,,,,,,7,1.7828,0,38,38,28,1,,,,,,,,,,,,,,,,,,,,,,,,,,,,,,,,,,,,,,,,,,,,,,,,,,,,,,,,,,,,,,,,,,,,,,
,,,,7,1.5712,,,,,,122,flower,garden,,89418,001,2022-04-25_14h37.13.274,SPAMnetsValid,2021.1.4,Win32,60.04924038,,,,,,,,,,,,,7,1.5712,0,39,39,60,1,,,,,,,,,,,,,,,,,,,,,,,,,,,,,,,,,,,,,,,,,,,,,,,,,,,,,,,,,,,,,,,,,,,,,,
,,,,6,1.2712,,,,,,97,chocolate,kitchen,,89418,001,2022-04-25_14h37.13.274,SPAMnetsValid,2021.1.4,Win32,60.04924038,,,,,,,,,,,,,6,1.2712,0,40,40,8,1,,,,,,,,,,,,,,,,,,,,,,,,,,,,,,,,,,,,,,,,,,,,,,,,,,,,,,,,,,,,,,,,,,,,,,
,,,,7,1.5044,,,,,,111,carrot,microwave,,89418,001,2022-04-25_14h37.13.274,SPAMnetsValid,2021.1.4,Win32,60.04924038,,,,,,,,,,,,,7,1.5044,0,41,41,16,1,,,,,,,,,,,,,,,,,,,,,,,,,,,,,,,,,,,,,,,,,,,,,,,,,,,,,,,,,,,,,,,,,,,,,,
,,,,6,1.605,,,,,,118,chocolate,oven,,89418,001,2022-04-25_14h37.13.274,SPAMnetsValid,2021.1.4,Win32,60.04924038,,,,,,,,,,,,,6,1.605,0,42,42,10,1,,,,,,,,,,,,,,,,,,,,,,,,,,,,,,,,,,,,,,,,,,,,,,,,,,,,,,,,,,,,,,,,,,,,,,
,,,,7,1.3385,,,,,,131,cactus,garden,,89418,001,2022-04-25_14h37.13.274,SPAMnetsValid,2021.1.4,Win32,60.04924038,,,,,,,,,,,,,7,1.3385,0,43,43,33,1,,,,,,,,,,,,,,,,,,,,,,,,,,,,,,,,,,,,,,,,,,,,,,,,,,,,,,,,,,,,,,,,,,,,,,
,,,,7,1.6534,,,,,,183,cake,rose,,89418,001,2022-04-25_14h37.13.274,SPAMnetsValid,2021.1.4,Win32,60.04924038,,,,,,,,,,,,,7,1.6534,0,44,44,19,1,,,,,,,,,,,,,,,,,,,,,,,,,,,,,,,,,,,,,,,,,,,,,,,,,,,,,,,,,,,,,,,,,,,,,,
,,,,6,1.4884,,,,,,188,flower,tree,,89418,001,2022-04-25_14h37.13.274,SPAMnetsValid,2021.1.4,Win32,60.04924038,,,,,,,,,,,,,6,1.4884,0,45,45,7,1,,,,,,,,,,,,,,,,,,,,,,,,,,,,,,,,,,,,,,,,,,,,,,,,,,,,,,,,,,,,,,,,,,,,,,
,,,,7,1.7582,,,,,,160,cookie,kitchen,,89418,001,2022-04-25_14h37.13.274,SPAMnetsValid,2021.1.4,Win32,60.04924038,,,,,,,,,,,,,7,1.7582,0,46,46,65,1,,,,,,,,,,,,,,,,,,,,,,,,,,,,,,,,,,,,,,,,,,,,,,,,,,,,,,,,,,,,,,,,,,,,,,
,,,,8,1.8891,,,,,,165,onion,rose,,89418,001,2022-04-25_14h37.13.274,SPAMnetsValid,2021.1.4,Win32,60.04924038,,,,,,,,,,,,,8,1.8891,0,47,47,40,1,,,,,,,,,,,,,,,,,,,,,,,,,,,,,,,,,,,,,,,,,,,,,,,,,,,,,,,,,,,,,,,,,,,,,,
,,,,9,1.789,,,,,,125,carrot,tree,,89418,001,2022-04-25_14h37.13.274,SPAMnetsValid,2021.1.4,Win32,60.04924038,,,,,,,,,,,,,9,1.789,0,48,48,30,1,,,,,,,,,,,,,,,,,,,,,,,,,,,,,,,,,,,,,,,,,,,,,,,,,,,,,,,,,,,,,,,,,,,,,,
,,,,7,1.9967,,,,,,139,carrot,strawberry,,89418,001,2022-04-25_14h37.13.274,SPAMnetsValid,2021.1.4,Win32,60.04924038,,,,,,,,,,,,,7,1.9967,0,49,49,37,1,,,,,,,,,,,,,,,,,,,,,,,,,,,,,,,,,,,,,,,,,,,,,,,,,,,,,,,,,,,,,,,,,,,,,,
,,,,9,1.55,,,,,,135,carrot,oven,,89418,001,2022-04-25_14h37.13.274,SPAMnetsValid,2021.1.4,Win32,60.04924038,,,,,,,,,,,,,9,1.55,0,50,50,73,1,,,,,,,,,,,,,,,,,,,,,,,,,,,,,,,,,,,,,,,,,,,,,,,,,,,,,,,,,,,,,,,,,,,,,,
,,,,7,2.2709,,,,,,162,microwave,tomato,,89418,001,2022-04-25_14h37.13.274,SPAMnetsValid,2021.1.4,Win32,60.04924038,,,,,,,,,,,,,7,2.2709,0,51,51,12,1,,,,,,,,,,,,,,,,,,,,,,,,,,,,,,,,,,,,,,,,,,,,,,,,,,,,,,,,,,,,,,,,,,,,,,
,,,,7,1.9133,,,,,,152,cactus,strawberry,,89418,001,2022-04-25_14h37.13.274,SPAMnetsValid,2021.1.4,Win32,60.04924038,,,,,,,,,,,,,7,1.9133,0,52,52,49,1,,,,,,,,,,,,,,,,,,,,,,,,,,,,,,,,,,,,,,,,,,,,,,,,,,,,,,,,,,,,,,,,,,,,,,
,,,,7,1.7453,,,,,,159,cookie,flower,,89418,001,2022-04-25_14h37.13.274,SPAMnetsValid,2021.1.4,Win32,60.04924038,,,,,,,,,,,,,7,1.7453,0,53,53,21,1,,,,,,,,,,,,,,,,,,,,,,,,,,,,,,,,,,,,,,,,,,,,,,,,,,,,,,,,,,,,,,,,,,,,,,
,,,,7,1.4717,,,,,,143,pretzel,rose,,89418,001,2022-04-25_14h37.13.274,SPAMnetsValid,2021.1.4,Win32,60.04924038,,,,,,,,,,,,,7,1.4717,0,54,54,55,1,,,,,,,,,,,,,,,,,,,,,,,,,,,,,,,,,,,,,,,,,,,,,,,,,,,,,,,,,,,,,,,,,,,,,,
,,,,7,1.5055,,,,,,176,cactus,tomato,,89418,001,2022-04-25_14h37.13.274,SPAMnetsValid,2021.1.4,Win32,60.04924038,,,,,,,,,,,,,7,1.5055,0,55,55,9,1,,,,,,,,,,,,,,,,,,,,,,,,,,,,,,,,,,,,,,,,,,,,,,,,,,,,,,,,,,,,,,,,,,,,,,
,,,,7,1.4871,,,,,,186,kitchen,yogurt,,89418,001,2022-04-25_14h37.13.274,SPAMnetsValid,2021.1.4,Win32,60.04924038,,,,,,,,,,,,,7,1.4871,0,56,56,48,1,,,,,,,,,,,,,,,,,,,,,,,,,,,,,,,,,,,,,,,,,,,,,,,,,,,,,,,,,,,,,,,,,,,,,,
,,,,7,1.4041,,,,,,126,kitchen,tree,,89418,001,2022-04-25_14h37.13.274,SPAMnetsValid,2021.1.4,Win32,60.04924038,,,,,,,,,,,,,7,1.4041,0,57,57,50,1,,,,,,,,,,,,,,,,,,,,,,,,,,,,,,,,,,,,,,,,,,,,,,,,,,,,,,,,,,,,,,,,,,,,,,
,,,,7,3.073,,,,,,137,microwave,tree,,89418,001,2022-04-25_14h37.13.274,SPAMnetsValid,2021.1.4,Win32,60.04924038,,,,,,,,,,,,,7,3.073,0,58,58,63,1,,,,,,,,,,,,,,,,,,,,,,,,,,,,,,,,,,,,,,,,,,,,,,,,,,,,,,,,,,,,,,,,,,,,,,
,,,,6,2.6021,,,,,,193,melon,melon,CHECK,89418,001,2022-04-25_14h37.13.274,SPAMnetsValid,2021.1.4,Win32,60.04924038,,,,,,,,,,,,,6,2.6021,0,59,59,86,1,,,,,,,,,,,,,,,,,,,,,,,,,,,,,,,,,,,,,,,,,,,,,,,,,,,,,,,,,,,,,,,,,,,,,,
,,,,7,1.8913,,,,,,155,carrot,cookie,,89418,001,2022-04-25_14h37.13.274,SPAMnetsValid,2021.1.4,Win32,60.04924038,,,,,,,,,,,,,7,1.8913,0,60,60,38,1,,,,,,,,,,,,,,,,,,,,,,,,,,,,,,,,,,,,,,,,,,,,,,,,,,,,,,,,,,,,,,,,,,,,,,
,,,,6,2.1784,,,,,,156,melon,rose,,89418,001,2022-04-25_14h37.13.274,SPAMnetsValid,2021.1.4,Win32,60.04924038,,,,,,,,,,,,,6,2.1784,0,61,61,31,1,,,,,,,,,,,,,,,,,,,,,,,,,,,,,,,,,,,,,,,,,,,,,,,,,,,,,,,,,,,,,,,,,,,,,,
,,,,6,2.1818,,,,,,187,cactus,microwave,,89418,001,2022-04-25_14h37.13.274,SPAMnetsValid,2021.1.4,Win32,60.04924038,,,,,,,,,,,,,6,2.1818,0,62,62,71,1,,,,,,,,,,,,,,,,,,,,,,,,,,,,,,,,,,,,,,,,,,,,,,,,,,,,,,,,,,,,,,,,,,,,,,
,,,,6,1.3801,,,,,,177,chocolate,strawberry,,89418,001,2022-04-25_14h37.13.274,SPAMnetsValid,2021.1.4,Win32,60.04924038,,,,,,,,,,,,,6,1.3801,0,63,63,53,1,,,,,,,,,,,,,,,,,,,,,,,,,,,,,,,,,,,,,,,,,,,,,,,,,,,,,,,,,,,,,,,,,,,,,,
,,,,7,1.4502,,,,,,99,garden,melon,,89418,001,2022-04-25_14h37.13.274,SPAMnetsValid,2021.1.4,Win32,60.04924038,,,,,,,,,,,,,7,1.4502,0,64,64,17,1,,,,,,,,,,,,,,,,,,,,,,,,,,,,,,,,,,,,,,,,,,,,,,,,,,,,,,,,,,,,,,,,,,,,,,
,,,,7,1.7931,,,,,,150,microwave,refrigerator,,89418,001,2022-04-25_14h37.13.274,SPAMnetsValid,2021.1.4,Win32,60.04924038,,,,,,,,,,,,,7,1.7931,0,65,65,66,1,,,,,,,,,,,,,,,,,,,,,,,,,,,,,,,,,,,,,,,,,,,,,,,,,,,,,,,,,,,,,,,,,,,,,,
,,,,6,1.7246,,,,,,174,cake,pretzel,,89418,001,2022-04-25_14h37.13.274,SPAMnetsValid,2021.1.4,Win32,60.04924038,,,,,,,,,,,,,6,1.7246,0,66,66,2,1,,,,,,,,,,,,,,,,,,,,,,,,,,,,,,,,,,,,,,,,,,,,,,,,,,,,,,,,,,,,,,,,,,,,,,
,,,,6,1.5442,,,,,,157,refrigerator,rose,,89418,001,2022-04-25_14h37.13.274,SPAMnetsValid,2021.1.4,Win32,60.04924038,,,,,,,,,,,,,6,1.5442,0,67,67,64,1,,,,,,,,,,,,,,,,,,,,,,,,,,,,,,,,,,,,,,,,,,,,,,,,,,,,,,,,,,,,,,,,,,,,,,
,,,,6,1.4912,,,,,,170,cookie,microwave,,89418,001,2022-04-25_14h37.13.274,SPAMnetsValid,2021.1.4,Win32,60.04924038,,,,,,,,,,,,,6,1.4912,0,68,68,92,1,,,,,,,,,,,,,,,,,,,,,,,,,,,,,,,,,,,,,,,,,,,,,,,,,,,,,,,,,,,,,,,,,,,,,,
,,,,7,1.61,,,,,,107,rose,tomato,,89418,001,2022-04-25_14h37.13.274,SPAMnetsValid,2021.1.4,Win32,60.04924038,,,,,,,,,,,,,7,1.61,0,69,69,26,1,,,,,,,,,,,,,,,,,,,,,,,,,,,,,,,,,,,,,,,,,,,,,,,,,,,,,,,,,,,,,,,,,,,,,,
,,,,7,1.9857,,,,,,169,onion,yogurt,,89418,001,2022-04-25_14h37.13.274,SPAMnetsValid,2021.1.4,Win32,60.04924038,,,,,,,,,,,,,7,1.9857,0,70,70,24,1,,,,,,,,,,,,,,,,,,,,,,,,,,,,,,,,,,,,,,,,,,,,,,,,,,,,,,,,,,,,,,,,,,,,,,
,,,,7,1.4214,,,,,,161,kitchen,pretzel,,89418,001,2022-04-25_14h37.13.274,SPAMnetsValid,2021.1.4,Win32,60.04924038,,,,,,,,,,,,,7,1.4214,0,71,71,36,1,,,,,,,,,,,,,,,,,,,,,,,,,,,,,,,,,,,,,,,,,,,,,,,,,,,,,,,,,,,,,,,,,,,,,,
,,,,7,1.6212,,,,,,166,cake,yogurt,,89418,001,2022-04-25_14h37.13.274,SPAMnetsValid,2021.1.4,Win32,60.04924038,,,,,,,,,,,,,7,1.6212,0,72,72,91,1,,,,,,,,,,,,,,,,,,,,,,,,,,,,,,,,,,,,,,,,,,,,,,,,,,,,,,,,,,,,,,,,,,,,,,
,,,,7,1.6219,,,,,,117,melon,strawberry,,89418,001,2022-04-25_14h37.13.274,SPAMnetsValid,2021.1.4,Win32,60.04924038,,,,,,,,,,,,,7,1.6219,0,73,73,11,1,,,,,,,,,,,,,,,,,,,,,,,,,,,,,,,,,,,,,,,,,,,,,,,,,,,,,,,,,,,,,,,,,,,,,,
,,,,6,1.6574,,,,,,96,oven,strawberry,,89418,001,2022-04-25_14h37.13.274,SPAMnetsValid,2021.1.4,Win32,60.04924038,,,,,,,,,,,,,6,1.6574,0,74,74,67,1,,,,,,,,,,,,,,,,,,,,,,,,,,,,,,,,,,,,,,,,,,,,,,,,,,,,,,,,,,,,,,,,,,,,,,
,,,,6,1.99,,,,,,124,oven,refrigerator,,89418,001,2022-04-25_14h37.13.274,SPAMnetsValid,2021.1.4,Win32,60.04924038,,,,,,,,,,,,,6,1.99,0,75,75,69,1,,,,,,,,,,,,,,,,,,,,,,,,,,,,,,,,,,,,,,,,,,,,,,,,,,,,,,,,,,,,,,,,,,,,,,
,,,,6,1.687,,,,,,132,broom,tree,,89418,001,2022-04-25_14h37.13.274,SPAMnetsValid,2021.1.4,Win32,60.04924038,,,,,,,,,,,,,6,1.687,0,76,76,78,1,,,,,,,,,,,,,,,,,,,,,,,,,,,,,,,,,,,,,,,,,,,,,,,,,,,,,,,,,,,,,,,,,,,,,,
,,,,6,2.238,,,,,,149,broom,tomato,,89418,001,2022-04-25_14h37.13.274,SPAMnetsValid,2021.1.4,Win32,60.04924038,,,,,,,,,,,,,6,2.238,0,77,77,20,1,,,,,,,,,,,,,,,,,,,,,,,,,,,,,,,,,,,,,,,,,,,,,,,,,,,,,,,,,,,,,,,,,,,,,,
,,,,6,1.8555,,,,,,144,cake,garden,,89418,001,2022-04-25_14h37.13.274,SPAMnetsValid,2021.1.4,Win32,60.04924038,,,,,,,,,,,,,6,1.8555,0,78,78,58,1,,,,,,,,,,,,,,,,,,,,,,,,,,,,,,,,,,,,,,,,,,,,,,,,,,,,,,,,,,,,,,,,,,,,,,
,,,,6,2.442,,,,,,141,melon,tomato,,89418,001,2022-04-25_14h37.13.274,SPAMnetsValid,2021.1.4,Win32,60.04924038,,,,,,,,,,,,,6,2.442,0,79,79,70,1,,,,,,,,,,,,,,,,,,,,,,,,,,,,,,,,,,,,,,,,,,,,,,,,,,,,,,,,,,,,,,,,,,,,,,
,,,,7,1.5027,,,,,,184,oven,pretzel,,89418,001,2022-04-25_14h37.13.274,SPAMnetsValid,2021.1.4,Win32,60.04924038,,,,,,,,,,,,,7,1.5027,0,80,80,42,1,,,,,,,,,,,,,,,,,,,,,,,,,,,,,,,,,,,,,,,,,,,,,,,,,,,,,,,,,,,,,,,,,,,,,,
,,,,7,1.4545,,,,,,180,tree,yogurt,,89418,001,2022-04-25_14h37.13.274,SPAMnetsValid,2021.1.4,Win32,60.04924038,,,,,,,,,,,,,7,1.4545,0,81,81,68,1,,,,,,,,,,,,,,,,,,,,,,,,,,,,,,,,,,,,,,,,,,,,,,,,,,,,,,,,,,,,,,,,,,,,,,
,,,,7,1.4731,,,,,,179,broom,oven,,89418,001,2022-04-25_14h37.13.274,SPAMnetsValid,2021.1.4,Win32,60.04924038,,,,,,,,,,,,,7,1.4731,0,82,82,45,1,,,,,,,,,,,,,,,,,,,,,,,,,,,,,,,,,,,,,,,,,,,,,,,,,,,,,,,,,,,,,,,,,,,,,,
,,,,7,2.1933,,,,,,116,cake,chocolate,,89418,001,2022-04-25_14h37.13.274,SPAMnetsValid,2021.1.4,Win32,60.04924038,,,,,,,,,,,,,7,2.1933,0,83,83,44,1,,,,,,,,,,,,,,,,,,,,,,,,,,,,,,,,,,,,,,,,,,,,,,,,,,,,,,,,,,,,,,,,,,,,,,
,,,,7,1.5042,,,,,,101,cactus,kitchen,,89418,001,2022-04-25_14h37.13.274,SPAMnetsValid,2021.1.4,Win32,60.04924038,,,,,,,,,,,,,7,1.5042,0,84,84,54,1,,,,,,,,,,,,,,,,,,,,,,,,,,,,,,,,,,,,,,,,,,,,,,,,,,,,,,,,,,,,,,,,,,,,,,
,,,,7,1.4073,,,,,,164,cookie,garden,,89418,001,2022-04-25_14h37.13.274,SPAMnetsValid,2021.1.4,Win32,60.04924038,,,,,,,,,,,,,7,1.4073,0,85,85,59,1,,,,,,,,,,,,,,,,,,,,,,,,,,,,,,,,,,,,,,,,,,,,,,,,,,,,,,,,,,,,,,,,,,,,,,
,,,,7,1.6911,,,,,,105,cactus,oven,,89418,001,2022-04-25_14h37.13.274,SPAMnetsValid,2021.1.4,Win32,60.04924038,,,,,,,,,,,,,7,1.6911,0,86,86,13,1,,,,,,,,,,,,,,,,,,,,,,,,,,,,,,,,,,,,,,,,,,,,,,,,,,,,,,,,,,,,,,,,,,,,,,
,,,,7,1.8637,,,,,,138,flower,rose,,89418,001,2022-04-25_14h37.13.274,SPAMnetsValid,2021.1.4,Win32,60.04924038,,,,,,,,,,,,,7,1.8637,0,87,87,61,1,,,,,,,,,,,,,,,,,,,,,,,,,,,,,,,,,,,,,,,,,,,,,,,,,,,,,,,,,,,,,,,,,,,,,,
,,,,6,1.8882,,,,,,194,cactus,cactus,CHECK,89418,001,2022-04-25_14h37.13.274,SPAMnetsValid,2021.1.4,Win32,60.04924038,,,,,,,,,,,,,6,1.8882,0,88,88,25,1,,,,,,,,,,,,,,,,,,,,,,,,,,,,,,,,,,,,,,,,,,,,,,,,,,,,,,,,,,,,,,,,,,,,,,
,,,,7,1.4558,,,,,,109,broom,strawberry,,89418,001,2022-04-25_14h37.13.274,SPAMnetsValid,2021.1.4,Win32,60.04924038,,,,,,,,,,,,,7,1.4558,0,89,89,4,1,,,,,,,,,,,,,,,,,,,,,,,,,,,,,,,,,,,,,,,,,,,,,,,,,,,,,,,,,,,,,,,,,,,,,,
,,,,7,1.6688,,,,,,106,cake,strawberry,,89418,001,2022-04-25_14h37.13.274,SPAMnetsValid,2021.1.4,Win32,60.04924038,,,,,,,,,,,,,7,1.6688,0,90,90,0,1,,,,,,,,,,,,,,,,,,,,,,,,,,,,,,,,,,,,,,,,,,,,,,,,,,,,,,,,,,,,,,,,,,,,,,
,,,,7,1.7714,,,,,,145,cactus,yogurt,,89418,001,2022-04-25_14h37.13.274,SPAMnetsValid,2021.1.4,Win32,60.04924038,,,,,,,,,,,,,7,1.7714,0,91,91,15,1,,,,,,,,,,,,,,,,,,,,,,,,,,,,,,,,,,,,,,,,,,,,,,,,,,,,,,,,,,,,,,,,,,,,,,
,,,,7,1.8287,,,,,,120,microwave,oven,,89418,001,2022-04-25_14h37.13.274,SPAMnetsValid,2021.1.4,Win32,60.04924038,,,,,,,,,,,,,7,1.8287,0,92,92,14,1,,,,,,,,,,,,,,,,,,,,,,,,,,,,,,,,,,,,,,,,,,,,,,,,,,,,,,,,,,,,,,,,,,,,,,
,,,,7,1.6364,,,,,,173,kitchen,tomato,,89418,001,2022-04-25_14h37.13.274,SPAMnetsValid,2021.1.4,Win32,60.04924038,,,,,,,,,,,,,7,1.6364,0,93,93,1,1,,,,,,,,,,,,,,,,,,,,,,,,,,,,,,,,,,,,,,,,,,,,,,,,,,,,,,,,,,,,,,,,,,,,,,
,,,,7,1.6607,,,,,,147,cake,refrigerator,,89418,001,2022-04-25_14h37.13.274,SPAMnetsValid,2021.1.4,Win32,60.04924038,,,,,,,,,,,,,7,1.6607,0,94,94,35,1,,,,,,,,,,,,,,,,,,,,,,,,,,,,,,,,,,,,,,,,,,,,,,,,,,,,,,,,,,,,,,,,,,,,,,
,,,,7,1.5379,,,,,,98,pretzel,strawberry,,89418,001,2022-04-25_14h37.13.274,SPAMnetsValid,2021.1.4,Win32,60.04924038,,,,,,,,,,,,,7,1.5379,0,95,95,82,1,,,,,,,,,,,,,,,,,,,,,,,,,,,,,,,,,,,,,,,,,,,,,,,,,,,,,,,,,,,,,,,,,,,,,,
,,,,7,2.5137,,,,,,136,chocolate,microwave,,89418,001,2022-04-25_14h37.13.274,SPAMnetsValid,2021.1.4,Win32,60.04924038,,,,,,,,,,,,,7,2.5137,0,96,96,96,1,,,,,,,,,,,,,,,,,,,,,,,,,,,,,,,,,,,,,,,,,,,,,,,,,,,,,,,,,,,,,,,,,,,,,,
,,,,,,,,,,,,,,,89418,001,2022-04-25_14h37.13.274,SPAMnetsValid,2021.1.4,Win32,60.04924038,,,,,,,,,,,,,,,,,,,,0,0,0,0,1,,,,,,,,,,,,,,,,,,,,,,,,,,,,,,,,,,,,,,,,,,,,,,,,,,,,,,,,,,,,,,,,,
,,,,,,,,,,,,,,,89418,001,2022-04-25_14h37.13.274,SPAMnetsValid,2021.1.4,Win32,60.04924038,,,,,,0,1,1,1,1,0,1,,,,,,,,,,,,,,,,,,,,,,,,,,,,,,,,,,,,,,,,,,,,,,,,,,,,,,,,,,,,,,,,,,,,,,,,,,,,,
,,,,,,,,,,,,,,,89418,001,2022-04-25_14h37.13.274,SPAMnetsValid,2021.1.4,Win32,60.04924038,,,,,,,,,,,,,,,,,,,,,,,,,,,0,0,0,0,1,rancor,forbearance,ridicule,malice,bravery,3,,,,,,,,,,,,,,,,,,,,,,,,,,,,,,,,,,,,,,,,,,,,,,,,,,,,
,,,,,,,,,,,,,,,89418,001,2022-04-25_14h37.13.274,SPAMnetsValid,2021.1.4,Win32,60.04924038,,,,,,,,,,,,,,,,,,,,,,,,,2,0.0548,0,1,1,1,1,raucous,empty,quiet,smooth,harsh,4,,,,,,,,,,,,,,,,,,,,,,,,,,,,,,,,,,,,,,,,,,,,,,,,,,,,
,,,,,,,,,,,,,,,89418,001,2022-04-25_14h37.13.274,SPAMnetsValid,2021.1.4,Win32,60.04924038,,,,,,,,,,,,,,,,,,,,,,,,,,,0,2,2,2,1,gargoyle,oil,medicine,carved waterspout,ugly building,3,,,,,,,,,,,,,,,,,,,,,,,,,,,,,,,,,,,,,,,,,,,,,,,,,,,,
,,,,,,,,,,,,,,,89418,001,2022-04-25_14h37.13.274,SPAMnetsValid,2021.1.4,Win32,60.04924038,,,,,,,,,,,,,,,,,,,,,,,,,2,0.0186,0,3,3,3,1,recrudesce,purify,renew activity,lack refinement,crush,2,,,,,,,,,,,,,,,,,,,,,,,,,,,,,,,,,,,,,,,,,,,,,,,,,,,,
,,,,,,,,,,,,,,,89418,001,2022-04-25_14h37.13.274,SPAMnetsValid,2021.1.4,Win32,60.04924038,,,,,,,,,,,,,,,,,,,,,,,,,,,0,4,4,4,1,specious,"plausible, but not genuine",noteworthy,class or variety,roomy,1,,,,,,,,,,,,,,,,,,,,,,,,,,,,,,,,,,,,,,,,,,,,,,,,,,,,
,,,,,,,,,,,,,,,89418,001,2022-04-25_14h37.13.274,SPAMnetsValid,2021.1.4,Win32,60.04924038,,,,,,,,,,,,,,,,,,,,,,,,,,,0,5,5,5,1,bauble,bubble,showy plaything,idle talk,confusion,2,,,,,,,,,,,,,,,,,,,,,,,,,,,,,,,,,,,,,,,,,,,,,,,,,,,,
,,,,,,,,,,,,,,,89418,001,2022-04-25_14h37.13.274,SPAMnetsValid,2021.1.4,Win32,60.04924038,,,,,,,,,,,,,,,,,,,,,,,,,2,3.8587,0,6,6,6,1,prolific,scarce,producing abundantly,reckless,speaking profanely,2,,,,,,,,,,,,,,,,,,,,,,,,,,,,,,,,,,,,,,,,,,,,,,,,,,,,
,,,,,,,,,,,,,,,89418,001,2022-04-25_14h37.13.274,SPAMnetsValid,2021.1.4,Win32,60.04924038,,,,,,,,,,,,,,,,,,,,,,,,,2,1.8994,0,7,7,7,1,opulent,party,wealthy,happy frame of mind,semiprecious stone,2,,,,,,,,,,,,,,,,,,,,,,,,,,,,,,,,,,,,,,,,,,,,,,,,,,,,
,,,,,,,,,,,,,,,89418,001,2022-04-25_14h37.13.274,SPAMnetsValid,2021.1.4,Win32,60.04924038,,,,,,,,,,,,,,,,,,,,,,,,,2,1.8732,0,8,8,8,1,coercion,conspiracy,strategy,restraint,attraction,3,,,,,,,,,,,,,,,,,,,,,,,,,,,,,,,,,,,,,,,,,,,,,,,,,,,,
,,,,,,,,,,,,,,,89418,001,2022-04-25_14h37.13.274,SPAMnetsValid,2021.1.4,Win32,60.04924038,,,,,,,,,,,,,,,,,,,,,,,,,2,1.9653,0,9,9,9,1,hiatus,animal,calamity,dread,gap,4,,,,,,,,,,,,,,,,,,,,,,,,,,,,,,,,,,,,,,,,,,,,,,,,,,,,
,,,,,,,,,,,,,,,89418,001,2022-04-25_14h37.13.274,SPAMnetsValid,2021.1.4,Win32,60.04924038,,,,,,,,,,,,,,,,,,,,,,,,,3,1.7068,0,10,10,10,1,germane,microbe,contagious,relevant,different,3,,,,,,,,,,,,,,,,,,,,,,,,,,,,,,,,,,,,,,,,,,,,,,,,,,,,
,,,,,,,,,,,,,,,89418,001,2022-04-25_14h37.13.274,SPAMnetsValid,2021.1.4,Win32,60.04924038,,,,,,,,,,,,,,,,,,,,,,,,,3,1.8912,0,11,11,11,1,perfunctory,fundamental,formal,superficial,careful,3,,,,,,,,,,,,,,,,,,,,,,,,,,,,,,,,,,,,,,,,,,,,,,,,,,,,
,,,,,,,,,,,,,,,89418,001,2022-04-25_14h37.13.274,SPAMnetsValid,2021.1.4,Win32,60.04924038,,,,,,,,,,,,,,,,,,,,,,,,,2,1.4736,0,12,12,12,1,diverge,reveal,chant,distract the attention of,differ or turn off from,4,,,,,,,,,,,,,,,,,,,,,,,,,,,,,,,,,,,,,,,,,,,,,,,,,,,,
,,,,,,,,,,,,,,,89418,001,2022-04-25_14h37.13.274,SPAMnetsValid,2021.1.4,Win32,60.04924038,,,,,,,,,,,,,,,,,,,,,,,,,3,1.5407,0,13,13,13,1,evoke,take away,anger,connect,bring out,4,,,,,,,,,,,,,,,,,,,,,,,,,,,,,,,,,,,,,,,,,,,,,,,,,,,,
,,,,,,,,,,,,,,,89418,001,2022-04-25_14h37.13.274,SPAMnetsValid,2021.1.4,Win32,60.04924038,,,,,,,,,,,,,,,,,,,,,,,,,2,1.6435,0,14,14,14,1,pertinent,relevant,lying next to,necessary,bold,1,,,,,,,,,,,,,,,,,,,,,,,,,,,,,,,,,,,,,,,,,,,,,,,,,,,,
,,,,,,,,,,,,,,,89418,001,2022-04-25_14h37.13.274,SPAMnetsValid,2021.1.4,Win32,60.04924038,,,,,,,,,,,,,,,,,,,,,,,,,3,1.837,0,15,15,15,1,holocaust,entirety,destruction,saintly,price,2,,,,,,,,,,,,,,,,,,,,,,,,,,,,,,,,,,,,,,,,,,,,,,,,,,,,
,,,,,,,,,,,,,,,89418,001,2022-04-25_14h37.13.274,SPAMnetsValid,2021.1.4,Win32,60.04924038,,,,,,,,,,,,,,,,,,,,,,,,,2,1.3083,0,16,16,16,1,piquant,mellow,fish,pungent,cloth,3,,,,,,,,,,,,,,,,,,,,,,,,,,,,,,,,,,,,,,,,,,,,,,,,,,,,
,,,,,,,,,,,,,,,89418,001,2022-04-25_14h37.13.274,SPAMnetsValid,2021.1.4,Win32,60.04924038,,,,,,,,,,,,,,,,,,,,,,,,,3,1.5712,0,17,17,17,1,firmament,foundation,heavens,strong,glue,2,,,,,,,,,,,,,,,,,,,,,,,,,,,,,,,,,,,,,,,,,,,,,,,,,,,,
,,,,,,,,,,,,,,,89418,001,2022-04-25_14h37.13.274,SPAMnetsValid,2021.1.4,Win32,60.04924038,,,,,,,,,,,,,,,,,,,,,,,,,,,,,,,,,,,,,,3,1.4351,0,0,0,0,1,marketable,partisan,jocular,marriageable,salable,essential,4,,,,,,,,,,,,,,,,,,,,,,,,,,,,,,,,,,,,,,
,,,,,,,,,,,,,,,89418,001,2022-04-25_14h37.13.274,SPAMnetsValid,2021.1.4,Win32,60.04924038,,,,,,,,,,,,,,,,,,,,,,,,,,,,,,,,,,,,,,4,1.2662,0,1,1,1,1,cottontail,squirrel,poplar,boa,marshy plant,rabbit,5,,,,,,,,,,,,,,,,,,,,,,,,,,,,,,,,,,,,,,
,,,,,,,,,,,,,,,89418,001,2022-04-25_14h37.13.274,SPAMnetsValid,2021.1.4,Win32,60.04924038,,,,,,,,,,,,,,,,,,,,,,,,,,,,,,,,,,,,,,3,1.5663,0,2,2,2,1,boggy,afraid,false,marshy,dense,black,3,,,,,,,,,,,,,,,,,,,,,,,,,,,,,,,,,,,,,,
,,,,,,,,,,,,,,,89418,001,2022-04-25_14h37.13.274,SPAMnetsValid,2021.1.4,Win32,60.04924038,,,,,,,,,,,,,,,,,,,,,,,,,,,,,,,,,,,,,,4,1.0923,0,3,3,3,1,gruesomeness,blackness,falseness,vindictiveness,drunkenness,ghastliness,5,,,,,,,,,,,,,,,,,,,,,,,,,,,,,,,,,,,,,,
,,,,,,,,,,,,,,,89418,001,2022-04-25_14h37.13.274,SPAMnetsValid,2021.1.4,Win32,60.04924038,,,,,,,,,,,,,,,,,,,,,,,,,,,,,,,,,,,,,,4,2.2884,0,4,4,4,1,loathing,diffidence,laziness,abhorrence,cleverness,comfort,3,,,,,,,,,,,,,,,,,,,,,,,,,,,,,,,,,,,,,,
,,,,,,,,,,,,,,,89418,001,2022-04-25_14h37.13.274,SPAMnetsValid,2021.1.4,Win32,60.04924038,,,,,,,,,,,,,,,,,,,,,,,,,,,,,,,,,,,,,,3,1.7992,0,5,5,5,1,bantam,fowl,ridicule,cripple,vegetable,ensign,1,,,,,,,,,,,,,,,,,,,,,,,,,,,,,,,,,,,,,,
,,,,,,,,,,,,,,,89418,001,2022-04-25_14h37.13.274,SPAMnetsValid,2021.1.4,Win32,60.04924038,,,,,,,,,,,,,,,,,,,,,,,,,,,,,,,,,,,,,,3,1.1222,0,6,6,6,1,evoke,wake up,surrender,reconnoiter,transcend,call forth,5,,,,,,,,,,,,,,,,,,,,,,,,,,,,,,,,,,,,,,
,,,,,,,,,,,,,,,89418,001,2022-04-25_14h37.13.274,SPAMnetsValid,2021.1.4,Win32,60.04924038,,,,,,,,,,,,,,,,,,,,,,,,,,,,,,,,,,,,,,3,1.4072,0,7,7,7,1,unobtrusive,unintelligent,epileptic,illogical,lineal,modest,5,,,,,,,,,,,,,,,,,,,,,,,,,,,,,,,,,,,,,,
,,,,,,,,,,,,,,,89418,001,2022-04-25_14h37.13.274,SPAMnetsValid,2021.1.4,Win32,60.04924038,,,,,,,,,,,,,,,,,,,,,,,,,,,,,,,,,,,,,,3,1.4887,0,8,8,8,1,terrain,ice cream,final test,tractor,area of ground,weight,4,,,,,,,,,,,,,,,,,,,,,,,,,,,,,,,,,,,,,,
,,,,,,,,,,,,,,,89418,001,2022-04-25_14h37.13.274,SPAMnetsValid,2021.1.4,Win32,60.04924038,,,,,,,,,,,,,,,,,,,,,,,,,,,,,,,,,,,,,,3,2.2033,0,9,9,9,1,capriciousness,stubbornness,courage,whimsicality,amazement,greediness,3,,,,,,,,,,,,,,,,,,,,,,,,,,,,,,,,,,,,,,
,,,,,,,,,,,,,,,89418,001,2022-04-25_14h37.13.274,SPAMnetsValid,2021.1.4,Win32,60.04924038,,,,,,,,,,,,,,,,,,,,,,,,,,,,,,,,,,,,,,3,1.4099,0,10,10,10,1,maelstrom,slander,whirlpool,enmity,armor,majolica,2,,,,,,,,,,,,,,,,,,,,,,,,,,,,,,,,,,,,,,
,,,,,,,,,,,,,,,89418,001,2022-04-25_14h37.13.274,SPAMnetsValid,2021.1.4,Win32,60.04924038,,,,,,,,,,,,,,,,,,,,,,,,,,,,,,,,,,,,,,3,2.5143,0,11,11,11,1,tentative,critical,conclusive,authentic,provisional,apprehensive,4,,,,,,,,,,,,,,,,,,,,,,,,,,,,,,,,,,,,,,
,,,,,,,,,,,,,,,89418,001,2022-04-25_14h37.13.274,SPAMnetsValid,2021.1.4,Win32,60.04924038,,,,,,,,,,,,,,,,,,,,,,,,,,,,,,,,,,,,,,3,1.9213,0,12,12,12,1,placate,rehabilitate,plagiarize,depredate,apprise,conciliate,5,,,,,,,,,,,,,,,,,,,,,,,,,,,,,,,,,,,,,,
,,,,,,,,,,,,,,,89418,001,2022-04-25_14h37.13.274,SPAMnetsValid,2021.1.4,Win32,60.04924038,,,,,,,,,,,,,,,,,,,,,,,,,,,,,,,,,,,,,,3,1.3046,0,13,13,13,1,surcease,enlightenment,cessation,inattention,censor,substitution,2,,,,,,,,,,,,,,,,,,,,,,,,,,,,,,,,,,,,,,
,,,,,,,,,,,,,,,89418,001,2022-04-25_14h37.13.274,SPAMnetsValid,2021.1.4,Win32,60.04924038,,,,,,,,,,,,,,,,,,,,,,,,,,,,,,,,,,,,,,3,1.0604,0,14,14,14,1,apathetic,wandering,impassive,hateful,prophetic,overflowing,2,,,,,,,,,,,,,,,,,,,,,,,,,,,,,,,,,,,,,,
,,,,,,,,,,,,,,,89418,001,2022-04-25_14h37.13.274,SPAMnetsValid,2021.1.4,Win32,60.04924038,,,,,,,,,,,,,,,,,,,,,,,,,,,,,,,,,,,,,,3,1.3904,0,15,15,15,1,paternoster,paternalism,patricide,malediction,benediction,prayer,5,,,,,,,,,,,,,,,,,,,,,,,,,,,,,,,,,,,,,,
,,,,,,,,,,,,,,,89418,001,2022-04-25_14h37.13.274,SPAMnetsValid,2021.1.4,Win32,60.04924038,,,,,,,,,,,,,,,,,,,,,,,,,,,,,,,,,,,,,,3,2.2387,0,16,16,16,1,opalescence,opulence,senescence,bankruptcy,iridescence,assiduity,4,,,,,,,,,,,,,,,,,,,,,,,,,,,,,,,,,,,,,,
,,,,,,,,,,,,,,,89418,001,2022-04-25_14h37.13.274,SPAMnetsValid,2021.1.4,Win32,60.04924038,,,,,,,,,,,,,,,,,,,,,,,,,,,,,,,,,,,,,,3,1.9899,0,17,17,17,1,lush,stupid,luxurious,hazy,putrid,languishing,2,,,,,,,,,,,,,,,,,,,,,,,,,,,,,,,,,,,,,,
,,,,,,,,,,,,,,,89418,001,2022-04-25_14h37.13.274,SPAMnetsValid,2021.1.4,Win32,60.04924038,,,,,,,,,,,,,,,,,,,,,,,,,,,,,,,,,,,,,,3,1.3712,0,18,18,18,1,curtailment,expenditure,abandonment,abridgment,improvement,forgery,3,,,,,,,,,,,,,,,,,,,,,,,,,,,,,,,,,,,,,,
,,,,,,,,,,,,,,,89418,001,2022-04-25_14h37.13.274,SPAMnetsValid,2021.1.4,Win32,60.04924038,,,,,,,,,,,,,,,,,,,,,,,,,,,,,,,,,,,,,,3,2.0557,0,19,19,19,1,perversity,adversity,perviousness,travesty,waywardness,gentility,4,,,,,,,,,,,,,,,,,,,,,,,,,,,,,,,,,,,,,,
,,,,,,,,,,,,,,,89418,001,2022-04-25_14h37.13.274,SPAMnetsValid,2021.1.4,Win32,60.04924038,,,,,,,,,,,,,,,,,,,,,,,,,,,,,,,,,,,,,,3,1.1432,0,20,20,20,1,calumnious,complimentary,analogous,slanderous,tempestuous,magnanimous,3,,,,,,,,,,,,,,,,,,,,,,,,,,,,,,,,,,,,,,
,,,,,,,,,,,,,,,89418,001,2022-04-25_14h37.13.274,SPAMnetsValid,2021.1.4,Win32,60.04924038,,,,,,,,,,,,,,,,,,,,,,,,,,,,,,,,,,,,,,3,1.1764,0,21,21,21,1,illiberality,bigotry,imbecility,illegibility,cautery,immaturity,1,,,,,,,,,,,,,,,,,,,,,,,,,,,,,,,,,,,,,,
,,,,,,,,,,,,,,,89418,001,2022-04-25_14h37.13.274,SPAMnetsValid,2021.1.4,Win32,60.04924038,,,,,,,,,,,,,,,,,,,,,,,,,,,,,,,,,,,,,,3,1.3059,0,22,22,22,1,clabber,rejoice,gossip,curdle,crow,hobble,3,,,,,,,,,,,,,,,,,,,,,,,,,,,,,,,,,,,,,,
,,,,,,,,,,,,,,,89418,001,2022-04-25_14h37.13.274,SPAMnetsValid,2021.1.4,Win32,60.04924038,,,,,,,,,,,,,,,,,,,,,,,,,,,,,,,,,,,,,,3,1.305,0,23,23,23,1,sedulousness,diligence,credulousness,seduction,perilousness,frankness,1,,,,,,,,,,,,,,,,,,,,,,,,,,,,,,,,,,,,,,
,,,,,,,,,,,,,,,89418,001,2022-04-25_14h37.13.274,SPAMnetsValid,2021.1.4,Win32,60.04924038,,,,,,,,,,,,,,,,,,,,,,,,,,,,,,,,,,,,,,,,,,,,,,,,,,,,takiya,pillow,0,0,0,0,1,,,,,,,,,,,,,,,,,,,,,,,,,,,,,,,
,,,,,,,,,,,,,,,89418,001,2022-04-25_14h37.13.274,SPAMnetsValid,2021.1.4,Win32,60.04924038,,,,,,,,,,,,,,,,,,,,,,,,,,,,,,,,,,,,,,,,,,,,,,,,,,,,sleeping mattress,pillow,1,0,1,0,1,,,,,,,,,,,,,,,,,,,,,,,,,,,,,,,
,,,,,,,,,,,,,,,89418,001,2022-04-25_14h37.13.274,SPAMnetsValid,2021.1.4,Win32,60.04924038,,,,,,,,,,,,,,,,,,,,,,,,,,,,,,,,,,,,,,,,,,,,,,,,,,,,pillow talk,pillow,2,0,2,0,1,,,,,,,,,,,,,,,,,,,,,,,,,,,,,,,
,,,,,,,,,,,,,,,89418,001,2022-04-25_14h37.13.274,SPAMnetsValid,2021.1.4,Win32,60.04924038,,,,,,,,,,,,,,,,,,,,,,,,,,,,,,,,,,,,,,,,,,,,,,,,,,,,pillo under my bed,pillow,3,0,3,0,1,,,,,,,,,,,,,,,,,,,,,,,,,,,,,,,
,,,,,,,,,,,,,,,89418,001,2022-04-25_14h37.13.274,SPAMnetsValid,2021.1.4,Win32,60.04924038,,,,,,,,,,,,,,,,,,,,,,,,,,,,,,,,,,,,,,,,,,,,,,,,,,,,pillow millow,pillow,4,0,4,0,1,,,,,,,,,,,,,,,,,,,,,,,,,,,,,,,
,,,,,,,,,,,,,,,89418,001,2022-04-25_14h37.13.274,SPAMnetsValid,2021.1.4,Win32,60.04924038,,,,,,,,,,,,,,,,,,,,,,,,,,,,,,,,,,,,,,,,,,,,,,,,,,,,pillow down,pillow,5,0,5,0,1,,,,,,,,,,,,,,,,,,,,,,,,,,,,,,,
,,,,,,,,,,,,,,,89418,001,2022-04-25_14h37.13.274,SPAMnetsValid,2021.1.4,Win32,60.04924038,,,,,,,,,,,,,,,,,,,,,,,,,,,,,,,,,,,,,,,,,,,,,,,,,,,,point underr piloow,pillow,6,0,6,0,1,,,,,,,,,,,,,,,,,,,,,,,,,,,,,,,
,,,,,,,,,,,,,,,89418,001,2022-04-25_14h37.13.274,SPAMnetsValid,2021.1.4,Win32,60.04924038,,,,,,,,,,,,,,,,,,,,,,,,,,,,,,,,,,,,,,,,,,,,,,,,,,,,sleep with pillow,pillow,7,0,7,0,1,,,,,,,,,,,,,,,,,,,,,,,,,,,,,,,
,,,,,,,,,,,,,,,89418,001,2022-04-25_14h37.13.274,SPAMnetsValid,2021.1.4,Win32,60.04924038,,,,,,,,,,,,,,,,,,,,,,,,,,,,,,,,,,,,,,,,,,,,,,,,,,,,pillows,pillow,8,0,8,0,1,,,,,,,,,,,,,,,,,,,,,,,,,,,,,,,
,,,,,,,,,,,,,,,89418,001,2022-04-25_14h37.13.274,SPAMnetsValid,2021.1.4,Win32,60.04924038,,,,,,,,,,,,,,,,,,,,,,,,,,,,,,,,,,,,,,,,,,,,,,,,,,,,pillow bois,pillow,9,0,9,0,1,,,,,,,,,,,,,,,,,,,,,,,,,,,,,,,
,,,,,,,,,,,,,,,89418,001,2022-04-25_14h37.13.274,SPAMnetsValid,2021.1.4,Win32,60.04924038,,,,,,,,,,,,,,,,,,,,,,,,,,,,,,,,,,,,,,,,,,,,,,,,,,,,pillow fight,pillow,10,0,10,0,1,,,,,,,,,,,,,,,,,,,,,,,,,,,,,,,
,,,,,,,,,,,,,,,89418,001,2022-04-25_14h37.13.274,SPAMnetsValid,2021.1.4,Win32,60.04924038,,,,,,,,,,,,,,,,,,,,,,,,,,,,,,,,,,,,,,,,,,,,,,,,,,,,,,,,,,,0,0,0,2,1,pillow,,,,,,,,,,,,,,,,,,,,,,,,,
,,,,,,,,,,,,,,,89418,001,2022-04-25_14h37.13.274,SPAMnetsValid,2021.1.4,Win32,60.04924038,,,,,,,,,,,,,,,,,,,,,,,,,,,,,,,,,,,,,,,,,,,,,,,,,,,,candle jenner,candle,0,0,0,0,1,,,,,,,,,,,,,,,,,,,,,,,,,,,,,,,
,,,,,,,,,,,,,,,89418,001,2022-04-25_14h37.13.274,SPAMnetsValid,2021.1.4,Win32,60.04924038,,,,,,,,,,,,,,,,,,,,,,,,,,,,,,,,,,,,,,,,,,,,,,,,,,,,candle in dim light,candle,1,0,1,0,1,,,,,,,,,,,,,,,,,,,,,,,,,,,,,,,
,,,,,,,,,,,,,,,89418,001,2022-04-25_14h37.13.274,SPAMnetsValid,2021.1.4,Win32,60.04924038,,,,,,,,,,,,,,,,,,,,,,,,,,,,,,,,,,,,,,,,,,,,,,,,,,,,no use of candle,candle,2,0,2,0,1,,,,,,,,,,,,,,,,,,,,,,,,,,,,,,,
,,,,,,,,,,,,,,,89418,001,2022-04-25_14h37.13.274,SPAMnetsValid,2021.1.4,Win32,60.04924038,,,,,,,,,,,,,,,,,,,,,,,,,,,,,,,,,,,,,,,,,,,,,,,,,,,,light the candle,candle,3,0,3,0,1,,,,,,,,,,,,,,,,,,,,,,,,,,,,,,,
,,,,,,,,,,,,,,,89418,001,2022-04-25_14h37.13.274,SPAMnetsValid,2021.1.4,Win32,60.04924038,,,,,,,,,,,,,,,,,,,,,,,,,,,,,,,,,,,,,,,,,,,,,,,,,,,,candles,candle,4,0,4,0,1,,,,,,,,,,,,,,,,,,,,,,,,,,,,,,,
,,,,,,,,,,,,,,,89418,001,2022-04-25_14h37.13.274,SPAMnetsValid,2021.1.4,Win32,60.04924038,,,,,,,,,,,,,,,,,,,,,,,,,,,,,,,,,,,,,,,,,,,,,,,,,,,,candle light dinner,candle,5,0,5,0,1,,,,,,,,,,,,,,,,,,,,,,,,,,,,,,,
,,,,,,,,,,,,,,,89418,001,2022-04-25_14h37.13.274,SPAMnetsValid,2021.1.4,Win32,60.04924038,,,,,,,,,,,,,,,,,,,,,,,,,,,,,,,,,,,,,,,,,,,,,,,,,,,,,,,,,,,0,1,1,1,1,candle,,,,,,,,,,,,,,,,,,,,,,,,,
,,,,,,,,,,,,,,,89418,001,2022-04-25_14h37.13.274,SPAMnetsValid,2021.1.4,Win32,60.04924038,,,,,,,,,,,,,,,,,,,,,,,,,,,,,,,,,,,,,,,,,,,,,,,,,,,,water bucket,bucket,0,0,0,0,1,,,,,,,,,,,,,,,,,,,,,,,,,,,,,,,
,,,,,,,,,,,,,,,89418,001,2022-04-25_14h37.13.274,SPAMnetsValid,2021.1.4,Win32,60.04924038,,,,,,,,,,,,,,,,,,,,,,,,,,,,,,,,,,,,,,,,,,,,,,,,,,,,bucket water,bucket,1,0,1,0,1,,,,,,,,,,,,,,,,,,,,,,,,,,,,,,,
,,,,,,,,,,,,,,,89418,001,2022-04-25_14h37.13.274,SPAMnetsValid,2021.1.4,Win32,60.04924038,,,,,,,,,,,,,,,,,,,,,,,,,,,,,,,,,,,,,,,,,,,,,,,,,,,,walk with bucket,bucket,2,0,2,0,1,,,,,,,,,,,,,,,,,,,,,,,,,,,,,,,
,,,,,,,,,,,,,,,89418,001,2022-04-25_14h37.13.274,SPAMnetsValid,2021.1.4,Win32,60.04924038,,,,,,,,,,,,,,,,,,,,,,,,,,,,,,,,,,,,,,,,,,,,,,,,,,,,talk with bucket,bucket,3,0,3,0,1,,,,,,,,,,,,,,,,,,,,,,,,,,,,,,,
,,,,,,,,,,,,,,,89418,001,2022-04-25_14h37.13.274,SPAMnetsValid,2021.1.4,Win32,60.04924038,,,,,,,,,,,,,,,,,,,,,,,,,,,,,,,,,,,,,,,,,,,,,,,,,,,,bath with bucket,bucket,4,0,4,0,1,,,,,,,,,,,,,,,,,,,,,,,,,,,,,,,
,,,,,,,,,,,,,,,89418,001,2022-04-25_14h37.13.274,SPAMnetsValid,2021.1.4,Win32,60.04924038,,,,,,,,,,,,,,,,,,,,,,,,,,,,,,,,,,,,,,,,,,,,,,,,,,,,eat from bucket,bucket,5,0,5,0,1,,,,,,,,,,,,,,,,,,,,,,,,,,,,,,,
,,,,,,,,,,,,,,,89418,001,2022-04-25_14h37.13.274,SPAMnetsValid,2021.1.4,Win32,60.04924038,,,,,,,,,,,,,,,,,,,,,,,,,,,,,,,,,,,,,,,,,,,,,,,,,,,,buckets,bucket,6,0,6,0,1,,,,,,,,,,,,,,,,,,,,,,,,,,,,,,,
,,,,,,,,,,,,,,,89418,001,2022-04-25_14h37.13.274,SPAMnetsValid,2021.1.4,Win32,60.04924038,,,,,,,,,,,,,,,,,,,,,,,,,,,,,,,,,,,,,,,,,,,,,,,,,,,,buckting,bucket,7,0,7,0,1,,,,,,,,,,,,,,,,,,,,,,,,,,,,,,,
,,,,,,,,,,,,,,,89418,001,2022-04-25_14h37.13.274,SPAMnetsValid,2021.1.4,Win32,60.04924038,,,,,,,,,,,,,,,,,,,,,,,,,,,,,,,,,,,,,,,,,,,,,,,,,,,,bucket in bathroom,bucket,8,0,8,0,1,,,,,,,,,,,,,,,,,,,,,,,,,,,,,,,
,,,,,,,,,,,,,,,89418,001,2022-04-25_14h37.13.274,SPAMnetsValid,2021.1.4,Win32,60.04924038,,,,,,,,,,,,,,,,,,,,,,,,,,,,,,,,,,,,,,,,,,,,,,,,,,,,bucket is used for cooking\,bucket,9,0,9,0,1,,,,,,,,,,,,,,,,,,,,,,,,,,,,,,,
,,,,,,,,,,,,,,,89418,001,2022-04-25_14h37.13.274,SPAMnetsValid,2021.1.4,Win32,60.04924038,,,,,,,,,,,,,,,,,,,,,,,,,,,,,,,,,,,,,,,,,,,,,,,,,,,,bucket list,bucket,10,0,10,0,1,,,,,,,,,,,,,,,,,,,,,,,,,,,,,,,
,,,,,,,,,,,,,,,89418,001,2022-04-25_14h37.13.274,SPAMnetsValid,2021.1.4,Win32,60.04924038,,,,,,,,,,,,,,,,,,,,,,,,,,,,,,,,,,,,,,,,,,,,,,,,,,,,,,,,,,,0,2,2,0,1,bucket,,,,,,,,,,,,,,,,,,,,,,,,,
,,,,,,,,,,,,,,,89418,001,2022-04-25_14h37.13.274,SPAMnetsValid,2021.1.4,Win32,60.04924038,,,,,,,,,,,,,,,,,,,,,,,,,,,,,,,,,,,,,,,,,,,,,,,,,,,,,,,,,,,,,,,,,animalania,Animals,0,0,0,0,1,,,,,,,,,,,,,,,,,,
,,,,,,,,,,,,,,,89418,001,2022-04-25_14h37.13.274,SPAMnetsValid,2021.1.4,Win32,60.04924038,,,,,,,,,,,,,,,,,,,,,,,,,,,,,,,,,,,,,,,,,,,,,,,,,,,,,,,,,,,,,,,,,janwar,Animals,1,0,1,0,1,,,,,,,,,,,,,,,,,,
,,,,,,,,,,,,,,,89418,001,2022-04-25_14h37.13.274,SPAMnetsValid,2021.1.4,Win32,60.04924038,,,,,,,,,,,,,,,,,,,,,,,,,,,,,,,,,,,,,,,,,,,,,,,,,,,,,,,,,,,,,,,,,janawar,Animals,2,0,2,0,1,,,,,,,,,,,,,,,,,,
,,,,,,,,,,,,,,,89418,001,2022-04-25_14h37.13.274,SPAMnetsValid,2021.1.4,Win32,60.04924038,,,,,,,,,,,,,,,,,,,,,,,,,,,,,,,,,,,,,,,,,,,,,,,,,,,,,,,,,,,,,,,,,animal in the town ,Animals,3,0,3,0,1,,,,,,,,,,,,,,,,,,
,,,,,,,,,,,,,,,89418,001,2022-04-25_14h37.13.274,SPAMnetsValid,2021.1.4,Win32,60.04924038,,,,,,,,,,,,,,,,,,,,,,,,,,,,,,,,,,,,,,,,,,,,,,,,,,,,,,,,,,,,,,,,,wild animals,Animals,4,0,4,0,1,,,,,,,,,,,,,,,,,,
,,,,,,,,,,,,,,,89418,001,2022-04-25_14h37.13.274,SPAMnetsValid,2021.1.4,Win32,60.04924038,,,,,,,,,,,,,,,,,,,,,,,,,,,,,,,,,,,,,,,,,,,,,,,,,,,,,,,,,,,,,,,,,pet animals,Animals,5,0,5,0,1,,,,,,,,,,,,,,,,,,
,,,,,,,,,,,,,,,89418,001,2022-04-25_14h37.13.274,SPAMnetsValid,2021.1.4,Win32,60.04924038,,,,,,,,,,,,,,,,,,,,,,,,,,,,,,,,,,,,,,,,,,,,,,,,,,,,,,,,,,,,,,,,,domestic animals,Animals,6,0,6,0,1,,,,,,,,,,,,,,,,,,
,,,,,,,,,,,,,,,89418,001,2022-04-25_14h37.13.274,SPAMnetsValid,2021.1.4,Win32,60.04924038,,,,,,,,,,,,,,,,,,,,,,,,,,,,,,,,,,,,,,,,,,,,,,,,,,,,,,,,,,,,,,,,,non domestic animals,Animals,7,0,7,0,1,,,,,,,,,,,,,,,,,,
,,,,,,,,,,,,,,,89418,001,2022-04-25_14h37.13.274,SPAMnetsValid,2021.1.4,Win32,60.04924038,,,,,,,,,,,,,,,,,,,,,,,,,,,,,,,,,,,,,,,,,,,,,,,,,,,,,,,,,,,,,,,,,indian animals,Animals,8,0,8,0,1,,,,,,,,,,,,,,,,,,
,,,,,,,,,,,,,,,89418,001,2022-04-25_14h37.13.274,SPAMnetsValid,2021.1.4,Win32,60.04924038,,,,,,,,,,,,,,,,,,,,,,,,,,,,,,,,,,,,,,,,,,,,,,,,,,,,,,,,,,,,,,,,,american animals,Animals,9,0,9,0,1,,,,,,,,,,,,,,,,,,
,,,,,,,,,,,,,,,89418,001,2022-04-25_14h37.13.274,SPAMnetsValid,2021.1.4,Win32,60.04924038,,,,,,,,,,,,,,,,,,,,,,,,,,,,,,,,,,,,,,,,,,,,,,,,,,,,,,,,,,,,,,,,,japanese animals,Animals,10,0,10,0,1,,,,,,,,,,,,,,,,,,
,,,,,,,,,,,,,,,89418,001,2022-04-25_14h37.13.274,SPAMnetsValid,2021.1.4,Win32,60.04924038,,,,,,,,,,,,,,,,,,,,,,,,,,,,,,,,,,,,,,,,,,,,,,,,,,,,,,,,,,,,,,,,,chinese animals,Animals,11,0,11,0,1,,,,,,,,,,,,,,,,,,
,,,,,,,,,,,,,,,89418,001,2022-04-25_14h37.13.274,SPAMnetsValid,2021.1.4,Win32,60.04924038,,,,,,,,,,,,,,,,,,,,,,,,,,,,,,,,,,,,,,,,,,,,,,,,,,,,,,,,,,,,,,,,,korean animals,Animals,12,0,12,0,1,,,,,,,,,,,,,,,,,,
,,,,,,,,,,,,,,,89418,001,2022-04-25_14h37.13.274,SPAMnetsValid,2021.1.4,Win32,60.04924038,,,,,,,,,,,,,,,,,,,,,,,,,,,,,,,,,,,,,,,,,,,,,,,,,,,,,,,,,,,,,,,,,pakistani animals,Animals,13,0,13,0,1,,,,,,,,,,,,,,,,,,
,,,,,,,,,,,,,,,89418,001,2022-04-25_14h37.13.274,SPAMnetsValid,2021.1.4,Win32,60.04924038,,,,,,,,,,,,,,,,,,,,,,,,,,,,,,,,,,,,,,,,,,,,,,,,,,,,,,,,,,,,,,,,,bangladesi animals,Animals,14,0,14,0,1,,,,,,,,,,,,,,,,,,
,,,,,,,,,,,,,,,89418,001,2022-04-25_14h37.13.274,SPAMnetsValid,2021.1.4,Win32,60.04924038,,,,,,,,,,,,,,,,,,,,,,,,,,,,,,,,,,,,,,,,,,,,,,,,,,,,,,,,,,,,,,,,,european animals,Animals,15,0,15,0,1,,,,,,,,,,,,,,,,,,
,,,,,,,,,,,,,,,89418,001,2022-04-25_14h37.13.274,SPAMnetsValid,2021.1.4,Win32,60.04924038,,,,,,,,,,,,,,,,,,,,,,,,,,,,,,,,,,,,,,,,,,,,,,,,,,,,,,,,,,,,,,,,,romanian animals,Animals,16,0,16,0,1,,,,,,,,,,,,,,,,,,
,,,,,,,,,,,,,,,89418,001,2022-04-25_14h37.13.274,SPAMnetsValid,2021.1.4,Win32,60.04924038,,,,,,,,,,,,,,,,,,,,,,,,,,,,,,,,,,,,,,,,,,,,,,,,,,,,,,,,,,,,,,,,,,,,,,,,0,0,0,0,1,Animals,,,,,,,,,,,,
,,,,,,,,,,,,,,,89418,001,2022-04-25_14h37.13.274,SPAMnetsValid,2021.1.4,Win32,60.04924038,,,,,,,,,,,,,,,,,,,,,,,,,,,,,,,,,,,,,,,,,,,,,,,,,,,,,,,,,,,,,,,,,,,,,,,,,,,,,,2,5.5784,0,0,0,0,1,"I enjoy concentrating on a fantasy or daydream and exploring all its possibilities, letting it grow and develop.",0,1,,
,,,,,,,,,,,,,,,89418,001,2022-04-25_14h37.13.274,SPAMnetsValid,2021.1.4,Win32,60.04924038,,,,,,,,,,,,,,,,,,,,,,,,,,,,,,,,,,,,,,,,,,,,,,,,,,,,,,,,,,,,,,,,,,,,,,,,,,,,,,2,2.2419,0,1,1,1,1,I think it's interesting to learn and develop new hobbies.,0,2,,
,,,,,,,,,,,,,,,89418,001,2022-04-25_14h37.13.274,SPAMnetsValid,2021.1.4,Win32,60.04924038,,,,,,,,,,,,,,,,,,,,,,,,,,,,,,,,,,,,,,,,,,,,,,,,,,,,,,,,,,,,,,,,,,,,,,,,,,,,,,3,1.6818,0,2,2,2,1,I am intrigued by the patterns I find in art and nature.,0,3,,
,,,,,,,,,,,,,,,89418,001,2022-04-25_14h37.13.274,SPAMnetsValid,2021.1.4,Win32,60.04924038,,,,,,,,,,,,,,,,,,,,,,,,,,,,,,,,,,,,,,,,,,,,,,,,,,,,,,,,,,,,,,,,,,,,,,,,,,,,,,3,2.071,0,3,3,3,1,I believe letting students hear controversial speakers can only confuse and mislead them.,1,4,,
,,,,,,,,,,,,,,,89418,001,2022-04-25_14h37.13.274,SPAMnetsValid,2021.1.4,Win32,60.04924038,,,,,,,,,,,,,,,,,,,,,,,,,,,,,,,,,,,,,,,,,,,,,,,,,,,,,,,,,,,,,,,,,,,,,,,,,,,,,,4,1.2239,0,4,4,4,1,Poetry has little or no effect on me.,1,5,,
,,,,,,,,,,,,,,,89418,001,2022-04-25_14h37.13.274,SPAMnetsValid,2021.1.4,Win32,60.04924038,,,,,,,,,,,,,,,,,,,,,,,,,,,,,,,,,,,,,,,,,,,,,,,,,,,,,,,,,,,,,,,,,,,,,,,,,,,,,,4,3.2125,0,5,5,5,1,I would have difficulty just letting my mind wander without control or guidance.,1,6,,
,,,,,,,,,,,,,,,89418,001,2022-04-25_14h37.13.274,SPAMnetsValid,2021.1.4,Win32,60.04924038,,,,,,,,,,,,,,,,,,,,,,,,,,,,,,,,,,,,,,,,,,,,,,,,,,,,,,,,,,,,,,,,,,,,,,,,,,,,,,4,1.7767,0,6,6,6,1,I seldom notice the moods or feelings that different environments produce.,1,7,,
,,,,,,,,,,,,,,,89418,001,2022-04-25_14h37.13.274,SPAMnetsValid,2021.1.4,Win32,60.04924038,,,,,,,,,,,,,,,,,,,,,,,,,,,,,,,,,,,,,,,,,,,,,,,,,,,,,,,,,,,,,,,,,,,,,,,,,,,,,,4,1.1275,0,7,7,7,1,I experience a wide range of emotions or feelings.,0,8,,
,,,,,,,,,,,,,,,89418,001,2022-04-25_14h37.13.274,SPAMnetsValid,2021.1.4,Win32,60.04924038,,,,,,,,,,,,,,,,,,,,,,,,,,,,,,,,,,,,,,,,,,,,,,,,,,,,,,,,,,,,,,,,,,,,,,,,,,,,,,2,4.1611,0,8,8,8,1,"Sometimes when I am reading poetry or looking at a work of art, I feel a chill or wave of excitement.",0,9,,
,,,,,,,,,,,,,,,89418,001,2022-04-25_14h37.13.274,SPAMnetsValid,2021.1.4,Win32,60.04924038,,,,,,,,,,,,,,,,,,,,,,,,,,,,,,,,,,,,,,,,,,,,,,,,,,,,,,,,,,,,,,,,,,,,,,,,,,,,,,2,1.3408,0,9,9,9,1,I have little interest in speculating on the nature of the universe or the human condition.,1,10,,
,,,,,,,,,,,,,,,89418,001,2022-04-25_14h37.13.274,SPAMnetsValid,2021.1.4,Win32,60.04924038,,,,,,,,,,,,,,,,,,,,,,,,,,,,,,,,,,,,,,,,,,,,,,,,,,,,,,,,,,,,,,,,,,,,,,,,,,,,,,4,2.5926,0,10,10,10,1,I have a lot of intellectual curiosity.,0,11,,
,,,,,,,,,,,,,,,89418,001,2022-04-25_14h37.13.274,SPAMnetsValid,2021.1.4,Win32,60.04924038,,,,,,,,,,,,,,,,,,,,,,,,,,,,,,,,,,,,,,,,,,,,,,,,,,,,,,,,,,,,,,,,,,,,,,,,,,,,,,4,1.9237,0,11,11,11,1,I often enjoy playing with theories or abstract ideas.,0,12,,
,,,,,,,,,,,,,,,89418,001,2022-04-25_14h37.13.274,SPAMnetsValid,2021.1.4,Win32,60.04924038,,,,,,,,,,,,,,,,,,,,,,,,,,,,,,,,,,,,,,,,,,,,,,,,,,,,,,,,,,,,,,,,,,,,,,,,,,,,,,,,,,,,,,,,return,3.3189
