key_resp_3.keys,key_resp_3.rt,slider_2.response,slider_2.rt,rjt_rating,rjt_RT,trials_24.thisRepN,trials_24.thisTrialN,trials_24.thisN,trials_24.thisIndex,trials_24.ran,rjt_order,word1,word2,attention,participant,session,date,expName,psychopyVersion,OS,frameRate,trials_4.thisRepN,trials_4.thisTrialN,trials_4.thisN,trials_4.thisIndex,trials_4.ran,trials_5.thisRepN,trials_5.thisTrialN,trials_5.thisN,trials_5.thisIndex,trials_5.ran,repOne,repTwo,slider.response,slider.rt,trials_22.thisRepN,trials_22.thisTrialN,trials_22.thisN,trials_22.thisIndex,trials_22.ran,trials_99.thisRepN,trials_99.thisTrialN,trials_99.thisN,trials_99.thisIndex,trials_99.ran,slider_extend_2.response,slider_extend_2.rt,trials_6.thisRepN,trials_6.thisTrialN,trials_6.thisN,trials_6.thisIndex,trials_6.ran,vCue2,R1,R2,R3,R4,correct,sliderVocab.response,sliderVocab.rt,trials_7.thisRepN,trials_7.thisTrialN,trials_7.thisN,trials_7.thisIndex,trials_7.ran,VocabCue,VR1,VR2,VR3,VR4,VR5,VocabCorrect,AUT_resp,AUT_label,trials.thisRepN,trials.thisTrialN,trials.thisN,trials.thisIndex,trials.ran,trials_2.thisRepN,trials_2.thisTrialN,trials_2.thisN,trials_2.thisIndex,trials_2.ran,aut_prompt,VF_response,VF_tag,trials_16.thisRepN,trials_16.thisTrialN,trials_16.thisN,trials_16.thisIndex,trials_16.ran,trials_17.thisRepN,trials_17.thisTrialN,trials_17.thisN,trials_17.thisIndex,trials_17.ran,VFcond,open_slider.response,open_slider.rt,trials_3.thisRepN,trials_3.thisTrialN,trials_3.thisN,trials_3.thisIndex,trials_3.ran,OpenQ,Rev,OPEN_ORDER,key_resp_2.keys,key_resp_2.rt
return,4.1259,4,3.8197,4,3.8197,0,0,0,5,1,108,carrot,chocolate,,89419,001,2022-04-28_19h59.36.879,SPAMnetsValid,2021.1.4,Win32,59.9880024,,,,,,,,,,,,,,,,,,,,,,,,,,,,,,,,,,,,,,,,,,,,,,,,,,,,,,,,,,,,,,,,,,,,,,,,,,,,,,,,,,,,,,,,,
,,7,1.6517,7,1.6517,0,1,1,28,1,154,strawberry,yogurt,,89419,001,2022-04-28_19h59.36.879,SPAMnetsValid,2021.1.4,Win32,59.9880024,,,,,,,,,,,,,,,,,,,,,,,,,,,,,,,,,,,,,,,,,,,,,,,,,,,,,,,,,,,,,,,,,,,,,,,,,,,,,,,,,,,,,,,,,
,,7,2.3287,7,2.3287,0,2,2,83,1,100,garden,tomato,,89419,001,2022-04-28_19h59.36.879,SPAMnetsValid,2021.1.4,Win32,59.9880024,,,,,,,,,,,,,,,,,,,,,,,,,,,,,,,,,,,,,,,,,,,,,,,,,,,,,,,,,,,,,,,,,,,,,,,,,,,,,,,,,,,,,,,,,
,,8,1.5098,8,1.5098,0,3,3,52,1,110,chocolate,cookie,,89419,001,2022-04-28_19h59.36.879,SPAMnetsValid,2021.1.4,Win32,59.9880024,,,,,,,,,,,,,,,,,,,,,,,,,,,,,,,,,,,,,,,,,,,,,,,,,,,,,,,,,,,,,,,,,,,,,,,,,,,,,,,,,,,,,,,,,
,,4,5.0599,4,5.0599,0,4,4,91,1,166,cake,yogurt,,89419,001,2022-04-28_19h59.36.879,SPAMnetsValid,2021.1.4,Win32,59.9880024,,,,,,,,,,,,,,,,,,,,,,,,,,,,,,,,,,,,,,,,,,,,,,,,,,,,,,,,,,,,,,,,,,,,,,,,,,,,,,,,,,,,,,,,,
,,6,5.8977,6,5.8977,0,5,5,17,1,99,garden,melon,,89419,001,2022-04-28_19h59.36.879,SPAMnetsValid,2021.1.4,Win32,59.9880024,,,,,,,,,,,,,,,,,,,,,,,,,,,,,,,,,,,,,,,,,,,,,,,,,,,,,,,,,,,,,,,,,,,,,,,,,,,,,,,,,,,,,,,,,
,,2,2.5786,2,2.5786,0,6,6,76,1,102,chocolate,refrigerator,,89419,001,2022-04-28_19h59.36.879,SPAMnetsValid,2021.1.4,Win32,59.9880024,,,,,,,,,,,,,,,,,,,,,,,,,,,,,,,,,,,,,,,,,,,,,,,,,,,,,,,,,,,,,,,,,,,,,,,,,,,,,,,,,,,,,,,,,
,,6,1.7117,6,1.7117,0,7,7,66,1,150,microwave,refrigerator,,89419,001,2022-04-28_19h59.36.879,SPAMnetsValid,2021.1.4,Win32,59.9880024,,,,,,,,,,,,,,,,,,,,,,,,,,,,,,,,,,,,,,,,,,,,,,,,,,,,,,,,,,,,,,,,,,,,,,,,,,,,,,,,,,,,,,,,,
,,5,1.926,5,1.926,0,8,8,43,1,185,cactus,rose,,89419,001,2022-04-28_19h59.36.879,SPAMnetsValid,2021.1.4,Win32,59.9880024,,,,,,,,,,,,,,,,,,,,,,,,,,,,,,,,,,,,,,,,,,,,,,,,,,,,,,,,,,,,,,,,,,,,,,,,,,,,,,,,,,,,,,,,,
,,3,10.145,3,10.145,0,9,9,26,1,107,rose,tomato,,89419,001,2022-04-28_19h59.36.879,SPAMnetsValid,2021.1.4,Win32,59.9880024,,,,,,,,,,,,,,,,,,,,,,,,,,,,,,,,,,,,,,,,,,,,,,,,,,,,,,,,,,,,,,,,,,,,,,,,,,,,,,,,,,,,,,,,,
,,2,8.0594,2,8.0594,0,10,10,13,1,105,cactus,oven,,89419,001,2022-04-28_19h59.36.879,SPAMnetsValid,2021.1.4,Win32,59.9880024,,,,,,,,,,,,,,,,,,,,,,,,,,,,,,,,,,,,,,,,,,,,,,,,,,,,,,,,,,,,,,,,,,,,,,,,,,,,,,,,,,,,,,,,,
,,2,1.6604,2,1.6604,0,11,11,10,1,118,chocolate,oven,,89419,001,2022-04-28_19h59.36.879,SPAMnetsValid,2021.1.4,Win32,59.9880024,,,,,,,,,,,,,,,,,,,,,,,,,,,,,,,,,,,,,,,,,,,,,,,,,,,,,,,,,,,,,,,,,,,,,,,,,,,,,,,,,,,,,,,,,
,,4,2.8212,4,2.8212,0,12,12,27,1,158,cookie,oven,,89419,001,2022-04-28_19h59.36.879,SPAMnetsValid,2021.1.4,Win32,59.9880024,,,,,,,,,,,,,,,,,,,,,,,,,,,,,,,,,,,,,,,,,,,,,,,,,,,,,,,,,,,,,,,,,,,,,,,,,,,,,,,,,,,,,,,,,
,,7,7.5261,7,7.5261,0,13,13,22,1,142,garden,tree,,89419,001,2022-04-28_19h59.36.879,SPAMnetsValid,2021.1.4,Win32,59.9880024,,,,,,,,,,,,,,,,,,,,,,,,,,,,,,,,,,,,,,,,,,,,,,,,,,,,,,,,,,,,,,,,,,,,,,,,,,,,,,,,,,,,,,,,,
,,2,3.2553,2,3.2553,0,14,14,94,1,133,cake,flower,,89419,001,2022-04-28_19h59.36.879,SPAMnetsValid,2021.1.4,Win32,59.9880024,,,,,,,,,,,,,,,,,,,,,,,,,,,,,,,,,,,,,,,,,,,,,,,,,,,,,,,,,,,,,,,,,,,,,,,,,,,,,,,,,,,,,,,,,
,,3,1.9873,3,1.9873,0,15,15,45,1,179,broom,oven,,89419,001,2022-04-28_19h59.36.879,SPAMnetsValid,2021.1.4,Win32,59.9880024,,,,,,,,,,,,,,,,,,,,,,,,,,,,,,,,,,,,,,,,,,,,,,,,,,,,,,,,,,,,,,,,,,,,,,,,,,,,,,,,,,,,,,,,,
,,8,2.6589,8,2.6589,0,16,16,0,1,106,cake,strawberry,,89419,001,2022-04-28_19h59.36.879,SPAMnetsValid,2021.1.4,Win32,59.9880024,,,,,,,,,,,,,,,,,,,,,,,,,,,,,,,,,,,,,,,,,,,,,,,,,,,,,,,,,,,,,,,,,,,,,,,,,,,,,,,,,,,,,,,,,
,,3,5.1494,3,5.1494,0,17,17,16,1,111,carrot,microwave,,89419,001,2022-04-28_19h59.36.879,SPAMnetsValid,2021.1.4,Win32,59.9880024,,,,,,,,,,,,,,,,,,,,,,,,,,,,,,,,,,,,,,,,,,,,,,,,,,,,,,,,,,,,,,,,,,,,,,,,,,,,,,,,,,,,,,,,,
,,3,5.1575,3,5.1575,0,18,18,36,1,161,kitchen,pretzel,,89419,001,2022-04-28_19h59.36.879,SPAMnetsValid,2021.1.4,Win32,59.9880024,,,,,,,,,,,,,,,,,,,,,,,,,,,,,,,,,,,,,,,,,,,,,,,,,,,,,,,,,,,,,,,,,,,,,,,,,,,,,,,,,,,,,,,,,
,,3,3.7994,3,3.7994,0,19,19,72,1,181,carrot,kitchen,,89419,001,2022-04-28_19h59.36.879,SPAMnetsValid,2021.1.4,Win32,59.9880024,,,,,,,,,,,,,,,,,,,,,,,,,,,,,,,,,,,,,,,,,,,,,,,,,,,,,,,,,,,,,,,,,,,,,,,,,,,,,,,,,,,,,,,,,
,,4,3.57,4,3.57,0,20,20,93,1,134,carrot,flower,,89419,001,2022-04-28_19h59.36.879,SPAMnetsValid,2021.1.4,Win32,59.9880024,,,,,,,,,,,,,,,,,,,,,,,,,,,,,,,,,,,,,,,,,,,,,,,,,,,,,,,,,,,,,,,,,,,,,,,,,,,,,,,,,,,,,,,,,
,,5,3.1703,5,3.1703,0,21,21,8,1,97,chocolate,kitchen,,89419,001,2022-04-28_19h59.36.879,SPAMnetsValid,2021.1.4,Win32,59.9880024,,,,,,,,,,,,,,,,,,,,,,,,,,,,,,,,,,,,,,,,,,,,,,,,,,,,,,,,,,,,,,,,,,,,,,,,,,,,,,,,,,,,,,,,,
,,2,3.5155,2,3.5155,0,22,22,71,1,187,cactus,microwave,,89419,001,2022-04-28_19h59.36.879,SPAMnetsValid,2021.1.4,Win32,59.9880024,,,,,,,,,,,,,,,,,,,,,,,,,,,,,,,,,,,,,,,,,,,,,,,,,,,,,,,,,,,,,,,,,,,,,,,,,,,,,,,,,,,,,,,,,
,,2,1.8718,2,1.8718,0,23,23,80,1,146,pretzel,tree,,89419,001,2022-04-28_19h59.36.879,SPAMnetsValid,2021.1.4,Win32,59.9880024,,,,,,,,,,,,,,,,,,,,,,,,,,,,,,,,,,,,,,,,,,,,,,,,,,,,,,,,,,,,,,,,,,,,,,,,,,,,,,,,,,,,,,,,,
,,2,2.272,2,2.272,0,24,24,32,1,182,flower,refrigerator,,89419,001,2022-04-28_19h59.36.879,SPAMnetsValid,2021.1.4,Win32,59.9880024,,,,,,,,,,,,,,,,,,,,,,,,,,,,,,,,,,,,,,,,,,,,,,,,,,,,,,,,,,,,,,,,,,,,,,,,,,,,,,,,,,,,,,,,,
,,6,4.3728,6,4.3728,0,25,25,1,1,173,kitchen,tomato,,89419,001,2022-04-28_19h59.36.879,SPAMnetsValid,2021.1.4,Win32,59.9880024,,,,,,,,,,,,,,,,,,,,,,,,,,,,,,,,,,,,,,,,,,,,,,,,,,,,,,,,,,,,,,,,,,,,,,,,,,,,,,,,,,,,,,,,,
,,6,2.3738,6,2.3738,0,26,26,53,1,177,chocolate,strawberry,,89419,001,2022-04-28_19h59.36.879,SPAMnetsValid,2021.1.4,Win32,59.9880024,,,,,,,,,,,,,,,,,,,,,,,,,,,,,,,,,,,,,,,,,,,,,,,,,,,,,,,,,,,,,,,,,,,,,,,,,,,,,,,,,,,,,,,,,
,,6,3.2333,6,3.2333,0,27,27,30,1,125,carrot,tree,,89419,001,2022-04-28_19h59.36.879,SPAMnetsValid,2021.1.4,Win32,59.9880024,,,,,,,,,,,,,,,,,,,,,,,,,,,,,,,,,,,,,,,,,,,,,,,,,,,,,,,,,,,,,,,,,,,,,,,,,,,,,,,,,,,,,,,,,
,,4,5.4538,4,5.4538,0,28,28,62,1,189,onion,tree,,89419,001,2022-04-28_19h59.36.879,SPAMnetsValid,2021.1.4,Win32,59.9880024,,,,,,,,,,,,,,,,,,,,,,,,,,,,,,,,,,,,,,,,,,,,,,,,,,,,,,,,,,,,,,,,,,,,,,,,,,,,,,,,,,,,,,,,,
,,4,7.8994,4,7.8994,0,29,29,70,1,141,melon,tomato,,89419,001,2022-04-28_19h59.36.879,SPAMnetsValid,2021.1.4,Win32,59.9880024,,,,,,,,,,,,,,,,,,,,,,,,,,,,,,,,,,,,,,,,,,,,,,,,,,,,,,,,,,,,,,,,,,,,,,,,,,,,,,,,,,,,,,,,,
,,3,1.9546,3,1.9546,0,30,30,4,1,109,broom,strawberry,,89419,001,2022-04-28_19h59.36.879,SPAMnetsValid,2021.1.4,Win32,59.9880024,,,,,,,,,,,,,,,,,,,,,,,,,,,,,,,,,,,,,,,,,,,,,,,,,,,,,,,,,,,,,,,,,,,,,,,,,,,,,,,,,,,,,,,,,
,,3,2.257,3,2.257,0,31,31,88,1,171,cake,tomato,,89419,001,2022-04-28_19h59.36.879,SPAMnetsValid,2021.1.4,Win32,59.9880024,,,,,,,,,,,,,,,,,,,,,,,,,,,,,,,,,,,,,,,,,,,,,,,,,,,,,,,,,,,,,,,,,,,,,,,,,,,,,,,,,,,,,,,,,
,,2,1.8051,2,1.8051,0,32,32,15,1,145,cactus,yogurt,,89419,001,2022-04-28_19h59.36.879,SPAMnetsValid,2021.1.4,Win32,59.9880024,,,,,,,,,,,,,,,,,,,,,,,,,,,,,,,,,,,,,,,,,,,,,,,,,,,,,,,,,,,,,,,,,,,,,,,,,,,,,,,,,,,,,,,,,
,,9,2.1167,9,2.1167,0,33,33,86,1,193,melon,melon,CHECK,89419,001,2022-04-28_19h59.36.879,SPAMnetsValid,2021.1.4,Win32,59.9880024,,,,,,,,,,,,,,,,,,,,,,,,,,,,,,,,,,,,,,,,,,,,,,,,,,,,,,,,,,,,,,,,,,,,,,,,,,,,,,,,,,,,,,,,,
,,3,3.1444,3,3.1444,0,34,34,12,1,162,microwave,tomato,,89419,001,2022-04-28_19h59.36.879,SPAMnetsValid,2021.1.4,Win32,59.9880024,,,,,,,,,,,,,,,,,,,,,,,,,,,,,,,,,,,,,,,,,,,,,,,,,,,,,,,,,,,,,,,,,,,,,,,,,,,,,,,,,,,,,,,,,
,,2,1.6368,2,1.6368,0,35,35,6,1,151,microwave,onion,,89419,001,2022-04-28_19h59.36.879,SPAMnetsValid,2021.1.4,Win32,59.9880024,,,,,,,,,,,,,,,,,,,,,,,,,,,,,,,,,,,,,,,,,,,,,,,,,,,,,,,,,,,,,,,,,,,,,,,,,,,,,,,,,,,,,,,,,
,,2,1.9452,2,1.9452,0,36,36,2,1,174,cake,pretzel,,89419,001,2022-04-28_19h59.36.879,SPAMnetsValid,2021.1.4,Win32,59.9880024,,,,,,,,,,,,,,,,,,,,,,,,,,,,,,,,,,,,,,,,,,,,,,,,,,,,,,,,,,,,,,,,,,,,,,,,,,,,,,,,,,,,,,,,,
,,2,2.9199,2,2.9199,0,37,37,82,1,98,pretzel,strawberry,,89419,001,2022-04-28_19h59.36.879,SPAMnetsValid,2021.1.4,Win32,59.9880024,,,,,,,,,,,,,,,,,,,,,,,,,,,,,,,,,,,,,,,,,,,,,,,,,,,,,,,,,,,,,,,,,,,,,,,,,,,,,,,,,,,,,,,,,
,,6,2.804,6,2.804,0,38,38,92,1,170,cookie,microwave,,89419,001,2022-04-28_19h59.36.879,SPAMnetsValid,2021.1.4,Win32,59.9880024,,,,,,,,,,,,,,,,,,,,,,,,,,,,,,,,,,,,,,,,,,,,,,,,,,,,,,,,,,,,,,,,,,,,,,,,,,,,,,,,,,,,,,,,,
,,7,2.1147,7,2.1147,0,39,39,69,1,124,oven,refrigerator,,89419,001,2022-04-28_19h59.36.879,SPAMnetsValid,2021.1.4,Win32,59.9880024,,,,,,,,,,,,,,,,,,,,,,,,,,,,,,,,,,,,,,,,,,,,,,,,,,,,,,,,,,,,,,,,,,,,,,,,,,,,,,,,,,,,,,,,,
,,2,3.0203,2,3.0203,0,40,40,90,1,190,microwave,strawberry,,89419,001,2022-04-28_19h59.36.879,SPAMnetsValid,2021.1.4,Win32,59.9880024,,,,,,,,,,,,,,,,,,,,,,,,,,,,,,,,,,,,,,,,,,,,,,,,,,,,,,,,,,,,,,,,,,,,,,,,,,,,,,,,,,,,,,,,,
,,4,9.9477,4,9.9477,0,41,41,19,1,183,cake,rose,,89419,001,2022-04-28_19h59.36.879,SPAMnetsValid,2021.1.4,Win32,59.9880024,,,,,,,,,,,,,,,,,,,,,,,,,,,,,,,,,,,,,,,,,,,,,,,,,,,,,,,,,,,,,,,,,,,,,,,,,,,,,,,,,,,,,,,,,
,,3,1.4747,3,1.4747,0,42,42,38,1,155,carrot,cookie,,89419,001,2022-04-28_19h59.36.879,SPAMnetsValid,2021.1.4,Win32,59.9880024,,,,,,,,,,,,,,,,,,,,,,,,,,,,,,,,,,,,,,,,,,,,,,,,,,,,,,,,,,,,,,,,,,,,,,,,,,,,,,,,,,,,,,,,,
,,4,6.0485,4,6.0485,0,43,43,89,1,140,cookie,refrigerator,,89419,001,2022-04-28_19h59.36.879,SPAMnetsValid,2021.1.4,Win32,59.9880024,,,,,,,,,,,,,,,,,,,,,,,,,,,,,,,,,,,,,,,,,,,,,,,,,,,,,,,,,,,,,,,,,,,,,,,,,,,,,,,,,,,,,,,,,
,,6,1.917,6,1.917,0,44,44,29,1,163,melon,refrigerator,,89419,001,2022-04-28_19h59.36.879,SPAMnetsValid,2021.1.4,Win32,59.9880024,,,,,,,,,,,,,,,,,,,,,,,,,,,,,,,,,,,,,,,,,,,,,,,,,,,,,,,,,,,,,,,,,,,,,,,,,,,,,,,,,,,,,,,,,
,,4,1.6055,4,1.6055,0,45,45,67,1,96,oven,strawberry,,89419,001,2022-04-28_19h59.36.879,SPAMnetsValid,2021.1.4,Win32,59.9880024,,,,,,,,,,,,,,,,,,,,,,,,,,,,,,,,,,,,,,,,,,,,,,,,,,,,,,,,,,,,,,,,,,,,,,,,,,,,,,,,,,,,,,,,,
,,2,1.9109,2,1.9109,0,46,46,46,1,123,cookie,tree,,89419,001,2022-04-28_19h59.36.879,SPAMnetsValid,2021.1.4,Win32,59.9880024,,,,,,,,,,,,,,,,,,,,,,,,,,,,,,,,,,,,,,,,,,,,,,,,,,,,,,,,,,,,,,,,,,,,,,,,,,,,,,,,,,,,,,,,,
,,8,1.9115,8,1.9115,0,47,47,39,1,112,cake,carrot,,89419,001,2022-04-28_19h59.36.879,SPAMnetsValid,2021.1.4,Win32,59.9880024,,,,,,,,,,,,,,,,,,,,,,,,,,,,,,,,,,,,,,,,,,,,,,,,,,,,,,,,,,,,,,,,,,,,,,,,,,,,,,,,,,,,,,,,,
,,6,2.7807,6,2.7807,0,48,48,48,1,186,kitchen,yogurt,,89419,001,2022-04-28_19h59.36.879,SPAMnetsValid,2021.1.4,Win32,59.9880024,,,,,,,,,,,,,,,,,,,,,,,,,,,,,,,,,,,,,,,,,,,,,,,,,,,,,,,,,,,,,,,,,,,,,,,,,,,,,,,,,,,,,,,,,
,,3,4.3374,3,4.3374,0,49,49,20,1,149,broom,tomato,,89419,001,2022-04-28_19h59.36.879,SPAMnetsValid,2021.1.4,Win32,59.9880024,,,,,,,,,,,,,,,,,,,,,,,,,,,,,,,,,,,,,,,,,,,,,,,,,,,,,,,,,,,,,,,,,,,,,,,,,,,,,,,,,,,,,,,,,
,,2,2.2034,2,2.2034,0,50,50,68,1,180,tree,yogurt,,89419,001,2022-04-28_19h59.36.879,SPAMnetsValid,2021.1.4,Win32,59.9880024,,,,,,,,,,,,,,,,,,,,,,,,,,,,,,,,,,,,,,,,,,,,,,,,,,,,,,,,,,,,,,,,,,,,,,,,,,,,,,,,,,,,,,,,,
,,3,5.4717,3,5.4717,0,51,51,9,1,176,cactus,tomato,,89419,001,2022-04-28_19h59.36.879,SPAMnetsValid,2021.1.4,Win32,59.9880024,,,,,,,,,,,,,,,,,,,,,,,,,,,,,,,,,,,,,,,,,,,,,,,,,,,,,,,,,,,,,,,,,,,,,,,,,,,,,,,,,,,,,,,,,
,,3,1.529,3,1.529,0,52,52,18,1,119,strawberry,tree,,89419,001,2022-04-28_19h59.36.879,SPAMnetsValid,2021.1.4,Win32,59.9880024,,,,,,,,,,,,,,,,,,,,,,,,,,,,,,,,,,,,,,,,,,,,,,,,,,,,,,,,,,,,,,,,,,,,,,,,,,,,,,,,,,,,,,,,,
,,8,1.8799,8,1.8799,0,53,53,7,1,188,flower,tree,,89419,001,2022-04-28_19h59.36.879,SPAMnetsValid,2021.1.4,Win32,59.9880024,,,,,,,,,,,,,,,,,,,,,,,,,,,,,,,,,,,,,,,,,,,,,,,,,,,,,,,,,,,,,,,,,,,,,,,,,,,,,,,,,,,,,,,,,
,,4,2.4028,4,2.4028,0,54,54,79,1,103,pretzel,tomato,,89419,001,2022-04-28_19h59.36.879,SPAMnetsValid,2021.1.4,Win32,59.9880024,,,,,,,,,,,,,,,,,,,,,,,,,,,,,,,,,,,,,,,,,,,,,,,,,,,,,,,,,,,,,,,,,,,,,,,,,,,,,,,,,,,,,,,,,
,,4,1.4747,4,1.4747,0,55,55,24,1,169,onion,yogurt,,89419,001,2022-04-28_19h59.36.879,SPAMnetsValid,2021.1.4,Win32,59.9880024,,,,,,,,,,,,,,,,,,,,,,,,,,,,,,,,,,,,,,,,,,,,,,,,,,,,,,,,,,,,,,,,,,,,,,,,,,,,,,,,,,,,,,,,,
,,5,4.9555,5,4.9555,0,56,56,35,1,147,cake,refrigerator,,89419,001,2022-04-28_19h59.36.879,SPAMnetsValid,2021.1.4,Win32,59.9880024,,,,,,,,,,,,,,,,,,,,,,,,,,,,,,,,,,,,,,,,,,,,,,,,,,,,,,,,,,,,,,,,,,,,,,,,,,,,,,,,,,,,,,,,,
,,3,2.3385,3,2.3385,0,57,57,55,1,143,pretzel,rose,,89419,001,2022-04-28_19h59.36.879,SPAMnetsValid,2021.1.4,Win32,59.9880024,,,,,,,,,,,,,,,,,,,,,,,,,,,,,,,,,,,,,,,,,,,,,,,,,,,,,,,,,,,,,,,,,,,,,,,,,,,,,,,,,,,,,,,,,
,,8,2.5947,8,2.5947,0,58,58,44,1,116,cake,chocolate,,89419,001,2022-04-28_19h59.36.879,SPAMnetsValid,2021.1.4,Win32,59.9880024,,,,,,,,,,,,,,,,,,,,,,,,,,,,,,,,,,,,,,,,,,,,,,,,,,,,,,,,,,,,,,,,,,,,,,,,,,,,,,,,,,,,,,,,,
,,2,7.6418,2,7.6418,0,59,59,34,1,153,carrot,pretzel,,89419,001,2022-04-28_19h59.36.879,SPAMnetsValid,2021.1.4,Win32,59.9880024,,,,,,,,,,,,,,,,,,,,,,,,,,,,,,,,,,,,,,,,,,,,,,,,,,,,,,,,,,,,,,,,,,,,,,,,,,,,,,,,,,,,,,,,,
,,8,1.8169,8,1.8169,0,60,60,47,1,167,carrot,garden,,89419,001,2022-04-28_19h59.36.879,SPAMnetsValid,2021.1.4,Win32,59.9880024,,,,,,,,,,,,,,,,,,,,,,,,,,,,,,,,,,,,,,,,,,,,,,,,,,,,,,,,,,,,,,,,,,,,,,,,,,,,,,,,,,,,,,,,,
,,3,1.6294,3,1.6294,0,61,61,63,1,137,microwave,tree,,89419,001,2022-04-28_19h59.36.879,SPAMnetsValid,2021.1.4,Win32,59.9880024,,,,,,,,,,,,,,,,,,,,,,,,,,,,,,,,,,,,,,,,,,,,,,,,,,,,,,,,,,,,,,,,,,,,,,,,,,,,,,,,,,,,,,,,,
,,3,1.3394,3,1.3394,0,62,62,23,1,148,flower,melon,,89419,001,2022-04-28_19h59.36.879,SPAMnetsValid,2021.1.4,Win32,59.9880024,,,,,,,,,,,,,,,,,,,,,,,,,,,,,,,,,,,,,,,,,,,,,,,,,,,,,,,,,,,,,,,,,,,,,,,,,,,,,,,,,,,,,,,,,
,,3,1.8077,3,1.8077,0,63,63,84,1,130,microwave,yogurt,,89419,001,2022-04-28_19h59.36.879,SPAMnetsValid,2021.1.4,Win32,59.9880024,,,,,,,,,,,,,,,,,,,,,,,,,,,,,,,,,,,,,,,,,,,,,,,,,,,,,,,,,,,,,,,,,,,,,,,,,,,,,,,,,,,,,,,,,
,,5,2.0371,5,2.0371,0,64,64,37,1,139,carrot,strawberry,,89419,001,2022-04-28_19h59.36.879,SPAMnetsValid,2021.1.4,Win32,59.9880024,,,,,,,,,,,,,,,,,,,,,,,,,,,,,,,,,,,,,,,,,,,,,,,,,,,,,,,,,,,,,,,,,,,,,,,,,,,,,,,,,,,,,,,,,
,,4,2.3771,4,2.3771,0,65,65,21,1,159,cookie,flower,,89419,001,2022-04-28_19h59.36.879,SPAMnetsValid,2021.1.4,Win32,59.9880024,,,,,,,,,,,,,,,,,,,,,,,,,,,,,,,,,,,,,,,,,,,,,,,,,,,,,,,,,,,,,,,,,,,,,,,,,,,,,,,,,,,,,,,,,
,,5,2.3211,5,2.3211,0,66,66,14,1,120,microwave,oven,,89419,001,2022-04-28_19h59.36.879,SPAMnetsValid,2021.1.4,Win32,59.9880024,,,,,,,,,,,,,,,,,,,,,,,,,,,,,,,,,,,,,,,,,,,,,,,,,,,,,,,,,,,,,,,,,,,,,,,,,,,,,,,,,,,,,,,,,
,,6,2.3865,6,2.3865,0,67,67,41,1,175,melon,onion,,89419,001,2022-04-28_19h59.36.879,SPAMnetsValid,2021.1.4,Win32,59.9880024,,,,,,,,,,,,,,,,,,,,,,,,,,,,,,,,,,,,,,,,,,,,,,,,,,,,,,,,,,,,,,,,,,,,,,,,,,,,,,,,,,,,,,,,,
,,6,16.6263,6,16.6263,0,68,68,11,1,117,melon,strawberry,,89419,001,2022-04-28_19h59.36.879,SPAMnetsValid,2021.1.4,Win32,59.9880024,,,,,,,,,,,,,,,,,,,,,,,,,,,,,,,,,,,,,,,,,,,,,,,,,,,,,,,,,,,,,,,,,,,,,,,,,,,,,,,,,,,,,,,,,
,,4,1.4109,4,1.4109,0,69,69,31,1,156,melon,rose,,89419,001,2022-04-28_19h59.36.879,SPAMnetsValid,2021.1.4,Win32,59.9880024,,,,,,,,,,,,,,,,,,,,,,,,,,,,,,,,,,,,,,,,,,,,,,,,,,,,,,,,,,,,,,,,,,,,,,,,,,,,,,,,,,,,,,,,,
,,3,2.1206,3,2.1206,0,70,70,81,1,104,garden,microwave,,89419,001,2022-04-28_19h59.36.879,SPAMnetsValid,2021.1.4,Win32,59.9880024,,,,,,,,,,,,,,,,,,,,,,,,,,,,,,,,,,,,,,,,,,,,,,,,,,,,,,,,,,,,,,,,,,,,,,,,,,,,,,,,,,,,,,,,,
,,2,1.8289,2,1.8289,0,71,71,3,1,129,cactus,refrigerator,,89419,001,2022-04-28_19h59.36.879,SPAMnetsValid,2021.1.4,Win32,59.9880024,,,,,,,,,,,,,,,,,,,,,,,,,,,,,,,,,,,,,,,,,,,,,,,,,,,,,,,,,,,,,,,,,,,,,,,,,,,,,,,,,,,,,,,,,
,,3,1.803,3,1.803,0,72,72,87,1,114,cookie,strawberry,,89419,001,2022-04-28_19h59.36.879,SPAMnetsValid,2021.1.4,Win32,59.9880024,,,,,,,,,,,,,,,,,,,,,,,,,,,,,,,,,,,,,,,,,,,,,,,,,,,,,,,,,,,,,,,,,,,,,,,,,,,,,,,,,,,,,,,,,
,,2,1.4359,2,1.4359,0,73,73,50,1,126,kitchen,tree,,89419,001,2022-04-28_19h59.36.879,SPAMnetsValid,2021.1.4,Win32,59.9880024,,,,,,,,,,,,,,,,,,,,,,,,,,,,,,,,,,,,,,,,,,,,,,,,,,,,,,,,,,,,,,,,,,,,,,,,,,,,,,,,,,,,,,,,,
,,9,1.5935,9,1.5935,0,74,74,25,1,194,cactus,cactus,CHECK,89419,001,2022-04-28_19h59.36.879,SPAMnetsValid,2021.1.4,Win32,59.9880024,,,,,,,,,,,,,,,,,,,,,,,,,,,,,,,,,,,,,,,,,,,,,,,,,,,,,,,,,,,,,,,,,,,,,,,,,,,,,,,,,,,,,,,,,
,,4,4.4376,4,4.4376,0,75,75,74,1,128,melon,microwave,,89419,001,2022-04-28_19h59.36.879,SPAMnetsValid,2021.1.4,Win32,59.9880024,,,,,,,,,,,,,,,,,,,,,,,,,,,,,,,,,,,,,,,,,,,,,,,,,,,,,,,,,,,,,,,,,,,,,,,,,,,,,,,,,,,,,,,,,
,,3,3.2243,3,3.2243,0,76,76,61,1,138,flower,rose,,89419,001,2022-04-28_19h59.36.879,SPAMnetsValid,2021.1.4,Win32,59.9880024,,,,,,,,,,,,,,,,,,,,,,,,,,,,,,,,,,,,,,,,,,,,,,,,,,,,,,,,,,,,,,,,,,,,,,,,,,,,,,,,,,,,,,,,,
,,3,1.7694,3,1.7694,0,77,77,95,1,121,broom,microwave,,89419,001,2022-04-28_19h59.36.879,SPAMnetsValid,2021.1.4,Win32,59.9880024,,,,,,,,,,,,,,,,,,,,,,,,,,,,,,,,,,,,,,,,,,,,,,,,,,,,,,,,,,,,,,,,,,,,,,,,,,,,,,,,,,,,,,,,,
,,2,2.6068,2,2.6068,0,78,78,54,1,101,cactus,kitchen,,89419,001,2022-04-28_19h59.36.879,SPAMnetsValid,2021.1.4,Win32,59.9880024,,,,,,,,,,,,,,,,,,,,,,,,,,,,,,,,,,,,,,,,,,,,,,,,,,,,,,,,,,,,,,,,,,,,,,,,,,,,,,,,,,,,,,,,,
,,4,1.4199,4,1.4199,0,79,79,75,1,178,cactus,carrot,,89419,001,2022-04-28_19h59.36.879,SPAMnetsValid,2021.1.4,Win32,59.9880024,,,,,,,,,,,,,,,,,,,,,,,,,,,,,,,,,,,,,,,,,,,,,,,,,,,,,,,,,,,,,,,,,,,,,,,,,,,,,,,,,,,,,,,,,
,,3,1.5322,3,1.5322,0,80,80,73,1,135,carrot,oven,,89419,001,2022-04-28_19h59.36.879,SPAMnetsValid,2021.1.4,Win32,59.9880024,,,,,,,,,,,,,,,,,,,,,,,,,,,,,,,,,,,,,,,,,,,,,,,,,,,,,,,,,,,,,,,,,,,,,,,,,,,,,,,,,,,,,,,,,
,,1,1.8366,1,1.8366,0,81,81,49,1,152,cactus,strawberry,,89419,001,2022-04-28_19h59.36.879,SPAMnetsValid,2021.1.4,Win32,59.9880024,,,,,,,,,,,,,,,,,,,,,,,,,,,,,,,,,,,,,,,,,,,,,,,,,,,,,,,,,,,,,,,,,,,,,,,,,,,,,,,,,,,,,,,,,
,,6,1.7117,6,1.7117,0,82,82,65,1,160,cookie,kitchen,,89419,001,2022-04-28_19h59.36.879,SPAMnetsValid,2021.1.4,Win32,59.9880024,,,,,,,,,,,,,,,,,,,,,,,,,,,,,,,,,,,,,,,,,,,,,,,,,,,,,,,,,,,,,,,,,,,,,,,,,,,,,,,,,,,,,,,,,
,,4,3.8899,4,3.8899,0,83,83,33,1,131,cactus,garden,,89419,001,2022-04-28_19h59.36.879,SPAMnetsValid,2021.1.4,Win32,59.9880024,,,,,,,,,,,,,,,,,,,,,,,,,,,,,,,,,,,,,,,,,,,,,,,,,,,,,,,,,,,,,,,,,,,,,,,,,,,,,,,,,,,,,,,,,
,,3,1.7874,3,1.7874,0,84,84,58,1,144,cake,garden,,89419,001,2022-04-28_19h59.36.879,SPAMnetsValid,2021.1.4,Win32,59.9880024,,,,,,,,,,,,,,,,,,,,,,,,,,,,,,,,,,,,,,,,,,,,,,,,,,,,,,,,,,,,,,,,,,,,,,,,,,,,,,,,,,,,,,,,,
,,3,4.6538,3,4.6538,0,85,85,40,1,165,onion,rose,,89419,001,2022-04-28_19h59.36.879,SPAMnetsValid,2021.1.4,Win32,59.9880024,,,,,,,,,,,,,,,,,,,,,,,,,,,,,,,,,,,,,,,,,,,,,,,,,,,,,,,,,,,,,,,,,,,,,,,,,,,,,,,,,,,,,,,,,
,,6,5.3949,6,5.3949,0,86,86,56,1,113,refrigerator,strawberry,,89419,001,2022-04-28_19h59.36.879,SPAMnetsValid,2021.1.4,Win32,59.9880024,,,,,,,,,,,,,,,,,,,,,,,,,,,,,,,,,,,,,,,,,,,,,,,,,,,,,,,,,,,,,,,,,,,,,,,,,,,,,,,,,,,,,,,,,
,,8,2.3679,8,2.3679,0,87,87,60,1,122,flower,garden,,89419,001,2022-04-28_19h59.36.879,SPAMnetsValid,2021.1.4,Win32,59.9880024,,,,,,,,,,,,,,,,,,,,,,,,,,,,,,,,,,,,,,,,,,,,,,,,,,,,,,,,,,,,,,,,,,,,,,,,,,,,,,,,,,,,,,,,,
,,1,1.6256,1,1.6256,0,88,88,57,1,127,cactus,chocolate,,89419,001,2022-04-28_19h59.36.879,SPAMnetsValid,2021.1.4,Win32,59.9880024,,,,,,,,,,,,,,,,,,,,,,,,,,,,,,,,,,,,,,,,,,,,,,,,,,,,,,,,,,,,,,,,,,,,,,,,,,,,,,,,,,,,,,,,,
,,3,1.4047,3,1.4047,0,89,89,77,1,172,kitchen,melon,,89419,001,2022-04-28_19h59.36.879,SPAMnetsValid,2021.1.4,Win32,59.9880024,,,,,,,,,,,,,,,,,,,,,,,,,,,,,,,,,,,,,,,,,,,,,,,,,,,,,,,,,,,,,,,,,,,,,,,,,,,,,,,,,,,,,,,,,
,,3,1.5027,3,1.5027,0,90,90,51,1,168,cactus,flower,,89419,001,2022-04-28_19h59.36.879,SPAMnetsValid,2021.1.4,Win32,59.9880024,,,,,,,,,,,,,,,,,,,,,,,,,,,,,,,,,,,,,,,,,,,,,,,,,,,,,,,,,,,,,,,,,,,,,,,,,,,,,,,,,,,,,,,,,
,,2,2.3697,2,2.3697,0,91,91,64,1,157,refrigerator,rose,,89419,001,2022-04-28_19h59.36.879,SPAMnetsValid,2021.1.4,Win32,59.9880024,,,,,,,,,,,,,,,,,,,,,,,,,,,,,,,,,,,,,,,,,,,,,,,,,,,,,,,,,,,,,,,,,,,,,,,,,,,,,,,,,,,,,,,,,
,,6,3.0322,6,3.0322,0,92,92,85,1,115,refrigerator,tomato,,89419,001,2022-04-28_19h59.36.879,SPAMnetsValid,2021.1.4,Win32,59.9880024,,,,,,,,,,,,,,,,,,,,,,,,,,,,,,,,,,,,,,,,,,,,,,,,,,,,,,,,,,,,,,,,,,,,,,,,,,,,,,,,,,,,,,,,,
,,3,2.5956,3,2.5956,0,93,93,42,1,184,oven,pretzel,,89419,001,2022-04-28_19h59.36.879,SPAMnetsValid,2021.1.4,Win32,59.9880024,,,,,,,,,,,,,,,,,,,,,,,,,,,,,,,,,,,,,,,,,,,,,,,,,,,,,,,,,,,,,,,,,,,,,,,,,,,,,,,,,,,,,,,,,
,,6,3.2449,6,3.2449,0,94,94,96,1,136,chocolate,microwave,,89419,001,2022-04-28_19h59.36.879,SPAMnetsValid,2021.1.4,Win32,59.9880024,,,,,,,,,,,,,,,,,,,,,,,,,,,,,,,,,,,,,,,,,,,,,,,,,,,,,,,,,,,,,,,,,,,,,,,,,,,,,,,,,,,,,,,,,
,,3,5.6541,3,5.6541,0,95,95,78,1,132,broom,tree,,89419,001,2022-04-28_19h59.36.879,SPAMnetsValid,2021.1.4,Win32,59.9880024,,,,,,,,,,,,,,,,,,,,,,,,,,,,,,,,,,,,,,,,,,,,,,,,,,,,,,,,,,,,,,,,,,,,,,,,,,,,,,,,,,,,,,,,,
,,3,2.0209,3,2.0209,0,96,96,59,1,164,cookie,garden,,89419,001,2022-04-28_19h59.36.879,SPAMnetsValid,2021.1.4,Win32,59.9880024,,,,,,,,,,,,,,,,,,,,,,,,,,,,,,,,,,,,,,,,,,,,,,,,,,,,,,,,,,,,,,,,,,,,,,,,,,,,,,,,,,,,,,,,,
,,,,,,,,,,,,,,,89419,001,2022-04-28_19h59.36.879,SPAMnetsValid,2021.1.4,Win32,59.9880024,0,0,0,0,1,,,,,,,,,,,,,,,,,,,,,,,,,,,,,,,,,,,,,,,,,,,,,,,,,,,,,,,,,,,,,,,,,,,,,,,,,,,,,,,,,,,,
,,,,,,,,,,,,,,,89419,001,2022-04-28_19h59.36.879,SPAMnetsValid,2021.1.4,Win32,59.9880024,,,,,,0,0,0,1,1,0,1,,,,,,,,,,,,,,,,,,,,,,,,,,,,,,,,,,,,,,,,,,,,,,,,,,,,,,,,,,,,,,,,,,,,,,,,,,,,,
,,,,2,2.4087,,,,,,14,broom,cookie,,89419,001,2022-04-28_19h59.36.879,SPAMnetsValid,2021.1.4,Win32,59.9880024,,,,,,,,,,,,,2,2.4087,0,0,0,16,1,,,,,,,,,,,,,,,,,,,,,,,,,,,,,,,,,,,,,,,,,,,,,,,,,,,,,,,,,,,,,,,,,,,,,,
,,,,3,0.755,,,,,,24,cookie,tomato,,89419,001,2022-04-28_19h59.36.879,SPAMnetsValid,2021.1.4,Win32,59.9880024,,,,,,,,,,,,,3,0.755,0,1,1,68,1,,,,,,,,,,,,,,,,,,,,,,,,,,,,,,,,,,,,,,,,,,,,,,,,,,,,,,,,,,,,,,,,,,,,,,
,,,,6,1.1767,,,,,,69,carrot,refrigerator,,89419,001,2022-04-28_19h59.36.879,SPAMnetsValid,2021.1.4,Win32,59.9880024,,,,,,,,,,,,,6,1.1767,0,2,2,75,1,,,,,,,,,,,,,,,,,,,,,,,,,,,,,,,,,,,,,,,,,,,,,,,,,,,,,,,,,,,,,,,,,,,,,,
,,,,3,1.0743,,,,,,39,melon,pretzel,,89419,001,2022-04-28_19h59.36.879,SPAMnetsValid,2021.1.4,Win32,59.9880024,,,,,,,,,,,,,3,1.0743,0,3,3,20,1,,,,,,,,,,,,,,,,,,,,,,,,,,,,,,,,,,,,,,,,,,,,,,,,,,,,,,,,,,,,,,,,,,,,,,
,,,,6,1.5485,,,,,,20,rose,tree,,89419,001,2022-04-28_19h59.36.879,SPAMnetsValid,2021.1.4,Win32,59.9880024,,,,,,,,,,,,,6,1.5485,0,4,4,66,1,,,,,,,,,,,,,,,,,,,,,,,,,,,,,,,,,,,,,,,,,,,,,,,,,,,,,,,,,,,,,,,,,,,,,,
,,,,4,1.1599,,,,,,35,flower,pretzel,,89419,001,2022-04-28_19h59.36.879,SPAMnetsValid,2021.1.4,Win32,59.9880024,,,,,,,,,,,,,4,1.1599,0,5,5,26,1,,,,,,,,,,,,,,,,,,,,,,,,,,,,,,,,,,,,,,,,,,,,,,,,,,,,,,,,,,,,,,,,,,,,,,
,,,,3,0.5662,,,,,,16,chocolate,flower,,89419,001,2022-04-28_19h59.36.879,SPAMnetsValid,2021.1.4,Win32,59.9880024,,,,,,,,,,,,,3,0.5662,0,6,6,22,1,,,,,,,,,,,,,,,,,,,,,,,,,,,,,,,,,,,,,,,,,,,,,,,,,,,,,,,,,,,,,,,,,,,,,,
,,,,2,1.099,,,,,,74,broom,pretzel,,89419,001,2022-04-28_19h59.36.879,SPAMnetsValid,2021.1.4,Win32,59.9880024,,,,,,,,,,,,,2,1.099,0,7,7,40,1,,,,,,,,,,,,,,,,,,,,,,,,,,,,,,,,,,,,,,,,,,,,,,,,,,,,,,,,,,,,,,,,,,,,,,
,,,,2,2.5451,,,,,,68,flower,tomato,,89419,001,2022-04-28_19h59.36.879,SPAMnetsValid,2021.1.4,Win32,59.9880024,,,,,,,,,,,,,2,2.5451,0,8,8,94,1,,,,,,,,,,,,,,,,,,,,,,,,,,,,,,,,,,,,,,,,,,,,,,,,,,,,,,,,,,,,,,,,,,,,,,
,,,,3,1.4545,,,,,,48,flower,oven,,89419,001,2022-04-28_19h59.36.879,SPAMnetsValid,2021.1.4,Win32,59.9880024,,,,,,,,,,,,,3,1.4545,0,9,9,15,1,,,,,,,,,,,,,,,,,,,,,,,,,,,,,,,,,,,,,,,,,,,,,,,,,,,,,,,,,,,,,,,,,,,,,,
,,,,6,2.2539,,,,,,55,tomato,tree,,89419,001,2022-04-28_19h59.36.879,SPAMnetsValid,2021.1.4,Win32,59.9880024,,,,,,,,,,,,,6,2.2539,0,10,10,35,1,,,,,,,,,,,,,,,,,,,,,,,,,,,,,,,,,,,,,,,,,,,,,,,,,,,,,,,,,,,,,,,,,,,,,,
,,,,4,1.8197,,,,,,26,tomato,yogurt,,89419,001,2022-04-28_19h59.36.879,SPAMnetsValid,2021.1.4,Win32,59.9880024,,,,,,,,,,,,,4,1.8197,0,11,11,13,1,,,,,,,,,,,,,,,,,,,,,,,,,,,,,,,,,,,,,,,,,,,,,,,,,,,,,,,,,,,,,,,,,,,,,,
,,,,3,1.4862,,,,,,86,oven,rose,,89419,001,2022-04-28_19h59.36.879,SPAMnetsValid,2021.1.4,Win32,59.9880024,,,,,,,,,,,,,3,1.4862,0,12,12,79,1,,,,,,,,,,,,,,,,,,,,,,,,,,,,,,,,,,,,,,,,,,,,,,,,,,,,,,,,,,,,,,,,,,,,,,
,,,,2,0.8031,,,,,,32,cake,microwave,,89419,001,2022-04-28_19h59.36.879,SPAMnetsValid,2021.1.4,Win32,59.9880024,,,,,,,,,,,,,2,0.8031,0,13,13,33,1,,,,,,,,,,,,,,,,,,,,,,,,,,,,,,,,,,,,,,,,,,,,,,,,,,,,,,,,,,,,,,,,,,,,,,
,,,,2,1.7263,,,,,,85,cake,tree,,89419,001,2022-04-28_19h59.36.879,SPAMnetsValid,2021.1.4,Win32,59.9880024,,,,,,,,,,,,,2,1.7263,0,14,14,18,1,,,,,,,,,,,,,,,,,,,,,,,,,,,,,,,,,,,,,,,,,,,,,,,,,,,,,,,,,,,,,,,,,,,,,,
,,,,7,1.9822,,,,,,9,kitchen,refrigerator,,89419,001,2022-04-28_19h59.36.879,SPAMnetsValid,2021.1.4,Win32,59.9880024,,,,,,,,,,,,,7,1.9822,0,15,15,64,1,,,,,,,,,,,,,,,,,,,,,,,,,,,,,,,,,,,,,,,,,,,,,,,,,,,,,,,,,,,,,,,,,,,,,,
,,,,6,1.6648,,,,,,10,flower,onion,,89419,001,2022-04-28_19h59.36.879,SPAMnetsValid,2021.1.4,Win32,59.9880024,,,,,,,,,,,,,6,1.6648,0,16,16,45,1,,,,,,,,,,,,,,,,,,,,,,,,,,,,,,,,,,,,,,,,,,,,,,,,,,,,,,,,,,,,,,,,,,,,,,
,,,,2,9.66,,,,,,19,microwave,pretzel,,89419,001,2022-04-28_19h59.36.879,SPAMnetsValid,2021.1.4,Win32,59.9880024,,,,,,,,,,,,,2,9.66,0,17,17,41,1,,,,,,,,,,,,,,,,,,,,,,,,,,,,,,,,,,,,,,,,,,,,,,,,,,,,,,,,,,,,,,,,,,,,,,
,,,,5,2.6879,,,,,,89,chocolate,rose,,89419,001,2022-04-28_19h59.36.879,SPAMnetsValid,2021.1.4,Win32,59.9880024,,,,,,,,,,,,,5,2.6879,0,18,18,60,1,,,,,,,,,,,,,,,,,,,,,,,,,,,,,,,,,,,,,,,,,,,,,,,,,,,,,,,,,,,,,,,,,,,,,,
,,,,3,1.6215,,,,,,30,cookie,pretzel,,89419,001,2022-04-28_19h59.36.879,SPAMnetsValid,2021.1.4,Win32,59.9880024,,,,,,,,,,,,,3,1.6215,0,19,19,78,1,,,,,,,,,,,,,,,,,,,,,,,,,,,,,,,,,,,,,,,,,,,,,,,,,,,,,,,,,,,,,,,,,,,,,,
,,,,3,0.9717,,,,,,78,cookie,rose,,89419,001,2022-04-28_19h59.36.879,SPAMnetsValid,2021.1.4,Win32,59.9880024,,,,,,,,,,,,,3,0.9717,0,20,20,56,1,,,,,,,,,,,,,,,,,,,,,,,,,,,,,,,,,,,,,,,,,,,,,,,,,,,,,,,,,,,,,,,,,,,,,,
,,,,6,1.745,,,,,,82,cake,kitchen,,89419,001,2022-04-28_19h59.36.879,SPAMnetsValid,2021.1.4,Win32,59.9880024,,,,,,,,,,,,,6,1.745,0,21,21,96,1,,,,,,,,,,,,,,,,,,,,,,,,,,,,,,,,,,,,,,,,,,,,,,,,,,,,,,,,,,,,,,,,,,,,,,
,,,,2,5.1293,,,,,,90,cactus,cake,,89419,001,2022-04-28_19h59.36.879,SPAMnetsValid,2021.1.4,Win32,59.9880024,,,,,,,,,,,,,2,5.1293,0,22,22,85,1,,,,,,,,,,,,,,,,,,,,,,,,,,,,,,,,,,,,,,,,,,,,,,,,,,,,,,,,,,,,,,,,,,,,,,
,,,,4,4.4283,,,,,,66,melon,yogurt,,89419,001,2022-04-28_19h59.36.879,SPAMnetsValid,2021.1.4,Win32,59.9880024,,,,,,,,,,,,,4,4.4283,0,23,23,48,1,,,,,,,,,,,,,,,,,,,,,,,,,,,,,,,,,,,,,,,,,,,,,,,,,,,,,,,,,,,,,,,,,,,,,,
,,,,3,11.6228,,,,,,25,carrot,onion,,89419,001,2022-04-28_19h59.36.879,SPAMnetsValid,2021.1.4,Win32,59.9880024,,,,,,,,,,,,,3,11.6228,0,24,24,44,1,,,,,,,,,,,,,,,,,,,,,,,,,,,,,,,,,,,,,,,,,,,,,,,,,,,,,,,,,,,,,,,,,,,,,,
,,,,3,5.2226,,,,,,12,cookie,yogurt,,89419,001,2022-04-28_19h59.36.879,SPAMnetsValid,2021.1.4,Win32,59.9880024,,,,,,,,,,,,,3,5.2226,0,25,25,36,1,,,,,,,,,,,,,,,,,,,,,,,,,,,,,,,,,,,,,,,,,,,,,,,,,,,,,,,,,,,,,,,,,,,,,,
,,,,2,2.1292,,,,,,8,broom,melon,,89419,001,2022-04-28_19h59.36.879,SPAMnetsValid,2021.1.4,Win32,59.9880024,,,,,,,,,,,,,2,2.1292,0,26,26,59,1,,,,,,,,,,,,,,,,,,,,,,,,,,,,,,,,,,,,,,,,,,,,,,,,,,,,,,,,,,,,,,,,,,,,,,
,,,,2,5.4916,,,,,,11,refrigerator,tree,,89419,001,2022-04-28_19h59.36.879,SPAMnetsValid,2021.1.4,Win32,59.9880024,,,,,,,,,,,,,2,5.4916,0,27,27,43,1,,,,,,,,,,,,,,,,,,,,,,,,,,,,,,,,,,,,,,,,,,,,,,,,,,,,,,,,,,,,,,,,,,,,,,
,,,,3,1.6693,,,,,,57,flower,kitchen,,89419,001,2022-04-28_19h59.36.879,SPAMnetsValid,2021.1.4,Win32,59.9880024,,,,,,,,,,,,,3,1.6693,0,28,28,49,1,,,,,,,,,,,,,,,,,,,,,,,,,,,,,,,,,,,,,,,,,,,,,,,,,,,,,,,,,,,,,,,,,,,,,,
,,,,2,0.9492,,,,,,60,cactus,onion,,89419,001,2022-04-28_19h59.36.879,SPAMnetsValid,2021.1.4,Win32,59.9880024,,,,,,,,,,,,,2,0.9492,0,29,29,81,1,,,,,,,,,,,,,,,,,,,,,,,,,,,,,,,,,,,,,,,,,,,,,,,,,,,,,,,,,,,,,,,,,,,,,,
,,,,2,1.1056,,,,,,13,broom,yogurt,,89419,001,2022-04-28_19h59.36.879,SPAMnetsValid,2021.1.4,Win32,59.9880024,,,,,,,,,,,,,2,1.1056,0,30,30,5,1,,,,,,,,,,,,,,,,,,,,,,,,,,,,,,,,,,,,,,,,,,,,,,,,,,,,,,,,,,,,,,,,,,,,,,
,,,,3,2.5545,,,,,,5,oven,tree,,89419,001,2022-04-28_19h59.36.879,SPAMnetsValid,2021.1.4,Win32,59.9880024,,,,,,,,,,,,,3,2.5545,0,31,31,70,1,,,,,,,,,,,,,,,,,,,,,,,,,,,,,,,,,,,,,,,,,,,,,,,,,,,,,,,,,,,,,,,,,,,,,,
,,,,4,1.436,,,,,,64,chocolate,garden,,89419,001,2022-04-28_19h59.36.879,SPAMnetsValid,2021.1.4,Win32,59.9880024,,,,,,,,,,,,,4,1.436,0,32,32,14,1,,,,,,,,,,,,,,,,,,,,,,,,,,,,,,,,,,,,,,,,,,,,,,,,,,,,,,,,,,,,,,,,,,,,,,
,,,,5,2.0048,,,,,,3,cake,oven,,89419,001,2022-04-28_19h59.36.879,SPAMnetsValid,2021.1.4,Win32,59.9880024,,,,,,,,,,,,,5,2.0048,0,33,33,30,1,,,,,,,,,,,,,,,,,,,,,,,,,,,,,,,,,,,,,,,,,,,,,,,,,,,,,,,,,,,,,,,,,,,,,,
,,,,5,2.1386,,,,,,52,carrot,tomato,,89419,001,2022-04-28_19h59.36.879,SPAMnetsValid,2021.1.4,Win32,59.9880024,,,,,,,,,,,,,5,2.1386,0,34,34,95,1,,,,,,,,,,,,,,,,,,,,,,,,,,,,,,,,,,,,,,,,,,,,,,,,,,,,,,,,,,,,,,,,,,,,,,
,,,,4,1.9273,,,,,,67,flower,yogurt,,89419,001,2022-04-28_19h59.36.879,SPAMnetsValid,2021.1.4,Win32,59.9880024,,,,,,,,,,,,,4,1.9273,0,35,35,12,1,,,,,,,,,,,,,,,,,,,,,,,,,,,,,,,,,,,,,,,,,,,,,,,,,,,,,,,,,,,,,,,,,,,,,,
,,,,3,1.4881,,,,,,77,refrigerator,yogurt,,89419,001,2022-04-28_19h59.36.879,SPAMnetsValid,2021.1.4,Win32,59.9880024,,,,,,,,,,,,,3,1.4881,0,36,36,42,1,,,,,,,,,,,,,,,,,,,,,,,,,,,,,,,,,,,,,,,,,,,,,,,,,,,,,,,,,,,,,,,,,,,,,,
,,,,2,1.0394,,,,,,36,broom,kitchen,,89419,001,2022-04-28_19h59.36.879,SPAMnetsValid,2021.1.4,Win32,59.9880024,,,,,,,,,,,,,2,1.0394,0,37,37,76,1,,,,,,,,,,,,,,,,,,,,,,,,,,,,,,,,,,,,,,,,,,,,,,,,,,,,,,,,,,,,,,,,,,,,,,
,,,,2,0.7443,,,,,,42,garden,kitchen,,89419,001,2022-04-28_19h59.36.879,SPAMnetsValid,2021.1.4,Win32,59.9880024,,,,,,,,,,,,,2,0.7443,0,38,38,29,1,,,,,,,,,,,,,,,,,,,,,,,,,,,,,,,,,,,,,,,,,,,,,,,,,,,,,,,,,,,,,,,,,,,,,,
,,,,2,1.4359,,,,,,34,melon,oven,,89419,001,2022-04-28_19h59.36.879,SPAMnetsValid,2021.1.4,Win32,59.9880024,,,,,,,,,,,,,2,1.4359,0,39,39,7,1,,,,,,,,,,,,,,,,,,,,,,,,,,,,,,,,,,,,,,,,,,,,,,,,,,,,,,,,,,,,,,,,,,,,,,
,,,,3,2.0474,,,,,,81,pretzel,yogurt,,89419,001,2022-04-28_19h59.36.879,SPAMnetsValid,2021.1.4,Win32,59.9880024,,,,,,,,,,,,,3,2.0474,0,40,40,50,1,,,,,,,,,,,,,,,,,,,,,,,,,,,,,,,,,,,,,,,,,,,,,,,,,,,,,,,,,,,,,,,,,,,,,,
,,,,4,3.4876,,,,,,7,melon,tree,,89419,001,2022-04-28_19h59.36.879,SPAMnetsValid,2021.1.4,Win32,59.9880024,,,,,,,,,,,,,4,3.4876,0,41,41,77,1,,,,,,,,,,,,,,,,,,,,,,,,,,,,,,,,,,,,,,,,,,,,,,,,,,,,,,,,,,,,,,,,,,,,,,
,,,,3,4.7543,,,,,,23,flower,microwave,,89419,001,2022-04-28_19h59.36.879,SPAMnetsValid,2021.1.4,Win32,59.9880024,,,,,,,,,,,,,3,4.7543,0,42,42,25,1,,,,,,,,,,,,,,,,,,,,,,,,,,,,,,,,,,,,,,,,,,,,,,,,,,,,,,,,,,,,,,,,,,,,,,
,,,,3,1.2026,,,,,,92,broom,flower,,89419,001,2022-04-28_19h59.36.879,SPAMnetsValid,2021.1.4,Win32,59.9880024,,,,,,,,,,,,,3,1.2026,0,43,43,88,1,,,,,,,,,,,,,,,,,,,,,,,,,,,,,,,,,,,,,,,,,,,,,,,,,,,,,,,,,,,,,,,,,,,,,,
,,,,4,1.7103,,,,,,15,onion,oven,,89419,001,2022-04-28_19h59.36.879,SPAMnetsValid,2021.1.4,Win32,59.9880024,,,,,,,,,,,,,4,1.7103,0,44,44,39,1,,,,,,,,,,,,,,,,,,,,,,,,,,,,,,,,,,,,,,,,,,,,,,,,,,,,,,,,,,,,,,,,,,,,,,
,,,,3,3.2816,,,,,,18,onion,refrigerator,,89419,001,2022-04-28_19h59.36.879,SPAMnetsValid,2021.1.4,Win32,59.9880024,,,,,,,,,,,,,3,3.2816,0,45,45,62,1,,,,,,,,,,,,,,,,,,,,,,,,,,,,,,,,,,,,,,,,,,,,,,,,,,,,,,,,,,,,,,,,,,,,,,
,,,,3,4.2278,,,,,,87,carrot,yogurt,,89419,001,2022-04-28_19h59.36.879,SPAMnetsValid,2021.1.4,Win32,59.9880024,,,,,,,,,,,,,3,4.2278,0,46,46,6,1,,,,,,,,,,,,,,,,,,,,,,,,,,,,,,,,,,,,,,,,,,,,,,,,,,,,,,,,,,,,,,,,,,,,,,
,,,,2,2.0076,,,,,,84,oven,tomato,,89419,001,2022-04-28_19h59.36.879,SPAMnetsValid,2021.1.4,Win32,59.9880024,,,,,,,,,,,,,2,2.0076,0,47,47,28,1,,,,,,,,,,,,,,,,,,,,,,,,,,,,,,,,,,,,,,,,,,,,,,,,,,,,,,,,,,,,,,,,,,,,,,
,,,,2,1.5975,,,,,,28,cake,melon,,89419,001,2022-04-28_19h59.36.879,SPAMnetsValid,2021.1.4,Win32,59.9880024,,,,,,,,,,,,,2,1.5975,0,48,48,54,1,,,,,,,,,,,,,,,,,,,,,,,,,,,,,,,,,,,,,,,,,,,,,,,,,,,,,,,,,,,,,,,,,,,,,,
,,,,6,1.7907,,,,,,61,strawberry,tomato,,89419,001,2022-04-28_19h59.36.879,SPAMnetsValid,2021.1.4,Win32,59.9880024,,,,,,,,,,,,,6,1.7907,0,49,49,80,1,,,,,,,,,,,,,,,,,,,,,,,,,,,,,,,,,,,,,,,,,,,,,,,,,,,,,,,,,,,,,,,,,,,,,,
,,,,3,14.9747,,,,,,45,onion,pretzel,,89419,001,2022-04-28_19h59.36.879,SPAMnetsValid,2021.1.4,Win32,59.9880024,,,,,,,,,,,,,3,14.9747,0,50,50,69,1,,,,,,,,,,,,,,,,,,,,,,,,,,,,,,,,,,,,,,,,,,,,,,,,,,,,,,,,,,,,,,,,,,,,,,
,,,,4,3.0174,,,,,,33,oven,yogurt,,89419,001,2022-04-28_19h59.36.879,SPAMnetsValid,2021.1.4,Win32,59.9880024,,,,,,,,,,,,,4,3.0174,0,51,51,31,1,,,,,,,,,,,,,,,,,,,,,,,,,,,,,,,,,,,,,,,,,,,,,,,,,,,,,,,,,,,,,,,,,,,,,,
,,,,3,3.3589,,,,,,21,cake,onion,,89419,001,2022-04-28_19h59.36.879,SPAMnetsValid,2021.1.4,Win32,59.9880024,,,,,,,,,,,,,3,3.3589,0,52,52,63,1,,,,,,,,,,,,,,,,,,,,,,,,,,,,,,,,,,,,,,,,,,,,,,,,,,,,,,,,,,,,,,,,,,,,,,
,,,,2,4.3183,,,,,,41,broom,cactus,,89419,001,2022-04-28_19h59.36.879,SPAMnetsValid,2021.1.4,Win32,59.9880024,,,,,,,,,,,,,2,4.3183,0,53,53,46,1,,,,,,,,,,,,,,,,,,,,,,,,,,,,,,,,,,,,,,,,,,,,,,,,,,,,,,,,,,,,,,,,,,,,,,
,,,,2,10.0987,,,,,,91,microwave,rose,,89419,001,2022-04-28_19h59.36.879,SPAMnetsValid,2021.1.4,Win32,59.9880024,,,,,,,,,,,,,2,10.0987,0,54,54,84,1,,,,,,,,,,,,,,,,,,,,,,,,,,,,,,,,,,,,,,,,,,,,,,,,,,,,,,,,,,,,,,,,,,,,,,
,,,,4,2.3816,,,,,,54,chocolate,yogurt,,89419,001,2022-04-28_19h59.36.879,SPAMnetsValid,2021.1.4,Win32,59.9880024,,,,,,,,,,,,,4,2.3816,0,55,55,67,1,,,,,,,,,,,,,,,,,,,,,,,,,,,,,,,,,,,,,,,,,,,,,,,,,,,,,,,,,,,,,,,,,,,,,,
,,,,9,1.4075,,,,,,192,microwave,microwave,CHECK,89419,001,2022-04-28_19h59.36.879,SPAMnetsValid,2021.1.4,Win32,59.9880024,,,,,,,,,,,,,9,1.4075,0,56,56,53,1,,,,,,,,,,,,,,,,,,,,,,,,,,,,,,,,,,,,,,,,,,,,,,,,,,,,,,,,,,,,,,,,,,,,,,
,,,,7,10.7347,,,,,,63,cake,cookie,,89419,001,2022-04-28_19h59.36.879,SPAMnetsValid,2021.1.4,Win32,59.9880024,,,,,,,,,,,,,7,10.7347,0,57,57,93,1,,,,,,,,,,,,,,,,,,,,,,,,,,,,,,,,,,,,,,,,,,,,,,,,,,,,,,,,,,,,,,,,,,,,,,
,,,,9,1.843,,,,,,191,cake,cake,CHECK,89419,001,2022-04-28_19h59.36.879,SPAMnetsValid,2021.1.4,Win32,59.9880024,,,,,,,,,,,,,9,1.843,0,58,58,10,1,,,,,,,,,,,,,,,,,,,,,,,,,,,,,,,,,,,,,,,,,,,,,,,,,,,,,,,,,,,,,,,,,,,,,,
,,,,3,27.4655,,,,,,38,pretzel,refrigerator,,89419,001,2022-04-28_19h59.36.879,SPAMnetsValid,2021.1.4,Win32,59.9880024,,,,,,,,,,,,,3,27.4655,0,59,59,71,1,,,,,,,,,,,,,,,,,,,,,,,,,,,,,,,,,,,,,,,,,,,,,,,,,,,,,,,,,,,,,,,,,,,,,,
,,,,3,1.3448,,,,,,37,garden,refrigerator,,89419,001,2022-04-28_19h59.36.879,SPAMnetsValid,2021.1.4,Win32,59.9880024,,,,,,,,,,,,,3,1.3448,0,60,60,11,1,,,,,,,,,,,,,,,,,,,,,,,,,,,,,,,,,,,,,,,,,,,,,,,,,,,,,,,,,,,,,,,,,,,,,,
,,,,4,1.7411,,,,,,50,carrot,rose,,89419,001,2022-04-28_19h59.36.879,SPAMnetsValid,2021.1.4,Win32,59.9880024,,,,,,,,,,,,,4,1.7411,0,61,61,73,1,,,,,,,,,,,,,,,,,,,,,,,,,,,,,,,,,,,,,,,,,,,,,,,,,,,,,,,,,,,,,,,,,,,,,,
,,,,2,5.6044,,,,,,58,garden,oven,,89419,001,2022-04-28_19h59.36.879,SPAMnetsValid,2021.1.4,Win32,59.9880024,,,,,,,,,,,,,2,5.6044,0,62,62,37,1,,,,,,,,,,,,,,,,,,,,,,,,,,,,,,,,,,,,,,,,,,,,,,,,,,,,,,,,,,,,,,,,,,,,,,
,,,,4,2.97,,,,,,1,rose,yogurt,,89419,001,2022-04-28_19h59.36.879,SPAMnetsValid,2021.1.4,Win32,59.9880024,,,,,,,,,,,,,4,2.97,0,63,63,55,1,,,,,,,,,,,,,,,,,,,,,,,,,,,,,,,,,,,,,,,,,,,,,,,,,,,,,,,,,,,,,,,,,,,,,,
,,,,3,1.1086,,,,,,93,kitchen,oven,,89419,001,2022-04-28_19h59.36.879,SPAMnetsValid,2021.1.4,Win32,59.9880024,,,,,,,,,,,,,3,1.1086,0,64,64,82,1,,,,,,,,,,,,,,,,,,,,,,,,,,,,,,,,,,,,,,,,,,,,,,,,,,,,,,,,,,,,,,,,,,,,,,
,,,,2,1.7313,,,,,,70,chocolate,onion,,89419,001,2022-04-28_19h59.36.879,SPAMnetsValid,2021.1.4,Win32,59.9880024,,,,,,,,,,,,,2,1.7313,0,65,65,74,1,,,,,,,,,,,,,,,,,,,,,,,,,,,,,,,,,,,,,,,,,,,,,,,,,,,,,,,,,,,,,,,,,,,,,,
,,,,1,1.573,,,,,,27,cactus,cookie,,89419,001,2022-04-28_19h59.36.879,SPAMnetsValid,2021.1.4,Win32,59.9880024,,,,,,,,,,,,,1,1.573,0,66,66,17,1,,,,,,,,,,,,,,,,,,,,,,,,,,,,,,,,,,,,,,,,,,,,,,,,,,,,,,,,,,,,,,,,,,,,,,
,,,,3,3.9793,,,,,,72,broom,onion,,89419,001,2022-04-28_19h59.36.879,SPAMnetsValid,2021.1.4,Win32,59.9880024,,,,,,,,,,,,,3,3.9793,0,67,67,27,1,,,,,,,,,,,,,,,,,,,,,,,,,,,,,,,,,,,,,,,,,,,,,,,,,,,,,,,,,,,,,,,,,,,,,,
,,,,4,2.5793,,,,,,56,cactus,tree,,89419,001,2022-04-28_19h59.36.879,SPAMnetsValid,2021.1.4,Win32,59.9880024,,,,,,,,,,,,,4,2.5793,0,68,68,21,1,,,,,,,,,,,,,,,,,,,,,,,,,,,,,,,,,,,,,,,,,,,,,,,,,,,,,,,,,,,,,,,,,,,,,,
,,,,3,1.2128,,,,,,95,broom,refrigerator,,89419,001,2022-04-28_19h59.36.879,SPAMnetsValid,2021.1.4,Win32,59.9880024,,,,,,,,,,,,,3,1.2128,0,69,69,90,1,,,,,,,,,,,,,,,,,,,,,,,,,,,,,,,,,,,,,,,,,,,,,,,,,,,,,,,,,,,,,,,,,,,,,,
,,,,3,0.965,,,,,,62,kitchen,rose,,89419,001,2022-04-28_19h59.36.879,SPAMnetsValid,2021.1.4,Win32,59.9880024,,,,,,,,,,,,,3,0.965,0,70,70,57,1,,,,,,,,,,,,,,,,,,,,,,,,,,,,,,,,,,,,,,,,,,,,,,,,,,,,,,,,,,,,,,,,,,,,,,
,,,,2,0.8022,,,,,,17,carrot,melon,,89419,001,2022-04-28_19h59.36.879,SPAMnetsValid,2021.1.4,Win32,59.9880024,,,,,,,,,,,,,2,0.8022,0,71,71,24,1,,,,,,,,,,,,,,,,,,,,,,,,,,,,,,,,,,,,,,,,,,,,,,,,,,,,,,,,,,,,,,,,,,,,,,
,,,,4,1.5244,,,,,,43,chocolate,tomato,,89419,001,2022-04-28_19h59.36.879,SPAMnetsValid,2021.1.4,Win32,59.9880024,,,,,,,,,,,,,4,1.5244,0,72,72,8,1,,,,,,,,,,,,,,,,,,,,,,,,,,,,,,,,,,,,,,,,,,,,,,,,,,,,,,,,,,,,,,,,,,,,,,
,,,,2,1.4897,,,,,,83,broom,carrot,,89419,001,2022-04-28_19h59.36.879,SPAMnetsValid,2021.1.4,Win32,59.9880024,,,,,,,,,,,,,2,1.4897,0,73,73,4,1,,,,,,,,,,,,,,,,,,,,,,,,,,,,,,,,,,,,,,,,,,,,,,,,,,,,,,,,,,,,,,,,,,,,,,
,,,,6,2.1577,,,,,,47,onion,tomato,,89419,001,2022-04-28_19h59.36.879,SPAMnetsValid,2021.1.4,Win32,59.9880024,,,,,,,,,,,,,6,2.1577,0,74,74,51,1,,,,,,,,,,,,,,,,,,,,,,,,,,,,,,,,,,,,,,,,,,,,,,,,,,,,,,,,,,,,,,,,,,,,,,
,,,,4,1.1691,,,,,,40,broom,cake,,89419,001,2022-04-28_19h59.36.879,SPAMnetsValid,2021.1.4,Win32,59.9880024,,,,,,,,,,,,,4,1.1691,0,75,75,32,1,,,,,,,,,,,,,,,,,,,,,,,,,,,,,,,,,,,,,,,,,,,,,,,,,,,,,,,,,,,,,,,,,,,,,,
,,,,3,2.6487,,,,,,29,chocolate,melon,,89419,001,2022-04-28_19h59.36.879,SPAMnetsValid,2021.1.4,Win32,59.9880024,,,,,,,,,,,,,3,2.6487,0,76,76,34,1,,,,,,,,,,,,,,,,,,,,,,,,,,,,,,,,,,,,,,,,,,,,,,,,,,,,,,,,,,,,,,,,,,,,,,
,,,,6,2.3002,,,,,,22,kitchen,strawberry,,89419,001,2022-04-28_19h59.36.879,SPAMnetsValid,2021.1.4,Win32,59.9880024,,,,,,,,,,,,,6,2.3002,0,77,77,2,1,,,,,,,,,,,,,,,,,,,,,,,,,,,,,,,,,,,,,,,,,,,,,,,,,,,,,,,,,,,,,,,,,,,,,,
,,,,2,3.4107,,,,,,31,cactus,pretzel,,89419,001,2022-04-28_19h59.36.879,SPAMnetsValid,2021.1.4,Win32,59.9880024,,,,,,,,,,,,,2,3.4107,0,78,78,1,1,,,,,,,,,,,,,,,,,,,,,,,,,,,,,,,,,,,,,,,,,,,,,,,,,,,,,,,,,,,,,,,,,,,,,,
,,,,7,2.4253,,,,,,6,garden,onion,,89419,001,2022-04-28_19h59.36.879,SPAMnetsValid,2021.1.4,Win32,59.9880024,,,,,,,,,,,,,7,2.4253,0,79,79,83,1,,,,,,,,,,,,,,,,,,,,,,,,,,,,,,,,,,,,,,,,,,,,,,,,,,,,,,,,,,,,,,,,,,,,,,
,,,,3,2.2494,,,,,,73,broom,chocolate,,89419,001,2022-04-28_19h59.36.879,SPAMnetsValid,2021.1.4,Win32,59.9880024,,,,,,,,,,,,,3,2.2494,0,80,80,47,1,,,,,,,,,,,,,,,,,,,,,,,,,,,,,,,,,,,,,,,,,,,,,,,,,,,,,,,,,,,,,,,,,,,,,,
,,,,2,1.8192,,,,,,88,cactus,melon,,89419,001,2022-04-28_19h59.36.879,SPAMnetsValid,2021.1.4,Win32,59.9880024,,,,,,,,,,,,,2,1.8192,0,81,81,38,1,,,,,,,,,,,,,,,,,,,,,,,,,,,,,,,,,,,,,,,,,,,,,,,,,,,,,,,,,,,,,,,,,,,,,,
,,,,2,1.9036,,,,,,71,broom,rose,,89419,001,2022-04-28_19h59.36.879,SPAMnetsValid,2021.1.4,Win32,59.9880024,,,,,,,,,,,,,2,1.9036,0,82,82,61,1,,,,,,,,,,,,,,,,,,,,,,,,,,,,,,,,,,,,,,,,,,,,,,,,,,,,,,,,,,,,,,,,,,,,,,
,,,,4,5.3431,,,,,,51,onion,strawberry,,89419,001,2022-04-28_19h59.36.879,SPAMnetsValid,2021.1.4,Win32,59.9880024,,,,,,,,,,,,,4,5.3431,0,83,83,86,1,,,,,,,,,,,,,,,,,,,,,,,,,,,,,,,,,,,,,,,,,,,,,,,,,,,,,,,,,,,,,,,,,,,,,,
,,,,7,1.8197,,,,,,4,chocolate,pretzel,,89419,001,2022-04-28_19h59.36.879,SPAMnetsValid,2021.1.4,Win32,59.9880024,,,,,,,,,,,,,7,1.8197,0,84,84,52,1,,,,,,,,,,,,,,,,,,,,,,,,,,,,,,,,,,,,,,,,,,,,,,,,,,,,,,,,,,,,,,,,,,,,,,
,,,,8,2.2317,,,,,,94,kitchen,microwave,,89419,001,2022-04-28_19h59.36.879,SPAMnetsValid,2021.1.4,Win32,59.9880024,,,,,,,,,,,,,8,2.2317,0,85,85,58,1,,,,,,,,,,,,,,,,,,,,,,,,,,,,,,,,,,,,,,,,,,,,,,,,,,,,,,,,,,,,,,,,,,,,,,
,,,,7,2.0608,,,,,,79,garden,strawberry,,89419,001,2022-04-28_19h59.36.879,SPAMnetsValid,2021.1.4,Win32,59.9880024,,,,,,,,,,,,,7,2.0608,0,86,86,87,1,,,,,,,,,,,,,,,,,,,,,,,,,,,,,,,,,,,,,,,,,,,,,,,,,,,,,,,,,,,,,,,,,,,,,,
,,,,4,5.4397,,,,,,59,rose,strawberry,,89419,001,2022-04-28_19h59.36.879,SPAMnetsValid,2021.1.4,Win32,59.9880024,,,,,,,,,,,,,4,5.4397,0,87,87,72,1,,,,,,,,,,,,,,,,,,,,,,,,,,,,,,,,,,,,,,,,,,,,,,,,,,,,,,,,,,,,,,,,,,,,,,
,,,,5,7.2597,,,,,,49,flower,strawberry,,89419,001,2022-04-28_19h59.36.879,SPAMnetsValid,2021.1.4,Win32,59.9880024,,,,,,,,,,,,,5,7.2597,0,88,88,3,1,,,,,,,,,,,,,,,,,,,,,,,,,,,,,,,,,,,,,,,,,,,,,,,,,,,,,,,,,,,,,,,,,,,,,,
,,,,3,2.5428,,,,,,2,kitchen,onion,,89419,001,2022-04-28_19h59.36.879,SPAMnetsValid,2021.1.4,Win32,59.9880024,,,,,,,,,,,,,3,2.5428,0,89,89,91,1,,,,,,,,,,,,,,,,,,,,,,,,,,,,,,,,,,,,,,,,,,,,,,,,,,,,,,,,,,,,,,,,,,,,,,
,,,,3,1.2213,,,,,,46,garden,yogurt,,89419,001,2022-04-28_19h59.36.879,SPAMnetsValid,2021.1.4,Win32,59.9880024,,,,,,,,,,,,,3,1.2213,0,90,90,65,1,,,,,,,,,,,,,,,,,,,,,,,,,,,,,,,,,,,,,,,,,,,,,,,,,,,,,,,,,,,,,,,,,,,,,,
,,,,2,4.8203,,,,,,65,broom,garden,,89419,001,2022-04-28_19h59.36.879,SPAMnetsValid,2021.1.4,Win32,59.9880024,,,,,,,,,,,,,2,4.8203,0,91,91,23,1,,,,,,,,,,,,,,,,,,,,,,,,,,,,,,,,,,,,,,,,,,,,,,,,,,,,,,,,,,,,,,,,,,,,,,
,,,,3,1.38,,,,,,80,chocolate,tree,,89419,001,2022-04-28_19h59.36.879,SPAMnetsValid,2021.1.4,Win32,59.9880024,,,,,,,,,,,,,3,1.38,0,92,92,89,1,,,,,,,,,,,,,,,,,,,,,,,,,,,,,,,,,,,,,,,,,,,,,,,,,,,,,,,,,,,,,,,,,,,,,,
,,,,6,1.9403,,,,,,76,garden,rose,,89419,001,2022-04-28_19h59.36.879,SPAMnetsValid,2021.1.4,Win32,59.9880024,,,,,,,,,,,,,6,1.9403,0,93,93,19,1,,,,,,,,,,,,,,,,,,,,,,,,,,,,,,,,,,,,,,,,,,,,,,,,,,,,,,,,,,,,,,,,,,,,,,
,,,,4,1.8875,,,,,,75,cookie,onion,,89419,001,2022-04-28_19h59.36.879,SPAMnetsValid,2021.1.4,Win32,59.9880024,,,,,,,,,,,,,4,1.8875,0,94,94,9,1,,,,,,,,,,,,,,,,,,,,,,,,,,,,,,,,,,,,,,,,,,,,,,,,,,,,,,,,,,,,,,,,,,,,,,
,,,,3,1.7564,,,,,,53,garden,pretzel,,89419,001,2022-04-28_19h59.36.879,SPAMnetsValid,2021.1.4,Win32,59.9880024,,,,,,,,,,,,,3,1.7564,0,95,95,0,1,,,,,,,,,,,,,,,,,,,,,,,,,,,,,,,,,,,,,,,,,,,,,,,,,,,,,,,,,,,,,,,,,,,,,,
,,,,2,3.9571,,,,,,44,cookie,melon,,89419,001,2022-04-28_19h59.36.879,SPAMnetsValid,2021.1.4,Win32,59.9880024,,,,,,,,,,,,,2,3.9571,0,96,96,92,1,,,,,,,,,,,,,,,,,,,,,,,,,,,,,,,,,,,,,,,,,,,,,,,,,,,,,,,,,,,,,,,,,,,,,,
,,,,,,,,,,,,,,,89419,001,2022-04-28_19h59.36.879,SPAMnetsValid,2021.1.4,Win32,59.9880024,,,,,,,,,,,,,,,,,,,,0,0,0,0,1,,,,,,,,,,,,,,,,,,,,,,,,,,,,,,,,,,,,,,,,,,,,,,,,,,,,,,,,,,,,,,,,,
,,,,,,,,,,,,,,,89419,001,2022-04-28_19h59.36.879,SPAMnetsValid,2021.1.4,Win32,59.9880024,,,,,,0,1,1,0,1,1,0,,,,,,,,,,,,,,,,,,,,,,,,,,,,,,,,,,,,,,,,,,,,,,,,,,,,,,,,,,,,,,,,,,,,,,,,,,,,,
,,,,,,,,,,,,,,,89419,001,2022-04-28_19h59.36.879,SPAMnetsValid,2021.1.4,Win32,59.9880024,,,,,,,,,,,,,,,,,,,,,,,,,3,31.0779,0,0,0,0,1,rancor,forbearance,ridicule,malice,bravery,3,,,,,,,,,,,,,,,,,,,,,,,,,,,,,,,,,,,,,,,,,,,,,,,,,,,,
,,,,,,,,,,,,,,,89419,001,2022-04-28_19h59.36.879,SPAMnetsValid,2021.1.4,Win32,59.9880024,,,,,,,,,,,,,,,,,,,,,,,,,4,18.3489,0,1,1,1,1,raucous,empty,quiet,smooth,harsh,4,,,,,,,,,,,,,,,,,,,,,,,,,,,,,,,,,,,,,,,,,,,,,,,,,,,,
,,,,,,,,,,,,,,,89419,001,2022-04-28_19h59.36.879,SPAMnetsValid,2021.1.4,Win32,59.9880024,,,,,,,,,,,,,,,,,,,,,,,,,3,14.8823,0,2,2,2,1,gargoyle,oil,medicine,carved waterspout,ugly building,3,,,,,,,,,,,,,,,,,,,,,,,,,,,,,,,,,,,,,,,,,,,,,,,,,,,,
,,,,,,,,,,,,,,,89419,001,2022-04-28_19h59.36.879,SPAMnetsValid,2021.1.4,Win32,59.9880024,,,,,,,,,,,,,,,,,,,,,,,,,2,20.9003,0,3,3,3,1,recrudesce,purify,renew activity,lack refinement,crush,2,,,,,,,,,,,,,,,,,,,,,,,,,,,,,,,,,,,,,,,,,,,,,,,,,,,,
,,,,,,,,,,,,,,,89419,001,2022-04-28_19h59.36.879,SPAMnetsValid,2021.1.4,Win32,59.9880024,,,,,,,,,,,,,,,,,,,,,,,,,1,12.4954,0,4,4,4,1,specious,"plausible, but not genuine",noteworthy,class or variety,roomy,1,,,,,,,,,,,,,,,,,,,,,,,,,,,,,,,,,,,,,,,,,,,,,,,,,,,,
,,,,,,,,,,,,,,,89419,001,2022-04-28_19h59.36.879,SPAMnetsValid,2021.1.4,Win32,59.9880024,,,,,,,,,,,,,,,,,,,,,,,,,2,8.8889,0,5,5,5,1,bauble,bubble,showy plaything,idle talk,confusion,2,,,,,,,,,,,,,,,,,,,,,,,,,,,,,,,,,,,,,,,,,,,,,,,,,,,,
,,,,,,,,,,,,,,,89419,001,2022-04-28_19h59.36.879,SPAMnetsValid,2021.1.4,Win32,59.9880024,,,,,,,,,,,,,,,,,,,,,,,,,2,5.2757,0,6,6,6,1,prolific,scarce,producing abundantly,reckless,speaking profanely,2,,,,,,,,,,,,,,,,,,,,,,,,,,,,,,,,,,,,,,,,,,,,,,,,,,,,
,,,,,,,,,,,,,,,89419,001,2022-04-28_19h59.36.879,SPAMnetsValid,2021.1.4,Win32,59.9880024,,,,,,,,,,,,,,,,,,,,,,,,,3,4.6623,0,7,7,7,1,opulent,party,wealthy,happy frame of mind,semiprecious stone,2,,,,,,,,,,,,,,,,,,,,,,,,,,,,,,,,,,,,,,,,,,,,,,,,,,,,
,,,,,,,,,,,,,,,89419,001,2022-04-28_19h59.36.879,SPAMnetsValid,2021.1.4,Win32,59.9880024,,,,,,,,,,,,,,,,,,,,,,,,,2,7.4838,0,8,8,8,1,coercion,conspiracy,strategy,restraint,attraction,3,,,,,,,,,,,,,,,,,,,,,,,,,,,,,,,,,,,,,,,,,,,,,,,,,,,,
,,,,,,,,,,,,,,,89419,001,2022-04-28_19h59.36.879,SPAMnetsValid,2021.1.4,Win32,59.9880024,,,,,,,,,,,,,,,,,,,,,,,,,2,11.6949,0,9,9,9,1,hiatus,animal,calamity,dread,gap,4,,,,,,,,,,,,,,,,,,,,,,,,,,,,,,,,,,,,,,,,,,,,,,,,,,,,
,,,,,,,,,,,,,,,89419,001,2022-04-28_19h59.36.879,SPAMnetsValid,2021.1.4,Win32,59.9880024,,,,,,,,,,,,,,,,,,,,,,,,,,,0,10,10,10,1,germane,microbe,contagious,relevant,different,3,,,,,,,,,,,,,,,,,,,,,,,,,,,,,,,,,,,,,,,,,,,,,,,,,,,,
,,,,,,,,,,,,,,,89419,001,2022-04-28_19h59.36.879,SPAMnetsValid,2021.1.4,Win32,59.9880024,,,,,,,,,,,,,,,,,,,,,,,,,1,5.9771,0,11,11,11,1,perfunctory,fundamental,formal,superficial,careful,3,,,,,,,,,,,,,,,,,,,,,,,,,,,,,,,,,,,,,,,,,,,,,,,,,,,,
,,,,,,,,,,,,,,,89419,001,2022-04-28_19h59.36.879,SPAMnetsValid,2021.1.4,Win32,59.9880024,,,,,,,,,,,,,,,,,,,,,,,,,3,6.4685,0,12,12,12,1,diverge,reveal,chant,distract the attention of,differ or turn off from,4,,,,,,,,,,,,,,,,,,,,,,,,,,,,,,,,,,,,,,,,,,,,,,,,,,,,
,,,,,,,,,,,,,,,89419,001,2022-04-28_19h59.36.879,SPAMnetsValid,2021.1.4,Win32,59.9880024,,,,,,,,,,,,,,,,,,,,,,,,,2,2.094,0,13,13,13,1,evoke,take away,anger,connect,bring out,4,,,,,,,,,,,,,,,,,,,,,,,,,,,,,,,,,,,,,,,,,,,,,,,,,,,,
,,,,,,,,,,,,,,,89419,001,2022-04-28_19h59.36.879,SPAMnetsValid,2021.1.4,Win32,59.9880024,,,,,,,,,,,,,,,,,,,,,,,,,1,6.7621,0,14,14,14,1,pertinent,relevant,lying next to,necessary,bold,1,,,,,,,,,,,,,,,,,,,,,,,,,,,,,,,,,,,,,,,,,,,,,,,,,,,,
,,,,,,,,,,,,,,,89419,001,2022-04-28_19h59.36.879,SPAMnetsValid,2021.1.4,Win32,59.9880024,,,,,,,,,,,,,,,,,,,,,,,,,2,55.6096,0,15,15,15,1,holocaust,entirety,destruction,saintly,price,2,,,,,,,,,,,,,,,,,,,,,,,,,,,,,,,,,,,,,,,,,,,,,,,,,,,,
,,,,,,,,,,,,,,,89419,001,2022-04-28_19h59.36.879,SPAMnetsValid,2021.1.4,Win32,59.9880024,,,,,,,,,,,,,,,,,,,,,,,,,1,6.051,0,16,16,16,1,piquant,mellow,fish,pungent,cloth,3,,,,,,,,,,,,,,,,,,,,,,,,,,,,,,,,,,,,,,,,,,,,,,,,,,,,
,,,,,,,,,,,,,,,89419,001,2022-04-28_19h59.36.879,SPAMnetsValid,2021.1.4,Win32,59.9880024,,,,,,,,,,,,,,,,,,,,,,,,,3,1.8984,0,17,17,17,1,firmament,foundation,heavens,strong,glue,2,,,,,,,,,,,,,,,,,,,,,,,,,,,,,,,,,,,,,,,,,,,,,,,,,,,,
,,,,,,,,,,,,,,,89419,001,2022-04-28_19h59.36.879,SPAMnetsValid,2021.1.4,Win32,59.9880024,,,,,,,,,,,,,,,,,,,,,,,,,,,,,,,,,,,,,,3,2.9753,0,0,0,0,1,marketable,partisan,jocular,marriageable,salable,essential,4,,,,,,,,,,,,,,,,,,,,,,,,,,,,,,,,,,,,,,
,,,,,,,,,,,,,,,89419,001,2022-04-28_19h59.36.879,SPAMnetsValid,2021.1.4,Win32,59.9880024,,,,,,,,,,,,,,,,,,,,,,,,,,,,,,,,,,,,,,4,3.1064,0,1,1,1,1,cottontail,squirrel,poplar,boa,marshy plant,rabbit,5,,,,,,,,,,,,,,,,,,,,,,,,,,,,,,,,,,,,,,
,,,,,,,,,,,,,,,89419,001,2022-04-28_19h59.36.879,SPAMnetsValid,2021.1.4,Win32,59.9880024,,,,,,,,,,,,,,,,,,,,,,,,,,,,,,,,,,,,,,3,3.792,0,2,2,2,1,boggy,afraid,false,marshy,dense,black,3,,,,,,,,,,,,,,,,,,,,,,,,,,,,,,,,,,,,,,
,,,,,,,,,,,,,,,89419,001,2022-04-28_19h59.36.879,SPAMnetsValid,2021.1.4,Win32,59.9880024,,,,,,,,,,,,,,,,,,,,,,,,,,,,,,,,,,,,,,2,13.8168,0,3,3,3,1,gruesomeness,blackness,falseness,vindictiveness,drunkenness,ghastliness,5,,,,,,,,,,,,,,,,,,,,,,,,,,,,,,,,,,,,,,
,,,,,,,,,,,,,,,89419,001,2022-04-28_19h59.36.879,SPAMnetsValid,2021.1.4,Win32,59.9880024,,,,,,,,,,,,,,,,,,,,,,,,,,,,,,,,,,,,,,3,11.7943,0,4,4,4,1,loathing,diffidence,laziness,abhorrence,cleverness,comfort,3,,,,,,,,,,,,,,,,,,,,,,,,,,,,,,,,,,,,,,
,,,,,,,,,,,,,,,89419,001,2022-04-28_19h59.36.879,SPAMnetsValid,2021.1.4,Win32,59.9880024,,,,,,,,,,,,,,,,,,,,,,,,,,,,,,,,,,,,,,2,2.4322,0,5,5,5,1,bantam,fowl,ridicule,cripple,vegetable,ensign,1,,,,,,,,,,,,,,,,,,,,,,,,,,,,,,,,,,,,,,
,,,,,,,,,,,,,,,89419,001,2022-04-28_19h59.36.879,SPAMnetsValid,2021.1.4,Win32,59.9880024,,,,,,,,,,,,,,,,,,,,,,,,,,,,,,,,,,,,,,5,5.123,0,6,6,6,1,evoke,wake up,surrender,reconnoiter,transcend,call forth,5,,,,,,,,,,,,,,,,,,,,,,,,,,,,,,,,,,,,,,
,,,,,,,,,,,,,,,89419,001,2022-04-28_19h59.36.879,SPAMnetsValid,2021.1.4,Win32,59.9880024,,,,,,,,,,,,,,,,,,,,,,,,,,,,,,,,,,,,,,4,16.4976,0,7,7,7,1,unobtrusive,unintelligent,epileptic,illogical,lineal,modest,5,,,,,,,,,,,,,,,,,,,,,,,,,,,,,,,,,,,,,,
,,,,,,,,,,,,,,,89419,001,2022-04-28_19h59.36.879,SPAMnetsValid,2021.1.4,Win32,59.9880024,,,,,,,,,,,,,,,,,,,,,,,,,,,,,,,,,,,,,,3,0.8221,0,8,8,8,1,terrain,ice cream,final test,tractor,area of ground,weight,4,,,,,,,,,,,,,,,,,,,,,,,,,,,,,,,,,,,,,,
,,,,,,,,,,,,,,,89419,001,2022-04-28_19h59.36.879,SPAMnetsValid,2021.1.4,Win32,59.9880024,,,,,,,,,,,,,,,,,,,,,,,,,,,,,,,,,,,,,,2,1.3029,0,9,9,9,1,capriciousness,stubbornness,courage,whimsicality,amazement,greediness,3,,,,,,,,,,,,,,,,,,,,,,,,,,,,,,,,,,,,,,
,,,,,,,,,,,,,,,89419,001,2022-04-28_19h59.36.879,SPAMnetsValid,2021.1.4,Win32,59.9880024,,,,,,,,,,,,,,,,,,,,,,,,,,,,,,,,,,,,,,5,0.4693,0,10,10,10,1,maelstrom,slander,whirlpool,enmity,armor,majolica,2,,,,,,,,,,,,,,,,,,,,,,,,,,,,,,,,,,,,,,
,,,,,,,,,,,,,,,89419,001,2022-04-28_19h59.36.879,SPAMnetsValid,2021.1.4,Win32,59.9880024,,,,,,,,,,,,,,,,,,,,,,,,,,,,,,,,,,,,,,4,0.4859,0,11,11,11,1,tentative,critical,conclusive,authentic,provisional,apprehensive,4,,,,,,,,,,,,,,,,,,,,,,,,,,,,,,,,,,,,,,
,,,,,,,,,,,,,,,89419,001,2022-04-28_19h59.36.879,SPAMnetsValid,2021.1.4,Win32,59.9880024,,,,,,,,,,,,,,,,,,,,,,,,,,,,,,,,,,,,,,1,0.7729,0,12,12,12,1,placate,rehabilitate,plagiarize,depredate,apprise,conciliate,5,,,,,,,,,,,,,,,,,,,,,,,,,,,,,,,,,,,,,,
,,,,,,,,,,,,,,,89419,001,2022-04-28_19h59.36.879,SPAMnetsValid,2021.1.4,Win32,59.9880024,,,,,,,,,,,,,,,,,,,,,,,,,,,,,,,,,,,,,,2,0.4148,0,13,13,13,1,surcease,enlightenment,cessation,inattention,censor,substitution,2,,,,,,,,,,,,,,,,,,,,,,,,,,,,,,,,,,,,,,
,,,,,,,,,,,,,,,89419,001,2022-04-28_19h59.36.879,SPAMnetsValid,2021.1.4,Win32,59.9880024,,,,,,,,,,,,,,,,,,,,,,,,,,,,,,,,,,,,,,3,0.3356,0,14,14,14,1,apathetic,wandering,impassive,hateful,prophetic,overflowing,2,,,,,,,,,,,,,,,,,,,,,,,,,,,,,,,,,,,,,,
,,,,,,,,,,,,,,,89419,001,2022-04-28_19h59.36.879,SPAMnetsValid,2021.1.4,Win32,59.9880024,,,,,,,,,,,,,,,,,,,,,,,,,,,,,,,,,,,,,,4,0.7234,0,15,15,15,1,paternoster,paternalism,patricide,malediction,benediction,prayer,5,,,,,,,,,,,,,,,,,,,,,,,,,,,,,,,,,,,,,,
,,,,,,,,,,,,,,,89419,001,2022-04-28_19h59.36.879,SPAMnetsValid,2021.1.4,Win32,59.9880024,,,,,,,,,,,,,,,,,,,,,,,,,,,,,,,,,,,,,,5,0.4901,0,16,16,16,1,opalescence,opulence,senescence,bankruptcy,iridescence,assiduity,4,,,,,,,,,,,,,,,,,,,,,,,,,,,,,,,,,,,,,,
,,,,,,,,,,,,,,,89419,001,2022-04-28_19h59.36.879,SPAMnetsValid,2021.1.4,Win32,59.9880024,,,,,,,,,,,,,,,,,,,,,,,,,,,,,,,,,,,,,,2,14.8083,0,17,17,17,1,lush,stupid,luxurious,hazy,putrid,languishing,2,,,,,,,,,,,,,,,,,,,,,,,,,,,,,,,,,,,,,,
,,,,,,,,,,,,,,,89419,001,2022-04-28_19h59.36.879,SPAMnetsValid,2021.1.4,Win32,59.9880024,,,,,,,,,,,,,,,,,,,,,,,,,,,,,,,,,,,,,,4,79.7827,0,18,18,18,1,curtailment,expenditure,abandonment,abridgment,improvement,forgery,3,,,,,,,,,,,,,,,,,,,,,,,,,,,,,,,,,,,,,,
,,,,,,,,,,,,,,,89419,001,2022-04-28_19h59.36.879,SPAMnetsValid,2021.1.4,Win32,59.9880024,,,,,,,,,,,,,,,,,,,,,,,,,,,,,,,,,,,,,,1,2.7721,0,19,19,19,1,perversity,adversity,perviousness,travesty,waywardness,gentility,4,,,,,,,,,,,,,,,,,,,,,,,,,,,,,,,,,,,,,,
,,,,,,,,,,,,,,,89419,001,2022-04-28_19h59.36.879,SPAMnetsValid,2021.1.4,Win32,59.9880024,,,,,,,,,,,,,,,,,,,,,,,,,,,,,,,,,,,,,,1,3.4296,0,20,20,20,1,calumnious,complimentary,analogous,slanderous,tempestuous,magnanimous,3,,,,,,,,,,,,,,,,,,,,,,,,,,,,,,,,,,,,,,
,,,,,,,,,,,,,,,89419,001,2022-04-28_19h59.36.879,SPAMnetsValid,2021.1.4,Win32,59.9880024,,,,,,,,,,,,,,,,,,,,,,,,,,,,,,,,,,,,,,4,1.589,0,21,21,21,1,illiberality,bigotry,imbecility,illegibility,cautery,immaturity,1,,,,,,,,,,,,,,,,,,,,,,,,,,,,,,,,,,,,,,
,,,,,,,,,,,,,,,89419,001,2022-04-28_19h59.36.879,SPAMnetsValid,2021.1.4,Win32,59.9880024,,,,,,,,,,,,,,,,,,,,,,,,,,,,,,,,,,,,,,3,0.5719,0,22,22,22,1,clabber,rejoice,gossip,curdle,crow,hobble,3,,,,,,,,,,,,,,,,,,,,,,,,,,,,,,,,,,,,,,
,,,,,,,,,,,,,,,89419,001,2022-04-28_19h59.36.879,SPAMnetsValid,2021.1.4,Win32,59.9880024,,,,,,,,,,,,,,,,,,,,,,,,,,,,,,,,,,,,,,2,0.4439,0,23,23,23,1,sedulousness,diligence,credulousness,seduction,perilousness,frankness,1,,,,,,,,,,,,,,,,,,,,,,,,,,,,,,,,,,,,,,
,,,,,,,,,,,,,,,89419,001,2022-04-28_19h59.36.879,SPAMnetsValid,2021.1.4,Win32,59.9880024,,,,,,,,,,,,,,,,,,,,,,,,,,,,,,,,,,,,,,,,,,,,,,,,,,,,"carry water, use as helmet, put stuff in",bucket,0,0,0,0,1,,,,,,,,,,,,,,,,,,,,,,,,,,,,,,,
,,,,,,,,,,,,,,,89419,001,2022-04-28_19h59.36.879,SPAMnetsValid,2021.1.4,Win32,59.9880024,,,,,,,,,,,,,,,,,,,,,,,,,,,,,,,,,,,,,,,,,,,,,,,,,,,,make sand castles,bucket,1,0,1,0,1,,,,,,,,,,,,,,,,,,,,,,,,,,,,,,,
,,,,,,,,,,,,,,,89419,001,2022-04-28_19h59.36.879,SPAMnetsValid,2021.1.4,Win32,59.9880024,,,,,,,,,,,,,,,,,,,,,,,,,,,,,,,,,,,,,,,,,,,,,,,,,,,,spit in,bucket,2,0,2,0,1,,,,,,,,,,,,,,,,,,,,,,,,,,,,,,,
,,,,,,,,,,,,,,,89419,001,2022-04-28_19h59.36.879,SPAMnetsValid,2021.1.4,Win32,59.9880024,,,,,,,,,,,,,,,,,,,,,,,,,,,,,,,,,,,,,,,,,,,,,,,,,,,,,,,,,,,0,0,0,0,1,bucket,,,,,,,,,,,,,,,,,,,,,,,,,
,,,,,,,,,,,,,,,89419,001,2022-04-28_19h59.36.879,SPAMnetsValid,2021.1.4,Win32,59.9880024,,,,,,,,,,,,,,,,,,,,,,,,,,,,,,,,,,,,,,,,,,,,,,,,,,,,make room smell good,candle,0,0,0,0,1,,,,,,,,,,,,,,,,,,,,,,,,,,,,,,,
,,,,,,,,,,,,,,,89419,001,2022-04-28_19h59.36.879,SPAMnetsValid,2021.1.4,Win32,59.9880024,,,,,,,,,,,,,,,,,,,,,,,,,,,,,,,,,,,,,,,,,,,,,,,,,,,,birthday cake,candle,1,0,1,0,1,,,,,,,,,,,,,,,,,,,,,,,,,,,,,,,
,,,,,,,,,,,,,,,89419,001,2022-04-28_19h59.36.879,SPAMnetsValid,2021.1.4,Win32,59.9880024,,,,,,,,,,,,,,,,,,,,,,,,,,,,,,,,,,,,,,,,,,,,,,,,,,,,light source,candle,2,0,2,0,1,,,,,,,,,,,,,,,,,,,,,,,,,,,,,,,
,,,,,,,,,,,,,,,89419,001,2022-04-28_19h59.36.879,SPAMnetsValid,2021.1.4,Win32,59.9880024,,,,,,,,,,,,,,,,,,,,,,,,,,,,,,,,,,,,,,,,,,,,,,,,,,,,scent,candle,3,0,3,0,1,,,,,,,,,,,,,,,,,,,,,,,,,,,,,,,
,,,,,,,,,,,,,,,89419,001,2022-04-28_19h59.36.879,SPAMnetsValid,2021.1.4,Win32,59.9880024,,,,,,,,,,,,,,,,,,,,,,,,,,,,,,,,,,,,,,,,,,,,,,,,,,,,decoration,candle,4,0,4,0,1,,,,,,,,,,,,,,,,,,,,,,,,,,,,,,,
,,,,,,,,,,,,,,,89419,001,2022-04-28_19h59.36.879,SPAMnetsValid,2021.1.4,Win32,59.9880024,,,,,,,,,,,,,,,,,,,,,,,,,,,,,,,,,,,,,,,,,,,,,,,,,,,,,,,,,,,0,1,1,1,1,candle,,,,,,,,,,,,,,,,,,,,,,,,,
,,,,,,,,,,,,,,,89419,001,2022-04-28_19h59.36.879,SPAMnetsValid,2021.1.4,Win32,59.9880024,,,,,,,,,,,,,,,,,,,,,,,,,,,,,,,,,,,,,,,,,,,,,,,,,,,,sleep,pillow,0,0,0,0,1,,,,,,,,,,,,,,,,,,,,,,,,,,,,,,,
,,,,,,,,,,,,,,,89419,001,2022-04-28_19h59.36.879,SPAMnetsValid,2021.1.4,Win32,59.9880024,,,,,,,,,,,,,,,,,,,,,,,,,,,,,,,,,,,,,,,,,,,,,,,,,,,,for support,pillow,1,0,1,0,1,,,,,,,,,,,,,,,,,,,,,,,,,,,,,,,
,,,,,,,,,,,,,,,89419,001,2022-04-28_19h59.36.879,SPAMnetsValid,2021.1.4,Win32,59.9880024,,,,,,,,,,,,,,,,,,,,,,,,,,,,,,,,,,,,,,,,,,,,,,,,,,,,build fort,pillow,2,0,2,0,1,,,,,,,,,,,,,,,,,,,,,,,,,,,,,,,
,,,,,,,,,,,,,,,89419,001,2022-04-28_19h59.36.879,SPAMnetsValid,2021.1.4,Win32,59.9880024,,,,,,,,,,,,,,,,,,,,,,,,,,,,,,,,,,,,,,,,,,,,,,,,,,,,pillow fight,pillow,3,0,3,0,1,,,,,,,,,,,,,,,,,,,,,,,,,,,,,,,
,,,,,,,,,,,,,,,89419,001,2022-04-28_19h59.36.879,SPAMnetsValid,2021.1.4,Win32,59.9880024,,,,,,,,,,,,,,,,,,,,,,,,,,,,,,,,,,,,,,,,,,,,,,,,,,,,,,,,,,,0,2,2,2,1,pillow,,,,,,,,,,,,,,,,,,,,,,,,,
,,,,,,,,,,,,,,,89419,001,2022-04-28_19h59.36.879,SPAMnetsValid,2021.1.4,Win32,59.9880024,,,,,,,,,,,,,,,,,,,,,,,,,,,,,,,,,,,,,,,,,,,,,,,,,,,,,,,,,,,,,,,,,,Animals,0,0,0,0,1,,,,,,,,,,,,,,,,,,
,,,,,,,,,,,,,,,89419,001,2022-04-28_19h59.36.879,SPAMnetsValid,2021.1.4,Win32,59.9880024,,,,,,,,,,,,,,,,,,,,,,,,,,,,,,,,,,,,,,,,,,,,,,,,,,,,,,,,,,,,,,,,,dog,Animals,1,0,1,0,1,,,,,,,,,,,,,,,,,,
,,,,,,,,,,,,,,,89419,001,2022-04-28_19h59.36.879,SPAMnetsValid,2021.1.4,Win32,59.9880024,,,,,,,,,,,,,,,,,,,,,,,,,,,,,,,,,,,,,,,,,,,,,,,,,,,,,,,,,,,,,,,,,cat,Animals,2,0,2,0,1,,,,,,,,,,,,,,,,,,
,,,,,,,,,,,,,,,89419,001,2022-04-28_19h59.36.879,SPAMnetsValid,2021.1.4,Win32,59.9880024,,,,,,,,,,,,,,,,,,,,,,,,,,,,,,,,,,,,,,,,,,,,,,,,,,,,,,,,,,,,,,,,,lion,Animals,3,0,3,0,1,,,,,,,,,,,,,,,,,,
,,,,,,,,,,,,,,,89419,001,2022-04-28_19h59.36.879,SPAMnetsValid,2021.1.4,Win32,59.9880024,,,,,,,,,,,,,,,,,,,,,,,,,,,,,,,,,,,,,,,,,,,,,,,,,,,,,,,,,,,,,,,,,tiger,Animals,4,0,4,0,1,,,,,,,,,,,,,,,,,,
,,,,,,,,,,,,,,,89419,001,2022-04-28_19h59.36.879,SPAMnetsValid,2021.1.4,Win32,59.9880024,,,,,,,,,,,,,,,,,,,,,,,,,,,,,,,,,,,,,,,,,,,,,,,,,,,,,,,,,,,,,,,,,monkey,Animals,5,0,5,0,1,,,,,,,,,,,,,,,,,,
,,,,,,,,,,,,,,,89419,001,2022-04-28_19h59.36.879,SPAMnetsValid,2021.1.4,Win32,59.9880024,,,,,,,,,,,,,,,,,,,,,,,,,,,,,,,,,,,,,,,,,,,,,,,,,,,,,,,,,,,,,,,,,zebra,Animals,6,0,6,0,1,,,,,,,,,,,,,,,,,,
,,,,,,,,,,,,,,,89419,001,2022-04-28_19h59.36.879,SPAMnetsValid,2021.1.4,Win32,59.9880024,,,,,,,,,,,,,,,,,,,,,,,,,,,,,,,,,,,,,,,,,,,,,,,,,,,,,,,,,,,,,,,,,giraffe,Animals,7,0,7,0,1,,,,,,,,,,,,,,,,,,
,,,,,,,,,,,,,,,89419,001,2022-04-28_19h59.36.879,SPAMnetsValid,2021.1.4,Win32,59.9880024,,,,,,,,,,,,,,,,,,,,,,,,,,,,,,,,,,,,,,,,,,,,,,,,,,,,,,,,,,,,,,,,,elephant,Animals,8,0,8,0,1,,,,,,,,,,,,,,,,,,
,,,,,,,,,,,,,,,89419,001,2022-04-28_19h59.36.879,SPAMnetsValid,2021.1.4,Win32,59.9880024,,,,,,,,,,,,,,,,,,,,,,,,,,,,,,,,,,,,,,,,,,,,,,,,,,,,,,,,,,,,,,,,,fish,Animals,9,0,9,0,1,,,,,,,,,,,,,,,,,,
,,,,,,,,,,,,,,,89419,001,2022-04-28_19h59.36.879,SPAMnetsValid,2021.1.4,Win32,59.9880024,,,,,,,,,,,,,,,,,,,,,,,,,,,,,,,,,,,,,,,,,,,,,,,,,,,,,,,,,,,,,,,,,snake,Animals,10,0,10,0,1,,,,,,,,,,,,,,,,,,
,,,,,,,,,,,,,,,89419,001,2022-04-28_19h59.36.879,SPAMnetsValid,2021.1.4,Win32,59.9880024,,,,,,,,,,,,,,,,,,,,,,,,,,,,,,,,,,,,,,,,,,,,,,,,,,,,,,,,,,,,,,,,,pig,Animals,11,0,11,0,1,,,,,,,,,,,,,,,,,,
,,,,,,,,,,,,,,,89419,001,2022-04-28_19h59.36.879,SPAMnetsValid,2021.1.4,Win32,59.9880024,,,,,,,,,,,,,,,,,,,,,,,,,,,,,,,,,,,,,,,,,,,,,,,,,,,,,,,,,,,,,,,,,ground hog,Animals,12,0,12,0,1,,,,,,,,,,,,,,,,,,
,,,,,,,,,,,,,,,89419,001,2022-04-28_19h59.36.879,SPAMnetsValid,2021.1.4,Win32,59.9880024,,,,,,,,,,,,,,,,,,,,,,,,,,,,,,,,,,,,,,,,,,,,,,,,,,,,,,,,,,,,,,,,,duck,Animals,13,0,13,0,1,,,,,,,,,,,,,,,,,,
,,,,,,,,,,,,,,,89419,001,2022-04-28_19h59.36.879,SPAMnetsValid,2021.1.4,Win32,59.9880024,,,,,,,,,,,,,,,,,,,,,,,,,,,,,,,,,,,,,,,,,,,,,,,,,,,,,,,,,,,,,,,,,swan,Animals,14,0,14,0,1,,,,,,,,,,,,,,,,,,
,,,,,,,,,,,,,,,89419,001,2022-04-28_19h59.36.879,SPAMnetsValid,2021.1.4,Win32,59.9880024,,,,,,,,,,,,,,,,,,,,,,,,,,,,,,,,,,,,,,,,,,,,,,,,,,,,,,,,,,,,,,,,,humans,Animals,15,0,15,0,1,,,,,,,,,,,,,,,,,,
,,,,,,,,,,,,,,,89419,001,2022-04-28_19h59.36.879,SPAMnetsValid,2021.1.4,Win32,59.9880024,,,,,,,,,,,,,,,,,,,,,,,,,,,,,,,,,,,,,,,,,,,,,,,,,,,,,,,,,,,,,,,,,rhino,Animals,16,0,16,0,1,,,,,,,,,,,,,,,,,,
,,,,,,,,,,,,,,,89419,001,2022-04-28_19h59.36.879,SPAMnetsValid,2021.1.4,Win32,59.9880024,,,,,,,,,,,,,,,,,,,,,,,,,,,,,,,,,,,,,,,,,,,,,,,,,,,,,,,,,,,,,,,,,sloth,Animals,17,0,17,0,1,,,,,,,,,,,,,,,,,,
,,,,,,,,,,,,,,,89419,001,2022-04-28_19h59.36.879,SPAMnetsValid,2021.1.4,Win32,59.9880024,,,,,,,,,,,,,,,,,,,,,,,,,,,,,,,,,,,,,,,,,,,,,,,,,,,,,,,,,,,,,,,,,,,,,,,,0,0,0,0,1,Animals,,,,,,,,,,,,
,,,,,,,,,,,,,,,89419,001,2022-04-28_19h59.36.879,SPAMnetsValid,2021.1.4,Win32,59.9880024,,,,,,,,,,,,,,,,,,,,,,,,,,,,,,,,,,,,,,,,,,,,,,,,,,,,,,,,,,,,,,,,,,,,,,,,,,,,,,4,7.4976,0,0,0,0,1,"I enjoy concentrating on a fantasy or daydream and exploring all its possibilities, letting it grow and develop.",0,1,,
,,,,,,,,,,,,,,,89419,001,2022-04-28_19h59.36.879,SPAMnetsValid,2021.1.4,Win32,59.9880024,,,,,,,,,,,,,,,,,,,,,,,,,,,,,,,,,,,,,,,,,,,,,,,,,,,,,,,,,,,,,,,,,,,,,,,,,,,,,,5,2.7318,0,1,1,1,1,I think it's interesting to learn and develop new hobbies.,0,2,,
,,,,,,,,,,,,,,,89419,001,2022-04-28_19h59.36.879,SPAMnetsValid,2021.1.4,Win32,59.9880024,,,,,,,,,,,,,,,,,,,,,,,,,,,,,,,,,,,,,,,,,,,,,,,,,,,,,,,,,,,,,,,,,,,,,,,,,,,,,,3,15.6356,0,2,2,2,1,I am intrigued by the patterns I find in art and nature.,0,3,,
,,,,,,,,,,,,,,,89419,001,2022-04-28_19h59.36.879,SPAMnetsValid,2021.1.4,Win32,59.9880024,,,,,,,,,,,,,,,,,,,,,,,,,,,,,,,,,,,,,,,,,,,,,,,,,,,,,,,,,,,,,,,,,,,,,,,,,,,,,,4,3.7168,0,3,3,3,1,I believe letting students hear controversial speakers can only confuse and mislead them.,1,4,,
,,,,,,,,,,,,,,,89419,001,2022-04-28_19h59.36.879,SPAMnetsValid,2021.1.4,Win32,59.9880024,,,,,,,,,,,,,,,,,,,,,,,,,,,,,,,,,,,,,,,,,,,,,,,,,,,,,,,,,,,,,,,,,,,,,,,,,,,,,,2,3.5825,0,4,4,4,1,Poetry has little or no effect on me.,1,5,,
,,,,,,,,,,,,,,,89419,001,2022-04-28_19h59.36.879,SPAMnetsValid,2021.1.4,Win32,59.9880024,,,,,,,,,,,,,,,,,,,,,,,,,,,,,,,,,,,,,,,,,,,,,,,,,,,,,,,,,,,,,,,,,,,,,,,,,,,,,,2,7.0477,0,5,5,5,1,I would have difficulty just letting my mind wander without control or guidance.,1,6,,
,,,,,,,,,,,,,,,89419,001,2022-04-28_19h59.36.879,SPAMnetsValid,2021.1.4,Win32,59.9880024,,,,,,,,,,,,,,,,,,,,,,,,,,,,,,,,,,,,,,,,,,,,,,,,,,,,,,,,,,,,,,,,,,,,,,,,,,,,,,4,97.5799,0,6,6,6,1,I seldom notice the moods or feelings that different environments produce.,1,7,,
,,,,,,,,,,,,,,,89419,001,2022-04-28_19h59.36.879,SPAMnetsValid,2021.1.4,Win32,59.9880024,,,,,,,,,,,,,,,,,,,,,,,,,,,,,,,,,,,,,,,,,,,,,,,,,,,,,,,,,,,,,,,,,,,,,,,,,,,,,,4,2.2062,0,7,7,7,1,I experience a wide range of emotions or feelings.,0,8,,
,,,,,,,,,,,,,,,89419,001,2022-04-28_19h59.36.879,SPAMnetsValid,2021.1.4,Win32,59.9880024,,,,,,,,,,,,,,,,,,,,,,,,,,,,,,,,,,,,,,,,,,,,,,,,,,,,,,,,,,,,,,,,,,,,,,,,,,,,,,4,2.6265,0,8,8,8,1,"Sometimes when I am reading poetry or looking at a work of art, I feel a chill or wave of excitement.",0,9,,
,,,,,,,,,,,,,,,89419,001,2022-04-28_19h59.36.879,SPAMnetsValid,2021.1.4,Win32,59.9880024,,,,,,,,,,,,,,,,,,,,,,,,,,,,,,,,,,,,,,,,,,,,,,,,,,,,,,,,,,,,,,,,,,,,,,,,,,,,,,3,3.1007,0,9,9,9,1,I have little interest in speculating on the nature of the universe or the human condition.,1,10,,
,,,,,,,,,,,,,,,89419,001,2022-04-28_19h59.36.879,SPAMnetsValid,2021.1.4,Win32,59.9880024,,,,,,,,,,,,,,,,,,,,,,,,,,,,,,,,,,,,,,,,,,,,,,,,,,,,,,,,,,,,,,,,,,,,,,,,,,,,,,4,2.4105,0,10,10,10,1,I have a lot of intellectual curiosity.,0,11,,
,,,,,,,,,,,,,,,89419,001,2022-04-28_19h59.36.879,SPAMnetsValid,2021.1.4,Win32,59.9880024,,,,,,,,,,,,,,,,,,,,,,,,,,,,,,,,,,,,,,,,,,,,,,,,,,,,,,,,,,,,,,,,,,,,,,,,,,,,,,5,2.0159,0,11,11,11,1,I often enjoy playing with theories or abstract ideas.,0,12,,
,,,,,,,,,,,,,,,89419,001,2022-04-28_19h59.36.879,SPAMnetsValid,2021.1.4,Win32,59.9880024,,,,,,,,,,,,,,,,,,,,,,,,,,,,,,,,,,,,,,,,,,,,,,,,,,,,,,,,,,,,,,,,,,,,,,,,,,,,,,,,,,,,,,,,return,8.5089
