key_resp_3.keys,key_resp_3.rt,slider_2.response,slider_2.rt,rjt_rating,rjt_RT,trials_24.thisRepN,trials_24.thisTrialN,trials_24.thisN,trials_24.thisIndex,trials_24.ran,rjt_order,word1,word2,attention,participant,session,date,expName,psychopyVersion,OS,frameRate,trials_4.thisRepN,trials_4.thisTrialN,trials_4.thisN,trials_4.thisIndex,trials_4.ran,trials_5.thisRepN,trials_5.thisTrialN,trials_5.thisN,trials_5.thisIndex,trials_5.ran,repOne,repTwo,slider.response,slider.rt,trials_22.thisRepN,trials_22.thisTrialN,trials_22.thisN,trials_22.thisIndex,trials_22.ran,trials_99.thisRepN,trials_99.thisTrialN,trials_99.thisN,trials_99.thisIndex,trials_99.ran,slider_extend_2.response,slider_extend_2.rt,trials_6.thisRepN,trials_6.thisTrialN,trials_6.thisN,trials_6.thisIndex,trials_6.ran,vCue2,R1,R2,R3,R4,correct,sliderVocab.response,sliderVocab.rt,trials_7.thisRepN,trials_7.thisTrialN,trials_7.thisN,trials_7.thisIndex,trials_7.ran,VocabCue,VR1,VR2,VR3,VR4,VR5,VocabCorrect,AUT_resp,AUT_label,trials.thisRepN,trials.thisTrialN,trials.thisN,trials.thisIndex,trials.ran,trials_2.thisRepN,trials_2.thisTrialN,trials_2.thisN,trials_2.thisIndex,trials_2.ran,aut_prompt,VF_response,VF_tag,trials_16.thisRepN,trials_16.thisTrialN,trials_16.thisN,trials_16.thisIndex,trials_16.ran,trials_17.thisRepN,trials_17.thisTrialN,trials_17.thisN,trials_17.thisIndex,trials_17.ran,VFcond,open_slider.response,open_slider.rt,trials_3.thisRepN,trials_3.thisTrialN,trials_3.thisN,trials_3.thisIndex,trials_3.ran,OpenQ,Rev,OPEN_ORDER,key_resp_2.keys,key_resp_2.rt
return,19.9432,1,3.1205,1,3.1205,0,0,0,20,1,149,broom,tomato,,89429,001,2022-04-29_13h35.33.175,SPAMnetsValid,2021.1.4,Win32,59.76214666,,,,,,,,,,,,,,,,,,,,,,,,,,,,,,,,,,,,,,,,,,,,,,,,,,,,,,,,,,,,,,,,,,,,,,,,,,,,,,,,,,,,,,,,,
,,1,1.6703,1,1.6703,0,1,1,68,1,180,tree,yogurt,,89429,001,2022-04-29_13h35.33.175,SPAMnetsValid,2021.1.4,Win32,59.76214666,,,,,,,,,,,,,,,,,,,,,,,,,,,,,,,,,,,,,,,,,,,,,,,,,,,,,,,,,,,,,,,,,,,,,,,,,,,,,,,,,,,,,,,,,
,,1,1.5897,1,1.5897,0,2,2,58,1,144,cake,garden,,89429,001,2022-04-29_13h35.33.175,SPAMnetsValid,2021.1.4,Win32,59.76214666,,,,,,,,,,,,,,,,,,,,,,,,,,,,,,,,,,,,,,,,,,,,,,,,,,,,,,,,,,,,,,,,,,,,,,,,,,,,,,,,,,,,,,,,,
,,1,1.4506,1,1.4506,0,3,3,63,1,137,microwave,tree,,89429,001,2022-04-29_13h35.33.175,SPAMnetsValid,2021.1.4,Win32,59.76214666,,,,,,,,,,,,,,,,,,,,,,,,,,,,,,,,,,,,,,,,,,,,,,,,,,,,,,,,,,,,,,,,,,,,,,,,,,,,,,,,,,,,,,,,,
,,8,1.8333,8,1.8333,0,4,4,28,1,154,strawberry,yogurt,,89429,001,2022-04-29_13h35.33.175,SPAMnetsValid,2021.1.4,Win32,59.76214666,,,,,,,,,,,,,,,,,,,,,,,,,,,,,,,,,,,,,,,,,,,,,,,,,,,,,,,,,,,,,,,,,,,,,,,,,,,,,,,,,,,,,,,,,
,,1,1.5918,1,1.5918,0,5,5,55,1,143,pretzel,rose,,89429,001,2022-04-29_13h35.33.175,SPAMnetsValid,2021.1.4,Win32,59.76214666,,,,,,,,,,,,,,,,,,,,,,,,,,,,,,,,,,,,,,,,,,,,,,,,,,,,,,,,,,,,,,,,,,,,,,,,,,,,,,,,,,,,,,,,,
,,4,3.1875,4,3.1875,0,6,6,45,1,179,broom,oven,,89429,001,2022-04-29_13h35.33.175,SPAMnetsValid,2021.1.4,Win32,59.76214666,,,,,,,,,,,,,,,,,,,,,,,,,,,,,,,,,,,,,,,,,,,,,,,,,,,,,,,,,,,,,,,,,,,,,,,,,,,,,,,,,,,,,,,,,
,,1,2.0113,1,2.0113,0,7,7,10,1,118,chocolate,oven,,89429,001,2022-04-29_13h35.33.175,SPAMnetsValid,2021.1.4,Win32,59.76214666,,,,,,,,,,,,,,,,,,,,,,,,,,,,,,,,,,,,,,,,,,,,,,,,,,,,,,,,,,,,,,,,,,,,,,,,,,,,,,,,,,,,,,,,,
,,8,1.7327,8,1.7327,0,8,8,36,1,161,kitchen,pretzel,,89429,001,2022-04-29_13h35.33.175,SPAMnetsValid,2021.1.4,Win32,59.76214666,,,,,,,,,,,,,,,,,,,,,,,,,,,,,,,,,,,,,,,,,,,,,,,,,,,,,,,,,,,,,,,,,,,,,,,,,,,,,,,,,,,,,,,,,
,,5,6.5045,5,6.5045,0,9,9,41,1,175,melon,onion,,89429,001,2022-04-29_13h35.33.175,SPAMnetsValid,2021.1.4,Win32,59.76214666,,,,,,,,,,,,,,,,,,,,,,,,,,,,,,,,,,,,,,,,,,,,,,,,,,,,,,,,,,,,,,,,,,,,,,,,,,,,,,,,,,,,,,,,,
,,2,2.3532,2,2.3532,0,10,10,8,1,97,chocolate,kitchen,,89429,001,2022-04-29_13h35.33.175,SPAMnetsValid,2021.1.4,Win32,59.76214666,,,,,,,,,,,,,,,,,,,,,,,,,,,,,,,,,,,,,,,,,,,,,,,,,,,,,,,,,,,,,,,,,,,,,,,,,,,,,,,,,,,,,,,,,
,,9,1.7269,9,1.7269,0,11,11,44,1,116,cake,chocolate,,89429,001,2022-04-29_13h35.33.175,SPAMnetsValid,2021.1.4,Win32,59.76214666,,,,,,,,,,,,,,,,,,,,,,,,,,,,,,,,,,,,,,,,,,,,,,,,,,,,,,,,,,,,,,,,,,,,,,,,,,,,,,,,,,,,,,,,,
,,1,2.9234,1,2.9234,0,12,12,9,1,176,cactus,tomato,,89429,001,2022-04-29_13h35.33.175,SPAMnetsValid,2021.1.4,Win32,59.76214666,,,,,,,,,,,,,,,,,,,,,,,,,,,,,,,,,,,,,,,,,,,,,,,,,,,,,,,,,,,,,,,,,,,,,,,,,,,,,,,,,,,,,,,,,
,,4,2.0563,4,2.0563,0,13,13,78,1,132,broom,tree,,89429,001,2022-04-29_13h35.33.175,SPAMnetsValid,2021.1.4,Win32,59.76214666,,,,,,,,,,,,,,,,,,,,,,,,,,,,,,,,,,,,,,,,,,,,,,,,,,,,,,,,,,,,,,,,,,,,,,,,,,,,,,,,,,,,,,,,,
,,8,2.0549,8,2.0549,0,14,14,42,1,184,oven,pretzel,,89429,001,2022-04-29_13h35.33.175,SPAMnetsValid,2021.1.4,Win32,59.76214666,,,,,,,,,,,,,,,,,,,,,,,,,,,,,,,,,,,,,,,,,,,,,,,,,,,,,,,,,,,,,,,,,,,,,,,,,,,,,,,,,,,,,,,,,
,,3,2.1433,3,2.1433,0,15,15,3,1,129,cactus,refrigerator,,89429,001,2022-04-29_13h35.33.175,SPAMnetsValid,2021.1.4,Win32,59.76214666,,,,,,,,,,,,,,,,,,,,,,,,,,,,,,,,,,,,,,,,,,,,,,,,,,,,,,,,,,,,,,,,,,,,,,,,,,,,,,,,,,,,,,,,,
,,7,1.7465,7,1.7465,0,16,16,35,1,147,cake,refrigerator,,89429,001,2022-04-29_13h35.33.175,SPAMnetsValid,2021.1.4,Win32,59.76214666,,,,,,,,,,,,,,,,,,,,,,,,,,,,,,,,,,,,,,,,,,,,,,,,,,,,,,,,,,,,,,,,,,,,,,,,,,,,,,,,,,,,,,,,,
,,1,3.004,1,3.004,0,17,17,59,1,164,cookie,garden,,89429,001,2022-04-29_13h35.33.175,SPAMnetsValid,2021.1.4,Win32,59.76214666,,,,,,,,,,,,,,,,,,,,,,,,,,,,,,,,,,,,,,,,,,,,,,,,,,,,,,,,,,,,,,,,,,,,,,,,,,,,,,,,,,,,,,,,,
,,1,1.8799,1,1.8799,0,18,18,75,1,178,cactus,carrot,,89429,001,2022-04-29_13h35.33.175,SPAMnetsValid,2021.1.4,Win32,59.76214666,,,,,,,,,,,,,,,,,,,,,,,,,,,,,,,,,,,,,,,,,,,,,,,,,,,,,,,,,,,,,,,,,,,,,,,,,,,,,,,,,,,,,,,,,
,,9,1.857,9,1.857,0,19,19,14,1,120,microwave,oven,,89429,001,2022-04-29_13h35.33.175,SPAMnetsValid,2021.1.4,Win32,59.76214666,,,,,,,,,,,,,,,,,,,,,,,,,,,,,,,,,,,,,,,,,,,,,,,,,,,,,,,,,,,,,,,,,,,,,,,,,,,,,,,,,,,,,,,,,
,,4,3.5387,4,3.5387,0,20,20,37,1,139,carrot,strawberry,,89429,001,2022-04-29_13h35.33.175,SPAMnetsValid,2021.1.4,Win32,59.76214666,,,,,,,,,,,,,,,,,,,,,,,,,,,,,,,,,,,,,,,,,,,,,,,,,,,,,,,,,,,,,,,,,,,,,,,,,,,,,,,,,,,,,,,,,
,,1,1.3067,1,1.3067,0,21,21,34,1,153,carrot,pretzel,,89429,001,2022-04-29_13h35.33.175,SPAMnetsValid,2021.1.4,Win32,59.76214666,,,,,,,,,,,,,,,,,,,,,,,,,,,,,,,,,,,,,,,,,,,,,,,,,,,,,,,,,,,,,,,,,,,,,,,,,,,,,,,,,,,,,,,,,
,,9,2.8595,9,2.8595,0,22,22,33,1,131,cactus,garden,,89429,001,2022-04-29_13h35.33.175,SPAMnetsValid,2021.1.4,Win32,59.76214666,,,,,,,,,,,,,,,,,,,,,,,,,,,,,,,,,,,,,,,,,,,,,,,,,,,,,,,,,,,,,,,,,,,,,,,,,,,,,,,,,,,,,,,,,
,,9,2.5038,9,2.5038,0,23,23,72,1,181,carrot,kitchen,,89429,001,2022-04-29_13h35.33.175,SPAMnetsValid,2021.1.4,Win32,59.76214666,,,,,,,,,,,,,,,,,,,,,,,,,,,,,,,,,,,,,,,,,,,,,,,,,,,,,,,,,,,,,,,,,,,,,,,,,,,,,,,,,,,,,,,,,
,,1,2.2926,1,2.2926,0,24,24,90,1,190,microwave,strawberry,,89429,001,2022-04-29_13h35.33.175,SPAMnetsValid,2021.1.4,Win32,59.76214666,,,,,,,,,,,,,,,,,,,,,,,,,,,,,,,,,,,,,,,,,,,,,,,,,,,,,,,,,,,,,,,,,,,,,,,,,,,,,,,,,,,,,,,,,
,,1,3.1207,1,3.1207,0,25,25,12,1,162,microwave,tomato,,89429,001,2022-04-29_13h35.33.175,SPAMnetsValid,2021.1.4,Win32,59.76214666,,,,,,,,,,,,,,,,,,,,,,,,,,,,,,,,,,,,,,,,,,,,,,,,,,,,,,,,,,,,,,,,,,,,,,,,,,,,,,,,,,,,,,,,,
,,1,2.2088,1,2.2088,0,26,26,6,1,151,microwave,onion,,89429,001,2022-04-29_13h35.33.175,SPAMnetsValid,2021.1.4,Win32,59.76214666,,,,,,,,,,,,,,,,,,,,,,,,,,,,,,,,,,,,,,,,,,,,,,,,,,,,,,,,,,,,,,,,,,,,,,,,,,,,,,,,,,,,,,,,,
,,1,2.2914,1,2.2914,0,27,27,40,1,165,onion,rose,,89429,001,2022-04-29_13h35.33.175,SPAMnetsValid,2021.1.4,Win32,59.76214666,,,,,,,,,,,,,,,,,,,,,,,,,,,,,,,,,,,,,,,,,,,,,,,,,,,,,,,,,,,,,,,,,,,,,,,,,,,,,,,,,,,,,,,,,
,,1,2.882,1,2.882,0,28,28,23,1,148,flower,melon,,89429,001,2022-04-29_13h35.33.175,SPAMnetsValid,2021.1.4,Win32,59.76214666,,,,,,,,,,,,,,,,,,,,,,,,,,,,,,,,,,,,,,,,,,,,,,,,,,,,,,,,,,,,,,,,,,,,,,,,,,,,,,,,,,,,,,,,,
,,9,2.1725,9,2.1725,0,29,29,2,1,174,cake,pretzel,,89429,001,2022-04-29_13h35.33.175,SPAMnetsValid,2021.1.4,Win32,59.76214666,,,,,,,,,,,,,,,,,,,,,,,,,,,,,,,,,,,,,,,,,,,,,,,,,,,,,,,,,,,,,,,,,,,,,,,,,,,,,,,,,,,,,,,,,
,,9,2.8381,9,2.8381,0,30,30,53,1,177,chocolate,strawberry,,89429,001,2022-04-29_13h35.33.175,SPAMnetsValid,2021.1.4,Win32,59.76214666,,,,,,,,,,,,,,,,,,,,,,,,,,,,,,,,,,,,,,,,,,,,,,,,,,,,,,,,,,,,,,,,,,,,,,,,,,,,,,,,,,,,,,,,,
,,1,2.2313,1,2.2313,0,31,31,24,1,169,onion,yogurt,,89429,001,2022-04-29_13h35.33.175,SPAMnetsValid,2021.1.4,Win32,59.76214666,,,,,,,,,,,,,,,,,,,,,,,,,,,,,,,,,,,,,,,,,,,,,,,,,,,,,,,,,,,,,,,,,,,,,,,,,,,,,,,,,,,,,,,,,
,,1,1.6741,1,1.6741,0,32,32,74,1,128,melon,microwave,,89429,001,2022-04-29_13h35.33.175,SPAMnetsValid,2021.1.4,Win32,59.76214666,,,,,,,,,,,,,,,,,,,,,,,,,,,,,,,,,,,,,,,,,,,,,,,,,,,,,,,,,,,,,,,,,,,,,,,,,,,,,,,,,,,,,,,,,
,,1,1.4098,1,1.4098,0,33,33,54,1,101,cactus,kitchen,,89429,001,2022-04-29_13h35.33.175,SPAMnetsValid,2021.1.4,Win32,59.76214666,,,,,,,,,,,,,,,,,,,,,,,,,,,,,,,,,,,,,,,,,,,,,,,,,,,,,,,,,,,,,,,,,,,,,,,,,,,,,,,,,,,,,,,,,
,,9,1.3993,9,1.3993,0,34,34,27,1,158,cookie,oven,,89429,001,2022-04-29_13h35.33.175,SPAMnetsValid,2021.1.4,Win32,59.76214666,,,,,,,,,,,,,,,,,,,,,,,,,,,,,,,,,,,,,,,,,,,,,,,,,,,,,,,,,,,,,,,,,,,,,,,,,,,,,,,,,,,,,,,,,
,,1,1.5929,1,1.5929,0,35,35,49,1,152,cactus,strawberry,,89429,001,2022-04-29_13h35.33.175,SPAMnetsValid,2021.1.4,Win32,59.76214666,,,,,,,,,,,,,,,,,,,,,,,,,,,,,,,,,,,,,,,,,,,,,,,,,,,,,,,,,,,,,,,,,,,,,,,,,,,,,,,,,,,,,,,,,
,,1,1.3414,1,1.3414,0,36,36,4,1,109,broom,strawberry,,89429,001,2022-04-29_13h35.33.175,SPAMnetsValid,2021.1.4,Win32,59.76214666,,,,,,,,,,,,,,,,,,,,,,,,,,,,,,,,,,,,,,,,,,,,,,,,,,,,,,,,,,,,,,,,,,,,,,,,,,,,,,,,,,,,,,,,,
,,5,3.0536,5,3.0536,0,37,37,82,1,98,pretzel,strawberry,,89429,001,2022-04-29_13h35.33.175,SPAMnetsValid,2021.1.4,Win32,59.76214666,,,,,,,,,,,,,,,,,,,,,,,,,,,,,,,,,,,,,,,,,,,,,,,,,,,,,,,,,,,,,,,,,,,,,,,,,,,,,,,,,,,,,,,,,
,,9,1.9406,9,1.9406,0,38,38,61,1,138,flower,rose,,89429,001,2022-04-29_13h35.33.175,SPAMnetsValid,2021.1.4,Win32,59.76214666,,,,,,,,,,,,,,,,,,,,,,,,,,,,,,,,,,,,,,,,,,,,,,,,,,,,,,,,,,,,,,,,,,,,,,,,,,,,,,,,,,,,,,,,,
,,9,1.996,9,1.996,0,39,39,1,1,173,kitchen,tomato,,89429,001,2022-04-29_13h35.33.175,SPAMnetsValid,2021.1.4,Win32,59.76214666,,,,,,,,,,,,,,,,,,,,,,,,,,,,,,,,,,,,,,,,,,,,,,,,,,,,,,,,,,,,,,,,,,,,,,,,,,,,,,,,,,,,,,,,,
,,1,2.1535,1,2.1535,0,40,40,71,1,187,cactus,microwave,,89429,001,2022-04-29_13h35.33.175,SPAMnetsValid,2021.1.4,Win32,59.76214666,,,,,,,,,,,,,,,,,,,,,,,,,,,,,,,,,,,,,,,,,,,,,,,,,,,,,,,,,,,,,,,,,,,,,,,,,,,,,,,,,,,,,,,,,
,,9,1.6801,9,1.6801,0,41,41,25,1,194,cactus,cactus,CHECK,89429,001,2022-04-29_13h35.33.175,SPAMnetsValid,2021.1.4,Win32,59.76214666,,,,,,,,,,,,,,,,,,,,,,,,,,,,,,,,,,,,,,,,,,,,,,,,,,,,,,,,,,,,,,,,,,,,,,,,,,,,,,,,,,,,,,,,,
,,4,3.1567,4,3.1567,0,42,42,18,1,119,strawberry,tree,,89429,001,2022-04-29_13h35.33.175,SPAMnetsValid,2021.1.4,Win32,59.76214666,,,,,,,,,,,,,,,,,,,,,,,,,,,,,,,,,,,,,,,,,,,,,,,,,,,,,,,,,,,,,,,,,,,,,,,,,,,,,,,,,,,,,,,,,
,,4,3.6876,4,3.6876,0,43,43,17,1,99,garden,melon,,89429,001,2022-04-29_13h35.33.175,SPAMnetsValid,2021.1.4,Win32,59.76214666,,,,,,,,,,,,,,,,,,,,,,,,,,,,,,,,,,,,,,,,,,,,,,,,,,,,,,,,,,,,,,,,,,,,,,,,,,,,,,,,,,,,,,,,,
,,1,1.7413,1,1.7413,0,44,44,80,1,146,pretzel,tree,,89429,001,2022-04-29_13h35.33.175,SPAMnetsValid,2021.1.4,Win32,59.76214666,,,,,,,,,,,,,,,,,,,,,,,,,,,,,,,,,,,,,,,,,,,,,,,,,,,,,,,,,,,,,,,,,,,,,,,,,,,,,,,,,,,,,,,,,
,,1,2.3645,1,2.3645,0,45,45,30,1,125,carrot,tree,,89429,001,2022-04-29_13h35.33.175,SPAMnetsValid,2021.1.4,Win32,59.76214666,,,,,,,,,,,,,,,,,,,,,,,,,,,,,,,,,,,,,,,,,,,,,,,,,,,,,,,,,,,,,,,,,,,,,,,,,,,,,,,,,,,,,,,,,
,,1,1.8265,1,1.8265,0,46,46,57,1,127,cactus,chocolate,,89429,001,2022-04-29_13h35.33.175,SPAMnetsValid,2021.1.4,Win32,59.76214666,,,,,,,,,,,,,,,,,,,,,,,,,,,,,,,,,,,,,,,,,,,,,,,,,,,,,,,,,,,,,,,,,,,,,,,,,,,,,,,,,,,,,,,,,
,,9,1.9881,9,1.9881,0,47,47,69,1,124,oven,refrigerator,,89429,001,2022-04-29_13h35.33.175,SPAMnetsValid,2021.1.4,Win32,59.76214666,,,,,,,,,,,,,,,,,,,,,,,,,,,,,,,,,,,,,,,,,,,,,,,,,,,,,,,,,,,,,,,,,,,,,,,,,,,,,,,,,,,,,,,,,
,,9,2.6625,9,2.6625,0,48,48,22,1,142,garden,tree,,89429,001,2022-04-29_13h35.33.175,SPAMnetsValid,2021.1.4,Win32,59.76214666,,,,,,,,,,,,,,,,,,,,,,,,,,,,,,,,,,,,,,,,,,,,,,,,,,,,,,,,,,,,,,,,,,,,,,,,,,,,,,,,,,,,,,,,,
,,1,1.5739,1,1.5739,0,49,49,79,1,103,pretzel,tomato,,89429,001,2022-04-29_13h35.33.175,SPAMnetsValid,2021.1.4,Win32,59.76214666,,,,,,,,,,,,,,,,,,,,,,,,,,,,,,,,,,,,,,,,,,,,,,,,,,,,,,,,,,,,,,,,,,,,,,,,,,,,,,,,,,,,,,,,,
,,1,2.4559,1,2.4559,0,50,50,13,1,105,cactus,oven,,89429,001,2022-04-29_13h35.33.175,SPAMnetsValid,2021.1.4,Win32,59.76214666,,,,,,,,,,,,,,,,,,,,,,,,,,,,,,,,,,,,,,,,,,,,,,,,,,,,,,,,,,,,,,,,,,,,,,,,,,,,,,,,,,,,,,,,,
,,1,2.2168,1,2.2168,0,51,51,21,1,159,cookie,flower,,89429,001,2022-04-29_13h35.33.175,SPAMnetsValid,2021.1.4,Win32,59.76214666,,,,,,,,,,,,,,,,,,,,,,,,,,,,,,,,,,,,,,,,,,,,,,,,,,,,,,,,,,,,,,,,,,,,,,,,,,,,,,,,,,,,,,,,,
,,1,1.8133,1,1.8133,0,52,52,64,1,157,refrigerator,rose,,89429,001,2022-04-29_13h35.33.175,SPAMnetsValid,2021.1.4,Win32,59.76214666,,,,,,,,,,,,,,,,,,,,,,,,,,,,,,,,,,,,,,,,,,,,,,,,,,,,,,,,,,,,,,,,,,,,,,,,,,,,,,,,,,,,,,,,,
,,8,2.2244,8,2.2244,0,53,53,85,1,115,refrigerator,tomato,,89429,001,2022-04-29_13h35.33.175,SPAMnetsValid,2021.1.4,Win32,59.76214666,,,,,,,,,,,,,,,,,,,,,,,,,,,,,,,,,,,,,,,,,,,,,,,,,,,,,,,,,,,,,,,,,,,,,,,,,,,,,,,,,,,,,,,,,
,,9,2.0113,9,2.0113,0,54,54,43,1,185,cactus,rose,,89429,001,2022-04-29_13h35.33.175,SPAMnetsValid,2021.1.4,Win32,59.76214666,,,,,,,,,,,,,,,,,,,,,,,,,,,,,,,,,,,,,,,,,,,,,,,,,,,,,,,,,,,,,,,,,,,,,,,,,,,,,,,,,,,,,,,,,
,,1,4.2664,1,4.2664,0,55,55,94,1,133,cake,flower,,89429,001,2022-04-29_13h35.33.175,SPAMnetsValid,2021.1.4,Win32,59.76214666,,,,,,,,,,,,,,,,,,,,,,,,,,,,,,,,,,,,,,,,,,,,,,,,,,,,,,,,,,,,,,,,,,,,,,,,,,,,,,,,,,,,,,,,,
,,7,2.6427,7,2.6427,0,56,56,48,1,186,kitchen,yogurt,,89429,001,2022-04-29_13h35.33.175,SPAMnetsValid,2021.1.4,Win32,59.76214666,,,,,,,,,,,,,,,,,,,,,,,,,,,,,,,,,,,,,,,,,,,,,,,,,,,,,,,,,,,,,,,,,,,,,,,,,,,,,,,,,,,,,,,,,
,,1,1.5724,1,1.5724,0,57,57,15,1,145,cactus,yogurt,,89429,001,2022-04-29_13h35.33.175,SPAMnetsValid,2021.1.4,Win32,59.76214666,,,,,,,,,,,,,,,,,,,,,,,,,,,,,,,,,,,,,,,,,,,,,,,,,,,,,,,,,,,,,,,,,,,,,,,,,,,,,,,,,,,,,,,,,
,,7,2.824,7,2.824,0,58,58,83,1,100,garden,tomato,,89429,001,2022-04-29_13h35.33.175,SPAMnetsValid,2021.1.4,Win32,59.76214666,,,,,,,,,,,,,,,,,,,,,,,,,,,,,,,,,,,,,,,,,,,,,,,,,,,,,,,,,,,,,,,,,,,,,,,,,,,,,,,,,,,,,,,,,
,,1,2.0897,1,2.0897,0,59,59,70,1,141,melon,tomato,,89429,001,2022-04-29_13h35.33.175,SPAMnetsValid,2021.1.4,Win32,59.76214666,,,,,,,,,,,,,,,,,,,,,,,,,,,,,,,,,,,,,,,,,,,,,,,,,,,,,,,,,,,,,,,,,,,,,,,,,,,,,,,,,,,,,,,,,
,,1,3.3297,1,3.3297,0,60,60,38,1,155,carrot,cookie,,89429,001,2022-04-29_13h35.33.175,SPAMnetsValid,2021.1.4,Win32,59.76214666,,,,,,,,,,,,,,,,,,,,,,,,,,,,,,,,,,,,,,,,,,,,,,,,,,,,,,,,,,,,,,,,,,,,,,,,,,,,,,,,,,,,,,,,,
,,9,1.4324,9,1.4324,0,61,61,65,1,160,cookie,kitchen,,89429,001,2022-04-29_13h35.33.175,SPAMnetsValid,2021.1.4,Win32,59.76214666,,,,,,,,,,,,,,,,,,,,,,,,,,,,,,,,,,,,,,,,,,,,,,,,,,,,,,,,,,,,,,,,,,,,,,,,,,,,,,,,,,,,,,,,,
,,4,5.3637,4,5.3637,0,62,62,76,1,102,chocolate,refrigerator,,89429,001,2022-04-29_13h35.33.175,SPAMnetsValid,2021.1.4,Win32,59.76214666,,,,,,,,,,,,,,,,,,,,,,,,,,,,,,,,,,,,,,,,,,,,,,,,,,,,,,,,,,,,,,,,,,,,,,,,,,,,,,,,,,,,,,,,,
,,1,1.4144,1,1.4144,0,63,63,96,1,136,chocolate,microwave,,89429,001,2022-04-29_13h35.33.175,SPAMnetsValid,2021.1.4,Win32,59.76214666,,,,,,,,,,,,,,,,,,,,,,,,,,,,,,,,,,,,,,,,,,,,,,,,,,,,,,,,,,,,,,,,,,,,,,,,,,,,,,,,,,,,,,,,,
,,1,1.663,1,1.663,0,64,64,16,1,111,carrot,microwave,,89429,001,2022-04-29_13h35.33.175,SPAMnetsValid,2021.1.4,Win32,59.76214666,,,,,,,,,,,,,,,,,,,,,,,,,,,,,,,,,,,,,,,,,,,,,,,,,,,,,,,,,,,,,,,,,,,,,,,,,,,,,,,,,,,,,,,,,
,,1,1.4873,1,1.4873,0,65,65,67,1,96,oven,strawberry,,89429,001,2022-04-29_13h35.33.175,SPAMnetsValid,2021.1.4,Win32,59.76214666,,,,,,,,,,,,,,,,,,,,,,,,,,,,,,,,,,,,,,,,,,,,,,,,,,,,,,,,,,,,,,,,,,,,,,,,,,,,,,,,,,,,,,,,,
,,9,1.9626,9,1.9626,0,66,66,86,1,193,melon,melon,CHECK,89429,001,2022-04-29_13h35.33.175,SPAMnetsValid,2021.1.4,Win32,59.76214666,,,,,,,,,,,,,,,,,,,,,,,,,,,,,,,,,,,,,,,,,,,,,,,,,,,,,,,,,,,,,,,,,,,,,,,,,,,,,,,,,,,,,,,,,
,,1,1.5406,1,1.5406,0,67,67,26,1,107,rose,tomato,,89429,001,2022-04-29_13h35.33.175,SPAMnetsValid,2021.1.4,Win32,59.76214666,,,,,,,,,,,,,,,,,,,,,,,,,,,,,,,,,,,,,,,,,,,,,,,,,,,,,,,,,,,,,,,,,,,,,,,,,,,,,,,,,,,,,,,,,
,,1,1.6828,1,1.6828,0,68,68,5,1,108,carrot,chocolate,,89429,001,2022-04-29_13h35.33.175,SPAMnetsValid,2021.1.4,Win32,59.76214666,,,,,,,,,,,,,,,,,,,,,,,,,,,,,,,,,,,,,,,,,,,,,,,,,,,,,,,,,,,,,,,,,,,,,,,,,,,,,,,,,,,,,,,,,
,,1,1.3733,1,1.3733,0,69,69,50,1,126,kitchen,tree,,89429,001,2022-04-29_13h35.33.175,SPAMnetsValid,2021.1.4,Win32,59.76214666,,,,,,,,,,,,,,,,,,,,,,,,,,,,,,,,,,,,,,,,,,,,,,,,,,,,,,,,,,,,,,,,,,,,,,,,,,,,,,,,,,,,,,,,,
,,6,1.7743,6,1.7743,0,70,70,77,1,172,kitchen,melon,,89429,001,2022-04-29_13h35.33.175,SPAMnetsValid,2021.1.4,Win32,59.76214666,,,,,,,,,,,,,,,,,,,,,,,,,,,,,,,,,,,,,,,,,,,,,,,,,,,,,,,,,,,,,,,,,,,,,,,,,,,,,,,,,,,,,,,,,
,,7,2.4902,7,2.4902,0,71,71,87,1,114,cookie,strawberry,,89429,001,2022-04-29_13h35.33.175,SPAMnetsValid,2021.1.4,Win32,59.76214666,,,,,,,,,,,,,,,,,,,,,,,,,,,,,,,,,,,,,,,,,,,,,,,,,,,,,,,,,,,,,,,,,,,,,,,,,,,,,,,,,,,,,,,,,
,,1,4.089,1,4.089,0,72,72,19,1,183,cake,rose,,89429,001,2022-04-29_13h35.33.175,SPAMnetsValid,2021.1.4,Win32,59.76214666,,,,,,,,,,,,,,,,,,,,,,,,,,,,,,,,,,,,,,,,,,,,,,,,,,,,,,,,,,,,,,,,,,,,,,,,,,,,,,,,,,,,,,,,,
,,4,2.6391,4,2.6391,0,73,73,91,1,166,cake,yogurt,,89429,001,2022-04-29_13h35.33.175,SPAMnetsValid,2021.1.4,Win32,59.76214666,,,,,,,,,,,,,,,,,,,,,,,,,,,,,,,,,,,,,,,,,,,,,,,,,,,,,,,,,,,,,,,,,,,,,,,,,,,,,,,,,,,,,,,,,
,,5,4.1914,5,4.1914,0,74,74,51,1,168,cactus,flower,,89429,001,2022-04-29_13h35.33.175,SPAMnetsValid,2021.1.4,Win32,59.76214666,,,,,,,,,,,,,,,,,,,,,,,,,,,,,,,,,,,,,,,,,,,,,,,,,,,,,,,,,,,,,,,,,,,,,,,,,,,,,,,,,,,,,,,,,
,,1,4.006,1,4.006,0,75,75,81,1,104,garden,microwave,,89429,001,2022-04-29_13h35.33.175,SPAMnetsValid,2021.1.4,Win32,59.76214666,,,,,,,,,,,,,,,,,,,,,,,,,,,,,,,,,,,,,,,,,,,,,,,,,,,,,,,,,,,,,,,,,,,,,,,,,,,,,,,,,,,,,,,,,
,,8,4.0996,8,4.0996,0,76,76,7,1,188,flower,tree,,89429,001,2022-04-29_13h35.33.175,SPAMnetsValid,2021.1.4,Win32,59.76214666,,,,,,,,,,,,,,,,,,,,,,,,,,,,,,,,,,,,,,,,,,,,,,,,,,,,,,,,,,,,,,,,,,,,,,,,,,,,,,,,,,,,,,,,,
,,7,2.4498,7,2.4498,0,77,77,11,1,117,melon,strawberry,,89429,001,2022-04-29_13h35.33.175,SPAMnetsValid,2021.1.4,Win32,59.76214666,,,,,,,,,,,,,,,,,,,,,,,,,,,,,,,,,,,,,,,,,,,,,,,,,,,,,,,,,,,,,,,,,,,,,,,,,,,,,,,,,,,,,,,,,
,,8,1.7279,8,1.7279,0,78,78,0,1,106,cake,strawberry,,89429,001,2022-04-29_13h35.33.175,SPAMnetsValid,2021.1.4,Win32,59.76214666,,,,,,,,,,,,,,,,,,,,,,,,,,,,,,,,,,,,,,,,,,,,,,,,,,,,,,,,,,,,,,,,,,,,,,,,,,,,,,,,,,,,,,,,,
,,1,3.4735,1,3.4735,0,79,79,92,1,170,cookie,microwave,,89429,001,2022-04-29_13h35.33.175,SPAMnetsValid,2021.1.4,Win32,59.76214666,,,,,,,,,,,,,,,,,,,,,,,,,,,,,,,,,,,,,,,,,,,,,,,,,,,,,,,,,,,,,,,,,,,,,,,,,,,,,,,,,,,,,,,,,
,,5,2.773,5,2.773,0,80,80,47,1,167,carrot,garden,,89429,001,2022-04-29_13h35.33.175,SPAMnetsValid,2021.1.4,Win32,59.76214666,,,,,,,,,,,,,,,,,,,,,,,,,,,,,,,,,,,,,,,,,,,,,,,,,,,,,,,,,,,,,,,,,,,,,,,,,,,,,,,,,,,,,,,,,
,,9,4.658,9,4.658,0,81,81,39,1,112,cake,carrot,,89429,001,2022-04-29_13h35.33.175,SPAMnetsValid,2021.1.4,Win32,59.76214666,,,,,,,,,,,,,,,,,,,,,,,,,,,,,,,,,,,,,,,,,,,,,,,,,,,,,,,,,,,,,,,,,,,,,,,,,,,,,,,,,,,,,,,,,
,,1,1.7368,1,1.7368,0,82,82,31,1,156,melon,rose,,89429,001,2022-04-29_13h35.33.175,SPAMnetsValid,2021.1.4,Win32,59.76214666,,,,,,,,,,,,,,,,,,,,,,,,,,,,,,,,,,,,,,,,,,,,,,,,,,,,,,,,,,,,,,,,,,,,,,,,,,,,,,,,,,,,,,,,,
,,1,2.8056,1,2.8056,0,83,83,89,1,140,cookie,refrigerator,,89429,001,2022-04-29_13h35.33.175,SPAMnetsValid,2021.1.4,Win32,59.76214666,,,,,,,,,,,,,,,,,,,,,,,,,,,,,,,,,,,,,,,,,,,,,,,,,,,,,,,,,,,,,,,,,,,,,,,,,,,,,,,,,,,,,,,,,
,,2,2.924,2,2.924,0,84,84,95,1,121,broom,microwave,,89429,001,2022-04-29_13h35.33.175,SPAMnetsValid,2021.1.4,Win32,59.76214666,,,,,,,,,,,,,,,,,,,,,,,,,,,,,,,,,,,,,,,,,,,,,,,,,,,,,,,,,,,,,,,,,,,,,,,,,,,,,,,,,,,,,,,,,
,,1,1.0606,1,1.0606,0,85,85,62,1,189,onion,tree,,89429,001,2022-04-29_13h35.33.175,SPAMnetsValid,2021.1.4,Win32,59.76214666,,,,,,,,,,,,,,,,,,,,,,,,,,,,,,,,,,,,,,,,,,,,,,,,,,,,,,,,,,,,,,,,,,,,,,,,,,,,,,,,,,,,,,,,,
,,1,2.5369,1,2.5369,0,86,86,29,1,163,melon,refrigerator,,89429,001,2022-04-29_13h35.33.175,SPAMnetsValid,2021.1.4,Win32,59.76214666,,,,,,,,,,,,,,,,,,,,,,,,,,,,,,,,,,,,,,,,,,,,,,,,,,,,,,,,,,,,,,,,,,,,,,,,,,,,,,,,,,,,,,,,,
,,1,1.7167,1,1.7167,0,87,87,46,1,123,cookie,tree,,89429,001,2022-04-29_13h35.33.175,SPAMnetsValid,2021.1.4,Win32,59.76214666,,,,,,,,,,,,,,,,,,,,,,,,,,,,,,,,,,,,,,,,,,,,,,,,,,,,,,,,,,,,,,,,,,,,,,,,,,,,,,,,,,,,,,,,,
,,6,3.356,6,3.356,0,88,88,52,1,110,chocolate,cookie,,89429,001,2022-04-29_13h35.33.175,SPAMnetsValid,2021.1.4,Win32,59.76214666,,,,,,,,,,,,,,,,,,,,,,,,,,,,,,,,,,,,,,,,,,,,,,,,,,,,,,,,,,,,,,,,,,,,,,,,,,,,,,,,,,,,,,,,,
,,1,2.5165,1,2.5165,0,89,89,88,1,171,cake,tomato,,89429,001,2022-04-29_13h35.33.175,SPAMnetsValid,2021.1.4,Win32,59.76214666,,,,,,,,,,,,,,,,,,,,,,,,,,,,,,,,,,,,,,,,,,,,,,,,,,,,,,,,,,,,,,,,,,,,,,,,,,,,,,,,,,,,,,,,,
,,9,1.7034,9,1.7034,0,90,90,66,1,150,microwave,refrigerator,,89429,001,2022-04-29_13h35.33.175,SPAMnetsValid,2021.1.4,Win32,59.76214666,,,,,,,,,,,,,,,,,,,,,,,,,,,,,,,,,,,,,,,,,,,,,,,,,,,,,,,,,,,,,,,,,,,,,,,,,,,,,,,,,,,,,,,,,
,,9,3.0637,9,3.0637,0,91,91,60,1,122,flower,garden,,89429,001,2022-04-29_13h35.33.175,SPAMnetsValid,2021.1.4,Win32,59.76214666,,,,,,,,,,,,,,,,,,,,,,,,,,,,,,,,,,,,,,,,,,,,,,,,,,,,,,,,,,,,,,,,,,,,,,,,,,,,,,,,,,,,,,,,,
,,1,1.7131,1,1.7131,0,92,92,32,1,182,flower,refrigerator,,89429,001,2022-04-29_13h35.33.175,SPAMnetsValid,2021.1.4,Win32,59.76214666,,,,,,,,,,,,,,,,,,,,,,,,,,,,,,,,,,,,,,,,,,,,,,,,,,,,,,,,,,,,,,,,,,,,,,,,,,,,,,,,,,,,,,,,,
,,1,2.1985,1,2.1985,0,93,93,93,1,134,carrot,flower,,89429,001,2022-04-29_13h35.33.175,SPAMnetsValid,2021.1.4,Win32,59.76214666,,,,,,,,,,,,,,,,,,,,,,,,,,,,,,,,,,,,,,,,,,,,,,,,,,,,,,,,,,,,,,,,,,,,,,,,,,,,,,,,,,,,,,,,,
,,5,2.6877,5,2.6877,0,94,94,56,1,113,refrigerator,strawberry,,89429,001,2022-04-29_13h35.33.175,SPAMnetsValid,2021.1.4,Win32,59.76214666,,,,,,,,,,,,,,,,,,,,,,,,,,,,,,,,,,,,,,,,,,,,,,,,,,,,,,,,,,,,,,,,,,,,,,,,,,,,,,,,,,,,,,,,,
,,1,2.7531,1,2.7531,0,95,95,73,1,135,carrot,oven,,89429,001,2022-04-29_13h35.33.175,SPAMnetsValid,2021.1.4,Win32,59.76214666,,,,,,,,,,,,,,,,,,,,,,,,,,,,,,,,,,,,,,,,,,,,,,,,,,,,,,,,,,,,,,,,,,,,,,,,,,,,,,,,,,,,,,,,,
,,1,1.4237,1,1.4237,0,96,96,84,1,130,microwave,yogurt,,89429,001,2022-04-29_13h35.33.175,SPAMnetsValid,2021.1.4,Win32,59.76214666,,,,,,,,,,,,,,,,,,,,,,,,,,,,,,,,,,,,,,,,,,,,,,,,,,,,,,,,,,,,,,,,,,,,,,,,,,,,,,,,,,,,,,,,,
,,,,,,,,,,,,,,,89429,001,2022-04-29_13h35.33.175,SPAMnetsValid,2021.1.4,Win32,59.76214666,0,0,0,0,1,,,,,,,,,,,,,,,,,,,,,,,,,,,,,,,,,,,,,,,,,,,,,,,,,,,,,,,,,,,,,,,,,,,,,,,,,,,,,,,,,,,,
,,,,,,,,,,,,,,,89429,001,2022-04-29_13h35.33.175,SPAMnetsValid,2021.1.4,Win32,59.76214666,,,,,,0,0,0,1,1,0,1,,,,,,,,,,,,,,,,,,,,,,,,,,,,,,,,,,,,,,,,,,,,,,,,,,,,,,,,,,,,,,,,,,,,,,,,,,,,,
,,,,1,9.7701,,,,,,78,cookie,rose,,89429,001,2022-04-29_13h35.33.175,SPAMnetsValid,2021.1.4,Win32,59.76214666,,,,,,,,,,,,,1,9.7701,0,0,0,56,1,,,,,,,,,,,,,,,,,,,,,,,,,,,,,,,,,,,,,,,,,,,,,,,,,,,,,,,,,,,,,,,,,,,,,,
,,,,1,1.4574,,,,,,84,oven,tomato,,89429,001,2022-04-29_13h35.33.175,SPAMnetsValid,2021.1.4,Win32,59.76214666,,,,,,,,,,,,,1,1.4574,0,1,1,28,1,,,,,,,,,,,,,,,,,,,,,,,,,,,,,,,,,,,,,,,,,,,,,,,,,,,,,,,,,,,,,,,,,,,,,,
,,,,1,2.4707,,,,,,48,flower,oven,,89429,001,2022-04-29_13h35.33.175,SPAMnetsValid,2021.1.4,Win32,59.76214666,,,,,,,,,,,,,1,2.4707,0,2,2,15,1,,,,,,,,,,,,,,,,,,,,,,,,,,,,,,,,,,,,,,,,,,,,,,,,,,,,,,,,,,,,,,,,,,,,,,
,,,,1,2.1725,,,,,,41,broom,cactus,,89429,001,2022-04-29_13h35.33.175,SPAMnetsValid,2021.1.4,Win32,59.76214666,,,,,,,,,,,,,1,2.1725,0,3,3,46,1,,,,,,,,,,,,,,,,,,,,,,,,,,,,,,,,,,,,,,,,,,,,,,,,,,,,,,,,,,,,,,,,,,,,,,
,,,,5,3.3329,,,,,,12,cookie,yogurt,,89429,001,2022-04-29_13h35.33.175,SPAMnetsValid,2021.1.4,Win32,59.76214666,,,,,,,,,,,,,5,3.3329,0,4,4,36,1,,,,,,,,,,,,,,,,,,,,,,,,,,,,,,,,,,,,,,,,,,,,,,,,,,,,,,,,,,,,,,,,,,,,,,
,,,,9,1.4374,,,,,,191,cake,cake,CHECK,89429,001,2022-04-29_13h35.33.175,SPAMnetsValid,2021.1.4,Win32,59.76214666,,,,,,,,,,,,,9,1.4374,0,5,5,10,1,,,,,,,,,,,,,,,,,,,,,,,,,,,,,,,,,,,,,,,,,,,,,,,,,,,,,,,,,,,,,,,,,,,,,,
,,,,1,1.8393,,,,,,34,melon,oven,,89429,001,2022-04-29_13h35.33.175,SPAMnetsValid,2021.1.4,Win32,59.76214666,,,,,,,,,,,,,1,1.8393,0,6,6,7,1,,,,,,,,,,,,,,,,,,,,,,,,,,,,,,,,,,,,,,,,,,,,,,,,,,,,,,,,,,,,,,,,,,,,,,
,,,,1,1.916,,,,,,90,cactus,cake,,89429,001,2022-04-29_13h35.33.175,SPAMnetsValid,2021.1.4,Win32,59.76214666,,,,,,,,,,,,,1,1.916,0,7,7,85,1,,,,,,,,,,,,,,,,,,,,,,,,,,,,,,,,,,,,,,,,,,,,,,,,,,,,,,,,,,,,,,,,,,,,,,
,,,,1,2.5081,,,,,,17,carrot,melon,,89429,001,2022-04-29_13h35.33.175,SPAMnetsValid,2021.1.4,Win32,59.76214666,,,,,,,,,,,,,1,2.5081,0,8,8,24,1,,,,,,,,,,,,,,,,,,,,,,,,,,,,,,,,,,,,,,,,,,,,,,,,,,,,,,,,,,,,,,,,,,,,,,
,,,,1,1.5567,,,,,,83,broom,carrot,,89429,001,2022-04-29_13h35.33.175,SPAMnetsValid,2021.1.4,Win32,59.76214666,,,,,,,,,,,,,1,1.5567,0,9,9,4,1,,,,,,,,,,,,,,,,,,,,,,,,,,,,,,,,,,,,,,,,,,,,,,,,,,,,,,,,,,,,,,,,,,,,,,
,,,,1,1.1205,,,,,,72,broom,onion,,89429,001,2022-04-29_13h35.33.175,SPAMnetsValid,2021.1.4,Win32,59.76214666,,,,,,,,,,,,,1,1.1205,0,10,10,27,1,,,,,,,,,,,,,,,,,,,,,,,,,,,,,,,,,,,,,,,,,,,,,,,,,,,,,,,,,,,,,,,,,,,,,,
,,,,4,2.2974,,,,,,4,chocolate,pretzel,,89429,001,2022-04-29_13h35.33.175,SPAMnetsValid,2021.1.4,Win32,59.76214666,,,,,,,,,,,,,4,2.2974,0,11,11,52,1,,,,,,,,,,,,,,,,,,,,,,,,,,,,,,,,,,,,,,,,,,,,,,,,,,,,,,,,,,,,,,,,,,,,,,
,,,,4,3.1287,,,,,,47,onion,tomato,,89429,001,2022-04-29_13h35.33.175,SPAMnetsValid,2021.1.4,Win32,59.76214666,,,,,,,,,,,,,4,3.1287,0,12,12,51,1,,,,,,,,,,,,,,,,,,,,,,,,,,,,,,,,,,,,,,,,,,,,,,,,,,,,,,,,,,,,,,,,,,,,,,
,,,,8,4.9669,,,,,,63,cake,cookie,,89429,001,2022-04-29_13h35.33.175,SPAMnetsValid,2021.1.4,Win32,59.76214666,,,,,,,,,,,,,8,4.9669,0,13,13,93,1,,,,,,,,,,,,,,,,,,,,,,,,,,,,,,,,,,,,,,,,,,,,,,,,,,,,,,,,,,,,,,,,,,,,,,
,,,,1,1.1701,,,,,,39,melon,pretzel,,89429,001,2022-04-29_13h35.33.175,SPAMnetsValid,2021.1.4,Win32,59.76214666,,,,,,,,,,,,,1,1.1701,0,14,14,20,1,,,,,,,,,,,,,,,,,,,,,,,,,,,,,,,,,,,,,,,,,,,,,,,,,,,,,,,,,,,,,,,,,,,,,,
,,,,1,3.7587,,,,,,69,carrot,refrigerator,,89429,001,2022-04-29_13h35.33.175,SPAMnetsValid,2021.1.4,Win32,59.76214666,,,,,,,,,,,,,1,3.7587,0,15,15,75,1,,,,,,,,,,,,,,,,,,,,,,,,,,,,,,,,,,,,,,,,,,,,,,,,,,,,,,,,,,,,,,,,,,,,,,
,,,,1,6.8444,,,,,,43,chocolate,tomato,,89429,001,2022-04-29_13h35.33.175,SPAMnetsValid,2021.1.4,Win32,59.76214666,,,,,,,,,,,,,1,6.8444,0,16,16,8,1,,,,,,,,,,,,,,,,,,,,,,,,,,,,,,,,,,,,,,,,,,,,,,,,,,,,,,,,,,,,,,,,,,,,,,
,,,,1,2.2244,,,,,,80,chocolate,tree,,89429,001,2022-04-29_13h35.33.175,SPAMnetsValid,2021.1.4,Win32,59.76214666,,,,,,,,,,,,,1,2.2244,0,17,17,89,1,,,,,,,,,,,,,,,,,,,,,,,,,,,,,,,,,,,,,,,,,,,,,,,,,,,,,,,,,,,,,,,,,,,,,,
,,,,1,1.3915,,,,,,91,microwave,rose,,89429,001,2022-04-29_13h35.33.175,SPAMnetsValid,2021.1.4,Win32,59.76214666,,,,,,,,,,,,,1,1.3915,0,18,18,84,1,,,,,,,,,,,,,,,,,,,,,,,,,,,,,,,,,,,,,,,,,,,,,,,,,,,,,,,,,,,,,,,,,,,,,,
,,,,1,2.1132,,,,,,88,cactus,melon,,89429,001,2022-04-29_13h35.33.175,SPAMnetsValid,2021.1.4,Win32,59.76214666,,,,,,,,,,,,,1,2.1132,0,19,19,38,1,,,,,,,,,,,,,,,,,,,,,,,,,,,,,,,,,,,,,,,,,,,,,,,,,,,,,,,,,,,,,,,,,,,,,,
,,,,1,2.9642,,,,,,36,broom,kitchen,,89429,001,2022-04-29_13h35.33.175,SPAMnetsValid,2021.1.4,Win32,59.76214666,,,,,,,,,,,,,1,2.9642,0,20,20,76,1,,,,,,,,,,,,,,,,,,,,,,,,,,,,,,,,,,,,,,,,,,,,,,,,,,,,,,,,,,,,,,,,,,,,,,
,,,,1,2.0553,,,,,,53,garden,pretzel,,89429,001,2022-04-29_13h35.33.175,SPAMnetsValid,2021.1.4,Win32,59.76214666,,,,,,,,,,,,,1,2.0553,0,21,21,0,1,,,,,,,,,,,,,,,,,,,,,,,,,,,,,,,,,,,,,,,,,,,,,,,,,,,,,,,,,,,,,,,,,,,,,,
,,,,1,1.6445,,,,,,33,oven,yogurt,,89429,001,2022-04-29_13h35.33.175,SPAMnetsValid,2021.1.4,Win32,59.76214666,,,,,,,,,,,,,1,1.6445,0,22,22,31,1,,,,,,,,,,,,,,,,,,,,,,,,,,,,,,,,,,,,,,,,,,,,,,,,,,,,,,,,,,,,,,,,,,,,,,
,,,,1,1.6467,,,,,,57,flower,kitchen,,89429,001,2022-04-29_13h35.33.175,SPAMnetsValid,2021.1.4,Win32,59.76214666,,,,,,,,,,,,,1,1.6467,0,23,23,49,1,,,,,,,,,,,,,,,,,,,,,,,,,,,,,,,,,,,,,,,,,,,,,,,,,,,,,,,,,,,,,,,,,,,,,,
,,,,1,1.976,,,,,,8,broom,melon,,89429,001,2022-04-29_13h35.33.175,SPAMnetsValid,2021.1.4,Win32,59.76214666,,,,,,,,,,,,,1,1.976,0,24,24,59,1,,,,,,,,,,,,,,,,,,,,,,,,,,,,,,,,,,,,,,,,,,,,,,,,,,,,,,,,,,,,,,,,,,,,,,
,,,,1,2.0583,,,,,,32,cake,microwave,,89429,001,2022-04-29_13h35.33.175,SPAMnetsValid,2021.1.4,Win32,59.76214666,,,,,,,,,,,,,1,2.0583,0,25,25,33,1,,,,,,,,,,,,,,,,,,,,,,,,,,,,,,,,,,,,,,,,,,,,,,,,,,,,,,,,,,,,,,,,,,,,,,
,,,,1,2.5976,,,,,,86,oven,rose,,89429,001,2022-04-29_13h35.33.175,SPAMnetsValid,2021.1.4,Win32,59.76214666,,,,,,,,,,,,,1,2.5976,0,26,26,79,1,,,,,,,,,,,,,,,,,,,,,,,,,,,,,,,,,,,,,,,,,,,,,,,,,,,,,,,,,,,,,,,,,,,,,,
,,,,1,1.4077,,,,,,45,onion,pretzel,,89429,001,2022-04-29_13h35.33.175,SPAMnetsValid,2021.1.4,Win32,59.76214666,,,,,,,,,,,,,1,1.4077,0,27,27,69,1,,,,,,,,,,,,,,,,,,,,,,,,,,,,,,,,,,,,,,,,,,,,,,,,,,,,,,,,,,,,,,,,,,,,,,
,,,,1,1.3746,,,,,,46,garden,yogurt,,89429,001,2022-04-29_13h35.33.175,SPAMnetsValid,2021.1.4,Win32,59.76214666,,,,,,,,,,,,,1,1.3746,0,28,28,65,1,,,,,,,,,,,,,,,,,,,,,,,,,,,,,,,,,,,,,,,,,,,,,,,,,,,,,,,,,,,,,,,,,,,,,,
,,,,1,2.6711,,,,,,95,broom,refrigerator,,89429,001,2022-04-29_13h35.33.175,SPAMnetsValid,2021.1.4,Win32,59.76214666,,,,,,,,,,,,,1,2.6711,0,29,29,90,1,,,,,,,,,,,,,,,,,,,,,,,,,,,,,,,,,,,,,,,,,,,,,,,,,,,,,,,,,,,,,,,,,,,,,,
,,,,1,1.6588,,,,,,38,pretzel,refrigerator,,89429,001,2022-04-29_13h35.33.175,SPAMnetsValid,2021.1.4,Win32,59.76214666,,,,,,,,,,,,,1,1.6588,0,30,30,71,1,,,,,,,,,,,,,,,,,,,,,,,,,,,,,,,,,,,,,,,,,,,,,,,,,,,,,,,,,,,,,,,,,,,,,,
,,,,1,2.4416,,,,,,42,garden,kitchen,,89429,001,2022-04-29_13h35.33.175,SPAMnetsValid,2021.1.4,Win32,59.76214666,,,,,,,,,,,,,1,2.4416,0,31,31,29,1,,,,,,,,,,,,,,,,,,,,,,,,,,,,,,,,,,,,,,,,,,,,,,,,,,,,,,,,,,,,,,,,,,,,,,
,,,,1,5.6671,,,,,,74,broom,pretzel,,89429,001,2022-04-29_13h35.33.175,SPAMnetsValid,2021.1.4,Win32,59.76214666,,,,,,,,,,,,,1,5.6671,0,32,32,40,1,,,,,,,,,,,,,,,,,,,,,,,,,,,,,,,,,,,,,,,,,,,,,,,,,,,,,,,,,,,,,,,,,,,,,,
,,,,1,2.0237,,,,,,65,broom,garden,,89429,001,2022-04-29_13h35.33.175,SPAMnetsValid,2021.1.4,Win32,59.76214666,,,,,,,,,,,,,1,2.0237,0,33,33,23,1,,,,,,,,,,,,,,,,,,,,,,,,,,,,,,,,,,,,,,,,,,,,,,,,,,,,,,,,,,,,,,,,,,,,,,
,,,,1,1.492,,,,,,5,oven,tree,,89429,001,2022-04-29_13h35.33.175,SPAMnetsValid,2021.1.4,Win32,59.76214666,,,,,,,,,,,,,1,1.492,0,34,34,70,1,,,,,,,,,,,,,,,,,,,,,,,,,,,,,,,,,,,,,,,,,,,,,,,,,,,,,,,,,,,,,,,,,,,,,,
,,,,1,1.8746,,,,,,15,onion,oven,,89429,001,2022-04-29_13h35.33.175,SPAMnetsValid,2021.1.4,Win32,59.76214666,,,,,,,,,,,,,1,1.8746,0,35,35,39,1,,,,,,,,,,,,,,,,,,,,,,,,,,,,,,,,,,,,,,,,,,,,,,,,,,,,,,,,,,,,,,,,,,,,,,
,,,,3,3.3656,,,,,,79,garden,strawberry,,89429,001,2022-04-29_13h35.33.175,SPAMnetsValid,2021.1.4,Win32,59.76214666,,,,,,,,,,,,,3,3.3656,0,36,36,87,1,,,,,,,,,,,,,,,,,,,,,,,,,,,,,,,,,,,,,,,,,,,,,,,,,,,,,,,,,,,,,,,,,,,,,,
,,,,4,1.2232,,,,,,6,garden,onion,,89429,001,2022-04-29_13h35.33.175,SPAMnetsValid,2021.1.4,Win32,59.76214666,,,,,,,,,,,,,4,1.2232,0,37,37,83,1,,,,,,,,,,,,,,,,,,,,,,,,,,,,,,,,,,,,,,,,,,,,,,,,,,,,,,,,,,,,,,,,,,,,,,
,,,,9,2.4228,,,,,,93,kitchen,oven,,89429,001,2022-04-29_13h35.33.175,SPAMnetsValid,2021.1.4,Win32,59.76214666,,,,,,,,,,,,,9,2.4228,0,38,38,82,1,,,,,,,,,,,,,,,,,,,,,,,,,,,,,,,,,,,,,,,,,,,,,,,,,,,,,,,,,,,,,,,,,,,,,,
,,,,1,2.0112,,,,,,31,cactus,pretzel,,89429,001,2022-04-29_13h35.33.175,SPAMnetsValid,2021.1.4,Win32,59.76214666,,,,,,,,,,,,,1,2.0112,0,39,39,1,1,,,,,,,,,,,,,,,,,,,,,,,,,,,,,,,,,,,,,,,,,,,,,,,,,,,,,,,,,,,,,,,,,,,,,,
,,,,9,1.4313,,,,,,192,microwave,microwave,CHECK,89429,001,2022-04-29_13h35.33.175,SPAMnetsValid,2021.1.4,Win32,59.76214666,,,,,,,,,,,,,9,1.4313,0,40,40,53,1,,,,,,,,,,,,,,,,,,,,,,,,,,,,,,,,,,,,,,,,,,,,,,,,,,,,,,,,,,,,,,,,,,,,,,
,,,,1,10.7473,,,,,,58,garden,oven,,89429,001,2022-04-29_13h35.33.175,SPAMnetsValid,2021.1.4,Win32,59.76214666,,,,,,,,,,,,,1,10.7473,0,41,41,37,1,,,,,,,,,,,,,,,,,,,,,,,,,,,,,,,,,,,,,,,,,,,,,,,,,,,,,,,,,,,,,,,,,,,,,,
,,,,1,1.728,,,,,,44,cookie,melon,,89429,001,2022-04-29_13h35.33.175,SPAMnetsValid,2021.1.4,Win32,59.76214666,,,,,,,,,,,,,1,1.728,0,42,42,92,1,,,,,,,,,,,,,,,,,,,,,,,,,,,,,,,,,,,,,,,,,,,,,,,,,,,,,,,,,,,,,,,,,,,,,,
,,,,1,1.6643,,,,,,92,broom,flower,,89429,001,2022-04-29_13h35.33.175,SPAMnetsValid,2021.1.4,Win32,59.76214666,,,,,,,,,,,,,1,1.6643,0,43,43,88,1,,,,,,,,,,,,,,,,,,,,,,,,,,,,,,,,,,,,,,,,,,,,,,,,,,,,,,,,,,,,,,,,,,,,,,
,,,,4,1.9732,,,,,,25,carrot,onion,,89429,001,2022-04-29_13h35.33.175,SPAMnetsValid,2021.1.4,Win32,59.76214666,,,,,,,,,,,,,4,1.9732,0,44,44,44,1,,,,,,,,,,,,,,,,,,,,,,,,,,,,,,,,,,,,,,,,,,,,,,,,,,,,,,,,,,,,,,,,,,,,,,
,,,,1,1.7547,,,,,,49,flower,strawberry,,89429,001,2022-04-29_13h35.33.175,SPAMnetsValid,2021.1.4,Win32,59.76214666,,,,,,,,,,,,,1,1.7547,0,45,45,3,1,,,,,,,,,,,,,,,,,,,,,,,,,,,,,,,,,,,,,,,,,,,,,,,,,,,,,,,,,,,,,,,,,,,,,,
,,,,1,1.6151,,,,,,23,flower,microwave,,89429,001,2022-04-29_13h35.33.175,SPAMnetsValid,2021.1.4,Win32,59.76214666,,,,,,,,,,,,,1,1.6151,0,46,46,25,1,,,,,,,,,,,,,,,,,,,,,,,,,,,,,,,,,,,,,,,,,,,,,,,,,,,,,,,,,,,,,,,,,,,,,,
,,,,3,2.2532,,,,,,51,onion,strawberry,,89429,001,2022-04-29_13h35.33.175,SPAMnetsValid,2021.1.4,Win32,59.76214666,,,,,,,,,,,,,3,2.2532,0,47,47,86,1,,,,,,,,,,,,,,,,,,,,,,,,,,,,,,,,,,,,,,,,,,,,,,,,,,,,,,,,,,,,,,,,,,,,,,
,,,,1,3.2886,,,,,,28,cake,melon,,89429,001,2022-04-29_13h35.33.175,SPAMnetsValid,2021.1.4,Win32,59.76214666,,,,,,,,,,,,,1,3.2886,0,48,48,54,1,,,,,,,,,,,,,,,,,,,,,,,,,,,,,,,,,,,,,,,,,,,,,,,,,,,,,,,,,,,,,,,,,,,,,,
,,,,4,2.8947,,,,,,61,strawberry,tomato,,89429,001,2022-04-29_13h35.33.175,SPAMnetsValid,2021.1.4,Win32,59.76214666,,,,,,,,,,,,,4,2.8947,0,49,49,80,1,,,,,,,,,,,,,,,,,,,,,,,,,,,,,,,,,,,,,,,,,,,,,,,,,,,,,,,,,,,,,,,,,,,,,,
,,,,1,2.5737,,,,,,14,broom,cookie,,89429,001,2022-04-29_13h35.33.175,SPAMnetsValid,2021.1.4,Win32,59.76214666,,,,,,,,,,,,,1,2.5737,0,50,50,16,1,,,,,,,,,,,,,,,,,,,,,,,,,,,,,,,,,,,,,,,,,,,,,,,,,,,,,,,,,,,,,,,,,,,,,,
,,,,1,1.2564,,,,,,1,rose,yogurt,,89429,001,2022-04-29_13h35.33.175,SPAMnetsValid,2021.1.4,Win32,59.76214666,,,,,,,,,,,,,1,1.2564,0,51,51,55,1,,,,,,,,,,,,,,,,,,,,,,,,,,,,,,,,,,,,,,,,,,,,,,,,,,,,,,,,,,,,,,,,,,,,,,
,,,,9,2.9476,,,,,,56,cactus,tree,,89429,001,2022-04-29_13h35.33.175,SPAMnetsValid,2021.1.4,Win32,59.76214666,,,,,,,,,,,,,9,2.9476,0,52,52,21,1,,,,,,,,,,,,,,,,,,,,,,,,,,,,,,,,,,,,,,,,,,,,,,,,,,,,,,,,,,,,,,,,,,,,,,
,,,,1,2.872,,,,,,70,chocolate,onion,,89429,001,2022-04-29_13h35.33.175,SPAMnetsValid,2021.1.4,Win32,59.76214666,,,,,,,,,,,,,1,2.872,0,53,53,74,1,,,,,,,,,,,,,,,,,,,,,,,,,,,,,,,,,,,,,,,,,,,,,,,,,,,,,,,,,,,,,,,,,,,,,,
,,,,1,1.705,,,,,,89,chocolate,rose,,89429,001,2022-04-29_13h35.33.175,SPAMnetsValid,2021.1.4,Win32,59.76214666,,,,,,,,,,,,,1,1.705,0,54,54,60,1,,,,,,,,,,,,,,,,,,,,,,,,,,,,,,,,,,,,,,,,,,,,,,,,,,,,,,,,,,,,,,,,,,,,,,
,,,,1,1.4786,,,,,,16,chocolate,flower,,89429,001,2022-04-29_13h35.33.175,SPAMnetsValid,2021.1.4,Win32,59.76214666,,,,,,,,,,,,,1,1.4786,0,55,55,22,1,,,,,,,,,,,,,,,,,,,,,,,,,,,,,,,,,,,,,,,,,,,,,,,,,,,,,,,,,,,,,,,,,,,,,,
,,,,9,3.9062,,,,,,3,cake,oven,,89429,001,2022-04-29_13h35.33.175,SPAMnetsValid,2021.1.4,Win32,59.76214666,,,,,,,,,,,,,9,3.9062,0,56,56,30,1,,,,,,,,,,,,,,,,,,,,,,,,,,,,,,,,,,,,,,,,,,,,,,,,,,,,,,,,,,,,,,,,,,,,,,
,,,,1,2.1743,,,,,,50,carrot,rose,,89429,001,2022-04-29_13h35.33.175,SPAMnetsValid,2021.1.4,Win32,59.76214666,,,,,,,,,,,,,1,2.1743,0,57,57,73,1,,,,,,,,,,,,,,,,,,,,,,,,,,,,,,,,,,,,,,,,,,,,,,,,,,,,,,,,,,,,,,,,,,,,,,
,,,,1,3.4414,,,,,,19,microwave,pretzel,,89429,001,2022-04-29_13h35.33.175,SPAMnetsValid,2021.1.4,Win32,59.76214666,,,,,,,,,,,,,1,3.4414,0,58,58,41,1,,,,,,,,,,,,,,,,,,,,,,,,,,,,,,,,,,,,,,,,,,,,,,,,,,,,,,,,,,,,,,,,,,,,,,
,,,,1,3.2056,,,,,,67,flower,yogurt,,89429,001,2022-04-29_13h35.33.175,SPAMnetsValid,2021.1.4,Win32,59.76214666,,,,,,,,,,,,,1,3.2056,0,59,59,12,1,,,,,,,,,,,,,,,,,,,,,,,,,,,,,,,,,,,,,,,,,,,,,,,,,,,,,,,,,,,,,,,,,,,,,,
,,,,1,2.5733,,,,,,85,cake,tree,,89429,001,2022-04-29_13h35.33.175,SPAMnetsValid,2021.1.4,Win32,59.76214666,,,,,,,,,,,,,1,2.5733,0,60,60,18,1,,,,,,,,,,,,,,,,,,,,,,,,,,,,,,,,,,,,,,,,,,,,,,,,,,,,,,,,,,,,,,,,,,,,,,
,,,,4,2.7243,,,,,,22,kitchen,strawberry,,89429,001,2022-04-29_13h35.33.175,SPAMnetsValid,2021.1.4,Win32,59.76214666,,,,,,,,,,,,,4,2.7243,0,61,61,2,1,,,,,,,,,,,,,,,,,,,,,,,,,,,,,,,,,,,,,,,,,,,,,,,,,,,,,,,,,,,,,,,,,,,,,,
,,,,1,1.8729,,,,,,81,pretzel,yogurt,,89429,001,2022-04-29_13h35.33.175,SPAMnetsValid,2021.1.4,Win32,59.76214666,,,,,,,,,,,,,1,1.8729,0,62,62,50,1,,,,,,,,,,,,,,,,,,,,,,,,,,,,,,,,,,,,,,,,,,,,,,,,,,,,,,,,,,,,,,,,,,,,,,
,,,,7,4.9065,,,,,,94,kitchen,microwave,,89429,001,2022-04-29_13h35.33.175,SPAMnetsValid,2021.1.4,Win32,59.76214666,,,,,,,,,,,,,7,4.9065,0,63,63,58,1,,,,,,,,,,,,,,,,,,,,,,,,,,,,,,,,,,,,,,,,,,,,,,,,,,,,,,,,,,,,,,,,,,,,,,
,,,,1,1.2572,,,,,,35,flower,pretzel,,89429,001,2022-04-29_13h35.33.175,SPAMnetsValid,2021.1.4,Win32,59.76214666,,,,,,,,,,,,,1,1.2572,0,64,64,26,1,,,,,,,,,,,,,,,,,,,,,,,,,,,,,,,,,,,,,,,,,,,,,,,,,,,,,,,,,,,,,,,,,,,,,,
,,,,3,1.8807,,,,,,21,cake,onion,,89429,001,2022-04-29_13h35.33.175,SPAMnetsValid,2021.1.4,Win32,59.76214666,,,,,,,,,,,,,3,1.8807,0,65,65,63,1,,,,,,,,,,,,,,,,,,,,,,,,,,,,,,,,,,,,,,,,,,,,,,,,,,,,,,,,,,,,,,,,,,,,,,
,,,,2,0.7869,,,,,,66,melon,yogurt,,89429,001,2022-04-29_13h35.33.175,SPAMnetsValid,2021.1.4,Win32,59.76214666,,,,,,,,,,,,,2,0.7869,0,66,66,48,1,,,,,,,,,,,,,,,,,,,,,,,,,,,,,,,,,,,,,,,,,,,,,,,,,,,,,,,,,,,,,,,,,,,,,,
,,,,4,0.5364,,,,,,54,chocolate,yogurt,,89429,001,2022-04-29_13h35.33.175,SPAMnetsValid,2021.1.4,Win32,59.76214666,,,,,,,,,,,,,4,0.5364,0,67,67,67,1,,,,,,,,,,,,,,,,,,,,,,,,,,,,,,,,,,,,,,,,,,,,,,,,,,,,,,,,,,,,,,,,,,,,,,
,,,,2,0.6044,,,,,,10,flower,onion,,89429,001,2022-04-29_13h35.33.175,SPAMnetsValid,2021.1.4,Win32,59.76214666,,,,,,,,,,,,,2,0.6044,0,68,68,45,1,,,,,,,,,,,,,,,,,,,,,,,,,,,,,,,,,,,,,,,,,,,,,,,,,,,,,,,,,,,,,,,,,,,,,,
,,,,4,0.0763,,,,,,55,tomato,tree,,89429,001,2022-04-29_13h35.33.175,SPAMnetsValid,2021.1.4,Win32,59.76214666,,,,,,,,,,,,,4,0.0763,0,69,69,35,1,,,,,,,,,,,,,,,,,,,,,,,,,,,,,,,,,,,,,,,,,,,,,,,,,,,,,,,,,,,,,,,,,,,,,,
,,,,8,0.7738,,,,,,7,melon,tree,,89429,001,2022-04-29_13h35.33.175,SPAMnetsValid,2021.1.4,Win32,59.76214666,,,,,,,,,,,,,8,0.7738,0,70,70,77,1,,,,,,,,,,,,,,,,,,,,,,,,,,,,,,,,,,,,,,,,,,,,,,,,,,,,,,,,,,,,,,,,,,,,,,
,,,,9,1.5454,,,,,,60,cactus,onion,,89429,001,2022-04-29_13h35.33.175,SPAMnetsValid,2021.1.4,Win32,59.76214666,,,,,,,,,,,,,9,1.5454,0,71,71,81,1,,,,,,,,,,,,,,,,,,,,,,,,,,,,,,,,,,,,,,,,,,,,,,,,,,,,,,,,,,,,,,,,,,,,,,
,,,,3,0.7556,,,,,,9,kitchen,refrigerator,,89429,001,2022-04-29_13h35.33.175,SPAMnetsValid,2021.1.4,Win32,59.76214666,,,,,,,,,,,,,3,0.7556,0,72,72,64,1,,,,,,,,,,,,,,,,,,,,,,,,,,,,,,,,,,,,,,,,,,,,,,,,,,,,,,,,,,,,,,,,,,,,,,
,,,,2,0.6883,,,,,,13,broom,yogurt,,89429,001,2022-04-29_13h35.33.175,SPAMnetsValid,2021.1.4,Win32,59.76214666,,,,,,,,,,,,,2,0.6883,0,73,73,5,1,,,,,,,,,,,,,,,,,,,,,,,,,,,,,,,,,,,,,,,,,,,,,,,,,,,,,,,,,,,,,,,,,,,,,,
,,,,8,0.5365,,,,,,77,refrigerator,yogurt,,89429,001,2022-04-29_13h35.33.175,SPAMnetsValid,2021.1.4,Win32,59.76214666,,,,,,,,,,,,,8,0.5365,0,74,74,42,1,,,,,,,,,,,,,,,,,,,,,,,,,,,,,,,,,,,,,,,,,,,,,,,,,,,,,,,,,,,,,,,,,,,,,,
,,,,4,0.5646,,,,,,62,kitchen,rose,,89429,001,2022-04-29_13h35.33.175,SPAMnetsValid,2021.1.4,Win32,59.76214666,,,,,,,,,,,,,4,0.5646,0,75,75,57,1,,,,,,,,,,,,,,,,,,,,,,,,,,,,,,,,,,,,,,,,,,,,,,,,,,,,,,,,,,,,,,,,,,,,,,
,,,,8,0.7417,,,,,,11,refrigerator,tree,,89429,001,2022-04-29_13h35.33.175,SPAMnetsValid,2021.1.4,Win32,59.76214666,,,,,,,,,,,,,8,0.7417,0,76,76,43,1,,,,,,,,,,,,,,,,,,,,,,,,,,,,,,,,,,,,,,,,,,,,,,,,,,,,,,,,,,,,,,,,,,,,,,
,,,,3,0.5395,,,,,,2,kitchen,onion,,89429,001,2022-04-29_13h35.33.175,SPAMnetsValid,2021.1.4,Win32,59.76214666,,,,,,,,,,,,,3,0.5395,0,77,77,91,1,,,,,,,,,,,,,,,,,,,,,,,,,,,,,,,,,,,,,,,,,,,,,,,,,,,,,,,,,,,,,,,,,,,,,,
,,,,7,0.6569,,,,,,20,rose,tree,,89429,001,2022-04-29_13h35.33.175,SPAMnetsValid,2021.1.4,Win32,59.76214666,,,,,,,,,,,,,7,0.6569,0,78,78,66,1,,,,,,,,,,,,,,,,,,,,,,,,,,,,,,,,,,,,,,,,,,,,,,,,,,,,,,,,,,,,,,,,,,,,,,
,,,,3,0.6248,,,,,,30,cookie,pretzel,,89429,001,2022-04-29_13h35.33.175,SPAMnetsValid,2021.1.4,Win32,59.76214666,,,,,,,,,,,,,3,0.6248,0,79,79,78,1,,,,,,,,,,,,,,,,,,,,,,,,,,,,,,,,,,,,,,,,,,,,,,,,,,,,,,,,,,,,,,,,,,,,,,
,,,,5,0.608,,,,,,37,garden,refrigerator,,89429,001,2022-04-29_13h35.33.175,SPAMnetsValid,2021.1.4,Win32,59.76214666,,,,,,,,,,,,,5,0.608,0,80,80,11,1,,,,,,,,,,,,,,,,,,,,,,,,,,,,,,,,,,,,,,,,,,,,,,,,,,,,,,,,,,,,,,,,,,,,,,
,,,,5,1.1441,,,,,,40,broom,cake,,89429,001,2022-04-29_13h35.33.175,SPAMnetsValid,2021.1.4,Win32,59.76214666,,,,,,,,,,,,,5,1.1441,0,81,81,32,1,,,,,,,,,,,,,,,,,,,,,,,,,,,,,,,,,,,,,,,,,,,,,,,,,,,,,,,,,,,,,,,,,,,,,,
,,,,2,0.6601,,,,,,82,cake,kitchen,,89429,001,2022-04-29_13h35.33.175,SPAMnetsValid,2021.1.4,Win32,59.76214666,,,,,,,,,,,,,2,0.6601,0,82,82,96,1,,,,,,,,,,,,,,,,,,,,,,,,,,,,,,,,,,,,,,,,,,,,,,,,,,,,,,,,,,,,,,,,,,,,,,
,,,,2,0.6584,,,,,,29,chocolate,melon,,89429,001,2022-04-29_13h35.33.175,SPAMnetsValid,2021.1.4,Win32,59.76214666,,,,,,,,,,,,,2,0.6584,0,83,83,34,1,,,,,,,,,,,,,,,,,,,,,,,,,,,,,,,,,,,,,,,,,,,,,,,,,,,,,,,,,,,,,,,,,,,,,,
,,,,5,0.0141,,,,,,26,tomato,yogurt,,89429,001,2022-04-29_13h35.33.175,SPAMnetsValid,2021.1.4,Win32,59.76214666,,,,,,,,,,,,,5,0.0141,0,84,84,13,1,,,,,,,,,,,,,,,,,,,,,,,,,,,,,,,,,,,,,,,,,,,,,,,,,,,,,,,,,,,,,,,,,,,,,,
,,,,4,0.8496,,,,,,73,broom,chocolate,,89429,001,2022-04-29_13h35.33.175,SPAMnetsValid,2021.1.4,Win32,59.76214666,,,,,,,,,,,,,4,0.8496,0,85,85,47,1,,,,,,,,,,,,,,,,,,,,,,,,,,,,,,,,,,,,,,,,,,,,,,,,,,,,,,,,,,,,,,,,,,,,,,
,,,,3,0.7403,,,,,,64,chocolate,garden,,89429,001,2022-04-29_13h35.33.175,SPAMnetsValid,2021.1.4,Win32,59.76214666,,,,,,,,,,,,,3,0.7403,0,86,86,14,1,,,,,,,,,,,,,,,,,,,,,,,,,,,,,,,,,,,,,,,,,,,,,,,,,,,,,,,,,,,,,,,,,,,,,,
,,,,7,0.6992,,,,,,76,garden,rose,,89429,001,2022-04-29_13h35.33.175,SPAMnetsValid,2021.1.4,Win32,59.76214666,,,,,,,,,,,,,7,0.6992,0,87,87,19,1,,,,,,,,,,,,,,,,,,,,,,,,,,,,,,,,,,,,,,,,,,,,,,,,,,,,,,,,,,,,,,,,,,,,,,
,,,,7,0.7129,,,,,,71,broom,rose,,89429,001,2022-04-29_13h35.33.175,SPAMnetsValid,2021.1.4,Win32,59.76214666,,,,,,,,,,,,,7,0.7129,0,88,88,61,1,,,,,,,,,,,,,,,,,,,,,,,,,,,,,,,,,,,,,,,,,,,,,,,,,,,,,,,,,,,,,,,,,,,,,,
,,,,3,0.5766,,,,,,52,carrot,tomato,,89429,001,2022-04-29_13h35.33.175,SPAMnetsValid,2021.1.4,Win32,59.76214666,,,,,,,,,,,,,3,0.5766,0,89,89,95,1,,,,,,,,,,,,,,,,,,,,,,,,,,,,,,,,,,,,,,,,,,,,,,,,,,,,,,,,,,,,,,,,,,,,,,
,,,,3,0.6721,,,,,,75,cookie,onion,,89429,001,2022-04-29_13h35.33.175,SPAMnetsValid,2021.1.4,Win32,59.76214666,,,,,,,,,,,,,3,0.6721,0,90,90,9,1,,,,,,,,,,,,,,,,,,,,,,,,,,,,,,,,,,,,,,,,,,,,,,,,,,,,,,,,,,,,,,,,,,,,,,
,,,,7,0.7083,,,,,,68,flower,tomato,,89429,001,2022-04-29_13h35.33.175,SPAMnetsValid,2021.1.4,Win32,59.76214666,,,,,,,,,,,,,7,0.7083,0,91,91,94,1,,,,,,,,,,,,,,,,,,,,,,,,,,,,,,,,,,,,,,,,,,,,,,,,,,,,,,,,,,,,,,,,,,,,,,
,,,,2,0.6885,,,,,,18,onion,refrigerator,,89429,001,2022-04-29_13h35.33.175,SPAMnetsValid,2021.1.4,Win32,59.76214666,,,,,,,,,,,,,2,0.6885,0,92,92,62,1,,,,,,,,,,,,,,,,,,,,,,,,,,,,,,,,,,,,,,,,,,,,,,,,,,,,,,,,,,,,,,,,,,,,,,
,,,,7,0.6897,,,,,,87,carrot,yogurt,,89429,001,2022-04-29_13h35.33.175,SPAMnetsValid,2021.1.4,Win32,59.76214666,,,,,,,,,,,,,7,0.6897,0,93,93,6,1,,,,,,,,,,,,,,,,,,,,,,,,,,,,,,,,,,,,,,,,,,,,,,,,,,,,,,,,,,,,,,,,,,,,,,
,,,,6,0.8559,,,,,,24,cookie,tomato,,89429,001,2022-04-29_13h35.33.175,SPAMnetsValid,2021.1.4,Win32,59.76214666,,,,,,,,,,,,,6,0.8559,0,94,94,68,1,,,,,,,,,,,,,,,,,,,,,,,,,,,,,,,,,,,,,,,,,,,,,,,,,,,,,,,,,,,,,,,,,,,,,,
,,,,9,0.8211,,,,,,59,rose,strawberry,,89429,001,2022-04-29_13h35.33.175,SPAMnetsValid,2021.1.4,Win32,59.76214666,,,,,,,,,,,,,9,0.8211,0,95,95,72,1,,,,,,,,,,,,,,,,,,,,,,,,,,,,,,,,,,,,,,,,,,,,,,,,,,,,,,,,,,,,,,,,,,,,,,
,,,,2,0.5916,,,,,,27,cactus,cookie,,89429,001,2022-04-29_13h35.33.175,SPAMnetsValid,2021.1.4,Win32,59.76214666,,,,,,,,,,,,,2,0.5916,0,96,96,17,1,,,,,,,,,,,,,,,,,,,,,,,,,,,,,,,,,,,,,,,,,,,,,,,,,,,,,,,,,,,,,,,,,,,,,,
,,,,,,,,,,,,,,,89429,001,2022-04-29_13h35.33.175,SPAMnetsValid,2021.1.4,Win32,59.76214666,,,,,,,,,,,,,,,,,,,,0,0,0,0,1,,,,,,,,,,,,,,,,,,,,,,,,,,,,,,,,,,,,,,,,,,,,,,,,,,,,,,,,,,,,,,,,,
,,,,,,,,,,,,,,,89429,001,2022-04-29_13h35.33.175,SPAMnetsValid,2021.1.4,Win32,59.76214666,,,,,,0,1,1,0,1,1,0,,,,,,,,,,,,,,,,,,,,,,,,,,,,,,,,,,,,,,,,,,,,,,,,,,,,,,,,,,,,,,,,,,,,,,,,,,,,,
,,,,,,,,,,,,,,,89429,001,2022-04-29_13h35.33.175,SPAMnetsValid,2021.1.4,Win32,59.76214666,,,,,,,,,,,,,,,,,,,,,,,,,3,6.7911,0,0,0,0,1,rancor,forbearance,ridicule,malice,bravery,3,,,,,,,,,,,,,,,,,,,,,,,,,,,,,,,,,,,,,,,,,,,,,,,,,,,,
,,,,,,,,,,,,,,,89429,001,2022-04-29_13h35.33.175,SPAMnetsValid,2021.1.4,Win32,59.76214666,,,,,,,,,,,,,,,,,,,,,,,,,4,6.5728,0,1,1,1,1,raucous,empty,quiet,smooth,harsh,4,,,,,,,,,,,,,,,,,,,,,,,,,,,,,,,,,,,,,,,,,,,,,,,,,,,,
,,,,,,,,,,,,,,,89429,001,2022-04-29_13h35.33.175,SPAMnetsValid,2021.1.4,Win32,59.76214666,,,,,,,,,,,,,,,,,,,,,,,,,3,9.2296,0,2,2,2,1,gargoyle,oil,medicine,carved waterspout,ugly building,3,,,,,,,,,,,,,,,,,,,,,,,,,,,,,,,,,,,,,,,,,,,,,,,,,,,,
,,,,,,,,,,,,,,,89429,001,2022-04-29_13h35.33.175,SPAMnetsValid,2021.1.4,Win32,59.76214666,,,,,,,,,,,,,,,,,,,,,,,,,1,15.3738,0,3,3,3,1,recrudesce,purify,renew activity,lack refinement,crush,2,,,,,,,,,,,,,,,,,,,,,,,,,,,,,,,,,,,,,,,,,,,,,,,,,,,,
,,,,,,,,,,,,,,,89429,001,2022-04-29_13h35.33.175,SPAMnetsValid,2021.1.4,Win32,59.76214666,,,,,,,,,,,,,,,,,,,,,,,,,3,4.5043,0,4,4,4,1,specious,"plausible, but not genuine",noteworthy,class or variety,roomy,1,,,,,,,,,,,,,,,,,,,,,,,,,,,,,,,,,,,,,,,,,,,,,,,,,,,,
,,,,,,,,,,,,,,,89429,001,2022-04-29_13h35.33.175,SPAMnetsValid,2021.1.4,Win32,59.76214666,,,,,,,,,,,,,,,,,,,,,,,,,2,11.8421,0,5,5,5,1,bauble,bubble,showy plaything,idle talk,confusion,2,,,,,,,,,,,,,,,,,,,,,,,,,,,,,,,,,,,,,,,,,,,,,,,,,,,,
,,,,,,,,,,,,,,,89429,001,2022-04-29_13h35.33.175,SPAMnetsValid,2021.1.4,Win32,59.76214666,,,,,,,,,,,,,,,,,,,,,,,,,2,15.0235,0,6,6,6,1,prolific,scarce,producing abundantly,reckless,speaking profanely,2,,,,,,,,,,,,,,,,,,,,,,,,,,,,,,,,,,,,,,,,,,,,,,,,,,,,
,,,,,,,,,,,,,,,89429,001,2022-04-29_13h35.33.175,SPAMnetsValid,2021.1.4,Win32,59.76214666,,,,,,,,,,,,,,,,,,,,,,,,,2,7.1601,0,7,7,7,1,opulent,party,wealthy,happy frame of mind,semiprecious stone,2,,,,,,,,,,,,,,,,,,,,,,,,,,,,,,,,,,,,,,,,,,,,,,,,,,,,
,,,,,,,,,,,,,,,89429,001,2022-04-29_13h35.33.175,SPAMnetsValid,2021.1.4,Win32,59.76214666,,,,,,,,,,,,,,,,,,,,,,,,,3,4.0727,0,8,8,8,1,coercion,conspiracy,strategy,restraint,attraction,3,,,,,,,,,,,,,,,,,,,,,,,,,,,,,,,,,,,,,,,,,,,,,,,,,,,,
,,,,,,,,,,,,,,,89429,001,2022-04-29_13h35.33.175,SPAMnetsValid,2021.1.4,Win32,59.76214666,,,,,,,,,,,,,,,,,,,,,,,,,4,4.3885,0,9,9,9,1,hiatus,animal,calamity,dread,gap,4,,,,,,,,,,,,,,,,,,,,,,,,,,,,,,,,,,,,,,,,,,,,,,,,,,,,
,,,,,,,,,,,,,,,89429,001,2022-04-29_13h35.33.175,SPAMnetsValid,2021.1.4,Win32,59.76214666,,,,,,,,,,,,,,,,,,,,,,,,,2,9.8763,0,10,10,10,1,germane,microbe,contagious,relevant,different,3,,,,,,,,,,,,,,,,,,,,,,,,,,,,,,,,,,,,,,,,,,,,,,,,,,,,
,,,,,,,,,,,,,,,89429,001,2022-04-29_13h35.33.175,SPAMnetsValid,2021.1.4,Win32,59.76214666,,,,,,,,,,,,,,,,,,,,,,,,,1,8.6219,0,11,11,11,1,perfunctory,fundamental,formal,superficial,careful,3,,,,,,,,,,,,,,,,,,,,,,,,,,,,,,,,,,,,,,,,,,,,,,,,,,,,
,,,,,,,,,,,,,,,89429,001,2022-04-29_13h35.33.175,SPAMnetsValid,2021.1.4,Win32,59.76214666,,,,,,,,,,,,,,,,,,,,,,,,,3,9.7418,0,12,12,12,1,diverge,reveal,chant,distract the attention of,differ or turn off from,4,,,,,,,,,,,,,,,,,,,,,,,,,,,,,,,,,,,,,,,,,,,,,,,,,,,,
,,,,,,,,,,,,,,,89429,001,2022-04-29_13h35.33.175,SPAMnetsValid,2021.1.4,Win32,59.76214666,,,,,,,,,,,,,,,,,,,,,,,,,4,3.9122,0,13,13,13,1,evoke,take away,anger,connect,bring out,4,,,,,,,,,,,,,,,,,,,,,,,,,,,,,,,,,,,,,,,,,,,,,,,,,,,,
,,,,,,,,,,,,,,,89429,001,2022-04-29_13h35.33.175,SPAMnetsValid,2021.1.4,Win32,59.76214666,,,,,,,,,,,,,,,,,,,,,,,,,4,7.208,0,14,14,14,1,pertinent,relevant,lying next to,necessary,bold,1,,,,,,,,,,,,,,,,,,,,,,,,,,,,,,,,,,,,,,,,,,,,,,,,,,,,
,,,,,,,,,,,,,,,89429,001,2022-04-29_13h35.33.175,SPAMnetsValid,2021.1.4,Win32,59.76214666,,,,,,,,,,,,,,,,,,,,,,,,,2,11.6822,0,15,15,15,1,holocaust,entirety,destruction,saintly,price,2,,,,,,,,,,,,,,,,,,,,,,,,,,,,,,,,,,,,,,,,,,,,,,,,,,,,
,,,,,,,,,,,,,,,89429,001,2022-04-29_13h35.33.175,SPAMnetsValid,2021.1.4,Win32,59.76214666,,,,,,,,,,,,,,,,,,,,,,,,,3,4.7263,0,16,16,16,1,piquant,mellow,fish,pungent,cloth,3,,,,,,,,,,,,,,,,,,,,,,,,,,,,,,,,,,,,,,,,,,,,,,,,,,,,
,,,,,,,,,,,,,,,89429,001,2022-04-29_13h35.33.175,SPAMnetsValid,2021.1.4,Win32,59.76214666,,,,,,,,,,,,,,,,,,,,,,,,,1,5.6195,0,17,17,17,1,firmament,foundation,heavens,strong,glue,2,,,,,,,,,,,,,,,,,,,,,,,,,,,,,,,,,,,,,,,,,,,,,,,,,,,,
,,,,,,,,,,,,,,,89429,001,2022-04-29_13h35.33.175,SPAMnetsValid,2021.1.4,Win32,59.76214666,,,,,,,,,,,,,,,,,,,,,,,,,,,,,,,,,,,,,,4,7.1097,0,0,0,0,1,marketable,partisan,jocular,marriageable,salable,essential,4,,,,,,,,,,,,,,,,,,,,,,,,,,,,,,,,,,,,,,
,,,,,,,,,,,,,,,89429,001,2022-04-29_13h35.33.175,SPAMnetsValid,2021.1.4,Win32,59.76214666,,,,,,,,,,,,,,,,,,,,,,,,,,,,,,,,,,,,,,5,8.1392,0,1,1,1,1,cottontail,squirrel,poplar,boa,marshy plant,rabbit,5,,,,,,,,,,,,,,,,,,,,,,,,,,,,,,,,,,,,,,
,,,,,,,,,,,,,,,89429,001,2022-04-29_13h35.33.175,SPAMnetsValid,2021.1.4,Win32,59.76214666,,,,,,,,,,,,,,,,,,,,,,,,,,,,,,,,,,,,,,4,4.9246,0,2,2,2,1,boggy,afraid,false,marshy,dense,black,3,,,,,,,,,,,,,,,,,,,,,,,,,,,,,,,,,,,,,,
,,,,,,,,,,,,,,,89429,001,2022-04-29_13h35.33.175,SPAMnetsValid,2021.1.4,Win32,59.76214666,,,,,,,,,,,,,,,,,,,,,,,,,,,,,,,,,,,,,,5,4.0558,0,3,3,3,1,gruesomeness,blackness,falseness,vindictiveness,drunkenness,ghastliness,5,,,,,,,,,,,,,,,,,,,,,,,,,,,,,,,,,,,,,,
,,,,,,,,,,,,,,,89429,001,2022-04-29_13h35.33.175,SPAMnetsValid,2021.1.4,Win32,59.76214666,,,,,,,,,,,,,,,,,,,,,,,,,,,,,,,,,,,,,,3,8.188,0,4,4,4,1,loathing,diffidence,laziness,abhorrence,cleverness,comfort,3,,,,,,,,,,,,,,,,,,,,,,,,,,,,,,,,,,,,,,
,,,,,,,,,,,,,,,89429,001,2022-04-29_13h35.33.175,SPAMnetsValid,2021.1.4,Win32,59.76214666,,,,,,,,,,,,,,,,,,,,,,,,,,,,,,,,,,,,,,2,6.5022,0,5,5,5,1,bantam,fowl,ridicule,cripple,vegetable,ensign,1,,,,,,,,,,,,,,,,,,,,,,,,,,,,,,,,,,,,,,
,,,,,,,,,,,,,,,89429,001,2022-04-29_13h35.33.175,SPAMnetsValid,2021.1.4,Win32,59.76214666,,,,,,,,,,,,,,,,,,,,,,,,,,,,,,,,,,,,,,5,5.5808,0,6,6,6,1,evoke,wake up,surrender,reconnoiter,transcend,call forth,5,,,,,,,,,,,,,,,,,,,,,,,,,,,,,,,,,,,,,,
,,,,,,,,,,,,,,,89429,001,2022-04-29_13h35.33.175,SPAMnetsValid,2021.1.4,Win32,59.76214666,,,,,,,,,,,,,,,,,,,,,,,,,,,,,,,,,,,,,,5,8.6717,0,7,7,7,1,unobtrusive,unintelligent,epileptic,illogical,lineal,modest,5,,,,,,,,,,,,,,,,,,,,,,,,,,,,,,,,,,,,,,
,,,,,,,,,,,,,,,89429,001,2022-04-29_13h35.33.175,SPAMnetsValid,2021.1.4,Win32,59.76214666,,,,,,,,,,,,,,,,,,,,,,,,,,,,,,,,,,,,,,4,3.4737,0,8,8,8,1,terrain,ice cream,final test,tractor,area of ground,weight,4,,,,,,,,,,,,,,,,,,,,,,,,,,,,,,,,,,,,,,
,,,,,,,,,,,,,,,89429,001,2022-04-29_13h35.33.175,SPAMnetsValid,2021.1.4,Win32,59.76214666,,,,,,,,,,,,,,,,,,,,,,,,,,,,,,,,,,,,,,1,14.5499,0,9,9,9,1,capriciousness,stubbornness,courage,whimsicality,amazement,greediness,3,,,,,,,,,,,,,,,,,,,,,,,,,,,,,,,,,,,,,,
,,,,,,,,,,,,,,,89429,001,2022-04-29_13h35.33.175,SPAMnetsValid,2021.1.4,Win32,59.76214666,,,,,,,,,,,,,,,,,,,,,,,,,,,,,,,,,,,,,,1,7.5623,0,10,10,10,1,maelstrom,slander,whirlpool,enmity,armor,majolica,2,,,,,,,,,,,,,,,,,,,,,,,,,,,,,,,,,,,,,,
,,,,,,,,,,,,,,,89429,001,2022-04-29_13h35.33.175,SPAMnetsValid,2021.1.4,Win32,59.76214666,,,,,,,,,,,,,,,,,,,,,,,,,,,,,,,,,,,,,,5,7.2885,0,11,11,11,1,tentative,critical,conclusive,authentic,provisional,apprehensive,4,,,,,,,,,,,,,,,,,,,,,,,,,,,,,,,,,,,,,,
,,,,,,,,,,,,,,,89429,001,2022-04-29_13h35.33.175,SPAMnetsValid,2021.1.4,Win32,59.76214666,,,,,,,,,,,,,,,,,,,,,,,,,,,,,,,,,,,,,,4,6.7586,0,12,12,12,1,placate,rehabilitate,plagiarize,depredate,apprise,conciliate,5,,,,,,,,,,,,,,,,,,,,,,,,,,,,,,,,,,,,,,
,,,,,,,,,,,,,,,89429,001,2022-04-29_13h35.33.175,SPAMnetsValid,2021.1.4,Win32,59.76214666,,,,,,,,,,,,,,,,,,,,,,,,,,,,,,,,,,,,,,2,4.0231,0,13,13,13,1,surcease,enlightenment,cessation,inattention,censor,substitution,2,,,,,,,,,,,,,,,,,,,,,,,,,,,,,,,,,,,,,,
,,,,,,,,,,,,,,,89429,001,2022-04-29_13h35.33.175,SPAMnetsValid,2021.1.4,Win32,59.76214666,,,,,,,,,,,,,,,,,,,,,,,,,,,,,,,,,,,,,,2,24.5728,0,14,14,14,1,apathetic,wandering,impassive,hateful,prophetic,overflowing,2,,,,,,,,,,,,,,,,,,,,,,,,,,,,,,,,,,,,,,
,,,,,,,,,,,,,,,89429,001,2022-04-29_13h35.33.175,SPAMnetsValid,2021.1.4,Win32,59.76214666,,,,,,,,,,,,,,,,,,,,,,,,,,,,,,,,,,,,,,2,5.803,0,15,15,15,1,paternoster,paternalism,patricide,malediction,benediction,prayer,5,,,,,,,,,,,,,,,,,,,,,,,,,,,,,,,,,,,,,,
,,,,,,,,,,,,,,,89429,001,2022-04-29_13h35.33.175,SPAMnetsValid,2021.1.4,Win32,59.76214666,,,,,,,,,,,,,,,,,,,,,,,,,,,,,,,,,,,,,,4,12.359,0,16,16,16,1,opalescence,opulence,senescence,bankruptcy,iridescence,assiduity,4,,,,,,,,,,,,,,,,,,,,,,,,,,,,,,,,,,,,,,
,,,,,,,,,,,,,,,89429,001,2022-04-29_13h35.33.175,SPAMnetsValid,2021.1.4,Win32,59.76214666,,,,,,,,,,,,,,,,,,,,,,,,,,,,,,,,,,,,,,2,3.5878,0,17,17,17,1,lush,stupid,luxurious,hazy,putrid,languishing,2,,,,,,,,,,,,,,,,,,,,,,,,,,,,,,,,,,,,,,
,,,,,,,,,,,,,,,89429,001,2022-04-29_13h35.33.175,SPAMnetsValid,2021.1.4,Win32,59.76214666,,,,,,,,,,,,,,,,,,,,,,,,,,,,,,,,,,,,,,3,6.1809,0,18,18,18,1,curtailment,expenditure,abandonment,abridgment,improvement,forgery,3,,,,,,,,,,,,,,,,,,,,,,,,,,,,,,,,,,,,,,
,,,,,,,,,,,,,,,89429,001,2022-04-29_13h35.33.175,SPAMnetsValid,2021.1.4,Win32,59.76214666,,,,,,,,,,,,,,,,,,,,,,,,,,,,,,,,,,,,,,2,7.6066,0,19,19,19,1,perversity,adversity,perviousness,travesty,waywardness,gentility,4,,,,,,,,,,,,,,,,,,,,,,,,,,,,,,,,,,,,,,
,,,,,,,,,,,,,,,89429,001,2022-04-29_13h35.33.175,SPAMnetsValid,2021.1.4,Win32,59.76214666,,,,,,,,,,,,,,,,,,,,,,,,,,,,,,,,,,,,,,3,7.596,0,20,20,20,1,calumnious,complimentary,analogous,slanderous,tempestuous,magnanimous,3,,,,,,,,,,,,,,,,,,,,,,,,,,,,,,,,,,,,,,
,,,,,,,,,,,,,,,89429,001,2022-04-29_13h35.33.175,SPAMnetsValid,2021.1.4,Win32,59.76214666,,,,,,,,,,,,,,,,,,,,,,,,,,,,,,,,,,,,,,4,9.2892,0,21,21,21,1,illiberality,bigotry,imbecility,illegibility,cautery,immaturity,1,,,,,,,,,,,,,,,,,,,,,,,,,,,,,,,,,,,,,,
,,,,,,,,,,,,,,,89429,001,2022-04-29_13h35.33.175,SPAMnetsValid,2021.1.4,Win32,59.76214666,,,,,,,,,,,,,,,,,,,,,,,,,,,,,,,,,,,,,,2,3.7569,0,22,22,22,1,clabber,rejoice,gossip,curdle,crow,hobble,3,,,,,,,,,,,,,,,,,,,,,,,,,,,,,,,,,,,,,,
,,,,,,,,,,,,,,,89429,001,2022-04-29_13h35.33.175,SPAMnetsValid,2021.1.4,Win32,59.76214666,,,,,,,,,,,,,,,,,,,,,,,,,,,,,,,,,,,,,,3,9.3647,0,23,23,23,1,sedulousness,diligence,credulousness,seduction,perilousness,frankness,1,,,,,,,,,,,,,,,,,,,,,,,,,,,,,,,,,,,,,,
,,,,,,,,,,,,,,,89429,001,2022-04-29_13h35.33.175,SPAMnetsValid,2021.1.4,Win32,59.76214666,,,,,,,,,,,,,,,,,,,,,,,,,,,,,,,,,,,,,,,,,,,,,,,,,,,,carry puppies from one place to another,bucket,0,0,0,0,1,,,,,,,,,,,,,,,,,,,,,,,,,,,,,,,
,,,,,,,,,,,,,,,89429,001,2022-04-29_13h35.33.175,SPAMnetsValid,2021.1.4,Win32,59.76214666,,,,,,,,,,,,,,,,,,,,,,,,,,,,,,,,,,,,,,,,,,,,,,,,,,,,make sandcastles,bucket,1,0,1,0,1,,,,,,,,,,,,,,,,,,,,,,,,,,,,,,,
,,,,,,,,,,,,,,,89429,001,2022-04-29_13h35.33.175,SPAMnetsValid,2021.1.4,Win32,59.76214666,,,,,,,,,,,,,,,,,,,,,,,,,,,,,,,,,,,,,,,,,,,,,,,,,,,,take a shower,bucket,2,0,2,0,1,,,,,,,,,,,,,,,,,,,,,,,,,,,,,,,
,,,,,,,,,,,,,,,89429,001,2022-04-29_13h35.33.175,SPAMnetsValid,2021.1.4,Win32,59.76214666,,,,,,,,,,,,,,,,,,,,,,,,,,,,,,,,,,,,,,,,,,,,,,,,,,,,hold your utensils,bucket,3,0,3,0,1,,,,,,,,,,,,,,,,,,,,,,,,,,,,,,,
,,,,,,,,,,,,,,,89429,001,2022-04-29_13h35.33.175,SPAMnetsValid,2021.1.4,Win32,59.76214666,,,,,,,,,,,,,,,,,,,,,,,,,,,,,,,,,,,,,,,,,,,,,,,,,,,,wash crawfish,bucket,4,0,4,0,1,,,,,,,,,,,,,,,,,,,,,,,,,,,,,,,
,,,,,,,,,,,,,,,89429,001,2022-04-29_13h35.33.175,SPAMnetsValid,2021.1.4,Win32,59.76214666,,,,,,,,,,,,,,,,,,,,,,,,,,,,,,,,,,,,,,,,,,,,,,,,,,,,mop the floors,bucket,5,0,5,0,1,,,,,,,,,,,,,,,,,,,,,,,,,,,,,,,
,,,,,,,,,,,,,,,89429,001,2022-04-29_13h35.33.175,SPAMnetsValid,2021.1.4,Win32,59.76214666,,,,,,,,,,,,,,,,,,,,,,,,,,,,,,,,,,,,,,,,,,,,,,,,,,,,throw water at people,bucket,6,0,6,0,1,,,,,,,,,,,,,,,,,,,,,,,,,,,,,,,
,,,,,,,,,,,,,,,89429,001,2022-04-29_13h35.33.175,SPAMnetsValid,2021.1.4,Win32,59.76214666,,,,,,,,,,,,,,,,,,,,,,,,,,,,,,,,,,,,,,,,,,,,,,,,,,,,hold a plant,bucket,7,0,7,0,1,,,,,,,,,,,,,,,,,,,,,,,,,,,,,,,
,,,,,,,,,,,,,,,89429,001,2022-04-29_13h35.33.175,SPAMnetsValid,2021.1.4,Win32,59.76214666,,,,,,,,,,,,,,,,,,,,,,,,,,,,,,,,,,,,,,,,,,,,,,,,,,,,make a hat,bucket,8,0,8,0,1,,,,,,,,,,,,,,,,,,,,,,,,,,,,,,,
,,,,,,,,,,,,,,,89429,001,2022-04-29_13h35.33.175,SPAMnetsValid,2021.1.4,Win32,59.76214666,,,,,,,,,,,,,,,,,,,,,,,,,,,,,,,,,,,,,,,,,,,,,,,,,,,,hold water,bucket,9,0,9,0,1,,,,,,,,,,,,,,,,,,,,,,,,,,,,,,,
,,,,,,,,,,,,,,,89429,001,2022-04-29_13h35.33.175,SPAMnetsValid,2021.1.4,Win32,59.76214666,,,,,,,,,,,,,,,,,,,,,,,,,,,,,,,,,,,,,,,,,,,,,,,,,,,,,,,,,,,0,0,0,0,1,bucket,,,,,,,,,,,,,,,,,,,,,,,,,
,,,,,,,,,,,,,,,89429,001,2022-04-29_13h35.33.175,SPAMnetsValid,2021.1.4,Win32,59.76214666,,,,,,,,,,,,,,,,,,,,,,,,,,,,,,,,,,,,,,,,,,,,,,,,,,,,make a wax seal,candle,0,0,0,0,1,,,,,,,,,,,,,,,,,,,,,,,,,,,,,,,
,,,,,,,,,,,,,,,89429,001,2022-04-29_13h35.33.175,SPAMnetsValid,2021.1.4,Win32,59.76214666,,,,,,,,,,,,,,,,,,,,,,,,,,,,,,,,,,,,,,,,,,,,,,,,,,,,practice withcraft,candle,1,0,1,0,1,,,,,,,,,,,,,,,,,,,,,,,,,,,,,,,
,,,,,,,,,,,,,,,89429,001,2022-04-29_13h35.33.175,SPAMnetsValid,2021.1.4,Win32,59.76214666,,,,,,,,,,,,,,,,,,,,,,,,,,,,,,,,,,,,,,,,,,,,,,,,,,,,put on a cake,candle,2,0,2,0,1,,,,,,,,,,,,,,,,,,,,,,,,,,,,,,,
,,,,,,,,,,,,,,,89429,001,2022-04-29_13h35.33.175,SPAMnetsValid,2021.1.4,Win32,59.76214666,,,,,,,,,,,,,,,,,,,,,,,,,,,,,,,,,,,,,,,,,,,,,,,,,,,,light up the room,candle,3,0,3,0,1,,,,,,,,,,,,,,,,,,,,,,,,,,,,,,,
,,,,,,,,,,,,,,,89429,001,2022-04-29_13h35.33.175,SPAMnetsValid,2021.1.4,Win32,59.76214666,,,,,,,,,,,,,,,,,,,,,,,,,,,,,,,,,,,,,,,,,,,,,,,,,,,,decorate,candle,4,0,4,0,1,,,,,,,,,,,,,,,,,,,,,,,,,,,,,,,
,,,,,,,,,,,,,,,89429,001,2022-04-29_13h35.33.175,SPAMnetsValid,2021.1.4,Win32,59.76214666,,,,,,,,,,,,,,,,,,,,,,,,,,,,,,,,,,,,,,,,,,,,,,,,,,,,,,,,,,,0,1,1,1,1,candle,,,,,,,,,,,,,,,,,,,,,,,,,
,,,,,,,,,,,,,,,89429,001,2022-04-29_13h35.33.175,SPAMnetsValid,2021.1.4,Win32,59.76214666,,,,,,,,,,,,,,,,,,,,,,,,,,,,,,,,,,,,,,,,,,,,,,,,,,,,pillow fight,pillow,0,0,0,0,1,,,,,,,,,,,,,,,,,,,,,,,,,,,,,,,
,,,,,,,,,,,,,,,89429,001,2022-04-29_13h35.33.175,SPAMnetsValid,2021.1.4,Win32,59.76214666,,,,,,,,,,,,,,,,,,,,,,,,,,,,,,,,,,,,,,,,,,,,,,,,,,,,scarecrow,pillow,1,0,1,0,1,,,,,,,,,,,,,,,,,,,,,,,,,,,,,,,
,,,,,,,,,,,,,,,89429,001,2022-04-29_13h35.33.175,SPAMnetsValid,2021.1.4,Win32,59.76214666,,,,,,,,,,,,,,,,,,,,,,,,,,,,,,,,,,,,,,,,,,,,,,,,,,,,carry things,pillow,2,0,2,0,1,,,,,,,,,,,,,,,,,,,,,,,,,,,,,,,
,,,,,,,,,,,,,,,89429,001,2022-04-29_13h35.33.175,SPAMnetsValid,2021.1.4,Win32,59.76214666,,,,,,,,,,,,,,,,,,,,,,,,,,,,,,,,,,,,,,,,,,,,,,,,,,,,,,,,,,,0,2,2,2,1,pillow,,,,,,,,,,,,,,,,,,,,,,,,,
,,,,,,,,,,,,,,,89429,001,2022-04-29_13h35.33.175,SPAMnetsValid,2021.1.4,Win32,59.76214666,,,,,,,,,,,,,,,,,,,,,,,,,,,,,,,,,,,,,,,,,,,,,,,,,,,,,,,,,,,,,,,,,cow,Animals,0,0,0,0,1,,,,,,,,,,,,,,,,,,
,,,,,,,,,,,,,,,89429,001,2022-04-29_13h35.33.175,SPAMnetsValid,2021.1.4,Win32,59.76214666,,,,,,,,,,,,,,,,,,,,,,,,,,,,,,,,,,,,,,,,,,,,,,,,,,,,,,,,,,,,,,,,,dog,Animals,1,0,1,0,1,,,,,,,,,,,,,,,,,,
,,,,,,,,,,,,,,,89429,001,2022-04-29_13h35.33.175,SPAMnetsValid,2021.1.4,Win32,59.76214666,,,,,,,,,,,,,,,,,,,,,,,,,,,,,,,,,,,,,,,,,,,,,,,,,,,,,,,,,,,,,,,,,mouse,Animals,2,0,2,0,1,,,,,,,,,,,,,,,,,,
,,,,,,,,,,,,,,,89429,001,2022-04-29_13h35.33.175,SPAMnetsValid,2021.1.4,Win32,59.76214666,,,,,,,,,,,,,,,,,,,,,,,,,,,,,,,,,,,,,,,,,,,,,,,,,,,,,,,,,,,,,,,,,cat,Animals,3,0,3,0,1,,,,,,,,,,,,,,,,,,
,,,,,,,,,,,,,,,89429,001,2022-04-29_13h35.33.175,SPAMnetsValid,2021.1.4,Win32,59.76214666,,,,,,,,,,,,,,,,,,,,,,,,,,,,,,,,,,,,,,,,,,,,,,,,,,,,,,,,,,,,,,,,,rat,Animals,4,0,4,0,1,,,,,,,,,,,,,,,,,,
,,,,,,,,,,,,,,,89429,001,2022-04-29_13h35.33.175,SPAMnetsValid,2021.1.4,Win32,59.76214666,,,,,,,,,,,,,,,,,,,,,,,,,,,,,,,,,,,,,,,,,,,,,,,,,,,,,,,,,,,,,,,,,dolphin,Animals,5,0,5,0,1,,,,,,,,,,,,,,,,,,
,,,,,,,,,,,,,,,89429,001,2022-04-29_13h35.33.175,SPAMnetsValid,2021.1.4,Win32,59.76214666,,,,,,,,,,,,,,,,,,,,,,,,,,,,,,,,,,,,,,,,,,,,,,,,,,,,,,,,,,,,,,,,,humans,Animals,6,0,6,0,1,,,,,,,,,,,,,,,,,,
,,,,,,,,,,,,,,,89429,001,2022-04-29_13h35.33.175,SPAMnetsValid,2021.1.4,Win32,59.76214666,,,,,,,,,,,,,,,,,,,,,,,,,,,,,,,,,,,,,,,,,,,,,,,,,,,,,,,,,,,,,,,,,elephants,Animals,7,0,7,0,1,,,,,,,,,,,,,,,,,,
,,,,,,,,,,,,,,,89429,001,2022-04-29_13h35.33.175,SPAMnetsValid,2021.1.4,Win32,59.76214666,,,,,,,,,,,,,,,,,,,,,,,,,,,,,,,,,,,,,,,,,,,,,,,,,,,,,,,,,,,,,,,,,tigers,Animals,8,0,8,0,1,,,,,,,,,,,,,,,,,,
,,,,,,,,,,,,,,,89429,001,2022-04-29_13h35.33.175,SPAMnetsValid,2021.1.4,Win32,59.76214666,,,,,,,,,,,,,,,,,,,,,,,,,,,,,,,,,,,,,,,,,,,,,,,,,,,,,,,,,,,,,,,,,fish,Animals,9,0,9,0,1,,,,,,,,,,,,,,,,,,
,,,,,,,,,,,,,,,89429,001,2022-04-29_13h35.33.175,SPAMnetsValid,2021.1.4,Win32,59.76214666,,,,,,,,,,,,,,,,,,,,,,,,,,,,,,,,,,,,,,,,,,,,,,,,,,,,,,,,,,,,,,,,,pigs,Animals,10,0,10,0,1,,,,,,,,,,,,,,,,,,
,,,,,,,,,,,,,,,89429,001,2022-04-29_13h35.33.175,SPAMnetsValid,2021.1.4,Win32,59.76214666,,,,,,,,,,,,,,,,,,,,,,,,,,,,,,,,,,,,,,,,,,,,,,,,,,,,,,,,,,,,,,,,,turtles,Animals,11,0,11,0,1,,,,,,,,,,,,,,,,,,
,,,,,,,,,,,,,,,89429,001,2022-04-29_13h35.33.175,SPAMnetsValid,2021.1.4,Win32,59.76214666,,,,,,,,,,,,,,,,,,,,,,,,,,,,,,,,,,,,,,,,,,,,,,,,,,,,,,,,,,,,,,,,,monkeys,Animals,12,0,12,0,1,,,,,,,,,,,,,,,,,,
,,,,,,,,,,,,,,,89429,001,2022-04-29_13h35.33.175,SPAMnetsValid,2021.1.4,Win32,59.76214666,,,,,,,,,,,,,,,,,,,,,,,,,,,,,,,,,,,,,,,,,,,,,,,,,,,,,,,,,,,,,,,,,bats,Animals,13,0,13,0,1,,,,,,,,,,,,,,,,,,
,,,,,,,,,,,,,,,89429,001,2022-04-29_13h35.33.175,SPAMnetsValid,2021.1.4,Win32,59.76214666,,,,,,,,,,,,,,,,,,,,,,,,,,,,,,,,,,,,,,,,,,,,,,,,,,,,,,,,,,,,,,,,,canaries,Animals,14,0,14,0,1,,,,,,,,,,,,,,,,,,
,,,,,,,,,,,,,,,89429,001,2022-04-29_13h35.33.175,SPAMnetsValid,2021.1.4,Win32,59.76214666,,,,,,,,,,,,,,,,,,,,,,,,,,,,,,,,,,,,,,,,,,,,,,,,,,,,,,,,,,,,,,,,,chicken,Animals,15,0,15,0,1,,,,,,,,,,,,,,,,,,
,,,,,,,,,,,,,,,89429,001,2022-04-29_13h35.33.175,SPAMnetsValid,2021.1.4,Win32,59.76214666,,,,,,,,,,,,,,,,,,,,,,,,,,,,,,,,,,,,,,,,,,,,,,,,,,,,,,,,,,,,,,,,,wolf,Animals,16,0,16,0,1,,,,,,,,,,,,,,,,,,
,,,,,,,,,,,,,,,89429,001,2022-04-29_13h35.33.175,SPAMnetsValid,2021.1.4,Win32,59.76214666,,,,,,,,,,,,,,,,,,,,,,,,,,,,,,,,,,,,,,,,,,,,,,,,,,,,,,,,,,,,,,,,,whalr,Animals,17,0,17,0,1,,,,,,,,,,,,,,,,,,
,,,,,,,,,,,,,,,89429,001,2022-04-29_13h35.33.175,SPAMnetsValid,2021.1.4,Win32,59.76214666,,,,,,,,,,,,,,,,,,,,,,,,,,,,,,,,,,,,,,,,,,,,,,,,,,,,,,,,,,,,,,,,,squid,Animals,18,0,18,0,1,,,,,,,,,,,,,,,,,,
,,,,,,,,,,,,,,,89429,001,2022-04-29_13h35.33.175,SPAMnetsValid,2021.1.4,Win32,59.76214666,,,,,,,,,,,,,,,,,,,,,,,,,,,,,,,,,,,,,,,,,,,,,,,,,,,,,,,,,,,,,,,,,lion,Animals,19,0,19,0,1,,,,,,,,,,,,,,,,,,
,,,,,,,,,,,,,,,89429,001,2022-04-29_13h35.33.175,SPAMnetsValid,2021.1.4,Win32,59.76214666,,,,,,,,,,,,,,,,,,,,,,,,,,,,,,,,,,,,,,,,,,,,,,,,,,,,,,,,,,,,,,,,,dove,Animals,20,0,20,0,1,,,,,,,,,,,,,,,,,,
,,,,,,,,,,,,,,,89429,001,2022-04-29_13h35.33.175,SPAMnetsValid,2021.1.4,Win32,59.76214666,,,,,,,,,,,,,,,,,,,,,,,,,,,,,,,,,,,,,,,,,,,,,,,,,,,,,,,,,,,,,,,,,pigeon,Animals,21,0,21,0,1,,,,,,,,,,,,,,,,,,
,,,,,,,,,,,,,,,89429,001,2022-04-29_13h35.33.175,SPAMnetsValid,2021.1.4,Win32,59.76214666,,,,,,,,,,,,,,,,,,,,,,,,,,,,,,,,,,,,,,,,,,,,,,,,,,,,,,,,,,,,,,,,,sheep,Animals,22,0,22,0,1,,,,,,,,,,,,,,,,,,
,,,,,,,,,,,,,,,89429,001,2022-04-29_13h35.33.175,SPAMnetsValid,2021.1.4,Win32,59.76214666,,,,,,,,,,,,,,,,,,,,,,,,,,,,,,,,,,,,,,,,,,,,,,,,,,,,,,,,,,,,,,,,,,,,,,,,0,0,0,0,1,Animals,,,,,,,,,,,,
,,,,,,,,,,,,,,,89429,001,2022-04-29_13h35.33.175,SPAMnetsValid,2021.1.4,Win32,59.76214666,,,,,,,,,,,,,,,,,,,,,,,,,,,,,,,,,,,,,,,,,,,,,,,,,,,,,,,,,,,,,,,,,,,,,,,,,,,,,,3,6.0147,0,0,0,0,1,"I enjoy concentrating on a fantasy or daydream and exploring all its possibilities, letting it grow and develop.",0,1,,
,,,,,,,,,,,,,,,89429,001,2022-04-29_13h35.33.175,SPAMnetsValid,2021.1.4,Win32,59.76214666,,,,,,,,,,,,,,,,,,,,,,,,,,,,,,,,,,,,,,,,,,,,,,,,,,,,,,,,,,,,,,,,,,,,,,,,,,,,,,5,3.6399,0,1,1,1,1,I think it's interesting to learn and develop new hobbies.,0,2,,
,,,,,,,,,,,,,,,89429,001,2022-04-29_13h35.33.175,SPAMnetsValid,2021.1.4,Win32,59.76214666,,,,,,,,,,,,,,,,,,,,,,,,,,,,,,,,,,,,,,,,,,,,,,,,,,,,,,,,,,,,,,,,,,,,,,,,,,,,,,5,3.2391,0,2,2,2,1,I am intrigued by the patterns I find in art and nature.,0,3,,
,,,,,,,,,,,,,,,89429,001,2022-04-29_13h35.33.175,SPAMnetsValid,2021.1.4,Win32,59.76214666,,,,,,,,,,,,,,,,,,,,,,,,,,,,,,,,,,,,,,,,,,,,,,,,,,,,,,,,,,,,,,,,,,,,,,,,,,,,,,3,5.6227,0,3,3,3,1,I believe letting students hear controversial speakers can only confuse and mislead them.,1,4,,
,,,,,,,,,,,,,,,89429,001,2022-04-29_13h35.33.175,SPAMnetsValid,2021.1.4,Win32,59.76214666,,,,,,,,,,,,,,,,,,,,,,,,,,,,,,,,,,,,,,,,,,,,,,,,,,,,,,,,,,,,,,,,,,,,,,,,,,,,,,1,2.7928,0,4,4,4,1,Poetry has little or no effect on me.,1,5,,
,,,,,,,,,,,,,,,89429,001,2022-04-29_13h35.33.175,SPAMnetsValid,2021.1.4,Win32,59.76214666,,,,,,,,,,,,,,,,,,,,,,,,,,,,,,,,,,,,,,,,,,,,,,,,,,,,,,,,,,,,,,,,,,,,,,,,,,,,,,1,7.4397,0,5,5,5,1,I would have difficulty just letting my mind wander without control or guidance.,1,6,,
,,,,,,,,,,,,,,,89429,001,2022-04-29_13h35.33.175,SPAMnetsValid,2021.1.4,Win32,59.76214666,,,,,,,,,,,,,,,,,,,,,,,,,,,,,,,,,,,,,,,,,,,,,,,,,,,,,,,,,,,,,,,,,,,,,,,,,,,,,,5,3.4727,0,6,6,6,1,I seldom notice the moods or feelings that different environments produce.,1,7,,
,,,,,,,,,,,,,,,89429,001,2022-04-29_13h35.33.175,SPAMnetsValid,2021.1.4,Win32,59.76214666,,,,,,,,,,,,,,,,,,,,,,,,,,,,,,,,,,,,,,,,,,,,,,,,,,,,,,,,,,,,,,,,,,,,,,,,,,,,,,5,2.3121,0,7,7,7,1,I experience a wide range of emotions or feelings.,0,8,,
,,,,,,,,,,,,,,,89429,001,2022-04-29_13h35.33.175,SPAMnetsValid,2021.1.4,Win32,59.76214666,,,,,,,,,,,,,,,,,,,,,,,,,,,,,,,,,,,,,,,,,,,,,,,,,,,,,,,,,,,,,,,,,,,,,,,,,,,,,,5,4.0592,0,8,8,8,1,"Sometimes when I am reading poetry or looking at a work of art, I feel a chill or wave of excitement.",0,9,,
,,,,,,,,,,,,,,,89429,001,2022-04-29_13h35.33.175,SPAMnetsValid,2021.1.4,Win32,59.76214666,,,,,,,,,,,,,,,,,,,,,,,,,,,,,,,,,,,,,,,,,,,,,,,,,,,,,,,,,,,,,,,,,,,,,,,,,,,,,,1,6.0743,0,9,9,9,1,I have little interest in speculating on the nature of the universe or the human condition.,1,10,,
,,,,,,,,,,,,,,,89429,001,2022-04-29_13h35.33.175,SPAMnetsValid,2021.1.4,Win32,59.76214666,,,,,,,,,,,,,,,,,,,,,,,,,,,,,,,,,,,,,,,,,,,,,,,,,,,,,,,,,,,,,,,,,,,,,,,,,,,,,,3,2.808,0,10,10,10,1,I have a lot of intellectual curiosity.,0,11,,
,,,,,,,,,,,,,,,89429,001,2022-04-29_13h35.33.175,SPAMnetsValid,2021.1.4,Win32,59.76214666,,,,,,,,,,,,,,,,,,,,,,,,,,,,,,,,,,,,,,,,,,,,,,,,,,,,,,,,,,,,,,,,,,,,,,,,,,,,,,4,3.715,0,11,11,11,1,I often enjoy playing with theories or abstract ideas.,0,12,,
,,,,,,,,,,,,,,,89429,001,2022-04-29_13h35.33.175,SPAMnetsValid,2021.1.4,Win32,59.76214666,,,,,,,,,,,,,,,,,,,,,,,,,,,,,,,,,,,,,,,,,,,,,,,,,,,,,,,,,,,,,,,,,,,,,,,,,,,,,,,,,,,,,,,,return,7.1835
