key_resp_3.keys,key_resp_3.rt,slider_2.response,slider_2.rt,rjt_rating,rjt_RT,trials_24.thisRepN,trials_24.thisTrialN,trials_24.thisN,trials_24.thisIndex,trials_24.ran,rjt_order,word1,word2,attention,participant,session,date,expName,psychopyVersion,OS,frameRate,trials_4.thisRepN,trials_4.thisTrialN,trials_4.thisN,trials_4.thisIndex,trials_4.ran,trials_5.thisRepN,trials_5.thisTrialN,trials_5.thisN,trials_5.thisIndex,trials_5.ran,repOne,repTwo,slider.response,slider.rt,trials_22.thisRepN,trials_22.thisTrialN,trials_22.thisN,trials_22.thisIndex,trials_22.ran,trials_99.thisRepN,trials_99.thisTrialN,trials_99.thisN,trials_99.thisIndex,trials_99.ran,slider_extend_2.response,slider_extend_2.rt,trials_6.thisRepN,trials_6.thisTrialN,trials_6.thisN,trials_6.thisIndex,trials_6.ran,vCue2,R1,R2,R3,R4,correct,sliderVocab.response,sliderVocab.rt,trials_7.thisRepN,trials_7.thisTrialN,trials_7.thisN,trials_7.thisIndex,trials_7.ran,VocabCue,VR1,VR2,VR3,VR4,VR5,VocabCorrect,AUT_resp,AUT_label,trials.thisRepN,trials.thisTrialN,trials.thisN,trials.thisIndex,trials.ran,trials_2.thisRepN,trials_2.thisTrialN,trials_2.thisN,trials_2.thisIndex,trials_2.ran,aut_prompt,VF_response,VF_tag,trials_16.thisRepN,trials_16.thisTrialN,trials_16.thisN,trials_16.thisIndex,trials_16.ran,trials_17.thisRepN,trials_17.thisTrialN,trials_17.thisN,trials_17.thisIndex,trials_17.ran,VFcond,open_slider.response,open_slider.rt,trials_3.thisRepN,trials_3.thisTrialN,trials_3.thisN,trials_3.thisIndex,trials_3.ran,OpenQ,Rev,OPEN_ORDER,key_resp_2.keys,key_resp_2.rt
return,1.949,1,9.187,1,9.187,0,0,0,58,1,144,cake,garden,,89426,001,2022-04-29_05h14.49.501,SPAMnetsValid,2021.1.4,MacIntel,62.5,,,,,,,,,,,,,,,,,,,,,,,,,,,,,,,,,,,,,,,,,,,,,,,,,,,,,,,,,,,,,,,,,,,,,,,,,,,,,,,,,,,,,,,,,
,,6,4.593,6,4.593,0,1,1,9,1,176,cactus,tomato,,89426,001,2022-04-29_05h14.49.501,SPAMnetsValid,2021.1.4,MacIntel,62.5,,,,,,,,,,,,,,,,,,,,,,,,,,,,,,,,,,,,,,,,,,,,,,,,,,,,,,,,,,,,,,,,,,,,,,,,,,,,,,,,,,,,,,,,,
,,7,3.22,7,3.22,0,2,2,26,1,107,rose,tomato,,89426,001,2022-04-29_05h14.49.501,SPAMnetsValid,2021.1.4,MacIntel,62.5,,,,,,,,,,,,,,,,,,,,,,,,,,,,,,,,,,,,,,,,,,,,,,,,,,,,,,,,,,,,,,,,,,,,,,,,,,,,,,,,,,,,,,,,,
,,2,2.296,2,2.296,0,3,3,24,1,169,onion,yogurt,,89426,001,2022-04-29_05h14.49.501,SPAMnetsValid,2021.1.4,MacIntel,62.5,,,,,,,,,,,,,,,,,,,,,,,,,,,,,,,,,,,,,,,,,,,,,,,,,,,,,,,,,,,,,,,,,,,,,,,,,,,,,,,,,,,,,,,,,
,,1,2.406,1,2.406,0,4,4,6,1,151,microwave,onion,,89426,001,2022-04-29_05h14.49.501,SPAMnetsValid,2021.1.4,MacIntel,62.5,,,,,,,,,,,,,,,,,,,,,,,,,,,,,,,,,,,,,,,,,,,,,,,,,,,,,,,,,,,,,,,,,,,,,,,,,,,,,,,,,,,,,,,,,
,,1,1.913,1,1.913,0,5,5,67,1,96,oven,strawberry,,89426,001,2022-04-29_05h14.49.501,SPAMnetsValid,2021.1.4,MacIntel,62.5,,,,,,,,,,,,,,,,,,,,,,,,,,,,,,,,,,,,,,,,,,,,,,,,,,,,,,,,,,,,,,,,,,,,,,,,,,,,,,,,,,,,,,,,,
,,5,4.119,5,4.119,0,6,6,75,1,178,cactus,carrot,,89426,001,2022-04-29_05h14.49.501,SPAMnetsValid,2021.1.4,MacIntel,62.5,,,,,,,,,,,,,,,,,,,,,,,,,,,,,,,,,,,,,,,,,,,,,,,,,,,,,,,,,,,,,,,,,,,,,,,,,,,,,,,,,,,,,,,,,
,,2,5.662,2,5.662,0,7,7,82,1,98,pretzel,strawberry,,89426,001,2022-04-29_05h14.49.501,SPAMnetsValid,2021.1.4,MacIntel,62.5,,,,,,,,,,,,,,,,,,,,,,,,,,,,,,,,,,,,,,,,,,,,,,,,,,,,,,,,,,,,,,,,,,,,,,,,,,,,,,,,,,,,,,,,,
,,8,2.768,8,2.768,0,8,8,44,1,116,cake,chocolate,,89426,001,2022-04-29_05h14.49.501,SPAMnetsValid,2021.1.4,MacIntel,62.5,,,,,,,,,,,,,,,,,,,,,,,,,,,,,,,,,,,,,,,,,,,,,,,,,,,,,,,,,,,,,,,,,,,,,,,,,,,,,,,,,,,,,,,,,
,,9,1.679,9,1.679,0,9,9,0,1,106,cake,strawberry,,89426,001,2022-04-29_05h14.49.501,SPAMnetsValid,2021.1.4,MacIntel,62.5,,,,,,,,,,,,,,,,,,,,,,,,,,,,,,,,,,,,,,,,,,,,,,,,,,,,,,,,,,,,,,,,,,,,,,,,,,,,,,,,,,,,,,,,,
,,1,2.213,1,2.213,0,10,10,81,1,104,garden,microwave,,89426,001,2022-04-29_05h14.49.501,SPAMnetsValid,2021.1.4,MacIntel,62.5,,,,,,,,,,,,,,,,,,,,,,,,,,,,,,,,,,,,,,,,,,,,,,,,,,,,,,,,,,,,,,,,,,,,,,,,,,,,,,,,,,,,,,,,,
,,6,2.43,6,2.43,0,11,11,92,1,170,cookie,microwave,,89426,001,2022-04-29_05h14.49.501,SPAMnetsValid,2021.1.4,MacIntel,62.5,,,,,,,,,,,,,,,,,,,,,,,,,,,,,,,,,,,,,,,,,,,,,,,,,,,,,,,,,,,,,,,,,,,,,,,,,,,,,,,,,,,,,,,,,
,,9,1.849,9,1.849,0,12,12,61,1,138,flower,rose,,89426,001,2022-04-29_05h14.49.501,SPAMnetsValid,2021.1.4,MacIntel,62.5,,,,,,,,,,,,,,,,,,,,,,,,,,,,,,,,,,,,,,,,,,,,,,,,,,,,,,,,,,,,,,,,,,,,,,,,,,,,,,,,,,,,,,,,,
,,5,5.246,5,5.246,0,13,13,54,1,101,cactus,kitchen,,89426,001,2022-04-29_05h14.49.501,SPAMnetsValid,2021.1.4,MacIntel,62.5,,,,,,,,,,,,,,,,,,,,,,,,,,,,,,,,,,,,,,,,,,,,,,,,,,,,,,,,,,,,,,,,,,,,,,,,,,,,,,,,,,,,,,,,,
,,9,1.595,9,1.595,0,14,14,52,1,110,chocolate,cookie,,89426,001,2022-04-29_05h14.49.501,SPAMnetsValid,2021.1.4,MacIntel,62.5,,,,,,,,,,,,,,,,,,,,,,,,,,,,,,,,,,,,,,,,,,,,,,,,,,,,,,,,,,,,,,,,,,,,,,,,,,,,,,,,,,,,,,,,,
,,3,2.579,3,2.579,0,15,15,80,1,146,pretzel,tree,,89426,001,2022-04-29_05h14.49.501,SPAMnetsValid,2021.1.4,MacIntel,62.5,,,,,,,,,,,,,,,,,,,,,,,,,,,,,,,,,,,,,,,,,,,,,,,,,,,,,,,,,,,,,,,,,,,,,,,,,,,,,,,,,,,,,,,,,
,,9,1.504,9,1.504,0,16,16,60,1,122,flower,garden,,89426,001,2022-04-29_05h14.49.501,SPAMnetsValid,2021.1.4,MacIntel,62.5,,,,,,,,,,,,,,,,,,,,,,,,,,,,,,,,,,,,,,,,,,,,,,,,,,,,,,,,,,,,,,,,,,,,,,,,,,,,,,,,,,,,,,,,,
,,5,2.822,5,2.822,0,17,17,38,1,155,carrot,cookie,,89426,001,2022-04-29_05h14.49.501,SPAMnetsValid,2021.1.4,MacIntel,62.5,,,,,,,,,,,,,,,,,,,,,,,,,,,,,,,,,,,,,,,,,,,,,,,,,,,,,,,,,,,,,,,,,,,,,,,,,,,,,,,,,,,,,,,,,
,,7,3.979,7,3.979,0,18,18,95,1,121,broom,microwave,,89426,001,2022-04-29_05h14.49.501,SPAMnetsValid,2021.1.4,MacIntel,62.5,,,,,,,,,,,,,,,,,,,,,,,,,,,,,,,,,,,,,,,,,,,,,,,,,,,,,,,,,,,,,,,,,,,,,,,,,,,,,,,,,,,,,,,,,
,,6,3.489,6,3.489,0,19,19,41,1,175,melon,onion,,89426,001,2022-04-29_05h14.49.501,SPAMnetsValid,2021.1.4,MacIntel,62.5,,,,,,,,,,,,,,,,,,,,,,,,,,,,,,,,,,,,,,,,,,,,,,,,,,,,,,,,,,,,,,,,,,,,,,,,,,,,,,,,,,,,,,,,,
,,3,2.249,3,2.249,0,20,20,64,1,157,refrigerator,rose,,89426,001,2022-04-29_05h14.49.501,SPAMnetsValid,2021.1.4,MacIntel,62.5,,,,,,,,,,,,,,,,,,,,,,,,,,,,,,,,,,,,,,,,,,,,,,,,,,,,,,,,,,,,,,,,,,,,,,,,,,,,,,,,,,,,,,,,,
,,1,1.746,1,1.746,0,21,21,20,1,149,broom,tomato,,89426,001,2022-04-29_05h14.49.501,SPAMnetsValid,2021.1.4,MacIntel,62.5,,,,,,,,,,,,,,,,,,,,,,,,,,,,,,,,,,,,,,,,,,,,,,,,,,,,,,,,,,,,,,,,,,,,,,,,,,,,,,,,,,,,,,,,,
,,1,2.083,1,2.083,0,22,22,55,1,143,pretzel,rose,,89426,001,2022-04-29_05h14.49.501,SPAMnetsValid,2021.1.4,MacIntel,62.5,,,,,,,,,,,,,,,,,,,,,,,,,,,,,,,,,,,,,,,,,,,,,,,,,,,,,,,,,,,,,,,,,,,,,,,,,,,,,,,,,,,,,,,,,
,,3,3.171,3,3.171,0,23,23,85,1,115,refrigerator,tomato,,89426,001,2022-04-29_05h14.49.501,SPAMnetsValid,2021.1.4,MacIntel,62.5,,,,,,,,,,,,,,,,,,,,,,,,,,,,,,,,,,,,,,,,,,,,,,,,,,,,,,,,,,,,,,,,,,,,,,,,,,,,,,,,,,,,,,,,,
,,1,2.705,1,2.705,0,24,24,42,1,184,oven,pretzel,,89426,001,2022-04-29_05h14.49.501,SPAMnetsValid,2021.1.4,MacIntel,62.5,,,,,,,,,,,,,,,,,,,,,,,,,,,,,,,,,,,,,,,,,,,,,,,,,,,,,,,,,,,,,,,,,,,,,,,,,,,,,,,,,,,,,,,,,
,,1,1.565,1,1.565,0,25,25,46,1,123,cookie,tree,,89426,001,2022-04-29_05h14.49.501,SPAMnetsValid,2021.1.4,MacIntel,62.5,,,,,,,,,,,,,,,,,,,,,,,,,,,,,,,,,,,,,,,,,,,,,,,,,,,,,,,,,,,,,,,,,,,,,,,,,,,,,,,,,,,,,,,,,
,,5,2.856,5,2.856,0,26,26,43,1,185,cactus,rose,,89426,001,2022-04-29_05h14.49.501,SPAMnetsValid,2021.1.4,MacIntel,62.5,,,,,,,,,,,,,,,,,,,,,,,,,,,,,,,,,,,,,,,,,,,,,,,,,,,,,,,,,,,,,,,,,,,,,,,,,,,,,,,,,,,,,,,,,
,,2,2.152,2,2.152,0,27,27,2,1,174,cake,pretzel,,89426,001,2022-04-29_05h14.49.501,SPAMnetsValid,2021.1.4,MacIntel,62.5,,,,,,,,,,,,,,,,,,,,,,,,,,,,,,,,,,,,,,,,,,,,,,,,,,,,,,,,,,,,,,,,,,,,,,,,,,,,,,,,,,,,,,,,,
,,2,4.537,2,4.537,0,28,28,49,1,152,cactus,strawberry,,89426,001,2022-04-29_05h14.49.501,SPAMnetsValid,2021.1.4,MacIntel,62.5,,,,,,,,,,,,,,,,,,,,,,,,,,,,,,,,,,,,,,,,,,,,,,,,,,,,,,,,,,,,,,,,,,,,,,,,,,,,,,,,,,,,,,,,,
,,7,2.712,7,2.712,0,29,29,27,1,158,cookie,oven,,89426,001,2022-04-29_05h14.49.501,SPAMnetsValid,2021.1.4,MacIntel,62.5,,,,,,,,,,,,,,,,,,,,,,,,,,,,,,,,,,,,,,,,,,,,,,,,,,,,,,,,,,,,,,,,,,,,,,,,,,,,,,,,,,,,,,,,,
,,8,2.696,8,2.696,0,30,30,29,1,163,melon,refrigerator,,89426,001,2022-04-29_05h14.49.501,SPAMnetsValid,2021.1.4,MacIntel,62.5,,,,,,,,,,,,,,,,,,,,,,,,,,,,,,,,,,,,,,,,,,,,,,,,,,,,,,,,,,,,,,,,,,,,,,,,,,,,,,,,,,,,,,,,,
,,1,2.171,1,2.171,0,31,31,74,1,128,melon,microwave,,89426,001,2022-04-29_05h14.49.501,SPAMnetsValid,2021.1.4,MacIntel,62.5,,,,,,,,,,,,,,,,,,,,,,,,,,,,,,,,,,,,,,,,,,,,,,,,,,,,,,,,,,,,,,,,,,,,,,,,,,,,,,,,,,,,,,,,,
,,2,2.118,2,2.118,0,32,32,18,1,119,strawberry,tree,,89426,001,2022-04-29_05h14.49.501,SPAMnetsValid,2021.1.4,MacIntel,62.5,,,,,,,,,,,,,,,,,,,,,,,,,,,,,,,,,,,,,,,,,,,,,,,,,,,,,,,,,,,,,,,,,,,,,,,,,,,,,,,,,,,,,,,,,
,,1,3.405,1,3.405,0,33,33,3,1,129,cactus,refrigerator,,89426,001,2022-04-29_05h14.49.501,SPAMnetsValid,2021.1.4,MacIntel,62.5,,,,,,,,,,,,,,,,,,,,,,,,,,,,,,,,,,,,,,,,,,,,,,,,,,,,,,,,,,,,,,,,,,,,,,,,,,,,,,,,,,,,,,,,,
,,9,1.753,9,1.753,0,34,34,14,1,120,microwave,oven,,89426,001,2022-04-29_05h14.49.501,SPAMnetsValid,2021.1.4,MacIntel,62.5,,,,,,,,,,,,,,,,,,,,,,,,,,,,,,,,,,,,,,,,,,,,,,,,,,,,,,,,,,,,,,,,,,,,,,,,,,,,,,,,,,,,,,,,,
,,6,2.981,6,2.981,0,35,35,51,1,168,cactus,flower,,89426,001,2022-04-29_05h14.49.501,SPAMnetsValid,2021.1.4,MacIntel,62.5,,,,,,,,,,,,,,,,,,,,,,,,,,,,,,,,,,,,,,,,,,,,,,,,,,,,,,,,,,,,,,,,,,,,,,,,,,,,,,,,,,,,,,,,,
,,1,3.032,1,3.032,0,36,36,76,1,102,chocolate,refrigerator,,89426,001,2022-04-29_05h14.49.501,SPAMnetsValid,2021.1.4,MacIntel,62.5,,,,,,,,,,,,,,,,,,,,,,,,,,,,,,,,,,,,,,,,,,,,,,,,,,,,,,,,,,,,,,,,,,,,,,,,,,,,,,,,,,,,,,,,,
,,1,1.546,1,1.546,0,37,37,57,1,127,cactus,chocolate,,89426,001,2022-04-29_05h14.49.501,SPAMnetsValid,2021.1.4,MacIntel,62.5,,,,,,,,,,,,,,,,,,,,,,,,,,,,,,,,,,,,,,,,,,,,,,,,,,,,,,,,,,,,,,,,,,,,,,,,,,,,,,,,,,,,,,,,,
,,7,2.328,7,2.328,0,38,38,62,1,189,onion,tree,,89426,001,2022-04-29_05h14.49.501,SPAMnetsValid,2021.1.4,MacIntel,62.5,,,,,,,,,,,,,,,,,,,,,,,,,,,,,,,,,,,,,,,,,,,,,,,,,,,,,,,,,,,,,,,,,,,,,,,,,,,,,,,,,,,,,,,,,
,,9,2.53,9,2.53,0,39,39,53,1,177,chocolate,strawberry,,89426,001,2022-04-29_05h14.49.501,SPAMnetsValid,2021.1.4,MacIntel,62.5,,,,,,,,,,,,,,,,,,,,,,,,,,,,,,,,,,,,,,,,,,,,,,,,,,,,,,,,,,,,,,,,,,,,,,,,,,,,,,,,,,,,,,,,,
,,1,1.794,1,1.794,0,40,40,15,1,145,cactus,yogurt,,89426,001,2022-04-29_05h14.49.501,SPAMnetsValid,2021.1.4,MacIntel,62.5,,,,,,,,,,,,,,,,,,,,,,,,,,,,,,,,,,,,,,,,,,,,,,,,,,,,,,,,,,,,,,,,,,,,,,,,,,,,,,,,,,,,,,,,,
,,7,1.804,7,1.804,0,41,41,91,1,166,cake,yogurt,,89426,001,2022-04-29_05h14.49.501,SPAMnetsValid,2021.1.4,MacIntel,62.5,,,,,,,,,,,,,,,,,,,,,,,,,,,,,,,,,,,,,,,,,,,,,,,,,,,,,,,,,,,,,,,,,,,,,,,,,,,,,,,,,,,,,,,,,
,,5,3.762,5,3.762,0,42,42,34,1,153,carrot,pretzel,,89426,001,2022-04-29_05h14.49.501,SPAMnetsValid,2021.1.4,MacIntel,62.5,,,,,,,,,,,,,,,,,,,,,,,,,,,,,,,,,,,,,,,,,,,,,,,,,,,,,,,,,,,,,,,,,,,,,,,,,,,,,,,,,,,,,,,,,
,,1,2.663,1,2.663,0,43,43,21,1,159,cookie,flower,,89426,001,2022-04-29_05h14.49.501,SPAMnetsValid,2021.1.4,MacIntel,62.5,,,,,,,,,,,,,,,,,,,,,,,,,,,,,,,,,,,,,,,,,,,,,,,,,,,,,,,,,,,,,,,,,,,,,,,,,,,,,,,,,,,,,,,,,
,,1,3.791,1,3.791,0,44,44,79,1,103,pretzel,tomato,,89426,001,2022-04-29_05h14.49.501,SPAMnetsValid,2021.1.4,MacIntel,62.5,,,,,,,,,,,,,,,,,,,,,,,,,,,,,,,,,,,,,,,,,,,,,,,,,,,,,,,,,,,,,,,,,,,,,,,,,,,,,,,,,,,,,,,,,
,,5,3.021,5,3.021,0,45,45,1,1,173,kitchen,tomato,,89426,001,2022-04-29_05h14.49.501,SPAMnetsValid,2021.1.4,MacIntel,62.5,,,,,,,,,,,,,,,,,,,,,,,,,,,,,,,,,,,,,,,,,,,,,,,,,,,,,,,,,,,,,,,,,,,,,,,,,,,,,,,,,,,,,,,,,
,,2,2.604,2,2.604,0,46,46,10,1,118,chocolate,oven,,89426,001,2022-04-29_05h14.49.501,SPAMnetsValid,2021.1.4,MacIntel,62.5,,,,,,,,,,,,,,,,,,,,,,,,,,,,,,,,,,,,,,,,,,,,,,,,,,,,,,,,,,,,,,,,,,,,,,,,,,,,,,,,,,,,,,,,,
,,4,2.312,4,2.312,0,47,47,87,1,114,cookie,strawberry,,89426,001,2022-04-29_05h14.49.501,SPAMnetsValid,2021.1.4,MacIntel,62.5,,,,,,,,,,,,,,,,,,,,,,,,,,,,,,,,,,,,,,,,,,,,,,,,,,,,,,,,,,,,,,,,,,,,,,,,,,,,,,,,,,,,,,,,,
,,5,3.345,5,3.345,0,48,48,11,1,117,melon,strawberry,,89426,001,2022-04-29_05h14.49.501,SPAMnetsValid,2021.1.4,MacIntel,62.5,,,,,,,,,,,,,,,,,,,,,,,,,,,,,,,,,,,,,,,,,,,,,,,,,,,,,,,,,,,,,,,,,,,,,,,,,,,,,,,,,,,,,,,,,
,,1,2.23,1,2.23,0,49,49,71,1,187,cactus,microwave,,89426,001,2022-04-29_05h14.49.501,SPAMnetsValid,2021.1.4,MacIntel,62.5,,,,,,,,,,,,,,,,,,,,,,,,,,,,,,,,,,,,,,,,,,,,,,,,,,,,,,,,,,,,,,,,,,,,,,,,,,,,,,,,,,,,,,,,,
,,9,2.524,9,2.524,0,50,50,86,1,193,melon,melon,CHECK,89426,001,2022-04-29_05h14.49.501,SPAMnetsValid,2021.1.4,MacIntel,62.5,,,,,,,,,,,,,,,,,,,,,,,,,,,,,,,,,,,,,,,,,,,,,,,,,,,,,,,,,,,,,,,,,,,,,,,,,,,,,,,,,,,,,,,,,
,,6,4.97,6,4.97,0,51,51,39,1,112,cake,carrot,,89426,001,2022-04-29_05h14.49.501,SPAMnetsValid,2021.1.4,MacIntel,62.5,,,,,,,,,,,,,,,,,,,,,,,,,,,,,,,,,,,,,,,,,,,,,,,,,,,,,,,,,,,,,,,,,,,,,,,,,,,,,,,,,,,,,,,,,
,,4,3.43,4,3.43,0,52,52,30,1,125,carrot,tree,,89426,001,2022-04-29_05h14.49.501,SPAMnetsValid,2021.1.4,MacIntel,62.5,,,,,,,,,,,,,,,,,,,,,,,,,,,,,,,,,,,,,,,,,,,,,,,,,,,,,,,,,,,,,,,,,,,,,,,,,,,,,,,,,,,,,,,,,
,,1,1.561,1,1.561,0,53,53,12,1,162,microwave,tomato,,89426,001,2022-04-29_05h14.49.501,SPAMnetsValid,2021.1.4,MacIntel,62.5,,,,,,,,,,,,,,,,,,,,,,,,,,,,,,,,,,,,,,,,,,,,,,,,,,,,,,,,,,,,,,,,,,,,,,,,,,,,,,,,,,,,,,,,,
,,1,1.22,1,1.22,0,54,54,68,1,180,tree,yogurt,,89426,001,2022-04-29_05h14.49.501,SPAMnetsValid,2021.1.4,MacIntel,62.5,,,,,,,,,,,,,,,,,,,,,,,,,,,,,,,,,,,,,,,,,,,,,,,,,,,,,,,,,,,,,,,,,,,,,,,,,,,,,,,,,,,,,,,,,
,,6,2.14,6,2.14,0,55,55,72,1,181,carrot,kitchen,,89426,001,2022-04-29_05h14.49.501,SPAMnetsValid,2021.1.4,MacIntel,62.5,,,,,,,,,,,,,,,,,,,,,,,,,,,,,,,,,,,,,,,,,,,,,,,,,,,,,,,,,,,,,,,,,,,,,,,,,,,,,,,,,,,,,,,,,
,,1,2.179,1,2.179,0,56,56,94,1,133,cake,flower,,89426,001,2022-04-29_05h14.49.501,SPAMnetsValid,2021.1.4,MacIntel,62.5,,,,,,,,,,,,,,,,,,,,,,,,,,,,,,,,,,,,,,,,,,,,,,,,,,,,,,,,,,,,,,,,,,,,,,,,,,,,,,,,,,,,,,,,,
,,1,1.722,1,1.722,0,57,57,88,1,171,cake,tomato,,89426,001,2022-04-29_05h14.49.501,SPAMnetsValid,2021.1.4,MacIntel,62.5,,,,,,,,,,,,,,,,,,,,,,,,,,,,,,,,,,,,,,,,,,,,,,,,,,,,,,,,,,,,,,,,,,,,,,,,,,,,,,,,,,,,,,,,,
,,3,4.246,3,4.246,0,58,58,56,1,113,refrigerator,strawberry,,89426,001,2022-04-29_05h14.49.501,SPAMnetsValid,2021.1.4,MacIntel,62.5,,,,,,,,,,,,,,,,,,,,,,,,,,,,,,,,,,,,,,,,,,,,,,,,,,,,,,,,,,,,,,,,,,,,,,,,,,,,,,,,,,,,,,,,,
,,4,1.931,4,1.931,0,59,59,8,1,97,chocolate,kitchen,,89426,001,2022-04-29_05h14.49.501,SPAMnetsValid,2021.1.4,MacIntel,62.5,,,,,,,,,,,,,,,,,,,,,,,,,,,,,,,,,,,,,,,,,,,,,,,,,,,,,,,,,,,,,,,,,,,,,,,,,,,,,,,,,,,,,,,,,
,,2,1.82,2,1.82,0,60,60,5,1,108,carrot,chocolate,,89426,001,2022-04-29_05h14.49.501,SPAMnetsValid,2021.1.4,MacIntel,62.5,,,,,,,,,,,,,,,,,,,,,,,,,,,,,,,,,,,,,,,,,,,,,,,,,,,,,,,,,,,,,,,,,,,,,,,,,,,,,,,,,,,,,,,,,
,,9,2.188,9,2.188,0,61,61,25,1,194,cactus,cactus,CHECK,89426,001,2022-04-29_05h14.49.501,SPAMnetsValid,2021.1.4,MacIntel,62.5,,,,,,,,,,,,,,,,,,,,,,,,,,,,,,,,,,,,,,,,,,,,,,,,,,,,,,,,,,,,,,,,,,,,,,,,,,,,,,,,,,,,,,,,,
,,4,1.87,4,1.87,0,62,62,78,1,132,broom,tree,,89426,001,2022-04-29_05h14.49.501,SPAMnetsValid,2021.1.4,MacIntel,62.5,,,,,,,,,,,,,,,,,,,,,,,,,,,,,,,,,,,,,,,,,,,,,,,,,,,,,,,,,,,,,,,,,,,,,,,,,,,,,,,,,,,,,,,,,
,,9,3.254,9,3.254,0,63,63,33,1,131,cactus,garden,,89426,001,2022-04-29_05h14.49.501,SPAMnetsValid,2021.1.4,MacIntel,62.5,,,,,,,,,,,,,,,,,,,,,,,,,,,,,,,,,,,,,,,,,,,,,,,,,,,,,,,,,,,,,,,,,,,,,,,,,,,,,,,,,,,,,,,,,
,,1,2.03,1,2.03,0,64,64,13,1,105,cactus,oven,,89426,001,2022-04-29_05h14.49.501,SPAMnetsValid,2021.1.4,MacIntel,62.5,,,,,,,,,,,,,,,,,,,,,,,,,,,,,,,,,,,,,,,,,,,,,,,,,,,,,,,,,,,,,,,,,,,,,,,,,,,,,,,,,,,,,,,,,
,,1,2.163,1,2.163,0,65,65,63,1,137,microwave,tree,,89426,001,2022-04-29_05h14.49.501,SPAMnetsValid,2021.1.4,MacIntel,62.5,,,,,,,,,,,,,,,,,,,,,,,,,,,,,,,,,,,,,,,,,,,,,,,,,,,,,,,,,,,,,,,,,,,,,,,,,,,,,,,,,,,,,,,,,
,,1,1.338,1,1.338,0,66,66,90,1,190,microwave,strawberry,,89426,001,2022-04-29_05h14.49.501,SPAMnetsValid,2021.1.4,MacIntel,62.5,,,,,,,,,,,,,,,,,,,,,,,,,,,,,,,,,,,,,,,,,,,,,,,,,,,,,,,,,,,,,,,,,,,,,,,,,,,,,,,,,,,,,,,,,
,,1,1.218,1,1.218,0,67,67,4,1,109,broom,strawberry,,89426,001,2022-04-29_05h14.49.501,SPAMnetsValid,2021.1.4,MacIntel,62.5,,,,,,,,,,,,,,,,,,,,,,,,,,,,,,,,,,,,,,,,,,,,,,,,,,,,,,,,,,,,,,,,,,,,,,,,,,,,,,,,,,,,,,,,,
,,4,2.238,4,2.238,0,68,68,77,1,172,kitchen,melon,,89426,001,2022-04-29_05h14.49.501,SPAMnetsValid,2021.1.4,MacIntel,62.5,,,,,,,,,,,,,,,,,,,,,,,,,,,,,,,,,,,,,,,,,,,,,,,,,,,,,,,,,,,,,,,,,,,,,,,,,,,,,,,,,,,,,,,,,
,,4,1.845,4,1.845,0,69,69,40,1,165,onion,rose,,89426,001,2022-04-29_05h14.49.501,SPAMnetsValid,2021.1.4,MacIntel,62.5,,,,,,,,,,,,,,,,,,,,,,,,,,,,,,,,,,,,,,,,,,,,,,,,,,,,,,,,,,,,,,,,,,,,,,,,,,,,,,,,,,,,,,,,,
,,3,1.87,3,1.87,0,70,70,73,1,135,carrot,oven,,89426,001,2022-04-29_05h14.49.501,SPAMnetsValid,2021.1.4,MacIntel,62.5,,,,,,,,,,,,,,,,,,,,,,,,,,,,,,,,,,,,,,,,,,,,,,,,,,,,,,,,,,,,,,,,,,,,,,,,,,,,,,,,,,,,,,,,,
,,3,1.962,3,1.962,0,71,71,93,1,134,carrot,flower,,89426,001,2022-04-29_05h14.49.501,SPAMnetsValid,2021.1.4,MacIntel,62.5,,,,,,,,,,,,,,,,,,,,,,,,,,,,,,,,,,,,,,,,,,,,,,,,,,,,,,,,,,,,,,,,,,,,,,,,,,,,,,,,,,,,,,,,,
,,9,1.97,9,1.97,0,72,72,69,1,124,oven,refrigerator,,89426,001,2022-04-29_05h14.49.501,SPAMnetsValid,2021.1.4,MacIntel,62.5,,,,,,,,,,,,,,,,,,,,,,,,,,,,,,,,,,,,,,,,,,,,,,,,,,,,,,,,,,,,,,,,,,,,,,,,,,,,,,,,,,,,,,,,,
,,9,2.451,9,2.451,0,73,73,47,1,167,carrot,garden,,89426,001,2022-04-29_05h14.49.501,SPAMnetsValid,2021.1.4,MacIntel,62.5,,,,,,,,,,,,,,,,,,,,,,,,,,,,,,,,,,,,,,,,,,,,,,,,,,,,,,,,,,,,,,,,,,,,,,,,,,,,,,,,,,,,,,,,,
,,2,2.338,2,2.338,0,74,74,96,1,136,chocolate,microwave,,89426,001,2022-04-29_05h14.49.501,SPAMnetsValid,2021.1.4,MacIntel,62.5,,,,,,,,,,,,,,,,,,,,,,,,,,,,,,,,,,,,,,,,,,,,,,,,,,,,,,,,,,,,,,,,,,,,,,,,,,,,,,,,,,,,,,,,,
,,5,3.778,5,3.778,0,75,75,48,1,186,kitchen,yogurt,,89426,001,2022-04-29_05h14.49.501,SPAMnetsValid,2021.1.4,MacIntel,62.5,,,,,,,,,,,,,,,,,,,,,,,,,,,,,,,,,,,,,,,,,,,,,,,,,,,,,,,,,,,,,,,,,,,,,,,,,,,,,,,,,,,,,,,,,
,,2,3.335,2,3.335,0,76,76,32,1,182,flower,refrigerator,,89426,001,2022-04-29_05h14.49.501,SPAMnetsValid,2021.1.4,MacIntel,62.5,,,,,,,,,,,,,,,,,,,,,,,,,,,,,,,,,,,,,,,,,,,,,,,,,,,,,,,,,,,,,,,,,,,,,,,,,,,,,,,,,,,,,,,,,
,,4,1.729,4,1.729,0,77,77,70,1,141,melon,tomato,,89426,001,2022-04-29_05h14.49.501,SPAMnetsValid,2021.1.4,MacIntel,62.5,,,,,,,,,,,,,,,,,,,,,,,,,,,,,,,,,,,,,,,,,,,,,,,,,,,,,,,,,,,,,,,,,,,,,,,,,,,,,,,,,,,,,,,,,
,,9,1.822,9,1.822,0,78,78,66,1,150,microwave,refrigerator,,89426,001,2022-04-29_05h14.49.501,SPAMnetsValid,2021.1.4,MacIntel,62.5,,,,,,,,,,,,,,,,,,,,,,,,,,,,,,,,,,,,,,,,,,,,,,,,,,,,,,,,,,,,,,,,,,,,,,,,,,,,,,,,,,,,,,,,,
,,9,1.439,9,1.439,0,79,79,83,1,100,garden,tomato,,89426,001,2022-04-29_05h14.49.501,SPAMnetsValid,2021.1.4,MacIntel,62.5,,,,,,,,,,,,,,,,,,,,,,,,,,,,,,,,,,,,,,,,,,,,,,,,,,,,,,,,,,,,,,,,,,,,,,,,,,,,,,,,,,,,,,,,,
,,9,2.104,9,2.104,0,80,80,28,1,154,strawberry,yogurt,,89426,001,2022-04-29_05h14.49.501,SPAMnetsValid,2021.1.4,MacIntel,62.5,,,,,,,,,,,,,,,,,,,,,,,,,,,,,,,,,,,,,,,,,,,,,,,,,,,,,,,,,,,,,,,,,,,,,,,,,,,,,,,,,,,,,,,,,
,,9,1.896,9,1.896,0,81,81,22,1,142,garden,tree,,89426,001,2022-04-29_05h14.49.501,SPAMnetsValid,2021.1.4,MacIntel,62.5,,,,,,,,,,,,,,,,,,,,,,,,,,,,,,,,,,,,,,,,,,,,,,,,,,,,,,,,,,,,,,,,,,,,,,,,,,,,,,,,,,,,,,,,,
,,8,2.07,8,2.07,0,82,82,31,1,156,melon,rose,,89426,001,2022-04-29_05h14.49.501,SPAMnetsValid,2021.1.4,MacIntel,62.5,,,,,,,,,,,,,,,,,,,,,,,,,,,,,,,,,,,,,,,,,,,,,,,,,,,,,,,,,,,,,,,,,,,,,,,,,,,,,,,,,,,,,,,,,
,,1,2.248,1,2.248,0,83,83,59,1,164,cookie,garden,,89426,001,2022-04-29_05h14.49.501,SPAMnetsValid,2021.1.4,MacIntel,62.5,,,,,,,,,,,,,,,,,,,,,,,,,,,,,,,,,,,,,,,,,,,,,,,,,,,,,,,,,,,,,,,,,,,,,,,,,,,,,,,,,,,,,,,,,
,,8,2.396,8,2.396,0,84,84,7,1,188,flower,tree,,89426,001,2022-04-29_05h14.49.501,SPAMnetsValid,2021.1.4,MacIntel,62.5,,,,,,,,,,,,,,,,,,,,,,,,,,,,,,,,,,,,,,,,,,,,,,,,,,,,,,,,,,,,,,,,,,,,,,,,,,,,,,,,,,,,,,,,,
,,1,1.644,1,1.644,0,85,85,19,1,183,cake,rose,,89426,001,2022-04-29_05h14.49.501,SPAMnetsValid,2021.1.4,MacIntel,62.5,,,,,,,,,,,,,,,,,,,,,,,,,,,,,,,,,,,,,,,,,,,,,,,,,,,,,,,,,,,,,,,,,,,,,,,,,,,,,,,,,,,,,,,,,
,,9,2.614,9,2.614,0,86,86,45,1,179,broom,oven,,89426,001,2022-04-29_05h14.49.501,SPAMnetsValid,2021.1.4,MacIntel,62.5,,,,,,,,,,,,,,,,,,,,,,,,,,,,,,,,,,,,,,,,,,,,,,,,,,,,,,,,,,,,,,,,,,,,,,,,,,,,,,,,,,,,,,,,,
,,1,2.243,1,2.243,0,87,87,89,1,140,cookie,refrigerator,,89426,001,2022-04-29_05h14.49.501,SPAMnetsValid,2021.1.4,MacIntel,62.5,,,,,,,,,,,,,,,,,,,,,,,,,,,,,,,,,,,,,,,,,,,,,,,,,,,,,,,,,,,,,,,,,,,,,,,,,,,,,,,,,,,,,,,,,
,,1,1.88,1,1.88,0,88,88,84,1,130,microwave,yogurt,,89426,001,2022-04-29_05h14.49.501,SPAMnetsValid,2021.1.4,MacIntel,62.5,,,,,,,,,,,,,,,,,,,,,,,,,,,,,,,,,,,,,,,,,,,,,,,,,,,,,,,,,,,,,,,,,,,,,,,,,,,,,,,,,,,,,,,,,
,,1,1.563,1,1.563,0,89,89,50,1,126,kitchen,tree,,89426,001,2022-04-29_05h14.49.501,SPAMnetsValid,2021.1.4,MacIntel,62.5,,,,,,,,,,,,,,,,,,,,,,,,,,,,,,,,,,,,,,,,,,,,,,,,,,,,,,,,,,,,,,,,,,,,,,,,,,,,,,,,,,,,,,,,,
,,7,1.897,7,1.897,0,90,90,17,1,99,garden,melon,,89426,001,2022-04-29_05h14.49.501,SPAMnetsValid,2021.1.4,MacIntel,62.5,,,,,,,,,,,,,,,,,,,,,,,,,,,,,,,,,,,,,,,,,,,,,,,,,,,,,,,,,,,,,,,,,,,,,,,,,,,,,,,,,,,,,,,,,
,,2,2.867,2,2.867,0,91,91,36,1,161,kitchen,pretzel,,89426,001,2022-04-29_05h14.49.501,SPAMnetsValid,2021.1.4,MacIntel,62.5,,,,,,,,,,,,,,,,,,,,,,,,,,,,,,,,,,,,,,,,,,,,,,,,,,,,,,,,,,,,,,,,,,,,,,,,,,,,,,,,,,,,,,,,,
,,4,2.604,4,2.604,0,92,92,23,1,148,flower,melon,,89426,001,2022-04-29_05h14.49.501,SPAMnetsValid,2021.1.4,MacIntel,62.5,,,,,,,,,,,,,,,,,,,,,,,,,,,,,,,,,,,,,,,,,,,,,,,,,,,,,,,,,,,,,,,,,,,,,,,,,,,,,,,,,,,,,,,,,
,,6,2.687,6,2.687,0,93,93,35,1,147,cake,refrigerator,,89426,001,2022-04-29_05h14.49.501,SPAMnetsValid,2021.1.4,MacIntel,62.5,,,,,,,,,,,,,,,,,,,,,,,,,,,,,,,,,,,,,,,,,,,,,,,,,,,,,,,,,,,,,,,,,,,,,,,,,,,,,,,,,,,,,,,,,
,,2,2.96,2,2.96,0,94,94,65,1,160,cookie,kitchen,,89426,001,2022-04-29_05h14.49.501,SPAMnetsValid,2021.1.4,MacIntel,62.5,,,,,,,,,,,,,,,,,,,,,,,,,,,,,,,,,,,,,,,,,,,,,,,,,,,,,,,,,,,,,,,,,,,,,,,,,,,,,,,,,,,,,,,,,
,,1,1.787,1,1.787,0,95,95,16,1,111,carrot,microwave,,89426,001,2022-04-29_05h14.49.501,SPAMnetsValid,2021.1.4,MacIntel,62.5,,,,,,,,,,,,,,,,,,,,,,,,,,,,,,,,,,,,,,,,,,,,,,,,,,,,,,,,,,,,,,,,,,,,,,,,,,,,,,,,,,,,,,,,,
,,3,2.103,3,2.103,0,96,96,37,1,139,carrot,strawberry,,89426,001,2022-04-29_05h14.49.501,SPAMnetsValid,2021.1.4,MacIntel,62.5,,,,,,,,,,,,,,,,,,,,,,,,,,,,,,,,,,,,,,,,,,,,,,,,,,,,,,,,,,,,,,,,,,,,,,,,,,,,,,,,,,,,,,,,,
,,,,,,,,,,,,,,,89426,001,2022-04-29_05h14.49.501,SPAMnetsValid,2021.1.4,MacIntel,62.5,0,0,0,0,1,,,,,,,,,,,,,,,,,,,,,,,,,,,,,,,,,,,,,,,,,,,,,,,,,,,,,,,,,,,,,,,,,,,,,,,,,,,,,,,,,,,,
,,,,,,,,,,,,,,,89426,001,2022-04-29_05h14.49.501,SPAMnetsValid,2021.1.4,MacIntel,62.5,,,,,,0,0,0,1,1,0,1,,,,,,,,,,,,,,,,,,,,,,,,,,,,,,,,,,,,,,,,,,,,,,,,,,,,,,,,,,,,,,,,,,,,,,,,,,,,,
,,,,4,3.406,,,,,,26,tomato,yogurt,,89426,001,2022-04-29_05h14.49.501,SPAMnetsValid,2021.1.4,MacIntel,62.5,,,,,,,,,,,,,4,3.406,0,0,0,13,1,,,,,,,,,,,,,,,,,,,,,,,,,,,,,,,,,,,,,,,,,,,,,,,,,,,,,,,,,,,,,,,,,,,,,,
,,,,3,1.57,,,,,,83,broom,carrot,,89426,001,2022-04-29_05h14.49.501,SPAMnetsValid,2021.1.4,MacIntel,62.5,,,,,,,,,,,,,3,1.57,0,1,1,4,1,,,,,,,,,,,,,,,,,,,,,,,,,,,,,,,,,,,,,,,,,,,,,,,,,,,,,,,,,,,,,,,,,,,,,,
,,,,8,1.561,,,,,,59,rose,strawberry,,89426,001,2022-04-29_05h14.49.501,SPAMnetsValid,2021.1.4,MacIntel,62.5,,,,,,,,,,,,,8,1.561,0,2,2,72,1,,,,,,,,,,,,,,,,,,,,,,,,,,,,,,,,,,,,,,,,,,,,,,,,,,,,,,,,,,,,,,,,,,,,,,
,,,,1,1.471,,,,,,84,oven,tomato,,89426,001,2022-04-29_05h14.49.501,SPAMnetsValid,2021.1.4,MacIntel,62.5,,,,,,,,,,,,,1,1.471,0,3,3,28,1,,,,,,,,,,,,,,,,,,,,,,,,,,,,,,,,,,,,,,,,,,,,,,,,,,,,,,,,,,,,,,,,,,,,,,
,,,,1,1.713,,,,,,73,broom,chocolate,,89426,001,2022-04-29_05h14.49.501,SPAMnetsValid,2021.1.4,MacIntel,62.5,,,,,,,,,,,,,1,1.713,0,4,4,47,1,,,,,,,,,,,,,,,,,,,,,,,,,,,,,,,,,,,,,,,,,,,,,,,,,,,,,,,,,,,,,,,,,,,,,,
,,,,1,1.085,,,,,,74,broom,pretzel,,89426,001,2022-04-29_05h14.49.501,SPAMnetsValid,2021.1.4,MacIntel,62.5,,,,,,,,,,,,,1,1.085,0,5,5,40,1,,,,,,,,,,,,,,,,,,,,,,,,,,,,,,,,,,,,,,,,,,,,,,,,,,,,,,,,,,,,,,,,,,,,,,
,,,,1,1.847,,,,,,18,onion,refrigerator,,89426,001,2022-04-29_05h14.49.501,SPAMnetsValid,2021.1.4,MacIntel,62.5,,,,,,,,,,,,,1,1.847,0,6,6,62,1,,,,,,,,,,,,,,,,,,,,,,,,,,,,,,,,,,,,,,,,,,,,,,,,,,,,,,,,,,,,,,,,,,,,,,
,,,,1,1.803,,,,,,33,oven,yogurt,,89426,001,2022-04-29_05h14.49.501,SPAMnetsValid,2021.1.4,MacIntel,62.5,,,,,,,,,,,,,1,1.803,0,7,7,31,1,,,,,,,,,,,,,,,,,,,,,,,,,,,,,,,,,,,,,,,,,,,,,,,,,,,,,,,,,,,,,,,,,,,,,,
,,,,1,1.387,,,,,,43,chocolate,tomato,,89426,001,2022-04-29_05h14.49.501,SPAMnetsValid,2021.1.4,MacIntel,62.5,,,,,,,,,,,,,1,1.387,0,8,8,8,1,,,,,,,,,,,,,,,,,,,,,,,,,,,,,,,,,,,,,,,,,,,,,,,,,,,,,,,,,,,,,,,,,,,,,,
,,,,1,2.513,,,,,,85,cake,tree,,89426,001,2022-04-29_05h14.49.501,SPAMnetsValid,2021.1.4,MacIntel,62.5,,,,,,,,,,,,,1,2.513,0,9,9,18,1,,,,,,,,,,,,,,,,,,,,,,,,,,,,,,,,,,,,,,,,,,,,,,,,,,,,,,,,,,,,,,,,,,,,,,
,,,,1,1.903,,,,,,67,flower,yogurt,,89426,001,2022-04-29_05h14.49.501,SPAMnetsValid,2021.1.4,MacIntel,62.5,,,,,,,,,,,,,1,1.903,0,10,10,12,1,,,,,,,,,,,,,,,,,,,,,,,,,,,,,,,,,,,,,,,,,,,,,,,,,,,,,,,,,,,,,,,,,,,,,,
,,,,2,2.299,,,,,,52,carrot,tomato,,89426,001,2022-04-29_05h14.49.501,SPAMnetsValid,2021.1.4,MacIntel,62.5,,,,,,,,,,,,,2,2.299,0,11,11,95,1,,,,,,,,,,,,,,,,,,,,,,,,,,,,,,,,,,,,,,,,,,,,,,,,,,,,,,,,,,,,,,,,,,,,,,
,,,,3,1.4,,,,,,4,chocolate,pretzel,,89426,001,2022-04-29_05h14.49.501,SPAMnetsValid,2021.1.4,MacIntel,62.5,,,,,,,,,,,,,3,1.4,0,12,12,52,1,,,,,,,,,,,,,,,,,,,,,,,,,,,,,,,,,,,,,,,,,,,,,,,,,,,,,,,,,,,,,,,,,,,,,,
,,,,1,4.762,,,,,,53,garden,pretzel,,89426,001,2022-04-29_05h14.49.501,SPAMnetsValid,2021.1.4,MacIntel,62.5,,,,,,,,,,,,,1,4.762,0,13,13,0,1,,,,,,,,,,,,,,,,,,,,,,,,,,,,,,,,,,,,,,,,,,,,,,,,,,,,,,,,,,,,,,,,,,,,,,
,,,,2,3.031,,,,,,29,chocolate,melon,,89426,001,2022-04-29_05h14.49.501,SPAMnetsValid,2021.1.4,MacIntel,62.5,,,,,,,,,,,,,2,3.031,0,14,14,34,1,,,,,,,,,,,,,,,,,,,,,,,,,,,,,,,,,,,,,,,,,,,,,,,,,,,,,,,,,,,,,,,,,,,,,,
,,,,1,1.362,,,,,,14,broom,cookie,,89426,001,2022-04-29_05h14.49.501,SPAMnetsValid,2021.1.4,MacIntel,62.5,,,,,,,,,,,,,1,1.362,0,15,15,16,1,,,,,,,,,,,,,,,,,,,,,,,,,,,,,,,,,,,,,,,,,,,,,,,,,,,,,,,,,,,,,,,,,,,,,,
,,,,1,1.205,,,,,,11,refrigerator,tree,,89426,001,2022-04-29_05h14.49.501,SPAMnetsValid,2021.1.4,MacIntel,62.5,,,,,,,,,,,,,1,1.205,0,16,16,43,1,,,,,,,,,,,,,,,,,,,,,,,,,,,,,,,,,,,,,,,,,,,,,,,,,,,,,,,,,,,,,,,,,,,,,,
,,,,7,1.896,,,,,,61,strawberry,tomato,,89426,001,2022-04-29_05h14.49.501,SPAMnetsValid,2021.1.4,MacIntel,62.5,,,,,,,,,,,,,7,1.896,0,17,17,80,1,,,,,,,,,,,,,,,,,,,,,,,,,,,,,,,,,,,,,,,,,,,,,,,,,,,,,,,,,,,,,,,,,,,,,,
,,,,1,3.113,,,,,,15,onion,oven,,89426,001,2022-04-29_05h14.49.501,SPAMnetsValid,2021.1.4,MacIntel,62.5,,,,,,,,,,,,,1,3.113,0,18,18,39,1,,,,,,,,,,,,,,,,,,,,,,,,,,,,,,,,,,,,,,,,,,,,,,,,,,,,,,,,,,,,,,,,,,,,,,
,,,,1,1.63,,,,,,87,carrot,yogurt,,89426,001,2022-04-29_05h14.49.501,SPAMnetsValid,2021.1.4,MacIntel,62.5,,,,,,,,,,,,,1,1.63,0,19,19,6,1,,,,,,,,,,,,,,,,,,,,,,,,,,,,,,,,,,,,,,,,,,,,,,,,,,,,,,,,,,,,,,,,,,,,,,
,,,,1,1.547,,,,,,47,onion,tomato,,89426,001,2022-04-29_05h14.49.501,SPAMnetsValid,2021.1.4,MacIntel,62.5,,,,,,,,,,,,,1,1.547,0,20,20,51,1,,,,,,,,,,,,,,,,,,,,,,,,,,,,,,,,,,,,,,,,,,,,,,,,,,,,,,,,,,,,,,,,,,,,,,
,,,,1,2.757,,,,,,86,oven,rose,,89426,001,2022-04-29_05h14.49.501,SPAMnetsValid,2021.1.4,MacIntel,62.5,,,,,,,,,,,,,1,2.757,0,21,21,79,1,,,,,,,,,,,,,,,,,,,,,,,,,,,,,,,,,,,,,,,,,,,,,,,,,,,,,,,,,,,,,,,,,,,,,,
,,,,2,1.664,,,,,,31,cactus,pretzel,,89426,001,2022-04-29_05h14.49.501,SPAMnetsValid,2021.1.4,MacIntel,62.5,,,,,,,,,,,,,2,1.664,0,22,22,1,1,,,,,,,,,,,,,,,,,,,,,,,,,,,,,,,,,,,,,,,,,,,,,,,,,,,,,,,,,,,,,,,,,,,,,,
,,,,9,1.795,,,,,,191,cake,cake,CHECK,89426,001,2022-04-29_05h14.49.501,SPAMnetsValid,2021.1.4,MacIntel,62.5,,,,,,,,,,,,,9,1.795,0,23,23,10,1,,,,,,,,,,,,,,,,,,,,,,,,,,,,,,,,,,,,,,,,,,,,,,,,,,,,,,,,,,,,,,,,,,,,,,
,,,,5,3.987,,,,,,32,cake,microwave,,89426,001,2022-04-29_05h14.49.501,SPAMnetsValid,2021.1.4,MacIntel,62.5,,,,,,,,,,,,,5,3.987,0,24,24,33,1,,,,,,,,,,,,,,,,,,,,,,,,,,,,,,,,,,,,,,,,,,,,,,,,,,,,,,,,,,,,,,,,,,,,,,
,,,,1,1.75,,,,,,81,pretzel,yogurt,,89426,001,2022-04-29_05h14.49.501,SPAMnetsValid,2021.1.4,MacIntel,62.5,,,,,,,,,,,,,1,1.75,0,25,25,50,1,,,,,,,,,,,,,,,,,,,,,,,,,,,,,,,,,,,,,,,,,,,,,,,,,,,,,,,,,,,,,,,,,,,,,,
,,,,8,2.154,,,,,,77,refrigerator,yogurt,,89426,001,2022-04-29_05h14.49.501,SPAMnetsValid,2021.1.4,MacIntel,62.5,,,,,,,,,,,,,8,2.154,0,26,26,42,1,,,,,,,,,,,,,,,,,,,,,,,,,,,,,,,,,,,,,,,,,,,,,,,,,,,,,,,,,,,,,,,,,,,,,,
,,,,9,1.679,,,,,,36,broom,kitchen,,89426,001,2022-04-29_05h14.49.501,SPAMnetsValid,2021.1.4,MacIntel,62.5,,,,,,,,,,,,,9,1.679,0,27,27,76,1,,,,,,,,,,,,,,,,,,,,,,,,,,,,,,,,,,,,,,,,,,,,,,,,,,,,,,,,,,,,,,,,,,,,,,
,,,,2,1.579,,,,,,78,cookie,rose,,89426,001,2022-04-29_05h14.49.501,SPAMnetsValid,2021.1.4,MacIntel,62.5,,,,,,,,,,,,,2,1.579,0,28,28,56,1,,,,,,,,,,,,,,,,,,,,,,,,,,,,,,,,,,,,,,,,,,,,,,,,,,,,,,,,,,,,,,,,,,,,,,
,,,,1,3.155,,,,,,27,cactus,cookie,,89426,001,2022-04-29_05h14.49.501,SPAMnetsValid,2021.1.4,MacIntel,62.5,,,,,,,,,,,,,1,3.155,0,29,29,17,1,,,,,,,,,,,,,,,,,,,,,,,,,,,,,,,,,,,,,,,,,,,,,,,,,,,,,,,,,,,,,,,,,,,,,,
,,,,2,2.171,,,,,,42,garden,kitchen,,89426,001,2022-04-29_05h14.49.501,SPAMnetsValid,2021.1.4,MacIntel,62.5,,,,,,,,,,,,,2,2.171,0,30,30,29,1,,,,,,,,,,,,,,,,,,,,,,,,,,,,,,,,,,,,,,,,,,,,,,,,,,,,,,,,,,,,,,,,,,,,,,
,,,,2,1.361,,,,,,37,garden,refrigerator,,89426,001,2022-04-29_05h14.49.501,SPAMnetsValid,2021.1.4,MacIntel,62.5,,,,,,,,,,,,,2,1.361,0,31,31,11,1,,,,,,,,,,,,,,,,,,,,,,,,,,,,,,,,,,,,,,,,,,,,,,,,,,,,,,,,,,,,,,,,,,,,,,
,,,,2,2.063,,,,,,49,flower,strawberry,,89426,001,2022-04-29_05h14.49.501,SPAMnetsValid,2021.1.4,MacIntel,62.5,,,,,,,,,,,,,2,2.063,0,32,32,3,1,,,,,,,,,,,,,,,,,,,,,,,,,,,,,,,,,,,,,,,,,,,,,,,,,,,,,,,,,,,,,,,,,,,,,,
,,,,3,1.987,,,,,,60,cactus,onion,,89426,001,2022-04-29_05h14.49.501,SPAMnetsValid,2021.1.4,MacIntel,62.5,,,,,,,,,,,,,3,1.987,0,33,33,81,1,,,,,,,,,,,,,,,,,,,,,,,,,,,,,,,,,,,,,,,,,,,,,,,,,,,,,,,,,,,,,,,,,,,,,,
,,,,1,2.045,,,,,,80,chocolate,tree,,89426,001,2022-04-29_05h14.49.501,SPAMnetsValid,2021.1.4,MacIntel,62.5,,,,,,,,,,,,,1,2.045,0,34,34,89,1,,,,,,,,,,,,,,,,,,,,,,,,,,,,,,,,,,,,,,,,,,,,,,,,,,,,,,,,,,,,,,,,,,,,,,
,,,,1,2.662,,,,,,48,flower,oven,,89426,001,2022-04-29_05h14.49.501,SPAMnetsValid,2021.1.4,MacIntel,62.5,,,,,,,,,,,,,1,2.662,0,35,35,15,1,,,,,,,,,,,,,,,,,,,,,,,,,,,,,,,,,,,,,,,,,,,,,,,,,,,,,,,,,,,,,,,,,,,,,,
,,,,9,2.62,,,,,,9,kitchen,refrigerator,,89426,001,2022-04-29_05h14.49.501,SPAMnetsValid,2021.1.4,MacIntel,62.5,,,,,,,,,,,,,9,2.62,0,36,36,64,1,,,,,,,,,,,,,,,,,,,,,,,,,,,,,,,,,,,,,,,,,,,,,,,,,,,,,,,,,,,,,,,,,,,,,,
,,,,1,1.412,,,,,,51,onion,strawberry,,89426,001,2022-04-29_05h14.49.501,SPAMnetsValid,2021.1.4,MacIntel,62.5,,,,,,,,,,,,,1,1.412,0,37,37,86,1,,,,,,,,,,,,,,,,,,,,,,,,,,,,,,,,,,,,,,,,,,,,,,,,,,,,,,,,,,,,,,,,,,,,,,
,,,,1,2.413,,,,,,71,broom,rose,,89426,001,2022-04-29_05h14.49.501,SPAMnetsValid,2021.1.4,MacIntel,62.5,,,,,,,,,,,,,1,2.413,0,38,38,61,1,,,,,,,,,,,,,,,,,,,,,,,,,,,,,,,,,,,,,,,,,,,,,,,,,,,,,,,,,,,,,,,,,,,,,,
,,,,1,2.029,,,,,,39,melon,pretzel,,89426,001,2022-04-29_05h14.49.501,SPAMnetsValid,2021.1.4,MacIntel,62.5,,,,,,,,,,,,,1,2.029,0,39,39,20,1,,,,,,,,,,,,,,,,,,,,,,,,,,,,,,,,,,,,,,,,,,,,,,,,,,,,,,,,,,,,,,,,,,,,,,
,,,,1,1.128,,,,,,23,flower,microwave,,89426,001,2022-04-29_05h14.49.501,SPAMnetsValid,2021.1.4,MacIntel,62.5,,,,,,,,,,,,,1,1.128,0,40,40,25,1,,,,,,,,,,,,,,,,,,,,,,,,,,,,,,,,,,,,,,,,,,,,,,,,,,,,,,,,,,,,,,,,,,,,,,
,,,,1,1.354,,,,,,19,microwave,pretzel,,89426,001,2022-04-29_05h14.49.501,SPAMnetsValid,2021.1.4,MacIntel,62.5,,,,,,,,,,,,,1,1.354,0,41,41,41,1,,,,,,,,,,,,,,,,,,,,,,,,,,,,,,,,,,,,,,,,,,,,,,,,,,,,,,,,,,,,,,,,,,,,,,
,,,,3,2.329,,,,,,55,tomato,tree,,89426,001,2022-04-29_05h14.49.501,SPAMnetsValid,2021.1.4,MacIntel,62.5,,,,,,,,,,,,,3,2.329,0,42,42,35,1,,,,,,,,,,,,,,,,,,,,,,,,,,,,,,,,,,,,,,,,,,,,,,,,,,,,,,,,,,,,,,,,,,,,,,
,,,,1,1.337,,,,,,66,melon,yogurt,,89426,001,2022-04-29_05h14.49.501,SPAMnetsValid,2021.1.4,MacIntel,62.5,,,,,,,,,,,,,1,1.337,0,43,43,48,1,,,,,,,,,,,,,,,,,,,,,,,,,,,,,,,,,,,,,,,,,,,,,,,,,,,,,,,,,,,,,,,,,,,,,,
,,,,3,1.996,,,,,,68,flower,tomato,,89426,001,2022-04-29_05h14.49.501,SPAMnetsValid,2021.1.4,MacIntel,62.5,,,,,,,,,,,,,3,1.996,0,44,44,94,1,,,,,,,,,,,,,,,,,,,,,,,,,,,,,,,,,,,,,,,,,,,,,,,,,,,,,,,,,,,,,,,,,,,,,,
,,,,1,1.763,,,,,,41,broom,cactus,,89426,001,2022-04-29_05h14.49.501,SPAMnetsValid,2021.1.4,MacIntel,62.5,,,,,,,,,,,,,1,1.763,0,45,45,46,1,,,,,,,,,,,,,,,,,,,,,,,,,,,,,,,,,,,,,,,,,,,,,,,,,,,,,,,,,,,,,,,,,,,,,,
,,,,2,2.404,,,,,,65,broom,garden,,89426,001,2022-04-29_05h14.49.501,SPAMnetsValid,2021.1.4,MacIntel,62.5,,,,,,,,,,,,,2,2.404,0,46,46,23,1,,,,,,,,,,,,,,,,,,,,,,,,,,,,,,,,,,,,,,,,,,,,,,,,,,,,,,,,,,,,,,,,,,,,,,
,,,,1,1.298,,,,,,58,garden,oven,,89426,001,2022-04-29_05h14.49.501,SPAMnetsValid,2021.1.4,MacIntel,62.5,,,,,,,,,,,,,1,1.298,0,47,47,37,1,,,,,,,,,,,,,,,,,,,,,,,,,,,,,,,,,,,,,,,,,,,,,,,,,,,,,,,,,,,,,,,,,,,,,,
,,,,1,1.222,,,,,,5,oven,tree,,89426,001,2022-04-29_05h14.49.501,SPAMnetsValid,2021.1.4,MacIntel,62.5,,,,,,,,,,,,,1,1.222,0,48,48,70,1,,,,,,,,,,,,,,,,,,,,,,,,,,,,,,,,,,,,,,,,,,,,,,,,,,,,,,,,,,,,,,,,,,,,,,
,,,,9,2.303,,,,,,93,kitchen,oven,,89426,001,2022-04-29_05h14.49.501,SPAMnetsValid,2021.1.4,MacIntel,62.5,,,,,,,,,,,,,9,2.303,0,49,49,82,1,,,,,,,,,,,,,,,,,,,,,,,,,,,,,,,,,,,,,,,,,,,,,,,,,,,,,,,,,,,,,,,,,,,,,,
,,,,3,3.604,,,,,,2,kitchen,onion,,89426,001,2022-04-29_05h14.49.501,SPAMnetsValid,2021.1.4,MacIntel,62.5,,,,,,,,,,,,,3,3.604,0,50,50,91,1,,,,,,,,,,,,,,,,,,,,,,,,,,,,,,,,,,,,,,,,,,,,,,,,,,,,,,,,,,,,,,,,,,,,,,
,,,,1,1.911,,,,,,50,carrot,rose,,89426,001,2022-04-29_05h14.49.501,SPAMnetsValid,2021.1.4,MacIntel,62.5,,,,,,,,,,,,,1,1.911,0,51,51,73,1,,,,,,,,,,,,,,,,,,,,,,,,,,,,,,,,,,,,,,,,,,,,,,,,,,,,,,,,,,,,,,,,,,,,,,
,,,,1,1.903,,,,,,72,broom,onion,,89426,001,2022-04-29_05h14.49.501,SPAMnetsValid,2021.1.4,MacIntel,62.5,,,,,,,,,,,,,1,1.903,0,52,52,27,1,,,,,,,,,,,,,,,,,,,,,,,,,,,,,,,,,,,,,,,,,,,,,,,,,,,,,,,,,,,,,,,,,,,,,,
,,,,1,1.445,,,,,,46,garden,yogurt,,89426,001,2022-04-29_05h14.49.501,SPAMnetsValid,2021.1.4,MacIntel,62.5,,,,,,,,,,,,,1,1.445,0,53,53,65,1,,,,,,,,,,,,,,,,,,,,,,,,,,,,,,,,,,,,,,,,,,,,,,,,,,,,,,,,,,,,,,,,,,,,,,
,,,,1,1.38,,,,,,92,broom,flower,,89426,001,2022-04-29_05h14.49.501,SPAMnetsValid,2021.1.4,MacIntel,62.5,,,,,,,,,,,,,1,1.38,0,54,54,88,1,,,,,,,,,,,,,,,,,,,,,,,,,,,,,,,,,,,,,,,,,,,,,,,,,,,,,,,,,,,,,,,,,,,,,,
,,,,6,3.616,,,,,,54,chocolate,yogurt,,89426,001,2022-04-29_05h14.49.501,SPAMnetsValid,2021.1.4,MacIntel,62.5,,,,,,,,,,,,,6,3.616,0,55,55,67,1,,,,,,,,,,,,,,,,,,,,,,,,,,,,,,,,,,,,,,,,,,,,,,,,,,,,,,,,,,,,,,,,,,,,,,
,,,,1,2.313,,,,,,45,onion,pretzel,,89426,001,2022-04-29_05h14.49.501,SPAMnetsValid,2021.1.4,MacIntel,62.5,,,,,,,,,,,,,1,2.313,0,56,56,69,1,,,,,,,,,,,,,,,,,,,,,,,,,,,,,,,,,,,,,,,,,,,,,,,,,,,,,,,,,,,,,,,,,,,,,,
,,,,7,3.154,,,,,,56,cactus,tree,,89426,001,2022-04-29_05h14.49.501,SPAMnetsValid,2021.1.4,MacIntel,62.5,,,,,,,,,,,,,7,3.154,0,57,57,21,1,,,,,,,,,,,,,,,,,,,,,,,,,,,,,,,,,,,,,,,,,,,,,,,,,,,,,,,,,,,,,,,,,,,,,,
,,,,5,2.253,,,,,,6,garden,onion,,89426,001,2022-04-29_05h14.49.501,SPAMnetsValid,2021.1.4,MacIntel,62.5,,,,,,,,,,,,,5,2.253,0,58,58,83,1,,,,,,,,,,,,,,,,,,,,,,,,,,,,,,,,,,,,,,,,,,,,,,,,,,,,,,,,,,,,,,,,,,,,,,
,,,,4,2.514,,,,,,88,cactus,melon,,89426,001,2022-04-29_05h14.49.501,SPAMnetsValid,2021.1.4,MacIntel,62.5,,,,,,,,,,,,,4,2.514,0,59,59,38,1,,,,,,,,,,,,,,,,,,,,,,,,,,,,,,,,,,,,,,,,,,,,,,,,,,,,,,,,,,,,,,,,,,,,,,
,,,,1,2.619,,,,,,34,melon,oven,,89426,001,2022-04-29_05h14.49.501,SPAMnetsValid,2021.1.4,MacIntel,62.5,,,,,,,,,,,,,1,2.619,0,60,60,7,1,,,,,,,,,,,,,,,,,,,,,,,,,,,,,,,,,,,,,,,,,,,,,,,,,,,,,,,,,,,,,,,,,,,,,,
,,,,9,2.213,,,,,,95,broom,refrigerator,,89426,001,2022-04-29_05h14.49.501,SPAMnetsValid,2021.1.4,MacIntel,62.5,,,,,,,,,,,,,9,2.213,0,61,61,90,1,,,,,,,,,,,,,,,,,,,,,,,,,,,,,,,,,,,,,,,,,,,,,,,,,,,,,,,,,,,,,,,,,,,,,,
,,,,2,3.177,,,,,,69,carrot,refrigerator,,89426,001,2022-04-29_05h14.49.501,SPAMnetsValid,2021.1.4,MacIntel,62.5,,,,,,,,,,,,,2,3.177,0,62,62,75,1,,,,,,,,,,,,,,,,,,,,,,,,,,,,,,,,,,,,,,,,,,,,,,,,,,,,,,,,,,,,,,,,,,,,,,
,,,,1,2.639,,,,,,75,cookie,onion,,89426,001,2022-04-29_05h14.49.501,SPAMnetsValid,2021.1.4,MacIntel,62.5,,,,,,,,,,,,,1,2.639,0,63,63,9,1,,,,,,,,,,,,,,,,,,,,,,,,,,,,,,,,,,,,,,,,,,,,,,,,,,,,,,,,,,,,,,,,,,,,,,
,,,,9,2.136,,,,,,3,cake,oven,,89426,001,2022-04-29_05h14.49.501,SPAMnetsValid,2021.1.4,MacIntel,62.5,,,,,,,,,,,,,9,2.136,0,64,64,30,1,,,,,,,,,,,,,,,,,,,,,,,,,,,,,,,,,,,,,,,,,,,,,,,,,,,,,,,,,,,,,,,,,,,,,,
,,,,9,1.27,,,,,,82,cake,kitchen,,89426,001,2022-04-29_05h14.49.501,SPAMnetsValid,2021.1.4,MacIntel,62.5,,,,,,,,,,,,,9,1.27,0,65,65,96,1,,,,,,,,,,,,,,,,,,,,,,,,,,,,,,,,,,,,,,,,,,,,,,,,,,,,,,,,,,,,,,,,,,,,,,
,,,,2,3.971,,,,,,30,cookie,pretzel,,89426,001,2022-04-29_05h14.49.501,SPAMnetsValid,2021.1.4,MacIntel,62.5,,,,,,,,,,,,,2,3.971,0,66,66,78,1,,,,,,,,,,,,,,,,,,,,,,,,,,,,,,,,,,,,,,,,,,,,,,,,,,,,,,,,,,,,,,,,,,,,,,
,,,,1,2.947,,,,,,7,melon,tree,,89426,001,2022-04-29_05h14.49.501,SPAMnetsValid,2021.1.4,MacIntel,62.5,,,,,,,,,,,,,1,2.947,0,67,67,77,1,,,,,,,,,,,,,,,,,,,,,,,,,,,,,,,,,,,,,,,,,,,,,,,,,,,,,,,,,,,,,,,,,,,,,,
,,,,1,2.979,,,,,,62,kitchen,rose,,89426,001,2022-04-29_05h14.49.501,SPAMnetsValid,2021.1.4,MacIntel,62.5,,,,,,,,,,,,,1,2.979,0,68,68,57,1,,,,,,,,,,,,,,,,,,,,,,,,,,,,,,,,,,,,,,,,,,,,,,,,,,,,,,,,,,,,,,,,,,,,,,
,,,,2,1.731,,,,,,57,flower,kitchen,,89426,001,2022-04-29_05h14.49.501,SPAMnetsValid,2021.1.4,MacIntel,62.5,,,,,,,,,,,,,2,1.731,0,69,69,49,1,,,,,,,,,,,,,,,,,,,,,,,,,,,,,,,,,,,,,,,,,,,,,,,,,,,,,,,,,,,,,,,,,,,,,,
,,,,1,2.012,,,,,,13,broom,yogurt,,89426,001,2022-04-29_05h14.49.501,SPAMnetsValid,2021.1.4,MacIntel,62.5,,,,,,,,,,,,,1,2.012,0,70,70,5,1,,,,,,,,,,,,,,,,,,,,,,,,,,,,,,,,,,,,,,,,,,,,,,,,,,,,,,,,,,,,,,,,,,,,,,
,,,,1,1.997,,,,,,1,rose,yogurt,,89426,001,2022-04-29_05h14.49.501,SPAMnetsValid,2021.1.4,MacIntel,62.5,,,,,,,,,,,,,1,1.997,0,71,71,55,1,,,,,,,,,,,,,,,,,,,,,,,,,,,,,,,,,,,,,,,,,,,,,,,,,,,,,,,,,,,,,,,,,,,,,,
,,,,1,1.53,,,,,,35,flower,pretzel,,89426,001,2022-04-29_05h14.49.501,SPAMnetsValid,2021.1.4,MacIntel,62.5,,,,,,,,,,,,,1,1.53,0,72,72,26,1,,,,,,,,,,,,,,,,,,,,,,,,,,,,,,,,,,,,,,,,,,,,,,,,,,,,,,,,,,,,,,,,,,,,,,
,,,,1,1.252,,,,,,28,cake,melon,,89426,001,2022-04-29_05h14.49.501,SPAMnetsValid,2021.1.4,MacIntel,62.5,,,,,,,,,,,,,1,1.252,0,73,73,54,1,,,,,,,,,,,,,,,,,,,,,,,,,,,,,,,,,,,,,,,,,,,,,,,,,,,,,,,,,,,,,,,,,,,,,,
,,,,1,1.111,,,,,,21,cake,onion,,89426,001,2022-04-29_05h14.49.501,SPAMnetsValid,2021.1.4,MacIntel,62.5,,,,,,,,,,,,,1,1.111,0,74,74,63,1,,,,,,,,,,,,,,,,,,,,,,,,,,,,,,,,,,,,,,,,,,,,,,,,,,,,,,,,,,,,,,,,,,,,,,
,,,,4,1.805,,,,,,12,cookie,yogurt,,89426,001,2022-04-29_05h14.49.501,SPAMnetsValid,2021.1.4,MacIntel,62.5,,,,,,,,,,,,,4,1.805,0,75,75,36,1,,,,,,,,,,,,,,,,,,,,,,,,,,,,,,,,,,,,,,,,,,,,,,,,,,,,,,,,,,,,,,,,,,,,,,
,,,,4,2.013,,,,,,22,kitchen,strawberry,,89426,001,2022-04-29_05h14.49.501,SPAMnetsValid,2021.1.4,MacIntel,62.5,,,,,,,,,,,,,4,2.013,0,76,76,2,1,,,,,,,,,,,,,,,,,,,,,,,,,,,,,,,,,,,,,,,,,,,,,,,,,,,,,,,,,,,,,,,,,,,,,,
,,,,1,1.728,,,,,,38,pretzel,refrigerator,,89426,001,2022-04-29_05h14.49.501,SPAMnetsValid,2021.1.4,MacIntel,62.5,,,,,,,,,,,,,1,1.728,0,77,77,71,1,,,,,,,,,,,,,,,,,,,,,,,,,,,,,,,,,,,,,,,,,,,,,,,,,,,,,,,,,,,,,,,,,,,,,,
,,,,1,1.866,,,,,,24,cookie,tomato,,89426,001,2022-04-29_05h14.49.501,SPAMnetsValid,2021.1.4,MacIntel,62.5,,,,,,,,,,,,,1,1.866,0,78,78,68,1,,,,,,,,,,,,,,,,,,,,,,,,,,,,,,,,,,,,,,,,,,,,,,,,,,,,,,,,,,,,,,,,,,,,,,
,,,,7,2.264,,,,,,79,garden,strawberry,,89426,001,2022-04-29_05h14.49.501,SPAMnetsValid,2021.1.4,MacIntel,62.5,,,,,,,,,,,,,7,2.264,0,79,79,87,1,,,,,,,,,,,,,,,,,,,,,,,,,,,,,,,,,,,,,,,,,,,,,,,,,,,,,,,,,,,,,,,,,,,,,,
,,,,1,1.912,,,,,,8,broom,melon,,89426,001,2022-04-29_05h14.49.501,SPAMnetsValid,2021.1.4,MacIntel,62.5,,,,,,,,,,,,,1,1.912,0,80,80,59,1,,,,,,,,,,,,,,,,,,,,,,,,,,,,,,,,,,,,,,,,,,,,,,,,,,,,,,,,,,,,,,,,,,,,,,
,,,,9,1.87,,,,,,63,cake,cookie,,89426,001,2022-04-29_05h14.49.501,SPAMnetsValid,2021.1.4,MacIntel,62.5,,,,,,,,,,,,,9,1.87,0,81,81,93,1,,,,,,,,,,,,,,,,,,,,,,,,,,,,,,,,,,,,,,,,,,,,,,,,,,,,,,,,,,,,,,,,,,,,,,
,,,,1,2.272,,,,,,91,microwave,rose,,89426,001,2022-04-29_05h14.49.501,SPAMnetsValid,2021.1.4,MacIntel,62.5,,,,,,,,,,,,,1,2.272,0,82,82,84,1,,,,,,,,,,,,,,,,,,,,,,,,,,,,,,,,,,,,,,,,,,,,,,,,,,,,,,,,,,,,,,,,,,,,,,
,,,,1,1.079,,,,,,10,flower,onion,,89426,001,2022-04-29_05h14.49.501,SPAMnetsValid,2021.1.4,MacIntel,62.5,,,,,,,,,,,,,1,1.079,0,83,83,45,1,,,,,,,,,,,,,,,,,,,,,,,,,,,,,,,,,,,,,,,,,,,,,,,,,,,,,,,,,,,,,,,,,,,,,,
,,,,3,1.145,,,,,,17,carrot,melon,,89426,001,2022-04-29_05h14.49.501,SPAMnetsValid,2021.1.4,MacIntel,62.5,,,,,,,,,,,,,3,1.145,0,84,84,24,1,,,,,,,,,,,,,,,,,,,,,,,,,,,,,,,,,,,,,,,,,,,,,,,,,,,,,,,,,,,,,,,,,,,,,,
,,,,1,1.708,,,,,,40,broom,cake,,89426,001,2022-04-29_05h14.49.501,SPAMnetsValid,2021.1.4,MacIntel,62.5,,,,,,,,,,,,,1,1.708,0,85,85,32,1,,,,,,,,,,,,,,,,,,,,,,,,,,,,,,,,,,,,,,,,,,,,,,,,,,,,,,,,,,,,,,,,,,,,,,
,,,,1,2.311,,,,,,64,chocolate,garden,,89426,001,2022-04-29_05h14.49.501,SPAMnetsValid,2021.1.4,MacIntel,62.5,,,,,,,,,,,,,1,2.311,0,86,86,14,1,,,,,,,,,,,,,,,,,,,,,,,,,,,,,,,,,,,,,,,,,,,,,,,,,,,,,,,,,,,,,,,,,,,,,,
,,,,9,3.549,,,,,,94,kitchen,microwave,,89426,001,2022-04-29_05h14.49.501,SPAMnetsValid,2021.1.4,MacIntel,62.5,,,,,,,,,,,,,9,3.549,0,87,87,58,1,,,,,,,,,,,,,,,,,,,,,,,,,,,,,,,,,,,,,,,,,,,,,,,,,,,,,,,,,,,,,,,,,,,,,,
,,,,9,2.221,,,,,,76,garden,rose,,89426,001,2022-04-29_05h14.49.501,SPAMnetsValid,2021.1.4,MacIntel,62.5,,,,,,,,,,,,,9,2.221,0,88,88,19,1,,,,,,,,,,,,,,,,,,,,,,,,,,,,,,,,,,,,,,,,,,,,,,,,,,,,,,,,,,,,,,,,,,,,,,
,,,,3,2.254,,,,,,89,chocolate,rose,,89426,001,2022-04-29_05h14.49.501,SPAMnetsValid,2021.1.4,MacIntel,62.5,,,,,,,,,,,,,3,2.254,0,89,89,60,1,,,,,,,,,,,,,,,,,,,,,,,,,,,,,,,,,,,,,,,,,,,,,,,,,,,,,,,,,,,,,,,,,,,,,,
,,,,2,2.186,,,,,,44,cookie,melon,,89426,001,2022-04-29_05h14.49.501,SPAMnetsValid,2021.1.4,MacIntel,62.5,,,,,,,,,,,,,2,2.186,0,90,90,92,1,,,,,,,,,,,,,,,,,,,,,,,,,,,,,,,,,,,,,,,,,,,,,,,,,,,,,,,,,,,,,,,,,,,,,,
,,,,1,1.65,,,,,,25,carrot,onion,,89426,001,2022-04-29_05h14.49.501,SPAMnetsValid,2021.1.4,MacIntel,62.5,,,,,,,,,,,,,1,1.65,0,91,91,44,1,,,,,,,,,,,,,,,,,,,,,,,,,,,,,,,,,,,,,,,,,,,,,,,,,,,,,,,,,,,,,,,,,,,,,,
,,,,8,1.982,,,,,,20,rose,tree,,89426,001,2022-04-29_05h14.49.501,SPAMnetsValid,2021.1.4,MacIntel,62.5,,,,,,,,,,,,,8,1.982,0,92,92,66,1,,,,,,,,,,,,,,,,,,,,,,,,,,,,,,,,,,,,,,,,,,,,,,,,,,,,,,,,,,,,,,,,,,,,,,
,,,,8,1.68,,,,,,16,chocolate,flower,,89426,001,2022-04-29_05h14.49.501,SPAMnetsValid,2021.1.4,MacIntel,62.5,,,,,,,,,,,,,8,1.68,0,93,93,22,1,,,,,,,,,,,,,,,,,,,,,,,,,,,,,,,,,,,,,,,,,,,,,,,,,,,,,,,,,,,,,,,,,,,,,,
,,,,1,3.896,,,,,,90,cactus,cake,,89426,001,2022-04-29_05h14.49.501,SPAMnetsValid,2021.1.4,MacIntel,62.5,,,,,,,,,,,,,1,3.896,0,94,94,85,1,,,,,,,,,,,,,,,,,,,,,,,,,,,,,,,,,,,,,,,,,,,,,,,,,,,,,,,,,,,,,,,,,,,,,,
,,,,1,1.983,,,,,,70,chocolate,onion,,89426,001,2022-04-29_05h14.49.501,SPAMnetsValid,2021.1.4,MacIntel,62.5,,,,,,,,,,,,,1,1.983,0,95,95,74,1,,,,,,,,,,,,,,,,,,,,,,,,,,,,,,,,,,,,,,,,,,,,,,,,,,,,,,,,,,,,,,,,,,,,,,
,,,,9,4.978,,,,,,192,microwave,microwave,CHECK,89426,001,2022-04-29_05h14.49.501,SPAMnetsValid,2021.1.4,MacIntel,62.5,,,,,,,,,,,,,9,4.978,0,96,96,53,1,,,,,,,,,,,,,,,,,,,,,,,,,,,,,,,,,,,,,,,,,,,,,,,,,,,,,,,,,,,,,,,,,,,,,,
,,,,,,,,,,,,,,,89426,001,2022-04-29_05h14.49.501,SPAMnetsValid,2021.1.4,MacIntel,62.5,,,,,,,,,,,,,,,,,,,,0,0,0,0,1,,,,,,,,,,,,,,,,,,,,,,,,,,,,,,,,,,,,,,,,,,,,,,,,,,,,,,,,,,,,,,,,,
,,,,,,,,,,,,,,,89426,001,2022-04-29_05h14.49.501,SPAMnetsValid,2021.1.4,MacIntel,62.5,,,,,,0,1,1,0,1,1,0,,,,,,,,,,,,,,,,,,,,,,,,,,,,,,,,,,,,,,,,,,,,,,,,,,,,,,,,,,,,,,,,,,,,,,,,,,,,,
,,,,,,,,,,,,,,,89426,001,2022-04-29_05h14.49.501,SPAMnetsValid,2021.1.4,MacIntel,62.5,,,,,,,,,,,,,,,,,,,,,,,,,1,7.96,0,0,0,0,1,rancor,forbearance,ridicule,malice,bravery,3,,,,,,,,,,,,,,,,,,,,,,,,,,,,,,,,,,,,,,,,,,,,,,,,,,,,
,,,,,,,,,,,,,,,89426,001,2022-04-29_05h14.49.501,SPAMnetsValid,2021.1.4,MacIntel,62.5,,,,,,,,,,,,,,,,,,,,,,,,,4,9.429,0,1,1,1,1,raucous,empty,quiet,smooth,harsh,4,,,,,,,,,,,,,,,,,,,,,,,,,,,,,,,,,,,,,,,,,,,,,,,,,,,,
,,,,,,,,,,,,,,,89426,001,2022-04-29_05h14.49.501,SPAMnetsValid,2021.1.4,MacIntel,62.5,,,,,,,,,,,,,,,,,,,,,,,,,1,5.898,0,2,2,2,1,gargoyle,oil,medicine,carved waterspout,ugly building,3,,,,,,,,,,,,,,,,,,,,,,,,,,,,,,,,,,,,,,,,,,,,,,,,,,,,
,,,,,,,,,,,,,,,89426,001,2022-04-29_05h14.49.501,SPAMnetsValid,2021.1.4,MacIntel,62.5,,,,,,,,,,,,,,,,,,,,,,,,,2,10.44,0,3,3,3,1,recrudesce,purify,renew activity,lack refinement,crush,2,,,,,,,,,,,,,,,,,,,,,,,,,,,,,,,,,,,,,,,,,,,,,,,,,,,,
,,,,,,,,,,,,,,,89426,001,2022-04-29_05h14.49.501,SPAMnetsValid,2021.1.4,MacIntel,62.5,,,,,,,,,,,,,,,,,,,,,,,,,3,3.923,0,4,4,4,1,specious,"plausible, but not genuine",noteworthy,class or variety,roomy,1,,,,,,,,,,,,,,,,,,,,,,,,,,,,,,,,,,,,,,,,,,,,,,,,,,,,
,,,,,,,,,,,,,,,89426,001,2022-04-29_05h14.49.501,SPAMnetsValid,2021.1.4,MacIntel,62.5,,,,,,,,,,,,,,,,,,,,,,,,,2,3.687,0,5,5,5,1,bauble,bubble,showy plaything,idle talk,confusion,2,,,,,,,,,,,,,,,,,,,,,,,,,,,,,,,,,,,,,,,,,,,,,,,,,,,,
,,,,,,,,,,,,,,,89426,001,2022-04-29_05h14.49.501,SPAMnetsValid,2021.1.4,MacIntel,62.5,,,,,,,,,,,,,,,,,,,,,,,,,2,2.405,0,6,6,6,1,prolific,scarce,producing abundantly,reckless,speaking profanely,2,,,,,,,,,,,,,,,,,,,,,,,,,,,,,,,,,,,,,,,,,,,,,,,,,,,,
,,,,,,,,,,,,,,,89426,001,2022-04-29_05h14.49.501,SPAMnetsValid,2021.1.4,MacIntel,62.5,,,,,,,,,,,,,,,,,,,,,,,,,4,1.353,0,7,7,7,1,opulent,party,wealthy,happy frame of mind,semiprecious stone,2,,,,,,,,,,,,,,,,,,,,,,,,,,,,,,,,,,,,,,,,,,,,,,,,,,,,
,,,,,,,,,,,,,,,89426,001,2022-04-29_05h14.49.501,SPAMnetsValid,2021.1.4,MacIntel,62.5,,,,,,,,,,,,,,,,,,,,,,,,,2,11.982,0,8,8,8,1,coercion,conspiracy,strategy,restraint,attraction,3,,,,,,,,,,,,,,,,,,,,,,,,,,,,,,,,,,,,,,,,,,,,,,,,,,,,
,,,,,,,,,,,,,,,89426,001,2022-04-29_05h14.49.501,SPAMnetsValid,2021.1.4,MacIntel,62.5,,,,,,,,,,,,,,,,,,,,,,,,,2,5.622,0,9,9,9,1,hiatus,animal,calamity,dread,gap,4,,,,,,,,,,,,,,,,,,,,,,,,,,,,,,,,,,,,,,,,,,,,,,,,,,,,
,,,,,,,,,,,,,,,89426,001,2022-04-29_05h14.49.501,SPAMnetsValid,2021.1.4,MacIntel,62.5,,,,,,,,,,,,,,,,,,,,,,,,,3,17.749,0,10,10,10,1,germane,microbe,contagious,relevant,different,3,,,,,,,,,,,,,,,,,,,,,,,,,,,,,,,,,,,,,,,,,,,,,,,,,,,,
,,,,,,,,,,,,,,,89426,001,2022-04-29_05h14.49.501,SPAMnetsValid,2021.1.4,MacIntel,62.5,,,,,,,,,,,,,,,,,,,,,,,,,2,2.913,0,11,11,11,1,perfunctory,fundamental,formal,superficial,careful,3,,,,,,,,,,,,,,,,,,,,,,,,,,,,,,,,,,,,,,,,,,,,,,,,,,,,
,,,,,,,,,,,,,,,89426,001,2022-04-29_05h14.49.501,SPAMnetsValid,2021.1.4,MacIntel,62.5,,,,,,,,,,,,,,,,,,,,,,,,,1,4.09,0,12,12,12,1,diverge,reveal,chant,distract the attention of,differ or turn off from,4,,,,,,,,,,,,,,,,,,,,,,,,,,,,,,,,,,,,,,,,,,,,,,,,,,,,
,,,,,,,,,,,,,,,89426,001,2022-04-29_05h14.49.501,SPAMnetsValid,2021.1.4,MacIntel,62.5,,,,,,,,,,,,,,,,,,,,,,,,,1,2.913,0,13,13,13,1,evoke,take away,anger,connect,bring out,4,,,,,,,,,,,,,,,,,,,,,,,,,,,,,,,,,,,,,,,,,,,,,,,,,,,,
,,,,,,,,,,,,,,,89426,001,2022-04-29_05h14.49.501,SPAMnetsValid,2021.1.4,MacIntel,62.5,,,,,,,,,,,,,,,,,,,,,,,,,1,2.969,0,14,14,14,1,pertinent,relevant,lying next to,necessary,bold,1,,,,,,,,,,,,,,,,,,,,,,,,,,,,,,,,,,,,,,,,,,,,,,,,,,,,
,,,,,,,,,,,,,,,89426,001,2022-04-29_05h14.49.501,SPAMnetsValid,2021.1.4,MacIntel,62.5,,,,,,,,,,,,,,,,,,,,,,,,,3,3.736,0,15,15,15,1,holocaust,entirety,destruction,saintly,price,2,,,,,,,,,,,,,,,,,,,,,,,,,,,,,,,,,,,,,,,,,,,,,,,,,,,,
,,,,,,,,,,,,,,,89426,001,2022-04-29_05h14.49.501,SPAMnetsValid,2021.1.4,MacIntel,62.5,,,,,,,,,,,,,,,,,,,,,,,,,3,9.029,0,16,16,16,1,piquant,mellow,fish,pungent,cloth,3,,,,,,,,,,,,,,,,,,,,,,,,,,,,,,,,,,,,,,,,,,,,,,,,,,,,
,,,,,,,,,,,,,,,89426,001,2022-04-29_05h14.49.501,SPAMnetsValid,2021.1.4,MacIntel,62.5,,,,,,,,,,,,,,,,,,,,,,,,,4,1.164,0,17,17,17,1,firmament,foundation,heavens,strong,glue,2,,,,,,,,,,,,,,,,,,,,,,,,,,,,,,,,,,,,,,,,,,,,,,,,,,,,
,,,,,,,,,,,,,,,89426,001,2022-04-29_05h14.49.501,SPAMnetsValid,2021.1.4,MacIntel,62.5,,,,,,,,,,,,,,,,,,,,,,,,,,,,,,,,,,,,,,4,4.954,0,0,0,0,1,marketable,partisan,jocular,marriageable,salable,essential,4,,,,,,,,,,,,,,,,,,,,,,,,,,,,,,,,,,,,,,
,,,,,,,,,,,,,,,89426,001,2022-04-29_05h14.49.501,SPAMnetsValid,2021.1.4,MacIntel,62.5,,,,,,,,,,,,,,,,,,,,,,,,,,,,,,,,,,,,,,3,8.114,0,1,1,1,1,cottontail,squirrel,poplar,boa,marshy plant,rabbit,5,,,,,,,,,,,,,,,,,,,,,,,,,,,,,,,,,,,,,,
,,,,,,,,,,,,,,,89426,001,2022-04-29_05h14.49.501,SPAMnetsValid,2021.1.4,MacIntel,62.5,,,,,,,,,,,,,,,,,,,,,,,,,,,,,,,,,,,,,,1,3.854,0,2,2,2,1,boggy,afraid,false,marshy,dense,black,3,,,,,,,,,,,,,,,,,,,,,,,,,,,,,,,,,,,,,,
,,,,,,,,,,,,,,,89426,001,2022-04-29_05h14.49.501,SPAMnetsValid,2021.1.4,MacIntel,62.5,,,,,,,,,,,,,,,,,,,,,,,,,,,,,,,,,,,,,,1,16.656,0,3,3,3,1,gruesomeness,blackness,falseness,vindictiveness,drunkenness,ghastliness,5,,,,,,,,,,,,,,,,,,,,,,,,,,,,,,,,,,,,,,
,,,,,,,,,,,,,,,89426,001,2022-04-29_05h14.49.501,SPAMnetsValid,2021.1.4,MacIntel,62.5,,,,,,,,,,,,,,,,,,,,,,,,,,,,,,,,,,,,,,5,10.48,0,4,4,4,1,loathing,diffidence,laziness,abhorrence,cleverness,comfort,3,,,,,,,,,,,,,,,,,,,,,,,,,,,,,,,,,,,,,,
,,,,,,,,,,,,,,,89426,001,2022-04-29_05h14.49.501,SPAMnetsValid,2021.1.4,MacIntel,62.5,,,,,,,,,,,,,,,,,,,,,,,,,,,,,,,,,,,,,,3,2.321,0,5,5,5,1,bantam,fowl,ridicule,cripple,vegetable,ensign,1,,,,,,,,,,,,,,,,,,,,,,,,,,,,,,,,,,,,,,
,,,,,,,,,,,,,,,89426,001,2022-04-29_05h14.49.501,SPAMnetsValid,2021.1.4,MacIntel,62.5,,,,,,,,,,,,,,,,,,,,,,,,,,,,,,,,,,,,,,2,1.104,0,6,6,6,1,evoke,wake up,surrender,reconnoiter,transcend,call forth,5,,,,,,,,,,,,,,,,,,,,,,,,,,,,,,,,,,,,,,
,,,,,,,,,,,,,,,89426,001,2022-04-29_05h14.49.501,SPAMnetsValid,2021.1.4,MacIntel,62.5,,,,,,,,,,,,,,,,,,,,,,,,,,,,,,,,,,,,,,2,1.078,0,7,7,7,1,unobtrusive,unintelligent,epileptic,illogical,lineal,modest,5,,,,,,,,,,,,,,,,,,,,,,,,,,,,,,,,,,,,,,
,,,,,,,,,,,,,,,89426,001,2022-04-29_05h14.49.501,SPAMnetsValid,2021.1.4,MacIntel,62.5,,,,,,,,,,,,,,,,,,,,,,,,,,,,,,,,,,,,,,3,59.378,0,8,8,8,1,terrain,ice cream,final test,tractor,area of ground,weight,4,,,,,,,,,,,,,,,,,,,,,,,,,,,,,,,,,,,,,,
,,,,,,,,,,,,,,,89426,001,2022-04-29_05h14.49.501,SPAMnetsValid,2021.1.4,MacIntel,62.5,,,,,,,,,,,,,,,,,,,,,,,,,,,,,,,,,,,,,,4,1.903,0,9,9,9,1,capriciousness,stubbornness,courage,whimsicality,amazement,greediness,3,,,,,,,,,,,,,,,,,,,,,,,,,,,,,,,,,,,,,,
,,,,,,,,,,,,,,,89426,001,2022-04-29_05h14.49.501,SPAMnetsValid,2021.1.4,MacIntel,62.5,,,,,,,,,,,,,,,,,,,,,,,,,,,,,,,,,,,,,,5,1.432,0,10,10,10,1,maelstrom,slander,whirlpool,enmity,armor,majolica,2,,,,,,,,,,,,,,,,,,,,,,,,,,,,,,,,,,,,,,
,,,,,,,,,,,,,,,89426,001,2022-04-29_05h14.49.501,SPAMnetsValid,2021.1.4,MacIntel,62.5,,,,,,,,,,,,,,,,,,,,,,,,,,,,,,,,,,,,,,2,19.014,0,11,11,11,1,tentative,critical,conclusive,authentic,provisional,apprehensive,4,,,,,,,,,,,,,,,,,,,,,,,,,,,,,,,,,,,,,,
,,,,,,,,,,,,,,,89426,001,2022-04-29_05h14.49.501,SPAMnetsValid,2021.1.4,MacIntel,62.5,,,,,,,,,,,,,,,,,,,,,,,,,,,,,,,,,,,,,,3,9.146,0,12,12,12,1,placate,rehabilitate,plagiarize,depredate,apprise,conciliate,5,,,,,,,,,,,,,,,,,,,,,,,,,,,,,,,,,,,,,,
,,,,,,,,,,,,,,,89426,001,2022-04-29_05h14.49.501,SPAMnetsValid,2021.1.4,MacIntel,62.5,,,,,,,,,,,,,,,,,,,,,,,,,,,,,,,,,,,,,,4,4.808,0,13,13,13,1,surcease,enlightenment,cessation,inattention,censor,substitution,2,,,,,,,,,,,,,,,,,,,,,,,,,,,,,,,,,,,,,,
,,,,,,,,,,,,,,,89426,001,2022-04-29_05h14.49.501,SPAMnetsValid,2021.1.4,MacIntel,62.5,,,,,,,,,,,,,,,,,,,,,,,,,,,,,,,,,,,,,,3,3.854,0,14,14,14,1,apathetic,wandering,impassive,hateful,prophetic,overflowing,2,,,,,,,,,,,,,,,,,,,,,,,,,,,,,,,,,,,,,,
,,,,,,,,,,,,,,,89426,001,2022-04-29_05h14.49.501,SPAMnetsValid,2021.1.4,MacIntel,62.5,,,,,,,,,,,,,,,,,,,,,,,,,,,,,,,,,,,,,,3,8.949,0,15,15,15,1,paternoster,paternalism,patricide,malediction,benediction,prayer,5,,,,,,,,,,,,,,,,,,,,,,,,,,,,,,,,,,,,,,
,,,,,,,,,,,,,,,89426,001,2022-04-29_05h14.49.501,SPAMnetsValid,2021.1.4,MacIntel,62.5,,,,,,,,,,,,,,,,,,,,,,,,,,,,,,,,,,,,,,4,2.17,0,16,16,16,1,opalescence,opulence,senescence,bankruptcy,iridescence,assiduity,4,,,,,,,,,,,,,,,,,,,,,,,,,,,,,,,,,,,,,,
,,,,,,,,,,,,,,,89426,001,2022-04-29_05h14.49.501,SPAMnetsValid,2021.1.4,MacIntel,62.5,,,,,,,,,,,,,,,,,,,,,,,,,,,,,,,,,,,,,,2,4.422,0,17,17,17,1,lush,stupid,luxurious,hazy,putrid,languishing,2,,,,,,,,,,,,,,,,,,,,,,,,,,,,,,,,,,,,,,
,,,,,,,,,,,,,,,89426,001,2022-04-29_05h14.49.501,SPAMnetsValid,2021.1.4,MacIntel,62.5,,,,,,,,,,,,,,,,,,,,,,,,,,,,,,,,,,,,,,2,1.18,0,18,18,18,1,curtailment,expenditure,abandonment,abridgment,improvement,forgery,3,,,,,,,,,,,,,,,,,,,,,,,,,,,,,,,,,,,,,,
,,,,,,,,,,,,,,,89426,001,2022-04-29_05h14.49.501,SPAMnetsValid,2021.1.4,MacIntel,62.5,,,,,,,,,,,,,,,,,,,,,,,,,,,,,,,,,,,,,,4,3.969,0,19,19,19,1,perversity,adversity,perviousness,travesty,waywardness,gentility,4,,,,,,,,,,,,,,,,,,,,,,,,,,,,,,,,,,,,,,
,,,,,,,,,,,,,,,89426,001,2022-04-29_05h14.49.501,SPAMnetsValid,2021.1.4,MacIntel,62.5,,,,,,,,,,,,,,,,,,,,,,,,,,,,,,,,,,,,,,5,1.594,0,20,20,20,1,calumnious,complimentary,analogous,slanderous,tempestuous,magnanimous,3,,,,,,,,,,,,,,,,,,,,,,,,,,,,,,,,,,,,,,
,,,,,,,,,,,,,,,89426,001,2022-04-29_05h14.49.501,SPAMnetsValid,2021.1.4,MacIntel,62.5,,,,,,,,,,,,,,,,,,,,,,,,,,,,,,,,,,,,,,3,19.577,0,21,21,21,1,illiberality,bigotry,imbecility,illegibility,cautery,immaturity,1,,,,,,,,,,,,,,,,,,,,,,,,,,,,,,,,,,,,,,
,,,,,,,,,,,,,,,89426,001,2022-04-29_05h14.49.501,SPAMnetsValid,2021.1.4,MacIntel,62.5,,,,,,,,,,,,,,,,,,,,,,,,,,,,,,,,,,,,,,2,2.177,0,22,22,22,1,clabber,rejoice,gossip,curdle,crow,hobble,3,,,,,,,,,,,,,,,,,,,,,,,,,,,,,,,,,,,,,,
,,,,,,,,,,,,,,,89426,001,2022-04-29_05h14.49.501,SPAMnetsValid,2021.1.4,MacIntel,62.5,,,,,,,,,,,,,,,,,,,,,,,,,,,,,,,,,,,,,,2,1.271,0,23,23,23,1,sedulousness,diligence,credulousness,seduction,perilousness,frankness,1,,,,,,,,,,,,,,,,,,,,,,,,,,,,,,,,,,,,,,
,,,,,,,,,,,,,,,89426,001,2022-04-29_05h14.49.501,SPAMnetsValid,2021.1.4,MacIntel,62.5,,,,,,,,,,,,,,,,,,,,,,,,,,,,,,,,,,,,,,,,,,,,,,,,,,,,fire,candle,0,0,0,0,1,,,,,,,,,,,,,,,,,,,,,,,,,,,,,,,
,,,,,,,,,,,,,,,89426,001,2022-04-29_05h14.49.501,SPAMnetsValid,2021.1.4,MacIntel,62.5,,,,,,,,,,,,,,,,,,,,,,,,,,,,,,,,,,,,,,,,,,,,,,,,,,,,light a stove,candle,1,0,1,0,1,,,,,,,,,,,,,,,,,,,,,,,,,,,,,,,
,,,,,,,,,,,,,,,89426,001,2022-04-29_05h14.49.501,SPAMnetsValid,2021.1.4,MacIntel,62.5,,,,,,,,,,,,,,,,,,,,,,,,,,,,,,,,,,,,,,,,,,,,,,,,,,,,make art,candle,2,0,2,0,1,,,,,,,,,,,,,,,,,,,,,,,,,,,,,,,
,,,,,,,,,,,,,,,89426,001,2022-04-29_05h14.49.501,SPAMnetsValid,2021.1.4,MacIntel,62.5,,,,,,,,,,,,,,,,,,,,,,,,,,,,,,,,,,,,,,,,,,,,,,,,,,,,use wax to seal,candle,3,0,3,0,1,,,,,,,,,,,,,,,,,,,,,,,,,,,,,,,
,,,,,,,,,,,,,,,89426,001,2022-04-29_05h14.49.501,SPAMnetsValid,2021.1.4,MacIntel,62.5,,,,,,,,,,,,,,,,,,,,,,,,,,,,,,,,,,,,,,,,,,,,,,,,,,,,use wax as moistraizer,candle,4,0,4,0,1,,,,,,,,,,,,,,,,,,,,,,,,,,,,,,,
,,,,,,,,,,,,,,,89426,001,2022-04-29_05h14.49.501,SPAMnetsValid,2021.1.4,MacIntel,62.5,,,,,,,,,,,,,,,,,,,,,,,,,,,,,,,,,,,,,,,,,,,,,,,,,,,,light a room,candle,5,0,5,0,1,,,,,,,,,,,,,,,,,,,,,,,,,,,,,,,
,,,,,,,,,,,,,,,89426,001,2022-04-29_05h14.49.501,SPAMnetsValid,2021.1.4,MacIntel,62.5,,,,,,,,,,,,,,,,,,,,,,,,,,,,,,,,,,,,,,,,,,,,,,,,,,,,make figures,candle,6,0,6,0,1,,,,,,,,,,,,,,,,,,,,,,,,,,,,,,,
,,,,,,,,,,,,,,,89426,001,2022-04-29_05h14.49.501,SPAMnetsValid,2021.1.4,MacIntel,62.5,,,,,,,,,,,,,,,,,,,,,,,,,,,,,,,,,,,,,,,,,,,,,,,,,,,,tell story with shadow,candle,7,0,7,0,1,,,,,,,,,,,,,,,,,,,,,,,,,,,,,,,
,,,,,,,,,,,,,,,89426,001,2022-04-29_05h14.49.501,SPAMnetsValid,2021.1.4,MacIntel,62.5,,,,,,,,,,,,,,,,,,,,,,,,,,,,,,,,,,,,,,,,,,,,,,,,,,,,home decore,candle,8,0,8,0,1,,,,,,,,,,,,,,,,,,,,,,,,,,,,,,,
,,,,,,,,,,,,,,,89426,001,2022-04-29_05h14.49.501,SPAMnetsValid,2021.1.4,MacIntel,62.5,,,,,,,,,,,,,,,,,,,,,,,,,,,,,,,,,,,,,,,,,,,,,,,,,,,,,,,,,,,0,0,0,1,1,candle,,,,,,,,,,,,,,,,,,,,,,,,,
,,,,,,,,,,,,,,,89426,001,2022-04-29_05h14.49.501,SPAMnetsValid,2021.1.4,MacIntel,62.5,,,,,,,,,,,,,,,,,,,,,,,,,,,,,,,,,,,,,,,,,,,,,,,,,,,,fight,pillow,0,0,0,0,1,,,,,,,,,,,,,,,,,,,,,,,,,,,,,,,
,,,,,,,,,,,,,,,89426,001,2022-04-29_05h14.49.501,SPAMnetsValid,2021.1.4,MacIntel,62.5,,,,,,,,,,,,,,,,,,,,,,,,,,,,,,,,,,,,,,,,,,,,,,,,,,,,biuld house,pillow,1,0,1,0,1,,,,,,,,,,,,,,,,,,,,,,,,,,,,,,,
,,,,,,,,,,,,,,,89426,001,2022-04-29_05h14.49.501,SPAMnetsValid,2021.1.4,MacIntel,62.5,,,,,,,,,,,,,,,,,,,,,,,,,,,,,,,,,,,,,,,,,,,,,,,,,,,,stuffed animal,pillow,2,0,2,0,1,,,,,,,,,,,,,,,,,,,,,,,,,,,,,,,
,,,,,,,,,,,,,,,89426,001,2022-04-29_05h14.49.501,SPAMnetsValid,2021.1.4,MacIntel,62.5,,,,,,,,,,,,,,,,,,,,,,,,,,,,,,,,,,,,,,,,,,,,,,,,,,,,protect yourself with,pillow,3,0,3,0,1,,,,,,,,,,,,,,,,,,,,,,,,,,,,,,,
,,,,,,,,,,,,,,,89426,001,2022-04-29_05h14.49.501,SPAMnetsValid,2021.1.4,MacIntel,62.5,,,,,,,,,,,,,,,,,,,,,,,,,,,,,,,,,,,,,,,,,,,,,,,,,,,,,,,,,,,0,1,1,2,1,pillow,,,,,,,,,,,,,,,,,,,,,,,,,
,,,,,,,,,,,,,,,89426,001,2022-04-29_05h14.49.501,SPAMnetsValid,2021.1.4,MacIntel,62.5,,,,,,,,,,,,,,,,,,,,,,,,,,,,,,,,,,,,,,,,,,,,,,,,,,,,shower,bucket,0,0,0,0,1,,,,,,,,,,,,,,,,,,,,,,,,,,,,,,,
,,,,,,,,,,,,,,,89426,001,2022-04-29_05h14.49.501,SPAMnetsValid,2021.1.4,MacIntel,62.5,,,,,,,,,,,,,,,,,,,,,,,,,,,,,,,,,,,,,,,,,,,,,,,,,,,,plant with,bucket,1,0,1,0,1,,,,,,,,,,,,,,,,,,,,,,,,,,,,,,,
,,,,,,,,,,,,,,,89426,001,2022-04-29_05h14.49.501,SPAMnetsValid,2021.1.4,MacIntel,62.5,,,,,,,,,,,,,,,,,,,,,,,,,,,,,,,,,,,,,,,,,,,,,,,,,,,,grow tree,bucket,2,0,2,0,1,,,,,,,,,,,,,,,,,,,,,,,,,,,,,,,
,,,,,,,,,,,,,,,89426,001,2022-04-29_05h14.49.501,SPAMnetsValid,2021.1.4,MacIntel,62.5,,,,,,,,,,,,,,,,,,,,,,,,,,,,,,,,,,,,,,,,,,,,,,,,,,,,use as bag,bucket,3,0,3,0,1,,,,,,,,,,,,,,,,,,,,,,,,,,,,,,,
,,,,,,,,,,,,,,,89426,001,2022-04-29_05h14.49.501,SPAMnetsValid,2021.1.4,MacIntel,62.5,,,,,,,,,,,,,,,,,,,,,,,,,,,,,,,,,,,,,,,,,,,,,,,,,,,,make a hat,bucket,4,0,4,0,1,,,,,,,,,,,,,,,,,,,,,,,,,,,,,,,
,,,,,,,,,,,,,,,89426,001,2022-04-29_05h14.49.501,SPAMnetsValid,2021.1.4,MacIntel,62.5,,,,,,,,,,,,,,,,,,,,,,,,,,,,,,,,,,,,,,,,,,,,,,,,,,,,make it a trash,bucket,5,0,5,0,1,,,,,,,,,,,,,,,,,,,,,,,,,,,,,,,
,,,,,,,,,,,,,,,89426,001,2022-04-29_05h14.49.501,SPAMnetsValid,2021.1.4,MacIntel,62.5,,,,,,,,,,,,,,,,,,,,,,,,,,,,,,,,,,,,,,,,,,,,,,,,,,,,make it a figure,bucket,6,0,6,0,1,,,,,,,,,,,,,,,,,,,,,,,,,,,,,,,
,,,,,,,,,,,,,,,89426,001,2022-04-29_05h14.49.501,SPAMnetsValid,2021.1.4,MacIntel,62.5,,,,,,,,,,,,,,,,,,,,,,,,,,,,,,,,,,,,,,,,,,,,,,,,,,,,build a house ,bucket,7,0,7,0,1,,,,,,,,,,,,,,,,,,,,,,,,,,,,,,,
,,,,,,,,,,,,,,,89426,001,2022-04-29_05h14.49.501,SPAMnetsValid,2021.1.4,MacIntel,62.5,,,,,,,,,,,,,,,,,,,,,,,,,,,,,,,,,,,,,,,,,,,,,,,,,,,,make sandcastel,bucket,8,0,8,0,1,,,,,,,,,,,,,,,,,,,,,,,,,,,,,,,
,,,,,,,,,,,,,,,89426,001,2022-04-29_05h14.49.501,SPAMnetsValid,2021.1.4,MacIntel,62.5,,,,,,,,,,,,,,,,,,,,,,,,,,,,,,,,,,,,,,,,,,,,,,,,,,,,,,,,,,,0,2,2,0,1,bucket,,,,,,,,,,,,,,,,,,,,,,,,,
,,,,,,,,,,,,,,,89426,001,2022-04-29_05h14.49.501,SPAMnetsValid,2021.1.4,MacIntel,62.5,,,,,,,,,,,,,,,,,,,,,,,,,,,,,,,,,,,,,,,,,,,,,,,,,,,,,,,,,,,,,,,,,dog,Animals,0,0,0,0,1,,,,,,,,,,,,,,,,,,
,,,,,,,,,,,,,,,89426,001,2022-04-29_05h14.49.501,SPAMnetsValid,2021.1.4,MacIntel,62.5,,,,,,,,,,,,,,,,,,,,,,,,,,,,,,,,,,,,,,,,,,,,,,,,,,,,,,,,,,,,,,,,,cat,Animals,1,0,1,0,1,,,,,,,,,,,,,,,,,,
,,,,,,,,,,,,,,,89426,001,2022-04-29_05h14.49.501,SPAMnetsValid,2021.1.4,MacIntel,62.5,,,,,,,,,,,,,,,,,,,,,,,,,,,,,,,,,,,,,,,,,,,,,,,,,,,,,,,,,,,,,,,,,dolpin,Animals,2,0,2,0,1,,,,,,,,,,,,,,,,,,
,,,,,,,,,,,,,,,89426,001,2022-04-29_05h14.49.501,SPAMnetsValid,2021.1.4,MacIntel,62.5,,,,,,,,,,,,,,,,,,,,,,,,,,,,,,,,,,,,,,,,,,,,,,,,,,,,,,,,,,,,,,,,,lion,Animals,3,0,3,0,1,,,,,,,,,,,,,,,,,,
,,,,,,,,,,,,,,,89426,001,2022-04-29_05h14.49.501,SPAMnetsValid,2021.1.4,MacIntel,62.5,,,,,,,,,,,,,,,,,,,,,,,,,,,,,,,,,,,,,,,,,,,,,,,,,,,,,,,,,,,,,,,,,tiger,Animals,4,0,4,0,1,,,,,,,,,,,,,,,,,,
,,,,,,,,,,,,,,,89426,001,2022-04-29_05h14.49.501,SPAMnetsValid,2021.1.4,MacIntel,62.5,,,,,,,,,,,,,,,,,,,,,,,,,,,,,,,,,,,,,,,,,,,,,,,,,,,,,,,,,,,,,,,,,monkey,Animals,5,0,5,0,1,,,,,,,,,,,,,,,,,,
,,,,,,,,,,,,,,,89426,001,2022-04-29_05h14.49.501,SPAMnetsValid,2021.1.4,MacIntel,62.5,,,,,,,,,,,,,,,,,,,,,,,,,,,,,,,,,,,,,,,,,,,,,,,,,,,,,,,,,,,,,,,,,frog,Animals,6,0,6,0,1,,,,,,,,,,,,,,,,,,
,,,,,,,,,,,,,,,89426,001,2022-04-29_05h14.49.501,SPAMnetsValid,2021.1.4,MacIntel,62.5,,,,,,,,,,,,,,,,,,,,,,,,,,,,,,,,,,,,,,,,,,,,,,,,,,,,,,,,,,,,,,,,,chiken,Animals,7,0,7,0,1,,,,,,,,,,,,,,,,,,
,,,,,,,,,,,,,,,89426,001,2022-04-29_05h14.49.501,SPAMnetsValid,2021.1.4,MacIntel,62.5,,,,,,,,,,,,,,,,,,,,,,,,,,,,,,,,,,,,,,,,,,,,,,,,,,,,,,,,,,,,,,,,,bird,Animals,8,0,8,0,1,,,,,,,,,,,,,,,,,,
,,,,,,,,,,,,,,,89426,001,2022-04-29_05h14.49.501,SPAMnetsValid,2021.1.4,MacIntel,62.5,,,,,,,,,,,,,,,,,,,,,,,,,,,,,,,,,,,,,,,,,,,,,,,,,,,,,,,,,,,,,,,,,fish,Animals,9,0,9,0,1,,,,,,,,,,,,,,,,,,
,,,,,,,,,,,,,,,89426,001,2022-04-29_05h14.49.501,SPAMnetsValid,2021.1.4,MacIntel,62.5,,,,,,,,,,,,,,,,,,,,,,,,,,,,,,,,,,,,,,,,,,,,,,,,,,,,,,,,,,,,,,,,,shark,Animals,10,0,10,0,1,,,,,,,,,,,,,,,,,,
,,,,,,,,,,,,,,,89426,001,2022-04-29_05h14.49.501,SPAMnetsValid,2021.1.4,MacIntel,62.5,,,,,,,,,,,,,,,,,,,,,,,,,,,,,,,,,,,,,,,,,,,,,,,,,,,,,,,,,,,,,,,,,whale,Animals,11,0,11,0,1,,,,,,,,,,,,,,,,,,
,,,,,,,,,,,,,,,89426,001,2022-04-29_05h14.49.501,SPAMnetsValid,2021.1.4,MacIntel,62.5,,,,,,,,,,,,,,,,,,,,,,,,,,,,,,,,,,,,,,,,,,,,,,,,,,,,,,,,,,,,,,,,,starfish,Animals,12,0,12,0,1,,,,,,,,,,,,,,,,,,
,,,,,,,,,,,,,,,89426,001,2022-04-29_05h14.49.501,SPAMnetsValid,2021.1.4,MacIntel,62.5,,,,,,,,,,,,,,,,,,,,,,,,,,,,,,,,,,,,,,,,,,,,,,,,,,,,,,,,,,,,,,,,,camel,Animals,13,0,13,0,1,,,,,,,,,,,,,,,,,,
,,,,,,,,,,,,,,,89426,001,2022-04-29_05h14.49.501,SPAMnetsValid,2021.1.4,MacIntel,62.5,,,,,,,,,,,,,,,,,,,,,,,,,,,,,,,,,,,,,,,,,,,,,,,,,,,,,,,,,,,,,,,,,egul,Animals,14,0,14,0,1,,,,,,,,,,,,,,,,,,
,,,,,,,,,,,,,,,89426,001,2022-04-29_05h14.49.501,SPAMnetsValid,2021.1.4,MacIntel,62.5,,,,,,,,,,,,,,,,,,,,,,,,,,,,,,,,,,,,,,,,,,,,,,,,,,,,,,,,,,,,,,,,,mouse,Animals,15,0,15,0,1,,,,,,,,,,,,,,,,,,
,,,,,,,,,,,,,,,89426,001,2022-04-29_05h14.49.501,SPAMnetsValid,2021.1.4,MacIntel,62.5,,,,,,,,,,,,,,,,,,,,,,,,,,,,,,,,,,,,,,,,,,,,,,,,,,,,,,,,,,,,,,,,,rat,Animals,16,0,16,0,1,,,,,,,,,,,,,,,,,,
,,,,,,,,,,,,,,,89426,001,2022-04-29_05h14.49.501,SPAMnetsValid,2021.1.4,MacIntel,62.5,,,,,,,,,,,,,,,,,,,,,,,,,,,,,,,,,,,,,,,,,,,,,,,,,,,,,,,,,,,,,,,,,geiraff,Animals,17,0,17,0,1,,,,,,,,,,,,,,,,,,
,,,,,,,,,,,,,,,89426,001,2022-04-29_05h14.49.501,SPAMnetsValid,2021.1.4,MacIntel,62.5,,,,,,,,,,,,,,,,,,,,,,,,,,,,,,,,,,,,,,,,,,,,,,,,,,,,,,,,,,,,,,,,,elephant,Animals,18,0,18,0,1,,,,,,,,,,,,,,,,,,
,,,,,,,,,,,,,,,89426,001,2022-04-29_05h14.49.501,SPAMnetsValid,2021.1.4,MacIntel,62.5,,,,,,,,,,,,,,,,,,,,,,,,,,,,,,,,,,,,,,,,,,,,,,,,,,,,,,,,,,,,,,,,,turtule,Animals,19,0,19,0,1,,,,,,,,,,,,,,,,,,
,,,,,,,,,,,,,,,89426,001,2022-04-29_05h14.49.501,SPAMnetsValid,2021.1.4,MacIntel,62.5,,,,,,,,,,,,,,,,,,,,,,,,,,,,,,,,,,,,,,,,,,,,,,,,,,,,,,,,,,,,,,,,,polar bear,Animals,20,0,20,0,1,,,,,,,,,,,,,,,,,,
,,,,,,,,,,,,,,,89426,001,2022-04-29_05h14.49.501,SPAMnetsValid,2021.1.4,MacIntel,62.5,,,,,,,,,,,,,,,,,,,,,,,,,,,,,,,,,,,,,,,,,,,,,,,,,,,,,,,,,,,,,,,,,panda,Animals,21,0,21,0,1,,,,,,,,,,,,,,,,,,
,,,,,,,,,,,,,,,89426,001,2022-04-29_05h14.49.501,SPAMnetsValid,2021.1.4,MacIntel,62.5,,,,,,,,,,,,,,,,,,,,,,,,,,,,,,,,,,,,,,,,,,,,,,,,,,,,,,,,,,,,,,,,,kcola,Animals,22,0,22,0,1,,,,,,,,,,,,,,,,,,
,,,,,,,,,,,,,,,89426,001,2022-04-29_05h14.49.501,SPAMnetsValid,2021.1.4,MacIntel,62.5,,,,,,,,,,,,,,,,,,,,,,,,,,,,,,,,,,,,,,,,,,,,,,,,,,,,,,,,,,,,,,,,,,,,,,,,0,0,0,0,1,Animals,,,,,,,,,,,,
,,,,,,,,,,,,,,,89426,001,2022-04-29_05h14.49.501,SPAMnetsValid,2021.1.4,MacIntel,62.5,,,,,,,,,,,,,,,,,,,,,,,,,,,,,,,,,,,,,,,,,,,,,,,,,,,,,,,,,,,,,,,,,,,,,,,,,,,,,,3,9.018,0,0,0,0,1,"I enjoy concentrating on a fantasy or daydream and exploring all its possibilities, letting it grow and develop.",0,1,,
,,,,,,,,,,,,,,,89426,001,2022-04-29_05h14.49.501,SPAMnetsValid,2021.1.4,MacIntel,62.5,,,,,,,,,,,,,,,,,,,,,,,,,,,,,,,,,,,,,,,,,,,,,,,,,,,,,,,,,,,,,,,,,,,,,,,,,,,,,,4,3.253,0,1,1,1,1,I think it's interesting to learn and develop new hobbies.,0,2,,
,,,,,,,,,,,,,,,89426,001,2022-04-29_05h14.49.501,SPAMnetsValid,2021.1.4,MacIntel,62.5,,,,,,,,,,,,,,,,,,,,,,,,,,,,,,,,,,,,,,,,,,,,,,,,,,,,,,,,,,,,,,,,,,,,,,,,,,,,,,4,1.922,0,2,2,2,1,I am intrigued by the patterns I find in art and nature.,0,3,,
,,,,,,,,,,,,,,,89426,001,2022-04-29_05h14.49.501,SPAMnetsValid,2021.1.4,MacIntel,62.5,,,,,,,,,,,,,,,,,,,,,,,,,,,,,,,,,,,,,,,,,,,,,,,,,,,,,,,,,,,,,,,,,,,,,,,,,,,,,,4,2.682,0,3,3,3,1,I believe letting students hear controversial speakers can only confuse and mislead them.,1,4,,
,,,,,,,,,,,,,,,89426,001,2022-04-29_05h14.49.501,SPAMnetsValid,2021.1.4,MacIntel,62.5,,,,,,,,,,,,,,,,,,,,,,,,,,,,,,,,,,,,,,,,,,,,,,,,,,,,,,,,,,,,,,,,,,,,,,,,,,,,,,3,3.579,0,4,4,4,1,Poetry has little or no effect on me.,1,5,,
,,,,,,,,,,,,,,,89426,001,2022-04-29_05h14.49.501,SPAMnetsValid,2021.1.4,MacIntel,62.5,,,,,,,,,,,,,,,,,,,,,,,,,,,,,,,,,,,,,,,,,,,,,,,,,,,,,,,,,,,,,,,,,,,,,,,,,,,,,,3,3.803,0,5,5,5,1,I would have difficulty just letting my mind wander without control or guidance.,1,6,,
,,,,,,,,,,,,,,,89426,001,2022-04-29_05h14.49.501,SPAMnetsValid,2021.1.4,MacIntel,62.5,,,,,,,,,,,,,,,,,,,,,,,,,,,,,,,,,,,,,,,,,,,,,,,,,,,,,,,,,,,,,,,,,,,,,,,,,,,,,,3,1.57,0,6,6,6,1,I seldom notice the moods or feelings that different environments produce.,1,7,,
,,,,,,,,,,,,,,,89426,001,2022-04-29_05h14.49.501,SPAMnetsValid,2021.1.4,MacIntel,62.5,,,,,,,,,,,,,,,,,,,,,,,,,,,,,,,,,,,,,,,,,,,,,,,,,,,,,,,,,,,,,,,,,,,,,,,,,,,,,,4,2.249,0,7,7,7,1,I experience a wide range of emotions or feelings.,0,8,,
,,,,,,,,,,,,,,,89426,001,2022-04-29_05h14.49.501,SPAMnetsValid,2021.1.4,MacIntel,62.5,,,,,,,,,,,,,,,,,,,,,,,,,,,,,,,,,,,,,,,,,,,,,,,,,,,,,,,,,,,,,,,,,,,,,,,,,,,,,,3,4.845,0,8,8,8,1,"Sometimes when I am reading poetry or looking at a work of art, I feel a chill or wave of excitement.",0,9,,
,,,,,,,,,,,,,,,89426,001,2022-04-29_05h14.49.501,SPAMnetsValid,2021.1.4,MacIntel,62.5,,,,,,,,,,,,,,,,,,,,,,,,,,,,,,,,,,,,,,,,,,,,,,,,,,,,,,,,,,,,,,,,,,,,,,,,,,,,,,3,3.314,0,9,9,9,1,I have little interest in speculating on the nature of the universe or the human condition.,1,10,,
,,,,,,,,,,,,,,,89426,001,2022-04-29_05h14.49.501,SPAMnetsValid,2021.1.4,MacIntel,62.5,,,,,,,,,,,,,,,,,,,,,,,,,,,,,,,,,,,,,,,,,,,,,,,,,,,,,,,,,,,,,,,,,,,,,,,,,,,,,,4,5.004,0,10,10,10,1,I have a lot of intellectual curiosity.,0,11,,
,,,,,,,,,,,,,,,89426,001,2022-04-29_05h14.49.501,SPAMnetsValid,2021.1.4,MacIntel,62.5,,,,,,,,,,,,,,,,,,,,,,,,,,,,,,,,,,,,,,,,,,,,,,,,,,,,,,,,,,,,,,,,,,,,,,,,,,,,,,4,5.88,0,11,11,11,1,I often enjoy playing with theories or abstract ideas.,0,12,,
,,,,,,,,,,,,,,,89426,001,2022-04-29_05h14.49.501,SPAMnetsValid,2021.1.4,MacIntel,62.5,,,,,,,,,,,,,,,,,,,,,,,,,,,,,,,,,,,,,,,,,,,,,,,,,,,,,,,,,,,,,,,,,,,,,,,,,,,,,,,,,,,,,,,,return,7.684
