key_resp_3.keys,key_resp_3.rt,slider_2.response,slider_2.rt,rjt_rating,rjt_RT,trials_24.thisRepN,trials_24.thisTrialN,trials_24.thisN,trials_24.thisIndex,trials_24.ran,rjt_order,word1,word2,attention,participant,session,date,expName,psychopyVersion,OS,frameRate,trials_4.thisRepN,trials_4.thisTrialN,trials_4.thisN,trials_4.thisIndex,trials_4.ran,trials_5.thisRepN,trials_5.thisTrialN,trials_5.thisN,trials_5.thisIndex,trials_5.ran,repOne,repTwo,slider.response,slider.rt,trials_22.thisRepN,trials_22.thisTrialN,trials_22.thisN,trials_22.thisIndex,trials_22.ran,trials_99.thisRepN,trials_99.thisTrialN,trials_99.thisN,trials_99.thisIndex,trials_99.ran,slider_extend_2.response,slider_extend_2.rt,trials_6.thisRepN,trials_6.thisTrialN,trials_6.thisN,trials_6.thisIndex,trials_6.ran,vCue2,R1,R2,R3,R4,correct,sliderVocab.response,sliderVocab.rt,trials_7.thisRepN,trials_7.thisTrialN,trials_7.thisN,trials_7.thisIndex,trials_7.ran,VocabCue,VR1,VR2,VR3,VR4,VR5,VocabCorrect,AUT_resp,AUT_label,trials.thisRepN,trials.thisTrialN,trials.thisN,trials.thisIndex,trials.ran,trials_2.thisRepN,trials_2.thisTrialN,trials_2.thisN,trials_2.thisIndex,trials_2.ran,aut_prompt,VF_response,VF_tag,trials_16.thisRepN,trials_16.thisTrialN,trials_16.thisN,trials_16.thisIndex,trials_16.ran,trials_17.thisRepN,trials_17.thisTrialN,trials_17.thisN,trials_17.thisIndex,trials_17.ran,VFcond,open_slider.response,open_slider.rt,trials_3.thisRepN,trials_3.thisTrialN,trials_3.thisN,trials_3.thisIndex,trials_3.ran,OpenQ,Rev,OPEN_ORDER,key_resp_2.keys,key_resp_2.rt
return,2,8,13.914,8,13.914,0,0,0,51,1,168,cactus,flower,,89437,001,2022-04-25_16h08.12.573,SPAMnetsValid,2021.1.4,MacIntel,66.66666667,,,,,,,,,,,,,,,,,,,,,,,,,,,,,,,,,,,,,,,,,,,,,,,,,,,,,,,,,,,,,,,,,,,,,,,,,,,,,,,,,,,,,,,,,
,,6,2.452,6,2.452,0,1,1,5,1,108,carrot,chocolate,,89437,001,2022-04-25_16h08.12.573,SPAMnetsValid,2021.1.4,MacIntel,66.66666667,,,,,,,,,,,,,,,,,,,,,,,,,,,,,,,,,,,,,,,,,,,,,,,,,,,,,,,,,,,,,,,,,,,,,,,,,,,,,,,,,,,,,,,,,
,,4,6.896,4,6.896,0,2,2,95,1,121,broom,microwave,,89437,001,2022-04-25_16h08.12.573,SPAMnetsValid,2021.1.4,MacIntel,66.66666667,,,,,,,,,,,,,,,,,,,,,,,,,,,,,,,,,,,,,,,,,,,,,,,,,,,,,,,,,,,,,,,,,,,,,,,,,,,,,,,,,,,,,,,,,
,,8,1.638,8,1.638,0,3,3,0,1,106,cake,strawberry,,89437,001,2022-04-25_16h08.12.573,SPAMnetsValid,2021.1.4,MacIntel,66.66666667,,,,,,,,,,,,,,,,,,,,,,,,,,,,,,,,,,,,,,,,,,,,,,,,,,,,,,,,,,,,,,,,,,,,,,,,,,,,,,,,,,,,,,,,,
,,8,3.378,8,3.378,0,4,4,35,1,147,cake,refrigerator,,89437,001,2022-04-25_16h08.12.573,SPAMnetsValid,2021.1.4,MacIntel,66.66666667,,,,,,,,,,,,,,,,,,,,,,,,,,,,,,,,,,,,,,,,,,,,,,,,,,,,,,,,,,,,,,,,,,,,,,,,,,,,,,,,,,,,,,,,,
,,6,2.346,6,2.346,0,5,5,70,1,141,melon,tomato,,89437,001,2022-04-25_16h08.12.573,SPAMnetsValid,2021.1.4,MacIntel,66.66666667,,,,,,,,,,,,,,,,,,,,,,,,,,,,,,,,,,,,,,,,,,,,,,,,,,,,,,,,,,,,,,,,,,,,,,,,,,,,,,,,,,,,,,,,,
,,8,2.503,8,2.503,0,6,6,72,1,181,carrot,kitchen,,89437,001,2022-04-25_16h08.12.573,SPAMnetsValid,2021.1.4,MacIntel,66.66666667,,,,,,,,,,,,,,,,,,,,,,,,,,,,,,,,,,,,,,,,,,,,,,,,,,,,,,,,,,,,,,,,,,,,,,,,,,,,,,,,,,,,,,,,,
,,8,1.714,8,1.714,0,7,7,44,1,116,cake,chocolate,,89437,001,2022-04-25_16h08.12.573,SPAMnetsValid,2021.1.4,MacIntel,66.66666667,,,,,,,,,,,,,,,,,,,,,,,,,,,,,,,,,,,,,,,,,,,,,,,,,,,,,,,,,,,,,,,,,,,,,,,,,,,,,,,,,,,,,,,,,
,,2,1.753,2,1.753,0,8,8,75,1,178,cactus,carrot,,89437,001,2022-04-25_16h08.12.573,SPAMnetsValid,2021.1.4,MacIntel,66.66666667,,,,,,,,,,,,,,,,,,,,,,,,,,,,,,,,,,,,,,,,,,,,,,,,,,,,,,,,,,,,,,,,,,,,,,,,,,,,,,,,,,,,,,,,,
,,8,1.866,8,1.866,0,9,9,8,1,97,chocolate,kitchen,,89437,001,2022-04-25_16h08.12.573,SPAMnetsValid,2021.1.4,MacIntel,66.66666667,,,,,,,,,,,,,,,,,,,,,,,,,,,,,,,,,,,,,,,,,,,,,,,,,,,,,,,,,,,,,,,,,,,,,,,,,,,,,,,,,,,,,,,,,
,,1,1.823,1,1.823,0,10,10,4,1,109,broom,strawberry,,89437,001,2022-04-25_16h08.12.573,SPAMnetsValid,2021.1.4,MacIntel,66.66666667,,,,,,,,,,,,,,,,,,,,,,,,,,,,,,,,,,,,,,,,,,,,,,,,,,,,,,,,,,,,,,,,,,,,,,,,,,,,,,,,,,,,,,,,,
,,2,2.03,2,2.03,0,11,11,55,1,143,pretzel,rose,,89437,001,2022-04-25_16h08.12.573,SPAMnetsValid,2021.1.4,MacIntel,66.66666667,,,,,,,,,,,,,,,,,,,,,,,,,,,,,,,,,,,,,,,,,,,,,,,,,,,,,,,,,,,,,,,,,,,,,,,,,,,,,,,,,,,,,,,,,
,,6,2.172,6,2.172,0,12,12,38,1,155,carrot,cookie,,89437,001,2022-04-25_16h08.12.573,SPAMnetsValid,2021.1.4,MacIntel,66.66666667,,,,,,,,,,,,,,,,,,,,,,,,,,,,,,,,,,,,,,,,,,,,,,,,,,,,,,,,,,,,,,,,,,,,,,,,,,,,,,,,,,,,,,,,,
,,1,9.023,1,9.023,0,13,13,71,1,187,cactus,microwave,,89437,001,2022-04-25_16h08.12.573,SPAMnetsValid,2021.1.4,MacIntel,66.66666667,,,,,,,,,,,,,,,,,,,,,,,,,,,,,,,,,,,,,,,,,,,,,,,,,,,,,,,,,,,,,,,,,,,,,,,,,,,,,,,,,,,,,,,,,
,,1,5.739,1,5.739,0,14,14,6,1,151,microwave,onion,,89437,001,2022-04-25_16h08.12.573,SPAMnetsValid,2021.1.4,MacIntel,66.66666667,,,,,,,,,,,,,,,,,,,,,,,,,,,,,,,,,,,,,,,,,,,,,,,,,,,,,,,,,,,,,,,,,,,,,,,,,,,,,,,,,,,,,,,,,
,,7,1.773,7,1.773,0,15,15,17,1,99,garden,melon,,89437,001,2022-04-25_16h08.12.573,SPAMnetsValid,2021.1.4,MacIntel,66.66666667,,,,,,,,,,,,,,,,,,,,,,,,,,,,,,,,,,,,,,,,,,,,,,,,,,,,,,,,,,,,,,,,,,,,,,,,,,,,,,,,,,,,,,,,,
,,1,2.148,1,2.148,0,16,16,46,1,123,cookie,tree,,89437,001,2022-04-25_16h08.12.573,SPAMnetsValid,2021.1.4,MacIntel,66.66666667,,,,,,,,,,,,,,,,,,,,,,,,,,,,,,,,,,,,,,,,,,,,,,,,,,,,,,,,,,,,,,,,,,,,,,,,,,,,,,,,,,,,,,,,,
,,3,6.346,3,6.346,0,17,17,40,1,165,onion,rose,,89437,001,2022-04-25_16h08.12.573,SPAMnetsValid,2021.1.4,MacIntel,66.66666667,,,,,,,,,,,,,,,,,,,,,,,,,,,,,,,,,,,,,,,,,,,,,,,,,,,,,,,,,,,,,,,,,,,,,,,,,,,,,,,,,,,,,,,,,
,,2,2.104,2,2.104,0,18,18,45,1,179,broom,oven,,89437,001,2022-04-25_16h08.12.573,SPAMnetsValid,2021.1.4,MacIntel,66.66666667,,,,,,,,,,,,,,,,,,,,,,,,,,,,,,,,,,,,,,,,,,,,,,,,,,,,,,,,,,,,,,,,,,,,,,,,,,,,,,,,,,,,,,,,,
,,8,1.699,8,1.699,0,19,19,27,1,158,cookie,oven,,89437,001,2022-04-25_16h08.12.573,SPAMnetsValid,2021.1.4,MacIntel,66.66666667,,,,,,,,,,,,,,,,,,,,,,,,,,,,,,,,,,,,,,,,,,,,,,,,,,,,,,,,,,,,,,,,,,,,,,,,,,,,,,,,,,,,,,,,,
,,6,1.989,6,1.989,0,20,20,82,1,98,pretzel,strawberry,,89437,001,2022-04-25_16h08.12.573,SPAMnetsValid,2021.1.4,MacIntel,66.66666667,,,,,,,,,,,,,,,,,,,,,,,,,,,,,,,,,,,,,,,,,,,,,,,,,,,,,,,,,,,,,,,,,,,,,,,,,,,,,,,,,,,,,,,,,
,,5,9.722,5,9.722,0,21,21,77,1,172,kitchen,melon,,89437,001,2022-04-25_16h08.12.573,SPAMnetsValid,2021.1.4,MacIntel,66.66666667,,,,,,,,,,,,,,,,,,,,,,,,,,,,,,,,,,,,,,,,,,,,,,,,,,,,,,,,,,,,,,,,,,,,,,,,,,,,,,,,,,,,,,,,,
,,2,4.505,2,4.505,0,22,22,84,1,130,microwave,yogurt,,89437,001,2022-04-25_16h08.12.573,SPAMnetsValid,2021.1.4,MacIntel,66.66666667,,,,,,,,,,,,,,,,,,,,,,,,,,,,,,,,,,,,,,,,,,,,,,,,,,,,,,,,,,,,,,,,,,,,,,,,,,,,,,,,,,,,,,,,,
,,4,2.048,4,2.048,0,23,23,89,1,140,cookie,refrigerator,,89437,001,2022-04-25_16h08.12.573,SPAMnetsValid,2021.1.4,MacIntel,66.66666667,,,,,,,,,,,,,,,,,,,,,,,,,,,,,,,,,,,,,,,,,,,,,,,,,,,,,,,,,,,,,,,,,,,,,,,,,,,,,,,,,,,,,,,,,
,,5,1.407,5,1.407,0,24,24,56,1,113,refrigerator,strawberry,,89437,001,2022-04-25_16h08.12.573,SPAMnetsValid,2021.1.4,MacIntel,66.66666667,,,,,,,,,,,,,,,,,,,,,,,,,,,,,,,,,,,,,,,,,,,,,,,,,,,,,,,,,,,,,,,,,,,,,,,,,,,,,,,,,,,,,,,,,
,,9,1.69,9,1.69,0,25,25,86,1,193,melon,melon,CHECK,89437,001,2022-04-25_16h08.12.573,SPAMnetsValid,2021.1.4,MacIntel,66.66666667,,,,,,,,,,,,,,,,,,,,,,,,,,,,,,,,,,,,,,,,,,,,,,,,,,,,,,,,,,,,,,,,,,,,,,,,,,,,,,,,,,,,,,,,,
,,8,2.345,8,2.345,0,26,26,60,1,122,flower,garden,,89437,001,2022-04-25_16h08.12.573,SPAMnetsValid,2021.1.4,MacIntel,66.66666667,,,,,,,,,,,,,,,,,,,,,,,,,,,,,,,,,,,,,,,,,,,,,,,,,,,,,,,,,,,,,,,,,,,,,,,,,,,,,,,,,,,,,,,,,
,,3,2.564,3,2.564,0,27,27,50,1,126,kitchen,tree,,89437,001,2022-04-25_16h08.12.573,SPAMnetsValid,2021.1.4,MacIntel,66.66666667,,,,,,,,,,,,,,,,,,,,,,,,,,,,,,,,,,,,,,,,,,,,,,,,,,,,,,,,,,,,,,,,,,,,,,,,,,,,,,,,,,,,,,,,,
,,6,2.311,6,2.311,0,28,28,43,1,185,cactus,rose,,89437,001,2022-04-25_16h08.12.573,SPAMnetsValid,2021.1.4,MacIntel,66.66666667,,,,,,,,,,,,,,,,,,,,,,,,,,,,,,,,,,,,,,,,,,,,,,,,,,,,,,,,,,,,,,,,,,,,,,,,,,,,,,,,,,,,,,,,,
,,8,2.832,8,2.832,0,29,29,37,1,139,carrot,strawberry,,89437,001,2022-04-25_16h08.12.573,SPAMnetsValid,2021.1.4,MacIntel,66.66666667,,,,,,,,,,,,,,,,,,,,,,,,,,,,,,,,,,,,,,,,,,,,,,,,,,,,,,,,,,,,,,,,,,,,,,,,,,,,,,,,,,,,,,,,,
,,7,2.53,7,2.53,0,30,30,79,1,103,pretzel,tomato,,89437,001,2022-04-25_16h08.12.573,SPAMnetsValid,2021.1.4,MacIntel,66.66666667,,,,,,,,,,,,,,,,,,,,,,,,,,,,,,,,,,,,,,,,,,,,,,,,,,,,,,,,,,,,,,,,,,,,,,,,,,,,,,,,,,,,,,,,,
,,7,8.88,7,8.88,0,31,31,31,1,156,melon,rose,,89437,001,2022-04-25_16h08.12.573,SPAMnetsValid,2021.1.4,MacIntel,66.66666667,,,,,,,,,,,,,,,,,,,,,,,,,,,,,,,,,,,,,,,,,,,,,,,,,,,,,,,,,,,,,,,,,,,,,,,,,,,,,,,,,,,,,,,,,
,,2,4.83,2,4.83,0,32,32,12,1,162,microwave,tomato,,89437,001,2022-04-25_16h08.12.573,SPAMnetsValid,2021.1.4,MacIntel,66.66666667,,,,,,,,,,,,,,,,,,,,,,,,,,,,,,,,,,,,,,,,,,,,,,,,,,,,,,,,,,,,,,,,,,,,,,,,,,,,,,,,,,,,,,,,,
,,2,3.236,2,3.236,0,33,33,59,1,164,cookie,garden,,89437,001,2022-04-25_16h08.12.573,SPAMnetsValid,2021.1.4,MacIntel,66.66666667,,,,,,,,,,,,,,,,,,,,,,,,,,,,,,,,,,,,,,,,,,,,,,,,,,,,,,,,,,,,,,,,,,,,,,,,,,,,,,,,,,,,,,,,,
,,2,1.293,2,1.293,0,34,34,92,1,170,cookie,microwave,,89437,001,2022-04-25_16h08.12.573,SPAMnetsValid,2021.1.4,MacIntel,66.66666667,,,,,,,,,,,,,,,,,,,,,,,,,,,,,,,,,,,,,,,,,,,,,,,,,,,,,,,,,,,,,,,,,,,,,,,,,,,,,,,,,,,,,,,,,
,,7,2.005,7,2.005,0,35,35,42,1,184,oven,pretzel,,89437,001,2022-04-25_16h08.12.573,SPAMnetsValid,2021.1.4,MacIntel,66.66666667,,,,,,,,,,,,,,,,,,,,,,,,,,,,,,,,,,,,,,,,,,,,,,,,,,,,,,,,,,,,,,,,,,,,,,,,,,,,,,,,,,,,,,,,,
,,1,2.313,1,2.313,0,36,36,67,1,96,oven,strawberry,,89437,001,2022-04-25_16h08.12.573,SPAMnetsValid,2021.1.4,MacIntel,66.66666667,,,,,,,,,,,,,,,,,,,,,,,,,,,,,,,,,,,,,,,,,,,,,,,,,,,,,,,,,,,,,,,,,,,,,,,,,,,,,,,,,,,,,,,,,
,,1,1.765,1,1.765,0,37,37,13,1,105,cactus,oven,,89437,001,2022-04-25_16h08.12.573,SPAMnetsValid,2021.1.4,MacIntel,66.66666667,,,,,,,,,,,,,,,,,,,,,,,,,,,,,,,,,,,,,,,,,,,,,,,,,,,,,,,,,,,,,,,,,,,,,,,,,,,,,,,,,,,,,,,,,
,,8,2.38,8,2.38,0,38,38,28,1,154,strawberry,yogurt,,89437,001,2022-04-25_16h08.12.573,SPAMnetsValid,2021.1.4,MacIntel,66.66666667,,,,,,,,,,,,,,,,,,,,,,,,,,,,,,,,,,,,,,,,,,,,,,,,,,,,,,,,,,,,,,,,,,,,,,,,,,,,,,,,,,,,,,,,,
,,7,2.456,7,2.456,0,39,39,36,1,161,kitchen,pretzel,,89437,001,2022-04-25_16h08.12.573,SPAMnetsValid,2021.1.4,MacIntel,66.66666667,,,,,,,,,,,,,,,,,,,,,,,,,,,,,,,,,,,,,,,,,,,,,,,,,,,,,,,,,,,,,,,,,,,,,,,,,,,,,,,,,,,,,,,,,
,,2,6.348,2,6.348,0,40,40,1,1,173,kitchen,tomato,,89437,001,2022-04-25_16h08.12.573,SPAMnetsValid,2021.1.4,MacIntel,66.66666667,,,,,,,,,,,,,,,,,,,,,,,,,,,,,,,,,,,,,,,,,,,,,,,,,,,,,,,,,,,,,,,,,,,,,,,,,,,,,,,,,,,,,,,,,
,,6,1.99,6,1.99,0,41,41,64,1,157,refrigerator,rose,,89437,001,2022-04-25_16h08.12.573,SPAMnetsValid,2021.1.4,MacIntel,66.66666667,,,,,,,,,,,,,,,,,,,,,,,,,,,,,,,,,,,,,,,,,,,,,,,,,,,,,,,,,,,,,,,,,,,,,,,,,,,,,,,,,,,,,,,,,
,,2,1.846,2,1.846,0,42,42,73,1,135,carrot,oven,,89437,001,2022-04-25_16h08.12.573,SPAMnetsValid,2021.1.4,MacIntel,66.66666667,,,,,,,,,,,,,,,,,,,,,,,,,,,,,,,,,,,,,,,,,,,,,,,,,,,,,,,,,,,,,,,,,,,,,,,,,,,,,,,,,,,,,,,,,
,,7,2.398,7,2.398,0,43,43,87,1,114,cookie,strawberry,,89437,001,2022-04-25_16h08.12.573,SPAMnetsValid,2021.1.4,MacIntel,66.66666667,,,,,,,,,,,,,,,,,,,,,,,,,,,,,,,,,,,,,,,,,,,,,,,,,,,,,,,,,,,,,,,,,,,,,,,,,,,,,,,,,,,,,,,,,
,,3,1.988,3,1.988,0,44,44,3,1,129,cactus,refrigerator,,89437,001,2022-04-25_16h08.12.573,SPAMnetsValid,2021.1.4,MacIntel,66.66666667,,,,,,,,,,,,,,,,,,,,,,,,,,,,,,,,,,,,,,,,,,,,,,,,,,,,,,,,,,,,,,,,,,,,,,,,,,,,,,,,,,,,,,,,,
,,7,2.265,7,2.265,0,45,45,41,1,175,melon,onion,,89437,001,2022-04-25_16h08.12.573,SPAMnetsValid,2021.1.4,MacIntel,66.66666667,,,,,,,,,,,,,,,,,,,,,,,,,,,,,,,,,,,,,,,,,,,,,,,,,,,,,,,,,,,,,,,,,,,,,,,,,,,,,,,,,,,,,,,,,
,,8,2.288,8,2.288,0,46,46,47,1,167,carrot,garden,,89437,001,2022-04-25_16h08.12.573,SPAMnetsValid,2021.1.4,MacIntel,66.66666667,,,,,,,,,,,,,,,,,,,,,,,,,,,,,,,,,,,,,,,,,,,,,,,,,,,,,,,,,,,,,,,,,,,,,,,,,,,,,,,,,,,,,,,,,
,,1,12.741,1,12.741,0,47,47,21,1,159,cookie,flower,,89437,001,2022-04-25_16h08.12.573,SPAMnetsValid,2021.1.4,MacIntel,66.66666667,,,,,,,,,,,,,,,,,,,,,,,,,,,,,,,,,,,,,,,,,,,,,,,,,,,,,,,,,,,,,,,,,,,,,,,,,,,,,,,,,,,,,,,,,
,,6,37.248,6,37.248,0,48,48,29,1,163,melon,refrigerator,,89437,001,2022-04-25_16h08.12.573,SPAMnetsValid,2021.1.4,MacIntel,66.66666667,,,,,,,,,,,,,,,,,,,,,,,,,,,,,,,,,,,,,,,,,,,,,,,,,,,,,,,,,,,,,,,,,,,,,,,,,,,,,,,,,,,,,,,,,
,,2,2.223,2,2.223,0,49,49,66,1,150,microwave,refrigerator,,89437,001,2022-04-25_16h08.12.573,SPAMnetsValid,2021.1.4,MacIntel,66.66666667,,,,,,,,,,,,,,,,,,,,,,,,,,,,,,,,,,,,,,,,,,,,,,,,,,,,,,,,,,,,,,,,,,,,,,,,,,,,,,,,,,,,,,,,,
,,4,2.546,4,2.546,0,50,50,18,1,119,strawberry,tree,,89437,001,2022-04-25_16h08.12.573,SPAMnetsValid,2021.1.4,MacIntel,66.66666667,,,,,,,,,,,,,,,,,,,,,,,,,,,,,,,,,,,,,,,,,,,,,,,,,,,,,,,,,,,,,,,,,,,,,,,,,,,,,,,,,,,,,,,,,
,,6,5.013,6,5.013,0,51,51,23,1,148,flower,melon,,89437,001,2022-04-25_16h08.12.573,SPAMnetsValid,2021.1.4,MacIntel,66.66666667,,,,,,,,,,,,,,,,,,,,,,,,,,,,,,,,,,,,,,,,,,,,,,,,,,,,,,,,,,,,,,,,,,,,,,,,,,,,,,,,,,,,,,,,,
,,6,3.165,6,3.165,0,52,52,7,1,188,flower,tree,,89437,001,2022-04-25_16h08.12.573,SPAMnetsValid,2021.1.4,MacIntel,66.66666667,,,,,,,,,,,,,,,,,,,,,,,,,,,,,,,,,,,,,,,,,,,,,,,,,,,,,,,,,,,,,,,,,,,,,,,,,,,,,,,,,,,,,,,,,
,,2,2.899,2,2.899,0,53,53,24,1,169,onion,yogurt,,89437,001,2022-04-25_16h08.12.573,SPAMnetsValid,2021.1.4,MacIntel,66.66666667,,,,,,,,,,,,,,,,,,,,,,,,,,,,,,,,,,,,,,,,,,,,,,,,,,,,,,,,,,,,,,,,,,,,,,,,,,,,,,,,,,,,,,,,,
,,6,8.847,6,8.847,0,54,54,16,1,111,carrot,microwave,,89437,001,2022-04-25_16h08.12.573,SPAMnetsValid,2021.1.4,MacIntel,66.66666667,,,,,,,,,,,,,,,,,,,,,,,,,,,,,,,,,,,,,,,,,,,,,,,,,,,,,,,,,,,,,,,,,,,,,,,,,,,,,,,,,,,,,,,,,
,,1,2.839,1,2.839,0,55,55,10,1,118,chocolate,oven,,89437,001,2022-04-25_16h08.12.573,SPAMnetsValid,2021.1.4,MacIntel,66.66666667,,,,,,,,,,,,,,,,,,,,,,,,,,,,,,,,,,,,,,,,,,,,,,,,,,,,,,,,,,,,,,,,,,,,,,,,,,,,,,,,,,,,,,,,,
,,2,2.513,2,2.513,0,56,56,58,1,144,cake,garden,,89437,001,2022-04-25_16h08.12.573,SPAMnetsValid,2021.1.4,MacIntel,66.66666667,,,,,,,,,,,,,,,,,,,,,,,,,,,,,,,,,,,,,,,,,,,,,,,,,,,,,,,,,,,,,,,,,,,,,,,,,,,,,,,,,,,,,,,,,
,,2,2.156,2,2.156,0,57,57,57,1,127,cactus,chocolate,,89437,001,2022-04-25_16h08.12.573,SPAMnetsValid,2021.1.4,MacIntel,66.66666667,,,,,,,,,,,,,,,,,,,,,,,,,,,,,,,,,,,,,,,,,,,,,,,,,,,,,,,,,,,,,,,,,,,,,,,,,,,,,,,,,,,,,,,,,
,,8,4.23,8,4.23,0,58,58,53,1,177,chocolate,strawberry,,89437,001,2022-04-25_16h08.12.573,SPAMnetsValid,2021.1.4,MacIntel,66.66666667,,,,,,,,,,,,,,,,,,,,,,,,,,,,,,,,,,,,,,,,,,,,,,,,,,,,,,,,,,,,,,,,,,,,,,,,,,,,,,,,,,,,,,,,,
,,7,9.822,7,9.822,0,59,59,30,1,125,carrot,tree,,89437,001,2022-04-25_16h08.12.573,SPAMnetsValid,2021.1.4,MacIntel,66.66666667,,,,,,,,,,,,,,,,,,,,,,,,,,,,,,,,,,,,,,,,,,,,,,,,,,,,,,,,,,,,,,,,,,,,,,,,,,,,,,,,,,,,,,,,,
,,1,2.271,1,2.271,0,60,60,78,1,132,broom,tree,,89437,001,2022-04-25_16h08.12.573,SPAMnetsValid,2021.1.4,MacIntel,66.66666667,,,,,,,,,,,,,,,,,,,,,,,,,,,,,,,,,,,,,,,,,,,,,,,,,,,,,,,,,,,,,,,,,,,,,,,,,,,,,,,,,,,,,,,,,
,,2,2.064,2,2.064,0,61,61,68,1,180,tree,yogurt,,89437,001,2022-04-25_16h08.12.573,SPAMnetsValid,2021.1.4,MacIntel,66.66666667,,,,,,,,,,,,,,,,,,,,,,,,,,,,,,,,,,,,,,,,,,,,,,,,,,,,,,,,,,,,,,,,,,,,,,,,,,,,,,,,,,,,,,,,,
,,7,1.644,7,1.644,0,62,62,91,1,166,cake,yogurt,,89437,001,2022-04-25_16h08.12.573,SPAMnetsValid,2021.1.4,MacIntel,66.66666667,,,,,,,,,,,,,,,,,,,,,,,,,,,,,,,,,,,,,,,,,,,,,,,,,,,,,,,,,,,,,,,,,,,,,,,,,,,,,,,,,,,,,,,,,
,,6,11.472,6,11.472,0,63,63,94,1,133,cake,flower,,89437,001,2022-04-25_16h08.12.573,SPAMnetsValid,2021.1.4,MacIntel,66.66666667,,,,,,,,,,,,,,,,,,,,,,,,,,,,,,,,,,,,,,,,,,,,,,,,,,,,,,,,,,,,,,,,,,,,,,,,,,,,,,,,,,,,,,,,,
,,2,1.605,2,1.605,0,64,64,54,1,101,cactus,kitchen,,89437,001,2022-04-25_16h08.12.573,SPAMnetsValid,2021.1.4,MacIntel,66.66666667,,,,,,,,,,,,,,,,,,,,,,,,,,,,,,,,,,,,,,,,,,,,,,,,,,,,,,,,,,,,,,,,,,,,,,,,,,,,,,,,,,,,,,,,,
,,7,3.473,7,3.473,0,65,65,93,1,134,carrot,flower,,89437,001,2022-04-25_16h08.12.573,SPAMnetsValid,2021.1.4,MacIntel,66.66666667,,,,,,,,,,,,,,,,,,,,,,,,,,,,,,,,,,,,,,,,,,,,,,,,,,,,,,,,,,,,,,,,,,,,,,,,,,,,,,,,,,,,,,,,,
,,3,2.672,3,2.672,0,66,66,20,1,149,broom,tomato,,89437,001,2022-04-25_16h08.12.573,SPAMnetsValid,2021.1.4,MacIntel,66.66666667,,,,,,,,,,,,,,,,,,,,,,,,,,,,,,,,,,,,,,,,,,,,,,,,,,,,,,,,,,,,,,,,,,,,,,,,,,,,,,,,,,,,,,,,,
,,3,8.559,3,8.559,0,67,67,34,1,153,carrot,pretzel,,89437,001,2022-04-25_16h08.12.573,SPAMnetsValid,2021.1.4,MacIntel,66.66666667,,,,,,,,,,,,,,,,,,,,,,,,,,,,,,,,,,,,,,,,,,,,,,,,,,,,,,,,,,,,,,,,,,,,,,,,,,,,,,,,,,,,,,,,,
,,3,12.522,3,12.522,0,68,68,49,1,152,cactus,strawberry,,89437,001,2022-04-25_16h08.12.573,SPAMnetsValid,2021.1.4,MacIntel,66.66666667,,,,,,,,,,,,,,,,,,,,,,,,,,,,,,,,,,,,,,,,,,,,,,,,,,,,,,,,,,,,,,,,,,,,,,,,,,,,,,,,,,,,,,,,,
,,3,2.757,3,2.757,0,69,69,62,1,189,onion,tree,,89437,001,2022-04-25_16h08.12.573,SPAMnetsValid,2021.1.4,MacIntel,66.66666667,,,,,,,,,,,,,,,,,,,,,,,,,,,,,,,,,,,,,,,,,,,,,,,,,,,,,,,,,,,,,,,,,,,,,,,,,,,,,,,,,,,,,,,,,
,,7,1.93,7,1.93,0,70,70,80,1,146,pretzel,tree,,89437,001,2022-04-25_16h08.12.573,SPAMnetsValid,2021.1.4,MacIntel,66.66666667,,,,,,,,,,,,,,,,,,,,,,,,,,,,,,,,,,,,,,,,,,,,,,,,,,,,,,,,,,,,,,,,,,,,,,,,,,,,,,,,,,,,,,,,,
,,8,1.962,8,1.962,0,71,71,96,1,136,chocolate,microwave,,89437,001,2022-04-25_16h08.12.573,SPAMnetsValid,2021.1.4,MacIntel,66.66666667,,,,,,,,,,,,,,,,,,,,,,,,,,,,,,,,,,,,,,,,,,,,,,,,,,,,,,,,,,,,,,,,,,,,,,,,,,,,,,,,,,,,,,,,,
,,7,2.78,7,2.78,0,72,72,11,1,117,melon,strawberry,,89437,001,2022-04-25_16h08.12.573,SPAMnetsValid,2021.1.4,MacIntel,66.66666667,,,,,,,,,,,,,,,,,,,,,,,,,,,,,,,,,,,,,,,,,,,,,,,,,,,,,,,,,,,,,,,,,,,,,,,,,,,,,,,,,,,,,,,,,
,,8,2.337,8,2.337,0,73,73,61,1,138,flower,rose,,89437,001,2022-04-25_16h08.12.573,SPAMnetsValid,2021.1.4,MacIntel,66.66666667,,,,,,,,,,,,,,,,,,,,,,,,,,,,,,,,,,,,,,,,,,,,,,,,,,,,,,,,,,,,,,,,,,,,,,,,,,,,,,,,,,,,,,,,,
,,8,2.522,8,2.522,0,74,74,83,1,100,garden,tomato,,89437,001,2022-04-25_16h08.12.573,SPAMnetsValid,2021.1.4,MacIntel,66.66666667,,,,,,,,,,,,,,,,,,,,,,,,,,,,,,,,,,,,,,,,,,,,,,,,,,,,,,,,,,,,,,,,,,,,,,,,,,,,,,,,,,,,,,,,,
,,8,1.24,8,1.24,0,75,75,33,1,131,cactus,garden,,89437,001,2022-04-25_16h08.12.573,SPAMnetsValid,2021.1.4,MacIntel,66.66666667,,,,,,,,,,,,,,,,,,,,,,,,,,,,,,,,,,,,,,,,,,,,,,,,,,,,,,,,,,,,,,,,,,,,,,,,,,,,,,,,,,,,,,,,,
,,8,2.23,8,2.23,0,76,76,14,1,120,microwave,oven,,89437,001,2022-04-25_16h08.12.573,SPAMnetsValid,2021.1.4,MacIntel,66.66666667,,,,,,,,,,,,,,,,,,,,,,,,,,,,,,,,,,,,,,,,,,,,,,,,,,,,,,,,,,,,,,,,,,,,,,,,,,,,,,,,,,,,,,,,,
,,6,1.922,6,1.922,0,77,77,2,1,174,cake,pretzel,,89437,001,2022-04-25_16h08.12.573,SPAMnetsValid,2021.1.4,MacIntel,66.66666667,,,,,,,,,,,,,,,,,,,,,,,,,,,,,,,,,,,,,,,,,,,,,,,,,,,,,,,,,,,,,,,,,,,,,,,,,,,,,,,,,,,,,,,,,
,,7,2.373,7,2.373,0,78,78,48,1,186,kitchen,yogurt,,89437,001,2022-04-25_16h08.12.573,SPAMnetsValid,2021.1.4,MacIntel,66.66666667,,,,,,,,,,,,,,,,,,,,,,,,,,,,,,,,,,,,,,,,,,,,,,,,,,,,,,,,,,,,,,,,,,,,,,,,,,,,,,,,,,,,,,,,,
,,4,2.204,4,2.204,0,79,79,15,1,145,cactus,yogurt,,89437,001,2022-04-25_16h08.12.573,SPAMnetsValid,2021.1.4,MacIntel,66.66666667,,,,,,,,,,,,,,,,,,,,,,,,,,,,,,,,,,,,,,,,,,,,,,,,,,,,,,,,,,,,,,,,,,,,,,,,,,,,,,,,,,,,,,,,,
,,4,4.081,4,4.081,0,80,80,74,1,128,melon,microwave,,89437,001,2022-04-25_16h08.12.573,SPAMnetsValid,2021.1.4,MacIntel,66.66666667,,,,,,,,,,,,,,,,,,,,,,,,,,,,,,,,,,,,,,,,,,,,,,,,,,,,,,,,,,,,,,,,,,,,,,,,,,,,,,,,,,,,,,,,,
,,4,2.755,4,2.755,0,81,81,22,1,142,garden,tree,,89437,001,2022-04-25_16h08.12.573,SPAMnetsValid,2021.1.4,MacIntel,66.66666667,,,,,,,,,,,,,,,,,,,,,,,,,,,,,,,,,,,,,,,,,,,,,,,,,,,,,,,,,,,,,,,,,,,,,,,,,,,,,,,,,,,,,,,,,
,,2,2.247,2,2.247,0,82,82,90,1,190,microwave,strawberry,,89437,001,2022-04-25_16h08.12.573,SPAMnetsValid,2021.1.4,MacIntel,66.66666667,,,,,,,,,,,,,,,,,,,,,,,,,,,,,,,,,,,,,,,,,,,,,,,,,,,,,,,,,,,,,,,,,,,,,,,,,,,,,,,,,,,,,,,,,
,,9,1.663,9,1.663,0,83,83,25,1,194,cactus,cactus,CHECK,89437,001,2022-04-25_16h08.12.573,SPAMnetsValid,2021.1.4,MacIntel,66.66666667,,,,,,,,,,,,,,,,,,,,,,,,,,,,,,,,,,,,,,,,,,,,,,,,,,,,,,,,,,,,,,,,,,,,,,,,,,,,,,,,,,,,,,,,,
,,8,1.998,8,1.998,0,84,84,39,1,112,cake,carrot,,89437,001,2022-04-25_16h08.12.573,SPAMnetsValid,2021.1.4,MacIntel,66.66666667,,,,,,,,,,,,,,,,,,,,,,,,,,,,,,,,,,,,,,,,,,,,,,,,,,,,,,,,,,,,,,,,,,,,,,,,,,,,,,,,,,,,,,,,,
,,2,5.096,2,5.096,0,85,85,81,1,104,garden,microwave,,89437,001,2022-04-25_16h08.12.573,SPAMnetsValid,2021.1.4,MacIntel,66.66666667,,,,,,,,,,,,,,,,,,,,,,,,,,,,,,,,,,,,,,,,,,,,,,,,,,,,,,,,,,,,,,,,,,,,,,,,,,,,,,,,,,,,,,,,,
,,1,2.247,1,2.247,0,86,86,76,1,102,chocolate,refrigerator,,89437,001,2022-04-25_16h08.12.573,SPAMnetsValid,2021.1.4,MacIntel,66.66666667,,,,,,,,,,,,,,,,,,,,,,,,,,,,,,,,,,,,,,,,,,,,,,,,,,,,,,,,,,,,,,,,,,,,,,,,,,,,,,,,,,,,,,,,,
,,8,2.778,8,2.778,0,87,87,19,1,183,cake,rose,,89437,001,2022-04-25_16h08.12.573,SPAMnetsValid,2021.1.4,MacIntel,66.66666667,,,,,,,,,,,,,,,,,,,,,,,,,,,,,,,,,,,,,,,,,,,,,,,,,,,,,,,,,,,,,,,,,,,,,,,,,,,,,,,,,,,,,,,,,
,,3,3.173,3,3.173,0,88,88,63,1,137,microwave,tree,,89437,001,2022-04-25_16h08.12.573,SPAMnetsValid,2021.1.4,MacIntel,66.66666667,,,,,,,,,,,,,,,,,,,,,,,,,,,,,,,,,,,,,,,,,,,,,,,,,,,,,,,,,,,,,,,,,,,,,,,,,,,,,,,,,,,,,,,,,
,,2,3.105,2,3.105,0,89,89,9,1,176,cactus,tomato,,89437,001,2022-04-25_16h08.12.573,SPAMnetsValid,2021.1.4,MacIntel,66.66666667,,,,,,,,,,,,,,,,,,,,,,,,,,,,,,,,,,,,,,,,,,,,,,,,,,,,,,,,,,,,,,,,,,,,,,,,,,,,,,,,,,,,,,,,,
,,1,4.156,1,4.156,0,90,90,85,1,115,refrigerator,tomato,,89437,001,2022-04-25_16h08.12.573,SPAMnetsValid,2021.1.4,MacIntel,66.66666667,,,,,,,,,,,,,,,,,,,,,,,,,,,,,,,,,,,,,,,,,,,,,,,,,,,,,,,,,,,,,,,,,,,,,,,,,,,,,,,,,,,,,,,,,
,,7,1.636,7,1.636,0,91,91,65,1,160,cookie,kitchen,,89437,001,2022-04-25_16h08.12.573,SPAMnetsValid,2021.1.4,MacIntel,66.66666667,,,,,,,,,,,,,,,,,,,,,,,,,,,,,,,,,,,,,,,,,,,,,,,,,,,,,,,,,,,,,,,,,,,,,,,,,,,,,,,,,,,,,,,,,
,,2,1.658,2,1.658,0,92,92,69,1,124,oven,refrigerator,,89437,001,2022-04-25_16h08.12.573,SPAMnetsValid,2021.1.4,MacIntel,66.66666667,,,,,,,,,,,,,,,,,,,,,,,,,,,,,,,,,,,,,,,,,,,,,,,,,,,,,,,,,,,,,,,,,,,,,,,,,,,,,,,,,,,,,,,,,
,,4,2.595,4,2.595,0,93,93,26,1,107,rose,tomato,,89437,001,2022-04-25_16h08.12.573,SPAMnetsValid,2021.1.4,MacIntel,66.66666667,,,,,,,,,,,,,,,,,,,,,,,,,,,,,,,,,,,,,,,,,,,,,,,,,,,,,,,,,,,,,,,,,,,,,,,,,,,,,,,,,,,,,,,,,
,,8,1.973,8,1.973,0,94,94,52,1,110,chocolate,cookie,,89437,001,2022-04-25_16h08.12.573,SPAMnetsValid,2021.1.4,MacIntel,66.66666667,,,,,,,,,,,,,,,,,,,,,,,,,,,,,,,,,,,,,,,,,,,,,,,,,,,,,,,,,,,,,,,,,,,,,,,,,,,,,,,,,,,,,,,,,
,,4,3.012,4,3.012,0,95,95,88,1,171,cake,tomato,,89437,001,2022-04-25_16h08.12.573,SPAMnetsValid,2021.1.4,MacIntel,66.66666667,,,,,,,,,,,,,,,,,,,,,,,,,,,,,,,,,,,,,,,,,,,,,,,,,,,,,,,,,,,,,,,,,,,,,,,,,,,,,,,,,,,,,,,,,
,,3,2.698,3,2.698,0,96,96,32,1,182,flower,refrigerator,,89437,001,2022-04-25_16h08.12.573,SPAMnetsValid,2021.1.4,MacIntel,66.66666667,,,,,,,,,,,,,,,,,,,,,,,,,,,,,,,,,,,,,,,,,,,,,,,,,,,,,,,,,,,,,,,,,,,,,,,,,,,,,,,,,,,,,,,,,
,,,,,,,,,,,,,,,89437,001,2022-04-25_16h08.12.573,SPAMnetsValid,2021.1.4,MacIntel,66.66666667,0,0,0,0,1,,,,,,,,,,,,,,,,,,,,,,,,,,,,,,,,,,,,,,,,,,,,,,,,,,,,,,,,,,,,,,,,,,,,,,,,,,,,,,,,,,,,
,,,,,,,,,,,,,,,89437,001,2022-04-25_16h08.12.573,SPAMnetsValid,2021.1.4,MacIntel,66.66666667,,,,,,0,0,0,1,1,0,1,,,,,,,,,,,,,,,,,,,,,,,,,,,,,,,,,,,,,,,,,,,,,,,,,,,,,,,,,,,,,,,,,,,,,,,,,,,,,
,,,,2,21.867,,,,,,18,onion,refrigerator,,89437,001,2022-04-25_16h08.12.573,SPAMnetsValid,2021.1.4,MacIntel,66.66666667,,,,,,,,,,,,,2,21.867,0,0,0,62,1,,,,,,,,,,,,,,,,,,,,,,,,,,,,,,,,,,,,,,,,,,,,,,,,,,,,,,,,,,,,,,,,,,,,,,
,,,,6,2.294,,,,,,77,refrigerator,yogurt,,89437,001,2022-04-25_16h08.12.573,SPAMnetsValid,2021.1.4,MacIntel,66.66666667,,,,,,,,,,,,,6,2.294,0,1,1,42,1,,,,,,,,,,,,,,,,,,,,,,,,,,,,,,,,,,,,,,,,,,,,,,,,,,,,,,,,,,,,,,,,,,,,,,
,,,,2,1.765,,,,,,81,pretzel,yogurt,,89437,001,2022-04-25_16h08.12.573,SPAMnetsValid,2021.1.4,MacIntel,66.66666667,,,,,,,,,,,,,2,1.765,0,2,2,50,1,,,,,,,,,,,,,,,,,,,,,,,,,,,,,,,,,,,,,,,,,,,,,,,,,,,,,,,,,,,,,,,,,,,,,,
,,,,6,1.888,,,,,,30,cookie,pretzel,,89437,001,2022-04-25_16h08.12.573,SPAMnetsValid,2021.1.4,MacIntel,66.66666667,,,,,,,,,,,,,6,1.888,0,3,3,78,1,,,,,,,,,,,,,,,,,,,,,,,,,,,,,,,,,,,,,,,,,,,,,,,,,,,,,,,,,,,,,,,,,,,,,,
,,,,2,6.08,,,,,,68,flower,tomato,,89437,001,2022-04-25_16h08.12.573,SPAMnetsValid,2021.1.4,MacIntel,66.66666667,,,,,,,,,,,,,2,6.08,0,4,4,94,1,,,,,,,,,,,,,,,,,,,,,,,,,,,,,,,,,,,,,,,,,,,,,,,,,,,,,,,,,,,,,,,,,,,,,,
,,,,1,1.707,,,,,,45,onion,pretzel,,89437,001,2022-04-25_16h08.12.573,SPAMnetsValid,2021.1.4,MacIntel,66.66666667,,,,,,,,,,,,,1,1.707,0,5,5,69,1,,,,,,,,,,,,,,,,,,,,,,,,,,,,,,,,,,,,,,,,,,,,,,,,,,,,,,,,,,,,,,,,,,,,,,
,,,,6,4.031,,,,,,6,garden,onion,,89437,001,2022-04-25_16h08.12.573,SPAMnetsValid,2021.1.4,MacIntel,66.66666667,,,,,,,,,,,,,6,4.031,0,6,6,83,1,,,,,,,,,,,,,,,,,,,,,,,,,,,,,,,,,,,,,,,,,,,,,,,,,,,,,,,,,,,,,,,,,,,,,,
,,,,8,4.487,,,,,,92,broom,flower,,89437,001,2022-04-25_16h08.12.573,SPAMnetsValid,2021.1.4,MacIntel,66.66666667,,,,,,,,,,,,,8,4.487,0,7,7,88,1,,,,,,,,,,,,,,,,,,,,,,,,,,,,,,,,,,,,,,,,,,,,,,,,,,,,,,,,,,,,,,,,,,,,,,
,,,,6,3.658,,,,,,46,garden,yogurt,,89437,001,2022-04-25_16h08.12.573,SPAMnetsValid,2021.1.4,MacIntel,66.66666667,,,,,,,,,,,,,6,3.658,0,8,8,65,1,,,,,,,,,,,,,,,,,,,,,,,,,,,,,,,,,,,,,,,,,,,,,,,,,,,,,,,,,,,,,,,,,,,,,,
,,,,7,2.818,,,,,,89,chocolate,rose,,89437,001,2022-04-25_16h08.12.573,SPAMnetsValid,2021.1.4,MacIntel,66.66666667,,,,,,,,,,,,,7,2.818,0,9,9,60,1,,,,,,,,,,,,,,,,,,,,,,,,,,,,,,,,,,,,,,,,,,,,,,,,,,,,,,,,,,,,,,,,,,,,,,
,,,,6,6.256,,,,,,83,broom,carrot,,89437,001,2022-04-25_16h08.12.573,SPAMnetsValid,2021.1.4,MacIntel,66.66666667,,,,,,,,,,,,,6,6.256,0,10,10,4,1,,,,,,,,,,,,,,,,,,,,,,,,,,,,,,,,,,,,,,,,,,,,,,,,,,,,,,,,,,,,,,,,,,,,,,
,,,,7,1.878,,,,,,3,cake,oven,,89437,001,2022-04-25_16h08.12.573,SPAMnetsValid,2021.1.4,MacIntel,66.66666667,,,,,,,,,,,,,7,1.878,0,11,11,30,1,,,,,,,,,,,,,,,,,,,,,,,,,,,,,,,,,,,,,,,,,,,,,,,,,,,,,,,,,,,,,,,,,,,,,,
,,,,3,7.09,,,,,,39,melon,pretzel,,89437,001,2022-04-25_16h08.12.573,SPAMnetsValid,2021.1.4,MacIntel,66.66666667,,,,,,,,,,,,,3,7.09,0,12,12,20,1,,,,,,,,,,,,,,,,,,,,,,,,,,,,,,,,,,,,,,,,,,,,,,,,,,,,,,,,,,,,,,,,,,,,,,
,,,,4,4.749,,,,,,50,carrot,rose,,89437,001,2022-04-25_16h08.12.573,SPAMnetsValid,2021.1.4,MacIntel,66.66666667,,,,,,,,,,,,,4,4.749,0,13,13,73,1,,,,,,,,,,,,,,,,,,,,,,,,,,,,,,,,,,,,,,,,,,,,,,,,,,,,,,,,,,,,,,,,,,,,,,
,,,,4,3.774,,,,,,86,oven,rose,,89437,001,2022-04-25_16h08.12.573,SPAMnetsValid,2021.1.4,MacIntel,66.66666667,,,,,,,,,,,,,4,3.774,0,14,14,79,1,,,,,,,,,,,,,,,,,,,,,,,,,,,,,,,,,,,,,,,,,,,,,,,,,,,,,,,,,,,,,,,,,,,,,,
,,,,6,1.503,,,,,,7,melon,tree,,89437,001,2022-04-25_16h08.12.573,SPAMnetsValid,2021.1.4,MacIntel,66.66666667,,,,,,,,,,,,,6,1.503,0,15,15,77,1,,,,,,,,,,,,,,,,,,,,,,,,,,,,,,,,,,,,,,,,,,,,,,,,,,,,,,,,,,,,,,,,,,,,,,
,,,,2,2.097,,,,,,28,cake,melon,,89437,001,2022-04-25_16h08.12.573,SPAMnetsValid,2021.1.4,MacIntel,66.66666667,,,,,,,,,,,,,2,2.097,0,16,16,54,1,,,,,,,,,,,,,,,,,,,,,,,,,,,,,,,,,,,,,,,,,,,,,,,,,,,,,,,,,,,,,,,,,,,,,,
,,,,1,2.038,,,,,,72,broom,onion,,89437,001,2022-04-25_16h08.12.573,SPAMnetsValid,2021.1.4,MacIntel,66.66666667,,,,,,,,,,,,,1,2.038,0,17,17,27,1,,,,,,,,,,,,,,,,,,,,,,,,,,,,,,,,,,,,,,,,,,,,,,,,,,,,,,,,,,,,,,,,,,,,,,
,,,,3,9.61,,,,,,20,rose,tree,,89437,001,2022-04-25_16h08.12.573,SPAMnetsValid,2021.1.4,MacIntel,66.66666667,,,,,,,,,,,,,3,9.61,0,18,18,66,1,,,,,,,,,,,,,,,,,,,,,,,,,,,,,,,,,,,,,,,,,,,,,,,,,,,,,,,,,,,,,,,,,,,,,,
,,,,2,28.876,,,,,,32,cake,microwave,,89437,001,2022-04-25_16h08.12.573,SPAMnetsValid,2021.1.4,MacIntel,66.66666667,,,,,,,,,,,,,2,28.876,0,19,19,33,1,,,,,,,,,,,,,,,,,,,,,,,,,,,,,,,,,,,,,,,,,,,,,,,,,,,,,,,,,,,,,,,,,,,,,,
,,,,1,11.456,,,,,,64,chocolate,garden,,89437,001,2022-04-25_16h08.12.573,SPAMnetsValid,2021.1.4,MacIntel,66.66666667,,,,,,,,,,,,,1,11.456,0,20,20,14,1,,,,,,,,,,,,,,,,,,,,,,,,,,,,,,,,,,,,,,,,,,,,,,,,,,,,,,,,,,,,,,,,,,,,,,
,,,,1,2.105,,,,,,74,broom,pretzel,,89437,001,2022-04-25_16h08.12.573,SPAMnetsValid,2021.1.4,MacIntel,66.66666667,,,,,,,,,,,,,1,2.105,0,21,21,40,1,,,,,,,,,,,,,,,,,,,,,,,,,,,,,,,,,,,,,,,,,,,,,,,,,,,,,,,,,,,,,,,,,,,,,,
,,,,3,2.062,,,,,,67,flower,yogurt,,89437,001,2022-04-25_16h08.12.573,SPAMnetsValid,2021.1.4,MacIntel,66.66666667,,,,,,,,,,,,,3,2.062,0,22,22,12,1,,,,,,,,,,,,,,,,,,,,,,,,,,,,,,,,,,,,,,,,,,,,,,,,,,,,,,,,,,,,,,,,,,,,,,
,,,,3,4.162,,,,,,71,broom,rose,,89437,001,2022-04-25_16h08.12.573,SPAMnetsValid,2021.1.4,MacIntel,66.66666667,,,,,,,,,,,,,3,4.162,0,23,23,61,1,,,,,,,,,,,,,,,,,,,,,,,,,,,,,,,,,,,,,,,,,,,,,,,,,,,,,,,,,,,,,,,,,,,,,,
,,,,2,2.435,,,,,,41,broom,cactus,,89437,001,2022-04-25_16h08.12.573,SPAMnetsValid,2021.1.4,MacIntel,66.66666667,,,,,,,,,,,,,2,2.435,0,24,24,46,1,,,,,,,,,,,,,,,,,,,,,,,,,,,,,,,,,,,,,,,,,,,,,,,,,,,,,,,,,,,,,,,,,,,,,,
,,,,7,1.93,,,,,,16,chocolate,flower,,89437,001,2022-04-25_16h08.12.573,SPAMnetsValid,2021.1.4,MacIntel,66.66666667,,,,,,,,,,,,,7,1.93,0,25,25,22,1,,,,,,,,,,,,,,,,,,,,,,,,,,,,,,,,,,,,,,,,,,,,,,,,,,,,,,,,,,,,,,,,,,,,,,
,,,,7,2.52,,,,,,54,chocolate,yogurt,,89437,001,2022-04-25_16h08.12.573,SPAMnetsValid,2021.1.4,MacIntel,66.66666667,,,,,,,,,,,,,7,2.52,0,26,26,67,1,,,,,,,,,,,,,,,,,,,,,,,,,,,,,,,,,,,,,,,,,,,,,,,,,,,,,,,,,,,,,,,,,,,,,,
,,,,6,2.855,,,,,,55,tomato,tree,,89437,001,2022-04-25_16h08.12.573,SPAMnetsValid,2021.1.4,MacIntel,66.66666667,,,,,,,,,,,,,6,2.855,0,27,27,35,1,,,,,,,,,,,,,,,,,,,,,,,,,,,,,,,,,,,,,,,,,,,,,,,,,,,,,,,,,,,,,,,,,,,,,,
,,,,3,36.949,,,,,,85,cake,tree,,89437,001,2022-04-25_16h08.12.573,SPAMnetsValid,2021.1.4,MacIntel,66.66666667,,,,,,,,,,,,,3,36.949,0,28,28,18,1,,,,,,,,,,,,,,,,,,,,,,,,,,,,,,,,,,,,,,,,,,,,,,,,,,,,,,,,,,,,,,,,,,,,,,
,,,,7,2.163,,,,,,17,carrot,melon,,89437,001,2022-04-25_16h08.12.573,SPAMnetsValid,2021.1.4,MacIntel,66.66666667,,,,,,,,,,,,,7,2.163,0,29,29,24,1,,,,,,,,,,,,,,,,,,,,,,,,,,,,,,,,,,,,,,,,,,,,,,,,,,,,,,,,,,,,,,,,,,,,,,
,,,,3,2.622,,,,,,36,broom,kitchen,,89437,001,2022-04-25_16h08.12.573,SPAMnetsValid,2021.1.4,MacIntel,66.66666667,,,,,,,,,,,,,3,2.622,0,30,30,76,1,,,,,,,,,,,,,,,,,,,,,,,,,,,,,,,,,,,,,,,,,,,,,,,,,,,,,,,,,,,,,,,,,,,,,,
,,,,3,2.753,,,,,,95,broom,refrigerator,,89437,001,2022-04-25_16h08.12.573,SPAMnetsValid,2021.1.4,MacIntel,66.66666667,,,,,,,,,,,,,3,2.753,0,31,31,90,1,,,,,,,,,,,,,,,,,,,,,,,,,,,,,,,,,,,,,,,,,,,,,,,,,,,,,,,,,,,,,,,,,,,,,,
,,,,1,4.272,,,,,,1,rose,yogurt,,89437,001,2022-04-25_16h08.12.573,SPAMnetsValid,2021.1.4,MacIntel,66.66666667,,,,,,,,,,,,,1,4.272,0,32,32,55,1,,,,,,,,,,,,,,,,,,,,,,,,,,,,,,,,,,,,,,,,,,,,,,,,,,,,,,,,,,,,,,,,,,,,,,
,,,,1,1.739,,,,,,70,chocolate,onion,,89437,001,2022-04-25_16h08.12.573,SPAMnetsValid,2021.1.4,MacIntel,66.66666667,,,,,,,,,,,,,1,1.739,0,33,33,74,1,,,,,,,,,,,,,,,,,,,,,,,,,,,,,,,,,,,,,,,,,,,,,,,,,,,,,,,,,,,,,,,,,,,,,,
,,,,4,2.688,,,,,,61,strawberry,tomato,,89437,001,2022-04-25_16h08.12.573,SPAMnetsValid,2021.1.4,MacIntel,66.66666667,,,,,,,,,,,,,4,2.688,0,34,34,80,1,,,,,,,,,,,,,,,,,,,,,,,,,,,,,,,,,,,,,,,,,,,,,,,,,,,,,,,,,,,,,,,,,,,,,,
,,,,6,2.473,,,,,,44,cookie,melon,,89437,001,2022-04-25_16h08.12.573,SPAMnetsValid,2021.1.4,MacIntel,66.66666667,,,,,,,,,,,,,6,2.473,0,35,35,92,1,,,,,,,,,,,,,,,,,,,,,,,,,,,,,,,,,,,,,,,,,,,,,,,,,,,,,,,,,,,,,,,,,,,,,,
,,,,1,6.239,,,,,,91,microwave,rose,,89437,001,2022-04-25_16h08.12.573,SPAMnetsValid,2021.1.4,MacIntel,66.66666667,,,,,,,,,,,,,1,6.239,0,36,36,84,1,,,,,,,,,,,,,,,,,,,,,,,,,,,,,,,,,,,,,,,,,,,,,,,,,,,,,,,,,,,,,,,,,,,,,,
,,,,1,1.229,,,,,,73,broom,chocolate,,89437,001,2022-04-25_16h08.12.573,SPAMnetsValid,2021.1.4,MacIntel,66.66666667,,,,,,,,,,,,,1,1.229,0,37,37,47,1,,,,,,,,,,,,,,,,,,,,,,,,,,,,,,,,,,,,,,,,,,,,,,,,,,,,,,,,,,,,,,,,,,,,,,
,,,,1,1.499,,,,,,84,oven,tomato,,89437,001,2022-04-25_16h08.12.573,SPAMnetsValid,2021.1.4,MacIntel,66.66666667,,,,,,,,,,,,,1,1.499,0,38,38,28,1,,,,,,,,,,,,,,,,,,,,,,,,,,,,,,,,,,,,,,,,,,,,,,,,,,,,,,,,,,,,,,,,,,,,,,
,,,,9,1.791,,,,,,191,cake,cake,CHECK,89437,001,2022-04-25_16h08.12.573,SPAMnetsValid,2021.1.4,MacIntel,66.66666667,,,,,,,,,,,,,9,1.791,0,39,39,10,1,,,,,,,,,,,,,,,,,,,,,,,,,,,,,,,,,,,,,,,,,,,,,,,,,,,,,,,,,,,,,,,,,,,,,,
,,,,4,2.172,,,,,,33,oven,yogurt,,89437,001,2022-04-25_16h08.12.573,SPAMnetsValid,2021.1.4,MacIntel,66.66666667,,,,,,,,,,,,,4,2.172,0,40,40,31,1,,,,,,,,,,,,,,,,,,,,,,,,,,,,,,,,,,,,,,,,,,,,,,,,,,,,,,,,,,,,,,,,,,,,,,
,,,,2,1.929,,,,,,23,flower,microwave,,89437,001,2022-04-25_16h08.12.573,SPAMnetsValid,2021.1.4,MacIntel,66.66666667,,,,,,,,,,,,,2,1.929,0,41,41,25,1,,,,,,,,,,,,,,,,,,,,,,,,,,,,,,,,,,,,,,,,,,,,,,,,,,,,,,,,,,,,,,,,,,,,,,
,,,,4,3.072,,,,,,48,flower,oven,,89437,001,2022-04-25_16h08.12.573,SPAMnetsValid,2021.1.4,MacIntel,66.66666667,,,,,,,,,,,,,4,3.072,0,42,42,15,1,,,,,,,,,,,,,,,,,,,,,,,,,,,,,,,,,,,,,,,,,,,,,,,,,,,,,,,,,,,,,,,,,,,,,,
,,,,8,10.064,,,,,,4,chocolate,pretzel,,89437,001,2022-04-25_16h08.12.573,SPAMnetsValid,2021.1.4,MacIntel,66.66666667,,,,,,,,,,,,,8,10.064,0,43,43,52,1,,,,,,,,,,,,,,,,,,,,,,,,,,,,,,,,,,,,,,,,,,,,,,,,,,,,,,,,,,,,,,,,,,,,,,
,,,,7,2.126,,,,,,10,flower,onion,,89437,001,2022-04-25_16h08.12.573,SPAMnetsValid,2021.1.4,MacIntel,66.66666667,,,,,,,,,,,,,7,2.126,0,44,44,45,1,,,,,,,,,,,,,,,,,,,,,,,,,,,,,,,,,,,,,,,,,,,,,,,,,,,,,,,,,,,,,,,,,,,,,,
,,,,3,1.711,,,,,,79,garden,strawberry,,89437,001,2022-04-25_16h08.12.573,SPAMnetsValid,2021.1.4,MacIntel,66.66666667,,,,,,,,,,,,,3,1.711,0,45,45,87,1,,,,,,,,,,,,,,,,,,,,,,,,,,,,,,,,,,,,,,,,,,,,,,,,,,,,,,,,,,,,,,,,,,,,,,
,,,,2,19.12,,,,,,49,flower,strawberry,,89437,001,2022-04-25_16h08.12.573,SPAMnetsValid,2021.1.4,MacIntel,66.66666667,,,,,,,,,,,,,2,19.12,0,46,46,3,1,,,,,,,,,,,,,,,,,,,,,,,,,,,,,,,,,,,,,,,,,,,,,,,,,,,,,,,,,,,,,,,,,,,,,,
,,,,1,17.045,,,,,,14,broom,cookie,,89437,001,2022-04-25_16h08.12.573,SPAMnetsValid,2021.1.4,MacIntel,66.66666667,,,,,,,,,,,,,1,17.045,0,47,47,16,1,,,,,,,,,,,,,,,,,,,,,,,,,,,,,,,,,,,,,,,,,,,,,,,,,,,,,,,,,,,,,,,,,,,,,,
,,,,3,1.588,,,,,,90,cactus,cake,,89437,001,2022-04-25_16h08.12.573,SPAMnetsValid,2021.1.4,MacIntel,66.66666667,,,,,,,,,,,,,3,1.588,0,48,48,85,1,,,,,,,,,,,,,,,,,,,,,,,,,,,,,,,,,,,,,,,,,,,,,,,,,,,,,,,,,,,,,,,,,,,,,,
,,,,7,3.356,,,,,,19,microwave,pretzel,,89437,001,2022-04-25_16h08.12.573,SPAMnetsValid,2021.1.4,MacIntel,66.66666667,,,,,,,,,,,,,7,3.356,0,49,49,41,1,,,,,,,,,,,,,,,,,,,,,,,,,,,,,,,,,,,,,,,,,,,,,,,,,,,,,,,,,,,,,,,,,,,,,,
,,,,6,5.079,,,,,,94,kitchen,microwave,,89437,001,2022-04-25_16h08.12.573,SPAMnetsValid,2021.1.4,MacIntel,66.66666667,,,,,,,,,,,,,6,5.079,0,50,50,58,1,,,,,,,,,,,,,,,,,,,,,,,,,,,,,,,,,,,,,,,,,,,,,,,,,,,,,,,,,,,,,,,,,,,,,,
,,,,3,3.412,,,,,,62,kitchen,rose,,89437,001,2022-04-25_16h08.12.573,SPAMnetsValid,2021.1.4,MacIntel,66.66666667,,,,,,,,,,,,,3,3.412,0,51,51,57,1,,,,,,,,,,,,,,,,,,,,,,,,,,,,,,,,,,,,,,,,,,,,,,,,,,,,,,,,,,,,,,,,,,,,,,
,,,,3,4.145,,,,,,69,carrot,refrigerator,,89437,001,2022-04-25_16h08.12.573,SPAMnetsValid,2021.1.4,MacIntel,66.66666667,,,,,,,,,,,,,3,4.145,0,52,52,75,1,,,,,,,,,,,,,,,,,,,,,,,,,,,,,,,,,,,,,,,,,,,,,,,,,,,,,,,,,,,,,,,,,,,,,,
,,,,1,1.324,,,,,,2,kitchen,onion,,89437,001,2022-04-25_16h08.12.573,SPAMnetsValid,2021.1.4,MacIntel,66.66666667,,,,,,,,,,,,,1,1.324,0,53,53,91,1,,,,,,,,,,,,,,,,,,,,,,,,,,,,,,,,,,,,,,,,,,,,,,,,,,,,,,,,,,,,,,,,,,,,,,
,,,,2,1.92,,,,,,31,cactus,pretzel,,89437,001,2022-04-25_16h08.12.573,SPAMnetsValid,2021.1.4,MacIntel,66.66666667,,,,,,,,,,,,,2,1.92,0,54,54,1,1,,,,,,,,,,,,,,,,,,,,,,,,,,,,,,,,,,,,,,,,,,,,,,,,,,,,,,,,,,,,,,,,,,,,,,
,,,,6,1.805,,,,,,80,chocolate,tree,,89437,001,2022-04-25_16h08.12.573,SPAMnetsValid,2021.1.4,MacIntel,66.66666667,,,,,,,,,,,,,6,1.805,0,55,55,89,1,,,,,,,,,,,,,,,,,,,,,,,,,,,,,,,,,,,,,,,,,,,,,,,,,,,,,,,,,,,,,,,,,,,,,,
,,,,3,1.912,,,,,,5,oven,tree,,89437,001,2022-04-25_16h08.12.573,SPAMnetsValid,2021.1.4,MacIntel,66.66666667,,,,,,,,,,,,,3,1.912,0,56,56,70,1,,,,,,,,,,,,,,,,,,,,,,,,,,,,,,,,,,,,,,,,,,,,,,,,,,,,,,,,,,,,,,,,,,,,,,
,,,,4,1.79,,,,,,75,cookie,onion,,89437,001,2022-04-25_16h08.12.573,SPAMnetsValid,2021.1.4,MacIntel,66.66666667,,,,,,,,,,,,,4,1.79,0,57,57,9,1,,,,,,,,,,,,,,,,,,,,,,,,,,,,,,,,,,,,,,,,,,,,,,,,,,,,,,,,,,,,,,,,,,,,,,
,,,,8,13.095,,,,,,9,kitchen,refrigerator,,89437,001,2022-04-25_16h08.12.573,SPAMnetsValid,2021.1.4,MacIntel,66.66666667,,,,,,,,,,,,,8,13.095,0,58,58,64,1,,,,,,,,,,,,,,,,,,,,,,,,,,,,,,,,,,,,,,,,,,,,,,,,,,,,,,,,,,,,,,,,,,,,,,
,,,,6,1.406,,,,,,51,onion,strawberry,,89437,001,2022-04-25_16h08.12.573,SPAMnetsValid,2021.1.4,MacIntel,66.66666667,,,,,,,,,,,,,6,1.406,0,59,59,86,1,,,,,,,,,,,,,,,,,,,,,,,,,,,,,,,,,,,,,,,,,,,,,,,,,,,,,,,,,,,,,,,,,,,,,,
,,,,2,14.253,,,,,,27,cactus,cookie,,89437,001,2022-04-25_16h08.12.573,SPAMnetsValid,2021.1.4,MacIntel,66.66666667,,,,,,,,,,,,,2,14.253,0,60,60,17,1,,,,,,,,,,,,,,,,,,,,,,,,,,,,,,,,,,,,,,,,,,,,,,,,,,,,,,,,,,,,,,,,,,,,,,
,,,,2,2.014,,,,,,26,tomato,yogurt,,89437,001,2022-04-25_16h08.12.573,SPAMnetsValid,2021.1.4,MacIntel,66.66666667,,,,,,,,,,,,,2,2.014,0,61,61,13,1,,,,,,,,,,,,,,,,,,,,,,,,,,,,,,,,,,,,,,,,,,,,,,,,,,,,,,,,,,,,,,,,,,,,,,
,,,,2,2.503,,,,,,60,cactus,onion,,89437,001,2022-04-25_16h08.12.573,SPAMnetsValid,2021.1.4,MacIntel,66.66666667,,,,,,,,,,,,,2,2.503,0,62,62,81,1,,,,,,,,,,,,,,,,,,,,,,,,,,,,,,,,,,,,,,,,,,,,,,,,,,,,,,,,,,,,,,,,,,,,,,
,,,,1,2.02,,,,,,11,refrigerator,tree,,89437,001,2022-04-25_16h08.12.573,SPAMnetsValid,2021.1.4,MacIntel,66.66666667,,,,,,,,,,,,,1,2.02,0,63,63,43,1,,,,,,,,,,,,,,,,,,,,,,,,,,,,,,,,,,,,,,,,,,,,,,,,,,,,,,,,,,,,,,,,,,,,,,
,,,,7,1.691,,,,,,12,cookie,yogurt,,89437,001,2022-04-25_16h08.12.573,SPAMnetsValid,2021.1.4,MacIntel,66.66666667,,,,,,,,,,,,,7,1.691,0,64,64,36,1,,,,,,,,,,,,,,,,,,,,,,,,,,,,,,,,,,,,,,,,,,,,,,,,,,,,,,,,,,,,,,,,,,,,,,
,,,,2,3.471,,,,,,13,broom,yogurt,,89437,001,2022-04-25_16h08.12.573,SPAMnetsValid,2021.1.4,MacIntel,66.66666667,,,,,,,,,,,,,2,3.471,0,65,65,5,1,,,,,,,,,,,,,,,,,,,,,,,,,,,,,,,,,,,,,,,,,,,,,,,,,,,,,,,,,,,,,,,,,,,,,,
,,,,7,1.89,,,,,,22,kitchen,strawberry,,89437,001,2022-04-25_16h08.12.573,SPAMnetsValid,2021.1.4,MacIntel,66.66666667,,,,,,,,,,,,,7,1.89,0,66,66,2,1,,,,,,,,,,,,,,,,,,,,,,,,,,,,,,,,,,,,,,,,,,,,,,,,,,,,,,,,,,,,,,,,,,,,,,
,,,,6,2.686,,,,,,82,cake,kitchen,,89437,001,2022-04-25_16h08.12.573,SPAMnetsValid,2021.1.4,MacIntel,66.66666667,,,,,,,,,,,,,6,2.686,0,67,67,96,1,,,,,,,,,,,,,,,,,,,,,,,,,,,,,,,,,,,,,,,,,,,,,,,,,,,,,,,,,,,,,,,,,,,,,,
,,,,2,1.495,,,,,,58,garden,oven,,89437,001,2022-04-25_16h08.12.573,SPAMnetsValid,2021.1.4,MacIntel,66.66666667,,,,,,,,,,,,,2,1.495,0,68,68,37,1,,,,,,,,,,,,,,,,,,,,,,,,,,,,,,,,,,,,,,,,,,,,,,,,,,,,,,,,,,,,,,,,,,,,,,
,,,,2,2.054,,,,,,29,chocolate,melon,,89437,001,2022-04-25_16h08.12.573,SPAMnetsValid,2021.1.4,MacIntel,66.66666667,,,,,,,,,,,,,2,2.054,0,69,69,34,1,,,,,,,,,,,,,,,,,,,,,,,,,,,,,,,,,,,,,,,,,,,,,,,,,,,,,,,,,,,,,,,,,,,,,,
,,,,2,5.256,,,,,,25,carrot,onion,,89437,001,2022-04-25_16h08.12.573,SPAMnetsValid,2021.1.4,MacIntel,66.66666667,,,,,,,,,,,,,2,5.256,0,70,70,44,1,,,,,,,,,,,,,,,,,,,,,,,,,,,,,,,,,,,,,,,,,,,,,,,,,,,,,,,,,,,,,,,,,,,,,,
,,,,6,1.465,,,,,,66,melon,yogurt,,89437,001,2022-04-25_16h08.12.573,SPAMnetsValid,2021.1.4,MacIntel,66.66666667,,,,,,,,,,,,,6,1.465,0,71,71,48,1,,,,,,,,,,,,,,,,,,,,,,,,,,,,,,,,,,,,,,,,,,,,,,,,,,,,,,,,,,,,,,,,,,,,,,
,,,,2,9.948,,,,,,65,broom,garden,,89437,001,2022-04-25_16h08.12.573,SPAMnetsValid,2021.1.4,MacIntel,66.66666667,,,,,,,,,,,,,2,9.948,0,72,72,23,1,,,,,,,,,,,,,,,,,,,,,,,,,,,,,,,,,,,,,,,,,,,,,,,,,,,,,,,,,,,,,,,,,,,,,,
,,,,2,5.513,,,,,,42,garden,kitchen,,89437,001,2022-04-25_16h08.12.573,SPAMnetsValid,2021.1.4,MacIntel,66.66666667,,,,,,,,,,,,,2,5.513,0,73,73,29,1,,,,,,,,,,,,,,,,,,,,,,,,,,,,,,,,,,,,,,,,,,,,,,,,,,,,,,,,,,,,,,,,,,,,,,
,,,,2,1.479,,,,,,78,cookie,rose,,89437,001,2022-04-25_16h08.12.573,SPAMnetsValid,2021.1.4,MacIntel,66.66666667,,,,,,,,,,,,,2,1.479,0,74,74,56,1,,,,,,,,,,,,,,,,,,,,,,,,,,,,,,,,,,,,,,,,,,,,,,,,,,,,,,,,,,,,,,,,,,,,,,
,,,,2,17.161,,,,,,34,melon,oven,,89437,001,2022-04-25_16h08.12.573,SPAMnetsValid,2021.1.4,MacIntel,66.66666667,,,,,,,,,,,,,2,17.161,0,75,75,7,1,,,,,,,,,,,,,,,,,,,,,,,,,,,,,,,,,,,,,,,,,,,,,,,,,,,,,,,,,,,,,,,,,,,,,,
,,,,1,11.223,,,,,,40,broom,cake,,89437,001,2022-04-25_16h08.12.573,SPAMnetsValid,2021.1.4,MacIntel,66.66666667,,,,,,,,,,,,,1,11.223,0,76,76,32,1,,,,,,,,,,,,,,,,,,,,,,,,,,,,,,,,,,,,,,,,,,,,,,,,,,,,,,,,,,,,,,,,,,,,,,
,,,,7,24.329,,,,,,56,cactus,tree,,89437,001,2022-04-25_16h08.12.573,SPAMnetsValid,2021.1.4,MacIntel,66.66666667,,,,,,,,,,,,,7,24.329,0,77,77,21,1,,,,,,,,,,,,,,,,,,,,,,,,,,,,,,,,,,,,,,,,,,,,,,,,,,,,,,,,,,,,,,,,,,,,,,
,,,,8,1.355,,,,,,76,garden,rose,,89437,001,2022-04-25_16h08.12.573,SPAMnetsValid,2021.1.4,MacIntel,66.66666667,,,,,,,,,,,,,8,1.355,0,78,78,19,1,,,,,,,,,,,,,,,,,,,,,,,,,,,,,,,,,,,,,,,,,,,,,,,,,,,,,,,,,,,,,,,,,,,,,,
,,,,8,1.637,,,,,,63,cake,cookie,,89437,001,2022-04-25_16h08.12.573,SPAMnetsValid,2021.1.4,MacIntel,66.66666667,,,,,,,,,,,,,8,1.637,0,79,79,93,1,,,,,,,,,,,,,,,,,,,,,,,,,,,,,,,,,,,,,,,,,,,,,,,,,,,,,,,,,,,,,,,,,,,,,,
,,,,3,1.756,,,,,,59,rose,strawberry,,89437,001,2022-04-25_16h08.12.573,SPAMnetsValid,2021.1.4,MacIntel,66.66666667,,,,,,,,,,,,,3,1.756,0,80,80,72,1,,,,,,,,,,,,,,,,,,,,,,,,,,,,,,,,,,,,,,,,,,,,,,,,,,,,,,,,,,,,,,,,,,,,,,
,,,,8,1.205,,,,,,37,garden,refrigerator,,89437,001,2022-04-25_16h08.12.573,SPAMnetsValid,2021.1.4,MacIntel,66.66666667,,,,,,,,,,,,,8,1.205,0,81,81,11,1,,,,,,,,,,,,,,,,,,,,,,,,,,,,,,,,,,,,,,,,,,,,,,,,,,,,,,,,,,,,,,,,,,,,,,
,,,,2,1.397,,,,,,87,carrot,yogurt,,89437,001,2022-04-25_16h08.12.573,SPAMnetsValid,2021.1.4,MacIntel,66.66666667,,,,,,,,,,,,,2,1.397,0,82,82,6,1,,,,,,,,,,,,,,,,,,,,,,,,,,,,,,,,,,,,,,,,,,,,,,,,,,,,,,,,,,,,,,,,,,,,,,
,,,,5,4.372,,,,,,88,cactus,melon,,89437,001,2022-04-25_16h08.12.573,SPAMnetsValid,2021.1.4,MacIntel,66.66666667,,,,,,,,,,,,,5,4.372,0,83,83,38,1,,,,,,,,,,,,,,,,,,,,,,,,,,,,,,,,,,,,,,,,,,,,,,,,,,,,,,,,,,,,,,,,,,,,,,
,,,,6,3.321,,,,,,43,chocolate,tomato,,89437,001,2022-04-25_16h08.12.573,SPAMnetsValid,2021.1.4,MacIntel,66.66666667,,,,,,,,,,,,,6,3.321,0,84,84,8,1,,,,,,,,,,,,,,,,,,,,,,,,,,,,,,,,,,,,,,,,,,,,,,,,,,,,,,,,,,,,,,,,,,,,,,
,,,,6,4.813,,,,,,47,onion,tomato,,89437,001,2022-04-25_16h08.12.573,SPAMnetsValid,2021.1.4,MacIntel,66.66666667,,,,,,,,,,,,,6,4.813,0,85,85,51,1,,,,,,,,,,,,,,,,,,,,,,,,,,,,,,,,,,,,,,,,,,,,,,,,,,,,,,,,,,,,,,,,,,,,,,
,,,,4,1.446,,,,,,53,garden,pretzel,,89437,001,2022-04-25_16h08.12.573,SPAMnetsValid,2021.1.4,MacIntel,66.66666667,,,,,,,,,,,,,4,1.446,0,86,86,0,1,,,,,,,,,,,,,,,,,,,,,,,,,,,,,,,,,,,,,,,,,,,,,,,,,,,,,,,,,,,,,,,,,,,,,,
,,,,2,1.462,,,,,,15,onion,oven,,89437,001,2022-04-25_16h08.12.573,SPAMnetsValid,2021.1.4,MacIntel,66.66666667,,,,,,,,,,,,,2,1.462,0,87,87,39,1,,,,,,,,,,,,,,,,,,,,,,,,,,,,,,,,,,,,,,,,,,,,,,,,,,,,,,,,,,,,,,,,,,,,,,
,,,,5,2.195,,,,,,57,flower,kitchen,,89437,001,2022-04-25_16h08.12.573,SPAMnetsValid,2021.1.4,MacIntel,66.66666667,,,,,,,,,,,,,5,2.195,0,88,88,49,1,,,,,,,,,,,,,,,,,,,,,,,,,,,,,,,,,,,,,,,,,,,,,,,,,,,,,,,,,,,,,,,,,,,,,,
,,,,3,3.272,,,,,,24,cookie,tomato,,89437,001,2022-04-25_16h08.12.573,SPAMnetsValid,2021.1.4,MacIntel,66.66666667,,,,,,,,,,,,,3,3.272,0,89,89,68,1,,,,,,,,,,,,,,,,,,,,,,,,,,,,,,,,,,,,,,,,,,,,,,,,,,,,,,,,,,,,,,,,,,,,,,
,,,,1,4.105,,,,,,38,pretzel,refrigerator,,89437,001,2022-04-25_16h08.12.573,SPAMnetsValid,2021.1.4,MacIntel,66.66666667,,,,,,,,,,,,,1,4.105,0,90,90,71,1,,,,,,,,,,,,,,,,,,,,,,,,,,,,,,,,,,,,,,,,,,,,,,,,,,,,,,,,,,,,,,,,,,,,,,
,,,,7,8.389,,,,,,52,carrot,tomato,,89437,001,2022-04-25_16h08.12.573,SPAMnetsValid,2021.1.4,MacIntel,66.66666667,,,,,,,,,,,,,7,8.389,0,91,91,95,1,,,,,,,,,,,,,,,,,,,,,,,,,,,,,,,,,,,,,,,,,,,,,,,,,,,,,,,,,,,,,,,,,,,,,,
,,,,7,4.993,,,,,,93,kitchen,oven,,89437,001,2022-04-25_16h08.12.573,SPAMnetsValid,2021.1.4,MacIntel,66.66666667,,,,,,,,,,,,,7,4.993,0,92,92,82,1,,,,,,,,,,,,,,,,,,,,,,,,,,,,,,,,,,,,,,,,,,,,,,,,,,,,,,,,,,,,,,,,,,,,,,
,,,,2,13.524,,,,,,35,flower,pretzel,,89437,001,2022-04-25_16h08.12.573,SPAMnetsValid,2021.1.4,MacIntel,66.66666667,,,,,,,,,,,,,2,13.524,0,93,93,26,1,,,,,,,,,,,,,,,,,,,,,,,,,,,,,,,,,,,,,,,,,,,,,,,,,,,,,,,,,,,,,,,,,,,,,,
,,,,6,1.771,,,,,,21,cake,onion,,89437,001,2022-04-25_16h08.12.573,SPAMnetsValid,2021.1.4,MacIntel,66.66666667,,,,,,,,,,,,,6,1.771,0,94,94,63,1,,,,,,,,,,,,,,,,,,,,,,,,,,,,,,,,,,,,,,,,,,,,,,,,,,,,,,,,,,,,,,,,,,,,,,
,,,,1,2.928,,,,,,8,broom,melon,,89437,001,2022-04-25_16h08.12.573,SPAMnetsValid,2021.1.4,MacIntel,66.66666667,,,,,,,,,,,,,1,2.928,0,95,95,59,1,,,,,,,,,,,,,,,,,,,,,,,,,,,,,,,,,,,,,,,,,,,,,,,,,,,,,,,,,,,,,,,,,,,,,,
,,,,9,1.972,,,,,,192,microwave,microwave,CHECK,89437,001,2022-04-25_16h08.12.573,SPAMnetsValid,2021.1.4,MacIntel,66.66666667,,,,,,,,,,,,,9,1.972,0,96,96,53,1,,,,,,,,,,,,,,,,,,,,,,,,,,,,,,,,,,,,,,,,,,,,,,,,,,,,,,,,,,,,,,,,,,,,,,
,,,,,,,,,,,,,,,89437,001,2022-04-25_16h08.12.573,SPAMnetsValid,2021.1.4,MacIntel,66.66666667,,,,,,,,,,,,,,,,,,,,0,0,0,0,1,,,,,,,,,,,,,,,,,,,,,,,,,,,,,,,,,,,,,,,,,,,,,,,,,,,,,,,,,,,,,,,,,
,,,,,,,,,,,,,,,89437,001,2022-04-25_16h08.12.573,SPAMnetsValid,2021.1.4,MacIntel,66.66666667,,,,,,0,1,1,0,1,1,0,,,,,,,,,,,,,,,,,,,,,,,,,,,,,,,,,,,,,,,,,,,,,,,,,,,,,,,,,,,,,,,,,,,,,,,,,,,,,
,,,,,,,,,,,,,,,89437,001,2022-04-25_16h08.12.573,SPAMnetsValid,2021.1.4,MacIntel,66.66666667,,,,,,,,,,,,,,,,,,,,,,,,,2,3.18,0,0,0,0,1,rancor,forbearance,ridicule,malice,bravery,3,,,,,,,,,,,,,,,,,,,,,,,,,,,,,,,,,,,,,,,,,,,,,,,,,,,,
,,,,,,,,,,,,,,,89437,001,2022-04-25_16h08.12.573,SPAMnetsValid,2021.1.4,MacIntel,66.66666667,,,,,,,,,,,,,,,,,,,,,,,,,1,5.171,0,1,1,1,1,raucous,empty,quiet,smooth,harsh,4,,,,,,,,,,,,,,,,,,,,,,,,,,,,,,,,,,,,,,,,,,,,,,,,,,,,
,,,,,,,,,,,,,,,89437,001,2022-04-25_16h08.12.573,SPAMnetsValid,2021.1.4,MacIntel,66.66666667,,,,,,,,,,,,,,,,,,,,,,,,,4,2.122,0,2,2,2,1,gargoyle,oil,medicine,carved waterspout,ugly building,3,,,,,,,,,,,,,,,,,,,,,,,,,,,,,,,,,,,,,,,,,,,,,,,,,,,,
,,,,,,,,,,,,,,,89437,001,2022-04-25_16h08.12.573,SPAMnetsValid,2021.1.4,MacIntel,66.66666667,,,,,,,,,,,,,,,,,,,,,,,,,2,1.88,0,3,3,3,1,recrudesce,purify,renew activity,lack refinement,crush,2,,,,,,,,,,,,,,,,,,,,,,,,,,,,,,,,,,,,,,,,,,,,,,,,,,,,
,,,,,,,,,,,,,,,89437,001,2022-04-25_16h08.12.573,SPAMnetsValid,2021.1.4,MacIntel,66.66666667,,,,,,,,,,,,,,,,,,,,,,,,,4,4.181,0,4,4,4,1,specious,"plausible, but not genuine",noteworthy,class or variety,roomy,1,,,,,,,,,,,,,,,,,,,,,,,,,,,,,,,,,,,,,,,,,,,,,,,,,,,,
,,,,,,,,,,,,,,,89437,001,2022-04-25_16h08.12.573,SPAMnetsValid,2021.1.4,MacIntel,66.66666667,,,,,,,,,,,,,,,,,,,,,,,,,2,4.124,0,5,5,5,1,bauble,bubble,showy plaything,idle talk,confusion,2,,,,,,,,,,,,,,,,,,,,,,,,,,,,,,,,,,,,,,,,,,,,,,,,,,,,
,,,,,,,,,,,,,,,89437,001,2022-04-25_16h08.12.573,SPAMnetsValid,2021.1.4,MacIntel,66.66666667,,,,,,,,,,,,,,,,,,,,,,,,,4,4.646,0,6,6,6,1,prolific,scarce,producing abundantly,reckless,speaking profanely,2,,,,,,,,,,,,,,,,,,,,,,,,,,,,,,,,,,,,,,,,,,,,,,,,,,,,
,,,,,,,,,,,,,,,89437,001,2022-04-25_16h08.12.573,SPAMnetsValid,2021.1.4,MacIntel,66.66666667,,,,,,,,,,,,,,,,,,,,,,,,,3,1.598,0,7,7,7,1,opulent,party,wealthy,happy frame of mind,semiprecious stone,2,,,,,,,,,,,,,,,,,,,,,,,,,,,,,,,,,,,,,,,,,,,,,,,,,,,,
,,,,,,,,,,,,,,,89437,001,2022-04-25_16h08.12.573,SPAMnetsValid,2021.1.4,MacIntel,66.66666667,,,,,,,,,,,,,,,,,,,,,,,,,1,19.729,0,8,8,8,1,coercion,conspiracy,strategy,restraint,attraction,3,,,,,,,,,,,,,,,,,,,,,,,,,,,,,,,,,,,,,,,,,,,,,,,,,,,,
,,,,,,,,,,,,,,,89437,001,2022-04-25_16h08.12.573,SPAMnetsValid,2021.1.4,MacIntel,66.66666667,,,,,,,,,,,,,,,,,,,,,,,,,4,4.212,0,9,9,9,1,hiatus,animal,calamity,dread,gap,4,,,,,,,,,,,,,,,,,,,,,,,,,,,,,,,,,,,,,,,,,,,,,,,,,,,,
,,,,,,,,,,,,,,,89437,001,2022-04-25_16h08.12.573,SPAMnetsValid,2021.1.4,MacIntel,66.66666667,,,,,,,,,,,,,,,,,,,,,,,,,3,6.846,0,10,10,10,1,germane,microbe,contagious,relevant,different,3,,,,,,,,,,,,,,,,,,,,,,,,,,,,,,,,,,,,,,,,,,,,,,,,,,,,
,,,,,,,,,,,,,,,89437,001,2022-04-25_16h08.12.573,SPAMnetsValid,2021.1.4,MacIntel,66.66666667,,,,,,,,,,,,,,,,,,,,,,,,,1,4.397,0,11,11,11,1,perfunctory,fundamental,formal,superficial,careful,3,,,,,,,,,,,,,,,,,,,,,,,,,,,,,,,,,,,,,,,,,,,,,,,,,,,,
,,,,,,,,,,,,,,,89437,001,2022-04-25_16h08.12.573,SPAMnetsValid,2021.1.4,MacIntel,66.66666667,,,,,,,,,,,,,,,,,,,,,,,,,3,5.164,0,12,12,12,1,diverge,reveal,chant,distract the attention of,differ or turn off from,4,,,,,,,,,,,,,,,,,,,,,,,,,,,,,,,,,,,,,,,,,,,,,,,,,,,,
,,,,,,,,,,,,,,,89437,001,2022-04-25_16h08.12.573,SPAMnetsValid,2021.1.4,MacIntel,66.66666667,,,,,,,,,,,,,,,,,,,,,,,,,4,1.98,0,13,13,13,1,evoke,take away,anger,connect,bring out,4,,,,,,,,,,,,,,,,,,,,,,,,,,,,,,,,,,,,,,,,,,,,,,,,,,,,
,,,,,,,,,,,,,,,89437,001,2022-04-25_16h08.12.573,SPAMnetsValid,2021.1.4,MacIntel,66.66666667,,,,,,,,,,,,,,,,,,,,,,,,,3,2.907,0,14,14,14,1,pertinent,relevant,lying next to,necessary,bold,1,,,,,,,,,,,,,,,,,,,,,,,,,,,,,,,,,,,,,,,,,,,,,,,,,,,,
,,,,,,,,,,,,,,,89437,001,2022-04-25_16h08.12.573,SPAMnetsValid,2021.1.4,MacIntel,66.66666667,,,,,,,,,,,,,,,,,,,,,,,,,2,6.461,0,15,15,15,1,holocaust,entirety,destruction,saintly,price,2,,,,,,,,,,,,,,,,,,,,,,,,,,,,,,,,,,,,,,,,,,,,,,,,,,,,
,,,,,,,,,,,,,,,89437,001,2022-04-25_16h08.12.573,SPAMnetsValid,2021.1.4,MacIntel,66.66666667,,,,,,,,,,,,,,,,,,,,,,,,,3,13.824,0,16,16,16,1,piquant,mellow,fish,pungent,cloth,3,,,,,,,,,,,,,,,,,,,,,,,,,,,,,,,,,,,,,,,,,,,,,,,,,,,,
,,,,,,,,,,,,,,,89437,001,2022-04-25_16h08.12.573,SPAMnetsValid,2021.1.4,MacIntel,66.66666667,,,,,,,,,,,,,,,,,,,,,,,,,4,6.406,0,17,17,17,1,firmament,foundation,heavens,strong,glue,2,,,,,,,,,,,,,,,,,,,,,,,,,,,,,,,,,,,,,,,,,,,,,,,,,,,,
,,,,,,,,,,,,,,,89437,001,2022-04-25_16h08.12.573,SPAMnetsValid,2021.1.4,MacIntel,66.66666667,,,,,,,,,,,,,,,,,,,,,,,,,,,,,,,,,,,,,,4,7.607,0,0,0,0,1,marketable,partisan,jocular,marriageable,salable,essential,4,,,,,,,,,,,,,,,,,,,,,,,,,,,,,,,,,,,,,,
,,,,,,,,,,,,,,,89437,001,2022-04-25_16h08.12.573,SPAMnetsValid,2021.1.4,MacIntel,66.66666667,,,,,,,,,,,,,,,,,,,,,,,,,,,,,,,,,,,,,,5,2.479,0,1,1,1,1,cottontail,squirrel,poplar,boa,marshy plant,rabbit,5,,,,,,,,,,,,,,,,,,,,,,,,,,,,,,,,,,,,,,
,,,,,,,,,,,,,,,89437,001,2022-04-25_16h08.12.573,SPAMnetsValid,2021.1.4,MacIntel,66.66666667,,,,,,,,,,,,,,,,,,,,,,,,,,,,,,,,,,,,,,3,1.957,0,2,2,2,1,boggy,afraid,false,marshy,dense,black,3,,,,,,,,,,,,,,,,,,,,,,,,,,,,,,,,,,,,,,
,,,,,,,,,,,,,,,89437,001,2022-04-25_16h08.12.573,SPAMnetsValid,2021.1.4,MacIntel,66.66666667,,,,,,,,,,,,,,,,,,,,,,,,,,,,,,,,,,,,,,5,24.589,0,3,3,3,1,gruesomeness,blackness,falseness,vindictiveness,drunkenness,ghastliness,5,,,,,,,,,,,,,,,,,,,,,,,,,,,,,,,,,,,,,,
,,,,,,,,,,,,,,,89437,001,2022-04-25_16h08.12.573,SPAMnetsValid,2021.1.4,MacIntel,66.66666667,,,,,,,,,,,,,,,,,,,,,,,,,,,,,,,,,,,,,,1,10.098,0,4,4,4,1,loathing,diffidence,laziness,abhorrence,cleverness,comfort,3,,,,,,,,,,,,,,,,,,,,,,,,,,,,,,,,,,,,,,
,,,,,,,,,,,,,,,89437,001,2022-04-25_16h08.12.573,SPAMnetsValid,2021.1.4,MacIntel,66.66666667,,,,,,,,,,,,,,,,,,,,,,,,,,,,,,,,,,,,,,2,21.349,0,5,5,5,1,bantam,fowl,ridicule,cripple,vegetable,ensign,1,,,,,,,,,,,,,,,,,,,,,,,,,,,,,,,,,,,,,,
,,,,,,,,,,,,,,,89437,001,2022-04-25_16h08.12.573,SPAMnetsValid,2021.1.4,MacIntel,66.66666667,,,,,,,,,,,,,,,,,,,,,,,,,,,,,,,,,,,,,,5,6.765,0,6,6,6,1,evoke,wake up,surrender,reconnoiter,transcend,call forth,5,,,,,,,,,,,,,,,,,,,,,,,,,,,,,,,,,,,,,,
,,,,,,,,,,,,,,,89437,001,2022-04-25_16h08.12.573,SPAMnetsValid,2021.1.4,MacIntel,66.66666667,,,,,,,,,,,,,,,,,,,,,,,,,,,,,,,,,,,,,,5,14.981,0,7,7,7,1,unobtrusive,unintelligent,epileptic,illogical,lineal,modest,5,,,,,,,,,,,,,,,,,,,,,,,,,,,,,,,,,,,,,,
,,,,,,,,,,,,,,,89437,001,2022-04-25_16h08.12.573,SPAMnetsValid,2021.1.4,MacIntel,66.66666667,,,,,,,,,,,,,,,,,,,,,,,,,,,,,,,,,,,,,,4,29.433,0,8,8,8,1,terrain,ice cream,final test,tractor,area of ground,weight,4,,,,,,,,,,,,,,,,,,,,,,,,,,,,,,,,,,,,,,
,,,,,,,,,,,,,,,89437,001,2022-04-25_16h08.12.573,SPAMnetsValid,2021.1.4,MacIntel,66.66666667,,,,,,,,,,,,,,,,,,,,,,,,,,,,,,,,,,,,,,1,9.86,0,9,9,9,1,capriciousness,stubbornness,courage,whimsicality,amazement,greediness,3,,,,,,,,,,,,,,,,,,,,,,,,,,,,,,,,,,,,,,
,,,,,,,,,,,,,,,89437,001,2022-04-25_16h08.12.573,SPAMnetsValid,2021.1.4,MacIntel,66.66666667,,,,,,,,,,,,,,,,,,,,,,,,,,,,,,,,,,,,,,2,39.062,0,10,10,10,1,maelstrom,slander,whirlpool,enmity,armor,majolica,2,,,,,,,,,,,,,,,,,,,,,,,,,,,,,,,,,,,,,,
,,,,,,,,,,,,,,,89437,001,2022-04-25_16h08.12.573,SPAMnetsValid,2021.1.4,MacIntel,66.66666667,,,,,,,,,,,,,,,,,,,,,,,,,,,,,,,,,,,,,,5,100.275,0,11,11,11,1,tentative,critical,conclusive,authentic,provisional,apprehensive,4,,,,,,,,,,,,,,,,,,,,,,,,,,,,,,,,,,,,,,
,,,,,,,,,,,,,,,89437,001,2022-04-25_16h08.12.573,SPAMnetsValid,2021.1.4,MacIntel,66.66666667,,,,,,,,,,,,,,,,,,,,,,,,,,,,,,,,,,,,,,2,45.202,0,12,12,12,1,placate,rehabilitate,plagiarize,depredate,apprise,conciliate,5,,,,,,,,,,,,,,,,,,,,,,,,,,,,,,,,,,,,,,
,,,,,,,,,,,,,,,89437,001,2022-04-25_16h08.12.573,SPAMnetsValid,2021.1.4,MacIntel,66.66666667,,,,,,,,,,,,,,,,,,,,,,,,,,,,,,,,,,,,,,3,27.77,0,13,13,13,1,surcease,enlightenment,cessation,inattention,censor,substitution,2,,,,,,,,,,,,,,,,,,,,,,,,,,,,,,,,,,,,,,
,,,,,,,,,,,,,,,89437,001,2022-04-25_16h08.12.573,SPAMnetsValid,2021.1.4,MacIntel,66.66666667,,,,,,,,,,,,,,,,,,,,,,,,,,,,,,,,,,,,,,,,0,14,14,14,1,apathetic,wandering,impassive,hateful,prophetic,overflowing,2,,,,,,,,,,,,,,,,,,,,,,,,,,,,,,,,,,,,,,
,,,,,,,,,,,,,,,89437,001,2022-04-25_16h08.12.573,SPAMnetsValid,2021.1.4,MacIntel,66.66666667,,,,,,,,,,,,,,,,,,,,,,,,,,,,,,,,,,,,,,,,,,,,,,,,,,,,burning pencil,candle,0,0,0,0,1,,,,,,,,,,,,,,,,,,,,,,,,,,,,,,,
,,,,,,,,,,,,,,,89437,001,2022-04-25_16h08.12.573,SPAMnetsValid,2021.1.4,MacIntel,66.66666667,,,,,,,,,,,,,,,,,,,,,,,,,,,,,,,,,,,,,,,,,,,,,,,,,,,,wax,candle,1,0,1,0,1,,,,,,,,,,,,,,,,,,,,,,,,,,,,,,,
,,,,,,,,,,,,,,,89437,001,2022-04-25_16h08.12.573,SPAMnetsValid,2021.1.4,MacIntel,66.66666667,,,,,,,,,,,,,,,,,,,,,,,,,,,,,,,,,,,,,,,,,,,,,,,,,,,,,,,,,,,0,0,0,1,1,candle,,,,,,,,,,,,,,,,,,,,,,,,,
,,,,,,,,,,,,,,,89437,001,2022-04-25_16h08.12.573,SPAMnetsValid,2021.1.4,MacIntel,66.66666667,,,,,,,,,,,,,,,,,,,,,,,,,,,,,,,,,,,,,,,,,,,,,,,,,,,,hat,bucket,0,0,0,0,1,,,,,,,,,,,,,,,,,,,,,,,,,,,,,,,
,,,,,,,,,,,,,,,89437,001,2022-04-25_16h08.12.573,SPAMnetsValid,2021.1.4,MacIntel,66.66666667,,,,,,,,,,,,,,,,,,,,,,,,,,,,,,,,,,,,,,,,,,,,,,,,,,,,fish bowl,bucket,1,0,1,0,1,,,,,,,,,,,,,,,,,,,,,,,,,,,,,,,
,,,,,,,,,,,,,,,89437,001,2022-04-25_16h08.12.573,SPAMnetsValid,2021.1.4,MacIntel,66.66666667,,,,,,,,,,,,,,,,,,,,,,,,,,,,,,,,,,,,,,,,,,,,,,,,,,,,vase,bucket,2,0,2,0,1,,,,,,,,,,,,,,,,,,,,,,,,,,,,,,,
,,,,,,,,,,,,,,,89437,001,2022-04-25_16h08.12.573,SPAMnetsValid,2021.1.4,MacIntel,66.66666667,,,,,,,,,,,,,,,,,,,,,,,,,,,,,,,,,,,,,,,,,,,,,,,,,,,,tool box,bucket,3,0,3,0,1,,,,,,,,,,,,,,,,,,,,,,,,,,,,,,,
,,,,,,,,,,,,,,,89437,001,2022-04-25_16h08.12.573,SPAMnetsValid,2021.1.4,MacIntel,66.66666667,,,,,,,,,,,,,,,,,,,,,,,,,,,,,,,,,,,,,,,,,,,,,,,,,,,,,,,,,,,0,1,1,0,1,bucket,,,,,,,,,,,,,,,,,,,,,,,,,
,,,,,,,,,,,,,,,89437,001,2022-04-25_16h08.12.573,SPAMnetsValid,2021.1.4,MacIntel,66.66666667,,,,,,,,,,,,,,,,,,,,,,,,,,,,,,,,,,,,,,,,,,,,,,,,,,,,hat,pillow,0,0,0,0,1,,,,,,,,,,,,,,,,,,,,,,,,,,,,,,,
,,,,,,,,,,,,,,,89437,001,2022-04-25_16h08.12.573,SPAMnetsValid,2021.1.4,MacIntel,66.66666667,,,,,,,,,,,,,,,,,,,,,,,,,,,,,,,,,,,,,,,,,,,,,,,,,,,,tshirt,pillow,1,0,1,0,1,,,,,,,,,,,,,,,,,,,,,,,,,,,,,,,
,,,,,,,,,,,,,,,89437,001,2022-04-25_16h08.12.573,SPAMnetsValid,2021.1.4,MacIntel,66.66666667,,,,,,,,,,,,,,,,,,,,,,,,,,,,,,,,,,,,,,,,,,,,,,,,,,,,wig,pillow,2,0,2,0,1,,,,,,,,,,,,,,,,,,,,,,,,,,,,,,,
,,,,,,,,,,,,,,,89437,001,2022-04-25_16h08.12.573,SPAMnetsValid,2021.1.4,MacIntel,66.66666667,,,,,,,,,,,,,,,,,,,,,,,,,,,,,,,,,,,,,,,,,,,,,,,,,,,,towl,pillow,3,0,3,0,1,,,,,,,,,,,,,,,,,,,,,,,,,,,,,,,
,,,,,,,,,,,,,,,89437,001,2022-04-25_16h08.12.573,SPAMnetsValid,2021.1.4,MacIntel,66.66666667,,,,,,,,,,,,,,,,,,,,,,,,,,,,,,,,,,,,,,,,,,,,,,,,,,,,flag,pillow,4,0,4,0,1,,,,,,,,,,,,,,,,,,,,,,,,,,,,,,,
,,,,,,,,,,,,,,,89437,001,2022-04-25_16h08.12.573,SPAMnetsValid,2021.1.4,MacIntel,66.66666667,,,,,,,,,,,,,,,,,,,,,,,,,,,,,,,,,,,,,,,,,,,,,,,,,,,,,,,,,,,0,2,2,2,1,pillow,,,,,,,,,,,,,,,,,,,,,,,,,
,,,,,,,,,,,,,,,89437,001,2022-04-25_16h08.12.573,SPAMnetsValid,2021.1.4,MacIntel,66.66666667,,,,,,,,,,,,,,,,,,,,,,,,,,,,,,,,,,,,,,,,,,,,,,,,,,,,,,,,,,,,,,,,,,Animals,0,0,0,0,1,,,,,,,,,,,,,,,,,,
,,,,,,,,,,,,,,,89437,001,2022-04-25_16h08.12.573,SPAMnetsValid,2021.1.4,MacIntel,66.66666667,,,,,,,,,,,,,,,,,,,,,,,,,,,,,,,,,,,,,,,,,,,,,,,,,,,,,,,,,,,,,,,,,bird,Animals,1,0,1,0,1,,,,,,,,,,,,,,,,,,
,,,,,,,,,,,,,,,89437,001,2022-04-25_16h08.12.573,SPAMnetsValid,2021.1.4,MacIntel,66.66666667,,,,,,,,,,,,,,,,,,,,,,,,,,,,,,,,,,,,,,,,,,,,,,,,,,,,,,,,,,,,,,,,,giraffe,Animals,2,0,2,0,1,,,,,,,,,,,,,,,,,,
,,,,,,,,,,,,,,,89437,001,2022-04-25_16h08.12.573,SPAMnetsValid,2021.1.4,MacIntel,66.66666667,,,,,,,,,,,,,,,,,,,,,,,,,,,,,,,,,,,,,,,,,,,,,,,,,,,,,,,,,,,,,,,,,dolphin,Animals,3,0,3,0,1,,,,,,,,,,,,,,,,,,
,,,,,,,,,,,,,,,89437,001,2022-04-25_16h08.12.573,SPAMnetsValid,2021.1.4,MacIntel,66.66666667,,,,,,,,,,,,,,,,,,,,,,,,,,,,,,,,,,,,,,,,,,,,,,,,,,,,,,,,,,,,,,,,,dog,Animals,4,0,4,0,1,,,,,,,,,,,,,,,,,,
,,,,,,,,,,,,,,,89437,001,2022-04-25_16h08.12.573,SPAMnetsValid,2021.1.4,MacIntel,66.66666667,,,,,,,,,,,,,,,,,,,,,,,,,,,,,,,,,,,,,,,,,,,,,,,,,,,,,,,,,,,,,,,,,cat,Animals,5,0,5,0,1,,,,,,,,,,,,,,,,,,
,,,,,,,,,,,,,,,89437,001,2022-04-25_16h08.12.573,SPAMnetsValid,2021.1.4,MacIntel,66.66666667,,,,,,,,,,,,,,,,,,,,,,,,,,,,,,,,,,,,,,,,,,,,,,,,,,,,,,,,,,,,,,,,,cow,Animals,6,0,6,0,1,,,,,,,,,,,,,,,,,,
,,,,,,,,,,,,,,,89437,001,2022-04-25_16h08.12.573,SPAMnetsValid,2021.1.4,MacIntel,66.66666667,,,,,,,,,,,,,,,,,,,,,,,,,,,,,,,,,,,,,,,,,,,,,,,,,,,,,,,,,,,,,,,,,bird,Animals,7,0,7,0,1,,,,,,,,,,,,,,,,,,
,,,,,,,,,,,,,,,89437,001,2022-04-25_16h08.12.573,SPAMnetsValid,2021.1.4,MacIntel,66.66666667,,,,,,,,,,,,,,,,,,,,,,,,,,,,,,,,,,,,,,,,,,,,,,,,,,,,,,,,,,,,,,,,,snake,Animals,8,0,8,0,1,,,,,,,,,,,,,,,,,,
,,,,,,,,,,,,,,,89437,001,2022-04-25_16h08.12.573,SPAMnetsValid,2021.1.4,MacIntel,66.66666667,,,,,,,,,,,,,,,,,,,,,,,,,,,,,,,,,,,,,,,,,,,,,,,,,,,,,,,,,,,,,,,,,chicken,Animals,9,0,9,0,1,,,,,,,,,,,,,,,,,,
,,,,,,,,,,,,,,,89437,001,2022-04-25_16h08.12.573,SPAMnetsValid,2021.1.4,MacIntel,66.66666667,,,,,,,,,,,,,,,,,,,,,,,,,,,,,,,,,,,,,,,,,,,,,,,,,,,,,,,,,,,,,,,,,lion,Animals,10,0,10,0,1,,,,,,,,,,,,,,,,,,
,,,,,,,,,,,,,,,89437,001,2022-04-25_16h08.12.573,SPAMnetsValid,2021.1.4,MacIntel,66.66666667,,,,,,,,,,,,,,,,,,,,,,,,,,,,,,,,,,,,,,,,,,,,,,,,,,,,,,,,,,,,,,,,,tiger,Animals,11,0,11,0,1,,,,,,,,,,,,,,,,,,
,,,,,,,,,,,,,,,89437,001,2022-04-25_16h08.12.573,SPAMnetsValid,2021.1.4,MacIntel,66.66666667,,,,,,,,,,,,,,,,,,,,,,,,,,,,,,,,,,,,,,,,,,,,,,,,,,,,,,,,,,,,,,,,,shark,Animals,12,0,12,0,1,,,,,,,,,,,,,,,,,,
,,,,,,,,,,,,,,,89437,001,2022-04-25_16h08.12.573,SPAMnetsValid,2021.1.4,MacIntel,66.66666667,,,,,,,,,,,,,,,,,,,,,,,,,,,,,,,,,,,,,,,,,,,,,,,,,,,,,,,,,,,,,,,,,whale,Animals,13,0,13,0,1,,,,,,,,,,,,,,,,,,
,,,,,,,,,,,,,,,89437,001,2022-04-25_16h08.12.573,SPAMnetsValid,2021.1.4,MacIntel,66.66666667,,,,,,,,,,,,,,,,,,,,,,,,,,,,,,,,,,,,,,,,,,,,,,,,,,,,,,,,,,,,,,,,,jellyfish,Animals,14,0,14,0,1,,,,,,,,,,,,,,,,,,
,,,,,,,,,,,,,,,89437,001,2022-04-25_16h08.12.573,SPAMnetsValid,2021.1.4,MacIntel,66.66666667,,,,,,,,,,,,,,,,,,,,,,,,,,,,,,,,,,,,,,,,,,,,,,,,,,,,,,,,,,,,,,,,,fish,Animals,15,0,15,0,1,,,,,,,,,,,,,,,,,,
,,,,,,,,,,,,,,,89437,001,2022-04-25_16h08.12.573,SPAMnetsValid,2021.1.4,MacIntel,66.66666667,,,,,,,,,,,,,,,,,,,,,,,,,,,,,,,,,,,,,,,,,,,,,,,,,,,,,,,,,,,,,,,,,horse,Animals,16,0,16,0,1,,,,,,,,,,,,,,,,,,
,,,,,,,,,,,,,,,89437,001,2022-04-25_16h08.12.573,SPAMnetsValid,2021.1.4,MacIntel,66.66666667,,,,,,,,,,,,,,,,,,,,,,,,,,,,,,,,,,,,,,,,,,,,,,,,,,,,,,,,,,,,,,,,,,,,,,,,0,0,0,0,1,Animals,,,,,,,,,,,,
,,,,,,,,,,,,,,,89437,001,2022-04-25_16h08.12.573,SPAMnetsValid,2021.1.4,MacIntel,66.66666667,,,,,,,,,,,,,,,,,,,,,,,,,,,,,,,,,,,,,,,,,,,,,,,,,,,,,,,,,,,,,,,,,,,,,,,,,,,,,,4,7.117,0,0,0,0,1,"I enjoy concentrating on a fantasy or daydream and exploring all its possibilities, letting it grow and develop.",0,1,,
,,,,,,,,,,,,,,,89437,001,2022-04-25_16h08.12.573,SPAMnetsValid,2021.1.4,MacIntel,66.66666667,,,,,,,,,,,,,,,,,,,,,,,,,,,,,,,,,,,,,,,,,,,,,,,,,,,,,,,,,,,,,,,,,,,,,,,,,,,,,,3,33.497,0,1,1,1,1,I think it's interesting to learn and develop new hobbies.,0,2,,
,,,,,,,,,,,,,,,89437,001,2022-04-25_16h08.12.573,SPAMnetsValid,2021.1.4,MacIntel,66.66666667,,,,,,,,,,,,,,,,,,,,,,,,,,,,,,,,,,,,,,,,,,,,,,,,,,,,,,,,,,,,,,,,,,,,,,,,,,,,,,4,9.352,0,2,2,2,1,I am intrigued by the patterns I find in art and nature.,0,3,,
,,,,,,,,,,,,,,,89437,001,2022-04-25_16h08.12.573,SPAMnetsValid,2021.1.4,MacIntel,66.66666667,,,,,,,,,,,,,,,,,,,,,,,,,,,,,,,,,,,,,,,,,,,,,,,,,,,,,,,,,,,,,,,,,,,,,,,,,,,,,,2,30.924,0,3,3,3,1,I believe letting students hear controversial speakers can only confuse and mislead them.,1,4,,
,,,,,,,,,,,,,,,89437,001,2022-04-25_16h08.12.573,SPAMnetsValid,2021.1.4,MacIntel,66.66666667,,,,,,,,,,,,,,,,,,,,,,,,,,,,,,,,,,,,,,,,,,,,,,,,,,,,,,,,,,,,,,,,,,,,,,,,,,,,,,4,7.197,0,4,4,4,1,Poetry has little or no effect on me.,1,5,,
,,,,,,,,,,,,,,,89437,001,2022-04-25_16h08.12.573,SPAMnetsValid,2021.1.4,MacIntel,66.66666667,,,,,,,,,,,,,,,,,,,,,,,,,,,,,,,,,,,,,,,,,,,,,,,,,,,,,,,,,,,,,,,,,,,,,,,,,,,,,,1,46.325,0,5,5,5,1,I would have difficulty just letting my mind wander without control or guidance.,1,6,,
,,,,,,,,,,,,,,,89437,001,2022-04-25_16h08.12.573,SPAMnetsValid,2021.1.4,MacIntel,66.66666667,,,,,,,,,,,,,,,,,,,,,,,,,,,,,,,,,,,,,,,,,,,,,,,,,,,,,,,,,,,,,,,,,,,,,,,,,,,,,,1,6.334,0,6,6,6,1,I seldom notice the moods or feelings that different environments produce.,1,7,,
,,,,,,,,,,,,,,,89437,001,2022-04-25_16h08.12.573,SPAMnetsValid,2021.1.4,MacIntel,66.66666667,,,,,,,,,,,,,,,,,,,,,,,,,,,,,,,,,,,,,,,,,,,,,,,,,,,,,,,,,,,,,,,,,,,,,,,,,,,,,,5,5.313,0,7,7,7,1,I experience a wide range of emotions or feelings.,0,8,,
,,,,,,,,,,,,,,,89437,001,2022-04-25_16h08.12.573,SPAMnetsValid,2021.1.4,MacIntel,66.66666667,,,,,,,,,,,,,,,,,,,,,,,,,,,,,,,,,,,,,,,,,,,,,,,,,,,,,,,,,,,,,,,,,,,,,,,,,,,,,,3,5.08,0,8,8,8,1,"Sometimes when I am reading poetry or looking at a work of art, I feel a chill or wave of excitement.",0,9,,
,,,,,,,,,,,,,,,89437,001,2022-04-25_16h08.12.573,SPAMnetsValid,2021.1.4,MacIntel,66.66666667,,,,,,,,,,,,,,,,,,,,,,,,,,,,,,,,,,,,,,,,,,,,,,,,,,,,,,,,,,,,,,,,,,,,,,,,,,,,,,2,4.233,0,9,9,9,1,I have little interest in speculating on the nature of the universe or the human condition.,1,10,,
,,,,,,,,,,,,,,,89437,001,2022-04-25_16h08.12.573,SPAMnetsValid,2021.1.4,MacIntel,66.66666667,,,,,,,,,,,,,,,,,,,,,,,,,,,,,,,,,,,,,,,,,,,,,,,,,,,,,,,,,,,,,,,,,,,,,,,,,,,,,,4,2.378,0,10,10,10,1,I have a lot of intellectual curiosity.,0,11,,
,,,,,,,,,,,,,,,89437,001,2022-04-25_16h08.12.573,SPAMnetsValid,2021.1.4,MacIntel,66.66666667,,,,,,,,,,,,,,,,,,,,,,,,,,,,,,,,,,,,,,,,,,,,,,,,,,,,,,,,,,,,,,,,,,,,,,,,,,,,,,4,3.64,0,11,11,11,1,I often enjoy playing with theories or abstract ideas.,0,12,,
,,,,,,,,,,,,,,,89437,001,2022-04-25_16h08.12.573,SPAMnetsValid,2021.1.4,MacIntel,66.66666667,,,,,,,,,,,,,,,,,,,,,,,,,,,,,,,,,,,,,,,,,,,,,,,,,,,,,,,,,,,,,,,,,,,,,,,,,,,,,,,,,,,,,,,,return,0.092
