key_resp_3.keys,key_resp_3.rt,slider_2.response,slider_2.rt,rjt_rating,rjt_RT,trials_24.thisRepN,trials_24.thisTrialN,trials_24.thisN,trials_24.thisIndex,trials_24.ran,rjt_order,word1,word2,attention,participant,session,date,expName,psychopyVersion,OS,frameRate,trials_4.thisRepN,trials_4.thisTrialN,trials_4.thisN,trials_4.thisIndex,trials_4.ran,trials_5.thisRepN,trials_5.thisTrialN,trials_5.thisN,trials_5.thisIndex,trials_5.ran,repOne,repTwo,slider.response,slider.rt,trials_22.thisRepN,trials_22.thisTrialN,trials_22.thisN,trials_22.thisIndex,trials_22.ran,trials_99.thisRepN,trials_99.thisTrialN,trials_99.thisN,trials_99.thisIndex,trials_99.ran,slider_extend_2.response,slider_extend_2.rt,trials_6.thisRepN,trials_6.thisTrialN,trials_6.thisN,trials_6.thisIndex,trials_6.ran,vCue2,R1,R2,R3,R4,correct,sliderVocab.response,sliderVocab.rt,trials_7.thisRepN,trials_7.thisTrialN,trials_7.thisN,trials_7.thisIndex,trials_7.ran,VocabCue,VR1,VR2,VR3,VR4,VR5,VocabCorrect,AUT_resp,AUT_label,trials.thisRepN,trials.thisTrialN,trials.thisN,trials.thisIndex,trials.ran,trials_2.thisRepN,trials_2.thisTrialN,trials_2.thisN,trials_2.thisIndex,trials_2.ran,aut_prompt,VF_response,VF_tag,trials_16.thisRepN,trials_16.thisTrialN,trials_16.thisN,trials_16.thisIndex,trials_16.ran,trials_17.thisRepN,trials_17.thisTrialN,trials_17.thisN,trials_17.thisIndex,trials_17.ran,VFcond,open_slider.response,open_slider.rt,trials_3.thisRepN,trials_3.thisTrialN,trials_3.thisN,trials_3.thisIndex,trials_3.ran,OpenQ,Rev,OPEN_ORDER,key_resp_2.keys,key_resp_2.rt
return,4.209,9,3.462,9,3.462,0,0,0,25,1,194,cactus,cactus,CHECK,89442,001,2022-04-28_23h12.46.165,SPAMnetsValid,2021.1.4,MacIntel,66.66666667,,,,,,,,,,,,,,,,,,,,,,,,,,,,,,,,,,,,,,,,,,,,,,,,,,,,,,,,,,,,,,,,,,,,,,,,,,,,,,,,,,,,,,,,,
,,1,3.35,1,3.35,0,1,1,84,1,130,microwave,yogurt,,89442,001,2022-04-28_23h12.46.165,SPAMnetsValid,2021.1.4,MacIntel,66.66666667,,,,,,,,,,,,,,,,,,,,,,,,,,,,,,,,,,,,,,,,,,,,,,,,,,,,,,,,,,,,,,,,,,,,,,,,,,,,,,,,,,,,,,,,,
,,3,5.544,3,5.544,0,2,2,29,1,163,melon,refrigerator,,89442,001,2022-04-28_23h12.46.165,SPAMnetsValid,2021.1.4,MacIntel,66.66666667,,,,,,,,,,,,,,,,,,,,,,,,,,,,,,,,,,,,,,,,,,,,,,,,,,,,,,,,,,,,,,,,,,,,,,,,,,,,,,,,,,,,,,,,,
,,9,2.417,9,2.417,0,3,3,22,1,142,garden,tree,,89442,001,2022-04-28_23h12.46.165,SPAMnetsValid,2021.1.4,MacIntel,66.66666667,,,,,,,,,,,,,,,,,,,,,,,,,,,,,,,,,,,,,,,,,,,,,,,,,,,,,,,,,,,,,,,,,,,,,,,,,,,,,,,,,,,,,,,,,
,,9,3.502,9,3.502,0,4,4,87,1,114,cookie,strawberry,,89442,001,2022-04-28_23h12.46.165,SPAMnetsValid,2021.1.4,MacIntel,66.66666667,,,,,,,,,,,,,,,,,,,,,,,,,,,,,,,,,,,,,,,,,,,,,,,,,,,,,,,,,,,,,,,,,,,,,,,,,,,,,,,,,,,,,,,,,
,,6,7.965,6,7.965,0,5,5,78,1,132,broom,tree,,89442,001,2022-04-28_23h12.46.165,SPAMnetsValid,2021.1.4,MacIntel,66.66666667,,,,,,,,,,,,,,,,,,,,,,,,,,,,,,,,,,,,,,,,,,,,,,,,,,,,,,,,,,,,,,,,,,,,,,,,,,,,,,,,,,,,,,,,,
,,9,2.895,9,2.895,0,6,6,52,1,110,chocolate,cookie,,89442,001,2022-04-28_23h12.46.165,SPAMnetsValid,2021.1.4,MacIntel,66.66666667,,,,,,,,,,,,,,,,,,,,,,,,,,,,,,,,,,,,,,,,,,,,,,,,,,,,,,,,,,,,,,,,,,,,,,,,,,,,,,,,,,,,,,,,,
,,9,2.116,9,2.116,0,7,7,61,1,138,flower,rose,,89442,001,2022-04-28_23h12.46.165,SPAMnetsValid,2021.1.4,MacIntel,66.66666667,,,,,,,,,,,,,,,,,,,,,,,,,,,,,,,,,,,,,,,,,,,,,,,,,,,,,,,,,,,,,,,,,,,,,,,,,,,,,,,,,,,,,,,,,
,,1,2.05,1,2.05,0,8,8,13,1,105,cactus,oven,,89442,001,2022-04-28_23h12.46.165,SPAMnetsValid,2021.1.4,MacIntel,66.66666667,,,,,,,,,,,,,,,,,,,,,,,,,,,,,,,,,,,,,,,,,,,,,,,,,,,,,,,,,,,,,,,,,,,,,,,,,,,,,,,,,,,,,,,,,
,,9,4.711,9,4.711,0,9,9,60,1,122,flower,garden,,89442,001,2022-04-28_23h12.46.165,SPAMnetsValid,2021.1.4,MacIntel,66.66666667,,,,,,,,,,,,,,,,,,,,,,,,,,,,,,,,,,,,,,,,,,,,,,,,,,,,,,,,,,,,,,,,,,,,,,,,,,,,,,,,,,,,,,,,,
,,1,2.517,1,2.517,0,10,10,32,1,182,flower,refrigerator,,89442,001,2022-04-28_23h12.46.165,SPAMnetsValid,2021.1.4,MacIntel,66.66666667,,,,,,,,,,,,,,,,,,,,,,,,,,,,,,,,,,,,,,,,,,,,,,,,,,,,,,,,,,,,,,,,,,,,,,,,,,,,,,,,,,,,,,,,,
,,1,3.949,1,3.949,0,11,11,11,1,117,melon,strawberry,,89442,001,2022-04-28_23h12.46.165,SPAMnetsValid,2021.1.4,MacIntel,66.66666667,,,,,,,,,,,,,,,,,,,,,,,,,,,,,,,,,,,,,,,,,,,,,,,,,,,,,,,,,,,,,,,,,,,,,,,,,,,,,,,,,,,,,,,,,
,,9,17.779,9,17.779,0,12,12,27,1,158,cookie,oven,,89442,001,2022-04-28_23h12.46.165,SPAMnetsValid,2021.1.4,MacIntel,66.66666667,,,,,,,,,,,,,,,,,,,,,,,,,,,,,,,,,,,,,,,,,,,,,,,,,,,,,,,,,,,,,,,,,,,,,,,,,,,,,,,,,,,,,,,,,
,,5,4.716,5,4.716,0,13,13,85,1,115,refrigerator,tomato,,89442,001,2022-04-28_23h12.46.165,SPAMnetsValid,2021.1.4,MacIntel,66.66666667,,,,,,,,,,,,,,,,,,,,,,,,,,,,,,,,,,,,,,,,,,,,,,,,,,,,,,,,,,,,,,,,,,,,,,,,,,,,,,,,,,,,,,,,,
,,1,1.817,1,1.817,0,14,14,4,1,109,broom,strawberry,,89442,001,2022-04-28_23h12.46.165,SPAMnetsValid,2021.1.4,MacIntel,66.66666667,,,,,,,,,,,,,,,,,,,,,,,,,,,,,,,,,,,,,,,,,,,,,,,,,,,,,,,,,,,,,,,,,,,,,,,,,,,,,,,,,,,,,,,,,
,,9,5.143,9,5.143,0,15,15,51,1,168,cactus,flower,,89442,001,2022-04-28_23h12.46.165,SPAMnetsValid,2021.1.4,MacIntel,66.66666667,,,,,,,,,,,,,,,,,,,,,,,,,,,,,,,,,,,,,,,,,,,,,,,,,,,,,,,,,,,,,,,,,,,,,,,,,,,,,,,,,,,,,,,,,
,,5,2.417,5,2.417,0,16,16,35,1,147,cake,refrigerator,,89442,001,2022-04-28_23h12.46.165,SPAMnetsValid,2021.1.4,MacIntel,66.66666667,,,,,,,,,,,,,,,,,,,,,,,,,,,,,,,,,,,,,,,,,,,,,,,,,,,,,,,,,,,,,,,,,,,,,,,,,,,,,,,,,,,,,,,,,
,,7,4.466,7,4.466,0,17,17,48,1,186,kitchen,yogurt,,89442,001,2022-04-28_23h12.46.165,SPAMnetsValid,2021.1.4,MacIntel,66.66666667,,,,,,,,,,,,,,,,,,,,,,,,,,,,,,,,,,,,,,,,,,,,,,,,,,,,,,,,,,,,,,,,,,,,,,,,,,,,,,,,,,,,,,,,,
,,1,4.95,1,4.95,0,18,18,58,1,144,cake,garden,,89442,001,2022-04-28_23h12.46.165,SPAMnetsValid,2021.1.4,MacIntel,66.66666667,,,,,,,,,,,,,,,,,,,,,,,,,,,,,,,,,,,,,,,,,,,,,,,,,,,,,,,,,,,,,,,,,,,,,,,,,,,,,,,,,,,,,,,,,
,,1,2,1,2,0,19,19,40,1,165,onion,rose,,89442,001,2022-04-28_23h12.46.165,SPAMnetsValid,2021.1.4,MacIntel,66.66666667,,,,,,,,,,,,,,,,,,,,,,,,,,,,,,,,,,,,,,,,,,,,,,,,,,,,,,,,,,,,,,,,,,,,,,,,,,,,,,,,,,,,,,,,,
,,1,2.816,1,2.816,0,20,20,94,1,133,cake,flower,,89442,001,2022-04-28_23h12.46.165,SPAMnetsValid,2021.1.4,MacIntel,66.66666667,,,,,,,,,,,,,,,,,,,,,,,,,,,,,,,,,,,,,,,,,,,,,,,,,,,,,,,,,,,,,,,,,,,,,,,,,,,,,,,,,,,,,,,,,
,,1,1.861,1,1.861,0,21,21,73,1,135,carrot,oven,,89442,001,2022-04-28_23h12.46.165,SPAMnetsValid,2021.1.4,MacIntel,66.66666667,,,,,,,,,,,,,,,,,,,,,,,,,,,,,,,,,,,,,,,,,,,,,,,,,,,,,,,,,,,,,,,,,,,,,,,,,,,,,,,,,,,,,,,,,
,,1,2.146,1,2.146,0,22,22,54,1,101,cactus,kitchen,,89442,001,2022-04-28_23h12.46.165,SPAMnetsValid,2021.1.4,MacIntel,66.66666667,,,,,,,,,,,,,,,,,,,,,,,,,,,,,,,,,,,,,,,,,,,,,,,,,,,,,,,,,,,,,,,,,,,,,,,,,,,,,,,,,,,,,,,,,
,,9,2.899,9,2.899,0,23,23,66,1,150,microwave,refrigerator,,89442,001,2022-04-28_23h12.46.165,SPAMnetsValid,2021.1.4,MacIntel,66.66666667,,,,,,,,,,,,,,,,,,,,,,,,,,,,,,,,,,,,,,,,,,,,,,,,,,,,,,,,,,,,,,,,,,,,,,,,,,,,,,,,,,,,,,,,,
,,1,2.377,1,2.377,0,24,24,75,1,178,cactus,carrot,,89442,001,2022-04-28_23h12.46.165,SPAMnetsValid,2021.1.4,MacIntel,66.66666667,,,,,,,,,,,,,,,,,,,,,,,,,,,,,,,,,,,,,,,,,,,,,,,,,,,,,,,,,,,,,,,,,,,,,,,,,,,,,,,,,,,,,,,,,
,,1,2.261,1,2.261,0,25,25,21,1,159,cookie,flower,,89442,001,2022-04-28_23h12.46.165,SPAMnetsValid,2021.1.4,MacIntel,66.66666667,,,,,,,,,,,,,,,,,,,,,,,,,,,,,,,,,,,,,,,,,,,,,,,,,,,,,,,,,,,,,,,,,,,,,,,,,,,,,,,,,,,,,,,,,
,,1,1.983,1,1.983,0,26,26,90,1,190,microwave,strawberry,,89442,001,2022-04-28_23h12.46.165,SPAMnetsValid,2021.1.4,MacIntel,66.66666667,,,,,,,,,,,,,,,,,,,,,,,,,,,,,,,,,,,,,,,,,,,,,,,,,,,,,,,,,,,,,,,,,,,,,,,,,,,,,,,,,,,,,,,,,
,,1,1.798,1,1.798,0,27,27,74,1,128,melon,microwave,,89442,001,2022-04-28_23h12.46.165,SPAMnetsValid,2021.1.4,MacIntel,66.66666667,,,,,,,,,,,,,,,,,,,,,,,,,,,,,,,,,,,,,,,,,,,,,,,,,,,,,,,,,,,,,,,,,,,,,,,,,,,,,,,,,,,,,,,,,
,,6,7.361,6,7.361,0,28,28,39,1,112,cake,carrot,,89442,001,2022-04-28_23h12.46.165,SPAMnetsValid,2021.1.4,MacIntel,66.66666667,,,,,,,,,,,,,,,,,,,,,,,,,,,,,,,,,,,,,,,,,,,,,,,,,,,,,,,,,,,,,,,,,,,,,,,,,,,,,,,,,,,,,,,,,
,,7,2.785,7,2.785,0,29,29,36,1,161,kitchen,pretzel,,89442,001,2022-04-28_23h12.46.165,SPAMnetsValid,2021.1.4,MacIntel,66.66666667,,,,,,,,,,,,,,,,,,,,,,,,,,,,,,,,,,,,,,,,,,,,,,,,,,,,,,,,,,,,,,,,,,,,,,,,,,,,,,,,,,,,,,,,,
,,1,1.78,1,1.78,0,30,30,41,1,175,melon,onion,,89442,001,2022-04-28_23h12.46.165,SPAMnetsValid,2021.1.4,MacIntel,66.66666667,,,,,,,,,,,,,,,,,,,,,,,,,,,,,,,,,,,,,,,,,,,,,,,,,,,,,,,,,,,,,,,,,,,,,,,,,,,,,,,,,,,,,,,,,
,,1,1.748,1,1.748,0,31,31,31,1,156,melon,rose,,89442,001,2022-04-28_23h12.46.165,SPAMnetsValid,2021.1.4,MacIntel,66.66666667,,,,,,,,,,,,,,,,,,,,,,,,,,,,,,,,,,,,,,,,,,,,,,,,,,,,,,,,,,,,,,,,,,,,,,,,,,,,,,,,,,,,,,,,,
,,1,1.98,1,1.98,0,32,32,37,1,139,carrot,strawberry,,89442,001,2022-04-28_23h12.46.165,SPAMnetsValid,2021.1.4,MacIntel,66.66666667,,,,,,,,,,,,,,,,,,,,,,,,,,,,,,,,,,,,,,,,,,,,,,,,,,,,,,,,,,,,,,,,,,,,,,,,,,,,,,,,,,,,,,,,,
,,1,3.285,1,3.285,0,33,33,67,1,96,oven,strawberry,,89442,001,2022-04-28_23h12.46.165,SPAMnetsValid,2021.1.4,MacIntel,66.66666667,,,,,,,,,,,,,,,,,,,,,,,,,,,,,,,,,,,,,,,,,,,,,,,,,,,,,,,,,,,,,,,,,,,,,,,,,,,,,,,,,,,,,,,,,
,,1,10.366,1,10.366,0,34,34,88,1,171,cake,tomato,,89442,001,2022-04-28_23h12.46.165,SPAMnetsValid,2021.1.4,MacIntel,66.66666667,,,,,,,,,,,,,,,,,,,,,,,,,,,,,,,,,,,,,,,,,,,,,,,,,,,,,,,,,,,,,,,,,,,,,,,,,,,,,,,,,,,,,,,,,
,,1,1.643,1,1.643,0,35,35,80,1,146,pretzel,tree,,89442,001,2022-04-28_23h12.46.165,SPAMnetsValid,2021.1.4,MacIntel,66.66666667,,,,,,,,,,,,,,,,,,,,,,,,,,,,,,,,,,,,,,,,,,,,,,,,,,,,,,,,,,,,,,,,,,,,,,,,,,,,,,,,,,,,,,,,,
,,8,3.717,8,3.717,0,36,36,65,1,160,cookie,kitchen,,89442,001,2022-04-28_23h12.46.165,SPAMnetsValid,2021.1.4,MacIntel,66.66666667,,,,,,,,,,,,,,,,,,,,,,,,,,,,,,,,,,,,,,,,,,,,,,,,,,,,,,,,,,,,,,,,,,,,,,,,,,,,,,,,,,,,,,,,,
,,9,2.399,9,2.399,0,37,37,44,1,116,cake,chocolate,,89442,001,2022-04-28_23h12.46.165,SPAMnetsValid,2021.1.4,MacIntel,66.66666667,,,,,,,,,,,,,,,,,,,,,,,,,,,,,,,,,,,,,,,,,,,,,,,,,,,,,,,,,,,,,,,,,,,,,,,,,,,,,,,,,,,,,,,,,
,,1,1.867,1,1.867,0,38,38,34,1,153,carrot,pretzel,,89442,001,2022-04-28_23h12.46.165,SPAMnetsValid,2021.1.4,MacIntel,66.66666667,,,,,,,,,,,,,,,,,,,,,,,,,,,,,,,,,,,,,,,,,,,,,,,,,,,,,,,,,,,,,,,,,,,,,,,,,,,,,,,,,,,,,,,,,
,,1,1.785,1,1.785,0,39,39,59,1,164,cookie,garden,,89442,001,2022-04-28_23h12.46.165,SPAMnetsValid,2021.1.4,MacIntel,66.66666667,,,,,,,,,,,,,,,,,,,,,,,,,,,,,,,,,,,,,,,,,,,,,,,,,,,,,,,,,,,,,,,,,,,,,,,,,,,,,,,,,,,,,,,,,
,,1,2.3,1,2.3,0,40,40,71,1,187,cactus,microwave,,89442,001,2022-04-28_23h12.46.165,SPAMnetsValid,2021.1.4,MacIntel,66.66666667,,,,,,,,,,,,,,,,,,,,,,,,,,,,,,,,,,,,,,,,,,,,,,,,,,,,,,,,,,,,,,,,,,,,,,,,,,,,,,,,,,,,,,,,,
,,1,1.932,1,1.932,0,41,41,50,1,126,kitchen,tree,,89442,001,2022-04-28_23h12.46.165,SPAMnetsValid,2021.1.4,MacIntel,66.66666667,,,,,,,,,,,,,,,,,,,,,,,,,,,,,,,,,,,,,,,,,,,,,,,,,,,,,,,,,,,,,,,,,,,,,,,,,,,,,,,,,,,,,,,,,
,,1,2.184,1,2.184,0,42,42,89,1,140,cookie,refrigerator,,89442,001,2022-04-28_23h12.46.165,SPAMnetsValid,2021.1.4,MacIntel,66.66666667,,,,,,,,,,,,,,,,,,,,,,,,,,,,,,,,,,,,,,,,,,,,,,,,,,,,,,,,,,,,,,,,,,,,,,,,,,,,,,,,,,,,,,,,,
,,1,7.93,1,7.93,0,43,43,93,1,134,carrot,flower,,89442,001,2022-04-28_23h12.46.165,SPAMnetsValid,2021.1.4,MacIntel,66.66666667,,,,,,,,,,,,,,,,,,,,,,,,,,,,,,,,,,,,,,,,,,,,,,,,,,,,,,,,,,,,,,,,,,,,,,,,,,,,,,,,,,,,,,,,,
,,9,42.11,9,42.11,0,44,44,7,1,188,flower,tree,,89442,001,2022-04-28_23h12.46.165,SPAMnetsValid,2021.1.4,MacIntel,66.66666667,,,,,,,,,,,,,,,,,,,,,,,,,,,,,,,,,,,,,,,,,,,,,,,,,,,,,,,,,,,,,,,,,,,,,,,,,,,,,,,,,,,,,,,,,
,,9,2.267,9,2.267,0,45,45,53,1,177,chocolate,strawberry,,89442,001,2022-04-28_23h12.46.165,SPAMnetsValid,2021.1.4,MacIntel,66.66666667,,,,,,,,,,,,,,,,,,,,,,,,,,,,,,,,,,,,,,,,,,,,,,,,,,,,,,,,,,,,,,,,,,,,,,,,,,,,,,,,,,,,,,,,,
,,1,1.629,1,1.629,0,46,46,9,1,176,cactus,tomato,,89442,001,2022-04-28_23h12.46.165,SPAMnetsValid,2021.1.4,MacIntel,66.66666667,,,,,,,,,,,,,,,,,,,,,,,,,,,,,,,,,,,,,,,,,,,,,,,,,,,,,,,,,,,,,,,,,,,,,,,,,,,,,,,,,,,,,,,,,
,,1,1.803,1,1.803,0,47,47,12,1,162,microwave,tomato,,89442,001,2022-04-28_23h12.46.165,SPAMnetsValid,2021.1.4,MacIntel,66.66666667,,,,,,,,,,,,,,,,,,,,,,,,,,,,,,,,,,,,,,,,,,,,,,,,,,,,,,,,,,,,,,,,,,,,,,,,,,,,,,,,,,,,,,,,,
,,1,1.876,1,1.876,0,48,48,81,1,104,garden,microwave,,89442,001,2022-04-28_23h12.46.165,SPAMnetsValid,2021.1.4,MacIntel,66.66666667,,,,,,,,,,,,,,,,,,,,,,,,,,,,,,,,,,,,,,,,,,,,,,,,,,,,,,,,,,,,,,,,,,,,,,,,,,,,,,,,,,,,,,,,,
,,1,2.301,1,2.301,0,49,49,55,1,143,pretzel,rose,,89442,001,2022-04-28_23h12.46.165,SPAMnetsValid,2021.1.4,MacIntel,66.66666667,,,,,,,,,,,,,,,,,,,,,,,,,,,,,,,,,,,,,,,,,,,,,,,,,,,,,,,,,,,,,,,,,,,,,,,,,,,,,,,,,,,,,,,,,
,,1,1.7,1,1.7,0,50,50,45,1,179,broom,oven,,89442,001,2022-04-28_23h12.46.165,SPAMnetsValid,2021.1.4,MacIntel,66.66666667,,,,,,,,,,,,,,,,,,,,,,,,,,,,,,,,,,,,,,,,,,,,,,,,,,,,,,,,,,,,,,,,,,,,,,,,,,,,,,,,,,,,,,,,,
,,9,4.801,9,4.801,0,51,51,47,1,167,carrot,garden,,89442,001,2022-04-28_23h12.46.165,SPAMnetsValid,2021.1.4,MacIntel,66.66666667,,,,,,,,,,,,,,,,,,,,,,,,,,,,,,,,,,,,,,,,,,,,,,,,,,,,,,,,,,,,,,,,,,,,,,,,,,,,,,,,,,,,,,,,,
,,1,2.268,1,2.268,0,52,52,38,1,155,carrot,cookie,,89442,001,2022-04-28_23h12.46.165,SPAMnetsValid,2021.1.4,MacIntel,66.66666667,,,,,,,,,,,,,,,,,,,,,,,,,,,,,,,,,,,,,,,,,,,,,,,,,,,,,,,,,,,,,,,,,,,,,,,,,,,,,,,,,,,,,,,,,
,,6,2.946,6,2.946,0,53,53,76,1,102,chocolate,refrigerator,,89442,001,2022-04-28_23h12.46.165,SPAMnetsValid,2021.1.4,MacIntel,66.66666667,,,,,,,,,,,,,,,,,,,,,,,,,,,,,,,,,,,,,,,,,,,,,,,,,,,,,,,,,,,,,,,,,,,,,,,,,,,,,,,,,,,,,,,,,
,,1,1.801,1,1.801,0,54,54,30,1,125,carrot,tree,,89442,001,2022-04-28_23h12.46.165,SPAMnetsValid,2021.1.4,MacIntel,66.66666667,,,,,,,,,,,,,,,,,,,,,,,,,,,,,,,,,,,,,,,,,,,,,,,,,,,,,,,,,,,,,,,,,,,,,,,,,,,,,,,,,,,,,,,,,
,,1,6.214,1,6.214,0,55,55,70,1,141,melon,tomato,,89442,001,2022-04-28_23h12.46.165,SPAMnetsValid,2021.1.4,MacIntel,66.66666667,,,,,,,,,,,,,,,,,,,,,,,,,,,,,,,,,,,,,,,,,,,,,,,,,,,,,,,,,,,,,,,,,,,,,,,,,,,,,,,,,,,,,,,,,
,,9,5.811,9,5.811,0,56,56,14,1,120,microwave,oven,,89442,001,2022-04-28_23h12.46.165,SPAMnetsValid,2021.1.4,MacIntel,66.66666667,,,,,,,,,,,,,,,,,,,,,,,,,,,,,,,,,,,,,,,,,,,,,,,,,,,,,,,,,,,,,,,,,,,,,,,,,,,,,,,,,,,,,,,,,
,,1,1.318,1,1.318,0,57,57,63,1,137,microwave,tree,,89442,001,2022-04-28_23h12.46.165,SPAMnetsValid,2021.1.4,MacIntel,66.66666667,,,,,,,,,,,,,,,,,,,,,,,,,,,,,,,,,,,,,,,,,,,,,,,,,,,,,,,,,,,,,,,,,,,,,,,,,,,,,,,,,,,,,,,,,
,,1,2.832,1,2.832,0,58,58,46,1,123,cookie,tree,,89442,001,2022-04-28_23h12.46.165,SPAMnetsValid,2021.1.4,MacIntel,66.66666667,,,,,,,,,,,,,,,,,,,,,,,,,,,,,,,,,,,,,,,,,,,,,,,,,,,,,,,,,,,,,,,,,,,,,,,,,,,,,,,,,,,,,,,,,
,,1,1.694,1,1.694,0,59,59,24,1,169,onion,yogurt,,89442,001,2022-04-28_23h12.46.165,SPAMnetsValid,2021.1.4,MacIntel,66.66666667,,,,,,,,,,,,,,,,,,,,,,,,,,,,,,,,,,,,,,,,,,,,,,,,,,,,,,,,,,,,,,,,,,,,,,,,,,,,,,,,,,,,,,,,,
,,5,3.617,5,3.617,0,60,60,2,1,174,cake,pretzel,,89442,001,2022-04-28_23h12.46.165,SPAMnetsValid,2021.1.4,MacIntel,66.66666667,,,,,,,,,,,,,,,,,,,,,,,,,,,,,,,,,,,,,,,,,,,,,,,,,,,,,,,,,,,,,,,,,,,,,,,,,,,,,,,,,,,,,,,,,
,,8,4.161,8,4.161,0,61,61,69,1,124,oven,refrigerator,,89442,001,2022-04-28_23h12.46.165,SPAMnetsValid,2021.1.4,MacIntel,66.66666667,,,,,,,,,,,,,,,,,,,,,,,,,,,,,,,,,,,,,,,,,,,,,,,,,,,,,,,,,,,,,,,,,,,,,,,,,,,,,,,,,,,,,,,,,
,,8,1.947,8,1.947,0,62,62,0,1,106,cake,strawberry,,89442,001,2022-04-28_23h12.46.165,SPAMnetsValid,2021.1.4,MacIntel,66.66666667,,,,,,,,,,,,,,,,,,,,,,,,,,,,,,,,,,,,,,,,,,,,,,,,,,,,,,,,,,,,,,,,,,,,,,,,,,,,,,,,,,,,,,,,,
,,1,2.251,1,2.251,0,63,63,5,1,108,carrot,chocolate,,89442,001,2022-04-28_23h12.46.165,SPAMnetsValid,2021.1.4,MacIntel,66.66666667,,,,,,,,,,,,,,,,,,,,,,,,,,,,,,,,,,,,,,,,,,,,,,,,,,,,,,,,,,,,,,,,,,,,,,,,,,,,,,,,,,,,,,,,,
,,8,2.318,8,2.318,0,64,64,42,1,184,oven,pretzel,,89442,001,2022-04-28_23h12.46.165,SPAMnetsValid,2021.1.4,MacIntel,66.66666667,,,,,,,,,,,,,,,,,,,,,,,,,,,,,,,,,,,,,,,,,,,,,,,,,,,,,,,,,,,,,,,,,,,,,,,,,,,,,,,,,,,,,,,,,
,,1,1.824,1,1.824,0,65,65,62,1,189,onion,tree,,89442,001,2022-04-28_23h12.46.165,SPAMnetsValid,2021.1.4,MacIntel,66.66666667,,,,,,,,,,,,,,,,,,,,,,,,,,,,,,,,,,,,,,,,,,,,,,,,,,,,,,,,,,,,,,,,,,,,,,,,,,,,,,,,,,,,,,,,,
,,5,3.282,5,3.282,0,66,66,56,1,113,refrigerator,strawberry,,89442,001,2022-04-28_23h12.46.165,SPAMnetsValid,2021.1.4,MacIntel,66.66666667,,,,,,,,,,,,,,,,,,,,,,,,,,,,,,,,,,,,,,,,,,,,,,,,,,,,,,,,,,,,,,,,,,,,,,,,,,,,,,,,,,,,,,,,,
,,1,1.867,1,1.867,0,67,67,91,1,166,cake,yogurt,,89442,001,2022-04-28_23h12.46.165,SPAMnetsValid,2021.1.4,MacIntel,66.66666667,,,,,,,,,,,,,,,,,,,,,,,,,,,,,,,,,,,,,,,,,,,,,,,,,,,,,,,,,,,,,,,,,,,,,,,,,,,,,,,,,,,,,,,,,
,,1,3.683,1,3.683,0,68,68,92,1,170,cookie,microwave,,89442,001,2022-04-28_23h12.46.165,SPAMnetsValid,2021.1.4,MacIntel,66.66666667,,,,,,,,,,,,,,,,,,,,,,,,,,,,,,,,,,,,,,,,,,,,,,,,,,,,,,,,,,,,,,,,,,,,,,,,,,,,,,,,,,,,,,,,,
,,1,1.961,1,1.961,0,69,69,57,1,127,cactus,chocolate,,89442,001,2022-04-28_23h12.46.165,SPAMnetsValid,2021.1.4,MacIntel,66.66666667,,,,,,,,,,,,,,,,,,,,,,,,,,,,,,,,,,,,,,,,,,,,,,,,,,,,,,,,,,,,,,,,,,,,,,,,,,,,,,,,,,,,,,,,,
,,1,217.463,1,217.463,0,70,70,26,1,107,rose,tomato,,89442,001,2022-04-28_23h12.46.165,SPAMnetsValid,2021.1.4,MacIntel,66.66666667,,,,,,,,,,,,,,,,,,,,,,,,,,,,,,,,,,,,,,,,,,,,,,,,,,,,,,,,,,,,,,,,,,,,,,,,,,,,,,,,,,,,,,,,,
,,1,1.696,1,1.696,0,71,71,79,1,103,pretzel,tomato,,89442,001,2022-04-28_23h12.46.165,SPAMnetsValid,2021.1.4,MacIntel,66.66666667,,,,,,,,,,,,,,,,,,,,,,,,,,,,,,,,,,,,,,,,,,,,,,,,,,,,,,,,,,,,,,,,,,,,,,,,,,,,,,,,,,,,,,,,,
,,1,6.662,1,6.662,0,72,72,95,1,121,broom,microwave,,89442,001,2022-04-28_23h12.46.165,SPAMnetsValid,2021.1.4,MacIntel,66.66666667,,,,,,,,,,,,,,,,,,,,,,,,,,,,,,,,,,,,,,,,,,,,,,,,,,,,,,,,,,,,,,,,,,,,,,,,,,,,,,,,,,,,,,,,,
,,1,97.68,1,97.68,0,73,73,20,1,149,broom,tomato,,89442,001,2022-04-28_23h12.46.165,SPAMnetsValid,2021.1.4,MacIntel,66.66666667,,,,,,,,,,,,,,,,,,,,,,,,,,,,,,,,,,,,,,,,,,,,,,,,,,,,,,,,,,,,,,,,,,,,,,,,,,,,,,,,,,,,,,,,,
,,7,66.265,7,66.265,0,74,74,8,1,97,chocolate,kitchen,,89442,001,2022-04-28_23h12.46.165,SPAMnetsValid,2021.1.4,MacIntel,66.66666667,,,,,,,,,,,,,,,,,,,,,,,,,,,,,,,,,,,,,,,,,,,,,,,,,,,,,,,,,,,,,,,,,,,,,,,,,,,,,,,,,,,,,,,,,
,,1,52.499,1,52.499,0,75,75,23,1,148,flower,melon,,89442,001,2022-04-28_23h12.46.165,SPAMnetsValid,2021.1.4,MacIntel,66.66666667,,,,,,,,,,,,,,,,,,,,,,,,,,,,,,,,,,,,,,,,,,,,,,,,,,,,,,,,,,,,,,,,,,,,,,,,,,,,,,,,,,,,,,,,,
,,9,2.122,9,2.122,0,76,76,86,1,193,melon,melon,CHECK,89442,001,2022-04-28_23h12.46.165,SPAMnetsValid,2021.1.4,MacIntel,66.66666667,,,,,,,,,,,,,,,,,,,,,,,,,,,,,,,,,,,,,,,,,,,,,,,,,,,,,,,,,,,,,,,,,,,,,,,,,,,,,,,,,,,,,,,,,
,,1,2.668,1,2.668,0,77,77,3,1,129,cactus,refrigerator,,89442,001,2022-04-28_23h12.46.165,SPAMnetsValid,2021.1.4,MacIntel,66.66666667,,,,,,,,,,,,,,,,,,,,,,,,,,,,,,,,,,,,,,,,,,,,,,,,,,,,,,,,,,,,,,,,,,,,,,,,,,,,,,,,,,,,,,,,,
,,5,12.332,5,12.332,0,78,78,33,1,131,cactus,garden,,89442,001,2022-04-28_23h12.46.165,SPAMnetsValid,2021.1.4,MacIntel,66.66666667,,,,,,,,,,,,,,,,,,,,,,,,,,,,,,,,,,,,,,,,,,,,,,,,,,,,,,,,,,,,,,,,,,,,,,,,,,,,,,,,,,,,,,,,,
,,1,1.758,1,1.758,0,79,79,49,1,152,cactus,strawberry,,89442,001,2022-04-28_23h12.46.165,SPAMnetsValid,2021.1.4,MacIntel,66.66666667,,,,,,,,,,,,,,,,,,,,,,,,,,,,,,,,,,,,,,,,,,,,,,,,,,,,,,,,,,,,,,,,,,,,,,,,,,,,,,,,,,,,,,,,,
,,1,2.88,1,2.88,0,80,80,64,1,157,refrigerator,rose,,89442,001,2022-04-28_23h12.46.165,SPAMnetsValid,2021.1.4,MacIntel,66.66666667,,,,,,,,,,,,,,,,,,,,,,,,,,,,,,,,,,,,,,,,,,,,,,,,,,,,,,,,,,,,,,,,,,,,,,,,,,,,,,,,,,,,,,,,,
,,1,3.069,1,3.069,0,81,81,6,1,151,microwave,onion,,89442,001,2022-04-28_23h12.46.165,SPAMnetsValid,2021.1.4,MacIntel,66.66666667,,,,,,,,,,,,,,,,,,,,,,,,,,,,,,,,,,,,,,,,,,,,,,,,,,,,,,,,,,,,,,,,,,,,,,,,,,,,,,,,,,,,,,,,,
,,1,1.98,1,1.98,0,82,82,83,1,100,garden,tomato,,89442,001,2022-04-28_23h12.46.165,SPAMnetsValid,2021.1.4,MacIntel,66.66666667,,,,,,,,,,,,,,,,,,,,,,,,,,,,,,,,,,,,,,,,,,,,,,,,,,,,,,,,,,,,,,,,,,,,,,,,,,,,,,,,,,,,,,,,,
,,7,4.321,7,4.321,0,83,83,17,1,99,garden,melon,,89442,001,2022-04-28_23h12.46.165,SPAMnetsValid,2021.1.4,MacIntel,66.66666667,,,,,,,,,,,,,,,,,,,,,,,,,,,,,,,,,,,,,,,,,,,,,,,,,,,,,,,,,,,,,,,,,,,,,,,,,,,,,,,,,,,,,,,,,
,,1,76.565,1,76.565,0,84,84,96,1,136,chocolate,microwave,,89442,001,2022-04-28_23h12.46.165,SPAMnetsValid,2021.1.4,MacIntel,66.66666667,,,,,,,,,,,,,,,,,,,,,,,,,,,,,,,,,,,,,,,,,,,,,,,,,,,,,,,,,,,,,,,,,,,,,,,,,,,,,,,,,,,,,,,,,
,,1,2.267,1,2.267,0,85,85,68,1,180,tree,yogurt,,89442,001,2022-04-28_23h12.46.165,SPAMnetsValid,2021.1.4,MacIntel,66.66666667,,,,,,,,,,,,,,,,,,,,,,,,,,,,,,,,,,,,,,,,,,,,,,,,,,,,,,,,,,,,,,,,,,,,,,,,,,,,,,,,,,,,,,,,,
,,9,100.321,9,100.321,0,86,86,1,1,173,kitchen,tomato,,89442,001,2022-04-28_23h12.46.165,SPAMnetsValid,2021.1.4,MacIntel,66.66666667,,,,,,,,,,,,,,,,,,,,,,,,,,,,,,,,,,,,,,,,,,,,,,,,,,,,,,,,,,,,,,,,,,,,,,,,,,,,,,,,,,,,,,,,,
,,8,2.844,8,2.844,0,87,87,10,1,118,chocolate,oven,,89442,001,2022-04-28_23h12.46.165,SPAMnetsValid,2021.1.4,MacIntel,66.66666667,,,,,,,,,,,,,,,,,,,,,,,,,,,,,,,,,,,,,,,,,,,,,,,,,,,,,,,,,,,,,,,,,,,,,,,,,,,,,,,,,,,,,,,,,
,,1,5.599,1,5.599,0,88,88,15,1,145,cactus,yogurt,,89442,001,2022-04-28_23h12.46.165,SPAMnetsValid,2021.1.4,MacIntel,66.66666667,,,,,,,,,,,,,,,,,,,,,,,,,,,,,,,,,,,,,,,,,,,,,,,,,,,,,,,,,,,,,,,,,,,,,,,,,,,,,,,,,,,,,,,,,
,,1,1.637,1,1.637,0,89,89,16,1,111,carrot,microwave,,89442,001,2022-04-28_23h12.46.165,SPAMnetsValid,2021.1.4,MacIntel,66.66666667,,,,,,,,,,,,,,,,,,,,,,,,,,,,,,,,,,,,,,,,,,,,,,,,,,,,,,,,,,,,,,,,,,,,,,,,,,,,,,,,,,,,,,,,,
,,5,2.526,5,2.526,0,90,90,77,1,172,kitchen,melon,,89442,001,2022-04-28_23h12.46.165,SPAMnetsValid,2021.1.4,MacIntel,66.66666667,,,,,,,,,,,,,,,,,,,,,,,,,,,,,,,,,,,,,,,,,,,,,,,,,,,,,,,,,,,,,,,,,,,,,,,,,,,,,,,,,,,,,,,,,
,,1,1.73,1,1.73,0,91,91,19,1,183,cake,rose,,89442,001,2022-04-28_23h12.46.165,SPAMnetsValid,2021.1.4,MacIntel,66.66666667,,,,,,,,,,,,,,,,,,,,,,,,,,,,,,,,,,,,,,,,,,,,,,,,,,,,,,,,,,,,,,,,,,,,,,,,,,,,,,,,,,,,,,,,,
,,9,2.318,9,2.318,0,92,92,28,1,154,strawberry,yogurt,,89442,001,2022-04-28_23h12.46.165,SPAMnetsValid,2021.1.4,MacIntel,66.66666667,,,,,,,,,,,,,,,,,,,,,,,,,,,,,,,,,,,,,,,,,,,,,,,,,,,,,,,,,,,,,,,,,,,,,,,,,,,,,,,,,,,,,,,,,
,,9,3.662,9,3.662,0,93,93,72,1,181,carrot,kitchen,,89442,001,2022-04-28_23h12.46.165,SPAMnetsValid,2021.1.4,MacIntel,66.66666667,,,,,,,,,,,,,,,,,,,,,,,,,,,,,,,,,,,,,,,,,,,,,,,,,,,,,,,,,,,,,,,,,,,,,,,,,,,,,,,,,,,,,,,,,
,,1,1.718,1,1.718,0,94,94,18,1,119,strawberry,tree,,89442,001,2022-04-28_23h12.46.165,SPAMnetsValid,2021.1.4,MacIntel,66.66666667,,,,,,,,,,,,,,,,,,,,,,,,,,,,,,,,,,,,,,,,,,,,,,,,,,,,,,,,,,,,,,,,,,,,,,,,,,,,,,,,,,,,,,,,,
,,8,5.576,8,5.576,0,95,95,82,1,98,pretzel,strawberry,,89442,001,2022-04-28_23h12.46.165,SPAMnetsValid,2021.1.4,MacIntel,66.66666667,,,,,,,,,,,,,,,,,,,,,,,,,,,,,,,,,,,,,,,,,,,,,,,,,,,,,,,,,,,,,,,,,,,,,,,,,,,,,,,,,,,,,,,,,
,,1,1.771,1,1.771,0,96,96,43,1,185,cactus,rose,,89442,001,2022-04-28_23h12.46.165,SPAMnetsValid,2021.1.4,MacIntel,66.66666667,,,,,,,,,,,,,,,,,,,,,,,,,,,,,,,,,,,,,,,,,,,,,,,,,,,,,,,,,,,,,,,,,,,,,,,,,,,,,,,,,,,,,,,,,
,,,,,,,,,,,,,,,89442,001,2022-04-28_23h12.46.165,SPAMnetsValid,2021.1.4,MacIntel,66.66666667,0,0,0,0,1,,,,,,,,,,,,,,,,,,,,,,,,,,,,,,,,,,,,,,,,,,,,,,,,,,,,,,,,,,,,,,,,,,,,,,,,,,,,,,,,,,,,
,,,,,,,,,,,,,,,89442,001,2022-04-28_23h12.46.165,SPAMnetsValid,2021.1.4,MacIntel,66.66666667,,,,,,0,0,0,1,1,0,1,,,,,,,,,,,,,,,,,,,,,,,,,,,,,,,,,,,,,,,,,,,,,,,,,,,,,,,,,,,,,,,,,,,,,,,,,,,,,
,,,,1,596.281,,,,,,39,melon,pretzel,,89442,001,2022-04-28_23h12.46.165,SPAMnetsValid,2021.1.4,MacIntel,66.66666667,,,,,,,,,,,,,1,596.281,0,0,0,20,1,,,,,,,,,,,,,,,,,,,,,,,,,,,,,,,,,,,,,,,,,,,,,,,,,,,,,,,,,,,,,,,,,,,,,,
,,,,5,3.079,,,,,,84,oven,tomato,,89442,001,2022-04-28_23h12.46.165,SPAMnetsValid,2021.1.4,MacIntel,66.66666667,,,,,,,,,,,,,5,3.079,0,1,1,28,1,,,,,,,,,,,,,,,,,,,,,,,,,,,,,,,,,,,,,,,,,,,,,,,,,,,,,,,,,,,,,,,,,,,,,,
,,,,1,2.399,,,,,,49,flower,strawberry,,89442,001,2022-04-28_23h12.46.165,SPAMnetsValid,2021.1.4,MacIntel,66.66666667,,,,,,,,,,,,,1,2.399,0,2,2,3,1,,,,,,,,,,,,,,,,,,,,,,,,,,,,,,,,,,,,,,,,,,,,,,,,,,,,,,,,,,,,,,,,,,,,,,
,,,,1,1.788,,,,,,73,broom,chocolate,,89442,001,2022-04-28_23h12.46.165,SPAMnetsValid,2021.1.4,MacIntel,66.66666667,,,,,,,,,,,,,1,1.788,0,3,3,47,1,,,,,,,,,,,,,,,,,,,,,,,,,,,,,,,,,,,,,,,,,,,,,,,,,,,,,,,,,,,,,,,,,,,,,,
,,,,1,1.484,,,,,,34,melon,oven,,89442,001,2022-04-28_23h12.46.165,SPAMnetsValid,2021.1.4,MacIntel,66.66666667,,,,,,,,,,,,,1,1.484,0,4,4,7,1,,,,,,,,,,,,,,,,,,,,,,,,,,,,,,,,,,,,,,,,,,,,,,,,,,,,,,,,,,,,,,,,,,,,,,
,,,,1,1.517,,,,,,45,onion,pretzel,,89442,001,2022-04-28_23h12.46.165,SPAMnetsValid,2021.1.4,MacIntel,66.66666667,,,,,,,,,,,,,1,1.517,0,5,5,69,1,,,,,,,,,,,,,,,,,,,,,,,,,,,,,,,,,,,,,,,,,,,,,,,,,,,,,,,,,,,,,,,,,,,,,,
,,,,3,2.299,,,,,,17,carrot,melon,,89442,001,2022-04-28_23h12.46.165,SPAMnetsValid,2021.1.4,MacIntel,66.66666667,,,,,,,,,,,,,3,2.299,0,6,6,24,1,,,,,,,,,,,,,,,,,,,,,,,,,,,,,,,,,,,,,,,,,,,,,,,,,,,,,,,,,,,,,,,,,,,,,,
,,,,9,2.002,,,,,,79,garden,strawberry,,89442,001,2022-04-28_23h12.46.165,SPAMnetsValid,2021.1.4,MacIntel,66.66666667,,,,,,,,,,,,,9,2.002,0,7,7,87,1,,,,,,,,,,,,,,,,,,,,,,,,,,,,,,,,,,,,,,,,,,,,,,,,,,,,,,,,,,,,,,,,,,,,,,
,,,,1,2.219,,,,,,86,oven,rose,,89442,001,2022-04-28_23h12.46.165,SPAMnetsValid,2021.1.4,MacIntel,66.66666667,,,,,,,,,,,,,1,2.219,0,8,8,79,1,,,,,,,,,,,,,,,,,,,,,,,,,,,,,,,,,,,,,,,,,,,,,,,,,,,,,,,,,,,,,,,,,,,,,,
,,,,5,4.974,,,,,,47,onion,tomato,,89442,001,2022-04-28_23h12.46.165,SPAMnetsValid,2021.1.4,MacIntel,66.66666667,,,,,,,,,,,,,5,4.974,0,9,9,51,1,,,,,,,,,,,,,,,,,,,,,,,,,,,,,,,,,,,,,,,,,,,,,,,,,,,,,,,,,,,,,,,,,,,,,,
,,,,5,1.207,,,,,,66,melon,yogurt,,89442,001,2022-04-28_23h12.46.165,SPAMnetsValid,2021.1.4,MacIntel,66.66666667,,,,,,,,,,,,,5,1.207,0,10,10,48,1,,,,,,,,,,,,,,,,,,,,,,,,,,,,,,,,,,,,,,,,,,,,,,,,,,,,,,,,,,,,,,,,,,,,,,
,,,,9,3.691,,,,,,94,kitchen,microwave,,89442,001,2022-04-28_23h12.46.165,SPAMnetsValid,2021.1.4,MacIntel,66.66666667,,,,,,,,,,,,,9,3.691,0,11,11,58,1,,,,,,,,,,,,,,,,,,,,,,,,,,,,,,,,,,,,,,,,,,,,,,,,,,,,,,,,,,,,,,,,,,,,,,
,,,,8,9.23,,,,,,82,cake,kitchen,,89442,001,2022-04-28_23h12.46.165,SPAMnetsValid,2021.1.4,MacIntel,66.66666667,,,,,,,,,,,,,8,9.23,0,12,12,96,1,,,,,,,,,,,,,,,,,,,,,,,,,,,,,,,,,,,,,,,,,,,,,,,,,,,,,,,,,,,,,,,,,,,,,,
,,,,1,1.642,,,,,,75,cookie,onion,,89442,001,2022-04-28_23h12.46.165,SPAMnetsValid,2021.1.4,MacIntel,66.66666667,,,,,,,,,,,,,1,1.642,0,13,13,9,1,,,,,,,,,,,,,,,,,,,,,,,,,,,,,,,,,,,,,,,,,,,,,,,,,,,,,,,,,,,,,,,,,,,,,,
,,,,1,2.411,,,,,,50,carrot,rose,,89442,001,2022-04-28_23h12.46.165,SPAMnetsValid,2021.1.4,MacIntel,66.66666667,,,,,,,,,,,,,1,2.411,0,14,14,73,1,,,,,,,,,,,,,,,,,,,,,,,,,,,,,,,,,,,,,,,,,,,,,,,,,,,,,,,,,,,,,,,,,,,,,,
,,,,5,2.232,,,,,,52,carrot,tomato,,89442,001,2022-04-28_23h12.46.165,SPAMnetsValid,2021.1.4,MacIntel,66.66666667,,,,,,,,,,,,,5,2.232,0,15,15,95,1,,,,,,,,,,,,,,,,,,,,,,,,,,,,,,,,,,,,,,,,,,,,,,,,,,,,,,,,,,,,,,,,,,,,,,
,,,,2,25.301,,,,,,15,onion,oven,,89442,001,2022-04-28_23h12.46.165,SPAMnetsValid,2021.1.4,MacIntel,66.66666667,,,,,,,,,,,,,2,25.301,0,16,16,39,1,,,,,,,,,,,,,,,,,,,,,,,,,,,,,,,,,,,,,,,,,,,,,,,,,,,,,,,,,,,,,,,,,,,,,,
,,,,1,1.805,,,,,,37,garden,refrigerator,,89442,001,2022-04-28_23h12.46.165,SPAMnetsValid,2021.1.4,MacIntel,66.66666667,,,,,,,,,,,,,1,1.805,0,17,17,11,1,,,,,,,,,,,,,,,,,,,,,,,,,,,,,,,,,,,,,,,,,,,,,,,,,,,,,,,,,,,,,,,,,,,,,,
,,,,1,1.817,,,,,,90,cactus,cake,,89442,001,2022-04-28_23h12.46.165,SPAMnetsValid,2021.1.4,MacIntel,66.66666667,,,,,,,,,,,,,1,1.817,0,18,18,85,1,,,,,,,,,,,,,,,,,,,,,,,,,,,,,,,,,,,,,,,,,,,,,,,,,,,,,,,,,,,,,,,,,,,,,,
,,,,1,1.266,,,,,,91,microwave,rose,,89442,001,2022-04-28_23h12.46.165,SPAMnetsValid,2021.1.4,MacIntel,66.66666667,,,,,,,,,,,,,1,1.266,0,19,19,84,1,,,,,,,,,,,,,,,,,,,,,,,,,,,,,,,,,,,,,,,,,,,,,,,,,,,,,,,,,,,,,,,,,,,,,,
,,,,1,1.173,,,,,,8,broom,melon,,89442,001,2022-04-28_23h12.46.165,SPAMnetsValid,2021.1.4,MacIntel,66.66666667,,,,,,,,,,,,,1,1.173,0,20,20,59,1,,,,,,,,,,,,,,,,,,,,,,,,,,,,,,,,,,,,,,,,,,,,,,,,,,,,,,,,,,,,,,,,,,,,,,
,,,,8,2.431,,,,,,22,kitchen,strawberry,,89442,001,2022-04-28_23h12.46.165,SPAMnetsValid,2021.1.4,MacIntel,66.66666667,,,,,,,,,,,,,8,2.431,0,21,21,2,1,,,,,,,,,,,,,,,,,,,,,,,,,,,,,,,,,,,,,,,,,,,,,,,,,,,,,,,,,,,,,,,,,,,,,,
,,,,1,1.552,,,,,,58,garden,oven,,89442,001,2022-04-28_23h12.46.165,SPAMnetsValid,2021.1.4,MacIntel,66.66666667,,,,,,,,,,,,,1,1.552,0,22,22,37,1,,,,,,,,,,,,,,,,,,,,,,,,,,,,,,,,,,,,,,,,,,,,,,,,,,,,,,,,,,,,,,,,,,,,,,
,,,,1,1.614,,,,,,68,flower,tomato,,89442,001,2022-04-28_23h12.46.165,SPAMnetsValid,2021.1.4,MacIntel,66.66666667,,,,,,,,,,,,,1,1.614,0,23,23,94,1,,,,,,,,,,,,,,,,,,,,,,,,,,,,,,,,,,,,,,,,,,,,,,,,,,,,,,,,,,,,,,,,,,,,,,
,,,,1,1.188,,,,,,43,chocolate,tomato,,89442,001,2022-04-28_23h12.46.165,SPAMnetsValid,2021.1.4,MacIntel,66.66666667,,,,,,,,,,,,,1,1.188,0,24,24,8,1,,,,,,,,,,,,,,,,,,,,,,,,,,,,,,,,,,,,,,,,,,,,,,,,,,,,,,,,,,,,,,,,,,,,,,
,,,,9,4.713,,,,,,30,cookie,pretzel,,89442,001,2022-04-28_23h12.46.165,SPAMnetsValid,2021.1.4,MacIntel,66.66666667,,,,,,,,,,,,,9,4.713,0,25,25,78,1,,,,,,,,,,,,,,,,,,,,,,,,,,,,,,,,,,,,,,,,,,,,,,,,,,,,,,,,,,,,,,,,,,,,,,
,,,,5,3.74,,,,,,12,cookie,yogurt,,89442,001,2022-04-28_23h12.46.165,SPAMnetsValid,2021.1.4,MacIntel,66.66666667,,,,,,,,,,,,,5,3.74,0,26,26,36,1,,,,,,,,,,,,,,,,,,,,,,,,,,,,,,,,,,,,,,,,,,,,,,,,,,,,,,,,,,,,,,,,,,,,,,
,,,,1,1.67,,,,,,78,cookie,rose,,89442,001,2022-04-28_23h12.46.165,SPAMnetsValid,2021.1.4,MacIntel,66.66666667,,,,,,,,,,,,,1,1.67,0,27,27,56,1,,,,,,,,,,,,,,,,,,,,,,,,,,,,,,,,,,,,,,,,,,,,,,,,,,,,,,,,,,,,,,,,,,,,,,
,,,,1,1.481,,,,,,56,cactus,tree,,89442,001,2022-04-28_23h12.46.165,SPAMnetsValid,2021.1.4,MacIntel,66.66666667,,,,,,,,,,,,,1,1.481,0,28,28,21,1,,,,,,,,,,,,,,,,,,,,,,,,,,,,,,,,,,,,,,,,,,,,,,,,,,,,,,,,,,,,,,,,,,,,,,
,,,,6,3.53,,,,,,69,carrot,refrigerator,,89442,001,2022-04-28_23h12.46.165,SPAMnetsValid,2021.1.4,MacIntel,66.66666667,,,,,,,,,,,,,6,3.53,0,29,29,75,1,,,,,,,,,,,,,,,,,,,,,,,,,,,,,,,,,,,,,,,,,,,,,,,,,,,,,,,,,,,,,,,,,,,,,,
,,,,9,1.569,,,,,,192,microwave,microwave,CHECK,89442,001,2022-04-28_23h12.46.165,SPAMnetsValid,2021.1.4,MacIntel,66.66666667,,,,,,,,,,,,,9,1.569,0,30,30,53,1,,,,,,,,,,,,,,,,,,,,,,,,,,,,,,,,,,,,,,,,,,,,,,,,,,,,,,,,,,,,,,,,,,,,,,
,,,,1,2.362,,,,,,53,garden,pretzel,,89442,001,2022-04-28_23h12.46.165,SPAMnetsValid,2021.1.4,MacIntel,66.66666667,,,,,,,,,,,,,1,2.362,0,31,31,0,1,,,,,,,,,,,,,,,,,,,,,,,,,,,,,,,,,,,,,,,,,,,,,,,,,,,,,,,,,,,,,,,,,,,,,,
,,,,1,2.97,,,,,,40,broom,cake,,89442,001,2022-04-28_23h12.46.165,SPAMnetsValid,2021.1.4,MacIntel,66.66666667,,,,,,,,,,,,,1,2.97,0,32,32,32,1,,,,,,,,,,,,,,,,,,,,,,,,,,,,,,,,,,,,,,,,,,,,,,,,,,,,,,,,,,,,,,,,,,,,,,
,,,,1,1.351,,,,,,60,cactus,onion,,89442,001,2022-04-28_23h12.46.165,SPAMnetsValid,2021.1.4,MacIntel,66.66666667,,,,,,,,,,,,,1,1.351,0,33,33,81,1,,,,,,,,,,,,,,,,,,,,,,,,,,,,,,,,,,,,,,,,,,,,,,,,,,,,,,,,,,,,,,,,,,,,,,
,,,,1,1.632,,,,,,33,oven,yogurt,,89442,001,2022-04-28_23h12.46.165,SPAMnetsValid,2021.1.4,MacIntel,66.66666667,,,,,,,,,,,,,1,1.632,0,34,34,31,1,,,,,,,,,,,,,,,,,,,,,,,,,,,,,,,,,,,,,,,,,,,,,,,,,,,,,,,,,,,,,,,,,,,,,,
,,,,6,4.87,,,,,,6,garden,onion,,89442,001,2022-04-28_23h12.46.165,SPAMnetsValid,2021.1.4,MacIntel,66.66666667,,,,,,,,,,,,,6,4.87,0,35,35,83,1,,,,,,,,,,,,,,,,,,,,,,,,,,,,,,,,,,,,,,,,,,,,,,,,,,,,,,,,,,,,,,,,,,,,,,
,,,,9,2.95,,,,,,54,chocolate,yogurt,,89442,001,2022-04-28_23h12.46.165,SPAMnetsValid,2021.1.4,MacIntel,66.66666667,,,,,,,,,,,,,9,2.95,0,36,36,67,1,,,,,,,,,,,,,,,,,,,,,,,,,,,,,,,,,,,,,,,,,,,,,,,,,,,,,,,,,,,,,,,,,,,,,,
,,,,9,1.489,,,,,,4,chocolate,pretzel,,89442,001,2022-04-28_23h12.46.165,SPAMnetsValid,2021.1.4,MacIntel,66.66666667,,,,,,,,,,,,,9,1.489,0,37,37,52,1,,,,,,,,,,,,,,,,,,,,,,,,,,,,,,,,,,,,,,,,,,,,,,,,,,,,,,,,,,,,,,,,,,,,,,
,,,,1,2.787,,,,,,7,melon,tree,,89442,001,2022-04-28_23h12.46.165,SPAMnetsValid,2021.1.4,MacIntel,66.66666667,,,,,,,,,,,,,1,2.787,0,38,38,77,1,,,,,,,,,,,,,,,,,,,,,,,,,,,,,,,,,,,,,,,,,,,,,,,,,,,,,,,,,,,,,,,,,,,,,,
,,,,5,8.268,,,,,,36,broom,kitchen,,89442,001,2022-04-28_23h12.46.165,SPAMnetsValid,2021.1.4,MacIntel,66.66666667,,,,,,,,,,,,,5,8.268,0,39,39,76,1,,,,,,,,,,,,,,,,,,,,,,,,,,,,,,,,,,,,,,,,,,,,,,,,,,,,,,,,,,,,,,,,,,,,,,
,,,,7,2.467,,,,,,18,onion,refrigerator,,89442,001,2022-04-28_23h12.46.165,SPAMnetsValid,2021.1.4,MacIntel,66.66666667,,,,,,,,,,,,,7,2.467,0,40,40,62,1,,,,,,,,,,,,,,,,,,,,,,,,,,,,,,,,,,,,,,,,,,,,,,,,,,,,,,,,,,,,,,,,,,,,,,
,,,,1,1.719,,,,,,16,chocolate,flower,,89442,001,2022-04-28_23h12.46.165,SPAMnetsValid,2021.1.4,MacIntel,66.66666667,,,,,,,,,,,,,1,1.719,0,41,41,22,1,,,,,,,,,,,,,,,,,,,,,,,,,,,,,,,,,,,,,,,,,,,,,,,,,,,,,,,,,,,,,,,,,,,,,,
,,,,1,2.019,,,,,,46,garden,yogurt,,89442,001,2022-04-28_23h12.46.165,SPAMnetsValid,2021.1.4,MacIntel,66.66666667,,,,,,,,,,,,,1,2.019,0,42,42,65,1,,,,,,,,,,,,,,,,,,,,,,,,,,,,,,,,,,,,,,,,,,,,,,,,,,,,,,,,,,,,,,,,,,,,,,
,,,,1,1.765,,,,,,28,cake,melon,,89442,001,2022-04-28_23h12.46.165,SPAMnetsValid,2021.1.4,MacIntel,66.66666667,,,,,,,,,,,,,1,1.765,0,43,43,54,1,,,,,,,,,,,,,,,,,,,,,,,,,,,,,,,,,,,,,,,,,,,,,,,,,,,,,,,,,,,,,,,,,,,,,,
,,,,1,4.286,,,,,,65,broom,garden,,89442,001,2022-04-28_23h12.46.165,SPAMnetsValid,2021.1.4,MacIntel,66.66666667,,,,,,,,,,,,,1,4.286,0,44,44,23,1,,,,,,,,,,,,,,,,,,,,,,,,,,,,,,,,,,,,,,,,,,,,,,,,,,,,,,,,,,,,,,,,,,,,,,
,,,,1,1.418,,,,,,64,chocolate,garden,,89442,001,2022-04-28_23h12.46.165,SPAMnetsValid,2021.1.4,MacIntel,66.66666667,,,,,,,,,,,,,1,1.418,0,45,45,14,1,,,,,,,,,,,,,,,,,,,,,,,,,,,,,,,,,,,,,,,,,,,,,,,,,,,,,,,,,,,,,,,,,,,,,,
,,,,8,1.673,,,,,,2,kitchen,onion,,89442,001,2022-04-28_23h12.46.165,SPAMnetsValid,2021.1.4,MacIntel,66.66666667,,,,,,,,,,,,,8,1.673,0,46,46,91,1,,,,,,,,,,,,,,,,,,,,,,,,,,,,,,,,,,,,,,,,,,,,,,,,,,,,,,,,,,,,,,,,,,,,,,
,,,,1,2.182,,,,,,95,broom,refrigerator,,89442,001,2022-04-28_23h12.46.165,SPAMnetsValid,2021.1.4,MacIntel,66.66666667,,,,,,,,,,,,,1,2.182,0,47,47,90,1,,,,,,,,,,,,,,,,,,,,,,,,,,,,,,,,,,,,,,,,,,,,,,,,,,,,,,,,,,,,,,,,,,,,,,
,,,,1,2.221,,,,,,62,kitchen,rose,,89442,001,2022-04-28_23h12.46.165,SPAMnetsValid,2021.1.4,MacIntel,66.66666667,,,,,,,,,,,,,1,2.221,0,48,48,57,1,,,,,,,,,,,,,,,,,,,,,,,,,,,,,,,,,,,,,,,,,,,,,,,,,,,,,,,,,,,,,,,,,,,,,,
,,,,1,1.528,,,,,,57,flower,kitchen,,89442,001,2022-04-28_23h12.46.165,SPAMnetsValid,2021.1.4,MacIntel,66.66666667,,,,,,,,,,,,,1,1.528,0,49,49,49,1,,,,,,,,,,,,,,,,,,,,,,,,,,,,,,,,,,,,,,,,,,,,,,,,,,,,,,,,,,,,,,,,,,,,,,
,,,,1,2.186,,,,,,41,broom,cactus,,89442,001,2022-04-28_23h12.46.165,SPAMnetsValid,2021.1.4,MacIntel,66.66666667,,,,,,,,,,,,,1,2.186,0,50,50,46,1,,,,,,,,,,,,,,,,,,,,,,,,,,,,,,,,,,,,,,,,,,,,,,,,,,,,,,,,,,,,,,,,,,,,,,
,,,,7,5.153,,,,,,25,carrot,onion,,89442,001,2022-04-28_23h12.46.165,SPAMnetsValid,2021.1.4,MacIntel,66.66666667,,,,,,,,,,,,,7,5.153,0,51,51,44,1,,,,,,,,,,,,,,,,,,,,,,,,,,,,,,,,,,,,,,,,,,,,,,,,,,,,,,,,,,,,,,,,,,,,,,
,,,,1,1.669,,,,,,55,tomato,tree,,89442,001,2022-04-28_23h12.46.165,SPAMnetsValid,2021.1.4,MacIntel,66.66666667,,,,,,,,,,,,,1,1.669,0,52,52,35,1,,,,,,,,,,,,,,,,,,,,,,,,,,,,,,,,,,,,,,,,,,,,,,,,,,,,,,,,,,,,,,,,,,,,,,
,,,,1,1.661,,,,,,42,garden,kitchen,,89442,001,2022-04-28_23h12.46.165,SPAMnetsValid,2021.1.4,MacIntel,66.66666667,,,,,,,,,,,,,1,1.661,0,53,53,29,1,,,,,,,,,,,,,,,,,,,,,,,,,,,,,,,,,,,,,,,,,,,,,,,,,,,,,,,,,,,,,,,,,,,,,,
,,,,1,1.534,,,,,,21,cake,onion,,89442,001,2022-04-28_23h12.46.165,SPAMnetsValid,2021.1.4,MacIntel,66.66666667,,,,,,,,,,,,,1,1.534,0,54,54,63,1,,,,,,,,,,,,,,,,,,,,,,,,,,,,,,,,,,,,,,,,,,,,,,,,,,,,,,,,,,,,,,,,,,,,,,
,,,,1,1.823,,,,,,44,cookie,melon,,89442,001,2022-04-28_23h12.46.165,SPAMnetsValid,2021.1.4,MacIntel,66.66666667,,,,,,,,,,,,,1,1.823,0,55,55,92,1,,,,,,,,,,,,,,,,,,,,,,,,,,,,,,,,,,,,,,,,,,,,,,,,,,,,,,,,,,,,,,,,,,,,,,
,,,,1,2.352,,,,,,32,cake,microwave,,89442,001,2022-04-28_23h12.46.165,SPAMnetsValid,2021.1.4,MacIntel,66.66666667,,,,,,,,,,,,,1,2.352,0,56,56,33,1,,,,,,,,,,,,,,,,,,,,,,,,,,,,,,,,,,,,,,,,,,,,,,,,,,,,,,,,,,,,,,,,,,,,,,
,,,,9,1.665,,,,,,191,cake,cake,CHECK,89442,001,2022-04-28_23h12.46.165,SPAMnetsValid,2021.1.4,MacIntel,66.66666667,,,,,,,,,,,,,9,1.665,0,57,57,10,1,,,,,,,,,,,,,,,,,,,,,,,,,,,,,,,,,,,,,,,,,,,,,,,,,,,,,,,,,,,,,,,,,,,,,,
,,,,1,1.619,,,,,,51,onion,strawberry,,89442,001,2022-04-28_23h12.46.165,SPAMnetsValid,2021.1.4,MacIntel,66.66666667,,,,,,,,,,,,,1,1.619,0,58,58,86,1,,,,,,,,,,,,,,,,,,,,,,,,,,,,,,,,,,,,,,,,,,,,,,,,,,,,,,,,,,,,,,,,,,,,,,
,,,,1,1.328,,,,,,23,flower,microwave,,89442,001,2022-04-28_23h12.46.165,SPAMnetsValid,2021.1.4,MacIntel,66.66666667,,,,,,,,,,,,,1,1.328,0,59,59,25,1,,,,,,,,,,,,,,,,,,,,,,,,,,,,,,,,,,,,,,,,,,,,,,,,,,,,,,,,,,,,,,,,,,,,,,
,,,,1,2.323,,,,,,67,flower,yogurt,,89442,001,2022-04-28_23h12.46.165,SPAMnetsValid,2021.1.4,MacIntel,66.66666667,,,,,,,,,,,,,1,2.323,0,60,60,12,1,,,,,,,,,,,,,,,,,,,,,,,,,,,,,,,,,,,,,,,,,,,,,,,,,,,,,,,,,,,,,,,,,,,,,,
,,,,5,2.224,,,,,,20,rose,tree,,89442,001,2022-04-28_23h12.46.165,SPAMnetsValid,2021.1.4,MacIntel,66.66666667,,,,,,,,,,,,,5,2.224,0,61,61,66,1,,,,,,,,,,,,,,,,,,,,,,,,,,,,,,,,,,,,,,,,,,,,,,,,,,,,,,,,,,,,,,,,,,,,,,
,,,,1,2.083,,,,,,83,broom,carrot,,89442,001,2022-04-28_23h12.46.165,SPAMnetsValid,2021.1.4,MacIntel,66.66666667,,,,,,,,,,,,,1,2.083,0,62,62,4,1,,,,,,,,,,,,,,,,,,,,,,,,,,,,,,,,,,,,,,,,,,,,,,,,,,,,,,,,,,,,,,,,,,,,,,
,,,,9,2.038,,,,,,76,garden,rose,,89442,001,2022-04-28_23h12.46.165,SPAMnetsValid,2021.1.4,MacIntel,66.66666667,,,,,,,,,,,,,9,2.038,0,63,63,19,1,,,,,,,,,,,,,,,,,,,,,,,,,,,,,,,,,,,,,,,,,,,,,,,,,,,,,,,,,,,,,,,,,,,,,,
,,,,1,1.935,,,,,,24,cookie,tomato,,89442,001,2022-04-28_23h12.46.165,SPAMnetsValid,2021.1.4,MacIntel,66.66666667,,,,,,,,,,,,,1,1.935,0,64,64,68,1,,,,,,,,,,,,,,,,,,,,,,,,,,,,,,,,,,,,,,,,,,,,,,,,,,,,,,,,,,,,,,,,,,,,,,
,,,,1,1.638,,,,,,10,flower,onion,,89442,001,2022-04-28_23h12.46.165,SPAMnetsValid,2021.1.4,MacIntel,66.66666667,,,,,,,,,,,,,1,1.638,0,65,65,45,1,,,,,,,,,,,,,,,,,,,,,,,,,,,,,,,,,,,,,,,,,,,,,,,,,,,,,,,,,,,,,,,,,,,,,,
,,,,1,5.138,,,,,,27,cactus,cookie,,89442,001,2022-04-28_23h12.46.165,SPAMnetsValid,2021.1.4,MacIntel,66.66666667,,,,,,,,,,,,,1,5.138,0,66,66,17,1,,,,,,,,,,,,,,,,,,,,,,,,,,,,,,,,,,,,,,,,,,,,,,,,,,,,,,,,,,,,,,,,,,,,,,
,,,,1,37.357,,,,,,11,refrigerator,tree,,89442,001,2022-04-28_23h12.46.165,SPAMnetsValid,2021.1.4,MacIntel,66.66666667,,,,,,,,,,,,,1,37.357,0,67,67,43,1,,,,,,,,,,,,,,,,,,,,,,,,,,,,,,,,,,,,,,,,,,,,,,,,,,,,,,,,,,,,,,,,,,,,,,
,,,,1,1.054,,,,,,13,broom,yogurt,,89442,001,2022-04-28_23h12.46.165,SPAMnetsValid,2021.1.4,MacIntel,66.66666667,,,,,,,,,,,,,1,1.054,0,68,68,5,1,,,,,,,,,,,,,,,,,,,,,,,,,,,,,,,,,,,,,,,,,,,,,,,,,,,,,,,,,,,,,,,,,,,,,,
,,,,9,1.733,,,,,,9,kitchen,refrigerator,,89442,001,2022-04-28_23h12.46.165,SPAMnetsValid,2021.1.4,MacIntel,66.66666667,,,,,,,,,,,,,9,1.733,0,69,69,64,1,,,,,,,,,,,,,,,,,,,,,,,,,,,,,,,,,,,,,,,,,,,,,,,,,,,,,,,,,,,,,,,,,,,,,,
,,,,7,2.299,,,,,,19,microwave,pretzel,,89442,001,2022-04-28_23h12.46.165,SPAMnetsValid,2021.1.4,MacIntel,66.66666667,,,,,,,,,,,,,7,2.299,0,70,70,41,1,,,,,,,,,,,,,,,,,,,,,,,,,,,,,,,,,,,,,,,,,,,,,,,,,,,,,,,,,,,,,,,,,,,,,,
,,,,1,1.416,,,,,,1,rose,yogurt,,89442,001,2022-04-28_23h12.46.165,SPAMnetsValid,2021.1.4,MacIntel,66.66666667,,,,,,,,,,,,,1,1.416,0,71,71,55,1,,,,,,,,,,,,,,,,,,,,,,,,,,,,,,,,,,,,,,,,,,,,,,,,,,,,,,,,,,,,,,,,,,,,,,
,,,,1,1.174,,,,,,48,flower,oven,,89442,001,2022-04-28_23h12.46.165,SPAMnetsValid,2021.1.4,MacIntel,66.66666667,,,,,,,,,,,,,1,1.174,0,72,72,15,1,,,,,,,,,,,,,,,,,,,,,,,,,,,,,,,,,,,,,,,,,,,,,,,,,,,,,,,,,,,,,,,,,,,,,,
,,,,1,1.475,,,,,,35,flower,pretzel,,89442,001,2022-04-28_23h12.46.165,SPAMnetsValid,2021.1.4,MacIntel,66.66666667,,,,,,,,,,,,,1,1.475,0,73,73,26,1,,,,,,,,,,,,,,,,,,,,,,,,,,,,,,,,,,,,,,,,,,,,,,,,,,,,,,,,,,,,,,,,,,,,,,
,,,,1,0.989,,,,,,71,broom,rose,,89442,001,2022-04-28_23h12.46.165,SPAMnetsValid,2021.1.4,MacIntel,66.66666667,,,,,,,,,,,,,1,0.989,0,74,74,61,1,,,,,,,,,,,,,,,,,,,,,,,,,,,,,,,,,,,,,,,,,,,,,,,,,,,,,,,,,,,,,,,,,,,,,,
,,,,7,2.584,,,,,,77,refrigerator,yogurt,,89442,001,2022-04-28_23h12.46.165,SPAMnetsValid,2021.1.4,MacIntel,66.66666667,,,,,,,,,,,,,7,2.584,0,75,75,42,1,,,,,,,,,,,,,,,,,,,,,,,,,,,,,,,,,,,,,,,,,,,,,,,,,,,,,,,,,,,,,,,,,,,,,,
,,,,1,1.808,,,,,,81,pretzel,yogurt,,89442,001,2022-04-28_23h12.46.165,SPAMnetsValid,2021.1.4,MacIntel,66.66666667,,,,,,,,,,,,,1,1.808,0,76,76,50,1,,,,,,,,,,,,,,,,,,,,,,,,,,,,,,,,,,,,,,,,,,,,,,,,,,,,,,,,,,,,,,,,,,,,,,
,,,,1,0.975,,,,,,26,tomato,yogurt,,89442,001,2022-04-28_23h12.46.165,SPAMnetsValid,2021.1.4,MacIntel,66.66666667,,,,,,,,,,,,,1,0.975,0,77,77,13,1,,,,,,,,,,,,,,,,,,,,,,,,,,,,,,,,,,,,,,,,,,,,,,,,,,,,,,,,,,,,,,,,,,,,,,
,,,,1,0.908,,,,,,92,broom,flower,,89442,001,2022-04-28_23h12.46.165,SPAMnetsValid,2021.1.4,MacIntel,66.66666667,,,,,,,,,,,,,1,0.908,0,78,78,88,1,,,,,,,,,,,,,,,,,,,,,,,,,,,,,,,,,,,,,,,,,,,,,,,,,,,,,,,,,,,,,,,,,,,,,,
,,,,1,0.936,,,,,,70,chocolate,onion,,89442,001,2022-04-28_23h12.46.165,SPAMnetsValid,2021.1.4,MacIntel,66.66666667,,,,,,,,,,,,,1,0.936,0,79,79,74,1,,,,,,,,,,,,,,,,,,,,,,,,,,,,,,,,,,,,,,,,,,,,,,,,,,,,,,,,,,,,,,,,,,,,,,
,,,,2,4.25,,,,,,38,pretzel,refrigerator,,89442,001,2022-04-28_23h12.46.165,SPAMnetsValid,2021.1.4,MacIntel,66.66666667,,,,,,,,,,,,,2,4.25,0,80,80,71,1,,,,,,,,,,,,,,,,,,,,,,,,,,,,,,,,,,,,,,,,,,,,,,,,,,,,,,,,,,,,,,,,,,,,,,
,,,,1,1.204,,,,,,31,cactus,pretzel,,89442,001,2022-04-28_23h12.46.165,SPAMnetsValid,2021.1.4,MacIntel,66.66666667,,,,,,,,,,,,,1,1.204,0,81,81,1,1,,,,,,,,,,,,,,,,,,,,,,,,,,,,,,,,,,,,,,,,,,,,,,,,,,,,,,,,,,,,,,,,,,,,,,
,,,,1,0.801,,,,,,74,broom,pretzel,,89442,001,2022-04-28_23h12.46.165,SPAMnetsValid,2021.1.4,MacIntel,66.66666667,,,,,,,,,,,,,1,0.801,0,82,82,40,1,,,,,,,,,,,,,,,,,,,,,,,,,,,,,,,,,,,,,,,,,,,,,,,,,,,,,,,,,,,,,,,,,,,,,,
,,,,5,3.04,,,,,,63,cake,cookie,,89442,001,2022-04-28_23h12.46.165,SPAMnetsValid,2021.1.4,MacIntel,66.66666667,,,,,,,,,,,,,5,3.04,0,83,83,93,1,,,,,,,,,,,,,,,,,,,,,,,,,,,,,,,,,,,,,,,,,,,,,,,,,,,,,,,,,,,,,,,,,,,,,,
,,,,1,1.674,,,,,,85,cake,tree,,89442,001,2022-04-28_23h12.46.165,SPAMnetsValid,2021.1.4,MacIntel,66.66666667,,,,,,,,,,,,,1,1.674,0,84,84,18,1,,,,,,,,,,,,,,,,,,,,,,,,,,,,,,,,,,,,,,,,,,,,,,,,,,,,,,,,,,,,,,,,,,,,,,
,,,,1,4.107,,,,,,61,strawberry,tomato,,89442,001,2022-04-28_23h12.46.165,SPAMnetsValid,2021.1.4,MacIntel,66.66666667,,,,,,,,,,,,,1,4.107,0,85,85,80,1,,,,,,,,,,,,,,,,,,,,,,,,,,,,,,,,,,,,,,,,,,,,,,,,,,,,,,,,,,,,,,,,,,,,,,
,,,,1,3.474,,,,,,89,chocolate,rose,,89442,001,2022-04-28_23h12.46.165,SPAMnetsValid,2021.1.4,MacIntel,66.66666667,,,,,,,,,,,,,1,3.474,0,86,86,60,1,,,,,,,,,,,,,,,,,,,,,,,,,,,,,,,,,,,,,,,,,,,,,,,,,,,,,,,,,,,,,,,,,,,,,,
,,,,7,4.79,,,,,,3,cake,oven,,89442,001,2022-04-28_23h12.46.165,SPAMnetsValid,2021.1.4,MacIntel,66.66666667,,,,,,,,,,,,,7,4.79,0,87,87,30,1,,,,,,,,,,,,,,,,,,,,,,,,,,,,,,,,,,,,,,,,,,,,,,,,,,,,,,,,,,,,,,,,,,,,,,
,,,,1,1.336,,,,,,5,oven,tree,,89442,001,2022-04-28_23h12.46.165,SPAMnetsValid,2021.1.4,MacIntel,66.66666667,,,,,,,,,,,,,1,1.336,0,88,88,70,1,,,,,,,,,,,,,,,,,,,,,,,,,,,,,,,,,,,,,,,,,,,,,,,,,,,,,,,,,,,,,,,,,,,,,,
,,,,1,1.45,,,,,,29,chocolate,melon,,89442,001,2022-04-28_23h12.46.165,SPAMnetsValid,2021.1.4,MacIntel,66.66666667,,,,,,,,,,,,,1,1.45,0,89,89,34,1,,,,,,,,,,,,,,,,,,,,,,,,,,,,,,,,,,,,,,,,,,,,,,,,,,,,,,,,,,,,,,,,,,,,,,
,,,,1,1.444,,,,,,59,rose,strawberry,,89442,001,2022-04-28_23h12.46.165,SPAMnetsValid,2021.1.4,MacIntel,66.66666667,,,,,,,,,,,,,1,1.444,0,90,90,72,1,,,,,,,,,,,,,,,,,,,,,,,,,,,,,,,,,,,,,,,,,,,,,,,,,,,,,,,,,,,,,,,,,,,,,,
,,,,9,1.858,,,,,,93,kitchen,oven,,89442,001,2022-04-28_23h12.46.165,SPAMnetsValid,2021.1.4,MacIntel,66.66666667,,,,,,,,,,,,,9,1.858,0,91,91,82,1,,,,,,,,,,,,,,,,,,,,,,,,,,,,,,,,,,,,,,,,,,,,,,,,,,,,,,,,,,,,,,,,,,,,,,
,,,,1,1.491,,,,,,88,cactus,melon,,89442,001,2022-04-28_23h12.46.165,SPAMnetsValid,2021.1.4,MacIntel,66.66666667,,,,,,,,,,,,,1,1.491,0,92,92,38,1,,,,,,,,,,,,,,,,,,,,,,,,,,,,,,,,,,,,,,,,,,,,,,,,,,,,,,,,,,,,,,,,,,,,,,
,,,,1,2.169,,,,,,80,chocolate,tree,,89442,001,2022-04-28_23h12.46.165,SPAMnetsValid,2021.1.4,MacIntel,66.66666667,,,,,,,,,,,,,1,2.169,0,93,93,89,1,,,,,,,,,,,,,,,,,,,,,,,,,,,,,,,,,,,,,,,,,,,,,,,,,,,,,,,,,,,,,,,,,,,,,,
,,,,1,1.168,,,,,,87,carrot,yogurt,,89442,001,2022-04-28_23h12.46.165,SPAMnetsValid,2021.1.4,MacIntel,66.66666667,,,,,,,,,,,,,1,1.168,0,94,94,6,1,,,,,,,,,,,,,,,,,,,,,,,,,,,,,,,,,,,,,,,,,,,,,,,,,,,,,,,,,,,,,,,,,,,,,,
,,,,1,1.468,,,,,,14,broom,cookie,,89442,001,2022-04-28_23h12.46.165,SPAMnetsValid,2021.1.4,MacIntel,66.66666667,,,,,,,,,,,,,1,1.468,0,95,95,16,1,,,,,,,,,,,,,,,,,,,,,,,,,,,,,,,,,,,,,,,,,,,,,,,,,,,,,,,,,,,,,,,,,,,,,,
,,,,1,3.457,,,,,,72,broom,onion,,89442,001,2022-04-28_23h12.46.165,SPAMnetsValid,2021.1.4,MacIntel,66.66666667,,,,,,,,,,,,,1,3.457,0,96,96,27,1,,,,,,,,,,,,,,,,,,,,,,,,,,,,,,,,,,,,,,,,,,,,,,,,,,,,,,,,,,,,,,,,,,,,,,
,,,,,,,,,,,,,,,89442,001,2022-04-28_23h12.46.165,SPAMnetsValid,2021.1.4,MacIntel,66.66666667,,,,,,,,,,,,,,,,,,,,0,0,0,0,1,,,,,,,,,,,,,,,,,,,,,,,,,,,,,,,,,,,,,,,,,,,,,,,,,,,,,,,,,,,,,,,,,
,,,,,,,,,,,,,,,89442,001,2022-04-28_23h12.46.165,SPAMnetsValid,2021.1.4,MacIntel,66.66666667,,,,,,0,1,1,0,1,1,0,,,,,,,,,,,,,,,,,,,,,,,,,,,,,,,,,,,,,,,,,,,,,,,,,,,,,,,,,,,,,,,,,,,,,,,,,,,,,
,,,,,,,,,,,,,,,89442,001,2022-04-28_23h12.46.165,SPAMnetsValid,2021.1.4,MacIntel,66.66666667,,,,,,,,,,,,,,,,,,,,,,,,,3,24.31,0,0,0,0,1,rancor,forbearance,ridicule,malice,bravery,3,,,,,,,,,,,,,,,,,,,,,,,,,,,,,,,,,,,,,,,,,,,,,,,,,,,,
,,,,,,,,,,,,,,,89442,001,2022-04-28_23h12.46.165,SPAMnetsValid,2021.1.4,MacIntel,66.66666667,,,,,,,,,,,,,,,,,,,,,,,,,4,22.736,0,1,1,1,1,raucous,empty,quiet,smooth,harsh,4,,,,,,,,,,,,,,,,,,,,,,,,,,,,,,,,,,,,,,,,,,,,,,,,,,,,
,,,,,,,,,,,,,,,89442,001,2022-04-28_23h12.46.165,SPAMnetsValid,2021.1.4,MacIntel,66.66666667,,,,,,,,,,,,,,,,,,,,,,,,,4,5.713,0,2,2,2,1,gargoyle,oil,medicine,carved waterspout,ugly building,3,,,,,,,,,,,,,,,,,,,,,,,,,,,,,,,,,,,,,,,,,,,,,,,,,,,,
,,,,,,,,,,,,,,,89442,001,2022-04-28_23h12.46.165,SPAMnetsValid,2021.1.4,MacIntel,66.66666667,,,,,,,,,,,,,,,,,,,,,,,,,3,30.383,0,3,3,3,1,recrudesce,purify,renew activity,lack refinement,crush,2,,,,,,,,,,,,,,,,,,,,,,,,,,,,,,,,,,,,,,,,,,,,,,,,,,,,
,,,,,,,,,,,,,,,89442,001,2022-04-28_23h12.46.165,SPAMnetsValid,2021.1.4,MacIntel,66.66666667,,,,,,,,,,,,,,,,,,,,,,,,,1,12.718,0,4,4,4,1,specious,"plausible, but not genuine",noteworthy,class or variety,roomy,1,,,,,,,,,,,,,,,,,,,,,,,,,,,,,,,,,,,,,,,,,,,,,,,,,,,,
,,,,,,,,,,,,,,,89442,001,2022-04-28_23h12.46.165,SPAMnetsValid,2021.1.4,MacIntel,66.66666667,,,,,,,,,,,,,,,,,,,,,,,,,3,3.174,0,5,5,5,1,bauble,bubble,showy plaything,idle talk,confusion,2,,,,,,,,,,,,,,,,,,,,,,,,,,,,,,,,,,,,,,,,,,,,,,,,,,,,
,,,,,,,,,,,,,,,89442,001,2022-04-28_23h12.46.165,SPAMnetsValid,2021.1.4,MacIntel,66.66666667,,,,,,,,,,,,,,,,,,,,,,,,,2,25.913,0,6,6,6,1,prolific,scarce,producing abundantly,reckless,speaking profanely,2,,,,,,,,,,,,,,,,,,,,,,,,,,,,,,,,,,,,,,,,,,,,,,,,,,,,
,,,,,,,,,,,,,,,89442,001,2022-04-28_23h12.46.165,SPAMnetsValid,2021.1.4,MacIntel,66.66666667,,,,,,,,,,,,,,,,,,,,,,,,,2,9.662,0,7,7,7,1,opulent,party,wealthy,happy frame of mind,semiprecious stone,2,,,,,,,,,,,,,,,,,,,,,,,,,,,,,,,,,,,,,,,,,,,,,,,,,,,,
,,,,,,,,,,,,,,,89442,001,2022-04-28_23h12.46.165,SPAMnetsValid,2021.1.4,MacIntel,66.66666667,,,,,,,,,,,,,,,,,,,,,,,,,3,41.019,0,8,8,8,1,coercion,conspiracy,strategy,restraint,attraction,3,,,,,,,,,,,,,,,,,,,,,,,,,,,,,,,,,,,,,,,,,,,,,,,,,,,,
,,,,,,,,,,,,,,,89442,001,2022-04-28_23h12.46.165,SPAMnetsValid,2021.1.4,MacIntel,66.66666667,,,,,,,,,,,,,,,,,,,,,,,,,4,3.217,0,9,9,9,1,hiatus,animal,calamity,dread,gap,4,,,,,,,,,,,,,,,,,,,,,,,,,,,,,,,,,,,,,,,,,,,,,,,,,,,,
,,,,,,,,,,,,,,,89442,001,2022-04-28_23h12.46.165,SPAMnetsValid,2021.1.4,MacIntel,66.66666667,,,,,,,,,,,,,,,,,,,,,,,,,3,12.035,0,10,10,10,1,germane,microbe,contagious,relevant,different,3,,,,,,,,,,,,,,,,,,,,,,,,,,,,,,,,,,,,,,,,,,,,,,,,,,,,
,,,,,,,,,,,,,,,89442,001,2022-04-28_23h12.46.165,SPAMnetsValid,2021.1.4,MacIntel,66.66666667,,,,,,,,,,,,,,,,,,,,,,,,,3,41.924,0,11,11,11,1,perfunctory,fundamental,formal,superficial,careful,3,,,,,,,,,,,,,,,,,,,,,,,,,,,,,,,,,,,,,,,,,,,,,,,,,,,,
,,,,,,,,,,,,,,,89442,001,2022-04-28_23h12.46.165,SPAMnetsValid,2021.1.4,MacIntel,66.66666667,,,,,,,,,,,,,,,,,,,,,,,,,4,5.55,0,12,12,12,1,diverge,reveal,chant,distract the attention of,differ or turn off from,4,,,,,,,,,,,,,,,,,,,,,,,,,,,,,,,,,,,,,,,,,,,,,,,,,,,,
,,,,,,,,,,,,,,,89442,001,2022-04-28_23h12.46.165,SPAMnetsValid,2021.1.4,MacIntel,66.66666667,,,,,,,,,,,,,,,,,,,,,,,,,4,72.69,0,13,13,13,1,evoke,take away,anger,connect,bring out,4,,,,,,,,,,,,,,,,,,,,,,,,,,,,,,,,,,,,,,,,,,,,,,,,,,,,
,,,,,,,,,,,,,,,89442,001,2022-04-28_23h12.46.165,SPAMnetsValid,2021.1.4,MacIntel,66.66666667,,,,,,,,,,,,,,,,,,,,,,,,,1,15.432,0,14,14,14,1,pertinent,relevant,lying next to,necessary,bold,1,,,,,,,,,,,,,,,,,,,,,,,,,,,,,,,,,,,,,,,,,,,,,,,,,,,,
,,,,,,,,,,,,,,,89442,001,2022-04-28_23h12.46.165,SPAMnetsValid,2021.1.4,MacIntel,66.66666667,,,,,,,,,,,,,,,,,,,,,,,,,2,2.604,0,15,15,15,1,holocaust,entirety,destruction,saintly,price,2,,,,,,,,,,,,,,,,,,,,,,,,,,,,,,,,,,,,,,,,,,,,,,,,,,,,
,,,,,,,,,,,,,,,89442,001,2022-04-28_23h12.46.165,SPAMnetsValid,2021.1.4,MacIntel,66.66666667,,,,,,,,,,,,,,,,,,,,,,,,,3,13.188,0,16,16,16,1,piquant,mellow,fish,pungent,cloth,3,,,,,,,,,,,,,,,,,,,,,,,,,,,,,,,,,,,,,,,,,,,,,,,,,,,,
,,,,,,,,,,,,,,,89442,001,2022-04-28_23h12.46.165,SPAMnetsValid,2021.1.4,MacIntel,66.66666667,,,,,,,,,,,,,,,,,,,,,,,,,2,3.802,0,17,17,17,1,firmament,foundation,heavens,strong,glue,2,,,,,,,,,,,,,,,,,,,,,,,,,,,,,,,,,,,,,,,,,,,,,,,,,,,,
,,,,,,,,,,,,,,,89442,001,2022-04-28_23h12.46.165,SPAMnetsValid,2021.1.4,MacIntel,66.66666667,,,,,,,,,,,,,,,,,,,,,,,,,,,,,,,,,,,,,,4,7.114,0,0,0,0,1,marketable,partisan,jocular,marriageable,salable,essential,4,,,,,,,,,,,,,,,,,,,,,,,,,,,,,,,,,,,,,,
,,,,,,,,,,,,,,,89442,001,2022-04-28_23h12.46.165,SPAMnetsValid,2021.1.4,MacIntel,66.66666667,,,,,,,,,,,,,,,,,,,,,,,,,,,,,,,,,,,,,,5,13.65,0,1,1,1,1,cottontail,squirrel,poplar,boa,marshy plant,rabbit,5,,,,,,,,,,,,,,,,,,,,,,,,,,,,,,,,,,,,,,
,,,,,,,,,,,,,,,89442,001,2022-04-28_23h12.46.165,SPAMnetsValid,2021.1.4,MacIntel,66.66666667,,,,,,,,,,,,,,,,,,,,,,,,,,,,,,,,,,,,,,3,8.684,0,2,2,2,1,boggy,afraid,false,marshy,dense,black,3,,,,,,,,,,,,,,,,,,,,,,,,,,,,,,,,,,,,,,
,,,,,,,,,,,,,,,89442,001,2022-04-28_23h12.46.165,SPAMnetsValid,2021.1.4,MacIntel,66.66666667,,,,,,,,,,,,,,,,,,,,,,,,,,,,,,,,,,,,,,5,17.702,0,3,3,3,1,gruesomeness,blackness,falseness,vindictiveness,drunkenness,ghastliness,5,,,,,,,,,,,,,,,,,,,,,,,,,,,,,,,,,,,,,,
,,,,,,,,,,,,,,,89442,001,2022-04-28_23h12.46.165,SPAMnetsValid,2021.1.4,MacIntel,66.66666667,,,,,,,,,,,,,,,,,,,,,,,,,,,,,,,,,,,,,,3,2.915,0,4,4,4,1,loathing,diffidence,laziness,abhorrence,cleverness,comfort,3,,,,,,,,,,,,,,,,,,,,,,,,,,,,,,,,,,,,,,
,,,,,,,,,,,,,,,89442,001,2022-04-28_23h12.46.165,SPAMnetsValid,2021.1.4,MacIntel,66.66666667,,,,,,,,,,,,,,,,,,,,,,,,,,,,,,,,,,,,,,1,12.217,0,5,5,5,1,bantam,fowl,ridicule,cripple,vegetable,ensign,1,,,,,,,,,,,,,,,,,,,,,,,,,,,,,,,,,,,,,,
,,,,,,,,,,,,,,,89442,001,2022-04-28_23h12.46.165,SPAMnetsValid,2021.1.4,MacIntel,66.66666667,,,,,,,,,,,,,,,,,,,,,,,,,,,,,,,,,,,,,,5,3.103,0,6,6,6,1,evoke,wake up,surrender,reconnoiter,transcend,call forth,5,,,,,,,,,,,,,,,,,,,,,,,,,,,,,,,,,,,,,,
,,,,,,,,,,,,,,,89442,001,2022-04-28_23h12.46.165,SPAMnetsValid,2021.1.4,MacIntel,66.66666667,,,,,,,,,,,,,,,,,,,,,,,,,,,,,,,,,,,,,,4,5.283,0,7,7,7,1,unobtrusive,unintelligent,epileptic,illogical,lineal,modest,5,,,,,,,,,,,,,,,,,,,,,,,,,,,,,,,,,,,,,,
,,,,,,,,,,,,,,,89442,001,2022-04-28_23h12.46.165,SPAMnetsValid,2021.1.4,MacIntel,66.66666667,,,,,,,,,,,,,,,,,,,,,,,,,,,,,,,,,,,,,,4,3.035,0,8,8,8,1,terrain,ice cream,final test,tractor,area of ground,weight,4,,,,,,,,,,,,,,,,,,,,,,,,,,,,,,,,,,,,,,
,,,,,,,,,,,,,,,89442,001,2022-04-28_23h12.46.165,SPAMnetsValid,2021.1.4,MacIntel,66.66666667,,,,,,,,,,,,,,,,,,,,,,,,,,,,,,,,,,,,,,,,0,9,9,9,1,capriciousness,stubbornness,courage,whimsicality,amazement,greediness,3,,,,,,,,,,,,,,,,,,,,,,,,,,,,,,,,,,,,,,
,,,,,,,,,,,,,,,89442,001,2022-04-28_23h12.46.165,SPAMnetsValid,2021.1.4,MacIntel,66.66666667,,,,,,,,,,,,,,,,,,,,,,,,,,,,,,,,,,,,,,,,,,,,,,,,,,,,"make fire, make letter wax, make wine corks",candle,0,0,0,0,1,,,,,,,,,,,,,,,,,,,,,,,,,,,,,,,
,,,,,,,,,,,,,,,89442,001,2022-04-28_23h12.46.165,SPAMnetsValid,2021.1.4,MacIntel,66.66666667,,,,,,,,,,,,,,,,,,,,,,,,,,,,,,,,,,,,,,,,,,,,,,,,,,,,make letter wax,candle,1,0,1,0,1,,,,,,,,,,,,,,,,,,,,,,,,,,,,,,,
,,,,,,,,,,,,,,,89442,001,2022-04-28_23h12.46.165,SPAMnetsValid,2021.1.4,MacIntel,66.66666667,,,,,,,,,,,,,,,,,,,,,,,,,,,,,,,,,,,,,,,,,,,,,,,,,,,,,,,,,,,0,0,0,1,1,candle,,,,,,,,,,,,,,,,,,,,,,,,,
,,,,,,,,,,,,,,,89442,001,2022-04-28_23h12.46.165,SPAMnetsValid,2021.1.4,MacIntel,66.66666667,,,,,,,,,,,,,,,,,,,,,,,,,,,,,,,,,,,,,,,,,,,,,,,,,,,,use as throw pillows,pillow,0,0,0,0,1,,,,,,,,,,,,,,,,,,,,,,,,,,,,,,,
,,,,,,,,,,,,,,,89442,001,2022-04-28_23h12.46.165,SPAMnetsValid,2021.1.4,MacIntel,66.66666667,,,,,,,,,,,,,,,,,,,,,,,,,,,,,,,,,,,,,,,,,,,,,,,,,,,,turn to pet beds,pillow,1,0,1,0,1,,,,,,,,,,,,,,,,,,,,,,,,,,,,,,,
,,,,,,,,,,,,,,,89442,001,2022-04-28_23h12.46.165,SPAMnetsValid,2021.1.4,MacIntel,66.66666667,,,,,,,,,,,,,,,,,,,,,,,,,,,,,,,,,,,,,,,,,,,,,,,,,,,,make floor cushions,pillow,2,0,2,0,1,,,,,,,,,,,,,,,,,,,,,,,,,,,,,,,
,,,,,,,,,,,,,,,89442,001,2022-04-28_23h12.46.165,SPAMnetsValid,2021.1.4,MacIntel,66.66666667,,,,,,,,,,,,,,,,,,,,,,,,,,,,,,,,,,,,,,,,,,,,,,,,,,,,make rags,pillow,3,0,3,0,1,,,,,,,,,,,,,,,,,,,,,,,,,,,,,,,
,,,,,,,,,,,,,,,89442,001,2022-04-28_23h12.46.165,SPAMnetsValid,2021.1.4,MacIntel,66.66666667,,,,,,,,,,,,,,,,,,,,,,,,,,,,,,,,,,,,,,,,,,,,,,,,,,,,make new pillows,pillow,4,0,4,0,1,,,,,,,,,,,,,,,,,,,,,,,,,,,,,,,
,,,,,,,,,,,,,,,89442,001,2022-04-28_23h12.46.165,SPAMnetsValid,2021.1.4,MacIntel,66.66666667,,,,,,,,,,,,,,,,,,,,,,,,,,,,,,,,,,,,,,,,,,,,,,,,,,,,,,,,,,,0,1,1,2,1,pillow,,,,,,,,,,,,,,,,,,,,,,,,,
,,,,,,,,,,,,,,,89442,001,2022-04-28_23h12.46.165,SPAMnetsValid,2021.1.4,MacIntel,66.66666667,,,,,,,,,,,,,,,,,,,,,,,,,,,,,,,,,,,,,,,,,,,,,,,,,,,,use as pet feeding bucket,bucket,0,0,0,0,1,,,,,,,,,,,,,,,,,,,,,,,,,,,,,,,
,,,,,,,,,,,,,,,89442,001,2022-04-28_23h12.46.165,SPAMnetsValid,2021.1.4,MacIntel,66.66666667,,,,,,,,,,,,,,,,,,,,,,,,,,,,,,,,,,,,,,,,,,,,,,,,,,,,make a compost toilet,bucket,1,0,1,0,1,,,,,,,,,,,,,,,,,,,,,,,,,,,,,,,
,,,,,,,,,,,,,,,89442,001,2022-04-28_23h12.46.165,SPAMnetsValid,2021.1.4,MacIntel,66.66666667,,,,,,,,,,,,,,,,,,,,,,,,,,,,,,,,,,,,,,,,,,,,,,,,,,,,,,,,,,,0,2,2,0,1,bucket,,,,,,,,,,,,,,,,,,,,,,,,,
,,,,,,,,,,,,,,,89442,001,2022-04-28_23h12.46.165,SPAMnetsValid,2021.1.4,MacIntel,66.66666667,,,,,,,,,,,,,,,,,,,,,,,,,,,,,,,,,,,,,,,,,,,,,,,,,,,,,,,,,,,,,,,,,cat,Animals,0,0,0,0,1,,,,,,,,,,,,,,,,,,
,,,,,,,,,,,,,,,89442,001,2022-04-28_23h12.46.165,SPAMnetsValid,2021.1.4,MacIntel,66.66666667,,,,,,,,,,,,,,,,,,,,,,,,,,,,,,,,,,,,,,,,,,,,,,,,,,,,,,,,,,,,,,,,,dog,Animals,1,0,1,0,1,,,,,,,,,,,,,,,,,,
,,,,,,,,,,,,,,,89442,001,2022-04-28_23h12.46.165,SPAMnetsValid,2021.1.4,MacIntel,66.66666667,,,,,,,,,,,,,,,,,,,,,,,,,,,,,,,,,,,,,,,,,,,,,,,,,,,,,,,,,,,,,,,,,lion,Animals,2,0,2,0,1,,,,,,,,,,,,,,,,,,
,,,,,,,,,,,,,,,89442,001,2022-04-28_23h12.46.165,SPAMnetsValid,2021.1.4,MacIntel,66.66666667,,,,,,,,,,,,,,,,,,,,,,,,,,,,,,,,,,,,,,,,,,,,,,,,,,,,,,,,,,,,,,,,,antelope,Animals,3,0,3,0,1,,,,,,,,,,,,,,,,,,
,,,,,,,,,,,,,,,89442,001,2022-04-28_23h12.46.165,SPAMnetsValid,2021.1.4,MacIntel,66.66666667,,,,,,,,,,,,,,,,,,,,,,,,,,,,,,,,,,,,,,,,,,,,,,,,,,,,,,,,,,,,,,,,,deer,Animals,4,0,4,0,1,,,,,,,,,,,,,,,,,,
,,,,,,,,,,,,,,,89442,001,2022-04-28_23h12.46.165,SPAMnetsValid,2021.1.4,MacIntel,66.66666667,,,,,,,,,,,,,,,,,,,,,,,,,,,,,,,,,,,,,,,,,,,,,,,,,,,,,,,,,,,,,,,,,zebra,Animals,5,0,5,0,1,,,,,,,,,,,,,,,,,,
,,,,,,,,,,,,,,,89442,001,2022-04-28_23h12.46.165,SPAMnetsValid,2021.1.4,MacIntel,66.66666667,,,,,,,,,,,,,,,,,,,,,,,,,,,,,,,,,,,,,,,,,,,,,,,,,,,,,,,,,,,,,,,,,hippopotamus,Animals,6,0,6,0,1,,,,,,,,,,,,,,,,,,
,,,,,,,,,,,,,,,89442,001,2022-04-28_23h12.46.165,SPAMnetsValid,2021.1.4,MacIntel,66.66666667,,,,,,,,,,,,,,,,,,,,,,,,,,,,,,,,,,,,,,,,,,,,,,,,,,,,,,,,,,,,,,,,,giraffe,Animals,7,0,7,0,1,,,,,,,,,,,,,,,,,,
,,,,,,,,,,,,,,,89442,001,2022-04-28_23h12.46.165,SPAMnetsValid,2021.1.4,MacIntel,66.66666667,,,,,,,,,,,,,,,,,,,,,,,,,,,,,,,,,,,,,,,,,,,,,,,,,,,,,,,,,,,,,,,,,camel,Animals,8,0,8,0,1,,,,,,,,,,,,,,,,,,
,,,,,,,,,,,,,,,89442,001,2022-04-28_23h12.46.165,SPAMnetsValid,2021.1.4,MacIntel,66.66666667,,,,,,,,,,,,,,,,,,,,,,,,,,,,,,,,,,,,,,,,,,,,,,,,,,,,,,,,,,,,,,,,,fish,Animals,9,0,9,0,1,,,,,,,,,,,,,,,,,,
,,,,,,,,,,,,,,,89442,001,2022-04-28_23h12.46.165,SPAMnetsValid,2021.1.4,MacIntel,66.66666667,,,,,,,,,,,,,,,,,,,,,,,,,,,,,,,,,,,,,,,,,,,,,,,,,,,,,,,,,,,,,,,,,horse,Animals,10,0,10,0,1,,,,,,,,,,,,,,,,,,
,,,,,,,,,,,,,,,89442,001,2022-04-28_23h12.46.165,SPAMnetsValid,2021.1.4,MacIntel,66.66666667,,,,,,,,,,,,,,,,,,,,,,,,,,,,,,,,,,,,,,,,,,,,,,,,,,,,,,,,,,,,,,,,,bat,Animals,11,0,11,0,1,,,,,,,,,,,,,,,,,,
,,,,,,,,,,,,,,,89442,001,2022-04-28_23h12.46.165,SPAMnetsValid,2021.1.4,MacIntel,66.66666667,,,,,,,,,,,,,,,,,,,,,,,,,,,,,,,,,,,,,,,,,,,,,,,,,,,,,,,,,,,,,,,,,bear,Animals,12,0,12,0,1,,,,,,,,,,,,,,,,,,
,,,,,,,,,,,,,,,89442,001,2022-04-28_23h12.46.165,SPAMnetsValid,2021.1.4,MacIntel,66.66666667,,,,,,,,,,,,,,,,,,,,,,,,,,,,,,,,,,,,,,,,,,,,,,,,,,,,,,,,,,,,,,,,,tiger,Animals,13,0,13,0,1,,,,,,,,,,,,,,,,,,
,,,,,,,,,,,,,,,89442,001,2022-04-28_23h12.46.165,SPAMnetsValid,2021.1.4,MacIntel,66.66666667,,,,,,,,,,,,,,,,,,,,,,,,,,,,,,,,,,,,,,,,,,,,,,,,,,,,,,,,,,,,,,,,,black panther,Animals,14,0,14,0,1,,,,,,,,,,,,,,,,,,
,,,,,,,,,,,,,,,89442,001,2022-04-28_23h12.46.165,SPAMnetsValid,2021.1.4,MacIntel,66.66666667,,,,,,,,,,,,,,,,,,,,,,,,,,,,,,,,,,,,,,,,,,,,,,,,,,,,,,,,,,,,,,,,,fox,Animals,15,0,15,0,1,,,,,,,,,,,,,,,,,,
,,,,,,,,,,,,,,,89442,001,2022-04-28_23h12.46.165,SPAMnetsValid,2021.1.4,MacIntel,66.66666667,,,,,,,,,,,,,,,,,,,,,,,,,,,,,,,,,,,,,,,,,,,,,,,,,,,,,,,,,,,,,,,,,wolf,Animals,16,0,16,0,1,,,,,,,,,,,,,,,,,,
,,,,,,,,,,,,,,,89442,001,2022-04-28_23h12.46.165,SPAMnetsValid,2021.1.4,MacIntel,66.66666667,,,,,,,,,,,,,,,,,,,,,,,,,,,,,,,,,,,,,,,,,,,,,,,,,,,,,,,,,,,,,,,,,elephant,Animals,17,0,17,0,1,,,,,,,,,,,,,,,,,,
,,,,,,,,,,,,,,,89442,001,2022-04-28_23h12.46.165,SPAMnetsValid,2021.1.4,MacIntel,66.66666667,,,,,,,,,,,,,,,,,,,,,,,,,,,,,,,,,,,,,,,,,,,,,,,,,,,,,,,,,,,,,,,,,monkey,Animals,18,0,18,0,1,,,,,,,,,,,,,,,,,,
,,,,,,,,,,,,,,,89442,001,2022-04-28_23h12.46.165,SPAMnetsValid,2021.1.4,MacIntel,66.66666667,,,,,,,,,,,,,,,,,,,,,,,,,,,,,,,,,,,,,,,,,,,,,,,,,,,,,,,,,,,,,,,,,cow,Animals,19,0,19,0,1,,,,,,,,,,,,,,,,,,
,,,,,,,,,,,,,,,89442,001,2022-04-28_23h12.46.165,SPAMnetsValid,2021.1.4,MacIntel,66.66666667,,,,,,,,,,,,,,,,,,,,,,,,,,,,,,,,,,,,,,,,,,,,,,,,,,,,,,,,,,,,,,,,,chicken,Animals,20,0,20,0,1,,,,,,,,,,,,,,,,,,
,,,,,,,,,,,,,,,89442,001,2022-04-28_23h12.46.165,SPAMnetsValid,2021.1.4,MacIntel,66.66666667,,,,,,,,,,,,,,,,,,,,,,,,,,,,,,,,,,,,,,,,,,,,,,,,,,,,,,,,,,,,,,,,,goat,Animals,21,0,21,0,1,,,,,,,,,,,,,,,,,,
,,,,,,,,,,,,,,,89442,001,2022-04-28_23h12.46.165,SPAMnetsValid,2021.1.4,MacIntel,66.66666667,,,,,,,,,,,,,,,,,,,,,,,,,,,,,,,,,,,,,,,,,,,,,,,,,,,,,,,,,,,,,,,,,cheetah,Animals,22,0,22,0,1,,,,,,,,,,,,,,,,,,
,,,,,,,,,,,,,,,89442,001,2022-04-28_23h12.46.165,SPAMnetsValid,2021.1.4,MacIntel,66.66666667,,,,,,,,,,,,,,,,,,,,,,,,,,,,,,,,,,,,,,,,,,,,,,,,,,,,,,,,,,,,,,,,,bird,Animals,23,0,23,0,1,,,,,,,,,,,,,,,,,,
,,,,,,,,,,,,,,,89442,001,2022-04-28_23h12.46.165,SPAMnetsValid,2021.1.4,MacIntel,66.66666667,,,,,,,,,,,,,,,,,,,,,,,,,,,,,,,,,,,,,,,,,,,,,,,,,,,,,,,,,,,,,,,,,duck,Animals,24,0,24,0,1,,,,,,,,,,,,,,,,,,
,,,,,,,,,,,,,,,89442,001,2022-04-28_23h12.46.165,SPAMnetsValid,2021.1.4,MacIntel,66.66666667,,,,,,,,,,,,,,,,,,,,,,,,,,,,,,,,,,,,,,,,,,,,,,,,,,,,,,,,,,,,,,,,,sheep,Animals,25,0,25,0,1,,,,,,,,,,,,,,,,,,
,,,,,,,,,,,,,,,89442,001,2022-04-28_23h12.46.165,SPAMnetsValid,2021.1.4,MacIntel,66.66666667,,,,,,,,,,,,,,,,,,,,,,,,,,,,,,,,,,,,,,,,,,,,,,,,,,,,,,,,,,,,,,,,,bee,Animals,26,0,26,0,1,,,,,,,,,,,,,,,,,,
,,,,,,,,,,,,,,,89442,001,2022-04-28_23h12.46.165,SPAMnetsValid,2021.1.4,MacIntel,66.66666667,,,,,,,,,,,,,,,,,,,,,,,,,,,,,,,,,,,,,,,,,,,,,,,,,,,,,,,,,,,,,,,,,,,,,,,,0,0,0,0,1,Animals,,,,,,,,,,,,
,,,,,,,,,,,,,,,89442,001,2022-04-28_23h12.46.165,SPAMnetsValid,2021.1.4,MacIntel,66.66666667,,,,,,,,,,,,,,,,,,,,,,,,,,,,,,,,,,,,,,,,,,,,,,,,,,,,,,,,,,,,,,,,,,,,,,,,,,,,,,5,4.897,0,0,0,0,1,"I enjoy concentrating on a fantasy or daydream and exploring all its possibilities, letting it grow and develop.",0,1,,
,,,,,,,,,,,,,,,89442,001,2022-04-28_23h12.46.165,SPAMnetsValid,2021.1.4,MacIntel,66.66666667,,,,,,,,,,,,,,,,,,,,,,,,,,,,,,,,,,,,,,,,,,,,,,,,,,,,,,,,,,,,,,,,,,,,,,,,,,,,,,5,1.636,0,1,1,1,1,I think it's interesting to learn and develop new hobbies.,0,2,,
,,,,,,,,,,,,,,,89442,001,2022-04-28_23h12.46.165,SPAMnetsValid,2021.1.4,MacIntel,66.66666667,,,,,,,,,,,,,,,,,,,,,,,,,,,,,,,,,,,,,,,,,,,,,,,,,,,,,,,,,,,,,,,,,,,,,,,,,,,,,,3,4.674,0,2,2,2,1,I am intrigued by the patterns I find in art and nature.,0,3,,
,,,,,,,,,,,,,,,89442,001,2022-04-28_23h12.46.165,SPAMnetsValid,2021.1.4,MacIntel,66.66666667,,,,,,,,,,,,,,,,,,,,,,,,,,,,,,,,,,,,,,,,,,,,,,,,,,,,,,,,,,,,,,,,,,,,,,,,,,,,,,3,6.608,0,3,3,3,1,I believe letting students hear controversial speakers can only confuse and mislead them.,1,4,,
,,,,,,,,,,,,,,,89442,001,2022-04-28_23h12.46.165,SPAMnetsValid,2021.1.4,MacIntel,66.66666667,,,,,,,,,,,,,,,,,,,,,,,,,,,,,,,,,,,,,,,,,,,,,,,,,,,,,,,,,,,,,,,,,,,,,,,,,,,,,,4,5.276,0,4,4,4,1,Poetry has little or no effect on me.,1,5,,
,,,,,,,,,,,,,,,89442,001,2022-04-28_23h12.46.165,SPAMnetsValid,2021.1.4,MacIntel,66.66666667,,,,,,,,,,,,,,,,,,,,,,,,,,,,,,,,,,,,,,,,,,,,,,,,,,,,,,,,,,,,,,,,,,,,,,,,,,,,,,3,4.225,0,5,5,5,1,I would have difficulty just letting my mind wander without control or guidance.,1,6,,
,,,,,,,,,,,,,,,89442,001,2022-04-28_23h12.46.165,SPAMnetsValid,2021.1.4,MacIntel,66.66666667,,,,,,,,,,,,,,,,,,,,,,,,,,,,,,,,,,,,,,,,,,,,,,,,,,,,,,,,,,,,,,,,,,,,,,,,,,,,,,4,4.786,0,6,6,6,1,I seldom notice the moods or feelings that different environments produce.,1,7,,
,,,,,,,,,,,,,,,89442,001,2022-04-28_23h12.46.165,SPAMnetsValid,2021.1.4,MacIntel,66.66666667,,,,,,,,,,,,,,,,,,,,,,,,,,,,,,,,,,,,,,,,,,,,,,,,,,,,,,,,,,,,,,,,,,,,,,,,,,,,,,2,6.514,0,7,7,7,1,I experience a wide range of emotions or feelings.,0,8,,
,,,,,,,,,,,,,,,89442,001,2022-04-28_23h12.46.165,SPAMnetsValid,2021.1.4,MacIntel,66.66666667,,,,,,,,,,,,,,,,,,,,,,,,,,,,,,,,,,,,,,,,,,,,,,,,,,,,,,,,,,,,,,,,,,,,,,,,,,,,,,2,4.921,0,8,8,8,1,"Sometimes when I am reading poetry or looking at a work of art, I feel a chill or wave of excitement.",0,9,,
,,,,,,,,,,,,,,,89442,001,2022-04-28_23h12.46.165,SPAMnetsValid,2021.1.4,MacIntel,66.66666667,,,,,,,,,,,,,,,,,,,,,,,,,,,,,,,,,,,,,,,,,,,,,,,,,,,,,,,,,,,,,,,,,,,,,,,,,,,,,,2,4.791,0,9,9,9,1,I have little interest in speculating on the nature of the universe or the human condition.,1,10,,
,,,,,,,,,,,,,,,89442,001,2022-04-28_23h12.46.165,SPAMnetsValid,2021.1.4,MacIntel,66.66666667,,,,,,,,,,,,,,,,,,,,,,,,,,,,,,,,,,,,,,,,,,,,,,,,,,,,,,,,,,,,,,,,,,,,,,,,,,,,,,4,2.742,0,10,10,10,1,I have a lot of intellectual curiosity.,0,11,,
,,,,,,,,,,,,,,,89442,001,2022-04-28_23h12.46.165,SPAMnetsValid,2021.1.4,MacIntel,66.66666667,,,,,,,,,,,,,,,,,,,,,,,,,,,,,,,,,,,,,,,,,,,,,,,,,,,,,,,,,,,,,,,,,,,,,,,,,,,,,,3,4.277,0,11,11,11,1,I often enjoy playing with theories or abstract ideas.,0,12,,
,,,,,,,,,,,,,,,89442,001,2022-04-28_23h12.46.165,SPAMnetsValid,2021.1.4,MacIntel,66.66666667,,,,,,,,,,,,,,,,,,,,,,,,,,,,,,,,,,,,,,,,,,,,,,,,,,,,,,,,,,,,,,,,,,,,,,,,,,,,,,,,,,,,,,,,return,41.191
