key_resp_3.keys,key_resp_3.rt,slider_2.response,slider_2.rt,rjt_rating,rjt_RT,trials_24.thisRepN,trials_24.thisTrialN,trials_24.thisN,trials_24.thisIndex,trials_24.ran,rjt_order,word1,word2,attention,participant,session,date,expName,psychopyVersion,OS,frameRate,trials_4.thisRepN,trials_4.thisTrialN,trials_4.thisN,trials_4.thisIndex,trials_4.ran,trials_5.thisRepN,trials_5.thisTrialN,trials_5.thisN,trials_5.thisIndex,trials_5.ran,repOne,repTwo,slider.response,slider.rt,trials_22.thisRepN,trials_22.thisTrialN,trials_22.thisN,trials_22.thisIndex,trials_22.ran,trials_99.thisRepN,trials_99.thisTrialN,trials_99.thisN,trials_99.thisIndex,trials_99.ran,slider_extend_2.response,slider_extend_2.rt,trials_6.thisRepN,trials_6.thisTrialN,trials_6.thisN,trials_6.thisIndex,trials_6.ran,vCue2,R1,R2,R3,R4,correct,sliderVocab.response,sliderVocab.rt,trials_7.thisRepN,trials_7.thisTrialN,trials_7.thisN,trials_7.thisIndex,trials_7.ran,VocabCue,VR1,VR2,VR3,VR4,VR5,VocabCorrect,AUT_resp,AUT_label,trials.thisRepN,trials.thisTrialN,trials.thisN,trials.thisIndex,trials.ran,trials_2.thisRepN,trials_2.thisTrialN,trials_2.thisN,trials_2.thisIndex,trials_2.ran,aut_prompt,VF_response,VF_tag,trials_16.thisRepN,trials_16.thisTrialN,trials_16.thisN,trials_16.thisIndex,trials_16.ran,trials_17.thisRepN,trials_17.thisTrialN,trials_17.thisN,trials_17.thisIndex,trials_17.ran,VFcond,open_slider.response,open_slider.rt,trials_3.thisRepN,trials_3.thisTrialN,trials_3.thisN,trials_3.thisIndex,trials_3.ran,OpenQ,Rev,OPEN_ORDER,key_resp_2.keys,key_resp_2.rt
return,19.106,1,13.177,1,13.177,0,0,0,93,1,134,carrot,flower,,89457,001,2022-04-27_10h11.57.030,SPAMnetsValid,2021.1.4,MacIntel,27.02702703,,,,,,,,,,,,,,,,,,,,,,,,,,,,,,,,,,,,,,,,,,,,,,,,,,,,,,,,,,,,,,,,,,,,,,,,,,,,,,,,,,,,,,,,,
,,6,6.138,6,6.138,0,1,1,76,1,102,chocolate,refrigerator,,89457,001,2022-04-27_10h11.57.030,SPAMnetsValid,2021.1.4,MacIntel,27.02702703,,,,,,,,,,,,,,,,,,,,,,,,,,,,,,,,,,,,,,,,,,,,,,,,,,,,,,,,,,,,,,,,,,,,,,,,,,,,,,,,,,,,,,,,,
,,9,2.39,9,2.39,0,2,2,86,1,193,melon,melon,CHECK,89457,001,2022-04-27_10h11.57.030,SPAMnetsValid,2021.1.4,MacIntel,27.02702703,,,,,,,,,,,,,,,,,,,,,,,,,,,,,,,,,,,,,,,,,,,,,,,,,,,,,,,,,,,,,,,,,,,,,,,,,,,,,,,,,,,,,,,,,
,,6,3.228,6,3.228,0,3,3,10,1,118,chocolate,oven,,89457,001,2022-04-27_10h11.57.030,SPAMnetsValid,2021.1.4,MacIntel,27.02702703,,,,,,,,,,,,,,,,,,,,,,,,,,,,,,,,,,,,,,,,,,,,,,,,,,,,,,,,,,,,,,,,,,,,,,,,,,,,,,,,,,,,,,,,,
,,1,2.488,1,2.488,0,4,4,64,1,157,refrigerator,rose,,89457,001,2022-04-27_10h11.57.030,SPAMnetsValid,2021.1.4,MacIntel,27.02702703,,,,,,,,,,,,,,,,,,,,,,,,,,,,,,,,,,,,,,,,,,,,,,,,,,,,,,,,,,,,,,,,,,,,,,,,,,,,,,,,,,,,,,,,,
,,7,3.264,7,3.264,0,5,5,34,1,153,carrot,pretzel,,89457,001,2022-04-27_10h11.57.030,SPAMnetsValid,2021.1.4,MacIntel,27.02702703,,,,,,,,,,,,,,,,,,,,,,,,,,,,,,,,,,,,,,,,,,,,,,,,,,,,,,,,,,,,,,,,,,,,,,,,,,,,,,,,,,,,,,,,,
,,1,1.711,1,1.711,0,6,6,46,1,123,cookie,tree,,89457,001,2022-04-27_10h11.57.030,SPAMnetsValid,2021.1.4,MacIntel,27.02702703,,,,,,,,,,,,,,,,,,,,,,,,,,,,,,,,,,,,,,,,,,,,,,,,,,,,,,,,,,,,,,,,,,,,,,,,,,,,,,,,,,,,,,,,,
,,8,1.969,8,1.969,0,7,7,43,1,185,cactus,rose,,89457,001,2022-04-27_10h11.57.030,SPAMnetsValid,2021.1.4,MacIntel,27.02702703,,,,,,,,,,,,,,,,,,,,,,,,,,,,,,,,,,,,,,,,,,,,,,,,,,,,,,,,,,,,,,,,,,,,,,,,,,,,,,,,,,,,,,,,,
,,8,1.346,8,1.346,0,8,8,33,1,131,cactus,garden,,89457,001,2022-04-27_10h11.57.030,SPAMnetsValid,2021.1.4,MacIntel,27.02702703,,,,,,,,,,,,,,,,,,,,,,,,,,,,,,,,,,,,,,,,,,,,,,,,,,,,,,,,,,,,,,,,,,,,,,,,,,,,,,,,,,,,,,,,,
,,7,2.726,7,2.726,0,9,9,2,1,174,cake,pretzel,,89457,001,2022-04-27_10h11.57.030,SPAMnetsValid,2021.1.4,MacIntel,27.02702703,,,,,,,,,,,,,,,,,,,,,,,,,,,,,,,,,,,,,,,,,,,,,,,,,,,,,,,,,,,,,,,,,,,,,,,,,,,,,,,,,,,,,,,,,
,,1,1.712,1,1.712,0,10,10,18,1,119,strawberry,tree,,89457,001,2022-04-27_10h11.57.030,SPAMnetsValid,2021.1.4,MacIntel,27.02702703,,,,,,,,,,,,,,,,,,,,,,,,,,,,,,,,,,,,,,,,,,,,,,,,,,,,,,,,,,,,,,,,,,,,,,,,,,,,,,,,,,,,,,,,,
,,8,2.409,8,2.409,0,11,11,51,1,168,cactus,flower,,89457,001,2022-04-27_10h11.57.030,SPAMnetsValid,2021.1.4,MacIntel,27.02702703,,,,,,,,,,,,,,,,,,,,,,,,,,,,,,,,,,,,,,,,,,,,,,,,,,,,,,,,,,,,,,,,,,,,,,,,,,,,,,,,,,,,,,,,,
,,8,2.092,8,2.092,0,12,12,48,1,186,kitchen,yogurt,,89457,001,2022-04-27_10h11.57.030,SPAMnetsValid,2021.1.4,MacIntel,27.02702703,,,,,,,,,,,,,,,,,,,,,,,,,,,,,,,,,,,,,,,,,,,,,,,,,,,,,,,,,,,,,,,,,,,,,,,,,,,,,,,,,,,,,,,,,
,,1,2.622,1,2.622,0,13,13,71,1,187,cactus,microwave,,89457,001,2022-04-27_10h11.57.030,SPAMnetsValid,2021.1.4,MacIntel,27.02702703,,,,,,,,,,,,,,,,,,,,,,,,,,,,,,,,,,,,,,,,,,,,,,,,,,,,,,,,,,,,,,,,,,,,,,,,,,,,,,,,,,,,,,,,,
,,8,2.046,8,2.046,0,14,14,41,1,175,melon,onion,,89457,001,2022-04-27_10h11.57.030,SPAMnetsValid,2021.1.4,MacIntel,27.02702703,,,,,,,,,,,,,,,,,,,,,,,,,,,,,,,,,,,,,,,,,,,,,,,,,,,,,,,,,,,,,,,,,,,,,,,,,,,,,,,,,,,,,,,,,
,,1,2.981,1,2.981,0,15,15,57,1,127,cactus,chocolate,,89457,001,2022-04-27_10h11.57.030,SPAMnetsValid,2021.1.4,MacIntel,27.02702703,,,,,,,,,,,,,,,,,,,,,,,,,,,,,,,,,,,,,,,,,,,,,,,,,,,,,,,,,,,,,,,,,,,,,,,,,,,,,,,,,,,,,,,,,
,,8,1.492,8,1.492,0,16,16,83,1,100,garden,tomato,,89457,001,2022-04-27_10h11.57.030,SPAMnetsValid,2021.1.4,MacIntel,27.02702703,,,,,,,,,,,,,,,,,,,,,,,,,,,,,,,,,,,,,,,,,,,,,,,,,,,,,,,,,,,,,,,,,,,,,,,,,,,,,,,,,,,,,,,,,
,,8,1.574,8,1.574,0,17,17,11,1,117,melon,strawberry,,89457,001,2022-04-27_10h11.57.030,SPAMnetsValid,2021.1.4,MacIntel,27.02702703,,,,,,,,,,,,,,,,,,,,,,,,,,,,,,,,,,,,,,,,,,,,,,,,,,,,,,,,,,,,,,,,,,,,,,,,,,,,,,,,,,,,,,,,,
,,8,1.795,8,1.795,0,18,18,29,1,163,melon,refrigerator,,89457,001,2022-04-27_10h11.57.030,SPAMnetsValid,2021.1.4,MacIntel,27.02702703,,,,,,,,,,,,,,,,,,,,,,,,,,,,,,,,,,,,,,,,,,,,,,,,,,,,,,,,,,,,,,,,,,,,,,,,,,,,,,,,,,,,,,,,,
,,1,3.956,1,3.956,0,19,19,63,1,137,microwave,tree,,89457,001,2022-04-27_10h11.57.030,SPAMnetsValid,2021.1.4,MacIntel,27.02702703,,,,,,,,,,,,,,,,,,,,,,,,,,,,,,,,,,,,,,,,,,,,,,,,,,,,,,,,,,,,,,,,,,,,,,,,,,,,,,,,,,,,,,,,,
,,1,1.272,1,1.272,0,20,20,45,1,179,broom,oven,,89457,001,2022-04-27_10h11.57.030,SPAMnetsValid,2021.1.4,MacIntel,27.02702703,,,,,,,,,,,,,,,,,,,,,,,,,,,,,,,,,,,,,,,,,,,,,,,,,,,,,,,,,,,,,,,,,,,,,,,,,,,,,,,,,,,,,,,,,
,,6,2.941,6,2.941,0,21,21,92,1,170,cookie,microwave,,89457,001,2022-04-27_10h11.57.030,SPAMnetsValid,2021.1.4,MacIntel,27.02702703,,,,,,,,,,,,,,,,,,,,,,,,,,,,,,,,,,,,,,,,,,,,,,,,,,,,,,,,,,,,,,,,,,,,,,,,,,,,,,,,,,,,,,,,,
,,1,3.444,1,3.444,0,22,22,15,1,145,cactus,yogurt,,89457,001,2022-04-27_10h11.57.030,SPAMnetsValid,2021.1.4,MacIntel,27.02702703,,,,,,,,,,,,,,,,,,,,,,,,,,,,,,,,,,,,,,,,,,,,,,,,,,,,,,,,,,,,,,,,,,,,,,,,,,,,,,,,,,,,,,,,,
,,1,4.14,1,4.14,0,23,23,20,1,149,broom,tomato,,89457,001,2022-04-27_10h11.57.030,SPAMnetsValid,2021.1.4,MacIntel,27.02702703,,,,,,,,,,,,,,,,,,,,,,,,,,,,,,,,,,,,,,,,,,,,,,,,,,,,,,,,,,,,,,,,,,,,,,,,,,,,,,,,,,,,,,,,,
,,1,1.444,1,1.444,0,24,24,49,1,152,cactus,strawberry,,89457,001,2022-04-27_10h11.57.030,SPAMnetsValid,2021.1.4,MacIntel,27.02702703,,,,,,,,,,,,,,,,,,,,,,,,,,,,,,,,,,,,,,,,,,,,,,,,,,,,,,,,,,,,,,,,,,,,,,,,,,,,,,,,,,,,,,,,,
,,7,1.519,7,1.519,0,25,25,96,1,136,chocolate,microwave,,89457,001,2022-04-27_10h11.57.030,SPAMnetsValid,2021.1.4,MacIntel,27.02702703,,,,,,,,,,,,,,,,,,,,,,,,,,,,,,,,,,,,,,,,,,,,,,,,,,,,,,,,,,,,,,,,,,,,,,,,,,,,,,,,,,,,,,,,,
,,3,3.511,3,3.511,0,26,26,17,1,99,garden,melon,,89457,001,2022-04-27_10h11.57.030,SPAMnetsValid,2021.1.4,MacIntel,27.02702703,,,,,,,,,,,,,,,,,,,,,,,,,,,,,,,,,,,,,,,,,,,,,,,,,,,,,,,,,,,,,,,,,,,,,,,,,,,,,,,,,,,,,,,,,
,,1,2.807,1,2.807,0,27,27,9,1,176,cactus,tomato,,89457,001,2022-04-27_10h11.57.030,SPAMnetsValid,2021.1.4,MacIntel,27.02702703,,,,,,,,,,,,,,,,,,,,,,,,,,,,,,,,,,,,,,,,,,,,,,,,,,,,,,,,,,,,,,,,,,,,,,,,,,,,,,,,,,,,,,,,,
,,7,1.552,7,1.552,0,28,28,70,1,141,melon,tomato,,89457,001,2022-04-27_10h11.57.030,SPAMnetsValid,2021.1.4,MacIntel,27.02702703,,,,,,,,,,,,,,,,,,,,,,,,,,,,,,,,,,,,,,,,,,,,,,,,,,,,,,,,,,,,,,,,,,,,,,,,,,,,,,,,,,,,,,,,,
,,6,3.343,6,3.343,0,29,29,19,1,183,cake,rose,,89457,001,2022-04-27_10h11.57.030,SPAMnetsValid,2021.1.4,MacIntel,27.02702703,,,,,,,,,,,,,,,,,,,,,,,,,,,,,,,,,,,,,,,,,,,,,,,,,,,,,,,,,,,,,,,,,,,,,,,,,,,,,,,,,,,,,,,,,
,,3,3.517,3,3.517,0,30,30,12,1,162,microwave,tomato,,89457,001,2022-04-27_10h11.57.030,SPAMnetsValid,2021.1.4,MacIntel,27.02702703,,,,,,,,,,,,,,,,,,,,,,,,,,,,,,,,,,,,,,,,,,,,,,,,,,,,,,,,,,,,,,,,,,,,,,,,,,,,,,,,,,,,,,,,,
,,1,1.796,1,1.796,0,31,31,95,1,121,broom,microwave,,89457,001,2022-04-27_10h11.57.030,SPAMnetsValid,2021.1.4,MacIntel,27.02702703,,,,,,,,,,,,,,,,,,,,,,,,,,,,,,,,,,,,,,,,,,,,,,,,,,,,,,,,,,,,,,,,,,,,,,,,,,,,,,,,,,,,,,,,,
,,8,1.914,8,1.914,0,32,32,39,1,112,cake,carrot,,89457,001,2022-04-27_10h11.57.030,SPAMnetsValid,2021.1.4,MacIntel,27.02702703,,,,,,,,,,,,,,,,,,,,,,,,,,,,,,,,,,,,,,,,,,,,,,,,,,,,,,,,,,,,,,,,,,,,,,,,,,,,,,,,,,,,,,,,,
,,6,1.971,6,1.971,0,33,33,6,1,151,microwave,onion,,89457,001,2022-04-27_10h11.57.030,SPAMnetsValid,2021.1.4,MacIntel,27.02702703,,,,,,,,,,,,,,,,,,,,,,,,,,,,,,,,,,,,,,,,,,,,,,,,,,,,,,,,,,,,,,,,,,,,,,,,,,,,,,,,,,,,,,,,,
,,9,2.019,9,2.019,0,34,34,25,1,194,cactus,cactus,CHECK,89457,001,2022-04-27_10h11.57.030,SPAMnetsValid,2021.1.4,MacIntel,27.02702703,,,,,,,,,,,,,,,,,,,,,,,,,,,,,,,,,,,,,,,,,,,,,,,,,,,,,,,,,,,,,,,,,,,,,,,,,,,,,,,,,,,,,,,,,
,,7,6.947,7,6.947,0,35,35,1,1,173,kitchen,tomato,,89457,001,2022-04-27_10h11.57.030,SPAMnetsValid,2021.1.4,MacIntel,27.02702703,,,,,,,,,,,,,,,,,,,,,,,,,,,,,,,,,,,,,,,,,,,,,,,,,,,,,,,,,,,,,,,,,,,,,,,,,,,,,,,,,,,,,,,,,
,,7,2.086,7,2.086,0,36,36,72,1,181,carrot,kitchen,,89457,001,2022-04-27_10h11.57.030,SPAMnetsValid,2021.1.4,MacIntel,27.02702703,,,,,,,,,,,,,,,,,,,,,,,,,,,,,,,,,,,,,,,,,,,,,,,,,,,,,,,,,,,,,,,,,,,,,,,,,,,,,,,,,,,,,,,,,
,,7,1.027,7,1.027,0,37,37,8,1,97,chocolate,kitchen,,89457,001,2022-04-27_10h11.57.030,SPAMnetsValid,2021.1.4,MacIntel,27.02702703,,,,,,,,,,,,,,,,,,,,,,,,,,,,,,,,,,,,,,,,,,,,,,,,,,,,,,,,,,,,,,,,,,,,,,,,,,,,,,,,,,,,,,,,,
,,1,1.903,1,1.903,0,38,38,30,1,125,carrot,tree,,89457,001,2022-04-27_10h11.57.030,SPAMnetsValid,2021.1.4,MacIntel,27.02702703,,,,,,,,,,,,,,,,,,,,,,,,,,,,,,,,,,,,,,,,,,,,,,,,,,,,,,,,,,,,,,,,,,,,,,,,,,,,,,,,,,,,,,,,,
,,7,1.16,7,1.16,0,39,39,79,1,103,pretzel,tomato,,89457,001,2022-04-27_10h11.57.030,SPAMnetsValid,2021.1.4,MacIntel,27.02702703,,,,,,,,,,,,,,,,,,,,,,,,,,,,,,,,,,,,,,,,,,,,,,,,,,,,,,,,,,,,,,,,,,,,,,,,,,,,,,,,,,,,,,,,,
,,6,2.526,6,2.526,0,40,40,38,1,155,carrot,cookie,,89457,001,2022-04-27_10h11.57.030,SPAMnetsValid,2021.1.4,MacIntel,27.02702703,,,,,,,,,,,,,,,,,,,,,,,,,,,,,,,,,,,,,,,,,,,,,,,,,,,,,,,,,,,,,,,,,,,,,,,,,,,,,,,,,,,,,,,,,
,,6,1.799,6,1.799,0,41,41,85,1,115,refrigerator,tomato,,89457,001,2022-04-27_10h11.57.030,SPAMnetsValid,2021.1.4,MacIntel,27.02702703,,,,,,,,,,,,,,,,,,,,,,,,,,,,,,,,,,,,,,,,,,,,,,,,,,,,,,,,,,,,,,,,,,,,,,,,,,,,,,,,,,,,,,,,,
,,8,2.725,8,2.725,0,42,42,7,1,188,flower,tree,,89457,001,2022-04-27_10h11.57.030,SPAMnetsValid,2021.1.4,MacIntel,27.02702703,,,,,,,,,,,,,,,,,,,,,,,,,,,,,,,,,,,,,,,,,,,,,,,,,,,,,,,,,,,,,,,,,,,,,,,,,,,,,,,,,,,,,,,,,
,,7,1.84,7,1.84,0,43,43,94,1,133,cake,flower,,89457,001,2022-04-27_10h11.57.030,SPAMnetsValid,2021.1.4,MacIntel,27.02702703,,,,,,,,,,,,,,,,,,,,,,,,,,,,,,,,,,,,,,,,,,,,,,,,,,,,,,,,,,,,,,,,,,,,,,,,,,,,,,,,,,,,,,,,,
,,2,3.851,2,3.851,0,44,44,90,1,190,microwave,strawberry,,89457,001,2022-04-27_10h11.57.030,SPAMnetsValid,2021.1.4,MacIntel,27.02702703,,,,,,,,,,,,,,,,,,,,,,,,,,,,,,,,,,,,,,,,,,,,,,,,,,,,,,,,,,,,,,,,,,,,,,,,,,,,,,,,,,,,,,,,,
,,1,2.086,1,2.086,0,45,45,62,1,189,onion,tree,,89457,001,2022-04-27_10h11.57.030,SPAMnetsValid,2021.1.4,MacIntel,27.02702703,,,,,,,,,,,,,,,,,,,,,,,,,,,,,,,,,,,,,,,,,,,,,,,,,,,,,,,,,,,,,,,,,,,,,,,,,,,,,,,,,,,,,,,,,
,,6,2.156,6,2.156,0,46,46,91,1,166,cake,yogurt,,89457,001,2022-04-27_10h11.57.030,SPAMnetsValid,2021.1.4,MacIntel,27.02702703,,,,,,,,,,,,,,,,,,,,,,,,,,,,,,,,,,,,,,,,,,,,,,,,,,,,,,,,,,,,,,,,,,,,,,,,,,,,,,,,,,,,,,,,,
,,7,1.436,7,1.436,0,47,47,37,1,139,carrot,strawberry,,89457,001,2022-04-27_10h11.57.030,SPAMnetsValid,2021.1.4,MacIntel,27.02702703,,,,,,,,,,,,,,,,,,,,,,,,,,,,,,,,,,,,,,,,,,,,,,,,,,,,,,,,,,,,,,,,,,,,,,,,,,,,,,,,,,,,,,,,,
,,6,1.755,6,1.755,0,48,48,36,1,161,kitchen,pretzel,,89457,001,2022-04-27_10h11.57.030,SPAMnetsValid,2021.1.4,MacIntel,27.02702703,,,,,,,,,,,,,,,,,,,,,,,,,,,,,,,,,,,,,,,,,,,,,,,,,,,,,,,,,,,,,,,,,,,,,,,,,,,,,,,,,,,,,,,,,
,,6,1.933,6,1.933,0,49,49,65,1,160,cookie,kitchen,,89457,001,2022-04-27_10h11.57.030,SPAMnetsValid,2021.1.4,MacIntel,27.02702703,,,,,,,,,,,,,,,,,,,,,,,,,,,,,,,,,,,,,,,,,,,,,,,,,,,,,,,,,,,,,,,,,,,,,,,,,,,,,,,,,,,,,,,,,
,,1,2.191,1,2.191,0,50,50,75,1,178,cactus,carrot,,89457,001,2022-04-27_10h11.57.030,SPAMnetsValid,2021.1.4,MacIntel,27.02702703,,,,,,,,,,,,,,,,,,,,,,,,,,,,,,,,,,,,,,,,,,,,,,,,,,,,,,,,,,,,,,,,,,,,,,,,,,,,,,,,,,,,,,,,,
,,1,2.744,1,2.744,0,51,51,80,1,146,pretzel,tree,,89457,001,2022-04-27_10h11.57.030,SPAMnetsValid,2021.1.4,MacIntel,27.02702703,,,,,,,,,,,,,,,,,,,,,,,,,,,,,,,,,,,,,,,,,,,,,,,,,,,,,,,,,,,,,,,,,,,,,,,,,,,,,,,,,,,,,,,,,
,,1,2.506,1,2.506,0,52,52,40,1,165,onion,rose,,89457,001,2022-04-27_10h11.57.030,SPAMnetsValid,2021.1.4,MacIntel,27.02702703,,,,,,,,,,,,,,,,,,,,,,,,,,,,,,,,,,,,,,,,,,,,,,,,,,,,,,,,,,,,,,,,,,,,,,,,,,,,,,,,,,,,,,,,,
,,1,1.491,1,1.491,0,53,53,3,1,129,cactus,refrigerator,,89457,001,2022-04-27_10h11.57.030,SPAMnetsValid,2021.1.4,MacIntel,27.02702703,,,,,,,,,,,,,,,,,,,,,,,,,,,,,,,,,,,,,,,,,,,,,,,,,,,,,,,,,,,,,,,,,,,,,,,,,,,,,,,,,,,,,,,,,
,,7,2.274,7,2.274,0,54,54,42,1,184,oven,pretzel,,89457,001,2022-04-27_10h11.57.030,SPAMnetsValid,2021.1.4,MacIntel,27.02702703,,,,,,,,,,,,,,,,,,,,,,,,,,,,,,,,,,,,,,,,,,,,,,,,,,,,,,,,,,,,,,,,,,,,,,,,,,,,,,,,,,,,,,,,,
,,9,1.861,9,1.861,0,55,55,60,1,122,flower,garden,,89457,001,2022-04-27_10h11.57.030,SPAMnetsValid,2021.1.4,MacIntel,27.02702703,,,,,,,,,,,,,,,,,,,,,,,,,,,,,,,,,,,,,,,,,,,,,,,,,,,,,,,,,,,,,,,,,,,,,,,,,,,,,,,,,,,,,,,,,
,,2,3.572,2,3.572,0,56,56,24,1,169,onion,yogurt,,89457,001,2022-04-27_10h11.57.030,SPAMnetsValid,2021.1.4,MacIntel,27.02702703,,,,,,,,,,,,,,,,,,,,,,,,,,,,,,,,,,,,,,,,,,,,,,,,,,,,,,,,,,,,,,,,,,,,,,,,,,,,,,,,,,,,,,,,,
,,7,3.948,7,3.948,0,57,57,28,1,154,strawberry,yogurt,,89457,001,2022-04-27_10h11.57.030,SPAMnetsValid,2021.1.4,MacIntel,27.02702703,,,,,,,,,,,,,,,,,,,,,,,,,,,,,,,,,,,,,,,,,,,,,,,,,,,,,,,,,,,,,,,,,,,,,,,,,,,,,,,,,,,,,,,,,
,,2,3.345,2,3.345,0,58,58,21,1,159,cookie,flower,,89457,001,2022-04-27_10h11.57.030,SPAMnetsValid,2021.1.4,MacIntel,27.02702703,,,,,,,,,,,,,,,,,,,,,,,,,,,,,,,,,,,,,,,,,,,,,,,,,,,,,,,,,,,,,,,,,,,,,,,,,,,,,,,,,,,,,,,,,
,,6,3.884,6,3.884,0,59,59,5,1,108,carrot,chocolate,,89457,001,2022-04-27_10h11.57.030,SPAMnetsValid,2021.1.4,MacIntel,27.02702703,,,,,,,,,,,,,,,,,,,,,,,,,,,,,,,,,,,,,,,,,,,,,,,,,,,,,,,,,,,,,,,,,,,,,,,,,,,,,,,,,,,,,,,,,
,,3,3.743,3,3.743,0,60,60,58,1,144,cake,garden,,89457,001,2022-04-27_10h11.57.030,SPAMnetsValid,2021.1.4,MacIntel,27.02702703,,,,,,,,,,,,,,,,,,,,,,,,,,,,,,,,,,,,,,,,,,,,,,,,,,,,,,,,,,,,,,,,,,,,,,,,,,,,,,,,,,,,,,,,,
,,1,2.762,1,2.762,0,61,61,32,1,182,flower,refrigerator,,89457,001,2022-04-27_10h11.57.030,SPAMnetsValid,2021.1.4,MacIntel,27.02702703,,,,,,,,,,,,,,,,,,,,,,,,,,,,,,,,,,,,,,,,,,,,,,,,,,,,,,,,,,,,,,,,,,,,,,,,,,,,,,,,,,,,,,,,,
,,7,2.638,7,2.638,0,62,62,44,1,116,cake,chocolate,,89457,001,2022-04-27_10h11.57.030,SPAMnetsValid,2021.1.4,MacIntel,27.02702703,,,,,,,,,,,,,,,,,,,,,,,,,,,,,,,,,,,,,,,,,,,,,,,,,,,,,,,,,,,,,,,,,,,,,,,,,,,,,,,,,,,,,,,,,
,,6,5.084,6,5.084,0,63,63,73,1,135,carrot,oven,,89457,001,2022-04-27_10h11.57.030,SPAMnetsValid,2021.1.4,MacIntel,27.02702703,,,,,,,,,,,,,,,,,,,,,,,,,,,,,,,,,,,,,,,,,,,,,,,,,,,,,,,,,,,,,,,,,,,,,,,,,,,,,,,,,,,,,,,,,
,,8,2.192,8,2.192,0,64,64,69,1,124,oven,refrigerator,,89457,001,2022-04-27_10h11.57.030,SPAMnetsValid,2021.1.4,MacIntel,27.02702703,,,,,,,,,,,,,,,,,,,,,,,,,,,,,,,,,,,,,,,,,,,,,,,,,,,,,,,,,,,,,,,,,,,,,,,,,,,,,,,,,,,,,,,,,
,,2,3.259,2,3.259,0,65,65,84,1,130,microwave,yogurt,,89457,001,2022-04-27_10h11.57.030,SPAMnetsValid,2021.1.4,MacIntel,27.02702703,,,,,,,,,,,,,,,,,,,,,,,,,,,,,,,,,,,,,,,,,,,,,,,,,,,,,,,,,,,,,,,,,,,,,,,,,,,,,,,,,,,,,,,,,
,,3,2.732,3,2.732,0,66,66,82,1,98,pretzel,strawberry,,89457,001,2022-04-27_10h11.57.030,SPAMnetsValid,2021.1.4,MacIntel,27.02702703,,,,,,,,,,,,,,,,,,,,,,,,,,,,,,,,,,,,,,,,,,,,,,,,,,,,,,,,,,,,,,,,,,,,,,,,,,,,,,,,,,,,,,,,,
,,8,2.83,8,2.83,0,67,67,14,1,120,microwave,oven,,89457,001,2022-04-27_10h11.57.030,SPAMnetsValid,2021.1.4,MacIntel,27.02702703,,,,,,,,,,,,,,,,,,,,,,,,,,,,,,,,,,,,,,,,,,,,,,,,,,,,,,,,,,,,,,,,,,,,,,,,,,,,,,,,,,,,,,,,,
,,1,2.21,1,2.21,0,68,68,81,1,104,garden,microwave,,89457,001,2022-04-27_10h11.57.030,SPAMnetsValid,2021.1.4,MacIntel,27.02702703,,,,,,,,,,,,,,,,,,,,,,,,,,,,,,,,,,,,,,,,,,,,,,,,,,,,,,,,,,,,,,,,,,,,,,,,,,,,,,,,,,,,,,,,,
,,6,1.938,6,1.938,0,69,69,67,1,96,oven,strawberry,,89457,001,2022-04-27_10h11.57.030,SPAMnetsValid,2021.1.4,MacIntel,27.02702703,,,,,,,,,,,,,,,,,,,,,,,,,,,,,,,,,,,,,,,,,,,,,,,,,,,,,,,,,,,,,,,,,,,,,,,,,,,,,,,,,,,,,,,,,
,,1,3.911,1,3.911,0,70,70,35,1,147,cake,refrigerator,,89457,001,2022-04-27_10h11.57.030,SPAMnetsValid,2021.1.4,MacIntel,27.02702703,,,,,,,,,,,,,,,,,,,,,,,,,,,,,,,,,,,,,,,,,,,,,,,,,,,,,,,,,,,,,,,,,,,,,,,,,,,,,,,,,,,,,,,,,
,,1,2.328,1,2.328,0,71,71,23,1,148,flower,melon,,89457,001,2022-04-27_10h11.57.030,SPAMnetsValid,2021.1.4,MacIntel,27.02702703,,,,,,,,,,,,,,,,,,,,,,,,,,,,,,,,,,,,,,,,,,,,,,,,,,,,,,,,,,,,,,,,,,,,,,,,,,,,,,,,,,,,,,,,,
,,6,3.673,6,3.673,0,72,72,77,1,172,kitchen,melon,,89457,001,2022-04-27_10h11.57.030,SPAMnetsValid,2021.1.4,MacIntel,27.02702703,,,,,,,,,,,,,,,,,,,,,,,,,,,,,,,,,,,,,,,,,,,,,,,,,,,,,,,,,,,,,,,,,,,,,,,,,,,,,,,,,,,,,,,,,
,,7,1.511,7,1.511,0,73,73,0,1,106,cake,strawberry,,89457,001,2022-04-27_10h11.57.030,SPAMnetsValid,2021.1.4,MacIntel,27.02702703,,,,,,,,,,,,,,,,,,,,,,,,,,,,,,,,,,,,,,,,,,,,,,,,,,,,,,,,,,,,,,,,,,,,,,,,,,,,,,,,,,,,,,,,,
,,1,1.862,1,1.862,0,74,74,31,1,156,melon,rose,,89457,001,2022-04-27_10h11.57.030,SPAMnetsValid,2021.1.4,MacIntel,27.02702703,,,,,,,,,,,,,,,,,,,,,,,,,,,,,,,,,,,,,,,,,,,,,,,,,,,,,,,,,,,,,,,,,,,,,,,,,,,,,,,,,,,,,,,,,
,,2,3.707,2,3.707,0,75,75,74,1,128,melon,microwave,,89457,001,2022-04-27_10h11.57.030,SPAMnetsValid,2021.1.4,MacIntel,27.02702703,,,,,,,,,,,,,,,,,,,,,,,,,,,,,,,,,,,,,,,,,,,,,,,,,,,,,,,,,,,,,,,,,,,,,,,,,,,,,,,,,,,,,,,,,
,,8,2.87,8,2.87,0,76,76,47,1,167,carrot,garden,,89457,001,2022-04-27_10h11.57.030,SPAMnetsValid,2021.1.4,MacIntel,27.02702703,,,,,,,,,,,,,,,,,,,,,,,,,,,,,,,,,,,,,,,,,,,,,,,,,,,,,,,,,,,,,,,,,,,,,,,,,,,,,,,,,,,,,,,,,
,,1,1.771,1,1.771,0,77,77,78,1,132,broom,tree,,89457,001,2022-04-27_10h11.57.030,SPAMnetsValid,2021.1.4,MacIntel,27.02702703,,,,,,,,,,,,,,,,,,,,,,,,,,,,,,,,,,,,,,,,,,,,,,,,,,,,,,,,,,,,,,,,,,,,,,,,,,,,,,,,,,,,,,,,,
,,6,3.803,6,3.803,0,78,78,16,1,111,carrot,microwave,,89457,001,2022-04-27_10h11.57.030,SPAMnetsValid,2021.1.4,MacIntel,27.02702703,,,,,,,,,,,,,,,,,,,,,,,,,,,,,,,,,,,,,,,,,,,,,,,,,,,,,,,,,,,,,,,,,,,,,,,,,,,,,,,,,,,,,,,,,
,,1,1.586,1,1.586,0,79,79,13,1,105,cactus,oven,,89457,001,2022-04-27_10h11.57.030,SPAMnetsValid,2021.1.4,MacIntel,27.02702703,,,,,,,,,,,,,,,,,,,,,,,,,,,,,,,,,,,,,,,,,,,,,,,,,,,,,,,,,,,,,,,,,,,,,,,,,,,,,,,,,,,,,,,,,
,,9,1.609,9,1.609,0,80,80,27,1,158,cookie,oven,,89457,001,2022-04-27_10h11.57.030,SPAMnetsValid,2021.1.4,MacIntel,27.02702703,,,,,,,,,,,,,,,,,,,,,,,,,,,,,,,,,,,,,,,,,,,,,,,,,,,,,,,,,,,,,,,,,,,,,,,,,,,,,,,,,,,,,,,,,
,,7,2.333,7,2.333,0,81,81,88,1,171,cake,tomato,,89457,001,2022-04-27_10h11.57.030,SPAMnetsValid,2021.1.4,MacIntel,27.02702703,,,,,,,,,,,,,,,,,,,,,,,,,,,,,,,,,,,,,,,,,,,,,,,,,,,,,,,,,,,,,,,,,,,,,,,,,,,,,,,,,,,,,,,,,
,,7,1.431,7,1.431,0,82,82,52,1,110,chocolate,cookie,,89457,001,2022-04-27_10h11.57.030,SPAMnetsValid,2021.1.4,MacIntel,27.02702703,,,,,,,,,,,,,,,,,,,,,,,,,,,,,,,,,,,,,,,,,,,,,,,,,,,,,,,,,,,,,,,,,,,,,,,,,,,,,,,,,,,,,,,,,
,,3,3.108,3,3.108,0,83,83,56,1,113,refrigerator,strawberry,,89457,001,2022-04-27_10h11.57.030,SPAMnetsValid,2021.1.4,MacIntel,27.02702703,,,,,,,,,,,,,,,,,,,,,,,,,,,,,,,,,,,,,,,,,,,,,,,,,,,,,,,,,,,,,,,,,,,,,,,,,,,,,,,,,,,,,,,,,
,,6,4.084,6,4.084,0,84,84,89,1,140,cookie,refrigerator,,89457,001,2022-04-27_10h11.57.030,SPAMnetsValid,2021.1.4,MacIntel,27.02702703,,,,,,,,,,,,,,,,,,,,,,,,,,,,,,,,,,,,,,,,,,,,,,,,,,,,,,,,,,,,,,,,,,,,,,,,,,,,,,,,,,,,,,,,,
,,1,3.09,1,3.09,0,85,85,68,1,180,tree,yogurt,,89457,001,2022-04-27_10h11.57.030,SPAMnetsValid,2021.1.4,MacIntel,27.02702703,,,,,,,,,,,,,,,,,,,,,,,,,,,,,,,,,,,,,,,,,,,,,,,,,,,,,,,,,,,,,,,,,,,,,,,,,,,,,,,,,,,,,,,,,
,,1,1.453,1,1.453,0,86,86,55,1,143,pretzel,rose,,89457,001,2022-04-27_10h11.57.030,SPAMnetsValid,2021.1.4,MacIntel,27.02702703,,,,,,,,,,,,,,,,,,,,,,,,,,,,,,,,,,,,,,,,,,,,,,,,,,,,,,,,,,,,,,,,,,,,,,,,,,,,,,,,,,,,,,,,,
,,1,1.249,1,1.249,0,87,87,54,1,101,cactus,kitchen,,89457,001,2022-04-27_10h11.57.030,SPAMnetsValid,2021.1.4,MacIntel,27.02702703,,,,,,,,,,,,,,,,,,,,,,,,,,,,,,,,,,,,,,,,,,,,,,,,,,,,,,,,,,,,,,,,,,,,,,,,,,,,,,,,,,,,,,,,,
,,9,1.792,9,1.792,0,88,88,61,1,138,flower,rose,,89457,001,2022-04-27_10h11.57.030,SPAMnetsValid,2021.1.4,MacIntel,27.02702703,,,,,,,,,,,,,,,,,,,,,,,,,,,,,,,,,,,,,,,,,,,,,,,,,,,,,,,,,,,,,,,,,,,,,,,,,,,,,,,,,,,,,,,,,
,,2,5.523,2,5.523,0,89,89,50,1,126,kitchen,tree,,89457,001,2022-04-27_10h11.57.030,SPAMnetsValid,2021.1.4,MacIntel,27.02702703,,,,,,,,,,,,,,,,,,,,,,,,,,,,,,,,,,,,,,,,,,,,,,,,,,,,,,,,,,,,,,,,,,,,,,,,,,,,,,,,,,,,,,,,,
,,1,1.103,1,1.103,0,90,90,4,1,109,broom,strawberry,,89457,001,2022-04-27_10h11.57.030,SPAMnetsValid,2021.1.4,MacIntel,27.02702703,,,,,,,,,,,,,,,,,,,,,,,,,,,,,,,,,,,,,,,,,,,,,,,,,,,,,,,,,,,,,,,,,,,,,,,,,,,,,,,,,,,,,,,,,
,,8,1.659,8,1.659,0,91,91,66,1,150,microwave,refrigerator,,89457,001,2022-04-27_10h11.57.030,SPAMnetsValid,2021.1.4,MacIntel,27.02702703,,,,,,,,,,,,,,,,,,,,,,,,,,,,,,,,,,,,,,,,,,,,,,,,,,,,,,,,,,,,,,,,,,,,,,,,,,,,,,,,,,,,,,,,,
,,7,1.595,7,1.595,0,92,92,53,1,177,chocolate,strawberry,,89457,001,2022-04-27_10h11.57.030,SPAMnetsValid,2021.1.4,MacIntel,27.02702703,,,,,,,,,,,,,,,,,,,,,,,,,,,,,,,,,,,,,,,,,,,,,,,,,,,,,,,,,,,,,,,,,,,,,,,,,,,,,,,,,,,,,,,,,
,,7,0.857,7,0.857,0,93,93,87,1,114,cookie,strawberry,,89457,001,2022-04-27_10h11.57.030,SPAMnetsValid,2021.1.4,MacIntel,27.02702703,,,,,,,,,,,,,,,,,,,,,,,,,,,,,,,,,,,,,,,,,,,,,,,,,,,,,,,,,,,,,,,,,,,,,,,,,,,,,,,,,,,,,,,,,
,,1,1.62,1,1.62,0,94,94,59,1,164,cookie,garden,,89457,001,2022-04-27_10h11.57.030,SPAMnetsValid,2021.1.4,MacIntel,27.02702703,,,,,,,,,,,,,,,,,,,,,,,,,,,,,,,,,,,,,,,,,,,,,,,,,,,,,,,,,,,,,,,,,,,,,,,,,,,,,,,,,,,,,,,,,
,,1,9.248,1,9.248,0,95,95,26,1,107,rose,tomato,,89457,001,2022-04-27_10h11.57.030,SPAMnetsValid,2021.1.4,MacIntel,27.02702703,,,,,,,,,,,,,,,,,,,,,,,,,,,,,,,,,,,,,,,,,,,,,,,,,,,,,,,,,,,,,,,,,,,,,,,,,,,,,,,,,,,,,,,,,
,,8,3.152,8,3.152,0,96,96,22,1,142,garden,tree,,89457,001,2022-04-27_10h11.57.030,SPAMnetsValid,2021.1.4,MacIntel,27.02702703,,,,,,,,,,,,,,,,,,,,,,,,,,,,,,,,,,,,,,,,,,,,,,,,,,,,,,,,,,,,,,,,,,,,,,,,,,,,,,,,,,,,,,,,,
,,,,,,,,,,,,,,,89457,001,2022-04-27_10h11.57.030,SPAMnetsValid,2021.1.4,MacIntel,27.02702703,0,0,0,0,1,,,,,,,,,,,,,,,,,,,,,,,,,,,,,,,,,,,,,,,,,,,,,,,,,,,,,,,,,,,,,,,,,,,,,,,,,,,,,,,,,,,,
,,,,,,,,,,,,,,,89457,001,2022-04-27_10h11.57.030,SPAMnetsValid,2021.1.4,MacIntel,27.02702703,,,,,,0,0,0,1,1,0,1,,,,,,,,,,,,,,,,,,,,,,,,,,,,,,,,,,,,,,,,,,,,,,,,,,,,,,,,,,,,,,,,,,,,,,,,,,,,,
,,,,7,4.682,,,,,,79,garden,strawberry,,89457,001,2022-04-27_10h11.57.030,SPAMnetsValid,2021.1.4,MacIntel,27.02702703,,,,,,,,,,,,,7,4.682,0,0,0,87,1,,,,,,,,,,,,,,,,,,,,,,,,,,,,,,,,,,,,,,,,,,,,,,,,,,,,,,,,,,,,,,,,,,,,,,
,,,,1,26.617,,,,,,41,broom,cactus,,89457,001,2022-04-27_10h11.57.030,SPAMnetsValid,2021.1.4,MacIntel,27.02702703,,,,,,,,,,,,,1,26.617,0,1,1,46,1,,,,,,,,,,,,,,,,,,,,,,,,,,,,,,,,,,,,,,,,,,,,,,,,,,,,,,,,,,,,,,,,,,,,,,
,,,,1,1.812,,,,,,35,flower,pretzel,,89457,001,2022-04-27_10h11.57.030,SPAMnetsValid,2021.1.4,MacIntel,27.02702703,,,,,,,,,,,,,1,1.812,0,2,2,26,1,,,,,,,,,,,,,,,,,,,,,,,,,,,,,,,,,,,,,,,,,,,,,,,,,,,,,,,,,,,,,,,,,,,,,,
,,,,1,1.36,,,,,,53,garden,pretzel,,89457,001,2022-04-27_10h11.57.030,SPAMnetsValid,2021.1.4,MacIntel,27.02702703,,,,,,,,,,,,,1,1.36,0,3,3,0,1,,,,,,,,,,,,,,,,,,,,,,,,,,,,,,,,,,,,,,,,,,,,,,,,,,,,,,,,,,,,,,,,,,,,,,
,,,,1,1.194,,,,,,37,garden,refrigerator,,89457,001,2022-04-27_10h11.57.030,SPAMnetsValid,2021.1.4,MacIntel,27.02702703,,,,,,,,,,,,,1,1.194,0,4,4,11,1,,,,,,,,,,,,,,,,,,,,,,,,,,,,,,,,,,,,,,,,,,,,,,,,,,,,,,,,,,,,,,,,,,,,,,
,,,,1,1.376,,,,,,86,oven,rose,,89457,001,2022-04-27_10h11.57.030,SPAMnetsValid,2021.1.4,MacIntel,27.02702703,,,,,,,,,,,,,1,1.376,0,5,5,79,1,,,,,,,,,,,,,,,,,,,,,,,,,,,,,,,,,,,,,,,,,,,,,,,,,,,,,,,,,,,,,,,,,,,,,,
,,,,1,1.298,,,,,,58,garden,oven,,89457,001,2022-04-27_10h11.57.030,SPAMnetsValid,2021.1.4,MacIntel,27.02702703,,,,,,,,,,,,,1,1.298,0,6,6,37,1,,,,,,,,,,,,,,,,,,,,,,,,,,,,,,,,,,,,,,,,,,,,,,,,,,,,,,,,,,,,,,,,,,,,,,
,,,,7,2.087,,,,,,63,cake,cookie,,89457,001,2022-04-27_10h11.57.030,SPAMnetsValid,2021.1.4,MacIntel,27.02702703,,,,,,,,,,,,,7,2.087,0,7,7,93,1,,,,,,,,,,,,,,,,,,,,,,,,,,,,,,,,,,,,,,,,,,,,,,,,,,,,,,,,,,,,,,,,,,,,,,
,,,,6,2.623,,,,,,57,flower,kitchen,,89457,001,2022-04-27_10h11.57.030,SPAMnetsValid,2021.1.4,MacIntel,27.02702703,,,,,,,,,,,,,6,2.623,0,8,8,49,1,,,,,,,,,,,,,,,,,,,,,,,,,,,,,,,,,,,,,,,,,,,,,,,,,,,,,,,,,,,,,,,,,,,,,,
,,,,6,1.736,,,,,,66,melon,yogurt,,89457,001,2022-04-27_10h11.57.030,SPAMnetsValid,2021.1.4,MacIntel,27.02702703,,,,,,,,,,,,,6,1.736,0,9,9,48,1,,,,,,,,,,,,,,,,,,,,,,,,,,,,,,,,,,,,,,,,,,,,,,,,,,,,,,,,,,,,,,,,,,,,,,
,,,,1,1.744,,,,,,55,tomato,tree,,89457,001,2022-04-27_10h11.57.030,SPAMnetsValid,2021.1.4,MacIntel,27.02702703,,,,,,,,,,,,,1,1.744,0,10,10,35,1,,,,,,,,,,,,,,,,,,,,,,,,,,,,,,,,,,,,,,,,,,,,,,,,,,,,,,,,,,,,,,,,,,,,,,
,,,,4,2.918,,,,,,69,carrot,refrigerator,,89457,001,2022-04-27_10h11.57.030,SPAMnetsValid,2021.1.4,MacIntel,27.02702703,,,,,,,,,,,,,4,2.918,0,11,11,75,1,,,,,,,,,,,,,,,,,,,,,,,,,,,,,,,,,,,,,,,,,,,,,,,,,,,,,,,,,,,,,,,,,,,,,,
,,,,8,2.221,,,,,,30,cookie,pretzel,,89457,001,2022-04-27_10h11.57.030,SPAMnetsValid,2021.1.4,MacIntel,27.02702703,,,,,,,,,,,,,8,2.221,0,12,12,78,1,,,,,,,,,,,,,,,,,,,,,,,,,,,,,,,,,,,,,,,,,,,,,,,,,,,,,,,,,,,,,,,,,,,,,,
,,,,7,1.683,,,,,,43,chocolate,tomato,,89457,001,2022-04-27_10h11.57.030,SPAMnetsValid,2021.1.4,MacIntel,27.02702703,,,,,,,,,,,,,7,1.683,0,13,13,8,1,,,,,,,,,,,,,,,,,,,,,,,,,,,,,,,,,,,,,,,,,,,,,,,,,,,,,,,,,,,,,,,,,,,,,,
,,,,6,3.268,,,,,,2,kitchen,onion,,89457,001,2022-04-27_10h11.57.030,SPAMnetsValid,2021.1.4,MacIntel,27.02702703,,,,,,,,,,,,,6,3.268,0,14,14,91,1,,,,,,,,,,,,,,,,,,,,,,,,,,,,,,,,,,,,,,,,,,,,,,,,,,,,,,,,,,,,,,,,,,,,,,
,,,,1,3.999,,,,,,74,broom,pretzel,,89457,001,2022-04-27_10h11.57.030,SPAMnetsValid,2021.1.4,MacIntel,27.02702703,,,,,,,,,,,,,1,3.999,0,15,15,40,1,,,,,,,,,,,,,,,,,,,,,,,,,,,,,,,,,,,,,,,,,,,,,,,,,,,,,,,,,,,,,,,,,,,,,,
,,,,4,2.85,,,,,,32,cake,microwave,,89457,001,2022-04-27_10h11.57.030,SPAMnetsValid,2021.1.4,MacIntel,27.02702703,,,,,,,,,,,,,4,2.85,0,16,16,33,1,,,,,,,,,,,,,,,,,,,,,,,,,,,,,,,,,,,,,,,,,,,,,,,,,,,,,,,,,,,,,,,,,,,,,,
,,,,8,5.1,,,,,,36,broom,kitchen,,89457,001,2022-04-27_10h11.57.030,SPAMnetsValid,2021.1.4,MacIntel,27.02702703,,,,,,,,,,,,,8,5.1,0,17,17,76,1,,,,,,,,,,,,,,,,,,,,,,,,,,,,,,,,,,,,,,,,,,,,,,,,,,,,,,,,,,,,,,,,,,,,,,
,,,,7,3.328,,,,,,4,chocolate,pretzel,,89457,001,2022-04-27_10h11.57.030,SPAMnetsValid,2021.1.4,MacIntel,27.02702703,,,,,,,,,,,,,7,3.328,0,18,18,52,1,,,,,,,,,,,,,,,,,,,,,,,,,,,,,,,,,,,,,,,,,,,,,,,,,,,,,,,,,,,,,,,,,,,,,,
,,,,1,1.297,,,,,,31,cactus,pretzel,,89457,001,2022-04-27_10h11.57.030,SPAMnetsValid,2021.1.4,MacIntel,27.02702703,,,,,,,,,,,,,1,1.297,0,19,19,1,1,,,,,,,,,,,,,,,,,,,,,,,,,,,,,,,,,,,,,,,,,,,,,,,,,,,,,,,,,,,,,,,,,,,,,,
,,,,7,2.965,,,,,,77,refrigerator,yogurt,,89457,001,2022-04-27_10h11.57.030,SPAMnetsValid,2021.1.4,MacIntel,27.02702703,,,,,,,,,,,,,7,2.965,0,20,20,42,1,,,,,,,,,,,,,,,,,,,,,,,,,,,,,,,,,,,,,,,,,,,,,,,,,,,,,,,,,,,,,,,,,,,,,,
,,,,9,1.184,,,,,,192,microwave,microwave,CHECK,89457,001,2022-04-27_10h11.57.030,SPAMnetsValid,2021.1.4,MacIntel,27.02702703,,,,,,,,,,,,,9,1.184,0,21,21,53,1,,,,,,,,,,,,,,,,,,,,,,,,,,,,,,,,,,,,,,,,,,,,,,,,,,,,,,,,,,,,,,,,,,,,,,
,,,,1,3.288,,,,,,80,chocolate,tree,,89457,001,2022-04-27_10h11.57.030,SPAMnetsValid,2021.1.4,MacIntel,27.02702703,,,,,,,,,,,,,1,3.288,0,22,22,89,1,,,,,,,,,,,,,,,,,,,,,,,,,,,,,,,,,,,,,,,,,,,,,,,,,,,,,,,,,,,,,,,,,,,,,,
,,,,1,0.954,,,,,,14,broom,cookie,,89457,001,2022-04-27_10h11.57.030,SPAMnetsValid,2021.1.4,MacIntel,27.02702703,,,,,,,,,,,,,1,0.954,0,23,23,16,1,,,,,,,,,,,,,,,,,,,,,,,,,,,,,,,,,,,,,,,,,,,,,,,,,,,,,,,,,,,,,,,,,,,,,,
,,,,7,1.408,,,,,,24,cookie,tomato,,89457,001,2022-04-27_10h11.57.030,SPAMnetsValid,2021.1.4,MacIntel,27.02702703,,,,,,,,,,,,,7,1.408,0,24,24,68,1,,,,,,,,,,,,,,,,,,,,,,,,,,,,,,,,,,,,,,,,,,,,,,,,,,,,,,,,,,,,,,,,,,,,,,
,,,,6,2.405,,,,,,45,onion,pretzel,,89457,001,2022-04-27_10h11.57.030,SPAMnetsValid,2021.1.4,MacIntel,27.02702703,,,,,,,,,,,,,6,2.405,0,25,25,69,1,,,,,,,,,,,,,,,,,,,,,,,,,,,,,,,,,,,,,,,,,,,,,,,,,,,,,,,,,,,,,,,,,,,,,,
,,,,1,1.752,,,,,,7,melon,tree,,89457,001,2022-04-27_10h11.57.030,SPAMnetsValid,2021.1.4,MacIntel,27.02702703,,,,,,,,,,,,,1,1.752,0,26,26,77,1,,,,,,,,,,,,,,,,,,,,,,,,,,,,,,,,,,,,,,,,,,,,,,,,,,,,,,,,,,,,,,,,,,,,,,
,,,,1,1.028,,,,,,40,broom,cake,,89457,001,2022-04-27_10h11.57.030,SPAMnetsValid,2021.1.4,MacIntel,27.02702703,,,,,,,,,,,,,1,1.028,0,27,27,32,1,,,,,,,,,,,,,,,,,,,,,,,,,,,,,,,,,,,,,,,,,,,,,,,,,,,,,,,,,,,,,,,,,,,,,,
,,,,1,2.637,,,,,,33,oven,yogurt,,89457,001,2022-04-27_10h11.57.030,SPAMnetsValid,2021.1.4,MacIntel,27.02702703,,,,,,,,,,,,,1,2.637,0,28,28,31,1,,,,,,,,,,,,,,,,,,,,,,,,,,,,,,,,,,,,,,,,,,,,,,,,,,,,,,,,,,,,,,,,,,,,,,
,,,,1,1.202,,,,,,91,microwave,rose,,89457,001,2022-04-27_10h11.57.030,SPAMnetsValid,2021.1.4,MacIntel,27.02702703,,,,,,,,,,,,,1,1.202,0,29,29,84,1,,,,,,,,,,,,,,,,,,,,,,,,,,,,,,,,,,,,,,,,,,,,,,,,,,,,,,,,,,,,,,,,,,,,,,
,,,,1,2.454,,,,,,1,rose,yogurt,,89457,001,2022-04-27_10h11.57.030,SPAMnetsValid,2021.1.4,MacIntel,27.02702703,,,,,,,,,,,,,1,2.454,0,30,30,55,1,,,,,,,,,,,,,,,,,,,,,,,,,,,,,,,,,,,,,,,,,,,,,,,,,,,,,,,,,,,,,,,,,,,,,,
,,,,1,3.165,,,,,,95,broom,refrigerator,,89457,001,2022-04-27_10h11.57.030,SPAMnetsValid,2021.1.4,MacIntel,27.02702703,,,,,,,,,,,,,1,3.165,0,31,31,90,1,,,,,,,,,,,,,,,,,,,,,,,,,,,,,,,,,,,,,,,,,,,,,,,,,,,,,,,,,,,,,,,,,,,,,,
,,,,4,2.624,,,,,,44,cookie,melon,,89457,001,2022-04-27_10h11.57.030,SPAMnetsValid,2021.1.4,MacIntel,27.02702703,,,,,,,,,,,,,4,2.624,0,32,32,92,1,,,,,,,,,,,,,,,,,,,,,,,,,,,,,,,,,,,,,,,,,,,,,,,,,,,,,,,,,,,,,,,,,,,,,,
,,,,5,5.162,,,,,,26,tomato,yogurt,,89457,001,2022-04-27_10h11.57.030,SPAMnetsValid,2021.1.4,MacIntel,27.02702703,,,,,,,,,,,,,5,5.162,0,33,33,13,1,,,,,,,,,,,,,,,,,,,,,,,,,,,,,,,,,,,,,,,,,,,,,,,,,,,,,,,,,,,,,,,,,,,,,,
,,,,1,2.392,,,,,,68,flower,tomato,,89457,001,2022-04-27_10h11.57.030,SPAMnetsValid,2021.1.4,MacIntel,27.02702703,,,,,,,,,,,,,1,2.392,0,34,34,94,1,,,,,,,,,,,,,,,,,,,,,,,,,,,,,,,,,,,,,,,,,,,,,,,,,,,,,,,,,,,,,,,,,,,,,,
,,,,2,3.446,,,,,,20,rose,tree,,89457,001,2022-04-27_10h11.57.030,SPAMnetsValid,2021.1.4,MacIntel,27.02702703,,,,,,,,,,,,,2,3.446,0,35,35,66,1,,,,,,,,,,,,,,,,,,,,,,,,,,,,,,,,,,,,,,,,,,,,,,,,,,,,,,,,,,,,,,,,,,,,,,
,,,,8,2.129,,,,,,76,garden,rose,,89457,001,2022-04-27_10h11.57.030,SPAMnetsValid,2021.1.4,MacIntel,27.02702703,,,,,,,,,,,,,8,2.129,0,36,36,19,1,,,,,,,,,,,,,,,,,,,,,,,,,,,,,,,,,,,,,,,,,,,,,,,,,,,,,,,,,,,,,,,,,,,,,,
,,,,6,2.962,,,,,,38,pretzel,refrigerator,,89457,001,2022-04-27_10h11.57.030,SPAMnetsValid,2021.1.4,MacIntel,27.02702703,,,,,,,,,,,,,6,2.962,0,37,37,71,1,,,,,,,,,,,,,,,,,,,,,,,,,,,,,,,,,,,,,,,,,,,,,,,,,,,,,,,,,,,,,,,,,,,,,,
,,,,1,3.268,,,,,,64,chocolate,garden,,89457,001,2022-04-27_10h11.57.030,SPAMnetsValid,2021.1.4,MacIntel,27.02702703,,,,,,,,,,,,,1,3.268,0,38,38,14,1,,,,,,,,,,,,,,,,,,,,,,,,,,,,,,,,,,,,,,,,,,,,,,,,,,,,,,,,,,,,,,,,,,,,,,
,,,,1,1.479,,,,,,60,cactus,onion,,89457,001,2022-04-27_10h11.57.030,SPAMnetsValid,2021.1.4,MacIntel,27.02702703,,,,,,,,,,,,,1,1.479,0,39,39,81,1,,,,,,,,,,,,,,,,,,,,,,,,,,,,,,,,,,,,,,,,,,,,,,,,,,,,,,,,,,,,,,,,,,,,,,
,,,,1,1.084,,,,,,83,broom,carrot,,89457,001,2022-04-27_10h11.57.030,SPAMnetsValid,2021.1.4,MacIntel,27.02702703,,,,,,,,,,,,,1,1.084,0,40,40,4,1,,,,,,,,,,,,,,,,,,,,,,,,,,,,,,,,,,,,,,,,,,,,,,,,,,,,,,,,,,,,,,,,,,,,,,
,,,,7,2.066,,,,,,61,strawberry,tomato,,89457,001,2022-04-27_10h11.57.030,SPAMnetsValid,2021.1.4,MacIntel,27.02702703,,,,,,,,,,,,,7,2.066,0,41,41,80,1,,,,,,,,,,,,,,,,,,,,,,,,,,,,,,,,,,,,,,,,,,,,,,,,,,,,,,,,,,,,,,,,,,,,,,
,,,,8,1.62,,,,,,3,cake,oven,,89457,001,2022-04-27_10h11.57.030,SPAMnetsValid,2021.1.4,MacIntel,27.02702703,,,,,,,,,,,,,8,1.62,0,42,42,30,1,,,,,,,,,,,,,,,,,,,,,,,,,,,,,,,,,,,,,,,,,,,,,,,,,,,,,,,,,,,,,,,,,,,,,,
,,,,3,2.497,,,,,,62,kitchen,rose,,89457,001,2022-04-27_10h11.57.030,SPAMnetsValid,2021.1.4,MacIntel,27.02702703,,,,,,,,,,,,,3,2.497,0,43,43,57,1,,,,,,,,,,,,,,,,,,,,,,,,,,,,,,,,,,,,,,,,,,,,,,,,,,,,,,,,,,,,,,,,,,,,,,
,,,,1,1.784,,,,,,56,cactus,tree,,89457,001,2022-04-27_10h11.57.030,SPAMnetsValid,2021.1.4,MacIntel,27.02702703,,,,,,,,,,,,,1,1.784,0,44,44,21,1,,,,,,,,,,,,,,,,,,,,,,,,,,,,,,,,,,,,,,,,,,,,,,,,,,,,,,,,,,,,,,,,,,,,,,
,,,,6,1.582,,,,,,51,onion,strawberry,,89457,001,2022-04-27_10h11.57.030,SPAMnetsValid,2021.1.4,MacIntel,27.02702703,,,,,,,,,,,,,6,1.582,0,45,45,86,1,,,,,,,,,,,,,,,,,,,,,,,,,,,,,,,,,,,,,,,,,,,,,,,,,,,,,,,,,,,,,,,,,,,,,,
,,,,6,1.47,,,,,,89,chocolate,rose,,89457,001,2022-04-27_10h11.57.030,SPAMnetsValid,2021.1.4,MacIntel,27.02702703,,,,,,,,,,,,,6,1.47,0,46,46,60,1,,,,,,,,,,,,,,,,,,,,,,,,,,,,,,,,,,,,,,,,,,,,,,,,,,,,,,,,,,,,,,,,,,,,,,
,,,,1,1.591,,,,,,87,carrot,yogurt,,89457,001,2022-04-27_10h11.57.030,SPAMnetsValid,2021.1.4,MacIntel,27.02702703,,,,,,,,,,,,,1,1.591,0,47,47,6,1,,,,,,,,,,,,,,,,,,,,,,,,,,,,,,,,,,,,,,,,,,,,,,,,,,,,,,,,,,,,,,,,,,,,,,
,,,,6,4.513,,,,,,6,garden,onion,,89457,001,2022-04-27_10h11.57.030,SPAMnetsValid,2021.1.4,MacIntel,27.02702703,,,,,,,,,,,,,6,4.513,0,48,48,83,1,,,,,,,,,,,,,,,,,,,,,,,,,,,,,,,,,,,,,,,,,,,,,,,,,,,,,,,,,,,,,,,,,,,,,,
,,,,7,2.561,,,,,,94,kitchen,microwave,,89457,001,2022-04-27_10h11.57.030,SPAMnetsValid,2021.1.4,MacIntel,27.02702703,,,,,,,,,,,,,7,2.561,0,49,49,58,1,,,,,,,,,,,,,,,,,,,,,,,,,,,,,,,,,,,,,,,,,,,,,,,,,,,,,,,,,,,,,,,,,,,,,,
,,,,1,2.541,,,,,,10,flower,onion,,89457,001,2022-04-27_10h11.57.030,SPAMnetsValid,2021.1.4,MacIntel,27.02702703,,,,,,,,,,,,,1,2.541,0,50,50,45,1,,,,,,,,,,,,,,,,,,,,,,,,,,,,,,,,,,,,,,,,,,,,,,,,,,,,,,,,,,,,,,,,,,,,,,
,,,,1,1.248,,,,,,23,flower,microwave,,89457,001,2022-04-27_10h11.57.030,SPAMnetsValid,2021.1.4,MacIntel,27.02702703,,,,,,,,,,,,,1,1.248,0,51,51,25,1,,,,,,,,,,,,,,,,,,,,,,,,,,,,,,,,,,,,,,,,,,,,,,,,,,,,,,,,,,,,,,,,,,,,,,
,,,,1,1.328,,,,,,8,broom,melon,,89457,001,2022-04-27_10h11.57.030,SPAMnetsValid,2021.1.4,MacIntel,27.02702703,,,,,,,,,,,,,1,1.328,0,52,52,59,1,,,,,,,,,,,,,,,,,,,,,,,,,,,,,,,,,,,,,,,,,,,,,,,,,,,,,,,,,,,,,,,,,,,,,,
,,,,1,1.807,,,,,,75,cookie,onion,,89457,001,2022-04-27_10h11.57.030,SPAMnetsValid,2021.1.4,MacIntel,27.02702703,,,,,,,,,,,,,1,1.807,0,53,53,9,1,,,,,,,,,,,,,,,,,,,,,,,,,,,,,,,,,,,,,,,,,,,,,,,,,,,,,,,,,,,,,,,,,,,,,,
,,,,6,1.876,,,,,,28,cake,melon,,89457,001,2022-04-27_10h11.57.030,SPAMnetsValid,2021.1.4,MacIntel,27.02702703,,,,,,,,,,,,,6,1.876,0,54,54,54,1,,,,,,,,,,,,,,,,,,,,,,,,,,,,,,,,,,,,,,,,,,,,,,,,,,,,,,,,,,,,,,,,,,,,,,
,,,,1,1.173,,,,,,92,broom,flower,,89457,001,2022-04-27_10h11.57.030,SPAMnetsValid,2021.1.4,MacIntel,27.02702703,,,,,,,,,,,,,1,1.173,0,55,55,88,1,,,,,,,,,,,,,,,,,,,,,,,,,,,,,,,,,,,,,,,,,,,,,,,,,,,,,,,,,,,,,,,,,,,,,,
,,,,1,1.278,,,,,,34,melon,oven,,89457,001,2022-04-27_10h11.57.030,SPAMnetsValid,2021.1.4,MacIntel,27.02702703,,,,,,,,,,,,,1,1.278,0,56,56,7,1,,,,,,,,,,,,,,,,,,,,,,,,,,,,,,,,,,,,,,,,,,,,,,,,,,,,,,,,,,,,,,,,,,,,,,
,,,,1,1.948,,,,,,5,oven,tree,,89457,001,2022-04-27_10h11.57.030,SPAMnetsValid,2021.1.4,MacIntel,27.02702703,,,,,,,,,,,,,1,1.948,0,57,57,70,1,,,,,,,,,,,,,,,,,,,,,,,,,,,,,,,,,,,,,,,,,,,,,,,,,,,,,,,,,,,,,,,,,,,,,,
,,,,7,2.562,,,,,,15,onion,oven,,89457,001,2022-04-27_10h11.57.030,SPAMnetsValid,2021.1.4,MacIntel,27.02702703,,,,,,,,,,,,,7,2.562,0,58,58,39,1,,,,,,,,,,,,,,,,,,,,,,,,,,,,,,,,,,,,,,,,,,,,,,,,,,,,,,,,,,,,,,,,,,,,,,
,,,,1,1.386,,,,,,72,broom,onion,,89457,001,2022-04-27_10h11.57.030,SPAMnetsValid,2021.1.4,MacIntel,27.02702703,,,,,,,,,,,,,1,1.386,0,59,59,27,1,,,,,,,,,,,,,,,,,,,,,,,,,,,,,,,,,,,,,,,,,,,,,,,,,,,,,,,,,,,,,,,,,,,,,,
,,,,6,2.271,,,,,,82,cake,kitchen,,89457,001,2022-04-27_10h11.57.030,SPAMnetsValid,2021.1.4,MacIntel,27.02702703,,,,,,,,,,,,,6,2.271,0,60,60,96,1,,,,,,,,,,,,,,,,,,,,,,,,,,,,,,,,,,,,,,,,,,,,,,,,,,,,,,,,,,,,,,,,,,,,,,
,,,,1,2.002,,,,,,59,rose,strawberry,,89457,001,2022-04-27_10h11.57.030,SPAMnetsValid,2021.1.4,MacIntel,27.02702703,,,,,,,,,,,,,1,2.002,0,61,61,72,1,,,,,,,,,,,,,,,,,,,,,,,,,,,,,,,,,,,,,,,,,,,,,,,,,,,,,,,,,,,,,,,,,,,,,,
,,,,6,1.854,,,,,,17,carrot,melon,,89457,001,2022-04-27_10h11.57.030,SPAMnetsValid,2021.1.4,MacIntel,27.02702703,,,,,,,,,,,,,6,1.854,0,62,62,24,1,,,,,,,,,,,,,,,,,,,,,,,,,,,,,,,,,,,,,,,,,,,,,,,,,,,,,,,,,,,,,,,,,,,,,,
,,,,6,2.088,,,,,,18,onion,refrigerator,,89457,001,2022-04-27_10h11.57.030,SPAMnetsValid,2021.1.4,MacIntel,27.02702703,,,,,,,,,,,,,6,2.088,0,63,63,62,1,,,,,,,,,,,,,,,,,,,,,,,,,,,,,,,,,,,,,,,,,,,,,,,,,,,,,,,,,,,,,,,,,,,,,,
,,,,1,2.858,,,,,,46,garden,yogurt,,89457,001,2022-04-27_10h11.57.030,SPAMnetsValid,2021.1.4,MacIntel,27.02702703,,,,,,,,,,,,,1,2.858,0,64,64,65,1,,,,,,,,,,,,,,,,,,,,,,,,,,,,,,,,,,,,,,,,,,,,,,,,,,,,,,,,,,,,,,,,,,,,,,
,,,,6,1.744,,,,,,29,chocolate,melon,,89457,001,2022-04-27_10h11.57.030,SPAMnetsValid,2021.1.4,MacIntel,27.02702703,,,,,,,,,,,,,6,1.744,0,65,65,34,1,,,,,,,,,,,,,,,,,,,,,,,,,,,,,,,,,,,,,,,,,,,,,,,,,,,,,,,,,,,,,,,,,,,,,,
,,,,9,1,,,,,,191,cake,cake,CHECK,89457,001,2022-04-27_10h11.57.030,SPAMnetsValid,2021.1.4,MacIntel,27.02702703,,,,,,,,,,,,,9,1,0,66,66,10,1,,,,,,,,,,,,,,,,,,,,,,,,,,,,,,,,,,,,,,,,,,,,,,,,,,,,,,,,,,,,,,,,,,,,,,
,,,,7,2.324,,,,,,9,kitchen,refrigerator,,89457,001,2022-04-27_10h11.57.030,SPAMnetsValid,2021.1.4,MacIntel,27.02702703,,,,,,,,,,,,,7,2.324,0,67,67,64,1,,,,,,,,,,,,,,,,,,,,,,,,,,,,,,,,,,,,,,,,,,,,,,,,,,,,,,,,,,,,,,,,,,,,,,
,,,,1,1.247,,,,,,13,broom,yogurt,,89457,001,2022-04-27_10h11.57.030,SPAMnetsValid,2021.1.4,MacIntel,27.02702703,,,,,,,,,,,,,1,1.247,0,68,68,5,1,,,,,,,,,,,,,,,,,,,,,,,,,,,,,,,,,,,,,,,,,,,,,,,,,,,,,,,,,,,,,,,,,,,,,,
,,,,1,2.293,,,,,,88,cactus,melon,,89457,001,2022-04-27_10h11.57.030,SPAMnetsValid,2021.1.4,MacIntel,27.02702703,,,,,,,,,,,,,1,2.293,0,69,69,38,1,,,,,,,,,,,,,,,,,,,,,,,,,,,,,,,,,,,,,,,,,,,,,,,,,,,,,,,,,,,,,,,,,,,,,,
,,,,6,1.673,,,,,,22,kitchen,strawberry,,89457,001,2022-04-27_10h11.57.030,SPAMnetsValid,2021.1.4,MacIntel,27.02702703,,,,,,,,,,,,,6,1.673,0,70,70,2,1,,,,,,,,,,,,,,,,,,,,,,,,,,,,,,,,,,,,,,,,,,,,,,,,,,,,,,,,,,,,,,,,,,,,,,
,,,,1,2.676,,,,,,11,refrigerator,tree,,89457,001,2022-04-27_10h11.57.030,SPAMnetsValid,2021.1.4,MacIntel,27.02702703,,,,,,,,,,,,,1,2.676,0,71,71,43,1,,,,,,,,,,,,,,,,,,,,,,,,,,,,,,,,,,,,,,,,,,,,,,,,,,,,,,,,,,,,,,,,,,,,,,
,,,,6,1.525,,,,,,12,cookie,yogurt,,89457,001,2022-04-27_10h11.57.030,SPAMnetsValid,2021.1.4,MacIntel,27.02702703,,,,,,,,,,,,,6,1.525,0,72,72,36,1,,,,,,,,,,,,,,,,,,,,,,,,,,,,,,,,,,,,,,,,,,,,,,,,,,,,,,,,,,,,,,,,,,,,,,
,,,,7,2.021,,,,,,93,kitchen,oven,,89457,001,2022-04-27_10h11.57.030,SPAMnetsValid,2021.1.4,MacIntel,27.02702703,,,,,,,,,,,,,7,2.021,0,73,73,82,1,,,,,,,,,,,,,,,,,,,,,,,,,,,,,,,,,,,,,,,,,,,,,,,,,,,,,,,,,,,,,,,,,,,,,,
,,,,6,2.756,,,,,,47,onion,tomato,,89457,001,2022-04-27_10h11.57.030,SPAMnetsValid,2021.1.4,MacIntel,27.02702703,,,,,,,,,,,,,6,2.756,0,74,74,51,1,,,,,,,,,,,,,,,,,,,,,,,,,,,,,,,,,,,,,,,,,,,,,,,,,,,,,,,,,,,,,,,,,,,,,,
,,,,1,1.567,,,,,,85,cake,tree,,89457,001,2022-04-27_10h11.57.030,SPAMnetsValid,2021.1.4,MacIntel,27.02702703,,,,,,,,,,,,,1,1.567,0,75,75,18,1,,,,,,,,,,,,,,,,,,,,,,,,,,,,,,,,,,,,,,,,,,,,,,,,,,,,,,,,,,,,,,,,,,,,,,
,,,,6,2.11,,,,,,70,chocolate,onion,,89457,001,2022-04-27_10h11.57.030,SPAMnetsValid,2021.1.4,MacIntel,27.02702703,,,,,,,,,,,,,6,2.11,0,76,76,74,1,,,,,,,,,,,,,,,,,,,,,,,,,,,,,,,,,,,,,,,,,,,,,,,,,,,,,,,,,,,,,,,,,,,,,,
,,,,1,0.969,,,,,,71,broom,rose,,89457,001,2022-04-27_10h11.57.030,SPAMnetsValid,2021.1.4,MacIntel,27.02702703,,,,,,,,,,,,,1,0.969,0,77,77,61,1,,,,,,,,,,,,,,,,,,,,,,,,,,,,,,,,,,,,,,,,,,,,,,,,,,,,,,,,,,,,,,,,,,,,,,
,,,,6,4.231,,,,,,84,oven,tomato,,89457,001,2022-04-27_10h11.57.030,SPAMnetsValid,2021.1.4,MacIntel,27.02702703,,,,,,,,,,,,,6,4.231,0,78,78,28,1,,,,,,,,,,,,,,,,,,,,,,,,,,,,,,,,,,,,,,,,,,,,,,,,,,,,,,,,,,,,,,,,,,,,,,
,,,,6,3.439,,,,,,16,chocolate,flower,,89457,001,2022-04-27_10h11.57.030,SPAMnetsValid,2021.1.4,MacIntel,27.02702703,,,,,,,,,,,,,6,3.439,0,79,79,22,1,,,,,,,,,,,,,,,,,,,,,,,,,,,,,,,,,,,,,,,,,,,,,,,,,,,,,,,,,,,,,,,,,,,,,,
,,,,1,1.473,,,,,,78,cookie,rose,,89457,001,2022-04-27_10h11.57.030,SPAMnetsValid,2021.1.4,MacIntel,27.02702703,,,,,,,,,,,,,1,1.473,0,80,80,56,1,,,,,,,,,,,,,,,,,,,,,,,,,,,,,,,,,,,,,,,,,,,,,,,,,,,,,,,,,,,,,,,,,,,,,,
,,,,1,1.412,,,,,,27,cactus,cookie,,89457,001,2022-04-27_10h11.57.030,SPAMnetsValid,2021.1.4,MacIntel,27.02702703,,,,,,,,,,,,,1,1.412,0,81,81,17,1,,,,,,,,,,,,,,,,,,,,,,,,,,,,,,,,,,,,,,,,,,,,,,,,,,,,,,,,,,,,,,,,,,,,,,
,,,,1,1.249,,,,,,48,flower,oven,,89457,001,2022-04-27_10h11.57.030,SPAMnetsValid,2021.1.4,MacIntel,27.02702703,,,,,,,,,,,,,1,1.249,0,82,82,15,1,,,,,,,,,,,,,,,,,,,,,,,,,,,,,,,,,,,,,,,,,,,,,,,,,,,,,,,,,,,,,,,,,,,,,,
,,,,1,1.473,,,,,,90,cactus,cake,,89457,001,2022-04-27_10h11.57.030,SPAMnetsValid,2021.1.4,MacIntel,27.02702703,,,,,,,,,,,,,1,1.473,0,83,83,85,1,,,,,,,,,,,,,,,,,,,,,,,,,,,,,,,,,,,,,,,,,,,,,,,,,,,,,,,,,,,,,,,,,,,,,,
,,,,6,3.167,,,,,,39,melon,pretzel,,89457,001,2022-04-27_10h11.57.030,SPAMnetsValid,2021.1.4,MacIntel,27.02702703,,,,,,,,,,,,,6,3.167,0,84,84,20,1,,,,,,,,,,,,,,,,,,,,,,,,,,,,,,,,,,,,,,,,,,,,,,,,,,,,,,,,,,,,,,,,,,,,,,
,,,,1,3.237,,,,,,49,flower,strawberry,,89457,001,2022-04-27_10h11.57.030,SPAMnetsValid,2021.1.4,MacIntel,27.02702703,,,,,,,,,,,,,1,3.237,0,85,85,3,1,,,,,,,,,,,,,,,,,,,,,,,,,,,,,,,,,,,,,,,,,,,,,,,,,,,,,,,,,,,,,,,,,,,,,,
,,,,1,1.308,,,,,,42,garden,kitchen,,89457,001,2022-04-27_10h11.57.030,SPAMnetsValid,2021.1.4,MacIntel,27.02702703,,,,,,,,,,,,,1,1.308,0,86,86,29,1,,,,,,,,,,,,,,,,,,,,,,,,,,,,,,,,,,,,,,,,,,,,,,,,,,,,,,,,,,,,,,,,,,,,,,
,,,,6,2.109,,,,,,81,pretzel,yogurt,,89457,001,2022-04-27_10h11.57.030,SPAMnetsValid,2021.1.4,MacIntel,27.02702703,,,,,,,,,,,,,6,2.109,0,87,87,50,1,,,,,,,,,,,,,,,,,,,,,,,,,,,,,,,,,,,,,,,,,,,,,,,,,,,,,,,,,,,,,,,,,,,,,,
,,,,6,1.145,,,,,,52,carrot,tomato,,89457,001,2022-04-27_10h11.57.030,SPAMnetsValid,2021.1.4,MacIntel,27.02702703,,,,,,,,,,,,,6,1.145,0,88,88,95,1,,,,,,,,,,,,,,,,,,,,,,,,,,,,,,,,,,,,,,,,,,,,,,,,,,,,,,,,,,,,,,,,,,,,,,
,,,,6,1.923,,,,,,19,microwave,pretzel,,89457,001,2022-04-27_10h11.57.030,SPAMnetsValid,2021.1.4,MacIntel,27.02702703,,,,,,,,,,,,,6,1.923,0,89,89,41,1,,,,,,,,,,,,,,,,,,,,,,,,,,,,,,,,,,,,,,,,,,,,,,,,,,,,,,,,,,,,,,,,,,,,,,
,,,,6,2.779,,,,,,54,chocolate,yogurt,,89457,001,2022-04-27_10h11.57.030,SPAMnetsValid,2021.1.4,MacIntel,27.02702703,,,,,,,,,,,,,6,2.779,0,90,90,67,1,,,,,,,,,,,,,,,,,,,,,,,,,,,,,,,,,,,,,,,,,,,,,,,,,,,,,,,,,,,,,,,,,,,,,,
,,,,5,4.186,,,,,,65,broom,garden,,89457,001,2022-04-27_10h11.57.030,SPAMnetsValid,2021.1.4,MacIntel,27.02702703,,,,,,,,,,,,,5,4.186,0,91,91,23,1,,,,,,,,,,,,,,,,,,,,,,,,,,,,,,,,,,,,,,,,,,,,,,,,,,,,,,,,,,,,,,,,,,,,,,
,,,,5,5.43,,,,,,21,cake,onion,,89457,001,2022-04-27_10h11.57.030,SPAMnetsValid,2021.1.4,MacIntel,27.02702703,,,,,,,,,,,,,5,5.43,0,92,92,63,1,,,,,,,,,,,,,,,,,,,,,,,,,,,,,,,,,,,,,,,,,,,,,,,,,,,,,,,,,,,,,,,,,,,,,,
,,,,6,2.052,,,,,,25,carrot,onion,,89457,001,2022-04-27_10h11.57.030,SPAMnetsValid,2021.1.4,MacIntel,27.02702703,,,,,,,,,,,,,6,2.052,0,93,93,44,1,,,,,,,,,,,,,,,,,,,,,,,,,,,,,,,,,,,,,,,,,,,,,,,,,,,,,,,,,,,,,,,,,,,,,,
,,,,1,1.311,,,,,,67,flower,yogurt,,89457,001,2022-04-27_10h11.57.030,SPAMnetsValid,2021.1.4,MacIntel,27.02702703,,,,,,,,,,,,,1,1.311,0,94,94,12,1,,,,,,,,,,,,,,,,,,,,,,,,,,,,,,,,,,,,,,,,,,,,,,,,,,,,,,,,,,,,,,,,,,,,,,
,,,,1,2.695,,,,,,50,carrot,rose,,89457,001,2022-04-27_10h11.57.030,SPAMnetsValid,2021.1.4,MacIntel,27.02702703,,,,,,,,,,,,,1,2.695,0,95,95,73,1,,,,,,,,,,,,,,,,,,,,,,,,,,,,,,,,,,,,,,,,,,,,,,,,,,,,,,,,,,,,,,,,,,,,,,
,,,,1,1.494,,,,,,73,broom,chocolate,,89457,001,2022-04-27_10h11.57.030,SPAMnetsValid,2021.1.4,MacIntel,27.02702703,,,,,,,,,,,,,1,1.494,0,96,96,47,1,,,,,,,,,,,,,,,,,,,,,,,,,,,,,,,,,,,,,,,,,,,,,,,,,,,,,,,,,,,,,,,,,,,,,,
,,,,,,,,,,,,,,,89457,001,2022-04-27_10h11.57.030,SPAMnetsValid,2021.1.4,MacIntel,27.02702703,,,,,,,,,,,,,,,,,,,,0,0,0,0,1,,,,,,,,,,,,,,,,,,,,,,,,,,,,,,,,,,,,,,,,,,,,,,,,,,,,,,,,,,,,,,,,,
,,,,,,,,,,,,,,,89457,001,2022-04-27_10h11.57.030,SPAMnetsValid,2021.1.4,MacIntel,27.02702703,,,,,,0,1,1,0,1,1,0,,,,,,,,,,,,,,,,,,,,,,,,,,,,,,,,,,,,,,,,,,,,,,,,,,,,,,,,,,,,,,,,,,,,,,,,,,,,,
,,,,,,,,,,,,,,,89457,001,2022-04-27_10h11.57.030,SPAMnetsValid,2021.1.4,MacIntel,27.02702703,,,,,,,,,,,,,,,,,,,,,,,,,3,13.834,0,0,0,0,1,rancor,forbearance,ridicule,malice,bravery,3,,,,,,,,,,,,,,,,,,,,,,,,,,,,,,,,,,,,,,,,,,,,,,,,,,,,
,,,,,,,,,,,,,,,89457,001,2022-04-27_10h11.57.030,SPAMnetsValid,2021.1.4,MacIntel,27.02702703,,,,,,,,,,,,,,,,,,,,,,,,,3,9.148,0,1,1,1,1,raucous,empty,quiet,smooth,harsh,4,,,,,,,,,,,,,,,,,,,,,,,,,,,,,,,,,,,,,,,,,,,,,,,,,,,,
,,,,,,,,,,,,,,,89457,001,2022-04-27_10h11.57.030,SPAMnetsValid,2021.1.4,MacIntel,27.02702703,,,,,,,,,,,,,,,,,,,,,,,,,3,13.34,0,2,2,2,1,gargoyle,oil,medicine,carved waterspout,ugly building,3,,,,,,,,,,,,,,,,,,,,,,,,,,,,,,,,,,,,,,,,,,,,,,,,,,,,
,,,,,,,,,,,,,,,89457,001,2022-04-27_10h11.57.030,SPAMnetsValid,2021.1.4,MacIntel,27.02702703,,,,,,,,,,,,,,,,,,,,,,,,,3,9.139,0,3,3,3,1,recrudesce,purify,renew activity,lack refinement,crush,2,,,,,,,,,,,,,,,,,,,,,,,,,,,,,,,,,,,,,,,,,,,,,,,,,,,,
,,,,,,,,,,,,,,,89457,001,2022-04-27_10h11.57.030,SPAMnetsValid,2021.1.4,MacIntel,27.02702703,,,,,,,,,,,,,,,,,,,,,,,,,1,11.274,0,4,4,4,1,specious,"plausible, but not genuine",noteworthy,class or variety,roomy,1,,,,,,,,,,,,,,,,,,,,,,,,,,,,,,,,,,,,,,,,,,,,,,,,,,,,
,,,,,,,,,,,,,,,89457,001,2022-04-27_10h11.57.030,SPAMnetsValid,2021.1.4,MacIntel,27.02702703,,,,,,,,,,,,,,,,,,,,,,,,,3,7.466,0,5,5,5,1,bauble,bubble,showy plaything,idle talk,confusion,2,,,,,,,,,,,,,,,,,,,,,,,,,,,,,,,,,,,,,,,,,,,,,,,,,,,,
,,,,,,,,,,,,,,,89457,001,2022-04-27_10h11.57.030,SPAMnetsValid,2021.1.4,MacIntel,27.02702703,,,,,,,,,,,,,,,,,,,,,,,,,3,10.986,0,6,6,6,1,prolific,scarce,producing abundantly,reckless,speaking profanely,2,,,,,,,,,,,,,,,,,,,,,,,,,,,,,,,,,,,,,,,,,,,,,,,,,,,,
,,,,,,,,,,,,,,,89457,001,2022-04-27_10h11.57.030,SPAMnetsValid,2021.1.4,MacIntel,27.02702703,,,,,,,,,,,,,,,,,,,,,,,,,3,6.399,0,7,7,7,1,opulent,party,wealthy,happy frame of mind,semiprecious stone,2,,,,,,,,,,,,,,,,,,,,,,,,,,,,,,,,,,,,,,,,,,,,,,,,,,,,
,,,,,,,,,,,,,,,89457,001,2022-04-27_10h11.57.030,SPAMnetsValid,2021.1.4,MacIntel,27.02702703,,,,,,,,,,,,,,,,,,,,,,,,,3,7.827,0,8,8,8,1,coercion,conspiracy,strategy,restraint,attraction,3,,,,,,,,,,,,,,,,,,,,,,,,,,,,,,,,,,,,,,,,,,,,,,,,,,,,
,,,,,,,,,,,,,,,89457,001,2022-04-27_10h11.57.030,SPAMnetsValid,2021.1.4,MacIntel,27.02702703,,,,,,,,,,,,,,,,,,,,,,,,,3,10.859,0,9,9,9,1,hiatus,animal,calamity,dread,gap,4,,,,,,,,,,,,,,,,,,,,,,,,,,,,,,,,,,,,,,,,,,,,,,,,,,,,
,,,,,,,,,,,,,,,89457,001,2022-04-27_10h11.57.030,SPAMnetsValid,2021.1.4,MacIntel,27.02702703,,,,,,,,,,,,,,,,,,,,,,,,,2,8.865,0,10,10,10,1,germane,microbe,contagious,relevant,different,3,,,,,,,,,,,,,,,,,,,,,,,,,,,,,,,,,,,,,,,,,,,,,,,,,,,,
,,,,,,,,,,,,,,,89457,001,2022-04-27_10h11.57.030,SPAMnetsValid,2021.1.4,MacIntel,27.02702703,,,,,,,,,,,,,,,,,,,,,,,,,1,6.529,0,11,11,11,1,perfunctory,fundamental,formal,superficial,careful,3,,,,,,,,,,,,,,,,,,,,,,,,,,,,,,,,,,,,,,,,,,,,,,,,,,,,
,,,,,,,,,,,,,,,89457,001,2022-04-27_10h11.57.030,SPAMnetsValid,2021.1.4,MacIntel,27.02702703,,,,,,,,,,,,,,,,,,,,,,,,,4,5.15,0,12,12,12,1,diverge,reveal,chant,distract the attention of,differ or turn off from,4,,,,,,,,,,,,,,,,,,,,,,,,,,,,,,,,,,,,,,,,,,,,,,,,,,,,
,,,,,,,,,,,,,,,89457,001,2022-04-27_10h11.57.030,SPAMnetsValid,2021.1.4,MacIntel,27.02702703,,,,,,,,,,,,,,,,,,,,,,,,,4,4.296,0,13,13,13,1,evoke,take away,anger,connect,bring out,4,,,,,,,,,,,,,,,,,,,,,,,,,,,,,,,,,,,,,,,,,,,,,,,,,,,,
,,,,,,,,,,,,,,,89457,001,2022-04-27_10h11.57.030,SPAMnetsValid,2021.1.4,MacIntel,27.02702703,,,,,,,,,,,,,,,,,,,,,,,,,3,7.999,0,14,14,14,1,pertinent,relevant,lying next to,necessary,bold,1,,,,,,,,,,,,,,,,,,,,,,,,,,,,,,,,,,,,,,,,,,,,,,,,,,,,
,,,,,,,,,,,,,,,89457,001,2022-04-27_10h11.57.030,SPAMnetsValid,2021.1.4,MacIntel,27.02702703,,,,,,,,,,,,,,,,,,,,,,,,,2,4.008,0,15,15,15,1,holocaust,entirety,destruction,saintly,price,2,,,,,,,,,,,,,,,,,,,,,,,,,,,,,,,,,,,,,,,,,,,,,,,,,,,,
,,,,,,,,,,,,,,,89457,001,2022-04-27_10h11.57.030,SPAMnetsValid,2021.1.4,MacIntel,27.02702703,,,,,,,,,,,,,,,,,,,,,,,,,2,7.048,0,16,16,16,1,piquant,mellow,fish,pungent,cloth,3,,,,,,,,,,,,,,,,,,,,,,,,,,,,,,,,,,,,,,,,,,,,,,,,,,,,
,,,,,,,,,,,,,,,89457,001,2022-04-27_10h11.57.030,SPAMnetsValid,2021.1.4,MacIntel,27.02702703,,,,,,,,,,,,,,,,,,,,,,,,,3,7.399,0,17,17,17,1,firmament,foundation,heavens,strong,glue,2,,,,,,,,,,,,,,,,,,,,,,,,,,,,,,,,,,,,,,,,,,,,,,,,,,,,
,,,,,,,,,,,,,,,89457,001,2022-04-27_10h11.57.030,SPAMnetsValid,2021.1.4,MacIntel,27.02702703,,,,,,,,,,,,,,,,,,,,,,,,,,,,,,,,,,,,,,4,4.563,0,0,0,0,1,marketable,partisan,jocular,marriageable,salable,essential,4,,,,,,,,,,,,,,,,,,,,,,,,,,,,,,,,,,,,,,
,,,,,,,,,,,,,,,89457,001,2022-04-27_10h11.57.030,SPAMnetsValid,2021.1.4,MacIntel,27.02702703,,,,,,,,,,,,,,,,,,,,,,,,,,,,,,,,,,,,,,4,8.614,0,1,1,1,1,cottontail,squirrel,poplar,boa,marshy plant,rabbit,5,,,,,,,,,,,,,,,,,,,,,,,,,,,,,,,,,,,,,,
,,,,,,,,,,,,,,,89457,001,2022-04-27_10h11.57.030,SPAMnetsValid,2021.1.4,MacIntel,27.02702703,,,,,,,,,,,,,,,,,,,,,,,,,,,,,,,,,,,,,,3,6.284,0,2,2,2,1,boggy,afraid,false,marshy,dense,black,3,,,,,,,,,,,,,,,,,,,,,,,,,,,,,,,,,,,,,,
,,,,,,,,,,,,,,,89457,001,2022-04-27_10h11.57.030,SPAMnetsValid,2021.1.4,MacIntel,27.02702703,,,,,,,,,,,,,,,,,,,,,,,,,,,,,,,,,,,,,,3,15.492,0,3,3,3,1,gruesomeness,blackness,falseness,vindictiveness,drunkenness,ghastliness,5,,,,,,,,,,,,,,,,,,,,,,,,,,,,,,,,,,,,,,
,,,,,,,,,,,,,,,89457,001,2022-04-27_10h11.57.030,SPAMnetsValid,2021.1.4,MacIntel,27.02702703,,,,,,,,,,,,,,,,,,,,,,,,,,,,,,,,,,,,,,2,5.64,0,4,4,4,1,loathing,diffidence,laziness,abhorrence,cleverness,comfort,3,,,,,,,,,,,,,,,,,,,,,,,,,,,,,,,,,,,,,,
,,,,,,,,,,,,,,,89457,001,2022-04-27_10h11.57.030,SPAMnetsValid,2021.1.4,MacIntel,27.02702703,,,,,,,,,,,,,,,,,,,,,,,,,,,,,,,,,,,,,,5,7.716,0,5,5,5,1,bantam,fowl,ridicule,cripple,vegetable,ensign,1,,,,,,,,,,,,,,,,,,,,,,,,,,,,,,,,,,,,,,
,,,,,,,,,,,,,,,89457,001,2022-04-27_10h11.57.030,SPAMnetsValid,2021.1.4,MacIntel,27.02702703,,,,,,,,,,,,,,,,,,,,,,,,,,,,,,,,,,,,,,5,8.693,0,6,6,6,1,evoke,wake up,surrender,reconnoiter,transcend,call forth,5,,,,,,,,,,,,,,,,,,,,,,,,,,,,,,,,,,,,,,
,,,,,,,,,,,,,,,89457,001,2022-04-27_10h11.57.030,SPAMnetsValid,2021.1.4,MacIntel,27.02702703,,,,,,,,,,,,,,,,,,,,,,,,,,,,,,,,,,,,,,5,16.633,0,7,7,7,1,unobtrusive,unintelligent,epileptic,illogical,lineal,modest,5,,,,,,,,,,,,,,,,,,,,,,,,,,,,,,,,,,,,,,
,,,,,,,,,,,,,,,89457,001,2022-04-27_10h11.57.030,SPAMnetsValid,2021.1.4,MacIntel,27.02702703,,,,,,,,,,,,,,,,,,,,,,,,,,,,,,,,,,,,,,4,2.575,0,8,8,8,1,terrain,ice cream,final test,tractor,area of ground,weight,4,,,,,,,,,,,,,,,,,,,,,,,,,,,,,,,,,,,,,,
,,,,,,,,,,,,,,,89457,001,2022-04-27_10h11.57.030,SPAMnetsValid,2021.1.4,MacIntel,27.02702703,,,,,,,,,,,,,,,,,,,,,,,,,,,,,,,,,,,,,,1,5.224,0,9,9,9,1,capriciousness,stubbornness,courage,whimsicality,amazement,greediness,3,,,,,,,,,,,,,,,,,,,,,,,,,,,,,,,,,,,,,,
,,,,,,,,,,,,,,,89457,001,2022-04-27_10h11.57.030,SPAMnetsValid,2021.1.4,MacIntel,27.02702703,,,,,,,,,,,,,,,,,,,,,,,,,,,,,,,,,,,,,,3,16.461,0,10,10,10,1,maelstrom,slander,whirlpool,enmity,armor,majolica,2,,,,,,,,,,,,,,,,,,,,,,,,,,,,,,,,,,,,,,
,,,,,,,,,,,,,,,89457,001,2022-04-27_10h11.57.030,SPAMnetsValid,2021.1.4,MacIntel,27.02702703,,,,,,,,,,,,,,,,,,,,,,,,,,,,,,,,,,,,,,2,8.121,0,11,11,11,1,tentative,critical,conclusive,authentic,provisional,apprehensive,4,,,,,,,,,,,,,,,,,,,,,,,,,,,,,,,,,,,,,,
,,,,,,,,,,,,,,,89457,001,2022-04-27_10h11.57.030,SPAMnetsValid,2021.1.4,MacIntel,27.02702703,,,,,,,,,,,,,,,,,,,,,,,,,,,,,,,,,,,,,,1,10.316,0,12,12,12,1,placate,rehabilitate,plagiarize,depredate,apprise,conciliate,5,,,,,,,,,,,,,,,,,,,,,,,,,,,,,,,,,,,,,,
,,,,,,,,,,,,,,,89457,001,2022-04-27_10h11.57.030,SPAMnetsValid,2021.1.4,MacIntel,27.02702703,,,,,,,,,,,,,,,,,,,,,,,,,,,,,,,,,,,,,,2,75.648,0,13,13,13,1,surcease,enlightenment,cessation,inattention,censor,substitution,2,,,,,,,,,,,,,,,,,,,,,,,,,,,,,,,,,,,,,,
,,,,,,,,,,,,,,,89457,001,2022-04-27_10h11.57.030,SPAMnetsValid,2021.1.4,MacIntel,27.02702703,,,,,,,,,,,,,,,,,,,,,,,,,,,,,,,,,,,,,,3,4.396,0,14,14,14,1,apathetic,wandering,impassive,hateful,prophetic,overflowing,2,,,,,,,,,,,,,,,,,,,,,,,,,,,,,,,,,,,,,,
,,,,,,,,,,,,,,,89457,001,2022-04-27_10h11.57.030,SPAMnetsValid,2021.1.4,MacIntel,27.02702703,,,,,,,,,,,,,,,,,,,,,,,,,,,,,,,,,,,,,,5,30.332,0,15,15,15,1,paternoster,paternalism,patricide,malediction,benediction,prayer,5,,,,,,,,,,,,,,,,,,,,,,,,,,,,,,,,,,,,,,
,,,,,,,,,,,,,,,89457,001,2022-04-27_10h11.57.030,SPAMnetsValid,2021.1.4,MacIntel,27.02702703,,,,,,,,,,,,,,,,,,,,,,,,,,,,,,,,,,,,,,1,6.299,0,16,16,16,1,opalescence,opulence,senescence,bankruptcy,iridescence,assiduity,4,,,,,,,,,,,,,,,,,,,,,,,,,,,,,,,,,,,,,,
,,,,,,,,,,,,,,,89457,001,2022-04-27_10h11.57.030,SPAMnetsValid,2021.1.4,MacIntel,27.02702703,,,,,,,,,,,,,,,,,,,,,,,,,,,,,,,,,,,,,,5,5.461,0,17,17,17,1,lush,stupid,luxurious,hazy,putrid,languishing,2,,,,,,,,,,,,,,,,,,,,,,,,,,,,,,,,,,,,,,
,,,,,,,,,,,,,,,89457,001,2022-04-27_10h11.57.030,SPAMnetsValid,2021.1.4,MacIntel,27.02702703,,,,,,,,,,,,,,,,,,,,,,,,,,,,,,,,,,,,,,4,3.963,0,18,18,18,1,curtailment,expenditure,abandonment,abridgment,improvement,forgery,3,,,,,,,,,,,,,,,,,,,,,,,,,,,,,,,,,,,,,,
,,,,,,,,,,,,,,,89457,001,2022-04-27_10h11.57.030,SPAMnetsValid,2021.1.4,MacIntel,27.02702703,,,,,,,,,,,,,,,,,,,,,,,,,,,,,,,,,,,,,,2,7.212,0,19,19,19,1,perversity,adversity,perviousness,travesty,waywardness,gentility,4,,,,,,,,,,,,,,,,,,,,,,,,,,,,,,,,,,,,,,
,,,,,,,,,,,,,,,89457,001,2022-04-27_10h11.57.030,SPAMnetsValid,2021.1.4,MacIntel,27.02702703,,,,,,,,,,,,,,,,,,,,,,,,,,,,,,,,,,,,,,,,0,20,20,20,1,calumnious,complimentary,analogous,slanderous,tempestuous,magnanimous,3,,,,,,,,,,,,,,,,,,,,,,,,,,,,,,,,,,,,,,
,,,,,,,,,,,,,,,89457,001,2022-04-27_10h11.57.030,SPAMnetsValid,2021.1.4,MacIntel,27.02702703,,,,,,,,,,,,,,,,,,,,,,,,,,,,,,,,,,,,,,,,,,,,,,,,,,,," to sit on, to fight ",pillow,0,0,0,0,1,,,,,,,,,,,,,,,,,,,,,,,,,,,,,,,
,,,,,,,,,,,,,,,89457,001,2022-04-27_10h11.57.030,SPAMnetsValid,2021.1.4,MacIntel,27.02702703,,,,,,,,,,,,,,,,,,,,,,,,,,,,,,,,,,,,,,,,,,,,,,,,,,,,"to sit on, to fight",pillow,1,0,1,0,1,,,,,,,,,,,,,,,,,,,,,,,,,,,,,,,
,,,,,,,,,,,,,,,89457,001,2022-04-27_10h11.57.030,SPAMnetsValid,2021.1.4,MacIntel,27.02702703,,,,,,,,,,,,,,,,,,,,,,,,,,,,,,,,,,,,,,,,,,,,,,,,,,,,"to sit on, to fight    ",pillow,2,0,2,0,1,,,,,,,,,,,,,,,,,,,,,,,,,,,,,,,
,,,,,,,,,,,,,,,89457,001,2022-04-27_10h11.57.030,SPAMnetsValid,2021.1.4,MacIntel,27.02702703,,,,,,,,,,,,,,,,,,,,,,,,,,,,,,,,,,,,,,,,,,,,,,,,,,,,"to sit on, to fight, substutute for backpack, ",pillow,3,0,3,0,1,,,,,,,,,,,,,,,,,,,,,,,,,,,,,,,
,,,,,,,,,,,,,,,89457,001,2022-04-27_10h11.57.030,SPAMnetsValid,2021.1.4,MacIntel,27.02702703,,,,,,,,,,,,,,,,,,,,,,,,,,,,,,,,,,,,,,,,,,,,,,,,,,,,,pillow,4,0,4,0,1,,,,,,,,,,,,,,,,,,,,,,,,,,,,,,,
,,,,,,,,,,,,,,,89457,001,2022-04-27_10h11.57.030,SPAMnetsValid,2021.1.4,MacIntel,27.02702703,,,,,,,,,,,,,,,,,,,,,,,,,,,,,,,,,,,,,,,,,,,,,,,,,,,,,pillow,5,0,5,0,1,,,,,,,,,,,,,,,,,,,,,,,,,,,,,,,
,,,,,,,,,,,,,,,89457,001,2022-04-27_10h11.57.030,SPAMnetsValid,2021.1.4,MacIntel,27.02702703,,,,,,,,,,,,,,,,,,,,,,,,,,,,,,,,,,,,,,,,,,,,,,,,,,,,,,,,,,,0,0,0,2,1,pillow,,,,,,,,,,,,,,,,,,,,,,,,,
,,,,,,,,,,,,,,,89457,001,2022-04-27_10h11.57.030,SPAMnetsValid,2021.1.4,MacIntel,27.02702703,,,,,,,,,,,,,,,,,,,,,,,,,,,,,,,,,,,,,,,,,,,,,,,,,,,,"a hat, a handbag, a chair, a bowl, ",bucket,0,0,0,0,1,,,,,,,,,,,,,,,,,,,,,,,,,,,,,,,
,,,,,,,,,,,,,,,89457,001,2022-04-27_10h11.57.030,SPAMnetsValid,2021.1.4,MacIntel,27.02702703,,,,,,,,,,,,,,,,,,,,,,,,,,,,,,,,,,,,,,,,,,,,,,,,,,,,,,,,,,,0,1,1,0,1,bucket,,,,,,,,,,,,,,,,,,,,,,,,,
,,,,,,,,,,,,,,,89457,001,2022-04-27_10h11.57.030,SPAMnetsValid,2021.1.4,MacIntel,27.02702703,,,,,,,,,,,,,,,,,,,,,,,,,,,,,,,,,,,,,,,,,,,,,,,,,,,,"a phonestand, to paint with, ",candle,0,0,0,0,1,,,,,,,,,,,,,,,,,,,,,,,,,,,,,,,
,,,,,,,,,,,,,,,89457,001,2022-04-27_10h11.57.030,SPAMnetsValid,2021.1.4,MacIntel,27.02702703,,,,,,,,,,,,,,,,,,,,,,,,,,,,,,,,,,,,,,,,,,,,,,,,,,,,,,,,,,,0,2,2,1,1,candle,,,,,,,,,,,,,,,,,,,,,,,,,
,,,,,,,,,,,,,,,89457,001,2022-04-27_10h11.57.030,SPAMnetsValid,2021.1.4,MacIntel,27.02702703,,,,,,,,,,,,,,,,,,,,,,,,,,,,,,,,,,,,,,,,,,,,,,,,,,,,,,,,,,,,,,,,,dog,Animals,0,0,0,0,1,,,,,,,,,,,,,,,,,,
,,,,,,,,,,,,,,,89457,001,2022-04-27_10h11.57.030,SPAMnetsValid,2021.1.4,MacIntel,27.02702703,,,,,,,,,,,,,,,,,,,,,,,,,,,,,,,,,,,,,,,,,,,,,,,,,,,,,,,,,,,,,,,,,cat,Animals,1,0,1,0,1,,,,,,,,,,,,,,,,,,
,,,,,,,,,,,,,,,89457,001,2022-04-27_10h11.57.030,SPAMnetsValid,2021.1.4,MacIntel,27.02702703,,,,,,,,,,,,,,,,,,,,,,,,,,,,,,,,,,,,,,,,,,,,,,,,,,,,,,,,,,,,,,,,,fox,Animals,2,0,2,0,1,,,,,,,,,,,,,,,,,,
,,,,,,,,,,,,,,,89457,001,2022-04-27_10h11.57.030,SPAMnetsValid,2021.1.4,MacIntel,27.02702703,,,,,,,,,,,,,,,,,,,,,,,,,,,,,,,,,,,,,,,,,,,,,,,,,,,,,,,,,,,,,,,,,bear,Animals,3,0,3,0,1,,,,,,,,,,,,,,,,,,
,,,,,,,,,,,,,,,89457,001,2022-04-27_10h11.57.030,SPAMnetsValid,2021.1.4,MacIntel,27.02702703,,,,,,,,,,,,,,,,,,,,,,,,,,,,,,,,,,,,,,,,,,,,,,,,,,,,,,,,,,,,,,,,,lion,Animals,4,0,4,0,1,,,,,,,,,,,,,,,,,,
,,,,,,,,,,,,,,,89457,001,2022-04-27_10h11.57.030,SPAMnetsValid,2021.1.4,MacIntel,27.02702703,,,,,,,,,,,,,,,,,,,,,,,,,,,,,,,,,,,,,,,,,,,,,,,,,,,,,,,,,,,,,,,,,giraffe,Animals,5,0,5,0,1,,,,,,,,,,,,,,,,,,
,,,,,,,,,,,,,,,89457,001,2022-04-27_10h11.57.030,SPAMnetsValid,2021.1.4,MacIntel,27.02702703,,,,,,,,,,,,,,,,,,,,,,,,,,,,,,,,,,,,,,,,,,,,,,,,,,,,,,,,,,,,,,,,,monkey,Animals,6,0,6,0,1,,,,,,,,,,,,,,,,,,
,,,,,,,,,,,,,,,89457,001,2022-04-27_10h11.57.030,SPAMnetsValid,2021.1.4,MacIntel,27.02702703,,,,,,,,,,,,,,,,,,,,,,,,,,,,,,,,,,,,,,,,,,,,,,,,,,,,,,,,,,,,,,,,,squirrel,Animals,7,0,7,0,1,,,,,,,,,,,,,,,,,,
,,,,,,,,,,,,,,,89457,001,2022-04-27_10h11.57.030,SPAMnetsValid,2021.1.4,MacIntel,27.02702703,,,,,,,,,,,,,,,,,,,,,,,,,,,,,,,,,,,,,,,,,,,,,,,,,,,,,,,,,,,,,,,,,bird,Animals,8,0,8,0,1,,,,,,,,,,,,,,,,,,
,,,,,,,,,,,,,,,89457,001,2022-04-27_10h11.57.030,SPAMnetsValid,2021.1.4,MacIntel,27.02702703,,,,,,,,,,,,,,,,,,,,,,,,,,,,,,,,,,,,,,,,,,,,,,,,,,,,,,,,,,,,,,,,,rabbit,Animals,9,0,9,0,1,,,,,,,,,,,,,,,,,,
,,,,,,,,,,,,,,,89457,001,2022-04-27_10h11.57.030,SPAMnetsValid,2021.1.4,MacIntel,27.02702703,,,,,,,,,,,,,,,,,,,,,,,,,,,,,,,,,,,,,,,,,,,,,,,,,,,,,,,,,,,,,,,,,dolphin,Animals,10,0,10,0,1,,,,,,,,,,,,,,,,,,
,,,,,,,,,,,,,,,89457,001,2022-04-27_10h11.57.030,SPAMnetsValid,2021.1.4,MacIntel,27.02702703,,,,,,,,,,,,,,,,,,,,,,,,,,,,,,,,,,,,,,,,,,,,,,,,,,,,,,,,,,,,,,,,,shark,Animals,11,0,11,0,1,,,,,,,,,,,,,,,,,,
,,,,,,,,,,,,,,,89457,001,2022-04-27_10h11.57.030,SPAMnetsValid,2021.1.4,MacIntel,27.02702703,,,,,,,,,,,,,,,,,,,,,,,,,,,,,,,,,,,,,,,,,,,,,,,,,,,,,,,,,,,,,,,,,squid,Animals,12,0,12,0,1,,,,,,,,,,,,,,,,,,
,,,,,,,,,,,,,,,89457,001,2022-04-27_10h11.57.030,SPAMnetsValid,2021.1.4,MacIntel,27.02702703,,,,,,,,,,,,,,,,,,,,,,,,,,,,,,,,,,,,,,,,,,,,,,,,,,,,,,,,,,,,,,,,,horse,Animals,13,0,13,0,1,,,,,,,,,,,,,,,,,,
,,,,,,,,,,,,,,,89457,001,2022-04-27_10h11.57.030,SPAMnetsValid,2021.1.4,MacIntel,27.02702703,,,,,,,,,,,,,,,,,,,,,,,,,,,,,,,,,,,,,,,,,,,,,,,,,,,,,,,,,,,,,,,,,pig,Animals,14,0,14,0,1,,,,,,,,,,,,,,,,,,
,,,,,,,,,,,,,,,89457,001,2022-04-27_10h11.57.030,SPAMnetsValid,2021.1.4,MacIntel,27.02702703,,,,,,,,,,,,,,,,,,,,,,,,,,,,,,,,,,,,,,,,,,,,,,,,,,,,,,,,,,,,,,,,,cow,Animals,15,0,15,0,1,,,,,,,,,,,,,,,,,,
,,,,,,,,,,,,,,,89457,001,2022-04-27_10h11.57.030,SPAMnetsValid,2021.1.4,MacIntel,27.02702703,,,,,,,,,,,,,,,,,,,,,,,,,,,,,,,,,,,,,,,,,,,,,,,,,,,,,,,,,,,,,,,,,chicken,Animals,16,0,16,0,1,,,,,,,,,,,,,,,,,,
,,,,,,,,,,,,,,,89457,001,2022-04-27_10h11.57.030,SPAMnetsValid,2021.1.4,MacIntel,27.02702703,,,,,,,,,,,,,,,,,,,,,,,,,,,,,,,,,,,,,,,,,,,,,,,,,,,,,,,,,,,,,,,,,,,,,,,,0,0,0,0,1,Animals,,,,,,,,,,,,
,,,,,,,,,,,,,,,89457,001,2022-04-27_10h11.57.030,SPAMnetsValid,2021.1.4,MacIntel,27.02702703,,,,,,,,,,,,,,,,,,,,,,,,,,,,,,,,,,,,,,,,,,,,,,,,,,,,,,,,,,,,,,,,,,,,,,,,,,,,,,4,5.441,0,0,0,0,1,"I enjoy concentrating on a fantasy or daydream and exploring all its possibilities, letting it grow and develop.",0,1,,
,,,,,,,,,,,,,,,89457,001,2022-04-27_10h11.57.030,SPAMnetsValid,2021.1.4,MacIntel,27.02702703,,,,,,,,,,,,,,,,,,,,,,,,,,,,,,,,,,,,,,,,,,,,,,,,,,,,,,,,,,,,,,,,,,,,,,,,,,,,,,4,2.932,0,1,1,1,1,I think it's interesting to learn and develop new hobbies.,0,2,,
,,,,,,,,,,,,,,,89457,001,2022-04-27_10h11.57.030,SPAMnetsValid,2021.1.4,MacIntel,27.02702703,,,,,,,,,,,,,,,,,,,,,,,,,,,,,,,,,,,,,,,,,,,,,,,,,,,,,,,,,,,,,,,,,,,,,,,,,,,,,,2,5.381,0,2,2,2,1,I am intrigued by the patterns I find in art and nature.,0,3,,
,,,,,,,,,,,,,,,89457,001,2022-04-27_10h11.57.030,SPAMnetsValid,2021.1.4,MacIntel,27.02702703,,,,,,,,,,,,,,,,,,,,,,,,,,,,,,,,,,,,,,,,,,,,,,,,,,,,,,,,,,,,,,,,,,,,,,,,,,,,,,2,9.312,0,3,3,3,1,I believe letting students hear controversial speakers can only confuse and mislead them.,1,4,,
,,,,,,,,,,,,,,,89457,001,2022-04-27_10h11.57.030,SPAMnetsValid,2021.1.4,MacIntel,27.02702703,,,,,,,,,,,,,,,,,,,,,,,,,,,,,,,,,,,,,,,,,,,,,,,,,,,,,,,,,,,,,,,,,,,,,,,,,,,,,,3,2.752,0,4,4,4,1,Poetry has little or no effect on me.,1,5,,
,,,,,,,,,,,,,,,89457,001,2022-04-27_10h11.57.030,SPAMnetsValid,2021.1.4,MacIntel,27.02702703,,,,,,,,,,,,,,,,,,,,,,,,,,,,,,,,,,,,,,,,,,,,,,,,,,,,,,,,,,,,,,,,,,,,,,,,,,,,,,2,7.655,0,5,5,5,1,I would have difficulty just letting my mind wander without control or guidance.,1,6,,
,,,,,,,,,,,,,,,89457,001,2022-04-27_10h11.57.030,SPAMnetsValid,2021.1.4,MacIntel,27.02702703,,,,,,,,,,,,,,,,,,,,,,,,,,,,,,,,,,,,,,,,,,,,,,,,,,,,,,,,,,,,,,,,,,,,,,,,,,,,,,4,4.909,0,6,6,6,1,I seldom notice the moods or feelings that different environments produce.,1,7,,
,,,,,,,,,,,,,,,89457,001,2022-04-27_10h11.57.030,SPAMnetsValid,2021.1.4,MacIntel,27.02702703,,,,,,,,,,,,,,,,,,,,,,,,,,,,,,,,,,,,,,,,,,,,,,,,,,,,,,,,,,,,,,,,,,,,,,,,,,,,,,4,2.193,0,7,7,7,1,I experience a wide range of emotions or feelings.,0,8,,
,,,,,,,,,,,,,,,89457,001,2022-04-27_10h11.57.030,SPAMnetsValid,2021.1.4,MacIntel,27.02702703,,,,,,,,,,,,,,,,,,,,,,,,,,,,,,,,,,,,,,,,,,,,,,,,,,,,,,,,,,,,,,,,,,,,,,,,,,,,,,3,7.054,0,8,8,8,1,"Sometimes when I am reading poetry or looking at a work of art, I feel a chill or wave of excitement.",0,9,,
,,,,,,,,,,,,,,,89457,001,2022-04-27_10h11.57.030,SPAMnetsValid,2021.1.4,MacIntel,27.02702703,,,,,,,,,,,,,,,,,,,,,,,,,,,,,,,,,,,,,,,,,,,,,,,,,,,,,,,,,,,,,,,,,,,,,,,,,,,,,,4,6.23,0,9,9,9,1,I have little interest in speculating on the nature of the universe or the human condition.,1,10,,
,,,,,,,,,,,,,,,89457,001,2022-04-27_10h11.57.030,SPAMnetsValid,2021.1.4,MacIntel,27.02702703,,,,,,,,,,,,,,,,,,,,,,,,,,,,,,,,,,,,,,,,,,,,,,,,,,,,,,,,,,,,,,,,,,,,,,,,,,,,,,3,2.044,0,10,10,10,1,I have a lot of intellectual curiosity.,0,11,,
,,,,,,,,,,,,,,,89457,001,2022-04-27_10h11.57.030,SPAMnetsValid,2021.1.4,MacIntel,27.02702703,,,,,,,,,,,,,,,,,,,,,,,,,,,,,,,,,,,,,,,,,,,,,,,,,,,,,,,,,,,,,,,,,,,,,,,,,,,,,,2,6.175,0,11,11,11,1,I often enjoy playing with theories or abstract ideas.,0,12,,
,,,,,,,,,,,,,,,89457,001,2022-04-27_10h11.57.030,SPAMnetsValid,2021.1.4,MacIntel,27.02702703,,,,,,,,,,,,,,,,,,,,,,,,,,,,,,,,,,,,,,,,,,,,,,,,,,,,,,,,,,,,,,,,,,,,,,,,,,,,,,,,,,,,,,,,return,7.757
