key_resp_3.keys,key_resp_3.rt,slider_2.response,slider_2.rt,rjt_rating,rjt_RT,trials_24.thisRepN,trials_24.thisTrialN,trials_24.thisN,trials_24.thisIndex,trials_24.ran,rjt_order,word1,word2,attention,participant,session,date,expName,psychopyVersion,OS,frameRate,trials_4.thisRepN,trials_4.thisTrialN,trials_4.thisN,trials_4.thisIndex,trials_4.ran,trials_5.thisRepN,trials_5.thisTrialN,trials_5.thisN,trials_5.thisIndex,trials_5.ran,repOne,repTwo,slider.response,slider.rt,trials_22.thisRepN,trials_22.thisTrialN,trials_22.thisN,trials_22.thisIndex,trials_22.ran,trials_99.thisRepN,trials_99.thisTrialN,trials_99.thisN,trials_99.thisIndex,trials_99.ran,slider_extend_2.response,slider_extend_2.rt,trials_6.thisRepN,trials_6.thisTrialN,trials_6.thisN,trials_6.thisIndex,trials_6.ran,vCue2,R1,R2,R3,R4,correct,sliderVocab.response,sliderVocab.rt,trials_7.thisRepN,trials_7.thisTrialN,trials_7.thisN,trials_7.thisIndex,trials_7.ran,VocabCue,VR1,VR2,VR3,VR4,VR5,VocabCorrect,AUT_resp,AUT_label,trials.thisRepN,trials.thisTrialN,trials.thisN,trials.thisIndex,trials.ran,trials_2.thisRepN,trials_2.thisTrialN,trials_2.thisN,trials_2.thisIndex,trials_2.ran,aut_prompt,VF_response,VF_tag,trials_16.thisRepN,trials_16.thisTrialN,trials_16.thisN,trials_16.thisIndex,trials_16.ran,trials_17.thisRepN,trials_17.thisTrialN,trials_17.thisN,trials_17.thisIndex,trials_17.ran,VFcond,open_slider.response,open_slider.rt,trials_3.thisRepN,trials_3.thisTrialN,trials_3.thisN,trials_3.thisIndex,trials_3.ran,OpenQ,Rev,OPEN_ORDER,key_resp_2.keys,key_resp_2.rt
return,10.408,7,8.592,7,8.592,0,0,0,11,1,117,melon,strawberry,,89499,001,2022-04-26_19h02.02.474,SPAMnetsValid,2021.1.4,MacIntel,30.3030303,,,,,,,,,,,,,,,,,,,,,,,,,,,,,,,,,,,,,,,,,,,,,,,,,,,,,,,,,,,,,,,,,,,,,,,,,,,,,,,,,,,,,,,,,
,,5,5.438,5,5.438,0,1,1,93,1,134,carrot,flower,,89499,001,2022-04-26_19h02.02.474,SPAMnetsValid,2021.1.4,MacIntel,30.3030303,,,,,,,,,,,,,,,,,,,,,,,,,,,,,,,,,,,,,,,,,,,,,,,,,,,,,,,,,,,,,,,,,,,,,,,,,,,,,,,,,,,,,,,,,
,,6,0.96,6,0.96,0,2,2,83,1,100,garden,tomato,,89499,001,2022-04-26_19h02.02.474,SPAMnetsValid,2021.1.4,MacIntel,30.3030303,,,,,,,,,,,,,,,,,,,,,,,,,,,,,,,,,,,,,,,,,,,,,,,,,,,,,,,,,,,,,,,,,,,,,,,,,,,,,,,,,,,,,,,,,
,,6,0.373,6,0.373,0,3,3,19,1,183,cake,rose,,89499,001,2022-04-26_19h02.02.474,SPAMnetsValid,2021.1.4,MacIntel,30.3030303,,,,,,,,,,,,,,,,,,,,,,,,,,,,,,,,,,,,,,,,,,,,,,,,,,,,,,,,,,,,,,,,,,,,,,,,,,,,,,,,,,,,,,,,,
,,6,0.028,6,0.028,0,4,4,44,1,116,cake,chocolate,,89499,001,2022-04-26_19h02.02.474,SPAMnetsValid,2021.1.4,MacIntel,30.3030303,,,,,,,,,,,,,,,,,,,,,,,,,,,,,,,,,,,,,,,,,,,,,,,,,,,,,,,,,,,,,,,,,,,,,,,,,,,,,,,,,,,,,,,,,
,,6,0.173,6,0.173,0,5,5,13,1,105,cactus,oven,,89499,001,2022-04-26_19h02.02.474,SPAMnetsValid,2021.1.4,MacIntel,30.3030303,,,,,,,,,,,,,,,,,,,,,,,,,,,,,,,,,,,,,,,,,,,,,,,,,,,,,,,,,,,,,,,,,,,,,,,,,,,,,,,,,,,,,,,,,
,,6,0.062,6,0.062,0,6,6,54,1,101,cactus,kitchen,,89499,001,2022-04-26_19h02.02.474,SPAMnetsValid,2021.1.4,MacIntel,30.3030303,,,,,,,,,,,,,,,,,,,,,,,,,,,,,,,,,,,,,,,,,,,,,,,,,,,,,,,,,,,,,,,,,,,,,,,,,,,,,,,,,,,,,,,,,
,,6,0.057,6,0.057,0,7,7,34,1,153,carrot,pretzel,,89499,001,2022-04-26_19h02.02.474,SPAMnetsValid,2021.1.4,MacIntel,30.3030303,,,,,,,,,,,,,,,,,,,,,,,,,,,,,,,,,,,,,,,,,,,,,,,,,,,,,,,,,,,,,,,,,,,,,,,,,,,,,,,,,,,,,,,,,
,,6,0.15,6,0.15,0,8,8,92,1,170,cookie,microwave,,89499,001,2022-04-26_19h02.02.474,SPAMnetsValid,2021.1.4,MacIntel,30.3030303,,,,,,,,,,,,,,,,,,,,,,,,,,,,,,,,,,,,,,,,,,,,,,,,,,,,,,,,,,,,,,,,,,,,,,,,,,,,,,,,,,,,,,,,,
,,7,0.945,7,0.945,0,9,9,26,1,107,rose,tomato,,89499,001,2022-04-26_19h02.02.474,SPAMnetsValid,2021.1.4,MacIntel,30.3030303,,,,,,,,,,,,,,,,,,,,,,,,,,,,,,,,,,,,,,,,,,,,,,,,,,,,,,,,,,,,,,,,,,,,,,,,,,,,,,,,,,,,,,,,,
,,7,0.357,7,0.357,0,10,10,96,1,136,chocolate,microwave,,89499,001,2022-04-26_19h02.02.474,SPAMnetsValid,2021.1.4,MacIntel,30.3030303,,,,,,,,,,,,,,,,,,,,,,,,,,,,,,,,,,,,,,,,,,,,,,,,,,,,,,,,,,,,,,,,,,,,,,,,,,,,,,,,,,,,,,,,,
,,7,0.64,7,0.64,0,11,11,73,1,135,carrot,oven,,89499,001,2022-04-26_19h02.02.474,SPAMnetsValid,2021.1.4,MacIntel,30.3030303,,,,,,,,,,,,,,,,,,,,,,,,,,,,,,,,,,,,,,,,,,,,,,,,,,,,,,,,,,,,,,,,,,,,,,,,,,,,,,,,,,,,,,,,,
,,7,3.125,7,3.125,0,12,12,51,1,168,cactus,flower,,89499,001,2022-04-26_19h02.02.474,SPAMnetsValid,2021.1.4,MacIntel,30.3030303,,,,,,,,,,,,,,,,,,,,,,,,,,,,,,,,,,,,,,,,,,,,,,,,,,,,,,,,,,,,,,,,,,,,,,,,,,,,,,,,,,,,,,,,,
,,6,0.777,6,0.777,0,13,13,14,1,120,microwave,oven,,89499,001,2022-04-26_19h02.02.474,SPAMnetsValid,2021.1.4,MacIntel,30.3030303,,,,,,,,,,,,,,,,,,,,,,,,,,,,,,,,,,,,,,,,,,,,,,,,,,,,,,,,,,,,,,,,,,,,,,,,,,,,,,,,,,,,,,,,,
,,6,0.323,6,0.323,0,14,14,48,1,186,kitchen,yogurt,,89499,001,2022-04-26_19h02.02.474,SPAMnetsValid,2021.1.4,MacIntel,30.3030303,,,,,,,,,,,,,,,,,,,,,,,,,,,,,,,,,,,,,,,,,,,,,,,,,,,,,,,,,,,,,,,,,,,,,,,,,,,,,,,,,,,,,,,,,
,,6,0.24,6,0.24,0,15,15,37,1,139,carrot,strawberry,,89499,001,2022-04-26_19h02.02.474,SPAMnetsValid,2021.1.4,MacIntel,30.3030303,,,,,,,,,,,,,,,,,,,,,,,,,,,,,,,,,,,,,,,,,,,,,,,,,,,,,,,,,,,,,,,,,,,,,,,,,,,,,,,,,,,,,,,,,
,,5,0.391,5,0.391,0,16,16,86,1,193,melon,melon,CHECK,89499,001,2022-04-26_19h02.02.474,SPAMnetsValid,2021.1.4,MacIntel,30.3030303,,,,,,,,,,,,,,,,,,,,,,,,,,,,,,,,,,,,,,,,,,,,,,,,,,,,,,,,,,,,,,,,,,,,,,,,,,,,,,,,,,,,,,,,,
,,6,0.493,6,0.493,0,17,17,59,1,164,cookie,garden,,89499,001,2022-04-26_19h02.02.474,SPAMnetsValid,2021.1.4,MacIntel,30.3030303,,,,,,,,,,,,,,,,,,,,,,,,,,,,,,,,,,,,,,,,,,,,,,,,,,,,,,,,,,,,,,,,,,,,,,,,,,,,,,,,,,,,,,,,,
,,7,0.292,7,0.292,0,18,18,24,1,169,onion,yogurt,,89499,001,2022-04-26_19h02.02.474,SPAMnetsValid,2021.1.4,MacIntel,30.3030303,,,,,,,,,,,,,,,,,,,,,,,,,,,,,,,,,,,,,,,,,,,,,,,,,,,,,,,,,,,,,,,,,,,,,,,,,,,,,,,,,,,,,,,,,
,,5,0.642,5,0.642,0,19,19,88,1,171,cake,tomato,,89499,001,2022-04-26_19h02.02.474,SPAMnetsValid,2021.1.4,MacIntel,30.3030303,,,,,,,,,,,,,,,,,,,,,,,,,,,,,,,,,,,,,,,,,,,,,,,,,,,,,,,,,,,,,,,,,,,,,,,,,,,,,,,,,,,,,,,,,
,,7,0.426,7,0.426,0,20,20,74,1,128,melon,microwave,,89499,001,2022-04-26_19h02.02.474,SPAMnetsValid,2021.1.4,MacIntel,30.3030303,,,,,,,,,,,,,,,,,,,,,,,,,,,,,,,,,,,,,,,,,,,,,,,,,,,,,,,,,,,,,,,,,,,,,,,,,,,,,,,,,,,,,,,,,
,,7,0.257,7,0.257,0,21,21,94,1,133,cake,flower,,89499,001,2022-04-26_19h02.02.474,SPAMnetsValid,2021.1.4,MacIntel,30.3030303,,,,,,,,,,,,,,,,,,,,,,,,,,,,,,,,,,,,,,,,,,,,,,,,,,,,,,,,,,,,,,,,,,,,,,,,,,,,,,,,,,,,,,,,,
,,6,0.345,6,0.345,0,22,22,35,1,147,cake,refrigerator,,89499,001,2022-04-26_19h02.02.474,SPAMnetsValid,2021.1.4,MacIntel,30.3030303,,,,,,,,,,,,,,,,,,,,,,,,,,,,,,,,,,,,,,,,,,,,,,,,,,,,,,,,,,,,,,,,,,,,,,,,,,,,,,,,,,,,,,,,,
,,8,0.821,8,0.821,0,23,23,33,1,131,cactus,garden,,89499,001,2022-04-26_19h02.02.474,SPAMnetsValid,2021.1.4,MacIntel,30.3030303,,,,,,,,,,,,,,,,,,,,,,,,,,,,,,,,,,,,,,,,,,,,,,,,,,,,,,,,,,,,,,,,,,,,,,,,,,,,,,,,,,,,,,,,,
,,8,0.287,8,0.287,0,24,24,23,1,148,flower,melon,,89499,001,2022-04-26_19h02.02.474,SPAMnetsValid,2021.1.4,MacIntel,30.3030303,,,,,,,,,,,,,,,,,,,,,,,,,,,,,,,,,,,,,,,,,,,,,,,,,,,,,,,,,,,,,,,,,,,,,,,,,,,,,,,,,,,,,,,,,
,,8,0.272,8,0.272,0,25,25,72,1,181,carrot,kitchen,,89499,001,2022-04-26_19h02.02.474,SPAMnetsValid,2021.1.4,MacIntel,30.3030303,,,,,,,,,,,,,,,,,,,,,,,,,,,,,,,,,,,,,,,,,,,,,,,,,,,,,,,,,,,,,,,,,,,,,,,,,,,,,,,,,,,,,,,,,
,,8,0.357,8,0.357,0,26,26,18,1,119,strawberry,tree,,89499,001,2022-04-26_19h02.02.474,SPAMnetsValid,2021.1.4,MacIntel,30.3030303,,,,,,,,,,,,,,,,,,,,,,,,,,,,,,,,,,,,,,,,,,,,,,,,,,,,,,,,,,,,,,,,,,,,,,,,,,,,,,,,,,,,,,,,,
,,6,0.793,6,0.793,0,27,27,79,1,103,pretzel,tomato,,89499,001,2022-04-26_19h02.02.474,SPAMnetsValid,2021.1.4,MacIntel,30.3030303,,,,,,,,,,,,,,,,,,,,,,,,,,,,,,,,,,,,,,,,,,,,,,,,,,,,,,,,,,,,,,,,,,,,,,,,,,,,,,,,,,,,,,,,,
,,6,0.256,6,0.256,0,28,28,0,1,106,cake,strawberry,,89499,001,2022-04-26_19h02.02.474,SPAMnetsValid,2021.1.4,MacIntel,30.3030303,,,,,,,,,,,,,,,,,,,,,,,,,,,,,,,,,,,,,,,,,,,,,,,,,,,,,,,,,,,,,,,,,,,,,,,,,,,,,,,,,,,,,,,,,
,,7,0.722,7,0.722,0,29,29,57,1,127,cactus,chocolate,,89499,001,2022-04-26_19h02.02.474,SPAMnetsValid,2021.1.4,MacIntel,30.3030303,,,,,,,,,,,,,,,,,,,,,,,,,,,,,,,,,,,,,,,,,,,,,,,,,,,,,,,,,,,,,,,,,,,,,,,,,,,,,,,,,,,,,,,,,
,,7,0.553,7,0.553,0,30,30,56,1,113,refrigerator,strawberry,,89499,001,2022-04-26_19h02.02.474,SPAMnetsValid,2021.1.4,MacIntel,30.3030303,,,,,,,,,,,,,,,,,,,,,,,,,,,,,,,,,,,,,,,,,,,,,,,,,,,,,,,,,,,,,,,,,,,,,,,,,,,,,,,,,,,,,,,,,
,,7,0.288,7,0.288,0,31,31,32,1,182,flower,refrigerator,,89499,001,2022-04-26_19h02.02.474,SPAMnetsValid,2021.1.4,MacIntel,30.3030303,,,,,,,,,,,,,,,,,,,,,,,,,,,,,,,,,,,,,,,,,,,,,,,,,,,,,,,,,,,,,,,,,,,,,,,,,,,,,,,,,,,,,,,,,
,,8,0.288,8,0.288,0,32,32,41,1,175,melon,onion,,89499,001,2022-04-26_19h02.02.474,SPAMnetsValid,2021.1.4,MacIntel,30.3030303,,,,,,,,,,,,,,,,,,,,,,,,,,,,,,,,,,,,,,,,,,,,,,,,,,,,,,,,,,,,,,,,,,,,,,,,,,,,,,,,,,,,,,,,,
,,7,0.773,7,0.773,0,33,33,25,1,194,cactus,cactus,CHECK,89499,001,2022-04-26_19h02.02.474,SPAMnetsValid,2021.1.4,MacIntel,30.3030303,,,,,,,,,,,,,,,,,,,,,,,,,,,,,,,,,,,,,,,,,,,,,,,,,,,,,,,,,,,,,,,,,,,,,,,,,,,,,,,,,,,,,,,,,
,,7,0.656,7,0.656,0,34,34,90,1,190,microwave,strawberry,,89499,001,2022-04-26_19h02.02.474,SPAMnetsValid,2021.1.4,MacIntel,30.3030303,,,,,,,,,,,,,,,,,,,,,,,,,,,,,,,,,,,,,,,,,,,,,,,,,,,,,,,,,,,,,,,,,,,,,,,,,,,,,,,,,,,,,,,,,
,,6,0.541,6,0.541,0,35,35,53,1,177,chocolate,strawberry,,89499,001,2022-04-26_19h02.02.474,SPAMnetsValid,2021.1.4,MacIntel,30.3030303,,,,,,,,,,,,,,,,,,,,,,,,,,,,,,,,,,,,,,,,,,,,,,,,,,,,,,,,,,,,,,,,,,,,,,,,,,,,,,,,,,,,,,,,,
,,6,0.255,6,0.255,0,36,36,42,1,184,oven,pretzel,,89499,001,2022-04-26_19h02.02.474,SPAMnetsValid,2021.1.4,MacIntel,30.3030303,,,,,,,,,,,,,,,,,,,,,,,,,,,,,,,,,,,,,,,,,,,,,,,,,,,,,,,,,,,,,,,,,,,,,,,,,,,,,,,,,,,,,,,,,
,,6,0.274,6,0.274,0,37,37,17,1,99,garden,melon,,89499,001,2022-04-26_19h02.02.474,SPAMnetsValid,2021.1.4,MacIntel,30.3030303,,,,,,,,,,,,,,,,,,,,,,,,,,,,,,,,,,,,,,,,,,,,,,,,,,,,,,,,,,,,,,,,,,,,,,,,,,,,,,,,,,,,,,,,,
,,7,0.393,7,0.393,0,38,38,12,1,162,microwave,tomato,,89499,001,2022-04-26_19h02.02.474,SPAMnetsValid,2021.1.4,MacIntel,30.3030303,,,,,,,,,,,,,,,,,,,,,,,,,,,,,,,,,,,,,,,,,,,,,,,,,,,,,,,,,,,,,,,,,,,,,,,,,,,,,,,,,,,,,,,,,
,,7,0.208,7,0.208,0,39,39,5,1,108,carrot,chocolate,,89499,001,2022-04-26_19h02.02.474,SPAMnetsValid,2021.1.4,MacIntel,30.3030303,,,,,,,,,,,,,,,,,,,,,,,,,,,,,,,,,,,,,,,,,,,,,,,,,,,,,,,,,,,,,,,,,,,,,,,,,,,,,,,,,,,,,,,,,
,,7,0.241,7,0.241,0,40,40,64,1,157,refrigerator,rose,,89499,001,2022-04-26_19h02.02.474,SPAMnetsValid,2021.1.4,MacIntel,30.3030303,,,,,,,,,,,,,,,,,,,,,,,,,,,,,,,,,,,,,,,,,,,,,,,,,,,,,,,,,,,,,,,,,,,,,,,,,,,,,,,,,,,,,,,,,
,,6,0.774,6,0.774,0,41,41,43,1,185,cactus,rose,,89499,001,2022-04-26_19h02.02.474,SPAMnetsValid,2021.1.4,MacIntel,30.3030303,,,,,,,,,,,,,,,,,,,,,,,,,,,,,,,,,,,,,,,,,,,,,,,,,,,,,,,,,,,,,,,,,,,,,,,,,,,,,,,,,,,,,,,,,
,,7,0.459,7,0.459,0,42,42,58,1,144,cake,garden,,89499,001,2022-04-26_19h02.02.474,SPAMnetsValid,2021.1.4,MacIntel,30.3030303,,,,,,,,,,,,,,,,,,,,,,,,,,,,,,,,,,,,,,,,,,,,,,,,,,,,,,,,,,,,,,,,,,,,,,,,,,,,,,,,,,,,,,,,,
,,7,0.308,7,0.308,0,43,43,78,1,132,broom,tree,,89499,001,2022-04-26_19h02.02.474,SPAMnetsValid,2021.1.4,MacIntel,30.3030303,,,,,,,,,,,,,,,,,,,,,,,,,,,,,,,,,,,,,,,,,,,,,,,,,,,,,,,,,,,,,,,,,,,,,,,,,,,,,,,,,,,,,,,,,
,,7,0.224,7,0.224,0,44,44,91,1,166,cake,yogurt,,89499,001,2022-04-26_19h02.02.474,SPAMnetsValid,2021.1.4,MacIntel,30.3030303,,,,,,,,,,,,,,,,,,,,,,,,,,,,,,,,,,,,,,,,,,,,,,,,,,,,,,,,,,,,,,,,,,,,,,,,,,,,,,,,,,,,,,,,,
,,7,0.221,7,0.221,0,45,45,22,1,142,garden,tree,,89499,001,2022-04-26_19h02.02.474,SPAMnetsValid,2021.1.4,MacIntel,30.3030303,,,,,,,,,,,,,,,,,,,,,,,,,,,,,,,,,,,,,,,,,,,,,,,,,,,,,,,,,,,,,,,,,,,,,,,,,,,,,,,,,,,,,,,,,
,,7,0.542,7,0.542,0,46,46,55,1,143,pretzel,rose,,89499,001,2022-04-26_19h02.02.474,SPAMnetsValid,2021.1.4,MacIntel,30.3030303,,,,,,,,,,,,,,,,,,,,,,,,,,,,,,,,,,,,,,,,,,,,,,,,,,,,,,,,,,,,,,,,,,,,,,,,,,,,,,,,,,,,,,,,,
,,5,0.795,5,0.795,0,47,47,39,1,112,cake,carrot,,89499,001,2022-04-26_19h02.02.474,SPAMnetsValid,2021.1.4,MacIntel,30.3030303,,,,,,,,,,,,,,,,,,,,,,,,,,,,,,,,,,,,,,,,,,,,,,,,,,,,,,,,,,,,,,,,,,,,,,,,,,,,,,,,,,,,,,,,,
,,5,0.222,5,0.222,0,48,48,29,1,163,melon,refrigerator,,89499,001,2022-04-26_19h02.02.474,SPAMnetsValid,2021.1.4,MacIntel,30.3030303,,,,,,,,,,,,,,,,,,,,,,,,,,,,,,,,,,,,,,,,,,,,,,,,,,,,,,,,,,,,,,,,,,,,,,,,,,,,,,,,,,,,,,,,,
,,5,0.207,5,0.207,0,49,49,47,1,167,carrot,garden,,89499,001,2022-04-26_19h02.02.474,SPAMnetsValid,2021.1.4,MacIntel,30.3030303,,,,,,,,,,,,,,,,,,,,,,,,,,,,,,,,,,,,,,,,,,,,,,,,,,,,,,,,,,,,,,,,,,,,,,,,,,,,,,,,,,,,,,,,,
,,6,0.174,6,0.174,0,50,50,1,1,173,kitchen,tomato,,89499,001,2022-04-26_19h02.02.474,SPAMnetsValid,2021.1.4,MacIntel,30.3030303,,,,,,,,,,,,,,,,,,,,,,,,,,,,,,,,,,,,,,,,,,,,,,,,,,,,,,,,,,,,,,,,,,,,,,,,,,,,,,,,,,,,,,,,,
,,6,0.174,6,0.174,0,51,51,76,1,102,chocolate,refrigerator,,89499,001,2022-04-26_19h02.02.474,SPAMnetsValid,2021.1.4,MacIntel,30.3030303,,,,,,,,,,,,,,,,,,,,,,,,,,,,,,,,,,,,,,,,,,,,,,,,,,,,,,,,,,,,,,,,,,,,,,,,,,,,,,,,,,,,,,,,,
,,6,0.222,6,0.222,0,52,52,89,1,140,cookie,refrigerator,,89499,001,2022-04-26_19h02.02.474,SPAMnetsValid,2021.1.4,MacIntel,30.3030303,,,,,,,,,,,,,,,,,,,,,,,,,,,,,,,,,,,,,,,,,,,,,,,,,,,,,,,,,,,,,,,,,,,,,,,,,,,,,,,,,,,,,,,,,
,,6,0.041,6,0.041,0,53,53,10,1,118,chocolate,oven,,89499,001,2022-04-26_19h02.02.474,SPAMnetsValid,2021.1.4,MacIntel,30.3030303,,,,,,,,,,,,,,,,,,,,,,,,,,,,,,,,,,,,,,,,,,,,,,,,,,,,,,,,,,,,,,,,,,,,,,,,,,,,,,,,,,,,,,,,,
,,6,0.156,6,0.156,0,54,54,2,1,174,cake,pretzel,,89499,001,2022-04-26_19h02.02.474,SPAMnetsValid,2021.1.4,MacIntel,30.3030303,,,,,,,,,,,,,,,,,,,,,,,,,,,,,,,,,,,,,,,,,,,,,,,,,,,,,,,,,,,,,,,,,,,,,,,,,,,,,,,,,,,,,,,,,
,,7,0.12,7,0.12,0,55,55,6,1,151,microwave,onion,,89499,001,2022-04-26_19h02.02.474,SPAMnetsValid,2021.1.4,MacIntel,30.3030303,,,,,,,,,,,,,,,,,,,,,,,,,,,,,,,,,,,,,,,,,,,,,,,,,,,,,,,,,,,,,,,,,,,,,,,,,,,,,,,,,,,,,,,,,
,,7,0.093,7,0.093,0,56,56,16,1,111,carrot,microwave,,89499,001,2022-04-26_19h02.02.474,SPAMnetsValid,2021.1.4,MacIntel,30.3030303,,,,,,,,,,,,,,,,,,,,,,,,,,,,,,,,,,,,,,,,,,,,,,,,,,,,,,,,,,,,,,,,,,,,,,,,,,,,,,,,,,,,,,,,,
,,7,0.121,7,0.121,0,57,57,7,1,188,flower,tree,,89499,001,2022-04-26_19h02.02.474,SPAMnetsValid,2021.1.4,MacIntel,30.3030303,,,,,,,,,,,,,,,,,,,,,,,,,,,,,,,,,,,,,,,,,,,,,,,,,,,,,,,,,,,,,,,,,,,,,,,,,,,,,,,,,,,,,,,,,
,,7,0.187,7,0.187,0,58,58,38,1,155,carrot,cookie,,89499,001,2022-04-26_19h02.02.474,SPAMnetsValid,2021.1.4,MacIntel,30.3030303,,,,,,,,,,,,,,,,,,,,,,,,,,,,,,,,,,,,,,,,,,,,,,,,,,,,,,,,,,,,,,,,,,,,,,,,,,,,,,,,,,,,,,,,,
,,8,0.755,8,0.755,0,59,59,9,1,176,cactus,tomato,,89499,001,2022-04-26_19h02.02.474,SPAMnetsValid,2021.1.4,MacIntel,30.3030303,,,,,,,,,,,,,,,,,,,,,,,,,,,,,,,,,,,,,,,,,,,,,,,,,,,,,,,,,,,,,,,,,,,,,,,,,,,,,,,,,,,,,,,,,
,,8,0.221,8,0.221,0,60,60,8,1,97,chocolate,kitchen,,89499,001,2022-04-26_19h02.02.474,SPAMnetsValid,2021.1.4,MacIntel,30.3030303,,,,,,,,,,,,,,,,,,,,,,,,,,,,,,,,,,,,,,,,,,,,,,,,,,,,,,,,,,,,,,,,,,,,,,,,,,,,,,,,,,,,,,,,,
,,7,0.525,7,0.525,0,61,61,45,1,179,broom,oven,,89499,001,2022-04-26_19h02.02.474,SPAMnetsValid,2021.1.4,MacIntel,30.3030303,,,,,,,,,,,,,,,,,,,,,,,,,,,,,,,,,,,,,,,,,,,,,,,,,,,,,,,,,,,,,,,,,,,,,,,,,,,,,,,,,,,,,,,,,
,,7,0.141,7,0.141,0,62,62,15,1,145,cactus,yogurt,,89499,001,2022-04-26_19h02.02.474,SPAMnetsValid,2021.1.4,MacIntel,30.3030303,,,,,,,,,,,,,,,,,,,,,,,,,,,,,,,,,,,,,,,,,,,,,,,,,,,,,,,,,,,,,,,,,,,,,,,,,,,,,,,,,,,,,,,,,
,,3,0.821,3,0.821,0,63,63,62,1,189,onion,tree,,89499,001,2022-04-26_19h02.02.474,SPAMnetsValid,2021.1.4,MacIntel,30.3030303,,,,,,,,,,,,,,,,,,,,,,,,,,,,,,,,,,,,,,,,,,,,,,,,,,,,,,,,,,,,,,,,,,,,,,,,,,,,,,,,,,,,,,,,,
,,3,0.222,3,0.222,0,64,64,77,1,172,kitchen,melon,,89499,001,2022-04-26_19h02.02.474,SPAMnetsValid,2021.1.4,MacIntel,30.3030303,,,,,,,,,,,,,,,,,,,,,,,,,,,,,,,,,,,,,,,,,,,,,,,,,,,,,,,,,,,,,,,,,,,,,,,,,,,,,,,,,,,,,,,,,
,,3,0.657,3,0.657,0,65,65,20,1,149,broom,tomato,,89499,001,2022-04-26_19h02.02.474,SPAMnetsValid,2021.1.4,MacIntel,30.3030303,,,,,,,,,,,,,,,,,,,,,,,,,,,,,,,,,,,,,,,,,,,,,,,,,,,,,,,,,,,,,,,,,,,,,,,,,,,,,,,,,,,,,,,,,
,,2,0.392,2,0.392,0,66,66,28,1,154,strawberry,yogurt,,89499,001,2022-04-26_19h02.02.474,SPAMnetsValid,2021.1.4,MacIntel,30.3030303,,,,,,,,,,,,,,,,,,,,,,,,,,,,,,,,,,,,,,,,,,,,,,,,,,,,,,,,,,,,,,,,,,,,,,,,,,,,,,,,,,,,,,,,,
,,2,0.223,2,0.223,0,67,67,27,1,158,cookie,oven,,89499,001,2022-04-26_19h02.02.474,SPAMnetsValid,2021.1.4,MacIntel,30.3030303,,,,,,,,,,,,,,,,,,,,,,,,,,,,,,,,,,,,,,,,,,,,,,,,,,,,,,,,,,,,,,,,,,,,,,,,,,,,,,,,,,,,,,,,,
,,2,0.19,2,0.19,0,68,68,75,1,178,cactus,carrot,,89499,001,2022-04-26_19h02.02.474,SPAMnetsValid,2021.1.4,MacIntel,30.3030303,,,,,,,,,,,,,,,,,,,,,,,,,,,,,,,,,,,,,,,,,,,,,,,,,,,,,,,,,,,,,,,,,,,,,,,,,,,,,,,,,,,,,,,,,
,,2,0.278,2,0.278,0,69,69,61,1,138,flower,rose,,89499,001,2022-04-26_19h02.02.474,SPAMnetsValid,2021.1.4,MacIntel,30.3030303,,,,,,,,,,,,,,,,,,,,,,,,,,,,,,,,,,,,,,,,,,,,,,,,,,,,,,,,,,,,,,,,,,,,,,,,,,,,,,,,,,,,,,,,,
,,3,0.722,3,0.722,0,70,70,68,1,180,tree,yogurt,,89499,001,2022-04-26_19h02.02.474,SPAMnetsValid,2021.1.4,MacIntel,30.3030303,,,,,,,,,,,,,,,,,,,,,,,,,,,,,,,,,,,,,,,,,,,,,,,,,,,,,,,,,,,,,,,,,,,,,,,,,,,,,,,,,,,,,,,,,
,,3,0.221,3,0.221,0,71,71,4,1,109,broom,strawberry,,89499,001,2022-04-26_19h02.02.474,SPAMnetsValid,2021.1.4,MacIntel,30.3030303,,,,,,,,,,,,,,,,,,,,,,,,,,,,,,,,,,,,,,,,,,,,,,,,,,,,,,,,,,,,,,,,,,,,,,,,,,,,,,,,,,,,,,,,,
,,3,0.255,3,0.255,0,72,72,3,1,129,cactus,refrigerator,,89499,001,2022-04-26_19h02.02.474,SPAMnetsValid,2021.1.4,MacIntel,30.3030303,,,,,,,,,,,,,,,,,,,,,,,,,,,,,,,,,,,,,,,,,,,,,,,,,,,,,,,,,,,,,,,,,,,,,,,,,,,,,,,,,,,,,,,,,
,,3,0.241,3,0.241,0,73,73,50,1,126,kitchen,tree,,89499,001,2022-04-26_19h02.02.474,SPAMnetsValid,2021.1.4,MacIntel,30.3030303,,,,,,,,,,,,,,,,,,,,,,,,,,,,,,,,,,,,,,,,,,,,,,,,,,,,,,,,,,,,,,,,,,,,,,,,,,,,,,,,,,,,,,,,,
,,3,0.256,3,0.256,0,74,74,66,1,150,microwave,refrigerator,,89499,001,2022-04-26_19h02.02.474,SPAMnetsValid,2021.1.4,MacIntel,30.3030303,,,,,,,,,,,,,,,,,,,,,,,,,,,,,,,,,,,,,,,,,,,,,,,,,,,,,,,,,,,,,,,,,,,,,,,,,,,,,,,,,,,,,,,,,
,,5,0.326,5,0.326,0,75,75,87,1,114,cookie,strawberry,,89499,001,2022-04-26_19h02.02.474,SPAMnetsValid,2021.1.4,MacIntel,30.3030303,,,,,,,,,,,,,,,,,,,,,,,,,,,,,,,,,,,,,,,,,,,,,,,,,,,,,,,,,,,,,,,,,,,,,,,,,,,,,,,,,,,,,,,,,
,,5,0.257,5,0.257,0,76,76,30,1,125,carrot,tree,,89499,001,2022-04-26_19h02.02.474,SPAMnetsValid,2021.1.4,MacIntel,30.3030303,,,,,,,,,,,,,,,,,,,,,,,,,,,,,,,,,,,,,,,,,,,,,,,,,,,,,,,,,,,,,,,,,,,,,,,,,,,,,,,,,,,,,,,,,
,,5,0.026,5,0.026,0,77,77,65,1,160,cookie,kitchen,,89499,001,2022-04-26_19h02.02.474,SPAMnetsValid,2021.1.4,MacIntel,30.3030303,,,,,,,,,,,,,,,,,,,,,,,,,,,,,,,,,,,,,,,,,,,,,,,,,,,,,,,,,,,,,,,,,,,,,,,,,,,,,,,,,,,,,,,,,
,,5,0.075,5,0.075,0,78,78,21,1,159,cookie,flower,,89499,001,2022-04-26_19h02.02.474,SPAMnetsValid,2021.1.4,MacIntel,30.3030303,,,,,,,,,,,,,,,,,,,,,,,,,,,,,,,,,,,,,,,,,,,,,,,,,,,,,,,,,,,,,,,,,,,,,,,,,,,,,,,,,,,,,,,,,
,,5,0.042,5,0.042,0,79,79,81,1,104,garden,microwave,,89499,001,2022-04-26_19h02.02.474,SPAMnetsValid,2021.1.4,MacIntel,30.3030303,,,,,,,,,,,,,,,,,,,,,,,,,,,,,,,,,,,,,,,,,,,,,,,,,,,,,,,,,,,,,,,,,,,,,,,,,,,,,,,,,,,,,,,,,
,,5,0.04,5,0.04,0,80,80,85,1,115,refrigerator,tomato,,89499,001,2022-04-26_19h02.02.474,SPAMnetsValid,2021.1.4,MacIntel,30.3030303,,,,,,,,,,,,,,,,,,,,,,,,,,,,,,,,,,,,,,,,,,,,,,,,,,,,,,,,,,,,,,,,,,,,,,,,,,,,,,,,,,,,,,,,,
,,5,0.273,5,0.273,0,81,81,60,1,122,flower,garden,,89499,001,2022-04-26_19h02.02.474,SPAMnetsValid,2021.1.4,MacIntel,30.3030303,,,,,,,,,,,,,,,,,,,,,,,,,,,,,,,,,,,,,,,,,,,,,,,,,,,,,,,,,,,,,,,,,,,,,,,,,,,,,,,,,,,,,,,,,
,,4,0.491,4,0.491,0,82,82,84,1,130,microwave,yogurt,,89499,001,2022-04-26_19h02.02.474,SPAMnetsValid,2021.1.4,MacIntel,30.3030303,,,,,,,,,,,,,,,,,,,,,,,,,,,,,,,,,,,,,,,,,,,,,,,,,,,,,,,,,,,,,,,,,,,,,,,,,,,,,,,,,,,,,,,,,
,,3,0.306,3,0.306,0,83,83,71,1,187,cactus,microwave,,89499,001,2022-04-26_19h02.02.474,SPAMnetsValid,2021.1.4,MacIntel,30.3030303,,,,,,,,,,,,,,,,,,,,,,,,,,,,,,,,,,,,,,,,,,,,,,,,,,,,,,,,,,,,,,,,,,,,,,,,,,,,,,,,,,,,,,,,,
,,2,0.375,2,0.375,0,84,84,63,1,137,microwave,tree,,89499,001,2022-04-26_19h02.02.474,SPAMnetsValid,2021.1.4,MacIntel,30.3030303,,,,,,,,,,,,,,,,,,,,,,,,,,,,,,,,,,,,,,,,,,,,,,,,,,,,,,,,,,,,,,,,,,,,,,,,,,,,,,,,,,,,,,,,,
,,2,0.274,2,0.274,0,85,85,46,1,123,cookie,tree,,89499,001,2022-04-26_19h02.02.474,SPAMnetsValid,2021.1.4,MacIntel,30.3030303,,,,,,,,,,,,,,,,,,,,,,,,,,,,,,,,,,,,,,,,,,,,,,,,,,,,,,,,,,,,,,,,,,,,,,,,,,,,,,,,,,,,,,,,,
,,7,0.854,7,0.854,0,86,86,80,1,146,pretzel,tree,,89499,001,2022-04-26_19h02.02.474,SPAMnetsValid,2021.1.4,MacIntel,30.3030303,,,,,,,,,,,,,,,,,,,,,,,,,,,,,,,,,,,,,,,,,,,,,,,,,,,,,,,,,,,,,,,,,,,,,,,,,,,,,,,,,,,,,,,,,
,,8,0.49,8,0.49,0,87,87,70,1,141,melon,tomato,,89499,001,2022-04-26_19h02.02.474,SPAMnetsValid,2021.1.4,MacIntel,30.3030303,,,,,,,,,,,,,,,,,,,,,,,,,,,,,,,,,,,,,,,,,,,,,,,,,,,,,,,,,,,,,,,,,,,,,,,,,,,,,,,,,,,,,,,,,
,,8,0.306,8,0.306,0,88,88,31,1,156,melon,rose,,89499,001,2022-04-26_19h02.02.474,SPAMnetsValid,2021.1.4,MacIntel,30.3030303,,,,,,,,,,,,,,,,,,,,,,,,,,,,,,,,,,,,,,,,,,,,,,,,,,,,,,,,,,,,,,,,,,,,,,,,,,,,,,,,,,,,,,,,,
,,8,0.287,8,0.287,0,89,89,95,1,121,broom,microwave,,89499,001,2022-04-26_19h02.02.474,SPAMnetsValid,2021.1.4,MacIntel,30.3030303,,,,,,,,,,,,,,,,,,,,,,,,,,,,,,,,,,,,,,,,,,,,,,,,,,,,,,,,,,,,,,,,,,,,,,,,,,,,,,,,,,,,,,,,,
,,8,0.239,8,0.239,0,90,90,82,1,98,pretzel,strawberry,,89499,001,2022-04-26_19h02.02.474,SPAMnetsValid,2021.1.4,MacIntel,30.3030303,,,,,,,,,,,,,,,,,,,,,,,,,,,,,,,,,,,,,,,,,,,,,,,,,,,,,,,,,,,,,,,,,,,,,,,,,,,,,,,,,,,,,,,,,
,,5,0.442,5,0.442,0,91,91,69,1,124,oven,refrigerator,,89499,001,2022-04-26_19h02.02.474,SPAMnetsValid,2021.1.4,MacIntel,30.3030303,,,,,,,,,,,,,,,,,,,,,,,,,,,,,,,,,,,,,,,,,,,,,,,,,,,,,,,,,,,,,,,,,,,,,,,,,,,,,,,,,,,,,,,,,
,,3,0.412,3,0.412,0,92,92,67,1,96,oven,strawberry,,89499,001,2022-04-26_19h02.02.474,SPAMnetsValid,2021.1.4,MacIntel,30.3030303,,,,,,,,,,,,,,,,,,,,,,,,,,,,,,,,,,,,,,,,,,,,,,,,,,,,,,,,,,,,,,,,,,,,,,,,,,,,,,,,,,,,,,,,,
,,3,0.24,3,0.24,0,93,93,40,1,165,onion,rose,,89499,001,2022-04-26_19h02.02.474,SPAMnetsValid,2021.1.4,MacIntel,30.3030303,,,,,,,,,,,,,,,,,,,,,,,,,,,,,,,,,,,,,,,,,,,,,,,,,,,,,,,,,,,,,,,,,,,,,,,,,,,,,,,,,,,,,,,,,
,,2,0.424,2,0.424,0,94,94,49,1,152,cactus,strawberry,,89499,001,2022-04-26_19h02.02.474,SPAMnetsValid,2021.1.4,MacIntel,30.3030303,,,,,,,,,,,,,,,,,,,,,,,,,,,,,,,,,,,,,,,,,,,,,,,,,,,,,,,,,,,,,,,,,,,,,,,,,,,,,,,,,,,,,,,,,
,,8,1.011,8,1.011,0,95,95,36,1,161,kitchen,pretzel,,89499,001,2022-04-26_19h02.02.474,SPAMnetsValid,2021.1.4,MacIntel,30.3030303,,,,,,,,,,,,,,,,,,,,,,,,,,,,,,,,,,,,,,,,,,,,,,,,,,,,,,,,,,,,,,,,,,,,,,,,,,,,,,,,,,,,,,,,,
,,9,0.344,9,0.344,0,96,96,52,1,110,chocolate,cookie,,89499,001,2022-04-26_19h02.02.474,SPAMnetsValid,2021.1.4,MacIntel,30.3030303,,,,,,,,,,,,,,,,,,,,,,,,,,,,,,,,,,,,,,,,,,,,,,,,,,,,,,,,,,,,,,,,,,,,,,,,,,,,,,,,,,,,,,,,,
,,,,,,,,,,,,,,,89499,001,2022-04-26_19h02.02.474,SPAMnetsValid,2021.1.4,MacIntel,30.3030303,0,0,0,0,1,,,,,,,,,,,,,,,,,,,,,,,,,,,,,,,,,,,,,,,,,,,,,,,,,,,,,,,,,,,,,,,,,,,,,,,,,,,,,,,,,,,,
,,,,,,,,,,,,,,,89499,001,2022-04-26_19h02.02.474,SPAMnetsValid,2021.1.4,MacIntel,30.3030303,,,,,,0,0,0,1,1,0,1,,,,,,,,,,,,,,,,,,,,,,,,,,,,,,,,,,,,,,,,,,,,,,,,,,,,,,,,,,,,,,,,,,,,,,,,,,,,,
,,,,7,8.513,,,,,,28,cake,melon,,89499,001,2022-04-26_19h02.02.474,SPAMnetsValid,2021.1.4,MacIntel,30.3030303,,,,,,,,,,,,,7,8.513,0,0,0,54,1,,,,,,,,,,,,,,,,,,,,,,,,,,,,,,,,,,,,,,,,,,,,,,,,,,,,,,,,,,,,,,,,,,,,,,
,,,,7,0.455,,,,,,8,broom,melon,,89499,001,2022-04-26_19h02.02.474,SPAMnetsValid,2021.1.4,MacIntel,30.3030303,,,,,,,,,,,,,7,0.455,0,1,1,59,1,,,,,,,,,,,,,,,,,,,,,,,,,,,,,,,,,,,,,,,,,,,,,,,,,,,,,,,,,,,,,,,,,,,,,,
,,,,7,0.241,,,,,,15,onion,oven,,89499,001,2022-04-26_19h02.02.474,SPAMnetsValid,2021.1.4,MacIntel,30.3030303,,,,,,,,,,,,,7,0.241,0,2,2,39,1,,,,,,,,,,,,,,,,,,,,,,,,,,,,,,,,,,,,,,,,,,,,,,,,,,,,,,,,,,,,,,,,,,,,,,
,,,,7,0.122,,,,,,31,cactus,pretzel,,89499,001,2022-04-26_19h02.02.474,SPAMnetsValid,2021.1.4,MacIntel,30.3030303,,,,,,,,,,,,,7,0.122,0,3,3,1,1,,,,,,,,,,,,,,,,,,,,,,,,,,,,,,,,,,,,,,,,,,,,,,,,,,,,,,,,,,,,,,,,,,,,,,
,,,,7,0.976,,,,,,60,cactus,onion,,89499,001,2022-04-26_19h02.02.474,SPAMnetsValid,2021.1.4,MacIntel,30.3030303,,,,,,,,,,,,,7,0.976,0,4,4,81,1,,,,,,,,,,,,,,,,,,,,,,,,,,,,,,,,,,,,,,,,,,,,,,,,,,,,,,,,,,,,,,,,,,,,,,
,,,,7,0.622,,,,,,36,broom,kitchen,,89499,001,2022-04-26_19h02.02.474,SPAMnetsValid,2021.1.4,MacIntel,30.3030303,,,,,,,,,,,,,7,0.622,0,5,5,76,1,,,,,,,,,,,,,,,,,,,,,,,,,,,,,,,,,,,,,,,,,,,,,,,,,,,,,,,,,,,,,,,,,,,,,,
,,,,9,0.276,,,,,,22,kitchen,strawberry,,89499,001,2022-04-26_19h02.02.474,SPAMnetsValid,2021.1.4,MacIntel,30.3030303,,,,,,,,,,,,,9,0.276,0,6,6,2,1,,,,,,,,,,,,,,,,,,,,,,,,,,,,,,,,,,,,,,,,,,,,,,,,,,,,,,,,,,,,,,,,,,,,,,
,,,,9,0.273,,,,,,65,broom,garden,,89499,001,2022-04-26_19h02.02.474,SPAMnetsValid,2021.1.4,MacIntel,30.3030303,,,,,,,,,,,,,9,0.273,0,7,7,23,1,,,,,,,,,,,,,,,,,,,,,,,,,,,,,,,,,,,,,,,,,,,,,,,,,,,,,,,,,,,,,,,,,,,,,,
,,,,3,0.109,,,,,,82,cake,kitchen,,89499,001,2022-04-26_19h02.02.474,SPAMnetsValid,2021.1.4,MacIntel,30.3030303,,,,,,,,,,,,,3,0.109,0,8,8,96,1,,,,,,,,,,,,,,,,,,,,,,,,,,,,,,,,,,,,,,,,,,,,,,,,,,,,,,,,,,,,,,,,,,,,,,
,,,,3,0.173,,,,,,24,cookie,tomato,,89499,001,2022-04-26_19h02.02.474,SPAMnetsValid,2021.1.4,MacIntel,30.3030303,,,,,,,,,,,,,3,0.173,0,9,9,68,1,,,,,,,,,,,,,,,,,,,,,,,,,,,,,,,,,,,,,,,,,,,,,,,,,,,,,,,,,,,,,,,,,,,,,,
,,,,7,0.723,,,,,,6,garden,onion,,89499,001,2022-04-26_19h02.02.474,SPAMnetsValid,2021.1.4,MacIntel,30.3030303,,,,,,,,,,,,,7,0.723,0,10,10,83,1,,,,,,,,,,,,,,,,,,,,,,,,,,,,,,,,,,,,,,,,,,,,,,,,,,,,,,,,,,,,,,,,,,,,,,
,,,,7,0.706,,,,,,54,chocolate,yogurt,,89499,001,2022-04-26_19h02.02.474,SPAMnetsValid,2021.1.4,MacIntel,30.3030303,,,,,,,,,,,,,7,0.706,0,11,11,67,1,,,,,,,,,,,,,,,,,,,,,,,,,,,,,,,,,,,,,,,,,,,,,,,,,,,,,,,,,,,,,,,,,,,,,,
,,,,3,0.357,,,,,,4,chocolate,pretzel,,89499,001,2022-04-26_19h02.02.474,SPAMnetsValid,2021.1.4,MacIntel,30.3030303,,,,,,,,,,,,,3,0.357,0,12,12,52,1,,,,,,,,,,,,,,,,,,,,,,,,,,,,,,,,,,,,,,,,,,,,,,,,,,,,,,,,,,,,,,,,,,,,,,
,,,,6,0.74,,,,,,39,melon,pretzel,,89499,001,2022-04-26_19h02.02.474,SPAMnetsValid,2021.1.4,MacIntel,30.3030303,,,,,,,,,,,,,6,0.74,0,13,13,20,1,,,,,,,,,,,,,,,,,,,,,,,,,,,,,,,,,,,,,,,,,,,,,,,,,,,,,,,,,,,,,,,,,,,,,,
,,,,6,0.21,,,,,,62,kitchen,rose,,89499,001,2022-04-26_19h02.02.474,SPAMnetsValid,2021.1.4,MacIntel,30.3030303,,,,,,,,,,,,,6,0.21,0,14,14,57,1,,,,,,,,,,,,,,,,,,,,,,,,,,,,,,,,,,,,,,,,,,,,,,,,,,,,,,,,,,,,,,,,,,,,,,
,,,,6,0.028,,,,,,94,kitchen,microwave,,89499,001,2022-04-26_19h02.02.474,SPAMnetsValid,2021.1.4,MacIntel,30.3030303,,,,,,,,,,,,,6,0.028,0,15,15,58,1,,,,,,,,,,,,,,,,,,,,,,,,,,,,,,,,,,,,,,,,,,,,,,,,,,,,,,,,,,,,,,,,,,,,,,
,,,,1,0.577,,,,,,85,cake,tree,,89499,001,2022-04-26_19h02.02.474,SPAMnetsValid,2021.1.4,MacIntel,30.3030303,,,,,,,,,,,,,1,0.577,0,16,16,18,1,,,,,,,,,,,,,,,,,,,,,,,,,,,,,,,,,,,,,,,,,,,,,,,,,,,,,,,,,,,,,,,,,,,,,,
,,,,3,0.653,,,,,,10,flower,onion,,89499,001,2022-04-26_19h02.02.474,SPAMnetsValid,2021.1.4,MacIntel,30.3030303,,,,,,,,,,,,,3,0.653,0,17,17,45,1,,,,,,,,,,,,,,,,,,,,,,,,,,,,,,,,,,,,,,,,,,,,,,,,,,,,,,,,,,,,,,,,,,,,,,
,,,,5,0.742,,,,,,88,cactus,melon,,89499,001,2022-04-26_19h02.02.474,SPAMnetsValid,2021.1.4,MacIntel,30.3030303,,,,,,,,,,,,,5,0.742,0,18,18,38,1,,,,,,,,,,,,,,,,,,,,,,,,,,,,,,,,,,,,,,,,,,,,,,,,,,,,,,,,,,,,,,,,,,,,,,
,,,,8,0.618,,,,,,19,microwave,pretzel,,89499,001,2022-04-26_19h02.02.474,SPAMnetsValid,2021.1.4,MacIntel,30.3030303,,,,,,,,,,,,,8,0.618,0,19,19,41,1,,,,,,,,,,,,,,,,,,,,,,,,,,,,,,,,,,,,,,,,,,,,,,,,,,,,,,,,,,,,,,,,,,,,,,
,,,,7,0.74,,,,,,16,chocolate,flower,,89499,001,2022-04-26_19h02.02.474,SPAMnetsValid,2021.1.4,MacIntel,30.3030303,,,,,,,,,,,,,7,0.74,0,20,20,22,1,,,,,,,,,,,,,,,,,,,,,,,,,,,,,,,,,,,,,,,,,,,,,,,,,,,,,,,,,,,,,,,,,,,,,,
,,,,7,0.255,,,,,,76,garden,rose,,89499,001,2022-04-26_19h02.02.474,SPAMnetsValid,2021.1.4,MacIntel,30.3030303,,,,,,,,,,,,,7,0.255,0,21,21,19,1,,,,,,,,,,,,,,,,,,,,,,,,,,,,,,,,,,,,,,,,,,,,,,,,,,,,,,,,,,,,,,,,,,,,,,
,,,,7,0.028,,,,,,74,broom,pretzel,,89499,001,2022-04-26_19h02.02.474,SPAMnetsValid,2021.1.4,MacIntel,30.3030303,,,,,,,,,,,,,7,0.028,0,22,22,40,1,,,,,,,,,,,,,,,,,,,,,,,,,,,,,,,,,,,,,,,,,,,,,,,,,,,,,,,,,,,,,,,,,,,,,,
,,,,4,0.29,,,,,,37,garden,refrigerator,,89499,001,2022-04-26_19h02.02.474,SPAMnetsValid,2021.1.4,MacIntel,30.3030303,,,,,,,,,,,,,4,0.29,0,23,23,11,1,,,,,,,,,,,,,,,,,,,,,,,,,,,,,,,,,,,,,,,,,,,,,,,,,,,,,,,,,,,,,,,,,,,,,,
,,,,4,0.573,,,,,,84,oven,tomato,,89499,001,2022-04-26_19h02.02.474,SPAMnetsValid,2021.1.4,MacIntel,30.3030303,,,,,,,,,,,,,4,0.573,0,24,24,28,1,,,,,,,,,,,,,,,,,,,,,,,,,,,,,,,,,,,,,,,,,,,,,,,,,,,,,,,,,,,,,,,,,,,,,,
,,,,8,0.755,,,,,,73,broom,chocolate,,89499,001,2022-04-26_19h02.02.474,SPAMnetsValid,2021.1.4,MacIntel,30.3030303,,,,,,,,,,,,,8,0.755,0,25,25,47,1,,,,,,,,,,,,,,,,,,,,,,,,,,,,,,,,,,,,,,,,,,,,,,,,,,,,,,,,,,,,,,,,,,,,,,
,,,,3,0.826,,,,,,61,strawberry,tomato,,89499,001,2022-04-26_19h02.02.474,SPAMnetsValid,2021.1.4,MacIntel,30.3030303,,,,,,,,,,,,,3,0.826,0,26,26,80,1,,,,,,,,,,,,,,,,,,,,,,,,,,,,,,,,,,,,,,,,,,,,,,,,,,,,,,,,,,,,,,,,,,,,,,
,,,,3,0.224,,,,,,43,chocolate,tomato,,89499,001,2022-04-26_19h02.02.474,SPAMnetsValid,2021.1.4,MacIntel,30.3030303,,,,,,,,,,,,,3,0.224,0,27,27,8,1,,,,,,,,,,,,,,,,,,,,,,,,,,,,,,,,,,,,,,,,,,,,,,,,,,,,,,,,,,,,,,,,,,,,,,
,,,,3,0.291,,,,,,32,cake,microwave,,89499,001,2022-04-26_19h02.02.474,SPAMnetsValid,2021.1.4,MacIntel,30.3030303,,,,,,,,,,,,,3,0.291,0,28,28,33,1,,,,,,,,,,,,,,,,,,,,,,,,,,,,,,,,,,,,,,,,,,,,,,,,,,,,,,,,,,,,,,,,,,,,,,
,,,,1,0.488,,,,,,91,microwave,rose,,89499,001,2022-04-26_19h02.02.474,SPAMnetsValid,2021.1.4,MacIntel,30.3030303,,,,,,,,,,,,,1,0.488,0,29,29,84,1,,,,,,,,,,,,,,,,,,,,,,,,,,,,,,,,,,,,,,,,,,,,,,,,,,,,,,,,,,,,,,,,,,,,,,
,,,,1,0.273,,,,,,45,onion,pretzel,,89499,001,2022-04-26_19h02.02.474,SPAMnetsValid,2021.1.4,MacIntel,30.3030303,,,,,,,,,,,,,1,0.273,0,30,30,69,1,,,,,,,,,,,,,,,,,,,,,,,,,,,,,,,,,,,,,,,,,,,,,,,,,,,,,,,,,,,,,,,,,,,,,,
,,,,8,0.541,,,,,,1,rose,yogurt,,89499,001,2022-04-26_19h02.02.474,SPAMnetsValid,2021.1.4,MacIntel,30.3030303,,,,,,,,,,,,,8,0.541,0,31,31,55,1,,,,,,,,,,,,,,,,,,,,,,,,,,,,,,,,,,,,,,,,,,,,,,,,,,,,,,,,,,,,,,,,,,,,,,
,,,,8,0.19,,,,,,18,onion,refrigerator,,89499,001,2022-04-26_19h02.02.474,SPAMnetsValid,2021.1.4,MacIntel,30.3030303,,,,,,,,,,,,,8,0.19,0,32,32,62,1,,,,,,,,,,,,,,,,,,,,,,,,,,,,,,,,,,,,,,,,,,,,,,,,,,,,,,,,,,,,,,,,,,,,,,
,,,,8,0.122,,,,,,47,onion,tomato,,89499,001,2022-04-26_19h02.02.474,SPAMnetsValid,2021.1.4,MacIntel,30.3030303,,,,,,,,,,,,,8,0.122,0,33,33,51,1,,,,,,,,,,,,,,,,,,,,,,,,,,,,,,,,,,,,,,,,,,,,,,,,,,,,,,,,,,,,,,,,,,,,,,
,,,,8,0.188,,,,,,17,carrot,melon,,89499,001,2022-04-26_19h02.02.474,SPAMnetsValid,2021.1.4,MacIntel,30.3030303,,,,,,,,,,,,,8,0.188,0,34,34,24,1,,,,,,,,,,,,,,,,,,,,,,,,,,,,,,,,,,,,,,,,,,,,,,,,,,,,,,,,,,,,,,,,,,,,,,
,,,,6,0.176,,,,,,9,kitchen,refrigerator,,89499,001,2022-04-26_19h02.02.474,SPAMnetsValid,2021.1.4,MacIntel,30.3030303,,,,,,,,,,,,,6,0.176,0,35,35,64,1,,,,,,,,,,,,,,,,,,,,,,,,,,,,,,,,,,,,,,,,,,,,,,,,,,,,,,,,,,,,,,,,,,,,,,
,,,,6,0.192,,,,,,42,garden,kitchen,,89499,001,2022-04-26_19h02.02.474,SPAMnetsValid,2021.1.4,MacIntel,30.3030303,,,,,,,,,,,,,6,0.192,0,36,36,29,1,,,,,,,,,,,,,,,,,,,,,,,,,,,,,,,,,,,,,,,,,,,,,,,,,,,,,,,,,,,,,,,,,,,,,,
,,,,2,0.447,,,,,,80,chocolate,tree,,89499,001,2022-04-26_19h02.02.474,SPAMnetsValid,2021.1.4,MacIntel,30.3030303,,,,,,,,,,,,,2,0.447,0,37,37,89,1,,,,,,,,,,,,,,,,,,,,,,,,,,,,,,,,,,,,,,,,,,,,,,,,,,,,,,,,,,,,,,,,,,,,,,
,,,,2,0.08,,,,,,52,carrot,tomato,,89499,001,2022-04-26_19h02.02.474,SPAMnetsValid,2021.1.4,MacIntel,30.3030303,,,,,,,,,,,,,2,0.08,0,38,38,95,1,,,,,,,,,,,,,,,,,,,,,,,,,,,,,,,,,,,,,,,,,,,,,,,,,,,,,,,,,,,,,,,,,,,,,,
,,,,7,0.475,,,,,,86,oven,rose,,89499,001,2022-04-26_19h02.02.474,SPAMnetsValid,2021.1.4,MacIntel,30.3030303,,,,,,,,,,,,,7,0.475,0,39,39,79,1,,,,,,,,,,,,,,,,,,,,,,,,,,,,,,,,,,,,,,,,,,,,,,,,,,,,,,,,,,,,,,,,,,,,,,
,,,,7,0.454,,,,,,64,chocolate,garden,,89499,001,2022-04-26_19h02.02.474,SPAMnetsValid,2021.1.4,MacIntel,30.3030303,,,,,,,,,,,,,7,0.454,0,40,40,14,1,,,,,,,,,,,,,,,,,,,,,,,,,,,,,,,,,,,,,,,,,,,,,,,,,,,,,,,,,,,,,,,,,,,,,,
,,,,9,0.491,,,,,,78,cookie,rose,,89499,001,2022-04-26_19h02.02.474,SPAMnetsValid,2021.1.4,MacIntel,30.3030303,,,,,,,,,,,,,9,0.491,0,41,41,56,1,,,,,,,,,,,,,,,,,,,,,,,,,,,,,,,,,,,,,,,,,,,,,,,,,,,,,,,,,,,,,,,,,,,,,,
,,,,9,0.187,,,,,,35,flower,pretzel,,89499,001,2022-04-26_19h02.02.474,SPAMnetsValid,2021.1.4,MacIntel,30.3030303,,,,,,,,,,,,,9,0.187,0,42,42,26,1,,,,,,,,,,,,,,,,,,,,,,,,,,,,,,,,,,,,,,,,,,,,,,,,,,,,,,,,,,,,,,,,,,,,,,
,,,,7,0.727,,,,,,29,chocolate,melon,,89499,001,2022-04-26_19h02.02.474,SPAMnetsValid,2021.1.4,MacIntel,30.3030303,,,,,,,,,,,,,7,0.727,0,43,43,34,1,,,,,,,,,,,,,,,,,,,,,,,,,,,,,,,,,,,,,,,,,,,,,,,,,,,,,,,,,,,,,,,,,,,,,,
,,,,7,0.489,,,,,,34,melon,oven,,89499,001,2022-04-26_19h02.02.474,SPAMnetsValid,2021.1.4,MacIntel,30.3030303,,,,,,,,,,,,,7,0.489,0,44,44,7,1,,,,,,,,,,,,,,,,,,,,,,,,,,,,,,,,,,,,,,,,,,,,,,,,,,,,,,,,,,,,,,,,,,,,,,
,,,,4,0.425,,,,,,77,refrigerator,yogurt,,89499,001,2022-04-26_19h02.02.474,SPAMnetsValid,2021.1.4,MacIntel,30.3030303,,,,,,,,,,,,,4,0.425,0,45,45,42,1,,,,,,,,,,,,,,,,,,,,,,,,,,,,,,,,,,,,,,,,,,,,,,,,,,,,,,,,,,,,,,,,,,,,,,
,,,,4,0.222,,,,,,55,tomato,tree,,89499,001,2022-04-26_19h02.02.474,SPAMnetsValid,2021.1.4,MacIntel,30.3030303,,,,,,,,,,,,,4,0.222,0,46,46,35,1,,,,,,,,,,,,,,,,,,,,,,,,,,,,,,,,,,,,,,,,,,,,,,,,,,,,,,,,,,,,,,,,,,,,,,
,,,,4,0.174,,,,,,41,broom,cactus,,89499,001,2022-04-26_19h02.02.474,SPAMnetsValid,2021.1.4,MacIntel,30.3030303,,,,,,,,,,,,,4,0.174,0,47,47,46,1,,,,,,,,,,,,,,,,,,,,,,,,,,,,,,,,,,,,,,,,,,,,,,,,,,,,,,,,,,,,,,,,,,,,,,
,,,,4,0.224,,,,,,63,cake,cookie,,89499,001,2022-04-26_19h02.02.474,SPAMnetsValid,2021.1.4,MacIntel,30.3030303,,,,,,,,,,,,,4,0.224,0,48,48,93,1,,,,,,,,,,,,,,,,,,,,,,,,,,,,,,,,,,,,,,,,,,,,,,,,,,,,,,,,,,,,,,,,,,,,,,
,,,,4,0.202,,,,,,53,garden,pretzel,,89499,001,2022-04-26_19h02.02.474,SPAMnetsValid,2021.1.4,MacIntel,30.3030303,,,,,,,,,,,,,4,0.202,0,49,49,0,1,,,,,,,,,,,,,,,,,,,,,,,,,,,,,,,,,,,,,,,,,,,,,,,,,,,,,,,,,,,,,,,,,,,,,,
,,,,4,0.206,,,,,,26,tomato,yogurt,,89499,001,2022-04-26_19h02.02.474,SPAMnetsValid,2021.1.4,MacIntel,30.3030303,,,,,,,,,,,,,4,0.206,0,50,50,13,1,,,,,,,,,,,,,,,,,,,,,,,,,,,,,,,,,,,,,,,,,,,,,,,,,,,,,,,,,,,,,,,,,,,,,,
,,,,3,0.09,,,,,,12,cookie,yogurt,,89499,001,2022-04-26_19h02.02.474,SPAMnetsValid,2021.1.4,MacIntel,30.3030303,,,,,,,,,,,,,3,0.09,0,51,51,36,1,,,,,,,,,,,,,,,,,,,,,,,,,,,,,,,,,,,,,,,,,,,,,,,,,,,,,,,,,,,,,,,,,,,,,,
,,,,3,0.308,,,,,,67,flower,yogurt,,89499,001,2022-04-26_19h02.02.474,SPAMnetsValid,2021.1.4,MacIntel,30.3030303,,,,,,,,,,,,,3,0.308,0,52,52,12,1,,,,,,,,,,,,,,,,,,,,,,,,,,,,,,,,,,,,,,,,,,,,,,,,,,,,,,,,,,,,,,,,,,,,,,
,,,,6,0.707,,,,,,20,rose,tree,,89499,001,2022-04-26_19h02.02.474,SPAMnetsValid,2021.1.4,MacIntel,30.3030303,,,,,,,,,,,,,6,0.707,0,53,53,66,1,,,,,,,,,,,,,,,,,,,,,,,,,,,,,,,,,,,,,,,,,,,,,,,,,,,,,,,,,,,,,,,,,,,,,,
,,,,6,0.221,,,,,,70,chocolate,onion,,89499,001,2022-04-26_19h02.02.474,SPAMnetsValid,2021.1.4,MacIntel,30.3030303,,,,,,,,,,,,,6,0.221,0,54,54,74,1,,,,,,,,,,,,,,,,,,,,,,,,,,,,,,,,,,,,,,,,,,,,,,,,,,,,,,,,,,,,,,,,,,,,,,
,,,,8,0.656,,,,,,72,broom,onion,,89499,001,2022-04-26_19h02.02.474,SPAMnetsValid,2021.1.4,MacIntel,30.3030303,,,,,,,,,,,,,8,0.656,0,55,55,27,1,,,,,,,,,,,,,,,,,,,,,,,,,,,,,,,,,,,,,,,,,,,,,,,,,,,,,,,,,,,,,,,,,,,,,,
,,,,8,0.622,,,,,,68,flower,tomato,,89499,001,2022-04-26_19h02.02.474,SPAMnetsValid,2021.1.4,MacIntel,30.3030303,,,,,,,,,,,,,8,0.622,0,56,56,94,1,,,,,,,,,,,,,,,,,,,,,,,,,,,,,,,,,,,,,,,,,,,,,,,,,,,,,,,,,,,,,,,,,,,,,,
,,,,2,0.905,,,,,,30,cookie,pretzel,,89499,001,2022-04-26_19h02.02.474,SPAMnetsValid,2021.1.4,MacIntel,30.3030303,,,,,,,,,,,,,2,0.905,0,57,57,78,1,,,,,,,,,,,,,,,,,,,,,,,,,,,,,,,,,,,,,,,,,,,,,,,,,,,,,,,,,,,,,,,,,,,,,,
,,,,3,0.278,,,,,,11,refrigerator,tree,,89499,001,2022-04-26_19h02.02.474,SPAMnetsValid,2021.1.4,MacIntel,30.3030303,,,,,,,,,,,,,3,0.278,0,58,58,43,1,,,,,,,,,,,,,,,,,,,,,,,,,,,,,,,,,,,,,,,,,,,,,,,,,,,,,,,,,,,,,,,,,,,,,,
,,,,3,0.241,,,,,,2,kitchen,onion,,89499,001,2022-04-26_19h02.02.474,SPAMnetsValid,2021.1.4,MacIntel,30.3030303,,,,,,,,,,,,,3,0.241,0,59,59,91,1,,,,,,,,,,,,,,,,,,,,,,,,,,,,,,,,,,,,,,,,,,,,,,,,,,,,,,,,,,,,,,,,,,,,,,
,,,,7,0.687,,,,,,59,rose,strawberry,,89499,001,2022-04-26_19h02.02.474,SPAMnetsValid,2021.1.4,MacIntel,30.3030303,,,,,,,,,,,,,7,0.687,0,60,60,72,1,,,,,,,,,,,,,,,,,,,,,,,,,,,,,,,,,,,,,,,,,,,,,,,,,,,,,,,,,,,,,,,,,,,,,,
,,,,7,0.206,,,,,,48,flower,oven,,89499,001,2022-04-26_19h02.02.474,SPAMnetsValid,2021.1.4,MacIntel,30.3030303,,,,,,,,,,,,,7,0.206,0,61,61,15,1,,,,,,,,,,,,,,,,,,,,,,,,,,,,,,,,,,,,,,,,,,,,,,,,,,,,,,,,,,,,,,,,,,,,,,
,,,,8,0.708,,,,,,14,broom,cookie,,89499,001,2022-04-26_19h02.02.474,SPAMnetsValid,2021.1.4,MacIntel,30.3030303,,,,,,,,,,,,,8,0.708,0,62,62,16,1,,,,,,,,,,,,,,,,,,,,,,,,,,,,,,,,,,,,,,,,,,,,,,,,,,,,,,,,,,,,,,,,,,,,,,
,,,,3,0.559,,,,,,50,carrot,rose,,89499,001,2022-04-26_19h02.02.474,SPAMnetsValid,2021.1.4,MacIntel,30.3030303,,,,,,,,,,,,,3,0.559,0,63,63,73,1,,,,,,,,,,,,,,,,,,,,,,,,,,,,,,,,,,,,,,,,,,,,,,,,,,,,,,,,,,,,,,,,,,,,,,
,,,,3,0.554,,,,,,191,cake,cake,CHECK,89499,001,2022-04-26_19h02.02.474,SPAMnetsValid,2021.1.4,MacIntel,30.3030303,,,,,,,,,,,,,3,0.554,0,64,64,10,1,,,,,,,,,,,,,,,,,,,,,,,,,,,,,,,,,,,,,,,,,,,,,,,,,,,,,,,,,,,,,,,,,,,,,,
,,,,7,0.543,,,,,,75,cookie,onion,,89499,001,2022-04-26_19h02.02.474,SPAMnetsValid,2021.1.4,MacIntel,30.3030303,,,,,,,,,,,,,7,0.543,0,65,65,9,1,,,,,,,,,,,,,,,,,,,,,,,,,,,,,,,,,,,,,,,,,,,,,,,,,,,,,,,,,,,,,,,,,,,,,,
,,,,7,0.225,,,,,,13,broom,yogurt,,89499,001,2022-04-26_19h02.02.474,SPAMnetsValid,2021.1.4,MacIntel,30.3030303,,,,,,,,,,,,,7,0.225,0,66,66,5,1,,,,,,,,,,,,,,,,,,,,,,,,,,,,,,,,,,,,,,,,,,,,,,,,,,,,,,,,,,,,,,,,,,,,,,
,,,,7,0.223,,,,,,3,cake,oven,,89499,001,2022-04-26_19h02.02.474,SPAMnetsValid,2021.1.4,MacIntel,30.3030303,,,,,,,,,,,,,7,0.223,0,67,67,30,1,,,,,,,,,,,,,,,,,,,,,,,,,,,,,,,,,,,,,,,,,,,,,,,,,,,,,,,,,,,,,,,,,,,,,,
,,,,7,0.288,,,,,,23,flower,microwave,,89499,001,2022-04-26_19h02.02.474,SPAMnetsValid,2021.1.4,MacIntel,30.3030303,,,,,,,,,,,,,7,0.288,0,68,68,25,1,,,,,,,,,,,,,,,,,,,,,,,,,,,,,,,,,,,,,,,,,,,,,,,,,,,,,,,,,,,,,,,,,,,,,,
,,,,7,0.643,,,,,,92,broom,flower,,89499,001,2022-04-26_19h02.02.474,SPAMnetsValid,2021.1.4,MacIntel,30.3030303,,,,,,,,,,,,,7,0.643,0,69,69,88,1,,,,,,,,,,,,,,,,,,,,,,,,,,,,,,,,,,,,,,,,,,,,,,,,,,,,,,,,,,,,,,,,,,,,,,
,,,,7,0.522,,,,,,81,pretzel,yogurt,,89499,001,2022-04-26_19h02.02.474,SPAMnetsValid,2021.1.4,MacIntel,30.3030303,,,,,,,,,,,,,7,0.522,0,70,70,50,1,,,,,,,,,,,,,,,,,,,,,,,,,,,,,,,,,,,,,,,,,,,,,,,,,,,,,,,,,,,,,,,,,,,,,,
,,,,7,0.274,,,,,,69,carrot,refrigerator,,89499,001,2022-04-26_19h02.02.474,SPAMnetsValid,2021.1.4,MacIntel,30.3030303,,,,,,,,,,,,,7,0.274,0,71,71,75,1,,,,,,,,,,,,,,,,,,,,,,,,,,,,,,,,,,,,,,,,,,,,,,,,,,,,,,,,,,,,,,,,,,,,,,
,,,,7,0.031,,,,,,44,cookie,melon,,89499,001,2022-04-26_19h02.02.474,SPAMnetsValid,2021.1.4,MacIntel,30.3030303,,,,,,,,,,,,,7,0.031,0,72,72,92,1,,,,,,,,,,,,,,,,,,,,,,,,,,,,,,,,,,,,,,,,,,,,,,,,,,,,,,,,,,,,,,,,,,,,,,
,,,,7,0.044,,,,,,5,oven,tree,,89499,001,2022-04-26_19h02.02.474,SPAMnetsValid,2021.1.4,MacIntel,30.3030303,,,,,,,,,,,,,7,0.044,0,73,73,70,1,,,,,,,,,,,,,,,,,,,,,,,,,,,,,,,,,,,,,,,,,,,,,,,,,,,,,,,,,,,,,,,,,,,,,,
,,,,3,0.691,,,,,,66,melon,yogurt,,89499,001,2022-04-26_19h02.02.474,SPAMnetsValid,2021.1.4,MacIntel,30.3030303,,,,,,,,,,,,,3,0.691,0,74,74,48,1,,,,,,,,,,,,,,,,,,,,,,,,,,,,,,,,,,,,,,,,,,,,,,,,,,,,,,,,,,,,,,,,,,,,,,
,,,,3,0.239,,,,,,87,carrot,yogurt,,89499,001,2022-04-26_19h02.02.474,SPAMnetsValid,2021.1.4,MacIntel,30.3030303,,,,,,,,,,,,,3,0.239,0,75,75,6,1,,,,,,,,,,,,,,,,,,,,,,,,,,,,,,,,,,,,,,,,,,,,,,,,,,,,,,,,,,,,,,,,,,,,,,
,,,,3,0.207,,,,,,56,cactus,tree,,89499,001,2022-04-26_19h02.02.474,SPAMnetsValid,2021.1.4,MacIntel,30.3030303,,,,,,,,,,,,,3,0.207,0,76,76,21,1,,,,,,,,,,,,,,,,,,,,,,,,,,,,,,,,,,,,,,,,,,,,,,,,,,,,,,,,,,,,,,,,,,,,,,
,,,,1,0.345,,,,,,57,flower,kitchen,,89499,001,2022-04-26_19h02.02.474,SPAMnetsValid,2021.1.4,MacIntel,30.3030303,,,,,,,,,,,,,1,0.345,0,77,77,49,1,,,,,,,,,,,,,,,,,,,,,,,,,,,,,,,,,,,,,,,,,,,,,,,,,,,,,,,,,,,,,,,,,,,,,,
,,,,1,0.239,,,,,,89,chocolate,rose,,89499,001,2022-04-26_19h02.02.474,SPAMnetsValid,2021.1.4,MacIntel,30.3030303,,,,,,,,,,,,,1,0.239,0,78,78,60,1,,,,,,,,,,,,,,,,,,,,,,,,,,,,,,,,,,,,,,,,,,,,,,,,,,,,,,,,,,,,,,,,,,,,,,
,,,,4,0.225,,,,,,71,broom,rose,,89499,001,2022-04-26_19h02.02.474,SPAMnetsValid,2021.1.4,MacIntel,30.3030303,,,,,,,,,,,,,4,0.225,0,79,79,61,1,,,,,,,,,,,,,,,,,,,,,,,,,,,,,,,,,,,,,,,,,,,,,,,,,,,,,,,,,,,,,,,,,,,,,,
,,,,4,0.222,,,,,,46,garden,yogurt,,89499,001,2022-04-26_19h02.02.474,SPAMnetsValid,2021.1.4,MacIntel,30.3030303,,,,,,,,,,,,,4,0.222,0,80,80,65,1,,,,,,,,,,,,,,,,,,,,,,,,,,,,,,,,,,,,,,,,,,,,,,,,,,,,,,,,,,,,,,,,,,,,,,
,,,,4,0.207,,,,,,79,garden,strawberry,,89499,001,2022-04-26_19h02.02.474,SPAMnetsValid,2021.1.4,MacIntel,30.3030303,,,,,,,,,,,,,4,0.207,0,81,81,87,1,,,,,,,,,,,,,,,,,,,,,,,,,,,,,,,,,,,,,,,,,,,,,,,,,,,,,,,,,,,,,,,,,,,,,,
,,,,7,0.394,,,,,,51,onion,strawberry,,89499,001,2022-04-26_19h02.02.474,SPAMnetsValid,2021.1.4,MacIntel,30.3030303,,,,,,,,,,,,,7,0.394,0,82,82,86,1,,,,,,,,,,,,,,,,,,,,,,,,,,,,,,,,,,,,,,,,,,,,,,,,,,,,,,,,,,,,,,,,,,,,,,
,,,,7,0.307,,,,,,95,broom,refrigerator,,89499,001,2022-04-26_19h02.02.474,SPAMnetsValid,2021.1.4,MacIntel,30.3030303,,,,,,,,,,,,,7,0.307,0,83,83,90,1,,,,,,,,,,,,,,,,,,,,,,,,,,,,,,,,,,,,,,,,,,,,,,,,,,,,,,,,,,,,,,,,,,,,,,
,,,,7,0.032,,,,,,93,kitchen,oven,,89499,001,2022-04-26_19h02.02.474,SPAMnetsValid,2021.1.4,MacIntel,30.3030303,,,,,,,,,,,,,7,0.032,0,84,84,82,1,,,,,,,,,,,,,,,,,,,,,,,,,,,,,,,,,,,,,,,,,,,,,,,,,,,,,,,,,,,,,,,,,,,,,,
,,,,7,0.155,,,,,,83,broom,carrot,,89499,001,2022-04-26_19h02.02.474,SPAMnetsValid,2021.1.4,MacIntel,30.3030303,,,,,,,,,,,,,7,0.155,0,85,85,4,1,,,,,,,,,,,,,,,,,,,,,,,,,,,,,,,,,,,,,,,,,,,,,,,,,,,,,,,,,,,,,,,,,,,,,,
,,,,7,0.254,,,,,,192,microwave,microwave,CHECK,89499,001,2022-04-26_19h02.02.474,SPAMnetsValid,2021.1.4,MacIntel,30.3030303,,,,,,,,,,,,,7,0.254,0,86,86,53,1,,,,,,,,,,,,,,,,,,,,,,,,,,,,,,,,,,,,,,,,,,,,,,,,,,,,,,,,,,,,,,,,,,,,,,
,,,,8,0.86,,,,,,21,cake,onion,,89499,001,2022-04-26_19h02.02.474,SPAMnetsValid,2021.1.4,MacIntel,30.3030303,,,,,,,,,,,,,8,0.86,0,87,87,63,1,,,,,,,,,,,,,,,,,,,,,,,,,,,,,,,,,,,,,,,,,,,,,,,,,,,,,,,,,,,,,,,,,,,,,,
,,,,8,0.64,,,,,,25,carrot,onion,,89499,001,2022-04-26_19h02.02.474,SPAMnetsValid,2021.1.4,MacIntel,30.3030303,,,,,,,,,,,,,8,0.64,0,88,88,44,1,,,,,,,,,,,,,,,,,,,,,,,,,,,,,,,,,,,,,,,,,,,,,,,,,,,,,,,,,,,,,,,,,,,,,,
,,,,4,1.37,,,,,,58,garden,oven,,89499,001,2022-04-26_19h02.02.474,SPAMnetsValid,2021.1.4,MacIntel,30.3030303,,,,,,,,,,,,,4,1.37,0,89,89,37,1,,,,,,,,,,,,,,,,,,,,,,,,,,,,,,,,,,,,,,,,,,,,,,,,,,,,,,,,,,,,,,,,,,,,,,
,,,,4,0.455,,,,,,7,melon,tree,,89499,001,2022-04-26_19h02.02.474,SPAMnetsValid,2021.1.4,MacIntel,30.3030303,,,,,,,,,,,,,4,0.455,0,90,90,77,1,,,,,,,,,,,,,,,,,,,,,,,,,,,,,,,,,,,,,,,,,,,,,,,,,,,,,,,,,,,,,,,,,,,,,,
,,,,3,0.705,,,,,,27,cactus,cookie,,89499,001,2022-04-26_19h02.02.474,SPAMnetsValid,2021.1.4,MacIntel,30.3030303,,,,,,,,,,,,,3,0.705,0,91,91,17,1,,,,,,,,,,,,,,,,,,,,,,,,,,,,,,,,,,,,,,,,,,,,,,,,,,,,,,,,,,,,,,,,,,,,,,
,,,,6,0.955,,,,,,40,broom,cake,,89499,001,2022-04-26_19h02.02.474,SPAMnetsValid,2021.1.4,MacIntel,30.3030303,,,,,,,,,,,,,6,0.955,0,92,92,32,1,,,,,,,,,,,,,,,,,,,,,,,,,,,,,,,,,,,,,,,,,,,,,,,,,,,,,,,,,,,,,,,,,,,,,,
,,,,8,0.491,,,,,,90,cactus,cake,,89499,001,2022-04-26_19h02.02.474,SPAMnetsValid,2021.1.4,MacIntel,30.3030303,,,,,,,,,,,,,8,0.491,0,93,93,85,1,,,,,,,,,,,,,,,,,,,,,,,,,,,,,,,,,,,,,,,,,,,,,,,,,,,,,,,,,,,,,,,,,,,,,,
,,,,8,0.387,,,,,,38,pretzel,refrigerator,,89499,001,2022-04-26_19h02.02.474,SPAMnetsValid,2021.1.4,MacIntel,30.3030303,,,,,,,,,,,,,8,0.387,0,94,94,71,1,,,,,,,,,,,,,,,,,,,,,,,,,,,,,,,,,,,,,,,,,,,,,,,,,,,,,,,,,,,,,,,,,,,,,,
,,,,5,0.805,,,,,,49,flower,strawberry,,89499,001,2022-04-26_19h02.02.474,SPAMnetsValid,2021.1.4,MacIntel,30.3030303,,,,,,,,,,,,,5,0.805,0,95,95,3,1,,,,,,,,,,,,,,,,,,,,,,,,,,,,,,,,,,,,,,,,,,,,,,,,,,,,,,,,,,,,,,,,,,,,,,
,,,,7,1.193,,,,,,33,oven,yogurt,,89499,001,2022-04-26_19h02.02.474,SPAMnetsValid,2021.1.4,MacIntel,30.3030303,,,,,,,,,,,,,7,1.193,0,96,96,31,1,,,,,,,,,,,,,,,,,,,,,,,,,,,,,,,,,,,,,,,,,,,,,,,,,,,,,,,,,,,,,,,,,,,,,,
,,,,,,,,,,,,,,,89499,001,2022-04-26_19h02.02.474,SPAMnetsValid,2021.1.4,MacIntel,30.3030303,,,,,,,,,,,,,,,,,,,,0,0,0,0,1,,,,,,,,,,,,,,,,,,,,,,,,,,,,,,,,,,,,,,,,,,,,,,,,,,,,,,,,,,,,,,,,,
,,,,,,,,,,,,,,,89499,001,2022-04-26_19h02.02.474,SPAMnetsValid,2021.1.4,MacIntel,30.3030303,,,,,,0,1,1,0,1,1,0,,,,,,,,,,,,,,,,,,,,,,,,,,,,,,,,,,,,,,,,,,,,,,,,,,,,,,,,,,,,,,,,,,,,,,,,,,,,,
,,,,,,,,,,,,,,,89499,001,2022-04-26_19h02.02.474,SPAMnetsValid,2021.1.4,MacIntel,30.3030303,,,,,,,,,,,,,,,,,,,,,,,,,2,2.245,0,0,0,0,1,rancor,forbearance,ridicule,malice,bravery,3,,,,,,,,,,,,,,,,,,,,,,,,,,,,,,,,,,,,,,,,,,,,,,,,,,,,
,,,,,,,,,,,,,,,89499,001,2022-04-26_19h02.02.474,SPAMnetsValid,2021.1.4,MacIntel,30.3030303,,,,,,,,,,,,,,,,,,,,,,,,,4,2.273,0,1,1,1,1,raucous,empty,quiet,smooth,harsh,4,,,,,,,,,,,,,,,,,,,,,,,,,,,,,,,,,,,,,,,,,,,,,,,,,,,,
,,,,,,,,,,,,,,,89499,001,2022-04-26_19h02.02.474,SPAMnetsValid,2021.1.4,MacIntel,30.3030303,,,,,,,,,,,,,,,,,,,,,,,,,1,3.021,0,2,2,2,1,gargoyle,oil,medicine,carved waterspout,ugly building,3,,,,,,,,,,,,,,,,,,,,,,,,,,,,,,,,,,,,,,,,,,,,,,,,,,,,
,,,,,,,,,,,,,,,89499,001,2022-04-26_19h02.02.474,SPAMnetsValid,2021.1.4,MacIntel,30.3030303,,,,,,,,,,,,,,,,,,,,,,,,,2,1.112,0,3,3,3,1,recrudesce,purify,renew activity,lack refinement,crush,2,,,,,,,,,,,,,,,,,,,,,,,,,,,,,,,,,,,,,,,,,,,,,,,,,,,,
,,,,,,,,,,,,,,,89499,001,2022-04-26_19h02.02.474,SPAMnetsValid,2021.1.4,MacIntel,30.3030303,,,,,,,,,,,,,,,,,,,,,,,,,,,0,4,4,4,1,specious,"plausible, but not genuine",noteworthy,class or variety,roomy,1,,,,,,,,,,,,,,,,,,,,,,,,,,,,,,,,,,,,,,,,,,,,,,,,,,,,
,,,,,,,,,,,,,,,89499,001,2022-04-26_19h02.02.474,SPAMnetsValid,2021.1.4,MacIntel,30.3030303,,,,,,,,,,,,,,,,,,,,,,,,,2,1.012,0,5,5,5,1,bauble,bubble,showy plaything,idle talk,confusion,2,,,,,,,,,,,,,,,,,,,,,,,,,,,,,,,,,,,,,,,,,,,,,,,,,,,,
,,,,,,,,,,,,,,,89499,001,2022-04-26_19h02.02.474,SPAMnetsValid,2021.1.4,MacIntel,30.3030303,,,,,,,,,,,,,,,,,,,,,,,,,3,0.96,0,6,6,6,1,prolific,scarce,producing abundantly,reckless,speaking profanely,2,,,,,,,,,,,,,,,,,,,,,,,,,,,,,,,,,,,,,,,,,,,,,,,,,,,,
,,,,,,,,,,,,,,,89499,001,2022-04-26_19h02.02.474,SPAMnetsValid,2021.1.4,MacIntel,30.3030303,,,,,,,,,,,,,,,,,,,,,,,,,2,0.961,0,7,7,7,1,opulent,party,wealthy,happy frame of mind,semiprecious stone,2,,,,,,,,,,,,,,,,,,,,,,,,,,,,,,,,,,,,,,,,,,,,,,,,,,,,
,,,,,,,,,,,,,,,89499,001,2022-04-26_19h02.02.474,SPAMnetsValid,2021.1.4,MacIntel,30.3030303,,,,,,,,,,,,,,,,,,,,,,,,,3,1.275,0,8,8,8,1,coercion,conspiracy,strategy,restraint,attraction,3,,,,,,,,,,,,,,,,,,,,,,,,,,,,,,,,,,,,,,,,,,,,,,,,,,,,
,,,,,,,,,,,,,,,89499,001,2022-04-26_19h02.02.474,SPAMnetsValid,2021.1.4,MacIntel,30.3030303,,,,,,,,,,,,,,,,,,,,,,,,,4,1.023,0,9,9,9,1,hiatus,animal,calamity,dread,gap,4,,,,,,,,,,,,,,,,,,,,,,,,,,,,,,,,,,,,,,,,,,,,,,,,,,,,
,,,,,,,,,,,,,,,89499,001,2022-04-26_19h02.02.474,SPAMnetsValid,2021.1.4,MacIntel,30.3030303,,,,,,,,,,,,,,,,,,,,,,,,,2,5.54,0,10,10,10,1,germane,microbe,contagious,relevant,different,3,,,,,,,,,,,,,,,,,,,,,,,,,,,,,,,,,,,,,,,,,,,,,,,,,,,,
,,,,,,,,,,,,,,,89499,001,2022-04-26_19h02.02.474,SPAMnetsValid,2021.1.4,MacIntel,30.3030303,,,,,,,,,,,,,,,,,,,,,,,,,2,2.373,0,11,11,11,1,perfunctory,fundamental,formal,superficial,careful,3,,,,,,,,,,,,,,,,,,,,,,,,,,,,,,,,,,,,,,,,,,,,,,,,,,,,
,,,,,,,,,,,,,,,89499,001,2022-04-26_19h02.02.474,SPAMnetsValid,2021.1.4,MacIntel,30.3030303,,,,,,,,,,,,,,,,,,,,,,,,,3,1.805,0,12,12,12,1,diverge,reveal,chant,distract the attention of,differ or turn off from,4,,,,,,,,,,,,,,,,,,,,,,,,,,,,,,,,,,,,,,,,,,,,,,,,,,,,
,,,,,,,,,,,,,,,89499,001,2022-04-26_19h02.02.474,SPAMnetsValid,2021.1.4,MacIntel,30.3030303,,,,,,,,,,,,,,,,,,,,,,,,,1,3.358,0,13,13,13,1,evoke,take away,anger,connect,bring out,4,,,,,,,,,,,,,,,,,,,,,,,,,,,,,,,,,,,,,,,,,,,,,,,,,,,,
,,,,,,,,,,,,,,,89499,001,2022-04-26_19h02.02.474,SPAMnetsValid,2021.1.4,MacIntel,30.3030303,,,,,,,,,,,,,,,,,,,,,,,,,,,0,14,14,14,1,pertinent,relevant,lying next to,necessary,bold,1,,,,,,,,,,,,,,,,,,,,,,,,,,,,,,,,,,,,,,,,,,,,,,,,,,,,
,,,,,,,,,,,,,,,89499,001,2022-04-26_19h02.02.474,SPAMnetsValid,2021.1.4,MacIntel,30.3030303,,,,,,,,,,,,,,,,,,,,,,,,,1,0.693,0,15,15,15,1,holocaust,entirety,destruction,saintly,price,2,,,,,,,,,,,,,,,,,,,,,,,,,,,,,,,,,,,,,,,,,,,,,,,,,,,,
,,,,,,,,,,,,,,,89499,001,2022-04-26_19h02.02.474,SPAMnetsValid,2021.1.4,MacIntel,30.3030303,,,,,,,,,,,,,,,,,,,,,,,,,3,3.955,0,16,16,16,1,piquant,mellow,fish,pungent,cloth,3,,,,,,,,,,,,,,,,,,,,,,,,,,,,,,,,,,,,,,,,,,,,,,,,,,,,
,,,,,,,,,,,,,,,89499,001,2022-04-26_19h02.02.474,SPAMnetsValid,2021.1.4,MacIntel,30.3030303,,,,,,,,,,,,,,,,,,,,,,,,,3,2.472,0,17,17,17,1,firmament,foundation,heavens,strong,glue,2,,,,,,,,,,,,,,,,,,,,,,,,,,,,,,,,,,,,,,,,,,,,,,,,,,,,
,,,,,,,,,,,,,,,89499,001,2022-04-26_19h02.02.474,SPAMnetsValid,2021.1.4,MacIntel,30.3030303,,,,,,,,,,,,,,,,,,,,,,,,,,,,,,,,,,,,,,5,2.799,0,0,0,0,1,marketable,partisan,jocular,marriageable,salable,essential,4,,,,,,,,,,,,,,,,,,,,,,,,,,,,,,,,,,,,,,
,,,,,,,,,,,,,,,89499,001,2022-04-26_19h02.02.474,SPAMnetsValid,2021.1.4,MacIntel,30.3030303,,,,,,,,,,,,,,,,,,,,,,,,,,,,,,,,,,,,,,5,3.088,0,1,1,1,1,cottontail,squirrel,poplar,boa,marshy plant,rabbit,5,,,,,,,,,,,,,,,,,,,,,,,,,,,,,,,,,,,,,,
,,,,,,,,,,,,,,,89499,001,2022-04-26_19h02.02.474,SPAMnetsValid,2021.1.4,MacIntel,30.3030303,,,,,,,,,,,,,,,,,,,,,,,,,,,,,,,,,,,,,,3,3.044,0,2,2,2,1,boggy,afraid,false,marshy,dense,black,3,,,,,,,,,,,,,,,,,,,,,,,,,,,,,,,,,,,,,,
,,,,,,,,,,,,,,,89499,001,2022-04-26_19h02.02.474,SPAMnetsValid,2021.1.4,MacIntel,30.3030303,,,,,,,,,,,,,,,,,,,,,,,,,,,,,,,,,,,,,,3,1.379,0,3,3,3,1,gruesomeness,blackness,falseness,vindictiveness,drunkenness,ghastliness,5,,,,,,,,,,,,,,,,,,,,,,,,,,,,,,,,,,,,,,
,,,,,,,,,,,,,,,89499,001,2022-04-26_19h02.02.474,SPAMnetsValid,2021.1.4,MacIntel,30.3030303,,,,,,,,,,,,,,,,,,,,,,,,,,,,,,,,,,,,,,3,3.437,0,4,4,4,1,loathing,diffidence,laziness,abhorrence,cleverness,comfort,3,,,,,,,,,,,,,,,,,,,,,,,,,,,,,,,,,,,,,,
,,,,,,,,,,,,,,,89499,001,2022-04-26_19h02.02.474,SPAMnetsValid,2021.1.4,MacIntel,30.3030303,,,,,,,,,,,,,,,,,,,,,,,,,,,,,,,,,,,,,,3,1.506,0,5,5,5,1,bantam,fowl,ridicule,cripple,vegetable,ensign,1,,,,,,,,,,,,,,,,,,,,,,,,,,,,,,,,,,,,,,
,,,,,,,,,,,,,,,89499,001,2022-04-26_19h02.02.474,SPAMnetsValid,2021.1.4,MacIntel,30.3030303,,,,,,,,,,,,,,,,,,,,,,,,,,,,,,,,,,,,,,2,5.419,0,6,6,6,1,evoke,wake up,surrender,reconnoiter,transcend,call forth,5,,,,,,,,,,,,,,,,,,,,,,,,,,,,,,,,,,,,,,
,,,,,,,,,,,,,,,89499,001,2022-04-26_19h02.02.474,SPAMnetsValid,2021.1.4,MacIntel,30.3030303,,,,,,,,,,,,,,,,,,,,,,,,,,,,,,,,,,,,,,2,3.938,0,7,7,7,1,unobtrusive,unintelligent,epileptic,illogical,lineal,modest,5,,,,,,,,,,,,,,,,,,,,,,,,,,,,,,,,,,,,,,
,,,,,,,,,,,,,,,89499,001,2022-04-26_19h02.02.474,SPAMnetsValid,2021.1.4,MacIntel,30.3030303,,,,,,,,,,,,,,,,,,,,,,,,,,,,,,,,,,,,,,3,1.909,0,8,8,8,1,terrain,ice cream,final test,tractor,area of ground,weight,4,,,,,,,,,,,,,,,,,,,,,,,,,,,,,,,,,,,,,,
,,,,,,,,,,,,,,,89499,001,2022-04-26_19h02.02.474,SPAMnetsValid,2021.1.4,MacIntel,30.3030303,,,,,,,,,,,,,,,,,,,,,,,,,,,,,,,,,,,,,,4,2.724,0,9,9,9,1,capriciousness,stubbornness,courage,whimsicality,amazement,greediness,3,,,,,,,,,,,,,,,,,,,,,,,,,,,,,,,,,,,,,,
,,,,,,,,,,,,,,,89499,001,2022-04-26_19h02.02.474,SPAMnetsValid,2021.1.4,MacIntel,30.3030303,,,,,,,,,,,,,,,,,,,,,,,,,,,,,,,,,,,,,,5,3.125,0,10,10,10,1,maelstrom,slander,whirlpool,enmity,armor,majolica,2,,,,,,,,,,,,,,,,,,,,,,,,,,,,,,,,,,,,,,
,,,,,,,,,,,,,,,89499,001,2022-04-26_19h02.02.474,SPAMnetsValid,2021.1.4,MacIntel,30.3030303,,,,,,,,,,,,,,,,,,,,,,,,,,,,,,,,,,,,,,3,1.291,0,11,11,11,1,tentative,critical,conclusive,authentic,provisional,apprehensive,4,,,,,,,,,,,,,,,,,,,,,,,,,,,,,,,,,,,,,,
,,,,,,,,,,,,,,,89499,001,2022-04-26_19h02.02.474,SPAMnetsValid,2021.1.4,MacIntel,30.3030303,,,,,,,,,,,,,,,,,,,,,,,,,,,,,,,,,,,,,,4,0.823,0,12,12,12,1,placate,rehabilitate,plagiarize,depredate,apprise,conciliate,5,,,,,,,,,,,,,,,,,,,,,,,,,,,,,,,,,,,,,,
,,,,,,,,,,,,,,,89499,001,2022-04-26_19h02.02.474,SPAMnetsValid,2021.1.4,MacIntel,30.3030303,,,,,,,,,,,,,,,,,,,,,,,,,,,,,,,,,,,,,,3,1.175,0,13,13,13,1,surcease,enlightenment,cessation,inattention,censor,substitution,2,,,,,,,,,,,,,,,,,,,,,,,,,,,,,,,,,,,,,,
,,,,,,,,,,,,,,,89499,001,2022-04-26_19h02.02.474,SPAMnetsValid,2021.1.4,MacIntel,30.3030303,,,,,,,,,,,,,,,,,,,,,,,,,,,,,,,,,,,,,,2,0.958,0,14,14,14,1,apathetic,wandering,impassive,hateful,prophetic,overflowing,2,,,,,,,,,,,,,,,,,,,,,,,,,,,,,,,,,,,,,,
,,,,,,,,,,,,,,,89499,001,2022-04-26_19h02.02.474,SPAMnetsValid,2021.1.4,MacIntel,30.3030303,,,,,,,,,,,,,,,,,,,,,,,,,,,,,,,,,,,,,,3,0.779,0,15,15,15,1,paternoster,paternalism,patricide,malediction,benediction,prayer,5,,,,,,,,,,,,,,,,,,,,,,,,,,,,,,,,,,,,,,
,,,,,,,,,,,,,,,89499,001,2022-04-26_19h02.02.474,SPAMnetsValid,2021.1.4,MacIntel,30.3030303,,,,,,,,,,,,,,,,,,,,,,,,,,,,,,,,,,,,,,2,0.993,0,16,16,16,1,opalescence,opulence,senescence,bankruptcy,iridescence,assiduity,4,,,,,,,,,,,,,,,,,,,,,,,,,,,,,,,,,,,,,,
,,,,,,,,,,,,,,,89499,001,2022-04-26_19h02.02.474,SPAMnetsValid,2021.1.4,MacIntel,30.3030303,,,,,,,,,,,,,,,,,,,,,,,,,,,,,,,,,,,,,,4,0.98,0,17,17,17,1,lush,stupid,luxurious,hazy,putrid,languishing,2,,,,,,,,,,,,,,,,,,,,,,,,,,,,,,,,,,,,,,
,,,,,,,,,,,,,,,89499,001,2022-04-26_19h02.02.474,SPAMnetsValid,2021.1.4,MacIntel,30.3030303,,,,,,,,,,,,,,,,,,,,,,,,,,,,,,,,,,,,,,5,0.791,0,18,18,18,1,curtailment,expenditure,abandonment,abridgment,improvement,forgery,3,,,,,,,,,,,,,,,,,,,,,,,,,,,,,,,,,,,,,,
,,,,,,,,,,,,,,,89499,001,2022-04-26_19h02.02.474,SPAMnetsValid,2021.1.4,MacIntel,30.3030303,,,,,,,,,,,,,,,,,,,,,,,,,,,,,,,,,,,,,,,,0,19,19,19,1,perversity,adversity,perviousness,travesty,waywardness,gentility,4,,,,,,,,,,,,,,,,,,,,,,,,,,,,,,,,,,,,,,
,,,,,,,,,,,,,,,89499,001,2022-04-26_19h02.02.474,SPAMnetsValid,2021.1.4,MacIntel,30.3030303,,,,,,,,,,,,,,,,,,,,,,,,,,,,,,,,,,,,,,3,0.616,0,20,20,20,1,calumnious,complimentary,analogous,slanderous,tempestuous,magnanimous,3,,,,,,,,,,,,,,,,,,,,,,,,,,,,,,,,,,,,,,
,,,,,,,,,,,,,,,89499,001,2022-04-26_19h02.02.474,SPAMnetsValid,2021.1.4,MacIntel,30.3030303,,,,,,,,,,,,,,,,,,,,,,,,,,,,,,,,,,,,,,2,0.907,0,21,21,21,1,illiberality,bigotry,imbecility,illegibility,cautery,immaturity,1,,,,,,,,,,,,,,,,,,,,,,,,,,,,,,,,,,,,,,
,,,,,,,,,,,,,,,89499,001,2022-04-26_19h02.02.474,SPAMnetsValid,2021.1.4,MacIntel,30.3030303,,,,,,,,,,,,,,,,,,,,,,,,,,,,,,,,,,,,,,3,0.812,0,22,22,22,1,clabber,rejoice,gossip,curdle,crow,hobble,3,,,,,,,,,,,,,,,,,,,,,,,,,,,,,,,,,,,,,,
,,,,,,,,,,,,,,,89499,001,2022-04-26_19h02.02.474,SPAMnetsValid,2021.1.4,MacIntel,30.3030303,,,,,,,,,,,,,,,,,,,,,,,,,,,,,,,,,,,,,,1,1.445,0,23,23,23,1,sedulousness,diligence,credulousness,seduction,perilousness,frankness,1,,,,,,,,,,,,,,,,,,,,,,,,,,,,,,,,,,,,,,
,,,,,,,,,,,,,,,89499,001,2022-04-26_19h02.02.474,SPAMnetsValid,2021.1.4,MacIntel,30.3030303,,,,,,,,,,,,,,,,,,,,,,,,,,,,,,,,,,,,,,,,,,,,,,,,,,,,pour,bucket,0,0,0,0,1,,,,,,,,,,,,,,,,,,,,,,,,,,,,,,,
,,,,,,,,,,,,,,,89499,001,2022-04-26_19h02.02.474,SPAMnetsValid,2021.1.4,MacIntel,30.3030303,,,,,,,,,,,,,,,,,,,,,,,,,,,,,,,,,,,,,,,,,,,,,,,,,,,,fill,bucket,1,0,1,0,1,,,,,,,,,,,,,,,,,,,,,,,,,,,,,,,
,,,,,,,,,,,,,,,89499,001,2022-04-26_19h02.02.474,SPAMnetsValid,2021.1.4,MacIntel,30.3030303,,,,,,,,,,,,,,,,,,,,,,,,,,,,,,,,,,,,,,,,,,,,,,,,,,,,mix,bucket,2,0,2,0,1,,,,,,,,,,,,,,,,,,,,,,,,,,,,,,,
,,,,,,,,,,,,,,,89499,001,2022-04-26_19h02.02.474,SPAMnetsValid,2021.1.4,MacIntel,30.3030303,,,,,,,,,,,,,,,,,,,,,,,,,,,,,,,,,,,,,,,,,,,,,,,,,,,,clean,bucket,3,0,3,0,1,,,,,,,,,,,,,,,,,,,,,,,,,,,,,,,
,,,,,,,,,,,,,,,89499,001,2022-04-26_19h02.02.474,SPAMnetsValid,2021.1.4,MacIntel,30.3030303,,,,,,,,,,,,,,,,,,,,,,,,,,,,,,,,,,,,,,,,,,,,,,,,,,,,spill,bucket,4,0,4,0,1,,,,,,,,,,,,,,,,,,,,,,,,,,,,,,,
,,,,,,,,,,,,,,,89499,001,2022-04-26_19h02.02.474,SPAMnetsValid,2021.1.4,MacIntel,30.3030303,,,,,,,,,,,,,,,,,,,,,,,,,,,,,,,,,,,,,,,,,,,,,,,,,,,,dump,bucket,5,0,5,0,1,,,,,,,,,,,,,,,,,,,,,,,,,,,,,,,
,,,,,,,,,,,,,,,89499,001,2022-04-26_19h02.02.474,SPAMnetsValid,2021.1.4,MacIntel,30.3030303,,,,,,,,,,,,,,,,,,,,,,,,,,,,,,,,,,,,,,,,,,,,,,,,,,,,collect,bucket,6,0,6,0,1,,,,,,,,,,,,,,,,,,,,,,,,,,,,,,,
,,,,,,,,,,,,,,,89499,001,2022-04-26_19h02.02.474,SPAMnetsValid,2021.1.4,MacIntel,30.3030303,,,,,,,,,,,,,,,,,,,,,,,,,,,,,,,,,,,,,,,,,,,,,,,,,,,,save,bucket,7,0,7,0,1,,,,,,,,,,,,,,,,,,,,,,,,,,,,,,,
,,,,,,,,,,,,,,,89499,001,2022-04-26_19h02.02.474,SPAMnetsValid,2021.1.4,MacIntel,30.3030303,,,,,,,,,,,,,,,,,,,,,,,,,,,,,,,,,,,,,,,,,,,,,,,,,,,,store,bucket,8,0,8,0,1,,,,,,,,,,,,,,,,,,,,,,,,,,,,,,,
,,,,,,,,,,,,,,,89499,001,2022-04-26_19h02.02.474,SPAMnetsValid,2021.1.4,MacIntel,30.3030303,,,,,,,,,,,,,,,,,,,,,,,,,,,,,,,,,,,,,,,,,,,,,,,,,,,,hide,bucket,9,0,9,0,1,,,,,,,,,,,,,,,,,,,,,,,,,,,,,,,
,,,,,,,,,,,,,,,89499,001,2022-04-26_19h02.02.474,SPAMnetsValid,2021.1.4,MacIntel,30.3030303,,,,,,,,,,,,,,,,,,,,,,,,,,,,,,,,,,,,,,,,,,,,,,,,,,,,wear,bucket,10,0,10,0,1,,,,,,,,,,,,,,,,,,,,,,,,,,,,,,,
,,,,,,,,,,,,,,,89499,001,2022-04-26_19h02.02.474,SPAMnetsValid,2021.1.4,MacIntel,30.3030303,,,,,,,,,,,,,,,,,,,,,,,,,,,,,,,,,,,,,,,,,,,,,,,,,,,,save,bucket,11,0,11,0,1,,,,,,,,,,,,,,,,,,,,,,,,,,,,,,,
,,,,,,,,,,,,,,,89499,001,2022-04-26_19h02.02.474,SPAMnetsValid,2021.1.4,MacIntel,30.3030303,,,,,,,,,,,,,,,,,,,,,,,,,,,,,,,,,,,,,,,,,,,,,,,,,,,,keep,bucket,12,0,12,0,1,,,,,,,,,,,,,,,,,,,,,,,,,,,,,,,
,,,,,,,,,,,,,,,89499,001,2022-04-26_19h02.02.474,SPAMnetsValid,2021.1.4,MacIntel,30.3030303,,,,,,,,,,,,,,,,,,,,,,,,,,,,,,,,,,,,,,,,,,,,,,,,,,,,craft,bucket,13,0,13,0,1,,,,,,,,,,,,,,,,,,,,,,,,,,,,,,,
,,,,,,,,,,,,,,,89499,001,2022-04-26_19h02.02.474,SPAMnetsValid,2021.1.4,MacIntel,30.3030303,,,,,,,,,,,,,,,,,,,,,,,,,,,,,,,,,,,,,,,,,,,,,,,,,,,,helmet,bucket,14,0,14,0,1,,,,,,,,,,,,,,,,,,,,,,,,,,,,,,,
,,,,,,,,,,,,,,,89499,001,2022-04-26_19h02.02.474,SPAMnetsValid,2021.1.4,MacIntel,30.3030303,,,,,,,,,,,,,,,,,,,,,,,,,,,,,,,,,,,,,,,,,,,,,,,,,,,,beach,bucket,15,0,15,0,1,,,,,,,,,,,,,,,,,,,,,,,,,,,,,,,
,,,,,,,,,,,,,,,89499,001,2022-04-26_19h02.02.474,SPAMnetsValid,2021.1.4,MacIntel,30.3030303,,,,,,,,,,,,,,,,,,,,,,,,,,,,,,,,,,,,,,,,,,,,,,,,,,,,fill with sand,bucket,16,0,16,0,1,,,,,,,,,,,,,,,,,,,,,,,,,,,,,,,
,,,,,,,,,,,,,,,89499,001,2022-04-26_19h02.02.474,SPAMnetsValid,2021.1.4,MacIntel,30.3030303,,,,,,,,,,,,,,,,,,,,,,,,,,,,,,,,,,,,,,,,,,,,,,,,,,,,will w water,bucket,17,0,17,0,1,,,,,,,,,,,,,,,,,,,,,,,,,,,,,,,
,,,,,,,,,,,,,,,89499,001,2022-04-26_19h02.02.474,SPAMnetsValid,2021.1.4,MacIntel,30.3030303,,,,,,,,,,,,,,,,,,,,,,,,,,,,,,,,,,,,,,,,,,,,,,,,,,,,paint,bucket,18,0,18,0,1,,,,,,,,,,,,,,,,,,,,,,,,,,,,,,,
,,,,,,,,,,,,,,,89499,001,2022-04-26_19h02.02.474,SPAMnetsValid,2021.1.4,MacIntel,30.3030303,,,,,,,,,,,,,,,,,,,,,,,,,,,,,,,,,,,,,,,,,,,,,,,,,,,,color,bucket,19,0,19,0,1,,,,,,,,,,,,,,,,,,,,,,,,,,,,,,,
,,,,,,,,,,,,,,,89499,001,2022-04-26_19h02.02.474,SPAMnetsValid,2021.1.4,MacIntel,30.3030303,,,,,,,,,,,,,,,,,,,,,,,,,,,,,,,,,,,,,,,,,,,,,,,,,,,,crafts,bucket,20,0,20,0,1,,,,,,,,,,,,,,,,,,,,,,,,,,,,,,,
,,,,,,,,,,,,,,,89499,001,2022-04-26_19h02.02.474,SPAMnetsValid,2021.1.4,MacIntel,30.3030303,,,,,,,,,,,,,,,,,,,,,,,,,,,,,,,,,,,,,,,,,,,,,,,,,,,,paint,bucket,21,0,21,0,1,,,,,,,,,,,,,,,,,,,,,,,,,,,,,,,
,,,,,,,,,,,,,,,89499,001,2022-04-26_19h02.02.474,SPAMnetsValid,2021.1.4,MacIntel,30.3030303,,,,,,,,,,,,,,,,,,,,,,,,,,,,,,,,,,,,,,,,,,,,,,,,,,,,store paint,bucket,22,0,22,0,1,,,,,,,,,,,,,,,,,,,,,,,,,,,,,,,
,,,,,,,,,,,,,,,89499,001,2022-04-26_19h02.02.474,SPAMnetsValid,2021.1.4,MacIntel,30.3030303,,,,,,,,,,,,,,,,,,,,,,,,,,,,,,,,,,,,,,,,,,,,,,,,,,,,fill with paint,bucket,23,0,23,0,1,,,,,,,,,,,,,,,,,,,,,,,,,,,,,,,
,,,,,,,,,,,,,,,89499,001,2022-04-26_19h02.02.474,SPAMnetsValid,2021.1.4,MacIntel,30.3030303,,,,,,,,,,,,,,,,,,,,,,,,,,,,,,,,,,,,,,,,,,,,,,,,,,,,collect water,bucket,24,0,24,0,1,,,,,,,,,,,,,,,,,,,,,,,,,,,,,,,
,,,,,,,,,,,,,,,89499,001,2022-04-26_19h02.02.474,SPAMnetsValid,2021.1.4,MacIntel,30.3030303,,,,,,,,,,,,,,,,,,,,,,,,,,,,,,,,,,,,,,,,,,,,,,,,,,,,,,,,,,,0,0,0,0,1,bucket,,,,,,,,,,,,,,,,,,,,,,,,,
,,,,,,,,,,,,,,,89499,001,2022-04-26_19h02.02.474,SPAMnetsValid,2021.1.4,MacIntel,30.3030303,,,,,,,,,,,,,,,,,,,,,,,,,,,,,,,,,,,,,,,,,,,,,,,,,,,,melt,candle,0,0,0,0,1,,,,,,,,,,,,,,,,,,,,,,,,,,,,,,,
,,,,,,,,,,,,,,,89499,001,2022-04-26_19h02.02.474,SPAMnetsValid,2021.1.4,MacIntel,30.3030303,,,,,,,,,,,,,,,,,,,,,,,,,,,,,,,,,,,,,,,,,,,,,,,,,,,,ligt,candle,1,0,1,0,1,,,,,,,,,,,,,,,,,,,,,,,,,,,,,,,
,,,,,,,,,,,,,,,89499,001,2022-04-26_19h02.02.474,SPAMnetsValid,2021.1.4,MacIntel,30.3030303,,,,,,,,,,,,,,,,,,,,,,,,,,,,,,,,,,,,,,,,,,,,,,,,,,,,light,candle,2,0,2,0,1,,,,,,,,,,,,,,,,,,,,,,,,,,,,,,,
,,,,,,,,,,,,,,,89499,001,2022-04-26_19h02.02.474,SPAMnetsValid,2021.1.4,MacIntel,30.3030303,,,,,,,,,,,,,,,,,,,,,,,,,,,,,,,,,,,,,,,,,,,,,,,,,,,,lit,candle,3,0,3,0,1,,,,,,,,,,,,,,,,,,,,,,,,,,,,,,,
,,,,,,,,,,,,,,,89499,001,2022-04-26_19h02.02.474,SPAMnetsValid,2021.1.4,MacIntel,30.3030303,,,,,,,,,,,,,,,,,,,,,,,,,,,,,,,,,,,,,,,,,,,,,,,,,,,,smell,candle,4,0,4,0,1,,,,,,,,,,,,,,,,,,,,,,,,,,,,,,,
,,,,,,,,,,,,,,,89499,001,2022-04-26_19h02.02.474,SPAMnetsValid,2021.1.4,MacIntel,30.3030303,,,,,,,,,,,,,,,,,,,,,,,,,,,,,,,,,,,,,,,,,,,,,,,,,,,,sell,candle,5,0,5,0,1,,,,,,,,,,,,,,,,,,,,,,,,,,,,,,,
,,,,,,,,,,,,,,,89499,001,2022-04-26_19h02.02.474,SPAMnetsValid,2021.1.4,MacIntel,30.3030303,,,,,,,,,,,,,,,,,,,,,,,,,,,,,,,,,,,,,,,,,,,,,,,,,,,,buy,candle,6,0,6,0,1,,,,,,,,,,,,,,,,,,,,,,,,,,,,,,,
,,,,,,,,,,,,,,,89499,001,2022-04-26_19h02.02.474,SPAMnetsValid,2021.1.4,MacIntel,30.3030303,,,,,,,,,,,,,,,,,,,,,,,,,,,,,,,,,,,,,,,,,,,,,,,,,,,,flip,candle,7,0,7,0,1,,,,,,,,,,,,,,,,,,,,,,,,,,,,,,,
,,,,,,,,,,,,,,,89499,001,2022-04-26_19h02.02.474,SPAMnetsValid,2021.1.4,MacIntel,30.3030303,,,,,,,,,,,,,,,,,,,,,,,,,,,,,,,,,,,,,,,,,,,,,,,,,,,,decor,candle,8,0,8,0,1,,,,,,,,,,,,,,,,,,,,,,,,,,,,,,,
,,,,,,,,,,,,,,,89499,001,2022-04-26_19h02.02.474,SPAMnetsValid,2021.1.4,MacIntel,30.3030303,,,,,,,,,,,,,,,,,,,,,,,,,,,,,,,,,,,,,,,,,,,,,,,,,,,,fire,candle,9,0,9,0,1,,,,,,,,,,,,,,,,,,,,,,,,,,,,,,,
,,,,,,,,,,,,,,,89499,001,2022-04-26_19h02.02.474,SPAMnetsValid,2021.1.4,MacIntel,30.3030303,,,,,,,,,,,,,,,,,,,,,,,,,,,,,,,,,,,,,,,,,,,,,,,,,,,,extinguish,candle,10,0,10,0,1,,,,,,,,,,,,,,,,,,,,,,,,,,,,,,,
,,,,,,,,,,,,,,,89499,001,2022-04-26_19h02.02.474,SPAMnetsValid,2021.1.4,MacIntel,30.3030303,,,,,,,,,,,,,,,,,,,,,,,,,,,,,,,,,,,,,,,,,,,,,,,,,,,,freeze,candle,11,0,11,0,1,,,,,,,,,,,,,,,,,,,,,,,,,,,,,,,
,,,,,,,,,,,,,,,89499,001,2022-04-26_19h02.02.474,SPAMnetsValid,2021.1.4,MacIntel,30.3030303,,,,,,,,,,,,,,,,,,,,,,,,,,,,,,,,,,,,,,,,,,,,,,,,,,,,give away,candle,12,0,12,0,1,,,,,,,,,,,,,,,,,,,,,,,,,,,,,,,
,,,,,,,,,,,,,,,89499,001,2022-04-26_19h02.02.474,SPAMnetsValid,2021.1.4,MacIntel,30.3030303,,,,,,,,,,,,,,,,,,,,,,,,,,,,,,,,,,,,,,,,,,,,,,,,,,,,gift,candle,13,0,13,0,1,,,,,,,,,,,,,,,,,,,,,,,,,,,,,,,
,,,,,,,,,,,,,,,89499,001,2022-04-26_19h02.02.474,SPAMnetsValid,2021.1.4,MacIntel,30.3030303,,,,,,,,,,,,,,,,,,,,,,,,,,,,,,,,,,,,,,,,,,,,,,,,,,,,set up,candle,14,0,14,0,1,,,,,,,,,,,,,,,,,,,,,,,,,,,,,,,
,,,,,,,,,,,,,,,89499,001,2022-04-26_19h02.02.474,SPAMnetsValid,2021.1.4,MacIntel,30.3030303,,,,,,,,,,,,,,,,,,,,,,,,,,,,,,,,,,,,,,,,,,,,,,,,,,,,ignite,candle,15,0,15,0,1,,,,,,,,,,,,,,,,,,,,,,,,,,,,,,,
,,,,,,,,,,,,,,,89499,001,2022-04-26_19h02.02.474,SPAMnetsValid,2021.1.4,MacIntel,30.3030303,,,,,,,,,,,,,,,,,,,,,,,,,,,,,,,,,,,,,,,,,,,,,,,,,,,,,,,,,,,0,1,1,1,1,candle,,,,,,,,,,,,,,,,,,,,,,,,,
,,,,,,,,,,,,,,,89499,001,2022-04-26_19h02.02.474,SPAMnetsValid,2021.1.4,MacIntel,30.3030303,,,,,,,,,,,,,,,,,,,,,,,,,,,,,,,,,,,,,,,,,,,,,,,,,,,,sleep,pillow,0,0,0,0,1,,,,,,,,,,,,,,,,,,,,,,,,,,,,,,,
,,,,,,,,,,,,,,,89499,001,2022-04-26_19h02.02.474,SPAMnetsValid,2021.1.4,MacIntel,30.3030303,,,,,,,,,,,,,,,,,,,,,,,,,,,,,,,,,,,,,,,,,,,,,,,,,,,,cover,pillow,1,0,1,0,1,,,,,,,,,,,,,,,,,,,,,,,,,,,,,,,
,,,,,,,,,,,,,,,89499,001,2022-04-26_19h02.02.474,SPAMnetsValid,2021.1.4,MacIntel,30.3030303,,,,,,,,,,,,,,,,,,,,,,,,,,,,,,,,,,,,,,,,,,,,,,,,,,,,cover,pillow,2,0,2,0,1,,,,,,,,,,,,,,,,,,,,,,,,,,,,,,,
,,,,,,,,,,,,,,,89499,001,2022-04-26_19h02.02.474,SPAMnetsValid,2021.1.4,MacIntel,30.3030303,,,,,,,,,,,,,,,,,,,,,,,,,,,,,,,,,,,,,,,,,,,,,,,,,,,,hit,pillow,3,0,3,0,1,,,,,,,,,,,,,,,,,,,,,,,,,,,,,,,
,,,,,,,,,,,,,,,89499,001,2022-04-26_19h02.02.474,SPAMnetsValid,2021.1.4,MacIntel,30.3030303,,,,,,,,,,,,,,,,,,,,,,,,,,,,,,,,,,,,,,,,,,,,,,,,,,,,nap,pillow,4,0,4,0,1,,,,,,,,,,,,,,,,,,,,,,,,,,,,,,,
,,,,,,,,,,,,,,,89499,001,2022-04-26_19h02.02.474,SPAMnetsValid,2021.1.4,MacIntel,30.3030303,,,,,,,,,,,,,,,,,,,,,,,,,,,,,,,,,,,,,,,,,,,,,,,,,,,,lay down,pillow,5,0,5,0,1,,,,,,,,,,,,,,,,,,,,,,,,,,,,,,,
,,,,,,,,,,,,,,,89499,001,2022-04-26_19h02.02.474,SPAMnetsValid,2021.1.4,MacIntel,30.3030303,,,,,,,,,,,,,,,,,,,,,,,,,,,,,,,,,,,,,,,,,,,,,,,,,,,,protect,pillow,6,0,6,0,1,,,,,,,,,,,,,,,,,,,,,,,,,,,,,,,
,,,,,,,,,,,,,,,89499,001,2022-04-26_19h02.02.474,SPAMnetsValid,2021.1.4,MacIntel,30.3030303,,,,,,,,,,,,,,,,,,,,,,,,,,,,,,,,,,,,,,,,,,,,,,,,,,,,sit,pillow,7,0,7,0,1,,,,,,,,,,,,,,,,,,,,,,,,,,,,,,,
,,,,,,,,,,,,,,,89499,001,2022-04-26_19h02.02.474,SPAMnetsValid,2021.1.4,MacIntel,30.3030303,,,,,,,,,,,,,,,,,,,,,,,,,,,,,,,,,,,,,,,,,,,,,,,,,,,,comfort,pillow,8,0,8,0,1,,,,,,,,,,,,,,,,,,,,,,,,,,,,,,,
,,,,,,,,,,,,,,,89499,001,2022-04-26_19h02.02.474,SPAMnetsValid,2021.1.4,MacIntel,30.3030303,,,,,,,,,,,,,,,,,,,,,,,,,,,,,,,,,,,,,,,,,,,,,,,,,,,,stuff,pillow,9,0,9,0,1,,,,,,,,,,,,,,,,,,,,,,,,,,,,,,,
,,,,,,,,,,,,,,,89499,001,2022-04-26_19h02.02.474,SPAMnetsValid,2021.1.4,MacIntel,30.3030303,,,,,,,,,,,,,,,,,,,,,,,,,,,,,,,,,,,,,,,,,,,,,,,,,,,,fight,pillow,10,0,10,0,1,,,,,,,,,,,,,,,,,,,,,,,,,,,,,,,
,,,,,,,,,,,,,,,89499,001,2022-04-26_19h02.02.474,SPAMnetsValid,2021.1.4,MacIntel,30.3030303,,,,,,,,,,,,,,,,,,,,,,,,,,,,,,,,,,,,,,,,,,,,,,,,,,,,rest,pillow,11,0,11,0,1,,,,,,,,,,,,,,,,,,,,,,,,,,,,,,,
,,,,,,,,,,,,,,,89499,001,2022-04-26_19h02.02.474,SPAMnetsValid,2021.1.4,MacIntel,30.3030303,,,,,,,,,,,,,,,,,,,,,,,,,,,,,,,,,,,,,,,,,,,,,,,,,,,,posture,pillow,12,0,12,0,1,,,,,,,,,,,,,,,,,,,,,,,,,,,,,,,
,,,,,,,,,,,,,,,89499,001,2022-04-26_19h02.02.474,SPAMnetsValid,2021.1.4,MacIntel,30.3030303,,,,,,,,,,,,,,,,,,,,,,,,,,,,,,,,,,,,,,,,,,,,,,,,,,,,lap,pillow,13,0,13,0,1,,,,,,,,,,,,,,,,,,,,,,,,,,,,,,,
,,,,,,,,,,,,,,,89499,001,2022-04-26_19h02.02.474,SPAMnetsValid,2021.1.4,MacIntel,30.3030303,,,,,,,,,,,,,,,,,,,,,,,,,,,,,,,,,,,,,,,,,,,,,,,,,,,,place on lap,pillow,14,0,14,0,1,,,,,,,,,,,,,,,,,,,,,,,,,,,,,,,
,,,,,,,,,,,,,,,89499,001,2022-04-26_19h02.02.474,SPAMnetsValid,2021.1.4,MacIntel,30.3030303,,,,,,,,,,,,,,,,,,,,,,,,,,,,,,,,,,,,,,,,,,,,,,,,,,,,place,pillow,15,0,15,0,1,,,,,,,,,,,,,,,,,,,,,,,,,,,,,,,
,,,,,,,,,,,,,,,89499,001,2022-04-26_19h02.02.474,SPAMnetsValid,2021.1.4,MacIntel,30.3030303,,,,,,,,,,,,,,,,,,,,,,,,,,,,,,,,,,,,,,,,,,,,,,,,,,,,decor,pillow,16,0,16,0,1,,,,,,,,,,,,,,,,,,,,,,,,,,,,,,,
,,,,,,,,,,,,,,,89499,001,2022-04-26_19h02.02.474,SPAMnetsValid,2021.1.4,MacIntel,30.3030303,,,,,,,,,,,,,,,,,,,,,,,,,,,,,,,,,,,,,,,,,,,,,,,,,,,,,,,,,,,0,2,2,2,1,pillow,,,,,,,,,,,,,,,,,,,,,,,,,
,,,,,,,,,,,,,,,89499,001,2022-04-26_19h02.02.474,SPAMnetsValid,2021.1.4,MacIntel,30.3030303,,,,,,,,,,,,,,,,,,,,,,,,,,,,,,,,,,,,,,,,,,,,,,,,,,,,,,,,,,,,,,,,,,Animals,0,0,0,0,1,,,,,,,,,,,,,,,,,,
,,,,,,,,,,,,,,,89499,001,2022-04-26_19h02.02.474,SPAMnetsValid,2021.1.4,MacIntel,30.3030303,,,,,,,,,,,,,,,,,,,,,,,,,,,,,,,,,,,,,,,,,,,,,,,,,,,,,,,,,,,,,,,,,pets,Animals,1,0,1,0,1,,,,,,,,,,,,,,,,,,
,,,,,,,,,,,,,,,89499,001,2022-04-26_19h02.02.474,SPAMnetsValid,2021.1.4,MacIntel,30.3030303,,,,,,,,,,,,,,,,,,,,,,,,,,,,,,,,,,,,,,,,,,,,,,,,,,,,,,,,,,,,,,,,,food,Animals,2,0,2,0,1,,,,,,,,,,,,,,,,,,
,,,,,,,,,,,,,,,89499,001,2022-04-26_19h02.02.474,SPAMnetsValid,2021.1.4,MacIntel,30.3030303,,,,,,,,,,,,,,,,,,,,,,,,,,,,,,,,,,,,,,,,,,,,,,,,,,,,,,,,,,,,,,,,,reptiles,Animals,3,0,3,0,1,,,,,,,,,,,,,,,,,,
,,,,,,,,,,,,,,,89499,001,2022-04-26_19h02.02.474,SPAMnetsValid,2021.1.4,MacIntel,30.3030303,,,,,,,,,,,,,,,,,,,,,,,,,,,,,,,,,,,,,,,,,,,,,,,,,,,,,,,,,,,,,,,,,cats,Animals,4,0,4,0,1,,,,,,,,,,,,,,,,,,
,,,,,,,,,,,,,,,89499,001,2022-04-26_19h02.02.474,SPAMnetsValid,2021.1.4,MacIntel,30.3030303,,,,,,,,,,,,,,,,,,,,,,,,,,,,,,,,,,,,,,,,,,,,,,,,,,,,,,,,,,,,,,,,,dog,Animals,5,0,5,0,1,,,,,,,,,,,,,,,,,,
,,,,,,,,,,,,,,,89499,001,2022-04-26_19h02.02.474,SPAMnetsValid,2021.1.4,MacIntel,30.3030303,,,,,,,,,,,,,,,,,,,,,,,,,,,,,,,,,,,,,,,,,,,,,,,,,,,,,,,,,,,,,,,,,amphibians,Animals,6,0,6,0,1,,,,,,,,,,,,,,,,,,
,,,,,,,,,,,,,,,89499,001,2022-04-26_19h02.02.474,SPAMnetsValid,2021.1.4,MacIntel,30.3030303,,,,,,,,,,,,,,,,,,,,,,,,,,,,,,,,,,,,,,,,,,,,,,,,,,,,,,,,,,,,,,,,,mammals,Animals,7,0,7,0,1,,,,,,,,,,,,,,,,,,
,,,,,,,,,,,,,,,89499,001,2022-04-26_19h02.02.474,SPAMnetsValid,2021.1.4,MacIntel,30.3030303,,,,,,,,,,,,,,,,,,,,,,,,,,,,,,,,,,,,,,,,,,,,,,,,,,,,,,,,,,,,,,,,,fish,Animals,8,0,8,0,1,,,,,,,,,,,,,,,,,,
,,,,,,,,,,,,,,,89499,001,2022-04-26_19h02.02.474,SPAMnetsValid,2021.1.4,MacIntel,30.3030303,,,,,,,,,,,,,,,,,,,,,,,,,,,,,,,,,,,,,,,,,,,,,,,,,,,,,,,,,,,,,,,,,,,,,,,,0,0,0,0,1,Animals,,,,,,,,,,,,
,,,,,,,,,,,,,,,89499,001,2022-04-26_19h02.02.474,SPAMnetsValid,2021.1.4,MacIntel,30.3030303,,,,,,,,,,,,,,,,,,,,,,,,,,,,,,,,,,,,,,,,,,,,,,,,,,,,,,,,,,,,,,,,,,,,,,,,,,,,,,3,15.507,0,0,0,0,1,"I enjoy concentrating on a fantasy or daydream and exploring all its possibilities, letting it grow and develop.",0,1,,
,,,,,,,,,,,,,,,89499,001,2022-04-26_19h02.02.474,SPAMnetsValid,2021.1.4,MacIntel,30.3030303,,,,,,,,,,,,,,,,,,,,,,,,,,,,,,,,,,,,,,,,,,,,,,,,,,,,,,,,,,,,,,,,,,,,,,,,,,,,,,4,2.491,0,1,1,1,1,I think it's interesting to learn and develop new hobbies.,0,2,,
,,,,,,,,,,,,,,,89499,001,2022-04-26_19h02.02.474,SPAMnetsValid,2021.1.4,MacIntel,30.3030303,,,,,,,,,,,,,,,,,,,,,,,,,,,,,,,,,,,,,,,,,,,,,,,,,,,,,,,,,,,,,,,,,,,,,,,,,,,,,,2,2.043,0,2,2,2,1,I am intrigued by the patterns I find in art and nature.,0,3,,
,,,,,,,,,,,,,,,89499,001,2022-04-26_19h02.02.474,SPAMnetsValid,2021.1.4,MacIntel,30.3030303,,,,,,,,,,,,,,,,,,,,,,,,,,,,,,,,,,,,,,,,,,,,,,,,,,,,,,,,,,,,,,,,,,,,,,,,,,,,,,3,0.979,0,3,3,3,1,I believe letting students hear controversial speakers can only confuse and mislead them.,1,4,,
,,,,,,,,,,,,,,,89499,001,2022-04-26_19h02.02.474,SPAMnetsValid,2021.1.4,MacIntel,30.3030303,,,,,,,,,,,,,,,,,,,,,,,,,,,,,,,,,,,,,,,,,,,,,,,,,,,,,,,,,,,,,,,,,,,,,,,,,,,,,,3,1.809,0,4,4,4,1,Poetry has little or no effect on me.,1,5,,
,,,,,,,,,,,,,,,89499,001,2022-04-26_19h02.02.474,SPAMnetsValid,2021.1.4,MacIntel,30.3030303,,,,,,,,,,,,,,,,,,,,,,,,,,,,,,,,,,,,,,,,,,,,,,,,,,,,,,,,,,,,,,,,,,,,,,,,,,,,,,4,2.046,0,5,5,5,1,I would have difficulty just letting my mind wander without control or guidance.,1,6,,
,,,,,,,,,,,,,,,89499,001,2022-04-26_19h02.02.474,SPAMnetsValid,2021.1.4,MacIntel,30.3030303,,,,,,,,,,,,,,,,,,,,,,,,,,,,,,,,,,,,,,,,,,,,,,,,,,,,,,,,,,,,,,,,,,,,,,,,,,,,,,2,0.888,0,6,6,6,1,I seldom notice the moods or feelings that different environments produce.,1,7,,
,,,,,,,,,,,,,,,89499,001,2022-04-26_19h02.02.474,SPAMnetsValid,2021.1.4,MacIntel,30.3030303,,,,,,,,,,,,,,,,,,,,,,,,,,,,,,,,,,,,,,,,,,,,,,,,,,,,,,,,,,,,,,,,,,,,,,,,,,,,,,3,0.81,0,7,7,7,1,I experience a wide range of emotions or feelings.,0,8,,
,,,,,,,,,,,,,,,89499,001,2022-04-26_19h02.02.474,SPAMnetsValid,2021.1.4,MacIntel,30.3030303,,,,,,,,,,,,,,,,,,,,,,,,,,,,,,,,,,,,,,,,,,,,,,,,,,,,,,,,,,,,,,,,,,,,,,,,,,,,,,4,1.473,0,8,8,8,1,"Sometimes when I am reading poetry or looking at a work of art, I feel a chill or wave of excitement.",0,9,,
,,,,,,,,,,,,,,,89499,001,2022-04-26_19h02.02.474,SPAMnetsValid,2021.1.4,MacIntel,30.3030303,,,,,,,,,,,,,,,,,,,,,,,,,,,,,,,,,,,,,,,,,,,,,,,,,,,,,,,,,,,,,,,,,,,,,,,,,,,,,,3,1.34,0,9,9,9,1,I have little interest in speculating on the nature of the universe or the human condition.,1,10,,
,,,,,,,,,,,,,,,89499,001,2022-04-26_19h02.02.474,SPAMnetsValid,2021.1.4,MacIntel,30.3030303,,,,,,,,,,,,,,,,,,,,,,,,,,,,,,,,,,,,,,,,,,,,,,,,,,,,,,,,,,,,,,,,,,,,,,,,,,,,,,3,0.773,0,10,10,10,1,I have a lot of intellectual curiosity.,0,11,,
,,,,,,,,,,,,,,,89499,001,2022-04-26_19h02.02.474,SPAMnetsValid,2021.1.4,MacIntel,30.3030303,,,,,,,,,,,,,,,,,,,,,,,,,,,,,,,,,,,,,,,,,,,,,,,,,,,,,,,,,,,,,,,,,,,,,,,,,,,,,,3,0.486,0,11,11,11,1,I often enjoy playing with theories or abstract ideas.,0,12,,
,,,,,,,,,,,,,,,89499,001,2022-04-26_19h02.02.474,SPAMnetsValid,2021.1.4,MacIntel,30.3030303,,,,,,,,,,,,,,,,,,,,,,,,,,,,,,,,,,,,,,,,,,,,,,,,,,,,,,,,,,,,,,,,,,,,,,,,,,,,,,,,,,,,,,,,return,5.182
