key_resp_3.keys,key_resp_3.rt,slider.response,slider.rt,rjt_rating,rjt_RT,trials_22.thisRepN,trials_22.thisTrialN,trials_22.thisN,trials_22.thisIndex,trials_22.ran,rjt_order,word1,word2,attention,participant,session,date,expName,psychopyVersion,OS,frameRate,trials_99.thisRepN,trials_99.thisTrialN,trials_99.thisN,trials_99.thisIndex,trials_99.ran,trials_5.thisRepN,trials_5.thisTrialN,trials_5.thisN,trials_5.thisIndex,trials_5.ran,repOne,repTwo,slider_2.response,slider_2.rt,trials_24.thisRepN,trials_24.thisTrialN,trials_24.thisN,trials_24.thisIndex,trials_24.ran,trials_4.thisRepN,trials_4.thisTrialN,trials_4.thisN,trials_4.thisIndex,trials_4.ran,slider_extend_2.response,slider_extend_2.rt,trials_6.thisRepN,trials_6.thisTrialN,trials_6.thisN,trials_6.thisIndex,trials_6.ran,vCue2,R1,R2,R3,R4,correct,sliderVocab.response,sliderVocab.rt,trials_7.thisRepN,trials_7.thisTrialN,trials_7.thisN,trials_7.thisIndex,trials_7.ran,VocabCue,VR1,VR2,VR3,VR4,VR5,VocabCorrect,AUT_resp,AUT_label,trials.thisRepN,trials.thisTrialN,trials.thisN,trials.thisIndex,trials.ran,trials_2.thisRepN,trials_2.thisTrialN,trials_2.thisN,trials_2.thisIndex,trials_2.ran,aut_prompt,VF_response,VF_tag,trials_16.thisRepN,trials_16.thisTrialN,trials_16.thisN,trials_16.thisIndex,trials_16.ran,trials_17.thisRepN,trials_17.thisTrialN,trials_17.thisN,trials_17.thisIndex,trials_17.ran,VFcond,open_slider.response,open_slider.rt,trials_3.thisRepN,trials_3.thisTrialN,trials_3.thisN,trials_3.thisIndex,trials_3.ran,OpenQ,Rev,OPEN_ORDER,key_resp_2.keys,key_resp_2.rt
return,18.5972,1,4.5006,1,4.5006,0,0,0,40,1,74,broom,pretzel,,89526,001,2022-04-27_21h56.38.248,SPAMnetsValid,2021.1.4,Win32,59.94485074,,,,,,,,,,,,,,,,,,,,,,,,,,,,,,,,,,,,,,,,,,,,,,,,,,,,,,,,,,,,,,,,,,,,,,,,,,,,,,,,,,,,,,,,,
,,1,1.6918,1,1.6918,0,1,1,5,1,13,broom,yogurt,,89526,001,2022-04-27_21h56.38.248,SPAMnetsValid,2021.1.4,Win32,59.94485074,,,,,,,,,,,,,,,,,,,,,,,,,,,,,,,,,,,,,,,,,,,,,,,,,,,,,,,,,,,,,,,,,,,,,,,,,,,,,,,,,,,,,,,,,
,,2,4.3529,2,4.3529,0,2,2,0,1,53,garden,pretzel,,89526,001,2022-04-27_21h56.38.248,SPAMnetsValid,2021.1.4,Win32,59.94485074,,,,,,,,,,,,,,,,,,,,,,,,,,,,,,,,,,,,,,,,,,,,,,,,,,,,,,,,,,,,,,,,,,,,,,,,,,,,,,,,,,,,,,,,,
,,2,1.5065,2,1.5065,0,3,3,26,1,35,flower,pretzel,,89526,001,2022-04-27_21h56.38.248,SPAMnetsValid,2021.1.4,Win32,59.94485074,,,,,,,,,,,,,,,,,,,,,,,,,,,,,,,,,,,,,,,,,,,,,,,,,,,,,,,,,,,,,,,,,,,,,,,,,,,,,,,,,,,,,,,,,
,,8,3.3881,8,3.3881,0,4,4,51,1,47,onion,tomato,,89526,001,2022-04-27_21h56.38.248,SPAMnetsValid,2021.1.4,Win32,59.94485074,,,,,,,,,,,,,,,,,,,,,,,,,,,,,,,,,,,,,,,,,,,,,,,,,,,,,,,,,,,,,,,,,,,,,,,,,,,,,,,,,,,,,,,,,
,,1,1.4296,1,1.4296,0,5,5,28,1,84,oven,tomato,,89526,001,2022-04-27_21h56.38.248,SPAMnetsValid,2021.1.4,Win32,59.94485074,,,,,,,,,,,,,,,,,,,,,,,,,,,,,,,,,,,,,,,,,,,,,,,,,,,,,,,,,,,,,,,,,,,,,,,,,,,,,,,,,,,,,,,,,
,,9,2.8392,9,2.8392,0,6,6,83,1,6,garden,onion,,89526,001,2022-04-27_21h56.38.248,SPAMnetsValid,2021.1.4,Win32,59.94485074,,,,,,,,,,,,,,,,,,,,,,,,,,,,,,,,,,,,,,,,,,,,,,,,,,,,,,,,,,,,,,,,,,,,,,,,,,,,,,,,,,,,,,,,,
,,4,2.493,4,2.493,0,7,7,20,1,39,melon,pretzel,,89526,001,2022-04-27_21h56.38.248,SPAMnetsValid,2021.1.4,Win32,59.94485074,,,,,,,,,,,,,,,,,,,,,,,,,,,,,,,,,,,,,,,,,,,,,,,,,,,,,,,,,,,,,,,,,,,,,,,,,,,,,,,,,,,,,,,,,
,,9,1.8497,9,1.8497,0,8,8,10,1,191,cake,cake,CHECK,89526,001,2022-04-27_21h56.38.248,SPAMnetsValid,2021.1.4,Win32,59.94485074,,,,,,,,,,,,,,,,,,,,,,,,,,,,,,,,,,,,,,,,,,,,,,,,,,,,,,,,,,,,,,,,,,,,,,,,,,,,,,,,,,,,,,,,,
,,1,4.8732,1,4.8732,0,9,9,18,1,85,cake,tree,,89526,001,2022-04-27_21h56.38.248,SPAMnetsValid,2021.1.4,Win32,59.94485074,,,,,,,,,,,,,,,,,,,,,,,,,,,,,,,,,,,,,,,,,,,,,,,,,,,,,,,,,,,,,,,,,,,,,,,,,,,,,,,,,,,,,,,,,
,,8,1.8347,8,1.8347,0,10,10,24,1,17,carrot,melon,,89526,001,2022-04-27_21h56.38.248,SPAMnetsValid,2021.1.4,Win32,59.94485074,,,,,,,,,,,,,,,,,,,,,,,,,,,,,,,,,,,,,,,,,,,,,,,,,,,,,,,,,,,,,,,,,,,,,,,,,,,,,,,,,,,,,,,,,
,,6,2.4013,6,2.4013,0,11,11,72,1,59,rose,strawberry,,89526,001,2022-04-27_21h56.38.248,SPAMnetsValid,2021.1.4,Win32,59.94485074,,,,,,,,,,,,,,,,,,,,,,,,,,,,,,,,,,,,,,,,,,,,,,,,,,,,,,,,,,,,,,,,,,,,,,,,,,,,,,,,,,,,,,,,,
,,8,2.0286,8,2.0286,0,12,12,93,1,63,cake,cookie,,89526,001,2022-04-27_21h56.38.248,SPAMnetsValid,2021.1.4,Win32,59.94485074,,,,,,,,,,,,,,,,,,,,,,,,,,,,,,,,,,,,,,,,,,,,,,,,,,,,,,,,,,,,,,,,,,,,,,,,,,,,,,,,,,,,,,,,,
,,4,2.9424,4,2.9424,0,13,13,92,1,44,cookie,melon,,89526,001,2022-04-27_21h56.38.248,SPAMnetsValid,2021.1.4,Win32,59.94485074,,,,,,,,,,,,,,,,,,,,,,,,,,,,,,,,,,,,,,,,,,,,,,,,,,,,,,,,,,,,,,,,,,,,,,,,,,,,,,,,,,,,,,,,,
,,4,3.35,4,3.35,0,14,14,57,1,62,kitchen,rose,,89526,001,2022-04-27_21h56.38.248,SPAMnetsValid,2021.1.4,Win32,59.94485074,,,,,,,,,,,,,,,,,,,,,,,,,,,,,,,,,,,,,,,,,,,,,,,,,,,,,,,,,,,,,,,,,,,,,,,,,,,,,,,,,,,,,,,,,
,,1,2.9352,1,2.9352,0,15,15,49,1,57,flower,kitchen,,89526,001,2022-04-27_21h56.38.248,SPAMnetsValid,2021.1.4,Win32,59.94485074,,,,,,,,,,,,,,,,,,,,,,,,,,,,,,,,,,,,,,,,,,,,,,,,,,,,,,,,,,,,,,,,,,,,,,,,,,,,,,,,,,,,,,,,,
,,4,8.5042,4,8.5042,0,16,16,54,1,28,cake,melon,,89526,001,2022-04-27_21h56.38.248,SPAMnetsValid,2021.1.4,Win32,59.94485074,,,,,,,,,,,,,,,,,,,,,,,,,,,,,,,,,,,,,,,,,,,,,,,,,,,,,,,,,,,,,,,,,,,,,,,,,,,,,,,,,,,,,,,,,
,,8,2.355,8,2.355,0,17,17,67,1,54,chocolate,yogurt,,89526,001,2022-04-27_21h56.38.248,SPAMnetsValid,2021.1.4,Win32,59.94485074,,,,,,,,,,,,,,,,,,,,,,,,,,,,,,,,,,,,,,,,,,,,,,,,,,,,,,,,,,,,,,,,,,,,,,,,,,,,,,,,,,,,,,,,,
,,2,1.3561,2,1.3561,0,18,18,12,1,67,flower,yogurt,,89526,001,2022-04-27_21h56.38.248,SPAMnetsValid,2021.1.4,Win32,59.94485074,,,,,,,,,,,,,,,,,,,,,,,,,,,,,,,,,,,,,,,,,,,,,,,,,,,,,,,,,,,,,,,,,,,,,,,,,,,,,,,,,,,,,,,,,
,,9,1.5513,9,1.5513,0,19,19,91,1,2,kitchen,onion,,89526,001,2022-04-27_21h56.38.248,SPAMnetsValid,2021.1.4,Win32,59.94485074,,,,,,,,,,,,,,,,,,,,,,,,,,,,,,,,,,,,,,,,,,,,,,,,,,,,,,,,,,,,,,,,,,,,,,,,,,,,,,,,,,,,,,,,,
,,8,1.4149,8,1.4149,0,20,20,48,1,66,melon,yogurt,,89526,001,2022-04-27_21h56.38.248,SPAMnetsValid,2021.1.4,Win32,59.94485074,,,,,,,,,,,,,,,,,,,,,,,,,,,,,,,,,,,,,,,,,,,,,,,,,,,,,,,,,,,,,,,,,,,,,,,,,,,,,,,,,,,,,,,,,
,,1,1.8488,1,1.8488,0,21,21,71,1,38,pretzel,refrigerator,,89526,001,2022-04-27_21h56.38.248,SPAMnetsValid,2021.1.4,Win32,59.94485074,,,,,,,,,,,,,,,,,,,,,,,,,,,,,,,,,,,,,,,,,,,,,,,,,,,,,,,,,,,,,,,,,,,,,,,,,,,,,,,,,,,,,,,,,
,,1,2.4295,1,2.4295,0,22,22,16,1,14,broom,cookie,,89526,001,2022-04-27_21h56.38.248,SPAMnetsValid,2021.1.4,Win32,59.94485074,,,,,,,,,,,,,,,,,,,,,,,,,,,,,,,,,,,,,,,,,,,,,,,,,,,,,,,,,,,,,,,,,,,,,,,,,,,,,,,,,,,,,,,,,
,,9,1.2668,9,1.2668,0,23,23,58,1,94,kitchen,microwave,,89526,001,2022-04-27_21h56.38.248,SPAMnetsValid,2021.1.4,Win32,59.94485074,,,,,,,,,,,,,,,,,,,,,,,,,,,,,,,,,,,,,,,,,,,,,,,,,,,,,,,,,,,,,,,,,,,,,,,,,,,,,,,,,,,,,,,,,
,,8,2.5331,8,2.5331,0,24,24,62,1,18,onion,refrigerator,,89526,001,2022-04-27_21h56.38.248,SPAMnetsValid,2021.1.4,Win32,59.94485074,,,,,,,,,,,,,,,,,,,,,,,,,,,,,,,,,,,,,,,,,,,,,,,,,,,,,,,,,,,,,,,,,,,,,,,,,,,,,,,,,,,,,,,,,
,,7,1.9006,7,1.9006,0,25,25,80,1,61,strawberry,tomato,,89526,001,2022-04-27_21h56.38.248,SPAMnetsValid,2021.1.4,Win32,59.94485074,,,,,,,,,,,,,,,,,,,,,,,,,,,,,,,,,,,,,,,,,,,,,,,,,,,,,,,,,,,,,,,,,,,,,,,,,,,,,,,,,,,,,,,,,
,,9,1.114,9,1.114,0,26,26,42,1,77,refrigerator,yogurt,,89526,001,2022-04-27_21h56.38.248,SPAMnetsValid,2021.1.4,Win32,59.94485074,,,,,,,,,,,,,,,,,,,,,,,,,,,,,,,,,,,,,,,,,,,,,,,,,,,,,,,,,,,,,,,,,,,,,,,,,,,,,,,,,,,,,,,,,
,,9,1.332,9,1.332,0,27,27,87,1,79,garden,strawberry,,89526,001,2022-04-27_21h56.38.248,SPAMnetsValid,2021.1.4,Win32,59.94485074,,,,,,,,,,,,,,,,,,,,,,,,,,,,,,,,,,,,,,,,,,,,,,,,,,,,,,,,,,,,,,,,,,,,,,,,,,,,,,,,,,,,,,,,,
,,1,1.3799,1,1.3799,0,28,28,43,1,11,refrigerator,tree,,89526,001,2022-04-27_21h56.38.248,SPAMnetsValid,2021.1.4,Win32,59.94485074,,,,,,,,,,,,,,,,,,,,,,,,,,,,,,,,,,,,,,,,,,,,,,,,,,,,,,,,,,,,,,,,,,,,,,,,,,,,,,,,,,,,,,,,,
,,9,2.0135,9,2.0135,0,29,29,30,1,3,cake,oven,,89526,001,2022-04-27_21h56.38.248,SPAMnetsValid,2021.1.4,Win32,59.94485074,,,,,,,,,,,,,,,,,,,,,,,,,,,,,,,,,,,,,,,,,,,,,,,,,,,,,,,,,,,,,,,,,,,,,,,,,,,,,,,,,,,,,,,,,
,,1,1.2473,1,1.2473,0,30,30,47,1,73,broom,chocolate,,89526,001,2022-04-27_21h56.38.248,SPAMnetsValid,2021.1.4,Win32,59.94485074,,,,,,,,,,,,,,,,,,,,,,,,,,,,,,,,,,,,,,,,,,,,,,,,,,,,,,,,,,,,,,,,,,,,,,,,,,,,,,,,,,,,,,,,,
,,6,2.8022,6,2.8022,0,31,31,78,1,30,cookie,pretzel,,89526,001,2022-04-27_21h56.38.248,SPAMnetsValid,2021.1.4,Win32,59.94485074,,,,,,,,,,,,,,,,,,,,,,,,,,,,,,,,,,,,,,,,,,,,,,,,,,,,,,,,,,,,,,,,,,,,,,,,,,,,,,,,,,,,,,,,,
,,9,1.2352,9,1.2352,0,32,32,64,1,9,kitchen,refrigerator,,89526,001,2022-04-27_21h56.38.248,SPAMnetsValid,2021.1.4,Win32,59.94485074,,,,,,,,,,,,,,,,,,,,,,,,,,,,,,,,,,,,,,,,,,,,,,,,,,,,,,,,,,,,,,,,,,,,,,,,,,,,,,,,,,,,,,,,,
,,2,1.6356,2,1.6356,0,33,33,25,1,23,flower,microwave,,89526,001,2022-04-27_21h56.38.248,SPAMnetsValid,2021.1.4,Win32,59.94485074,,,,,,,,,,,,,,,,,,,,,,,,,,,,,,,,,,,,,,,,,,,,,,,,,,,,,,,,,,,,,,,,,,,,,,,,,,,,,,,,,,,,,,,,,
,,1,1.4137,1,1.4137,0,34,34,61,1,71,broom,rose,,89526,001,2022-04-27_21h56.38.248,SPAMnetsValid,2021.1.4,Win32,59.94485074,,,,,,,,,,,,,,,,,,,,,,,,,,,,,,,,,,,,,,,,,,,,,,,,,,,,,,,,,,,,,,,,,,,,,,,,,,,,,,,,,,,,,,,,,
,,1,1.4497,1,1.4497,0,35,35,23,1,65,broom,garden,,89526,001,2022-04-27_21h56.38.248,SPAMnetsValid,2021.1.4,Win32,59.94485074,,,,,,,,,,,,,,,,,,,,,,,,,,,,,,,,,,,,,,,,,,,,,,,,,,,,,,,,,,,,,,,,,,,,,,,,,,,,,,,,,,,,,,,,,
,,1,2.2005,1,2.2005,0,36,36,41,1,19,microwave,pretzel,,89526,001,2022-04-27_21h56.38.248,SPAMnetsValid,2021.1.4,Win32,59.94485074,,,,,,,,,,,,,,,,,,,,,,,,,,,,,,,,,,,,,,,,,,,,,,,,,,,,,,,,,,,,,,,,,,,,,,,,,,,,,,,,,,,,,,,,,
,,1,1.4314,1,1.4314,0,37,37,65,1,46,garden,yogurt,,89526,001,2022-04-27_21h56.38.248,SPAMnetsValid,2021.1.4,Win32,59.94485074,,,,,,,,,,,,,,,,,,,,,,,,,,,,,,,,,,,,,,,,,,,,,,,,,,,,,,,,,,,,,,,,,,,,,,,,,,,,,,,,,,,,,,,,,
,,9,0.9771,9,0.9771,0,38,38,96,1,82,cake,kitchen,,89526,001,2022-04-27_21h56.38.248,SPAMnetsValid,2021.1.4,Win32,59.94485074,,,,,,,,,,,,,,,,,,,,,,,,,,,,,,,,,,,,,,,,,,,,,,,,,,,,,,,,,,,,,,,,,,,,,,,,,,,,,,,,,,,,,,,,,
,,1,1.2723,1,1.2723,0,39,39,7,1,34,melon,oven,,89526,001,2022-04-27_21h56.38.248,SPAMnetsValid,2021.1.4,Win32,59.94485074,,,,,,,,,,,,,,,,,,,,,,,,,,,,,,,,,,,,,,,,,,,,,,,,,,,,,,,,,,,,,,,,,,,,,,,,,,,,,,,,,,,,,,,,,
,,1,1.3717,1,1.3717,0,40,40,90,1,95,broom,refrigerator,,89526,001,2022-04-27_21h56.38.248,SPAMnetsValid,2021.1.4,Win32,59.94485074,,,,,,,,,,,,,,,,,,,,,,,,,,,,,,,,,,,,,,,,,,,,,,,,,,,,,,,,,,,,,,,,,,,,,,,,,,,,,,,,,,,,,,,,,
,,4,5.1729,4,5.1729,0,41,41,36,1,12,cookie,yogurt,,89526,001,2022-04-27_21h56.38.248,SPAMnetsValid,2021.1.4,Win32,59.94485074,,,,,,,,,,,,,,,,,,,,,,,,,,,,,,,,,,,,,,,,,,,,,,,,,,,,,,,,,,,,,,,,,,,,,,,,,,,,,,,,,,,,,,,,,
,,3,1.2501,3,1.2501,0,42,42,94,1,68,flower,tomato,,89526,001,2022-04-27_21h56.38.248,SPAMnetsValid,2021.1.4,Win32,59.94485074,,,,,,,,,,,,,,,,,,,,,,,,,,,,,,,,,,,,,,,,,,,,,,,,,,,,,,,,,,,,,,,,,,,,,,,,,,,,,,,,,,,,,,,,,
,,7,1.8846,7,1.8846,0,43,43,95,1,52,carrot,tomato,,89526,001,2022-04-27_21h56.38.248,SPAMnetsValid,2021.1.4,Win32,59.94485074,,,,,,,,,,,,,,,,,,,,,,,,,,,,,,,,,,,,,,,,,,,,,,,,,,,,,,,,,,,,,,,,,,,,,,,,,,,,,,,,,,,,,,,,,
,,1,1.7084,1,1.7084,0,44,44,13,1,26,tomato,yogurt,,89526,001,2022-04-27_21h56.38.248,SPAMnetsValid,2021.1.4,Win32,59.94485074,,,,,,,,,,,,,,,,,,,,,,,,,,,,,,,,,,,,,,,,,,,,,,,,,,,,,,,,,,,,,,,,,,,,,,,,,,,,,,,,,,,,,,,,,
,,1,1.4879,1,1.4879,0,45,45,68,1,24,cookie,tomato,,89526,001,2022-04-27_21h56.38.248,SPAMnetsValid,2021.1.4,Win32,59.94485074,,,,,,,,,,,,,,,,,,,,,,,,,,,,,,,,,,,,,,,,,,,,,,,,,,,,,,,,,,,,,,,,,,,,,,,,,,,,,,,,,,,,,,,,,
,,3,1.4527,3,1.4527,0,46,46,86,1,51,onion,strawberry,,89526,001,2022-04-27_21h56.38.248,SPAMnetsValid,2021.1.4,Win32,59.94485074,,,,,,,,,,,,,,,,,,,,,,,,,,,,,,,,,,,,,,,,,,,,,,,,,,,,,,,,,,,,,,,,,,,,,,,,,,,,,,,,,,,,,,,,,
,,9,1.5049,9,1.5049,0,47,47,19,1,76,garden,rose,,89526,001,2022-04-27_21h56.38.248,SPAMnetsValid,2021.1.4,Win32,59.94485074,,,,,,,,,,,,,,,,,,,,,,,,,,,,,,,,,,,,,,,,,,,,,,,,,,,,,,,,,,,,,,,,,,,,,,,,,,,,,,,,,,,,,,,,,
,,9,1.2106,9,1.2106,0,48,48,53,1,192,microwave,microwave,CHECK,89526,001,2022-04-27_21h56.38.248,SPAMnetsValid,2021.1.4,Win32,59.94485074,,,,,,,,,,,,,,,,,,,,,,,,,,,,,,,,,,,,,,,,,,,,,,,,,,,,,,,,,,,,,,,,,,,,,,,,,,,,,,,,,,,,,,,,,
,,3,2.4105,3,2.4105,0,49,49,27,1,72,broom,onion,,89526,001,2022-04-27_21h56.38.248,SPAMnetsValid,2021.1.4,Win32,59.94485074,,,,,,,,,,,,,,,,,,,,,,,,,,,,,,,,,,,,,,,,,,,,,,,,,,,,,,,,,,,,,,,,,,,,,,,,,,,,,,,,,,,,,,,,,
,,1,2.157,1,2.157,0,50,50,29,1,42,garden,kitchen,,89526,001,2022-04-27_21h56.38.248,SPAMnetsValid,2021.1.4,Win32,59.94485074,,,,,,,,,,,,,,,,,,,,,,,,,,,,,,,,,,,,,,,,,,,,,,,,,,,,,,,,,,,,,,,,,,,,,,,,,,,,,,,,,,,,,,,,,
,,1,1.4623,1,1.4623,0,51,51,4,1,83,broom,carrot,,89526,001,2022-04-27_21h56.38.248,SPAMnetsValid,2021.1.4,Win32,59.94485074,,,,,,,,,,,,,,,,,,,,,,,,,,,,,,,,,,,,,,,,,,,,,,,,,,,,,,,,,,,,,,,,,,,,,,,,,,,,,,,,,,,,,,,,,
,,1,1.7878,1,1.7878,0,52,52,60,1,89,chocolate,rose,,89526,001,2022-04-27_21h56.38.248,SPAMnetsValid,2021.1.4,Win32,59.94485074,,,,,,,,,,,,,,,,,,,,,,,,,,,,,,,,,,,,,,,,,,,,,,,,,,,,,,,,,,,,,,,,,,,,,,,,,,,,,,,,,,,,,,,,,
,,3,7.9875,3,7.9875,0,53,53,55,1,1,rose,yogurt,,89526,001,2022-04-27_21h56.38.248,SPAMnetsValid,2021.1.4,Win32,59.94485074,,,,,,,,,,,,,,,,,,,,,,,,,,,,,,,,,,,,,,,,,,,,,,,,,,,,,,,,,,,,,,,,,,,,,,,,,,,,,,,,,,,,,,,,,
,,3,2.1221,3,2.1221,0,54,54,14,1,64,chocolate,garden,,89526,001,2022-04-27_21h56.38.248,SPAMnetsValid,2021.1.4,Win32,59.94485074,,,,,,,,,,,,,,,,,,,,,,,,,,,,,,,,,,,,,,,,,,,,,,,,,,,,,,,,,,,,,,,,,,,,,,,,,,,,,,,,,,,,,,,,,
,,1,2.1096,1,2.1096,0,55,55,34,1,29,chocolate,melon,,89526,001,2022-04-27_21h56.38.248,SPAMnetsValid,2021.1.4,Win32,59.94485074,,,,,,,,,,,,,,,,,,,,,,,,,,,,,,,,,,,,,,,,,,,,,,,,,,,,,,,,,,,,,,,,,,,,,,,,,,,,,,,,,,,,,,,,,
,,1,1.376,1,1.376,0,56,56,32,1,40,broom,cake,,89526,001,2022-04-27_21h56.38.248,SPAMnetsValid,2021.1.4,Win32,59.94485074,,,,,,,,,,,,,,,,,,,,,,,,,,,,,,,,,,,,,,,,,,,,,,,,,,,,,,,,,,,,,,,,,,,,,,,,,,,,,,,,,,,,,,,,,
,,1,1.9421,1,1.9421,0,57,57,81,1,60,cactus,onion,,89526,001,2022-04-27_21h56.38.248,SPAMnetsValid,2021.1.4,Win32,59.94485074,,,,,,,,,,,,,,,,,,,,,,,,,,,,,,,,,,,,,,,,,,,,,,,,,,,,,,,,,,,,,,,,,,,,,,,,,,,,,,,,,,,,,,,,,
,,1,2.4872,1,2.4872,0,58,58,63,1,21,cake,onion,,89526,001,2022-04-27_21h56.38.248,SPAMnetsValid,2021.1.4,Win32,59.94485074,,,,,,,,,,,,,,,,,,,,,,,,,,,,,,,,,,,,,,,,,,,,,,,,,,,,,,,,,,,,,,,,,,,,,,,,,,,,,,,,,,,,,,,,,
,,7,2.2126,7,2.2126,0,59,59,44,1,25,carrot,onion,,89526,001,2022-04-27_21h56.38.248,SPAMnetsValid,2021.1.4,Win32,59.94485074,,,,,,,,,,,,,,,,,,,,,,,,,,,,,,,,,,,,,,,,,,,,,,,,,,,,,,,,,,,,,,,,,,,,,,,,,,,,,,,,,,,,,,,,,
,,1,1.2303,1,1.2303,0,60,60,69,1,45,onion,pretzel,,89526,001,2022-04-27_21h56.38.248,SPAMnetsValid,2021.1.4,Win32,59.94485074,,,,,,,,,,,,,,,,,,,,,,,,,,,,,,,,,,,,,,,,,,,,,,,,,,,,,,,,,,,,,,,,,,,,,,,,,,,,,,,,,,,,,,,,,
,,9,1.2976,9,1.2976,0,61,61,82,1,93,kitchen,oven,,89526,001,2022-04-27_21h56.38.248,SPAMnetsValid,2021.1.4,Win32,59.94485074,,,,,,,,,,,,,,,,,,,,,,,,,,,,,,,,,,,,,,,,,,,,,,,,,,,,,,,,,,,,,,,,,,,,,,,,,,,,,,,,,,,,,,,,,
,,6,4.4546,6,4.4546,0,62,62,45,1,10,flower,onion,,89526,001,2022-04-27_21h56.38.248,SPAMnetsValid,2021.1.4,Win32,59.94485074,,,,,,,,,,,,,,,,,,,,,,,,,,,,,,,,,,,,,,,,,,,,,,,,,,,,,,,,,,,,,,,,,,,,,,,,,,,,,,,,,,,,,,,,,
,,2,1.4807,2,1.4807,0,63,63,6,1,87,carrot,yogurt,,89526,001,2022-04-27_21h56.38.248,SPAMnetsValid,2021.1.4,Win32,59.94485074,,,,,,,,,,,,,,,,,,,,,,,,,,,,,,,,,,,,,,,,,,,,,,,,,,,,,,,,,,,,,,,,,,,,,,,,,,,,,,,,,,,,,,,,,
,,1,3.2805,1,3.2805,0,64,64,85,1,90,cactus,cake,,89526,001,2022-04-27_21h56.38.248,SPAMnetsValid,2021.1.4,Win32,59.94485074,,,,,,,,,,,,,,,,,,,,,,,,,,,,,,,,,,,,,,,,,,,,,,,,,,,,,,,,,,,,,,,,,,,,,,,,,,,,,,,,,,,,,,,,,
,,1,2.1565,1,2.1565,0,65,65,59,1,8,broom,melon,,89526,001,2022-04-27_21h56.38.248,SPAMnetsValid,2021.1.4,Win32,59.94485074,,,,,,,,,,,,,,,,,,,,,,,,,,,,,,,,,,,,,,,,,,,,,,,,,,,,,,,,,,,,,,,,,,,,,,,,,,,,,,,,,,,,,,,,,
,,1,1.2311,1,1.2311,0,66,66,17,1,27,cactus,cookie,,89526,001,2022-04-27_21h56.38.248,SPAMnetsValid,2021.1.4,Win32,59.94485074,,,,,,,,,,,,,,,,,,,,,,,,,,,,,,,,,,,,,,,,,,,,,,,,,,,,,,,,,,,,,,,,,,,,,,,,,,,,,,,,,,,,,,,,,
,,3,2.1138,3,2.1138,0,67,67,39,1,15,onion,oven,,89526,001,2022-04-27_21h56.38.248,SPAMnetsValid,2021.1.4,Win32,59.94485074,,,,,,,,,,,,,,,,,,,,,,,,,,,,,,,,,,,,,,,,,,,,,,,,,,,,,,,,,,,,,,,,,,,,,,,,,,,,,,,,,,,,,,,,,
,,1,10.768,1,10.768,0,68,68,11,1,37,garden,refrigerator,,89526,001,2022-04-27_21h56.38.248,SPAMnetsValid,2021.1.4,Win32,59.94485074,,,,,,,,,,,,,,,,,,,,,,,,,,,,,,,,,,,,,,,,,,,,,,,,,,,,,,,,,,,,,,,,,,,,,,,,,,,,,,,,,,,,,,,,,
,,1,1.1487,1,1.1487,0,69,69,50,1,81,pretzel,yogurt,,89526,001,2022-04-27_21h56.38.248,SPAMnetsValid,2021.1.4,Win32,59.94485074,,,,,,,,,,,,,,,,,,,,,,,,,,,,,,,,,,,,,,,,,,,,,,,,,,,,,,,,,,,,,,,,,,,,,,,,,,,,,,,,,,,,,,,,,
,,7,2.6835,7,2.6835,0,70,70,75,1,69,carrot,refrigerator,,89526,001,2022-04-27_21h56.38.248,SPAMnetsValid,2021.1.4,Win32,59.94485074,,,,,,,,,,,,,,,,,,,,,,,,,,,,,,,,,,,,,,,,,,,,,,,,,,,,,,,,,,,,,,,,,,,,,,,,,,,,,,,,,,,,,,,,,
,,1,1.0476,1,1.0476,0,71,71,9,1,75,cookie,onion,,89526,001,2022-04-27_21h56.38.248,SPAMnetsValid,2021.1.4,Win32,59.94485074,,,,,,,,,,,,,,,,,,,,,,,,,,,,,,,,,,,,,,,,,,,,,,,,,,,,,,,,,,,,,,,,,,,,,,,,,,,,,,,,,,,,,,,,,
,,4,3.4636,4,3.4636,0,72,72,33,1,32,cake,microwave,,89526,001,2022-04-27_21h56.38.248,SPAMnetsValid,2021.1.4,Win32,59.94485074,,,,,,,,,,,,,,,,,,,,,,,,,,,,,,,,,,,,,,,,,,,,,,,,,,,,,,,,,,,,,,,,,,,,,,,,,,,,,,,,,,,,,,,,,
,,1,1.2012,1,1.2012,0,73,73,74,1,70,chocolate,onion,,89526,001,2022-04-27_21h56.38.248,SPAMnetsValid,2021.1.4,Win32,59.94485074,,,,,,,,,,,,,,,,,,,,,,,,,,,,,,,,,,,,,,,,,,,,,,,,,,,,,,,,,,,,,,,,,,,,,,,,,,,,,,,,,,,,,,,,,
,,1,2.2644,1,2.2644,0,74,74,84,1,91,microwave,rose,,89526,001,2022-04-27_21h56.38.248,SPAMnetsValid,2021.1.4,Win32,59.94485074,,,,,,,,,,,,,,,,,,,,,,,,,,,,,,,,,,,,,,,,,,,,,,,,,,,,,,,,,,,,,,,,,,,,,,,,,,,,,,,,,,,,,,,,,
,,4,2.0806,4,2.0806,0,75,75,3,1,49,flower,strawberry,,89526,001,2022-04-27_21h56.38.248,SPAMnetsValid,2021.1.4,Win32,59.94485074,,,,,,,,,,,,,,,,,,,,,,,,,,,,,,,,,,,,,,,,,,,,,,,,,,,,,,,,,,,,,,,,,,,,,,,,,,,,,,,,,,,,,,,,,
,,1,1.2014,1,1.2014,0,76,76,22,1,16,chocolate,flower,,89526,001,2022-04-27_21h56.38.248,SPAMnetsValid,2021.1.4,Win32,59.94485074,,,,,,,,,,,,,,,,,,,,,,,,,,,,,,,,,,,,,,,,,,,,,,,,,,,,,,,,,,,,,,,,,,,,,,,,,,,,,,,,,,,,,,,,,
,,1,1.3199,1,1.3199,0,77,77,56,1,78,cookie,rose,,89526,001,2022-04-27_21h56.38.248,SPAMnetsValid,2021.1.4,Win32,59.94485074,,,,,,,,,,,,,,,,,,,,,,,,,,,,,,,,,,,,,,,,,,,,,,,,,,,,,,,,,,,,,,,,,,,,,,,,,,,,,,,,,,,,,,,,,
,,1,1.0321,1,1.0321,0,78,78,76,1,36,broom,kitchen,,89526,001,2022-04-27_21h56.38.248,SPAMnetsValid,2021.1.4,Win32,59.94485074,,,,,,,,,,,,,,,,,,,,,,,,,,,,,,,,,,,,,,,,,,,,,,,,,,,,,,,,,,,,,,,,,,,,,,,,,,,,,,,,,,,,,,,,,
,,3,4.095,3,4.095,0,79,79,70,1,5,oven,tree,,89526,001,2022-04-27_21h56.38.248,SPAMnetsValid,2021.1.4,Win32,59.94485074,,,,,,,,,,,,,,,,,,,,,,,,,,,,,,,,,,,,,,,,,,,,,,,,,,,,,,,,,,,,,,,,,,,,,,,,,,,,,,,,,,,,,,,,,
,,9,1.5767,9,1.5767,0,80,80,2,1,22,kitchen,strawberry,,89526,001,2022-04-27_21h56.38.248,SPAMnetsValid,2021.1.4,Win32,59.94485074,,,,,,,,,,,,,,,,,,,,,,,,,,,,,,,,,,,,,,,,,,,,,,,,,,,,,,,,,,,,,,,,,,,,,,,,,,,,,,,,,,,,,,,,,
,,1,1.2304,1,1.2304,0,81,81,89,1,80,chocolate,tree,,89526,001,2022-04-27_21h56.38.248,SPAMnetsValid,2021.1.4,Win32,59.94485074,,,,,,,,,,,,,,,,,,,,,,,,,,,,,,,,,,,,,,,,,,,,,,,,,,,,,,,,,,,,,,,,,,,,,,,,,,,,,,,,,,,,,,,,,
,,1,1.563,1,1.563,0,82,82,8,1,43,chocolate,tomato,,89526,001,2022-04-27_21h56.38.248,SPAMnetsValid,2021.1.4,Win32,59.94485074,,,,,,,,,,,,,,,,,,,,,,,,,,,,,,,,,,,,,,,,,,,,,,,,,,,,,,,,,,,,,,,,,,,,,,,,,,,,,,,,,,,,,,,,,
,,1,2.22,1,2.22,0,83,83,38,1,88,cactus,melon,,89526,001,2022-04-27_21h56.38.248,SPAMnetsValid,2021.1.4,Win32,59.94485074,,,,,,,,,,,,,,,,,,,,,,,,,,,,,,,,,,,,,,,,,,,,,,,,,,,,,,,,,,,,,,,,,,,,,,,,,,,,,,,,,,,,,,,,,
,,1,1.4882,1,1.4882,0,84,84,37,1,58,garden,oven,,89526,001,2022-04-27_21h56.38.248,SPAMnetsValid,2021.1.4,Win32,59.94485074,,,,,,,,,,,,,,,,,,,,,,,,,,,,,,,,,,,,,,,,,,,,,,,,,,,,,,,,,,,,,,,,,,,,,,,,,,,,,,,,,,,,,,,,,
,,2,2.4194,2,2.4194,0,85,85,52,1,4,chocolate,pretzel,,89526,001,2022-04-27_21h56.38.248,SPAMnetsValid,2021.1.4,Win32,59.94485074,,,,,,,,,,,,,,,,,,,,,,,,,,,,,,,,,,,,,,,,,,,,,,,,,,,,,,,,,,,,,,,,,,,,,,,,,,,,,,,,,,,,,,,,,
,,1,3.4106,1,3.4106,0,86,86,35,1,55,tomato,tree,,89526,001,2022-04-27_21h56.38.248,SPAMnetsValid,2021.1.4,Win32,59.94485074,,,,,,,,,,,,,,,,,,,,,,,,,,,,,,,,,,,,,,,,,,,,,,,,,,,,,,,,,,,,,,,,,,,,,,,,,,,,,,,,,,,,,,,,,
,,1,2.3532,1,2.3532,0,87,87,31,1,33,oven,yogurt,,89526,001,2022-04-27_21h56.38.248,SPAMnetsValid,2021.1.4,Win32,59.94485074,,,,,,,,,,,,,,,,,,,,,,,,,,,,,,,,,,,,,,,,,,,,,,,,,,,,,,,,,,,,,,,,,,,,,,,,,,,,,,,,,,,,,,,,,
,,1,2.9679,1,2.9679,0,88,88,21,1,56,cactus,tree,,89526,001,2022-04-27_21h56.38.248,SPAMnetsValid,2021.1.4,Win32,59.94485074,,,,,,,,,,,,,,,,,,,,,,,,,,,,,,,,,,,,,,,,,,,,,,,,,,,,,,,,,,,,,,,,,,,,,,,,,,,,,,,,,,,,,,,,,
,,1,7.097,1,7.097,0,89,89,77,1,7,melon,tree,,89526,001,2022-04-27_21h56.38.248,SPAMnetsValid,2021.1.4,Win32,59.94485074,,,,,,,,,,,,,,,,,,,,,,,,,,,,,,,,,,,,,,,,,,,,,,,,,,,,,,,,,,,,,,,,,,,,,,,,,,,,,,,,,,,,,,,,,
,,1,1.1348,1,1.1348,0,90,90,1,1,31,cactus,pretzel,,89526,001,2022-04-27_21h56.38.248,SPAMnetsValid,2021.1.4,Win32,59.94485074,,,,,,,,,,,,,,,,,,,,,,,,,,,,,,,,,,,,,,,,,,,,,,,,,,,,,,,,,,,,,,,,,,,,,,,,,,,,,,,,,,,,,,,,,
,,1,1.3001,1,1.3001,0,91,91,46,1,41,broom,cactus,,89526,001,2022-04-27_21h56.38.248,SPAMnetsValid,2021.1.4,Win32,59.94485074,,,,,,,,,,,,,,,,,,,,,,,,,,,,,,,,,,,,,,,,,,,,,,,,,,,,,,,,,,,,,,,,,,,,,,,,,,,,,,,,,,,,,,,,,
,,1,2.1726,1,2.1726,0,92,92,66,1,20,rose,tree,,89526,001,2022-04-27_21h56.38.248,SPAMnetsValid,2021.1.4,Win32,59.94485074,,,,,,,,,,,,,,,,,,,,,,,,,,,,,,,,,,,,,,,,,,,,,,,,,,,,,,,,,,,,,,,,,,,,,,,,,,,,,,,,,,,,,,,,,
,,2,3.075,2,3.075,0,93,93,73,1,50,carrot,rose,,89526,001,2022-04-27_21h56.38.248,SPAMnetsValid,2021.1.4,Win32,59.94485074,,,,,,,,,,,,,,,,,,,,,,,,,,,,,,,,,,,,,,,,,,,,,,,,,,,,,,,,,,,,,,,,,,,,,,,,,,,,,,,,,,,,,,,,,
,,1,1.5888,1,1.5888,0,94,94,88,1,92,broom,flower,,89526,001,2022-04-27_21h56.38.248,SPAMnetsValid,2021.1.4,Win32,59.94485074,,,,,,,,,,,,,,,,,,,,,,,,,,,,,,,,,,,,,,,,,,,,,,,,,,,,,,,,,,,,,,,,,,,,,,,,,,,,,,,,,,,,,,,,,
,,1,2.0412,1,2.0412,0,95,95,15,1,48,flower,oven,,89526,001,2022-04-27_21h56.38.248,SPAMnetsValid,2021.1.4,Win32,59.94485074,,,,,,,,,,,,,,,,,,,,,,,,,,,,,,,,,,,,,,,,,,,,,,,,,,,,,,,,,,,,,,,,,,,,,,,,,,,,,,,,,,,,,,,,,
,,1,2.3203,1,2.3203,0,96,96,79,1,86,oven,rose,,89526,001,2022-04-27_21h56.38.248,SPAMnetsValid,2021.1.4,Win32,59.94485074,,,,,,,,,,,,,,,,,,,,,,,,,,,,,,,,,,,,,,,,,,,,,,,,,,,,,,,,,,,,,,,,,,,,,,,,,,,,,,,,,,,,,,,,,
,,,,,,,,,,,,,,,89526,001,2022-04-27_21h56.38.248,SPAMnetsValid,2021.1.4,Win32,59.94485074,0,0,0,0,1,,,,,,,,,,,,,,,,,,,,,,,,,,,,,,,,,,,,,,,,,,,,,,,,,,,,,,,,,,,,,,,,,,,,,,,,,,,,,,,,,,,,
,,,,,,,,,,,,,,,89526,001,2022-04-27_21h56.38.248,SPAMnetsValid,2021.1.4,Win32,59.94485074,,,,,,0,0,0,0,1,1,0,,,,,,,,,,,,,,,,,,,,,,,,,,,,,,,,,,,,,,,,,,,,,,,,,,,,,,,,,,,,,,,,,,,,,,,,,,,,,
,,,,7,5.9714,,,,,,166,cake,yogurt,,89526,001,2022-04-27_21h56.38.248,SPAMnetsValid,2021.1.4,Win32,59.94485074,,,,,,,,,,,,,7,5.9714,0,0,0,91,1,,,,,,,,,,,,,,,,,,,,,,,,,,,,,,,,,,,,,,,,,,,,,,,,,,,,,,,,,,,,,,,,,,,,,,
,,,,1,0.993,,,,,,174,cake,pretzel,,89526,001,2022-04-27_21h56.38.248,SPAMnetsValid,2021.1.4,Win32,59.94485074,,,,,,,,,,,,,1,0.993,0,1,1,2,1,,,,,,,,,,,,,,,,,,,,,,,,,,,,,,,,,,,,,,,,,,,,,,,,,,,,,,,,,,,,,,,,,,,,,,
,,,,1,1.1934,,,,,,119,strawberry,tree,,89526,001,2022-04-27_21h56.38.248,SPAMnetsValid,2021.1.4,Win32,59.94485074,,,,,,,,,,,,,1,1.1934,0,2,2,18,1,,,,,,,,,,,,,,,,,,,,,,,,,,,,,,,,,,,,,,,,,,,,,,,,,,,,,,,,,,,,,,,,,,,,,,
,,,,1,1.688,,,,,,125,carrot,tree,,89526,001,2022-04-27_21h56.38.248,SPAMnetsValid,2021.1.4,Win32,59.94485074,,,,,,,,,,,,,1,1.688,0,3,3,30,1,,,,,,,,,,,,,,,,,,,,,,,,,,,,,,,,,,,,,,,,,,,,,,,,,,,,,,,,,,,,,,,,,,,,,,
,,,,1,0.8785,,,,,,108,carrot,chocolate,,89526,001,2022-04-27_21h56.38.248,SPAMnetsValid,2021.1.4,Win32,59.94485074,,,,,,,,,,,,,1,0.8785,0,4,4,5,1,,,,,,,,,,,,,,,,,,,,,,,,,,,,,,,,,,,,,,,,,,,,,,,,,,,,,,,,,,,,,,,,,,,,,,
,,,,1,1.87,,,,,,146,pretzel,tree,,89526,001,2022-04-27_21h56.38.248,SPAMnetsValid,2021.1.4,Win32,59.94485074,,,,,,,,,,,,,1,1.87,0,5,5,80,1,,,,,,,,,,,,,,,,,,,,,,,,,,,,,,,,,,,,,,,,,,,,,,,,,,,,,,,,,,,,,,,,,,,,,,
,,,,1,1.6679,,,,,,190,microwave,strawberry,,89526,001,2022-04-27_21h56.38.248,SPAMnetsValid,2021.1.4,Win32,59.94485074,,,,,,,,,,,,,1,1.6679,0,6,6,90,1,,,,,,,,,,,,,,,,,,,,,,,,,,,,,,,,,,,,,,,,,,,,,,,,,,,,,,,,,,,,,,,,,,,,,,
,,,,2,2.0179,,,,,,151,microwave,onion,,89526,001,2022-04-27_21h56.38.248,SPAMnetsValid,2021.1.4,Win32,59.94485074,,,,,,,,,,,,,2,2.0179,0,7,7,6,1,,,,,,,,,,,,,,,,,,,,,,,,,,,,,,,,,,,,,,,,,,,,,,,,,,,,,,,,,,,,,,,,,,,,,,
,,,,1,1.2343,,,,,,179,broom,oven,,89526,001,2022-04-27_21h56.38.248,SPAMnetsValid,2021.1.4,Win32,59.94485074,,,,,,,,,,,,,1,1.2343,0,8,8,45,1,,,,,,,,,,,,,,,,,,,,,,,,,,,,,,,,,,,,,,,,,,,,,,,,,,,,,,,,,,,,,,,,,,,,,,
,,,,1,1.9665,,,,,,148,flower,melon,,89526,001,2022-04-27_21h56.38.248,SPAMnetsValid,2021.1.4,Win32,59.94485074,,,,,,,,,,,,,1,1.9665,0,9,9,23,1,,,,,,,,,,,,,,,,,,,,,,,,,,,,,,,,,,,,,,,,,,,,,,,,,,,,,,,,,,,,,,,,,,,,,,
,,,,8,2.738,,,,,,131,cactus,garden,,89526,001,2022-04-27_21h56.38.248,SPAMnetsValid,2021.1.4,Win32,59.94485074,,,,,,,,,,,,,8,2.738,0,10,10,33,1,,,,,,,,,,,,,,,,,,,,,,,,,,,,,,,,,,,,,,,,,,,,,,,,,,,,,,,,,,,,,,,,,,,,,,
,,,,1,1.6521,,,,,,152,cactus,strawberry,,89526,001,2022-04-27_21h56.38.248,SPAMnetsValid,2021.1.4,Win32,59.94485074,,,,,,,,,,,,,1,1.6521,0,11,11,49,1,,,,,,,,,,,,,,,,,,,,,,,,,,,,,,,,,,,,,,,,,,,,,,,,,,,,,,,,,,,,,,,,,,,,,,
,,,,3,2.697,,,,,,96,oven,strawberry,,89526,001,2022-04-27_21h56.38.248,SPAMnetsValid,2021.1.4,Win32,59.94485074,,,,,,,,,,,,,3,2.697,0,12,12,67,1,,,,,,,,,,,,,,,,,,,,,,,,,,,,,,,,,,,,,,,,,,,,,,,,,,,,,,,,,,,,,,,,,,,,,,
,,,,7,3.4246,,,,,,168,cactus,flower,,89526,001,2022-04-27_21h56.38.248,SPAMnetsValid,2021.1.4,Win32,59.94485074,,,,,,,,,,,,,7,3.4246,0,13,13,51,1,,,,,,,,,,,,,,,,,,,,,,,,,,,,,,,,,,,,,,,,,,,,,,,,,,,,,,,,,,,,,,,,,,,,,,
,,,,9,1.4997,,,,,,138,flower,rose,,89526,001,2022-04-27_21h56.38.248,SPAMnetsValid,2021.1.4,Win32,59.94485074,,,,,,,,,,,,,9,1.4997,0,14,14,61,1,,,,,,,,,,,,,,,,,,,,,,,,,,,,,,,,,,,,,,,,,,,,,,,,,,,,,,,,,,,,,,,,,,,,,,
,,,,4,3.9329,,,,,,117,melon,strawberry,,89526,001,2022-04-27_21h56.38.248,SPAMnetsValid,2021.1.4,Win32,59.94485074,,,,,,,,,,,,,4,3.9329,0,15,15,11,1,,,,,,,,,,,,,,,,,,,,,,,,,,,,,,,,,,,,,,,,,,,,,,,,,,,,,,,,,,,,,,,,,,,,,,
,,,,1,1.2064,,,,,,102,chocolate,refrigerator,,89526,001,2022-04-27_21h56.38.248,SPAMnetsValid,2021.1.4,Win32,59.94485074,,,,,,,,,,,,,1,1.2064,0,16,16,76,1,,,,,,,,,,,,,,,,,,,,,,,,,,,,,,,,,,,,,,,,,,,,,,,,,,,,,,,,,,,,,,,,,,,,,,
,,,,1,3.1781,,,,,,182,flower,refrigerator,,89526,001,2022-04-27_21h56.38.248,SPAMnetsValid,2021.1.4,Win32,59.94485074,,,,,,,,,,,,,1,3.1781,0,17,17,32,1,,,,,,,,,,,,,,,,,,,,,,,,,,,,,,,,,,,,,,,,,,,,,,,,,,,,,,,,,,,,,,,,,,,,,,
,,,,1,1.3171,,,,,,189,onion,tree,,89526,001,2022-04-27_21h56.38.248,SPAMnetsValid,2021.1.4,Win32,59.94485074,,,,,,,,,,,,,1,1.3171,0,18,18,62,1,,,,,,,,,,,,,,,,,,,,,,,,,,,,,,,,,,,,,,,,,,,,,,,,,,,,,,,,,,,,,,,,,,,,,,
,,,,9,1.2801,,,,,,194,cactus,cactus,CHECK,89526,001,2022-04-27_21h56.38.248,SPAMnetsValid,2021.1.4,Win32,59.94485074,,,,,,,,,,,,,9,1.2801,0,19,19,25,1,,,,,,,,,,,,,,,,,,,,,,,,,,,,,,,,,,,,,,,,,,,,,,,,,,,,,,,,,,,,,,,,,,,,,,
,,,,9,2.7644,,,,,,118,chocolate,oven,,89526,001,2022-04-27_21h56.38.248,SPAMnetsValid,2021.1.4,Win32,59.94485074,,,,,,,,,,,,,9,2.7644,0,20,20,10,1,,,,,,,,,,,,,,,,,,,,,,,,,,,,,,,,,,,,,,,,,,,,,,,,,,,,,,,,,,,,,,,,,,,,,,
,,,,9,1.22,,,,,,120,microwave,oven,,89526,001,2022-04-27_21h56.38.248,SPAMnetsValid,2021.1.4,Win32,59.94485074,,,,,,,,,,,,,9,1.22,0,21,21,14,1,,,,,,,,,,,,,,,,,,,,,,,,,,,,,,,,,,,,,,,,,,,,,,,,,,,,,,,,,,,,,,,,,,,,,,
,,,,1,3.4718,,,,,,98,pretzel,strawberry,,89526,001,2022-04-27_21h56.38.248,SPAMnetsValid,2021.1.4,Win32,59.94485074,,,,,,,,,,,,,1,3.4718,0,22,22,82,1,,,,,,,,,,,,,,,,,,,,,,,,,,,,,,,,,,,,,,,,,,,,,,,,,,,,,,,,,,,,,,,,,,,,,,
,,,,8,3.0889,,,,,,115,refrigerator,tomato,,89526,001,2022-04-27_21h56.38.248,SPAMnetsValid,2021.1.4,Win32,59.94485074,,,,,,,,,,,,,8,3.0889,0,23,23,85,1,,,,,,,,,,,,,,,,,,,,,,,,,,,,,,,,,,,,,,,,,,,,,,,,,,,,,,,,,,,,,,,,,,,,,,
,,,,1,1.6614,,,,,,132,broom,tree,,89526,001,2022-04-27_21h56.38.248,SPAMnetsValid,2021.1.4,Win32,59.94485074,,,,,,,,,,,,,1,1.6614,0,24,24,78,1,,,,,,,,,,,,,,,,,,,,,,,,,,,,,,,,,,,,,,,,,,,,,,,,,,,,,,,,,,,,,,,,,,,,,,
,,,,1,3.3039,,,,,,171,cake,tomato,,89526,001,2022-04-27_21h56.38.248,SPAMnetsValid,2021.1.4,Win32,59.94485074,,,,,,,,,,,,,1,3.3039,0,25,25,88,1,,,,,,,,,,,,,,,,,,,,,,,,,,,,,,,,,,,,,,,,,,,,,,,,,,,,,,,,,,,,,,,,,,,,,,
,,,,1,1.1114,,,,,,145,cactus,yogurt,,89526,001,2022-04-27_21h56.38.248,SPAMnetsValid,2021.1.4,Win32,59.94485074,,,,,,,,,,,,,1,1.1114,0,26,26,15,1,,,,,,,,,,,,,,,,,,,,,,,,,,,,,,,,,,,,,,,,,,,,,,,,,,,,,,,,,,,,,,,,,,,,,,
,,,,8,1.6425,,,,,,163,melon,refrigerator,,89526,001,2022-04-27_21h56.38.248,SPAMnetsValid,2021.1.4,Win32,59.94485074,,,,,,,,,,,,,8,1.6425,0,27,27,29,1,,,,,,,,,,,,,,,,,,,,,,,,,,,,,,,,,,,,,,,,,,,,,,,,,,,,,,,,,,,,,,,,,,,,,,
,,,,2,12.5427,,,,,,130,microwave,yogurt,,89526,001,2022-04-27_21h56.38.248,SPAMnetsValid,2021.1.4,Win32,59.94485074,,,,,,,,,,,,,2,12.5427,0,28,28,84,1,,,,,,,,,,,,,,,,,,,,,,,,,,,,,,,,,,,,,,,,,,,,,,,,,,,,,,,,,,,,,,,,,,,,,,
,,,,1,3.1165,,,,,,175,melon,onion,,89526,001,2022-04-27_21h56.38.248,SPAMnetsValid,2021.1.4,Win32,59.94485074,,,,,,,,,,,,,1,3.1165,0,29,29,41,1,,,,,,,,,,,,,,,,,,,,,,,,,,,,,,,,,,,,,,,,,,,,,,,,,,,,,,,,,,,,,,,,,,,,,,
,,,,9,2.5961,,,,,,110,chocolate,cookie,,89526,001,2022-04-27_21h56.38.248,SPAMnetsValid,2021.1.4,Win32,59.94485074,,,,,,,,,,,,,9,2.5961,0,30,30,52,1,,,,,,,,,,,,,,,,,,,,,,,,,,,,,,,,,,,,,,,,,,,,,,,,,,,,,,,,,,,,,,,,,,,,,,
,,,,2,3.5792,,,,,,178,cactus,carrot,,89526,001,2022-04-27_21h56.38.248,SPAMnetsValid,2021.1.4,Win32,59.94485074,,,,,,,,,,,,,2,3.5792,0,31,31,75,1,,,,,,,,,,,,,,,,,,,,,,,,,,,,,,,,,,,,,,,,,,,,,,,,,,,,,,,,,,,,,,,,,,,,,,
,,,,2,4.5615,,,,,,183,cake,rose,,89526,001,2022-04-27_21h56.38.248,SPAMnetsValid,2021.1.4,Win32,59.94485074,,,,,,,,,,,,,2,4.5615,0,32,32,19,1,,,,,,,,,,,,,,,,,,,,,,,,,,,,,,,,,,,,,,,,,,,,,,,,,,,,,,,,,,,,,,,,,,,,,,
,,,,1,1.6638,,,,,,137,microwave,tree,,89526,001,2022-04-27_21h56.38.248,SPAMnetsValid,2021.1.4,Win32,59.94485074,,,,,,,,,,,,,1,1.6638,0,33,33,63,1,,,,,,,,,,,,,,,,,,,,,,,,,,,,,,,,,,,,,,,,,,,,,,,,,,,,,,,,,,,,,,,,,,,,,,
,,,,1,1.247,,,,,,156,melon,rose,,89526,001,2022-04-27_21h56.38.248,SPAMnetsValid,2021.1.4,Win32,59.94485074,,,,,,,,,,,,,1,1.247,0,34,34,31,1,,,,,,,,,,,,,,,,,,,,,,,,,,,,,,,,,,,,,,,,,,,,,,,,,,,,,,,,,,,,,,,,,,,,,,
,,,,4,3.1473,,,,,,111,carrot,microwave,,89526,001,2022-04-27_21h56.38.248,SPAMnetsValid,2021.1.4,Win32,59.94485074,,,,,,,,,,,,,4,3.1473,0,35,35,16,1,,,,,,,,,,,,,,,,,,,,,,,,,,,,,,,,,,,,,,,,,,,,,,,,,,,,,,,,,,,,,,,,,,,,,,
,,,,9,2.0815,,,,,,193,melon,melon,CHECK,89526,001,2022-04-27_21h56.38.248,SPAMnetsValid,2021.1.4,Win32,59.94485074,,,,,,,,,,,,,9,2.0815,0,36,36,86,1,,,,,,,,,,,,,,,,,,,,,,,,,,,,,,,,,,,,,,,,,,,,,,,,,,,,,,,,,,,,,,,,,,,,,,
,,,,1,3.0789,,,,,,103,pretzel,tomato,,89526,001,2022-04-27_21h56.38.248,SPAMnetsValid,2021.1.4,Win32,59.94485074,,,,,,,,,,,,,1,3.0789,0,37,37,79,1,,,,,,,,,,,,,,,,,,,,,,,,,,,,,,,,,,,,,,,,,,,,,,,,,,,,,,,,,,,,,,,,,,,,,,
,,,,8,5.1301,,,,,,99,garden,melon,,89526,001,2022-04-27_21h56.38.248,SPAMnetsValid,2021.1.4,Win32,59.94485074,,,,,,,,,,,,,8,5.1301,0,38,38,17,1,,,,,,,,,,,,,,,,,,,,,,,,,,,,,,,,,,,,,,,,,,,,,,,,,,,,,,,,,,,,,,,,,,,,,,
,,,,1,1.4999,,,,,,176,cactus,tomato,,89526,001,2022-04-27_21h56.38.248,SPAMnetsValid,2021.1.4,Win32,59.94485074,,,,,,,,,,,,,1,1.4999,0,39,39,9,1,,,,,,,,,,,,,,,,,,,,,,,,,,,,,,,,,,,,,,,,,,,,,,,,,,,,,,,,,,,,,,,,,,,,,,
,,,,1,1.4539,,,,,,129,cactus,refrigerator,,89526,001,2022-04-27_21h56.38.248,SPAMnetsValid,2021.1.4,Win32,59.94485074,,,,,,,,,,,,,1,1.4539,0,40,40,3,1,,,,,,,,,,,,,,,,,,,,,,,,,,,,,,,,,,,,,,,,,,,,,,,,,,,,,,,,,,,,,,,,,,,,,,
,,,,7,2.5304,,,,,,177,chocolate,strawberry,,89526,001,2022-04-27_21h56.38.248,SPAMnetsValid,2021.1.4,Win32,59.94485074,,,,,,,,,,,,,7,2.5304,0,41,41,53,1,,,,,,,,,,,,,,,,,,,,,,,,,,,,,,,,,,,,,,,,,,,,,,,,,,,,,,,,,,,,,,,,,,,,,,
,,,,1,1.5257,,,,,,126,kitchen,tree,,89526,001,2022-04-27_21h56.38.248,SPAMnetsValid,2021.1.4,Win32,59.94485074,,,,,,,,,,,,,1,1.5257,0,42,42,50,1,,,,,,,,,,,,,,,,,,,,,,,,,,,,,,,,,,,,,,,,,,,,,,,,,,,,,,,,,,,,,,,,,,,,,,
,,,,1,2.0824,,,,,,140,cookie,refrigerator,,89526,001,2022-04-27_21h56.38.248,SPAMnetsValid,2021.1.4,Win32,59.94485074,,,,,,,,,,,,,1,2.0824,0,43,43,89,1,,,,,,,,,,,,,,,,,,,,,,,,,,,,,,,,,,,,,,,,,,,,,,,,,,,,,,,,,,,,,,,,,,,,,,
,,,,3,2.9321,,,,,,181,carrot,kitchen,,89526,001,2022-04-27_21h56.38.248,SPAMnetsValid,2021.1.4,Win32,59.94485074,,,,,,,,,,,,,3,2.9321,0,44,44,72,1,,,,,,,,,,,,,,,,,,,,,,,,,,,,,,,,,,,,,,,,,,,,,,,,,,,,,,,,,,,,,,,,,,,,,,
,,,,1,1.2181,,,,,,161,kitchen,pretzel,,89526,001,2022-04-27_21h56.38.248,SPAMnetsValid,2021.1.4,Win32,59.94485074,,,,,,,,,,,,,1,1.2181,0,45,45,36,1,,,,,,,,,,,,,,,,,,,,,,,,,,,,,,,,,,,,,,,,,,,,,,,,,,,,,,,,,,,,,,,,,,,,,,
,,,,1,2.5154,,,,,,164,cookie,garden,,89526,001,2022-04-27_21h56.38.248,SPAMnetsValid,2021.1.4,Win32,59.94485074,,,,,,,,,,,,,1,2.5154,0,46,46,59,1,,,,,,,,,,,,,,,,,,,,,,,,,,,,,,,,,,,,,,,,,,,,,,,,,,,,,,,,,,,,,,,,,,,,,,
,,,,1,2.6628,,,,,,133,cake,flower,,89526,001,2022-04-27_21h56.38.248,SPAMnetsValid,2021.1.4,Win32,59.94485074,,,,,,,,,,,,,1,2.6628,0,47,47,94,1,,,,,,,,,,,,,,,,,,,,,,,,,,,,,,,,,,,,,,,,,,,,,,,,,,,,,,,,,,,,,,,,,,,,,,
,,,,1,1.4139,,,,,,104,garden,microwave,,89526,001,2022-04-27_21h56.38.248,SPAMnetsValid,2021.1.4,Win32,59.94485074,,,,,,,,,,,,,1,1.4139,0,48,48,81,1,,,,,,,,,,,,,,,,,,,,,,,,,,,,,,,,,,,,,,,,,,,,,,,,,,,,,,,,,,,,,,,,,,,,,,
,,,,7,1.4308,,,,,,172,kitchen,melon,,89526,001,2022-04-27_21h56.38.248,SPAMnetsValid,2021.1.4,Win32,59.94485074,,,,,,,,,,,,,7,1.4308,0,49,49,77,1,,,,,,,,,,,,,,,,,,,,,,,,,,,,,,,,,,,,,,,,,,,,,,,,,,,,,,,,,,,,,,,,,,,,,,
,,,,1,0.8883,,,,,,188,flower,tree,,89526,001,2022-04-27_21h56.38.248,SPAMnetsValid,2021.1.4,Win32,59.94485074,,,,,,,,,,,,,1,0.8883,0,50,50,7,1,,,,,,,,,,,,,,,,,,,,,,,,,,,,,,,,,,,,,,,,,,,,,,,,,,,,,,,,,,,,,,,,,,,,,,
,,,,1,1.164,,,,,,184,oven,pretzel,,89526,001,2022-04-27_21h56.38.248,SPAMnetsValid,2021.1.4,Win32,59.94485074,,,,,,,,,,,,,1,1.164,0,51,51,42,1,,,,,,,,,,,,,,,,,,,,,,,,,,,,,,,,,,,,,,,,,,,,,,,,,,,,,,,,,,,,,,,,,,,,,,
,,,,7,2.8316,,,,,,158,cookie,oven,,89526,001,2022-04-27_21h56.38.248,SPAMnetsValid,2021.1.4,Win32,59.94485074,,,,,,,,,,,,,7,2.8316,0,52,52,27,1,,,,,,,,,,,,,,,,,,,,,,,,,,,,,,,,,,,,,,,,,,,,,,,,,,,,,,,,,,,,,,,,,,,,,,
,,,,9,3.6242,,,,,,122,flower,garden,,89526,001,2022-04-27_21h56.38.248,SPAMnetsValid,2021.1.4,Win32,59.94485074,,,,,,,,,,,,,9,3.6242,0,53,53,60,1,,,,,,,,,,,,,,,,,,,,,,,,,,,,,,,,,,,,,,,,,,,,,,,,,,,,,,,,,,,,,,,,,,,,,,
,,,,2,1.9747,,,,,,165,onion,rose,,89526,001,2022-04-27_21h56.38.248,SPAMnetsValid,2021.1.4,Win32,59.94485074,,,,,,,,,,,,,2,1.9747,0,54,54,40,1,,,,,,,,,,,,,,,,,,,,,,,,,,,,,,,,,,,,,,,,,,,,,,,,,,,,,,,,,,,,,,,,,,,,,,
,,,,1,1.5145,,,,,,114,cookie,strawberry,,89526,001,2022-04-27_21h56.38.248,SPAMnetsValid,2021.1.4,Win32,59.94485074,,,,,,,,,,,,,1,1.5145,0,55,55,87,1,,,,,,,,,,,,,,,,,,,,,,,,,,,,,,,,,,,,,,,,,,,,,,,,,,,,,,,,,,,,,,,,,,,,,,
,,,,6,2.2529,,,,,,97,chocolate,kitchen,,89526,001,2022-04-27_21h56.38.248,SPAMnetsValid,2021.1.4,Win32,59.94485074,,,,,,,,,,,,,6,2.2529,0,56,56,8,1,,,,,,,,,,,,,,,,,,,,,,,,,,,,,,,,,,,,,,,,,,,,,,,,,,,,,,,,,,,,,,,,,,,,,,
,,,,1,1.247,,,,,,162,microwave,tomato,,89526,001,2022-04-27_21h56.38.248,SPAMnetsValid,2021.1.4,Win32,59.94485074,,,,,,,,,,,,,1,1.247,0,57,57,12,1,,,,,,,,,,,,,,,,,,,,,,,,,,,,,,,,,,,,,,,,,,,,,,,,,,,,,,,,,,,,,,,,,,,,,,
,,,,4,4.5033,,,,,,185,cactus,rose,,89526,001,2022-04-27_21h56.38.248,SPAMnetsValid,2021.1.4,Win32,59.94485074,,,,,,,,,,,,,4,4.5033,0,58,58,43,1,,,,,,,,,,,,,,,,,,,,,,,,,,,,,,,,,,,,,,,,,,,,,,,,,,,,,,,,,,,,,,,,,,,,,,
,,,,9,1.2015,,,,,,150,microwave,refrigerator,,89526,001,2022-04-27_21h56.38.248,SPAMnetsValid,2021.1.4,Win32,59.94485074,,,,,,,,,,,,,9,1.2015,0,59,59,66,1,,,,,,,,,,,,,,,,,,,,,,,,,,,,,,,,,,,,,,,,,,,,,,,,,,,,,,,,,,,,,,,,,,,,,,
,,,,1,1.8981,,,,,,101,cactus,kitchen,,89526,001,2022-04-27_21h56.38.248,SPAMnetsValid,2021.1.4,Win32,59.94485074,,,,,,,,,,,,,1,1.8981,0,60,60,54,1,,,,,,,,,,,,,,,,,,,,,,,,,,,,,,,,,,,,,,,,,,,,,,,,,,,,,,,,,,,,,,,,,,,,,,
,,,,1,2.8499,,,,,,107,rose,tomato,,89526,001,2022-04-27_21h56.38.248,SPAMnetsValid,2021.1.4,Win32,59.94485074,,,,,,,,,,,,,1,2.8499,0,61,61,26,1,,,,,,,,,,,,,,,,,,,,,,,,,,,,,,,,,,,,,,,,,,,,,,,,,,,,,,,,,,,,,,,,,,,,,,
,,,,1,1.9834,,,,,,170,cookie,microwave,,89526,001,2022-04-27_21h56.38.248,SPAMnetsValid,2021.1.4,Win32,59.94485074,,,,,,,,,,,,,1,1.9834,0,62,62,92,1,,,,,,,,,,,,,,,,,,,,,,,,,,,,,,,,,,,,,,,,,,,,,,,,,,,,,,,,,,,,,,,,,,,,,,
,,,,1,1.4974,,,,,,159,cookie,flower,,89526,001,2022-04-27_21h56.38.248,SPAMnetsValid,2021.1.4,Win32,59.94485074,,,,,,,,,,,,,1,1.4974,0,63,63,21,1,,,,,,,,,,,,,,,,,,,,,,,,,,,,,,,,,,,,,,,,,,,,,,,,,,,,,,,,,,,,,,,,,,,,,,
,,,,6,2.0387,,,,,,135,carrot,oven,,89526,001,2022-04-27_21h56.38.248,SPAMnetsValid,2021.1.4,Win32,59.94485074,,,,,,,,,,,,,6,2.0387,0,64,64,73,1,,,,,,,,,,,,,,,,,,,,,,,,,,,,,,,,,,,,,,,,,,,,,,,,,,,,,,,,,,,,,,,,,,,,,,
,,,,1,1.3498,,,,,,169,onion,yogurt,,89526,001,2022-04-27_21h56.38.248,SPAMnetsValid,2021.1.4,Win32,59.94485074,,,,,,,,,,,,,1,1.3498,0,65,65,24,1,,,,,,,,,,,,,,,,,,,,,,,,,,,,,,,,,,,,,,,,,,,,,,,,,,,,,,,,,,,,,,,,,,,,,,
,,,,7,3.4301,,,,,,160,cookie,kitchen,,89526,001,2022-04-27_21h56.38.248,SPAMnetsValid,2021.1.4,Win32,59.94485074,,,,,,,,,,,,,7,3.4301,0,66,66,65,1,,,,,,,,,,,,,,,,,,,,,,,,,,,,,,,,,,,,,,,,,,,,,,,,,,,,,,,,,,,,,,,,,,,,,,
,,,,1,1.271,,,,,,187,cactus,microwave,,89526,001,2022-04-27_21h56.38.248,SPAMnetsValid,2021.1.4,Win32,59.94485074,,,,,,,,,,,,,1,1.271,0,67,67,71,1,,,,,,,,,,,,,,,,,,,,,,,,,,,,,,,,,,,,,,,,,,,,,,,,,,,,,,,,,,,,,,,,,,,,,,
,,,,5,2.3849,,,,,,186,kitchen,yogurt,,89526,001,2022-04-27_21h56.38.248,SPAMnetsValid,2021.1.4,Win32,59.94485074,,,,,,,,,,,,,5,2.3849,0,68,68,48,1,,,,,,,,,,,,,,,,,,,,,,,,,,,,,,,,,,,,,,,,,,,,,,,,,,,,,,,,,,,,,,,,,,,,,,
,,,,1,1.1561,,,,,,134,carrot,flower,,89526,001,2022-04-27_21h56.38.248,SPAMnetsValid,2021.1.4,Win32,59.94485074,,,,,,,,,,,,,1,1.1561,0,69,69,93,1,,,,,,,,,,,,,,,,,,,,,,,,,,,,,,,,,,,,,,,,,,,,,,,,,,,,,,,,,,,,,,,,,,,,,,
,,,,1,1.7875,,,,,,149,broom,tomato,,89526,001,2022-04-27_21h56.38.248,SPAMnetsValid,2021.1.4,Win32,59.94485074,,,,,,,,,,,,,1,1.7875,0,70,70,20,1,,,,,,,,,,,,,,,,,,,,,,,,,,,,,,,,,,,,,,,,,,,,,,,,,,,,,,,,,,,,,,,,,,,,,,
,,,,7,2.9228,,,,,,142,garden,tree,,89526,001,2022-04-27_21h56.38.248,SPAMnetsValid,2021.1.4,Win32,59.94485074,,,,,,,,,,,,,7,2.9228,0,71,71,22,1,,,,,,,,,,,,,,,,,,,,,,,,,,,,,,,,,,,,,,,,,,,,,,,,,,,,,,,,,,,,,,,,,,,,,,
,,,,1,1.4718,,,,,,109,broom,strawberry,,89526,001,2022-04-27_21h56.38.248,SPAMnetsValid,2021.1.4,Win32,59.94485074,,,,,,,,,,,,,1,1.4718,0,72,72,4,1,,,,,,,,,,,,,,,,,,,,,,,,,,,,,,,,,,,,,,,,,,,,,,,,,,,,,,,,,,,,,,,,,,,,,,
,,,,1,1.2028,,,,,,143,pretzel,rose,,89526,001,2022-04-27_21h56.38.248,SPAMnetsValid,2021.1.4,Win32,59.94485074,,,,,,,,,,,,,1,1.2028,0,73,73,55,1,,,,,,,,,,,,,,,,,,,,,,,,,,,,,,,,,,,,,,,,,,,,,,,,,,,,,,,,,,,,,,,,,,,,,,
,,,,1,1.2881,,,,,,105,cactus,oven,,89526,001,2022-04-27_21h56.38.248,SPAMnetsValid,2021.1.4,Win32,59.94485074,,,,,,,,,,,,,1,1.2881,0,74,74,13,1,,,,,,,,,,,,,,,,,,,,,,,,,,,,,,,,,,,,,,,,,,,,,,,,,,,,,,,,,,,,,,,,,,,,,,
,,,,1,1.153,,,,,,157,refrigerator,rose,,89526,001,2022-04-27_21h56.38.248,SPAMnetsValid,2021.1.4,Win32,59.94485074,,,,,,,,,,,,,1,1.153,0,75,75,64,1,,,,,,,,,,,,,,,,,,,,,,,,,,,,,,,,,,,,,,,,,,,,,,,,,,,,,,,,,,,,,,,,,,,,,,
,,,,8,2.6064,,,,,,112,cake,carrot,,89526,001,2022-04-27_21h56.38.248,SPAMnetsValid,2021.1.4,Win32,59.94485074,,,,,,,,,,,,,8,2.6064,0,76,76,39,1,,,,,,,,,,,,,,,,,,,,,,,,,,,,,,,,,,,,,,,,,,,,,,,,,,,,,,,,,,,,,,,,,,,,,,
,,,,9,2.1677,,,,,,167,carrot,garden,,89526,001,2022-04-27_21h56.38.248,SPAMnetsValid,2021.1.4,Win32,59.94485074,,,,,,,,,,,,,9,2.1677,0,77,77,47,1,,,,,,,,,,,,,,,,,,,,,,,,,,,,,,,,,,,,,,,,,,,,,,,,,,,,,,,,,,,,,,,,,,,,,,
,,,,1,2.3682,,,,,,123,cookie,tree,,89526,001,2022-04-27_21h56.38.248,SPAMnetsValid,2021.1.4,Win32,59.94485074,,,,,,,,,,,,,1,2.3682,0,78,78,46,1,,,,,,,,,,,,,,,,,,,,,,,,,,,,,,,,,,,,,,,,,,,,,,,,,,,,,,,,,,,,,,,,,,,,,,
,,,,9,1.7297,,,,,,124,oven,refrigerator,,89526,001,2022-04-27_21h56.38.248,SPAMnetsValid,2021.1.4,Win32,59.94485074,,,,,,,,,,,,,9,1.7297,0,79,79,69,1,,,,,,,,,,,,,,,,,,,,,,,,,,,,,,,,,,,,,,,,,,,,,,,,,,,,,,,,,,,,,,,,,,,,,,
,,,,9,1.5547,,,,,,116,cake,chocolate,,89526,001,2022-04-27_21h56.38.248,SPAMnetsValid,2021.1.4,Win32,59.94485074,,,,,,,,,,,,,9,1.5547,0,80,80,44,1,,,,,,,,,,,,,,,,,,,,,,,,,,,,,,,,,,,,,,,,,,,,,,,,,,,,,,,,,,,,,,,,,,,,,,
,,,,1,1.4217,,,,,,141,melon,tomato,,89526,001,2022-04-27_21h56.38.248,SPAMnetsValid,2021.1.4,Win32,59.94485074,,,,,,,,,,,,,1,1.4217,0,81,81,70,1,,,,,,,,,,,,,,,,,,,,,,,,,,,,,,,,,,,,,,,,,,,,,,,,,,,,,,,,,,,,,,,,,,,,,,
,,,,1,1.1093,,,,,,180,tree,yogurt,,89526,001,2022-04-27_21h56.38.248,SPAMnetsValid,2021.1.4,Win32,59.94485074,,,,,,,,,,,,,1,1.1093,0,82,82,68,1,,,,,,,,,,,,,,,,,,,,,,,,,,,,,,,,,,,,,,,,,,,,,,,,,,,,,,,,,,,,,,,,,,,,,,
,,,,6,2.0883,,,,,,173,kitchen,tomato,,89526,001,2022-04-27_21h56.38.248,SPAMnetsValid,2021.1.4,Win32,59.94485074,,,,,,,,,,,,,6,2.0883,0,83,83,1,1,,,,,,,,,,,,,,,,,,,,,,,,,,,,,,,,,,,,,,,,,,,,,,,,,,,,,,,,,,,,,,,,,,,,,,
,,,,1,1.538,,,,,,153,carrot,pretzel,,89526,001,2022-04-27_21h56.38.248,SPAMnetsValid,2021.1.4,Win32,59.94485074,,,,,,,,,,,,,1,1.538,0,84,84,34,1,,,,,,,,,,,,,,,,,,,,,,,,,,,,,,,,,,,,,,,,,,,,,,,,,,,,,,,,,,,,,,,,,,,,,,
,,,,9,1.5393,,,,,,106,cake,strawberry,,89526,001,2022-04-27_21h56.38.248,SPAMnetsValid,2021.1.4,Win32,59.94485074,,,,,,,,,,,,,9,1.5393,0,85,85,0,1,,,,,,,,,,,,,,,,,,,,,,,,,,,,,,,,,,,,,,,,,,,,,,,,,,,,,,,,,,,,,,,,,,,,,,
,,,,9,1.3928,,,,,,154,strawberry,yogurt,,89526,001,2022-04-27_21h56.38.248,SPAMnetsValid,2021.1.4,Win32,59.94485074,,,,,,,,,,,,,9,1.3928,0,86,86,28,1,,,,,,,,,,,,,,,,,,,,,,,,,,,,,,,,,,,,,,,,,,,,,,,,,,,,,,,,,,,,,,,,,,,,,,
,,,,9,1.8862,,,,,,147,cake,refrigerator,,89526,001,2022-04-27_21h56.38.248,SPAMnetsValid,2021.1.4,Win32,59.94485074,,,,,,,,,,,,,9,1.8862,0,87,87,35,1,,,,,,,,,,,,,,,,,,,,,,,,,,,,,,,,,,,,,,,,,,,,,,,,,,,,,,,,,,,,,,,,,,,,,,
,,,,2,2.6878,,,,,,136,chocolate,microwave,,89526,001,2022-04-27_21h56.38.248,SPAMnetsValid,2021.1.4,Win32,59.94485074,,,,,,,,,,,,,2,2.6878,0,88,88,96,1,,,,,,,,,,,,,,,,,,,,,,,,,,,,,,,,,,,,,,,,,,,,,,,,,,,,,,,,,,,,,,,,,,,,,,
,,,,1,1.7161,,,,,,127,cactus,chocolate,,89526,001,2022-04-27_21h56.38.248,SPAMnetsValid,2021.1.4,Win32,59.94485074,,,,,,,,,,,,,1,1.7161,0,89,89,57,1,,,,,,,,,,,,,,,,,,,,,,,,,,,,,,,,,,,,,,,,,,,,,,,,,,,,,,,,,,,,,,,,,,,,,,
,,,,9,1.2638,,,,,,113,refrigerator,strawberry,,89526,001,2022-04-27_21h56.38.248,SPAMnetsValid,2021.1.4,Win32,59.94485074,,,,,,,,,,,,,9,1.2638,0,90,90,56,1,,,,,,,,,,,,,,,,,,,,,,,,,,,,,,,,,,,,,,,,,,,,,,,,,,,,,,,,,,,,,,,,,,,,,,
,,,,1,3.314,,,,,,128,melon,microwave,,89526,001,2022-04-27_21h56.38.248,SPAMnetsValid,2021.1.4,Win32,59.94485074,,,,,,,,,,,,,1,3.314,0,91,91,74,1,,,,,,,,,,,,,,,,,,,,,,,,,,,,,,,,,,,,,,,,,,,,,,,,,,,,,,,,,,,,,,,,,,,,,,
,,,,1,1.9509,,,,,,139,carrot,strawberry,,89526,001,2022-04-27_21h56.38.248,SPAMnetsValid,2021.1.4,Win32,59.94485074,,,,,,,,,,,,,1,1.9509,0,92,92,37,1,,,,,,,,,,,,,,,,,,,,,,,,,,,,,,,,,,,,,,,,,,,,,,,,,,,,,,,,,,,,,,,,,,,,,,
,,,,9,1.17,,,,,,100,garden,tomato,,89526,001,2022-04-27_21h56.38.248,SPAMnetsValid,2021.1.4,Win32,59.94485074,,,,,,,,,,,,,9,1.17,0,93,93,83,1,,,,,,,,,,,,,,,,,,,,,,,,,,,,,,,,,,,,,,,,,,,,,,,,,,,,,,,,,,,,,,,,,,,,,,
,,,,1,1.1119,,,,,,121,broom,microwave,,89526,001,2022-04-27_21h56.38.248,SPAMnetsValid,2021.1.4,Win32,59.94485074,,,,,,,,,,,,,1,1.1119,0,94,94,95,1,,,,,,,,,,,,,,,,,,,,,,,,,,,,,,,,,,,,,,,,,,,,,,,,,,,,,,,,,,,,,,,,,,,,,,
,,,,1,1.7501,,,,,,144,cake,garden,,89526,001,2022-04-27_21h56.38.248,SPAMnetsValid,2021.1.4,Win32,59.94485074,,,,,,,,,,,,,1,1.7501,0,95,95,58,1,,,,,,,,,,,,,,,,,,,,,,,,,,,,,,,,,,,,,,,,,,,,,,,,,,,,,,,,,,,,,,,,,,,,,,
,,,,1,2.1062,,,,,,155,carrot,cookie,,89526,001,2022-04-27_21h56.38.248,SPAMnetsValid,2021.1.4,Win32,59.94485074,,,,,,,,,,,,,1,2.1062,0,96,96,38,1,,,,,,,,,,,,,,,,,,,,,,,,,,,,,,,,,,,,,,,,,,,,,,,,,,,,,,,,,,,,,,,,,,,,,,
,,,,,,,,,,,,,,,89526,001,2022-04-27_21h56.38.248,SPAMnetsValid,2021.1.4,Win32,59.94485074,,,,,,,,,,,,,,,,,,,,0,0,0,0,1,,,,,,,,,,,,,,,,,,,,,,,,,,,,,,,,,,,,,,,,,,,,,,,,,,,,,,,,,,,,,,,,,
,,,,,,,,,,,,,,,89526,001,2022-04-27_21h56.38.248,SPAMnetsValid,2021.1.4,Win32,59.94485074,,,,,,0,1,1,1,1,0,1,,,,,,,,,,,,,,,,,,,,,,,,,,,,,,,,,,,,,,,,,,,,,,,,,,,,,,,,,,,,,,,,,,,,,,,,,,,,,
,,,,,,,,,,,,,,,89526,001,2022-04-27_21h56.38.248,SPAMnetsValid,2021.1.4,Win32,59.94485074,,,,,,,,,,,,,,,,,,,,,,,,,3,14.146,0,0,0,0,1,rancor,forbearance,ridicule,malice,bravery,3,,,,,,,,,,,,,,,,,,,,,,,,,,,,,,,,,,,,,,,,,,,,,,,,,,,,
,,,,,,,,,,,,,,,89526,001,2022-04-27_21h56.38.248,SPAMnetsValid,2021.1.4,Win32,59.94485074,,,,,,,,,,,,,,,,,,,,,,,,,4,4.5964,0,1,1,1,1,raucous,empty,quiet,smooth,harsh,4,,,,,,,,,,,,,,,,,,,,,,,,,,,,,,,,,,,,,,,,,,,,,,,,,,,,
,,,,,,,,,,,,,,,89526,001,2022-04-27_21h56.38.248,SPAMnetsValid,2021.1.4,Win32,59.94485074,,,,,,,,,,,,,,,,,,,,,,,,,4,4.2038,0,2,2,2,1,gargoyle,oil,medicine,carved waterspout,ugly building,3,,,,,,,,,,,,,,,,,,,,,,,,,,,,,,,,,,,,,,,,,,,,,,,,,,,,
,,,,,,,,,,,,,,,89526,001,2022-04-27_21h56.38.248,SPAMnetsValid,2021.1.4,Win32,59.94485074,,,,,,,,,,,,,,,,,,,,,,,,,3,3.4046,0,3,3,3,1,recrudesce,purify,renew activity,lack refinement,crush,2,,,,,,,,,,,,,,,,,,,,,,,,,,,,,,,,,,,,,,,,,,,,,,,,,,,,
,,,,,,,,,,,,,,,89526,001,2022-04-27_21h56.38.248,SPAMnetsValid,2021.1.4,Win32,59.94485074,,,,,,,,,,,,,,,,,,,,,,,,,2,5.2888,0,4,4,4,1,specious,"plausible, but not genuine",noteworthy,class or variety,roomy,1,,,,,,,,,,,,,,,,,,,,,,,,,,,,,,,,,,,,,,,,,,,,,,,,,,,,
,,,,,,,,,,,,,,,89526,001,2022-04-27_21h56.38.248,SPAMnetsValid,2021.1.4,Win32,59.94485074,,,,,,,,,,,,,,,,,,,,,,,,,3,5.0772,0,5,5,5,1,bauble,bubble,showy plaything,idle talk,confusion,2,,,,,,,,,,,,,,,,,,,,,,,,,,,,,,,,,,,,,,,,,,,,,,,,,,,,
,,,,,,,,,,,,,,,89526,001,2022-04-27_21h56.38.248,SPAMnetsValid,2021.1.4,Win32,59.94485074,,,,,,,,,,,,,,,,,,,,,,,,,4,7.536,0,6,6,6,1,prolific,scarce,producing abundantly,reckless,speaking profanely,2,,,,,,,,,,,,,,,,,,,,,,,,,,,,,,,,,,,,,,,,,,,,,,,,,,,,
,,,,,,,,,,,,,,,89526,001,2022-04-27_21h56.38.248,SPAMnetsValid,2021.1.4,Win32,59.94485074,,,,,,,,,,,,,,,,,,,,,,,,,2,2.3232,0,7,7,7,1,opulent,party,wealthy,happy frame of mind,semiprecious stone,2,,,,,,,,,,,,,,,,,,,,,,,,,,,,,,,,,,,,,,,,,,,,,,,,,,,,
,,,,,,,,,,,,,,,89526,001,2022-04-27_21h56.38.248,SPAMnetsValid,2021.1.4,Win32,59.94485074,,,,,,,,,,,,,,,,,,,,,,,,,3,4.2514,0,8,8,8,1,coercion,conspiracy,strategy,restraint,attraction,3,,,,,,,,,,,,,,,,,,,,,,,,,,,,,,,,,,,,,,,,,,,,,,,,,,,,
,,,,,,,,,,,,,,,89526,001,2022-04-27_21h56.38.248,SPAMnetsValid,2021.1.4,Win32,59.94485074,,,,,,,,,,,,,,,,,,,,,,,,,4,2.8033,0,9,9,9,1,hiatus,animal,calamity,dread,gap,4,,,,,,,,,,,,,,,,,,,,,,,,,,,,,,,,,,,,,,,,,,,,,,,,,,,,
,,,,,,,,,,,,,,,89526,001,2022-04-27_21h56.38.248,SPAMnetsValid,2021.1.4,Win32,59.94485074,,,,,,,,,,,,,,,,,,,,,,,,,4,6.819,0,10,10,10,1,germane,microbe,contagious,relevant,different,3,,,,,,,,,,,,,,,,,,,,,,,,,,,,,,,,,,,,,,,,,,,,,,,,,,,,
,,,,,,,,,,,,,,,89526,001,2022-04-27_21h56.38.248,SPAMnetsValid,2021.1.4,Win32,59.94485074,,,,,,,,,,,,,,,,,,,,,,,,,2,4.2685,0,11,11,11,1,perfunctory,fundamental,formal,superficial,careful,3,,,,,,,,,,,,,,,,,,,,,,,,,,,,,,,,,,,,,,,,,,,,,,,,,,,,
,,,,,,,,,,,,,,,89526,001,2022-04-27_21h56.38.248,SPAMnetsValid,2021.1.4,Win32,59.94485074,,,,,,,,,,,,,,,,,,,,,,,,,4,3.4439,0,12,12,12,1,diverge,reveal,chant,distract the attention of,differ or turn off from,4,,,,,,,,,,,,,,,,,,,,,,,,,,,,,,,,,,,,,,,,,,,,,,,,,,,,
,,,,,,,,,,,,,,,89526,001,2022-04-27_21h56.38.248,SPAMnetsValid,2021.1.4,Win32,59.94485074,,,,,,,,,,,,,,,,,,,,,,,,,4,2.7068,0,13,13,13,1,evoke,take away,anger,connect,bring out,4,,,,,,,,,,,,,,,,,,,,,,,,,,,,,,,,,,,,,,,,,,,,,,,,,,,,
,,,,,,,,,,,,,,,89526,001,2022-04-27_21h56.38.248,SPAMnetsValid,2021.1.4,Win32,59.94485074,,,,,,,,,,,,,,,,,,,,,,,,,3,3.404,0,14,14,14,1,pertinent,relevant,lying next to,necessary,bold,1,,,,,,,,,,,,,,,,,,,,,,,,,,,,,,,,,,,,,,,,,,,,,,,,,,,,
,,,,,,,,,,,,,,,89526,001,2022-04-27_21h56.38.248,SPAMnetsValid,2021.1.4,Win32,59.94485074,,,,,,,,,,,,,,,,,,,,,,,,,2,2.0225,0,15,15,15,1,holocaust,entirety,destruction,saintly,price,2,,,,,,,,,,,,,,,,,,,,,,,,,,,,,,,,,,,,,,,,,,,,,,,,,,,,
,,,,,,,,,,,,,,,89526,001,2022-04-27_21h56.38.248,SPAMnetsValid,2021.1.4,Win32,59.94485074,,,,,,,,,,,,,,,,,,,,,,,,,1,11.3329,0,16,16,16,1,piquant,mellow,fish,pungent,cloth,3,,,,,,,,,,,,,,,,,,,,,,,,,,,,,,,,,,,,,,,,,,,,,,,,,,,,
,,,,,,,,,,,,,,,89526,001,2022-04-27_21h56.38.248,SPAMnetsValid,2021.1.4,Win32,59.94485074,,,,,,,,,,,,,,,,,,,,,,,,,1,15.0875,0,17,17,17,1,firmament,foundation,heavens,strong,glue,2,,,,,,,,,,,,,,,,,,,,,,,,,,,,,,,,,,,,,,,,,,,,,,,,,,,,
,,,,,,,,,,,,,,,89526,001,2022-04-27_21h56.38.248,SPAMnetsValid,2021.1.4,Win32,59.94485074,,,,,,,,,,,,,,,,,,,,,,,,,,,,,,,,,,,,,,5,6.4095,0,0,0,0,1,marketable,partisan,jocular,marriageable,salable,essential,4,,,,,,,,,,,,,,,,,,,,,,,,,,,,,,,,,,,,,,
,,,,,,,,,,,,,,,89526,001,2022-04-27_21h56.38.248,SPAMnetsValid,2021.1.4,Win32,59.94485074,,,,,,,,,,,,,,,,,,,,,,,,,,,,,,,,,,,,,,5,6.8668,0,1,1,1,1,cottontail,squirrel,poplar,boa,marshy plant,rabbit,5,,,,,,,,,,,,,,,,,,,,,,,,,,,,,,,,,,,,,,
,,,,,,,,,,,,,,,89526,001,2022-04-27_21h56.38.248,SPAMnetsValid,2021.1.4,Win32,59.94485074,,,,,,,,,,,,,,,,,,,,,,,,,,,,,,,,,,,,,,3,3.0501,0,2,2,2,1,boggy,afraid,false,marshy,dense,black,3,,,,,,,,,,,,,,,,,,,,,,,,,,,,,,,,,,,,,,
,,,,,,,,,,,,,,,89526,001,2022-04-27_21h56.38.248,SPAMnetsValid,2021.1.4,Win32,59.94485074,,,,,,,,,,,,,,,,,,,,,,,,,,,,,,,,,,,,,,,,0,3,3,3,1,gruesomeness,blackness,falseness,vindictiveness,drunkenness,ghastliness,5,,,,,,,,,,,,,,,,,,,,,,,,,,,,,,,,,,,,,,
,,,,,,,,,,,,,,,89526,001,2022-04-27_21h56.38.248,SPAMnetsValid,2021.1.4,Win32,59.94485074,,,,,,,,,,,,,,,,,,,,,,,,,,,,,,,,,,,,,,2,7.1233,0,4,4,4,1,loathing,diffidence,laziness,abhorrence,cleverness,comfort,3,,,,,,,,,,,,,,,,,,,,,,,,,,,,,,,,,,,,,,
,,,,,,,,,,,,,,,89526,001,2022-04-27_21h56.38.248,SPAMnetsValid,2021.1.4,Win32,59.94485074,,,,,,,,,,,,,,,,,,,,,,,,,,,,,,,,,,,,,,,,0,5,5,5,1,bantam,fowl,ridicule,cripple,vegetable,ensign,1,,,,,,,,,,,,,,,,,,,,,,,,,,,,,,,,,,,,,,
,,,,,,,,,,,,,,,89526,001,2022-04-27_21h56.38.248,SPAMnetsValid,2021.1.4,Win32,59.94485074,,,,,,,,,,,,,,,,,,,,,,,,,,,,,,,,,,,,,,5,5.5309,0,6,6,6,1,evoke,wake up,surrender,reconnoiter,transcend,call forth,5,,,,,,,,,,,,,,,,,,,,,,,,,,,,,,,,,,,,,,
,,,,,,,,,,,,,,,89526,001,2022-04-27_21h56.38.248,SPAMnetsValid,2021.1.4,Win32,59.94485074,,,,,,,,,,,,,,,,,,,,,,,,,,,,,,,,,,,,,,2,4.344,0,7,7,7,1,unobtrusive,unintelligent,epileptic,illogical,lineal,modest,5,,,,,,,,,,,,,,,,,,,,,,,,,,,,,,,,,,,,,,
,,,,,,,,,,,,,,,89526,001,2022-04-27_21h56.38.248,SPAMnetsValid,2021.1.4,Win32,59.94485074,,,,,,,,,,,,,,,,,,,,,,,,,,,,,,,,,,,,,,4,3.3845,0,8,8,8,1,terrain,ice cream,final test,tractor,area of ground,weight,4,,,,,,,,,,,,,,,,,,,,,,,,,,,,,,,,,,,,,,
,,,,,,,,,,,,,,,89526,001,2022-04-27_21h56.38.248,SPAMnetsValid,2021.1.4,Win32,59.94485074,,,,,,,,,,,,,,,,,,,,,,,,,,,,,,,,,,,,,,,,0,9,9,9,1,capriciousness,stubbornness,courage,whimsicality,amazement,greediness,3,,,,,,,,,,,,,,,,,,,,,,,,,,,,,,,,,,,,,,
,,,,,,,,,,,,,,,89526,001,2022-04-27_21h56.38.248,SPAMnetsValid,2021.1.4,Win32,59.94485074,,,,,,,,,,,,,,,,,,,,,,,,,,,,,,,,,,,,,,,,0,10,10,10,1,maelstrom,slander,whirlpool,enmity,armor,majolica,2,,,,,,,,,,,,,,,,,,,,,,,,,,,,,,,,,,,,,,
,,,,,,,,,,,,,,,89526,001,2022-04-27_21h56.38.248,SPAMnetsValid,2021.1.4,Win32,59.94485074,,,,,,,,,,,,,,,,,,,,,,,,,,,,,,,,,,,,,,1,3.2343,0,11,11,11,1,tentative,critical,conclusive,authentic,provisional,apprehensive,4,,,,,,,,,,,,,,,,,,,,,,,,,,,,,,,,,,,,,,
,,,,,,,,,,,,,,,89526,001,2022-04-27_21h56.38.248,SPAMnetsValid,2021.1.4,Win32,59.94485074,,,,,,,,,,,,,,,,,,,,,,,,,,,,,,,,,,,,,,3,3.0283,0,12,12,12,1,placate,rehabilitate,plagiarize,depredate,apprise,conciliate,5,,,,,,,,,,,,,,,,,,,,,,,,,,,,,,,,,,,,,,
,,,,,,,,,,,,,,,89526,001,2022-04-27_21h56.38.248,SPAMnetsValid,2021.1.4,Win32,59.94485074,,,,,,,,,,,,,,,,,,,,,,,,,,,,,,,,,,,,,,,,0,13,13,13,1,surcease,enlightenment,cessation,inattention,censor,substitution,2,,,,,,,,,,,,,,,,,,,,,,,,,,,,,,,,,,,,,,
,,,,,,,,,,,,,,,89526,001,2022-04-27_21h56.38.248,SPAMnetsValid,2021.1.4,Win32,59.94485074,,,,,,,,,,,,,,,,,,,,,,,,,,,,,,,,,,,,,,3,5.2401,0,14,14,14,1,apathetic,wandering,impassive,hateful,prophetic,overflowing,2,,,,,,,,,,,,,,,,,,,,,,,,,,,,,,,,,,,,,,
,,,,,,,,,,,,,,,89526,001,2022-04-27_21h56.38.248,SPAMnetsValid,2021.1.4,Win32,59.94485074,,,,,,,,,,,,,,,,,,,,,,,,,,,,,,,,,,,,,,3,9.1487,0,15,15,15,1,paternoster,paternalism,patricide,malediction,benediction,prayer,5,,,,,,,,,,,,,,,,,,,,,,,,,,,,,,,,,,,,,,
,,,,,,,,,,,,,,,89526,001,2022-04-27_21h56.38.248,SPAMnetsValid,2021.1.4,Win32,59.94485074,,,,,,,,,,,,,,,,,,,,,,,,,,,,,,,,,,,,,,3,12.4353,0,16,16,16,1,opalescence,opulence,senescence,bankruptcy,iridescence,assiduity,4,,,,,,,,,,,,,,,,,,,,,,,,,,,,,,,,,,,,,,
,,,,,,,,,,,,,,,89526,001,2022-04-27_21h56.38.248,SPAMnetsValid,2021.1.4,Win32,59.94485074,,,,,,,,,,,,,,,,,,,,,,,,,,,,,,,,,,,,,,2,8.9521,0,17,17,17,1,lush,stupid,luxurious,hazy,putrid,languishing,2,,,,,,,,,,,,,,,,,,,,,,,,,,,,,,,,,,,,,,
,,,,,,,,,,,,,,,89526,001,2022-04-27_21h56.38.248,SPAMnetsValid,2021.1.4,Win32,59.94485074,,,,,,,,,,,,,,,,,,,,,,,,,,,,,,,,,,,,,,3,3.1592,0,18,18,18,1,curtailment,expenditure,abandonment,abridgment,improvement,forgery,3,,,,,,,,,,,,,,,,,,,,,,,,,,,,,,,,,,,,,,
,,,,,,,,,,,,,,,89526,001,2022-04-27_21h56.38.248,SPAMnetsValid,2021.1.4,Win32,59.94485074,,,,,,,,,,,,,,,,,,,,,,,,,,,,,,,,,,,,,,4,2.2698,0,19,19,19,1,perversity,adversity,perviousness,travesty,waywardness,gentility,4,,,,,,,,,,,,,,,,,,,,,,,,,,,,,,,,,,,,,,
,,,,,,,,,,,,,,,89526,001,2022-04-27_21h56.38.248,SPAMnetsValid,2021.1.4,Win32,59.94485074,,,,,,,,,,,,,,,,,,,,,,,,,,,,,,,,,,,,,,4,1.4341,0,20,20,20,1,calumnious,complimentary,analogous,slanderous,tempestuous,magnanimous,3,,,,,,,,,,,,,,,,,,,,,,,,,,,,,,,,,,,,,,
,,,,,,,,,,,,,,,89526,001,2022-04-27_21h56.38.248,SPAMnetsValid,2021.1.4,Win32,59.94485074,,,,,,,,,,,,,,,,,,,,,,,,,,,,,,,,,,,,,,3,1.2347,0,21,21,21,1,illiberality,bigotry,imbecility,illegibility,cautery,immaturity,1,,,,,,,,,,,,,,,,,,,,,,,,,,,,,,,,,,,,,,
,,,,,,,,,,,,,,,89526,001,2022-04-27_21h56.38.248,SPAMnetsValid,2021.1.4,Win32,59.94485074,,,,,,,,,,,,,,,,,,,,,,,,,,,,,,,,,,,,,,3,5.5981,0,22,22,22,1,clabber,rejoice,gossip,curdle,crow,hobble,3,,,,,,,,,,,,,,,,,,,,,,,,,,,,,,,,,,,,,,
,,,,,,,,,,,,,,,89526,001,2022-04-27_21h56.38.248,SPAMnetsValid,2021.1.4,Win32,59.94485074,,,,,,,,,,,,,,,,,,,,,,,,,,,,,,,,,,,,,,4,1.4348,0,23,23,23,1,sedulousness,diligence,credulousness,seduction,perilousness,frankness,1,,,,,,,,,,,,,,,,,,,,,,,,,,,,,,,,,,,,,,
,,,,,,,,,,,,,,,89526,001,2022-04-27_21h56.38.248,SPAMnetsValid,2021.1.4,Win32,59.94485074,,,,,,,,,,,,,,,,,,,,,,,,,,,,,,,,,,,,,,,,,,,,,,,,,,,,light,candle,0,0,0,0,1,,,,,,,,,,,,,,,,,,,,,,,,,,,,,,,
,,,,,,,,,,,,,,,89526,001,2022-04-27_21h56.38.248,SPAMnetsValid,2021.1.4,Win32,59.94485074,,,,,,,,,,,,,,,,,,,,,,,,,,,,,,,,,,,,,,,,,,,,,,,,,,,,firestarter,candle,1,0,1,0,1,,,,,,,,,,,,,,,,,,,,,,,,,,,,,,,
,,,,,,,,,,,,,,,89526,001,2022-04-27_21h56.38.248,SPAMnetsValid,2021.1.4,Win32,59.94485074,,,,,,,,,,,,,,,,,,,,,,,,,,,,,,,,,,,,,,,,,,,,,,,,,,,,illumination,candle,2,0,2,0,1,,,,,,,,,,,,,,,,,,,,,,,,,,,,,,,
,,,,,,,,,,,,,,,89526,001,2022-04-27_21h56.38.248,SPAMnetsValid,2021.1.4,Win32,59.94485074,,,,,,,,,,,,,,,,,,,,,,,,,,,,,,,,,,,,,,,,,,,,,,,,,,,,melting down wax to copy fingerprints,candle,3,0,3,0,1,,,,,,,,,,,,,,,,,,,,,,,,,,,,,,,
,,,,,,,,,,,,,,,89526,001,2022-04-27_21h56.38.248,SPAMnetsValid,2021.1.4,Win32,59.94485074,,,,,,,,,,,,,,,,,,,,,,,,,,,,,,,,,,,,,,,,,,,,,,,,,,,,scent,candle,4,0,4,0,1,,,,,,,,,,,,,,,,,,,,,,,,,,,,,,,
,,,,,,,,,,,,,,,89526,001,2022-04-27_21h56.38.248,SPAMnetsValid,2021.1.4,Win32,59.94485074,,,,,,,,,,,,,,,,,,,,,,,,,,,,,,,,,,,,,,,,,,,,,,,,,,,,mood setting,candle,5,0,5,0,1,,,,,,,,,,,,,,,,,,,,,,,,,,,,,,,
,,,,,,,,,,,,,,,89526,001,2022-04-27_21h56.38.248,SPAMnetsValid,2021.1.4,Win32,59.94485074,,,,,,,,,,,,,,,,,,,,,,,,,,,,,,,,,,,,,,,,,,,,,,,,,,,,,,,,,,,0,0,0,1,1,candle,,,,,,,,,,,,,,,,,,,,,,,,,
,,,,,,,,,,,,,,,89526,001,2022-04-27_21h56.38.248,SPAMnetsValid,2021.1.4,Win32,59.94485074,,,,,,,,,,,,,,,,,,,,,,,,,,,,,,,,,,,,,,,,,,,,,,,,,,,,sleeping ,pillow,0,0,0,0,1,,,,,,,,,,,,,,,,,,,,,,,,,,,,,,,
,,,,,,,,,,,,,,,89526,001,2022-04-27_21h56.38.248,SPAMnetsValid,2021.1.4,Win32,59.94485074,,,,,,,,,,,,,,,,,,,,,,,,,,,,,,,,,,,,,,,,,,,,,,,,,,,,pillowfort,pillow,1,0,1,0,1,,,,,,,,,,,,,,,,,,,,,,,,,,,,,,,
,,,,,,,,,,,,,,,89526,001,2022-04-27_21h56.38.248,SPAMnetsValid,2021.1.4,Win32,59.94485074,,,,,,,,,,,,,,,,,,,,,,,,,,,,,,,,,,,,,,,,,,,,,,,,,,,,supporting limbs,pillow,2,0,2,0,1,,,,,,,,,,,,,,,,,,,,,,,,,,,,,,,
,,,,,,,,,,,,,,,89526,001,2022-04-27_21h56.38.248,SPAMnetsValid,2021.1.4,Win32,59.94485074,,,,,,,,,,,,,,,,,,,,,,,,,,,,,,,,,,,,,,,,,,,,,,,,,,,,letting pets sleep on it,pillow,3,0,3,0,1,,,,,,,,,,,,,,,,,,,,,,,,,,,,,,,
,,,,,,,,,,,,,,,89526,001,2022-04-27_21h56.38.248,SPAMnetsValid,2021.1.4,Win32,59.94485074,,,,,,,,,,,,,,,,,,,,,,,,,,,,,,,,,,,,,,,,,,,,,,,,,,,,pillow fight,pillow,4,0,4,0,1,,,,,,,,,,,,,,,,,,,,,,,,,,,,,,,
,,,,,,,,,,,,,,,89526,001,2022-04-27_21h56.38.248,SPAMnetsValid,2021.1.4,Win32,59.94485074,,,,,,,,,,,,,,,,,,,,,,,,,,,,,,,,,,,,,,,,,,,,,,,,,,,,discipline a pet,pillow,5,0,5,0,1,,,,,,,,,,,,,,,,,,,,,,,,,,,,,,,
,,,,,,,,,,,,,,,89526,001,2022-04-27_21h56.38.248,SPAMnetsValid,2021.1.4,Win32,59.94485074,,,,,,,,,,,,,,,,,,,,,,,,,,,,,,,,,,,,,,,,,,,,,,,,,,,,scream into,pillow,6,0,6,0,1,,,,,,,,,,,,,,,,,,,,,,,,,,,,,,,
,,,,,,,,,,,,,,,89526,001,2022-04-27_21h56.38.248,SPAMnetsValid,2021.1.4,Win32,59.94485074,,,,,,,,,,,,,,,,,,,,,,,,,,,,,,,,,,,,,,,,,,,,,,,,,,,,cushion objects for traveling,pillow,7,0,7,0,1,,,,,,,,,,,,,,,,,,,,,,,,,,,,,,,
,,,,,,,,,,,,,,,89526,001,2022-04-27_21h56.38.248,SPAMnetsValid,2021.1.4,Win32,59.94485074,,,,,,,,,,,,,,,,,,,,,,,,,,,,,,,,,,,,,,,,,,,,,,,,,,,,blanket,pillow,8,0,8,0,1,,,,,,,,,,,,,,,,,,,,,,,,,,,,,,,
,,,,,,,,,,,,,,,89526,001,2022-04-27_21h56.38.248,SPAMnetsValid,2021.1.4,Win32,59.94485074,,,,,,,,,,,,,,,,,,,,,,,,,,,,,,,,,,,,,,,,,,,,,,,,,,,,,,,,,,,0,1,1,2,1,pillow,,,,,,,,,,,,,,,,,,,,,,,,,
,,,,,,,,,,,,,,,89526,001,2022-04-27_21h56.38.248,SPAMnetsValid,2021.1.4,Win32,59.94485074,,,,,,,,,,,,,,,,,,,,,,,,,,,,,,,,,,,,,,,,,,,,,,,,,,,,stepping stool,bucket,0,0,0,0,1,,,,,,,,,,,,,,,,,,,,,,,,,,,,,,,
,,,,,,,,,,,,,,,89526,001,2022-04-27_21h56.38.248,SPAMnetsValid,2021.1.4,Win32,59.94485074,,,,,,,,,,,,,,,,,,,,,,,,,,,,,,,,,,,,,,,,,,,,,,,,,,,,zipline for objects,bucket,1,0,1,0,1,,,,,,,,,,,,,,,,,,,,,,,,,,,,,,,
,,,,,,,,,,,,,,,89526,001,2022-04-27_21h56.38.248,SPAMnetsValid,2021.1.4,Win32,59.94485074,,,,,,,,,,,,,,,,,,,,,,,,,,,,,,,,,,,,,,,,,,,,,,,,,,,,helmet,bucket,2,0,2,0,1,,,,,,,,,,,,,,,,,,,,,,,,,,,,,,,
,,,,,,,,,,,,,,,89526,001,2022-04-27_21h56.38.248,SPAMnetsValid,2021.1.4,Win32,59.94485074,,,,,,,,,,,,,,,,,,,,,,,,,,,,,,,,,,,,,,,,,,,,,,,,,,,,carrying things like animals,bucket,3,0,3,0,1,,,,,,,,,,,,,,,,,,,,,,,,,,,,,,,
,,,,,,,,,,,,,,,89526,001,2022-04-27_21h56.38.248,SPAMnetsValid,2021.1.4,Win32,59.94485074,,,,,,,,,,,,,,,,,,,,,,,,,,,,,,,,,,,,,,,,,,,,,,,,,,,,holding water,bucket,4,0,4,0,1,,,,,,,,,,,,,,,,,,,,,,,,,,,,,,,
,,,,,,,,,,,,,,,89526,001,2022-04-27_21h56.38.248,SPAMnetsValid,2021.1.4,Win32,59.94485074,,,,,,,,,,,,,,,,,,,,,,,,,,,,,,,,,,,,,,,,,,,,,,,,,,,,seating,bucket,5,0,5,0,1,,,,,,,,,,,,,,,,,,,,,,,,,,,,,,,
,,,,,,,,,,,,,,,89526,001,2022-04-27_21h56.38.248,SPAMnetsValid,2021.1.4,Win32,59.94485074,,,,,,,,,,,,,,,,,,,,,,,,,,,,,,,,,,,,,,,,,,,,,,,,,,,,self denfense,bucket,6,0,6,0,1,,,,,,,,,,,,,,,,,,,,,,,,,,,,,,,
,,,,,,,,,,,,,,,89526,001,2022-04-27_21h56.38.248,SPAMnetsValid,2021.1.4,Win32,59.94485074,,,,,,,,,,,,,,,,,,,,,,,,,,,,,,,,,,,,,,,,,,,,,,,,,,,,sandcastles,bucket,7,0,7,0,1,,,,,,,,,,,,,,,,,,,,,,,,,,,,,,,
,,,,,,,,,,,,,,,89526,001,2022-04-27_21h56.38.248,SPAMnetsValid,2021.1.4,Win32,59.94485074,,,,,,,,,,,,,,,,,,,,,,,,,,,,,,,,,,,,,,,,,,,,,,,,,,,,,,,,,,,0,2,2,0,1,bucket,,,,,,,,,,,,,,,,,,,,,,,,,
,,,,,,,,,,,,,,,89526,001,2022-04-27_21h56.38.248,SPAMnetsValid,2021.1.4,Win32,59.94485074,,,,,,,,,,,,,,,,,,,,,,,,,,,,,,,,,,,,,,,,,,,,,,,,,,,,,,,,,,,,,,,,,deer,Animals,0,0,0,0,1,,,,,,,,,,,,,,,,,,
,,,,,,,,,,,,,,,89526,001,2022-04-27_21h56.38.248,SPAMnetsValid,2021.1.4,Win32,59.94485074,,,,,,,,,,,,,,,,,,,,,,,,,,,,,,,,,,,,,,,,,,,,,,,,,,,,,,,,,,,,,,,,,crocodile,Animals,1,0,1,0,1,,,,,,,,,,,,,,,,,,
,,,,,,,,,,,,,,,89526,001,2022-04-27_21h56.38.248,SPAMnetsValid,2021.1.4,Win32,59.94485074,,,,,,,,,,,,,,,,,,,,,,,,,,,,,,,,,,,,,,,,,,,,,,,,,,,,,,,,,,,,,,,,,dog,Animals,2,0,2,0,1,,,,,,,,,,,,,,,,,,
,,,,,,,,,,,,,,,89526,001,2022-04-27_21h56.38.248,SPAMnetsValid,2021.1.4,Win32,59.94485074,,,,,,,,,,,,,,,,,,,,,,,,,,,,,,,,,,,,,,,,,,,,,,,,,,,,,,,,,,,,,,,,,cat,Animals,3,0,3,0,1,,,,,,,,,,,,,,,,,,
,,,,,,,,,,,,,,,89526,001,2022-04-27_21h56.38.248,SPAMnetsValid,2021.1.4,Win32,59.94485074,,,,,,,,,,,,,,,,,,,,,,,,,,,,,,,,,,,,,,,,,,,,,,,,,,,,,,,,,,,,,,,,,zebra,Animals,4,0,4,0,1,,,,,,,,,,,,,,,,,,
,,,,,,,,,,,,,,,89526,001,2022-04-27_21h56.38.248,SPAMnetsValid,2021.1.4,Win32,59.94485074,,,,,,,,,,,,,,,,,,,,,,,,,,,,,,,,,,,,,,,,,,,,,,,,,,,,,,,,,,,,,,,,,jaguar,Animals,5,0,5,0,1,,,,,,,,,,,,,,,,,,
,,,,,,,,,,,,,,,89526,001,2022-04-27_21h56.38.248,SPAMnetsValid,2021.1.4,Win32,59.94485074,,,,,,,,,,,,,,,,,,,,,,,,,,,,,,,,,,,,,,,,,,,,,,,,,,,,,,,,,,,,,,,,,ardvark,Animals,6,0,6,0,1,,,,,,,,,,,,,,,,,,
,,,,,,,,,,,,,,,89526,001,2022-04-27_21h56.38.248,SPAMnetsValid,2021.1.4,Win32,59.94485074,,,,,,,,,,,,,,,,,,,,,,,,,,,,,,,,,,,,,,,,,,,,,,,,,,,,,,,,,,,,,,,,,parrot,Animals,7,0,7,0,1,,,,,,,,,,,,,,,,,,
,,,,,,,,,,,,,,,89526,001,2022-04-27_21h56.38.248,SPAMnetsValid,2021.1.4,Win32,59.94485074,,,,,,,,,,,,,,,,,,,,,,,,,,,,,,,,,,,,,,,,,,,,,,,,,,,,,,,,,,,,,,,,,seal,Animals,8,0,8,0,1,,,,,,,,,,,,,,,,,,
,,,,,,,,,,,,,,,89526,001,2022-04-27_21h56.38.248,SPAMnetsValid,2021.1.4,Win32,59.94485074,,,,,,,,,,,,,,,,,,,,,,,,,,,,,,,,,,,,,,,,,,,,,,,,,,,,,,,,,,,,,,,,,grizzly bear,Animals,9,0,9,0,1,,,,,,,,,,,,,,,,,,
,,,,,,,,,,,,,,,89526,001,2022-04-27_21h56.38.248,SPAMnetsValid,2021.1.4,Win32,59.94485074,,,,,,,,,,,,,,,,,,,,,,,,,,,,,,,,,,,,,,,,,,,,,,,,,,,,,,,,,,,,,,,,,snake,Animals,10,0,10,0,1,,,,,,,,,,,,,,,,,,
,,,,,,,,,,,,,,,89526,001,2022-04-27_21h56.38.248,SPAMnetsValid,2021.1.4,Win32,59.94485074,,,,,,,,,,,,,,,,,,,,,,,,,,,,,,,,,,,,,,,,,,,,,,,,,,,,,,,,,,,,,,,,,elephant,Animals,11,0,11,0,1,,,,,,,,,,,,,,,,,,
,,,,,,,,,,,,,,,89526,001,2022-04-27_21h56.38.248,SPAMnetsValid,2021.1.4,Win32,59.94485074,,,,,,,,,,,,,,,,,,,,,,,,,,,,,,,,,,,,,,,,,,,,,,,,,,,,,,,,,,,,,,,,,boar,Animals,12,0,12,0,1,,,,,,,,,,,,,,,,,,
,,,,,,,,,,,,,,,89526,001,2022-04-27_21h56.38.248,SPAMnetsValid,2021.1.4,Win32,59.94485074,,,,,,,,,,,,,,,,,,,,,,,,,,,,,,,,,,,,,,,,,,,,,,,,,,,,,,,,,,,,,,,,,pig,Animals,13,0,13,0,1,,,,,,,,,,,,,,,,,,
,,,,,,,,,,,,,,,89526,001,2022-04-27_21h56.38.248,SPAMnetsValid,2021.1.4,Win32,59.94485074,,,,,,,,,,,,,,,,,,,,,,,,,,,,,,,,,,,,,,,,,,,,,,,,,,,,,,,,,,,,,,,,,cow,Animals,14,0,14,0,1,,,,,,,,,,,,,,,,,,
,,,,,,,,,,,,,,,89526,001,2022-04-27_21h56.38.248,SPAMnetsValid,2021.1.4,Win32,59.94485074,,,,,,,,,,,,,,,,,,,,,,,,,,,,,,,,,,,,,,,,,,,,,,,,,,,,,,,,,,,,,,,,,horse,Animals,15,0,15,0,1,,,,,,,,,,,,,,,,,,
,,,,,,,,,,,,,,,89526,001,2022-04-27_21h56.38.248,SPAMnetsValid,2021.1.4,Win32,59.94485074,,,,,,,,,,,,,,,,,,,,,,,,,,,,,,,,,,,,,,,,,,,,,,,,,,,,,,,,,,,,,,,,,wolf,Animals,16,0,16,0,1,,,,,,,,,,,,,,,,,,
,,,,,,,,,,,,,,,89526,001,2022-04-27_21h56.38.248,SPAMnetsValid,2021.1.4,Win32,59.94485074,,,,,,,,,,,,,,,,,,,,,,,,,,,,,,,,,,,,,,,,,,,,,,,,,,,,,,,,,,,,,,,,,eagle,Animals,17,0,17,0,1,,,,,,,,,,,,,,,,,,
,,,,,,,,,,,,,,,89526,001,2022-04-27_21h56.38.248,SPAMnetsValid,2021.1.4,Win32,59.94485074,,,,,,,,,,,,,,,,,,,,,,,,,,,,,,,,,,,,,,,,,,,,,,,,,,,,,,,,,,,,,,,,,vole,Animals,18,0,18,0,1,,,,,,,,,,,,,,,,,,
,,,,,,,,,,,,,,,89526,001,2022-04-27_21h56.38.248,SPAMnetsValid,2021.1.4,Win32,59.94485074,,,,,,,,,,,,,,,,,,,,,,,,,,,,,,,,,,,,,,,,,,,,,,,,,,,,,,,,,,,,,,,,,mouse,Animals,19,0,19,0,1,,,,,,,,,,,,,,,,,,
,,,,,,,,,,,,,,,89526,001,2022-04-27_21h56.38.248,SPAMnetsValid,2021.1.4,Win32,59.94485074,,,,,,,,,,,,,,,,,,,,,,,,,,,,,,,,,,,,,,,,,,,,,,,,,,,,,,,,,,,,,,,,,opossum,Animals,20,0,20,0,1,,,,,,,,,,,,,,,,,,
,,,,,,,,,,,,,,,89526,001,2022-04-27_21h56.38.248,SPAMnetsValid,2021.1.4,Win32,59.94485074,,,,,,,,,,,,,,,,,,,,,,,,,,,,,,,,,,,,,,,,,,,,,,,,,,,,,,,,,,,,,,,,,raccon,Animals,21,0,21,0,1,,,,,,,,,,,,,,,,,,
,,,,,,,,,,,,,,,89526,001,2022-04-27_21h56.38.248,SPAMnetsValid,2021.1.4,Win32,59.94485074,,,,,,,,,,,,,,,,,,,,,,,,,,,,,,,,,,,,,,,,,,,,,,,,,,,,,,,,,,,,,,,,,fox,Animals,22,0,22,0,1,,,,,,,,,,,,,,,,,,
,,,,,,,,,,,,,,,89526,001,2022-04-27_21h56.38.248,SPAMnetsValid,2021.1.4,Win32,59.94485074,,,,,,,,,,,,,,,,,,,,,,,,,,,,,,,,,,,,,,,,,,,,,,,,,,,,,,,,,,,,,,,,,squirrel,Animals,23,0,23,0,1,,,,,,,,,,,,,,,,,,
,,,,,,,,,,,,,,,89526,001,2022-04-27_21h56.38.248,SPAMnetsValid,2021.1.4,Win32,59.94485074,,,,,,,,,,,,,,,,,,,,,,,,,,,,,,,,,,,,,,,,,,,,,,,,,,,,,,,,,,,,,,,,,elk,Animals,24,0,24,0,1,,,,,,,,,,,,,,,,,,
,,,,,,,,,,,,,,,89526,001,2022-04-27_21h56.38.248,SPAMnetsValid,2021.1.4,Win32,59.94485074,,,,,,,,,,,,,,,,,,,,,,,,,,,,,,,,,,,,,,,,,,,,,,,,,,,,,,,,,,,,,,,,,moose,Animals,25,0,25,0,1,,,,,,,,,,,,,,,,,,
,,,,,,,,,,,,,,,89526,001,2022-04-27_21h56.38.248,SPAMnetsValid,2021.1.4,Win32,59.94485074,,,,,,,,,,,,,,,,,,,,,,,,,,,,,,,,,,,,,,,,,,,,,,,,,,,,,,,,,,,,,,,,,sheep,Animals,26,0,26,0,1,,,,,,,,,,,,,,,,,,
,,,,,,,,,,,,,,,89526,001,2022-04-27_21h56.38.248,SPAMnetsValid,2021.1.4,Win32,59.94485074,,,,,,,,,,,,,,,,,,,,,,,,,,,,,,,,,,,,,,,,,,,,,,,,,,,,,,,,,,,,,,,,,pronghorn,Animals,27,0,27,0,1,,,,,,,,,,,,,,,,,,
,,,,,,,,,,,,,,,89526,001,2022-04-27_21h56.38.248,SPAMnetsValid,2021.1.4,Win32,59.94485074,,,,,,,,,,,,,,,,,,,,,,,,,,,,,,,,,,,,,,,,,,,,,,,,,,,,,,,,,,,,,,,,,hippo,Animals,28,0,28,0,1,,,,,,,,,,,,,,,,,,
,,,,,,,,,,,,,,,89526,001,2022-04-27_21h56.38.248,SPAMnetsValid,2021.1.4,Win32,59.94485074,,,,,,,,,,,,,,,,,,,,,,,,,,,,,,,,,,,,,,,,,,,,,,,,,,,,,,,,,,,,,,,,,,,,,,,,0,0,0,0,1,Animals,,,,,,,,,,,,
,,,,,,,,,,,,,,,89526,001,2022-04-27_21h56.38.248,SPAMnetsValid,2021.1.4,Win32,59.94485074,,,,,,,,,,,,,,,,,,,,,,,,,,,,,,,,,,,,,,,,,,,,,,,,,,,,,,,,,,,,,,,,,,,,,,,,,,,,,,4,3.5334,0,0,0,0,1,"I enjoy concentrating on a fantasy or daydream and exploring all its possibilities, letting it grow and develop.",0,1,,
,,,,,,,,,,,,,,,89526,001,2022-04-27_21h56.38.248,SPAMnetsValid,2021.1.4,Win32,59.94485074,,,,,,,,,,,,,,,,,,,,,,,,,,,,,,,,,,,,,,,,,,,,,,,,,,,,,,,,,,,,,,,,,,,,,,,,,,,,,,4,2.224,0,1,1,1,1,I think it's interesting to learn and develop new hobbies.,0,2,,
,,,,,,,,,,,,,,,89526,001,2022-04-27_21h56.38.248,SPAMnetsValid,2021.1.4,Win32,59.94485074,,,,,,,,,,,,,,,,,,,,,,,,,,,,,,,,,,,,,,,,,,,,,,,,,,,,,,,,,,,,,,,,,,,,,,,,,,,,,,5,2.4632,0,2,2,2,1,I am intrigued by the patterns I find in art and nature.,0,3,,
,,,,,,,,,,,,,,,89526,001,2022-04-27_21h56.38.248,SPAMnetsValid,2021.1.4,Win32,59.94485074,,,,,,,,,,,,,,,,,,,,,,,,,,,,,,,,,,,,,,,,,,,,,,,,,,,,,,,,,,,,,,,,,,,,,,,,,,,,,,1,4.3778,0,3,3,3,1,I believe letting students hear controversial speakers can only confuse and mislead them.,1,4,,
,,,,,,,,,,,,,,,89526,001,2022-04-27_21h56.38.248,SPAMnetsValid,2021.1.4,Win32,59.94485074,,,,,,,,,,,,,,,,,,,,,,,,,,,,,,,,,,,,,,,,,,,,,,,,,,,,,,,,,,,,,,,,,,,,,,,,,,,,,,2,2.5617,0,4,4,4,1,Poetry has little or no effect on me.,1,5,,
,,,,,,,,,,,,,,,89526,001,2022-04-27_21h56.38.248,SPAMnetsValid,2021.1.4,Win32,59.94485074,,,,,,,,,,,,,,,,,,,,,,,,,,,,,,,,,,,,,,,,,,,,,,,,,,,,,,,,,,,,,,,,,,,,,,,,,,,,,,2,5.3929,0,5,5,5,1,I would have difficulty just letting my mind wander without control or guidance.,1,6,,
,,,,,,,,,,,,,,,89526,001,2022-04-27_21h56.38.248,SPAMnetsValid,2021.1.4,Win32,59.94485074,,,,,,,,,,,,,,,,,,,,,,,,,,,,,,,,,,,,,,,,,,,,,,,,,,,,,,,,,,,,,,,,,,,,,,,,,,,,,,4,6.0124,0,6,6,6,1,I seldom notice the moods or feelings that different environments produce.,1,7,,
,,,,,,,,,,,,,,,89526,001,2022-04-27_21h56.38.248,SPAMnetsValid,2021.1.4,Win32,59.94485074,,,,,,,,,,,,,,,,,,,,,,,,,,,,,,,,,,,,,,,,,,,,,,,,,,,,,,,,,,,,,,,,,,,,,,,,,,,,,,5,7.9047,0,7,7,7,1,I experience a wide range of emotions or feelings.,0,8,,
,,,,,,,,,,,,,,,89526,001,2022-04-27_21h56.38.248,SPAMnetsValid,2021.1.4,Win32,59.94485074,,,,,,,,,,,,,,,,,,,,,,,,,,,,,,,,,,,,,,,,,,,,,,,,,,,,,,,,,,,,,,,,,,,,,,,,,,,,,,4,2.916,0,8,8,8,1,"Sometimes when I am reading poetry or looking at a work of art, I feel a chill or wave of excitement.",0,9,,
,,,,,,,,,,,,,,,89526,001,2022-04-27_21h56.38.248,SPAMnetsValid,2021.1.4,Win32,59.94485074,,,,,,,,,,,,,,,,,,,,,,,,,,,,,,,,,,,,,,,,,,,,,,,,,,,,,,,,,,,,,,,,,,,,,,,,,,,,,,4,6.694,0,9,9,9,1,I have little interest in speculating on the nature of the universe or the human condition.,1,10,,
,,,,,,,,,,,,,,,89526,001,2022-04-27_21h56.38.248,SPAMnetsValid,2021.1.4,Win32,59.94485074,,,,,,,,,,,,,,,,,,,,,,,,,,,,,,,,,,,,,,,,,,,,,,,,,,,,,,,,,,,,,,,,,,,,,,,,,,,,,,4,2.3623,0,10,10,10,1,I have a lot of intellectual curiosity.,0,11,,
,,,,,,,,,,,,,,,89526,001,2022-04-27_21h56.38.248,SPAMnetsValid,2021.1.4,Win32,59.94485074,,,,,,,,,,,,,,,,,,,,,,,,,,,,,,,,,,,,,,,,,,,,,,,,,,,,,,,,,,,,,,,,,,,,,,,,,,,,,,5,4.9222,0,11,11,11,1,I often enjoy playing with theories or abstract ideas.,0,12,,
,,,,,,,,,,,,,,,89526,001,2022-04-27_21h56.38.248,SPAMnetsValid,2021.1.4,Win32,59.94485074,,,,,,,,,,,,,,,,,,,,,,,,,,,,,,,,,,,,,,,,,,,,,,,,,,,,,,,,,,,,,,,,,,,,,,,,,,,,,,,,,,,,,,,,return,6.7444
