key_resp_3.keys,key_resp_3.rt,slider_2.response,slider_2.rt,rjt_rating,rjt_RT,trials_24.thisRepN,trials_24.thisTrialN,trials_24.thisN,trials_24.thisIndex,trials_24.ran,rjt_order,word1,word2,attention,participant,session,date,expName,psychopyVersion,OS,frameRate,trials_4.thisRepN,trials_4.thisTrialN,trials_4.thisN,trials_4.thisIndex,trials_4.ran,trials_5.thisRepN,trials_5.thisTrialN,trials_5.thisN,trials_5.thisIndex,trials_5.ran,repOne,repTwo,slider.response,slider.rt,trials_22.thisRepN,trials_22.thisTrialN,trials_22.thisN,trials_22.thisIndex,trials_22.ran,trials_99.thisRepN,trials_99.thisTrialN,trials_99.thisN,trials_99.thisIndex,trials_99.ran,slider_extend_2.response,slider_extend_2.rt,trials_6.thisRepN,trials_6.thisTrialN,trials_6.thisN,trials_6.thisIndex,trials_6.ran,vCue2,R1,R2,R3,R4,correct,sliderVocab.response,sliderVocab.rt,trials_7.thisRepN,trials_7.thisTrialN,trials_7.thisN,trials_7.thisIndex,trials_7.ran,VocabCue,VR1,VR2,VR3,VR4,VR5,VocabCorrect,AUT_resp,AUT_label,trials.thisRepN,trials.thisTrialN,trials.thisN,trials.thisIndex,trials.ran,trials_2.thisRepN,trials_2.thisTrialN,trials_2.thisN,trials_2.thisIndex,trials_2.ran,aut_prompt,VF_response,VF_tag,trials_16.thisRepN,trials_16.thisTrialN,trials_16.thisN,trials_16.thisIndex,trials_16.ran,trials_17.thisRepN,trials_17.thisTrialN,trials_17.thisN,trials_17.thisIndex,trials_17.ran,VFcond,open_slider.response,open_slider.rt,trials_3.thisRepN,trials_3.thisTrialN,trials_3.thisN,trials_3.thisIndex,trials_3.ran,OpenQ,Rev,OPEN_ORDER,key_resp_2.keys,key_resp_2.rt
return,6.211,2,2.7631,2,2.7631,0,0,0,84,1,130,microwave,yogurt,,89575,001,2022-04-28_14h29.58.885,SPAMnetsValid,2021.1.4,Win32,59.672992,,,,,,,,,,,,,,,,,,,,,,,,,,,,,,,,,,,,,,,,,,,,,,,,,,,,,,,,,,,,,,,,,,,,,,,,,,,,,,,,,,,,,,,,,
,,3,2.1377,3,2.1377,0,1,1,8,1,97,chocolate,kitchen,,89575,001,2022-04-28_14h29.58.885,SPAMnetsValid,2021.1.4,Win32,59.672992,,,,,,,,,,,,,,,,,,,,,,,,,,,,,,,,,,,,,,,,,,,,,,,,,,,,,,,,,,,,,,,,,,,,,,,,,,,,,,,,,,,,,,,,,
,,5,3.959,5,3.959,0,2,2,79,1,103,pretzel,tomato,,89575,001,2022-04-28_14h29.58.885,SPAMnetsValid,2021.1.4,Win32,59.672992,,,,,,,,,,,,,,,,,,,,,,,,,,,,,,,,,,,,,,,,,,,,,,,,,,,,,,,,,,,,,,,,,,,,,,,,,,,,,,,,,,,,,,,,,
,,2,1.8572,2,1.8572,0,3,3,74,1,128,melon,microwave,,89575,001,2022-04-28_14h29.58.885,SPAMnetsValid,2021.1.4,Win32,59.672992,,,,,,,,,,,,,,,,,,,,,,,,,,,,,,,,,,,,,,,,,,,,,,,,,,,,,,,,,,,,,,,,,,,,,,,,,,,,,,,,,,,,,,,,,
,,3,1.4667,3,1.4667,0,4,4,92,1,170,cookie,microwave,,89575,001,2022-04-28_14h29.58.885,SPAMnetsValid,2021.1.4,Win32,59.672992,,,,,,,,,,,,,,,,,,,,,,,,,,,,,,,,,,,,,,,,,,,,,,,,,,,,,,,,,,,,,,,,,,,,,,,,,,,,,,,,,,,,,,,,,
,,2,1.5412,2,1.5412,0,5,5,67,1,96,oven,strawberry,,89575,001,2022-04-28_14h29.58.885,SPAMnetsValid,2021.1.4,Win32,59.672992,,,,,,,,,,,,,,,,,,,,,,,,,,,,,,,,,,,,,,,,,,,,,,,,,,,,,,,,,,,,,,,,,,,,,,,,,,,,,,,,,,,,,,,,,
,,5,3.0244,5,3.0244,0,6,6,82,1,98,pretzel,strawberry,,89575,001,2022-04-28_14h29.58.885,SPAMnetsValid,2021.1.4,Win32,59.672992,,,,,,,,,,,,,,,,,,,,,,,,,,,,,,,,,,,,,,,,,,,,,,,,,,,,,,,,,,,,,,,,,,,,,,,,,,,,,,,,,,,,,,,,,
,,5,3.9738,5,3.9738,0,7,7,34,1,153,carrot,pretzel,,89575,001,2022-04-28_14h29.58.885,SPAMnetsValid,2021.1.4,Win32,59.672992,,,,,,,,,,,,,,,,,,,,,,,,,,,,,,,,,,,,,,,,,,,,,,,,,,,,,,,,,,,,,,,,,,,,,,,,,,,,,,,,,,,,,,,,,
,,4,2.8472,4,2.8472,0,8,8,49,1,152,cactus,strawberry,,89575,001,2022-04-28_14h29.58.885,SPAMnetsValid,2021.1.4,Win32,59.672992,,,,,,,,,,,,,,,,,,,,,,,,,,,,,,,,,,,,,,,,,,,,,,,,,,,,,,,,,,,,,,,,,,,,,,,,,,,,,,,,,,,,,,,,,
,,2,3.1239,2,3.1239,0,9,9,68,1,180,tree,yogurt,,89575,001,2022-04-28_14h29.58.885,SPAMnetsValid,2021.1.4,Win32,59.672992,,,,,,,,,,,,,,,,,,,,,,,,,,,,,,,,,,,,,,,,,,,,,,,,,,,,,,,,,,,,,,,,,,,,,,,,,,,,,,,,,,,,,,,,,
,,4,2.1589,4,2.1589,0,10,10,73,1,135,carrot,oven,,89575,001,2022-04-28_14h29.58.885,SPAMnetsValid,2021.1.4,Win32,59.672992,,,,,,,,,,,,,,,,,,,,,,,,,,,,,,,,,,,,,,,,,,,,,,,,,,,,,,,,,,,,,,,,,,,,,,,,,,,,,,,,,,,,,,,,,
,,6,3.1176,6,3.1176,0,11,11,5,1,108,carrot,chocolate,,89575,001,2022-04-28_14h29.58.885,SPAMnetsValid,2021.1.4,Win32,59.672992,,,,,,,,,,,,,,,,,,,,,,,,,,,,,,,,,,,,,,,,,,,,,,,,,,,,,,,,,,,,,,,,,,,,,,,,,,,,,,,,,,,,,,,,,
,,6,2.2209,6,2.2209,0,12,12,78,1,132,broom,tree,,89575,001,2022-04-28_14h29.58.885,SPAMnetsValid,2021.1.4,Win32,59.672992,,,,,,,,,,,,,,,,,,,,,,,,,,,,,,,,,,,,,,,,,,,,,,,,,,,,,,,,,,,,,,,,,,,,,,,,,,,,,,,,,,,,,,,,,
,,4,1.6375,4,1.6375,0,13,13,96,1,136,chocolate,microwave,,89575,001,2022-04-28_14h29.58.885,SPAMnetsValid,2021.1.4,Win32,59.672992,,,,,,,,,,,,,,,,,,,,,,,,,,,,,,,,,,,,,,,,,,,,,,,,,,,,,,,,,,,,,,,,,,,,,,,,,,,,,,,,,,,,,,,,,
,,5,1.7032,5,1.7032,0,14,14,38,1,155,carrot,cookie,,89575,001,2022-04-28_14h29.58.885,SPAMnetsValid,2021.1.4,Win32,59.672992,,,,,,,,,,,,,,,,,,,,,,,,,,,,,,,,,,,,,,,,,,,,,,,,,,,,,,,,,,,,,,,,,,,,,,,,,,,,,,,,,,,,,,,,,
,,3,1.1856,3,1.1856,0,15,15,56,1,113,refrigerator,strawberry,,89575,001,2022-04-28_14h29.58.885,SPAMnetsValid,2021.1.4,Win32,59.672992,,,,,,,,,,,,,,,,,,,,,,,,,,,,,,,,,,,,,,,,,,,,,,,,,,,,,,,,,,,,,,,,,,,,,,,,,,,,,,,,,,,,,,,,,
,,3,1.3432,3,1.3432,0,16,16,12,1,162,microwave,tomato,,89575,001,2022-04-28_14h29.58.885,SPAMnetsValid,2021.1.4,Win32,59.672992,,,,,,,,,,,,,,,,,,,,,,,,,,,,,,,,,,,,,,,,,,,,,,,,,,,,,,,,,,,,,,,,,,,,,,,,,,,,,,,,,,,,,,,,,
,,8,2.7431,8,2.7431,0,17,17,44,1,116,cake,chocolate,,89575,001,2022-04-28_14h29.58.885,SPAMnetsValid,2021.1.4,Win32,59.672992,,,,,,,,,,,,,,,,,,,,,,,,,,,,,,,,,,,,,,,,,,,,,,,,,,,,,,,,,,,,,,,,,,,,,,,,,,,,,,,,,,,,,,,,,
,,1,2.1405,1,2.1405,0,18,18,32,1,182,flower,refrigerator,,89575,001,2022-04-28_14h29.58.885,SPAMnetsValid,2021.1.4,Win32,59.672992,,,,,,,,,,,,,,,,,,,,,,,,,,,,,,,,,,,,,,,,,,,,,,,,,,,,,,,,,,,,,,,,,,,,,,,,,,,,,,,,,,,,,,,,,
,,5,4.4459,5,4.4459,0,19,19,1,1,173,kitchen,tomato,,89575,001,2022-04-28_14h29.58.885,SPAMnetsValid,2021.1.4,Win32,59.672992,,,,,,,,,,,,,,,,,,,,,,,,,,,,,,,,,,,,,,,,,,,,,,,,,,,,,,,,,,,,,,,,,,,,,,,,,,,,,,,,,,,,,,,,,
,,5,1.7899,5,1.7899,0,20,20,76,1,102,chocolate,refrigerator,,89575,001,2022-04-28_14h29.58.885,SPAMnetsValid,2021.1.4,Win32,59.672992,,,,,,,,,,,,,,,,,,,,,,,,,,,,,,,,,,,,,,,,,,,,,,,,,,,,,,,,,,,,,,,,,,,,,,,,,,,,,,,,,,,,,,,,,
,,1,1.8159,1,1.8159,0,21,21,64,1,157,refrigerator,rose,,89575,001,2022-04-28_14h29.58.885,SPAMnetsValid,2021.1.4,Win32,59.672992,,,,,,,,,,,,,,,,,,,,,,,,,,,,,,,,,,,,,,,,,,,,,,,,,,,,,,,,,,,,,,,,,,,,,,,,,,,,,,,,,,,,,,,,,
,,3,2.2055,3,2.2055,0,22,22,31,1,156,melon,rose,,89575,001,2022-04-28_14h29.58.885,SPAMnetsValid,2021.1.4,Win32,59.672992,,,,,,,,,,,,,,,,,,,,,,,,,,,,,,,,,,,,,,,,,,,,,,,,,,,,,,,,,,,,,,,,,,,,,,,,,,,,,,,,,,,,,,,,,
,,1,1.574,1,1.574,0,23,23,71,1,187,cactus,microwave,,89575,001,2022-04-28_14h29.58.885,SPAMnetsValid,2021.1.4,Win32,59.672992,,,,,,,,,,,,,,,,,,,,,,,,,,,,,,,,,,,,,,,,,,,,,,,,,,,,,,,,,,,,,,,,,,,,,,,,,,,,,,,,,,,,,,,,,
,,8,2.8173,8,2.8173,0,24,24,66,1,150,microwave,refrigerator,,89575,001,2022-04-28_14h29.58.885,SPAMnetsValid,2021.1.4,Win32,59.672992,,,,,,,,,,,,,,,,,,,,,,,,,,,,,,,,,,,,,,,,,,,,,,,,,,,,,,,,,,,,,,,,,,,,,,,,,,,,,,,,,,,,,,,,,
,,4,1.6333,4,1.6333,0,25,25,41,1,175,melon,onion,,89575,001,2022-04-28_14h29.58.885,SPAMnetsValid,2021.1.4,Win32,59.672992,,,,,,,,,,,,,,,,,,,,,,,,,,,,,,,,,,,,,,,,,,,,,,,,,,,,,,,,,,,,,,,,,,,,,,,,,,,,,,,,,,,,,,,,,
,,8,4.4506,8,4.4506,0,26,26,22,1,142,garden,tree,,89575,001,2022-04-28_14h29.58.885,SPAMnetsValid,2021.1.4,Win32,59.672992,,,,,,,,,,,,,,,,,,,,,,,,,,,,,,,,,,,,,,,,,,,,,,,,,,,,,,,,,,,,,,,,,,,,,,,,,,,,,,,,,,,,,,,,,
,,9,2.3455,9,2.3455,0,27,27,14,1,120,microwave,oven,,89575,001,2022-04-28_14h29.58.885,SPAMnetsValid,2021.1.4,Win32,59.672992,,,,,,,,,,,,,,,,,,,,,,,,,,,,,,,,,,,,,,,,,,,,,,,,,,,,,,,,,,,,,,,,,,,,,,,,,,,,,,,,,,,,,,,,,
,,7,2.0162,7,2.0162,0,28,28,18,1,119,strawberry,tree,,89575,001,2022-04-28_14h29.58.885,SPAMnetsValid,2021.1.4,Win32,59.672992,,,,,,,,,,,,,,,,,,,,,,,,,,,,,,,,,,,,,,,,,,,,,,,,,,,,,,,,,,,,,,,,,,,,,,,,,,,,,,,,,,,,,,,,,
,,3,2.0457,3,2.0457,0,29,29,89,1,140,cookie,refrigerator,,89575,001,2022-04-28_14h29.58.885,SPAMnetsValid,2021.1.4,Win32,59.672992,,,,,,,,,,,,,,,,,,,,,,,,,,,,,,,,,,,,,,,,,,,,,,,,,,,,,,,,,,,,,,,,,,,,,,,,,,,,,,,,,,,,,,,,,
,,5,1.4729,5,1.4729,0,30,30,2,1,174,cake,pretzel,,89575,001,2022-04-28_14h29.58.885,SPAMnetsValid,2021.1.4,Win32,59.672992,,,,,,,,,,,,,,,,,,,,,,,,,,,,,,,,,,,,,,,,,,,,,,,,,,,,,,,,,,,,,,,,,,,,,,,,,,,,,,,,,,,,,,,,,
,,3,1.8736,3,1.8736,0,31,31,4,1,109,broom,strawberry,,89575,001,2022-04-28_14h29.58.885,SPAMnetsValid,2021.1.4,Win32,59.672992,,,,,,,,,,,,,,,,,,,,,,,,,,,,,,,,,,,,,,,,,,,,,,,,,,,,,,,,,,,,,,,,,,,,,,,,,,,,,,,,,,,,,,,,,
,,8,2.4504,8,2.4504,0,32,32,69,1,124,oven,refrigerator,,89575,001,2022-04-28_14h29.58.885,SPAMnetsValid,2021.1.4,Win32,59.672992,,,,,,,,,,,,,,,,,,,,,,,,,,,,,,,,,,,,,,,,,,,,,,,,,,,,,,,,,,,,,,,,,,,,,,,,,,,,,,,,,,,,,,,,,
,,8,2.6062,8,2.6062,0,33,33,47,1,167,carrot,garden,,89575,001,2022-04-28_14h29.58.885,SPAMnetsValid,2021.1.4,Win32,59.672992,,,,,,,,,,,,,,,,,,,,,,,,,,,,,,,,,,,,,,,,,,,,,,,,,,,,,,,,,,,,,,,,,,,,,,,,,,,,,,,,,,,,,,,,,
,,6,1.6542,6,1.6542,0,34,34,36,1,161,kitchen,pretzel,,89575,001,2022-04-28_14h29.58.885,SPAMnetsValid,2021.1.4,Win32,59.672992,,,,,,,,,,,,,,,,,,,,,,,,,,,,,,,,,,,,,,,,,,,,,,,,,,,,,,,,,,,,,,,,,,,,,,,,,,,,,,,,,,,,,,,,,
,,5,1.1776,5,1.1776,0,35,35,48,1,186,kitchen,yogurt,,89575,001,2022-04-28_14h29.58.885,SPAMnetsValid,2021.1.4,Win32,59.672992,,,,,,,,,,,,,,,,,,,,,,,,,,,,,,,,,,,,,,,,,,,,,,,,,,,,,,,,,,,,,,,,,,,,,,,,,,,,,,,,,,,,,,,,,
,,7,3.7885,7,3.7885,0,36,36,43,1,185,cactus,rose,,89575,001,2022-04-28_14h29.58.885,SPAMnetsValid,2021.1.4,Win32,59.672992,,,,,,,,,,,,,,,,,,,,,,,,,,,,,,,,,,,,,,,,,,,,,,,,,,,,,,,,,,,,,,,,,,,,,,,,,,,,,,,,,,,,,,,,,
,,3,1.1775,3,1.1775,0,37,37,20,1,149,broom,tomato,,89575,001,2022-04-28_14h29.58.885,SPAMnetsValid,2021.1.4,Win32,59.672992,,,,,,,,,,,,,,,,,,,,,,,,,,,,,,,,,,,,,,,,,,,,,,,,,,,,,,,,,,,,,,,,,,,,,,,,,,,,,,,,,,,,,,,,,
,,4,1.4818,4,1.4818,0,38,38,27,1,158,cookie,oven,,89575,001,2022-04-28_14h29.58.885,SPAMnetsValid,2021.1.4,Win32,59.672992,,,,,,,,,,,,,,,,,,,,,,,,,,,,,,,,,,,,,,,,,,,,,,,,,,,,,,,,,,,,,,,,,,,,,,,,,,,,,,,,,,,,,,,,,
,,9,1.523,9,1.523,0,39,39,7,1,188,flower,tree,,89575,001,2022-04-28_14h29.58.885,SPAMnetsValid,2021.1.4,Win32,59.672992,,,,,,,,,,,,,,,,,,,,,,,,,,,,,,,,,,,,,,,,,,,,,,,,,,,,,,,,,,,,,,,,,,,,,,,,,,,,,,,,,,,,,,,,,
,,1,2.1967,1,2.1967,0,40,40,90,1,190,microwave,strawberry,,89575,001,2022-04-28_14h29.58.885,SPAMnetsValid,2021.1.4,Win32,59.672992,,,,,,,,,,,,,,,,,,,,,,,,,,,,,,,,,,,,,,,,,,,,,,,,,,,,,,,,,,,,,,,,,,,,,,,,,,,,,,,,,,,,,,,,,
,,4,1.7649,4,1.7649,0,41,41,72,1,181,carrot,kitchen,,89575,001,2022-04-28_14h29.58.885,SPAMnetsValid,2021.1.4,Win32,59.672992,,,,,,,,,,,,,,,,,,,,,,,,,,,,,,,,,,,,,,,,,,,,,,,,,,,,,,,,,,,,,,,,,,,,,,,,,,,,,,,,,,,,,,,,,
,,1,1.6869,1,1.6869,0,42,42,13,1,105,cactus,oven,,89575,001,2022-04-28_14h29.58.885,SPAMnetsValid,2021.1.4,Win32,59.672992,,,,,,,,,,,,,,,,,,,,,,,,,,,,,,,,,,,,,,,,,,,,,,,,,,,,,,,,,,,,,,,,,,,,,,,,,,,,,,,,,,,,,,,,,
,,1,6.9912,1,6.9912,0,43,43,55,1,143,pretzel,rose,,89575,001,2022-04-28_14h29.58.885,SPAMnetsValid,2021.1.4,Win32,59.672992,,,,,,,,,,,,,,,,,,,,,,,,,,,,,,,,,,,,,,,,,,,,,,,,,,,,,,,,,,,,,,,,,,,,,,,,,,,,,,,,,,,,,,,,,
,,3,2.4574,3,2.4574,0,44,44,93,1,134,carrot,flower,,89575,001,2022-04-28_14h29.58.885,SPAMnetsValid,2021.1.4,Win32,59.672992,,,,,,,,,,,,,,,,,,,,,,,,,,,,,,,,,,,,,,,,,,,,,,,,,,,,,,,,,,,,,,,,,,,,,,,,,,,,,,,,,,,,,,,,,
,,3,5.9096,3,5.9096,0,45,45,77,1,172,kitchen,melon,,89575,001,2022-04-28_14h29.58.885,SPAMnetsValid,2021.1.4,Win32,59.672992,,,,,,,,,,,,,,,,,,,,,,,,,,,,,,,,,,,,,,,,,,,,,,,,,,,,,,,,,,,,,,,,,,,,,,,,,,,,,,,,,,,,,,,,,
,,8,1.7444,8,1.7444,0,46,46,39,1,112,cake,carrot,,89575,001,2022-04-28_14h29.58.885,SPAMnetsValid,2021.1.4,Win32,59.672992,,,,,,,,,,,,,,,,,,,,,,,,,,,,,,,,,,,,,,,,,,,,,,,,,,,,,,,,,,,,,,,,,,,,,,,,,,,,,,,,,,,,,,,,,
,,6,2.0506,6,2.0506,0,47,47,33,1,131,cactus,garden,,89575,001,2022-04-28_14h29.58.885,SPAMnetsValid,2021.1.4,Win32,59.672992,,,,,,,,,,,,,,,,,,,,,,,,,,,,,,,,,,,,,,,,,,,,,,,,,,,,,,,,,,,,,,,,,,,,,,,,,,,,,,,,,,,,,,,,,
,,9,1.2895,9,1.2895,0,48,48,86,1,193,melon,melon,CHECK,89575,001,2022-04-28_14h29.58.885,SPAMnetsValid,2021.1.4,Win32,59.672992,,,,,,,,,,,,,,,,,,,,,,,,,,,,,,,,,,,,,,,,,,,,,,,,,,,,,,,,,,,,,,,,,,,,,,,,,,,,,,,,,,,,,,,,,
,,7,1.5901,7,1.5901,0,49,49,17,1,99,garden,melon,,89575,001,2022-04-28_14h29.58.885,SPAMnetsValid,2021.1.4,Win32,59.672992,,,,,,,,,,,,,,,,,,,,,,,,,,,,,,,,,,,,,,,,,,,,,,,,,,,,,,,,,,,,,,,,,,,,,,,,,,,,,,,,,,,,,,,,,
,,1,1.4737,1,1.4737,0,50,50,50,1,126,kitchen,tree,,89575,001,2022-04-28_14h29.58.885,SPAMnetsValid,2021.1.4,Win32,59.672992,,,,,,,,,,,,,,,,,,,,,,,,,,,,,,,,,,,,,,,,,,,,,,,,,,,,,,,,,,,,,,,,,,,,,,,,,,,,,,,,,,,,,,,,,
,,3,2.7586,3,2.7586,0,51,51,91,1,166,cake,yogurt,,89575,001,2022-04-28_14h29.58.885,SPAMnetsValid,2021.1.4,Win32,59.672992,,,,,,,,,,,,,,,,,,,,,,,,,,,,,,,,,,,,,,,,,,,,,,,,,,,,,,,,,,,,,,,,,,,,,,,,,,,,,,,,,,,,,,,,,
,,4,1.7672,4,1.7672,0,52,52,35,1,147,cake,refrigerator,,89575,001,2022-04-28_14h29.58.885,SPAMnetsValid,2021.1.4,Win32,59.672992,,,,,,,,,,,,,,,,,,,,,,,,,,,,,,,,,,,,,,,,,,,,,,,,,,,,,,,,,,,,,,,,,,,,,,,,,,,,,,,,,,,,,,,,,
,,3,1.506,3,1.506,0,53,53,10,1,118,chocolate,oven,,89575,001,2022-04-28_14h29.58.885,SPAMnetsValid,2021.1.4,Win32,59.672992,,,,,,,,,,,,,,,,,,,,,,,,,,,,,,,,,,,,,,,,,,,,,,,,,,,,,,,,,,,,,,,,,,,,,,,,,,,,,,,,,,,,,,,,,
,,4,3.4258,4,3.4258,0,54,54,88,1,171,cake,tomato,,89575,001,2022-04-28_14h29.58.885,SPAMnetsValid,2021.1.4,Win32,59.672992,,,,,,,,,,,,,,,,,,,,,,,,,,,,,,,,,,,,,,,,,,,,,,,,,,,,,,,,,,,,,,,,,,,,,,,,,,,,,,,,,,,,,,,,,
,,4,2.5235,4,2.5235,0,55,55,45,1,179,broom,oven,,89575,001,2022-04-28_14h29.58.885,SPAMnetsValid,2021.1.4,Win32,59.672992,,,,,,,,,,,,,,,,,,,,,,,,,,,,,,,,,,,,,,,,,,,,,,,,,,,,,,,,,,,,,,,,,,,,,,,,,,,,,,,,,,,,,,,,,
,,1,2.1558,1,2.1558,0,56,56,19,1,183,cake,rose,,89575,001,2022-04-28_14h29.58.885,SPAMnetsValid,2021.1.4,Win32,59.672992,,,,,,,,,,,,,,,,,,,,,,,,,,,,,,,,,,,,,,,,,,,,,,,,,,,,,,,,,,,,,,,,,,,,,,,,,,,,,,,,,,,,,,,,,
,,1,2.9448,1,2.9448,0,57,57,54,1,101,cactus,kitchen,,89575,001,2022-04-28_14h29.58.885,SPAMnetsValid,2021.1.4,Win32,59.672992,,,,,,,,,,,,,,,,,,,,,,,,,,,,,,,,,,,,,,,,,,,,,,,,,,,,,,,,,,,,,,,,,,,,,,,,,,,,,,,,,,,,,,,,,
,,2,2.6341,2,2.6341,0,58,58,75,1,178,cactus,carrot,,89575,001,2022-04-28_14h29.58.885,SPAMnetsValid,2021.1.4,Win32,59.672992,,,,,,,,,,,,,,,,,,,,,,,,,,,,,,,,,,,,,,,,,,,,,,,,,,,,,,,,,,,,,,,,,,,,,,,,,,,,,,,,,,,,,,,,,
,,5,2.9412,5,2.9412,0,59,59,87,1,114,cookie,strawberry,,89575,001,2022-04-28_14h29.58.885,SPAMnetsValid,2021.1.4,Win32,59.672992,,,,,,,,,,,,,,,,,,,,,,,,,,,,,,,,,,,,,,,,,,,,,,,,,,,,,,,,,,,,,,,,,,,,,,,,,,,,,,,,,,,,,,,,,
,,9,2.0712,9,2.0712,0,60,60,25,1,194,cactus,cactus,CHECK,89575,001,2022-04-28_14h29.58.885,SPAMnetsValid,2021.1.4,Win32,59.672992,,,,,,,,,,,,,,,,,,,,,,,,,,,,,,,,,,,,,,,,,,,,,,,,,,,,,,,,,,,,,,,,,,,,,,,,,,,,,,,,,,,,,,,,,
,,1,1.7225,1,1.7225,0,61,61,15,1,145,cactus,yogurt,,89575,001,2022-04-28_14h29.58.885,SPAMnetsValid,2021.1.4,Win32,59.672992,,,,,,,,,,,,,,,,,,,,,,,,,,,,,,,,,,,,,,,,,,,,,,,,,,,,,,,,,,,,,,,,,,,,,,,,,,,,,,,,,,,,,,,,,
,,1,1.4033,1,1.4033,0,62,62,58,1,144,cake,garden,,89575,001,2022-04-28_14h29.58.885,SPAMnetsValid,2021.1.4,Win32,59.672992,,,,,,,,,,,,,,,,,,,,,,,,,,,,,,,,,,,,,,,,,,,,,,,,,,,,,,,,,,,,,,,,,,,,,,,,,,,,,,,,,,,,,,,,,
,,3,1.796,3,1.796,0,63,63,24,1,169,onion,yogurt,,89575,001,2022-04-28_14h29.58.885,SPAMnetsValid,2021.1.4,Win32,59.672992,,,,,,,,,,,,,,,,,,,,,,,,,,,,,,,,,,,,,,,,,,,,,,,,,,,,,,,,,,,,,,,,,,,,,,,,,,,,,,,,,,,,,,,,,
,,3,2.0455,3,2.0455,0,64,64,95,1,121,broom,microwave,,89575,001,2022-04-28_14h29.58.885,SPAMnetsValid,2021.1.4,Win32,59.672992,,,,,,,,,,,,,,,,,,,,,,,,,,,,,,,,,,,,,,,,,,,,,,,,,,,,,,,,,,,,,,,,,,,,,,,,,,,,,,,,,,,,,,,,,
,,5,1.928,5,1.928,0,65,65,70,1,141,melon,tomato,,89575,001,2022-04-28_14h29.58.885,SPAMnetsValid,2021.1.4,Win32,59.672992,,,,,,,,,,,,,,,,,,,,,,,,,,,,,,,,,,,,,,,,,,,,,,,,,,,,,,,,,,,,,,,,,,,,,,,,,,,,,,,,,,,,,,,,,
,,4,2.4615,4,2.4615,0,66,66,42,1,184,oven,pretzel,,89575,001,2022-04-28_14h29.58.885,SPAMnetsValid,2021.1.4,Win32,59.672992,,,,,,,,,,,,,,,,,,,,,,,,,,,,,,,,,,,,,,,,,,,,,,,,,,,,,,,,,,,,,,,,,,,,,,,,,,,,,,,,,,,,,,,,,
,,3,2.4295,3,2.4295,0,67,67,65,1,160,cookie,kitchen,,89575,001,2022-04-28_14h29.58.885,SPAMnetsValid,2021.1.4,Win32,59.672992,,,,,,,,,,,,,,,,,,,,,,,,,,,,,,,,,,,,,,,,,,,,,,,,,,,,,,,,,,,,,,,,,,,,,,,,,,,,,,,,,,,,,,,,,
,,8,2.3499,8,2.3499,0,68,68,30,1,125,carrot,tree,,89575,001,2022-04-28_14h29.58.885,SPAMnetsValid,2021.1.4,Win32,59.672992,,,,,,,,,,,,,,,,,,,,,,,,,,,,,,,,,,,,,,,,,,,,,,,,,,,,,,,,,,,,,,,,,,,,,,,,,,,,,,,,,,,,,,,,,
,,5,4.3111,5,4.3111,0,69,69,94,1,133,cake,flower,,89575,001,2022-04-28_14h29.58.885,SPAMnetsValid,2021.1.4,Win32,59.672992,,,,,,,,,,,,,,,,,,,,,,,,,,,,,,,,,,,,,,,,,,,,,,,,,,,,,,,,,,,,,,,,,,,,,,,,,,,,,,,,,,,,,,,,,
,,3,1.7031,3,1.7031,0,70,70,46,1,123,cookie,tree,,89575,001,2022-04-28_14h29.58.885,SPAMnetsValid,2021.1.4,Win32,59.672992,,,,,,,,,,,,,,,,,,,,,,,,,,,,,,,,,,,,,,,,,,,,,,,,,,,,,,,,,,,,,,,,,,,,,,,,,,,,,,,,,,,,,,,,,
,,6,1.7225,6,1.7225,0,71,71,53,1,177,chocolate,strawberry,,89575,001,2022-04-28_14h29.58.885,SPAMnetsValid,2021.1.4,Win32,59.672992,,,,,,,,,,,,,,,,,,,,,,,,,,,,,,,,,,,,,,,,,,,,,,,,,,,,,,,,,,,,,,,,,,,,,,,,,,,,,,,,,,,,,,,,,
,,1,1.6824,1,1.6824,0,72,72,63,1,137,microwave,tree,,89575,001,2022-04-28_14h29.58.885,SPAMnetsValid,2021.1.4,Win32,59.672992,,,,,,,,,,,,,,,,,,,,,,,,,,,,,,,,,,,,,,,,,,,,,,,,,,,,,,,,,,,,,,,,,,,,,,,,,,,,,,,,,,,,,,,,,
,,2,1.9548,2,1.9548,0,73,73,16,1,111,carrot,microwave,,89575,001,2022-04-28_14h29.58.885,SPAMnetsValid,2021.1.4,Win32,59.672992,,,,,,,,,,,,,,,,,,,,,,,,,,,,,,,,,,,,,,,,,,,,,,,,,,,,,,,,,,,,,,,,,,,,,,,,,,,,,,,,,,,,,,,,,
,,8,6.5093,8,6.5093,0,74,74,51,1,168,cactus,flower,,89575,001,2022-04-28_14h29.58.885,SPAMnetsValid,2021.1.4,Win32,59.672992,,,,,,,,,,,,,,,,,,,,,,,,,,,,,,,,,,,,,,,,,,,,,,,,,,,,,,,,,,,,,,,,,,,,,,,,,,,,,,,,,,,,,,,,,
,,4,1.276,4,1.276,0,75,75,21,1,159,cookie,flower,,89575,001,2022-04-28_14h29.58.885,SPAMnetsValid,2021.1.4,Win32,59.672992,,,,,,,,,,,,,,,,,,,,,,,,,,,,,,,,,,,,,,,,,,,,,,,,,,,,,,,,,,,,,,,,,,,,,,,,,,,,,,,,,,,,,,,,,
,,6,1.5399,6,1.5399,0,76,76,62,1,189,onion,tree,,89575,001,2022-04-28_14h29.58.885,SPAMnetsValid,2021.1.4,Win32,59.672992,,,,,,,,,,,,,,,,,,,,,,,,,,,,,,,,,,,,,,,,,,,,,,,,,,,,,,,,,,,,,,,,,,,,,,,,,,,,,,,,,,,,,,,,,
,,3,1.7665,3,1.7665,0,77,77,23,1,148,flower,melon,,89575,001,2022-04-28_14h29.58.885,SPAMnetsValid,2021.1.4,Win32,59.672992,,,,,,,,,,,,,,,,,,,,,,,,,,,,,,,,,,,,,,,,,,,,,,,,,,,,,,,,,,,,,,,,,,,,,,,,,,,,,,,,,,,,,,,,,
,,1,1.5782,1,1.5782,0,78,78,81,1,104,garden,microwave,,89575,001,2022-04-28_14h29.58.885,SPAMnetsValid,2021.1.4,Win32,59.672992,,,,,,,,,,,,,,,,,,,,,,,,,,,,,,,,,,,,,,,,,,,,,,,,,,,,,,,,,,,,,,,,,,,,,,,,,,,,,,,,,,,,,,,,,
,,2,2.8541,2,2.8541,0,79,79,6,1,151,microwave,onion,,89575,001,2022-04-28_14h29.58.885,SPAMnetsValid,2021.1.4,Win32,59.672992,,,,,,,,,,,,,,,,,,,,,,,,,,,,,,,,,,,,,,,,,,,,,,,,,,,,,,,,,,,,,,,,,,,,,,,,,,,,,,,,,,,,,,,,,
,,3,4.1319,3,4.1319,0,80,80,85,1,115,refrigerator,tomato,,89575,001,2022-04-28_14h29.58.885,SPAMnetsValid,2021.1.4,Win32,59.672992,,,,,,,,,,,,,,,,,,,,,,,,,,,,,,,,,,,,,,,,,,,,,,,,,,,,,,,,,,,,,,,,,,,,,,,,,,,,,,,,,,,,,,,,,
,,1,1.9369,1,1.9369,0,81,81,3,1,129,cactus,refrigerator,,89575,001,2022-04-28_14h29.58.885,SPAMnetsValid,2021.1.4,Win32,59.672992,,,,,,,,,,,,,,,,,,,,,,,,,,,,,,,,,,,,,,,,,,,,,,,,,,,,,,,,,,,,,,,,,,,,,,,,,,,,,,,,,,,,,,,,,
,,5,1.3804,5,1.3804,0,82,82,37,1,139,carrot,strawberry,,89575,001,2022-04-28_14h29.58.885,SPAMnetsValid,2021.1.4,Win32,59.672992,,,,,,,,,,,,,,,,,,,,,,,,,,,,,,,,,,,,,,,,,,,,,,,,,,,,,,,,,,,,,,,,,,,,,,,,,,,,,,,,,,,,,,,,,
,,3,1.5331,3,1.5331,0,83,83,59,1,164,cookie,garden,,89575,001,2022-04-28_14h29.58.885,SPAMnetsValid,2021.1.4,Win32,59.672992,,,,,,,,,,,,,,,,,,,,,,,,,,,,,,,,,,,,,,,,,,,,,,,,,,,,,,,,,,,,,,,,,,,,,,,,,,,,,,,,,,,,,,,,,
,,8,2.0486,8,2.0486,0,84,84,60,1,122,flower,garden,,89575,001,2022-04-28_14h29.58.885,SPAMnetsValid,2021.1.4,Win32,59.672992,,,,,,,,,,,,,,,,,,,,,,,,,,,,,,,,,,,,,,,,,,,,,,,,,,,,,,,,,,,,,,,,,,,,,,,,,,,,,,,,,,,,,,,,,
,,7,4.9062,7,4.9062,0,85,85,0,1,106,cake,strawberry,,89575,001,2022-04-28_14h29.58.885,SPAMnetsValid,2021.1.4,Win32,59.672992,,,,,,,,,,,,,,,,,,,,,,,,,,,,,,,,,,,,,,,,,,,,,,,,,,,,,,,,,,,,,,,,,,,,,,,,,,,,,,,,,,,,,,,,,
,,8,2.2042,8,2.2042,0,86,86,28,1,154,strawberry,yogurt,,89575,001,2022-04-28_14h29.58.885,SPAMnetsValid,2021.1.4,Win32,59.672992,,,,,,,,,,,,,,,,,,,,,,,,,,,,,,,,,,,,,,,,,,,,,,,,,,,,,,,,,,,,,,,,,,,,,,,,,,,,,,,,,,,,,,,,,
,,2,1.3153,2,1.3153,0,87,87,80,1,146,pretzel,tree,,89575,001,2022-04-28_14h29.58.885,SPAMnetsValid,2021.1.4,Win32,59.672992,,,,,,,,,,,,,,,,,,,,,,,,,,,,,,,,,,,,,,,,,,,,,,,,,,,,,,,,,,,,,,,,,,,,,,,,,,,,,,,,,,,,,,,,,
,,2,2.0818,2,2.0818,0,88,88,29,1,163,melon,refrigerator,,89575,001,2022-04-28_14h29.58.885,SPAMnetsValid,2021.1.4,Win32,59.672992,,,,,,,,,,,,,,,,,,,,,,,,,,,,,,,,,,,,,,,,,,,,,,,,,,,,,,,,,,,,,,,,,,,,,,,,,,,,,,,,,,,,,,,,,
,,8,1.7663,8,1.7663,0,89,89,11,1,117,melon,strawberry,,89575,001,2022-04-28_14h29.58.885,SPAMnetsValid,2021.1.4,Win32,59.672992,,,,,,,,,,,,,,,,,,,,,,,,,,,,,,,,,,,,,,,,,,,,,,,,,,,,,,,,,,,,,,,,,,,,,,,,,,,,,,,,,,,,,,,,,
,,8,1.6019,8,1.6019,0,90,90,83,1,100,garden,tomato,,89575,001,2022-04-28_14h29.58.885,SPAMnetsValid,2021.1.4,Win32,59.672992,,,,,,,,,,,,,,,,,,,,,,,,,,,,,,,,,,,,,,,,,,,,,,,,,,,,,,,,,,,,,,,,,,,,,,,,,,,,,,,,,,,,,,,,,
,,7,1.7126,7,1.7126,0,91,91,26,1,107,rose,tomato,,89575,001,2022-04-28_14h29.58.885,SPAMnetsValid,2021.1.4,Win32,59.672992,,,,,,,,,,,,,,,,,,,,,,,,,,,,,,,,,,,,,,,,,,,,,,,,,,,,,,,,,,,,,,,,,,,,,,,,,,,,,,,,,,,,,,,,,
,,6,1.7874,6,1.7874,0,92,92,40,1,165,onion,rose,,89575,001,2022-04-28_14h29.58.885,SPAMnetsValid,2021.1.4,Win32,59.672992,,,,,,,,,,,,,,,,,,,,,,,,,,,,,,,,,,,,,,,,,,,,,,,,,,,,,,,,,,,,,,,,,,,,,,,,,,,,,,,,,,,,,,,,,
,,9,1.9068,9,1.9068,0,93,93,61,1,138,flower,rose,,89575,001,2022-04-28_14h29.58.885,SPAMnetsValid,2021.1.4,Win32,59.672992,,,,,,,,,,,,,,,,,,,,,,,,,,,,,,,,,,,,,,,,,,,,,,,,,,,,,,,,,,,,,,,,,,,,,,,,,,,,,,,,,,,,,,,,,
,,4,3.2079,4,3.2079,0,94,94,57,1,127,cactus,chocolate,,89575,001,2022-04-28_14h29.58.885,SPAMnetsValid,2021.1.4,Win32,59.672992,,,,,,,,,,,,,,,,,,,,,,,,,,,,,,,,,,,,,,,,,,,,,,,,,,,,,,,,,,,,,,,,,,,,,,,,,,,,,,,,,,,,,,,,,
,,4,1.6052,4,1.6052,0,95,95,9,1,176,cactus,tomato,,89575,001,2022-04-28_14h29.58.885,SPAMnetsValid,2021.1.4,Win32,59.672992,,,,,,,,,,,,,,,,,,,,,,,,,,,,,,,,,,,,,,,,,,,,,,,,,,,,,,,,,,,,,,,,,,,,,,,,,,,,,,,,,,,,,,,,,
,,9,2.0935,9,2.0935,0,96,96,52,1,110,chocolate,cookie,,89575,001,2022-04-28_14h29.58.885,SPAMnetsValid,2021.1.4,Win32,59.672992,,,,,,,,,,,,,,,,,,,,,,,,,,,,,,,,,,,,,,,,,,,,,,,,,,,,,,,,,,,,,,,,,,,,,,,,,,,,,,,,,,,,,,,,,
,,,,,,,,,,,,,,,89575,001,2022-04-28_14h29.58.885,SPAMnetsValid,2021.1.4,Win32,59.672992,0,0,0,0,1,,,,,,,,,,,,,,,,,,,,,,,,,,,,,,,,,,,,,,,,,,,,,,,,,,,,,,,,,,,,,,,,,,,,,,,,,,,,,,,,,,,,
,,,,,,,,,,,,,,,89575,001,2022-04-28_14h29.58.885,SPAMnetsValid,2021.1.4,Win32,59.672992,,,,,,0,0,0,1,1,0,1,,,,,,,,,,,,,,,,,,,,,,,,,,,,,,,,,,,,,,,,,,,,,,,,,,,,,,,,,,,,,,,,,,,,,,,,,,,,,
,,,,4,5.9192,,,,,,5,oven,tree,,89575,001,2022-04-28_14h29.58.885,SPAMnetsValid,2021.1.4,Win32,59.672992,,,,,,,,,,,,,4,5.9192,0,0,0,70,1,,,,,,,,,,,,,,,,,,,,,,,,,,,,,,,,,,,,,,,,,,,,,,,,,,,,,,,,,,,,,,,,,,,,,,
,,,,5,2.7973,,,,,,66,melon,yogurt,,89575,001,2022-04-28_14h29.58.885,SPAMnetsValid,2021.1.4,Win32,59.672992,,,,,,,,,,,,,5,2.7973,0,1,1,48,1,,,,,,,,,,,,,,,,,,,,,,,,,,,,,,,,,,,,,,,,,,,,,,,,,,,,,,,,,,,,,,,,,,,,,,
,,,,7,2.2143,,,,,,52,carrot,tomato,,89575,001,2022-04-28_14h29.58.885,SPAMnetsValid,2021.1.4,Win32,59.672992,,,,,,,,,,,,,7,2.2143,0,2,2,95,1,,,,,,,,,,,,,,,,,,,,,,,,,,,,,,,,,,,,,,,,,,,,,,,,,,,,,,,,,,,,,,,,,,,,,,
,,,,7,2.4126,,,,,,3,cake,oven,,89575,001,2022-04-28_14h29.58.885,SPAMnetsValid,2021.1.4,Win32,59.672992,,,,,,,,,,,,,7,2.4126,0,3,3,30,1,,,,,,,,,,,,,,,,,,,,,,,,,,,,,,,,,,,,,,,,,,,,,,,,,,,,,,,,,,,,,,,,,,,,,,
,,,,8,1.9233,,,,,,25,carrot,onion,,89575,001,2022-04-28_14h29.58.885,SPAMnetsValid,2021.1.4,Win32,59.672992,,,,,,,,,,,,,8,1.9233,0,4,4,44,1,,,,,,,,,,,,,,,,,,,,,,,,,,,,,,,,,,,,,,,,,,,,,,,,,,,,,,,,,,,,,,,,,,,,,,
,,,,1,2.0561,,,,,,86,oven,rose,,89575,001,2022-04-28_14h29.58.885,SPAMnetsValid,2021.1.4,Win32,59.672992,,,,,,,,,,,,,1,2.0561,0,5,5,79,1,,,,,,,,,,,,,,,,,,,,,,,,,,,,,,,,,,,,,,,,,,,,,,,,,,,,,,,,,,,,,,,,,,,,,,
,,,,4,6.2076,,,,,,18,onion,refrigerator,,89575,001,2022-04-28_14h29.58.885,SPAMnetsValid,2021.1.4,Win32,59.672992,,,,,,,,,,,,,4,6.2076,0,6,6,62,1,,,,,,,,,,,,,,,,,,,,,,,,,,,,,,,,,,,,,,,,,,,,,,,,,,,,,,,,,,,,,,,,,,,,,,
,,,,2,1.303,,,,,,92,broom,flower,,89575,001,2022-04-28_14h29.58.885,SPAMnetsValid,2021.1.4,Win32,59.672992,,,,,,,,,,,,,2,1.303,0,7,7,88,1,,,,,,,,,,,,,,,,,,,,,,,,,,,,,,,,,,,,,,,,,,,,,,,,,,,,,,,,,,,,,,,,,,,,,,
,,,,4,2.7888,,,,,,60,cactus,onion,,89575,001,2022-04-28_14h29.58.885,SPAMnetsValid,2021.1.4,Win32,59.672992,,,,,,,,,,,,,4,2.7888,0,8,8,81,1,,,,,,,,,,,,,,,,,,,,,,,,,,,,,,,,,,,,,,,,,,,,,,,,,,,,,,,,,,,,,,,,,,,,,,
,,,,3,1.8978,,,,,,31,cactus,pretzel,,89575,001,2022-04-28_14h29.58.885,SPAMnetsValid,2021.1.4,Win32,59.672992,,,,,,,,,,,,,3,1.8978,0,9,9,1,1,,,,,,,,,,,,,,,,,,,,,,,,,,,,,,,,,,,,,,,,,,,,,,,,,,,,,,,,,,,,,,,,,,,,,,
,,,,1,1.2227,,,,,,8,broom,melon,,89575,001,2022-04-28_14h29.58.885,SPAMnetsValid,2021.1.4,Win32,59.672992,,,,,,,,,,,,,1,1.2227,0,10,10,59,1,,,,,,,,,,,,,,,,,,,,,,,,,,,,,,,,,,,,,,,,,,,,,,,,,,,,,,,,,,,,,,,,,,,,,,
,,,,3,1.5101,,,,,,15,onion,oven,,89575,001,2022-04-28_14h29.58.885,SPAMnetsValid,2021.1.4,Win32,59.672992,,,,,,,,,,,,,3,1.5101,0,11,11,39,1,,,,,,,,,,,,,,,,,,,,,,,,,,,,,,,,,,,,,,,,,,,,,,,,,,,,,,,,,,,,,,,,,,,,,,
,,,,2,1.4474,,,,,,39,melon,pretzel,,89575,001,2022-04-28_14h29.58.885,SPAMnetsValid,2021.1.4,Win32,59.672992,,,,,,,,,,,,,2,1.4474,0,12,12,20,1,,,,,,,,,,,,,,,,,,,,,,,,,,,,,,,,,,,,,,,,,,,,,,,,,,,,,,,,,,,,,,,,,,,,,,
,,,,1,1.2799,,,,,,13,broom,yogurt,,89575,001,2022-04-28_14h29.58.885,SPAMnetsValid,2021.1.4,Win32,59.672992,,,,,,,,,,,,,1,1.2799,0,13,13,5,1,,,,,,,,,,,,,,,,,,,,,,,,,,,,,,,,,,,,,,,,,,,,,,,,,,,,,,,,,,,,,,,,,,,,,,
,,,,4,1.4806,,,,,,45,onion,pretzel,,89575,001,2022-04-28_14h29.58.885,SPAMnetsValid,2021.1.4,Win32,59.672992,,,,,,,,,,,,,4,1.4806,0,14,14,69,1,,,,,,,,,,,,,,,,,,,,,,,,,,,,,,,,,,,,,,,,,,,,,,,,,,,,,,,,,,,,,,,,,,,,,,
,,,,2,1.4728,,,,,,67,flower,yogurt,,89575,001,2022-04-28_14h29.58.885,SPAMnetsValid,2021.1.4,Win32,59.672992,,,,,,,,,,,,,2,1.4728,0,15,15,12,1,,,,,,,,,,,,,,,,,,,,,,,,,,,,,,,,,,,,,,,,,,,,,,,,,,,,,,,,,,,,,,,,,,,,,,
,,,,6,2.0129,,,,,,47,onion,tomato,,89575,001,2022-04-28_14h29.58.885,SPAMnetsValid,2021.1.4,Win32,59.672992,,,,,,,,,,,,,6,2.0129,0,16,16,51,1,,,,,,,,,,,,,,,,,,,,,,,,,,,,,,,,,,,,,,,,,,,,,,,,,,,,,,,,,,,,,,,,,,,,,,
,,,,1,1.1733,,,,,,73,broom,chocolate,,89575,001,2022-04-28_14h29.58.885,SPAMnetsValid,2021.1.4,Win32,59.672992,,,,,,,,,,,,,1,1.1733,0,17,17,47,1,,,,,,,,,,,,,,,,,,,,,,,,,,,,,,,,,,,,,,,,,,,,,,,,,,,,,,,,,,,,,,,,,,,,,,
,,,,1,1.2899,,,,,,14,broom,cookie,,89575,001,2022-04-28_14h29.58.885,SPAMnetsValid,2021.1.4,Win32,59.672992,,,,,,,,,,,,,1,1.2899,0,18,18,16,1,,,,,,,,,,,,,,,,,,,,,,,,,,,,,,,,,,,,,,,,,,,,,,,,,,,,,,,,,,,,,,,,,,,,,,
,,,,7,2.8229,,,,,,79,garden,strawberry,,89575,001,2022-04-28_14h29.58.885,SPAMnetsValid,2021.1.4,Win32,59.672992,,,,,,,,,,,,,7,2.8229,0,19,19,87,1,,,,,,,,,,,,,,,,,,,,,,,,,,,,,,,,,,,,,,,,,,,,,,,,,,,,,,,,,,,,,,,,,,,,,,
,,,,1,2.6534,,,,,,85,cake,tree,,89575,001,2022-04-28_14h29.58.885,SPAMnetsValid,2021.1.4,Win32,59.672992,,,,,,,,,,,,,1,2.6534,0,20,20,18,1,,,,,,,,,,,,,,,,,,,,,,,,,,,,,,,,,,,,,,,,,,,,,,,,,,,,,,,,,,,,,,,,,,,,,,
,,,,1,2.0382,,,,,,23,flower,microwave,,89575,001,2022-04-28_14h29.58.885,SPAMnetsValid,2021.1.4,Win32,59.672992,,,,,,,,,,,,,1,2.0382,0,21,21,25,1,,,,,,,,,,,,,,,,,,,,,,,,,,,,,,,,,,,,,,,,,,,,,,,,,,,,,,,,,,,,,,,,,,,,,,
,,,,6,2.1819,,,,,,6,garden,onion,,89575,001,2022-04-28_14h29.58.885,SPAMnetsValid,2021.1.4,Win32,59.672992,,,,,,,,,,,,,6,2.1819,0,22,22,83,1,,,,,,,,,,,,,,,,,,,,,,,,,,,,,,,,,,,,,,,,,,,,,,,,,,,,,,,,,,,,,,,,,,,,,,
,,,,4,3.8393,,,,,,54,chocolate,yogurt,,89575,001,2022-04-28_14h29.58.885,SPAMnetsValid,2021.1.4,Win32,59.672992,,,,,,,,,,,,,4,3.8393,0,23,23,67,1,,,,,,,,,,,,,,,,,,,,,,,,,,,,,,,,,,,,,,,,,,,,,,,,,,,,,,,,,,,,,,,,,,,,,,
,,,,4,1.7755,,,,,,24,cookie,tomato,,89575,001,2022-04-28_14h29.58.885,SPAMnetsValid,2021.1.4,Win32,59.672992,,,,,,,,,,,,,4,1.7755,0,24,24,68,1,,,,,,,,,,,,,,,,,,,,,,,,,,,,,,,,,,,,,,,,,,,,,,,,,,,,,,,,,,,,,,,,,,,,,,
,,,,1,1.3104,,,,,,48,flower,oven,,89575,001,2022-04-28_14h29.58.885,SPAMnetsValid,2021.1.4,Win32,59.672992,,,,,,,,,,,,,1,1.3104,0,25,25,15,1,,,,,,,,,,,,,,,,,,,,,,,,,,,,,,,,,,,,,,,,,,,,,,,,,,,,,,,,,,,,,,,,,,,,,,
,,,,4,2.8313,,,,,,51,onion,strawberry,,89575,001,2022-04-28_14h29.58.885,SPAMnetsValid,2021.1.4,Win32,59.672992,,,,,,,,,,,,,4,2.8313,0,26,26,86,1,,,,,,,,,,,,,,,,,,,,,,,,,,,,,,,,,,,,,,,,,,,,,,,,,,,,,,,,,,,,,,,,,,,,,,
,,,,7,1.9501,,,,,,55,tomato,tree,,89575,001,2022-04-28_14h29.58.885,SPAMnetsValid,2021.1.4,Win32,59.672992,,,,,,,,,,,,,7,1.9501,0,27,27,35,1,,,,,,,,,,,,,,,,,,,,,,,,,,,,,,,,,,,,,,,,,,,,,,,,,,,,,,,,,,,,,,,,,,,,,,
,,,,4,2.6783,,,,,,28,cake,melon,,89575,001,2022-04-28_14h29.58.885,SPAMnetsValid,2021.1.4,Win32,59.672992,,,,,,,,,,,,,4,2.6783,0,28,28,54,1,,,,,,,,,,,,,,,,,,,,,,,,,,,,,,,,,,,,,,,,,,,,,,,,,,,,,,,,,,,,,,,,,,,,,,
,,,,4,3.3263,,,,,,95,broom,refrigerator,,89575,001,2022-04-28_14h29.58.885,SPAMnetsValid,2021.1.4,Win32,59.672992,,,,,,,,,,,,,4,3.3263,0,29,29,90,1,,,,,,,,,,,,,,,,,,,,,,,,,,,,,,,,,,,,,,,,,,,,,,,,,,,,,,,,,,,,,,,,,,,,,,
,,,,1,1.5624,,,,,,40,broom,cake,,89575,001,2022-04-28_14h29.58.885,SPAMnetsValid,2021.1.4,Win32,59.672992,,,,,,,,,,,,,1,1.5624,0,30,30,32,1,,,,,,,,,,,,,,,,,,,,,,,,,,,,,,,,,,,,,,,,,,,,,,,,,,,,,,,,,,,,,,,,,,,,,,
,,,,3,1.7821,,,,,,82,cake,kitchen,,89575,001,2022-04-28_14h29.58.885,SPAMnetsValid,2021.1.4,Win32,59.672992,,,,,,,,,,,,,3,1.7821,0,31,31,96,1,,,,,,,,,,,,,,,,,,,,,,,,,,,,,,,,,,,,,,,,,,,,,,,,,,,,,,,,,,,,,,,,,,,,,,
,,,,5,1.6565,,,,,,30,cookie,pretzel,,89575,001,2022-04-28_14h29.58.885,SPAMnetsValid,2021.1.4,Win32,59.672992,,,,,,,,,,,,,5,1.6565,0,32,32,78,1,,,,,,,,,,,,,,,,,,,,,,,,,,,,,,,,,,,,,,,,,,,,,,,,,,,,,,,,,,,,,,,,,,,,,,
,,,,1,1.0583,,,,,,27,cactus,cookie,,89575,001,2022-04-28_14h29.58.885,SPAMnetsValid,2021.1.4,Win32,59.672992,,,,,,,,,,,,,1,1.0583,0,33,33,17,1,,,,,,,,,,,,,,,,,,,,,,,,,,,,,,,,,,,,,,,,,,,,,,,,,,,,,,,,,,,,,,,,,,,,,,
,,,,3,1.325,,,,,,2,kitchen,onion,,89575,001,2022-04-28_14h29.58.885,SPAMnetsValid,2021.1.4,Win32,59.672992,,,,,,,,,,,,,3,1.325,0,34,34,91,1,,,,,,,,,,,,,,,,,,,,,,,,,,,,,,,,,,,,,,,,,,,,,,,,,,,,,,,,,,,,,,,,,,,,,,
,,,,8,4.0651,,,,,,94,kitchen,microwave,,89575,001,2022-04-28_14h29.58.885,SPAMnetsValid,2021.1.4,Win32,59.672992,,,,,,,,,,,,,8,4.0651,0,35,35,58,1,,,,,,,,,,,,,,,,,,,,,,,,,,,,,,,,,,,,,,,,,,,,,,,,,,,,,,,,,,,,,,,,,,,,,,
,,,,8,1.6724,,,,,,93,kitchen,oven,,89575,001,2022-04-28_14h29.58.885,SPAMnetsValid,2021.1.4,Win32,59.672992,,,,,,,,,,,,,8,1.6724,0,36,36,82,1,,,,,,,,,,,,,,,,,,,,,,,,,,,,,,,,,,,,,,,,,,,,,,,,,,,,,,,,,,,,,,,,,,,,,,
,,,,2,1.7808,,,,,,34,melon,oven,,89575,001,2022-04-28_14h29.58.885,SPAMnetsValid,2021.1.4,Win32,59.672992,,,,,,,,,,,,,2,1.7808,0,37,37,7,1,,,,,,,,,,,,,,,,,,,,,,,,,,,,,,,,,,,,,,,,,,,,,,,,,,,,,,,,,,,,,,,,,,,,,,
,,,,1,3.1985,,,,,,11,refrigerator,tree,,89575,001,2022-04-28_14h29.58.885,SPAMnetsValid,2021.1.4,Win32,59.672992,,,,,,,,,,,,,1,3.1985,0,38,38,43,1,,,,,,,,,,,,,,,,,,,,,,,,,,,,,,,,,,,,,,,,,,,,,,,,,,,,,,,,,,,,,,,,,,,,,,
,,,,3,2.1887,,,,,,49,flower,strawberry,,89575,001,2022-04-28_14h29.58.885,SPAMnetsValid,2021.1.4,Win32,59.672992,,,,,,,,,,,,,3,2.1887,0,39,39,3,1,,,,,,,,,,,,,,,,,,,,,,,,,,,,,,,,,,,,,,,,,,,,,,,,,,,,,,,,,,,,,,,,,,,,,,
,,,,3,1.6569,,,,,,22,kitchen,strawberry,,89575,001,2022-04-28_14h29.58.885,SPAMnetsValid,2021.1.4,Win32,59.672992,,,,,,,,,,,,,3,1.6569,0,40,40,2,1,,,,,,,,,,,,,,,,,,,,,,,,,,,,,,,,,,,,,,,,,,,,,,,,,,,,,,,,,,,,,,,,,,,,,,
,,,,3,1.7661,,,,,,41,broom,cactus,,89575,001,2022-04-28_14h29.58.885,SPAMnetsValid,2021.1.4,Win32,59.672992,,,,,,,,,,,,,3,1.7661,0,41,41,46,1,,,,,,,,,,,,,,,,,,,,,,,,,,,,,,,,,,,,,,,,,,,,,,,,,,,,,,,,,,,,,,,,,,,,,,
,,,,1,1.2209,,,,,,72,broom,onion,,89575,001,2022-04-28_14h29.58.885,SPAMnetsValid,2021.1.4,Win32,59.672992,,,,,,,,,,,,,1,1.2209,0,42,42,27,1,,,,,,,,,,,,,,,,,,,,,,,,,,,,,,,,,,,,,,,,,,,,,,,,,,,,,,,,,,,,,,,,,,,,,,
,,,,3,2.4576,,,,,,19,microwave,pretzel,,89575,001,2022-04-28_14h29.58.885,SPAMnetsValid,2021.1.4,Win32,59.672992,,,,,,,,,,,,,3,2.4576,0,43,43,41,1,,,,,,,,,,,,,,,,,,,,,,,,,,,,,,,,,,,,,,,,,,,,,,,,,,,,,,,,,,,,,,,,,,,,,,
,,,,3,1.5242,,,,,,12,cookie,yogurt,,89575,001,2022-04-28_14h29.58.885,SPAMnetsValid,2021.1.4,Win32,59.672992,,,,,,,,,,,,,3,1.5242,0,44,44,36,1,,,,,,,,,,,,,,,,,,,,,,,,,,,,,,,,,,,,,,,,,,,,,,,,,,,,,,,,,,,,,,,,,,,,,,
,,,,3,3.3407,,,,,,42,garden,kitchen,,89575,001,2022-04-28_14h29.58.885,SPAMnetsValid,2021.1.4,Win32,59.672992,,,,,,,,,,,,,3,3.3407,0,45,45,29,1,,,,,,,,,,,,,,,,,,,,,,,,,,,,,,,,,,,,,,,,,,,,,,,,,,,,,,,,,,,,,,,,,,,,,,
,,,,4,1.7074,,,,,,77,refrigerator,yogurt,,89575,001,2022-04-28_14h29.58.885,SPAMnetsValid,2021.1.4,Win32,59.672992,,,,,,,,,,,,,4,1.7074,0,46,46,42,1,,,,,,,,,,,,,,,,,,,,,,,,,,,,,,,,,,,,,,,,,,,,,,,,,,,,,,,,,,,,,,,,,,,,,,
,,,,1,1.1895,,,,,,74,broom,pretzel,,89575,001,2022-04-28_14h29.58.885,SPAMnetsValid,2021.1.4,Win32,59.672992,,,,,,,,,,,,,1,1.1895,0,47,47,40,1,,,,,,,,,,,,,,,,,,,,,,,,,,,,,,,,,,,,,,,,,,,,,,,,,,,,,,,,,,,,,,,,,,,,,,
,,,,1,1.1904,,,,,,91,microwave,rose,,89575,001,2022-04-28_14h29.58.885,SPAMnetsValid,2021.1.4,Win32,59.672992,,,,,,,,,,,,,1,1.1904,0,48,48,84,1,,,,,,,,,,,,,,,,,,,,,,,,,,,,,,,,,,,,,,,,,,,,,,,,,,,,,,,,,,,,,,,,,,,,,,
,,,,2,1.6568,,,,,,81,pretzel,yogurt,,89575,001,2022-04-28_14h29.58.885,SPAMnetsValid,2021.1.4,Win32,59.672992,,,,,,,,,,,,,2,1.6568,0,49,49,50,1,,,,,,,,,,,,,,,,,,,,,,,,,,,,,,,,,,,,,,,,,,,,,,,,,,,,,,,,,,,,,,,,,,,,,,
,,,,3,1.5788,,,,,,29,chocolate,melon,,89575,001,2022-04-28_14h29.58.885,SPAMnetsValid,2021.1.4,Win32,59.672992,,,,,,,,,,,,,3,1.5788,0,50,50,34,1,,,,,,,,,,,,,,,,,,,,,,,,,,,,,,,,,,,,,,,,,,,,,,,,,,,,,,,,,,,,,,,,,,,,,,
,,,,5,2.2718,,,,,,17,carrot,melon,,89575,001,2022-04-28_14h29.58.885,SPAMnetsValid,2021.1.4,Win32,59.672992,,,,,,,,,,,,,5,2.2718,0,51,51,24,1,,,,,,,,,,,,,,,,,,,,,,,,,,,,,,,,,,,,,,,,,,,,,,,,,,,,,,,,,,,,,,,,,,,,,,
,,,,4,1.9871,,,,,,87,carrot,yogurt,,89575,001,2022-04-28_14h29.58.885,SPAMnetsValid,2021.1.4,Win32,59.672992,,,,,,,,,,,,,4,1.9871,0,52,52,6,1,,,,,,,,,,,,,,,,,,,,,,,,,,,,,,,,,,,,,,,,,,,,,,,,,,,,,,,,,,,,,,,,,,,,,,
,,,,1,1.9833,,,,,,65,broom,garden,,89575,001,2022-04-28_14h29.58.885,SPAMnetsValid,2021.1.4,Win32,59.672992,,,,,,,,,,,,,1,1.9833,0,53,53,23,1,,,,,,,,,,,,,,,,,,,,,,,,,,,,,,,,,,,,,,,,,,,,,,,,,,,,,,,,,,,,,,,,,,,,,,
,,,,1,1.9806,,,,,,78,cookie,rose,,89575,001,2022-04-28_14h29.58.885,SPAMnetsValid,2021.1.4,Win32,59.672992,,,,,,,,,,,,,1,1.9806,0,54,54,56,1,,,,,,,,,,,,,,,,,,,,,,,,,,,,,,,,,,,,,,,,,,,,,,,,,,,,,,,,,,,,,,,,,,,,,,
,,,,2,1.5903,,,,,,16,chocolate,flower,,89575,001,2022-04-28_14h29.58.885,SPAMnetsValid,2021.1.4,Win32,59.672992,,,,,,,,,,,,,2,1.5903,0,55,55,22,1,,,,,,,,,,,,,,,,,,,,,,,,,,,,,,,,,,,,,,,,,,,,,,,,,,,,,,,,,,,,,,,,,,,,,,
,,,,1,1.2451,,,,,,1,rose,yogurt,,89575,001,2022-04-28_14h29.58.885,SPAMnetsValid,2021.1.4,Win32,59.672992,,,,,,,,,,,,,1,1.2451,0,56,56,55,1,,,,,,,,,,,,,,,,,,,,,,,,,,,,,,,,,,,,,,,,,,,,,,,,,,,,,,,,,,,,,,,,,,,,,,
,,,,5,2.3435,,,,,,36,broom,kitchen,,89575,001,2022-04-28_14h29.58.885,SPAMnetsValid,2021.1.4,Win32,59.672992,,,,,,,,,,,,,5,2.3435,0,57,57,76,1,,,,,,,,,,,,,,,,,,,,,,,,,,,,,,,,,,,,,,,,,,,,,,,,,,,,,,,,,,,,,,,,,,,,,,
,,,,4,2.6478,,,,,,57,flower,kitchen,,89575,001,2022-04-28_14h29.58.885,SPAMnetsValid,2021.1.4,Win32,59.672992,,,,,,,,,,,,,4,2.6478,0,58,58,49,1,,,,,,,,,,,,,,,,,,,,,,,,,,,,,,,,,,,,,,,,,,,,,,,,,,,,,,,,,,,,,,,,,,,,,,
,,,,4,2.8602,,,,,,62,kitchen,rose,,89575,001,2022-04-28_14h29.58.885,SPAMnetsValid,2021.1.4,Win32,59.672992,,,,,,,,,,,,,4,2.8602,0,59,59,57,1,,,,,,,,,,,,,,,,,,,,,,,,,,,,,,,,,,,,,,,,,,,,,,,,,,,,,,,,,,,,,,,,,,,,,,
,,,,2,1.3056,,,,,,21,cake,onion,,89575,001,2022-04-28_14h29.58.885,SPAMnetsValid,2021.1.4,Win32,59.672992,,,,,,,,,,,,,2,1.3056,0,60,60,63,1,,,,,,,,,,,,,,,,,,,,,,,,,,,,,,,,,,,,,,,,,,,,,,,,,,,,,,,,,,,,,,,,,,,,,,
,,,,2,1.8986,,,,,,88,cactus,melon,,89575,001,2022-04-28_14h29.58.885,SPAMnetsValid,2021.1.4,Win32,59.672992,,,,,,,,,,,,,2,1.8986,0,61,61,38,1,,,,,,,,,,,,,,,,,,,,,,,,,,,,,,,,,,,,,,,,,,,,,,,,,,,,,,,,,,,,,,,,,,,,,,
,,,,3,1.7096,,,,,,32,cake,microwave,,89575,001,2022-04-28_14h29.58.885,SPAMnetsValid,2021.1.4,Win32,59.672992,,,,,,,,,,,,,3,1.7096,0,62,62,33,1,,,,,,,,,,,,,,,,,,,,,,,,,,,,,,,,,,,,,,,,,,,,,,,,,,,,,,,,,,,,,,,,,,,,,,
,,,,3,1.84,,,,,,46,garden,yogurt,,89575,001,2022-04-28_14h29.58.885,SPAMnetsValid,2021.1.4,Win32,59.672992,,,,,,,,,,,,,3,1.84,0,63,63,65,1,,,,,,,,,,,,,,,,,,,,,,,,,,,,,,,,,,,,,,,,,,,,,,,,,,,,,,,,,,,,,,,,,,,,,,
,,,,1,1.8897,,,,,,71,broom,rose,,89575,001,2022-04-28_14h29.58.885,SPAMnetsValid,2021.1.4,Win32,59.672992,,,,,,,,,,,,,1,1.8897,0,64,64,61,1,,,,,,,,,,,,,,,,,,,,,,,,,,,,,,,,,,,,,,,,,,,,,,,,,,,,,,,,,,,,,,,,,,,,,,
,,,,8,3.3794,,,,,,56,cactus,tree,,89575,001,2022-04-28_14h29.58.885,SPAMnetsValid,2021.1.4,Win32,59.672992,,,,,,,,,,,,,8,3.3794,0,65,65,21,1,,,,,,,,,,,,,,,,,,,,,,,,,,,,,,,,,,,,,,,,,,,,,,,,,,,,,,,,,,,,,,,,,,,,,,
,,,,1,2.6343,,,,,,33,oven,yogurt,,89575,001,2022-04-28_14h29.58.885,SPAMnetsValid,2021.1.4,Win32,59.672992,,,,,,,,,,,,,1,2.6343,0,66,66,31,1,,,,,,,,,,,,,,,,,,,,,,,,,,,,,,,,,,,,,,,,,,,,,,,,,,,,,,,,,,,,,,,,,,,,,,
,,,,9,1.5886,,,,,,192,microwave,microwave,CHECK,89575,001,2022-04-28_14h29.58.885,SPAMnetsValid,2021.1.4,Win32,59.672992,,,,,,,,,,,,,9,1.5886,0,67,67,53,1,,,,,,,,,,,,,,,,,,,,,,,,,,,,,,,,,,,,,,,,,,,,,,,,,,,,,,,,,,,,,,,,,,,,,,
,,,,4,12.3641,,,,,,43,chocolate,tomato,,89575,001,2022-04-28_14h29.58.885,SPAMnetsValid,2021.1.4,Win32,59.672992,,,,,,,,,,,,,4,12.3641,0,68,68,8,1,,,,,,,,,,,,,,,,,,,,,,,,,,,,,,,,,,,,,,,,,,,,,,,,,,,,,,,,,,,,,,,,,,,,,,
,,,,6,2.6897,,,,,,61,strawberry,tomato,,89575,001,2022-04-28_14h29.58.885,SPAMnetsValid,2021.1.4,Win32,59.672992,,,,,,,,,,,,,6,2.6897,0,69,69,80,1,,,,,,,,,,,,,,,,,,,,,,,,,,,,,,,,,,,,,,,,,,,,,,,,,,,,,,,,,,,,,,,,,,,,,,
,,,,3,1.2547,,,,,,90,cactus,cake,,89575,001,2022-04-28_14h29.58.885,SPAMnetsValid,2021.1.4,Win32,59.672992,,,,,,,,,,,,,3,1.2547,0,70,70,85,1,,,,,,,,,,,,,,,,,,,,,,,,,,,,,,,,,,,,,,,,,,,,,,,,,,,,,,,,,,,,,,,,,,,,,,
,,,,4,0.9962,,,,,,4,chocolate,pretzel,,89575,001,2022-04-28_14h29.58.885,SPAMnetsValid,2021.1.4,Win32,59.672992,,,,,,,,,,,,,4,0.9962,0,71,71,52,1,,,,,,,,,,,,,,,,,,,,,,,,,,,,,,,,,,,,,,,,,,,,,,,,,,,,,,,,,,,,,,,,,,,,,,
,,,,1,1.1434,,,,,,37,garden,refrigerator,,89575,001,2022-04-28_14h29.58.885,SPAMnetsValid,2021.1.4,Win32,59.672992,,,,,,,,,,,,,1,1.1434,0,72,72,11,1,,,,,,,,,,,,,,,,,,,,,,,,,,,,,,,,,,,,,,,,,,,,,,,,,,,,,,,,,,,,,,,,,,,,,,
,,,,1,1.407,,,,,,53,garden,pretzel,,89575,001,2022-04-28_14h29.58.885,SPAMnetsValid,2021.1.4,Win32,59.672992,,,,,,,,,,,,,1,1.407,0,73,73,0,1,,,,,,,,,,,,,,,,,,,,,,,,,,,,,,,,,,,,,,,,,,,,,,,,,,,,,,,,,,,,,,,,,,,,,,
,,,,7,3.6975,,,,,,20,rose,tree,,89575,001,2022-04-28_14h29.58.885,SPAMnetsValid,2021.1.4,Win32,59.672992,,,,,,,,,,,,,7,3.6975,0,74,74,66,1,,,,,,,,,,,,,,,,,,,,,,,,,,,,,,,,,,,,,,,,,,,,,,,,,,,,,,,,,,,,,,,,,,,,,,
,,,,3,1.2558,,,,,,35,flower,pretzel,,89575,001,2022-04-28_14h29.58.885,SPAMnetsValid,2021.1.4,Win32,59.672992,,,,,,,,,,,,,3,1.2558,0,75,75,26,1,,,,,,,,,,,,,,,,,,,,,,,,,,,,,,,,,,,,,,,,,,,,,,,,,,,,,,,,,,,,,,,,,,,,,,
,,,,7,1.2781,,,,,,63,cake,cookie,,89575,001,2022-04-28_14h29.58.885,SPAMnetsValid,2021.1.4,Win32,59.672992,,,,,,,,,,,,,7,1.2781,0,76,76,93,1,,,,,,,,,,,,,,,,,,,,,,,,,,,,,,,,,,,,,,,,,,,,,,,,,,,,,,,,,,,,,,,,,,,,,,
,,,,8,1.4232,,,,,,76,garden,rose,,89575,001,2022-04-28_14h29.58.885,SPAMnetsValid,2021.1.4,Win32,59.672992,,,,,,,,,,,,,8,1.4232,0,77,77,19,1,,,,,,,,,,,,,,,,,,,,,,,,,,,,,,,,,,,,,,,,,,,,,,,,,,,,,,,,,,,,,,,,,,,,,,
,,,,2,1.1906,,,,,,58,garden,oven,,89575,001,2022-04-28_14h29.58.885,SPAMnetsValid,2021.1.4,Win32,59.672992,,,,,,,,,,,,,2,1.1906,0,78,78,37,1,,,,,,,,,,,,,,,,,,,,,,,,,,,,,,,,,,,,,,,,,,,,,,,,,,,,,,,,,,,,,,,,,,,,,,
,,,,6,1.4214,,,,,,68,flower,tomato,,89575,001,2022-04-28_14h29.58.885,SPAMnetsValid,2021.1.4,Win32,59.672992,,,,,,,,,,,,,6,1.4214,0,79,79,94,1,,,,,,,,,,,,,,,,,,,,,,,,,,,,,,,,,,,,,,,,,,,,,,,,,,,,,,,,,,,,,,,,,,,,,,
,,,,3,1.0556,,,,,,44,cookie,melon,,89575,001,2022-04-28_14h29.58.885,SPAMnetsValid,2021.1.4,Win32,59.672992,,,,,,,,,,,,,3,1.0556,0,80,80,92,1,,,,,,,,,,,,,,,,,,,,,,,,,,,,,,,,,,,,,,,,,,,,,,,,,,,,,,,,,,,,,,,,,,,,,,
,,,,3,1.4035,,,,,,75,cookie,onion,,89575,001,2022-04-28_14h29.58.885,SPAMnetsValid,2021.1.4,Win32,59.672992,,,,,,,,,,,,,3,1.4035,0,81,81,9,1,,,,,,,,,,,,,,,,,,,,,,,,,,,,,,,,,,,,,,,,,,,,,,,,,,,,,,,,,,,,,,,,,,,,,,
,,,,8,1.9165,,,,,,9,kitchen,refrigerator,,89575,001,2022-04-28_14h29.58.885,SPAMnetsValid,2021.1.4,Win32,59.672992,,,,,,,,,,,,,8,1.9165,0,82,82,64,1,,,,,,,,,,,,,,,,,,,,,,,,,,,,,,,,,,,,,,,,,,,,,,,,,,,,,,,,,,,,,,,,,,,,,,
,,,,3,1.0058,,,,,,7,melon,tree,,89575,001,2022-04-28_14h29.58.885,SPAMnetsValid,2021.1.4,Win32,59.672992,,,,,,,,,,,,,3,1.0058,0,83,83,77,1,,,,,,,,,,,,,,,,,,,,,,,,,,,,,,,,,,,,,,,,,,,,,,,,,,,,,,,,,,,,,,,,,,,,,,
,,,,3,2.6557,,,,,,64,chocolate,garden,,89575,001,2022-04-28_14h29.58.885,SPAMnetsValid,2021.1.4,Win32,59.672992,,,,,,,,,,,,,3,2.6557,0,84,84,14,1,,,,,,,,,,,,,,,,,,,,,,,,,,,,,,,,,,,,,,,,,,,,,,,,,,,,,,,,,,,,,,,,,,,,,,
,,,,3,0.9739,,,,,,84,oven,tomato,,89575,001,2022-04-28_14h29.58.885,SPAMnetsValid,2021.1.4,Win32,59.672992,,,,,,,,,,,,,3,0.9739,0,85,85,28,1,,,,,,,,,,,,,,,,,,,,,,,,,,,,,,,,,,,,,,,,,,,,,,,,,,,,,,,,,,,,,,,,,,,,,,
,,,,2,1.2446,,,,,,69,carrot,refrigerator,,89575,001,2022-04-28_14h29.58.885,SPAMnetsValid,2021.1.4,Win32,59.672992,,,,,,,,,,,,,2,1.2446,0,86,86,75,1,,,,,,,,,,,,,,,,,,,,,,,,,,,,,,,,,,,,,,,,,,,,,,,,,,,,,,,,,,,,,,,,,,,,,,
,,,,3,1.1948,,,,,,59,rose,strawberry,,89575,001,2022-04-28_14h29.58.885,SPAMnetsValid,2021.1.4,Win32,59.672992,,,,,,,,,,,,,3,1.1948,0,87,87,72,1,,,,,,,,,,,,,,,,,,,,,,,,,,,,,,,,,,,,,,,,,,,,,,,,,,,,,,,,,,,,,,,,,,,,,,
,,,,1,1.4757,,,,,,38,pretzel,refrigerator,,89575,001,2022-04-28_14h29.58.885,SPAMnetsValid,2021.1.4,Win32,59.672992,,,,,,,,,,,,,1,1.4757,0,88,88,71,1,,,,,,,,,,,,,,,,,,,,,,,,,,,,,,,,,,,,,,,,,,,,,,,,,,,,,,,,,,,,,,,,,,,,,,
,,,,1,1.1226,,,,,,83,broom,carrot,,89575,001,2022-04-28_14h29.58.885,SPAMnetsValid,2021.1.4,Win32,59.672992,,,,,,,,,,,,,1,1.1226,0,89,89,4,1,,,,,,,,,,,,,,,,,,,,,,,,,,,,,,,,,,,,,,,,,,,,,,,,,,,,,,,,,,,,,,,,,,,,,,
,,,,6,1.7259,,,,,,80,chocolate,tree,,89575,001,2022-04-28_14h29.58.885,SPAMnetsValid,2021.1.4,Win32,59.672992,,,,,,,,,,,,,6,1.7259,0,90,90,89,1,,,,,,,,,,,,,,,,,,,,,,,,,,,,,,,,,,,,,,,,,,,,,,,,,,,,,,,,,,,,,,,,,,,,,,
,,,,3,1.6046,,,,,,26,tomato,yogurt,,89575,001,2022-04-28_14h29.58.885,SPAMnetsValid,2021.1.4,Win32,59.672992,,,,,,,,,,,,,3,1.6046,0,91,91,13,1,,,,,,,,,,,,,,,,,,,,,,,,,,,,,,,,,,,,,,,,,,,,,,,,,,,,,,,,,,,,,,,,,,,,,,
,,,,3,1.537,,,,,,70,chocolate,onion,,89575,001,2022-04-28_14h29.58.885,SPAMnetsValid,2021.1.4,Win32,59.672992,,,,,,,,,,,,,3,1.537,0,92,92,74,1,,,,,,,,,,,,,,,,,,,,,,,,,,,,,,,,,,,,,,,,,,,,,,,,,,,,,,,,,,,,,,,,,,,,,,
,,,,4,1.5563,,,,,,10,flower,onion,,89575,001,2022-04-28_14h29.58.885,SPAMnetsValid,2021.1.4,Win32,59.672992,,,,,,,,,,,,,4,1.5563,0,93,93,45,1,,,,,,,,,,,,,,,,,,,,,,,,,,,,,,,,,,,,,,,,,,,,,,,,,,,,,,,,,,,,,,,,,,,,,,
,,,,9,1.1967,,,,,,191,cake,cake,CHECK,89575,001,2022-04-28_14h29.58.885,SPAMnetsValid,2021.1.4,Win32,59.672992,,,,,,,,,,,,,9,1.1967,0,94,94,10,1,,,,,,,,,,,,,,,,,,,,,,,,,,,,,,,,,,,,,,,,,,,,,,,,,,,,,,,,,,,,,,,,,,,,,,
,,,,6,1.9336,,,,,,50,carrot,rose,,89575,001,2022-04-28_14h29.58.885,SPAMnetsValid,2021.1.4,Win32,59.672992,,,,,,,,,,,,,6,1.9336,0,95,95,73,1,,,,,,,,,,,,,,,,,,,,,,,,,,,,,,,,,,,,,,,,,,,,,,,,,,,,,,,,,,,,,,,,,,,,,,
,,,,4,0.9706,,,,,,89,chocolate,rose,,89575,001,2022-04-28_14h29.58.885,SPAMnetsValid,2021.1.4,Win32,59.672992,,,,,,,,,,,,,4,0.9706,0,96,96,60,1,,,,,,,,,,,,,,,,,,,,,,,,,,,,,,,,,,,,,,,,,,,,,,,,,,,,,,,,,,,,,,,,,,,,,,
,,,,,,,,,,,,,,,89575,001,2022-04-28_14h29.58.885,SPAMnetsValid,2021.1.4,Win32,59.672992,,,,,,,,,,,,,,,,,,,,0,0,0,0,1,,,,,,,,,,,,,,,,,,,,,,,,,,,,,,,,,,,,,,,,,,,,,,,,,,,,,,,,,,,,,,,,,
,,,,,,,,,,,,,,,89575,001,2022-04-28_14h29.58.885,SPAMnetsValid,2021.1.4,Win32,59.672992,,,,,,0,1,1,0,1,1,0,,,,,,,,,,,,,,,,,,,,,,,,,,,,,,,,,,,,,,,,,,,,,,,,,,,,,,,,,,,,,,,,,,,,,,,,,,,,,
,,,,,,,,,,,,,,,89575,001,2022-04-28_14h29.58.885,SPAMnetsValid,2021.1.4,Win32,59.672992,,,,,,,,,,,,,,,,,,,,,,,,,3,3.6465,0,0,0,0,1,rancor,forbearance,ridicule,malice,bravery,3,,,,,,,,,,,,,,,,,,,,,,,,,,,,,,,,,,,,,,,,,,,,,,,,,,,,
,,,,,,,,,,,,,,,89575,001,2022-04-28_14h29.58.885,SPAMnetsValid,2021.1.4,Win32,59.672992,,,,,,,,,,,,,,,,,,,,,,,,,4,4.762,0,1,1,1,1,raucous,empty,quiet,smooth,harsh,4,,,,,,,,,,,,,,,,,,,,,,,,,,,,,,,,,,,,,,,,,,,,,,,,,,,,
,,,,,,,,,,,,,,,89575,001,2022-04-28_14h29.58.885,SPAMnetsValid,2021.1.4,Win32,59.672992,,,,,,,,,,,,,,,,,,,,,,,,,4,7.5294,0,2,2,2,1,gargoyle,oil,medicine,carved waterspout,ugly building,3,,,,,,,,,,,,,,,,,,,,,,,,,,,,,,,,,,,,,,,,,,,,,,,,,,,,
,,,,,,,,,,,,,,,89575,001,2022-04-28_14h29.58.885,SPAMnetsValid,2021.1.4,Win32,59.672992,,,,,,,,,,,,,,,,,,,,,,,,,3,12.1652,0,3,3,3,1,recrudesce,purify,renew activity,lack refinement,crush,2,,,,,,,,,,,,,,,,,,,,,,,,,,,,,,,,,,,,,,,,,,,,,,,,,,,,
,,,,,,,,,,,,,,,89575,001,2022-04-28_14h29.58.885,SPAMnetsValid,2021.1.4,Win32,59.672992,,,,,,,,,,,,,,,,,,,,,,,,,3,4.7793,0,4,4,4,1,specious,"plausible, but not genuine",noteworthy,class or variety,roomy,1,,,,,,,,,,,,,,,,,,,,,,,,,,,,,,,,,,,,,,,,,,,,,,,,,,,,
,,,,,,,,,,,,,,,89575,001,2022-04-28_14h29.58.885,SPAMnetsValid,2021.1.4,Win32,59.672992,,,,,,,,,,,,,,,,,,,,,,,,,3,3.2255,0,5,5,5,1,bauble,bubble,showy plaything,idle talk,confusion,2,,,,,,,,,,,,,,,,,,,,,,,,,,,,,,,,,,,,,,,,,,,,,,,,,,,,
,,,,,,,,,,,,,,,89575,001,2022-04-28_14h29.58.885,SPAMnetsValid,2021.1.4,Win32,59.672992,,,,,,,,,,,,,,,,,,,,,,,,,2,3.8847,0,6,6,6,1,prolific,scarce,producing abundantly,reckless,speaking profanely,2,,,,,,,,,,,,,,,,,,,,,,,,,,,,,,,,,,,,,,,,,,,,,,,,,,,,
,,,,,,,,,,,,,,,89575,001,2022-04-28_14h29.58.885,SPAMnetsValid,2021.1.4,Win32,59.672992,,,,,,,,,,,,,,,,,,,,,,,,,2,2.5746,0,7,7,7,1,opulent,party,wealthy,happy frame of mind,semiprecious stone,2,,,,,,,,,,,,,,,,,,,,,,,,,,,,,,,,,,,,,,,,,,,,,,,,,,,,
,,,,,,,,,,,,,,,89575,001,2022-04-28_14h29.58.885,SPAMnetsValid,2021.1.4,Win32,59.672992,,,,,,,,,,,,,,,,,,,,,,,,,1,6.8201,0,8,8,8,1,coercion,conspiracy,strategy,restraint,attraction,3,,,,,,,,,,,,,,,,,,,,,,,,,,,,,,,,,,,,,,,,,,,,,,,,,,,,
,,,,,,,,,,,,,,,89575,001,2022-04-28_14h29.58.885,SPAMnetsValid,2021.1.4,Win32,59.672992,,,,,,,,,,,,,,,,,,,,,,,,,4,2.3344,0,9,9,9,1,hiatus,animal,calamity,dread,gap,4,,,,,,,,,,,,,,,,,,,,,,,,,,,,,,,,,,,,,,,,,,,,,,,,,,,,
,,,,,,,,,,,,,,,89575,001,2022-04-28_14h29.58.885,SPAMnetsValid,2021.1.4,Win32,59.672992,,,,,,,,,,,,,,,,,,,,,,,,,1,2.8229,0,10,10,10,1,germane,microbe,contagious,relevant,different,3,,,,,,,,,,,,,,,,,,,,,,,,,,,,,,,,,,,,,,,,,,,,,,,,,,,,
,,,,,,,,,,,,,,,89575,001,2022-04-28_14h29.58.885,SPAMnetsValid,2021.1.4,Win32,59.672992,,,,,,,,,,,,,,,,,,,,,,,,,2,6.6119,0,11,11,11,1,perfunctory,fundamental,formal,superficial,careful,3,,,,,,,,,,,,,,,,,,,,,,,,,,,,,,,,,,,,,,,,,,,,,,,,,,,,
,,,,,,,,,,,,,,,89575,001,2022-04-28_14h29.58.885,SPAMnetsValid,2021.1.4,Win32,59.672992,,,,,,,,,,,,,,,,,,,,,,,,,4,3.4128,0,12,12,12,1,diverge,reveal,chant,distract the attention of,differ or turn off from,4,,,,,,,,,,,,,,,,,,,,,,,,,,,,,,,,,,,,,,,,,,,,,,,,,,,,
,,,,,,,,,,,,,,,89575,001,2022-04-28_14h29.58.885,SPAMnetsValid,2021.1.4,Win32,59.672992,,,,,,,,,,,,,,,,,,,,,,,,,4,12.4512,0,13,13,13,1,evoke,take away,anger,connect,bring out,4,,,,,,,,,,,,,,,,,,,,,,,,,,,,,,,,,,,,,,,,,,,,,,,,,,,,
,,,,,,,,,,,,,,,89575,001,2022-04-28_14h29.58.885,SPAMnetsValid,2021.1.4,Win32,59.672992,,,,,,,,,,,,,,,,,,,,,,,,,1,5.0765,0,14,14,14,1,pertinent,relevant,lying next to,necessary,bold,1,,,,,,,,,,,,,,,,,,,,,,,,,,,,,,,,,,,,,,,,,,,,,,,,,,,,
,,,,,,,,,,,,,,,89575,001,2022-04-28_14h29.58.885,SPAMnetsValid,2021.1.4,Win32,59.672992,,,,,,,,,,,,,,,,,,,,,,,,,2,2.3629,0,15,15,15,1,holocaust,entirety,destruction,saintly,price,2,,,,,,,,,,,,,,,,,,,,,,,,,,,,,,,,,,,,,,,,,,,,,,,,,,,,
,,,,,,,,,,,,,,,89575,001,2022-04-28_14h29.58.885,SPAMnetsValid,2021.1.4,Win32,59.672992,,,,,,,,,,,,,,,,,,,,,,,,,1,6.0117,0,16,16,16,1,piquant,mellow,fish,pungent,cloth,3,,,,,,,,,,,,,,,,,,,,,,,,,,,,,,,,,,,,,,,,,,,,,,,,,,,,
,,,,,,,,,,,,,,,89575,001,2022-04-28_14h29.58.885,SPAMnetsValid,2021.1.4,Win32,59.672992,,,,,,,,,,,,,,,,,,,,,,,,,1,3.0776,0,17,17,17,1,firmament,foundation,heavens,strong,glue,2,,,,,,,,,,,,,,,,,,,,,,,,,,,,,,,,,,,,,,,,,,,,,,,,,,,,
,,,,,,,,,,,,,,,89575,001,2022-04-28_14h29.58.885,SPAMnetsValid,2021.1.4,Win32,59.672992,,,,,,,,,,,,,,,,,,,,,,,,,,,,,,,,,,,,,,3,7.9562,0,0,0,0,1,marketable,partisan,jocular,marriageable,salable,essential,4,,,,,,,,,,,,,,,,,,,,,,,,,,,,,,,,,,,,,,
,,,,,,,,,,,,,,,89575,001,2022-04-28_14h29.58.885,SPAMnetsValid,2021.1.4,Win32,59.672992,,,,,,,,,,,,,,,,,,,,,,,,,,,,,,,,,,,,,,3,3.8632,0,1,1,1,1,cottontail,squirrel,poplar,boa,marshy plant,rabbit,5,,,,,,,,,,,,,,,,,,,,,,,,,,,,,,,,,,,,,,
,,,,,,,,,,,,,,,89575,001,2022-04-28_14h29.58.885,SPAMnetsValid,2021.1.4,Win32,59.672992,,,,,,,,,,,,,,,,,,,,,,,,,,,,,,,,,,,,,,3,2.6009,0,2,2,2,1,boggy,afraid,false,marshy,dense,black,3,,,,,,,,,,,,,,,,,,,,,,,,,,,,,,,,,,,,,,
,,,,,,,,,,,,,,,89575,001,2022-04-28_14h29.58.885,SPAMnetsValid,2021.1.4,Win32,59.672992,,,,,,,,,,,,,,,,,,,,,,,,,,,,,,,,,,,,,,5,2.9856,0,3,3,3,1,gruesomeness,blackness,falseness,vindictiveness,drunkenness,ghastliness,5,,,,,,,,,,,,,,,,,,,,,,,,,,,,,,,,,,,,,,
,,,,,,,,,,,,,,,89575,001,2022-04-28_14h29.58.885,SPAMnetsValid,2021.1.4,Win32,59.672992,,,,,,,,,,,,,,,,,,,,,,,,,,,,,,,,,,,,,,3,7.0793,0,4,4,4,1,loathing,diffidence,laziness,abhorrence,cleverness,comfort,3,,,,,,,,,,,,,,,,,,,,,,,,,,,,,,,,,,,,,,
,,,,,,,,,,,,,,,89575,001,2022-04-28_14h29.58.885,SPAMnetsValid,2021.1.4,Win32,59.672992,,,,,,,,,,,,,,,,,,,,,,,,,,,,,,,,,,,,,,2,7.9343,0,5,5,5,1,bantam,fowl,ridicule,cripple,vegetable,ensign,1,,,,,,,,,,,,,,,,,,,,,,,,,,,,,,,,,,,,,,
,,,,,,,,,,,,,,,89575,001,2022-04-28_14h29.58.885,SPAMnetsValid,2021.1.4,Win32,59.672992,,,,,,,,,,,,,,,,,,,,,,,,,,,,,,,,,,,,,,5,3.8,0,6,6,6,1,evoke,wake up,surrender,reconnoiter,transcend,call forth,5,,,,,,,,,,,,,,,,,,,,,,,,,,,,,,,,,,,,,,
,,,,,,,,,,,,,,,89575,001,2022-04-28_14h29.58.885,SPAMnetsValid,2021.1.4,Win32,59.672992,,,,,,,,,,,,,,,,,,,,,,,,,,,,,,,,,,,,,,4,3.5763,0,7,7,7,1,unobtrusive,unintelligent,epileptic,illogical,lineal,modest,5,,,,,,,,,,,,,,,,,,,,,,,,,,,,,,,,,,,,,,
,,,,,,,,,,,,,,,89575,001,2022-04-28_14h29.58.885,SPAMnetsValid,2021.1.4,Win32,59.672992,,,,,,,,,,,,,,,,,,,,,,,,,,,,,,,,,,,,,,4,2.3016,0,8,8,8,1,terrain,ice cream,final test,tractor,area of ground,weight,4,,,,,,,,,,,,,,,,,,,,,,,,,,,,,,,,,,,,,,
,,,,,,,,,,,,,,,89575,001,2022-04-28_14h29.58.885,SPAMnetsValid,2021.1.4,Win32,59.672992,,,,,,,,,,,,,,,,,,,,,,,,,,,,,,,,,,,,,,2,5.2847,0,9,9,9,1,capriciousness,stubbornness,courage,whimsicality,amazement,greediness,3,,,,,,,,,,,,,,,,,,,,,,,,,,,,,,,,,,,,,,
,,,,,,,,,,,,,,,89575,001,2022-04-28_14h29.58.885,SPAMnetsValid,2021.1.4,Win32,59.672992,,,,,,,,,,,,,,,,,,,,,,,,,,,,,,,,,,,,,,2,3.1666,0,10,10,10,1,maelstrom,slander,whirlpool,enmity,armor,majolica,2,,,,,,,,,,,,,,,,,,,,,,,,,,,,,,,,,,,,,,
,,,,,,,,,,,,,,,89575,001,2022-04-28_14h29.58.885,SPAMnetsValid,2021.1.4,Win32,59.672992,,,,,,,,,,,,,,,,,,,,,,,,,,,,,,,,,,,,,,5,7.7307,0,11,11,11,1,tentative,critical,conclusive,authentic,provisional,apprehensive,4,,,,,,,,,,,,,,,,,,,,,,,,,,,,,,,,,,,,,,
,,,,,,,,,,,,,,,89575,001,2022-04-28_14h29.58.885,SPAMnetsValid,2021.1.4,Win32,59.672992,,,,,,,,,,,,,,,,,,,,,,,,,,,,,,,,,,,,,,2,7.3382,0,12,12,12,1,placate,rehabilitate,plagiarize,depredate,apprise,conciliate,5,,,,,,,,,,,,,,,,,,,,,,,,,,,,,,,,,,,,,,
,,,,,,,,,,,,,,,89575,001,2022-04-28_14h29.58.885,SPAMnetsValid,2021.1.4,Win32,59.672992,,,,,,,,,,,,,,,,,,,,,,,,,,,,,,,,,,,,,,2,4.0616,0,13,13,13,1,surcease,enlightenment,cessation,inattention,censor,substitution,2,,,,,,,,,,,,,,,,,,,,,,,,,,,,,,,,,,,,,,
,,,,,,,,,,,,,,,89575,001,2022-04-28_14h29.58.885,SPAMnetsValid,2021.1.4,Win32,59.672992,,,,,,,,,,,,,,,,,,,,,,,,,,,,,,,,,,,,,,3,10.4076,0,14,14,14,1,apathetic,wandering,impassive,hateful,prophetic,overflowing,2,,,,,,,,,,,,,,,,,,,,,,,,,,,,,,,,,,,,,,
,,,,,,,,,,,,,,,89575,001,2022-04-28_14h29.58.885,SPAMnetsValid,2021.1.4,Win32,59.672992,,,,,,,,,,,,,,,,,,,,,,,,,,,,,,,,,,,,,,1,5.1969,0,15,15,15,1,paternoster,paternalism,patricide,malediction,benediction,prayer,5,,,,,,,,,,,,,,,,,,,,,,,,,,,,,,,,,,,,,,
,,,,,,,,,,,,,,,89575,001,2022-04-28_14h29.58.885,SPAMnetsValid,2021.1.4,Win32,59.672992,,,,,,,,,,,,,,,,,,,,,,,,,,,,,,,,,,,,,,4,2.8667,0,16,16,16,1,opalescence,opulence,senescence,bankruptcy,iridescence,assiduity,4,,,,,,,,,,,,,,,,,,,,,,,,,,,,,,,,,,,,,,
,,,,,,,,,,,,,,,89575,001,2022-04-28_14h29.58.885,SPAMnetsValid,2021.1.4,Win32,59.672992,,,,,,,,,,,,,,,,,,,,,,,,,,,,,,,,,,,,,,2,2.2946,0,17,17,17,1,lush,stupid,luxurious,hazy,putrid,languishing,2,,,,,,,,,,,,,,,,,,,,,,,,,,,,,,,,,,,,,,
,,,,,,,,,,,,,,,89575,001,2022-04-28_14h29.58.885,SPAMnetsValid,2021.1.4,Win32,59.672992,,,,,,,,,,,,,,,,,,,,,,,,,,,,,,,,,,,,,,2,4.1964,0,18,18,18,1,curtailment,expenditure,abandonment,abridgment,improvement,forgery,3,,,,,,,,,,,,,,,,,,,,,,,,,,,,,,,,,,,,,,
,,,,,,,,,,,,,,,89575,001,2022-04-28_14h29.58.885,SPAMnetsValid,2021.1.4,Win32,59.672992,,,,,,,,,,,,,,,,,,,,,,,,,,,,,,,,,,,,,,2,3.389,0,19,19,19,1,perversity,adversity,perviousness,travesty,waywardness,gentility,4,,,,,,,,,,,,,,,,,,,,,,,,,,,,,,,,,,,,,,
,,,,,,,,,,,,,,,89575,001,2022-04-28_14h29.58.885,SPAMnetsValid,2021.1.4,Win32,59.672992,,,,,,,,,,,,,,,,,,,,,,,,,,,,,,,,,,,,,,3,6.4658,0,20,20,20,1,calumnious,complimentary,analogous,slanderous,tempestuous,magnanimous,3,,,,,,,,,,,,,,,,,,,,,,,,,,,,,,,,,,,,,,
,,,,,,,,,,,,,,,89575,001,2022-04-28_14h29.58.885,SPAMnetsValid,2021.1.4,Win32,59.672992,,,,,,,,,,,,,,,,,,,,,,,,,,,,,,,,,,,,,,1,6.4799,0,21,21,21,1,illiberality,bigotry,imbecility,illegibility,cautery,immaturity,1,,,,,,,,,,,,,,,,,,,,,,,,,,,,,,,,,,,,,,
,,,,,,,,,,,,,,,89575,001,2022-04-28_14h29.58.885,SPAMnetsValid,2021.1.4,Win32,59.672992,,,,,,,,,,,,,,,,,,,,,,,,,,,,,,,,,,,,,,5,4.7788,0,22,22,22,1,clabber,rejoice,gossip,curdle,crow,hobble,3,,,,,,,,,,,,,,,,,,,,,,,,,,,,,,,,,,,,,,
,,,,,,,,,,,,,,,89575,001,2022-04-28_14h29.58.885,SPAMnetsValid,2021.1.4,Win32,59.672992,,,,,,,,,,,,,,,,,,,,,,,,,,,,,,,,,,,,,,5,8.1468,0,23,23,23,1,sedulousness,diligence,credulousness,seduction,perilousness,frankness,1,,,,,,,,,,,,,,,,,,,,,,,,,,,,,,,,,,,,,,
,,,,,,,,,,,,,,,89575,001,2022-04-28_14h29.58.885,SPAMnetsValid,2021.1.4,Win32,59.672992,,,,,,,,,,,,,,,,,,,,,,,,,,,,,,,,,,,,,,,,,,,,,,,,,,,,as a body shield in a street fight,pillow,0,0,0,0,1,,,,,,,,,,,,,,,,,,,,,,,,,,,,,,,
,,,,,,,,,,,,,,,89575,001,2022-04-28_14h29.58.885,SPAMnetsValid,2021.1.4,Win32,59.672992,,,,,,,,,,,,,,,,,,,,,,,,,,,,,,,,,,,,,,,,,,,,,,,,,,,,a cushion for an amusement park slide,pillow,1,0,1,0,1,,,,,,,,,,,,,,,,,,,,,,,,,,,,,,,
,,,,,,,,,,,,,,,89575,001,2022-04-28_14h29.58.885,SPAMnetsValid,2021.1.4,Win32,59.672992,,,,,,,,,,,,,,,,,,,,,,,,,,,,,,,,,,,,,,,,,,,,,,,,,,,,a weapon,pillow,2,0,2,0,1,,,,,,,,,,,,,,,,,,,,,,,,,,,,,,,
,,,,,,,,,,,,,,,89575,001,2022-04-28_14h29.58.885,SPAMnetsValid,2021.1.4,Win32,59.672992,,,,,,,,,,,,,,,,,,,,,,,,,,,,,,,,,,,,,,,,,,,,,,,,,,,,a ball in place of a soccer ball,pillow,3,0,3,0,1,,,,,,,,,,,,,,,,,,,,,,,,,,,,,,,
,,,,,,,,,,,,,,,89575,001,2022-04-28_14h29.58.885,SPAMnetsValid,2021.1.4,Win32,59.672992,,,,,,,,,,,,,,,,,,,,,,,,,,,,,,,,,,,,,,,,,,,,,,,,,,,,an umbrella when it hails,pillow,4,0,4,0,1,,,,,,,,,,,,,,,,,,,,,,,,,,,,,,,
,,,,,,,,,,,,,,,89575,001,2022-04-28_14h29.58.885,SPAMnetsValid,2021.1.4,Win32,59.672992,,,,,,,,,,,,,,,,,,,,,,,,,,,,,,,,,,,,,,,,,,,,,,,,,,,,,,,,,,,0,0,0,2,1,pillow,,,,,,,,,,,,,,,,,,,,,,,,,
,,,,,,,,,,,,,,,89575,001,2022-04-28_14h29.58.885,SPAMnetsValid,2021.1.4,Win32,59.672992,,,,,,,,,,,,,,,,,,,,,,,,,,,,,,,,,,,,,,,,,,,,,,,,,,,,a hat,bucket,0,0,0,0,1,,,,,,,,,,,,,,,,,,,,,,,,,,,,,,,
,,,,,,,,,,,,,,,89575,001,2022-04-28_14h29.58.885,SPAMnetsValid,2021.1.4,Win32,59.672992,,,,,,,,,,,,,,,,,,,,,,,,,,,,,,,,,,,,,,,,,,,,,,,,,,,,a portable basketball hoop,bucket,1,0,1,0,1,,,,,,,,,,,,,,,,,,,,,,,,,,,,,,,
,,,,,,,,,,,,,,,89575,001,2022-04-28_14h29.58.885,SPAMnetsValid,2021.1.4,Win32,59.672992,,,,,,,,,,,,,,,,,,,,,,,,,,,,,,,,,,,,,,,,,,,,,,,,,,,,a portable bathroom ,bucket,2,0,2,0,1,,,,,,,,,,,,,,,,,,,,,,,,,,,,,,,
,,,,,,,,,,,,,,,89575,001,2022-04-28_14h29.58.885,SPAMnetsValid,2021.1.4,Win32,59.672992,,,,,,,,,,,,,,,,,,,,,,,,,,,,,,,,,,,,,,,,,,,,,,,,,,,,wheels for a rally car,bucket,3,0,3,0,1,,,,,,,,,,,,,,,,,,,,,,,,,,,,,,,
,,,,,,,,,,,,,,,89575,001,2022-04-28_14h29.58.885,SPAMnetsValid,2021.1.4,Win32,59.672992,,,,,,,,,,,,,,,,,,,,,,,,,,,,,,,,,,,,,,,,,,,,,,,,,,,,a football helmet,bucket,4,0,4,0,1,,,,,,,,,,,,,,,,,,,,,,,,,,,,,,,
,,,,,,,,,,,,,,,89575,001,2022-04-28_14h29.58.885,SPAMnetsValid,2021.1.4,Win32,59.672992,,,,,,,,,,,,,,,,,,,,,,,,,,,,,,,,,,,,,,,,,,,,,,,,,,,,headgear for a knight costume,bucket,5,0,5,0,1,,,,,,,,,,,,,,,,,,,,,,,,,,,,,,,
,,,,,,,,,,,,,,,89575,001,2022-04-28_14h29.58.885,SPAMnetsValid,2021.1.4,Win32,59.672992,,,,,,,,,,,,,,,,,,,,,,,,,,,,,,,,,,,,,,,,,,,,,,,,,,,,,,,,,,,0,1,1,0,1,bucket,,,,,,,,,,,,,,,,,,,,,,,,,
,,,,,,,,,,,,,,,89575,001,2022-04-28_14h29.58.885,SPAMnetsValid,2021.1.4,Win32,59.672992,,,,,,,,,,,,,,,,,,,,,,,,,,,,,,,,,,,,,,,,,,,,,,,,,,,,kinky toy,candle,0,0,0,0,1,,,,,,,,,,,,,,,,,,,,,,,,,,,,,,,
,,,,,,,,,,,,,,,89575,001,2022-04-28_14h29.58.885,SPAMnetsValid,2021.1.4,Win32,59.672992,,,,,,,,,,,,,,,,,,,,,,,,,,,,,,,,,,,,,,,,,,,,,,,,,,,,source of heat,candle,1,0,1,0,1,,,,,,,,,,,,,,,,,,,,,,,,,,,,,,,
,,,,,,,,,,,,,,,89575,001,2022-04-28_14h29.58.885,SPAMnetsValid,2021.1.4,Win32,59.672992,,,,,,,,,,,,,,,,,,,,,,,,,,,,,,,,,,,,,,,,,,,,,,,,,,,,torture,candle,2,0,2,0,1,,,,,,,,,,,,,,,,,,,,,,,,,,,,,,,
,,,,,,,,,,,,,,,89575,001,2022-04-28_14h29.58.885,SPAMnetsValid,2021.1.4,Win32,59.672992,,,,,,,,,,,,,,,,,,,,,,,,,,,,,,,,,,,,,,,,,,,,,,,,,,,,face mask,candle,3,0,3,0,1,,,,,,,,,,,,,,,,,,,,,,,,,,,,,,,
,,,,,,,,,,,,,,,89575,001,2022-04-28_14h29.58.885,SPAMnetsValid,2021.1.4,Win32,59.672992,,,,,,,,,,,,,,,,,,,,,,,,,,,,,,,,,,,,,,,,,,,,,,,,,,,,food ingredients,candle,4,0,4,0,1,,,,,,,,,,,,,,,,,,,,,,,,,,,,,,,
,,,,,,,,,,,,,,,89575,001,2022-04-28_14h29.58.885,SPAMnetsValid,2021.1.4,Win32,59.672992,,,,,,,,,,,,,,,,,,,,,,,,,,,,,,,,,,,,,,,,,,,,,,,,,,,,,,,,,,,0,2,2,1,1,candle,,,,,,,,,,,,,,,,,,,,,,,,,
,,,,,,,,,,,,,,,89575,001,2022-04-28_14h29.58.885,SPAMnetsValid,2021.1.4,Win32,59.672992,,,,,,,,,,,,,,,,,,,,,,,,,,,,,,,,,,,,,,,,,,,,,,,,,,,,,,,,,,,,,,,,,monkey,Animals,0,0,0,0,1,,,,,,,,,,,,,,,,,,
,,,,,,,,,,,,,,,89575,001,2022-04-28_14h29.58.885,SPAMnetsValid,2021.1.4,Win32,59.672992,,,,,,,,,,,,,,,,,,,,,,,,,,,,,,,,,,,,,,,,,,,,,,,,,,,,,,,,,,,,,,,,,dog,Animals,1,0,1,0,1,,,,,,,,,,,,,,,,,,
,,,,,,,,,,,,,,,89575,001,2022-04-28_14h29.58.885,SPAMnetsValid,2021.1.4,Win32,59.672992,,,,,,,,,,,,,,,,,,,,,,,,,,,,,,,,,,,,,,,,,,,,,,,,,,,,,,,,,,,,,,,,,cat,Animals,2,0,2,0,1,,,,,,,,,,,,,,,,,,
,,,,,,,,,,,,,,,89575,001,2022-04-28_14h29.58.885,SPAMnetsValid,2021.1.4,Win32,59.672992,,,,,,,,,,,,,,,,,,,,,,,,,,,,,,,,,,,,,,,,,,,,,,,,,,,,,,,,,,,,,,,,,owl,Animals,3,0,3,0,1,,,,,,,,,,,,,,,,,,
,,,,,,,,,,,,,,,89575,001,2022-04-28_14h29.58.885,SPAMnetsValid,2021.1.4,Win32,59.672992,,,,,,,,,,,,,,,,,,,,,,,,,,,,,,,,,,,,,,,,,,,,,,,,,,,,,,,,,,,,,,,,,parrot,Animals,4,0,4,0,1,,,,,,,,,,,,,,,,,,
,,,,,,,,,,,,,,,89575,001,2022-04-28_14h29.58.885,SPAMnetsValid,2021.1.4,Win32,59.672992,,,,,,,,,,,,,,,,,,,,,,,,,,,,,,,,,,,,,,,,,,,,,,,,,,,,,,,,,,,,,,,,,hawk,Animals,5,0,5,0,1,,,,,,,,,,,,,,,,,,
,,,,,,,,,,,,,,,89575,001,2022-04-28_14h29.58.885,SPAMnetsValid,2021.1.4,Win32,59.672992,,,,,,,,,,,,,,,,,,,,,,,,,,,,,,,,,,,,,,,,,,,,,,,,,,,,,,,,,,,,,,,,,eagle,Animals,6,0,6,0,1,,,,,,,,,,,,,,,,,,
,,,,,,,,,,,,,,,89575,001,2022-04-28_14h29.58.885,SPAMnetsValid,2021.1.4,Win32,59.672992,,,,,,,,,,,,,,,,,,,,,,,,,,,,,,,,,,,,,,,,,,,,,,,,,,,,,,,,,,,,,,,,,polar bear,Animals,7,0,7,0,1,,,,,,,,,,,,,,,,,,
,,,,,,,,,,,,,,,89575,001,2022-04-28_14h29.58.885,SPAMnetsValid,2021.1.4,Win32,59.672992,,,,,,,,,,,,,,,,,,,,,,,,,,,,,,,,,,,,,,,,,,,,,,,,,,,,,,,,,,,,,,,,,grizzly bear,Animals,8,0,8,0,1,,,,,,,,,,,,,,,,,,
,,,,,,,,,,,,,,,89575,001,2022-04-28_14h29.58.885,SPAMnetsValid,2021.1.4,Win32,59.672992,,,,,,,,,,,,,,,,,,,,,,,,,,,,,,,,,,,,,,,,,,,,,,,,,,,,,,,,,,,,,,,,,eel,Animals,9,0,9,0,1,,,,,,,,,,,,,,,,,,
,,,,,,,,,,,,,,,89575,001,2022-04-28_14h29.58.885,SPAMnetsValid,2021.1.4,Win32,59.672992,,,,,,,,,,,,,,,,,,,,,,,,,,,,,,,,,,,,,,,,,,,,,,,,,,,,,,,,,,,,,,,,,frog,Animals,10,0,10,0,1,,,,,,,,,,,,,,,,,,
,,,,,,,,,,,,,,,89575,001,2022-04-28_14h29.58.885,SPAMnetsValid,2021.1.4,Win32,59.672992,,,,,,,,,,,,,,,,,,,,,,,,,,,,,,,,,,,,,,,,,,,,,,,,,,,,,,,,,,,,,,,,,toad,Animals,11,0,11,0,1,,,,,,,,,,,,,,,,,,
,,,,,,,,,,,,,,,89575,001,2022-04-28_14h29.58.885,SPAMnetsValid,2021.1.4,Win32,59.672992,,,,,,,,,,,,,,,,,,,,,,,,,,,,,,,,,,,,,,,,,,,,,,,,,,,,,,,,,,,,,,,,,snake,Animals,12,0,12,0,1,,,,,,,,,,,,,,,,,,
,,,,,,,,,,,,,,,89575,001,2022-04-28_14h29.58.885,SPAMnetsValid,2021.1.4,Win32,59.672992,,,,,,,,,,,,,,,,,,,,,,,,,,,,,,,,,,,,,,,,,,,,,,,,,,,,,,,,,,,,,,,,,beetle,Animals,13,0,13,0,1,,,,,,,,,,,,,,,,,,
,,,,,,,,,,,,,,,89575,001,2022-04-28_14h29.58.885,SPAMnetsValid,2021.1.4,Win32,59.672992,,,,,,,,,,,,,,,,,,,,,,,,,,,,,,,,,,,,,,,,,,,,,,,,,,,,,,,,,,,,,,,,,pigeon,Animals,14,0,14,0,1,,,,,,,,,,,,,,,,,,
,,,,,,,,,,,,,,,89575,001,2022-04-28_14h29.58.885,SPAMnetsValid,2021.1.4,Win32,59.672992,,,,,,,,,,,,,,,,,,,,,,,,,,,,,,,,,,,,,,,,,,,,,,,,,,,,,,,,,,,,,,,,,rat,Animals,15,0,15,0,1,,,,,,,,,,,,,,,,,,
,,,,,,,,,,,,,,,89575,001,2022-04-28_14h29.58.885,SPAMnetsValid,2021.1.4,Win32,59.672992,,,,,,,,,,,,,,,,,,,,,,,,,,,,,,,,,,,,,,,,,,,,,,,,,,,,,,,,,,,,,,,,,mouse,Animals,16,0,16,0,1,,,,,,,,,,,,,,,,,,
,,,,,,,,,,,,,,,89575,001,2022-04-28_14h29.58.885,SPAMnetsValid,2021.1.4,Win32,59.672992,,,,,,,,,,,,,,,,,,,,,,,,,,,,,,,,,,,,,,,,,,,,,,,,,,,,,,,,,,,,,,,,,beaver,Animals,17,0,17,0,1,,,,,,,,,,,,,,,,,,
,,,,,,,,,,,,,,,89575,001,2022-04-28_14h29.58.885,SPAMnetsValid,2021.1.4,Win32,59.672992,,,,,,,,,,,,,,,,,,,,,,,,,,,,,,,,,,,,,,,,,,,,,,,,,,,,,,,,,,,,,,,,,lion,Animals,18,0,18,0,1,,,,,,,,,,,,,,,,,,
,,,,,,,,,,,,,,,89575,001,2022-04-28_14h29.58.885,SPAMnetsValid,2021.1.4,Win32,59.672992,,,,,,,,,,,,,,,,,,,,,,,,,,,,,,,,,,,,,,,,,,,,,,,,,,,,,,,,,,,,,,,,,tiger,Animals,19,0,19,0,1,,,,,,,,,,,,,,,,,,
,,,,,,,,,,,,,,,89575,001,2022-04-28_14h29.58.885,SPAMnetsValid,2021.1.4,Win32,59.672992,,,,,,,,,,,,,,,,,,,,,,,,,,,,,,,,,,,,,,,,,,,,,,,,,,,,,,,,,,,,,,,,,puma,Animals,20,0,20,0,1,,,,,,,,,,,,,,,,,,
,,,,,,,,,,,,,,,89575,001,2022-04-28_14h29.58.885,SPAMnetsValid,2021.1.4,Win32,59.672992,,,,,,,,,,,,,,,,,,,,,,,,,,,,,,,,,,,,,,,,,,,,,,,,,,,,,,,,,,,,,,,,,cheetah,Animals,21,0,21,0,1,,,,,,,,,,,,,,,,,,
,,,,,,,,,,,,,,,89575,001,2022-04-28_14h29.58.885,SPAMnetsValid,2021.1.4,Win32,59.672992,,,,,,,,,,,,,,,,,,,,,,,,,,,,,,,,,,,,,,,,,,,,,,,,,,,,,,,,,,,,,,,,,hyena,Animals,22,0,22,0,1,,,,,,,,,,,,,,,,,,
,,,,,,,,,,,,,,,89575,001,2022-04-28_14h29.58.885,SPAMnetsValid,2021.1.4,Win32,59.672992,,,,,,,,,,,,,,,,,,,,,,,,,,,,,,,,,,,,,,,,,,,,,,,,,,,,,,,,,,,,,,,,,buffalo,Animals,23,0,23,0,1,,,,,,,,,,,,,,,,,,
,,,,,,,,,,,,,,,89575,001,2022-04-28_14h29.58.885,SPAMnetsValid,2021.1.4,Win32,59.672992,,,,,,,,,,,,,,,,,,,,,,,,,,,,,,,,,,,,,,,,,,,,,,,,,,,,,,,,,,,,,,,,,horse,Animals,24,0,24,0,1,,,,,,,,,,,,,,,,,,
,,,,,,,,,,,,,,,89575,001,2022-04-28_14h29.58.885,SPAMnetsValid,2021.1.4,Win32,59.672992,,,,,,,,,,,,,,,,,,,,,,,,,,,,,,,,,,,,,,,,,,,,,,,,,,,,,,,,,,,,,,,,,pony,Animals,25,0,25,0,1,,,,,,,,,,,,,,,,,,
,,,,,,,,,,,,,,,89575,001,2022-04-28_14h29.58.885,SPAMnetsValid,2021.1.4,Win32,59.672992,,,,,,,,,,,,,,,,,,,,,,,,,,,,,,,,,,,,,,,,,,,,,,,,,,,,,,,,,,,,,,,,,donkey,Animals,26,0,26,0,1,,,,,,,,,,,,,,,,,,
,,,,,,,,,,,,,,,89575,001,2022-04-28_14h29.58.885,SPAMnetsValid,2021.1.4,Win32,59.672992,,,,,,,,,,,,,,,,,,,,,,,,,,,,,,,,,,,,,,,,,,,,,,,,,,,,,,,,,,,,,,,,,turkey,Animals,27,0,27,0,1,,,,,,,,,,,,,,,,,,
,,,,,,,,,,,,,,,89575,001,2022-04-28_14h29.58.885,SPAMnetsValid,2021.1.4,Win32,59.672992,,,,,,,,,,,,,,,,,,,,,,,,,,,,,,,,,,,,,,,,,,,,,,,,,,,,,,,,,,,,,,,,,chicken,Animals,28,0,28,0,1,,,,,,,,,,,,,,,,,,
,,,,,,,,,,,,,,,89575,001,2022-04-28_14h29.58.885,SPAMnetsValid,2021.1.4,Win32,59.672992,,,,,,,,,,,,,,,,,,,,,,,,,,,,,,,,,,,,,,,,,,,,,,,,,,,,,,,,,,,,,,,,,salmon,Animals,29,0,29,0,1,,,,,,,,,,,,,,,,,,
,,,,,,,,,,,,,,,89575,001,2022-04-28_14h29.58.885,SPAMnetsValid,2021.1.4,Win32,59.672992,,,,,,,,,,,,,,,,,,,,,,,,,,,,,,,,,,,,,,,,,,,,,,,,,,,,,,,,,,,,,,,,,grouper,Animals,30,0,30,0,1,,,,,,,,,,,,,,,,,,
,,,,,,,,,,,,,,,89575,001,2022-04-28_14h29.58.885,SPAMnetsValid,2021.1.4,Win32,59.672992,,,,,,,,,,,,,,,,,,,,,,,,,,,,,,,,,,,,,,,,,,,,,,,,,,,,,,,,,,,,,,,,,hallibut,Animals,31,0,31,0,1,,,,,,,,,,,,,,,,,,
,,,,,,,,,,,,,,,89575,001,2022-04-28_14h29.58.885,SPAMnetsValid,2021.1.4,Win32,59.672992,,,,,,,,,,,,,,,,,,,,,,,,,,,,,,,,,,,,,,,,,,,,,,,,,,,,,,,,,,,,,,,,,duck,Animals,32,0,32,0,1,,,,,,,,,,,,,,,,,,
,,,,,,,,,,,,,,,89575,001,2022-04-28_14h29.58.885,SPAMnetsValid,2021.1.4,Win32,59.672992,,,,,,,,,,,,,,,,,,,,,,,,,,,,,,,,,,,,,,,,,,,,,,,,,,,,,,,,,,,,,,,,,elk,Animals,33,0,33,0,1,,,,,,,,,,,,,,,,,,
,,,,,,,,,,,,,,,89575,001,2022-04-28_14h29.58.885,SPAMnetsValid,2021.1.4,Win32,59.672992,,,,,,,,,,,,,,,,,,,,,,,,,,,,,,,,,,,,,,,,,,,,,,,,,,,,,,,,,,,,,,,,,deer,Animals,34,0,34,0,1,,,,,,,,,,,,,,,,,,
,,,,,,,,,,,,,,,89575,001,2022-04-28_14h29.58.885,SPAMnetsValid,2021.1.4,Win32,59.672992,,,,,,,,,,,,,,,,,,,,,,,,,,,,,,,,,,,,,,,,,,,,,,,,,,,,,,,,,,,,,,,,,rabbit,Animals,35,0,35,0,1,,,,,,,,,,,,,,,,,,
,,,,,,,,,,,,,,,89575,001,2022-04-28_14h29.58.885,SPAMnetsValid,2021.1.4,Win32,59.672992,,,,,,,,,,,,,,,,,,,,,,,,,,,,,,,,,,,,,,,,,,,,,,,,,,,,,,,,,,,,,,,,,boar,Animals,36,0,36,0,1,,,,,,,,,,,,,,,,,,
,,,,,,,,,,,,,,,89575,001,2022-04-28_14h29.58.885,SPAMnetsValid,2021.1.4,Win32,59.672992,,,,,,,,,,,,,,,,,,,,,,,,,,,,,,,,,,,,,,,,,,,,,,,,,,,,,,,,,,,,,,,,,pig,Animals,37,0,37,0,1,,,,,,,,,,,,,,,,,,
,,,,,,,,,,,,,,,89575,001,2022-04-28_14h29.58.885,SPAMnetsValid,2021.1.4,Win32,59.672992,,,,,,,,,,,,,,,,,,,,,,,,,,,,,,,,,,,,,,,,,,,,,,,,,,,,,,,,,,,,,,,,,turtle,Animals,38,0,38,0,1,,,,,,,,,,,,,,,,,,
,,,,,,,,,,,,,,,89575,001,2022-04-28_14h29.58.885,SPAMnetsValid,2021.1.4,Win32,59.672992,,,,,,,,,,,,,,,,,,,,,,,,,,,,,,,,,,,,,,,,,,,,,,,,,,,,,,,,,,,,,,,,,dolphin,Animals,39,0,39,0,1,,,,,,,,,,,,,,,,,,
,,,,,,,,,,,,,,,89575,001,2022-04-28_14h29.58.885,SPAMnetsValid,2021.1.4,Win32,59.672992,,,,,,,,,,,,,,,,,,,,,,,,,,,,,,,,,,,,,,,,,,,,,,,,,,,,,,,,,,,,,,,,,blue whale,Animals,40,0,40,0,1,,,,,,,,,,,,,,,,,,
,,,,,,,,,,,,,,,89575,001,2022-04-28_14h29.58.885,SPAMnetsValid,2021.1.4,Win32,59.672992,,,,,,,,,,,,,,,,,,,,,,,,,,,,,,,,,,,,,,,,,,,,,,,,,,,,,,,,,,,,,,,,,hammerhead shark,Animals,41,0,41,0,1,,,,,,,,,,,,,,,,,,
,,,,,,,,,,,,,,,89575,001,2022-04-28_14h29.58.885,SPAMnetsValid,2021.1.4,Win32,59.672992,,,,,,,,,,,,,,,,,,,,,,,,,,,,,,,,,,,,,,,,,,,,,,,,,,,,,,,,,,,,,,,,,,,,,,,,0,0,0,0,1,Animals,,,,,,,,,,,,
,,,,,,,,,,,,,,,89575,001,2022-04-28_14h29.58.885,SPAMnetsValid,2021.1.4,Win32,59.672992,,,,,,,,,,,,,,,,,,,,,,,,,,,,,,,,,,,,,,,,,,,,,,,,,,,,,,,,,,,,,,,,,,,,,,,,,,,,,,5,3.813,0,0,0,0,1,"I enjoy concentrating on a fantasy or daydream and exploring all its possibilities, letting it grow and develop.",0,1,,
,,,,,,,,,,,,,,,89575,001,2022-04-28_14h29.58.885,SPAMnetsValid,2021.1.4,Win32,59.672992,,,,,,,,,,,,,,,,,,,,,,,,,,,,,,,,,,,,,,,,,,,,,,,,,,,,,,,,,,,,,,,,,,,,,,,,,,,,,,4,1.8714,0,1,1,1,1,I think it's interesting to learn and develop new hobbies.,0,2,,
,,,,,,,,,,,,,,,89575,001,2022-04-28_14h29.58.885,SPAMnetsValid,2021.1.4,Win32,59.672992,,,,,,,,,,,,,,,,,,,,,,,,,,,,,,,,,,,,,,,,,,,,,,,,,,,,,,,,,,,,,,,,,,,,,,,,,,,,,,3,2.9188,0,2,2,2,1,I am intrigued by the patterns I find in art and nature.,0,3,,
,,,,,,,,,,,,,,,89575,001,2022-04-28_14h29.58.885,SPAMnetsValid,2021.1.4,Win32,59.672992,,,,,,,,,,,,,,,,,,,,,,,,,,,,,,,,,,,,,,,,,,,,,,,,,,,,,,,,,,,,,,,,,,,,,,,,,,,,,,1,3.7405,0,3,3,3,1,I believe letting students hear controversial speakers can only confuse and mislead them.,1,4,,
,,,,,,,,,,,,,,,89575,001,2022-04-28_14h29.58.885,SPAMnetsValid,2021.1.4,Win32,59.672992,,,,,,,,,,,,,,,,,,,,,,,,,,,,,,,,,,,,,,,,,,,,,,,,,,,,,,,,,,,,,,,,,,,,,,,,,,,,,,4,3.1554,0,4,4,4,1,Poetry has little or no effect on me.,1,5,,
,,,,,,,,,,,,,,,89575,001,2022-04-28_14h29.58.885,SPAMnetsValid,2021.1.4,Win32,59.672992,,,,,,,,,,,,,,,,,,,,,,,,,,,,,,,,,,,,,,,,,,,,,,,,,,,,,,,,,,,,,,,,,,,,,,,,,,,,,,2,4.6757,0,5,5,5,1,I would have difficulty just letting my mind wander without control or guidance.,1,6,,
,,,,,,,,,,,,,,,89575,001,2022-04-28_14h29.58.885,SPAMnetsValid,2021.1.4,Win32,59.672992,,,,,,,,,,,,,,,,,,,,,,,,,,,,,,,,,,,,,,,,,,,,,,,,,,,,,,,,,,,,,,,,,,,,,,,,,,,,,,1,3.3322,0,6,6,6,1,I seldom notice the moods or feelings that different environments produce.,1,7,,
,,,,,,,,,,,,,,,89575,001,2022-04-28_14h29.58.885,SPAMnetsValid,2021.1.4,Win32,59.672992,,,,,,,,,,,,,,,,,,,,,,,,,,,,,,,,,,,,,,,,,,,,,,,,,,,,,,,,,,,,,,,,,,,,,,,,,,,,,,5,2.2576,0,7,7,7,1,I experience a wide range of emotions or feelings.,0,8,,
,,,,,,,,,,,,,,,89575,001,2022-04-28_14h29.58.885,SPAMnetsValid,2021.1.4,Win32,59.672992,,,,,,,,,,,,,,,,,,,,,,,,,,,,,,,,,,,,,,,,,,,,,,,,,,,,,,,,,,,,,,,,,,,,,,,,,,,,,,3,3.6327,0,8,8,8,1,"Sometimes when I am reading poetry or looking at a work of art, I feel a chill or wave of excitement.",0,9,,
,,,,,,,,,,,,,,,89575,001,2022-04-28_14h29.58.885,SPAMnetsValid,2021.1.4,Win32,59.672992,,,,,,,,,,,,,,,,,,,,,,,,,,,,,,,,,,,,,,,,,,,,,,,,,,,,,,,,,,,,,,,,,,,,,,,,,,,,,,3,2.9529,0,9,9,9,1,I have little interest in speculating on the nature of the universe or the human condition.,1,10,,
,,,,,,,,,,,,,,,89575,001,2022-04-28_14h29.58.885,SPAMnetsValid,2021.1.4,Win32,59.672992,,,,,,,,,,,,,,,,,,,,,,,,,,,,,,,,,,,,,,,,,,,,,,,,,,,,,,,,,,,,,,,,,,,,,,,,,,,,,,3,1.333,0,10,10,10,1,I have a lot of intellectual curiosity.,0,11,,
,,,,,,,,,,,,,,,89575,001,2022-04-28_14h29.58.885,SPAMnetsValid,2021.1.4,Win32,59.672992,,,,,,,,,,,,,,,,,,,,,,,,,,,,,,,,,,,,,,,,,,,,,,,,,,,,,,,,,,,,,,,,,,,,,,,,,,,,,,3,2.1384,0,11,11,11,1,I often enjoy playing with theories or abstract ideas.,0,12,,
,,,,,,,,,,,,,,,89575,001,2022-04-28_14h29.58.885,SPAMnetsValid,2021.1.4,Win32,59.672992,,,,,,,,,,,,,,,,,,,,,,,,,,,,,,,,,,,,,,,,,,,,,,,,,,,,,,,,,,,,,,,,,,,,,,,,,,,,,,,,,,,,,,,,return,10.7864
