key_resp_3.keys,key_resp_3.rt,slider.response,slider.rt,rjt_rating,rjt_RT,trials_22.thisRepN,trials_22.thisTrialN,trials_22.thisN,trials_22.thisIndex,trials_22.ran,rjt_order,word1,word2,attention,participant,session,date,expName,psychopyVersion,OS,frameRate,trials_99.thisRepN,trials_99.thisTrialN,trials_99.thisN,trials_99.thisIndex,trials_99.ran,trials_5.thisRepN,trials_5.thisTrialN,trials_5.thisN,trials_5.thisIndex,trials_5.ran,repOne,repTwo,slider_2.response,slider_2.rt,trials_24.thisRepN,trials_24.thisTrialN,trials_24.thisN,trials_24.thisIndex,trials_24.ran,trials_4.thisRepN,trials_4.thisTrialN,trials_4.thisN,trials_4.thisIndex,trials_4.ran,slider_extend_2.response,slider_extend_2.rt,trials_6.thisRepN,trials_6.thisTrialN,trials_6.thisN,trials_6.thisIndex,trials_6.ran,vCue2,R1,R2,R3,R4,correct,sliderVocab.response,sliderVocab.rt,trials_7.thisRepN,trials_7.thisTrialN,trials_7.thisN,trials_7.thisIndex,trials_7.ran,VocabCue,VR1,VR2,VR3,VR4,VR5,VocabCorrect,AUT_resp,AUT_label,trials.thisRepN,trials.thisTrialN,trials.thisN,trials.thisIndex,trials.ran,trials_2.thisRepN,trials_2.thisTrialN,trials_2.thisN,trials_2.thisIndex,trials_2.ran,aut_prompt,VF_response,VF_tag,trials_16.thisRepN,trials_16.thisTrialN,trials_16.thisN,trials_16.thisIndex,trials_16.ran,trials_17.thisRepN,trials_17.thisTrialN,trials_17.thisN,trials_17.thisIndex,trials_17.ran,VFcond,open_slider.response,open_slider.rt,trials_3.thisRepN,trials_3.thisTrialN,trials_3.thisN,trials_3.thisIndex,trials_3.ran,OpenQ,Rev,OPEN_ORDER,key_resp_2.keys,key_resp_2.rt
return,39.463,2,4.301,2,4.301,0,0,0,22,1,16,chocolate,flower,,89579,001,2022-04-25_16h19.54.787,SPAMnetsValid,2021.1.4,MacIntel,57.14285714,,,,,,,,,,,,,,,,,,,,,,,,,,,,,,,,,,,,,,,,,,,,,,,,,,,,,,,,,,,,,,,,,,,,,,,,,,,,,,,,,,,,,,,,,
,,6,5.513,6,5.513,0,1,1,67,1,54,chocolate,yogurt,,89579,001,2022-04-25_16h19.54.787,SPAMnetsValid,2021.1.4,MacIntel,57.14285714,,,,,,,,,,,,,,,,,,,,,,,,,,,,,,,,,,,,,,,,,,,,,,,,,,,,,,,,,,,,,,,,,,,,,,,,,,,,,,,,,,,,,,,,,
,,2,7.029,2,7.029,0,2,2,56,1,78,cookie,rose,,89579,001,2022-04-25_16h19.54.787,SPAMnetsValid,2021.1.4,MacIntel,57.14285714,,,,,,,,,,,,,,,,,,,,,,,,,,,,,,,,,,,,,,,,,,,,,,,,,,,,,,,,,,,,,,,,,,,,,,,,,,,,,,,,,,,,,,,,,
,,1,2.579,1,2.579,0,3,3,13,1,26,tomato,yogurt,,89579,001,2022-04-25_16h19.54.787,SPAMnetsValid,2021.1.4,MacIntel,57.14285714,,,,,,,,,,,,,,,,,,,,,,,,,,,,,,,,,,,,,,,,,,,,,,,,,,,,,,,,,,,,,,,,,,,,,,,,,,,,,,,,,,,,,,,,,
,,2,34.497,2,34.497,0,4,4,49,1,57,flower,kitchen,,89579,001,2022-04-25_16h19.54.787,SPAMnetsValid,2021.1.4,MacIntel,57.14285714,,,,,,,,,,,,,,,,,,,,,,,,,,,,,,,,,,,,,,,,,,,,,,,,,,,,,,,,,,,,,,,,,,,,,,,,,,,,,,,,,,,,,,,,,
,,1,12.643,1,12.643,0,5,5,37,1,58,garden,oven,,89579,001,2022-04-25_16h19.54.787,SPAMnetsValid,2021.1.4,MacIntel,57.14285714,,,,,,,,,,,,,,,,,,,,,,,,,,,,,,,,,,,,,,,,,,,,,,,,,,,,,,,,,,,,,,,,,,,,,,,,,,,,,,,,,,,,,,,,,
,,2,1.964,2,1.964,0,6,6,18,1,85,cake,tree,,89579,001,2022-04-25_16h19.54.787,SPAMnetsValid,2021.1.4,MacIntel,57.14285714,,,,,,,,,,,,,,,,,,,,,,,,,,,,,,,,,,,,,,,,,,,,,,,,,,,,,,,,,,,,,,,,,,,,,,,,,,,,,,,,,,,,,,,,,
,,3,2.146,3,2.146,0,7,7,23,1,65,broom,garden,,89579,001,2022-04-25_16h19.54.787,SPAMnetsValid,2021.1.4,MacIntel,57.14285714,,,,,,,,,,,,,,,,,,,,,,,,,,,,,,,,,,,,,,,,,,,,,,,,,,,,,,,,,,,,,,,,,,,,,,,,,,,,,,,,,,,,,,,,,
,,9,2.863,9,2.863,0,8,8,54,1,28,cake,melon,,89579,001,2022-04-25_16h19.54.787,SPAMnetsValid,2021.1.4,MacIntel,57.14285714,,,,,,,,,,,,,,,,,,,,,,,,,,,,,,,,,,,,,,,,,,,,,,,,,,,,,,,,,,,,,,,,,,,,,,,,,,,,,,,,,,,,,,,,,
,,9,2.579,9,2.579,0,9,9,21,1,56,cactus,tree,,89579,001,2022-04-25_16h19.54.787,SPAMnetsValid,2021.1.4,MacIntel,57.14285714,,,,,,,,,,,,,,,,,,,,,,,,,,,,,,,,,,,,,,,,,,,,,,,,,,,,,,,,,,,,,,,,,,,,,,,,,,,,,,,,,,,,,,,,,
,,1,2.21,1,2.21,0,10,10,61,1,71,broom,rose,,89579,001,2022-04-25_16h19.54.787,SPAMnetsValid,2021.1.4,MacIntel,57.14285714,,,,,,,,,,,,,,,,,,,,,,,,,,,,,,,,,,,,,,,,,,,,,,,,,,,,,,,,,,,,,,,,,,,,,,,,,,,,,,,,,,,,,,,,,
,,9,2.479,9,2.479,0,11,11,44,1,25,carrot,onion,,89579,001,2022-04-25_16h19.54.787,SPAMnetsValid,2021.1.4,MacIntel,57.14285714,,,,,,,,,,,,,,,,,,,,,,,,,,,,,,,,,,,,,,,,,,,,,,,,,,,,,,,,,,,,,,,,,,,,,,,,,,,,,,,,,,,,,,,,,
,,1,2.528,1,2.528,0,12,12,74,1,70,chocolate,onion,,89579,001,2022-04-25_16h19.54.787,SPAMnetsValid,2021.1.4,MacIntel,57.14285714,,,,,,,,,,,,,,,,,,,,,,,,,,,,,,,,,,,,,,,,,,,,,,,,,,,,,,,,,,,,,,,,,,,,,,,,,,,,,,,,,,,,,,,,,
,,9,2.324,9,2.324,0,13,13,93,1,63,cake,cookie,,89579,001,2022-04-25_16h19.54.787,SPAMnetsValid,2021.1.4,MacIntel,57.14285714,,,,,,,,,,,,,,,,,,,,,,,,,,,,,,,,,,,,,,,,,,,,,,,,,,,,,,,,,,,,,,,,,,,,,,,,,,,,,,,,,,,,,,,,,
,,9,1.962,9,1.962,0,14,14,87,1,79,garden,strawberry,,89579,001,2022-04-25_16h19.54.787,SPAMnetsValid,2021.1.4,MacIntel,57.14285714,,,,,,,,,,,,,,,,,,,,,,,,,,,,,,,,,,,,,,,,,,,,,,,,,,,,,,,,,,,,,,,,,,,,,,,,,,,,,,,,,,,,,,,,,
,,1,3.631,1,3.631,0,15,15,1,1,31,cactus,pretzel,,89579,001,2022-04-25_16h19.54.787,SPAMnetsValid,2021.1.4,MacIntel,57.14285714,,,,,,,,,,,,,,,,,,,,,,,,,,,,,,,,,,,,,,,,,,,,,,,,,,,,,,,,,,,,,,,,,,,,,,,,,,,,,,,,,,,,,,,,,
,,9,2.026,9,2.026,0,16,16,28,1,84,oven,tomato,,89579,001,2022-04-25_16h19.54.787,SPAMnetsValid,2021.1.4,MacIntel,57.14285714,,,,,,,,,,,,,,,,,,,,,,,,,,,,,,,,,,,,,,,,,,,,,,,,,,,,,,,,,,,,,,,,,,,,,,,,,,,,,,,,,,,,,,,,,
,,9,1.946,9,1.946,0,17,17,91,1,2,kitchen,onion,,89579,001,2022-04-25_16h19.54.787,SPAMnetsValid,2021.1.4,MacIntel,57.14285714,,,,,,,,,,,,,,,,,,,,,,,,,,,,,,,,,,,,,,,,,,,,,,,,,,,,,,,,,,,,,,,,,,,,,,,,,,,,,,,,,,,,,,,,,
,,9,4.013,9,4.013,0,18,18,90,1,95,broom,refrigerator,,89579,001,2022-04-25_16h19.54.787,SPAMnetsValid,2021.1.4,MacIntel,57.14285714,,,,,,,,,,,,,,,,,,,,,,,,,,,,,,,,,,,,,,,,,,,,,,,,,,,,,,,,,,,,,,,,,,,,,,,,,,,,,,,,,,,,,,,,,
,,9,2.039,9,2.039,0,19,19,80,1,61,strawberry,tomato,,89579,001,2022-04-25_16h19.54.787,SPAMnetsValid,2021.1.4,MacIntel,57.14285714,,,,,,,,,,,,,,,,,,,,,,,,,,,,,,,,,,,,,,,,,,,,,,,,,,,,,,,,,,,,,,,,,,,,,,,,,,,,,,,,,,,,,,,,,
,,7,5.047,7,5.047,0,20,20,81,1,60,cactus,onion,,89579,001,2022-04-25_16h19.54.787,SPAMnetsValid,2021.1.4,MacIntel,57.14285714,,,,,,,,,,,,,,,,,,,,,,,,,,,,,,,,,,,,,,,,,,,,,,,,,,,,,,,,,,,,,,,,,,,,,,,,,,,,,,,,,,,,,,,,,
,,9,2.896,9,2.896,0,21,21,95,1,52,carrot,tomato,,89579,001,2022-04-25_16h19.54.787,SPAMnetsValid,2021.1.4,MacIntel,57.14285714,,,,,,,,,,,,,,,,,,,,,,,,,,,,,,,,,,,,,,,,,,,,,,,,,,,,,,,,,,,,,,,,,,,,,,,,,,,,,,,,,,,,,,,,,
,,9,4.841,9,4.841,0,22,22,11,1,37,garden,refrigerator,,89579,001,2022-04-25_16h19.54.787,SPAMnetsValid,2021.1.4,MacIntel,57.14285714,,,,,,,,,,,,,,,,,,,,,,,,,,,,,,,,,,,,,,,,,,,,,,,,,,,,,,,,,,,,,,,,,,,,,,,,,,,,,,,,,,,,,,,,,
,,2,4.73,2,4.73,0,23,23,47,1,73,broom,chocolate,,89579,001,2022-04-25_16h19.54.787,SPAMnetsValid,2021.1.4,MacIntel,57.14285714,,,,,,,,,,,,,,,,,,,,,,,,,,,,,,,,,,,,,,,,,,,,,,,,,,,,,,,,,,,,,,,,,,,,,,,,,,,,,,,,,,,,,,,,,
,,7,2.03,7,2.03,0,24,24,6,1,87,carrot,yogurt,,89579,001,2022-04-25_16h19.54.787,SPAMnetsValid,2021.1.4,MacIntel,57.14285714,,,,,,,,,,,,,,,,,,,,,,,,,,,,,,,,,,,,,,,,,,,,,,,,,,,,,,,,,,,,,,,,,,,,,,,,,,,,,,,,,,,,,,,,,
,,2,2.63,2,2.63,0,25,25,55,1,1,rose,yogurt,,89579,001,2022-04-25_16h19.54.787,SPAMnetsValid,2021.1.4,MacIntel,57.14285714,,,,,,,,,,,,,,,,,,,,,,,,,,,,,,,,,,,,,,,,,,,,,,,,,,,,,,,,,,,,,,,,,,,,,,,,,,,,,,,,,,,,,,,,,
,,9,2.361,9,2.361,0,26,26,82,1,93,kitchen,oven,,89579,001,2022-04-25_16h19.54.787,SPAMnetsValid,2021.1.4,MacIntel,57.14285714,,,,,,,,,,,,,,,,,,,,,,,,,,,,,,,,,,,,,,,,,,,,,,,,,,,,,,,,,,,,,,,,,,,,,,,,,,,,,,,,,,,,,,,,,
,,9,1.912,9,1.912,0,27,27,58,1,94,kitchen,microwave,,89579,001,2022-04-25_16h19.54.787,SPAMnetsValid,2021.1.4,MacIntel,57.14285714,,,,,,,,,,,,,,,,,,,,,,,,,,,,,,,,,,,,,,,,,,,,,,,,,,,,,,,,,,,,,,,,,,,,,,,,,,,,,,,,,,,,,,,,,
,,1,1.893,1,1.893,0,28,28,4,1,83,broom,carrot,,89579,001,2022-04-25_16h19.54.787,SPAMnetsValid,2021.1.4,MacIntel,57.14285714,,,,,,,,,,,,,,,,,,,,,,,,,,,,,,,,,,,,,,,,,,,,,,,,,,,,,,,,,,,,,,,,,,,,,,,,,,,,,,,,,,,,,,,,,
,,1,1.747,1,1.747,0,29,29,5,1,13,broom,yogurt,,89579,001,2022-04-25_16h19.54.787,SPAMnetsValid,2021.1.4,MacIntel,57.14285714,,,,,,,,,,,,,,,,,,,,,,,,,,,,,,,,,,,,,,,,,,,,,,,,,,,,,,,,,,,,,,,,,,,,,,,,,,,,,,,,,,,,,,,,,
,,1,1.775,1,1.775,0,30,30,65,1,46,garden,yogurt,,89579,001,2022-04-25_16h19.54.787,SPAMnetsValid,2021.1.4,MacIntel,57.14285714,,,,,,,,,,,,,,,,,,,,,,,,,,,,,,,,,,,,,,,,,,,,,,,,,,,,,,,,,,,,,,,,,,,,,,,,,,,,,,,,,,,,,,,,,
,,9,3.344,9,3.344,0,31,31,31,1,33,oven,yogurt,,89579,001,2022-04-25_16h19.54.787,SPAMnetsValid,2021.1.4,MacIntel,57.14285714,,,,,,,,,,,,,,,,,,,,,,,,,,,,,,,,,,,,,,,,,,,,,,,,,,,,,,,,,,,,,,,,,,,,,,,,,,,,,,,,,,,,,,,,,
,,1,2.08,1,2.08,0,32,32,15,1,48,flower,oven,,89579,001,2022-04-25_16h19.54.787,SPAMnetsValid,2021.1.4,MacIntel,57.14285714,,,,,,,,,,,,,,,,,,,,,,,,,,,,,,,,,,,,,,,,,,,,,,,,,,,,,,,,,,,,,,,,,,,,,,,,,,,,,,,,,,,,,,,,,
,,6,2.412,6,2.412,0,33,33,41,1,19,microwave,pretzel,,89579,001,2022-04-25_16h19.54.787,SPAMnetsValid,2021.1.4,MacIntel,57.14285714,,,,,,,,,,,,,,,,,,,,,,,,,,,,,,,,,,,,,,,,,,,,,,,,,,,,,,,,,,,,,,,,,,,,,,,,,,,,,,,,,,,,,,,,,
,,7,3.646,7,3.646,0,34,34,20,1,39,melon,pretzel,,89579,001,2022-04-25_16h19.54.787,SPAMnetsValid,2021.1.4,MacIntel,57.14285714,,,,,,,,,,,,,,,,,,,,,,,,,,,,,,,,,,,,,,,,,,,,,,,,,,,,,,,,,,,,,,,,,,,,,,,,,,,,,,,,,,,,,,,,,
,,9,2.033,9,2.033,0,35,35,53,1,192,microwave,microwave,CHECK,89579,001,2022-04-25_16h19.54.787,SPAMnetsValid,2021.1.4,MacIntel,57.14285714,,,,,,,,,,,,,,,,,,,,,,,,,,,,,,,,,,,,,,,,,,,,,,,,,,,,,,,,,,,,,,,,,,,,,,,,,,,,,,,,,,,,,,,,,
,,9,2.382,9,2.382,0,36,36,2,1,22,kitchen,strawberry,,89579,001,2022-04-25_16h19.54.787,SPAMnetsValid,2021.1.4,MacIntel,57.14285714,,,,,,,,,,,,,,,,,,,,,,,,,,,,,,,,,,,,,,,,,,,,,,,,,,,,,,,,,,,,,,,,,,,,,,,,,,,,,,,,,,,,,,,,,
,,6,2.995,6,2.995,0,37,37,9,1,75,cookie,onion,,89579,001,2022-04-25_16h19.54.787,SPAMnetsValid,2021.1.4,MacIntel,57.14285714,,,,,,,,,,,,,,,,,,,,,,,,,,,,,,,,,,,,,,,,,,,,,,,,,,,,,,,,,,,,,,,,,,,,,,,,,,,,,,,,,,,,,,,,,
,,9,3.363,9,3.363,0,38,38,43,1,11,refrigerator,tree,,89579,001,2022-04-25_16h19.54.787,SPAMnetsValid,2021.1.4,MacIntel,57.14285714,,,,,,,,,,,,,,,,,,,,,,,,,,,,,,,,,,,,,,,,,,,,,,,,,,,,,,,,,,,,,,,,,,,,,,,,,,,,,,,,,,,,,,,,,
,,9,2.145,9,2.145,0,39,39,62,1,18,onion,refrigerator,,89579,001,2022-04-25_16h19.54.787,SPAMnetsValid,2021.1.4,MacIntel,57.14285714,,,,,,,,,,,,,,,,,,,,,,,,,,,,,,,,,,,,,,,,,,,,,,,,,,,,,,,,,,,,,,,,,,,,,,,,,,,,,,,,,,,,,,,,,
,,6,34.896,6,34.896,0,40,40,34,1,29,chocolate,melon,,89579,001,2022-04-25_16h19.54.787,SPAMnetsValid,2021.1.4,MacIntel,57.14285714,,,,,,,,,,,,,,,,,,,,,,,,,,,,,,,,,,,,,,,,,,,,,,,,,,,,,,,,,,,,,,,,,,,,,,,,,,,,,,,,,,,,,,,,,
,,9,1.728,9,1.728,0,41,41,64,1,9,kitchen,refrigerator,,89579,001,2022-04-25_16h19.54.787,SPAMnetsValid,2021.1.4,MacIntel,57.14285714,,,,,,,,,,,,,,,,,,,,,,,,,,,,,,,,,,,,,,,,,,,,,,,,,,,,,,,,,,,,,,,,,,,,,,,,,,,,,,,,,,,,,,,,,
,,7,3.127,7,3.127,0,42,42,73,1,50,carrot,rose,,89579,001,2022-04-25_16h19.54.787,SPAMnetsValid,2021.1.4,MacIntel,57.14285714,,,,,,,,,,,,,,,,,,,,,,,,,,,,,,,,,,,,,,,,,,,,,,,,,,,,,,,,,,,,,,,,,,,,,,,,,,,,,,,,,,,,,,,,,
,,6,4.061,6,4.061,0,43,43,69,1,45,onion,pretzel,,89579,001,2022-04-25_16h19.54.787,SPAMnetsValid,2021.1.4,MacIntel,57.14285714,,,,,,,,,,,,,,,,,,,,,,,,,,,,,,,,,,,,,,,,,,,,,,,,,,,,,,,,,,,,,,,,,,,,,,,,,,,,,,,,,,,,,,,,,
,,7,4.312,7,4.312,0,44,44,70,1,5,oven,tree,,89579,001,2022-04-25_16h19.54.787,SPAMnetsValid,2021.1.4,MacIntel,57.14285714,,,,,,,,,,,,,,,,,,,,,,,,,,,,,,,,,,,,,,,,,,,,,,,,,,,,,,,,,,,,,,,,,,,,,,,,,,,,,,,,,,,,,,,,,
,,9,1.88,9,1.88,0,45,45,3,1,49,flower,strawberry,,89579,001,2022-04-25_16h19.54.787,SPAMnetsValid,2021.1.4,MacIntel,57.14285714,,,,,,,,,,,,,,,,,,,,,,,,,,,,,,,,,,,,,,,,,,,,,,,,,,,,,,,,,,,,,,,,,,,,,,,,,,,,,,,,,,,,,,,,,
,,8,9.179,8,9.179,0,46,46,77,1,7,melon,tree,,89579,001,2022-04-25_16h19.54.787,SPAMnetsValid,2021.1.4,MacIntel,57.14285714,,,,,,,,,,,,,,,,,,,,,,,,,,,,,,,,,,,,,,,,,,,,,,,,,,,,,,,,,,,,,,,,,,,,,,,,,,,,,,,,,,,,,,,,,
,,9,2.095,9,2.095,0,47,47,94,1,68,flower,tomato,,89579,001,2022-04-25_16h19.54.787,SPAMnetsValid,2021.1.4,MacIntel,57.14285714,,,,,,,,,,,,,,,,,,,,,,,,,,,,,,,,,,,,,,,,,,,,,,,,,,,,,,,,,,,,,,,,,,,,,,,,,,,,,,,,,,,,,,,,,
,,7,6.856,7,6.856,0,48,48,48,1,66,melon,yogurt,,89579,001,2022-04-25_16h19.54.787,SPAMnetsValid,2021.1.4,MacIntel,57.14285714,,,,,,,,,,,,,,,,,,,,,,,,,,,,,,,,,,,,,,,,,,,,,,,,,,,,,,,,,,,,,,,,,,,,,,,,,,,,,,,,,,,,,,,,,
,,9,3.163,9,3.163,0,49,49,86,1,51,onion,strawberry,,89579,001,2022-04-25_16h19.54.787,SPAMnetsValid,2021.1.4,MacIntel,57.14285714,,,,,,,,,,,,,,,,,,,,,,,,,,,,,,,,,,,,,,,,,,,,,,,,,,,,,,,,,,,,,,,,,,,,,,,,,,,,,,,,,,,,,,,,,
,,9,5.344,9,5.344,0,50,50,89,1,80,chocolate,tree,,89579,001,2022-04-25_16h19.54.787,SPAMnetsValid,2021.1.4,MacIntel,57.14285714,,,,,,,,,,,,,,,,,,,,,,,,,,,,,,,,,,,,,,,,,,,,,,,,,,,,,,,,,,,,,,,,,,,,,,,,,,,,,,,,,,,,,,,,,
,,9,2.727,9,2.727,0,51,51,42,1,77,refrigerator,yogurt,,89579,001,2022-04-25_16h19.54.787,SPAMnetsValid,2021.1.4,MacIntel,57.14285714,,,,,,,,,,,,,,,,,,,,,,,,,,,,,,,,,,,,,,,,,,,,,,,,,,,,,,,,,,,,,,,,,,,,,,,,,,,,,,,,,,,,,,,,,
,,3,14.011,3,14.011,0,52,52,59,1,8,broom,melon,,89579,001,2022-04-25_16h19.54.787,SPAMnetsValid,2021.1.4,MacIntel,57.14285714,,,,,,,,,,,,,,,,,,,,,,,,,,,,,,,,,,,,,,,,,,,,,,,,,,,,,,,,,,,,,,,,,,,,,,,,,,,,,,,,,,,,,,,,,
,,9,2.545,9,2.545,0,53,53,83,1,6,garden,onion,,89579,001,2022-04-25_16h19.54.787,SPAMnetsValid,2021.1.4,MacIntel,57.14285714,,,,,,,,,,,,,,,,,,,,,,,,,,,,,,,,,,,,,,,,,,,,,,,,,,,,,,,,,,,,,,,,,,,,,,,,,,,,,,,,,,,,,,,,,
,,7,3.96,7,3.96,0,54,54,33,1,32,cake,microwave,,89579,001,2022-04-25_16h19.54.787,SPAMnetsValid,2021.1.4,MacIntel,57.14285714,,,,,,,,,,,,,,,,,,,,,,,,,,,,,,,,,,,,,,,,,,,,,,,,,,,,,,,,,,,,,,,,,,,,,,,,,,,,,,,,,,,,,,,,,
,,7,5.861,7,5.861,0,55,55,52,1,4,chocolate,pretzel,,89579,001,2022-04-25_16h19.54.787,SPAMnetsValid,2021.1.4,MacIntel,57.14285714,,,,,,,,,,,,,,,,,,,,,,,,,,,,,,,,,,,,,,,,,,,,,,,,,,,,,,,,,,,,,,,,,,,,,,,,,,,,,,,,,,,,,,,,,
,,1,6.844,1,6.844,0,56,56,16,1,14,broom,cookie,,89579,001,2022-04-25_16h19.54.787,SPAMnetsValid,2021.1.4,MacIntel,57.14285714,,,,,,,,,,,,,,,,,,,,,,,,,,,,,,,,,,,,,,,,,,,,,,,,,,,,,,,,,,,,,,,,,,,,,,,,,,,,,,,,,,,,,,,,,
,,6,2.494,6,2.494,0,57,57,36,1,12,cookie,yogurt,,89579,001,2022-04-25_16h19.54.787,SPAMnetsValid,2021.1.4,MacIntel,57.14285714,,,,,,,,,,,,,,,,,,,,,,,,,,,,,,,,,,,,,,,,,,,,,,,,,,,,,,,,,,,,,,,,,,,,,,,,,,,,,,,,,,,,,,,,,
,,4,1.996,4,1.996,0,58,58,12,1,67,flower,yogurt,,89579,001,2022-04-25_16h19.54.787,SPAMnetsValid,2021.1.4,MacIntel,57.14285714,,,,,,,,,,,,,,,,,,,,,,,,,,,,,,,,,,,,,,,,,,,,,,,,,,,,,,,,,,,,,,,,,,,,,,,,,,,,,,,,,,,,,,,,,
,,9,2.128,9,2.128,0,59,59,72,1,59,rose,strawberry,,89579,001,2022-04-25_16h19.54.787,SPAMnetsValid,2021.1.4,MacIntel,57.14285714,,,,,,,,,,,,,,,,,,,,,,,,,,,,,,,,,,,,,,,,,,,,,,,,,,,,,,,,,,,,,,,,,,,,,,,,,,,,,,,,,,,,,,,,,
,,9,4.713,9,4.713,0,60,60,78,1,30,cookie,pretzel,,89579,001,2022-04-25_16h19.54.787,SPAMnetsValid,2021.1.4,MacIntel,57.14285714,,,,,,,,,,,,,,,,,,,,,,,,,,,,,,,,,,,,,,,,,,,,,,,,,,,,,,,,,,,,,,,,,,,,,,,,,,,,,,,,,,,,,,,,,
,,1,2.46,1,2.46,0,61,61,79,1,86,oven,rose,,89579,001,2022-04-25_16h19.54.787,SPAMnetsValid,2021.1.4,MacIntel,57.14285714,,,,,,,,,,,,,,,,,,,,,,,,,,,,,,,,,,,,,,,,,,,,,,,,,,,,,,,,,,,,,,,,,,,,,,,,,,,,,,,,,,,,,,,,,
,,9,2.142,9,2.142,0,62,62,51,1,47,onion,tomato,,89579,001,2022-04-25_16h19.54.787,SPAMnetsValid,2021.1.4,MacIntel,57.14285714,,,,,,,,,,,,,,,,,,,,,,,,,,,,,,,,,,,,,,,,,,,,,,,,,,,,,,,,,,,,,,,,,,,,,,,,,,,,,,,,,,,,,,,,,
,,1,4.546,1,4.546,0,63,63,88,1,92,broom,flower,,89579,001,2022-04-25_16h19.54.787,SPAMnetsValid,2021.1.4,MacIntel,57.14285714,,,,,,,,,,,,,,,,,,,,,,,,,,,,,,,,,,,,,,,,,,,,,,,,,,,,,,,,,,,,,,,,,,,,,,,,,,,,,,,,,,,,,,,,,
,,6,2.144,6,2.144,0,64,64,57,1,62,kitchen,rose,,89579,001,2022-04-25_16h19.54.787,SPAMnetsValid,2021.1.4,MacIntel,57.14285714,,,,,,,,,,,,,,,,,,,,,,,,,,,,,,,,,,,,,,,,,,,,,,,,,,,,,,,,,,,,,,,,,,,,,,,,,,,,,,,,,,,,,,,,,
,,7,26.541,7,26.541,0,65,65,60,1,89,chocolate,rose,,89579,001,2022-04-25_16h19.54.787,SPAMnetsValid,2021.1.4,MacIntel,57.14285714,,,,,,,,,,,,,,,,,,,,,,,,,,,,,,,,,,,,,,,,,,,,,,,,,,,,,,,,,,,,,,,,,,,,,,,,,,,,,,,,,,,,,,,,,
,,9,4.528,9,4.528,0,66,66,30,1,3,cake,oven,,89579,001,2022-04-25_16h19.54.787,SPAMnetsValid,2021.1.4,MacIntel,57.14285714,,,,,,,,,,,,,,,,,,,,,,,,,,,,,,,,,,,,,,,,,,,,,,,,,,,,,,,,,,,,,,,,,,,,,,,,,,,,,,,,,,,,,,,,,
,,6,7.93,6,7.93,0,67,67,0,1,53,garden,pretzel,,89579,001,2022-04-25_16h19.54.787,SPAMnetsValid,2021.1.4,MacIntel,57.14285714,,,,,,,,,,,,,,,,,,,,,,,,,,,,,,,,,,,,,,,,,,,,,,,,,,,,,,,,,,,,,,,,,,,,,,,,,,,,,,,,,,,,,,,,,
,,9,8.058,9,8.058,0,68,68,29,1,42,garden,kitchen,,89579,001,2022-04-25_16h19.54.787,SPAMnetsValid,2021.1.4,MacIntel,57.14285714,,,,,,,,,,,,,,,,,,,,,,,,,,,,,,,,,,,,,,,,,,,,,,,,,,,,,,,,,,,,,,,,,,,,,,,,,,,,,,,,,,,,,,,,,
,,6,9.678,6,9.678,0,69,69,92,1,44,cookie,melon,,89579,001,2022-04-25_16h19.54.787,SPAMnetsValid,2021.1.4,MacIntel,57.14285714,,,,,,,,,,,,,,,,,,,,,,,,,,,,,,,,,,,,,,,,,,,,,,,,,,,,,,,,,,,,,,,,,,,,,,,,,,,,,,,,,,,,,,,,,
,,6,1.96,6,1.96,0,70,70,24,1,17,carrot,melon,,89579,001,2022-04-25_16h19.54.787,SPAMnetsValid,2021.1.4,MacIntel,57.14285714,,,,,,,,,,,,,,,,,,,,,,,,,,,,,,,,,,,,,,,,,,,,,,,,,,,,,,,,,,,,,,,,,,,,,,,,,,,,,,,,,,,,,,,,,
,,7,6.745,7,6.745,0,71,71,8,1,43,chocolate,tomato,,89579,001,2022-04-25_16h19.54.787,SPAMnetsValid,2021.1.4,MacIntel,57.14285714,,,,,,,,,,,,,,,,,,,,,,,,,,,,,,,,,,,,,,,,,,,,,,,,,,,,,,,,,,,,,,,,,,,,,,,,,,,,,,,,,,,,,,,,,
,,9,2.095,9,2.095,0,72,72,75,1,69,carrot,refrigerator,,89579,001,2022-04-25_16h19.54.787,SPAMnetsValid,2021.1.4,MacIntel,57.14285714,,,,,,,,,,,,,,,,,,,,,,,,,,,,,,,,,,,,,,,,,,,,,,,,,,,,,,,,,,,,,,,,,,,,,,,,,,,,,,,,,,,,,,,,,
,,1,32.479,1,32.479,0,73,73,32,1,40,broom,cake,,89579,001,2022-04-25_16h19.54.787,SPAMnetsValid,2021.1.4,MacIntel,57.14285714,,,,,,,,,,,,,,,,,,,,,,,,,,,,,,,,,,,,,,,,,,,,,,,,,,,,,,,,,,,,,,,,,,,,,,,,,,,,,,,,,,,,,,,,,
,,6,2.012,6,2.012,0,74,74,68,1,24,cookie,tomato,,89579,001,2022-04-25_16h19.54.787,SPAMnetsValid,2021.1.4,MacIntel,57.14285714,,,,,,,,,,,,,,,,,,,,,,,,,,,,,,,,,,,,,,,,,,,,,,,,,,,,,,,,,,,,,,,,,,,,,,,,,,,,,,,,,,,,,,,,,
,,9,2.112,9,2.112,0,75,75,10,1,191,cake,cake,CHECK,89579,001,2022-04-25_16h19.54.787,SPAMnetsValid,2021.1.4,MacIntel,57.14285714,,,,,,,,,,,,,,,,,,,,,,,,,,,,,,,,,,,,,,,,,,,,,,,,,,,,,,,,,,,,,,,,,,,,,,,,,,,,,,,,,,,,,,,,,
,,7,1.761,7,1.761,0,76,76,50,1,81,pretzel,yogurt,,89579,001,2022-04-25_16h19.54.787,SPAMnetsValid,2021.1.4,MacIntel,57.14285714,,,,,,,,,,,,,,,,,,,,,,,,,,,,,,,,,,,,,,,,,,,,,,,,,,,,,,,,,,,,,,,,,,,,,,,,,,,,,,,,,,,,,,,,,
,,3,1.747,3,1.747,0,77,77,26,1,35,flower,pretzel,,89579,001,2022-04-25_16h19.54.787,SPAMnetsValid,2021.1.4,MacIntel,57.14285714,,,,,,,,,,,,,,,,,,,,,,,,,,,,,,,,,,,,,,,,,,,,,,,,,,,,,,,,,,,,,,,,,,,,,,,,,,,,,,,,,,,,,,,,,
,,1,1.762,1,1.762,0,78,78,84,1,91,microwave,rose,,89579,001,2022-04-25_16h19.54.787,SPAMnetsValid,2021.1.4,MacIntel,57.14285714,,,,,,,,,,,,,,,,,,,,,,,,,,,,,,,,,,,,,,,,,,,,,,,,,,,,,,,,,,,,,,,,,,,,,,,,,,,,,,,,,,,,,,,,,
,,1,1.613,1,1.613,0,79,79,25,1,23,flower,microwave,,89579,001,2022-04-25_16h19.54.787,SPAMnetsValid,2021.1.4,MacIntel,57.14285714,,,,,,,,,,,,,,,,,,,,,,,,,,,,,,,,,,,,,,,,,,,,,,,,,,,,,,,,,,,,,,,,,,,,,,,,,,,,,,,,,,,,,,,,,
,,1,1.396,1,1.396,0,80,80,27,1,72,broom,onion,,89579,001,2022-04-25_16h19.54.787,SPAMnetsValid,2021.1.4,MacIntel,57.14285714,,,,,,,,,,,,,,,,,,,,,,,,,,,,,,,,,,,,,,,,,,,,,,,,,,,,,,,,,,,,,,,,,,,,,,,,,,,,,,,,,,,,,,,,,
,,7,3.073,7,3.073,0,81,81,46,1,41,broom,cactus,,89579,001,2022-04-25_16h19.54.787,SPAMnetsValid,2021.1.4,MacIntel,57.14285714,,,,,,,,,,,,,,,,,,,,,,,,,,,,,,,,,,,,,,,,,,,,,,,,,,,,,,,,,,,,,,,,,,,,,,,,,,,,,,,,,,,,,,,,,
,,4,49.048,4,49.048,0,82,82,14,1,64,chocolate,garden,,89579,001,2022-04-25_16h19.54.787,SPAMnetsValid,2021.1.4,MacIntel,57.14285714,,,,,,,,,,,,,,,,,,,,,,,,,,,,,,,,,,,,,,,,,,,,,,,,,,,,,,,,,,,,,,,,,,,,,,,,,,,,,,,,,,,,,,,,,
,,9,2.528,9,2.528,0,83,83,76,1,36,broom,kitchen,,89579,001,2022-04-25_16h19.54.787,SPAMnetsValid,2021.1.4,MacIntel,57.14285714,,,,,,,,,,,,,,,,,,,,,,,,,,,,,,,,,,,,,,,,,,,,,,,,,,,,,,,,,,,,,,,,,,,,,,,,,,,,,,,,,,,,,,,,,
,,7,2.195,7,2.195,0,84,84,38,1,88,cactus,melon,,89579,001,2022-04-25_16h19.54.787,SPAMnetsValid,2021.1.4,MacIntel,57.14285714,,,,,,,,,,,,,,,,,,,,,,,,,,,,,,,,,,,,,,,,,,,,,,,,,,,,,,,,,,,,,,,,,,,,,,,,,,,,,,,,,,,,,,,,,
,,6,3.578,6,3.578,0,85,85,66,1,20,rose,tree,,89579,001,2022-04-25_16h19.54.787,SPAMnetsValid,2021.1.4,MacIntel,57.14285714,,,,,,,,,,,,,,,,,,,,,,,,,,,,,,,,,,,,,,,,,,,,,,,,,,,,,,,,,,,,,,,,,,,,,,,,,,,,,,,,,,,,,,,,,
,,1,2.374,1,2.374,0,86,86,63,1,21,cake,onion,,89579,001,2022-04-25_16h19.54.787,SPAMnetsValid,2021.1.4,MacIntel,57.14285714,,,,,,,,,,,,,,,,,,,,,,,,,,,,,,,,,,,,,,,,,,,,,,,,,,,,,,,,,,,,,,,,,,,,,,,,,,,,,,,,,,,,,,,,,
,,1,2.714,1,2.714,0,87,87,40,1,74,broom,pretzel,,89579,001,2022-04-25_16h19.54.787,SPAMnetsValid,2021.1.4,MacIntel,57.14285714,,,,,,,,,,,,,,,,,,,,,,,,,,,,,,,,,,,,,,,,,,,,,,,,,,,,,,,,,,,,,,,,,,,,,,,,,,,,,,,,,,,,,,,,,
,,7,2.814,7,2.814,0,88,88,85,1,90,cactus,cake,,89579,001,2022-04-25_16h19.54.787,SPAMnetsValid,2021.1.4,MacIntel,57.14285714,,,,,,,,,,,,,,,,,,,,,,,,,,,,,,,,,,,,,,,,,,,,,,,,,,,,,,,,,,,,,,,,,,,,,,,,,,,,,,,,,,,,,,,,,
,,6,3.473,6,3.473,0,89,89,35,1,55,tomato,tree,,89579,001,2022-04-25_16h19.54.787,SPAMnetsValid,2021.1.4,MacIntel,57.14285714,,,,,,,,,,,,,,,,,,,,,,,,,,,,,,,,,,,,,,,,,,,,,,,,,,,,,,,,,,,,,,,,,,,,,,,,,,,,,,,,,,,,,,,,,
,,6,2.581,6,2.581,0,90,90,17,1,27,cactus,cookie,,89579,001,2022-04-25_16h19.54.787,SPAMnetsValid,2021.1.4,MacIntel,57.14285714,,,,,,,,,,,,,,,,,,,,,,,,,,,,,,,,,,,,,,,,,,,,,,,,,,,,,,,,,,,,,,,,,,,,,,,,,,,,,,,,,,,,,,,,,
,,9,2.576,9,2.576,0,91,91,19,1,76,garden,rose,,89579,001,2022-04-25_16h19.54.787,SPAMnetsValid,2021.1.4,MacIntel,57.14285714,,,,,,,,,,,,,,,,,,,,,,,,,,,,,,,,,,,,,,,,,,,,,,,,,,,,,,,,,,,,,,,,,,,,,,,,,,,,,,,,,,,,,,,,,
,,7,2.944,7,2.944,0,92,92,39,1,15,onion,oven,,89579,001,2022-04-25_16h19.54.787,SPAMnetsValid,2021.1.4,MacIntel,57.14285714,,,,,,,,,,,,,,,,,,,,,,,,,,,,,,,,,,,,,,,,,,,,,,,,,,,,,,,,,,,,,,,,,,,,,,,,,,,,,,,,,,,,,,,,,
,,9,1.924,9,1.924,0,93,93,96,1,82,cake,kitchen,,89579,001,2022-04-25_16h19.54.787,SPAMnetsValid,2021.1.4,MacIntel,57.14285714,,,,,,,,,,,,,,,,,,,,,,,,,,,,,,,,,,,,,,,,,,,,,,,,,,,,,,,,,,,,,,,,,,,,,,,,,,,,,,,,,,,,,,,,,
,,1,2.143,1,2.143,0,94,94,7,1,34,melon,oven,,89579,001,2022-04-25_16h19.54.787,SPAMnetsValid,2021.1.4,MacIntel,57.14285714,,,,,,,,,,,,,,,,,,,,,,,,,,,,,,,,,,,,,,,,,,,,,,,,,,,,,,,,,,,,,,,,,,,,,,,,,,,,,,,,,,,,,,,,,
,,6,1.99,6,1.99,0,95,95,71,1,38,pretzel,refrigerator,,89579,001,2022-04-25_16h19.54.787,SPAMnetsValid,2021.1.4,MacIntel,57.14285714,,,,,,,,,,,,,,,,,,,,,,,,,,,,,,,,,,,,,,,,,,,,,,,,,,,,,,,,,,,,,,,,,,,,,,,,,,,,,,,,,,,,,,,,,
,,9,2.061,9,2.061,0,96,96,45,1,10,flower,onion,,89579,001,2022-04-25_16h19.54.787,SPAMnetsValid,2021.1.4,MacIntel,57.14285714,,,,,,,,,,,,,,,,,,,,,,,,,,,,,,,,,,,,,,,,,,,,,,,,,,,,,,,,,,,,,,,,,,,,,,,,,,,,,,,,,,,,,,,,,
,,,,,,,,,,,,,,,89579,001,2022-04-25_16h19.54.787,SPAMnetsValid,2021.1.4,MacIntel,57.14285714,0,0,0,0,1,,,,,,,,,,,,,,,,,,,,,,,,,,,,,,,,,,,,,,,,,,,,,,,,,,,,,,,,,,,,,,,,,,,,,,,,,,,,,,,,,,,,
,,,,,,,,,,,,,,,89579,001,2022-04-25_16h19.54.787,SPAMnetsValid,2021.1.4,MacIntel,57.14285714,,,,,,0,0,0,0,1,1,0,,,,,,,,,,,,,,,,,,,,,,,,,,,,,,,,,,,,,,,,,,,,,,,,,,,,,,,,,,,,,,,,,,,,,,,,,,,,,
,,,,9,2.908,,,,,,194,cactus,cactus,CHECK,89579,001,2022-04-25_16h19.54.787,SPAMnetsValid,2021.1.4,MacIntel,57.14285714,,,,,,,,,,,,,9,2.908,0,0,0,25,1,,,,,,,,,,,,,,,,,,,,,,,,,,,,,,,,,,,,,,,,,,,,,,,,,,,,,,,,,,,,,,,,,,,,,,
,,,,9,2.563,,,,,,158,cookie,oven,,89579,001,2022-04-25_16h19.54.787,SPAMnetsValid,2021.1.4,MacIntel,57.14285714,,,,,,,,,,,,,9,2.563,0,1,1,27,1,,,,,,,,,,,,,,,,,,,,,,,,,,,,,,,,,,,,,,,,,,,,,,,,,,,,,,,,,,,,,,,,,,,,,,
,,,,9,1.98,,,,,,150,microwave,refrigerator,,89579,001,2022-04-25_16h19.54.787,SPAMnetsValid,2021.1.4,MacIntel,57.14285714,,,,,,,,,,,,,9,1.98,0,2,2,66,1,,,,,,,,,,,,,,,,,,,,,,,,,,,,,,,,,,,,,,,,,,,,,,,,,,,,,,,,,,,,,,,,,,,,,,
,,,,2,1.898,,,,,,123,cookie,tree,,89579,001,2022-04-25_16h19.54.787,SPAMnetsValid,2021.1.4,MacIntel,57.14285714,,,,,,,,,,,,,2,1.898,0,3,3,46,1,,,,,,,,,,,,,,,,,,,,,,,,,,,,,,,,,,,,,,,,,,,,,,,,,,,,,,,,,,,,,,,,,,,,,,
,,,,6,2.213,,,,,,125,carrot,tree,,89579,001,2022-04-25_16h19.54.787,SPAMnetsValid,2021.1.4,MacIntel,57.14285714,,,,,,,,,,,,,6,2.213,0,4,4,30,1,,,,,,,,,,,,,,,,,,,,,,,,,,,,,,,,,,,,,,,,,,,,,,,,,,,,,,,,,,,,,,,,,,,,,,
,,,,6,1.682,,,,,,176,cactus,tomato,,89579,001,2022-04-25_16h19.54.787,SPAMnetsValid,2021.1.4,MacIntel,57.14285714,,,,,,,,,,,,,6,1.682,0,5,5,9,1,,,,,,,,,,,,,,,,,,,,,,,,,,,,,,,,,,,,,,,,,,,,,,,,,,,,,,,,,,,,,,,,,,,,,,
,,,,2,1.412,,,,,,128,melon,microwave,,89579,001,2022-04-25_16h19.54.787,SPAMnetsValid,2021.1.4,MacIntel,57.14285714,,,,,,,,,,,,,2,1.412,0,6,6,74,1,,,,,,,,,,,,,,,,,,,,,,,,,,,,,,,,,,,,,,,,,,,,,,,,,,,,,,,,,,,,,,,,,,,,,,
,,,,8,1.58,,,,,,156,melon,rose,,89579,001,2022-04-25_16h19.54.787,SPAMnetsValid,2021.1.4,MacIntel,57.14285714,,,,,,,,,,,,,8,1.58,0,7,7,31,1,,,,,,,,,,,,,,,,,,,,,,,,,,,,,,,,,,,,,,,,,,,,,,,,,,,,,,,,,,,,,,,,,,,,,,
,,,,9,2.063,,,,,,100,garden,tomato,,89579,001,2022-04-25_16h19.54.787,SPAMnetsValid,2021.1.4,MacIntel,57.14285714,,,,,,,,,,,,,9,2.063,0,8,8,83,1,,,,,,,,,,,,,,,,,,,,,,,,,,,,,,,,,,,,,,,,,,,,,,,,,,,,,,,,,,,,,,,,,,,,,,
,,,,9,2.143,,,,,,117,melon,strawberry,,89579,001,2022-04-25_16h19.54.787,SPAMnetsValid,2021.1.4,MacIntel,57.14285714,,,,,,,,,,,,,9,2.143,0,9,9,11,1,,,,,,,,,,,,,,,,,,,,,,,,,,,,,,,,,,,,,,,,,,,,,,,,,,,,,,,,,,,,,,,,,,,,,,
,,,,2,1.913,,,,,,164,cookie,garden,,89579,001,2022-04-25_16h19.54.787,SPAMnetsValid,2021.1.4,MacIntel,57.14285714,,,,,,,,,,,,,2,1.913,0,10,10,59,1,,,,,,,,,,,,,,,,,,,,,,,,,,,,,,,,,,,,,,,,,,,,,,,,,,,,,,,,,,,,,,,,,,,,,,
,,,,7,2.329,,,,,,131,cactus,garden,,89579,001,2022-04-25_16h19.54.787,SPAMnetsValid,2021.1.4,MacIntel,57.14285714,,,,,,,,,,,,,7,2.329,0,11,11,33,1,,,,,,,,,,,,,,,,,,,,,,,,,,,,,,,,,,,,,,,,,,,,,,,,,,,,,,,,,,,,,,,,,,,,,,
,,,,9,2.547,,,,,,147,cake,refrigerator,,89579,001,2022-04-25_16h19.54.787,SPAMnetsValid,2021.1.4,MacIntel,57.14285714,,,,,,,,,,,,,9,2.547,0,12,12,35,1,,,,,,,,,,,,,,,,,,,,,,,,,,,,,,,,,,,,,,,,,,,,,,,,,,,,,,,,,,,,,,,,,,,,,,
,,,,9,2.561,,,,,,142,garden,tree,,89579,001,2022-04-25_16h19.54.787,SPAMnetsValid,2021.1.4,MacIntel,57.14285714,,,,,,,,,,,,,9,2.561,0,13,13,22,1,,,,,,,,,,,,,,,,,,,,,,,,,,,,,,,,,,,,,,,,,,,,,,,,,,,,,,,,,,,,,,,,,,,,,,
,,,,9,4.373,,,,,,113,refrigerator,strawberry,,89579,001,2022-04-25_16h19.54.787,SPAMnetsValid,2021.1.4,MacIntel,57.14285714,,,,,,,,,,,,,9,4.373,0,14,14,56,1,,,,,,,,,,,,,,,,,,,,,,,,,,,,,,,,,,,,,,,,,,,,,,,,,,,,,,,,,,,,,,,,,,,,,,
,,,,9,4.244,,,,,,179,broom,oven,,89579,001,2022-04-25_16h19.54.787,SPAMnetsValid,2021.1.4,MacIntel,57.14285714,,,,,,,,,,,,,9,4.244,0,15,15,45,1,,,,,,,,,,,,,,,,,,,,,,,,,,,,,,,,,,,,,,,,,,,,,,,,,,,,,,,,,,,,,,,,,,,,,,
,,,,1,206.462,,,,,,157,refrigerator,rose,,89579,001,2022-04-25_16h19.54.787,SPAMnetsValid,2021.1.4,MacIntel,57.14285714,,,,,,,,,,,,,1,206.462,0,16,16,64,1,,,,,,,,,,,,,,,,,,,,,,,,,,,,,,,,,,,,,,,,,,,,,,,,,,,,,,,,,,,,,,,,,,,,,,
,,,,1,3.028,,,,,,169,onion,yogurt,,89579,001,2022-04-25_16h19.54.787,SPAMnetsValid,2021.1.4,MacIntel,57.14285714,,,,,,,,,,,,,1,3.028,0,17,17,24,1,,,,,,,,,,,,,,,,,,,,,,,,,,,,,,,,,,,,,,,,,,,,,,,,,,,,,,,,,,,,,,,,,,,,,,
,,,,9,2.36,,,,,,121,broom,microwave,,89579,001,2022-04-25_16h19.54.787,SPAMnetsValid,2021.1.4,MacIntel,57.14285714,,,,,,,,,,,,,9,2.36,0,18,18,95,1,,,,,,,,,,,,,,,,,,,,,,,,,,,,,,,,,,,,,,,,,,,,,,,,,,,,,,,,,,,,,,,,,,,,,,
,,,,9,1.479,,,,,,167,carrot,garden,,89579,001,2022-04-25_16h19.54.787,SPAMnetsValid,2021.1.4,MacIntel,57.14285714,,,,,,,,,,,,,9,1.479,0,19,19,47,1,,,,,,,,,,,,,,,,,,,,,,,,,,,,,,,,,,,,,,,,,,,,,,,,,,,,,,,,,,,,,,,,,,,,,,
,,,,9,3.862,,,,,,106,cake,strawberry,,89579,001,2022-04-25_16h19.54.787,SPAMnetsValid,2021.1.4,MacIntel,57.14285714,,,,,,,,,,,,,9,3.862,0,20,20,0,1,,,,,,,,,,,,,,,,,,,,,,,,,,,,,,,,,,,,,,,,,,,,,,,,,,,,,,,,,,,,,,,,,,,,,,
,,,,9,2.261,,,,,,124,oven,refrigerator,,89579,001,2022-04-25_16h19.54.787,SPAMnetsValid,2021.1.4,MacIntel,57.14285714,,,,,,,,,,,,,9,2.261,0,21,21,69,1,,,,,,,,,,,,,,,,,,,,,,,,,,,,,,,,,,,,,,,,,,,,,,,,,,,,,,,,,,,,,,,,,,,,,,
,,,,9,2.565,,,,,,177,chocolate,strawberry,,89579,001,2022-04-25_16h19.54.787,SPAMnetsValid,2021.1.4,MacIntel,57.14285714,,,,,,,,,,,,,9,2.565,0,22,22,53,1,,,,,,,,,,,,,,,,,,,,,,,,,,,,,,,,,,,,,,,,,,,,,,,,,,,,,,,,,,,,,,,,,,,,,,
,,,,9,1.316,,,,,,118,chocolate,oven,,89579,001,2022-04-25_16h19.54.787,SPAMnetsValid,2021.1.4,MacIntel,57.14285714,,,,,,,,,,,,,9,1.316,0,23,23,10,1,,,,,,,,,,,,,,,,,,,,,,,,,,,,,,,,,,,,,,,,,,,,,,,,,,,,,,,,,,,,,,,,,,,,,,
,,,,9,1.146,,,,,,160,cookie,kitchen,,89579,001,2022-04-25_16h19.54.787,SPAMnetsValid,2021.1.4,MacIntel,57.14285714,,,,,,,,,,,,,9,1.146,0,24,24,65,1,,,,,,,,,,,,,,,,,,,,,,,,,,,,,,,,,,,,,,,,,,,,,,,,,,,,,,,,,,,,,,,,,,,,,,
,,,,9,0.98,,,,,,110,chocolate,cookie,,89579,001,2022-04-25_16h19.54.787,SPAMnetsValid,2021.1.4,MacIntel,57.14285714,,,,,,,,,,,,,9,0.98,0,25,25,52,1,,,,,,,,,,,,,,,,,,,,,,,,,,,,,,,,,,,,,,,,,,,,,,,,,,,,,,,,,,,,,,,,,,,,,,
,,,,9,0.78,,,,,,102,chocolate,refrigerator,,89579,001,2022-04-25_16h19.54.787,SPAMnetsValid,2021.1.4,MacIntel,57.14285714,,,,,,,,,,,,,9,0.78,0,26,26,76,1,,,,,,,,,,,,,,,,,,,,,,,,,,,,,,,,,,,,,,,,,,,,,,,,,,,,,,,,,,,,,,,,,,,,,,
,,,,3,1.33,,,,,,127,cactus,chocolate,,89579,001,2022-04-25_16h19.54.787,SPAMnetsValid,2021.1.4,MacIntel,57.14285714,,,,,,,,,,,,,3,1.33,0,27,27,57,1,,,,,,,,,,,,,,,,,,,,,,,,,,,,,,,,,,,,,,,,,,,,,,,,,,,,,,,,,,,,,,,,,,,,,,
,,,,7,1.414,,,,,,186,kitchen,yogurt,,89579,001,2022-04-25_16h19.54.787,SPAMnetsValid,2021.1.4,MacIntel,57.14285714,,,,,,,,,,,,,7,1.414,0,28,28,48,1,,,,,,,,,,,,,,,,,,,,,,,,,,,,,,,,,,,,,,,,,,,,,,,,,,,,,,,,,,,,,,,,,,,,,,
,,,,2,1.647,,,,,,187,cactus,microwave,,89579,001,2022-04-25_16h19.54.787,SPAMnetsValid,2021.1.4,MacIntel,57.14285714,,,,,,,,,,,,,2,1.647,0,29,29,71,1,,,,,,,,,,,,,,,,,,,,,,,,,,,,,,,,,,,,,,,,,,,,,,,,,,,,,,,,,,,,,,,,,,,,,,
,,,,3,2.813,,,,,,130,microwave,yogurt,,89579,001,2022-04-25_16h19.54.787,SPAMnetsValid,2021.1.4,MacIntel,57.14285714,,,,,,,,,,,,,3,2.813,0,30,30,84,1,,,,,,,,,,,,,,,,,,,,,,,,,,,,,,,,,,,,,,,,,,,,,,,,,,,,,,,,,,,,,,,,,,,,,,
,,,,3,1.597,,,,,,146,pretzel,tree,,89579,001,2022-04-25_16h19.54.787,SPAMnetsValid,2021.1.4,MacIntel,57.14285714,,,,,,,,,,,,,3,1.597,0,31,31,80,1,,,,,,,,,,,,,,,,,,,,,,,,,,,,,,,,,,,,,,,,,,,,,,,,,,,,,,,,,,,,,,,,,,,,,,
,,,,3,1.996,,,,,,153,carrot,pretzel,,89579,001,2022-04-25_16h19.54.787,SPAMnetsValid,2021.1.4,MacIntel,57.14285714,,,,,,,,,,,,,3,1.996,0,32,32,34,1,,,,,,,,,,,,,,,,,,,,,,,,,,,,,,,,,,,,,,,,,,,,,,,,,,,,,,,,,,,,,,,,,,,,,,
,,,,9,4.448,,,,,,108,carrot,chocolate,,89579,001,2022-04-25_16h19.54.787,SPAMnetsValid,2021.1.4,MacIntel,57.14285714,,,,,,,,,,,,,9,4.448,0,33,33,5,1,,,,,,,,,,,,,,,,,,,,,,,,,,,,,,,,,,,,,,,,,,,,,,,,,,,,,,,,,,,,,,,,,,,,,,
,,,,9,4.761,,,,,,165,onion,rose,,89579,001,2022-04-25_16h19.54.787,SPAMnetsValid,2021.1.4,MacIntel,57.14285714,,,,,,,,,,,,,9,4.761,0,34,34,40,1,,,,,,,,,,,,,,,,,,,,,,,,,,,,,,,,,,,,,,,,,,,,,,,,,,,,,,,,,,,,,,,,,,,,,,
,,,,9,2.407,,,,,,170,cookie,microwave,,89579,001,2022-04-25_16h19.54.787,SPAMnetsValid,2021.1.4,MacIntel,57.14285714,,,,,,,,,,,,,9,2.407,0,35,35,92,1,,,,,,,,,,,,,,,,,,,,,,,,,,,,,,,,,,,,,,,,,,,,,,,,,,,,,,,,,,,,,,,,,,,,,,
,,,,6,2.04,,,,,,178,cactus,carrot,,89579,001,2022-04-25_16h19.54.787,SPAMnetsValid,2021.1.4,MacIntel,57.14285714,,,,,,,,,,,,,6,2.04,0,36,36,75,1,,,,,,,,,,,,,,,,,,,,,,,,,,,,,,,,,,,,,,,,,,,,,,,,,,,,,,,,,,,,,,,,,,,,,,
,,,,9,1.958,,,,,,193,melon,melon,CHECK,89579,001,2022-04-25_16h19.54.787,SPAMnetsValid,2021.1.4,MacIntel,57.14285714,,,,,,,,,,,,,9,1.958,0,37,37,86,1,,,,,,,,,,,,,,,,,,,,,,,,,,,,,,,,,,,,,,,,,,,,,,,,,,,,,,,,,,,,,,,,,,,,,,
,,,,4,3.679,,,,,,171,cake,tomato,,89579,001,2022-04-25_16h19.54.787,SPAMnetsValid,2021.1.4,MacIntel,57.14285714,,,,,,,,,,,,,4,3.679,0,38,38,88,1,,,,,,,,,,,,,,,,,,,,,,,,,,,,,,,,,,,,,,,,,,,,,,,,,,,,,,,,,,,,,,,,,,,,,,
,,,,9,2.913,,,,,,105,cactus,oven,,89579,001,2022-04-25_16h19.54.787,SPAMnetsValid,2021.1.4,MacIntel,57.14285714,,,,,,,,,,,,,9,2.913,0,39,39,13,1,,,,,,,,,,,,,,,,,,,,,,,,,,,,,,,,,,,,,,,,,,,,,,,,,,,,,,,,,,,,,,,,,,,,,,
,,,,9,2.562,,,,,,140,cookie,refrigerator,,89579,001,2022-04-25_16h19.54.787,SPAMnetsValid,2021.1.4,MacIntel,57.14285714,,,,,,,,,,,,,9,2.562,0,40,40,89,1,,,,,,,,,,,,,,,,,,,,,,,,,,,,,,,,,,,,,,,,,,,,,,,,,,,,,,,,,,,,,,,,,,,,,,
,,,,9,2.074,,,,,,135,carrot,oven,,89579,001,2022-04-25_16h19.54.787,SPAMnetsValid,2021.1.4,MacIntel,57.14285714,,,,,,,,,,,,,9,2.074,0,41,41,73,1,,,,,,,,,,,,,,,,,,,,,,,,,,,,,,,,,,,,,,,,,,,,,,,,,,,,,,,,,,,,,,,,,,,,,,
,,,,7,2.028,,,,,,103,pretzel,tomato,,89579,001,2022-04-25_16h19.54.787,SPAMnetsValid,2021.1.4,MacIntel,57.14285714,,,,,,,,,,,,,7,2.028,0,42,42,79,1,,,,,,,,,,,,,,,,,,,,,,,,,,,,,,,,,,,,,,,,,,,,,,,,,,,,,,,,,,,,,,,,,,,,,,
,,,,8,1.626,,,,,,172,kitchen,melon,,89579,001,2022-04-25_16h19.54.787,SPAMnetsValid,2021.1.4,MacIntel,57.14285714,,,,,,,,,,,,,8,1.626,0,43,43,77,1,,,,,,,,,,,,,,,,,,,,,,,,,,,,,,,,,,,,,,,,,,,,,,,,,,,,,,,,,,,,,,,,,,,,,,
,,,,8,1.796,,,,,,173,kitchen,tomato,,89579,001,2022-04-25_16h19.54.787,SPAMnetsValid,2021.1.4,MacIntel,57.14285714,,,,,,,,,,,,,8,1.796,0,44,44,1,1,,,,,,,,,,,,,,,,,,,,,,,,,,,,,,,,,,,,,,,,,,,,,,,,,,,,,,,,,,,,,,,,,,,,,,
,,,,7,2.708,,,,,,143,pretzel,rose,,89579,001,2022-04-25_16h19.54.787,SPAMnetsValid,2021.1.4,MacIntel,57.14285714,,,,,,,,,,,,,7,2.708,0,45,45,55,1,,,,,,,,,,,,,,,,,,,,,,,,,,,,,,,,,,,,,,,,,,,,,,,,,,,,,,,,,,,,,,,,,,,,,,
,,,,8,189.382,,,,,,115,refrigerator,tomato,,89579,001,2022-04-25_16h19.54.787,SPAMnetsValid,2021.1.4,MacIntel,57.14285714,,,,,,,,,,,,,8,189.382,0,46,46,85,1,,,,,,,,,,,,,,,,,,,,,,,,,,,,,,,,,,,,,,,,,,,,,,,,,,,,,,,,,,,,,,,,,,,,,,
,,,,3,267.393,,,,,,144,cake,garden,,89579,001,2022-04-25_16h19.54.787,SPAMnetsValid,2021.1.4,MacIntel,57.14285714,,,,,,,,,,,,,3,267.393,0,47,47,58,1,,,,,,,,,,,,,,,,,,,,,,,,,,,,,,,,,,,,,,,,,,,,,,,,,,,,,,,,,,,,,,,,,,,,,,
,,,,3,2.263,,,,,,180,tree,yogurt,,89579,001,2022-04-25_16h19.54.787,SPAMnetsValid,2021.1.4,MacIntel,57.14285714,,,,,,,,,,,,,3,2.263,0,48,48,68,1,,,,,,,,,,,,,,,,,,,,,,,,,,,,,,,,,,,,,,,,,,,,,,,,,,,,,,,,,,,,,,,,,,,,,,
,,,,8,4.813,,,,,,99,garden,melon,,89579,001,2022-04-25_16h19.54.787,SPAMnetsValid,2021.1.4,MacIntel,57.14285714,,,,,,,,,,,,,8,4.813,0,49,49,17,1,,,,,,,,,,,,,,,,,,,,,,,,,,,,,,,,,,,,,,,,,,,,,,,,,,,,,,,,,,,,,,,,,,,,,,
,,,,7,67.629,,,,,,189,onion,tree,,89579,001,2022-04-25_16h19.54.787,SPAMnetsValid,2021.1.4,MacIntel,57.14285714,,,,,,,,,,,,,7,67.629,0,50,50,62,1,,,,,,,,,,,,,,,,,,,,,,,,,,,,,,,,,,,,,,,,,,,,,,,,,,,,,,,,,,,,,,,,,,,,,,
,,,,9,7.698,,,,,,122,flower,garden,,89579,001,2022-04-25_16h19.54.787,SPAMnetsValid,2021.1.4,MacIntel,57.14285714,,,,,,,,,,,,,9,7.698,0,51,51,60,1,,,,,,,,,,,,,,,,,,,,,,,,,,,,,,,,,,,,,,,,,,,,,,,,,,,,,,,,,,,,,,,,,,,,,,
,,,,3,77.612,,,,,,182,flower,refrigerator,,89579,001,2022-04-25_16h19.54.787,SPAMnetsValid,2021.1.4,MacIntel,57.14285714,,,,,,,,,,,,,3,77.612,0,52,52,32,1,,,,,,,,,,,,,,,,,,,,,,,,,,,,,,,,,,,,,,,,,,,,,,,,,,,,,,,,,,,,,,,,,,,,,,
,,,,7,2.295,,,,,,141,melon,tomato,,89579,001,2022-04-25_16h19.54.787,SPAMnetsValid,2021.1.4,MacIntel,57.14285714,,,,,,,,,,,,,7,2.295,0,53,53,70,1,,,,,,,,,,,,,,,,,,,,,,,,,,,,,,,,,,,,,,,,,,,,,,,,,,,,,,,,,,,,,,,,,,,,,,
,,,,2,1.363,,,,,,104,garden,microwave,,89579,001,2022-04-25_16h19.54.787,SPAMnetsValid,2021.1.4,MacIntel,57.14285714,,,,,,,,,,,,,2,1.363,0,54,54,81,1,,,,,,,,,,,,,,,,,,,,,,,,,,,,,,,,,,,,,,,,,,,,,,,,,,,,,,,,,,,,,,,,,,,,,,
,,,,8,1.679,,,,,,136,chocolate,microwave,,89579,001,2022-04-25_16h19.54.787,SPAMnetsValid,2021.1.4,MacIntel,57.14285714,,,,,,,,,,,,,8,1.679,0,55,55,96,1,,,,,,,,,,,,,,,,,,,,,,,,,,,,,,,,,,,,,,,,,,,,,,,,,,,,,,,,,,,,,,,,,,,,,,
,,,,8,1.096,,,,,,96,oven,strawberry,,89579,001,2022-04-25_16h19.54.787,SPAMnetsValid,2021.1.4,MacIntel,57.14285714,,,,,,,,,,,,,8,1.096,0,56,56,67,1,,,,,,,,,,,,,,,,,,,,,,,,,,,,,,,,,,,,,,,,,,,,,,,,,,,,,,,,,,,,,,,,,,,,,,
,,,,8,0.98,,,,,,116,cake,chocolate,,89579,001,2022-04-25_16h19.54.787,SPAMnetsValid,2021.1.4,MacIntel,57.14285714,,,,,,,,,,,,,8,0.98,0,57,57,44,1,,,,,,,,,,,,,,,,,,,,,,,,,,,,,,,,,,,,,,,,,,,,,,,,,,,,,,,,,,,,,,,,,,,,,,
,,,,2,1.229,,,,,,109,broom,strawberry,,89579,001,2022-04-25_16h19.54.787,SPAMnetsValid,2021.1.4,MacIntel,57.14285714,,,,,,,,,,,,,2,1.229,0,58,58,4,1,,,,,,,,,,,,,,,,,,,,,,,,,,,,,,,,,,,,,,,,,,,,,,,,,,,,,,,,,,,,,,,,,,,,,,
,,,,7,2.413,,,,,,132,broom,tree,,89579,001,2022-04-25_16h19.54.787,SPAMnetsValid,2021.1.4,MacIntel,57.14285714,,,,,,,,,,,,,7,2.413,0,59,59,78,1,,,,,,,,,,,,,,,,,,,,,,,,,,,,,,,,,,,,,,,,,,,,,,,,,,,,,,,,,,,,,,,,,,,,,,
,,,,2,1.281,,,,,,190,microwave,strawberry,,89579,001,2022-04-25_16h19.54.787,SPAMnetsValid,2021.1.4,MacIntel,57.14285714,,,,,,,,,,,,,2,1.281,0,60,60,90,1,,,,,,,,,,,,,,,,,,,,,,,,,,,,,,,,,,,,,,,,,,,,,,,,,,,,,,,,,,,,,,,,,,,,,,
,,,,2,1.18,,,,,,145,cactus,yogurt,,89579,001,2022-04-25_16h19.54.787,SPAMnetsValid,2021.1.4,MacIntel,57.14285714,,,,,,,,,,,,,2,1.18,0,61,61,15,1,,,,,,,,,,,,,,,,,,,,,,,,,,,,,,,,,,,,,,,,,,,,,,,,,,,,,,,,,,,,,,,,,,,,,,
,,,,2,1.197,,,,,,149,broom,tomato,,89579,001,2022-04-25_16h19.54.787,SPAMnetsValid,2021.1.4,MacIntel,57.14285714,,,,,,,,,,,,,2,1.197,0,62,62,20,1,,,,,,,,,,,,,,,,,,,,,,,,,,,,,,,,,,,,,,,,,,,,,,,,,,,,,,,,,,,,,,,,,,,,,,
,,,,7,1.597,,,,,,166,cake,yogurt,,89579,001,2022-04-25_16h19.54.787,SPAMnetsValid,2021.1.4,MacIntel,57.14285714,,,,,,,,,,,,,7,1.597,0,63,63,91,1,,,,,,,,,,,,,,,,,,,,,,,,,,,,,,,,,,,,,,,,,,,,,,,,,,,,,,,,,,,,,,,,,,,,,,
,,,,7,1.549,,,,,,161,kitchen,pretzel,,89579,001,2022-04-25_16h19.54.787,SPAMnetsValid,2021.1.4,MacIntel,57.14285714,,,,,,,,,,,,,7,1.549,0,64,64,36,1,,,,,,,,,,,,,,,,,,,,,,,,,,,,,,,,,,,,,,,,,,,,,,,,,,,,,,,,,,,,,,,,,,,,,,
,,,,7,1.731,,,,,,112,cake,carrot,,89579,001,2022-04-25_16h19.54.787,SPAMnetsValid,2021.1.4,MacIntel,57.14285714,,,,,,,,,,,,,7,1.731,0,65,65,39,1,,,,,,,,,,,,,,,,,,,,,,,,,,,,,,,,,,,,,,,,,,,,,,,,,,,,,,,,,,,,,,,,,,,,,,
,,,,6,2.362,,,,,,129,cactus,refrigerator,,89579,001,2022-04-25_16h19.54.787,SPAMnetsValid,2021.1.4,MacIntel,57.14285714,,,,,,,,,,,,,6,2.362,0,66,66,3,1,,,,,,,,,,,,,,,,,,,,,,,,,,,,,,,,,,,,,,,,,,,,,,,,,,,,,,,,,,,,,,,,,,,,,,
,,,,3,4.397,,,,,,159,cookie,flower,,89579,001,2022-04-25_16h19.54.787,SPAMnetsValid,2021.1.4,MacIntel,57.14285714,,,,,,,,,,,,,3,4.397,0,67,67,21,1,,,,,,,,,,,,,,,,,,,,,,,,,,,,,,,,,,,,,,,,,,,,,,,,,,,,,,,,,,,,,,,,,,,,,,
,,,,9,1.664,,,,,,185,cactus,rose,,89579,001,2022-04-25_16h19.54.787,SPAMnetsValid,2021.1.4,MacIntel,57.14285714,,,,,,,,,,,,,9,1.664,0,68,68,43,1,,,,,,,,,,,,,,,,,,,,,,,,,,,,,,,,,,,,,,,,,,,,,,,,,,,,,,,,,,,,,,,,,,,,,,
,,,,9,1.397,,,,,,154,strawberry,yogurt,,89579,001,2022-04-25_16h19.54.787,SPAMnetsValid,2021.1.4,MacIntel,57.14285714,,,,,,,,,,,,,9,1.397,0,69,69,28,1,,,,,,,,,,,,,,,,,,,,,,,,,,,,,,,,,,,,,,,,,,,,,,,,,,,,,,,,,,,,,,,,,,,,,,
,,,,8,1.381,,,,,,174,cake,pretzel,,89579,001,2022-04-25_16h19.54.787,SPAMnetsValid,2021.1.4,MacIntel,57.14285714,,,,,,,,,,,,,8,1.381,0,70,70,2,1,,,,,,,,,,,,,,,,,,,,,,,,,,,,,,,,,,,,,,,,,,,,,,,,,,,,,,,,,,,,,,,,,,,,,,
,,,,9,1.145,,,,,,120,microwave,oven,,89579,001,2022-04-25_16h19.54.787,SPAMnetsValid,2021.1.4,MacIntel,57.14285714,,,,,,,,,,,,,9,1.145,0,71,71,14,1,,,,,,,,,,,,,,,,,,,,,,,,,,,,,,,,,,,,,,,,,,,,,,,,,,,,,,,,,,,,,,,,,,,,,,
,,,,9,1.595,,,,,,114,cookie,strawberry,,89579,001,2022-04-25_16h19.54.787,SPAMnetsValid,2021.1.4,MacIntel,57.14285714,,,,,,,,,,,,,9,1.595,0,72,72,87,1,,,,,,,,,,,,,,,,,,,,,,,,,,,,,,,,,,,,,,,,,,,,,,,,,,,,,,,,,,,,,,,,,,,,,,
,,,,9,1.199,,,,,,184,oven,pretzel,,89579,001,2022-04-25_16h19.54.787,SPAMnetsValid,2021.1.4,MacIntel,57.14285714,,,,,,,,,,,,,9,1.199,0,73,73,42,1,,,,,,,,,,,,,,,,,,,,,,,,,,,,,,,,,,,,,,,,,,,,,,,,,,,,,,,,,,,,,,,,,,,,,,
,,,,9,0.963,,,,,,139,carrot,strawberry,,89579,001,2022-04-25_16h19.54.787,SPAMnetsValid,2021.1.4,MacIntel,57.14285714,,,,,,,,,,,,,9,0.963,0,74,74,37,1,,,,,,,,,,,,,,,,,,,,,,,,,,,,,,,,,,,,,,,,,,,,,,,,,,,,,,,,,,,,,,,,,,,,,,
,,,,9,1.013,,,,,,188,flower,tree,,89579,001,2022-04-25_16h19.54.787,SPAMnetsValid,2021.1.4,MacIntel,57.14285714,,,,,,,,,,,,,9,1.013,0,75,75,7,1,,,,,,,,,,,,,,,,,,,,,,,,,,,,,,,,,,,,,,,,,,,,,,,,,,,,,,,,,,,,,,,,,,,,,,
,,,,8,1.628,,,,,,183,cake,rose,,89579,001,2022-04-25_16h19.54.787,SPAMnetsValid,2021.1.4,MacIntel,57.14285714,,,,,,,,,,,,,8,1.628,0,76,76,19,1,,,,,,,,,,,,,,,,,,,,,,,,,,,,,,,,,,,,,,,,,,,,,,,,,,,,,,,,,,,,,,,,,,,,,,
,,,,9,4.08,,,,,,97,chocolate,kitchen,,89579,001,2022-04-25_16h19.54.787,SPAMnetsValid,2021.1.4,MacIntel,57.14285714,,,,,,,,,,,,,9,4.08,0,77,77,8,1,,,,,,,,,,,,,,,,,,,,,,,,,,,,,,,,,,,,,,,,,,,,,,,,,,,,,,,,,,,,,,,,,,,,,,
,,,,7,2.413,,,,,,111,carrot,microwave,,89579,001,2022-04-25_16h19.54.787,SPAMnetsValid,2021.1.4,MacIntel,57.14285714,,,,,,,,,,,,,7,2.413,0,78,78,16,1,,,,,,,,,,,,,,,,,,,,,,,,,,,,,,,,,,,,,,,,,,,,,,,,,,,,,,,,,,,,,,,,,,,,,,
,,,,9,1.612,,,,,,134,carrot,flower,,89579,001,2022-04-25_16h19.54.787,SPAMnetsValid,2021.1.4,MacIntel,57.14285714,,,,,,,,,,,,,9,1.612,0,79,79,93,1,,,,,,,,,,,,,,,,,,,,,,,,,,,,,,,,,,,,,,,,,,,,,,,,,,,,,,,,,,,,,,,,,,,,,,
,,,,9,1.297,,,,,,151,microwave,onion,,89579,001,2022-04-25_16h19.54.787,SPAMnetsValid,2021.1.4,MacIntel,57.14285714,,,,,,,,,,,,,9,1.297,0,80,80,6,1,,,,,,,,,,,,,,,,,,,,,,,,,,,,,,,,,,,,,,,,,,,,,,,,,,,,,,,,,,,,,,,,,,,,,,
,,,,9,1.214,,,,,,163,melon,refrigerator,,89579,001,2022-04-25_16h19.54.787,SPAMnetsValid,2021.1.4,MacIntel,57.14285714,,,,,,,,,,,,,9,1.214,0,81,81,29,1,,,,,,,,,,,,,,,,,,,,,,,,,,,,,,,,,,,,,,,,,,,,,,,,,,,,,,,,,,,,,,,,,,,,,,
,,,,9,1.196,,,,,,119,strawberry,tree,,89579,001,2022-04-25_16h19.54.787,SPAMnetsValid,2021.1.4,MacIntel,57.14285714,,,,,,,,,,,,,9,1.196,0,82,82,18,1,,,,,,,,,,,,,,,,,,,,,,,,,,,,,,,,,,,,,,,,,,,,,,,,,,,,,,,,,,,,,,,,,,,,,,
,,,,9,1.214,,,,,,168,cactus,flower,,89579,001,2022-04-25_16h19.54.787,SPAMnetsValid,2021.1.4,MacIntel,57.14285714,,,,,,,,,,,,,9,1.214,0,83,83,51,1,,,,,,,,,,,,,,,,,,,,,,,,,,,,,,,,,,,,,,,,,,,,,,,,,,,,,,,,,,,,,,,,,,,,,,
,,,,9,1.147,,,,,,101,cactus,kitchen,,89579,001,2022-04-25_16h19.54.787,SPAMnetsValid,2021.1.4,MacIntel,57.14285714,,,,,,,,,,,,,9,1.147,0,84,84,54,1,,,,,,,,,,,,,,,,,,,,,,,,,,,,,,,,,,,,,,,,,,,,,,,,,,,,,,,,,,,,,,,,,,,,,,
,,,,9,0.996,,,,,,148,flower,melon,,89579,001,2022-04-25_16h19.54.787,SPAMnetsValid,2021.1.4,MacIntel,57.14285714,,,,,,,,,,,,,9,0.996,0,85,85,23,1,,,,,,,,,,,,,,,,,,,,,,,,,,,,,,,,,,,,,,,,,,,,,,,,,,,,,,,,,,,,,,,,,,,,,,
,,,,8,2.628,,,,,,126,kitchen,tree,,89579,001,2022-04-25_16h19.54.787,SPAMnetsValid,2021.1.4,MacIntel,57.14285714,,,,,,,,,,,,,8,2.628,0,86,86,50,1,,,,,,,,,,,,,,,,,,,,,,,,,,,,,,,,,,,,,,,,,,,,,,,,,,,,,,,,,,,,,,,,,,,,,,
,,,,8,2.779,,,,,,107,rose,tomato,,89579,001,2022-04-25_16h19.54.787,SPAMnetsValid,2021.1.4,MacIntel,57.14285714,,,,,,,,,,,,,8,2.779,0,87,87,26,1,,,,,,,,,,,,,,,,,,,,,,,,,,,,,,,,,,,,,,,,,,,,,,,,,,,,,,,,,,,,,,,,,,,,,,
,,,,7,2.428,,,,,,137,microwave,tree,,89579,001,2022-04-25_16h19.54.787,SPAMnetsValid,2021.1.4,MacIntel,57.14285714,,,,,,,,,,,,,7,2.428,0,88,88,63,1,,,,,,,,,,,,,,,,,,,,,,,,,,,,,,,,,,,,,,,,,,,,,,,,,,,,,,,,,,,,,,,,,,,,,,
,,,,8,2.913,,,,,,133,cake,flower,,89579,001,2022-04-25_16h19.54.787,SPAMnetsValid,2021.1.4,MacIntel,57.14285714,,,,,,,,,,,,,8,2.913,0,89,89,94,1,,,,,,,,,,,,,,,,,,,,,,,,,,,,,,,,,,,,,,,,,,,,,,,,,,,,,,,,,,,,,,,,,,,,,,
,,,,8,2.613,,,,,,152,cactus,strawberry,,89579,001,2022-04-25_16h19.54.787,SPAMnetsValid,2021.1.4,MacIntel,57.14285714,,,,,,,,,,,,,8,2.613,0,90,90,49,1,,,,,,,,,,,,,,,,,,,,,,,,,,,,,,,,,,,,,,,,,,,,,,,,,,,,,,,,,,,,,,,,,,,,,,
,,,,2,2.699,,,,,,162,microwave,tomato,,89579,001,2022-04-25_16h19.54.787,SPAMnetsValid,2021.1.4,MacIntel,57.14285714,,,,,,,,,,,,,2,2.699,0,91,91,12,1,,,,,,,,,,,,,,,,,,,,,,,,,,,,,,,,,,,,,,,,,,,,,,,,,,,,,,,,,,,,,,,,,,,,,,
,,,,8,2.38,,,,,,138,flower,rose,,89579,001,2022-04-25_16h19.54.787,SPAMnetsValid,2021.1.4,MacIntel,57.14285714,,,,,,,,,,,,,8,2.38,0,92,92,61,1,,,,,,,,,,,,,,,,,,,,,,,,,,,,,,,,,,,,,,,,,,,,,,,,,,,,,,,,,,,,,,,,,,,,,,
,,,,9,2.863,,,,,,181,carrot,kitchen,,89579,001,2022-04-25_16h19.54.787,SPAMnetsValid,2021.1.4,MacIntel,57.14285714,,,,,,,,,,,,,9,2.863,0,93,93,72,1,,,,,,,,,,,,,,,,,,,,,,,,,,,,,,,,,,,,,,,,,,,,,,,,,,,,,,,,,,,,,,,,,,,,,,
,,,,9,2.279,,,,,,155,carrot,cookie,,89579,001,2022-04-25_16h19.54.787,SPAMnetsValid,2021.1.4,MacIntel,57.14285714,,,,,,,,,,,,,9,2.279,0,94,94,38,1,,,,,,,,,,,,,,,,,,,,,,,,,,,,,,,,,,,,,,,,,,,,,,,,,,,,,,,,,,,,,,,,,,,,,,
,,,,9,2.513,,,,,,175,melon,onion,,89579,001,2022-04-25_16h19.54.787,SPAMnetsValid,2021.1.4,MacIntel,57.14285714,,,,,,,,,,,,,9,2.513,0,95,95,41,1,,,,,,,,,,,,,,,,,,,,,,,,,,,,,,,,,,,,,,,,,,,,,,,,,,,,,,,,,,,,,,,,,,,,,,
,,,,9,1.264,,,,,,98,pretzel,strawberry,,89579,001,2022-04-25_16h19.54.787,SPAMnetsValid,2021.1.4,MacIntel,57.14285714,,,,,,,,,,,,,9,1.264,0,96,96,82,1,,,,,,,,,,,,,,,,,,,,,,,,,,,,,,,,,,,,,,,,,,,,,,,,,,,,,,,,,,,,,,,,,,,,,,
,,,,,,,,,,,,,,,89579,001,2022-04-25_16h19.54.787,SPAMnetsValid,2021.1.4,MacIntel,57.14285714,,,,,,,,,,,,,,,,,,,,0,0,0,0,1,,,,,,,,,,,,,,,,,,,,,,,,,,,,,,,,,,,,,,,,,,,,,,,,,,,,,,,,,,,,,,,,,
,,,,,,,,,,,,,,,89579,001,2022-04-25_16h19.54.787,SPAMnetsValid,2021.1.4,MacIntel,57.14285714,,,,,,0,1,1,1,1,0,1,,,,,,,,,,,,,,,,,,,,,,,,,,,,,,,,,,,,,,,,,,,,,,,,,,,,,,,,,,,,,,,,,,,,,,,,,,,,,
,,,,,,,,,,,,,,,89579,001,2022-04-25_16h19.54.787,SPAMnetsValid,2021.1.4,MacIntel,57.14285714,,,,,,,,,,,,,,,,,,,,,,,,,3,19.303,0,0,0,0,1,rancor,forbearance,ridicule,malice,bravery,3,,,,,,,,,,,,,,,,,,,,,,,,,,,,,,,,,,,,,,,,,,,,,,,,,,,,
,,,,,,,,,,,,,,,89579,001,2022-04-25_16h19.54.787,SPAMnetsValid,2021.1.4,MacIntel,57.14285714,,,,,,,,,,,,,,,,,,,,,,,,,4,20.396,0,1,1,1,1,raucous,empty,quiet,smooth,harsh,4,,,,,,,,,,,,,,,,,,,,,,,,,,,,,,,,,,,,,,,,,,,,,,,,,,,,
,,,,,,,,,,,,,,,89579,001,2022-04-25_16h19.54.787,SPAMnetsValid,2021.1.4,MacIntel,57.14285714,,,,,,,,,,,,,,,,,,,,,,,,,3,12.896,0,2,2,2,1,gargoyle,oil,medicine,carved waterspout,ugly building,3,,,,,,,,,,,,,,,,,,,,,,,,,,,,,,,,,,,,,,,,,,,,,,,,,,,,
,,,,,,,,,,,,,,,89579,001,2022-04-25_16h19.54.787,SPAMnetsValid,2021.1.4,MacIntel,57.14285714,,,,,,,,,,,,,,,,,,,,,,,,,2,21.714,0,3,3,3,1,recrudesce,purify,renew activity,lack refinement,crush,2,,,,,,,,,,,,,,,,,,,,,,,,,,,,,,,,,,,,,,,,,,,,,,,,,,,,
,,,,,,,,,,,,,,,89579,001,2022-04-25_16h19.54.787,SPAMnetsValid,2021.1.4,MacIntel,57.14285714,,,,,,,,,,,,,,,,,,,,,,,,,3,4.847,0,4,4,4,1,specious,"plausible, but not genuine",noteworthy,class or variety,roomy,1,,,,,,,,,,,,,,,,,,,,,,,,,,,,,,,,,,,,,,,,,,,,,,,,,,,,
,,,,,,,,,,,,,,,89579,001,2022-04-25_16h19.54.787,SPAMnetsValid,2021.1.4,MacIntel,57.14285714,,,,,,,,,,,,,,,,,,,,,,,,,2,44.745,0,5,5,5,1,bauble,bubble,showy plaything,idle talk,confusion,2,,,,,,,,,,,,,,,,,,,,,,,,,,,,,,,,,,,,,,,,,,,,,,,,,,,,
,,,,,,,,,,,,,,,89579,001,2022-04-25_16h19.54.787,SPAMnetsValid,2021.1.4,MacIntel,57.14285714,,,,,,,,,,,,,,,,,,,,,,,,,4,5.043,0,6,6,6,1,prolific,scarce,producing abundantly,reckless,speaking profanely,2,,,,,,,,,,,,,,,,,,,,,,,,,,,,,,,,,,,,,,,,,,,,,,,,,,,,
,,,,,,,,,,,,,,,89579,001,2022-04-25_16h19.54.787,SPAMnetsValid,2021.1.4,MacIntel,57.14285714,,,,,,,,,,,,,,,,,,,,,,,,,2,11.965,0,7,7,7,1,opulent,party,wealthy,happy frame of mind,semiprecious stone,2,,,,,,,,,,,,,,,,,,,,,,,,,,,,,,,,,,,,,,,,,,,,,,,,,,,,
,,,,,,,,,,,,,,,89579,001,2022-04-25_16h19.54.787,SPAMnetsValid,2021.1.4,MacIntel,57.14285714,,,,,,,,,,,,,,,,,,,,,,,,,2,4.347,0,8,8,8,1,coercion,conspiracy,strategy,restraint,attraction,3,,,,,,,,,,,,,,,,,,,,,,,,,,,,,,,,,,,,,,,,,,,,,,,,,,,,
,,,,,,,,,,,,,,,89579,001,2022-04-25_16h19.54.787,SPAMnetsValid,2021.1.4,MacIntel,57.14285714,,,,,,,,,,,,,,,,,,,,,,,,,4,3.147,0,9,9,9,1,hiatus,animal,calamity,dread,gap,4,,,,,,,,,,,,,,,,,,,,,,,,,,,,,,,,,,,,,,,,,,,,,,,,,,,,
,,,,,,,,,,,,,,,89579,001,2022-04-25_16h19.54.787,SPAMnetsValid,2021.1.4,MacIntel,57.14285714,,,,,,,,,,,,,,,,,,,,,,,,,3,53.113,0,10,10,10,1,germane,microbe,contagious,relevant,different,3,,,,,,,,,,,,,,,,,,,,,,,,,,,,,,,,,,,,,,,,,,,,,,,,,,,,
,,,,,,,,,,,,,,,89579,001,2022-04-25_16h19.54.787,SPAMnetsValid,2021.1.4,MacIntel,57.14285714,,,,,,,,,,,,,,,,,,,,,,,,,3,77.697,0,11,11,11,1,perfunctory,fundamental,formal,superficial,careful,3,,,,,,,,,,,,,,,,,,,,,,,,,,,,,,,,,,,,,,,,,,,,,,,,,,,,
,,,,,,,,,,,,,,,89579,001,2022-04-25_16h19.54.787,SPAMnetsValid,2021.1.4,MacIntel,57.14285714,,,,,,,,,,,,,,,,,,,,,,,,,4,3.613,0,12,12,12,1,diverge,reveal,chant,distract the attention of,differ or turn off from,4,,,,,,,,,,,,,,,,,,,,,,,,,,,,,,,,,,,,,,,,,,,,,,,,,,,,
,,,,,,,,,,,,,,,89579,001,2022-04-25_16h19.54.787,SPAMnetsValid,2021.1.4,MacIntel,57.14285714,,,,,,,,,,,,,,,,,,,,,,,,,4,3.081,0,13,13,13,1,evoke,take away,anger,connect,bring out,4,,,,,,,,,,,,,,,,,,,,,,,,,,,,,,,,,,,,,,,,,,,,,,,,,,,,
,,,,,,,,,,,,,,,89579,001,2022-04-25_16h19.54.787,SPAMnetsValid,2021.1.4,MacIntel,57.14285714,,,,,,,,,,,,,,,,,,,,,,,,,1,20.814,0,14,14,14,1,pertinent,relevant,lying next to,necessary,bold,1,,,,,,,,,,,,,,,,,,,,,,,,,,,,,,,,,,,,,,,,,,,,,,,,,,,,
,,,,,,,,,,,,,,,89579,001,2022-04-25_16h19.54.787,SPAMnetsValid,2021.1.4,MacIntel,57.14285714,,,,,,,,,,,,,,,,,,,,,,,,,2,9.396,0,15,15,15,1,holocaust,entirety,destruction,saintly,price,2,,,,,,,,,,,,,,,,,,,,,,,,,,,,,,,,,,,,,,,,,,,,,,,,,,,,
,,,,,,,,,,,,,,,89579,001,2022-04-25_16h19.54.787,SPAMnetsValid,2021.1.4,MacIntel,57.14285714,,,,,,,,,,,,,,,,,,,,,,,,,3,18.296,0,16,16,16,1,piquant,mellow,fish,pungent,cloth,3,,,,,,,,,,,,,,,,,,,,,,,,,,,,,,,,,,,,,,,,,,,,,,,,,,,,
,,,,,,,,,,,,,,,89579,001,2022-04-25_16h19.54.787,SPAMnetsValid,2021.1.4,MacIntel,57.14285714,,,,,,,,,,,,,,,,,,,,,,,,,3,34.696,0,17,17,17,1,firmament,foundation,heavens,strong,glue,2,,,,,,,,,,,,,,,,,,,,,,,,,,,,,,,,,,,,,,,,,,,,,,,,,,,,
,,,,,,,,,,,,,,,89579,001,2022-04-25_16h19.54.787,SPAMnetsValid,2021.1.4,MacIntel,57.14285714,,,,,,,,,,,,,,,,,,,,,,,,,,,,,,,,,,,,,,4,4.119,0,0,0,0,1,marketable,partisan,jocular,marriageable,salable,essential,4,,,,,,,,,,,,,,,,,,,,,,,,,,,,,,,,,,,,,,
,,,,,,,,,,,,,,,89579,001,2022-04-25_16h19.54.787,SPAMnetsValid,2021.1.4,MacIntel,57.14285714,,,,,,,,,,,,,,,,,,,,,,,,,,,,,,,,,,,,,,5,4.545,0,1,1,1,1,cottontail,squirrel,poplar,boa,marshy plant,rabbit,5,,,,,,,,,,,,,,,,,,,,,,,,,,,,,,,,,,,,,,
,,,,,,,,,,,,,,,89579,001,2022-04-25_16h19.54.787,SPAMnetsValid,2021.1.4,MacIntel,57.14285714,,,,,,,,,,,,,,,,,,,,,,,,,,,,,,,,,,,,,,3,2.18,0,2,2,2,1,boggy,afraid,false,marshy,dense,black,3,,,,,,,,,,,,,,,,,,,,,,,,,,,,,,,,,,,,,,
,,,,,,,,,,,,,,,89579,001,2022-04-25_16h19.54.787,SPAMnetsValid,2021.1.4,MacIntel,57.14285714,,,,,,,,,,,,,,,,,,,,,,,,,,,,,,,,,,,,,,5,3.663,0,3,3,3,1,gruesomeness,blackness,falseness,vindictiveness,drunkenness,ghastliness,5,,,,,,,,,,,,,,,,,,,,,,,,,,,,,,,,,,,,,,
,,,,,,,,,,,,,,,89579,001,2022-04-25_16h19.54.787,SPAMnetsValid,2021.1.4,MacIntel,57.14285714,,,,,,,,,,,,,,,,,,,,,,,,,,,,,,,,,,,,,,3,2.562,0,4,4,4,1,loathing,diffidence,laziness,abhorrence,cleverness,comfort,3,,,,,,,,,,,,,,,,,,,,,,,,,,,,,,,,,,,,,,
,,,,,,,,,,,,,,,89579,001,2022-04-25_16h19.54.787,SPAMnetsValid,2021.1.4,MacIntel,57.14285714,,,,,,,,,,,,,,,,,,,,,,,,,,,,,,,,,,,,,,1,13.565,0,5,5,5,1,bantam,fowl,ridicule,cripple,vegetable,ensign,1,,,,,,,,,,,,,,,,,,,,,,,,,,,,,,,,,,,,,,
,,,,,,,,,,,,,,,89579,001,2022-04-25_16h19.54.787,SPAMnetsValid,2021.1.4,MacIntel,57.14285714,,,,,,,,,,,,,,,,,,,,,,,,,,,,,,,,,,,,,,1,2.878,0,6,6,6,1,evoke,wake up,surrender,reconnoiter,transcend,call forth,5,,,,,,,,,,,,,,,,,,,,,,,,,,,,,,,,,,,,,,
,,,,,,,,,,,,,,,89579,001,2022-04-25_16h19.54.787,SPAMnetsValid,2021.1.4,MacIntel,57.14285714,,,,,,,,,,,,,,,,,,,,,,,,,,,,,,,,,,,,,,4,7.58,0,7,7,7,1,unobtrusive,unintelligent,epileptic,illogical,lineal,modest,5,,,,,,,,,,,,,,,,,,,,,,,,,,,,,,,,,,,,,,
,,,,,,,,,,,,,,,89579,001,2022-04-25_16h19.54.787,SPAMnetsValid,2021.1.4,MacIntel,57.14285714,,,,,,,,,,,,,,,,,,,,,,,,,,,,,,,,,,,,,,4,2.829,0,8,8,8,1,terrain,ice cream,final test,tractor,area of ground,weight,4,,,,,,,,,,,,,,,,,,,,,,,,,,,,,,,,,,,,,,
,,,,,,,,,,,,,,,89579,001,2022-04-25_16h19.54.787,SPAMnetsValid,2021.1.4,MacIntel,57.14285714,,,,,,,,,,,,,,,,,,,,,,,,,,,,,,,,,,,,,,,,0,9,9,9,1,capriciousness,stubbornness,courage,whimsicality,amazement,greediness,3,,,,,,,,,,,,,,,,,,,,,,,,,,,,,,,,,,,,,,
,,,,,,,,,,,,,,,89579,001,2022-04-25_16h19.54.787,SPAMnetsValid,2021.1.4,MacIntel,57.14285714,,,,,,,,,,,,,,,,,,,,,,,,,,,,,,,,,,,,,,,,,,,,,,,,,,,,sandcastles,bucket,0,0,0,0,1,,,,,,,,,,,,,,,,,,,,,,,,,,,,,,,
,,,,,,,,,,,,,,,89579,001,2022-04-25_16h19.54.787,SPAMnetsValid,2021.1.4,MacIntel,57.14285714,,,,,,,,,,,,,,,,,,,,,,,,,,,,,,,,,,,,,,,,,,,,,,,,,,,,carry water,bucket,1,0,1,0,1,,,,,,,,,,,,,,,,,,,,,,,,,,,,,,,
,,,,,,,,,,,,,,,89579,001,2022-04-25_16h19.54.787,SPAMnetsValid,2021.1.4,MacIntel,57.14285714,,,,,,,,,,,,,,,,,,,,,,,,,,,,,,,,,,,,,,,,,,,,,,,,,,,,carry tools,bucket,2,0,2,0,1,,,,,,,,,,,,,,,,,,,,,,,,,,,,,,,
,,,,,,,,,,,,,,,89579,001,2022-04-25_16h19.54.787,SPAMnetsValid,2021.1.4,MacIntel,57.14285714,,,,,,,,,,,,,,,,,,,,,,,,,,,,,,,,,,,,,,,,,,,,,,,,,,,,use as a treat basket,bucket,3,0,3,0,1,,,,,,,,,,,,,,,,,,,,,,,,,,,,,,,
,,,,,,,,,,,,,,,89579,001,2022-04-25_16h19.54.787,SPAMnetsValid,2021.1.4,MacIntel,57.14285714,,,,,,,,,,,,,,,,,,,,,,,,,,,,,,,,,,,,,,,,,,,,,,,,,,,,hold fish,bucket,4,0,4,0,1,,,,,,,,,,,,,,,,,,,,,,,,,,,,,,,
,,,,,,,,,,,,,,,89579,001,2022-04-25_16h19.54.787,SPAMnetsValid,2021.1.4,MacIntel,57.14285714,,,,,,,,,,,,,,,,,,,,,,,,,,,,,,,,,,,,,,,,,,,,,,,,,,,,catch crabs,bucket,5,0,5,0,1,,,,,,,,,,,,,,,,,,,,,,,,,,,,,,,
,,,,,,,,,,,,,,,89579,001,2022-04-25_16h19.54.787,SPAMnetsValid,2021.1.4,MacIntel,57.14285714,,,,,,,,,,,,,,,,,,,,,,,,,,,,,,,,,,,,,,,,,,,,,,,,,,,,make a crab boil,bucket,6,0,6,0,1,,,,,,,,,,,,,,,,,,,,,,,,,,,,,,,
,,,,,,,,,,,,,,,89579,001,2022-04-25_16h19.54.787,SPAMnetsValid,2021.1.4,MacIntel,57.14285714,,,,,,,,,,,,,,,,,,,,,,,,,,,,,,,,,,,,,,,,,,,,,,,,,,,,carry other items,bucket,7,0,7,0,1,,,,,,,,,,,,,,,,,,,,,,,,,,,,,,,
,,,,,,,,,,,,,,,89579,001,2022-04-25_16h19.54.787,SPAMnetsValid,2021.1.4,MacIntel,57.14285714,,,,,,,,,,,,,,,,,,,,,,,,,,,,,,,,,,,,,,,,,,,,,,,,,,,,,,,,,,,0,0,0,0,1,bucket,,,,,,,,,,,,,,,,,,,,,,,,,
,,,,,,,,,,,,,,,89579,001,2022-04-25_16h19.54.787,SPAMnetsValid,2021.1.4,MacIntel,57.14285714,,,,,,,,,,,,,,,,,,,,,,,,,,,,,,,,,,,,,,,,,,,,,,,,,,,,to sleep on,pillow,0,0,0,0,1,,,,,,,,,,,,,,,,,,,,,,,,,,,,,,,
,,,,,,,,,,,,,,,89579,001,2022-04-25_16h19.54.787,SPAMnetsValid,2021.1.4,MacIntel,57.14285714,,,,,,,,,,,,,,,,,,,,,,,,,,,,,,,,,,,,,,,,,,,,,,,,,,,,to carry halloween candy,pillow,1,0,1,0,1,,,,,,,,,,,,,,,,,,,,,,,,,,,,,,,
,,,,,,,,,,,,,,,89579,001,2022-04-25_16h19.54.787,SPAMnetsValid,2021.1.4,MacIntel,57.14285714,,,,,,,,,,,,,,,,,,,,,,,,,,,,,,,,,,,,,,,,,,,,,,,,,,,,use as support for lifting up foot ,pillow,2,0,2,0,1,,,,,,,,,,,,,,,,,,,,,,,,,,,,,,,
,,,,,,,,,,,,,,,89579,001,2022-04-25_16h19.54.787,SPAMnetsValid,2021.1.4,MacIntel,57.14285714,,,,,,,,,,,,,,,,,,,,,,,,,,,,,,,,,,,,,,,,,,,,,,,,,,,,pillow fort,pillow,3,0,3,0,1,,,,,,,,,,,,,,,,,,,,,,,,,,,,,,,
,,,,,,,,,,,,,,,89579,001,2022-04-25_16h19.54.787,SPAMnetsValid,2021.1.4,MacIntel,57.14285714,,,,,,,,,,,,,,,,,,,,,,,,,,,,,,,,,,,,,,,,,,,,,,,,,,,,use for cramps support,pillow,4,0,4,0,1,,,,,,,,,,,,,,,,,,,,,,,,,,,,,,,
,,,,,,,,,,,,,,,89579,001,2022-04-25_16h19.54.787,SPAMnetsValid,2021.1.4,MacIntel,57.14285714,,,,,,,,,,,,,,,,,,,,,,,,,,,,,,,,,,,,,,,,,,,,,,,,,,,,ghost costume,pillow,5,0,5,0,1,,,,,,,,,,,,,,,,,,,,,,,,,,,,,,,
,,,,,,,,,,,,,,,89579,001,2022-04-25_16h19.54.787,SPAMnetsValid,2021.1.4,MacIntel,57.14285714,,,,,,,,,,,,,,,,,,,,,,,,,,,,,,,,,,,,,,,,,,,,,,,,,,,,carry child in,pillow,6,0,6,0,1,,,,,,,,,,,,,,,,,,,,,,,,,,,,,,,
,,,,,,,,,,,,,,,89579,001,2022-04-25_16h19.54.787,SPAMnetsValid,2021.1.4,MacIntel,57.14285714,,,,,,,,,,,,,,,,,,,,,,,,,,,,,,,,,,,,,,,,,,,,,,,,,,,,slide down a hill,pillow,7,0,7,0,1,,,,,,,,,,,,,,,,,,,,,,,,,,,,,,,
,,,,,,,,,,,,,,,89579,001,2022-04-25_16h19.54.787,SPAMnetsValid,2021.1.4,MacIntel,57.14285714,,,,,,,,,,,,,,,,,,,,,,,,,,,,,,,,,,,,,,,,,,,,,,,,,,,,pillow races,pillow,8,0,8,0,1,,,,,,,,,,,,,,,,,,,,,,,,,,,,,,,
,,,,,,,,,,,,,,,89579,001,2022-04-25_16h19.54.787,SPAMnetsValid,2021.1.4,MacIntel,57.14285714,,,,,,,,,,,,,,,,,,,,,,,,,,,,,,,,,,,,,,,,,,,,,,,,,,,,,,,,,,,0,1,1,2,1,pillow,,,,,,,,,,,,,,,,,,,,,,,,,
,,,,,,,,,,,,,,,89579,001,2022-04-25_16h19.54.787,SPAMnetsValid,2021.1.4,MacIntel,57.14285714,,,,,,,,,,,,,,,,,,,,,,,,,,,,,,,,,,,,,,,,,,,,,,,,,,,,warmth,candle,0,0,0,0,1,,,,,,,,,,,,,,,,,,,,,,,,,,,,,,,
,,,,,,,,,,,,,,,89579,001,2022-04-25_16h19.54.787,SPAMnetsValid,2021.1.4,MacIntel,57.14285714,,,,,,,,,,,,,,,,,,,,,,,,,,,,,,,,,,,,,,,,,,,,,,,,,,,,use wax to seal letters,candle,1,0,1,0,1,,,,,,,,,,,,,,,,,,,,,,,,,,,,,,,
,,,,,,,,,,,,,,,89579,001,2022-04-25_16h19.54.787,SPAMnetsValid,2021.1.4,MacIntel,57.14285714,,,,,,,,,,,,,,,,,,,,,,,,,,,,,,,,,,,,,,,,,,,,,,,,,,,,use as room decor,candle,2,0,2,0,1,,,,,,,,,,,,,,,,,,,,,,,,,,,,,,,
,,,,,,,,,,,,,,,89579,001,2022-04-25_16h19.54.787,SPAMnetsValid,2021.1.4,MacIntel,57.14285714,,,,,,,,,,,,,,,,,,,,,,,,,,,,,,,,,,,,,,,,,,,,,,,,,,,,use in religious ceremonies,candle,3,0,3,0,1,,,,,,,,,,,,,,,,,,,,,,,,,,,,,,,
,,,,,,,,,,,,,,,89579,001,2022-04-25_16h19.54.787,SPAMnetsValid,2021.1.4,MacIntel,57.14285714,,,,,,,,,,,,,,,,,,,,,,,,,,,,,,,,,,,,,,,,,,,,,,,,,,,,use to burn pieces of paper,candle,4,0,4,0,1,,,,,,,,,,,,,,,,,,,,,,,,,,,,,,,
,,,,,,,,,,,,,,,89579,001,2022-04-25_16h19.54.787,SPAMnetsValid,2021.1.4,MacIntel,57.14285714,,,,,,,,,,,,,,,,,,,,,,,,,,,,,,,,,,,,,,,,,,,,,,,,,,,,celebration,candle,5,0,5,0,1,,,,,,,,,,,,,,,,,,,,,,,,,,,,,,,
,,,,,,,,,,,,,,,89579,001,2022-04-25_16h19.54.787,SPAMnetsValid,2021.1.4,MacIntel,57.14285714,,,,,,,,,,,,,,,,,,,,,,,,,,,,,,,,,,,,,,,,,,,,,,,,,,,,,,,,,,,0,2,2,1,1,candle,,,,,,,,,,,,,,,,,,,,,,,,,
,,,,,,,,,,,,,,,89579,001,2022-04-25_16h19.54.787,SPAMnetsValid,2021.1.4,MacIntel,57.14285714,,,,,,,,,,,,,,,,,,,,,,,,,,,,,,,,,,,,,,,,,,,,,,,,,,,,,,,,,,,,,,,,,cheetahs,Animals,0,0,0,0,1,,,,,,,,,,,,,,,,,,
,,,,,,,,,,,,,,,89579,001,2022-04-25_16h19.54.787,SPAMnetsValid,2021.1.4,MacIntel,57.14285714,,,,,,,,,,,,,,,,,,,,,,,,,,,,,,,,,,,,,,,,,,,,,,,,,,,,,,,,,,,,,,,,,elephants,Animals,1,0,1,0,1,,,,,,,,,,,,,,,,,,
,,,,,,,,,,,,,,,89579,001,2022-04-25_16h19.54.787,SPAMnetsValid,2021.1.4,MacIntel,57.14285714,,,,,,,,,,,,,,,,,,,,,,,,,,,,,,,,,,,,,,,,,,,,,,,,,,,,,,,,,,,,,,,,,tigers,Animals,2,0,2,0,1,,,,,,,,,,,,,,,,,,
,,,,,,,,,,,,,,,89579,001,2022-04-25_16h19.54.787,SPAMnetsValid,2021.1.4,MacIntel,57.14285714,,,,,,,,,,,,,,,,,,,,,,,,,,,,,,,,,,,,,,,,,,,,,,,,,,,,,,,,,,,,,,,,,lions,Animals,3,0,3,0,1,,,,,,,,,,,,,,,,,,
,,,,,,,,,,,,,,,89579,001,2022-04-25_16h19.54.787,SPAMnetsValid,2021.1.4,MacIntel,57.14285714,,,,,,,,,,,,,,,,,,,,,,,,,,,,,,,,,,,,,,,,,,,,,,,,,,,,,,,,,,,,,,,,,monkeys,Animals,4,0,4,0,1,,,,,,,,,,,,,,,,,,
,,,,,,,,,,,,,,,89579,001,2022-04-25_16h19.54.787,SPAMnetsValid,2021.1.4,MacIntel,57.14285714,,,,,,,,,,,,,,,,,,,,,,,,,,,,,,,,,,,,,,,,,,,,,,,,,,,,,,,,,,,,,,,,,bears,Animals,5,0,5,0,1,,,,,,,,,,,,,,,,,,
,,,,,,,,,,,,,,,89579,001,2022-04-25_16h19.54.787,SPAMnetsValid,2021.1.4,MacIntel,57.14285714,,,,,,,,,,,,,,,,,,,,,,,,,,,,,,,,,,,,,,,,,,,,,,,,,,,,,,,,,,,,,,,,,zebras,Animals,6,0,6,0,1,,,,,,,,,,,,,,,,,,
,,,,,,,,,,,,,,,89579,001,2022-04-25_16h19.54.787,SPAMnetsValid,2021.1.4,MacIntel,57.14285714,,,,,,,,,,,,,,,,,,,,,,,,,,,,,,,,,,,,,,,,,,,,,,,,,,,,,,,,,,,,,,,,,giraffes,Animals,7,0,7,0,1,,,,,,,,,,,,,,,,,,
,,,,,,,,,,,,,,,89579,001,2022-04-25_16h19.54.787,SPAMnetsValid,2021.1.4,MacIntel,57.14285714,,,,,,,,,,,,,,,,,,,,,,,,,,,,,,,,,,,,,,,,,,,,,,,,,,,,,,,,,,,,,,,,,pigs,Animals,8,0,8,0,1,,,,,,,,,,,,,,,,,,
,,,,,,,,,,,,,,,89579,001,2022-04-25_16h19.54.787,SPAMnetsValid,2021.1.4,MacIntel,57.14285714,,,,,,,,,,,,,,,,,,,,,,,,,,,,,,,,,,,,,,,,,,,,,,,,,,,,,,,,,,,,,,,,,penguins,Animals,9,0,9,0,1,,,,,,,,,,,,,,,,,,
,,,,,,,,,,,,,,,89579,001,2022-04-25_16h19.54.787,SPAMnetsValid,2021.1.4,MacIntel,57.14285714,,,,,,,,,,,,,,,,,,,,,,,,,,,,,,,,,,,,,,,,,,,,,,,,,,,,,,,,,,,,,,,,,antelope,Animals,10,0,10,0,1,,,,,,,,,,,,,,,,,,
,,,,,,,,,,,,,,,89579,001,2022-04-25_16h19.54.787,SPAMnetsValid,2021.1.4,MacIntel,57.14285714,,,,,,,,,,,,,,,,,,,,,,,,,,,,,,,,,,,,,,,,,,,,,,,,,,,,,,,,,,,,,,,,,rhino,Animals,11,0,11,0,1,,,,,,,,,,,,,,,,,,
,,,,,,,,,,,,,,,89579,001,2022-04-25_16h19.54.787,SPAMnetsValid,2021.1.4,MacIntel,57.14285714,,,,,,,,,,,,,,,,,,,,,,,,,,,,,,,,,,,,,,,,,,,,,,,,,,,,,,,,,,,,,,,,,meerkat,Animals,12,0,12,0,1,,,,,,,,,,,,,,,,,,
,,,,,,,,,,,,,,,89579,001,2022-04-25_16h19.54.787,SPAMnetsValid,2021.1.4,MacIntel,57.14285714,,,,,,,,,,,,,,,,,,,,,,,,,,,,,,,,,,,,,,,,,,,,,,,,,,,,,,,,,,,,,,,,,kangaroo rat,Animals,13,0,13,0,1,,,,,,,,,,,,,,,,,,
,,,,,,,,,,,,,,,89579,001,2022-04-25_16h19.54.787,SPAMnetsValid,2021.1.4,MacIntel,57.14285714,,,,,,,,,,,,,,,,,,,,,,,,,,,,,,,,,,,,,,,,,,,,,,,,,,,,,,,,,,,,,,,,,snake,Animals,14,0,14,0,1,,,,,,,,,,,,,,,,,,
,,,,,,,,,,,,,,,89579,001,2022-04-25_16h19.54.787,SPAMnetsValid,2021.1.4,MacIntel,57.14285714,,,,,,,,,,,,,,,,,,,,,,,,,,,,,,,,,,,,,,,,,,,,,,,,,,,,,,,,,,,,,,,,,lizard,Animals,15,0,15,0,1,,,,,,,,,,,,,,,,,,
,,,,,,,,,,,,,,,89579,001,2022-04-25_16h19.54.787,SPAMnetsValid,2021.1.4,MacIntel,57.14285714,,,,,,,,,,,,,,,,,,,,,,,,,,,,,,,,,,,,,,,,,,,,,,,,,,,,,,,,,,,,,,,,,frog,Animals,16,0,16,0,1,,,,,,,,,,,,,,,,,,
,,,,,,,,,,,,,,,89579,001,2022-04-25_16h19.54.787,SPAMnetsValid,2021.1.4,MacIntel,57.14285714,,,,,,,,,,,,,,,,,,,,,,,,,,,,,,,,,,,,,,,,,,,,,,,,,,,,,,,,,,,,,,,,,whale,Animals,17,0,17,0,1,,,,,,,,,,,,,,,,,,
,,,,,,,,,,,,,,,89579,001,2022-04-25_16h19.54.787,SPAMnetsValid,2021.1.4,MacIntel,57.14285714,,,,,,,,,,,,,,,,,,,,,,,,,,,,,,,,,,,,,,,,,,,,,,,,,,,,,,,,,,,,,,,,,parrot,Animals,18,0,18,0,1,,,,,,,,,,,,,,,,,,
,,,,,,,,,,,,,,,89579,001,2022-04-25_16h19.54.787,SPAMnetsValid,2021.1.4,MacIntel,57.14285714,,,,,,,,,,,,,,,,,,,,,,,,,,,,,,,,,,,,,,,,,,,,,,,,,,,,,,,,,,,,,,,,,,,,,,,,0,0,0,0,1,Animals,,,,,,,,,,,,
,,,,,,,,,,,,,,,89579,001,2022-04-25_16h19.54.787,SPAMnetsValid,2021.1.4,MacIntel,57.14285714,,,,,,,,,,,,,,,,,,,,,,,,,,,,,,,,,,,,,,,,,,,,,,,,,,,,,,,,,,,,,,,,,,,,,,,,,,,,,,4,3.97,0,0,0,0,1,"I enjoy concentrating on a fantasy or daydream and exploring all its possibilities, letting it grow and develop.",0,1,,
,,,,,,,,,,,,,,,89579,001,2022-04-25_16h19.54.787,SPAMnetsValid,2021.1.4,MacIntel,57.14285714,,,,,,,,,,,,,,,,,,,,,,,,,,,,,,,,,,,,,,,,,,,,,,,,,,,,,,,,,,,,,,,,,,,,,,,,,,,,,,4,4.096,0,1,1,1,1,I think it's interesting to learn and develop new hobbies.,0,2,,
,,,,,,,,,,,,,,,89579,001,2022-04-25_16h19.54.787,SPAMnetsValid,2021.1.4,MacIntel,57.14285714,,,,,,,,,,,,,,,,,,,,,,,,,,,,,,,,,,,,,,,,,,,,,,,,,,,,,,,,,,,,,,,,,,,,,,,,,,,,,,5,14.312,0,2,2,2,1,I am intrigued by the patterns I find in art and nature.,0,3,,
,,,,,,,,,,,,,,,89579,001,2022-04-25_16h19.54.787,SPAMnetsValid,2021.1.4,MacIntel,57.14285714,,,,,,,,,,,,,,,,,,,,,,,,,,,,,,,,,,,,,,,,,,,,,,,,,,,,,,,,,,,,,,,,,,,,,,,,,,,,,,3,8.065,0,3,3,3,1,I believe letting students hear controversial speakers can only confuse and mislead them.,1,4,,
,,,,,,,,,,,,,,,89579,001,2022-04-25_16h19.54.787,SPAMnetsValid,2021.1.4,MacIntel,57.14285714,,,,,,,,,,,,,,,,,,,,,,,,,,,,,,,,,,,,,,,,,,,,,,,,,,,,,,,,,,,,,,,,,,,,,,,,,,,,,,1,11.127,0,4,4,4,1,Poetry has little or no effect on me.,1,5,,
,,,,,,,,,,,,,,,89579,001,2022-04-25_16h19.54.787,SPAMnetsValid,2021.1.4,MacIntel,57.14285714,,,,,,,,,,,,,,,,,,,,,,,,,,,,,,,,,,,,,,,,,,,,,,,,,,,,,,,,,,,,,,,,,,,,,,,,,,,,,,1,9.698,0,5,5,5,1,I would have difficulty just letting my mind wander without control or guidance.,1,6,,
,,,,,,,,,,,,,,,89579,001,2022-04-25_16h19.54.787,SPAMnetsValid,2021.1.4,MacIntel,57.14285714,,,,,,,,,,,,,,,,,,,,,,,,,,,,,,,,,,,,,,,,,,,,,,,,,,,,,,,,,,,,,,,,,,,,,,,,,,,,,,1,3.464,0,6,6,6,1,I seldom notice the moods or feelings that different environments produce.,1,7,,
,,,,,,,,,,,,,,,89579,001,2022-04-25_16h19.54.787,SPAMnetsValid,2021.1.4,MacIntel,57.14285714,,,,,,,,,,,,,,,,,,,,,,,,,,,,,,,,,,,,,,,,,,,,,,,,,,,,,,,,,,,,,,,,,,,,,,,,,,,,,,5,3.663,0,7,7,7,1,I experience a wide range of emotions or feelings.,0,8,,
,,,,,,,,,,,,,,,89579,001,2022-04-25_16h19.54.787,SPAMnetsValid,2021.1.4,MacIntel,57.14285714,,,,,,,,,,,,,,,,,,,,,,,,,,,,,,,,,,,,,,,,,,,,,,,,,,,,,,,,,,,,,,,,,,,,,,,,,,,,,,5,2.664,0,8,8,8,1,"Sometimes when I am reading poetry or looking at a work of art, I feel a chill or wave of excitement.",0,9,,
,,,,,,,,,,,,,,,89579,001,2022-04-25_16h19.54.787,SPAMnetsValid,2021.1.4,MacIntel,57.14285714,,,,,,,,,,,,,,,,,,,,,,,,,,,,,,,,,,,,,,,,,,,,,,,,,,,,,,,,,,,,,,,,,,,,,,,,,,,,,,1,16.031,0,9,9,9,1,I have little interest in speculating on the nature of the universe or the human condition.,1,10,,
,,,,,,,,,,,,,,,89579,001,2022-04-25_16h19.54.787,SPAMnetsValid,2021.1.4,MacIntel,57.14285714,,,,,,,,,,,,,,,,,,,,,,,,,,,,,,,,,,,,,,,,,,,,,,,,,,,,,,,,,,,,,,,,,,,,,,,,,,,,,,4,2.68,0,10,10,10,1,I have a lot of intellectual curiosity.,0,11,,
,,,,,,,,,,,,,,,89579,001,2022-04-25_16h19.54.787,SPAMnetsValid,2021.1.4,MacIntel,57.14285714,,,,,,,,,,,,,,,,,,,,,,,,,,,,,,,,,,,,,,,,,,,,,,,,,,,,,,,,,,,,,,,,,,,,,,,,,,,,,,4,1.647,0,11,11,11,1,I often enjoy playing with theories or abstract ideas.,0,12,,
,,,,,,,,,,,,,,,89579,001,2022-04-25_16h19.54.787,SPAMnetsValid,2021.1.4,MacIntel,57.14285714,,,,,,,,,,,,,,,,,,,,,,,,,,,,,,,,,,,,,,,,,,,,,,,,,,,,,,,,,,,,,,,,,,,,,,,,,,,,,,,,,,,,,,,,return,9.303
