key_resp_3.keys,key_resp_3.rt,slider.response,slider.rt,rjt_rating,rjt_RT,trials_22.thisRepN,trials_22.thisTrialN,trials_22.thisN,trials_22.thisIndex,trials_22.ran,rjt_order,word1,word2,attention,participant,session,date,expName,psychopyVersion,OS,frameRate,trials_99.thisRepN,trials_99.thisTrialN,trials_99.thisN,trials_99.thisIndex,trials_99.ran,trials_5.thisRepN,trials_5.thisTrialN,trials_5.thisN,trials_5.thisIndex,trials_5.ran,repOne,repTwo,slider_2.response,slider_2.rt,trials_24.thisRepN,trials_24.thisTrialN,trials_24.thisN,trials_24.thisIndex,trials_24.ran,trials_4.thisRepN,trials_4.thisTrialN,trials_4.thisN,trials_4.thisIndex,trials_4.ran,slider_extend_2.response,slider_extend_2.rt,trials_6.thisRepN,trials_6.thisTrialN,trials_6.thisN,trials_6.thisIndex,trials_6.ran,vCue2,R1,R2,R3,R4,correct,sliderVocab.response,sliderVocab.rt,trials_7.thisRepN,trials_7.thisTrialN,trials_7.thisN,trials_7.thisIndex,trials_7.ran,VocabCue,VR1,VR2,VR3,VR4,VR5,VocabCorrect,AUT_resp,AUT_label,trials.thisRepN,trials.thisTrialN,trials.thisN,trials.thisIndex,trials.ran,trials_2.thisRepN,trials_2.thisTrialN,trials_2.thisN,trials_2.thisIndex,trials_2.ran,aut_prompt,VF_response,VF_tag,trials_16.thisRepN,trials_16.thisTrialN,trials_16.thisN,trials_16.thisIndex,trials_16.ran,trials_17.thisRepN,trials_17.thisTrialN,trials_17.thisN,trials_17.thisIndex,trials_17.ran,VFcond,open_slider.response,open_slider.rt,trials_3.thisRepN,trials_3.thisTrialN,trials_3.thisN,trials_3.thisIndex,trials_3.ran,OpenQ,Rev,OPEN_ORDER,key_resp_2.keys,key_resp_2.rt
return,10.4623,3,15.0445,3,15.0445,0,0,0,11,1,37,garden,refrigerator,,89584,001,2022-04-27_00h45.10.600,SPAMnetsValid,2021.1.4,Linux aarch64,59.87665409,,,,,,,,,,,,,,,,,,,,,,,,,,,,,,,,,,,,,,,,,,,,,,,,,,,,,,,,,,,,,,,,,,,,,,,,,,,,,,,,,,,,,,,,,
,,2,3.0933,2,3.0933,0,1,1,68,1,24,cookie,tomato,,89584,001,2022-04-27_00h45.10.600,SPAMnetsValid,2021.1.4,Linux aarch64,59.87665409,,,,,,,,,,,,,,,,,,,,,,,,,,,,,,,,,,,,,,,,,,,,,,,,,,,,,,,,,,,,,,,,,,,,,,,,,,,,,,,,,,,,,,,,,
,,4,15.0452,4,15.0452,0,2,2,18,1,85,cake,tree,,89584,001,2022-04-27_00h45.10.600,SPAMnetsValid,2021.1.4,Linux aarch64,59.87665409,,,,,,,,,,,,,,,,,,,,,,,,,,,,,,,,,,,,,,,,,,,,,,,,,,,,,,,,,,,,,,,,,,,,,,,,,,,,,,,,,,,,,,,,,
,,2,3.9781,2,3.9781,0,3,3,54,1,28,cake,melon,,89584,001,2022-04-27_00h45.10.600,SPAMnetsValid,2021.1.4,Linux aarch64,59.87665409,,,,,,,,,,,,,,,,,,,,,,,,,,,,,,,,,,,,,,,,,,,,,,,,,,,,,,,,,,,,,,,,,,,,,,,,,,,,,,,,,,,,,,,,,
,,6,5.34,6,5.34,0,4,4,39,1,15,onion,oven,,89584,001,2022-04-27_00h45.10.600,SPAMnetsValid,2021.1.4,Linux aarch64,59.87665409,,,,,,,,,,,,,,,,,,,,,,,,,,,,,,,,,,,,,,,,,,,,,,,,,,,,,,,,,,,,,,,,,,,,,,,,,,,,,,,,,,,,,,,,,
,,2,2.3727,2,2.3727,0,5,5,34,1,29,chocolate,melon,,89584,001,2022-04-27_00h45.10.600,SPAMnetsValid,2021.1.4,Linux aarch64,59.87665409,,,,,,,,,,,,,,,,,,,,,,,,,,,,,,,,,,,,,,,,,,,,,,,,,,,,,,,,,,,,,,,,,,,,,,,,,,,,,,,,,,,,,,,,,
,,1,2.9712,1,2.9712,0,6,6,85,1,90,cactus,cake,,89584,001,2022-04-27_00h45.10.600,SPAMnetsValid,2021.1.4,Linux aarch64,59.87665409,,,,,,,,,,,,,,,,,,,,,,,,,,,,,,,,,,,,,,,,,,,,,,,,,,,,,,,,,,,,,,,,,,,,,,,,,,,,,,,,,,,,,,,,,
,,3,77.6172,3,77.6172,0,7,7,29,1,42,garden,kitchen,,89584,001,2022-04-27_00h45.10.600,SPAMnetsValid,2021.1.4,Linux aarch64,59.87665409,,,,,,,,,,,,,,,,,,,,,,,,,,,,,,,,,,,,,,,,,,,,,,,,,,,,,,,,,,,,,,,,,,,,,,,,,,,,,,,,,,,,,,,,,
,,7,3.6565,7,3.6565,0,8,8,76,1,36,broom,kitchen,,89584,001,2022-04-27_00h45.10.600,SPAMnetsValid,2021.1.4,Linux aarch64,59.87665409,,,,,,,,,,,,,,,,,,,,,,,,,,,,,,,,,,,,,,,,,,,,,,,,,,,,,,,,,,,,,,,,,,,,,,,,,,,,,,,,,,,,,,,,,
,,6,2.9989,6,2.9989,0,9,9,15,1,48,flower,oven,,89584,001,2022-04-27_00h45.10.600,SPAMnetsValid,2021.1.4,Linux aarch64,59.87665409,,,,,,,,,,,,,,,,,,,,,,,,,,,,,,,,,,,,,,,,,,,,,,,,,,,,,,,,,,,,,,,,,,,,,,,,,,,,,,,,,,,,,,,,,
,,6,5.6387,6,5.6387,0,10,10,50,1,81,pretzel,yogurt,,89584,001,2022-04-27_00h45.10.600,SPAMnetsValid,2021.1.4,Linux aarch64,59.87665409,,,,,,,,,,,,,,,,,,,,,,,,,,,,,,,,,,,,,,,,,,,,,,,,,,,,,,,,,,,,,,,,,,,,,,,,,,,,,,,,,,,,,,,,,
,,7,3.2601,7,3.2601,0,11,11,22,1,16,chocolate,flower,,89584,001,2022-04-27_00h45.10.600,SPAMnetsValid,2021.1.4,Linux aarch64,59.87665409,,,,,,,,,,,,,,,,,,,,,,,,,,,,,,,,,,,,,,,,,,,,,,,,,,,,,,,,,,,,,,,,,,,,,,,,,,,,,,,,,,,,,,,,,
,,3,3.397,3,3.397,0,12,12,80,1,61,strawberry,tomato,,89584,001,2022-04-27_00h45.10.600,SPAMnetsValid,2021.1.4,Linux aarch64,59.87665409,,,,,,,,,,,,,,,,,,,,,,,,,,,,,,,,,,,,,,,,,,,,,,,,,,,,,,,,,,,,,,,,,,,,,,,,,,,,,,,,,,,,,,,,,
,,6,3.6657,6,3.6657,0,13,13,70,1,5,oven,tree,,89584,001,2022-04-27_00h45.10.600,SPAMnetsValid,2021.1.4,Linux aarch64,59.87665409,,,,,,,,,,,,,,,,,,,,,,,,,,,,,,,,,,,,,,,,,,,,,,,,,,,,,,,,,,,,,,,,,,,,,,,,,,,,,,,,,,,,,,,,,
,,7,2.3516,7,2.3516,0,14,14,20,1,39,melon,pretzel,,89584,001,2022-04-27_00h45.10.600,SPAMnetsValid,2021.1.4,Linux aarch64,59.87665409,,,,,,,,,,,,,,,,,,,,,,,,,,,,,,,,,,,,,,,,,,,,,,,,,,,,,,,,,,,,,,,,,,,,,,,,,,,,,,,,,,,,,,,,,
,,8,2.801,8,2.801,0,15,15,77,1,7,melon,tree,,89584,001,2022-04-27_00h45.10.600,SPAMnetsValid,2021.1.4,Linux aarch64,59.87665409,,,,,,,,,,,,,,,,,,,,,,,,,,,,,,,,,,,,,,,,,,,,,,,,,,,,,,,,,,,,,,,,,,,,,,,,,,,,,,,,,,,,,,,,,
,,2,1.7512,2,1.7512,0,16,16,89,1,80,chocolate,tree,,89584,001,2022-04-27_00h45.10.600,SPAMnetsValid,2021.1.4,Linux aarch64,59.87665409,,,,,,,,,,,,,,,,,,,,,,,,,,,,,,,,,,,,,,,,,,,,,,,,,,,,,,,,,,,,,,,,,,,,,,,,,,,,,,,,,,,,,,,,,
,,3,2.877,3,2.877,0,17,17,24,1,17,carrot,melon,,89584,001,2022-04-27_00h45.10.600,SPAMnetsValid,2021.1.4,Linux aarch64,59.87665409,,,,,,,,,,,,,,,,,,,,,,,,,,,,,,,,,,,,,,,,,,,,,,,,,,,,,,,,,,,,,,,,,,,,,,,,,,,,,,,,,,,,,,,,,
,,3,3.0858,3,3.0858,0,18,18,52,1,4,chocolate,pretzel,,89584,001,2022-04-27_00h45.10.600,SPAMnetsValid,2021.1.4,Linux aarch64,59.87665409,,,,,,,,,,,,,,,,,,,,,,,,,,,,,,,,,,,,,,,,,,,,,,,,,,,,,,,,,,,,,,,,,,,,,,,,,,,,,,,,,,,,,,,,,
,,1,2.6456,1,2.6456,0,19,19,27,1,72,broom,onion,,89584,001,2022-04-27_00h45.10.600,SPAMnetsValid,2021.1.4,Linux aarch64,59.87665409,,,,,,,,,,,,,,,,,,,,,,,,,,,,,,,,,,,,,,,,,,,,,,,,,,,,,,,,,,,,,,,,,,,,,,,,,,,,,,,,,,,,,,,,,
,,1,2.0107,1,2.0107,0,20,20,31,1,33,oven,yogurt,,89584,001,2022-04-27_00h45.10.600,SPAMnetsValid,2021.1.4,Linux aarch64,59.87665409,,,,,,,,,,,,,,,,,,,,,,,,,,,,,,,,,,,,,,,,,,,,,,,,,,,,,,,,,,,,,,,,,,,,,,,,,,,,,,,,,,,,,,,,,
,,3,2.3555,3,2.3555,0,21,21,65,1,46,garden,yogurt,,89584,001,2022-04-27_00h45.10.600,SPAMnetsValid,2021.1.4,Linux aarch64,59.87665409,,,,,,,,,,,,,,,,,,,,,,,,,,,,,,,,,,,,,,,,,,,,,,,,,,,,,,,,,,,,,,,,,,,,,,,,,,,,,,,,,,,,,,,,,
,,2,2.7097,2,2.7097,0,22,22,92,1,44,cookie,melon,,89584,001,2022-04-27_00h45.10.600,SPAMnetsValid,2021.1.4,Linux aarch64,59.87665409,,,,,,,,,,,,,,,,,,,,,,,,,,,,,,,,,,,,,,,,,,,,,,,,,,,,,,,,,,,,,,,,,,,,,,,,,,,,,,,,,,,,,,,,,
,,3,1.5521,3,1.5521,0,23,23,78,1,30,cookie,pretzel,,89584,001,2022-04-27_00h45.10.600,SPAMnetsValid,2021.1.4,Linux aarch64,59.87665409,,,,,,,,,,,,,,,,,,,,,,,,,,,,,,,,,,,,,,,,,,,,,,,,,,,,,,,,,,,,,,,,,,,,,,,,,,,,,,,,,,,,,,,,,
,,3,3.2201,3,3.2201,0,24,24,94,1,68,flower,tomato,,89584,001,2022-04-27_00h45.10.600,SPAMnetsValid,2021.1.4,Linux aarch64,59.87665409,,,,,,,,,,,,,,,,,,,,,,,,,,,,,,,,,,,,,,,,,,,,,,,,,,,,,,,,,,,,,,,,,,,,,,,,,,,,,,,,,,,,,,,,,
,,1,2.6007,1,2.6007,0,25,25,74,1,70,chocolate,onion,,89584,001,2022-04-27_00h45.10.600,SPAMnetsValid,2021.1.4,Linux aarch64,59.87665409,,,,,,,,,,,,,,,,,,,,,,,,,,,,,,,,,,,,,,,,,,,,,,,,,,,,,,,,,,,,,,,,,,,,,,,,,,,,,,,,,,,,,,,,,
,,1,1.7737,1,1.7737,0,26,26,1,1,31,cactus,pretzel,,89584,001,2022-04-27_00h45.10.600,SPAMnetsValid,2021.1.4,Linux aarch64,59.87665409,,,,,,,,,,,,,,,,,,,,,,,,,,,,,,,,,,,,,,,,,,,,,,,,,,,,,,,,,,,,,,,,,,,,,,,,,,,,,,,,,,,,,,,,,
,,4,3.3638,4,3.3638,0,27,27,45,1,10,flower,onion,,89584,001,2022-04-27_00h45.10.600,SPAMnetsValid,2021.1.4,Linux aarch64,59.87665409,,,,,,,,,,,,,,,,,,,,,,,,,,,,,,,,,,,,,,,,,,,,,,,,,,,,,,,,,,,,,,,,,,,,,,,,,,,,,,,,,,,,,,,,,
,,6,3.6412,6,3.6412,0,28,28,59,1,8,broom,melon,,89584,001,2022-04-27_00h45.10.600,SPAMnetsValid,2021.1.4,Linux aarch64,59.87665409,,,,,,,,,,,,,,,,,,,,,,,,,,,,,,,,,,,,,,,,,,,,,,,,,,,,,,,,,,,,,,,,,,,,,,,,,,,,,,,,,,,,,,,,,
,,7,9.593,7,9.593,0,29,29,38,1,88,cactus,melon,,89584,001,2022-04-27_00h45.10.600,SPAMnetsValid,2021.1.4,Linux aarch64,59.87665409,,,,,,,,,,,,,,,,,,,,,,,,,,,,,,,,,,,,,,,,,,,,,,,,,,,,,,,,,,,,,,,,,,,,,,,,,,,,,,,,,,,,,,,,,
,,4,1.684,4,1.684,0,30,30,95,1,52,carrot,tomato,,89584,001,2022-04-27_00h45.10.600,SPAMnetsValid,2021.1.4,Linux aarch64,59.87665409,,,,,,,,,,,,,,,,,,,,,,,,,,,,,,,,,,,,,,,,,,,,,,,,,,,,,,,,,,,,,,,,,,,,,,,,,,,,,,,,,,,,,,,,,
,,5,2.1032,5,2.1032,0,31,31,35,1,55,tomato,tree,,89584,001,2022-04-27_00h45.10.600,SPAMnetsValid,2021.1.4,Linux aarch64,59.87665409,,,,,,,,,,,,,,,,,,,,,,,,,,,,,,,,,,,,,,,,,,,,,,,,,,,,,,,,,,,,,,,,,,,,,,,,,,,,,,,,,,,,,,,,,
,,6,3.6501,6,3.6501,0,32,32,25,1,23,flower,microwave,,89584,001,2022-04-27_00h45.10.600,SPAMnetsValid,2021.1.4,Linux aarch64,59.87665409,,,,,,,,,,,,,,,,,,,,,,,,,,,,,,,,,,,,,,,,,,,,,,,,,,,,,,,,,,,,,,,,,,,,,,,,,,,,,,,,,,,,,,,,,
,,3,2.6222,3,2.6222,0,33,33,73,1,50,carrot,rose,,89584,001,2022-04-27_00h45.10.600,SPAMnetsValid,2021.1.4,Linux aarch64,59.87665409,,,,,,,,,,,,,,,,,,,,,,,,,,,,,,,,,,,,,,,,,,,,,,,,,,,,,,,,,,,,,,,,,,,,,,,,,,,,,,,,,,,,,,,,,
,,7,7.5944,7,7.5944,0,34,34,51,1,47,onion,tomato,,89584,001,2022-04-27_00h45.10.600,SPAMnetsValid,2021.1.4,Linux aarch64,59.87665409,,,,,,,,,,,,,,,,,,,,,,,,,,,,,,,,,,,,,,,,,,,,,,,,,,,,,,,,,,,,,,,,,,,,,,,,,,,,,,,,,,,,,,,,,
,,5,2.5748,5,2.5748,0,35,35,61,1,71,broom,rose,,89584,001,2022-04-27_00h45.10.600,SPAMnetsValid,2021.1.4,Linux aarch64,59.87665409,,,,,,,,,,,,,,,,,,,,,,,,,,,,,,,,,,,,,,,,,,,,,,,,,,,,,,,,,,,,,,,,,,,,,,,,,,,,,,,,,,,,,,,,,
,,2,3.1019,2,3.1019,0,36,36,90,1,95,broom,refrigerator,,89584,001,2022-04-27_00h45.10.600,SPAMnetsValid,2021.1.4,Linux aarch64,59.87665409,,,,,,,,,,,,,,,,,,,,,,,,,,,,,,,,,,,,,,,,,,,,,,,,,,,,,,,,,,,,,,,,,,,,,,,,,,,,,,,,,,,,,,,,,
,,7,4.5336,7,4.5336,0,37,37,8,1,43,chocolate,tomato,,89584,001,2022-04-27_00h45.10.600,SPAMnetsValid,2021.1.4,Linux aarch64,59.87665409,,,,,,,,,,,,,,,,,,,,,,,,,,,,,,,,,,,,,,,,,,,,,,,,,,,,,,,,,,,,,,,,,,,,,,,,,,,,,,,,,,,,,,,,,
,,2,1.1681,2,1.1681,0,38,38,86,1,51,onion,strawberry,,89584,001,2022-04-27_00h45.10.600,SPAMnetsValid,2021.1.4,Linux aarch64,59.87665409,,,,,,,,,,,,,,,,,,,,,,,,,,,,,,,,,,,,,,,,,,,,,,,,,,,,,,,,,,,,,,,,,,,,,,,,,,,,,,,,,,,,,,,,,
,,7,1.0802,7,1.0802,0,39,39,87,1,79,garden,strawberry,,89584,001,2022-04-27_00h45.10.600,SPAMnetsValid,2021.1.4,Linux aarch64,59.87665409,,,,,,,,,,,,,,,,,,,,,,,,,,,,,,,,,,,,,,,,,,,,,,,,,,,,,,,,,,,,,,,,,,,,,,,,,,,,,,,,,,,,,,,,,
,,4,0.8098,4,0.8098,0,40,40,96,1,82,cake,kitchen,,89584,001,2022-04-27_00h45.10.600,SPAMnetsValid,2021.1.4,Linux aarch64,59.87665409,,,,,,,,,,,,,,,,,,,,,,,,,,,,,,,,,,,,,,,,,,,,,,,,,,,,,,,,,,,,,,,,,,,,,,,,,,,,,,,,,,,,,,,,,
,,8,1.0155,8,1.0155,0,41,41,6,1,87,carrot,yogurt,,89584,001,2022-04-27_00h45.10.600,SPAMnetsValid,2021.1.4,Linux aarch64,59.87665409,,,,,,,,,,,,,,,,,,,,,,,,,,,,,,,,,,,,,,,,,,,,,,,,,,,,,,,,,,,,,,,,,,,,,,,,,,,,,,,,,,,,,,,,,
,,6,0.6708,6,0.6708,0,42,42,42,1,77,refrigerator,yogurt,,89584,001,2022-04-27_00h45.10.600,SPAMnetsValid,2021.1.4,Linux aarch64,59.87665409,,,,,,,,,,,,,,,,,,,,,,,,,,,,,,,,,,,,,,,,,,,,,,,,,,,,,,,,,,,,,,,,,,,,,,,,,,,,,,,,,,,,,,,,,
,,3,0.9001,3,0.9001,0,43,43,63,1,21,cake,onion,,89584,001,2022-04-27_00h45.10.600,SPAMnetsValid,2021.1.4,Linux aarch64,59.87665409,,,,,,,,,,,,,,,,,,,,,,,,,,,,,,,,,,,,,,,,,,,,,,,,,,,,,,,,,,,,,,,,,,,,,,,,,,,,,,,,,,,,,,,,,
,,3,4.1993,3,4.1993,0,44,44,84,1,91,microwave,rose,,89584,001,2022-04-27_00h45.10.600,SPAMnetsValid,2021.1.4,Linux aarch64,59.87665409,,,,,,,,,,,,,,,,,,,,,,,,,,,,,,,,,,,,,,,,,,,,,,,,,,,,,,,,,,,,,,,,,,,,,,,,,,,,,,,,,,,,,,,,,
,,9,5.9122,9,5.9122,0,45,45,64,1,9,kitchen,refrigerator,,89584,001,2022-04-27_00h45.10.600,SPAMnetsValid,2021.1.4,Linux aarch64,59.87665409,,,,,,,,,,,,,,,,,,,,,,,,,,,,,,,,,,,,,,,,,,,,,,,,,,,,,,,,,,,,,,,,,,,,,,,,,,,,,,,,,,,,,,,,,
,,8,1.4104,8,1.4104,0,46,46,88,1,92,broom,flower,,89584,001,2022-04-27_00h45.10.600,SPAMnetsValid,2021.1.4,Linux aarch64,59.87665409,,,,,,,,,,,,,,,,,,,,,,,,,,,,,,,,,,,,,,,,,,,,,,,,,,,,,,,,,,,,,,,,,,,,,,,,,,,,,,,,,,,,,,,,,
,,7,22.0107,7,22.0107,0,47,47,41,1,19,microwave,pretzel,,89584,001,2022-04-27_00h45.10.600,SPAMnetsValid,2021.1.4,Linux aarch64,59.87665409,,,,,,,,,,,,,,,,,,,,,,,,,,,,,,,,,,,,,,,,,,,,,,,,,,,,,,,,,,,,,,,,,,,,,,,,,,,,,,,,,,,,,,,,,
,,4,1.7042,4,1.7042,0,48,48,0,1,53,garden,pretzel,,89584,001,2022-04-27_00h45.10.600,SPAMnetsValid,2021.1.4,Linux aarch64,59.87665409,,,,,,,,,,,,,,,,,,,,,,,,,,,,,,,,,,,,,,,,,,,,,,,,,,,,,,,,,,,,,,,,,,,,,,,,,,,,,,,,,,,,,,,,,
,,3,3.0066,3,3.0066,0,49,49,55,1,1,rose,yogurt,,89584,001,2022-04-27_00h45.10.600,SPAMnetsValid,2021.1.4,Linux aarch64,59.87665409,,,,,,,,,,,,,,,,,,,,,,,,,,,,,,,,,,,,,,,,,,,,,,,,,,,,,,,,,,,,,,,,,,,,,,,,,,,,,,,,,,,,,,,,,
,,7,2.3411,7,2.3411,0,50,50,30,1,3,cake,oven,,89584,001,2022-04-27_00h45.10.600,SPAMnetsValid,2021.1.4,Linux aarch64,59.87665409,,,,,,,,,,,,,,,,,,,,,,,,,,,,,,,,,,,,,,,,,,,,,,,,,,,,,,,,,,,,,,,,,,,,,,,,,,,,,,,,,,,,,,,,,
,,2,1.9656,2,1.9656,0,51,51,43,1,11,refrigerator,tree,,89584,001,2022-04-27_00h45.10.600,SPAMnetsValid,2021.1.4,Linux aarch64,59.87665409,,,,,,,,,,,,,,,,,,,,,,,,,,,,,,,,,,,,,,,,,,,,,,,,,,,,,,,,,,,,,,,,,,,,,,,,,,,,,,,,,,,,,,,,,
,,9,5.0209,9,5.0209,0,52,52,10,1,191,cake,cake,CHECK,89584,001,2022-04-27_00h45.10.600,SPAMnetsValid,2021.1.4,Linux aarch64,59.87665409,,,,,,,,,,,,,,,,,,,,,,,,,,,,,,,,,,,,,,,,,,,,,,,,,,,,,,,,,,,,,,,,,,,,,,,,,,,,,,,,,,,,,,,,,
,,2,2.197,2,2.197,0,53,53,7,1,34,melon,oven,,89584,001,2022-04-27_00h45.10.600,SPAMnetsValid,2021.1.4,Linux aarch64,59.87665409,,,,,,,,,,,,,,,,,,,,,,,,,,,,,,,,,,,,,,,,,,,,,,,,,,,,,,,,,,,,,,,,,,,,,,,,,,,,,,,,,,,,,,,,,
,,9,2.8226,9,2.8226,0,54,54,19,1,76,garden,rose,,89584,001,2022-04-27_00h45.10.600,SPAMnetsValid,2021.1.4,Linux aarch64,59.87665409,,,,,,,,,,,,,,,,,,,,,,,,,,,,,,,,,,,,,,,,,,,,,,,,,,,,,,,,,,,,,,,,,,,,,,,,,,,,,,,,,,,,,,,,,
,,3,2.3363,3,2.3363,0,55,55,72,1,59,rose,strawberry,,89584,001,2022-04-27_00h45.10.600,SPAMnetsValid,2021.1.4,Linux aarch64,59.87665409,,,,,,,,,,,,,,,,,,,,,,,,,,,,,,,,,,,,,,,,,,,,,,,,,,,,,,,,,,,,,,,,,,,,,,,,,,,,,,,,,,,,,,,,,
,,2,2.7516,2,2.7516,0,56,56,46,1,41,broom,cactus,,89584,001,2022-04-27_00h45.10.600,SPAMnetsValid,2021.1.4,Linux aarch64,59.87665409,,,,,,,,,,,,,,,,,,,,,,,,,,,,,,,,,,,,,,,,,,,,,,,,,,,,,,,,,,,,,,,,,,,,,,,,,,,,,,,,,,,,,,,,,
,,9,2.2404,9,2.2404,0,57,57,82,1,93,kitchen,oven,,89584,001,2022-04-27_00h45.10.600,SPAMnetsValid,2021.1.4,Linux aarch64,59.87665409,,,,,,,,,,,,,,,,,,,,,,,,,,,,,,,,,,,,,,,,,,,,,,,,,,,,,,,,,,,,,,,,,,,,,,,,,,,,,,,,,,,,,,,,,
,,9,1.4616,9,1.4616,0,58,58,93,1,63,cake,cookie,,89584,001,2022-04-27_00h45.10.600,SPAMnetsValid,2021.1.4,Linux aarch64,59.87665409,,,,,,,,,,,,,,,,,,,,,,,,,,,,,,,,,,,,,,,,,,,,,,,,,,,,,,,,,,,,,,,,,,,,,,,,,,,,,,,,,,,,,,,,,
,,7,2.3894,7,2.3894,0,59,59,28,1,84,oven,tomato,,89584,001,2022-04-27_00h45.10.600,SPAMnetsValid,2021.1.4,Linux aarch64,59.87665409,,,,,,,,,,,,,,,,,,,,,,,,,,,,,,,,,,,,,,,,,,,,,,,,,,,,,,,,,,,,,,,,,,,,,,,,,,,,,,,,,,,,,,,,,
,,5,3.4092,5,3.4092,0,60,60,33,1,32,cake,microwave,,89584,001,2022-04-27_00h45.10.600,SPAMnetsValid,2021.1.4,Linux aarch64,59.87665409,,,,,,,,,,,,,,,,,,,,,,,,,,,,,,,,,,,,,,,,,,,,,,,,,,,,,,,,,,,,,,,,,,,,,,,,,,,,,,,,,,,,,,,,,
,,8,2.4189,8,2.4189,0,61,61,48,1,66,melon,yogurt,,89584,001,2022-04-27_00h45.10.600,SPAMnetsValid,2021.1.4,Linux aarch64,59.87665409,,,,,,,,,,,,,,,,,,,,,,,,,,,,,,,,,,,,,,,,,,,,,,,,,,,,,,,,,,,,,,,,,,,,,,,,,,,,,,,,,,,,,,,,,
,,4,3.1092,4,3.1092,0,62,62,71,1,38,pretzel,refrigerator,,89584,001,2022-04-27_00h45.10.600,SPAMnetsValid,2021.1.4,Linux aarch64,59.87665409,,,,,,,,,,,,,,,,,,,,,,,,,,,,,,,,,,,,,,,,,,,,,,,,,,,,,,,,,,,,,,,,,,,,,,,,,,,,,,,,,,,,,,,,,
,,2,3.5387,2,3.5387,0,63,63,47,1,73,broom,chocolate,,89584,001,2022-04-27_00h45.10.600,SPAMnetsValid,2021.1.4,Linux aarch64,59.87665409,,,,,,,,,,,,,,,,,,,,,,,,,,,,,,,,,,,,,,,,,,,,,,,,,,,,,,,,,,,,,,,,,,,,,,,,,,,,,,,,,,,,,,,,,
,,1,2.9582,1,2.9582,0,64,64,3,1,49,flower,strawberry,,89584,001,2022-04-27_00h45.10.600,SPAMnetsValid,2021.1.4,Linux aarch64,59.87665409,,,,,,,,,,,,,,,,,,,,,,,,,,,,,,,,,,,,,,,,,,,,,,,,,,,,,,,,,,,,,,,,,,,,,,,,,,,,,,,,,,,,,,,,,
,,3,2.0259,3,2.0259,0,65,65,40,1,74,broom,pretzel,,89584,001,2022-04-27_00h45.10.600,SPAMnetsValid,2021.1.4,Linux aarch64,59.87665409,,,,,,,,,,,,,,,,,,,,,,,,,,,,,,,,,,,,,,,,,,,,,,,,,,,,,,,,,,,,,,,,,,,,,,,,,,,,,,,,,,,,,,,,,
,,1,1.8434,1,1.8434,0,66,66,60,1,89,chocolate,rose,,89584,001,2022-04-27_00h45.10.600,SPAMnetsValid,2021.1.4,Linux aarch64,59.87665409,,,,,,,,,,,,,,,,,,,,,,,,,,,,,,,,,,,,,,,,,,,,,,,,,,,,,,,,,,,,,,,,,,,,,,,,,,,,,,,,,,,,,,,,,
,,6,4.8227,6,4.8227,0,67,67,44,1,25,carrot,onion,,89584,001,2022-04-27_00h45.10.600,SPAMnetsValid,2021.1.4,Linux aarch64,59.87665409,,,,,,,,,,,,,,,,,,,,,,,,,,,,,,,,,,,,,,,,,,,,,,,,,,,,,,,,,,,,,,,,,,,,,,,,,,,,,,,,,,,,,,,,,
,,2,2.0257,2,2.0257,0,68,68,5,1,13,broom,yogurt,,89584,001,2022-04-27_00h45.10.600,SPAMnetsValid,2021.1.4,Linux aarch64,59.87665409,,,,,,,,,,,,,,,,,,,,,,,,,,,,,,,,,,,,,,,,,,,,,,,,,,,,,,,,,,,,,,,,,,,,,,,,,,,,,,,,,,,,,,,,,
,,7,13.5039,7,13.5039,0,69,69,4,1,83,broom,carrot,,89584,001,2022-04-27_00h45.10.600,SPAMnetsValid,2021.1.4,Linux aarch64,59.87665409,,,,,,,,,,,,,,,,,,,,,,,,,,,,,,,,,,,,,,,,,,,,,,,,,,,,,,,,,,,,,,,,,,,,,,,,,,,,,,,,,,,,,,,,,
,,2,2.1219,2,2.1219,0,70,70,14,1,64,chocolate,garden,,89584,001,2022-04-27_00h45.10.600,SPAMnetsValid,2021.1.4,Linux aarch64,59.87665409,,,,,,,,,,,,,,,,,,,,,,,,,,,,,,,,,,,,,,,,,,,,,,,,,,,,,,,,,,,,,,,,,,,,,,,,,,,,,,,,,,,,,,,,,
,,7,8.8219,7,8.8219,0,71,71,12,1,67,flower,yogurt,,89584,001,2022-04-27_00h45.10.600,SPAMnetsValid,2021.1.4,Linux aarch64,59.87665409,,,,,,,,,,,,,,,,,,,,,,,,,,,,,,,,,,,,,,,,,,,,,,,,,,,,,,,,,,,,,,,,,,,,,,,,,,,,,,,,,,,,,,,,,
,,6,6.4885,6,6.4885,0,72,72,75,1,69,carrot,refrigerator,,89584,001,2022-04-27_00h45.10.600,SPAMnetsValid,2021.1.4,Linux aarch64,59.87665409,,,,,,,,,,,,,,,,,,,,,,,,,,,,,,,,,,,,,,,,,,,,,,,,,,,,,,,,,,,,,,,,,,,,,,,,,,,,,,,,,,,,,,,,,
,,3,9.6494,3,9.6494,0,73,73,37,1,58,garden,oven,,89584,001,2022-04-27_00h45.10.600,SPAMnetsValid,2021.1.4,Linux aarch64,59.87665409,,,,,,,,,,,,,,,,,,,,,,,,,,,,,,,,,,,,,,,,,,,,,,,,,,,,,,,,,,,,,,,,,,,,,,,,,,,,,,,,,,,,,,,,,
,,2,18.8719,2,18.8719,0,74,74,57,1,62,kitchen,rose,,89584,001,2022-04-27_00h45.10.600,SPAMnetsValid,2021.1.4,Linux aarch64,59.87665409,,,,,,,,,,,,,,,,,,,,,,,,,,,,,,,,,,,,,,,,,,,,,,,,,,,,,,,,,,,,,,,,,,,,,,,,,,,,,,,,,,,,,,,,,
,,8,2.3961,8,2.3961,0,75,75,66,1,20,rose,tree,,89584,001,2022-04-27_00h45.10.600,SPAMnetsValid,2021.1.4,Linux aarch64,59.87665409,,,,,,,,,,,,,,,,,,,,,,,,,,,,,,,,,,,,,,,,,,,,,,,,,,,,,,,,,,,,,,,,,,,,,,,,,,,,,,,,,,,,,,,,,
,,9,1.4427,9,1.4427,0,76,76,21,1,56,cactus,tree,,89584,001,2022-04-27_00h45.10.600,SPAMnetsValid,2021.1.4,Linux aarch64,59.87665409,,,,,,,,,,,,,,,,,,,,,,,,,,,,,,,,,,,,,,,,,,,,,,,,,,,,,,,,,,,,,,,,,,,,,,,,,,,,,,,,,,,,,,,,,
,,7,3.2277,7,3.2277,0,77,77,83,1,6,garden,onion,,89584,001,2022-04-27_00h45.10.600,SPAMnetsValid,2021.1.4,Linux aarch64,59.87665409,,,,,,,,,,,,,,,,,,,,,,,,,,,,,,,,,,,,,,,,,,,,,,,,,,,,,,,,,,,,,,,,,,,,,,,,,,,,,,,,,,,,,,,,,
,,4,4.9263,4,4.9263,0,78,78,2,1,22,kitchen,strawberry,,89584,001,2022-04-27_00h45.10.600,SPAMnetsValid,2021.1.4,Linux aarch64,59.87665409,,,,,,,,,,,,,,,,,,,,,,,,,,,,,,,,,,,,,,,,,,,,,,,,,,,,,,,,,,,,,,,,,,,,,,,,,,,,,,,,,,,,,,,,,
,,9,1.6429,9,1.6429,0,79,79,58,1,94,kitchen,microwave,,89584,001,2022-04-27_00h45.10.600,SPAMnetsValid,2021.1.4,Linux aarch64,59.87665409,,,,,,,,,,,,,,,,,,,,,,,,,,,,,,,,,,,,,,,,,,,,,,,,,,,,,,,,,,,,,,,,,,,,,,,,,,,,,,,,,,,,,,,,,
,,3,1.8277,3,1.8277,0,80,80,16,1,14,broom,cookie,,89584,001,2022-04-27_00h45.10.600,SPAMnetsValid,2021.1.4,Linux aarch64,59.87665409,,,,,,,,,,,,,,,,,,,,,,,,,,,,,,,,,,,,,,,,,,,,,,,,,,,,,,,,,,,,,,,,,,,,,,,,,,,,,,,,,,,,,,,,,
,,7,7.0548,7,7.0548,0,81,81,32,1,40,broom,cake,,89584,001,2022-04-27_00h45.10.600,SPAMnetsValid,2021.1.4,Linux aarch64,59.87665409,,,,,,,,,,,,,,,,,,,,,,,,,,,,,,,,,,,,,,,,,,,,,,,,,,,,,,,,,,,,,,,,,,,,,,,,,,,,,,,,,,,,,,,,,
,,3,1.4459,3,1.4459,0,82,82,17,1,27,cactus,cookie,,89584,001,2022-04-27_00h45.10.600,SPAMnetsValid,2021.1.4,Linux aarch64,59.87665409,,,,,,,,,,,,,,,,,,,,,,,,,,,,,,,,,,,,,,,,,,,,,,,,,,,,,,,,,,,,,,,,,,,,,,,,,,,,,,,,,,,,,,,,,
,,7,5.8379,7,5.8379,0,83,83,91,1,2,kitchen,onion,,89584,001,2022-04-27_00h45.10.600,SPAMnetsValid,2021.1.4,Linux aarch64,59.87665409,,,,,,,,,,,,,,,,,,,,,,,,,,,,,,,,,,,,,,,,,,,,,,,,,,,,,,,,,,,,,,,,,,,,,,,,,,,,,,,,,,,,,,,,,
,,2,1.6204,2,1.6204,0,84,84,81,1,60,cactus,onion,,89584,001,2022-04-27_00h45.10.600,SPAMnetsValid,2021.1.4,Linux aarch64,59.87665409,,,,,,,,,,,,,,,,,,,,,,,,,,,,,,,,,,,,,,,,,,,,,,,,,,,,,,,,,,,,,,,,,,,,,,,,,,,,,,,,,,,,,,,,,
,,9,1.8447,9,1.8447,0,85,85,67,1,54,chocolate,yogurt,,89584,001,2022-04-27_00h45.10.600,SPAMnetsValid,2021.1.4,Linux aarch64,59.87665409,,,,,,,,,,,,,,,,,,,,,,,,,,,,,,,,,,,,,,,,,,,,,,,,,,,,,,,,,,,,,,,,,,,,,,,,,,,,,,,,,,,,,,,,,
,,6,1.5521,6,1.5521,0,86,86,36,1,12,cookie,yogurt,,89584,001,2022-04-27_00h45.10.600,SPAMnetsValid,2021.1.4,Linux aarch64,59.87665409,,,,,,,,,,,,,,,,,,,,,,,,,,,,,,,,,,,,,,,,,,,,,,,,,,,,,,,,,,,,,,,,,,,,,,,,,,,,,,,,,,,,,,,,,
,,9,1.7628,9,1.7628,0,87,87,53,1,192,microwave,microwave,CHECK,89584,001,2022-04-27_00h45.10.600,SPAMnetsValid,2021.1.4,Linux aarch64,59.87665409,,,,,,,,,,,,,,,,,,,,,,,,,,,,,,,,,,,,,,,,,,,,,,,,,,,,,,,,,,,,,,,,,,,,,,,,,,,,,,,,,,,,,,,,,
,,3,9.7631,3,9.7631,0,88,88,9,1,75,cookie,onion,,89584,001,2022-04-27_00h45.10.600,SPAMnetsValid,2021.1.4,Linux aarch64,59.87665409,,,,,,,,,,,,,,,,,,,,,,,,,,,,,,,,,,,,,,,,,,,,,,,,,,,,,,,,,,,,,,,,,,,,,,,,,,,,,,,,,,,,,,,,,
,,9,2.0174,9,2.0174,0,89,89,49,1,57,flower,kitchen,,89584,001,2022-04-27_00h45.10.600,SPAMnetsValid,2021.1.4,Linux aarch64,59.87665409,,,,,,,,,,,,,,,,,,,,,,,,,,,,,,,,,,,,,,,,,,,,,,,,,,,,,,,,,,,,,,,,,,,,,,,,,,,,,,,,,,,,,,,,,
,,6,1.8104,6,1.8104,0,90,90,79,1,86,oven,rose,,89584,001,2022-04-27_00h45.10.600,SPAMnetsValid,2021.1.4,Linux aarch64,59.87665409,,,,,,,,,,,,,,,,,,,,,,,,,,,,,,,,,,,,,,,,,,,,,,,,,,,,,,,,,,,,,,,,,,,,,,,,,,,,,,,,,,,,,,,,,
,,3,1.6517,3,1.6517,0,91,91,13,1,26,tomato,yogurt,,89584,001,2022-04-27_00h45.10.600,SPAMnetsValid,2021.1.4,Linux aarch64,59.87665409,,,,,,,,,,,,,,,,,,,,,,,,,,,,,,,,,,,,,,,,,,,,,,,,,,,,,,,,,,,,,,,,,,,,,,,,,,,,,,,,,,,,,,,,,
,,4,2.3358,4,2.3358,0,92,92,62,1,18,onion,refrigerator,,89584,001,2022-04-27_00h45.10.600,SPAMnetsValid,2021.1.4,Linux aarch64,59.87665409,,,,,,,,,,,,,,,,,,,,,,,,,,,,,,,,,,,,,,,,,,,,,,,,,,,,,,,,,,,,,,,,,,,,,,,,,,,,,,,,,,,,,,,,,
,,8,4.6463,8,4.6463,0,93,93,23,1,65,broom,garden,,89584,001,2022-04-27_00h45.10.600,SPAMnetsValid,2021.1.4,Linux aarch64,59.87665409,,,,,,,,,,,,,,,,,,,,,,,,,,,,,,,,,,,,,,,,,,,,,,,,,,,,,,,,,,,,,,,,,,,,,,,,,,,,,,,,,,,,,,,,,
,,7,2.5924,7,2.5924,0,94,94,69,1,45,onion,pretzel,,89584,001,2022-04-27_00h45.10.600,SPAMnetsValid,2021.1.4,Linux aarch64,59.87665409,,,,,,,,,,,,,,,,,,,,,,,,,,,,,,,,,,,,,,,,,,,,,,,,,,,,,,,,,,,,,,,,,,,,,,,,,,,,,,,,,,,,,,,,,
,,4,2.6281,4,2.6281,0,95,95,26,1,35,flower,pretzel,,89584,001,2022-04-27_00h45.10.600,SPAMnetsValid,2021.1.4,Linux aarch64,59.87665409,,,,,,,,,,,,,,,,,,,,,,,,,,,,,,,,,,,,,,,,,,,,,,,,,,,,,,,,,,,,,,,,,,,,,,,,,,,,,,,,,,,,,,,,,
,,6,4.9015,6,4.9015,0,96,96,56,1,78,cookie,rose,,89584,001,2022-04-27_00h45.10.600,SPAMnetsValid,2021.1.4,Linux aarch64,59.87665409,,,,,,,,,,,,,,,,,,,,,,,,,,,,,,,,,,,,,,,,,,,,,,,,,,,,,,,,,,,,,,,,,,,,,,,,,,,,,,,,,,,,,,,,,
,,,,,,,,,,,,,,,89584,001,2022-04-27_00h45.10.600,SPAMnetsValid,2021.1.4,Linux aarch64,59.87665409,0,0,0,0,1,,,,,,,,,,,,,,,,,,,,,,,,,,,,,,,,,,,,,,,,,,,,,,,,,,,,,,,,,,,,,,,,,,,,,,,,,,,,,,,,,,,,
,,,,,,,,,,,,,,,89584,001,2022-04-27_00h45.10.600,SPAMnetsValid,2021.1.4,Linux aarch64,59.87665409,,,,,,0,0,0,0,1,1,0,,,,,,,,,,,,,,,,,,,,,,,,,,,,,,,,,,,,,,,,,,,,,,,,,,,,,,,,,,,,,,,,,,,,,,,,,,,,,
,,,,4,10.8719,,,,,,148,flower,melon,,89584,001,2022-04-27_00h45.10.600,SPAMnetsValid,2021.1.4,Linux aarch64,59.87665409,,,,,,,,,,,,,4,10.8719,0,0,0,23,1,,,,,,,,,,,,,,,,,,,,,,,,,,,,,,,,,,,,,,,,,,,,,,,,,,,,,,,,,,,,,,,,,,,,,,
,,,,7,2.466,,,,,,176,cactus,tomato,,89584,001,2022-04-27_00h45.10.600,SPAMnetsValid,2021.1.4,Linux aarch64,59.87665409,,,,,,,,,,,,,7,2.466,0,1,1,9,1,,,,,,,,,,,,,,,,,,,,,,,,,,,,,,,,,,,,,,,,,,,,,,,,,,,,,,,,,,,,,,,,,,,,,,
,,,,9,2.4378,,,,,,116,cake,chocolate,,89584,001,2022-04-27_00h45.10.600,SPAMnetsValid,2021.1.4,Linux aarch64,59.87665409,,,,,,,,,,,,,9,2.4378,0,2,2,44,1,,,,,,,,,,,,,,,,,,,,,,,,,,,,,,,,,,,,,,,,,,,,,,,,,,,,,,,,,,,,,,,,,,,,,,
,,,,6,13.4631,,,,,,140,cookie,refrigerator,,89584,001,2022-04-27_00h45.10.600,SPAMnetsValid,2021.1.4,Linux aarch64,59.87665409,,,,,,,,,,,,,6,13.4631,0,3,3,89,1,,,,,,,,,,,,,,,,,,,,,,,,,,,,,,,,,,,,,,,,,,,,,,,,,,,,,,,,,,,,,,,,,,,,,,
,,,,3,4.8931,,,,,,103,pretzel,tomato,,89584,001,2022-04-27_00h45.10.600,SPAMnetsValid,2021.1.4,Linux aarch64,59.87665409,,,,,,,,,,,,,3,4.8931,0,4,4,79,1,,,,,,,,,,,,,,,,,,,,,,,,,,,,,,,,,,,,,,,,,,,,,,,,,,,,,,,,,,,,,,,,,,,,,,
,,,,3,5.3966,,,,,,137,microwave,tree,,89584,001,2022-04-27_00h45.10.600,SPAMnetsValid,2021.1.4,Linux aarch64,59.87665409,,,,,,,,,,,,,3,5.3966,0,5,5,63,1,,,,,,,,,,,,,,,,,,,,,,,,,,,,,,,,,,,,,,,,,,,,,,,,,,,,,,,,,,,,,,,,,,,,,,
,,,,6,2.8588,,,,,,166,cake,yogurt,,89584,001,2022-04-27_00h45.10.600,SPAMnetsValid,2021.1.4,Linux aarch64,59.87665409,,,,,,,,,,,,,6,2.8588,0,6,6,91,1,,,,,,,,,,,,,,,,,,,,,,,,,,,,,,,,,,,,,,,,,,,,,,,,,,,,,,,,,,,,,,,,,,,,,,
,,,,4,8.1868,,,,,,182,flower,refrigerator,,89584,001,2022-04-27_00h45.10.600,SPAMnetsValid,2021.1.4,Linux aarch64,59.87665409,,,,,,,,,,,,,4,8.1868,0,7,7,32,1,,,,,,,,,,,,,,,,,,,,,,,,,,,,,,,,,,,,,,,,,,,,,,,,,,,,,,,,,,,,,,,,,,,,,,
,,,,3,2.146,,,,,,179,broom,oven,,89584,001,2022-04-27_00h45.10.600,SPAMnetsValid,2021.1.4,Linux aarch64,59.87665409,,,,,,,,,,,,,3,2.146,0,8,8,45,1,,,,,,,,,,,,,,,,,,,,,,,,,,,,,,,,,,,,,,,,,,,,,,,,,,,,,,,,,,,,,,,,,,,,,,
,,,,6,1.9748,,,,,,134,carrot,flower,,89584,001,2022-04-27_00h45.10.600,SPAMnetsValid,2021.1.4,Linux aarch64,59.87665409,,,,,,,,,,,,,6,1.9748,0,9,9,93,1,,,,,,,,,,,,,,,,,,,,,,,,,,,,,,,,,,,,,,,,,,,,,,,,,,,,,,,,,,,,,,,,,,,,,,
,,,,2,3.7999,,,,,,146,pretzel,tree,,89584,001,2022-04-27_00h45.10.600,SPAMnetsValid,2021.1.4,Linux aarch64,59.87665409,,,,,,,,,,,,,2,3.7999,0,10,10,80,1,,,,,,,,,,,,,,,,,,,,,,,,,,,,,,,,,,,,,,,,,,,,,,,,,,,,,,,,,,,,,,,,,,,,,,
,,,,9,1.6539,,,,,,193,melon,melon,CHECK,89584,001,2022-04-27_00h45.10.600,SPAMnetsValid,2021.1.4,Linux aarch64,59.87665409,,,,,,,,,,,,,9,1.6539,0,11,11,86,1,,,,,,,,,,,,,,,,,,,,,,,,,,,,,,,,,,,,,,,,,,,,,,,,,,,,,,,,,,,,,,,,,,,,,,
,,,,3,2.5714,,,,,,113,refrigerator,strawberry,,89584,001,2022-04-27_00h45.10.600,SPAMnetsValid,2021.1.4,Linux aarch64,59.87665409,,,,,,,,,,,,,3,2.5714,0,12,12,56,1,,,,,,,,,,,,,,,,,,,,,,,,,,,,,,,,,,,,,,,,,,,,,,,,,,,,,,,,,,,,,,,,,,,,,,
,,,,9,1.2747,,,,,,194,cactus,cactus,CHECK,89584,001,2022-04-27_00h45.10.600,SPAMnetsValid,2021.1.4,Linux aarch64,59.87665409,,,,,,,,,,,,,9,1.2747,0,13,13,25,1,,,,,,,,,,,,,,,,,,,,,,,,,,,,,,,,,,,,,,,,,,,,,,,,,,,,,,,,,,,,,,,,,,,,,,
,,,,9,1.5181,,,,,,154,strawberry,yogurt,,89584,001,2022-04-27_00h45.10.600,SPAMnetsValid,2021.1.4,Linux aarch64,59.87665409,,,,,,,,,,,,,9,1.5181,0,14,14,28,1,,,,,,,,,,,,,,,,,,,,,,,,,,,,,,,,,,,,,,,,,,,,,,,,,,,,,,,,,,,,,,,,,,,,,,
,,,,8,2.0053,,,,,,173,kitchen,tomato,,89584,001,2022-04-27_00h45.10.600,SPAMnetsValid,2021.1.4,Linux aarch64,59.87665409,,,,,,,,,,,,,8,2.0053,0,15,15,1,1,,,,,,,,,,,,,,,,,,,,,,,,,,,,,,,,,,,,,,,,,,,,,,,,,,,,,,,,,,,,,,,,,,,,,,
,,,,8,5.1095,,,,,,184,oven,pretzel,,89584,001,2022-04-27_00h45.10.600,SPAMnetsValid,2021.1.4,Linux aarch64,59.87665409,,,,,,,,,,,,,8,5.1095,0,16,16,42,1,,,,,,,,,,,,,,,,,,,,,,,,,,,,,,,,,,,,,,,,,,,,,,,,,,,,,,,,,,,,,,,,,,,,,,
,,,,6,8.1392,,,,,,159,cookie,flower,,89584,001,2022-04-27_00h45.10.600,SPAMnetsValid,2021.1.4,Linux aarch64,59.87665409,,,,,,,,,,,,,6,8.1392,0,17,17,21,1,,,,,,,,,,,,,,,,,,,,,,,,,,,,,,,,,,,,,,,,,,,,,,,,,,,,,,,,,,,,,,,,,,,,,,
,,,,1,1.72,,,,,,101,cactus,kitchen,,89584,001,2022-04-27_00h45.10.600,SPAMnetsValid,2021.1.4,Linux aarch64,59.87665409,,,,,,,,,,,,,1,1.72,0,18,18,54,1,,,,,,,,,,,,,,,,,,,,,,,,,,,,,,,,,,,,,,,,,,,,,,,,,,,,,,,,,,,,,,,,,,,,,,
,,,,2,17.7948,,,,,,187,cactus,microwave,,89584,001,2022-04-27_00h45.10.600,SPAMnetsValid,2021.1.4,Linux aarch64,59.87665409,,,,,,,,,,,,,2,17.7948,0,19,19,71,1,,,,,,,,,,,,,,,,,,,,,,,,,,,,,,,,,,,,,,,,,,,,,,,,,,,,,,,,,,,,,,,,,,,,,,
,,,,8,3.954,,,,,,142,garden,tree,,89584,001,2022-04-27_00h45.10.600,SPAMnetsValid,2021.1.4,Linux aarch64,59.87665409,,,,,,,,,,,,,8,3.954,0,20,20,22,1,,,,,,,,,,,,,,,,,,,,,,,,,,,,,,,,,,,,,,,,,,,,,,,,,,,,,,,,,,,,,,,,,,,,,,
,,,,7,16.2744,,,,,,129,cactus,refrigerator,,89584,001,2022-04-27_00h45.10.600,SPAMnetsValid,2021.1.4,Linux aarch64,59.87665409,,,,,,,,,,,,,7,16.2744,0,21,21,3,1,,,,,,,,,,,,,,,,,,,,,,,,,,,,,,,,,,,,,,,,,,,,,,,,,,,,,,,,,,,,,,,,,,,,,,
,,,,2,5.5033,,,,,,145,cactus,yogurt,,89584,001,2022-04-27_00h45.10.600,SPAMnetsValid,2021.1.4,Linux aarch64,59.87665409,,,,,,,,,,,,,2,5.5033,0,22,22,15,1,,,,,,,,,,,,,,,,,,,,,,,,,,,,,,,,,,,,,,,,,,,,,,,,,,,,,,,,,,,,,,,,,,,,,,
,,,,1,2.7781,,,,,,123,cookie,tree,,89584,001,2022-04-27_00h45.10.600,SPAMnetsValid,2021.1.4,Linux aarch64,59.87665409,,,,,,,,,,,,,1,2.7781,0,23,23,46,1,,,,,,,,,,,,,,,,,,,,,,,,,,,,,,,,,,,,,,,,,,,,,,,,,,,,,,,,,,,,,,,,,,,,,,
,,,,7,3.2501,,,,,,99,garden,melon,,89584,001,2022-04-27_00h45.10.600,SPAMnetsValid,2021.1.4,Linux aarch64,59.87665409,,,,,,,,,,,,,7,3.2501,0,24,24,17,1,,,,,,,,,,,,,,,,,,,,,,,,,,,,,,,,,,,,,,,,,,,,,,,,,,,,,,,,,,,,,,,,,,,,,,
,,,,6,7.7036,,,,,,135,carrot,oven,,89584,001,2022-04-27_00h45.10.600,SPAMnetsValid,2021.1.4,Linux aarch64,59.87665409,,,,,,,,,,,,,6,7.7036,0,25,25,73,1,,,,,,,,,,,,,,,,,,,,,,,,,,,,,,,,,,,,,,,,,,,,,,,,,,,,,,,,,,,,,,,,,,,,,,
,,,,7,2.9423,,,,,,133,cake,flower,,89584,001,2022-04-27_00h45.10.600,SPAMnetsValid,2021.1.4,Linux aarch64,59.87665409,,,,,,,,,,,,,7,2.9423,0,26,26,94,1,,,,,,,,,,,,,,,,,,,,,,,,,,,,,,,,,,,,,,,,,,,,,,,,,,,,,,,,,,,,,,,,,,,,,,
,,,,8,2.0011,,,,,,151,microwave,onion,,89584,001,2022-04-27_00h45.10.600,SPAMnetsValid,2021.1.4,Linux aarch64,59.87665409,,,,,,,,,,,,,8,2.0011,0,27,27,6,1,,,,,,,,,,,,,,,,,,,,,,,,,,,,,,,,,,,,,,,,,,,,,,,,,,,,,,,,,,,,,,,,,,,,,,
,,,,3,2.4176,,,,,,180,tree,yogurt,,89584,001,2022-04-27_00h45.10.600,SPAMnetsValid,2021.1.4,Linux aarch64,59.87665409,,,,,,,,,,,,,3,2.4176,0,28,28,68,1,,,,,,,,,,,,,,,,,,,,,,,,,,,,,,,,,,,,,,,,,,,,,,,,,,,,,,,,,,,,,,,,,,,,,,
,,,,7,32.1228,,,,,,111,carrot,microwave,,89584,001,2022-04-27_00h45.10.600,SPAMnetsValid,2021.1.4,Linux aarch64,59.87665409,,,,,,,,,,,,,7,32.1228,0,29,29,16,1,,,,,,,,,,,,,,,,,,,,,,,,,,,,,,,,,,,,,,,,,,,,,,,,,,,,,,,,,,,,,,,,,,,,,,
,,,,3,2.5846,,,,,,171,cake,tomato,,89584,001,2022-04-27_00h45.10.600,SPAMnetsValid,2021.1.4,Linux aarch64,59.87665409,,,,,,,,,,,,,3,2.5846,0,30,30,88,1,,,,,,,,,,,,,,,,,,,,,,,,,,,,,,,,,,,,,,,,,,,,,,,,,,,,,,,,,,,,,,,,,,,,,,
,,,,7,5.9725,,,,,,168,cactus,flower,,89584,001,2022-04-27_00h45.10.600,SPAMnetsValid,2021.1.4,Linux aarch64,59.87665409,,,,,,,,,,,,,7,5.9725,0,31,31,51,1,,,,,,,,,,,,,,,,,,,,,,,,,,,,,,,,,,,,,,,,,,,,,,,,,,,,,,,,,,,,,,,,,,,,,,
,,,,8,2.4504,,,,,,97,chocolate,kitchen,,89584,001,2022-04-27_00h45.10.600,SPAMnetsValid,2021.1.4,Linux aarch64,59.87665409,,,,,,,,,,,,,8,2.4504,0,32,32,8,1,,,,,,,,,,,,,,,,,,,,,,,,,,,,,,,,,,,,,,,,,,,,,,,,,,,,,,,,,,,,,,,,,,,,,,
,,,,2,5.6346,,,,,,178,cactus,carrot,,89584,001,2022-04-27_00h45.10.600,SPAMnetsValid,2021.1.4,Linux aarch64,59.87665409,,,,,,,,,,,,,2,5.6346,0,33,33,75,1,,,,,,,,,,,,,,,,,,,,,,,,,,,,,,,,,,,,,,,,,,,,,,,,,,,,,,,,,,,,,,,,,,,,,,
,,,,6,2.3605,,,,,,189,onion,tree,,89584,001,2022-04-27_00h45.10.600,SPAMnetsValid,2021.1.4,Linux aarch64,59.87665409,,,,,,,,,,,,,6,2.3605,0,34,34,62,1,,,,,,,,,,,,,,,,,,,,,,,,,,,,,,,,,,,,,,,,,,,,,,,,,,,,,,,,,,,,,,,,,,,,,,
,,,,1,1.8489,,,,,,143,pretzel,rose,,89584,001,2022-04-27_00h45.10.600,SPAMnetsValid,2021.1.4,Linux aarch64,59.87665409,,,,,,,,,,,,,1,1.8489,0,35,35,55,1,,,,,,,,,,,,,,,,,,,,,,,,,,,,,,,,,,,,,,,,,,,,,,,,,,,,,,,,,,,,,,,,,,,,,,
,,,,3,6.1855,,,,,,126,kitchen,tree,,89584,001,2022-04-27_00h45.10.600,SPAMnetsValid,2021.1.4,Linux aarch64,59.87665409,,,,,,,,,,,,,3,6.1855,0,36,36,50,1,,,,,,,,,,,,,,,,,,,,,,,,,,,,,,,,,,,,,,,,,,,,,,,,,,,,,,,,,,,,,,,,,,,,,,
,,,,7,1.1477,,,,,,160,cookie,kitchen,,89584,001,2022-04-27_00h45.10.600,SPAMnetsValid,2021.1.4,Linux aarch64,59.87665409,,,,,,,,,,,,,7,1.1477,0,37,37,65,1,,,,,,,,,,,,,,,,,,,,,,,,,,,,,,,,,,,,,,,,,,,,,,,,,,,,,,,,,,,,,,,,,,,,,,
,,,,2,4.1007,,,,,,98,pretzel,strawberry,,89584,001,2022-04-27_00h45.10.600,SPAMnetsValid,2021.1.4,Linux aarch64,59.87665409,,,,,,,,,,,,,2,4.1007,0,38,38,82,1,,,,,,,,,,,,,,,,,,,,,,,,,,,,,,,,,,,,,,,,,,,,,,,,,,,,,,,,,,,,,,,,,,,,,,
,,,,7,4.1377,,,,,,165,onion,rose,,89584,001,2022-04-27_00h45.10.600,SPAMnetsValid,2021.1.4,Linux aarch64,59.87665409,,,,,,,,,,,,,7,4.1377,0,39,39,40,1,,,,,,,,,,,,,,,,,,,,,,,,,,,,,,,,,,,,,,,,,,,,,,,,,,,,,,,,,,,,,,,,,,,,,,
,,,,9,11.2665,,,,,,150,microwave,refrigerator,,89584,001,2022-04-27_00h45.10.600,SPAMnetsValid,2021.1.4,Linux aarch64,59.87665409,,,,,,,,,,,,,9,11.2665,0,40,40,66,1,,,,,,,,,,,,,,,,,,,,,,,,,,,,,,,,,,,,,,,,,,,,,,,,,,,,,,,,,,,,,,,,,,,,,,
,,,,8,1.4828,,,,,,163,melon,refrigerator,,89584,001,2022-04-27_00h45.10.600,SPAMnetsValid,2021.1.4,Linux aarch64,59.87665409,,,,,,,,,,,,,8,1.4828,0,41,41,29,1,,,,,,,,,,,,,,,,,,,,,,,,,,,,,,,,,,,,,,,,,,,,,,,,,,,,,,,,,,,,,,,,,,,,,,
,,,,2,2.5809,,,,,,131,cactus,garden,,89584,001,2022-04-27_00h45.10.600,SPAMnetsValid,2021.1.4,Linux aarch64,59.87665409,,,,,,,,,,,,,2,2.5809,0,42,42,33,1,,,,,,,,,,,,,,,,,,,,,,,,,,,,,,,,,,,,,,,,,,,,,,,,,,,,,,,,,,,,,,,,,,,,,,
,,,,6,14.1009,,,,,,138,flower,rose,,89584,001,2022-04-27_00h45.10.600,SPAMnetsValid,2021.1.4,Linux aarch64,59.87665409,,,,,,,,,,,,,6,14.1009,0,43,43,61,1,,,,,,,,,,,,,,,,,,,,,,,,,,,,,,,,,,,,,,,,,,,,,,,,,,,,,,,,,,,,,,,,,,,,,,
,,,,2,12.7807,,,,,,121,broom,microwave,,89584,001,2022-04-27_00h45.10.600,SPAMnetsValid,2021.1.4,Linux aarch64,59.87665409,,,,,,,,,,,,,2,12.7807,0,44,44,95,1,,,,,,,,,,,,,,,,,,,,,,,,,,,,,,,,,,,,,,,,,,,,,,,,,,,,,,,,,,,,,,,,,,,,,,
,,,,7,2.6035,,,,,,141,melon,tomato,,89584,001,2022-04-27_00h45.10.600,SPAMnetsValid,2021.1.4,Linux aarch64,59.87665409,,,,,,,,,,,,,7,2.6035,0,45,45,70,1,,,,,,,,,,,,,,,,,,,,,,,,,,,,,,,,,,,,,,,,,,,,,,,,,,,,,,,,,,,,,,,,,,,,,,
,,,,4,7.6538,,,,,,156,melon,rose,,89584,001,2022-04-27_00h45.10.600,SPAMnetsValid,2021.1.4,Linux aarch64,59.87665409,,,,,,,,,,,,,4,7.6538,0,46,46,31,1,,,,,,,,,,,,,,,,,,,,,,,,,,,,,,,,,,,,,,,,,,,,,,,,,,,,,,,,,,,,,,,,,,,,,,
,,,,7,2.1289,,,,,,172,kitchen,melon,,89584,001,2022-04-27_00h45.10.600,SPAMnetsValid,2021.1.4,Linux aarch64,59.87665409,,,,,,,,,,,,,7,2.1289,0,47,47,77,1,,,,,,,,,,,,,,,,,,,,,,,,,,,,,,,,,,,,,,,,,,,,,,,,,,,,,,,,,,,,,,,,,,,,,,
,,,,3,1.5138,,,,,,183,cake,rose,,89584,001,2022-04-27_00h45.10.600,SPAMnetsValid,2021.1.4,Linux aarch64,59.87665409,,,,,,,,,,,,,3,1.5138,0,48,48,19,1,,,,,,,,,,,,,,,,,,,,,,,,,,,,,,,,,,,,,,,,,,,,,,,,,,,,,,,,,,,,,,,,,,,,,,
,,,,5,3.3626,,,,,,144,cake,garden,,89584,001,2022-04-27_00h45.10.600,SPAMnetsValid,2021.1.4,Linux aarch64,59.87665409,,,,,,,,,,,,,5,3.3626,0,49,49,58,1,,,,,,,,,,,,,,,,,,,,,,,,,,,,,,,,,,,,,,,,,,,,,,,,,,,,,,,,,,,,,,,,,,,,,,
,,,,7,4.3024,,,,,,153,carrot,pretzel,,89584,001,2022-04-27_00h45.10.600,SPAMnetsValid,2021.1.4,Linux aarch64,59.87665409,,,,,,,,,,,,,7,4.3024,0,50,50,34,1,,,,,,,,,,,,,,,,,,,,,,,,,,,,,,,,,,,,,,,,,,,,,,,,,,,,,,,,,,,,,,,,,,,,,,
,,,,4,3.4645,,,,,,167,carrot,garden,,89584,001,2022-04-27_00h45.10.600,SPAMnetsValid,2021.1.4,Linux aarch64,59.87665409,,,,,,,,,,,,,4,3.4645,0,51,51,47,1,,,,,,,,,,,,,,,,,,,,,,,,,,,,,,,,,,,,,,,,,,,,,,,,,,,,,,,,,,,,,,,,,,,,,,
,,,,2,1.9955,,,,,,96,oven,strawberry,,89584,001,2022-04-27_00h45.10.600,SPAMnetsValid,2021.1.4,Linux aarch64,59.87665409,,,,,,,,,,,,,2,1.9955,0,52,52,67,1,,,,,,,,,,,,,,,,,,,,,,,,,,,,,,,,,,,,,,,,,,,,,,,,,,,,,,,,,,,,,,,,,,,,,,
,,,,3,3.0162,,,,,,119,strawberry,tree,,89584,001,2022-04-27_00h45.10.600,SPAMnetsValid,2021.1.4,Linux aarch64,59.87665409,,,,,,,,,,,,,3,3.0162,0,53,53,18,1,,,,,,,,,,,,,,,,,,,,,,,,,,,,,,,,,,,,,,,,,,,,,,,,,,,,,,,,,,,,,,,,,,,,,,
,,,,7,2.2809,,,,,,118,chocolate,oven,,89584,001,2022-04-27_00h45.10.600,SPAMnetsValid,2021.1.4,Linux aarch64,59.87665409,,,,,,,,,,,,,7,2.2809,0,54,54,10,1,,,,,,,,,,,,,,,,,,,,,,,,,,,,,,,,,,,,,,,,,,,,,,,,,,,,,,,,,,,,,,,,,,,,,,
,,,,5,10.7768,,,,,,139,carrot,strawberry,,89584,001,2022-04-27_00h45.10.600,SPAMnetsValid,2021.1.4,Linux aarch64,59.87665409,,,,,,,,,,,,,5,10.7768,0,55,55,37,1,,,,,,,,,,,,,,,,,,,,,,,,,,,,,,,,,,,,,,,,,,,,,,,,,,,,,,,,,,,,,,,,,,,,,,
,,,,3,2.5542,,,,,,152,cactus,strawberry,,89584,001,2022-04-27_00h45.10.600,SPAMnetsValid,2021.1.4,Linux aarch64,59.87665409,,,,,,,,,,,,,3,2.5542,0,56,56,49,1,,,,,,,,,,,,,,,,,,,,,,,,,,,,,,,,,,,,,,,,,,,,,,,,,,,,,,,,,,,,,,,,,,,,,,
,,,,7,2.1339,,,,,,106,cake,strawberry,,89584,001,2022-04-27_00h45.10.600,SPAMnetsValid,2021.1.4,Linux aarch64,59.87665409,,,,,,,,,,,,,7,2.1339,0,57,57,0,1,,,,,,,,,,,,,,,,,,,,,,,,,,,,,,,,,,,,,,,,,,,,,,,,,,,,,,,,,,,,,,,,,,,,,,
,,,,7,4.295,,,,,,170,cookie,microwave,,89584,001,2022-04-27_00h45.10.600,SPAMnetsValid,2021.1.4,Linux aarch64,59.87665409,,,,,,,,,,,,,7,4.295,0,58,58,92,1,,,,,,,,,,,,,,,,,,,,,,,,,,,,,,,,,,,,,,,,,,,,,,,,,,,,,,,,,,,,,,,,,,,,,,
,,,,8,1.9875,,,,,,120,microwave,oven,,89584,001,2022-04-27_00h45.10.600,SPAMnetsValid,2021.1.4,Linux aarch64,59.87665409,,,,,,,,,,,,,8,1.9875,0,59,59,14,1,,,,,,,,,,,,,,,,,,,,,,,,,,,,,,,,,,,,,,,,,,,,,,,,,,,,,,,,,,,,,,,,,,,,,,
,,,,9,1.5982,,,,,,110,chocolate,cookie,,89584,001,2022-04-27_00h45.10.600,SPAMnetsValid,2021.1.4,Linux aarch64,59.87665409,,,,,,,,,,,,,9,1.5982,0,60,60,52,1,,,,,,,,,,,,,,,,,,,,,,,,,,,,,,,,,,,,,,,,,,,,,,,,,,,,,,,,,,,,,,,,,,,,,,
,,,,2,6.456,,,,,,107,rose,tomato,,89584,001,2022-04-27_00h45.10.600,SPAMnetsValid,2021.1.4,Linux aarch64,59.87665409,,,,,,,,,,,,,2,6.456,0,61,61,26,1,,,,,,,,,,,,,,,,,,,,,,,,,,,,,,,,,,,,,,,,,,,,,,,,,,,,,,,,,,,,,,,,,,,,,,
,,,,9,2.4859,,,,,,122,flower,garden,,89584,001,2022-04-27_00h45.10.600,SPAMnetsValid,2021.1.4,Linux aarch64,59.87665409,,,,,,,,,,,,,9,2.4859,0,62,62,60,1,,,,,,,,,,,,,,,,,,,,,,,,,,,,,,,,,,,,,,,,,,,,,,,,,,,,,,,,,,,,,,,,,,,,,,
,,,,8,2.5734,,,,,,117,melon,strawberry,,89584,001,2022-04-27_00h45.10.600,SPAMnetsValid,2021.1.4,Linux aarch64,59.87665409,,,,,,,,,,,,,8,2.5734,0,63,63,11,1,,,,,,,,,,,,,,,,,,,,,,,,,,,,,,,,,,,,,,,,,,,,,,,,,,,,,,,,,,,,,,,,,,,,,,
,,,,6,3.3987,,,,,,115,refrigerator,tomato,,89584,001,2022-04-27_00h45.10.600,SPAMnetsValid,2021.1.4,Linux aarch64,59.87665409,,,,,,,,,,,,,6,3.3987,0,64,64,85,1,,,,,,,,,,,,,,,,,,,,,,,,,,,,,,,,,,,,,,,,,,,,,,,,,,,,,,,,,,,,,,,,,,,,,,
,,,,3,3.661,,,,,,132,broom,tree,,89584,001,2022-04-27_00h45.10.600,SPAMnetsValid,2021.1.4,Linux aarch64,59.87665409,,,,,,,,,,,,,3,3.661,0,65,65,78,1,,,,,,,,,,,,,,,,,,,,,,,,,,,,,,,,,,,,,,,,,,,,,,,,,,,,,,,,,,,,,,,,,,,,,,
,,,,8,1.9658,,,,,,100,garden,tomato,,89584,001,2022-04-27_00h45.10.600,SPAMnetsValid,2021.1.4,Linux aarch64,59.87665409,,,,,,,,,,,,,8,1.9658,0,66,66,83,1,,,,,,,,,,,,,,,,,,,,,,,,,,,,,,,,,,,,,,,,,,,,,,,,,,,,,,,,,,,,,,,,,,,,,,
,,,,7,3.1549,,,,,,147,cake,refrigerator,,89584,001,2022-04-27_00h45.10.600,SPAMnetsValid,2021.1.4,Linux aarch64,59.87665409,,,,,,,,,,,,,7,3.1549,0,67,67,35,1,,,,,,,,,,,,,,,,,,,,,,,,,,,,,,,,,,,,,,,,,,,,,,,,,,,,,,,,,,,,,,,,,,,,,,
,,,,3,3.6055,,,,,,130,microwave,yogurt,,89584,001,2022-04-27_00h45.10.600,SPAMnetsValid,2021.1.4,Linux aarch64,59.87665409,,,,,,,,,,,,,3,3.6055,0,68,68,84,1,,,,,,,,,,,,,,,,,,,,,,,,,,,,,,,,,,,,,,,,,,,,,,,,,,,,,,,,,,,,,,,,,,,,,,
,,,,2,4.7241,,,,,,104,garden,microwave,,89584,001,2022-04-27_00h45.10.600,SPAMnetsValid,2021.1.4,Linux aarch64,59.87665409,,,,,,,,,,,,,2,4.7241,0,69,69,81,1,,,,,,,,,,,,,,,,,,,,,,,,,,,,,,,,,,,,,,,,,,,,,,,,,,,,,,,,,,,,,,,,,,,,,,
,,,,2,3.5628,,,,,,162,microwave,tomato,,89584,001,2022-04-27_00h45.10.600,SPAMnetsValid,2021.1.4,Linux aarch64,59.87665409,,,,,,,,,,,,,2,3.5628,0,70,70,12,1,,,,,,,,,,,,,,,,,,,,,,,,,,,,,,,,,,,,,,,,,,,,,,,,,,,,,,,,,,,,,,,,,,,,,,
,,,,7,1.9769,,,,,,186,kitchen,yogurt,,89584,001,2022-04-27_00h45.10.600,SPAMnetsValid,2021.1.4,Linux aarch64,59.87665409,,,,,,,,,,,,,7,1.9769,0,71,71,48,1,,,,,,,,,,,,,,,,,,,,,,,,,,,,,,,,,,,,,,,,,,,,,,,,,,,,,,,,,,,,,,,,,,,,,,
,,,,2,5.3503,,,,,,185,cactus,rose,,89584,001,2022-04-27_00h45.10.600,SPAMnetsValid,2021.1.4,Linux aarch64,59.87665409,,,,,,,,,,,,,2,5.3503,0,72,72,43,1,,,,,,,,,,,,,,,,,,,,,,,,,,,,,,,,,,,,,,,,,,,,,,,,,,,,,,,,,,,,,,,,,,,,,,
,,,,2,2.4171,,,,,,136,chocolate,microwave,,89584,001,2022-04-27_00h45.10.600,SPAMnetsValid,2021.1.4,Linux aarch64,59.87665409,,,,,,,,,,,,,2,2.4171,0,73,73,96,1,,,,,,,,,,,,,,,,,,,,,,,,,,,,,,,,,,,,,,,,,,,,,,,,,,,,,,,,,,,,,,,,,,,,,,
,,,,8,2.8803,,,,,,181,carrot,kitchen,,89584,001,2022-04-27_00h45.10.600,SPAMnetsValid,2021.1.4,Linux aarch64,59.87665409,,,,,,,,,,,,,8,2.8803,0,74,74,72,1,,,,,,,,,,,,,,,,,,,,,,,,,,,,,,,,,,,,,,,,,,,,,,,,,,,,,,,,,,,,,,,,,,,,,,
,,,,2,2.7627,,,,,,128,melon,microwave,,89584,001,2022-04-27_00h45.10.600,SPAMnetsValid,2021.1.4,Linux aarch64,59.87665409,,,,,,,,,,,,,2,2.7627,0,75,75,74,1,,,,,,,,,,,,,,,,,,,,,,,,,,,,,,,,,,,,,,,,,,,,,,,,,,,,,,,,,,,,,,,,,,,,,,
,,,,2,1.4296,,,,,,190,microwave,strawberry,,89584,001,2022-04-27_00h45.10.600,SPAMnetsValid,2021.1.4,Linux aarch64,59.87665409,,,,,,,,,,,,,2,1.4296,0,76,76,90,1,,,,,,,,,,,,,,,,,,,,,,,,,,,,,,,,,,,,,,,,,,,,,,,,,,,,,,,,,,,,,,,,,,,,,,
,,,,6,3.3935,,,,,,164,cookie,garden,,89584,001,2022-04-27_00h45.10.600,SPAMnetsValid,2021.1.4,Linux aarch64,59.87665409,,,,,,,,,,,,,6,3.3935,0,77,77,59,1,,,,,,,,,,,,,,,,,,,,,,,,,,,,,,,,,,,,,,,,,,,,,,,,,,,,,,,,,,,,,,,,,,,,,,
,,,,3,2.6005,,,,,,108,carrot,chocolate,,89584,001,2022-04-27_00h45.10.600,SPAMnetsValid,2021.1.4,Linux aarch64,59.87665409,,,,,,,,,,,,,3,2.6005,0,78,78,5,1,,,,,,,,,,,,,,,,,,,,,,,,,,,,,,,,,,,,,,,,,,,,,,,,,,,,,,,,,,,,,,,,,,,,,,
,,,,5,3.2587,,,,,,125,carrot,tree,,89584,001,2022-04-27_00h45.10.600,SPAMnetsValid,2021.1.4,Linux aarch64,59.87665409,,,,,,,,,,,,,5,3.2587,0,79,79,30,1,,,,,,,,,,,,,,,,,,,,,,,,,,,,,,,,,,,,,,,,,,,,,,,,,,,,,,,,,,,,,,,,,,,,,,
,,,,4,2.8011,,,,,,158,cookie,oven,,89584,001,2022-04-27_00h45.10.600,SPAMnetsValid,2021.1.4,Linux aarch64,59.87665409,,,,,,,,,,,,,4,2.8011,0,80,80,27,1,,,,,,,,,,,,,,,,,,,,,,,,,,,,,,,,,,,,,,,,,,,,,,,,,,,,,,,,,,,,,,,,,,,,,,
,,,,3,3.0793,,,,,,149,broom,tomato,,89584,001,2022-04-27_00h45.10.600,SPAMnetsValid,2021.1.4,Linux aarch64,59.87665409,,,,,,,,,,,,,3,3.0793,0,81,81,20,1,,,,,,,,,,,,,,,,,,,,,,,,,,,,,,,,,,,,,,,,,,,,,,,,,,,,,,,,,,,,,,,,,,,,,,
,,,,8,2.7348,,,,,,161,kitchen,pretzel,,89584,001,2022-04-27_00h45.10.600,SPAMnetsValid,2021.1.4,Linux aarch64,59.87665409,,,,,,,,,,,,,8,2.7348,0,82,82,36,1,,,,,,,,,,,,,,,,,,,,,,,,,,,,,,,,,,,,,,,,,,,,,,,,,,,,,,,,,,,,,,,,,,,,,,
,,,,3,2.1475,,,,,,155,carrot,cookie,,89584,001,2022-04-27_00h45.10.600,SPAMnetsValid,2021.1.4,Linux aarch64,59.87665409,,,,,,,,,,,,,3,2.1475,0,83,83,38,1,,,,,,,,,,,,,,,,,,,,,,,,,,,,,,,,,,,,,,,,,,,,,,,,,,,,,,,,,,,,,,,,,,,,,,
,,,,5,2.2482,,,,,,109,broom,strawberry,,89584,001,2022-04-27_00h45.10.600,SPAMnetsValid,2021.1.4,Linux aarch64,59.87665409,,,,,,,,,,,,,5,2.2482,0,84,84,4,1,,,,,,,,,,,,,,,,,,,,,,,,,,,,,,,,,,,,,,,,,,,,,,,,,,,,,,,,,,,,,,,,,,,,,,
,,,,3,1.8327,,,,,,169,onion,yogurt,,89584,001,2022-04-27_00h45.10.600,SPAMnetsValid,2021.1.4,Linux aarch64,59.87665409,,,,,,,,,,,,,3,1.8327,0,85,85,24,1,,,,,,,,,,,,,,,,,,,,,,,,,,,,,,,,,,,,,,,,,,,,,,,,,,,,,,,,,,,,,,,,,,,,,,
,,,,6,1.9418,,,,,,112,cake,carrot,,89584,001,2022-04-27_00h45.10.600,SPAMnetsValid,2021.1.4,Linux aarch64,59.87665409,,,,,,,,,,,,,6,1.9418,0,86,86,39,1,,,,,,,,,,,,,,,,,,,,,,,,,,,,,,,,,,,,,,,,,,,,,,,,,,,,,,,,,,,,,,,,,,,,,,
,,,,3,2.5912,,,,,,175,melon,onion,,89584,001,2022-04-27_00h45.10.600,SPAMnetsValid,2021.1.4,Linux aarch64,59.87665409,,,,,,,,,,,,,3,2.5912,0,87,87,41,1,,,,,,,,,,,,,,,,,,,,,,,,,,,,,,,,,,,,,,,,,,,,,,,,,,,,,,,,,,,,,,,,,,,,,,
,,,,7,2.7701,,,,,,114,cookie,strawberry,,89584,001,2022-04-27_00h45.10.600,SPAMnetsValid,2021.1.4,Linux aarch64,59.87665409,,,,,,,,,,,,,7,2.7701,0,88,88,87,1,,,,,,,,,,,,,,,,,,,,,,,,,,,,,,,,,,,,,,,,,,,,,,,,,,,,,,,,,,,,,,,,,,,,,,
,,,,7,1.8321,,,,,,188,flower,tree,,89584,001,2022-04-27_00h45.10.600,SPAMnetsValid,2021.1.4,Linux aarch64,59.87665409,,,,,,,,,,,,,7,1.8321,0,89,89,7,1,,,,,,,,,,,,,,,,,,,,,,,,,,,,,,,,,,,,,,,,,,,,,,,,,,,,,,,,,,,,,,,,,,,,,,
,,,,2,2.6962,,,,,,127,cactus,chocolate,,89584,001,2022-04-27_00h45.10.600,SPAMnetsValid,2021.1.4,Linux aarch64,59.87665409,,,,,,,,,,,,,2,2.6962,0,90,90,57,1,,,,,,,,,,,,,,,,,,,,,,,,,,,,,,,,,,,,,,,,,,,,,,,,,,,,,,,,,,,,,,,,,,,,,,
,,,,8,1.925,,,,,,124,oven,refrigerator,,89584,001,2022-04-27_00h45.10.600,SPAMnetsValid,2021.1.4,Linux aarch64,59.87665409,,,,,,,,,,,,,8,1.925,0,91,91,69,1,,,,,,,,,,,,,,,,,,,,,,,,,,,,,,,,,,,,,,,,,,,,,,,,,,,,,,,,,,,,,,,,,,,,,,
,,,,2,5.0409,,,,,,105,cactus,oven,,89584,001,2022-04-27_00h45.10.600,SPAMnetsValid,2021.1.4,Linux aarch64,59.87665409,,,,,,,,,,,,,2,5.0409,0,92,92,13,1,,,,,,,,,,,,,,,,,,,,,,,,,,,,,,,,,,,,,,,,,,,,,,,,,,,,,,,,,,,,,,,,,,,,,,
,,,,8,2.5309,,,,,,102,chocolate,refrigerator,,89584,001,2022-04-27_00h45.10.600,SPAMnetsValid,2021.1.4,Linux aarch64,59.87665409,,,,,,,,,,,,,8,2.5309,0,93,93,76,1,,,,,,,,,,,,,,,,,,,,,,,,,,,,,,,,,,,,,,,,,,,,,,,,,,,,,,,,,,,,,,,,,,,,,,
,,,,8,2.767,,,,,,177,chocolate,strawberry,,89584,001,2022-04-27_00h45.10.600,SPAMnetsValid,2021.1.4,Linux aarch64,59.87665409,,,,,,,,,,,,,8,2.767,0,94,94,53,1,,,,,,,,,,,,,,,,,,,,,,,,,,,,,,,,,,,,,,,,,,,,,,,,,,,,,,,,,,,,,,,,,,,,,,
,,,,1,2.7264,,,,,,157,refrigerator,rose,,89584,001,2022-04-27_00h45.10.600,SPAMnetsValid,2021.1.4,Linux aarch64,59.87665409,,,,,,,,,,,,,1,2.7264,0,95,95,64,1,,,,,,,,,,,,,,,,,,,,,,,,,,,,,,,,,,,,,,,,,,,,,,,,,,,,,,,,,,,,,,,,,,,,,,
,,,,5,3.8509,,,,,,174,cake,pretzel,,89584,001,2022-04-27_00h45.10.600,SPAMnetsValid,2021.1.4,Linux aarch64,59.87665409,,,,,,,,,,,,,5,3.8509,0,96,96,2,1,,,,,,,,,,,,,,,,,,,,,,,,,,,,,,,,,,,,,,,,,,,,,,,,,,,,,,,,,,,,,,,,,,,,,,
,,,,,,,,,,,,,,,89584,001,2022-04-27_00h45.10.600,SPAMnetsValid,2021.1.4,Linux aarch64,59.87665409,,,,,,,,,,,,,,,,,,,,0,0,0,0,1,,,,,,,,,,,,,,,,,,,,,,,,,,,,,,,,,,,,,,,,,,,,,,,,,,,,,,,,,,,,,,,,,
,,,,,,,,,,,,,,,89584,001,2022-04-27_00h45.10.600,SPAMnetsValid,2021.1.4,Linux aarch64,59.87665409,,,,,,0,1,1,1,1,0,1,,,,,,,,,,,,,,,,,,,,,,,,,,,,,,,,,,,,,,,,,,,,,,,,,,,,,,,,,,,,,,,,,,,,,,,,,,,,,
,,,,,,,,,,,,,,,89584,001,2022-04-27_00h45.10.600,SPAMnetsValid,2021.1.4,Linux aarch64,59.87665409,,,,,,,,,,,,,,,,,,,,,,,,,3,6.9837,0,0,0,0,1,rancor,forbearance,ridicule,malice,bravery,3,,,,,,,,,,,,,,,,,,,,,,,,,,,,,,,,,,,,,,,,,,,,,,,,,,,,
,,,,,,,,,,,,,,,89584,001,2022-04-27_00h45.10.600,SPAMnetsValid,2021.1.4,Linux aarch64,59.87665409,,,,,,,,,,,,,,,,,,,,,,,,,2,5.3164,0,1,1,1,1,raucous,empty,quiet,smooth,harsh,4,,,,,,,,,,,,,,,,,,,,,,,,,,,,,,,,,,,,,,,,,,,,,,,,,,,,
,,,,,,,,,,,,,,,89584,001,2022-04-27_00h45.10.600,SPAMnetsValid,2021.1.4,Linux aarch64,59.87665409,,,,,,,,,,,,,,,,,,,,,,,,,4,6.7023,0,2,2,2,1,gargoyle,oil,medicine,carved waterspout,ugly building,3,,,,,,,,,,,,,,,,,,,,,,,,,,,,,,,,,,,,,,,,,,,,,,,,,,,,
,,,,,,,,,,,,,,,89584,001,2022-04-27_00h45.10.600,SPAMnetsValid,2021.1.4,Linux aarch64,59.87665409,,,,,,,,,,,,,,,,,,,,,,,,,2,3.7653,0,3,3,3,1,recrudesce,purify,renew activity,lack refinement,crush,2,,,,,,,,,,,,,,,,,,,,,,,,,,,,,,,,,,,,,,,,,,,,,,,,,,,,
,,,,,,,,,,,,,,,89584,001,2022-04-27_00h45.10.600,SPAMnetsValid,2021.1.4,Linux aarch64,59.87665409,,,,,,,,,,,,,,,,,,,,,,,,,2,5.3842,0,4,4,4,1,specious,"plausible, but not genuine",noteworthy,class or variety,roomy,1,,,,,,,,,,,,,,,,,,,,,,,,,,,,,,,,,,,,,,,,,,,,,,,,,,,,
,,,,,,,,,,,,,,,89584,001,2022-04-27_00h45.10.600,SPAMnetsValid,2021.1.4,Linux aarch64,59.87665409,,,,,,,,,,,,,,,,,,,,,,,,,4,5.8887,0,5,5,5,1,bauble,bubble,showy plaything,idle talk,confusion,2,,,,,,,,,,,,,,,,,,,,,,,,,,,,,,,,,,,,,,,,,,,,,,,,,,,,
,,,,,,,,,,,,,,,89584,001,2022-04-27_00h45.10.600,SPAMnetsValid,2021.1.4,Linux aarch64,59.87665409,,,,,,,,,,,,,,,,,,,,,,,,,2,5.7813,0,6,6,6,1,prolific,scarce,producing abundantly,reckless,speaking profanely,2,,,,,,,,,,,,,,,,,,,,,,,,,,,,,,,,,,,,,,,,,,,,,,,,,,,,
,,,,,,,,,,,,,,,89584,001,2022-04-27_00h45.10.600,SPAMnetsValid,2021.1.4,Linux aarch64,59.87665409,,,,,,,,,,,,,,,,,,,,,,,,,4,3.4458,0,7,7,7,1,opulent,party,wealthy,happy frame of mind,semiprecious stone,2,,,,,,,,,,,,,,,,,,,,,,,,,,,,,,,,,,,,,,,,,,,,,,,,,,,,
,,,,,,,,,,,,,,,89584,001,2022-04-27_00h45.10.600,SPAMnetsValid,2021.1.4,Linux aarch64,59.87665409,,,,,,,,,,,,,,,,,,,,,,,,,3,7.4331,0,8,8,8,1,coercion,conspiracy,strategy,restraint,attraction,3,,,,,,,,,,,,,,,,,,,,,,,,,,,,,,,,,,,,,,,,,,,,,,,,,,,,
,,,,,,,,,,,,,,,89584,001,2022-04-27_00h45.10.600,SPAMnetsValid,2021.1.4,Linux aarch64,59.87665409,,,,,,,,,,,,,,,,,,,,,,,,,2,4.8575,0,9,9,9,1,hiatus,animal,calamity,dread,gap,4,,,,,,,,,,,,,,,,,,,,,,,,,,,,,,,,,,,,,,,,,,,,,,,,,,,,
,,,,,,,,,,,,,,,89584,001,2022-04-27_00h45.10.600,SPAMnetsValid,2021.1.4,Linux aarch64,59.87665409,,,,,,,,,,,,,,,,,,,,,,,,,1,4.1124,0,10,10,10,1,germane,microbe,contagious,relevant,different,3,,,,,,,,,,,,,,,,,,,,,,,,,,,,,,,,,,,,,,,,,,,,,,,,,,,,
,,,,,,,,,,,,,,,89584,001,2022-04-27_00h45.10.600,SPAMnetsValid,2021.1.4,Linux aarch64,59.87665409,,,,,,,,,,,,,,,,,,,,,,,,,4,4.5756,0,11,11,11,1,perfunctory,fundamental,formal,superficial,careful,3,,,,,,,,,,,,,,,,,,,,,,,,,,,,,,,,,,,,,,,,,,,,,,,,,,,,
,,,,,,,,,,,,,,,89584,001,2022-04-27_00h45.10.600,SPAMnetsValid,2021.1.4,Linux aarch64,59.87665409,,,,,,,,,,,,,,,,,,,,,,,,,4,6.7961,0,12,12,12,1,diverge,reveal,chant,distract the attention of,differ or turn off from,4,,,,,,,,,,,,,,,,,,,,,,,,,,,,,,,,,,,,,,,,,,,,,,,,,,,,
,,,,,,,,,,,,,,,89584,001,2022-04-27_00h45.10.600,SPAMnetsValid,2021.1.4,Linux aarch64,59.87665409,,,,,,,,,,,,,,,,,,,,,,,,,4,3.4298,0,13,13,13,1,evoke,take away,anger,connect,bring out,4,,,,,,,,,,,,,,,,,,,,,,,,,,,,,,,,,,,,,,,,,,,,,,,,,,,,
,,,,,,,,,,,,,,,89584,001,2022-04-27_00h45.10.600,SPAMnetsValid,2021.1.4,Linux aarch64,59.87665409,,,,,,,,,,,,,,,,,,,,,,,,,1,7.454,0,14,14,14,1,pertinent,relevant,lying next to,necessary,bold,1,,,,,,,,,,,,,,,,,,,,,,,,,,,,,,,,,,,,,,,,,,,,,,,,,,,,
,,,,,,,,,,,,,,,89584,001,2022-04-27_00h45.10.600,SPAMnetsValid,2021.1.4,Linux aarch64,59.87665409,,,,,,,,,,,,,,,,,,,,,,,,,2,5.0553,0,15,15,15,1,holocaust,entirety,destruction,saintly,price,2,,,,,,,,,,,,,,,,,,,,,,,,,,,,,,,,,,,,,,,,,,,,,,,,,,,,
,,,,,,,,,,,,,,,89584,001,2022-04-27_00h45.10.600,SPAMnetsValid,2021.1.4,Linux aarch64,59.87665409,,,,,,,,,,,,,,,,,,,,,,,,,4,4.7091,0,16,16,16,1,piquant,mellow,fish,pungent,cloth,3,,,,,,,,,,,,,,,,,,,,,,,,,,,,,,,,,,,,,,,,,,,,,,,,,,,,
,,,,,,,,,,,,,,,89584,001,2022-04-27_00h45.10.600,SPAMnetsValid,2021.1.4,Linux aarch64,59.87665409,,,,,,,,,,,,,,,,,,,,,,,,,2,7.3104,0,17,17,17,1,firmament,foundation,heavens,strong,glue,2,,,,,,,,,,,,,,,,,,,,,,,,,,,,,,,,,,,,,,,,,,,,,,,,,,,,
,,,,,,,,,,,,,,,89584,001,2022-04-27_00h45.10.600,SPAMnetsValid,2021.1.4,Linux aarch64,59.87665409,,,,,,,,,,,,,,,,,,,,,,,,,,,,,,,,,,,,,,2,7.2361,0,0,0,0,1,marketable,partisan,jocular,marriageable,salable,essential,4,,,,,,,,,,,,,,,,,,,,,,,,,,,,,,,,,,,,,,
,,,,,,,,,,,,,,,89584,001,2022-04-27_00h45.10.600,SPAMnetsValid,2021.1.4,Linux aarch64,59.87665409,,,,,,,,,,,,,,,,,,,,,,,,,,,,,,,,,,,,,,4,6.3052,0,1,1,1,1,cottontail,squirrel,poplar,boa,marshy plant,rabbit,5,,,,,,,,,,,,,,,,,,,,,,,,,,,,,,,,,,,,,,
,,,,,,,,,,,,,,,89584,001,2022-04-27_00h45.10.600,SPAMnetsValid,2021.1.4,Linux aarch64,59.87665409,,,,,,,,,,,,,,,,,,,,,,,,,,,,,,,,,,,,,,1,5.3417,0,2,2,2,1,boggy,afraid,false,marshy,dense,black,3,,,,,,,,,,,,,,,,,,,,,,,,,,,,,,,,,,,,,,
,,,,,,,,,,,,,,,89584,001,2022-04-27_00h45.10.600,SPAMnetsValid,2021.1.4,Linux aarch64,59.87665409,,,,,,,,,,,,,,,,,,,,,,,,,,,,,,,,,,,,,,3,7.726,0,3,3,3,1,gruesomeness,blackness,falseness,vindictiveness,drunkenness,ghastliness,5,,,,,,,,,,,,,,,,,,,,,,,,,,,,,,,,,,,,,,
,,,,,,,,,,,,,,,89584,001,2022-04-27_00h45.10.600,SPAMnetsValid,2021.1.4,Linux aarch64,59.87665409,,,,,,,,,,,,,,,,,,,,,,,,,,,,,,,,,,,,,,5,3.4168,0,4,4,4,1,loathing,diffidence,laziness,abhorrence,cleverness,comfort,3,,,,,,,,,,,,,,,,,,,,,,,,,,,,,,,,,,,,,,
,,,,,,,,,,,,,,,89584,001,2022-04-27_00h45.10.600,SPAMnetsValid,2021.1.4,Linux aarch64,59.87665409,,,,,,,,,,,,,,,,,,,,,,,,,,,,,,,,,,,,,,5,6.8149,0,5,5,5,1,bantam,fowl,ridicule,cripple,vegetable,ensign,1,,,,,,,,,,,,,,,,,,,,,,,,,,,,,,,,,,,,,,
,,,,,,,,,,,,,,,89584,001,2022-04-27_00h45.10.600,SPAMnetsValid,2021.1.4,Linux aarch64,59.87665409,,,,,,,,,,,,,,,,,,,,,,,,,,,,,,,,,,,,,,1,3.0673,0,6,6,6,1,evoke,wake up,surrender,reconnoiter,transcend,call forth,5,,,,,,,,,,,,,,,,,,,,,,,,,,,,,,,,,,,,,,
,,,,,,,,,,,,,,,89584,001,2022-04-27_00h45.10.600,SPAMnetsValid,2021.1.4,Linux aarch64,59.87665409,,,,,,,,,,,,,,,,,,,,,,,,,,,,,,,,,,,,,,2,5.6172,0,7,7,7,1,unobtrusive,unintelligent,epileptic,illogical,lineal,modest,5,,,,,,,,,,,,,,,,,,,,,,,,,,,,,,,,,,,,,,
,,,,,,,,,,,,,,,89584,001,2022-04-27_00h45.10.600,SPAMnetsValid,2021.1.4,Linux aarch64,59.87665409,,,,,,,,,,,,,,,,,,,,,,,,,,,,,,,,,,,,,,4,3.0348,0,8,8,8,1,terrain,ice cream,final test,tractor,area of ground,weight,4,,,,,,,,,,,,,,,,,,,,,,,,,,,,,,,,,,,,,,
,,,,,,,,,,,,,,,89584,001,2022-04-27_00h45.10.600,SPAMnetsValid,2021.1.4,Linux aarch64,59.87665409,,,,,,,,,,,,,,,,,,,,,,,,,,,,,,,,,,,,,,1,28.534,0,9,9,9,1,capriciousness,stubbornness,courage,whimsicality,amazement,greediness,3,,,,,,,,,,,,,,,,,,,,,,,,,,,,,,,,,,,,,,
,,,,,,,,,,,,,,,89584,001,2022-04-27_00h45.10.600,SPAMnetsValid,2021.1.4,Linux aarch64,59.87665409,,,,,,,,,,,,,,,,,,,,,,,,,,,,,,,,,,,,,,5,11.7792,0,10,10,10,1,maelstrom,slander,whirlpool,enmity,armor,majolica,2,,,,,,,,,,,,,,,,,,,,,,,,,,,,,,,,,,,,,,
,,,,,,,,,,,,,,,89584,001,2022-04-27_00h45.10.600,SPAMnetsValid,2021.1.4,Linux aarch64,59.87665409,,,,,,,,,,,,,,,,,,,,,,,,,,,,,,,,,,,,,,2,5.1571,0,11,11,11,1,tentative,critical,conclusive,authentic,provisional,apprehensive,4,,,,,,,,,,,,,,,,,,,,,,,,,,,,,,,,,,,,,,
,,,,,,,,,,,,,,,89584,001,2022-04-27_00h45.10.600,SPAMnetsValid,2021.1.4,Linux aarch64,59.87665409,,,,,,,,,,,,,,,,,,,,,,,,,,,,,,,,,,,,,,4,4.8449,0,12,12,12,1,placate,rehabilitate,plagiarize,depredate,apprise,conciliate,5,,,,,,,,,,,,,,,,,,,,,,,,,,,,,,,,,,,,,,
,,,,,,,,,,,,,,,89584,001,2022-04-27_00h45.10.600,SPAMnetsValid,2021.1.4,Linux aarch64,59.87665409,,,,,,,,,,,,,,,,,,,,,,,,,,,,,,,,,,,,,,2,12.6244,0,13,13,13,1,surcease,enlightenment,cessation,inattention,censor,substitution,2,,,,,,,,,,,,,,,,,,,,,,,,,,,,,,,,,,,,,,
,,,,,,,,,,,,,,,89584,001,2022-04-27_00h45.10.600,SPAMnetsValid,2021.1.4,Linux aarch64,59.87665409,,,,,,,,,,,,,,,,,,,,,,,,,,,,,,,,,,,,,,3,10.1472,0,14,14,14,1,apathetic,wandering,impassive,hateful,prophetic,overflowing,2,,,,,,,,,,,,,,,,,,,,,,,,,,,,,,,,,,,,,,
,,,,,,,,,,,,,,,89584,001,2022-04-27_00h45.10.600,SPAMnetsValid,2021.1.4,Linux aarch64,59.87665409,,,,,,,,,,,,,,,,,,,,,,,,,,,,,,,,,,,,,,5,6.94,0,15,15,15,1,paternoster,paternalism,patricide,malediction,benediction,prayer,5,,,,,,,,,,,,,,,,,,,,,,,,,,,,,,,,,,,,,,
,,,,,,,,,,,,,,,89584,001,2022-04-27_00h45.10.600,SPAMnetsValid,2021.1.4,Linux aarch64,59.87665409,,,,,,,,,,,,,,,,,,,,,,,,,,,,,,,,,,,,,,4,4.5808,0,16,16,16,1,opalescence,opulence,senescence,bankruptcy,iridescence,assiduity,4,,,,,,,,,,,,,,,,,,,,,,,,,,,,,,,,,,,,,,
,,,,,,,,,,,,,,,89584,001,2022-04-27_00h45.10.600,SPAMnetsValid,2021.1.4,Linux aarch64,59.87665409,,,,,,,,,,,,,,,,,,,,,,,,,,,,,,,,,,,,,,3,9.1567,0,17,17,17,1,lush,stupid,luxurious,hazy,putrid,languishing,2,,,,,,,,,,,,,,,,,,,,,,,,,,,,,,,,,,,,,,
,,,,,,,,,,,,,,,89584,001,2022-04-27_00h45.10.600,SPAMnetsValid,2021.1.4,Linux aarch64,59.87665409,,,,,,,,,,,,,,,,,,,,,,,,,,,,,,,,,,,,,,1,10.916,0,18,18,18,1,curtailment,expenditure,abandonment,abridgment,improvement,forgery,3,,,,,,,,,,,,,,,,,,,,,,,,,,,,,,,,,,,,,,
,,,,,,,,,,,,,,,89584,001,2022-04-27_00h45.10.600,SPAMnetsValid,2021.1.4,Linux aarch64,59.87665409,,,,,,,,,,,,,,,,,,,,,,,,,,,,,,,,,,,,,,4,16.6502,0,19,19,19,1,perversity,adversity,perviousness,travesty,waywardness,gentility,4,,,,,,,,,,,,,,,,,,,,,,,,,,,,,,,,,,,,,,
,,,,,,,,,,,,,,,89584,001,2022-04-27_00h45.10.600,SPAMnetsValid,2021.1.4,Linux aarch64,59.87665409,,,,,,,,,,,,,,,,,,,,,,,,,,,,,,,,,,,,,,4,13.8505,0,20,20,20,1,calumnious,complimentary,analogous,slanderous,tempestuous,magnanimous,3,,,,,,,,,,,,,,,,,,,,,,,,,,,,,,,,,,,,,,
,,,,,,,,,,,,,,,89584,001,2022-04-27_00h45.10.600,SPAMnetsValid,2021.1.4,Linux aarch64,59.87665409,,,,,,,,,,,,,,,,,,,,,,,,,,,,,,,,,,,,,,,,0,21,21,21,1,illiberality,bigotry,imbecility,illegibility,cautery,immaturity,1,,,,,,,,,,,,,,,,,,,,,,,,,,,,,,,,,,,,,,
,,,,,,,,,,,,,,,89584,001,2022-04-27_00h45.10.600,SPAMnetsValid,2021.1.4,Linux aarch64,59.87665409,,,,,,,,,,,,,,,,,,,,,,,,,,,,,,,,,,,,,,3,7.2967,0,22,22,22,1,clabber,rejoice,gossip,curdle,crow,hobble,3,,,,,,,,,,,,,,,,,,,,,,,,,,,,,,,,,,,,,,
,,,,,,,,,,,,,,,89584,001,2022-04-27_00h45.10.600,SPAMnetsValid,2021.1.4,Linux aarch64,59.87665409,,,,,,,,,,,,,,,,,,,,,,,,,,,,,,,,,,,,,,5,8.5125,0,23,23,23,1,sedulousness,diligence,credulousness,seduction,perilousness,frankness,1,,,,,,,,,,,,,,,,,,,,,,,,,,,,,,,,,,,,,,
,,,,,,,,,,,,,,,89584,001,2022-04-27_00h45.10.600,SPAMnetsValid,2021.1.4,Linux aarch64,59.87665409,,,,,,,,,,,,,,,,,,,,,,,,,,,,,,,,,,,,,,,,,,,,,,,,,,,,sleep,pillow,0,0,0,0,1,,,,,,,,,,,,,,,,,,,,,,,,,,,,,,,
,,,,,,,,,,,,,,,89584,001,2022-04-27_00h45.10.600,SPAMnetsValid,2021.1.4,Linux aarch64,59.87665409,,,,,,,,,,,,,,,,,,,,,,,,,,,,,,,,,,,,,,,,,,,,,,,,,,,,soft,pillow,1,0,1,0,1,,,,,,,,,,,,,,,,,,,,,,,,,,,,,,,
,,,,,,,,,,,,,,,89584,001,2022-04-27_00h45.10.600,SPAMnetsValid,2021.1.4,Linux aarch64,59.87665409,,,,,,,,,,,,,,,,,,,,,,,,,,,,,,,,,,,,,,,,,,,,,,,,,,,,bed,pillow,2,0,2,0,1,,,,,,,,,,,,,,,,,,,,,,,,,,,,,,,
,,,,,,,,,,,,,,,89584,001,2022-04-27_00h45.10.600,SPAMnetsValid,2021.1.4,Linux aarch64,59.87665409,,,,,,,,,,,,,,,,,,,,,,,,,,,,,,,,,,,,,,,,,,,,,,,,,,,,fluffy,pillow,3,0,3,0,1,,,,,,,,,,,,,,,,,,,,,,,,,,,,,,,
,,,,,,,,,,,,,,,89584,001,2022-04-27_00h45.10.600,SPAMnetsValid,2021.1.4,Linux aarch64,59.87665409,,,,,,,,,,,,,,,,,,,,,,,,,,,,,,,,,,,,,,,,,,,,,,,,,,,,comfortable,pillow,4,0,4,0,1,,,,,,,,,,,,,,,,,,,,,,,,,,,,,,,
,,,,,,,,,,,,,,,89584,001,2022-04-27_00h45.10.600,SPAMnetsValid,2021.1.4,Linux aarch64,59.87665409,,,,,,,,,,,,,,,,,,,,,,,,,,,,,,,,,,,,,,,,,,,,,,,,,,,,dream,pillow,5,0,5,0,1,,,,,,,,,,,,,,,,,,,,,,,,,,,,,,,
,,,,,,,,,,,,,,,89584,001,2022-04-27_00h45.10.600,SPAMnetsValid,2021.1.4,Linux aarch64,59.87665409,,,,,,,,,,,,,,,,,,,,,,,,,,,,,,,,,,,,,,,,,,,,,,,,,,,,saliva,pillow,6,0,6,0,1,,,,,,,,,,,,,,,,,,,,,,,,,,,,,,,
,,,,,,,,,,,,,,,89584,001,2022-04-27_00h45.10.600,SPAMnetsValid,2021.1.4,Linux aarch64,59.87665409,,,,,,,,,,,,,,,,,,,,,,,,,,,,,,,,,,,,,,,,,,,,,,,,,,,,hair,pillow,7,0,7,0,1,,,,,,,,,,,,,,,,,,,,,,,,,,,,,,,
,,,,,,,,,,,,,,,89584,001,2022-04-27_00h45.10.600,SPAMnetsValid,2021.1.4,Linux aarch64,59.87665409,,,,,,,,,,,,,,,,,,,,,,,,,,,,,,,,,,,,,,,,,,,,,,,,,,,,battle,pillow,8,0,8,0,1,,,,,,,,,,,,,,,,,,,,,,,,,,,,,,,
,,,,,,,,,,,,,,,89584,001,2022-04-27_00h45.10.600,SPAMnetsValid,2021.1.4,Linux aarch64,59.87665409,,,,,,,,,,,,,,,,,,,,,,,,,,,,,,,,,,,,,,,,,,,,,,,,,,,,fragrence,pillow,9,0,9,0,1,,,,,,,,,,,,,,,,,,,,,,,,,,,,,,,
,,,,,,,,,,,,,,,89584,001,2022-04-27_00h45.10.600,SPAMnetsValid,2021.1.4,Linux aarch64,59.87665409,,,,,,,,,,,,,,,,,,,,,,,,,,,,,,,,,,,,,,,,,,,,,,,,,,,,,,,,,,,0,0,0,2,1,pillow,,,,,,,,,,,,,,,,,,,,,,,,,
,,,,,,,,,,,,,,,89584,001,2022-04-27_00h45.10.600,SPAMnetsValid,2021.1.4,Linux aarch64,59.87665409,,,,,,,,,,,,,,,,,,,,,,,,,,,,,,,,,,,,,,,,,,,,,,,,,,,,water,bucket,0,0,0,0,1,,,,,,,,,,,,,,,,,,,,,,,,,,,,,,,
,,,,,,,,,,,,,,,89584,001,2022-04-27_00h45.10.600,SPAMnetsValid,2021.1.4,Linux aarch64,59.87665409,,,,,,,,,,,,,,,,,,,,,,,,,,,,,,,,,,,,,,,,,,,,,,,,,,,,iron ,bucket,1,0,1,0,1,,,,,,,,,,,,,,,,,,,,,,,,,,,,,,,
,,,,,,,,,,,,,,,89584,001,2022-04-27_00h45.10.600,SPAMnetsValid,2021.1.4,Linux aarch64,59.87665409,,,,,,,,,,,,,,,,,,,,,,,,,,,,,,,,,,,,,,,,,,,,,,,,,,,,gardening,bucket,2,0,2,0,1,,,,,,,,,,,,,,,,,,,,,,,,,,,,,,,
,,,,,,,,,,,,,,,89584,001,2022-04-27_00h45.10.600,SPAMnetsValid,2021.1.4,Linux aarch64,59.87665409,,,,,,,,,,,,,,,,,,,,,,,,,,,,,,,,,,,,,,,,,,,,,,,,,,,,handle,bucket,3,0,3,0,1,,,,,,,,,,,,,,,,,,,,,,,,,,,,,,,
,,,,,,,,,,,,,,,89584,001,2022-04-27_00h45.10.600,SPAMnetsValid,2021.1.4,Linux aarch64,59.87665409,,,,,,,,,,,,,,,,,,,,,,,,,,,,,,,,,,,,,,,,,,,,,,,,,,,,mop,bucket,4,0,4,0,1,,,,,,,,,,,,,,,,,,,,,,,,,,,,,,,
,,,,,,,,,,,,,,,89584,001,2022-04-27_00h45.10.600,SPAMnetsValid,2021.1.4,Linux aarch64,59.87665409,,,,,,,,,,,,,,,,,,,,,,,,,,,,,,,,,,,,,,,,,,,,,,,,,,,,cloth,bucket,5,0,5,0,1,,,,,,,,,,,,,,,,,,,,,,,,,,,,,,,
,,,,,,,,,,,,,,,89584,001,2022-04-27_00h45.10.600,SPAMnetsValid,2021.1.4,Linux aarch64,59.87665409,,,,,,,,,,,,,,,,,,,,,,,,,,,,,,,,,,,,,,,,,,,,,,,,,,,,stain ,bucket,6,0,6,0,1,,,,,,,,,,,,,,,,,,,,,,,,,,,,,,,
,,,,,,,,,,,,,,,89584,001,2022-04-27_00h45.10.600,SPAMnetsValid,2021.1.4,Linux aarch64,59.87665409,,,,,,,,,,,,,,,,,,,,,,,,,,,,,,,,,,,,,,,,,,,,,,,,,,,,indent,bucket,7,0,7,0,1,,,,,,,,,,,,,,,,,,,,,,,,,,,,,,,
,,,,,,,,,,,,,,,89584,001,2022-04-27_00h45.10.600,SPAMnetsValid,2021.1.4,Linux aarch64,59.87665409,,,,,,,,,,,,,,,,,,,,,,,,,,,,,,,,,,,,,,,,,,,,,,,,,,,,reflection,bucket,8,0,8,0,1,,,,,,,,,,,,,,,,,,,,,,,,,,,,,,,
,,,,,,,,,,,,,,,89584,001,2022-04-27_00h45.10.600,SPAMnetsValid,2021.1.4,Linux aarch64,59.87665409,,,,,,,,,,,,,,,,,,,,,,,,,,,,,,,,,,,,,,,,,,,,,,,,,,,,,,,,,,,0,1,1,0,1,bucket,,,,,,,,,,,,,,,,,,,,,,,,,
,,,,,,,,,,,,,,,89584,001,2022-04-27_00h45.10.600,SPAMnetsValid,2021.1.4,Linux aarch64,59.87665409,,,,,,,,,,,,,,,,,,,,,,,,,,,,,,,,,,,,,,,,,,,,,,,,,,,,light,candle,0,0,0,0,1,,,,,,,,,,,,,,,,,,,,,,,,,,,,,,,
,,,,,,,,,,,,,,,89584,001,2022-04-27_00h45.10.600,SPAMnetsValid,2021.1.4,Linux aarch64,59.87665409,,,,,,,,,,,,,,,,,,,,,,,,,,,,,,,,,,,,,,,,,,,,,,,,,,,,fire,candle,1,0,1,0,1,,,,,,,,,,,,,,,,,,,,,,,,,,,,,,,
,,,,,,,,,,,,,,,89584,001,2022-04-27_00h45.10.600,SPAMnetsValid,2021.1.4,Linux aarch64,59.87665409,,,,,,,,,,,,,,,,,,,,,,,,,,,,,,,,,,,,,,,,,,,,,,,,,,,,smoke,candle,2,0,2,0,1,,,,,,,,,,,,,,,,,,,,,,,,,,,,,,,
,,,,,,,,,,,,,,,89584,001,2022-04-27_00h45.10.600,SPAMnetsValid,2021.1.4,Linux aarch64,59.87665409,,,,,,,,,,,,,,,,,,,,,,,,,,,,,,,,,,,,,,,,,,,,,,,,,,,,fragrance,candle,3,0,3,0,1,,,,,,,,,,,,,,,,,,,,,,,,,,,,,,,
,,,,,,,,,,,,,,,89584,001,2022-04-27_00h45.10.600,SPAMnetsValid,2021.1.4,Linux aarch64,59.87665409,,,,,,,,,,,,,,,,,,,,,,,,,,,,,,,,,,,,,,,,,,,,,,,,,,,,warmth,candle,4,0,4,0,1,,,,,,,,,,,,,,,,,,,,,,,,,,,,,,,
,,,,,,,,,,,,,,,89584,001,2022-04-27_00h45.10.600,SPAMnetsValid,2021.1.4,Linux aarch64,59.87665409,,,,,,,,,,,,,,,,,,,,,,,,,,,,,,,,,,,,,,,,,,,,,,,,,,,,melting,candle,5,0,5,0,1,,,,,,,,,,,,,,,,,,,,,,,,,,,,,,,
,,,,,,,,,,,,,,,89584,001,2022-04-27_00h45.10.600,SPAMnetsValid,2021.1.4,Linux aarch64,59.87665409,,,,,,,,,,,,,,,,,,,,,,,,,,,,,,,,,,,,,,,,,,,,,,,,,,,,waxing,candle,6,0,6,0,1,,,,,,,,,,,,,,,,,,,,,,,,,,,,,,,
,,,,,,,,,,,,,,,89584,001,2022-04-27_00h45.10.600,SPAMnetsValid,2021.1.4,Linux aarch64,59.87665409,,,,,,,,,,,,,,,,,,,,,,,,,,,,,,,,,,,,,,,,,,,,,,,,,,,,candlestick,candle,7,0,7,0,1,,,,,,,,,,,,,,,,,,,,,,,,,,,,,,,
,,,,,,,,,,,,,,,89584,001,2022-04-27_00h45.10.600,SPAMnetsValid,2021.1.4,Linux aarch64,59.87665409,,,,,,,,,,,,,,,,,,,,,,,,,,,,,,,,,,,,,,,,,,,,,,,,,,,,festival,candle,8,0,8,0,1,,,,,,,,,,,,,,,,,,,,,,,,,,,,,,,
,,,,,,,,,,,,,,,89584,001,2022-04-27_00h45.10.600,SPAMnetsValid,2021.1.4,Linux aarch64,59.87665409,,,,,,,,,,,,,,,,,,,,,,,,,,,,,,,,,,,,,,,,,,,,,,,,,,,,night,candle,9,0,9,0,1,,,,,,,,,,,,,,,,,,,,,,,,,,,,,,,
,,,,,,,,,,,,,,,89584,001,2022-04-27_00h45.10.600,SPAMnetsValid,2021.1.4,Linux aarch64,59.87665409,,,,,,,,,,,,,,,,,,,,,,,,,,,,,,,,,,,,,,,,,,,,,,,,,,,,dazzling,candle,10,0,10,0,1,,,,,,,,,,,,,,,,,,,,,,,,,,,,,,,
,,,,,,,,,,,,,,,89584,001,2022-04-27_00h45.10.600,SPAMnetsValid,2021.1.4,Linux aarch64,59.87665409,,,,,,,,,,,,,,,,,,,,,,,,,,,,,,,,,,,,,,,,,,,,,,,,,,,,mathc,candle,11,0,11,0,1,,,,,,,,,,,,,,,,,,,,,,,,,,,,,,,
,,,,,,,,,,,,,,,89584,001,2022-04-27_00h45.10.600,SPAMnetsValid,2021.1.4,Linux aarch64,59.87665409,,,,,,,,,,,,,,,,,,,,,,,,,,,,,,,,,,,,,,,,,,,,,,,,,,,,match,candle,12,0,12,0,1,,,,,,,,,,,,,,,,,,,,,,,,,,,,,,,
,,,,,,,,,,,,,,,89584,001,2022-04-27_00h45.10.600,SPAMnetsValid,2021.1.4,Linux aarch64,59.87665409,,,,,,,,,,,,,,,,,,,,,,,,,,,,,,,,,,,,,,,,,,,,,,,,,,,,,,,,,,,0,2,2,1,1,candle,,,,,,,,,,,,,,,,,,,,,,,,,
,,,,,,,,,,,,,,,89584,001,2022-04-27_00h45.10.600,SPAMnetsValid,2021.1.4,Linux aarch64,59.87665409,,,,,,,,,,,,,,,,,,,,,,,,,,,,,,,,,,,,,,,,,,,,,,,,,,,,,,,,,,,,,,,,,,Animals,0,0,0,0,1,,,,,,,,,,,,,,,,,,
,,,,,,,,,,,,,,,89584,001,2022-04-27_00h45.10.600,SPAMnetsValid,2021.1.4,Linux aarch64,59.87665409,,,,,,,,,,,,,,,,,,,,,,,,,,,,,,,,,,,,,,,,,,,,,,,,,,,,,,,,,,,,,,,,,cat,Animals,1,0,1,0,1,,,,,,,,,,,,,,,,,,
,,,,,,,,,,,,,,,89584,001,2022-04-27_00h45.10.600,SPAMnetsValid,2021.1.4,Linux aarch64,59.87665409,,,,,,,,,,,,,,,,,,,,,,,,,,,,,,,,,,,,,,,,,,,,,,,,,,,,,,,,,,,,,,,,,dog,Animals,2,0,2,0,1,,,,,,,,,,,,,,,,,,
,,,,,,,,,,,,,,,89584,001,2022-04-27_00h45.10.600,SPAMnetsValid,2021.1.4,Linux aarch64,59.87665409,,,,,,,,,,,,,,,,,,,,,,,,,,,,,,,,,,,,,,,,,,,,,,,,,,,,,,,,,,,,,,,,,lion,Animals,3,0,3,0,1,,,,,,,,,,,,,,,,,,
,,,,,,,,,,,,,,,89584,001,2022-04-27_00h45.10.600,SPAMnetsValid,2021.1.4,Linux aarch64,59.87665409,,,,,,,,,,,,,,,,,,,,,,,,,,,,,,,,,,,,,,,,,,,,,,,,,,,,,,,,,,,,,,,,,frog,Animals,4,0,4,0,1,,,,,,,,,,,,,,,,,,
,,,,,,,,,,,,,,,89584,001,2022-04-27_00h45.10.600,SPAMnetsValid,2021.1.4,Linux aarch64,59.87665409,,,,,,,,,,,,,,,,,,,,,,,,,,,,,,,,,,,,,,,,,,,,,,,,,,,,,,,,,,,,,,,,,monkey,Animals,5,0,5,0,1,,,,,,,,,,,,,,,,,,
,,,,,,,,,,,,,,,89584,001,2022-04-27_00h45.10.600,SPAMnetsValid,2021.1.4,Linux aarch64,59.87665409,,,,,,,,,,,,,,,,,,,,,,,,,,,,,,,,,,,,,,,,,,,,,,,,,,,,,,,,,,,,,,,,,leperd,Animals,6,0,6,0,1,,,,,,,,,,,,,,,,,,
,,,,,,,,,,,,,,,89584,001,2022-04-27_00h45.10.600,SPAMnetsValid,2021.1.4,Linux aarch64,59.87665409,,,,,,,,,,,,,,,,,,,,,,,,,,,,,,,,,,,,,,,,,,,,,,,,,,,,,,,,,,,,,,,,,tiger,Animals,7,0,7,0,1,,,,,,,,,,,,,,,,,,
,,,,,,,,,,,,,,,89584,001,2022-04-27_00h45.10.600,SPAMnetsValid,2021.1.4,Linux aarch64,59.87665409,,,,,,,,,,,,,,,,,,,,,,,,,,,,,,,,,,,,,,,,,,,,,,,,,,,,,,,,,,,,,,,,,rabbit,Animals,8,0,8,0,1,,,,,,,,,,,,,,,,,,
,,,,,,,,,,,,,,,89584,001,2022-04-27_00h45.10.600,SPAMnetsValid,2021.1.4,Linux aarch64,59.87665409,,,,,,,,,,,,,,,,,,,,,,,,,,,,,,,,,,,,,,,,,,,,,,,,,,,,,,,,,,,,,,,,,elephant,Animals,9,0,9,0,1,,,,,,,,,,,,,,,,,,
,,,,,,,,,,,,,,,89584,001,2022-04-27_00h45.10.600,SPAMnetsValid,2021.1.4,Linux aarch64,59.87665409,,,,,,,,,,,,,,,,,,,,,,,,,,,,,,,,,,,,,,,,,,,,,,,,,,,,,,,,,,,,,,,,,cugar,Animals,10,0,10,0,1,,,,,,,,,,,,,,,,,,
,,,,,,,,,,,,,,,89584,001,2022-04-27_00h45.10.600,SPAMnetsValid,2021.1.4,Linux aarch64,59.87665409,,,,,,,,,,,,,,,,,,,,,,,,,,,,,,,,,,,,,,,,,,,,,,,,,,,,,,,,,,,,,,,,,zibra,Animals,11,0,11,0,1,,,,,,,,,,,,,,,,,,
,,,,,,,,,,,,,,,89584,001,2022-04-27_00h45.10.600,SPAMnetsValid,2021.1.4,Linux aarch64,59.87665409,,,,,,,,,,,,,,,,,,,,,,,,,,,,,,,,,,,,,,,,,,,,,,,,,,,,,,,,,,,,,,,,,deer,Animals,12,0,12,0,1,,,,,,,,,,,,,,,,,,
,,,,,,,,,,,,,,,89584,001,2022-04-27_00h45.10.600,SPAMnetsValid,2021.1.4,Linux aarch64,59.87665409,,,,,,,,,,,,,,,,,,,,,,,,,,,,,,,,,,,,,,,,,,,,,,,,,,,,,,,,,,,,,,,,,rinosourous,Animals,13,0,13,0,1,,,,,,,,,,,,,,,,,,
,,,,,,,,,,,,,,,89584,001,2022-04-27_00h45.10.600,SPAMnetsValid,2021.1.4,Linux aarch64,59.87665409,,,,,,,,,,,,,,,,,,,,,,,,,,,,,,,,,,,,,,,,,,,,,,,,,,,,,,,,,,,,,,,,,panda,Animals,14,0,14,0,1,,,,,,,,,,,,,,,,,,
,,,,,,,,,,,,,,,89584,001,2022-04-27_00h45.10.600,SPAMnetsValid,2021.1.4,Linux aarch64,59.87665409,,,,,,,,,,,,,,,,,,,,,,,,,,,,,,,,,,,,,,,,,,,,,,,,,,,,,,,,,,,,,,,,,spider,Animals,15,0,15,0,1,,,,,,,,,,,,,,,,,,
,,,,,,,,,,,,,,,89584,001,2022-04-27_00h45.10.600,SPAMnetsValid,2021.1.4,Linux aarch64,59.87665409,,,,,,,,,,,,,,,,,,,,,,,,,,,,,,,,,,,,,,,,,,,,,,,,,,,,,,,,,,,,,,,,,racoon,Animals,16,0,16,0,1,,,,,,,,,,,,,,,,,,
,,,,,,,,,,,,,,,89584,001,2022-04-27_00h45.10.600,SPAMnetsValid,2021.1.4,Linux aarch64,59.87665409,,,,,,,,,,,,,,,,,,,,,,,,,,,,,,,,,,,,,,,,,,,,,,,,,,,,,,,,,,,,,,,,,bird,Animals,17,0,17,0,1,,,,,,,,,,,,,,,,,,
,,,,,,,,,,,,,,,89584,001,2022-04-27_00h45.10.600,SPAMnetsValid,2021.1.4,Linux aarch64,59.87665409,,,,,,,,,,,,,,,,,,,,,,,,,,,,,,,,,,,,,,,,,,,,,,,,,,,,,,,,,,,,,,,,,rat,Animals,18,0,18,0,1,,,,,,,,,,,,,,,,,,
,,,,,,,,,,,,,,,89584,001,2022-04-27_00h45.10.600,SPAMnetsValid,2021.1.4,Linux aarch64,59.87665409,,,,,,,,,,,,,,,,,,,,,,,,,,,,,,,,,,,,,,,,,,,,,,,,,,,,,,,,,,,,,,,,,cow,Animals,19,0,19,0,1,,,,,,,,,,,,,,,,,,
,,,,,,,,,,,,,,,89584,001,2022-04-27_00h45.10.600,SPAMnetsValid,2021.1.4,Linux aarch64,59.87665409,,,,,,,,,,,,,,,,,,,,,,,,,,,,,,,,,,,,,,,,,,,,,,,,,,,,,,,,,,,,,,,,,cock,Animals,20,0,20,0,1,,,,,,,,,,,,,,,,,,
,,,,,,,,,,,,,,,89584,001,2022-04-27_00h45.10.600,SPAMnetsValid,2021.1.4,Linux aarch64,59.87665409,,,,,,,,,,,,,,,,,,,,,,,,,,,,,,,,,,,,,,,,,,,,,,,,,,,,,,,,,,,,,,,,,snake,Animals,21,0,21,0,1,,,,,,,,,,,,,,,,,,
,,,,,,,,,,,,,,,89584,001,2022-04-27_00h45.10.600,SPAMnetsValid,2021.1.4,Linux aarch64,59.87665409,,,,,,,,,,,,,,,,,,,,,,,,,,,,,,,,,,,,,,,,,,,,,,,,,,,,,,,,,,,,,,,,,horse,Animals,22,0,22,0,1,,,,,,,,,,,,,,,,,,
,,,,,,,,,,,,,,,89584,001,2022-04-27_00h45.10.600,SPAMnetsValid,2021.1.4,Linux aarch64,59.87665409,,,,,,,,,,,,,,,,,,,,,,,,,,,,,,,,,,,,,,,,,,,,,,,,,,,,,,,,,,,,,,,,,sheep,Animals,23,0,23,0,1,,,,,,,,,,,,,,,,,,
,,,,,,,,,,,,,,,89584,001,2022-04-27_00h45.10.600,SPAMnetsValid,2021.1.4,Linux aarch64,59.87665409,,,,,,,,,,,,,,,,,,,,,,,,,,,,,,,,,,,,,,,,,,,,,,,,,,,,,,,,,,,,,,,,,chicken,Animals,24,0,24,0,1,,,,,,,,,,,,,,,,,,
,,,,,,,,,,,,,,,89584,001,2022-04-27_00h45.10.600,SPAMnetsValid,2021.1.4,Linux aarch64,59.87665409,,,,,,,,,,,,,,,,,,,,,,,,,,,,,,,,,,,,,,,,,,,,,,,,,,,,,,,,,,,,,,,,,pig,Animals,25,0,25,0,1,,,,,,,,,,,,,,,,,,
,,,,,,,,,,,,,,,89584,001,2022-04-27_00h45.10.600,SPAMnetsValid,2021.1.4,Linux aarch64,59.87665409,,,,,,,,,,,,,,,,,,,,,,,,,,,,,,,,,,,,,,,,,,,,,,,,,,,,,,,,,,,,,,,,,hen,Animals,26,0,26,0,1,,,,,,,,,,,,,,,,,,
,,,,,,,,,,,,,,,89584,001,2022-04-27_00h45.10.600,SPAMnetsValid,2021.1.4,Linux aarch64,59.87665409,,,,,,,,,,,,,,,,,,,,,,,,,,,,,,,,,,,,,,,,,,,,,,,,,,,,,,,,,,,,,,,,,chick,Animals,27,0,27,0,1,,,,,,,,,,,,,,,,,,
,,,,,,,,,,,,,,,89584,001,2022-04-27_00h45.10.600,SPAMnetsValid,2021.1.4,Linux aarch64,59.87665409,,,,,,,,,,,,,,,,,,,,,,,,,,,,,,,,,,,,,,,,,,,,,,,,,,,,,,,,,,,,,,,,,bat,Animals,28,0,28,0,1,,,,,,,,,,,,,,,,,,
,,,,,,,,,,,,,,,89584,001,2022-04-27_00h45.10.600,SPAMnetsValid,2021.1.4,Linux aarch64,59.87665409,,,,,,,,,,,,,,,,,,,,,,,,,,,,,,,,,,,,,,,,,,,,,,,,,,,,,,,,,,,,,,,,,,,,,,,,0,0,0,0,1,Animals,,,,,,,,,,,,
,,,,,,,,,,,,,,,89584,001,2022-04-27_00h45.10.600,SPAMnetsValid,2021.1.4,Linux aarch64,59.87665409,,,,,,,,,,,,,,,,,,,,,,,,,,,,,,,,,,,,,,,,,,,,,,,,,,,,,,,,,,,,,,,,,,,,,,,,,,,,,,2,6.6511,0,0,0,0,1,"I enjoy concentrating on a fantasy or daydream and exploring all its possibilities, letting it grow and develop.",0,1,,
,,,,,,,,,,,,,,,89584,001,2022-04-27_00h45.10.600,SPAMnetsValid,2021.1.4,Linux aarch64,59.87665409,,,,,,,,,,,,,,,,,,,,,,,,,,,,,,,,,,,,,,,,,,,,,,,,,,,,,,,,,,,,,,,,,,,,,,,,,,,,,,4,5.9611,0,1,1,1,1,I think it's interesting to learn and develop new hobbies.,0,2,,
,,,,,,,,,,,,,,,89584,001,2022-04-27_00h45.10.600,SPAMnetsValid,2021.1.4,Linux aarch64,59.87665409,,,,,,,,,,,,,,,,,,,,,,,,,,,,,,,,,,,,,,,,,,,,,,,,,,,,,,,,,,,,,,,,,,,,,,,,,,,,,,3,7.5442,0,2,2,2,1,I am intrigued by the patterns I find in art and nature.,0,3,,
,,,,,,,,,,,,,,,89584,001,2022-04-27_00h45.10.600,SPAMnetsValid,2021.1.4,Linux aarch64,59.87665409,,,,,,,,,,,,,,,,,,,,,,,,,,,,,,,,,,,,,,,,,,,,,,,,,,,,,,,,,,,,,,,,,,,,,,,,,,,,,,4,6.2839,0,3,3,3,1,I believe letting students hear controversial speakers can only confuse and mislead them.,1,4,,
,,,,,,,,,,,,,,,89584,001,2022-04-27_00h45.10.600,SPAMnetsValid,2021.1.4,Linux aarch64,59.87665409,,,,,,,,,,,,,,,,,,,,,,,,,,,,,,,,,,,,,,,,,,,,,,,,,,,,,,,,,,,,,,,,,,,,,,,,,,,,,,2,8.5798,0,4,4,4,1,Poetry has little or no effect on me.,1,5,,
,,,,,,,,,,,,,,,89584,001,2022-04-27_00h45.10.600,SPAMnetsValid,2021.1.4,Linux aarch64,59.87665409,,,,,,,,,,,,,,,,,,,,,,,,,,,,,,,,,,,,,,,,,,,,,,,,,,,,,,,,,,,,,,,,,,,,,,,,,,,,,,3,5.7663,0,5,5,5,1,I would have difficulty just letting my mind wander without control or guidance.,1,6,,
,,,,,,,,,,,,,,,89584,001,2022-04-27_00h45.10.600,SPAMnetsValid,2021.1.4,Linux aarch64,59.87665409,,,,,,,,,,,,,,,,,,,,,,,,,,,,,,,,,,,,,,,,,,,,,,,,,,,,,,,,,,,,,,,,,,,,,,,,,,,,,,4,1.5129,0,6,6,6,1,I seldom notice the moods or feelings that different environments produce.,1,7,,
,,,,,,,,,,,,,,,89584,001,2022-04-27_00h45.10.600,SPAMnetsValid,2021.1.4,Linux aarch64,59.87665409,,,,,,,,,,,,,,,,,,,,,,,,,,,,,,,,,,,,,,,,,,,,,,,,,,,,,,,,,,,,,,,,,,,,,,,,,,,,,,2,2.328,0,7,7,7,1,I experience a wide range of emotions or feelings.,0,8,,
,,,,,,,,,,,,,,,89584,001,2022-04-27_00h45.10.600,SPAMnetsValid,2021.1.4,Linux aarch64,59.87665409,,,,,,,,,,,,,,,,,,,,,,,,,,,,,,,,,,,,,,,,,,,,,,,,,,,,,,,,,,,,,,,,,,,,,,,,,,,,,,5,4.8559,0,8,8,8,1,"Sometimes when I am reading poetry or looking at a work of art, I feel a chill or wave of excitement.",0,9,,
,,,,,,,,,,,,,,,89584,001,2022-04-27_00h45.10.600,SPAMnetsValid,2021.1.4,Linux aarch64,59.87665409,,,,,,,,,,,,,,,,,,,,,,,,,,,,,,,,,,,,,,,,,,,,,,,,,,,,,,,,,,,,,,,,,,,,,,,,,,,,,,4,6.9246,0,9,9,9,1,I have little interest in speculating on the nature of the universe or the human condition.,1,10,,
,,,,,,,,,,,,,,,89584,001,2022-04-27_00h45.10.600,SPAMnetsValid,2021.1.4,Linux aarch64,59.87665409,,,,,,,,,,,,,,,,,,,,,,,,,,,,,,,,,,,,,,,,,,,,,,,,,,,,,,,,,,,,,,,,,,,,,,,,,,,,,,4,3.7361,0,10,10,10,1,I have a lot of intellectual curiosity.,0,11,,
,,,,,,,,,,,,,,,89584,001,2022-04-27_00h45.10.600,SPAMnetsValid,2021.1.4,Linux aarch64,59.87665409,,,,,,,,,,,,,,,,,,,,,,,,,,,,,,,,,,,,,,,,,,,,,,,,,,,,,,,,,,,,,,,,,,,,,,,,,,,,,,1,4.4759,0,11,11,11,1,I often enjoy playing with theories or abstract ideas.,0,12,,
,,,,,,,,,,,,,,,89584,001,2022-04-27_00h45.10.600,SPAMnetsValid,2021.1.4,Linux aarch64,59.87665409,,,,,,,,,,,,,,,,,,,,,,,,,,,,,,,,,,,,,,,,,,,,,,,,,,,,,,,,,,,,,,,,,,,,,,,,,,,,,,,,,,,,,,,,return,10.7606
