key_resp_3.keys,key_resp_3.rt,slider.response,slider.rt,rjt_rating,rjt_RT,trials_22.thisRepN,trials_22.thisTrialN,trials_22.thisN,trials_22.thisIndex,trials_22.ran,rjt_order,word1,word2,attention,participant,session,date,expName,psychopyVersion,OS,frameRate,trials_99.thisRepN,trials_99.thisTrialN,trials_99.thisN,trials_99.thisIndex,trials_99.ran,trials_5.thisRepN,trials_5.thisTrialN,trials_5.thisN,trials_5.thisIndex,trials_5.ran,repOne,repTwo,slider_2.response,slider_2.rt,trials_24.thisRepN,trials_24.thisTrialN,trials_24.thisN,trials_24.thisIndex,trials_24.ran,trials_4.thisRepN,trials_4.thisTrialN,trials_4.thisN,trials_4.thisIndex,trials_4.ran,slider_extend_2.response,slider_extend_2.rt,trials_6.thisRepN,trials_6.thisTrialN,trials_6.thisN,trials_6.thisIndex,trials_6.ran,vCue2,R1,R2,R3,R4,correct,sliderVocab.response,sliderVocab.rt,trials_7.thisRepN,trials_7.thisTrialN,trials_7.thisN,trials_7.thisIndex,trials_7.ran,VocabCue,VR1,VR2,VR3,VR4,VR5,VocabCorrect,AUT_resp,AUT_label,trials.thisRepN,trials.thisTrialN,trials.thisN,trials.thisIndex,trials.ran,trials_2.thisRepN,trials_2.thisTrialN,trials_2.thisN,trials_2.thisIndex,trials_2.ran,aut_prompt,VF_response,VF_tag,trials_16.thisRepN,trials_16.thisTrialN,trials_16.thisN,trials_16.thisIndex,trials_16.ran,trials_17.thisRepN,trials_17.thisTrialN,trials_17.thisN,trials_17.thisIndex,trials_17.ran,VFcond,open_slider.response,open_slider.rt,trials_3.thisRepN,trials_3.thisTrialN,trials_3.thisN,trials_3.thisIndex,trials_3.ran,OpenQ,Rev,OPEN_ORDER,key_resp_2.keys,key_resp_2.rt
return,4.4867,3,7.0318,3,7.0318,0,0,0,31,1,33,oven,yogurt,,89591,001,2022-04-28_20h45.48.811,SPAMnetsValid,2021.1.4,MacIntel,59.97361161,,,,,,,,,,,,,,,,,,,,,,,,,,,,,,,,,,,,,,,,,,,,,,,,,,,,,,,,,,,,,,,,,,,,,,,,,,,,,,,,,,,,,,,,,
,,4,2.9627,4,2.9627,0,1,1,57,1,62,kitchen,rose,,89591,001,2022-04-28_20h45.48.811,SPAMnetsValid,2021.1.4,MacIntel,59.97361161,,,,,,,,,,,,,,,,,,,,,,,,,,,,,,,,,,,,,,,,,,,,,,,,,,,,,,,,,,,,,,,,,,,,,,,,,,,,,,,,,,,,,,,,,
,,1,2.5813,1,2.5813,0,2,2,56,1,78,cookie,rose,,89591,001,2022-04-28_20h45.48.811,SPAMnetsValid,2021.1.4,MacIntel,59.97361161,,,,,,,,,,,,,,,,,,,,,,,,,,,,,,,,,,,,,,,,,,,,,,,,,,,,,,,,,,,,,,,,,,,,,,,,,,,,,,,,,,,,,,,,,
,,1,1.3801,1,1.3801,0,3,3,17,1,27,cactus,cookie,,89591,001,2022-04-28_20h45.48.811,SPAMnetsValid,2021.1.4,MacIntel,59.97361161,,,,,,,,,,,,,,,,,,,,,,,,,,,,,,,,,,,,,,,,,,,,,,,,,,,,,,,,,,,,,,,,,,,,,,,,,,,,,,,,,,,,,,,,,
,,3,3.3138,3,3.3138,0,4,4,28,1,84,oven,tomato,,89591,001,2022-04-28_20h45.48.811,SPAMnetsValid,2021.1.4,MacIntel,59.97361161,,,,,,,,,,,,,,,,,,,,,,,,,,,,,,,,,,,,,,,,,,,,,,,,,,,,,,,,,,,,,,,,,,,,,,,,,,,,,,,,,,,,,,,,,
,,3,1.715,3,1.715,0,5,5,26,1,35,flower,pretzel,,89591,001,2022-04-28_20h45.48.811,SPAMnetsValid,2021.1.4,MacIntel,59.97361161,,,,,,,,,,,,,,,,,,,,,,,,,,,,,,,,,,,,,,,,,,,,,,,,,,,,,,,,,,,,,,,,,,,,,,,,,,,,,,,,,,,,,,,,,
,,4,2.4146,4,2.4146,0,6,6,48,1,66,melon,yogurt,,89591,001,2022-04-28_20h45.48.811,SPAMnetsValid,2021.1.4,MacIntel,59.97361161,,,,,,,,,,,,,,,,,,,,,,,,,,,,,,,,,,,,,,,,,,,,,,,,,,,,,,,,,,,,,,,,,,,,,,,,,,,,,,,,,,,,,,,,,
,,6,2.3804,6,2.3804,0,7,7,77,1,7,melon,tree,,89591,001,2022-04-28_20h45.48.811,SPAMnetsValid,2021.1.4,MacIntel,59.97361161,,,,,,,,,,,,,,,,,,,,,,,,,,,,,,,,,,,,,,,,,,,,,,,,,,,,,,,,,,,,,,,,,,,,,,,,,,,,,,,,,,,,,,,,,
,,6,1.6772,6,1.6772,0,8,8,76,1,36,broom,kitchen,,89591,001,2022-04-28_20h45.48.811,SPAMnetsValid,2021.1.4,MacIntel,59.97361161,,,,,,,,,,,,,,,,,,,,,,,,,,,,,,,,,,,,,,,,,,,,,,,,,,,,,,,,,,,,,,,,,,,,,,,,,,,,,,,,,,,,,,,,,
,,4,1.375,4,1.375,0,9,9,36,1,12,cookie,yogurt,,89591,001,2022-04-28_20h45.48.811,SPAMnetsValid,2021.1.4,MacIntel,59.97361161,,,,,,,,,,,,,,,,,,,,,,,,,,,,,,,,,,,,,,,,,,,,,,,,,,,,,,,,,,,,,,,,,,,,,,,,,,,,,,,,,,,,,,,,,
,,3,1.2919,3,1.2919,0,10,10,5,1,13,broom,yogurt,,89591,001,2022-04-28_20h45.48.811,SPAMnetsValid,2021.1.4,MacIntel,59.97361161,,,,,,,,,,,,,,,,,,,,,,,,,,,,,,,,,,,,,,,,,,,,,,,,,,,,,,,,,,,,,,,,,,,,,,,,,,,,,,,,,,,,,,,,,
,,1,1.376,1,1.376,0,11,11,69,1,45,onion,pretzel,,89591,001,2022-04-28_20h45.48.811,SPAMnetsValid,2021.1.4,MacIntel,59.97361161,,,,,,,,,,,,,,,,,,,,,,,,,,,,,,,,,,,,,,,,,,,,,,,,,,,,,,,,,,,,,,,,,,,,,,,,,,,,,,,,,,,,,,,,,
,,3,1.629,3,1.629,0,12,12,86,1,51,onion,strawberry,,89591,001,2022-04-28_20h45.48.811,SPAMnetsValid,2021.1.4,MacIntel,59.97361161,,,,,,,,,,,,,,,,,,,,,,,,,,,,,,,,,,,,,,,,,,,,,,,,,,,,,,,,,,,,,,,,,,,,,,,,,,,,,,,,,,,,,,,,,
,,2,1.5298,2,1.5298,0,13,13,89,1,80,chocolate,tree,,89591,001,2022-04-28_20h45.48.811,SPAMnetsValid,2021.1.4,MacIntel,59.97361161,,,,,,,,,,,,,,,,,,,,,,,,,,,,,,,,,,,,,,,,,,,,,,,,,,,,,,,,,,,,,,,,,,,,,,,,,,,,,,,,,,,,,,,,,
,,2,1.1158,2,1.1158,0,14,14,51,1,47,onion,tomato,,89591,001,2022-04-28_20h45.48.811,SPAMnetsValid,2021.1.4,MacIntel,59.97361161,,,,,,,,,,,,,,,,,,,,,,,,,,,,,,,,,,,,,,,,,,,,,,,,,,,,,,,,,,,,,,,,,,,,,,,,,,,,,,,,,,,,,,,,,
,,3,0.9595,3,0.9595,0,15,15,22,1,16,chocolate,flower,,89591,001,2022-04-28_20h45.48.811,SPAMnetsValid,2021.1.4,MacIntel,59.97361161,,,,,,,,,,,,,,,,,,,,,,,,,,,,,,,,,,,,,,,,,,,,,,,,,,,,,,,,,,,,,,,,,,,,,,,,,,,,,,,,,,,,,,,,,
,,3,1.5434,3,1.5434,0,16,16,37,1,58,garden,oven,,89591,001,2022-04-28_20h45.48.811,SPAMnetsValid,2021.1.4,MacIntel,59.97361161,,,,,,,,,,,,,,,,,,,,,,,,,,,,,,,,,,,,,,,,,,,,,,,,,,,,,,,,,,,,,,,,,,,,,,,,,,,,,,,,,,,,,,,,,
,,6,1.8814,6,1.8814,0,17,17,75,1,69,carrot,refrigerator,,89591,001,2022-04-28_20h45.48.811,SPAMnetsValid,2021.1.4,MacIntel,59.97361161,,,,,,,,,,,,,,,,,,,,,,,,,,,,,,,,,,,,,,,,,,,,,,,,,,,,,,,,,,,,,,,,,,,,,,,,,,,,,,,,,,,,,,,,,
,,6,0.9231,6,0.9231,0,18,18,81,1,60,cactus,onion,,89591,001,2022-04-28_20h45.48.811,SPAMnetsValid,2021.1.4,MacIntel,59.97361161,,,,,,,,,,,,,,,,,,,,,,,,,,,,,,,,,,,,,,,,,,,,,,,,,,,,,,,,,,,,,,,,,,,,,,,,,,,,,,,,,,,,,,,,,
,,1,1.7791,1,1.7791,0,19,19,32,1,40,broom,cake,,89591,001,2022-04-28_20h45.48.811,SPAMnetsValid,2021.1.4,MacIntel,59.97361161,,,,,,,,,,,,,,,,,,,,,,,,,,,,,,,,,,,,,,,,,,,,,,,,,,,,,,,,,,,,,,,,,,,,,,,,,,,,,,,,,,,,,,,,,
,,2,1.0772,2,1.0772,0,20,20,27,1,72,broom,onion,,89591,001,2022-04-28_20h45.48.811,SPAMnetsValid,2021.1.4,MacIntel,59.97361161,,,,,,,,,,,,,,,,,,,,,,,,,,,,,,,,,,,,,,,,,,,,,,,,,,,,,,,,,,,,,,,,,,,,,,,,,,,,,,,,,,,,,,,,,
,,4,2.0102,4,2.0102,0,21,21,91,1,2,kitchen,onion,,89591,001,2022-04-28_20h45.48.811,SPAMnetsValid,2021.1.4,MacIntel,59.97361161,,,,,,,,,,,,,,,,,,,,,,,,,,,,,,,,,,,,,,,,,,,,,,,,,,,,,,,,,,,,,,,,,,,,,,,,,,,,,,,,,,,,,,,,,
,,6,2.5303,6,2.5303,0,22,22,3,1,49,flower,strawberry,,89591,001,2022-04-28_20h45.48.811,SPAMnetsValid,2021.1.4,MacIntel,59.97361161,,,,,,,,,,,,,,,,,,,,,,,,,,,,,,,,,,,,,,,,,,,,,,,,,,,,,,,,,,,,,,,,,,,,,,,,,,,,,,,,,,,,,,,,,
,,7,1.5631,7,1.5631,0,23,23,95,1,52,carrot,tomato,,89591,001,2022-04-28_20h45.48.811,SPAMnetsValid,2021.1.4,MacIntel,59.97361161,,,,,,,,,,,,,,,,,,,,,,,,,,,,,,,,,,,,,,,,,,,,,,,,,,,,,,,,,,,,,,,,,,,,,,,,,,,,,,,,,,,,,,,,,
,,7,2.2768,7,2.2768,0,24,24,52,1,4,chocolate,pretzel,,89591,001,2022-04-28_20h45.48.811,SPAMnetsValid,2021.1.4,MacIntel,59.97361161,,,,,,,,,,,,,,,,,,,,,,,,,,,,,,,,,,,,,,,,,,,,,,,,,,,,,,,,,,,,,,,,,,,,,,,,,,,,,,,,,,,,,,,,,
,,7,1.4113,7,1.4113,0,25,25,83,1,6,garden,onion,,89591,001,2022-04-28_20h45.48.811,SPAMnetsValid,2021.1.4,MacIntel,59.97361161,,,,,,,,,,,,,,,,,,,,,,,,,,,,,,,,,,,,,,,,,,,,,,,,,,,,,,,,,,,,,,,,,,,,,,,,,,,,,,,,,,,,,,,,,
,,2,1.5948,2,1.5948,0,26,26,34,1,29,chocolate,melon,,89591,001,2022-04-28_20h45.48.811,SPAMnetsValid,2021.1.4,MacIntel,59.97361161,,,,,,,,,,,,,,,,,,,,,,,,,,,,,,,,,,,,,,,,,,,,,,,,,,,,,,,,,,,,,,,,,,,,,,,,,,,,,,,,,,,,,,,,,
,,8,1.0287,8,1.0287,0,27,27,23,1,65,broom,garden,,89591,001,2022-04-28_20h45.48.811,SPAMnetsValid,2021.1.4,MacIntel,59.97361161,,,,,,,,,,,,,,,,,,,,,,,,,,,,,,,,,,,,,,,,,,,,,,,,,,,,,,,,,,,,,,,,,,,,,,,,,,,,,,,,,,,,,,,,,
,,2,1.846,2,1.846,0,28,28,50,1,81,pretzel,yogurt,,89591,001,2022-04-28_20h45.48.811,SPAMnetsValid,2021.1.4,MacIntel,59.97361161,,,,,,,,,,,,,,,,,,,,,,,,,,,,,,,,,,,,,,,,,,,,,,,,,,,,,,,,,,,,,,,,,,,,,,,,,,,,,,,,,,,,,,,,,
,,3,3.5658,3,3.5658,0,29,29,74,1,70,chocolate,onion,,89591,001,2022-04-28_20h45.48.811,SPAMnetsValid,2021.1.4,MacIntel,59.97361161,,,,,,,,,,,,,,,,,,,,,,,,,,,,,,,,,,,,,,,,,,,,,,,,,,,,,,,,,,,,,,,,,,,,,,,,,,,,,,,,,,,,,,,,,
,,7,1.5807,7,1.5807,0,30,30,21,1,56,cactus,tree,,89591,001,2022-04-28_20h45.48.811,SPAMnetsValid,2021.1.4,MacIntel,59.97361161,,,,,,,,,,,,,,,,,,,,,,,,,,,,,,,,,,,,,,,,,,,,,,,,,,,,,,,,,,,,,,,,,,,,,,,,,,,,,,,,,,,,,,,,,
,,2,1.2791,2,1.2791,0,31,31,85,1,90,cactus,cake,,89591,001,2022-04-28_20h45.48.811,SPAMnetsValid,2021.1.4,MacIntel,59.97361161,,,,,,,,,,,,,,,,,,,,,,,,,,,,,,,,,,,,,,,,,,,,,,,,,,,,,,,,,,,,,,,,,,,,,,,,,,,,,,,,,,,,,,,,,
,,6,2.1619,6,2.1619,0,32,32,42,1,77,refrigerator,yogurt,,89591,001,2022-04-28_20h45.48.811,SPAMnetsValid,2021.1.4,MacIntel,59.97361161,,,,,,,,,,,,,,,,,,,,,,,,,,,,,,,,,,,,,,,,,,,,,,,,,,,,,,,,,,,,,,,,,,,,,,,,,,,,,,,,,,,,,,,,,
,,3,1.815,3,1.815,0,33,33,35,1,55,tomato,tree,,89591,001,2022-04-28_20h45.48.811,SPAMnetsValid,2021.1.4,MacIntel,59.97361161,,,,,,,,,,,,,,,,,,,,,,,,,,,,,,,,,,,,,,,,,,,,,,,,,,,,,,,,,,,,,,,,,,,,,,,,,,,,,,,,,,,,,,,,,
,,4,1.1965,4,1.1965,0,34,34,13,1,26,tomato,yogurt,,89591,001,2022-04-28_20h45.48.811,SPAMnetsValid,2021.1.4,MacIntel,59.97361161,,,,,,,,,,,,,,,,,,,,,,,,,,,,,,,,,,,,,,,,,,,,,,,,,,,,,,,,,,,,,,,,,,,,,,,,,,,,,,,,,,,,,,,,,
,,3,1.313,3,1.313,0,35,35,18,1,85,cake,tree,,89591,001,2022-04-28_20h45.48.811,SPAMnetsValid,2021.1.4,MacIntel,59.97361161,,,,,,,,,,,,,,,,,,,,,,,,,,,,,,,,,,,,,,,,,,,,,,,,,,,,,,,,,,,,,,,,,,,,,,,,,,,,,,,,,,,,,,,,,
,,3,1.2436,3,1.2436,0,36,36,15,1,48,flower,oven,,89591,001,2022-04-28_20h45.48.811,SPAMnetsValid,2021.1.4,MacIntel,59.97361161,,,,,,,,,,,,,,,,,,,,,,,,,,,,,,,,,,,,,,,,,,,,,,,,,,,,,,,,,,,,,,,,,,,,,,,,,,,,,,,,,,,,,,,,,
,,3,0.8119,3,0.8119,0,37,37,6,1,87,carrot,yogurt,,89591,001,2022-04-28_20h45.48.811,SPAMnetsValid,2021.1.4,MacIntel,59.97361161,,,,,,,,,,,,,,,,,,,,,,,,,,,,,,,,,,,,,,,,,,,,,,,,,,,,,,,,,,,,,,,,,,,,,,,,,,,,,,,,,,,,,,,,,
,,3,0.5301,3,0.5301,0,38,38,80,1,61,strawberry,tomato,,89591,001,2022-04-28_20h45.48.811,SPAMnetsValid,2021.1.4,MacIntel,59.97361161,,,,,,,,,,,,,,,,,,,,,,,,,,,,,,,,,,,,,,,,,,,,,,,,,,,,,,,,,,,,,,,,,,,,,,,,,,,,,,,,,,,,,,,,,
,,3,4.4239,3,4.4239,0,39,39,60,1,89,chocolate,rose,,89591,001,2022-04-28_20h45.48.811,SPAMnetsValid,2021.1.4,MacIntel,59.97361161,,,,,,,,,,,,,,,,,,,,,,,,,,,,,,,,,,,,,,,,,,,,,,,,,,,,,,,,,,,,,,,,,,,,,,,,,,,,,,,,,,,,,,,,,
,,5,2.5303,5,2.5303,0,40,40,25,1,23,flower,microwave,,89591,001,2022-04-28_20h45.48.811,SPAMnetsValid,2021.1.4,MacIntel,59.97361161,,,,,,,,,,,,,,,,,,,,,,,,,,,,,,,,,,,,,,,,,,,,,,,,,,,,,,,,,,,,,,,,,,,,,,,,,,,,,,,,,,,,,,,,,
,,5,1.129,5,1.129,0,41,41,88,1,92,broom,flower,,89591,001,2022-04-28_20h45.48.811,SPAMnetsValid,2021.1.4,MacIntel,59.97361161,,,,,,,,,,,,,,,,,,,,,,,,,,,,,,,,,,,,,,,,,,,,,,,,,,,,,,,,,,,,,,,,,,,,,,,,,,,,,,,,,,,,,,,,,
,,4,1.3638,4,1.3638,0,42,42,82,1,93,kitchen,oven,,89591,001,2022-04-28_20h45.48.811,SPAMnetsValid,2021.1.4,MacIntel,59.97361161,,,,,,,,,,,,,,,,,,,,,,,,,,,,,,,,,,,,,,,,,,,,,,,,,,,,,,,,,,,,,,,,,,,,,,,,,,,,,,,,,,,,,,,,,
,,9,2.4299,9,2.4299,0,43,43,93,1,63,cake,cookie,,89591,001,2022-04-28_20h45.48.811,SPAMnetsValid,2021.1.4,MacIntel,59.97361161,,,,,,,,,,,,,,,,,,,,,,,,,,,,,,,,,,,,,,,,,,,,,,,,,,,,,,,,,,,,,,,,,,,,,,,,,,,,,,,,,,,,,,,,,
,,9,2.3975,9,2.3975,0,44,44,53,1,192,microwave,microwave,CHECK,89591,001,2022-04-28_20h45.48.811,SPAMnetsValid,2021.1.4,MacIntel,59.97361161,,,,,,,,,,,,,,,,,,,,,,,,,,,,,,,,,,,,,,,,,,,,,,,,,,,,,,,,,,,,,,,,,,,,,,,,,,,,,,,,,,,,,,,,,
,,4,1.7117,4,1.7117,0,45,45,24,1,17,carrot,melon,,89591,001,2022-04-28_20h45.48.811,SPAMnetsValid,2021.1.4,MacIntel,59.97361161,,,,,,,,,,,,,,,,,,,,,,,,,,,,,,,,,,,,,,,,,,,,,,,,,,,,,,,,,,,,,,,,,,,,,,,,,,,,,,,,,,,,,,,,,
,,4,1.2631,4,1.2631,0,46,46,20,1,39,melon,pretzel,,89591,001,2022-04-28_20h45.48.811,SPAMnetsValid,2021.1.4,MacIntel,59.97361161,,,,,,,,,,,,,,,,,,,,,,,,,,,,,,,,,,,,,,,,,,,,,,,,,,,,,,,,,,,,,,,,,,,,,,,,,,,,,,,,,,,,,,,,,
,,3,1.2291,3,1.2291,0,47,47,38,1,88,cactus,melon,,89591,001,2022-04-28_20h45.48.811,SPAMnetsValid,2021.1.4,MacIntel,59.97361161,,,,,,,,,,,,,,,,,,,,,,,,,,,,,,,,,,,,,,,,,,,,,,,,,,,,,,,,,,,,,,,,,,,,,,,,,,,,,,,,,,,,,,,,,
,,3,1.1147,3,1.1147,0,48,48,94,1,68,flower,tomato,,89591,001,2022-04-28_20h45.48.811,SPAMnetsValid,2021.1.4,MacIntel,59.97361161,,,,,,,,,,,,,,,,,,,,,,,,,,,,,,,,,,,,,,,,,,,,,,,,,,,,,,,,,,,,,,,,,,,,,,,,,,,,,,,,,,,,,,,,,
,,3,1.0964,3,1.0964,0,49,49,40,1,74,broom,pretzel,,89591,001,2022-04-28_20h45.48.811,SPAMnetsValid,2021.1.4,MacIntel,59.97361161,,,,,,,,,,,,,,,,,,,,,,,,,,,,,,,,,,,,,,,,,,,,,,,,,,,,,,,,,,,,,,,,,,,,,,,,,,,,,,,,,,,,,,,,,
,,3,1.267,3,1.267,0,50,50,11,1,37,garden,refrigerator,,89591,001,2022-04-28_20h45.48.811,SPAMnetsValid,2021.1.4,MacIntel,59.97361161,,,,,,,,,,,,,,,,,,,,,,,,,,,,,,,,,,,,,,,,,,,,,,,,,,,,,,,,,,,,,,,,,,,,,,,,,,,,,,,,,,,,,,,,,
,,2,1.5458,2,1.5458,0,51,51,54,1,28,cake,melon,,89591,001,2022-04-28_20h45.48.811,SPAMnetsValid,2021.1.4,MacIntel,59.97361161,,,,,,,,,,,,,,,,,,,,,,,,,,,,,,,,,,,,,,,,,,,,,,,,,,,,,,,,,,,,,,,,,,,,,,,,,,,,,,,,,,,,,,,,,
,,4,2.3467,4,2.3467,0,52,52,29,1,42,garden,kitchen,,89591,001,2022-04-28_20h45.48.811,SPAMnetsValid,2021.1.4,MacIntel,59.97361161,,,,,,,,,,,,,,,,,,,,,,,,,,,,,,,,,,,,,,,,,,,,,,,,,,,,,,,,,,,,,,,,,,,,,,,,,,,,,,,,,,,,,,,,,
,,8,2.2292,8,2.2292,0,53,53,19,1,76,garden,rose,,89591,001,2022-04-28_20h45.48.811,SPAMnetsValid,2021.1.4,MacIntel,59.97361161,,,,,,,,,,,,,,,,,,,,,,,,,,,,,,,,,,,,,,,,,,,,,,,,,,,,,,,,,,,,,,,,,,,,,,,,,,,,,,,,,,,,,,,,,
,,3,1.5959,3,1.5959,0,54,54,7,1,34,melon,oven,,89591,001,2022-04-28_20h45.48.811,SPAMnetsValid,2021.1.4,MacIntel,59.97361161,,,,,,,,,,,,,,,,,,,,,,,,,,,,,,,,,,,,,,,,,,,,,,,,,,,,,,,,,,,,,,,,,,,,,,,,,,,,,,,,,,,,,,,,,
,,6,1.2964,6,1.2964,0,55,55,46,1,41,broom,cactus,,89591,001,2022-04-28_20h45.48.811,SPAMnetsValid,2021.1.4,MacIntel,59.97361161,,,,,,,,,,,,,,,,,,,,,,,,,,,,,,,,,,,,,,,,,,,,,,,,,,,,,,,,,,,,,,,,,,,,,,,,,,,,,,,,,,,,,,,,,
,,7,1.8964,7,1.8964,0,56,56,78,1,30,cookie,pretzel,,89591,001,2022-04-28_20h45.48.811,SPAMnetsValid,2021.1.4,MacIntel,59.97361161,,,,,,,,,,,,,,,,,,,,,,,,,,,,,,,,,,,,,,,,,,,,,,,,,,,,,,,,,,,,,,,,,,,,,,,,,,,,,,,,,,,,,,,,,
,,3,1.3264,3,1.3264,0,57,57,68,1,24,cookie,tomato,,89591,001,2022-04-28_20h45.48.811,SPAMnetsValid,2021.1.4,MacIntel,59.97361161,,,,,,,,,,,,,,,,,,,,,,,,,,,,,,,,,,,,,,,,,,,,,,,,,,,,,,,,,,,,,,,,,,,,,,,,,,,,,,,,,,,,,,,,,
,,2,2.5463,2,2.5463,0,58,58,14,1,64,chocolate,garden,,89591,001,2022-04-28_20h45.48.811,SPAMnetsValid,2021.1.4,MacIntel,59.97361161,,,,,,,,,,,,,,,,,,,,,,,,,,,,,,,,,,,,,,,,,,,,,,,,,,,,,,,,,,,,,,,,,,,,,,,,,,,,,,,,,,,,,,,,,
,,3,2.6745,3,2.6745,0,59,59,67,1,54,chocolate,yogurt,,89591,001,2022-04-28_20h45.48.811,SPAMnetsValid,2021.1.4,MacIntel,59.97361161,,,,,,,,,,,,,,,,,,,,,,,,,,,,,,,,,,,,,,,,,,,,,,,,,,,,,,,,,,,,,,,,,,,,,,,,,,,,,,,,,,,,,,,,,
,,2,2.1449,2,2.1449,0,60,60,33,1,32,cake,microwave,,89591,001,2022-04-28_20h45.48.811,SPAMnetsValid,2021.1.4,MacIntel,59.97361161,,,,,,,,,,,,,,,,,,,,,,,,,,,,,,,,,,,,,,,,,,,,,,,,,,,,,,,,,,,,,,,,,,,,,,,,,,,,,,,,,,,,,,,,,
,,3,1.2607,3,1.2607,0,61,61,12,1,67,flower,yogurt,,89591,001,2022-04-28_20h45.48.811,SPAMnetsValid,2021.1.4,MacIntel,59.97361161,,,,,,,,,,,,,,,,,,,,,,,,,,,,,,,,,,,,,,,,,,,,,,,,,,,,,,,,,,,,,,,,,,,,,,,,,,,,,,,,,,,,,,,,,
,,3,0.6944,3,0.6944,0,62,62,70,1,5,oven,tree,,89591,001,2022-04-28_20h45.48.811,SPAMnetsValid,2021.1.4,MacIntel,59.97361161,,,,,,,,,,,,,,,,,,,,,,,,,,,,,,,,,,,,,,,,,,,,,,,,,,,,,,,,,,,,,,,,,,,,,,,,,,,,,,,,,,,,,,,,,
,,3,0.7112,3,0.7112,0,63,63,87,1,79,garden,strawberry,,89591,001,2022-04-28_20h45.48.811,SPAMnetsValid,2021.1.4,MacIntel,59.97361161,,,,,,,,,,,,,,,,,,,,,,,,,,,,,,,,,,,,,,,,,,,,,,,,,,,,,,,,,,,,,,,,,,,,,,,,,,,,,,,,,,,,,,,,,
,,3,0.5955,3,0.5955,0,64,64,71,1,38,pretzel,refrigerator,,89591,001,2022-04-28_20h45.48.811,SPAMnetsValid,2021.1.4,MacIntel,59.97361161,,,,,,,,,,,,,,,,,,,,,,,,,,,,,,,,,,,,,,,,,,,,,,,,,,,,,,,,,,,,,,,,,,,,,,,,,,,,,,,,,,,,,,,,,
,,3,0.6092,3,0.6092,0,65,65,2,1,22,kitchen,strawberry,,89591,001,2022-04-28_20h45.48.811,SPAMnetsValid,2021.1.4,MacIntel,59.97361161,,,,,,,,,,,,,,,,,,,,,,,,,,,,,,,,,,,,,,,,,,,,,,,,,,,,,,,,,,,,,,,,,,,,,,,,,,,,,,,,,,,,,,,,,
,,3,0.594,3,0.594,0,66,66,10,1,191,cake,cake,CHECK,89591,001,2022-04-28_20h45.48.811,SPAMnetsValid,2021.1.4,MacIntel,59.97361161,,,,,,,,,,,,,,,,,,,,,,,,,,,,,,,,,,,,,,,,,,,,,,,,,,,,,,,,,,,,,,,,,,,,,,,,,,,,,,,,,,,,,,,,,
,,3,0.7084,3,0.7084,0,67,67,92,1,44,cookie,melon,,89591,001,2022-04-28_20h45.48.811,SPAMnetsValid,2021.1.4,MacIntel,59.97361161,,,,,,,,,,,,,,,,,,,,,,,,,,,,,,,,,,,,,,,,,,,,,,,,,,,,,,,,,,,,,,,,,,,,,,,,,,,,,,,,,,,,,,,,,
,,3,0.6454,3,0.6454,0,68,68,63,1,21,cake,onion,,89591,001,2022-04-28_20h45.48.811,SPAMnetsValid,2021.1.4,MacIntel,59.97361161,,,,,,,,,,,,,,,,,,,,,,,,,,,,,,,,,,,,,,,,,,,,,,,,,,,,,,,,,,,,,,,,,,,,,,,,,,,,,,,,,,,,,,,,,
,,4,1.4593,4,1.4593,0,69,69,61,1,71,broom,rose,,89591,001,2022-04-28_20h45.48.811,SPAMnetsValid,2021.1.4,MacIntel,59.97361161,,,,,,,,,,,,,,,,,,,,,,,,,,,,,,,,,,,,,,,,,,,,,,,,,,,,,,,,,,,,,,,,,,,,,,,,,,,,,,,,,,,,,,,,,
,,3,0.7134,3,0.7134,0,70,70,9,1,75,cookie,onion,,89591,001,2022-04-28_20h45.48.811,SPAMnetsValid,2021.1.4,MacIntel,59.97361161,,,,,,,,,,,,,,,,,,,,,,,,,,,,,,,,,,,,,,,,,,,,,,,,,,,,,,,,,,,,,,,,,,,,,,,,,,,,,,,,,,,,,,,,,
,,3,0.7117,3,0.7117,0,71,71,30,1,3,cake,oven,,89591,001,2022-04-28_20h45.48.811,SPAMnetsValid,2021.1.4,MacIntel,59.97361161,,,,,,,,,,,,,,,,,,,,,,,,,,,,,,,,,,,,,,,,,,,,,,,,,,,,,,,,,,,,,,,,,,,,,,,,,,,,,,,,,,,,,,,,,
,,6,1.8765,6,1.8765,0,72,72,66,1,20,rose,tree,,89591,001,2022-04-28_20h45.48.811,SPAMnetsValid,2021.1.4,MacIntel,59.97361161,,,,,,,,,,,,,,,,,,,,,,,,,,,,,,,,,,,,,,,,,,,,,,,,,,,,,,,,,,,,,,,,,,,,,,,,,,,,,,,,,,,,,,,,,
,,2,1.2288,2,1.2288,0,73,73,55,1,1,rose,yogurt,,89591,001,2022-04-28_20h45.48.811,SPAMnetsValid,2021.1.4,MacIntel,59.97361161,,,,,,,,,,,,,,,,,,,,,,,,,,,,,,,,,,,,,,,,,,,,,,,,,,,,,,,,,,,,,,,,,,,,,,,,,,,,,,,,,,,,,,,,,
,,7,2.263,7,2.263,0,74,74,58,1,94,kitchen,microwave,,89591,001,2022-04-28_20h45.48.811,SPAMnetsValid,2021.1.4,MacIntel,59.97361161,,,,,,,,,,,,,,,,,,,,,,,,,,,,,,,,,,,,,,,,,,,,,,,,,,,,,,,,,,,,,,,,,,,,,,,,,,,,,,,,,,,,,,,,,
,,2,1.6596,2,1.6596,0,75,75,41,1,19,microwave,pretzel,,89591,001,2022-04-28_20h45.48.811,SPAMnetsValid,2021.1.4,MacIntel,59.97361161,,,,,,,,,,,,,,,,,,,,,,,,,,,,,,,,,,,,,,,,,,,,,,,,,,,,,,,,,,,,,,,,,,,,,,,,,,,,,,,,,,,,,,,,,
,,2,2.1643,2,2.1643,0,76,76,59,1,8,broom,melon,,89591,001,2022-04-28_20h45.48.811,SPAMnetsValid,2021.1.4,MacIntel,59.97361161,,,,,,,,,,,,,,,,,,,,,,,,,,,,,,,,,,,,,,,,,,,,,,,,,,,,,,,,,,,,,,,,,,,,,,,,,,,,,,,,,,,,,,,,,
,,2,0.9122,2,0.9122,0,77,77,4,1,83,broom,carrot,,89591,001,2022-04-28_20h45.48.811,SPAMnetsValid,2021.1.4,MacIntel,59.97361161,,,,,,,,,,,,,,,,,,,,,,,,,,,,,,,,,,,,,,,,,,,,,,,,,,,,,,,,,,,,,,,,,,,,,,,,,,,,,,,,,,,,,,,,,
,,2,1.1754,2,1.1754,0,78,78,47,1,73,broom,chocolate,,89591,001,2022-04-28_20h45.48.811,SPAMnetsValid,2021.1.4,MacIntel,59.97361161,,,,,,,,,,,,,,,,,,,,,,,,,,,,,,,,,,,,,,,,,,,,,,,,,,,,,,,,,,,,,,,,,,,,,,,,,,,,,,,,,,,,,,,,,
,,2,1.0627,2,1.0627,0,79,79,73,1,50,carrot,rose,,89591,001,2022-04-28_20h45.48.811,SPAMnetsValid,2021.1.4,MacIntel,59.97361161,,,,,,,,,,,,,,,,,,,,,,,,,,,,,,,,,,,,,,,,,,,,,,,,,,,,,,,,,,,,,,,,,,,,,,,,,,,,,,,,,,,,,,,,,
,,2,0.7451,2,0.7451,0,80,80,90,1,95,broom,refrigerator,,89591,001,2022-04-28_20h45.48.811,SPAMnetsValid,2021.1.4,MacIntel,59.97361161,,,,,,,,,,,,,,,,,,,,,,,,,,,,,,,,,,,,,,,,,,,,,,,,,,,,,,,,,,,,,,,,,,,,,,,,,,,,,,,,,,,,,,,,,
,,2,0.6616,2,0.6616,0,81,81,84,1,91,microwave,rose,,89591,001,2022-04-28_20h45.48.811,SPAMnetsValid,2021.1.4,MacIntel,59.97361161,,,,,,,,,,,,,,,,,,,,,,,,,,,,,,,,,,,,,,,,,,,,,,,,,,,,,,,,,,,,,,,,,,,,,,,,,,,,,,,,,,,,,,,,,
,,2,0.6282,2,0.6282,0,82,82,16,1,14,broom,cookie,,89591,001,2022-04-28_20h45.48.811,SPAMnetsValid,2021.1.4,MacIntel,59.97361161,,,,,,,,,,,,,,,,,,,,,,,,,,,,,,,,,,,,,,,,,,,,,,,,,,,,,,,,,,,,,,,,,,,,,,,,,,,,,,,,,,,,,,,,,
,,2,0.6112,2,0.6112,0,83,83,79,1,86,oven,rose,,89591,001,2022-04-28_20h45.48.811,SPAMnetsValid,2021.1.4,MacIntel,59.97361161,,,,,,,,,,,,,,,,,,,,,,,,,,,,,,,,,,,,,,,,,,,,,,,,,,,,,,,,,,,,,,,,,,,,,,,,,,,,,,,,,,,,,,,,,
,,2,0.6108,2,0.6108,0,84,84,0,1,53,garden,pretzel,,89591,001,2022-04-28_20h45.48.811,SPAMnetsValid,2021.1.4,MacIntel,59.97361161,,,,,,,,,,,,,,,,,,,,,,,,,,,,,,,,,,,,,,,,,,,,,,,,,,,,,,,,,,,,,,,,,,,,,,,,,,,,,,,,,,,,,,,,,
,,2,0.5618,2,0.5618,0,85,85,64,1,9,kitchen,refrigerator,,89591,001,2022-04-28_20h45.48.811,SPAMnetsValid,2021.1.4,MacIntel,59.97361161,,,,,,,,,,,,,,,,,,,,,,,,,,,,,,,,,,,,,,,,,,,,,,,,,,,,,,,,,,,,,,,,,,,,,,,,,,,,,,,,,,,,,,,,,
,,2,0.5647,2,0.5647,0,86,86,62,1,18,onion,refrigerator,,89591,001,2022-04-28_20h45.48.811,SPAMnetsValid,2021.1.4,MacIntel,59.97361161,,,,,,,,,,,,,,,,,,,,,,,,,,,,,,,,,,,,,,,,,,,,,,,,,,,,,,,,,,,,,,,,,,,,,,,,,,,,,,,,,,,,,,,,,
,,2,1.1644,2,1.1644,0,87,87,65,1,46,garden,yogurt,,89591,001,2022-04-28_20h45.48.811,SPAMnetsValid,2021.1.4,MacIntel,59.97361161,,,,,,,,,,,,,,,,,,,,,,,,,,,,,,,,,,,,,,,,,,,,,,,,,,,,,,,,,,,,,,,,,,,,,,,,,,,,,,,,,,,,,,,,,
,,7,1.7806,7,1.7806,0,88,88,44,1,25,carrot,onion,,89591,001,2022-04-28_20h45.48.811,SPAMnetsValid,2021.1.4,MacIntel,59.97361161,,,,,,,,,,,,,,,,,,,,,,,,,,,,,,,,,,,,,,,,,,,,,,,,,,,,,,,,,,,,,,,,,,,,,,,,,,,,,,,,,,,,,,,,,
,,3,1.2597,3,1.2597,0,89,89,49,1,57,flower,kitchen,,89591,001,2022-04-28_20h45.48.811,SPAMnetsValid,2021.1.4,MacIntel,59.97361161,,,,,,,,,,,,,,,,,,,,,,,,,,,,,,,,,,,,,,,,,,,,,,,,,,,,,,,,,,,,,,,,,,,,,,,,,,,,,,,,,,,,,,,,,
,,1,1.2941,1,1.2941,0,90,90,39,1,15,onion,oven,,89591,001,2022-04-28_20h45.48.811,SPAMnetsValid,2021.1.4,MacIntel,59.97361161,,,,,,,,,,,,,,,,,,,,,,,,,,,,,,,,,,,,,,,,,,,,,,,,,,,,,,,,,,,,,,,,,,,,,,,,,,,,,,,,,,,,,,,,,
,,5,3.5122,5,3.5122,0,91,91,72,1,59,rose,strawberry,,89591,001,2022-04-28_20h45.48.811,SPAMnetsValid,2021.1.4,MacIntel,59.97361161,,,,,,,,,,,,,,,,,,,,,,,,,,,,,,,,,,,,,,,,,,,,,,,,,,,,,,,,,,,,,,,,,,,,,,,,,,,,,,,,,,,,,,,,,
,,6,2.1298,6,2.1298,0,92,92,96,1,82,cake,kitchen,,89591,001,2022-04-28_20h45.48.811,SPAMnetsValid,2021.1.4,MacIntel,59.97361161,,,,,,,,,,,,,,,,,,,,,,,,,,,,,,,,,,,,,,,,,,,,,,,,,,,,,,,,,,,,,,,,,,,,,,,,,,,,,,,,,,,,,,,,,
,,3,1.8929,3,1.8929,0,93,93,8,1,43,chocolate,tomato,,89591,001,2022-04-28_20h45.48.811,SPAMnetsValid,2021.1.4,MacIntel,59.97361161,,,,,,,,,,,,,,,,,,,,,,,,,,,,,,,,,,,,,,,,,,,,,,,,,,,,,,,,,,,,,,,,,,,,,,,,,,,,,,,,,,,,,,,,,
,,2,1.76,2,1.76,0,94,94,1,1,31,cactus,pretzel,,89591,001,2022-04-28_20h45.48.811,SPAMnetsValid,2021.1.4,MacIntel,59.97361161,,,,,,,,,,,,,,,,,,,,,,,,,,,,,,,,,,,,,,,,,,,,,,,,,,,,,,,,,,,,,,,,,,,,,,,,,,,,,,,,,,,,,,,,,
,,1,1.0607,1,1.0607,0,95,95,45,1,10,flower,onion,,89591,001,2022-04-28_20h45.48.811,SPAMnetsValid,2021.1.4,MacIntel,59.97361161,,,,,,,,,,,,,,,,,,,,,,,,,,,,,,,,,,,,,,,,,,,,,,,,,,,,,,,,,,,,,,,,,,,,,,,,,,,,,,,,,,,,,,,,,
,,2,5.7318,2,5.7318,0,96,96,43,1,11,refrigerator,tree,,89591,001,2022-04-28_20h45.48.811,SPAMnetsValid,2021.1.4,MacIntel,59.97361161,,,,,,,,,,,,,,,,,,,,,,,,,,,,,,,,,,,,,,,,,,,,,,,,,,,,,,,,,,,,,,,,,,,,,,,,,,,,,,,,,,,,,,,,,
,,,,,,,,,,,,,,,89591,001,2022-04-28_20h45.48.811,SPAMnetsValid,2021.1.4,MacIntel,59.97361161,0,0,0,0,1,,,,,,,,,,,,,,,,,,,,,,,,,,,,,,,,,,,,,,,,,,,,,,,,,,,,,,,,,,,,,,,,,,,,,,,,,,,,,,,,,,,,
,,,,,,,,,,,,,,,89591,001,2022-04-28_20h45.48.811,SPAMnetsValid,2021.1.4,MacIntel,59.97361161,,,,,,0,0,0,0,1,1,0,,,,,,,,,,,,,,,,,,,,,,,,,,,,,,,,,,,,,,,,,,,,,,,,,,,,,,,,,,,,,,,,,,,,,,,,,,,,,
,,,,2,1.3,,,,,,159,cookie,flower,,89591,001,2022-04-28_20h45.48.811,SPAMnetsValid,2021.1.4,MacIntel,59.97361161,,,,,,,,,,,,,2,1.3,0,0,0,21,1,,,,,,,,,,,,,,,,,,,,,,,,,,,,,,,,,,,,,,,,,,,,,,,,,,,,,,,,,,,,,,,,,,,,,,
,,,,2,0.7661,,,,,,137,microwave,tree,,89591,001,2022-04-28_20h45.48.811,SPAMnetsValid,2021.1.4,MacIntel,59.97361161,,,,,,,,,,,,,2,0.7661,0,1,1,63,1,,,,,,,,,,,,,,,,,,,,,,,,,,,,,,,,,,,,,,,,,,,,,,,,,,,,,,,,,,,,,,,,,,,,,,
,,,,2,0.5465,,,,,,105,cactus,oven,,89591,001,2022-04-28_20h45.48.811,SPAMnetsValid,2021.1.4,MacIntel,59.97361161,,,,,,,,,,,,,2,0.5465,0,2,2,13,1,,,,,,,,,,,,,,,,,,,,,,,,,,,,,,,,,,,,,,,,,,,,,,,,,,,,,,,,,,,,,,,,,,,,,,
,,,,2,0.5126,,,,,,178,cactus,carrot,,89591,001,2022-04-28_20h45.48.811,SPAMnetsValid,2021.1.4,MacIntel,59.97361161,,,,,,,,,,,,,2,0.5126,0,3,3,75,1,,,,,,,,,,,,,,,,,,,,,,,,,,,,,,,,,,,,,,,,,,,,,,,,,,,,,,,,,,,,,,,,,,,,,,
,,,,2,0.6107,,,,,,142,garden,tree,,89591,001,2022-04-28_20h45.48.811,SPAMnetsValid,2021.1.4,MacIntel,59.97361161,,,,,,,,,,,,,2,0.6107,0,4,4,22,1,,,,,,,,,,,,,,,,,,,,,,,,,,,,,,,,,,,,,,,,,,,,,,,,,,,,,,,,,,,,,,,,,,,,,,
,,,,9,1.7285,,,,,,193,melon,melon,CHECK,89591,001,2022-04-28_20h45.48.811,SPAMnetsValid,2021.1.4,MacIntel,59.97361161,,,,,,,,,,,,,9,1.7285,0,5,5,86,1,,,,,,,,,,,,,,,,,,,,,,,,,,,,,,,,,,,,,,,,,,,,,,,,,,,,,,,,,,,,,,,,,,,,,,
,,,,2,2.1125,,,,,,128,melon,microwave,,89591,001,2022-04-28_20h45.48.811,SPAMnetsValid,2021.1.4,MacIntel,59.97361161,,,,,,,,,,,,,2,2.1125,0,6,6,74,1,,,,,,,,,,,,,,,,,,,,,,,,,,,,,,,,,,,,,,,,,,,,,,,,,,,,,,,,,,,,,,,,,,,,,,
,,,,2,1.197,,,,,,186,kitchen,yogurt,,89591,001,2022-04-28_20h45.48.811,SPAMnetsValid,2021.1.4,MacIntel,59.97361161,,,,,,,,,,,,,2,1.197,0,7,7,48,1,,,,,,,,,,,,,,,,,,,,,,,,,,,,,,,,,,,,,,,,,,,,,,,,,,,,,,,,,,,,,,,,,,,,,,
,,,,2,0.7984,,,,,,158,cookie,oven,,89591,001,2022-04-28_20h45.48.811,SPAMnetsValid,2021.1.4,MacIntel,59.97361161,,,,,,,,,,,,,2,0.7984,0,8,8,27,1,,,,,,,,,,,,,,,,,,,,,,,,,,,,,,,,,,,,,,,,,,,,,,,,,,,,,,,,,,,,,,,,,,,,,,
,,,,2,0.7285,,,,,,96,oven,strawberry,,89591,001,2022-04-28_20h45.48.811,SPAMnetsValid,2021.1.4,MacIntel,59.97361161,,,,,,,,,,,,,2,0.7285,0,9,9,67,1,,,,,,,,,,,,,,,,,,,,,,,,,,,,,,,,,,,,,,,,,,,,,,,,,,,,,,,,,,,,,,,,,,,,,,
,,,,6,1.4472,,,,,,173,kitchen,tomato,,89591,001,2022-04-28_20h45.48.811,SPAMnetsValid,2021.1.4,MacIntel,59.97361161,,,,,,,,,,,,,6,1.4472,0,10,10,1,1,,,,,,,,,,,,,,,,,,,,,,,,,,,,,,,,,,,,,,,,,,,,,,,,,,,,,,,,,,,,,,,,,,,,,,
,,,,1,2.0146,,,,,,104,garden,microwave,,89591,001,2022-04-28_20h45.48.811,SPAMnetsValid,2021.1.4,MacIntel,59.97361161,,,,,,,,,,,,,1,2.0146,0,11,11,81,1,,,,,,,,,,,,,,,,,,,,,,,,,,,,,,,,,,,,,,,,,,,,,,,,,,,,,,,,,,,,,,,,,,,,,,
,,,,6,1.7455,,,,,,176,cactus,tomato,,89591,001,2022-04-28_20h45.48.811,SPAMnetsValid,2021.1.4,MacIntel,59.97361161,,,,,,,,,,,,,6,1.7455,0,12,12,9,1,,,,,,,,,,,,,,,,,,,,,,,,,,,,,,,,,,,,,,,,,,,,,,,,,,,,,,,,,,,,,,,,,,,,,,
,,,,5,1.0972,,,,,,151,microwave,onion,,89591,001,2022-04-28_20h45.48.811,SPAMnetsValid,2021.1.4,MacIntel,59.97361161,,,,,,,,,,,,,5,1.0972,0,13,13,6,1,,,,,,,,,,,,,,,,,,,,,,,,,,,,,,,,,,,,,,,,,,,,,,,,,,,,,,,,,,,,,,,,,,,,,,
,,,,4,1.0635,,,,,,152,cactus,strawberry,,89591,001,2022-04-28_20h45.48.811,SPAMnetsValid,2021.1.4,MacIntel,59.97361161,,,,,,,,,,,,,4,1.0635,0,14,14,49,1,,,,,,,,,,,,,,,,,,,,,,,,,,,,,,,,,,,,,,,,,,,,,,,,,,,,,,,,,,,,,,,,,,,,,,
,,,,3,1.3681,,,,,,190,microwave,strawberry,,89591,001,2022-04-28_20h45.48.811,SPAMnetsValid,2021.1.4,MacIntel,59.97361161,,,,,,,,,,,,,3,1.3681,0,15,15,90,1,,,,,,,,,,,,,,,,,,,,,,,,,,,,,,,,,,,,,,,,,,,,,,,,,,,,,,,,,,,,,,,,,,,,,,
,,,,7,3.8818,,,,,,117,melon,strawberry,,89591,001,2022-04-28_20h45.48.811,SPAMnetsValid,2021.1.4,MacIntel,59.97361161,,,,,,,,,,,,,7,3.8818,0,16,16,11,1,,,,,,,,,,,,,,,,,,,,,,,,,,,,,,,,,,,,,,,,,,,,,,,,,,,,,,,,,,,,,,,,,,,,,,
,,,,3,1.6962,,,,,,155,carrot,cookie,,89591,001,2022-04-28_20h45.48.811,SPAMnetsValid,2021.1.4,MacIntel,59.97361161,,,,,,,,,,,,,3,1.6962,0,17,17,38,1,,,,,,,,,,,,,,,,,,,,,,,,,,,,,,,,,,,,,,,,,,,,,,,,,,,,,,,,,,,,,,,,,,,,,,
,,,,2,1.3641,,,,,,170,cookie,microwave,,89591,001,2022-04-28_20h45.48.811,SPAMnetsValid,2021.1.4,MacIntel,59.97361161,,,,,,,,,,,,,2,1.3641,0,18,18,92,1,,,,,,,,,,,,,,,,,,,,,,,,,,,,,,,,,,,,,,,,,,,,,,,,,,,,,,,,,,,,,,,,,,,,,,
,,,,2,0.9437,,,,,,118,chocolate,oven,,89591,001,2022-04-28_20h45.48.811,SPAMnetsValid,2021.1.4,MacIntel,59.97361161,,,,,,,,,,,,,2,0.9437,0,19,19,10,1,,,,,,,,,,,,,,,,,,,,,,,,,,,,,,,,,,,,,,,,,,,,,,,,,,,,,,,,,,,,,,,,,,,,,,
,,,,2,0.8107,,,,,,125,carrot,tree,,89591,001,2022-04-28_20h45.48.811,SPAMnetsValid,2021.1.4,MacIntel,59.97361161,,,,,,,,,,,,,2,0.8107,0,20,20,30,1,,,,,,,,,,,,,,,,,,,,,,,,,,,,,,,,,,,,,,,,,,,,,,,,,,,,,,,,,,,,,,,,,,,,,,
,,,,2,0.5802,,,,,,180,tree,yogurt,,89591,001,2022-04-28_20h45.48.811,SPAMnetsValid,2021.1.4,MacIntel,59.97361161,,,,,,,,,,,,,2,0.5802,0,21,21,68,1,,,,,,,,,,,,,,,,,,,,,,,,,,,,,,,,,,,,,,,,,,,,,,,,,,,,,,,,,,,,,,,,,,,,,,
,,,,2,0.5317,,,,,,113,refrigerator,strawberry,,89591,001,2022-04-28_20h45.48.811,SPAMnetsValid,2021.1.4,MacIntel,59.97361161,,,,,,,,,,,,,2,0.5317,0,22,22,56,1,,,,,,,,,,,,,,,,,,,,,,,,,,,,,,,,,,,,,,,,,,,,,,,,,,,,,,,,,,,,,,,,,,,,,,
,,,,2,0.5465,,,,,,100,garden,tomato,,89591,001,2022-04-28_20h45.48.811,SPAMnetsValid,2021.1.4,MacIntel,59.97361161,,,,,,,,,,,,,2,0.5465,0,23,23,83,1,,,,,,,,,,,,,,,,,,,,,,,,,,,,,,,,,,,,,,,,,,,,,,,,,,,,,,,,,,,,,,,,,,,,,,
,,,,2,0.5462,,,,,,157,refrigerator,rose,,89591,001,2022-04-28_20h45.48.811,SPAMnetsValid,2021.1.4,MacIntel,59.97361161,,,,,,,,,,,,,2,0.5462,0,24,24,64,1,,,,,,,,,,,,,,,,,,,,,,,,,,,,,,,,,,,,,,,,,,,,,,,,,,,,,,,,,,,,,,,,,,,,,,
,,,,2,0.6434,,,,,,116,cake,chocolate,,89591,001,2022-04-28_20h45.48.811,SPAMnetsValid,2021.1.4,MacIntel,59.97361161,,,,,,,,,,,,,2,0.6434,0,25,25,44,1,,,,,,,,,,,,,,,,,,,,,,,,,,,,,,,,,,,,,,,,,,,,,,,,,,,,,,,,,,,,,,,,,,,,,,
,,,,1,67.0458,,,,,,184,oven,pretzel,,89591,001,2022-04-28_20h45.48.811,SPAMnetsValid,2021.1.4,MacIntel,59.97361161,,,,,,,,,,,,,1,67.0458,0,26,26,42,1,,,,,,,,,,,,,,,,,,,,,,,,,,,,,,,,,,,,,,,,,,,,,,,,,,,,,,,,,,,,,,,,,,,,,,
,,,,1,1.4304,,,,,,132,broom,tree,,89591,001,2022-04-28_20h45.48.811,SPAMnetsValid,2021.1.4,MacIntel,59.97361161,,,,,,,,,,,,,1,1.4304,0,27,27,78,1,,,,,,,,,,,,,,,,,,,,,,,,,,,,,,,,,,,,,,,,,,,,,,,,,,,,,,,,,,,,,,,,,,,,,,
,,,,4,1.4961,,,,,,145,cactus,yogurt,,89591,001,2022-04-28_20h45.48.811,SPAMnetsValid,2021.1.4,MacIntel,59.97361161,,,,,,,,,,,,,4,1.4961,0,28,28,15,1,,,,,,,,,,,,,,,,,,,,,,,,,,,,,,,,,,,,,,,,,,,,,,,,,,,,,,,,,,,,,,,,,,,,,,
,,,,3,0.8953,,,,,,188,flower,tree,,89591,001,2022-04-28_20h45.48.811,SPAMnetsValid,2021.1.4,MacIntel,59.97361161,,,,,,,,,,,,,3,0.8953,0,29,29,7,1,,,,,,,,,,,,,,,,,,,,,,,,,,,,,,,,,,,,,,,,,,,,,,,,,,,,,,,,,,,,,,,,,,,,,,
,,,,3,0.9622,,,,,,171,cake,tomato,,89591,001,2022-04-28_20h45.48.811,SPAMnetsValid,2021.1.4,MacIntel,59.97361161,,,,,,,,,,,,,3,0.9622,0,30,30,88,1,,,,,,,,,,,,,,,,,,,,,,,,,,,,,,,,,,,,,,,,,,,,,,,,,,,,,,,,,,,,,,,,,,,,,,
,,,,3,0.5939,,,,,,144,cake,garden,,89591,001,2022-04-28_20h45.48.811,SPAMnetsValid,2021.1.4,MacIntel,59.97361161,,,,,,,,,,,,,3,0.5939,0,31,31,58,1,,,,,,,,,,,,,,,,,,,,,,,,,,,,,,,,,,,,,,,,,,,,,,,,,,,,,,,,,,,,,,,,,,,,,,
,,,,3,0.4615,,,,,,131,cactus,garden,,89591,001,2022-04-28_20h45.48.811,SPAMnetsValid,2021.1.4,MacIntel,59.97361161,,,,,,,,,,,,,3,0.4615,0,32,32,33,1,,,,,,,,,,,,,,,,,,,,,,,,,,,,,,,,,,,,,,,,,,,,,,,,,,,,,,,,,,,,,,,,,,,,,,
,,,,3,0.3115,,,,,,146,pretzel,tree,,89591,001,2022-04-28_20h45.48.811,SPAMnetsValid,2021.1.4,MacIntel,59.97361161,,,,,,,,,,,,,3,0.3115,0,33,33,80,1,,,,,,,,,,,,,,,,,,,,,,,,,,,,,,,,,,,,,,,,,,,,,,,,,,,,,,,,,,,,,,,,,,,,,,
,,,,3,0.3097,,,,,,154,strawberry,yogurt,,89591,001,2022-04-28_20h45.48.811,SPAMnetsValid,2021.1.4,MacIntel,59.97361161,,,,,,,,,,,,,3,0.3097,0,34,34,28,1,,,,,,,,,,,,,,,,,,,,,,,,,,,,,,,,,,,,,,,,,,,,,,,,,,,,,,,,,,,,,,,,,,,,,,
,,,,3,0.429,,,,,,107,rose,tomato,,89591,001,2022-04-28_20h45.48.811,SPAMnetsValid,2021.1.4,MacIntel,59.97361161,,,,,,,,,,,,,3,0.429,0,35,35,26,1,,,,,,,,,,,,,,,,,,,,,,,,,,,,,,,,,,,,,,,,,,,,,,,,,,,,,,,,,,,,,,,,,,,,,,
,,,,8,2.3943,,,,,,150,microwave,refrigerator,,89591,001,2022-04-28_20h45.48.811,SPAMnetsValid,2021.1.4,MacIntel,59.97361161,,,,,,,,,,,,,8,2.3943,0,36,36,66,1,,,,,,,,,,,,,,,,,,,,,,,,,,,,,,,,,,,,,,,,,,,,,,,,,,,,,,,,,,,,,,,,,,,,,,
,,,,7,1.6625,,,,,,167,carrot,garden,,89591,001,2022-04-28_20h45.48.811,SPAMnetsValid,2021.1.4,MacIntel,59.97361161,,,,,,,,,,,,,7,1.6625,0,37,37,47,1,,,,,,,,,,,,,,,,,,,,,,,,,,,,,,,,,,,,,,,,,,,,,,,,,,,,,,,,,,,,,,,,,,,,,,
,,,,8,1.7621,,,,,,122,flower,garden,,89591,001,2022-04-28_20h45.48.811,SPAMnetsValid,2021.1.4,MacIntel,59.97361161,,,,,,,,,,,,,8,1.7621,0,38,38,60,1,,,,,,,,,,,,,,,,,,,,,,,,,,,,,,,,,,,,,,,,,,,,,,,,,,,,,,,,,,,,,,,,,,,,,,
,,,,6,1.4641,,,,,,189,onion,tree,,89591,001,2022-04-28_20h45.48.811,SPAMnetsValid,2021.1.4,MacIntel,59.97361161,,,,,,,,,,,,,6,1.4641,0,39,39,62,1,,,,,,,,,,,,,,,,,,,,,,,,,,,,,,,,,,,,,,,,,,,,,,,,,,,,,,,,,,,,,,,,,,,,,,
,,,,7,2.0656,,,,,,120,microwave,oven,,89591,001,2022-04-28_20h45.48.811,SPAMnetsValid,2021.1.4,MacIntel,59.97361161,,,,,,,,,,,,,7,2.0656,0,40,40,14,1,,,,,,,,,,,,,,,,,,,,,,,,,,,,,,,,,,,,,,,,,,,,,,,,,,,,,,,,,,,,,,,,,,,,,,
,,,,6,2.4476,,,,,,160,cookie,kitchen,,89591,001,2022-04-28_20h45.48.811,SPAMnetsValid,2021.1.4,MacIntel,59.97361161,,,,,,,,,,,,,6,2.4476,0,41,41,65,1,,,,,,,,,,,,,,,,,,,,,,,,,,,,,,,,,,,,,,,,,,,,,,,,,,,,,,,,,,,,,,,,,,,,,,
,,,,4,2.3482,,,,,,169,onion,yogurt,,89591,001,2022-04-28_20h45.48.811,SPAMnetsValid,2021.1.4,MacIntel,59.97361161,,,,,,,,,,,,,4,2.3482,0,42,42,24,1,,,,,,,,,,,,,,,,,,,,,,,,,,,,,,,,,,,,,,,,,,,,,,,,,,,,,,,,,,,,,,,,,,,,,,
,,,,6,1.3955,,,,,,112,cake,carrot,,89591,001,2022-04-28_20h45.48.811,SPAMnetsValid,2021.1.4,MacIntel,59.97361161,,,,,,,,,,,,,6,1.3955,0,43,43,39,1,,,,,,,,,,,,,,,,,,,,,,,,,,,,,,,,,,,,,,,,,,,,,,,,,,,,,,,,,,,,,,,,,,,,,,
,,,,8,1.8467,,,,,,124,oven,refrigerator,,89591,001,2022-04-28_20h45.48.811,SPAMnetsValid,2021.1.4,MacIntel,59.97361161,,,,,,,,,,,,,8,1.8467,0,44,44,69,1,,,,,,,,,,,,,,,,,,,,,,,,,,,,,,,,,,,,,,,,,,,,,,,,,,,,,,,,,,,,,,,,,,,,,,
,,,,3,1.8969,,,,,,140,cookie,refrigerator,,89591,001,2022-04-28_20h45.48.811,SPAMnetsValid,2021.1.4,MacIntel,59.97361161,,,,,,,,,,,,,3,1.8969,0,45,45,89,1,,,,,,,,,,,,,,,,,,,,,,,,,,,,,,,,,,,,,,,,,,,,,,,,,,,,,,,,,,,,,,,,,,,,,,
,,,,7,1.0122,,,,,,103,pretzel,tomato,,89591,001,2022-04-28_20h45.48.811,SPAMnetsValid,2021.1.4,MacIntel,59.97361161,,,,,,,,,,,,,7,1.0122,0,46,46,79,1,,,,,,,,,,,,,,,,,,,,,,,,,,,,,,,,,,,,,,,,,,,,,,,,,,,,,,,,,,,,,,,,,,,,,,
,,,,3,0.7637,,,,,,99,garden,melon,,89591,001,2022-04-28_20h45.48.811,SPAMnetsValid,2021.1.4,MacIntel,59.97361161,,,,,,,,,,,,,3,0.7637,0,47,47,17,1,,,,,,,,,,,,,,,,,,,,,,,,,,,,,,,,,,,,,,,,,,,,,,,,,,,,,,,,,,,,,,,,,,,,,,
,,,,3,1.8446,,,,,,108,carrot,chocolate,,89591,001,2022-04-28_20h45.48.811,SPAMnetsValid,2021.1.4,MacIntel,59.97361161,,,,,,,,,,,,,3,1.8446,0,48,48,5,1,,,,,,,,,,,,,,,,,,,,,,,,,,,,,,,,,,,,,,,,,,,,,,,,,,,,,,,,,,,,,,,,,,,,,,
,,,,7,2.0476,,,,,,163,melon,refrigerator,,89591,001,2022-04-28_20h45.48.811,SPAMnetsValid,2021.1.4,MacIntel,59.97361161,,,,,,,,,,,,,7,2.0476,0,49,49,29,1,,,,,,,,,,,,,,,,,,,,,,,,,,,,,,,,,,,,,,,,,,,,,,,,,,,,,,,,,,,,,,,,,,,,,,
,,,,3,2.2859,,,,,,135,carrot,oven,,89591,001,2022-04-28_20h45.48.811,SPAMnetsValid,2021.1.4,MacIntel,59.97361161,,,,,,,,,,,,,3,2.2859,0,50,50,73,1,,,,,,,,,,,,,,,,,,,,,,,,,,,,,,,,,,,,,,,,,,,,,,,,,,,,,,,,,,,,,,,,,,,,,,
,,,,2,1.5469,,,,,,153,carrot,pretzel,,89591,001,2022-04-28_20h45.48.811,SPAMnetsValid,2021.1.4,MacIntel,59.97361161,,,,,,,,,,,,,2,1.5469,0,51,51,34,1,,,,,,,,,,,,,,,,,,,,,,,,,,,,,,,,,,,,,,,,,,,,,,,,,,,,,,,,,,,,,,,,,,,,,,
,,,,2,1.1655,,,,,,149,broom,tomato,,89591,001,2022-04-28_20h45.48.811,SPAMnetsValid,2021.1.4,MacIntel,59.97361161,,,,,,,,,,,,,2,1.1655,0,52,52,20,1,,,,,,,,,,,,,,,,,,,,,,,,,,,,,,,,,,,,,,,,,,,,,,,,,,,,,,,,,,,,,,,,,,,,,,
,,,,2,0.864,,,,,,156,melon,rose,,89591,001,2022-04-28_20h45.48.811,SPAMnetsValid,2021.1.4,MacIntel,59.97361161,,,,,,,,,,,,,2,0.864,0,53,53,31,1,,,,,,,,,,,,,,,,,,,,,,,,,,,,,,,,,,,,,,,,,,,,,,,,,,,,,,,,,,,,,,,,,,,,,,
,,,,2,0.8306,,,,,,119,strawberry,tree,,89591,001,2022-04-28_20h45.48.811,SPAMnetsValid,2021.1.4,MacIntel,59.97361161,,,,,,,,,,,,,2,0.8306,0,54,54,18,1,,,,,,,,,,,,,,,,,,,,,,,,,,,,,,,,,,,,,,,,,,,,,,,,,,,,,,,,,,,,,,,,,,,,,,
,,,,2,1.9124,,,,,,179,broom,oven,,89591,001,2022-04-28_20h45.48.811,SPAMnetsValid,2021.1.4,MacIntel,59.97361161,,,,,,,,,,,,,2,1.9124,0,55,55,45,1,,,,,,,,,,,,,,,,,,,,,,,,,,,,,,,,,,,,,,,,,,,,,,,,,,,,,,,,,,,,,,,,,,,,,,
,,,,3,1.1463,,,,,,143,pretzel,rose,,89591,001,2022-04-28_20h45.48.811,SPAMnetsValid,2021.1.4,MacIntel,59.97361161,,,,,,,,,,,,,3,1.1463,0,56,56,55,1,,,,,,,,,,,,,,,,,,,,,,,,,,,,,,,,,,,,,,,,,,,,,,,,,,,,,,,,,,,,,,,,,,,,,,
,,,,1,0.9301,,,,,,141,melon,tomato,,89591,001,2022-04-28_20h45.48.811,SPAMnetsValid,2021.1.4,MacIntel,59.97361161,,,,,,,,,,,,,1,0.9301,0,57,57,70,1,,,,,,,,,,,,,,,,,,,,,,,,,,,,,,,,,,,,,,,,,,,,,,,,,,,,,,,,,,,,,,,,,,,,,,
,,,,3,0.8958,,,,,,101,cactus,kitchen,,89591,001,2022-04-28_20h45.48.811,SPAMnetsValid,2021.1.4,MacIntel,59.97361161,,,,,,,,,,,,,3,0.8958,0,58,58,54,1,,,,,,,,,,,,,,,,,,,,,,,,,,,,,,,,,,,,,,,,,,,,,,,,,,,,,,,,,,,,,,,,,,,,,,
,,,,3,0.8459,,,,,,162,microwave,tomato,,89591,001,2022-04-28_20h45.48.811,SPAMnetsValid,2021.1.4,MacIntel,59.97361161,,,,,,,,,,,,,3,0.8459,0,59,59,12,1,,,,,,,,,,,,,,,,,,,,,,,,,,,,,,,,,,,,,,,,,,,,,,,,,,,,,,,,,,,,,,,,,,,,,,
,,,,2,1.4335,,,,,,136,chocolate,microwave,,89591,001,2022-04-28_20h45.48.811,SPAMnetsValid,2021.1.4,MacIntel,59.97361161,,,,,,,,,,,,,2,1.4335,0,60,60,96,1,,,,,,,,,,,,,,,,,,,,,,,,,,,,,,,,,,,,,,,,,,,,,,,,,,,,,,,,,,,,,,,,,,,,,,
,,,,6,1.5612,,,,,,139,carrot,strawberry,,89591,001,2022-04-28_20h45.48.811,SPAMnetsValid,2021.1.4,MacIntel,59.97361161,,,,,,,,,,,,,6,1.5612,0,61,61,37,1,,,,,,,,,,,,,,,,,,,,,,,,,,,,,,,,,,,,,,,,,,,,,,,,,,,,,,,,,,,,,,,,,,,,,,
,,,,4,1.4686,,,,,,164,cookie,garden,,89591,001,2022-04-28_20h45.48.811,SPAMnetsValid,2021.1.4,MacIntel,59.97361161,,,,,,,,,,,,,4,1.4686,0,62,62,59,1,,,,,,,,,,,,,,,,,,,,,,,,,,,,,,,,,,,,,,,,,,,,,,,,,,,,,,,,,,,,,,,,,,,,,,
,,,,3,0.9935,,,,,,130,microwave,yogurt,,89591,001,2022-04-28_20h45.48.811,SPAMnetsValid,2021.1.4,MacIntel,59.97361161,,,,,,,,,,,,,3,0.9935,0,63,63,84,1,,,,,,,,,,,,,,,,,,,,,,,,,,,,,,,,,,,,,,,,,,,,,,,,,,,,,,,,,,,,,,,,,,,,,,
,,,,3,1.6796,,,,,,129,cactus,refrigerator,,89591,001,2022-04-28_20h45.48.811,SPAMnetsValid,2021.1.4,MacIntel,59.97361161,,,,,,,,,,,,,3,1.6796,0,64,64,3,1,,,,,,,,,,,,,,,,,,,,,,,,,,,,,,,,,,,,,,,,,,,,,,,,,,,,,,,,,,,,,,,,,,,,,,
,,,,4,1.7645,,,,,,148,flower,melon,,89591,001,2022-04-28_20h45.48.811,SPAMnetsValid,2021.1.4,MacIntel,59.97361161,,,,,,,,,,,,,4,1.7645,0,65,65,23,1,,,,,,,,,,,,,,,,,,,,,,,,,,,,,,,,,,,,,,,,,,,,,,,,,,,,,,,,,,,,,,,,,,,,,,
,,,,2,1.5802,,,,,,126,kitchen,tree,,89591,001,2022-04-28_20h45.48.811,SPAMnetsValid,2021.1.4,MacIntel,59.97361161,,,,,,,,,,,,,2,1.5802,0,66,66,50,1,,,,,,,,,,,,,,,,,,,,,,,,,,,,,,,,,,,,,,,,,,,,,,,,,,,,,,,,,,,,,,,,,,,,,,
,,,,2,1.3121,,,,,,187,cactus,microwave,,89591,001,2022-04-28_20h45.48.811,SPAMnetsValid,2021.1.4,MacIntel,59.97361161,,,,,,,,,,,,,2,1.3121,0,67,67,71,1,,,,,,,,,,,,,,,,,,,,,,,,,,,,,,,,,,,,,,,,,,,,,,,,,,,,,,,,,,,,,,,,,,,,,,
,,,,2,1.0785,,,,,,168,cactus,flower,,89591,001,2022-04-28_20h45.48.811,SPAMnetsValid,2021.1.4,MacIntel,59.97361161,,,,,,,,,,,,,2,1.0785,0,68,68,51,1,,,,,,,,,,,,,,,,,,,,,,,,,,,,,,,,,,,,,,,,,,,,,,,,,,,,,,,,,,,,,,,,,,,,,,
,,,,2,0.9474,,,,,,172,kitchen,melon,,89591,001,2022-04-28_20h45.48.811,SPAMnetsValid,2021.1.4,MacIntel,59.97361161,,,,,,,,,,,,,2,0.9474,0,69,69,77,1,,,,,,,,,,,,,,,,,,,,,,,,,,,,,,,,,,,,,,,,,,,,,,,,,,,,,,,,,,,,,,,,,,,,,,
,,,,6,2.03,,,,,,102,chocolate,refrigerator,,89591,001,2022-04-28_20h45.48.811,SPAMnetsValid,2021.1.4,MacIntel,59.97361161,,,,,,,,,,,,,6,2.03,0,70,70,76,1,,,,,,,,,,,,,,,,,,,,,,,,,,,,,,,,,,,,,,,,,,,,,,,,,,,,,,,,,,,,,,,,,,,,,,
,,,,7,1.2122,,,,,,185,cactus,rose,,89591,001,2022-04-28_20h45.48.811,SPAMnetsValid,2021.1.4,MacIntel,59.97361161,,,,,,,,,,,,,7,1.2122,0,71,71,43,1,,,,,,,,,,,,,,,,,,,,,,,,,,,,,,,,,,,,,,,,,,,,,,,,,,,,,,,,,,,,,,,,,,,,,,
,,,,1,1.1645,,,,,,121,broom,microwave,,89591,001,2022-04-28_20h45.48.811,SPAMnetsValid,2021.1.4,MacIntel,59.97361161,,,,,,,,,,,,,1,1.1645,0,72,72,95,1,,,,,,,,,,,,,,,,,,,,,,,,,,,,,,,,,,,,,,,,,,,,,,,,,,,,,,,,,,,,,,,,,,,,,,
,,,,4,1.7795,,,,,,123,cookie,tree,,89591,001,2022-04-28_20h45.48.811,SPAMnetsValid,2021.1.4,MacIntel,59.97361161,,,,,,,,,,,,,4,1.7795,0,73,73,46,1,,,,,,,,,,,,,,,,,,,,,,,,,,,,,,,,,,,,,,,,,,,,,,,,,,,,,,,,,,,,,,,,,,,,,,
,,,,4,0.9587,,,,,,114,cookie,strawberry,,89591,001,2022-04-28_20h45.48.811,SPAMnetsValid,2021.1.4,MacIntel,59.97361161,,,,,,,,,,,,,4,0.9587,0,74,74,87,1,,,,,,,,,,,,,,,,,,,,,,,,,,,,,,,,,,,,,,,,,,,,,,,,,,,,,,,,,,,,,,,,,,,,,,
,,,,4,0.8252,,,,,,109,broom,strawberry,,89591,001,2022-04-28_20h45.48.811,SPAMnetsValid,2021.1.4,MacIntel,59.97361161,,,,,,,,,,,,,4,0.8252,0,75,75,4,1,,,,,,,,,,,,,,,,,,,,,,,,,,,,,,,,,,,,,,,,,,,,,,,,,,,,,,,,,,,,,,,,,,,,,,
,,,,4,1.1605,,,,,,183,cake,rose,,89591,001,2022-04-28_20h45.48.811,SPAMnetsValid,2021.1.4,MacIntel,59.97361161,,,,,,,,,,,,,4,1.1605,0,76,76,19,1,,,,,,,,,,,,,,,,,,,,,,,,,,,,,,,,,,,,,,,,,,,,,,,,,,,,,,,,,,,,,,,,,,,,,,
,,,,9,1.5952,,,,,,194,cactus,cactus,CHECK,89591,001,2022-04-28_20h45.48.811,SPAMnetsValid,2021.1.4,MacIntel,59.97361161,,,,,,,,,,,,,9,1.5952,0,77,77,25,1,,,,,,,,,,,,,,,,,,,,,,,,,,,,,,,,,,,,,,,,,,,,,,,,,,,,,,,,,,,,,,,,,,,,,,
,,,,9,2.1974,,,,,,138,flower,rose,,89591,001,2022-04-28_20h45.48.811,SPAMnetsValid,2021.1.4,MacIntel,59.97361161,,,,,,,,,,,,,9,2.1974,0,78,78,61,1,,,,,,,,,,,,,,,,,,,,,,,,,,,,,,,,,,,,,,,,,,,,,,,,,,,,,,,,,,,,,,,,,,,,,,
,,,,4,2.546,,,,,,174,cake,pretzel,,89591,001,2022-04-28_20h45.48.811,SPAMnetsValid,2021.1.4,MacIntel,59.97361161,,,,,,,,,,,,,4,2.546,0,79,79,2,1,,,,,,,,,,,,,,,,,,,,,,,,,,,,,,,,,,,,,,,,,,,,,,,,,,,,,,,,,,,,,,,,,,,,,,
,,,,4,1.1593,,,,,,133,cake,flower,,89591,001,2022-04-28_20h45.48.811,SPAMnetsValid,2021.1.4,MacIntel,59.97361161,,,,,,,,,,,,,4,1.1593,0,80,80,94,1,,,,,,,,,,,,,,,,,,,,,,,,,,,,,,,,,,,,,,,,,,,,,,,,,,,,,,,,,,,,,,,,,,,,,,
,,,,4,0.7103,,,,,,106,cake,strawberry,,89591,001,2022-04-28_20h45.48.811,SPAMnetsValid,2021.1.4,MacIntel,59.97361161,,,,,,,,,,,,,4,0.7103,0,81,81,0,1,,,,,,,,,,,,,,,,,,,,,,,,,,,,,,,,,,,,,,,,,,,,,,,,,,,,,,,,,,,,,,,,,,,,,,
,,,,4,0.6938,,,,,,110,chocolate,cookie,,89591,001,2022-04-28_20h45.48.811,SPAMnetsValid,2021.1.4,MacIntel,59.97361161,,,,,,,,,,,,,4,0.6938,0,82,82,52,1,,,,,,,,,,,,,,,,,,,,,,,,,,,,,,,,,,,,,,,,,,,,,,,,,,,,,,,,,,,,,,,,,,,,,,
,,,,4,0.6122,,,,,,127,cactus,chocolate,,89591,001,2022-04-28_20h45.48.811,SPAMnetsValid,2021.1.4,MacIntel,59.97361161,,,,,,,,,,,,,4,0.6122,0,83,83,57,1,,,,,,,,,,,,,,,,,,,,,,,,,,,,,,,,,,,,,,,,,,,,,,,,,,,,,,,,,,,,,,,,,,,,,,
,,,,7,1.8109,,,,,,177,chocolate,strawberry,,89591,001,2022-04-28_20h45.48.811,SPAMnetsValid,2021.1.4,MacIntel,59.97361161,,,,,,,,,,,,,7,1.8109,0,84,84,53,1,,,,,,,,,,,,,,,,,,,,,,,,,,,,,,,,,,,,,,,,,,,,,,,,,,,,,,,,,,,,,,,,,,,,,,
,,,,7,1.626,,,,,,161,kitchen,pretzel,,89591,001,2022-04-28_20h45.48.811,SPAMnetsValid,2021.1.4,MacIntel,59.97361161,,,,,,,,,,,,,7,1.626,0,85,85,36,1,,,,,,,,,,,,,,,,,,,,,,,,,,,,,,,,,,,,,,,,,,,,,,,,,,,,,,,,,,,,,,,,,,,,,,
,,,,7,0.525,,,,,,134,carrot,flower,,89591,001,2022-04-28_20h45.48.811,SPAMnetsValid,2021.1.4,MacIntel,59.97361161,,,,,,,,,,,,,7,0.525,0,86,86,93,1,,,,,,,,,,,,,,,,,,,,,,,,,,,,,,,,,,,,,,,,,,,,,,,,,,,,,,,,,,,,,,,,,,,,,,
,,,,7,0.5101,,,,,,175,melon,onion,,89591,001,2022-04-28_20h45.48.811,SPAMnetsValid,2021.1.4,MacIntel,59.97361161,,,,,,,,,,,,,7,0.5101,0,87,87,41,1,,,,,,,,,,,,,,,,,,,,,,,,,,,,,,,,,,,,,,,,,,,,,,,,,,,,,,,,,,,,,,,,,,,,,,
,,,,5,1.7458,,,,,,181,carrot,kitchen,,89591,001,2022-04-28_20h45.48.811,SPAMnetsValid,2021.1.4,MacIntel,59.97361161,,,,,,,,,,,,,5,1.7458,0,88,88,72,1,,,,,,,,,,,,,,,,,,,,,,,,,,,,,,,,,,,,,,,,,,,,,,,,,,,,,,,,,,,,,,,,,,,,,,
,,,,5,0.8098,,,,,,165,onion,rose,,89591,001,2022-04-28_20h45.48.811,SPAMnetsValid,2021.1.4,MacIntel,59.97361161,,,,,,,,,,,,,5,0.8098,0,89,89,40,1,,,,,,,,,,,,,,,,,,,,,,,,,,,,,,,,,,,,,,,,,,,,,,,,,,,,,,,,,,,,,,,,,,,,,,
,,,,5,0.5096,,,,,,166,cake,yogurt,,89591,001,2022-04-28_20h45.48.811,SPAMnetsValid,2021.1.4,MacIntel,59.97361161,,,,,,,,,,,,,5,0.5096,0,90,90,91,1,,,,,,,,,,,,,,,,,,,,,,,,,,,,,,,,,,,,,,,,,,,,,,,,,,,,,,,,,,,,,,,,,,,,,,
,,,,5,0.4949,,,,,,115,refrigerator,tomato,,89591,001,2022-04-28_20h45.48.811,SPAMnetsValid,2021.1.4,MacIntel,59.97361161,,,,,,,,,,,,,5,0.4949,0,91,91,85,1,,,,,,,,,,,,,,,,,,,,,,,,,,,,,,,,,,,,,,,,,,,,,,,,,,,,,,,,,,,,,,,,,,,,,,
,,,,5,0.526,,,,,,98,pretzel,strawberry,,89591,001,2022-04-28_20h45.48.811,SPAMnetsValid,2021.1.4,MacIntel,59.97361161,,,,,,,,,,,,,5,0.526,0,92,92,82,1,,,,,,,,,,,,,,,,,,,,,,,,,,,,,,,,,,,,,,,,,,,,,,,,,,,,,,,,,,,,,,,,,,,,,,
,,,,5,0.563,,,,,,97,chocolate,kitchen,,89591,001,2022-04-28_20h45.48.811,SPAMnetsValid,2021.1.4,MacIntel,59.97361161,,,,,,,,,,,,,5,0.563,0,93,93,8,1,,,,,,,,,,,,,,,,,,,,,,,,,,,,,,,,,,,,,,,,,,,,,,,,,,,,,,,,,,,,,,,,,,,,,,
,,,,5,0.5475,,,,,,111,carrot,microwave,,89591,001,2022-04-28_20h45.48.811,SPAMnetsValid,2021.1.4,MacIntel,59.97361161,,,,,,,,,,,,,5,0.5475,0,94,94,16,1,,,,,,,,,,,,,,,,,,,,,,,,,,,,,,,,,,,,,,,,,,,,,,,,,,,,,,,,,,,,,,,,,,,,,,
,,,,5,0.6623,,,,,,182,flower,refrigerator,,89591,001,2022-04-28_20h45.48.811,SPAMnetsValid,2021.1.4,MacIntel,59.97361161,,,,,,,,,,,,,5,0.6623,0,95,95,32,1,,,,,,,,,,,,,,,,,,,,,,,,,,,,,,,,,,,,,,,,,,,,,,,,,,,,,,,,,,,,,,,,,,,,,,
,,,,5,0.491,,,,,,147,cake,refrigerator,,89591,001,2022-04-28_20h45.48.811,SPAMnetsValid,2021.1.4,MacIntel,59.97361161,,,,,,,,,,,,,5,0.491,0,96,96,35,1,,,,,,,,,,,,,,,,,,,,,,,,,,,,,,,,,,,,,,,,,,,,,,,,,,,,,,,,,,,,,,,,,,,,,,
,,,,,,,,,,,,,,,89591,001,2022-04-28_20h45.48.811,SPAMnetsValid,2021.1.4,MacIntel,59.97361161,,,,,,,,,,,,,,,,,,,,0,0,0,0,1,,,,,,,,,,,,,,,,,,,,,,,,,,,,,,,,,,,,,,,,,,,,,,,,,,,,,,,,,,,,,,,,,
,,,,,,,,,,,,,,,89591,001,2022-04-28_20h45.48.811,SPAMnetsValid,2021.1.4,MacIntel,59.97361161,,,,,,0,1,1,1,1,0,1,,,,,,,,,,,,,,,,,,,,,,,,,,,,,,,,,,,,,,,,,,,,,,,,,,,,,,,,,,,,,,,,,,,,,,,,,,,,,
,,,,,,,,,,,,,,,89591,001,2022-04-28_20h45.48.811,SPAMnetsValid,2021.1.4,MacIntel,59.97361161,,,,,,,,,,,,,,,,,,,,,,,,,2,3.0851,0,0,0,0,1,rancor,forbearance,ridicule,malice,bravery,3,,,,,,,,,,,,,,,,,,,,,,,,,,,,,,,,,,,,,,,,,,,,,,,,,,,,
,,,,,,,,,,,,,,,89591,001,2022-04-28_20h45.48.811,SPAMnetsValid,2021.1.4,MacIntel,59.97361161,,,,,,,,,,,,,,,,,,,,,,,,,4,3.9486,0,1,1,1,1,raucous,empty,quiet,smooth,harsh,4,,,,,,,,,,,,,,,,,,,,,,,,,,,,,,,,,,,,,,,,,,,,,,,,,,,,
,,,,,,,,,,,,,,,89591,001,2022-04-28_20h45.48.811,SPAMnetsValid,2021.1.4,MacIntel,59.97361161,,,,,,,,,,,,,,,,,,,,,,,,,2,5.9823,0,2,2,2,1,gargoyle,oil,medicine,carved waterspout,ugly building,3,,,,,,,,,,,,,,,,,,,,,,,,,,,,,,,,,,,,,,,,,,,,,,,,,,,,
,,,,,,,,,,,,,,,89591,001,2022-04-28_20h45.48.811,SPAMnetsValid,2021.1.4,MacIntel,59.97361161,,,,,,,,,,,,,,,,,,,,,,,,,2,1.6633,0,3,3,3,1,recrudesce,purify,renew activity,lack refinement,crush,2,,,,,,,,,,,,,,,,,,,,,,,,,,,,,,,,,,,,,,,,,,,,,,,,,,,,
,,,,,,,,,,,,,,,89591,001,2022-04-28_20h45.48.811,SPAMnetsValid,2021.1.4,MacIntel,59.97361161,,,,,,,,,,,,,,,,,,,,,,,,,3,7.002,0,4,4,4,1,specious,"plausible, but not genuine",noteworthy,class or variety,roomy,1,,,,,,,,,,,,,,,,,,,,,,,,,,,,,,,,,,,,,,,,,,,,,,,,,,,,
,,,,,,,,,,,,,,,89591,001,2022-04-28_20h45.48.811,SPAMnetsValid,2021.1.4,MacIntel,59.97361161,,,,,,,,,,,,,,,,,,,,,,,,,3,1.9301,0,5,5,5,1,bauble,bubble,showy plaything,idle talk,confusion,2,,,,,,,,,,,,,,,,,,,,,,,,,,,,,,,,,,,,,,,,,,,,,,,,,,,,
,,,,,,,,,,,,,,,89591,001,2022-04-28_20h45.48.811,SPAMnetsValid,2021.1.4,MacIntel,59.97361161,,,,,,,,,,,,,,,,,,,,,,,,,3,4.3464,0,6,6,6,1,prolific,scarce,producing abundantly,reckless,speaking profanely,2,,,,,,,,,,,,,,,,,,,,,,,,,,,,,,,,,,,,,,,,,,,,,,,,,,,,
,,,,,,,,,,,,,,,89591,001,2022-04-28_20h45.48.811,SPAMnetsValid,2021.1.4,MacIntel,59.97361161,,,,,,,,,,,,,,,,,,,,,,,,,2,4.5318,0,7,7,7,1,opulent,party,wealthy,happy frame of mind,semiprecious stone,2,,,,,,,,,,,,,,,,,,,,,,,,,,,,,,,,,,,,,,,,,,,,,,,,,,,,
,,,,,,,,,,,,,,,89591,001,2022-04-28_20h45.48.811,SPAMnetsValid,2021.1.4,MacIntel,59.97361161,,,,,,,,,,,,,,,,,,,,,,,,,4,5.284,0,8,8,8,1,coercion,conspiracy,strategy,restraint,attraction,3,,,,,,,,,,,,,,,,,,,,,,,,,,,,,,,,,,,,,,,,,,,,,,,,,,,,
,,,,,,,,,,,,,,,89591,001,2022-04-28_20h45.48.811,SPAMnetsValid,2021.1.4,MacIntel,59.97361161,,,,,,,,,,,,,,,,,,,,,,,,,2,4.1494,0,9,9,9,1,hiatus,animal,calamity,dread,gap,4,,,,,,,,,,,,,,,,,,,,,,,,,,,,,,,,,,,,,,,,,,,,,,,,,,,,
,,,,,,,,,,,,,,,89591,001,2022-04-28_20h45.48.811,SPAMnetsValid,2021.1.4,MacIntel,59.97361161,,,,,,,,,,,,,,,,,,,,,,,,,2,1.8283,0,10,10,10,1,germane,microbe,contagious,relevant,different,3,,,,,,,,,,,,,,,,,,,,,,,,,,,,,,,,,,,,,,,,,,,,,,,,,,,,
,,,,,,,,,,,,,,,89591,001,2022-04-28_20h45.48.811,SPAMnetsValid,2021.1.4,MacIntel,59.97361161,,,,,,,,,,,,,,,,,,,,,,,,,3,1.1121,0,11,11,11,1,perfunctory,fundamental,formal,superficial,careful,3,,,,,,,,,,,,,,,,,,,,,,,,,,,,,,,,,,,,,,,,,,,,,,,,,,,,
,,,,,,,,,,,,,,,89591,001,2022-04-28_20h45.48.811,SPAMnetsValid,2021.1.4,MacIntel,59.97361161,,,,,,,,,,,,,,,,,,,,,,,,,4,3.7997,0,12,12,12,1,diverge,reveal,chant,distract the attention of,differ or turn off from,4,,,,,,,,,,,,,,,,,,,,,,,,,,,,,,,,,,,,,,,,,,,,,,,,,,,,
,,,,,,,,,,,,,,,89591,001,2022-04-28_20h45.48.811,SPAMnetsValid,2021.1.4,MacIntel,59.97361161,,,,,,,,,,,,,,,,,,,,,,,,,1,3.7801,0,13,13,13,1,evoke,take away,anger,connect,bring out,4,,,,,,,,,,,,,,,,,,,,,,,,,,,,,,,,,,,,,,,,,,,,,,,,,,,,
,,,,,,,,,,,,,,,89591,001,2022-04-28_20h45.48.811,SPAMnetsValid,2021.1.4,MacIntel,59.97361161,,,,,,,,,,,,,,,,,,,,,,,,,3,5.5654,0,14,14,14,1,pertinent,relevant,lying next to,necessary,bold,1,,,,,,,,,,,,,,,,,,,,,,,,,,,,,,,,,,,,,,,,,,,,,,,,,,,,
,,,,,,,,,,,,,,,89591,001,2022-04-28_20h45.48.811,SPAMnetsValid,2021.1.4,MacIntel,59.97361161,,,,,,,,,,,,,,,,,,,,,,,,,2,3.7656,0,15,15,15,1,holocaust,entirety,destruction,saintly,price,2,,,,,,,,,,,,,,,,,,,,,,,,,,,,,,,,,,,,,,,,,,,,,,,,,,,,
,,,,,,,,,,,,,,,89591,001,2022-04-28_20h45.48.811,SPAMnetsValid,2021.1.4,MacIntel,59.97361161,,,,,,,,,,,,,,,,,,,,,,,,,4,5.3324,0,16,16,16,1,piquant,mellow,fish,pungent,cloth,3,,,,,,,,,,,,,,,,,,,,,,,,,,,,,,,,,,,,,,,,,,,,,,,,,,,,
,,,,,,,,,,,,,,,89591,001,2022-04-28_20h45.48.811,SPAMnetsValid,2021.1.4,MacIntel,59.97361161,,,,,,,,,,,,,,,,,,,,,,,,,3,1.3135,0,17,17,17,1,firmament,foundation,heavens,strong,glue,2,,,,,,,,,,,,,,,,,,,,,,,,,,,,,,,,,,,,,,,,,,,,,,,,,,,,
,,,,,,,,,,,,,,,89591,001,2022-04-28_20h45.48.811,SPAMnetsValid,2021.1.4,MacIntel,59.97361161,,,,,,,,,,,,,,,,,,,,,,,,,,,,,,,,,,,,,,4,0.9158,0,0,0,0,1,marketable,partisan,jocular,marriageable,salable,essential,4,,,,,,,,,,,,,,,,,,,,,,,,,,,,,,,,,,,,,,
,,,,,,,,,,,,,,,89591,001,2022-04-28_20h45.48.811,SPAMnetsValid,2021.1.4,MacIntel,59.97361161,,,,,,,,,,,,,,,,,,,,,,,,,,,,,,,,,,,,,,3,0.8448,0,1,1,1,1,cottontail,squirrel,poplar,boa,marshy plant,rabbit,5,,,,,,,,,,,,,,,,,,,,,,,,,,,,,,,,,,,,,,
,,,,,,,,,,,,,,,89591,001,2022-04-28_20h45.48.811,SPAMnetsValid,2021.1.4,MacIntel,59.97361161,,,,,,,,,,,,,,,,,,,,,,,,,,,,,,,,,,,,,,4,0.9478,0,2,2,2,1,boggy,afraid,false,marshy,dense,black,3,,,,,,,,,,,,,,,,,,,,,,,,,,,,,,,,,,,,,,
,,,,,,,,,,,,,,,89591,001,2022-04-28_20h45.48.811,SPAMnetsValid,2021.1.4,MacIntel,59.97361161,,,,,,,,,,,,,,,,,,,,,,,,,,,,,,,,,,,,,,3,3.7143,0,3,3,3,1,gruesomeness,blackness,falseness,vindictiveness,drunkenness,ghastliness,5,,,,,,,,,,,,,,,,,,,,,,,,,,,,,,,,,,,,,,
,,,,,,,,,,,,,,,89591,001,2022-04-28_20h45.48.811,SPAMnetsValid,2021.1.4,MacIntel,59.97361161,,,,,,,,,,,,,,,,,,,,,,,,,,,,,,,,,,,,,,4,1.3479,0,4,4,4,1,loathing,diffidence,laziness,abhorrence,cleverness,comfort,3,,,,,,,,,,,,,,,,,,,,,,,,,,,,,,,,,,,,,,
,,,,,,,,,,,,,,,89591,001,2022-04-28_20h45.48.811,SPAMnetsValid,2021.1.4,MacIntel,59.97361161,,,,,,,,,,,,,,,,,,,,,,,,,,,,,,,,,,,,,,5,0.6743,0,5,5,5,1,bantam,fowl,ridicule,cripple,vegetable,ensign,1,,,,,,,,,,,,,,,,,,,,,,,,,,,,,,,,,,,,,,
,,,,,,,,,,,,,,,89591,001,2022-04-28_20h45.48.811,SPAMnetsValid,2021.1.4,MacIntel,59.97361161,,,,,,,,,,,,,,,,,,,,,,,,,,,,,,,,,,,,,,4,0.7465,0,6,6,6,1,evoke,wake up,surrender,reconnoiter,transcend,call forth,5,,,,,,,,,,,,,,,,,,,,,,,,,,,,,,,,,,,,,,
,,,,,,,,,,,,,,,89591,001,2022-04-28_20h45.48.811,SPAMnetsValid,2021.1.4,MacIntel,59.97361161,,,,,,,,,,,,,,,,,,,,,,,,,,,,,,,,,,,,,,3,0.8781,0,7,7,7,1,unobtrusive,unintelligent,epileptic,illogical,lineal,modest,5,,,,,,,,,,,,,,,,,,,,,,,,,,,,,,,,,,,,,,
,,,,,,,,,,,,,,,89591,001,2022-04-28_20h45.48.811,SPAMnetsValid,2021.1.4,MacIntel,59.97361161,,,,,,,,,,,,,,,,,,,,,,,,,,,,,,,,,,,,,,2,0.7424,0,8,8,8,1,terrain,ice cream,final test,tractor,area of ground,weight,4,,,,,,,,,,,,,,,,,,,,,,,,,,,,,,,,,,,,,,
,,,,,,,,,,,,,,,89591,001,2022-04-28_20h45.48.811,SPAMnetsValid,2021.1.4,MacIntel,59.97361161,,,,,,,,,,,,,,,,,,,,,,,,,,,,,,,,,,,,,,1,1.1145,0,9,9,9,1,capriciousness,stubbornness,courage,whimsicality,amazement,greediness,3,,,,,,,,,,,,,,,,,,,,,,,,,,,,,,,,,,,,,,
,,,,,,,,,,,,,,,89591,001,2022-04-28_20h45.48.811,SPAMnetsValid,2021.1.4,MacIntel,59.97361161,,,,,,,,,,,,,,,,,,,,,,,,,,,,,,,,,,,,,,2,0.9435,0,10,10,10,1,maelstrom,slander,whirlpool,enmity,armor,majolica,2,,,,,,,,,,,,,,,,,,,,,,,,,,,,,,,,,,,,,,
,,,,,,,,,,,,,,,89591,001,2022-04-28_20h45.48.811,SPAMnetsValid,2021.1.4,MacIntel,59.97361161,,,,,,,,,,,,,,,,,,,,,,,,,,,,,,,,,,,,,,5,24.341,0,11,11,11,1,tentative,critical,conclusive,authentic,provisional,apprehensive,4,,,,,,,,,,,,,,,,,,,,,,,,,,,,,,,,,,,,,,
,,,,,,,,,,,,,,,89591,001,2022-04-28_20h45.48.811,SPAMnetsValid,2021.1.4,MacIntel,59.97361161,,,,,,,,,,,,,,,,,,,,,,,,,,,,,,,,,,,,,,,,0,12,12,12,1,placate,rehabilitate,plagiarize,depredate,apprise,conciliate,5,,,,,,,,,,,,,,,,,,,,,,,,,,,,,,,,,,,,,,
,,,,,,,,,,,,,,,89591,001,2022-04-28_20h45.48.811,SPAMnetsValid,2021.1.4,MacIntel,59.97361161,,,,,,,,,,,,,,,,,,,,,,,,,,,,,,,,,,,,,,5,0.1452,0,13,13,13,1,surcease,enlightenment,cessation,inattention,censor,substitution,2,,,,,,,,,,,,,,,,,,,,,,,,,,,,,,,,,,,,,,
,,,,,,,,,,,,,,,89591,001,2022-04-28_20h45.48.811,SPAMnetsValid,2021.1.4,MacIntel,59.97361161,,,,,,,,,,,,,,,,,,,,,,,,,,,,,,,,,,,,,,4,0.9468,0,14,14,14,1,apathetic,wandering,impassive,hateful,prophetic,overflowing,2,,,,,,,,,,,,,,,,,,,,,,,,,,,,,,,,,,,,,,
,,,,,,,,,,,,,,,89591,001,2022-04-28_20h45.48.811,SPAMnetsValid,2021.1.4,MacIntel,59.97361161,,,,,,,,,,,,,,,,,,,,,,,,,,,,,,,,,,,,,,3,0.7648,0,15,15,15,1,paternoster,paternalism,patricide,malediction,benediction,prayer,5,,,,,,,,,,,,,,,,,,,,,,,,,,,,,,,,,,,,,,
,,,,,,,,,,,,,,,89591,001,2022-04-28_20h45.48.811,SPAMnetsValid,2021.1.4,MacIntel,59.97361161,,,,,,,,,,,,,,,,,,,,,,,,,,,,,,,,,,,,,,4,0.681,0,16,16,16,1,opalescence,opulence,senescence,bankruptcy,iridescence,assiduity,4,,,,,,,,,,,,,,,,,,,,,,,,,,,,,,,,,,,,,,
,,,,,,,,,,,,,,,89591,001,2022-04-28_20h45.48.811,SPAMnetsValid,2021.1.4,MacIntel,59.97361161,,,,,,,,,,,,,,,,,,,,,,,,,,,,,,,,,,,,,,2,2.981,0,17,17,17,1,lush,stupid,luxurious,hazy,putrid,languishing,2,,,,,,,,,,,,,,,,,,,,,,,,,,,,,,,,,,,,,,
,,,,,,,,,,,,,,,89591,001,2022-04-28_20h45.48.811,SPAMnetsValid,2021.1.4,MacIntel,59.97361161,,,,,,,,,,,,,,,,,,,,,,,,,,,,,,,,,,,,,,1,3.1645,0,18,18,18,1,curtailment,expenditure,abandonment,abridgment,improvement,forgery,3,,,,,,,,,,,,,,,,,,,,,,,,,,,,,,,,,,,,,,
,,,,,,,,,,,,,,,89591,001,2022-04-28_20h45.48.811,SPAMnetsValid,2021.1.4,MacIntel,59.97361161,,,,,,,,,,,,,,,,,,,,,,,,,,,,,,,,,,,,,,2,4.3499,0,19,19,19,1,perversity,adversity,perviousness,travesty,waywardness,gentility,4,,,,,,,,,,,,,,,,,,,,,,,,,,,,,,,,,,,,,,
,,,,,,,,,,,,,,,89591,001,2022-04-28_20h45.48.811,SPAMnetsValid,2021.1.4,MacIntel,59.97361161,,,,,,,,,,,,,,,,,,,,,,,,,,,,,,,,,,,,,,2,2.8979,0,20,20,20,1,calumnious,complimentary,analogous,slanderous,tempestuous,magnanimous,3,,,,,,,,,,,,,,,,,,,,,,,,,,,,,,,,,,,,,,
,,,,,,,,,,,,,,,89591,001,2022-04-28_20h45.48.811,SPAMnetsValid,2021.1.4,MacIntel,59.97361161,,,,,,,,,,,,,,,,,,,,,,,,,,,,,,,,,,,,,,5,5.7736,0,21,21,21,1,illiberality,bigotry,imbecility,illegibility,cautery,immaturity,1,,,,,,,,,,,,,,,,,,,,,,,,,,,,,,,,,,,,,,
,,,,,,,,,,,,,,,89591,001,2022-04-28_20h45.48.811,SPAMnetsValid,2021.1.4,MacIntel,59.97361161,,,,,,,,,,,,,,,,,,,,,,,,,,,,,,,,,,,,,,2,6.5344,0,22,22,22,1,clabber,rejoice,gossip,curdle,crow,hobble,3,,,,,,,,,,,,,,,,,,,,,,,,,,,,,,,,,,,,,,
,,,,,,,,,,,,,,,89591,001,2022-04-28_20h45.48.811,SPAMnetsValid,2021.1.4,MacIntel,59.97361161,,,,,,,,,,,,,,,,,,,,,,,,,,,,,,,,,,,,,,2,0.9123,0,23,23,23,1,sedulousness,diligence,credulousness,seduction,perilousness,frankness,1,,,,,,,,,,,,,,,,,,,,,,,,,,,,,,,,,,,,,,
,,,,,,,,,,,,,,,89591,001,2022-04-28_20h45.48.811,SPAMnetsValid,2021.1.4,MacIntel,59.97361161,,,,,,,,,,,,,,,,,,,,,,,,,,,,,,,,,,,,,,,,,,,,,,,,,,,,light,candle,0,0,0,0,1,,,,,,,,,,,,,,,,,,,,,,,,,,,,,,,
,,,,,,,,,,,,,,,89591,001,2022-04-28_20h45.48.811,SPAMnetsValid,2021.1.4,MacIntel,59.97361161,,,,,,,,,,,,,,,,,,,,,,,,,,,,,,,,,,,,,,,,,,,,,,,,,,,,smell,candle,1,0,1,0,1,,,,,,,,,,,,,,,,,,,,,,,,,,,,,,,
,,,,,,,,,,,,,,,89591,001,2022-04-28_20h45.48.811,SPAMnetsValid,2021.1.4,MacIntel,59.97361161,,,,,,,,,,,,,,,,,,,,,,,,,,,,,,,,,,,,,,,,,,,,,,,,,,,,warmth,candle,2,0,2,0,1,,,,,,,,,,,,,,,,,,,,,,,,,,,,,,,
,,,,,,,,,,,,,,,89591,001,2022-04-28_20h45.48.811,SPAMnetsValid,2021.1.4,MacIntel,59.97361161,,,,,,,,,,,,,,,,,,,,,,,,,,,,,,,,,,,,,,,,,,,,,,,,,,,,decoration,candle,3,0,3,0,1,,,,,,,,,,,,,,,,,,,,,,,,,,,,,,,
,,,,,,,,,,,,,,,89591,001,2022-04-28_20h45.48.811,SPAMnetsValid,2021.1.4,MacIntel,59.97361161,,,,,,,,,,,,,,,,,,,,,,,,,,,,,,,,,,,,,,,,,,,,,,,,,,,,covering,candle,4,0,4,0,1,,,,,,,,,,,,,,,,,,,,,,,,,,,,,,,
,,,,,,,,,,,,,,,89591,001,2022-04-28_20h45.48.811,SPAMnetsValid,2021.1.4,MacIntel,59.97361161,,,,,,,,,,,,,,,,,,,,,,,,,,,,,,,,,,,,,,,,,,,,,,,,,,,,destroying,candle,5,0,5,0,1,,,,,,,,,,,,,,,,,,,,,,,,,,,,,,,
,,,,,,,,,,,,,,,89591,001,2022-04-28_20h45.48.811,SPAMnetsValid,2021.1.4,MacIntel,59.97361161,,,,,,,,,,,,,,,,,,,,,,,,,,,,,,,,,,,,,,,,,,,,,,,,,,,,gifts,candle,6,0,6,0,1,,,,,,,,,,,,,,,,,,,,,,,,,,,,,,,
,,,,,,,,,,,,,,,89591,001,2022-04-28_20h45.48.811,SPAMnetsValid,2021.1.4,MacIntel,59.97361161,,,,,,,,,,,,,,,,,,,,,,,,,,,,,,,,,,,,,,,,,,,,,,,,,,,,regifting,candle,7,0,7,0,1,,,,,,,,,,,,,,,,,,,,,,,,,,,,,,,
,,,,,,,,,,,,,,,89591,001,2022-04-28_20h45.48.811,SPAMnetsValid,2021.1.4,MacIntel,59.97361161,,,,,,,,,,,,,,,,,,,,,,,,,,,,,,,,,,,,,,,,,,,,,,,,,,,,melting,candle,8,0,8,0,1,,,,,,,,,,,,,,,,,,,,,,,,,,,,,,,
,,,,,,,,,,,,,,,89591,001,2022-04-28_20h45.48.811,SPAMnetsValid,2021.1.4,MacIntel,59.97361161,,,,,,,,,,,,,,,,,,,,,,,,,,,,,,,,,,,,,,,,,,,,,,,,,,,,creating,candle,9,0,9,0,1,,,,,,,,,,,,,,,,,,,,,,,,,,,,,,,
,,,,,,,,,,,,,,,89591,001,2022-04-28_20h45.48.811,SPAMnetsValid,2021.1.4,MacIntel,59.97361161,,,,,,,,,,,,,,,,,,,,,,,,,,,,,,,,,,,,,,,,,,,,,,,,,,,,making,candle,10,0,10,0,1,,,,,,,,,,,,,,,,,,,,,,,,,,,,,,,
,,,,,,,,,,,,,,,89591,001,2022-04-28_20h45.48.811,SPAMnetsValid,2021.1.4,MacIntel,59.97361161,,,,,,,,,,,,,,,,,,,,,,,,,,,,,,,,,,,,,,,,,,,,,,,,,,,,selling,candle,11,0,11,0,1,,,,,,,,,,,,,,,,,,,,,,,,,,,,,,,
,,,,,,,,,,,,,,,89591,001,2022-04-28_20h45.48.811,SPAMnetsValid,2021.1.4,MacIntel,59.97361161,,,,,,,,,,,,,,,,,,,,,,,,,,,,,,,,,,,,,,,,,,,,,,,,,,,,collecting,candle,12,0,12,0,1,,,,,,,,,,,,,,,,,,,,,,,,,,,,,,,
,,,,,,,,,,,,,,,89591,001,2022-04-28_20h45.48.811,SPAMnetsValid,2021.1.4,MacIntel,59.97361161,,,,,,,,,,,,,,,,,,,,,,,,,,,,,,,,,,,,,,,,,,,,,,,,,,,,storing,candle,13,0,13,0,1,,,,,,,,,,,,,,,,,,,,,,,,,,,,,,,
,,,,,,,,,,,,,,,89591,001,2022-04-28_20h45.48.811,SPAMnetsValid,2021.1.4,MacIntel,59.97361161,,,,,,,,,,,,,,,,,,,,,,,,,,,,,,,,,,,,,,,,,,,,,,,,,,,,throwing away,candle,14,0,14,0,1,,,,,,,,,,,,,,,,,,,,,,,,,,,,,,,
,,,,,,,,,,,,,,,89591,001,2022-04-28_20h45.48.811,SPAMnetsValid,2021.1.4,MacIntel,59.97361161,,,,,,,,,,,,,,,,,,,,,,,,,,,,,,,,,,,,,,,,,,,,,,,,,,,,,,,,,,,0,0,0,1,1,candle,,,,,,,,,,,,,,,,,,,,,,,,,
,,,,,,,,,,,,,,,89591,001,2022-04-28_20h45.48.811,SPAMnetsValid,2021.1.4,MacIntel,59.97361161,,,,,,,,,,,,,,,,,,,,,,,,,,,,,,,,,,,,,,,,,,,,,,,,,,,,using,bucket,0,0,0,0,1,,,,,,,,,,,,,,,,,,,,,,,,,,,,,,,
,,,,,,,,,,,,,,,89591,001,2022-04-28_20h45.48.811,SPAMnetsValid,2021.1.4,MacIntel,59.97361161,,,,,,,,,,,,,,,,,,,,,,,,,,,,,,,,,,,,,,,,,,,,,,,,,,,,sitting on,bucket,1,0,1,0,1,,,,,,,,,,,,,,,,,,,,,,,,,,,,,,,
,,,,,,,,,,,,,,,89591,001,2022-04-28_20h45.48.811,SPAMnetsValid,2021.1.4,MacIntel,59.97361161,,,,,,,,,,,,,,,,,,,,,,,,,,,,,,,,,,,,,,,,,,,,,,,,,,,,storing stuff,bucket,2,0,2,0,1,,,,,,,,,,,,,,,,,,,,,,,,,,,,,,,
,,,,,,,,,,,,,,,89591,001,2022-04-28_20h45.48.811,SPAMnetsValid,2021.1.4,MacIntel,59.97361161,,,,,,,,,,,,,,,,,,,,,,,,,,,,,,,,,,,,,,,,,,,,,,,,,,,,taking to the beach,bucket,3,0,3,0,1,,,,,,,,,,,,,,,,,,,,,,,,,,,,,,,
,,,,,,,,,,,,,,,89591,001,2022-04-28_20h45.48.811,SPAMnetsValid,2021.1.4,MacIntel,59.97361161,,,,,,,,,,,,,,,,,,,,,,,,,,,,,,,,,,,,,,,,,,,,,,,,,,,,taking to go digging,bucket,4,0,4,0,1,,,,,,,,,,,,,,,,,,,,,,,,,,,,,,,
,,,,,,,,,,,,,,,89591,001,2022-04-28_20h45.48.811,SPAMnetsValid,2021.1.4,MacIntel,59.97361161,,,,,,,,,,,,,,,,,,,,,,,,,,,,,,,,,,,,,,,,,,,,,,,,,,,,wearing as a hat,bucket,5,0,5,0,1,,,,,,,,,,,,,,,,,,,,,,,,,,,,,,,
,,,,,,,,,,,,,,,89591,001,2022-04-28_20h45.48.811,SPAMnetsValid,2021.1.4,MacIntel,59.97361161,,,,,,,,,,,,,,,,,,,,,,,,,,,,,,,,,,,,,,,,,,,,,,,,,,,,breaking,bucket,6,0,6,0,1,,,,,,,,,,,,,,,,,,,,,,,,,,,,,,,
,,,,,,,,,,,,,,,89591,001,2022-04-28_20h45.48.811,SPAMnetsValid,2021.1.4,MacIntel,59.97361161,,,,,,,,,,,,,,,,,,,,,,,,,,,,,,,,,,,,,,,,,,,,,,,,,,,,using to describe a nice basketball shot,bucket,7,0,7,0,1,,,,,,,,,,,,,,,,,,,,,,,,,,,,,,,
,,,,,,,,,,,,,,,89591,001,2022-04-28_20h45.48.811,SPAMnetsValid,2021.1.4,MacIntel,59.97361161,,,,,,,,,,,,,,,,,,,,,,,,,,,,,,,,,,,,,,,,,,,,,,,,,,,,holding sand,bucket,8,0,8,0,1,,,,,,,,,,,,,,,,,,,,,,,,,,,,,,,
,,,,,,,,,,,,,,,89591,001,2022-04-28_20h45.48.811,SPAMnetsValid,2021.1.4,MacIntel,59.97361161,,,,,,,,,,,,,,,,,,,,,,,,,,,,,,,,,,,,,,,,,,,,,,,,,,,,holding dirt,bucket,9,0,9,0,1,,,,,,,,,,,,,,,,,,,,,,,,,,,,,,,
,,,,,,,,,,,,,,,89591,001,2022-04-28_20h45.48.811,SPAMnetsValid,2021.1.4,MacIntel,59.97361161,,,,,,,,,,,,,,,,,,,,,,,,,,,,,,,,,,,,,,,,,,,,,,,,,,,,holding water,bucket,10,0,10,0,1,,,,,,,,,,,,,,,,,,,,,,,,,,,,,,,
,,,,,,,,,,,,,,,89591,001,2022-04-28_20h45.48.811,SPAMnetsValid,2021.1.4,MacIntel,59.97361161,,,,,,,,,,,,,,,,,,,,,,,,,,,,,,,,,,,,,,,,,,,,,,,,,,,,holding anything,bucket,11,0,11,0,1,,,,,,,,,,,,,,,,,,,,,,,,,,,,,,,
,,,,,,,,,,,,,,,89591,001,2022-04-28_20h45.48.811,SPAMnetsValid,2021.1.4,MacIntel,59.97361161,,,,,,,,,,,,,,,,,,,,,,,,,,,,,,,,,,,,,,,,,,,,,,,,,,,,gifting,bucket,12,0,12,0,1,,,,,,,,,,,,,,,,,,,,,,,,,,,,,,,
,,,,,,,,,,,,,,,89591,001,2022-04-28_20h45.48.811,SPAMnetsValid,2021.1.4,MacIntel,59.97361161,,,,,,,,,,,,,,,,,,,,,,,,,,,,,,,,,,,,,,,,,,,,,,,,,,,,regifting,bucket,13,0,13,0,1,,,,,,,,,,,,,,,,,,,,,,,,,,,,,,,
,,,,,,,,,,,,,,,89591,001,2022-04-28_20h45.48.811,SPAMnetsValid,2021.1.4,MacIntel,59.97361161,,,,,,,,,,,,,,,,,,,,,,,,,,,,,,,,,,,,,,,,,,,,,,,,,,,,throwing away,bucket,14,0,14,0,1,,,,,,,,,,,,,,,,,,,,,,,,,,,,,,,
,,,,,,,,,,,,,,,89591,001,2022-04-28_20h45.48.811,SPAMnetsValid,2021.1.4,MacIntel,59.97361161,,,,,,,,,,,,,,,,,,,,,,,,,,,,,,,,,,,,,,,,,,,,,,,,,,,,recycling,bucket,15,0,15,0,1,,,,,,,,,,,,,,,,,,,,,,,,,,,,,,,
,,,,,,,,,,,,,,,89591,001,2022-04-28_20h45.48.811,SPAMnetsValid,2021.1.4,MacIntel,59.97361161,,,,,,,,,,,,,,,,,,,,,,,,,,,,,,,,,,,,,,,,,,,,,,,,,,,,,,,,,,,0,1,1,0,1,bucket,,,,,,,,,,,,,,,,,,,,,,,,,
,,,,,,,,,,,,,,,89591,001,2022-04-28_20h45.48.811,SPAMnetsValid,2021.1.4,MacIntel,59.97361161,,,,,,,,,,,,,,,,,,,,,,,,,,,,,,,,,,,,,,,,,,,,,,,,,,,,to lay on,pillow,0,0,0,0,1,,,,,,,,,,,,,,,,,,,,,,,,,,,,,,,
,,,,,,,,,,,,,,,89591,001,2022-04-28_20h45.48.811,SPAMnetsValid,2021.1.4,MacIntel,59.97361161,,,,,,,,,,,,,,,,,,,,,,,,,,,,,,,,,,,,,,,,,,,,,,,,,,,,to use in a pillow fight,pillow,1,0,1,0,1,,,,,,,,,,,,,,,,,,,,,,,,,,,,,,,
,,,,,,,,,,,,,,,89591,001,2022-04-28_20h45.48.811,SPAMnetsValid,2021.1.4,MacIntel,59.97361161,,,,,,,,,,,,,,,,,,,,,,,,,,,,,,,,,,,,,,,,,,,,,,,,,,,,to scream into,pillow,2,0,2,0,1,,,,,,,,,,,,,,,,,,,,,,,,,,,,,,,
,,,,,,,,,,,,,,,89591,001,2022-04-28_20h45.48.811,SPAMnetsValid,2021.1.4,MacIntel,59.97361161,,,,,,,,,,,,,,,,,,,,,,,,,,,,,,,,,,,,,,,,,,,,,,,,,,,,to store things in,pillow,3,0,3,0,1,,,,,,,,,,,,,,,,,,,,,,,,,,,,,,,
,,,,,,,,,,,,,,,89591,001,2022-04-28_20h45.48.811,SPAMnetsValid,2021.1.4,MacIntel,59.97361161,,,,,,,,,,,,,,,,,,,,,,,,,,,,,,,,,,,,,,,,,,,,,,,,,,,,to provide cushoning,pillow,4,0,4,0,1,,,,,,,,,,,,,,,,,,,,,,,,,,,,,,,
,,,,,,,,,,,,,,,89591,001,2022-04-28_20h45.48.811,SPAMnetsValid,2021.1.4,MacIntel,59.97361161,,,,,,,,,,,,,,,,,,,,,,,,,,,,,,,,,,,,,,,,,,,,,,,,,,,,to wear,pillow,5,0,5,0,1,,,,,,,,,,,,,,,,,,,,,,,,,,,,,,,
,,,,,,,,,,,,,,,89591,001,2022-04-28_20h45.48.811,SPAMnetsValid,2021.1.4,MacIntel,59.97361161,,,,,,,,,,,,,,,,,,,,,,,,,,,,,,,,,,,,,,,,,,,,,,,,,,,,to sleep with,pillow,6,0,6,0,1,,,,,,,,,,,,,,,,,,,,,,,,,,,,,,,
,,,,,,,,,,,,,,,89591,001,2022-04-28_20h45.48.811,SPAMnetsValid,2021.1.4,MacIntel,59.97361161,,,,,,,,,,,,,,,,,,,,,,,,,,,,,,,,,,,,,,,,,,,,,,,,,,,,to use as a dummy,pillow,7,0,7,0,1,,,,,,,,,,,,,,,,,,,,,,,,,,,,,,,
,,,,,,,,,,,,,,,89591,001,2022-04-28_20h45.48.811,SPAMnetsValid,2021.1.4,MacIntel,59.97361161,,,,,,,,,,,,,,,,,,,,,,,,,,,,,,,,,,,,,,,,,,,,,,,,,,,,to throw,pillow,8,0,8,0,1,,,,,,,,,,,,,,,,,,,,,,,,,,,,,,,
,,,,,,,,,,,,,,,89591,001,2022-04-28_20h45.48.811,SPAMnetsValid,2021.1.4,MacIntel,59.97361161,,,,,,,,,,,,,,,,,,,,,,,,,,,,,,,,,,,,,,,,,,,,,,,,,,,,using it as a halloween sack,pillow,9,0,9,0,1,,,,,,,,,,,,,,,,,,,,,,,,,,,,,,,
,,,,,,,,,,,,,,,89591,001,2022-04-28_20h45.48.811,SPAMnetsValid,2021.1.4,MacIntel,59.97361161,,,,,,,,,,,,,,,,,,,,,,,,,,,,,,,,,,,,,,,,,,,,,,,,,,,,keeping money in,pillow,10,0,10,0,1,,,,,,,,,,,,,,,,,,,,,,,,,,,,,,,
,,,,,,,,,,,,,,,89591,001,2022-04-28_20h45.48.811,SPAMnetsValid,2021.1.4,MacIntel,59.97361161,,,,,,,,,,,,,,,,,,,,,,,,,,,,,,,,,,,,,,,,,,,,,,,,,,,,,,,,,,,0,2,2,2,1,pillow,,,,,,,,,,,,,,,,,,,,,,,,,
,,,,,,,,,,,,,,,89591,001,2022-04-28_20h45.48.811,SPAMnetsValid,2021.1.4,MacIntel,59.97361161,,,,,,,,,,,,,,,,,,,,,,,,,,,,,,,,,,,,,,,,,,,,,,,,,,,,,,,,,,,,,,,,,dog,Animals,0,0,0,0,1,,,,,,,,,,,,,,,,,,
,,,,,,,,,,,,,,,89591,001,2022-04-28_20h45.48.811,SPAMnetsValid,2021.1.4,MacIntel,59.97361161,,,,,,,,,,,,,,,,,,,,,,,,,,,,,,,,,,,,,,,,,,,,,,,,,,,,,,,,,,,,,,,,,cat,Animals,1,0,1,0,1,,,,,,,,,,,,,,,,,,
,,,,,,,,,,,,,,,89591,001,2022-04-28_20h45.48.811,SPAMnetsValid,2021.1.4,MacIntel,59.97361161,,,,,,,,,,,,,,,,,,,,,,,,,,,,,,,,,,,,,,,,,,,,,,,,,,,,,,,,,,,,,,,,,rabbit,Animals,2,0,2,0,1,,,,,,,,,,,,,,,,,,
,,,,,,,,,,,,,,,89591,001,2022-04-28_20h45.48.811,SPAMnetsValid,2021.1.4,MacIntel,59.97361161,,,,,,,,,,,,,,,,,,,,,,,,,,,,,,,,,,,,,,,,,,,,,,,,,,,,,,,,,,,,,,,,,squirrel,Animals,3,0,3,0,1,,,,,,,,,,,,,,,,,,
,,,,,,,,,,,,,,,89591,001,2022-04-28_20h45.48.811,SPAMnetsValid,2021.1.4,MacIntel,59.97361161,,,,,,,,,,,,,,,,,,,,,,,,,,,,,,,,,,,,,,,,,,,,,,,,,,,,,,,,,,,,,,,,,lion,Animals,4,0,4,0,1,,,,,,,,,,,,,,,,,,
,,,,,,,,,,,,,,,89591,001,2022-04-28_20h45.48.811,SPAMnetsValid,2021.1.4,MacIntel,59.97361161,,,,,,,,,,,,,,,,,,,,,,,,,,,,,,,,,,,,,,,,,,,,,,,,,,,,,,,,,,,,,,,,,panther,Animals,5,0,5,0,1,,,,,,,,,,,,,,,,,,
,,,,,,,,,,,,,,,89591,001,2022-04-28_20h45.48.811,SPAMnetsValid,2021.1.4,MacIntel,59.97361161,,,,,,,,,,,,,,,,,,,,,,,,,,,,,,,,,,,,,,,,,,,,,,,,,,,,,,,,,,,,,,,,,kangaroo,Animals,6,0,6,0,1,,,,,,,,,,,,,,,,,,
,,,,,,,,,,,,,,,89591,001,2022-04-28_20h45.48.811,SPAMnetsValid,2021.1.4,MacIntel,59.97361161,,,,,,,,,,,,,,,,,,,,,,,,,,,,,,,,,,,,,,,,,,,,,,,,,,,,,,,,,,,,,,,,,bear,Animals,7,0,7,0,1,,,,,,,,,,,,,,,,,,
,,,,,,,,,,,,,,,89591,001,2022-04-28_20h45.48.811,SPAMnetsValid,2021.1.4,MacIntel,59.97361161,,,,,,,,,,,,,,,,,,,,,,,,,,,,,,,,,,,,,,,,,,,,,,,,,,,,,,,,,,,,,,,,,deer,Animals,8,0,8,0,1,,,,,,,,,,,,,,,,,,
,,,,,,,,,,,,,,,89591,001,2022-04-28_20h45.48.811,SPAMnetsValid,2021.1.4,MacIntel,59.97361161,,,,,,,,,,,,,,,,,,,,,,,,,,,,,,,,,,,,,,,,,,,,,,,,,,,,,,,,,,,,,,,,,elk,Animals,9,0,9,0,1,,,,,,,,,,,,,,,,,,
,,,,,,,,,,,,,,,89591,001,2022-04-28_20h45.48.811,SPAMnetsValid,2021.1.4,MacIntel,59.97361161,,,,,,,,,,,,,,,,,,,,,,,,,,,,,,,,,,,,,,,,,,,,,,,,,,,,,,,,,,,,,,,,,guinea pig,Animals,10,0,10,0,1,,,,,,,,,,,,,,,,,,
,,,,,,,,,,,,,,,89591,001,2022-04-28_20h45.48.811,SPAMnetsValid,2021.1.4,MacIntel,59.97361161,,,,,,,,,,,,,,,,,,,,,,,,,,,,,,,,,,,,,,,,,,,,,,,,,,,,,,,,,,,,,,,,,pig,Animals,11,0,11,0,1,,,,,,,,,,,,,,,,,,
,,,,,,,,,,,,,,,89591,001,2022-04-28_20h45.48.811,SPAMnetsValid,2021.1.4,MacIntel,59.97361161,,,,,,,,,,,,,,,,,,,,,,,,,,,,,,,,,,,,,,,,,,,,,,,,,,,,,,,,,,,,,,,,,cow,Animals,12,0,12,0,1,,,,,,,,,,,,,,,,,,
,,,,,,,,,,,,,,,89591,001,2022-04-28_20h45.48.811,SPAMnetsValid,2021.1.4,MacIntel,59.97361161,,,,,,,,,,,,,,,,,,,,,,,,,,,,,,,,,,,,,,,,,,,,,,,,,,,,,,,,,,,,,,,,,horse,Animals,13,0,13,0,1,,,,,,,,,,,,,,,,,,
,,,,,,,,,,,,,,,89591,001,2022-04-28_20h45.48.811,SPAMnetsValid,2021.1.4,MacIntel,59.97361161,,,,,,,,,,,,,,,,,,,,,,,,,,,,,,,,,,,,,,,,,,,,,,,,,,,,,,,,,,,,,,,,,moose,Animals,14,0,14,0,1,,,,,,,,,,,,,,,,,,
,,,,,,,,,,,,,,,89591,001,2022-04-28_20h45.48.811,SPAMnetsValid,2021.1.4,MacIntel,59.97361161,,,,,,,,,,,,,,,,,,,,,,,,,,,,,,,,,,,,,,,,,,,,,,,,,,,,,,,,,,,,,,,,,monkey,Animals,15,0,15,0,1,,,,,,,,,,,,,,,,,,
,,,,,,,,,,,,,,,89591,001,2022-04-28_20h45.48.811,SPAMnetsValid,2021.1.4,MacIntel,59.97361161,,,,,,,,,,,,,,,,,,,,,,,,,,,,,,,,,,,,,,,,,,,,,,,,,,,,,,,,,,,,,,,,,gorilla,Animals,16,0,16,0,1,,,,,,,,,,,,,,,,,,
,,,,,,,,,,,,,,,89591,001,2022-04-28_20h45.48.811,SPAMnetsValid,2021.1.4,MacIntel,59.97361161,,,,,,,,,,,,,,,,,,,,,,,,,,,,,,,,,,,,,,,,,,,,,,,,,,,,,,,,,,,,,,,,,lynx,Animals,17,0,17,0,1,,,,,,,,,,,,,,,,,,
,,,,,,,,,,,,,,,89591,001,2022-04-28_20h45.48.811,SPAMnetsValid,2021.1.4,MacIntel,59.97361161,,,,,,,,,,,,,,,,,,,,,,,,,,,,,,,,,,,,,,,,,,,,,,,,,,,,,,,,,,,,,,,,,bobcat,Animals,18,0,18,0,1,,,,,,,,,,,,,,,,,,
,,,,,,,,,,,,,,,89591,001,2022-04-28_20h45.48.811,SPAMnetsValid,2021.1.4,MacIntel,59.97361161,,,,,,,,,,,,,,,,,,,,,,,,,,,,,,,,,,,,,,,,,,,,,,,,,,,,,,,,,,,,,,,,,seal,Animals,19,0,19,0,1,,,,,,,,,,,,,,,,,,
,,,,,,,,,,,,,,,89591,001,2022-04-28_20h45.48.811,SPAMnetsValid,2021.1.4,MacIntel,59.97361161,,,,,,,,,,,,,,,,,,,,,,,,,,,,,,,,,,,,,,,,,,,,,,,,,,,,,,,,,,,,,,,,,polar bear,Animals,20,0,20,0,1,,,,,,,,,,,,,,,,,,
,,,,,,,,,,,,,,,89591,001,2022-04-28_20h45.48.811,SPAMnetsValid,2021.1.4,MacIntel,59.97361161,,,,,,,,,,,,,,,,,,,,,,,,,,,,,,,,,,,,,,,,,,,,,,,,,,,,,,,,,,,,,,,,,wooly mammoth,Animals,21,0,21,0,1,,,,,,,,,,,,,,,,,,
,,,,,,,,,,,,,,,89591,001,2022-04-28_20h45.48.811,SPAMnetsValid,2021.1.4,MacIntel,59.97361161,,,,,,,,,,,,,,,,,,,,,,,,,,,,,,,,,,,,,,,,,,,,,,,,,,,,,,,,,,,,,,,,,me,Animals,22,0,22,0,1,,,,,,,,,,,,,,,,,,
,,,,,,,,,,,,,,,89591,001,2022-04-28_20h45.48.811,SPAMnetsValid,2021.1.4,MacIntel,59.97361161,,,,,,,,,,,,,,,,,,,,,,,,,,,,,,,,,,,,,,,,,,,,,,,,,,,,,,,,,,,,,,,,,cow,Animals,23,0,23,0,1,,,,,,,,,,,,,,,,,,
,,,,,,,,,,,,,,,89591,001,2022-04-28_20h45.48.811,SPAMnetsValid,2021.1.4,MacIntel,59.97361161,,,,,,,,,,,,,,,,,,,,,,,,,,,,,,,,,,,,,,,,,,,,,,,,,,,,,,,,,,,,,,,,,,,,,,,,0,0,0,0,1,Animals,,,,,,,,,,,,
,,,,,,,,,,,,,,,89591,001,2022-04-28_20h45.48.811,SPAMnetsValid,2021.1.4,MacIntel,59.97361161,,,,,,,,,,,,,,,,,,,,,,,,,,,,,,,,,,,,,,,,,,,,,,,,,,,,,,,,,,,,,,,,,,,,,,,,,,,,,,4,5.3423,0,0,0,0,1,"I enjoy concentrating on a fantasy or daydream and exploring all its possibilities, letting it grow and develop.",0,1,,
,,,,,,,,,,,,,,,89591,001,2022-04-28_20h45.48.811,SPAMnetsValid,2021.1.4,MacIntel,59.97361161,,,,,,,,,,,,,,,,,,,,,,,,,,,,,,,,,,,,,,,,,,,,,,,,,,,,,,,,,,,,,,,,,,,,,,,,,,,,,,4,2.3444,0,1,1,1,1,I think it's interesting to learn and develop new hobbies.,0,2,,
,,,,,,,,,,,,,,,89591,001,2022-04-28_20h45.48.811,SPAMnetsValid,2021.1.4,MacIntel,59.97361161,,,,,,,,,,,,,,,,,,,,,,,,,,,,,,,,,,,,,,,,,,,,,,,,,,,,,,,,,,,,,,,,,,,,,,,,,,,,,,3,5.4988,0,2,2,2,1,I am intrigued by the patterns I find in art and nature.,0,3,,
,,,,,,,,,,,,,,,89591,001,2022-04-28_20h45.48.811,SPAMnetsValid,2021.1.4,MacIntel,59.97361161,,,,,,,,,,,,,,,,,,,,,,,,,,,,,,,,,,,,,,,,,,,,,,,,,,,,,,,,,,,,,,,,,,,,,,,,,,,,,,3,6.7685,0,3,3,3,1,I believe letting students hear controversial speakers can only confuse and mislead them.,1,4,,
,,,,,,,,,,,,,,,89591,001,2022-04-28_20h45.48.811,SPAMnetsValid,2021.1.4,MacIntel,59.97361161,,,,,,,,,,,,,,,,,,,,,,,,,,,,,,,,,,,,,,,,,,,,,,,,,,,,,,,,,,,,,,,,,,,,,,,,,,,,,,3,2.265,0,4,4,4,1,Poetry has little or no effect on me.,1,5,,
,,,,,,,,,,,,,,,89591,001,2022-04-28_20h45.48.811,SPAMnetsValid,2021.1.4,MacIntel,59.97361161,,,,,,,,,,,,,,,,,,,,,,,,,,,,,,,,,,,,,,,,,,,,,,,,,,,,,,,,,,,,,,,,,,,,,,,,,,,,,,2,6.933,0,5,5,5,1,I would have difficulty just letting my mind wander without control or guidance.,1,6,,
,,,,,,,,,,,,,,,89591,001,2022-04-28_20h45.48.811,SPAMnetsValid,2021.1.4,MacIntel,59.97361161,,,,,,,,,,,,,,,,,,,,,,,,,,,,,,,,,,,,,,,,,,,,,,,,,,,,,,,,,,,,,,,,,,,,,,,,,,,,,,2,6.6644,0,6,6,6,1,I seldom notice the moods or feelings that different environments produce.,1,7,,
,,,,,,,,,,,,,,,89591,001,2022-04-28_20h45.48.811,SPAMnetsValid,2021.1.4,MacIntel,59.97361161,,,,,,,,,,,,,,,,,,,,,,,,,,,,,,,,,,,,,,,,,,,,,,,,,,,,,,,,,,,,,,,,,,,,,,,,,,,,,,5,4.5499,0,7,7,7,1,I experience a wide range of emotions or feelings.,0,8,,
,,,,,,,,,,,,,,,89591,001,2022-04-28_20h45.48.811,SPAMnetsValid,2021.1.4,MacIntel,59.97361161,,,,,,,,,,,,,,,,,,,,,,,,,,,,,,,,,,,,,,,,,,,,,,,,,,,,,,,,,,,,,,,,,,,,,,,,,,,,,,2,5.8285,0,8,8,8,1,"Sometimes when I am reading poetry or looking at a work of art, I feel a chill or wave of excitement.",0,9,,
,,,,,,,,,,,,,,,89591,001,2022-04-28_20h45.48.811,SPAMnetsValid,2021.1.4,MacIntel,59.97361161,,,,,,,,,,,,,,,,,,,,,,,,,,,,,,,,,,,,,,,,,,,,,,,,,,,,,,,,,,,,,,,,,,,,,,,,,,,,,,5,3.6491,0,9,9,9,1,I have little interest in speculating on the nature of the universe or the human condition.,1,10,,
,,,,,,,,,,,,,,,89591,001,2022-04-28_20h45.48.811,SPAMnetsValid,2021.1.4,MacIntel,59.97361161,,,,,,,,,,,,,,,,,,,,,,,,,,,,,,,,,,,,,,,,,,,,,,,,,,,,,,,,,,,,,,,,,,,,,,,,,,,,,,5,2.6301,0,10,10,10,1,I have a lot of intellectual curiosity.,0,11,,
,,,,,,,,,,,,,,,89591,001,2022-04-28_20h45.48.811,SPAMnetsValid,2021.1.4,MacIntel,59.97361161,,,,,,,,,,,,,,,,,,,,,,,,,,,,,,,,,,,,,,,,,,,,,,,,,,,,,,,,,,,,,,,,,,,,,,,,,,,,,,5,1.8809,0,11,11,11,1,I often enjoy playing with theories or abstract ideas.,0,12,,
,,,,,,,,,,,,,,,89591,001,2022-04-28_20h45.48.811,SPAMnetsValid,2021.1.4,MacIntel,59.97361161,,,,,,,,,,,,,,,,,,,,,,,,,,,,,,,,,,,,,,,,,,,,,,,,,,,,,,,,,,,,,,,,,,,,,,,,,,,,,,,,,,,,,,,,return,9.9554
