key_resp_3.keys,key_resp_3.rt,slider_2.response,slider_2.rt,rjt_rating,rjt_RT,trials_24.thisRepN,trials_24.thisTrialN,trials_24.thisN,trials_24.thisIndex,trials_24.ran,rjt_order,word1,word2,attention,participant,session,date,expName,psychopyVersion,OS,frameRate,trials_4.thisRepN,trials_4.thisTrialN,trials_4.thisN,trials_4.thisIndex,trials_4.ran,trials_5.thisRepN,trials_5.thisTrialN,trials_5.thisN,trials_5.thisIndex,trials_5.ran,repOne,repTwo,slider.response,slider.rt,trials_22.thisRepN,trials_22.thisTrialN,trials_22.thisN,trials_22.thisIndex,trials_22.ran,trials_99.thisRepN,trials_99.thisTrialN,trials_99.thisN,trials_99.thisIndex,trials_99.ran,slider_extend_2.response,slider_extend_2.rt,trials_6.thisRepN,trials_6.thisTrialN,trials_6.thisN,trials_6.thisIndex,trials_6.ran,vCue2,R1,R2,R3,R4,correct,sliderVocab.response,sliderVocab.rt,trials_7.thisRepN,trials_7.thisTrialN,trials_7.thisN,trials_7.thisIndex,trials_7.ran,VocabCue,VR1,VR2,VR3,VR4,VR5,VocabCorrect,AUT_resp,AUT_label,trials.thisRepN,trials.thisTrialN,trials.thisN,trials.thisIndex,trials.ran,trials_2.thisRepN,trials_2.thisTrialN,trials_2.thisN,trials_2.thisIndex,trials_2.ran,aut_prompt,VF_response,VF_tag,trials_16.thisRepN,trials_16.thisTrialN,trials_16.thisN,trials_16.thisIndex,trials_16.ran,trials_17.thisRepN,trials_17.thisTrialN,trials_17.thisN,trials_17.thisIndex,trials_17.ran,VFcond,open_slider.response,open_slider.rt,trials_3.thisRepN,trials_3.thisTrialN,trials_3.thisN,trials_3.thisIndex,trials_3.ran,OpenQ,Rev,OPEN_ORDER,key_resp_2.keys,key_resp_2.rt
return,1.9383,1,3.4372,1,3.4372,0,0,0,68,1,180,tree,yogurt,,89606,003,2022-04-25_13h22.00.945,SPAMnetsValid,2021.1.4,MacIntel,59.99880002,,,,,,,,,,,,,,,,,,,,,,,,,,,,,,,,,,,,,,,,,,,,,,,,,,,,,,,,,,,,,,,,,,,,,,,,,,,,,,,,,,,,,,,,,
,,1,3.0737,1,3.0737,0,1,1,59,1,164,cookie,garden,,89606,003,2022-04-25_13h22.00.945,SPAMnetsValid,2021.1.4,MacIntel,59.99880002,,,,,,,,,,,,,,,,,,,,,,,,,,,,,,,,,,,,,,,,,,,,,,,,,,,,,,,,,,,,,,,,,,,,,,,,,,,,,,,,,,,,,,,,,
,,7,2.2079,7,2.2079,0,2,2,87,1,114,cookie,strawberry,,89606,003,2022-04-25_13h22.00.945,SPAMnetsValid,2021.1.4,MacIntel,59.99880002,,,,,,,,,,,,,,,,,,,,,,,,,,,,,,,,,,,,,,,,,,,,,,,,,,,,,,,,,,,,,,,,,,,,,,,,,,,,,,,,,,,,,,,,,
,,9,1.6806,9,1.6806,0,3,3,28,1,154,strawberry,yogurt,,89606,003,2022-04-25_13h22.00.945,SPAMnetsValid,2021.1.4,MacIntel,59.99880002,,,,,,,,,,,,,,,,,,,,,,,,,,,,,,,,,,,,,,,,,,,,,,,,,,,,,,,,,,,,,,,,,,,,,,,,,,,,,,,,,,,,,,,,,
,,1,1.3494,1,1.3494,0,4,4,15,1,145,cactus,yogurt,,89606,003,2022-04-25_13h22.00.945,SPAMnetsValid,2021.1.4,MacIntel,59.99880002,,,,,,,,,,,,,,,,,,,,,,,,,,,,,,,,,,,,,,,,,,,,,,,,,,,,,,,,,,,,,,,,,,,,,,,,,,,,,,,,,,,,,,,,,
,,5,3.9196,5,3.9196,0,5,5,30,1,125,carrot,tree,,89606,003,2022-04-25_13h22.00.945,SPAMnetsValid,2021.1.4,MacIntel,59.99880002,,,,,,,,,,,,,,,,,,,,,,,,,,,,,,,,,,,,,,,,,,,,,,,,,,,,,,,,,,,,,,,,,,,,,,,,,,,,,,,,,,,,,,,,,
,,3,1.5801,3,1.5801,0,6,6,20,1,149,broom,tomato,,89606,003,2022-04-25_13h22.00.945,SPAMnetsValid,2021.1.4,MacIntel,59.99880002,,,,,,,,,,,,,,,,,,,,,,,,,,,,,,,,,,,,,,,,,,,,,,,,,,,,,,,,,,,,,,,,,,,,,,,,,,,,,,,,,,,,,,,,,
,,9,1.4259,9,1.4259,0,7,7,61,1,138,flower,rose,,89606,003,2022-04-25_13h22.00.945,SPAMnetsValid,2021.1.4,MacIntel,59.99880002,,,,,,,,,,,,,,,,,,,,,,,,,,,,,,,,,,,,,,,,,,,,,,,,,,,,,,,,,,,,,,,,,,,,,,,,,,,,,,,,,,,,,,,,,
,,1,1.7246,1,1.7246,0,8,8,6,1,151,microwave,onion,,89606,003,2022-04-25_13h22.00.945,SPAMnetsValid,2021.1.4,MacIntel,59.99880002,,,,,,,,,,,,,,,,,,,,,,,,,,,,,,,,,,,,,,,,,,,,,,,,,,,,,,,,,,,,,,,,,,,,,,,,,,,,,,,,,,,,,,,,,
,,1,1.5474,1,1.5474,0,9,9,50,1,126,kitchen,tree,,89606,003,2022-04-25_13h22.00.945,SPAMnetsValid,2021.1.4,MacIntel,59.99880002,,,,,,,,,,,,,,,,,,,,,,,,,,,,,,,,,,,,,,,,,,,,,,,,,,,,,,,,,,,,,,,,,,,,,,,,,,,,,,,,,,,,,,,,,
,,1,1.3046,1,1.3046,0,10,10,46,1,123,cookie,tree,,89606,003,2022-04-25_13h22.00.945,SPAMnetsValid,2021.1.4,MacIntel,59.99880002,,,,,,,,,,,,,,,,,,,,,,,,,,,,,,,,,,,,,,,,,,,,,,,,,,,,,,,,,,,,,,,,,,,,,,,,,,,,,,,,,,,,,,,,,
,,9,1.5766,9,1.5766,0,11,11,44,1,116,cake,chocolate,,89606,003,2022-04-25_13h22.00.945,SPAMnetsValid,2021.1.4,MacIntel,59.99880002,,,,,,,,,,,,,,,,,,,,,,,,,,,,,,,,,,,,,,,,,,,,,,,,,,,,,,,,,,,,,,,,,,,,,,,,,,,,,,,,,,,,,,,,,
,,5,3.6888,5,3.6888,0,12,12,82,1,98,pretzel,strawberry,,89606,003,2022-04-25_13h22.00.945,SPAMnetsValid,2021.1.4,MacIntel,59.99880002,,,,,,,,,,,,,,,,,,,,,,,,,,,,,,,,,,,,,,,,,,,,,,,,,,,,,,,,,,,,,,,,,,,,,,,,,,,,,,,,,,,,,,,,,
,,8,2.2838,8,2.2838,0,13,13,39,1,112,cake,carrot,,89606,003,2022-04-25_13h22.00.945,SPAMnetsValid,2021.1.4,MacIntel,59.99880002,,,,,,,,,,,,,,,,,,,,,,,,,,,,,,,,,,,,,,,,,,,,,,,,,,,,,,,,,,,,,,,,,,,,,,,,,,,,,,,,,,,,,,,,,
,,8,1.5478,8,1.5478,0,14,14,36,1,161,kitchen,pretzel,,89606,003,2022-04-25_13h22.00.945,SPAMnetsValid,2021.1.4,MacIntel,59.99880002,,,,,,,,,,,,,,,,,,,,,,,,,,,,,,,,,,,,,,,,,,,,,,,,,,,,,,,,,,,,,,,,,,,,,,,,,,,,,,,,,,,,,,,,,
,,1,1.8562,1,1.8562,0,15,15,74,1,128,melon,microwave,,89606,003,2022-04-25_13h22.00.945,SPAMnetsValid,2021.1.4,MacIntel,59.99880002,,,,,,,,,,,,,,,,,,,,,,,,,,,,,,,,,,,,,,,,,,,,,,,,,,,,,,,,,,,,,,,,,,,,,,,,,,,,,,,,,,,,,,,,,
,,7,5.2368,7,5.2368,0,16,16,92,1,170,cookie,microwave,,89606,003,2022-04-25_13h22.00.945,SPAMnetsValid,2021.1.4,MacIntel,59.99880002,,,,,,,,,,,,,,,,,,,,,,,,,,,,,,,,,,,,,,,,,,,,,,,,,,,,,,,,,,,,,,,,,,,,,,,,,,,,,,,,,,,,,,,,,
,,1,1.7273,1,1.7273,0,17,17,73,1,135,carrot,oven,,89606,003,2022-04-25_13h22.00.945,SPAMnetsValid,2021.1.4,MacIntel,59.99880002,,,,,,,,,,,,,,,,,,,,,,,,,,,,,,,,,,,,,,,,,,,,,,,,,,,,,,,,,,,,,,,,,,,,,,,,,,,,,,,,,,,,,,,,,
,,9,1.8716,9,1.8716,0,18,18,25,1,194,cactus,cactus,CHECK,89606,003,2022-04-25_13h22.00.945,SPAMnetsValid,2021.1.4,MacIntel,59.99880002,,,,,,,,,,,,,,,,,,,,,,,,,,,,,,,,,,,,,,,,,,,,,,,,,,,,,,,,,,,,,,,,,,,,,,,,,,,,,,,,,,,,,,,,,
,,4,1.756,4,1.756,0,19,19,37,1,139,carrot,strawberry,,89606,003,2022-04-25_13h22.00.945,SPAMnetsValid,2021.1.4,MacIntel,59.99880002,,,,,,,,,,,,,,,,,,,,,,,,,,,,,,,,,,,,,,,,,,,,,,,,,,,,,,,,,,,,,,,,,,,,,,,,,,,,,,,,,,,,,,,,,
,,7,1.7269,7,1.7269,0,20,20,8,1,97,chocolate,kitchen,,89606,003,2022-04-25_13h22.00.945,SPAMnetsValid,2021.1.4,MacIntel,59.99880002,,,,,,,,,,,,,,,,,,,,,,,,,,,,,,,,,,,,,,,,,,,,,,,,,,,,,,,,,,,,,,,,,,,,,,,,,,,,,,,,,,,,,,,,,
,,9,1.9396,9,1.9396,0,21,21,60,1,122,flower,garden,,89606,003,2022-04-25_13h22.00.945,SPAMnetsValid,2021.1.4,MacIntel,59.99880002,,,,,,,,,,,,,,,,,,,,,,,,,,,,,,,,,,,,,,,,,,,,,,,,,,,,,,,,,,,,,,,,,,,,,,,,,,,,,,,,,,,,,,,,,
,,9,1.2068,9,1.2068,0,22,22,33,1,131,cactus,garden,,89606,003,2022-04-25_13h22.00.945,SPAMnetsValid,2021.1.4,MacIntel,59.99880002,,,,,,,,,,,,,,,,,,,,,,,,,,,,,,,,,,,,,,,,,,,,,,,,,,,,,,,,,,,,,,,,,,,,,,,,,,,,,,,,,,,,,,,,,
,,7,1.4384,7,1.4384,0,23,23,96,1,136,chocolate,microwave,,89606,003,2022-04-25_13h22.00.945,SPAMnetsValid,2021.1.4,MacIntel,59.99880002,,,,,,,,,,,,,,,,,,,,,,,,,,,,,,,,,,,,,,,,,,,,,,,,,,,,,,,,,,,,,,,,,,,,,,,,,,,,,,,,,,,,,,,,,
,,3,1.8428,3,1.8428,0,24,24,88,1,171,cake,tomato,,89606,003,2022-04-25_13h22.00.945,SPAMnetsValid,2021.1.4,MacIntel,59.99880002,,,,,,,,,,,,,,,,,,,,,,,,,,,,,,,,,,,,,,,,,,,,,,,,,,,,,,,,,,,,,,,,,,,,,,,,,,,,,,,,,,,,,,,,,
,,7,1.87,7,1.87,0,25,25,17,1,99,garden,melon,,89606,003,2022-04-25_13h22.00.945,SPAMnetsValid,2021.1.4,MacIntel,59.99880002,,,,,,,,,,,,,,,,,,,,,,,,,,,,,,,,,,,,,,,,,,,,,,,,,,,,,,,,,,,,,,,,,,,,,,,,,,,,,,,,,,,,,,,,,
,,1,1.7082,1,1.7082,0,26,26,75,1,178,cactus,carrot,,89606,003,2022-04-25_13h22.00.945,SPAMnetsValid,2021.1.4,MacIntel,59.99880002,,,,,,,,,,,,,,,,,,,,,,,,,,,,,,,,,,,,,,,,,,,,,,,,,,,,,,,,,,,,,,,,,,,,,,,,,,,,,,,,,,,,,,,,,
,,5,2.889,5,2.889,0,27,27,89,1,140,cookie,refrigerator,,89606,003,2022-04-25_13h22.00.945,SPAMnetsValid,2021.1.4,MacIntel,59.99880002,,,,,,,,,,,,,,,,,,,,,,,,,,,,,,,,,,,,,,,,,,,,,,,,,,,,,,,,,,,,,,,,,,,,,,,,,,,,,,,,,,,,,,,,,
,,1,1.3398,1,1.3398,0,28,28,4,1,109,broom,strawberry,,89606,003,2022-04-25_13h22.00.945,SPAMnetsValid,2021.1.4,MacIntel,59.99880002,,,,,,,,,,,,,,,,,,,,,,,,,,,,,,,,,,,,,,,,,,,,,,,,,,,,,,,,,,,,,,,,,,,,,,,,,,,,,,,,,,,,,,,,,
,,8,1.8562,8,1.8562,0,29,29,48,1,186,kitchen,yogurt,,89606,003,2022-04-25_13h22.00.945,SPAMnetsValid,2021.1.4,MacIntel,59.99880002,,,,,,,,,,,,,,,,,,,,,,,,,,,,,,,,,,,,,,,,,,,,,,,,,,,,,,,,,,,,,,,,,,,,,,,,,,,,,,,,,,,,,,,,,
,,2,1.58,2,1.58,0,30,30,16,1,111,carrot,microwave,,89606,003,2022-04-25_13h22.00.945,SPAMnetsValid,2021.1.4,MacIntel,59.99880002,,,,,,,,,,,,,,,,,,,,,,,,,,,,,,,,,,,,,,,,,,,,,,,,,,,,,,,,,,,,,,,,,,,,,,,,,,,,,,,,,,,,,,,,,
,,2,0.8888,2,0.8888,0,31,31,24,1,169,onion,yogurt,,89606,003,2022-04-25_13h22.00.945,SPAMnetsValid,2021.1.4,MacIntel,59.99880002,,,,,,,,,,,,,,,,,,,,,,,,,,,,,,,,,,,,,,,,,,,,,,,,,,,,,,,,,,,,,,,,,,,,,,,,,,,,,,,,,,,,,,,,,
,,8,2.1567,8,2.1567,0,32,32,7,1,188,flower,tree,,89606,003,2022-04-25_13h22.00.945,SPAMnetsValid,2021.1.4,MacIntel,59.99880002,,,,,,,,,,,,,,,,,,,,,,,,,,,,,,,,,,,,,,,,,,,,,,,,,,,,,,,,,,,,,,,,,,,,,,,,,,,,,,,,,,,,,,,,,
,,3,2.223,3,2.223,0,33,33,2,1,174,cake,pretzel,,89606,003,2022-04-25_13h22.00.945,SPAMnetsValid,2021.1.4,MacIntel,59.99880002,,,,,,,,,,,,,,,,,,,,,,,,,,,,,,,,,,,,,,,,,,,,,,,,,,,,,,,,,,,,,,,,,,,,,,,,,,,,,,,,,,,,,,,,,
,,2,1.599,2,1.599,0,34,34,26,1,107,rose,tomato,,89606,003,2022-04-25_13h22.00.945,SPAMnetsValid,2021.1.4,MacIntel,59.99880002,,,,,,,,,,,,,,,,,,,,,,,,,,,,,,,,,,,,,,,,,,,,,,,,,,,,,,,,,,,,,,,,,,,,,,,,,,,,,,,,,,,,,,,,,
,,8,3.1407,8,3.1407,0,35,35,69,1,124,oven,refrigerator,,89606,003,2022-04-25_13h22.00.945,SPAMnetsValid,2021.1.4,MacIntel,59.99880002,,,,,,,,,,,,,,,,,,,,,,,,,,,,,,,,,,,,,,,,,,,,,,,,,,,,,,,,,,,,,,,,,,,,,,,,,,,,,,,,,,,,,,,,,
,,9,3.2119,9,3.2119,0,36,36,52,1,110,chocolate,cookie,,89606,003,2022-04-25_13h22.00.945,SPAMnetsValid,2021.1.4,MacIntel,59.99880002,,,,,,,,,,,,,,,,,,,,,,,,,,,,,,,,,,,,,,,,,,,,,,,,,,,,,,,,,,,,,,,,,,,,,,,,,,,,,,,,,,,,,,,,,
,,1,1.4384,1,1.4384,0,37,37,18,1,119,strawberry,tree,,89606,003,2022-04-25_13h22.00.945,SPAMnetsValid,2021.1.4,MacIntel,59.99880002,,,,,,,,,,,,,,,,,,,,,,,,,,,,,,,,,,,,,,,,,,,,,,,,,,,,,,,,,,,,,,,,,,,,,,,,,,,,,,,,,,,,,,,,,
,,9,1.6921,9,1.6921,0,38,38,66,1,150,microwave,refrigerator,,89606,003,2022-04-25_13h22.00.945,SPAMnetsValid,2021.1.4,MacIntel,59.99880002,,,,,,,,,,,,,,,,,,,,,,,,,,,,,,,,,,,,,,,,,,,,,,,,,,,,,,,,,,,,,,,,,,,,,,,,,,,,,,,,,,,,,,,,,
,,3,32.4298,3,32.4298,0,39,39,71,1,187,cactus,microwave,,89606,003,2022-04-25_13h22.00.945,SPAMnetsValid,2021.1.4,MacIntel,59.99880002,,,,,,,,,,,,,,,,,,,,,,,,,,,,,,,,,,,,,,,,,,,,,,,,,,,,,,,,,,,,,,,,,,,,,,,,,,,,,,,,,,,,,,,,,
,,2,3.3384,2,3.3384,0,40,40,13,1,105,cactus,oven,,89606,003,2022-04-25_13h22.00.945,SPAMnetsValid,2021.1.4,MacIntel,59.99880002,,,,,,,,,,,,,,,,,,,,,,,,,,,,,,,,,,,,,,,,,,,,,,,,,,,,,,,,,,,,,,,,,,,,,,,,,,,,,,,,,,,,,,,,,
,,7,2.3139,7,2.3139,0,41,41,43,1,185,cactus,rose,,89606,003,2022-04-25_13h22.00.945,SPAMnetsValid,2021.1.4,MacIntel,59.99880002,,,,,,,,,,,,,,,,,,,,,,,,,,,,,,,,,,,,,,,,,,,,,,,,,,,,,,,,,,,,,,,,,,,,,,,,,,,,,,,,,,,,,,,,,
,,1,1.9247,1,1.9247,0,42,42,54,1,101,cactus,kitchen,,89606,003,2022-04-25_13h22.00.945,SPAMnetsValid,2021.1.4,MacIntel,59.99880002,,,,,,,,,,,,,,,,,,,,,,,,,,,,,,,,,,,,,,,,,,,,,,,,,,,,,,,,,,,,,,,,,,,,,,,,,,,,,,,,,,,,,,,,,
,,1,2.054,1,2.054,0,43,43,34,1,153,carrot,pretzel,,89606,003,2022-04-25_13h22.00.945,SPAMnetsValid,2021.1.4,MacIntel,59.99880002,,,,,,,,,,,,,,,,,,,,,,,,,,,,,,,,,,,,,,,,,,,,,,,,,,,,,,,,,,,,,,,,,,,,,,,,,,,,,,,,,,,,,,,,,
,,3,1.3045,3,1.3045,0,44,44,41,1,175,melon,onion,,89606,003,2022-04-25_13h22.00.945,SPAMnetsValid,2021.1.4,MacIntel,59.99880002,,,,,,,,,,,,,,,,,,,,,,,,,,,,,,,,,,,,,,,,,,,,,,,,,,,,,,,,,,,,,,,,,,,,,,,,,,,,,,,,,,,,,,,,,
,,1,1.7228,1,1.7228,0,45,45,80,1,146,pretzel,tree,,89606,003,2022-04-25_13h22.00.945,SPAMnetsValid,2021.1.4,MacIntel,59.99880002,,,,,,,,,,,,,,,,,,,,,,,,,,,,,,,,,,,,,,,,,,,,,,,,,,,,,,,,,,,,,,,,,,,,,,,,,,,,,,,,,,,,,,,,,
,,3,1.8736,3,1.8736,0,46,46,78,1,132,broom,tree,,89606,003,2022-04-25_13h22.00.945,SPAMnetsValid,2021.1.4,MacIntel,59.99880002,,,,,,,,,,,,,,,,,,,,,,,,,,,,,,,,,,,,,,,,,,,,,,,,,,,,,,,,,,,,,,,,,,,,,,,,,,,,,,,,,,,,,,,,,
,,3,1.4041,3,1.4041,0,47,47,23,1,148,flower,melon,,89606,003,2022-04-25_13h22.00.945,SPAMnetsValid,2021.1.4,MacIntel,59.99880002,,,,,,,,,,,,,,,,,,,,,,,,,,,,,,,,,,,,,,,,,,,,,,,,,,,,,,,,,,,,,,,,,,,,,,,,,,,,,,,,,,,,,,,,,
,,3,1.0879,3,1.0879,0,48,48,90,1,190,microwave,strawberry,,89606,003,2022-04-25_13h22.00.945,SPAMnetsValid,2021.1.4,MacIntel,59.99880002,,,,,,,,,,,,,,,,,,,,,,,,,,,,,,,,,,,,,,,,,,,,,,,,,,,,,,,,,,,,,,,,,,,,,,,,,,,,,,,,,,,,,,,,,
,,7,2.0871,7,2.0871,0,49,49,29,1,163,melon,refrigerator,,89606,003,2022-04-25_13h22.00.945,SPAMnetsValid,2021.1.4,MacIntel,59.99880002,,,,,,,,,,,,,,,,,,,,,,,,,,,,,,,,,,,,,,,,,,,,,,,,,,,,,,,,,,,,,,,,,,,,,,,,,,,,,,,,,,,,,,,,,
,,7,3.5406,7,3.5406,0,50,50,72,1,181,carrot,kitchen,,89606,003,2022-04-25_13h22.00.945,SPAMnetsValid,2021.1.4,MacIntel,59.99880002,,,,,,,,,,,,,,,,,,,,,,,,,,,,,,,,,,,,,,,,,,,,,,,,,,,,,,,,,,,,,,,,,,,,,,,,,,,,,,,,,,,,,,,,,
,,1,1.842,1,1.842,0,51,51,84,1,130,microwave,yogurt,,89606,003,2022-04-25_13h22.00.945,SPAMnetsValid,2021.1.4,MacIntel,59.99880002,,,,,,,,,,,,,,,,,,,,,,,,,,,,,,,,,,,,,,,,,,,,,,,,,,,,,,,,,,,,,,,,,,,,,,,,,,,,,,,,,,,,,,,,,
,,8,2.2656,8,2.2656,0,52,52,77,1,172,kitchen,melon,,89606,003,2022-04-25_13h22.00.945,SPAMnetsValid,2021.1.4,MacIntel,59.99880002,,,,,,,,,,,,,,,,,,,,,,,,,,,,,,,,,,,,,,,,,,,,,,,,,,,,,,,,,,,,,,,,,,,,,,,,,,,,,,,,,,,,,,,,,
,,1,4.146,1,4.146,0,53,53,58,1,144,cake,garden,,89606,003,2022-04-25_13h22.00.945,SPAMnetsValid,2021.1.4,MacIntel,59.99880002,,,,,,,,,,,,,,,,,,,,,,,,,,,,,,,,,,,,,,,,,,,,,,,,,,,,,,,,,,,,,,,,,,,,,,,,,,,,,,,,,,,,,,,,,
,,1,1.2571,1,1.2571,0,54,54,62,1,189,onion,tree,,89606,003,2022-04-25_13h22.00.945,SPAMnetsValid,2021.1.4,MacIntel,59.99880002,,,,,,,,,,,,,,,,,,,,,,,,,,,,,,,,,,,,,,,,,,,,,,,,,,,,,,,,,,,,,,,,,,,,,,,,,,,,,,,,,,,,,,,,,
,,1,1.121,1,1.121,0,55,55,63,1,137,microwave,tree,,89606,003,2022-04-25_13h22.00.945,SPAMnetsValid,2021.1.4,MacIntel,59.99880002,,,,,,,,,,,,,,,,,,,,,,,,,,,,,,,,,,,,,,,,,,,,,,,,,,,,,,,,,,,,,,,,,,,,,,,,,,,,,,,,,,,,,,,,,
,,4,1.8726,4,1.8726,0,56,56,93,1,134,carrot,flower,,89606,003,2022-04-25_13h22.00.945,SPAMnetsValid,2021.1.4,MacIntel,59.99880002,,,,,,,,,,,,,,,,,,,,,,,,,,,,,,,,,,,,,,,,,,,,,,,,,,,,,,,,,,,,,,,,,,,,,,,,,,,,,,,,,,,,,,,,,
,,1,1.6722,1,1.6722,0,57,57,45,1,179,broom,oven,,89606,003,2022-04-25_13h22.00.945,SPAMnetsValid,2021.1.4,MacIntel,59.99880002,,,,,,,,,,,,,,,,,,,,,,,,,,,,,,,,,,,,,,,,,,,,,,,,,,,,,,,,,,,,,,,,,,,,,,,,,,,,,,,,,,,,,,,,,
,,8,1.7141,8,1.7141,0,58,58,14,1,120,microwave,oven,,89606,003,2022-04-25_13h22.00.945,SPAMnetsValid,2021.1.4,MacIntel,59.99880002,,,,,,,,,,,,,,,,,,,,,,,,,,,,,,,,,,,,,,,,,,,,,,,,,,,,,,,,,,,,,,,,,,,,,,,,,,,,,,,,,,,,,,,,,
,,1,7.0073,1,7.0073,0,59,59,57,1,127,cactus,chocolate,,89606,003,2022-04-25_13h22.00.945,SPAMnetsValid,2021.1.4,MacIntel,59.99880002,,,,,,,,,,,,,,,,,,,,,,,,,,,,,,,,,,,,,,,,,,,,,,,,,,,,,,,,,,,,,,,,,,,,,,,,,,,,,,,,,,,,,,,,,
,,1,2.7438,1,2.7438,0,60,60,81,1,104,garden,microwave,,89606,003,2022-04-25_13h22.00.945,SPAMnetsValid,2021.1.4,MacIntel,59.99880002,,,,,,,,,,,,,,,,,,,,,,,,,,,,,,,,,,,,,,,,,,,,,,,,,,,,,,,,,,,,,,,,,,,,,,,,,,,,,,,,,,,,,,,,,
,,8,1.8924,8,1.8924,0,61,61,83,1,100,garden,tomato,,89606,003,2022-04-25_13h22.00.945,SPAMnetsValid,2021.1.4,MacIntel,59.99880002,,,,,,,,,,,,,,,,,,,,,,,,,,,,,,,,,,,,,,,,,,,,,,,,,,,,,,,,,,,,,,,,,,,,,,,,,,,,,,,,,,,,,,,,,
,,4,4.2804,4,4.2804,0,62,62,56,1,113,refrigerator,strawberry,,89606,003,2022-04-25_13h22.00.945,SPAMnetsValid,2021.1.4,MacIntel,59.99880002,,,,,,,,,,,,,,,,,,,,,,,,,,,,,,,,,,,,,,,,,,,,,,,,,,,,,,,,,,,,,,,,,,,,,,,,,,,,,,,,,,,,,,,,,
,,4,2.2883,4,2.2883,0,63,63,76,1,102,chocolate,refrigerator,,89606,003,2022-04-25_13h22.00.945,SPAMnetsValid,2021.1.4,MacIntel,59.99880002,,,,,,,,,,,,,,,,,,,,,,,,,,,,,,,,,,,,,,,,,,,,,,,,,,,,,,,,,,,,,,,,,,,,,,,,,,,,,,,,,,,,,,,,,
,,1,2.2219,1,2.2219,0,64,64,79,1,103,pretzel,tomato,,89606,003,2022-04-25_13h22.00.945,SPAMnetsValid,2021.1.4,MacIntel,59.99880002,,,,,,,,,,,,,,,,,,,,,,,,,,,,,,,,,,,,,,,,,,,,,,,,,,,,,,,,,,,,,,,,,,,,,,,,,,,,,,,,,,,,,,,,,
,,1,2.9561,1,2.9561,0,65,65,40,1,165,onion,rose,,89606,003,2022-04-25_13h22.00.945,SPAMnetsValid,2021.1.4,MacIntel,59.99880002,,,,,,,,,,,,,,,,,,,,,,,,,,,,,,,,,,,,,,,,,,,,,,,,,,,,,,,,,,,,,,,,,,,,,,,,,,,,,,,,,,,,,,,,,
,,1,3.8065,1,3.8065,0,66,66,3,1,129,cactus,refrigerator,,89606,003,2022-04-25_13h22.00.945,SPAMnetsValid,2021.1.4,MacIntel,59.99880002,,,,,,,,,,,,,,,,,,,,,,,,,,,,,,,,,,,,,,,,,,,,,,,,,,,,,,,,,,,,,,,,,,,,,,,,,,,,,,,,,,,,,,,,,
,,1,0.9227,1,0.9227,0,67,67,12,1,162,microwave,tomato,,89606,003,2022-04-25_13h22.00.945,SPAMnetsValid,2021.1.4,MacIntel,59.99880002,,,,,,,,,,,,,,,,,,,,,,,,,,,,,,,,,,,,,,,,,,,,,,,,,,,,,,,,,,,,,,,,,,,,,,,,,,,,,,,,,,,,,,,,,
,,1,1.4127,1,1.4127,0,68,68,35,1,147,cake,refrigerator,,89606,003,2022-04-25_13h22.00.945,SPAMnetsValid,2021.1.4,MacIntel,59.99880002,,,,,,,,,,,,,,,,,,,,,,,,,,,,,,,,,,,,,,,,,,,,,,,,,,,,,,,,,,,,,,,,,,,,,,,,,,,,,,,,,,,,,,,,,
,,1,1.1308,1,1.1308,0,69,69,85,1,115,refrigerator,tomato,,89606,003,2022-04-25_13h22.00.945,SPAMnetsValid,2021.1.4,MacIntel,59.99880002,,,,,,,,,,,,,,,,,,,,,,,,,,,,,,,,,,,,,,,,,,,,,,,,,,,,,,,,,,,,,,,,,,,,,,,,,,,,,,,,,,,,,,,,,
,,1,0.9698,1,0.9698,0,70,70,21,1,159,cookie,flower,,89606,003,2022-04-25_13h22.00.945,SPAMnetsValid,2021.1.4,MacIntel,59.99880002,,,,,,,,,,,,,,,,,,,,,,,,,,,,,,,,,,,,,,,,,,,,,,,,,,,,,,,,,,,,,,,,,,,,,,,,,,,,,,,,,,,,,,,,,
,,1,0.9218,1,0.9218,0,71,71,67,1,96,oven,strawberry,,89606,003,2022-04-25_13h22.00.945,SPAMnetsValid,2021.1.4,MacIntel,59.99880002,,,,,,,,,,,,,,,,,,,,,,,,,,,,,,,,,,,,,,,,,,,,,,,,,,,,,,,,,,,,,,,,,,,,,,,,,,,,,,,,,,,,,,,,,
,,8,1.7722,8,1.7722,0,72,72,27,1,158,cookie,oven,,89606,003,2022-04-25_13h22.00.945,SPAMnetsValid,2021.1.4,MacIntel,59.99880002,,,,,,,,,,,,,,,,,,,,,,,,,,,,,,,,,,,,,,,,,,,,,,,,,,,,,,,,,,,,,,,,,,,,,,,,,,,,,,,,,,,,,,,,,
,,1,1.4282,1,1.4282,0,73,73,95,1,121,broom,microwave,,89606,003,2022-04-25_13h22.00.945,SPAMnetsValid,2021.1.4,MacIntel,59.99880002,,,,,,,,,,,,,,,,,,,,,,,,,,,,,,,,,,,,,,,,,,,,,,,,,,,,,,,,,,,,,,,,,,,,,,,,,,,,,,,,,,,,,,,,,
,,5,3.4057,5,3.4057,0,74,74,9,1,176,cactus,tomato,,89606,003,2022-04-25_13h22.00.945,SPAMnetsValid,2021.1.4,MacIntel,59.99880002,,,,,,,,,,,,,,,,,,,,,,,,,,,,,,,,,,,,,,,,,,,,,,,,,,,,,,,,,,,,,,,,,,,,,,,,,,,,,,,,,,,,,,,,,
,,1,4.1216,1,4.1216,0,75,75,31,1,156,melon,rose,,89606,003,2022-04-25_13h22.00.945,SPAMnetsValid,2021.1.4,MacIntel,59.99880002,,,,,,,,,,,,,,,,,,,,,,,,,,,,,,,,,,,,,,,,,,,,,,,,,,,,,,,,,,,,,,,,,,,,,,,,,,,,,,,,,,,,,,,,,
,,1,1.9739,1,1.9739,0,76,76,5,1,108,carrot,chocolate,,89606,003,2022-04-25_13h22.00.945,SPAMnetsValid,2021.1.4,MacIntel,59.99880002,,,,,,,,,,,,,,,,,,,,,,,,,,,,,,,,,,,,,,,,,,,,,,,,,,,,,,,,,,,,,,,,,,,,,,,,,,,,,,,,,,,,,,,,,
,,9,1.7225,9,1.7225,0,77,77,47,1,167,carrot,garden,,89606,003,2022-04-25_13h22.00.945,SPAMnetsValid,2021.1.4,MacIntel,59.99880002,,,,,,,,,,,,,,,,,,,,,,,,,,,,,,,,,,,,,,,,,,,,,,,,,,,,,,,,,,,,,,,,,,,,,,,,,,,,,,,,,,,,,,,,,
,,1,2.421,1,2.421,0,78,78,32,1,182,flower,refrigerator,,89606,003,2022-04-25_13h22.00.945,SPAMnetsValid,2021.1.4,MacIntel,59.99880002,,,,,,,,,,,,,,,,,,,,,,,,,,,,,,,,,,,,,,,,,,,,,,,,,,,,,,,,,,,,,,,,,,,,,,,,,,,,,,,,,,,,,,,,,
,,1,1.0542,1,1.0542,0,79,79,19,1,183,cake,rose,,89606,003,2022-04-25_13h22.00.945,SPAMnetsValid,2021.1.4,MacIntel,59.99880002,,,,,,,,,,,,,,,,,,,,,,,,,,,,,,,,,,,,,,,,,,,,,,,,,,,,,,,,,,,,,,,,,,,,,,,,,,,,,,,,,,,,,,,,,
,,8,1.6766,8,1.6766,0,80,80,0,1,106,cake,strawberry,,89606,003,2022-04-25_13h22.00.945,SPAMnetsValid,2021.1.4,MacIntel,59.99880002,,,,,,,,,,,,,,,,,,,,,,,,,,,,,,,,,,,,,,,,,,,,,,,,,,,,,,,,,,,,,,,,,,,,,,,,,,,,,,,,,,,,,,,,,
,,1,1.6071,1,1.6071,0,81,81,64,1,157,refrigerator,rose,,89606,003,2022-04-25_13h22.00.945,SPAMnetsValid,2021.1.4,MacIntel,59.99880002,,,,,,,,,,,,,,,,,,,,,,,,,,,,,,,,,,,,,,,,,,,,,,,,,,,,,,,,,,,,,,,,,,,,,,,,,,,,,,,,,,,,,,,,,
,,6,2.0392,6,2.0392,0,82,82,70,1,141,melon,tomato,,89606,003,2022-04-25_13h22.00.945,SPAMnetsValid,2021.1.4,MacIntel,59.99880002,,,,,,,,,,,,,,,,,,,,,,,,,,,,,,,,,,,,,,,,,,,,,,,,,,,,,,,,,,,,,,,,,,,,,,,,,,,,,,,,,,,,,,,,,
,,6,3.3558,6,3.3558,0,83,83,49,1,152,cactus,strawberry,,89606,003,2022-04-25_13h22.00.945,SPAMnetsValid,2021.1.4,MacIntel,59.99880002,,,,,,,,,,,,,,,,,,,,,,,,,,,,,,,,,,,,,,,,,,,,,,,,,,,,,,,,,,,,,,,,,,,,,,,,,,,,,,,,,,,,,,,,,
,,8,1.9057,8,1.9057,0,84,84,22,1,142,garden,tree,,89606,003,2022-04-25_13h22.00.945,SPAMnetsValid,2021.1.4,MacIntel,59.99880002,,,,,,,,,,,,,,,,,,,,,,,,,,,,,,,,,,,,,,,,,,,,,,,,,,,,,,,,,,,,,,,,,,,,,,,,,,,,,,,,,,,,,,,,,
,,1,1.4248,1,1.4248,0,85,85,94,1,133,cake,flower,,89606,003,2022-04-25_13h22.00.945,SPAMnetsValid,2021.1.4,MacIntel,59.99880002,,,,,,,,,,,,,,,,,,,,,,,,,,,,,,,,,,,,,,,,,,,,,,,,,,,,,,,,,,,,,,,,,,,,,,,,,,,,,,,,,,,,,,,,,
,,1,0.9248,1,0.9248,0,86,86,55,1,143,pretzel,rose,,89606,003,2022-04-25_13h22.00.945,SPAMnetsValid,2021.1.4,MacIntel,59.99880002,,,,,,,,,,,,,,,,,,,,,,,,,,,,,,,,,,,,,,,,,,,,,,,,,,,,,,,,,,,,,,,,,,,,,,,,,,,,,,,,,,,,,,,,,
,,7,1.5229,7,1.5229,0,87,87,10,1,118,chocolate,oven,,89606,003,2022-04-25_13h22.00.945,SPAMnetsValid,2021.1.4,MacIntel,59.99880002,,,,,,,,,,,,,,,,,,,,,,,,,,,,,,,,,,,,,,,,,,,,,,,,,,,,,,,,,,,,,,,,,,,,,,,,,,,,,,,,,,,,,,,,,
,,8,1.4125,8,1.4125,0,88,88,51,1,168,cactus,flower,,89606,003,2022-04-25_13h22.00.945,SPAMnetsValid,2021.1.4,MacIntel,59.99880002,,,,,,,,,,,,,,,,,,,,,,,,,,,,,,,,,,,,,,,,,,,,,,,,,,,,,,,,,,,,,,,,,,,,,,,,,,,,,,,,,,,,,,,,,
,,9,1.7294,9,1.7294,0,89,89,53,1,177,chocolate,strawberry,,89606,003,2022-04-25_13h22.00.945,SPAMnetsValid,2021.1.4,MacIntel,59.99880002,,,,,,,,,,,,,,,,,,,,,,,,,,,,,,,,,,,,,,,,,,,,,,,,,,,,,,,,,,,,,,,,,,,,,,,,,,,,,,,,,,,,,,,,,
,,9,1.23,9,1.23,0,90,90,86,1,193,melon,melon,CHECK,89606,003,2022-04-25_13h22.00.945,SPAMnetsValid,2021.1.4,MacIntel,59.99880002,,,,,,,,,,,,,,,,,,,,,,,,,,,,,,,,,,,,,,,,,,,,,,,,,,,,,,,,,,,,,,,,,,,,,,,,,,,,,,,,,,,,,,,,,
,,8,1.5305,8,1.5305,0,91,91,11,1,117,melon,strawberry,,89606,003,2022-04-25_13h22.00.945,SPAMnetsValid,2021.1.4,MacIntel,59.99880002,,,,,,,,,,,,,,,,,,,,,,,,,,,,,,,,,,,,,,,,,,,,,,,,,,,,,,,,,,,,,,,,,,,,,,,,,,,,,,,,,,,,,,,,,
,,6,2.3947,6,2.3947,0,92,92,38,1,155,carrot,cookie,,89606,003,2022-04-25_13h22.00.945,SPAMnetsValid,2021.1.4,MacIntel,59.99880002,,,,,,,,,,,,,,,,,,,,,,,,,,,,,,,,,,,,,,,,,,,,,,,,,,,,,,,,,,,,,,,,,,,,,,,,,,,,,,,,,,,,,,,,,
,,8,1.4885,8,1.4885,0,93,93,91,1,166,cake,yogurt,,89606,003,2022-04-25_13h22.00.945,SPAMnetsValid,2021.1.4,MacIntel,59.99880002,,,,,,,,,,,,,,,,,,,,,,,,,,,,,,,,,,,,,,,,,,,,,,,,,,,,,,,,,,,,,,,,,,,,,,,,,,,,,,,,,,,,,,,,,
,,8,1.1639,8,1.1639,0,94,94,65,1,160,cookie,kitchen,,89606,003,2022-04-25_13h22.00.945,SPAMnetsValid,2021.1.4,MacIntel,59.99880002,,,,,,,,,,,,,,,,,,,,,,,,,,,,,,,,,,,,,,,,,,,,,,,,,,,,,,,,,,,,,,,,,,,,,,,,,,,,,,,,,,,,,,,,,
,,6,1.5716,6,1.5716,0,95,95,42,1,184,oven,pretzel,,89606,003,2022-04-25_13h22.00.945,SPAMnetsValid,2021.1.4,MacIntel,59.99880002,,,,,,,,,,,,,,,,,,,,,,,,,,,,,,,,,,,,,,,,,,,,,,,,,,,,,,,,,,,,,,,,,,,,,,,,,,,,,,,,,,,,,,,,,
,,1,2.0135,1,2.0135,0,96,96,1,1,173,kitchen,tomato,,89606,003,2022-04-25_13h22.00.945,SPAMnetsValid,2021.1.4,MacIntel,59.99880002,,,,,,,,,,,,,,,,,,,,,,,,,,,,,,,,,,,,,,,,,,,,,,,,,,,,,,,,,,,,,,,,,,,,,,,,,,,,,,,,,,,,,,,,,
,,,,,,,,,,,,,,,89606,003,2022-04-25_13h22.00.945,SPAMnetsValid,2021.1.4,MacIntel,59.99880002,0,0,0,0,1,,,,,,,,,,,,,,,,,,,,,,,,,,,,,,,,,,,,,,,,,,,,,,,,,,,,,,,,,,,,,,,,,,,,,,,,,,,,,,,,,,,,
,,,,,,,,,,,,,,,89606,003,2022-04-25_13h22.00.945,SPAMnetsValid,2021.1.4,MacIntel,59.99880002,,,,,,0,0,0,1,1,0,1,,,,,,,,,,,,,,,,,,,,,,,,,,,,,,,,,,,,,,,,,,,,,,,,,,,,,,,,,,,,,,,,,,,,,,,,,,,,,
,,,,1,2.5162,,,,,,40,broom,cake,,89606,003,2022-04-25_13h22.00.945,SPAMnetsValid,2021.1.4,MacIntel,59.99880002,,,,,,,,,,,,,1,2.5162,0,0,0,32,1,,,,,,,,,,,,,,,,,,,,,,,,,,,,,,,,,,,,,,,,,,,,,,,,,,,,,,,,,,,,,,,,,,,,,,
,,,,9,1.5608,,,,,,94,kitchen,microwave,,89606,003,2022-04-25_13h22.00.945,SPAMnetsValid,2021.1.4,MacIntel,59.99880002,,,,,,,,,,,,,9,1.5608,0,1,1,58,1,,,,,,,,,,,,,,,,,,,,,,,,,,,,,,,,,,,,,,,,,,,,,,,,,,,,,,,,,,,,,,,,,,,,,,
,,,,2,1.5773,,,,,,16,chocolate,flower,,89606,003,2022-04-25_13h22.00.945,SPAMnetsValid,2021.1.4,MacIntel,59.99880002,,,,,,,,,,,,,2,1.5773,0,2,2,22,1,,,,,,,,,,,,,,,,,,,,,,,,,,,,,,,,,,,,,,,,,,,,,,,,,,,,,,,,,,,,,,,,,,,,,,
,,,,7,1.8715,,,,,,32,cake,microwave,,89606,003,2022-04-25_13h22.00.945,SPAMnetsValid,2021.1.4,MacIntel,59.99880002,,,,,,,,,,,,,7,1.8715,0,3,3,33,1,,,,,,,,,,,,,,,,,,,,,,,,,,,,,,,,,,,,,,,,,,,,,,,,,,,,,,,,,,,,,,,,,,,,,,
,,,,1,1.6378,,,,,,34,melon,oven,,89606,003,2022-04-25_13h22.00.945,SPAMnetsValid,2021.1.4,MacIntel,59.99880002,,,,,,,,,,,,,1,1.6378,0,4,4,7,1,,,,,,,,,,,,,,,,,,,,,,,,,,,,,,,,,,,,,,,,,,,,,,,,,,,,,,,,,,,,,,,,,,,,,,
,,,,9,1.5259,,,,,,93,kitchen,oven,,89606,003,2022-04-25_13h22.00.945,SPAMnetsValid,2021.1.4,MacIntel,59.99880002,,,,,,,,,,,,,9,1.5259,0,5,5,82,1,,,,,,,,,,,,,,,,,,,,,,,,,,,,,,,,,,,,,,,,,,,,,,,,,,,,,,,,,,,,,,,,,,,,,,
,,,,7,1.5564,,,,,,56,cactus,tree,,89606,003,2022-04-25_13h22.00.945,SPAMnetsValid,2021.1.4,MacIntel,59.99880002,,,,,,,,,,,,,7,1.5564,0,6,6,21,1,,,,,,,,,,,,,,,,,,,,,,,,,,,,,,,,,,,,,,,,,,,,,,,,,,,,,,,,,,,,,,,,,,,,,,
,,,,6,1.8715,,,,,,66,melon,yogurt,,89606,003,2022-04-25_13h22.00.945,SPAMnetsValid,2021.1.4,MacIntel,59.99880002,,,,,,,,,,,,,6,1.8715,0,7,7,48,1,,,,,,,,,,,,,,,,,,,,,,,,,,,,,,,,,,,,,,,,,,,,,,,,,,,,,,,,,,,,,,,,,,,,,,
,,,,1,1.4812,,,,,,53,garden,pretzel,,89606,003,2022-04-25_13h22.00.945,SPAMnetsValid,2021.1.4,MacIntel,59.99880002,,,,,,,,,,,,,1,1.4812,0,8,8,0,1,,,,,,,,,,,,,,,,,,,,,,,,,,,,,,,,,,,,,,,,,,,,,,,,,,,,,,,,,,,,,,,,,,,,,,
,,,,1,1.1305,,,,,,91,microwave,rose,,89606,003,2022-04-25_13h22.00.945,SPAMnetsValid,2021.1.4,MacIntel,59.99880002,,,,,,,,,,,,,1,1.1305,0,9,9,84,1,,,,,,,,,,,,,,,,,,,,,,,,,,,,,,,,,,,,,,,,,,,,,,,,,,,,,,,,,,,,,,,,,,,,,,
,,,,6,2.0731,,,,,,59,rose,strawberry,,89606,003,2022-04-25_13h22.00.945,SPAMnetsValid,2021.1.4,MacIntel,59.99880002,,,,,,,,,,,,,6,2.0731,0,10,10,72,1,,,,,,,,,,,,,,,,,,,,,,,,,,,,,,,,,,,,,,,,,,,,,,,,,,,,,,,,,,,,,,,,,,,,,,
,,,,3,2.0454,,,,,,30,cookie,pretzel,,89606,003,2022-04-25_13h22.00.945,SPAMnetsValid,2021.1.4,MacIntel,59.99880002,,,,,,,,,,,,,3,2.0454,0,11,11,78,1,,,,,,,,,,,,,,,,,,,,,,,,,,,,,,,,,,,,,,,,,,,,,,,,,,,,,,,,,,,,,,,,,,,,,,
,,,,8,2.1495,,,,,,22,kitchen,strawberry,,89606,003,2022-04-25_13h22.00.945,SPAMnetsValid,2021.1.4,MacIntel,59.99880002,,,,,,,,,,,,,8,2.1495,0,12,12,2,1,,,,,,,,,,,,,,,,,,,,,,,,,,,,,,,,,,,,,,,,,,,,,,,,,,,,,,,,,,,,,,,,,,,,,,
,,,,1,2.96,,,,,,55,tomato,tree,,89606,003,2022-04-25_13h22.00.945,SPAMnetsValid,2021.1.4,MacIntel,59.99880002,,,,,,,,,,,,,1,2.96,0,13,13,35,1,,,,,,,,,,,,,,,,,,,,,,,,,,,,,,,,,,,,,,,,,,,,,,,,,,,,,,,,,,,,,,,,,,,,,,
,,,,1,1.1211,,,,,,35,flower,pretzel,,89606,003,2022-04-25_13h22.00.945,SPAMnetsValid,2021.1.4,MacIntel,59.99880002,,,,,,,,,,,,,1,1.1211,0,14,14,26,1,,,,,,,,,,,,,,,,,,,,,,,,,,,,,,,,,,,,,,,,,,,,,,,,,,,,,,,,,,,,,,,,,,,,,,
,,,,1,1.1588,,,,,,74,broom,pretzel,,89606,003,2022-04-25_13h22.00.945,SPAMnetsValid,2021.1.4,MacIntel,59.99880002,,,,,,,,,,,,,1,1.1588,0,15,15,40,1,,,,,,,,,,,,,,,,,,,,,,,,,,,,,,,,,,,,,,,,,,,,,,,,,,,,,,,,,,,,,,,,,,,,,,
,,,,7,2.2218,,,,,,2,kitchen,onion,,89606,003,2022-04-25_13h22.00.945,SPAMnetsValid,2021.1.4,MacIntel,59.99880002,,,,,,,,,,,,,7,2.2218,0,16,16,91,1,,,,,,,,,,,,,,,,,,,,,,,,,,,,,,,,,,,,,,,,,,,,,,,,,,,,,,,,,,,,,,,,,,,,,,
,,,,1,2.6259,,,,,,75,cookie,onion,,89606,003,2022-04-25_13h22.00.945,SPAMnetsValid,2021.1.4,MacIntel,59.99880002,,,,,,,,,,,,,1,2.6259,0,17,17,9,1,,,,,,,,,,,,,,,,,,,,,,,,,,,,,,,,,,,,,,,,,,,,,,,,,,,,,,,,,,,,,,,,,,,,,,
,,,,1,1.1391,,,,,,71,broom,rose,,89606,003,2022-04-25_13h22.00.945,SPAMnetsValid,2021.1.4,MacIntel,59.99880002,,,,,,,,,,,,,1,1.1391,0,18,18,61,1,,,,,,,,,,,,,,,,,,,,,,,,,,,,,,,,,,,,,,,,,,,,,,,,,,,,,,,,,,,,,,,,,,,,,,
,,,,1,2.3593,,,,,,26,tomato,yogurt,,89606,003,2022-04-25_13h22.00.945,SPAMnetsValid,2021.1.4,MacIntel,59.99880002,,,,,,,,,,,,,1,2.3593,0,19,19,13,1,,,,,,,,,,,,,,,,,,,,,,,,,,,,,,,,,,,,,,,,,,,,,,,,,,,,,,,,,,,,,,,,,,,,,,
,,,,1,1.4592,,,,,,29,chocolate,melon,,89606,003,2022-04-25_13h22.00.945,SPAMnetsValid,2021.1.4,MacIntel,59.99880002,,,,,,,,,,,,,1,1.4592,0,20,20,34,1,,,,,,,,,,,,,,,,,,,,,,,,,,,,,,,,,,,,,,,,,,,,,,,,,,,,,,,,,,,,,,,,,,,,,,
,,,,1,1.0605,,,,,,73,broom,chocolate,,89606,003,2022-04-25_13h22.00.945,SPAMnetsValid,2021.1.4,MacIntel,59.99880002,,,,,,,,,,,,,1,1.0605,0,21,21,47,1,,,,,,,,,,,,,,,,,,,,,,,,,,,,,,,,,,,,,,,,,,,,,,,,,,,,,,,,,,,,,,,,,,,,,,
,,,,9,2.9145,,,,,,77,refrigerator,yogurt,,89606,003,2022-04-25_13h22.00.945,SPAMnetsValid,2021.1.4,MacIntel,59.99880002,,,,,,,,,,,,,9,2.9145,0,22,22,42,1,,,,,,,,,,,,,,,,,,,,,,,,,,,,,,,,,,,,,,,,,,,,,,,,,,,,,,,,,,,,,,,,,,,,,,
,,,,1,3.2722,,,,,,92,broom,flower,,89606,003,2022-04-25_13h22.00.945,SPAMnetsValid,2021.1.4,MacIntel,59.99880002,,,,,,,,,,,,,1,3.2722,0,23,23,88,1,,,,,,,,,,,,,,,,,,,,,,,,,,,,,,,,,,,,,,,,,,,,,,,,,,,,,,,,,,,,,,,,,,,,,,
,,,,9,2.611,,,,,,4,chocolate,pretzel,,89606,003,2022-04-25_13h22.00.945,SPAMnetsValid,2021.1.4,MacIntel,59.99880002,,,,,,,,,,,,,9,2.611,0,24,24,52,1,,,,,,,,,,,,,,,,,,,,,,,,,,,,,,,,,,,,,,,,,,,,,,,,,,,,,,,,,,,,,,,,,,,,,,
,,,,1,9.2404,,,,,,64,chocolate,garden,,89606,003,2022-04-25_13h22.00.945,SPAMnetsValid,2021.1.4,MacIntel,59.99880002,,,,,,,,,,,,,1,9.2404,0,25,25,14,1,,,,,,,,,,,,,,,,,,,,,,,,,,,,,,,,,,,,,,,,,,,,,,,,,,,,,,,,,,,,,,,,,,,,,,
,,,,7,1.4877,,,,,,54,chocolate,yogurt,,89606,003,2022-04-25_13h22.00.945,SPAMnetsValid,2021.1.4,MacIntel,59.99880002,,,,,,,,,,,,,7,1.4877,0,26,26,67,1,,,,,,,,,,,,,,,,,,,,,,,,,,,,,,,,,,,,,,,,,,,,,,,,,,,,,,,,,,,,,,,,,,,,,,
,,,,9,1.537,,,,,,52,carrot,tomato,,89606,003,2022-04-25_13h22.00.945,SPAMnetsValid,2021.1.4,MacIntel,59.99880002,,,,,,,,,,,,,9,1.537,0,27,27,95,1,,,,,,,,,,,,,,,,,,,,,,,,,,,,,,,,,,,,,,,,,,,,,,,,,,,,,,,,,,,,,,,,,,,,,,
,,,,1,1.8902,,,,,,58,garden,oven,,89606,003,2022-04-25_13h22.00.945,SPAMnetsValid,2021.1.4,MacIntel,59.99880002,,,,,,,,,,,,,1,1.8902,0,28,28,37,1,,,,,,,,,,,,,,,,,,,,,,,,,,,,,,,,,,,,,,,,,,,,,,,,,,,,,,,,,,,,,,,,,,,,,,
,,,,1,1.4485,,,,,,33,oven,yogurt,,89606,003,2022-04-25_13h22.00.945,SPAMnetsValid,2021.1.4,MacIntel,59.99880002,,,,,,,,,,,,,1,1.4485,0,29,29,31,1,,,,,,,,,,,,,,,,,,,,,,,,,,,,,,,,,,,,,,,,,,,,,,,,,,,,,,,,,,,,,,,,,,,,,,
,,,,7,1.4557,,,,,,82,cake,kitchen,,89606,003,2022-04-25_13h22.00.945,SPAMnetsValid,2021.1.4,MacIntel,59.99880002,,,,,,,,,,,,,7,1.4557,0,30,30,96,1,,,,,,,,,,,,,,,,,,,,,,,,,,,,,,,,,,,,,,,,,,,,,,,,,,,,,,,,,,,,,,,,,,,,,,
,,,,1,1.6376,,,,,,37,garden,refrigerator,,89606,003,2022-04-25_13h22.00.945,SPAMnetsValid,2021.1.4,MacIntel,59.99880002,,,,,,,,,,,,,1,1.6376,0,31,31,11,1,,,,,,,,,,,,,,,,,,,,,,,,,,,,,,,,,,,,,,,,,,,,,,,,,,,,,,,,,,,,,,,,,,,,,,
,,,,1,1.4546,,,,,,87,carrot,yogurt,,89606,003,2022-04-25_13h22.00.945,SPAMnetsValid,2021.1.4,MacIntel,59.99880002,,,,,,,,,,,,,1,1.4546,0,32,32,6,1,,,,,,,,,,,,,,,,,,,,,,,,,,,,,,,,,,,,,,,,,,,,,,,,,,,,,,,,,,,,,,,,,,,,,,
,,,,1,0.8222,,,,,,81,pretzel,yogurt,,89606,003,2022-04-25_13h22.00.945,SPAMnetsValid,2021.1.4,MacIntel,59.99880002,,,,,,,,,,,,,1,0.8222,0,33,33,50,1,,,,,,,,,,,,,,,,,,,,,,,,,,,,,,,,,,,,,,,,,,,,,,,,,,,,,,,,,,,,,,,,,,,,,,
,,,,1,0.9732,,,,,,70,chocolate,onion,,89606,003,2022-04-25_13h22.00.945,SPAMnetsValid,2021.1.4,MacIntel,59.99880002,,,,,,,,,,,,,1,0.9732,0,34,34,74,1,,,,,,,,,,,,,,,,,,,,,,,,,,,,,,,,,,,,,,,,,,,,,,,,,,,,,,,,,,,,,,,,,,,,,,
,,,,1,0.8445,,,,,,27,cactus,cookie,,89606,003,2022-04-25_13h22.00.945,SPAMnetsValid,2021.1.4,MacIntel,59.99880002,,,,,,,,,,,,,1,0.8445,0,35,35,17,1,,,,,,,,,,,,,,,,,,,,,,,,,,,,,,,,,,,,,,,,,,,,,,,,,,,,,,,,,,,,,,,,,,,,,,
,,,,1,0.8738,,,,,,65,broom,garden,,89606,003,2022-04-25_13h22.00.945,SPAMnetsValid,2021.1.4,MacIntel,59.99880002,,,,,,,,,,,,,1,0.8738,0,36,36,23,1,,,,,,,,,,,,,,,,,,,,,,,,,,,,,,,,,,,,,,,,,,,,,,,,,,,,,,,,,,,,,,,,,,,,,,
,,,,1,1.5388,,,,,,67,flower,yogurt,,89606,003,2022-04-25_13h22.00.945,SPAMnetsValid,2021.1.4,MacIntel,59.99880002,,,,,,,,,,,,,1,1.5388,0,37,37,12,1,,,,,,,,,,,,,,,,,,,,,,,,,,,,,,,,,,,,,,,,,,,,,,,,,,,,,,,,,,,,,,,,,,,,,,
,,,,1,0.9563,,,,,,60,cactus,onion,,89606,003,2022-04-25_13h22.00.945,SPAMnetsValid,2021.1.4,MacIntel,59.99880002,,,,,,,,,,,,,1,0.9563,0,38,38,81,1,,,,,,,,,,,,,,,,,,,,,,,,,,,,,,,,,,,,,,,,,,,,,,,,,,,,,,,,,,,,,,,,,,,,,,
,,,,5,2.3945,,,,,,51,onion,strawberry,,89606,003,2022-04-25_13h22.00.945,SPAMnetsValid,2021.1.4,MacIntel,59.99880002,,,,,,,,,,,,,5,2.3945,0,39,39,86,1,,,,,,,,,,,,,,,,,,,,,,,,,,,,,,,,,,,,,,,,,,,,,,,,,,,,,,,,,,,,,,,,,,,,,,
,,,,1,1.1257,,,,,,5,oven,tree,,89606,003,2022-04-25_13h22.00.945,SPAMnetsValid,2021.1.4,MacIntel,59.99880002,,,,,,,,,,,,,1,1.1257,0,40,40,70,1,,,,,,,,,,,,,,,,,,,,,,,,,,,,,,,,,,,,,,,,,,,,,,,,,,,,,,,,,,,,,,,,,,,,,,
,,,,9,1.7715,,,,,,192,microwave,microwave,CHECK,89606,003,2022-04-25_13h22.00.945,SPAMnetsValid,2021.1.4,MacIntel,59.99880002,,,,,,,,,,,,,9,1.7715,0,41,41,53,1,,,,,,,,,,,,,,,,,,,,,,,,,,,,,,,,,,,,,,,,,,,,,,,,,,,,,,,,,,,,,,,,,,,,,,
,,,,1,1.2325,,,,,,13,broom,yogurt,,89606,003,2022-04-25_13h22.00.945,SPAMnetsValid,2021.1.4,MacIntel,59.99880002,,,,,,,,,,,,,1,1.2325,0,42,42,5,1,,,,,,,,,,,,,,,,,,,,,,,,,,,,,,,,,,,,,,,,,,,,,,,,,,,,,,,,,,,,,,,,,,,,,,
,,,,1,0.9323,,,,,,80,chocolate,tree,,89606,003,2022-04-25_13h22.00.945,SPAMnetsValid,2021.1.4,MacIntel,59.99880002,,,,,,,,,,,,,1,0.9323,0,43,43,89,1,,,,,,,,,,,,,,,,,,,,,,,,,,,,,,,,,,,,,,,,,,,,,,,,,,,,,,,,,,,,,,,,,,,,,,
,,,,1,0.907,,,,,,69,carrot,refrigerator,,89606,003,2022-04-25_13h22.00.945,SPAMnetsValid,2021.1.4,MacIntel,59.99880002,,,,,,,,,,,,,1,0.907,0,44,44,75,1,,,,,,,,,,,,,,,,,,,,,,,,,,,,,,,,,,,,,,,,,,,,,,,,,,,,,,,,,,,,,,,,,,,,,,
,,,,4,2.1573,,,,,,24,cookie,tomato,,89606,003,2022-04-25_13h22.00.945,SPAMnetsValid,2021.1.4,MacIntel,59.99880002,,,,,,,,,,,,,4,2.1573,0,45,45,68,1,,,,,,,,,,,,,,,,,,,,,,,,,,,,,,,,,,,,,,,,,,,,,,,,,,,,,,,,,,,,,,,,,,,,,,
,,,,3,1.416,,,,,,28,cake,melon,,89606,003,2022-04-25_13h22.00.945,SPAMnetsValid,2021.1.4,MacIntel,59.99880002,,,,,,,,,,,,,3,1.416,0,46,46,54,1,,,,,,,,,,,,,,,,,,,,,,,,,,,,,,,,,,,,,,,,,,,,,,,,,,,,,,,,,,,,,,,,,,,,,,
,,,,1,2.5777,,,,,,41,broom,cactus,,89606,003,2022-04-25_13h22.00.945,SPAMnetsValid,2021.1.4,MacIntel,59.99880002,,,,,,,,,,,,,1,2.5777,0,47,47,46,1,,,,,,,,,,,,,,,,,,,,,,,,,,,,,,,,,,,,,,,,,,,,,,,,,,,,,,,,,,,,,,,,,,,,,,
,,,,1,1.5414,,,,,,46,garden,yogurt,,89606,003,2022-04-25_13h22.00.945,SPAMnetsValid,2021.1.4,MacIntel,59.99880002,,,,,,,,,,,,,1,1.5414,0,48,48,65,1,,,,,,,,,,,,,,,,,,,,,,,,,,,,,,,,,,,,,,,,,,,,,,,,,,,,,,,,,,,,,,,,,,,,,,
,,,,9,1.5229,,,,,,63,cake,cookie,,89606,003,2022-04-25_13h22.00.945,SPAMnetsValid,2021.1.4,MacIntel,59.99880002,,,,,,,,,,,,,9,1.5229,0,49,49,93,1,,,,,,,,,,,,,,,,,,,,,,,,,,,,,,,,,,,,,,,,,,,,,,,,,,,,,,,,,,,,,,,,,,,,,,
,,,,1,3.0783,,,,,,90,cactus,cake,,89606,003,2022-04-25_13h22.00.945,SPAMnetsValid,2021.1.4,MacIntel,59.99880002,,,,,,,,,,,,,1,3.0783,0,50,50,85,1,,,,,,,,,,,,,,,,,,,,,,,,,,,,,,,,,,,,,,,,,,,,,,,,,,,,,,,,,,,,,,,,,,,,,,
,,,,8,3.6553,,,,,,89,chocolate,rose,,89606,003,2022-04-25_13h22.00.945,SPAMnetsValid,2021.1.4,MacIntel,59.99880002,,,,,,,,,,,,,8,3.6553,0,51,51,60,1,,,,,,,,,,,,,,,,,,,,,,,,,,,,,,,,,,,,,,,,,,,,,,,,,,,,,,,,,,,,,,,,,,,,,,
,,,,8,1.6534,,,,,,78,cookie,rose,,89606,003,2022-04-25_13h22.00.945,SPAMnetsValid,2021.1.4,MacIntel,59.99880002,,,,,,,,,,,,,8,1.6534,0,52,52,56,1,,,,,,,,,,,,,,,,,,,,,,,,,,,,,,,,,,,,,,,,,,,,,,,,,,,,,,,,,,,,,,,,,,,,,,
,,,,1,1.371,,,,,,14,broom,cookie,,89606,003,2022-04-25_13h22.00.945,SPAMnetsValid,2021.1.4,MacIntel,59.99880002,,,,,,,,,,,,,1,1.371,0,53,53,16,1,,,,,,,,,,,,,,,,,,,,,,,,,,,,,,,,,,,,,,,,,,,,,,,,,,,,,,,,,,,,,,,,,,,,,,
,,,,1,0.9897,,,,,,8,broom,melon,,89606,003,2022-04-25_13h22.00.945,SPAMnetsValid,2021.1.4,MacIntel,59.99880002,,,,,,,,,,,,,1,0.9897,0,54,54,59,1,,,,,,,,,,,,,,,,,,,,,,,,,,,,,,,,,,,,,,,,,,,,,,,,,,,,,,,,,,,,,,,,,,,,,,
,,,,6,1.8051,,,,,,49,flower,strawberry,,89606,003,2022-04-25_13h22.00.945,SPAMnetsValid,2021.1.4,MacIntel,59.99880002,,,,,,,,,,,,,6,1.8051,0,55,55,3,1,,,,,,,,,,,,,,,,,,,,,,,,,,,,,,,,,,,,,,,,,,,,,,,,,,,,,,,,,,,,,,,,,,,,,,
,,,,6,1.7969,,,,,,25,carrot,onion,,89606,003,2022-04-25_13h22.00.945,SPAMnetsValid,2021.1.4,MacIntel,59.99880002,,,,,,,,,,,,,6,1.7969,0,56,56,44,1,,,,,,,,,,,,,,,,,,,,,,,,,,,,,,,,,,,,,,,,,,,,,,,,,,,,,,,,,,,,,,,,,,,,,,
,,,,1,1.8755,,,,,,19,microwave,pretzel,,89606,003,2022-04-25_13h22.00.945,SPAMnetsValid,2021.1.4,MacIntel,59.99880002,,,,,,,,,,,,,1,1.8755,0,57,57,41,1,,,,,,,,,,,,,,,,,,,,,,,,,,,,,,,,,,,,,,,,,,,,,,,,,,,,,,,,,,,,,,,,,,,,,,
,,,,1,1.6446,,,,,,43,chocolate,tomato,,89606,003,2022-04-25_13h22.00.945,SPAMnetsValid,2021.1.4,MacIntel,59.99880002,,,,,,,,,,,,,1,1.6446,0,58,58,8,1,,,,,,,,,,,,,,,,,,,,,,,,,,,,,,,,,,,,,,,,,,,,,,,,,,,,,,,,,,,,,,,,,,,,,,
,,,,8,2.4224,,,,,,62,kitchen,rose,,89606,003,2022-04-25_13h22.00.945,SPAMnetsValid,2021.1.4,MacIntel,59.99880002,,,,,,,,,,,,,8,2.4224,0,59,59,57,1,,,,,,,,,,,,,,,,,,,,,,,,,,,,,,,,,,,,,,,,,,,,,,,,,,,,,,,,,,,,,,,,,,,,,,
,,,,9,2.0548,,,,,,191,cake,cake,CHECK,89606,003,2022-04-25_13h22.00.945,SPAMnetsValid,2021.1.4,MacIntel,59.99880002,,,,,,,,,,,,,9,2.0548,0,60,60,10,1,,,,,,,,,,,,,,,,,,,,,,,,,,,,,,,,,,,,,,,,,,,,,,,,,,,,,,,,,,,,,,,,,,,,,,
,,,,1,1.5896,,,,,,7,melon,tree,,89606,003,2022-04-25_13h22.00.945,SPAMnetsValid,2021.1.4,MacIntel,59.99880002,,,,,,,,,,,,,1,1.5896,0,61,61,77,1,,,,,,,,,,,,,,,,,,,,,,,,,,,,,,,,,,,,,,,,,,,,,,,,,,,,,,,,,,,,,,,,,,,,,,
,,,,1,0.8255,,,,,,88,cactus,melon,,89606,003,2022-04-25_13h22.00.945,SPAMnetsValid,2021.1.4,MacIntel,59.99880002,,,,,,,,,,,,,1,0.8255,0,62,62,38,1,,,,,,,,,,,,,,,,,,,,,,,,,,,,,,,,,,,,,,,,,,,,,,,,,,,,,,,,,,,,,,,,,,,,,,
,,,,1,1.6055,,,,,,15,onion,oven,,89606,003,2022-04-25_13h22.00.945,SPAMnetsValid,2021.1.4,MacIntel,59.99880002,,,,,,,,,,,,,1,1.6055,0,63,63,39,1,,,,,,,,,,,,,,,,,,,,,,,,,,,,,,,,,,,,,,,,,,,,,,,,,,,,,,,,,,,,,,,,,,,,,,
,,,,1,1.2721,,,,,,31,cactus,pretzel,,89606,003,2022-04-25_13h22.00.945,SPAMnetsValid,2021.1.4,MacIntel,59.99880002,,,,,,,,,,,,,1,1.2721,0,64,64,1,1,,,,,,,,,,,,,,,,,,,,,,,,,,,,,,,,,,,,,,,,,,,,,,,,,,,,,,,,,,,,,,,,,,,,,,
,,,,7,1.7994,,,,,,12,cookie,yogurt,,89606,003,2022-04-25_13h22.00.945,SPAMnetsValid,2021.1.4,MacIntel,59.99880002,,,,,,,,,,,,,7,1.7994,0,65,65,36,1,,,,,,,,,,,,,,,,,,,,,,,,,,,,,,,,,,,,,,,,,,,,,,,,,,,,,,,,,,,,,,,,,,,,,,
,,,,1,1.512,,,,,,84,oven,tomato,,89606,003,2022-04-25_13h22.00.945,SPAMnetsValid,2021.1.4,MacIntel,59.99880002,,,,,,,,,,,,,1,1.512,0,66,66,28,1,,,,,,,,,,,,,,,,,,,,,,,,,,,,,,,,,,,,,,,,,,,,,,,,,,,,,,,,,,,,,,,,,,,,,,
,,,,1,1.3889,,,,,,1,rose,yogurt,,89606,003,2022-04-25_13h22.00.945,SPAMnetsValid,2021.1.4,MacIntel,59.99880002,,,,,,,,,,,,,1,1.3889,0,67,67,55,1,,,,,,,,,,,,,,,,,,,,,,,,,,,,,,,,,,,,,,,,,,,,,,,,,,,,,,,,,,,,,,,,,,,,,,
,,,,9,2.9427,,,,,,47,onion,tomato,,89606,003,2022-04-25_13h22.00.945,SPAMnetsValid,2021.1.4,MacIntel,59.99880002,,,,,,,,,,,,,9,2.9427,0,68,68,51,1,,,,,,,,,,,,,,,,,,,,,,,,,,,,,,,,,,,,,,,,,,,,,,,,,,,,,,,,,,,,,,,,,,,,,,
,,,,7,14.3747,,,,,,20,rose,tree,,89606,003,2022-04-25_13h22.00.945,SPAMnetsValid,2021.1.4,MacIntel,59.99880002,,,,,,,,,,,,,7,14.3747,0,69,69,66,1,,,,,,,,,,,,,,,,,,,,,,,,,,,,,,,,,,,,,,,,,,,,,,,,,,,,,,,,,,,,,,,,,,,,,,
,,,,1,1.6061,,,,,,36,broom,kitchen,,89606,003,2022-04-25_13h22.00.945,SPAMnetsValid,2021.1.4,MacIntel,59.99880002,,,,,,,,,,,,,1,1.6061,0,70,70,76,1,,,,,,,,,,,,,,,,,,,,,,,,,,,,,,,,,,,,,,,,,,,,,,,,,,,,,,,,,,,,,,,,,,,,,,
,,,,1,1.1939,,,,,,68,flower,tomato,,89606,003,2022-04-25_13h22.00.945,SPAMnetsValid,2021.1.4,MacIntel,59.99880002,,,,,,,,,,,,,1,1.1939,0,71,71,94,1,,,,,,,,,,,,,,,,,,,,,,,,,,,,,,,,,,,,,,,,,,,,,,,,,,,,,,,,,,,,,,,,,,,,,,
,,,,9,5.3083,,,,,,76,garden,rose,,89606,003,2022-04-25_13h22.00.945,SPAMnetsValid,2021.1.4,MacIntel,59.99880002,,,,,,,,,,,,,9,5.3083,0,72,72,19,1,,,,,,,,,,,,,,,,,,,,,,,,,,,,,,,,,,,,,,,,,,,,,,,,,,,,,,,,,,,,,,,,,,,,,,
,,,,1,5.7432,,,,,,6,garden,onion,,89606,003,2022-04-25_13h22.00.945,SPAMnetsValid,2021.1.4,MacIntel,59.99880002,,,,,,,,,,,,,1,5.7432,0,73,73,83,1,,,,,,,,,,,,,,,,,,,,,,,,,,,,,,,,,,,,,,,,,,,,,,,,,,,,,,,,,,,,,,,,,,,,,,
,,,,1,1.6232,,,,,,39,melon,pretzel,,89606,003,2022-04-25_13h22.00.945,SPAMnetsValid,2021.1.4,MacIntel,59.99880002,,,,,,,,,,,,,1,1.6232,0,74,74,20,1,,,,,,,,,,,,,,,,,,,,,,,,,,,,,,,,,,,,,,,,,,,,,,,,,,,,,,,,,,,,,,,,,,,,,,
,,,,1,0.8744,,,,,,95,broom,refrigerator,,89606,003,2022-04-25_13h22.00.945,SPAMnetsValid,2021.1.4,MacIntel,59.99880002,,,,,,,,,,,,,1,0.8744,0,75,75,90,1,,,,,,,,,,,,,,,,,,,,,,,,,,,,,,,,,,,,,,,,,,,,,,,,,,,,,,,,,,,,,,,,,,,,,,
,,,,1,1.1579,,,,,,48,flower,oven,,89606,003,2022-04-25_13h22.00.945,SPAMnetsValid,2021.1.4,MacIntel,59.99880002,,,,,,,,,,,,,1,1.1579,0,76,76,15,1,,,,,,,,,,,,,,,,,,,,,,,,,,,,,,,,,,,,,,,,,,,,,,,,,,,,,,,,,,,,,,,,,,,,,,
,,,,1,1.3103,,,,,,85,cake,tree,,89606,003,2022-04-25_13h22.00.945,SPAMnetsValid,2021.1.4,MacIntel,59.99880002,,,,,,,,,,,,,1,1.3103,0,77,77,18,1,,,,,,,,,,,,,,,,,,,,,,,,,,,,,,,,,,,,,,,,,,,,,,,,,,,,,,,,,,,,,,,,,,,,,,
,,,,7,1.6654,,,,,,61,strawberry,tomato,,89606,003,2022-04-25_13h22.00.945,SPAMnetsValid,2021.1.4,MacIntel,59.99880002,,,,,,,,,,,,,7,1.6654,0,78,78,80,1,,,,,,,,,,,,,,,,,,,,,,,,,,,,,,,,,,,,,,,,,,,,,,,,,,,,,,,,,,,,,,,,,,,,,,
,,,,1,1.458,,,,,,11,refrigerator,tree,,89606,003,2022-04-25_13h22.00.945,SPAMnetsValid,2021.1.4,MacIntel,59.99880002,,,,,,,,,,,,,1,1.458,0,79,79,43,1,,,,,,,,,,,,,,,,,,,,,,,,,,,,,,,,,,,,,,,,,,,,,,,,,,,,,,,,,,,,,,,,,,,,,,
,,,,1,1.0585,,,,,,72,broom,onion,,89606,003,2022-04-25_13h22.00.945,SPAMnetsValid,2021.1.4,MacIntel,59.99880002,,,,,,,,,,,,,1,1.0585,0,80,80,27,1,,,,,,,,,,,,,,,,,,,,,,,,,,,,,,,,,,,,,,,,,,,,,,,,,,,,,,,,,,,,,,,,,,,,,,
,,,,2,2.164,,,,,,38,pretzel,refrigerator,,89606,003,2022-04-25_13h22.00.945,SPAMnetsValid,2021.1.4,MacIntel,59.99880002,,,,,,,,,,,,,2,2.164,0,81,81,71,1,,,,,,,,,,,,,,,,,,,,,,,,,,,,,,,,,,,,,,,,,,,,,,,,,,,,,,,,,,,,,,,,,,,,,,
,,,,6,2.1728,,,,,,57,flower,kitchen,,89606,003,2022-04-25_13h22.00.945,SPAMnetsValid,2021.1.4,MacIntel,59.99880002,,,,,,,,,,,,,6,2.1728,0,82,82,49,1,,,,,,,,,,,,,,,,,,,,,,,,,,,,,,,,,,,,,,,,,,,,,,,,,,,,,,,,,,,,,,,,,,,,,,
,,,,2,2.7428,,,,,,18,onion,refrigerator,,89606,003,2022-04-25_13h22.00.945,SPAMnetsValid,2021.1.4,MacIntel,59.99880002,,,,,,,,,,,,,2,2.7428,0,83,83,62,1,,,,,,,,,,,,,,,,,,,,,,,,,,,,,,,,,,,,,,,,,,,,,,,,,,,,,,,,,,,,,,,,,,,,,,
,,,,1,1.8033,,,,,,42,garden,kitchen,,89606,003,2022-04-25_13h22.00.945,SPAMnetsValid,2021.1.4,MacIntel,59.99880002,,,,,,,,,,,,,1,1.8033,0,84,84,29,1,,,,,,,,,,,,,,,,,,,,,,,,,,,,,,,,,,,,,,,,,,,,,,,,,,,,,,,,,,,,,,,,,,,,,,
,,,,1,1.473,,,,,,86,oven,rose,,89606,003,2022-04-25_13h22.00.945,SPAMnetsValid,2021.1.4,MacIntel,59.99880002,,,,,,,,,,,,,1,1.473,0,85,85,79,1,,,,,,,,,,,,,,,,,,,,,,,,,,,,,,,,,,,,,,,,,,,,,,,,,,,,,,,,,,,,,,,,,,,,,,
,,,,9,1.4727,,,,,,9,kitchen,refrigerator,,89606,003,2022-04-25_13h22.00.945,SPAMnetsValid,2021.1.4,MacIntel,59.99880002,,,,,,,,,,,,,9,1.4727,0,86,86,64,1,,,,,,,,,,,,,,,,,,,,,,,,,,,,,,,,,,,,,,,,,,,,,,,,,,,,,,,,,,,,,,,,,,,,,,
,,,,6,2.1392,,,,,,79,garden,strawberry,,89606,003,2022-04-25_13h22.00.945,SPAMnetsValid,2021.1.4,MacIntel,59.99880002,,,,,,,,,,,,,6,2.1392,0,87,87,87,1,,,,,,,,,,,,,,,,,,,,,,,,,,,,,,,,,,,,,,,,,,,,,,,,,,,,,,,,,,,,,,,,,,,,,,
,,,,1,3.3055,,,,,,83,broom,carrot,,89606,003,2022-04-25_13h22.00.945,SPAMnetsValid,2021.1.4,MacIntel,59.99880002,,,,,,,,,,,,,1,3.3055,0,88,88,4,1,,,,,,,,,,,,,,,,,,,,,,,,,,,,,,,,,,,,,,,,,,,,,,,,,,,,,,,,,,,,,,,,,,,,,,
,,,,7,2.2553,,,,,,50,carrot,rose,,89606,003,2022-04-25_13h22.00.945,SPAMnetsValid,2021.1.4,MacIntel,59.99880002,,,,,,,,,,,,,7,2.2553,0,89,89,73,1,,,,,,,,,,,,,,,,,,,,,,,,,,,,,,,,,,,,,,,,,,,,,,,,,,,,,,,,,,,,,,,,,,,,,,
,,,,1,1.4552,,,,,,21,cake,onion,,89606,003,2022-04-25_13h22.00.945,SPAMnetsValid,2021.1.4,MacIntel,59.99880002,,,,,,,,,,,,,1,1.4552,0,90,90,63,1,,,,,,,,,,,,,,,,,,,,,,,,,,,,,,,,,,,,,,,,,,,,,,,,,,,,,,,,,,,,,,,,,,,,,,
,,,,1,1.092,,,,,,44,cookie,melon,,89606,003,2022-04-25_13h22.00.945,SPAMnetsValid,2021.1.4,MacIntel,59.99880002,,,,,,,,,,,,,1,1.092,0,91,91,92,1,,,,,,,,,,,,,,,,,,,,,,,,,,,,,,,,,,,,,,,,,,,,,,,,,,,,,,,,,,,,,,,,,,,,,,
,,,,1,1.6893,,,,,,17,carrot,melon,,89606,003,2022-04-25_13h22.00.945,SPAMnetsValid,2021.1.4,MacIntel,59.99880002,,,,,,,,,,,,,1,1.6893,0,92,92,24,1,,,,,,,,,,,,,,,,,,,,,,,,,,,,,,,,,,,,,,,,,,,,,,,,,,,,,,,,,,,,,,,,,,,,,,
,,,,1,1.1373,,,,,,10,flower,onion,,89606,003,2022-04-25_13h22.00.945,SPAMnetsValid,2021.1.4,MacIntel,59.99880002,,,,,,,,,,,,,1,1.1373,0,93,93,45,1,,,,,,,,,,,,,,,,,,,,,,,,,,,,,,,,,,,,,,,,,,,,,,,,,,,,,,,,,,,,,,,,,,,,,,
,,,,9,2.5781,,,,,,3,cake,oven,,89606,003,2022-04-25_13h22.00.945,SPAMnetsValid,2021.1.4,MacIntel,59.99880002,,,,,,,,,,,,,9,2.5781,0,94,94,30,1,,,,,,,,,,,,,,,,,,,,,,,,,,,,,,,,,,,,,,,,,,,,,,,,,,,,,,,,,,,,,,,,,,,,,,
,,,,1,1.3215,,,,,,45,onion,pretzel,,89606,003,2022-04-25_13h22.00.945,SPAMnetsValid,2021.1.4,MacIntel,59.99880002,,,,,,,,,,,,,1,1.3215,0,95,95,69,1,,,,,,,,,,,,,,,,,,,,,,,,,,,,,,,,,,,,,,,,,,,,,,,,,,,,,,,,,,,,,,,,,,,,,,
,,,,1,1.3604,,,,,,23,flower,microwave,,89606,003,2022-04-25_13h22.00.945,SPAMnetsValid,2021.1.4,MacIntel,59.99880002,,,,,,,,,,,,,1,1.3604,0,96,96,25,1,,,,,,,,,,,,,,,,,,,,,,,,,,,,,,,,,,,,,,,,,,,,,,,,,,,,,,,,,,,,,,,,,,,,,,
,,,,,,,,,,,,,,,89606,003,2022-04-25_13h22.00.945,SPAMnetsValid,2021.1.4,MacIntel,59.99880002,,,,,,,,,,,,,,,,,,,,0,0,0,0,1,,,,,,,,,,,,,,,,,,,,,,,,,,,,,,,,,,,,,,,,,,,,,,,,,,,,,,,,,,,,,,,,,
,,,,,,,,,,,,,,,89606,003,2022-04-25_13h22.00.945,SPAMnetsValid,2021.1.4,MacIntel,59.99880002,,,,,,0,1,1,0,1,1,0,,,,,,,,,,,,,,,,,,,,,,,,,,,,,,,,,,,,,,,,,,,,,,,,,,,,,,,,,,,,,,,,,,,,,,,,,,,,,
,,,,,,,,,,,,,,,89606,003,2022-04-25_13h22.00.945,SPAMnetsValid,2021.1.4,MacIntel,59.99880002,,,,,,,,,,,,,,,,,,,,,,,,,2,5.0971,0,0,0,0,1,rancor,forbearance,ridicule,malice,bravery,3,,,,,,,,,,,,,,,,,,,,,,,,,,,,,,,,,,,,,,,,,,,,,,,,,,,,
,,,,,,,,,,,,,,,89606,003,2022-04-25_13h22.00.945,SPAMnetsValid,2021.1.4,MacIntel,59.99880002,,,,,,,,,,,,,,,,,,,,,,,,,4,2.6214,0,1,1,1,1,raucous,empty,quiet,smooth,harsh,4,,,,,,,,,,,,,,,,,,,,,,,,,,,,,,,,,,,,,,,,,,,,,,,,,,,,
,,,,,,,,,,,,,,,89606,003,2022-04-25_13h22.00.945,SPAMnetsValid,2021.1.4,MacIntel,59.99880002,,,,,,,,,,,,,,,,,,,,,,,,,1,5.7587,0,2,2,2,1,gargoyle,oil,medicine,carved waterspout,ugly building,3,,,,,,,,,,,,,,,,,,,,,,,,,,,,,,,,,,,,,,,,,,,,,,,,,,,,
,,,,,,,,,,,,,,,89606,003,2022-04-25_13h22.00.945,SPAMnetsValid,2021.1.4,MacIntel,59.99880002,,,,,,,,,,,,,,,,,,,,,,,,,3,3.0396,0,3,3,3,1,recrudesce,purify,renew activity,lack refinement,crush,2,,,,,,,,,,,,,,,,,,,,,,,,,,,,,,,,,,,,,,,,,,,,,,,,,,,,
,,,,,,,,,,,,,,,89606,003,2022-04-25_13h22.00.945,SPAMnetsValid,2021.1.4,MacIntel,59.99880002,,,,,,,,,,,,,,,,,,,,,,,,,2,6.5651,0,4,4,4,1,specious,"plausible, but not genuine",noteworthy,class or variety,roomy,1,,,,,,,,,,,,,,,,,,,,,,,,,,,,,,,,,,,,,,,,,,,,,,,,,,,,
,,,,,,,,,,,,,,,89606,003,2022-04-25_13h22.00.945,SPAMnetsValid,2021.1.4,MacIntel,59.99880002,,,,,,,,,,,,,,,,,,,,,,,,,3,2.8005,0,5,5,5,1,bauble,bubble,showy plaything,idle talk,confusion,2,,,,,,,,,,,,,,,,,,,,,,,,,,,,,,,,,,,,,,,,,,,,,,,,,,,,
,,,,,,,,,,,,,,,89606,003,2022-04-25_13h22.00.945,SPAMnetsValid,2021.1.4,MacIntel,59.99880002,,,,,,,,,,,,,,,,,,,,,,,,,4,4.1909,0,6,6,6,1,prolific,scarce,producing abundantly,reckless,speaking profanely,2,,,,,,,,,,,,,,,,,,,,,,,,,,,,,,,,,,,,,,,,,,,,,,,,,,,,
,,,,,,,,,,,,,,,89606,003,2022-04-25_13h22.00.945,SPAMnetsValid,2021.1.4,MacIntel,59.99880002,,,,,,,,,,,,,,,,,,,,,,,,,3,2.3131,0,7,7,7,1,opulent,party,wealthy,happy frame of mind,semiprecious stone,2,,,,,,,,,,,,,,,,,,,,,,,,,,,,,,,,,,,,,,,,,,,,,,,,,,,,
,,,,,,,,,,,,,,,89606,003,2022-04-25_13h22.00.945,SPAMnetsValid,2021.1.4,MacIntel,59.99880002,,,,,,,,,,,,,,,,,,,,,,,,,3,0.8064,0,8,8,8,1,coercion,conspiracy,strategy,restraint,attraction,3,,,,,,,,,,,,,,,,,,,,,,,,,,,,,,,,,,,,,,,,,,,,,,,,,,,,
,,,,,,,,,,,,,,,89606,003,2022-04-25_13h22.00.945,SPAMnetsValid,2021.1.4,MacIntel,59.99880002,,,,,,,,,,,,,,,,,,,,,,,,,4,3.0953,0,9,9,9,1,hiatus,animal,calamity,dread,gap,4,,,,,,,,,,,,,,,,,,,,,,,,,,,,,,,,,,,,,,,,,,,,,,,,,,,,
,,,,,,,,,,,,,,,89606,003,2022-04-25_13h22.00.945,SPAMnetsValid,2021.1.4,MacIntel,59.99880002,,,,,,,,,,,,,,,,,,,,,,,,,1,0.9567,0,10,10,10,1,germane,microbe,contagious,relevant,different,3,,,,,,,,,,,,,,,,,,,,,,,,,,,,,,,,,,,,,,,,,,,,,,,,,,,,
,,,,,,,,,,,,,,,89606,003,2022-04-25_13h22.00.945,SPAMnetsValid,2021.1.4,MacIntel,59.99880002,,,,,,,,,,,,,,,,,,,,,,,,,3,0.9589,0,11,11,11,1,perfunctory,fundamental,formal,superficial,careful,3,,,,,,,,,,,,,,,,,,,,,,,,,,,,,,,,,,,,,,,,,,,,,,,,,,,,
,,,,,,,,,,,,,,,89606,003,2022-04-25_13h22.00.945,SPAMnetsValid,2021.1.4,MacIntel,59.99880002,,,,,,,,,,,,,,,,,,,,,,,,,2,0.8584,0,12,12,12,1,diverge,reveal,chant,distract the attention of,differ or turn off from,4,,,,,,,,,,,,,,,,,,,,,,,,,,,,,,,,,,,,,,,,,,,,,,,,,,,,
,,,,,,,,,,,,,,,89606,003,2022-04-25_13h22.00.945,SPAMnetsValid,2021.1.4,MacIntel,59.99880002,,,,,,,,,,,,,,,,,,,,,,,,,3,0.8751,0,13,13,13,1,evoke,take away,anger,connect,bring out,4,,,,,,,,,,,,,,,,,,,,,,,,,,,,,,,,,,,,,,,,,,,,,,,,,,,,
,,,,,,,,,,,,,,,89606,003,2022-04-25_13h22.00.945,SPAMnetsValid,2021.1.4,MacIntel,59.99880002,,,,,,,,,,,,,,,,,,,,,,,,,2,0.8088,0,14,14,14,1,pertinent,relevant,lying next to,necessary,bold,1,,,,,,,,,,,,,,,,,,,,,,,,,,,,,,,,,,,,,,,,,,,,,,,,,,,,
,,,,,,,,,,,,,,,89606,003,2022-04-25_13h22.00.945,SPAMnetsValid,2021.1.4,MacIntel,59.99880002,,,,,,,,,,,,,,,,,,,,,,,,,2,3.3557,0,15,15,15,1,holocaust,entirety,destruction,saintly,price,2,,,,,,,,,,,,,,,,,,,,,,,,,,,,,,,,,,,,,,,,,,,,,,,,,,,,
,,,,,,,,,,,,,,,89606,003,2022-04-25_13h22.00.945,SPAMnetsValid,2021.1.4,MacIntel,59.99880002,,,,,,,,,,,,,,,,,,,,,,,,,2,0.923,0,16,16,16,1,piquant,mellow,fish,pungent,cloth,3,,,,,,,,,,,,,,,,,,,,,,,,,,,,,,,,,,,,,,,,,,,,,,,,,,,,
,,,,,,,,,,,,,,,89606,003,2022-04-25_13h22.00.945,SPAMnetsValid,2021.1.4,MacIntel,59.99880002,,,,,,,,,,,,,,,,,,,,,,,,,3,0.8158,0,17,17,17,1,firmament,foundation,heavens,strong,glue,2,,,,,,,,,,,,,,,,,,,,,,,,,,,,,,,,,,,,,,,,,,,,,,,,,,,,
,,,,,,,,,,,,,,,89606,003,2022-04-25_13h22.00.945,SPAMnetsValid,2021.1.4,MacIntel,59.99880002,,,,,,,,,,,,,,,,,,,,,,,,,,,,,,,,,,,,,,5,1.4841,0,0,0,0,1,marketable,partisan,jocular,marriageable,salable,essential,4,,,,,,,,,,,,,,,,,,,,,,,,,,,,,,,,,,,,,,
,,,,,,,,,,,,,,,89606,003,2022-04-25_13h22.00.945,SPAMnetsValid,2021.1.4,MacIntel,59.99880002,,,,,,,,,,,,,,,,,,,,,,,,,,,,,,,,,,,,,,4,1.1534,0,1,1,1,1,cottontail,squirrel,poplar,boa,marshy plant,rabbit,5,,,,,,,,,,,,,,,,,,,,,,,,,,,,,,,,,,,,,,
,,,,,,,,,,,,,,,89606,003,2022-04-25_13h22.00.945,SPAMnetsValid,2021.1.4,MacIntel,59.99880002,,,,,,,,,,,,,,,,,,,,,,,,,,,,,,,,,,,,,,2,1.0281,0,2,2,2,1,boggy,afraid,false,marshy,dense,black,3,,,,,,,,,,,,,,,,,,,,,,,,,,,,,,,,,,,,,,
,,,,,,,,,,,,,,,89606,003,2022-04-25_13h22.00.945,SPAMnetsValid,2021.1.4,MacIntel,59.99880002,,,,,,,,,,,,,,,,,,,,,,,,,,,,,,,,,,,,,,2,0.9708,0,3,3,3,1,gruesomeness,blackness,falseness,vindictiveness,drunkenness,ghastliness,5,,,,,,,,,,,,,,,,,,,,,,,,,,,,,,,,,,,,,,
,,,,,,,,,,,,,,,89606,003,2022-04-25_13h22.00.945,SPAMnetsValid,2021.1.4,MacIntel,59.99880002,,,,,,,,,,,,,,,,,,,,,,,,,,,,,,,,,,,,,,3,3.1953,0,4,4,4,1,loathing,diffidence,laziness,abhorrence,cleverness,comfort,3,,,,,,,,,,,,,,,,,,,,,,,,,,,,,,,,,,,,,,
,,,,,,,,,,,,,,,89606,003,2022-04-25_13h22.00.945,SPAMnetsValid,2021.1.4,MacIntel,59.99880002,,,,,,,,,,,,,,,,,,,,,,,,,,,,,,,,,,,,,,2,2.0098,0,5,5,5,1,bantam,fowl,ridicule,cripple,vegetable,ensign,1,,,,,,,,,,,,,,,,,,,,,,,,,,,,,,,,,,,,,,
,,,,,,,,,,,,,,,89606,003,2022-04-25_13h22.00.945,SPAMnetsValid,2021.1.4,MacIntel,59.99880002,,,,,,,,,,,,,,,,,,,,,,,,,,,,,,,,,,,,,,2,1.9228,0,6,6,6,1,evoke,wake up,surrender,reconnoiter,transcend,call forth,5,,,,,,,,,,,,,,,,,,,,,,,,,,,,,,,,,,,,,,
,,,,,,,,,,,,,,,89606,003,2022-04-25_13h22.00.945,SPAMnetsValid,2021.1.4,MacIntel,59.99880002,,,,,,,,,,,,,,,,,,,,,,,,,,,,,,,,,,,,,,4,0.9391,0,7,7,7,1,unobtrusive,unintelligent,epileptic,illogical,lineal,modest,5,,,,,,,,,,,,,,,,,,,,,,,,,,,,,,,,,,,,,,
,,,,,,,,,,,,,,,89606,003,2022-04-25_13h22.00.945,SPAMnetsValid,2021.1.4,MacIntel,59.99880002,,,,,,,,,,,,,,,,,,,,,,,,,,,,,,,,,,,,,,3,0.8591,0,8,8,8,1,terrain,ice cream,final test,tractor,area of ground,weight,4,,,,,,,,,,,,,,,,,,,,,,,,,,,,,,,,,,,,,,
,,,,,,,,,,,,,,,89606,003,2022-04-25_13h22.00.945,SPAMnetsValid,2021.1.4,MacIntel,59.99880002,,,,,,,,,,,,,,,,,,,,,,,,,,,,,,,,,,,,,,2,0.9212,0,9,9,9,1,capriciousness,stubbornness,courage,whimsicality,amazement,greediness,3,,,,,,,,,,,,,,,,,,,,,,,,,,,,,,,,,,,,,,
,,,,,,,,,,,,,,,89606,003,2022-04-25_13h22.00.945,SPAMnetsValid,2021.1.4,MacIntel,59.99880002,,,,,,,,,,,,,,,,,,,,,,,,,,,,,,,,,,,,,,1,0.8918,0,10,10,10,1,maelstrom,slander,whirlpool,enmity,armor,majolica,2,,,,,,,,,,,,,,,,,,,,,,,,,,,,,,,,,,,,,,
,,,,,,,,,,,,,,,89606,003,2022-04-25_13h22.00.945,SPAMnetsValid,2021.1.4,MacIntel,59.99880002,,,,,,,,,,,,,,,,,,,,,,,,,,,,,,,,,,,,,,5,1.1406,0,11,11,11,1,tentative,critical,conclusive,authentic,provisional,apprehensive,4,,,,,,,,,,,,,,,,,,,,,,,,,,,,,,,,,,,,,,
,,,,,,,,,,,,,,,89606,003,2022-04-25_13h22.00.945,SPAMnetsValid,2021.1.4,MacIntel,59.99880002,,,,,,,,,,,,,,,,,,,,,,,,,,,,,,,,,,,,,,4,1.0614,0,12,12,12,1,placate,rehabilitate,plagiarize,depredate,apprise,conciliate,5,,,,,,,,,,,,,,,,,,,,,,,,,,,,,,,,,,,,,,
,,,,,,,,,,,,,,,89606,003,2022-04-25_13h22.00.945,SPAMnetsValid,2021.1.4,MacIntel,59.99880002,,,,,,,,,,,,,,,,,,,,,,,,,,,,,,,,,,,,,,3,0.9235,0,13,13,13,1,surcease,enlightenment,cessation,inattention,censor,substitution,2,,,,,,,,,,,,,,,,,,,,,,,,,,,,,,,,,,,,,,
,,,,,,,,,,,,,,,89606,003,2022-04-25_13h22.00.945,SPAMnetsValid,2021.1.4,MacIntel,59.99880002,,,,,,,,,,,,,,,,,,,,,,,,,,,,,,,,,,,,,,2,0.8731,0,14,14,14,1,apathetic,wandering,impassive,hateful,prophetic,overflowing,2,,,,,,,,,,,,,,,,,,,,,,,,,,,,,,,,,,,,,,
,,,,,,,,,,,,,,,89606,003,2022-04-25_13h22.00.945,SPAMnetsValid,2021.1.4,MacIntel,59.99880002,,,,,,,,,,,,,,,,,,,,,,,,,,,,,,,,,,,,,,1,0.8646,0,15,15,15,1,paternoster,paternalism,patricide,malediction,benediction,prayer,5,,,,,,,,,,,,,,,,,,,,,,,,,,,,,,,,,,,,,,
,,,,,,,,,,,,,,,89606,003,2022-04-25_13h22.00.945,SPAMnetsValid,2021.1.4,MacIntel,59.99880002,,,,,,,,,,,,,,,,,,,,,,,,,,,,,,,,,,,,,,2,0.8931,0,16,16,16,1,opalescence,opulence,senescence,bankruptcy,iridescence,assiduity,4,,,,,,,,,,,,,,,,,,,,,,,,,,,,,,,,,,,,,,
,,,,,,,,,,,,,,,89606,003,2022-04-25_13h22.00.945,SPAMnetsValid,2021.1.4,MacIntel,59.99880002,,,,,,,,,,,,,,,,,,,,,,,,,,,,,,,,,,,,,,3,1.0087,0,17,17,17,1,lush,stupid,luxurious,hazy,putrid,languishing,2,,,,,,,,,,,,,,,,,,,,,,,,,,,,,,,,,,,,,,
,,,,,,,,,,,,,,,89606,003,2022-04-25_13h22.00.945,SPAMnetsValid,2021.1.4,MacIntel,59.99880002,,,,,,,,,,,,,,,,,,,,,,,,,,,,,,,,,,,,,,4,0.9722,0,18,18,18,1,curtailment,expenditure,abandonment,abridgment,improvement,forgery,3,,,,,,,,,,,,,,,,,,,,,,,,,,,,,,,,,,,,,,
,,,,,,,,,,,,,,,89606,003,2022-04-25_13h22.00.945,SPAMnetsValid,2021.1.4,MacIntel,59.99880002,,,,,,,,,,,,,,,,,,,,,,,,,,,,,,,,,,,,,,5,0.8725,0,19,19,19,1,perversity,adversity,perviousness,travesty,waywardness,gentility,4,,,,,,,,,,,,,,,,,,,,,,,,,,,,,,,,,,,,,,
,,,,,,,,,,,,,,,89606,003,2022-04-25_13h22.00.945,SPAMnetsValid,2021.1.4,MacIntel,59.99880002,,,,,,,,,,,,,,,,,,,,,,,,,,,,,,,,,,,,,,4,0.9636,0,20,20,20,1,calumnious,complimentary,analogous,slanderous,tempestuous,magnanimous,3,,,,,,,,,,,,,,,,,,,,,,,,,,,,,,,,,,,,,,
,,,,,,,,,,,,,,,89606,003,2022-04-25_13h22.00.945,SPAMnetsValid,2021.1.4,MacIntel,59.99880002,,,,,,,,,,,,,,,,,,,,,,,,,,,,,,,,,,,,,,3,0.8148,0,21,21,21,1,illiberality,bigotry,imbecility,illegibility,cautery,immaturity,1,,,,,,,,,,,,,,,,,,,,,,,,,,,,,,,,,,,,,,
,,,,,,,,,,,,,,,89606,003,2022-04-25_13h22.00.945,SPAMnetsValid,2021.1.4,MacIntel,59.99880002,,,,,,,,,,,,,,,,,,,,,,,,,,,,,,,,,,,,,,2,0.8086,0,22,22,22,1,clabber,rejoice,gossip,curdle,crow,hobble,3,,,,,,,,,,,,,,,,,,,,,,,,,,,,,,,,,,,,,,
,,,,,,,,,,,,,,,89606,003,2022-04-25_13h22.00.945,SPAMnetsValid,2021.1.4,MacIntel,59.99880002,,,,,,,,,,,,,,,,,,,,,,,,,,,,,,,,,,,,,,1,0.8563,0,23,23,23,1,sedulousness,diligence,credulousness,seduction,perilousness,frankness,1,,,,,,,,,,,,,,,,,,,,,,,,,,,,,,,,,,,,,,
,,,,,,,,,,,,,,,89606,003,2022-04-25_13h22.00.945,SPAMnetsValid,2021.1.4,MacIntel,59.99880002,,,,,,,,,,,,,,,,,,,,,,,,,,,,,,,,,,,,,,,,,,,,,,,,,,,,pail,bucket,0,0,0,0,1,,,,,,,,,,,,,,,,,,,,,,,,,,,,,,,
,,,,,,,,,,,,,,,89606,003,2022-04-25_13h22.00.945,SPAMnetsValid,2021.1.4,MacIntel,59.99880002,,,,,,,,,,,,,,,,,,,,,,,,,,,,,,,,,,,,,,,,,,,,,,,,,,,,can,bucket,1,0,1,0,1,,,,,,,,,,,,,,,,,,,,,,,,,,,,,,,
,,,,,,,,,,,,,,,89606,003,2022-04-25_13h22.00.945,SPAMnetsValid,2021.1.4,MacIntel,59.99880002,,,,,,,,,,,,,,,,,,,,,,,,,,,,,,,,,,,,,,,,,,,,,,,,,,,,tub,bucket,2,0,2,0,1,,,,,,,,,,,,,,,,,,,,,,,,,,,,,,,
,,,,,,,,,,,,,,,89606,003,2022-04-25_13h22.00.945,SPAMnetsValid,2021.1.4,MacIntel,59.99880002,,,,,,,,,,,,,,,,,,,,,,,,,,,,,,,,,,,,,,,,,,,,,,,,,,,,pitcher,bucket,3,0,3,0,1,,,,,,,,,,,,,,,,,,,,,,,,,,,,,,,
,,,,,,,,,,,,,,,89606,003,2022-04-25_13h22.00.945,SPAMnetsValid,2021.1.4,MacIntel,59.99880002,,,,,,,,,,,,,,,,,,,,,,,,,,,,,,,,,,,,,,,,,,,,,,,,,,,,vessel,bucket,4,0,4,0,1,,,,,,,,,,,,,,,,,,,,,,,,,,,,,,,
,,,,,,,,,,,,,,,89606,003,2022-04-25_13h22.00.945,SPAMnetsValid,2021.1.4,MacIntel,59.99880002,,,,,,,,,,,,,,,,,,,,,,,,,,,,,,,,,,,,,,,,,,,,,,,,,,,,canister,bucket,5,0,5,0,1,,,,,,,,,,,,,,,,,,,,,,,,,,,,,,,
,,,,,,,,,,,,,,,89606,003,2022-04-25_13h22.00.945,SPAMnetsValid,2021.1.4,MacIntel,59.99880002,,,,,,,,,,,,,,,,,,,,,,,,,,,,,,,,,,,,,,,,,,,,,,,,,,,,cask,bucket,6,0,6,0,1,,,,,,,,,,,,,,,,,,,,,,,,,,,,,,,
,,,,,,,,,,,,,,,89606,003,2022-04-25_13h22.00.945,SPAMnetsValid,2021.1.4,MacIntel,59.99880002,,,,,,,,,,,,,,,,,,,,,,,,,,,,,,,,,,,,,,,,,,,,,,,,,,,,kettle,bucket,7,0,7,0,1,,,,,,,,,,,,,,,,,,,,,,,,,,,,,,,
,,,,,,,,,,,,,,,89606,003,2022-04-25_13h22.00.945,SPAMnetsValid,2021.1.4,MacIntel,59.99880002,,,,,,,,,,,,,,,,,,,,,,,,,,,,,,,,,,,,,,,,,,,,,,,,,,,,pot,bucket,8,0,8,0,1,,,,,,,,,,,,,,,,,,,,,,,,,,,,,,,
,,,,,,,,,,,,,,,89606,003,2022-04-25_13h22.00.945,SPAMnetsValid,2021.1.4,MacIntel,59.99880002,,,,,,,,,,,,,,,,,,,,,,,,,,,,,,,,,,,,,,,,,,,,,,,,,,,,brazier,bucket,9,0,9,0,1,,,,,,,,,,,,,,,,,,,,,,,,,,,,,,,
,,,,,,,,,,,,,,,89606,003,2022-04-25_13h22.00.945,SPAMnetsValid,2021.1.4,MacIntel,59.99880002,,,,,,,,,,,,,,,,,,,,,,,,,,,,,,,,,,,,,,,,,,,,,,,,,,,,pail,bucket,10,0,10,0,1,,,,,,,,,,,,,,,,,,,,,,,,,,,,,,,
,,,,,,,,,,,,,,,89606,003,2022-04-25_13h22.00.945,SPAMnetsValid,2021.1.4,MacIntel,59.99880002,,,,,,,,,,,,,,,,,,,,,,,,,,,,,,,,,,,,,,,,,,,,,,,,,,,,can,bucket,11,0,11,0,1,,,,,,,,,,,,,,,,,,,,,,,,,,,,,,,
,,,,,,,,,,,,,,,89606,003,2022-04-25_13h22.00.945,SPAMnetsValid,2021.1.4,MacIntel,59.99880002,,,,,,,,,,,,,,,,,,,,,,,,,,,,,,,,,,,,,,,,,,,,,,,,,,,,,bucket,12,0,12,0,1,,,,,,,,,,,,,,,,,,,,,,,,,,,,,,,
,,,,,,,,,,,,,,,89606,003,2022-04-25_13h22.00.945,SPAMnetsValid,2021.1.4,MacIntel,59.99880002,,,,,,,,,,,,,,,,,,,,,,,,,,,,,,,,,,,,,,,,,,,,,,,,,,,,,bucket,13,0,13,0,1,,,,,,,,,,,,,,,,,,,,,,,,,,,,,,,
,,,,,,,,,,,,,,,89606,003,2022-04-25_13h22.00.945,SPAMnetsValid,2021.1.4,MacIntel,59.99880002,,,,,,,,,,,,,,,,,,,,,,,,,,,,,,,,,,,,,,,,,,,,,,,,,,,,,bucket,14,0,14,0,1,,,,,,,,,,,,,,,,,,,,,,,,,,,,,,,
,,,,,,,,,,,,,,,89606,003,2022-04-25_13h22.00.945,SPAMnetsValid,2021.1.4,MacIntel,59.99880002,,,,,,,,,,,,,,,,,,,,,,,,,,,,,,,,,,,,,,,,,,,,,,,,,,,,,bucket,15,0,15,0,1,,,,,,,,,,,,,,,,,,,,,,,,,,,,,,,
,,,,,,,,,,,,,,,89606,003,2022-04-25_13h22.00.945,SPAMnetsValid,2021.1.4,MacIntel,59.99880002,,,,,,,,,,,,,,,,,,,,,,,,,,,,,,,,,,,,,,,,,,,,,,,,,,,,,bucket,16,0,16,0,1,,,,,,,,,,,,,,,,,,,,,,,,,,,,,,,
,,,,,,,,,,,,,,,89606,003,2022-04-25_13h22.00.945,SPAMnetsValid,2021.1.4,MacIntel,59.99880002,,,,,,,,,,,,,,,,,,,,,,,,,,,,,,,,,,,,,,,,,,,,,,,,,,,,,bucket,17,0,17,0,1,,,,,,,,,,,,,,,,,,,,,,,,,,,,,,,
,,,,,,,,,,,,,,,89606,003,2022-04-25_13h22.00.945,SPAMnetsValid,2021.1.4,MacIntel,59.99880002,,,,,,,,,,,,,,,,,,,,,,,,,,,,,,,,,,,,,,,,,,,,,,,,,,,,,bucket,18,0,18,0,1,,,,,,,,,,,,,,,,,,,,,,,,,,,,,,,
,,,,,,,,,,,,,,,89606,003,2022-04-25_13h22.00.945,SPAMnetsValid,2021.1.4,MacIntel,59.99880002,,,,,,,,,,,,,,,,,,,,,,,,,,,,,,,,,,,,,,,,,,,,,,,,,,,,pail,bucket,19,0,19,0,1,,,,,,,,,,,,,,,,,,,,,,,,,,,,,,,
,,,,,,,,,,,,,,,89606,003,2022-04-25_13h22.00.945,SPAMnetsValid,2021.1.4,MacIntel,59.99880002,,,,,,,,,,,,,,,,,,,,,,,,,,,,,,,,,,,,,,,,,,,,,,,,,,,,can,bucket,20,0,20,0,1,,,,,,,,,,,,,,,,,,,,,,,,,,,,,,,
,,,,,,,,,,,,,,,89606,003,2022-04-25_13h22.00.945,SPAMnetsValid,2021.1.4,MacIntel,59.99880002,,,,,,,,,,,,,,,,,,,,,,,,,,,,,,,,,,,,,,,,,,,,,,,,,,,,can,bucket,21,0,21,0,1,,,,,,,,,,,,,,,,,,,,,,,,,,,,,,,
,,,,,,,,,,,,,,,89606,003,2022-04-25_13h22.00.945,SPAMnetsValid,2021.1.4,MacIntel,59.99880002,,,,,,,,,,,,,,,,,,,,,,,,,,,,,,,,,,,,,,,,,,,,,,,,,,,,can,bucket,22,0,22,0,1,,,,,,,,,,,,,,,,,,,,,,,,,,,,,,,
,,,,,,,,,,,,,,,89606,003,2022-04-25_13h22.00.945,SPAMnetsValid,2021.1.4,MacIntel,59.99880002,,,,,,,,,,,,,,,,,,,,,,,,,,,,,,,,,,,,,,,,,,,,,,,,,,,,bucket,bucket,23,0,23,0,1,,,,,,,,,,,,,,,,,,,,,,,,,,,,,,,
,,,,,,,,,,,,,,,89606,003,2022-04-25_13h22.00.945,SPAMnetsValid,2021.1.4,MacIntel,59.99880002,,,,,,,,,,,,,,,,,,,,,,,,,,,,,,,,,,,,,,,,,,,,,,,,,,,,pail,bucket,24,0,24,0,1,,,,,,,,,,,,,,,,,,,,,,,,,,,,,,,
,,,,,,,,,,,,,,,89606,003,2022-04-25_13h22.00.945,SPAMnetsValid,2021.1.4,MacIntel,59.99880002,,,,,,,,,,,,,,,,,,,,,,,,,,,,,,,,,,,,,,,,,,,,,,,,,,,,vessel,bucket,25,0,25,0,1,,,,,,,,,,,,,,,,,,,,,,,,,,,,,,,
,,,,,,,,,,,,,,,89606,003,2022-04-25_13h22.00.945,SPAMnetsValid,2021.1.4,MacIntel,59.99880002,,,,,,,,,,,,,,,,,,,,,,,,,,,,,,,,,,,,,,,,,,,,,,,,,,,,,,,,,,,0,0,0,0,1,bucket,,,,,,,,,,,,,,,,,,,,,,,,,
,,,,,,,,,,,,,,,89606,003,2022-04-25_13h22.00.945,SPAMnetsValid,2021.1.4,MacIntel,59.99880002,,,,,,,,,,,,,,,,,,,,,,,,,,,,,,,,,,,,,,,,,,,,,,,,,,,,head rester,pillow,0,0,0,0,1,,,,,,,,,,,,,,,,,,,,,,,,,,,,,,,
,,,,,,,,,,,,,,,89606,003,2022-04-25_13h22.00.945,SPAMnetsValid,2021.1.4,MacIntel,59.99880002,,,,,,,,,,,,,,,,,,,,,,,,,,,,,,,,,,,,,,,,,,,,,,,,,,,,cushion,pillow,1,0,1,0,1,,,,,,,,,,,,,,,,,,,,,,,,,,,,,,,
,,,,,,,,,,,,,,,89606,003,2022-04-25_13h22.00.945,SPAMnetsValid,2021.1.4,MacIntel,59.99880002,,,,,,,,,,,,,,,,,,,,,,,,,,,,,,,,,,,,,,,,,,,,,,,,,,,,support,pillow,2,0,2,0,1,,,,,,,,,,,,,,,,,,,,,,,,,,,,,,,
,,,,,,,,,,,,,,,89606,003,2022-04-25_13h22.00.945,SPAMnetsValid,2021.1.4,MacIntel,59.99880002,,,,,,,,,,,,,,,,,,,,,,,,,,,,,,,,,,,,,,,,,,,,,,,,,,,,headrest,pillow,3,0,3,0,1,,,,,,,,,,,,,,,,,,,,,,,,,,,,,,,
,,,,,,,,,,,,,,,89606,003,2022-04-25_13h22.00.945,SPAMnetsValid,2021.1.4,MacIntel,59.99880002,,,,,,,,,,,,,,,,,,,,,,,,,,,,,,,,,,,,,,,,,,,,,,,,,,,,pad,pillow,4,0,4,0,1,,,,,,,,,,,,,,,,,,,,,,,,,,,,,,,
,,,,,,,,,,,,,,,89606,003,2022-04-25_13h22.00.945,SPAMnetsValid,2021.1.4,MacIntel,59.99880002,,,,,,,,,,,,,,,,,,,,,,,,,,,,,,,,,,,,,,,,,,,,,,,,,,,,bolster,pillow,5,0,5,0,1,,,,,,,,,,,,,,,,,,,,,,,,,,,,,,,
,,,,,,,,,,,,,,,89606,003,2022-04-25_13h22.00.945,SPAMnetsValid,2021.1.4,MacIntel,59.99880002,,,,,,,,,,,,,,,,,,,,,,,,,,,,,,,,,,,,,,,,,,,,,,,,,,,,cushion,pillow,6,0,6,0,1,,,,,,,,,,,,,,,,,,,,,,,,,,,,,,,
,,,,,,,,,,,,,,,89606,003,2022-04-25_13h22.00.945,SPAMnetsValid,2021.1.4,MacIntel,59.99880002,,,,,,,,,,,,,,,,,,,,,,,,,,,,,,,,,,,,,,,,,,,,,,,,,,,,,,,,,,,0,1,1,2,1,pillow,,,,,,,,,,,,,,,,,,,,,,,,,
,,,,,,,,,,,,,,,89606,003,2022-04-25_13h22.00.945,SPAMnetsValid,2021.1.4,MacIntel,59.99880002,,,,,,,,,,,,,,,,,,,,,,,,,,,,,,,,,,,,,,,,,,,,,,,,,,,,light,candle,0,0,0,0,1,,,,,,,,,,,,,,,,,,,,,,,,,,,,,,,
,,,,,,,,,,,,,,,89606,003,2022-04-25_13h22.00.945,SPAMnetsValid,2021.1.4,MacIntel,59.99880002,,,,,,,,,,,,,,,,,,,,,,,,,,,,,,,,,,,,,,,,,,,,,,,,,,,,match,candle,1,0,1,0,1,,,,,,,,,,,,,,,,,,,,,,,,,,,,,,,
,,,,,,,,,,,,,,,89606,003,2022-04-25_13h22.00.945,SPAMnetsValid,2021.1.4,MacIntel,59.99880002,,,,,,,,,,,,,,,,,,,,,,,,,,,,,,,,,,,,,,,,,,,,,,,,,,,,sconce,candle,2,0,2,0,1,,,,,,,,,,,,,,,,,,,,,,,,,,,,,,,
,,,,,,,,,,,,,,,89606,003,2022-04-25_13h22.00.945,SPAMnetsValid,2021.1.4,MacIntel,59.99880002,,,,,,,,,,,,,,,,,,,,,,,,,,,,,,,,,,,,,,,,,,,,,,,,,,,,,,,,,,,0,2,2,1,1,candle,,,,,,,,,,,,,,,,,,,,,,,,,
,,,,,,,,,,,,,,,89606,003,2022-04-25_13h22.00.945,SPAMnetsValid,2021.1.4,MacIntel,59.99880002,,,,,,,,,,,,,,,,,,,,,,,,,,,,,,,,,,,,,,,,,,,,,,,,,,,,,,,,,,,,,,,,,dogs,Animals,0,0,0,0,1,,,,,,,,,,,,,,,,,,
,,,,,,,,,,,,,,,89606,003,2022-04-25_13h22.00.945,SPAMnetsValid,2021.1.4,MacIntel,59.99880002,,,,,,,,,,,,,,,,,,,,,,,,,,,,,,,,,,,,,,,,,,,,,,,,,,,,,,,,,,,,,,,,,cats,Animals,1,0,1,0,1,,,,,,,,,,,,,,,,,,
,,,,,,,,,,,,,,,89606,003,2022-04-25_13h22.00.945,SPAMnetsValid,2021.1.4,MacIntel,59.99880002,,,,,,,,,,,,,,,,,,,,,,,,,,,,,,,,,,,,,,,,,,,,,,,,,,,,,,,,,,,,,,,,,rabbit,Animals,2,0,2,0,1,,,,,,,,,,,,,,,,,,
,,,,,,,,,,,,,,,89606,003,2022-04-25_13h22.00.945,SPAMnetsValid,2021.1.4,MacIntel,59.99880002,,,,,,,,,,,,,,,,,,,,,,,,,,,,,,,,,,,,,,,,,,,,,,,,,,,,,,,,,,,,,,,,,bunny,Animals,3,0,3,0,1,,,,,,,,,,,,,,,,,,
,,,,,,,,,,,,,,,89606,003,2022-04-25_13h22.00.945,SPAMnetsValid,2021.1.4,MacIntel,59.99880002,,,,,,,,,,,,,,,,,,,,,,,,,,,,,,,,,,,,,,,,,,,,,,,,,,,,,,,,,,,,,,,,,horse,Animals,4,0,4,0,1,,,,,,,,,,,,,,,,,,
,,,,,,,,,,,,,,,89606,003,2022-04-25_13h22.00.945,SPAMnetsValid,2021.1.4,MacIntel,59.99880002,,,,,,,,,,,,,,,,,,,,,,,,,,,,,,,,,,,,,,,,,,,,,,,,,,,,,,,,,,,,,,,,,hamster,Animals,5,0,5,0,1,,,,,,,,,,,,,,,,,,
,,,,,,,,,,,,,,,89606,003,2022-04-25_13h22.00.945,SPAMnetsValid,2021.1.4,MacIntel,59.99880002,,,,,,,,,,,,,,,,,,,,,,,,,,,,,,,,,,,,,,,,,,,,,,,,,,,,,,,,,,,,,,,,,fox,Animals,6,0,6,0,1,,,,,,,,,,,,,,,,,,
,,,,,,,,,,,,,,,89606,003,2022-04-25_13h22.00.945,SPAMnetsValid,2021.1.4,MacIntel,59.99880002,,,,,,,,,,,,,,,,,,,,,,,,,,,,,,,,,,,,,,,,,,,,,,,,,,,,,,,,,,,,,,,,,deer,Animals,7,0,7,0,1,,,,,,,,,,,,,,,,,,
,,,,,,,,,,,,,,,89606,003,2022-04-25_13h22.00.945,SPAMnetsValid,2021.1.4,MacIntel,59.99880002,,,,,,,,,,,,,,,,,,,,,,,,,,,,,,,,,,,,,,,,,,,,,,,,,,,,,,,,,,,,,,,,,,,,,,,,0,0,0,0,1,Animals,,,,,,,,,,,,
,,,,,,,,,,,,,,,89606,003,2022-04-25_13h22.00.945,SPAMnetsValid,2021.1.4,MacIntel,59.99880002,,,,,,,,,,,,,,,,,,,,,,,,,,,,,,,,,,,,,,,,,,,,,,,,,,,,,,,,,,,,,,,,,,,,,,,,,,,,,,3,5.7223,0,0,0,0,1,"I enjoy concentrating on a fantasy or daydream and exploring all its possibilities, letting it grow and develop.",0,1,,
,,,,,,,,,,,,,,,89606,003,2022-04-25_13h22.00.945,SPAMnetsValid,2021.1.4,MacIntel,59.99880002,,,,,,,,,,,,,,,,,,,,,,,,,,,,,,,,,,,,,,,,,,,,,,,,,,,,,,,,,,,,,,,,,,,,,,,,,,,,,,4,1.8795,0,1,1,1,1,I think it's interesting to learn and develop new hobbies.,0,2,,
,,,,,,,,,,,,,,,89606,003,2022-04-25_13h22.00.945,SPAMnetsValid,2021.1.4,MacIntel,59.99880002,,,,,,,,,,,,,,,,,,,,,,,,,,,,,,,,,,,,,,,,,,,,,,,,,,,,,,,,,,,,,,,,,,,,,,,,,,,,,,4,2.7754,0,2,2,2,1,I am intrigued by the patterns I find in art and nature.,0,3,,
,,,,,,,,,,,,,,,89606,003,2022-04-25_13h22.00.945,SPAMnetsValid,2021.1.4,MacIntel,59.99880002,,,,,,,,,,,,,,,,,,,,,,,,,,,,,,,,,,,,,,,,,,,,,,,,,,,,,,,,,,,,,,,,,,,,,,,,,,,,,,3,3.2772,0,3,3,3,1,I believe letting students hear controversial speakers can only confuse and mislead them.,1,4,,
,,,,,,,,,,,,,,,89606,003,2022-04-25_13h22.00.945,SPAMnetsValid,2021.1.4,MacIntel,59.99880002,,,,,,,,,,,,,,,,,,,,,,,,,,,,,,,,,,,,,,,,,,,,,,,,,,,,,,,,,,,,,,,,,,,,,,,,,,,,,,3,1.2714,0,4,4,4,1,Poetry has little or no effect on me.,1,5,,
,,,,,,,,,,,,,,,89606,003,2022-04-25_13h22.00.945,SPAMnetsValid,2021.1.4,MacIntel,59.99880002,,,,,,,,,,,,,,,,,,,,,,,,,,,,,,,,,,,,,,,,,,,,,,,,,,,,,,,,,,,,,,,,,,,,,,,,,,,,,,3,4.1755,0,5,5,5,1,I would have difficulty just letting my mind wander without control or guidance.,1,6,,
,,,,,,,,,,,,,,,89606,003,2022-04-25_13h22.00.945,SPAMnetsValid,2021.1.4,MacIntel,59.99880002,,,,,,,,,,,,,,,,,,,,,,,,,,,,,,,,,,,,,,,,,,,,,,,,,,,,,,,,,,,,,,,,,,,,,,,,,,,,,,3,2.0885,0,6,6,6,1,I seldom notice the moods or feelings that different environments produce.,1,7,,
,,,,,,,,,,,,,,,89606,003,2022-04-25_13h22.00.945,SPAMnetsValid,2021.1.4,MacIntel,59.99880002,,,,,,,,,,,,,,,,,,,,,,,,,,,,,,,,,,,,,,,,,,,,,,,,,,,,,,,,,,,,,,,,,,,,,,,,,,,,,,3,0.4223,0,7,7,7,1,I experience a wide range of emotions or feelings.,0,8,,
,,,,,,,,,,,,,,,89606,003,2022-04-25_13h22.00.945,SPAMnetsValid,2021.1.4,MacIntel,59.99880002,,,,,,,,,,,,,,,,,,,,,,,,,,,,,,,,,,,,,,,,,,,,,,,,,,,,,,,,,,,,,,,,,,,,,,,,,,,,,,3,0.4093,0,8,8,8,1,"Sometimes when I am reading poetry or looking at a work of art, I feel a chill or wave of excitement.",0,9,,
,,,,,,,,,,,,,,,89606,003,2022-04-25_13h22.00.945,SPAMnetsValid,2021.1.4,MacIntel,59.99880002,,,,,,,,,,,,,,,,,,,,,,,,,,,,,,,,,,,,,,,,,,,,,,,,,,,,,,,,,,,,,,,,,,,,,,,,,,,,,,3,0.3955,0,9,9,9,1,I have little interest in speculating on the nature of the universe or the human condition.,1,10,,
,,,,,,,,,,,,,,,89606,003,2022-04-25_13h22.00.945,SPAMnetsValid,2021.1.4,MacIntel,59.99880002,,,,,,,,,,,,,,,,,,,,,,,,,,,,,,,,,,,,,,,,,,,,,,,,,,,,,,,,,,,,,,,,,,,,,,,,,,,,,,3,0.4596,0,10,10,10,1,I have a lot of intellectual curiosity.,0,11,,
,,,,,,,,,,,,,,,89606,003,2022-04-25_13h22.00.945,SPAMnetsValid,2021.1.4,MacIntel,59.99880002,,,,,,,,,,,,,,,,,,,,,,,,,,,,,,,,,,,,,,,,,,,,,,,,,,,,,,,,,,,,,,,,,,,,,,,,,,,,,,3,0.6538,0,11,11,11,1,I often enjoy playing with theories or abstract ideas.,0,12,,
,,,,,,,,,,,,,,,89606,003,2022-04-25_13h22.00.945,SPAMnetsValid,2021.1.4,MacIntel,59.99880002,,,,,,,,,,,,,,,,,,,,,,,,,,,,,,,,,,,,,,,,,,,,,,,,,,,,,,,,,,,,,,,,,,,,,,,,,,,,,,,,,,,,,,,,return,4.4742
