key_resp_3.keys,key_resp_3.rt,slider_2.response,slider_2.rt,rjt_rating,rjt_RT,trials_24.thisRepN,trials_24.thisTrialN,trials_24.thisN,trials_24.thisIndex,trials_24.ran,rjt_order,word1,word2,attention,participant,session,date,expName,psychopyVersion,OS,frameRate,trials_4.thisRepN,trials_4.thisTrialN,trials_4.thisN,trials_4.thisIndex,trials_4.ran,trials_5.thisRepN,trials_5.thisTrialN,trials_5.thisN,trials_5.thisIndex,trials_5.ran,repOne,repTwo,slider.response,slider.rt,trials_22.thisRepN,trials_22.thisTrialN,trials_22.thisN,trials_22.thisIndex,trials_22.ran,trials_99.thisRepN,trials_99.thisTrialN,trials_99.thisN,trials_99.thisIndex,trials_99.ran,slider_extend_2.response,slider_extend_2.rt,trials_6.thisRepN,trials_6.thisTrialN,trials_6.thisN,trials_6.thisIndex,trials_6.ran,vCue2,R1,R2,R3,R4,correct,sliderVocab.response,sliderVocab.rt,trials_7.thisRepN,trials_7.thisTrialN,trials_7.thisN,trials_7.thisIndex,trials_7.ran,VocabCue,VR1,VR2,VR3,VR4,VR5,VocabCorrect,AUT_resp,AUT_label,trials.thisRepN,trials.thisTrialN,trials.thisN,trials.thisIndex,trials.ran,trials_2.thisRepN,trials_2.thisTrialN,trials_2.thisN,trials_2.thisIndex,trials_2.ran,aut_prompt,VF_response,VF_tag,trials_16.thisRepN,trials_16.thisTrialN,trials_16.thisN,trials_16.thisIndex,trials_16.ran,trials_17.thisRepN,trials_17.thisTrialN,trials_17.thisN,trials_17.thisIndex,trials_17.ran,VFcond,open_slider.response,open_slider.rt,trials_3.thisRepN,trials_3.thisTrialN,trials_3.thisN,trials_3.thisIndex,trials_3.ran,OpenQ,Rev,OPEN_ORDER,key_resp_2.keys,key_resp_2.rt
return,7.043,4,102.563,4,102.563,0,0,0,15,1,145,cactus,yogurt,,89600,001,2022-04-29_13h17.44.377,SPAMnetsValid,2021.1.4,MacIntel,58.82352941,,,,,,,,,,,,,,,,,,,,,,,,,,,,,,,,,,,,,,,,,,,,,,,,,,,,,,,,,,,,,,,,,,,,,,,,,,,,,,,,,,,,,,,,,
,,9,8.391,9,8.391,0,1,1,73,1,135,carrot,oven,,89600,001,2022-04-29_13h17.44.377,SPAMnetsValid,2021.1.4,MacIntel,58.82352941,,,,,,,,,,,,,,,,,,,,,,,,,,,,,,,,,,,,,,,,,,,,,,,,,,,,,,,,,,,,,,,,,,,,,,,,,,,,,,,,,,,,,,,,,
,,4,2.585,4,2.585,0,2,2,50,1,126,kitchen,tree,,89600,001,2022-04-29_13h17.44.377,SPAMnetsValid,2021.1.4,MacIntel,58.82352941,,,,,,,,,,,,,,,,,,,,,,,,,,,,,,,,,,,,,,,,,,,,,,,,,,,,,,,,,,,,,,,,,,,,,,,,,,,,,,,,,,,,,,,,,
,,9,3.402,9,3.402,0,3,3,61,1,138,flower,rose,,89600,001,2022-04-29_13h17.44.377,SPAMnetsValid,2021.1.4,MacIntel,58.82352941,,,,,,,,,,,,,,,,,,,,,,,,,,,,,,,,,,,,,,,,,,,,,,,,,,,,,,,,,,,,,,,,,,,,,,,,,,,,,,,,,,,,,,,,,
,,2,4.172,2,4.172,0,4,4,24,1,169,onion,yogurt,,89600,001,2022-04-29_13h17.44.377,SPAMnetsValid,2021.1.4,MacIntel,58.82352941,,,,,,,,,,,,,,,,,,,,,,,,,,,,,,,,,,,,,,,,,,,,,,,,,,,,,,,,,,,,,,,,,,,,,,,,,,,,,,,,,,,,,,,,,
,,6,3.025,6,3.025,0,5,5,92,1,170,cookie,microwave,,89600,001,2022-04-29_13h17.44.377,SPAMnetsValid,2021.1.4,MacIntel,58.82352941,,,,,,,,,,,,,,,,,,,,,,,,,,,,,,,,,,,,,,,,,,,,,,,,,,,,,,,,,,,,,,,,,,,,,,,,,,,,,,,,,,,,,,,,,
,,5,15.769,5,15.769,0,6,6,94,1,133,cake,flower,,89600,001,2022-04-29_13h17.44.377,SPAMnetsValid,2021.1.4,MacIntel,58.82352941,,,,,,,,,,,,,,,,,,,,,,,,,,,,,,,,,,,,,,,,,,,,,,,,,,,,,,,,,,,,,,,,,,,,,,,,,,,,,,,,,,,,,,,,,
,,4,5.635,4,5.635,0,7,7,49,1,152,cactus,strawberry,,89600,001,2022-04-29_13h17.44.377,SPAMnetsValid,2021.1.4,MacIntel,58.82352941,,,,,,,,,,,,,,,,,,,,,,,,,,,,,,,,,,,,,,,,,,,,,,,,,,,,,,,,,,,,,,,,,,,,,,,,,,,,,,,,,,,,,,,,,
,,9,1.607,9,1.607,0,8,8,52,1,110,chocolate,cookie,,89600,001,2022-04-29_13h17.44.377,SPAMnetsValid,2021.1.4,MacIntel,58.82352941,,,,,,,,,,,,,,,,,,,,,,,,,,,,,,,,,,,,,,,,,,,,,,,,,,,,,,,,,,,,,,,,,,,,,,,,,,,,,,,,,,,,,,,,,
,,9,1.135,9,1.135,0,9,9,27,1,158,cookie,oven,,89600,001,2022-04-29_13h17.44.377,SPAMnetsValid,2021.1.4,MacIntel,58.82352941,,,,,,,,,,,,,,,,,,,,,,,,,,,,,,,,,,,,,,,,,,,,,,,,,,,,,,,,,,,,,,,,,,,,,,,,,,,,,,,,,,,,,,,,,
,,9,1.406,9,1.406,0,10,10,69,1,124,oven,refrigerator,,89600,001,2022-04-29_13h17.44.377,SPAMnetsValid,2021.1.4,MacIntel,58.82352941,,,,,,,,,,,,,,,,,,,,,,,,,,,,,,,,,,,,,,,,,,,,,,,,,,,,,,,,,,,,,,,,,,,,,,,,,,,,,,,,,,,,,,,,,
,,4,2.302,4,2.302,0,11,11,26,1,107,rose,tomato,,89600,001,2022-04-29_13h17.44.377,SPAMnetsValid,2021.1.4,MacIntel,58.82352941,,,,,,,,,,,,,,,,,,,,,,,,,,,,,,,,,,,,,,,,,,,,,,,,,,,,,,,,,,,,,,,,,,,,,,,,,,,,,,,,,,,,,,,,,
,,9,1.693,9,1.693,0,12,12,86,1,193,melon,melon,CHECK,89600,001,2022-04-29_13h17.44.377,SPAMnetsValid,2021.1.4,MacIntel,58.82352941,,,,,,,,,,,,,,,,,,,,,,,,,,,,,,,,,,,,,,,,,,,,,,,,,,,,,,,,,,,,,,,,,,,,,,,,,,,,,,,,,,,,,,,,,
,,2,1.791,2,1.791,0,13,13,82,1,98,pretzel,strawberry,,89600,001,2022-04-29_13h17.44.377,SPAMnetsValid,2021.1.4,MacIntel,58.82352941,,,,,,,,,,,,,,,,,,,,,,,,,,,,,,,,,,,,,,,,,,,,,,,,,,,,,,,,,,,,,,,,,,,,,,,,,,,,,,,,,,,,,,,,,
,,8,1.573,8,1.573,0,14,14,17,1,99,garden,melon,,89600,001,2022-04-29_13h17.44.377,SPAMnetsValid,2021.1.4,MacIntel,58.82352941,,,,,,,,,,,,,,,,,,,,,,,,,,,,,,,,,,,,,,,,,,,,,,,,,,,,,,,,,,,,,,,,,,,,,,,,,,,,,,,,,,,,,,,,,
,,2,2.255,2,2.255,0,15,15,67,1,96,oven,strawberry,,89600,001,2022-04-29_13h17.44.377,SPAMnetsValid,2021.1.4,MacIntel,58.82352941,,,,,,,,,,,,,,,,,,,,,,,,,,,,,,,,,,,,,,,,,,,,,,,,,,,,,,,,,,,,,,,,,,,,,,,,,,,,,,,,,,,,,,,,,
,,3,2.603,3,2.603,0,16,16,55,1,143,pretzel,rose,,89600,001,2022-04-29_13h17.44.377,SPAMnetsValid,2021.1.4,MacIntel,58.82352941,,,,,,,,,,,,,,,,,,,,,,,,,,,,,,,,,,,,,,,,,,,,,,,,,,,,,,,,,,,,,,,,,,,,,,,,,,,,,,,,,,,,,,,,,
,,9,3.722,9,3.722,0,17,17,93,1,134,carrot,flower,,89600,001,2022-04-29_13h17.44.377,SPAMnetsValid,2021.1.4,MacIntel,58.82352941,,,,,,,,,,,,,,,,,,,,,,,,,,,,,,,,,,,,,,,,,,,,,,,,,,,,,,,,,,,,,,,,,,,,,,,,,,,,,,,,,,,,,,,,,
,,6,2.835,6,2.835,0,18,18,35,1,147,cake,refrigerator,,89600,001,2022-04-29_13h17.44.377,SPAMnetsValid,2021.1.4,MacIntel,58.82352941,,,,,,,,,,,,,,,,,,,,,,,,,,,,,,,,,,,,,,,,,,,,,,,,,,,,,,,,,,,,,,,,,,,,,,,,,,,,,,,,,,,,,,,,,
,,4,2.385,4,2.385,0,19,19,88,1,171,cake,tomato,,89600,001,2022-04-29_13h17.44.377,SPAMnetsValid,2021.1.4,MacIntel,58.82352941,,,,,,,,,,,,,,,,,,,,,,,,,,,,,,,,,,,,,,,,,,,,,,,,,,,,,,,,,,,,,,,,,,,,,,,,,,,,,,,,,,,,,,,,,
,,9,78.338,9,78.338,0,20,20,37,1,139,carrot,strawberry,,89600,001,2022-04-29_13h17.44.377,SPAMnetsValid,2021.1.4,MacIntel,58.82352941,,,,,,,,,,,,,,,,,,,,,,,,,,,,,,,,,,,,,,,,,,,,,,,,,,,,,,,,,,,,,,,,,,,,,,,,,,,,,,,,,,,,,,,,,
,,5,130.024,5,130.024,0,21,21,11,1,117,melon,strawberry,,89600,001,2022-04-29_13h17.44.377,SPAMnetsValid,2021.1.4,MacIntel,58.82352941,,,,,,,,,,,,,,,,,,,,,,,,,,,,,,,,,,,,,,,,,,,,,,,,,,,,,,,,,,,,,,,,,,,,,,,,,,,,,,,,,,,,,,,,,
,,2,3.768,2,3.768,0,22,22,16,1,111,carrot,microwave,,89600,001,2022-04-29_13h17.44.377,SPAMnetsValid,2021.1.4,MacIntel,58.82352941,,,,,,,,,,,,,,,,,,,,,,,,,,,,,,,,,,,,,,,,,,,,,,,,,,,,,,,,,,,,,,,,,,,,,,,,,,,,,,,,,,,,,,,,,
,,3,2.486,3,2.486,0,23,23,46,1,123,cookie,tree,,89600,001,2022-04-29_13h17.44.377,SPAMnetsValid,2021.1.4,MacIntel,58.82352941,,,,,,,,,,,,,,,,,,,,,,,,,,,,,,,,,,,,,,,,,,,,,,,,,,,,,,,,,,,,,,,,,,,,,,,,,,,,,,,,,,,,,,,,,
,,8,1.604,8,1.604,0,24,24,60,1,122,flower,garden,,89600,001,2022-04-29_13h17.44.377,SPAMnetsValid,2021.1.4,MacIntel,58.82352941,,,,,,,,,,,,,,,,,,,,,,,,,,,,,,,,,,,,,,,,,,,,,,,,,,,,,,,,,,,,,,,,,,,,,,,,,,,,,,,,,,,,,,,,,
,,6,69.99,6,69.99,0,25,25,53,1,177,chocolate,strawberry,,89600,001,2022-04-29_13h17.44.377,SPAMnetsValid,2021.1.4,MacIntel,58.82352941,,,,,,,,,,,,,,,,,,,,,,,,,,,,,,,,,,,,,,,,,,,,,,,,,,,,,,,,,,,,,,,,,,,,,,,,,,,,,,,,,,,,,,,,,
,,2,1.455,2,1.455,0,26,26,68,1,180,tree,yogurt,,89600,001,2022-04-29_13h17.44.377,SPAMnetsValid,2021.1.4,MacIntel,58.82352941,,,,,,,,,,,,,,,,,,,,,,,,,,,,,,,,,,,,,,,,,,,,,,,,,,,,,,,,,,,,,,,,,,,,,,,,,,,,,,,,,,,,,,,,,
,,9,1.269,9,1.269,0,27,27,22,1,142,garden,tree,,89600,001,2022-04-29_13h17.44.377,SPAMnetsValid,2021.1.4,MacIntel,58.82352941,,,,,,,,,,,,,,,,,,,,,,,,,,,,,,,,,,,,,,,,,,,,,,,,,,,,,,,,,,,,,,,,,,,,,,,,,,,,,,,,,,,,,,,,,
,,2,1.24,2,1.24,0,28,28,95,1,121,broom,microwave,,89600,001,2022-04-29_13h17.44.377,SPAMnetsValid,2021.1.4,MacIntel,58.82352941,,,,,,,,,,,,,,,,,,,,,,,,,,,,,,,,,,,,,,,,,,,,,,,,,,,,,,,,,,,,,,,,,,,,,,,,,,,,,,,,,,,,,,,,,
,,2,1.706,2,1.706,0,29,29,54,1,101,cactus,kitchen,,89600,001,2022-04-29_13h17.44.377,SPAMnetsValid,2021.1.4,MacIntel,58.82352941,,,,,,,,,,,,,,,,,,,,,,,,,,,,,,,,,,,,,,,,,,,,,,,,,,,,,,,,,,,,,,,,,,,,,,,,,,,,,,,,,,,,,,,,,
,,2,0.939,2,0.939,0,30,30,62,1,189,onion,tree,,89600,001,2022-04-29_13h17.44.377,SPAMnetsValid,2021.1.4,MacIntel,58.82352941,,,,,,,,,,,,,,,,,,,,,,,,,,,,,,,,,,,,,,,,,,,,,,,,,,,,,,,,,,,,,,,,,,,,,,,,,,,,,,,,,,,,,,,,,
,,2,0.725,2,0.725,0,31,31,90,1,190,microwave,strawberry,,89600,001,2022-04-29_13h17.44.377,SPAMnetsValid,2021.1.4,MacIntel,58.82352941,,,,,,,,,,,,,,,,,,,,,,,,,,,,,,,,,,,,,,,,,,,,,,,,,,,,,,,,,,,,,,,,,,,,,,,,,,,,,,,,,,,,,,,,,
,,7,2.09,7,2.09,0,32,32,48,1,186,kitchen,yogurt,,89600,001,2022-04-29_13h17.44.377,SPAMnetsValid,2021.1.4,MacIntel,58.82352941,,,,,,,,,,,,,,,,,,,,,,,,,,,,,,,,,,,,,,,,,,,,,,,,,,,,,,,,,,,,,,,,,,,,,,,,,,,,,,,,,,,,,,,,,
,,9,1.103,9,1.103,0,33,33,23,1,148,flower,melon,,89600,001,2022-04-29_13h17.44.377,SPAMnetsValid,2021.1.4,MacIntel,58.82352941,,,,,,,,,,,,,,,,,,,,,,,,,,,,,,,,,,,,,,,,,,,,,,,,,,,,,,,,,,,,,,,,,,,,,,,,,,,,,,,,,,,,,,,,,
,,6,1.025,6,1.025,0,34,34,71,1,187,cactus,microwave,,89600,001,2022-04-29_13h17.44.377,SPAMnetsValid,2021.1.4,MacIntel,58.82352941,,,,,,,,,,,,,,,,,,,,,,,,,,,,,,,,,,,,,,,,,,,,,,,,,,,,,,,,,,,,,,,,,,,,,,,,,,,,,,,,,,,,,,,,,
,,9,2.037,9,2.037,0,35,35,39,1,112,cake,carrot,,89600,001,2022-04-29_13h17.44.377,SPAMnetsValid,2021.1.4,MacIntel,58.82352941,,,,,,,,,,,,,,,,,,,,,,,,,,,,,,,,,,,,,,,,,,,,,,,,,,,,,,,,,,,,,,,,,,,,,,,,,,,,,,,,,,,,,,,,,
,,2,1.488,2,1.488,0,36,36,4,1,109,broom,strawberry,,89600,001,2022-04-29_13h17.44.377,SPAMnetsValid,2021.1.4,MacIntel,58.82352941,,,,,,,,,,,,,,,,,,,,,,,,,,,,,,,,,,,,,,,,,,,,,,,,,,,,,,,,,,,,,,,,,,,,,,,,,,,,,,,,,,,,,,,,,
,,1,2.002,1,2.002,0,37,37,12,1,162,microwave,tomato,,89600,001,2022-04-29_13h17.44.377,SPAMnetsValid,2021.1.4,MacIntel,58.82352941,,,,,,,,,,,,,,,,,,,,,,,,,,,,,,,,,,,,,,,,,,,,,,,,,,,,,,,,,,,,,,,,,,,,,,,,,,,,,,,,,,,,,,,,,
,,6,2.243,6,2.243,0,38,38,42,1,184,oven,pretzel,,89600,001,2022-04-29_13h17.44.377,SPAMnetsValid,2021.1.4,MacIntel,58.82352941,,,,,,,,,,,,,,,,,,,,,,,,,,,,,,,,,,,,,,,,,,,,,,,,,,,,,,,,,,,,,,,,,,,,,,,,,,,,,,,,,,,,,,,,,
,,6,1.935,6,1.935,0,39,39,31,1,156,melon,rose,,89600,001,2022-04-29_13h17.44.377,SPAMnetsValid,2021.1.4,MacIntel,58.82352941,,,,,,,,,,,,,,,,,,,,,,,,,,,,,,,,,,,,,,,,,,,,,,,,,,,,,,,,,,,,,,,,,,,,,,,,,,,,,,,,,,,,,,,,,
,,3,4.636,3,4.636,0,40,40,91,1,166,cake,yogurt,,89600,001,2022-04-29_13h17.44.377,SPAMnetsValid,2021.1.4,MacIntel,58.82352941,,,,,,,,,,,,,,,,,,,,,,,,,,,,,,,,,,,,,,,,,,,,,,,,,,,,,,,,,,,,,,,,,,,,,,,,,,,,,,,,,,,,,,,,,
,,1,1.574,1,1.574,0,41,41,59,1,164,cookie,garden,,89600,001,2022-04-29_13h17.44.377,SPAMnetsValid,2021.1.4,MacIntel,58.82352941,,,,,,,,,,,,,,,,,,,,,,,,,,,,,,,,,,,,,,,,,,,,,,,,,,,,,,,,,,,,,,,,,,,,,,,,,,,,,,,,,,,,,,,,,
,,2,28.002,2,28.002,0,42,42,32,1,182,flower,refrigerator,,89600,001,2022-04-29_13h17.44.377,SPAMnetsValid,2021.1.4,MacIntel,58.82352941,,,,,,,,,,,,,,,,,,,,,,,,,,,,,,,,,,,,,,,,,,,,,,,,,,,,,,,,,,,,,,,,,,,,,,,,,,,,,,,,,,,,,,,,,
,,2,1.152,2,1.152,0,43,43,65,1,160,cookie,kitchen,,89600,001,2022-04-29_13h17.44.377,SPAMnetsValid,2021.1.4,MacIntel,58.82352941,,,,,,,,,,,,,,,,,,,,,,,,,,,,,,,,,,,,,,,,,,,,,,,,,,,,,,,,,,,,,,,,,,,,,,,,,,,,,,,,,,,,,,,,,
,,9,1.661,9,1.661,0,44,44,44,1,116,cake,chocolate,,89600,001,2022-04-29_13h17.44.377,SPAMnetsValid,2021.1.4,MacIntel,58.82352941,,,,,,,,,,,,,,,,,,,,,,,,,,,,,,,,,,,,,,,,,,,,,,,,,,,,,,,,,,,,,,,,,,,,,,,,,,,,,,,,,,,,,,,,,
,,9,1.158,9,1.158,0,45,45,38,1,155,carrot,cookie,,89600,001,2022-04-29_13h17.44.377,SPAMnetsValid,2021.1.4,MacIntel,58.82352941,,,,,,,,,,,,,,,,,,,,,,,,,,,,,,,,,,,,,,,,,,,,,,,,,,,,,,,,,,,,,,,,,,,,,,,,,,,,,,,,,,,,,,,,,
,,9,1.304,9,1.304,0,46,46,83,1,100,garden,tomato,,89600,001,2022-04-29_13h17.44.377,SPAMnetsValid,2021.1.4,MacIntel,58.82352941,,,,,,,,,,,,,,,,,,,,,,,,,,,,,,,,,,,,,,,,,,,,,,,,,,,,,,,,,,,,,,,,,,,,,,,,,,,,,,,,,,,,,,,,,
,,3,1.44,3,1.44,0,47,47,30,1,125,carrot,tree,,89600,001,2022-04-29_13h17.44.377,SPAMnetsValid,2021.1.4,MacIntel,58.82352941,,,,,,,,,,,,,,,,,,,,,,,,,,,,,,,,,,,,,,,,,,,,,,,,,,,,,,,,,,,,,,,,,,,,,,,,,,,,,,,,,,,,,,,,,
,,5,2.473,5,2.473,0,48,48,10,1,118,chocolate,oven,,89600,001,2022-04-29_13h17.44.377,SPAMnetsValid,2021.1.4,MacIntel,58.82352941,,,,,,,,,,,,,,,,,,,,,,,,,,,,,,,,,,,,,,,,,,,,,,,,,,,,,,,,,,,,,,,,,,,,,,,,,,,,,,,,,,,,,,,,,
,,5,0.906,5,0.906,0,49,49,84,1,130,microwave,yogurt,,89600,001,2022-04-29_13h17.44.377,SPAMnetsValid,2021.1.4,MacIntel,58.82352941,,,,,,,,,,,,,,,,,,,,,,,,,,,,,,,,,,,,,,,,,,,,,,,,,,,,,,,,,,,,,,,,,,,,,,,,,,,,,,,,,,,,,,,,,
,,5,0.012,5,0.012,0,50,50,0,1,106,cake,strawberry,,89600,001,2022-04-29_13h17.44.377,SPAMnetsValid,2021.1.4,MacIntel,58.82352941,,,,,,,,,,,,,,,,,,,,,,,,,,,,,,,,,,,,,,,,,,,,,,,,,,,,,,,,,,,,,,,,,,,,,,,,,,,,,,,,,,,,,,,,,
,,5,0.036,5,0.036,0,51,51,81,1,104,garden,microwave,,89600,001,2022-04-29_13h17.44.377,SPAMnetsValid,2021.1.4,MacIntel,58.82352941,,,,,,,,,,,,,,,,,,,,,,,,,,,,,,,,,,,,,,,,,,,,,,,,,,,,,,,,,,,,,,,,,,,,,,,,,,,,,,,,,,,,,,,,,
,,5,0.185,5,0.185,0,52,52,41,1,175,melon,onion,,89600,001,2022-04-29_13h17.44.377,SPAMnetsValid,2021.1.4,MacIntel,58.82352941,,,,,,,,,,,,,,,,,,,,,,,,,,,,,,,,,,,,,,,,,,,,,,,,,,,,,,,,,,,,,,,,,,,,,,,,,,,,,,,,,,,,,,,,,
,,5,0.118,5,0.118,0,53,53,2,1,174,cake,pretzel,,89600,001,2022-04-29_13h17.44.377,SPAMnetsValid,2021.1.4,MacIntel,58.82352941,,,,,,,,,,,,,,,,,,,,,,,,,,,,,,,,,,,,,,,,,,,,,,,,,,,,,,,,,,,,,,,,,,,,,,,,,,,,,,,,,,,,,,,,,
,,5,0.085,5,0.085,0,54,54,85,1,115,refrigerator,tomato,,89600,001,2022-04-29_13h17.44.377,SPAMnetsValid,2021.1.4,MacIntel,58.82352941,,,,,,,,,,,,,,,,,,,,,,,,,,,,,,,,,,,,,,,,,,,,,,,,,,,,,,,,,,,,,,,,,,,,,,,,,,,,,,,,,,,,,,,,,
,,3,1.472,3,1.472,0,55,55,75,1,178,cactus,carrot,,89600,001,2022-04-29_13h17.44.377,SPAMnetsValid,2021.1.4,MacIntel,58.82352941,,,,,,,,,,,,,,,,,,,,,,,,,,,,,,,,,,,,,,,,,,,,,,,,,,,,,,,,,,,,,,,,,,,,,,,,,,,,,,,,,,,,,,,,,
,,7,1.746,7,1.746,0,56,56,28,1,154,strawberry,yogurt,,89600,001,2022-04-29_13h17.44.377,SPAMnetsValid,2021.1.4,MacIntel,58.82352941,,,,,,,,,,,,,,,,,,,,,,,,,,,,,,,,,,,,,,,,,,,,,,,,,,,,,,,,,,,,,,,,,,,,,,,,,,,,,,,,,,,,,,,,,
,,2,1.641,2,1.641,0,57,57,6,1,151,microwave,onion,,89600,001,2022-04-29_13h17.44.377,SPAMnetsValid,2021.1.4,MacIntel,58.82352941,,,,,,,,,,,,,,,,,,,,,,,,,,,,,,,,,,,,,,,,,,,,,,,,,,,,,,,,,,,,,,,,,,,,,,,,,,,,,,,,,,,,,,,,,
,,2,5.82,2,5.82,0,58,58,3,1,129,cactus,refrigerator,,89600,001,2022-04-29_13h17.44.377,SPAMnetsValid,2021.1.4,MacIntel,58.82352941,,,,,,,,,,,,,,,,,,,,,,,,,,,,,,,,,,,,,,,,,,,,,,,,,,,,,,,,,,,,,,,,,,,,,,,,,,,,,,,,,,,,,,,,,
,,2,0.754,2,0.754,0,59,59,58,1,144,cake,garden,,89600,001,2022-04-29_13h17.44.377,SPAMnetsValid,2021.1.4,MacIntel,58.82352941,,,,,,,,,,,,,,,,,,,,,,,,,,,,,,,,,,,,,,,,,,,,,,,,,,,,,,,,,,,,,,,,,,,,,,,,,,,,,,,,,,,,,,,,,
,,2,1.851,2,1.851,0,60,60,9,1,176,cactus,tomato,,89600,001,2022-04-29_13h17.44.377,SPAMnetsValid,2021.1.4,MacIntel,58.82352941,,,,,,,,,,,,,,,,,,,,,,,,,,,,,,,,,,,,,,,,,,,,,,,,,,,,,,,,,,,,,,,,,,,,,,,,,,,,,,,,,,,,,,,,,
,,2,0.637,2,0.637,0,61,61,79,1,103,pretzel,tomato,,89600,001,2022-04-29_13h17.44.377,SPAMnetsValid,2021.1.4,MacIntel,58.82352941,,,,,,,,,,,,,,,,,,,,,,,,,,,,,,,,,,,,,,,,,,,,,,,,,,,,,,,,,,,,,,,,,,,,,,,,,,,,,,,,,,,,,,,,,
,,2,0.702,2,0.702,0,62,62,96,1,136,chocolate,microwave,,89600,001,2022-04-29_13h17.44.377,SPAMnetsValid,2021.1.4,MacIntel,58.82352941,,,,,,,,,,,,,,,,,,,,,,,,,,,,,,,,,,,,,,,,,,,,,,,,,,,,,,,,,,,,,,,,,,,,,,,,,,,,,,,,,,,,,,,,,
,,2,1.752,2,1.752,0,63,63,13,1,105,cactus,oven,,89600,001,2022-04-29_13h17.44.377,SPAMnetsValid,2021.1.4,MacIntel,58.82352941,,,,,,,,,,,,,,,,,,,,,,,,,,,,,,,,,,,,,,,,,,,,,,,,,,,,,,,,,,,,,,,,,,,,,,,,,,,,,,,,,,,,,,,,,
,,2,0.724,2,0.724,0,64,64,20,1,149,broom,tomato,,89600,001,2022-04-29_13h17.44.377,SPAMnetsValid,2021.1.4,MacIntel,58.82352941,,,,,,,,,,,,,,,,,,,,,,,,,,,,,,,,,,,,,,,,,,,,,,,,,,,,,,,,,,,,,,,,,,,,,,,,,,,,,,,,,,,,,,,,,
,,2,0.519,2,0.519,0,65,65,5,1,108,carrot,chocolate,,89600,001,2022-04-29_13h17.44.377,SPAMnetsValid,2021.1.4,MacIntel,58.82352941,,,,,,,,,,,,,,,,,,,,,,,,,,,,,,,,,,,,,,,,,,,,,,,,,,,,,,,,,,,,,,,,,,,,,,,,,,,,,,,,,,,,,,,,,
,,2,0.535,2,0.535,0,66,66,34,1,153,carrot,pretzel,,89600,001,2022-04-29_13h17.44.377,SPAMnetsValid,2021.1.4,MacIntel,58.82352941,,,,,,,,,,,,,,,,,,,,,,,,,,,,,,,,,,,,,,,,,,,,,,,,,,,,,,,,,,,,,,,,,,,,,,,,,,,,,,,,,,,,,,,,,
,,2,0.502,2,0.502,0,67,67,21,1,159,cookie,flower,,89600,001,2022-04-29_13h17.44.377,SPAMnetsValid,2021.1.4,MacIntel,58.82352941,,,,,,,,,,,,,,,,,,,,,,,,,,,,,,,,,,,,,,,,,,,,,,,,,,,,,,,,,,,,,,,,,,,,,,,,,,,,,,,,,,,,,,,,,
,,2,0.737,2,0.737,0,68,68,14,1,120,microwave,oven,,89600,001,2022-04-29_13h17.44.377,SPAMnetsValid,2021.1.4,MacIntel,58.82352941,,,,,,,,,,,,,,,,,,,,,,,,,,,,,,,,,,,,,,,,,,,,,,,,,,,,,,,,,,,,,,,,,,,,,,,,,,,,,,,,,,,,,,,,,
,,1,0.722,1,0.722,0,69,69,36,1,161,kitchen,pretzel,,89600,001,2022-04-29_13h17.44.377,SPAMnetsValid,2021.1.4,MacIntel,58.82352941,,,,,,,,,,,,,,,,,,,,,,,,,,,,,,,,,,,,,,,,,,,,,,,,,,,,,,,,,,,,,,,,,,,,,,,,,,,,,,,,,,,,,,,,,
,,1,1.473,1,1.473,0,70,70,63,1,137,microwave,tree,,89600,001,2022-04-29_13h17.44.377,SPAMnetsValid,2021.1.4,MacIntel,58.82352941,,,,,,,,,,,,,,,,,,,,,,,,,,,,,,,,,,,,,,,,,,,,,,,,,,,,,,,,,,,,,,,,,,,,,,,,,,,,,,,,,,,,,,,,,
,,3,1.652,3,1.652,0,71,71,1,1,173,kitchen,tomato,,89600,001,2022-04-29_13h17.44.377,SPAMnetsValid,2021.1.4,MacIntel,58.82352941,,,,,,,,,,,,,,,,,,,,,,,,,,,,,,,,,,,,,,,,,,,,,,,,,,,,,,,,,,,,,,,,,,,,,,,,,,,,,,,,,,,,,,,,,
,,1,1.44,1,1.44,0,72,72,18,1,119,strawberry,tree,,89600,001,2022-04-29_13h17.44.377,SPAMnetsValid,2021.1.4,MacIntel,58.82352941,,,,,,,,,,,,,,,,,,,,,,,,,,,,,,,,,,,,,,,,,,,,,,,,,,,,,,,,,,,,,,,,,,,,,,,,,,,,,,,,,,,,,,,,,
,,1,1.037,1,1.037,0,73,73,78,1,132,broom,tree,,89600,001,2022-04-29_13h17.44.377,SPAMnetsValid,2021.1.4,MacIntel,58.82352941,,,,,,,,,,,,,,,,,,,,,,,,,,,,,,,,,,,,,,,,,,,,,,,,,,,,,,,,,,,,,,,,,,,,,,,,,,,,,,,,,,,,,,,,,
,,1,1.252,1,1.252,0,74,74,80,1,146,pretzel,tree,,89600,001,2022-04-29_13h17.44.377,SPAMnetsValid,2021.1.4,MacIntel,58.82352941,,,,,,,,,,,,,,,,,,,,,,,,,,,,,,,,,,,,,,,,,,,,,,,,,,,,,,,,,,,,,,,,,,,,,,,,,,,,,,,,,,,,,,,,,
,,7,1.539,7,1.539,0,75,75,76,1,102,chocolate,refrigerator,,89600,001,2022-04-29_13h17.44.377,SPAMnetsValid,2021.1.4,MacIntel,58.82352941,,,,,,,,,,,,,,,,,,,,,,,,,,,,,,,,,,,,,,,,,,,,,,,,,,,,,,,,,,,,,,,,,,,,,,,,,,,,,,,,,,,,,,,,,
,,9,1.372,9,1.372,0,76,76,25,1,194,cactus,cactus,CHECK,89600,001,2022-04-29_13h17.44.377,SPAMnetsValid,2021.1.4,MacIntel,58.82352941,,,,,,,,,,,,,,,,,,,,,,,,,,,,,,,,,,,,,,,,,,,,,,,,,,,,,,,,,,,,,,,,,,,,,,,,,,,,,,,,,,,,,,,,,
,,9,0.935,9,0.935,0,77,77,51,1,168,cactus,flower,,89600,001,2022-04-29_13h17.44.377,SPAMnetsValid,2021.1.4,MacIntel,58.82352941,,,,,,,,,,,,,,,,,,,,,,,,,,,,,,,,,,,,,,,,,,,,,,,,,,,,,,,,,,,,,,,,,,,,,,,,,,,,,,,,,,,,,,,,,
,,5,2.222,5,2.222,0,78,78,29,1,163,melon,refrigerator,,89600,001,2022-04-29_13h17.44.377,SPAMnetsValid,2021.1.4,MacIntel,58.82352941,,,,,,,,,,,,,,,,,,,,,,,,,,,,,,,,,,,,,,,,,,,,,,,,,,,,,,,,,,,,,,,,,,,,,,,,,,,,,,,,,,,,,,,,,
,,5,0.885,5,0.885,0,79,79,70,1,141,melon,tomato,,89600,001,2022-04-29_13h17.44.377,SPAMnetsValid,2021.1.4,MacIntel,58.82352941,,,,,,,,,,,,,,,,,,,,,,,,,,,,,,,,,,,,,,,,,,,,,,,,,,,,,,,,,,,,,,,,,,,,,,,,,,,,,,,,,,,,,,,,,
,,4,1.925,4,1.925,0,80,80,74,1,128,melon,microwave,,89600,001,2022-04-29_13h17.44.377,SPAMnetsValid,2021.1.4,MacIntel,58.82352941,,,,,,,,,,,,,,,,,,,,,,,,,,,,,,,,,,,,,,,,,,,,,,,,,,,,,,,,,,,,,,,,,,,,,,,,,,,,,,,,,,,,,,,,,
,,7,1.572,7,1.572,0,81,81,77,1,172,kitchen,melon,,89600,001,2022-04-29_13h17.44.377,SPAMnetsValid,2021.1.4,MacIntel,58.82352941,,,,,,,,,,,,,,,,,,,,,,,,,,,,,,,,,,,,,,,,,,,,,,,,,,,,,,,,,,,,,,,,,,,,,,,,,,,,,,,,,,,,,,,,,
,,7,1.391,7,1.391,0,82,82,89,1,140,cookie,refrigerator,,89600,001,2022-04-29_13h17.44.377,SPAMnetsValid,2021.1.4,MacIntel,58.82352941,,,,,,,,,,,,,,,,,,,,,,,,,,,,,,,,,,,,,,,,,,,,,,,,,,,,,,,,,,,,,,,,,,,,,,,,,,,,,,,,,,,,,,,,,
,,4,1.388,4,1.388,0,83,83,19,1,183,cake,rose,,89600,001,2022-04-29_13h17.44.377,SPAMnetsValid,2021.1.4,MacIntel,58.82352941,,,,,,,,,,,,,,,,,,,,,,,,,,,,,,,,,,,,,,,,,,,,,,,,,,,,,,,,,,,,,,,,,,,,,,,,,,,,,,,,,,,,,,,,,
,,7,2.604,7,2.604,0,84,84,66,1,150,microwave,refrigerator,,89600,001,2022-04-29_13h17.44.377,SPAMnetsValid,2021.1.4,MacIntel,58.82352941,,,,,,,,,,,,,,,,,,,,,,,,,,,,,,,,,,,,,,,,,,,,,,,,,,,,,,,,,,,,,,,,,,,,,,,,,,,,,,,,,,,,,,,,,
,,6,3.639,6,3.639,0,85,85,87,1,114,cookie,strawberry,,89600,001,2022-04-29_13h17.44.377,SPAMnetsValid,2021.1.4,MacIntel,58.82352941,,,,,,,,,,,,,,,,,,,,,,,,,,,,,,,,,,,,,,,,,,,,,,,,,,,,,,,,,,,,,,,,,,,,,,,,,,,,,,,,,,,,,,,,,
,,2,1.535,2,1.535,0,86,86,40,1,165,onion,rose,,89600,001,2022-04-29_13h17.44.377,SPAMnetsValid,2021.1.4,MacIntel,58.82352941,,,,,,,,,,,,,,,,,,,,,,,,,,,,,,,,,,,,,,,,,,,,,,,,,,,,,,,,,,,,,,,,,,,,,,,,,,,,,,,,,,,,,,,,,
,,2,1.686,2,1.686,0,87,87,45,1,179,broom,oven,,89600,001,2022-04-29_13h17.44.377,SPAMnetsValid,2021.1.4,MacIntel,58.82352941,,,,,,,,,,,,,,,,,,,,,,,,,,,,,,,,,,,,,,,,,,,,,,,,,,,,,,,,,,,,,,,,,,,,,,,,,,,,,,,,,,,,,,,,,
,,6,1.256,6,1.256,0,88,88,8,1,97,chocolate,kitchen,,89600,001,2022-04-29_13h17.44.377,SPAMnetsValid,2021.1.4,MacIntel,58.82352941,,,,,,,,,,,,,,,,,,,,,,,,,,,,,,,,,,,,,,,,,,,,,,,,,,,,,,,,,,,,,,,,,,,,,,,,,,,,,,,,,,,,,,,,,
,,8,2.122,8,2.122,0,89,89,7,1,188,flower,tree,,89600,001,2022-04-29_13h17.44.377,SPAMnetsValid,2021.1.4,MacIntel,58.82352941,,,,,,,,,,,,,,,,,,,,,,,,,,,,,,,,,,,,,,,,,,,,,,,,,,,,,,,,,,,,,,,,,,,,,,,,,,,,,,,,,,,,,,,,,
,,5,3.087,5,3.087,0,90,90,56,1,113,refrigerator,strawberry,,89600,001,2022-04-29_13h17.44.377,SPAMnetsValid,2021.1.4,MacIntel,58.82352941,,,,,,,,,,,,,,,,,,,,,,,,,,,,,,,,,,,,,,,,,,,,,,,,,,,,,,,,,,,,,,,,,,,,,,,,,,,,,,,,,,,,,,,,,
,,1,2.852,1,2.852,0,91,91,57,1,127,cactus,chocolate,,89600,001,2022-04-29_13h17.44.377,SPAMnetsValid,2021.1.4,MacIntel,58.82352941,,,,,,,,,,,,,,,,,,,,,,,,,,,,,,,,,,,,,,,,,,,,,,,,,,,,,,,,,,,,,,,,,,,,,,,,,,,,,,,,,,,,,,,,,
,,5,1.819,5,1.819,0,92,92,72,1,181,carrot,kitchen,,89600,001,2022-04-29_13h17.44.377,SPAMnetsValid,2021.1.4,MacIntel,58.82352941,,,,,,,,,,,,,,,,,,,,,,,,,,,,,,,,,,,,,,,,,,,,,,,,,,,,,,,,,,,,,,,,,,,,,,,,,,,,,,,,,,,,,,,,,
,,6,2.275,6,2.275,0,93,93,33,1,131,cactus,garden,,89600,001,2022-04-29_13h17.44.377,SPAMnetsValid,2021.1.4,MacIntel,58.82352941,,,,,,,,,,,,,,,,,,,,,,,,,,,,,,,,,,,,,,,,,,,,,,,,,,,,,,,,,,,,,,,,,,,,,,,,,,,,,,,,,,,,,,,,,
,,3,2.089,3,2.089,0,94,94,64,1,157,refrigerator,rose,,89600,001,2022-04-29_13h17.44.377,SPAMnetsValid,2021.1.4,MacIntel,58.82352941,,,,,,,,,,,,,,,,,,,,,,,,,,,,,,,,,,,,,,,,,,,,,,,,,,,,,,,,,,,,,,,,,,,,,,,,,,,,,,,,,,,,,,,,,
,,4,2.654,4,2.654,0,95,95,43,1,185,cactus,rose,,89600,001,2022-04-29_13h17.44.377,SPAMnetsValid,2021.1.4,MacIntel,58.82352941,,,,,,,,,,,,,,,,,,,,,,,,,,,,,,,,,,,,,,,,,,,,,,,,,,,,,,,,,,,,,,,,,,,,,,,,,,,,,,,,,,,,,,,,,
,,9,1.637,9,1.637,0,96,96,47,1,167,carrot,garden,,89600,001,2022-04-29_13h17.44.377,SPAMnetsValid,2021.1.4,MacIntel,58.82352941,,,,,,,,,,,,,,,,,,,,,,,,,,,,,,,,,,,,,,,,,,,,,,,,,,,,,,,,,,,,,,,,,,,,,,,,,,,,,,,,,,,,,,,,,
,,,,,,,,,,,,,,,89600,001,2022-04-29_13h17.44.377,SPAMnetsValid,2021.1.4,MacIntel,58.82352941,0,0,0,0,1,,,,,,,,,,,,,,,,,,,,,,,,,,,,,,,,,,,,,,,,,,,,,,,,,,,,,,,,,,,,,,,,,,,,,,,,,,,,,,,,,,,,
,,,,,,,,,,,,,,,89600,001,2022-04-29_13h17.44.377,SPAMnetsValid,2021.1.4,MacIntel,58.82352941,,,,,,0,0,0,1,1,0,1,,,,,,,,,,,,,,,,,,,,,,,,,,,,,,,,,,,,,,,,,,,,,,,,,,,,,,,,,,,,,,,,,,,,,,,,,,,,,
,,,,4,2.078,,,,,,39,melon,pretzel,,89600,001,2022-04-29_13h17.44.377,SPAMnetsValid,2021.1.4,MacIntel,58.82352941,,,,,,,,,,,,,4,2.078,0,0,0,20,1,,,,,,,,,,,,,,,,,,,,,,,,,,,,,,,,,,,,,,,,,,,,,,,,,,,,,,,,,,,,,,,,,,,,,,
,,,,9,2.752,,,,,,36,broom,kitchen,,89600,001,2022-04-29_13h17.44.377,SPAMnetsValid,2021.1.4,MacIntel,58.82352941,,,,,,,,,,,,,9,2.752,0,1,1,76,1,,,,,,,,,,,,,,,,,,,,,,,,,,,,,,,,,,,,,,,,,,,,,,,,,,,,,,,,,,,,,,,,,,,,,,
,,,,9,1.718,,,,,,79,garden,strawberry,,89600,001,2022-04-29_13h17.44.377,SPAMnetsValid,2021.1.4,MacIntel,58.82352941,,,,,,,,,,,,,9,1.718,0,2,2,87,1,,,,,,,,,,,,,,,,,,,,,,,,,,,,,,,,,,,,,,,,,,,,,,,,,,,,,,,,,,,,,,,,,,,,,,
,,,,3,3.09,,,,,,18,onion,refrigerator,,89600,001,2022-04-29_13h17.44.377,SPAMnetsValid,2021.1.4,MacIntel,58.82352941,,,,,,,,,,,,,3,3.09,0,3,3,62,1,,,,,,,,,,,,,,,,,,,,,,,,,,,,,,,,,,,,,,,,,,,,,,,,,,,,,,,,,,,,,,,,,,,,,,
,,,,3,1.134,,,,,,13,broom,yogurt,,89600,001,2022-04-29_13h17.44.377,SPAMnetsValid,2021.1.4,MacIntel,58.82352941,,,,,,,,,,,,,3,1.134,0,4,4,5,1,,,,,,,,,,,,,,,,,,,,,,,,,,,,,,,,,,,,,,,,,,,,,,,,,,,,,,,,,,,,,,,,,,,,,,
,,,,2,1.286,,,,,,84,oven,tomato,,89600,001,2022-04-29_13h17.44.377,SPAMnetsValid,2021.1.4,MacIntel,58.82352941,,,,,,,,,,,,,2,1.286,0,5,5,28,1,,,,,,,,,,,,,,,,,,,,,,,,,,,,,,,,,,,,,,,,,,,,,,,,,,,,,,,,,,,,,,,,,,,,,,
,,,,2,0.67,,,,,,60,cactus,onion,,89600,001,2022-04-29_13h17.44.377,SPAMnetsValid,2021.1.4,MacIntel,58.82352941,,,,,,,,,,,,,2,0.67,0,6,6,81,1,,,,,,,,,,,,,,,,,,,,,,,,,,,,,,,,,,,,,,,,,,,,,,,,,,,,,,,,,,,,,,,,,,,,,,
,,,,2,0.57,,,,,,67,flower,yogurt,,89600,001,2022-04-29_13h17.44.377,SPAMnetsValid,2021.1.4,MacIntel,58.82352941,,,,,,,,,,,,,2,0.57,0,7,7,12,1,,,,,,,,,,,,,,,,,,,,,,,,,,,,,,,,,,,,,,,,,,,,,,,,,,,,,,,,,,,,,,,,,,,,,,
,,,,7,1.687,,,,,,82,cake,kitchen,,89600,001,2022-04-29_13h17.44.377,SPAMnetsValid,2021.1.4,MacIntel,58.82352941,,,,,,,,,,,,,7,1.687,0,8,8,96,1,,,,,,,,,,,,,,,,,,,,,,,,,,,,,,,,,,,,,,,,,,,,,,,,,,,,,,,,,,,,,,,,,,,,,,
,,,,2,1.208,,,,,,71,broom,rose,,89600,001,2022-04-29_13h17.44.377,SPAMnetsValid,2021.1.4,MacIntel,58.82352941,,,,,,,,,,,,,2,1.208,0,9,9,61,1,,,,,,,,,,,,,,,,,,,,,,,,,,,,,,,,,,,,,,,,,,,,,,,,,,,,,,,,,,,,,,,,,,,,,,
,,,,2,0.237,,,,,,66,melon,yogurt,,89600,001,2022-04-29_13h17.44.377,SPAMnetsValid,2021.1.4,MacIntel,58.82352941,,,,,,,,,,,,,2,0.237,0,10,10,48,1,,,,,,,,,,,,,,,,,,,,,,,,,,,,,,,,,,,,,,,,,,,,,,,,,,,,,,,,,,,,,,,,,,,,,,
,,,,2,1.07,,,,,,78,cookie,rose,,89600,001,2022-04-29_13h17.44.377,SPAMnetsValid,2021.1.4,MacIntel,58.82352941,,,,,,,,,,,,,2,1.07,0,11,11,56,1,,,,,,,,,,,,,,,,,,,,,,,,,,,,,,,,,,,,,,,,,,,,,,,,,,,,,,,,,,,,,,,,,,,,,,
,,,,7,2.72,,,,,,61,strawberry,tomato,,89600,001,2022-04-29_13h17.44.377,SPAMnetsValid,2021.1.4,MacIntel,58.82352941,,,,,,,,,,,,,7,2.72,0,12,12,80,1,,,,,,,,,,,,,,,,,,,,,,,,,,,,,,,,,,,,,,,,,,,,,,,,,,,,,,,,,,,,,,,,,,,,,,
,,,,3,1.286,,,,,,58,garden,oven,,89600,001,2022-04-29_13h17.44.377,SPAMnetsValid,2021.1.4,MacIntel,58.82352941,,,,,,,,,,,,,3,1.286,0,13,13,37,1,,,,,,,,,,,,,,,,,,,,,,,,,,,,,,,,,,,,,,,,,,,,,,,,,,,,,,,,,,,,,,,,,,,,,,
,,,,5,1.918,,,,,,2,kitchen,onion,,89600,001,2022-04-29_13h17.44.377,SPAMnetsValid,2021.1.4,MacIntel,58.82352941,,,,,,,,,,,,,5,1.918,0,14,14,91,1,,,,,,,,,,,,,,,,,,,,,,,,,,,,,,,,,,,,,,,,,,,,,,,,,,,,,,,,,,,,,,,,,,,,,,
,,,,2,1.424,,,,,,70,chocolate,onion,,89600,001,2022-04-29_13h17.44.377,SPAMnetsValid,2021.1.4,MacIntel,58.82352941,,,,,,,,,,,,,2,1.424,0,15,15,74,1,,,,,,,,,,,,,,,,,,,,,,,,,,,,,,,,,,,,,,,,,,,,,,,,,,,,,,,,,,,,,,,,,,,,,,
,,,,6,2.789,,,,,,47,onion,tomato,,89600,001,2022-04-29_13h17.44.377,SPAMnetsValid,2021.1.4,MacIntel,58.82352941,,,,,,,,,,,,,6,2.789,0,16,16,51,1,,,,,,,,,,,,,,,,,,,,,,,,,,,,,,,,,,,,,,,,,,,,,,,,,,,,,,,,,,,,,,,,,,,,,,
,,,,4,3.303,,,,,,7,melon,tree,,89600,001,2022-04-29_13h17.44.377,SPAMnetsValid,2021.1.4,MacIntel,58.82352941,,,,,,,,,,,,,4,3.303,0,17,17,77,1,,,,,,,,,,,,,,,,,,,,,,,,,,,,,,,,,,,,,,,,,,,,,,,,,,,,,,,,,,,,,,,,,,,,,,
,,,,4,1.108,,,,,,1,rose,yogurt,,89600,001,2022-04-29_13h17.44.377,SPAMnetsValid,2021.1.4,MacIntel,58.82352941,,,,,,,,,,,,,4,1.108,0,18,18,55,1,,,,,,,,,,,,,,,,,,,,,,,,,,,,,,,,,,,,,,,,,,,,,,,,,,,,,,,,,,,,,,,,,,,,,,
,,,,4,0.686,,,,,,3,cake,oven,,89600,001,2022-04-29_13h17.44.377,SPAMnetsValid,2021.1.4,MacIntel,58.82352941,,,,,,,,,,,,,4,0.686,0,19,19,30,1,,,,,,,,,,,,,,,,,,,,,,,,,,,,,,,,,,,,,,,,,,,,,,,,,,,,,,,,,,,,,,,,,,,,,,
,,,,4,1.154,,,,,,81,pretzel,yogurt,,89600,001,2022-04-29_13h17.44.377,SPAMnetsValid,2021.1.4,MacIntel,58.82352941,,,,,,,,,,,,,4,1.154,0,20,20,50,1,,,,,,,,,,,,,,,,,,,,,,,,,,,,,,,,,,,,,,,,,,,,,,,,,,,,,,,,,,,,,,,,,,,,,,
,,,,4,0.669,,,,,,57,flower,kitchen,,89600,001,2022-04-29_13h17.44.377,SPAMnetsValid,2021.1.4,MacIntel,58.82352941,,,,,,,,,,,,,4,0.669,0,21,21,49,1,,,,,,,,,,,,,,,,,,,,,,,,,,,,,,,,,,,,,,,,,,,,,,,,,,,,,,,,,,,,,,,,,,,,,,
,,,,4,0.536,,,,,,33,oven,yogurt,,89600,001,2022-04-29_13h17.44.377,SPAMnetsValid,2021.1.4,MacIntel,58.82352941,,,,,,,,,,,,,4,0.536,0,22,22,31,1,,,,,,,,,,,,,,,,,,,,,,,,,,,,,,,,,,,,,,,,,,,,,,,,,,,,,,,,,,,,,,,,,,,,,,
,,,,4,1.407,,,,,,74,broom,pretzel,,89600,001,2022-04-29_13h17.44.377,SPAMnetsValid,2021.1.4,MacIntel,58.82352941,,,,,,,,,,,,,4,1.407,0,23,23,40,1,,,,,,,,,,,,,,,,,,,,,,,,,,,,,,,,,,,,,,,,,,,,,,,,,,,,,,,,,,,,,,,,,,,,,,
,,,,2,1.79,,,,,,8,broom,melon,,89600,001,2022-04-29_13h17.44.377,SPAMnetsValid,2021.1.4,MacIntel,58.82352941,,,,,,,,,,,,,2,1.79,0,24,24,59,1,,,,,,,,,,,,,,,,,,,,,,,,,,,,,,,,,,,,,,,,,,,,,,,,,,,,,,,,,,,,,,,,,,,,,,
,,,,8,1.174,,,,,,42,garden,kitchen,,89600,001,2022-04-29_13h17.44.377,SPAMnetsValid,2021.1.4,MacIntel,58.82352941,,,,,,,,,,,,,8,1.174,0,25,25,29,1,,,,,,,,,,,,,,,,,,,,,,,,,,,,,,,,,,,,,,,,,,,,,,,,,,,,,,,,,,,,,,,,,,,,,,
,,,,2,1.571,,,,,,50,carrot,rose,,89600,001,2022-04-29_13h17.44.377,SPAMnetsValid,2021.1.4,MacIntel,58.82352941,,,,,,,,,,,,,2,1.571,0,26,26,73,1,,,,,,,,,,,,,,,,,,,,,,,,,,,,,,,,,,,,,,,,,,,,,,,,,,,,,,,,,,,,,,,,,,,,,,
,,,,2,1.191,,,,,,44,cookie,melon,,89600,001,2022-04-29_13h17.44.377,SPAMnetsValid,2021.1.4,MacIntel,58.82352941,,,,,,,,,,,,,2,1.191,0,27,27,92,1,,,,,,,,,,,,,,,,,,,,,,,,,,,,,,,,,,,,,,,,,,,,,,,,,,,,,,,,,,,,,,,,,,,,,,
,,,,2,16.32,,,,,,37,garden,refrigerator,,89600,001,2022-04-29_13h17.44.377,SPAMnetsValid,2021.1.4,MacIntel,58.82352941,,,,,,,,,,,,,2,16.32,0,28,28,11,1,,,,,,,,,,,,,,,,,,,,,,,,,,,,,,,,,,,,,,,,,,,,,,,,,,,,,,,,,,,,,,,,,,,,,,
,,,,2,0.824,,,,,,94,kitchen,microwave,,89600,001,2022-04-29_13h17.44.377,SPAMnetsValid,2021.1.4,MacIntel,58.82352941,,,,,,,,,,,,,2,0.824,0,29,29,58,1,,,,,,,,,,,,,,,,,,,,,,,,,,,,,,,,,,,,,,,,,,,,,,,,,,,,,,,,,,,,,,,,,,,,,,
,,,,3,3.236,,,,,,69,carrot,refrigerator,,89600,001,2022-04-29_13h17.44.377,SPAMnetsValid,2021.1.4,MacIntel,58.82352941,,,,,,,,,,,,,3,3.236,0,30,30,75,1,,,,,,,,,,,,,,,,,,,,,,,,,,,,,,,,,,,,,,,,,,,,,,,,,,,,,,,,,,,,,,,,,,,,,,
,,,,1,1.342,,,,,,45,onion,pretzel,,89600,001,2022-04-29_13h17.44.377,SPAMnetsValid,2021.1.4,MacIntel,58.82352941,,,,,,,,,,,,,1,1.342,0,31,31,69,1,,,,,,,,,,,,,,,,,,,,,,,,,,,,,,,,,,,,,,,,,,,,,,,,,,,,,,,,,,,,,,,,,,,,,,
,,,,1,7.853,,,,,,72,broom,onion,,89600,001,2022-04-29_13h17.44.377,SPAMnetsValid,2021.1.4,MacIntel,58.82352941,,,,,,,,,,,,,1,7.853,0,32,32,27,1,,,,,,,,,,,,,,,,,,,,,,,,,,,,,,,,,,,,,,,,,,,,,,,,,,,,,,,,,,,,,,,,,,,,,,
,,,,9,1.588,,,,,,9,kitchen,refrigerator,,89600,001,2022-04-29_13h17.44.377,SPAMnetsValid,2021.1.4,MacIntel,58.82352941,,,,,,,,,,,,,9,1.588,0,33,33,64,1,,,,,,,,,,,,,,,,,,,,,,,,,,,,,,,,,,,,,,,,,,,,,,,,,,,,,,,,,,,,,,,,,,,,,,
,,,,9,1.303,,,,,,77,refrigerator,yogurt,,89600,001,2022-04-29_13h17.44.377,SPAMnetsValid,2021.1.4,MacIntel,58.82352941,,,,,,,,,,,,,9,1.303,0,34,34,42,1,,,,,,,,,,,,,,,,,,,,,,,,,,,,,,,,,,,,,,,,,,,,,,,,,,,,,,,,,,,,,,,,,,,,,,
,,,,3,1.41,,,,,,83,broom,carrot,,89600,001,2022-04-29_13h17.44.377,SPAMnetsValid,2021.1.4,MacIntel,58.82352941,,,,,,,,,,,,,3,1.41,0,35,35,4,1,,,,,,,,,,,,,,,,,,,,,,,,,,,,,,,,,,,,,,,,,,,,,,,,,,,,,,,,,,,,,,,,,,,,,,
,,,,7,8.202,,,,,,93,kitchen,oven,,89600,001,2022-04-29_13h17.44.377,SPAMnetsValid,2021.1.4,MacIntel,58.82352941,,,,,,,,,,,,,7,8.202,0,36,36,82,1,,,,,,,,,,,,,,,,,,,,,,,,,,,,,,,,,,,,,,,,,,,,,,,,,,,,,,,,,,,,,,,,,,,,,,
,,,,2,1.405,,,,,,92,broom,flower,,89600,001,2022-04-29_13h17.44.377,SPAMnetsValid,2021.1.4,MacIntel,58.82352941,,,,,,,,,,,,,2,1.405,0,37,37,88,1,,,,,,,,,,,,,,,,,,,,,,,,,,,,,,,,,,,,,,,,,,,,,,,,,,,,,,,,,,,,,,,,,,,,,,
,,,,2,7.558,,,,,,24,cookie,tomato,,89600,001,2022-04-29_13h17.44.377,SPAMnetsValid,2021.1.4,MacIntel,58.82352941,,,,,,,,,,,,,2,7.558,0,38,38,68,1,,,,,,,,,,,,,,,,,,,,,,,,,,,,,,,,,,,,,,,,,,,,,,,,,,,,,,,,,,,,,,,,,,,,,,
,,,,2,5.84,,,,,,53,garden,pretzel,,89600,001,2022-04-29_13h17.44.377,SPAMnetsValid,2021.1.4,MacIntel,58.82352941,,,,,,,,,,,,,2,5.84,0,39,39,0,1,,,,,,,,,,,,,,,,,,,,,,,,,,,,,,,,,,,,,,,,,,,,,,,,,,,,,,,,,,,,,,,,,,,,,,
,,,,2,0.537,,,,,,21,cake,onion,,89600,001,2022-04-29_13h17.44.377,SPAMnetsValid,2021.1.4,MacIntel,58.82352941,,,,,,,,,,,,,2,0.537,0,40,40,63,1,,,,,,,,,,,,,,,,,,,,,,,,,,,,,,,,,,,,,,,,,,,,,,,,,,,,,,,,,,,,,,,,,,,,,,
,,,,2,0.352,,,,,,63,cake,cookie,,89600,001,2022-04-29_13h17.44.377,SPAMnetsValid,2021.1.4,MacIntel,58.82352941,,,,,,,,,,,,,2,0.352,0,41,41,93,1,,,,,,,,,,,,,,,,,,,,,,,,,,,,,,,,,,,,,,,,,,,,,,,,,,,,,,,,,,,,,,,,,,,,,,
,,,,2,0.435,,,,,,22,kitchen,strawberry,,89600,001,2022-04-29_13h17.44.377,SPAMnetsValid,2021.1.4,MacIntel,58.82352941,,,,,,,,,,,,,2,0.435,0,42,42,2,1,,,,,,,,,,,,,,,,,,,,,,,,,,,,,,,,,,,,,,,,,,,,,,,,,,,,,,,,,,,,,,,,,,,,,,
,,,,2,0.452,,,,,,29,chocolate,melon,,89600,001,2022-04-29_13h17.44.377,SPAMnetsValid,2021.1.4,MacIntel,58.82352941,,,,,,,,,,,,,2,0.452,0,43,43,34,1,,,,,,,,,,,,,,,,,,,,,,,,,,,,,,,,,,,,,,,,,,,,,,,,,,,,,,,,,,,,,,,,,,,,,,
,,,,2,0.503,,,,,,17,carrot,melon,,89600,001,2022-04-29_13h17.44.377,SPAMnetsValid,2021.1.4,MacIntel,58.82352941,,,,,,,,,,,,,2,0.503,0,44,44,24,1,,,,,,,,,,,,,,,,,,,,,,,,,,,,,,,,,,,,,,,,,,,,,,,,,,,,,,,,,,,,,,,,,,,,,,
,,,,2,0.472,,,,,,23,flower,microwave,,89600,001,2022-04-29_13h17.44.377,SPAMnetsValid,2021.1.4,MacIntel,58.82352941,,,,,,,,,,,,,2,0.472,0,45,45,25,1,,,,,,,,,,,,,,,,,,,,,,,,,,,,,,,,,,,,,,,,,,,,,,,,,,,,,,,,,,,,,,,,,,,,,,
,,,,2,0.986,,,,,,16,chocolate,flower,,89600,001,2022-04-29_13h17.44.377,SPAMnetsValid,2021.1.4,MacIntel,58.82352941,,,,,,,,,,,,,2,0.986,0,46,46,22,1,,,,,,,,,,,,,,,,,,,,,,,,,,,,,,,,,,,,,,,,,,,,,,,,,,,,,,,,,,,,,,,,,,,,,,
,,,,2,2.024,,,,,,46,garden,yogurt,,89600,001,2022-04-29_13h17.44.377,SPAMnetsValid,2021.1.4,MacIntel,58.82352941,,,,,,,,,,,,,2,2.024,0,47,47,65,1,,,,,,,,,,,,,,,,,,,,,,,,,,,,,,,,,,,,,,,,,,,,,,,,,,,,,,,,,,,,,,,,,,,,,,
,,,,1,2.523,,,,,,95,broom,refrigerator,,89600,001,2022-04-29_13h17.44.377,SPAMnetsValid,2021.1.4,MacIntel,58.82352941,,,,,,,,,,,,,1,2.523,0,48,48,90,1,,,,,,,,,,,,,,,,,,,,,,,,,,,,,,,,,,,,,,,,,,,,,,,,,,,,,,,,,,,,,,,,,,,,,,
,,,,7,1.702,,,,,,25,carrot,onion,,89600,001,2022-04-29_13h17.44.377,SPAMnetsValid,2021.1.4,MacIntel,58.82352941,,,,,,,,,,,,,7,1.702,0,49,49,44,1,,,,,,,,,,,,,,,,,,,,,,,,,,,,,,,,,,,,,,,,,,,,,,,,,,,,,,,,,,,,,,,,,,,,,,
,,,,8,2.273,,,,,,4,chocolate,pretzel,,89600,001,2022-04-29_13h17.44.377,SPAMnetsValid,2021.1.4,MacIntel,58.82352941,,,,,,,,,,,,,8,2.273,0,50,50,52,1,,,,,,,,,,,,,,,,,,,,,,,,,,,,,,,,,,,,,,,,,,,,,,,,,,,,,,,,,,,,,,,,,,,,,,
,,,,3,1.69,,,,,,31,cactus,pretzel,,89600,001,2022-04-29_13h17.44.377,SPAMnetsValid,2021.1.4,MacIntel,58.82352941,,,,,,,,,,,,,3,1.69,0,51,51,1,1,,,,,,,,,,,,,,,,,,,,,,,,,,,,,,,,,,,,,,,,,,,,,,,,,,,,,,,,,,,,,,,,,,,,,,
,,,,8,2.306,,,,,,68,flower,tomato,,89600,001,2022-04-29_13h17.44.377,SPAMnetsValid,2021.1.4,MacIntel,58.82352941,,,,,,,,,,,,,8,2.306,0,52,52,94,1,,,,,,,,,,,,,,,,,,,,,,,,,,,,,,,,,,,,,,,,,,,,,,,,,,,,,,,,,,,,,,,,,,,,,,
,,,,1,1.692,,,,,,91,microwave,rose,,89600,001,2022-04-29_13h17.44.377,SPAMnetsValid,2021.1.4,MacIntel,58.82352941,,,,,,,,,,,,,1,1.692,0,53,53,84,1,,,,,,,,,,,,,,,,,,,,,,,,,,,,,,,,,,,,,,,,,,,,,,,,,,,,,,,,,,,,,,,,,,,,,,
,,,,1,1.669,,,,,,62,kitchen,rose,,89600,001,2022-04-29_13h17.44.377,SPAMnetsValid,2021.1.4,MacIntel,58.82352941,,,,,,,,,,,,,1,1.669,0,54,54,57,1,,,,,,,,,,,,,,,,,,,,,,,,,,,,,,,,,,,,,,,,,,,,,,,,,,,,,,,,,,,,,,,,,,,,,,
,,,,1,33.17,,,,,,191,cake,cake,CHECK,89600,001,2022-04-29_13h17.44.377,SPAMnetsValid,2021.1.4,MacIntel,58.82352941,,,,,,,,,,,,,1,33.17,0,55,55,10,1,,,,,,,,,,,,,,,,,,,,,,,,,,,,,,,,,,,,,,,,,,,,,,,,,,,,,,,,,,,,,,,,,,,,,,
,,,,2,1.472,,,,,,80,chocolate,tree,,89600,001,2022-04-29_13h17.44.377,SPAMnetsValid,2021.1.4,MacIntel,58.82352941,,,,,,,,,,,,,2,1.472,0,56,56,89,1,,,,,,,,,,,,,,,,,,,,,,,,,,,,,,,,,,,,,,,,,,,,,,,,,,,,,,,,,,,,,,,,,,,,,,
,,,,2,0.986,,,,,,28,cake,melon,,89600,001,2022-04-29_13h17.44.377,SPAMnetsValid,2021.1.4,MacIntel,58.82352941,,,,,,,,,,,,,2,0.986,0,57,57,54,1,,,,,,,,,,,,,,,,,,,,,,,,,,,,,,,,,,,,,,,,,,,,,,,,,,,,,,,,,,,,,,,,,,,,,,
,,,,3,5.673,,,,,,5,oven,tree,,89600,001,2022-04-29_13h17.44.377,SPAMnetsValid,2021.1.4,MacIntel,58.82352941,,,,,,,,,,,,,3,5.673,0,58,58,70,1,,,,,,,,,,,,,,,,,,,,,,,,,,,,,,,,,,,,,,,,,,,,,,,,,,,,,,,,,,,,,,,,,,,,,,
,,,,1,1.907,,,,,,85,cake,tree,,89600,001,2022-04-29_13h17.44.377,SPAMnetsValid,2021.1.4,MacIntel,58.82352941,,,,,,,,,,,,,1,1.907,0,59,59,18,1,,,,,,,,,,,,,,,,,,,,,,,,,,,,,,,,,,,,,,,,,,,,,,,,,,,,,,,,,,,,,,,,,,,,,,
,,,,1,0.79,,,,,,75,cookie,onion,,89600,001,2022-04-29_13h17.44.377,SPAMnetsValid,2021.1.4,MacIntel,58.82352941,,,,,,,,,,,,,1,0.79,0,60,60,9,1,,,,,,,,,,,,,,,,,,,,,,,,,,,,,,,,,,,,,,,,,,,,,,,,,,,,,,,,,,,,,,,,,,,,,,
,,,,7,1.386,,,,,,76,garden,rose,,89600,001,2022-04-29_13h17.44.377,SPAMnetsValid,2021.1.4,MacIntel,58.82352941,,,,,,,,,,,,,7,1.386,0,61,61,19,1,,,,,,,,,,,,,,,,,,,,,,,,,,,,,,,,,,,,,,,,,,,,,,,,,,,,,,,,,,,,,,,,,,,,,,
,,,,5,2.619,,,,,,12,cookie,yogurt,,89600,001,2022-04-29_13h17.44.377,SPAMnetsValid,2021.1.4,MacIntel,58.82352941,,,,,,,,,,,,,5,2.619,0,62,62,36,1,,,,,,,,,,,,,,,,,,,,,,,,,,,,,,,,,,,,,,,,,,,,,,,,,,,,,,,,,,,,,,,,,,,,,,
,,,,9,1.172,,,,,,6,garden,onion,,89600,001,2022-04-29_13h17.44.377,SPAMnetsValid,2021.1.4,MacIntel,58.82352941,,,,,,,,,,,,,9,1.172,0,63,63,83,1,,,,,,,,,,,,,,,,,,,,,,,,,,,,,,,,,,,,,,,,,,,,,,,,,,,,,,,,,,,,,,,,,,,,,,
,,,,2,1.506,,,,,,88,cactus,melon,,89600,001,2022-04-29_13h17.44.377,SPAMnetsValid,2021.1.4,MacIntel,58.82352941,,,,,,,,,,,,,2,1.506,0,64,64,38,1,,,,,,,,,,,,,,,,,,,,,,,,,,,,,,,,,,,,,,,,,,,,,,,,,,,,,,,,,,,,,,,,,,,,,,
,,,,3,2.224,,,,,,15,onion,oven,,89600,001,2022-04-29_13h17.44.377,SPAMnetsValid,2021.1.4,MacIntel,58.82352941,,,,,,,,,,,,,3,2.224,0,65,65,39,1,,,,,,,,,,,,,,,,,,,,,,,,,,,,,,,,,,,,,,,,,,,,,,,,,,,,,,,,,,,,,,,,,,,,,,
,,,,3,1.438,,,,,,26,tomato,yogurt,,89600,001,2022-04-29_13h17.44.377,SPAMnetsValid,2021.1.4,MacIntel,58.82352941,,,,,,,,,,,,,3,1.438,0,66,66,13,1,,,,,,,,,,,,,,,,,,,,,,,,,,,,,,,,,,,,,,,,,,,,,,,,,,,,,,,,,,,,,,,,,,,,,,
,,,,6,2.069,,,,,,59,rose,strawberry,,89600,001,2022-04-29_13h17.44.377,SPAMnetsValid,2021.1.4,MacIntel,58.82352941,,,,,,,,,,,,,6,2.069,0,67,67,72,1,,,,,,,,,,,,,,,,,,,,,,,,,,,,,,,,,,,,,,,,,,,,,,,,,,,,,,,,,,,,,,,,,,,,,,
,,,,2,1.453,,,,,,11,refrigerator,tree,,89600,001,2022-04-29_13h17.44.377,SPAMnetsValid,2021.1.4,MacIntel,58.82352941,,,,,,,,,,,,,2,1.453,0,68,68,43,1,,,,,,,,,,,,,,,,,,,,,,,,,,,,,,,,,,,,,,,,,,,,,,,,,,,,,,,,,,,,,,,,,,,,,,
,,,,2,2.024,,,,,,43,chocolate,tomato,,89600,001,2022-04-29_13h17.44.377,SPAMnetsValid,2021.1.4,MacIntel,58.82352941,,,,,,,,,,,,,2,2.024,0,69,69,8,1,,,,,,,,,,,,,,,,,,,,,,,,,,,,,,,,,,,,,,,,,,,,,,,,,,,,,,,,,,,,,,,,,,,,,,
,,,,9,2.21,,,,,,49,flower,strawberry,,89600,001,2022-04-29_13h17.44.377,SPAMnetsValid,2021.1.4,MacIntel,58.82352941,,,,,,,,,,,,,9,2.21,0,70,70,3,1,,,,,,,,,,,,,,,,,,,,,,,,,,,,,,,,,,,,,,,,,,,,,,,,,,,,,,,,,,,,,,,,,,,,,,
,,,,6,3.673,,,,,,32,cake,microwave,,89600,001,2022-04-29_13h17.44.377,SPAMnetsValid,2021.1.4,MacIntel,58.82352941,,,,,,,,,,,,,6,3.673,0,71,71,33,1,,,,,,,,,,,,,,,,,,,,,,,,,,,,,,,,,,,,,,,,,,,,,,,,,,,,,,,,,,,,,,,,,,,,,,
,,,,1,2.173,,,,,,14,broom,cookie,,89600,001,2022-04-29_13h17.44.377,SPAMnetsValid,2021.1.4,MacIntel,58.82352941,,,,,,,,,,,,,1,2.173,0,72,72,16,1,,,,,,,,,,,,,,,,,,,,,,,,,,,,,,,,,,,,,,,,,,,,,,,,,,,,,,,,,,,,,,,,,,,,,,
,,,,6,2.103,,,,,,30,cookie,pretzel,,89600,001,2022-04-29_13h17.44.377,SPAMnetsValid,2021.1.4,MacIntel,58.82352941,,,,,,,,,,,,,6,2.103,0,73,73,78,1,,,,,,,,,,,,,,,,,,,,,,,,,,,,,,,,,,,,,,,,,,,,,,,,,,,,,,,,,,,,,,,,,,,,,,
,,,,3,2.619,,,,,,87,carrot,yogurt,,89600,001,2022-04-29_13h17.44.377,SPAMnetsValid,2021.1.4,MacIntel,58.82352941,,,,,,,,,,,,,3,2.619,0,74,74,6,1,,,,,,,,,,,,,,,,,,,,,,,,,,,,,,,,,,,,,,,,,,,,,,,,,,,,,,,,,,,,,,,,,,,,,,
,,,,2,1.772,,,,,,41,broom,cactus,,89600,001,2022-04-29_13h17.44.377,SPAMnetsValid,2021.1.4,MacIntel,58.82352941,,,,,,,,,,,,,2,1.772,0,75,75,46,1,,,,,,,,,,,,,,,,,,,,,,,,,,,,,,,,,,,,,,,,,,,,,,,,,,,,,,,,,,,,,,,,,,,,,,
,,,,8,2.088,,,,,,89,chocolate,rose,,89600,001,2022-04-29_13h17.44.377,SPAMnetsValid,2021.1.4,MacIntel,58.82352941,,,,,,,,,,,,,8,2.088,0,76,76,60,1,,,,,,,,,,,,,,,,,,,,,,,,,,,,,,,,,,,,,,,,,,,,,,,,,,,,,,,,,,,,,,,,,,,,,,
,,,,2,2.503,,,,,,48,flower,oven,,89600,001,2022-04-29_13h17.44.377,SPAMnetsValid,2021.1.4,MacIntel,58.82352941,,,,,,,,,,,,,2,2.503,0,77,77,15,1,,,,,,,,,,,,,,,,,,,,,,,,,,,,,,,,,,,,,,,,,,,,,,,,,,,,,,,,,,,,,,,,,,,,,,
,,,,8,2.655,,,,,,10,flower,onion,,89600,001,2022-04-29_13h17.44.377,SPAMnetsValid,2021.1.4,MacIntel,58.82352941,,,,,,,,,,,,,8,2.655,0,78,78,45,1,,,,,,,,,,,,,,,,,,,,,,,,,,,,,,,,,,,,,,,,,,,,,,,,,,,,,,,,,,,,,,,,,,,,,,
,,,,5,2.686,,,,,,56,cactus,tree,,89600,001,2022-04-29_13h17.44.377,SPAMnetsValid,2021.1.4,MacIntel,58.82352941,,,,,,,,,,,,,5,2.686,0,79,79,21,1,,,,,,,,,,,,,,,,,,,,,,,,,,,,,,,,,,,,,,,,,,,,,,,,,,,,,,,,,,,,,,,,,,,,,,
,,,,5,1.423,,,,,,20,rose,tree,,89600,001,2022-04-29_13h17.44.377,SPAMnetsValid,2021.1.4,MacIntel,58.82352941,,,,,,,,,,,,,5,1.423,0,80,80,66,1,,,,,,,,,,,,,,,,,,,,,,,,,,,,,,,,,,,,,,,,,,,,,,,,,,,,,,,,,,,,,,,,,,,,,,
,,,,2,2.541,,,,,,73,broom,chocolate,,89600,001,2022-04-29_13h17.44.377,SPAMnetsValid,2021.1.4,MacIntel,58.82352941,,,,,,,,,,,,,2,2.541,0,81,81,47,1,,,,,,,,,,,,,,,,,,,,,,,,,,,,,,,,,,,,,,,,,,,,,,,,,,,,,,,,,,,,,,,,,,,,,,
,,,,2,1.342,,,,,,65,broom,garden,,89600,001,2022-04-29_13h17.44.377,SPAMnetsValid,2021.1.4,MacIntel,58.82352941,,,,,,,,,,,,,2,1.342,0,82,82,23,1,,,,,,,,,,,,,,,,,,,,,,,,,,,,,,,,,,,,,,,,,,,,,,,,,,,,,,,,,,,,,,,,,,,,,,
,,,,2,1.901,,,,,,40,broom,cake,,89600,001,2022-04-29_13h17.44.377,SPAMnetsValid,2021.1.4,MacIntel,58.82352941,,,,,,,,,,,,,2,1.901,0,83,83,32,1,,,,,,,,,,,,,,,,,,,,,,,,,,,,,,,,,,,,,,,,,,,,,,,,,,,,,,,,,,,,,,,,,,,,,,
,,,,8,1.856,,,,,,54,chocolate,yogurt,,89600,001,2022-04-29_13h17.44.377,SPAMnetsValid,2021.1.4,MacIntel,58.82352941,,,,,,,,,,,,,8,1.856,0,84,84,67,1,,,,,,,,,,,,,,,,,,,,,,,,,,,,,,,,,,,,,,,,,,,,,,,,,,,,,,,,,,,,,,,,,,,,,,
,,,,1,1.857,,,,,,86,oven,rose,,89600,001,2022-04-29_13h17.44.377,SPAMnetsValid,2021.1.4,MacIntel,58.82352941,,,,,,,,,,,,,1,1.857,0,85,85,79,1,,,,,,,,,,,,,,,,,,,,,,,,,,,,,,,,,,,,,,,,,,,,,,,,,,,,,,,,,,,,,,,,,,,,,,
,,,,1,1.117,,,,,,34,melon,oven,,89600,001,2022-04-29_13h17.44.377,SPAMnetsValid,2021.1.4,MacIntel,58.82352941,,,,,,,,,,,,,1,1.117,0,86,86,7,1,,,,,,,,,,,,,,,,,,,,,,,,,,,,,,,,,,,,,,,,,,,,,,,,,,,,,,,,,,,,,,,,,,,,,,
,,,,3,2.49,,,,,,19,microwave,pretzel,,89600,001,2022-04-29_13h17.44.377,SPAMnetsValid,2021.1.4,MacIntel,58.82352941,,,,,,,,,,,,,3,2.49,0,87,87,41,1,,,,,,,,,,,,,,,,,,,,,,,,,,,,,,,,,,,,,,,,,,,,,,,,,,,,,,,,,,,,,,,,,,,,,,
,,,,1,1.62,,,,,,55,tomato,tree,,89600,001,2022-04-29_13h17.44.377,SPAMnetsValid,2021.1.4,MacIntel,58.82352941,,,,,,,,,,,,,1,1.62,0,88,88,35,1,,,,,,,,,,,,,,,,,,,,,,,,,,,,,,,,,,,,,,,,,,,,,,,,,,,,,,,,,,,,,,,,,,,,,,
,,,,3,2.855,,,,,,35,flower,pretzel,,89600,001,2022-04-29_13h17.44.377,SPAMnetsValid,2021.1.4,MacIntel,58.82352941,,,,,,,,,,,,,3,2.855,0,89,89,26,1,,,,,,,,,,,,,,,,,,,,,,,,,,,,,,,,,,,,,,,,,,,,,,,,,,,,,,,,,,,,,,,,,,,,,,
,,,,9,1.854,,,,,,192,microwave,microwave,CHECK,89600,001,2022-04-29_13h17.44.377,SPAMnetsValid,2021.1.4,MacIntel,58.82352941,,,,,,,,,,,,,9,1.854,0,90,90,53,1,,,,,,,,,,,,,,,,,,,,,,,,,,,,,,,,,,,,,,,,,,,,,,,,,,,,,,,,,,,,,,,,,,,,,,
,,,,2,1.49,,,,,,27,cactus,cookie,,89600,001,2022-04-29_13h17.44.377,SPAMnetsValid,2021.1.4,MacIntel,58.82352941,,,,,,,,,,,,,2,1.49,0,91,91,17,1,,,,,,,,,,,,,,,,,,,,,,,,,,,,,,,,,,,,,,,,,,,,,,,,,,,,,,,,,,,,,,,,,,,,,,
,,,,2,1.52,,,,,,51,onion,strawberry,,89600,001,2022-04-29_13h17.44.377,SPAMnetsValid,2021.1.4,MacIntel,58.82352941,,,,,,,,,,,,,2,1.52,0,92,92,86,1,,,,,,,,,,,,,,,,,,,,,,,,,,,,,,,,,,,,,,,,,,,,,,,,,,,,,,,,,,,,,,,,,,,,,,
,,,,2,0.835,,,,,,52,carrot,tomato,,89600,001,2022-04-29_13h17.44.377,SPAMnetsValid,2021.1.4,MacIntel,58.82352941,,,,,,,,,,,,,2,0.835,0,93,93,95,1,,,,,,,,,,,,,,,,,,,,,,,,,,,,,,,,,,,,,,,,,,,,,,,,,,,,,,,,,,,,,,,,,,,,,,
,,,,3,1.319,,,,,,90,cactus,cake,,89600,001,2022-04-29_13h17.44.377,SPAMnetsValid,2021.1.4,MacIntel,58.82352941,,,,,,,,,,,,,3,1.319,0,94,94,85,1,,,,,,,,,,,,,,,,,,,,,,,,,,,,,,,,,,,,,,,,,,,,,,,,,,,,,,,,,,,,,,,,,,,,,,
,,,,1,2.674,,,,,,64,chocolate,garden,,89600,001,2022-04-29_13h17.44.377,SPAMnetsValid,2021.1.4,MacIntel,58.82352941,,,,,,,,,,,,,1,2.674,0,95,95,14,1,,,,,,,,,,,,,,,,,,,,,,,,,,,,,,,,,,,,,,,,,,,,,,,,,,,,,,,,,,,,,,,,,,,,,,
,,,,2,4.274,,,,,,38,pretzel,refrigerator,,89600,001,2022-04-29_13h17.44.377,SPAMnetsValid,2021.1.4,MacIntel,58.82352941,,,,,,,,,,,,,2,4.274,0,96,96,71,1,,,,,,,,,,,,,,,,,,,,,,,,,,,,,,,,,,,,,,,,,,,,,,,,,,,,,,,,,,,,,,,,,,,,,,
,,,,,,,,,,,,,,,89600,001,2022-04-29_13h17.44.377,SPAMnetsValid,2021.1.4,MacIntel,58.82352941,,,,,,,,,,,,,,,,,,,,0,0,0,0,1,,,,,,,,,,,,,,,,,,,,,,,,,,,,,,,,,,,,,,,,,,,,,,,,,,,,,,,,,,,,,,,,,
,,,,,,,,,,,,,,,89600,001,2022-04-29_13h17.44.377,SPAMnetsValid,2021.1.4,MacIntel,58.82352941,,,,,,0,1,1,0,1,1,0,,,,,,,,,,,,,,,,,,,,,,,,,,,,,,,,,,,,,,,,,,,,,,,,,,,,,,,,,,,,,,,,,,,,,,,,,,,,,
,,,,,,,,,,,,,,,89600,001,2022-04-29_13h17.44.377,SPAMnetsValid,2021.1.4,MacIntel,58.82352941,,,,,,,,,,,,,,,,,,,,,,,,,1,5.042,0,0,0,0,1,rancor,forbearance,ridicule,malice,bravery,3,,,,,,,,,,,,,,,,,,,,,,,,,,,,,,,,,,,,,,,,,,,,,,,,,,,,
,,,,,,,,,,,,,,,89600,001,2022-04-29_13h17.44.377,SPAMnetsValid,2021.1.4,MacIntel,58.82352941,,,,,,,,,,,,,,,,,,,,,,,,,4,3.189,0,1,1,1,1,raucous,empty,quiet,smooth,harsh,4,,,,,,,,,,,,,,,,,,,,,,,,,,,,,,,,,,,,,,,,,,,,,,,,,,,,
,,,,,,,,,,,,,,,89600,001,2022-04-29_13h17.44.377,SPAMnetsValid,2021.1.4,MacIntel,58.82352941,,,,,,,,,,,,,,,,,,,,,,,,,3,5.334,0,2,2,2,1,gargoyle,oil,medicine,carved waterspout,ugly building,3,,,,,,,,,,,,,,,,,,,,,,,,,,,,,,,,,,,,,,,,,,,,,,,,,,,,
,,,,,,,,,,,,,,,89600,001,2022-04-29_13h17.44.377,SPAMnetsValid,2021.1.4,MacIntel,58.82352941,,,,,,,,,,,,,,,,,,,,,,,,,1,12.988,0,3,3,3,1,recrudesce,purify,renew activity,lack refinement,crush,2,,,,,,,,,,,,,,,,,,,,,,,,,,,,,,,,,,,,,,,,,,,,,,,,,,,,
,,,,,,,,,,,,,,,89600,001,2022-04-29_13h17.44.377,SPAMnetsValid,2021.1.4,MacIntel,58.82352941,,,,,,,,,,,,,,,,,,,,,,,,,3,2.356,0,4,4,4,1,specious,"plausible, but not genuine",noteworthy,class or variety,roomy,1,,,,,,,,,,,,,,,,,,,,,,,,,,,,,,,,,,,,,,,,,,,,,,,,,,,,
,,,,,,,,,,,,,,,89600,001,2022-04-29_13h17.44.377,SPAMnetsValid,2021.1.4,MacIntel,58.82352941,,,,,,,,,,,,,,,,,,,,,,,,,3,2.912,0,5,5,5,1,bauble,bubble,showy plaything,idle talk,confusion,2,,,,,,,,,,,,,,,,,,,,,,,,,,,,,,,,,,,,,,,,,,,,,,,,,,,,
,,,,,,,,,,,,,,,89600,001,2022-04-29_13h17.44.377,SPAMnetsValid,2021.1.4,MacIntel,58.82352941,,,,,,,,,,,,,,,,,,,,,,,,,2,2.022,0,6,6,6,1,prolific,scarce,producing abundantly,reckless,speaking profanely,2,,,,,,,,,,,,,,,,,,,,,,,,,,,,,,,,,,,,,,,,,,,,,,,,,,,,
,,,,,,,,,,,,,,,89600,001,2022-04-29_13h17.44.377,SPAMnetsValid,2021.1.4,MacIntel,58.82352941,,,,,,,,,,,,,,,,,,,,,,,,,2,1.96,0,7,7,7,1,opulent,party,wealthy,happy frame of mind,semiprecious stone,2,,,,,,,,,,,,,,,,,,,,,,,,,,,,,,,,,,,,,,,,,,,,,,,,,,,,
,,,,,,,,,,,,,,,89600,001,2022-04-29_13h17.44.377,SPAMnetsValid,2021.1.4,MacIntel,58.82352941,,,,,,,,,,,,,,,,,,,,,,,,,2,3.502,0,8,8,8,1,coercion,conspiracy,strategy,restraint,attraction,3,,,,,,,,,,,,,,,,,,,,,,,,,,,,,,,,,,,,,,,,,,,,,,,,,,,,
,,,,,,,,,,,,,,,89600,001,2022-04-29_13h17.44.377,SPAMnetsValid,2021.1.4,MacIntel,58.82352941,,,,,,,,,,,,,,,,,,,,,,,,,4,3.006,0,9,9,9,1,hiatus,animal,calamity,dread,gap,4,,,,,,,,,,,,,,,,,,,,,,,,,,,,,,,,,,,,,,,,,,,,,,,,,,,,
,,,,,,,,,,,,,,,89600,001,2022-04-29_13h17.44.377,SPAMnetsValid,2021.1.4,MacIntel,58.82352941,,,,,,,,,,,,,,,,,,,,,,,,,3,4.14,0,10,10,10,1,germane,microbe,contagious,relevant,different,3,,,,,,,,,,,,,,,,,,,,,,,,,,,,,,,,,,,,,,,,,,,,,,,,,,,,
,,,,,,,,,,,,,,,89600,001,2022-04-29_13h17.44.377,SPAMnetsValid,2021.1.4,MacIntel,58.82352941,,,,,,,,,,,,,,,,,,,,,,,,,1,1.927,0,11,11,11,1,perfunctory,fundamental,formal,superficial,careful,3,,,,,,,,,,,,,,,,,,,,,,,,,,,,,,,,,,,,,,,,,,,,,,,,,,,,
,,,,,,,,,,,,,,,89600,001,2022-04-29_13h17.44.377,SPAMnetsValid,2021.1.4,MacIntel,58.82352941,,,,,,,,,,,,,,,,,,,,,,,,,4,3.524,0,12,12,12,1,diverge,reveal,chant,distract the attention of,differ or turn off from,4,,,,,,,,,,,,,,,,,,,,,,,,,,,,,,,,,,,,,,,,,,,,,,,,,,,,
,,,,,,,,,,,,,,,89600,001,2022-04-29_13h17.44.377,SPAMnetsValid,2021.1.4,MacIntel,58.82352941,,,,,,,,,,,,,,,,,,,,,,,,,4,3.09,0,13,13,13,1,evoke,take away,anger,connect,bring out,4,,,,,,,,,,,,,,,,,,,,,,,,,,,,,,,,,,,,,,,,,,,,,,,,,,,,
,,,,,,,,,,,,,,,89600,001,2022-04-29_13h17.44.377,SPAMnetsValid,2021.1.4,MacIntel,58.82352941,,,,,,,,,,,,,,,,,,,,,,,,,1,2.122,0,14,14,14,1,pertinent,relevant,lying next to,necessary,bold,1,,,,,,,,,,,,,,,,,,,,,,,,,,,,,,,,,,,,,,,,,,,,,,,,,,,,
,,,,,,,,,,,,,,,89600,001,2022-04-29_13h17.44.377,SPAMnetsValid,2021.1.4,MacIntel,58.82352941,,,,,,,,,,,,,,,,,,,,,,,,,2,19.788,0,15,15,15,1,holocaust,entirety,destruction,saintly,price,2,,,,,,,,,,,,,,,,,,,,,,,,,,,,,,,,,,,,,,,,,,,,,,,,,,,,
,,,,,,,,,,,,,,,89600,001,2022-04-29_13h17.44.377,SPAMnetsValid,2021.1.4,MacIntel,58.82352941,,,,,,,,,,,,,,,,,,,,,,,,,1,1.438,0,16,16,16,1,piquant,mellow,fish,pungent,cloth,3,,,,,,,,,,,,,,,,,,,,,,,,,,,,,,,,,,,,,,,,,,,,,,,,,,,,
,,,,,,,,,,,,,,,89600,001,2022-04-29_13h17.44.377,SPAMnetsValid,2021.1.4,MacIntel,58.82352941,,,,,,,,,,,,,,,,,,,,,,,,,3,2.94,0,17,17,17,1,firmament,foundation,heavens,strong,glue,2,,,,,,,,,,,,,,,,,,,,,,,,,,,,,,,,,,,,,,,,,,,,,,,,,,,,
,,,,,,,,,,,,,,,89600,001,2022-04-29_13h17.44.377,SPAMnetsValid,2021.1.4,MacIntel,58.82352941,,,,,,,,,,,,,,,,,,,,,,,,,,,,,,,,,,,,,,4,4.358,0,0,0,0,1,marketable,partisan,jocular,marriageable,salable,essential,4,,,,,,,,,,,,,,,,,,,,,,,,,,,,,,,,,,,,,,
,,,,,,,,,,,,,,,89600,001,2022-04-29_13h17.44.377,SPAMnetsValid,2021.1.4,MacIntel,58.82352941,,,,,,,,,,,,,,,,,,,,,,,,,,,,,,,,,,,,,,4,4.256,0,1,1,1,1,cottontail,squirrel,poplar,boa,marshy plant,rabbit,5,,,,,,,,,,,,,,,,,,,,,,,,,,,,,,,,,,,,,,
,,,,,,,,,,,,,,,89600,001,2022-04-29_13h17.44.377,SPAMnetsValid,2021.1.4,MacIntel,58.82352941,,,,,,,,,,,,,,,,,,,,,,,,,,,,,,,,,,,,,,3,1.772,0,2,2,2,1,boggy,afraid,false,marshy,dense,black,3,,,,,,,,,,,,,,,,,,,,,,,,,,,,,,,,,,,,,,
,,,,,,,,,,,,,,,89600,001,2022-04-29_13h17.44.377,SPAMnetsValid,2021.1.4,MacIntel,58.82352941,,,,,,,,,,,,,,,,,,,,,,,,,,,,,,,,,,,,,,5,3.321,0,3,3,3,1,gruesomeness,blackness,falseness,vindictiveness,drunkenness,ghastliness,5,,,,,,,,,,,,,,,,,,,,,,,,,,,,,,,,,,,,,,
,,,,,,,,,,,,,,,89600,001,2022-04-29_13h17.44.377,SPAMnetsValid,2021.1.4,MacIntel,58.82352941,,,,,,,,,,,,,,,,,,,,,,,,,,,,,,,,,,,,,,3,4.141,0,4,4,4,1,loathing,diffidence,laziness,abhorrence,cleverness,comfort,3,,,,,,,,,,,,,,,,,,,,,,,,,,,,,,,,,,,,,,
,,,,,,,,,,,,,,,89600,001,2022-04-29_13h17.44.377,SPAMnetsValid,2021.1.4,MacIntel,58.82352941,,,,,,,,,,,,,,,,,,,,,,,,,,,,,,,,,,,,,,4,4.452,0,5,5,5,1,bantam,fowl,ridicule,cripple,vegetable,ensign,1,,,,,,,,,,,,,,,,,,,,,,,,,,,,,,,,,,,,,,
,,,,,,,,,,,,,,,89600,001,2022-04-29_13h17.44.377,SPAMnetsValid,2021.1.4,MacIntel,58.82352941,,,,,,,,,,,,,,,,,,,,,,,,,,,,,,,,,,,,,,1,2.323,0,6,6,6,1,evoke,wake up,surrender,reconnoiter,transcend,call forth,5,,,,,,,,,,,,,,,,,,,,,,,,,,,,,,,,,,,,,,
,,,,,,,,,,,,,,,89600,001,2022-04-29_13h17.44.377,SPAMnetsValid,2021.1.4,MacIntel,58.82352941,,,,,,,,,,,,,,,,,,,,,,,,,,,,,,,,,,,,,,1,3.469,0,7,7,7,1,unobtrusive,unintelligent,epileptic,illogical,lineal,modest,5,,,,,,,,,,,,,,,,,,,,,,,,,,,,,,,,,,,,,,
,,,,,,,,,,,,,,,89600,001,2022-04-29_13h17.44.377,SPAMnetsValid,2021.1.4,MacIntel,58.82352941,,,,,,,,,,,,,,,,,,,,,,,,,,,,,,,,,,,,,,4,2.325,0,8,8,8,1,terrain,ice cream,final test,tractor,area of ground,weight,4,,,,,,,,,,,,,,,,,,,,,,,,,,,,,,,,,,,,,,
,,,,,,,,,,,,,,,89600,001,2022-04-29_13h17.44.377,SPAMnetsValid,2021.1.4,MacIntel,58.82352941,,,,,,,,,,,,,,,,,,,,,,,,,,,,,,,,,,,,,,5,4.603,0,9,9,9,1,capriciousness,stubbornness,courage,whimsicality,amazement,greediness,3,,,,,,,,,,,,,,,,,,,,,,,,,,,,,,,,,,,,,,
,,,,,,,,,,,,,,,89600,001,2022-04-29_13h17.44.377,SPAMnetsValid,2021.1.4,MacIntel,58.82352941,,,,,,,,,,,,,,,,,,,,,,,,,,,,,,,,,,,,,,2,2.309,0,10,10,10,1,maelstrom,slander,whirlpool,enmity,armor,majolica,2,,,,,,,,,,,,,,,,,,,,,,,,,,,,,,,,,,,,,,
,,,,,,,,,,,,,,,89600,001,2022-04-29_13h17.44.377,SPAMnetsValid,2021.1.4,MacIntel,58.82352941,,,,,,,,,,,,,,,,,,,,,,,,,,,,,,,,,,,,,,3,2.893,0,11,11,11,1,tentative,critical,conclusive,authentic,provisional,apprehensive,4,,,,,,,,,,,,,,,,,,,,,,,,,,,,,,,,,,,,,,
,,,,,,,,,,,,,,,89600,001,2022-04-29_13h17.44.377,SPAMnetsValid,2021.1.4,MacIntel,58.82352941,,,,,,,,,,,,,,,,,,,,,,,,,,,,,,,,,,,,,,1,1.836,0,12,12,12,1,placate,rehabilitate,plagiarize,depredate,apprise,conciliate,5,,,,,,,,,,,,,,,,,,,,,,,,,,,,,,,,,,,,,,
,,,,,,,,,,,,,,,89600,001,2022-04-29_13h17.44.377,SPAMnetsValid,2021.1.4,MacIntel,58.82352941,,,,,,,,,,,,,,,,,,,,,,,,,,,,,,,,,,,,,,1,1.402,0,13,13,13,1,surcease,enlightenment,cessation,inattention,censor,substitution,2,,,,,,,,,,,,,,,,,,,,,,,,,,,,,,,,,,,,,,
,,,,,,,,,,,,,,,89600,001,2022-04-29_13h17.44.377,SPAMnetsValid,2021.1.4,MacIntel,58.82352941,,,,,,,,,,,,,,,,,,,,,,,,,,,,,,,,,,,,,,,,0,14,14,14,1,apathetic,wandering,impassive,hateful,prophetic,overflowing,2,,,,,,,,,,,,,,,,,,,,,,,,,,,,,,,,,,,,,,
,,,,,,,,,,,,,,,89600,001,2022-04-29_13h17.44.377,SPAMnetsValid,2021.1.4,MacIntel,58.82352941,,,,,,,,,,,,,,,,,,,,,,,,,,,,,,,,,,,,,,2,0.468,0,15,15,15,1,paternoster,paternalism,patricide,malediction,benediction,prayer,5,,,,,,,,,,,,,,,,,,,,,,,,,,,,,,,,,,,,,,
,,,,,,,,,,,,,,,89600,001,2022-04-29_13h17.44.377,SPAMnetsValid,2021.1.4,MacIntel,58.82352941,,,,,,,,,,,,,,,,,,,,,,,,,,,,,,,,,,,,,,1,2.405,0,16,16,16,1,opalescence,opulence,senescence,bankruptcy,iridescence,assiduity,4,,,,,,,,,,,,,,,,,,,,,,,,,,,,,,,,,,,,,,
,,,,,,,,,,,,,,,89600,001,2022-04-29_13h17.44.377,SPAMnetsValid,2021.1.4,MacIntel,58.82352941,,,,,,,,,,,,,,,,,,,,,,,,,,,,,,,,,,,,,,2,7.624,0,17,17,17,1,lush,stupid,luxurious,hazy,putrid,languishing,2,,,,,,,,,,,,,,,,,,,,,,,,,,,,,,,,,,,,,,
,,,,,,,,,,,,,,,89600,001,2022-04-29_13h17.44.377,SPAMnetsValid,2021.1.4,MacIntel,58.82352941,,,,,,,,,,,,,,,,,,,,,,,,,,,,,,,,,,,,,,2,2.856,0,18,18,18,1,curtailment,expenditure,abandonment,abridgment,improvement,forgery,3,,,,,,,,,,,,,,,,,,,,,,,,,,,,,,,,,,,,,,
,,,,,,,,,,,,,,,89600,001,2022-04-29_13h17.44.377,SPAMnetsValid,2021.1.4,MacIntel,58.82352941,,,,,,,,,,,,,,,,,,,,,,,,,,,,,,,,,,,,,,3,5.835,0,19,19,19,1,perversity,adversity,perviousness,travesty,waywardness,gentility,4,,,,,,,,,,,,,,,,,,,,,,,,,,,,,,,,,,,,,,
,,,,,,,,,,,,,,,89600,001,2022-04-29_13h17.44.377,SPAMnetsValid,2021.1.4,MacIntel,58.82352941,,,,,,,,,,,,,,,,,,,,,,,,,,,,,,,,,,,,,,4,4.023,0,20,20,20,1,calumnious,complimentary,analogous,slanderous,tempestuous,magnanimous,3,,,,,,,,,,,,,,,,,,,,,,,,,,,,,,,,,,,,,,
,,,,,,,,,,,,,,,89600,001,2022-04-29_13h17.44.377,SPAMnetsValid,2021.1.4,MacIntel,58.82352941,,,,,,,,,,,,,,,,,,,,,,,,,,,,,,,,,,,,,,3,3.958,0,21,21,21,1,illiberality,bigotry,imbecility,illegibility,cautery,immaturity,1,,,,,,,,,,,,,,,,,,,,,,,,,,,,,,,,,,,,,,
,,,,,,,,,,,,,,,89600,001,2022-04-29_13h17.44.377,SPAMnetsValid,2021.1.4,MacIntel,58.82352941,,,,,,,,,,,,,,,,,,,,,,,,,,,,,,,,,,,,,,2,1.838,0,22,22,22,1,clabber,rejoice,gossip,curdle,crow,hobble,3,,,,,,,,,,,,,,,,,,,,,,,,,,,,,,,,,,,,,,
,,,,,,,,,,,,,,,89600,001,2022-04-29_13h17.44.377,SPAMnetsValid,2021.1.4,MacIntel,58.82352941,,,,,,,,,,,,,,,,,,,,,,,,,,,,,,,,,,,,,,3,3.272,0,23,23,23,1,sedulousness,diligence,credulousness,seduction,perilousness,frankness,1,,,,,,,,,,,,,,,,,,,,,,,,,,,,,,,,,,,,,,
,,,,,,,,,,,,,,,89600,001,2022-04-29_13h17.44.377,SPAMnetsValid,2021.1.4,MacIntel,58.82352941,,,,,,,,,,,,,,,,,,,,,,,,,,,,,,,,,,,,,,,,,,,,,,,,,,,,burning ,candle,0,0,0,0,1,,,,,,,,,,,,,,,,,,,,,,,,,,,,,,,
,,,,,,,,,,,,,,,89600,001,2022-04-29_13h17.44.377,SPAMnetsValid,2021.1.4,MacIntel,58.82352941,,,,,,,,,,,,,,,,,,,,,,,,,,,,,,,,,,,,,,,,,,,,,,,,,,,,fire,candle,1,0,1,0,1,,,,,,,,,,,,,,,,,,,,,,,,,,,,,,,
,,,,,,,,,,,,,,,89600,001,2022-04-29_13h17.44.377,SPAMnetsValid,2021.1.4,MacIntel,58.82352941,,,,,,,,,,,,,,,,,,,,,,,,,,,,,,,,,,,,,,,,,,,,,,,,,,,,light,candle,2,0,2,0,1,,,,,,,,,,,,,,,,,,,,,,,,,,,,,,,
,,,,,,,,,,,,,,,89600,001,2022-04-29_13h17.44.377,SPAMnetsValid,2021.1.4,MacIntel,58.82352941,,,,,,,,,,,,,,,,,,,,,,,,,,,,,,,,,,,,,,,,,,,,,,,,,,,,smell,candle,3,0,3,0,1,,,,,,,,,,,,,,,,,,,,,,,,,,,,,,,
,,,,,,,,,,,,,,,89600,001,2022-04-29_13h17.44.377,SPAMnetsValid,2021.1.4,MacIntel,58.82352941,,,,,,,,,,,,,,,,,,,,,,,,,,,,,,,,,,,,,,,,,,,,,,,,,,,,scent,candle,4,0,4,0,1,,,,,,,,,,,,,,,,,,,,,,,,,,,,,,,
,,,,,,,,,,,,,,,89600,001,2022-04-29_13h17.44.377,SPAMnetsValid,2021.1.4,MacIntel,58.82352941,,,,,,,,,,,,,,,,,,,,,,,,,,,,,,,,,,,,,,,,,,,,,,,,,,,,mailn ,candle,5,0,5,0,1,,,,,,,,,,,,,,,,,,,,,,,,,,,,,,,
,,,,,,,,,,,,,,,89600,001,2022-04-29_13h17.44.377,SPAMnetsValid,2021.1.4,MacIntel,58.82352941,,,,,,,,,,,,,,,,,,,,,,,,,,,,,,,,,,,,,,,,,,,,,,,,,,,,mail,candle,6,0,6,0,1,,,,,,,,,,,,,,,,,,,,,,,,,,,,,,,
,,,,,,,,,,,,,,,89600,001,2022-04-29_13h17.44.377,SPAMnetsValid,2021.1.4,MacIntel,58.82352941,,,,,,,,,,,,,,,,,,,,,,,,,,,,,,,,,,,,,,,,,,,,,,,,,,,,york,candle,7,0,7,0,1,,,,,,,,,,,,,,,,,,,,,,,,,,,,,,,
,,,,,,,,,,,,,,,89600,001,2022-04-29_13h17.44.377,SPAMnetsValid,2021.1.4,MacIntel,58.82352941,,,,,,,,,,,,,,,,,,,,,,,,,,,,,,,,,,,,,,,,,,,,,,,,,,,,older women ,candle,8,0,8,0,1,,,,,,,,,,,,,,,,,,,,,,,,,,,,,,,
,,,,,,,,,,,,,,,89600,001,2022-04-29_13h17.44.377,SPAMnetsValid,2021.1.4,MacIntel,58.82352941,,,,,,,,,,,,,,,,,,,,,,,,,,,,,,,,,,,,,,,,,,,,,,,,,,,,relgion ,candle,9,0,9,0,1,,,,,,,,,,,,,,,,,,,,,,,,,,,,,,,
,,,,,,,,,,,,,,,89600,001,2022-04-29_13h17.44.377,SPAMnetsValid,2021.1.4,MacIntel,58.82352941,,,,,,,,,,,,,,,,,,,,,,,,,,,,,,,,,,,,,,,,,,,,,,,,,,,,saints,candle,10,0,10,0,1,,,,,,,,,,,,,,,,,,,,,,,,,,,,,,,
,,,,,,,,,,,,,,,89600,001,2022-04-29_13h17.44.377,SPAMnetsValid,2021.1.4,MacIntel,58.82352941,,,,,,,,,,,,,,,,,,,,,,,,,,,,,,,,,,,,,,,,,,,,,,,,,,,,different smell,candle,11,0,11,0,1,,,,,,,,,,,,,,,,,,,,,,,,,,,,,,,
,,,,,,,,,,,,,,,89600,001,2022-04-29_13h17.44.377,SPAMnetsValid,2021.1.4,MacIntel,58.82352941,,,,,,,,,,,,,,,,,,,,,,,,,,,,,,,,,,,,,,,,,,,,,,,,,,,,bathroom ,candle,12,0,12,0,1,,,,,,,,,,,,,,,,,,,,,,,,,,,,,,,
,,,,,,,,,,,,,,,89600,001,2022-04-29_13h17.44.377,SPAMnetsValid,2021.1.4,MacIntel,58.82352941,,,,,,,,,,,,,,,,,,,,,,,,,,,,,,,,,,,,,,,,,,,,,,,,,,,,lighter ,candle,13,0,13,0,1,,,,,,,,,,,,,,,,,,,,,,,,,,,,,,,
,,,,,,,,,,,,,,,89600,001,2022-04-29_13h17.44.377,SPAMnetsValid,2021.1.4,MacIntel,58.82352941,,,,,,,,,,,,,,,,,,,,,,,,,,,,,,,,,,,,,,,,,,,,,,,,,,,,cup after done using ,candle,14,0,14,0,1,,,,,,,,,,,,,,,,,,,,,,,,,,,,,,,
,,,,,,,,,,,,,,,89600,001,2022-04-29_13h17.44.377,SPAMnetsValid,2021.1.4,MacIntel,58.82352941,,,,,,,,,,,,,,,,,,,,,,,,,,,,,,,,,,,,,,,,,,,,,,,,,,,,massage ,candle,15,0,15,0,1,,,,,,,,,,,,,,,,,,,,,,,,,,,,,,,
,,,,,,,,,,,,,,,89600,001,2022-04-29_13h17.44.377,SPAMnetsValid,2021.1.4,MacIntel,58.82352941,,,,,,,,,,,,,,,,,,,,,,,,,,,,,,,,,,,,,,,,,,,,,,,,,,,,wax ,candle,16,0,16,0,1,,,,,,,,,,,,,,,,,,,,,,,,,,,,,,,
,,,,,,,,,,,,,,,89600,001,2022-04-29_13h17.44.377,SPAMnetsValid,2021.1.4,MacIntel,58.82352941,,,,,,,,,,,,,,,,,,,,,,,,,,,,,,,,,,,,,,,,,,,,,,,,,,,,dungeons ,candle,17,0,17,0,1,,,,,,,,,,,,,,,,,,,,,,,,,,,,,,,
,,,,,,,,,,,,,,,89600,001,2022-04-29_13h17.44.377,SPAMnetsValid,2021.1.4,MacIntel,58.82352941,,,,,,,,,,,,,,,,,,,,,,,,,,,,,,,,,,,,,,,,,,,,,,,,,,,,wicks,candle,18,0,18,0,1,,,,,,,,,,,,,,,,,,,,,,,,,,,,,,,
,,,,,,,,,,,,,,,89600,001,2022-04-29_13h17.44.377,SPAMnetsValid,2021.1.4,MacIntel,58.82352941,,,,,,,,,,,,,,,,,,,,,,,,,,,,,,,,,,,,,,,,,,,,,,,,,,,,,,,,,,,0,0,0,1,1,candle,,,,,,,,,,,,,,,,,,,,,,,,,
,,,,,,,,,,,,,,,89600,001,2022-04-29_13h17.44.377,SPAMnetsValid,2021.1.4,MacIntel,58.82352941,,,,,,,,,,,,,,,,,,,,,,,,,,,,,,,,,,,,,,,,,,,,,,,,,,,,water fetching ,bucket,0,0,0,0,1,,,,,,,,,,,,,,,,,,,,,,,,,,,,,,,
,,,,,,,,,,,,,,,89600,001,2022-04-29_13h17.44.377,SPAMnetsValid,2021.1.4,MacIntel,58.82352941,,,,,,,,,,,,,,,,,,,,,,,,,,,,,,,,,,,,,,,,,,,,,,,,,,,,putting over someone's head in skyrim,bucket,1,0,1,0,1,,,,,,,,,,,,,,,,,,,,,,,,,,,,,,,
,,,,,,,,,,,,,,,89600,001,2022-04-29_13h17.44.377,SPAMnetsValid,2021.1.4,MacIntel,58.82352941,,,,,,,,,,,,,,,,,,,,,,,,,,,,,,,,,,,,,,,,,,,,,,,,,,,,putting over someone's head in real life ,bucket,2,0,2,0,1,,,,,,,,,,,,,,,,,,,,,,,,,,,,,,,
,,,,,,,,,,,,,,,89600,001,2022-04-29_13h17.44.377,SPAMnetsValid,2021.1.4,MacIntel,58.82352941,,,,,,,,,,,,,,,,,,,,,,,,,,,,,,,,,,,,,,,,,,,,,,,,,,,,lava ,bucket,3,0,3,0,1,,,,,,,,,,,,,,,,,,,,,,,,,,,,,,,
,,,,,,,,,,,,,,,89600,001,2022-04-29_13h17.44.377,SPAMnetsValid,2021.1.4,MacIntel,58.82352941,,,,,,,,,,,,,,,,,,,,,,,,,,,,,,,,,,,,,,,,,,,,,,,,,,,,easter eggs,bucket,4,0,4,0,1,,,,,,,,,,,,,,,,,,,,,,,,,,,,,,,
,,,,,,,,,,,,,,,89600,001,2022-04-29_13h17.44.377,SPAMnetsValid,2021.1.4,MacIntel,58.82352941,,,,,,,,,,,,,,,,,,,,,,,,,,,,,,,,,,,,,,,,,,,,,,,,,,,,pail,bucket,5,0,5,0,1,,,,,,,,,,,,,,,,,,,,,,,,,,,,,,,
,,,,,,,,,,,,,,,89600,001,2022-04-29_13h17.44.377,SPAMnetsValid,2021.1.4,MacIntel,58.82352941,,,,,,,,,,,,,,,,,,,,,,,,,,,,,,,,,,,,,,,,,,,,,,,,,,,,holding common items,bucket,6,0,6,0,1,,,,,,,,,,,,,,,,,,,,,,,,,,,,,,,
,,,,,,,,,,,,,,,89600,001,2022-04-29_13h17.44.377,SPAMnetsValid,2021.1.4,MacIntel,58.82352941,,,,,,,,,,,,,,,,,,,,,,,,,,,,,,,,,,,,,,,,,,,,,,,,,,,,cleaning,bucket,7,0,7,0,1,,,,,,,,,,,,,,,,,,,,,,,,,,,,,,,
,,,,,,,,,,,,,,,89600,001,2022-04-29_13h17.44.377,SPAMnetsValid,2021.1.4,MacIntel,58.82352941,,,,,,,,,,,,,,,,,,,,,,,,,,,,,,,,,,,,,,,,,,,,,,,,,,,,mop ,bucket,8,0,8,0,1,,,,,,,,,,,,,,,,,,,,,,,,,,,,,,,
,,,,,,,,,,,,,,,89600,001,2022-04-29_13h17.44.377,SPAMnetsValid,2021.1.4,MacIntel,58.82352941,,,,,,,,,,,,,,,,,,,,,,,,,,,,,,,,,,,,,,,,,,,,,,,,,,,,washing ,bucket,9,0,9,0,1,,,,,,,,,,,,,,,,,,,,,,,,,,,,,,,
,,,,,,,,,,,,,,,89600,001,2022-04-29_13h17.44.377,SPAMnetsValid,2021.1.4,MacIntel,58.82352941,,,,,,,,,,,,,,,,,,,,,,,,,,,,,,,,,,,,,,,,,,,,,,,,,,,,wash,bucket,10,0,10,0,1,,,,,,,,,,,,,,,,,,,,,,,,,,,,,,,
,,,,,,,,,,,,,,,89600,001,2022-04-29_13h17.44.377,SPAMnetsValid,2021.1.4,MacIntel,58.82352941,,,,,,,,,,,,,,,,,,,,,,,,,,,,,,,,,,,,,,,,,,,,,,,,,,,,slime holding,bucket,11,0,11,0,1,,,,,,,,,,,,,,,,,,,,,,,,,,,,,,,
,,,,,,,,,,,,,,,89600,001,2022-04-29_13h17.44.377,SPAMnetsValid,2021.1.4,MacIntel,58.82352941,,,,,,,,,,,,,,,,,,,,,,,,,,,,,,,,,,,,,,,,,,,,,,,,,,,,washing hands,bucket,12,0,12,0,1,,,,,,,,,,,,,,,,,,,,,,,,,,,,,,,
,,,,,,,,,,,,,,,89600,001,2022-04-29_13h17.44.377,SPAMnetsValid,2021.1.4,MacIntel,58.82352941,,,,,,,,,,,,,,,,,,,,,,,,,,,,,,,,,,,,,,,,,,,,,,,,,,,,drinking out of,bucket,13,0,13,0,1,,,,,,,,,,,,,,,,,,,,,,,,,,,,,,,
,,,,,,,,,,,,,,,89600,001,2022-04-29_13h17.44.377,SPAMnetsValid,2021.1.4,MacIntel,58.82352941,,,,,,,,,,,,,,,,,,,,,,,,,,,,,,,,,,,,,,,,,,,,,,,,,,,,kick the bucket,bucket,14,0,14,0,1,,,,,,,,,,,,,,,,,,,,,,,,,,,,,,,
,,,,,,,,,,,,,,,89600,001,2022-04-29_13h17.44.377,SPAMnetsValid,2021.1.4,MacIntel,58.82352941,,,,,,,,,,,,,,,,,,,,,,,,,,,,,,,,,,,,,,,,,,,,,,,,,,,,,,,,,,,0,1,1,0,1,bucket,,,,,,,,,,,,,,,,,,,,,,,,,
,,,,,,,,,,,,,,,89600,001,2022-04-29_13h17.44.377,SPAMnetsValid,2021.1.4,MacIntel,58.82352941,,,,,,,,,,,,,,,,,,,,,,,,,,,,,,,,,,,,,,,,,,,,,,,,,,,,sleep,pillow,0,0,0,0,1,,,,,,,,,,,,,,,,,,,,,,,,,,,,,,,
,,,,,,,,,,,,,,,89600,001,2022-04-29_13h17.44.377,SPAMnetsValid,2021.1.4,MacIntel,58.82352941,,,,,,,,,,,,,,,,,,,,,,,,,,,,,,,,,,,,,,,,,,,,,,,,,,,,dighting ,pillow,1,0,1,0,1,,,,,,,,,,,,,,,,,,,,,,,,,,,,,,,
,,,,,,,,,,,,,,,89600,001,2022-04-29_13h17.44.377,SPAMnetsValid,2021.1.4,MacIntel,58.82352941,,,,,,,,,,,,,,,,,,,,,,,,,,,,,,,,,,,,,,,,,,,,,,,,,,,,holding various objects ,pillow,2,0,2,0,1,,,,,,,,,,,,,,,,,,,,,,,,,,,,,,,
,,,,,,,,,,,,,,,89600,001,2022-04-29_13h17.44.377,SPAMnetsValid,2021.1.4,MacIntel,58.82352941,,,,,,,,,,,,,,,,,,,,,,,,,,,,,,,,,,,,,,,,,,,,,,,,,,,,throwing ,pillow,3,0,3,0,1,,,,,,,,,,,,,,,,,,,,,,,,,,,,,,,
,,,,,,,,,,,,,,,89600,001,2022-04-29_13h17.44.377,SPAMnetsValid,2021.1.4,MacIntel,58.82352941,,,,,,,,,,,,,,,,,,,,,,,,,,,,,,,,,,,,,,,,,,,,,,,,,,,,preventing ,pillow,4,0,4,0,1,,,,,,,,,,,,,,,,,,,,,,,,,,,,,,,
,,,,,,,,,,,,,,,89600,001,2022-04-29_13h17.44.377,SPAMnetsValid,2021.1.4,MacIntel,58.82352941,,,,,,,,,,,,,,,,,,,,,,,,,,,,,,,,,,,,,,,,,,,,,,,,,,,,comfortable sitting,pillow,5,0,5,0,1,,,,,,,,,,,,,,,,,,,,,,,,,,,,,,,
,,,,,,,,,,,,,,,89600,001,2022-04-29_13h17.44.377,SPAMnetsValid,2021.1.4,MacIntel,58.82352941,,,,,,,,,,,,,,,,,,,,,,,,,,,,,,,,,,,,,,,,,,,,,,,,,,,,display of personal opinion ,pillow,6,0,6,0,1,,,,,,,,,,,,,,,,,,,,,,,,,,,,,,,
,,,,,,,,,,,,,,,89600,001,2022-04-29_13h17.44.377,SPAMnetsValid,2021.1.4,MacIntel,58.82352941,,,,,,,,,,,,,,,,,,,,,,,,,,,,,,,,,,,,,,,,,,,,,,,,,,,,filling with kead to take nito battle,pillow,7,0,7,0,1,,,,,,,,,,,,,,,,,,,,,,,,,,,,,,,
,,,,,,,,,,,,,,,89600,001,2022-04-29_13h17.44.377,SPAMnetsValid,2021.1.4,MacIntel,58.82352941,,,,,,,,,,,,,,,,,,,,,,,,,,,,,,,,,,,,,,,,,,,,,,,,,,,,sleep pt 2,pillow,8,0,8,0,1,,,,,,,,,,,,,,,,,,,,,,,,,,,,,,,
,,,,,,,,,,,,,,,89600,001,2022-04-29_13h17.44.377,SPAMnetsValid,2021.1.4,MacIntel,58.82352941,,,,,,,,,,,,,,,,,,,,,,,,,,,,,,,,,,,,,,,,,,,,,,,,,,,,stealing ,pillow,9,0,9,0,1,,,,,,,,,,,,,,,,,,,,,,,,,,,,,,,
,,,,,,,,,,,,,,,89600,001,2022-04-29_13h17.44.377,SPAMnetsValid,2021.1.4,MacIntel,58.82352941,,,,,,,,,,,,,,,,,,,,,,,,,,,,,,,,,,,,,,,,,,,,,,,,,,,,in class nap ,pillow,10,0,10,0,1,,,,,,,,,,,,,,,,,,,,,,,,,,,,,,,
,,,,,,,,,,,,,,,89600,001,2022-04-29_13h17.44.377,SPAMnetsValid,2021.1.4,MacIntel,58.82352941,,,,,,,,,,,,,,,,,,,,,,,,,,,,,,,,,,,,,,,,,,,,,,,,,,,,screaming into ,pillow,11,0,11,0,1,,,,,,,,,,,,,,,,,,,,,,,,,,,,,,,
,,,,,,,,,,,,,,,89600,001,2022-04-29_13h17.44.377,SPAMnetsValid,2021.1.4,MacIntel,58.82352941,,,,,,,,,,,,,,,,,,,,,,,,,,,,,,,,,,,,,,,,,,,,,,,,,,,,crying on,pillow,12,0,12,0,1,,,,,,,,,,,,,,,,,,,,,,,,,,,,,,,
,,,,,,,,,,,,,,,89600,001,2022-04-29_13h17.44.377,SPAMnetsValid,2021.1.4,MacIntel,58.82352941,,,,,,,,,,,,,,,,,,,,,,,,,,,,,,,,,,,,,,,,,,,,,,,,,,,,,,,,,,,0,2,2,2,1,pillow,,,,,,,,,,,,,,,,,,,,,,,,,
,,,,,,,,,,,,,,,89600,001,2022-04-29_13h17.44.377,SPAMnetsValid,2021.1.4,MacIntel,58.82352941,,,,,,,,,,,,,,,,,,,,,,,,,,,,,,,,,,,,,,,,,,,,,,,,,,,,,,,,,,,,,,,,,toad ,Animals,0,0,0,0,1,,,,,,,,,,,,,,,,,,
,,,,,,,,,,,,,,,89600,001,2022-04-29_13h17.44.377,SPAMnetsValid,2021.1.4,MacIntel,58.82352941,,,,,,,,,,,,,,,,,,,,,,,,,,,,,,,,,,,,,,,,,,,,,,,,,,,,,,,,,,,,,,,,,rabbit,Animals,1,0,1,0,1,,,,,,,,,,,,,,,,,,
,,,,,,,,,,,,,,,89600,001,2022-04-29_13h17.44.377,SPAMnetsValid,2021.1.4,MacIntel,58.82352941,,,,,,,,,,,,,,,,,,,,,,,,,,,,,,,,,,,,,,,,,,,,,,,,,,,,,,,,,,,,,,,,,frog,Animals,2,0,2,0,1,,,,,,,,,,,,,,,,,,
,,,,,,,,,,,,,,,89600,001,2022-04-29_13h17.44.377,SPAMnetsValid,2021.1.4,MacIntel,58.82352941,,,,,,,,,,,,,,,,,,,,,,,,,,,,,,,,,,,,,,,,,,,,,,,,,,,,,,,,,,,,,,,,,snake,Animals,3,0,3,0,1,,,,,,,,,,,,,,,,,,
,,,,,,,,,,,,,,,89600,001,2022-04-29_13h17.44.377,SPAMnetsValid,2021.1.4,MacIntel,58.82352941,,,,,,,,,,,,,,,,,,,,,,,,,,,,,,,,,,,,,,,,,,,,,,,,,,,,,,,,,,,,,,,,,moose,Animals,4,0,4,0,1,,,,,,,,,,,,,,,,,,
,,,,,,,,,,,,,,,89600,001,2022-04-29_13h17.44.377,SPAMnetsValid,2021.1.4,MacIntel,58.82352941,,,,,,,,,,,,,,,,,,,,,,,,,,,,,,,,,,,,,,,,,,,,,,,,,,,,,,,,,,,,,,,,,elk,Animals,5,0,5,0,1,,,,,,,,,,,,,,,,,,
,,,,,,,,,,,,,,,89600,001,2022-04-29_13h17.44.377,SPAMnetsValid,2021.1.4,MacIntel,58.82352941,,,,,,,,,,,,,,,,,,,,,,,,,,,,,,,,,,,,,,,,,,,,,,,,,,,,,,,,,,,,,,,,,deer,Animals,6,0,6,0,1,,,,,,,,,,,,,,,,,,
,,,,,,,,,,,,,,,89600,001,2022-04-29_13h17.44.377,SPAMnetsValid,2021.1.4,MacIntel,58.82352941,,,,,,,,,,,,,,,,,,,,,,,,,,,,,,,,,,,,,,,,,,,,,,,,,,,,,,,,,,,,,,,,,dog,Animals,7,0,7,0,1,,,,,,,,,,,,,,,,,,
,,,,,,,,,,,,,,,89600,001,2022-04-29_13h17.44.377,SPAMnetsValid,2021.1.4,MacIntel,58.82352941,,,,,,,,,,,,,,,,,,,,,,,,,,,,,,,,,,,,,,,,,,,,,,,,,,,,,,,,,,,,,,,,,wolf ,Animals,8,0,8,0,1,,,,,,,,,,,,,,,,,,
,,,,,,,,,,,,,,,89600,001,2022-04-29_13h17.44.377,SPAMnetsValid,2021.1.4,MacIntel,58.82352941,,,,,,,,,,,,,,,,,,,,,,,,,,,,,,,,,,,,,,,,,,,,,,,,,,,,,,,,,,,,,,,,,cyotye ,Animals,9,0,9,0,1,,,,,,,,,,,,,,,,,,
,,,,,,,,,,,,,,,89600,001,2022-04-29_13h17.44.377,SPAMnetsValid,2021.1.4,MacIntel,58.82352941,,,,,,,,,,,,,,,,,,,,,,,,,,,,,,,,,,,,,,,,,,,,,,,,,,,,,,,,,,,,,,,,,cat,Animals,10,0,10,0,1,,,,,,,,,,,,,,,,,,
,,,,,,,,,,,,,,,89600,001,2022-04-29_13h17.44.377,SPAMnetsValid,2021.1.4,MacIntel,58.82352941,,,,,,,,,,,,,,,,,,,,,,,,,,,,,,,,,,,,,,,,,,,,,,,,,,,,,,,,,,,,,,,,,lion,Animals,11,0,11,0,1,,,,,,,,,,,,,,,,,,
,,,,,,,,,,,,,,,89600,001,2022-04-29_13h17.44.377,SPAMnetsValid,2021.1.4,MacIntel,58.82352941,,,,,,,,,,,,,,,,,,,,,,,,,,,,,,,,,,,,,,,,,,,,,,,,,,,,,,,,,,,,,,,,,tiger,Animals,12,0,12,0,1,,,,,,,,,,,,,,,,,,
,,,,,,,,,,,,,,,89600,001,2022-04-29_13h17.44.377,SPAMnetsValid,2021.1.4,MacIntel,58.82352941,,,,,,,,,,,,,,,,,,,,,,,,,,,,,,,,,,,,,,,,,,,,,,,,,,,,,,,,,,,,,,,,,jaguar ,Animals,13,0,13,0,1,,,,,,,,,,,,,,,,,,
,,,,,,,,,,,,,,,89600,001,2022-04-29_13h17.44.377,SPAMnetsValid,2021.1.4,MacIntel,58.82352941,,,,,,,,,,,,,,,,,,,,,,,,,,,,,,,,,,,,,,,,,,,,,,,,,,,,,,,,,,,,,,,,,fish,Animals,14,0,14,0,1,,,,,,,,,,,,,,,,,,
,,,,,,,,,,,,,,,89600,001,2022-04-29_13h17.44.377,SPAMnetsValid,2021.1.4,MacIntel,58.82352941,,,,,,,,,,,,,,,,,,,,,,,,,,,,,,,,,,,,,,,,,,,,,,,,,,,,,,,,,,,,,,,,,whale ,Animals,15,0,15,0,1,,,,,,,,,,,,,,,,,,
,,,,,,,,,,,,,,,89600,001,2022-04-29_13h17.44.377,SPAMnetsValid,2021.1.4,MacIntel,58.82352941,,,,,,,,,,,,,,,,,,,,,,,,,,,,,,,,,,,,,,,,,,,,,,,,,,,,,,,,,,,,,,,,,shark,Animals,16,0,16,0,1,,,,,,,,,,,,,,,,,,
,,,,,,,,,,,,,,,89600,001,2022-04-29_13h17.44.377,SPAMnetsValid,2021.1.4,MacIntel,58.82352941,,,,,,,,,,,,,,,,,,,,,,,,,,,,,,,,,,,,,,,,,,,,,,,,,,,,,,,,,,,,,,,,,sea cucumber ,Animals,17,0,17,0,1,,,,,,,,,,,,,,,,,,
,,,,,,,,,,,,,,,89600,001,2022-04-29_13h17.44.377,SPAMnetsValid,2021.1.4,MacIntel,58.82352941,,,,,,,,,,,,,,,,,,,,,,,,,,,,,,,,,,,,,,,,,,,,,,,,,,,,,,,,,,,,,,,,,krill,Animals,18,0,18,0,1,,,,,,,,,,,,,,,,,,
,,,,,,,,,,,,,,,89600,001,2022-04-29_13h17.44.377,SPAMnetsValid,2021.1.4,MacIntel,58.82352941,,,,,,,,,,,,,,,,,,,,,,,,,,,,,,,,,,,,,,,,,,,,,,,,,,,,,,,,,,,,,,,,,birds,Animals,19,0,19,0,1,,,,,,,,,,,,,,,,,,
,,,,,,,,,,,,,,,89600,001,2022-04-29_13h17.44.377,SPAMnetsValid,2021.1.4,MacIntel,58.82352941,,,,,,,,,,,,,,,,,,,,,,,,,,,,,,,,,,,,,,,,,,,,,,,,,,,,,,,,,,,,,,,,,raccong,Animals,20,0,20,0,1,,,,,,,,,,,,,,,,,,
,,,,,,,,,,,,,,,89600,001,2022-04-29_13h17.44.377,SPAMnetsValid,2021.1.4,MacIntel,58.82352941,,,,,,,,,,,,,,,,,,,,,,,,,,,,,,,,,,,,,,,,,,,,,,,,,,,,,,,,,,,,,,,,,bear,Animals,21,0,21,0,1,,,,,,,,,,,,,,,,,,
,,,,,,,,,,,,,,,89600,001,2022-04-29_13h17.44.377,SPAMnetsValid,2021.1.4,MacIntel,58.82352941,,,,,,,,,,,,,,,,,,,,,,,,,,,,,,,,,,,,,,,,,,,,,,,,,,,,,,,,,,,,,,,,,mosquito ,Animals,22,0,22,0,1,,,,,,,,,,,,,,,,,,
,,,,,,,,,,,,,,,89600,001,2022-04-29_13h17.44.377,SPAMnetsValid,2021.1.4,MacIntel,58.82352941,,,,,,,,,,,,,,,,,,,,,,,,,,,,,,,,,,,,,,,,,,,,,,,,,,,,,,,,,,,,,,,,,fly,Animals,23,0,23,0,1,,,,,,,,,,,,,,,,,,
,,,,,,,,,,,,,,,89600,001,2022-04-29_13h17.44.377,SPAMnetsValid,2021.1.4,MacIntel,58.82352941,,,,,,,,,,,,,,,,,,,,,,,,,,,,,,,,,,,,,,,,,,,,,,,,,,,,,,,,,,,,,,,,,dragonfly,Animals,24,0,24,0,1,,,,,,,,,,,,,,,,,,
,,,,,,,,,,,,,,,89600,001,2022-04-29_13h17.44.377,SPAMnetsValid,2021.1.4,MacIntel,58.82352941,,,,,,,,,,,,,,,,,,,,,,,,,,,,,,,,,,,,,,,,,,,,,,,,,,,,,,,,,,,,,,,,,crabs,Animals,25,0,25,0,1,,,,,,,,,,,,,,,,,,
,,,,,,,,,,,,,,,89600,001,2022-04-29_13h17.44.377,SPAMnetsValid,2021.1.4,MacIntel,58.82352941,,,,,,,,,,,,,,,,,,,,,,,,,,,,,,,,,,,,,,,,,,,,,,,,,,,,,,,,,,,,,,,,,,,,,,,,0,0,0,0,1,Animals,,,,,,,,,,,,
,,,,,,,,,,,,,,,89600,001,2022-04-29_13h17.44.377,SPAMnetsValid,2021.1.4,MacIntel,58.82352941,,,,,,,,,,,,,,,,,,,,,,,,,,,,,,,,,,,,,,,,,,,,,,,,,,,,,,,,,,,,,,,,,,,,,,,,,,,,,,2,4.743,0,0,0,0,1,"I enjoy concentrating on a fantasy or daydream and exploring all its possibilities, letting it grow and develop.",0,1,,
,,,,,,,,,,,,,,,89600,001,2022-04-29_13h17.44.377,SPAMnetsValid,2021.1.4,MacIntel,58.82352941,,,,,,,,,,,,,,,,,,,,,,,,,,,,,,,,,,,,,,,,,,,,,,,,,,,,,,,,,,,,,,,,,,,,,,,,,,,,,,4,2.74,0,1,1,1,1,I think it's interesting to learn and develop new hobbies.,0,2,,
,,,,,,,,,,,,,,,89600,001,2022-04-29_13h17.44.377,SPAMnetsValid,2021.1.4,MacIntel,58.82352941,,,,,,,,,,,,,,,,,,,,,,,,,,,,,,,,,,,,,,,,,,,,,,,,,,,,,,,,,,,,,,,,,,,,,,,,,,,,,,4,1.59,0,2,2,2,1,I am intrigued by the patterns I find in art and nature.,0,3,,
,,,,,,,,,,,,,,,89600,001,2022-04-29_13h17.44.377,SPAMnetsValid,2021.1.4,MacIntel,58.82352941,,,,,,,,,,,,,,,,,,,,,,,,,,,,,,,,,,,,,,,,,,,,,,,,,,,,,,,,,,,,,,,,,,,,,,,,,,,,,,3,5.173,0,3,3,3,1,I believe letting students hear controversial speakers can only confuse and mislead them.,1,4,,
,,,,,,,,,,,,,,,89600,001,2022-04-29_13h17.44.377,SPAMnetsValid,2021.1.4,MacIntel,58.82352941,,,,,,,,,,,,,,,,,,,,,,,,,,,,,,,,,,,,,,,,,,,,,,,,,,,,,,,,,,,,,,,,,,,,,,,,,,,,,,2,16.137,0,4,4,4,1,Poetry has little or no effect on me.,1,5,,
,,,,,,,,,,,,,,,89600,001,2022-04-29_13h17.44.377,SPAMnetsValid,2021.1.4,MacIntel,58.82352941,,,,,,,,,,,,,,,,,,,,,,,,,,,,,,,,,,,,,,,,,,,,,,,,,,,,,,,,,,,,,,,,,,,,,,,,,,,,,,2,6.892,0,5,5,5,1,I would have difficulty just letting my mind wander without control or guidance.,1,6,,
,,,,,,,,,,,,,,,89600,001,2022-04-29_13h17.44.377,SPAMnetsValid,2021.1.4,MacIntel,58.82352941,,,,,,,,,,,,,,,,,,,,,,,,,,,,,,,,,,,,,,,,,,,,,,,,,,,,,,,,,,,,,,,,,,,,,,,,,,,,,,2,2.507,0,6,6,6,1,I seldom notice the moods or feelings that different environments produce.,1,7,,
,,,,,,,,,,,,,,,89600,001,2022-04-29_13h17.44.377,SPAMnetsValid,2021.1.4,MacIntel,58.82352941,,,,,,,,,,,,,,,,,,,,,,,,,,,,,,,,,,,,,,,,,,,,,,,,,,,,,,,,,,,,,,,,,,,,,,,,,,,,,,5,2.152,0,7,7,7,1,I experience a wide range of emotions or feelings.,0,8,,
,,,,,,,,,,,,,,,89600,001,2022-04-29_13h17.44.377,SPAMnetsValid,2021.1.4,MacIntel,58.82352941,,,,,,,,,,,,,,,,,,,,,,,,,,,,,,,,,,,,,,,,,,,,,,,,,,,,,,,,,,,,,,,,,,,,,,,,,,,,,,4,3.207,0,8,8,8,1,"Sometimes when I am reading poetry or looking at a work of art, I feel a chill or wave of excitement.",0,9,,
,,,,,,,,,,,,,,,89600,001,2022-04-29_13h17.44.377,SPAMnetsValid,2021.1.4,MacIntel,58.82352941,,,,,,,,,,,,,,,,,,,,,,,,,,,,,,,,,,,,,,,,,,,,,,,,,,,,,,,,,,,,,,,,,,,,,,,,,,,,,,1,3.571,0,9,9,9,1,I have little interest in speculating on the nature of the universe or the human condition.,1,10,,
,,,,,,,,,,,,,,,89600,001,2022-04-29_13h17.44.377,SPAMnetsValid,2021.1.4,MacIntel,58.82352941,,,,,,,,,,,,,,,,,,,,,,,,,,,,,,,,,,,,,,,,,,,,,,,,,,,,,,,,,,,,,,,,,,,,,,,,,,,,,,4,1.958,0,10,10,10,1,I have a lot of intellectual curiosity.,0,11,,
,,,,,,,,,,,,,,,89600,001,2022-04-29_13h17.44.377,SPAMnetsValid,2021.1.4,MacIntel,58.82352941,,,,,,,,,,,,,,,,,,,,,,,,,,,,,,,,,,,,,,,,,,,,,,,,,,,,,,,,,,,,,,,,,,,,,,,,,,,,,,3,5.59,0,11,11,11,1,I often enjoy playing with theories or abstract ideas.,0,12,,
,,,,,,,,,,,,,,,89600,001,2022-04-29_13h17.44.377,SPAMnetsValid,2021.1.4,MacIntel,58.82352941,,,,,,,,,,,,,,,,,,,,,,,,,,,,,,,,,,,,,,,,,,,,,,,,,,,,,,,,,,,,,,,,,,,,,,,,,,,,,,,,,,,,,,,,return,12.377
