key_resp_3.keys,key_resp_3.rt,slider_2.response,slider_2.rt,rjt_rating,rjt_RT,trials_24.thisRepN,trials_24.thisTrialN,trials_24.thisN,trials_24.thisIndex,trials_24.ran,rjt_order,word1,word2,attention,participant,session,date,expName,psychopyVersion,OS,frameRate,trials_4.thisRepN,trials_4.thisTrialN,trials_4.thisN,trials_4.thisIndex,trials_4.ran,trials_5.thisRepN,trials_5.thisTrialN,trials_5.thisN,trials_5.thisIndex,trials_5.ran,repOne,repTwo,slider.response,slider.rt,trials_22.thisRepN,trials_22.thisTrialN,trials_22.thisN,trials_22.thisIndex,trials_22.ran,trials_99.thisRepN,trials_99.thisTrialN,trials_99.thisN,trials_99.thisIndex,trials_99.ran,slider_extend_2.response,slider_extend_2.rt,trials_6.thisRepN,trials_6.thisTrialN,trials_6.thisN,trials_6.thisIndex,trials_6.ran,vCue2,R1,R2,R3,R4,correct,sliderVocab.response,sliderVocab.rt,trials_7.thisRepN,trials_7.thisTrialN,trials_7.thisN,trials_7.thisIndex,trials_7.ran,VocabCue,VR1,VR2,VR3,VR4,VR5,VocabCorrect,AUT_resp,AUT_label,trials.thisRepN,trials.thisTrialN,trials.thisN,trials.thisIndex,trials.ran,trials_2.thisRepN,trials_2.thisTrialN,trials_2.thisN,trials_2.thisIndex,trials_2.ran,aut_prompt,VF_response,VF_tag,trials_16.thisRepN,trials_16.thisTrialN,trials_16.thisN,trials_16.thisIndex,trials_16.ran,trials_17.thisRepN,trials_17.thisTrialN,trials_17.thisN,trials_17.thisIndex,trials_17.ran,VFcond,open_slider.response,open_slider.rt,trials_3.thisRepN,trials_3.thisTrialN,trials_3.thisN,trials_3.thisIndex,trials_3.ran,OpenQ,Rev,OPEN_ORDER,key_resp_2.keys,key_resp_2.rt
return,22.9945,8,9.664,8,9.664,0,0,0,61,1,138,flower,rose,,89601,001,2022-04-21_19h23.49.786,SPAMnetsValid,2021.1.4,Win32,59.93048064,,,,,,,,,,,,,,,,,,,,,,,,,,,,,,,,,,,,,,,,,,,,,,,,,,,,,,,,,,,,,,,,,,,,,,,,,,,,,,,,,,,,,,,,,
,,2,3.157,2,3.157,0,1,1,91,1,166,cake,yogurt,,89601,001,2022-04-21_19h23.49.786,SPAMnetsValid,2021.1.4,Win32,59.93048064,,,,,,,,,,,,,,,,,,,,,,,,,,,,,,,,,,,,,,,,,,,,,,,,,,,,,,,,,,,,,,,,,,,,,,,,,,,,,,,,,,,,,,,,,
,,7,3.2881,7,3.2881,0,2,2,14,1,120,microwave,oven,,89601,001,2022-04-21_19h23.49.786,SPAMnetsValid,2021.1.4,Win32,59.93048064,,,,,,,,,,,,,,,,,,,,,,,,,,,,,,,,,,,,,,,,,,,,,,,,,,,,,,,,,,,,,,,,,,,,,,,,,,,,,,,,,,,,,,,,,
,,5,3.8228,5,3.8228,0,3,3,76,1,102,chocolate,refrigerator,,89601,001,2022-04-21_19h23.49.786,SPAMnetsValid,2021.1.4,Win32,59.93048064,,,,,,,,,,,,,,,,,,,,,,,,,,,,,,,,,,,,,,,,,,,,,,,,,,,,,,,,,,,,,,,,,,,,,,,,,,,,,,,,,,,,,,,,,
,,1,1.8703,1,1.8703,0,4,4,10,1,118,chocolate,oven,,89601,001,2022-04-21_19h23.49.786,SPAMnetsValid,2021.1.4,Win32,59.93048064,,,,,,,,,,,,,,,,,,,,,,,,,,,,,,,,,,,,,,,,,,,,,,,,,,,,,,,,,,,,,,,,,,,,,,,,,,,,,,,,,,,,,,,,,
,,6,2.9422,6,2.9422,0,5,5,22,1,142,garden,tree,,89601,001,2022-04-21_19h23.49.786,SPAMnetsValid,2021.1.4,Win32,59.93048064,,,,,,,,,,,,,,,,,,,,,,,,,,,,,,,,,,,,,,,,,,,,,,,,,,,,,,,,,,,,,,,,,,,,,,,,,,,,,,,,,,,,,,,,,
,,1,3.4565,1,3.4565,0,6,6,95,1,121,broom,microwave,,89601,001,2022-04-21_19h23.49.786,SPAMnetsValid,2021.1.4,Win32,59.93048064,,,,,,,,,,,,,,,,,,,,,,,,,,,,,,,,,,,,,,,,,,,,,,,,,,,,,,,,,,,,,,,,,,,,,,,,,,,,,,,,,,,,,,,,,
,,1,2.2913,1,2.2913,0,7,7,59,1,164,cookie,garden,,89601,001,2022-04-21_19h23.49.786,SPAMnetsValid,2021.1.4,Win32,59.93048064,,,,,,,,,,,,,,,,,,,,,,,,,,,,,,,,,,,,,,,,,,,,,,,,,,,,,,,,,,,,,,,,,,,,,,,,,,,,,,,,,,,,,,,,,
,,1,1.2171,1,1.2171,0,8,8,45,1,179,broom,oven,,89601,001,2022-04-21_19h23.49.786,SPAMnetsValid,2021.1.4,Win32,59.93048064,,,,,,,,,,,,,,,,,,,,,,,,,,,,,,,,,,,,,,,,,,,,,,,,,,,,,,,,,,,,,,,,,,,,,,,,,,,,,,,,,,,,,,,,,
,,2,1.7448,2,1.7448,0,9,9,93,1,134,carrot,flower,,89601,001,2022-04-21_19h23.49.786,SPAMnetsValid,2021.1.4,Win32,59.93048064,,,,,,,,,,,,,,,,,,,,,,,,,,,,,,,,,,,,,,,,,,,,,,,,,,,,,,,,,,,,,,,,,,,,,,,,,,,,,,,,,,,,,,,,,
,,5,3.1237,5,3.1237,0,10,10,44,1,116,cake,chocolate,,89601,001,2022-04-21_19h23.49.786,SPAMnetsValid,2021.1.4,Win32,59.93048064,,,,,,,,,,,,,,,,,,,,,,,,,,,,,,,,,,,,,,,,,,,,,,,,,,,,,,,,,,,,,,,,,,,,,,,,,,,,,,,,,,,,,,,,,
,,6,8.1057,6,8.1057,0,11,11,7,1,188,flower,tree,,89601,001,2022-04-21_19h23.49.786,SPAMnetsValid,2021.1.4,Win32,59.93048064,,,,,,,,,,,,,,,,,,,,,,,,,,,,,,,,,,,,,,,,,,,,,,,,,,,,,,,,,,,,,,,,,,,,,,,,,,,,,,,,,,,,,,,,,
,,3,2.9864,3,2.9864,0,12,12,89,1,140,cookie,refrigerator,,89601,001,2022-04-21_19h23.49.786,SPAMnetsValid,2021.1.4,Win32,59.93048064,,,,,,,,,,,,,,,,,,,,,,,,,,,,,,,,,,,,,,,,,,,,,,,,,,,,,,,,,,,,,,,,,,,,,,,,,,,,,,,,,,,,,,,,,
,,7,3.6373,7,3.6373,0,13,13,47,1,167,carrot,garden,,89601,001,2022-04-21_19h23.49.786,SPAMnetsValid,2021.1.4,Win32,59.93048064,,,,,,,,,,,,,,,,,,,,,,,,,,,,,,,,,,,,,,,,,,,,,,,,,,,,,,,,,,,,,,,,,,,,,,,,,,,,,,,,,,,,,,,,,
,,9,1.3209,9,1.3209,0,14,14,86,1,193,melon,melon,CHECK,89601,001,2022-04-21_19h23.49.786,SPAMnetsValid,2021.1.4,Win32,59.93048064,,,,,,,,,,,,,,,,,,,,,,,,,,,,,,,,,,,,,,,,,,,,,,,,,,,,,,,,,,,,,,,,,,,,,,,,,,,,,,,,,,,,,,,,,
,,5,3.3687,5,3.3687,0,15,15,37,1,139,carrot,strawberry,,89601,001,2022-04-21_19h23.49.786,SPAMnetsValid,2021.1.4,Win32,59.93048064,,,,,,,,,,,,,,,,,,,,,,,,,,,,,,,,,,,,,,,,,,,,,,,,,,,,,,,,,,,,,,,,,,,,,,,,,,,,,,,,,,,,,,,,,
,,2,98.5455,2,98.5455,0,16,16,78,1,132,broom,tree,,89601,001,2022-04-21_19h23.49.786,SPAMnetsValid,2021.1.4,Win32,59.93048064,,,,,,,,,,,,,,,,,,,,,,,,,,,,,,,,,,,,,,,,,,,,,,,,,,,,,,,,,,,,,,,,,,,,,,,,,,,,,,,,,,,,,,,,,
,,1,2.6107,1,2.6107,0,17,17,32,1,182,flower,refrigerator,,89601,001,2022-04-21_19h23.49.786,SPAMnetsValid,2021.1.4,Win32,59.93048064,,,,,,,,,,,,,,,,,,,,,,,,,,,,,,,,,,,,,,,,,,,,,,,,,,,,,,,,,,,,,,,,,,,,,,,,,,,,,,,,,,,,,,,,,
,,1,1.541,1,1.541,0,18,18,82,1,98,pretzel,strawberry,,89601,001,2022-04-21_19h23.49.786,SPAMnetsValid,2021.1.4,Win32,59.93048064,,,,,,,,,,,,,,,,,,,,,,,,,,,,,,,,,,,,,,,,,,,,,,,,,,,,,,,,,,,,,,,,,,,,,,,,,,,,,,,,,,,,,,,,,
,,2,2.0246,2,2.0246,0,19,19,84,1,130,microwave,yogurt,,89601,001,2022-04-21_19h23.49.786,SPAMnetsValid,2021.1.4,Win32,59.93048064,,,,,,,,,,,,,,,,,,,,,,,,,,,,,,,,,,,,,,,,,,,,,,,,,,,,,,,,,,,,,,,,,,,,,,,,,,,,,,,,,,,,,,,,,
,,5,6.2724,5,6.2724,0,20,20,8,1,97,chocolate,kitchen,,89601,001,2022-04-21_19h23.49.786,SPAMnetsValid,2021.1.4,Win32,59.93048064,,,,,,,,,,,,,,,,,,,,,,,,,,,,,,,,,,,,,,,,,,,,,,,,,,,,,,,,,,,,,,,,,,,,,,,,,,,,,,,,,,,,,,,,,
,,1,1.8212,1,1.8212,0,21,21,67,1,96,oven,strawberry,,89601,001,2022-04-21_19h23.49.786,SPAMnetsValid,2021.1.4,Win32,59.93048064,,,,,,,,,,,,,,,,,,,,,,,,,,,,,,,,,,,,,,,,,,,,,,,,,,,,,,,,,,,,,,,,,,,,,,,,,,,,,,,,,,,,,,,,,
,,1,1.5548,1,1.5548,0,22,22,74,1,128,melon,microwave,,89601,001,2022-04-21_19h23.49.786,SPAMnetsValid,2021.1.4,Win32,59.93048064,,,,,,,,,,,,,,,,,,,,,,,,,,,,,,,,,,,,,,,,,,,,,,,,,,,,,,,,,,,,,,,,,,,,,,,,,,,,,,,,,,,,,,,,,
,,1,1.5106,1,1.5106,0,23,23,79,1,103,pretzel,tomato,,89601,001,2022-04-21_19h23.49.786,SPAMnetsValid,2021.1.4,Win32,59.93048064,,,,,,,,,,,,,,,,,,,,,,,,,,,,,,,,,,,,,,,,,,,,,,,,,,,,,,,,,,,,,,,,,,,,,,,,,,,,,,,,,,,,,,,,,
,,8,1.83,8,1.83,0,24,24,66,1,150,microwave,refrigerator,,89601,001,2022-04-21_19h23.49.786,SPAMnetsValid,2021.1.4,Win32,59.93048064,,,,,,,,,,,,,,,,,,,,,,,,,,,,,,,,,,,,,,,,,,,,,,,,,,,,,,,,,,,,,,,,,,,,,,,,,,,,,,,,,,,,,,,,,
,,7,2.0189,7,2.0189,0,25,25,77,1,172,kitchen,melon,,89601,001,2022-04-21_19h23.49.786,SPAMnetsValid,2021.1.4,Win32,59.93048064,,,,,,,,,,,,,,,,,,,,,,,,,,,,,,,,,,,,,,,,,,,,,,,,,,,,,,,,,,,,,,,,,,,,,,,,,,,,,,,,,,,,,,,,,
,,8,2.0128,8,2.0128,0,26,26,43,1,185,cactus,rose,,89601,001,2022-04-21_19h23.49.786,SPAMnetsValid,2021.1.4,Win32,59.93048064,,,,,,,,,,,,,,,,,,,,,,,,,,,,,,,,,,,,,,,,,,,,,,,,,,,,,,,,,,,,,,,,,,,,,,,,,,,,,,,,,,,,,,,,,
,,1,1.5408,1,1.5408,0,27,27,13,1,105,cactus,oven,,89601,001,2022-04-21_19h23.49.786,SPAMnetsValid,2021.1.4,Win32,59.93048064,,,,,,,,,,,,,,,,,,,,,,,,,,,,,,,,,,,,,,,,,,,,,,,,,,,,,,,,,,,,,,,,,,,,,,,,,,,,,,,,,,,,,,,,,
,,1,121.815,1,121.815,0,28,28,88,1,171,cake,tomato,,89601,001,2022-04-21_19h23.49.786,SPAMnetsValid,2021.1.4,Win32,59.93048064,,,,,,,,,,,,,,,,,,,,,,,,,,,,,,,,,,,,,,,,,,,,,,,,,,,,,,,,,,,,,,,,,,,,,,,,,,,,,,,,,,,,,,,,,
,,2,2.2991,2,2.2991,0,29,29,9,1,176,cactus,tomato,,89601,001,2022-04-21_19h23.49.786,SPAMnetsValid,2021.1.4,Win32,59.93048064,,,,,,,,,,,,,,,,,,,,,,,,,,,,,,,,,,,,,,,,,,,,,,,,,,,,,,,,,,,,,,,,,,,,,,,,,,,,,,,,,,,,,,,,,
,,1,1.3656,1,1.3656,0,30,30,58,1,144,cake,garden,,89601,001,2022-04-21_19h23.49.786,SPAMnetsValid,2021.1.4,Win32,59.93048064,,,,,,,,,,,,,,,,,,,,,,,,,,,,,,,,,,,,,,,,,,,,,,,,,,,,,,,,,,,,,,,,,,,,,,,,,,,,,,,,,,,,,,,,,
,,1,1.04,1,1.04,0,31,31,2,1,174,cake,pretzel,,89601,001,2022-04-21_19h23.49.786,SPAMnetsValid,2021.1.4,Win32,59.93048064,,,,,,,,,,,,,,,,,,,,,,,,,,,,,,,,,,,,,,,,,,,,,,,,,,,,,,,,,,,,,,,,,,,,,,,,,,,,,,,,,,,,,,,,,
,,4,2.4463,4,2.4463,0,32,32,94,1,133,cake,flower,,89601,001,2022-04-21_19h23.49.786,SPAMnetsValid,2021.1.4,Win32,59.93048064,,,,,,,,,,,,,,,,,,,,,,,,,,,,,,,,,,,,,,,,,,,,,,,,,,,,,,,,,,,,,,,,,,,,,,,,,,,,,,,,,,,,,,,,,
,,2,1.0657,2,1.0657,0,33,33,49,1,152,cactus,strawberry,,89601,001,2022-04-21_19h23.49.786,SPAMnetsValid,2021.1.4,Win32,59.93048064,,,,,,,,,,,,,,,,,,,,,,,,,,,,,,,,,,,,,,,,,,,,,,,,,,,,,,,,,,,,,,,,,,,,,,,,,,,,,,,,,,,,,,,,,
,,1,1.0852,1,1.0852,0,34,34,55,1,143,pretzel,rose,,89601,001,2022-04-21_19h23.49.786,SPAMnetsValid,2021.1.4,Win32,59.93048064,,,,,,,,,,,,,,,,,,,,,,,,,,,,,,,,,,,,,,,,,,,,,,,,,,,,,,,,,,,,,,,,,,,,,,,,,,,,,,,,,,,,,,,,,
,,8,2.7356,8,2.7356,0,35,35,51,1,168,cactus,flower,,89601,001,2022-04-21_19h23.49.786,SPAMnetsValid,2021.1.4,Win32,59.93048064,,,,,,,,,,,,,,,,,,,,,,,,,,,,,,,,,,,,,,,,,,,,,,,,,,,,,,,,,,,,,,,,,,,,,,,,,,,,,,,,,,,,,,,,,
,,4,4.5982,4,4.5982,0,36,36,29,1,163,melon,refrigerator,,89601,001,2022-04-21_19h23.49.786,SPAMnetsValid,2021.1.4,Win32,59.93048064,,,,,,,,,,,,,,,,,,,,,,,,,,,,,,,,,,,,,,,,,,,,,,,,,,,,,,,,,,,,,,,,,,,,,,,,,,,,,,,,,,,,,,,,,
,,1,11.6441,1,11.6441,0,37,37,41,1,175,melon,onion,,89601,001,2022-04-21_19h23.49.786,SPAMnetsValid,2021.1.4,Win32,59.93048064,,,,,,,,,,,,,,,,,,,,,,,,,,,,,,,,,,,,,,,,,,,,,,,,,,,,,,,,,,,,,,,,,,,,,,,,,,,,,,,,,,,,,,,,,
,,4,1.878,4,1.878,0,38,38,72,1,181,carrot,kitchen,,89601,001,2022-04-21_19h23.49.786,SPAMnetsValid,2021.1.4,Win32,59.93048064,,,,,,,,,,,,,,,,,,,,,,,,,,,,,,,,,,,,,,,,,,,,,,,,,,,,,,,,,,,,,,,,,,,,,,,,,,,,,,,,,,,,,,,,,
,,4,9.8957,4,9.8957,0,39,39,19,1,183,cake,rose,,89601,001,2022-04-21_19h23.49.786,SPAMnetsValid,2021.1.4,Win32,59.93048064,,,,,,,,,,,,,,,,,,,,,,,,,,,,,,,,,,,,,,,,,,,,,,,,,,,,,,,,,,,,,,,,,,,,,,,,,,,,,,,,,,,,,,,,,
,,3,3.3674,3,3.3674,0,40,40,42,1,184,oven,pretzel,,89601,001,2022-04-21_19h23.49.786,SPAMnetsValid,2021.1.4,Win32,59.93048064,,,,,,,,,,,,,,,,,,,,,,,,,,,,,,,,,,,,,,,,,,,,,,,,,,,,,,,,,,,,,,,,,,,,,,,,,,,,,,,,,,,,,,,,,
,,1,1.6219,1,1.6219,0,41,41,70,1,141,melon,tomato,,89601,001,2022-04-21_19h23.49.786,SPAMnetsValid,2021.1.4,Win32,59.93048064,,,,,,,,,,,,,,,,,,,,,,,,,,,,,,,,,,,,,,,,,,,,,,,,,,,,,,,,,,,,,,,,,,,,,,,,,,,,,,,,,,,,,,,,,
,,3,2.0541,3,2.0541,0,42,42,21,1,159,cookie,flower,,89601,001,2022-04-21_19h23.49.786,SPAMnetsValid,2021.1.4,Win32,59.93048064,,,,,,,,,,,,,,,,,,,,,,,,,,,,,,,,,,,,,,,,,,,,,,,,,,,,,,,,,,,,,,,,,,,,,,,,,,,,,,,,,,,,,,,,,
,,6,1.6982,6,1.6982,0,43,43,53,1,177,chocolate,strawberry,,89601,001,2022-04-21_19h23.49.786,SPAMnetsValid,2021.1.4,Win32,59.93048064,,,,,,,,,,,,,,,,,,,,,,,,,,,,,,,,,,,,,,,,,,,,,,,,,,,,,,,,,,,,,,,,,,,,,,,,,,,,,,,,,,,,,,,,,
,,1,1.2021,1,1.2021,0,44,44,24,1,169,onion,yogurt,,89601,001,2022-04-21_19h23.49.786,SPAMnetsValid,2021.1.4,Win32,59.93048064,,,,,,,,,,,,,,,,,,,,,,,,,,,,,,,,,,,,,,,,,,,,,,,,,,,,,,,,,,,,,,,,,,,,,,,,,,,,,,,,,,,,,,,,,
,,1,0.8782,1,0.8782,0,45,45,3,1,129,cactus,refrigerator,,89601,001,2022-04-21_19h23.49.786,SPAMnetsValid,2021.1.4,Win32,59.93048064,,,,,,,,,,,,,,,,,,,,,,,,,,,,,,,,,,,,,,,,,,,,,,,,,,,,,,,,,,,,,,,,,,,,,,,,,,,,,,,,,,,,,,,,,
,,1,1.8219,1,1.8219,0,46,46,62,1,189,onion,tree,,89601,001,2022-04-21_19h23.49.786,SPAMnetsValid,2021.1.4,Win32,59.93048064,,,,,,,,,,,,,,,,,,,,,,,,,,,,,,,,,,,,,,,,,,,,,,,,,,,,,,,,,,,,,,,,,,,,,,,,,,,,,,,,,,,,,,,,,
,,4,1.6679,4,1.6679,0,47,47,1,1,173,kitchen,tomato,,89601,001,2022-04-21_19h23.49.786,SPAMnetsValid,2021.1.4,Win32,59.93048064,,,,,,,,,,,,,,,,,,,,,,,,,,,,,,,,,,,,,,,,,,,,,,,,,,,,,,,,,,,,,,,,,,,,,,,,,,,,,,,,,,,,,,,,,
,,1,3.1453,1,3.1453,0,48,48,75,1,178,cactus,carrot,,89601,001,2022-04-21_19h23.49.786,SPAMnetsValid,2021.1.4,Win32,59.93048064,,,,,,,,,,,,,,,,,,,,,,,,,,,,,,,,,,,,,,,,,,,,,,,,,,,,,,,,,,,,,,,,,,,,,,,,,,,,,,,,,,,,,,,,,
,,1,1.4818,1,1.4818,0,49,49,57,1,127,cactus,chocolate,,89601,001,2022-04-21_19h23.49.786,SPAMnetsValid,2021.1.4,Win32,59.93048064,,,,,,,,,,,,,,,,,,,,,,,,,,,,,,,,,,,,,,,,,,,,,,,,,,,,,,,,,,,,,,,,,,,,,,,,,,,,,,,,,,,,,,,,,
,,2,32.2118,2,32.2118,0,50,50,16,1,111,carrot,microwave,,89601,001,2022-04-21_19h23.49.786,SPAMnetsValid,2021.1.4,Win32,59.93048064,,,,,,,,,,,,,,,,,,,,,,,,,,,,,,,,,,,,,,,,,,,,,,,,,,,,,,,,,,,,,,,,,,,,,,,,,,,,,,,,,,,,,,,,,
,,1,1.4663,1,1.4663,0,51,51,5,1,108,carrot,chocolate,,89601,001,2022-04-21_19h23.49.786,SPAMnetsValid,2021.1.4,Win32,59.93048064,,,,,,,,,,,,,,,,,,,,,,,,,,,,,,,,,,,,,,,,,,,,,,,,,,,,,,,,,,,,,,,,,,,,,,,,,,,,,,,,,,,,,,,,,
,,2,1.6064,2,1.6064,0,52,52,23,1,148,flower,melon,,89601,001,2022-04-21_19h23.49.786,SPAMnetsValid,2021.1.4,Win32,59.93048064,,,,,,,,,,,,,,,,,,,,,,,,,,,,,,,,,,,,,,,,,,,,,,,,,,,,,,,,,,,,,,,,,,,,,,,,,,,,,,,,,,,,,,,,,
,,2,1.031,2,1.031,0,53,53,31,1,156,melon,rose,,89601,001,2022-04-21_19h23.49.786,SPAMnetsValid,2021.1.4,Win32,59.93048064,,,,,,,,,,,,,,,,,,,,,,,,,,,,,,,,,,,,,,,,,,,,,,,,,,,,,,,,,,,,,,,,,,,,,,,,,,,,,,,,,,,,,,,,,
,,5,2.8356,5,2.8356,0,54,54,85,1,115,refrigerator,tomato,,89601,001,2022-04-21_19h23.49.786,SPAMnetsValid,2021.1.4,Win32,59.93048064,,,,,,,,,,,,,,,,,,,,,,,,,,,,,,,,,,,,,,,,,,,,,,,,,,,,,,,,,,,,,,,,,,,,,,,,,,,,,,,,,,,,,,,,,
,,2,3.445,2,3.445,0,55,55,26,1,107,rose,tomato,,89601,001,2022-04-21_19h23.49.786,SPAMnetsValid,2021.1.4,Win32,59.93048064,,,,,,,,,,,,,,,,,,,,,,,,,,,,,,,,,,,,,,,,,,,,,,,,,,,,,,,,,,,,,,,,,,,,,,,,,,,,,,,,,,,,,,,,,
,,2,1.2525,2,1.2525,0,56,56,96,1,136,chocolate,microwave,,89601,001,2022-04-21_19h23.49.786,SPAMnetsValid,2021.1.4,Win32,59.93048064,,,,,,,,,,,,,,,,,,,,,,,,,,,,,,,,,,,,,,,,,,,,,,,,,,,,,,,,,,,,,,,,,,,,,,,,,,,,,,,,,,,,,,,,,
,,1,1.3047,1,1.3047,0,57,57,17,1,99,garden,melon,,89601,001,2022-04-21_19h23.49.786,SPAMnetsValid,2021.1.4,Win32,59.93048064,,,,,,,,,,,,,,,,,,,,,,,,,,,,,,,,,,,,,,,,,,,,,,,,,,,,,,,,,,,,,,,,,,,,,,,,,,,,,,,,,,,,,,,,,
,,6,1.8509,6,1.8509,0,58,58,36,1,161,kitchen,pretzel,,89601,001,2022-04-21_19h23.49.786,SPAMnetsValid,2021.1.4,Win32,59.93048064,,,,,,,,,,,,,,,,,,,,,,,,,,,,,,,,,,,,,,,,,,,,,,,,,,,,,,,,,,,,,,,,,,,,,,,,,,,,,,,,,,,,,,,,,
,,5,10.2249,5,10.2249,0,59,59,33,1,131,cactus,garden,,89601,001,2022-04-21_19h23.49.786,SPAMnetsValid,2021.1.4,Win32,59.93048064,,,,,,,,,,,,,,,,,,,,,,,,,,,,,,,,,,,,,,,,,,,,,,,,,,,,,,,,,,,,,,,,,,,,,,,,,,,,,,,,,,,,,,,,,
,,5,1.4682,5,1.4682,0,60,60,15,1,145,cactus,yogurt,,89601,001,2022-04-21_19h23.49.786,SPAMnetsValid,2021.1.4,Win32,59.93048064,,,,,,,,,,,,,,,,,,,,,,,,,,,,,,,,,,,,,,,,,,,,,,,,,,,,,,,,,,,,,,,,,,,,,,,,,,,,,,,,,,,,,,,,,
,,6,4.3685,6,4.3685,0,61,61,48,1,186,kitchen,yogurt,,89601,001,2022-04-21_19h23.49.786,SPAMnetsValid,2021.1.4,Win32,59.93048064,,,,,,,,,,,,,,,,,,,,,,,,,,,,,,,,,,,,,,,,,,,,,,,,,,,,,,,,,,,,,,,,,,,,,,,,,,,,,,,,,,,,,,,,,
,,4,3.5704,4,3.5704,0,62,62,11,1,117,melon,strawberry,,89601,001,2022-04-21_19h23.49.786,SPAMnetsValid,2021.1.4,Win32,59.93048064,,,,,,,,,,,,,,,,,,,,,,,,,,,,,,,,,,,,,,,,,,,,,,,,,,,,,,,,,,,,,,,,,,,,,,,,,,,,,,,,,,,,,,,,,
,,7,2.4558,7,2.4558,0,63,63,60,1,122,flower,garden,,89601,001,2022-04-21_19h23.49.786,SPAMnetsValid,2021.1.4,Win32,59.93048064,,,,,,,,,,,,,,,,,,,,,,,,,,,,,,,,,,,,,,,,,,,,,,,,,,,,,,,,,,,,,,,,,,,,,,,,,,,,,,,,,,,,,,,,,
,,7,2.0994,7,2.0994,0,64,64,83,1,100,garden,tomato,,89601,001,2022-04-21_19h23.49.786,SPAMnetsValid,2021.1.4,Win32,59.93048064,,,,,,,,,,,,,,,,,,,,,,,,,,,,,,,,,,,,,,,,,,,,,,,,,,,,,,,,,,,,,,,,,,,,,,,,,,,,,,,,,,,,,,,,,
,,9,2.3684,9,2.3684,0,65,65,52,1,110,chocolate,cookie,,89601,001,2022-04-21_19h23.49.786,SPAMnetsValid,2021.1.4,Win32,59.93048064,,,,,,,,,,,,,,,,,,,,,,,,,,,,,,,,,,,,,,,,,,,,,,,,,,,,,,,,,,,,,,,,,,,,,,,,,,,,,,,,,,,,,,,,,
,,7,1.868,7,1.868,0,66,66,56,1,113,refrigerator,strawberry,,89601,001,2022-04-21_19h23.49.786,SPAMnetsValid,2021.1.4,Win32,59.93048064,,,,,,,,,,,,,,,,,,,,,,,,,,,,,,,,,,,,,,,,,,,,,,,,,,,,,,,,,,,,,,,,,,,,,,,,,,,,,,,,,,,,,,,,,
,,7,1.768,7,1.768,0,67,67,27,1,158,cookie,oven,,89601,001,2022-04-21_19h23.49.786,SPAMnetsValid,2021.1.4,Win32,59.93048064,,,,,,,,,,,,,,,,,,,,,,,,,,,,,,,,,,,,,,,,,,,,,,,,,,,,,,,,,,,,,,,,,,,,,,,,,,,,,,,,,,,,,,,,,
,,7,2.0845,7,2.0845,0,68,68,92,1,170,cookie,microwave,,89601,001,2022-04-21_19h23.49.786,SPAMnetsValid,2021.1.4,Win32,59.93048064,,,,,,,,,,,,,,,,,,,,,,,,,,,,,,,,,,,,,,,,,,,,,,,,,,,,,,,,,,,,,,,,,,,,,,,,,,,,,,,,,,,,,,,,,
,,2,2.4214,2,2.4214,0,69,69,39,1,112,cake,carrot,,89601,001,2022-04-21_19h23.49.786,SPAMnetsValid,2021.1.4,Win32,59.93048064,,,,,,,,,,,,,,,,,,,,,,,,,,,,,,,,,,,,,,,,,,,,,,,,,,,,,,,,,,,,,,,,,,,,,,,,,,,,,,,,,,,,,,,,,
,,1,0.9137,1,0.9137,0,70,70,40,1,165,onion,rose,,89601,001,2022-04-21_19h23.49.786,SPAMnetsValid,2021.1.4,Win32,59.93048064,,,,,,,,,,,,,,,,,,,,,,,,,,,,,,,,,,,,,,,,,,,,,,,,,,,,,,,,,,,,,,,,,,,,,,,,,,,,,,,,,,,,,,,,,
,,1,1.6214,1,1.6214,0,71,71,38,1,155,carrot,cookie,,89601,001,2022-04-21_19h23.49.786,SPAMnetsValid,2021.1.4,Win32,59.93048064,,,,,,,,,,,,,,,,,,,,,,,,,,,,,,,,,,,,,,,,,,,,,,,,,,,,,,,,,,,,,,,,,,,,,,,,,,,,,,,,,,,,,,,,,
,,8,2.1768,8,2.1768,0,72,72,28,1,154,strawberry,yogurt,,89601,001,2022-04-21_19h23.49.786,SPAMnetsValid,2021.1.4,Win32,59.93048064,,,,,,,,,,,,,,,,,,,,,,,,,,,,,,,,,,,,,,,,,,,,,,,,,,,,,,,,,,,,,,,,,,,,,,,,,,,,,,,,,,,,,,,,,
,,9,2.3659,9,2.3659,0,73,73,35,1,147,cake,refrigerator,,89601,001,2022-04-21_19h23.49.786,SPAMnetsValid,2021.1.4,Win32,59.93048064,,,,,,,,,,,,,,,,,,,,,,,,,,,,,,,,,,,,,,,,,,,,,,,,,,,,,,,,,,,,,,,,,,,,,,,,,,,,,,,,,,,,,,,,,
,,8,1.8036,8,1.8036,0,74,74,69,1,124,oven,refrigerator,,89601,001,2022-04-21_19h23.49.786,SPAMnetsValid,2021.1.4,Win32,59.93048064,,,,,,,,,,,,,,,,,,,,,,,,,,,,,,,,,,,,,,,,,,,,,,,,,,,,,,,,,,,,,,,,,,,,,,,,,,,,,,,,,,,,,,,,,
,,1,2.5848,1,2.5848,0,75,75,12,1,162,microwave,tomato,,89601,001,2022-04-21_19h23.49.786,SPAMnetsValid,2021.1.4,Win32,59.93048064,,,,,,,,,,,,,,,,,,,,,,,,,,,,,,,,,,,,,,,,,,,,,,,,,,,,,,,,,,,,,,,,,,,,,,,,,,,,,,,,,,,,,,,,,
,,2,1.9906,2,1.9906,0,76,76,46,1,123,cookie,tree,,89601,001,2022-04-21_19h23.49.786,SPAMnetsValid,2021.1.4,Win32,59.93048064,,,,,,,,,,,,,,,,,,,,,,,,,,,,,,,,,,,,,,,,,,,,,,,,,,,,,,,,,,,,,,,,,,,,,,,,,,,,,,,,,,,,,,,,,
,,1,1.8017,1,1.8017,0,77,77,4,1,109,broom,strawberry,,89601,001,2022-04-21_19h23.49.786,SPAMnetsValid,2021.1.4,Win32,59.93048064,,,,,,,,,,,,,,,,,,,,,,,,,,,,,,,,,,,,,,,,,,,,,,,,,,,,,,,,,,,,,,,,,,,,,,,,,,,,,,,,,,,,,,,,,
,,3,1.6335,3,1.6335,0,78,78,80,1,146,pretzel,tree,,89601,001,2022-04-21_19h23.49.786,SPAMnetsValid,2021.1.4,Win32,59.93048064,,,,,,,,,,,,,,,,,,,,,,,,,,,,,,,,,,,,,,,,,,,,,,,,,,,,,,,,,,,,,,,,,,,,,,,,,,,,,,,,,,,,,,,,,
,,8,3.2839,8,3.2839,0,79,79,0,1,106,cake,strawberry,,89601,001,2022-04-21_19h23.49.786,SPAMnetsValid,2021.1.4,Win32,59.93048064,,,,,,,,,,,,,,,,,,,,,,,,,,,,,,,,,,,,,,,,,,,,,,,,,,,,,,,,,,,,,,,,,,,,,,,,,,,,,,,,,,,,,,,,,
,,8,1.8521,8,1.8521,0,80,80,65,1,160,cookie,kitchen,,89601,001,2022-04-21_19h23.49.786,SPAMnetsValid,2021.1.4,Win32,59.93048064,,,,,,,,,,,,,,,,,,,,,,,,,,,,,,,,,,,,,,,,,,,,,,,,,,,,,,,,,,,,,,,,,,,,,,,,,,,,,,,,,,,,,,,,,
,,1,2.4016,1,2.4016,0,81,81,18,1,119,strawberry,tree,,89601,001,2022-04-21_19h23.49.786,SPAMnetsValid,2021.1.4,Win32,59.93048064,,,,,,,,,,,,,,,,,,,,,,,,,,,,,,,,,,,,,,,,,,,,,,,,,,,,,,,,,,,,,,,,,,,,,,,,,,,,,,,,,,,,,,,,,
,,9,1.9671,9,1.9671,0,82,82,25,1,194,cactus,cactus,CHECK,89601,001,2022-04-21_19h23.49.786,SPAMnetsValid,2021.1.4,Win32,59.93048064,,,,,,,,,,,,,,,,,,,,,,,,,,,,,,,,,,,,,,,,,,,,,,,,,,,,,,,,,,,,,,,,,,,,,,,,,,,,,,,,,,,,,,,,,
,,1,33.2219,1,33.2219,0,83,83,71,1,187,cactus,microwave,,89601,001,2022-04-21_19h23.49.786,SPAMnetsValid,2021.1.4,Win32,59.93048064,,,,,,,,,,,,,,,,,,,,,,,,,,,,,,,,,,,,,,,,,,,,,,,,,,,,,,,,,,,,,,,,,,,,,,,,,,,,,,,,,,,,,,,,,
,,1,1.0799,1,1.0799,0,84,84,90,1,190,microwave,strawberry,,89601,001,2022-04-21_19h23.49.786,SPAMnetsValid,2021.1.4,Win32,59.93048064,,,,,,,,,,,,,,,,,,,,,,,,,,,,,,,,,,,,,,,,,,,,,,,,,,,,,,,,,,,,,,,,,,,,,,,,,,,,,,,,,,,,,,,,,
,,1,0.8681,1,0.8681,0,85,85,30,1,125,carrot,tree,,89601,001,2022-04-21_19h23.49.786,SPAMnetsValid,2021.1.4,Win32,59.93048064,,,,,,,,,,,,,,,,,,,,,,,,,,,,,,,,,,,,,,,,,,,,,,,,,,,,,,,,,,,,,,,,,,,,,,,,,,,,,,,,,,,,,,,,,
,,4,2.0203,4,2.0203,0,86,86,87,1,114,cookie,strawberry,,89601,001,2022-04-21_19h23.49.786,SPAMnetsValid,2021.1.4,Win32,59.93048064,,,,,,,,,,,,,,,,,,,,,,,,,,,,,,,,,,,,,,,,,,,,,,,,,,,,,,,,,,,,,,,,,,,,,,,,,,,,,,,,,,,,,,,,,
,,1,33.0934,1,33.0934,0,87,87,63,1,137,microwave,tree,,89601,001,2022-04-21_19h23.49.786,SPAMnetsValid,2021.1.4,Win32,59.93048064,,,,,,,,,,,,,,,,,,,,,,,,,,,,,,,,,,,,,,,,,,,,,,,,,,,,,,,,,,,,,,,,,,,,,,,,,,,,,,,,,,,,,,,,,
,,2,1.6572,2,1.6572,0,88,88,73,1,135,carrot,oven,,89601,001,2022-04-21_19h23.49.786,SPAMnetsValid,2021.1.4,Win32,59.93048064,,,,,,,,,,,,,,,,,,,,,,,,,,,,,,,,,,,,,,,,,,,,,,,,,,,,,,,,,,,,,,,,,,,,,,,,,,,,,,,,,,,,,,,,,
,,1,1.5148,1,1.5148,0,89,89,68,1,180,tree,yogurt,,89601,001,2022-04-21_19h23.49.786,SPAMnetsValid,2021.1.4,Win32,59.93048064,,,,,,,,,,,,,,,,,,,,,,,,,,,,,,,,,,,,,,,,,,,,,,,,,,,,,,,,,,,,,,,,,,,,,,,,,,,,,,,,,,,,,,,,,
,,1,1.2515,1,1.2515,0,90,90,6,1,151,microwave,onion,,89601,001,2022-04-21_19h23.49.786,SPAMnetsValid,2021.1.4,Win32,59.93048064,,,,,,,,,,,,,,,,,,,,,,,,,,,,,,,,,,,,,,,,,,,,,,,,,,,,,,,,,,,,,,,,,,,,,,,,,,,,,,,,,,,,,,,,,
,,1,0.8185,1,0.8185,0,91,91,20,1,149,broom,tomato,,89601,001,2022-04-21_19h23.49.786,SPAMnetsValid,2021.1.4,Win32,59.93048064,,,,,,,,,,,,,,,,,,,,,,,,,,,,,,,,,,,,,,,,,,,,,,,,,,,,,,,,,,,,,,,,,,,,,,,,,,,,,,,,,,,,,,,,,
,,1,1.1496,1,1.1496,0,92,92,50,1,126,kitchen,tree,,89601,001,2022-04-21_19h23.49.786,SPAMnetsValid,2021.1.4,Win32,59.93048064,,,,,,,,,,,,,,,,,,,,,,,,,,,,,,,,,,,,,,,,,,,,,,,,,,,,,,,,,,,,,,,,,,,,,,,,,,,,,,,,,,,,,,,,,
,,1,1.1816,1,1.1816,0,93,93,54,1,101,cactus,kitchen,,89601,001,2022-04-21_19h23.49.786,SPAMnetsValid,2021.1.4,Win32,59.93048064,,,,,,,,,,,,,,,,,,,,,,,,,,,,,,,,,,,,,,,,,,,,,,,,,,,,,,,,,,,,,,,,,,,,,,,,,,,,,,,,,,,,,,,,,
,,1,1.724,1,1.724,0,94,94,81,1,104,garden,microwave,,89601,001,2022-04-21_19h23.49.786,SPAMnetsValid,2021.1.4,Win32,59.93048064,,,,,,,,,,,,,,,,,,,,,,,,,,,,,,,,,,,,,,,,,,,,,,,,,,,,,,,,,,,,,,,,,,,,,,,,,,,,,,,,,,,,,,,,,
,,2,2.8845,2,2.8845,0,95,95,34,1,153,carrot,pretzel,,89601,001,2022-04-21_19h23.49.786,SPAMnetsValid,2021.1.4,Win32,59.93048064,,,,,,,,,,,,,,,,,,,,,,,,,,,,,,,,,,,,,,,,,,,,,,,,,,,,,,,,,,,,,,,,,,,,,,,,,,,,,,,,,,,,,,,,,
,,1,1.1444,1,1.1444,0,96,96,64,1,157,refrigerator,rose,,89601,001,2022-04-21_19h23.49.786,SPAMnetsValid,2021.1.4,Win32,59.93048064,,,,,,,,,,,,,,,,,,,,,,,,,,,,,,,,,,,,,,,,,,,,,,,,,,,,,,,,,,,,,,,,,,,,,,,,,,,,,,,,,,,,,,,,,
,,,,,,,,,,,,,,,89601,001,2022-04-21_19h23.49.786,SPAMnetsValid,2021.1.4,Win32,59.93048064,0,0,0,0,1,,,,,,,,,,,,,,,,,,,,,,,,,,,,,,,,,,,,,,,,,,,,,,,,,,,,,,,,,,,,,,,,,,,,,,,,,,,,,,,,,,,,
,,,,,,,,,,,,,,,89601,001,2022-04-21_19h23.49.786,SPAMnetsValid,2021.1.4,Win32,59.93048064,,,,,,0,0,0,1,1,0,1,,,,,,,,,,,,,,,,,,,,,,,,,,,,,,,,,,,,,,,,,,,,,,,,,,,,,,,,,,,,,,,,,,,,,,,,,,,,,
,,,,1,10.0524,,,,,,5,oven,tree,,89601,001,2022-04-21_19h23.49.786,SPAMnetsValid,2021.1.4,Win32,59.93048064,,,,,,,,,,,,,1,10.0524,0,0,0,70,1,,,,,,,,,,,,,,,,,,,,,,,,,,,,,,,,,,,,,,,,,,,,,,,,,,,,,,,,,,,,,,,,,,,,,,
,,,,1,25.5925,,,,,,53,garden,pretzel,,89601,001,2022-04-21_19h23.49.786,SPAMnetsValid,2021.1.4,Win32,59.93048064,,,,,,,,,,,,,1,25.5925,0,1,1,0,1,,,,,,,,,,,,,,,,,,,,,,,,,,,,,,,,,,,,,,,,,,,,,,,,,,,,,,,,,,,,,,,,,,,,,,
,,,,1,1.4064,,,,,,29,chocolate,melon,,89601,001,2022-04-21_19h23.49.786,SPAMnetsValid,2021.1.4,Win32,59.93048064,,,,,,,,,,,,,1,1.4064,0,2,2,34,1,,,,,,,,,,,,,,,,,,,,,,,,,,,,,,,,,,,,,,,,,,,,,,,,,,,,,,,,,,,,,,,,,,,,,,
,,,,3,1.768,,,,,,19,microwave,pretzel,,89601,001,2022-04-21_19h23.49.786,SPAMnetsValid,2021.1.4,Win32,59.93048064,,,,,,,,,,,,,3,1.768,0,3,3,41,1,,,,,,,,,,,,,,,,,,,,,,,,,,,,,,,,,,,,,,,,,,,,,,,,,,,,,,,,,,,,,,,,,,,,,,
,,,,7,3.2682,,,,,,3,cake,oven,,89601,001,2022-04-21_19h23.49.786,SPAMnetsValid,2021.1.4,Win32,59.93048064,,,,,,,,,,,,,7,3.2682,0,4,4,30,1,,,,,,,,,,,,,,,,,,,,,,,,,,,,,,,,,,,,,,,,,,,,,,,,,,,,,,,,,,,,,,,,,,,,,,
,,,,4,25.294,,,,,,36,broom,kitchen,,89601,001,2022-04-21_19h23.49.786,SPAMnetsValid,2021.1.4,Win32,59.93048064,,,,,,,,,,,,,4,25.294,0,5,5,76,1,,,,,,,,,,,,,,,,,,,,,,,,,,,,,,,,,,,,,,,,,,,,,,,,,,,,,,,,,,,,,,,,,,,,,,
,,,,3,2.5346,,,,,,8,broom,melon,,89601,001,2022-04-21_19h23.49.786,SPAMnetsValid,2021.1.4,Win32,59.93048064,,,,,,,,,,,,,3,2.5346,0,6,6,59,1,,,,,,,,,,,,,,,,,,,,,,,,,,,,,,,,,,,,,,,,,,,,,,,,,,,,,,,,,,,,,,,,,,,,,,
,,,,1,1.8733,,,,,,95,broom,refrigerator,,89601,001,2022-04-21_19h23.49.786,SPAMnetsValid,2021.1.4,Win32,59.93048064,,,,,,,,,,,,,1,1.8733,0,7,7,90,1,,,,,,,,,,,,,,,,,,,,,,,,,,,,,,,,,,,,,,,,,,,,,,,,,,,,,,,,,,,,,,,,,,,,,,
,,,,1,1.8947,,,,,,60,cactus,onion,,89601,001,2022-04-21_19h23.49.786,SPAMnetsValid,2021.1.4,Win32,59.93048064,,,,,,,,,,,,,1,1.8947,0,8,8,81,1,,,,,,,,,,,,,,,,,,,,,,,,,,,,,,,,,,,,,,,,,,,,,,,,,,,,,,,,,,,,,,,,,,,,,,
,,,,3,2.8616,,,,,,42,garden,kitchen,,89601,001,2022-04-21_19h23.49.786,SPAMnetsValid,2021.1.4,Win32,59.93048064,,,,,,,,,,,,,3,2.8616,0,9,9,29,1,,,,,,,,,,,,,,,,,,,,,,,,,,,,,,,,,,,,,,,,,,,,,,,,,,,,,,,,,,,,,,,,,,,,,,
,,,,1,1.8788,,,,,,92,broom,flower,,89601,001,2022-04-21_19h23.49.786,SPAMnetsValid,2021.1.4,Win32,59.93048064,,,,,,,,,,,,,1,1.8788,0,10,10,88,1,,,,,,,,,,,,,,,,,,,,,,,,,,,,,,,,,,,,,,,,,,,,,,,,,,,,,,,,,,,,,,,,,,,,,,
,,,,1,1.4642,,,,,,21,cake,onion,,89601,001,2022-04-21_19h23.49.786,SPAMnetsValid,2021.1.4,Win32,59.93048064,,,,,,,,,,,,,1,1.4642,0,11,11,63,1,,,,,,,,,,,,,,,,,,,,,,,,,,,,,,,,,,,,,,,,,,,,,,,,,,,,,,,,,,,,,,,,,,,,,,
,,,,2,1.8492,,,,,,55,tomato,tree,,89601,001,2022-04-21_19h23.49.786,SPAMnetsValid,2021.1.4,Win32,59.93048064,,,,,,,,,,,,,2,1.8492,0,12,12,35,1,,,,,,,,,,,,,,,,,,,,,,,,,,,,,,,,,,,,,,,,,,,,,,,,,,,,,,,,,,,,,,,,,,,,,,
,,,,1,0.6697,,,,,,85,cake,tree,,89601,001,2022-04-21_19h23.49.786,SPAMnetsValid,2021.1.4,Win32,59.93048064,,,,,,,,,,,,,1,0.6697,0,13,13,18,1,,,,,,,,,,,,,,,,,,,,,,,,,,,,,,,,,,,,,,,,,,,,,,,,,,,,,,,,,,,,,,,,,,,,,,
,,,,1,0.6929,,,,,,28,cake,melon,,89601,001,2022-04-21_19h23.49.786,SPAMnetsValid,2021.1.4,Win32,59.93048064,,,,,,,,,,,,,1,0.6929,0,14,14,54,1,,,,,,,,,,,,,,,,,,,,,,,,,,,,,,,,,,,,,,,,,,,,,,,,,,,,,,,,,,,,,,,,,,,,,,
,,,,1,0.994,,,,,,26,tomato,yogurt,,89601,001,2022-04-21_19h23.49.786,SPAMnetsValid,2021.1.4,Win32,59.93048064,,,,,,,,,,,,,1,0.994,0,15,15,13,1,,,,,,,,,,,,,,,,,,,,,,,,,,,,,,,,,,,,,,,,,,,,,,,,,,,,,,,,,,,,,,,,,,,,,,
,,,,1,0.828,,,,,,7,melon,tree,,89601,001,2022-04-21_19h23.49.786,SPAMnetsValid,2021.1.4,Win32,59.93048064,,,,,,,,,,,,,1,0.828,0,16,16,77,1,,,,,,,,,,,,,,,,,,,,,,,,,,,,,,,,,,,,,,,,,,,,,,,,,,,,,,,,,,,,,,,,,,,,,,
,,,,1,0.8353,,,,,,72,broom,onion,,89601,001,2022-04-21_19h23.49.786,SPAMnetsValid,2021.1.4,Win32,59.93048064,,,,,,,,,,,,,1,0.8353,0,17,17,27,1,,,,,,,,,,,,,,,,,,,,,,,,,,,,,,,,,,,,,,,,,,,,,,,,,,,,,,,,,,,,,,,,,,,,,,
,,,,1,1.4148,,,,,,66,melon,yogurt,,89601,001,2022-04-21_19h23.49.786,SPAMnetsValid,2021.1.4,Win32,59.93048064,,,,,,,,,,,,,1,1.4148,0,18,18,48,1,,,,,,,,,,,,,,,,,,,,,,,,,,,,,,,,,,,,,,,,,,,,,,,,,,,,,,,,,,,,,,,,,,,,,,
,,,,2,2.6488,,,,,,89,chocolate,rose,,89601,001,2022-04-21_19h23.49.786,SPAMnetsValid,2021.1.4,Win32,59.93048064,,,,,,,,,,,,,2,2.6488,0,19,19,60,1,,,,,,,,,,,,,,,,,,,,,,,,,,,,,,,,,,,,,,,,,,,,,,,,,,,,,,,,,,,,,,,,,,,,,,
,,,,3,2.9619,,,,,,12,cookie,yogurt,,89601,001,2022-04-21_19h23.49.786,SPAMnetsValid,2021.1.4,Win32,59.93048064,,,,,,,,,,,,,3,2.9619,0,20,20,36,1,,,,,,,,,,,,,,,,,,,,,,,,,,,,,,,,,,,,,,,,,,,,,,,,,,,,,,,,,,,,,,,,,,,,,,
,,,,9,1.449,,,,,,192,microwave,microwave,CHECK,89601,001,2022-04-21_19h23.49.786,SPAMnetsValid,2021.1.4,Win32,59.93048064,,,,,,,,,,,,,9,1.449,0,21,21,53,1,,,,,,,,,,,,,,,,,,,,,,,,,,,,,,,,,,,,,,,,,,,,,,,,,,,,,,,,,,,,,,,,,,,,,,
,,,,2,27.9429,,,,,,78,cookie,rose,,89601,001,2022-04-21_19h23.49.786,SPAMnetsValid,2021.1.4,Win32,59.93048064,,,,,,,,,,,,,2,27.9429,0,22,22,56,1,,,,,,,,,,,,,,,,,,,,,,,,,,,,,,,,,,,,,,,,,,,,,,,,,,,,,,,,,,,,,,,,,,,,,,
,,,,1,1.5874,,,,,,62,kitchen,rose,,89601,001,2022-04-21_19h23.49.786,SPAMnetsValid,2021.1.4,Win32,59.93048064,,,,,,,,,,,,,1,1.5874,0,23,23,57,1,,,,,,,,,,,,,,,,,,,,,,,,,,,,,,,,,,,,,,,,,,,,,,,,,,,,,,,,,,,,,,,,,,,,,,
,,,,1,43.3569,,,,,,10,flower,onion,,89601,001,2022-04-21_19h23.49.786,SPAMnetsValid,2021.1.4,Win32,59.93048064,,,,,,,,,,,,,1,43.3569,0,24,24,45,1,,,,,,,,,,,,,,,,,,,,,,,,,,,,,,,,,,,,,,,,,,,,,,,,,,,,,,,,,,,,,,,,,,,,,,
,,,,7,2.1388,,,,,,6,garden,onion,,89601,001,2022-04-21_19h23.49.786,SPAMnetsValid,2021.1.4,Win32,59.93048064,,,,,,,,,,,,,7,2.1388,0,25,25,83,1,,,,,,,,,,,,,,,,,,,,,,,,,,,,,,,,,,,,,,,,,,,,,,,,,,,,,,,,,,,,,,,,,,,,,,
,,,,1,1.5786,,,,,,70,chocolate,onion,,89601,001,2022-04-21_19h23.49.786,SPAMnetsValid,2021.1.4,Win32,59.93048064,,,,,,,,,,,,,1,1.5786,0,26,26,74,1,,,,,,,,,,,,,,,,,,,,,,,,,,,,,,,,,,,,,,,,,,,,,,,,,,,,,,,,,,,,,,,,,,,,,,
,,,,1,1.9909,,,,,,48,flower,oven,,89601,001,2022-04-21_19h23.49.786,SPAMnetsValid,2021.1.4,Win32,59.93048064,,,,,,,,,,,,,1,1.9909,0,27,27,15,1,,,,,,,,,,,,,,,,,,,,,,,,,,,,,,,,,,,,,,,,,,,,,,,,,,,,,,,,,,,,,,,,,,,,,,
,,,,1,1.1318,,,,,,14,broom,cookie,,89601,001,2022-04-21_19h23.49.786,SPAMnetsValid,2021.1.4,Win32,59.93048064,,,,,,,,,,,,,1,1.1318,0,28,28,16,1,,,,,,,,,,,,,,,,,,,,,,,,,,,,,,,,,,,,,,,,,,,,,,,,,,,,,,,,,,,,,,,,,,,,,,
,,,,1,1.0988,,,,,,88,cactus,melon,,89601,001,2022-04-21_19h23.49.786,SPAMnetsValid,2021.1.4,Win32,59.93048064,,,,,,,,,,,,,1,1.0988,0,29,29,38,1,,,,,,,,,,,,,,,,,,,,,,,,,,,,,,,,,,,,,,,,,,,,,,,,,,,,,,,,,,,,,,,,,,,,,,
,,,,1,0.9168,,,,,,86,oven,rose,,89601,001,2022-04-21_19h23.49.786,SPAMnetsValid,2021.1.4,Win32,59.93048064,,,,,,,,,,,,,1,0.9168,0,30,30,79,1,,,,,,,,,,,,,,,,,,,,,,,,,,,,,,,,,,,,,,,,,,,,,,,,,,,,,,,,,,,,,,,,,,,,,,
,,,,2,1.6597,,,,,,30,cookie,pretzel,,89601,001,2022-04-21_19h23.49.786,SPAMnetsValid,2021.1.4,Win32,59.93048064,,,,,,,,,,,,,2,1.6597,0,31,31,78,1,,,,,,,,,,,,,,,,,,,,,,,,,,,,,,,,,,,,,,,,,,,,,,,,,,,,,,,,,,,,,,,,,,,,,,
,,,,7,1.9802,,,,,,22,kitchen,strawberry,,89601,001,2022-04-21_19h23.49.786,SPAMnetsValid,2021.1.4,Win32,59.93048064,,,,,,,,,,,,,7,1.9802,0,32,32,2,1,,,,,,,,,,,,,,,,,,,,,,,,,,,,,,,,,,,,,,,,,,,,,,,,,,,,,,,,,,,,,,,,,,,,,,
,,,,8,3.01,,,,,,94,kitchen,microwave,,89601,001,2022-04-21_19h23.49.786,SPAMnetsValid,2021.1.4,Win32,59.93048064,,,,,,,,,,,,,8,3.01,0,33,33,58,1,,,,,,,,,,,,,,,,,,,,,,,,,,,,,,,,,,,,,,,,,,,,,,,,,,,,,,,,,,,,,,,,,,,,,,
,,,,7,2.3823,,,,,,79,garden,strawberry,,89601,001,2022-04-21_19h23.49.786,SPAMnetsValid,2021.1.4,Win32,59.93048064,,,,,,,,,,,,,7,2.3823,0,34,34,87,1,,,,,,,,,,,,,,,,,,,,,,,,,,,,,,,,,,,,,,,,,,,,,,,,,,,,,,,,,,,,,,,,,,,,,,
,,,,4,1.9683,,,,,,18,onion,refrigerator,,89601,001,2022-04-21_19h23.49.786,SPAMnetsValid,2021.1.4,Win32,59.93048064,,,,,,,,,,,,,4,1.9683,0,35,35,62,1,,,,,,,,,,,,,,,,,,,,,,,,,,,,,,,,,,,,,,,,,,,,,,,,,,,,,,,,,,,,,,,,,,,,,,
,,,,3,2.1232,,,,,,49,flower,strawberry,,89601,001,2022-04-21_19h23.49.786,SPAMnetsValid,2021.1.4,Win32,59.93048064,,,,,,,,,,,,,3,2.1232,0,36,36,3,1,,,,,,,,,,,,,,,,,,,,,,,,,,,,,,,,,,,,,,,,,,,,,,,,,,,,,,,,,,,,,,,,,,,,,,
,,,,1,1.8483,,,,,,65,broom,garden,,89601,001,2022-04-21_19h23.49.786,SPAMnetsValid,2021.1.4,Win32,59.93048064,,,,,,,,,,,,,1,1.8483,0,37,37,23,1,,,,,,,,,,,,,,,,,,,,,,,,,,,,,,,,,,,,,,,,,,,,,,,,,,,,,,,,,,,,,,,,,,,,,,
,,,,9,2.185,,,,,,191,cake,cake,CHECK,89601,001,2022-04-21_19h23.49.786,SPAMnetsValid,2021.1.4,Win32,59.93048064,,,,,,,,,,,,,9,2.185,0,38,38,10,1,,,,,,,,,,,,,,,,,,,,,,,,,,,,,,,,,,,,,,,,,,,,,,,,,,,,,,,,,,,,,,,,,,,,,,
,,,,1,5.5746,,,,,,40,broom,cake,,89601,001,2022-04-21_19h23.49.786,SPAMnetsValid,2021.1.4,Win32,59.93048064,,,,,,,,,,,,,1,5.5746,0,39,39,32,1,,,,,,,,,,,,,,,,,,,,,,,,,,,,,,,,,,,,,,,,,,,,,,,,,,,,,,,,,,,,,,,,,,,,,,
,,,,1,10.2734,,,,,,80,chocolate,tree,,89601,001,2022-04-21_19h23.49.786,SPAMnetsValid,2021.1.4,Win32,59.93048064,,,,,,,,,,,,,1,10.2734,0,40,40,89,1,,,,,,,,,,,,,,,,,,,,,,,,,,,,,,,,,,,,,,,,,,,,,,,,,,,,,,,,,,,,,,,,,,,,,,
,,,,1,1.3682,,,,,,58,garden,oven,,89601,001,2022-04-21_19h23.49.786,SPAMnetsValid,2021.1.4,Win32,59.93048064,,,,,,,,,,,,,1,1.3682,0,41,41,37,1,,,,,,,,,,,,,,,,,,,,,,,,,,,,,,,,,,,,,,,,,,,,,,,,,,,,,,,,,,,,,,,,,,,,,,
,,,,1,0.6354,,,,,,25,carrot,onion,,89601,001,2022-04-21_19h23.49.786,SPAMnetsValid,2021.1.4,Win32,59.93048064,,,,,,,,,,,,,1,0.6354,0,42,42,44,1,,,,,,,,,,,,,,,,,,,,,,,,,,,,,,,,,,,,,,,,,,,,,,,,,,,,,,,,,,,,,,,,,,,,,,
,,,,2,1.5614,,,,,,57,flower,kitchen,,89601,001,2022-04-21_19h23.49.786,SPAMnetsValid,2021.1.4,Win32,59.93048064,,,,,,,,,,,,,2,1.5614,0,43,43,49,1,,,,,,,,,,,,,,,,,,,,,,,,,,,,,,,,,,,,,,,,,,,,,,,,,,,,,,,,,,,,,,,,,,,,,,
,,,,7,2.2343,,,,,,93,kitchen,oven,,89601,001,2022-04-21_19h23.49.786,SPAMnetsValid,2021.1.4,Win32,59.93048064,,,,,,,,,,,,,7,2.2343,0,44,44,82,1,,,,,,,,,,,,,,,,,,,,,,,,,,,,,,,,,,,,,,,,,,,,,,,,,,,,,,,,,,,,,,,,,,,,,,
,,,,5,2.5177,,,,,,47,onion,tomato,,89601,001,2022-04-21_19h23.49.786,SPAMnetsValid,2021.1.4,Win32,59.93048064,,,,,,,,,,,,,5,2.5177,0,45,45,51,1,,,,,,,,,,,,,,,,,,,,,,,,,,,,,,,,,,,,,,,,,,,,,,,,,,,,,,,,,,,,,,,,,,,,,,
,,,,1,2.55,,,,,,75,cookie,onion,,89601,001,2022-04-21_19h23.49.786,SPAMnetsValid,2021.1.4,Win32,59.93048064,,,,,,,,,,,,,1,2.55,0,46,46,9,1,,,,,,,,,,,,,,,,,,,,,,,,,,,,,,,,,,,,,,,,,,,,,,,,,,,,,,,,,,,,,,,,,,,,,,
,,,,1,1.1838,,,,,,87,carrot,yogurt,,89601,001,2022-04-21_19h23.49.786,SPAMnetsValid,2021.1.4,Win32,59.93048064,,,,,,,,,,,,,1,1.1838,0,47,47,6,1,,,,,,,,,,,,,,,,,,,,,,,,,,,,,,,,,,,,,,,,,,,,,,,,,,,,,,,,,,,,,,,,,,,,,,
,,,,1,0.9017,,,,,,31,cactus,pretzel,,89601,001,2022-04-21_19h23.49.786,SPAMnetsValid,2021.1.4,Win32,59.93048064,,,,,,,,,,,,,1,0.9017,0,48,48,1,1,,,,,,,,,,,,,,,,,,,,,,,,,,,,,,,,,,,,,,,,,,,,,,,,,,,,,,,,,,,,,,,,,,,,,,
,,,,5,2.5678,,,,,,63,cake,cookie,,89601,001,2022-04-21_19h23.49.786,SPAMnetsValid,2021.1.4,Win32,59.93048064,,,,,,,,,,,,,5,2.5678,0,49,49,93,1,,,,,,,,,,,,,,,,,,,,,,,,,,,,,,,,,,,,,,,,,,,,,,,,,,,,,,,,,,,,,,,,,,,,,,
,,,,4,8.7906,,,,,,52,carrot,tomato,,89601,001,2022-04-21_19h23.49.786,SPAMnetsValid,2021.1.4,Win32,59.93048064,,,,,,,,,,,,,4,8.7906,0,50,50,95,1,,,,,,,,,,,,,,,,,,,,,,,,,,,,,,,,,,,,,,,,,,,,,,,,,,,,,,,,,,,,,,,,,,,,,,
,,,,1,27.996,,,,,,84,oven,tomato,,89601,001,2022-04-21_19h23.49.786,SPAMnetsValid,2021.1.4,Win32,59.93048064,,,,,,,,,,,,,1,27.996,0,51,51,28,1,,,,,,,,,,,,,,,,,,,,,,,,,,,,,,,,,,,,,,,,,,,,,,,,,,,,,,,,,,,,,,,,,,,,,,
,,,,1,1.1199,,,,,,34,melon,oven,,89601,001,2022-04-21_19h23.49.786,SPAMnetsValid,2021.1.4,Win32,59.93048064,,,,,,,,,,,,,1,1.1199,0,52,52,7,1,,,,,,,,,,,,,,,,,,,,,,,,,,,,,,,,,,,,,,,,,,,,,,,,,,,,,,,,,,,,,,,,,,,,,,
,,,,2,11.7781,,,,,,51,onion,strawberry,,89601,001,2022-04-21_19h23.49.786,SPAMnetsValid,2021.1.4,Win32,59.93048064,,,,,,,,,,,,,2,11.7781,0,53,53,86,1,,,,,,,,,,,,,,,,,,,,,,,,,,,,,,,,,,,,,,,,,,,,,,,,,,,,,,,,,,,,,,,,,,,,,,
,,,,1,2.052,,,,,,1,rose,yogurt,,89601,001,2022-04-21_19h23.49.786,SPAMnetsValid,2021.1.4,Win32,59.93048064,,,,,,,,,,,,,1,2.052,0,54,54,55,1,,,,,,,,,,,,,,,,,,,,,,,,,,,,,,,,,,,,,,,,,,,,,,,,,,,,,,,,,,,,,,,,,,,,,,
,,,,1,1.6817,,,,,,73,broom,chocolate,,89601,001,2022-04-21_19h23.49.786,SPAMnetsValid,2021.1.4,Win32,59.93048064,,,,,,,,,,,,,1,1.6817,0,55,55,47,1,,,,,,,,,,,,,,,,,,,,,,,,,,,,,,,,,,,,,,,,,,,,,,,,,,,,,,,,,,,,,,,,,,,,,,
,,,,1,1.2064,,,,,,20,rose,tree,,89601,001,2022-04-21_19h23.49.786,SPAMnetsValid,2021.1.4,Win32,59.93048064,,,,,,,,,,,,,1,1.2064,0,56,56,66,1,,,,,,,,,,,,,,,,,,,,,,,,,,,,,,,,,,,,,,,,,,,,,,,,,,,,,,,,,,,,,,,,,,,,,,
,,,,1,1.6196,,,,,,13,broom,yogurt,,89601,001,2022-04-21_19h23.49.786,SPAMnetsValid,2021.1.4,Win32,59.93048064,,,,,,,,,,,,,1,1.6196,0,57,57,5,1,,,,,,,,,,,,,,,,,,,,,,,,,,,,,,,,,,,,,,,,,,,,,,,,,,,,,,,,,,,,,,,,,,,,,,
,,,,5,40.118,,,,,,69,carrot,refrigerator,,89601,001,2022-04-21_19h23.49.786,SPAMnetsValid,2021.1.4,Win32,59.93048064,,,,,,,,,,,,,5,40.118,0,58,58,75,1,,,,,,,,,,,,,,,,,,,,,,,,,,,,,,,,,,,,,,,,,,,,,,,,,,,,,,,,,,,,,,,,,,,,,,
,,,,4,3.987,,,,,,68,flower,tomato,,89601,001,2022-04-21_19h23.49.786,SPAMnetsValid,2021.1.4,Win32,59.93048064,,,,,,,,,,,,,4,3.987,0,59,59,94,1,,,,,,,,,,,,,,,,,,,,,,,,,,,,,,,,,,,,,,,,,,,,,,,,,,,,,,,,,,,,,,,,,,,,,,
,,,,1,2.5325,,,,,,17,carrot,melon,,89601,001,2022-04-21_19h23.49.786,SPAMnetsValid,2021.1.4,Win32,59.93048064,,,,,,,,,,,,,1,2.5325,0,60,60,24,1,,,,,,,,,,,,,,,,,,,,,,,,,,,,,,,,,,,,,,,,,,,,,,,,,,,,,,,,,,,,,,,,,,,,,,
,,,,1,0.8166,,,,,,71,broom,rose,,89601,001,2022-04-21_19h23.49.786,SPAMnetsValid,2021.1.4,Win32,59.93048064,,,,,,,,,,,,,1,0.8166,0,61,61,61,1,,,,,,,,,,,,,,,,,,,,,,,,,,,,,,,,,,,,,,,,,,,,,,,,,,,,,,,,,,,,,,,,,,,,,,
,,,,2,1.5521,,,,,,59,rose,strawberry,,89601,001,2022-04-21_19h23.49.786,SPAMnetsValid,2021.1.4,Win32,59.93048064,,,,,,,,,,,,,2,1.5521,0,62,62,72,1,,,,,,,,,,,,,,,,,,,,,,,,,,,,,,,,,,,,,,,,,,,,,,,,,,,,,,,,,,,,,,,,,,,,,,
,,,,1,1.4963,,,,,,46,garden,yogurt,,89601,001,2022-04-21_19h23.49.786,SPAMnetsValid,2021.1.4,Win32,59.93048064,,,,,,,,,,,,,1,1.4963,0,63,63,65,1,,,,,,,,,,,,,,,,,,,,,,,,,,,,,,,,,,,,,,,,,,,,,,,,,,,,,,,,,,,,,,,,,,,,,,
,,,,8,11.4361,,,,,,76,garden,rose,,89601,001,2022-04-21_19h23.49.786,SPAMnetsValid,2021.1.4,Win32,59.93048064,,,,,,,,,,,,,8,11.4361,0,64,64,19,1,,,,,,,,,,,,,,,,,,,,,,,,,,,,,,,,,,,,,,,,,,,,,,,,,,,,,,,,,,,,,,,,,,,,,,
,,,,8,1.5162,,,,,,9,kitchen,refrigerator,,89601,001,2022-04-21_19h23.49.786,SPAMnetsValid,2021.1.4,Win32,59.93048064,,,,,,,,,,,,,8,1.5162,0,65,65,64,1,,,,,,,,,,,,,,,,,,,,,,,,,,,,,,,,,,,,,,,,,,,,,,,,,,,,,,,,,,,,,,,,,,,,,,
,,,,1,1.5823,,,,,,27,cactus,cookie,,89601,001,2022-04-21_19h23.49.786,SPAMnetsValid,2021.1.4,Win32,59.93048064,,,,,,,,,,,,,1,1.5823,0,66,66,17,1,,,,,,,,,,,,,,,,,,,,,,,,,,,,,,,,,,,,,,,,,,,,,,,,,,,,,,,,,,,,,,,,,,,,,,
,,,,1,0.8626,,,,,,56,cactus,tree,,89601,001,2022-04-21_19h23.49.786,SPAMnetsValid,2021.1.4,Win32,59.93048064,,,,,,,,,,,,,1,0.8626,0,67,67,21,1,,,,,,,,,,,,,,,,,,,,,,,,,,,,,,,,,,,,,,,,,,,,,,,,,,,,,,,,,,,,,,,,,,,,,,
,,,,1,1.6256,,,,,,33,oven,yogurt,,89601,001,2022-04-21_19h23.49.786,SPAMnetsValid,2021.1.4,Win32,59.93048064,,,,,,,,,,,,,1,1.6256,0,68,68,31,1,,,,,,,,,,,,,,,,,,,,,,,,,,,,,,,,,,,,,,,,,,,,,,,,,,,,,,,,,,,,,,,,,,,,,,
,,,,6,1.8529,,,,,,77,refrigerator,yogurt,,89601,001,2022-04-21_19h23.49.786,SPAMnetsValid,2021.1.4,Win32,59.93048064,,,,,,,,,,,,,6,1.8529,0,69,69,42,1,,,,,,,,,,,,,,,,,,,,,,,,,,,,,,,,,,,,,,,,,,,,,,,,,,,,,,,,,,,,,,,,,,,,,,
,,,,1,2.4148,,,,,,81,pretzel,yogurt,,89601,001,2022-04-21_19h23.49.786,SPAMnetsValid,2021.1.4,Win32,59.93048064,,,,,,,,,,,,,1,2.4148,0,70,70,50,1,,,,,,,,,,,,,,,,,,,,,,,,,,,,,,,,,,,,,,,,,,,,,,,,,,,,,,,,,,,,,,,,,,,,,,
,,,,3,2.2304,,,,,,61,strawberry,tomato,,89601,001,2022-04-21_19h23.49.786,SPAMnetsValid,2021.1.4,Win32,59.93048064,,,,,,,,,,,,,3,2.2304,0,71,71,80,1,,,,,,,,,,,,,,,,,,,,,,,,,,,,,,,,,,,,,,,,,,,,,,,,,,,,,,,,,,,,,,,,,,,,,,
,,,,1,1.1541,,,,,,44,cookie,melon,,89601,001,2022-04-21_19h23.49.786,SPAMnetsValid,2021.1.4,Win32,59.93048064,,,,,,,,,,,,,1,1.1541,0,72,72,92,1,,,,,,,,,,,,,,,,,,,,,,,,,,,,,,,,,,,,,,,,,,,,,,,,,,,,,,,,,,,,,,,,,,,,,,
,,,,1,6.1994,,,,,,35,flower,pretzel,,89601,001,2022-04-21_19h23.49.786,SPAMnetsValid,2021.1.4,Win32,59.93048064,,,,,,,,,,,,,1,6.1994,0,73,73,26,1,,,,,,,,,,,,,,,,,,,,,,,,,,,,,,,,,,,,,,,,,,,,,,,,,,,,,,,,,,,,,,,,,,,,,,
,,,,1,0.9657,,,,,,23,flower,microwave,,89601,001,2022-04-21_19h23.49.786,SPAMnetsValid,2021.1.4,Win32,59.93048064,,,,,,,,,,,,,1,0.9657,0,74,74,25,1,,,,,,,,,,,,,,,,,,,,,,,,,,,,,,,,,,,,,,,,,,,,,,,,,,,,,,,,,,,,,,,,,,,,,,
,,,,1,1.0684,,,,,,67,flower,yogurt,,89601,001,2022-04-21_19h23.49.786,SPAMnetsValid,2021.1.4,Win32,59.93048064,,,,,,,,,,,,,1,1.0684,0,75,75,12,1,,,,,,,,,,,,,,,,,,,,,,,,,,,,,,,,,,,,,,,,,,,,,,,,,,,,,,,,,,,,,,,,,,,,,,
,,,,1,1.6327,,,,,,2,kitchen,onion,,89601,001,2022-04-21_19h23.49.786,SPAMnetsValid,2021.1.4,Win32,59.93048064,,,,,,,,,,,,,1,1.6327,0,76,76,91,1,,,,,,,,,,,,,,,,,,,,,,,,,,,,,,,,,,,,,,,,,,,,,,,,,,,,,,,,,,,,,,,,,,,,,,
,,,,1,0.8969,,,,,,90,cactus,cake,,89601,001,2022-04-21_19h23.49.786,SPAMnetsValid,2021.1.4,Win32,59.93048064,,,,,,,,,,,,,1,0.8969,0,77,77,85,1,,,,,,,,,,,,,,,,,,,,,,,,,,,,,,,,,,,,,,,,,,,,,,,,,,,,,,,,,,,,,,,,,,,,,,
,,,,2,1.447,,,,,,16,chocolate,flower,,89601,001,2022-04-21_19h23.49.786,SPAMnetsValid,2021.1.4,Win32,59.93048064,,,,,,,,,,,,,2,1.447,0,78,78,22,1,,,,,,,,,,,,,,,,,,,,,,,,,,,,,,,,,,,,,,,,,,,,,,,,,,,,,,,,,,,,,,,,,,,,,,
,,,,1,0.663,,,,,,24,cookie,tomato,,89601,001,2022-04-21_19h23.49.786,SPAMnetsValid,2021.1.4,Win32,59.93048064,,,,,,,,,,,,,1,0.663,0,79,79,68,1,,,,,,,,,,,,,,,,,,,,,,,,,,,,,,,,,,,,,,,,,,,,,,,,,,,,,,,,,,,,,,,,,,,,,,
,,,,1,0.5987,,,,,,74,broom,pretzel,,89601,001,2022-04-21_19h23.49.786,SPAMnetsValid,2021.1.4,Win32,59.93048064,,,,,,,,,,,,,1,0.5987,0,80,80,40,1,,,,,,,,,,,,,,,,,,,,,,,,,,,,,,,,,,,,,,,,,,,,,,,,,,,,,,,,,,,,,,,,,,,,,,
,,,,1,0.6517,,,,,,37,garden,refrigerator,,89601,001,2022-04-21_19h23.49.786,SPAMnetsValid,2021.1.4,Win32,59.93048064,,,,,,,,,,,,,1,0.6517,0,81,81,11,1,,,,,,,,,,,,,,,,,,,,,,,,,,,,,,,,,,,,,,,,,,,,,,,,,,,,,,,,,,,,,,,,,,,,,,
,,,,1,0.8089,,,,,,15,onion,oven,,89601,001,2022-04-21_19h23.49.786,SPAMnetsValid,2021.1.4,Win32,59.93048064,,,,,,,,,,,,,1,0.8089,0,82,82,39,1,,,,,,,,,,,,,,,,,,,,,,,,,,,,,,,,,,,,,,,,,,,,,,,,,,,,,,,,,,,,,,,,,,,,,,
,,,,1,3.8247,,,,,,32,cake,microwave,,89601,001,2022-04-21_19h23.49.786,SPAMnetsValid,2021.1.4,Win32,59.93048064,,,,,,,,,,,,,1,3.8247,0,83,83,33,1,,,,,,,,,,,,,,,,,,,,,,,,,,,,,,,,,,,,,,,,,,,,,,,,,,,,,,,,,,,,,,,,,,,,,,
,,,,1,0.9861,,,,,,11,refrigerator,tree,,89601,001,2022-04-21_19h23.49.786,SPAMnetsValid,2021.1.4,Win32,59.93048064,,,,,,,,,,,,,1,0.9861,0,84,84,43,1,,,,,,,,,,,,,,,,,,,,,,,,,,,,,,,,,,,,,,,,,,,,,,,,,,,,,,,,,,,,,,,,,,,,,,
,,,,1,1.207,,,,,,64,chocolate,garden,,89601,001,2022-04-21_19h23.49.786,SPAMnetsValid,2021.1.4,Win32,59.93048064,,,,,,,,,,,,,1,1.207,0,85,85,14,1,,,,,,,,,,,,,,,,,,,,,,,,,,,,,,,,,,,,,,,,,,,,,,,,,,,,,,,,,,,,,,,,,,,,,,
,,,,3,1.5684,,,,,,54,chocolate,yogurt,,89601,001,2022-04-21_19h23.49.786,SPAMnetsValid,2021.1.4,Win32,59.93048064,,,,,,,,,,,,,3,1.5684,0,86,86,67,1,,,,,,,,,,,,,,,,,,,,,,,,,,,,,,,,,,,,,,,,,,,,,,,,,,,,,,,,,,,,,,,,,,,,,,
,,,,1,0.9258,,,,,,39,melon,pretzel,,89601,001,2022-04-21_19h23.49.786,SPAMnetsValid,2021.1.4,Win32,59.93048064,,,,,,,,,,,,,1,0.9258,0,87,87,20,1,,,,,,,,,,,,,,,,,,,,,,,,,,,,,,,,,,,,,,,,,,,,,,,,,,,,,,,,,,,,,,,,,,,,,,
,,,,1,0.6684,,,,,,45,onion,pretzel,,89601,001,2022-04-21_19h23.49.786,SPAMnetsValid,2021.1.4,Win32,59.93048064,,,,,,,,,,,,,1,0.6684,0,88,88,69,1,,,,,,,,,,,,,,,,,,,,,,,,,,,,,,,,,,,,,,,,,,,,,,,,,,,,,,,,,,,,,,,,,,,,,,
,,,,1,4.4321,,,,,,83,broom,carrot,,89601,001,2022-04-21_19h23.49.786,SPAMnetsValid,2021.1.4,Win32,59.93048064,,,,,,,,,,,,,1,4.4321,0,89,89,4,1,,,,,,,,,,,,,,,,,,,,,,,,,,,,,,,,,,,,,,,,,,,,,,,,,,,,,,,,,,,,,,,,,,,,,,
,,,,1,0.7968,,,,,,41,broom,cactus,,89601,001,2022-04-21_19h23.49.786,SPAMnetsValid,2021.1.4,Win32,59.93048064,,,,,,,,,,,,,1,0.7968,0,90,90,46,1,,,,,,,,,,,,,,,,,,,,,,,,,,,,,,,,,,,,,,,,,,,,,,,,,,,,,,,,,,,,,,,,,,,,,,
,,,,2,2.1683,,,,,,38,pretzel,refrigerator,,89601,001,2022-04-21_19h23.49.786,SPAMnetsValid,2021.1.4,Win32,59.93048064,,,,,,,,,,,,,2,2.1683,0,91,91,71,1,,,,,,,,,,,,,,,,,,,,,,,,,,,,,,,,,,,,,,,,,,,,,,,,,,,,,,,,,,,,,,,,,,,,,,
,,,,6,3.7309,,,,,,4,chocolate,pretzel,,89601,001,2022-04-21_19h23.49.786,SPAMnetsValid,2021.1.4,Win32,59.93048064,,,,,,,,,,,,,6,3.7309,0,92,92,52,1,,,,,,,,,,,,,,,,,,,,,,,,,,,,,,,,,,,,,,,,,,,,,,,,,,,,,,,,,,,,,,,,,,,,,,
,,,,1,1.4486,,,,,,43,chocolate,tomato,,89601,001,2022-04-21_19h23.49.786,SPAMnetsValid,2021.1.4,Win32,59.93048064,,,,,,,,,,,,,1,1.4486,0,93,93,8,1,,,,,,,,,,,,,,,,,,,,,,,,,,,,,,,,,,,,,,,,,,,,,,,,,,,,,,,,,,,,,,,,,,,,,,
,,,,1,0.9581,,,,,,91,microwave,rose,,89601,001,2022-04-21_19h23.49.786,SPAMnetsValid,2021.1.4,Win32,59.93048064,,,,,,,,,,,,,1,0.9581,0,94,94,84,1,,,,,,,,,,,,,,,,,,,,,,,,,,,,,,,,,,,,,,,,,,,,,,,,,,,,,,,,,,,,,,,,,,,,,,
,,,,1,0.85,,,,,,50,carrot,rose,,89601,001,2022-04-21_19h23.49.786,SPAMnetsValid,2021.1.4,Win32,59.93048064,,,,,,,,,,,,,1,0.85,0,95,95,73,1,,,,,,,,,,,,,,,,,,,,,,,,,,,,,,,,,,,,,,,,,,,,,,,,,,,,,,,,,,,,,,,,,,,,,,
,,,,8,7.73,,,,,,82,cake,kitchen,,89601,001,2022-04-21_19h23.49.786,SPAMnetsValid,2021.1.4,Win32,59.93048064,,,,,,,,,,,,,8,7.73,0,96,96,96,1,,,,,,,,,,,,,,,,,,,,,,,,,,,,,,,,,,,,,,,,,,,,,,,,,,,,,,,,,,,,,,,,,,,,,,
,,,,,,,,,,,,,,,89601,001,2022-04-21_19h23.49.786,SPAMnetsValid,2021.1.4,Win32,59.93048064,,,,,,,,,,,,,,,,,,,,0,0,0,0,1,,,,,,,,,,,,,,,,,,,,,,,,,,,,,,,,,,,,,,,,,,,,,,,,,,,,,,,,,,,,,,,,,
,,,,,,,,,,,,,,,89601,001,2022-04-21_19h23.49.786,SPAMnetsValid,2021.1.4,Win32,59.93048064,,,,,,0,1,1,0,1,1,0,,,,,,,,,,,,,,,,,,,,,,,,,,,,,,,,,,,,,,,,,,,,,,,,,,,,,,,,,,,,,,,,,,,,,,,,,,,,,
,,,,,,,,,,,,,,,89601,001,2022-04-21_19h23.49.786,SPAMnetsValid,2021.1.4,Win32,59.93048064,,,,,,,,,,,,,,,,,,,,,,,,,3,2.8043,0,0,0,0,1,rancor,forbearance,ridicule,malice,bravery,3,,,,,,,,,,,,,,,,,,,,,,,,,,,,,,,,,,,,,,,,,,,,,,,,,,,,
,,,,,,,,,,,,,,,89601,001,2022-04-21_19h23.49.786,SPAMnetsValid,2021.1.4,Win32,59.93048064,,,,,,,,,,,,,,,,,,,,,,,,,4,2.3314,0,1,1,1,1,raucous,empty,quiet,smooth,harsh,4,,,,,,,,,,,,,,,,,,,,,,,,,,,,,,,,,,,,,,,,,,,,,,,,,,,,
,,,,,,,,,,,,,,,89601,001,2022-04-21_19h23.49.786,SPAMnetsValid,2021.1.4,Win32,59.93048064,,,,,,,,,,,,,,,,,,,,,,,,,3,1.8133,0,2,2,2,1,gargoyle,oil,medicine,carved waterspout,ugly building,3,,,,,,,,,,,,,,,,,,,,,,,,,,,,,,,,,,,,,,,,,,,,,,,,,,,,
,,,,,,,,,,,,,,,89601,001,2022-04-21_19h23.49.786,SPAMnetsValid,2021.1.4,Win32,59.93048064,,,,,,,,,,,,,,,,,,,,,,,,,1,6.3851,0,3,3,3,1,recrudesce,purify,renew activity,lack refinement,crush,2,,,,,,,,,,,,,,,,,,,,,,,,,,,,,,,,,,,,,,,,,,,,,,,,,,,,
,,,,,,,,,,,,,,,89601,001,2022-04-21_19h23.49.786,SPAMnetsValid,2021.1.4,Win32,59.93048064,,,,,,,,,,,,,,,,,,,,,,,,,2,8.4972,0,4,4,4,1,specious,"plausible, but not genuine",noteworthy,class or variety,roomy,1,,,,,,,,,,,,,,,,,,,,,,,,,,,,,,,,,,,,,,,,,,,,,,,,,,,,
,,,,,,,,,,,,,,,89601,001,2022-04-21_19h23.49.786,SPAMnetsValid,2021.1.4,Win32,59.93048064,,,,,,,,,,,,,,,,,,,,,,,,,2,2.1541,0,5,5,5,1,bauble,bubble,showy plaything,idle talk,confusion,2,,,,,,,,,,,,,,,,,,,,,,,,,,,,,,,,,,,,,,,,,,,,,,,,,,,,
,,,,,,,,,,,,,,,89601,001,2022-04-21_19h23.49.786,SPAMnetsValid,2021.1.4,Win32,59.93048064,,,,,,,,,,,,,,,,,,,,,,,,,2,2.7766,0,6,6,6,1,prolific,scarce,producing abundantly,reckless,speaking profanely,2,,,,,,,,,,,,,,,,,,,,,,,,,,,,,,,,,,,,,,,,,,,,,,,,,,,,
,,,,,,,,,,,,,,,89601,001,2022-04-21_19h23.49.786,SPAMnetsValid,2021.1.4,Win32,59.93048064,,,,,,,,,,,,,,,,,,,,,,,,,2,2.1004,0,7,7,7,1,opulent,party,wealthy,happy frame of mind,semiprecious stone,2,,,,,,,,,,,,,,,,,,,,,,,,,,,,,,,,,,,,,,,,,,,,,,,,,,,,
,,,,,,,,,,,,,,,89601,001,2022-04-21_19h23.49.786,SPAMnetsValid,2021.1.4,Win32,59.93048064,,,,,,,,,,,,,,,,,,,,,,,,,1,3.666,0,8,8,8,1,coercion,conspiracy,strategy,restraint,attraction,3,,,,,,,,,,,,,,,,,,,,,,,,,,,,,,,,,,,,,,,,,,,,,,,,,,,,
,,,,,,,,,,,,,,,89601,001,2022-04-21_19h23.49.786,SPAMnetsValid,2021.1.4,Win32,59.93048064,,,,,,,,,,,,,,,,,,,,,,,,,4,2.8492,0,9,9,9,1,hiatus,animal,calamity,dread,gap,4,,,,,,,,,,,,,,,,,,,,,,,,,,,,,,,,,,,,,,,,,,,,,,,,,,,,
,,,,,,,,,,,,,,,89601,001,2022-04-21_19h23.49.786,SPAMnetsValid,2021.1.4,Win32,59.93048064,,,,,,,,,,,,,,,,,,,,,,,,,4,3.2749,0,10,10,10,1,germane,microbe,contagious,relevant,different,3,,,,,,,,,,,,,,,,,,,,,,,,,,,,,,,,,,,,,,,,,,,,,,,,,,,,
,,,,,,,,,,,,,,,89601,001,2022-04-21_19h23.49.786,SPAMnetsValid,2021.1.4,Win32,59.93048064,,,,,,,,,,,,,,,,,,,,,,,,,3,2.6194,0,11,11,11,1,perfunctory,fundamental,formal,superficial,careful,3,,,,,,,,,,,,,,,,,,,,,,,,,,,,,,,,,,,,,,,,,,,,,,,,,,,,
,,,,,,,,,,,,,,,89601,001,2022-04-21_19h23.49.786,SPAMnetsValid,2021.1.4,Win32,59.93048064,,,,,,,,,,,,,,,,,,,,,,,,,4,2.5594,0,12,12,12,1,diverge,reveal,chant,distract the attention of,differ or turn off from,4,,,,,,,,,,,,,,,,,,,,,,,,,,,,,,,,,,,,,,,,,,,,,,,,,,,,
,,,,,,,,,,,,,,,89601,001,2022-04-21_19h23.49.786,SPAMnetsValid,2021.1.4,Win32,59.93048064,,,,,,,,,,,,,,,,,,,,,,,,,4,5.8648,0,13,13,13,1,evoke,take away,anger,connect,bring out,4,,,,,,,,,,,,,,,,,,,,,,,,,,,,,,,,,,,,,,,,,,,,,,,,,,,,
,,,,,,,,,,,,,,,89601,001,2022-04-21_19h23.49.786,SPAMnetsValid,2021.1.4,Win32,59.93048064,,,,,,,,,,,,,,,,,,,,,,,,,1,1.5819,0,14,14,14,1,pertinent,relevant,lying next to,necessary,bold,1,,,,,,,,,,,,,,,,,,,,,,,,,,,,,,,,,,,,,,,,,,,,,,,,,,,,
,,,,,,,,,,,,,,,89601,001,2022-04-21_19h23.49.786,SPAMnetsValid,2021.1.4,Win32,59.93048064,,,,,,,,,,,,,,,,,,,,,,,,,2,2.6169,0,15,15,15,1,holocaust,entirety,destruction,saintly,price,2,,,,,,,,,,,,,,,,,,,,,,,,,,,,,,,,,,,,,,,,,,,,,,,,,,,,
,,,,,,,,,,,,,,,89601,001,2022-04-21_19h23.49.786,SPAMnetsValid,2021.1.4,Win32,59.93048064,,,,,,,,,,,,,,,,,,,,,,,,,1,5.3006,0,16,16,16,1,piquant,mellow,fish,pungent,cloth,3,,,,,,,,,,,,,,,,,,,,,,,,,,,,,,,,,,,,,,,,,,,,,,,,,,,,
,,,,,,,,,,,,,,,89601,001,2022-04-21_19h23.49.786,SPAMnetsValid,2021.1.4,Win32,59.93048064,,,,,,,,,,,,,,,,,,,,,,,,,1,2.9314,0,17,17,17,1,firmament,foundation,heavens,strong,glue,2,,,,,,,,,,,,,,,,,,,,,,,,,,,,,,,,,,,,,,,,,,,,,,,,,,,,
,,,,,,,,,,,,,,,89601,001,2022-04-21_19h23.49.786,SPAMnetsValid,2021.1.4,Win32,59.93048064,,,,,,,,,,,,,,,,,,,,,,,,,,,,,,,,,,,,,,4,15.4885,0,0,0,0,1,marketable,partisan,jocular,marriageable,salable,essential,4,,,,,,,,,,,,,,,,,,,,,,,,,,,,,,,,,,,,,,
,,,,,,,,,,,,,,,89601,001,2022-04-21_19h23.49.786,SPAMnetsValid,2021.1.4,Win32,59.93048064,,,,,,,,,,,,,,,,,,,,,,,,,,,,,,,,,,,,,,5,3.1756,0,1,1,1,1,cottontail,squirrel,poplar,boa,marshy plant,rabbit,5,,,,,,,,,,,,,,,,,,,,,,,,,,,,,,,,,,,,,,
,,,,,,,,,,,,,,,89601,001,2022-04-21_19h23.49.786,SPAMnetsValid,2021.1.4,Win32,59.93048064,,,,,,,,,,,,,,,,,,,,,,,,,,,,,,,,,,,,,,3,2.4172,0,2,2,2,1,boggy,afraid,false,marshy,dense,black,3,,,,,,,,,,,,,,,,,,,,,,,,,,,,,,,,,,,,,,
,,,,,,,,,,,,,,,89601,001,2022-04-21_19h23.49.786,SPAMnetsValid,2021.1.4,Win32,59.93048064,,,,,,,,,,,,,,,,,,,,,,,,,,,,,,,,,,,,,,5,3.8998,0,3,3,3,1,gruesomeness,blackness,falseness,vindictiveness,drunkenness,ghastliness,5,,,,,,,,,,,,,,,,,,,,,,,,,,,,,,,,,,,,,,
,,,,,,,,,,,,,,,89601,001,2022-04-21_19h23.49.786,SPAMnetsValid,2021.1.4,Win32,59.93048064,,,,,,,,,,,,,,,,,,,,,,,,,,,,,,,,,,,,,,3,2.4651,0,4,4,4,1,loathing,diffidence,laziness,abhorrence,cleverness,comfort,3,,,,,,,,,,,,,,,,,,,,,,,,,,,,,,,,,,,,,,
,,,,,,,,,,,,,,,89601,001,2022-04-21_19h23.49.786,SPAMnetsValid,2021.1.4,Win32,59.93048064,,,,,,,,,,,,,,,,,,,,,,,,,,,,,,,,,,,,,,1,6.665,0,5,5,5,1,bantam,fowl,ridicule,cripple,vegetable,ensign,1,,,,,,,,,,,,,,,,,,,,,,,,,,,,,,,,,,,,,,
,,,,,,,,,,,,,,,89601,001,2022-04-21_19h23.49.786,SPAMnetsValid,2021.1.4,Win32,59.93048064,,,,,,,,,,,,,,,,,,,,,,,,,,,,,,,,,,,,,,5,7.8836,0,6,6,6,1,evoke,wake up,surrender,reconnoiter,transcend,call forth,5,,,,,,,,,,,,,,,,,,,,,,,,,,,,,,,,,,,,,,
,,,,,,,,,,,,,,,89601,001,2022-04-21_19h23.49.786,SPAMnetsValid,2021.1.4,Win32,59.93048064,,,,,,,,,,,,,,,,,,,,,,,,,,,,,,,,,,,,,,5,4.1103,0,7,7,7,1,unobtrusive,unintelligent,epileptic,illogical,lineal,modest,5,,,,,,,,,,,,,,,,,,,,,,,,,,,,,,,,,,,,,,
,,,,,,,,,,,,,,,89601,001,2022-04-21_19h23.49.786,SPAMnetsValid,2021.1.4,Win32,59.93048064,,,,,,,,,,,,,,,,,,,,,,,,,,,,,,,,,,,,,,4,2.9849,0,8,8,8,1,terrain,ice cream,final test,tractor,area of ground,weight,4,,,,,,,,,,,,,,,,,,,,,,,,,,,,,,,,,,,,,,
,,,,,,,,,,,,,,,89601,001,2022-04-21_19h23.49.786,SPAMnetsValid,2021.1.4,Win32,59.93048064,,,,,,,,,,,,,,,,,,,,,,,,,,,,,,,,,,,,,,1,3.2917,0,9,9,9,1,capriciousness,stubbornness,courage,whimsicality,amazement,greediness,3,,,,,,,,,,,,,,,,,,,,,,,,,,,,,,,,,,,,,,
,,,,,,,,,,,,,,,89601,001,2022-04-21_19h23.49.786,SPAMnetsValid,2021.1.4,Win32,59.93048064,,,,,,,,,,,,,,,,,,,,,,,,,,,,,,,,,,,,,,2,2.4691,0,10,10,10,1,maelstrom,slander,whirlpool,enmity,armor,majolica,2,,,,,,,,,,,,,,,,,,,,,,,,,,,,,,,,,,,,,,
,,,,,,,,,,,,,,,89601,001,2022-04-21_19h23.49.786,SPAMnetsValid,2021.1.4,Win32,59.93048064,,,,,,,,,,,,,,,,,,,,,,,,,,,,,,,,,,,,,,5,3.2166,0,11,11,11,1,tentative,critical,conclusive,authentic,provisional,apprehensive,4,,,,,,,,,,,,,,,,,,,,,,,,,,,,,,,,,,,,,,
,,,,,,,,,,,,,,,89601,001,2022-04-21_19h23.49.786,SPAMnetsValid,2021.1.4,Win32,59.93048064,,,,,,,,,,,,,,,,,,,,,,,,,,,,,,,,,,,,,,5,6.2541,0,12,12,12,1,placate,rehabilitate,plagiarize,depredate,apprise,conciliate,5,,,,,,,,,,,,,,,,,,,,,,,,,,,,,,,,,,,,,,
,,,,,,,,,,,,,,,89601,001,2022-04-21_19h23.49.786,SPAMnetsValid,2021.1.4,Win32,59.93048064,,,,,,,,,,,,,,,,,,,,,,,,,,,,,,,,,,,,,,4,50.0702,0,13,13,13,1,surcease,enlightenment,cessation,inattention,censor,substitution,2,,,,,,,,,,,,,,,,,,,,,,,,,,,,,,,,,,,,,,
,,,,,,,,,,,,,,,89601,001,2022-04-21_19h23.49.786,SPAMnetsValid,2021.1.4,Win32,59.93048064,,,,,,,,,,,,,,,,,,,,,,,,,,,,,,,,,,,,,,2,3.6558,0,14,14,14,1,apathetic,wandering,impassive,hateful,prophetic,overflowing,2,,,,,,,,,,,,,,,,,,,,,,,,,,,,,,,,,,,,,,
,,,,,,,,,,,,,,,89601,001,2022-04-21_19h23.49.786,SPAMnetsValid,2021.1.4,Win32,59.93048064,,,,,,,,,,,,,,,,,,,,,,,,,,,,,,,,,,,,,,5,8.1127,0,15,15,15,1,paternoster,paternalism,patricide,malediction,benediction,prayer,5,,,,,,,,,,,,,,,,,,,,,,,,,,,,,,,,,,,,,,
,,,,,,,,,,,,,,,89601,001,2022-04-21_19h23.49.786,SPAMnetsValid,2021.1.4,Win32,59.93048064,,,,,,,,,,,,,,,,,,,,,,,,,,,,,,,,,,,,,,4,3.499,0,16,16,16,1,opalescence,opulence,senescence,bankruptcy,iridescence,assiduity,4,,,,,,,,,,,,,,,,,,,,,,,,,,,,,,,,,,,,,,
,,,,,,,,,,,,,,,89601,001,2022-04-21_19h23.49.786,SPAMnetsValid,2021.1.4,Win32,59.93048064,,,,,,,,,,,,,,,,,,,,,,,,,,,,,,,,,,,,,,2,4.1055,0,17,17,17,1,lush,stupid,luxurious,hazy,putrid,languishing,2,,,,,,,,,,,,,,,,,,,,,,,,,,,,,,,,,,,,,,
,,,,,,,,,,,,,,,89601,001,2022-04-21_19h23.49.786,SPAMnetsValid,2021.1.4,Win32,59.93048064,,,,,,,,,,,,,,,,,,,,,,,,,,,,,,,,,,,,,,3,2.4947,0,18,18,18,1,curtailment,expenditure,abandonment,abridgment,improvement,forgery,3,,,,,,,,,,,,,,,,,,,,,,,,,,,,,,,,,,,,,,
,,,,,,,,,,,,,,,89601,001,2022-04-21_19h23.49.786,SPAMnetsValid,2021.1.4,Win32,59.93048064,,,,,,,,,,,,,,,,,,,,,,,,,,,,,,,,,,,,,,2,74.4747,0,19,19,19,1,perversity,adversity,perviousness,travesty,waywardness,gentility,4,,,,,,,,,,,,,,,,,,,,,,,,,,,,,,,,,,,,,,
,,,,,,,,,,,,,,,89601,001,2022-04-21_19h23.49.786,SPAMnetsValid,2021.1.4,Win32,59.93048064,,,,,,,,,,,,,,,,,,,,,,,,,,,,,,,,,,,,,,5,5.5483,0,20,20,20,1,calumnious,complimentary,analogous,slanderous,tempestuous,magnanimous,3,,,,,,,,,,,,,,,,,,,,,,,,,,,,,,,,,,,,,,
,,,,,,,,,,,,,,,89601,001,2022-04-21_19h23.49.786,SPAMnetsValid,2021.1.4,Win32,59.93048064,,,,,,,,,,,,,,,,,,,,,,,,,,,,,,,,,,,,,,1,5.4679,0,21,21,21,1,illiberality,bigotry,imbecility,illegibility,cautery,immaturity,1,,,,,,,,,,,,,,,,,,,,,,,,,,,,,,,,,,,,,,
,,,,,,,,,,,,,,,89601,001,2022-04-21_19h23.49.786,SPAMnetsValid,2021.1.4,Win32,59.93048064,,,,,,,,,,,,,,,,,,,,,,,,,,,,,,,,,,,,,,2,3.5691,0,22,22,22,1,clabber,rejoice,gossip,curdle,crow,hobble,3,,,,,,,,,,,,,,,,,,,,,,,,,,,,,,,,,,,,,,
,,,,,,,,,,,,,,,89601,001,2022-04-21_19h23.49.786,SPAMnetsValid,2021.1.4,Win32,59.93048064,,,,,,,,,,,,,,,,,,,,,,,,,,,,,,,,,,,,,,1,5.3425,0,23,23,23,1,sedulousness,diligence,credulousness,seduction,perilousness,frankness,1,,,,,,,,,,,,,,,,,,,,,,,,,,,,,,,,,,,,,,
,,,,,,,,,,,,,,,89601,001,2022-04-21_19h23.49.786,SPAMnetsValid,2021.1.4,Win32,59.93048064,,,,,,,,,,,,,,,,,,,,,,,,,,,,,,,,,,,,,,,,,,,,,,,,,,,,bag,pillow,0,0,0,0,1,,,,,,,,,,,,,,,,,,,,,,,,,,,,,,,
,,,,,,,,,,,,,,,89601,001,2022-04-21_19h23.49.786,SPAMnetsValid,2021.1.4,Win32,59.93048064,,,,,,,,,,,,,,,,,,,,,,,,,,,,,,,,,,,,,,,,,,,,,,,,,,,,weapon,pillow,1,0,1,0,1,,,,,,,,,,,,,,,,,,,,,,,,,,,,,,,
,,,,,,,,,,,,,,,89601,001,2022-04-21_19h23.49.786,SPAMnetsValid,2021.1.4,Win32,59.93048064,,,,,,,,,,,,,,,,,,,,,,,,,,,,,,,,,,,,,,,,,,,,,,,,,,,,rope if you tie multiple together,pillow,2,0,2,0,1,,,,,,,,,,,,,,,,,,,,,,,,,,,,,,,
,,,,,,,,,,,,,,,89601,001,2022-04-21_19h23.49.786,SPAMnetsValid,2021.1.4,Win32,59.93048064,,,,,,,,,,,,,,,,,,,,,,,,,,,,,,,,,,,,,,,,,,,,,,,,,,,,screen cover,pillow,3,0,3,0,1,,,,,,,,,,,,,,,,,,,,,,,,,,,,,,,
,,,,,,,,,,,,,,,89601,001,2022-04-21_19h23.49.786,SPAMnetsValid,2021.1.4,Win32,59.93048064,,,,,,,,,,,,,,,,,,,,,,,,,,,,,,,,,,,,,,,,,,,,,,,,,,,,,,,,,,,0,0,0,2,1,pillow,,,,,,,,,,,,,,,,,,,,,,,,,
,,,,,,,,,,,,,,,89601,001,2022-04-21_19h23.49.786,SPAMnetsValid,2021.1.4,Win32,59.93048064,,,,,,,,,,,,,,,,,,,,,,,,,,,,,,,,,,,,,,,,,,,,,,,,,,,,footstool,bucket,0,0,0,0,1,,,,,,,,,,,,,,,,,,,,,,,,,,,,,,,
,,,,,,,,,,,,,,,89601,001,2022-04-21_19h23.49.786,SPAMnetsValid,2021.1.4,Win32,59.93048064,,,,,,,,,,,,,,,,,,,,,,,,,,,,,,,,,,,,,,,,,,,,,,,,,,,,bed riser,bucket,1,0,1,0,1,,,,,,,,,,,,,,,,,,,,,,,,,,,,,,,
,,,,,,,,,,,,,,,89601,001,2022-04-21_19h23.49.786,SPAMnetsValid,2021.1.4,Win32,59.93048064,,,,,,,,,,,,,,,,,,,,,,,,,,,,,,,,,,,,,,,,,,,,,,,,,,,,,,,,,,,0,1,1,0,1,bucket,,,,,,,,,,,,,,,,,,,,,,,,,
,,,,,,,,,,,,,,,89601,001,2022-04-21_19h23.49.786,SPAMnetsValid,2021.1.4,Win32,59.93048064,,,,,,,,,,,,,,,,,,,,,,,,,,,,,,,,,,,,,,,,,,,,,,,,,,,,cauterizing,candle,0,0,0,0,1,,,,,,,,,,,,,,,,,,,,,,,,,,,,,,,
,,,,,,,,,,,,,,,89601,001,2022-04-21_19h23.49.786,SPAMnetsValid,2021.1.4,Win32,59.93048064,,,,,,,,,,,,,,,,,,,,,,,,,,,,,,,,,,,,,,,,,,,,,,,,,,,,road flare,candle,1,0,1,0,1,,,,,,,,,,,,,,,,,,,,,,,,,,,,,,,
,,,,,,,,,,,,,,,89601,001,2022-04-21_19h23.49.786,SPAMnetsValid,2021.1.4,Win32,59.93048064,,,,,,,,,,,,,,,,,,,,,,,,,,,,,,,,,,,,,,,,,,,,,,,,,,,,,,,,,,,0,2,2,1,1,candle,,,,,,,,,,,,,,,,,,,,,,,,,
,,,,,,,,,,,,,,,89601,001,2022-04-21_19h23.49.786,SPAMnetsValid,2021.1.4,Win32,59.93048064,,,,,,,,,,,,,,,,,,,,,,,,,,,,,,,,,,,,,,,,,,,,,,,,,,,,,,,,,,,,,,,,,fox,Animals,0,0,0,0,1,,,,,,,,,,,,,,,,,,
,,,,,,,,,,,,,,,89601,001,2022-04-21_19h23.49.786,SPAMnetsValid,2021.1.4,Win32,59.93048064,,,,,,,,,,,,,,,,,,,,,,,,,,,,,,,,,,,,,,,,,,,,,,,,,,,,,,,,,,,,,,,,,dog,Animals,1,0,1,0,1,,,,,,,,,,,,,,,,,,
,,,,,,,,,,,,,,,89601,001,2022-04-21_19h23.49.786,SPAMnetsValid,2021.1.4,Win32,59.93048064,,,,,,,,,,,,,,,,,,,,,,,,,,,,,,,,,,,,,,,,,,,,,,,,,,,,,,,,,,,,,,,,,cat,Animals,2,0,2,0,1,,,,,,,,,,,,,,,,,,
,,,,,,,,,,,,,,,89601,001,2022-04-21_19h23.49.786,SPAMnetsValid,2021.1.4,Win32,59.93048064,,,,,,,,,,,,,,,,,,,,,,,,,,,,,,,,,,,,,,,,,,,,,,,,,,,,,,,,,,,,,,,,,bear,Animals,3,0,3,0,1,,,,,,,,,,,,,,,,,,
,,,,,,,,,,,,,,,89601,001,2022-04-21_19h23.49.786,SPAMnetsValid,2021.1.4,Win32,59.93048064,,,,,,,,,,,,,,,,,,,,,,,,,,,,,,,,,,,,,,,,,,,,,,,,,,,,,,,,,,,,,,,,,wolf,Animals,4,0,4,0,1,,,,,,,,,,,,,,,,,,
,,,,,,,,,,,,,,,89601,001,2022-04-21_19h23.49.786,SPAMnetsValid,2021.1.4,Win32,59.93048064,,,,,,,,,,,,,,,,,,,,,,,,,,,,,,,,,,,,,,,,,,,,,,,,,,,,,,,,,,,,,,,,,rabbit,Animals,5,0,5,0,1,,,,,,,,,,,,,,,,,,
,,,,,,,,,,,,,,,89601,001,2022-04-21_19h23.49.786,SPAMnetsValid,2021.1.4,Win32,59.93048064,,,,,,,,,,,,,,,,,,,,,,,,,,,,,,,,,,,,,,,,,,,,,,,,,,,,,,,,,,,,,,,,,giraffe,Animals,6,0,6,0,1,,,,,,,,,,,,,,,,,,
,,,,,,,,,,,,,,,89601,001,2022-04-21_19h23.49.786,SPAMnetsValid,2021.1.4,Win32,59.93048064,,,,,,,,,,,,,,,,,,,,,,,,,,,,,,,,,,,,,,,,,,,,,,,,,,,,,,,,,,,,,,,,,lion,Animals,7,0,7,0,1,,,,,,,,,,,,,,,,,,
,,,,,,,,,,,,,,,89601,001,2022-04-21_19h23.49.786,SPAMnetsValid,2021.1.4,Win32,59.93048064,,,,,,,,,,,,,,,,,,,,,,,,,,,,,,,,,,,,,,,,,,,,,,,,,,,,,,,,,,,,,,,,,tiger,Animals,8,0,8,0,1,,,,,,,,,,,,,,,,,,
,,,,,,,,,,,,,,,89601,001,2022-04-21_19h23.49.786,SPAMnetsValid,2021.1.4,Win32,59.93048064,,,,,,,,,,,,,,,,,,,,,,,,,,,,,,,,,,,,,,,,,,,,,,,,,,,,,,,,,,,,,,,,,axolotl,Animals,9,0,9,0,1,,,,,,,,,,,,,,,,,,
,,,,,,,,,,,,,,,89601,001,2022-04-21_19h23.49.786,SPAMnetsValid,2021.1.4,Win32,59.93048064,,,,,,,,,,,,,,,,,,,,,,,,,,,,,,,,,,,,,,,,,,,,,,,,,,,,,,,,,,,,,,,,,eel,Animals,10,0,10,0,1,,,,,,,,,,,,,,,,,,
,,,,,,,,,,,,,,,89601,001,2022-04-21_19h23.49.786,SPAMnetsValid,2021.1.4,Win32,59.93048064,,,,,,,,,,,,,,,,,,,,,,,,,,,,,,,,,,,,,,,,,,,,,,,,,,,,,,,,,,,,,,,,,crow,Animals,11,0,11,0,1,,,,,,,,,,,,,,,,,,
,,,,,,,,,,,,,,,89601,001,2022-04-21_19h23.49.786,SPAMnetsValid,2021.1.4,Win32,59.93048064,,,,,,,,,,,,,,,,,,,,,,,,,,,,,,,,,,,,,,,,,,,,,,,,,,,,,,,,,,,,,,,,,eagle,Animals,12,0,12,0,1,,,,,,,,,,,,,,,,,,
,,,,,,,,,,,,,,,89601,001,2022-04-21_19h23.49.786,SPAMnetsValid,2021.1.4,Win32,59.93048064,,,,,,,,,,,,,,,,,,,,,,,,,,,,,,,,,,,,,,,,,,,,,,,,,,,,,,,,,,,,,,,,,falcon,Animals,13,0,13,0,1,,,,,,,,,,,,,,,,,,
,,,,,,,,,,,,,,,89601,001,2022-04-21_19h23.49.786,SPAMnetsValid,2021.1.4,Win32,59.93048064,,,,,,,,,,,,,,,,,,,,,,,,,,,,,,,,,,,,,,,,,,,,,,,,,,,,,,,,,,,,,,,,,,,,,,,,0,0,0,0,1,Animals,,,,,,,,,,,,
,,,,,,,,,,,,,,,89601,001,2022-04-21_19h23.49.786,SPAMnetsValid,2021.1.4,Win32,59.93048064,,,,,,,,,,,,,,,,,,,,,,,,,,,,,,,,,,,,,,,,,,,,,,,,,,,,,,,,,,,,,,,,,,,,,,,,,,,,,,5,2.9738,0,0,0,0,1,"I enjoy concentrating on a fantasy or daydream and exploring all its possibilities, letting it grow and develop.",0,1,,
,,,,,,,,,,,,,,,89601,001,2022-04-21_19h23.49.786,SPAMnetsValid,2021.1.4,Win32,59.93048064,,,,,,,,,,,,,,,,,,,,,,,,,,,,,,,,,,,,,,,,,,,,,,,,,,,,,,,,,,,,,,,,,,,,,,,,,,,,,,4,1.245,0,1,1,1,1,I think it's interesting to learn and develop new hobbies.,0,2,,
,,,,,,,,,,,,,,,89601,001,2022-04-21_19h23.49.786,SPAMnetsValid,2021.1.4,Win32,59.93048064,,,,,,,,,,,,,,,,,,,,,,,,,,,,,,,,,,,,,,,,,,,,,,,,,,,,,,,,,,,,,,,,,,,,,,,,,,,,,,3,1.5031,0,2,2,2,1,I am intrigued by the patterns I find in art and nature.,0,3,,
,,,,,,,,,,,,,,,89601,001,2022-04-21_19h23.49.786,SPAMnetsValid,2021.1.4,Win32,59.93048064,,,,,,,,,,,,,,,,,,,,,,,,,,,,,,,,,,,,,,,,,,,,,,,,,,,,,,,,,,,,,,,,,,,,,,,,,,,,,,3,3.5323,0,3,3,3,1,I believe letting students hear controversial speakers can only confuse and mislead them.,1,4,,
,,,,,,,,,,,,,,,89601,001,2022-04-21_19h23.49.786,SPAMnetsValid,2021.1.4,Win32,59.93048064,,,,,,,,,,,,,,,,,,,,,,,,,,,,,,,,,,,,,,,,,,,,,,,,,,,,,,,,,,,,,,,,,,,,,,,,,,,,,,4,2.2698,0,4,4,4,1,Poetry has little or no effect on me.,1,5,,
,,,,,,,,,,,,,,,89601,001,2022-04-21_19h23.49.786,SPAMnetsValid,2021.1.4,Win32,59.93048064,,,,,,,,,,,,,,,,,,,,,,,,,,,,,,,,,,,,,,,,,,,,,,,,,,,,,,,,,,,,,,,,,,,,,,,,,,,,,,3,3.3125,0,5,5,5,1,I would have difficulty just letting my mind wander without control or guidance.,1,6,,
,,,,,,,,,,,,,,,89601,001,2022-04-21_19h23.49.786,SPAMnetsValid,2021.1.4,Win32,59.93048064,,,,,,,,,,,,,,,,,,,,,,,,,,,,,,,,,,,,,,,,,,,,,,,,,,,,,,,,,,,,,,,,,,,,,,,,,,,,,,2,3.7695,0,6,6,6,1,I seldom notice the moods or feelings that different environments produce.,1,7,,
,,,,,,,,,,,,,,,89601,001,2022-04-21_19h23.49.786,SPAMnetsValid,2021.1.4,Win32,59.93048064,,,,,,,,,,,,,,,,,,,,,,,,,,,,,,,,,,,,,,,,,,,,,,,,,,,,,,,,,,,,,,,,,,,,,,,,,,,,,,4,1.2897,0,7,7,7,1,I experience a wide range of emotions or feelings.,0,8,,
,,,,,,,,,,,,,,,89601,001,2022-04-21_19h23.49.786,SPAMnetsValid,2021.1.4,Win32,59.93048064,,,,,,,,,,,,,,,,,,,,,,,,,,,,,,,,,,,,,,,,,,,,,,,,,,,,,,,,,,,,,,,,,,,,,,,,,,,,,,4,4.8037,0,8,8,8,1,"Sometimes when I am reading poetry or looking at a work of art, I feel a chill or wave of excitement.",0,9,,
,,,,,,,,,,,,,,,89601,001,2022-04-21_19h23.49.786,SPAMnetsValid,2021.1.4,Win32,59.93048064,,,,,,,,,,,,,,,,,,,,,,,,,,,,,,,,,,,,,,,,,,,,,,,,,,,,,,,,,,,,,,,,,,,,,,,,,,,,,,2,2.8523,0,9,9,9,1,I have little interest in speculating on the nature of the universe or the human condition.,1,10,,
,,,,,,,,,,,,,,,89601,001,2022-04-21_19h23.49.786,SPAMnetsValid,2021.1.4,Win32,59.93048064,,,,,,,,,,,,,,,,,,,,,,,,,,,,,,,,,,,,,,,,,,,,,,,,,,,,,,,,,,,,,,,,,,,,,,,,,,,,,,4,3.5534,0,10,10,10,1,I have a lot of intellectual curiosity.,0,11,,
,,,,,,,,,,,,,,,89601,001,2022-04-21_19h23.49.786,SPAMnetsValid,2021.1.4,Win32,59.93048064,,,,,,,,,,,,,,,,,,,,,,,,,,,,,,,,,,,,,,,,,,,,,,,,,,,,,,,,,,,,,,,,,,,,,,,,,,,,,,3,1.6865,0,11,11,11,1,I often enjoy playing with theories or abstract ideas.,0,12,,
,,,,,,,,,,,,,,,89601,001,2022-04-21_19h23.49.786,SPAMnetsValid,2021.1.4,Win32,59.93048064,,,,,,,,,,,,,,,,,,,,,,,,,,,,,,,,,,,,,,,,,,,,,,,,,,,,,,,,,,,,,,,,,,,,,,,,,,,,,,,,,,,,,,,,return,29.5807
