key_resp_3.keys,key_resp_3.rt,slider_2.response,slider_2.rt,rjt_rating,rjt_RT,trials_24.thisRepN,trials_24.thisTrialN,trials_24.thisN,trials_24.thisIndex,trials_24.ran,rjt_order,word1,word2,attention,participant,session,date,expName,psychopyVersion,OS,frameRate,trials_4.thisRepN,trials_4.thisTrialN,trials_4.thisN,trials_4.thisIndex,trials_4.ran,trials_5.thisRepN,trials_5.thisTrialN,trials_5.thisN,trials_5.thisIndex,trials_5.ran,repOne,repTwo,slider.response,slider.rt,trials_22.thisRepN,trials_22.thisTrialN,trials_22.thisN,trials_22.thisIndex,trials_22.ran,trials_99.thisRepN,trials_99.thisTrialN,trials_99.thisN,trials_99.thisIndex,trials_99.ran,slider_extend_2.response,slider_extend_2.rt,trials_6.thisRepN,trials_6.thisTrialN,trials_6.thisN,trials_6.thisIndex,trials_6.ran,vCue2,R1,R2,R3,R4,correct,sliderVocab.response,sliderVocab.rt,trials_7.thisRepN,trials_7.thisTrialN,trials_7.thisN,trials_7.thisIndex,trials_7.ran,VocabCue,VR1,VR2,VR3,VR4,VR5,VocabCorrect,AUT_resp,AUT_label,trials.thisRepN,trials.thisTrialN,trials.thisN,trials.thisIndex,trials.ran,trials_2.thisRepN,trials_2.thisTrialN,trials_2.thisN,trials_2.thisIndex,trials_2.ran,aut_prompt,VF_response,VF_tag,trials_16.thisRepN,trials_16.thisTrialN,trials_16.thisN,trials_16.thisIndex,trials_16.ran,trials_17.thisRepN,trials_17.thisTrialN,trials_17.thisN,trials_17.thisIndex,trials_17.ran,VFcond,open_slider.response,open_slider.rt,trials_3.thisRepN,trials_3.thisTrialN,trials_3.thisN,trials_3.thisIndex,trials_3.ran,OpenQ,Rev,OPEN_ORDER,key_resp_2.keys,key_resp_2.rt
return,67.1711,3,12.9339,3,12.9339,0,0,0,59,1,164,cookie,garden,,89618,001,2022-04-29_12h40.09.483,SPAMnetsValid,2021.1.4,Win32,59.64096141,,,,,,,,,,,,,,,,,,,,,,,,,,,,,,,,,,,,,,,,,,,,,,,,,,,,,,,,,,,,,,,,,,,,,,,,,,,,,,,,,,,,,,,,,
,,2,1.963,2,1.963,0,1,1,63,1,137,microwave,tree,,89618,001,2022-04-29_12h40.09.483,SPAMnetsValid,2021.1.4,Win32,59.64096141,,,,,,,,,,,,,,,,,,,,,,,,,,,,,,,,,,,,,,,,,,,,,,,,,,,,,,,,,,,,,,,,,,,,,,,,,,,,,,,,,,,,,,,,,
,,3,1.8991,3,1.8991,0,2,2,55,1,143,pretzel,rose,,89618,001,2022-04-29_12h40.09.483,SPAMnetsValid,2021.1.4,Win32,59.64096141,,,,,,,,,,,,,,,,,,,,,,,,,,,,,,,,,,,,,,,,,,,,,,,,,,,,,,,,,,,,,,,,,,,,,,,,,,,,,,,,,,,,,,,,,
,,8,2.1489,8,2.1489,0,3,3,17,1,99,garden,melon,,89618,001,2022-04-29_12h40.09.483,SPAMnetsValid,2021.1.4,Win32,59.64096141,,,,,,,,,,,,,,,,,,,,,,,,,,,,,,,,,,,,,,,,,,,,,,,,,,,,,,,,,,,,,,,,,,,,,,,,,,,,,,,,,,,,,,,,,
,,7,2.8741,7,2.8741,0,4,4,8,1,97,chocolate,kitchen,,89618,001,2022-04-29_12h40.09.483,SPAMnetsValid,2021.1.4,Win32,59.64096141,,,,,,,,,,,,,,,,,,,,,,,,,,,,,,,,,,,,,,,,,,,,,,,,,,,,,,,,,,,,,,,,,,,,,,,,,,,,,,,,,,,,,,,,,
,,6,4.3555,6,4.3555,0,5,5,12,1,162,microwave,tomato,,89618,001,2022-04-29_12h40.09.483,SPAMnetsValid,2021.1.4,Win32,59.64096141,,,,,,,,,,,,,,,,,,,,,,,,,,,,,,,,,,,,,,,,,,,,,,,,,,,,,,,,,,,,,,,,,,,,,,,,,,,,,,,,,,,,,,,,,
,,4,2.8042,4,2.8042,0,6,6,58,1,144,cake,garden,,89618,001,2022-04-29_12h40.09.483,SPAMnetsValid,2021.1.4,Win32,59.64096141,,,,,,,,,,,,,,,,,,,,,,,,,,,,,,,,,,,,,,,,,,,,,,,,,,,,,,,,,,,,,,,,,,,,,,,,,,,,,,,,,,,,,,,,,
,,8,1.7617,8,1.7617,0,7,7,7,1,188,flower,tree,,89618,001,2022-04-29_12h40.09.483,SPAMnetsValid,2021.1.4,Win32,59.64096141,,,,,,,,,,,,,,,,,,,,,,,,,,,,,,,,,,,,,,,,,,,,,,,,,,,,,,,,,,,,,,,,,,,,,,,,,,,,,,,,,,,,,,,,,
,,5,2.5933,5,2.5933,0,8,8,94,1,133,cake,flower,,89618,001,2022-04-29_12h40.09.483,SPAMnetsValid,2021.1.4,Win32,59.64096141,,,,,,,,,,,,,,,,,,,,,,,,,,,,,,,,,,,,,,,,,,,,,,,,,,,,,,,,,,,,,,,,,,,,,,,,,,,,,,,,,,,,,,,,,
,,7,2.3463,7,2.3463,0,9,9,36,1,161,kitchen,pretzel,,89618,001,2022-04-29_12h40.09.483,SPAMnetsValid,2021.1.4,Win32,59.64096141,,,,,,,,,,,,,,,,,,,,,,,,,,,,,,,,,,,,,,,,,,,,,,,,,,,,,,,,,,,,,,,,,,,,,,,,,,,,,,,,,,,,,,,,,
,,7,4.8973,7,4.8973,0,10,10,9,1,176,cactus,tomato,,89618,001,2022-04-29_12h40.09.483,SPAMnetsValid,2021.1.4,Win32,59.64096141,,,,,,,,,,,,,,,,,,,,,,,,,,,,,,,,,,,,,,,,,,,,,,,,,,,,,,,,,,,,,,,,,,,,,,,,,,,,,,,,,,,,,,,,,
,,8,1.7701,8,1.7701,0,11,11,70,1,141,melon,tomato,,89618,001,2022-04-29_12h40.09.483,SPAMnetsValid,2021.1.4,Win32,59.64096141,,,,,,,,,,,,,,,,,,,,,,,,,,,,,,,,,,,,,,,,,,,,,,,,,,,,,,,,,,,,,,,,,,,,,,,,,,,,,,,,,,,,,,,,,
,,7,1.8584,7,1.8584,0,12,12,29,1,163,melon,refrigerator,,89618,001,2022-04-29_12h40.09.483,SPAMnetsValid,2021.1.4,Win32,59.64096141,,,,,,,,,,,,,,,,,,,,,,,,,,,,,,,,,,,,,,,,,,,,,,,,,,,,,,,,,,,,,,,,,,,,,,,,,,,,,,,,,,,,,,,,,
,,6,2.4812,6,2.4812,0,13,13,78,1,132,broom,tree,,89618,001,2022-04-29_12h40.09.483,SPAMnetsValid,2021.1.4,Win32,59.64096141,,,,,,,,,,,,,,,,,,,,,,,,,,,,,,,,,,,,,,,,,,,,,,,,,,,,,,,,,,,,,,,,,,,,,,,,,,,,,,,,,,,,,,,,,
,,6,1.9775,6,1.9775,0,14,14,24,1,169,onion,yogurt,,89618,001,2022-04-29_12h40.09.483,SPAMnetsValid,2021.1.4,Win32,59.64096141,,,,,,,,,,,,,,,,,,,,,,,,,,,,,,,,,,,,,,,,,,,,,,,,,,,,,,,,,,,,,,,,,,,,,,,,,,,,,,,,,,,,,,,,,
,,7,1.9295,7,1.9295,0,15,15,22,1,142,garden,tree,,89618,001,2022-04-29_12h40.09.483,SPAMnetsValid,2021.1.4,Win32,59.64096141,,,,,,,,,,,,,,,,,,,,,,,,,,,,,,,,,,,,,,,,,,,,,,,,,,,,,,,,,,,,,,,,,,,,,,,,,,,,,,,,,,,,,,,,,
,,8,2.2721,8,2.2721,0,16,16,52,1,110,chocolate,cookie,,89618,001,2022-04-29_12h40.09.483,SPAMnetsValid,2021.1.4,Win32,59.64096141,,,,,,,,,,,,,,,,,,,,,,,,,,,,,,,,,,,,,,,,,,,,,,,,,,,,,,,,,,,,,,,,,,,,,,,,,,,,,,,,,,,,,,,,,
,,8,1.6052,8,1.6052,0,17,17,44,1,116,cake,chocolate,,89618,001,2022-04-29_12h40.09.483,SPAMnetsValid,2021.1.4,Win32,59.64096141,,,,,,,,,,,,,,,,,,,,,,,,,,,,,,,,,,,,,,,,,,,,,,,,,,,,,,,,,,,,,,,,,,,,,,,,,,,,,,,,,,,,,,,,,
,,3,2.7982,3,2.7982,0,18,18,95,1,121,broom,microwave,,89618,001,2022-04-29_12h40.09.483,SPAMnetsValid,2021.1.4,Win32,59.64096141,,,,,,,,,,,,,,,,,,,,,,,,,,,,,,,,,,,,,,,,,,,,,,,,,,,,,,,,,,,,,,,,,,,,,,,,,,,,,,,,,,,,,,,,,
,,7,4.0058,7,4.0058,0,19,19,85,1,115,refrigerator,tomato,,89618,001,2022-04-29_12h40.09.483,SPAMnetsValid,2021.1.4,Win32,59.64096141,,,,,,,,,,,,,,,,,,,,,,,,,,,,,,,,,,,,,,,,,,,,,,,,,,,,,,,,,,,,,,,,,,,,,,,,,,,,,,,,,,,,,,,,,
,,6,6.3598,6,6.3598,0,20,20,82,1,98,pretzel,strawberry,,89618,001,2022-04-29_12h40.09.483,SPAMnetsValid,2021.1.4,Win32,59.64096141,,,,,,,,,,,,,,,,,,,,,,,,,,,,,,,,,,,,,,,,,,,,,,,,,,,,,,,,,,,,,,,,,,,,,,,,,,,,,,,,,,,,,,,,,
,,6,2.0404,6,2.0404,0,21,21,40,1,165,onion,rose,,89618,001,2022-04-29_12h40.09.483,SPAMnetsValid,2021.1.4,Win32,59.64096141,,,,,,,,,,,,,,,,,,,,,,,,,,,,,,,,,,,,,,,,,,,,,,,,,,,,,,,,,,,,,,,,,,,,,,,,,,,,,,,,,,,,,,,,,
,,6,1.6684,6,1.6684,0,22,22,6,1,151,microwave,onion,,89618,001,2022-04-29_12h40.09.483,SPAMnetsValid,2021.1.4,Win32,59.64096141,,,,,,,,,,,,,,,,,,,,,,,,,,,,,,,,,,,,,,,,,,,,,,,,,,,,,,,,,,,,,,,,,,,,,,,,,,,,,,,,,,,,,,,,,
,,3,1.737,3,1.737,0,23,23,46,1,123,cookie,tree,,89618,001,2022-04-29_12h40.09.483,SPAMnetsValid,2021.1.4,Win32,59.64096141,,,,,,,,,,,,,,,,,,,,,,,,,,,,,,,,,,,,,,,,,,,,,,,,,,,,,,,,,,,,,,,,,,,,,,,,,,,,,,,,,,,,,,,,,
,,7,1.8743,7,1.8743,0,24,24,35,1,147,cake,refrigerator,,89618,001,2022-04-29_12h40.09.483,SPAMnetsValid,2021.1.4,Win32,59.64096141,,,,,,,,,,,,,,,,,,,,,,,,,,,,,,,,,,,,,,,,,,,,,,,,,,,,,,,,,,,,,,,,,,,,,,,,,,,,,,,,,,,,,,,,,
,,9,1.4538,9,1.4538,0,25,25,86,1,193,melon,melon,CHECK,89618,001,2022-04-29_12h40.09.483,SPAMnetsValid,2021.1.4,Win32,59.64096141,,,,,,,,,,,,,,,,,,,,,,,,,,,,,,,,,,,,,,,,,,,,,,,,,,,,,,,,,,,,,,,,,,,,,,,,,,,,,,,,,,,,,,,,,
,,3,5.4117,3,5.4117,0,26,26,64,1,157,refrigerator,rose,,89618,001,2022-04-29_12h40.09.483,SPAMnetsValid,2021.1.4,Win32,59.64096141,,,,,,,,,,,,,,,,,,,,,,,,,,,,,,,,,,,,,,,,,,,,,,,,,,,,,,,,,,,,,,,,,,,,,,,,,,,,,,,,,,,,,,,,,
,,2,2.2698,2,2.2698,0,27,27,45,1,179,broom,oven,,89618,001,2022-04-29_12h40.09.483,SPAMnetsValid,2021.1.4,Win32,59.64096141,,,,,,,,,,,,,,,,,,,,,,,,,,,,,,,,,,,,,,,,,,,,,,,,,,,,,,,,,,,,,,,,,,,,,,,,,,,,,,,,,,,,,,,,,
,,8,3.4725,8,3.4725,0,28,28,51,1,168,cactus,flower,,89618,001,2022-04-29_12h40.09.483,SPAMnetsValid,2021.1.4,Win32,59.64096141,,,,,,,,,,,,,,,,,,,,,,,,,,,,,,,,,,,,,,,,,,,,,,,,,,,,,,,,,,,,,,,,,,,,,,,,,,,,,,,,,,,,,,,,,
,,4,2.5195,4,2.5195,0,29,29,68,1,180,tree,yogurt,,89618,001,2022-04-29_12h40.09.483,SPAMnetsValid,2021.1.4,Win32,59.64096141,,,,,,,,,,,,,,,,,,,,,,,,,,,,,,,,,,,,,,,,,,,,,,,,,,,,,,,,,,,,,,,,,,,,,,,,,,,,,,,,,,,,,,,,,
,,8,2.0354,8,2.0354,0,30,30,47,1,167,carrot,garden,,89618,001,2022-04-29_12h40.09.483,SPAMnetsValid,2021.1.4,Win32,59.64096141,,,,,,,,,,,,,,,,,,,,,,,,,,,,,,,,,,,,,,,,,,,,,,,,,,,,,,,,,,,,,,,,,,,,,,,,,,,,,,,,,,,,,,,,,
,,8,1.9754,8,1.9754,0,31,31,72,1,181,carrot,kitchen,,89618,001,2022-04-29_12h40.09.483,SPAMnetsValid,2021.1.4,Win32,59.64096141,,,,,,,,,,,,,,,,,,,,,,,,,,,,,,,,,,,,,,,,,,,,,,,,,,,,,,,,,,,,,,,,,,,,,,,,,,,,,,,,,,,,,,,,,
,,6,2.3123,6,2.3123,0,32,32,16,1,111,carrot,microwave,,89618,001,2022-04-29_12h40.09.483,SPAMnetsValid,2021.1.4,Win32,59.64096141,,,,,,,,,,,,,,,,,,,,,,,,,,,,,,,,,,,,,,,,,,,,,,,,,,,,,,,,,,,,,,,,,,,,,,,,,,,,,,,,,,,,,,,,,
,,8,2.0933,8,2.0933,0,33,33,60,1,122,flower,garden,,89618,001,2022-04-29_12h40.09.483,SPAMnetsValid,2021.1.4,Win32,59.64096141,,,,,,,,,,,,,,,,,,,,,,,,,,,,,,,,,,,,,,,,,,,,,,,,,,,,,,,,,,,,,,,,,,,,,,,,,,,,,,,,,,,,,,,,,
,,4,3.9091,4,3.9091,0,34,34,84,1,130,microwave,yogurt,,89618,001,2022-04-29_12h40.09.483,SPAMnetsValid,2021.1.4,Win32,59.64096141,,,,,,,,,,,,,,,,,,,,,,,,,,,,,,,,,,,,,,,,,,,,,,,,,,,,,,,,,,,,,,,,,,,,,,,,,,,,,,,,,,,,,,,,,
,,2,3.5292,2,3.5292,0,35,35,20,1,149,broom,tomato,,89618,001,2022-04-29_12h40.09.483,SPAMnetsValid,2021.1.4,Win32,59.64096141,,,,,,,,,,,,,,,,,,,,,,,,,,,,,,,,,,,,,,,,,,,,,,,,,,,,,,,,,,,,,,,,,,,,,,,,,,,,,,,,,,,,,,,,,
,,8,1.8023,8,1.8023,0,36,36,37,1,139,carrot,strawberry,,89618,001,2022-04-29_12h40.09.483,SPAMnetsValid,2021.1.4,Win32,59.64096141,,,,,,,,,,,,,,,,,,,,,,,,,,,,,,,,,,,,,,,,,,,,,,,,,,,,,,,,,,,,,,,,,,,,,,,,,,,,,,,,,,,,,,,,,
,,7,3.9484,7,3.9484,0,37,37,27,1,158,cookie,oven,,89618,001,2022-04-29_12h40.09.483,SPAMnetsValid,2021.1.4,Win32,59.64096141,,,,,,,,,,,,,,,,,,,,,,,,,,,,,,,,,,,,,,,,,,,,,,,,,,,,,,,,,,,,,,,,,,,,,,,,,,,,,,,,,,,,,,,,,
,,6,2.4128,6,2.4128,0,38,38,91,1,166,cake,yogurt,,89618,001,2022-04-29_12h40.09.483,SPAMnetsValid,2021.1.4,Win32,59.64096141,,,,,,,,,,,,,,,,,,,,,,,,,,,,,,,,,,,,,,,,,,,,,,,,,,,,,,,,,,,,,,,,,,,,,,,,,,,,,,,,,,,,,,,,,
,,6,1.9581,6,1.9581,0,39,39,5,1,108,carrot,chocolate,,89618,001,2022-04-29_12h40.09.483,SPAMnetsValid,2021.1.4,Win32,59.64096141,,,,,,,,,,,,,,,,,,,,,,,,,,,,,,,,,,,,,,,,,,,,,,,,,,,,,,,,,,,,,,,,,,,,,,,,,,,,,,,,,,,,,,,,,
,,7,3.5862,7,3.5862,0,40,40,65,1,160,cookie,kitchen,,89618,001,2022-04-29_12h40.09.483,SPAMnetsValid,2021.1.4,Win32,59.64096141,,,,,,,,,,,,,,,,,,,,,,,,,,,,,,,,,,,,,,,,,,,,,,,,,,,,,,,,,,,,,,,,,,,,,,,,,,,,,,,,,,,,,,,,,
,,8,2.7447,8,2.7447,0,41,41,41,1,175,melon,onion,,89618,001,2022-04-29_12h40.09.483,SPAMnetsValid,2021.1.4,Win32,59.64096141,,,,,,,,,,,,,,,,,,,,,,,,,,,,,,,,,,,,,,,,,,,,,,,,,,,,,,,,,,,,,,,,,,,,,,,,,,,,,,,,,,,,,,,,,
,,6,8.9252,6,8.9252,0,42,42,28,1,154,strawberry,yogurt,,89618,001,2022-04-29_12h40.09.483,SPAMnetsValid,2021.1.4,Win32,59.64096141,,,,,,,,,,,,,,,,,,,,,,,,,,,,,,,,,,,,,,,,,,,,,,,,,,,,,,,,,,,,,,,,,,,,,,,,,,,,,,,,,,,,,,,,,
,,7,2.8939,7,2.8939,0,43,43,23,1,148,flower,melon,,89618,001,2022-04-29_12h40.09.483,SPAMnetsValid,2021.1.4,Win32,59.64096141,,,,,,,,,,,,,,,,,,,,,,,,,,,,,,,,,,,,,,,,,,,,,,,,,,,,,,,,,,,,,,,,,,,,,,,,,,,,,,,,,,,,,,,,,
,,8,2.2594,8,2.2594,0,44,44,14,1,120,microwave,oven,,89618,001,2022-04-29_12h40.09.483,SPAMnetsValid,2021.1.4,Win32,59.64096141,,,,,,,,,,,,,,,,,,,,,,,,,,,,,,,,,,,,,,,,,,,,,,,,,,,,,,,,,,,,,,,,,,,,,,,,,,,,,,,,,,,,,,,,,
,,8,2.6773,8,2.6773,0,45,45,61,1,138,flower,rose,,89618,001,2022-04-29_12h40.09.483,SPAMnetsValid,2021.1.4,Win32,59.64096141,,,,,,,,,,,,,,,,,,,,,,,,,,,,,,,,,,,,,,,,,,,,,,,,,,,,,,,,,,,,,,,,,,,,,,,,,,,,,,,,,,,,,,,,,
,,6,2.2849,6,2.2849,0,46,46,26,1,107,rose,tomato,,89618,001,2022-04-29_12h40.09.483,SPAMnetsValid,2021.1.4,Win32,59.64096141,,,,,,,,,,,,,,,,,,,,,,,,,,,,,,,,,,,,,,,,,,,,,,,,,,,,,,,,,,,,,,,,,,,,,,,,,,,,,,,,,,,,,,,,,
,,6,2.4521,6,2.4521,0,47,47,74,1,128,melon,microwave,,89618,001,2022-04-29_12h40.09.483,SPAMnetsValid,2021.1.4,Win32,59.64096141,,,,,,,,,,,,,,,,,,,,,,,,,,,,,,,,,,,,,,,,,,,,,,,,,,,,,,,,,,,,,,,,,,,,,,,,,,,,,,,,,,,,,,,,,
,,6,1.4419,6,1.4419,0,48,48,56,1,113,refrigerator,strawberry,,89618,001,2022-04-29_12h40.09.483,SPAMnetsValid,2021.1.4,Win32,59.64096141,,,,,,,,,,,,,,,,,,,,,,,,,,,,,,,,,,,,,,,,,,,,,,,,,,,,,,,,,,,,,,,,,,,,,,,,,,,,,,,,,,,,,,,,,
,,6,2.0207,6,2.0207,0,49,49,87,1,114,cookie,strawberry,,89618,001,2022-04-29_12h40.09.483,SPAMnetsValid,2021.1.4,Win32,59.64096141,,,,,,,,,,,,,,,,,,,,,,,,,,,,,,,,,,,,,,,,,,,,,,,,,,,,,,,,,,,,,,,,,,,,,,,,,,,,,,,,,,,,,,,,,
,,8,2.1711,8,2.1711,0,50,50,69,1,124,oven,refrigerator,,89618,001,2022-04-29_12h40.09.483,SPAMnetsValid,2021.1.4,Win32,59.64096141,,,,,,,,,,,,,,,,,,,,,,,,,,,,,,,,,,,,,,,,,,,,,,,,,,,,,,,,,,,,,,,,,,,,,,,,,,,,,,,,,,,,,,,,,
,,4,2.6305,4,2.6305,0,51,51,77,1,172,kitchen,melon,,89618,001,2022-04-29_12h40.09.483,SPAMnetsValid,2021.1.4,Win32,59.64096141,,,,,,,,,,,,,,,,,,,,,,,,,,,,,,,,,,,,,,,,,,,,,,,,,,,,,,,,,,,,,,,,,,,,,,,,,,,,,,,,,,,,,,,,,
,,9,1.8815,9,1.8815,0,52,52,25,1,194,cactus,cactus,CHECK,89618,001,2022-04-29_12h40.09.483,SPAMnetsValid,2021.1.4,Win32,59.64096141,,,,,,,,,,,,,,,,,,,,,,,,,,,,,,,,,,,,,,,,,,,,,,,,,,,,,,,,,,,,,,,,,,,,,,,,,,,,,,,,,,,,,,,,,
,,4,2.7454,4,2.7454,0,53,53,57,1,127,cactus,chocolate,,89618,001,2022-04-29_12h40.09.483,SPAMnetsValid,2021.1.4,Win32,59.64096141,,,,,,,,,,,,,,,,,,,,,,,,,,,,,,,,,,,,,,,,,,,,,,,,,,,,,,,,,,,,,,,,,,,,,,,,,,,,,,,,,,,,,,,,,
,,6,2.155,6,2.155,0,54,54,38,1,155,carrot,cookie,,89618,001,2022-04-29_12h40.09.483,SPAMnetsValid,2021.1.4,Win32,59.64096141,,,,,,,,,,,,,,,,,,,,,,,,,,,,,,,,,,,,,,,,,,,,,,,,,,,,,,,,,,,,,,,,,,,,,,,,,,,,,,,,,,,,,,,,,
,,6,11.3537,6,11.3537,0,55,55,79,1,103,pretzel,tomato,,89618,001,2022-04-29_12h40.09.483,SPAMnetsValid,2021.1.4,Win32,59.64096141,,,,,,,,,,,,,,,,,,,,,,,,,,,,,,,,,,,,,,,,,,,,,,,,,,,,,,,,,,,,,,,,,,,,,,,,,,,,,,,,,,,,,,,,,
,,7,4.9022,7,4.9022,0,56,56,10,1,118,chocolate,oven,,89618,001,2022-04-29_12h40.09.483,SPAMnetsValid,2021.1.4,Win32,59.64096141,,,,,,,,,,,,,,,,,,,,,,,,,,,,,,,,,,,,,,,,,,,,,,,,,,,,,,,,,,,,,,,,,,,,,,,,,,,,,,,,,,,,,,,,,
,,7,2.281,7,2.281,0,57,57,76,1,102,chocolate,refrigerator,,89618,001,2022-04-29_12h40.09.483,SPAMnetsValid,2021.1.4,Win32,59.64096141,,,,,,,,,,,,,,,,,,,,,,,,,,,,,,,,,,,,,,,,,,,,,,,,,,,,,,,,,,,,,,,,,,,,,,,,,,,,,,,,,,,,,,,,,
,,6,2.4478,6,2.4478,0,58,58,43,1,185,cactus,rose,,89618,001,2022-04-29_12h40.09.483,SPAMnetsValid,2021.1.4,Win32,59.64096141,,,,,,,,,,,,,,,,,,,,,,,,,,,,,,,,,,,,,,,,,,,,,,,,,,,,,,,,,,,,,,,,,,,,,,,,,,,,,,,,,,,,,,,,,
,,6,3.3702,6,3.3702,0,59,59,73,1,135,carrot,oven,,89618,001,2022-04-29_12h40.09.483,SPAMnetsValid,2021.1.4,Win32,59.64096141,,,,,,,,,,,,,,,,,,,,,,,,,,,,,,,,,,,,,,,,,,,,,,,,,,,,,,,,,,,,,,,,,,,,,,,,,,,,,,,,,,,,,,,,,
,,4,2.014,4,2.014,0,60,60,67,1,96,oven,strawberry,,89618,001,2022-04-29_12h40.09.483,SPAMnetsValid,2021.1.4,Win32,59.64096141,,,,,,,,,,,,,,,,,,,,,,,,,,,,,,,,,,,,,,,,,,,,,,,,,,,,,,,,,,,,,,,,,,,,,,,,,,,,,,,,,,,,,,,,,
,,3,3.9854,3,3.9854,0,61,61,13,1,105,cactus,oven,,89618,001,2022-04-29_12h40.09.483,SPAMnetsValid,2021.1.4,Win32,59.64096141,,,,,,,,,,,,,,,,,,,,,,,,,,,,,,,,,,,,,,,,,,,,,,,,,,,,,,,,,,,,,,,,,,,,,,,,,,,,,,,,,,,,,,,,,
,,4,4.0117,4,4.0117,0,62,62,4,1,109,broom,strawberry,,89618,001,2022-04-29_12h40.09.483,SPAMnetsValid,2021.1.4,Win32,59.64096141,,,,,,,,,,,,,,,,,,,,,,,,,,,,,,,,,,,,,,,,,,,,,,,,,,,,,,,,,,,,,,,,,,,,,,,,,,,,,,,,,,,,,,,,,
,,7,2.2705,7,2.2705,0,63,63,30,1,125,carrot,tree,,89618,001,2022-04-29_12h40.09.483,SPAMnetsValid,2021.1.4,Win32,59.64096141,,,,,,,,,,,,,,,,,,,,,,,,,,,,,,,,,,,,,,,,,,,,,,,,,,,,,,,,,,,,,,,,,,,,,,,,,,,,,,,,,,,,,,,,,
,,3,1.5583,3,1.5583,0,64,64,50,1,126,kitchen,tree,,89618,001,2022-04-29_12h40.09.483,SPAMnetsValid,2021.1.4,Win32,59.64096141,,,,,,,,,,,,,,,,,,,,,,,,,,,,,,,,,,,,,,,,,,,,,,,,,,,,,,,,,,,,,,,,,,,,,,,,,,,,,,,,,,,,,,,,,
,,3,1.9134,3,1.9134,0,65,65,32,1,182,flower,refrigerator,,89618,001,2022-04-29_12h40.09.483,SPAMnetsValid,2021.1.4,Win32,59.64096141,,,,,,,,,,,,,,,,,,,,,,,,,,,,,,,,,,,,,,,,,,,,,,,,,,,,,,,,,,,,,,,,,,,,,,,,,,,,,,,,,,,,,,,,,
,,7,6.7924,7,6.7924,0,66,66,42,1,184,oven,pretzel,,89618,001,2022-04-29_12h40.09.483,SPAMnetsValid,2021.1.4,Win32,59.64096141,,,,,,,,,,,,,,,,,,,,,,,,,,,,,,,,,,,,,,,,,,,,,,,,,,,,,,,,,,,,,,,,,,,,,,,,,,,,,,,,,,,,,,,,,
,,6,2.6323,6,2.6323,0,67,67,2,1,174,cake,pretzel,,89618,001,2022-04-29_12h40.09.483,SPAMnetsValid,2021.1.4,Win32,59.64096141,,,,,,,,,,,,,,,,,,,,,,,,,,,,,,,,,,,,,,,,,,,,,,,,,,,,,,,,,,,,,,,,,,,,,,,,,,,,,,,,,,,,,,,,,
,,6,2.2093,6,2.2093,0,68,68,49,1,152,cactus,strawberry,,89618,001,2022-04-29_12h40.09.483,SPAMnetsValid,2021.1.4,Win32,59.64096141,,,,,,,,,,,,,,,,,,,,,,,,,,,,,,,,,,,,,,,,,,,,,,,,,,,,,,,,,,,,,,,,,,,,,,,,,,,,,,,,,,,,,,,,,
,,3,2.724,3,2.724,0,69,69,81,1,104,garden,microwave,,89618,001,2022-04-29_12h40.09.483,SPAMnetsValid,2021.1.4,Win32,59.64096141,,,,,,,,,,,,,,,,,,,,,,,,,,,,,,,,,,,,,,,,,,,,,,,,,,,,,,,,,,,,,,,,,,,,,,,,,,,,,,,,,,,,,,,,,
,,7,3.9909,7,3.9909,0,70,70,89,1,140,cookie,refrigerator,,89618,001,2022-04-29_12h40.09.483,SPAMnetsValid,2021.1.4,Win32,59.64096141,,,,,,,,,,,,,,,,,,,,,,,,,,,,,,,,,,,,,,,,,,,,,,,,,,,,,,,,,,,,,,,,,,,,,,,,,,,,,,,,,,,,,,,,,
,,5,2.5802,5,2.5802,0,71,71,80,1,146,pretzel,tree,,89618,001,2022-04-29_12h40.09.483,SPAMnetsValid,2021.1.4,Win32,59.64096141,,,,,,,,,,,,,,,,,,,,,,,,,,,,,,,,,,,,,,,,,,,,,,,,,,,,,,,,,,,,,,,,,,,,,,,,,,,,,,,,,,,,,,,,,
,,8,2.0186,8,2.0186,0,72,72,39,1,112,cake,carrot,,89618,001,2022-04-29_12h40.09.483,SPAMnetsValid,2021.1.4,Win32,59.64096141,,,,,,,,,,,,,,,,,,,,,,,,,,,,,,,,,,,,,,,,,,,,,,,,,,,,,,,,,,,,,,,,,,,,,,,,,,,,,,,,,,,,,,,,,
,,7,2.9758,7,2.9758,0,73,73,92,1,170,cookie,microwave,,89618,001,2022-04-29_12h40.09.483,SPAMnetsValid,2021.1.4,Win32,59.64096141,,,,,,,,,,,,,,,,,,,,,,,,,,,,,,,,,,,,,,,,,,,,,,,,,,,,,,,,,,,,,,,,,,,,,,,,,,,,,,,,,,,,,,,,,
,,8,1.5582,8,1.5582,0,74,74,66,1,150,microwave,refrigerator,,89618,001,2022-04-29_12h40.09.483,SPAMnetsValid,2021.1.4,Win32,59.64096141,,,,,,,,,,,,,,,,,,,,,,,,,,,,,,,,,,,,,,,,,,,,,,,,,,,,,,,,,,,,,,,,,,,,,,,,,,,,,,,,,,,,,,,,,
,,6,2.4149,6,2.4149,0,75,75,0,1,106,cake,strawberry,,89618,001,2022-04-29_12h40.09.483,SPAMnetsValid,2021.1.4,Win32,59.64096141,,,,,,,,,,,,,,,,,,,,,,,,,,,,,,,,,,,,,,,,,,,,,,,,,,,,,,,,,,,,,,,,,,,,,,,,,,,,,,,,,,,,,,,,,
,,4,2.1199,4,2.1199,0,76,76,15,1,145,cactus,yogurt,,89618,001,2022-04-29_12h40.09.483,SPAMnetsValid,2021.1.4,Win32,59.64096141,,,,,,,,,,,,,,,,,,,,,,,,,,,,,,,,,,,,,,,,,,,,,,,,,,,,,,,,,,,,,,,,,,,,,,,,,,,,,,,,,,,,,,,,,
,,8,1.6889,8,1.6889,0,77,77,1,1,173,kitchen,tomato,,89618,001,2022-04-29_12h40.09.483,SPAMnetsValid,2021.1.4,Win32,59.64096141,,,,,,,,,,,,,,,,,,,,,,,,,,,,,,,,,,,,,,,,,,,,,,,,,,,,,,,,,,,,,,,,,,,,,,,,,,,,,,,,,,,,,,,,,
,,6,3.9477,6,3.9477,0,78,78,19,1,183,cake,rose,,89618,001,2022-04-29_12h40.09.483,SPAMnetsValid,2021.1.4,Win32,59.64096141,,,,,,,,,,,,,,,,,,,,,,,,,,,,,,,,,,,,,,,,,,,,,,,,,,,,,,,,,,,,,,,,,,,,,,,,,,,,,,,,,,,,,,,,,
,,8,1.4924,8,1.4924,0,79,79,83,1,100,garden,tomato,,89618,001,2022-04-29_12h40.09.483,SPAMnetsValid,2021.1.4,Win32,59.64096141,,,,,,,,,,,,,,,,,,,,,,,,,,,,,,,,,,,,,,,,,,,,,,,,,,,,,,,,,,,,,,,,,,,,,,,,,,,,,,,,,,,,,,,,,
,,7,2.7369,7,2.7369,0,80,80,18,1,119,strawberry,tree,,89618,001,2022-04-29_12h40.09.483,SPAMnetsValid,2021.1.4,Win32,59.64096141,,,,,,,,,,,,,,,,,,,,,,,,,,,,,,,,,,,,,,,,,,,,,,,,,,,,,,,,,,,,,,,,,,,,,,,,,,,,,,,,,,,,,,,,,
,,2,1.9047,2,1.9047,0,81,81,54,1,101,cactus,kitchen,,89618,001,2022-04-29_12h40.09.483,SPAMnetsValid,2021.1.4,Win32,59.64096141,,,,,,,,,,,,,,,,,,,,,,,,,,,,,,,,,,,,,,,,,,,,,,,,,,,,,,,,,,,,,,,,,,,,,,,,,,,,,,,,,,,,,,,,,
,,4,4.0871,4,4.0871,0,82,82,88,1,171,cake,tomato,,89618,001,2022-04-29_12h40.09.483,SPAMnetsValid,2021.1.4,Win32,59.64096141,,,,,,,,,,,,,,,,,,,,,,,,,,,,,,,,,,,,,,,,,,,,,,,,,,,,,,,,,,,,,,,,,,,,,,,,,,,,,,,,,,,,,,,,,
,,5,1.9065,5,1.9065,0,83,83,33,1,131,cactus,garden,,89618,001,2022-04-29_12h40.09.483,SPAMnetsValid,2021.1.4,Win32,59.64096141,,,,,,,,,,,,,,,,,,,,,,,,,,,,,,,,,,,,,,,,,,,,,,,,,,,,,,,,,,,,,,,,,,,,,,,,,,,,,,,,,,,,,,,,,
,,7,1.5118,7,1.5118,0,84,84,96,1,136,chocolate,microwave,,89618,001,2022-04-29_12h40.09.483,SPAMnetsValid,2021.1.4,Win32,59.64096141,,,,,,,,,,,,,,,,,,,,,,,,,,,,,,,,,,,,,,,,,,,,,,,,,,,,,,,,,,,,,,,,,,,,,,,,,,,,,,,,,,,,,,,,,
,,2,3.1984,2,3.1984,0,85,85,71,1,187,cactus,microwave,,89618,001,2022-04-29_12h40.09.483,SPAMnetsValid,2021.1.4,Win32,59.64096141,,,,,,,,,,,,,,,,,,,,,,,,,,,,,,,,,,,,,,,,,,,,,,,,,,,,,,,,,,,,,,,,,,,,,,,,,,,,,,,,,,,,,,,,,
,,7,4.0871,7,4.0871,0,86,86,48,1,186,kitchen,yogurt,,89618,001,2022-04-29_12h40.09.483,SPAMnetsValid,2021.1.4,Win32,59.64096141,,,,,,,,,,,,,,,,,,,,,,,,,,,,,,,,,,,,,,,,,,,,,,,,,,,,,,,,,,,,,,,,,,,,,,,,,,,,,,,,,,,,,,,,,
,,6,2.2354,6,2.2354,0,87,87,31,1,156,melon,rose,,89618,001,2022-04-29_12h40.09.483,SPAMnetsValid,2021.1.4,Win32,59.64096141,,,,,,,,,,,,,,,,,,,,,,,,,,,,,,,,,,,,,,,,,,,,,,,,,,,,,,,,,,,,,,,,,,,,,,,,,,,,,,,,,,,,,,,,,
,,3,2.1578,3,2.1578,0,88,88,3,1,129,cactus,refrigerator,,89618,001,2022-04-29_12h40.09.483,SPAMnetsValid,2021.1.4,Win32,59.64096141,,,,,,,,,,,,,,,,,,,,,,,,,,,,,,,,,,,,,,,,,,,,,,,,,,,,,,,,,,,,,,,,,,,,,,,,,,,,,,,,,,,,,,,,,
,,7,3.2188,7,3.2188,0,89,89,93,1,134,carrot,flower,,89618,001,2022-04-29_12h40.09.483,SPAMnetsValid,2021.1.4,Win32,59.64096141,,,,,,,,,,,,,,,,,,,,,,,,,,,,,,,,,,,,,,,,,,,,,,,,,,,,,,,,,,,,,,,,,,,,,,,,,,,,,,,,,,,,,,,,,
,,6,3.6854,6,3.6854,0,90,90,90,1,190,microwave,strawberry,,89618,001,2022-04-29_12h40.09.483,SPAMnetsValid,2021.1.4,Win32,59.64096141,,,,,,,,,,,,,,,,,,,,,,,,,,,,,,,,,,,,,,,,,,,,,,,,,,,,,,,,,,,,,,,,,,,,,,,,,,,,,,,,,,,,,,,,,
,,8,2.3454,8,2.3454,0,91,91,11,1,117,melon,strawberry,,89618,001,2022-04-29_12h40.09.483,SPAMnetsValid,2021.1.4,Win32,59.64096141,,,,,,,,,,,,,,,,,,,,,,,,,,,,,,,,,,,,,,,,,,,,,,,,,,,,,,,,,,,,,,,,,,,,,,,,,,,,,,,,,,,,,,,,,
,,7,1.4283,7,1.4283,0,92,92,53,1,177,chocolate,strawberry,,89618,001,2022-04-29_12h40.09.483,SPAMnetsValid,2021.1.4,Win32,59.64096141,,,,,,,,,,,,,,,,,,,,,,,,,,,,,,,,,,,,,,,,,,,,,,,,,,,,,,,,,,,,,,,,,,,,,,,,,,,,,,,,,,,,,,,,,
,,6,2.8532,6,2.8532,0,93,93,34,1,153,carrot,pretzel,,89618,001,2022-04-29_12h40.09.483,SPAMnetsValid,2021.1.4,Win32,59.64096141,,,,,,,,,,,,,,,,,,,,,,,,,,,,,,,,,,,,,,,,,,,,,,,,,,,,,,,,,,,,,,,,,,,,,,,,,,,,,,,,,,,,,,,,,
,,6,3.8271,6,3.8271,0,94,94,62,1,189,onion,tree,,89618,001,2022-04-29_12h40.09.483,SPAMnetsValid,2021.1.4,Win32,59.64096141,,,,,,,,,,,,,,,,,,,,,,,,,,,,,,,,,,,,,,,,,,,,,,,,,,,,,,,,,,,,,,,,,,,,,,,,,,,,,,,,,,,,,,,,,
,,6,1.4626,6,1.4626,0,95,95,75,1,178,cactus,carrot,,89618,001,2022-04-29_12h40.09.483,SPAMnetsValid,2021.1.4,Win32,59.64096141,,,,,,,,,,,,,,,,,,,,,,,,,,,,,,,,,,,,,,,,,,,,,,,,,,,,,,,,,,,,,,,,,,,,,,,,,,,,,,,,,,,,,,,,,
,,6,2.712,6,2.712,0,96,96,21,1,159,cookie,flower,,89618,001,2022-04-29_12h40.09.483,SPAMnetsValid,2021.1.4,Win32,59.64096141,,,,,,,,,,,,,,,,,,,,,,,,,,,,,,,,,,,,,,,,,,,,,,,,,,,,,,,,,,,,,,,,,,,,,,,,,,,,,,,,,,,,,,,,,
,,,,,,,,,,,,,,,89618,001,2022-04-29_12h40.09.483,SPAMnetsValid,2021.1.4,Win32,59.64096141,0,0,0,0,1,,,,,,,,,,,,,,,,,,,,,,,,,,,,,,,,,,,,,,,,,,,,,,,,,,,,,,,,,,,,,,,,,,,,,,,,,,,,,,,,,,,,
,,,,,,,,,,,,,,,89618,001,2022-04-29_12h40.09.483,SPAMnetsValid,2021.1.4,Win32,59.64096141,,,,,,0,0,0,1,1,0,1,,,,,,,,,,,,,,,,,,,,,,,,,,,,,,,,,,,,,,,,,,,,,,,,,,,,,,,,,,,,,,,,,,,,,,,,,,,,,
,,,,5,5.6849,,,,,,33,oven,yogurt,,89618,001,2022-04-29_12h40.09.483,SPAMnetsValid,2021.1.4,Win32,59.64096141,,,,,,,,,,,,,5,5.6849,0,0,0,31,1,,,,,,,,,,,,,,,,,,,,,,,,,,,,,,,,,,,,,,,,,,,,,,,,,,,,,,,,,,,,,,,,,,,,,,
,,,,8,1.4024,,,,,,52,carrot,tomato,,89618,001,2022-04-29_12h40.09.483,SPAMnetsValid,2021.1.4,Win32,59.64096141,,,,,,,,,,,,,8,1.4024,0,1,1,95,1,,,,,,,,,,,,,,,,,,,,,,,,,,,,,,,,,,,,,,,,,,,,,,,,,,,,,,,,,,,,,,,,,,,,,,
,,,,6,1.3819,,,,,,44,cookie,melon,,89618,001,2022-04-29_12h40.09.483,SPAMnetsValid,2021.1.4,Win32,59.64096141,,,,,,,,,,,,,6,1.3819,0,2,2,92,1,,,,,,,,,,,,,,,,,,,,,,,,,,,,,,,,,,,,,,,,,,,,,,,,,,,,,,,,,,,,,,,,,,,,,,
,,,,7,2.0968,,,,,,59,rose,strawberry,,89618,001,2022-04-29_12h40.09.483,SPAMnetsValid,2021.1.4,Win32,59.64096141,,,,,,,,,,,,,7,2.0968,0,3,3,72,1,,,,,,,,,,,,,,,,,,,,,,,,,,,,,,,,,,,,,,,,,,,,,,,,,,,,,,,,,,,,,,,,,,,,,,
,,,,4,1.3019,,,,,,34,melon,oven,,89618,001,2022-04-29_12h40.09.483,SPAMnetsValid,2021.1.4,Win32,59.64096141,,,,,,,,,,,,,4,1.3019,0,4,4,7,1,,,,,,,,,,,,,,,,,,,,,,,,,,,,,,,,,,,,,,,,,,,,,,,,,,,,,,,,,,,,,,,,,,,,,,
,,,,3,5.6124,,,,,,8,broom,melon,,89618,001,2022-04-29_12h40.09.483,SPAMnetsValid,2021.1.4,Win32,59.64096141,,,,,,,,,,,,,3,5.6124,0,5,5,59,1,,,,,,,,,,,,,,,,,,,,,,,,,,,,,,,,,,,,,,,,,,,,,,,,,,,,,,,,,,,,,,,,,,,,,,
,,,,6,1.9376,,,,,,68,flower,tomato,,89618,001,2022-04-29_12h40.09.483,SPAMnetsValid,2021.1.4,Win32,59.64096141,,,,,,,,,,,,,6,1.9376,0,6,6,94,1,,,,,,,,,,,,,,,,,,,,,,,,,,,,,,,,,,,,,,,,,,,,,,,,,,,,,,,,,,,,,,,,,,,,,,
,,,,3,2.2544,,,,,,71,broom,rose,,89618,001,2022-04-29_12h40.09.483,SPAMnetsValid,2021.1.4,Win32,59.64096141,,,,,,,,,,,,,3,2.2544,0,7,7,61,1,,,,,,,,,,,,,,,,,,,,,,,,,,,,,,,,,,,,,,,,,,,,,,,,,,,,,,,,,,,,,,,,,,,,,,
,,,,4,1.5394,,,,,,21,cake,onion,,89618,001,2022-04-29_12h40.09.483,SPAMnetsValid,2021.1.4,Win32,59.64096141,,,,,,,,,,,,,4,1.5394,0,8,8,63,1,,,,,,,,,,,,,,,,,,,,,,,,,,,,,,,,,,,,,,,,,,,,,,,,,,,,,,,,,,,,,,,,,,,,,,
,,,,6,2.4652,,,,,,32,cake,microwave,,89618,001,2022-04-29_12h40.09.483,SPAMnetsValid,2021.1.4,Win32,59.64096141,,,,,,,,,,,,,6,2.4652,0,9,9,33,1,,,,,,,,,,,,,,,,,,,,,,,,,,,,,,,,,,,,,,,,,,,,,,,,,,,,,,,,,,,,,,,,,,,,,,
,,,,8,2.824,,,,,,76,garden,rose,,89618,001,2022-04-29_12h40.09.483,SPAMnetsValid,2021.1.4,Win32,59.64096141,,,,,,,,,,,,,8,2.824,0,10,10,19,1,,,,,,,,,,,,,,,,,,,,,,,,,,,,,,,,,,,,,,,,,,,,,,,,,,,,,,,,,,,,,,,,,,,,,,
,,,,3,10.9198,,,,,,11,refrigerator,tree,,89618,001,2022-04-29_12h40.09.483,SPAMnetsValid,2021.1.4,Win32,59.64096141,,,,,,,,,,,,,3,10.9198,0,11,11,43,1,,,,,,,,,,,,,,,,,,,,,,,,,,,,,,,,,,,,,,,,,,,,,,,,,,,,,,,,,,,,,,,,,,,,,,
,,,,4,1.8915,,,,,,58,garden,oven,,89618,001,2022-04-29_12h40.09.483,SPAMnetsValid,2021.1.4,Win32,59.64096141,,,,,,,,,,,,,4,1.8915,0,12,12,37,1,,,,,,,,,,,,,,,,,,,,,,,,,,,,,,,,,,,,,,,,,,,,,,,,,,,,,,,,,,,,,,,,,,,,,,
,,,,4,1.2977,,,,,,86,oven,rose,,89618,001,2022-04-29_12h40.09.483,SPAMnetsValid,2021.1.4,Win32,59.64096141,,,,,,,,,,,,,4,1.2977,0,13,13,79,1,,,,,,,,,,,,,,,,,,,,,,,,,,,,,,,,,,,,,,,,,,,,,,,,,,,,,,,,,,,,,,,,,,,,,,
,,,,6,1.1267,,,,,,87,carrot,yogurt,,89618,001,2022-04-29_12h40.09.483,SPAMnetsValid,2021.1.4,Win32,59.64096141,,,,,,,,,,,,,6,1.1267,0,14,14,6,1,,,,,,,,,,,,,,,,,,,,,,,,,,,,,,,,,,,,,,,,,,,,,,,,,,,,,,,,,,,,,,,,,,,,,,
,,,,6,2.7543,,,,,,38,pretzel,refrigerator,,89618,001,2022-04-29_12h40.09.483,SPAMnetsValid,2021.1.4,Win32,59.64096141,,,,,,,,,,,,,6,2.7543,0,15,15,71,1,,,,,,,,,,,,,,,,,,,,,,,,,,,,,,,,,,,,,,,,,,,,,,,,,,,,,,,,,,,,,,,,,,,,,,
,,,,7,1.2955,,,,,,19,microwave,pretzel,,89618,001,2022-04-29_12h40.09.483,SPAMnetsValid,2021.1.4,Win32,59.64096141,,,,,,,,,,,,,7,1.2955,0,16,16,41,1,,,,,,,,,,,,,,,,,,,,,,,,,,,,,,,,,,,,,,,,,,,,,,,,,,,,,,,,,,,,,,,,,,,,,,
,,,,6,2.1695,,,,,,16,chocolate,flower,,89618,001,2022-04-29_12h40.09.483,SPAMnetsValid,2021.1.4,Win32,59.64096141,,,,,,,,,,,,,6,2.1695,0,17,17,22,1,,,,,,,,,,,,,,,,,,,,,,,,,,,,,,,,,,,,,,,,,,,,,,,,,,,,,,,,,,,,,,,,,,,,,,
,,,,3,4.1354,,,,,,5,oven,tree,,89618,001,2022-04-29_12h40.09.483,SPAMnetsValid,2021.1.4,Win32,59.64096141,,,,,,,,,,,,,3,4.1354,0,18,18,70,1,,,,,,,,,,,,,,,,,,,,,,,,,,,,,,,,,,,,,,,,,,,,,,,,,,,,,,,,,,,,,,,,,,,,,,
,,,,8,3.2248,,,,,,54,chocolate,yogurt,,89618,001,2022-04-29_12h40.09.483,SPAMnetsValid,2021.1.4,Win32,59.64096141,,,,,,,,,,,,,8,3.2248,0,19,19,67,1,,,,,,,,,,,,,,,,,,,,,,,,,,,,,,,,,,,,,,,,,,,,,,,,,,,,,,,,,,,,,,,,,,,,,,
,,,,7,1.438,,,,,,18,onion,refrigerator,,89618,001,2022-04-29_12h40.09.483,SPAMnetsValid,2021.1.4,Win32,59.64096141,,,,,,,,,,,,,7,1.438,0,20,20,62,1,,,,,,,,,,,,,,,,,,,,,,,,,,,,,,,,,,,,,,,,,,,,,,,,,,,,,,,,,,,,,,,,,,,,,,
,,,,9,1.8118,,,,,,191,cake,cake,CHECK,89618,001,2022-04-29_12h40.09.483,SPAMnetsValid,2021.1.4,Win32,59.64096141,,,,,,,,,,,,,9,1.8118,0,21,21,10,1,,,,,,,,,,,,,,,,,,,,,,,,,,,,,,,,,,,,,,,,,,,,,,,,,,,,,,,,,,,,,,,,,,,,,,
,,,,4,2.0276,,,,,,89,chocolate,rose,,89618,001,2022-04-29_12h40.09.483,SPAMnetsValid,2021.1.4,Win32,59.64096141,,,,,,,,,,,,,4,2.0276,0,22,22,60,1,,,,,,,,,,,,,,,,,,,,,,,,,,,,,,,,,,,,,,,,,,,,,,,,,,,,,,,,,,,,,,,,,,,,,,
,,,,8,1.4868,,,,,,94,kitchen,microwave,,89618,001,2022-04-29_12h40.09.483,SPAMnetsValid,2021.1.4,Win32,59.64096141,,,,,,,,,,,,,8,1.4868,0,23,23,58,1,,,,,,,,,,,,,,,,,,,,,,,,,,,,,,,,,,,,,,,,,,,,,,,,,,,,,,,,,,,,,,,,,,,,,,
,,,,4,3.5828,,,,,,64,chocolate,garden,,89618,001,2022-04-29_12h40.09.483,SPAMnetsValid,2021.1.4,Win32,59.64096141,,,,,,,,,,,,,4,3.5828,0,24,24,14,1,,,,,,,,,,,,,,,,,,,,,,,,,,,,,,,,,,,,,,,,,,,,,,,,,,,,,,,,,,,,,,,,,,,,,,
,,,,3,1.4691,,,,,,27,cactus,cookie,,89618,001,2022-04-29_12h40.09.483,SPAMnetsValid,2021.1.4,Win32,59.64096141,,,,,,,,,,,,,3,1.4691,0,25,25,17,1,,,,,,,,,,,,,,,,,,,,,,,,,,,,,,,,,,,,,,,,,,,,,,,,,,,,,,,,,,,,,,,,,,,,,,
,,,,4,1.9525,,,,,,57,flower,kitchen,,89618,001,2022-04-29_12h40.09.483,SPAMnetsValid,2021.1.4,Win32,59.64096141,,,,,,,,,,,,,4,1.9525,0,26,26,49,1,,,,,,,,,,,,,,,,,,,,,,,,,,,,,,,,,,,,,,,,,,,,,,,,,,,,,,,,,,,,,,,,,,,,,,
,,,,4,2.0524,,,,,,53,garden,pretzel,,89618,001,2022-04-29_12h40.09.483,SPAMnetsValid,2021.1.4,Win32,59.64096141,,,,,,,,,,,,,4,2.0524,0,27,27,0,1,,,,,,,,,,,,,,,,,,,,,,,,,,,,,,,,,,,,,,,,,,,,,,,,,,,,,,,,,,,,,,,,,,,,,,
,,,,7,2.9876,,,,,,56,cactus,tree,,89618,001,2022-04-29_12h40.09.483,SPAMnetsValid,2021.1.4,Win32,59.64096141,,,,,,,,,,,,,7,2.9876,0,28,28,21,1,,,,,,,,,,,,,,,,,,,,,,,,,,,,,,,,,,,,,,,,,,,,,,,,,,,,,,,,,,,,,,,,,,,,,,
,,,,4,1.3468,,,,,,31,cactus,pretzel,,89618,001,2022-04-29_12h40.09.483,SPAMnetsValid,2021.1.4,Win32,59.64096141,,,,,,,,,,,,,4,1.3468,0,29,29,1,1,,,,,,,,,,,,,,,,,,,,,,,,,,,,,,,,,,,,,,,,,,,,,,,,,,,,,,,,,,,,,,,,,,,,,,
,,,,7,1.8089,,,,,,82,cake,kitchen,,89618,001,2022-04-29_12h40.09.483,SPAMnetsValid,2021.1.4,Win32,59.64096141,,,,,,,,,,,,,7,1.8089,0,30,30,96,1,,,,,,,,,,,,,,,,,,,,,,,,,,,,,,,,,,,,,,,,,,,,,,,,,,,,,,,,,,,,,,,,,,,,,,
,,,,4,2.4025,,,,,,83,broom,carrot,,89618,001,2022-04-29_12h40.09.483,SPAMnetsValid,2021.1.4,Win32,59.64096141,,,,,,,,,,,,,4,2.4025,0,31,31,4,1,,,,,,,,,,,,,,,,,,,,,,,,,,,,,,,,,,,,,,,,,,,,,,,,,,,,,,,,,,,,,,,,,,,,,,
,,,,3,1.4295,,,,,,40,broom,cake,,89618,001,2022-04-29_12h40.09.483,SPAMnetsValid,2021.1.4,Win32,59.64096141,,,,,,,,,,,,,3,1.4295,0,32,32,32,1,,,,,,,,,,,,,,,,,,,,,,,,,,,,,,,,,,,,,,,,,,,,,,,,,,,,,,,,,,,,,,,,,,,,,,
,,,,2,3.2419,,,,,,91,microwave,rose,,89618,001,2022-04-29_12h40.09.483,SPAMnetsValid,2021.1.4,Win32,59.64096141,,,,,,,,,,,,,2,3.2419,0,33,33,84,1,,,,,,,,,,,,,,,,,,,,,,,,,,,,,,,,,,,,,,,,,,,,,,,,,,,,,,,,,,,,,,,,,,,,,,
,,,,7,2.2518,,,,,,36,broom,kitchen,,89618,001,2022-04-29_12h40.09.483,SPAMnetsValid,2021.1.4,Win32,59.64096141,,,,,,,,,,,,,7,2.2518,0,34,34,76,1,,,,,,,,,,,,,,,,,,,,,,,,,,,,,,,,,,,,,,,,,,,,,,,,,,,,,,,,,,,,,,,,,,,,,,
,,,,9,1.6365,,,,,,192,microwave,microwave,CHECK,89618,001,2022-04-29_12h40.09.483,SPAMnetsValid,2021.1.4,Win32,59.64096141,,,,,,,,,,,,,9,1.6365,0,35,35,53,1,,,,,,,,,,,,,,,,,,,,,,,,,,,,,,,,,,,,,,,,,,,,,,,,,,,,,,,,,,,,,,,,,,,,,,
,,,,8,1.8986,,,,,,61,strawberry,tomato,,89618,001,2022-04-29_12h40.09.483,SPAMnetsValid,2021.1.4,Win32,59.64096141,,,,,,,,,,,,,8,1.8986,0,36,36,80,1,,,,,,,,,,,,,,,,,,,,,,,,,,,,,,,,,,,,,,,,,,,,,,,,,,,,,,,,,,,,,,,,,,,,,,
,,,,6,1.4329,,,,,,77,refrigerator,yogurt,,89618,001,2022-04-29_12h40.09.483,SPAMnetsValid,2021.1.4,Win32,59.64096141,,,,,,,,,,,,,6,1.4329,0,37,37,42,1,,,,,,,,,,,,,,,,,,,,,,,,,,,,,,,,,,,,,,,,,,,,,,,,,,,,,,,,,,,,,,,,,,,,,,
,,,,4,2.139,,,,,,14,broom,cookie,,89618,001,2022-04-29_12h40.09.483,SPAMnetsValid,2021.1.4,Win32,59.64096141,,,,,,,,,,,,,4,2.139,0,38,38,16,1,,,,,,,,,,,,,,,,,,,,,,,,,,,,,,,,,,,,,,,,,,,,,,,,,,,,,,,,,,,,,,,,,,,,,,
,,,,5,1.6337,,,,,,1,rose,yogurt,,89618,001,2022-04-29_12h40.09.483,SPAMnetsValid,2021.1.4,Win32,59.64096141,,,,,,,,,,,,,5,1.6337,0,39,39,55,1,,,,,,,,,,,,,,,,,,,,,,,,,,,,,,,,,,,,,,,,,,,,,,,,,,,,,,,,,,,,,,,,,,,,,,
,,,,4,2.0279,,,,,,26,tomato,yogurt,,89618,001,2022-04-29_12h40.09.483,SPAMnetsValid,2021.1.4,Win32,59.64096141,,,,,,,,,,,,,4,2.0279,0,40,40,13,1,,,,,,,,,,,,,,,,,,,,,,,,,,,,,,,,,,,,,,,,,,,,,,,,,,,,,,,,,,,,,,,,,,,,,,
,,,,4,1.472,,,,,,90,cactus,cake,,89618,001,2022-04-29_12h40.09.483,SPAMnetsValid,2021.1.4,Win32,59.64096141,,,,,,,,,,,,,4,1.472,0,41,41,85,1,,,,,,,,,,,,,,,,,,,,,,,,,,,,,,,,,,,,,,,,,,,,,,,,,,,,,,,,,,,,,,,,,,,,,,
,,,,6,2.0597,,,,,,75,cookie,onion,,89618,001,2022-04-29_12h40.09.483,SPAMnetsValid,2021.1.4,Win32,59.64096141,,,,,,,,,,,,,6,2.0597,0,42,42,9,1,,,,,,,,,,,,,,,,,,,,,,,,,,,,,,,,,,,,,,,,,,,,,,,,,,,,,,,,,,,,,,,,,,,,,,
,,,,7,1.6749,,,,,,2,kitchen,onion,,89618,001,2022-04-29_12h40.09.483,SPAMnetsValid,2021.1.4,Win32,59.64096141,,,,,,,,,,,,,7,1.6749,0,43,43,91,1,,,,,,,,,,,,,,,,,,,,,,,,,,,,,,,,,,,,,,,,,,,,,,,,,,,,,,,,,,,,,,,,,,,,,,
,,,,7,2.0739,,,,,,20,rose,tree,,89618,001,2022-04-29_12h40.09.483,SPAMnetsValid,2021.1.4,Win32,59.64096141,,,,,,,,,,,,,7,2.0739,0,44,44,66,1,,,,,,,,,,,,,,,,,,,,,,,,,,,,,,,,,,,,,,,,,,,,,,,,,,,,,,,,,,,,,,,,,,,,,,
,,,,8,1.3524,,,,,,79,garden,strawberry,,89618,001,2022-04-29_12h40.09.483,SPAMnetsValid,2021.1.4,Win32,59.64096141,,,,,,,,,,,,,8,1.3524,0,45,45,87,1,,,,,,,,,,,,,,,,,,,,,,,,,,,,,,,,,,,,,,,,,,,,,,,,,,,,,,,,,,,,,,,,,,,,,,
,,,,6,1.3065,,,,,,39,melon,pretzel,,89618,001,2022-04-29_12h40.09.483,SPAMnetsValid,2021.1.4,Win32,59.64096141,,,,,,,,,,,,,6,1.3065,0,46,46,20,1,,,,,,,,,,,,,,,,,,,,,,,,,,,,,,,,,,,,,,,,,,,,,,,,,,,,,,,,,,,,,,,,,,,,,,
,,,,4,2.0117,,,,,,35,flower,pretzel,,89618,001,2022-04-29_12h40.09.483,SPAMnetsValid,2021.1.4,Win32,59.64096141,,,,,,,,,,,,,4,2.0117,0,47,47,26,1,,,,,,,,,,,,,,,,,,,,,,,,,,,,,,,,,,,,,,,,,,,,,,,,,,,,,,,,,,,,,,,,,,,,,,
,,,,6,3.1986,,,,,,70,chocolate,onion,,89618,001,2022-04-29_12h40.09.483,SPAMnetsValid,2021.1.4,Win32,59.64096141,,,,,,,,,,,,,6,3.1986,0,48,48,74,1,,,,,,,,,,,,,,,,,,,,,,,,,,,,,,,,,,,,,,,,,,,,,,,,,,,,,,,,,,,,,,,,,,,,,,
,,,,6,1.9102,,,,,,60,cactus,onion,,89618,001,2022-04-29_12h40.09.483,SPAMnetsValid,2021.1.4,Win32,59.64096141,,,,,,,,,,,,,6,1.9102,0,49,49,81,1,,,,,,,,,,,,,,,,,,,,,,,,,,,,,,,,,,,,,,,,,,,,,,,,,,,,,,,,,,,,,,,,,,,,,,
,,,,8,3.4308,,,,,,93,kitchen,oven,,89618,001,2022-04-29_12h40.09.483,SPAMnetsValid,2021.1.4,Win32,59.64096141,,,,,,,,,,,,,8,3.4308,0,50,50,82,1,,,,,,,,,,,,,,,,,,,,,,,,,,,,,,,,,,,,,,,,,,,,,,,,,,,,,,,,,,,,,,,,,,,,,,
,,,,6,1.6383,,,,,,43,chocolate,tomato,,89618,001,2022-04-29_12h40.09.483,SPAMnetsValid,2021.1.4,Win32,59.64096141,,,,,,,,,,,,,6,1.6383,0,51,51,8,1,,,,,,,,,,,,,,,,,,,,,,,,,,,,,,,,,,,,,,,,,,,,,,,,,,,,,,,,,,,,,,,,,,,,,,
,,,,6,2.5358,,,,,,30,cookie,pretzel,,89618,001,2022-04-29_12h40.09.483,SPAMnetsValid,2021.1.4,Win32,59.64096141,,,,,,,,,,,,,6,2.5358,0,52,52,78,1,,,,,,,,,,,,,,,,,,,,,,,,,,,,,,,,,,,,,,,,,,,,,,,,,,,,,,,,,,,,,,,,,,,,,,
,,,,4,1.5378,,,,,,92,broom,flower,,89618,001,2022-04-29_12h40.09.483,SPAMnetsValid,2021.1.4,Win32,59.64096141,,,,,,,,,,,,,4,1.5378,0,53,53,88,1,,,,,,,,,,,,,,,,,,,,,,,,,,,,,,,,,,,,,,,,,,,,,,,,,,,,,,,,,,,,,,,,,,,,,,
,,,,3,3.5538,,,,,,48,flower,oven,,89618,001,2022-04-29_12h40.09.483,SPAMnetsValid,2021.1.4,Win32,59.64096141,,,,,,,,,,,,,3,3.5538,0,54,54,15,1,,,,,,,,,,,,,,,,,,,,,,,,,,,,,,,,,,,,,,,,,,,,,,,,,,,,,,,,,,,,,,,,,,,,,,
,,,,8,1.5566,,,,,,9,kitchen,refrigerator,,89618,001,2022-04-29_12h40.09.483,SPAMnetsValid,2021.1.4,Win32,59.64096141,,,,,,,,,,,,,8,1.5566,0,55,55,64,1,,,,,,,,,,,,,,,,,,,,,,,,,,,,,,,,,,,,,,,,,,,,,,,,,,,,,,,,,,,,,,,,,,,,,,
,,,,6,3.3215,,,,,,81,pretzel,yogurt,,89618,001,2022-04-29_12h40.09.483,SPAMnetsValid,2021.1.4,Win32,59.64096141,,,,,,,,,,,,,6,3.3215,0,56,56,50,1,,,,,,,,,,,,,,,,,,,,,,,,,,,,,,,,,,,,,,,,,,,,,,,,,,,,,,,,,,,,,,,,,,,,,,
,,,,6,1.2686,,,,,,29,chocolate,melon,,89618,001,2022-04-29_12h40.09.483,SPAMnetsValid,2021.1.4,Win32,59.64096141,,,,,,,,,,,,,6,1.2686,0,57,57,34,1,,,,,,,,,,,,,,,,,,,,,,,,,,,,,,,,,,,,,,,,,,,,,,,,,,,,,,,,,,,,,,,,,,,,,,
,,,,7,1.3941,,,,,,7,melon,tree,,89618,001,2022-04-29_12h40.09.483,SPAMnetsValid,2021.1.4,Win32,59.64096141,,,,,,,,,,,,,7,1.3941,0,58,58,77,1,,,,,,,,,,,,,,,,,,,,,,,,,,,,,,,,,,,,,,,,,,,,,,,,,,,,,,,,,,,,,,,,,,,,,,
,,,,7,2.0367,,,,,,47,onion,tomato,,89618,001,2022-04-29_12h40.09.483,SPAMnetsValid,2021.1.4,Win32,59.64096141,,,,,,,,,,,,,7,2.0367,0,59,59,51,1,,,,,,,,,,,,,,,,,,,,,,,,,,,,,,,,,,,,,,,,,,,,,,,,,,,,,,,,,,,,,,,,,,,,,,
,,,,4,1.4832,,,,,,88,cactus,melon,,89618,001,2022-04-29_12h40.09.483,SPAMnetsValid,2021.1.4,Win32,59.64096141,,,,,,,,,,,,,4,1.4832,0,60,60,38,1,,,,,,,,,,,,,,,,,,,,,,,,,,,,,,,,,,,,,,,,,,,,,,,,,,,,,,,,,,,,,,,,,,,,,,
,,,,4,1.0608,,,,,,13,broom,yogurt,,89618,001,2022-04-29_12h40.09.483,SPAMnetsValid,2021.1.4,Win32,59.64096141,,,,,,,,,,,,,4,1.0608,0,61,61,5,1,,,,,,,,,,,,,,,,,,,,,,,,,,,,,,,,,,,,,,,,,,,,,,,,,,,,,,,,,,,,,,,,,,,,,,
,,,,6,1.8032,,,,,,50,carrot,rose,,89618,001,2022-04-29_12h40.09.483,SPAMnetsValid,2021.1.4,Win32,59.64096141,,,,,,,,,,,,,6,1.8032,0,62,62,73,1,,,,,,,,,,,,,,,,,,,,,,,,,,,,,,,,,,,,,,,,,,,,,,,,,,,,,,,,,,,,,,,,,,,,,,
,,,,6,1.6035,,,,,,12,cookie,yogurt,,89618,001,2022-04-29_12h40.09.483,SPAMnetsValid,2021.1.4,Win32,59.64096141,,,,,,,,,,,,,6,1.6035,0,63,63,36,1,,,,,,,,,,,,,,,,,,,,,,,,,,,,,,,,,,,,,,,,,,,,,,,,,,,,,,,,,,,,,,,,,,,,,,
,,,,4,2.1471,,,,,,42,garden,kitchen,,89618,001,2022-04-29_12h40.09.483,SPAMnetsValid,2021.1.4,Win32,59.64096141,,,,,,,,,,,,,4,2.1471,0,64,64,29,1,,,,,,,,,,,,,,,,,,,,,,,,,,,,,,,,,,,,,,,,,,,,,,,,,,,,,,,,,,,,,,,,,,,,,,
,,,,4,2.5162,,,,,,65,broom,garden,,89618,001,2022-04-29_12h40.09.483,SPAMnetsValid,2021.1.4,Win32,59.64096141,,,,,,,,,,,,,4,2.5162,0,65,65,23,1,,,,,,,,,,,,,,,,,,,,,,,,,,,,,,,,,,,,,,,,,,,,,,,,,,,,,,,,,,,,,,,,,,,,,,
,,,,7,2.4372,,,,,,49,flower,strawberry,,89618,001,2022-04-29_12h40.09.483,SPAMnetsValid,2021.1.4,Win32,59.64096141,,,,,,,,,,,,,7,2.4372,0,66,66,3,1,,,,,,,,,,,,,,,,,,,,,,,,,,,,,,,,,,,,,,,,,,,,,,,,,,,,,,,,,,,,,,,,,,,,,,
,,,,3,3.4218,,,,,,95,broom,refrigerator,,89618,001,2022-04-29_12h40.09.483,SPAMnetsValid,2021.1.4,Win32,59.64096141,,,,,,,,,,,,,3,3.4218,0,67,67,90,1,,,,,,,,,,,,,,,,,,,,,,,,,,,,,,,,,,,,,,,,,,,,,,,,,,,,,,,,,,,,,,,,,,,,,,
,,,,7,4.6646,,,,,,63,cake,cookie,,89618,001,2022-04-29_12h40.09.483,SPAMnetsValid,2021.1.4,Win32,59.64096141,,,,,,,,,,,,,7,4.6646,0,68,68,93,1,,,,,,,,,,,,,,,,,,,,,,,,,,,,,,,,,,,,,,,,,,,,,,,,,,,,,,,,,,,,,,,,,,,,,,
,,,,3,6.1907,,,,,,41,broom,cactus,,89618,001,2022-04-29_12h40.09.483,SPAMnetsValid,2021.1.4,Win32,59.64096141,,,,,,,,,,,,,3,6.1907,0,69,69,46,1,,,,,,,,,,,,,,,,,,,,,,,,,,,,,,,,,,,,,,,,,,,,,,,,,,,,,,,,,,,,,,,,,,,,,,
,,,,7,1.7699,,,,,,4,chocolate,pretzel,,89618,001,2022-04-29_12h40.09.483,SPAMnetsValid,2021.1.4,Win32,59.64096141,,,,,,,,,,,,,7,1.7699,0,70,70,52,1,,,,,,,,,,,,,,,,,,,,,,,,,,,,,,,,,,,,,,,,,,,,,,,,,,,,,,,,,,,,,,,,,,,,,,
,,,,2,2.2704,,,,,,37,garden,refrigerator,,89618,001,2022-04-29_12h40.09.483,SPAMnetsValid,2021.1.4,Win32,59.64096141,,,,,,,,,,,,,2,2.2704,0,71,71,11,1,,,,,,,,,,,,,,,,,,,,,,,,,,,,,,,,,,,,,,,,,,,,,,,,,,,,,,,,,,,,,,,,,,,,,,
,,,,3,1.5812,,,,,,72,broom,onion,,89618,001,2022-04-29_12h40.09.483,SPAMnetsValid,2021.1.4,Win32,59.64096141,,,,,,,,,,,,,3,1.5812,0,72,72,27,1,,,,,,,,,,,,,,,,,,,,,,,,,,,,,,,,,,,,,,,,,,,,,,,,,,,,,,,,,,,,,,,,,,,,,,
,,,,6,1.7284,,,,,,24,cookie,tomato,,89618,001,2022-04-29_12h40.09.483,SPAMnetsValid,2021.1.4,Win32,59.64096141,,,,,,,,,,,,,6,1.7284,0,73,73,68,1,,,,,,,,,,,,,,,,,,,,,,,,,,,,,,,,,,,,,,,,,,,,,,,,,,,,,,,,,,,,,,,,,,,,,,
,,,,4,1.6111,,,,,,84,oven,tomato,,89618,001,2022-04-29_12h40.09.483,SPAMnetsValid,2021.1.4,Win32,59.64096141,,,,,,,,,,,,,4,1.6111,0,74,74,28,1,,,,,,,,,,,,,,,,,,,,,,,,,,,,,,,,,,,,,,,,,,,,,,,,,,,,,,,,,,,,,,,,,,,,,,
,,,,4,3.8497,,,,,,6,garden,onion,,89618,001,2022-04-29_12h40.09.483,SPAMnetsValid,2021.1.4,Win32,59.64096141,,,,,,,,,,,,,4,3.8497,0,75,75,83,1,,,,,,,,,,,,,,,,,,,,,,,,,,,,,,,,,,,,,,,,,,,,,,,,,,,,,,,,,,,,,,,,,,,,,,
,,,,4,1.555,,,,,,67,flower,yogurt,,89618,001,2022-04-29_12h40.09.483,SPAMnetsValid,2021.1.4,Win32,59.64096141,,,,,,,,,,,,,4,1.555,0,76,76,12,1,,,,,,,,,,,,,,,,,,,,,,,,,,,,,,,,,,,,,,,,,,,,,,,,,,,,,,,,,,,,,,,,,,,,,,
,,,,7,1.3303,,,,,,17,carrot,melon,,89618,001,2022-04-29_12h40.09.483,SPAMnetsValid,2021.1.4,Win32,59.64096141,,,,,,,,,,,,,7,1.3303,0,77,77,24,1,,,,,,,,,,,,,,,,,,,,,,,,,,,,,,,,,,,,,,,,,,,,,,,,,,,,,,,,,,,,,,,,,,,,,,
,,,,6,2.4477,,,,,,66,melon,yogurt,,89618,001,2022-04-29_12h40.09.483,SPAMnetsValid,2021.1.4,Win32,59.64096141,,,,,,,,,,,,,6,2.4477,0,78,78,48,1,,,,,,,,,,,,,,,,,,,,,,,,,,,,,,,,,,,,,,,,,,,,,,,,,,,,,,,,,,,,,,,,,,,,,,
,,,,4,1.3611,,,,,,10,flower,onion,,89618,001,2022-04-29_12h40.09.483,SPAMnetsValid,2021.1.4,Win32,59.64096141,,,,,,,,,,,,,4,1.3611,0,79,79,45,1,,,,,,,,,,,,,,,,,,,,,,,,,,,,,,,,,,,,,,,,,,,,,,,,,,,,,,,,,,,,,,,,,,,,,,
,,,,6,3.5606,,,,,,22,kitchen,strawberry,,89618,001,2022-04-29_12h40.09.483,SPAMnetsValid,2021.1.4,Win32,59.64096141,,,,,,,,,,,,,6,3.5606,0,80,80,2,1,,,,,,,,,,,,,,,,,,,,,,,,,,,,,,,,,,,,,,,,,,,,,,,,,,,,,,,,,,,,,,,,,,,,,,
,,,,4,32.2659,,,,,,62,kitchen,rose,,89618,001,2022-04-29_12h40.09.483,SPAMnetsValid,2021.1.4,Win32,59.64096141,,,,,,,,,,,,,4,32.2659,0,81,81,57,1,,,,,,,,,,,,,,,,,,,,,,,,,,,,,,,,,,,,,,,,,,,,,,,,,,,,,,,,,,,,,,,,,,,,,,
,,,,3,2.5169,,,,,,85,cake,tree,,89618,001,2022-04-29_12h40.09.483,SPAMnetsValid,2021.1.4,Win32,59.64096141,,,,,,,,,,,,,3,2.5169,0,82,82,18,1,,,,,,,,,,,,,,,,,,,,,,,,,,,,,,,,,,,,,,,,,,,,,,,,,,,,,,,,,,,,,,,,,,,,,,
,,,,6,1.9533,,,,,,28,cake,melon,,89618,001,2022-04-29_12h40.09.483,SPAMnetsValid,2021.1.4,Win32,59.64096141,,,,,,,,,,,,,6,1.9533,0,83,83,54,1,,,,,,,,,,,,,,,,,,,,,,,,,,,,,,,,,,,,,,,,,,,,,,,,,,,,,,,,,,,,,,,,,,,,,,
,,,,7,3.2335,,,,,,3,cake,oven,,89618,001,2022-04-29_12h40.09.483,SPAMnetsValid,2021.1.4,Win32,59.64096141,,,,,,,,,,,,,7,3.2335,0,84,84,30,1,,,,,,,,,,,,,,,,,,,,,,,,,,,,,,,,,,,,,,,,,,,,,,,,,,,,,,,,,,,,,,,,,,,,,,
,,,,4,1.7152,,,,,,80,chocolate,tree,,89618,001,2022-04-29_12h40.09.483,SPAMnetsValid,2021.1.4,Win32,59.64096141,,,,,,,,,,,,,4,1.7152,0,85,85,89,1,,,,,,,,,,,,,,,,,,,,,,,,,,,,,,,,,,,,,,,,,,,,,,,,,,,,,,,,,,,,,,,,,,,,,,
,,,,6,3.0859,,,,,,15,onion,oven,,89618,001,2022-04-29_12h40.09.483,SPAMnetsValid,2021.1.4,Win32,59.64096141,,,,,,,,,,,,,6,3.0859,0,86,86,39,1,,,,,,,,,,,,,,,,,,,,,,,,,,,,,,,,,,,,,,,,,,,,,,,,,,,,,,,,,,,,,,,,,,,,,,
,,,,6,1.5053,,,,,,45,onion,pretzel,,89618,001,2022-04-29_12h40.09.483,SPAMnetsValid,2021.1.4,Win32,59.64096141,,,,,,,,,,,,,6,1.5053,0,87,87,69,1,,,,,,,,,,,,,,,,,,,,,,,,,,,,,,,,,,,,,,,,,,,,,,,,,,,,,,,,,,,,,,,,,,,,,,
,,,,4,2.8163,,,,,,78,cookie,rose,,89618,001,2022-04-29_12h40.09.483,SPAMnetsValid,2021.1.4,Win32,59.64096141,,,,,,,,,,,,,4,2.8163,0,88,88,56,1,,,,,,,,,,,,,,,,,,,,,,,,,,,,,,,,,,,,,,,,,,,,,,,,,,,,,,,,,,,,,,,,,,,,,,
,,,,6,7.0769,,,,,,25,carrot,onion,,89618,001,2022-04-29_12h40.09.483,SPAMnetsValid,2021.1.4,Win32,59.64096141,,,,,,,,,,,,,6,7.0769,0,89,89,44,1,,,,,,,,,,,,,,,,,,,,,,,,,,,,,,,,,,,,,,,,,,,,,,,,,,,,,,,,,,,,,,,,,,,,,,
,,,,3,4.2402,,,,,,74,broom,pretzel,,89618,001,2022-04-29_12h40.09.483,SPAMnetsValid,2021.1.4,Win32,59.64096141,,,,,,,,,,,,,3,4.2402,0,90,90,40,1,,,,,,,,,,,,,,,,,,,,,,,,,,,,,,,,,,,,,,,,,,,,,,,,,,,,,,,,,,,,,,,,,,,,,,
,,,,4,1.0685,,,,,,46,garden,yogurt,,89618,001,2022-04-29_12h40.09.483,SPAMnetsValid,2021.1.4,Win32,59.64096141,,,,,,,,,,,,,4,1.0685,0,91,91,65,1,,,,,,,,,,,,,,,,,,,,,,,,,,,,,,,,,,,,,,,,,,,,,,,,,,,,,,,,,,,,,,,,,,,,,,
,,,,3,1.5124,,,,,,23,flower,microwave,,89618,001,2022-04-29_12h40.09.483,SPAMnetsValid,2021.1.4,Win32,59.64096141,,,,,,,,,,,,,3,1.5124,0,92,92,25,1,,,,,,,,,,,,,,,,,,,,,,,,,,,,,,,,,,,,,,,,,,,,,,,,,,,,,,,,,,,,,,,,,,,,,,
,,,,6,1.765,,,,,,55,tomato,tree,,89618,001,2022-04-29_12h40.09.483,SPAMnetsValid,2021.1.4,Win32,59.64096141,,,,,,,,,,,,,6,1.765,0,93,93,35,1,,,,,,,,,,,,,,,,,,,,,,,,,,,,,,,,,,,,,,,,,,,,,,,,,,,,,,,,,,,,,,,,,,,,,,
,,,,4,1.2996,,,,,,73,broom,chocolate,,89618,001,2022-04-29_12h40.09.483,SPAMnetsValid,2021.1.4,Win32,59.64096141,,,,,,,,,,,,,4,1.2996,0,94,94,47,1,,,,,,,,,,,,,,,,,,,,,,,,,,,,,,,,,,,,,,,,,,,,,,,,,,,,,,,,,,,,,,,,,,,,,,
,,,,6,1.8376,,,,,,51,onion,strawberry,,89618,001,2022-04-29_12h40.09.483,SPAMnetsValid,2021.1.4,Win32,59.64096141,,,,,,,,,,,,,6,1.8376,0,95,95,86,1,,,,,,,,,,,,,,,,,,,,,,,,,,,,,,,,,,,,,,,,,,,,,,,,,,,,,,,,,,,,,,,,,,,,,,
,,,,4,8.5389,,,,,,69,carrot,refrigerator,,89618,001,2022-04-29_12h40.09.483,SPAMnetsValid,2021.1.4,Win32,59.64096141,,,,,,,,,,,,,4,8.5389,0,96,96,75,1,,,,,,,,,,,,,,,,,,,,,,,,,,,,,,,,,,,,,,,,,,,,,,,,,,,,,,,,,,,,,,,,,,,,,,
,,,,,,,,,,,,,,,89618,001,2022-04-29_12h40.09.483,SPAMnetsValid,2021.1.4,Win32,59.64096141,,,,,,,,,,,,,,,,,,,,0,0,0,0,1,,,,,,,,,,,,,,,,,,,,,,,,,,,,,,,,,,,,,,,,,,,,,,,,,,,,,,,,,,,,,,,,,
,,,,,,,,,,,,,,,89618,001,2022-04-29_12h40.09.483,SPAMnetsValid,2021.1.4,Win32,59.64096141,,,,,,0,1,1,0,1,1,0,,,,,,,,,,,,,,,,,,,,,,,,,,,,,,,,,,,,,,,,,,,,,,,,,,,,,,,,,,,,,,,,,,,,,,,,,,,,,
,,,,,,,,,,,,,,,89618,001,2022-04-29_12h40.09.483,SPAMnetsValid,2021.1.4,Win32,59.64096141,,,,,,,,,,,,,,,,,,,,,,,,,4,3.5675,0,0,0,0,1,rancor,forbearance,ridicule,malice,bravery,3,,,,,,,,,,,,,,,,,,,,,,,,,,,,,,,,,,,,,,,,,,,,,,,,,,,,
,,,,,,,,,,,,,,,89618,001,2022-04-29_12h40.09.483,SPAMnetsValid,2021.1.4,Win32,59.64096141,,,,,,,,,,,,,,,,,,,,,,,,,4,4.3436,0,1,1,1,1,raucous,empty,quiet,smooth,harsh,4,,,,,,,,,,,,,,,,,,,,,,,,,,,,,,,,,,,,,,,,,,,,,,,,,,,,
,,,,,,,,,,,,,,,89618,001,2022-04-29_12h40.09.483,SPAMnetsValid,2021.1.4,Win32,59.64096141,,,,,,,,,,,,,,,,,,,,,,,,,4,2.3859,0,2,2,2,1,gargoyle,oil,medicine,carved waterspout,ugly building,3,,,,,,,,,,,,,,,,,,,,,,,,,,,,,,,,,,,,,,,,,,,,,,,,,,,,
,,,,,,,,,,,,,,,89618,001,2022-04-29_12h40.09.483,SPAMnetsValid,2021.1.4,Win32,59.64096141,,,,,,,,,,,,,,,,,,,,,,,,,,,0,3,3,3,1,recrudesce,purify,renew activity,lack refinement,crush,2,,,,,,,,,,,,,,,,,,,,,,,,,,,,,,,,,,,,,,,,,,,,,,,,,,,,
,,,,,,,,,,,,,,,89618,001,2022-04-29_12h40.09.483,SPAMnetsValid,2021.1.4,Win32,59.64096141,,,,,,,,,,,,,,,,,,,,,,,,,3,6.312,0,4,4,4,1,specious,"plausible, but not genuine",noteworthy,class or variety,roomy,1,,,,,,,,,,,,,,,,,,,,,,,,,,,,,,,,,,,,,,,,,,,,,,,,,,,,
,,,,,,,,,,,,,,,89618,001,2022-04-29_12h40.09.483,SPAMnetsValid,2021.1.4,Win32,59.64096141,,,,,,,,,,,,,,,,,,,,,,,,,3,2.5553,0,5,5,5,1,bauble,bubble,showy plaything,idle talk,confusion,2,,,,,,,,,,,,,,,,,,,,,,,,,,,,,,,,,,,,,,,,,,,,,,,,,,,,
,,,,,,,,,,,,,,,89618,001,2022-04-29_12h40.09.483,SPAMnetsValid,2021.1.4,Win32,59.64096141,,,,,,,,,,,,,,,,,,,,,,,,,2,4.1055,0,6,6,6,1,prolific,scarce,producing abundantly,reckless,speaking profanely,2,,,,,,,,,,,,,,,,,,,,,,,,,,,,,,,,,,,,,,,,,,,,,,,,,,,,
,,,,,,,,,,,,,,,89618,001,2022-04-29_12h40.09.483,SPAMnetsValid,2021.1.4,Win32,59.64096141,,,,,,,,,,,,,,,,,,,,,,,,,3,6.2376,0,7,7,7,1,opulent,party,wealthy,happy frame of mind,semiprecious stone,2,,,,,,,,,,,,,,,,,,,,,,,,,,,,,,,,,,,,,,,,,,,,,,,,,,,,
,,,,,,,,,,,,,,,89618,001,2022-04-29_12h40.09.483,SPAMnetsValid,2021.1.4,Win32,59.64096141,,,,,,,,,,,,,,,,,,,,,,,,,2,5.2461,0,8,8,8,1,coercion,conspiracy,strategy,restraint,attraction,3,,,,,,,,,,,,,,,,,,,,,,,,,,,,,,,,,,,,,,,,,,,,,,,,,,,,
,,,,,,,,,,,,,,,89618,001,2022-04-29_12h40.09.483,SPAMnetsValid,2021.1.4,Win32,59.64096141,,,,,,,,,,,,,,,,,,,,,,,,,4,2.237,0,9,9,9,1,hiatus,animal,calamity,dread,gap,4,,,,,,,,,,,,,,,,,,,,,,,,,,,,,,,,,,,,,,,,,,,,,,,,,,,,
,,,,,,,,,,,,,,,89618,001,2022-04-29_12h40.09.483,SPAMnetsValid,2021.1.4,Win32,59.64096141,,,,,,,,,,,,,,,,,,,,,,,,,3,4.8162,0,10,10,10,1,germane,microbe,contagious,relevant,different,3,,,,,,,,,,,,,,,,,,,,,,,,,,,,,,,,,,,,,,,,,,,,,,,,,,,,
,,,,,,,,,,,,,,,89618,001,2022-04-29_12h40.09.483,SPAMnetsValid,2021.1.4,Win32,59.64096141,,,,,,,,,,,,,,,,,,,,,,,,,1,5.0589,0,11,11,11,1,perfunctory,fundamental,formal,superficial,careful,3,,,,,,,,,,,,,,,,,,,,,,,,,,,,,,,,,,,,,,,,,,,,,,,,,,,,
,,,,,,,,,,,,,,,89618,001,2022-04-29_12h40.09.483,SPAMnetsValid,2021.1.4,Win32,59.64096141,,,,,,,,,,,,,,,,,,,,,,,,,4,3.0375,0,12,12,12,1,diverge,reveal,chant,distract the attention of,differ or turn off from,4,,,,,,,,,,,,,,,,,,,,,,,,,,,,,,,,,,,,,,,,,,,,,,,,,,,,
,,,,,,,,,,,,,,,89618,001,2022-04-29_12h40.09.483,SPAMnetsValid,2021.1.4,Win32,59.64096141,,,,,,,,,,,,,,,,,,,,,,,,,4,3.3366,0,13,13,13,1,evoke,take away,anger,connect,bring out,4,,,,,,,,,,,,,,,,,,,,,,,,,,,,,,,,,,,,,,,,,,,,,,,,,,,,
,,,,,,,,,,,,,,,89618,001,2022-04-29_12h40.09.483,SPAMnetsValid,2021.1.4,Win32,59.64096141,,,,,,,,,,,,,,,,,,,,,,,,,1,2.4719,0,14,14,14,1,pertinent,relevant,lying next to,necessary,bold,1,,,,,,,,,,,,,,,,,,,,,,,,,,,,,,,,,,,,,,,,,,,,,,,,,,,,
,,,,,,,,,,,,,,,89618,001,2022-04-29_12h40.09.483,SPAMnetsValid,2021.1.4,Win32,59.64096141,,,,,,,,,,,,,,,,,,,,,,,,,2,3.6878,0,15,15,15,1,holocaust,entirety,destruction,saintly,price,2,,,,,,,,,,,,,,,,,,,,,,,,,,,,,,,,,,,,,,,,,,,,,,,,,,,,
,,,,,,,,,,,,,,,89618,001,2022-04-29_12h40.09.483,SPAMnetsValid,2021.1.4,Win32,59.64096141,,,,,,,,,,,,,,,,,,,,,,,,,1,6.96,0,16,16,16,1,piquant,mellow,fish,pungent,cloth,3,,,,,,,,,,,,,,,,,,,,,,,,,,,,,,,,,,,,,,,,,,,,,,,,,,,,
,,,,,,,,,,,,,,,89618,001,2022-04-29_12h40.09.483,SPAMnetsValid,2021.1.4,Win32,59.64096141,,,,,,,,,,,,,,,,,,,,,,,,,1,5.9412,0,17,17,17,1,firmament,foundation,heavens,strong,glue,2,,,,,,,,,,,,,,,,,,,,,,,,,,,,,,,,,,,,,,,,,,,,,,,,,,,,
,,,,,,,,,,,,,,,89618,001,2022-04-29_12h40.09.483,SPAMnetsValid,2021.1.4,Win32,59.64096141,,,,,,,,,,,,,,,,,,,,,,,,,,,,,,,,,,,,,,3,7.9384,0,0,0,0,1,marketable,partisan,jocular,marriageable,salable,essential,4,,,,,,,,,,,,,,,,,,,,,,,,,,,,,,,,,,,,,,
,,,,,,,,,,,,,,,89618,001,2022-04-29_12h40.09.483,SPAMnetsValid,2021.1.4,Win32,59.64096141,,,,,,,,,,,,,,,,,,,,,,,,,,,,,,,,,,,,,,3,4.143,0,1,1,1,1,cottontail,squirrel,poplar,boa,marshy plant,rabbit,5,,,,,,,,,,,,,,,,,,,,,,,,,,,,,,,,,,,,,,
,,,,,,,,,,,,,,,89618,001,2022-04-29_12h40.09.483,SPAMnetsValid,2021.1.4,Win32,59.64096141,,,,,,,,,,,,,,,,,,,,,,,,,,,,,,,,,,,,,,3,2.7212,0,2,2,2,1,boggy,afraid,false,marshy,dense,black,3,,,,,,,,,,,,,,,,,,,,,,,,,,,,,,,,,,,,,,
,,,,,,,,,,,,,,,89618,001,2022-04-29_12h40.09.483,SPAMnetsValid,2021.1.4,Win32,59.64096141,,,,,,,,,,,,,,,,,,,,,,,,,,,,,,,,,,,,,,5,2.966,0,3,3,3,1,gruesomeness,blackness,falseness,vindictiveness,drunkenness,ghastliness,5,,,,,,,,,,,,,,,,,,,,,,,,,,,,,,,,,,,,,,
,,,,,,,,,,,,,,,89618,001,2022-04-29_12h40.09.483,SPAMnetsValid,2021.1.4,Win32,59.64096141,,,,,,,,,,,,,,,,,,,,,,,,,,,,,,,,,,,,,,3,2.3323,0,4,4,4,1,loathing,diffidence,laziness,abhorrence,cleverness,comfort,3,,,,,,,,,,,,,,,,,,,,,,,,,,,,,,,,,,,,,,
,,,,,,,,,,,,,,,89618,001,2022-04-29_12h40.09.483,SPAMnetsValid,2021.1.4,Win32,59.64096141,,,,,,,,,,,,,,,,,,,,,,,,,,,,,,,,,,,,,,2,4.7723,0,5,5,5,1,bantam,fowl,ridicule,cripple,vegetable,ensign,1,,,,,,,,,,,,,,,,,,,,,,,,,,,,,,,,,,,,,,
,,,,,,,,,,,,,,,89618,001,2022-04-29_12h40.09.483,SPAMnetsValid,2021.1.4,Win32,59.64096141,,,,,,,,,,,,,,,,,,,,,,,,,,,,,,,,,,,,,,,,0,6,6,6,1,evoke,wake up,surrender,reconnoiter,transcend,call forth,5,,,,,,,,,,,,,,,,,,,,,,,,,,,,,,,,,,,,,,
,,,,,,,,,,,,,,,89618,001,2022-04-29_12h40.09.483,SPAMnetsValid,2021.1.4,Win32,59.64096141,,,,,,,,,,,,,,,,,,,,,,,,,,,,,,,,,,,,,,5,0.0442,0,7,7,7,1,unobtrusive,unintelligent,epileptic,illogical,lineal,modest,5,,,,,,,,,,,,,,,,,,,,,,,,,,,,,,,,,,,,,,
,,,,,,,,,,,,,,,89618,001,2022-04-29_12h40.09.483,SPAMnetsValid,2021.1.4,Win32,59.64096141,,,,,,,,,,,,,,,,,,,,,,,,,,,,,,,,,,,,,,4,4.2932,0,8,8,8,1,terrain,ice cream,final test,tractor,area of ground,weight,4,,,,,,,,,,,,,,,,,,,,,,,,,,,,,,,,,,,,,,
,,,,,,,,,,,,,,,89618,001,2022-04-29_12h40.09.483,SPAMnetsValid,2021.1.4,Win32,59.64096141,,,,,,,,,,,,,,,,,,,,,,,,,,,,,,,,,,,,,,3,3.9709,0,9,9,9,1,capriciousness,stubbornness,courage,whimsicality,amazement,greediness,3,,,,,,,,,,,,,,,,,,,,,,,,,,,,,,,,,,,,,,
,,,,,,,,,,,,,,,89618,001,2022-04-29_12h40.09.483,SPAMnetsValid,2021.1.4,Win32,59.64096141,,,,,,,,,,,,,,,,,,,,,,,,,,,,,,,,,,,,,,2,3.1252,0,10,10,10,1,maelstrom,slander,whirlpool,enmity,armor,majolica,2,,,,,,,,,,,,,,,,,,,,,,,,,,,,,,,,,,,,,,
,,,,,,,,,,,,,,,89618,001,2022-04-29_12h40.09.483,SPAMnetsValid,2021.1.4,Win32,59.64096141,,,,,,,,,,,,,,,,,,,,,,,,,,,,,,,,,,,,,,5,4.1339,0,11,11,11,1,tentative,critical,conclusive,authentic,provisional,apprehensive,4,,,,,,,,,,,,,,,,,,,,,,,,,,,,,,,,,,,,,,
,,,,,,,,,,,,,,,89618,001,2022-04-29_12h40.09.483,SPAMnetsValid,2021.1.4,Win32,59.64096141,,,,,,,,,,,,,,,,,,,,,,,,,,,,,,,,,,,,,,5,3.471,0,12,12,12,1,placate,rehabilitate,plagiarize,depredate,apprise,conciliate,5,,,,,,,,,,,,,,,,,,,,,,,,,,,,,,,,,,,,,,
,,,,,,,,,,,,,,,89618,001,2022-04-29_12h40.09.483,SPAMnetsValid,2021.1.4,Win32,59.64096141,,,,,,,,,,,,,,,,,,,,,,,,,,,,,,,,,,,,,,5,6.137,0,13,13,13,1,surcease,enlightenment,cessation,inattention,censor,substitution,2,,,,,,,,,,,,,,,,,,,,,,,,,,,,,,,,,,,,,,
,,,,,,,,,,,,,,,89618,001,2022-04-29_12h40.09.483,SPAMnetsValid,2021.1.4,Win32,59.64096141,,,,,,,,,,,,,,,,,,,,,,,,,,,,,,,,,,,,,,2,3.3598,0,14,14,14,1,apathetic,wandering,impassive,hateful,prophetic,overflowing,2,,,,,,,,,,,,,,,,,,,,,,,,,,,,,,,,,,,,,,
,,,,,,,,,,,,,,,89618,001,2022-04-29_12h40.09.483,SPAMnetsValid,2021.1.4,Win32,59.64096141,,,,,,,,,,,,,,,,,,,,,,,,,,,,,,,,,,,,,,1,3.877,0,15,15,15,1,paternoster,paternalism,patricide,malediction,benediction,prayer,5,,,,,,,,,,,,,,,,,,,,,,,,,,,,,,,,,,,,,,
,,,,,,,,,,,,,,,89618,001,2022-04-29_12h40.09.483,SPAMnetsValid,2021.1.4,Win32,59.64096141,,,,,,,,,,,,,,,,,,,,,,,,,,,,,,,,,,,,,,4,3.2198,0,16,16,16,1,opalescence,opulence,senescence,bankruptcy,iridescence,assiduity,4,,,,,,,,,,,,,,,,,,,,,,,,,,,,,,,,,,,,,,
,,,,,,,,,,,,,,,89618,001,2022-04-29_12h40.09.483,SPAMnetsValid,2021.1.4,Win32,59.64096141,,,,,,,,,,,,,,,,,,,,,,,,,,,,,,,,,,,,,,2,3.392,0,17,17,17,1,lush,stupid,luxurious,hazy,putrid,languishing,2,,,,,,,,,,,,,,,,,,,,,,,,,,,,,,,,,,,,,,
,,,,,,,,,,,,,,,89618,001,2022-04-29_12h40.09.483,SPAMnetsValid,2021.1.4,Win32,59.64096141,,,,,,,,,,,,,,,,,,,,,,,,,,,,,,,,,,,,,,2,4.0086,0,18,18,18,1,curtailment,expenditure,abandonment,abridgment,improvement,forgery,3,,,,,,,,,,,,,,,,,,,,,,,,,,,,,,,,,,,,,,
,,,,,,,,,,,,,,,89618,001,2022-04-29_12h40.09.483,SPAMnetsValid,2021.1.4,Win32,59.64096141,,,,,,,,,,,,,,,,,,,,,,,,,,,,,,,,,,,,,,1,5.1095,0,19,19,19,1,perversity,adversity,perviousness,travesty,waywardness,gentility,4,,,,,,,,,,,,,,,,,,,,,,,,,,,,,,,,,,,,,,
,,,,,,,,,,,,,,,89618,001,2022-04-29_12h40.09.483,SPAMnetsValid,2021.1.4,Win32,59.64096141,,,,,,,,,,,,,,,,,,,,,,,,,,,,,,,,,,,,,,2,6.1995,0,20,20,20,1,calumnious,complimentary,analogous,slanderous,tempestuous,magnanimous,3,,,,,,,,,,,,,,,,,,,,,,,,,,,,,,,,,,,,,,
,,,,,,,,,,,,,,,89618,001,2022-04-29_12h40.09.483,SPAMnetsValid,2021.1.4,Win32,59.64096141,,,,,,,,,,,,,,,,,,,,,,,,,,,,,,,,,,,,,,1,4.7345,0,21,21,21,1,illiberality,bigotry,imbecility,illegibility,cautery,immaturity,1,,,,,,,,,,,,,,,,,,,,,,,,,,,,,,,,,,,,,,
,,,,,,,,,,,,,,,89618,001,2022-04-29_12h40.09.483,SPAMnetsValid,2021.1.4,Win32,59.64096141,,,,,,,,,,,,,,,,,,,,,,,,,,,,,,,,,,,,,,2,3.4252,0,22,22,22,1,clabber,rejoice,gossip,curdle,crow,hobble,3,,,,,,,,,,,,,,,,,,,,,,,,,,,,,,,,,,,,,,
,,,,,,,,,,,,,,,89618,001,2022-04-29_12h40.09.483,SPAMnetsValid,2021.1.4,Win32,59.64096141,,,,,,,,,,,,,,,,,,,,,,,,,,,,,,,,,,,,,,5,7.8386,0,23,23,23,1,sedulousness,diligence,credulousness,seduction,perilousness,frankness,1,,,,,,,,,,,,,,,,,,,,,,,,,,,,,,,,,,,,,,
,,,,,,,,,,,,,,,89618,001,2022-04-29_12h40.09.483,SPAMnetsValid,2021.1.4,Win32,59.64096141,,,,,,,,,,,,,,,,,,,,,,,,,,,,,,,,,,,,,,,,,,,,,,,,,,,,its a hat,bucket,0,0,0,0,1,,,,,,,,,,,,,,,,,,,,,,,,,,,,,,,
,,,,,,,,,,,,,,,89618,001,2022-04-29_12h40.09.483,SPAMnetsValid,2021.1.4,Win32,59.64096141,,,,,,,,,,,,,,,,,,,,,,,,,,,,,,,,,,,,,,,,,,,,,,,,,,,,its a chamber pot,bucket,1,0,1,0,1,,,,,,,,,,,,,,,,,,,,,,,,,,,,,,,
,,,,,,,,,,,,,,,89618,001,2022-04-29_12h40.09.483,SPAMnetsValid,2021.1.4,Win32,59.64096141,,,,,,,,,,,,,,,,,,,,,,,,,,,,,,,,,,,,,,,,,,,,,,,,,,,,its a weapon,bucket,2,0,2,0,1,,,,,,,,,,,,,,,,,,,,,,,,,,,,,,,
,,,,,,,,,,,,,,,89618,001,2022-04-29_12h40.09.483,SPAMnetsValid,2021.1.4,Win32,59.64096141,,,,,,,,,,,,,,,,,,,,,,,,,,,,,,,,,,,,,,,,,,,,,,,,,,,,mode of transportation by rolling on its die,bucket,3,0,3,0,1,,,,,,,,,,,,,,,,,,,,,,,,,,,,,,,
,,,,,,,,,,,,,,,89618,001,2022-04-29_12h40.09.483,SPAMnetsValid,2021.1.4,Win32,59.64096141,,,,,,,,,,,,,,,,,,,,,,,,,,,,,,,,,,,,,,,,,,,,,,,,,,,,holding convenient items,bucket,4,0,4,0,1,,,,,,,,,,,,,,,,,,,,,,,,,,,,,,,
,,,,,,,,,,,,,,,89618,001,2022-04-29_12h40.09.483,SPAMnetsValid,2021.1.4,Win32,59.64096141,,,,,,,,,,,,,,,,,,,,,,,,,,,,,,,,,,,,,,,,,,,,,,,,,,,,carrying people around in,bucket,5,0,5,0,1,,,,,,,,,,,,,,,,,,,,,,,,,,,,,,,
,,,,,,,,,,,,,,,89618,001,2022-04-29_12h40.09.483,SPAMnetsValid,2021.1.4,Win32,59.64096141,,,,,,,,,,,,,,,,,,,,,,,,,,,,,,,,,,,,,,,,,,,,,,,,,,,,carrying cute animals around in,bucket,6,0,6,0,1,,,,,,,,,,,,,,,,,,,,,,,,,,,,,,,
,,,,,,,,,,,,,,,89618,001,2022-04-29_12h40.09.483,SPAMnetsValid,2021.1.4,Win32,59.64096141,,,,,,,,,,,,,,,,,,,,,,,,,,,,,,,,,,,,,,,,,,,,,,,,,,,,carrying ugly animals around in,bucket,7,0,7,0,1,,,,,,,,,,,,,,,,,,,,,,,,,,,,,,,
,,,,,,,,,,,,,,,89618,001,2022-04-29_12h40.09.483,SPAMnetsValid,2021.1.4,Win32,59.64096141,,,,,,,,,,,,,,,,,,,,,,,,,,,,,,,,,,,,,,,,,,,,,,,,,,,,makeshift fish tank,bucket,8,0,8,0,1,,,,,,,,,,,,,,,,,,,,,,,,,,,,,,,
,,,,,,,,,,,,,,,89618,001,2022-04-29_12h40.09.483,SPAMnetsValid,2021.1.4,Win32,59.64096141,,,,,,,,,,,,,,,,,,,,,,,,,,,,,,,,,,,,,,,,,,,,,,,,,,,,surfboard,bucket,9,0,9,0,1,,,,,,,,,,,,,,,,,,,,,,,,,,,,,,,
,,,,,,,,,,,,,,,89618,001,2022-04-29_12h40.09.483,SPAMnetsValid,2021.1.4,Win32,59.64096141,,,,,,,,,,,,,,,,,,,,,,,,,,,,,,,,,,,,,,,,,,,,,,,,,,,,lifeboat,bucket,10,0,10,0,1,,,,,,,,,,,,,,,,,,,,,,,,,,,,,,,
,,,,,,,,,,,,,,,89618,001,2022-04-29_12h40.09.483,SPAMnetsValid,2021.1.4,Win32,59.64096141,,,,,,,,,,,,,,,,,,,,,,,,,,,,,,,,,,,,,,,,,,,,,,,,,,,,boat,bucket,11,0,11,0,1,,,,,,,,,,,,,,,,,,,,,,,,,,,,,,,
,,,,,,,,,,,,,,,89618,001,2022-04-29_12h40.09.483,SPAMnetsValid,2021.1.4,Win32,59.64096141,,,,,,,,,,,,,,,,,,,,,,,,,,,,,,,,,,,,,,,,,,,,,,,,,,,,,,,,,,,0,0,0,0,1,bucket,,,,,,,,,,,,,,,,,,,,,,,,,
,,,,,,,,,,,,,,,89618,001,2022-04-29_12h40.09.483,SPAMnetsValid,2021.1.4,Win32,59.64096141,,,,,,,,,,,,,,,,,,,,,,,,,,,,,,,,,,,,,,,,,,,,,,,,,,,,timer,candle,0,0,0,0,1,,,,,,,,,,,,,,,,,,,,,,,,,,,,,,,
,,,,,,,,,,,,,,,89618,001,2022-04-29_12h40.09.483,SPAMnetsValid,2021.1.4,Win32,59.64096141,,,,,,,,,,,,,,,,,,,,,,,,,,,,,,,,,,,,,,,,,,,,,,,,,,,,a weapon,candle,1,0,1,0,1,,,,,,,,,,,,,,,,,,,,,,,,,,,,,,,
,,,,,,,,,,,,,,,89618,001,2022-04-29_12h40.09.483,SPAMnetsValid,2021.1.4,Win32,59.64096141,,,,,,,,,,,,,,,,,,,,,,,,,,,,,,,,,,,,,,,,,,,,,,,,,,,,a motivational device,candle,2,0,2,0,1,,,,,,,,,,,,,,,,,,,,,,,,,,,,,,,
,,,,,,,,,,,,,,,89618,001,2022-04-29_12h40.09.483,SPAMnetsValid,2021.1.4,Win32,59.64096141,,,,,,,,,,,,,,,,,,,,,,,,,,,,,,,,,,,,,,,,,,,,,,,,,,,,a torture device,candle,3,0,3,0,1,,,,,,,,,,,,,,,,,,,,,,,,,,,,,,,
,,,,,,,,,,,,,,,89618,001,2022-04-29_12h40.09.483,SPAMnetsValid,2021.1.4,Win32,59.64096141,,,,,,,,,,,,,,,,,,,,,,,,,,,,,,,,,,,,,,,,,,,,,,,,,,,,a trash can for flammable objects,candle,4,0,4,0,1,,,,,,,,,,,,,,,,,,,,,,,,,,,,,,,
,,,,,,,,,,,,,,,89618,001,2022-04-29_12h40.09.483,SPAMnetsValid,2021.1.4,Win32,59.64096141,,,,,,,,,,,,,,,,,,,,,,,,,,,,,,,,,,,,,,,,,,,,,,,,,,,,use it to find your flashlight,candle,5,0,5,0,1,,,,,,,,,,,,,,,,,,,,,,,,,,,,,,,
,,,,,,,,,,,,,,,89618,001,2022-04-29_12h40.09.483,SPAMnetsValid,2021.1.4,Win32,59.64096141,,,,,,,,,,,,,,,,,,,,,,,,,,,,,,,,,,,,,,,,,,,,,,,,,,,,entertainment bc of the way the flame flickers,candle,6,0,6,0,1,,,,,,,,,,,,,,,,,,,,,,,,,,,,,,,
,,,,,,,,,,,,,,,89618,001,2022-04-29_12h40.09.483,SPAMnetsValid,2021.1.4,Win32,59.64096141,,,,,,,,,,,,,,,,,,,,,,,,,,,,,,,,,,,,,,,,,,,,,,,,,,,,"candle racing, a sport where you run as fast as you can but if the candle goes out youre disqualified",candle,7,0,7,0,1,,,,,,,,,,,,,,,,,,,,,,,,,,,,,,,
,,,,,,,,,,,,,,,89618,001,2022-04-29_12h40.09.483,SPAMnetsValid,2021.1.4,Win32,59.64096141,,,,,,,,,,,,,,,,,,,,,,,,,,,,,,,,,,,,,,,,,,,,,,,,,,,,learn how to eat fire with it,candle,8,0,8,0,1,,,,,,,,,,,,,,,,,,,,,,,,,,,,,,,
,,,,,,,,,,,,,,,89618,001,2022-04-29_12h40.09.483,SPAMnetsValid,2021.1.4,Win32,59.64096141,,,,,,,,,,,,,,,,,,,,,,,,,,,,,,,,,,,,,,,,,,,,,,,,,,,,use it for cooking food,candle,9,0,9,0,1,,,,,,,,,,,,,,,,,,,,,,,,,,,,,,,
,,,,,,,,,,,,,,,89618,001,2022-04-29_12h40.09.483,SPAMnetsValid,2021.1.4,Win32,59.64096141,,,,,,,,,,,,,,,,,,,,,,,,,,,,,,,,,,,,,,,,,,,,,,,,,,,,,,,,,,,0,1,1,1,1,candle,,,,,,,,,,,,,,,,,,,,,,,,,
,,,,,,,,,,,,,,,89618,001,2022-04-29_12h40.09.483,SPAMnetsValid,2021.1.4,Win32,59.64096141,,,,,,,,,,,,,,,,,,,,,,,,,,,,,,,,,,,,,,,,,,,,,,,,,,,,pillow fights,pillow,0,0,0,0,1,,,,,,,,,,,,,,,,,,,,,,,,,,,,,,,
,,,,,,,,,,,,,,,89618,001,2022-04-29_12h40.09.483,SPAMnetsValid,2021.1.4,Win32,59.64096141,,,,,,,,,,,,,,,,,,,,,,,,,,,,,,,,,,,,,,,,,,,,,,,,,,,,a way to break a fall,pillow,1,0,1,0,1,,,,,,,,,,,,,,,,,,,,,,,,,,,,,,,
,,,,,,,,,,,,,,,89618,001,2022-04-29_12h40.09.483,SPAMnetsValid,2021.1.4,Win32,59.64096141,,,,,,,,,,,,,,,,,,,,,,,,,,,,,,,,,,,,,,,,,,,,,,,,,,,,put it on the floor next to your bed where your head would be if you fell so that if you fall you won't hit your head and die,pillow,2,0,2,0,1,,,,,,,,,,,,,,,,,,,,,,,,,,,,,,,
,,,,,,,,,,,,,,,89618,001,2022-04-29_12h40.09.483,SPAMnetsValid,2021.1.4,Win32,59.64096141,,,,,,,,,,,,,,,,,,,,,,,,,,,,,,,,,,,,,,,,,,,,,,,,,,,,an easy way to carry feathers for your quill and ink,pillow,3,0,3,0,1,,,,,,,,,,,,,,,,,,,,,,,,,,,,,,,
,,,,,,,,,,,,,,,89618,001,2022-04-29_12h40.09.483,SPAMnetsValid,2021.1.4,Win32,59.64096141,,,,,,,,,,,,,,,,,,,,,,,,,,,,,,,,,,,,,,,,,,,,,,,,,,,,did i already say pillow fights/,pillow,4,0,4,0,1,,,,,,,,,,,,,,,,,,,,,,,,,,,,,,,
,,,,,,,,,,,,,,,89618,001,2022-04-29_12h40.09.483,SPAMnetsValid,2021.1.4,Win32,59.64096141,,,,,,,,,,,,,,,,,,,,,,,,,,,,,,,,,,,,,,,,,,,,,,,,,,,,a weapon of mass destruction,pillow,5,0,5,0,1,,,,,,,,,,,,,,,,,,,,,,,,,,,,,,,
,,,,,,,,,,,,,,,89618,001,2022-04-29_12h40.09.483,SPAMnetsValid,2021.1.4,Win32,59.64096141,,,,,,,,,,,,,,,,,,,,,,,,,,,,,,,,,,,,,,,,,,,,,,,,,,,,take it with you so you can sleep anywhere,pillow,6,0,6,0,1,,,,,,,,,,,,,,,,,,,,,,,,,,,,,,,
,,,,,,,,,,,,,,,89618,001,2022-04-29_12h40.09.483,SPAMnetsValid,2021.1.4,Win32,59.64096141,,,,,,,,,,,,,,,,,,,,,,,,,,,,,,,,,,,,,,,,,,,,,,,,,,,,breast implant,pillow,7,0,7,0,1,,,,,,,,,,,,,,,,,,,,,,,,,,,,,,,
,,,,,,,,,,,,,,,89618,001,2022-04-29_12h40.09.483,SPAMnetsValid,2021.1.4,Win32,59.64096141,,,,,,,,,,,,,,,,,,,,,,,,,,,,,,,,,,,,,,,,,,,,,,,,,,,,penis implant,pillow,8,0,8,0,1,,,,,,,,,,,,,,,,,,,,,,,,,,,,,,,
,,,,,,,,,,,,,,,89618,001,2022-04-29_12h40.09.483,SPAMnetsValid,2021.1.4,Win32,59.64096141,,,,,,,,,,,,,,,,,,,,,,,,,,,,,,,,,,,,,,,,,,,,,,,,,,,,butt implant,pillow,9,0,9,0,1,,,,,,,,,,,,,,,,,,,,,,,,,,,,,,,
,,,,,,,,,,,,,,,89618,001,2022-04-29_12h40.09.483,SPAMnetsValid,2021.1.4,Win32,59.64096141,,,,,,,,,,,,,,,,,,,,,,,,,,,,,,,,,,,,,,,,,,,,,,,,,,,,store all your stuff inside it,pillow,10,0,10,0,1,,,,,,,,,,,,,,,,,,,,,,,,,,,,,,,
,,,,,,,,,,,,,,,89618,001,2022-04-29_12h40.09.483,SPAMnetsValid,2021.1.4,Win32,59.64096141,,,,,,,,,,,,,,,,,,,,,,,,,,,,,,,,,,,,,,,,,,,,,,,,,,,,take the stuffing out and play with it,pillow,11,0,11,0,1,,,,,,,,,,,,,,,,,,,,,,,,,,,,,,,
,,,,,,,,,,,,,,,89618,001,2022-04-29_12h40.09.483,SPAMnetsValid,2021.1.4,Win32,59.64096141,,,,,,,,,,,,,,,,,,,,,,,,,,,,,,,,,,,,,,,,,,,,,,,,,,,,,,,,,,,0,2,2,2,1,pillow,,,,,,,,,,,,,,,,,,,,,,,,,
,,,,,,,,,,,,,,,89618,001,2022-04-29_12h40.09.483,SPAMnetsValid,2021.1.4,Win32,59.64096141,,,,,,,,,,,,,,,,,,,,,,,,,,,,,,,,,,,,,,,,,,,,,,,,,,,,,,,,,,,,,,,,,dog,Animals,0,0,0,0,1,,,,,,,,,,,,,,,,,,
,,,,,,,,,,,,,,,89618,001,2022-04-29_12h40.09.483,SPAMnetsValid,2021.1.4,Win32,59.64096141,,,,,,,,,,,,,,,,,,,,,,,,,,,,,,,,,,,,,,,,,,,,,,,,,,,,,,,,,,,,,,,,,cat,Animals,1,0,1,0,1,,,,,,,,,,,,,,,,,,
,,,,,,,,,,,,,,,89618,001,2022-04-29_12h40.09.483,SPAMnetsValid,2021.1.4,Win32,59.64096141,,,,,,,,,,,,,,,,,,,,,,,,,,,,,,,,,,,,,,,,,,,,,,,,,,,,,,,,,,,,,,,,,cow,Animals,2,0,2,0,1,,,,,,,,,,,,,,,,,,
,,,,,,,,,,,,,,,89618,001,2022-04-29_12h40.09.483,SPAMnetsValid,2021.1.4,Win32,59.64096141,,,,,,,,,,,,,,,,,,,,,,,,,,,,,,,,,,,,,,,,,,,,,,,,,,,,,,,,,,,,,,,,,pig,Animals,3,0,3,0,1,,,,,,,,,,,,,,,,,,
,,,,,,,,,,,,,,,89618,001,2022-04-29_12h40.09.483,SPAMnetsValid,2021.1.4,Win32,59.64096141,,,,,,,,,,,,,,,,,,,,,,,,,,,,,,,,,,,,,,,,,,,,,,,,,,,,,,,,,,,,,,,,,horse,Animals,4,0,4,0,1,,,,,,,,,,,,,,,,,,
,,,,,,,,,,,,,,,89618,001,2022-04-29_12h40.09.483,SPAMnetsValid,2021.1.4,Win32,59.64096141,,,,,,,,,,,,,,,,,,,,,,,,,,,,,,,,,,,,,,,,,,,,,,,,,,,,,,,,,,,,,,,,,zebra,Animals,5,0,5,0,1,,,,,,,,,,,,,,,,,,
,,,,,,,,,,,,,,,89618,001,2022-04-29_12h40.09.483,SPAMnetsValid,2021.1.4,Win32,59.64096141,,,,,,,,,,,,,,,,,,,,,,,,,,,,,,,,,,,,,,,,,,,,,,,,,,,,,,,,,,,,,,,,,sheep,Animals,6,0,6,0,1,,,,,,,,,,,,,,,,,,
,,,,,,,,,,,,,,,89618,001,2022-04-29_12h40.09.483,SPAMnetsValid,2021.1.4,Win32,59.64096141,,,,,,,,,,,,,,,,,,,,,,,,,,,,,,,,,,,,,,,,,,,,,,,,,,,,,,,,,,,,,,,,,lamb,Animals,7,0,7,0,1,,,,,,,,,,,,,,,,,,
,,,,,,,,,,,,,,,89618,001,2022-04-29_12h40.09.483,SPAMnetsValid,2021.1.4,Win32,59.64096141,,,,,,,,,,,,,,,,,,,,,,,,,,,,,,,,,,,,,,,,,,,,,,,,,,,,,,,,,,,,,,,,,bull,Animals,8,0,8,0,1,,,,,,,,,,,,,,,,,,
,,,,,,,,,,,,,,,89618,001,2022-04-29_12h40.09.483,SPAMnetsValid,2021.1.4,Win32,59.64096141,,,,,,,,,,,,,,,,,,,,,,,,,,,,,,,,,,,,,,,,,,,,,,,,,,,,,,,,,,,,,,,,,chicken,Animals,9,0,9,0,1,,,,,,,,,,,,,,,,,,
,,,,,,,,,,,,,,,89618,001,2022-04-29_12h40.09.483,SPAMnetsValid,2021.1.4,Win32,59.64096141,,,,,,,,,,,,,,,,,,,,,,,,,,,,,,,,,,,,,,,,,,,,,,,,,,,,,,,,,,,,,,,,,duck,Animals,10,0,10,0,1,,,,,,,,,,,,,,,,,,
,,,,,,,,,,,,,,,89618,001,2022-04-29_12h40.09.483,SPAMnetsValid,2021.1.4,Win32,59.64096141,,,,,,,,,,,,,,,,,,,,,,,,,,,,,,,,,,,,,,,,,,,,,,,,,,,,,,,,,,,,,,,,,swan,Animals,11,0,11,0,1,,,,,,,,,,,,,,,,,,
,,,,,,,,,,,,,,,89618,001,2022-04-29_12h40.09.483,SPAMnetsValid,2021.1.4,Win32,59.64096141,,,,,,,,,,,,,,,,,,,,,,,,,,,,,,,,,,,,,,,,,,,,,,,,,,,,,,,,,,,,,,,,,badger,Animals,12,0,12,0,1,,,,,,,,,,,,,,,,,,
,,,,,,,,,,,,,,,89618,001,2022-04-29_12h40.09.483,SPAMnetsValid,2021.1.4,Win32,59.64096141,,,,,,,,,,,,,,,,,,,,,,,,,,,,,,,,,,,,,,,,,,,,,,,,,,,,,,,,,,,,,,,,,bison,Animals,13,0,13,0,1,,,,,,,,,,,,,,,,,,
,,,,,,,,,,,,,,,89618,001,2022-04-29_12h40.09.483,SPAMnetsValid,2021.1.4,Win32,59.64096141,,,,,,,,,,,,,,,,,,,,,,,,,,,,,,,,,,,,,,,,,,,,,,,,,,,,,,,,,,,,,,,,,buffalo,Animals,14,0,14,0,1,,,,,,,,,,,,,,,,,,
,,,,,,,,,,,,,,,89618,001,2022-04-29_12h40.09.483,SPAMnetsValid,2021.1.4,Win32,59.64096141,,,,,,,,,,,,,,,,,,,,,,,,,,,,,,,,,,,,,,,,,,,,,,,,,,,,,,,,,,,,,,,,,ox,Animals,15,0,15,0,1,,,,,,,,,,,,,,,,,,
,,,,,,,,,,,,,,,89618,001,2022-04-29_12h40.09.483,SPAMnetsValid,2021.1.4,Win32,59.64096141,,,,,,,,,,,,,,,,,,,,,,,,,,,,,,,,,,,,,,,,,,,,,,,,,,,,,,,,,,,,,,,,,fish,Animals,16,0,16,0,1,,,,,,,,,,,,,,,,,,
,,,,,,,,,,,,,,,89618,001,2022-04-29_12h40.09.483,SPAMnetsValid,2021.1.4,Win32,59.64096141,,,,,,,,,,,,,,,,,,,,,,,,,,,,,,,,,,,,,,,,,,,,,,,,,,,,,,,,,,,,,,,,,swallow,Animals,17,0,17,0,1,,,,,,,,,,,,,,,,,,
,,,,,,,,,,,,,,,89618,001,2022-04-29_12h40.09.483,SPAMnetsValid,2021.1.4,Win32,59.64096141,,,,,,,,,,,,,,,,,,,,,,,,,,,,,,,,,,,,,,,,,,,,,,,,,,,,,,,,,,,,,,,,,bluejay,Animals,18,0,18,0,1,,,,,,,,,,,,,,,,,,
,,,,,,,,,,,,,,,89618,001,2022-04-29_12h40.09.483,SPAMnetsValid,2021.1.4,Win32,59.64096141,,,,,,,,,,,,,,,,,,,,,,,,,,,,,,,,,,,,,,,,,,,,,,,,,,,,,,,,,,,,,,,,,eagle,Animals,19,0,19,0,1,,,,,,,,,,,,,,,,,,
,,,,,,,,,,,,,,,89618,001,2022-04-29_12h40.09.483,SPAMnetsValid,2021.1.4,Win32,59.64096141,,,,,,,,,,,,,,,,,,,,,,,,,,,,,,,,,,,,,,,,,,,,,,,,,,,,,,,,,,,,,,,,,vulture,Animals,20,0,20,0,1,,,,,,,,,,,,,,,,,,
,,,,,,,,,,,,,,,89618,001,2022-04-29_12h40.09.483,SPAMnetsValid,2021.1.4,Win32,59.64096141,,,,,,,,,,,,,,,,,,,,,,,,,,,,,,,,,,,,,,,,,,,,,,,,,,,,,,,,,,,,,,,,,condor,Animals,21,0,21,0,1,,,,,,,,,,,,,,,,,,
,,,,,,,,,,,,,,,89618,001,2022-04-29_12h40.09.483,SPAMnetsValid,2021.1.4,Win32,59.64096141,,,,,,,,,,,,,,,,,,,,,,,,,,,,,,,,,,,,,,,,,,,,,,,,,,,,,,,,,,,,,,,,,leopard,Animals,22,0,22,0,1,,,,,,,,,,,,,,,,,,
,,,,,,,,,,,,,,,89618,001,2022-04-29_12h40.09.483,SPAMnetsValid,2021.1.4,Win32,59.64096141,,,,,,,,,,,,,,,,,,,,,,,,,,,,,,,,,,,,,,,,,,,,,,,,,,,,,,,,,,,,,,,,,cheetah,Animals,23,0,23,0,1,,,,,,,,,,,,,,,,,,
,,,,,,,,,,,,,,,89618,001,2022-04-29_12h40.09.483,SPAMnetsValid,2021.1.4,Win32,59.64096141,,,,,,,,,,,,,,,,,,,,,,,,,,,,,,,,,,,,,,,,,,,,,,,,,,,,,,,,,,,,,,,,,jaguar,Animals,24,0,24,0,1,,,,,,,,,,,,,,,,,,
,,,,,,,,,,,,,,,89618,001,2022-04-29_12h40.09.483,SPAMnetsValid,2021.1.4,Win32,59.64096141,,,,,,,,,,,,,,,,,,,,,,,,,,,,,,,,,,,,,,,,,,,,,,,,,,,,,,,,,,,,,,,,,tiger,Animals,25,0,25,0,1,,,,,,,,,,,,,,,,,,
,,,,,,,,,,,,,,,89618,001,2022-04-29_12h40.09.483,SPAMnetsValid,2021.1.4,Win32,59.64096141,,,,,,,,,,,,,,,,,,,,,,,,,,,,,,,,,,,,,,,,,,,,,,,,,,,,,,,,,,,,,,,,,lion,Animals,26,0,26,0,1,,,,,,,,,,,,,,,,,,
,,,,,,,,,,,,,,,89618,001,2022-04-29_12h40.09.483,SPAMnetsValid,2021.1.4,Win32,59.64096141,,,,,,,,,,,,,,,,,,,,,,,,,,,,,,,,,,,,,,,,,,,,,,,,,,,,,,,,,,,,,,,,,wooly mammoth,Animals,27,0,27,0,1,,,,,,,,,,,,,,,,,,
,,,,,,,,,,,,,,,89618,001,2022-04-29_12h40.09.483,SPAMnetsValid,2021.1.4,Win32,59.64096141,,,,,,,,,,,,,,,,,,,,,,,,,,,,,,,,,,,,,,,,,,,,,,,,,,,,,,,,,,,,,,,,,elephant,Animals,28,0,28,0,1,,,,,,,,,,,,,,,,,,
,,,,,,,,,,,,,,,89618,001,2022-04-29_12h40.09.483,SPAMnetsValid,2021.1.4,Win32,59.64096141,,,,,,,,,,,,,,,,,,,,,,,,,,,,,,,,,,,,,,,,,,,,,,,,,,,,,,,,,,,,,,,,,peacock,Animals,29,0,29,0,1,,,,,,,,,,,,,,,,,,
,,,,,,,,,,,,,,,89618,001,2022-04-29_12h40.09.483,SPAMnetsValid,2021.1.4,Win32,59.64096141,,,,,,,,,,,,,,,,,,,,,,,,,,,,,,,,,,,,,,,,,,,,,,,,,,,,,,,,,,,,,,,,,monkey,Animals,30,0,30,0,1,,,,,,,,,,,,,,,,,,
,,,,,,,,,,,,,,,89618,001,2022-04-29_12h40.09.483,SPAMnetsValid,2021.1.4,Win32,59.64096141,,,,,,,,,,,,,,,,,,,,,,,,,,,,,,,,,,,,,,,,,,,,,,,,,,,,,,,,,,,,,,,,,chimpanzee,Animals,31,0,31,0,1,,,,,,,,,,,,,,,,,,
,,,,,,,,,,,,,,,89618,001,2022-04-29_12h40.09.483,SPAMnetsValid,2021.1.4,Win32,59.64096141,,,,,,,,,,,,,,,,,,,,,,,,,,,,,,,,,,,,,,,,,,,,,,,,,,,,,,,,,,,,,,,,,orangutan,Animals,32,0,32,0,1,,,,,,,,,,,,,,,,,,
,,,,,,,,,,,,,,,89618,001,2022-04-29_12h40.09.483,SPAMnetsValid,2021.1.4,Win32,59.64096141,,,,,,,,,,,,,,,,,,,,,,,,,,,,,,,,,,,,,,,,,,,,,,,,,,,,,,,,,,,,,,,,,gorilla,Animals,33,0,33,0,1,,,,,,,,,,,,,,,,,,
,,,,,,,,,,,,,,,89618,001,2022-04-29_12h40.09.483,SPAMnetsValid,2021.1.4,Win32,59.64096141,,,,,,,,,,,,,,,,,,,,,,,,,,,,,,,,,,,,,,,,,,,,,,,,,,,,,,,,,,,,,,,,,ape,Animals,34,0,34,0,1,,,,,,,,,,,,,,,,,,
,,,,,,,,,,,,,,,89618,001,2022-04-29_12h40.09.483,SPAMnetsValid,2021.1.4,Win32,59.64096141,,,,,,,,,,,,,,,,,,,,,,,,,,,,,,,,,,,,,,,,,,,,,,,,,,,,,,,,,,,,,,,,,human,Animals,35,0,35,0,1,,,,,,,,,,,,,,,,,,
,,,,,,,,,,,,,,,89618,001,2022-04-29_12h40.09.483,SPAMnetsValid,2021.1.4,Win32,59.64096141,,,,,,,,,,,,,,,,,,,,,,,,,,,,,,,,,,,,,,,,,,,,,,,,,,,,,,,,,,,,,,,,,wolf,Animals,36,0,36,0,1,,,,,,,,,,,,,,,,,,
,,,,,,,,,,,,,,,89618,001,2022-04-29_12h40.09.483,SPAMnetsValid,2021.1.4,Win32,59.64096141,,,,,,,,,,,,,,,,,,,,,,,,,,,,,,,,,,,,,,,,,,,,,,,,,,,,,,,,,,,,,,,,,coyote,Animals,37,0,37,0,1,,,,,,,,,,,,,,,,,,
,,,,,,,,,,,,,,,89618,001,2022-04-29_12h40.09.483,SPAMnetsValid,2021.1.4,Win32,59.64096141,,,,,,,,,,,,,,,,,,,,,,,,,,,,,,,,,,,,,,,,,,,,,,,,,,,,,,,,,,,,,,,,,panther,Animals,38,0,38,0,1,,,,,,,,,,,,,,,,,,
,,,,,,,,,,,,,,,89618,001,2022-04-29_12h40.09.483,SPAMnetsValid,2021.1.4,Win32,59.64096141,,,,,,,,,,,,,,,,,,,,,,,,,,,,,,,,,,,,,,,,,,,,,,,,,,,,,,,,,,,,,,,,,bear,Animals,39,0,39,0,1,,,,,,,,,,,,,,,,,,
,,,,,,,,,,,,,,,89618,001,2022-04-29_12h40.09.483,SPAMnetsValid,2021.1.4,Win32,59.64096141,,,,,,,,,,,,,,,,,,,,,,,,,,,,,,,,,,,,,,,,,,,,,,,,,,,,,,,,,,,,,,,,,fox,Animals,40,0,40,0,1,,,,,,,,,,,,,,,,,,
,,,,,,,,,,,,,,,89618,001,2022-04-29_12h40.09.483,SPAMnetsValid,2021.1.4,Win32,59.64096141,,,,,,,,,,,,,,,,,,,,,,,,,,,,,,,,,,,,,,,,,,,,,,,,,,,,,,,,,,,,,,,,,penguin,Animals,41,0,41,0,1,,,,,,,,,,,,,,,,,,
,,,,,,,,,,,,,,,89618,001,2022-04-29_12h40.09.483,SPAMnetsValid,2021.1.4,Win32,59.64096141,,,,,,,,,,,,,,,,,,,,,,,,,,,,,,,,,,,,,,,,,,,,,,,,,,,,,,,,,,,,,,,,,flamingo,Animals,42,0,42,0,1,,,,,,,,,,,,,,,,,,
,,,,,,,,,,,,,,,89618,001,2022-04-29_12h40.09.483,SPAMnetsValid,2021.1.4,Win32,59.64096141,,,,,,,,,,,,,,,,,,,,,,,,,,,,,,,,,,,,,,,,,,,,,,,,,,,,,,,,,,,,,,,,,rhino,Animals,43,0,43,0,1,,,,,,,,,,,,,,,,,,
,,,,,,,,,,,,,,,89618,001,2022-04-29_12h40.09.483,SPAMnetsValid,2021.1.4,Win32,59.64096141,,,,,,,,,,,,,,,,,,,,,,,,,,,,,,,,,,,,,,,,,,,,,,,,,,,,,,,,,,,,,,,,,hippo,Animals,44,0,44,0,1,,,,,,,,,,,,,,,,,,
,,,,,,,,,,,,,,,89618,001,2022-04-29_12h40.09.483,SPAMnetsValid,2021.1.4,Win32,59.64096141,,,,,,,,,,,,,,,,,,,,,,,,,,,,,,,,,,,,,,,,,,,,,,,,,,,,,,,,,,,,,,,,,dolphin,Animals,45,0,45,0,1,,,,,,,,,,,,,,,,,,
,,,,,,,,,,,,,,,89618,001,2022-04-29_12h40.09.483,SPAMnetsValid,2021.1.4,Win32,59.64096141,,,,,,,,,,,,,,,,,,,,,,,,,,,,,,,,,,,,,,,,,,,,,,,,,,,,,,,,,,,,,,,,,,,,,,,,0,0,0,0,1,Animals,,,,,,,,,,,,
,,,,,,,,,,,,,,,89618,001,2022-04-29_12h40.09.483,SPAMnetsValid,2021.1.4,Win32,59.64096141,,,,,,,,,,,,,,,,,,,,,,,,,,,,,,,,,,,,,,,,,,,,,,,,,,,,,,,,,,,,,,,,,,,,,,,,,,,,,,5,7.7946,0,0,0,0,1,"I enjoy concentrating on a fantasy or daydream and exploring all its possibilities, letting it grow and develop.",0,1,,
,,,,,,,,,,,,,,,89618,001,2022-04-29_12h40.09.483,SPAMnetsValid,2021.1.4,Win32,59.64096141,,,,,,,,,,,,,,,,,,,,,,,,,,,,,,,,,,,,,,,,,,,,,,,,,,,,,,,,,,,,,,,,,,,,,,,,,,,,,,4,1.6654,0,1,1,1,1,I think it's interesting to learn and develop new hobbies.,0,2,,
,,,,,,,,,,,,,,,89618,001,2022-04-29_12h40.09.483,SPAMnetsValid,2021.1.4,Win32,59.64096141,,,,,,,,,,,,,,,,,,,,,,,,,,,,,,,,,,,,,,,,,,,,,,,,,,,,,,,,,,,,,,,,,,,,,,,,,,,,,,4,1.885,0,2,2,2,1,I am intrigued by the patterns I find in art and nature.,0,3,,
,,,,,,,,,,,,,,,89618,001,2022-04-29_12h40.09.483,SPAMnetsValid,2021.1.4,Win32,59.64096141,,,,,,,,,,,,,,,,,,,,,,,,,,,,,,,,,,,,,,,,,,,,,,,,,,,,,,,,,,,,,,,,,,,,,,,,,,,,,,1,2.5486,0,3,3,3,1,I believe letting students hear controversial speakers can only confuse and mislead them.,1,4,,
,,,,,,,,,,,,,,,89618,001,2022-04-29_12h40.09.483,SPAMnetsValid,2021.1.4,Win32,59.64096141,,,,,,,,,,,,,,,,,,,,,,,,,,,,,,,,,,,,,,,,,,,,,,,,,,,,,,,,,,,,,,,,,,,,,,,,,,,,,,4,1.643,0,4,4,4,1,Poetry has little or no effect on me.,1,5,,
,,,,,,,,,,,,,,,89618,001,2022-04-29_12h40.09.483,SPAMnetsValid,2021.1.4,Win32,59.64096141,,,,,,,,,,,,,,,,,,,,,,,,,,,,,,,,,,,,,,,,,,,,,,,,,,,,,,,,,,,,,,,,,,,,,,,,,,,,,,2,4.7818,0,5,5,5,1,I would have difficulty just letting my mind wander without control or guidance.,1,6,,
,,,,,,,,,,,,,,,89618,001,2022-04-29_12h40.09.483,SPAMnetsValid,2021.1.4,Win32,59.64096141,,,,,,,,,,,,,,,,,,,,,,,,,,,,,,,,,,,,,,,,,,,,,,,,,,,,,,,,,,,,,,,,,,,,,,,,,,,,,,4,2.6225,0,6,6,6,1,I seldom notice the moods or feelings that different environments produce.,1,7,,
,,,,,,,,,,,,,,,89618,001,2022-04-29_12h40.09.483,SPAMnetsValid,2021.1.4,Win32,59.64096141,,,,,,,,,,,,,,,,,,,,,,,,,,,,,,,,,,,,,,,,,,,,,,,,,,,,,,,,,,,,,,,,,,,,,,,,,,,,,,4,2.6432,0,7,7,7,1,I experience a wide range of emotions or feelings.,0,8,,
,,,,,,,,,,,,,,,89618,001,2022-04-29_12h40.09.483,SPAMnetsValid,2021.1.4,Win32,59.64096141,,,,,,,,,,,,,,,,,,,,,,,,,,,,,,,,,,,,,,,,,,,,,,,,,,,,,,,,,,,,,,,,,,,,,,,,,,,,,,1,20.3983,0,8,8,8,1,"Sometimes when I am reading poetry or looking at a work of art, I feel a chill or wave of excitement.",0,9,,
,,,,,,,,,,,,,,,89618,001,2022-04-29_12h40.09.483,SPAMnetsValid,2021.1.4,Win32,59.64096141,,,,,,,,,,,,,,,,,,,,,,,,,,,,,,,,,,,,,,,,,,,,,,,,,,,,,,,,,,,,,,,,,,,,,,,,,,,,,,1,2.9966,0,9,9,9,1,I have little interest in speculating on the nature of the universe or the human condition.,1,10,,
,,,,,,,,,,,,,,,89618,001,2022-04-29_12h40.09.483,SPAMnetsValid,2021.1.4,Win32,59.64096141,,,,,,,,,,,,,,,,,,,,,,,,,,,,,,,,,,,,,,,,,,,,,,,,,,,,,,,,,,,,,,,,,,,,,,,,,,,,,,5,2.1818,0,10,10,10,1,I have a lot of intellectual curiosity.,0,11,,
,,,,,,,,,,,,,,,89618,001,2022-04-29_12h40.09.483,SPAMnetsValid,2021.1.4,Win32,59.64096141,,,,,,,,,,,,,,,,,,,,,,,,,,,,,,,,,,,,,,,,,,,,,,,,,,,,,,,,,,,,,,,,,,,,,,,,,,,,,,5,2.2854,0,11,11,11,1,I often enjoy playing with theories or abstract ideas.,0,12,,
,,,,,,,,,,,,,,,89618,001,2022-04-29_12h40.09.483,SPAMnetsValid,2021.1.4,Win32,59.64096141,,,,,,,,,,,,,,,,,,,,,,,,,,,,,,,,,,,,,,,,,,,,,,,,,,,,,,,,,,,,,,,,,,,,,,,,,,,,,,,,,,,,,,,,return,7.6915
