key_resp_3.keys,key_resp_3.rt,slider.response,slider.rt,rjt_rating,rjt_RT,trials_22.thisRepN,trials_22.thisTrialN,trials_22.thisN,trials_22.thisIndex,trials_22.ran,rjt_order,word1,word2,attention,participant,session,date,expName,psychopyVersion,OS,frameRate,trials_99.thisRepN,trials_99.thisTrialN,trials_99.thisN,trials_99.thisIndex,trials_99.ran,trials_5.thisRepN,trials_5.thisTrialN,trials_5.thisN,trials_5.thisIndex,trials_5.ran,repOne,repTwo,slider_2.response,slider_2.rt,trials_24.thisRepN,trials_24.thisTrialN,trials_24.thisN,trials_24.thisIndex,trials_24.ran,trials_4.thisRepN,trials_4.thisTrialN,trials_4.thisN,trials_4.thisIndex,trials_4.ran,slider_extend_2.response,slider_extend_2.rt,trials_6.thisRepN,trials_6.thisTrialN,trials_6.thisN,trials_6.thisIndex,trials_6.ran,vCue2,R1,R2,R3,R4,correct,sliderVocab.response,sliderVocab.rt,trials_7.thisRepN,trials_7.thisTrialN,trials_7.thisN,trials_7.thisIndex,trials_7.ran,VocabCue,VR1,VR2,VR3,VR4,VR5,VocabCorrect,AUT_resp,AUT_label,trials.thisRepN,trials.thisTrialN,trials.thisN,trials.thisIndex,trials.ran,trials_2.thisRepN,trials_2.thisTrialN,trials_2.thisN,trials_2.thisIndex,trials_2.ran,aut_prompt,VF_response,VF_tag,trials_16.thisRepN,trials_16.thisTrialN,trials_16.thisN,trials_16.thisIndex,trials_16.ran,trials_17.thisRepN,trials_17.thisTrialN,trials_17.thisN,trials_17.thisIndex,trials_17.ran,VFcond,open_slider.response,open_slider.rt,trials_3.thisRepN,trials_3.thisTrialN,trials_3.thisN,trials_3.thisIndex,trials_3.ran,OpenQ,Rev,OPEN_ORDER,key_resp_2.keys,key_resp_2.rt
return,8.1824,1,4.6128,1,4.6128,0,0,0,27,1,72,broom,onion,,89624,001,2022-04-25_13h40.42.687,SPAMnetsValid,2021.1.4,Win32,59.78715772,,,,,,,,,,,,,,,,,,,,,,,,,,,,,,,,,,,,,,,,,,,,,,,,,,,,,,,,,,,,,,,,,,,,,,,,,,,,,,,,,,,,,,,,,
,,6,4.2242,6,4.2242,0,1,1,71,1,38,pretzel,refrigerator,,89624,001,2022-04-25_13h40.42.687,SPAMnetsValid,2021.1.4,Win32,59.78715772,,,,,,,,,,,,,,,,,,,,,,,,,,,,,,,,,,,,,,,,,,,,,,,,,,,,,,,,,,,,,,,,,,,,,,,,,,,,,,,,,,,,,,,,,
,,2,1.2398,2,1.2398,0,2,2,5,1,13,broom,yogurt,,89624,001,2022-04-25_13h40.42.687,SPAMnetsValid,2021.1.4,Win32,59.78715772,,,,,,,,,,,,,,,,,,,,,,,,,,,,,,,,,,,,,,,,,,,,,,,,,,,,,,,,,,,,,,,,,,,,,,,,,,,,,,,,,,,,,,,,,
,,9,1.6783,9,1.6783,0,3,3,49,1,57,flower,kitchen,,89624,001,2022-04-25_13h40.42.687,SPAMnetsValid,2021.1.4,Win32,59.78715772,,,,,,,,,,,,,,,,,,,,,,,,,,,,,,,,,,,,,,,,,,,,,,,,,,,,,,,,,,,,,,,,,,,,,,,,,,,,,,,,,,,,,,,,,
,,3,1.3938,3,1.3938,0,4,4,25,1,23,flower,microwave,,89624,001,2022-04-25_13h40.42.687,SPAMnetsValid,2021.1.4,Win32,59.78715772,,,,,,,,,,,,,,,,,,,,,,,,,,,,,,,,,,,,,,,,,,,,,,,,,,,,,,,,,,,,,,,,,,,,,,,,,,,,,,,,,,,,,,,,,
,,3,1.4042,3,1.4042,0,5,5,94,1,68,flower,tomato,,89624,001,2022-04-25_13h40.42.687,SPAMnetsValid,2021.1.4,Win32,59.78715772,,,,,,,,,,,,,,,,,,,,,,,,,,,,,,,,,,,,,,,,,,,,,,,,,,,,,,,,,,,,,,,,,,,,,,,,,,,,,,,,,,,,,,,,,
,,9,1.6594,9,1.6594,0,6,6,64,1,9,kitchen,refrigerator,,89624,001,2022-04-25_13h40.42.687,SPAMnetsValid,2021.1.4,Win32,59.78715772,,,,,,,,,,,,,,,,,,,,,,,,,,,,,,,,,,,,,,,,,,,,,,,,,,,,,,,,,,,,,,,,,,,,,,,,,,,,,,,,,,,,,,,,,
,,9,1.4393,9,1.4393,0,7,7,75,1,69,carrot,refrigerator,,89624,001,2022-04-25_13h40.42.687,SPAMnetsValid,2021.1.4,Win32,59.78715772,,,,,,,,,,,,,,,,,,,,,,,,,,,,,,,,,,,,,,,,,,,,,,,,,,,,,,,,,,,,,,,,,,,,,,,,,,,,,,,,,,,,,,,,,
,,9,1.2946,9,1.2946,0,8,8,2,1,22,kitchen,strawberry,,89624,001,2022-04-25_13h40.42.687,SPAMnetsValid,2021.1.4,Win32,59.78715772,,,,,,,,,,,,,,,,,,,,,,,,,,,,,,,,,,,,,,,,,,,,,,,,,,,,,,,,,,,,,,,,,,,,,,,,,,,,,,,,,,,,,,,,,
,,8,1.4392,8,1.4392,0,9,9,30,1,3,cake,oven,,89624,001,2022-04-25_13h40.42.687,SPAMnetsValid,2021.1.4,Win32,59.78715772,,,,,,,,,,,,,,,,,,,,,,,,,,,,,,,,,,,,,,,,,,,,,,,,,,,,,,,,,,,,,,,,,,,,,,,,,,,,,,,,,,,,,,,,,
,,8,1.237,8,1.237,0,10,10,58,1,94,kitchen,microwave,,89624,001,2022-04-25_13h40.42.687,SPAMnetsValid,2021.1.4,Win32,59.78715772,,,,,,,,,,,,,,,,,,,,,,,,,,,,,,,,,,,,,,,,,,,,,,,,,,,,,,,,,,,,,,,,,,,,,,,,,,,,,,,,,,,,,,,,,
,,2,1.812,2,1.812,0,11,11,23,1,65,broom,garden,,89624,001,2022-04-25_13h40.42.687,SPAMnetsValid,2021.1.4,Win32,59.78715772,,,,,,,,,,,,,,,,,,,,,,,,,,,,,,,,,,,,,,,,,,,,,,,,,,,,,,,,,,,,,,,,,,,,,,,,,,,,,,,,,,,,,,,,,
,,3,1.4096,3,1.4096,0,12,12,47,1,73,broom,chocolate,,89624,001,2022-04-25_13h40.42.687,SPAMnetsValid,2021.1.4,Win32,59.78715772,,,,,,,,,,,,,,,,,,,,,,,,,,,,,,,,,,,,,,,,,,,,,,,,,,,,,,,,,,,,,,,,,,,,,,,,,,,,,,,,,,,,,,,,,
,,6,5.3206,6,5.3206,0,13,13,38,1,88,cactus,melon,,89624,001,2022-04-25_13h40.42.687,SPAMnetsValid,2021.1.4,Win32,59.78715772,,,,,,,,,,,,,,,,,,,,,,,,,,,,,,,,,,,,,,,,,,,,,,,,,,,,,,,,,,,,,,,,,,,,,,,,,,,,,,,,,,,,,,,,,
,,3,1.122,3,1.122,0,14,14,32,1,40,broom,cake,,89624,001,2022-04-25_13h40.42.687,SPAMnetsValid,2021.1.4,Win32,59.78715772,,,,,,,,,,,,,,,,,,,,,,,,,,,,,,,,,,,,,,,,,,,,,,,,,,,,,,,,,,,,,,,,,,,,,,,,,,,,,,,,,,,,,,,,,
,,3,1.6035,3,1.6035,0,15,15,57,1,62,kitchen,rose,,89624,001,2022-04-25_13h40.42.687,SPAMnetsValid,2021.1.4,Win32,59.78715772,,,,,,,,,,,,,,,,,,,,,,,,,,,,,,,,,,,,,,,,,,,,,,,,,,,,,,,,,,,,,,,,,,,,,,,,,,,,,,,,,,,,,,,,,
,,3,1.7225,3,1.7225,0,16,16,45,1,10,flower,onion,,89624,001,2022-04-25_13h40.42.687,SPAMnetsValid,2021.1.4,Win32,59.78715772,,,,,,,,,,,,,,,,,,,,,,,,,,,,,,,,,,,,,,,,,,,,,,,,,,,,,,,,,,,,,,,,,,,,,,,,,,,,,,,,,,,,,,,,,
,,3,1.1392,3,1.1392,0,17,17,26,1,35,flower,pretzel,,89624,001,2022-04-25_13h40.42.687,SPAMnetsValid,2021.1.4,Win32,59.78715772,,,,,,,,,,,,,,,,,,,,,,,,,,,,,,,,,,,,,,,,,,,,,,,,,,,,,,,,,,,,,,,,,,,,,,,,,,,,,,,,,,,,,,,,,
,,8,1.6276,8,1.6276,0,18,18,51,1,47,onion,tomato,,89624,001,2022-04-25_13h40.42.687,SPAMnetsValid,2021.1.4,Win32,59.78715772,,,,,,,,,,,,,,,,,,,,,,,,,,,,,,,,,,,,,,,,,,,,,,,,,,,,,,,,,,,,,,,,,,,,,,,,,,,,,,,,,,,,,,,,,
,,6,1.8225,6,1.8225,0,19,19,24,1,17,carrot,melon,,89624,001,2022-04-25_13h40.42.687,SPAMnetsValid,2021.1.4,Win32,59.78715772,,,,,,,,,,,,,,,,,,,,,,,,,,,,,,,,,,,,,,,,,,,,,,,,,,,,,,,,,,,,,,,,,,,,,,,,,,,,,,,,,,,,,,,,,
,,3,1.1195,3,1.1195,0,20,20,76,1,36,broom,kitchen,,89624,001,2022-04-25_13h40.42.687,SPAMnetsValid,2021.1.4,Win32,59.78715772,,,,,,,,,,,,,,,,,,,,,,,,,,,,,,,,,,,,,,,,,,,,,,,,,,,,,,,,,,,,,,,,,,,,,,,,,,,,,,,,,,,,,,,,,
,,3,2.7643,3,2.7643,0,21,21,68,1,24,cookie,tomato,,89624,001,2022-04-25_13h40.42.687,SPAMnetsValid,2021.1.4,Win32,59.78715772,,,,,,,,,,,,,,,,,,,,,,,,,,,,,,,,,,,,,,,,,,,,,,,,,,,,,,,,,,,,,,,,,,,,,,,,,,,,,,,,,,,,,,,,,
,,3,2.0395,3,2.0395,0,22,22,15,1,48,flower,oven,,89624,001,2022-04-25_13h40.42.687,SPAMnetsValid,2021.1.4,Win32,59.78715772,,,,,,,,,,,,,,,,,,,,,,,,,,,,,,,,,,,,,,,,,,,,,,,,,,,,,,,,,,,,,,,,,,,,,,,,,,,,,,,,,,,,,,,,,
,,2,1.6208,2,1.6208,0,23,23,29,1,42,garden,kitchen,,89624,001,2022-04-25_13h40.42.687,SPAMnetsValid,2021.1.4,Win32,59.78715772,,,,,,,,,,,,,,,,,,,,,,,,,,,,,,,,,,,,,,,,,,,,,,,,,,,,,,,,,,,,,,,,,,,,,,,,,,,,,,,,,,,,,,,,,
,,7,1.766,7,1.766,0,24,24,96,1,82,cake,kitchen,,89624,001,2022-04-25_13h40.42.687,SPAMnetsValid,2021.1.4,Win32,59.78715772,,,,,,,,,,,,,,,,,,,,,,,,,,,,,,,,,,,,,,,,,,,,,,,,,,,,,,,,,,,,,,,,,,,,,,,,,,,,,,,,,,,,,,,,,
,,3,2.3717,3,2.3717,0,25,25,95,1,52,carrot,tomato,,89624,001,2022-04-25_13h40.42.687,SPAMnetsValid,2021.1.4,Win32,59.78715772,,,,,,,,,,,,,,,,,,,,,,,,,,,,,,,,,,,,,,,,,,,,,,,,,,,,,,,,,,,,,,,,,,,,,,,,,,,,,,,,,,,,,,,,,
,,3,1.3215,3,1.3215,0,26,26,34,1,29,chocolate,melon,,89624,001,2022-04-25_13h40.42.687,SPAMnetsValid,2021.1.4,Win32,59.78715772,,,,,,,,,,,,,,,,,,,,,,,,,,,,,,,,,,,,,,,,,,,,,,,,,,,,,,,,,,,,,,,,,,,,,,,,,,,,,,,,,,,,,,,,,
,,3,0.7389,3,0.7389,0,27,27,9,1,75,cookie,onion,,89624,001,2022-04-25_13h40.42.687,SPAMnetsValid,2021.1.4,Win32,59.78715772,,,,,,,,,,,,,,,,,,,,,,,,,,,,,,,,,,,,,,,,,,,,,,,,,,,,,,,,,,,,,,,,,,,,,,,,,,,,,,,,,,,,,,,,,
,,3,1.3607,3,1.3607,0,28,28,84,1,91,microwave,rose,,89624,001,2022-04-25_13h40.42.687,SPAMnetsValid,2021.1.4,Win32,59.78715772,,,,,,,,,,,,,,,,,,,,,,,,,,,,,,,,,,,,,,,,,,,,,,,,,,,,,,,,,,,,,,,,,,,,,,,,,,,,,,,,,,,,,,,,,
,,3,1.0959,3,1.0959,0,29,29,16,1,14,broom,cookie,,89624,001,2022-04-25_13h40.42.687,SPAMnetsValid,2021.1.4,Win32,59.78715772,,,,,,,,,,,,,,,,,,,,,,,,,,,,,,,,,,,,,,,,,,,,,,,,,,,,,,,,,,,,,,,,,,,,,,,,,,,,,,,,,,,,,,,,,
,,8,1.9559,8,1.9559,0,30,30,52,1,4,chocolate,pretzel,,89624,001,2022-04-25_13h40.42.687,SPAMnetsValid,2021.1.4,Win32,59.78715772,,,,,,,,,,,,,,,,,,,,,,,,,,,,,,,,,,,,,,,,,,,,,,,,,,,,,,,,,,,,,,,,,,,,,,,,,,,,,,,,,,,,,,,,,
,,3,1.2064,3,1.2064,0,31,31,80,1,61,strawberry,tomato,,89624,001,2022-04-25_13h40.42.687,SPAMnetsValid,2021.1.4,Win32,59.78715772,,,,,,,,,,,,,,,,,,,,,,,,,,,,,,,,,,,,,,,,,,,,,,,,,,,,,,,,,,,,,,,,,,,,,,,,,,,,,,,,,,,,,,,,,
,,4,23.0708,4,23.0708,0,32,32,39,1,15,onion,oven,,89624,001,2022-04-25_13h40.42.687,SPAMnetsValid,2021.1.4,Win32,59.78715772,,,,,,,,,,,,,,,,,,,,,,,,,,,,,,,,,,,,,,,,,,,,,,,,,,,,,,,,,,,,,,,,,,,,,,,,,,,,,,,,,,,,,,,,,
,,4,4.1485,4,4.1485,0,33,33,50,1,81,pretzel,yogurt,,89624,001,2022-04-25_13h40.42.687,SPAMnetsValid,2021.1.4,Win32,59.78715772,,,,,,,,,,,,,,,,,,,,,,,,,,,,,,,,,,,,,,,,,,,,,,,,,,,,,,,,,,,,,,,,,,,,,,,,,,,,,,,,,,,,,,,,,
,,3,1.0367,3,1.0367,0,34,34,42,1,77,refrigerator,yogurt,,89624,001,2022-04-25_13h40.42.687,SPAMnetsValid,2021.1.4,Win32,59.78715772,,,,,,,,,,,,,,,,,,,,,,,,,,,,,,,,,,,,,,,,,,,,,,,,,,,,,,,,,,,,,,,,,,,,,,,,,,,,,,,,,,,,,,,,,
,,2,1.524,2,1.524,0,35,35,85,1,90,cactus,cake,,89624,001,2022-04-25_13h40.42.687,SPAMnetsValid,2021.1.4,Win32,59.78715772,,,,,,,,,,,,,,,,,,,,,,,,,,,,,,,,,,,,,,,,,,,,,,,,,,,,,,,,,,,,,,,,,,,,,,,,,,,,,,,,,,,,,,,,,
,,3,5.5876,3,5.5876,0,36,36,35,1,55,tomato,tree,,89624,001,2022-04-25_13h40.42.687,SPAMnetsValid,2021.1.4,Win32,59.78715772,,,,,,,,,,,,,,,,,,,,,,,,,,,,,,,,,,,,,,,,,,,,,,,,,,,,,,,,,,,,,,,,,,,,,,,,,,,,,,,,,,,,,,,,,
,,3,4.4072,3,4.4072,0,37,37,3,1,49,flower,strawberry,,89624,001,2022-04-25_13h40.42.687,SPAMnetsValid,2021.1.4,Win32,59.78715772,,,,,,,,,,,,,,,,,,,,,,,,,,,,,,,,,,,,,,,,,,,,,,,,,,,,,,,,,,,,,,,,,,,,,,,,,,,,,,,,,,,,,,,,,
,,3,8.2388,3,8.2388,0,38,38,1,1,31,cactus,pretzel,,89624,001,2022-04-25_13h40.42.687,SPAMnetsValid,2021.1.4,Win32,59.78715772,,,,,,,,,,,,,,,,,,,,,,,,,,,,,,,,,,,,,,,,,,,,,,,,,,,,,,,,,,,,,,,,,,,,,,,,,,,,,,,,,,,,,,,,,
,,3,0.8864,3,0.8864,0,39,39,54,1,28,cake,melon,,89624,001,2022-04-25_13h40.42.687,SPAMnetsValid,2021.1.4,Win32,59.78715772,,,,,,,,,,,,,,,,,,,,,,,,,,,,,,,,,,,,,,,,,,,,,,,,,,,,,,,,,,,,,,,,,,,,,,,,,,,,,,,,,,,,,,,,,
,,3,9.8275,3,9.8275,0,40,40,37,1,58,garden,oven,,89624,001,2022-04-25_13h40.42.687,SPAMnetsValid,2021.1.4,Win32,59.78715772,,,,,,,,,,,,,,,,,,,,,,,,,,,,,,,,,,,,,,,,,,,,,,,,,,,,,,,,,,,,,,,,,,,,,,,,,,,,,,,,,,,,,,,,,
,,3,1.1228,3,1.1228,0,41,41,88,1,92,broom,flower,,89624,001,2022-04-25_13h40.42.687,SPAMnetsValid,2021.1.4,Win32,59.78715772,,,,,,,,,,,,,,,,,,,,,,,,,,,,,,,,,,,,,,,,,,,,,,,,,,,,,,,,,,,,,,,,,,,,,,,,,,,,,,,,,,,,,,,,,
,,4,2.0371,4,2.0371,0,42,42,11,1,37,garden,refrigerator,,89624,001,2022-04-25_13h40.42.687,SPAMnetsValid,2021.1.4,Win32,59.78715772,,,,,,,,,,,,,,,,,,,,,,,,,,,,,,,,,,,,,,,,,,,,,,,,,,,,,,,,,,,,,,,,,,,,,,,,,,,,,,,,,,,,,,,,,
,,3,1.104,3,1.104,0,43,43,74,1,70,chocolate,onion,,89624,001,2022-04-25_13h40.42.687,SPAMnetsValid,2021.1.4,Win32,59.78715772,,,,,,,,,,,,,,,,,,,,,,,,,,,,,,,,,,,,,,,,,,,,,,,,,,,,,,,,,,,,,,,,,,,,,,,,,,,,,,,,,,,,,,,,,
,,2,1.6197,2,1.6197,0,44,44,0,1,53,garden,pretzel,,89624,001,2022-04-25_13h40.42.687,SPAMnetsValid,2021.1.4,Win32,59.78715772,,,,,,,,,,,,,,,,,,,,,,,,,,,,,,,,,,,,,,,,,,,,,,,,,,,,,,,,,,,,,,,,,,,,,,,,,,,,,,,,,,,,,,,,,
,,8,1.639,8,1.639,0,45,45,93,1,63,cake,cookie,,89624,001,2022-04-25_13h40.42.687,SPAMnetsValid,2021.1.4,Win32,59.78715772,,,,,,,,,,,,,,,,,,,,,,,,,,,,,,,,,,,,,,,,,,,,,,,,,,,,,,,,,,,,,,,,,,,,,,,,,,,,,,,,,,,,,,,,,
,,3,1.7531,3,1.7531,0,46,46,28,1,84,oven,tomato,,89624,001,2022-04-25_13h40.42.687,SPAMnetsValid,2021.1.4,Win32,59.78715772,,,,,,,,,,,,,,,,,,,,,,,,,,,,,,,,,,,,,,,,,,,,,,,,,,,,,,,,,,,,,,,,,,,,,,,,,,,,,,,,,,,,,,,,,
,,3,0.7454,3,0.7454,0,47,47,92,1,44,cookie,melon,,89624,001,2022-04-25_13h40.42.687,SPAMnetsValid,2021.1.4,Win32,59.78715772,,,,,,,,,,,,,,,,,,,,,,,,,,,,,,,,,,,,,,,,,,,,,,,,,,,,,,,,,,,,,,,,,,,,,,,,,,,,,,,,,,,,,,,,,
,,4,1.679,4,1.679,0,48,48,81,1,60,cactus,onion,,89624,001,2022-04-25_13h40.42.687,SPAMnetsValid,2021.1.4,Win32,59.78715772,,,,,,,,,,,,,,,,,,,,,,,,,,,,,,,,,,,,,,,,,,,,,,,,,,,,,,,,,,,,,,,,,,,,,,,,,,,,,,,,,,,,,,,,,
,,4,0.8392,4,0.8392,0,49,49,44,1,25,carrot,onion,,89624,001,2022-04-25_13h40.42.687,SPAMnetsValid,2021.1.4,Win32,59.78715772,,,,,,,,,,,,,,,,,,,,,,,,,,,,,,,,,,,,,,,,,,,,,,,,,,,,,,,,,,,,,,,,,,,,,,,,,,,,,,,,,,,,,,,,,
,,7,1.061,7,1.061,0,50,50,82,1,93,kitchen,oven,,89624,001,2022-04-25_13h40.42.687,SPAMnetsValid,2021.1.4,Win32,59.78715772,,,,,,,,,,,,,,,,,,,,,,,,,,,,,,,,,,,,,,,,,,,,,,,,,,,,,,,,,,,,,,,,,,,,,,,,,,,,,,,,,,,,,,,,,
,,4,1.6213,4,1.6213,0,51,51,31,1,33,oven,yogurt,,89624,001,2022-04-25_13h40.42.687,SPAMnetsValid,2021.1.4,Win32,59.78715772,,,,,,,,,,,,,,,,,,,,,,,,,,,,,,,,,,,,,,,,,,,,,,,,,,,,,,,,,,,,,,,,,,,,,,,,,,,,,,,,,,,,,,,,,
,,4,78.2507,4,78.2507,0,52,52,72,1,59,rose,strawberry,,89624,001,2022-04-25_13h40.42.687,SPAMnetsValid,2021.1.4,Win32,59.78715772,,,,,,,,,,,,,,,,,,,,,,,,,,,,,,,,,,,,,,,,,,,,,,,,,,,,,,,,,,,,,,,,,,,,,,,,,,,,,,,,,,,,,,,,,
,,4,1.21,4,1.21,0,53,53,63,1,21,cake,onion,,89624,001,2022-04-25_13h40.42.687,SPAMnetsValid,2021.1.4,Win32,59.78715772,,,,,,,,,,,,,,,,,,,,,,,,,,,,,,,,,,,,,,,,,,,,,,,,,,,,,,,,,,,,,,,,,,,,,,,,,,,,,,,,,,,,,,,,,
,,3,10.5734,3,10.5734,0,54,54,41,1,19,microwave,pretzel,,89624,001,2022-04-25_13h40.42.687,SPAMnetsValid,2021.1.4,Win32,59.78715772,,,,,,,,,,,,,,,,,,,,,,,,,,,,,,,,,,,,,,,,,,,,,,,,,,,,,,,,,,,,,,,,,,,,,,,,,,,,,,,,,,,,,,,,,
,,3,0.8441,3,0.8441,0,55,55,46,1,41,broom,cactus,,89624,001,2022-04-25_13h40.42.687,SPAMnetsValid,2021.1.4,Win32,59.78715772,,,,,,,,,,,,,,,,,,,,,,,,,,,,,,,,,,,,,,,,,,,,,,,,,,,,,,,,,,,,,,,,,,,,,,,,,,,,,,,,,,,,,,,,,
,,3,2.8899,3,2.8899,0,56,56,69,1,45,onion,pretzel,,89624,001,2022-04-25_13h40.42.687,SPAMnetsValid,2021.1.4,Win32,59.78715772,,,,,,,,,,,,,,,,,,,,,,,,,,,,,,,,,,,,,,,,,,,,,,,,,,,,,,,,,,,,,,,,,,,,,,,,,,,,,,,,,,,,,,,,,
,,3,0.9905,3,0.9905,0,57,57,56,1,78,cookie,rose,,89624,001,2022-04-25_13h40.42.687,SPAMnetsValid,2021.1.4,Win32,59.78715772,,,,,,,,,,,,,,,,,,,,,,,,,,,,,,,,,,,,,,,,,,,,,,,,,,,,,,,,,,,,,,,,,,,,,,,,,,,,,,,,,,,,,,,,,
,,3,3.4362,3,3.4362,0,58,58,14,1,64,chocolate,garden,,89624,001,2022-04-25_13h40.42.687,SPAMnetsValid,2021.1.4,Win32,59.78715772,,,,,,,,,,,,,,,,,,,,,,,,,,,,,,,,,,,,,,,,,,,,,,,,,,,,,,,,,,,,,,,,,,,,,,,,,,,,,,,,,,,,,,,,,
,,3,5.7004,3,5.7004,0,59,59,61,1,71,broom,rose,,89624,001,2022-04-25_13h40.42.687,SPAMnetsValid,2021.1.4,Win32,59.78715772,,,,,,,,,,,,,,,,,,,,,,,,,,,,,,,,,,,,,,,,,,,,,,,,,,,,,,,,,,,,,,,,,,,,,,,,,,,,,,,,,,,,,,,,,
,,3,1.105,3,1.105,0,60,60,17,1,27,cactus,cookie,,89624,001,2022-04-25_13h40.42.687,SPAMnetsValid,2021.1.4,Win32,59.78715772,,,,,,,,,,,,,,,,,,,,,,,,,,,,,,,,,,,,,,,,,,,,,,,,,,,,,,,,,,,,,,,,,,,,,,,,,,,,,,,,,,,,,,,,,
,,9,1.7818,9,1.7818,0,61,61,10,1,191,cake,cake,CHECK,89624,001,2022-04-25_13h40.42.687,SPAMnetsValid,2021.1.4,Win32,59.78715772,,,,,,,,,,,,,,,,,,,,,,,,,,,,,,,,,,,,,,,,,,,,,,,,,,,,,,,,,,,,,,,,,,,,,,,,,,,,,,,,,,,,,,,,,
,,4,1.0856,4,1.0856,0,62,62,83,1,6,garden,onion,,89624,001,2022-04-25_13h40.42.687,SPAMnetsValid,2021.1.4,Win32,59.78715772,,,,,,,,,,,,,,,,,,,,,,,,,,,,,,,,,,,,,,,,,,,,,,,,,,,,,,,,,,,,,,,,,,,,,,,,,,,,,,,,,,,,,,,,,
,,3,1.1007,3,1.1007,0,63,63,19,1,76,garden,rose,,89624,001,2022-04-25_13h40.42.687,SPAMnetsValid,2021.1.4,Win32,59.78715772,,,,,,,,,,,,,,,,,,,,,,,,,,,,,,,,,,,,,,,,,,,,,,,,,,,,,,,,,,,,,,,,,,,,,,,,,,,,,,,,,,,,,,,,,
,,9,1.4357,9,1.4357,0,64,64,53,1,192,microwave,microwave,CHECK,89624,001,2022-04-25_13h40.42.687,SPAMnetsValid,2021.1.4,Win32,59.78715772,,,,,,,,,,,,,,,,,,,,,,,,,,,,,,,,,,,,,,,,,,,,,,,,,,,,,,,,,,,,,,,,,,,,,,,,,,,,,,,,,,,,,,,,,
,,4,4.5051,4,4.5051,0,65,65,22,1,16,chocolate,flower,,89624,001,2022-04-25_13h40.42.687,SPAMnetsValid,2021.1.4,Win32,59.78715772,,,,,,,,,,,,,,,,,,,,,,,,,,,,,,,,,,,,,,,,,,,,,,,,,,,,,,,,,,,,,,,,,,,,,,,,,,,,,,,,,,,,,,,,,
,,3,1.2022,3,1.2022,0,66,66,91,1,2,kitchen,onion,,89624,001,2022-04-25_13h40.42.687,SPAMnetsValid,2021.1.4,Win32,59.78715772,,,,,,,,,,,,,,,,,,,,,,,,,,,,,,,,,,,,,,,,,,,,,,,,,,,,,,,,,,,,,,,,,,,,,,,,,,,,,,,,,,,,,,,,,
,,8,1.4629,8,1.4629,0,67,67,77,1,7,melon,tree,,89624,001,2022-04-25_13h40.42.687,SPAMnetsValid,2021.1.4,Win32,59.78715772,,,,,,,,,,,,,,,,,,,,,,,,,,,,,,,,,,,,,,,,,,,,,,,,,,,,,,,,,,,,,,,,,,,,,,,,,,,,,,,,,,,,,,,,,
,,4,10.4523,4,10.4523,0,68,68,43,1,11,refrigerator,tree,,89624,001,2022-04-25_13h40.42.687,SPAMnetsValid,2021.1.4,Win32,59.78715772,,,,,,,,,,,,,,,,,,,,,,,,,,,,,,,,,,,,,,,,,,,,,,,,,,,,,,,,,,,,,,,,,,,,,,,,,,,,,,,,,,,,,,,,,
,,4,1.4252,4,1.4252,0,69,69,18,1,85,cake,tree,,89624,001,2022-04-25_13h40.42.687,SPAMnetsValid,2021.1.4,Win32,59.78715772,,,,,,,,,,,,,,,,,,,,,,,,,,,,,,,,,,,,,,,,,,,,,,,,,,,,,,,,,,,,,,,,,,,,,,,,,,,,,,,,,,,,,,,,,
,,3,1.6725,3,1.6725,0,70,70,8,1,43,chocolate,tomato,,89624,001,2022-04-25_13h40.42.687,SPAMnetsValid,2021.1.4,Win32,59.78715772,,,,,,,,,,,,,,,,,,,,,,,,,,,,,,,,,,,,,,,,,,,,,,,,,,,,,,,,,,,,,,,,,,,,,,,,,,,,,,,,,,,,,,,,,
,,2,1.3717,2,1.3717,0,71,71,65,1,46,garden,yogurt,,89624,001,2022-04-25_13h40.42.687,SPAMnetsValid,2021.1.4,Win32,59.78715772,,,,,,,,,,,,,,,,,,,,,,,,,,,,,,,,,,,,,,,,,,,,,,,,,,,,,,,,,,,,,,,,,,,,,,,,,,,,,,,,,,,,,,,,,
,,9,2.2151,9,2.2151,0,72,72,33,1,32,cake,microwave,,89624,001,2022-04-25_13h40.42.687,SPAMnetsValid,2021.1.4,Win32,59.78715772,,,,,,,,,,,,,,,,,,,,,,,,,,,,,,,,,,,,,,,,,,,,,,,,,,,,,,,,,,,,,,,,,,,,,,,,,,,,,,,,,,,,,,,,,
,,3,5.0871,3,5.0871,0,73,73,70,1,5,oven,tree,,89624,001,2022-04-25_13h40.42.687,SPAMnetsValid,2021.1.4,Win32,59.78715772,,,,,,,,,,,,,,,,,,,,,,,,,,,,,,,,,,,,,,,,,,,,,,,,,,,,,,,,,,,,,,,,,,,,,,,,,,,,,,,,,,,,,,,,,
,,2,1.0518,2,1.0518,0,74,74,60,1,89,chocolate,rose,,89624,001,2022-04-25_13h40.42.687,SPAMnetsValid,2021.1.4,Win32,59.78715772,,,,,,,,,,,,,,,,,,,,,,,,,,,,,,,,,,,,,,,,,,,,,,,,,,,,,,,,,,,,,,,,,,,,,,,,,,,,,,,,,,,,,,,,,
,,3,2.4447,3,2.4447,0,75,75,66,1,20,rose,tree,,89624,001,2022-04-25_13h40.42.687,SPAMnetsValid,2021.1.4,Win32,59.78715772,,,,,,,,,,,,,,,,,,,,,,,,,,,,,,,,,,,,,,,,,,,,,,,,,,,,,,,,,,,,,,,,,,,,,,,,,,,,,,,,,,,,,,,,,
,,1,1.0688,1,1.0688,0,76,76,86,1,51,onion,strawberry,,89624,001,2022-04-25_13h40.42.687,SPAMnetsValid,2021.1.4,Win32,59.78715772,,,,,,,,,,,,,,,,,,,,,,,,,,,,,,,,,,,,,,,,,,,,,,,,,,,,,,,,,,,,,,,,,,,,,,,,,,,,,,,,,,,,,,,,,
,,1,2.2179,1,2.2179,0,77,77,40,1,74,broom,pretzel,,89624,001,2022-04-25_13h40.42.687,SPAMnetsValid,2021.1.4,Win32,59.78715772,,,,,,,,,,,,,,,,,,,,,,,,,,,,,,,,,,,,,,,,,,,,,,,,,,,,,,,,,,,,,,,,,,,,,,,,,,,,,,,,,,,,,,,,,
,,2,1.032,2,1.032,0,78,78,67,1,54,chocolate,yogurt,,89624,001,2022-04-25_13h40.42.687,SPAMnetsValid,2021.1.4,Win32,59.78715772,,,,,,,,,,,,,,,,,,,,,,,,,,,,,,,,,,,,,,,,,,,,,,,,,,,,,,,,,,,,,,,,,,,,,,,,,,,,,,,,,,,,,,,,,
,,2,3.8197,2,3.8197,0,79,79,73,1,50,carrot,rose,,89624,001,2022-04-25_13h40.42.687,SPAMnetsValid,2021.1.4,Win32,59.78715772,,,,,,,,,,,,,,,,,,,,,,,,,,,,,,,,,,,,,,,,,,,,,,,,,,,,,,,,,,,,,,,,,,,,,,,,,,,,,,,,,,,,,,,,,
,,2,0.8224,2,0.8224,0,80,80,78,1,30,cookie,pretzel,,89624,001,2022-04-25_13h40.42.687,SPAMnetsValid,2021.1.4,Win32,59.78715772,,,,,,,,,,,,,,,,,,,,,,,,,,,,,,,,,,,,,,,,,,,,,,,,,,,,,,,,,,,,,,,,,,,,,,,,,,,,,,,,,,,,,,,,,
,,3,2.8503,3,2.8503,0,81,81,36,1,12,cookie,yogurt,,89624,001,2022-04-25_13h40.42.687,SPAMnetsValid,2021.1.4,Win32,59.78715772,,,,,,,,,,,,,,,,,,,,,,,,,,,,,,,,,,,,,,,,,,,,,,,,,,,,,,,,,,,,,,,,,,,,,,,,,,,,,,,,,,,,,,,,,
,,7,1.5391,7,1.5391,0,82,82,21,1,56,cactus,tree,,89624,001,2022-04-25_13h40.42.687,SPAMnetsValid,2021.1.4,Win32,59.78715772,,,,,,,,,,,,,,,,,,,,,,,,,,,,,,,,,,,,,,,,,,,,,,,,,,,,,,,,,,,,,,,,,,,,,,,,,,,,,,,,,,,,,,,,,
,,8,2.1867,8,2.1867,0,83,83,87,1,79,garden,strawberry,,89624,001,2022-04-25_13h40.42.687,SPAMnetsValid,2021.1.4,Win32,59.78715772,,,,,,,,,,,,,,,,,,,,,,,,,,,,,,,,,,,,,,,,,,,,,,,,,,,,,,,,,,,,,,,,,,,,,,,,,,,,,,,,,,,,,,,,,
,,3,3.9061,3,3.9061,0,84,84,4,1,83,broom,carrot,,89624,001,2022-04-25_13h40.42.687,SPAMnetsValid,2021.1.4,Win32,59.78715772,,,,,,,,,,,,,,,,,,,,,,,,,,,,,,,,,,,,,,,,,,,,,,,,,,,,,,,,,,,,,,,,,,,,,,,,,,,,,,,,,,,,,,,,,
,,3,5.4539,3,5.4539,0,85,85,79,1,86,oven,rose,,89624,001,2022-04-25_13h40.42.687,SPAMnetsValid,2021.1.4,Win32,59.78715772,,,,,,,,,,,,,,,,,,,,,,,,,,,,,,,,,,,,,,,,,,,,,,,,,,,,,,,,,,,,,,,,,,,,,,,,,,,,,,,,,,,,,,,,,
,,2,1.1676,2,1.1676,0,86,86,59,1,8,broom,melon,,89624,001,2022-04-25_13h40.42.687,SPAMnetsValid,2021.1.4,Win32,59.78715772,,,,,,,,,,,,,,,,,,,,,,,,,,,,,,,,,,,,,,,,,,,,,,,,,,,,,,,,,,,,,,,,,,,,,,,,,,,,,,,,,,,,,,,,,
,,2,0.9486,2,0.9486,0,87,87,6,1,87,carrot,yogurt,,89624,001,2022-04-25_13h40.42.687,SPAMnetsValid,2021.1.4,Win32,59.78715772,,,,,,,,,,,,,,,,,,,,,,,,,,,,,,,,,,,,,,,,,,,,,,,,,,,,,,,,,,,,,,,,,,,,,,,,,,,,,,,,,,,,,,,,,
,,2,1.3509,2,1.3509,0,88,88,48,1,66,melon,yogurt,,89624,001,2022-04-25_13h40.42.687,SPAMnetsValid,2021.1.4,Win32,59.78715772,,,,,,,,,,,,,,,,,,,,,,,,,,,,,,,,,,,,,,,,,,,,,,,,,,,,,,,,,,,,,,,,,,,,,,,,,,,,,,,,,,,,,,,,,
,,2,1.8,2,1.8,0,89,89,89,1,80,chocolate,tree,,89624,001,2022-04-25_13h40.42.687,SPAMnetsValid,2021.1.4,Win32,59.78715772,,,,,,,,,,,,,,,,,,,,,,,,,,,,,,,,,,,,,,,,,,,,,,,,,,,,,,,,,,,,,,,,,,,,,,,,,,,,,,,,,,,,,,,,,
,,1,1.0526,1,1.0526,0,90,90,55,1,1,rose,yogurt,,89624,001,2022-04-25_13h40.42.687,SPAMnetsValid,2021.1.4,Win32,59.78715772,,,,,,,,,,,,,,,,,,,,,,,,,,,,,,,,,,,,,,,,,,,,,,,,,,,,,,,,,,,,,,,,,,,,,,,,,,,,,,,,,,,,,,,,,
,,6,2.1531,6,2.1531,0,91,91,62,1,18,onion,refrigerator,,89624,001,2022-04-25_13h40.42.687,SPAMnetsValid,2021.1.4,Win32,59.78715772,,,,,,,,,,,,,,,,,,,,,,,,,,,,,,,,,,,,,,,,,,,,,,,,,,,,,,,,,,,,,,,,,,,,,,,,,,,,,,,,,,,,,,,,,
,,3,2.5359,3,2.5359,0,92,92,12,1,67,flower,yogurt,,89624,001,2022-04-25_13h40.42.687,SPAMnetsValid,2021.1.4,Win32,59.78715772,,,,,,,,,,,,,,,,,,,,,,,,,,,,,,,,,,,,,,,,,,,,,,,,,,,,,,,,,,,,,,,,,,,,,,,,,,,,,,,,,,,,,,,,,
,,3,1.9513,3,1.9513,0,93,93,13,1,26,tomato,yogurt,,89624,001,2022-04-25_13h40.42.687,SPAMnetsValid,2021.1.4,Win32,59.78715772,,,,,,,,,,,,,,,,,,,,,,,,,,,,,,,,,,,,,,,,,,,,,,,,,,,,,,,,,,,,,,,,,,,,,,,,,,,,,,,,,,,,,,,,,
,,2,5.0058,2,5.0058,0,94,94,20,1,39,melon,pretzel,,89624,001,2022-04-25_13h40.42.687,SPAMnetsValid,2021.1.4,Win32,59.78715772,,,,,,,,,,,,,,,,,,,,,,,,,,,,,,,,,,,,,,,,,,,,,,,,,,,,,,,,,,,,,,,,,,,,,,,,,,,,,,,,,,,,,,,,,
,,2,1.5598,2,1.5598,0,95,95,90,1,95,broom,refrigerator,,89624,001,2022-04-25_13h40.42.687,SPAMnetsValid,2021.1.4,Win32,59.78715772,,,,,,,,,,,,,,,,,,,,,,,,,,,,,,,,,,,,,,,,,,,,,,,,,,,,,,,,,,,,,,,,,,,,,,,,,,,,,,,,,,,,,,,,,
,,2,1.3699,2,1.3699,0,96,96,7,1,34,melon,oven,,89624,001,2022-04-25_13h40.42.687,SPAMnetsValid,2021.1.4,Win32,59.78715772,,,,,,,,,,,,,,,,,,,,,,,,,,,,,,,,,,,,,,,,,,,,,,,,,,,,,,,,,,,,,,,,,,,,,,,,,,,,,,,,,,,,,,,,,
,,,,,,,,,,,,,,,89624,001,2022-04-25_13h40.42.687,SPAMnetsValid,2021.1.4,Win32,59.78715772,0,0,0,0,1,,,,,,,,,,,,,,,,,,,,,,,,,,,,,,,,,,,,,,,,,,,,,,,,,,,,,,,,,,,,,,,,,,,,,,,,,,,,,,,,,,,,
,,,,,,,,,,,,,,,89624,001,2022-04-25_13h40.42.687,SPAMnetsValid,2021.1.4,Win32,59.78715772,,,,,,0,0,0,0,1,1,0,,,,,,,,,,,,,,,,,,,,,,,,,,,,,,,,,,,,,,,,,,,,,,,,,,,,,,,,,,,,,,,,,,,,,,,,,,,,,
,,,,8,5.9143,,,,,,168,cactus,flower,,89624,001,2022-04-25_13h40.42.687,SPAMnetsValid,2021.1.4,Win32,59.78715772,,,,,,,,,,,,,8,5.9143,0,0,0,51,1,,,,,,,,,,,,,,,,,,,,,,,,,,,,,,,,,,,,,,,,,,,,,,,,,,,,,,,,,,,,,,,,,,,,,,
,,,,4,2.0355,,,,,,155,carrot,cookie,,89624,001,2022-04-25_13h40.42.687,SPAMnetsValid,2021.1.4,Win32,59.78715772,,,,,,,,,,,,,4,2.0355,0,1,1,38,1,,,,,,,,,,,,,,,,,,,,,,,,,,,,,,,,,,,,,,,,,,,,,,,,,,,,,,,,,,,,,,,,,,,,,,
,,,,9,1.9679,,,,,,193,melon,melon,CHECK,89624,001,2022-04-25_13h40.42.687,SPAMnetsValid,2021.1.4,Win32,59.78715772,,,,,,,,,,,,,9,1.9679,0,2,2,86,1,,,,,,,,,,,,,,,,,,,,,,,,,,,,,,,,,,,,,,,,,,,,,,,,,,,,,,,,,,,,,,,,,,,,,,
,,,,9,1.7392,,,,,,194,cactus,cactus,CHECK,89624,001,2022-04-25_13h40.42.687,SPAMnetsValid,2021.1.4,Win32,59.78715772,,,,,,,,,,,,,9,1.7392,0,3,3,25,1,,,,,,,,,,,,,,,,,,,,,,,,,,,,,,,,,,,,,,,,,,,,,,,,,,,,,,,,,,,,,,,,,,,,,,
,,,,3,1.4529,,,,,,109,broom,strawberry,,89624,001,2022-04-25_13h40.42.687,SPAMnetsValid,2021.1.4,Win32,59.78715772,,,,,,,,,,,,,3,1.4529,0,4,4,4,1,,,,,,,,,,,,,,,,,,,,,,,,,,,,,,,,,,,,,,,,,,,,,,,,,,,,,,,,,,,,,,,,,,,,,,
,,,,2,4.1737,,,,,,190,microwave,strawberry,,89624,001,2022-04-25_13h40.42.687,SPAMnetsValid,2021.1.4,Win32,59.78715772,,,,,,,,,,,,,2,4.1737,0,5,5,90,1,,,,,,,,,,,,,,,,,,,,,,,,,,,,,,,,,,,,,,,,,,,,,,,,,,,,,,,,,,,,,,,,,,,,,,
,,,,7,1.2931,,,,,,115,refrigerator,tomato,,89624,001,2022-04-25_13h40.42.687,SPAMnetsValid,2021.1.4,Win32,59.78715772,,,,,,,,,,,,,7,1.2931,0,6,6,85,1,,,,,,,,,,,,,,,,,,,,,,,,,,,,,,,,,,,,,,,,,,,,,,,,,,,,,,,,,,,,,,,,,,,,,,
,,,,8,1.734,,,,,,99,garden,melon,,89624,001,2022-04-25_13h40.42.687,SPAMnetsValid,2021.1.4,Win32,59.78715772,,,,,,,,,,,,,8,1.734,0,7,7,17,1,,,,,,,,,,,,,,,,,,,,,,,,,,,,,,,,,,,,,,,,,,,,,,,,,,,,,,,,,,,,,,,,,,,,,,
,,,,3,2.2516,,,,,,166,cake,yogurt,,89624,001,2022-04-25_13h40.42.687,SPAMnetsValid,2021.1.4,Win32,59.78715772,,,,,,,,,,,,,3,2.2516,0,8,8,91,1,,,,,,,,,,,,,,,,,,,,,,,,,,,,,,,,,,,,,,,,,,,,,,,,,,,,,,,,,,,,,,,,,,,,,,
,,,,4,1.7687,,,,,,170,cookie,microwave,,89624,001,2022-04-25_13h40.42.687,SPAMnetsValid,2021.1.4,Win32,59.78715772,,,,,,,,,,,,,4,1.7687,0,9,9,92,1,,,,,,,,,,,,,,,,,,,,,,,,,,,,,,,,,,,,,,,,,,,,,,,,,,,,,,,,,,,,,,,,,,,,,,
,,,,3,1.2519,,,,,,143,pretzel,rose,,89624,001,2022-04-25_13h40.42.687,SPAMnetsValid,2021.1.4,Win32,59.78715772,,,,,,,,,,,,,3,1.2519,0,10,10,55,1,,,,,,,,,,,,,,,,,,,,,,,,,,,,,,,,,,,,,,,,,,,,,,,,,,,,,,,,,,,,,,,,,,,,,,
,,,,4,2.5696,,,,,,107,rose,tomato,,89624,001,2022-04-25_13h40.42.687,SPAMnetsValid,2021.1.4,Win32,59.78715772,,,,,,,,,,,,,4,2.5696,0,11,11,26,1,,,,,,,,,,,,,,,,,,,,,,,,,,,,,,,,,,,,,,,,,,,,,,,,,,,,,,,,,,,,,,,,,,,,,,
,,,,7,1.8432,,,,,,172,kitchen,melon,,89624,001,2022-04-25_13h40.42.687,SPAMnetsValid,2021.1.4,Win32,59.78715772,,,,,,,,,,,,,7,1.8432,0,12,12,77,1,,,,,,,,,,,,,,,,,,,,,,,,,,,,,,,,,,,,,,,,,,,,,,,,,,,,,,,,,,,,,,,,,,,,,,
,,,,4,2.2662,,,,,,125,carrot,tree,,89624,001,2022-04-25_13h40.42.687,SPAMnetsValid,2021.1.4,Win32,59.78715772,,,,,,,,,,,,,4,2.2662,0,13,13,30,1,,,,,,,,,,,,,,,,,,,,,,,,,,,,,,,,,,,,,,,,,,,,,,,,,,,,,,,,,,,,,,,,,,,,,,
,,,,5,6.6018,,,,,,140,cookie,refrigerator,,89624,001,2022-04-25_13h40.42.687,SPAMnetsValid,2021.1.4,Win32,59.78715772,,,,,,,,,,,,,5,6.6018,0,14,14,89,1,,,,,,,,,,,,,,,,,,,,,,,,,,,,,,,,,,,,,,,,,,,,,,,,,,,,,,,,,,,,,,,,,,,,,,
,,,,4,2.0895,,,,,,146,pretzel,tree,,89624,001,2022-04-25_13h40.42.687,SPAMnetsValid,2021.1.4,Win32,59.78715772,,,,,,,,,,,,,4,2.0895,0,15,15,80,1,,,,,,,,,,,,,,,,,,,,,,,,,,,,,,,,,,,,,,,,,,,,,,,,,,,,,,,,,,,,,,,,,,,,,,
,,,,6,1.8025,,,,,,148,flower,melon,,89624,001,2022-04-25_13h40.42.687,SPAMnetsValid,2021.1.4,Win32,59.78715772,,,,,,,,,,,,,6,1.8025,0,16,16,23,1,,,,,,,,,,,,,,,,,,,,,,,,,,,,,,,,,,,,,,,,,,,,,,,,,,,,,,,,,,,,,,,,,,,,,,
,,,,5,1.445,,,,,,163,melon,refrigerator,,89624,001,2022-04-25_13h40.42.687,SPAMnetsValid,2021.1.4,Win32,59.78715772,,,,,,,,,,,,,5,1.445,0,17,17,29,1,,,,,,,,,,,,,,,,,,,,,,,,,,,,,,,,,,,,,,,,,,,,,,,,,,,,,,,,,,,,,,,,,,,,,,
,,,,5,1.8319,,,,,,133,cake,flower,,89624,001,2022-04-25_13h40.42.687,SPAMnetsValid,2021.1.4,Win32,59.78715772,,,,,,,,,,,,,5,1.8319,0,18,18,94,1,,,,,,,,,,,,,,,,,,,,,,,,,,,,,,,,,,,,,,,,,,,,,,,,,,,,,,,,,,,,,,,,,,,,,,
,,,,6,2.3309,,,,,,175,melon,onion,,89624,001,2022-04-25_13h40.42.687,SPAMnetsValid,2021.1.4,Win32,59.78715772,,,,,,,,,,,,,6,2.3309,0,19,19,41,1,,,,,,,,,,,,,,,,,,,,,,,,,,,,,,,,,,,,,,,,,,,,,,,,,,,,,,,,,,,,,,,,,,,,,,
,,,,5,1.57,,,,,,127,cactus,chocolate,,89624,001,2022-04-25_13h40.42.687,SPAMnetsValid,2021.1.4,Win32,59.78715772,,,,,,,,,,,,,5,1.57,0,20,20,57,1,,,,,,,,,,,,,,,,,,,,,,,,,,,,,,,,,,,,,,,,,,,,,,,,,,,,,,,,,,,,,,,,,,,,,,
,,,,4,6.7518,,,,,,180,tree,yogurt,,89624,001,2022-04-25_13h40.42.687,SPAMnetsValid,2021.1.4,Win32,59.78715772,,,,,,,,,,,,,4,6.7518,0,21,21,68,1,,,,,,,,,,,,,,,,,,,,,,,,,,,,,,,,,,,,,,,,,,,,,,,,,,,,,,,,,,,,,,,,,,,,,,
,,,,3,1.3849,,,,,,184,oven,pretzel,,89624,001,2022-04-25_13h40.42.687,SPAMnetsValid,2021.1.4,Win32,59.78715772,,,,,,,,,,,,,3,1.3849,0,22,22,42,1,,,,,,,,,,,,,,,,,,,,,,,,,,,,,,,,,,,,,,,,,,,,,,,,,,,,,,,,,,,,,,,,,,,,,,
,,,,8,1.523,,,,,,167,carrot,garden,,89624,001,2022-04-25_13h40.42.687,SPAMnetsValid,2021.1.4,Win32,59.78715772,,,,,,,,,,,,,8,1.523,0,23,23,47,1,,,,,,,,,,,,,,,,,,,,,,,,,,,,,,,,,,,,,,,,,,,,,,,,,,,,,,,,,,,,,,,,,,,,,,
,,,,7,3.2834,,,,,,119,strawberry,tree,,89624,001,2022-04-25_13h40.42.687,SPAMnetsValid,2021.1.4,Win32,59.78715772,,,,,,,,,,,,,7,3.2834,0,24,24,18,1,,,,,,,,,,,,,,,,,,,,,,,,,,,,,,,,,,,,,,,,,,,,,,,,,,,,,,,,,,,,,,,,,,,,,,
,,,,4,1.7021,,,,,,174,cake,pretzel,,89624,001,2022-04-25_13h40.42.687,SPAMnetsValid,2021.1.4,Win32,59.78715772,,,,,,,,,,,,,4,1.7021,0,25,25,2,1,,,,,,,,,,,,,,,,,,,,,,,,,,,,,,,,,,,,,,,,,,,,,,,,,,,,,,,,,,,,,,,,,,,,,,
,,,,3,1.6246,,,,,,108,carrot,chocolate,,89624,001,2022-04-25_13h40.42.687,SPAMnetsValid,2021.1.4,Win32,59.78715772,,,,,,,,,,,,,3,1.6246,0,26,26,5,1,,,,,,,,,,,,,,,,,,,,,,,,,,,,,,,,,,,,,,,,,,,,,,,,,,,,,,,,,,,,,,,,,,,,,,
,,,,5,2.1244,,,,,,97,chocolate,kitchen,,89624,001,2022-04-25_13h40.42.687,SPAMnetsValid,2021.1.4,Win32,59.78715772,,,,,,,,,,,,,5,2.1244,0,27,27,8,1,,,,,,,,,,,,,,,,,,,,,,,,,,,,,,,,,,,,,,,,,,,,,,,,,,,,,,,,,,,,,,,,,,,,,,
,,,,5,1.0049,,,,,,152,cactus,strawberry,,89624,001,2022-04-25_13h40.42.687,SPAMnetsValid,2021.1.4,Win32,59.78715772,,,,,,,,,,,,,5,1.0049,0,28,28,49,1,,,,,,,,,,,,,,,,,,,,,,,,,,,,,,,,,,,,,,,,,,,,,,,,,,,,,,,,,,,,,,,,,,,,,,
,,,,5,1.4382,,,,,,139,carrot,strawberry,,89624,001,2022-04-25_13h40.42.687,SPAMnetsValid,2021.1.4,Win32,59.78715772,,,,,,,,,,,,,5,1.4382,0,29,29,37,1,,,,,,,,,,,,,,,,,,,,,,,,,,,,,,,,,,,,,,,,,,,,,,,,,,,,,,,,,,,,,,,,,,,,,,
,,,,6,2.2411,,,,,,141,melon,tomato,,89624,001,2022-04-25_13h40.42.687,SPAMnetsValid,2021.1.4,Win32,59.78715772,,,,,,,,,,,,,6,2.2411,0,30,30,70,1,,,,,,,,,,,,,,,,,,,,,,,,,,,,,,,,,,,,,,,,,,,,,,,,,,,,,,,,,,,,,,,,,,,,,,
,,,,6,2.4155,,,,,,112,cake,carrot,,89624,001,2022-04-25_13h40.42.687,SPAMnetsValid,2021.1.4,Win32,59.78715772,,,,,,,,,,,,,6,2.4155,0,31,31,39,1,,,,,,,,,,,,,,,,,,,,,,,,,,,,,,,,,,,,,,,,,,,,,,,,,,,,,,,,,,,,,,,,,,,,,,
,,,,4,2.001,,,,,,144,cake,garden,,89624,001,2022-04-25_13h40.42.687,SPAMnetsValid,2021.1.4,Win32,59.78715772,,,,,,,,,,,,,4,2.001,0,32,32,58,1,,,,,,,,,,,,,,,,,,,,,,,,,,,,,,,,,,,,,,,,,,,,,,,,,,,,,,,,,,,,,,,,,,,,,,
,,,,7,2.3586,,,,,,188,flower,tree,,89624,001,2022-04-25_13h40.42.687,SPAMnetsValid,2021.1.4,Win32,59.78715772,,,,,,,,,,,,,7,2.3586,0,33,33,7,1,,,,,,,,,,,,,,,,,,,,,,,,,,,,,,,,,,,,,,,,,,,,,,,,,,,,,,,,,,,,,,,,,,,,,,
,,,,8,2.2126,,,,,,124,oven,refrigerator,,89624,001,2022-04-25_13h40.42.687,SPAMnetsValid,2021.1.4,Win32,59.78715772,,,,,,,,,,,,,8,2.2126,0,34,34,69,1,,,,,,,,,,,,,,,,,,,,,,,,,,,,,,,,,,,,,,,,,,,,,,,,,,,,,,,,,,,,,,,,,,,,,,
,,,,7,1.3885,,,,,,186,kitchen,yogurt,,89624,001,2022-04-25_13h40.42.687,SPAMnetsValid,2021.1.4,Win32,59.78715772,,,,,,,,,,,,,7,1.3885,0,35,35,48,1,,,,,,,,,,,,,,,,,,,,,,,,,,,,,,,,,,,,,,,,,,,,,,,,,,,,,,,,,,,,,,,,,,,,,,
,,,,4,2.517,,,,,,171,cake,tomato,,89624,001,2022-04-25_13h40.42.687,SPAMnetsValid,2021.1.4,Win32,59.78715772,,,,,,,,,,,,,4,2.517,0,36,36,88,1,,,,,,,,,,,,,,,,,,,,,,,,,,,,,,,,,,,,,,,,,,,,,,,,,,,,,,,,,,,,,,,,,,,,,,
,,,,3,1.2459,,,,,,178,cactus,carrot,,89624,001,2022-04-25_13h40.42.687,SPAMnetsValid,2021.1.4,Win32,59.78715772,,,,,,,,,,,,,3,1.2459,0,37,37,75,1,,,,,,,,,,,,,,,,,,,,,,,,,,,,,,,,,,,,,,,,,,,,,,,,,,,,,,,,,,,,,,,,,,,,,,
,,,,3,1.735,,,,,,151,microwave,onion,,89624,001,2022-04-25_13h40.42.687,SPAMnetsValid,2021.1.4,Win32,59.78715772,,,,,,,,,,,,,3,1.735,0,38,38,6,1,,,,,,,,,,,,,,,,,,,,,,,,,,,,,,,,,,,,,,,,,,,,,,,,,,,,,,,,,,,,,,,,,,,,,,
,,,,8,1.9844,,,,,,100,garden,tomato,,89624,001,2022-04-25_13h40.42.687,SPAMnetsValid,2021.1.4,Win32,59.78715772,,,,,,,,,,,,,8,1.9844,0,39,39,83,1,,,,,,,,,,,,,,,,,,,,,,,,,,,,,,,,,,,,,,,,,,,,,,,,,,,,,,,,,,,,,,,,,,,,,,
,,,,2,1.5187,,,,,,104,garden,microwave,,89624,001,2022-04-25_13h40.42.687,SPAMnetsValid,2021.1.4,Win32,59.78715772,,,,,,,,,,,,,2,1.5187,0,40,40,81,1,,,,,,,,,,,,,,,,,,,,,,,,,,,,,,,,,,,,,,,,,,,,,,,,,,,,,,,,,,,,,,,,,,,,,,
,,,,9,2.2183,,,,,,122,flower,garden,,89624,001,2022-04-25_13h40.42.687,SPAMnetsValid,2021.1.4,Win32,59.78715772,,,,,,,,,,,,,9,2.2183,0,41,41,60,1,,,,,,,,,,,,,,,,,,,,,,,,,,,,,,,,,,,,,,,,,,,,,,,,,,,,,,,,,,,,,,,,,,,,,,
,,,,6,1.9098,,,,,,189,onion,tree,,89624,001,2022-04-25_13h40.42.687,SPAMnetsValid,2021.1.4,Win32,59.78715772,,,,,,,,,,,,,6,1.9098,0,42,42,62,1,,,,,,,,,,,,,,,,,,,,,,,,,,,,,,,,,,,,,,,,,,,,,,,,,,,,,,,,,,,,,,,,,,,,,,
,,,,7,1.2499,,,,,,147,cake,refrigerator,,89624,001,2022-04-25_13h40.42.687,SPAMnetsValid,2021.1.4,Win32,59.78715772,,,,,,,,,,,,,7,1.2499,0,43,43,35,1,,,,,,,,,,,,,,,,,,,,,,,,,,,,,,,,,,,,,,,,,,,,,,,,,,,,,,,,,,,,,,,,,,,,,,
,,,,7,0.8524,,,,,,106,cake,strawberry,,89624,001,2022-04-25_13h40.42.687,SPAMnetsValid,2021.1.4,Win32,59.78715772,,,,,,,,,,,,,7,0.8524,0,44,44,0,1,,,,,,,,,,,,,,,,,,,,,,,,,,,,,,,,,,,,,,,,,,,,,,,,,,,,,,,,,,,,,,,,,,,,,,
,,,,2,1.4015,,,,,,179,broom,oven,,89624,001,2022-04-25_13h40.42.687,SPAMnetsValid,2021.1.4,Win32,59.78715772,,,,,,,,,,,,,2,1.4015,0,45,45,45,1,,,,,,,,,,,,,,,,,,,,,,,,,,,,,,,,,,,,,,,,,,,,,,,,,,,,,,,,,,,,,,,,,,,,,,
,,,,3,4.7506,,,,,,157,refrigerator,rose,,89624,001,2022-04-25_13h40.42.687,SPAMnetsValid,2021.1.4,Win32,59.78715772,,,,,,,,,,,,,3,4.7506,0,46,46,64,1,,,,,,,,,,,,,,,,,,,,,,,,,,,,,,,,,,,,,,,,,,,,,,,,,,,,,,,,,,,,,,,,,,,,,,
,,,,3,1.8356,,,,,,159,cookie,flower,,89624,001,2022-04-25_13h40.42.687,SPAMnetsValid,2021.1.4,Win32,59.78715772,,,,,,,,,,,,,3,1.8356,0,47,47,21,1,,,,,,,,,,,,,,,,,,,,,,,,,,,,,,,,,,,,,,,,,,,,,,,,,,,,,,,,,,,,,,,,,,,,,,
,,,,6,1.748,,,,,,181,carrot,kitchen,,89624,001,2022-04-25_13h40.42.687,SPAMnetsValid,2021.1.4,Win32,59.78715772,,,,,,,,,,,,,6,1.748,0,48,48,72,1,,,,,,,,,,,,,,,,,,,,,,,,,,,,,,,,,,,,,,,,,,,,,,,,,,,,,,,,,,,,,,,,,,,,,,
,,,,4,1.9452,,,,,,134,carrot,flower,,89624,001,2022-04-25_13h40.42.687,SPAMnetsValid,2021.1.4,Win32,59.78715772,,,,,,,,,,,,,4,1.9452,0,49,49,93,1,,,,,,,,,,,,,,,,,,,,,,,,,,,,,,,,,,,,,,,,,,,,,,,,,,,,,,,,,,,,,,,,,,,,,,
,,,,3,3.5054,,,,,,187,cactus,microwave,,89624,001,2022-04-25_13h40.42.687,SPAMnetsValid,2021.1.4,Win32,59.78715772,,,,,,,,,,,,,3,3.5054,0,50,50,71,1,,,,,,,,,,,,,,,,,,,,,,,,,,,,,,,,,,,,,,,,,,,,,,,,,,,,,,,,,,,,,,,,,,,,,,
,,,,3,11.6039,,,,,,114,cookie,strawberry,,89624,001,2022-04-25_13h40.42.687,SPAMnetsValid,2021.1.4,Win32,59.78715772,,,,,,,,,,,,,3,11.6039,0,51,51,87,1,,,,,,,,,,,,,,,,,,,,,,,,,,,,,,,,,,,,,,,,,,,,,,,,,,,,,,,,,,,,,,,,,,,,,,
,,,,3,1.4277,,,,,,164,cookie,garden,,89624,001,2022-04-25_13h40.42.687,SPAMnetsValid,2021.1.4,Win32,59.78715772,,,,,,,,,,,,,3,1.4277,0,52,52,59,1,,,,,,,,,,,,,,,,,,,,,,,,,,,,,,,,,,,,,,,,,,,,,,,,,,,,,,,,,,,,,,,,,,,,,,
,,,,4,1.9486,,,,,,111,carrot,microwave,,89624,001,2022-04-25_13h40.42.687,SPAMnetsValid,2021.1.4,Win32,59.78715772,,,,,,,,,,,,,4,1.9486,0,53,53,16,1,,,,,,,,,,,,,,,,,,,,,,,,,,,,,,,,,,,,,,,,,,,,,,,,,,,,,,,,,,,,,,,,,,,,,,
,,,,6,1.5716,,,,,,182,flower,refrigerator,,89624,001,2022-04-25_13h40.42.687,SPAMnetsValid,2021.1.4,Win32,59.78715772,,,,,,,,,,,,,6,1.5716,0,54,54,32,1,,,,,,,,,,,,,,,,,,,,,,,,,,,,,,,,,,,,,,,,,,,,,,,,,,,,,,,,,,,,,,,,,,,,,,
,,,,7,1.2746,,,,,,110,chocolate,cookie,,89624,001,2022-04-25_13h40.42.687,SPAMnetsValid,2021.1.4,Win32,59.78715772,,,,,,,,,,,,,7,1.2746,0,55,55,52,1,,,,,,,,,,,,,,,,,,,,,,,,,,,,,,,,,,,,,,,,,,,,,,,,,,,,,,,,,,,,,,,,,,,,,,
,,,,7,1.5356,,,,,,117,melon,strawberry,,89624,001,2022-04-25_13h40.42.687,SPAMnetsValid,2021.1.4,Win32,59.78715772,,,,,,,,,,,,,7,1.5356,0,56,56,11,1,,,,,,,,,,,,,,,,,,,,,,,,,,,,,,,,,,,,,,,,,,,,,,,,,,,,,,,,,,,,,,,,,,,,,,
,,,,4,1.0679,,,,,,130,microwave,yogurt,,89624,001,2022-04-25_13h40.42.687,SPAMnetsValid,2021.1.4,Win32,59.78715772,,,,,,,,,,,,,4,1.0679,0,57,57,84,1,,,,,,,,,,,,,,,,,,,,,,,,,,,,,,,,,,,,,,,,,,,,,,,,,,,,,,,,,,,,,,,,,,,,,,
,,,,6,1.3346,,,,,,154,strawberry,yogurt,,89624,001,2022-04-25_13h40.42.687,SPAMnetsValid,2021.1.4,Win32,59.78715772,,,,,,,,,,,,,6,1.3346,0,58,58,28,1,,,,,,,,,,,,,,,,,,,,,,,,,,,,,,,,,,,,,,,,,,,,,,,,,,,,,,,,,,,,,,,,,,,,,,
,,,,4,1.2582,,,,,,101,cactus,kitchen,,89624,001,2022-04-25_13h40.42.687,SPAMnetsValid,2021.1.4,Win32,59.78715772,,,,,,,,,,,,,4,1.2582,0,59,59,54,1,,,,,,,,,,,,,,,,,,,,,,,,,,,,,,,,,,,,,,,,,,,,,,,,,,,,,,,,,,,,,,,,,,,,,,
,,,,8,9.2701,,,,,,150,microwave,refrigerator,,89624,001,2022-04-25_13h40.42.687,SPAMnetsValid,2021.1.4,Win32,59.78715772,,,,,,,,,,,,,8,9.2701,0,60,60,66,1,,,,,,,,,,,,,,,,,,,,,,,,,,,,,,,,,,,,,,,,,,,,,,,,,,,,,,,,,,,,,,,,,,,,,,
,,,,6,1.591,,,,,,113,refrigerator,strawberry,,89624,001,2022-04-25_13h40.42.687,SPAMnetsValid,2021.1.4,Win32,59.78715772,,,,,,,,,,,,,6,1.591,0,61,61,56,1,,,,,,,,,,,,,,,,,,,,,,,,,,,,,,,,,,,,,,,,,,,,,,,,,,,,,,,,,,,,,,,,,,,,,,
,,,,4,3.8144,,,,,,96,oven,strawberry,,89624,001,2022-04-25_13h40.42.687,SPAMnetsValid,2021.1.4,Win32,59.78715772,,,,,,,,,,,,,4,3.8144,0,62,62,67,1,,,,,,,,,,,,,,,,,,,,,,,,,,,,,,,,,,,,,,,,,,,,,,,,,,,,,,,,,,,,,,,,,,,,,,
,,,,4,1.2509,,,,,,156,melon,rose,,89624,001,2022-04-25_13h40.42.687,SPAMnetsValid,2021.1.4,Win32,59.78715772,,,,,,,,,,,,,4,1.2509,0,63,63,31,1,,,,,,,,,,,,,,,,,,,,,,,,,,,,,,,,,,,,,,,,,,,,,,,,,,,,,,,,,,,,,,,,,,,,,,
,,,,2,1.5361,,,,,,121,broom,microwave,,89624,001,2022-04-25_13h40.42.687,SPAMnetsValid,2021.1.4,Win32,59.78715772,,,,,,,,,,,,,2,1.5361,0,64,64,95,1,,,,,,,,,,,,,,,,,,,,,,,,,,,,,,,,,,,,,,,,,,,,,,,,,,,,,,,,,,,,,,,,,,,,,,
,,,,4,9.7741,,,,,,145,cactus,yogurt,,89624,001,2022-04-25_13h40.42.687,SPAMnetsValid,2021.1.4,Win32,59.78715772,,,,,,,,,,,,,4,9.7741,0,65,65,15,1,,,,,,,,,,,,,,,,,,,,,,,,,,,,,,,,,,,,,,,,,,,,,,,,,,,,,,,,,,,,,,,,,,,,,,
,,,,9,2.87,,,,,,138,flower,rose,,89624,001,2022-04-25_13h40.42.687,SPAMnetsValid,2021.1.4,Win32,59.78715772,,,,,,,,,,,,,9,2.87,0,66,66,61,1,,,,,,,,,,,,,,,,,,,,,,,,,,,,,,,,,,,,,,,,,,,,,,,,,,,,,,,,,,,,,,,,,,,,,,
,,,,4,2.5687,,,,,,169,onion,yogurt,,89624,001,2022-04-25_13h40.42.687,SPAMnetsValid,2021.1.4,Win32,59.78715772,,,,,,,,,,,,,4,2.5687,0,67,67,24,1,,,,,,,,,,,,,,,,,,,,,,,,,,,,,,,,,,,,,,,,,,,,,,,,,,,,,,,,,,,,,,,,,,,,,,
,,,,3,3.5019,,,,,,137,microwave,tree,,89624,001,2022-04-25_13h40.42.687,SPAMnetsValid,2021.1.4,Win32,59.78715772,,,,,,,,,,,,,3,3.5019,0,68,68,63,1,,,,,,,,,,,,,,,,,,,,,,,,,,,,,,,,,,,,,,,,,,,,,,,,,,,,,,,,,,,,,,,,,,,,,,
,,,,8,1.5453,,,,,,120,microwave,oven,,89624,001,2022-04-25_13h40.42.687,SPAMnetsValid,2021.1.4,Win32,59.78715772,,,,,,,,,,,,,8,1.5453,0,69,69,14,1,,,,,,,,,,,,,,,,,,,,,,,,,,,,,,,,,,,,,,,,,,,,,,,,,,,,,,,,,,,,,,,,,,,,,,
,,,,4,1.2743,,,,,,118,chocolate,oven,,89624,001,2022-04-25_13h40.42.687,SPAMnetsValid,2021.1.4,Win32,59.78715772,,,,,,,,,,,,,4,1.2743,0,70,70,10,1,,,,,,,,,,,,,,,,,,,,,,,,,,,,,,,,,,,,,,,,,,,,,,,,,,,,,,,,,,,,,,,,,,,,,,
,,,,3,1.735,,,,,,183,cake,rose,,89624,001,2022-04-25_13h40.42.687,SPAMnetsValid,2021.1.4,Win32,59.78715772,,,,,,,,,,,,,3,1.735,0,71,71,19,1,,,,,,,,,,,,,,,,,,,,,,,,,,,,,,,,,,,,,,,,,,,,,,,,,,,,,,,,,,,,,,,,,,,,,,
,,,,4,1.8355,,,,,,153,carrot,pretzel,,89624,001,2022-04-25_13h40.42.687,SPAMnetsValid,2021.1.4,Win32,59.78715772,,,,,,,,,,,,,4,1.8355,0,72,72,34,1,,,,,,,,,,,,,,,,,,,,,,,,,,,,,,,,,,,,,,,,,,,,,,,,,,,,,,,,,,,,,,,,,,,,,,
,,,,3,2.1493,,,,,,160,cookie,kitchen,,89624,001,2022-04-25_13h40.42.687,SPAMnetsValid,2021.1.4,Win32,59.78715772,,,,,,,,,,,,,3,2.1493,0,73,73,65,1,,,,,,,,,,,,,,,,,,,,,,,,,,,,,,,,,,,,,,,,,,,,,,,,,,,,,,,,,,,,,,,,,,,,,,
,,,,4,2.0202,,,,,,102,chocolate,refrigerator,,89624,001,2022-04-25_13h40.42.687,SPAMnetsValid,2021.1.4,Win32,59.78715772,,,,,,,,,,,,,4,2.0202,0,74,74,76,1,,,,,,,,,,,,,,,,,,,,,,,,,,,,,,,,,,,,,,,,,,,,,,,,,,,,,,,,,,,,,,,,,,,,,,
,,,,6,2.0368,,,,,,176,cactus,tomato,,89624,001,2022-04-25_13h40.42.687,SPAMnetsValid,2021.1.4,Win32,59.78715772,,,,,,,,,,,,,6,2.0368,0,75,75,9,1,,,,,,,,,,,,,,,,,,,,,,,,,,,,,,,,,,,,,,,,,,,,,,,,,,,,,,,,,,,,,,,,,,,,,,
,,,,6,0.9627,,,,,,131,cactus,garden,,89624,001,2022-04-25_13h40.42.687,SPAMnetsValid,2021.1.4,Win32,59.78715772,,,,,,,,,,,,,6,0.9627,0,76,76,33,1,,,,,,,,,,,,,,,,,,,,,,,,,,,,,,,,,,,,,,,,,,,,,,,,,,,,,,,,,,,,,,,,,,,,,,
,,,,8,1.3602,,,,,,116,cake,chocolate,,89624,001,2022-04-25_13h40.42.687,SPAMnetsValid,2021.1.4,Win32,59.78715772,,,,,,,,,,,,,8,1.3602,0,77,77,44,1,,,,,,,,,,,,,,,,,,,,,,,,,,,,,,,,,,,,,,,,,,,,,,,,,,,,,,,,,,,,,,,,,,,,,,
,,,,8,1.1324,,,,,,177,chocolate,strawberry,,89624,001,2022-04-25_13h40.42.687,SPAMnetsValid,2021.1.4,Win32,59.78715772,,,,,,,,,,,,,8,1.1324,0,78,78,53,1,,,,,,,,,,,,,,,,,,,,,,,,,,,,,,,,,,,,,,,,,,,,,,,,,,,,,,,,,,,,,,,,,,,,,,
,,,,4,4.5242,,,,,,165,onion,rose,,89624,001,2022-04-25_13h40.42.687,SPAMnetsValid,2021.1.4,Win32,59.78715772,,,,,,,,,,,,,4,4.5242,0,79,79,40,1,,,,,,,,,,,,,,,,,,,,,,,,,,,,,,,,,,,,,,,,,,,,,,,,,,,,,,,,,,,,,,,,,,,,,,
,,,,3,1.4968,,,,,,161,kitchen,pretzel,,89624,001,2022-04-25_13h40.42.687,SPAMnetsValid,2021.1.4,Win32,59.78715772,,,,,,,,,,,,,3,1.4968,0,80,80,36,1,,,,,,,,,,,,,,,,,,,,,,,,,,,,,,,,,,,,,,,,,,,,,,,,,,,,,,,,,,,,,,,,,,,,,,
,,,,2,1.2266,,,,,,128,melon,microwave,,89624,001,2022-04-25_13h40.42.687,SPAMnetsValid,2021.1.4,Win32,59.78715772,,,,,,,,,,,,,2,1.2266,0,81,81,74,1,,,,,,,,,,,,,,,,,,,,,,,,,,,,,,,,,,,,,,,,,,,,,,,,,,,,,,,,,,,,,,,,,,,,,,
,,,,4,1.5834,,,,,,136,chocolate,microwave,,89624,001,2022-04-25_13h40.42.687,SPAMnetsValid,2021.1.4,Win32,59.78715772,,,,,,,,,,,,,4,1.5834,0,82,82,96,1,,,,,,,,,,,,,,,,,,,,,,,,,,,,,,,,,,,,,,,,,,,,,,,,,,,,,,,,,,,,,,,,,,,,,,
,,,,7,1.4346,,,,,,129,cactus,refrigerator,,89624,001,2022-04-25_13h40.42.687,SPAMnetsValid,2021.1.4,Win32,59.78715772,,,,,,,,,,,,,7,1.4346,0,83,83,3,1,,,,,,,,,,,,,,,,,,,,,,,,,,,,,,,,,,,,,,,,,,,,,,,,,,,,,,,,,,,,,,,,,,,,,,
,,,,6,7.6341,,,,,,173,kitchen,tomato,,89624,001,2022-04-25_13h40.42.687,SPAMnetsValid,2021.1.4,Win32,59.78715772,,,,,,,,,,,,,6,7.6341,0,84,84,1,1,,,,,,,,,,,,,,,,,,,,,,,,,,,,,,,,,,,,,,,,,,,,,,,,,,,,,,,,,,,,,,,,,,,,,,
,,,,4,1.3185,,,,,,123,cookie,tree,,89624,001,2022-04-25_13h40.42.687,SPAMnetsValid,2021.1.4,Win32,59.78715772,,,,,,,,,,,,,4,1.3185,0,85,85,46,1,,,,,,,,,,,,,,,,,,,,,,,,,,,,,,,,,,,,,,,,,,,,,,,,,,,,,,,,,,,,,,,,,,,,,,
,,,,3,1.5686,,,,,,162,microwave,tomato,,89624,001,2022-04-25_13h40.42.687,SPAMnetsValid,2021.1.4,Win32,59.78715772,,,,,,,,,,,,,3,1.5686,0,86,86,12,1,,,,,,,,,,,,,,,,,,,,,,,,,,,,,,,,,,,,,,,,,,,,,,,,,,,,,,,,,,,,,,,,,,,,,,
,,,,3,1.962,,,,,,149,broom,tomato,,89624,001,2022-04-25_13h40.42.687,SPAMnetsValid,2021.1.4,Win32,59.78715772,,,,,,,,,,,,,3,1.962,0,87,87,20,1,,,,,,,,,,,,,,,,,,,,,,,,,,,,,,,,,,,,,,,,,,,,,,,,,,,,,,,,,,,,,,,,,,,,,,
,,,,3,3.7702,,,,,,158,cookie,oven,,89624,001,2022-04-25_13h40.42.687,SPAMnetsValid,2021.1.4,Win32,59.78715772,,,,,,,,,,,,,3,3.7702,0,88,88,27,1,,,,,,,,,,,,,,,,,,,,,,,,,,,,,,,,,,,,,,,,,,,,,,,,,,,,,,,,,,,,,,,,,,,,,,
,,,,3,11.2879,,,,,,126,kitchen,tree,,89624,001,2022-04-25_13h40.42.687,SPAMnetsValid,2021.1.4,Win32,59.78715772,,,,,,,,,,,,,3,11.2879,0,89,89,50,1,,,,,,,,,,,,,,,,,,,,,,,,,,,,,,,,,,,,,,,,,,,,,,,,,,,,,,,,,,,,,,,,,,,,,,
,,,,2,1.2836,,,,,,132,broom,tree,,89624,001,2022-04-25_13h40.42.687,SPAMnetsValid,2021.1.4,Win32,59.78715772,,,,,,,,,,,,,2,1.2836,0,90,90,78,1,,,,,,,,,,,,,,,,,,,,,,,,,,,,,,,,,,,,,,,,,,,,,,,,,,,,,,,,,,,,,,,,,,,,,,
,,,,7,1.5179,,,,,,142,garden,tree,,89624,001,2022-04-25_13h40.42.687,SPAMnetsValid,2021.1.4,Win32,59.78715772,,,,,,,,,,,,,7,1.5179,0,91,91,22,1,,,,,,,,,,,,,,,,,,,,,,,,,,,,,,,,,,,,,,,,,,,,,,,,,,,,,,,,,,,,,,,,,,,,,,
,,,,4,1.4603,,,,,,103,pretzel,tomato,,89624,001,2022-04-25_13h40.42.687,SPAMnetsValid,2021.1.4,Win32,59.78715772,,,,,,,,,,,,,4,1.4603,0,92,92,79,1,,,,,,,,,,,,,,,,,,,,,,,,,,,,,,,,,,,,,,,,,,,,,,,,,,,,,,,,,,,,,,,,,,,,,,
,,,,4,3.003,,,,,,135,carrot,oven,,89624,001,2022-04-25_13h40.42.687,SPAMnetsValid,2021.1.4,Win32,59.78715772,,,,,,,,,,,,,4,3.003,0,93,93,73,1,,,,,,,,,,,,,,,,,,,,,,,,,,,,,,,,,,,,,,,,,,,,,,,,,,,,,,,,,,,,,,,,,,,,,,
,,,,3,1.4657,,,,,,105,cactus,oven,,89624,001,2022-04-25_13h40.42.687,SPAMnetsValid,2021.1.4,Win32,59.78715772,,,,,,,,,,,,,3,1.4657,0,94,94,13,1,,,,,,,,,,,,,,,,,,,,,,,,,,,,,,,,,,,,,,,,,,,,,,,,,,,,,,,,,,,,,,,,,,,,,,
,,,,6,2.1824,,,,,,185,cactus,rose,,89624,001,2022-04-25_13h40.42.687,SPAMnetsValid,2021.1.4,Win32,59.78715772,,,,,,,,,,,,,6,2.1824,0,95,95,43,1,,,,,,,,,,,,,,,,,,,,,,,,,,,,,,,,,,,,,,,,,,,,,,,,,,,,,,,,,,,,,,,,,,,,,,
,,,,5,1.8197,,,,,,98,pretzel,strawberry,,89624,001,2022-04-25_13h40.42.687,SPAMnetsValid,2021.1.4,Win32,59.78715772,,,,,,,,,,,,,5,1.8197,0,96,96,82,1,,,,,,,,,,,,,,,,,,,,,,,,,,,,,,,,,,,,,,,,,,,,,,,,,,,,,,,,,,,,,,,,,,,,,,
,,,,,,,,,,,,,,,89624,001,2022-04-25_13h40.42.687,SPAMnetsValid,2021.1.4,Win32,59.78715772,,,,,,,,,,,,,,,,,,,,0,0,0,0,1,,,,,,,,,,,,,,,,,,,,,,,,,,,,,,,,,,,,,,,,,,,,,,,,,,,,,,,,,,,,,,,,,
,,,,,,,,,,,,,,,89624,001,2022-04-25_13h40.42.687,SPAMnetsValid,2021.1.4,Win32,59.78715772,,,,,,0,1,1,1,1,0,1,,,,,,,,,,,,,,,,,,,,,,,,,,,,,,,,,,,,,,,,,,,,,,,,,,,,,,,,,,,,,,,,,,,,,,,,,,,,,
,,,,,,,,,,,,,,,89624,001,2022-04-25_13h40.42.687,SPAMnetsValid,2021.1.4,Win32,59.78715772,,,,,,,,,,,,,,,,,,,,,,,,,3,3.8943,0,0,0,0,1,rancor,forbearance,ridicule,malice,bravery,3,,,,,,,,,,,,,,,,,,,,,,,,,,,,,,,,,,,,,,,,,,,,,,,,,,,,
,,,,,,,,,,,,,,,89624,001,2022-04-25_13h40.42.687,SPAMnetsValid,2021.1.4,Win32,59.78715772,,,,,,,,,,,,,,,,,,,,,,,,,4,4.1673,0,1,1,1,1,raucous,empty,quiet,smooth,harsh,4,,,,,,,,,,,,,,,,,,,,,,,,,,,,,,,,,,,,,,,,,,,,,,,,,,,,
,,,,,,,,,,,,,,,89624,001,2022-04-25_13h40.42.687,SPAMnetsValid,2021.1.4,Win32,59.78715772,,,,,,,,,,,,,,,,,,,,,,,,,2,5.8385,0,2,2,2,1,gargoyle,oil,medicine,carved waterspout,ugly building,3,,,,,,,,,,,,,,,,,,,,,,,,,,,,,,,,,,,,,,,,,,,,,,,,,,,,
,,,,,,,,,,,,,,,89624,001,2022-04-25_13h40.42.687,SPAMnetsValid,2021.1.4,Win32,59.78715772,,,,,,,,,,,,,,,,,,,,,,,,,2,8.5068,0,3,3,3,1,recrudesce,purify,renew activity,lack refinement,crush,2,,,,,,,,,,,,,,,,,,,,,,,,,,,,,,,,,,,,,,,,,,,,,,,,,,,,
,,,,,,,,,,,,,,,89624,001,2022-04-25_13h40.42.687,SPAMnetsValid,2021.1.4,Win32,59.78715772,,,,,,,,,,,,,,,,,,,,,,,,,3,5.6051,0,4,4,4,1,specious,"plausible, but not genuine",noteworthy,class or variety,roomy,1,,,,,,,,,,,,,,,,,,,,,,,,,,,,,,,,,,,,,,,,,,,,,,,,,,,,
,,,,,,,,,,,,,,,89624,001,2022-04-25_13h40.42.687,SPAMnetsValid,2021.1.4,Win32,59.78715772,,,,,,,,,,,,,,,,,,,,,,,,,3,3.6216,0,5,5,5,1,bauble,bubble,showy plaything,idle talk,confusion,2,,,,,,,,,,,,,,,,,,,,,,,,,,,,,,,,,,,,,,,,,,,,,,,,,,,,
,,,,,,,,,,,,,,,89624,001,2022-04-25_13h40.42.687,SPAMnetsValid,2021.1.4,Win32,59.78715772,,,,,,,,,,,,,,,,,,,,,,,,,4,8.924,0,6,6,6,1,prolific,scarce,producing abundantly,reckless,speaking profanely,2,,,,,,,,,,,,,,,,,,,,,,,,,,,,,,,,,,,,,,,,,,,,,,,,,,,,
,,,,,,,,,,,,,,,89624,001,2022-04-25_13h40.42.687,SPAMnetsValid,2021.1.4,Win32,59.78715772,,,,,,,,,,,,,,,,,,,,,,,,,2,7.0269,0,7,7,7,1,opulent,party,wealthy,happy frame of mind,semiprecious stone,2,,,,,,,,,,,,,,,,,,,,,,,,,,,,,,,,,,,,,,,,,,,,,,,,,,,,
,,,,,,,,,,,,,,,89624,001,2022-04-25_13h40.42.687,SPAMnetsValid,2021.1.4,Win32,59.78715772,,,,,,,,,,,,,,,,,,,,,,,,,1,6.2174,0,8,8,8,1,coercion,conspiracy,strategy,restraint,attraction,3,,,,,,,,,,,,,,,,,,,,,,,,,,,,,,,,,,,,,,,,,,,,,,,,,,,,
,,,,,,,,,,,,,,,89624,001,2022-04-25_13h40.42.687,SPAMnetsValid,2021.1.4,Win32,59.78715772,,,,,,,,,,,,,,,,,,,,,,,,,4,2.2922,0,9,9,9,1,hiatus,animal,calamity,dread,gap,4,,,,,,,,,,,,,,,,,,,,,,,,,,,,,,,,,,,,,,,,,,,,,,,,,,,,
,,,,,,,,,,,,,,,89624,001,2022-04-25_13h40.42.687,SPAMnetsValid,2021.1.4,Win32,59.78715772,,,,,,,,,,,,,,,,,,,,,,,,,1,5.3752,0,10,10,10,1,germane,microbe,contagious,relevant,different,3,,,,,,,,,,,,,,,,,,,,,,,,,,,,,,,,,,,,,,,,,,,,,,,,,,,,
,,,,,,,,,,,,,,,89624,001,2022-04-25_13h40.42.687,SPAMnetsValid,2021.1.4,Win32,59.78715772,,,,,,,,,,,,,,,,,,,,,,,,,3,12.8921,0,11,11,11,1,perfunctory,fundamental,formal,superficial,careful,3,,,,,,,,,,,,,,,,,,,,,,,,,,,,,,,,,,,,,,,,,,,,,,,,,,,,
,,,,,,,,,,,,,,,89624,001,2022-04-25_13h40.42.687,SPAMnetsValid,2021.1.4,Win32,59.78715772,,,,,,,,,,,,,,,,,,,,,,,,,3,6.174,0,12,12,12,1,diverge,reveal,chant,distract the attention of,differ or turn off from,4,,,,,,,,,,,,,,,,,,,,,,,,,,,,,,,,,,,,,,,,,,,,,,,,,,,,
,,,,,,,,,,,,,,,89624,001,2022-04-25_13h40.42.687,SPAMnetsValid,2021.1.4,Win32,59.78715772,,,,,,,,,,,,,,,,,,,,,,,,,4,2.337,0,13,13,13,1,evoke,take away,anger,connect,bring out,4,,,,,,,,,,,,,,,,,,,,,,,,,,,,,,,,,,,,,,,,,,,,,,,,,,,,
,,,,,,,,,,,,,,,89624,001,2022-04-25_13h40.42.687,SPAMnetsValid,2021.1.4,Win32,59.78715772,,,,,,,,,,,,,,,,,,,,,,,,,3,5.6762,0,14,14,14,1,pertinent,relevant,lying next to,necessary,bold,1,,,,,,,,,,,,,,,,,,,,,,,,,,,,,,,,,,,,,,,,,,,,,,,,,,,,
,,,,,,,,,,,,,,,89624,001,2022-04-25_13h40.42.687,SPAMnetsValid,2021.1.4,Win32,59.78715772,,,,,,,,,,,,,,,,,,,,,,,,,2,3.422,0,15,15,15,1,holocaust,entirety,destruction,saintly,price,2,,,,,,,,,,,,,,,,,,,,,,,,,,,,,,,,,,,,,,,,,,,,,,,,,,,,
,,,,,,,,,,,,,,,89624,001,2022-04-25_13h40.42.687,SPAMnetsValid,2021.1.4,Win32,59.78715772,,,,,,,,,,,,,,,,,,,,,,,,,3,5.1998,0,16,16,16,1,piquant,mellow,fish,pungent,cloth,3,,,,,,,,,,,,,,,,,,,,,,,,,,,,,,,,,,,,,,,,,,,,,,,,,,,,
,,,,,,,,,,,,,,,89624,001,2022-04-25_13h40.42.687,SPAMnetsValid,2021.1.4,Win32,59.78715772,,,,,,,,,,,,,,,,,,,,,,,,,3,8.9781,0,17,17,17,1,firmament,foundation,heavens,strong,glue,2,,,,,,,,,,,,,,,,,,,,,,,,,,,,,,,,,,,,,,,,,,,,,,,,,,,,
,,,,,,,,,,,,,,,89624,001,2022-04-25_13h40.42.687,SPAMnetsValid,2021.1.4,Win32,59.78715772,,,,,,,,,,,,,,,,,,,,,,,,,,,,,,,,,,,,,,4,6.5754,0,0,0,0,1,marketable,partisan,jocular,marriageable,salable,essential,4,,,,,,,,,,,,,,,,,,,,,,,,,,,,,,,,,,,,,,
,,,,,,,,,,,,,,,89624,001,2022-04-25_13h40.42.687,SPAMnetsValid,2021.1.4,Win32,59.78715772,,,,,,,,,,,,,,,,,,,,,,,,,,,,,,,,,,,,,,5,3.4908,0,1,1,1,1,cottontail,squirrel,poplar,boa,marshy plant,rabbit,5,,,,,,,,,,,,,,,,,,,,,,,,,,,,,,,,,,,,,,
,,,,,,,,,,,,,,,89624,001,2022-04-25_13h40.42.687,SPAMnetsValid,2021.1.4,Win32,59.78715772,,,,,,,,,,,,,,,,,,,,,,,,,,,,,,,,,,,,,,3,4.6261,0,2,2,2,1,boggy,afraid,false,marshy,dense,black,3,,,,,,,,,,,,,,,,,,,,,,,,,,,,,,,,,,,,,,
,,,,,,,,,,,,,,,89624,001,2022-04-25_13h40.42.687,SPAMnetsValid,2021.1.4,Win32,59.78715772,,,,,,,,,,,,,,,,,,,,,,,,,,,,,,,,,,,,,,5,28.3545,0,3,3,3,1,gruesomeness,blackness,falseness,vindictiveness,drunkenness,ghastliness,5,,,,,,,,,,,,,,,,,,,,,,,,,,,,,,,,,,,,,,
,,,,,,,,,,,,,,,89624,001,2022-04-25_13h40.42.687,SPAMnetsValid,2021.1.4,Win32,59.78715772,,,,,,,,,,,,,,,,,,,,,,,,,,,,,,,,,,,,,,5,3.6959,0,4,4,4,1,loathing,diffidence,laziness,abhorrence,cleverness,comfort,3,,,,,,,,,,,,,,,,,,,,,,,,,,,,,,,,,,,,,,
,,,,,,,,,,,,,,,89624,001,2022-04-25_13h40.42.687,SPAMnetsValid,2021.1.4,Win32,59.78715772,,,,,,,,,,,,,,,,,,,,,,,,,,,,,,,,,,,,,,4,6.0696,0,5,5,5,1,bantam,fowl,ridicule,cripple,vegetable,ensign,1,,,,,,,,,,,,,,,,,,,,,,,,,,,,,,,,,,,,,,
,,,,,,,,,,,,,,,89624,001,2022-04-25_13h40.42.687,SPAMnetsValid,2021.1.4,Win32,59.78715772,,,,,,,,,,,,,,,,,,,,,,,,,,,,,,,,,,,,,,5,4.4619,0,6,6,6,1,evoke,wake up,surrender,reconnoiter,transcend,call forth,5,,,,,,,,,,,,,,,,,,,,,,,,,,,,,,,,,,,,,,
,,,,,,,,,,,,,,,89624,001,2022-04-25_13h40.42.687,SPAMnetsValid,2021.1.4,Win32,59.78715772,,,,,,,,,,,,,,,,,,,,,,,,,,,,,,,,,,,,,,4,7.8209,0,7,7,7,1,unobtrusive,unintelligent,epileptic,illogical,lineal,modest,5,,,,,,,,,,,,,,,,,,,,,,,,,,,,,,,,,,,,,,
,,,,,,,,,,,,,,,89624,001,2022-04-25_13h40.42.687,SPAMnetsValid,2021.1.4,Win32,59.78715772,,,,,,,,,,,,,,,,,,,,,,,,,,,,,,,,,,,,,,4,3.0901,0,8,8,8,1,terrain,ice cream,final test,tractor,area of ground,weight,4,,,,,,,,,,,,,,,,,,,,,,,,,,,,,,,,,,,,,,
,,,,,,,,,,,,,,,89624,001,2022-04-25_13h40.42.687,SPAMnetsValid,2021.1.4,Win32,59.78715772,,,,,,,,,,,,,,,,,,,,,,,,,,,,,,,,,,,,,,3,10.8152,0,9,9,9,1,capriciousness,stubbornness,courage,whimsicality,amazement,greediness,3,,,,,,,,,,,,,,,,,,,,,,,,,,,,,,,,,,,,,,
,,,,,,,,,,,,,,,89624,001,2022-04-25_13h40.42.687,SPAMnetsValid,2021.1.4,Win32,59.78715772,,,,,,,,,,,,,,,,,,,,,,,,,,,,,,,,,,,,,,4,2.3552,0,10,10,10,1,maelstrom,slander,whirlpool,enmity,armor,majolica,2,,,,,,,,,,,,,,,,,,,,,,,,,,,,,,,,,,,,,,
,,,,,,,,,,,,,,,89624,001,2022-04-25_13h40.42.687,SPAMnetsValid,2021.1.4,Win32,59.78715772,,,,,,,,,,,,,,,,,,,,,,,,,,,,,,,,,,,,,,4,7.918,0,11,11,11,1,tentative,critical,conclusive,authentic,provisional,apprehensive,4,,,,,,,,,,,,,,,,,,,,,,,,,,,,,,,,,,,,,,
,,,,,,,,,,,,,,,89624,001,2022-04-25_13h40.42.687,SPAMnetsValid,2021.1.4,Win32,59.78715772,,,,,,,,,,,,,,,,,,,,,,,,,,,,,,,,,,,,,,3,13.5896,0,12,12,12,1,placate,rehabilitate,plagiarize,depredate,apprise,conciliate,5,,,,,,,,,,,,,,,,,,,,,,,,,,,,,,,,,,,,,,
,,,,,,,,,,,,,,,89624,001,2022-04-25_13h40.42.687,SPAMnetsValid,2021.1.4,Win32,59.78715772,,,,,,,,,,,,,,,,,,,,,,,,,,,,,,,,,,,,,,2,11.393,0,13,13,13,1,surcease,enlightenment,cessation,inattention,censor,substitution,2,,,,,,,,,,,,,,,,,,,,,,,,,,,,,,,,,,,,,,
,,,,,,,,,,,,,,,89624,001,2022-04-25_13h40.42.687,SPAMnetsValid,2021.1.4,Win32,59.78715772,,,,,,,,,,,,,,,,,,,,,,,,,,,,,,,,,,,,,,1,9.8578,0,14,14,14,1,apathetic,wandering,impassive,hateful,prophetic,overflowing,2,,,,,,,,,,,,,,,,,,,,,,,,,,,,,,,,,,,,,,
,,,,,,,,,,,,,,,89624,001,2022-04-25_13h40.42.687,SPAMnetsValid,2021.1.4,Win32,59.78715772,,,,,,,,,,,,,,,,,,,,,,,,,,,,,,,,,,,,,,2,11.1898,0,15,15,15,1,paternoster,paternalism,patricide,malediction,benediction,prayer,5,,,,,,,,,,,,,,,,,,,,,,,,,,,,,,,,,,,,,,
,,,,,,,,,,,,,,,89624,001,2022-04-25_13h40.42.687,SPAMnetsValid,2021.1.4,Win32,59.78715772,,,,,,,,,,,,,,,,,,,,,,,,,,,,,,,,,,,,,,1,13.3991,0,16,16,16,1,opalescence,opulence,senescence,bankruptcy,iridescence,assiduity,4,,,,,,,,,,,,,,,,,,,,,,,,,,,,,,,,,,,,,,
,,,,,,,,,,,,,,,89624,001,2022-04-25_13h40.42.687,SPAMnetsValid,2021.1.4,Win32,59.78715772,,,,,,,,,,,,,,,,,,,,,,,,,,,,,,,,,,,,,,2,1.2886,0,17,17,17,1,lush,stupid,luxurious,hazy,putrid,languishing,2,,,,,,,,,,,,,,,,,,,,,,,,,,,,,,,,,,,,,,
,,,,,,,,,,,,,,,89624,001,2022-04-25_13h40.42.687,SPAMnetsValid,2021.1.4,Win32,59.78715772,,,,,,,,,,,,,,,,,,,,,,,,,,,,,,,,,,,,,,3,7.107,0,18,18,18,1,curtailment,expenditure,abandonment,abridgment,improvement,forgery,3,,,,,,,,,,,,,,,,,,,,,,,,,,,,,,,,,,,,,,
,,,,,,,,,,,,,,,89624,001,2022-04-25_13h40.42.687,SPAMnetsValid,2021.1.4,Win32,59.78715772,,,,,,,,,,,,,,,,,,,,,,,,,,,,,,,,,,,,,,4,5.2888,0,19,19,19,1,perversity,adversity,perviousness,travesty,waywardness,gentility,4,,,,,,,,,,,,,,,,,,,,,,,,,,,,,,,,,,,,,,
,,,,,,,,,,,,,,,89624,001,2022-04-25_13h40.42.687,SPAMnetsValid,2021.1.4,Win32,59.78715772,,,,,,,,,,,,,,,,,,,,,,,,,,,,,,,,,,,,,,4,1.9296,0,20,20,20,1,calumnious,complimentary,analogous,slanderous,tempestuous,magnanimous,3,,,,,,,,,,,,,,,,,,,,,,,,,,,,,,,,,,,,,,
,,,,,,,,,,,,,,,89624,001,2022-04-25_13h40.42.687,SPAMnetsValid,2021.1.4,Win32,59.78715772,,,,,,,,,,,,,,,,,,,,,,,,,,,,,,,,,,,,,,3,3.2795,0,21,21,21,1,illiberality,bigotry,imbecility,illegibility,cautery,immaturity,1,,,,,,,,,,,,,,,,,,,,,,,,,,,,,,,,,,,,,,
,,,,,,,,,,,,,,,89624,001,2022-04-25_13h40.42.687,SPAMnetsValid,2021.1.4,Win32,59.78715772,,,,,,,,,,,,,,,,,,,,,,,,,,,,,,,,,,,,,,1,4.3072,0,22,22,22,1,clabber,rejoice,gossip,curdle,crow,hobble,3,,,,,,,,,,,,,,,,,,,,,,,,,,,,,,,,,,,,,,
,,,,,,,,,,,,,,,89624,001,2022-04-25_13h40.42.687,SPAMnetsValid,2021.1.4,Win32,59.78715772,,,,,,,,,,,,,,,,,,,,,,,,,,,,,,,,,,,,,,4,1.9703,0,23,23,23,1,sedulousness,diligence,credulousness,seduction,perilousness,frankness,1,,,,,,,,,,,,,,,,,,,,,,,,,,,,,,,,,,,,,,
,,,,,,,,,,,,,,,89624,001,2022-04-25_13h40.42.687,SPAMnetsValid,2021.1.4,Win32,59.78715772,,,,,,,,,,,,,,,,,,,,,,,,,,,,,,,,,,,,,,,,,,,,,,,,,,,,light,candle,0,0,0,0,1,,,,,,,,,,,,,,,,,,,,,,,,,,,,,,,
,,,,,,,,,,,,,,,89624,001,2022-04-25_13h40.42.687,SPAMnetsValid,2021.1.4,Win32,59.78715772,,,,,,,,,,,,,,,,,,,,,,,,,,,,,,,,,,,,,,,,,,,,,,,,,,,,scent,candle,1,0,1,0,1,,,,,,,,,,,,,,,,,,,,,,,,,,,,,,,
,,,,,,,,,,,,,,,89624,001,2022-04-25_13h40.42.687,SPAMnetsValid,2021.1.4,Win32,59.78715772,,,,,,,,,,,,,,,,,,,,,,,,,,,,,,,,,,,,,,,,,,,,,,,,,,,,art,candle,2,0,2,0,1,,,,,,,,,,,,,,,,,,,,,,,,,,,,,,,
,,,,,,,,,,,,,,,89624,001,2022-04-25_13h40.42.687,SPAMnetsValid,2021.1.4,Win32,59.78715772,,,,,,,,,,,,,,,,,,,,,,,,,,,,,,,,,,,,,,,,,,,,,,,,,,,,decorations,candle,3,0,3,0,1,,,,,,,,,,,,,,,,,,,,,,,,,,,,,,,
,,,,,,,,,,,,,,,89624,001,2022-04-25_13h40.42.687,SPAMnetsValid,2021.1.4,Win32,59.78715772,,,,,,,,,,,,,,,,,,,,,,,,,,,,,,,,,,,,,,,,,,,,,,,,,,,,hominess ,candle,4,0,4,0,1,,,,,,,,,,,,,,,,,,,,,,,,,,,,,,,
,,,,,,,,,,,,,,,89624,001,2022-04-25_13h40.42.687,SPAMnetsValid,2021.1.4,Win32,59.78715772,,,,,,,,,,,,,,,,,,,,,,,,,,,,,,,,,,,,,,,,,,,,,,,,,,,,proposal,candle,5,0,5,0,1,,,,,,,,,,,,,,,,,,,,,,,,,,,,,,,
,,,,,,,,,,,,,,,89624,001,2022-04-25_13h40.42.687,SPAMnetsValid,2021.1.4,Win32,59.78715772,,,,,,,,,,,,,,,,,,,,,,,,,,,,,,,,,,,,,,,,,,,,,,,,,,,,romance,candle,6,0,6,0,1,,,,,,,,,,,,,,,,,,,,,,,,,,,,,,,
,,,,,,,,,,,,,,,89624,001,2022-04-25_13h40.42.687,SPAMnetsValid,2021.1.4,Win32,59.78715772,,,,,,,,,,,,,,,,,,,,,,,,,,,,,,,,,,,,,,,,,,,,,,,,,,,,mood ,candle,7,0,7,0,1,,,,,,,,,,,,,,,,,,,,,,,,,,,,,,,
,,,,,,,,,,,,,,,89624,001,2022-04-25_13h40.42.687,SPAMnetsValid,2021.1.4,Win32,59.78715772,,,,,,,,,,,,,,,,,,,,,,,,,,,,,,,,,,,,,,,,,,,,,,,,,,,,coloring,candle,8,0,8,0,1,,,,,,,,,,,,,,,,,,,,,,,,,,,,,,,
,,,,,,,,,,,,,,,89624,001,2022-04-25_13h40.42.687,SPAMnetsValid,2021.1.4,Win32,59.78715772,,,,,,,,,,,,,,,,,,,,,,,,,,,,,,,,,,,,,,,,,,,,,,,,,,,,worship,candle,9,0,9,0,1,,,,,,,,,,,,,,,,,,,,,,,,,,,,,,,
,,,,,,,,,,,,,,,89624,001,2022-04-25_13h40.42.687,SPAMnetsValid,2021.1.4,Win32,59.78715772,,,,,,,,,,,,,,,,,,,,,,,,,,,,,,,,,,,,,,,,,,,,,,,,,,,,gifts,candle,10,0,10,0,1,,,,,,,,,,,,,,,,,,,,,,,,,,,,,,,
,,,,,,,,,,,,,,,89624,001,2022-04-25_13h40.42.687,SPAMnetsValid,2021.1.4,Win32,59.78715772,,,,,,,,,,,,,,,,,,,,,,,,,,,,,,,,,,,,,,,,,,,,,,,,,,,,hiding things in ,candle,11,0,11,0,1,,,,,,,,,,,,,,,,,,,,,,,,,,,,,,,
,,,,,,,,,,,,,,,89624,001,2022-04-25_13h40.42.687,SPAMnetsValid,2021.1.4,Win32,59.78715772,,,,,,,,,,,,,,,,,,,,,,,,,,,,,,,,,,,,,,,,,,,,,,,,,,,,burning,candle,12,0,12,0,1,,,,,,,,,,,,,,,,,,,,,,,,,,,,,,,
,,,,,,,,,,,,,,,89624,001,2022-04-25_13h40.42.687,SPAMnetsValid,2021.1.4,Win32,59.78715772,,,,,,,,,,,,,,,,,,,,,,,,,,,,,,,,,,,,,,,,,,,,,,,,,,,,fire,candle,13,0,13,0,1,,,,,,,,,,,,,,,,,,,,,,,,,,,,,,,
,,,,,,,,,,,,,,,89624,001,2022-04-25_13h40.42.687,SPAMnetsValid,2021.1.4,Win32,59.78715772,,,,,,,,,,,,,,,,,,,,,,,,,,,,,,,,,,,,,,,,,,,,,,,,,,,,cooking,candle,14,0,14,0,1,,,,,,,,,,,,,,,,,,,,,,,,,,,,,,,
,,,,,,,,,,,,,,,89624,001,2022-04-25_13h40.42.687,SPAMnetsValid,2021.1.4,Win32,59.78715772,,,,,,,,,,,,,,,,,,,,,,,,,,,,,,,,,,,,,,,,,,,,,,,,,,,,roasting,candle,15,0,15,0,1,,,,,,,,,,,,,,,,,,,,,,,,,,,,,,,
,,,,,,,,,,,,,,,89624,001,2022-04-25_13h40.42.687,SPAMnetsValid,2021.1.4,Win32,59.78715772,,,,,,,,,,,,,,,,,,,,,,,,,,,,,,,,,,,,,,,,,,,,,,,,,,,,,,,,,,,0,0,0,1,1,candle,,,,,,,,,,,,,,,,,,,,,,,,,
,,,,,,,,,,,,,,,89624,001,2022-04-25_13h40.42.687,SPAMnetsValid,2021.1.4,Win32,59.78715772,,,,,,,,,,,,,,,,,,,,,,,,,,,,,,,,,,,,,,,,,,,,,,,,,,,,sleep,pillow,0,0,0,0,1,,,,,,,,,,,,,,,,,,,,,,,,,,,,,,,
,,,,,,,,,,,,,,,89624,001,2022-04-25_13h40.42.687,SPAMnetsValid,2021.1.4,Win32,59.78715772,,,,,,,,,,,,,,,,,,,,,,,,,,,,,,,,,,,,,,,,,,,,,,,,,,,,comfort,pillow,1,0,1,0,1,,,,,,,,,,,,,,,,,,,,,,,,,,,,,,,
,,,,,,,,,,,,,,,89624,001,2022-04-25_13h40.42.687,SPAMnetsValid,2021.1.4,Win32,59.78715772,,,,,,,,,,,,,,,,,,,,,,,,,,,,,,,,,,,,,,,,,,,,,,,,,,,,forts,pillow,2,0,2,0,1,,,,,,,,,,,,,,,,,,,,,,,,,,,,,,,
,,,,,,,,,,,,,,,89624,001,2022-04-25_13h40.42.687,SPAMnetsValid,2021.1.4,Win32,59.78715772,,,,,,,,,,,,,,,,,,,,,,,,,,,,,,,,,,,,,,,,,,,,,,,,,,,,structure,pillow,3,0,3,0,1,,,,,,,,,,,,,,,,,,,,,,,,,,,,,,,
,,,,,,,,,,,,,,,89624,001,2022-04-25_13h40.42.687,SPAMnetsValid,2021.1.4,Win32,59.78715772,,,,,,,,,,,,,,,,,,,,,,,,,,,,,,,,,,,,,,,,,,,,,,,,,,,,art,pillow,4,0,4,0,1,,,,,,,,,,,,,,,,,,,,,,,,,,,,,,,
,,,,,,,,,,,,,,,89624,001,2022-04-25_13h40.42.687,SPAMnetsValid,2021.1.4,Win32,59.78715772,,,,,,,,,,,,,,,,,,,,,,,,,,,,,,,,,,,,,,,,,,,,,,,,,,,,decorations ,pillow,5,0,5,0,1,,,,,,,,,,,,,,,,,,,,,,,,,,,,,,,
,,,,,,,,,,,,,,,89624,001,2022-04-25_13h40.42.687,SPAMnetsValid,2021.1.4,Win32,59.78715772,,,,,,,,,,,,,,,,,,,,,,,,,,,,,,,,,,,,,,,,,,,,,,,,,,,,spelling things on ,pillow,6,0,6,0,1,,,,,,,,,,,,,,,,,,,,,,,,,,,,,,,
,,,,,,,,,,,,,,,89624,001,2022-04-25_13h40.42.687,SPAMnetsValid,2021.1.4,Win32,59.78715772,,,,,,,,,,,,,,,,,,,,,,,,,,,,,,,,,,,,,,,,,,,,,,,,,,,,hugging,pillow,7,0,7,0,1,,,,,,,,,,,,,,,,,,,,,,,,,,,,,,,
,,,,,,,,,,,,,,,89624,001,2022-04-25_13h40.42.687,SPAMnetsValid,2021.1.4,Win32,59.78715772,,,,,,,,,,,,,,,,,,,,,,,,,,,,,,,,,,,,,,,,,,,,,,,,,,,,taking care of someone ,pillow,8,0,8,0,1,,,,,,,,,,,,,,,,,,,,,,,,,,,,,,,
,,,,,,,,,,,,,,,89624,001,2022-04-25_13h40.42.687,SPAMnetsValid,2021.1.4,Win32,59.78715772,,,,,,,,,,,,,,,,,,,,,,,,,,,,,,,,,,,,,,,,,,,,,,,,,,,,decorating ,pillow,9,0,9,0,1,,,,,,,,,,,,,,,,,,,,,,,,,,,,,,,
,,,,,,,,,,,,,,,89624,001,2022-04-25_13h40.42.687,SPAMnetsValid,2021.1.4,Win32,59.78715772,,,,,,,,,,,,,,,,,,,,,,,,,,,,,,,,,,,,,,,,,,,,,,,,,,,,drawing on,pillow,10,0,10,0,1,,,,,,,,,,,,,,,,,,,,,,,,,,,,,,,
,,,,,,,,,,,,,,,89624,001,2022-04-25_13h40.42.687,SPAMnetsValid,2021.1.4,Win32,59.78715772,,,,,,,,,,,,,,,,,,,,,,,,,,,,,,,,,,,,,,,,,,,,,,,,,,,,love,pillow,11,0,11,0,1,,,,,,,,,,,,,,,,,,,,,,,,,,,,,,,
,,,,,,,,,,,,,,,89624,001,2022-04-25_13h40.42.687,SPAMnetsValid,2021.1.4,Win32,59.78715772,,,,,,,,,,,,,,,,,,,,,,,,,,,,,,,,,,,,,,,,,,,,,,,,,,,,,,,,,,,0,1,1,2,1,pillow,,,,,,,,,,,,,,,,,,,,,,,,,
,,,,,,,,,,,,,,,89624,001,2022-04-25_13h40.42.687,SPAMnetsValid,2021.1.4,Win32,59.78715772,,,,,,,,,,,,,,,,,,,,,,,,,,,,,,,,,,,,,,,,,,,,,,,,,,,,peeing,bucket,0,0,0,0,1,,,,,,,,,,,,,,,,,,,,,,,,,,,,,,,
,,,,,,,,,,,,,,,89624,001,2022-04-25_13h40.42.687,SPAMnetsValid,2021.1.4,Win32,59.78715772,,,,,,,,,,,,,,,,,,,,,,,,,,,,,,,,,,,,,,,,,,,,,,,,,,,,cleaning,bucket,1,0,1,0,1,,,,,,,,,,,,,,,,,,,,,,,,,,,,,,,
,,,,,,,,,,,,,,,89624,001,2022-04-25_13h40.42.687,SPAMnetsValid,2021.1.4,Win32,59.78715772,,,,,,,,,,,,,,,,,,,,,,,,,,,,,,,,,,,,,,,,,,,,,,,,,,,,storage ,bucket,2,0,2,0,1,,,,,,,,,,,,,,,,,,,,,,,,,,,,,,,
,,,,,,,,,,,,,,,89624,001,2022-04-25_13h40.42.687,SPAMnetsValid,2021.1.4,Win32,59.78715772,,,,,,,,,,,,,,,,,,,,,,,,,,,,,,,,,,,,,,,,,,,,,,,,,,,,drinking out of ,bucket,3,0,3,0,1,,,,,,,,,,,,,,,,,,,,,,,,,,,,,,,
,,,,,,,,,,,,,,,89624,001,2022-04-25_13h40.42.687,SPAMnetsValid,2021.1.4,Win32,59.78715772,,,,,,,,,,,,,,,,,,,,,,,,,,,,,,,,,,,,,,,,,,,,,,,,,,,,hat,bucket,4,0,4,0,1,,,,,,,,,,,,,,,,,,,,,,,,,,,,,,,
,,,,,,,,,,,,,,,89624,001,2022-04-25_13h40.42.687,SPAMnetsValid,2021.1.4,Win32,59.78715772,,,,,,,,,,,,,,,,,,,,,,,,,,,,,,,,,,,,,,,,,,,,,,,,,,,,helmet ,bucket,5,0,5,0,1,,,,,,,,,,,,,,,,,,,,,,,,,,,,,,,
,,,,,,,,,,,,,,,89624,001,2022-04-25_13h40.42.687,SPAMnetsValid,2021.1.4,Win32,59.78715772,,,,,,,,,,,,,,,,,,,,,,,,,,,,,,,,,,,,,,,,,,,,,,,,,,,,stool,bucket,6,0,6,0,1,,,,,,,,,,,,,,,,,,,,,,,,,,,,,,,
,,,,,,,,,,,,,,,89624,001,2022-04-25_13h40.42.687,SPAMnetsValid,2021.1.4,Win32,59.78715772,,,,,,,,,,,,,,,,,,,,,,,,,,,,,,,,,,,,,,,,,,,,,,,,,,,,things live in,bucket,7,0,7,0,1,,,,,,,,,,,,,,,,,,,,,,,,,,,,,,,
,,,,,,,,,,,,,,,89624,001,2022-04-25_13h40.42.687,SPAMnetsValid,2021.1.4,Win32,59.78715772,,,,,,,,,,,,,,,,,,,,,,,,,,,,,,,,,,,,,,,,,,,,,,,,,,,,carrying,bucket,8,0,8,0,1,,,,,,,,,,,,,,,,,,,,,,,,,,,,,,,
,,,,,,,,,,,,,,,89624,001,2022-04-25_13h40.42.687,SPAMnetsValid,2021.1.4,Win32,59.78715772,,,,,,,,,,,,,,,,,,,,,,,,,,,,,,,,,,,,,,,,,,,,,,,,,,,,purse,bucket,9,0,9,0,1,,,,,,,,,,,,,,,,,,,,,,,,,,,,,,,
,,,,,,,,,,,,,,,89624,001,2022-04-25_13h40.42.687,SPAMnetsValid,2021.1.4,Win32,59.78715772,,,,,,,,,,,,,,,,,,,,,,,,,,,,,,,,,,,,,,,,,,,,,,,,,,,,decorate ,bucket,10,0,10,0,1,,,,,,,,,,,,,,,,,,,,,,,,,,,,,,,
,,,,,,,,,,,,,,,89624,001,2022-04-25_13h40.42.687,SPAMnetsValid,2021.1.4,Win32,59.78715772,,,,,,,,,,,,,,,,,,,,,,,,,,,,,,,,,,,,,,,,,,,,,,,,,,,,put plants in ,bucket,11,0,11,0,1,,,,,,,,,,,,,,,,,,,,,,,,,,,,,,,
,,,,,,,,,,,,,,,89624,001,2022-04-25_13h40.42.687,SPAMnetsValid,2021.1.4,Win32,59.78715772,,,,,,,,,,,,,,,,,,,,,,,,,,,,,,,,,,,,,,,,,,,,,,,,,,,,mixing food,bucket,12,0,12,0,1,,,,,,,,,,,,,,,,,,,,,,,,,,,,,,,
,,,,,,,,,,,,,,,89624,001,2022-04-25_13h40.42.687,SPAMnetsValid,2021.1.4,Win32,59.78715772,,,,,,,,,,,,,,,,,,,,,,,,,,,,,,,,,,,,,,,,,,,,,,,,,,,,drinking out of ,bucket,13,0,13,0,1,,,,,,,,,,,,,,,,,,,,,,,,,,,,,,,
,,,,,,,,,,,,,,,89624,001,2022-04-25_13h40.42.687,SPAMnetsValid,2021.1.4,Win32,59.78715772,,,,,,,,,,,,,,,,,,,,,,,,,,,,,,,,,,,,,,,,,,,,,,,,,,,,draw on ,bucket,14,0,14,0,1,,,,,,,,,,,,,,,,,,,,,,,,,,,,,,,
,,,,,,,,,,,,,,,89624,001,2022-04-25_13h40.42.687,SPAMnetsValid,2021.1.4,Win32,59.78715772,,,,,,,,,,,,,,,,,,,,,,,,,,,,,,,,,,,,,,,,,,,,,,,,,,,,,,,,,,,0,2,2,0,1,bucket,,,,,,,,,,,,,,,,,,,,,,,,,
,,,,,,,,,,,,,,,89624,001,2022-04-25_13h40.42.687,SPAMnetsValid,2021.1.4,Win32,59.78715772,,,,,,,,,,,,,,,,,,,,,,,,,,,,,,,,,,,,,,,,,,,,,,,,,,,,,,,,,,,,,,,,,dog,Animals,0,0,0,0,1,,,,,,,,,,,,,,,,,,
,,,,,,,,,,,,,,,89624,001,2022-04-25_13h40.42.687,SPAMnetsValid,2021.1.4,Win32,59.78715772,,,,,,,,,,,,,,,,,,,,,,,,,,,,,,,,,,,,,,,,,,,,,,,,,,,,,,,,,,,,,,,,,cat,Animals,1,0,1,0,1,,,,,,,,,,,,,,,,,,
,,,,,,,,,,,,,,,89624,001,2022-04-25_13h40.42.687,SPAMnetsValid,2021.1.4,Win32,59.78715772,,,,,,,,,,,,,,,,,,,,,,,,,,,,,,,,,,,,,,,,,,,,,,,,,,,,,,,,,,,,,,,,,fish,Animals,2,0,2,0,1,,,,,,,,,,,,,,,,,,
,,,,,,,,,,,,,,,89624,001,2022-04-25_13h40.42.687,SPAMnetsValid,2021.1.4,Win32,59.78715772,,,,,,,,,,,,,,,,,,,,,,,,,,,,,,,,,,,,,,,,,,,,,,,,,,,,,,,,,,,,,,,,,snake,Animals,3,0,3,0,1,,,,,,,,,,,,,,,,,,
,,,,,,,,,,,,,,,89624,001,2022-04-25_13h40.42.687,SPAMnetsValid,2021.1.4,Win32,59.78715772,,,,,,,,,,,,,,,,,,,,,,,,,,,,,,,,,,,,,,,,,,,,,,,,,,,,,,,,,,,,,,,,,lizard,Animals,4,0,4,0,1,,,,,,,,,,,,,,,,,,
,,,,,,,,,,,,,,,89624,001,2022-04-25_13h40.42.687,SPAMnetsValid,2021.1.4,Win32,59.78715772,,,,,,,,,,,,,,,,,,,,,,,,,,,,,,,,,,,,,,,,,,,,,,,,,,,,,,,,,,,,,,,,,bear,Animals,5,0,5,0,1,,,,,,,,,,,,,,,,,,
,,,,,,,,,,,,,,,89624,001,2022-04-25_13h40.42.687,SPAMnetsValid,2021.1.4,Win32,59.78715772,,,,,,,,,,,,,,,,,,,,,,,,,,,,,,,,,,,,,,,,,,,,,,,,,,,,,,,,,,,,,,,,,lion,Animals,6,0,6,0,1,,,,,,,,,,,,,,,,,,
,,,,,,,,,,,,,,,89624,001,2022-04-25_13h40.42.687,SPAMnetsValid,2021.1.4,Win32,59.78715772,,,,,,,,,,,,,,,,,,,,,,,,,,,,,,,,,,,,,,,,,,,,,,,,,,,,,,,,,,,,,,,,,tiger,Animals,7,0,7,0,1,,,,,,,,,,,,,,,,,,
,,,,,,,,,,,,,,,89624,001,2022-04-25_13h40.42.687,SPAMnetsValid,2021.1.4,Win32,59.78715772,,,,,,,,,,,,,,,,,,,,,,,,,,,,,,,,,,,,,,,,,,,,,,,,,,,,,,,,,,,,,,,,,monkey,Animals,8,0,8,0,1,,,,,,,,,,,,,,,,,,
,,,,,,,,,,,,,,,89624,001,2022-04-25_13h40.42.687,SPAMnetsValid,2021.1.4,Win32,59.78715772,,,,,,,,,,,,,,,,,,,,,,,,,,,,,,,,,,,,,,,,,,,,,,,,,,,,,,,,,,,,,,,,,gorilla,Animals,9,0,9,0,1,,,,,,,,,,,,,,,,,,
,,,,,,,,,,,,,,,89624,001,2022-04-25_13h40.42.687,SPAMnetsValid,2021.1.4,Win32,59.78715772,,,,,,,,,,,,,,,,,,,,,,,,,,,,,,,,,,,,,,,,,,,,,,,,,,,,,,,,,,,,,,,,,bird,Animals,10,0,10,0,1,,,,,,,,,,,,,,,,,,
,,,,,,,,,,,,,,,89624,001,2022-04-25_13h40.42.687,SPAMnetsValid,2021.1.4,Win32,59.78715772,,,,,,,,,,,,,,,,,,,,,,,,,,,,,,,,,,,,,,,,,,,,,,,,,,,,,,,,,,,,,,,,,eagle ,Animals,11,0,11,0,1,,,,,,,,,,,,,,,,,,
,,,,,,,,,,,,,,,89624,001,2022-04-25_13h40.42.687,SPAMnetsValid,2021.1.4,Win32,59.78715772,,,,,,,,,,,,,,,,,,,,,,,,,,,,,,,,,,,,,,,,,,,,,,,,,,,,,,,,,,,,,,,,,alligator ,Animals,12,0,12,0,1,,,,,,,,,,,,,,,,,,
,,,,,,,,,,,,,,,89624,001,2022-04-25_13h40.42.687,SPAMnetsValid,2021.1.4,Win32,59.78715772,,,,,,,,,,,,,,,,,,,,,,,,,,,,,,,,,,,,,,,,,,,,,,,,,,,,,,,,,,,,,,,,,crocodile ,Animals,13,0,13,0,1,,,,,,,,,,,,,,,,,,
,,,,,,,,,,,,,,,89624,001,2022-04-25_13h40.42.687,SPAMnetsValid,2021.1.4,Win32,59.78715772,,,,,,,,,,,,,,,,,,,,,,,,,,,,,,,,,,,,,,,,,,,,,,,,,,,,,,,,,,,,,,,,,whale,Animals,14,0,14,0,1,,,,,,,,,,,,,,,,,,
,,,,,,,,,,,,,,,89624,001,2022-04-25_13h40.42.687,SPAMnetsValid,2021.1.4,Win32,59.78715772,,,,,,,,,,,,,,,,,,,,,,,,,,,,,,,,,,,,,,,,,,,,,,,,,,,,,,,,,,,,,,,,,shark,Animals,15,0,15,0,1,,,,,,,,,,,,,,,,,,
,,,,,,,,,,,,,,,89624,001,2022-04-25_13h40.42.687,SPAMnetsValid,2021.1.4,Win32,59.78715772,,,,,,,,,,,,,,,,,,,,,,,,,,,,,,,,,,,,,,,,,,,,,,,,,,,,,,,,,,,,,,,,,shrimp,Animals,16,0,16,0,1,,,,,,,,,,,,,,,,,,
,,,,,,,,,,,,,,,89624,001,2022-04-25_13h40.42.687,SPAMnetsValid,2021.1.4,Win32,59.78715772,,,,,,,,,,,,,,,,,,,,,,,,,,,,,,,,,,,,,,,,,,,,,,,,,,,,,,,,,,,,,,,,,penguin,Animals,17,0,17,0,1,,,,,,,,,,,,,,,,,,
,,,,,,,,,,,,,,,89624,001,2022-04-25_13h40.42.687,SPAMnetsValid,2021.1.4,Win32,59.78715772,,,,,,,,,,,,,,,,,,,,,,,,,,,,,,,,,,,,,,,,,,,,,,,,,,,,,,,,,,,,,,,,,polar bear ,Animals,18,0,18,0,1,,,,,,,,,,,,,,,,,,
,,,,,,,,,,,,,,,89624,001,2022-04-25_13h40.42.687,SPAMnetsValid,2021.1.4,Win32,59.78715772,,,,,,,,,,,,,,,,,,,,,,,,,,,,,,,,,,,,,,,,,,,,,,,,,,,,,,,,,,,,,,,,,hawk,Animals,19,0,19,0,1,,,,,,,,,,,,,,,,,,
,,,,,,,,,,,,,,,89624,001,2022-04-25_13h40.42.687,SPAMnetsValid,2021.1.4,Win32,59.78715772,,,,,,,,,,,,,,,,,,,,,,,,,,,,,,,,,,,,,,,,,,,,,,,,,,,,,,,,,,,,,,,,,owl,Animals,20,0,20,0,1,,,,,,,,,,,,,,,,,,
,,,,,,,,,,,,,,,89624,001,2022-04-25_13h40.42.687,SPAMnetsValid,2021.1.4,Win32,59.78715772,,,,,,,,,,,,,,,,,,,,,,,,,,,,,,,,,,,,,,,,,,,,,,,,,,,,,,,,,,,,,,,,,bobcat,Animals,21,0,21,0,1,,,,,,,,,,,,,,,,,,
,,,,,,,,,,,,,,,89624,001,2022-04-25_13h40.42.687,SPAMnetsValid,2021.1.4,Win32,59.78715772,,,,,,,,,,,,,,,,,,,,,,,,,,,,,,,,,,,,,,,,,,,,,,,,,,,,,,,,,,,,,,,,,dolphin,Animals,22,0,22,0,1,,,,,,,,,,,,,,,,,,
,,,,,,,,,,,,,,,89624,001,2022-04-25_13h40.42.687,SPAMnetsValid,2021.1.4,Win32,59.78715772,,,,,,,,,,,,,,,,,,,,,,,,,,,,,,,,,,,,,,,,,,,,,,,,,,,,,,,,,,,,,,,,,parrot ,Animals,23,0,23,0,1,,,,,,,,,,,,,,,,,,
,,,,,,,,,,,,,,,89624,001,2022-04-25_13h40.42.687,SPAMnetsValid,2021.1.4,Win32,59.78715772,,,,,,,,,,,,,,,,,,,,,,,,,,,,,,,,,,,,,,,,,,,,,,,,,,,,,,,,,,,,,,,,,peacock ,Animals,24,0,24,0,1,,,,,,,,,,,,,,,,,,
,,,,,,,,,,,,,,,89624,001,2022-04-25_13h40.42.687,SPAMnetsValid,2021.1.4,Win32,59.78715772,,,,,,,,,,,,,,,,,,,,,,,,,,,,,,,,,,,,,,,,,,,,,,,,,,,,,,,,,,,,,,,,,mosquito ,Animals,25,0,25,0,1,,,,,,,,,,,,,,,,,,
,,,,,,,,,,,,,,,89624,001,2022-04-25_13h40.42.687,SPAMnetsValid,2021.1.4,Win32,59.78715772,,,,,,,,,,,,,,,,,,,,,,,,,,,,,,,,,,,,,,,,,,,,,,,,,,,,,,,,,,,,,,,,,squirrel,Animals,26,0,26,0,1,,,,,,,,,,,,,,,,,,
,,,,,,,,,,,,,,,89624,001,2022-04-25_13h40.42.687,SPAMnetsValid,2021.1.4,Win32,59.78715772,,,,,,,,,,,,,,,,,,,,,,,,,,,,,,,,,,,,,,,,,,,,,,,,,,,,,,,,,,,,,,,,,groundhog,Animals,27,0,27,0,1,,,,,,,,,,,,,,,,,,
,,,,,,,,,,,,,,,89624,001,2022-04-25_13h40.42.687,SPAMnetsValid,2021.1.4,Win32,59.78715772,,,,,,,,,,,,,,,,,,,,,,,,,,,,,,,,,,,,,,,,,,,,,,,,,,,,,,,,,,,,,,,,,hamster ,Animals,28,0,28,0,1,,,,,,,,,,,,,,,,,,
,,,,,,,,,,,,,,,89624,001,2022-04-25_13h40.42.687,SPAMnetsValid,2021.1.4,Win32,59.78715772,,,,,,,,,,,,,,,,,,,,,,,,,,,,,,,,,,,,,,,,,,,,,,,,,,,,,,,,,,,,,,,,,pig,Animals,29,0,29,0,1,,,,,,,,,,,,,,,,,,
,,,,,,,,,,,,,,,89624,001,2022-04-25_13h40.42.687,SPAMnetsValid,2021.1.4,Win32,59.78715772,,,,,,,,,,,,,,,,,,,,,,,,,,,,,,,,,,,,,,,,,,,,,,,,,,,,,,,,,,,,,,,,,cow,Animals,30,0,30,0,1,,,,,,,,,,,,,,,,,,
,,,,,,,,,,,,,,,89624,001,2022-04-25_13h40.42.687,SPAMnetsValid,2021.1.4,Win32,59.78715772,,,,,,,,,,,,,,,,,,,,,,,,,,,,,,,,,,,,,,,,,,,,,,,,,,,,,,,,,,,,,,,,,,,,,,,,0,0,0,0,1,Animals,,,,,,,,,,,,
,,,,,,,,,,,,,,,89624,001,2022-04-25_13h40.42.687,SPAMnetsValid,2021.1.4,Win32,59.78715772,,,,,,,,,,,,,,,,,,,,,,,,,,,,,,,,,,,,,,,,,,,,,,,,,,,,,,,,,,,,,,,,,,,,,,,,,,,,,,2,5.1861,0,0,0,0,1,"I enjoy concentrating on a fantasy or daydream and exploring all its possibilities, letting it grow and develop.",0,1,,
,,,,,,,,,,,,,,,89624,001,2022-04-25_13h40.42.687,SPAMnetsValid,2021.1.4,Win32,59.78715772,,,,,,,,,,,,,,,,,,,,,,,,,,,,,,,,,,,,,,,,,,,,,,,,,,,,,,,,,,,,,,,,,,,,,,,,,,,,,,4,4.1662,0,1,1,1,1,I think it's interesting to learn and develop new hobbies.,0,2,,
,,,,,,,,,,,,,,,89624,001,2022-04-25_13h40.42.687,SPAMnetsValid,2021.1.4,Win32,59.78715772,,,,,,,,,,,,,,,,,,,,,,,,,,,,,,,,,,,,,,,,,,,,,,,,,,,,,,,,,,,,,,,,,,,,,,,,,,,,,,2,2.6037,0,2,2,2,1,I am intrigued by the patterns I find in art and nature.,0,3,,
,,,,,,,,,,,,,,,89624,001,2022-04-25_13h40.42.687,SPAMnetsValid,2021.1.4,Win32,59.78715772,,,,,,,,,,,,,,,,,,,,,,,,,,,,,,,,,,,,,,,,,,,,,,,,,,,,,,,,,,,,,,,,,,,,,,,,,,,,,,5,6.2372,0,3,3,3,1,I believe letting students hear controversial speakers can only confuse and mislead them.,1,4,,
,,,,,,,,,,,,,,,89624,001,2022-04-25_13h40.42.687,SPAMnetsValid,2021.1.4,Win32,59.78715772,,,,,,,,,,,,,,,,,,,,,,,,,,,,,,,,,,,,,,,,,,,,,,,,,,,,,,,,,,,,,,,,,,,,,,,,,,,,,,4,2.1074,0,4,4,4,1,Poetry has little or no effect on me.,1,5,,
,,,,,,,,,,,,,,,89624,001,2022-04-25_13h40.42.687,SPAMnetsValid,2021.1.4,Win32,59.78715772,,,,,,,,,,,,,,,,,,,,,,,,,,,,,,,,,,,,,,,,,,,,,,,,,,,,,,,,,,,,,,,,,,,,,,,,,,,,,,4,4.5016,0,5,5,5,1,I would have difficulty just letting my mind wander without control or guidance.,1,6,,
,,,,,,,,,,,,,,,89624,001,2022-04-25_13h40.42.687,SPAMnetsValid,2021.1.4,Win32,59.78715772,,,,,,,,,,,,,,,,,,,,,,,,,,,,,,,,,,,,,,,,,,,,,,,,,,,,,,,,,,,,,,,,,,,,,,,,,,,,,,2,4.4024,0,6,6,6,1,I seldom notice the moods or feelings that different environments produce.,1,7,,
,,,,,,,,,,,,,,,89624,001,2022-04-25_13h40.42.687,SPAMnetsValid,2021.1.4,Win32,59.78715772,,,,,,,,,,,,,,,,,,,,,,,,,,,,,,,,,,,,,,,,,,,,,,,,,,,,,,,,,,,,,,,,,,,,,,,,,,,,,,2,3.0682,0,7,7,7,1,I experience a wide range of emotions or feelings.,0,8,,
,,,,,,,,,,,,,,,89624,001,2022-04-25_13h40.42.687,SPAMnetsValid,2021.1.4,Win32,59.78715772,,,,,,,,,,,,,,,,,,,,,,,,,,,,,,,,,,,,,,,,,,,,,,,,,,,,,,,,,,,,,,,,,,,,,,,,,,,,,,1,6.5438,0,8,8,8,1,"Sometimes when I am reading poetry or looking at a work of art, I feel a chill or wave of excitement.",0,9,,
,,,,,,,,,,,,,,,89624,001,2022-04-25_13h40.42.687,SPAMnetsValid,2021.1.4,Win32,59.78715772,,,,,,,,,,,,,,,,,,,,,,,,,,,,,,,,,,,,,,,,,,,,,,,,,,,,,,,,,,,,,,,,,,,,,,,,,,,,,,4,4.4191,0,9,9,9,1,I have little interest in speculating on the nature of the universe or the human condition.,1,10,,
,,,,,,,,,,,,,,,89624,001,2022-04-25_13h40.42.687,SPAMnetsValid,2021.1.4,Win32,59.78715772,,,,,,,,,,,,,,,,,,,,,,,,,,,,,,,,,,,,,,,,,,,,,,,,,,,,,,,,,,,,,,,,,,,,,,,,,,,,,,2,2.7332,0,10,10,10,1,I have a lot of intellectual curiosity.,0,11,,
,,,,,,,,,,,,,,,89624,001,2022-04-25_13h40.42.687,SPAMnetsValid,2021.1.4,Win32,59.78715772,,,,,,,,,,,,,,,,,,,,,,,,,,,,,,,,,,,,,,,,,,,,,,,,,,,,,,,,,,,,,,,,,,,,,,,,,,,,,,2,2.1963,0,11,11,11,1,I often enjoy playing with theories or abstract ideas.,0,12,,
,,,,,,,,,,,,,,,89624,001,2022-04-25_13h40.42.687,SPAMnetsValid,2021.1.4,Win32,59.78715772,,,,,,,,,,,,,,,,,,,,,,,,,,,,,,,,,,,,,,,,,,,,,,,,,,,,,,,,,,,,,,,,,,,,,,,,,,,,,,,,,,,,,,,,return,125.7816
