key_resp_3.keys,key_resp_3.rt,slider.response,slider.rt,rjt_rating,rjt_RT,trials_22.thisRepN,trials_22.thisTrialN,trials_22.thisN,trials_22.thisIndex,trials_22.ran,rjt_order,word1,word2,attention,participant,session,date,expName,psychopyVersion,OS,frameRate,trials_99.thisRepN,trials_99.thisTrialN,trials_99.thisN,trials_99.thisIndex,trials_99.ran,trials_5.thisRepN,trials_5.thisTrialN,trials_5.thisN,trials_5.thisIndex,trials_5.ran,repOne,repTwo,slider_2.response,slider_2.rt,trials_24.thisRepN,trials_24.thisTrialN,trials_24.thisN,trials_24.thisIndex,trials_24.ran,trials_4.thisRepN,trials_4.thisTrialN,trials_4.thisN,trials_4.thisIndex,trials_4.ran,slider_extend_2.response,slider_extend_2.rt,trials_6.thisRepN,trials_6.thisTrialN,trials_6.thisN,trials_6.thisIndex,trials_6.ran,vCue2,R1,R2,R3,R4,correct,sliderVocab.response,sliderVocab.rt,trials_7.thisRepN,trials_7.thisTrialN,trials_7.thisN,trials_7.thisIndex,trials_7.ran,VocabCue,VR1,VR2,VR3,VR4,VR5,VocabCorrect,AUT_resp,AUT_label,trials.thisRepN,trials.thisTrialN,trials.thisN,trials.thisIndex,trials.ran,trials_2.thisRepN,trials_2.thisTrialN,trials_2.thisN,trials_2.thisIndex,trials_2.ran,aut_prompt,VF_response,VF_tag,trials_16.thisRepN,trials_16.thisTrialN,trials_16.thisN,trials_16.thisIndex,trials_16.ran,trials_17.thisRepN,trials_17.thisTrialN,trials_17.thisN,trials_17.thisIndex,trials_17.ran,VFcond,open_slider.response,open_slider.rt,trials_3.thisRepN,trials_3.thisTrialN,trials_3.thisN,trials_3.thisIndex,trials_3.ran,OpenQ,Rev,OPEN_ORDER,key_resp_2.keys,key_resp_2.rt
return,15.7804,6,3.1217,6,3.1217,0,0,0,64,1,9,kitchen,refrigerator,,89642,001,2022-04-25_10h24.04.587,SPAMnetsValid,2021.1.4,Win32,59.94485074,,,,,,,,,,,,,,,,,,,,,,,,,,,,,,,,,,,,,,,,,,,,,,,,,,,,,,,,,,,,,,,,,,,,,,,,,,,,,,,,,,,,,,,,,
,,7,1.4499,7,1.4499,0,1,1,58,1,94,kitchen,microwave,,89642,001,2022-04-25_10h24.04.587,SPAMnetsValid,2021.1.4,Win32,59.94485074,,,,,,,,,,,,,,,,,,,,,,,,,,,,,,,,,,,,,,,,,,,,,,,,,,,,,,,,,,,,,,,,,,,,,,,,,,,,,,,,,,,,,,,,,
,,2,2.0623,2,2.0623,0,2,2,35,1,55,tomato,tree,,89642,001,2022-04-25_10h24.04.587,SPAMnetsValid,2021.1.4,Win32,59.94485074,,,,,,,,,,,,,,,,,,,,,,,,,,,,,,,,,,,,,,,,,,,,,,,,,,,,,,,,,,,,,,,,,,,,,,,,,,,,,,,,,,,,,,,,,
,,4,1.9993,4,1.9993,0,3,3,45,1,10,flower,onion,,89642,001,2022-04-25_10h24.04.587,SPAMnetsValid,2021.1.4,Win32,59.94485074,,,,,,,,,,,,,,,,,,,,,,,,,,,,,,,,,,,,,,,,,,,,,,,,,,,,,,,,,,,,,,,,,,,,,,,,,,,,,,,,,,,,,,,,,
,,4,1.506,4,1.506,0,4,4,65,1,46,garden,yogurt,,89642,001,2022-04-25_10h24.04.587,SPAMnetsValid,2021.1.4,Win32,59.94485074,,,,,,,,,,,,,,,,,,,,,,,,,,,,,,,,,,,,,,,,,,,,,,,,,,,,,,,,,,,,,,,,,,,,,,,,,,,,,,,,,,,,,,,,,
,,7,1.7018,7,1.7018,0,5,5,81,1,60,cactus,onion,,89642,001,2022-04-25_10h24.04.587,SPAMnetsValid,2021.1.4,Win32,59.94485074,,,,,,,,,,,,,,,,,,,,,,,,,,,,,,,,,,,,,,,,,,,,,,,,,,,,,,,,,,,,,,,,,,,,,,,,,,,,,,,,,,,,,,,,,
,,4,2.9714,4,2.9714,0,6,6,52,1,4,chocolate,pretzel,,89642,001,2022-04-25_10h24.04.587,SPAMnetsValid,2021.1.4,Win32,59.94485074,,,,,,,,,,,,,,,,,,,,,,,,,,,,,,,,,,,,,,,,,,,,,,,,,,,,,,,,,,,,,,,,,,,,,,,,,,,,,,,,,,,,,,,,,
,,5,1.1164,5,1.1164,0,7,7,24,1,17,carrot,melon,,89642,001,2022-04-25_10h24.04.587,SPAMnetsValid,2021.1.4,Win32,59.94485074,,,,,,,,,,,,,,,,,,,,,,,,,,,,,,,,,,,,,,,,,,,,,,,,,,,,,,,,,,,,,,,,,,,,,,,,,,,,,,,,,,,,,,,,,
,,3,1.7597,3,1.7597,0,8,8,92,1,44,cookie,melon,,89642,001,2022-04-25_10h24.04.587,SPAMnetsValid,2021.1.4,Win32,59.94485074,,,,,,,,,,,,,,,,,,,,,,,,,,,,,,,,,,,,,,,,,,,,,,,,,,,,,,,,,,,,,,,,,,,,,,,,,,,,,,,,,,,,,,,,,
,,4,1.8622,4,1.8622,0,9,9,57,1,62,kitchen,rose,,89642,001,2022-04-25_10h24.04.587,SPAMnetsValid,2021.1.4,Win32,59.94485074,,,,,,,,,,,,,,,,,,,,,,,,,,,,,,,,,,,,,,,,,,,,,,,,,,,,,,,,,,,,,,,,,,,,,,,,,,,,,,,,,,,,,,,,,
,,9,1.7026,9,1.7026,0,10,10,10,1,191,cake,cake,CHECK,89642,001,2022-04-25_10h24.04.587,SPAMnetsValid,2021.1.4,Win32,59.94485074,,,,,,,,,,,,,,,,,,,,,,,,,,,,,,,,,,,,,,,,,,,,,,,,,,,,,,,,,,,,,,,,,,,,,,,,,,,,,,,,,,,,,,,,,
,,3,2.1657,3,2.1657,0,11,11,20,1,39,melon,pretzel,,89642,001,2022-04-25_10h24.04.587,SPAMnetsValid,2021.1.4,Win32,59.94485074,,,,,,,,,,,,,,,,,,,,,,,,,,,,,,,,,,,,,,,,,,,,,,,,,,,,,,,,,,,,,,,,,,,,,,,,,,,,,,,,,,,,,,,,,
,,2,2.1355,2,2.1355,0,12,12,26,1,35,flower,pretzel,,89642,001,2022-04-25_10h24.04.587,SPAMnetsValid,2021.1.4,Win32,59.94485074,,,,,,,,,,,,,,,,,,,,,,,,,,,,,,,,,,,,,,,,,,,,,,,,,,,,,,,,,,,,,,,,,,,,,,,,,,,,,,,,,,,,,,,,,
,,6,2.2197,6,2.2197,0,13,13,49,1,57,flower,kitchen,,89642,001,2022-04-25_10h24.04.587,SPAMnetsValid,2021.1.4,Win32,59.94485074,,,,,,,,,,,,,,,,,,,,,,,,,,,,,,,,,,,,,,,,,,,,,,,,,,,,,,,,,,,,,,,,,,,,,,,,,,,,,,,,,,,,,,,,,
,,3,1.4774,3,1.4774,0,14,14,70,1,5,oven,tree,,89642,001,2022-04-25_10h24.04.587,SPAMnetsValid,2021.1.4,Win32,59.94485074,,,,,,,,,,,,,,,,,,,,,,,,,,,,,,,,,,,,,,,,,,,,,,,,,,,,,,,,,,,,,,,,,,,,,,,,,,,,,,,,,,,,,,,,,
,,8,1.7978,8,1.7978,0,15,15,87,1,79,garden,strawberry,,89642,001,2022-04-25_10h24.04.587,SPAMnetsValid,2021.1.4,Win32,59.94485074,,,,,,,,,,,,,,,,,,,,,,,,,,,,,,,,,,,,,,,,,,,,,,,,,,,,,,,,,,,,,,,,,,,,,,,,,,,,,,,,,,,,,,,,,
,,6,1.8998,6,1.8998,0,16,16,96,1,82,cake,kitchen,,89642,001,2022-04-25_10h24.04.587,SPAMnetsValid,2021.1.4,Win32,59.94485074,,,,,,,,,,,,,,,,,,,,,,,,,,,,,,,,,,,,,,,,,,,,,,,,,,,,,,,,,,,,,,,,,,,,,,,,,,,,,,,,,,,,,,,,,
,,4,2.2916,4,2.2916,0,17,17,18,1,85,cake,tree,,89642,001,2022-04-25_10h24.04.587,SPAMnetsValid,2021.1.4,Win32,59.94485074,,,,,,,,,,,,,,,,,,,,,,,,,,,,,,,,,,,,,,,,,,,,,,,,,,,,,,,,,,,,,,,,,,,,,,,,,,,,,,,,,,,,,,,,,
,,6,2.6947,6,2.6947,0,18,18,66,1,20,rose,tree,,89642,001,2022-04-25_10h24.04.587,SPAMnetsValid,2021.1.4,Win32,59.94485074,,,,,,,,,,,,,,,,,,,,,,,,,,,,,,,,,,,,,,,,,,,,,,,,,,,,,,,,,,,,,,,,,,,,,,,,,,,,,,,,,,,,,,,,,
,,3,1.9207,3,1.9207,0,19,19,14,1,64,chocolate,garden,,89642,001,2022-04-25_10h24.04.587,SPAMnetsValid,2021.1.4,Win32,59.94485074,,,,,,,,,,,,,,,,,,,,,,,,,,,,,,,,,,,,,,,,,,,,,,,,,,,,,,,,,,,,,,,,,,,,,,,,,,,,,,,,,,,,,,,,,
,,8,1.5325,8,1.5325,0,20,20,95,1,52,carrot,tomato,,89642,001,2022-04-25_10h24.04.587,SPAMnetsValid,2021.1.4,Win32,59.94485074,,,,,,,,,,,,,,,,,,,,,,,,,,,,,,,,,,,,,,,,,,,,,,,,,,,,,,,,,,,,,,,,,,,,,,,,,,,,,,,,,,,,,,,,,
,,3,1.5373,3,1.5373,0,21,21,59,1,8,broom,melon,,89642,001,2022-04-25_10h24.04.587,SPAMnetsValid,2021.1.4,Win32,59.94485074,,,,,,,,,,,,,,,,,,,,,,,,,,,,,,,,,,,,,,,,,,,,,,,,,,,,,,,,,,,,,,,,,,,,,,,,,,,,,,,,,,,,,,,,,
,,8,1.5695,8,1.5695,0,22,22,19,1,76,garden,rose,,89642,001,2022-04-25_10h24.04.587,SPAMnetsValid,2021.1.4,Win32,59.94485074,,,,,,,,,,,,,,,,,,,,,,,,,,,,,,,,,,,,,,,,,,,,,,,,,,,,,,,,,,,,,,,,,,,,,,,,,,,,,,,,,,,,,,,,,
,,2,1.6016,2,1.6016,0,23,23,12,1,67,flower,yogurt,,89642,001,2022-04-25_10h24.04.587,SPAMnetsValid,2021.1.4,Win32,59.94485074,,,,,,,,,,,,,,,,,,,,,,,,,,,,,,,,,,,,,,,,,,,,,,,,,,,,,,,,,,,,,,,,,,,,,,,,,,,,,,,,,,,,,,,,,
,,2,1.8353,2,1.8353,0,24,24,85,1,90,cactus,cake,,89642,001,2022-04-25_10h24.04.587,SPAMnetsValid,2021.1.4,Win32,59.94485074,,,,,,,,,,,,,,,,,,,,,,,,,,,,,,,,,,,,,,,,,,,,,,,,,,,,,,,,,,,,,,,,,,,,,,,,,,,,,,,,,,,,,,,,,
,,7,3.0025,7,3.0025,0,25,25,76,1,36,broom,kitchen,,89642,001,2022-04-25_10h24.04.587,SPAMnetsValid,2021.1.4,Win32,59.94485074,,,,,,,,,,,,,,,,,,,,,,,,,,,,,,,,,,,,,,,,,,,,,,,,,,,,,,,,,,,,,,,,,,,,,,,,,,,,,,,,,,,,,,,,,
,,2,1.6656,2,1.6656,0,26,26,43,1,11,refrigerator,tree,,89642,001,2022-04-25_10h24.04.587,SPAMnetsValid,2021.1.4,Win32,59.94485074,,,,,,,,,,,,,,,,,,,,,,,,,,,,,,,,,,,,,,,,,,,,,,,,,,,,,,,,,,,,,,,,,,,,,,,,,,,,,,,,,,,,,,,,,
,,4,2.2329,4,2.2329,0,27,27,9,1,75,cookie,onion,,89642,001,2022-04-25_10h24.04.587,SPAMnetsValid,2021.1.4,Win32,59.94485074,,,,,,,,,,,,,,,,,,,,,,,,,,,,,,,,,,,,,,,,,,,,,,,,,,,,,,,,,,,,,,,,,,,,,,,,,,,,,,,,,,,,,,,,,
,,3,1.5722,3,1.5722,0,28,28,47,1,73,broom,chocolate,,89642,001,2022-04-25_10h24.04.587,SPAMnetsValid,2021.1.4,Win32,59.94485074,,,,,,,,,,,,,,,,,,,,,,,,,,,,,,,,,,,,,,,,,,,,,,,,,,,,,,,,,,,,,,,,,,,,,,,,,,,,,,,,,,,,,,,,,
,,8,1.4325,8,1.4325,0,29,29,80,1,61,strawberry,tomato,,89642,001,2022-04-25_10h24.04.587,SPAMnetsValid,2021.1.4,Win32,59.94485074,,,,,,,,,,,,,,,,,,,,,,,,,,,,,,,,,,,,,,,,,,,,,,,,,,,,,,,,,,,,,,,,,,,,,,,,,,,,,,,,,,,,,,,,,
,,7,3.716,7,3.716,0,30,30,60,1,89,chocolate,rose,,89642,001,2022-04-25_10h24.04.587,SPAMnetsValid,2021.1.4,Win32,59.94485074,,,,,,,,,,,,,,,,,,,,,,,,,,,,,,,,,,,,,,,,,,,,,,,,,,,,,,,,,,,,,,,,,,,,,,,,,,,,,,,,,,,,,,,,,
,,7,2.6427,7,2.6427,0,31,31,51,1,47,onion,tomato,,89642,001,2022-04-25_10h24.04.587,SPAMnetsValid,2021.1.4,Win32,59.94485074,,,,,,,,,,,,,,,,,,,,,,,,,,,,,,,,,,,,,,,,,,,,,,,,,,,,,,,,,,,,,,,,,,,,,,,,,,,,,,,,,,,,,,,,,
,,3,1.5068,3,1.5068,0,32,32,79,1,86,oven,rose,,89642,001,2022-04-25_10h24.04.587,SPAMnetsValid,2021.1.4,Win32,59.94485074,,,,,,,,,,,,,,,,,,,,,,,,,,,,,,,,,,,,,,,,,,,,,,,,,,,,,,,,,,,,,,,,,,,,,,,,,,,,,,,,,,,,,,,,,
,,4,2.0246,4,2.0246,0,33,33,36,1,12,cookie,yogurt,,89642,001,2022-04-25_10h24.04.587,SPAMnetsValid,2021.1.4,Win32,59.94485074,,,,,,,,,,,,,,,,,,,,,,,,,,,,,,,,,,,,,,,,,,,,,,,,,,,,,,,,,,,,,,,,,,,,,,,,,,,,,,,,,,,,,,,,,
,,4,2.9563,4,2.9563,0,34,34,34,1,29,chocolate,melon,,89642,001,2022-04-25_10h24.04.587,SPAMnetsValid,2021.1.4,Win32,59.94485074,,,,,,,,,,,,,,,,,,,,,,,,,,,,,,,,,,,,,,,,,,,,,,,,,,,,,,,,,,,,,,,,,,,,,,,,,,,,,,,,,,,,,,,,,
,,4,1.7495,4,1.7495,0,35,35,22,1,16,chocolate,flower,,89642,001,2022-04-25_10h24.04.587,SPAMnetsValid,2021.1.4,Win32,59.94485074,,,,,,,,,,,,,,,,,,,,,,,,,,,,,,,,,,,,,,,,,,,,,,,,,,,,,,,,,,,,,,,,,,,,,,,,,,,,,,,,,,,,,,,,,
,,4,1.6667,4,1.6667,0,36,36,25,1,23,flower,microwave,,89642,001,2022-04-25_10h24.04.587,SPAMnetsValid,2021.1.4,Win32,59.94485074,,,,,,,,,,,,,,,,,,,,,,,,,,,,,,,,,,,,,,,,,,,,,,,,,,,,,,,,,,,,,,,,,,,,,,,,,,,,,,,,,,,,,,,,,
,,3,2.5533,3,2.5533,0,37,37,88,1,92,broom,flower,,89642,001,2022-04-25_10h24.04.587,SPAMnetsValid,2021.1.4,Win32,59.94485074,,,,,,,,,,,,,,,,,,,,,,,,,,,,,,,,,,,,,,,,,,,,,,,,,,,,,,,,,,,,,,,,,,,,,,,,,,,,,,,,,,,,,,,,,
,,7,1.4066,7,1.4066,0,38,38,44,1,25,carrot,onion,,89642,001,2022-04-25_10h24.04.587,SPAMnetsValid,2021.1.4,Win32,59.94485074,,,,,,,,,,,,,,,,,,,,,,,,,,,,,,,,,,,,,,,,,,,,,,,,,,,,,,,,,,,,,,,,,,,,,,,,,,,,,,,,,,,,,,,,,
,,4,1.6856,4,1.6856,0,39,39,28,1,84,oven,tomato,,89642,001,2022-04-25_10h24.04.587,SPAMnetsValid,2021.1.4,Win32,59.94485074,,,,,,,,,,,,,,,,,,,,,,,,,,,,,,,,,,,,,,,,,,,,,,,,,,,,,,,,,,,,,,,,,,,,,,,,,,,,,,,,,,,,,,,,,
,,3,2.9451,3,2.9451,0,40,40,68,1,24,cookie,tomato,,89642,001,2022-04-25_10h24.04.587,SPAMnetsValid,2021.1.4,Win32,59.94485074,,,,,,,,,,,,,,,,,,,,,,,,,,,,,,,,,,,,,,,,,,,,,,,,,,,,,,,,,,,,,,,,,,,,,,,,,,,,,,,,,,,,,,,,,
,,8,1.5182,8,1.5182,0,41,41,83,1,6,garden,onion,,89642,001,2022-04-25_10h24.04.587,SPAMnetsValid,2021.1.4,Win32,59.94485074,,,,,,,,,,,,,,,,,,,,,,,,,,,,,,,,,,,,,,,,,,,,,,,,,,,,,,,,,,,,,,,,,,,,,,,,,,,,,,,,,,,,,,,,,
,,4,2.5852,4,2.5852,0,42,42,50,1,81,pretzel,yogurt,,89642,001,2022-04-25_10h24.04.587,SPAMnetsValid,2021.1.4,Win32,59.94485074,,,,,,,,,,,,,,,,,,,,,,,,,,,,,,,,,,,,,,,,,,,,,,,,,,,,,,,,,,,,,,,,,,,,,,,,,,,,,,,,,,,,,,,,,
,,4,1.874,4,1.874,0,43,43,29,1,42,garden,kitchen,,89642,001,2022-04-25_10h24.04.587,SPAMnetsValid,2021.1.4,Win32,59.94485074,,,,,,,,,,,,,,,,,,,,,,,,,,,,,,,,,,,,,,,,,,,,,,,,,,,,,,,,,,,,,,,,,,,,,,,,,,,,,,,,,,,,,,,,,
,,8,1.9656,8,1.9656,0,44,44,93,1,63,cake,cookie,,89642,001,2022-04-25_10h24.04.587,SPAMnetsValid,2021.1.4,Win32,59.94485074,,,,,,,,,,,,,,,,,,,,,,,,,,,,,,,,,,,,,,,,,,,,,,,,,,,,,,,,,,,,,,,,,,,,,,,,,,,,,,,,,,,,,,,,,
,,7,2.1742,7,2.1742,0,45,45,21,1,56,cactus,tree,,89642,001,2022-04-25_10h24.04.587,SPAMnetsValid,2021.1.4,Win32,59.94485074,,,,,,,,,,,,,,,,,,,,,,,,,,,,,,,,,,,,,,,,,,,,,,,,,,,,,,,,,,,,,,,,,,,,,,,,,,,,,,,,,,,,,,,,,
,,3,1.5338,3,1.5338,0,46,46,48,1,66,melon,yogurt,,89642,001,2022-04-25_10h24.04.587,SPAMnetsValid,2021.1.4,Win32,59.94485074,,,,,,,,,,,,,,,,,,,,,,,,,,,,,,,,,,,,,,,,,,,,,,,,,,,,,,,,,,,,,,,,,,,,,,,,,,,,,,,,,,,,,,,,,
,,8,2.027,8,2.027,0,47,47,82,1,93,kitchen,oven,,89642,001,2022-04-25_10h24.04.587,SPAMnetsValid,2021.1.4,Win32,59.94485074,,,,,,,,,,,,,,,,,,,,,,,,,,,,,,,,,,,,,,,,,,,,,,,,,,,,,,,,,,,,,,,,,,,,,,,,,,,,,,,,,,,,,,,,,
,,4,2.0852,4,2.0852,0,48,48,23,1,65,broom,garden,,89642,001,2022-04-25_10h24.04.587,SPAMnetsValid,2021.1.4,Win32,59.94485074,,,,,,,,,,,,,,,,,,,,,,,,,,,,,,,,,,,,,,,,,,,,,,,,,,,,,,,,,,,,,,,,,,,,,,,,,,,,,,,,,,,,,,,,,
,,4,1.7231,4,1.7231,0,49,49,89,1,80,chocolate,tree,,89642,001,2022-04-25_10h24.04.587,SPAMnetsValid,2021.1.4,Win32,59.94485074,,,,,,,,,,,,,,,,,,,,,,,,,,,,,,,,,,,,,,,,,,,,,,,,,,,,,,,,,,,,,,,,,,,,,,,,,,,,,,,,,,,,,,,,,
,,4,1.357,4,1.357,0,50,50,61,1,71,broom,rose,,89642,001,2022-04-25_10h24.04.587,SPAMnetsValid,2021.1.4,Win32,59.94485074,,,,,,,,,,,,,,,,,,,,,,,,,,,,,,,,,,,,,,,,,,,,,,,,,,,,,,,,,,,,,,,,,,,,,,,,,,,,,,,,,,,,,,,,,
,,6,1.3449,6,1.3449,0,51,51,17,1,27,cactus,cookie,,89642,001,2022-04-25_10h24.04.587,SPAMnetsValid,2021.1.4,Win32,59.94485074,,,,,,,,,,,,,,,,,,,,,,,,,,,,,,,,,,,,,,,,,,,,,,,,,,,,,,,,,,,,,,,,,,,,,,,,,,,,,,,,,,,,,,,,,
,,6,1.6025,6,1.6025,0,52,52,74,1,70,chocolate,onion,,89642,001,2022-04-25_10h24.04.587,SPAMnetsValid,2021.1.4,Win32,59.94485074,,,,,,,,,,,,,,,,,,,,,,,,,,,,,,,,,,,,,,,,,,,,,,,,,,,,,,,,,,,,,,,,,,,,,,,,,,,,,,,,,,,,,,,,,
,,7,1.8229,7,1.8229,0,53,53,78,1,30,cookie,pretzel,,89642,001,2022-04-25_10h24.04.587,SPAMnetsValid,2021.1.4,Win32,59.94485074,,,,,,,,,,,,,,,,,,,,,,,,,,,,,,,,,,,,,,,,,,,,,,,,,,,,,,,,,,,,,,,,,,,,,,,,,,,,,,,,,,,,,,,,,
,,4,2.467,4,2.467,0,54,54,32,1,40,broom,cake,,89642,001,2022-04-25_10h24.04.587,SPAMnetsValid,2021.1.4,Win32,59.94485074,,,,,,,,,,,,,,,,,,,,,,,,,,,,,,,,,,,,,,,,,,,,,,,,,,,,,,,,,,,,,,,,,,,,,,,,,,,,,,,,,,,,,,,,,
,,4,1.6198,4,1.6198,0,55,55,5,1,13,broom,yogurt,,89642,001,2022-04-25_10h24.04.587,SPAMnetsValid,2021.1.4,Win32,59.94485074,,,,,,,,,,,,,,,,,,,,,,,,,,,,,,,,,,,,,,,,,,,,,,,,,,,,,,,,,,,,,,,,,,,,,,,,,,,,,,,,,,,,,,,,,
,,7,2.0972,7,2.0972,0,56,56,75,1,69,carrot,refrigerator,,89642,001,2022-04-25_10h24.04.587,SPAMnetsValid,2021.1.4,Win32,59.94485074,,,,,,,,,,,,,,,,,,,,,,,,,,,,,,,,,,,,,,,,,,,,,,,,,,,,,,,,,,,,,,,,,,,,,,,,,,,,,,,,,,,,,,,,,
,,4,1.8512,4,1.8512,0,57,57,33,1,32,cake,microwave,,89642,001,2022-04-25_10h24.04.587,SPAMnetsValid,2021.1.4,Win32,59.94485074,,,,,,,,,,,,,,,,,,,,,,,,,,,,,,,,,,,,,,,,,,,,,,,,,,,,,,,,,,,,,,,,,,,,,,,,,,,,,,,,,,,,,,,,,
,,4,1.2896,4,1.2896,0,58,58,54,1,28,cake,melon,,89642,001,2022-04-25_10h24.04.587,SPAMnetsValid,2021.1.4,Win32,59.94485074,,,,,,,,,,,,,,,,,,,,,,,,,,,,,,,,,,,,,,,,,,,,,,,,,,,,,,,,,,,,,,,,,,,,,,,,,,,,,,,,,,,,,,,,,
,,6,2.7988,6,2.7988,0,59,59,94,1,68,flower,tomato,,89642,001,2022-04-25_10h24.04.587,SPAMnetsValid,2021.1.4,Win32,59.94485074,,,,,,,,,,,,,,,,,,,,,,,,,,,,,,,,,,,,,,,,,,,,,,,,,,,,,,,,,,,,,,,,,,,,,,,,,,,,,,,,,,,,,,,,,
,,4,1.7671,4,1.7671,0,60,60,67,1,54,chocolate,yogurt,,89642,001,2022-04-25_10h24.04.587,SPAMnetsValid,2021.1.4,Win32,59.94485074,,,,,,,,,,,,,,,,,,,,,,,,,,,,,,,,,,,,,,,,,,,,,,,,,,,,,,,,,,,,,,,,,,,,,,,,,,,,,,,,,,,,,,,,,
,,4,1.3704,4,1.3704,0,61,61,27,1,72,broom,onion,,89642,001,2022-04-25_10h24.04.587,SPAMnetsValid,2021.1.4,Win32,59.94485074,,,,,,,,,,,,,,,,,,,,,,,,,,,,,,,,,,,,,,,,,,,,,,,,,,,,,,,,,,,,,,,,,,,,,,,,,,,,,,,,,,,,,,,,,
,,6,1.9183,6,1.9183,0,62,62,6,1,87,carrot,yogurt,,89642,001,2022-04-25_10h24.04.587,SPAMnetsValid,2021.1.4,Win32,59.94485074,,,,,,,,,,,,,,,,,,,,,,,,,,,,,,,,,,,,,,,,,,,,,,,,,,,,,,,,,,,,,,,,,,,,,,,,,,,,,,,,,,,,,,,,,
,,4,2.9668,4,2.9668,0,63,63,71,1,38,pretzel,refrigerator,,89642,001,2022-04-25_10h24.04.587,SPAMnetsValid,2021.1.4,Win32,59.94485074,,,,,,,,,,,,,,,,,,,,,,,,,,,,,,,,,,,,,,,,,,,,,,,,,,,,,,,,,,,,,,,,,,,,,,,,,,,,,,,,,,,,,,,,,
,,7,1.9523,7,1.9523,0,64,64,30,1,3,cake,oven,,89642,001,2022-04-25_10h24.04.587,SPAMnetsValid,2021.1.4,Win32,59.94485074,,,,,,,,,,,,,,,,,,,,,,,,,,,,,,,,,,,,,,,,,,,,,,,,,,,,,,,,,,,,,,,,,,,,,,,,,,,,,,,,,,,,,,,,,
,,4,1.8009,4,1.8009,0,65,65,77,1,7,melon,tree,,89642,001,2022-04-25_10h24.04.587,SPAMnetsValid,2021.1.4,Win32,59.94485074,,,,,,,,,,,,,,,,,,,,,,,,,,,,,,,,,,,,,,,,,,,,,,,,,,,,,,,,,,,,,,,,,,,,,,,,,,,,,,,,,,,,,,,,,
,,6,2.6304,6,2.6304,0,66,66,38,1,88,cactus,melon,,89642,001,2022-04-25_10h24.04.587,SPAMnetsValid,2021.1.4,Win32,59.94485074,,,,,,,,,,,,,,,,,,,,,,,,,,,,,,,,,,,,,,,,,,,,,,,,,,,,,,,,,,,,,,,,,,,,,,,,,,,,,,,,,,,,,,,,,
,,5,2.4357,5,2.4357,0,67,67,7,1,34,melon,oven,,89642,001,2022-04-25_10h24.04.587,SPAMnetsValid,2021.1.4,Win32,59.94485074,,,,,,,,,,,,,,,,,,,,,,,,,,,,,,,,,,,,,,,,,,,,,,,,,,,,,,,,,,,,,,,,,,,,,,,,,,,,,,,,,,,,,,,,,
,,4,2.0021,4,2.0021,0,68,68,16,1,14,broom,cookie,,89642,001,2022-04-25_10h24.04.587,SPAMnetsValid,2021.1.4,Win32,59.94485074,,,,,,,,,,,,,,,,,,,,,,,,,,,,,,,,,,,,,,,,,,,,,,,,,,,,,,,,,,,,,,,,,,,,,,,,,,,,,,,,,,,,,,,,,
,,4,1.8744,4,1.8744,0,69,69,41,1,19,microwave,pretzel,,89642,001,2022-04-25_10h24.04.587,SPAMnetsValid,2021.1.4,Win32,59.94485074,,,,,,,,,,,,,,,,,,,,,,,,,,,,,,,,,,,,,,,,,,,,,,,,,,,,,,,,,,,,,,,,,,,,,,,,,,,,,,,,,,,,,,,,,
,,3,1.1031,3,1.1031,0,70,70,40,1,74,broom,pretzel,,89642,001,2022-04-25_10h24.04.587,SPAMnetsValid,2021.1.4,Win32,59.94485074,,,,,,,,,,,,,,,,,,,,,,,,,,,,,,,,,,,,,,,,,,,,,,,,,,,,,,,,,,,,,,,,,,,,,,,,,,,,,,,,,,,,,,,,,
,,6,1.5187,6,1.5187,0,71,71,86,1,51,onion,strawberry,,89642,001,2022-04-25_10h24.04.587,SPAMnetsValid,2021.1.4,Win32,59.94485074,,,,,,,,,,,,,,,,,,,,,,,,,,,,,,,,,,,,,,,,,,,,,,,,,,,,,,,,,,,,,,,,,,,,,,,,,,,,,,,,,,,,,,,,,
,,4,1.8869,4,1.8869,0,72,72,56,1,78,cookie,rose,,89642,001,2022-04-25_10h24.04.587,SPAMnetsValid,2021.1.4,Win32,59.94485074,,,,,,,,,,,,,,,,,,,,,,,,,,,,,,,,,,,,,,,,,,,,,,,,,,,,,,,,,,,,,,,,,,,,,,,,,,,,,,,,,,,,,,,,,
,,3,2.9588,3,2.9588,0,73,73,15,1,48,flower,oven,,89642,001,2022-04-25_10h24.04.587,SPAMnetsValid,2021.1.4,Win32,59.94485074,,,,,,,,,,,,,,,,,,,,,,,,,,,,,,,,,,,,,,,,,,,,,,,,,,,,,,,,,,,,,,,,,,,,,,,,,,,,,,,,,,,,,,,,,
,,8,1.4714,8,1.4714,0,74,74,42,1,77,refrigerator,yogurt,,89642,001,2022-04-25_10h24.04.587,SPAMnetsValid,2021.1.4,Win32,59.94485074,,,,,,,,,,,,,,,,,,,,,,,,,,,,,,,,,,,,,,,,,,,,,,,,,,,,,,,,,,,,,,,,,,,,,,,,,,,,,,,,,,,,,,,,,
,,2,1.5898,2,1.5898,0,75,75,11,1,37,garden,refrigerator,,89642,001,2022-04-25_10h24.04.587,SPAMnetsValid,2021.1.4,Win32,59.94485074,,,,,,,,,,,,,,,,,,,,,,,,,,,,,,,,,,,,,,,,,,,,,,,,,,,,,,,,,,,,,,,,,,,,,,,,,,,,,,,,,,,,,,,,,
,,3,2.136,3,2.136,0,76,76,37,1,58,garden,oven,,89642,001,2022-04-25_10h24.04.587,SPAMnetsValid,2021.1.4,Win32,59.94485074,,,,,,,,,,,,,,,,,,,,,,,,,,,,,,,,,,,,,,,,,,,,,,,,,,,,,,,,,,,,,,,,,,,,,,,,,,,,,,,,,,,,,,,,,
,,3,1.3607,3,1.3607,0,77,77,31,1,33,oven,yogurt,,89642,001,2022-04-25_10h24.04.587,SPAMnetsValid,2021.1.4,Win32,59.94485074,,,,,,,,,,,,,,,,,,,,,,,,,,,,,,,,,,,,,,,,,,,,,,,,,,,,,,,,,,,,,,,,,,,,,,,,,,,,,,,,,,,,,,,,,
,,4,1.7945,4,1.7945,0,78,78,8,1,43,chocolate,tomato,,89642,001,2022-04-25_10h24.04.587,SPAMnetsValid,2021.1.4,Win32,59.94485074,,,,,,,,,,,,,,,,,,,,,,,,,,,,,,,,,,,,,,,,,,,,,,,,,,,,,,,,,,,,,,,,,,,,,,,,,,,,,,,,,,,,,,,,,
,,6,1.6997,6,1.6997,0,79,79,39,1,15,onion,oven,,89642,001,2022-04-25_10h24.04.587,SPAMnetsValid,2021.1.4,Win32,59.94485074,,,,,,,,,,,,,,,,,,,,,,,,,,,,,,,,,,,,,,,,,,,,,,,,,,,,,,,,,,,,,,,,,,,,,,,,,,,,,,,,,,,,,,,,,
,,4,3.7967,4,3.7967,0,80,80,4,1,83,broom,carrot,,89642,001,2022-04-25_10h24.04.587,SPAMnetsValid,2021.1.4,Win32,59.94485074,,,,,,,,,,,,,,,,,,,,,,,,,,,,,,,,,,,,,,,,,,,,,,,,,,,,,,,,,,,,,,,,,,,,,,,,,,,,,,,,,,,,,,,,,
,,4,2.2999,4,2.2999,0,81,81,13,1,26,tomato,yogurt,,89642,001,2022-04-25_10h24.04.587,SPAMnetsValid,2021.1.4,Win32,59.94485074,,,,,,,,,,,,,,,,,,,,,,,,,,,,,,,,,,,,,,,,,,,,,,,,,,,,,,,,,,,,,,,,,,,,,,,,,,,,,,,,,,,,,,,,,
,,3,2.4513,3,2.4513,0,82,82,63,1,21,cake,onion,,89642,001,2022-04-25_10h24.04.587,SPAMnetsValid,2021.1.4,Win32,59.94485074,,,,,,,,,,,,,,,,,,,,,,,,,,,,,,,,,,,,,,,,,,,,,,,,,,,,,,,,,,,,,,,,,,,,,,,,,,,,,,,,,,,,,,,,,
,,6,2.7561,6,2.7561,0,83,83,73,1,50,carrot,rose,,89642,001,2022-04-25_10h24.04.587,SPAMnetsValid,2021.1.4,Win32,59.94485074,,,,,,,,,,,,,,,,,,,,,,,,,,,,,,,,,,,,,,,,,,,,,,,,,,,,,,,,,,,,,,,,,,,,,,,,,,,,,,,,,,,,,,,,,
,,4,1.4498,4,1.4498,0,84,84,84,1,91,microwave,rose,,89642,001,2022-04-25_10h24.04.587,SPAMnetsValid,2021.1.4,Win32,59.94485074,,,,,,,,,,,,,,,,,,,,,,,,,,,,,,,,,,,,,,,,,,,,,,,,,,,,,,,,,,,,,,,,,,,,,,,,,,,,,,,,,,,,,,,,,
,,6,1.5419,6,1.5419,0,85,85,3,1,49,flower,strawberry,,89642,001,2022-04-25_10h24.04.587,SPAMnetsValid,2021.1.4,Win32,59.94485074,,,,,,,,,,,,,,,,,,,,,,,,,,,,,,,,,,,,,,,,,,,,,,,,,,,,,,,,,,,,,,,,,,,,,,,,,,,,,,,,,,,,,,,,,
,,4,1.2978,4,1.2978,0,86,86,46,1,41,broom,cactus,,89642,001,2022-04-25_10h24.04.587,SPAMnetsValid,2021.1.4,Win32,59.94485074,,,,,,,,,,,,,,,,,,,,,,,,,,,,,,,,,,,,,,,,,,,,,,,,,,,,,,,,,,,,,,,,,,,,,,,,,,,,,,,,,,,,,,,,,
,,6,1.1653,6,1.1653,0,87,87,69,1,45,onion,pretzel,,89642,001,2022-04-25_10h24.04.587,SPAMnetsValid,2021.1.4,Win32,59.94485074,,,,,,,,,,,,,,,,,,,,,,,,,,,,,,,,,,,,,,,,,,,,,,,,,,,,,,,,,,,,,,,,,,,,,,,,,,,,,,,,,,,,,,,,,
,,4,1.1066,4,1.1066,0,88,88,55,1,1,rose,yogurt,,89642,001,2022-04-25_10h24.04.587,SPAMnetsValid,2021.1.4,Win32,59.94485074,,,,,,,,,,,,,,,,,,,,,,,,,,,,,,,,,,,,,,,,,,,,,,,,,,,,,,,,,,,,,,,,,,,,,,,,,,,,,,,,,,,,,,,,,
,,6,1.3527,6,1.3527,0,89,89,2,1,22,kitchen,strawberry,,89642,001,2022-04-25_10h24.04.587,SPAMnetsValid,2021.1.4,Win32,59.94485074,,,,,,,,,,,,,,,,,,,,,,,,,,,,,,,,,,,,,,,,,,,,,,,,,,,,,,,,,,,,,,,,,,,,,,,,,,,,,,,,,,,,,,,,,
,,3,1.4876,3,1.4876,0,90,90,1,1,31,cactus,pretzel,,89642,001,2022-04-25_10h24.04.587,SPAMnetsValid,2021.1.4,Win32,59.94485074,,,,,,,,,,,,,,,,,,,,,,,,,,,,,,,,,,,,,,,,,,,,,,,,,,,,,,,,,,,,,,,,,,,,,,,,,,,,,,,,,,,,,,,,,
,,7,1.3193,7,1.3193,0,91,91,62,1,18,onion,refrigerator,,89642,001,2022-04-25_10h24.04.587,SPAMnetsValid,2021.1.4,Win32,59.94485074,,,,,,,,,,,,,,,,,,,,,,,,,,,,,,,,,,,,,,,,,,,,,,,,,,,,,,,,,,,,,,,,,,,,,,,,,,,,,,,,,,,,,,,,,
,,9,2.5358,9,2.5358,0,92,92,53,1,192,microwave,microwave,CHECK,89642,001,2022-04-25_10h24.04.587,SPAMnetsValid,2021.1.4,Win32,59.94485074,,,,,,,,,,,,,,,,,,,,,,,,,,,,,,,,,,,,,,,,,,,,,,,,,,,,,,,,,,,,,,,,,,,,,,,,,,,,,,,,,,,,,,,,,
,,6,1.3524,6,1.3524,0,93,93,91,1,2,kitchen,onion,,89642,001,2022-04-25_10h24.04.587,SPAMnetsValid,2021.1.4,Win32,59.94485074,,,,,,,,,,,,,,,,,,,,,,,,,,,,,,,,,,,,,,,,,,,,,,,,,,,,,,,,,,,,,,,,,,,,,,,,,,,,,,,,,,,,,,,,,
,,3,1.8857,3,1.8857,0,94,94,0,1,53,garden,pretzel,,89642,001,2022-04-25_10h24.04.587,SPAMnetsValid,2021.1.4,Win32,59.94485074,,,,,,,,,,,,,,,,,,,,,,,,,,,,,,,,,,,,,,,,,,,,,,,,,,,,,,,,,,,,,,,,,,,,,,,,,,,,,,,,,,,,,,,,,
,,7,1.193,7,1.193,0,95,95,72,1,59,rose,strawberry,,89642,001,2022-04-25_10h24.04.587,SPAMnetsValid,2021.1.4,Win32,59.94485074,,,,,,,,,,,,,,,,,,,,,,,,,,,,,,,,,,,,,,,,,,,,,,,,,,,,,,,,,,,,,,,,,,,,,,,,,,,,,,,,,,,,,,,,,
,,4,1.1954,4,1.1954,0,96,96,90,1,95,broom,refrigerator,,89642,001,2022-04-25_10h24.04.587,SPAMnetsValid,2021.1.4,Win32,59.94485074,,,,,,,,,,,,,,,,,,,,,,,,,,,,,,,,,,,,,,,,,,,,,,,,,,,,,,,,,,,,,,,,,,,,,,,,,,,,,,,,,,,,,,,,,
,,,,,,,,,,,,,,,89642,001,2022-04-25_10h24.04.587,SPAMnetsValid,2021.1.4,Win32,59.94485074,0,0,0,0,1,,,,,,,,,,,,,,,,,,,,,,,,,,,,,,,,,,,,,,,,,,,,,,,,,,,,,,,,,,,,,,,,,,,,,,,,,,,,,,,,,,,,
,,,,,,,,,,,,,,,89642,001,2022-04-25_10h24.04.587,SPAMnetsValid,2021.1.4,Win32,59.94485074,,,,,,0,0,0,0,1,1,0,,,,,,,,,,,,,,,,,,,,,,,,,,,,,,,,,,,,,,,,,,,,,,,,,,,,,,,,,,,,,,,,,,,,,,,,,,,,,
,,,,8,2.6099,,,,,,116,cake,chocolate,,89642,001,2022-04-25_10h24.04.587,SPAMnetsValid,2021.1.4,Win32,59.94485074,,,,,,,,,,,,,8,2.6099,0,0,0,44,1,,,,,,,,,,,,,,,,,,,,,,,,,,,,,,,,,,,,,,,,,,,,,,,,,,,,,,,,,,,,,,,,,,,,,,
,,,,3,1.215,,,,,,128,melon,microwave,,89642,001,2022-04-25_10h24.04.587,SPAMnetsValid,2021.1.4,Win32,59.94485074,,,,,,,,,,,,,3,1.215,0,1,1,74,1,,,,,,,,,,,,,,,,,,,,,,,,,,,,,,,,,,,,,,,,,,,,,,,,,,,,,,,,,,,,,,,,,,,,,,
,,,,8,1.1986,,,,,,122,flower,garden,,89642,001,2022-04-25_10h24.04.587,SPAMnetsValid,2021.1.4,Win32,59.94485074,,,,,,,,,,,,,8,1.1986,0,2,2,60,1,,,,,,,,,,,,,,,,,,,,,,,,,,,,,,,,,,,,,,,,,,,,,,,,,,,,,,,,,,,,,,,,,,,,,,
,,,,2,0.9927,,,,,,105,cactus,oven,,89642,001,2022-04-25_10h24.04.587,SPAMnetsValid,2021.1.4,Win32,59.94485074,,,,,,,,,,,,,2,0.9927,0,3,3,13,1,,,,,,,,,,,,,,,,,,,,,,,,,,,,,,,,,,,,,,,,,,,,,,,,,,,,,,,,,,,,,,,,,,,,,,
,,,,7,0.9861,,,,,,175,melon,onion,,89642,001,2022-04-25_10h24.04.587,SPAMnetsValid,2021.1.4,Win32,59.94485074,,,,,,,,,,,,,7,0.9861,0,4,4,41,1,,,,,,,,,,,,,,,,,,,,,,,,,,,,,,,,,,,,,,,,,,,,,,,,,,,,,,,,,,,,,,,,,,,,,,
,,,,8,2.5648,,,,,,138,flower,rose,,89642,001,2022-04-25_10h24.04.587,SPAMnetsValid,2021.1.4,Win32,59.94485074,,,,,,,,,,,,,8,2.5648,0,5,5,61,1,,,,,,,,,,,,,,,,,,,,,,,,,,,,,,,,,,,,,,,,,,,,,,,,,,,,,,,,,,,,,,,,,,,,,,
,,,,7,1.9927,,,,,,140,cookie,refrigerator,,89642,001,2022-04-25_10h24.04.587,SPAMnetsValid,2021.1.4,Win32,59.94485074,,,,,,,,,,,,,7,1.9927,0,6,6,89,1,,,,,,,,,,,,,,,,,,,,,,,,,,,,,,,,,,,,,,,,,,,,,,,,,,,,,,,,,,,,,,,,,,,,,,
,,,,6,1.0185,,,,,,118,chocolate,oven,,89642,001,2022-04-25_10h24.04.587,SPAMnetsValid,2021.1.4,Win32,59.94485074,,,,,,,,,,,,,6,1.0185,0,7,7,10,1,,,,,,,,,,,,,,,,,,,,,,,,,,,,,,,,,,,,,,,,,,,,,,,,,,,,,,,,,,,,,,,,,,,,,,
,,,,3,1.3721,,,,,,103,pretzel,tomato,,89642,001,2022-04-25_10h24.04.587,SPAMnetsValid,2021.1.4,Win32,59.94485074,,,,,,,,,,,,,3,1.3721,0,8,8,79,1,,,,,,,,,,,,,,,,,,,,,,,,,,,,,,,,,,,,,,,,,,,,,,,,,,,,,,,,,,,,,,,,,,,,,,
,,,,6,0.9904,,,,,,124,oven,refrigerator,,89642,001,2022-04-25_10h24.04.587,SPAMnetsValid,2021.1.4,Win32,59.94485074,,,,,,,,,,,,,6,0.9904,0,9,9,69,1,,,,,,,,,,,,,,,,,,,,,,,,,,,,,,,,,,,,,,,,,,,,,,,,,,,,,,,,,,,,,,,,,,,,,,
,,,,6,1.3751,,,,,,184,oven,pretzel,,89642,001,2022-04-25_10h24.04.587,SPAMnetsValid,2021.1.4,Win32,59.94485074,,,,,,,,,,,,,6,1.3751,0,10,10,42,1,,,,,,,,,,,,,,,,,,,,,,,,,,,,,,,,,,,,,,,,,,,,,,,,,,,,,,,,,,,,,,,,,,,,,,
,,,,8,1.3168,,,,,,100,garden,tomato,,89642,001,2022-04-25_10h24.04.587,SPAMnetsValid,2021.1.4,Win32,59.94485074,,,,,,,,,,,,,8,1.3168,0,11,11,83,1,,,,,,,,,,,,,,,,,,,,,,,,,,,,,,,,,,,,,,,,,,,,,,,,,,,,,,,,,,,,,,,,,,,,,,
,,,,4,1.8123,,,,,,144,cake,garden,,89642,001,2022-04-25_10h24.04.587,SPAMnetsValid,2021.1.4,Win32,59.94485074,,,,,,,,,,,,,4,1.8123,0,12,12,58,1,,,,,,,,,,,,,,,,,,,,,,,,,,,,,,,,,,,,,,,,,,,,,,,,,,,,,,,,,,,,,,,,,,,,,,
,,,,6,1.0702,,,,,,173,kitchen,tomato,,89642,001,2022-04-25_10h24.04.587,SPAMnetsValid,2021.1.4,Win32,59.94485074,,,,,,,,,,,,,6,1.0702,0,13,13,1,1,,,,,,,,,,,,,,,,,,,,,,,,,,,,,,,,,,,,,,,,,,,,,,,,,,,,,,,,,,,,,,,,,,,,,,
,,,,7,1.5563,,,,,,110,chocolate,cookie,,89642,001,2022-04-25_10h24.04.587,SPAMnetsValid,2021.1.4,Win32,59.94485074,,,,,,,,,,,,,7,1.5563,0,14,14,52,1,,,,,,,,,,,,,,,,,,,,,,,,,,,,,,,,,,,,,,,,,,,,,,,,,,,,,,,,,,,,,,,,,,,,,,
,,,,6,1.6037,,,,,,119,strawberry,tree,,89642,001,2022-04-25_10h24.04.587,SPAMnetsValid,2021.1.4,Win32,59.94485074,,,,,,,,,,,,,6,1.6037,0,15,15,18,1,,,,,,,,,,,,,,,,,,,,,,,,,,,,,,,,,,,,,,,,,,,,,,,,,,,,,,,,,,,,,,,,,,,,,,
,,,,8,1.5662,,,,,,136,chocolate,microwave,,89642,001,2022-04-25_10h24.04.587,SPAMnetsValid,2021.1.4,Win32,59.94485074,,,,,,,,,,,,,8,1.5662,0,16,16,96,1,,,,,,,,,,,,,,,,,,,,,,,,,,,,,,,,,,,,,,,,,,,,,,,,,,,,,,,,,,,,,,,,,,,,,,
,,,,3,1.7479,,,,,,159,cookie,flower,,89642,001,2022-04-25_10h24.04.587,SPAMnetsValid,2021.1.4,Win32,59.94485074,,,,,,,,,,,,,3,1.7479,0,17,17,21,1,,,,,,,,,,,,,,,,,,,,,,,,,,,,,,,,,,,,,,,,,,,,,,,,,,,,,,,,,,,,,,,,,,,,,,
,,,,5,2.8415,,,,,,114,cookie,strawberry,,89642,001,2022-04-25_10h24.04.587,SPAMnetsValid,2021.1.4,Win32,59.94485074,,,,,,,,,,,,,5,2.8415,0,18,18,87,1,,,,,,,,,,,,,,,,,,,,,,,,,,,,,,,,,,,,,,,,,,,,,,,,,,,,,,,,,,,,,,,,,,,,,,
,,,,5,1.2747,,,,,,123,cookie,tree,,89642,001,2022-04-25_10h24.04.587,SPAMnetsValid,2021.1.4,Win32,59.94485074,,,,,,,,,,,,,5,1.2747,0,19,19,46,1,,,,,,,,,,,,,,,,,,,,,,,,,,,,,,,,,,,,,,,,,,,,,,,,,,,,,,,,,,,,,,,,,,,,,,
,,,,5,0.1854,,,,,,179,broom,oven,,89642,001,2022-04-25_10h24.04.587,SPAMnetsValid,2021.1.4,Win32,59.94485074,,,,,,,,,,,,,5,0.1854,0,20,20,45,1,,,,,,,,,,,,,,,,,,,,,,,,,,,,,,,,,,,,,,,,,,,,,,,,,,,,,,,,,,,,,,,,,,,,,,
,,,,4,1.7852,,,,,,180,tree,yogurt,,89642,001,2022-04-25_10h24.04.587,SPAMnetsValid,2021.1.4,Win32,59.94485074,,,,,,,,,,,,,4,1.7852,0,21,21,68,1,,,,,,,,,,,,,,,,,,,,,,,,,,,,,,,,,,,,,,,,,,,,,,,,,,,,,,,,,,,,,,,,,,,,,,
,,,,6,1.3631,,,,,,181,carrot,kitchen,,89642,001,2022-04-25_10h24.04.587,SPAMnetsValid,2021.1.4,Win32,59.94485074,,,,,,,,,,,,,6,1.3631,0,22,22,72,1,,,,,,,,,,,,,,,,,,,,,,,,,,,,,,,,,,,,,,,,,,,,,,,,,,,,,,,,,,,,,,,,,,,,,,
,,,,6,2.8774,,,,,,106,cake,strawberry,,89642,001,2022-04-25_10h24.04.587,SPAMnetsValid,2021.1.4,Win32,59.94485074,,,,,,,,,,,,,6,2.8774,0,23,23,0,1,,,,,,,,,,,,,,,,,,,,,,,,,,,,,,,,,,,,,,,,,,,,,,,,,,,,,,,,,,,,,,,,,,,,,,
,,,,6,1.7199,,,,,,141,melon,tomato,,89642,001,2022-04-25_10h24.04.587,SPAMnetsValid,2021.1.4,Win32,59.94485074,,,,,,,,,,,,,6,1.7199,0,24,24,70,1,,,,,,,,,,,,,,,,,,,,,,,,,,,,,,,,,,,,,,,,,,,,,,,,,,,,,,,,,,,,,,,,,,,,,,
,,,,6,1.7343,,,,,,160,cookie,kitchen,,89642,001,2022-04-25_10h24.04.587,SPAMnetsValid,2021.1.4,Win32,59.94485074,,,,,,,,,,,,,6,1.7343,0,25,25,65,1,,,,,,,,,,,,,,,,,,,,,,,,,,,,,,,,,,,,,,,,,,,,,,,,,,,,,,,,,,,,,,,,,,,,,,
,,,,4,1.3557,,,,,,126,kitchen,tree,,89642,001,2022-04-25_10h24.04.587,SPAMnetsValid,2021.1.4,Win32,59.94485074,,,,,,,,,,,,,4,1.3557,0,26,26,50,1,,,,,,,,,,,,,,,,,,,,,,,,,,,,,,,,,,,,,,,,,,,,,,,,,,,,,,,,,,,,,,,,,,,,,,
,,,,6,1.5658,,,,,,98,pretzel,strawberry,,89642,001,2022-04-25_10h24.04.587,SPAMnetsValid,2021.1.4,Win32,59.94485074,,,,,,,,,,,,,6,1.5658,0,27,27,82,1,,,,,,,,,,,,,,,,,,,,,,,,,,,,,,,,,,,,,,,,,,,,,,,,,,,,,,,,,,,,,,,,,,,,,,
,,,,5,1.4011,,,,,,148,flower,melon,,89642,001,2022-04-25_10h24.04.587,SPAMnetsValid,2021.1.4,Win32,59.94485074,,,,,,,,,,,,,5,1.4011,0,28,28,23,1,,,,,,,,,,,,,,,,,,,,,,,,,,,,,,,,,,,,,,,,,,,,,,,,,,,,,,,,,,,,,,,,,,,,,,
,,,,5,1.6929,,,,,,139,carrot,strawberry,,89642,001,2022-04-25_10h24.04.587,SPAMnetsValid,2021.1.4,Win32,59.94485074,,,,,,,,,,,,,5,1.6929,0,29,29,37,1,,,,,,,,,,,,,,,,,,,,,,,,,,,,,,,,,,,,,,,,,,,,,,,,,,,,,,,,,,,,,,,,,,,,,,
,,,,6,1.144,,,,,,107,rose,tomato,,89642,001,2022-04-25_10h24.04.587,SPAMnetsValid,2021.1.4,Win32,59.94485074,,,,,,,,,,,,,6,1.144,0,30,30,26,1,,,,,,,,,,,,,,,,,,,,,,,,,,,,,,,,,,,,,,,,,,,,,,,,,,,,,,,,,,,,,,,,,,,,,,
,,,,3,1.3446,,,,,,127,cactus,chocolate,,89642,001,2022-04-25_10h24.04.587,SPAMnetsValid,2021.1.4,Win32,59.94485074,,,,,,,,,,,,,3,1.3446,0,31,31,57,1,,,,,,,,,,,,,,,,,,,,,,,,,,,,,,,,,,,,,,,,,,,,,,,,,,,,,,,,,,,,,,,,,,,,,,
,,,,4,1.5361,,,,,,143,pretzel,rose,,89642,001,2022-04-25_10h24.04.587,SPAMnetsValid,2021.1.4,Win32,59.94485074,,,,,,,,,,,,,4,1.5361,0,32,32,55,1,,,,,,,,,,,,,,,,,,,,,,,,,,,,,,,,,,,,,,,,,,,,,,,,,,,,,,,,,,,,,,,,,,,,,,
,,,,4,1.5526,,,,,,155,carrot,cookie,,89642,001,2022-04-25_10h24.04.587,SPAMnetsValid,2021.1.4,Win32,59.94485074,,,,,,,,,,,,,4,1.5526,0,33,33,38,1,,,,,,,,,,,,,,,,,,,,,,,,,,,,,,,,,,,,,,,,,,,,,,,,,,,,,,,,,,,,,,,,,,,,,,
,,,,5,1.8319,,,,,,101,cactus,kitchen,,89642,001,2022-04-25_10h24.04.587,SPAMnetsValid,2021.1.4,Win32,59.94485074,,,,,,,,,,,,,5,1.8319,0,34,34,54,1,,,,,,,,,,,,,,,,,,,,,,,,,,,,,,,,,,,,,,,,,,,,,,,,,,,,,,,,,,,,,,,,,,,,,,
,,,,5,1.0523,,,,,,178,cactus,carrot,,89642,001,2022-04-25_10h24.04.587,SPAMnetsValid,2021.1.4,Win32,59.94485074,,,,,,,,,,,,,5,1.0523,0,35,35,75,1,,,,,,,,,,,,,,,,,,,,,,,,,,,,,,,,,,,,,,,,,,,,,,,,,,,,,,,,,,,,,,,,,,,,,,
,,,,6,1.3521,,,,,,102,chocolate,refrigerator,,89642,001,2022-04-25_10h24.04.587,SPAMnetsValid,2021.1.4,Win32,59.94485074,,,,,,,,,,,,,6,1.3521,0,36,36,76,1,,,,,,,,,,,,,,,,,,,,,,,,,,,,,,,,,,,,,,,,,,,,,,,,,,,,,,,,,,,,,,,,,,,,,,
,,,,4,2.609,,,,,,190,microwave,strawberry,,89642,001,2022-04-25_10h24.04.587,SPAMnetsValid,2021.1.4,Win32,59.94485074,,,,,,,,,,,,,4,2.609,0,37,37,90,1,,,,,,,,,,,,,,,,,,,,,,,,,,,,,,,,,,,,,,,,,,,,,,,,,,,,,,,,,,,,,,,,,,,,,,
,,,,4,1.6693,,,,,,169,onion,yogurt,,89642,001,2022-04-25_10h24.04.587,SPAMnetsValid,2021.1.4,Win32,59.94485074,,,,,,,,,,,,,4,1.6693,0,38,38,24,1,,,,,,,,,,,,,,,,,,,,,,,,,,,,,,,,,,,,,,,,,,,,,,,,,,,,,,,,,,,,,,,,,,,,,,
,,,,4,2.6279,,,,,,134,carrot,flower,,89642,001,2022-04-25_10h24.04.587,SPAMnetsValid,2021.1.4,Win32,59.94485074,,,,,,,,,,,,,4,2.6279,0,39,39,93,1,,,,,,,,,,,,,,,,,,,,,,,,,,,,,,,,,,,,,,,,,,,,,,,,,,,,,,,,,,,,,,,,,,,,,,
,,,,6,1.6314,,,,,,156,melon,rose,,89642,001,2022-04-25_10h24.04.587,SPAMnetsValid,2021.1.4,Win32,59.94485074,,,,,,,,,,,,,6,1.6314,0,40,40,31,1,,,,,,,,,,,,,,,,,,,,,,,,,,,,,,,,,,,,,,,,,,,,,,,,,,,,,,,,,,,,,,,,,,,,,,
,,,,7,1.9994,,,,,,117,melon,strawberry,,89642,001,2022-04-25_10h24.04.587,SPAMnetsValid,2021.1.4,Win32,59.94485074,,,,,,,,,,,,,7,1.9994,0,41,41,11,1,,,,,,,,,,,,,,,,,,,,,,,,,,,,,,,,,,,,,,,,,,,,,,,,,,,,,,,,,,,,,,,,,,,,,,
,,,,6,2.1033,,,,,,135,carrot,oven,,89642,001,2022-04-25_10h24.04.587,SPAMnetsValid,2021.1.4,Win32,59.94485074,,,,,,,,,,,,,6,2.1033,0,42,42,73,1,,,,,,,,,,,,,,,,,,,,,,,,,,,,,,,,,,,,,,,,,,,,,,,,,,,,,,,,,,,,,,,,,,,,,,
,,,,4,1.8826,,,,,,164,cookie,garden,,89642,001,2022-04-25_10h24.04.587,SPAMnetsValid,2021.1.4,Win32,59.94485074,,,,,,,,,,,,,4,1.8826,0,43,43,59,1,,,,,,,,,,,,,,,,,,,,,,,,,,,,,,,,,,,,,,,,,,,,,,,,,,,,,,,,,,,,,,,,,,,,,,
,,,,4,1.9154,,,,,,151,microwave,onion,,89642,001,2022-04-25_10h24.04.587,SPAMnetsValid,2021.1.4,Win32,59.94485074,,,,,,,,,,,,,4,1.9154,0,44,44,6,1,,,,,,,,,,,,,,,,,,,,,,,,,,,,,,,,,,,,,,,,,,,,,,,,,,,,,,,,,,,,,,,,,,,,,,
,,,,4,1.1094,,,,,,189,onion,tree,,89642,001,2022-04-25_10h24.04.587,SPAMnetsValid,2021.1.4,Win32,59.94485074,,,,,,,,,,,,,4,1.1094,0,45,45,62,1,,,,,,,,,,,,,,,,,,,,,,,,,,,,,,,,,,,,,,,,,,,,,,,,,,,,,,,,,,,,,,,,,,,,,,
,,,,4,0.8158,,,,,,125,carrot,tree,,89642,001,2022-04-25_10h24.04.587,SPAMnetsValid,2021.1.4,Win32,59.94485074,,,,,,,,,,,,,4,0.8158,0,46,46,30,1,,,,,,,,,,,,,,,,,,,,,,,,,,,,,,,,,,,,,,,,,,,,,,,,,,,,,,,,,,,,,,,,,,,,,,
,,,,4,0.6867,,,,,,133,cake,flower,,89642,001,2022-04-25_10h24.04.587,SPAMnetsValid,2021.1.4,Win32,59.94485074,,,,,,,,,,,,,4,0.6867,0,47,47,94,1,,,,,,,,,,,,,,,,,,,,,,,,,,,,,,,,,,,,,,,,,,,,,,,,,,,,,,,,,,,,,,,,,,,,,,
,,,,4,2.6819,,,,,,185,cactus,rose,,89642,001,2022-04-25_10h24.04.587,SPAMnetsValid,2021.1.4,Win32,59.94485074,,,,,,,,,,,,,4,2.6819,0,48,48,43,1,,,,,,,,,,,,,,,,,,,,,,,,,,,,,,,,,,,,,,,,,,,,,,,,,,,,,,,,,,,,,,,,,,,,,,
,,,,4,0.151,,,,,,166,cake,yogurt,,89642,001,2022-04-25_10h24.04.587,SPAMnetsValid,2021.1.4,Win32,59.94485074,,,,,,,,,,,,,4,0.151,0,49,49,91,1,,,,,,,,,,,,,,,,,,,,,,,,,,,,,,,,,,,,,,,,,,,,,,,,,,,,,,,,,,,,,,,,,,,,,,
,,,,4,0.0857,,,,,,153,carrot,pretzel,,89642,001,2022-04-25_10h24.04.587,SPAMnetsValid,2021.1.4,Win32,59.94485074,,,,,,,,,,,,,4,0.0857,0,50,50,34,1,,,,,,,,,,,,,,,,,,,,,,,,,,,,,,,,,,,,,,,,,,,,,,,,,,,,,,,,,,,,,,,,,,,,,,
,,,,4,0.066,,,,,,132,broom,tree,,89642,001,2022-04-25_10h24.04.587,SPAMnetsValid,2021.1.4,Win32,59.94485074,,,,,,,,,,,,,4,0.066,0,51,51,78,1,,,,,,,,,,,,,,,,,,,,,,,,,,,,,,,,,,,,,,,,,,,,,,,,,,,,,,,,,,,,,,,,,,,,,,
,,,,4,0.0485,,,,,,99,garden,melon,,89642,001,2022-04-25_10h24.04.587,SPAMnetsValid,2021.1.4,Win32,59.94485074,,,,,,,,,,,,,4,0.0485,0,52,52,17,1,,,,,,,,,,,,,,,,,,,,,,,,,,,,,,,,,,,,,,,,,,,,,,,,,,,,,,,,,,,,,,,,,,,,,,
,,,,4,0.0566,,,,,,152,cactus,strawberry,,89642,001,2022-04-25_10h24.04.587,SPAMnetsValid,2021.1.4,Win32,59.94485074,,,,,,,,,,,,,4,0.0566,0,53,53,49,1,,,,,,,,,,,,,,,,,,,,,,,,,,,,,,,,,,,,,,,,,,,,,,,,,,,,,,,,,,,,,,,,,,,,,,
,,,,4,0.018,,,,,,158,cookie,oven,,89642,001,2022-04-25_10h24.04.587,SPAMnetsValid,2021.1.4,Win32,59.94485074,,,,,,,,,,,,,4,0.018,0,54,54,27,1,,,,,,,,,,,,,,,,,,,,,,,,,,,,,,,,,,,,,,,,,,,,,,,,,,,,,,,,,,,,,,,,,,,,,,
,,,,4,0.0327,,,,,,146,pretzel,tree,,89642,001,2022-04-25_10h24.04.587,SPAMnetsValid,2021.1.4,Win32,59.94485074,,,,,,,,,,,,,4,0.0327,0,55,55,80,1,,,,,,,,,,,,,,,,,,,,,,,,,,,,,,,,,,,,,,,,,,,,,,,,,,,,,,,,,,,,,,,,,,,,,,
,,,,4,0.0433,,,,,,174,cake,pretzel,,89642,001,2022-04-25_10h24.04.587,SPAMnetsValid,2021.1.4,Win32,59.94485074,,,,,,,,,,,,,4,0.0433,0,56,56,2,1,,,,,,,,,,,,,,,,,,,,,,,,,,,,,,,,,,,,,,,,,,,,,,,,,,,,,,,,,,,,,,,,,,,,,,
,,,,4,0.0358,,,,,,154,strawberry,yogurt,,89642,001,2022-04-25_10h24.04.587,SPAMnetsValid,2021.1.4,Win32,59.94485074,,,,,,,,,,,,,4,0.0358,0,57,57,28,1,,,,,,,,,,,,,,,,,,,,,,,,,,,,,,,,,,,,,,,,,,,,,,,,,,,,,,,,,,,,,,,,,,,,,,
,,,,4,0.0488,,,,,,131,cactus,garden,,89642,001,2022-04-25_10h24.04.587,SPAMnetsValid,2021.1.4,Win32,59.94485074,,,,,,,,,,,,,4,0.0488,0,58,58,33,1,,,,,,,,,,,,,,,,,,,,,,,,,,,,,,,,,,,,,,,,,,,,,,,,,,,,,,,,,,,,,,,,,,,,,,
,,,,4,0.0162,,,,,,149,broom,tomato,,89642,001,2022-04-25_10h24.04.587,SPAMnetsValid,2021.1.4,Win32,59.94485074,,,,,,,,,,,,,4,0.0162,0,59,59,20,1,,,,,,,,,,,,,,,,,,,,,,,,,,,,,,,,,,,,,,,,,,,,,,,,,,,,,,,,,,,,,,,,,,,,,,
,,,,4,0.0229,,,,,,157,refrigerator,rose,,89642,001,2022-04-25_10h24.04.587,SPAMnetsValid,2021.1.4,Win32,59.94485074,,,,,,,,,,,,,4,0.0229,0,60,60,64,1,,,,,,,,,,,,,,,,,,,,,,,,,,,,,,,,,,,,,,,,,,,,,,,,,,,,,,,,,,,,,,,,,,,,,,
,,,,4,0.1849,,,,,,121,broom,microwave,,89642,001,2022-04-25_10h24.04.587,SPAMnetsValid,2021.1.4,Win32,59.94485074,,,,,,,,,,,,,4,0.1849,0,61,61,95,1,,,,,,,,,,,,,,,,,,,,,,,,,,,,,,,,,,,,,,,,,,,,,,,,,,,,,,,,,,,,,,,,,,,,,,
,,,,4,0.3147,,,,,,104,garden,microwave,,89642,001,2022-04-25_10h24.04.587,SPAMnetsValid,2021.1.4,Win32,59.94485074,,,,,,,,,,,,,4,0.3147,0,62,62,81,1,,,,,,,,,,,,,,,,,,,,,,,,,,,,,,,,,,,,,,,,,,,,,,,,,,,,,,,,,,,,,,,,,,,,,,
,,,,4,0.1164,,,,,,193,melon,melon,CHECK,89642,001,2022-04-25_10h24.04.587,SPAMnetsValid,2021.1.4,Win32,59.94485074,,,,,,,,,,,,,4,0.1164,0,63,63,86,1,,,,,,,,,,,,,,,,,,,,,,,,,,,,,,,,,,,,,,,,,,,,,,,,,,,,,,,,,,,,,,,,,,,,,,
,,,,4,0.0996,,,,,,115,refrigerator,tomato,,89642,001,2022-04-25_10h24.04.587,SPAMnetsValid,2021.1.4,Win32,59.94485074,,,,,,,,,,,,,4,0.0996,0,64,64,85,1,,,,,,,,,,,,,,,,,,,,,,,,,,,,,,,,,,,,,,,,,,,,,,,,,,,,,,,,,,,,,,,,,,,,,,
,,,,4,0.2607,,,,,,97,chocolate,kitchen,,89642,001,2022-04-25_10h24.04.587,SPAMnetsValid,2021.1.4,Win32,59.94485074,,,,,,,,,,,,,4,0.2607,0,65,65,8,1,,,,,,,,,,,,,,,,,,,,,,,,,,,,,,,,,,,,,,,,,,,,,,,,,,,,,,,,,,,,,,,,,,,,,,
,,,,4,0.2008,,,,,,120,microwave,oven,,89642,001,2022-04-25_10h24.04.587,SPAMnetsValid,2021.1.4,Win32,59.94485074,,,,,,,,,,,,,4,0.2008,0,66,66,14,1,,,,,,,,,,,,,,,,,,,,,,,,,,,,,,,,,,,,,,,,,,,,,,,,,,,,,,,,,,,,,,,,,,,,,,
,,,,5,0.0518,,,,,,170,cookie,microwave,,89642,001,2022-04-25_10h24.04.587,SPAMnetsValid,2021.1.4,Win32,59.94485074,,,,,,,,,,,,,5,0.0518,0,67,67,92,1,,,,,,,,,,,,,,,,,,,,,,,,,,,,,,,,,,,,,,,,,,,,,,,,,,,,,,,,,,,,,,,,,,,,,,
,,,,5,0.0534,,,,,,183,cake,rose,,89642,001,2022-04-25_10h24.04.587,SPAMnetsValid,2021.1.4,Win32,59.94485074,,,,,,,,,,,,,5,0.0534,0,68,68,19,1,,,,,,,,,,,,,,,,,,,,,,,,,,,,,,,,,,,,,,,,,,,,,,,,,,,,,,,,,,,,,,,,,,,,,,
,,,,5,0.2391,,,,,,172,kitchen,melon,,89642,001,2022-04-25_10h24.04.587,SPAMnetsValid,2021.1.4,Win32,59.94485074,,,,,,,,,,,,,5,0.2391,0,69,69,77,1,,,,,,,,,,,,,,,,,,,,,,,,,,,,,,,,,,,,,,,,,,,,,,,,,,,,,,,,,,,,,,,,,,,,,,
,,,,5,0.0518,,,,,,171,cake,tomato,,89642,001,2022-04-25_10h24.04.587,SPAMnetsValid,2021.1.4,Win32,59.94485074,,,,,,,,,,,,,5,0.0518,0,70,70,88,1,,,,,,,,,,,,,,,,,,,,,,,,,,,,,,,,,,,,,,,,,,,,,,,,,,,,,,,,,,,,,,,,,,,,,,
,,,,5,0.0449,,,,,,186,kitchen,yogurt,,89642,001,2022-04-25_10h24.04.587,SPAMnetsValid,2021.1.4,Win32,59.94485074,,,,,,,,,,,,,5,0.0449,0,71,71,48,1,,,,,,,,,,,,,,,,,,,,,,,,,,,,,,,,,,,,,,,,,,,,,,,,,,,,,,,,,,,,,,,,,,,,,,
,,,,5,0.0687,,,,,,176,cactus,tomato,,89642,001,2022-04-25_10h24.04.587,SPAMnetsValid,2021.1.4,Win32,59.94485074,,,,,,,,,,,,,5,0.0687,0,72,72,9,1,,,,,,,,,,,,,,,,,,,,,,,,,,,,,,,,,,,,,,,,,,,,,,,,,,,,,,,,,,,,,,,,,,,,,,
,,,,5,0.0657,,,,,,194,cactus,cactus,CHECK,89642,001,2022-04-25_10h24.04.587,SPAMnetsValid,2021.1.4,Win32,59.94485074,,,,,,,,,,,,,5,0.0657,0,73,73,25,1,,,,,,,,,,,,,,,,,,,,,,,,,,,,,,,,,,,,,,,,,,,,,,,,,,,,,,,,,,,,,,,,,,,,,,
,,,,5,0.0297,,,,,,187,cactus,microwave,,89642,001,2022-04-25_10h24.04.587,SPAMnetsValid,2021.1.4,Win32,59.94485074,,,,,,,,,,,,,5,0.0297,0,74,74,71,1,,,,,,,,,,,,,,,,,,,,,,,,,,,,,,,,,,,,,,,,,,,,,,,,,,,,,,,,,,,,,,,,,,,,,,
,,,,5,0.0331,,,,,,137,microwave,tree,,89642,001,2022-04-25_10h24.04.587,SPAMnetsValid,2021.1.4,Win32,59.94485074,,,,,,,,,,,,,5,0.0331,0,75,75,63,1,,,,,,,,,,,,,,,,,,,,,,,,,,,,,,,,,,,,,,,,,,,,,,,,,,,,,,,,,,,,,,,,,,,,,,
,,,,6,0.0335,,,,,,145,cactus,yogurt,,89642,001,2022-04-25_10h24.04.587,SPAMnetsValid,2021.1.4,Win32,59.94485074,,,,,,,,,,,,,6,0.0335,0,76,76,15,1,,,,,,,,,,,,,,,,,,,,,,,,,,,,,,,,,,,,,,,,,,,,,,,,,,,,,,,,,,,,,,,,,,,,,,
,,,,6,0.0538,,,,,,112,cake,carrot,,89642,001,2022-04-25_10h24.04.587,SPAMnetsValid,2021.1.4,Win32,59.94485074,,,,,,,,,,,,,6,0.0538,0,77,77,39,1,,,,,,,,,,,,,,,,,,,,,,,,,,,,,,,,,,,,,,,,,,,,,,,,,,,,,,,,,,,,,,,,,,,,,,
,,,,6,0.0158,,,,,,161,kitchen,pretzel,,89642,001,2022-04-25_10h24.04.587,SPAMnetsValid,2021.1.4,Win32,59.94485074,,,,,,,,,,,,,6,0.0158,0,78,78,36,1,,,,,,,,,,,,,,,,,,,,,,,,,,,,,,,,,,,,,,,,,,,,,,,,,,,,,,,,,,,,,,,,,,,,,,
,,,,6,0.0154,,,,,,109,broom,strawberry,,89642,001,2022-04-25_10h24.04.587,SPAMnetsValid,2021.1.4,Win32,59.94485074,,,,,,,,,,,,,6,0.0154,0,79,79,4,1,,,,,,,,,,,,,,,,,,,,,,,,,,,,,,,,,,,,,,,,,,,,,,,,,,,,,,,,,,,,,,,,,,,,,,
,,,,6,0.1721,,,,,,129,cactus,refrigerator,,89642,001,2022-04-25_10h24.04.587,SPAMnetsValid,2021.1.4,Win32,59.94485074,,,,,,,,,,,,,6,0.1721,0,80,80,3,1,,,,,,,,,,,,,,,,,,,,,,,,,,,,,,,,,,,,,,,,,,,,,,,,,,,,,,,,,,,,,,,,,,,,,,
,,,,6,0.1523,,,,,,142,garden,tree,,89642,001,2022-04-25_10h24.04.587,SPAMnetsValid,2021.1.4,Win32,59.94485074,,,,,,,,,,,,,6,0.1523,0,81,81,22,1,,,,,,,,,,,,,,,,,,,,,,,,,,,,,,,,,,,,,,,,,,,,,,,,,,,,,,,,,,,,,,,,,,,,,,
,,,,6,0.1321,,,,,,162,microwave,tomato,,89642,001,2022-04-25_10h24.04.587,SPAMnetsValid,2021.1.4,Win32,59.94485074,,,,,,,,,,,,,6,0.1321,0,82,82,12,1,,,,,,,,,,,,,,,,,,,,,,,,,,,,,,,,,,,,,,,,,,,,,,,,,,,,,,,,,,,,,,,,,,,,,,
,,,,6,0.0946,,,,,,167,carrot,garden,,89642,001,2022-04-25_10h24.04.587,SPAMnetsValid,2021.1.4,Win32,59.94485074,,,,,,,,,,,,,6,0.0946,0,83,83,47,1,,,,,,,,,,,,,,,,,,,,,,,,,,,,,,,,,,,,,,,,,,,,,,,,,,,,,,,,,,,,,,,,,,,,,,
,,,,6,0.0916,,,,,,108,carrot,chocolate,,89642,001,2022-04-25_10h24.04.587,SPAMnetsValid,2021.1.4,Win32,59.94485074,,,,,,,,,,,,,6,0.0916,0,84,84,5,1,,,,,,,,,,,,,,,,,,,,,,,,,,,,,,,,,,,,,,,,,,,,,,,,,,,,,,,,,,,,,,,,,,,,,,
,,,,6,0.0737,,,,,,113,refrigerator,strawberry,,89642,001,2022-04-25_10h24.04.587,SPAMnetsValid,2021.1.4,Win32,59.94485074,,,,,,,,,,,,,6,0.0737,0,85,85,56,1,,,,,,,,,,,,,,,,,,,,,,,,,,,,,,,,,,,,,,,,,,,,,,,,,,,,,,,,,,,,,,,,,,,,,,
,,,,7,0.0344,,,,,,182,flower,refrigerator,,89642,001,2022-04-25_10h24.04.587,SPAMnetsValid,2021.1.4,Win32,59.94485074,,,,,,,,,,,,,7,0.0344,0,86,86,32,1,,,,,,,,,,,,,,,,,,,,,,,,,,,,,,,,,,,,,,,,,,,,,,,,,,,,,,,,,,,,,,,,,,,,,,
,,,,7,0.0356,,,,,,150,microwave,refrigerator,,89642,001,2022-04-25_10h24.04.587,SPAMnetsValid,2021.1.4,Win32,59.94485074,,,,,,,,,,,,,7,0.0356,0,87,87,66,1,,,,,,,,,,,,,,,,,,,,,,,,,,,,,,,,,,,,,,,,,,,,,,,,,,,,,,,,,,,,,,,,,,,,,,
,,,,7,0.031,,,,,,111,carrot,microwave,,89642,001,2022-04-25_10h24.04.587,SPAMnetsValid,2021.1.4,Win32,59.94485074,,,,,,,,,,,,,7,0.031,0,88,88,16,1,,,,,,,,,,,,,,,,,,,,,,,,,,,,,,,,,,,,,,,,,,,,,,,,,,,,,,,,,,,,,,,,,,,,,,
,,,,7,0.0263,,,,,,168,cactus,flower,,89642,001,2022-04-25_10h24.04.587,SPAMnetsValid,2021.1.4,Win32,59.94485074,,,,,,,,,,,,,7,0.0263,0,89,89,51,1,,,,,,,,,,,,,,,,,,,,,,,,,,,,,,,,,,,,,,,,,,,,,,,,,,,,,,,,,,,,,,,,,,,,,,
,,,,7,0.1575,,,,,,177,chocolate,strawberry,,89642,001,2022-04-25_10h24.04.587,SPAMnetsValid,2021.1.4,Win32,59.94485074,,,,,,,,,,,,,7,0.1575,0,90,90,53,1,,,,,,,,,,,,,,,,,,,,,,,,,,,,,,,,,,,,,,,,,,,,,,,,,,,,,,,,,,,,,,,,,,,,,,
,,,,4,0.7157,,,,,,188,flower,tree,,89642,001,2022-04-25_10h24.04.587,SPAMnetsValid,2021.1.4,Win32,59.94485074,,,,,,,,,,,,,4,0.7157,0,91,91,7,1,,,,,,,,,,,,,,,,,,,,,,,,,,,,,,,,,,,,,,,,,,,,,,,,,,,,,,,,,,,,,,,,,,,,,,
,,,,4,0.0157,,,,,,165,onion,rose,,89642,001,2022-04-25_10h24.04.587,SPAMnetsValid,2021.1.4,Win32,59.94485074,,,,,,,,,,,,,4,0.0157,0,92,92,40,1,,,,,,,,,,,,,,,,,,,,,,,,,,,,,,,,,,,,,,,,,,,,,,,,,,,,,,,,,,,,,,,,,,,,,,
,,,,4,0.0187,,,,,,163,melon,refrigerator,,89642,001,2022-04-25_10h24.04.587,SPAMnetsValid,2021.1.4,Win32,59.94485074,,,,,,,,,,,,,4,0.0187,0,93,93,29,1,,,,,,,,,,,,,,,,,,,,,,,,,,,,,,,,,,,,,,,,,,,,,,,,,,,,,,,,,,,,,,,,,,,,,,
,,,,4,0.1821,,,,,,96,oven,strawberry,,89642,001,2022-04-25_10h24.04.587,SPAMnetsValid,2021.1.4,Win32,59.94485074,,,,,,,,,,,,,4,0.1821,0,94,94,67,1,,,,,,,,,,,,,,,,,,,,,,,,,,,,,,,,,,,,,,,,,,,,,,,,,,,,,,,,,,,,,,,,,,,,,,
,,,,4,0.3266,,,,,,130,microwave,yogurt,,89642,001,2022-04-25_10h24.04.587,SPAMnetsValid,2021.1.4,Win32,59.94485074,,,,,,,,,,,,,4,0.3266,0,95,95,84,1,,,,,,,,,,,,,,,,,,,,,,,,,,,,,,,,,,,,,,,,,,,,,,,,,,,,,,,,,,,,,,,,,,,,,,
,,,,4,0.8855,,,,,,147,cake,refrigerator,,89642,001,2022-04-25_10h24.04.587,SPAMnetsValid,2021.1.4,Win32,59.94485074,,,,,,,,,,,,,4,0.8855,0,96,96,35,1,,,,,,,,,,,,,,,,,,,,,,,,,,,,,,,,,,,,,,,,,,,,,,,,,,,,,,,,,,,,,,,,,,,,,,
,,,,,,,,,,,,,,,89642,001,2022-04-25_10h24.04.587,SPAMnetsValid,2021.1.4,Win32,59.94485074,,,,,,,,,,,,,,,,,,,,0,0,0,0,1,,,,,,,,,,,,,,,,,,,,,,,,,,,,,,,,,,,,,,,,,,,,,,,,,,,,,,,,,,,,,,,,,
,,,,,,,,,,,,,,,89642,001,2022-04-25_10h24.04.587,SPAMnetsValid,2021.1.4,Win32,59.94485074,,,,,,0,1,1,1,1,0,1,,,,,,,,,,,,,,,,,,,,,,,,,,,,,,,,,,,,,,,,,,,,,,,,,,,,,,,,,,,,,,,,,,,,,,,,,,,,,
,,,,,,,,,,,,,,,89642,001,2022-04-25_10h24.04.587,SPAMnetsValid,2021.1.4,Win32,59.94485074,,,,,,,,,,,,,,,,,,,,,,,,,1,4.8299,0,0,0,0,1,rancor,forbearance,ridicule,malice,bravery,3,,,,,,,,,,,,,,,,,,,,,,,,,,,,,,,,,,,,,,,,,,,,,,,,,,,,
,,,,,,,,,,,,,,,89642,001,2022-04-25_10h24.04.587,SPAMnetsValid,2021.1.4,Win32,59.94485074,,,,,,,,,,,,,,,,,,,,,,,,,4,3.8373,0,1,1,1,1,raucous,empty,quiet,smooth,harsh,4,,,,,,,,,,,,,,,,,,,,,,,,,,,,,,,,,,,,,,,,,,,,,,,,,,,,
,,,,,,,,,,,,,,,89642,001,2022-04-25_10h24.04.587,SPAMnetsValid,2021.1.4,Win32,59.94485074,,,,,,,,,,,,,,,,,,,,,,,,,4,3.0436,0,2,2,2,1,gargoyle,oil,medicine,carved waterspout,ugly building,3,,,,,,,,,,,,,,,,,,,,,,,,,,,,,,,,,,,,,,,,,,,,,,,,,,,,
,,,,,,,,,,,,,,,89642,001,2022-04-25_10h24.04.587,SPAMnetsValid,2021.1.4,Win32,59.94485074,,,,,,,,,,,,,,,,,,,,,,,,,3,1.9597,0,3,3,3,1,recrudesce,purify,renew activity,lack refinement,crush,2,,,,,,,,,,,,,,,,,,,,,,,,,,,,,,,,,,,,,,,,,,,,,,,,,,,,
,,,,,,,,,,,,,,,89642,001,2022-04-25_10h24.04.587,SPAMnetsValid,2021.1.4,Win32,59.94485074,,,,,,,,,,,,,,,,,,,,,,,,,2,0.9998,0,4,4,4,1,specious,"plausible, but not genuine",noteworthy,class or variety,roomy,1,,,,,,,,,,,,,,,,,,,,,,,,,,,,,,,,,,,,,,,,,,,,,,,,,,,,
,,,,,,,,,,,,,,,89642,001,2022-04-25_10h24.04.587,SPAMnetsValid,2021.1.4,Win32,59.94485074,,,,,,,,,,,,,,,,,,,,,,,,,3,1.0381,0,5,5,5,1,bauble,bubble,showy plaything,idle talk,confusion,2,,,,,,,,,,,,,,,,,,,,,,,,,,,,,,,,,,,,,,,,,,,,,,,,,,,,
,,,,,,,,,,,,,,,89642,001,2022-04-25_10h24.04.587,SPAMnetsValid,2021.1.4,Win32,59.94485074,,,,,,,,,,,,,,,,,,,,,,,,,2,0.9343,0,6,6,6,1,prolific,scarce,producing abundantly,reckless,speaking profanely,2,,,,,,,,,,,,,,,,,,,,,,,,,,,,,,,,,,,,,,,,,,,,,,,,,,,,
,,,,,,,,,,,,,,,89642,001,2022-04-25_10h24.04.587,SPAMnetsValid,2021.1.4,Win32,59.94485074,,,,,,,,,,,,,,,,,,,,,,,,,3,4.3568,0,7,7,7,1,opulent,party,wealthy,happy frame of mind,semiprecious stone,2,,,,,,,,,,,,,,,,,,,,,,,,,,,,,,,,,,,,,,,,,,,,,,,,,,,,
,,,,,,,,,,,,,,,89642,001,2022-04-25_10h24.04.587,SPAMnetsValid,2021.1.4,Win32,59.94485074,,,,,,,,,,,,,,,,,,,,,,,,,1,2.9351,0,8,8,8,1,coercion,conspiracy,strategy,restraint,attraction,3,,,,,,,,,,,,,,,,,,,,,,,,,,,,,,,,,,,,,,,,,,,,,,,,,,,,
,,,,,,,,,,,,,,,89642,001,2022-04-25_10h24.04.587,SPAMnetsValid,2021.1.4,Win32,59.94485074,,,,,,,,,,,,,,,,,,,,,,,,,3,3.1005,0,9,9,9,1,hiatus,animal,calamity,dread,gap,4,,,,,,,,,,,,,,,,,,,,,,,,,,,,,,,,,,,,,,,,,,,,,,,,,,,,
,,,,,,,,,,,,,,,89642,001,2022-04-25_10h24.04.587,SPAMnetsValid,2021.1.4,Win32,59.94485074,,,,,,,,,,,,,,,,,,,,,,,,,,,0,10,10,10,1,germane,microbe,contagious,relevant,different,3,,,,,,,,,,,,,,,,,,,,,,,,,,,,,,,,,,,,,,,,,,,,,,,,,,,,
,,,,,,,,,,,,,,,89642,001,2022-04-25_10h24.04.587,SPAMnetsValid,2021.1.4,Win32,59.94485074,,,,,,,,,,,,,,,,,,,,,,,,,3,0.0792,0,11,11,11,1,perfunctory,fundamental,formal,superficial,careful,3,,,,,,,,,,,,,,,,,,,,,,,,,,,,,,,,,,,,,,,,,,,,,,,,,,,,
,,,,,,,,,,,,,,,89642,001,2022-04-25_10h24.04.587,SPAMnetsValid,2021.1.4,Win32,59.94485074,,,,,,,,,,,,,,,,,,,,,,,,,3,0.0697,0,12,12,12,1,diverge,reveal,chant,distract the attention of,differ or turn off from,4,,,,,,,,,,,,,,,,,,,,,,,,,,,,,,,,,,,,,,,,,,,,,,,,,,,,
,,,,,,,,,,,,,,,89642,001,2022-04-25_10h24.04.587,SPAMnetsValid,2021.1.4,Win32,59.94485074,,,,,,,,,,,,,,,,,,,,,,,,,3,0.0717,0,13,13,13,1,evoke,take away,anger,connect,bring out,4,,,,,,,,,,,,,,,,,,,,,,,,,,,,,,,,,,,,,,,,,,,,,,,,,,,,
,,,,,,,,,,,,,,,89642,001,2022-04-25_10h24.04.587,SPAMnetsValid,2021.1.4,Win32,59.94485074,,,,,,,,,,,,,,,,,,,,,,,,,3,0.0833,0,14,14,14,1,pertinent,relevant,lying next to,necessary,bold,1,,,,,,,,,,,,,,,,,,,,,,,,,,,,,,,,,,,,,,,,,,,,,,,,,,,,
,,,,,,,,,,,,,,,89642,001,2022-04-25_10h24.04.587,SPAMnetsValid,2021.1.4,Win32,59.94485074,,,,,,,,,,,,,,,,,,,,,,,,,3,0.0756,0,15,15,15,1,holocaust,entirety,destruction,saintly,price,2,,,,,,,,,,,,,,,,,,,,,,,,,,,,,,,,,,,,,,,,,,,,,,,,,,,,
,,,,,,,,,,,,,,,89642,001,2022-04-25_10h24.04.587,SPAMnetsValid,2021.1.4,Win32,59.94485074,,,,,,,,,,,,,,,,,,,,,,,,,3,0.1002,0,16,16,16,1,piquant,mellow,fish,pungent,cloth,3,,,,,,,,,,,,,,,,,,,,,,,,,,,,,,,,,,,,,,,,,,,,,,,,,,,,
,,,,,,,,,,,,,,,89642,001,2022-04-25_10h24.04.587,SPAMnetsValid,2021.1.4,Win32,59.94485074,,,,,,,,,,,,,,,,,,,,,,,,,3,0.1005,0,17,17,17,1,firmament,foundation,heavens,strong,glue,2,,,,,,,,,,,,,,,,,,,,,,,,,,,,,,,,,,,,,,,,,,,,,,,,,,,,
,,,,,,,,,,,,,,,89642,001,2022-04-25_10h24.04.587,SPAMnetsValid,2021.1.4,Win32,59.94485074,,,,,,,,,,,,,,,,,,,,,,,,,,,,,,,,,,,,,,,,0,0,0,0,1,marketable,partisan,jocular,marriageable,salable,essential,4,,,,,,,,,,,,,,,,,,,,,,,,,,,,,,,,,,,,,,
,,,,,,,,,,,,,,,89642,001,2022-04-25_10h24.04.587,SPAMnetsValid,2021.1.4,Win32,59.94485074,,,,,,,,,,,,,,,,,,,,,,,,,,,,,,,,,,,,,,,,0,1,1,1,1,cottontail,squirrel,poplar,boa,marshy plant,rabbit,5,,,,,,,,,,,,,,,,,,,,,,,,,,,,,,,,,,,,,,
,,,,,,,,,,,,,,,89642,001,2022-04-25_10h24.04.587,SPAMnetsValid,2021.1.4,Win32,59.94485074,,,,,,,,,,,,,,,,,,,,,,,,,,,,,,,,,,,,,,,,0,2,2,2,1,boggy,afraid,false,marshy,dense,black,3,,,,,,,,,,,,,,,,,,,,,,,,,,,,,,,,,,,,,,
,,,,,,,,,,,,,,,89642,001,2022-04-25_10h24.04.587,SPAMnetsValid,2021.1.4,Win32,59.94485074,,,,,,,,,,,,,,,,,,,,,,,,,,,,,,,,,,,,,,,,0,3,3,3,1,gruesomeness,blackness,falseness,vindictiveness,drunkenness,ghastliness,5,,,,,,,,,,,,,,,,,,,,,,,,,,,,,,,,,,,,,,
,,,,,,,,,,,,,,,89642,001,2022-04-25_10h24.04.587,SPAMnetsValid,2021.1.4,Win32,59.94485074,,,,,,,,,,,,,,,,,,,,,,,,,,,,,,,,,,,,,,4,0.0175,0,4,4,4,1,loathing,diffidence,laziness,abhorrence,cleverness,comfort,3,,,,,,,,,,,,,,,,,,,,,,,,,,,,,,,,,,,,,,
,,,,,,,,,,,,,,,89642,001,2022-04-25_10h24.04.587,SPAMnetsValid,2021.1.4,Win32,59.94485074,,,,,,,,,,,,,,,,,,,,,,,,,,,,,,,,,,,,,,,,0,5,5,5,1,bantam,fowl,ridicule,cripple,vegetable,ensign,1,,,,,,,,,,,,,,,,,,,,,,,,,,,,,,,,,,,,,,
,,,,,,,,,,,,,,,89642,001,2022-04-25_10h24.04.587,SPAMnetsValid,2021.1.4,Win32,59.94485074,,,,,,,,,,,,,,,,,,,,,,,,,,,,,,,,,,,,,,,,0,6,6,6,1,evoke,wake up,surrender,reconnoiter,transcend,call forth,5,,,,,,,,,,,,,,,,,,,,,,,,,,,,,,,,,,,,,,
,,,,,,,,,,,,,,,89642,001,2022-04-25_10h24.04.587,SPAMnetsValid,2021.1.4,Win32,59.94485074,,,,,,,,,,,,,,,,,,,,,,,,,,,,,,,,,,,,,,4,0.0567,0,7,7,7,1,unobtrusive,unintelligent,epileptic,illogical,lineal,modest,5,,,,,,,,,,,,,,,,,,,,,,,,,,,,,,,,,,,,,,
,,,,,,,,,,,,,,,89642,001,2022-04-25_10h24.04.587,SPAMnetsValid,2021.1.4,Win32,59.94485074,,,,,,,,,,,,,,,,,,,,,,,,,,,,,,,,,,,,,,,,0,8,8,8,1,terrain,ice cream,final test,tractor,area of ground,weight,4,,,,,,,,,,,,,,,,,,,,,,,,,,,,,,,,,,,,,,
,,,,,,,,,,,,,,,89642,001,2022-04-25_10h24.04.587,SPAMnetsValid,2021.1.4,Win32,59.94485074,,,,,,,,,,,,,,,,,,,,,,,,,,,,,,,,,,,,,,,,0,9,9,9,1,capriciousness,stubbornness,courage,whimsicality,amazement,greediness,3,,,,,,,,,,,,,,,,,,,,,,,,,,,,,,,,,,,,,,
,,,,,,,,,,,,,,,89642,001,2022-04-25_10h24.04.587,SPAMnetsValid,2021.1.4,Win32,59.94485074,,,,,,,,,,,,,,,,,,,,,,,,,,,,,,,,,,,,,,,,0,10,10,10,1,maelstrom,slander,whirlpool,enmity,armor,majolica,2,,,,,,,,,,,,,,,,,,,,,,,,,,,,,,,,,,,,,,
,,,,,,,,,,,,,,,89642,001,2022-04-25_10h24.04.587,SPAMnetsValid,2021.1.4,Win32,59.94485074,,,,,,,,,,,,,,,,,,,,,,,,,,,,,,,,,,,,,,,,0,11,11,11,1,tentative,critical,conclusive,authentic,provisional,apprehensive,4,,,,,,,,,,,,,,,,,,,,,,,,,,,,,,,,,,,,,,
,,,,,,,,,,,,,,,89642,001,2022-04-25_10h24.04.587,SPAMnetsValid,2021.1.4,Win32,59.94485074,,,,,,,,,,,,,,,,,,,,,,,,,,,,,,,,,,,,,,,,0,12,12,12,1,placate,rehabilitate,plagiarize,depredate,apprise,conciliate,5,,,,,,,,,,,,,,,,,,,,,,,,,,,,,,,,,,,,,,
,,,,,,,,,,,,,,,89642,001,2022-04-25_10h24.04.587,SPAMnetsValid,2021.1.4,Win32,59.94485074,,,,,,,,,,,,,,,,,,,,,,,,,,,,,,,,,,,,,,4,0.1207,0,13,13,13,1,surcease,enlightenment,cessation,inattention,censor,substitution,2,,,,,,,,,,,,,,,,,,,,,,,,,,,,,,,,,,,,,,
,,,,,,,,,,,,,,,89642,001,2022-04-25_10h24.04.587,SPAMnetsValid,2021.1.4,Win32,59.94485074,,,,,,,,,,,,,,,,,,,,,,,,,,,,,,,,,,,,,,3,1.3239,0,14,14,14,1,apathetic,wandering,impassive,hateful,prophetic,overflowing,2,,,,,,,,,,,,,,,,,,,,,,,,,,,,,,,,,,,,,,
,,,,,,,,,,,,,,,89642,001,2022-04-25_10h24.04.587,SPAMnetsValid,2021.1.4,Win32,59.94485074,,,,,,,,,,,,,,,,,,,,,,,,,,,,,,,,,,,,,,3,0.1146,0,15,15,15,1,paternoster,paternalism,patricide,malediction,benediction,prayer,5,,,,,,,,,,,,,,,,,,,,,,,,,,,,,,,,,,,,,,
,,,,,,,,,,,,,,,89642,001,2022-04-25_10h24.04.587,SPAMnetsValid,2021.1.4,Win32,59.94485074,,,,,,,,,,,,,,,,,,,,,,,,,,,,,,,,,,,,,,3,0.1113,0,16,16,16,1,opalescence,opulence,senescence,bankruptcy,iridescence,assiduity,4,,,,,,,,,,,,,,,,,,,,,,,,,,,,,,,,,,,,,,
,,,,,,,,,,,,,,,89642,001,2022-04-25_10h24.04.587,SPAMnetsValid,2021.1.4,Win32,59.94485074,,,,,,,,,,,,,,,,,,,,,,,,,,,,,,,,,,,,,,3,0.1374,0,17,17,17,1,lush,stupid,luxurious,hazy,putrid,languishing,2,,,,,,,,,,,,,,,,,,,,,,,,,,,,,,,,,,,,,,
,,,,,,,,,,,,,,,89642,001,2022-04-25_10h24.04.587,SPAMnetsValid,2021.1.4,Win32,59.94485074,,,,,,,,,,,,,,,,,,,,,,,,,,,,,,,,,,,,,,3,0.1572,0,18,18,18,1,curtailment,expenditure,abandonment,abridgment,improvement,forgery,3,,,,,,,,,,,,,,,,,,,,,,,,,,,,,,,,,,,,,,
,,,,,,,,,,,,,,,89642,001,2022-04-25_10h24.04.587,SPAMnetsValid,2021.1.4,Win32,59.94485074,,,,,,,,,,,,,,,,,,,,,,,,,,,,,,,,,,,,,,3,0.1667,0,19,19,19,1,perversity,adversity,perviousness,travesty,waywardness,gentility,4,,,,,,,,,,,,,,,,,,,,,,,,,,,,,,,,,,,,,,
,,,,,,,,,,,,,,,89642,001,2022-04-25_10h24.04.587,SPAMnetsValid,2021.1.4,Win32,59.94485074,,,,,,,,,,,,,,,,,,,,,,,,,,,,,,,,,,,,,,3,0.7765,0,20,20,20,1,calumnious,complimentary,analogous,slanderous,tempestuous,magnanimous,3,,,,,,,,,,,,,,,,,,,,,,,,,,,,,,,,,,,,,,
,,,,,,,,,,,,,,,89642,001,2022-04-25_10h24.04.587,SPAMnetsValid,2021.1.4,Win32,59.94485074,,,,,,,,,,,,,,,,,,,,,,,,,,,,,,,,,,,,,,,,0,21,21,21,1,illiberality,bigotry,imbecility,illegibility,cautery,immaturity,1,,,,,,,,,,,,,,,,,,,,,,,,,,,,,,,,,,,,,,
,,,,,,,,,,,,,,,89642,001,2022-04-25_10h24.04.587,SPAMnetsValid,2021.1.4,Win32,59.94485074,,,,,,,,,,,,,,,,,,,,,,,,,,,,,,,,,,,,,,3,0.7437,0,22,22,22,1,clabber,rejoice,gossip,curdle,crow,hobble,3,,,,,,,,,,,,,,,,,,,,,,,,,,,,,,,,,,,,,,
,,,,,,,,,,,,,,,89642,001,2022-04-25_10h24.04.587,SPAMnetsValid,2021.1.4,Win32,59.94485074,,,,,,,,,,,,,,,,,,,,,,,,,,,,,,,,,,,,,,,,0,23,23,23,1,sedulousness,diligence,credulousness,seduction,perilousness,frankness,1,,,,,,,,,,,,,,,,,,,,,,,,,,,,,,,,,,,,,,
,,,,,,,,,,,,,,,89642,001,2022-04-25_10h24.04.587,SPAMnetsValid,2021.1.4,Win32,59.94485074,,,,,,,,,,,,,,,,,,,,,,,,,,,,,,,,,,,,,,,,,,,,,,,,,,,,,pillow,0,0,0,0,1,,,,,,,,,,,,,,,,,,,,,,,,,,,,,,,
,,,,,,,,,,,,,,,89642,001,2022-04-25_10h24.04.587,SPAMnetsValid,2021.1.4,Win32,59.94485074,,,,,,,,,,,,,,,,,,,,,,,,,,,,,,,,,,,,,,,,,,,,,,,,,,,,fightr,pillow,1,0,1,0,1,,,,,,,,,,,,,,,,,,,,,,,,,,,,,,,
,,,,,,,,,,,,,,,89642,001,2022-04-25_10h24.04.587,SPAMnetsValid,2021.1.4,Win32,59.94485074,,,,,,,,,,,,,,,,,,,,,,,,,,,,,,,,,,,,,,,,,,,,,,,,,,,,hit,pillow,2,0,2,0,1,,,,,,,,,,,,,,,,,,,,,,,,,,,,,,,
,,,,,,,,,,,,,,,89642,001,2022-04-25_10h24.04.587,SPAMnetsValid,2021.1.4,Win32,59.94485074,,,,,,,,,,,,,,,,,,,,,,,,,,,,,,,,,,,,,,,,,,,,,,,,,,,,,pillow,3,0,3,0,1,,,,,,,,,,,,,,,,,,,,,,,,,,,,,,,
,,,,,,,,,,,,,,,89642,001,2022-04-25_10h24.04.587,SPAMnetsValid,2021.1.4,Win32,59.94485074,,,,,,,,,,,,,,,,,,,,,,,,,,,,,,,,,,,,,,,,,,,,,,,,,,,,sleep,pillow,4,0,4,0,1,,,,,,,,,,,,,,,,,,,,,,,,,,,,,,,
,,,,,,,,,,,,,,,89642,001,2022-04-25_10h24.04.587,SPAMnetsValid,2021.1.4,Win32,59.94485074,,,,,,,,,,,,,,,,,,,,,,,,,,,,,,,,,,,,,,,,,,,,,,,,,,,,comfort,pillow,5,0,5,0,1,,,,,,,,,,,,,,,,,,,,,,,,,,,,,,,
,,,,,,,,,,,,,,,89642,001,2022-04-25_10h24.04.587,SPAMnetsValid,2021.1.4,Win32,59.94485074,,,,,,,,,,,,,,,,,,,,,,,,,,,,,,,,,,,,,,,,,,,,,,,,,,,,spacer,pillow,6,0,6,0,1,,,,,,,,,,,,,,,,,,,,,,,,,,,,,,,
,,,,,,,,,,,,,,,89642,001,2022-04-25_10h24.04.587,SPAMnetsValid,2021.1.4,Win32,59.94485074,,,,,,,,,,,,,,,,,,,,,,,,,,,,,,,,,,,,,,,,,,,,,,,,,,,,rag,pillow,7,0,7,0,1,,,,,,,,,,,,,,,,,,,,,,,,,,,,,,,
,,,,,,,,,,,,,,,89642,001,2022-04-25_10h24.04.587,SPAMnetsValid,2021.1.4,Win32,59.94485074,,,,,,,,,,,,,,,,,,,,,,,,,,,,,,,,,,,,,,,,,,,,,,,,,,,,,,,,,,,0,0,0,2,1,pillow,,,,,,,,,,,,,,,,,,,,,,,,,
,,,,,,,,,,,,,,,89642,001,2022-04-25_10h24.04.587,SPAMnetsValid,2021.1.4,Win32,59.94485074,,,,,,,,,,,,,,,,,,,,,,,,,,,,,,,,,,,,,,,,,,,,,,,,,,,,fire,candle,0,0,0,0,1,,,,,,,,,,,,,,,,,,,,,,,,,,,,,,,
,,,,,,,,,,,,,,,89642,001,2022-04-25_10h24.04.587,SPAMnetsValid,2021.1.4,Win32,59.94485074,,,,,,,,,,,,,,,,,,,,,,,,,,,,,,,,,,,,,,,,,,,,,,,,,,,,light,candle,1,0,1,0,1,,,,,,,,,,,,,,,,,,,,,,,,,,,,,,,
,,,,,,,,,,,,,,,89642,001,2022-04-25_10h24.04.587,SPAMnetsValid,2021.1.4,Win32,59.94485074,,,,,,,,,,,,,,,,,,,,,,,,,,,,,,,,,,,,,,,,,,,,,,,,,,,,decoration,candle,2,0,2,0,1,,,,,,,,,,,,,,,,,,,,,,,,,,,,,,,
,,,,,,,,,,,,,,,89642,001,2022-04-25_10h24.04.587,SPAMnetsValid,2021.1.4,Win32,59.94485074,,,,,,,,,,,,,,,,,,,,,,,,,,,,,,,,,,,,,,,,,,,,,,,,,,,,weapon,candle,3,0,3,0,1,,,,,,,,,,,,,,,,,,,,,,,,,,,,,,,
,,,,,,,,,,,,,,,89642,001,2022-04-25_10h24.04.587,SPAMnetsValid,2021.1.4,Win32,59.94485074,,,,,,,,,,,,,,,,,,,,,,,,,,,,,,,,,,,,,,,,,,,,,,,,,,,,food,candle,4,0,4,0,1,,,,,,,,,,,,,,,,,,,,,,,,,,,,,,,
,,,,,,,,,,,,,,,89642,001,2022-04-25_10h24.04.587,SPAMnetsValid,2021.1.4,Win32,59.94485074,,,,,,,,,,,,,,,,,,,,,,,,,,,,,,,,,,,,,,,,,,,,,,,,,,,,,,,,,,,0,1,1,1,1,candle,,,,,,,,,,,,,,,,,,,,,,,,,
,,,,,,,,,,,,,,,89642,001,2022-04-25_10h24.04.587,SPAMnetsValid,2021.1.4,Win32,59.94485074,,,,,,,,,,,,,,,,,,,,,,,,,,,,,,,,,,,,,,,,,,,,,,,,,,,,hold items,bucket,0,0,0,0,1,,,,,,,,,,,,,,,,,,,,,,,,,,,,,,,
,,,,,,,,,,,,,,,89642,001,2022-04-25_10h24.04.587,SPAMnetsValid,2021.1.4,Win32,59.94485074,,,,,,,,,,,,,,,,,,,,,,,,,,,,,,,,,,,,,,,,,,,,,,,,,,,,weapon,bucket,1,0,1,0,1,,,,,,,,,,,,,,,,,,,,,,,,,,,,,,,
,,,,,,,,,,,,,,,89642,001,2022-04-25_10h24.04.587,SPAMnetsValid,2021.1.4,Win32,59.94485074,,,,,,,,,,,,,,,,,,,,,,,,,,,,,,,,,,,,,,,,,,,,,,,,,,,,seat,bucket,2,0,2,0,1,,,,,,,,,,,,,,,,,,,,,,,,,,,,,,,
,,,,,,,,,,,,,,,89642,001,2022-04-25_10h24.04.587,SPAMnetsValid,2021.1.4,Win32,59.94485074,,,,,,,,,,,,,,,,,,,,,,,,,,,,,,,,,,,,,,,,,,,,,,,,,,,,tool,bucket,3,0,3,0,1,,,,,,,,,,,,,,,,,,,,,,,,,,,,,,,
,,,,,,,,,,,,,,,89642,001,2022-04-25_10h24.04.587,SPAMnetsValid,2021.1.4,Win32,59.94485074,,,,,,,,,,,,,,,,,,,,,,,,,,,,,,,,,,,,,,,,,,,,,,,,,,,,decoration,bucket,4,0,4,0,1,,,,,,,,,,,,,,,,,,,,,,,,,,,,,,,
,,,,,,,,,,,,,,,89642,001,2022-04-25_10h24.04.587,SPAMnetsValid,2021.1.4,Win32,59.94485074,,,,,,,,,,,,,,,,,,,,,,,,,,,,,,,,,,,,,,,,,,,,,,,,,,,,,,,,,,,0,2,2,0,1,bucket,,,,,,,,,,,,,,,,,,,,,,,,,
,,,,,,,,,,,,,,,89642,001,2022-04-25_10h24.04.587,SPAMnetsValid,2021.1.4,Win32,59.94485074,,,,,,,,,,,,,,,,,,,,,,,,,,,,,,,,,,,,,,,,,,,,,,,,,,,,,,,,,,,,,,,,,claws,Animals,0,0,0,0,1,,,,,,,,,,,,,,,,,,
,,,,,,,,,,,,,,,89642,001,2022-04-25_10h24.04.587,SPAMnetsValid,2021.1.4,Win32,59.94485074,,,,,,,,,,,,,,,,,,,,,,,,,,,,,,,,,,,,,,,,,,,,,,,,,,,,,,,,,,,,,,,,,talons,Animals,1,0,1,0,1,,,,,,,,,,,,,,,,,,
,,,,,,,,,,,,,,,89642,001,2022-04-25_10h24.04.587,SPAMnetsValid,2021.1.4,Win32,59.94485074,,,,,,,,,,,,,,,,,,,,,,,,,,,,,,,,,,,,,,,,,,,,,,,,,,,,,,,,,,,,,,,,,skin,Animals,2,0,2,0,1,,,,,,,,,,,,,,,,,,
,,,,,,,,,,,,,,,89642,001,2022-04-25_10h24.04.587,SPAMnetsValid,2021.1.4,Win32,59.94485074,,,,,,,,,,,,,,,,,,,,,,,,,,,,,,,,,,,,,,,,,,,,,,,,,,,,,,,,,,,,,,,,,fur,Animals,3,0,3,0,1,,,,,,,,,,,,,,,,,,
,,,,,,,,,,,,,,,89642,001,2022-04-25_10h24.04.587,SPAMnetsValid,2021.1.4,Win32,59.94485074,,,,,,,,,,,,,,,,,,,,,,,,,,,,,,,,,,,,,,,,,,,,,,,,,,,,,,,,,,,,,,,,,meat,Animals,4,0,4,0,1,,,,,,,,,,,,,,,,,,
,,,,,,,,,,,,,,,89642,001,2022-04-25_10h24.04.587,SPAMnetsValid,2021.1.4,Win32,59.94485074,,,,,,,,,,,,,,,,,,,,,,,,,,,,,,,,,,,,,,,,,,,,,,,,,,,,,,,,,,,,,,,,,food,Animals,5,0,5,0,1,,,,,,,,,,,,,,,,,,
,,,,,,,,,,,,,,,89642,001,2022-04-25_10h24.04.587,SPAMnetsValid,2021.1.4,Win32,59.94485074,,,,,,,,,,,,,,,,,,,,,,,,,,,,,,,,,,,,,,,,,,,,,,,,,,,,,,,,,,,,,,,,,mammals,Animals,6,0,6,0,1,,,,,,,,,,,,,,,,,,
,,,,,,,,,,,,,,,89642,001,2022-04-25_10h24.04.587,SPAMnetsValid,2021.1.4,Win32,59.94485074,,,,,,,,,,,,,,,,,,,,,,,,,,,,,,,,,,,,,,,,,,,,,,,,,,,,,,,,,,,,,,,,,amphibians,Animals,7,0,7,0,1,,,,,,,,,,,,,,,,,,
,,,,,,,,,,,,,,,89642,001,2022-04-25_10h24.04.587,SPAMnetsValid,2021.1.4,Win32,59.94485074,,,,,,,,,,,,,,,,,,,,,,,,,,,,,,,,,,,,,,,,,,,,,,,,,,,,,,,,,,,,,,,,,insects,Animals,8,0,8,0,1,,,,,,,,,,,,,,,,,,
,,,,,,,,,,,,,,,89642,001,2022-04-25_10h24.04.587,SPAMnetsValid,2021.1.4,Win32,59.94485074,,,,,,,,,,,,,,,,,,,,,,,,,,,,,,,,,,,,,,,,,,,,,,,,,,,,,,,,,,,,,,,,,omnivores,Animals,9,0,9,0,1,,,,,,,,,,,,,,,,,,
,,,,,,,,,,,,,,,89642,001,2022-04-25_10h24.04.587,SPAMnetsValid,2021.1.4,Win32,59.94485074,,,,,,,,,,,,,,,,,,,,,,,,,,,,,,,,,,,,,,,,,,,,,,,,,,,,,,,,,,,,,,,,,carnivores,Animals,10,0,10,0,1,,,,,,,,,,,,,,,,,,
,,,,,,,,,,,,,,,89642,001,2022-04-25_10h24.04.587,SPAMnetsValid,2021.1.4,Win32,59.94485074,,,,,,,,,,,,,,,,,,,,,,,,,,,,,,,,,,,,,,,,,,,,,,,,,,,,,,,,,,,,,,,,,herbivores,Animals,11,0,11,0,1,,,,,,,,,,,,,,,,,,
,,,,,,,,,,,,,,,89642,001,2022-04-25_10h24.04.587,SPAMnetsValid,2021.1.4,Win32,59.94485074,,,,,,,,,,,,,,,,,,,,,,,,,,,,,,,,,,,,,,,,,,,,,,,,,,,,,,,,,,,,,,,,,reptiles,Animals,12,0,12,0,1,,,,,,,,,,,,,,,,,,
,,,,,,,,,,,,,,,89642,001,2022-04-25_10h24.04.587,SPAMnetsValid,2021.1.4,Win32,59.94485074,,,,,,,,,,,,,,,,,,,,,,,,,,,,,,,,,,,,,,,,,,,,,,,,,,,,,,,,,,,,,,,,,,,,,,,,0,0,0,0,1,Animals,,,,,,,,,,,,
,,,,,,,,,,,,,,,89642,001,2022-04-25_10h24.04.587,SPAMnetsValid,2021.1.4,Win32,59.94485074,,,,,,,,,,,,,,,,,,,,,,,,,,,,,,,,,,,,,,,,,,,,,,,,,,,,,,,,,,,,,,,,,,,,,,,,,,,,,,3,2.0733,0,0,0,0,1,"I enjoy concentrating on a fantasy or daydream and exploring all its possibilities, letting it grow and develop.",0,1,,
,,,,,,,,,,,,,,,89642,001,2022-04-25_10h24.04.587,SPAMnetsValid,2021.1.4,Win32,59.94485074,,,,,,,,,,,,,,,,,,,,,,,,,,,,,,,,,,,,,,,,,,,,,,,,,,,,,,,,,,,,,,,,,,,,,,,,,,,,,,3,0.4737,0,1,1,1,1,I think it's interesting to learn and develop new hobbies.,0,2,,
,,,,,,,,,,,,,,,89642,001,2022-04-25_10h24.04.587,SPAMnetsValid,2021.1.4,Win32,59.94485074,,,,,,,,,,,,,,,,,,,,,,,,,,,,,,,,,,,,,,,,,,,,,,,,,,,,,,,,,,,,,,,,,,,,,,,,,,,,,,3,0.3195,0,2,2,2,1,I am intrigued by the patterns I find in art and nature.,0,3,,
,,,,,,,,,,,,,,,89642,001,2022-04-25_10h24.04.587,SPAMnetsValid,2021.1.4,Win32,59.94485074,,,,,,,,,,,,,,,,,,,,,,,,,,,,,,,,,,,,,,,,,,,,,,,,,,,,,,,,,,,,,,,,,,,,,,,,,,,,,,3,0.5006,0,3,3,3,1,I believe letting students hear controversial speakers can only confuse and mislead them.,1,4,,
,,,,,,,,,,,,,,,89642,001,2022-04-25_10h24.04.587,SPAMnetsValid,2021.1.4,Win32,59.94485074,,,,,,,,,,,,,,,,,,,,,,,,,,,,,,,,,,,,,,,,,,,,,,,,,,,,,,,,,,,,,,,,,,,,,,,,,,,,,,3,0.0194,0,4,4,4,1,Poetry has little or no effect on me.,1,5,,
,,,,,,,,,,,,,,,89642,001,2022-04-25_10h24.04.587,SPAMnetsValid,2021.1.4,Win32,59.94485074,,,,,,,,,,,,,,,,,,,,,,,,,,,,,,,,,,,,,,,,,,,,,,,,,,,,,,,,,,,,,,,,,,,,,,,,,,,,,,3,0.0259,0,5,5,5,1,I would have difficulty just letting my mind wander without control or guidance.,1,6,,
,,,,,,,,,,,,,,,89642,001,2022-04-25_10h24.04.587,SPAMnetsValid,2021.1.4,Win32,59.94485074,,,,,,,,,,,,,,,,,,,,,,,,,,,,,,,,,,,,,,,,,,,,,,,,,,,,,,,,,,,,,,,,,,,,,,,,,,,,,,3,1.1338,0,6,6,6,1,I seldom notice the moods or feelings that different environments produce.,1,7,,
,,,,,,,,,,,,,,,89642,001,2022-04-25_10h24.04.587,SPAMnetsValid,2021.1.4,Win32,59.94485074,,,,,,,,,,,,,,,,,,,,,,,,,,,,,,,,,,,,,,,,,,,,,,,,,,,,,,,,,,,,,,,,,,,,,,,,,,,,,,3,0.9432,0,7,7,7,1,I experience a wide range of emotions or feelings.,0,8,,
,,,,,,,,,,,,,,,89642,001,2022-04-25_10h24.04.587,SPAMnetsValid,2021.1.4,Win32,59.94485074,,,,,,,,,,,,,,,,,,,,,,,,,,,,,,,,,,,,,,,,,,,,,,,,,,,,,,,,,,,,,,,,,,,,,,,,,,,,,,3,0.022,0,8,8,8,1,"Sometimes when I am reading poetry or looking at a work of art, I feel a chill or wave of excitement.",0,9,,
,,,,,,,,,,,,,,,89642,001,2022-04-25_10h24.04.587,SPAMnetsValid,2021.1.4,Win32,59.94485074,,,,,,,,,,,,,,,,,,,,,,,,,,,,,,,,,,,,,,,,,,,,,,,,,,,,,,,,,,,,,,,,,,,,,,,,,,,,,,3,1.5616,0,9,9,9,1,I have little interest in speculating on the nature of the universe or the human condition.,1,10,,
,,,,,,,,,,,,,,,89642,001,2022-04-25_10h24.04.587,SPAMnetsValid,2021.1.4,Win32,59.94485074,,,,,,,,,,,,,,,,,,,,,,,,,,,,,,,,,,,,,,,,,,,,,,,,,,,,,,,,,,,,,,,,,,,,,,,,,,,,,,3,0.1865,0,10,10,10,1,I have a lot of intellectual curiosity.,0,11,,
,,,,,,,,,,,,,,,89642,001,2022-04-25_10h24.04.587,SPAMnetsValid,2021.1.4,Win32,59.94485074,,,,,,,,,,,,,,,,,,,,,,,,,,,,,,,,,,,,,,,,,,,,,,,,,,,,,,,,,,,,,,,,,,,,,,,,,,,,,,3,1.3469,0,11,11,11,1,I often enjoy playing with theories or abstract ideas.,0,12,,
,,,,,,,,,,,,,,,89642,001,2022-04-25_10h24.04.587,SPAMnetsValid,2021.1.4,Win32,59.94485074,,,,,,,,,,,,,,,,,,,,,,,,,,,,,,,,,,,,,,,,,,,,,,,,,,,,,,,,,,,,,,,,,,,,,,,,,,,,,,,,,,,,,,,,return,3.6627
