key_resp_3.keys,key_resp_3.rt,slider.response,slider.rt,rjt_rating,rjt_RT,trials_22.thisRepN,trials_22.thisTrialN,trials_22.thisN,trials_22.thisIndex,trials_22.ran,rjt_order,word1,word2,attention,participant,session,date,expName,psychopyVersion,OS,frameRate,trials_99.thisRepN,trials_99.thisTrialN,trials_99.thisN,trials_99.thisIndex,trials_99.ran,trials_5.thisRepN,trials_5.thisTrialN,trials_5.thisN,trials_5.thisIndex,trials_5.ran,repOne,repTwo,slider_2.response,slider_2.rt,trials_24.thisRepN,trials_24.thisTrialN,trials_24.thisN,trials_24.thisIndex,trials_24.ran,trials_4.thisRepN,trials_4.thisTrialN,trials_4.thisN,trials_4.thisIndex,trials_4.ran,slider_extend_2.response,slider_extend_2.rt,trials_6.thisRepN,trials_6.thisTrialN,trials_6.thisN,trials_6.thisIndex,trials_6.ran,vCue2,R1,R2,R3,R4,correct,sliderVocab.response,sliderVocab.rt,trials_7.thisRepN,trials_7.thisTrialN,trials_7.thisN,trials_7.thisIndex,trials_7.ran,VocabCue,VR1,VR2,VR3,VR4,VR5,VocabCorrect,AUT_resp,AUT_label,trials.thisRepN,trials.thisTrialN,trials.thisN,trials.thisIndex,trials.ran,trials_2.thisRepN,trials_2.thisTrialN,trials_2.thisN,trials_2.thisIndex,trials_2.ran,aut_prompt,VF_response,VF_tag,trials_16.thisRepN,trials_16.thisTrialN,trials_16.thisN,trials_16.thisIndex,trials_16.ran,trials_17.thisRepN,trials_17.thisTrialN,trials_17.thisN,trials_17.thisIndex,trials_17.ran,VFcond,open_slider.response,open_slider.rt,trials_3.thisRepN,trials_3.thisTrialN,trials_3.thisN,trials_3.thisIndex,trials_3.ran,OpenQ,Rev,OPEN_ORDER,key_resp_2.keys,key_resp_2.rt
return,6.8862,6,7.944,6,7.944,0,0,0,28,1,84,oven,tomato,,89655,001,2022-04-25_12h30.32.935,SPAMnetsValid,2021.1.4,MacIntel,59.97361161,,,,,,,,,,,,,,,,,,,,,,,,,,,,,,,,,,,,,,,,,,,,,,,,,,,,,,,,,,,,,,,,,,,,,,,,,,,,,,,,,,,,,,,,,
,,3,2.7252,3,2.7252,0,1,1,61,1,71,broom,rose,,89655,001,2022-04-25_12h30.32.935,SPAMnetsValid,2021.1.4,MacIntel,59.97361161,,,,,,,,,,,,,,,,,,,,,,,,,,,,,,,,,,,,,,,,,,,,,,,,,,,,,,,,,,,,,,,,,,,,,,,,,,,,,,,,,,,,,,,,,
,,2,2.6542,2,2.6542,0,2,2,7,1,34,melon,oven,,89655,001,2022-04-25_12h30.32.935,SPAMnetsValid,2021.1.4,MacIntel,59.97361161,,,,,,,,,,,,,,,,,,,,,,,,,,,,,,,,,,,,,,,,,,,,,,,,,,,,,,,,,,,,,,,,,,,,,,,,,,,,,,,,,,,,,,,,,
,,6,3.3882,6,3.3882,0,3,3,81,1,60,cactus,onion,,89655,001,2022-04-25_12h30.32.935,SPAMnetsValid,2021.1.4,MacIntel,59.97361161,,,,,,,,,,,,,,,,,,,,,,,,,,,,,,,,,,,,,,,,,,,,,,,,,,,,,,,,,,,,,,,,,,,,,,,,,,,,,,,,,,,,,,,,,
,,9,1.6431,9,1.6431,0,4,4,53,1,192,microwave,microwave,CHECK,89655,001,2022-04-25_12h30.32.935,SPAMnetsValid,2021.1.4,MacIntel,59.97361161,,,,,,,,,,,,,,,,,,,,,,,,,,,,,,,,,,,,,,,,,,,,,,,,,,,,,,,,,,,,,,,,,,,,,,,,,,,,,,,,,,,,,,,,,
,,3,3.0263,3,3.0263,0,5,5,56,1,78,cookie,rose,,89655,001,2022-04-25_12h30.32.935,SPAMnetsValid,2021.1.4,MacIntel,59.97361161,,,,,,,,,,,,,,,,,,,,,,,,,,,,,,,,,,,,,,,,,,,,,,,,,,,,,,,,,,,,,,,,,,,,,,,,,,,,,,,,,,,,,,,,,
,,6,2.2308,6,2.2308,0,6,6,2,1,22,kitchen,strawberry,,89655,001,2022-04-25_12h30.32.935,SPAMnetsValid,2021.1.4,MacIntel,59.97361161,,,,,,,,,,,,,,,,,,,,,,,,,,,,,,,,,,,,,,,,,,,,,,,,,,,,,,,,,,,,,,,,,,,,,,,,,,,,,,,,,,,,,,,,,
,,4,1.6978,4,1.6978,0,7,7,14,1,64,chocolate,garden,,89655,001,2022-04-25_12h30.32.935,SPAMnetsValid,2021.1.4,MacIntel,59.97361161,,,,,,,,,,,,,,,,,,,,,,,,,,,,,,,,,,,,,,,,,,,,,,,,,,,,,,,,,,,,,,,,,,,,,,,,,,,,,,,,,,,,,,,,,
,,8,1.6444,8,1.6444,0,8,8,42,1,77,refrigerator,yogurt,,89655,001,2022-04-25_12h30.32.935,SPAMnetsValid,2021.1.4,MacIntel,59.97361161,,,,,,,,,,,,,,,,,,,,,,,,,,,,,,,,,,,,,,,,,,,,,,,,,,,,,,,,,,,,,,,,,,,,,,,,,,,,,,,,,,,,,,,,,
,,3,1.9743,3,1.9743,0,9,9,84,1,91,microwave,rose,,89655,001,2022-04-25_12h30.32.935,SPAMnetsValid,2021.1.4,MacIntel,59.97361161,,,,,,,,,,,,,,,,,,,,,,,,,,,,,,,,,,,,,,,,,,,,,,,,,,,,,,,,,,,,,,,,,,,,,,,,,,,,,,,,,,,,,,,,,
,,7,1.3083,7,1.3083,0,10,10,86,1,51,onion,strawberry,,89655,001,2022-04-25_12h30.32.935,SPAMnetsValid,2021.1.4,MacIntel,59.97361161,,,,,,,,,,,,,,,,,,,,,,,,,,,,,,,,,,,,,,,,,,,,,,,,,,,,,,,,,,,,,,,,,,,,,,,,,,,,,,,,,,,,,,,,,
,,3,1.5774,3,1.5774,0,11,11,16,1,14,broom,cookie,,89655,001,2022-04-25_12h30.32.935,SPAMnetsValid,2021.1.4,MacIntel,59.97361161,,,,,,,,,,,,,,,,,,,,,,,,,,,,,,,,,,,,,,,,,,,,,,,,,,,,,,,,,,,,,,,,,,,,,,,,,,,,,,,,,,,,,,,,,
,,4,2.8547,4,2.8547,0,12,12,43,1,11,refrigerator,tree,,89655,001,2022-04-25_12h30.32.935,SPAMnetsValid,2021.1.4,MacIntel,59.97361161,,,,,,,,,,,,,,,,,,,,,,,,,,,,,,,,,,,,,,,,,,,,,,,,,,,,,,,,,,,,,,,,,,,,,,,,,,,,,,,,,,,,,,,,,
,,8,3.293,8,3.293,0,13,13,44,1,25,carrot,onion,,89655,001,2022-04-25_12h30.32.935,SPAMnetsValid,2021.1.4,MacIntel,59.97361161,,,,,,,,,,,,,,,,,,,,,,,,,,,,,,,,,,,,,,,,,,,,,,,,,,,,,,,,,,,,,,,,,,,,,,,,,,,,,,,,,,,,,,,,,
,,3,1.8212,3,1.8212,0,14,14,40,1,74,broom,pretzel,,89655,001,2022-04-25_12h30.32.935,SPAMnetsValid,2021.1.4,MacIntel,59.97361161,,,,,,,,,,,,,,,,,,,,,,,,,,,,,,,,,,,,,,,,,,,,,,,,,,,,,,,,,,,,,,,,,,,,,,,,,,,,,,,,,,,,,,,,,
,,7,1.6117,7,1.6117,0,15,15,6,1,87,carrot,yogurt,,89655,001,2022-04-25_12h30.32.935,SPAMnetsValid,2021.1.4,MacIntel,59.97361161,,,,,,,,,,,,,,,,,,,,,,,,,,,,,,,,,,,,,,,,,,,,,,,,,,,,,,,,,,,,,,,,,,,,,,,,,,,,,,,,,,,,,,,,,
,,7,2.7896,7,2.7896,0,16,16,22,1,16,chocolate,flower,,89655,001,2022-04-25_12h30.32.935,SPAMnetsValid,2021.1.4,MacIntel,59.97361161,,,,,,,,,,,,,,,,,,,,,,,,,,,,,,,,,,,,,,,,,,,,,,,,,,,,,,,,,,,,,,,,,,,,,,,,,,,,,,,,,,,,,,,,,
,,3,1.8846,3,1.8846,0,17,17,55,1,1,rose,yogurt,,89655,001,2022-04-25_12h30.32.935,SPAMnetsValid,2021.1.4,MacIntel,59.97361161,,,,,,,,,,,,,,,,,,,,,,,,,,,,,,,,,,,,,,,,,,,,,,,,,,,,,,,,,,,,,,,,,,,,,,,,,,,,,,,,,,,,,,,,,
,,7,1.2836,7,1.2836,0,18,18,45,1,10,flower,onion,,89655,001,2022-04-25_12h30.32.935,SPAMnetsValid,2021.1.4,MacIntel,59.97361161,,,,,,,,,,,,,,,,,,,,,,,,,,,,,,,,,,,,,,,,,,,,,,,,,,,,,,,,,,,,,,,,,,,,,,,,,,,,,,,,,,,,,,,,,
,,6,1.3133,6,1.3133,0,19,19,87,1,79,garden,strawberry,,89655,001,2022-04-25_12h30.32.935,SPAMnetsValid,2021.1.4,MacIntel,59.97361161,,,,,,,,,,,,,,,,,,,,,,,,,,,,,,,,,,,,,,,,,,,,,,,,,,,,,,,,,,,,,,,,,,,,,,,,,,,,,,,,,,,,,,,,,
,,4,1.2264,4,1.2264,0,20,20,68,1,24,cookie,tomato,,89655,001,2022-04-25_12h30.32.935,SPAMnetsValid,2021.1.4,MacIntel,59.97361161,,,,,,,,,,,,,,,,,,,,,,,,,,,,,,,,,,,,,,,,,,,,,,,,,,,,,,,,,,,,,,,,,,,,,,,,,,,,,,,,,,,,,,,,,
,,7,1.2189,7,1.2189,0,21,21,35,1,55,tomato,tree,,89655,001,2022-04-25_12h30.32.935,SPAMnetsValid,2021.1.4,MacIntel,59.97361161,,,,,,,,,,,,,,,,,,,,,,,,,,,,,,,,,,,,,,,,,,,,,,,,,,,,,,,,,,,,,,,,,,,,,,,,,,,,,,,,,,,,,,,,,
,,4,1.2467,4,1.2467,0,22,22,9,1,75,cookie,onion,,89655,001,2022-04-25_12h30.32.935,SPAMnetsValid,2021.1.4,MacIntel,59.97361161,,,,,,,,,,,,,,,,,,,,,,,,,,,,,,,,,,,,,,,,,,,,,,,,,,,,,,,,,,,,,,,,,,,,,,,,,,,,,,,,,,,,,,,,,
,,2,1.0668,2,1.0668,0,23,23,15,1,48,flower,oven,,89655,001,2022-04-25_12h30.32.935,SPAMnetsValid,2021.1.4,MacIntel,59.97361161,,,,,,,,,,,,,,,,,,,,,,,,,,,,,,,,,,,,,,,,,,,,,,,,,,,,,,,,,,,,,,,,,,,,,,,,,,,,,,,,,,,,,,,,,
,,4,1.7561,4,1.7561,0,24,24,47,1,73,broom,chocolate,,89655,001,2022-04-25_12h30.32.935,SPAMnetsValid,2021.1.4,MacIntel,59.97361161,,,,,,,,,,,,,,,,,,,,,,,,,,,,,,,,,,,,,,,,,,,,,,,,,,,,,,,,,,,,,,,,,,,,,,,,,,,,,,,,,,,,,,,,,
,,3,1.0267,3,1.0267,0,25,25,5,1,13,broom,yogurt,,89655,001,2022-04-25_12h30.32.935,SPAMnetsValid,2021.1.4,MacIntel,59.97361161,,,,,,,,,,,,,,,,,,,,,,,,,,,,,,,,,,,,,,,,,,,,,,,,,,,,,,,,,,,,,,,,,,,,,,,,,,,,,,,,,,,,,,,,,
,,3,1.2058,3,1.2058,0,26,26,4,1,83,broom,carrot,,89655,001,2022-04-25_12h30.32.935,SPAMnetsValid,2021.1.4,MacIntel,59.97361161,,,,,,,,,,,,,,,,,,,,,,,,,,,,,,,,,,,,,,,,,,,,,,,,,,,,,,,,,,,,,,,,,,,,,,,,,,,,,,,,,,,,,,,,,
,,4,1.3141,4,1.3141,0,27,27,64,1,9,kitchen,refrigerator,,89655,001,2022-04-25_12h30.32.935,SPAMnetsValid,2021.1.4,MacIntel,59.97361161,,,,,,,,,,,,,,,,,,,,,,,,,,,,,,,,,,,,,,,,,,,,,,,,,,,,,,,,,,,,,,,,,,,,,,,,,,,,,,,,,,,,,,,,,
,,7,2.0123,7,2.0123,0,28,28,41,1,19,microwave,pretzel,,89655,001,2022-04-25_12h30.32.935,SPAMnetsValid,2021.1.4,MacIntel,59.97361161,,,,,,,,,,,,,,,,,,,,,,,,,,,,,,,,,,,,,,,,,,,,,,,,,,,,,,,,,,,,,,,,,,,,,,,,,,,,,,,,,,,,,,,,,
,,3,1.2429,3,1.2429,0,29,29,50,1,81,pretzel,yogurt,,89655,001,2022-04-25_12h30.32.935,SPAMnetsValid,2021.1.4,MacIntel,59.97361161,,,,,,,,,,,,,,,,,,,,,,,,,,,,,,,,,,,,,,,,,,,,,,,,,,,,,,,,,,,,,,,,,,,,,,,,,,,,,,,,,,,,,,,,,
,,3,1.3093,3,1.3093,0,30,30,48,1,66,melon,yogurt,,89655,001,2022-04-25_12h30.32.935,SPAMnetsValid,2021.1.4,MacIntel,59.97361161,,,,,,,,,,,,,,,,,,,,,,,,,,,,,,,,,,,,,,,,,,,,,,,,,,,,,,,,,,,,,,,,,,,,,,,,,,,,,,,,,,,,,,,,,
,,8,1.2837,8,1.2837,0,31,31,72,1,59,rose,strawberry,,89655,001,2022-04-25_12h30.32.935,SPAMnetsValid,2021.1.4,MacIntel,59.97361161,,,,,,,,,,,,,,,,,,,,,,,,,,,,,,,,,,,,,,,,,,,,,,,,,,,,,,,,,,,,,,,,,,,,,,,,,,,,,,,,,,,,,,,,,
,,7,1.3847,7,1.3847,0,32,32,76,1,36,broom,kitchen,,89655,001,2022-04-25_12h30.32.935,SPAMnetsValid,2021.1.4,MacIntel,59.97361161,,,,,,,,,,,,,,,,,,,,,,,,,,,,,,,,,,,,,,,,,,,,,,,,,,,,,,,,,,,,,,,,,,,,,,,,,,,,,,,,,,,,,,,,,
,,4,1.2119,4,1.2119,0,33,33,1,1,31,cactus,pretzel,,89655,001,2022-04-25_12h30.32.935,SPAMnetsValid,2021.1.4,MacIntel,59.97361161,,,,,,,,,,,,,,,,,,,,,,,,,,,,,,,,,,,,,,,,,,,,,,,,,,,,,,,,,,,,,,,,,,,,,,,,,,,,,,,,,,,,,,,,,
,,3,1.1927,3,1.1927,0,34,34,0,1,53,garden,pretzel,,89655,001,2022-04-25_12h30.32.935,SPAMnetsValid,2021.1.4,MacIntel,59.97361161,,,,,,,,,,,,,,,,,,,,,,,,,,,,,,,,,,,,,,,,,,,,,,,,,,,,,,,,,,,,,,,,,,,,,,,,,,,,,,,,,,,,,,,,,
,,6,1.9351,6,1.9351,0,35,35,33,1,32,cake,microwave,,89655,001,2022-04-25_12h30.32.935,SPAMnetsValid,2021.1.4,MacIntel,59.97361161,,,,,,,,,,,,,,,,,,,,,,,,,,,,,,,,,,,,,,,,,,,,,,,,,,,,,,,,,,,,,,,,,,,,,,,,,,,,,,,,,,,,,,,,,
,,4,0.8955,4,0.8955,0,36,36,23,1,65,broom,garden,,89655,001,2022-04-25_12h30.32.935,SPAMnetsValid,2021.1.4,MacIntel,59.97361161,,,,,,,,,,,,,,,,,,,,,,,,,,,,,,,,,,,,,,,,,,,,,,,,,,,,,,,,,,,,,,,,,,,,,,,,,,,,,,,,,,,,,,,,,
,,4,1.0348,4,1.0348,0,37,37,71,1,38,pretzel,refrigerator,,89655,001,2022-04-25_12h30.32.935,SPAMnetsValid,2021.1.4,MacIntel,59.97361161,,,,,,,,,,,,,,,,,,,,,,,,,,,,,,,,,,,,,,,,,,,,,,,,,,,,,,,,,,,,,,,,,,,,,,,,,,,,,,,,,,,,,,,,,
,,6,0.9365,6,0.9365,0,38,38,74,1,70,chocolate,onion,,89655,001,2022-04-25_12h30.32.935,SPAMnetsValid,2021.1.4,MacIntel,59.97361161,,,,,,,,,,,,,,,,,,,,,,,,,,,,,,,,,,,,,,,,,,,,,,,,,,,,,,,,,,,,,,,,,,,,,,,,,,,,,,,,,,,,,,,,,
,,3,1.1313,3,1.1313,0,39,39,46,1,41,broom,cactus,,89655,001,2022-04-25_12h30.32.935,SPAMnetsValid,2021.1.4,MacIntel,59.97361161,,,,,,,,,,,,,,,,,,,,,,,,,,,,,,,,,,,,,,,,,,,,,,,,,,,,,,,,,,,,,,,,,,,,,,,,,,,,,,,,,,,,,,,,,
,,4,1.1099,4,1.1099,0,40,40,96,1,82,cake,kitchen,,89655,001,2022-04-25_12h30.32.935,SPAMnetsValid,2021.1.4,MacIntel,59.97361161,,,,,,,,,,,,,,,,,,,,,,,,,,,,,,,,,,,,,,,,,,,,,,,,,,,,,,,,,,,,,,,,,,,,,,,,,,,,,,,,,,,,,,,,,
,,4,1.3122,4,1.3122,0,41,41,59,1,8,broom,melon,,89655,001,2022-04-25_12h30.32.935,SPAMnetsValid,2021.1.4,MacIntel,59.97361161,,,,,,,,,,,,,,,,,,,,,,,,,,,,,,,,,,,,,,,,,,,,,,,,,,,,,,,,,,,,,,,,,,,,,,,,,,,,,,,,,,,,,,,,,
,,6,1.2165,6,1.2165,0,42,42,37,1,58,garden,oven,,89655,001,2022-04-25_12h30.32.935,SPAMnetsValid,2021.1.4,MacIntel,59.97361161,,,,,,,,,,,,,,,,,,,,,,,,,,,,,,,,,,,,,,,,,,,,,,,,,,,,,,,,,,,,,,,,,,,,,,,,,,,,,,,,,,,,,,,,,
,,4,1.0052,4,1.0052,0,43,43,12,1,67,flower,yogurt,,89655,001,2022-04-25_12h30.32.935,SPAMnetsValid,2021.1.4,MacIntel,59.97361161,,,,,,,,,,,,,,,,,,,,,,,,,,,,,,,,,,,,,,,,,,,,,,,,,,,,,,,,,,,,,,,,,,,,,,,,,,,,,,,,,,,,,,,,,
,,4,1.1916,4,1.1916,0,44,44,57,1,62,kitchen,rose,,89655,001,2022-04-25_12h30.32.935,SPAMnetsValid,2021.1.4,MacIntel,59.97361161,,,,,,,,,,,,,,,,,,,,,,,,,,,,,,,,,,,,,,,,,,,,,,,,,,,,,,,,,,,,,,,,,,,,,,,,,,,,,,,,,,,,,,,,,
,,4,1.3095,4,1.3095,0,45,45,31,1,33,oven,yogurt,,89655,001,2022-04-25_12h30.32.935,SPAMnetsValid,2021.1.4,MacIntel,59.97361161,,,,,,,,,,,,,,,,,,,,,,,,,,,,,,,,,,,,,,,,,,,,,,,,,,,,,,,,,,,,,,,,,,,,,,,,,,,,,,,,,,,,,,,,,
,,3,1.6327,3,1.6327,0,46,46,73,1,50,carrot,rose,,89655,001,2022-04-25_12h30.32.935,SPAMnetsValid,2021.1.4,MacIntel,59.97361161,,,,,,,,,,,,,,,,,,,,,,,,,,,,,,,,,,,,,,,,,,,,,,,,,,,,,,,,,,,,,,,,,,,,,,,,,,,,,,,,,,,,,,,,,
,,6,1.3333,6,1.3333,0,47,47,19,1,76,garden,rose,,89655,001,2022-04-25_12h30.32.935,SPAMnetsValid,2021.1.4,MacIntel,59.97361161,,,,,,,,,,,,,,,,,,,,,,,,,,,,,,,,,,,,,,,,,,,,,,,,,,,,,,,,,,,,,,,,,,,,,,,,,,,,,,,,,,,,,,,,,
,,4,1.7732,4,1.7732,0,48,48,29,1,42,garden,kitchen,,89655,001,2022-04-25_12h30.32.935,SPAMnetsValid,2021.1.4,MacIntel,59.97361161,,,,,,,,,,,,,,,,,,,,,,,,,,,,,,,,,,,,,,,,,,,,,,,,,,,,,,,,,,,,,,,,,,,,,,,,,,,,,,,,,,,,,,,,,
,,7,1.5582,7,1.5582,0,49,49,67,1,54,chocolate,yogurt,,89655,001,2022-04-25_12h30.32.935,SPAMnetsValid,2021.1.4,MacIntel,59.97361161,,,,,,,,,,,,,,,,,,,,,,,,,,,,,,,,,,,,,,,,,,,,,,,,,,,,,,,,,,,,,,,,,,,,,,,,,,,,,,,,,,,,,,,,,
,,4,1.195,4,1.195,0,50,50,27,1,72,broom,onion,,89655,001,2022-04-25_12h30.32.935,SPAMnetsValid,2021.1.4,MacIntel,59.97361161,,,,,,,,,,,,,,,,,,,,,,,,,,,,,,,,,,,,,,,,,,,,,,,,,,,,,,,,,,,,,,,,,,,,,,,,,,,,,,,,,,,,,,,,,
,,7,1.8892,7,1.8892,0,51,51,58,1,94,kitchen,microwave,,89655,001,2022-04-25_12h30.32.935,SPAMnetsValid,2021.1.4,MacIntel,59.97361161,,,,,,,,,,,,,,,,,,,,,,,,,,,,,,,,,,,,,,,,,,,,,,,,,,,,,,,,,,,,,,,,,,,,,,,,,,,,,,,,,,,,,,,,,
,,6,1.4508,6,1.4508,0,52,52,21,1,56,cactus,tree,,89655,001,2022-04-25_12h30.32.935,SPAMnetsValid,2021.1.4,MacIntel,59.97361161,,,,,,,,,,,,,,,,,,,,,,,,,,,,,,,,,,,,,,,,,,,,,,,,,,,,,,,,,,,,,,,,,,,,,,,,,,,,,,,,,,,,,,,,,
,,4,1.5187,4,1.5187,0,53,53,90,1,95,broom,refrigerator,,89655,001,2022-04-25_12h30.32.935,SPAMnetsValid,2021.1.4,MacIntel,59.97361161,,,,,,,,,,,,,,,,,,,,,,,,,,,,,,,,,,,,,,,,,,,,,,,,,,,,,,,,,,,,,,,,,,,,,,,,,,,,,,,,,,,,,,,,,
,,3,1.3111,3,1.3111,0,54,54,62,1,18,onion,refrigerator,,89655,001,2022-04-25_12h30.32.935,SPAMnetsValid,2021.1.4,MacIntel,59.97361161,,,,,,,,,,,,,,,,,,,,,,,,,,,,,,,,,,,,,,,,,,,,,,,,,,,,,,,,,,,,,,,,,,,,,,,,,,,,,,,,,,,,,,,,,
,,6,1.3739,6,1.3739,0,55,55,80,1,61,strawberry,tomato,,89655,001,2022-04-25_12h30.32.935,SPAMnetsValid,2021.1.4,MacIntel,59.97361161,,,,,,,,,,,,,,,,,,,,,,,,,,,,,,,,,,,,,,,,,,,,,,,,,,,,,,,,,,,,,,,,,,,,,,,,,,,,,,,,,,,,,,,,,
,,4,1.1969,4,1.1969,0,56,56,26,1,35,flower,pretzel,,89655,001,2022-04-25_12h30.32.935,SPAMnetsValid,2021.1.4,MacIntel,59.97361161,,,,,,,,,,,,,,,,,,,,,,,,,,,,,,,,,,,,,,,,,,,,,,,,,,,,,,,,,,,,,,,,,,,,,,,,,,,,,,,,,,,,,,,,,
,,3,1.1499,3,1.1499,0,57,57,85,1,90,cactus,cake,,89655,001,2022-04-25_12h30.32.935,SPAMnetsValid,2021.1.4,MacIntel,59.97361161,,,,,,,,,,,,,,,,,,,,,,,,,,,,,,,,,,,,,,,,,,,,,,,,,,,,,,,,,,,,,,,,,,,,,,,,,,,,,,,,,,,,,,,,,
,,3,1.0949,3,1.0949,0,58,58,92,1,44,cookie,melon,,89655,001,2022-04-25_12h30.32.935,SPAMnetsValid,2021.1.4,MacIntel,59.97361161,,,,,,,,,,,,,,,,,,,,,,,,,,,,,,,,,,,,,,,,,,,,,,,,,,,,,,,,,,,,,,,,,,,,,,,,,,,,,,,,,,,,,,,,,
,,7,1.1479,7,1.1479,0,59,59,82,1,93,kitchen,oven,,89655,001,2022-04-25_12h30.32.935,SPAMnetsValid,2021.1.4,MacIntel,59.97361161,,,,,,,,,,,,,,,,,,,,,,,,,,,,,,,,,,,,,,,,,,,,,,,,,,,,,,,,,,,,,,,,,,,,,,,,,,,,,,,,,,,,,,,,,
,,4,1.2179,4,1.2179,0,60,60,3,1,49,flower,strawberry,,89655,001,2022-04-25_12h30.32.935,SPAMnetsValid,2021.1.4,MacIntel,59.97361161,,,,,,,,,,,,,,,,,,,,,,,,,,,,,,,,,,,,,,,,,,,,,,,,,,,,,,,,,,,,,,,,,,,,,,,,,,,,,,,,,,,,,,,,,
,,9,1.7747,9,1.7747,0,61,61,10,1,191,cake,cake,CHECK,89655,001,2022-04-25_12h30.32.935,SPAMnetsValid,2021.1.4,MacIntel,59.97361161,,,,,,,,,,,,,,,,,,,,,,,,,,,,,,,,,,,,,,,,,,,,,,,,,,,,,,,,,,,,,,,,,,,,,,,,,,,,,,,,,,,,,,,,,
,,3,1.2934,3,1.2934,0,62,62,75,1,69,carrot,refrigerator,,89655,001,2022-04-25_12h30.32.935,SPAMnetsValid,2021.1.4,MacIntel,59.97361161,,,,,,,,,,,,,,,,,,,,,,,,,,,,,,,,,,,,,,,,,,,,,,,,,,,,,,,,,,,,,,,,,,,,,,,,,,,,,,,,,,,,,,,,,
,,7,1.2668,7,1.2668,0,63,63,93,1,63,cake,cookie,,89655,001,2022-04-25_12h30.32.935,SPAMnetsValid,2021.1.4,MacIntel,59.97361161,,,,,,,,,,,,,,,,,,,,,,,,,,,,,,,,,,,,,,,,,,,,,,,,,,,,,,,,,,,,,,,,,,,,,,,,,,,,,,,,,,,,,,,,,
,,4,1.1212,4,1.1212,0,64,64,70,1,5,oven,tree,,89655,001,2022-04-25_12h30.32.935,SPAMnetsValid,2021.1.4,MacIntel,59.97361161,,,,,,,,,,,,,,,,,,,,,,,,,,,,,,,,,,,,,,,,,,,,,,,,,,,,,,,,,,,,,,,,,,,,,,,,,,,,,,,,,,,,,,,,,
,,3,1.0048,3,1.0048,0,65,65,20,1,39,melon,pretzel,,89655,001,2022-04-25_12h30.32.935,SPAMnetsValid,2021.1.4,MacIntel,59.97361161,,,,,,,,,,,,,,,,,,,,,,,,,,,,,,,,,,,,,,,,,,,,,,,,,,,,,,,,,,,,,,,,,,,,,,,,,,,,,,,,,,,,,,,,,
,,3,1.1142,3,1.1142,0,66,66,78,1,30,cookie,pretzel,,89655,001,2022-04-25_12h30.32.935,SPAMnetsValid,2021.1.4,MacIntel,59.97361161,,,,,,,,,,,,,,,,,,,,,,,,,,,,,,,,,,,,,,,,,,,,,,,,,,,,,,,,,,,,,,,,,,,,,,,,,,,,,,,,,,,,,,,,,
,,7,1.1589,7,1.1589,0,67,67,38,1,88,cactus,melon,,89655,001,2022-04-25_12h30.32.935,SPAMnetsValid,2021.1.4,MacIntel,59.97361161,,,,,,,,,,,,,,,,,,,,,,,,,,,,,,,,,,,,,,,,,,,,,,,,,,,,,,,,,,,,,,,,,,,,,,,,,,,,,,,,,,,,,,,,,
,,4,1.425,4,1.425,0,68,68,8,1,43,chocolate,tomato,,89655,001,2022-04-25_12h30.32.935,SPAMnetsValid,2021.1.4,MacIntel,59.97361161,,,,,,,,,,,,,,,,,,,,,,,,,,,,,,,,,,,,,,,,,,,,,,,,,,,,,,,,,,,,,,,,,,,,,,,,,,,,,,,,,,,,,,,,,
,,3,1.1011,3,1.1011,0,69,69,88,1,92,broom,flower,,89655,001,2022-04-25_12h30.32.935,SPAMnetsValid,2021.1.4,MacIntel,59.97361161,,,,,,,,,,,,,,,,,,,,,,,,,,,,,,,,,,,,,,,,,,,,,,,,,,,,,,,,,,,,,,,,,,,,,,,,,,,,,,,,,,,,,,,,,
,,3,1.3533,3,1.3533,0,70,70,89,1,80,chocolate,tree,,89655,001,2022-04-25_12h30.32.935,SPAMnetsValid,2021.1.4,MacIntel,59.97361161,,,,,,,,,,,,,,,,,,,,,,,,,,,,,,,,,,,,,,,,,,,,,,,,,,,,,,,,,,,,,,,,,,,,,,,,,,,,,,,,,,,,,,,,,
,,3,1.0674,3,1.0674,0,71,71,24,1,17,carrot,melon,,89655,001,2022-04-25_12h30.32.935,SPAMnetsValid,2021.1.4,MacIntel,59.97361161,,,,,,,,,,,,,,,,,,,,,,,,,,,,,,,,,,,,,,,,,,,,,,,,,,,,,,,,,,,,,,,,,,,,,,,,,,,,,,,,,,,,,,,,,
,,3,1.082,3,1.082,0,72,72,69,1,45,onion,pretzel,,89655,001,2022-04-25_12h30.32.935,SPAMnetsValid,2021.1.4,MacIntel,59.97361161,,,,,,,,,,,,,,,,,,,,,,,,,,,,,,,,,,,,,,,,,,,,,,,,,,,,,,,,,,,,,,,,,,,,,,,,,,,,,,,,,,,,,,,,,
,,3,0.9026,3,0.9026,0,73,73,36,1,12,cookie,yogurt,,89655,001,2022-04-25_12h30.32.935,SPAMnetsValid,2021.1.4,MacIntel,59.97361161,,,,,,,,,,,,,,,,,,,,,,,,,,,,,,,,,,,,,,,,,,,,,,,,,,,,,,,,,,,,,,,,,,,,,,,,,,,,,,,,,,,,,,,,,
,,3,0.9946,3,0.9946,0,74,74,60,1,89,chocolate,rose,,89655,001,2022-04-25_12h30.32.935,SPAMnetsValid,2021.1.4,MacIntel,59.97361161,,,,,,,,,,,,,,,,,,,,,,,,,,,,,,,,,,,,,,,,,,,,,,,,,,,,,,,,,,,,,,,,,,,,,,,,,,,,,,,,,,,,,,,,,
,,3,0.9586,3,0.9586,0,75,75,63,1,21,cake,onion,,89655,001,2022-04-25_12h30.32.935,SPAMnetsValid,2021.1.4,MacIntel,59.97361161,,,,,,,,,,,,,,,,,,,,,,,,,,,,,,,,,,,,,,,,,,,,,,,,,,,,,,,,,,,,,,,,,,,,,,,,,,,,,,,,,,,,,,,,,
,,3,1.1425,3,1.1425,0,76,76,13,1,26,tomato,yogurt,,89655,001,2022-04-25_12h30.32.935,SPAMnetsValid,2021.1.4,MacIntel,59.97361161,,,,,,,,,,,,,,,,,,,,,,,,,,,,,,,,,,,,,,,,,,,,,,,,,,,,,,,,,,,,,,,,,,,,,,,,,,,,,,,,,,,,,,,,,
,,8,1.0804,8,1.0804,0,77,77,95,1,52,carrot,tomato,,89655,001,2022-04-25_12h30.32.935,SPAMnetsValid,2021.1.4,MacIntel,59.97361161,,,,,,,,,,,,,,,,,,,,,,,,,,,,,,,,,,,,,,,,,,,,,,,,,,,,,,,,,,,,,,,,,,,,,,,,,,,,,,,,,,,,,,,,,
,,4,1.9955,4,1.9955,0,78,78,34,1,29,chocolate,melon,,89655,001,2022-04-25_12h30.32.935,SPAMnetsValid,2021.1.4,MacIntel,59.97361161,,,,,,,,,,,,,,,,,,,,,,,,,,,,,,,,,,,,,,,,,,,,,,,,,,,,,,,,,,,,,,,,,,,,,,,,,,,,,,,,,,,,,,,,,
,,4,20.4499,4,20.4499,0,79,79,11,1,37,garden,refrigerator,,89655,001,2022-04-25_12h30.32.935,SPAMnetsValid,2021.1.4,MacIntel,59.97361161,,,,,,,,,,,,,,,,,,,,,,,,,,,,,,,,,,,,,,,,,,,,,,,,,,,,,,,,,,,,,,,,,,,,,,,,,,,,,,,,,,,,,,,,,
,,8,9.2393,8,9.2393,0,80,80,30,1,3,cake,oven,,89655,001,2022-04-25_12h30.32.935,SPAMnetsValid,2021.1.4,MacIntel,59.97361161,,,,,,,,,,,,,,,,,,,,,,,,,,,,,,,,,,,,,,,,,,,,,,,,,,,,,,,,,,,,,,,,,,,,,,,,,,,,,,,,,,,,,,,,,
,,4,6.3322,4,6.3322,0,81,81,94,1,68,flower,tomato,,89655,001,2022-04-25_12h30.32.935,SPAMnetsValid,2021.1.4,MacIntel,59.97361161,,,,,,,,,,,,,,,,,,,,,,,,,,,,,,,,,,,,,,,,,,,,,,,,,,,,,,,,,,,,,,,,,,,,,,,,,,,,,,,,,,,,,,,,,
,,3,1.1674,3,1.1674,0,82,82,49,1,57,flower,kitchen,,89655,001,2022-04-25_12h30.32.935,SPAMnetsValid,2021.1.4,MacIntel,59.97361161,,,,,,,,,,,,,,,,,,,,,,,,,,,,,,,,,,,,,,,,,,,,,,,,,,,,,,,,,,,,,,,,,,,,,,,,,,,,,,,,,,,,,,,,,
,,7,1.1842,7,1.1842,0,83,83,39,1,15,onion,oven,,89655,001,2022-04-25_12h30.32.935,SPAMnetsValid,2021.1.4,MacIntel,59.97361161,,,,,,,,,,,,,,,,,,,,,,,,,,,,,,,,,,,,,,,,,,,,,,,,,,,,,,,,,,,,,,,,,,,,,,,,,,,,,,,,,,,,,,,,,
,,4,3.0794,4,3.0794,0,84,84,83,1,6,garden,onion,,89655,001,2022-04-25_12h30.32.935,SPAMnetsValid,2021.1.4,MacIntel,59.97361161,,,,,,,,,,,,,,,,,,,,,,,,,,,,,,,,,,,,,,,,,,,,,,,,,,,,,,,,,,,,,,,,,,,,,,,,,,,,,,,,,,,,,,,,,
,,4,2.9671,4,2.9671,0,85,85,54,1,28,cake,melon,,89655,001,2022-04-25_12h30.32.935,SPAMnetsValid,2021.1.4,MacIntel,59.97361161,,,,,,,,,,,,,,,,,,,,,,,,,,,,,,,,,,,,,,,,,,,,,,,,,,,,,,,,,,,,,,,,,,,,,,,,,,,,,,,,,,,,,,,,,
,,4,2.3986,4,2.3986,0,86,86,65,1,46,garden,yogurt,,89655,001,2022-04-25_12h30.32.935,SPAMnetsValid,2021.1.4,MacIntel,59.97361161,,,,,,,,,,,,,,,,,,,,,,,,,,,,,,,,,,,,,,,,,,,,,,,,,,,,,,,,,,,,,,,,,,,,,,,,,,,,,,,,,,,,,,,,,
,,3,3.5004,3,3.5004,0,87,87,51,1,47,onion,tomato,,89655,001,2022-04-25_12h30.32.935,SPAMnetsValid,2021.1.4,MacIntel,59.97361161,,,,,,,,,,,,,,,,,,,,,,,,,,,,,,,,,,,,,,,,,,,,,,,,,,,,,,,,,,,,,,,,,,,,,,,,,,,,,,,,,,,,,,,,,
,,6,1.2651,6,1.2651,0,88,88,66,1,20,rose,tree,,89655,001,2022-04-25_12h30.32.935,SPAMnetsValid,2021.1.4,MacIntel,59.97361161,,,,,,,,,,,,,,,,,,,,,,,,,,,,,,,,,,,,,,,,,,,,,,,,,,,,,,,,,,,,,,,,,,,,,,,,,,,,,,,,,,,,,,,,,
,,3,1.1632,3,1.1632,0,89,89,32,1,40,broom,cake,,89655,001,2022-04-25_12h30.32.935,SPAMnetsValid,2021.1.4,MacIntel,59.97361161,,,,,,,,,,,,,,,,,,,,,,,,,,,,,,,,,,,,,,,,,,,,,,,,,,,,,,,,,,,,,,,,,,,,,,,,,,,,,,,,,,,,,,,,,
,,4,1.6439,4,1.6439,0,90,90,18,1,85,cake,tree,,89655,001,2022-04-25_12h30.32.935,SPAMnetsValid,2021.1.4,MacIntel,59.97361161,,,,,,,,,,,,,,,,,,,,,,,,,,,,,,,,,,,,,,,,,,,,,,,,,,,,,,,,,,,,,,,,,,,,,,,,,,,,,,,,,,,,,,,,,
,,3,1.0841,3,1.0841,0,91,91,91,1,2,kitchen,onion,,89655,001,2022-04-25_12h30.32.935,SPAMnetsValid,2021.1.4,MacIntel,59.97361161,,,,,,,,,,,,,,,,,,,,,,,,,,,,,,,,,,,,,,,,,,,,,,,,,,,,,,,,,,,,,,,,,,,,,,,,,,,,,,,,,,,,,,,,,
,,3,1.3006,3,1.3006,0,92,92,25,1,23,flower,microwave,,89655,001,2022-04-25_12h30.32.935,SPAMnetsValid,2021.1.4,MacIntel,59.97361161,,,,,,,,,,,,,,,,,,,,,,,,,,,,,,,,,,,,,,,,,,,,,,,,,,,,,,,,,,,,,,,,,,,,,,,,,,,,,,,,,,,,,,,,,
,,6,1.0983,6,1.0983,0,93,93,77,1,7,melon,tree,,89655,001,2022-04-25_12h30.32.935,SPAMnetsValid,2021.1.4,MacIntel,59.97361161,,,,,,,,,,,,,,,,,,,,,,,,,,,,,,,,,,,,,,,,,,,,,,,,,,,,,,,,,,,,,,,,,,,,,,,,,,,,,,,,,,,,,,,,,
,,4,1.0324,4,1.0324,0,94,94,79,1,86,oven,rose,,89655,001,2022-04-25_12h30.32.935,SPAMnetsValid,2021.1.4,MacIntel,59.97361161,,,,,,,,,,,,,,,,,,,,,,,,,,,,,,,,,,,,,,,,,,,,,,,,,,,,,,,,,,,,,,,,,,,,,,,,,,,,,,,,,,,,,,,,,
,,4,1.3335,4,1.3335,0,95,95,17,1,27,cactus,cookie,,89655,001,2022-04-25_12h30.32.935,SPAMnetsValid,2021.1.4,MacIntel,59.97361161,,,,,,,,,,,,,,,,,,,,,,,,,,,,,,,,,,,,,,,,,,,,,,,,,,,,,,,,,,,,,,,,,,,,,,,,,,,,,,,,,,,,,,,,,
,,4,1.312,4,1.312,0,96,96,52,1,4,chocolate,pretzel,,89655,001,2022-04-25_12h30.32.935,SPAMnetsValid,2021.1.4,MacIntel,59.97361161,,,,,,,,,,,,,,,,,,,,,,,,,,,,,,,,,,,,,,,,,,,,,,,,,,,,,,,,,,,,,,,,,,,,,,,,,,,,,,,,,,,,,,,,,
,,,,,,,,,,,,,,,89655,001,2022-04-25_12h30.32.935,SPAMnetsValid,2021.1.4,MacIntel,59.97361161,0,0,0,0,1,,,,,,,,,,,,,,,,,,,,,,,,,,,,,,,,,,,,,,,,,,,,,,,,,,,,,,,,,,,,,,,,,,,,,,,,,,,,,,,,,,,,
,,,,,,,,,,,,,,,89655,001,2022-04-25_12h30.32.935,SPAMnetsValid,2021.1.4,MacIntel,59.97361161,,,,,,0,0,0,0,1,1,0,,,,,,,,,,,,,,,,,,,,,,,,,,,,,,,,,,,,,,,,,,,,,,,,,,,,,,,,,,,,,,,,,,,,,,,,,,,,,
,,,,8,1.8921,,,,,,115,refrigerator,tomato,,89655,001,2022-04-25_12h30.32.935,SPAMnetsValid,2021.1.4,MacIntel,59.97361161,,,,,,,,,,,,,8,1.8921,0,0,0,85,1,,,,,,,,,,,,,,,,,,,,,,,,,,,,,,,,,,,,,,,,,,,,,,,,,,,,,,,,,,,,,,,,,,,,,,
,,,,6,1.4826,,,,,,120,microwave,oven,,89655,001,2022-04-25_12h30.32.935,SPAMnetsValid,2021.1.4,MacIntel,59.97361161,,,,,,,,,,,,,6,1.4826,0,1,1,14,1,,,,,,,,,,,,,,,,,,,,,,,,,,,,,,,,,,,,,,,,,,,,,,,,,,,,,,,,,,,,,,,,,,,,,,
,,,,4,1.8833,,,,,,155,carrot,cookie,,89655,001,2022-04-25_12h30.32.935,SPAMnetsValid,2021.1.4,MacIntel,59.97361161,,,,,,,,,,,,,4,1.8833,0,2,2,38,1,,,,,,,,,,,,,,,,,,,,,,,,,,,,,,,,,,,,,,,,,,,,,,,,,,,,,,,,,,,,,,,,,,,,,,
,,,,4,1.393,,,,,,137,microwave,tree,,89655,001,2022-04-25_12h30.32.935,SPAMnetsValid,2021.1.4,MacIntel,59.97361161,,,,,,,,,,,,,4,1.393,0,3,3,63,1,,,,,,,,,,,,,,,,,,,,,,,,,,,,,,,,,,,,,,,,,,,,,,,,,,,,,,,,,,,,,,,,,,,,,,
,,,,1,1.7825,,,,,,111,carrot,microwave,,89655,001,2022-04-25_12h30.32.935,SPAMnetsValid,2021.1.4,MacIntel,59.97361161,,,,,,,,,,,,,1,1.7825,0,4,4,16,1,,,,,,,,,,,,,,,,,,,,,,,,,,,,,,,,,,,,,,,,,,,,,,,,,,,,,,,,,,,,,,,,,,,,,,
,,,,2,1.801,,,,,,127,cactus,chocolate,,89655,001,2022-04-25_12h30.32.935,SPAMnetsValid,2021.1.4,MacIntel,59.97361161,,,,,,,,,,,,,2,1.801,0,5,5,57,1,,,,,,,,,,,,,,,,,,,,,,,,,,,,,,,,,,,,,,,,,,,,,,,,,,,,,,,,,,,,,,,,,,,,,,
,,,,6,1.6992,,,,,,160,cookie,kitchen,,89655,001,2022-04-25_12h30.32.935,SPAMnetsValid,2021.1.4,MacIntel,59.97361161,,,,,,,,,,,,,6,1.6992,0,6,6,65,1,,,,,,,,,,,,,,,,,,,,,,,,,,,,,,,,,,,,,,,,,,,,,,,,,,,,,,,,,,,,,,,,,,,,,,
,,,,6,1.4528,,,,,,140,cookie,refrigerator,,89655,001,2022-04-25_12h30.32.935,SPAMnetsValid,2021.1.4,MacIntel,59.97361161,,,,,,,,,,,,,6,1.4528,0,7,7,89,1,,,,,,,,,,,,,,,,,,,,,,,,,,,,,,,,,,,,,,,,,,,,,,,,,,,,,,,,,,,,,,,,,,,,,,
,,,,4,1.3559,,,,,,144,cake,garden,,89655,001,2022-04-25_12h30.32.935,SPAMnetsValid,2021.1.4,MacIntel,59.97361161,,,,,,,,,,,,,4,1.3559,0,8,8,58,1,,,,,,,,,,,,,,,,,,,,,,,,,,,,,,,,,,,,,,,,,,,,,,,,,,,,,,,,,,,,,,,,,,,,,,
,,,,7,2.205,,,,,,173,kitchen,tomato,,89655,001,2022-04-25_12h30.32.935,SPAMnetsValid,2021.1.4,MacIntel,59.97361161,,,,,,,,,,,,,7,2.205,0,9,9,1,1,,,,,,,,,,,,,,,,,,,,,,,,,,,,,,,,,,,,,,,,,,,,,,,,,,,,,,,,,,,,,,,,,,,,,,
,,,,3,1.4339,,,,,,123,cookie,tree,,89655,001,2022-04-25_12h30.32.935,SPAMnetsValid,2021.1.4,MacIntel,59.97361161,,,,,,,,,,,,,3,1.4339,0,10,10,46,1,,,,,,,,,,,,,,,,,,,,,,,,,,,,,,,,,,,,,,,,,,,,,,,,,,,,,,,,,,,,,,,,,,,,,,
,,,,7,1.1516,,,,,,167,carrot,garden,,89655,001,2022-04-25_12h30.32.935,SPAMnetsValid,2021.1.4,MacIntel,59.97361161,,,,,,,,,,,,,7,1.1516,0,11,11,47,1,,,,,,,,,,,,,,,,,,,,,,,,,,,,,,,,,,,,,,,,,,,,,,,,,,,,,,,,,,,,,,,,,,,,,,
,,,,3,1.3095,,,,,,182,flower,refrigerator,,89655,001,2022-04-25_12h30.32.935,SPAMnetsValid,2021.1.4,MacIntel,59.97361161,,,,,,,,,,,,,3,1.3095,0,12,12,32,1,,,,,,,,,,,,,,,,,,,,,,,,,,,,,,,,,,,,,,,,,,,,,,,,,,,,,,,,,,,,,,,,,,,,,,
,,,,7,0.91,,,,,,165,onion,rose,,89655,001,2022-04-25_12h30.32.935,SPAMnetsValid,2021.1.4,MacIntel,59.97361161,,,,,,,,,,,,,7,0.91,0,13,13,40,1,,,,,,,,,,,,,,,,,,,,,,,,,,,,,,,,,,,,,,,,,,,,,,,,,,,,,,,,,,,,,,,,,,,,,,
,,,,7,0.6163,,,,,,131,cactus,garden,,89655,001,2022-04-25_12h30.32.935,SPAMnetsValid,2021.1.4,MacIntel,59.97361161,,,,,,,,,,,,,7,0.6163,0,14,14,33,1,,,,,,,,,,,,,,,,,,,,,,,,,,,,,,,,,,,,,,,,,,,,,,,,,,,,,,,,,,,,,,,,,,,,,,
,,,,7,0.8018,,,,,,186,kitchen,yogurt,,89655,001,2022-04-25_12h30.32.935,SPAMnetsValid,2021.1.4,MacIntel,59.97361161,,,,,,,,,,,,,7,0.8018,0,15,15,48,1,,,,,,,,,,,,,,,,,,,,,,,,,,,,,,,,,,,,,,,,,,,,,,,,,,,,,,,,,,,,,,,,,,,,,,
,,,,3,0.9516,,,,,,142,garden,tree,,89655,001,2022-04-25_12h30.32.935,SPAMnetsValid,2021.1.4,MacIntel,59.97361161,,,,,,,,,,,,,3,0.9516,0,16,16,22,1,,,,,,,,,,,,,,,,,,,,,,,,,,,,,,,,,,,,,,,,,,,,,,,,,,,,,,,,,,,,,,,,,,,,,,
,,,,4,1.6017,,,,,,109,broom,strawberry,,89655,001,2022-04-25_12h30.32.935,SPAMnetsValid,2021.1.4,MacIntel,59.97361161,,,,,,,,,,,,,4,1.6017,0,17,17,4,1,,,,,,,,,,,,,,,,,,,,,,,,,,,,,,,,,,,,,,,,,,,,,,,,,,,,,,,,,,,,,,,,,,,,,,
,,,,4,1.6341,,,,,,170,cookie,microwave,,89655,001,2022-04-25_12h30.32.935,SPAMnetsValid,2021.1.4,MacIntel,59.97361161,,,,,,,,,,,,,4,1.6341,0,18,18,92,1,,,,,,,,,,,,,,,,,,,,,,,,,,,,,,,,,,,,,,,,,,,,,,,,,,,,,,,,,,,,,,,,,,,,,,
,,,,6,2.0955,,,,,,117,melon,strawberry,,89655,001,2022-04-25_12h30.32.935,SPAMnetsValid,2021.1.4,MacIntel,59.97361161,,,,,,,,,,,,,6,2.0955,0,19,19,11,1,,,,,,,,,,,,,,,,,,,,,,,,,,,,,,,,,,,,,,,,,,,,,,,,,,,,,,,,,,,,,,,,,,,,,,
,,,,6,0.7997,,,,,,116,cake,chocolate,,89655,001,2022-04-25_12h30.32.935,SPAMnetsValid,2021.1.4,MacIntel,59.97361161,,,,,,,,,,,,,6,0.7997,0,20,20,44,1,,,,,,,,,,,,,,,,,,,,,,,,,,,,,,,,,,,,,,,,,,,,,,,,,,,,,,,,,,,,,,,,,,,,,,
,,,,6,1.7624,,,,,,133,cake,flower,,89655,001,2022-04-25_12h30.32.935,SPAMnetsValid,2021.1.4,MacIntel,59.97361161,,,,,,,,,,,,,6,1.7624,0,21,21,94,1,,,,,,,,,,,,,,,,,,,,,,,,,,,,,,,,,,,,,,,,,,,,,,,,,,,,,,,,,,,,,,,,,,,,,,
,,,,4,0.9982,,,,,,130,microwave,yogurt,,89655,001,2022-04-25_12h30.32.935,SPAMnetsValid,2021.1.4,MacIntel,59.97361161,,,,,,,,,,,,,4,0.9982,0,22,22,84,1,,,,,,,,,,,,,,,,,,,,,,,,,,,,,,,,,,,,,,,,,,,,,,,,,,,,,,,,,,,,,,,,,,,,,,
,,,,4,0.7671,,,,,,161,kitchen,pretzel,,89655,001,2022-04-25_12h30.32.935,SPAMnetsValid,2021.1.4,MacIntel,59.97361161,,,,,,,,,,,,,4,0.7671,0,23,23,36,1,,,,,,,,,,,,,,,,,,,,,,,,,,,,,,,,,,,,,,,,,,,,,,,,,,,,,,,,,,,,,,,,,,,,,,
,,,,4,0.5331,,,,,,136,chocolate,microwave,,89655,001,2022-04-25_12h30.32.935,SPAMnetsValid,2021.1.4,MacIntel,59.97361161,,,,,,,,,,,,,4,0.5331,0,24,24,96,1,,,,,,,,,,,,,,,,,,,,,,,,,,,,,,,,,,,,,,,,,,,,,,,,,,,,,,,,,,,,,,,,,,,,,,
,,,,4,0.5522,,,,,,180,tree,yogurt,,89655,001,2022-04-25_12h30.32.935,SPAMnetsValid,2021.1.4,MacIntel,59.97361161,,,,,,,,,,,,,4,0.5522,0,25,25,68,1,,,,,,,,,,,,,,,,,,,,,,,,,,,,,,,,,,,,,,,,,,,,,,,,,,,,,,,,,,,,,,,,,,,,,,
,,,,7,0.6978,,,,,,171,cake,tomato,,89655,001,2022-04-25_12h30.32.935,SPAMnetsValid,2021.1.4,MacIntel,59.97361161,,,,,,,,,,,,,7,0.6978,0,26,26,88,1,,,,,,,,,,,,,,,,,,,,,,,,,,,,,,,,,,,,,,,,,,,,,,,,,,,,,,,,,,,,,,,,,,,,,,
,,,,3,0.6324,,,,,,172,kitchen,melon,,89655,001,2022-04-25_12h30.32.935,SPAMnetsValid,2021.1.4,MacIntel,59.97361161,,,,,,,,,,,,,3,0.6324,0,27,27,77,1,,,,,,,,,,,,,,,,,,,,,,,,,,,,,,,,,,,,,,,,,,,,,,,,,,,,,,,,,,,,,,,,,,,,,,
,,,,3,0.6161,,,,,,103,pretzel,tomato,,89655,001,2022-04-25_12h30.32.935,SPAMnetsValid,2021.1.4,MacIntel,59.97361161,,,,,,,,,,,,,3,0.6161,0,28,28,79,1,,,,,,,,,,,,,,,,,,,,,,,,,,,,,,,,,,,,,,,,,,,,,,,,,,,,,,,,,,,,,,,,,,,,,,
,,,,3,0.6158,,,,,,156,melon,rose,,89655,001,2022-04-25_12h30.32.935,SPAMnetsValid,2021.1.4,MacIntel,59.97361161,,,,,,,,,,,,,3,0.6158,0,29,29,31,1,,,,,,,,,,,,,,,,,,,,,,,,,,,,,,,,,,,,,,,,,,,,,,,,,,,,,,,,,,,,,,,,,,,,,,
,,,,6,0.7654,,,,,,138,flower,rose,,89655,001,2022-04-25_12h30.32.935,SPAMnetsValid,2021.1.4,MacIntel,59.97361161,,,,,,,,,,,,,6,0.7654,0,30,30,61,1,,,,,,,,,,,,,,,,,,,,,,,,,,,,,,,,,,,,,,,,,,,,,,,,,,,,,,,,,,,,,,,,,,,,,,
,,,,6,0.4283,,,,,,177,chocolate,strawberry,,89655,001,2022-04-25_12h30.32.935,SPAMnetsValid,2021.1.4,MacIntel,59.97361161,,,,,,,,,,,,,6,0.4283,0,31,31,53,1,,,,,,,,,,,,,,,,,,,,,,,,,,,,,,,,,,,,,,,,,,,,,,,,,,,,,,,,,,,,,,,,,,,,,,
,,,,6,0.4329,,,,,,181,carrot,kitchen,,89655,001,2022-04-25_12h30.32.935,SPAMnetsValid,2021.1.4,MacIntel,59.97361161,,,,,,,,,,,,,6,0.4329,0,32,32,72,1,,,,,,,,,,,,,,,,,,,,,,,,,,,,,,,,,,,,,,,,,,,,,,,,,,,,,,,,,,,,,,,,,,,,,,
,,,,6,0.5456,,,,,,176,cactus,tomato,,89655,001,2022-04-25_12h30.32.935,SPAMnetsValid,2021.1.4,MacIntel,59.97361161,,,,,,,,,,,,,6,0.5456,0,33,33,9,1,,,,,,,,,,,,,,,,,,,,,,,,,,,,,,,,,,,,,,,,,,,,,,,,,,,,,,,,,,,,,,,,,,,,,,
,,,,8,0.6762,,,,,,175,melon,onion,,89655,001,2022-04-25_12h30.32.935,SPAMnetsValid,2021.1.4,MacIntel,59.97361161,,,,,,,,,,,,,8,0.6762,0,34,34,41,1,,,,,,,,,,,,,,,,,,,,,,,,,,,,,,,,,,,,,,,,,,,,,,,,,,,,,,,,,,,,,,,,,,,,,,
,,,,2,1.0151,,,,,,164,cookie,garden,,89655,001,2022-04-25_12h30.32.935,SPAMnetsValid,2021.1.4,MacIntel,59.97361161,,,,,,,,,,,,,2,1.0151,0,35,35,59,1,,,,,,,,,,,,,,,,,,,,,,,,,,,,,,,,,,,,,,,,,,,,,,,,,,,,,,,,,,,,,,,,,,,,,,
,,,,2,0.7999,,,,,,178,cactus,carrot,,89655,001,2022-04-25_12h30.32.935,SPAMnetsValid,2021.1.4,MacIntel,59.97361161,,,,,,,,,,,,,2,0.7999,0,36,36,75,1,,,,,,,,,,,,,,,,,,,,,,,,,,,,,,,,,,,,,,,,,,,,,,,,,,,,,,,,,,,,,,,,,,,,,,
,,,,7,1.0765,,,,,,159,cookie,flower,,89655,001,2022-04-25_12h30.32.935,SPAMnetsValid,2021.1.4,MacIntel,59.97361161,,,,,,,,,,,,,7,1.0765,0,37,37,21,1,,,,,,,,,,,,,,,,,,,,,,,,,,,,,,,,,,,,,,,,,,,,,,,,,,,,,,,,,,,,,,,,,,,,,,
,,,,3,0.943,,,,,,112,cake,carrot,,89655,001,2022-04-25_12h30.32.935,SPAMnetsValid,2021.1.4,MacIntel,59.97361161,,,,,,,,,,,,,3,0.943,0,38,38,39,1,,,,,,,,,,,,,,,,,,,,,,,,,,,,,,,,,,,,,,,,,,,,,,,,,,,,,,,,,,,,,,,,,,,,,,
,,,,3,0.7803,,,,,,187,cactus,microwave,,89655,001,2022-04-25_12h30.32.935,SPAMnetsValid,2021.1.4,MacIntel,59.97361161,,,,,,,,,,,,,3,0.7803,0,39,39,71,1,,,,,,,,,,,,,,,,,,,,,,,,,,,,,,,,,,,,,,,,,,,,,,,,,,,,,,,,,,,,,,,,,,,,,,
,,,,3,0.9677,,,,,,168,cactus,flower,,89655,001,2022-04-25_12h30.32.935,SPAMnetsValid,2021.1.4,MacIntel,59.97361161,,,,,,,,,,,,,3,0.9677,0,40,40,51,1,,,,,,,,,,,,,,,,,,,,,,,,,,,,,,,,,,,,,,,,,,,,,,,,,,,,,,,,,,,,,,,,,,,,,,
,,,,3,0.749,,,,,,147,cake,refrigerator,,89655,001,2022-04-25_12h30.32.935,SPAMnetsValid,2021.1.4,MacIntel,59.97361161,,,,,,,,,,,,,3,0.749,0,41,41,35,1,,,,,,,,,,,,,,,,,,,,,,,,,,,,,,,,,,,,,,,,,,,,,,,,,,,,,,,,,,,,,,,,,,,,,,
,,,,7,0.8979,,,,,,157,refrigerator,rose,,89655,001,2022-04-25_12h30.32.935,SPAMnetsValid,2021.1.4,MacIntel,59.97361161,,,,,,,,,,,,,7,0.8979,0,42,42,64,1,,,,,,,,,,,,,,,,,,,,,,,,,,,,,,,,,,,,,,,,,,,,,,,,,,,,,,,,,,,,,,,,,,,,,,
,,,,7,0.7284,,,,,,128,melon,microwave,,89655,001,2022-04-25_12h30.32.935,SPAMnetsValid,2021.1.4,MacIntel,59.97361161,,,,,,,,,,,,,7,0.7284,0,43,43,74,1,,,,,,,,,,,,,,,,,,,,,,,,,,,,,,,,,,,,,,,,,,,,,,,,,,,,,,,,,,,,,,,,,,,,,,
,,,,6,0.7149,,,,,,97,chocolate,kitchen,,89655,001,2022-04-25_12h30.32.935,SPAMnetsValid,2021.1.4,MacIntel,59.97361161,,,,,,,,,,,,,6,0.7149,0,44,44,8,1,,,,,,,,,,,,,,,,,,,,,,,,,,,,,,,,,,,,,,,,,,,,,,,,,,,,,,,,,,,,,,,,,,,,,,
,,,,2,0.6498,,,,,,101,cactus,kitchen,,89655,001,2022-04-25_12h30.32.935,SPAMnetsValid,2021.1.4,MacIntel,59.97361161,,,,,,,,,,,,,2,0.6498,0,45,45,54,1,,,,,,,,,,,,,,,,,,,,,,,,,,,,,,,,,,,,,,,,,,,,,,,,,,,,,,,,,,,,,,,,,,,,,,
,,,,2,0.7264,,,,,,162,microwave,tomato,,89655,001,2022-04-25_12h30.32.935,SPAMnetsValid,2021.1.4,MacIntel,59.97361161,,,,,,,,,,,,,2,0.7264,0,46,46,12,1,,,,,,,,,,,,,,,,,,,,,,,,,,,,,,,,,,,,,,,,,,,,,,,,,,,,,,,,,,,,,,,,,,,,,,
,,,,4,0.7778,,,,,,129,cactus,refrigerator,,89655,001,2022-04-25_12h30.32.935,SPAMnetsValid,2021.1.4,MacIntel,59.97361161,,,,,,,,,,,,,4,0.7778,0,47,47,3,1,,,,,,,,,,,,,,,,,,,,,,,,,,,,,,,,,,,,,,,,,,,,,,,,,,,,,,,,,,,,,,,,,,,,,,
,,,,2,1.2161,,,,,,153,carrot,pretzel,,89655,001,2022-04-25_12h30.32.935,SPAMnetsValid,2021.1.4,MacIntel,59.97361161,,,,,,,,,,,,,2,1.2161,0,48,48,34,1,,,,,,,,,,,,,,,,,,,,,,,,,,,,,,,,,,,,,,,,,,,,,,,,,,,,,,,,,,,,,,,,,,,,,,
,,,,9,1.6768,,,,,,194,cactus,cactus,CHECK,89655,001,2022-04-25_12h30.32.935,SPAMnetsValid,2021.1.4,MacIntel,59.97361161,,,,,,,,,,,,,9,1.6768,0,49,49,25,1,,,,,,,,,,,,,,,,,,,,,,,,,,,,,,,,,,,,,,,,,,,,,,,,,,,,,,,,,,,,,,,,,,,,,,
,,,,6,1.433,,,,,,174,cake,pretzel,,89655,001,2022-04-25_12h30.32.935,SPAMnetsValid,2021.1.4,MacIntel,59.97361161,,,,,,,,,,,,,6,1.433,0,50,50,2,1,,,,,,,,,,,,,,,,,,,,,,,,,,,,,,,,,,,,,,,,,,,,,,,,,,,,,,,,,,,,,,,,,,,,,,
,,,,3,1.1337,,,,,,148,flower,melon,,89655,001,2022-04-25_12h30.32.935,SPAMnetsValid,2021.1.4,MacIntel,59.97361161,,,,,,,,,,,,,3,1.1337,0,51,51,23,1,,,,,,,,,,,,,,,,,,,,,,,,,,,,,,,,,,,,,,,,,,,,,,,,,,,,,,,,,,,,,,,,,,,,,,
,,,,3,1.0442,,,,,,113,refrigerator,strawberry,,89655,001,2022-04-25_12h30.32.935,SPAMnetsValid,2021.1.4,MacIntel,59.97361161,,,,,,,,,,,,,3,1.0442,0,52,52,56,1,,,,,,,,,,,,,,,,,,,,,,,,,,,,,,,,,,,,,,,,,,,,,,,,,,,,,,,,,,,,,,,,,,,,,,
,,,,8,1.2765,,,,,,185,cactus,rose,,89655,001,2022-04-25_12h30.32.935,SPAMnetsValid,2021.1.4,MacIntel,59.97361161,,,,,,,,,,,,,8,1.2765,0,53,53,43,1,,,,,,,,,,,,,,,,,,,,,,,,,,,,,,,,,,,,,,,,,,,,,,,,,,,,,,,,,,,,,,,,,,,,,,
,,,,7,2.4449,,,,,,141,melon,tomato,,89655,001,2022-04-25_12h30.32.935,SPAMnetsValid,2021.1.4,MacIntel,59.97361161,,,,,,,,,,,,,7,2.4449,0,54,54,70,1,,,,,,,,,,,,,,,,,,,,,,,,,,,,,,,,,,,,,,,,,,,,,,,,,,,,,,,,,,,,,,,,,,,,,,
,,,,3,3.8505,,,,,,163,melon,refrigerator,,89655,001,2022-04-25_12h30.32.935,SPAMnetsValid,2021.1.4,MacIntel,59.97361161,,,,,,,,,,,,,3,3.8505,0,55,55,29,1,,,,,,,,,,,,,,,,,,,,,,,,,,,,,,,,,,,,,,,,,,,,,,,,,,,,,,,,,,,,,,,,,,,,,,
,,,,2,4.3679,,,,,,189,onion,tree,,89655,001,2022-04-25_12h30.32.935,SPAMnetsValid,2021.1.4,MacIntel,59.97361161,,,,,,,,,,,,,2,4.3679,0,56,56,62,1,,,,,,,,,,,,,,,,,,,,,,,,,,,,,,,,,,,,,,,,,,,,,,,,,,,,,,,,,,,,,,,,,,,,,,
,,,,2,13.3821,,,,,,132,broom,tree,,89655,001,2022-04-25_12h30.32.935,SPAMnetsValid,2021.1.4,MacIntel,59.97361161,,,,,,,,,,,,,2,13.3821,0,57,57,78,1,,,,,,,,,,,,,,,,,,,,,,,,,,,,,,,,,,,,,,,,,,,,,,,,,,,,,,,,,,,,,,,,,,,,,,
,,,,2,6.4461,,,,,,121,broom,microwave,,89655,001,2022-04-25_12h30.32.935,SPAMnetsValid,2021.1.4,MacIntel,59.97361161,,,,,,,,,,,,,2,6.4461,0,58,58,95,1,,,,,,,,,,,,,,,,,,,,,,,,,,,,,,,,,,,,,,,,,,,,,,,,,,,,,,,,,,,,,,,,,,,,,,
,,,,7,2.4835,,,,,,110,chocolate,cookie,,89655,001,2022-04-25_12h30.32.935,SPAMnetsValid,2021.1.4,MacIntel,59.97361161,,,,,,,,,,,,,7,2.4835,0,59,59,52,1,,,,,,,,,,,,,,,,,,,,,,,,,,,,,,,,,,,,,,,,,,,,,,,,,,,,,,,,,,,,,,,,,,,,,,
,,,,9,4.652,,,,,,150,microwave,refrigerator,,89655,001,2022-04-25_12h30.32.935,SPAMnetsValid,2021.1.4,MacIntel,59.97361161,,,,,,,,,,,,,9,4.652,0,60,60,66,1,,,,,,,,,,,,,,,,,,,,,,,,,,,,,,,,,,,,,,,,,,,,,,,,,,,,,,,,,,,,,,,,,,,,,,
,,,,3,4.5547,,,,,,134,carrot,flower,,89655,001,2022-04-25_12h30.32.935,SPAMnetsValid,2021.1.4,MacIntel,59.97361161,,,,,,,,,,,,,3,4.5547,0,61,61,93,1,,,,,,,,,,,,,,,,,,,,,,,,,,,,,,,,,,,,,,,,,,,,,,,,,,,,,,,,,,,,,,,,,,,,,,
,,,,7,2.2457,,,,,,139,carrot,strawberry,,89655,001,2022-04-25_12h30.32.935,SPAMnetsValid,2021.1.4,MacIntel,59.97361161,,,,,,,,,,,,,7,2.2457,0,62,62,37,1,,,,,,,,,,,,,,,,,,,,,,,,,,,,,,,,,,,,,,,,,,,,,,,,,,,,,,,,,,,,,,,,,,,,,,
,,,,3,2.2096,,,,,,143,pretzel,rose,,89655,001,2022-04-25_12h30.32.935,SPAMnetsValid,2021.1.4,MacIntel,59.97361161,,,,,,,,,,,,,3,2.2096,0,63,63,55,1,,,,,,,,,,,,,,,,,,,,,,,,,,,,,,,,,,,,,,,,,,,,,,,,,,,,,,,,,,,,,,,,,,,,,,
,,,,1,2.4337,,,,,,179,broom,oven,,89655,001,2022-04-25_12h30.32.935,SPAMnetsValid,2021.1.4,MacIntel,59.97361161,,,,,,,,,,,,,1,2.4337,0,64,64,45,1,,,,,,,,,,,,,,,,,,,,,,,,,,,,,,,,,,,,,,,,,,,,,,,,,,,,,,,,,,,,,,,,,,,,,,
,,,,9,1.9102,,,,,,193,melon,melon,CHECK,89655,001,2022-04-25_12h30.32.935,SPAMnetsValid,2021.1.4,MacIntel,59.97361161,,,,,,,,,,,,,9,1.9102,0,65,65,86,1,,,,,,,,,,,,,,,,,,,,,,,,,,,,,,,,,,,,,,,,,,,,,,,,,,,,,,,,,,,,,,,,,,,,,,
,,,,3,4.3857,,,,,,190,microwave,strawberry,,89655,001,2022-04-25_12h30.32.935,SPAMnetsValid,2021.1.4,MacIntel,59.97361161,,,,,,,,,,,,,3,4.3857,0,66,66,90,1,,,,,,,,,,,,,,,,,,,,,,,,,,,,,,,,,,,,,,,,,,,,,,,,,,,,,,,,,,,,,,,,,,,,,,
,,,,7,1.8322,,,,,,118,chocolate,oven,,89655,001,2022-04-25_12h30.32.935,SPAMnetsValid,2021.1.4,MacIntel,59.97361161,,,,,,,,,,,,,7,1.8322,0,67,67,10,1,,,,,,,,,,,,,,,,,,,,,,,,,,,,,,,,,,,,,,,,,,,,,,,,,,,,,,,,,,,,,,,,,,,,,,
,,,,6,1.4505,,,,,,135,carrot,oven,,89655,001,2022-04-25_12h30.32.935,SPAMnetsValid,2021.1.4,MacIntel,59.97361161,,,,,,,,,,,,,6,1.4505,0,68,68,73,1,,,,,,,,,,,,,,,,,,,,,,,,,,,,,,,,,,,,,,,,,,,,,,,,,,,,,,,,,,,,,,,,,,,,,,
,,,,6,0.8339,,,,,,125,carrot,tree,,89655,001,2022-04-25_12h30.32.935,SPAMnetsValid,2021.1.4,MacIntel,59.97361161,,,,,,,,,,,,,6,0.8339,0,69,69,30,1,,,,,,,,,,,,,,,,,,,,,,,,,,,,,,,,,,,,,,,,,,,,,,,,,,,,,,,,,,,,,,,,,,,,,,
,,,,3,1.1694,,,,,,106,cake,strawberry,,89655,001,2022-04-25_12h30.32.935,SPAMnetsValid,2021.1.4,MacIntel,59.97361161,,,,,,,,,,,,,3,1.1694,0,70,70,0,1,,,,,,,,,,,,,,,,,,,,,,,,,,,,,,,,,,,,,,,,,,,,,,,,,,,,,,,,,,,,,,,,,,,,,,
,,,,3,1.3342,,,,,,152,cactus,strawberry,,89655,001,2022-04-25_12h30.32.935,SPAMnetsValid,2021.1.4,MacIntel,59.97361161,,,,,,,,,,,,,3,1.3342,0,71,71,49,1,,,,,,,,,,,,,,,,,,,,,,,,,,,,,,,,,,,,,,,,,,,,,,,,,,,,,,,,,,,,,,,,,,,,,,
,,,,3,0.8142,,,,,,124,oven,refrigerator,,89655,001,2022-04-25_12h30.32.935,SPAMnetsValid,2021.1.4,MacIntel,59.97361161,,,,,,,,,,,,,3,0.8142,0,72,72,69,1,,,,,,,,,,,,,,,,,,,,,,,,,,,,,,,,,,,,,,,,,,,,,,,,,,,,,,,,,,,,,,,,,,,,,,
,,,,1,3.5498,,,,,,145,cactus,yogurt,,89655,001,2022-04-25_12h30.32.935,SPAMnetsValid,2021.1.4,MacIntel,59.97361161,,,,,,,,,,,,,1,3.5498,0,73,73,15,1,,,,,,,,,,,,,,,,,,,,,,,,,,,,,,,,,,,,,,,,,,,,,,,,,,,,,,,,,,,,,,,,,,,,,,
,,,,8,2.0664,,,,,,154,strawberry,yogurt,,89655,001,2022-04-25_12h30.32.935,SPAMnetsValid,2021.1.4,MacIntel,59.97361161,,,,,,,,,,,,,8,2.0664,0,74,74,28,1,,,,,,,,,,,,,,,,,,,,,,,,,,,,,,,,,,,,,,,,,,,,,,,,,,,,,,,,,,,,,,,,,,,,,,
,,,,6,2.4779,,,,,,114,cookie,strawberry,,89655,001,2022-04-25_12h30.32.935,SPAMnetsValid,2021.1.4,MacIntel,59.97361161,,,,,,,,,,,,,6,2.4779,0,75,75,87,1,,,,,,,,,,,,,,,,,,,,,,,,,,,,,,,,,,,,,,,,,,,,,,,,,,,,,,,,,,,,,,,,,,,,,,
,,,,7,1.3174,,,,,,166,cake,yogurt,,89655,001,2022-04-25_12h30.32.935,SPAMnetsValid,2021.1.4,MacIntel,59.97361161,,,,,,,,,,,,,7,1.3174,0,76,76,91,1,,,,,,,,,,,,,,,,,,,,,,,,,,,,,,,,,,,,,,,,,,,,,,,,,,,,,,,,,,,,,,,,,,,,,,
,,,,3,1.5417,,,,,,98,pretzel,strawberry,,89655,001,2022-04-25_12h30.32.935,SPAMnetsValid,2021.1.4,MacIntel,59.97361161,,,,,,,,,,,,,3,1.5417,0,77,77,82,1,,,,,,,,,,,,,,,,,,,,,,,,,,,,,,,,,,,,,,,,,,,,,,,,,,,,,,,,,,,,,,,,,,,,,,
,,,,2,2.818,,,,,,126,kitchen,tree,,89655,001,2022-04-25_12h30.32.935,SPAMnetsValid,2021.1.4,MacIntel,59.97361161,,,,,,,,,,,,,2,2.818,0,78,78,50,1,,,,,,,,,,,,,,,,,,,,,,,,,,,,,,,,,,,,,,,,,,,,,,,,,,,,,,,,,,,,,,,,,,,,,,
,,,,7,10.094,,,,,,188,flower,tree,,89655,001,2022-04-25_12h30.32.935,SPAMnetsValid,2021.1.4,MacIntel,59.97361161,,,,,,,,,,,,,7,10.094,0,79,79,7,1,,,,,,,,,,,,,,,,,,,,,,,,,,,,,,,,,,,,,,,,,,,,,,,,,,,,,,,,,,,,,,,,,,,,,,
,,,,7,0.8285,,,,,,99,garden,melon,,89655,001,2022-04-25_12h30.32.935,SPAMnetsValid,2021.1.4,MacIntel,59.97361161,,,,,,,,,,,,,7,0.8285,0,80,80,17,1,,,,,,,,,,,,,,,,,,,,,,,,,,,,,,,,,,,,,,,,,,,,,,,,,,,,,,,,,,,,,,,,,,,,,,
,,,,7,0.526,,,,,,146,pretzel,tree,,89655,001,2022-04-25_12h30.32.935,SPAMnetsValid,2021.1.4,MacIntel,59.97361161,,,,,,,,,,,,,7,0.526,0,81,81,80,1,,,,,,,,,,,,,,,,,,,,,,,,,,,,,,,,,,,,,,,,,,,,,,,,,,,,,,,,,,,,,,,,,,,,,,
,,,,7,0.5836,,,,,,108,carrot,chocolate,,89655,001,2022-04-25_12h30.32.935,SPAMnetsValid,2021.1.4,MacIntel,59.97361161,,,,,,,,,,,,,7,0.5836,0,82,82,5,1,,,,,,,,,,,,,,,,,,,,,,,,,,,,,,,,,,,,,,,,,,,,,,,,,,,,,,,,,,,,,,,,,,,,,,
,,,,3,0.807,,,,,,119,strawberry,tree,,89655,001,2022-04-25_12h30.32.935,SPAMnetsValid,2021.1.4,MacIntel,59.97361161,,,,,,,,,,,,,3,0.807,0,83,83,18,1,,,,,,,,,,,,,,,,,,,,,,,,,,,,,,,,,,,,,,,,,,,,,,,,,,,,,,,,,,,,,,,,,,,,,,
,,,,4,2.0625,,,,,,183,cake,rose,,89655,001,2022-04-25_12h30.32.935,SPAMnetsValid,2021.1.4,MacIntel,59.97361161,,,,,,,,,,,,,4,2.0625,0,84,84,19,1,,,,,,,,,,,,,,,,,,,,,,,,,,,,,,,,,,,,,,,,,,,,,,,,,,,,,,,,,,,,,,,,,,,,,,
,,,,2,1.6015,,,,,,105,cactus,oven,,89655,001,2022-04-25_12h30.32.935,SPAMnetsValid,2021.1.4,MacIntel,59.97361161,,,,,,,,,,,,,2,1.6015,0,85,85,13,1,,,,,,,,,,,,,,,,,,,,,,,,,,,,,,,,,,,,,,,,,,,,,,,,,,,,,,,,,,,,,,,,,,,,,,
,,,,8,1.1598,,,,,,151,microwave,onion,,89655,001,2022-04-25_12h30.32.935,SPAMnetsValid,2021.1.4,MacIntel,59.97361161,,,,,,,,,,,,,8,1.1598,0,86,86,6,1,,,,,,,,,,,,,,,,,,,,,,,,,,,,,,,,,,,,,,,,,,,,,,,,,,,,,,,,,,,,,,,,,,,,,,
,,,,7,0.9821,,,,,,96,oven,strawberry,,89655,001,2022-04-25_12h30.32.935,SPAMnetsValid,2021.1.4,MacIntel,59.97361161,,,,,,,,,,,,,7,0.9821,0,87,87,67,1,,,,,,,,,,,,,,,,,,,,,,,,,,,,,,,,,,,,,,,,,,,,,,,,,,,,,,,,,,,,,,,,,,,,,,
,,,,6,0.9176,,,,,,107,rose,tomato,,89655,001,2022-04-25_12h30.32.935,SPAMnetsValid,2021.1.4,MacIntel,59.97361161,,,,,,,,,,,,,6,0.9176,0,88,88,26,1,,,,,,,,,,,,,,,,,,,,,,,,,,,,,,,,,,,,,,,,,,,,,,,,,,,,,,,,,,,,,,,,,,,,,,
,,,,4,1.4759,,,,,,122,flower,garden,,89655,001,2022-04-25_12h30.32.935,SPAMnetsValid,2021.1.4,MacIntel,59.97361161,,,,,,,,,,,,,4,1.4759,0,89,89,60,1,,,,,,,,,,,,,,,,,,,,,,,,,,,,,,,,,,,,,,,,,,,,,,,,,,,,,,,,,,,,,,,,,,,,,,
,,,,8,0.9998,,,,,,102,chocolate,refrigerator,,89655,001,2022-04-25_12h30.32.935,SPAMnetsValid,2021.1.4,MacIntel,59.97361161,,,,,,,,,,,,,8,0.9998,0,90,90,76,1,,,,,,,,,,,,,,,,,,,,,,,,,,,,,,,,,,,,,,,,,,,,,,,,,,,,,,,,,,,,,,,,,,,,,,
,,,,7,1.1496,,,,,,169,onion,yogurt,,89655,001,2022-04-25_12h30.32.935,SPAMnetsValid,2021.1.4,MacIntel,59.97361161,,,,,,,,,,,,,7,1.1496,0,91,91,24,1,,,,,,,,,,,,,,,,,,,,,,,,,,,,,,,,,,,,,,,,,,,,,,,,,,,,,,,,,,,,,,,,,,,,,,
,,,,6,1.6336,,,,,,100,garden,tomato,,89655,001,2022-04-25_12h30.32.935,SPAMnetsValid,2021.1.4,MacIntel,59.97361161,,,,,,,,,,,,,6,1.6336,0,92,92,83,1,,,,,,,,,,,,,,,,,,,,,,,,,,,,,,,,,,,,,,,,,,,,,,,,,,,,,,,,,,,,,,,,,,,,,,
,,,,8,2.5453,,,,,,184,oven,pretzel,,89655,001,2022-04-25_12h30.32.935,SPAMnetsValid,2021.1.4,MacIntel,59.97361161,,,,,,,,,,,,,8,2.5453,0,93,93,42,1,,,,,,,,,,,,,,,,,,,,,,,,,,,,,,,,,,,,,,,,,,,,,,,,,,,,,,,,,,,,,,,,,,,,,,
,,,,2,2.0329,,,,,,104,garden,microwave,,89655,001,2022-04-25_12h30.32.935,SPAMnetsValid,2021.1.4,MacIntel,59.97361161,,,,,,,,,,,,,2,2.0329,0,94,94,81,1,,,,,,,,,,,,,,,,,,,,,,,,,,,,,,,,,,,,,,,,,,,,,,,,,,,,,,,,,,,,,,,,,,,,,,
,,,,2,1.1266,,,,,,149,broom,tomato,,89655,001,2022-04-25_12h30.32.935,SPAMnetsValid,2021.1.4,MacIntel,59.97361161,,,,,,,,,,,,,2,1.1266,0,95,95,20,1,,,,,,,,,,,,,,,,,,,,,,,,,,,,,,,,,,,,,,,,,,,,,,,,,,,,,,,,,,,,,,,,,,,,,,
,,,,6,1.1304,,,,,,158,cookie,oven,,89655,001,2022-04-25_12h30.32.935,SPAMnetsValid,2021.1.4,MacIntel,59.97361161,,,,,,,,,,,,,6,1.1304,0,96,96,27,1,,,,,,,,,,,,,,,,,,,,,,,,,,,,,,,,,,,,,,,,,,,,,,,,,,,,,,,,,,,,,,,,,,,,,,
,,,,,,,,,,,,,,,89655,001,2022-04-25_12h30.32.935,SPAMnetsValid,2021.1.4,MacIntel,59.97361161,,,,,,,,,,,,,,,,,,,,0,0,0,0,1,,,,,,,,,,,,,,,,,,,,,,,,,,,,,,,,,,,,,,,,,,,,,,,,,,,,,,,,,,,,,,,,,
,,,,,,,,,,,,,,,89655,001,2022-04-25_12h30.32.935,SPAMnetsValid,2021.1.4,MacIntel,59.97361161,,,,,,0,1,1,1,1,0,1,,,,,,,,,,,,,,,,,,,,,,,,,,,,,,,,,,,,,,,,,,,,,,,,,,,,,,,,,,,,,,,,,,,,,,,,,,,,,
,,,,,,,,,,,,,,,89655,001,2022-04-25_12h30.32.935,SPAMnetsValid,2021.1.4,MacIntel,59.97361161,,,,,,,,,,,,,,,,,,,,,,,,,2,3.4739,0,0,0,0,1,rancor,forbearance,ridicule,malice,bravery,3,,,,,,,,,,,,,,,,,,,,,,,,,,,,,,,,,,,,,,,,,,,,,,,,,,,,
,,,,,,,,,,,,,,,89655,001,2022-04-25_12h30.32.935,SPAMnetsValid,2021.1.4,MacIntel,59.97361161,,,,,,,,,,,,,,,,,,,,,,,,,4,2.6332,0,1,1,1,1,raucous,empty,quiet,smooth,harsh,4,,,,,,,,,,,,,,,,,,,,,,,,,,,,,,,,,,,,,,,,,,,,,,,,,,,,
,,,,,,,,,,,,,,,89655,001,2022-04-25_12h30.32.935,SPAMnetsValid,2021.1.4,MacIntel,59.97361161,,,,,,,,,,,,,,,,,,,,,,,,,4,5.61,0,2,2,2,1,gargoyle,oil,medicine,carved waterspout,ugly building,3,,,,,,,,,,,,,,,,,,,,,,,,,,,,,,,,,,,,,,,,,,,,,,,,,,,,
,,,,,,,,,,,,,,,89655,001,2022-04-25_12h30.32.935,SPAMnetsValid,2021.1.4,MacIntel,59.97361161,,,,,,,,,,,,,,,,,,,,,,,,,3,50.5694,0,3,3,3,1,recrudesce,purify,renew activity,lack refinement,crush,2,,,,,,,,,,,,,,,,,,,,,,,,,,,,,,,,,,,,,,,,,,,,,,,,,,,,
,,,,,,,,,,,,,,,89655,001,2022-04-25_12h30.32.935,SPAMnetsValid,2021.1.4,MacIntel,59.97361161,,,,,,,,,,,,,,,,,,,,,,,,,3,6.6646,0,4,4,4,1,specious,"plausible, but not genuine",noteworthy,class or variety,roomy,1,,,,,,,,,,,,,,,,,,,,,,,,,,,,,,,,,,,,,,,,,,,,,,,,,,,,
,,,,,,,,,,,,,,,89655,001,2022-04-25_12h30.32.935,SPAMnetsValid,2021.1.4,MacIntel,59.97361161,,,,,,,,,,,,,,,,,,,,,,,,,1,2.1015,0,5,5,5,1,bauble,bubble,showy plaything,idle talk,confusion,2,,,,,,,,,,,,,,,,,,,,,,,,,,,,,,,,,,,,,,,,,,,,,,,,,,,,
,,,,,,,,,,,,,,,89655,001,2022-04-25_12h30.32.935,SPAMnetsValid,2021.1.4,MacIntel,59.97361161,,,,,,,,,,,,,,,,,,,,,,,,,4,2.6632,0,6,6,6,1,prolific,scarce,producing abundantly,reckless,speaking profanely,2,,,,,,,,,,,,,,,,,,,,,,,,,,,,,,,,,,,,,,,,,,,,,,,,,,,,
,,,,,,,,,,,,,,,89655,001,2022-04-25_12h30.32.935,SPAMnetsValid,2021.1.4,MacIntel,59.97361161,,,,,,,,,,,,,,,,,,,,,,,,,2,2.2543,0,7,7,7,1,opulent,party,wealthy,happy frame of mind,semiprecious stone,2,,,,,,,,,,,,,,,,,,,,,,,,,,,,,,,,,,,,,,,,,,,,,,,,,,,,
,,,,,,,,,,,,,,,89655,001,2022-04-25_12h30.32.935,SPAMnetsValid,2021.1.4,MacIntel,59.97361161,,,,,,,,,,,,,,,,,,,,,,,,,4,2.0104,0,8,8,8,1,coercion,conspiracy,strategy,restraint,attraction,3,,,,,,,,,,,,,,,,,,,,,,,,,,,,,,,,,,,,,,,,,,,,,,,,,,,,
,,,,,,,,,,,,,,,89655,001,2022-04-25_12h30.32.935,SPAMnetsValid,2021.1.4,MacIntel,59.97361161,,,,,,,,,,,,,,,,,,,,,,,,,4,2.8656,0,9,9,9,1,hiatus,animal,calamity,dread,gap,4,,,,,,,,,,,,,,,,,,,,,,,,,,,,,,,,,,,,,,,,,,,,,,,,,,,,
,,,,,,,,,,,,,,,89655,001,2022-04-25_12h30.32.935,SPAMnetsValid,2021.1.4,MacIntel,59.97361161,,,,,,,,,,,,,,,,,,,,,,,,,2,3.6652,0,10,10,10,1,germane,microbe,contagious,relevant,different,3,,,,,,,,,,,,,,,,,,,,,,,,,,,,,,,,,,,,,,,,,,,,,,,,,,,,
,,,,,,,,,,,,,,,89655,001,2022-04-25_12h30.32.935,SPAMnetsValid,2021.1.4,MacIntel,59.97361161,,,,,,,,,,,,,,,,,,,,,,,,,,,0,11,11,11,1,perfunctory,fundamental,formal,superficial,careful,3,,,,,,,,,,,,,,,,,,,,,,,,,,,,,,,,,,,,,,,,,,,,,,,,,,,,
,,,,,,,,,,,,,,,89655,001,2022-04-25_12h30.32.935,SPAMnetsValid,2021.1.4,MacIntel,59.97361161,,,,,,,,,,,,,,,,,,,,,,,,,3,2.465,0,12,12,12,1,diverge,reveal,chant,distract the attention of,differ or turn off from,4,,,,,,,,,,,,,,,,,,,,,,,,,,,,,,,,,,,,,,,,,,,,,,,,,,,,
,,,,,,,,,,,,,,,89655,001,2022-04-25_12h30.32.935,SPAMnetsValid,2021.1.4,MacIntel,59.97361161,,,,,,,,,,,,,,,,,,,,,,,,,2,2.3625,0,13,13,13,1,evoke,take away,anger,connect,bring out,4,,,,,,,,,,,,,,,,,,,,,,,,,,,,,,,,,,,,,,,,,,,,,,,,,,,,
,,,,,,,,,,,,,,,89655,001,2022-04-25_12h30.32.935,SPAMnetsValid,2021.1.4,MacIntel,59.97361161,,,,,,,,,,,,,,,,,,,,,,,,,3,3.386,0,14,14,14,1,pertinent,relevant,lying next to,necessary,bold,1,,,,,,,,,,,,,,,,,,,,,,,,,,,,,,,,,,,,,,,,,,,,,,,,,,,,
,,,,,,,,,,,,,,,89655,001,2022-04-25_12h30.32.935,SPAMnetsValid,2021.1.4,MacIntel,59.97361161,,,,,,,,,,,,,,,,,,,,,,,,,2,2.5144,0,15,15,15,1,holocaust,entirety,destruction,saintly,price,2,,,,,,,,,,,,,,,,,,,,,,,,,,,,,,,,,,,,,,,,,,,,,,,,,,,,
,,,,,,,,,,,,,,,89655,001,2022-04-25_12h30.32.935,SPAMnetsValid,2021.1.4,MacIntel,59.97361161,,,,,,,,,,,,,,,,,,,,,,,,,3,2.2861,0,16,16,16,1,piquant,mellow,fish,pungent,cloth,3,,,,,,,,,,,,,,,,,,,,,,,,,,,,,,,,,,,,,,,,,,,,,,,,,,,,
,,,,,,,,,,,,,,,89655,001,2022-04-25_12h30.32.935,SPAMnetsValid,2021.1.4,MacIntel,59.97361161,,,,,,,,,,,,,,,,,,,,,,,,,3,1.9355,0,17,17,17,1,firmament,foundation,heavens,strong,glue,2,,,,,,,,,,,,,,,,,,,,,,,,,,,,,,,,,,,,,,,,,,,,,,,,,,,,
,,,,,,,,,,,,,,,89655,001,2022-04-25_12h30.32.935,SPAMnetsValid,2021.1.4,MacIntel,59.97361161,,,,,,,,,,,,,,,,,,,,,,,,,,,,,,,,,,,,,,2,3.4013,0,0,0,0,1,marketable,partisan,jocular,marriageable,salable,essential,4,,,,,,,,,,,,,,,,,,,,,,,,,,,,,,,,,,,,,,
,,,,,,,,,,,,,,,89655,001,2022-04-25_12h30.32.935,SPAMnetsValid,2021.1.4,MacIntel,59.97361161,,,,,,,,,,,,,,,,,,,,,,,,,,,,,,,,,,,,,,5,3.7844,0,1,1,1,1,cottontail,squirrel,poplar,boa,marshy plant,rabbit,5,,,,,,,,,,,,,,,,,,,,,,,,,,,,,,,,,,,,,,
,,,,,,,,,,,,,,,89655,001,2022-04-25_12h30.32.935,SPAMnetsValid,2021.1.4,MacIntel,59.97361161,,,,,,,,,,,,,,,,,,,,,,,,,,,,,,,,,,,,,,4,1.9108,0,2,2,2,1,boggy,afraid,false,marshy,dense,black,3,,,,,,,,,,,,,,,,,,,,,,,,,,,,,,,,,,,,,,
,,,,,,,,,,,,,,,89655,001,2022-04-25_12h30.32.935,SPAMnetsValid,2021.1.4,MacIntel,59.97361161,,,,,,,,,,,,,,,,,,,,,,,,,,,,,,,,,,,,,,3,2.6175,0,3,3,3,1,gruesomeness,blackness,falseness,vindictiveness,drunkenness,ghastliness,5,,,,,,,,,,,,,,,,,,,,,,,,,,,,,,,,,,,,,,
,,,,,,,,,,,,,,,89655,001,2022-04-25_12h30.32.935,SPAMnetsValid,2021.1.4,MacIntel,59.97361161,,,,,,,,,,,,,,,,,,,,,,,,,,,,,,,,,,,,,,3,2.9796,0,4,4,4,1,loathing,diffidence,laziness,abhorrence,cleverness,comfort,3,,,,,,,,,,,,,,,,,,,,,,,,,,,,,,,,,,,,,,
,,,,,,,,,,,,,,,89655,001,2022-04-25_12h30.32.935,SPAMnetsValid,2021.1.4,MacIntel,59.97361161,,,,,,,,,,,,,,,,,,,,,,,,,,,,,,,,,,,,,,3,0.9804,0,5,5,5,1,bantam,fowl,ridicule,cripple,vegetable,ensign,1,,,,,,,,,,,,,,,,,,,,,,,,,,,,,,,,,,,,,,
,,,,,,,,,,,,,,,89655,001,2022-04-25_12h30.32.935,SPAMnetsValid,2021.1.4,MacIntel,59.97361161,,,,,,,,,,,,,,,,,,,,,,,,,,,,,,,,,,,,,,,,0,6,6,6,1,evoke,wake up,surrender,reconnoiter,transcend,call forth,5,,,,,,,,,,,,,,,,,,,,,,,,,,,,,,,,,,,,,,
,,,,,,,,,,,,,,,89655,001,2022-04-25_12h30.32.935,SPAMnetsValid,2021.1.4,MacIntel,59.97361161,,,,,,,,,,,,,,,,,,,,,,,,,,,,,,,,,,,,,,3,0.8344,0,7,7,7,1,unobtrusive,unintelligent,epileptic,illogical,lineal,modest,5,,,,,,,,,,,,,,,,,,,,,,,,,,,,,,,,,,,,,,
,,,,,,,,,,,,,,,89655,001,2022-04-25_12h30.32.935,SPAMnetsValid,2021.1.4,MacIntel,59.97361161,,,,,,,,,,,,,,,,,,,,,,,,,,,,,,,,,,,,,,2,0.8453,0,8,8,8,1,terrain,ice cream,final test,tractor,area of ground,weight,4,,,,,,,,,,,,,,,,,,,,,,,,,,,,,,,,,,,,,,
,,,,,,,,,,,,,,,89655,001,2022-04-25_12h30.32.935,SPAMnetsValid,2021.1.4,MacIntel,59.97361161,,,,,,,,,,,,,,,,,,,,,,,,,,,,,,,,,,,,,,1,0.9013,0,9,9,9,1,capriciousness,stubbornness,courage,whimsicality,amazement,greediness,3,,,,,,,,,,,,,,,,,,,,,,,,,,,,,,,,,,,,,,
,,,,,,,,,,,,,,,89655,001,2022-04-25_12h30.32.935,SPAMnetsValid,2021.1.4,MacIntel,59.97361161,,,,,,,,,,,,,,,,,,,,,,,,,,,,,,,,,,,,,,2,0.7273,0,10,10,10,1,maelstrom,slander,whirlpool,enmity,armor,majolica,2,,,,,,,,,,,,,,,,,,,,,,,,,,,,,,,,,,,,,,
,,,,,,,,,,,,,,,89655,001,2022-04-25_12h30.32.935,SPAMnetsValid,2021.1.4,MacIntel,59.97361161,,,,,,,,,,,,,,,,,,,,,,,,,,,,,,,,,,,,,,3,0.8206,0,11,11,11,1,tentative,critical,conclusive,authentic,provisional,apprehensive,4,,,,,,,,,,,,,,,,,,,,,,,,,,,,,,,,,,,,,,
,,,,,,,,,,,,,,,89655,001,2022-04-25_12h30.32.935,SPAMnetsValid,2021.1.4,MacIntel,59.97361161,,,,,,,,,,,,,,,,,,,,,,,,,,,,,,,,,,,,,,4,1.189,0,12,12,12,1,placate,rehabilitate,plagiarize,depredate,apprise,conciliate,5,,,,,,,,,,,,,,,,,,,,,,,,,,,,,,,,,,,,,,
,,,,,,,,,,,,,,,89655,001,2022-04-25_12h30.32.935,SPAMnetsValid,2021.1.4,MacIntel,59.97361161,,,,,,,,,,,,,,,,,,,,,,,,,,,,,,,,,,,,,,3,1.0368,0,13,13,13,1,surcease,enlightenment,cessation,inattention,censor,substitution,2,,,,,,,,,,,,,,,,,,,,,,,,,,,,,,,,,,,,,,
,,,,,,,,,,,,,,,89655,001,2022-04-25_12h30.32.935,SPAMnetsValid,2021.1.4,MacIntel,59.97361161,,,,,,,,,,,,,,,,,,,,,,,,,,,,,,,,,,,,,,3,4.5715,0,14,14,14,1,apathetic,wandering,impassive,hateful,prophetic,overflowing,2,,,,,,,,,,,,,,,,,,,,,,,,,,,,,,,,,,,,,,
,,,,,,,,,,,,,,,89655,001,2022-04-25_12h30.32.935,SPAMnetsValid,2021.1.4,MacIntel,59.97361161,,,,,,,,,,,,,,,,,,,,,,,,,,,,,,,,,,,,,,4,2.5173,0,15,15,15,1,paternoster,paternalism,patricide,malediction,benediction,prayer,5,,,,,,,,,,,,,,,,,,,,,,,,,,,,,,,,,,,,,,
,,,,,,,,,,,,,,,89655,001,2022-04-25_12h30.32.935,SPAMnetsValid,2021.1.4,MacIntel,59.97361161,,,,,,,,,,,,,,,,,,,,,,,,,,,,,,,,,,,,,,2,1.4782,0,16,16,16,1,opalescence,opulence,senescence,bankruptcy,iridescence,assiduity,4,,,,,,,,,,,,,,,,,,,,,,,,,,,,,,,,,,,,,,
,,,,,,,,,,,,,,,89655,001,2022-04-25_12h30.32.935,SPAMnetsValid,2021.1.4,MacIntel,59.97361161,,,,,,,,,,,,,,,,,,,,,,,,,,,,,,,,,,,,,,2,2.3669,0,17,17,17,1,lush,stupid,luxurious,hazy,putrid,languishing,2,,,,,,,,,,,,,,,,,,,,,,,,,,,,,,,,,,,,,,
,,,,,,,,,,,,,,,89655,001,2022-04-25_12h30.32.935,SPAMnetsValid,2021.1.4,MacIntel,59.97361161,,,,,,,,,,,,,,,,,,,,,,,,,,,,,,,,,,,,,,2,1.6691,0,18,18,18,1,curtailment,expenditure,abandonment,abridgment,improvement,forgery,3,,,,,,,,,,,,,,,,,,,,,,,,,,,,,,,,,,,,,,
,,,,,,,,,,,,,,,89655,001,2022-04-25_12h30.32.935,SPAMnetsValid,2021.1.4,MacIntel,59.97361161,,,,,,,,,,,,,,,,,,,,,,,,,,,,,,,,,,,,,,2,1.7844,0,19,19,19,1,perversity,adversity,perviousness,travesty,waywardness,gentility,4,,,,,,,,,,,,,,,,,,,,,,,,,,,,,,,,,,,,,,
,,,,,,,,,,,,,,,89655,001,2022-04-25_12h30.32.935,SPAMnetsValid,2021.1.4,MacIntel,59.97361161,,,,,,,,,,,,,,,,,,,,,,,,,,,,,,,,,,,,,,4,1.8222,0,20,20,20,1,calumnious,complimentary,analogous,slanderous,tempestuous,magnanimous,3,,,,,,,,,,,,,,,,,,,,,,,,,,,,,,,,,,,,,,
,,,,,,,,,,,,,,,89655,001,2022-04-25_12h30.32.935,SPAMnetsValid,2021.1.4,MacIntel,59.97361161,,,,,,,,,,,,,,,,,,,,,,,,,,,,,,,,,,,,,,3,1.0541,0,21,21,21,1,illiberality,bigotry,imbecility,illegibility,cautery,immaturity,1,,,,,,,,,,,,,,,,,,,,,,,,,,,,,,,,,,,,,,
,,,,,,,,,,,,,,,89655,001,2022-04-25_12h30.32.935,SPAMnetsValid,2021.1.4,MacIntel,59.97361161,,,,,,,,,,,,,,,,,,,,,,,,,,,,,,,,,,,,,,2,1.1857,0,22,22,22,1,clabber,rejoice,gossip,curdle,crow,hobble,3,,,,,,,,,,,,,,,,,,,,,,,,,,,,,,,,,,,,,,
,,,,,,,,,,,,,,,89655,001,2022-04-25_12h30.32.935,SPAMnetsValid,2021.1.4,MacIntel,59.97361161,,,,,,,,,,,,,,,,,,,,,,,,,,,,,,,,,,,,,,1,1.9842,0,23,23,23,1,sedulousness,diligence,credulousness,seduction,perilousness,frankness,1,,,,,,,,,,,,,,,,,,,,,,,,,,,,,,,,,,,,,,
,,,,,,,,,,,,,,,89655,001,2022-04-25_12h30.32.935,SPAMnetsValid,2021.1.4,MacIntel,59.97361161,,,,,,,,,,,,,,,,,,,,,,,,,,,,,,,,,,,,,,,,,,,,,,,,,,,,"light, birthday cake, warmth, cooking, light a firework",candle,0,0,0,0,1,,,,,,,,,,,,,,,,,,,,,,,,,,,,,,,
,,,,,,,,,,,,,,,89655,001,2022-04-25_12h30.32.935,SPAMnetsValid,2021.1.4,MacIntel,59.97361161,,,,,,,,,,,,,,,,,,,,,,,,,,,,,,,,,,,,,,,,,,,,,,,,,,,,cooking,candle,1,0,1,0,1,,,,,,,,,,,,,,,,,,,,,,,,,,,,,,,
,,,,,,,,,,,,,,,89655,001,2022-04-25_12h30.32.935,SPAMnetsValid,2021.1.4,MacIntel,59.97361161,,,,,,,,,,,,,,,,,,,,,,,,,,,,,,,,,,,,,,,,,,,,,,,,,,,,lighting a firework,candle,2,0,2,0,1,,,,,,,,,,,,,,,,,,,,,,,,,,,,,,,
,,,,,,,,,,,,,,,89655,001,2022-04-25_12h30.32.935,SPAMnetsValid,2021.1.4,MacIntel,59.97361161,,,,,,,,,,,,,,,,,,,,,,,,,,,,,,,,,,,,,,,,,,,,,,,,,,,,warmth,candle,3,0,3,0,1,,,,,,,,,,,,,,,,,,,,,,,,,,,,,,,
,,,,,,,,,,,,,,,89655,001,2022-04-25_12h30.32.935,SPAMnetsValid,2021.1.4,MacIntel,59.97361161,,,,,,,,,,,,,,,,,,,,,,,,,,,,,,,,,,,,,,,,,,,,,,,,,,,,cooking,candle,4,0,4,0,1,,,,,,,,,,,,,,,,,,,,,,,,,,,,,,,
,,,,,,,,,,,,,,,89655,001,2022-04-25_12h30.32.935,SPAMnetsValid,2021.1.4,MacIntel,59.97361161,,,,,,,,,,,,,,,,,,,,,,,,,,,,,,,,,,,,,,,,,,,,,,,,,,,,light,candle,5,0,5,0,1,,,,,,,,,,,,,,,,,,,,,,,,,,,,,,,
,,,,,,,,,,,,,,,89655,001,2022-04-25_12h30.32.935,SPAMnetsValid,2021.1.4,MacIntel,59.97361161,,,,,,,,,,,,,,,,,,,,,,,,,,,,,,,,,,,,,,,,,,,,,,,,,,,,,,,,,,,0,0,0,1,1,candle,,,,,,,,,,,,,,,,,,,,,,,,,
,,,,,,,,,,,,,,,89655,001,2022-04-25_12h30.32.935,SPAMnetsValid,2021.1.4,MacIntel,59.97361161,,,,,,,,,,,,,,,,,,,,,,,,,,,,,,,,,,,,,,,,,,,,,,,,,,,,water park,bucket,0,0,0,0,1,,,,,,,,,,,,,,,,,,,,,,,,,,,,,,,
,,,,,,,,,,,,,,,89655,001,2022-04-25_12h30.32.935,SPAMnetsValid,2021.1.4,MacIntel,59.97361161,,,,,,,,,,,,,,,,,,,,,,,,,,,,,,,,,,,,,,,,,,,,,,,,,,,,sand castle,bucket,1,0,1,0,1,,,,,,,,,,,,,,,,,,,,,,,,,,,,,,,
,,,,,,,,,,,,,,,89655,001,2022-04-25_12h30.32.935,SPAMnetsValid,2021.1.4,MacIntel,59.97361161,,,,,,,,,,,,,,,,,,,,,,,,,,,,,,,,,,,,,,,,,,,,,,,,,,,,fish tank,bucket,2,0,2,0,1,,,,,,,,,,,,,,,,,,,,,,,,,,,,,,,
,,,,,,,,,,,,,,,89655,001,2022-04-25_12h30.32.935,SPAMnetsValid,2021.1.4,MacIntel,59.97361161,,,,,,,,,,,,,,,,,,,,,,,,,,,,,,,,,,,,,,,,,,,,,,,,,,,,cup,bucket,3,0,3,0,1,,,,,,,,,,,,,,,,,,,,,,,,,,,,,,,
,,,,,,,,,,,,,,,89655,001,2022-04-25_12h30.32.935,SPAMnetsValid,2021.1.4,MacIntel,59.97361161,,,,,,,,,,,,,,,,,,,,,,,,,,,,,,,,,,,,,,,,,,,,,,,,,,,,hat,bucket,4,0,4,0,1,,,,,,,,,,,,,,,,,,,,,,,,,,,,,,,
,,,,,,,,,,,,,,,89655,001,2022-04-25_12h30.32.935,SPAMnetsValid,2021.1.4,MacIntel,59.97361161,,,,,,,,,,,,,,,,,,,,,,,,,,,,,,,,,,,,,,,,,,,,,,,,,,,,shoe,bucket,5,0,5,0,1,,,,,,,,,,,,,,,,,,,,,,,,,,,,,,,
,,,,,,,,,,,,,,,89655,001,2022-04-25_12h30.32.935,SPAMnetsValid,2021.1.4,MacIntel,59.97361161,,,,,,,,,,,,,,,,,,,,,,,,,,,,,,,,,,,,,,,,,,,,,,,,,,,,,,,,,,,0,1,1,0,1,bucket,,,,,,,,,,,,,,,,,,,,,,,,,
,,,,,,,,,,,,,,,89655,001,2022-04-25_12h30.32.935,SPAMnetsValid,2021.1.4,MacIntel,59.97361161,,,,,,,,,,,,,,,,,,,,,,,,,,,,,,,,,,,,,,,,,,,,,,,,,,,,fort,pillow,0,0,0,0,1,,,,,,,,,,,,,,,,,,,,,,,,,,,,,,,
,,,,,,,,,,,,,,,89655,001,2022-04-25_12h30.32.935,SPAMnetsValid,2021.1.4,MacIntel,59.97361161,,,,,,,,,,,,,,,,,,,,,,,,,,,,,,,,,,,,,,,,,,,,,,,,,,,,chest protector,pillow,1,0,1,0,1,,,,,,,,,,,,,,,,,,,,,,,,,,,,,,,
,,,,,,,,,,,,,,,89655,001,2022-04-25_12h30.32.935,SPAMnetsValid,2021.1.4,MacIntel,59.97361161,,,,,,,,,,,,,,,,,,,,,,,,,,,,,,,,,,,,,,,,,,,,,,,,,,,,cushion,pillow,2,0,2,0,1,,,,,,,,,,,,,,,,,,,,,,,,,,,,,,,
,,,,,,,,,,,,,,,89655,001,2022-04-25_12h30.32.935,SPAMnetsValid,2021.1.4,MacIntel,59.97361161,,,,,,,,,,,,,,,,,,,,,,,,,,,,,,,,,,,,,,,,,,,,,,,,,,,,shield,pillow,3,0,3,0,1,,,,,,,,,,,,,,,,,,,,,,,,,,,,,,,
,,,,,,,,,,,,,,,89655,001,2022-04-25_12h30.32.935,SPAMnetsValid,2021.1.4,MacIntel,59.97361161,,,,,,,,,,,,,,,,,,,,,,,,,,,,,,,,,,,,,,,,,,,,,,,,,,,,car interior padding,pillow,4,0,4,0,1,,,,,,,,,,,,,,,,,,,,,,,,,,,,,,,
,,,,,,,,,,,,,,,89655,001,2022-04-25_12h30.32.935,SPAMnetsValid,2021.1.4,MacIntel,59.97361161,,,,,,,,,,,,,,,,,,,,,,,,,,,,,,,,,,,,,,,,,,,,,,,,,,,,,,,,,,,0,2,2,2,1,pillow,,,,,,,,,,,,,,,,,,,,,,,,,
,,,,,,,,,,,,,,,89655,001,2022-04-25_12h30.32.935,SPAMnetsValid,2021.1.4,MacIntel,59.97361161,,,,,,,,,,,,,,,,,,,,,,,,,,,,,,,,,,,,,,,,,,,,,,,,,,,,,,,,,,,,,,,,,cat,Animals,0,0,0,0,1,,,,,,,,,,,,,,,,,,
,,,,,,,,,,,,,,,89655,001,2022-04-25_12h30.32.935,SPAMnetsValid,2021.1.4,MacIntel,59.97361161,,,,,,,,,,,,,,,,,,,,,,,,,,,,,,,,,,,,,,,,,,,,,,,,,,,,,,,,,,,,,,,,,dog,Animals,1,0,1,0,1,,,,,,,,,,,,,,,,,,
,,,,,,,,,,,,,,,89655,001,2022-04-25_12h30.32.935,SPAMnetsValid,2021.1.4,MacIntel,59.97361161,,,,,,,,,,,,,,,,,,,,,,,,,,,,,,,,,,,,,,,,,,,,,,,,,,,,,,,,,,,,,,,,,squirrel,Animals,2,0,2,0,1,,,,,,,,,,,,,,,,,,
,,,,,,,,,,,,,,,89655,001,2022-04-25_12h30.32.935,SPAMnetsValid,2021.1.4,MacIntel,59.97361161,,,,,,,,,,,,,,,,,,,,,,,,,,,,,,,,,,,,,,,,,,,,,,,,,,,,,,,,,,,,,,,,,rabbit,Animals,3,0,3,0,1,,,,,,,,,,,,,,,,,,
,,,,,,,,,,,,,,,89655,001,2022-04-25_12h30.32.935,SPAMnetsValid,2021.1.4,MacIntel,59.97361161,,,,,,,,,,,,,,,,,,,,,,,,,,,,,,,,,,,,,,,,,,,,,,,,,,,,,,,,,,,,,,,,,ostrich,Animals,4,0,4,0,1,,,,,,,,,,,,,,,,,,
,,,,,,,,,,,,,,,89655,001,2022-04-25_12h30.32.935,SPAMnetsValid,2021.1.4,MacIntel,59.97361161,,,,,,,,,,,,,,,,,,,,,,,,,,,,,,,,,,,,,,,,,,,,,,,,,,,,,,,,,,,,,,,,,fish,Animals,5,0,5,0,1,,,,,,,,,,,,,,,,,,
,,,,,,,,,,,,,,,89655,001,2022-04-25_12h30.32.935,SPAMnetsValid,2021.1.4,MacIntel,59.97361161,,,,,,,,,,,,,,,,,,,,,,,,,,,,,,,,,,,,,,,,,,,,,,,,,,,,,,,,,,,,,,,,,zebra,Animals,6,0,6,0,1,,,,,,,,,,,,,,,,,,
,,,,,,,,,,,,,,,89655,001,2022-04-25_12h30.32.935,SPAMnetsValid,2021.1.4,MacIntel,59.97361161,,,,,,,,,,,,,,,,,,,,,,,,,,,,,,,,,,,,,,,,,,,,,,,,,,,,,,,,,,,,,,,,,bear,Animals,7,0,7,0,1,,,,,,,,,,,,,,,,,,
,,,,,,,,,,,,,,,89655,001,2022-04-25_12h30.32.935,SPAMnetsValid,2021.1.4,MacIntel,59.97361161,,,,,,,,,,,,,,,,,,,,,,,,,,,,,,,,,,,,,,,,,,,,,,,,,,,,,,,,,,,,,,,,,lion,Animals,8,0,8,0,1,,,,,,,,,,,,,,,,,,
,,,,,,,,,,,,,,,89655,001,2022-04-25_12h30.32.935,SPAMnetsValid,2021.1.4,MacIntel,59.97361161,,,,,,,,,,,,,,,,,,,,,,,,,,,,,,,,,,,,,,,,,,,,,,,,,,,,,,,,,,,,,,,,,cheetah,Animals,9,0,9,0,1,,,,,,,,,,,,,,,,,,
,,,,,,,,,,,,,,,89655,001,2022-04-25_12h30.32.935,SPAMnetsValid,2021.1.4,MacIntel,59.97361161,,,,,,,,,,,,,,,,,,,,,,,,,,,,,,,,,,,,,,,,,,,,,,,,,,,,,,,,,,,,,,,,,jaguar,Animals,10,0,10,0,1,,,,,,,,,,,,,,,,,,
,,,,,,,,,,,,,,,89655,001,2022-04-25_12h30.32.935,SPAMnetsValid,2021.1.4,MacIntel,59.97361161,,,,,,,,,,,,,,,,,,,,,,,,,,,,,,,,,,,,,,,,,,,,,,,,,,,,,,,,,,,,,,,,,horse,Animals,11,0,11,0,1,,,,,,,,,,,,,,,,,,
,,,,,,,,,,,,,,,89655,001,2022-04-25_12h30.32.935,SPAMnetsValid,2021.1.4,MacIntel,59.97361161,,,,,,,,,,,,,,,,,,,,,,,,,,,,,,,,,,,,,,,,,,,,,,,,,,,,,,,,,,,,,,,,,monkey,Animals,12,0,12,0,1,,,,,,,,,,,,,,,,,,
,,,,,,,,,,,,,,,89655,001,2022-04-25_12h30.32.935,SPAMnetsValid,2021.1.4,MacIntel,59.97361161,,,,,,,,,,,,,,,,,,,,,,,,,,,,,,,,,,,,,,,,,,,,,,,,,,,,,,,,,,,,,,,,,chicken,Animals,13,0,13,0,1,,,,,,,,,,,,,,,,,,
,,,,,,,,,,,,,,,89655,001,2022-04-25_12h30.32.935,SPAMnetsValid,2021.1.4,MacIntel,59.97361161,,,,,,,,,,,,,,,,,,,,,,,,,,,,,,,,,,,,,,,,,,,,,,,,,,,,,,,,,,,,,,,,,goat,Animals,14,0,14,0,1,,,,,,,,,,,,,,,,,,
,,,,,,,,,,,,,,,89655,001,2022-04-25_12h30.32.935,SPAMnetsValid,2021.1.4,MacIntel,59.97361161,,,,,,,,,,,,,,,,,,,,,,,,,,,,,,,,,,,,,,,,,,,,,,,,,,,,,,,,,,,,,,,,,pig,Animals,15,0,15,0,1,,,,,,,,,,,,,,,,,,
,,,,,,,,,,,,,,,89655,001,2022-04-25_12h30.32.935,SPAMnetsValid,2021.1.4,MacIntel,59.97361161,,,,,,,,,,,,,,,,,,,,,,,,,,,,,,,,,,,,,,,,,,,,,,,,,,,,,,,,,,,,,,,,,cow,Animals,16,0,16,0,1,,,,,,,,,,,,,,,,,,
,,,,,,,,,,,,,,,89655,001,2022-04-25_12h30.32.935,SPAMnetsValid,2021.1.4,MacIntel,59.97361161,,,,,,,,,,,,,,,,,,,,,,,,,,,,,,,,,,,,,,,,,,,,,,,,,,,,,,,,,,,,,,,,,bird,Animals,17,0,17,0,1,,,,,,,,,,,,,,,,,,
,,,,,,,,,,,,,,,89655,001,2022-04-25_12h30.32.935,SPAMnetsValid,2021.1.4,MacIntel,59.97361161,,,,,,,,,,,,,,,,,,,,,,,,,,,,,,,,,,,,,,,,,,,,,,,,,,,,,,,,,,,,,,,,,chipmunk,Animals,18,0,18,0,1,,,,,,,,,,,,,,,,,,
,,,,,,,,,,,,,,,89655,001,2022-04-25_12h30.32.935,SPAMnetsValid,2021.1.4,MacIntel,59.97361161,,,,,,,,,,,,,,,,,,,,,,,,,,,,,,,,,,,,,,,,,,,,,,,,,,,,,,,,,,,,,,,,,tiger,Animals,19,0,19,0,1,,,,,,,,,,,,,,,,,,
,,,,,,,,,,,,,,,89655,001,2022-04-25_12h30.32.935,SPAMnetsValid,2021.1.4,MacIntel,59.97361161,,,,,,,,,,,,,,,,,,,,,,,,,,,,,,,,,,,,,,,,,,,,,,,,,,,,,,,,,,,,,,,,,ant,Animals,20,0,20,0,1,,,,,,,,,,,,,,,,,,
,,,,,,,,,,,,,,,89655,001,2022-04-25_12h30.32.935,SPAMnetsValid,2021.1.4,MacIntel,59.97361161,,,,,,,,,,,,,,,,,,,,,,,,,,,,,,,,,,,,,,,,,,,,,,,,,,,,,,,,,,,,,,,,,butterfly,Animals,21,0,21,0,1,,,,,,,,,,,,,,,,,,
,,,,,,,,,,,,,,,89655,001,2022-04-25_12h30.32.935,SPAMnetsValid,2021.1.4,MacIntel,59.97361161,,,,,,,,,,,,,,,,,,,,,,,,,,,,,,,,,,,,,,,,,,,,,,,,,,,,,,,,,,,,,,,,,,,,,,,,0,0,0,0,1,Animals,,,,,,,,,,,,
,,,,,,,,,,,,,,,89655,001,2022-04-25_12h30.32.935,SPAMnetsValid,2021.1.4,MacIntel,59.97361161,,,,,,,,,,,,,,,,,,,,,,,,,,,,,,,,,,,,,,,,,,,,,,,,,,,,,,,,,,,,,,,,,,,,,,,,,,,,,,2,9.43,0,0,0,0,1,"I enjoy concentrating on a fantasy or daydream and exploring all its possibilities, letting it grow and develop.",0,1,,
,,,,,,,,,,,,,,,89655,001,2022-04-25_12h30.32.935,SPAMnetsValid,2021.1.4,MacIntel,59.97361161,,,,,,,,,,,,,,,,,,,,,,,,,,,,,,,,,,,,,,,,,,,,,,,,,,,,,,,,,,,,,,,,,,,,,,,,,,,,,,5,2.2294,0,1,1,1,1,I think it's interesting to learn and develop new hobbies.,0,2,,
,,,,,,,,,,,,,,,89655,001,2022-04-25_12h30.32.935,SPAMnetsValid,2021.1.4,MacIntel,59.97361161,,,,,,,,,,,,,,,,,,,,,,,,,,,,,,,,,,,,,,,,,,,,,,,,,,,,,,,,,,,,,,,,,,,,,,,,,,,,,,2,3.2127,0,2,2,2,1,I am intrigued by the patterns I find in art and nature.,0,3,,
,,,,,,,,,,,,,,,89655,001,2022-04-25_12h30.32.935,SPAMnetsValid,2021.1.4,MacIntel,59.97361161,,,,,,,,,,,,,,,,,,,,,,,,,,,,,,,,,,,,,,,,,,,,,,,,,,,,,,,,,,,,,,,,,,,,,,,,,,,,,,2,4.7706,0,3,3,3,1,I believe letting students hear controversial speakers can only confuse and mislead them.,1,4,,
,,,,,,,,,,,,,,,89655,001,2022-04-25_12h30.32.935,SPAMnetsValid,2021.1.4,MacIntel,59.97361161,,,,,,,,,,,,,,,,,,,,,,,,,,,,,,,,,,,,,,,,,,,,,,,,,,,,,,,,,,,,,,,,,,,,,,,,,,,,,,2,4.1029,0,4,4,4,1,Poetry has little or no effect on me.,1,5,,
,,,,,,,,,,,,,,,89655,001,2022-04-25_12h30.32.935,SPAMnetsValid,2021.1.4,MacIntel,59.97361161,,,,,,,,,,,,,,,,,,,,,,,,,,,,,,,,,,,,,,,,,,,,,,,,,,,,,,,,,,,,,,,,,,,,,,,,,,,,,,3,4.1153,0,5,5,5,1,I would have difficulty just letting my mind wander without control or guidance.,1,6,,
,,,,,,,,,,,,,,,89655,001,2022-04-25_12h30.32.935,SPAMnetsValid,2021.1.4,MacIntel,59.97361161,,,,,,,,,,,,,,,,,,,,,,,,,,,,,,,,,,,,,,,,,,,,,,,,,,,,,,,,,,,,,,,,,,,,,,,,,,,,,,2,4.3047,0,6,6,6,1,I seldom notice the moods or feelings that different environments produce.,1,7,,
,,,,,,,,,,,,,,,89655,001,2022-04-25_12h30.32.935,SPAMnetsValid,2021.1.4,MacIntel,59.97361161,,,,,,,,,,,,,,,,,,,,,,,,,,,,,,,,,,,,,,,,,,,,,,,,,,,,,,,,,,,,,,,,,,,,,,,,,,,,,,4,2.145,0,7,7,7,1,I experience a wide range of emotions or feelings.,0,8,,
,,,,,,,,,,,,,,,89655,001,2022-04-25_12h30.32.935,SPAMnetsValid,2021.1.4,MacIntel,59.97361161,,,,,,,,,,,,,,,,,,,,,,,,,,,,,,,,,,,,,,,,,,,,,,,,,,,,,,,,,,,,,,,,,,,,,,,,,,,,,,4,3.3015,0,8,8,8,1,"Sometimes when I am reading poetry or looking at a work of art, I feel a chill or wave of excitement.",0,9,,
,,,,,,,,,,,,,,,89655,001,2022-04-25_12h30.32.935,SPAMnetsValid,2021.1.4,MacIntel,59.97361161,,,,,,,,,,,,,,,,,,,,,,,,,,,,,,,,,,,,,,,,,,,,,,,,,,,,,,,,,,,,,,,,,,,,,,,,,,,,,,2,2.9687,0,9,9,9,1,I have little interest in speculating on the nature of the universe or the human condition.,1,10,,
,,,,,,,,,,,,,,,89655,001,2022-04-25_12h30.32.935,SPAMnetsValid,2021.1.4,MacIntel,59.97361161,,,,,,,,,,,,,,,,,,,,,,,,,,,,,,,,,,,,,,,,,,,,,,,,,,,,,,,,,,,,,,,,,,,,,,,,,,,,,,4,2.4285,0,10,10,10,1,I have a lot of intellectual curiosity.,0,11,,
,,,,,,,,,,,,,,,89655,001,2022-04-25_12h30.32.935,SPAMnetsValid,2021.1.4,MacIntel,59.97361161,,,,,,,,,,,,,,,,,,,,,,,,,,,,,,,,,,,,,,,,,,,,,,,,,,,,,,,,,,,,,,,,,,,,,,,,,,,,,,4,1.7491,0,11,11,11,1,I often enjoy playing with theories or abstract ideas.,0,12,,
,,,,,,,,,,,,,,,89655,001,2022-04-25_12h30.32.935,SPAMnetsValid,2021.1.4,MacIntel,59.97361161,,,,,,,,,,,,,,,,,,,,,,,,,,,,,,,,,,,,,,,,,,,,,,,,,,,,,,,,,,,,,,,,,,,,,,,,,,,,,,,,,,,,,,,,return,23.3569
