key_resp_3.keys,key_resp_3.rt,slider.response,slider.rt,rjt_rating,rjt_RT,trials_22.thisRepN,trials_22.thisTrialN,trials_22.thisN,trials_22.thisIndex,trials_22.ran,rjt_order,word1,word2,attention,participant,session,date,expName,psychopyVersion,OS,frameRate,trials_99.thisRepN,trials_99.thisTrialN,trials_99.thisN,trials_99.thisIndex,trials_99.ran,trials_5.thisRepN,trials_5.thisTrialN,trials_5.thisN,trials_5.thisIndex,trials_5.ran,repOne,repTwo,slider_2.response,slider_2.rt,trials_24.thisRepN,trials_24.thisTrialN,trials_24.thisN,trials_24.thisIndex,trials_24.ran,trials_4.thisRepN,trials_4.thisTrialN,trials_4.thisN,trials_4.thisIndex,trials_4.ran,slider_extend_2.response,slider_extend_2.rt,trials_6.thisRepN,trials_6.thisTrialN,trials_6.thisN,trials_6.thisIndex,trials_6.ran,vCue2,R1,R2,R3,R4,correct,sliderVocab.response,sliderVocab.rt,trials_7.thisRepN,trials_7.thisTrialN,trials_7.thisN,trials_7.thisIndex,trials_7.ran,VocabCue,VR1,VR2,VR3,VR4,VR5,VocabCorrect,AUT_resp,AUT_label,trials.thisRepN,trials.thisTrialN,trials.thisN,trials.thisIndex,trials.ran,trials_2.thisRepN,trials_2.thisTrialN,trials_2.thisN,trials_2.thisIndex,trials_2.ran,aut_prompt,VF_response,VF_tag,trials_16.thisRepN,trials_16.thisTrialN,trials_16.thisN,trials_16.thisIndex,trials_16.ran,trials_17.thisRepN,trials_17.thisTrialN,trials_17.thisN,trials_17.thisIndex,trials_17.ran,VFcond,open_slider.response,open_slider.rt,trials_3.thisRepN,trials_3.thisTrialN,trials_3.thisN,trials_3.thisIndex,trials_3.ran,OpenQ,Rev,OPEN_ORDER,key_resp_2.keys,key_resp_2.rt
return,11.6495,2,6.3307,2,6.3307,0,0,0,6,1,87,carrot,yogurt,,89688,001,2022-04-25_20h22.12.902,SPAMnetsValid,2021.1.4,Win32,60.26637739,,,,,,,,,,,,,,,,,,,,,,,,,,,,,,,,,,,,,,,,,,,,,,,,,,,,,,,,,,,,,,,,,,,,,,,,,,,,,,,,,,,,,,,,,
,,7,5.7713,7,5.7713,0,1,1,82,1,93,kitchen,oven,,89688,001,2022-04-25_20h22.12.902,SPAMnetsValid,2021.1.4,Win32,60.26637739,,,,,,,,,,,,,,,,,,,,,,,,,,,,,,,,,,,,,,,,,,,,,,,,,,,,,,,,,,,,,,,,,,,,,,,,,,,,,,,,,,,,,,,,,
,,6,2.4718,6,2.4718,0,2,2,96,1,82,cake,kitchen,,89688,001,2022-04-25_20h22.12.902,SPAMnetsValid,2021.1.4,Win32,60.26637739,,,,,,,,,,,,,,,,,,,,,,,,,,,,,,,,,,,,,,,,,,,,,,,,,,,,,,,,,,,,,,,,,,,,,,,,,,,,,,,,,,,,,,,,,
,,1,2.192,1,2.192,0,3,3,61,1,71,broom,rose,,89688,001,2022-04-25_20h22.12.902,SPAMnetsValid,2021.1.4,Win32,60.26637739,,,,,,,,,,,,,,,,,,,,,,,,,,,,,,,,,,,,,,,,,,,,,,,,,,,,,,,,,,,,,,,,,,,,,,,,,,,,,,,,,,,,,,,,,
,,5,4.5081,5,4.5081,0,4,4,36,1,12,cookie,yogurt,,89688,001,2022-04-25_20h22.12.902,SPAMnetsValid,2021.1.4,Win32,60.26637739,,,,,,,,,,,,,,,,,,,,,,,,,,,,,,,,,,,,,,,,,,,,,,,,,,,,,,,,,,,,,,,,,,,,,,,,,,,,,,,,,,,,,,,,,
,,3,4.7274,3,4.7274,0,5,5,22,1,16,chocolate,flower,,89688,001,2022-04-25_20h22.12.902,SPAMnetsValid,2021.1.4,Win32,60.26637739,,,,,,,,,,,,,,,,,,,,,,,,,,,,,,,,,,,,,,,,,,,,,,,,,,,,,,,,,,,,,,,,,,,,,,,,,,,,,,,,,,,,,,,,,
,,1,1.9546,1,1.9546,0,6,6,92,1,44,cookie,melon,,89688,001,2022-04-25_20h22.12.902,SPAMnetsValid,2021.1.4,Win32,60.26637739,,,,,,,,,,,,,,,,,,,,,,,,,,,,,,,,,,,,,,,,,,,,,,,,,,,,,,,,,,,,,,,,,,,,,,,,,,,,,,,,,,,,,,,,,
,,1,1.7229,1,1.7229,0,7,7,84,1,91,microwave,rose,,89688,001,2022-04-25_20h22.12.902,SPAMnetsValid,2021.1.4,Win32,60.26637739,,,,,,,,,,,,,,,,,,,,,,,,,,,,,,,,,,,,,,,,,,,,,,,,,,,,,,,,,,,,,,,,,,,,,,,,,,,,,,,,,,,,,,,,,
,,1,3.3116,1,3.3116,0,8,8,33,1,32,cake,microwave,,89688,001,2022-04-25_20h22.12.902,SPAMnetsValid,2021.1.4,Win32,60.26637739,,,,,,,,,,,,,,,,,,,,,,,,,,,,,,,,,,,,,,,,,,,,,,,,,,,,,,,,,,,,,,,,,,,,,,,,,,,,,,,,,,,,,,,,,
,,1,1.9934,1,1.9934,0,9,9,89,1,80,chocolate,tree,,89688,001,2022-04-25_20h22.12.902,SPAMnetsValid,2021.1.4,Win32,60.26637739,,,,,,,,,,,,,,,,,,,,,,,,,,,,,,,,,,,,,,,,,,,,,,,,,,,,,,,,,,,,,,,,,,,,,,,,,,,,,,,,,,,,,,,,,
,,1,2.8156,1,2.8156,0,10,10,90,1,95,broom,refrigerator,,89688,001,2022-04-25_20h22.12.902,SPAMnetsValid,2021.1.4,Win32,60.26637739,,,,,,,,,,,,,,,,,,,,,,,,,,,,,,,,,,,,,,,,,,,,,,,,,,,,,,,,,,,,,,,,,,,,,,,,,,,,,,,,,,,,,,,,,
,,6,4.3087,6,4.3087,0,11,11,44,1,25,carrot,onion,,89688,001,2022-04-25_20h22.12.902,SPAMnetsValid,2021.1.4,Win32,60.26637739,,,,,,,,,,,,,,,,,,,,,,,,,,,,,,,,,,,,,,,,,,,,,,,,,,,,,,,,,,,,,,,,,,,,,,,,,,,,,,,,,,,,,,,,,
,,1,4.0295,1,4.0295,0,12,12,29,1,42,garden,kitchen,,89688,001,2022-04-25_20h22.12.902,SPAMnetsValid,2021.1.4,Win32,60.26637739,,,,,,,,,,,,,,,,,,,,,,,,,,,,,,,,,,,,,,,,,,,,,,,,,,,,,,,,,,,,,,,,,,,,,,,,,,,,,,,,,,,,,,,,,
,,2,2.7519,2,2.7519,0,13,13,8,1,43,chocolate,tomato,,89688,001,2022-04-25_20h22.12.902,SPAMnetsValid,2021.1.4,Win32,60.26637739,,,,,,,,,,,,,,,,,,,,,,,,,,,,,,,,,,,,,,,,,,,,,,,,,,,,,,,,,,,,,,,,,,,,,,,,,,,,,,,,,,,,,,,,,
,,1,2.7984,1,2.7984,0,14,14,31,1,33,oven,yogurt,,89688,001,2022-04-25_20h22.12.902,SPAMnetsValid,2021.1.4,Win32,60.26637739,,,,,,,,,,,,,,,,,,,,,,,,,,,,,,,,,,,,,,,,,,,,,,,,,,,,,,,,,,,,,,,,,,,,,,,,,,,,,,,,,,,,,,,,,
,,1,5.7141,1,5.7141,0,15,15,26,1,35,flower,pretzel,,89688,001,2022-04-25_20h22.12.902,SPAMnetsValid,2021.1.4,Win32,60.26637739,,,,,,,,,,,,,,,,,,,,,,,,,,,,,,,,,,,,,,,,,,,,,,,,,,,,,,,,,,,,,,,,,,,,,,,,,,,,,,,,,,,,,,,,,
,,1,2.107,1,2.107,0,16,16,38,1,88,cactus,melon,,89688,001,2022-04-25_20h22.12.902,SPAMnetsValid,2021.1.4,Win32,60.26637739,,,,,,,,,,,,,,,,,,,,,,,,,,,,,,,,,,,,,,,,,,,,,,,,,,,,,,,,,,,,,,,,,,,,,,,,,,,,,,,,,,,,,,,,,
,,1,1.4212,1,1.4212,0,17,17,79,1,86,oven,rose,,89688,001,2022-04-25_20h22.12.902,SPAMnetsValid,2021.1.4,Win32,60.26637739,,,,,,,,,,,,,,,,,,,,,,,,,,,,,,,,,,,,,,,,,,,,,,,,,,,,,,,,,,,,,,,,,,,,,,,,,,,,,,,,,,,,,,,,,
,,7,2.4076,7,2.4076,0,18,18,30,1,3,cake,oven,,89688,001,2022-04-25_20h22.12.902,SPAMnetsValid,2021.1.4,Win32,60.26637739,,,,,,,,,,,,,,,,,,,,,,,,,,,,,,,,,,,,,,,,,,,,,,,,,,,,,,,,,,,,,,,,,,,,,,,,,,,,,,,,,,,,,,,,,
,,3,4.2244,3,4.2244,0,19,19,78,1,30,cookie,pretzel,,89688,001,2022-04-25_20h22.12.902,SPAMnetsValid,2021.1.4,Win32,60.26637739,,,,,,,,,,,,,,,,,,,,,,,,,,,,,,,,,,,,,,,,,,,,,,,,,,,,,,,,,,,,,,,,,,,,,,,,,,,,,,,,,,,,,,,,,
,,1,2.7401,1,2.7401,0,20,20,4,1,83,broom,carrot,,89688,001,2022-04-25_20h22.12.902,SPAMnetsValid,2021.1.4,Win32,60.26637739,,,,,,,,,,,,,,,,,,,,,,,,,,,,,,,,,,,,,,,,,,,,,,,,,,,,,,,,,,,,,,,,,,,,,,,,,,,,,,,,,,,,,,,,,
,,8,2.3251,8,2.3251,0,21,21,21,1,56,cactus,tree,,89688,001,2022-04-25_20h22.12.902,SPAMnetsValid,2021.1.4,Win32,60.26637739,,,,,,,,,,,,,,,,,,,,,,,,,,,,,,,,,,,,,,,,,,,,,,,,,,,,,,,,,,,,,,,,,,,,,,,,,,,,,,,,,,,,,,,,,
,,1,2.1053,1,2.1053,0,22,22,81,1,60,cactus,onion,,89688,001,2022-04-25_20h22.12.902,SPAMnetsValid,2021.1.4,Win32,60.26637739,,,,,,,,,,,,,,,,,,,,,,,,,,,,,,,,,,,,,,,,,,,,,,,,,,,,,,,,,,,,,,,,,,,,,,,,,,,,,,,,,,,,,,,,,
,,6,2.2394,6,2.2394,0,23,23,91,1,2,kitchen,onion,,89688,001,2022-04-25_20h22.12.902,SPAMnetsValid,2021.1.4,Win32,60.26637739,,,,,,,,,,,,,,,,,,,,,,,,,,,,,,,,,,,,,,,,,,,,,,,,,,,,,,,,,,,,,,,,,,,,,,,,,,,,,,,,,,,,,,,,,
,,5,5.1999,5,5.1999,0,24,24,72,1,59,rose,strawberry,,89688,001,2022-04-25_20h22.12.902,SPAMnetsValid,2021.1.4,Win32,60.26637739,,,,,,,,,,,,,,,,,,,,,,,,,,,,,,,,,,,,,,,,,,,,,,,,,,,,,,,,,,,,,,,,,,,,,,,,,,,,,,,,,,,,,,,,,
,,9,2.9218,9,2.9218,0,25,25,19,1,76,garden,rose,,89688,001,2022-04-25_20h22.12.902,SPAMnetsValid,2021.1.4,Win32,60.26637739,,,,,,,,,,,,,,,,,,,,,,,,,,,,,,,,,,,,,,,,,,,,,,,,,,,,,,,,,,,,,,,,,,,,,,,,,,,,,,,,,,,,,,,,,
,,1,2.4746,1,2.4746,0,26,26,11,1,37,garden,refrigerator,,89688,001,2022-04-25_20h22.12.902,SPAMnetsValid,2021.1.4,Win32,60.26637739,,,,,,,,,,,,,,,,,,,,,,,,,,,,,,,,,,,,,,,,,,,,,,,,,,,,,,,,,,,,,,,,,,,,,,,,,,,,,,,,,,,,,,,,,
,,9,1.724,9,1.724,0,27,27,10,1,191,cake,cake,CHECK,89688,001,2022-04-25_20h22.12.902,SPAMnetsValid,2021.1.4,Win32,60.26637739,,,,,,,,,,,,,,,,,,,,,,,,,,,,,,,,,,,,,,,,,,,,,,,,,,,,,,,,,,,,,,,,,,,,,,,,,,,,,,,,,,,,,,,,,
,,1,6.3099,1,6.3099,0,28,28,16,1,14,broom,cookie,,89688,001,2022-04-25_20h22.12.902,SPAMnetsValid,2021.1.4,Win32,60.26637739,,,,,,,,,,,,,,,,,,,,,,,,,,,,,,,,,,,,,,,,,,,,,,,,,,,,,,,,,,,,,,,,,,,,,,,,,,,,,,,,,,,,,,,,,
,,1,1.6841,1,1.6841,0,29,29,32,1,40,broom,cake,,89688,001,2022-04-25_20h22.12.902,SPAMnetsValid,2021.1.4,Win32,60.26637739,,,,,,,,,,,,,,,,,,,,,,,,,,,,,,,,,,,,,,,,,,,,,,,,,,,,,,,,,,,,,,,,,,,,,,,,,,,,,,,,,,,,,,,,,
,,8,2.6482,8,2.6482,0,30,30,95,1,52,carrot,tomato,,89688,001,2022-04-25_20h22.12.902,SPAMnetsValid,2021.1.4,Win32,60.26637739,,,,,,,,,,,,,,,,,,,,,,,,,,,,,,,,,,,,,,,,,,,,,,,,,,,,,,,,,,,,,,,,,,,,,,,,,,,,,,,,,,,,,,,,,
,,1,3.2623,1,3.2623,0,31,31,54,1,28,cake,melon,,89688,001,2022-04-25_20h22.12.902,SPAMnetsValid,2021.1.4,Win32,60.26637739,,,,,,,,,,,,,,,,,,,,,,,,,,,,,,,,,,,,,,,,,,,,,,,,,,,,,,,,,,,,,,,,,,,,,,,,,,,,,,,,,,,,,,,,,
,,1,3.4294,1,3.4294,0,32,32,9,1,75,cookie,onion,,89688,001,2022-04-25_20h22.12.902,SPAMnetsValid,2021.1.4,Win32,60.26637739,,,,,,,,,,,,,,,,,,,,,,,,,,,,,,,,,,,,,,,,,,,,,,,,,,,,,,,,,,,,,,,,,,,,,,,,,,,,,,,,,,,,,,,,,
,,1,2.3759,1,2.3759,0,33,33,70,1,5,oven,tree,,89688,001,2022-04-25_20h22.12.902,SPAMnetsValid,2021.1.4,Win32,60.26637739,,,,,,,,,,,,,,,,,,,,,,,,,,,,,,,,,,,,,,,,,,,,,,,,,,,,,,,,,,,,,,,,,,,,,,,,,,,,,,,,,,,,,,,,,
,,1,2.3324,1,2.3324,0,34,34,45,1,10,flower,onion,,89688,001,2022-04-25_20h22.12.902,SPAMnetsValid,2021.1.4,Win32,60.26637739,,,,,,,,,,,,,,,,,,,,,,,,,,,,,,,,,,,,,,,,,,,,,,,,,,,,,,,,,,,,,,,,,,,,,,,,,,,,,,,,,,,,,,,,,
,,5,3.1878,5,3.1878,0,35,35,62,1,18,onion,refrigerator,,89688,001,2022-04-25_20h22.12.902,SPAMnetsValid,2021.1.4,Win32,60.26637739,,,,,,,,,,,,,,,,,,,,,,,,,,,,,,,,,,,,,,,,,,,,,,,,,,,,,,,,,,,,,,,,,,,,,,,,,,,,,,,,,,,,,,,,,
,,6,1.9708,6,1.9708,0,36,36,86,1,51,onion,strawberry,,89688,001,2022-04-25_20h22.12.902,SPAMnetsValid,2021.1.4,Win32,60.26637739,,,,,,,,,,,,,,,,,,,,,,,,,,,,,,,,,,,,,,,,,,,,,,,,,,,,,,,,,,,,,,,,,,,,,,,,,,,,,,,,,,,,,,,,,
,,1,2.7448,1,2.7448,0,37,37,18,1,85,cake,tree,,89688,001,2022-04-25_20h22.12.902,SPAMnetsValid,2021.1.4,Win32,60.26637739,,,,,,,,,,,,,,,,,,,,,,,,,,,,,,,,,,,,,,,,,,,,,,,,,,,,,,,,,,,,,,,,,,,,,,,,,,,,,,,,,,,,,,,,,
,,1,1.6972,1,1.6972,0,38,38,15,1,48,flower,oven,,89688,001,2022-04-25_20h22.12.902,SPAMnetsValid,2021.1.4,Win32,60.26637739,,,,,,,,,,,,,,,,,,,,,,,,,,,,,,,,,,,,,,,,,,,,,,,,,,,,,,,,,,,,,,,,,,,,,,,,,,,,,,,,,,,,,,,,,
,,1,2.1686,1,2.1686,0,39,39,7,1,34,melon,oven,,89688,001,2022-04-25_20h22.12.902,SPAMnetsValid,2021.1.4,Win32,60.26637739,,,,,,,,,,,,,,,,,,,,,,,,,,,,,,,,,,,,,,,,,,,,,,,,,,,,,,,,,,,,,,,,,,,,,,,,,,,,,,,,,,,,,,,,,
,,1,5.5619,1,5.5619,0,40,40,65,1,46,garden,yogurt,,89688,001,2022-04-25_20h22.12.902,SPAMnetsValid,2021.1.4,Win32,60.26637739,,,,,,,,,,,,,,,,,,,,,,,,,,,,,,,,,,,,,,,,,,,,,,,,,,,,,,,,,,,,,,,,,,,,,,,,,,,,,,,,,,,,,,,,,
,,1,1.2616,1,1.2616,0,41,41,0,1,53,garden,pretzel,,89688,001,2022-04-25_20h22.12.902,SPAMnetsValid,2021.1.4,Win32,60.26637739,,,,,,,,,,,,,,,,,,,,,,,,,,,,,,,,,,,,,,,,,,,,,,,,,,,,,,,,,,,,,,,,,,,,,,,,,,,,,,,,,,,,,,,,,
,,9,1.5593,9,1.5593,0,42,42,53,1,192,microwave,microwave,CHECK,89688,001,2022-04-25_20h22.12.902,SPAMnetsValid,2021.1.4,Win32,60.26637739,,,,,,,,,,,,,,,,,,,,,,,,,,,,,,,,,,,,,,,,,,,,,,,,,,,,,,,,,,,,,,,,,,,,,,,,,,,,,,,,,,,,,,,,,
,,1,2.8344,1,2.8344,0,43,43,40,1,74,broom,pretzel,,89688,001,2022-04-25_20h22.12.902,SPAMnetsValid,2021.1.4,Win32,60.26637739,,,,,,,,,,,,,,,,,,,,,,,,,,,,,,,,,,,,,,,,,,,,,,,,,,,,,,,,,,,,,,,,,,,,,,,,,,,,,,,,,,,,,,,,,
,,6,1.8771,6,1.8771,0,44,44,67,1,54,chocolate,yogurt,,89688,001,2022-04-25_20h22.12.902,SPAMnetsValid,2021.1.4,Win32,60.26637739,,,,,,,,,,,,,,,,,,,,,,,,,,,,,,,,,,,,,,,,,,,,,,,,,,,,,,,,,,,,,,,,,,,,,,,,,,,,,,,,,,,,,,,,,
,,1,2.8734,1,2.8734,0,45,45,39,1,15,onion,oven,,89688,001,2022-04-25_20h22.12.902,SPAMnetsValid,2021.1.4,Win32,60.26637739,,,,,,,,,,,,,,,,,,,,,,,,,,,,,,,,,,,,,,,,,,,,,,,,,,,,,,,,,,,,,,,,,,,,,,,,,,,,,,,,,,,,,,,,,
,,1,1.9549,1,1.9549,0,46,46,73,1,50,carrot,rose,,89688,001,2022-04-25_20h22.12.902,SPAMnetsValid,2021.1.4,Win32,60.26637739,,,,,,,,,,,,,,,,,,,,,,,,,,,,,,,,,,,,,,,,,,,,,,,,,,,,,,,,,,,,,,,,,,,,,,,,,,,,,,,,,,,,,,,,,
,,1,1.4536,1,1.4536,0,47,47,47,1,73,broom,chocolate,,89688,001,2022-04-25_20h22.12.902,SPAMnetsValid,2021.1.4,Win32,60.26637739,,,,,,,,,,,,,,,,,,,,,,,,,,,,,,,,,,,,,,,,,,,,,,,,,,,,,,,,,,,,,,,,,,,,,,,,,,,,,,,,,,,,,,,,,
,,6,2.9685,6,2.9685,0,48,48,50,1,81,pretzel,yogurt,,89688,001,2022-04-25_20h22.12.902,SPAMnetsValid,2021.1.4,Win32,60.26637739,,,,,,,,,,,,,,,,,,,,,,,,,,,,,,,,,,,,,,,,,,,,,,,,,,,,,,,,,,,,,,,,,,,,,,,,,,,,,,,,,,,,,,,,,
,,1,1.7699,1,1.7699,0,49,49,46,1,41,broom,cactus,,89688,001,2022-04-25_20h22.12.902,SPAMnetsValid,2021.1.4,Win32,60.26637739,,,,,,,,,,,,,,,,,,,,,,,,,,,,,,,,,,,,,,,,,,,,,,,,,,,,,,,,,,,,,,,,,,,,,,,,,,,,,,,,,,,,,,,,,
,,1,1.827,1,1.827,0,50,50,57,1,62,kitchen,rose,,89688,001,2022-04-25_20h22.12.902,SPAMnetsValid,2021.1.4,Win32,60.26637739,,,,,,,,,,,,,,,,,,,,,,,,,,,,,,,,,,,,,,,,,,,,,,,,,,,,,,,,,,,,,,,,,,,,,,,,,,,,,,,,,,,,,,,,,
,,1,1.2877,1,1.2877,0,51,51,56,1,78,cookie,rose,,89688,001,2022-04-25_20h22.12.902,SPAMnetsValid,2021.1.4,Win32,60.26637739,,,,,,,,,,,,,,,,,,,,,,,,,,,,,,,,,,,,,,,,,,,,,,,,,,,,,,,,,,,,,,,,,,,,,,,,,,,,,,,,,,,,,,,,,
,,6,3.4742,6,3.4742,0,52,52,2,1,22,kitchen,strawberry,,89688,001,2022-04-25_20h22.12.902,SPAMnetsValid,2021.1.4,Win32,60.26637739,,,,,,,,,,,,,,,,,,,,,,,,,,,,,,,,,,,,,,,,,,,,,,,,,,,,,,,,,,,,,,,,,,,,,,,,,,,,,,,,,,,,,,,,,
,,1,3.7402,1,3.7402,0,53,53,34,1,29,chocolate,melon,,89688,001,2022-04-25_20h22.12.902,SPAMnetsValid,2021.1.4,Win32,60.26637739,,,,,,,,,,,,,,,,,,,,,,,,,,,,,,,,,,,,,,,,,,,,,,,,,,,,,,,,,,,,,,,,,,,,,,,,,,,,,,,,,,,,,,,,,
,,7,2.2222,7,2.2222,0,54,54,51,1,47,onion,tomato,,89688,001,2022-04-25_20h22.12.902,SPAMnetsValid,2021.1.4,Win32,60.26637739,,,,,,,,,,,,,,,,,,,,,,,,,,,,,,,,,,,,,,,,,,,,,,,,,,,,,,,,,,,,,,,,,,,,,,,,,,,,,,,,,,,,,,,,,
,,1,2.5341,1,2.5341,0,55,55,71,1,38,pretzel,refrigerator,,89688,001,2022-04-25_20h22.12.902,SPAMnetsValid,2021.1.4,Win32,60.26637739,,,,,,,,,,,,,,,,,,,,,,,,,,,,,,,,,,,,,,,,,,,,,,,,,,,,,,,,,,,,,,,,,,,,,,,,,,,,,,,,,,,,,,,,,
,,1,4.2251,1,4.2251,0,56,56,88,1,92,broom,flower,,89688,001,2022-04-25_20h22.12.902,SPAMnetsValid,2021.1.4,Win32,60.26637739,,,,,,,,,,,,,,,,,,,,,,,,,,,,,,,,,,,,,,,,,,,,,,,,,,,,,,,,,,,,,,,,,,,,,,,,,,,,,,,,,,,,,,,,,
,,5,2.2254,5,2.2254,0,57,57,13,1,26,tomato,yogurt,,89688,001,2022-04-25_20h22.12.902,SPAMnetsValid,2021.1.4,Win32,60.26637739,,,,,,,,,,,,,,,,,,,,,,,,,,,,,,,,,,,,,,,,,,,,,,,,,,,,,,,,,,,,,,,,,,,,,,,,,,,,,,,,,,,,,,,,,
,,1,3.1135,1,3.1135,0,58,58,41,1,19,microwave,pretzel,,89688,001,2022-04-25_20h22.12.902,SPAMnetsValid,2021.1.4,Win32,60.26637739,,,,,,,,,,,,,,,,,,,,,,,,,,,,,,,,,,,,,,,,,,,,,,,,,,,,,,,,,,,,,,,,,,,,,,,,,,,,,,,,,,,,,,,,,
,,1,1.8735,1,1.8735,0,59,59,75,1,69,carrot,refrigerator,,89688,001,2022-04-25_20h22.12.902,SPAMnetsValid,2021.1.4,Win32,60.26637739,,,,,,,,,,,,,,,,,,,,,,,,,,,,,,,,,,,,,,,,,,,,,,,,,,,,,,,,,,,,,,,,,,,,,,,,,,,,,,,,,,,,,,,,,
,,7,3.9076,7,3.9076,0,60,60,87,1,79,garden,strawberry,,89688,001,2022-04-25_20h22.12.902,SPAMnetsValid,2021.1.4,Win32,60.26637739,,,,,,,,,,,,,,,,,,,,,,,,,,,,,,,,,,,,,,,,,,,,,,,,,,,,,,,,,,,,,,,,,,,,,,,,,,,,,,,,,,,,,,,,,
,,7,5.6723,7,5.6723,0,61,61,64,1,9,kitchen,refrigerator,,89688,001,2022-04-25_20h22.12.902,SPAMnetsValid,2021.1.4,Win32,60.26637739,,,,,,,,,,,,,,,,,,,,,,,,,,,,,,,,,,,,,,,,,,,,,,,,,,,,,,,,,,,,,,,,,,,,,,,,,,,,,,,,,,,,,,,,,
,,8,2.4094,8,2.4094,0,62,62,66,1,20,rose,tree,,89688,001,2022-04-25_20h22.12.902,SPAMnetsValid,2021.1.4,Win32,60.26637739,,,,,,,,,,,,,,,,,,,,,,,,,,,,,,,,,,,,,,,,,,,,,,,,,,,,,,,,,,,,,,,,,,,,,,,,,,,,,,,,,,,,,,,,,
,,1,2.8206,1,2.8206,0,63,63,1,1,31,cactus,pretzel,,89688,001,2022-04-25_20h22.12.902,SPAMnetsValid,2021.1.4,Win32,60.26637739,,,,,,,,,,,,,,,,,,,,,,,,,,,,,,,,,,,,,,,,,,,,,,,,,,,,,,,,,,,,,,,,,,,,,,,,,,,,,,,,,,,,,,,,,
,,1,1.6983,1,1.6983,0,64,64,5,1,13,broom,yogurt,,89688,001,2022-04-25_20h22.12.902,SPAMnetsValid,2021.1.4,Win32,60.26637739,,,,,,,,,,,,,,,,,,,,,,,,,,,,,,,,,,,,,,,,,,,,,,,,,,,,,,,,,,,,,,,,,,,,,,,,,,,,,,,,,,,,,,,,,
,,1,1.6609,1,1.6609,0,65,65,94,1,68,flower,tomato,,89688,001,2022-04-25_20h22.12.902,SPAMnetsValid,2021.1.4,Win32,60.26637739,,,,,,,,,,,,,,,,,,,,,,,,,,,,,,,,,,,,,,,,,,,,,,,,,,,,,,,,,,,,,,,,,,,,,,,,,,,,,,,,,,,,,,,,,
,,5,2.742,5,2.742,0,66,66,48,1,66,melon,yogurt,,89688,001,2022-04-25_20h22.12.902,SPAMnetsValid,2021.1.4,Win32,60.26637739,,,,,,,,,,,,,,,,,,,,,,,,,,,,,,,,,,,,,,,,,,,,,,,,,,,,,,,,,,,,,,,,,,,,,,,,,,,,,,,,,,,,,,,,,
,,1,1.9605,1,1.9605,0,67,67,85,1,90,cactus,cake,,89688,001,2022-04-25_20h22.12.902,SPAMnetsValid,2021.1.4,Win32,60.26637739,,,,,,,,,,,,,,,,,,,,,,,,,,,,,,,,,,,,,,,,,,,,,,,,,,,,,,,,,,,,,,,,,,,,,,,,,,,,,,,,,,,,,,,,,
,,8,2.9293,8,2.9293,0,68,68,93,1,63,cake,cookie,,89688,001,2022-04-25_20h22.12.902,SPAMnetsValid,2021.1.4,Win32,60.26637739,,,,,,,,,,,,,,,,,,,,,,,,,,,,,,,,,,,,,,,,,,,,,,,,,,,,,,,,,,,,,,,,,,,,,,,,,,,,,,,,,,,,,,,,,
,,5,3.1113,5,3.1113,0,69,69,52,1,4,chocolate,pretzel,,89688,001,2022-04-25_20h22.12.902,SPAMnetsValid,2021.1.4,Win32,60.26637739,,,,,,,,,,,,,,,,,,,,,,,,,,,,,,,,,,,,,,,,,,,,,,,,,,,,,,,,,,,,,,,,,,,,,,,,,,,,,,,,,,,,,,,,,
,,5,1.8046,5,1.8046,0,70,70,76,1,36,broom,kitchen,,89688,001,2022-04-25_20h22.12.902,SPAMnetsValid,2021.1.4,Win32,60.26637739,,,,,,,,,,,,,,,,,,,,,,,,,,,,,,,,,,,,,,,,,,,,,,,,,,,,,,,,,,,,,,,,,,,,,,,,,,,,,,,,,,,,,,,,,
,,5,2.4814,5,2.4814,0,71,71,83,1,6,garden,onion,,89688,001,2022-04-25_20h22.12.902,SPAMnetsValid,2021.1.4,Win32,60.26637739,,,,,,,,,,,,,,,,,,,,,,,,,,,,,,,,,,,,,,,,,,,,,,,,,,,,,,,,,,,,,,,,,,,,,,,,,,,,,,,,,,,,,,,,,
,,1,2.159,1,2.159,0,72,72,25,1,23,flower,microwave,,89688,001,2022-04-25_20h22.12.902,SPAMnetsValid,2021.1.4,Win32,60.26637739,,,,,,,,,,,,,,,,,,,,,,,,,,,,,,,,,,,,,,,,,,,,,,,,,,,,,,,,,,,,,,,,,,,,,,,,,,,,,,,,,,,,,,,,,
,,1,3.2,1,3.2,0,73,73,14,1,64,chocolate,garden,,89688,001,2022-04-25_20h22.12.902,SPAMnetsValid,2021.1.4,Win32,60.26637739,,,,,,,,,,,,,,,,,,,,,,,,,,,,,,,,,,,,,,,,,,,,,,,,,,,,,,,,,,,,,,,,,,,,,,,,,,,,,,,,,,,,,,,,,
,,1,1.3966,1,1.3966,0,74,74,28,1,84,oven,tomato,,89688,001,2022-04-25_20h22.12.902,SPAMnetsValid,2021.1.4,Win32,60.26637739,,,,,,,,,,,,,,,,,,,,,,,,,,,,,,,,,,,,,,,,,,,,,,,,,,,,,,,,,,,,,,,,,,,,,,,,,,,,,,,,,,,,,,,,,
,,4,2.4988,4,2.4988,0,75,75,63,1,21,cake,onion,,89688,001,2022-04-25_20h22.12.902,SPAMnetsValid,2021.1.4,Win32,60.26637739,,,,,,,,,,,,,,,,,,,,,,,,,,,,,,,,,,,,,,,,,,,,,,,,,,,,,,,,,,,,,,,,,,,,,,,,,,,,,,,,,,,,,,,,,
,,4,2.4124,4,2.4124,0,76,76,68,1,24,cookie,tomato,,89688,001,2022-04-25_20h22.12.902,SPAMnetsValid,2021.1.4,Win32,60.26637739,,,,,,,,,,,,,,,,,,,,,,,,,,,,,,,,,,,,,,,,,,,,,,,,,,,,,,,,,,,,,,,,,,,,,,,,,,,,,,,,,,,,,,,,,
,,1,2.4041,1,2.4041,0,77,77,23,1,65,broom,garden,,89688,001,2022-04-25_20h22.12.902,SPAMnetsValid,2021.1.4,Win32,60.26637739,,,,,,,,,,,,,,,,,,,,,,,,,,,,,,,,,,,,,,,,,,,,,,,,,,,,,,,,,,,,,,,,,,,,,,,,,,,,,,,,,,,,,,,,,
,,4,3.6769,4,3.6769,0,78,78,3,1,49,flower,strawberry,,89688,001,2022-04-25_20h22.12.902,SPAMnetsValid,2021.1.4,Win32,60.26637739,,,,,,,,,,,,,,,,,,,,,,,,,,,,,,,,,,,,,,,,,,,,,,,,,,,,,,,,,,,,,,,,,,,,,,,,,,,,,,,,,,,,,,,,,
,,1,2.2051,1,2.2051,0,79,79,12,1,67,flower,yogurt,,89688,001,2022-04-25_20h22.12.902,SPAMnetsValid,2021.1.4,Win32,60.26637739,,,,,,,,,,,,,,,,,,,,,,,,,,,,,,,,,,,,,,,,,,,,,,,,,,,,,,,,,,,,,,,,,,,,,,,,,,,,,,,,,,,,,,,,,
,,1,1.0931,1,1.0931,0,80,80,27,1,72,broom,onion,,89688,001,2022-04-25_20h22.12.902,SPAMnetsValid,2021.1.4,Win32,60.26637739,,,,,,,,,,,,,,,,,,,,,,,,,,,,,,,,,,,,,,,,,,,,,,,,,,,,,,,,,,,,,,,,,,,,,,,,,,,,,,,,,,,,,,,,,
,,1,5.2907,1,5.2907,0,81,81,42,1,77,refrigerator,yogurt,,89688,001,2022-04-25_20h22.12.902,SPAMnetsValid,2021.1.4,Win32,60.26637739,,,,,,,,,,,,,,,,,,,,,,,,,,,,,,,,,,,,,,,,,,,,,,,,,,,,,,,,,,,,,,,,,,,,,,,,,,,,,,,,,,,,,,,,,
,,1,1.9282,1,1.9282,0,82,82,24,1,17,carrot,melon,,89688,001,2022-04-25_20h22.12.902,SPAMnetsValid,2021.1.4,Win32,60.26637739,,,,,,,,,,,,,,,,,,,,,,,,,,,,,,,,,,,,,,,,,,,,,,,,,,,,,,,,,,,,,,,,,,,,,,,,,,,,,,,,,,,,,,,,,
,,6,3.8168,6,3.8168,0,83,83,80,1,61,strawberry,tomato,,89688,001,2022-04-25_20h22.12.902,SPAMnetsValid,2021.1.4,Win32,60.26637739,,,,,,,,,,,,,,,,,,,,,,,,,,,,,,,,,,,,,,,,,,,,,,,,,,,,,,,,,,,,,,,,,,,,,,,,,,,,,,,,,,,,,,,,,
,,1,3.1796,1,3.1796,0,84,84,20,1,39,melon,pretzel,,89688,001,2022-04-25_20h22.12.902,SPAMnetsValid,2021.1.4,Win32,60.26637739,,,,,,,,,,,,,,,,,,,,,,,,,,,,,,,,,,,,,,,,,,,,,,,,,,,,,,,,,,,,,,,,,,,,,,,,,,,,,,,,,,,,,,,,,
,,1,2.7945,1,2.7945,0,85,85,69,1,45,onion,pretzel,,89688,001,2022-04-25_20h22.12.902,SPAMnetsValid,2021.1.4,Win32,60.26637739,,,,,,,,,,,,,,,,,,,,,,,,,,,,,,,,,,,,,,,,,,,,,,,,,,,,,,,,,,,,,,,,,,,,,,,,,,,,,,,,,,,,,,,,,
,,1,4.1612,1,4.1612,0,86,86,43,1,11,refrigerator,tree,,89688,001,2022-04-25_20h22.12.902,SPAMnetsValid,2021.1.4,Win32,60.26637739,,,,,,,,,,,,,,,,,,,,,,,,,,,,,,,,,,,,,,,,,,,,,,,,,,,,,,,,,,,,,,,,,,,,,,,,,,,,,,,,,,,,,,,,,
,,1,1.8087,1,1.8087,0,87,87,37,1,58,garden,oven,,89688,001,2022-04-25_20h22.12.902,SPAMnetsValid,2021.1.4,Win32,60.26637739,,,,,,,,,,,,,,,,,,,,,,,,,,,,,,,,,,,,,,,,,,,,,,,,,,,,,,,,,,,,,,,,,,,,,,,,,,,,,,,,,,,,,,,,,
,,1,1.5439,1,1.5439,0,88,88,59,1,8,broom,melon,,89688,001,2022-04-25_20h22.12.902,SPAMnetsValid,2021.1.4,Win32,60.26637739,,,,,,,,,,,,,,,,,,,,,,,,,,,,,,,,,,,,,,,,,,,,,,,,,,,,,,,,,,,,,,,,,,,,,,,,,,,,,,,,,,,,,,,,,
,,8,2.4079,8,2.4079,0,89,89,58,1,94,kitchen,microwave,,89688,001,2022-04-25_20h22.12.902,SPAMnetsValid,2021.1.4,Win32,60.26637739,,,,,,,,,,,,,,,,,,,,,,,,,,,,,,,,,,,,,,,,,,,,,,,,,,,,,,,,,,,,,,,,,,,,,,,,,,,,,,,,,,,,,,,,,
,,1,1.6721,1,1.6721,0,90,90,55,1,1,rose,yogurt,,89688,001,2022-04-25_20h22.12.902,SPAMnetsValid,2021.1.4,Win32,60.26637739,,,,,,,,,,,,,,,,,,,,,,,,,,,,,,,,,,,,,,,,,,,,,,,,,,,,,,,,,,,,,,,,,,,,,,,,,,,,,,,,,,,,,,,,,
,,1,1.2475,1,1.2475,0,91,91,49,1,57,flower,kitchen,,89688,001,2022-04-25_20h22.12.902,SPAMnetsValid,2021.1.4,Win32,60.26637739,,,,,,,,,,,,,,,,,,,,,,,,,,,,,,,,,,,,,,,,,,,,,,,,,,,,,,,,,,,,,,,,,,,,,,,,,,,,,,,,,,,,,,,,,
,,1,2.4607,1,2.4607,0,92,92,17,1,27,cactus,cookie,,89688,001,2022-04-25_20h22.12.902,SPAMnetsValid,2021.1.4,Win32,60.26637739,,,,,,,,,,,,,,,,,,,,,,,,,,,,,,,,,,,,,,,,,,,,,,,,,,,,,,,,,,,,,,,,,,,,,,,,,,,,,,,,,,,,,,,,,
,,1,1.5807,1,1.5807,0,93,93,77,1,7,melon,tree,,89688,001,2022-04-25_20h22.12.902,SPAMnetsValid,2021.1.4,Win32,60.26637739,,,,,,,,,,,,,,,,,,,,,,,,,,,,,,,,,,,,,,,,,,,,,,,,,,,,,,,,,,,,,,,,,,,,,,,,,,,,,,,,,,,,,,,,,
,,6,6.3472,6,6.3472,0,94,94,60,1,89,chocolate,rose,,89688,001,2022-04-25_20h22.12.902,SPAMnetsValid,2021.1.4,Win32,60.26637739,,,,,,,,,,,,,,,,,,,,,,,,,,,,,,,,,,,,,,,,,,,,,,,,,,,,,,,,,,,,,,,,,,,,,,,,,,,,,,,,,,,,,,,,,
,,3,4.0583,3,4.0583,0,95,95,35,1,55,tomato,tree,,89688,001,2022-04-25_20h22.12.902,SPAMnetsValid,2021.1.4,Win32,60.26637739,,,,,,,,,,,,,,,,,,,,,,,,,,,,,,,,,,,,,,,,,,,,,,,,,,,,,,,,,,,,,,,,,,,,,,,,,,,,,,,,,,,,,,,,,
,,1,9.6264,1,9.6264,0,96,96,74,1,70,chocolate,onion,,89688,001,2022-04-25_20h22.12.902,SPAMnetsValid,2021.1.4,Win32,60.26637739,,,,,,,,,,,,,,,,,,,,,,,,,,,,,,,,,,,,,,,,,,,,,,,,,,,,,,,,,,,,,,,,,,,,,,,,,,,,,,,,,,,,,,,,,
,,,,,,,,,,,,,,,89688,001,2022-04-25_20h22.12.902,SPAMnetsValid,2021.1.4,Win32,60.26637739,0,0,0,0,1,,,,,,,,,,,,,,,,,,,,,,,,,,,,,,,,,,,,,,,,,,,,,,,,,,,,,,,,,,,,,,,,,,,,,,,,,,,,,,,,,,,,
,,,,,,,,,,,,,,,89688,001,2022-04-25_20h22.12.902,SPAMnetsValid,2021.1.4,Win32,60.26637739,,,,,,0,0,0,0,1,1,0,,,,,,,,,,,,,,,,,,,,,,,,,,,,,,,,,,,,,,,,,,,,,,,,,,,,,,,,,,,,,,,,,,,,,,,,,,,,,
,,,,1,3.734,,,,,,115,refrigerator,tomato,,89688,001,2022-04-25_20h22.12.902,SPAMnetsValid,2021.1.4,Win32,60.26637739,,,,,,,,,,,,,1,3.734,0,0,0,85,1,,,,,,,,,,,,,,,,,,,,,,,,,,,,,,,,,,,,,,,,,,,,,,,,,,,,,,,,,,,,,,,,,,,,,,
,,,,4,7.6702,,,,,,181,carrot,kitchen,,89688,001,2022-04-25_20h22.12.902,SPAMnetsValid,2021.1.4,Win32,60.26637739,,,,,,,,,,,,,4,7.6702,0,1,1,72,1,,,,,,,,,,,,,,,,,,,,,,,,,,,,,,,,,,,,,,,,,,,,,,,,,,,,,,,,,,,,,,,,,,,,,,
,,,,6,19.3614,,,,,,168,cactus,flower,,89688,001,2022-04-25_20h22.12.902,SPAMnetsValid,2021.1.4,Win32,60.26637739,,,,,,,,,,,,,6,19.3614,0,2,2,51,1,,,,,,,,,,,,,,,,,,,,,,,,,,,,,,,,,,,,,,,,,,,,,,,,,,,,,,,,,,,,,,,,,,,,,,
,,,,1,3.6737,,,,,,179,broom,oven,,89688,001,2022-04-25_20h22.12.902,SPAMnetsValid,2021.1.4,Win32,60.26637739,,,,,,,,,,,,,1,3.6737,0,3,3,45,1,,,,,,,,,,,,,,,,,,,,,,,,,,,,,,,,,,,,,,,,,,,,,,,,,,,,,,,,,,,,,,,,,,,,,,
,,,,1,1.238,,,,,,121,broom,microwave,,89688,001,2022-04-25_20h22.12.902,SPAMnetsValid,2021.1.4,Win32,60.26637739,,,,,,,,,,,,,1,1.238,0,4,4,95,1,,,,,,,,,,,,,,,,,,,,,,,,,,,,,,,,,,,,,,,,,,,,,,,,,,,,,,,,,,,,,,,,,,,,,,
,,,,1,1.5883,,,,,,107,rose,tomato,,89688,001,2022-04-25_20h22.12.902,SPAMnetsValid,2021.1.4,Win32,60.26637739,,,,,,,,,,,,,1,1.5883,0,5,5,26,1,,,,,,,,,,,,,,,,,,,,,,,,,,,,,,,,,,,,,,,,,,,,,,,,,,,,,,,,,,,,,,,,,,,,,,
,,,,1,1.9043,,,,,,153,carrot,pretzel,,89688,001,2022-04-25_20h22.12.902,SPAMnetsValid,2021.1.4,Win32,60.26637739,,,,,,,,,,,,,1,1.9043,0,6,6,34,1,,,,,,,,,,,,,,,,,,,,,,,,,,,,,,,,,,,,,,,,,,,,,,,,,,,,,,,,,,,,,,,,,,,,,,
,,,,1,1.7984,,,,,,152,cactus,strawberry,,89688,001,2022-04-25_20h22.12.902,SPAMnetsValid,2021.1.4,Win32,60.26637739,,,,,,,,,,,,,1,1.7984,0,7,7,49,1,,,,,,,,,,,,,,,,,,,,,,,,,,,,,,,,,,,,,,,,,,,,,,,,,,,,,,,,,,,,,,,,,,,,,,
,,,,7,2.1339,,,,,,177,chocolate,strawberry,,89688,001,2022-04-25_20h22.12.902,SPAMnetsValid,2021.1.4,Win32,60.26637739,,,,,,,,,,,,,7,2.1339,0,8,8,53,1,,,,,,,,,,,,,,,,,,,,,,,,,,,,,,,,,,,,,,,,,,,,,,,,,,,,,,,,,,,,,,,,,,,,,,
,,,,1,2.0153,,,,,,135,carrot,oven,,89688,001,2022-04-25_20h22.12.902,SPAMnetsValid,2021.1.4,Win32,60.26637739,,,,,,,,,,,,,1,2.0153,0,9,9,73,1,,,,,,,,,,,,,,,,,,,,,,,,,,,,,,,,,,,,,,,,,,,,,,,,,,,,,,,,,,,,,,,,,,,,,,
,,,,1,1.0227,,,,,,108,carrot,chocolate,,89688,001,2022-04-25_20h22.12.902,SPAMnetsValid,2021.1.4,Win32,60.26637739,,,,,,,,,,,,,1,1.0227,0,10,10,5,1,,,,,,,,,,,,,,,,,,,,,,,,,,,,,,,,,,,,,,,,,,,,,,,,,,,,,,,,,,,,,,,,,,,,,,
,,,,1,1.366,,,,,,123,cookie,tree,,89688,001,2022-04-25_20h22.12.902,SPAMnetsValid,2021.1.4,Win32,60.26637739,,,,,,,,,,,,,1,1.366,0,11,11,46,1,,,,,,,,,,,,,,,,,,,,,,,,,,,,,,,,,,,,,,,,,,,,,,,,,,,,,,,,,,,,,,,,,,,,,,
,,,,9,1.7893,,,,,,194,cactus,cactus,CHECK,89688,001,2022-04-25_20h22.12.902,SPAMnetsValid,2021.1.4,Win32,60.26637739,,,,,,,,,,,,,9,1.7893,0,12,12,25,1,,,,,,,,,,,,,,,,,,,,,,,,,,,,,,,,,,,,,,,,,,,,,,,,,,,,,,,,,,,,,,,,,,,,,,
,,,,1,2.0551,,,,,,146,pretzel,tree,,89688,001,2022-04-25_20h22.12.902,SPAMnetsValid,2021.1.4,Win32,60.26637739,,,,,,,,,,,,,1,2.0551,0,13,13,80,1,,,,,,,,,,,,,,,,,,,,,,,,,,,,,,,,,,,,,,,,,,,,,,,,,,,,,,,,,,,,,,,,,,,,,,
,,,,1,1.2207,,,,,,180,tree,yogurt,,89688,001,2022-04-25_20h22.12.902,SPAMnetsValid,2021.1.4,Win32,60.26637739,,,,,,,,,,,,,1,1.2207,0,14,14,68,1,,,,,,,,,,,,,,,,,,,,,,,,,,,,,,,,,,,,,,,,,,,,,,,,,,,,,,,,,,,,,,,,,,,,,,
,,,,5,4.0122,,,,,,154,strawberry,yogurt,,89688,001,2022-04-25_20h22.12.902,SPAMnetsValid,2021.1.4,Win32,60.26637739,,,,,,,,,,,,,5,4.0122,0,15,15,28,1,,,,,,,,,,,,,,,,,,,,,,,,,,,,,,,,,,,,,,,,,,,,,,,,,,,,,,,,,,,,,,,,,,,,,,
,,,,3,2.9578,,,,,,155,carrot,cookie,,89688,001,2022-04-25_20h22.12.902,SPAMnetsValid,2021.1.4,Win32,60.26637739,,,,,,,,,,,,,3,2.9578,0,16,16,38,1,,,,,,,,,,,,,,,,,,,,,,,,,,,,,,,,,,,,,,,,,,,,,,,,,,,,,,,,,,,,,,,,,,,,,,
,,,,5,2.4713,,,,,,167,carrot,garden,,89688,001,2022-04-25_20h22.12.902,SPAMnetsValid,2021.1.4,Win32,60.26637739,,,,,,,,,,,,,5,2.4713,0,17,17,47,1,,,,,,,,,,,,,,,,,,,,,,,,,,,,,,,,,,,,,,,,,,,,,,,,,,,,,,,,,,,,,,,,,,,,,,
,,,,3,2.438,,,,,,171,cake,tomato,,89688,001,2022-04-25_20h22.12.902,SPAMnetsValid,2021.1.4,Win32,60.26637739,,,,,,,,,,,,,3,2.438,0,18,18,88,1,,,,,,,,,,,,,,,,,,,,,,,,,,,,,,,,,,,,,,,,,,,,,,,,,,,,,,,,,,,,,,,,,,,,,,
,,,,1,2.2817,,,,,,160,cookie,kitchen,,89688,001,2022-04-25_20h22.12.902,SPAMnetsValid,2021.1.4,Win32,60.26637739,,,,,,,,,,,,,1,2.2817,0,19,19,65,1,,,,,,,,,,,,,,,,,,,,,,,,,,,,,,,,,,,,,,,,,,,,,,,,,,,,,,,,,,,,,,,,,,,,,,
,,,,8,5.2416,,,,,,120,microwave,oven,,89688,001,2022-04-25_20h22.12.902,SPAMnetsValid,2021.1.4,Win32,60.26637739,,,,,,,,,,,,,8,5.2416,0,20,20,14,1,,,,,,,,,,,,,,,,,,,,,,,,,,,,,,,,,,,,,,,,,,,,,,,,,,,,,,,,,,,,,,,,,,,,,,
,,,,1,2.2342,,,,,,101,cactus,kitchen,,89688,001,2022-04-25_20h22.12.902,SPAMnetsValid,2021.1.4,Win32,60.26637739,,,,,,,,,,,,,1,2.2342,0,21,21,54,1,,,,,,,,,,,,,,,,,,,,,,,,,,,,,,,,,,,,,,,,,,,,,,,,,,,,,,,,,,,,,,,,,,,,,,
,,,,5,3.342,,,,,,102,chocolate,refrigerator,,89688,001,2022-04-25_20h22.12.902,SPAMnetsValid,2021.1.4,Win32,60.26637739,,,,,,,,,,,,,5,3.342,0,22,22,76,1,,,,,,,,,,,,,,,,,,,,,,,,,,,,,,,,,,,,,,,,,,,,,,,,,,,,,,,,,,,,,,,,,,,,,,
,,,,1,3.6284,,,,,,157,refrigerator,rose,,89688,001,2022-04-25_20h22.12.902,SPAMnetsValid,2021.1.4,Win32,60.26637739,,,,,,,,,,,,,1,3.6284,0,23,23,64,1,,,,,,,,,,,,,,,,,,,,,,,,,,,,,,,,,,,,,,,,,,,,,,,,,,,,,,,,,,,,,,,,,,,,,,
,,,,1,4.5074,,,,,,140,cookie,refrigerator,,89688,001,2022-04-25_20h22.12.902,SPAMnetsValid,2021.1.4,Win32,60.26637739,,,,,,,,,,,,,1,4.5074,0,24,24,89,1,,,,,,,,,,,,,,,,,,,,,,,,,,,,,,,,,,,,,,,,,,,,,,,,,,,,,,,,,,,,,,,,,,,,,,
,,,,4,2.8356,,,,,,189,onion,tree,,89688,001,2022-04-25_20h22.12.902,SPAMnetsValid,2021.1.4,Win32,60.26637739,,,,,,,,,,,,,4,2.8356,0,25,25,62,1,,,,,,,,,,,,,,,,,,,,,,,,,,,,,,,,,,,,,,,,,,,,,,,,,,,,,,,,,,,,,,,,,,,,,,
,,,,1,1.4331,,,,,,169,onion,yogurt,,89688,001,2022-04-25_20h22.12.902,SPAMnetsValid,2021.1.4,Win32,60.26637739,,,,,,,,,,,,,1,1.4331,0,26,26,24,1,,,,,,,,,,,,,,,,,,,,,,,,,,,,,,,,,,,,,,,,,,,,,,,,,,,,,,,,,,,,,,,,,,,,,,
,,,,1,4.0415,,,,,,164,cookie,garden,,89688,001,2022-04-25_20h22.12.902,SPAMnetsValid,2021.1.4,Win32,60.26637739,,,,,,,,,,,,,1,4.0415,0,27,27,59,1,,,,,,,,,,,,,,,,,,,,,,,,,,,,,,,,,,,,,,,,,,,,,,,,,,,,,,,,,,,,,,,,,,,,,,
,,,,1,1.2308,,,,,,163,melon,refrigerator,,89688,001,2022-04-25_20h22.12.902,SPAMnetsValid,2021.1.4,Win32,60.26637739,,,,,,,,,,,,,1,1.2308,0,28,28,29,1,,,,,,,,,,,,,,,,,,,,,,,,,,,,,,,,,,,,,,,,,,,,,,,,,,,,,,,,,,,,,,,,,,,,,,
,,,,7,2.0723,,,,,,100,garden,tomato,,89688,001,2022-04-25_20h22.12.902,SPAMnetsValid,2021.1.4,Win32,60.26637739,,,,,,,,,,,,,7,2.0723,0,29,29,83,1,,,,,,,,,,,,,,,,,,,,,,,,,,,,,,,,,,,,,,,,,,,,,,,,,,,,,,,,,,,,,,,,,,,,,,
,,,,4,2.4924,,,,,,174,cake,pretzel,,89688,001,2022-04-25_20h22.12.902,SPAMnetsValid,2021.1.4,Win32,60.26637739,,,,,,,,,,,,,4,2.4924,0,30,30,2,1,,,,,,,,,,,,,,,,,,,,,,,,,,,,,,,,,,,,,,,,,,,,,,,,,,,,,,,,,,,,,,,,,,,,,,
,,,,1,2.5657,,,,,,105,cactus,oven,,89688,001,2022-04-25_20h22.12.902,SPAMnetsValid,2021.1.4,Win32,60.26637739,,,,,,,,,,,,,1,2.5657,0,31,31,13,1,,,,,,,,,,,,,,,,,,,,,,,,,,,,,,,,,,,,,,,,,,,,,,,,,,,,,,,,,,,,,,,,,,,,,,
,,,,3,3.8475,,,,,,147,cake,refrigerator,,89688,001,2022-04-25_20h22.12.902,SPAMnetsValid,2021.1.4,Win32,60.26637739,,,,,,,,,,,,,3,3.8475,0,32,32,35,1,,,,,,,,,,,,,,,,,,,,,,,,,,,,,,,,,,,,,,,,,,,,,,,,,,,,,,,,,,,,,,,,,,,,,,
,,,,1,2.7617,,,,,,128,melon,microwave,,89688,001,2022-04-25_20h22.12.902,SPAMnetsValid,2021.1.4,Win32,60.26637739,,,,,,,,,,,,,1,2.7617,0,33,33,74,1,,,,,,,,,,,,,,,,,,,,,,,,,,,,,,,,,,,,,,,,,,,,,,,,,,,,,,,,,,,,,,,,,,,,,,
,,,,1,3.0013,,,,,,109,broom,strawberry,,89688,001,2022-04-25_20h22.12.902,SPAMnetsValid,2021.1.4,Win32,60.26637739,,,,,,,,,,,,,1,3.0013,0,34,34,4,1,,,,,,,,,,,,,,,,,,,,,,,,,,,,,,,,,,,,,,,,,,,,,,,,,,,,,,,,,,,,,,,,,,,,,,
,,,,1,2.928,,,,,,104,garden,microwave,,89688,001,2022-04-25_20h22.12.902,SPAMnetsValid,2021.1.4,Win32,60.26637739,,,,,,,,,,,,,1,2.928,0,35,35,81,1,,,,,,,,,,,,,,,,,,,,,,,,,,,,,,,,,,,,,,,,,,,,,,,,,,,,,,,,,,,,,,,,,,,,,,
,,,,1,0.9918,,,,,,143,pretzel,rose,,89688,001,2022-04-25_20h22.12.902,SPAMnetsValid,2021.1.4,Win32,60.26637739,,,,,,,,,,,,,1,0.9918,0,36,36,55,1,,,,,,,,,,,,,,,,,,,,,,,,,,,,,,,,,,,,,,,,,,,,,,,,,,,,,,,,,,,,,,,,,,,,,,
,,,,5,1.6879,,,,,,166,cake,yogurt,,89688,001,2022-04-25_20h22.12.902,SPAMnetsValid,2021.1.4,Win32,60.26637739,,,,,,,,,,,,,5,1.6879,0,37,37,91,1,,,,,,,,,,,,,,,,,,,,,,,,,,,,,,,,,,,,,,,,,,,,,,,,,,,,,,,,,,,,,,,,,,,,,,
,,,,5,0.9551,,,,,,112,cake,carrot,,89688,001,2022-04-25_20h22.12.902,SPAMnetsValid,2021.1.4,Win32,60.26637739,,,,,,,,,,,,,5,0.9551,0,38,38,39,1,,,,,,,,,,,,,,,,,,,,,,,,,,,,,,,,,,,,,,,,,,,,,,,,,,,,,,,,,,,,,,,,,,,,,,
,,,,5,0.904,,,,,,110,chocolate,cookie,,89688,001,2022-04-25_20h22.12.902,SPAMnetsValid,2021.1.4,Win32,60.26637739,,,,,,,,,,,,,5,0.904,0,39,39,52,1,,,,,,,,,,,,,,,,,,,,,,,,,,,,,,,,,,,,,,,,,,,,,,,,,,,,,,,,,,,,,,,,,,,,,,
,,,,5,1.024,,,,,,139,carrot,strawberry,,89688,001,2022-04-25_20h22.12.902,SPAMnetsValid,2021.1.4,Win32,60.26637739,,,,,,,,,,,,,5,1.024,0,40,40,37,1,,,,,,,,,,,,,,,,,,,,,,,,,,,,,,,,,,,,,,,,,,,,,,,,,,,,,,,,,,,,,,,,,,,,,,
,,,,1,3.4577,,,,,,186,kitchen,yogurt,,89688,001,2022-04-25_20h22.12.902,SPAMnetsValid,2021.1.4,Win32,60.26637739,,,,,,,,,,,,,1,3.4577,0,41,41,48,1,,,,,,,,,,,,,,,,,,,,,,,,,,,,,,,,,,,,,,,,,,,,,,,,,,,,,,,,,,,,,,,,,,,,,,
,,,,5,2.909,,,,,,114,cookie,strawberry,,89688,001,2022-04-25_20h22.12.902,SPAMnetsValid,2021.1.4,Win32,60.26637739,,,,,,,,,,,,,5,2.909,0,42,42,87,1,,,,,,,,,,,,,,,,,,,,,,,,,,,,,,,,,,,,,,,,,,,,,,,,,,,,,,,,,,,,,,,,,,,,,,
,,,,1,2.2241,,,,,,187,cactus,microwave,,89688,001,2022-04-25_20h22.12.902,SPAMnetsValid,2021.1.4,Win32,60.26637739,,,,,,,,,,,,,1,2.2241,0,43,43,71,1,,,,,,,,,,,,,,,,,,,,,,,,,,,,,,,,,,,,,,,,,,,,,,,,,,,,,,,,,,,,,,,,,,,,,,
,,,,1,1.7048,,,,,,96,oven,strawberry,,89688,001,2022-04-25_20h22.12.902,SPAMnetsValid,2021.1.4,Win32,60.26637739,,,,,,,,,,,,,1,1.7048,0,44,44,67,1,,,,,,,,,,,,,,,,,,,,,,,,,,,,,,,,,,,,,,,,,,,,,,,,,,,,,,,,,,,,,,,,,,,,,,
,,,,8,2.5317,,,,,,131,cactus,garden,,89688,001,2022-04-25_20h22.12.902,SPAMnetsValid,2021.1.4,Win32,60.26637739,,,,,,,,,,,,,8,2.5317,0,45,45,33,1,,,,,,,,,,,,,,,,,,,,,,,,,,,,,,,,,,,,,,,,,,,,,,,,,,,,,,,,,,,,,,,,,,,,,,
,,,,1,1.8574,,,,,,136,chocolate,microwave,,89688,001,2022-04-25_20h22.12.902,SPAMnetsValid,2021.1.4,Win32,60.26637739,,,,,,,,,,,,,1,1.8574,0,46,46,96,1,,,,,,,,,,,,,,,,,,,,,,,,,,,,,,,,,,,,,,,,,,,,,,,,,,,,,,,,,,,,,,,,,,,,,,
,,,,5,3.5681,,,,,,175,melon,onion,,89688,001,2022-04-25_20h22.12.902,SPAMnetsValid,2021.1.4,Win32,60.26637739,,,,,,,,,,,,,5,3.5681,0,47,47,41,1,,,,,,,,,,,,,,,,,,,,,,,,,,,,,,,,,,,,,,,,,,,,,,,,,,,,,,,,,,,,,,,,,,,,,,
,,,,4,3.0016,,,,,,119,strawberry,tree,,89688,001,2022-04-25_20h22.12.902,SPAMnetsValid,2021.1.4,Win32,60.26637739,,,,,,,,,,,,,4,3.0016,0,48,48,18,1,,,,,,,,,,,,,,,,,,,,,,,,,,,,,,,,,,,,,,,,,,,,,,,,,,,,,,,,,,,,,,,,,,,,,,
,,,,1,2.2379,,,,,,190,microwave,strawberry,,89688,001,2022-04-25_20h22.12.902,SPAMnetsValid,2021.1.4,Win32,60.26637739,,,,,,,,,,,,,1,2.2379,0,49,49,90,1,,,,,,,,,,,,,,,,,,,,,,,,,,,,,,,,,,,,,,,,,,,,,,,,,,,,,,,,,,,,,,,,,,,,,,
,,,,1,1.4757,,,,,,126,kitchen,tree,,89688,001,2022-04-25_20h22.12.902,SPAMnetsValid,2021.1.4,Win32,60.26637739,,,,,,,,,,,,,1,1.4757,0,50,50,50,1,,,,,,,,,,,,,,,,,,,,,,,,,,,,,,,,,,,,,,,,,,,,,,,,,,,,,,,,,,,,,,,,,,,,,,
,,,,6,3.2733,,,,,,158,cookie,oven,,89688,001,2022-04-25_20h22.12.902,SPAMnetsValid,2021.1.4,Win32,60.26637739,,,,,,,,,,,,,6,3.2733,0,51,51,27,1,,,,,,,,,,,,,,,,,,,,,,,,,,,,,,,,,,,,,,,,,,,,,,,,,,,,,,,,,,,,,,,,,,,,,,
,,,,1,3.1551,,,,,,98,pretzel,strawberry,,89688,001,2022-04-25_20h22.12.902,SPAMnetsValid,2021.1.4,Win32,60.26637739,,,,,,,,,,,,,1,3.1551,0,52,52,82,1,,,,,,,,,,,,,,,,,,,,,,,,,,,,,,,,,,,,,,,,,,,,,,,,,,,,,,,,,,,,,,,,,,,,,,
,,,,2,15.4519,,,,,,134,carrot,flower,,89688,001,2022-04-25_20h22.12.902,SPAMnetsValid,2021.1.4,Win32,60.26637739,,,,,,,,,,,,,2,15.4519,0,53,53,93,1,,,,,,,,,,,,,,,,,,,,,,,,,,,,,,,,,,,,,,,,,,,,,,,,,,,,,,,,,,,,,,,,,,,,,,
,,,,2,2.0784,,,,,,125,carrot,tree,,89688,001,2022-04-25_20h22.12.902,SPAMnetsValid,2021.1.4,Win32,60.26637739,,,,,,,,,,,,,2,2.0784,0,54,54,30,1,,,,,,,,,,,,,,,,,,,,,,,,,,,,,,,,,,,,,,,,,,,,,,,,,,,,,,,,,,,,,,,,,,,,,,
,,,,1,2.6134,,,,,,183,cake,rose,,89688,001,2022-04-25_20h22.12.902,SPAMnetsValid,2021.1.4,Win32,60.26637739,,,,,,,,,,,,,1,2.6134,0,55,55,19,1,,,,,,,,,,,,,,,,,,,,,,,,,,,,,,,,,,,,,,,,,,,,,,,,,,,,,,,,,,,,,,,,,,,,,,
,,,,5,2.5387,,,,,,116,cake,chocolate,,89688,001,2022-04-25_20h22.12.902,SPAMnetsValid,2021.1.4,Win32,60.26637739,,,,,,,,,,,,,5,2.5387,0,56,56,44,1,,,,,,,,,,,,,,,,,,,,,,,,,,,,,,,,,,,,,,,,,,,,,,,,,,,,,,,,,,,,,,,,,,,,,,
,,,,1,1.8246,,,,,,132,broom,tree,,89688,001,2022-04-25_20h22.12.902,SPAMnetsValid,2021.1.4,Win32,60.26637739,,,,,,,,,,,,,1,1.8246,0,57,57,78,1,,,,,,,,,,,,,,,,,,,,,,,,,,,,,,,,,,,,,,,,,,,,,,,,,,,,,,,,,,,,,,,,,,,,,,
,,,,1,2.7293,,,,,,182,flower,refrigerator,,89688,001,2022-04-25_20h22.12.902,SPAMnetsValid,2021.1.4,Win32,60.26637739,,,,,,,,,,,,,1,2.7293,0,58,58,32,1,,,,,,,,,,,,,,,,,,,,,,,,,,,,,,,,,,,,,,,,,,,,,,,,,,,,,,,,,,,,,,,,,,,,,,
,,,,1,1.5376,,,,,,165,onion,rose,,89688,001,2022-04-25_20h22.12.902,SPAMnetsValid,2021.1.4,Win32,60.26637739,,,,,,,,,,,,,1,1.5376,0,59,59,40,1,,,,,,,,,,,,,,,,,,,,,,,,,,,,,,,,,,,,,,,,,,,,,,,,,,,,,,,,,,,,,,,,,,,,,,
,,,,7,5.9767,,,,,,124,oven,refrigerator,,89688,001,2022-04-25_20h22.12.902,SPAMnetsValid,2021.1.4,Win32,60.26637739,,,,,,,,,,,,,7,5.9767,0,60,60,69,1,,,,,,,,,,,,,,,,,,,,,,,,,,,,,,,,,,,,,,,,,,,,,,,,,,,,,,,,,,,,,,,,,,,,,,
,,,,1,1.6891,,,,,,129,cactus,refrigerator,,89688,001,2022-04-25_20h22.12.902,SPAMnetsValid,2021.1.4,Win32,60.26637739,,,,,,,,,,,,,1,1.6891,0,61,61,3,1,,,,,,,,,,,,,,,,,,,,,,,,,,,,,,,,,,,,,,,,,,,,,,,,,,,,,,,,,,,,,,,,,,,,,,
,,,,1,4.385,,,,,,162,microwave,tomato,,89688,001,2022-04-25_20h22.12.902,SPAMnetsValid,2021.1.4,Win32,60.26637739,,,,,,,,,,,,,1,4.385,0,62,62,12,1,,,,,,,,,,,,,,,,,,,,,,,,,,,,,,,,,,,,,,,,,,,,,,,,,,,,,,,,,,,,,,,,,,,,,,
,,,,7,1.6804,,,,,,150,microwave,refrigerator,,89688,001,2022-04-25_20h22.12.902,SPAMnetsValid,2021.1.4,Win32,60.26637739,,,,,,,,,,,,,7,1.6804,0,63,63,66,1,,,,,,,,,,,,,,,,,,,,,,,,,,,,,,,,,,,,,,,,,,,,,,,,,,,,,,,,,,,,,,,,,,,,,,
,,,,6,3.8061,,,,,,99,garden,melon,,89688,001,2022-04-25_20h22.12.902,SPAMnetsValid,2021.1.4,Win32,60.26637739,,,,,,,,,,,,,6,3.8061,0,64,64,17,1,,,,,,,,,,,,,,,,,,,,,,,,,,,,,,,,,,,,,,,,,,,,,,,,,,,,,,,,,,,,,,,,,,,,,,
,,,,4,3.3499,,,,,,118,chocolate,oven,,89688,001,2022-04-25_20h22.12.902,SPAMnetsValid,2021.1.4,Win32,60.26637739,,,,,,,,,,,,,4,3.3499,0,65,65,10,1,,,,,,,,,,,,,,,,,,,,,,,,,,,,,,,,,,,,,,,,,,,,,,,,,,,,,,,,,,,,,,,,,,,,,,
,,,,5,4.1189,,,,,,106,cake,strawberry,,89688,001,2022-04-25_20h22.12.902,SPAMnetsValid,2021.1.4,Win32,60.26637739,,,,,,,,,,,,,5,4.1189,0,66,66,0,1,,,,,,,,,,,,,,,,,,,,,,,,,,,,,,,,,,,,,,,,,,,,,,,,,,,,,,,,,,,,,,,,,,,,,,
,,,,1,1.8215,,,,,,159,cookie,flower,,89688,001,2022-04-25_20h22.12.902,SPAMnetsValid,2021.1.4,Win32,60.26637739,,,,,,,,,,,,,1,1.8215,0,67,67,21,1,,,,,,,,,,,,,,,,,,,,,,,,,,,,,,,,,,,,,,,,,,,,,,,,,,,,,,,,,,,,,,,,,,,,,,
,,,,1,1.957,,,,,,145,cactus,yogurt,,89688,001,2022-04-25_20h22.12.902,SPAMnetsValid,2021.1.4,Win32,60.26637739,,,,,,,,,,,,,1,1.957,0,68,68,15,1,,,,,,,,,,,,,,,,,,,,,,,,,,,,,,,,,,,,,,,,,,,,,,,,,,,,,,,,,,,,,,,,,,,,,,
,,,,8,8.7046,,,,,,138,flower,rose,,89688,001,2022-04-25_20h22.12.902,SPAMnetsValid,2021.1.4,Win32,60.26637739,,,,,,,,,,,,,8,8.7046,0,69,69,61,1,,,,,,,,,,,,,,,,,,,,,,,,,,,,,,,,,,,,,,,,,,,,,,,,,,,,,,,,,,,,,,,,,,,,,,
,,,,3,6.0131,,,,,,103,pretzel,tomato,,89688,001,2022-04-25_20h22.12.902,SPAMnetsValid,2021.1.4,Win32,60.26637739,,,,,,,,,,,,,3,6.0131,0,70,70,79,1,,,,,,,,,,,,,,,,,,,,,,,,,,,,,,,,,,,,,,,,,,,,,,,,,,,,,,,,,,,,,,,,,,,,,,
,,,,1,2.5628,,,,,,130,microwave,yogurt,,89688,001,2022-04-25_20h22.12.902,SPAMnetsValid,2021.1.4,Win32,60.26637739,,,,,,,,,,,,,1,2.5628,0,71,71,84,1,,,,,,,,,,,,,,,,,,,,,,,,,,,,,,,,,,,,,,,,,,,,,,,,,,,,,,,,,,,,,,,,,,,,,,
,,,,1,1.3102,,,,,,149,broom,tomato,,89688,001,2022-04-25_20h22.12.902,SPAMnetsValid,2021.1.4,Win32,60.26637739,,,,,,,,,,,,,1,1.3102,0,72,72,20,1,,,,,,,,,,,,,,,,,,,,,,,,,,,,,,,,,,,,,,,,,,,,,,,,,,,,,,,,,,,,,,,,,,,,,,
,,,,7,2.2053,,,,,,141,melon,tomato,,89688,001,2022-04-25_20h22.12.902,SPAMnetsValid,2021.1.4,Win32,60.26637739,,,,,,,,,,,,,7,2.2053,0,73,73,70,1,,,,,,,,,,,,,,,,,,,,,,,,,,,,,,,,,,,,,,,,,,,,,,,,,,,,,,,,,,,,,,,,,,,,,,
,,,,4,2.6399,,,,,,97,chocolate,kitchen,,89688,001,2022-04-25_20h22.12.902,SPAMnetsValid,2021.1.4,Win32,60.26637739,,,,,,,,,,,,,4,2.6399,0,74,74,8,1,,,,,,,,,,,,,,,,,,,,,,,,,,,,,,,,,,,,,,,,,,,,,,,,,,,,,,,,,,,,,,,,,,,,,,
,,,,4,2.1559,,,,,,113,refrigerator,strawberry,,89688,001,2022-04-25_20h22.12.902,SPAMnetsValid,2021.1.4,Win32,60.26637739,,,,,,,,,,,,,4,2.1559,0,75,75,56,1,,,,,,,,,,,,,,,,,,,,,,,,,,,,,,,,,,,,,,,,,,,,,,,,,,,,,,,,,,,,,,,,,,,,,,
,,,,8,2.0719,,,,,,188,flower,tree,,89688,001,2022-04-25_20h22.12.902,SPAMnetsValid,2021.1.4,Win32,60.26637739,,,,,,,,,,,,,8,2.0719,0,76,76,7,1,,,,,,,,,,,,,,,,,,,,,,,,,,,,,,,,,,,,,,,,,,,,,,,,,,,,,,,,,,,,,,,,,,,,,,
,,,,4,3.8778,,,,,,176,cactus,tomato,,89688,001,2022-04-25_20h22.12.902,SPAMnetsValid,2021.1.4,Win32,60.26637739,,,,,,,,,,,,,4,3.8778,0,77,77,9,1,,,,,,,,,,,,,,,,,,,,,,,,,,,,,,,,,,,,,,,,,,,,,,,,,,,,,,,,,,,,,,,,,,,,,,
,,,,1,2.7138,,,,,,148,flower,melon,,89688,001,2022-04-25_20h22.12.902,SPAMnetsValid,2021.1.4,Win32,60.26637739,,,,,,,,,,,,,1,2.7138,0,78,78,23,1,,,,,,,,,,,,,,,,,,,,,,,,,,,,,,,,,,,,,,,,,,,,,,,,,,,,,,,,,,,,,,,,,,,,,,
,,,,1,1.6229,,,,,,144,cake,garden,,89688,001,2022-04-25_20h22.12.902,SPAMnetsValid,2021.1.4,Win32,60.26637739,,,,,,,,,,,,,1,1.6229,0,79,79,58,1,,,,,,,,,,,,,,,,,,,,,,,,,,,,,,,,,,,,,,,,,,,,,,,,,,,,,,,,,,,,,,,,,,,,,,
,,,,7,3.5352,,,,,,185,cactus,rose,,89688,001,2022-04-25_20h22.12.902,SPAMnetsValid,2021.1.4,Win32,60.26637739,,,,,,,,,,,,,7,3.5352,0,80,80,43,1,,,,,,,,,,,,,,,,,,,,,,,,,,,,,,,,,,,,,,,,,,,,,,,,,,,,,,,,,,,,,,,,,,,,,,
,,,,2,2.2472,,,,,,156,melon,rose,,89688,001,2022-04-25_20h22.12.902,SPAMnetsValid,2021.1.4,Win32,60.26637739,,,,,,,,,,,,,2,2.2472,0,81,81,31,1,,,,,,,,,,,,,,,,,,,,,,,,,,,,,,,,,,,,,,,,,,,,,,,,,,,,,,,,,,,,,,,,,,,,,,
,,,,4,4.9768,,,,,,173,kitchen,tomato,,89688,001,2022-04-25_20h22.12.902,SPAMnetsValid,2021.1.4,Win32,60.26637739,,,,,,,,,,,,,4,4.9768,0,82,82,1,1,,,,,,,,,,,,,,,,,,,,,,,,,,,,,,,,,,,,,,,,,,,,,,,,,,,,,,,,,,,,,,,,,,,,,,
,,,,1,3.447,,,,,,133,cake,flower,,89688,001,2022-04-25_20h22.12.902,SPAMnetsValid,2021.1.4,Win32,60.26637739,,,,,,,,,,,,,1,3.447,0,83,83,94,1,,,,,,,,,,,,,,,,,,,,,,,,,,,,,,,,,,,,,,,,,,,,,,,,,,,,,,,,,,,,,,,,,,,,,,
,,,,1,2.5804,,,,,,151,microwave,onion,,89688,001,2022-04-25_20h22.12.902,SPAMnetsValid,2021.1.4,Win32,60.26637739,,,,,,,,,,,,,1,2.5804,0,84,84,6,1,,,,,,,,,,,,,,,,,,,,,,,,,,,,,,,,,,,,,,,,,,,,,,,,,,,,,,,,,,,,,,,,,,,,,,
,,,,1,1.3218,,,,,,137,microwave,tree,,89688,001,2022-04-25_20h22.12.902,SPAMnetsValid,2021.1.4,Win32,60.26637739,,,,,,,,,,,,,1,1.3218,0,85,85,63,1,,,,,,,,,,,,,,,,,,,,,,,,,,,,,,,,,,,,,,,,,,,,,,,,,,,,,,,,,,,,,,,,,,,,,,
,,,,2,4.3494,,,,,,178,cactus,carrot,,89688,001,2022-04-25_20h22.12.902,SPAMnetsValid,2021.1.4,Win32,60.26637739,,,,,,,,,,,,,2,4.3494,0,86,86,75,1,,,,,,,,,,,,,,,,,,,,,,,,,,,,,,,,,,,,,,,,,,,,,,,,,,,,,,,,,,,,,,,,,,,,,,
,,,,6,2.496,,,,,,184,oven,pretzel,,89688,001,2022-04-25_20h22.12.902,SPAMnetsValid,2021.1.4,Win32,60.26637739,,,,,,,,,,,,,6,2.496,0,87,87,42,1,,,,,,,,,,,,,,,,,,,,,,,,,,,,,,,,,,,,,,,,,,,,,,,,,,,,,,,,,,,,,,,,,,,,,,
,,,,1,5.5264,,,,,,170,cookie,microwave,,89688,001,2022-04-25_20h22.12.902,SPAMnetsValid,2021.1.4,Win32,60.26637739,,,,,,,,,,,,,1,5.5264,0,88,88,92,1,,,,,,,,,,,,,,,,,,,,,,,,,,,,,,,,,,,,,,,,,,,,,,,,,,,,,,,,,,,,,,,,,,,,,,
,,,,9,1.6215,,,,,,193,melon,melon,CHECK,89688,001,2022-04-25_20h22.12.902,SPAMnetsValid,2021.1.4,Win32,60.26637739,,,,,,,,,,,,,9,1.6215,0,89,89,86,1,,,,,,,,,,,,,,,,,,,,,,,,,,,,,,,,,,,,,,,,,,,,,,,,,,,,,,,,,,,,,,,,,,,,,,
,,,,1,2.4405,,,,,,172,kitchen,melon,,89688,001,2022-04-25_20h22.12.902,SPAMnetsValid,2021.1.4,Win32,60.26637739,,,,,,,,,,,,,1,2.4405,0,90,90,77,1,,,,,,,,,,,,,,,,,,,,,,,,,,,,,,,,,,,,,,,,,,,,,,,,,,,,,,,,,,,,,,,,,,,,,,
,,,,6,2.4926,,,,,,117,melon,strawberry,,89688,001,2022-04-25_20h22.12.902,SPAMnetsValid,2021.1.4,Win32,60.26637739,,,,,,,,,,,,,6,2.4926,0,91,91,11,1,,,,,,,,,,,,,,,,,,,,,,,,,,,,,,,,,,,,,,,,,,,,,,,,,,,,,,,,,,,,,,,,,,,,,,
,,,,7,2.4603,,,,,,142,garden,tree,,89688,001,2022-04-25_20h22.12.902,SPAMnetsValid,2021.1.4,Win32,60.26637739,,,,,,,,,,,,,7,2.4603,0,92,92,22,1,,,,,,,,,,,,,,,,,,,,,,,,,,,,,,,,,,,,,,,,,,,,,,,,,,,,,,,,,,,,,,,,,,,,,,
,,,,1,1.4666,,,,,,127,cactus,chocolate,,89688,001,2022-04-25_20h22.12.902,SPAMnetsValid,2021.1.4,Win32,60.26637739,,,,,,,,,,,,,1,1.4666,0,93,93,57,1,,,,,,,,,,,,,,,,,,,,,,,,,,,,,,,,,,,,,,,,,,,,,,,,,,,,,,,,,,,,,,,,,,,,,,
,,,,1,3.1305,,,,,,161,kitchen,pretzel,,89688,001,2022-04-25_20h22.12.902,SPAMnetsValid,2021.1.4,Win32,60.26637739,,,,,,,,,,,,,1,3.1305,0,94,94,36,1,,,,,,,,,,,,,,,,,,,,,,,,,,,,,,,,,,,,,,,,,,,,,,,,,,,,,,,,,,,,,,,,,,,,,,
,,,,1,5.1072,,,,,,111,carrot,microwave,,89688,001,2022-04-25_20h22.12.902,SPAMnetsValid,2021.1.4,Win32,60.26637739,,,,,,,,,,,,,1,5.1072,0,95,95,16,1,,,,,,,,,,,,,,,,,,,,,,,,,,,,,,,,,,,,,,,,,,,,,,,,,,,,,,,,,,,,,,,,,,,,,,
,,,,7,3.3908,,,,,,122,flower,garden,,89688,001,2022-04-25_20h22.12.902,SPAMnetsValid,2021.1.4,Win32,60.26637739,,,,,,,,,,,,,7,3.3908,0,96,96,60,1,,,,,,,,,,,,,,,,,,,,,,,,,,,,,,,,,,,,,,,,,,,,,,,,,,,,,,,,,,,,,,,,,,,,,,
,,,,,,,,,,,,,,,89688,001,2022-04-25_20h22.12.902,SPAMnetsValid,2021.1.4,Win32,60.26637739,,,,,,,,,,,,,,,,,,,,0,0,0,0,1,,,,,,,,,,,,,,,,,,,,,,,,,,,,,,,,,,,,,,,,,,,,,,,,,,,,,,,,,,,,,,,,,
,,,,,,,,,,,,,,,89688,001,2022-04-25_20h22.12.902,SPAMnetsValid,2021.1.4,Win32,60.26637739,,,,,,0,1,1,1,1,0,1,,,,,,,,,,,,,,,,,,,,,,,,,,,,,,,,,,,,,,,,,,,,,,,,,,,,,,,,,,,,,,,,,,,,,,,,,,,,,
,,,,,,,,,,,,,,,89688,001,2022-04-25_20h22.12.902,SPAMnetsValid,2021.1.4,Win32,60.26637739,,,,,,,,,,,,,,,,,,,,,,,,,3,32.3108,0,0,0,0,1,rancor,forbearance,ridicule,malice,bravery,3,,,,,,,,,,,,,,,,,,,,,,,,,,,,,,,,,,,,,,,,,,,,,,,,,,,,
,,,,,,,,,,,,,,,89688,001,2022-04-25_20h22.12.902,SPAMnetsValid,2021.1.4,Win32,60.26637739,,,,,,,,,,,,,,,,,,,,,,,,,4,15.1622,0,1,1,1,1,raucous,empty,quiet,smooth,harsh,4,,,,,,,,,,,,,,,,,,,,,,,,,,,,,,,,,,,,,,,,,,,,,,,,,,,,
,,,,,,,,,,,,,,,89688,001,2022-04-25_20h22.12.902,SPAMnetsValid,2021.1.4,Win32,60.26637739,,,,,,,,,,,,,,,,,,,,,,,,,3,6.479,0,2,2,2,1,gargoyle,oil,medicine,carved waterspout,ugly building,3,,,,,,,,,,,,,,,,,,,,,,,,,,,,,,,,,,,,,,,,,,,,,,,,,,,,
,,,,,,,,,,,,,,,89688,001,2022-04-25_20h22.12.902,SPAMnetsValid,2021.1.4,Win32,60.26637739,,,,,,,,,,,,,,,,,,,,,,,,,2,23.3295,0,3,3,3,1,recrudesce,purify,renew activity,lack refinement,crush,2,,,,,,,,,,,,,,,,,,,,,,,,,,,,,,,,,,,,,,,,,,,,,,,,,,,,
,,,,,,,,,,,,,,,89688,001,2022-04-25_20h22.12.902,SPAMnetsValid,2021.1.4,Win32,60.26637739,,,,,,,,,,,,,,,,,,,,,,,,,1,13.7366,0,4,4,4,1,specious,"plausible, but not genuine",noteworthy,class or variety,roomy,1,,,,,,,,,,,,,,,,,,,,,,,,,,,,,,,,,,,,,,,,,,,,,,,,,,,,
,,,,,,,,,,,,,,,89688,001,2022-04-25_20h22.12.902,SPAMnetsValid,2021.1.4,Win32,60.26637739,,,,,,,,,,,,,,,,,,,,,,,,,3,5.4848,0,5,5,5,1,bauble,bubble,showy plaything,idle talk,confusion,2,,,,,,,,,,,,,,,,,,,,,,,,,,,,,,,,,,,,,,,,,,,,,,,,,,,,
,,,,,,,,,,,,,,,89688,001,2022-04-25_20h22.12.902,SPAMnetsValid,2021.1.4,Win32,60.26637739,,,,,,,,,,,,,,,,,,,,,,,,,2,5.4477,0,6,6,6,1,prolific,scarce,producing abundantly,reckless,speaking profanely,2,,,,,,,,,,,,,,,,,,,,,,,,,,,,,,,,,,,,,,,,,,,,,,,,,,,,
,,,,,,,,,,,,,,,89688,001,2022-04-25_20h22.12.902,SPAMnetsValid,2021.1.4,Win32,60.26637739,,,,,,,,,,,,,,,,,,,,,,,,,2,28.4089,0,7,7,7,1,opulent,party,wealthy,happy frame of mind,semiprecious stone,2,,,,,,,,,,,,,,,,,,,,,,,,,,,,,,,,,,,,,,,,,,,,,,,,,,,,
,,,,,,,,,,,,,,,89688,001,2022-04-25_20h22.12.902,SPAMnetsValid,2021.1.4,Win32,60.26637739,,,,,,,,,,,,,,,,,,,,,,,,,1,4.0264,0,8,8,8,1,coercion,conspiracy,strategy,restraint,attraction,3,,,,,,,,,,,,,,,,,,,,,,,,,,,,,,,,,,,,,,,,,,,,,,,,,,,,
,,,,,,,,,,,,,,,89688,001,2022-04-25_20h22.12.902,SPAMnetsValid,2021.1.4,Win32,60.26637739,,,,,,,,,,,,,,,,,,,,,,,,,4,2.5267,0,9,9,9,1,hiatus,animal,calamity,dread,gap,4,,,,,,,,,,,,,,,,,,,,,,,,,,,,,,,,,,,,,,,,,,,,,,,,,,,,
,,,,,,,,,,,,,,,89688,001,2022-04-25_20h22.12.902,SPAMnetsValid,2021.1.4,Win32,60.26637739,,,,,,,,,,,,,,,,,,,,,,,,,3,14.1293,0,10,10,10,1,germane,microbe,contagious,relevant,different,3,,,,,,,,,,,,,,,,,,,,,,,,,,,,,,,,,,,,,,,,,,,,,,,,,,,,
,,,,,,,,,,,,,,,89688,001,2022-04-25_20h22.12.902,SPAMnetsValid,2021.1.4,Win32,60.26637739,,,,,,,,,,,,,,,,,,,,,,,,,1,26.1132,0,11,11,11,1,perfunctory,fundamental,formal,superficial,careful,3,,,,,,,,,,,,,,,,,,,,,,,,,,,,,,,,,,,,,,,,,,,,,,,,,,,,
,,,,,,,,,,,,,,,89688,001,2022-04-25_20h22.12.902,SPAMnetsValid,2021.1.4,Win32,60.26637739,,,,,,,,,,,,,,,,,,,,,,,,,4,3.8773,0,12,12,12,1,diverge,reveal,chant,distract the attention of,differ or turn off from,4,,,,,,,,,,,,,,,,,,,,,,,,,,,,,,,,,,,,,,,,,,,,,,,,,,,,
,,,,,,,,,,,,,,,89688,001,2022-04-25_20h22.12.902,SPAMnetsValid,2021.1.4,Win32,60.26637739,,,,,,,,,,,,,,,,,,,,,,,,,4,2.479,0,13,13,13,1,evoke,take away,anger,connect,bring out,4,,,,,,,,,,,,,,,,,,,,,,,,,,,,,,,,,,,,,,,,,,,,,,,,,,,,
,,,,,,,,,,,,,,,89688,001,2022-04-25_20h22.12.902,SPAMnetsValid,2021.1.4,Win32,60.26637739,,,,,,,,,,,,,,,,,,,,,,,,,3,7.9167,0,14,14,14,1,pertinent,relevant,lying next to,necessary,bold,1,,,,,,,,,,,,,,,,,,,,,,,,,,,,,,,,,,,,,,,,,,,,,,,,,,,,
,,,,,,,,,,,,,,,89688,001,2022-04-25_20h22.12.902,SPAMnetsValid,2021.1.4,Win32,60.26637739,,,,,,,,,,,,,,,,,,,,,,,,,2,2.1068,0,15,15,15,1,holocaust,entirety,destruction,saintly,price,2,,,,,,,,,,,,,,,,,,,,,,,,,,,,,,,,,,,,,,,,,,,,,,,,,,,,
,,,,,,,,,,,,,,,89688,001,2022-04-25_20h22.12.902,SPAMnetsValid,2021.1.4,Win32,60.26637739,,,,,,,,,,,,,,,,,,,,,,,,,3,31.9368,0,16,16,16,1,piquant,mellow,fish,pungent,cloth,3,,,,,,,,,,,,,,,,,,,,,,,,,,,,,,,,,,,,,,,,,,,,,,,,,,,,
,,,,,,,,,,,,,,,89688,001,2022-04-25_20h22.12.902,SPAMnetsValid,2021.1.4,Win32,60.26637739,,,,,,,,,,,,,,,,,,,,,,,,,3,3.3836,0,17,17,17,1,firmament,foundation,heavens,strong,glue,2,,,,,,,,,,,,,,,,,,,,,,,,,,,,,,,,,,,,,,,,,,,,,,,,,,,,
,,,,,,,,,,,,,,,89688,001,2022-04-25_20h22.12.902,SPAMnetsValid,2021.1.4,Win32,60.26637739,,,,,,,,,,,,,,,,,,,,,,,,,,,,,,,,,,,,,,3,6.6788,0,0,0,0,1,marketable,partisan,jocular,marriageable,salable,essential,4,,,,,,,,,,,,,,,,,,,,,,,,,,,,,,,,,,,,,,
,,,,,,,,,,,,,,,89688,001,2022-04-25_20h22.12.902,SPAMnetsValid,2021.1.4,Win32,60.26637739,,,,,,,,,,,,,,,,,,,,,,,,,,,,,,,,,,,,,,5,5.627,0,1,1,1,1,cottontail,squirrel,poplar,boa,marshy plant,rabbit,5,,,,,,,,,,,,,,,,,,,,,,,,,,,,,,,,,,,,,,
,,,,,,,,,,,,,,,89688,001,2022-04-25_20h22.12.902,SPAMnetsValid,2021.1.4,Win32,60.26637739,,,,,,,,,,,,,,,,,,,,,,,,,,,,,,,,,,,,,,4,6.1948,0,2,2,2,1,boggy,afraid,false,marshy,dense,black,3,,,,,,,,,,,,,,,,,,,,,,,,,,,,,,,,,,,,,,
,,,,,,,,,,,,,,,89688,001,2022-04-25_20h22.12.902,SPAMnetsValid,2021.1.4,Win32,60.26637739,,,,,,,,,,,,,,,,,,,,,,,,,,,,,,,,,,,,,,5,4.6698,0,3,3,3,1,gruesomeness,blackness,falseness,vindictiveness,drunkenness,ghastliness,5,,,,,,,,,,,,,,,,,,,,,,,,,,,,,,,,,,,,,,
,,,,,,,,,,,,,,,89688,001,2022-04-25_20h22.12.902,SPAMnetsValid,2021.1.4,Win32,60.26637739,,,,,,,,,,,,,,,,,,,,,,,,,,,,,,,,,,,,,,3,4.4166,0,4,4,4,1,loathing,diffidence,laziness,abhorrence,cleverness,comfort,3,,,,,,,,,,,,,,,,,,,,,,,,,,,,,,,,,,,,,,
,,,,,,,,,,,,,,,89688,001,2022-04-25_20h22.12.902,SPAMnetsValid,2021.1.4,Win32,60.26637739,,,,,,,,,,,,,,,,,,,,,,,,,,,,,,,,,,,,,,1,24.701,0,5,5,5,1,bantam,fowl,ridicule,cripple,vegetable,ensign,1,,,,,,,,,,,,,,,,,,,,,,,,,,,,,,,,,,,,,,
,,,,,,,,,,,,,,,89688,001,2022-04-25_20h22.12.902,SPAMnetsValid,2021.1.4,Win32,60.26637739,,,,,,,,,,,,,,,,,,,,,,,,,,,,,,,,,,,,,,1,15.6114,0,6,6,6,1,evoke,wake up,surrender,reconnoiter,transcend,call forth,5,,,,,,,,,,,,,,,,,,,,,,,,,,,,,,,,,,,,,,
,,,,,,,,,,,,,,,89688,001,2022-04-25_20h22.12.902,SPAMnetsValid,2021.1.4,Win32,60.26637739,,,,,,,,,,,,,,,,,,,,,,,,,,,,,,,,,,,,,,5,6.9854,0,7,7,7,1,unobtrusive,unintelligent,epileptic,illogical,lineal,modest,5,,,,,,,,,,,,,,,,,,,,,,,,,,,,,,,,,,,,,,
,,,,,,,,,,,,,,,89688,001,2022-04-25_20h22.12.902,SPAMnetsValid,2021.1.4,Win32,60.26637739,,,,,,,,,,,,,,,,,,,,,,,,,,,,,,,,,,,,,,4,5.1501,0,8,8,8,1,terrain,ice cream,final test,tractor,area of ground,weight,4,,,,,,,,,,,,,,,,,,,,,,,,,,,,,,,,,,,,,,
,,,,,,,,,,,,,,,89688,001,2022-04-25_20h22.12.902,SPAMnetsValid,2021.1.4,Win32,60.26637739,,,,,,,,,,,,,,,,,,,,,,,,,,,,,,,,,,,,,,3,31.7546,0,9,9,9,1,capriciousness,stubbornness,courage,whimsicality,amazement,greediness,3,,,,,,,,,,,,,,,,,,,,,,,,,,,,,,,,,,,,,,
,,,,,,,,,,,,,,,89688,001,2022-04-25_20h22.12.902,SPAMnetsValid,2021.1.4,Win32,60.26637739,,,,,,,,,,,,,,,,,,,,,,,,,,,,,,,,,,,,,,4,5.0448,0,10,10,10,1,maelstrom,slander,whirlpool,enmity,armor,majolica,2,,,,,,,,,,,,,,,,,,,,,,,,,,,,,,,,,,,,,,
,,,,,,,,,,,,,,,89688,001,2022-04-25_20h22.12.902,SPAMnetsValid,2021.1.4,Win32,60.26637739,,,,,,,,,,,,,,,,,,,,,,,,,,,,,,,,,,,,,,5,3.7264,0,11,11,11,1,tentative,critical,conclusive,authentic,provisional,apprehensive,4,,,,,,,,,,,,,,,,,,,,,,,,,,,,,,,,,,,,,,
,,,,,,,,,,,,,,,89688,001,2022-04-25_20h22.12.902,SPAMnetsValid,2021.1.4,Win32,60.26637739,,,,,,,,,,,,,,,,,,,,,,,,,,,,,,,,,,,,,,1,18.7584,0,12,12,12,1,placate,rehabilitate,plagiarize,depredate,apprise,conciliate,5,,,,,,,,,,,,,,,,,,,,,,,,,,,,,,,,,,,,,,
,,,,,,,,,,,,,,,89688,001,2022-04-25_20h22.12.902,SPAMnetsValid,2021.1.4,Win32,60.26637739,,,,,,,,,,,,,,,,,,,,,,,,,,,,,,,,,,,,,,2,18.6392,0,13,13,13,1,surcease,enlightenment,cessation,inattention,censor,substitution,2,,,,,,,,,,,,,,,,,,,,,,,,,,,,,,,,,,,,,,
,,,,,,,,,,,,,,,89688,001,2022-04-25_20h22.12.902,SPAMnetsValid,2021.1.4,Win32,60.26637739,,,,,,,,,,,,,,,,,,,,,,,,,,,,,,,,,,,,,,2,20.4586,0,14,14,14,1,apathetic,wandering,impassive,hateful,prophetic,overflowing,2,,,,,,,,,,,,,,,,,,,,,,,,,,,,,,,,,,,,,,
,,,,,,,,,,,,,,,89688,001,2022-04-25_20h22.12.902,SPAMnetsValid,2021.1.4,Win32,60.26637739,,,,,,,,,,,,,,,,,,,,,,,,,,,,,,,,,,,,,,4,17.1941,0,15,15,15,1,paternoster,paternalism,patricide,malediction,benediction,prayer,5,,,,,,,,,,,,,,,,,,,,,,,,,,,,,,,,,,,,,,
,,,,,,,,,,,,,,,89688,001,2022-04-25_20h22.12.902,SPAMnetsValid,2021.1.4,Win32,60.26637739,,,,,,,,,,,,,,,,,,,,,,,,,,,,,,,,,,,,,,4,3.785,0,16,16,16,1,opalescence,opulence,senescence,bankruptcy,iridescence,assiduity,4,,,,,,,,,,,,,,,,,,,,,,,,,,,,,,,,,,,,,,
,,,,,,,,,,,,,,,89688,001,2022-04-25_20h22.12.902,SPAMnetsValid,2021.1.4,Win32,60.26637739,,,,,,,,,,,,,,,,,,,,,,,,,,,,,,,,,,,,,,2,2.3416,0,17,17,17,1,lush,stupid,luxurious,hazy,putrid,languishing,2,,,,,,,,,,,,,,,,,,,,,,,,,,,,,,,,,,,,,,
,,,,,,,,,,,,,,,89688,001,2022-04-25_20h22.12.902,SPAMnetsValid,2021.1.4,Win32,60.26637739,,,,,,,,,,,,,,,,,,,,,,,,,,,,,,,,,,,,,,,,0,18,18,18,1,curtailment,expenditure,abandonment,abridgment,improvement,forgery,3,,,,,,,,,,,,,,,,,,,,,,,,,,,,,,,,,,,,,,
,,,,,,,,,,,,,,,89688,001,2022-04-25_20h22.12.902,SPAMnetsValid,2021.1.4,Win32,60.26637739,,,,,,,,,,,,,,,,,,,,,,,,,,,,,,,,,,,,,,,,,,,,,,,,,,,,"light, paperweight, carved sculpture, sex item, wax for envelopes",candle,0,0,0,0,1,,,,,,,,,,,,,,,,,,,,,,,,,,,,,,,
,,,,,,,,,,,,,,,89688,001,2022-04-25_20h22.12.902,SPAMnetsValid,2021.1.4,Win32,60.26637739,,,,,,,,,,,,,,,,,,,,,,,,,,,,,,,,,,,,,,,,,,,,,,,,,,,,,,,,,,,0,0,0,1,1,candle,,,,,,,,,,,,,,,,,,,,,,,,,
,,,,,,,,,,,,,,,89688,001,2022-04-25_20h22.12.902,SPAMnetsValid,2021.1.4,Win32,60.26637739,,,,,,,,,,,,,,,,,,,,,,,,,,,,,,,,,,,,,,,,,,,,,,,,,,,,hat,bucket,0,0,0,0,1,,,,,,,,,,,,,,,,,,,,,,,,,,,,,,,
,,,,,,,,,,,,,,,89688,001,2022-04-25_20h22.12.902,SPAMnetsValid,2021.1.4,Win32,60.26637739,,,,,,,,,,,,,,,,,,,,,,,,,,,,,,,,,,,,,,,,,,,,,,,,,,,,storage,bucket,1,0,1,0,1,,,,,,,,,,,,,,,,,,,,,,,,,,,,,,,
,,,,,,,,,,,,,,,89688,001,2022-04-25_20h22.12.902,SPAMnetsValid,2021.1.4,Win32,60.26637739,,,,,,,,,,,,,,,,,,,,,,,,,,,,,,,,,,,,,,,,,,,,,,,,,,,,musical instrument,bucket,2,0,2,0,1,,,,,,,,,,,,,,,,,,,,,,,,,,,,,,,
,,,,,,,,,,,,,,,89688,001,2022-04-25_20h22.12.902,SPAMnetsValid,2021.1.4,Win32,60.26637739,,,,,,,,,,,,,,,,,,,,,,,,,,,,,,,,,,,,,,,,,,,,,,,,,,,,utensil for cooking,bucket,3,0,3,0,1,,,,,,,,,,,,,,,,,,,,,,,,,,,,,,,
,,,,,,,,,,,,,,,89688,001,2022-04-25_20h22.12.902,SPAMnetsValid,2021.1.4,Win32,60.26637739,,,,,,,,,,,,,,,,,,,,,,,,,,,,,,,,,,,,,,,,,,,,,,,,,,,,cut holes in it and put it over a light for weird lighting/ decoration,bucket,4,0,4,0,1,,,,,,,,,,,,,,,,,,,,,,,,,,,,,,,
,,,,,,,,,,,,,,,89688,001,2022-04-25_20h22.12.902,SPAMnetsValid,2021.1.4,Win32,60.26637739,,,,,,,,,,,,,,,,,,,,,,,,,,,,,,,,,,,,,,,,,,,,,,,,,,,,,,,,,,,0,1,1,0,1,bucket,,,,,,,,,,,,,,,,,,,,,,,,,
,,,,,,,,,,,,,,,89688,001,2022-04-25_20h22.12.902,SPAMnetsValid,2021.1.4,Win32,60.26637739,,,,,,,,,,,,,,,,,,,,,,,,,,,,,,,,,,,,,,,,,,,,,,,,,,,,harness the feathers for crafts,pillow,0,0,0,0,1,,,,,,,,,,,,,,,,,,,,,,,,,,,,,,,
,,,,,,,,,,,,,,,89688,001,2022-04-25_20h22.12.902,SPAMnetsValid,2021.1.4,Win32,60.26637739,,,,,,,,,,,,,,,,,,,,,,,,,,,,,,,,,,,,,,,,,,,,,,,,,,,,use the case for a costume,pillow,1,0,1,0,1,,,,,,,,,,,,,,,,,,,,,,,,,,,,,,,
,,,,,,,,,,,,,,,89688,001,2022-04-25_20h22.12.902,SPAMnetsValid,2021.1.4,Win32,60.26637739,,,,,,,,,,,,,,,,,,,,,,,,,,,,,,,,,,,,,,,,,,,,,,,,,,,,for sleeping on,pillow,2,0,2,0,1,,,,,,,,,,,,,,,,,,,,,,,,,,,,,,,
,,,,,,,,,,,,,,,89688,001,2022-04-25_20h22.12.902,SPAMnetsValid,2021.1.4,Win32,60.26637739,,,,,,,,,,,,,,,,,,,,,,,,,,,,,,,,,,,,,,,,,,,,,,,,,,,,a weapon for hitting someone,pillow,3,0,3,0,1,,,,,,,,,,,,,,,,,,,,,,,,,,,,,,,
,,,,,,,,,,,,,,,89688,001,2022-04-25_20h22.12.902,SPAMnetsValid,2021.1.4,Win32,60.26637739,,,,,,,,,,,,,,,,,,,,,,,,,,,,,,,,,,,,,,,,,,,,,,,,,,,,,,,,,,,0,2,2,2,1,pillow,,,,,,,,,,,,,,,,,,,,,,,,,
,,,,,,,,,,,,,,,89688,001,2022-04-25_20h22.12.902,SPAMnetsValid,2021.1.4,Win32,60.26637739,,,,,,,,,,,,,,,,,,,,,,,,,,,,,,,,,,,,,,,,,,,,,,,,,,,,,,,,,,,,,,,,,elephant,Animals,0,0,0,0,1,,,,,,,,,,,,,,,,,,
,,,,,,,,,,,,,,,89688,001,2022-04-25_20h22.12.902,SPAMnetsValid,2021.1.4,Win32,60.26637739,,,,,,,,,,,,,,,,,,,,,,,,,,,,,,,,,,,,,,,,,,,,,,,,,,,,,,,,,,,,,,,,,capybara,Animals,1,0,1,0,1,,,,,,,,,,,,,,,,,,
,,,,,,,,,,,,,,,89688,001,2022-04-25_20h22.12.902,SPAMnetsValid,2021.1.4,Win32,60.26637739,,,,,,,,,,,,,,,,,,,,,,,,,,,,,,,,,,,,,,,,,,,,,,,,,,,,,,,,,,,,,,,,,penguin,Animals,2,0,2,0,1,,,,,,,,,,,,,,,,,,
,,,,,,,,,,,,,,,89688,001,2022-04-25_20h22.12.902,SPAMnetsValid,2021.1.4,Win32,60.26637739,,,,,,,,,,,,,,,,,,,,,,,,,,,,,,,,,,,,,,,,,,,,,,,,,,,,,,,,,,,,,,,,,cat,Animals,3,0,3,0,1,,,,,,,,,,,,,,,,,,
,,,,,,,,,,,,,,,89688,001,2022-04-25_20h22.12.902,SPAMnetsValid,2021.1.4,Win32,60.26637739,,,,,,,,,,,,,,,,,,,,,,,,,,,,,,,,,,,,,,,,,,,,,,,,,,,,,,,,,,,,,,,,,dog,Animals,4,0,4,0,1,,,,,,,,,,,,,,,,,,
,,,,,,,,,,,,,,,89688,001,2022-04-25_20h22.12.902,SPAMnetsValid,2021.1.4,Win32,60.26637739,,,,,,,,,,,,,,,,,,,,,,,,,,,,,,,,,,,,,,,,,,,,,,,,,,,,,,,,,,,,,,,,,wolf,Animals,5,0,5,0,1,,,,,,,,,,,,,,,,,,
,,,,,,,,,,,,,,,89688,001,2022-04-25_20h22.12.902,SPAMnetsValid,2021.1.4,Win32,60.26637739,,,,,,,,,,,,,,,,,,,,,,,,,,,,,,,,,,,,,,,,,,,,,,,,,,,,,,,,,,,,,,,,,bird,Animals,6,0,6,0,1,,,,,,,,,,,,,,,,,,
,,,,,,,,,,,,,,,89688,001,2022-04-25_20h22.12.902,SPAMnetsValid,2021.1.4,Win32,60.26637739,,,,,,,,,,,,,,,,,,,,,,,,,,,,,,,,,,,,,,,,,,,,,,,,,,,,,,,,,,,,,,,,,reptiles,Animals,7,0,7,0,1,,,,,,,,,,,,,,,,,,
,,,,,,,,,,,,,,,89688,001,2022-04-25_20h22.12.902,SPAMnetsValid,2021.1.4,Win32,60.26637739,,,,,,,,,,,,,,,,,,,,,,,,,,,,,,,,,,,,,,,,,,,,,,,,,,,,,,,,,,,,,,,,,amphibians,Animals,8,0,8,0,1,,,,,,,,,,,,,,,,,,
,,,,,,,,,,,,,,,89688,001,2022-04-25_20h22.12.902,SPAMnetsValid,2021.1.4,Win32,60.26637739,,,,,,,,,,,,,,,,,,,,,,,,,,,,,,,,,,,,,,,,,,,,,,,,,,,,,,,,,,,,,,,,,rhinos,Animals,9,0,9,0,1,,,,,,,,,,,,,,,,,,
,,,,,,,,,,,,,,,89688,001,2022-04-25_20h22.12.902,SPAMnetsValid,2021.1.4,Win32,60.26637739,,,,,,,,,,,,,,,,,,,,,,,,,,,,,,,,,,,,,,,,,,,,,,,,,,,,,,,,,,,,,,,,,lions,Animals,10,0,10,0,1,,,,,,,,,,,,,,,,,,
,,,,,,,,,,,,,,,89688,001,2022-04-25_20h22.12.902,SPAMnetsValid,2021.1.4,Win32,60.26637739,,,,,,,,,,,,,,,,,,,,,,,,,,,,,,,,,,,,,,,,,,,,,,,,,,,,,,,,,,,,,,,,,panthers,Animals,11,0,11,0,1,,,,,,,,,,,,,,,,,,
,,,,,,,,,,,,,,,89688,001,2022-04-25_20h22.12.902,SPAMnetsValid,2021.1.4,Win32,60.26637739,,,,,,,,,,,,,,,,,,,,,,,,,,,,,,,,,,,,,,,,,,,,,,,,,,,,,,,,,,,,,,,,,jaguars,Animals,12,0,12,0,1,,,,,,,,,,,,,,,,,,
,,,,,,,,,,,,,,,89688,001,2022-04-25_20h22.12.902,SPAMnetsValid,2021.1.4,Win32,60.26637739,,,,,,,,,,,,,,,,,,,,,,,,,,,,,,,,,,,,,,,,,,,,,,,,,,,,,,,,,,,,,,,,,chettahs,Animals,13,0,13,0,1,,,,,,,,,,,,,,,,,,
,,,,,,,,,,,,,,,89688,001,2022-04-25_20h22.12.902,SPAMnetsValid,2021.1.4,Win32,60.26637739,,,,,,,,,,,,,,,,,,,,,,,,,,,,,,,,,,,,,,,,,,,,,,,,,,,,,,,,,,,,,,,,,antilope,Animals,14,0,14,0,1,,,,,,,,,,,,,,,,,,
,,,,,,,,,,,,,,,89688,001,2022-04-25_20h22.12.902,SPAMnetsValid,2021.1.4,Win32,60.26637739,,,,,,,,,,,,,,,,,,,,,,,,,,,,,,,,,,,,,,,,,,,,,,,,,,,,,,,,,,,,,,,,,frogs,Animals,15,0,15,0,1,,,,,,,,,,,,,,,,,,
,,,,,,,,,,,,,,,89688,001,2022-04-25_20h22.12.902,SPAMnetsValid,2021.1.4,Win32,60.26637739,,,,,,,,,,,,,,,,,,,,,,,,,,,,,,,,,,,,,,,,,,,,,,,,,,,,,,,,,,,,,,,,,flamingos,Animals,16,0,16,0,1,,,,,,,,,,,,,,,,,,
,,,,,,,,,,,,,,,89688,001,2022-04-25_20h22.12.902,SPAMnetsValid,2021.1.4,Win32,60.26637739,,,,,,,,,,,,,,,,,,,,,,,,,,,,,,,,,,,,,,,,,,,,,,,,,,,,,,,,,,,,,,,,,hippos,Animals,17,0,17,0,1,,,,,,,,,,,,,,,,,,
,,,,,,,,,,,,,,,89688,001,2022-04-25_20h22.12.902,SPAMnetsValid,2021.1.4,Win32,60.26637739,,,,,,,,,,,,,,,,,,,,,,,,,,,,,,,,,,,,,,,,,,,,,,,,,,,,,,,,,,,,,,,,,apes,Animals,18,0,18,0,1,,,,,,,,,,,,,,,,,,
,,,,,,,,,,,,,,,89688,001,2022-04-25_20h22.12.902,SPAMnetsValid,2021.1.4,Win32,60.26637739,,,,,,,,,,,,,,,,,,,,,,,,,,,,,,,,,,,,,,,,,,,,,,,,,,,,,,,,,,,,,,,,,lemurs,Animals,19,0,19,0,1,,,,,,,,,,,,,,,,,,
,,,,,,,,,,,,,,,89688,001,2022-04-25_20h22.12.902,SPAMnetsValid,2021.1.4,Win32,60.26637739,,,,,,,,,,,,,,,,,,,,,,,,,,,,,,,,,,,,,,,,,,,,,,,,,,,,,,,,,,,,,,,,,chimpanzees,Animals,20,0,20,0,1,,,,,,,,,,,,,,,,,,
,,,,,,,,,,,,,,,89688,001,2022-04-25_20h22.12.902,SPAMnetsValid,2021.1.4,Win32,60.26637739,,,,,,,,,,,,,,,,,,,,,,,,,,,,,,,,,,,,,,,,,,,,,,,,,,,,,,,,,,,,,,,,,foxes,Animals,21,0,21,0,1,,,,,,,,,,,,,,,,,,
,,,,,,,,,,,,,,,89688,001,2022-04-25_20h22.12.902,SPAMnetsValid,2021.1.4,Win32,60.26637739,,,,,,,,,,,,,,,,,,,,,,,,,,,,,,,,,,,,,,,,,,,,,,,,,,,,,,,,,,,,,,,,,hyenas,Animals,22,0,22,0,1,,,,,,,,,,,,,,,,,,
,,,,,,,,,,,,,,,89688,001,2022-04-25_20h22.12.902,SPAMnetsValid,2021.1.4,Win32,60.26637739,,,,,,,,,,,,,,,,,,,,,,,,,,,,,,,,,,,,,,,,,,,,,,,,,,,,,,,,,,,,,,,,,pandas,Animals,23,0,23,0,1,,,,,,,,,,,,,,,,,,
,,,,,,,,,,,,,,,89688,001,2022-04-25_20h22.12.902,SPAMnetsValid,2021.1.4,Win32,60.26637739,,,,,,,,,,,,,,,,,,,,,,,,,,,,,,,,,,,,,,,,,,,,,,,,,,,,,,,,,,,,,,,,,deer,Animals,24,0,24,0,1,,,,,,,,,,,,,,,,,,
,,,,,,,,,,,,,,,89688,001,2022-04-25_20h22.12.902,SPAMnetsValid,2021.1.4,Win32,60.26637739,,,,,,,,,,,,,,,,,,,,,,,,,,,,,,,,,,,,,,,,,,,,,,,,,,,,,,,,,,,,,,,,,racoons,Animals,25,0,25,0,1,,,,,,,,,,,,,,,,,,
,,,,,,,,,,,,,,,89688,001,2022-04-25_20h22.12.902,SPAMnetsValid,2021.1.4,Win32,60.26637739,,,,,,,,,,,,,,,,,,,,,,,,,,,,,,,,,,,,,,,,,,,,,,,,,,,,,,,,,,,,,,,,,possums,Animals,26,0,26,0,1,,,,,,,,,,,,,,,,,,
,,,,,,,,,,,,,,,89688,001,2022-04-25_20h22.12.902,SPAMnetsValid,2021.1.4,Win32,60.26637739,,,,,,,,,,,,,,,,,,,,,,,,,,,,,,,,,,,,,,,,,,,,,,,,,,,,,,,,,,,,,,,,,,,,,,,,0,0,0,0,1,Animals,,,,,,,,,,,,
,,,,,,,,,,,,,,,89688,001,2022-04-25_20h22.12.902,SPAMnetsValid,2021.1.4,Win32,60.26637739,,,,,,,,,,,,,,,,,,,,,,,,,,,,,,,,,,,,,,,,,,,,,,,,,,,,,,,,,,,,,,,,,,,,,,,,,,,,,,5,4.6081,0,0,0,0,1,"I enjoy concentrating on a fantasy or daydream and exploring all its possibilities, letting it grow and develop.",0,1,,
,,,,,,,,,,,,,,,89688,001,2022-04-25_20h22.12.902,SPAMnetsValid,2021.1.4,Win32,60.26637739,,,,,,,,,,,,,,,,,,,,,,,,,,,,,,,,,,,,,,,,,,,,,,,,,,,,,,,,,,,,,,,,,,,,,,,,,,,,,,4,2.557,0,1,1,1,1,I think it's interesting to learn and develop new hobbies.,0,2,,
,,,,,,,,,,,,,,,89688,001,2022-04-25_20h22.12.902,SPAMnetsValid,2021.1.4,Win32,60.26637739,,,,,,,,,,,,,,,,,,,,,,,,,,,,,,,,,,,,,,,,,,,,,,,,,,,,,,,,,,,,,,,,,,,,,,,,,,,,,,4,2.2118,0,2,2,2,1,I am intrigued by the patterns I find in art and nature.,0,3,,
,,,,,,,,,,,,,,,89688,001,2022-04-25_20h22.12.902,SPAMnetsValid,2021.1.4,Win32,60.26637739,,,,,,,,,,,,,,,,,,,,,,,,,,,,,,,,,,,,,,,,,,,,,,,,,,,,,,,,,,,,,,,,,,,,,,,,,,,,,,3,10.382,0,3,3,3,1,I believe letting students hear controversial speakers can only confuse and mislead them.,1,4,,
,,,,,,,,,,,,,,,89688,001,2022-04-25_20h22.12.902,SPAMnetsValid,2021.1.4,Win32,60.26637739,,,,,,,,,,,,,,,,,,,,,,,,,,,,,,,,,,,,,,,,,,,,,,,,,,,,,,,,,,,,,,,,,,,,,,,,,,,,,,2,3.0527,0,4,4,4,1,Poetry has little or no effect on me.,1,5,,
,,,,,,,,,,,,,,,89688,001,2022-04-25_20h22.12.902,SPAMnetsValid,2021.1.4,Win32,60.26637739,,,,,,,,,,,,,,,,,,,,,,,,,,,,,,,,,,,,,,,,,,,,,,,,,,,,,,,,,,,,,,,,,,,,,,,,,,,,,,1,7.2559,0,5,5,5,1,I would have difficulty just letting my mind wander without control or guidance.,1,6,,
,,,,,,,,,,,,,,,89688,001,2022-04-25_20h22.12.902,SPAMnetsValid,2021.1.4,Win32,60.26637739,,,,,,,,,,,,,,,,,,,,,,,,,,,,,,,,,,,,,,,,,,,,,,,,,,,,,,,,,,,,,,,,,,,,,,,,,,,,,,2,25.8552,0,6,6,6,1,I seldom notice the moods or feelings that different environments produce.,1,7,,
,,,,,,,,,,,,,,,89688,001,2022-04-25_20h22.12.902,SPAMnetsValid,2021.1.4,Win32,60.26637739,,,,,,,,,,,,,,,,,,,,,,,,,,,,,,,,,,,,,,,,,,,,,,,,,,,,,,,,,,,,,,,,,,,,,,,,,,,,,,4,2.6775,0,7,7,7,1,I experience a wide range of emotions or feelings.,0,8,,
,,,,,,,,,,,,,,,89688,001,2022-04-25_20h22.12.902,SPAMnetsValid,2021.1.4,Win32,60.26637739,,,,,,,,,,,,,,,,,,,,,,,,,,,,,,,,,,,,,,,,,,,,,,,,,,,,,,,,,,,,,,,,,,,,,,,,,,,,,,4,4.9778,0,8,8,8,1,"Sometimes when I am reading poetry or looking at a work of art, I feel a chill or wave of excitement.",0,9,,
,,,,,,,,,,,,,,,89688,001,2022-04-25_20h22.12.902,SPAMnetsValid,2021.1.4,Win32,60.26637739,,,,,,,,,,,,,,,,,,,,,,,,,,,,,,,,,,,,,,,,,,,,,,,,,,,,,,,,,,,,,,,,,,,,,,,,,,,,,,4,4.1633,0,9,9,9,1,I have little interest in speculating on the nature of the universe or the human condition.,1,10,,
,,,,,,,,,,,,,,,89688,001,2022-04-25_20h22.12.902,SPAMnetsValid,2021.1.4,Win32,60.26637739,,,,,,,,,,,,,,,,,,,,,,,,,,,,,,,,,,,,,,,,,,,,,,,,,,,,,,,,,,,,,,,,,,,,,,,,,,,,,,4,3.4811,0,10,10,10,1,I have a lot of intellectual curiosity.,0,11,,
,,,,,,,,,,,,,,,89688,001,2022-04-25_20h22.12.902,SPAMnetsValid,2021.1.4,Win32,60.26637739,,,,,,,,,,,,,,,,,,,,,,,,,,,,,,,,,,,,,,,,,,,,,,,,,,,,,,,,,,,,,,,,,,,,,,,,,,,,,,3,4.1585,0,11,11,11,1,I often enjoy playing with theories or abstract ideas.,0,12,,
,,,,,,,,,,,,,,,89688,001,2022-04-25_20h22.12.902,SPAMnetsValid,2021.1.4,Win32,60.26637739,,,,,,,,,,,,,,,,,,,,,,,,,,,,,,,,,,,,,,,,,,,,,,,,,,,,,,,,,,,,,,,,,,,,,,,,,,,,,,,,,,,,,,,,return,7.4577
