key_resp_3.keys,key_resp_3.rt,slider.response,slider.rt,rjt_rating,rjt_RT,trials_22.thisRepN,trials_22.thisTrialN,trials_22.thisN,trials_22.thisIndex,trials_22.ran,rjt_order,word1,word2,attention,participant,session,date,expName,psychopyVersion,OS,frameRate,trials_99.thisRepN,trials_99.thisTrialN,trials_99.thisN,trials_99.thisIndex,trials_99.ran,trials_5.thisRepN,trials_5.thisTrialN,trials_5.thisN,trials_5.thisIndex,trials_5.ran,repOne,repTwo,slider_2.response,slider_2.rt,trials_24.thisRepN,trials_24.thisTrialN,trials_24.thisN,trials_24.thisIndex,trials_24.ran,trials_4.thisRepN,trials_4.thisTrialN,trials_4.thisN,trials_4.thisIndex,trials_4.ran,slider_extend_2.response,slider_extend_2.rt,trials_6.thisRepN,trials_6.thisTrialN,trials_6.thisN,trials_6.thisIndex,trials_6.ran,vCue2,R1,R2,R3,R4,correct,sliderVocab.response,sliderVocab.rt,trials_7.thisRepN,trials_7.thisTrialN,trials_7.thisN,trials_7.thisIndex,trials_7.ran,VocabCue,VR1,VR2,VR3,VR4,VR5,VocabCorrect,AUT_resp,AUT_label,trials.thisRepN,trials.thisTrialN,trials.thisN,trials.thisIndex,trials.ran,trials_2.thisRepN,trials_2.thisTrialN,trials_2.thisN,trials_2.thisIndex,trials_2.ran,aut_prompt,VF_response,VF_tag,trials_16.thisRepN,trials_16.thisTrialN,trials_16.thisN,trials_16.thisIndex,trials_16.ran,trials_17.thisRepN,trials_17.thisTrialN,trials_17.thisN,trials_17.thisIndex,trials_17.ran,VFcond,open_slider.response,open_slider.rt,trials_3.thisRepN,trials_3.thisTrialN,trials_3.thisN,trials_3.thisIndex,trials_3.ran,OpenQ,Rev,OPEN_ORDER,key_resp_2.keys,key_resp_2.rt
return,11.7154,2,3.0638,2,3.0638,0,0,0,55,1,1,rose,yogurt,,89699,001,2022-04-29_15h36.45.856,SPAMnetsValid,2021.1.4,Win32,59.86590038,,,,,,,,,,,,,,,,,,,,,,,,,,,,,,,,,,,,,,,,,,,,,,,,,,,,,,,,,,,,,,,,,,,,,,,,,,,,,,,,,,,,,,,,,
,,2,3.7237,2,3.7237,0,1,1,40,1,74,broom,pretzel,,89699,001,2022-04-29_15h36.45.856,SPAMnetsValid,2021.1.4,Win32,59.86590038,,,,,,,,,,,,,,,,,,,,,,,,,,,,,,,,,,,,,,,,,,,,,,,,,,,,,,,,,,,,,,,,,,,,,,,,,,,,,,,,,,,,,,,,,
,,6,3.188,6,3.188,0,2,2,50,1,81,pretzel,yogurt,,89699,001,2022-04-29_15h36.45.856,SPAMnetsValid,2021.1.4,Win32,59.86590038,,,,,,,,,,,,,,,,,,,,,,,,,,,,,,,,,,,,,,,,,,,,,,,,,,,,,,,,,,,,,,,,,,,,,,,,,,,,,,,,,,,,,,,,,
,,9,1.6626,9,1.6626,0,3,3,10,1,191,cake,cake,CHECK,89699,001,2022-04-29_15h36.45.856,SPAMnetsValid,2021.1.4,Win32,59.86590038,,,,,,,,,,,,,,,,,,,,,,,,,,,,,,,,,,,,,,,,,,,,,,,,,,,,,,,,,,,,,,,,,,,,,,,,,,,,,,,,,,,,,,,,,
,,2,5.4534,2,5.4534,0,4,4,23,1,65,broom,garden,,89699,001,2022-04-29_15h36.45.856,SPAMnetsValid,2021.1.4,Win32,59.86590038,,,,,,,,,,,,,,,,,,,,,,,,,,,,,,,,,,,,,,,,,,,,,,,,,,,,,,,,,,,,,,,,,,,,,,,,,,,,,,,,,,,,,,,,,
,,2,2.5419,2,2.5419,0,5,5,89,1,80,chocolate,tree,,89699,001,2022-04-29_15h36.45.856,SPAMnetsValid,2021.1.4,Win32,59.86590038,,,,,,,,,,,,,,,,,,,,,,,,,,,,,,,,,,,,,,,,,,,,,,,,,,,,,,,,,,,,,,,,,,,,,,,,,,,,,,,,,,,,,,,,,
,,2,2.1444,2,2.1444,0,6,6,81,1,60,cactus,onion,,89699,001,2022-04-29_15h36.45.856,SPAMnetsValid,2021.1.4,Win32,59.86590038,,,,,,,,,,,,,,,,,,,,,,,,,,,,,,,,,,,,,,,,,,,,,,,,,,,,,,,,,,,,,,,,,,,,,,,,,,,,,,,,,,,,,,,,,
,,8,3.2539,8,3.2539,0,7,7,44,1,25,carrot,onion,,89699,001,2022-04-29_15h36.45.856,SPAMnetsValid,2021.1.4,Win32,59.86590038,,,,,,,,,,,,,,,,,,,,,,,,,,,,,,,,,,,,,,,,,,,,,,,,,,,,,,,,,,,,,,,,,,,,,,,,,,,,,,,,,,,,,,,,,
,,6,1.6692,6,1.6692,0,8,8,49,1,57,flower,kitchen,,89699,001,2022-04-29_15h36.45.856,SPAMnetsValid,2021.1.4,Win32,59.86590038,,,,,,,,,,,,,,,,,,,,,,,,,,,,,,,,,,,,,,,,,,,,,,,,,,,,,,,,,,,,,,,,,,,,,,,,,,,,,,,,,,,,,,,,,
,,2,3.9697,2,3.9697,0,9,9,70,1,5,oven,tree,,89699,001,2022-04-29_15h36.45.856,SPAMnetsValid,2021.1.4,Win32,59.86590038,,,,,,,,,,,,,,,,,,,,,,,,,,,,,,,,,,,,,,,,,,,,,,,,,,,,,,,,,,,,,,,,,,,,,,,,,,,,,,,,,,,,,,,,,
,,7,2.1196,7,2.1196,0,10,10,39,1,15,onion,oven,,89699,001,2022-04-29_15h36.45.856,SPAMnetsValid,2021.1.4,Win32,59.86590038,,,,,,,,,,,,,,,,,,,,,,,,,,,,,,,,,,,,,,,,,,,,,,,,,,,,,,,,,,,,,,,,,,,,,,,,,,,,,,,,,,,,,,,,,
,,8,2.1525,8,2.1525,0,11,11,19,1,76,garden,rose,,89699,001,2022-04-29_15h36.45.856,SPAMnetsValid,2021.1.4,Win32,59.86590038,,,,,,,,,,,,,,,,,,,,,,,,,,,,,,,,,,,,,,,,,,,,,,,,,,,,,,,,,,,,,,,,,,,,,,,,,,,,,,,,,,,,,,,,,
,,4,6.4235,4,6.4235,0,12,12,41,1,19,microwave,pretzel,,89699,001,2022-04-29_15h36.45.856,SPAMnetsValid,2021.1.4,Win32,59.86590038,,,,,,,,,,,,,,,,,,,,,,,,,,,,,,,,,,,,,,,,,,,,,,,,,,,,,,,,,,,,,,,,,,,,,,,,,,,,,,,,,,,,,,,,,
,,2,3.0297,2,3.0297,0,13,13,14,1,64,chocolate,garden,,89699,001,2022-04-29_15h36.45.856,SPAMnetsValid,2021.1.4,Win32,59.86590038,,,,,,,,,,,,,,,,,,,,,,,,,,,,,,,,,,,,,,,,,,,,,,,,,,,,,,,,,,,,,,,,,,,,,,,,,,,,,,,,,,,,,,,,,
,,6,1.9547,6,1.9547,0,14,14,9,1,75,cookie,onion,,89699,001,2022-04-29_15h36.45.856,SPAMnetsValid,2021.1.4,Win32,59.86590038,,,,,,,,,,,,,,,,,,,,,,,,,,,,,,,,,,,,,,,,,,,,,,,,,,,,,,,,,,,,,,,,,,,,,,,,,,,,,,,,,,,,,,,,,
,,7,2.7286,7,2.7286,0,15,15,66,1,20,rose,tree,,89699,001,2022-04-29_15h36.45.856,SPAMnetsValid,2021.1.4,Win32,59.86590038,,,,,,,,,,,,,,,,,,,,,,,,,,,,,,,,,,,,,,,,,,,,,,,,,,,,,,,,,,,,,,,,,,,,,,,,,,,,,,,,,,,,,,,,,
,,7,1.8393,7,1.8393,0,16,16,92,1,44,cookie,melon,,89699,001,2022-04-29_15h36.45.856,SPAMnetsValid,2021.1.4,Win32,59.86590038,,,,,,,,,,,,,,,,,,,,,,,,,,,,,,,,,,,,,,,,,,,,,,,,,,,,,,,,,,,,,,,,,,,,,,,,,,,,,,,,,,,,,,,,,
,,4,4.2394,4,4.2394,0,17,17,72,1,59,rose,strawberry,,89699,001,2022-04-29_15h36.45.856,SPAMnetsValid,2021.1.4,Win32,59.86590038,,,,,,,,,,,,,,,,,,,,,,,,,,,,,,,,,,,,,,,,,,,,,,,,,,,,,,,,,,,,,,,,,,,,,,,,,,,,,,,,,,,,,,,,,
,,2,3.1233,2,3.1233,0,18,18,47,1,73,broom,chocolate,,89699,001,2022-04-29_15h36.45.856,SPAMnetsValid,2021.1.4,Win32,59.86590038,,,,,,,,,,,,,,,,,,,,,,,,,,,,,,,,,,,,,,,,,,,,,,,,,,,,,,,,,,,,,,,,,,,,,,,,,,,,,,,,,,,,,,,,,
,,6,1.7102,6,1.7102,0,19,19,80,1,61,strawberry,tomato,,89699,001,2022-04-29_15h36.45.856,SPAMnetsValid,2021.1.4,Win32,59.86590038,,,,,,,,,,,,,,,,,,,,,,,,,,,,,,,,,,,,,,,,,,,,,,,,,,,,,,,,,,,,,,,,,,,,,,,,,,,,,,,,,,,,,,,,,
,,4,1.8126,4,1.8126,0,20,20,84,1,91,microwave,rose,,89699,001,2022-04-29_15h36.45.856,SPAMnetsValid,2021.1.4,Win32,59.86590038,,,,,,,,,,,,,,,,,,,,,,,,,,,,,,,,,,,,,,,,,,,,,,,,,,,,,,,,,,,,,,,,,,,,,,,,,,,,,,,,,,,,,,,,,
,,8,4.811,8,4.811,0,21,21,30,1,3,cake,oven,,89699,001,2022-04-29_15h36.45.856,SPAMnetsValid,2021.1.4,Win32,59.86590038,,,,,,,,,,,,,,,,,,,,,,,,,,,,,,,,,,,,,,,,,,,,,,,,,,,,,,,,,,,,,,,,,,,,,,,,,,,,,,,,,,,,,,,,,
,,6,2.9193,6,2.9193,0,22,22,54,1,28,cake,melon,,89699,001,2022-04-29_15h36.45.856,SPAMnetsValid,2021.1.4,Win32,59.86590038,,,,,,,,,,,,,,,,,,,,,,,,,,,,,,,,,,,,,,,,,,,,,,,,,,,,,,,,,,,,,,,,,,,,,,,,,,,,,,,,,,,,,,,,,
,,7,2.1241,7,2.1241,0,23,23,62,1,18,onion,refrigerator,,89699,001,2022-04-29_15h36.45.856,SPAMnetsValid,2021.1.4,Win32,59.86590038,,,,,,,,,,,,,,,,,,,,,,,,,,,,,,,,,,,,,,,,,,,,,,,,,,,,,,,,,,,,,,,,,,,,,,,,,,,,,,,,,,,,,,,,,
,,4,3.3706,4,3.3706,0,24,24,45,1,10,flower,onion,,89699,001,2022-04-29_15h36.45.856,SPAMnetsValid,2021.1.4,Win32,59.86590038,,,,,,,,,,,,,,,,,,,,,,,,,,,,,,,,,,,,,,,,,,,,,,,,,,,,,,,,,,,,,,,,,,,,,,,,,,,,,,,,,,,,,,,,,
,,6,1.2775,6,1.2775,0,25,25,95,1,52,carrot,tomato,,89699,001,2022-04-29_15h36.45.856,SPAMnetsValid,2021.1.4,Win32,59.86590038,,,,,,,,,,,,,,,,,,,,,,,,,,,,,,,,,,,,,,,,,,,,,,,,,,,,,,,,,,,,,,,,,,,,,,,,,,,,,,,,,,,,,,,,,
,,4,2.2935,4,2.2935,0,26,26,26,1,35,flower,pretzel,,89699,001,2022-04-29_15h36.45.856,SPAMnetsValid,2021.1.4,Win32,59.86590038,,,,,,,,,,,,,,,,,,,,,,,,,,,,,,,,,,,,,,,,,,,,,,,,,,,,,,,,,,,,,,,,,,,,,,,,,,,,,,,,,,,,,,,,,
,,6,1.9868,6,1.9868,0,27,27,33,1,32,cake,microwave,,89699,001,2022-04-29_15h36.45.856,SPAMnetsValid,2021.1.4,Win32,59.86590038,,,,,,,,,,,,,,,,,,,,,,,,,,,,,,,,,,,,,,,,,,,,,,,,,,,,,,,,,,,,,,,,,,,,,,,,,,,,,,,,,,,,,,,,,
,,8,1.6249,8,1.6249,0,28,28,82,1,93,kitchen,oven,,89699,001,2022-04-29_15h36.45.856,SPAMnetsValid,2021.1.4,Win32,59.86590038,,,,,,,,,,,,,,,,,,,,,,,,,,,,,,,,,,,,,,,,,,,,,,,,,,,,,,,,,,,,,,,,,,,,,,,,,,,,,,,,,,,,,,,,,
,,3,2.0391,3,2.0391,0,29,29,35,1,55,tomato,tree,,89699,001,2022-04-29_15h36.45.856,SPAMnetsValid,2021.1.4,Win32,59.86590038,,,,,,,,,,,,,,,,,,,,,,,,,,,,,,,,,,,,,,,,,,,,,,,,,,,,,,,,,,,,,,,,,,,,,,,,,,,,,,,,,,,,,,,,,
,,3,2.2134,3,2.2134,0,30,30,22,1,16,chocolate,flower,,89699,001,2022-04-29_15h36.45.856,SPAMnetsValid,2021.1.4,Win32,59.86590038,,,,,,,,,,,,,,,,,,,,,,,,,,,,,,,,,,,,,,,,,,,,,,,,,,,,,,,,,,,,,,,,,,,,,,,,,,,,,,,,,,,,,,,,,
,,6,1.6444,6,1.6444,0,31,31,6,1,87,carrot,yogurt,,89699,001,2022-04-29_15h36.45.856,SPAMnetsValid,2021.1.4,Win32,59.86590038,,,,,,,,,,,,,,,,,,,,,,,,,,,,,,,,,,,,,,,,,,,,,,,,,,,,,,,,,,,,,,,,,,,,,,,,,,,,,,,,,,,,,,,,,
,,3,2.1472,3,2.1472,0,32,32,60,1,89,chocolate,rose,,89699,001,2022-04-29_15h36.45.856,SPAMnetsValid,2021.1.4,Win32,59.86590038,,,,,,,,,,,,,,,,,,,,,,,,,,,,,,,,,,,,,,,,,,,,,,,,,,,,,,,,,,,,,,,,,,,,,,,,,,,,,,,,,,,,,,,,,
,,2,1.7743,2,1.7743,0,33,33,37,1,58,garden,oven,,89699,001,2022-04-29_15h36.45.856,SPAMnetsValid,2021.1.4,Win32,59.86590038,,,,,,,,,,,,,,,,,,,,,,,,,,,,,,,,,,,,,,,,,,,,,,,,,,,,,,,,,,,,,,,,,,,,,,,,,,,,,,,,,,,,,,,,,
,,2,3.5733,2,3.5733,0,34,34,7,1,34,melon,oven,,89699,001,2022-04-29_15h36.45.856,SPAMnetsValid,2021.1.4,Win32,59.86590038,,,,,,,,,,,,,,,,,,,,,,,,,,,,,,,,,,,,,,,,,,,,,,,,,,,,,,,,,,,,,,,,,,,,,,,,,,,,,,,,,,,,,,,,,
,,6,1.9917,6,1.9917,0,35,35,51,1,47,onion,tomato,,89699,001,2022-04-29_15h36.45.856,SPAMnetsValid,2021.1.4,Win32,59.86590038,,,,,,,,,,,,,,,,,,,,,,,,,,,,,,,,,,,,,,,,,,,,,,,,,,,,,,,,,,,,,,,,,,,,,,,,,,,,,,,,,,,,,,,,,
,,4,3.0302,4,3.0302,0,36,36,12,1,67,flower,yogurt,,89699,001,2022-04-29_15h36.45.856,SPAMnetsValid,2021.1.4,Win32,59.86590038,,,,,,,,,,,,,,,,,,,,,,,,,,,,,,,,,,,,,,,,,,,,,,,,,,,,,,,,,,,,,,,,,,,,,,,,,,,,,,,,,,,,,,,,,
,,7,4.6761,7,4.6761,0,37,37,96,1,82,cake,kitchen,,89699,001,2022-04-29_15h36.45.856,SPAMnetsValid,2021.1.4,Win32,59.86590038,,,,,,,,,,,,,,,,,,,,,,,,,,,,,,,,,,,,,,,,,,,,,,,,,,,,,,,,,,,,,,,,,,,,,,,,,,,,,,,,,,,,,,,,,
,,7,1.5434,7,1.5434,0,38,38,42,1,77,refrigerator,yogurt,,89699,001,2022-04-29_15h36.45.856,SPAMnetsValid,2021.1.4,Win32,59.86590038,,,,,,,,,,,,,,,,,,,,,,,,,,,,,,,,,,,,,,,,,,,,,,,,,,,,,,,,,,,,,,,,,,,,,,,,,,,,,,,,,,,,,,,,,
,,6,2.173,6,2.173,0,39,39,63,1,21,cake,onion,,89699,001,2022-04-29_15h36.45.856,SPAMnetsValid,2021.1.4,Win32,59.86590038,,,,,,,,,,,,,,,,,,,,,,,,,,,,,,,,,,,,,,,,,,,,,,,,,,,,,,,,,,,,,,,,,,,,,,,,,,,,,,,,,,,,,,,,,
,,3,5.1539,3,5.1539,0,40,40,29,1,42,garden,kitchen,,89699,001,2022-04-29_15h36.45.856,SPAMnetsValid,2021.1.4,Win32,59.86590038,,,,,,,,,,,,,,,,,,,,,,,,,,,,,,,,,,,,,,,,,,,,,,,,,,,,,,,,,,,,,,,,,,,,,,,,,,,,,,,,,,,,,,,,,
,,2,2.0199,2,2.0199,0,41,41,11,1,37,garden,refrigerator,,89699,001,2022-04-29_15h36.45.856,SPAMnetsValid,2021.1.4,Win32,59.86590038,,,,,,,,,,,,,,,,,,,,,,,,,,,,,,,,,,,,,,,,,,,,,,,,,,,,,,,,,,,,,,,,,,,,,,,,,,,,,,,,,,,,,,,,,
,,5,2.137,5,2.137,0,42,42,71,1,38,pretzel,refrigerator,,89699,001,2022-04-29_15h36.45.856,SPAMnetsValid,2021.1.4,Win32,59.86590038,,,,,,,,,,,,,,,,,,,,,,,,,,,,,,,,,,,,,,,,,,,,,,,,,,,,,,,,,,,,,,,,,,,,,,,,,,,,,,,,,,,,,,,,,
,,3,3.5059,3,3.5059,0,43,43,0,1,53,garden,pretzel,,89699,001,2022-04-29_15h36.45.856,SPAMnetsValid,2021.1.4,Win32,59.86590038,,,,,,,,,,,,,,,,,,,,,,,,,,,,,,,,,,,,,,,,,,,,,,,,,,,,,,,,,,,,,,,,,,,,,,,,,,,,,,,,,,,,,,,,,
,,7,1.7688,7,1.7688,0,44,44,76,1,36,broom,kitchen,,89699,001,2022-04-29_15h36.45.856,SPAMnetsValid,2021.1.4,Win32,59.86590038,,,,,,,,,,,,,,,,,,,,,,,,,,,,,,,,,,,,,,,,,,,,,,,,,,,,,,,,,,,,,,,,,,,,,,,,,,,,,,,,,,,,,,,,,
,,3,2.021,3,2.021,0,45,45,79,1,86,oven,rose,,89699,001,2022-04-29_15h36.45.856,SPAMnetsValid,2021.1.4,Win32,59.86590038,,,,,,,,,,,,,,,,,,,,,,,,,,,,,,,,,,,,,,,,,,,,,,,,,,,,,,,,,,,,,,,,,,,,,,,,,,,,,,,,,,,,,,,,,
,,3,2.2893,3,2.2893,0,46,46,32,1,40,broom,cake,,89699,001,2022-04-29_15h36.45.856,SPAMnetsValid,2021.1.4,Win32,59.86590038,,,,,,,,,,,,,,,,,,,,,,,,,,,,,,,,,,,,,,,,,,,,,,,,,,,,,,,,,,,,,,,,,,,,,,,,,,,,,,,,,,,,,,,,,
,,3,1.1629,3,1.1629,0,47,47,27,1,72,broom,onion,,89699,001,2022-04-29_15h36.45.856,SPAMnetsValid,2021.1.4,Win32,59.86590038,,,,,,,,,,,,,,,,,,,,,,,,,,,,,,,,,,,,,,,,,,,,,,,,,,,,,,,,,,,,,,,,,,,,,,,,,,,,,,,,,,,,,,,,,
,,5,1.9041,5,1.9041,0,48,48,31,1,33,oven,yogurt,,89699,001,2022-04-29_15h36.45.856,SPAMnetsValid,2021.1.4,Win32,59.86590038,,,,,,,,,,,,,,,,,,,,,,,,,,,,,,,,,,,,,,,,,,,,,,,,,,,,,,,,,,,,,,,,,,,,,,,,,,,,,,,,,,,,,,,,,
,,4,2.7566,4,2.7566,0,49,49,59,1,8,broom,melon,,89699,001,2022-04-29_15h36.45.856,SPAMnetsValid,2021.1.4,Win32,59.86590038,,,,,,,,,,,,,,,,,,,,,,,,,,,,,,,,,,,,,,,,,,,,,,,,,,,,,,,,,,,,,,,,,,,,,,,,,,,,,,,,,,,,,,,,,
,,4,2.3049,4,2.3049,0,50,50,8,1,43,chocolate,tomato,,89699,001,2022-04-29_15h36.45.856,SPAMnetsValid,2021.1.4,Win32,59.86590038,,,,,,,,,,,,,,,,,,,,,,,,,,,,,,,,,,,,,,,,,,,,,,,,,,,,,,,,,,,,,,,,,,,,,,,,,,,,,,,,,,,,,,,,,
,,3,2.4361,3,2.4361,0,51,51,38,1,88,cactus,melon,,89699,001,2022-04-29_15h36.45.856,SPAMnetsValid,2021.1.4,Win32,59.86590038,,,,,,,,,,,,,,,,,,,,,,,,,,,,,,,,,,,,,,,,,,,,,,,,,,,,,,,,,,,,,,,,,,,,,,,,,,,,,,,,,,,,,,,,,
,,2,1.7853,2,1.7853,0,52,52,43,1,11,refrigerator,tree,,89699,001,2022-04-29_15h36.45.856,SPAMnetsValid,2021.1.4,Win32,59.86590038,,,,,,,,,,,,,,,,,,,,,,,,,,,,,,,,,,,,,,,,,,,,,,,,,,,,,,,,,,,,,,,,,,,,,,,,,,,,,,,,,,,,,,,,,
,,2,1.3576,2,1.3576,0,53,53,17,1,27,cactus,cookie,,89699,001,2022-04-29_15h36.45.856,SPAMnetsValid,2021.1.4,Win32,59.86590038,,,,,,,,,,,,,,,,,,,,,,,,,,,,,,,,,,,,,,,,,,,,,,,,,,,,,,,,,,,,,,,,,,,,,,,,,,,,,,,,,,,,,,,,,
,,6,2.2937,6,2.2937,0,54,54,68,1,24,cookie,tomato,,89699,001,2022-04-29_15h36.45.856,SPAMnetsValid,2021.1.4,Win32,59.86590038,,,,,,,,,,,,,,,,,,,,,,,,,,,,,,,,,,,,,,,,,,,,,,,,,,,,,,,,,,,,,,,,,,,,,,,,,,,,,,,,,,,,,,,,,
,,2,2.3356,2,2.3356,0,55,55,85,1,90,cactus,cake,,89699,001,2022-04-29_15h36.45.856,SPAMnetsValid,2021.1.4,Win32,59.86590038,,,,,,,,,,,,,,,,,,,,,,,,,,,,,,,,,,,,,,,,,,,,,,,,,,,,,,,,,,,,,,,,,,,,,,,,,,,,,,,,,,,,,,,,,
,,2,1.3914,2,1.3914,0,56,56,61,1,71,broom,rose,,89699,001,2022-04-29_15h36.45.856,SPAMnetsValid,2021.1.4,Win32,59.86590038,,,,,,,,,,,,,,,,,,,,,,,,,,,,,,,,,,,,,,,,,,,,,,,,,,,,,,,,,,,,,,,,,,,,,,,,,,,,,,,,,,,,,,,,,
,,6,1.9252,6,1.9252,0,57,57,69,1,45,onion,pretzel,,89699,001,2022-04-29_15h36.45.856,SPAMnetsValid,2021.1.4,Win32,59.86590038,,,,,,,,,,,,,,,,,,,,,,,,,,,,,,,,,,,,,,,,,,,,,,,,,,,,,,,,,,,,,,,,,,,,,,,,,,,,,,,,,,,,,,,,,
,,6,2.5111,6,2.5111,0,58,58,24,1,17,carrot,melon,,89699,001,2022-04-29_15h36.45.856,SPAMnetsValid,2021.1.4,Win32,59.86590038,,,,,,,,,,,,,,,,,,,,,,,,,,,,,,,,,,,,,,,,,,,,,,,,,,,,,,,,,,,,,,,,,,,,,,,,,,,,,,,,,,,,,,,,,
,,6,2.2891,6,2.2891,0,59,59,36,1,12,cookie,yogurt,,89699,001,2022-04-29_15h36.45.856,SPAMnetsValid,2021.1.4,Win32,59.86590038,,,,,,,,,,,,,,,,,,,,,,,,,,,,,,,,,,,,,,,,,,,,,,,,,,,,,,,,,,,,,,,,,,,,,,,,,,,,,,,,,,,,,,,,,
,,3,2.0694,3,2.0694,0,60,60,3,1,49,flower,strawberry,,89699,001,2022-04-29_15h36.45.856,SPAMnetsValid,2021.1.4,Win32,59.86590038,,,,,,,,,,,,,,,,,,,,,,,,,,,,,,,,,,,,,,,,,,,,,,,,,,,,,,,,,,,,,,,,,,,,,,,,,,,,,,,,,,,,,,,,,
,,4,2.0052,4,2.0052,0,61,61,94,1,68,flower,tomato,,89699,001,2022-04-29_15h36.45.856,SPAMnetsValid,2021.1.4,Win32,59.86590038,,,,,,,,,,,,,,,,,,,,,,,,,,,,,,,,,,,,,,,,,,,,,,,,,,,,,,,,,,,,,,,,,,,,,,,,,,,,,,,,,,,,,,,,,
,,3,2.1587,3,2.1587,0,62,62,88,1,92,broom,flower,,89699,001,2022-04-29_15h36.45.856,SPAMnetsValid,2021.1.4,Win32,59.86590038,,,,,,,,,,,,,,,,,,,,,,,,,,,,,,,,,,,,,,,,,,,,,,,,,,,,,,,,,,,,,,,,,,,,,,,,,,,,,,,,,,,,,,,,,
,,7,2.5388,7,2.5388,0,63,63,64,1,9,kitchen,refrigerator,,89699,001,2022-04-29_15h36.45.856,SPAMnetsValid,2021.1.4,Win32,59.86590038,,,,,,,,,,,,,,,,,,,,,,,,,,,,,,,,,,,,,,,,,,,,,,,,,,,,,,,,,,,,,,,,,,,,,,,,,,,,,,,,,,,,,,,,,
,,6,2.6912,6,2.6912,0,64,64,20,1,39,melon,pretzel,,89699,001,2022-04-29_15h36.45.856,SPAMnetsValid,2021.1.4,Win32,59.86590038,,,,,,,,,,,,,,,,,,,,,,,,,,,,,,,,,,,,,,,,,,,,,,,,,,,,,,,,,,,,,,,,,,,,,,,,,,,,,,,,,,,,,,,,,
,,6,1.2486,6,1.2486,0,65,65,48,1,66,melon,yogurt,,89699,001,2022-04-29_15h36.45.856,SPAMnetsValid,2021.1.4,Win32,59.86590038,,,,,,,,,,,,,,,,,,,,,,,,,,,,,,,,,,,,,,,,,,,,,,,,,,,,,,,,,,,,,,,,,,,,,,,,,,,,,,,,,,,,,,,,,
,,3,1.9783,3,1.9783,0,66,66,5,1,13,broom,yogurt,,89699,001,2022-04-29_15h36.45.856,SPAMnetsValid,2021.1.4,Win32,59.86590038,,,,,,,,,,,,,,,,,,,,,,,,,,,,,,,,,,,,,,,,,,,,,,,,,,,,,,,,,,,,,,,,,,,,,,,,,,,,,,,,,,,,,,,,,
,,6,2.4707,6,2.4707,0,67,67,57,1,62,kitchen,rose,,89699,001,2022-04-29_15h36.45.856,SPAMnetsValid,2021.1.4,Win32,59.86590038,,,,,,,,,,,,,,,,,,,,,,,,,,,,,,,,,,,,,,,,,,,,,,,,,,,,,,,,,,,,,,,,,,,,,,,,,,,,,,,,,,,,,,,,,
,,6,3.5249,6,3.5249,0,68,68,90,1,95,broom,refrigerator,,89699,001,2022-04-29_15h36.45.856,SPAMnetsValid,2021.1.4,Win32,59.86590038,,,,,,,,,,,,,,,,,,,,,,,,,,,,,,,,,,,,,,,,,,,,,,,,,,,,,,,,,,,,,,,,,,,,,,,,,,,,,,,,,,,,,,,,,
,,4,2.329,4,2.329,0,69,69,16,1,14,broom,cookie,,89699,001,2022-04-29_15h36.45.856,SPAMnetsValid,2021.1.4,Win32,59.86590038,,,,,,,,,,,,,,,,,,,,,,,,,,,,,,,,,,,,,,,,,,,,,,,,,,,,,,,,,,,,,,,,,,,,,,,,,,,,,,,,,,,,,,,,,
,,4,1.776,4,1.776,0,70,70,73,1,50,carrot,rose,,89699,001,2022-04-29_15h36.45.856,SPAMnetsValid,2021.1.4,Win32,59.86590038,,,,,,,,,,,,,,,,,,,,,,,,,,,,,,,,,,,,,,,,,,,,,,,,,,,,,,,,,,,,,,,,,,,,,,,,,,,,,,,,,,,,,,,,,
,,3,1.6558,3,1.6558,0,71,71,1,1,31,cactus,pretzel,,89699,001,2022-04-29_15h36.45.856,SPAMnetsValid,2021.1.4,Win32,59.86590038,,,,,,,,,,,,,,,,,,,,,,,,,,,,,,,,,,,,,,,,,,,,,,,,,,,,,,,,,,,,,,,,,,,,,,,,,,,,,,,,,,,,,,,,,
,,6,7.8271,6,7.8271,0,72,72,87,1,79,garden,strawberry,,89699,001,2022-04-29_15h36.45.856,SPAMnetsValid,2021.1.4,Win32,59.86590038,,,,,,,,,,,,,,,,,,,,,,,,,,,,,,,,,,,,,,,,,,,,,,,,,,,,,,,,,,,,,,,,,,,,,,,,,,,,,,,,,,,,,,,,,
,,6,3.0048,6,3.0048,0,73,73,67,1,54,chocolate,yogurt,,89699,001,2022-04-29_15h36.45.856,SPAMnetsValid,2021.1.4,Win32,59.86590038,,,,,,,,,,,,,,,,,,,,,,,,,,,,,,,,,,,,,,,,,,,,,,,,,,,,,,,,,,,,,,,,,,,,,,,,,,,,,,,,,,,,,,,,,
,,7,2.1073,7,2.1073,0,74,74,52,1,4,chocolate,pretzel,,89699,001,2022-04-29_15h36.45.856,SPAMnetsValid,2021.1.4,Win32,59.86590038,,,,,,,,,,,,,,,,,,,,,,,,,,,,,,,,,,,,,,,,,,,,,,,,,,,,,,,,,,,,,,,,,,,,,,,,,,,,,,,,,,,,,,,,,
,,6,3.2938,6,3.2938,0,75,75,91,1,2,kitchen,onion,,89699,001,2022-04-29_15h36.45.856,SPAMnetsValid,2021.1.4,Win32,59.86590038,,,,,,,,,,,,,,,,,,,,,,,,,,,,,,,,,,,,,,,,,,,,,,,,,,,,,,,,,,,,,,,,,,,,,,,,,,,,,,,,,,,,,,,,,
,,6,1.1087,6,1.1087,0,76,76,74,1,70,chocolate,onion,,89699,001,2022-04-29_15h36.45.856,SPAMnetsValid,2021.1.4,Win32,59.86590038,,,,,,,,,,,,,,,,,,,,,,,,,,,,,,,,,,,,,,,,,,,,,,,,,,,,,,,,,,,,,,,,,,,,,,,,,,,,,,,,,,,,,,,,,
,,6,1.3103,6,1.3103,0,77,77,34,1,29,chocolate,melon,,89699,001,2022-04-29_15h36.45.856,SPAMnetsValid,2021.1.4,Win32,59.86590038,,,,,,,,,,,,,,,,,,,,,,,,,,,,,,,,,,,,,,,,,,,,,,,,,,,,,,,,,,,,,,,,,,,,,,,,,,,,,,,,,,,,,,,,,
,,4,2.0707,4,2.0707,0,78,78,15,1,48,flower,oven,,89699,001,2022-04-29_15h36.45.856,SPAMnetsValid,2021.1.4,Win32,59.86590038,,,,,,,,,,,,,,,,,,,,,,,,,,,,,,,,,,,,,,,,,,,,,,,,,,,,,,,,,,,,,,,,,,,,,,,,,,,,,,,,,,,,,,,,,
,,6,3.0368,6,3.0368,0,79,79,83,1,6,garden,onion,,89699,001,2022-04-29_15h36.45.856,SPAMnetsValid,2021.1.4,Win32,59.86590038,,,,,,,,,,,,,,,,,,,,,,,,,,,,,,,,,,,,,,,,,,,,,,,,,,,,,,,,,,,,,,,,,,,,,,,,,,,,,,,,,,,,,,,,,
,,3,2.1809,3,2.1809,0,80,80,18,1,85,cake,tree,,89699,001,2022-04-29_15h36.45.856,SPAMnetsValid,2021.1.4,Win32,59.86590038,,,,,,,,,,,,,,,,,,,,,,,,,,,,,,,,,,,,,,,,,,,,,,,,,,,,,,,,,,,,,,,,,,,,,,,,,,,,,,,,,,,,,,,,,
,,6,2.0237,6,2.0237,0,81,81,78,1,30,cookie,pretzel,,89699,001,2022-04-29_15h36.45.856,SPAMnetsValid,2021.1.4,Win32,59.86590038,,,,,,,,,,,,,,,,,,,,,,,,,,,,,,,,,,,,,,,,,,,,,,,,,,,,,,,,,,,,,,,,,,,,,,,,,,,,,,,,,,,,,,,,,
,,6,1.2567,6,1.2567,0,82,82,86,1,51,onion,strawberry,,89699,001,2022-04-29_15h36.45.856,SPAMnetsValid,2021.1.4,Win32,59.86590038,,,,,,,,,,,,,,,,,,,,,,,,,,,,,,,,,,,,,,,,,,,,,,,,,,,,,,,,,,,,,,,,,,,,,,,,,,,,,,,,,,,,,,,,,
,,2,6.4914,2,6.4914,0,83,83,46,1,41,broom,cactus,,89699,001,2022-04-29_15h36.45.856,SPAMnetsValid,2021.1.4,Win32,59.86590038,,,,,,,,,,,,,,,,,,,,,,,,,,,,,,,,,,,,,,,,,,,,,,,,,,,,,,,,,,,,,,,,,,,,,,,,,,,,,,,,,,,,,,,,,
,,2,1.8555,2,1.8555,0,84,84,4,1,83,broom,carrot,,89699,001,2022-04-29_15h36.45.856,SPAMnetsValid,2021.1.4,Win32,59.86590038,,,,,,,,,,,,,,,,,,,,,,,,,,,,,,,,,,,,,,,,,,,,,,,,,,,,,,,,,,,,,,,,,,,,,,,,,,,,,,,,,,,,,,,,,
,,5,3.671,5,3.671,0,85,85,77,1,7,melon,tree,,89699,001,2022-04-29_15h36.45.856,SPAMnetsValid,2021.1.4,Win32,59.86590038,,,,,,,,,,,,,,,,,,,,,,,,,,,,,,,,,,,,,,,,,,,,,,,,,,,,,,,,,,,,,,,,,,,,,,,,,,,,,,,,,,,,,,,,,
,,4,2.1495,4,2.1495,0,86,86,25,1,23,flower,microwave,,89699,001,2022-04-29_15h36.45.856,SPAMnetsValid,2021.1.4,Win32,59.86590038,,,,,,,,,,,,,,,,,,,,,,,,,,,,,,,,,,,,,,,,,,,,,,,,,,,,,,,,,,,,,,,,,,,,,,,,,,,,,,,,,,,,,,,,,
,,9,1.671,9,1.671,0,87,87,53,1,192,microwave,microwave,CHECK,89699,001,2022-04-29_15h36.45.856,SPAMnetsValid,2021.1.4,Win32,59.86590038,,,,,,,,,,,,,,,,,,,,,,,,,,,,,,,,,,,,,,,,,,,,,,,,,,,,,,,,,,,,,,,,,,,,,,,,,,,,,,,,,,,,,,,,,
,,6,2.4662,6,2.4662,0,88,88,28,1,84,oven,tomato,,89699,001,2022-04-29_15h36.45.856,SPAMnetsValid,2021.1.4,Win32,59.86590038,,,,,,,,,,,,,,,,,,,,,,,,,,,,,,,,,,,,,,,,,,,,,,,,,,,,,,,,,,,,,,,,,,,,,,,,,,,,,,,,,,,,,,,,,
,,8,3.3395,8,3.3395,0,89,89,93,1,63,cake,cookie,,89699,001,2022-04-29_15h36.45.856,SPAMnetsValid,2021.1.4,Win32,59.86590038,,,,,,,,,,,,,,,,,,,,,,,,,,,,,,,,,,,,,,,,,,,,,,,,,,,,,,,,,,,,,,,,,,,,,,,,,,,,,,,,,,,,,,,,,
,,7,2.2198,7,2.2198,0,90,90,75,1,69,carrot,refrigerator,,89699,001,2022-04-29_15h36.45.856,SPAMnetsValid,2021.1.4,Win32,59.86590038,,,,,,,,,,,,,,,,,,,,,,,,,,,,,,,,,,,,,,,,,,,,,,,,,,,,,,,,,,,,,,,,,,,,,,,,,,,,,,,,,,,,,,,,,
,,6,7.4894,6,7.4894,0,91,91,2,1,22,kitchen,strawberry,,89699,001,2022-04-29_15h36.45.856,SPAMnetsValid,2021.1.4,Win32,59.86590038,,,,,,,,,,,,,,,,,,,,,,,,,,,,,,,,,,,,,,,,,,,,,,,,,,,,,,,,,,,,,,,,,,,,,,,,,,,,,,,,,,,,,,,,,
,,4,1.9483,4,1.9483,0,92,92,65,1,46,garden,yogurt,,89699,001,2022-04-29_15h36.45.856,SPAMnetsValid,2021.1.4,Win32,59.86590038,,,,,,,,,,,,,,,,,,,,,,,,,,,,,,,,,,,,,,,,,,,,,,,,,,,,,,,,,,,,,,,,,,,,,,,,,,,,,,,,,,,,,,,,,
,,4,2.7526,4,2.7526,0,93,93,13,1,26,tomato,yogurt,,89699,001,2022-04-29_15h36.45.856,SPAMnetsValid,2021.1.4,Win32,59.86590038,,,,,,,,,,,,,,,,,,,,,,,,,,,,,,,,,,,,,,,,,,,,,,,,,,,,,,,,,,,,,,,,,,,,,,,,,,,,,,,,,,,,,,,,,
,,8,2.9933,8,2.9933,0,94,94,58,1,94,kitchen,microwave,,89699,001,2022-04-29_15h36.45.856,SPAMnetsValid,2021.1.4,Win32,59.86590038,,,,,,,,,,,,,,,,,,,,,,,,,,,,,,,,,,,,,,,,,,,,,,,,,,,,,,,,,,,,,,,,,,,,,,,,,,,,,,,,,,,,,,,,,
,,8,2.5904,8,2.5904,0,95,95,21,1,56,cactus,tree,,89699,001,2022-04-29_15h36.45.856,SPAMnetsValid,2021.1.4,Win32,59.86590038,,,,,,,,,,,,,,,,,,,,,,,,,,,,,,,,,,,,,,,,,,,,,,,,,,,,,,,,,,,,,,,,,,,,,,,,,,,,,,,,,,,,,,,,,
,,4,2.9421,4,2.9421,0,96,96,56,1,78,cookie,rose,,89699,001,2022-04-29_15h36.45.856,SPAMnetsValid,2021.1.4,Win32,59.86590038,,,,,,,,,,,,,,,,,,,,,,,,,,,,,,,,,,,,,,,,,,,,,,,,,,,,,,,,,,,,,,,,,,,,,,,,,,,,,,,,,,,,,,,,,
,,,,,,,,,,,,,,,89699,001,2022-04-29_15h36.45.856,SPAMnetsValid,2021.1.4,Win32,59.86590038,0,0,0,0,1,,,,,,,,,,,,,,,,,,,,,,,,,,,,,,,,,,,,,,,,,,,,,,,,,,,,,,,,,,,,,,,,,,,,,,,,,,,,,,,,,,,,
,,,,,,,,,,,,,,,89699,001,2022-04-29_15h36.45.856,SPAMnetsValid,2021.1.4,Win32,59.86590038,,,,,,0,0,0,0,1,1,0,,,,,,,,,,,,,,,,,,,,,,,,,,,,,,,,,,,,,,,,,,,,,,,,,,,,,,,,,,,,,,,,,,,,,,,,,,,,,
,,,,3,9.8057,,,,,,144,cake,garden,,89699,001,2022-04-29_15h36.45.856,SPAMnetsValid,2021.1.4,Win32,59.86590038,,,,,,,,,,,,,3,9.8057,0,0,0,58,1,,,,,,,,,,,,,,,,,,,,,,,,,,,,,,,,,,,,,,,,,,,,,,,,,,,,,,,,,,,,,,,,,,,,,,
,,,,3,1.1219,,,,,,143,pretzel,rose,,89699,001,2022-04-29_15h36.45.856,SPAMnetsValid,2021.1.4,Win32,59.86590038,,,,,,,,,,,,,3,1.1219,0,1,1,55,1,,,,,,,,,,,,,,,,,,,,,,,,,,,,,,,,,,,,,,,,,,,,,,,,,,,,,,,,,,,,,,,,,,,,,,
,,,,9,2.3131,,,,,,194,cactus,cactus,CHECK,89699,001,2022-04-29_15h36.45.856,SPAMnetsValid,2021.1.4,Win32,59.86590038,,,,,,,,,,,,,9,2.3131,0,2,2,25,1,,,,,,,,,,,,,,,,,,,,,,,,,,,,,,,,,,,,,,,,,,,,,,,,,,,,,,,,,,,,,,,,,,,,,,
,,,,3,5.3875,,,,,,183,cake,rose,,89699,001,2022-04-29_15h36.45.856,SPAMnetsValid,2021.1.4,Win32,59.86590038,,,,,,,,,,,,,3,5.3875,0,3,3,19,1,,,,,,,,,,,,,,,,,,,,,,,,,,,,,,,,,,,,,,,,,,,,,,,,,,,,,,,,,,,,,,,,,,,,,,
,,,,3,2.0145,,,,,,137,microwave,tree,,89699,001,2022-04-29_15h36.45.856,SPAMnetsValid,2021.1.4,Win32,59.86590038,,,,,,,,,,,,,3,2.0145,0,4,4,63,1,,,,,,,,,,,,,,,,,,,,,,,,,,,,,,,,,,,,,,,,,,,,,,,,,,,,,,,,,,,,,,,,,,,,,,
,,,,7,2.5424,,,,,,113,refrigerator,strawberry,,89699,001,2022-04-29_15h36.45.856,SPAMnetsValid,2021.1.4,Win32,59.86590038,,,,,,,,,,,,,7,2.5424,0,5,5,56,1,,,,,,,,,,,,,,,,,,,,,,,,,,,,,,,,,,,,,,,,,,,,,,,,,,,,,,,,,,,,,,,,,,,,,,
,,,,3,2.0735,,,,,,157,refrigerator,rose,,89699,001,2022-04-29_15h36.45.856,SPAMnetsValid,2021.1.4,Win32,59.86590038,,,,,,,,,,,,,3,2.0735,0,6,6,64,1,,,,,,,,,,,,,,,,,,,,,,,,,,,,,,,,,,,,,,,,,,,,,,,,,,,,,,,,,,,,,,,,,,,,,,
,,,,8,2.4901,,,,,,112,cake,carrot,,89699,001,2022-04-29_15h36.45.856,SPAMnetsValid,2021.1.4,Win32,59.86590038,,,,,,,,,,,,,8,2.4901,0,7,7,39,1,,,,,,,,,,,,,,,,,,,,,,,,,,,,,,,,,,,,,,,,,,,,,,,,,,,,,,,,,,,,,,,,,,,,,,
,,,,7,3.0103,,,,,,136,chocolate,microwave,,89699,001,2022-04-29_15h36.45.856,SPAMnetsValid,2021.1.4,Win32,59.86590038,,,,,,,,,,,,,7,3.0103,0,8,8,96,1,,,,,,,,,,,,,,,,,,,,,,,,,,,,,,,,,,,,,,,,,,,,,,,,,,,,,,,,,,,,,,,,,,,,,,
,,,,6,1.9926,,,,,,162,microwave,tomato,,89699,001,2022-04-29_15h36.45.856,SPAMnetsValid,2021.1.4,Win32,59.86590038,,,,,,,,,,,,,6,1.9926,0,9,9,12,1,,,,,,,,,,,,,,,,,,,,,,,,,,,,,,,,,,,,,,,,,,,,,,,,,,,,,,,,,,,,,,,,,,,,,,
,,,,7,2.2023,,,,,,170,cookie,microwave,,89699,001,2022-04-29_15h36.45.856,SPAMnetsValid,2021.1.4,Win32,59.86590038,,,,,,,,,,,,,7,2.2023,0,10,10,92,1,,,,,,,,,,,,,,,,,,,,,,,,,,,,,,,,,,,,,,,,,,,,,,,,,,,,,,,,,,,,,,,,,,,,,,
,,,,6,2.6372,,,,,,102,chocolate,refrigerator,,89699,001,2022-04-29_15h36.45.856,SPAMnetsValid,2021.1.4,Win32,59.86590038,,,,,,,,,,,,,6,2.6372,0,11,11,76,1,,,,,,,,,,,,,,,,,,,,,,,,,,,,,,,,,,,,,,,,,,,,,,,,,,,,,,,,,,,,,,,,,,,,,,
,,,,8,2.0729,,,,,,110,chocolate,cookie,,89699,001,2022-04-29_15h36.45.856,SPAMnetsValid,2021.1.4,Win32,59.86590038,,,,,,,,,,,,,8,2.0729,0,12,12,52,1,,,,,,,,,,,,,,,,,,,,,,,,,,,,,,,,,,,,,,,,,,,,,,,,,,,,,,,,,,,,,,,,,,,,,,
,,,,8,2.2398,,,,,,133,cake,flower,,89699,001,2022-04-29_15h36.45.856,SPAMnetsValid,2021.1.4,Win32,59.86590038,,,,,,,,,,,,,8,2.2398,0,13,13,94,1,,,,,,,,,,,,,,,,,,,,,,,,,,,,,,,,,,,,,,,,,,,,,,,,,,,,,,,,,,,,,,,,,,,,,,
,,,,6,6.1383,,,,,,176,cactus,tomato,,89699,001,2022-04-29_15h36.45.856,SPAMnetsValid,2021.1.4,Win32,59.86590038,,,,,,,,,,,,,6,6.1383,0,14,14,9,1,,,,,,,,,,,,,,,,,,,,,,,,,,,,,,,,,,,,,,,,,,,,,,,,,,,,,,,,,,,,,,,,,,,,,,
,,,,6,3.2736,,,,,,155,carrot,cookie,,89699,001,2022-04-29_15h36.45.856,SPAMnetsValid,2021.1.4,Win32,59.86590038,,,,,,,,,,,,,6,3.2736,0,15,15,38,1,,,,,,,,,,,,,,,,,,,,,,,,,,,,,,,,,,,,,,,,,,,,,,,,,,,,,,,,,,,,,,,,,,,,,,
,,,,3,2.1743,,,,,,145,cactus,yogurt,,89699,001,2022-04-29_15h36.45.856,SPAMnetsValid,2021.1.4,Win32,59.86590038,,,,,,,,,,,,,3,2.1743,0,16,16,15,1,,,,,,,,,,,,,,,,,,,,,,,,,,,,,,,,,,,,,,,,,,,,,,,,,,,,,,,,,,,,,,,,,,,,,,
,,,,9,2.2574,,,,,,193,melon,melon,CHECK,89699,001,2022-04-29_15h36.45.856,SPAMnetsValid,2021.1.4,Win32,59.86590038,,,,,,,,,,,,,9,2.2574,0,17,17,86,1,,,,,,,,,,,,,,,,,,,,,,,,,,,,,,,,,,,,,,,,,,,,,,,,,,,,,,,,,,,,,,,,,,,,,,
,,,,2,3.3002,,,,,,129,cactus,refrigerator,,89699,001,2022-04-29_15h36.45.856,SPAMnetsValid,2021.1.4,Win32,59.86590038,,,,,,,,,,,,,2,3.3002,0,18,18,3,1,,,,,,,,,,,,,,,,,,,,,,,,,,,,,,,,,,,,,,,,,,,,,,,,,,,,,,,,,,,,,,,,,,,,,,
,,,,2,1.6636,,,,,,187,cactus,microwave,,89699,001,2022-04-29_15h36.45.856,SPAMnetsValid,2021.1.4,Win32,59.86590038,,,,,,,,,,,,,2,1.6636,0,19,19,71,1,,,,,,,,,,,,,,,,,,,,,,,,,,,,,,,,,,,,,,,,,,,,,,,,,,,,,,,,,,,,,,,,,,,,,,
,,,,4,2.6747,,,,,,128,melon,microwave,,89699,001,2022-04-29_15h36.45.856,SPAMnetsValid,2021.1.4,Win32,59.86590038,,,,,,,,,,,,,4,2.6747,0,20,20,74,1,,,,,,,,,,,,,,,,,,,,,,,,,,,,,,,,,,,,,,,,,,,,,,,,,,,,,,,,,,,,,,,,,,,,,,
,,,,4,3.5888,,,,,,111,carrot,microwave,,89699,001,2022-04-29_15h36.45.856,SPAMnetsValid,2021.1.4,Win32,59.86590038,,,,,,,,,,,,,4,3.5888,0,21,21,16,1,,,,,,,,,,,,,,,,,,,,,,,,,,,,,,,,,,,,,,,,,,,,,,,,,,,,,,,,,,,,,,,,,,,,,,
,,,,8,2.3692,,,,,,106,cake,strawberry,,89699,001,2022-04-29_15h36.45.856,SPAMnetsValid,2021.1.4,Win32,59.86590038,,,,,,,,,,,,,8,2.3692,0,22,22,0,1,,,,,,,,,,,,,,,,,,,,,,,,,,,,,,,,,,,,,,,,,,,,,,,,,,,,,,,,,,,,,,,,,,,,,,
,,,,3,2.6861,,,,,,152,cactus,strawberry,,89699,001,2022-04-29_15h36.45.856,SPAMnetsValid,2021.1.4,Win32,59.86590038,,,,,,,,,,,,,3,2.6861,0,23,23,49,1,,,,,,,,,,,,,,,,,,,,,,,,,,,,,,,,,,,,,,,,,,,,,,,,,,,,,,,,,,,,,,,,,,,,,,
,,,,8,2.2958,,,,,,122,flower,garden,,89699,001,2022-04-29_15h36.45.856,SPAMnetsValid,2021.1.4,Win32,59.86590038,,,,,,,,,,,,,8,2.2958,0,24,24,60,1,,,,,,,,,,,,,,,,,,,,,,,,,,,,,,,,,,,,,,,,,,,,,,,,,,,,,,,,,,,,,,,,,,,,,,
,,,,8,2.2455,,,,,,158,cookie,oven,,89699,001,2022-04-29_15h36.45.856,SPAMnetsValid,2021.1.4,Win32,59.86590038,,,,,,,,,,,,,8,2.2455,0,25,25,27,1,,,,,,,,,,,,,,,,,,,,,,,,,,,,,,,,,,,,,,,,,,,,,,,,,,,,,,,,,,,,,,,,,,,,,,
,,,,6,2.9899,,,,,,114,cookie,strawberry,,89699,001,2022-04-29_15h36.45.856,SPAMnetsValid,2021.1.4,Win32,59.86590038,,,,,,,,,,,,,6,2.9899,0,26,26,87,1,,,,,,,,,,,,,,,,,,,,,,,,,,,,,,,,,,,,,,,,,,,,,,,,,,,,,,,,,,,,,,,,,,,,,,
,,,,7,1.6396,,,,,,118,chocolate,oven,,89699,001,2022-04-29_15h36.45.856,SPAMnetsValid,2021.1.4,Win32,59.86590038,,,,,,,,,,,,,7,1.6396,0,27,27,10,1,,,,,,,,,,,,,,,,,,,,,,,,,,,,,,,,,,,,,,,,,,,,,,,,,,,,,,,,,,,,,,,,,,,,,,
,,,,7,1.5255,,,,,,97,chocolate,kitchen,,89699,001,2022-04-29_15h36.45.856,SPAMnetsValid,2021.1.4,Win32,59.86590038,,,,,,,,,,,,,7,1.5255,0,28,28,8,1,,,,,,,,,,,,,,,,,,,,,,,,,,,,,,,,,,,,,,,,,,,,,,,,,,,,,,,,,,,,,,,,,,,,,,
,,,,6,2.106,,,,,,98,pretzel,strawberry,,89699,001,2022-04-29_15h36.45.856,SPAMnetsValid,2021.1.4,Win32,59.86590038,,,,,,,,,,,,,6,2.106,0,29,29,82,1,,,,,,,,,,,,,,,,,,,,,,,,,,,,,,,,,,,,,,,,,,,,,,,,,,,,,,,,,,,,,,,,,,,,,,
,,,,8,2.9569,,,,,,117,melon,strawberry,,89699,001,2022-04-29_15h36.45.856,SPAMnetsValid,2021.1.4,Win32,59.86590038,,,,,,,,,,,,,8,2.9569,0,30,30,11,1,,,,,,,,,,,,,,,,,,,,,,,,,,,,,,,,,,,,,,,,,,,,,,,,,,,,,,,,,,,,,,,,,,,,,,
,,,,4,2.2654,,,,,,148,flower,melon,,89699,001,2022-04-29_15h36.45.856,SPAMnetsValid,2021.1.4,Win32,59.86590038,,,,,,,,,,,,,4,2.2654,0,31,31,23,1,,,,,,,,,,,,,,,,,,,,,,,,,,,,,,,,,,,,,,,,,,,,,,,,,,,,,,,,,,,,,,,,,,,,,,
,,,,3,2.3386,,,,,,189,onion,tree,,89699,001,2022-04-29_15h36.45.856,SPAMnetsValid,2021.1.4,Win32,59.86590038,,,,,,,,,,,,,3,2.3386,0,32,32,62,1,,,,,,,,,,,,,,,,,,,,,,,,,,,,,,,,,,,,,,,,,,,,,,,,,,,,,,,,,,,,,,,,,,,,,,
,,,,2,3.5304,,,,,,180,tree,yogurt,,89699,001,2022-04-29_15h36.45.856,SPAMnetsValid,2021.1.4,Win32,59.86590038,,,,,,,,,,,,,2,3.5304,0,33,33,68,1,,,,,,,,,,,,,,,,,,,,,,,,,,,,,,,,,,,,,,,,,,,,,,,,,,,,,,,,,,,,,,,,,,,,,,
,,,,7,2.4296,,,,,,185,cactus,rose,,89699,001,2022-04-29_15h36.45.856,SPAMnetsValid,2021.1.4,Win32,59.86590038,,,,,,,,,,,,,7,2.4296,0,34,34,43,1,,,,,,,,,,,,,,,,,,,,,,,,,,,,,,,,,,,,,,,,,,,,,,,,,,,,,,,,,,,,,,,,,,,,,,
,,,,7,3.9872,,,,,,167,carrot,garden,,89699,001,2022-04-29_15h36.45.856,SPAMnetsValid,2021.1.4,Win32,59.86590038,,,,,,,,,,,,,7,3.9872,0,35,35,47,1,,,,,,,,,,,,,,,,,,,,,,,,,,,,,,,,,,,,,,,,,,,,,,,,,,,,,,,,,,,,,,,,,,,,,,
,,,,8,2.1317,,,,,,120,microwave,oven,,89699,001,2022-04-29_15h36.45.856,SPAMnetsValid,2021.1.4,Win32,59.86590038,,,,,,,,,,,,,8,2.1317,0,36,36,14,1,,,,,,,,,,,,,,,,,,,,,,,,,,,,,,,,,,,,,,,,,,,,,,,,,,,,,,,,,,,,,,,,,,,,,,
,,,,6,2.672,,,,,,174,cake,pretzel,,89699,001,2022-04-29_15h36.45.856,SPAMnetsValid,2021.1.4,Win32,59.86590038,,,,,,,,,,,,,6,2.672,0,37,37,2,1,,,,,,,,,,,,,,,,,,,,,,,,,,,,,,,,,,,,,,,,,,,,,,,,,,,,,,,,,,,,,,,,,,,,,,
,,,,7,2.4699,,,,,,115,refrigerator,tomato,,89699,001,2022-04-29_15h36.45.856,SPAMnetsValid,2021.1.4,Win32,59.86590038,,,,,,,,,,,,,7,2.4699,0,38,38,85,1,,,,,,,,,,,,,,,,,,,,,,,,,,,,,,,,,,,,,,,,,,,,,,,,,,,,,,,,,,,,,,,,,,,,,,
,,,,7,2.2554,,,,,,186,kitchen,yogurt,,89699,001,2022-04-29_15h36.45.856,SPAMnetsValid,2021.1.4,Win32,59.86590038,,,,,,,,,,,,,7,2.2554,0,39,39,48,1,,,,,,,,,,,,,,,,,,,,,,,,,,,,,,,,,,,,,,,,,,,,,,,,,,,,,,,,,,,,,,,,,,,,,,
,,,,7,1.5458,,,,,,173,kitchen,tomato,,89699,001,2022-04-29_15h36.45.856,SPAMnetsValid,2021.1.4,Win32,59.86590038,,,,,,,,,,,,,7,1.5458,0,40,40,1,1,,,,,,,,,,,,,,,,,,,,,,,,,,,,,,,,,,,,,,,,,,,,,,,,,,,,,,,,,,,,,,,,,,,,,,
,,,,7,1.2542,,,,,,160,cookie,kitchen,,89699,001,2022-04-29_15h36.45.856,SPAMnetsValid,2021.1.4,Win32,59.86590038,,,,,,,,,,,,,7,1.2542,0,41,41,65,1,,,,,,,,,,,,,,,,,,,,,,,,,,,,,,,,,,,,,,,,,,,,,,,,,,,,,,,,,,,,,,,,,,,,,,
,,,,6,2.5702,,,,,,140,cookie,refrigerator,,89699,001,2022-04-29_15h36.45.856,SPAMnetsValid,2021.1.4,Win32,59.86590038,,,,,,,,,,,,,6,2.5702,0,42,42,89,1,,,,,,,,,,,,,,,,,,,,,,,,,,,,,,,,,,,,,,,,,,,,,,,,,,,,,,,,,,,,,,,,,,,,,,
,,,,6,2.7031,,,,,,141,melon,tomato,,89699,001,2022-04-29_15h36.45.856,SPAMnetsValid,2021.1.4,Win32,59.86590038,,,,,,,,,,,,,6,2.7031,0,43,43,70,1,,,,,,,,,,,,,,,,,,,,,,,,,,,,,,,,,,,,,,,,,,,,,,,,,,,,,,,,,,,,,,,,,,,,,,
,,,,6,1.9063,,,,,,135,carrot,oven,,89699,001,2022-04-29_15h36.45.856,SPAMnetsValid,2021.1.4,Win32,59.86590038,,,,,,,,,,,,,6,1.9063,0,44,44,73,1,,,,,,,,,,,,,,,,,,,,,,,,,,,,,,,,,,,,,,,,,,,,,,,,,,,,,,,,,,,,,,,,,,,,,,
,,,,3,5.5732,,,,,,159,cookie,flower,,89699,001,2022-04-29_15h36.45.856,SPAMnetsValid,2021.1.4,Win32,59.86590038,,,,,,,,,,,,,3,5.5732,0,45,45,21,1,,,,,,,,,,,,,,,,,,,,,,,,,,,,,,,,,,,,,,,,,,,,,,,,,,,,,,,,,,,,,,,,,,,,,,
,,,,5,3.0565,,,,,,130,microwave,yogurt,,89699,001,2022-04-29_15h36.45.856,SPAMnetsValid,2021.1.4,Win32,59.86590038,,,,,,,,,,,,,5,3.0565,0,46,46,84,1,,,,,,,,,,,,,,,,,,,,,,,,,,,,,,,,,,,,,,,,,,,,,,,,,,,,,,,,,,,,,,,,,,,,,,
,,,,3,2.2596,,,,,,165,onion,rose,,89699,001,2022-04-29_15h36.45.856,SPAMnetsValid,2021.1.4,Win32,59.86590038,,,,,,,,,,,,,3,2.2596,0,47,47,40,1,,,,,,,,,,,,,,,,,,,,,,,,,,,,,,,,,,,,,,,,,,,,,,,,,,,,,,,,,,,,,,,,,,,,,,
,,,,8,1.888,,,,,,177,chocolate,strawberry,,89699,001,2022-04-29_15h36.45.856,SPAMnetsValid,2021.1.4,Win32,59.86590038,,,,,,,,,,,,,8,1.888,0,48,48,53,1,,,,,,,,,,,,,,,,,,,,,,,,,,,,,,,,,,,,,,,,,,,,,,,,,,,,,,,,,,,,,,,,,,,,,,
,,,,8,1.7656,,,,,,116,cake,chocolate,,89699,001,2022-04-29_15h36.45.856,SPAMnetsValid,2021.1.4,Win32,59.86590038,,,,,,,,,,,,,8,1.7656,0,49,49,44,1,,,,,,,,,,,,,,,,,,,,,,,,,,,,,,,,,,,,,,,,,,,,,,,,,,,,,,,,,,,,,,,,,,,,,,
,,,,4,2.761,,,,,,132,broom,tree,,89699,001,2022-04-29_15h36.45.856,SPAMnetsValid,2021.1.4,Win32,59.86590038,,,,,,,,,,,,,4,2.761,0,50,50,78,1,,,,,,,,,,,,,,,,,,,,,,,,,,,,,,,,,,,,,,,,,,,,,,,,,,,,,,,,,,,,,,,,,,,,,,
,,,,5,2.3958,,,,,,184,oven,pretzel,,89699,001,2022-04-29_15h36.45.856,SPAMnetsValid,2021.1.4,Win32,59.86590038,,,,,,,,,,,,,5,2.3958,0,51,51,42,1,,,,,,,,,,,,,,,,,,,,,,,,,,,,,,,,,,,,,,,,,,,,,,,,,,,,,,,,,,,,,,,,,,,,,,
,,,,7,3.4869,,,,,,100,garden,tomato,,89699,001,2022-04-29_15h36.45.856,SPAMnetsValid,2021.1.4,Win32,59.86590038,,,,,,,,,,,,,7,3.4869,0,52,52,83,1,,,,,,,,,,,,,,,,,,,,,,,,,,,,,,,,,,,,,,,,,,,,,,,,,,,,,,,,,,,,,,,,,,,,,,
,,,,6,2.9751,,,,,,169,onion,yogurt,,89699,001,2022-04-29_15h36.45.856,SPAMnetsValid,2021.1.4,Win32,59.86590038,,,,,,,,,,,,,6,2.9751,0,53,53,24,1,,,,,,,,,,,,,,,,,,,,,,,,,,,,,,,,,,,,,,,,,,,,,,,,,,,,,,,,,,,,,,,,,,,,,,
,,,,3,2.3214,,,,,,101,cactus,kitchen,,89699,001,2022-04-29_15h36.45.856,SPAMnetsValid,2021.1.4,Win32,59.86590038,,,,,,,,,,,,,3,2.3214,0,54,54,54,1,,,,,,,,,,,,,,,,,,,,,,,,,,,,,,,,,,,,,,,,,,,,,,,,,,,,,,,,,,,,,,,,,,,,,,
,,,,5,2.6031,,,,,,103,pretzel,tomato,,89699,001,2022-04-29_15h36.45.856,SPAMnetsValid,2021.1.4,Win32,59.86590038,,,,,,,,,,,,,5,2.6031,0,55,55,79,1,,,,,,,,,,,,,,,,,,,,,,,,,,,,,,,,,,,,,,,,,,,,,,,,,,,,,,,,,,,,,,,,,,,,,,
,,,,5,2.6092,,,,,,179,broom,oven,,89699,001,2022-04-29_15h36.45.856,SPAMnetsValid,2021.1.4,Win32,59.86590038,,,,,,,,,,,,,5,2.6092,0,56,56,45,1,,,,,,,,,,,,,,,,,,,,,,,,,,,,,,,,,,,,,,,,,,,,,,,,,,,,,,,,,,,,,,,,,,,,,,
,,,,4,3.0601,,,,,,119,strawberry,tree,,89699,001,2022-04-29_15h36.45.856,SPAMnetsValid,2021.1.4,Win32,59.86590038,,,,,,,,,,,,,4,3.0601,0,57,57,18,1,,,,,,,,,,,,,,,,,,,,,,,,,,,,,,,,,,,,,,,,,,,,,,,,,,,,,,,,,,,,,,,,,,,,,,
,,,,5,1.9296,,,,,,151,microwave,onion,,89699,001,2022-04-29_15h36.45.856,SPAMnetsValid,2021.1.4,Win32,59.86590038,,,,,,,,,,,,,5,1.9296,0,58,58,6,1,,,,,,,,,,,,,,,,,,,,,,,,,,,,,,,,,,,,,,,,,,,,,,,,,,,,,,,,,,,,,,,,,,,,,,
,,,,2,3.3555,,,,,,164,cookie,garden,,89699,001,2022-04-29_15h36.45.856,SPAMnetsValid,2021.1.4,Win32,59.86590038,,,,,,,,,,,,,2,3.3555,0,59,59,59,1,,,,,,,,,,,,,,,,,,,,,,,,,,,,,,,,,,,,,,,,,,,,,,,,,,,,,,,,,,,,,,,,,,,,,,
,,,,3,2.8119,,,,,,126,kitchen,tree,,89699,001,2022-04-29_15h36.45.856,SPAMnetsValid,2021.1.4,Win32,59.86590038,,,,,,,,,,,,,3,2.8119,0,60,60,50,1,,,,,,,,,,,,,,,,,,,,,,,,,,,,,,,,,,,,,,,,,,,,,,,,,,,,,,,,,,,,,,,,,,,,,,
,,,,8,3.2767,,,,,,154,strawberry,yogurt,,89699,001,2022-04-29_15h36.45.856,SPAMnetsValid,2021.1.4,Win32,59.86590038,,,,,,,,,,,,,8,3.2767,0,61,61,28,1,,,,,,,,,,,,,,,,,,,,,,,,,,,,,,,,,,,,,,,,,,,,,,,,,,,,,,,,,,,,,,,,,,,,,,
,,,,4,3.7117,,,,,,134,carrot,flower,,89699,001,2022-04-29_15h36.45.856,SPAMnetsValid,2021.1.4,Win32,59.86590038,,,,,,,,,,,,,4,3.7117,0,62,62,93,1,,,,,,,,,,,,,,,,,,,,,,,,,,,,,,,,,,,,,,,,,,,,,,,,,,,,,,,,,,,,,,,,,,,,,,
,,,,5,3.0737,,,,,,96,oven,strawberry,,89699,001,2022-04-29_15h36.45.856,SPAMnetsValid,2021.1.4,Win32,59.86590038,,,,,,,,,,,,,5,3.0737,0,63,63,67,1,,,,,,,,,,,,,,,,,,,,,,,,,,,,,,,,,,,,,,,,,,,,,,,,,,,,,,,,,,,,,,,,,,,,,,
,,,,6,2.8068,,,,,,171,cake,tomato,,89699,001,2022-04-29_15h36.45.856,SPAMnetsValid,2021.1.4,Win32,59.86590038,,,,,,,,,,,,,6,2.8068,0,64,64,88,1,,,,,,,,,,,,,,,,,,,,,,,,,,,,,,,,,,,,,,,,,,,,,,,,,,,,,,,,,,,,,,,,,,,,,,
,,,,6,3.6636,,,,,,181,carrot,kitchen,,89699,001,2022-04-29_15h36.45.856,SPAMnetsValid,2021.1.4,Win32,59.86590038,,,,,,,,,,,,,6,3.6636,0,65,65,72,1,,,,,,,,,,,,,,,,,,,,,,,,,,,,,,,,,,,,,,,,,,,,,,,,,,,,,,,,,,,,,,,,,,,,,,
,,,,6,1.713,,,,,,131,cactus,garden,,89699,001,2022-04-29_15h36.45.856,SPAMnetsValid,2021.1.4,Win32,59.86590038,,,,,,,,,,,,,6,1.713,0,66,66,33,1,,,,,,,,,,,,,,,,,,,,,,,,,,,,,,,,,,,,,,,,,,,,,,,,,,,,,,,,,,,,,,,,,,,,,,
,,,,6,1.4388,,,,,,161,kitchen,pretzel,,89699,001,2022-04-29_15h36.45.856,SPAMnetsValid,2021.1.4,Win32,59.86590038,,,,,,,,,,,,,6,1.4388,0,67,67,36,1,,,,,,,,,,,,,,,,,,,,,,,,,,,,,,,,,,,,,,,,,,,,,,,,,,,,,,,,,,,,,,,,,,,,,,
,,,,8,2.804,,,,,,138,flower,rose,,89699,001,2022-04-29_15h36.45.856,SPAMnetsValid,2021.1.4,Win32,59.86590038,,,,,,,,,,,,,8,2.804,0,68,68,61,1,,,,,,,,,,,,,,,,,,,,,,,,,,,,,,,,,,,,,,,,,,,,,,,,,,,,,,,,,,,,,,,,,,,,,,
,,,,6,3.3306,,,,,,168,cactus,flower,,89699,001,2022-04-29_15h36.45.856,SPAMnetsValid,2021.1.4,Win32,59.86590038,,,,,,,,,,,,,6,3.3306,0,69,69,51,1,,,,,,,,,,,,,,,,,,,,,,,,,,,,,,,,,,,,,,,,,,,,,,,,,,,,,,,,,,,,,,,,,,,,,,
,,,,3,2.3287,,,,,,109,broom,strawberry,,89699,001,2022-04-29_15h36.45.856,SPAMnetsValid,2021.1.4,Win32,59.86590038,,,,,,,,,,,,,3,2.3287,0,70,70,4,1,,,,,,,,,,,,,,,,,,,,,,,,,,,,,,,,,,,,,,,,,,,,,,,,,,,,,,,,,,,,,,,,,,,,,,
,,,,7,1.6881,,,,,,163,melon,refrigerator,,89699,001,2022-04-29_15h36.45.856,SPAMnetsValid,2021.1.4,Win32,59.86590038,,,,,,,,,,,,,7,1.6881,0,71,71,29,1,,,,,,,,,,,,,,,,,,,,,,,,,,,,,,,,,,,,,,,,,,,,,,,,,,,,,,,,,,,,,,,,,,,,,,
,,,,4,4.4424,,,,,,149,broom,tomato,,89699,001,2022-04-29_15h36.45.856,SPAMnetsValid,2021.1.4,Win32,59.86590038,,,,,,,,,,,,,4,4.4424,0,72,72,20,1,,,,,,,,,,,,,,,,,,,,,,,,,,,,,,,,,,,,,,,,,,,,,,,,,,,,,,,,,,,,,,,,,,,,,,
,,,,4,2.7849,,,,,,190,microwave,strawberry,,89699,001,2022-04-29_15h36.45.856,SPAMnetsValid,2021.1.4,Win32,59.86590038,,,,,,,,,,,,,4,2.7849,0,73,73,90,1,,,,,,,,,,,,,,,,,,,,,,,,,,,,,,,,,,,,,,,,,,,,,,,,,,,,,,,,,,,,,,,,,,,,,,
,,,,4,1.4723,,,,,,105,cactus,oven,,89699,001,2022-04-29_15h36.45.856,SPAMnetsValid,2021.1.4,Win32,59.86590038,,,,,,,,,,,,,4,1.4723,0,74,74,13,1,,,,,,,,,,,,,,,,,,,,,,,,,,,,,,,,,,,,,,,,,,,,,,,,,,,,,,,,,,,,,,,,,,,,,,
,,,,6,1.9712,,,,,,172,kitchen,melon,,89699,001,2022-04-29_15h36.45.856,SPAMnetsValid,2021.1.4,Win32,59.86590038,,,,,,,,,,,,,6,1.9712,0,75,75,77,1,,,,,,,,,,,,,,,,,,,,,,,,,,,,,,,,,,,,,,,,,,,,,,,,,,,,,,,,,,,,,,,,,,,,,,
,,,,2,1.8196,,,,,,127,cactus,chocolate,,89699,001,2022-04-29_15h36.45.856,SPAMnetsValid,2021.1.4,Win32,59.86590038,,,,,,,,,,,,,2,1.8196,0,76,76,57,1,,,,,,,,,,,,,,,,,,,,,,,,,,,,,,,,,,,,,,,,,,,,,,,,,,,,,,,,,,,,,,,,,,,,,,
,,,,7,2.2959,,,,,,188,flower,tree,,89699,001,2022-04-29_15h36.45.856,SPAMnetsValid,2021.1.4,Win32,59.86590038,,,,,,,,,,,,,7,2.2959,0,77,77,7,1,,,,,,,,,,,,,,,,,,,,,,,,,,,,,,,,,,,,,,,,,,,,,,,,,,,,,,,,,,,,,,,,,,,,,,
,,,,6,2.6604,,,,,,107,rose,tomato,,89699,001,2022-04-29_15h36.45.856,SPAMnetsValid,2021.1.4,Win32,59.86590038,,,,,,,,,,,,,6,2.6604,0,78,78,26,1,,,,,,,,,,,,,,,,,,,,,,,,,,,,,,,,,,,,,,,,,,,,,,,,,,,,,,,,,,,,,,,,,,,,,,
,,,,7,2.3712,,,,,,99,garden,melon,,89699,001,2022-04-29_15h36.45.856,SPAMnetsValid,2021.1.4,Win32,59.86590038,,,,,,,,,,,,,7,2.3712,0,79,79,17,1,,,,,,,,,,,,,,,,,,,,,,,,,,,,,,,,,,,,,,,,,,,,,,,,,,,,,,,,,,,,,,,,,,,,,,
,,,,5,3.7697,,,,,,178,cactus,carrot,,89699,001,2022-04-29_15h36.45.856,SPAMnetsValid,2021.1.4,Win32,59.86590038,,,,,,,,,,,,,5,3.7697,0,80,80,75,1,,,,,,,,,,,,,,,,,,,,,,,,,,,,,,,,,,,,,,,,,,,,,,,,,,,,,,,,,,,,,,,,,,,,,,
,,,,3,5.9957,,,,,,182,flower,refrigerator,,89699,001,2022-04-29_15h36.45.856,SPAMnetsValid,2021.1.4,Win32,59.86590038,,,,,,,,,,,,,3,5.9957,0,81,81,32,1,,,,,,,,,,,,,,,,,,,,,,,,,,,,,,,,,,,,,,,,,,,,,,,,,,,,,,,,,,,,,,,,,,,,,,
,,,,6,2.0342,,,,,,147,cake,refrigerator,,89699,001,2022-04-29_15h36.45.856,SPAMnetsValid,2021.1.4,Win32,59.86590038,,,,,,,,,,,,,6,2.0342,0,82,82,35,1,,,,,,,,,,,,,,,,,,,,,,,,,,,,,,,,,,,,,,,,,,,,,,,,,,,,,,,,,,,,,,,,,,,,,,
,,,,3,2.0872,,,,,,121,broom,microwave,,89699,001,2022-04-29_15h36.45.856,SPAMnetsValid,2021.1.4,Win32,59.86590038,,,,,,,,,,,,,3,2.0872,0,83,83,95,1,,,,,,,,,,,,,,,,,,,,,,,,,,,,,,,,,,,,,,,,,,,,,,,,,,,,,,,,,,,,,,,,,,,,,,
,,,,7,1.997,,,,,,139,carrot,strawberry,,89699,001,2022-04-29_15h36.45.856,SPAMnetsValid,2021.1.4,Win32,59.86590038,,,,,,,,,,,,,7,1.997,0,84,84,37,1,,,,,,,,,,,,,,,,,,,,,,,,,,,,,,,,,,,,,,,,,,,,,,,,,,,,,,,,,,,,,,,,,,,,,,
,,,,3,2.0057,,,,,,125,carrot,tree,,89699,001,2022-04-29_15h36.45.856,SPAMnetsValid,2021.1.4,Win32,59.86590038,,,,,,,,,,,,,3,2.0057,0,85,85,30,1,,,,,,,,,,,,,,,,,,,,,,,,,,,,,,,,,,,,,,,,,,,,,,,,,,,,,,,,,,,,,,,,,,,,,,
,,,,6,2.3372,,,,,,142,garden,tree,,89699,001,2022-04-29_15h36.45.856,SPAMnetsValid,2021.1.4,Win32,59.86590038,,,,,,,,,,,,,6,2.3372,0,86,86,22,1,,,,,,,,,,,,,,,,,,,,,,,,,,,,,,,,,,,,,,,,,,,,,,,,,,,,,,,,,,,,,,,,,,,,,,
,,,,4,2.1413,,,,,,123,cookie,tree,,89699,001,2022-04-29_15h36.45.856,SPAMnetsValid,2021.1.4,Win32,59.86590038,,,,,,,,,,,,,4,2.1413,0,87,87,46,1,,,,,,,,,,,,,,,,,,,,,,,,,,,,,,,,,,,,,,,,,,,,,,,,,,,,,,,,,,,,,,,,,,,,,,
,,,,6,2.2407,,,,,,108,carrot,chocolate,,89699,001,2022-04-29_15h36.45.856,SPAMnetsValid,2021.1.4,Win32,59.86590038,,,,,,,,,,,,,6,2.2407,0,88,88,5,1,,,,,,,,,,,,,,,,,,,,,,,,,,,,,,,,,,,,,,,,,,,,,,,,,,,,,,,,,,,,,,,,,,,,,,
,,,,6,1.3778,,,,,,153,carrot,pretzel,,89699,001,2022-04-29_15h36.45.856,SPAMnetsValid,2021.1.4,Win32,59.86590038,,,,,,,,,,,,,6,1.3778,0,89,89,34,1,,,,,,,,,,,,,,,,,,,,,,,,,,,,,,,,,,,,,,,,,,,,,,,,,,,,,,,,,,,,,,,,,,,,,,
,,,,2,1.9472,,,,,,146,pretzel,tree,,89699,001,2022-04-29_15h36.45.856,SPAMnetsValid,2021.1.4,Win32,59.86590038,,,,,,,,,,,,,2,1.9472,0,90,90,80,1,,,,,,,,,,,,,,,,,,,,,,,,,,,,,,,,,,,,,,,,,,,,,,,,,,,,,,,,,,,,,,,,,,,,,,
,,,,6,1.5868,,,,,,175,melon,onion,,89699,001,2022-04-29_15h36.45.856,SPAMnetsValid,2021.1.4,Win32,59.86590038,,,,,,,,,,,,,6,1.5868,0,91,91,41,1,,,,,,,,,,,,,,,,,,,,,,,,,,,,,,,,,,,,,,,,,,,,,,,,,,,,,,,,,,,,,,,,,,,,,,
,,,,4,1.7588,,,,,,156,melon,rose,,89699,001,2022-04-29_15h36.45.856,SPAMnetsValid,2021.1.4,Win32,59.86590038,,,,,,,,,,,,,4,1.7588,0,92,92,31,1,,,,,,,,,,,,,,,,,,,,,,,,,,,,,,,,,,,,,,,,,,,,,,,,,,,,,,,,,,,,,,,,,,,,,,
,,,,8,1.7216,,,,,,150,microwave,refrigerator,,89699,001,2022-04-29_15h36.45.856,SPAMnetsValid,2021.1.4,Win32,59.86590038,,,,,,,,,,,,,8,1.7216,0,93,93,66,1,,,,,,,,,,,,,,,,,,,,,,,,,,,,,,,,,,,,,,,,,,,,,,,,,,,,,,,,,,,,,,,,,,,,,,
,,,,4,2.2768,,,,,,104,garden,microwave,,89699,001,2022-04-29_15h36.45.856,SPAMnetsValid,2021.1.4,Win32,59.86590038,,,,,,,,,,,,,4,2.2768,0,94,94,81,1,,,,,,,,,,,,,,,,,,,,,,,,,,,,,,,,,,,,,,,,,,,,,,,,,,,,,,,,,,,,,,,,,,,,,,
,,,,7,3.6427,,,,,,124,oven,refrigerator,,89699,001,2022-04-29_15h36.45.856,SPAMnetsValid,2021.1.4,Win32,59.86590038,,,,,,,,,,,,,7,3.6427,0,95,95,69,1,,,,,,,,,,,,,,,,,,,,,,,,,,,,,,,,,,,,,,,,,,,,,,,,,,,,,,,,,,,,,,,,,,,,,,
,,,,7,2.2587,,,,,,166,cake,yogurt,,89699,001,2022-04-29_15h36.45.856,SPAMnetsValid,2021.1.4,Win32,59.86590038,,,,,,,,,,,,,7,2.2587,0,96,96,91,1,,,,,,,,,,,,,,,,,,,,,,,,,,,,,,,,,,,,,,,,,,,,,,,,,,,,,,,,,,,,,,,,,,,,,,
,,,,,,,,,,,,,,,89699,001,2022-04-29_15h36.45.856,SPAMnetsValid,2021.1.4,Win32,59.86590038,,,,,,,,,,,,,,,,,,,,0,0,0,0,1,,,,,,,,,,,,,,,,,,,,,,,,,,,,,,,,,,,,,,,,,,,,,,,,,,,,,,,,,,,,,,,,,
,,,,,,,,,,,,,,,89699,001,2022-04-29_15h36.45.856,SPAMnetsValid,2021.1.4,Win32,59.86590038,,,,,,0,1,1,1,1,0,1,,,,,,,,,,,,,,,,,,,,,,,,,,,,,,,,,,,,,,,,,,,,,,,,,,,,,,,,,,,,,,,,,,,,,,,,,,,,,
,,,,,,,,,,,,,,,89699,001,2022-04-29_15h36.45.856,SPAMnetsValid,2021.1.4,Win32,59.86590038,,,,,,,,,,,,,,,,,,,,,,,,,3,5.2867,0,0,0,0,1,rancor,forbearance,ridicule,malice,bravery,3,,,,,,,,,,,,,,,,,,,,,,,,,,,,,,,,,,,,,,,,,,,,,,,,,,,,
,,,,,,,,,,,,,,,89699,001,2022-04-29_15h36.45.856,SPAMnetsValid,2021.1.4,Win32,59.86590038,,,,,,,,,,,,,,,,,,,,,,,,,4,4.3602,0,1,1,1,1,raucous,empty,quiet,smooth,harsh,4,,,,,,,,,,,,,,,,,,,,,,,,,,,,,,,,,,,,,,,,,,,,,,,,,,,,
,,,,,,,,,,,,,,,89699,001,2022-04-29_15h36.45.856,SPAMnetsValid,2021.1.4,Win32,59.86590038,,,,,,,,,,,,,,,,,,,,,,,,,4,7.5943,0,2,2,2,1,gargoyle,oil,medicine,carved waterspout,ugly building,3,,,,,,,,,,,,,,,,,,,,,,,,,,,,,,,,,,,,,,,,,,,,,,,,,,,,
,,,,,,,,,,,,,,,89699,001,2022-04-29_15h36.45.856,SPAMnetsValid,2021.1.4,Win32,59.86590038,,,,,,,,,,,,,,,,,,,,,,,,,3,8.0975,0,3,3,3,1,recrudesce,purify,renew activity,lack refinement,crush,2,,,,,,,,,,,,,,,,,,,,,,,,,,,,,,,,,,,,,,,,,,,,,,,,,,,,
,,,,,,,,,,,,,,,89699,001,2022-04-29_15h36.45.856,SPAMnetsValid,2021.1.4,Win32,59.86590038,,,,,,,,,,,,,,,,,,,,,,,,,3,4.6377,0,4,4,4,1,specious,"plausible, but not genuine",noteworthy,class or variety,roomy,1,,,,,,,,,,,,,,,,,,,,,,,,,,,,,,,,,,,,,,,,,,,,,,,,,,,,
,,,,,,,,,,,,,,,89699,001,2022-04-29_15h36.45.856,SPAMnetsValid,2021.1.4,Win32,59.86590038,,,,,,,,,,,,,,,,,,,,,,,,,3,3.4235,0,5,5,5,1,bauble,bubble,showy plaything,idle talk,confusion,2,,,,,,,,,,,,,,,,,,,,,,,,,,,,,,,,,,,,,,,,,,,,,,,,,,,,
,,,,,,,,,,,,,,,89699,001,2022-04-29_15h36.45.856,SPAMnetsValid,2021.1.4,Win32,59.86590038,,,,,,,,,,,,,,,,,,,,,,,,,2,5.6827,0,6,6,6,1,prolific,scarce,producing abundantly,reckless,speaking profanely,2,,,,,,,,,,,,,,,,,,,,,,,,,,,,,,,,,,,,,,,,,,,,,,,,,,,,
,,,,,,,,,,,,,,,89699,001,2022-04-29_15h36.45.856,SPAMnetsValid,2021.1.4,Win32,59.86590038,,,,,,,,,,,,,,,,,,,,,,,,,4,7.3543,0,7,7,7,1,opulent,party,wealthy,happy frame of mind,semiprecious stone,2,,,,,,,,,,,,,,,,,,,,,,,,,,,,,,,,,,,,,,,,,,,,,,,,,,,,
,,,,,,,,,,,,,,,89699,001,2022-04-29_15h36.45.856,SPAMnetsValid,2021.1.4,Win32,59.86590038,,,,,,,,,,,,,,,,,,,,,,,,,4,10.2227,0,8,8,8,1,coercion,conspiracy,strategy,restraint,attraction,3,,,,,,,,,,,,,,,,,,,,,,,,,,,,,,,,,,,,,,,,,,,,,,,,,,,,
,,,,,,,,,,,,,,,89699,001,2022-04-29_15h36.45.856,SPAMnetsValid,2021.1.4,Win32,59.86590038,,,,,,,,,,,,,,,,,,,,,,,,,4,5.4549,0,9,9,9,1,hiatus,animal,calamity,dread,gap,4,,,,,,,,,,,,,,,,,,,,,,,,,,,,,,,,,,,,,,,,,,,,,,,,,,,,
,,,,,,,,,,,,,,,89699,001,2022-04-29_15h36.45.856,SPAMnetsValid,2021.1.4,Win32,59.86590038,,,,,,,,,,,,,,,,,,,,,,,,,1,7.4236,0,10,10,10,1,germane,microbe,contagious,relevant,different,3,,,,,,,,,,,,,,,,,,,,,,,,,,,,,,,,,,,,,,,,,,,,,,,,,,,,
,,,,,,,,,,,,,,,89699,001,2022-04-29_15h36.45.856,SPAMnetsValid,2021.1.4,Win32,59.86590038,,,,,,,,,,,,,,,,,,,,,,,,,4,5.87,0,11,11,11,1,perfunctory,fundamental,formal,superficial,careful,3,,,,,,,,,,,,,,,,,,,,,,,,,,,,,,,,,,,,,,,,,,,,,,,,,,,,
,,,,,,,,,,,,,,,89699,001,2022-04-29_15h36.45.856,SPAMnetsValid,2021.1.4,Win32,59.86590038,,,,,,,,,,,,,,,,,,,,,,,,,1,6.282,0,12,12,12,1,diverge,reveal,chant,distract the attention of,differ or turn off from,4,,,,,,,,,,,,,,,,,,,,,,,,,,,,,,,,,,,,,,,,,,,,,,,,,,,,
,,,,,,,,,,,,,,,89699,001,2022-04-29_15h36.45.856,SPAMnetsValid,2021.1.4,Win32,59.86590038,,,,,,,,,,,,,,,,,,,,,,,,,4,2.9239,0,13,13,13,1,evoke,take away,anger,connect,bring out,4,,,,,,,,,,,,,,,,,,,,,,,,,,,,,,,,,,,,,,,,,,,,,,,,,,,,
,,,,,,,,,,,,,,,89699,001,2022-04-29_15h36.45.856,SPAMnetsValid,2021.1.4,Win32,59.86590038,,,,,,,,,,,,,,,,,,,,,,,,,3,5.7547,0,14,14,14,1,pertinent,relevant,lying next to,necessary,bold,1,,,,,,,,,,,,,,,,,,,,,,,,,,,,,,,,,,,,,,,,,,,,,,,,,,,,
,,,,,,,,,,,,,,,89699,001,2022-04-29_15h36.45.856,SPAMnetsValid,2021.1.4,Win32,59.86590038,,,,,,,,,,,,,,,,,,,,,,,,,2,2.404,0,15,15,15,1,holocaust,entirety,destruction,saintly,price,2,,,,,,,,,,,,,,,,,,,,,,,,,,,,,,,,,,,,,,,,,,,,,,,,,,,,
,,,,,,,,,,,,,,,89699,001,2022-04-29_15h36.45.856,SPAMnetsValid,2021.1.4,Win32,59.86590038,,,,,,,,,,,,,,,,,,,,,,,,,3,3.7559,0,16,16,16,1,piquant,mellow,fish,pungent,cloth,3,,,,,,,,,,,,,,,,,,,,,,,,,,,,,,,,,,,,,,,,,,,,,,,,,,,,
,,,,,,,,,,,,,,,89699,001,2022-04-29_15h36.45.856,SPAMnetsValid,2021.1.4,Win32,59.86590038,,,,,,,,,,,,,,,,,,,,,,,,,1,5.8467,0,17,17,17,1,firmament,foundation,heavens,strong,glue,2,,,,,,,,,,,,,,,,,,,,,,,,,,,,,,,,,,,,,,,,,,,,,,,,,,,,
,,,,,,,,,,,,,,,89699,001,2022-04-29_15h36.45.856,SPAMnetsValid,2021.1.4,Win32,59.86590038,,,,,,,,,,,,,,,,,,,,,,,,,,,,,,,,,,,,,,4,3.0765,0,0,0,0,1,marketable,partisan,jocular,marriageable,salable,essential,4,,,,,,,,,,,,,,,,,,,,,,,,,,,,,,,,,,,,,,
,,,,,,,,,,,,,,,89699,001,2022-04-29_15h36.45.856,SPAMnetsValid,2021.1.4,Win32,59.86590038,,,,,,,,,,,,,,,,,,,,,,,,,,,,,,,,,,,,,,5,4.6893,0,1,1,1,1,cottontail,squirrel,poplar,boa,marshy plant,rabbit,5,,,,,,,,,,,,,,,,,,,,,,,,,,,,,,,,,,,,,,
,,,,,,,,,,,,,,,89699,001,2022-04-29_15h36.45.856,SPAMnetsValid,2021.1.4,Win32,59.86590038,,,,,,,,,,,,,,,,,,,,,,,,,,,,,,,,,,,,,,3,3.106,0,2,2,2,1,boggy,afraid,false,marshy,dense,black,3,,,,,,,,,,,,,,,,,,,,,,,,,,,,,,,,,,,,,,
,,,,,,,,,,,,,,,89699,001,2022-04-29_15h36.45.856,SPAMnetsValid,2021.1.4,Win32,59.86590038,,,,,,,,,,,,,,,,,,,,,,,,,,,,,,,,,,,,,,3,6.3046,0,3,3,3,1,gruesomeness,blackness,falseness,vindictiveness,drunkenness,ghastliness,5,,,,,,,,,,,,,,,,,,,,,,,,,,,,,,,,,,,,,,
,,,,,,,,,,,,,,,89699,001,2022-04-29_15h36.45.856,SPAMnetsValid,2021.1.4,Win32,59.86590038,,,,,,,,,,,,,,,,,,,,,,,,,,,,,,,,,,,,,,1,6.9312,0,4,4,4,1,loathing,diffidence,laziness,abhorrence,cleverness,comfort,3,,,,,,,,,,,,,,,,,,,,,,,,,,,,,,,,,,,,,,
,,,,,,,,,,,,,,,89699,001,2022-04-29_15h36.45.856,SPAMnetsValid,2021.1.4,Win32,59.86590038,,,,,,,,,,,,,,,,,,,,,,,,,,,,,,,,,,,,,,2,7.6269,0,5,5,5,1,bantam,fowl,ridicule,cripple,vegetable,ensign,1,,,,,,,,,,,,,,,,,,,,,,,,,,,,,,,,,,,,,,
,,,,,,,,,,,,,,,89699,001,2022-04-29_15h36.45.856,SPAMnetsValid,2021.1.4,Win32,59.86590038,,,,,,,,,,,,,,,,,,,,,,,,,,,,,,,,,,,,,,5,2.4918,0,6,6,6,1,evoke,wake up,surrender,reconnoiter,transcend,call forth,5,,,,,,,,,,,,,,,,,,,,,,,,,,,,,,,,,,,,,,
,,,,,,,,,,,,,,,89699,001,2022-04-29_15h36.45.856,SPAMnetsValid,2021.1.4,Win32,59.86590038,,,,,,,,,,,,,,,,,,,,,,,,,,,,,,,,,,,,,,5,6.24,0,7,7,7,1,unobtrusive,unintelligent,epileptic,illogical,lineal,modest,5,,,,,,,,,,,,,,,,,,,,,,,,,,,,,,,,,,,,,,
,,,,,,,,,,,,,,,89699,001,2022-04-29_15h36.45.856,SPAMnetsValid,2021.1.4,Win32,59.86590038,,,,,,,,,,,,,,,,,,,,,,,,,,,,,,,,,,,,,,4,2.9904,0,8,8,8,1,terrain,ice cream,final test,tractor,area of ground,weight,4,,,,,,,,,,,,,,,,,,,,,,,,,,,,,,,,,,,,,,
,,,,,,,,,,,,,,,89699,001,2022-04-29_15h36.45.856,SPAMnetsValid,2021.1.4,Win32,59.86590038,,,,,,,,,,,,,,,,,,,,,,,,,,,,,,,,,,,,,,3,10.1024,0,9,9,9,1,capriciousness,stubbornness,courage,whimsicality,amazement,greediness,3,,,,,,,,,,,,,,,,,,,,,,,,,,,,,,,,,,,,,,
,,,,,,,,,,,,,,,89699,001,2022-04-29_15h36.45.856,SPAMnetsValid,2021.1.4,Win32,59.86590038,,,,,,,,,,,,,,,,,,,,,,,,,,,,,,,,,,,,,,5,6.723,0,10,10,10,1,maelstrom,slander,whirlpool,enmity,armor,majolica,2,,,,,,,,,,,,,,,,,,,,,,,,,,,,,,,,,,,,,,
,,,,,,,,,,,,,,,89699,001,2022-04-29_15h36.45.856,SPAMnetsValid,2021.1.4,Win32,59.86590038,,,,,,,,,,,,,,,,,,,,,,,,,,,,,,,,,,,,,,5,3.5412,0,11,11,11,1,tentative,critical,conclusive,authentic,provisional,apprehensive,4,,,,,,,,,,,,,,,,,,,,,,,,,,,,,,,,,,,,,,
,,,,,,,,,,,,,,,89699,001,2022-04-29_15h36.45.856,SPAMnetsValid,2021.1.4,Win32,59.86590038,,,,,,,,,,,,,,,,,,,,,,,,,,,,,,,,,,,,,,3,5.0702,0,12,12,12,1,placate,rehabilitate,plagiarize,depredate,apprise,conciliate,5,,,,,,,,,,,,,,,,,,,,,,,,,,,,,,,,,,,,,,
,,,,,,,,,,,,,,,89699,001,2022-04-29_15h36.45.856,SPAMnetsValid,2021.1.4,Win32,59.86590038,,,,,,,,,,,,,,,,,,,,,,,,,,,,,,,,,,,,,,2,7.3424,0,13,13,13,1,surcease,enlightenment,cessation,inattention,censor,substitution,2,,,,,,,,,,,,,,,,,,,,,,,,,,,,,,,,,,,,,,
,,,,,,,,,,,,,,,89699,001,2022-04-29_15h36.45.856,SPAMnetsValid,2021.1.4,Win32,59.86590038,,,,,,,,,,,,,,,,,,,,,,,,,,,,,,,,,,,,,,2,4.1532,0,14,14,14,1,apathetic,wandering,impassive,hateful,prophetic,overflowing,2,,,,,,,,,,,,,,,,,,,,,,,,,,,,,,,,,,,,,,
,,,,,,,,,,,,,,,89699,001,2022-04-29_15h36.45.856,SPAMnetsValid,2021.1.4,Win32,59.86590038,,,,,,,,,,,,,,,,,,,,,,,,,,,,,,,,,,,,,,1,3.321,0,15,15,15,1,paternoster,paternalism,patricide,malediction,benediction,prayer,5,,,,,,,,,,,,,,,,,,,,,,,,,,,,,,,,,,,,,,
,,,,,,,,,,,,,,,89699,001,2022-04-29_15h36.45.856,SPAMnetsValid,2021.1.4,Win32,59.86590038,,,,,,,,,,,,,,,,,,,,,,,,,,,,,,,,,,,,,,3,3.3019,0,16,16,16,1,opalescence,opulence,senescence,bankruptcy,iridescence,assiduity,4,,,,,,,,,,,,,,,,,,,,,,,,,,,,,,,,,,,,,,
,,,,,,,,,,,,,,,89699,001,2022-04-29_15h36.45.856,SPAMnetsValid,2021.1.4,Win32,59.86590038,,,,,,,,,,,,,,,,,,,,,,,,,,,,,,,,,,,,,,2,2.8214,0,17,17,17,1,lush,stupid,luxurious,hazy,putrid,languishing,2,,,,,,,,,,,,,,,,,,,,,,,,,,,,,,,,,,,,,,
,,,,,,,,,,,,,,,89699,001,2022-04-29_15h36.45.856,SPAMnetsValid,2021.1.4,Win32,59.86590038,,,,,,,,,,,,,,,,,,,,,,,,,,,,,,,,,,,,,,5,3.9412,0,18,18,18,1,curtailment,expenditure,abandonment,abridgment,improvement,forgery,3,,,,,,,,,,,,,,,,,,,,,,,,,,,,,,,,,,,,,,
,,,,,,,,,,,,,,,89699,001,2022-04-29_15h36.45.856,SPAMnetsValid,2021.1.4,Win32,59.86590038,,,,,,,,,,,,,,,,,,,,,,,,,,,,,,,,,,,,,,2,2.4793,0,19,19,19,1,perversity,adversity,perviousness,travesty,waywardness,gentility,4,,,,,,,,,,,,,,,,,,,,,,,,,,,,,,,,,,,,,,
,,,,,,,,,,,,,,,89699,001,2022-04-29_15h36.45.856,SPAMnetsValid,2021.1.4,Win32,59.86590038,,,,,,,,,,,,,,,,,,,,,,,,,,,,,,,,,,,,,,3,7.4374,0,20,20,20,1,calumnious,complimentary,analogous,slanderous,tempestuous,magnanimous,3,,,,,,,,,,,,,,,,,,,,,,,,,,,,,,,,,,,,,,
,,,,,,,,,,,,,,,89699,001,2022-04-29_15h36.45.856,SPAMnetsValid,2021.1.4,Win32,59.86590038,,,,,,,,,,,,,,,,,,,,,,,,,,,,,,,,,,,,,,3,2.854,0,21,21,21,1,illiberality,bigotry,imbecility,illegibility,cautery,immaturity,1,,,,,,,,,,,,,,,,,,,,,,,,,,,,,,,,,,,,,,
,,,,,,,,,,,,,,,89699,001,2022-04-29_15h36.45.856,SPAMnetsValid,2021.1.4,Win32,59.86590038,,,,,,,,,,,,,,,,,,,,,,,,,,,,,,,,,,,,,,2,4.7205,0,22,22,22,1,clabber,rejoice,gossip,curdle,crow,hobble,3,,,,,,,,,,,,,,,,,,,,,,,,,,,,,,,,,,,,,,
,,,,,,,,,,,,,,,89699,001,2022-04-29_15h36.45.856,SPAMnetsValid,2021.1.4,Win32,59.86590038,,,,,,,,,,,,,,,,,,,,,,,,,,,,,,,,,,,,,,3,3.0652,0,23,23,23,1,sedulousness,diligence,credulousness,seduction,perilousness,frankness,1,,,,,,,,,,,,,,,,,,,,,,,,,,,,,,,,,,,,,,
,,,,,,,,,,,,,,,89699,001,2022-04-29_15h36.45.856,SPAMnetsValid,2021.1.4,Win32,59.86590038,,,,,,,,,,,,,,,,,,,,,,,,,,,,,,,,,,,,,,,,,,,,,,,,,,,,sleep,pillow,0,0,0,0,1,,,,,,,,,,,,,,,,,,,,,,,,,,,,,,,
,,,,,,,,,,,,,,,89699,001,2022-04-29_15h36.45.856,SPAMnetsValid,2021.1.4,Win32,59.86590038,,,,,,,,,,,,,,,,,,,,,,,,,,,,,,,,,,,,,,,,,,,,,,,,,,,,pillow fight,pillow,1,0,1,0,1,,,,,,,,,,,,,,,,,,,,,,,,,,,,,,,
,,,,,,,,,,,,,,,89699,001,2022-04-29_15h36.45.856,SPAMnetsValid,2021.1.4,Win32,59.86590038,,,,,,,,,,,,,,,,,,,,,,,,,,,,,,,,,,,,,,,,,,,,,,,,,,,,decoration,pillow,2,0,2,0,1,,,,,,,,,,,,,,,,,,,,,,,,,,,,,,,
,,,,,,,,,,,,,,,89699,001,2022-04-29_15h36.45.856,SPAMnetsValid,2021.1.4,Win32,59.86590038,,,,,,,,,,,,,,,,,,,,,,,,,,,,,,,,,,,,,,,,,,,,,,,,,,,,bedding,pillow,3,0,3,0,1,,,,,,,,,,,,,,,,,,,,,,,,,,,,,,,
,,,,,,,,,,,,,,,89699,001,2022-04-29_15h36.45.856,SPAMnetsValid,2021.1.4,Win32,59.86590038,,,,,,,,,,,,,,,,,,,,,,,,,,,,,,,,,,,,,,,,,,,,,,,,,,,,cushion,pillow,4,0,4,0,1,,,,,,,,,,,,,,,,,,,,,,,,,,,,,,,
,,,,,,,,,,,,,,,89699,001,2022-04-29_15h36.45.856,SPAMnetsValid,2021.1.4,Win32,59.86590038,,,,,,,,,,,,,,,,,,,,,,,,,,,,,,,,,,,,,,,,,,,,,,,,,,,,punching bag,pillow,5,0,5,0,1,,,,,,,,,,,,,,,,,,,,,,,,,,,,,,,
,,,,,,,,,,,,,,,89699,001,2022-04-29_15h36.45.856,SPAMnetsValid,2021.1.4,Win32,59.86590038,,,,,,,,,,,,,,,,,,,,,,,,,,,,,,,,,,,,,,,,,,,,,,,,,,,,emotional support,pillow,6,0,6,0,1,,,,,,,,,,,,,,,,,,,,,,,,,,,,,,,
,,,,,,,,,,,,,,,89699,001,2022-04-29_15h36.45.856,SPAMnetsValid,2021.1.4,Win32,59.86590038,,,,,,,,,,,,,,,,,,,,,,,,,,,,,,,,,,,,,,,,,,,,,,,,,,,,table,pillow,7,0,7,0,1,,,,,,,,,,,,,,,,,,,,,,,,,,,,,,,
,,,,,,,,,,,,,,,89699,001,2022-04-29_15h36.45.856,SPAMnetsValid,2021.1.4,Win32,59.86590038,,,,,,,,,,,,,,,,,,,,,,,,,,,,,,,,,,,,,,,,,,,,,,,,,,,,arm rest,pillow,8,0,8,0,1,,,,,,,,,,,,,,,,,,,,,,,,,,,,,,,
,,,,,,,,,,,,,,,89699,001,2022-04-29_15h36.45.856,SPAMnetsValid,2021.1.4,Win32,59.86590038,,,,,,,,,,,,,,,,,,,,,,,,,,,,,,,,,,,,,,,,,,,,,,,,,,,,fake boyfriend/girlfriend,pillow,9,0,9,0,1,,,,,,,,,,,,,,,,,,,,,,,,,,,,,,,
,,,,,,,,,,,,,,,89699,001,2022-04-29_15h36.45.856,SPAMnetsValid,2021.1.4,Win32,59.86590038,,,,,,,,,,,,,,,,,,,,,,,,,,,,,,,,,,,,,,,,,,,,,,,,,,,,,pillow,10,0,10,0,1,,,,,,,,,,,,,,,,,,,,,,,,,,,,,,,
,,,,,,,,,,,,,,,89699,001,2022-04-29_15h36.45.856,SPAMnetsValid,2021.1.4,Win32,59.86590038,,,,,,,,,,,,,,,,,,,,,,,,,,,,,,,,,,,,,,,,,,,,,,,,,,,,,,,,,,,0,0,0,2,1,pillow,,,,,,,,,,,,,,,,,,,,,,,,,
,,,,,,,,,,,,,,,89699,001,2022-04-29_15h36.45.856,SPAMnetsValid,2021.1.4,Win32,59.86590038,,,,,,,,,,,,,,,,,,,,,,,,,,,,,,,,,,,,,,,,,,,,,,,,,,,,light,candle,0,0,0,0,1,,,,,,,,,,,,,,,,,,,,,,,,,,,,,,,
,,,,,,,,,,,,,,,89699,001,2022-04-29_15h36.45.856,SPAMnetsValid,2021.1.4,Win32,59.86590038,,,,,,,,,,,,,,,,,,,,,,,,,,,,,,,,,,,,,,,,,,,,,,,,,,,,decoration,candle,1,0,1,0,1,,,,,,,,,,,,,,,,,,,,,,,,,,,,,,,
,,,,,,,,,,,,,,,89699,001,2022-04-29_15h36.45.856,SPAMnetsValid,2021.1.4,Win32,59.86590038,,,,,,,,,,,,,,,,,,,,,,,,,,,,,,,,,,,,,,,,,,,,,,,,,,,,heat,candle,2,0,2,0,1,,,,,,,,,,,,,,,,,,,,,,,,,,,,,,,
,,,,,,,,,,,,,,,89699,001,2022-04-29_15h36.45.856,SPAMnetsValid,2021.1.4,Win32,59.86590038,,,,,,,,,,,,,,,,,,,,,,,,,,,,,,,,,,,,,,,,,,,,,,,,,,,,use to cook,candle,3,0,3,0,1,,,,,,,,,,,,,,,,,,,,,,,,,,,,,,,
,,,,,,,,,,,,,,,89699,001,2022-04-29_15h36.45.856,SPAMnetsValid,2021.1.4,Win32,59.86590038,,,,,,,,,,,,,,,,,,,,,,,,,,,,,,,,,,,,,,,,,,,,,,,,,,,,melt things,candle,4,0,4,0,1,,,,,,,,,,,,,,,,,,,,,,,,,,,,,,,
,,,,,,,,,,,,,,,89699,001,2022-04-29_15h36.45.856,SPAMnetsValid,2021.1.4,Win32,59.86590038,,,,,,,,,,,,,,,,,,,,,,,,,,,,,,,,,,,,,,,,,,,,,,,,,,,,weapon,candle,5,0,5,0,1,,,,,,,,,,,,,,,,,,,,,,,,,,,,,,,
,,,,,,,,,,,,,,,89699,001,2022-04-29_15h36.45.856,SPAMnetsValid,2021.1.4,Win32,59.86590038,,,,,,,,,,,,,,,,,,,,,,,,,,,,,,,,,,,,,,,,,,,,,,,,,,,,match,candle,6,0,6,0,1,,,,,,,,,,,,,,,,,,,,,,,,,,,,,,,
,,,,,,,,,,,,,,,89699,001,2022-04-29_15h36.45.856,SPAMnetsValid,2021.1.4,Win32,59.86590038,,,,,,,,,,,,,,,,,,,,,,,,,,,,,,,,,,,,,,,,,,,,,,,,,,,,,,,,,,,0,1,1,1,1,candle,,,,,,,,,,,,,,,,,,,,,,,,,
,,,,,,,,,,,,,,,89699,001,2022-04-29_15h36.45.856,SPAMnetsValid,2021.1.4,Win32,59.86590038,,,,,,,,,,,,,,,,,,,,,,,,,,,,,,,,,,,,,,,,,,,,,,,,,,,,hat,bucket,0,0,0,0,1,,,,,,,,,,,,,,,,,,,,,,,,,,,,,,,
,,,,,,,,,,,,,,,89699,001,2022-04-29_15h36.45.856,SPAMnetsValid,2021.1.4,Win32,59.86590038,,,,,,,,,,,,,,,,,,,,,,,,,,,,,,,,,,,,,,,,,,,,,,,,,,,,hold shells at beahc,bucket,1,0,1,0,1,,,,,,,,,,,,,,,,,,,,,,,,,,,,,,,
,,,,,,,,,,,,,,,89699,001,2022-04-29_15h36.45.856,SPAMnetsValid,2021.1.4,Win32,59.86590038,,,,,,,,,,,,,,,,,,,,,,,,,,,,,,,,,,,,,,,,,,,,,,,,,,,,hold water,bucket,2,0,2,0,1,,,,,,,,,,,,,,,,,,,,,,,,,,,,,,,
,,,,,,,,,,,,,,,89699,001,2022-04-29_15h36.45.856,SPAMnetsValid,2021.1.4,Win32,59.86590038,,,,,,,,,,,,,,,,,,,,,,,,,,,,,,,,,,,,,,,,,,,,,,,,,,,,hold anything,bucket,3,0,3,0,1,,,,,,,,,,,,,,,,,,,,,,,,,,,,,,,
,,,,,,,,,,,,,,,89699,001,2022-04-29_15h36.45.856,SPAMnetsValid,2021.1.4,Win32,59.86590038,,,,,,,,,,,,,,,,,,,,,,,,,,,,,,,,,,,,,,,,,,,,,,,,,,,,weapon,bucket,4,0,4,0,1,,,,,,,,,,,,,,,,,,,,,,,,,,,,,,,
,,,,,,,,,,,,,,,89699,001,2022-04-29_15h36.45.856,SPAMnetsValid,2021.1.4,Win32,59.86590038,,,,,,,,,,,,,,,,,,,,,,,,,,,,,,,,,,,,,,,,,,,,,,,,,,,,storage,bucket,5,0,5,0,1,,,,,,,,,,,,,,,,,,,,,,,,,,,,,,,
,,,,,,,,,,,,,,,89699,001,2022-04-29_15h36.45.856,SPAMnetsValid,2021.1.4,Win32,59.86590038,,,,,,,,,,,,,,,,,,,,,,,,,,,,,,,,,,,,,,,,,,,,,,,,,,,,decoration,bucket,6,0,6,0,1,,,,,,,,,,,,,,,,,,,,,,,,,,,,,,,
,,,,,,,,,,,,,,,89699,001,2022-04-29_15h36.45.856,SPAMnetsValid,2021.1.4,Win32,59.86590038,,,,,,,,,,,,,,,,,,,,,,,,,,,,,,,,,,,,,,,,,,,,,,,,,,,,shoes,bucket,7,0,7,0,1,,,,,,,,,,,,,,,,,,,,,,,,,,,,,,,
,,,,,,,,,,,,,,,89699,001,2022-04-29_15h36.45.856,SPAMnetsValid,2021.1.4,Win32,59.86590038,,,,,,,,,,,,,,,,,,,,,,,,,,,,,,,,,,,,,,,,,,,,,,,,,,,,trasportation for something,bucket,8,0,8,0,1,,,,,,,,,,,,,,,,,,,,,,,,,,,,,,,
,,,,,,,,,,,,,,,89699,001,2022-04-29_15h36.45.856,SPAMnetsValid,2021.1.4,Win32,59.86590038,,,,,,,,,,,,,,,,,,,,,,,,,,,,,,,,,,,,,,,,,,,,,,,,,,,,,,,,,,,0,2,2,0,1,bucket,,,,,,,,,,,,,,,,,,,,,,,,,
,,,,,,,,,,,,,,,89699,001,2022-04-29_15h36.45.856,SPAMnetsValid,2021.1.4,Win32,59.86590038,,,,,,,,,,,,,,,,,,,,,,,,,,,,,,,,,,,,,,,,,,,,,,,,,,,,,,,,,,,,,,,,,cats,Animals,0,0,0,0,1,,,,,,,,,,,,,,,,,,
,,,,,,,,,,,,,,,89699,001,2022-04-29_15h36.45.856,SPAMnetsValid,2021.1.4,Win32,59.86590038,,,,,,,,,,,,,,,,,,,,,,,,,,,,,,,,,,,,,,,,,,,,,,,,,,,,,,,,,,,,,,,,,dogs,Animals,1,0,1,0,1,,,,,,,,,,,,,,,,,,
,,,,,,,,,,,,,,,89699,001,2022-04-29_15h36.45.856,SPAMnetsValid,2021.1.4,Win32,59.86590038,,,,,,,,,,,,,,,,,,,,,,,,,,,,,,,,,,,,,,,,,,,,,,,,,,,,,,,,,,,,,,,,,tiger,Animals,2,0,2,0,1,,,,,,,,,,,,,,,,,,
,,,,,,,,,,,,,,,89699,001,2022-04-29_15h36.45.856,SPAMnetsValid,2021.1.4,Win32,59.86590038,,,,,,,,,,,,,,,,,,,,,,,,,,,,,,,,,,,,,,,,,,,,,,,,,,,,,,,,,,,,,,,,,lion,Animals,3,0,3,0,1,,,,,,,,,,,,,,,,,,
,,,,,,,,,,,,,,,89699,001,2022-04-29_15h36.45.856,SPAMnetsValid,2021.1.4,Win32,59.86590038,,,,,,,,,,,,,,,,,,,,,,,,,,,,,,,,,,,,,,,,,,,,,,,,,,,,,,,,,,,,,,,,,zebra,Animals,4,0,4,0,1,,,,,,,,,,,,,,,,,,
,,,,,,,,,,,,,,,89699,001,2022-04-29_15h36.45.856,SPAMnetsValid,2021.1.4,Win32,59.86590038,,,,,,,,,,,,,,,,,,,,,,,,,,,,,,,,,,,,,,,,,,,,,,,,,,,,,,,,,,,,,,,,,bird,Animals,5,0,5,0,1,,,,,,,,,,,,,,,,,,
,,,,,,,,,,,,,,,89699,001,2022-04-29_15h36.45.856,SPAMnetsValid,2021.1.4,Win32,59.86590038,,,,,,,,,,,,,,,,,,,,,,,,,,,,,,,,,,,,,,,,,,,,,,,,,,,,,,,,,,,,,,,,,snake,Animals,6,0,6,0,1,,,,,,,,,,,,,,,,,,
,,,,,,,,,,,,,,,89699,001,2022-04-29_15h36.45.856,SPAMnetsValid,2021.1.4,Win32,59.86590038,,,,,,,,,,,,,,,,,,,,,,,,,,,,,,,,,,,,,,,,,,,,,,,,,,,,,,,,,,,,,,,,,elephant,Animals,7,0,7,0,1,,,,,,,,,,,,,,,,,,
,,,,,,,,,,,,,,,89699,001,2022-04-29_15h36.45.856,SPAMnetsValid,2021.1.4,Win32,59.86590038,,,,,,,,,,,,,,,,,,,,,,,,,,,,,,,,,,,,,,,,,,,,,,,,,,,,,,,,,,,,,,,,,fish,Animals,8,0,8,0,1,,,,,,,,,,,,,,,,,,
,,,,,,,,,,,,,,,89699,001,2022-04-29_15h36.45.856,SPAMnetsValid,2021.1.4,Win32,59.86590038,,,,,,,,,,,,,,,,,,,,,,,,,,,,,,,,,,,,,,,,,,,,,,,,,,,,,,,,,,,,,,,,,shark,Animals,9,0,9,0,1,,,,,,,,,,,,,,,,,,
,,,,,,,,,,,,,,,89699,001,2022-04-29_15h36.45.856,SPAMnetsValid,2021.1.4,Win32,59.86590038,,,,,,,,,,,,,,,,,,,,,,,,,,,,,,,,,,,,,,,,,,,,,,,,,,,,,,,,,,,,,,,,,alligators,Animals,10,0,10,0,1,,,,,,,,,,,,,,,,,,
,,,,,,,,,,,,,,,89699,001,2022-04-29_15h36.45.856,SPAMnetsValid,2021.1.4,Win32,59.86590038,,,,,,,,,,,,,,,,,,,,,,,,,,,,,,,,,,,,,,,,,,,,,,,,,,,,,,,,,,,,,,,,,bear,Animals,11,0,11,0,1,,,,,,,,,,,,,,,,,,
,,,,,,,,,,,,,,,89699,001,2022-04-29_15h36.45.856,SPAMnetsValid,2021.1.4,Win32,59.86590038,,,,,,,,,,,,,,,,,,,,,,,,,,,,,,,,,,,,,,,,,,,,,,,,,,,,,,,,,,,,,,,,,whale,Animals,12,0,12,0,1,,,,,,,,,,,,,,,,,,
,,,,,,,,,,,,,,,89699,001,2022-04-29_15h36.45.856,SPAMnetsValid,2021.1.4,Win32,59.86590038,,,,,,,,,,,,,,,,,,,,,,,,,,,,,,,,,,,,,,,,,,,,,,,,,,,,,,,,,,,,,,,,,wolf,Animals,13,0,13,0,1,,,,,,,,,,,,,,,,,,
,,,,,,,,,,,,,,,89699,001,2022-04-29_15h36.45.856,SPAMnetsValid,2021.1.4,Win32,59.86590038,,,,,,,,,,,,,,,,,,,,,,,,,,,,,,,,,,,,,,,,,,,,,,,,,,,,,,,,,,,,,,,,,panda,Animals,14,0,14,0,1,,,,,,,,,,,,,,,,,,
,,,,,,,,,,,,,,,89699,001,2022-04-29_15h36.45.856,SPAMnetsValid,2021.1.4,Win32,59.86590038,,,,,,,,,,,,,,,,,,,,,,,,,,,,,,,,,,,,,,,,,,,,,,,,,,,,,,,,,,,,,,,,,rat,Animals,15,0,15,0,1,,,,,,,,,,,,,,,,,,
,,,,,,,,,,,,,,,89699,001,2022-04-29_15h36.45.856,SPAMnetsValid,2021.1.4,Win32,59.86590038,,,,,,,,,,,,,,,,,,,,,,,,,,,,,,,,,,,,,,,,,,,,,,,,,,,,,,,,,,,,,,,,,hippo,Animals,16,0,16,0,1,,,,,,,,,,,,,,,,,,
,,,,,,,,,,,,,,,89699,001,2022-04-29_15h36.45.856,SPAMnetsValid,2021.1.4,Win32,59.86590038,,,,,,,,,,,,,,,,,,,,,,,,,,,,,,,,,,,,,,,,,,,,,,,,,,,,,,,,,,,,,,,,,racoon,Animals,17,0,17,0,1,,,,,,,,,,,,,,,,,,
,,,,,,,,,,,,,,,89699,001,2022-04-29_15h36.45.856,SPAMnetsValid,2021.1.4,Win32,59.86590038,,,,,,,,,,,,,,,,,,,,,,,,,,,,,,,,,,,,,,,,,,,,,,,,,,,,,,,,,,,,,,,,,sloth,Animals,18,0,18,0,1,,,,,,,,,,,,,,,,,,
,,,,,,,,,,,,,,,89699,001,2022-04-29_15h36.45.856,SPAMnetsValid,2021.1.4,Win32,59.86590038,,,,,,,,,,,,,,,,,,,,,,,,,,,,,,,,,,,,,,,,,,,,,,,,,,,,,,,,,,,,,,,,,pig,Animals,19,0,19,0,1,,,,,,,,,,,,,,,,,,
,,,,,,,,,,,,,,,89699,001,2022-04-29_15h36.45.856,SPAMnetsValid,2021.1.4,Win32,59.86590038,,,,,,,,,,,,,,,,,,,,,,,,,,,,,,,,,,,,,,,,,,,,,,,,,,,,,,,,,,,,,,,,,chicken,Animals,20,0,20,0,1,,,,,,,,,,,,,,,,,,
,,,,,,,,,,,,,,,89699,001,2022-04-29_15h36.45.856,SPAMnetsValid,2021.1.4,Win32,59.86590038,,,,,,,,,,,,,,,,,,,,,,,,,,,,,,,,,,,,,,,,,,,,,,,,,,,,,,,,,,,,,,,,,monkey,Animals,21,0,21,0,1,,,,,,,,,,,,,,,,,,
,,,,,,,,,,,,,,,89699,001,2022-04-29_15h36.45.856,SPAMnetsValid,2021.1.4,Win32,59.86590038,,,,,,,,,,,,,,,,,,,,,,,,,,,,,,,,,,,,,,,,,,,,,,,,,,,,,,,,,,,,,,,,,,,,,,,,0,0,0,0,1,Animals,,,,,,,,,,,,
,,,,,,,,,,,,,,,89699,001,2022-04-29_15h36.45.856,SPAMnetsValid,2021.1.4,Win32,59.86590038,,,,,,,,,,,,,,,,,,,,,,,,,,,,,,,,,,,,,,,,,,,,,,,,,,,,,,,,,,,,,,,,,,,,,,,,,,,,,,4,6.6856,0,0,0,0,1,"I enjoy concentrating on a fantasy or daydream and exploring all its possibilities, letting it grow and develop.",0,1,,
,,,,,,,,,,,,,,,89699,001,2022-04-29_15h36.45.856,SPAMnetsValid,2021.1.4,Win32,59.86590038,,,,,,,,,,,,,,,,,,,,,,,,,,,,,,,,,,,,,,,,,,,,,,,,,,,,,,,,,,,,,,,,,,,,,,,,,,,,,,4,1.6693,0,1,1,1,1,I think it's interesting to learn and develop new hobbies.,0,2,,
,,,,,,,,,,,,,,,89699,001,2022-04-29_15h36.45.856,SPAMnetsValid,2021.1.4,Win32,59.86590038,,,,,,,,,,,,,,,,,,,,,,,,,,,,,,,,,,,,,,,,,,,,,,,,,,,,,,,,,,,,,,,,,,,,,,,,,,,,,,4,2.5878,0,2,2,2,1,I am intrigued by the patterns I find in art and nature.,0,3,,
,,,,,,,,,,,,,,,89699,001,2022-04-29_15h36.45.856,SPAMnetsValid,2021.1.4,Win32,59.86590038,,,,,,,,,,,,,,,,,,,,,,,,,,,,,,,,,,,,,,,,,,,,,,,,,,,,,,,,,,,,,,,,,,,,,,,,,,,,,,3,3.7713,0,3,3,3,1,I believe letting students hear controversial speakers can only confuse and mislead them.,1,4,,
,,,,,,,,,,,,,,,89699,001,2022-04-29_15h36.45.856,SPAMnetsValid,2021.1.4,Win32,59.86590038,,,,,,,,,,,,,,,,,,,,,,,,,,,,,,,,,,,,,,,,,,,,,,,,,,,,,,,,,,,,,,,,,,,,,,,,,,,,,,4,2.395,0,4,4,4,1,Poetry has little or no effect on me.,1,5,,
,,,,,,,,,,,,,,,89699,001,2022-04-29_15h36.45.856,SPAMnetsValid,2021.1.4,Win32,59.86590038,,,,,,,,,,,,,,,,,,,,,,,,,,,,,,,,,,,,,,,,,,,,,,,,,,,,,,,,,,,,,,,,,,,,,,,,,,,,,,3,8.1507,0,5,5,5,1,I would have difficulty just letting my mind wander without control or guidance.,1,6,,
,,,,,,,,,,,,,,,89699,001,2022-04-29_15h36.45.856,SPAMnetsValid,2021.1.4,Win32,59.86590038,,,,,,,,,,,,,,,,,,,,,,,,,,,,,,,,,,,,,,,,,,,,,,,,,,,,,,,,,,,,,,,,,,,,,,,,,,,,,,4,3.9054,0,6,6,6,1,I seldom notice the moods or feelings that different environments produce.,1,7,,
,,,,,,,,,,,,,,,89699,001,2022-04-29_15h36.45.856,SPAMnetsValid,2021.1.4,Win32,59.86590038,,,,,,,,,,,,,,,,,,,,,,,,,,,,,,,,,,,,,,,,,,,,,,,,,,,,,,,,,,,,,,,,,,,,,,,,,,,,,,4,1.5416,0,7,7,7,1,I experience a wide range of emotions or feelings.,0,8,,
,,,,,,,,,,,,,,,89699,001,2022-04-29_15h36.45.856,SPAMnetsValid,2021.1.4,Win32,59.86590038,,,,,,,,,,,,,,,,,,,,,,,,,,,,,,,,,,,,,,,,,,,,,,,,,,,,,,,,,,,,,,,,,,,,,,,,,,,,,,3,4.2541,0,8,8,8,1,"Sometimes when I am reading poetry or looking at a work of art, I feel a chill or wave of excitement.",0,9,,
,,,,,,,,,,,,,,,89699,001,2022-04-29_15h36.45.856,SPAMnetsValid,2021.1.4,Win32,59.86590038,,,,,,,,,,,,,,,,,,,,,,,,,,,,,,,,,,,,,,,,,,,,,,,,,,,,,,,,,,,,,,,,,,,,,,,,,,,,,,2,8.0125,0,9,9,9,1,I have little interest in speculating on the nature of the universe or the human condition.,1,10,,
,,,,,,,,,,,,,,,89699,001,2022-04-29_15h36.45.856,SPAMnetsValid,2021.1.4,Win32,59.86590038,,,,,,,,,,,,,,,,,,,,,,,,,,,,,,,,,,,,,,,,,,,,,,,,,,,,,,,,,,,,,,,,,,,,,,,,,,,,,,4,2.9478,0,10,10,10,1,I have a lot of intellectual curiosity.,0,11,,
,,,,,,,,,,,,,,,89699,001,2022-04-29_15h36.45.856,SPAMnetsValid,2021.1.4,Win32,59.86590038,,,,,,,,,,,,,,,,,,,,,,,,,,,,,,,,,,,,,,,,,,,,,,,,,,,,,,,,,,,,,,,,,,,,,,,,,,,,,,4,3.2793,0,11,11,11,1,I often enjoy playing with theories or abstract ideas.,0,12,,
,,,,,,,,,,,,,,,89699,001,2022-04-29_15h36.45.856,SPAMnetsValid,2021.1.4,Win32,59.86590038,,,,,,,,,,,,,,,,,,,,,,,,,,,,,,,,,,,,,,,,,,,,,,,,,,,,,,,,,,,,,,,,,,,,,,,,,,,,,,,,,,,,,,,,return,10.4489
