key_resp_3.keys,key_resp_3.rt,slider_2.response,slider_2.rt,rjt_rating,rjt_RT,trials_24.thisRepN,trials_24.thisTrialN,trials_24.thisN,trials_24.thisIndex,trials_24.ran,rjt_order,word1,word2,attention,participant,session,date,expName,psychopyVersion,OS,frameRate,trials_4.thisRepN,trials_4.thisTrialN,trials_4.thisN,trials_4.thisIndex,trials_4.ran,trials_5.thisRepN,trials_5.thisTrialN,trials_5.thisN,trials_5.thisIndex,trials_5.ran,repOne,repTwo,slider.response,slider.rt,trials_22.thisRepN,trials_22.thisTrialN,trials_22.thisN,trials_22.thisIndex,trials_22.ran,trials_99.thisRepN,trials_99.thisTrialN,trials_99.thisN,trials_99.thisIndex,trials_99.ran,slider_extend_2.response,slider_extend_2.rt,trials_6.thisRepN,trials_6.thisTrialN,trials_6.thisN,trials_6.thisIndex,trials_6.ran,vCue2,R1,R2,R3,R4,correct,sliderVocab.response,sliderVocab.rt,trials_7.thisRepN,trials_7.thisTrialN,trials_7.thisN,trials_7.thisIndex,trials_7.ran,VocabCue,VR1,VR2,VR3,VR4,VR5,VocabCorrect,AUT_resp,AUT_label,trials.thisRepN,trials.thisTrialN,trials.thisN,trials.thisIndex,trials.ran,trials_2.thisRepN,trials_2.thisTrialN,trials_2.thisN,trials_2.thisIndex,trials_2.ran,aut_prompt,VF_response,VF_tag,trials_16.thisRepN,trials_16.thisTrialN,trials_16.thisN,trials_16.thisIndex,trials_16.ran,trials_17.thisRepN,trials_17.thisTrialN,trials_17.thisN,trials_17.thisIndex,trials_17.ran,VFcond,open_slider.response,open_slider.rt,trials_3.thisRepN,trials_3.thisTrialN,trials_3.thisN,trials_3.thisIndex,trials_3.ran,OpenQ,Rev,OPEN_ORDER,key_resp_2.keys,key_resp_2.rt
return,9.937,4,8.822,4,8.822,0,0,0,57,1,127,cactus,chocolate,,89705,001,2022-04-29_14h10.01.325,SPAMnetsValid,2021.1.4,Win32,60.0240096,,,,,,,,,,,,,,,,,,,,,,,,,,,,,,,,,,,,,,,,,,,,,,,,,,,,,,,,,,,,,,,,,,,,,,,,,,,,,,,,,,,,,,,,,
,,5,3.973,5,3.973,0,1,1,41,1,175,melon,onion,,89705,001,2022-04-29_14h10.01.325,SPAMnetsValid,2021.1.4,Win32,60.0240096,,,,,,,,,,,,,,,,,,,,,,,,,,,,,,,,,,,,,,,,,,,,,,,,,,,,,,,,,,,,,,,,,,,,,,,,,,,,,,,,,,,,,,,,,
,,4,2.467,4,2.467,0,2,2,91,1,166,cake,yogurt,,89705,001,2022-04-29_14h10.01.325,SPAMnetsValid,2021.1.4,Win32,60.0240096,,,,,,,,,,,,,,,,,,,,,,,,,,,,,,,,,,,,,,,,,,,,,,,,,,,,,,,,,,,,,,,,,,,,,,,,,,,,,,,,,,,,,,,,,
,,3,2.422,3,2.422,0,3,3,72,1,181,carrot,kitchen,,89705,001,2022-04-29_14h10.01.325,SPAMnetsValid,2021.1.4,Win32,60.0240096,,,,,,,,,,,,,,,,,,,,,,,,,,,,,,,,,,,,,,,,,,,,,,,,,,,,,,,,,,,,,,,,,,,,,,,,,,,,,,,,,,,,,,,,,
,,3,1.94,3,1.94,0,4,4,76,1,102,chocolate,refrigerator,,89705,001,2022-04-29_14h10.01.325,SPAMnetsValid,2021.1.4,Win32,60.0240096,,,,,,,,,,,,,,,,,,,,,,,,,,,,,,,,,,,,,,,,,,,,,,,,,,,,,,,,,,,,,,,,,,,,,,,,,,,,,,,,,,,,,,,,,
,,7,2.115,7,2.115,0,5,5,69,1,124,oven,refrigerator,,89705,001,2022-04-29_14h10.01.325,SPAMnetsValid,2021.1.4,Win32,60.0240096,,,,,,,,,,,,,,,,,,,,,,,,,,,,,,,,,,,,,,,,,,,,,,,,,,,,,,,,,,,,,,,,,,,,,,,,,,,,,,,,,,,,,,,,,
,,2,4.173,2,4.173,0,6,6,92,1,170,cookie,microwave,,89705,001,2022-04-29_14h10.01.325,SPAMnetsValid,2021.1.4,Win32,60.0240096,,,,,,,,,,,,,,,,,,,,,,,,,,,,,,,,,,,,,,,,,,,,,,,,,,,,,,,,,,,,,,,,,,,,,,,,,,,,,,,,,,,,,,,,,
,,3,5.057,3,5.057,0,7,7,80,1,146,pretzel,tree,,89705,001,2022-04-29_14h10.01.325,SPAMnetsValid,2021.1.4,Win32,60.0240096,,,,,,,,,,,,,,,,,,,,,,,,,,,,,,,,,,,,,,,,,,,,,,,,,,,,,,,,,,,,,,,,,,,,,,,,,,,,,,,,,,,,,,,,,
,,3,2.808,3,2.808,0,8,8,89,1,140,cookie,refrigerator,,89705,001,2022-04-29_14h10.01.325,SPAMnetsValid,2021.1.4,Win32,60.0240096,,,,,,,,,,,,,,,,,,,,,,,,,,,,,,,,,,,,,,,,,,,,,,,,,,,,,,,,,,,,,,,,,,,,,,,,,,,,,,,,,,,,,,,,,
,,6,5.031,6,5.031,0,9,9,30,1,125,carrot,tree,,89705,001,2022-04-29_14h10.01.325,SPAMnetsValid,2021.1.4,Win32,60.0240096,,,,,,,,,,,,,,,,,,,,,,,,,,,,,,,,,,,,,,,,,,,,,,,,,,,,,,,,,,,,,,,,,,,,,,,,,,,,,,,,,,,,,,,,,
,,4,2.122,4,2.122,0,10,10,5,1,108,carrot,chocolate,,89705,001,2022-04-29_14h10.01.325,SPAMnetsValid,2021.1.4,Win32,60.0240096,,,,,,,,,,,,,,,,,,,,,,,,,,,,,,,,,,,,,,,,,,,,,,,,,,,,,,,,,,,,,,,,,,,,,,,,,,,,,,,,,,,,,,,,,
,,4,4.511,4,4.511,0,11,11,26,1,107,rose,tomato,,89705,001,2022-04-29_14h10.01.325,SPAMnetsValid,2021.1.4,Win32,60.0240096,,,,,,,,,,,,,,,,,,,,,,,,,,,,,,,,,,,,,,,,,,,,,,,,,,,,,,,,,,,,,,,,,,,,,,,,,,,,,,,,,,,,,,,,,
,,3,2.198,3,2.198,0,12,12,90,1,190,microwave,strawberry,,89705,001,2022-04-29_14h10.01.325,SPAMnetsValid,2021.1.4,Win32,60.0240096,,,,,,,,,,,,,,,,,,,,,,,,,,,,,,,,,,,,,,,,,,,,,,,,,,,,,,,,,,,,,,,,,,,,,,,,,,,,,,,,,,,,,,,,,
,,6,5.89,6,5.89,0,13,13,75,1,178,cactus,carrot,,89705,001,2022-04-29_14h10.01.325,SPAMnetsValid,2021.1.4,Win32,60.0240096,,,,,,,,,,,,,,,,,,,,,,,,,,,,,,,,,,,,,,,,,,,,,,,,,,,,,,,,,,,,,,,,,,,,,,,,,,,,,,,,,,,,,,,,,
,,2,3.627,2,3.627,0,14,14,16,1,111,carrot,microwave,,89705,001,2022-04-29_14h10.01.325,SPAMnetsValid,2021.1.4,Win32,60.0240096,,,,,,,,,,,,,,,,,,,,,,,,,,,,,,,,,,,,,,,,,,,,,,,,,,,,,,,,,,,,,,,,,,,,,,,,,,,,,,,,,,,,,,,,,
,,1,2.057,1,2.057,0,15,15,54,1,101,cactus,kitchen,,89705,001,2022-04-29_14h10.01.325,SPAMnetsValid,2021.1.4,Win32,60.0240096,,,,,,,,,,,,,,,,,,,,,,,,,,,,,,,,,,,,,,,,,,,,,,,,,,,,,,,,,,,,,,,,,,,,,,,,,,,,,,,,,,,,,,,,,
,,4,2.221,4,2.221,0,16,16,17,1,99,garden,melon,,89705,001,2022-04-29_14h10.01.325,SPAMnetsValid,2021.1.4,Win32,60.0240096,,,,,,,,,,,,,,,,,,,,,,,,,,,,,,,,,,,,,,,,,,,,,,,,,,,,,,,,,,,,,,,,,,,,,,,,,,,,,,,,,,,,,,,,,
,,7,1.741,7,1.741,0,17,17,22,1,142,garden,tree,,89705,001,2022-04-29_14h10.01.325,SPAMnetsValid,2021.1.4,Win32,60.0240096,,,,,,,,,,,,,,,,,,,,,,,,,,,,,,,,,,,,,,,,,,,,,,,,,,,,,,,,,,,,,,,,,,,,,,,,,,,,,,,,,,,,,,,,,
,,1,2.538,1,2.538,0,18,18,50,1,126,kitchen,tree,,89705,001,2022-04-29_14h10.01.325,SPAMnetsValid,2021.1.4,Win32,60.0240096,,,,,,,,,,,,,,,,,,,,,,,,,,,,,,,,,,,,,,,,,,,,,,,,,,,,,,,,,,,,,,,,,,,,,,,,,,,,,,,,,,,,,,,,,
,,2,1.757,2,1.757,0,19,19,10,1,118,chocolate,oven,,89705,001,2022-04-29_14h10.01.325,SPAMnetsValid,2021.1.4,Win32,60.0240096,,,,,,,,,,,,,,,,,,,,,,,,,,,,,,,,,,,,,,,,,,,,,,,,,,,,,,,,,,,,,,,,,,,,,,,,,,,,,,,,,,,,,,,,,
,,1,2.545,1,2.545,0,20,20,4,1,109,broom,strawberry,,89705,001,2022-04-29_14h10.01.325,SPAMnetsValid,2021.1.4,Win32,60.0240096,,,,,,,,,,,,,,,,,,,,,,,,,,,,,,,,,,,,,,,,,,,,,,,,,,,,,,,,,,,,,,,,,,,,,,,,,,,,,,,,,,,,,,,,,
,,4,1.878,4,1.878,0,21,21,78,1,132,broom,tree,,89705,001,2022-04-29_14h10.01.325,SPAMnetsValid,2021.1.4,Win32,60.0240096,,,,,,,,,,,,,,,,,,,,,,,,,,,,,,,,,,,,,,,,,,,,,,,,,,,,,,,,,,,,,,,,,,,,,,,,,,,,,,,,,,,,,,,,,
,,2,3.374,2,3.374,0,22,22,64,1,157,refrigerator,rose,,89705,001,2022-04-29_14h10.01.325,SPAMnetsValid,2021.1.4,Win32,60.0240096,,,,,,,,,,,,,,,,,,,,,,,,,,,,,,,,,,,,,,,,,,,,,,,,,,,,,,,,,,,,,,,,,,,,,,,,,,,,,,,,,,,,,,,,,
,,4,3.905,4,3.905,0,23,23,29,1,163,melon,refrigerator,,89705,001,2022-04-29_14h10.01.325,SPAMnetsValid,2021.1.4,Win32,60.0240096,,,,,,,,,,,,,,,,,,,,,,,,,,,,,,,,,,,,,,,,,,,,,,,,,,,,,,,,,,,,,,,,,,,,,,,,,,,,,,,,,,,,,,,,,
,,3,3.174,3,3.174,0,24,24,62,1,189,onion,tree,,89705,001,2022-04-29_14h10.01.325,SPAMnetsValid,2021.1.4,Win32,60.0240096,,,,,,,,,,,,,,,,,,,,,,,,,,,,,,,,,,,,,,,,,,,,,,,,,,,,,,,,,,,,,,,,,,,,,,,,,,,,,,,,,,,,,,,,,
,,3,1.423,3,1.423,0,25,25,40,1,165,onion,rose,,89705,001,2022-04-29_14h10.01.325,SPAMnetsValid,2021.1.4,Win32,60.0240096,,,,,,,,,,,,,,,,,,,,,,,,,,,,,,,,,,,,,,,,,,,,,,,,,,,,,,,,,,,,,,,,,,,,,,,,,,,,,,,,,,,,,,,,,
,,2,2.778,2,2.778,0,26,26,21,1,159,cookie,flower,,89705,001,2022-04-29_14h10.01.325,SPAMnetsValid,2021.1.4,Win32,60.0240096,,,,,,,,,,,,,,,,,,,,,,,,,,,,,,,,,,,,,,,,,,,,,,,,,,,,,,,,,,,,,,,,,,,,,,,,,,,,,,,,,,,,,,,,,
,,5,3.505,5,3.505,0,27,27,31,1,156,melon,rose,,89705,001,2022-04-29_14h10.01.325,SPAMnetsValid,2021.1.4,Win32,60.0240096,,,,,,,,,,,,,,,,,,,,,,,,,,,,,,,,,,,,,,,,,,,,,,,,,,,,,,,,,,,,,,,,,,,,,,,,,,,,,,,,,,,,,,,,,
,,4,1.838,4,1.838,0,28,28,24,1,169,onion,yogurt,,89705,001,2022-04-29_14h10.01.325,SPAMnetsValid,2021.1.4,Win32,60.0240096,,,,,,,,,,,,,,,,,,,,,,,,,,,,,,,,,,,,,,,,,,,,,,,,,,,,,,,,,,,,,,,,,,,,,,,,,,,,,,,,,,,,,,,,,
,,2,2.507,2,2.507,0,29,29,6,1,151,microwave,onion,,89705,001,2022-04-29_14h10.01.325,SPAMnetsValid,2021.1.4,Win32,60.0240096,,,,,,,,,,,,,,,,,,,,,,,,,,,,,,,,,,,,,,,,,,,,,,,,,,,,,,,,,,,,,,,,,,,,,,,,,,,,,,,,,,,,,,,,,
,,7,1.806,7,1.806,0,30,30,66,1,150,microwave,refrigerator,,89705,001,2022-04-29_14h10.01.325,SPAMnetsValid,2021.1.4,Win32,60.0240096,,,,,,,,,,,,,,,,,,,,,,,,,,,,,,,,,,,,,,,,,,,,,,,,,,,,,,,,,,,,,,,,,,,,,,,,,,,,,,,,,,,,,,,,,
,,1,2.512,1,2.512,0,31,31,15,1,145,cactus,yogurt,,89705,001,2022-04-29_14h10.01.325,SPAMnetsValid,2021.1.4,Win32,60.0240096,,,,,,,,,,,,,,,,,,,,,,,,,,,,,,,,,,,,,,,,,,,,,,,,,,,,,,,,,,,,,,,,,,,,,,,,,,,,,,,,,,,,,,,,,
,,4,2.792,4,2.792,0,32,32,93,1,134,carrot,flower,,89705,001,2022-04-29_14h10.01.325,SPAMnetsValid,2021.1.4,Win32,60.0240096,,,,,,,,,,,,,,,,,,,,,,,,,,,,,,,,,,,,,,,,,,,,,,,,,,,,,,,,,,,,,,,,,,,,,,,,,,,,,,,,,,,,,,,,,
,,6,3.225,6,3.225,0,33,33,1,1,173,kitchen,tomato,,89705,001,2022-04-29_14h10.01.325,SPAMnetsValid,2021.1.4,Win32,60.0240096,,,,,,,,,,,,,,,,,,,,,,,,,,,,,,,,,,,,,,,,,,,,,,,,,,,,,,,,,,,,,,,,,,,,,,,,,,,,,,,,,,,,,,,,,
,,5,1.71,5,1.71,0,34,34,70,1,141,melon,tomato,,89705,001,2022-04-29_14h10.01.325,SPAMnetsValid,2021.1.4,Win32,60.0240096,,,,,,,,,,,,,,,,,,,,,,,,,,,,,,,,,,,,,,,,,,,,,,,,,,,,,,,,,,,,,,,,,,,,,,,,,,,,,,,,,,,,,,,,,
,,2,2.475,2,2.475,0,35,35,94,1,133,cake,flower,,89705,001,2022-04-29_14h10.01.325,SPAMnetsValid,2021.1.4,Win32,60.0240096,,,,,,,,,,,,,,,,,,,,,,,,,,,,,,,,,,,,,,,,,,,,,,,,,,,,,,,,,,,,,,,,,,,,,,,,,,,,,,,,,,,,,,,,,
,,5,2.204,5,2.204,0,36,36,28,1,154,strawberry,yogurt,,89705,001,2022-04-29_14h10.01.325,SPAMnetsValid,2021.1.4,Win32,60.0240096,,,,,,,,,,,,,,,,,,,,,,,,,,,,,,,,,,,,,,,,,,,,,,,,,,,,,,,,,,,,,,,,,,,,,,,,,,,,,,,,,,,,,,,,,
,,6,2.909,6,2.909,0,37,37,56,1,113,refrigerator,strawberry,,89705,001,2022-04-29_14h10.01.325,SPAMnetsValid,2021.1.4,Win32,60.0240096,,,,,,,,,,,,,,,,,,,,,,,,,,,,,,,,,,,,,,,,,,,,,,,,,,,,,,,,,,,,,,,,,,,,,,,,,,,,,,,,,,,,,,,,,
,,7,2.077,7,2.077,0,38,38,14,1,120,microwave,oven,,89705,001,2022-04-29_14h10.01.325,SPAMnetsValid,2021.1.4,Win32,60.0240096,,,,,,,,,,,,,,,,,,,,,,,,,,,,,,,,,,,,,,,,,,,,,,,,,,,,,,,,,,,,,,,,,,,,,,,,,,,,,,,,,,,,,,,,,
,,3,5.039,3,5.039,0,39,39,82,1,98,pretzel,strawberry,,89705,001,2022-04-29_14h10.01.325,SPAMnetsValid,2021.1.4,Win32,60.0240096,,,,,,,,,,,,,,,,,,,,,,,,,,,,,,,,,,,,,,,,,,,,,,,,,,,,,,,,,,,,,,,,,,,,,,,,,,,,,,,,,,,,,,,,,
,,5,1.542,5,1.542,0,40,40,11,1,117,melon,strawberry,,89705,001,2022-04-29_14h10.01.325,SPAMnetsValid,2021.1.4,Win32,60.0240096,,,,,,,,,,,,,,,,,,,,,,,,,,,,,,,,,,,,,,,,,,,,,,,,,,,,,,,,,,,,,,,,,,,,,,,,,,,,,,,,,,,,,,,,,
,,9,2.001,9,2.001,0,41,41,25,1,194,cactus,cactus,CHECK,89705,001,2022-04-29_14h10.01.325,SPAMnetsValid,2021.1.4,Win32,60.0240096,,,,,,,,,,,,,,,,,,,,,,,,,,,,,,,,,,,,,,,,,,,,,,,,,,,,,,,,,,,,,,,,,,,,,,,,,,,,,,,,,,,,,,,,,
,,4,4.122,4,4.122,0,42,42,88,1,171,cake,tomato,,89705,001,2022-04-29_14h10.01.325,SPAMnetsValid,2021.1.4,Win32,60.0240096,,,,,,,,,,,,,,,,,,,,,,,,,,,,,,,,,,,,,,,,,,,,,,,,,,,,,,,,,,,,,,,,,,,,,,,,,,,,,,,,,,,,,,,,,
,,1,3.79,1,3.79,0,43,43,3,1,129,cactus,refrigerator,,89705,001,2022-04-29_14h10.01.325,SPAMnetsValid,2021.1.4,Win32,60.0240096,,,,,,,,,,,,,,,,,,,,,,,,,,,,,,,,,,,,,,,,,,,,,,,,,,,,,,,,,,,,,,,,,,,,,,,,,,,,,,,,,,,,,,,,,
,,4,1.682,4,1.682,0,44,44,37,1,139,carrot,strawberry,,89705,001,2022-04-29_14h10.01.325,SPAMnetsValid,2021.1.4,Win32,60.0240096,,,,,,,,,,,,,,,,,,,,,,,,,,,,,,,,,,,,,,,,,,,,,,,,,,,,,,,,,,,,,,,,,,,,,,,,,,,,,,,,,,,,,,,,,
,,2,2.208,2,2.208,0,45,45,73,1,135,carrot,oven,,89705,001,2022-04-29_14h10.01.325,SPAMnetsValid,2021.1.4,Win32,60.0240096,,,,,,,,,,,,,,,,,,,,,,,,,,,,,,,,,,,,,,,,,,,,,,,,,,,,,,,,,,,,,,,,,,,,,,,,,,,,,,,,,,,,,,,,,
,,6,2.124,6,2.124,0,46,46,8,1,97,chocolate,kitchen,,89705,001,2022-04-29_14h10.01.325,SPAMnetsValid,2021.1.4,Win32,60.0240096,,,,,,,,,,,,,,,,,,,,,,,,,,,,,,,,,,,,,,,,,,,,,,,,,,,,,,,,,,,,,,,,,,,,,,,,,,,,,,,,,,,,,,,,,
,,4,1.927,4,1.927,0,47,47,18,1,119,strawberry,tree,,89705,001,2022-04-29_14h10.01.325,SPAMnetsValid,2021.1.4,Win32,60.0240096,,,,,,,,,,,,,,,,,,,,,,,,,,,,,,,,,,,,,,,,,,,,,,,,,,,,,,,,,,,,,,,,,,,,,,,,,,,,,,,,,,,,,,,,,
,,8,1.73,8,1.73,0,48,48,61,1,138,flower,rose,,89705,001,2022-04-29_14h10.01.325,SPAMnetsValid,2021.1.4,Win32,60.0240096,,,,,,,,,,,,,,,,,,,,,,,,,,,,,,,,,,,,,,,,,,,,,,,,,,,,,,,,,,,,,,,,,,,,,,,,,,,,,,,,,,,,,,,,,
,,3,4.045,3,4.045,0,49,49,87,1,114,cookie,strawberry,,89705,001,2022-04-29_14h10.01.325,SPAMnetsValid,2021.1.4,Win32,60.0240096,,,,,,,,,,,,,,,,,,,,,,,,,,,,,,,,,,,,,,,,,,,,,,,,,,,,,,,,,,,,,,,,,,,,,,,,,,,,,,,,,,,,,,,,,
,,4,3.991,4,3.991,0,50,50,35,1,147,cake,refrigerator,,89705,001,2022-04-29_14h10.01.325,SPAMnetsValid,2021.1.4,Win32,60.0240096,,,,,,,,,,,,,,,,,,,,,,,,,,,,,,,,,,,,,,,,,,,,,,,,,,,,,,,,,,,,,,,,,,,,,,,,,,,,,,,,,,,,,,,,,
,,5,2.623,5,2.623,0,51,51,77,1,172,kitchen,melon,,89705,001,2022-04-29_14h10.01.325,SPAMnetsValid,2021.1.4,Win32,60.0240096,,,,,,,,,,,,,,,,,,,,,,,,,,,,,,,,,,,,,,,,,,,,,,,,,,,,,,,,,,,,,,,,,,,,,,,,,,,,,,,,,,,,,,,,,
,,8,2.258,8,2.258,0,52,52,52,1,110,chocolate,cookie,,89705,001,2022-04-29_14h10.01.325,SPAMnetsValid,2021.1.4,Win32,60.0240096,,,,,,,,,,,,,,,,,,,,,,,,,,,,,,,,,,,,,,,,,,,,,,,,,,,,,,,,,,,,,,,,,,,,,,,,,,,,,,,,,,,,,,,,,
,,9,2.573,9,2.573,0,53,53,86,1,193,melon,melon,CHECK,89705,001,2022-04-29_14h10.01.325,SPAMnetsValid,2021.1.4,Win32,60.0240096,,,,,,,,,,,,,,,,,,,,,,,,,,,,,,,,,,,,,,,,,,,,,,,,,,,,,,,,,,,,,,,,,,,,,,,,,,,,,,,,,,,,,,,,,
,,5,2.321,5,2.321,0,54,54,65,1,160,cookie,kitchen,,89705,001,2022-04-29_14h10.01.325,SPAMnetsValid,2021.1.4,Win32,60.0240096,,,,,,,,,,,,,,,,,,,,,,,,,,,,,,,,,,,,,,,,,,,,,,,,,,,,,,,,,,,,,,,,,,,,,,,,,,,,,,,,,,,,,,,,,
,,2,3.89,2,3.89,0,55,55,32,1,182,flower,refrigerator,,89705,001,2022-04-29_14h10.01.325,SPAMnetsValid,2021.1.4,Win32,60.0240096,,,,,,,,,,,,,,,,,,,,,,,,,,,,,,,,,,,,,,,,,,,,,,,,,,,,,,,,,,,,,,,,,,,,,,,,,,,,,,,,,,,,,,,,,
,,1,1.859,1,1.859,0,56,56,42,1,184,oven,pretzel,,89705,001,2022-04-29_14h10.01.325,SPAMnetsValid,2021.1.4,Win32,60.0240096,,,,,,,,,,,,,,,,,,,,,,,,,,,,,,,,,,,,,,,,,,,,,,,,,,,,,,,,,,,,,,,,,,,,,,,,,,,,,,,,,,,,,,,,,
,,3,1.443,3,1.443,0,57,57,34,1,153,carrot,pretzel,,89705,001,2022-04-29_14h10.01.325,SPAMnetsValid,2021.1.4,Win32,60.0240096,,,,,,,,,,,,,,,,,,,,,,,,,,,,,,,,,,,,,,,,,,,,,,,,,,,,,,,,,,,,,,,,,,,,,,,,,,,,,,,,,,,,,,,,,
,,6,5.17,6,5.17,0,58,58,51,1,168,cactus,flower,,89705,001,2022-04-29_14h10.01.325,SPAMnetsValid,2021.1.4,Win32,60.0240096,,,,,,,,,,,,,,,,,,,,,,,,,,,,,,,,,,,,,,,,,,,,,,,,,,,,,,,,,,,,,,,,,,,,,,,,,,,,,,,,,,,,,,,,,
,,2,2.623,2,2.623,0,59,59,84,1,130,microwave,yogurt,,89705,001,2022-04-29_14h10.01.325,SPAMnetsValid,2021.1.4,Win32,60.0240096,,,,,,,,,,,,,,,,,,,,,,,,,,,,,,,,,,,,,,,,,,,,,,,,,,,,,,,,,,,,,,,,,,,,,,,,,,,,,,,,,,,,,,,,,
,,3,2.373,3,2.373,0,60,60,2,1,174,cake,pretzel,,89705,001,2022-04-29_14h10.01.325,SPAMnetsValid,2021.1.4,Win32,60.0240096,,,,,,,,,,,,,,,,,,,,,,,,,,,,,,,,,,,,,,,,,,,,,,,,,,,,,,,,,,,,,,,,,,,,,,,,,,,,,,,,,,,,,,,,,
,,4,2.258,4,2.258,0,61,61,39,1,112,cake,carrot,,89705,001,2022-04-29_14h10.01.325,SPAMnetsValid,2021.1.4,Win32,60.0240096,,,,,,,,,,,,,,,,,,,,,,,,,,,,,,,,,,,,,,,,,,,,,,,,,,,,,,,,,,,,,,,,,,,,,,,,,,,,,,,,,,,,,,,,,
,,3,4.374,3,4.374,0,62,62,23,1,148,flower,melon,,89705,001,2022-04-29_14h10.01.325,SPAMnetsValid,2021.1.4,Win32,60.0240096,,,,,,,,,,,,,,,,,,,,,,,,,,,,,,,,,,,,,,,,,,,,,,,,,,,,,,,,,,,,,,,,,,,,,,,,,,,,,,,,,,,,,,,,,
,,3,4.906,3,4.906,0,63,63,48,1,186,kitchen,yogurt,,89705,001,2022-04-29_14h10.01.325,SPAMnetsValid,2021.1.4,Win32,60.0240096,,,,,,,,,,,,,,,,,,,,,,,,,,,,,,,,,,,,,,,,,,,,,,,,,,,,,,,,,,,,,,,,,,,,,,,,,,,,,,,,,,,,,,,,,
,,8,2.983,8,2.983,0,64,64,83,1,100,garden,tomato,,89705,001,2022-04-29_14h10.01.325,SPAMnetsValid,2021.1.4,Win32,60.0240096,,,,,,,,,,,,,,,,,,,,,,,,,,,,,,,,,,,,,,,,,,,,,,,,,,,,,,,,,,,,,,,,,,,,,,,,,,,,,,,,,,,,,,,,,
,,2,2.741,2,2.741,0,65,65,45,1,179,broom,oven,,89705,001,2022-04-29_14h10.01.325,SPAMnetsValid,2021.1.4,Win32,60.0240096,,,,,,,,,,,,,,,,,,,,,,,,,,,,,,,,,,,,,,,,,,,,,,,,,,,,,,,,,,,,,,,,,,,,,,,,,,,,,,,,,,,,,,,,,
,,1,12.99,1,12.99,0,66,66,81,1,104,garden,microwave,,89705,001,2022-04-29_14h10.01.325,SPAMnetsValid,2021.1.4,Win32,60.0240096,,,,,,,,,,,,,,,,,,,,,,,,,,,,,,,,,,,,,,,,,,,,,,,,,,,,,,,,,,,,,,,,,,,,,,,,,,,,,,,,,,,,,,,,,
,,1,1.508,1,1.508,0,67,67,20,1,149,broom,tomato,,89705,001,2022-04-29_14h10.01.325,SPAMnetsValid,2021.1.4,Win32,60.0240096,,,,,,,,,,,,,,,,,,,,,,,,,,,,,,,,,,,,,,,,,,,,,,,,,,,,,,,,,,,,,,,,,,,,,,,,,,,,,,,,,,,,,,,,,
,,2,2.359,2,2.359,0,68,68,74,1,128,melon,microwave,,89705,001,2022-04-29_14h10.01.325,SPAMnetsValid,2021.1.4,Win32,60.0240096,,,,,,,,,,,,,,,,,,,,,,,,,,,,,,,,,,,,,,,,,,,,,,,,,,,,,,,,,,,,,,,,,,,,,,,,,,,,,,,,,,,,,,,,,
,,1,2.092,1,2.092,0,69,69,46,1,123,cookie,tree,,89705,001,2022-04-29_14h10.01.325,SPAMnetsValid,2021.1.4,Win32,60.0240096,,,,,,,,,,,,,,,,,,,,,,,,,,,,,,,,,,,,,,,,,,,,,,,,,,,,,,,,,,,,,,,,,,,,,,,,,,,,,,,,,,,,,,,,,
,,1,1.961,1,1.961,0,70,70,58,1,144,cake,garden,,89705,001,2022-04-29_14h10.01.325,SPAMnetsValid,2021.1.4,Win32,60.0240096,,,,,,,,,,,,,,,,,,,,,,,,,,,,,,,,,,,,,,,,,,,,,,,,,,,,,,,,,,,,,,,,,,,,,,,,,,,,,,,,,,,,,,,,,
,,1,1.674,1,1.674,0,71,71,63,1,137,microwave,tree,,89705,001,2022-04-29_14h10.01.325,SPAMnetsValid,2021.1.4,Win32,60.0240096,,,,,,,,,,,,,,,,,,,,,,,,,,,,,,,,,,,,,,,,,,,,,,,,,,,,,,,,,,,,,,,,,,,,,,,,,,,,,,,,,,,,,,,,,
,,1,1.828,1,1.828,0,72,72,68,1,180,tree,yogurt,,89705,001,2022-04-29_14h10.01.325,SPAMnetsValid,2021.1.4,Win32,60.0240096,,,,,,,,,,,,,,,,,,,,,,,,,,,,,,,,,,,,,,,,,,,,,,,,,,,,,,,,,,,,,,,,,,,,,,,,,,,,,,,,,,,,,,,,,
,,1,1.472,1,1.472,0,73,73,59,1,164,cookie,garden,,89705,001,2022-04-29_14h10.01.325,SPAMnetsValid,2021.1.4,Win32,60.0240096,,,,,,,,,,,,,,,,,,,,,,,,,,,,,,,,,,,,,,,,,,,,,,,,,,,,,,,,,,,,,,,,,,,,,,,,,,,,,,,,,,,,,,,,,
,,3,3.911,3,3.911,0,74,74,49,1,152,cactus,strawberry,,89705,001,2022-04-29_14h10.01.325,SPAMnetsValid,2021.1.4,Win32,60.0240096,,,,,,,,,,,,,,,,,,,,,,,,,,,,,,,,,,,,,,,,,,,,,,,,,,,,,,,,,,,,,,,,,,,,,,,,,,,,,,,,,,,,,,,,,
,,1,1.542,1,1.542,0,75,75,71,1,187,cactus,microwave,,89705,001,2022-04-29_14h10.01.325,SPAMnetsValid,2021.1.4,Win32,60.0240096,,,,,,,,,,,,,,,,,,,,,,,,,,,,,,,,,,,,,,,,,,,,,,,,,,,,,,,,,,,,,,,,,,,,,,,,,,,,,,,,,,,,,,,,,
,,1,2.322,1,2.322,0,76,76,55,1,143,pretzel,rose,,89705,001,2022-04-29_14h10.01.325,SPAMnetsValid,2021.1.4,Win32,60.0240096,,,,,,,,,,,,,,,,,,,,,,,,,,,,,,,,,,,,,,,,,,,,,,,,,,,,,,,,,,,,,,,,,,,,,,,,,,,,,,,,,,,,,,,,,
,,3,2.789,3,2.789,0,77,77,79,1,103,pretzel,tomato,,89705,001,2022-04-29_14h10.01.325,SPAMnetsValid,2021.1.4,Win32,60.0240096,,,,,,,,,,,,,,,,,,,,,,,,,,,,,,,,,,,,,,,,,,,,,,,,,,,,,,,,,,,,,,,,,,,,,,,,,,,,,,,,,,,,,,,,,
,,6,2.288,6,2.288,0,78,78,0,1,106,cake,strawberry,,89705,001,2022-04-29_14h10.01.325,SPAMnetsValid,2021.1.4,Win32,60.0240096,,,,,,,,,,,,,,,,,,,,,,,,,,,,,,,,,,,,,,,,,,,,,,,,,,,,,,,,,,,,,,,,,,,,,,,,,,,,,,,,,,,,,,,,,
,,4,9.056,4,9.056,0,79,79,33,1,131,cactus,garden,,89705,001,2022-04-29_14h10.01.325,SPAMnetsValid,2021.1.4,Win32,60.0240096,,,,,,,,,,,,,,,,,,,,,,,,,,,,,,,,,,,,,,,,,,,,,,,,,,,,,,,,,,,,,,,,,,,,,,,,,,,,,,,,,,,,,,,,,
,,3,1.857,3,1.857,0,80,80,38,1,155,carrot,cookie,,89705,001,2022-04-29_14h10.01.325,SPAMnetsValid,2021.1.4,Win32,60.0240096,,,,,,,,,,,,,,,,,,,,,,,,,,,,,,,,,,,,,,,,,,,,,,,,,,,,,,,,,,,,,,,,,,,,,,,,,,,,,,,,,,,,,,,,,
,,7,2.456,7,2.456,0,81,81,7,1,188,flower,tree,,89705,001,2022-04-29_14h10.01.325,SPAMnetsValid,2021.1.4,Win32,60.0240096,,,,,,,,,,,,,,,,,,,,,,,,,,,,,,,,,,,,,,,,,,,,,,,,,,,,,,,,,,,,,,,,,,,,,,,,,,,,,,,,,,,,,,,,,
,,2,4.497,2,4.497,0,82,82,67,1,96,oven,strawberry,,89705,001,2022-04-29_14h10.01.325,SPAMnetsValid,2021.1.4,Win32,60.0240096,,,,,,,,,,,,,,,,,,,,,,,,,,,,,,,,,,,,,,,,,,,,,,,,,,,,,,,,,,,,,,,,,,,,,,,,,,,,,,,,,,,,,,,,,
,,3,2.458,3,2.458,0,83,83,53,1,177,chocolate,strawberry,,89705,001,2022-04-29_14h10.01.325,SPAMnetsValid,2021.1.4,Win32,60.0240096,,,,,,,,,,,,,,,,,,,,,,,,,,,,,,,,,,,,,,,,,,,,,,,,,,,,,,,,,,,,,,,,,,,,,,,,,,,,,,,,,,,,,,,,,
,,1,7.948,1,7.948,0,84,84,13,1,105,cactus,oven,,89705,001,2022-04-29_14h10.01.325,SPAMnetsValid,2021.1.4,Win32,60.0240096,,,,,,,,,,,,,,,,,,,,,,,,,,,,,,,,,,,,,,,,,,,,,,,,,,,,,,,,,,,,,,,,,,,,,,,,,,,,,,,,,,,,,,,,,
,,9,9.556,9,9.556,0,85,85,60,1,122,flower,garden,,89705,001,2022-04-29_14h10.01.325,SPAMnetsValid,2021.1.4,Win32,60.0240096,,,,,,,,,,,,,,,,,,,,,,,,,,,,,,,,,,,,,,,,,,,,,,,,,,,,,,,,,,,,,,,,,,,,,,,,,,,,,,,,,,,,,,,,,
,,2,2.359,2,2.359,0,86,86,12,1,162,microwave,tomato,,89705,001,2022-04-29_14h10.01.325,SPAMnetsValid,2021.1.4,Win32,60.0240096,,,,,,,,,,,,,,,,,,,,,,,,,,,,,,,,,,,,,,,,,,,,,,,,,,,,,,,,,,,,,,,,,,,,,,,,,,,,,,,,,,,,,,,,,
,,3,3.278,3,3.278,0,87,87,96,1,136,chocolate,microwave,,89705,001,2022-04-29_14h10.01.325,SPAMnetsValid,2021.1.4,Win32,60.0240096,,,,,,,,,,,,,,,,,,,,,,,,,,,,,,,,,,,,,,,,,,,,,,,,,,,,,,,,,,,,,,,,,,,,,,,,,,,,,,,,,,,,,,,,,
,,6,6.038,6,6.038,0,88,88,27,1,158,cookie,oven,,89705,001,2022-04-29_14h10.01.325,SPAMnetsValid,2021.1.4,Win32,60.0240096,,,,,,,,,,,,,,,,,,,,,,,,,,,,,,,,,,,,,,,,,,,,,,,,,,,,,,,,,,,,,,,,,,,,,,,,,,,,,,,,,,,,,,,,,
,,4,3.462,4,3.462,0,89,89,9,1,176,cactus,tomato,,89705,001,2022-04-29_14h10.01.325,SPAMnetsValid,2021.1.4,Win32,60.0240096,,,,,,,,,,,,,,,,,,,,,,,,,,,,,,,,,,,,,,,,,,,,,,,,,,,,,,,,,,,,,,,,,,,,,,,,,,,,,,,,,,,,,,,,,
,,4,5.493,4,5.493,0,90,90,43,1,185,cactus,rose,,89705,001,2022-04-29_14h10.01.325,SPAMnetsValid,2021.1.4,Win32,60.0240096,,,,,,,,,,,,,,,,,,,,,,,,,,,,,,,,,,,,,,,,,,,,,,,,,,,,,,,,,,,,,,,,,,,,,,,,,,,,,,,,,,,,,,,,,
,,2,4.556,2,4.556,0,91,91,95,1,121,broom,microwave,,89705,001,2022-04-29_14h10.01.325,SPAMnetsValid,2021.1.4,Win32,60.0240096,,,,,,,,,,,,,,,,,,,,,,,,,,,,,,,,,,,,,,,,,,,,,,,,,,,,,,,,,,,,,,,,,,,,,,,,,,,,,,,,,,,,,,,,,
,,2,6.28,2,6.28,0,92,92,36,1,161,kitchen,pretzel,,89705,001,2022-04-29_14h10.01.325,SPAMnetsValid,2021.1.4,Win32,60.0240096,,,,,,,,,,,,,,,,,,,,,,,,,,,,,,,,,,,,,,,,,,,,,,,,,,,,,,,,,,,,,,,,,,,,,,,,,,,,,,,,,,,,,,,,,
,,7,3.741,7,3.741,0,93,93,44,1,116,cake,chocolate,,89705,001,2022-04-29_14h10.01.325,SPAMnetsValid,2021.1.4,Win32,60.0240096,,,,,,,,,,,,,,,,,,,,,,,,,,,,,,,,,,,,,,,,,,,,,,,,,,,,,,,,,,,,,,,,,,,,,,,,,,,,,,,,,,,,,,,,,
,,8,1.874,8,1.874,0,94,94,47,1,167,carrot,garden,,89705,001,2022-04-29_14h10.01.325,SPAMnetsValid,2021.1.4,Win32,60.0240096,,,,,,,,,,,,,,,,,,,,,,,,,,,,,,,,,,,,,,,,,,,,,,,,,,,,,,,,,,,,,,,,,,,,,,,,,,,,,,,,,,,,,,,,,
,,5,3.141,5,3.141,0,95,95,85,1,115,refrigerator,tomato,,89705,001,2022-04-29_14h10.01.325,SPAMnetsValid,2021.1.4,Win32,60.0240096,,,,,,,,,,,,,,,,,,,,,,,,,,,,,,,,,,,,,,,,,,,,,,,,,,,,,,,,,,,,,,,,,,,,,,,,,,,,,,,,,,,,,,,,,
,,2,3.895,2,3.895,0,96,96,19,1,183,cake,rose,,89705,001,2022-04-29_14h10.01.325,SPAMnetsValid,2021.1.4,Win32,60.0240096,,,,,,,,,,,,,,,,,,,,,,,,,,,,,,,,,,,,,,,,,,,,,,,,,,,,,,,,,,,,,,,,,,,,,,,,,,,,,,,,,,,,,,,,,
,,,,,,,,,,,,,,,89705,001,2022-04-29_14h10.01.325,SPAMnetsValid,2021.1.4,Win32,60.0240096,0,0,0,0,1,,,,,,,,,,,,,,,,,,,,,,,,,,,,,,,,,,,,,,,,,,,,,,,,,,,,,,,,,,,,,,,,,,,,,,,,,,,,,,,,,,,,
,,,,,,,,,,,,,,,89705,001,2022-04-29_14h10.01.325,SPAMnetsValid,2021.1.4,Win32,60.0240096,,,,,,0,0,0,1,1,0,1,,,,,,,,,,,,,,,,,,,,,,,,,,,,,,,,,,,,,,,,,,,,,,,,,,,,,,,,,,,,,,,,,,,,,,,,,,,,,
,,,,6,7.349,,,,,,2,kitchen,onion,,89705,001,2022-04-29_14h10.01.325,SPAMnetsValid,2021.1.4,Win32,60.0240096,,,,,,,,,,,,,6,7.349,0,0,0,91,1,,,,,,,,,,,,,,,,,,,,,,,,,,,,,,,,,,,,,,,,,,,,,,,,,,,,,,,,,,,,,,,,,,,,,,
,,,,1,1.975,,,,,,31,cactus,pretzel,,89705,001,2022-04-29_14h10.01.325,SPAMnetsValid,2021.1.4,Win32,60.0240096,,,,,,,,,,,,,1,1.975,0,1,1,1,1,,,,,,,,,,,,,,,,,,,,,,,,,,,,,,,,,,,,,,,,,,,,,,,,,,,,,,,,,,,,,,,,,,,,,,
,,,,4,2.013,,,,,,55,tomato,tree,,89705,001,2022-04-29_14h10.01.325,SPAMnetsValid,2021.1.4,Win32,60.0240096,,,,,,,,,,,,,4,2.013,0,2,2,35,1,,,,,,,,,,,,,,,,,,,,,,,,,,,,,,,,,,,,,,,,,,,,,,,,,,,,,,,,,,,,,,,,,,,,,,
,,,,3,2.141,,,,,,51,onion,strawberry,,89705,001,2022-04-29_14h10.01.325,SPAMnetsValid,2021.1.4,Win32,60.0240096,,,,,,,,,,,,,3,2.141,0,3,3,86,1,,,,,,,,,,,,,,,,,,,,,,,,,,,,,,,,,,,,,,,,,,,,,,,,,,,,,,,,,,,,,,,,,,,,,,
,,,,2,1.648,,,,,,64,chocolate,garden,,89705,001,2022-04-29_14h10.01.325,SPAMnetsValid,2021.1.4,Win32,60.0240096,,,,,,,,,,,,,2,1.648,0,4,4,14,1,,,,,,,,,,,,,,,,,,,,,,,,,,,,,,,,,,,,,,,,,,,,,,,,,,,,,,,,,,,,,,,,,,,,,,
,,,,3,2.373,,,,,,28,cake,melon,,89705,001,2022-04-29_14h10.01.325,SPAMnetsValid,2021.1.4,Win32,60.0240096,,,,,,,,,,,,,3,2.373,0,5,5,54,1,,,,,,,,,,,,,,,,,,,,,,,,,,,,,,,,,,,,,,,,,,,,,,,,,,,,,,,,,,,,,,,,,,,,,,
,,,,8,5.54,,,,,,6,garden,onion,,89705,001,2022-04-29_14h10.01.325,SPAMnetsValid,2021.1.4,Win32,60.0240096,,,,,,,,,,,,,8,5.54,0,6,6,83,1,,,,,,,,,,,,,,,,,,,,,,,,,,,,,,,,,,,,,,,,,,,,,,,,,,,,,,,,,,,,,,,,,,,,,,
,,,,1,11.523,,,,,,48,flower,oven,,89705,001,2022-04-29_14h10.01.325,SPAMnetsValid,2021.1.4,Win32,60.0240096,,,,,,,,,,,,,1,11.523,0,7,7,15,1,,,,,,,,,,,,,,,,,,,,,,,,,,,,,,,,,,,,,,,,,,,,,,,,,,,,,,,,,,,,,,,,,,,,,,
,,,,6,4.188,,,,,,68,flower,tomato,,89705,001,2022-04-29_14h10.01.325,SPAMnetsValid,2021.1.4,Win32,60.0240096,,,,,,,,,,,,,6,4.188,0,8,8,94,1,,,,,,,,,,,,,,,,,,,,,,,,,,,,,,,,,,,,,,,,,,,,,,,,,,,,,,,,,,,,,,,,,,,,,,
,,,,1,4.007,,,,,,23,flower,microwave,,89705,001,2022-04-29_14h10.01.325,SPAMnetsValid,2021.1.4,Win32,60.0240096,,,,,,,,,,,,,1,4.007,0,9,9,25,1,,,,,,,,,,,,,,,,,,,,,,,,,,,,,,,,,,,,,,,,,,,,,,,,,,,,,,,,,,,,,,,,,,,,,,
,,,,1,1.282,,,,,,14,broom,cookie,,89705,001,2022-04-29_14h10.01.325,SPAMnetsValid,2021.1.4,Win32,60.0240096,,,,,,,,,,,,,1,1.282,0,10,10,16,1,,,,,,,,,,,,,,,,,,,,,,,,,,,,,,,,,,,,,,,,,,,,,,,,,,,,,,,,,,,,,,,,,,,,,,
,,,,1,1.022,,,,,,41,broom,cactus,,89705,001,2022-04-29_14h10.01.325,SPAMnetsValid,2021.1.4,Win32,60.0240096,,,,,,,,,,,,,1,1.022,0,11,11,46,1,,,,,,,,,,,,,,,,,,,,,,,,,,,,,,,,,,,,,,,,,,,,,,,,,,,,,,,,,,,,,,,,,,,,,,
,,,,5,2.539,,,,,,61,strawberry,tomato,,89705,001,2022-04-29_14h10.01.325,SPAMnetsValid,2021.1.4,Win32,60.0240096,,,,,,,,,,,,,5,2.539,0,12,12,80,1,,,,,,,,,,,,,,,,,,,,,,,,,,,,,,,,,,,,,,,,,,,,,,,,,,,,,,,,,,,,,,,,,,,,,,
,,,,4,2.739,,,,,,32,cake,microwave,,89705,001,2022-04-29_14h10.01.325,SPAMnetsValid,2021.1.4,Win32,60.0240096,,,,,,,,,,,,,4,2.739,0,13,13,33,1,,,,,,,,,,,,,,,,,,,,,,,,,,,,,,,,,,,,,,,,,,,,,,,,,,,,,,,,,,,,,,,,,,,,,,
,,,,3,2.78,,,,,,29,chocolate,melon,,89705,001,2022-04-29_14h10.01.325,SPAMnetsValid,2021.1.4,Win32,60.0240096,,,,,,,,,,,,,3,2.78,0,14,14,34,1,,,,,,,,,,,,,,,,,,,,,,,,,,,,,,,,,,,,,,,,,,,,,,,,,,,,,,,,,,,,,,,,,,,,,,
,,,,3,1.173,,,,,,87,carrot,yogurt,,89705,001,2022-04-29_14h10.01.325,SPAMnetsValid,2021.1.4,Win32,60.0240096,,,,,,,,,,,,,3,1.173,0,15,15,6,1,,,,,,,,,,,,,,,,,,,,,,,,,,,,,,,,,,,,,,,,,,,,,,,,,,,,,,,,,,,,,,,,,,,,,,
,,,,4,2.392,,,,,,90,cactus,cake,,89705,001,2022-04-29_14h10.01.325,SPAMnetsValid,2021.1.4,Win32,60.0240096,,,,,,,,,,,,,4,2.392,0,16,16,85,1,,,,,,,,,,,,,,,,,,,,,,,,,,,,,,,,,,,,,,,,,,,,,,,,,,,,,,,,,,,,,,,,,,,,,,
,,,,1,4.206,,,,,,72,broom,onion,,89705,001,2022-04-29_14h10.01.325,SPAMnetsValid,2021.1.4,Win32,60.0240096,,,,,,,,,,,,,1,4.206,0,17,17,27,1,,,,,,,,,,,,,,,,,,,,,,,,,,,,,,,,,,,,,,,,,,,,,,,,,,,,,,,,,,,,,,,,,,,,,,
,,,,4,3.958,,,,,,33,oven,yogurt,,89705,001,2022-04-29_14h10.01.325,SPAMnetsValid,2021.1.4,Win32,60.0240096,,,,,,,,,,,,,4,3.958,0,18,18,31,1,,,,,,,,,,,,,,,,,,,,,,,,,,,,,,,,,,,,,,,,,,,,,,,,,,,,,,,,,,,,,,,,,,,,,,
,,,,1,2.924,,,,,,86,oven,rose,,89705,001,2022-04-29_14h10.01.325,SPAMnetsValid,2021.1.4,Win32,60.0240096,,,,,,,,,,,,,1,2.924,0,19,19,79,1,,,,,,,,,,,,,,,,,,,,,,,,,,,,,,,,,,,,,,,,,,,,,,,,,,,,,,,,,,,,,,,,,,,,,,
,,,,6,4.177,,,,,,47,onion,tomato,,89705,001,2022-04-29_14h10.01.325,SPAMnetsValid,2021.1.4,Win32,60.0240096,,,,,,,,,,,,,6,4.177,0,20,20,51,1,,,,,,,,,,,,,,,,,,,,,,,,,,,,,,,,,,,,,,,,,,,,,,,,,,,,,,,,,,,,,,,,,,,,,,
,,,,8,3.09,,,,,,76,garden,rose,,89705,001,2022-04-29_14h10.01.325,SPAMnetsValid,2021.1.4,Win32,60.0240096,,,,,,,,,,,,,8,3.09,0,21,21,19,1,,,,,,,,,,,,,,,,,,,,,,,,,,,,,,,,,,,,,,,,,,,,,,,,,,,,,,,,,,,,,,,,,,,,,,
,,,,3,3.338,,,,,,39,melon,pretzel,,89705,001,2022-04-29_14h10.01.325,SPAMnetsValid,2021.1.4,Win32,60.0240096,,,,,,,,,,,,,3,3.338,0,22,22,20,1,,,,,,,,,,,,,,,,,,,,,,,,,,,,,,,,,,,,,,,,,,,,,,,,,,,,,,,,,,,,,,,,,,,,,,
,,,,3,1.223,,,,,,30,cookie,pretzel,,89705,001,2022-04-29_14h10.01.325,SPAMnetsValid,2021.1.4,Win32,60.0240096,,,,,,,,,,,,,3,1.223,0,23,23,78,1,,,,,,,,,,,,,,,,,,,,,,,,,,,,,,,,,,,,,,,,,,,,,,,,,,,,,,,,,,,,,,,,,,,,,,
,,,,9,1.716,,,,,,191,cake,cake,CHECK,89705,001,2022-04-29_14h10.01.325,SPAMnetsValid,2021.1.4,Win32,60.0240096,,,,,,,,,,,,,9,1.716,0,24,24,10,1,,,,,,,,,,,,,,,,,,,,,,,,,,,,,,,,,,,,,,,,,,,,,,,,,,,,,,,,,,,,,,,,,,,,,,
,,,,3,3.055,,,,,,24,cookie,tomato,,89705,001,2022-04-29_14h10.01.325,SPAMnetsValid,2021.1.4,Win32,60.0240096,,,,,,,,,,,,,3,3.055,0,25,25,68,1,,,,,,,,,,,,,,,,,,,,,,,,,,,,,,,,,,,,,,,,,,,,,,,,,,,,,,,,,,,,,,,,,,,,,,
,,,,2,1.875,,,,,,57,flower,kitchen,,89705,001,2022-04-29_14h10.01.325,SPAMnetsValid,2021.1.4,Win32,60.0240096,,,,,,,,,,,,,2,1.875,0,26,26,49,1,,,,,,,,,,,,,,,,,,,,,,,,,,,,,,,,,,,,,,,,,,,,,,,,,,,,,,,,,,,,,,,,,,,,,,
,,,,8,2.158,,,,,,93,kitchen,oven,,89705,001,2022-04-29_14h10.01.325,SPAMnetsValid,2021.1.4,Win32,60.0240096,,,,,,,,,,,,,8,2.158,0,27,27,82,1,,,,,,,,,,,,,,,,,,,,,,,,,,,,,,,,,,,,,,,,,,,,,,,,,,,,,,,,,,,,,,,,,,,,,,
,,,,1,3.759,,,,,,40,broom,cake,,89705,001,2022-04-29_14h10.01.325,SPAMnetsValid,2021.1.4,Win32,60.0240096,,,,,,,,,,,,,1,3.759,0,28,28,32,1,,,,,,,,,,,,,,,,,,,,,,,,,,,,,,,,,,,,,,,,,,,,,,,,,,,,,,,,,,,,,,,,,,,,,,
,,,,3,2.542,,,,,,37,garden,refrigerator,,89705,001,2022-04-29_14h10.01.325,SPAMnetsValid,2021.1.4,Win32,60.0240096,,,,,,,,,,,,,3,2.542,0,29,29,11,1,,,,,,,,,,,,,,,,,,,,,,,,,,,,,,,,,,,,,,,,,,,,,,,,,,,,,,,,,,,,,,,,,,,,,,
,,,,1,4.325,,,,,,35,flower,pretzel,,89705,001,2022-04-29_14h10.01.325,SPAMnetsValid,2021.1.4,Win32,60.0240096,,,,,,,,,,,,,1,4.325,0,30,30,26,1,,,,,,,,,,,,,,,,,,,,,,,,,,,,,,,,,,,,,,,,,,,,,,,,,,,,,,,,,,,,,,,,,,,,,,
,,,,2,2.727,,,,,,46,garden,yogurt,,89705,001,2022-04-29_14h10.01.325,SPAMnetsValid,2021.1.4,Win32,60.0240096,,,,,,,,,,,,,2,2.727,0,31,31,65,1,,,,,,,,,,,,,,,,,,,,,,,,,,,,,,,,,,,,,,,,,,,,,,,,,,,,,,,,,,,,,,,,,,,,,,
,,,,4,2.524,,,,,,42,garden,kitchen,,89705,001,2022-04-29_14h10.01.325,SPAMnetsValid,2021.1.4,Win32,60.0240096,,,,,,,,,,,,,4,2.524,0,32,32,29,1,,,,,,,,,,,,,,,,,,,,,,,,,,,,,,,,,,,,,,,,,,,,,,,,,,,,,,,,,,,,,,,,,,,,,,
,,,,9,1.708,,,,,,192,microwave,microwave,CHECK,89705,001,2022-04-29_14h10.01.325,SPAMnetsValid,2021.1.4,Win32,60.0240096,,,,,,,,,,,,,9,1.708,0,33,33,53,1,,,,,,,,,,,,,,,,,,,,,,,,,,,,,,,,,,,,,,,,,,,,,,,,,,,,,,,,,,,,,,,,,,,,,,
,,,,2,6.306,,,,,,38,pretzel,refrigerator,,89705,001,2022-04-29_14h10.01.325,SPAMnetsValid,2021.1.4,Win32,60.0240096,,,,,,,,,,,,,2,6.306,0,34,34,71,1,,,,,,,,,,,,,,,,,,,,,,,,,,,,,,,,,,,,,,,,,,,,,,,,,,,,,,,,,,,,,,,,,,,,,,
,,,,3,8.664,,,,,,54,chocolate,yogurt,,89705,001,2022-04-29_14h10.01.325,SPAMnetsValid,2021.1.4,Win32,60.0240096,,,,,,,,,,,,,3,8.664,0,35,35,67,1,,,,,,,,,,,,,,,,,,,,,,,,,,,,,,,,,,,,,,,,,,,,,,,,,,,,,,,,,,,,,,,,,,,,,,
,,,,1,1.345,,,,,,71,broom,rose,,89705,001,2022-04-29_14h10.01.325,SPAMnetsValid,2021.1.4,Win32,60.0240096,,,,,,,,,,,,,1,1.345,0,36,36,61,1,,,,,,,,,,,,,,,,,,,,,,,,,,,,,,,,,,,,,,,,,,,,,,,,,,,,,,,,,,,,,,,,,,,,,,
,,,,1,3.624,,,,,,11,refrigerator,tree,,89705,001,2022-04-29_14h10.01.325,SPAMnetsValid,2021.1.4,Win32,60.0240096,,,,,,,,,,,,,1,3.624,0,37,37,43,1,,,,,,,,,,,,,,,,,,,,,,,,,,,,,,,,,,,,,,,,,,,,,,,,,,,,,,,,,,,,,,,,,,,,,,
,,,,3,4.448,,,,,,66,melon,yogurt,,89705,001,2022-04-29_14h10.01.325,SPAMnetsValid,2021.1.4,Win32,60.0240096,,,,,,,,,,,,,3,4.448,0,38,38,48,1,,,,,,,,,,,,,,,,,,,,,,,,,,,,,,,,,,,,,,,,,,,,,,,,,,,,,,,,,,,,,,,,,,,,,,
,,,,8,2.007,,,,,,79,garden,strawberry,,89705,001,2022-04-29_14h10.01.325,SPAMnetsValid,2021.1.4,Win32,60.0240096,,,,,,,,,,,,,8,2.007,0,39,39,87,1,,,,,,,,,,,,,,,,,,,,,,,,,,,,,,,,,,,,,,,,,,,,,,,,,,,,,,,,,,,,,,,,,,,,,,
,,,,4,10.689,,,,,,88,cactus,melon,,89705,001,2022-04-29_14h10.01.325,SPAMnetsValid,2021.1.4,Win32,60.0240096,,,,,,,,,,,,,4,10.689,0,40,40,38,1,,,,,,,,,,,,,,,,,,,,,,,,,,,,,,,,,,,,,,,,,,,,,,,,,,,,,,,,,,,,,,,,,,,,,,
,,,,7,1.857,,,,,,82,cake,kitchen,,89705,001,2022-04-29_14h10.01.325,SPAMnetsValid,2021.1.4,Win32,60.0240096,,,,,,,,,,,,,7,1.857,0,41,41,96,1,,,,,,,,,,,,,,,,,,,,,,,,,,,,,,,,,,,,,,,,,,,,,,,,,,,,,,,,,,,,,,,,,,,,,,
,,,,3,2.139,,,,,,89,chocolate,rose,,89705,001,2022-04-29_14h10.01.325,SPAMnetsValid,2021.1.4,Win32,60.0240096,,,,,,,,,,,,,3,2.139,0,42,42,60,1,,,,,,,,,,,,,,,,,,,,,,,,,,,,,,,,,,,,,,,,,,,,,,,,,,,,,,,,,,,,,,,,,,,,,,
,,,,3,1.743,,,,,,70,chocolate,onion,,89705,001,2022-04-29_14h10.01.325,SPAMnetsValid,2021.1.4,Win32,60.0240096,,,,,,,,,,,,,3,1.743,0,43,43,74,1,,,,,,,,,,,,,,,,,,,,,,,,,,,,,,,,,,,,,,,,,,,,,,,,,,,,,,,,,,,,,,,,,,,,,,
,,,,1,2.473,,,,,,67,flower,yogurt,,89705,001,2022-04-29_14h10.01.325,SPAMnetsValid,2021.1.4,Win32,60.0240096,,,,,,,,,,,,,1,2.473,0,44,44,12,1,,,,,,,,,,,,,,,,,,,,,,,,,,,,,,,,,,,,,,,,,,,,,,,,,,,,,,,,,,,,,,,,,,,,,,
,,,,2,7.157,,,,,,16,chocolate,flower,,89705,001,2022-04-29_14h10.01.325,SPAMnetsValid,2021.1.4,Win32,60.0240096,,,,,,,,,,,,,2,7.157,0,45,45,22,1,,,,,,,,,,,,,,,,,,,,,,,,,,,,,,,,,,,,,,,,,,,,,,,,,,,,,,,,,,,,,,,,,,,,,,
,,,,1,1.643,,,,,,83,broom,carrot,,89705,001,2022-04-29_14h10.01.325,SPAMnetsValid,2021.1.4,Win32,60.0240096,,,,,,,,,,,,,1,1.643,0,46,46,4,1,,,,,,,,,,,,,,,,,,,,,,,,,,,,,,,,,,,,,,,,,,,,,,,,,,,,,,,,,,,,,,,,,,,,,,
,,,,3,2.948,,,,,,43,chocolate,tomato,,89705,001,2022-04-29_14h10.01.325,SPAMnetsValid,2021.1.4,Win32,60.0240096,,,,,,,,,,,,,3,2.948,0,47,47,8,1,,,,,,,,,,,,,,,,,,,,,,,,,,,,,,,,,,,,,,,,,,,,,,,,,,,,,,,,,,,,,,,,,,,,,,
,,,,3,1.138,,,,,,12,cookie,yogurt,,89705,001,2022-04-29_14h10.01.325,SPAMnetsValid,2021.1.4,Win32,60.0240096,,,,,,,,,,,,,3,1.138,0,48,48,36,1,,,,,,,,,,,,,,,,,,,,,,,,,,,,,,,,,,,,,,,,,,,,,,,,,,,,,,,,,,,,,,,,,,,,,,
,,,,3,2.825,,,,,,62,kitchen,rose,,89705,001,2022-04-29_14h10.01.325,SPAMnetsValid,2021.1.4,Win32,60.0240096,,,,,,,,,,,,,3,2.825,0,49,49,57,1,,,,,,,,,,,,,,,,,,,,,,,,,,,,,,,,,,,,,,,,,,,,,,,,,,,,,,,,,,,,,,,,,,,,,,
,,,,7,2.373,,,,,,18,onion,refrigerator,,89705,001,2022-04-29_14h10.01.325,SPAMnetsValid,2021.1.4,Win32,60.0240096,,,,,,,,,,,,,7,2.373,0,50,50,62,1,,,,,,,,,,,,,,,,,,,,,,,,,,,,,,,,,,,,,,,,,,,,,,,,,,,,,,,,,,,,,,,,,,,,,,
,,,,1,2.056,,,,,,53,garden,pretzel,,89705,001,2022-04-29_14h10.01.325,SPAMnetsValid,2021.1.4,Win32,60.0240096,,,,,,,,,,,,,1,2.056,0,51,51,0,1,,,,,,,,,,,,,,,,,,,,,,,,,,,,,,,,,,,,,,,,,,,,,,,,,,,,,,,,,,,,,,,,,,,,,,
,,,,7,2.341,,,,,,56,cactus,tree,,89705,001,2022-04-29_14h10.01.325,SPAMnetsValid,2021.1.4,Win32,60.0240096,,,,,,,,,,,,,7,2.341,0,52,52,21,1,,,,,,,,,,,,,,,,,,,,,,,,,,,,,,,,,,,,,,,,,,,,,,,,,,,,,,,,,,,,,,,,,,,,,,
,,,,1,2.556,,,,,,73,broom,chocolate,,89705,001,2022-04-29_14h10.01.325,SPAMnetsValid,2021.1.4,Win32,60.0240096,,,,,,,,,,,,,1,2.556,0,53,53,47,1,,,,,,,,,,,,,,,,,,,,,,,,,,,,,,,,,,,,,,,,,,,,,,,,,,,,,,,,,,,,,,,,,,,,,,
,,,,2,3.3,,,,,,27,cactus,cookie,,89705,001,2022-04-29_14h10.01.325,SPAMnetsValid,2021.1.4,Win32,60.0240096,,,,,,,,,,,,,2,3.3,0,54,54,17,1,,,,,,,,,,,,,,,,,,,,,,,,,,,,,,,,,,,,,,,,,,,,,,,,,,,,,,,,,,,,,,,,,,,,,,
,,,,3,3.226,,,,,,10,flower,onion,,89705,001,2022-04-29_14h10.01.325,SPAMnetsValid,2021.1.4,Win32,60.0240096,,,,,,,,,,,,,3,3.226,0,55,55,45,1,,,,,,,,,,,,,,,,,,,,,,,,,,,,,,,,,,,,,,,,,,,,,,,,,,,,,,,,,,,,,,,,,,,,,,
,,,,8,2.423,,,,,,9,kitchen,refrigerator,,89705,001,2022-04-29_14h10.01.325,SPAMnetsValid,2021.1.4,Win32,60.0240096,,,,,,,,,,,,,8,2.423,0,56,56,64,1,,,,,,,,,,,,,,,,,,,,,,,,,,,,,,,,,,,,,,,,,,,,,,,,,,,,,,,,,,,,,,,,,,,,,,
,,,,4,4.105,,,,,,49,flower,strawberry,,89705,001,2022-04-29_14h10.01.325,SPAMnetsValid,2021.1.4,Win32,60.0240096,,,,,,,,,,,,,4,4.105,0,57,57,3,1,,,,,,,,,,,,,,,,,,,,,,,,,,,,,,,,,,,,,,,,,,,,,,,,,,,,,,,,,,,,,,,,,,,,,,
,,,,2,2.476,,,,,,84,oven,tomato,,89705,001,2022-04-29_14h10.01.325,SPAMnetsValid,2021.1.4,Win32,60.0240096,,,,,,,,,,,,,2,2.476,0,58,58,28,1,,,,,,,,,,,,,,,,,,,,,,,,,,,,,,,,,,,,,,,,,,,,,,,,,,,,,,,,,,,,,,,,,,,,,,
,,,,5,13.66,,,,,,17,carrot,melon,,89705,001,2022-04-29_14h10.01.325,SPAMnetsValid,2021.1.4,Win32,60.0240096,,,,,,,,,,,,,5,13.66,0,59,59,24,1,,,,,,,,,,,,,,,,,,,,,,,,,,,,,,,,,,,,,,,,,,,,,,,,,,,,,,,,,,,,,,,,,,,,,,
,,,,3,5.388,,,,,,15,onion,oven,,89705,001,2022-04-29_14h10.01.325,SPAMnetsValid,2021.1.4,Win32,60.0240096,,,,,,,,,,,,,3,5.388,0,60,60,39,1,,,,,,,,,,,,,,,,,,,,,,,,,,,,,,,,,,,,,,,,,,,,,,,,,,,,,,,,,,,,,,,,,,,,,,
,,,,2,2.356,,,,,,74,broom,pretzel,,89705,001,2022-04-29_14h10.01.325,SPAMnetsValid,2021.1.4,Win32,60.0240096,,,,,,,,,,,,,2,2.356,0,61,61,40,1,,,,,,,,,,,,,,,,,,,,,,,,,,,,,,,,,,,,,,,,,,,,,,,,,,,,,,,,,,,,,,,,,,,,,,
,,,,7,2.366,,,,,,69,carrot,refrigerator,,89705,001,2022-04-29_14h10.01.325,SPAMnetsValid,2021.1.4,Win32,60.0240096,,,,,,,,,,,,,7,2.366,0,62,62,75,1,,,,,,,,,,,,,,,,,,,,,,,,,,,,,,,,,,,,,,,,,,,,,,,,,,,,,,,,,,,,,,,,,,,,,,
,,,,3,4.79,,,,,,21,cake,onion,,89705,001,2022-04-29_14h10.01.325,SPAMnetsValid,2021.1.4,Win32,60.0240096,,,,,,,,,,,,,3,4.79,0,63,63,63,1,,,,,,,,,,,,,,,,,,,,,,,,,,,,,,,,,,,,,,,,,,,,,,,,,,,,,,,,,,,,,,,,,,,,,,
,,,,1,3.54,,,,,,34,melon,oven,,89705,001,2022-04-29_14h10.01.325,SPAMnetsValid,2021.1.4,Win32,60.0240096,,,,,,,,,,,,,1,3.54,0,64,64,7,1,,,,,,,,,,,,,,,,,,,,,,,,,,,,,,,,,,,,,,,,,,,,,,,,,,,,,,,,,,,,,,,,,,,,,,
,,,,2,20.274,,,,,,95,broom,refrigerator,,89705,001,2022-04-29_14h10.01.325,SPAMnetsValid,2021.1.4,Win32,60.0240096,,,,,,,,,,,,,2,20.274,0,65,65,90,1,,,,,,,,,,,,,,,,,,,,,,,,,,,,,,,,,,,,,,,,,,,,,,,,,,,,,,,,,,,,,,,,,,,,,,
,,,,5,2.491,,,,,,25,carrot,onion,,89705,001,2022-04-29_14h10.01.325,SPAMnetsValid,2021.1.4,Win32,60.0240096,,,,,,,,,,,,,5,2.491,0,66,66,44,1,,,,,,,,,,,,,,,,,,,,,,,,,,,,,,,,,,,,,,,,,,,,,,,,,,,,,,,,,,,,,,,,,,,,,,
,,,,4,9.694,,,,,,36,broom,kitchen,,89705,001,2022-04-29_14h10.01.325,SPAMnetsValid,2021.1.4,Win32,60.0240096,,,,,,,,,,,,,4,9.694,0,67,67,76,1,,,,,,,,,,,,,,,,,,,,,,,,,,,,,,,,,,,,,,,,,,,,,,,,,,,,,,,,,,,,,,,,,,,,,,
,,,,3,1.647,,,,,,81,pretzel,yogurt,,89705,001,2022-04-29_14h10.01.325,SPAMnetsValid,2021.1.4,Win32,60.0240096,,,,,,,,,,,,,3,1.647,0,68,68,50,1,,,,,,,,,,,,,,,,,,,,,,,,,,,,,,,,,,,,,,,,,,,,,,,,,,,,,,,,,,,,,,,,,,,,,,
,,,,3,1.157,,,,,,26,tomato,yogurt,,89705,001,2022-04-29_14h10.01.325,SPAMnetsValid,2021.1.4,Win32,60.0240096,,,,,,,,,,,,,3,1.157,0,69,69,13,1,,,,,,,,,,,,,,,,,,,,,,,,,,,,,,,,,,,,,,,,,,,,,,,,,,,,,,,,,,,,,,,,,,,,,,
,,,,2,4.199,,,,,,91,microwave,rose,,89705,001,2022-04-29_14h10.01.325,SPAMnetsValid,2021.1.4,Win32,60.0240096,,,,,,,,,,,,,2,4.199,0,70,70,84,1,,,,,,,,,,,,,,,,,,,,,,,,,,,,,,,,,,,,,,,,,,,,,,,,,,,,,,,,,,,,,,,,,,,,,,
,,,,1,20.44,,,,,,8,broom,melon,,89705,001,2022-04-29_14h10.01.325,SPAMnetsValid,2021.1.4,Win32,60.0240096,,,,,,,,,,,,,1,20.44,0,71,71,59,1,,,,,,,,,,,,,,,,,,,,,,,,,,,,,,,,,,,,,,,,,,,,,,,,,,,,,,,,,,,,,,,,,,,,,,
,,,,5,1.74,,,,,,59,rose,strawberry,,89705,001,2022-04-29_14h10.01.325,SPAMnetsValid,2021.1.4,Win32,60.0240096,,,,,,,,,,,,,5,1.74,0,72,72,72,1,,,,,,,,,,,,,,,,,,,,,,,,,,,,,,,,,,,,,,,,,,,,,,,,,,,,,,,,,,,,,,,,,,,,,,
,,,,7,6.19,,,,,,52,carrot,tomato,,89705,001,2022-04-29_14h10.01.325,SPAMnetsValid,2021.1.4,Win32,60.0240096,,,,,,,,,,,,,7,6.19,0,73,73,95,1,,,,,,,,,,,,,,,,,,,,,,,,,,,,,,,,,,,,,,,,,,,,,,,,,,,,,,,,,,,,,,,,,,,,,,
,,,,1,1.421,,,,,,13,broom,yogurt,,89705,001,2022-04-29_14h10.01.325,SPAMnetsValid,2021.1.4,Win32,60.0240096,,,,,,,,,,,,,1,1.421,0,74,74,5,1,,,,,,,,,,,,,,,,,,,,,,,,,,,,,,,,,,,,,,,,,,,,,,,,,,,,,,,,,,,,,,,,,,,,,,
,,,,3,9.075,,,,,,44,cookie,melon,,89705,001,2022-04-29_14h10.01.325,SPAMnetsValid,2021.1.4,Win32,60.0240096,,,,,,,,,,,,,3,9.075,0,75,75,92,1,,,,,,,,,,,,,,,,,,,,,,,,,,,,,,,,,,,,,,,,,,,,,,,,,,,,,,,,,,,,,,,,,,,,,,
,,,,3,1.112,,,,,,45,onion,pretzel,,89705,001,2022-04-29_14h10.01.325,SPAMnetsValid,2021.1.4,Win32,60.0240096,,,,,,,,,,,,,3,1.112,0,76,76,69,1,,,,,,,,,,,,,,,,,,,,,,,,,,,,,,,,,,,,,,,,,,,,,,,,,,,,,,,,,,,,,,,,,,,,,,
,,,,1,4.311,,,,,,1,rose,yogurt,,89705,001,2022-04-29_14h10.01.325,SPAMnetsValid,2021.1.4,Win32,60.0240096,,,,,,,,,,,,,1,4.311,0,77,77,55,1,,,,,,,,,,,,,,,,,,,,,,,,,,,,,,,,,,,,,,,,,,,,,,,,,,,,,,,,,,,,,,,,,,,,,,
,,,,5,2.991,,,,,,60,cactus,onion,,89705,001,2022-04-29_14h10.01.325,SPAMnetsValid,2021.1.4,Win32,60.0240096,,,,,,,,,,,,,5,2.991,0,78,78,81,1,,,,,,,,,,,,,,,,,,,,,,,,,,,,,,,,,,,,,,,,,,,,,,,,,,,,,,,,,,,,,,,,,,,,,,
,,,,2,13.175,,,,,,80,chocolate,tree,,89705,001,2022-04-29_14h10.01.325,SPAMnetsValid,2021.1.4,Win32,60.0240096,,,,,,,,,,,,,2,13.175,0,79,79,89,1,,,,,,,,,,,,,,,,,,,,,,,,,,,,,,,,,,,,,,,,,,,,,,,,,,,,,,,,,,,,,,,,,,,,,,
,,,,1,1.797,,,,,,19,microwave,pretzel,,89705,001,2022-04-29_14h10.01.325,SPAMnetsValid,2021.1.4,Win32,60.0240096,,,,,,,,,,,,,1,1.797,0,80,80,41,1,,,,,,,,,,,,,,,,,,,,,,,,,,,,,,,,,,,,,,,,,,,,,,,,,,,,,,,,,,,,,,,,,,,,,,
,,,,1,3.997,,,,,,5,oven,tree,,89705,001,2022-04-29_14h10.01.325,SPAMnetsValid,2021.1.4,Win32,60.0240096,,,,,,,,,,,,,1,3.997,0,81,81,70,1,,,,,,,,,,,,,,,,,,,,,,,,,,,,,,,,,,,,,,,,,,,,,,,,,,,,,,,,,,,,,,,,,,,,,,
,,,,6,2.006,,,,,,22,kitchen,strawberry,,89705,001,2022-04-29_14h10.01.325,SPAMnetsValid,2021.1.4,Win32,60.0240096,,,,,,,,,,,,,6,2.006,0,82,82,2,1,,,,,,,,,,,,,,,,,,,,,,,,,,,,,,,,,,,,,,,,,,,,,,,,,,,,,,,,,,,,,,,,,,,,,,
,,,,8,1.555,,,,,,94,kitchen,microwave,,89705,001,2022-04-29_14h10.01.325,SPAMnetsValid,2021.1.4,Win32,60.0240096,,,,,,,,,,,,,8,1.555,0,83,83,58,1,,,,,,,,,,,,,,,,,,,,,,,,,,,,,,,,,,,,,,,,,,,,,,,,,,,,,,,,,,,,,,,,,,,,,,
,,,,1,19.808,,,,,,85,cake,tree,,89705,001,2022-04-29_14h10.01.325,SPAMnetsValid,2021.1.4,Win32,60.0240096,,,,,,,,,,,,,1,19.808,0,84,84,18,1,,,,,,,,,,,,,,,,,,,,,,,,,,,,,,,,,,,,,,,,,,,,,,,,,,,,,,,,,,,,,,,,,,,,,,
,,,,7,2.758,,,,,,77,refrigerator,yogurt,,89705,001,2022-04-29_14h10.01.325,SPAMnetsValid,2021.1.4,Win32,60.0240096,,,,,,,,,,,,,7,2.758,0,85,85,42,1,,,,,,,,,,,,,,,,,,,,,,,,,,,,,,,,,,,,,,,,,,,,,,,,,,,,,,,,,,,,,,,,,,,,,,
,,,,3,3.924,,,,,,75,cookie,onion,,89705,001,2022-04-29_14h10.01.325,SPAMnetsValid,2021.1.4,Win32,60.0240096,,,,,,,,,,,,,3,3.924,0,86,86,9,1,,,,,,,,,,,,,,,,,,,,,,,,,,,,,,,,,,,,,,,,,,,,,,,,,,,,,,,,,,,,,,,,,,,,,,
,,,,5,2.609,,,,,,50,carrot,rose,,89705,001,2022-04-29_14h10.01.325,SPAMnetsValid,2021.1.4,Win32,60.0240096,,,,,,,,,,,,,5,2.609,0,87,87,73,1,,,,,,,,,,,,,,,,,,,,,,,,,,,,,,,,,,,,,,,,,,,,,,,,,,,,,,,,,,,,,,,,,,,,,,
,,,,7,2.756,,,,,,3,cake,oven,,89705,001,2022-04-29_14h10.01.325,SPAMnetsValid,2021.1.4,Win32,60.0240096,,,,,,,,,,,,,7,2.756,0,88,88,30,1,,,,,,,,,,,,,,,,,,,,,,,,,,,,,,,,,,,,,,,,,,,,,,,,,,,,,,,,,,,,,,,,,,,,,,
,,,,5,2.475,,,,,,7,melon,tree,,89705,001,2022-04-29_14h10.01.325,SPAMnetsValid,2021.1.4,Win32,60.0240096,,,,,,,,,,,,,5,2.475,0,89,89,77,1,,,,,,,,,,,,,,,,,,,,,,,,,,,,,,,,,,,,,,,,,,,,,,,,,,,,,,,,,,,,,,,,,,,,,,
,,,,2,1.824,,,,,,58,garden,oven,,89705,001,2022-04-29_14h10.01.325,SPAMnetsValid,2021.1.4,Win32,60.0240096,,,,,,,,,,,,,2,1.824,0,90,90,37,1,,,,,,,,,,,,,,,,,,,,,,,,,,,,,,,,,,,,,,,,,,,,,,,,,,,,,,,,,,,,,,,,,,,,,,
,,,,1,1.49,,,,,,65,broom,garden,,89705,001,2022-04-29_14h10.01.325,SPAMnetsValid,2021.1.4,Win32,60.0240096,,,,,,,,,,,,,1,1.49,0,91,91,23,1,,,,,,,,,,,,,,,,,,,,,,,,,,,,,,,,,,,,,,,,,,,,,,,,,,,,,,,,,,,,,,,,,,,,,,
,,,,1,2.356,,,,,,92,broom,flower,,89705,001,2022-04-29_14h10.01.325,SPAMnetsValid,2021.1.4,Win32,60.0240096,,,,,,,,,,,,,1,2.356,0,92,92,88,1,,,,,,,,,,,,,,,,,,,,,,,,,,,,,,,,,,,,,,,,,,,,,,,,,,,,,,,,,,,,,,,,,,,,,,
,,,,1,1.689,,,,,,78,cookie,rose,,89705,001,2022-04-29_14h10.01.325,SPAMnetsValid,2021.1.4,Win32,60.0240096,,,,,,,,,,,,,1,1.689,0,93,93,56,1,,,,,,,,,,,,,,,,,,,,,,,,,,,,,,,,,,,,,,,,,,,,,,,,,,,,,,,,,,,,,,,,,,,,,,
,,,,4,3.19,,,,,,20,rose,tree,,89705,001,2022-04-29_14h10.01.325,SPAMnetsValid,2021.1.4,Win32,60.0240096,,,,,,,,,,,,,4,3.19,0,94,94,66,1,,,,,,,,,,,,,,,,,,,,,,,,,,,,,,,,,,,,,,,,,,,,,,,,,,,,,,,,,,,,,,,,,,,,,,
,,,,7,3.228,,,,,,63,cake,cookie,,89705,001,2022-04-29_14h10.01.325,SPAMnetsValid,2021.1.4,Win32,60.0240096,,,,,,,,,,,,,7,3.228,0,95,95,93,1,,,,,,,,,,,,,,,,,,,,,,,,,,,,,,,,,,,,,,,,,,,,,,,,,,,,,,,,,,,,,,,,,,,,,,
,,,,3,7.127,,,,,,4,chocolate,pretzel,,89705,001,2022-04-29_14h10.01.325,SPAMnetsValid,2021.1.4,Win32,60.0240096,,,,,,,,,,,,,3,7.127,0,96,96,52,1,,,,,,,,,,,,,,,,,,,,,,,,,,,,,,,,,,,,,,,,,,,,,,,,,,,,,,,,,,,,,,,,,,,,,,
,,,,,,,,,,,,,,,89705,001,2022-04-29_14h10.01.325,SPAMnetsValid,2021.1.4,Win32,60.0240096,,,,,,,,,,,,,,,,,,,,0,0,0,0,1,,,,,,,,,,,,,,,,,,,,,,,,,,,,,,,,,,,,,,,,,,,,,,,,,,,,,,,,,,,,,,,,,
,,,,,,,,,,,,,,,89705,001,2022-04-29_14h10.01.325,SPAMnetsValid,2021.1.4,Win32,60.0240096,,,,,,0,1,1,0,1,1,0,,,,,,,,,,,,,,,,,,,,,,,,,,,,,,,,,,,,,,,,,,,,,,,,,,,,,,,,,,,,,,,,,,,,,,,,,,,,,
,,,,,,,,,,,,,,,89705,001,2022-04-29_14h10.01.325,SPAMnetsValid,2021.1.4,Win32,60.0240096,,,,,,,,,,,,,,,,,,,,,,,,,3,8.197,0,0,0,0,1,rancor,forbearance,ridicule,malice,bravery,3,,,,,,,,,,,,,,,,,,,,,,,,,,,,,,,,,,,,,,,,,,,,,,,,,,,,
,,,,,,,,,,,,,,,89705,001,2022-04-29_14h10.01.325,SPAMnetsValid,2021.1.4,Win32,60.0240096,,,,,,,,,,,,,,,,,,,,,,,,,4,6.34,0,1,1,1,1,raucous,empty,quiet,smooth,harsh,4,,,,,,,,,,,,,,,,,,,,,,,,,,,,,,,,,,,,,,,,,,,,,,,,,,,,
,,,,,,,,,,,,,,,89705,001,2022-04-29_14h10.01.325,SPAMnetsValid,2021.1.4,Win32,60.0240096,,,,,,,,,,,,,,,,,,,,,,,,,3,3.993,0,2,2,2,1,gargoyle,oil,medicine,carved waterspout,ugly building,3,,,,,,,,,,,,,,,,,,,,,,,,,,,,,,,,,,,,,,,,,,,,,,,,,,,,
,,,,,,,,,,,,,,,89705,001,2022-04-29_14h10.01.325,SPAMnetsValid,2021.1.4,Win32,60.0240096,,,,,,,,,,,,,,,,,,,,,,,,,2,5.973,0,3,3,3,1,recrudesce,purify,renew activity,lack refinement,crush,2,,,,,,,,,,,,,,,,,,,,,,,,,,,,,,,,,,,,,,,,,,,,,,,,,,,,
,,,,,,,,,,,,,,,89705,001,2022-04-29_14h10.01.325,SPAMnetsValid,2021.1.4,Win32,60.0240096,,,,,,,,,,,,,,,,,,,,,,,,,3,12.038,0,4,4,4,1,specious,"plausible, but not genuine",noteworthy,class or variety,roomy,1,,,,,,,,,,,,,,,,,,,,,,,,,,,,,,,,,,,,,,,,,,,,,,,,,,,,
,,,,,,,,,,,,,,,89705,001,2022-04-29_14h10.01.325,SPAMnetsValid,2021.1.4,Win32,60.0240096,,,,,,,,,,,,,,,,,,,,,,,,,3,3.815,0,5,5,5,1,bauble,bubble,showy plaything,idle talk,confusion,2,,,,,,,,,,,,,,,,,,,,,,,,,,,,,,,,,,,,,,,,,,,,,,,,,,,,
,,,,,,,,,,,,,,,89705,001,2022-04-29_14h10.01.325,SPAMnetsValid,2021.1.4,Win32,60.0240096,,,,,,,,,,,,,,,,,,,,,,,,,2,5.091,0,6,6,6,1,prolific,scarce,producing abundantly,reckless,speaking profanely,2,,,,,,,,,,,,,,,,,,,,,,,,,,,,,,,,,,,,,,,,,,,,,,,,,,,,
,,,,,,,,,,,,,,,89705,001,2022-04-29_14h10.01.325,SPAMnetsValid,2021.1.4,Win32,60.0240096,,,,,,,,,,,,,,,,,,,,,,,,,2,6.638,0,7,7,7,1,opulent,party,wealthy,happy frame of mind,semiprecious stone,2,,,,,,,,,,,,,,,,,,,,,,,,,,,,,,,,,,,,,,,,,,,,,,,,,,,,
,,,,,,,,,,,,,,,89705,001,2022-04-29_14h10.01.325,SPAMnetsValid,2021.1.4,Win32,60.0240096,,,,,,,,,,,,,,,,,,,,,,,,,3,5.023,0,8,8,8,1,coercion,conspiracy,strategy,restraint,attraction,3,,,,,,,,,,,,,,,,,,,,,,,,,,,,,,,,,,,,,,,,,,,,,,,,,,,,
,,,,,,,,,,,,,,,89705,001,2022-04-29_14h10.01.325,SPAMnetsValid,2021.1.4,Win32,60.0240096,,,,,,,,,,,,,,,,,,,,,,,,,4,3.996,0,9,9,9,1,hiatus,animal,calamity,dread,gap,4,,,,,,,,,,,,,,,,,,,,,,,,,,,,,,,,,,,,,,,,,,,,,,,,,,,,
,,,,,,,,,,,,,,,89705,001,2022-04-29_14h10.01.325,SPAMnetsValid,2021.1.4,Win32,60.0240096,,,,,,,,,,,,,,,,,,,,,,,,,4,13.492,0,10,10,10,1,germane,microbe,contagious,relevant,different,3,,,,,,,,,,,,,,,,,,,,,,,,,,,,,,,,,,,,,,,,,,,,,,,,,,,,
,,,,,,,,,,,,,,,89705,001,2022-04-29_14h10.01.325,SPAMnetsValid,2021.1.4,Win32,60.0240096,,,,,,,,,,,,,,,,,,,,,,,,,1,9.722,0,11,11,11,1,perfunctory,fundamental,formal,superficial,careful,3,,,,,,,,,,,,,,,,,,,,,,,,,,,,,,,,,,,,,,,,,,,,,,,,,,,,
,,,,,,,,,,,,,,,89705,001,2022-04-29_14h10.01.325,SPAMnetsValid,2021.1.4,Win32,60.0240096,,,,,,,,,,,,,,,,,,,,,,,,,4,4.773,0,12,12,12,1,diverge,reveal,chant,distract the attention of,differ or turn off from,4,,,,,,,,,,,,,,,,,,,,,,,,,,,,,,,,,,,,,,,,,,,,,,,,,,,,
,,,,,,,,,,,,,,,89705,001,2022-04-29_14h10.01.325,SPAMnetsValid,2021.1.4,Win32,60.0240096,,,,,,,,,,,,,,,,,,,,,,,,,4,3.479,0,13,13,13,1,evoke,take away,anger,connect,bring out,4,,,,,,,,,,,,,,,,,,,,,,,,,,,,,,,,,,,,,,,,,,,,,,,,,,,,
,,,,,,,,,,,,,,,89705,001,2022-04-29_14h10.01.325,SPAMnetsValid,2021.1.4,Win32,60.0240096,,,,,,,,,,,,,,,,,,,,,,,,,1,3.324,0,14,14,14,1,pertinent,relevant,lying next to,necessary,bold,1,,,,,,,,,,,,,,,,,,,,,,,,,,,,,,,,,,,,,,,,,,,,,,,,,,,,
,,,,,,,,,,,,,,,89705,001,2022-04-29_14h10.01.325,SPAMnetsValid,2021.1.4,Win32,60.0240096,,,,,,,,,,,,,,,,,,,,,,,,,2,2.19,0,15,15,15,1,holocaust,entirety,destruction,saintly,price,2,,,,,,,,,,,,,,,,,,,,,,,,,,,,,,,,,,,,,,,,,,,,,,,,,,,,
,,,,,,,,,,,,,,,89705,001,2022-04-29_14h10.01.325,SPAMnetsValid,2021.1.4,Win32,60.0240096,,,,,,,,,,,,,,,,,,,,,,,,,1,2.787,0,16,16,16,1,piquant,mellow,fish,pungent,cloth,3,,,,,,,,,,,,,,,,,,,,,,,,,,,,,,,,,,,,,,,,,,,,,,,,,,,,
,,,,,,,,,,,,,,,89705,001,2022-04-29_14h10.01.325,SPAMnetsValid,2021.1.4,Win32,60.0240096,,,,,,,,,,,,,,,,,,,,,,,,,1,3.837,0,17,17,17,1,firmament,foundation,heavens,strong,glue,2,,,,,,,,,,,,,,,,,,,,,,,,,,,,,,,,,,,,,,,,,,,,,,,,,,,,
,,,,,,,,,,,,,,,89705,001,2022-04-29_14h10.01.325,SPAMnetsValid,2021.1.4,Win32,60.0240096,,,,,,,,,,,,,,,,,,,,,,,,,,,,,,,,,,,,,,4,12.386,0,0,0,0,1,marketable,partisan,jocular,marriageable,salable,essential,4,,,,,,,,,,,,,,,,,,,,,,,,,,,,,,,,,,,,,,
,,,,,,,,,,,,,,,89705,001,2022-04-29_14h10.01.325,SPAMnetsValid,2021.1.4,Win32,60.0240096,,,,,,,,,,,,,,,,,,,,,,,,,,,,,,,,,,,,,,5,4.842,0,1,1,1,1,cottontail,squirrel,poplar,boa,marshy plant,rabbit,5,,,,,,,,,,,,,,,,,,,,,,,,,,,,,,,,,,,,,,
,,,,,,,,,,,,,,,89705,001,2022-04-29_14h10.01.325,SPAMnetsValid,2021.1.4,Win32,60.0240096,,,,,,,,,,,,,,,,,,,,,,,,,,,,,,,,,,,,,,3,3.062,0,2,2,2,1,boggy,afraid,false,marshy,dense,black,3,,,,,,,,,,,,,,,,,,,,,,,,,,,,,,,,,,,,,,
,,,,,,,,,,,,,,,89705,001,2022-04-29_14h10.01.325,SPAMnetsValid,2021.1.4,Win32,60.0240096,,,,,,,,,,,,,,,,,,,,,,,,,,,,,,,,,,,,,,5,4.507,0,3,3,3,1,gruesomeness,blackness,falseness,vindictiveness,drunkenness,ghastliness,5,,,,,,,,,,,,,,,,,,,,,,,,,,,,,,,,,,,,,,
,,,,,,,,,,,,,,,89705,001,2022-04-29_14h10.01.325,SPAMnetsValid,2021.1.4,Win32,60.0240096,,,,,,,,,,,,,,,,,,,,,,,,,,,,,,,,,,,,,,3,3.509,0,4,4,4,1,loathing,diffidence,laziness,abhorrence,cleverness,comfort,3,,,,,,,,,,,,,,,,,,,,,,,,,,,,,,,,,,,,,,
,,,,,,,,,,,,,,,89705,001,2022-04-29_14h10.01.325,SPAMnetsValid,2021.1.4,Win32,60.0240096,,,,,,,,,,,,,,,,,,,,,,,,,,,,,,,,,,,,,,2,4.975,0,5,5,5,1,bantam,fowl,ridicule,cripple,vegetable,ensign,1,,,,,,,,,,,,,,,,,,,,,,,,,,,,,,,,,,,,,,
,,,,,,,,,,,,,,,89705,001,2022-04-29_14h10.01.325,SPAMnetsValid,2021.1.4,Win32,60.0240096,,,,,,,,,,,,,,,,,,,,,,,,,,,,,,,,,,,,,,5,2.858,0,6,6,6,1,evoke,wake up,surrender,reconnoiter,transcend,call forth,5,,,,,,,,,,,,,,,,,,,,,,,,,,,,,,,,,,,,,,
,,,,,,,,,,,,,,,89705,001,2022-04-29_14h10.01.325,SPAMnetsValid,2021.1.4,Win32,60.0240096,,,,,,,,,,,,,,,,,,,,,,,,,,,,,,,,,,,,,,5,8.889,0,7,7,7,1,unobtrusive,unintelligent,epileptic,illogical,lineal,modest,5,,,,,,,,,,,,,,,,,,,,,,,,,,,,,,,,,,,,,,
,,,,,,,,,,,,,,,89705,001,2022-04-29_14h10.01.325,SPAMnetsValid,2021.1.4,Win32,60.0240096,,,,,,,,,,,,,,,,,,,,,,,,,,,,,,,,,,,,,,4,7.26,0,8,8,8,1,terrain,ice cream,final test,tractor,area of ground,weight,4,,,,,,,,,,,,,,,,,,,,,,,,,,,,,,,,,,,,,,
,,,,,,,,,,,,,,,89705,001,2022-04-29_14h10.01.325,SPAMnetsValid,2021.1.4,Win32,60.0240096,,,,,,,,,,,,,,,,,,,,,,,,,,,,,,,,,,,,,,2,8.111,0,9,9,9,1,capriciousness,stubbornness,courage,whimsicality,amazement,greediness,3,,,,,,,,,,,,,,,,,,,,,,,,,,,,,,,,,,,,,,
,,,,,,,,,,,,,,,89705,001,2022-04-29_14h10.01.325,SPAMnetsValid,2021.1.4,Win32,60.0240096,,,,,,,,,,,,,,,,,,,,,,,,,,,,,,,,,,,,,,3,9.191,0,10,10,10,1,maelstrom,slander,whirlpool,enmity,armor,majolica,2,,,,,,,,,,,,,,,,,,,,,,,,,,,,,,,,,,,,,,
,,,,,,,,,,,,,,,89705,001,2022-04-29_14h10.01.325,SPAMnetsValid,2021.1.4,Win32,60.0240096,,,,,,,,,,,,,,,,,,,,,,,,,,,,,,,,,,,,,,4,3.158,0,11,11,11,1,tentative,critical,conclusive,authentic,provisional,apprehensive,4,,,,,,,,,,,,,,,,,,,,,,,,,,,,,,,,,,,,,,
,,,,,,,,,,,,,,,89705,001,2022-04-29_14h10.01.325,SPAMnetsValid,2021.1.4,Win32,60.0240096,,,,,,,,,,,,,,,,,,,,,,,,,,,,,,,,,,,,,,5,7.825,0,12,12,12,1,placate,rehabilitate,plagiarize,depredate,apprise,conciliate,5,,,,,,,,,,,,,,,,,,,,,,,,,,,,,,,,,,,,,,
,,,,,,,,,,,,,,,89705,001,2022-04-29_14h10.01.325,SPAMnetsValid,2021.1.4,Win32,60.0240096,,,,,,,,,,,,,,,,,,,,,,,,,,,,,,,,,,,,,,2,4.045,0,13,13,13,1,surcease,enlightenment,cessation,inattention,censor,substitution,2,,,,,,,,,,,,,,,,,,,,,,,,,,,,,,,,,,,,,,
,,,,,,,,,,,,,,,89705,001,2022-04-29_14h10.01.325,SPAMnetsValid,2021.1.4,Win32,60.0240096,,,,,,,,,,,,,,,,,,,,,,,,,,,,,,,,,,,,,,2,2.057,0,14,14,14,1,apathetic,wandering,impassive,hateful,prophetic,overflowing,2,,,,,,,,,,,,,,,,,,,,,,,,,,,,,,,,,,,,,,
,,,,,,,,,,,,,,,89705,001,2022-04-29_14h10.01.325,SPAMnetsValid,2021.1.4,Win32,60.0240096,,,,,,,,,,,,,,,,,,,,,,,,,,,,,,,,,,,,,,1,9.232,0,15,15,15,1,paternoster,paternalism,patricide,malediction,benediction,prayer,5,,,,,,,,,,,,,,,,,,,,,,,,,,,,,,,,,,,,,,
,,,,,,,,,,,,,,,89705,001,2022-04-29_14h10.01.325,SPAMnetsValid,2021.1.4,Win32,60.0240096,,,,,,,,,,,,,,,,,,,,,,,,,,,,,,,,,,,,,,4,6.899,0,16,16,16,1,opalescence,opulence,senescence,bankruptcy,iridescence,assiduity,4,,,,,,,,,,,,,,,,,,,,,,,,,,,,,,,,,,,,,,
,,,,,,,,,,,,,,,89705,001,2022-04-29_14h10.01.325,SPAMnetsValid,2021.1.4,Win32,60.0240096,,,,,,,,,,,,,,,,,,,,,,,,,,,,,,,,,,,,,,2,2.758,0,17,17,17,1,lush,stupid,luxurious,hazy,putrid,languishing,2,,,,,,,,,,,,,,,,,,,,,,,,,,,,,,,,,,,,,,
,,,,,,,,,,,,,,,89705,001,2022-04-29_14h10.01.325,SPAMnetsValid,2021.1.4,Win32,60.0240096,,,,,,,,,,,,,,,,,,,,,,,,,,,,,,,,,,,,,,3,22.563,0,18,18,18,1,curtailment,expenditure,abandonment,abridgment,improvement,forgery,3,,,,,,,,,,,,,,,,,,,,,,,,,,,,,,,,,,,,,,
,,,,,,,,,,,,,,,89705,001,2022-04-29_14h10.01.325,SPAMnetsValid,2021.1.4,Win32,60.0240096,,,,,,,,,,,,,,,,,,,,,,,,,,,,,,,,,,,,,,5,23,0,19,19,19,1,perversity,adversity,perviousness,travesty,waywardness,gentility,4,,,,,,,,,,,,,,,,,,,,,,,,,,,,,,,,,,,,,,
,,,,,,,,,,,,,,,89705,001,2022-04-29_14h10.01.325,SPAMnetsValid,2021.1.4,Win32,60.0240096,,,,,,,,,,,,,,,,,,,,,,,,,,,,,,,,,,,,,,4,7.556,0,20,20,20,1,calumnious,complimentary,analogous,slanderous,tempestuous,magnanimous,3,,,,,,,,,,,,,,,,,,,,,,,,,,,,,,,,,,,,,,
,,,,,,,,,,,,,,,89705,001,2022-04-29_14h10.01.325,SPAMnetsValid,2021.1.4,Win32,60.0240096,,,,,,,,,,,,,,,,,,,,,,,,,,,,,,,,,,,,,,1,6.706,0,21,21,21,1,illiberality,bigotry,imbecility,illegibility,cautery,immaturity,1,,,,,,,,,,,,,,,,,,,,,,,,,,,,,,,,,,,,,,
,,,,,,,,,,,,,,,89705,001,2022-04-29_14h10.01.325,SPAMnetsValid,2021.1.4,Win32,60.0240096,,,,,,,,,,,,,,,,,,,,,,,,,,,,,,,,,,,,,,5,6.848,0,22,22,22,1,clabber,rejoice,gossip,curdle,crow,hobble,3,,,,,,,,,,,,,,,,,,,,,,,,,,,,,,,,,,,,,,
,,,,,,,,,,,,,,,89705,001,2022-04-29_14h10.01.325,SPAMnetsValid,2021.1.4,Win32,60.0240096,,,,,,,,,,,,,,,,,,,,,,,,,,,,,,,,,,,,,,5,7.265,0,23,23,23,1,sedulousness,diligence,credulousness,seduction,perilousness,frankness,1,,,,,,,,,,,,,,,,,,,,,,,,,,,,,,,,,,,,,,
,,,,,,,,,,,,,,,89705,001,2022-04-29_14h10.01.325,SPAMnetsValid,2021.1.4,Win32,60.0240096,,,,,,,,,,,,,,,,,,,,,,,,,,,,,,,,,,,,,,,,,,,,,,,,,,,,helmet,bucket,0,0,0,0,1,,,,,,,,,,,,,,,,,,,,,,,,,,,,,,,
,,,,,,,,,,,,,,,89705,001,2022-04-29_14h10.01.325,SPAMnetsValid,2021.1.4,Win32,60.0240096,,,,,,,,,,,,,,,,,,,,,,,,,,,,,,,,,,,,,,,,,,,,,,,,,,,,dinner plate,bucket,1,0,1,0,1,,,,,,,,,,,,,,,,,,,,,,,,,,,,,,,
,,,,,,,,,,,,,,,89705,001,2022-04-29_14h10.01.325,SPAMnetsValid,2021.1.4,Win32,60.0240096,,,,,,,,,,,,,,,,,,,,,,,,,,,,,,,,,,,,,,,,,,,,,,,,,,,,art to display,bucket,2,0,2,0,1,,,,,,,,,,,,,,,,,,,,,,,,,,,,,,,
,,,,,,,,,,,,,,,89705,001,2022-04-29_14h10.01.325,SPAMnetsValid,2021.1.4,Win32,60.0240096,,,,,,,,,,,,,,,,,,,,,,,,,,,,,,,,,,,,,,,,,,,,,,,,,,,,drum,bucket,3,0,3,0,1,,,,,,,,,,,,,,,,,,,,,,,,,,,,,,,
,,,,,,,,,,,,,,,89705,001,2022-04-29_14h10.01.325,SPAMnetsValid,2021.1.4,Win32,60.0240096,,,,,,,,,,,,,,,,,,,,,,,,,,,,,,,,,,,,,,,,,,,,,,,,,,,,mirror,bucket,4,0,4,0,1,,,,,,,,,,,,,,,,,,,,,,,,,,,,,,,
,,,,,,,,,,,,,,,89705,001,2022-04-29_14h10.01.325,SPAMnetsValid,2021.1.4,Win32,60.0240096,,,,,,,,,,,,,,,,,,,,,,,,,,,,,,,,,,,,,,,,,,,,,,,,,,,,weapon,bucket,5,0,5,0,1,,,,,,,,,,,,,,,,,,,,,,,,,,,,,,,
,,,,,,,,,,,,,,,89705,001,2022-04-29_14h10.01.325,SPAMnetsValid,2021.1.4,Win32,60.0240096,,,,,,,,,,,,,,,,,,,,,,,,,,,,,,,,,,,,,,,,,,,,,,,,,,,,stamp or tool for circular imprints,bucket,6,0,6,0,1,,,,,,,,,,,,,,,,,,,,,,,,,,,,,,,
,,,,,,,,,,,,,,,89705,001,2022-04-29_14h10.01.325,SPAMnetsValid,2021.1.4,Win32,60.0240096,,,,,,,,,,,,,,,,,,,,,,,,,,,,,,,,,,,,,,,,,,,,,,,,,,,,shoe,bucket,7,0,7,0,1,,,,,,,,,,,,,,,,,,,,,,,,,,,,,,,
,,,,,,,,,,,,,,,89705,001,2022-04-29_14h10.01.325,SPAMnetsValid,2021.1.4,Win32,60.0240096,,,,,,,,,,,,,,,,,,,,,,,,,,,,,,,,,,,,,,,,,,,,,,,,,,,,foundation for an art piece,bucket,8,0,8,0,1,,,,,,,,,,,,,,,,,,,,,,,,,,,,,,,
,,,,,,,,,,,,,,,89705,001,2022-04-29_14h10.01.325,SPAMnetsValid,2021.1.4,Win32,60.0240096,,,,,,,,,,,,,,,,,,,,,,,,,,,,,,,,,,,,,,,,,,,,,,,,,,,,cage for small animal,bucket,9,0,9,0,1,,,,,,,,,,,,,,,,,,,,,,,,,,,,,,,
,,,,,,,,,,,,,,,89705,001,2022-04-29_14h10.01.325,SPAMnetsValid,2021.1.4,Win32,60.0240096,,,,,,,,,,,,,,,,,,,,,,,,,,,,,,,,,,,,,,,,,,,,,,,,,,,,,,,,,,,0,0,0,0,1,bucket,,,,,,,,,,,,,,,,,,,,,,,,,
,,,,,,,,,,,,,,,89705,001,2022-04-29_14h10.01.325,SPAMnetsValid,2021.1.4,Win32,60.0240096,,,,,,,,,,,,,,,,,,,,,,,,,,,,,,,,,,,,,,,,,,,,,,,,,,,,accessory for an altar,candle,0,0,0,0,1,,,,,,,,,,,,,,,,,,,,,,,,,,,,,,,
,,,,,,,,,,,,,,,89705,001,2022-04-29_14h10.01.325,SPAMnetsValid,2021.1.4,Win32,60.0240096,,,,,,,,,,,,,,,,,,,,,,,,,,,,,,,,,,,,,,,,,,,,,,,,,,,,sexual wax play,candle,1,0,1,0,1,,,,,,,,,,,,,,,,,,,,,,,,,,,,,,,
,,,,,,,,,,,,,,,89705,001,2022-04-29_14h10.01.325,SPAMnetsValid,2021.1.4,Win32,60.0240096,,,,,,,,,,,,,,,,,,,,,,,,,,,,,,,,,,,,,,,,,,,,,,,,,,,,burn a tattoo into someone,candle,2,0,2,0,1,,,,,,,,,,,,,,,,,,,,,,,,,,,,,,,
,,,,,,,,,,,,,,,89705,001,2022-04-29_14h10.01.325,SPAMnetsValid,2021.1.4,Win32,60.0240096,,,,,,,,,,,,,,,,,,,,,,,,,,,,,,,,,,,,,,,,,,,,,,,,,,,,as a lighter,candle,3,0,3,0,1,,,,,,,,,,,,,,,,,,,,,,,,,,,,,,,
,,,,,,,,,,,,,,,89705,001,2022-04-29_14h10.01.325,SPAMnetsValid,2021.1.4,Win32,60.0240096,,,,,,,,,,,,,,,,,,,,,,,,,,,,,,,,,,,,,,,,,,,,,,,,,,,,as a timer,candle,4,0,4,0,1,,,,,,,,,,,,,,,,,,,,,,,,,,,,,,,
,,,,,,,,,,,,,,,89705,001,2022-04-29_14h10.01.325,SPAMnetsValid,2021.1.4,Win32,60.0240096,,,,,,,,,,,,,,,,,,,,,,,,,,,,,,,,,,,,,,,,,,,,,,,,,,,,stack them like cups,candle,5,0,5,0,1,,,,,,,,,,,,,,,,,,,,,,,,,,,,,,,
,,,,,,,,,,,,,,,89705,001,2022-04-29_14h10.01.325,SPAMnetsValid,2021.1.4,Win32,60.0240096,,,,,,,,,,,,,,,,,,,,,,,,,,,,,,,,,,,,,,,,,,,,,,,,,,,,make a picture or object you can see from a bird's eye view,candle,6,0,6,0,1,,,,,,,,,,,,,,,,,,,,,,,,,,,,,,,
,,,,,,,,,,,,,,,89705,001,2022-04-29_14h10.01.325,SPAMnetsValid,2021.1.4,Win32,60.0240096,,,,,,,,,,,,,,,,,,,,,,,,,,,,,,,,,,,,,,,,,,,,,,,,,,,,in a jackolantern,candle,7,0,7,0,1,,,,,,,,,,,,,,,,,,,,,,,,,,,,,,,
,,,,,,,,,,,,,,,89705,001,2022-04-29_14h10.01.325,SPAMnetsValid,2021.1.4,Win32,60.0240096,,,,,,,,,,,,,,,,,,,,,,,,,,,,,,,,,,,,,,,,,,,,,,,,,,,,,,,,,,,0,1,1,1,1,candle,,,,,,,,,,,,,,,,,,,,,,,,,
,,,,,,,,,,,,,,,89705,001,2022-04-29_14h10.01.325,SPAMnetsValid,2021.1.4,Win32,60.0240096,,,,,,,,,,,,,,,,,,,,,,,,,,,,,,,,,,,,,,,,,,,,,,,,,,,,smother someone,pillow,0,0,0,0,1,,,,,,,,,,,,,,,,,,,,,,,,,,,,,,,
,,,,,,,,,,,,,,,89705,001,2022-04-29_14h10.01.325,SPAMnetsValid,2021.1.4,Win32,60.0240096,,,,,,,,,,,,,,,,,,,,,,,,,,,,,,,,,,,,,,,,,,,,,,,,,,,,any kind of cushion,pillow,1,0,1,0,1,,,,,,,,,,,,,,,,,,,,,,,,,,,,,,,
,,,,,,,,,,,,,,,89705,001,2022-04-29_14h10.01.325,SPAMnetsValid,2021.1.4,Win32,60.0240096,,,,,,,,,,,,,,,,,,,,,,,,,,,,,,,,,,,,,,,,,,,,,,,,,,,,make a doll out of it,pillow,2,0,2,0,1,,,,,,,,,,,,,,,,,,,,,,,,,,,,,,,
,,,,,,,,,,,,,,,89705,001,2022-04-29_14h10.01.325,SPAMnetsValid,2021.1.4,Win32,60.0240096,,,,,,,,,,,,,,,,,,,,,,,,,,,,,,,,,,,,,,,,,,,,,,,,,,,,make a mannequin,pillow,3,0,3,0,1,,,,,,,,,,,,,,,,,,,,,,,,,,,,,,,
,,,,,,,,,,,,,,,89705,001,2022-04-29_14h10.01.325,SPAMnetsValid,2021.1.4,Win32,60.0240096,,,,,,,,,,,,,,,,,,,,,,,,,,,,,,,,,,,,,,,,,,,,,,,,,,,,as a crash pad for sports like rock climbing,pillow,4,0,4,0,1,,,,,,,,,,,,,,,,,,,,,,,,,,,,,,,
,,,,,,,,,,,,,,,89705,001,2022-04-29_14h10.01.325,SPAMnetsValid,2021.1.4,Win32,60.0240096,,,,,,,,,,,,,,,,,,,,,,,,,,,,,,,,,,,,,,,,,,,,,,,,,,,,pillow case for halloween candy,pillow,5,0,5,0,1,,,,,,,,,,,,,,,,,,,,,,,,,,,,,,,
,,,,,,,,,,,,,,,89705,001,2022-04-29_14h10.01.325,SPAMnetsValid,2021.1.4,Win32,60.0240096,,,,,,,,,,,,,,,,,,,,,,,,,,,,,,,,,,,,,,,,,,,,,,,,,,,,practice massage on it,pillow,6,0,6,0,1,,,,,,,,,,,,,,,,,,,,,,,,,,,,,,,
,,,,,,,,,,,,,,,89705,001,2022-04-29_14h10.01.325,SPAMnetsValid,2021.1.4,Win32,60.0240096,,,,,,,,,,,,,,,,,,,,,,,,,,,,,,,,,,,,,,,,,,,,,,,,,,,,,,,,,,,0,2,2,2,1,pillow,,,,,,,,,,,,,,,,,,,,,,,,,
,,,,,,,,,,,,,,,89705,001,2022-04-29_14h10.01.325,SPAMnetsValid,2021.1.4,Win32,60.0240096,,,,,,,,,,,,,,,,,,,,,,,,,,,,,,,,,,,,,,,,,,,,,,,,,,,,,,,,,,,,,,,,,bat,Animals,0,0,0,0,1,,,,,,,,,,,,,,,,,,
,,,,,,,,,,,,,,,89705,001,2022-04-29_14h10.01.325,SPAMnetsValid,2021.1.4,Win32,60.0240096,,,,,,,,,,,,,,,,,,,,,,,,,,,,,,,,,,,,,,,,,,,,,,,,,,,,,,,,,,,,,,,,,cat,Animals,1,0,1,0,1,,,,,,,,,,,,,,,,,,
,,,,,,,,,,,,,,,89705,001,2022-04-29_14h10.01.325,SPAMnetsValid,2021.1.4,Win32,60.0240096,,,,,,,,,,,,,,,,,,,,,,,,,,,,,,,,,,,,,,,,,,,,,,,,,,,,,,,,,,,,,,,,,dog,Animals,2,0,2,0,1,,,,,,,,,,,,,,,,,,
,,,,,,,,,,,,,,,89705,001,2022-04-29_14h10.01.325,SPAMnetsValid,2021.1.4,Win32,60.0240096,,,,,,,,,,,,,,,,,,,,,,,,,,,,,,,,,,,,,,,,,,,,,,,,,,,,,,,,,,,,,,,,,bird,Animals,3,0,3,0,1,,,,,,,,,,,,,,,,,,
,,,,,,,,,,,,,,,89705,001,2022-04-29_14h10.01.325,SPAMnetsValid,2021.1.4,Win32,60.0240096,,,,,,,,,,,,,,,,,,,,,,,,,,,,,,,,,,,,,,,,,,,,,,,,,,,,,,,,,,,,,,,,,snake,Animals,4,0,4,0,1,,,,,,,,,,,,,,,,,,
,,,,,,,,,,,,,,,89705,001,2022-04-29_14h10.01.325,SPAMnetsValid,2021.1.4,Win32,60.0240096,,,,,,,,,,,,,,,,,,,,,,,,,,,,,,,,,,,,,,,,,,,,,,,,,,,,,,,,,,,,,,,,,lizard,Animals,5,0,5,0,1,,,,,,,,,,,,,,,,,,
,,,,,,,,,,,,,,,89705,001,2022-04-29_14h10.01.325,SPAMnetsValid,2021.1.4,Win32,60.0240096,,,,,,,,,,,,,,,,,,,,,,,,,,,,,,,,,,,,,,,,,,,,,,,,,,,,,,,,,,,,,,,,,turtle,Animals,6,0,6,0,1,,,,,,,,,,,,,,,,,,
,,,,,,,,,,,,,,,89705,001,2022-04-29_14h10.01.325,SPAMnetsValid,2021.1.4,Win32,60.0240096,,,,,,,,,,,,,,,,,,,,,,,,,,,,,,,,,,,,,,,,,,,,,,,,,,,,,,,,,,,,,,,,,whale,Animals,7,0,7,0,1,,,,,,,,,,,,,,,,,,
,,,,,,,,,,,,,,,89705,001,2022-04-29_14h10.01.325,SPAMnetsValid,2021.1.4,Win32,60.0240096,,,,,,,,,,,,,,,,,,,,,,,,,,,,,,,,,,,,,,,,,,,,,,,,,,,,,,,,,,,,,,,,,dolphin,Animals,8,0,8,0,1,,,,,,,,,,,,,,,,,,
,,,,,,,,,,,,,,,89705,001,2022-04-29_14h10.01.325,SPAMnetsValid,2021.1.4,Win32,60.0240096,,,,,,,,,,,,,,,,,,,,,,,,,,,,,,,,,,,,,,,,,,,,,,,,,,,,,,,,,,,,,,,,,monkey,Animals,9,0,9,0,1,,,,,,,,,,,,,,,,,,
,,,,,,,,,,,,,,,89705,001,2022-04-29_14h10.01.325,SPAMnetsValid,2021.1.4,Win32,60.0240096,,,,,,,,,,,,,,,,,,,,,,,,,,,,,,,,,,,,,,,,,,,,,,,,,,,,,,,,,,,,,,,,,baboon,Animals,10,0,10,0,1,,,,,,,,,,,,,,,,,,
,,,,,,,,,,,,,,,89705,001,2022-04-29_14h10.01.325,SPAMnetsValid,2021.1.4,Win32,60.0240096,,,,,,,,,,,,,,,,,,,,,,,,,,,,,,,,,,,,,,,,,,,,,,,,,,,,,,,,,,,,,,,,,gorilla,Animals,11,0,11,0,1,,,,,,,,,,,,,,,,,,
,,,,,,,,,,,,,,,89705,001,2022-04-29_14h10.01.325,SPAMnetsValid,2021.1.4,Win32,60.0240096,,,,,,,,,,,,,,,,,,,,,,,,,,,,,,,,,,,,,,,,,,,,,,,,,,,,,,,,,,,,,,,,,lion,Animals,12,0,12,0,1,,,,,,,,,,,,,,,,,,
,,,,,,,,,,,,,,,89705,001,2022-04-29_14h10.01.325,SPAMnetsValid,2021.1.4,Win32,60.0240096,,,,,,,,,,,,,,,,,,,,,,,,,,,,,,,,,,,,,,,,,,,,,,,,,,,,,,,,,,,,,,,,,tiger,Animals,13,0,13,0,1,,,,,,,,,,,,,,,,,,
,,,,,,,,,,,,,,,89705,001,2022-04-29_14h10.01.325,SPAMnetsValid,2021.1.4,Win32,60.0240096,,,,,,,,,,,,,,,,,,,,,,,,,,,,,,,,,,,,,,,,,,,,,,,,,,,,,,,,,,,,,,,,,fish,Animals,14,0,14,0,1,,,,,,,,,,,,,,,,,,
,,,,,,,,,,,,,,,89705,001,2022-04-29_14h10.01.325,SPAMnetsValid,2021.1.4,Win32,60.0240096,,,,,,,,,,,,,,,,,,,,,,,,,,,,,,,,,,,,,,,,,,,,,,,,,,,,,,,,,,,,,,,,,hyena,Animals,15,0,15,0,1,,,,,,,,,,,,,,,,,,
,,,,,,,,,,,,,,,89705,001,2022-04-29_14h10.01.325,SPAMnetsValid,2021.1.4,Win32,60.0240096,,,,,,,,,,,,,,,,,,,,,,,,,,,,,,,,,,,,,,,,,,,,,,,,,,,,,,,,,,,,,,,,,llama,Animals,16,0,16,0,1,,,,,,,,,,,,,,,,,,
,,,,,,,,,,,,,,,89705,001,2022-04-29_14h10.01.325,SPAMnetsValid,2021.1.4,Win32,60.0240096,,,,,,,,,,,,,,,,,,,,,,,,,,,,,,,,,,,,,,,,,,,,,,,,,,,,,,,,,,,,,,,,,badger,Animals,17,0,17,0,1,,,,,,,,,,,,,,,,,,
,,,,,,,,,,,,,,,89705,001,2022-04-29_14h10.01.325,SPAMnetsValid,2021.1.4,Win32,60.0240096,,,,,,,,,,,,,,,,,,,,,,,,,,,,,,,,,,,,,,,,,,,,,,,,,,,,,,,,,,,,,,,,,meerkat,Animals,18,0,18,0,1,,,,,,,,,,,,,,,,,,
,,,,,,,,,,,,,,,89705,001,2022-04-29_14h10.01.325,SPAMnetsValid,2021.1.4,Win32,60.0240096,,,,,,,,,,,,,,,,,,,,,,,,,,,,,,,,,,,,,,,,,,,,,,,,,,,,,,,,,,,,,,,,,squirrel,Animals,19,0,19,0,1,,,,,,,,,,,,,,,,,,
,,,,,,,,,,,,,,,89705,001,2022-04-29_14h10.01.325,SPAMnetsValid,2021.1.4,Win32,60.0240096,,,,,,,,,,,,,,,,,,,,,,,,,,,,,,,,,,,,,,,,,,,,,,,,,,,,,,,,,,,,,,,,,ferret,Animals,20,0,20,0,1,,,,,,,,,,,,,,,,,,
,,,,,,,,,,,,,,,89705,001,2022-04-29_14h10.01.325,SPAMnetsValid,2021.1.4,Win32,60.0240096,,,,,,,,,,,,,,,,,,,,,,,,,,,,,,,,,,,,,,,,,,,,,,,,,,,,,,,,,,,,,,,,,shrew,Animals,21,0,21,0,1,,,,,,,,,,,,,,,,,,
,,,,,,,,,,,,,,,89705,001,2022-04-29_14h10.01.325,SPAMnetsValid,2021.1.4,Win32,60.0240096,,,,,,,,,,,,,,,,,,,,,,,,,,,,,,,,,,,,,,,,,,,,,,,,,,,,,,,,,,,,,,,,,lynx,Animals,22,0,22,0,1,,,,,,,,,,,,,,,,,,
,,,,,,,,,,,,,,,89705,001,2022-04-29_14h10.01.325,SPAMnetsValid,2021.1.4,Win32,60.0240096,,,,,,,,,,,,,,,,,,,,,,,,,,,,,,,,,,,,,,,,,,,,,,,,,,,,,,,,,,,,,,,,,bear,Animals,23,0,23,0,1,,,,,,,,,,,,,,,,,,
,,,,,,,,,,,,,,,89705,001,2022-04-29_14h10.01.325,SPAMnetsValid,2021.1.4,Win32,60.0240096,,,,,,,,,,,,,,,,,,,,,,,,,,,,,,,,,,,,,,,,,,,,,,,,,,,,,,,,,,,,,,,,,ant,Animals,24,0,24,0,1,,,,,,,,,,,,,,,,,,
,,,,,,,,,,,,,,,89705,001,2022-04-29_14h10.01.325,SPAMnetsValid,2021.1.4,Win32,60.0240096,,,,,,,,,,,,,,,,,,,,,,,,,,,,,,,,,,,,,,,,,,,,,,,,,,,,,,,,,,,,,,,,,fly,Animals,25,0,25,0,1,,,,,,,,,,,,,,,,,,
,,,,,,,,,,,,,,,89705,001,2022-04-29_14h10.01.325,SPAMnetsValid,2021.1.4,Win32,60.0240096,,,,,,,,,,,,,,,,,,,,,,,,,,,,,,,,,,,,,,,,,,,,,,,,,,,,,,,,,,,,,,,,,electric eel,Animals,26,0,26,0,1,,,,,,,,,,,,,,,,,,
,,,,,,,,,,,,,,,89705,001,2022-04-29_14h10.01.325,SPAMnetsValid,2021.1.4,Win32,60.0240096,,,,,,,,,,,,,,,,,,,,,,,,,,,,,,,,,,,,,,,,,,,,,,,,,,,,,,,,,,,,,,,,,urchin,Animals,27,0,27,0,1,,,,,,,,,,,,,,,,,,
,,,,,,,,,,,,,,,89705,001,2022-04-29_14h10.01.325,SPAMnetsValid,2021.1.4,Win32,60.0240096,,,,,,,,,,,,,,,,,,,,,,,,,,,,,,,,,,,,,,,,,,,,,,,,,,,,,,,,,,,,,,,,,seagull,Animals,28,0,28,0,1,,,,,,,,,,,,,,,,,,
,,,,,,,,,,,,,,,89705,001,2022-04-29_14h10.01.325,SPAMnetsValid,2021.1.4,Win32,60.0240096,,,,,,,,,,,,,,,,,,,,,,,,,,,,,,,,,,,,,,,,,,,,,,,,,,,,,,,,,,,,,,,,,shark,Animals,29,0,29,0,1,,,,,,,,,,,,,,,,,,
,,,,,,,,,,,,,,,89705,001,2022-04-29_14h10.01.325,SPAMnetsValid,2021.1.4,Win32,60.0240096,,,,,,,,,,,,,,,,,,,,,,,,,,,,,,,,,,,,,,,,,,,,,,,,,,,,,,,,,,,,,,,,,clownfish,Animals,30,0,30,0,1,,,,,,,,,,,,,,,,,,
,,,,,,,,,,,,,,,89705,001,2022-04-29_14h10.01.325,SPAMnetsValid,2021.1.4,Win32,60.0240096,,,,,,,,,,,,,,,,,,,,,,,,,,,,,,,,,,,,,,,,,,,,,,,,,,,,,,,,,,,,,,,,,bunny,Animals,31,0,31,0,1,,,,,,,,,,,,,,,,,,
,,,,,,,,,,,,,,,89705,001,2022-04-29_14h10.01.325,SPAMnetsValid,2021.1.4,Win32,60.0240096,,,,,,,,,,,,,,,,,,,,,,,,,,,,,,,,,,,,,,,,,,,,,,,,,,,,,,,,,,,,,,,,,rabbit,Animals,32,0,32,0,1,,,,,,,,,,,,,,,,,,
,,,,,,,,,,,,,,,89705,001,2022-04-29_14h10.01.325,SPAMnetsValid,2021.1.4,Win32,60.0240096,,,,,,,,,,,,,,,,,,,,,,,,,,,,,,,,,,,,,,,,,,,,,,,,,,,,,,,,,,,,,,,,,hare,Animals,33,0,33,0,1,,,,,,,,,,,,,,,,,,
,,,,,,,,,,,,,,,89705,001,2022-04-29_14h10.01.325,SPAMnetsValid,2021.1.4,Win32,60.0240096,,,,,,,,,,,,,,,,,,,,,,,,,,,,,,,,,,,,,,,,,,,,,,,,,,,,,,,,,,,,,,,,,wolverine,Animals,34,0,34,0,1,,,,,,,,,,,,,,,,,,
,,,,,,,,,,,,,,,89705,001,2022-04-29_14h10.01.325,SPAMnetsValid,2021.1.4,Win32,60.0240096,,,,,,,,,,,,,,,,,,,,,,,,,,,,,,,,,,,,,,,,,,,,,,,,,,,,,,,,,,,,,,,,,polar bear,Animals,35,0,35,0,1,,,,,,,,,,,,,,,,,,
,,,,,,,,,,,,,,,89705,001,2022-04-29_14h10.01.325,SPAMnetsValid,2021.1.4,Win32,60.0240096,,,,,,,,,,,,,,,,,,,,,,,,,,,,,,,,,,,,,,,,,,,,,,,,,,,,,,,,,,,,,,,,,walrus,Animals,36,0,36,0,1,,,,,,,,,,,,,,,,,,
,,,,,,,,,,,,,,,89705,001,2022-04-29_14h10.01.325,SPAMnetsValid,2021.1.4,Win32,60.0240096,,,,,,,,,,,,,,,,,,,,,,,,,,,,,,,,,,,,,,,,,,,,,,,,,,,,,,,,,,,,,,,,,,,,,,,,0,0,0,0,1,Animals,,,,,,,,,,,,
,,,,,,,,,,,,,,,89705,001,2022-04-29_14h10.01.325,SPAMnetsValid,2021.1.4,Win32,60.0240096,,,,,,,,,,,,,,,,,,,,,,,,,,,,,,,,,,,,,,,,,,,,,,,,,,,,,,,,,,,,,,,,,,,,,,,,,,,,,,5,3.845,0,0,0,0,1,"I enjoy concentrating on a fantasy or daydream and exploring all its possibilities, letting it grow and develop.",0,1,,
,,,,,,,,,,,,,,,89705,001,2022-04-29_14h10.01.325,SPAMnetsValid,2021.1.4,Win32,60.0240096,,,,,,,,,,,,,,,,,,,,,,,,,,,,,,,,,,,,,,,,,,,,,,,,,,,,,,,,,,,,,,,,,,,,,,,,,,,,,,2,2.731,0,1,1,1,1,I think it's interesting to learn and develop new hobbies.,0,2,,
,,,,,,,,,,,,,,,89705,001,2022-04-29_14h10.01.325,SPAMnetsValid,2021.1.4,Win32,60.0240096,,,,,,,,,,,,,,,,,,,,,,,,,,,,,,,,,,,,,,,,,,,,,,,,,,,,,,,,,,,,,,,,,,,,,,,,,,,,,,5,2.305,0,2,2,2,1,I am intrigued by the patterns I find in art and nature.,0,3,,
,,,,,,,,,,,,,,,89705,001,2022-04-29_14h10.01.325,SPAMnetsValid,2021.1.4,Win32,60.0240096,,,,,,,,,,,,,,,,,,,,,,,,,,,,,,,,,,,,,,,,,,,,,,,,,,,,,,,,,,,,,,,,,,,,,,,,,,,,,,1,3.944,0,3,3,3,1,I believe letting students hear controversial speakers can only confuse and mislead them.,1,4,,
,,,,,,,,,,,,,,,89705,001,2022-04-29_14h10.01.325,SPAMnetsValid,2021.1.4,Win32,60.0240096,,,,,,,,,,,,,,,,,,,,,,,,,,,,,,,,,,,,,,,,,,,,,,,,,,,,,,,,,,,,,,,,,,,,,,,,,,,,,,2,1.745,0,4,4,4,1,Poetry has little or no effect on me.,1,5,,
,,,,,,,,,,,,,,,89705,001,2022-04-29_14h10.01.325,SPAMnetsValid,2021.1.4,Win32,60.0240096,,,,,,,,,,,,,,,,,,,,,,,,,,,,,,,,,,,,,,,,,,,,,,,,,,,,,,,,,,,,,,,,,,,,,,,,,,,,,,2,2.426,0,5,5,5,1,I would have difficulty just letting my mind wander without control or guidance.,1,6,,
,,,,,,,,,,,,,,,89705,001,2022-04-29_14h10.01.325,SPAMnetsValid,2021.1.4,Win32,60.0240096,,,,,,,,,,,,,,,,,,,,,,,,,,,,,,,,,,,,,,,,,,,,,,,,,,,,,,,,,,,,,,,,,,,,,,,,,,,,,,2,2.991,0,6,6,6,1,I seldom notice the moods or feelings that different environments produce.,1,7,,
,,,,,,,,,,,,,,,89705,001,2022-04-29_14h10.01.325,SPAMnetsValid,2021.1.4,Win32,60.0240096,,,,,,,,,,,,,,,,,,,,,,,,,,,,,,,,,,,,,,,,,,,,,,,,,,,,,,,,,,,,,,,,,,,,,,,,,,,,,,4,2.024,0,7,7,7,1,I experience a wide range of emotions or feelings.,0,8,,
,,,,,,,,,,,,,,,89705,001,2022-04-29_14h10.01.325,SPAMnetsValid,2021.1.4,Win32,60.0240096,,,,,,,,,,,,,,,,,,,,,,,,,,,,,,,,,,,,,,,,,,,,,,,,,,,,,,,,,,,,,,,,,,,,,,,,,,,,,,4,2.512,0,8,8,8,1,"Sometimes when I am reading poetry or looking at a work of art, I feel a chill or wave of excitement.",0,9,,
,,,,,,,,,,,,,,,89705,001,2022-04-29_14h10.01.325,SPAMnetsValid,2021.1.4,Win32,60.0240096,,,,,,,,,,,,,,,,,,,,,,,,,,,,,,,,,,,,,,,,,,,,,,,,,,,,,,,,,,,,,,,,,,,,,,,,,,,,,,1,3.759,0,9,9,9,1,I have little interest in speculating on the nature of the universe or the human condition.,1,10,,
,,,,,,,,,,,,,,,89705,001,2022-04-29_14h10.01.325,SPAMnetsValid,2021.1.4,Win32,60.0240096,,,,,,,,,,,,,,,,,,,,,,,,,,,,,,,,,,,,,,,,,,,,,,,,,,,,,,,,,,,,,,,,,,,,,,,,,,,,,,5,1.761,0,10,10,10,1,I have a lot of intellectual curiosity.,0,11,,
,,,,,,,,,,,,,,,89705,001,2022-04-29_14h10.01.325,SPAMnetsValid,2021.1.4,Win32,60.0240096,,,,,,,,,,,,,,,,,,,,,,,,,,,,,,,,,,,,,,,,,,,,,,,,,,,,,,,,,,,,,,,,,,,,,,,,,,,,,,5,1.624,0,11,11,11,1,I often enjoy playing with theories or abstract ideas.,0,12,,
,,,,,,,,,,,,,,,89705,001,2022-04-29_14h10.01.325,SPAMnetsValid,2021.1.4,Win32,60.0240096,,,,,,,,,,,,,,,,,,,,,,,,,,,,,,,,,,,,,,,,,,,,,,,,,,,,,,,,,,,,,,,,,,,,,,,,,,,,,,,,,,,,,,,,return,6.943
