key_resp_3.keys,key_resp_3.rt,slider_2.response,slider_2.rt,rjt_rating,rjt_RT,trials_24.thisRepN,trials_24.thisTrialN,trials_24.thisN,trials_24.thisIndex,trials_24.ran,rjt_order,word1,word2,attention,participant,session,date,expName,psychopyVersion,OS,frameRate,trials_4.thisRepN,trials_4.thisTrialN,trials_4.thisN,trials_4.thisIndex,trials_4.ran,trials_5.thisRepN,trials_5.thisTrialN,trials_5.thisN,trials_5.thisIndex,trials_5.ran,repOne,repTwo,slider.response,slider.rt,trials_22.thisRepN,trials_22.thisTrialN,trials_22.thisN,trials_22.thisIndex,trials_22.ran,trials_99.thisRepN,trials_99.thisTrialN,trials_99.thisN,trials_99.thisIndex,trials_99.ran,slider_extend_2.response,slider_extend_2.rt,trials_6.thisRepN,trials_6.thisTrialN,trials_6.thisN,trials_6.thisIndex,trials_6.ran,vCue2,R1,R2,R3,R4,correct,sliderVocab.response,sliderVocab.rt,trials_7.thisRepN,trials_7.thisTrialN,trials_7.thisN,trials_7.thisIndex,trials_7.ran,VocabCue,VR1,VR2,VR3,VR4,VR5,VocabCorrect,AUT_resp,AUT_label,trials.thisRepN,trials.thisTrialN,trials.thisN,trials.thisIndex,trials.ran,trials_2.thisRepN,trials_2.thisTrialN,trials_2.thisN,trials_2.thisIndex,trials_2.ran,aut_prompt,VF_response,VF_tag,trials_16.thisRepN,trials_16.thisTrialN,trials_16.thisN,trials_16.thisIndex,trials_16.ran,trials_17.thisRepN,trials_17.thisTrialN,trials_17.thisN,trials_17.thisIndex,trials_17.ran,VFcond,open_slider.response,open_slider.rt,trials_3.thisRepN,trials_3.thisTrialN,trials_3.thisN,trials_3.thisIndex,trials_3.ran,OpenQ,Rev,OPEN_ORDER,key_resp_2.keys,key_resp_2.rt
return,6.2807,8,3.5741,8,3.5741,0,0,0,83,1,100,garden,tomato,,89715,001,2022-04-29_10h26.48.142,SPAMnetsValid,2021.1.4,Win32,59.85873339,,,,,,,,,,,,,,,,,,,,,,,,,,,,,,,,,,,,,,,,,,,,,,,,,,,,,,,,,,,,,,,,,,,,,,,,,,,,,,,,,,,,,,,,,
,,1,2.4669,1,2.4669,0,1,1,71,1,187,cactus,microwave,,89715,001,2022-04-29_10h26.48.142,SPAMnetsValid,2021.1.4,Win32,59.85873339,,,,,,,,,,,,,,,,,,,,,,,,,,,,,,,,,,,,,,,,,,,,,,,,,,,,,,,,,,,,,,,,,,,,,,,,,,,,,,,,,,,,,,,,,
,,6,6.458,6,6.458,0,2,2,23,1,148,flower,melon,,89715,001,2022-04-29_10h26.48.142,SPAMnetsValid,2021.1.4,Win32,59.85873339,,,,,,,,,,,,,,,,,,,,,,,,,,,,,,,,,,,,,,,,,,,,,,,,,,,,,,,,,,,,,,,,,,,,,,,,,,,,,,,,,,,,,,,,,
,,1,2.0862,1,2.0862,0,3,3,4,1,109,broom,strawberry,,89715,001,2022-04-29_10h26.48.142,SPAMnetsValid,2021.1.4,Win32,59.85873339,,,,,,,,,,,,,,,,,,,,,,,,,,,,,,,,,,,,,,,,,,,,,,,,,,,,,,,,,,,,,,,,,,,,,,,,,,,,,,,,,,,,,,,,,
,,6,3.0921,6,3.0921,0,4,4,72,1,181,carrot,kitchen,,89715,001,2022-04-29_10h26.48.142,SPAMnetsValid,2021.1.4,Win32,59.85873339,,,,,,,,,,,,,,,,,,,,,,,,,,,,,,,,,,,,,,,,,,,,,,,,,,,,,,,,,,,,,,,,,,,,,,,,,,,,,,,,,,,,,,,,,
,,6,2.085,6,2.085,0,5,5,45,1,179,broom,oven,,89715,001,2022-04-29_10h26.48.142,SPAMnetsValid,2021.1.4,Win32,59.85873339,,,,,,,,,,,,,,,,,,,,,,,,,,,,,,,,,,,,,,,,,,,,,,,,,,,,,,,,,,,,,,,,,,,,,,,,,,,,,,,,,,,,,,,,,
,,1,1.7989,1,1.7989,0,6,6,20,1,149,broom,tomato,,89715,001,2022-04-29_10h26.48.142,SPAMnetsValid,2021.1.4,Win32,59.85873339,,,,,,,,,,,,,,,,,,,,,,,,,,,,,,,,,,,,,,,,,,,,,,,,,,,,,,,,,,,,,,,,,,,,,,,,,,,,,,,,,,,,,,,,,
,,6,2.5416,6,2.5416,0,7,7,76,1,102,chocolate,refrigerator,,89715,001,2022-04-29_10h26.48.142,SPAMnetsValid,2021.1.4,Win32,59.85873339,,,,,,,,,,,,,,,,,,,,,,,,,,,,,,,,,,,,,,,,,,,,,,,,,,,,,,,,,,,,,,,,,,,,,,,,,,,,,,,,,,,,,,,,,
,,8,1.9289,8,1.9289,0,8,8,66,1,150,microwave,refrigerator,,89715,001,2022-04-29_10h26.48.142,SPAMnetsValid,2021.1.4,Win32,59.85873339,,,,,,,,,,,,,,,,,,,,,,,,,,,,,,,,,,,,,,,,,,,,,,,,,,,,,,,,,,,,,,,,,,,,,,,,,,,,,,,,,,,,,,,,,
,,6,2.537,6,2.537,0,9,9,2,1,174,cake,pretzel,,89715,001,2022-04-29_10h26.48.142,SPAMnetsValid,2021.1.4,Win32,59.85873339,,,,,,,,,,,,,,,,,,,,,,,,,,,,,,,,,,,,,,,,,,,,,,,,,,,,,,,,,,,,,,,,,,,,,,,,,,,,,,,,,,,,,,,,,
,,6,1.7982,6,1.7982,0,10,10,35,1,147,cake,refrigerator,,89715,001,2022-04-29_10h26.48.142,SPAMnetsValid,2021.1.4,Win32,59.85873339,,,,,,,,,,,,,,,,,,,,,,,,,,,,,,,,,,,,,,,,,,,,,,,,,,,,,,,,,,,,,,,,,,,,,,,,,,,,,,,,,,,,,,,,,
,,7,1.6237,7,1.6237,0,11,11,48,1,186,kitchen,yogurt,,89715,001,2022-04-29_10h26.48.142,SPAMnetsValid,2021.1.4,Win32,59.85873339,,,,,,,,,,,,,,,,,,,,,,,,,,,,,,,,,,,,,,,,,,,,,,,,,,,,,,,,,,,,,,,,,,,,,,,,,,,,,,,,,,,,,,,,,
,,7,1.3115,7,1.3115,0,12,12,1,1,173,kitchen,tomato,,89715,001,2022-04-29_10h26.48.142,SPAMnetsValid,2021.1.4,Win32,59.85873339,,,,,,,,,,,,,,,,,,,,,,,,,,,,,,,,,,,,,,,,,,,,,,,,,,,,,,,,,,,,,,,,,,,,,,,,,,,,,,,,,,,,,,,,,
,,7,0.952,7,0.952,0,13,13,36,1,161,kitchen,pretzel,,89715,001,2022-04-29_10h26.48.142,SPAMnetsValid,2021.1.4,Win32,59.85873339,,,,,,,,,,,,,,,,,,,,,,,,,,,,,,,,,,,,,,,,,,,,,,,,,,,,,,,,,,,,,,,,,,,,,,,,,,,,,,,,,,,,,,,,,
,,9,1.6036,9,1.6036,0,14,14,25,1,194,cactus,cactus,CHECK,89715,001,2022-04-29_10h26.48.142,SPAMnetsValid,2021.1.4,Win32,59.85873339,,,,,,,,,,,,,,,,,,,,,,,,,,,,,,,,,,,,,,,,,,,,,,,,,,,,,,,,,,,,,,,,,,,,,,,,,,,,,,,,,,,,,,,,,
,,1,2.2058,1,2.2058,0,15,15,3,1,129,cactus,refrigerator,,89715,001,2022-04-29_10h26.48.142,SPAMnetsValid,2021.1.4,Win32,59.85873339,,,,,,,,,,,,,,,,,,,,,,,,,,,,,,,,,,,,,,,,,,,,,,,,,,,,,,,,,,,,,,,,,,,,,,,,,,,,,,,,,,,,,,,,,
,,8,4.353,8,4.353,0,16,16,60,1,122,flower,garden,,89715,001,2022-04-29_10h26.48.142,SPAMnetsValid,2021.1.4,Win32,59.85873339,,,,,,,,,,,,,,,,,,,,,,,,,,,,,,,,,,,,,,,,,,,,,,,,,,,,,,,,,,,,,,,,,,,,,,,,,,,,,,,,,,,,,,,,,
,,6,2.1444,6,2.1444,0,17,17,24,1,169,onion,yogurt,,89715,001,2022-04-29_10h26.48.142,SPAMnetsValid,2021.1.4,Win32,59.85873339,,,,,,,,,,,,,,,,,,,,,,,,,,,,,,,,,,,,,,,,,,,,,,,,,,,,,,,,,,,,,,,,,,,,,,,,,,,,,,,,,,,,,,,,,
,,2,2.3782,2,2.3782,0,18,18,19,1,183,cake,rose,,89715,001,2022-04-29_10h26.48.142,SPAMnetsValid,2021.1.4,Win32,59.85873339,,,,,,,,,,,,,,,,,,,,,,,,,,,,,,,,,,,,,,,,,,,,,,,,,,,,,,,,,,,,,,,,,,,,,,,,,,,,,,,,,,,,,,,,,
,,3,3.6781,3,3.6781,0,19,19,81,1,104,garden,microwave,,89715,001,2022-04-29_10h26.48.142,SPAMnetsValid,2021.1.4,Win32,59.85873339,,,,,,,,,,,,,,,,,,,,,,,,,,,,,,,,,,,,,,,,,,,,,,,,,,,,,,,,,,,,,,,,,,,,,,,,,,,,,,,,,,,,,,,,,
,,8,1.8965,8,1.8965,0,20,20,47,1,167,carrot,garden,,89715,001,2022-04-29_10h26.48.142,SPAMnetsValid,2021.1.4,Win32,59.85873339,,,,,,,,,,,,,,,,,,,,,,,,,,,,,,,,,,,,,,,,,,,,,,,,,,,,,,,,,,,,,,,,,,,,,,,,,,,,,,,,,,,,,,,,,
,,8,2.0406,8,2.0406,0,21,21,11,1,117,melon,strawberry,,89715,001,2022-04-29_10h26.48.142,SPAMnetsValid,2021.1.4,Win32,59.85873339,,,,,,,,,,,,,,,,,,,,,,,,,,,,,,,,,,,,,,,,,,,,,,,,,,,,,,,,,,,,,,,,,,,,,,,,,,,,,,,,,,,,,,,,,
,,6,2.6986,6,2.6986,0,22,22,9,1,176,cactus,tomato,,89715,001,2022-04-29_10h26.48.142,SPAMnetsValid,2021.1.4,Win32,59.85873339,,,,,,,,,,,,,,,,,,,,,,,,,,,,,,,,,,,,,,,,,,,,,,,,,,,,,,,,,,,,,,,,,,,,,,,,,,,,,,,,,,,,,,,,,
,,6,3.407,6,3.407,0,23,23,56,1,113,refrigerator,strawberry,,89715,001,2022-04-29_10h26.48.142,SPAMnetsValid,2021.1.4,Win32,59.85873339,,,,,,,,,,,,,,,,,,,,,,,,,,,,,,,,,,,,,,,,,,,,,,,,,,,,,,,,,,,,,,,,,,,,,,,,,,,,,,,,,,,,,,,,,
,,6,1.4688,6,1.4688,0,24,24,92,1,170,cookie,microwave,,89715,001,2022-04-29_10h26.48.142,SPAMnetsValid,2021.1.4,Win32,59.85873339,,,,,,,,,,,,,,,,,,,,,,,,,,,,,,,,,,,,,,,,,,,,,,,,,,,,,,,,,,,,,,,,,,,,,,,,,,,,,,,,,,,,,,,,,
,,6,0.8135,6,0.8135,0,25,25,73,1,135,carrot,oven,,89715,001,2022-04-29_10h26.48.142,SPAMnetsValid,2021.1.4,Win32,59.85873339,,,,,,,,,,,,,,,,,,,,,,,,,,,,,,,,,,,,,,,,,,,,,,,,,,,,,,,,,,,,,,,,,,,,,,,,,,,,,,,,,,,,,,,,,
,,6,1.4173,6,1.4173,0,26,26,94,1,133,cake,flower,,89715,001,2022-04-29_10h26.48.142,SPAMnetsValid,2021.1.4,Win32,59.85873339,,,,,,,,,,,,,,,,,,,,,,,,,,,,,,,,,,,,,,,,,,,,,,,,,,,,,,,,,,,,,,,,,,,,,,,,,,,,,,,,,,,,,,,,,
,,6,1.9571,6,1.9571,0,27,27,30,1,125,carrot,tree,,89715,001,2022-04-29_10h26.48.142,SPAMnetsValid,2021.1.4,Win32,59.85873339,,,,,,,,,,,,,,,,,,,,,,,,,,,,,,,,,,,,,,,,,,,,,,,,,,,,,,,,,,,,,,,,,,,,,,,,,,,,,,,,,,,,,,,,,
,,6,1.4454,6,1.4454,0,28,28,89,1,140,cookie,refrigerator,,89715,001,2022-04-29_10h26.48.142,SPAMnetsValid,2021.1.4,Win32,59.85873339,,,,,,,,,,,,,,,,,,,,,,,,,,,,,,,,,,,,,,,,,,,,,,,,,,,,,,,,,,,,,,,,,,,,,,,,,,,,,,,,,,,,,,,,,
,,7,3.1678,7,3.1678,0,29,29,51,1,168,cactus,flower,,89715,001,2022-04-29_10h26.48.142,SPAMnetsValid,2021.1.4,Win32,59.85873339,,,,,,,,,,,,,,,,,,,,,,,,,,,,,,,,,,,,,,,,,,,,,,,,,,,,,,,,,,,,,,,,,,,,,,,,,,,,,,,,,,,,,,,,,
,,1,3.0489,1,3.0489,0,30,30,57,1,127,cactus,chocolate,,89715,001,2022-04-29_10h26.48.142,SPAMnetsValid,2021.1.4,Win32,59.85873339,,,,,,,,,,,,,,,,,,,,,,,,,,,,,,,,,,,,,,,,,,,,,,,,,,,,,,,,,,,,,,,,,,,,,,,,,,,,,,,,,,,,,,,,,
,,6,2.6553,6,2.6553,0,31,31,65,1,160,cookie,kitchen,,89715,001,2022-04-29_10h26.48.142,SPAMnetsValid,2021.1.4,Win32,59.85873339,,,,,,,,,,,,,,,,,,,,,,,,,,,,,,,,,,,,,,,,,,,,,,,,,,,,,,,,,,,,,,,,,,,,,,,,,,,,,,,,,,,,,,,,,
,,6,1.4488,6,1.4488,0,32,32,6,1,151,microwave,onion,,89715,001,2022-04-29_10h26.48.142,SPAMnetsValid,2021.1.4,Win32,59.85873339,,,,,,,,,,,,,,,,,,,,,,,,,,,,,,,,,,,,,,,,,,,,,,,,,,,,,,,,,,,,,,,,,,,,,,,,,,,,,,,,,,,,,,,,,
,,7,1.5062,7,1.5062,0,33,33,91,1,166,cake,yogurt,,89715,001,2022-04-29_10h26.48.142,SPAMnetsValid,2021.1.4,Win32,59.85873339,,,,,,,,,,,,,,,,,,,,,,,,,,,,,,,,,,,,,,,,,,,,,,,,,,,,,,,,,,,,,,,,,,,,,,,,,,,,,,,,,,,,,,,,,
,,7,1.0258,7,1.0258,0,34,34,0,1,106,cake,strawberry,,89715,001,2022-04-29_10h26.48.142,SPAMnetsValid,2021.1.4,Win32,59.85873339,,,,,,,,,,,,,,,,,,,,,,,,,,,,,,,,,,,,,,,,,,,,,,,,,,,,,,,,,,,,,,,,,,,,,,,,,,,,,,,,,,,,,,,,,
,,6,2.3032,6,2.3032,0,35,35,17,1,99,garden,melon,,89715,001,2022-04-29_10h26.48.142,SPAMnetsValid,2021.1.4,Win32,59.85873339,,,,,,,,,,,,,,,,,,,,,,,,,,,,,,,,,,,,,,,,,,,,,,,,,,,,,,,,,,,,,,,,,,,,,,,,,,,,,,,,,,,,,,,,,
,,1,2.1418,1,2.1418,0,36,36,15,1,145,cactus,yogurt,,89715,001,2022-04-29_10h26.48.142,SPAMnetsValid,2021.1.4,Win32,59.85873339,,,,,,,,,,,,,,,,,,,,,,,,,,,,,,,,,,,,,,,,,,,,,,,,,,,,,,,,,,,,,,,,,,,,,,,,,,,,,,,,,,,,,,,,,
,,6,1.3729,6,1.3729,0,37,37,38,1,155,carrot,cookie,,89715,001,2022-04-29_10h26.48.142,SPAMnetsValid,2021.1.4,Win32,59.85873339,,,,,,,,,,,,,,,,,,,,,,,,,,,,,,,,,,,,,,,,,,,,,,,,,,,,,,,,,,,,,,,,,,,,,,,,,,,,,,,,,,,,,,,,,
,,1,1.6623,1,1.6623,0,38,38,13,1,105,cactus,oven,,89715,001,2022-04-29_10h26.48.142,SPAMnetsValid,2021.1.4,Win32,59.85873339,,,,,,,,,,,,,,,,,,,,,,,,,,,,,,,,,,,,,,,,,,,,,,,,,,,,,,,,,,,,,,,,,,,,,,,,,,,,,,,,,,,,,,,,,
,,2,1.6063,2,1.6063,0,39,39,31,1,156,melon,rose,,89715,001,2022-04-29_10h26.48.142,SPAMnetsValid,2021.1.4,Win32,59.85873339,,,,,,,,,,,,,,,,,,,,,,,,,,,,,,,,,,,,,,,,,,,,,,,,,,,,,,,,,,,,,,,,,,,,,,,,,,,,,,,,,,,,,,,,,
,,9,1.629,9,1.629,0,40,40,86,1,193,melon,melon,CHECK,89715,001,2022-04-29_10h26.48.142,SPAMnetsValid,2021.1.4,Win32,59.85873339,,,,,,,,,,,,,,,,,,,,,,,,,,,,,,,,,,,,,,,,,,,,,,,,,,,,,,,,,,,,,,,,,,,,,,,,,,,,,,,,,,,,,,,,,
,,1,2.8767,1,2.8767,0,41,41,68,1,180,tree,yogurt,,89715,001,2022-04-29_10h26.48.142,SPAMnetsValid,2021.1.4,Win32,59.85873339,,,,,,,,,,,,,,,,,,,,,,,,,,,,,,,,,,,,,,,,,,,,,,,,,,,,,,,,,,,,,,,,,,,,,,,,,,,,,,,,,,,,,,,,,
,,1,1.4368,1,1.4368,0,42,42,58,1,144,cake,garden,,89715,001,2022-04-29_10h26.48.142,SPAMnetsValid,2021.1.4,Win32,59.85873339,,,,,,,,,,,,,,,,,,,,,,,,,,,,,,,,,,,,,,,,,,,,,,,,,,,,,,,,,,,,,,,,,,,,,,,,,,,,,,,,,,,,,,,,,
,,6,1.5739,6,1.5739,0,43,43,88,1,171,cake,tomato,,89715,001,2022-04-29_10h26.48.142,SPAMnetsValid,2021.1.4,Win32,59.85873339,,,,,,,,,,,,,,,,,,,,,,,,,,,,,,,,,,,,,,,,,,,,,,,,,,,,,,,,,,,,,,,,,,,,,,,,,,,,,,,,,,,,,,,,,
,,6,2.4785,6,2.4785,0,44,44,43,1,185,cactus,rose,,89715,001,2022-04-29_10h26.48.142,SPAMnetsValid,2021.1.4,Win32,59.85873339,,,,,,,,,,,,,,,,,,,,,,,,,,,,,,,,,,,,,,,,,,,,,,,,,,,,,,,,,,,,,,,,,,,,,,,,,,,,,,,,,,,,,,,,,
,,1,1.7419,1,1.7419,0,45,45,63,1,137,microwave,tree,,89715,001,2022-04-29_10h26.48.142,SPAMnetsValid,2021.1.4,Win32,59.85873339,,,,,,,,,,,,,,,,,,,,,,,,,,,,,,,,,,,,,,,,,,,,,,,,,,,,,,,,,,,,,,,,,,,,,,,,,,,,,,,,,,,,,,,,,
,,1,5.7765,1,5.7765,0,46,46,32,1,182,flower,refrigerator,,89715,001,2022-04-29_10h26.48.142,SPAMnetsValid,2021.1.4,Win32,59.85873339,,,,,,,,,,,,,,,,,,,,,,,,,,,,,,,,,,,,,,,,,,,,,,,,,,,,,,,,,,,,,,,,,,,,,,,,,,,,,,,,,,,,,,,,,
,,6,2.8541,6,2.8541,0,47,47,79,1,103,pretzel,tomato,,89715,001,2022-04-29_10h26.48.142,SPAMnetsValid,2021.1.4,Win32,59.85873339,,,,,,,,,,,,,,,,,,,,,,,,,,,,,,,,,,,,,,,,,,,,,,,,,,,,,,,,,,,,,,,,,,,,,,,,,,,,,,,,,,,,,,,,,
,,6,2.7888,6,2.7888,0,48,48,49,1,152,cactus,strawberry,,89715,001,2022-04-29_10h26.48.142,SPAMnetsValid,2021.1.4,Win32,59.85873339,,,,,,,,,,,,,,,,,,,,,,,,,,,,,,,,,,,,,,,,,,,,,,,,,,,,,,,,,,,,,,,,,,,,,,,,,,,,,,,,,,,,,,,,,
,,6,1.3576,6,1.3576,0,49,49,29,1,163,melon,refrigerator,,89715,001,2022-04-29_10h26.48.142,SPAMnetsValid,2021.1.4,Win32,59.85873339,,,,,,,,,,,,,,,,,,,,,,,,,,,,,,,,,,,,,,,,,,,,,,,,,,,,,,,,,,,,,,,,,,,,,,,,,,,,,,,,,,,,,,,,,
,,8,2.4866,8,2.4866,0,50,50,39,1,112,cake,carrot,,89715,001,2022-04-29_10h26.48.142,SPAMnetsValid,2021.1.4,Win32,59.85873339,,,,,,,,,,,,,,,,,,,,,,,,,,,,,,,,,,,,,,,,,,,,,,,,,,,,,,,,,,,,,,,,,,,,,,,,,,,,,,,,,,,,,,,,,
,,1,2.2882,1,2.2882,0,51,51,46,1,123,cookie,tree,,89715,001,2022-04-29_10h26.48.142,SPAMnetsValid,2021.1.4,Win32,59.85873339,,,,,,,,,,,,,,,,,,,,,,,,,,,,,,,,,,,,,,,,,,,,,,,,,,,,,,,,,,,,,,,,,,,,,,,,,,,,,,,,,,,,,,,,,
,,7,2.1878,7,2.1878,0,52,52,33,1,131,cactus,garden,,89715,001,2022-04-29_10h26.48.142,SPAMnetsValid,2021.1.4,Win32,59.85873339,,,,,,,,,,,,,,,,,,,,,,,,,,,,,,,,,,,,,,,,,,,,,,,,,,,,,,,,,,,,,,,,,,,,,,,,,,,,,,,,,,,,,,,,,
,,8,2.7566,8,2.7566,0,53,53,53,1,177,chocolate,strawberry,,89715,001,2022-04-29_10h26.48.142,SPAMnetsValid,2021.1.4,Win32,59.85873339,,,,,,,,,,,,,,,,,,,,,,,,,,,,,,,,,,,,,,,,,,,,,,,,,,,,,,,,,,,,,,,,,,,,,,,,,,,,,,,,,,,,,,,,,
,,6,2.0897,6,2.0897,0,54,54,77,1,172,kitchen,melon,,89715,001,2022-04-29_10h26.48.142,SPAMnetsValid,2021.1.4,Win32,59.85873339,,,,,,,,,,,,,,,,,,,,,,,,,,,,,,,,,,,,,,,,,,,,,,,,,,,,,,,,,,,,,,,,,,,,,,,,,,,,,,,,,,,,,,,,,
,,6,1.4861,6,1.4861,0,55,55,67,1,96,oven,strawberry,,89715,001,2022-04-29_10h26.48.142,SPAMnetsValid,2021.1.4,Win32,59.85873339,,,,,,,,,,,,,,,,,,,,,,,,,,,,,,,,,,,,,,,,,,,,,,,,,,,,,,,,,,,,,,,,,,,,,,,,,,,,,,,,,,,,,,,,,
,,1,2.2362,1,2.2362,0,56,56,54,1,101,cactus,kitchen,,89715,001,2022-04-29_10h26.48.142,SPAMnetsValid,2021.1.4,Win32,59.85873339,,,,,,,,,,,,,,,,,,,,,,,,,,,,,,,,,,,,,,,,,,,,,,,,,,,,,,,,,,,,,,,,,,,,,,,,,,,,,,,,,,,,,,,,,
,,6,1.5811,6,1.5811,0,57,57,10,1,118,chocolate,oven,,89715,001,2022-04-29_10h26.48.142,SPAMnetsValid,2021.1.4,Win32,59.85873339,,,,,,,,,,,,,,,,,,,,,,,,,,,,,,,,,,,,,,,,,,,,,,,,,,,,,,,,,,,,,,,,,,,,,,,,,,,,,,,,,,,,,,,,,
,,8,2.0713,8,2.0713,0,58,58,14,1,120,microwave,oven,,89715,001,2022-04-29_10h26.48.142,SPAMnetsValid,2021.1.4,Win32,59.85873339,,,,,,,,,,,,,,,,,,,,,,,,,,,,,,,,,,,,,,,,,,,,,,,,,,,,,,,,,,,,,,,,,,,,,,,,,,,,,,,,,,,,,,,,,
,,7,1.7456,7,1.7456,0,59,59,37,1,139,carrot,strawberry,,89715,001,2022-04-29_10h26.48.142,SPAMnetsValid,2021.1.4,Win32,59.85873339,,,,,,,,,,,,,,,,,,,,,,,,,,,,,,,,,,,,,,,,,,,,,,,,,,,,,,,,,,,,,,,,,,,,,,,,,,,,,,,,,,,,,,,,,
,,6,1.2685,6,1.2685,0,60,60,12,1,162,microwave,tomato,,89715,001,2022-04-29_10h26.48.142,SPAMnetsValid,2021.1.4,Win32,59.85873339,,,,,,,,,,,,,,,,,,,,,,,,,,,,,,,,,,,,,,,,,,,,,,,,,,,,,,,,,,,,,,,,,,,,,,,,,,,,,,,,,,,,,,,,,
,,6,2.9227,6,2.9227,0,61,61,62,1,189,onion,tree,,89715,001,2022-04-29_10h26.48.142,SPAMnetsValid,2021.1.4,Win32,59.85873339,,,,,,,,,,,,,,,,,,,,,,,,,,,,,,,,,,,,,,,,,,,,,,,,,,,,,,,,,,,,,,,,,,,,,,,,,,,,,,,,,,,,,,,,,
,,1,3.5048,1,3.5048,0,62,62,59,1,164,cookie,garden,,89715,001,2022-04-29_10h26.48.142,SPAMnetsValid,2021.1.4,Win32,59.85873339,,,,,,,,,,,,,,,,,,,,,,,,,,,,,,,,,,,,,,,,,,,,,,,,,,,,,,,,,,,,,,,,,,,,,,,,,,,,,,,,,,,,,,,,,
,,7,1.4179,7,1.4179,0,63,63,34,1,153,carrot,pretzel,,89715,001,2022-04-29_10h26.48.142,SPAMnetsValid,2021.1.4,Win32,59.85873339,,,,,,,,,,,,,,,,,,,,,,,,,,,,,,,,,,,,,,,,,,,,,,,,,,,,,,,,,,,,,,,,,,,,,,,,,,,,,,,,,,,,,,,,,
,,7,0.9496,7,0.9496,0,64,64,52,1,110,chocolate,cookie,,89715,001,2022-04-29_10h26.48.142,SPAMnetsValid,2021.1.4,Win32,59.85873339,,,,,,,,,,,,,,,,,,,,,,,,,,,,,,,,,,,,,,,,,,,,,,,,,,,,,,,,,,,,,,,,,,,,,,,,,,,,,,,,,,,,,,,,,
,,4,5.1429,4,5.1429,0,65,65,78,1,132,broom,tree,,89715,001,2022-04-29_10h26.48.142,SPAMnetsValid,2021.1.4,Win32,59.85873339,,,,,,,,,,,,,,,,,,,,,,,,,,,,,,,,,,,,,,,,,,,,,,,,,,,,,,,,,,,,,,,,,,,,,,,,,,,,,,,,,,,,,,,,,
,,6,1.7659,6,1.7659,0,66,66,74,1,128,melon,microwave,,89715,001,2022-04-29_10h26.48.142,SPAMnetsValid,2021.1.4,Win32,59.85873339,,,,,,,,,,,,,,,,,,,,,,,,,,,,,,,,,,,,,,,,,,,,,,,,,,,,,,,,,,,,,,,,,,,,,,,,,,,,,,,,,,,,,,,,,
,,7,2.1077,7,2.1077,0,67,67,26,1,107,rose,tomato,,89715,001,2022-04-29_10h26.48.142,SPAMnetsValid,2021.1.4,Win32,59.85873339,,,,,,,,,,,,,,,,,,,,,,,,,,,,,,,,,,,,,,,,,,,,,,,,,,,,,,,,,,,,,,,,,,,,,,,,,,,,,,,,,,,,,,,,,
,,6,1.5981,6,1.5981,0,68,68,28,1,154,strawberry,yogurt,,89715,001,2022-04-29_10h26.48.142,SPAMnetsValid,2021.1.4,Win32,59.85873339,,,,,,,,,,,,,,,,,,,,,,,,,,,,,,,,,,,,,,,,,,,,,,,,,,,,,,,,,,,,,,,,,,,,,,,,,,,,,,,,,,,,,,,,,
,,6,1.2696,6,1.2696,0,69,69,5,1,108,carrot,chocolate,,89715,001,2022-04-29_10h26.48.142,SPAMnetsValid,2021.1.4,Win32,59.85873339,,,,,,,,,,,,,,,,,,,,,,,,,,,,,,,,,,,,,,,,,,,,,,,,,,,,,,,,,,,,,,,,,,,,,,,,,,,,,,,,,,,,,,,,,
,,6,1.7127,6,1.7127,0,70,70,75,1,178,cactus,carrot,,89715,001,2022-04-29_10h26.48.142,SPAMnetsValid,2021.1.4,Win32,59.85873339,,,,,,,,,,,,,,,,,,,,,,,,,,,,,,,,,,,,,,,,,,,,,,,,,,,,,,,,,,,,,,,,,,,,,,,,,,,,,,,,,,,,,,,,,
,,6,1.7183,6,1.7183,0,71,71,96,1,136,chocolate,microwave,,89715,001,2022-04-29_10h26.48.142,SPAMnetsValid,2021.1.4,Win32,59.85873339,,,,,,,,,,,,,,,,,,,,,,,,,,,,,,,,,,,,,,,,,,,,,,,,,,,,,,,,,,,,,,,,,,,,,,,,,,,,,,,,,,,,,,,,,
,,8,1.7297,8,1.7297,0,72,72,69,1,124,oven,refrigerator,,89715,001,2022-04-29_10h26.48.142,SPAMnetsValid,2021.1.4,Win32,59.85873339,,,,,,,,,,,,,,,,,,,,,,,,,,,,,,,,,,,,,,,,,,,,,,,,,,,,,,,,,,,,,,,,,,,,,,,,,,,,,,,,,,,,,,,,,
,,2,3.2732,2,3.2732,0,73,73,21,1,159,cookie,flower,,89715,001,2022-04-29_10h26.48.142,SPAMnetsValid,2021.1.4,Win32,59.85873339,,,,,,,,,,,,,,,,,,,,,,,,,,,,,,,,,,,,,,,,,,,,,,,,,,,,,,,,,,,,,,,,,,,,,,,,,,,,,,,,,,,,,,,,,
,,6,4.2046,6,4.2046,0,74,74,90,1,190,microwave,strawberry,,89715,001,2022-04-29_10h26.48.142,SPAMnetsValid,2021.1.4,Win32,59.85873339,,,,,,,,,,,,,,,,,,,,,,,,,,,,,,,,,,,,,,,,,,,,,,,,,,,,,,,,,,,,,,,,,,,,,,,,,,,,,,,,,,,,,,,,,
,,6,1.4205,6,1.4205,0,75,75,18,1,119,strawberry,tree,,89715,001,2022-04-29_10h26.48.142,SPAMnetsValid,2021.1.4,Win32,59.85873339,,,,,,,,,,,,,,,,,,,,,,,,,,,,,,,,,,,,,,,,,,,,,,,,,,,,,,,,,,,,,,,,,,,,,,,,,,,,,,,,,,,,,,,,,
,,3,2.8674,3,2.8674,0,76,76,55,1,143,pretzel,rose,,89715,001,2022-04-29_10h26.48.142,SPAMnetsValid,2021.1.4,Win32,59.85873339,,,,,,,,,,,,,,,,,,,,,,,,,,,,,,,,,,,,,,,,,,,,,,,,,,,,,,,,,,,,,,,,,,,,,,,,,,,,,,,,,,,,,,,,,
,,1,1.7575,1,1.7575,0,77,77,50,1,126,kitchen,tree,,89715,001,2022-04-29_10h26.48.142,SPAMnetsValid,2021.1.4,Win32,59.85873339,,,,,,,,,,,,,,,,,,,,,,,,,,,,,,,,,,,,,,,,,,,,,,,,,,,,,,,,,,,,,,,,,,,,,,,,,,,,,,,,,,,,,,,,,
,,6,1.7431,6,1.7431,0,78,78,27,1,158,cookie,oven,,89715,001,2022-04-29_10h26.48.142,SPAMnetsValid,2021.1.4,Win32,59.85873339,,,,,,,,,,,,,,,,,,,,,,,,,,,,,,,,,,,,,,,,,,,,,,,,,,,,,,,,,,,,,,,,,,,,,,,,,,,,,,,,,,,,,,,,,
,,4,3.5475,4,3.5475,0,79,79,95,1,121,broom,microwave,,89715,001,2022-04-29_10h26.48.142,SPAMnetsValid,2021.1.4,Win32,59.85873339,,,,,,,,,,,,,,,,,,,,,,,,,,,,,,,,,,,,,,,,,,,,,,,,,,,,,,,,,,,,,,,,,,,,,,,,,,,,,,,,,,,,,,,,,
,,6,2.4677,6,2.4677,0,80,80,41,1,175,melon,onion,,89715,001,2022-04-29_10h26.48.142,SPAMnetsValid,2021.1.4,Win32,59.85873339,,,,,,,,,,,,,,,,,,,,,,,,,,,,,,,,,,,,,,,,,,,,,,,,,,,,,,,,,,,,,,,,,,,,,,,,,,,,,,,,,,,,,,,,,
,,6,1.1809,6,1.1809,0,81,81,87,1,114,cookie,strawberry,,89715,001,2022-04-29_10h26.48.142,SPAMnetsValid,2021.1.4,Win32,59.85873339,,,,,,,,,,,,,,,,,,,,,,,,,,,,,,,,,,,,,,,,,,,,,,,,,,,,,,,,,,,,,,,,,,,,,,,,,,,,,,,,,,,,,,,,,
,,6,1.0173,6,1.0173,0,82,82,70,1,141,melon,tomato,,89715,001,2022-04-29_10h26.48.142,SPAMnetsValid,2021.1.4,Win32,59.85873339,,,,,,,,,,,,,,,,,,,,,,,,,,,,,,,,,,,,,,,,,,,,,,,,,,,,,,,,,,,,,,,,,,,,,,,,,,,,,,,,,,,,,,,,,
,,8,2.0729,8,2.0729,0,83,83,7,1,188,flower,tree,,89715,001,2022-04-29_10h26.48.142,SPAMnetsValid,2021.1.4,Win32,59.85873339,,,,,,,,,,,,,,,,,,,,,,,,,,,,,,,,,,,,,,,,,,,,,,,,,,,,,,,,,,,,,,,,,,,,,,,,,,,,,,,,,,,,,,,,,
,,7,1.8713,7,1.8713,0,84,84,93,1,134,carrot,flower,,89715,001,2022-04-29_10h26.48.142,SPAMnetsValid,2021.1.4,Win32,59.85873339,,,,,,,,,,,,,,,,,,,,,,,,,,,,,,,,,,,,,,,,,,,,,,,,,,,,,,,,,,,,,,,,,,,,,,,,,,,,,,,,,,,,,,,,,
,,6,1.598,6,1.598,0,85,85,85,1,115,refrigerator,tomato,,89715,001,2022-04-29_10h26.48.142,SPAMnetsValid,2021.1.4,Win32,59.85873339,,,,,,,,,,,,,,,,,,,,,,,,,,,,,,,,,,,,,,,,,,,,,,,,,,,,,,,,,,,,,,,,,,,,,,,,,,,,,,,,,,,,,,,,,
,,8,3.4252,8,3.4252,0,86,86,61,1,138,flower,rose,,89715,001,2022-04-29_10h26.48.142,SPAMnetsValid,2021.1.4,Win32,59.85873339,,,,,,,,,,,,,,,,,,,,,,,,,,,,,,,,,,,,,,,,,,,,,,,,,,,,,,,,,,,,,,,,,,,,,,,,,,,,,,,,,,,,,,,,,
,,6,1.5904,6,1.5904,0,87,87,8,1,97,chocolate,kitchen,,89715,001,2022-04-29_10h26.48.142,SPAMnetsValid,2021.1.4,Win32,59.85873339,,,,,,,,,,,,,,,,,,,,,,,,,,,,,,,,,,,,,,,,,,,,,,,,,,,,,,,,,,,,,,,,,,,,,,,,,,,,,,,,,,,,,,,,,
,,1,1.9585,1,1.9585,0,88,88,64,1,157,refrigerator,rose,,89715,001,2022-04-29_10h26.48.142,SPAMnetsValid,2021.1.4,Win32,59.85873339,,,,,,,,,,,,,,,,,,,,,,,,,,,,,,,,,,,,,,,,,,,,,,,,,,,,,,,,,,,,,,,,,,,,,,,,,,,,,,,,,,,,,,,,,
,,4,2.1238,4,2.1238,0,89,89,40,1,165,onion,rose,,89715,001,2022-04-29_10h26.48.142,SPAMnetsValid,2021.1.4,Win32,59.85873339,,,,,,,,,,,,,,,,,,,,,,,,,,,,,,,,,,,,,,,,,,,,,,,,,,,,,,,,,,,,,,,,,,,,,,,,,,,,,,,,,,,,,,,,,
,,8,3.592,8,3.592,0,90,90,44,1,116,cake,chocolate,,89715,001,2022-04-29_10h26.48.142,SPAMnetsValid,2021.1.4,Win32,59.85873339,,,,,,,,,,,,,,,,,,,,,,,,,,,,,,,,,,,,,,,,,,,,,,,,,,,,,,,,,,,,,,,,,,,,,,,,,,,,,,,,,,,,,,,,,
,,8,1.7875,8,1.7875,0,91,91,22,1,142,garden,tree,,89715,001,2022-04-29_10h26.48.142,SPAMnetsValid,2021.1.4,Win32,59.85873339,,,,,,,,,,,,,,,,,,,,,,,,,,,,,,,,,,,,,,,,,,,,,,,,,,,,,,,,,,,,,,,,,,,,,,,,,,,,,,,,,,,,,,,,,
,,6,1.2785,6,1.2785,0,92,92,84,1,130,microwave,yogurt,,89715,001,2022-04-29_10h26.48.142,SPAMnetsValid,2021.1.4,Win32,59.85873339,,,,,,,,,,,,,,,,,,,,,,,,,,,,,,,,,,,,,,,,,,,,,,,,,,,,,,,,,,,,,,,,,,,,,,,,,,,,,,,,,,,,,,,,,
,,6,1.0528,6,1.0528,0,93,93,16,1,111,carrot,microwave,,89715,001,2022-04-29_10h26.48.142,SPAMnetsValid,2021.1.4,Win32,59.85873339,,,,,,,,,,,,,,,,,,,,,,,,,,,,,,,,,,,,,,,,,,,,,,,,,,,,,,,,,,,,,,,,,,,,,,,,,,,,,,,,,,,,,,,,,
,,7,1.5461,7,1.5461,0,94,94,82,1,98,pretzel,strawberry,,89715,001,2022-04-29_10h26.48.142,SPAMnetsValid,2021.1.4,Win32,59.85873339,,,,,,,,,,,,,,,,,,,,,,,,,,,,,,,,,,,,,,,,,,,,,,,,,,,,,,,,,,,,,,,,,,,,,,,,,,,,,,,,,,,,,,,,,
,,6,1.6298,6,1.6298,0,95,95,42,1,184,oven,pretzel,,89715,001,2022-04-29_10h26.48.142,SPAMnetsValid,2021.1.4,Win32,59.85873339,,,,,,,,,,,,,,,,,,,,,,,,,,,,,,,,,,,,,,,,,,,,,,,,,,,,,,,,,,,,,,,,,,,,,,,,,,,,,,,,,,,,,,,,,
,,1,1.9897,1,1.9897,0,96,96,80,1,146,pretzel,tree,,89715,001,2022-04-29_10h26.48.142,SPAMnetsValid,2021.1.4,Win32,59.85873339,,,,,,,,,,,,,,,,,,,,,,,,,,,,,,,,,,,,,,,,,,,,,,,,,,,,,,,,,,,,,,,,,,,,,,,,,,,,,,,,,,,,,,,,,
,,,,,,,,,,,,,,,89715,001,2022-04-29_10h26.48.142,SPAMnetsValid,2021.1.4,Win32,59.85873339,0,0,0,0,1,,,,,,,,,,,,,,,,,,,,,,,,,,,,,,,,,,,,,,,,,,,,,,,,,,,,,,,,,,,,,,,,,,,,,,,,,,,,,,,,,,,,
,,,,,,,,,,,,,,,89715,001,2022-04-29_10h26.48.142,SPAMnetsValid,2021.1.4,Win32,59.85873339,,,,,,0,0,0,1,1,0,1,,,,,,,,,,,,,,,,,,,,,,,,,,,,,,,,,,,,,,,,,,,,,,,,,,,,,,,,,,,,,,,,,,,,,,,,,,,,,
,,,,1,8.5106,,,,,,23,flower,microwave,,89715,001,2022-04-29_10h26.48.142,SPAMnetsValid,2021.1.4,Win32,59.85873339,,,,,,,,,,,,,1,8.5106,0,0,0,25,1,,,,,,,,,,,,,,,,,,,,,,,,,,,,,,,,,,,,,,,,,,,,,,,,,,,,,,,,,,,,,,,,,,,,,,
,,,,6,1.7964,,,,,,51,onion,strawberry,,89715,001,2022-04-29_10h26.48.142,SPAMnetsValid,2021.1.4,Win32,59.85873339,,,,,,,,,,,,,6,1.7964,0,1,1,86,1,,,,,,,,,,,,,,,,,,,,,,,,,,,,,,,,,,,,,,,,,,,,,,,,,,,,,,,,,,,,,,,,,,,,,,
,,,,7,1.694,,,,,,6,garden,onion,,89715,001,2022-04-29_10h26.48.142,SPAMnetsValid,2021.1.4,Win32,59.85873339,,,,,,,,,,,,,7,1.694,0,2,2,83,1,,,,,,,,,,,,,,,,,,,,,,,,,,,,,,,,,,,,,,,,,,,,,,,,,,,,,,,,,,,,,,,,,,,,,,
,,,,6,1.3854,,,,,,77,refrigerator,yogurt,,89715,001,2022-04-29_10h26.48.142,SPAMnetsValid,2021.1.4,Win32,59.85873339,,,,,,,,,,,,,6,1.3854,0,3,3,42,1,,,,,,,,,,,,,,,,,,,,,,,,,,,,,,,,,,,,,,,,,,,,,,,,,,,,,,,,,,,,,,,,,,,,,,
,,,,1,2.0445,,,,,,62,kitchen,rose,,89715,001,2022-04-29_10h26.48.142,SPAMnetsValid,2021.1.4,Win32,59.85873339,,,,,,,,,,,,,1,2.0445,0,4,4,57,1,,,,,,,,,,,,,,,,,,,,,,,,,,,,,,,,,,,,,,,,,,,,,,,,,,,,,,,,,,,,,,,,,,,,,,
,,,,4,1.8448,,,,,,95,broom,refrigerator,,89715,001,2022-04-29_10h26.48.142,SPAMnetsValid,2021.1.4,Win32,59.85873339,,,,,,,,,,,,,4,1.8448,0,5,5,90,1,,,,,,,,,,,,,,,,,,,,,,,,,,,,,,,,,,,,,,,,,,,,,,,,,,,,,,,,,,,,,,,,,,,,,,
,,,,1,2.7964,,,,,,67,flower,yogurt,,89715,001,2022-04-29_10h26.48.142,SPAMnetsValid,2021.1.4,Win32,59.85873339,,,,,,,,,,,,,1,2.7964,0,6,6,12,1,,,,,,,,,,,,,,,,,,,,,,,,,,,,,,,,,,,,,,,,,,,,,,,,,,,,,,,,,,,,,,,,,,,,,,
,,,,1,2.1359,,,,,,92,broom,flower,,89715,001,2022-04-29_10h26.48.142,SPAMnetsValid,2021.1.4,Win32,59.85873339,,,,,,,,,,,,,1,2.1359,0,7,7,88,1,,,,,,,,,,,,,,,,,,,,,,,,,,,,,,,,,,,,,,,,,,,,,,,,,,,,,,,,,,,,,,,,,,,,,,
,,,,1,2.9258,,,,,,89,chocolate,rose,,89715,001,2022-04-29_10h26.48.142,SPAMnetsValid,2021.1.4,Win32,59.85873339,,,,,,,,,,,,,1,2.9258,0,8,8,60,1,,,,,,,,,,,,,,,,,,,,,,,,,,,,,,,,,,,,,,,,,,,,,,,,,,,,,,,,,,,,,,,,,,,,,,
,,,,6,1.6558,,,,,,21,cake,onion,,89715,001,2022-04-29_10h26.48.142,SPAMnetsValid,2021.1.4,Win32,59.85873339,,,,,,,,,,,,,6,1.6558,0,9,9,63,1,,,,,,,,,,,,,,,,,,,,,,,,,,,,,,,,,,,,,,,,,,,,,,,,,,,,,,,,,,,,,,,,,,,,,,
,,,,1,1.4873,,,,,,74,broom,pretzel,,89715,001,2022-04-29_10h26.48.142,SPAMnetsValid,2021.1.4,Win32,59.85873339,,,,,,,,,,,,,1,1.4873,0,10,10,40,1,,,,,,,,,,,,,,,,,,,,,,,,,,,,,,,,,,,,,,,,,,,,,,,,,,,,,,,,,,,,,,,,,,,,,,
,,,,4,1.7396,,,,,,68,flower,tomato,,89715,001,2022-04-29_10h26.48.142,SPAMnetsValid,2021.1.4,Win32,59.85873339,,,,,,,,,,,,,4,1.7396,0,11,11,94,1,,,,,,,,,,,,,,,,,,,,,,,,,,,,,,,,,,,,,,,,,,,,,,,,,,,,,,,,,,,,,,,,,,,,,,
,,,,6,1.3438,,,,,,81,pretzel,yogurt,,89715,001,2022-04-29_10h26.48.142,SPAMnetsValid,2021.1.4,Win32,59.85873339,,,,,,,,,,,,,6,1.3438,0,12,12,50,1,,,,,,,,,,,,,,,,,,,,,,,,,,,,,,,,,,,,,,,,,,,,,,,,,,,,,,,,,,,,,,,,,,,,,,
,,,,1,1.9403,,,,,,48,flower,oven,,89715,001,2022-04-29_10h26.48.142,SPAMnetsValid,2021.1.4,Win32,59.85873339,,,,,,,,,,,,,1,1.9403,0,13,13,15,1,,,,,,,,,,,,,,,,,,,,,,,,,,,,,,,,,,,,,,,,,,,,,,,,,,,,,,,,,,,,,,,,,,,,,,
,,,,1,1.1096,,,,,,71,broom,rose,,89715,001,2022-04-29_10h26.48.142,SPAMnetsValid,2021.1.4,Win32,59.85873339,,,,,,,,,,,,,1,1.1096,0,14,14,61,1,,,,,,,,,,,,,,,,,,,,,,,,,,,,,,,,,,,,,,,,,,,,,,,,,,,,,,,,,,,,,,,,,,,,,,
,,,,6,1.5189,,,,,,28,cake,melon,,89715,001,2022-04-29_10h26.48.142,SPAMnetsValid,2021.1.4,Win32,59.85873339,,,,,,,,,,,,,6,1.5189,0,15,15,54,1,,,,,,,,,,,,,,,,,,,,,,,,,,,,,,,,,,,,,,,,,,,,,,,,,,,,,,,,,,,,,,,,,,,,,,
,,,,1,2.1069,,,,,,35,flower,pretzel,,89715,001,2022-04-29_10h26.48.142,SPAMnetsValid,2021.1.4,Win32,59.85873339,,,,,,,,,,,,,1,2.1069,0,16,16,26,1,,,,,,,,,,,,,,,,,,,,,,,,,,,,,,,,,,,,,,,,,,,,,,,,,,,,,,,,,,,,,,,,,,,,,,
,,,,1,1.2126,,,,,,72,broom,onion,,89715,001,2022-04-29_10h26.48.142,SPAMnetsValid,2021.1.4,Win32,59.85873339,,,,,,,,,,,,,1,1.2126,0,17,17,27,1,,,,,,,,,,,,,,,,,,,,,,,,,,,,,,,,,,,,,,,,,,,,,,,,,,,,,,,,,,,,,,,,,,,,,,
,,,,7,2.091,,,,,,4,chocolate,pretzel,,89715,001,2022-04-29_10h26.48.142,SPAMnetsValid,2021.1.4,Win32,59.85873339,,,,,,,,,,,,,7,2.091,0,18,18,52,1,,,,,,,,,,,,,,,,,,,,,,,,,,,,,,,,,,,,,,,,,,,,,,,,,,,,,,,,,,,,,,,,,,,,,,
,,,,7,1.3567,,,,,,45,onion,pretzel,,89715,001,2022-04-29_10h26.48.142,SPAMnetsValid,2021.1.4,Win32,59.85873339,,,,,,,,,,,,,7,1.3567,0,19,19,69,1,,,,,,,,,,,,,,,,,,,,,,,,,,,,,,,,,,,,,,,,,,,,,,,,,,,,,,,,,,,,,,,,,,,,,,
,,,,7,1.1574,,,,,,25,carrot,onion,,89715,001,2022-04-29_10h26.48.142,SPAMnetsValid,2021.1.4,Win32,59.85873339,,,,,,,,,,,,,7,1.1574,0,20,20,44,1,,,,,,,,,,,,,,,,,,,,,,,,,,,,,,,,,,,,,,,,,,,,,,,,,,,,,,,,,,,,,,,,,,,,,,
,,,,2,3.1943,,,,,,80,chocolate,tree,,89715,001,2022-04-29_10h26.48.142,SPAMnetsValid,2021.1.4,Win32,59.85873339,,,,,,,,,,,,,2,3.1943,0,21,21,89,1,,,,,,,,,,,,,,,,,,,,,,,,,,,,,,,,,,,,,,,,,,,,,,,,,,,,,,,,,,,,,,,,,,,,,,
,,,,9,1.7223,,,,,,192,microwave,microwave,CHECK,89715,001,2022-04-29_10h26.48.142,SPAMnetsValid,2021.1.4,Win32,59.85873339,,,,,,,,,,,,,9,1.7223,0,22,22,53,1,,,,,,,,,,,,,,,,,,,,,,,,,,,,,,,,,,,,,,,,,,,,,,,,,,,,,,,,,,,,,,,,,,,,,,
,,,,1,1.4948,,,,,,27,cactus,cookie,,89715,001,2022-04-29_10h26.48.142,SPAMnetsValid,2021.1.4,Win32,59.85873339,,,,,,,,,,,,,1,1.4948,0,23,23,17,1,,,,,,,,,,,,,,,,,,,,,,,,,,,,,,,,,,,,,,,,,,,,,,,,,,,,,,,,,,,,,,,,,,,,,,
,,,,1,1.8765,,,,,,78,cookie,rose,,89715,001,2022-04-29_10h26.48.142,SPAMnetsValid,2021.1.4,Win32,59.85873339,,,,,,,,,,,,,1,1.8765,0,24,24,56,1,,,,,,,,,,,,,,,,,,,,,,,,,,,,,,,,,,,,,,,,,,,,,,,,,,,,,,,,,,,,,,,,,,,,,,
,,,,1,5.6158,,,,,,46,garden,yogurt,,89715,001,2022-04-29_10h26.48.142,SPAMnetsValid,2021.1.4,Win32,59.85873339,,,,,,,,,,,,,1,5.6158,0,25,25,65,1,,,,,,,,,,,,,,,,,,,,,,,,,,,,,,,,,,,,,,,,,,,,,,,,,,,,,,,,,,,,,,,,,,,,,,
,,,,1,3.1134,,,,,,57,flower,kitchen,,89715,001,2022-04-29_10h26.48.142,SPAMnetsValid,2021.1.4,Win32,59.85873339,,,,,,,,,,,,,1,3.1134,0,26,26,49,1,,,,,,,,,,,,,,,,,,,,,,,,,,,,,,,,,,,,,,,,,,,,,,,,,,,,,,,,,,,,,,,,,,,,,,
,,,,9,1.6451,,,,,,191,cake,cake,CHECK,89715,001,2022-04-29_10h26.48.142,SPAMnetsValid,2021.1.4,Win32,59.85873339,,,,,,,,,,,,,9,1.6451,0,27,27,10,1,,,,,,,,,,,,,,,,,,,,,,,,,,,,,,,,,,,,,,,,,,,,,,,,,,,,,,,,,,,,,,,,,,,,,,
,,,,7,2.5881,,,,,,69,carrot,refrigerator,,89715,001,2022-04-29_10h26.48.142,SPAMnetsValid,2021.1.4,Win32,59.85873339,,,,,,,,,,,,,7,2.5881,0,28,28,75,1,,,,,,,,,,,,,,,,,,,,,,,,,,,,,,,,,,,,,,,,,,,,,,,,,,,,,,,,,,,,,,,,,,,,,,
,,,,1,2.0738,,,,,,85,cake,tree,,89715,001,2022-04-29_10h26.48.142,SPAMnetsValid,2021.1.4,Win32,59.85873339,,,,,,,,,,,,,1,2.0738,0,29,29,18,1,,,,,,,,,,,,,,,,,,,,,,,,,,,,,,,,,,,,,,,,,,,,,,,,,,,,,,,,,,,,,,,,,,,,,,
,,,,8,2.0568,,,,,,9,kitchen,refrigerator,,89715,001,2022-04-29_10h26.48.142,SPAMnetsValid,2021.1.4,Win32,59.85873339,,,,,,,,,,,,,8,2.0568,0,30,30,64,1,,,,,,,,,,,,,,,,,,,,,,,,,,,,,,,,,,,,,,,,,,,,,,,,,,,,,,,,,,,,,,,,,,,,,,
,,,,1,1.6469,,,,,,1,rose,yogurt,,89715,001,2022-04-29_10h26.48.142,SPAMnetsValid,2021.1.4,Win32,59.85873339,,,,,,,,,,,,,1,1.6469,0,31,31,55,1,,,,,,,,,,,,,,,,,,,,,,,,,,,,,,,,,,,,,,,,,,,,,,,,,,,,,,,,,,,,,,,,,,,,,,
,,,,6,1.7585,,,,,,22,kitchen,strawberry,,89715,001,2022-04-29_10h26.48.142,SPAMnetsValid,2021.1.4,Win32,59.85873339,,,,,,,,,,,,,6,1.7585,0,32,32,2,1,,,,,,,,,,,,,,,,,,,,,,,,,,,,,,,,,,,,,,,,,,,,,,,,,,,,,,,,,,,,,,,,,,,,,,
,,,,1,1.4315,,,,,,40,broom,cake,,89715,001,2022-04-29_10h26.48.142,SPAMnetsValid,2021.1.4,Win32,59.85873339,,,,,,,,,,,,,1,1.4315,0,33,33,32,1,,,,,,,,,,,,,,,,,,,,,,,,,,,,,,,,,,,,,,,,,,,,,,,,,,,,,,,,,,,,,,,,,,,,,,
,,,,6,1.5472,,,,,,29,chocolate,melon,,89715,001,2022-04-29_10h26.48.142,SPAMnetsValid,2021.1.4,Win32,59.85873339,,,,,,,,,,,,,6,1.5472,0,34,34,34,1,,,,,,,,,,,,,,,,,,,,,,,,,,,,,,,,,,,,,,,,,,,,,,,,,,,,,,,,,,,,,,,,,,,,,,
,,,,3,2.3066,,,,,,88,cactus,melon,,89715,001,2022-04-29_10h26.48.142,SPAMnetsValid,2021.1.4,Win32,59.85873339,,,,,,,,,,,,,3,2.3066,0,35,35,38,1,,,,,,,,,,,,,,,,,,,,,,,,,,,,,,,,,,,,,,,,,,,,,,,,,,,,,,,,,,,,,,,,,,,,,,
,,,,8,2.0594,,,,,,76,garden,rose,,89715,001,2022-04-29_10h26.48.142,SPAMnetsValid,2021.1.4,Win32,59.85873339,,,,,,,,,,,,,8,2.0594,0,36,36,19,1,,,,,,,,,,,,,,,,,,,,,,,,,,,,,,,,,,,,,,,,,,,,,,,,,,,,,,,,,,,,,,,,,,,,,,
,,,,7,1.6287,,,,,,61,strawberry,tomato,,89715,001,2022-04-29_10h26.48.142,SPAMnetsValid,2021.1.4,Win32,59.85873339,,,,,,,,,,,,,7,1.6287,0,37,37,80,1,,,,,,,,,,,,,,,,,,,,,,,,,,,,,,,,,,,,,,,,,,,,,,,,,,,,,,,,,,,,,,,,,,,,,,
,,,,6,1.991,,,,,,33,oven,yogurt,,89715,001,2022-04-29_10h26.48.142,SPAMnetsValid,2021.1.4,Win32,59.85873339,,,,,,,,,,,,,6,1.991,0,38,38,31,1,,,,,,,,,,,,,,,,,,,,,,,,,,,,,,,,,,,,,,,,,,,,,,,,,,,,,,,,,,,,,,,,,,,,,,
,,,,6,1.3842,,,,,,3,cake,oven,,89715,001,2022-04-29_10h26.48.142,SPAMnetsValid,2021.1.4,Win32,59.85873339,,,,,,,,,,,,,6,1.3842,0,39,39,30,1,,,,,,,,,,,,,,,,,,,,,,,,,,,,,,,,,,,,,,,,,,,,,,,,,,,,,,,,,,,,,,,,,,,,,,
,,,,6,1.1061,,,,,,94,kitchen,microwave,,89715,001,2022-04-29_10h26.48.142,SPAMnetsValid,2021.1.4,Win32,59.85873339,,,,,,,,,,,,,6,1.1061,0,40,40,58,1,,,,,,,,,,,,,,,,,,,,,,,,,,,,,,,,,,,,,,,,,,,,,,,,,,,,,,,,,,,,,,,,,,,,,,
,,,,1,2.7948,,,,,,41,broom,cactus,,89715,001,2022-04-29_10h26.48.142,SPAMnetsValid,2021.1.4,Win32,59.85873339,,,,,,,,,,,,,1,2.7948,0,41,41,46,1,,,,,,,,,,,,,,,,,,,,,,,,,,,,,,,,,,,,,,,,,,,,,,,,,,,,,,,,,,,,,,,,,,,,,,
,,,,1,1.3605,,,,,,31,cactus,pretzel,,89715,001,2022-04-29_10h26.48.142,SPAMnetsValid,2021.1.4,Win32,59.85873339,,,,,,,,,,,,,1,1.3605,0,42,42,1,1,,,,,,,,,,,,,,,,,,,,,,,,,,,,,,,,,,,,,,,,,,,,,,,,,,,,,,,,,,,,,,,,,,,,,,
,,,,6,2.209,,,,,,38,pretzel,refrigerator,,89715,001,2022-04-29_10h26.48.142,SPAMnetsValid,2021.1.4,Win32,59.85873339,,,,,,,,,,,,,6,2.209,0,43,43,71,1,,,,,,,,,,,,,,,,,,,,,,,,,,,,,,,,,,,,,,,,,,,,,,,,,,,,,,,,,,,,,,,,,,,,,,
,,,,6,1.7241,,,,,,32,cake,microwave,,89715,001,2022-04-29_10h26.48.142,SPAMnetsValid,2021.1.4,Win32,59.85873339,,,,,,,,,,,,,6,1.7241,0,44,44,33,1,,,,,,,,,,,,,,,,,,,,,,,,,,,,,,,,,,,,,,,,,,,,,,,,,,,,,,,,,,,,,,,,,,,,,,
,,,,1,2.0552,,,,,,64,chocolate,garden,,89715,001,2022-04-29_10h26.48.142,SPAMnetsValid,2021.1.4,Win32,59.85873339,,,,,,,,,,,,,1,2.0552,0,45,45,14,1,,,,,,,,,,,,,,,,,,,,,,,,,,,,,,,,,,,,,,,,,,,,,,,,,,,,,,,,,,,,,,,,,,,,,,
,,,,1,1.0101,,,,,,73,broom,chocolate,,89715,001,2022-04-29_10h26.48.142,SPAMnetsValid,2021.1.4,Win32,59.85873339,,,,,,,,,,,,,1,1.0101,0,46,46,47,1,,,,,,,,,,,,,,,,,,,,,,,,,,,,,,,,,,,,,,,,,,,,,,,,,,,,,,,,,,,,,,,,,,,,,,
,,,,6,2.1037,,,,,,34,melon,oven,,89715,001,2022-04-29_10h26.48.142,SPAMnetsValid,2021.1.4,Win32,59.85873339,,,,,,,,,,,,,6,2.1037,0,47,47,7,1,,,,,,,,,,,,,,,,,,,,,,,,,,,,,,,,,,,,,,,,,,,,,,,,,,,,,,,,,,,,,,,,,,,,,,
,,,,3,2.9025,,,,,,65,broom,garden,,89715,001,2022-04-29_10h26.48.142,SPAMnetsValid,2021.1.4,Win32,59.85873339,,,,,,,,,,,,,3,2.9025,0,48,48,23,1,,,,,,,,,,,,,,,,,,,,,,,,,,,,,,,,,,,,,,,,,,,,,,,,,,,,,,,,,,,,,,,,,,,,,,
,,,,6,1.2411,,,,,,18,onion,refrigerator,,89715,001,2022-04-29_10h26.48.142,SPAMnetsValid,2021.1.4,Win32,59.85873339,,,,,,,,,,,,,6,1.2411,0,49,49,62,1,,,,,,,,,,,,,,,,,,,,,,,,,,,,,,,,,,,,,,,,,,,,,,,,,,,,,,,,,,,,,,,,,,,,,,
,,,,3,2.0031,,,,,,37,garden,refrigerator,,89715,001,2022-04-29_10h26.48.142,SPAMnetsValid,2021.1.4,Win32,59.85873339,,,,,,,,,,,,,3,2.0031,0,50,50,11,1,,,,,,,,,,,,,,,,,,,,,,,,,,,,,,,,,,,,,,,,,,,,,,,,,,,,,,,,,,,,,,,,,,,,,,
,,,,7,1.8683,,,,,,30,cookie,pretzel,,89715,001,2022-04-29_10h26.48.142,SPAMnetsValid,2021.1.4,Win32,59.85873339,,,,,,,,,,,,,7,1.8683,0,51,51,78,1,,,,,,,,,,,,,,,,,,,,,,,,,,,,,,,,,,,,,,,,,,,,,,,,,,,,,,,,,,,,,,,,,,,,,,
,,,,6,1.5302,,,,,,87,carrot,yogurt,,89715,001,2022-04-29_10h26.48.142,SPAMnetsValid,2021.1.4,Win32,59.85873339,,,,,,,,,,,,,6,1.5302,0,52,52,6,1,,,,,,,,,,,,,,,,,,,,,,,,,,,,,,,,,,,,,,,,,,,,,,,,,,,,,,,,,,,,,,,,,,,,,,
,,,,7,2.2512,,,,,,20,rose,tree,,89715,001,2022-04-29_10h26.48.142,SPAMnetsValid,2021.1.4,Win32,59.85873339,,,,,,,,,,,,,7,2.2512,0,53,53,66,1,,,,,,,,,,,,,,,,,,,,,,,,,,,,,,,,,,,,,,,,,,,,,,,,,,,,,,,,,,,,,,,,,,,,,,
,,,,6,2.7407,,,,,,12,cookie,yogurt,,89715,001,2022-04-29_10h26.48.142,SPAMnetsValid,2021.1.4,Win32,59.85873339,,,,,,,,,,,,,6,2.7407,0,54,54,36,1,,,,,,,,,,,,,,,,,,,,,,,,,,,,,,,,,,,,,,,,,,,,,,,,,,,,,,,,,,,,,,,,,,,,,,
,,,,6,0.9869,,,,,,43,chocolate,tomato,,89715,001,2022-04-29_10h26.48.142,SPAMnetsValid,2021.1.4,Win32,59.85873339,,,,,,,,,,,,,6,0.9869,0,55,55,8,1,,,,,,,,,,,,,,,,,,,,,,,,,,,,,,,,,,,,,,,,,,,,,,,,,,,,,,,,,,,,,,,,,,,,,,
,,,,1,1.5543,,,,,,86,oven,rose,,89715,001,2022-04-29_10h26.48.142,SPAMnetsValid,2021.1.4,Win32,59.85873339,,,,,,,,,,,,,1,1.5543,0,56,56,79,1,,,,,,,,,,,,,,,,,,,,,,,,,,,,,,,,,,,,,,,,,,,,,,,,,,,,,,,,,,,,,,,,,,,,,,
,,,,8,1.5129,,,,,,63,cake,cookie,,89715,001,2022-04-29_10h26.48.142,SPAMnetsValid,2021.1.4,Win32,59.85873339,,,,,,,,,,,,,8,1.5129,0,57,57,93,1,,,,,,,,,,,,,,,,,,,,,,,,,,,,,,,,,,,,,,,,,,,,,,,,,,,,,,,,,,,,,,,,,,,,,,
,,,,3,2.6258,,,,,,55,tomato,tree,,89715,001,2022-04-29_10h26.48.142,SPAMnetsValid,2021.1.4,Win32,59.85873339,,,,,,,,,,,,,3,2.6258,0,58,58,35,1,,,,,,,,,,,,,,,,,,,,,,,,,,,,,,,,,,,,,,,,,,,,,,,,,,,,,,,,,,,,,,,,,,,,,,
,,,,3,1.945,,,,,,50,carrot,rose,,89715,001,2022-04-29_10h26.48.142,SPAMnetsValid,2021.1.4,Win32,59.85873339,,,,,,,,,,,,,3,1.945,0,59,59,73,1,,,,,,,,,,,,,,,,,,,,,,,,,,,,,,,,,,,,,,,,,,,,,,,,,,,,,,,,,,,,,,,,,,,,,,
,,,,6,1.5265,,,,,,15,onion,oven,,89715,001,2022-04-29_10h26.48.142,SPAMnetsValid,2021.1.4,Win32,59.85873339,,,,,,,,,,,,,6,1.5265,0,60,60,39,1,,,,,,,,,,,,,,,,,,,,,,,,,,,,,,,,,,,,,,,,,,,,,,,,,,,,,,,,,,,,,,,,,,,,,,
,,,,1,1.6429,,,,,,5,oven,tree,,89715,001,2022-04-29_10h26.48.142,SPAMnetsValid,2021.1.4,Win32,59.85873339,,,,,,,,,,,,,1,1.6429,0,61,61,70,1,,,,,,,,,,,,,,,,,,,,,,,,,,,,,,,,,,,,,,,,,,,,,,,,,,,,,,,,,,,,,,,,,,,,,,
,,,,6,1.6378,,,,,,24,cookie,tomato,,89715,001,2022-04-29_10h26.48.142,SPAMnetsValid,2021.1.4,Win32,59.85873339,,,,,,,,,,,,,6,1.6378,0,62,62,68,1,,,,,,,,,,,,,,,,,,,,,,,,,,,,,,,,,,,,,,,,,,,,,,,,,,,,,,,,,,,,,,,,,,,,,,
,,,,6,3.339,,,,,,70,chocolate,onion,,89715,001,2022-04-29_10h26.48.142,SPAMnetsValid,2021.1.4,Win32,59.85873339,,,,,,,,,,,,,6,3.339,0,63,63,74,1,,,,,,,,,,,,,,,,,,,,,,,,,,,,,,,,,,,,,,,,,,,,,,,,,,,,,,,,,,,,,,,,,,,,,,
,,,,6,0.8179,,,,,,17,carrot,melon,,89715,001,2022-04-29_10h26.48.142,SPAMnetsValid,2021.1.4,Win32,59.85873339,,,,,,,,,,,,,6,0.8179,0,64,64,24,1,,,,,,,,,,,,,,,,,,,,,,,,,,,,,,,,,,,,,,,,,,,,,,,,,,,,,,,,,,,,,,,,,,,,,,
,,,,6,0.5549,,,,,,19,microwave,pretzel,,89715,001,2022-04-29_10h26.48.142,SPAMnetsValid,2021.1.4,Win32,59.85873339,,,,,,,,,,,,,6,0.5549,0,65,65,41,1,,,,,,,,,,,,,,,,,,,,,,,,,,,,,,,,,,,,,,,,,,,,,,,,,,,,,,,,,,,,,,,,,,,,,,
,,,,6,1.491,,,,,,16,chocolate,flower,,89715,001,2022-04-29_10h26.48.142,SPAMnetsValid,2021.1.4,Win32,59.85873339,,,,,,,,,,,,,6,1.491,0,66,66,22,1,,,,,,,,,,,,,,,,,,,,,,,,,,,,,,,,,,,,,,,,,,,,,,,,,,,,,,,,,,,,,,,,,,,,,,
,,,,6,2.0903,,,,,,84,oven,tomato,,89715,001,2022-04-29_10h26.48.142,SPAMnetsValid,2021.1.4,Win32,59.85873339,,,,,,,,,,,,,6,2.0903,0,67,67,28,1,,,,,,,,,,,,,,,,,,,,,,,,,,,,,,,,,,,,,,,,,,,,,,,,,,,,,,,,,,,,,,,,,,,,,,
,,,,1,1.395,,,,,,11,refrigerator,tree,,89715,001,2022-04-29_10h26.48.142,SPAMnetsValid,2021.1.4,Win32,59.85873339,,,,,,,,,,,,,1,1.395,0,68,68,43,1,,,,,,,,,,,,,,,,,,,,,,,,,,,,,,,,,,,,,,,,,,,,,,,,,,,,,,,,,,,,,,,,,,,,,,
,,,,1,1.6545,,,,,,8,broom,melon,,89715,001,2022-04-29_10h26.48.142,SPAMnetsValid,2021.1.4,Win32,59.85873339,,,,,,,,,,,,,1,1.6545,0,69,69,59,1,,,,,,,,,,,,,,,,,,,,,,,,,,,,,,,,,,,,,,,,,,,,,,,,,,,,,,,,,,,,,,,,,,,,,,
,,,,7,1.6718,,,,,,52,carrot,tomato,,89715,001,2022-04-29_10h26.48.142,SPAMnetsValid,2021.1.4,Win32,59.85873339,,,,,,,,,,,,,7,1.6718,0,70,70,95,1,,,,,,,,,,,,,,,,,,,,,,,,,,,,,,,,,,,,,,,,,,,,,,,,,,,,,,,,,,,,,,,,,,,,,,
,,,,6,1.5028,,,,,,2,kitchen,onion,,89715,001,2022-04-29_10h26.48.142,SPAMnetsValid,2021.1.4,Win32,59.85873339,,,,,,,,,,,,,6,1.5028,0,71,71,91,1,,,,,,,,,,,,,,,,,,,,,,,,,,,,,,,,,,,,,,,,,,,,,,,,,,,,,,,,,,,,,,,,,,,,,,
,,,,6,0.8908,,,,,,75,cookie,onion,,89715,001,2022-04-29_10h26.48.142,SPAMnetsValid,2021.1.4,Win32,59.85873339,,,,,,,,,,,,,6,0.8908,0,72,72,9,1,,,,,,,,,,,,,,,,,,,,,,,,,,,,,,,,,,,,,,,,,,,,,,,,,,,,,,,,,,,,,,,,,,,,,,
,,,,6,2.14,,,,,,10,flower,onion,,89715,001,2022-04-29_10h26.48.142,SPAMnetsValid,2021.1.4,Win32,59.85873339,,,,,,,,,,,,,6,2.14,0,73,73,45,1,,,,,,,,,,,,,,,,,,,,,,,,,,,,,,,,,,,,,,,,,,,,,,,,,,,,,,,,,,,,,,,,,,,,,,
,,,,1,1.6938,,,,,,13,broom,yogurt,,89715,001,2022-04-29_10h26.48.142,SPAMnetsValid,2021.1.4,Win32,59.85873339,,,,,,,,,,,,,1,1.6938,0,74,74,5,1,,,,,,,,,,,,,,,,,,,,,,,,,,,,,,,,,,,,,,,,,,,,,,,,,,,,,,,,,,,,,,,,,,,,,,
,,,,4,3.7524,,,,,,59,rose,strawberry,,89715,001,2022-04-29_10h26.48.142,SPAMnetsValid,2021.1.4,Win32,59.85873339,,,,,,,,,,,,,4,3.7524,0,75,75,72,1,,,,,,,,,,,,,,,,,,,,,,,,,,,,,,,,,,,,,,,,,,,,,,,,,,,,,,,,,,,,,,,,,,,,,,
,,,,6,1.4388,,,,,,44,cookie,melon,,89715,001,2022-04-29_10h26.48.142,SPAMnetsValid,2021.1.4,Win32,59.85873339,,,,,,,,,,,,,6,1.4388,0,76,76,92,1,,,,,,,,,,,,,,,,,,,,,,,,,,,,,,,,,,,,,,,,,,,,,,,,,,,,,,,,,,,,,,,,,,,,,,
,,,,8,2.3473,,,,,,93,kitchen,oven,,89715,001,2022-04-29_10h26.48.142,SPAMnetsValid,2021.1.4,Win32,59.85873339,,,,,,,,,,,,,8,2.3473,0,77,77,82,1,,,,,,,,,,,,,,,,,,,,,,,,,,,,,,,,,,,,,,,,,,,,,,,,,,,,,,,,,,,,,,,,,,,,,,
,,,,3,3.0627,,,,,,49,flower,strawberry,,89715,001,2022-04-29_10h26.48.142,SPAMnetsValid,2021.1.4,Win32,59.85873339,,,,,,,,,,,,,3,3.0627,0,78,78,3,1,,,,,,,,,,,,,,,,,,,,,,,,,,,,,,,,,,,,,,,,,,,,,,,,,,,,,,,,,,,,,,,,,,,,,,
,,,,1,1.5112,,,,,,90,cactus,cake,,89715,001,2022-04-29_10h26.48.142,SPAMnetsValid,2021.1.4,Win32,59.85873339,,,,,,,,,,,,,1,1.5112,0,79,79,85,1,,,,,,,,,,,,,,,,,,,,,,,,,,,,,,,,,,,,,,,,,,,,,,,,,,,,,,,,,,,,,,,,,,,,,,
,,,,1,1.2108,,,,,,53,garden,pretzel,,89715,001,2022-04-29_10h26.48.142,SPAMnetsValid,2021.1.4,Win32,59.85873339,,,,,,,,,,,,,1,1.2108,0,80,80,0,1,,,,,,,,,,,,,,,,,,,,,,,,,,,,,,,,,,,,,,,,,,,,,,,,,,,,,,,,,,,,,,,,,,,,,,
,,,,1,2.6071,,,,,,58,garden,oven,,89715,001,2022-04-29_10h26.48.142,SPAMnetsValid,2021.1.4,Win32,59.85873339,,,,,,,,,,,,,1,2.6071,0,81,81,37,1,,,,,,,,,,,,,,,,,,,,,,,,,,,,,,,,,,,,,,,,,,,,,,,,,,,,,,,,,,,,,,,,,,,,,,
,,,,1,1.3251,,,,,,83,broom,carrot,,89715,001,2022-04-29_10h26.48.142,SPAMnetsValid,2021.1.4,Win32,59.85873339,,,,,,,,,,,,,1,1.3251,0,82,82,4,1,,,,,,,,,,,,,,,,,,,,,,,,,,,,,,,,,,,,,,,,,,,,,,,,,,,,,,,,,,,,,,,,,,,,,,
,,,,6,1.6381,,,,,,26,tomato,yogurt,,89715,001,2022-04-29_10h26.48.142,SPAMnetsValid,2021.1.4,Win32,59.85873339,,,,,,,,,,,,,6,1.6381,0,83,83,13,1,,,,,,,,,,,,,,,,,,,,,,,,,,,,,,,,,,,,,,,,,,,,,,,,,,,,,,,,,,,,,,,,,,,,,,
,,,,1,1.87,,,,,,14,broom,cookie,,89715,001,2022-04-29_10h26.48.142,SPAMnetsValid,2021.1.4,Win32,59.85873339,,,,,,,,,,,,,1,1.87,0,84,84,16,1,,,,,,,,,,,,,,,,,,,,,,,,,,,,,,,,,,,,,,,,,,,,,,,,,,,,,,,,,,,,,,,,,,,,,,
,,,,6,1.2979,,,,,,39,melon,pretzel,,89715,001,2022-04-29_10h26.48.142,SPAMnetsValid,2021.1.4,Win32,59.85873339,,,,,,,,,,,,,6,1.2979,0,85,85,20,1,,,,,,,,,,,,,,,,,,,,,,,,,,,,,,,,,,,,,,,,,,,,,,,,,,,,,,,,,,,,,,,,,,,,,,
,,,,7,2.4785,,,,,,56,cactus,tree,,89715,001,2022-04-29_10h26.48.142,SPAMnetsValid,2021.1.4,Win32,59.85873339,,,,,,,,,,,,,7,2.4785,0,86,86,21,1,,,,,,,,,,,,,,,,,,,,,,,,,,,,,,,,,,,,,,,,,,,,,,,,,,,,,,,,,,,,,,,,,,,,,,
,,,,4,2.2295,,,,,,7,melon,tree,,89715,001,2022-04-29_10h26.48.142,SPAMnetsValid,2021.1.4,Win32,59.85873339,,,,,,,,,,,,,4,2.2295,0,87,87,77,1,,,,,,,,,,,,,,,,,,,,,,,,,,,,,,,,,,,,,,,,,,,,,,,,,,,,,,,,,,,,,,,,,,,,,,
,,,,1,1.7465,,,,,,42,garden,kitchen,,89715,001,2022-04-29_10h26.48.142,SPAMnetsValid,2021.1.4,Win32,59.85873339,,,,,,,,,,,,,1,1.7465,0,88,88,29,1,,,,,,,,,,,,,,,,,,,,,,,,,,,,,,,,,,,,,,,,,,,,,,,,,,,,,,,,,,,,,,,,,,,,,,
,,,,6,1.5302,,,,,,66,melon,yogurt,,89715,001,2022-04-29_10h26.48.142,SPAMnetsValid,2021.1.4,Win32,59.85873339,,,,,,,,,,,,,6,1.5302,0,89,89,48,1,,,,,,,,,,,,,,,,,,,,,,,,,,,,,,,,,,,,,,,,,,,,,,,,,,,,,,,,,,,,,,,,,,,,,,
,,,,6,1.237,,,,,,54,chocolate,yogurt,,89715,001,2022-04-29_10h26.48.142,SPAMnetsValid,2021.1.4,Win32,59.85873339,,,,,,,,,,,,,6,1.237,0,90,90,67,1,,,,,,,,,,,,,,,,,,,,,,,,,,,,,,,,,,,,,,,,,,,,,,,,,,,,,,,,,,,,,,,,,,,,,,
,,,,6,2.1527,,,,,,36,broom,kitchen,,89715,001,2022-04-29_10h26.48.142,SPAMnetsValid,2021.1.4,Win32,59.85873339,,,,,,,,,,,,,6,2.1527,0,91,91,76,1,,,,,,,,,,,,,,,,,,,,,,,,,,,,,,,,,,,,,,,,,,,,,,,,,,,,,,,,,,,,,,,,,,,,,,
,,,,3,2.6446,,,,,,60,cactus,onion,,89715,001,2022-04-29_10h26.48.142,SPAMnetsValid,2021.1.4,Win32,59.85873339,,,,,,,,,,,,,3,2.6446,0,92,92,81,1,,,,,,,,,,,,,,,,,,,,,,,,,,,,,,,,,,,,,,,,,,,,,,,,,,,,,,,,,,,,,,,,,,,,,,
,,,,3,1.3199,,,,,,79,garden,strawberry,,89715,001,2022-04-29_10h26.48.142,SPAMnetsValid,2021.1.4,Win32,59.85873339,,,,,,,,,,,,,3,1.3199,0,93,93,87,1,,,,,,,,,,,,,,,,,,,,,,,,,,,,,,,,,,,,,,,,,,,,,,,,,,,,,,,,,,,,,,,,,,,,,,
,,,,6,3.1145,,,,,,82,cake,kitchen,,89715,001,2022-04-29_10h26.48.142,SPAMnetsValid,2021.1.4,Win32,59.85873339,,,,,,,,,,,,,6,3.1145,0,94,94,96,1,,,,,,,,,,,,,,,,,,,,,,,,,,,,,,,,,,,,,,,,,,,,,,,,,,,,,,,,,,,,,,,,,,,,,,
,,,,1,1.8086,,,,,,91,microwave,rose,,89715,001,2022-04-29_10h26.48.142,SPAMnetsValid,2021.1.4,Win32,59.85873339,,,,,,,,,,,,,1,1.8086,0,95,95,84,1,,,,,,,,,,,,,,,,,,,,,,,,,,,,,,,,,,,,,,,,,,,,,,,,,,,,,,,,,,,,,,,,,,,,,,
,,,,7,6.6061,,,,,,47,onion,tomato,,89715,001,2022-04-29_10h26.48.142,SPAMnetsValid,2021.1.4,Win32,59.85873339,,,,,,,,,,,,,7,6.6061,0,96,96,51,1,,,,,,,,,,,,,,,,,,,,,,,,,,,,,,,,,,,,,,,,,,,,,,,,,,,,,,,,,,,,,,,,,,,,,,
,,,,,,,,,,,,,,,89715,001,2022-04-29_10h26.48.142,SPAMnetsValid,2021.1.4,Win32,59.85873339,,,,,,,,,,,,,,,,,,,,0,0,0,0,1,,,,,,,,,,,,,,,,,,,,,,,,,,,,,,,,,,,,,,,,,,,,,,,,,,,,,,,,,,,,,,,,,
,,,,,,,,,,,,,,,89715,001,2022-04-29_10h26.48.142,SPAMnetsValid,2021.1.4,Win32,59.85873339,,,,,,0,1,1,0,1,1,0,,,,,,,,,,,,,,,,,,,,,,,,,,,,,,,,,,,,,,,,,,,,,,,,,,,,,,,,,,,,,,,,,,,,,,,,,,,,,
,,,,,,,,,,,,,,,89715,001,2022-04-29_10h26.48.142,SPAMnetsValid,2021.1.4,Win32,59.85873339,,,,,,,,,,,,,,,,,,,,,,,,,4,5.3103,0,0,0,0,1,rancor,forbearance,ridicule,malice,bravery,3,,,,,,,,,,,,,,,,,,,,,,,,,,,,,,,,,,,,,,,,,,,,,,,,,,,,
,,,,,,,,,,,,,,,89715,001,2022-04-29_10h26.48.142,SPAMnetsValid,2021.1.4,Win32,59.85873339,,,,,,,,,,,,,,,,,,,,,,,,,4,4.3436,0,1,1,1,1,raucous,empty,quiet,smooth,harsh,4,,,,,,,,,,,,,,,,,,,,,,,,,,,,,,,,,,,,,,,,,,,,,,,,,,,,
,,,,,,,,,,,,,,,89715,001,2022-04-29_10h26.48.142,SPAMnetsValid,2021.1.4,Win32,59.85873339,,,,,,,,,,,,,,,,,,,,,,,,,3,8.6946,0,2,2,2,1,gargoyle,oil,medicine,carved waterspout,ugly building,3,,,,,,,,,,,,,,,,,,,,,,,,,,,,,,,,,,,,,,,,,,,,,,,,,,,,
,,,,,,,,,,,,,,,89715,001,2022-04-29_10h26.48.142,SPAMnetsValid,2021.1.4,Win32,59.85873339,,,,,,,,,,,,,,,,,,,,,,,,,1,5.7932,0,3,3,3,1,recrudesce,purify,renew activity,lack refinement,crush,2,,,,,,,,,,,,,,,,,,,,,,,,,,,,,,,,,,,,,,,,,,,,,,,,,,,,
,,,,,,,,,,,,,,,89715,001,2022-04-29_10h26.48.142,SPAMnetsValid,2021.1.4,Win32,59.85873339,,,,,,,,,,,,,,,,,,,,,,,,,3,8.8089,0,4,4,4,1,specious,"plausible, but not genuine",noteworthy,class or variety,roomy,1,,,,,,,,,,,,,,,,,,,,,,,,,,,,,,,,,,,,,,,,,,,,,,,,,,,,
,,,,,,,,,,,,,,,89715,001,2022-04-29_10h26.48.142,SPAMnetsValid,2021.1.4,Win32,59.85873339,,,,,,,,,,,,,,,,,,,,,,,,,3,4.7585,0,5,5,5,1,bauble,bubble,showy plaything,idle talk,confusion,2,,,,,,,,,,,,,,,,,,,,,,,,,,,,,,,,,,,,,,,,,,,,,,,,,,,,
,,,,,,,,,,,,,,,89715,001,2022-04-29_10h26.48.142,SPAMnetsValid,2021.1.4,Win32,59.85873339,,,,,,,,,,,,,,,,,,,,,,,,,2,8.9794,0,6,6,6,1,prolific,scarce,producing abundantly,reckless,speaking profanely,2,,,,,,,,,,,,,,,,,,,,,,,,,,,,,,,,,,,,,,,,,,,,,,,,,,,,
,,,,,,,,,,,,,,,89715,001,2022-04-29_10h26.48.142,SPAMnetsValid,2021.1.4,Win32,59.85873339,,,,,,,,,,,,,,,,,,,,,,,,,2,3.1394,0,7,7,7,1,opulent,party,wealthy,happy frame of mind,semiprecious stone,2,,,,,,,,,,,,,,,,,,,,,,,,,,,,,,,,,,,,,,,,,,,,,,,,,,,,
,,,,,,,,,,,,,,,89715,001,2022-04-29_10h26.48.142,SPAMnetsValid,2021.1.4,Win32,59.85873339,,,,,,,,,,,,,,,,,,,,,,,,,1,5.1897,0,8,8,8,1,coercion,conspiracy,strategy,restraint,attraction,3,,,,,,,,,,,,,,,,,,,,,,,,,,,,,,,,,,,,,,,,,,,,,,,,,,,,
,,,,,,,,,,,,,,,89715,001,2022-04-29_10h26.48.142,SPAMnetsValid,2021.1.4,Win32,59.85873339,,,,,,,,,,,,,,,,,,,,,,,,,4,3.1584,0,9,9,9,1,hiatus,animal,calamity,dread,gap,4,,,,,,,,,,,,,,,,,,,,,,,,,,,,,,,,,,,,,,,,,,,,,,,,,,,,
,,,,,,,,,,,,,,,89715,001,2022-04-29_10h26.48.142,SPAMnetsValid,2021.1.4,Win32,59.85873339,,,,,,,,,,,,,,,,,,,,,,,,,3,7.9842,0,10,10,10,1,germane,microbe,contagious,relevant,different,3,,,,,,,,,,,,,,,,,,,,,,,,,,,,,,,,,,,,,,,,,,,,,,,,,,,,
,,,,,,,,,,,,,,,89715,001,2022-04-29_10h26.48.142,SPAMnetsValid,2021.1.4,Win32,59.85873339,,,,,,,,,,,,,,,,,,,,,,,,,1,3.5113,0,11,11,11,1,perfunctory,fundamental,formal,superficial,careful,3,,,,,,,,,,,,,,,,,,,,,,,,,,,,,,,,,,,,,,,,,,,,,,,,,,,,
,,,,,,,,,,,,,,,89715,001,2022-04-29_10h26.48.142,SPAMnetsValid,2021.1.4,Win32,59.85873339,,,,,,,,,,,,,,,,,,,,,,,,,4,9.316,0,12,12,12,1,diverge,reveal,chant,distract the attention of,differ or turn off from,4,,,,,,,,,,,,,,,,,,,,,,,,,,,,,,,,,,,,,,,,,,,,,,,,,,,,
,,,,,,,,,,,,,,,89715,001,2022-04-29_10h26.48.142,SPAMnetsValid,2021.1.4,Win32,59.85873339,,,,,,,,,,,,,,,,,,,,,,,,,4,4.1506,0,13,13,13,1,evoke,take away,anger,connect,bring out,4,,,,,,,,,,,,,,,,,,,,,,,,,,,,,,,,,,,,,,,,,,,,,,,,,,,,
,,,,,,,,,,,,,,,89715,001,2022-04-29_10h26.48.142,SPAMnetsValid,2021.1.4,Win32,59.85873339,,,,,,,,,,,,,,,,,,,,,,,,,3,4.2587,0,14,14,14,1,pertinent,relevant,lying next to,necessary,bold,1,,,,,,,,,,,,,,,,,,,,,,,,,,,,,,,,,,,,,,,,,,,,,,,,,,,,
,,,,,,,,,,,,,,,89715,001,2022-04-29_10h26.48.142,SPAMnetsValid,2021.1.4,Win32,59.85873339,,,,,,,,,,,,,,,,,,,,,,,,,2,2.2159,0,15,15,15,1,holocaust,entirety,destruction,saintly,price,2,,,,,,,,,,,,,,,,,,,,,,,,,,,,,,,,,,,,,,,,,,,,,,,,,,,,
,,,,,,,,,,,,,,,89715,001,2022-04-29_10h26.48.142,SPAMnetsValid,2021.1.4,Win32,59.85873339,,,,,,,,,,,,,,,,,,,,,,,,,3,5.2585,0,16,16,16,1,piquant,mellow,fish,pungent,cloth,3,,,,,,,,,,,,,,,,,,,,,,,,,,,,,,,,,,,,,,,,,,,,,,,,,,,,
,,,,,,,,,,,,,,,89715,001,2022-04-29_10h26.48.142,SPAMnetsValid,2021.1.4,Win32,59.85873339,,,,,,,,,,,,,,,,,,,,,,,,,1,4.7382,0,17,17,17,1,firmament,foundation,heavens,strong,glue,2,,,,,,,,,,,,,,,,,,,,,,,,,,,,,,,,,,,,,,,,,,,,,,,,,,,,
,,,,,,,,,,,,,,,89715,001,2022-04-29_10h26.48.142,SPAMnetsValid,2021.1.4,Win32,59.85873339,,,,,,,,,,,,,,,,,,,,,,,,,,,,,,,,,,,,,,4,9.2051,0,0,0,0,1,marketable,partisan,jocular,marriageable,salable,essential,4,,,,,,,,,,,,,,,,,,,,,,,,,,,,,,,,,,,,,,
,,,,,,,,,,,,,,,89715,001,2022-04-29_10h26.48.142,SPAMnetsValid,2021.1.4,Win32,59.85873339,,,,,,,,,,,,,,,,,,,,,,,,,,,,,,,,,,,,,,4,5.8266,0,1,1,1,1,cottontail,squirrel,poplar,boa,marshy plant,rabbit,5,,,,,,,,,,,,,,,,,,,,,,,,,,,,,,,,,,,,,,
,,,,,,,,,,,,,,,89715,001,2022-04-29_10h26.48.142,SPAMnetsValid,2021.1.4,Win32,59.85873339,,,,,,,,,,,,,,,,,,,,,,,,,,,,,,,,,,,,,,4,2.2478,0,2,2,2,1,boggy,afraid,false,marshy,dense,black,3,,,,,,,,,,,,,,,,,,,,,,,,,,,,,,,,,,,,,,
,,,,,,,,,,,,,,,89715,001,2022-04-29_10h26.48.142,SPAMnetsValid,2021.1.4,Win32,59.85873339,,,,,,,,,,,,,,,,,,,,,,,,,,,,,,,,,,,,,,5,4.2769,0,3,3,3,1,gruesomeness,blackness,falseness,vindictiveness,drunkenness,ghastliness,5,,,,,,,,,,,,,,,,,,,,,,,,,,,,,,,,,,,,,,
,,,,,,,,,,,,,,,89715,001,2022-04-29_10h26.48.142,SPAMnetsValid,2021.1.4,Win32,59.85873339,,,,,,,,,,,,,,,,,,,,,,,,,,,,,,,,,,,,,,3,2.0495,0,4,4,4,1,loathing,diffidence,laziness,abhorrence,cleverness,comfort,3,,,,,,,,,,,,,,,,,,,,,,,,,,,,,,,,,,,,,,
,,,,,,,,,,,,,,,89715,001,2022-04-29_10h26.48.142,SPAMnetsValid,2021.1.4,Win32,59.85873339,,,,,,,,,,,,,,,,,,,,,,,,,,,,,,,,,,,,,,3,8.3247,0,5,5,5,1,bantam,fowl,ridicule,cripple,vegetable,ensign,1,,,,,,,,,,,,,,,,,,,,,,,,,,,,,,,,,,,,,,
,,,,,,,,,,,,,,,89715,001,2022-04-29_10h26.48.142,SPAMnetsValid,2021.1.4,Win32,59.85873339,,,,,,,,,,,,,,,,,,,,,,,,,,,,,,,,,,,,,,5,4.3493,0,6,6,6,1,evoke,wake up,surrender,reconnoiter,transcend,call forth,5,,,,,,,,,,,,,,,,,,,,,,,,,,,,,,,,,,,,,,
,,,,,,,,,,,,,,,89715,001,2022-04-29_10h26.48.142,SPAMnetsValid,2021.1.4,Win32,59.85873339,,,,,,,,,,,,,,,,,,,,,,,,,,,,,,,,,,,,,,5,4.8547,0,7,7,7,1,unobtrusive,unintelligent,epileptic,illogical,lineal,modest,5,,,,,,,,,,,,,,,,,,,,,,,,,,,,,,,,,,,,,,
,,,,,,,,,,,,,,,89715,001,2022-04-29_10h26.48.142,SPAMnetsValid,2021.1.4,Win32,59.85873339,,,,,,,,,,,,,,,,,,,,,,,,,,,,,,,,,,,,,,4,2.4232,0,8,8,8,1,terrain,ice cream,final test,tractor,area of ground,weight,4,,,,,,,,,,,,,,,,,,,,,,,,,,,,,,,,,,,,,,
,,,,,,,,,,,,,,,89715,001,2022-04-29_10h26.48.142,SPAMnetsValid,2021.1.4,Win32,59.85873339,,,,,,,,,,,,,,,,,,,,,,,,,,,,,,,,,,,,,,2,4.5462,0,9,9,9,1,capriciousness,stubbornness,courage,whimsicality,amazement,greediness,3,,,,,,,,,,,,,,,,,,,,,,,,,,,,,,,,,,,,,,
,,,,,,,,,,,,,,,89715,001,2022-04-29_10h26.48.142,SPAMnetsValid,2021.1.4,Win32,59.85873339,,,,,,,,,,,,,,,,,,,,,,,,,,,,,,,,,,,,,,2,4.3233,0,10,10,10,1,maelstrom,slander,whirlpool,enmity,armor,majolica,2,,,,,,,,,,,,,,,,,,,,,,,,,,,,,,,,,,,,,,
,,,,,,,,,,,,,,,89715,001,2022-04-29_10h26.48.142,SPAMnetsValid,2021.1.4,Win32,59.85873339,,,,,,,,,,,,,,,,,,,,,,,,,,,,,,,,,,,,,,5,3.371,0,11,11,11,1,tentative,critical,conclusive,authentic,provisional,apprehensive,4,,,,,,,,,,,,,,,,,,,,,,,,,,,,,,,,,,,,,,
,,,,,,,,,,,,,,,89715,001,2022-04-29_10h26.48.142,SPAMnetsValid,2021.1.4,Win32,59.85873339,,,,,,,,,,,,,,,,,,,,,,,,,,,,,,,,,,,,,,5,4.5262,0,12,12,12,1,placate,rehabilitate,plagiarize,depredate,apprise,conciliate,5,,,,,,,,,,,,,,,,,,,,,,,,,,,,,,,,,,,,,,
,,,,,,,,,,,,,,,89715,001,2022-04-29_10h26.48.142,SPAMnetsValid,2021.1.4,Win32,59.85873339,,,,,,,,,,,,,,,,,,,,,,,,,,,,,,,,,,,,,,5,6.7449,0,13,13,13,1,surcease,enlightenment,cessation,inattention,censor,substitution,2,,,,,,,,,,,,,,,,,,,,,,,,,,,,,,,,,,,,,,
,,,,,,,,,,,,,,,89715,001,2022-04-29_10h26.48.142,SPAMnetsValid,2021.1.4,Win32,59.85873339,,,,,,,,,,,,,,,,,,,,,,,,,,,,,,,,,,,,,,2,2.0441,0,14,14,14,1,apathetic,wandering,impassive,hateful,prophetic,overflowing,2,,,,,,,,,,,,,,,,,,,,,,,,,,,,,,,,,,,,,,
,,,,,,,,,,,,,,,89715,001,2022-04-29_10h26.48.142,SPAMnetsValid,2021.1.4,Win32,59.85873339,,,,,,,,,,,,,,,,,,,,,,,,,,,,,,,,,,,,,,4,6.3674,0,15,15,15,1,paternoster,paternalism,patricide,malediction,benediction,prayer,5,,,,,,,,,,,,,,,,,,,,,,,,,,,,,,,,,,,,,,
,,,,,,,,,,,,,,,89715,001,2022-04-29_10h26.48.142,SPAMnetsValid,2021.1.4,Win32,59.85873339,,,,,,,,,,,,,,,,,,,,,,,,,,,,,,,,,,,,,,1,7.8551,0,16,16,16,1,opalescence,opulence,senescence,bankruptcy,iridescence,assiduity,4,,,,,,,,,,,,,,,,,,,,,,,,,,,,,,,,,,,,,,
,,,,,,,,,,,,,,,89715,001,2022-04-29_10h26.48.142,SPAMnetsValid,2021.1.4,Win32,59.85873339,,,,,,,,,,,,,,,,,,,,,,,,,,,,,,,,,,,,,,2,1.5853,0,17,17,17,1,lush,stupid,luxurious,hazy,putrid,languishing,2,,,,,,,,,,,,,,,,,,,,,,,,,,,,,,,,,,,,,,
,,,,,,,,,,,,,,,89715,001,2022-04-29_10h26.48.142,SPAMnetsValid,2021.1.4,Win32,59.85873339,,,,,,,,,,,,,,,,,,,,,,,,,,,,,,,,,,,,,,2,2.8096,0,18,18,18,1,curtailment,expenditure,abandonment,abridgment,improvement,forgery,3,,,,,,,,,,,,,,,,,,,,,,,,,,,,,,,,,,,,,,
,,,,,,,,,,,,,,,89715,001,2022-04-29_10h26.48.142,SPAMnetsValid,2021.1.4,Win32,59.85873339,,,,,,,,,,,,,,,,,,,,,,,,,,,,,,,,,,,,,,2,4.8323,0,19,19,19,1,perversity,adversity,perviousness,travesty,waywardness,gentility,4,,,,,,,,,,,,,,,,,,,,,,,,,,,,,,,,,,,,,,
,,,,,,,,,,,,,,,89715,001,2022-04-29_10h26.48.142,SPAMnetsValid,2021.1.4,Win32,59.85873339,,,,,,,,,,,,,,,,,,,,,,,,,,,,,,,,,,,,,,1,9.6002,0,20,20,20,1,calumnious,complimentary,analogous,slanderous,tempestuous,magnanimous,3,,,,,,,,,,,,,,,,,,,,,,,,,,,,,,,,,,,,,,
,,,,,,,,,,,,,,,89715,001,2022-04-29_10h26.48.142,SPAMnetsValid,2021.1.4,Win32,59.85873339,,,,,,,,,,,,,,,,,,,,,,,,,,,,,,,,,,,,,,5,12.2104,0,21,21,21,1,illiberality,bigotry,imbecility,illegibility,cautery,immaturity,1,,,,,,,,,,,,,,,,,,,,,,,,,,,,,,,,,,,,,,
,,,,,,,,,,,,,,,89715,001,2022-04-29_10h26.48.142,SPAMnetsValid,2021.1.4,Win32,59.85873339,,,,,,,,,,,,,,,,,,,,,,,,,,,,,,,,,,,,,,3,5.5365,0,22,22,22,1,clabber,rejoice,gossip,curdle,crow,hobble,3,,,,,,,,,,,,,,,,,,,,,,,,,,,,,,,,,,,,,,
,,,,,,,,,,,,,,,89715,001,2022-04-29_10h26.48.142,SPAMnetsValid,2021.1.4,Win32,59.85873339,,,,,,,,,,,,,,,,,,,,,,,,,,,,,,,,,,,,,,4,6.3931,0,23,23,23,1,sedulousness,diligence,credulousness,seduction,perilousness,frankness,1,,,,,,,,,,,,,,,,,,,,,,,,,,,,,,,,,,,,,,
,,,,,,,,,,,,,,,89715,001,2022-04-29_10h26.48.142,SPAMnetsValid,2021.1.4,Win32,59.85873339,,,,,,,,,,,,,,,,,,,,,,,,,,,,,,,,,,,,,,,,,,,,,,,,,,,,"hat, bowl, cup,toilet,storage",bucket,0,0,0,0,1,,,,,,,,,,,,,,,,,,,,,,,,,,,,,,,
,,,,,,,,,,,,,,,89715,001,2022-04-29_10h26.48.142,SPAMnetsValid,2021.1.4,Win32,59.85873339,,,,,,,,,,,,,,,,,,,,,,,,,,,,,,,,,,,,,,,,,,,,,,,,,,,,storage,bucket,1,0,1,0,1,,,,,,,,,,,,,,,,,,,,,,,,,,,,,,,
,,,,,,,,,,,,,,,89715,001,2022-04-29_10h26.48.142,SPAMnetsValid,2021.1.4,Win32,59.85873339,,,,,,,,,,,,,,,,,,,,,,,,,,,,,,,,,,,,,,,,,,,,,,,,,,,,cup,bucket,2,0,2,0,1,,,,,,,,,,,,,,,,,,,,,,,,,,,,,,,
,,,,,,,,,,,,,,,89715,001,2022-04-29_10h26.48.142,SPAMnetsValid,2021.1.4,Win32,59.85873339,,,,,,,,,,,,,,,,,,,,,,,,,,,,,,,,,,,,,,,,,,,,,,,,,,,,bowl,bucket,3,0,3,0,1,,,,,,,,,,,,,,,,,,,,,,,,,,,,,,,
,,,,,,,,,,,,,,,89715,001,2022-04-29_10h26.48.142,SPAMnetsValid,2021.1.4,Win32,59.85873339,,,,,,,,,,,,,,,,,,,,,,,,,,,,,,,,,,,,,,,,,,,,,,,,,,,,organization,bucket,4,0,4,0,1,,,,,,,,,,,,,,,,,,,,,,,,,,,,,,,
,,,,,,,,,,,,,,,89715,001,2022-04-29_10h26.48.142,SPAMnetsValid,2021.1.4,Win32,59.85873339,,,,,,,,,,,,,,,,,,,,,,,,,,,,,,,,,,,,,,,,,,,,,,,,,,,,game,bucket,5,0,5,0,1,,,,,,,,,,,,,,,,,,,,,,,,,,,,,,,
,,,,,,,,,,,,,,,89715,001,2022-04-29_10h26.48.142,SPAMnetsValid,2021.1.4,Win32,59.85873339,,,,,,,,,,,,,,,,,,,,,,,,,,,,,,,,,,,,,,,,,,,,,,,,,,,,stool,bucket,6,0,6,0,1,,,,,,,,,,,,,,,,,,,,,,,,,,,,,,,
,,,,,,,,,,,,,,,89715,001,2022-04-29_10h26.48.142,SPAMnetsValid,2021.1.4,Win32,59.85873339,,,,,,,,,,,,,,,,,,,,,,,,,,,,,,,,,,,,,,,,,,,,,,,,,,,,toilet,bucket,7,0,7,0,1,,,,,,,,,,,,,,,,,,,,,,,,,,,,,,,
,,,,,,,,,,,,,,,89715,001,2022-04-29_10h26.48.142,SPAMnetsValid,2021.1.4,Win32,59.85873339,,,,,,,,,,,,,,,,,,,,,,,,,,,,,,,,,,,,,,,,,,,,,,,,,,,,,,,,,,,0,0,0,0,1,bucket,,,,,,,,,,,,,,,,,,,,,,,,,
,,,,,,,,,,,,,,,89715,001,2022-04-29_10h26.48.142,SPAMnetsValid,2021.1.4,Win32,59.85873339,,,,,,,,,,,,,,,,,,,,,,,,,,,,,,,,,,,,,,,,,,,,,,,,,,,,game,pillow,0,0,0,0,1,,,,,,,,,,,,,,,,,,,,,,,,,,,,,,,
,,,,,,,,,,,,,,,89715,001,2022-04-29_10h26.48.142,SPAMnetsValid,2021.1.4,Win32,59.85873339,,,,,,,,,,,,,,,,,,,,,,,,,,,,,,,,,,,,,,,,,,,,,,,,,,,,to kill someone,pillow,1,0,1,0,1,,,,,,,,,,,,,,,,,,,,,,,,,,,,,,,
,,,,,,,,,,,,,,,89715,001,2022-04-29_10h26.48.142,SPAMnetsValid,2021.1.4,Win32,59.85873339,,,,,,,,,,,,,,,,,,,,,,,,,,,,,,,,,,,,,,,,,,,,,,,,,,,,pet bed,pillow,2,0,2,0,1,,,,,,,,,,,,,,,,,,,,,,,,,,,,,,,
,,,,,,,,,,,,,,,89715,001,2022-04-29_10h26.48.142,SPAMnetsValid,2021.1.4,Win32,59.85873339,,,,,,,,,,,,,,,,,,,,,,,,,,,,,,,,,,,,,,,,,,,,,,,,,,,,gift,pillow,3,0,3,0,1,,,,,,,,,,,,,,,,,,,,,,,,,,,,,,,
,,,,,,,,,,,,,,,89715,001,2022-04-29_10h26.48.142,SPAMnetsValid,2021.1.4,Win32,59.85873339,,,,,,,,,,,,,,,,,,,,,,,,,,,,,,,,,,,,,,,,,,,,,,,,,,,,decoration,pillow,4,0,4,0,1,,,,,,,,,,,,,,,,,,,,,,,,,,,,,,,
,,,,,,,,,,,,,,,89715,001,2022-04-29_10h26.48.142,SPAMnetsValid,2021.1.4,Win32,59.85873339,,,,,,,,,,,,,,,,,,,,,,,,,,,,,,,,,,,,,,,,,,,,,,,,,,,,stabilizer,pillow,5,0,5,0,1,,,,,,,,,,,,,,,,,,,,,,,,,,,,,,,
,,,,,,,,,,,,,,,89715,001,2022-04-29_10h26.48.142,SPAMnetsValid,2021.1.4,Win32,59.85873339,,,,,,,,,,,,,,,,,,,,,,,,,,,,,,,,,,,,,,,,,,,,,,,,,,,,sound muffler,pillow,6,0,6,0,1,,,,,,,,,,,,,,,,,,,,,,,,,,,,,,,
,,,,,,,,,,,,,,,89715,001,2022-04-29_10h26.48.142,SPAMnetsValid,2021.1.4,Win32,59.85873339,,,,,,,,,,,,,,,,,,,,,,,,,,,,,,,,,,,,,,,,,,,,,,,,,,,,something to decorate,pillow,7,0,7,0,1,,,,,,,,,,,,,,,,,,,,,,,,,,,,,,,
,,,,,,,,,,,,,,,89715,001,2022-04-29_10h26.48.142,SPAMnetsValid,2021.1.4,Win32,59.85873339,,,,,,,,,,,,,,,,,,,,,,,,,,,,,,,,,,,,,,,,,,,,,,,,,,,,,,,,,,,0,1,1,2,1,pillow,,,,,,,,,,,,,,,,,,,,,,,,,
,,,,,,,,,,,,,,,89715,001,2022-04-29_10h26.48.142,SPAMnetsValid,2021.1.4,Win32,59.85873339,,,,,,,,,,,,,,,,,,,,,,,,,,,,,,,,,,,,,,,,,,,,,,,,,,,,to play with wax,candle,0,0,0,0,1,,,,,,,,,,,,,,,,,,,,,,,,,,,,,,,
,,,,,,,,,,,,,,,89715,001,2022-04-29_10h26.48.142,SPAMnetsValid,2021.1.4,Win32,59.85873339,,,,,,,,,,,,,,,,,,,,,,,,,,,,,,,,,,,,,,,,,,,,,,,,,,,,decoration,candle,1,0,1,0,1,,,,,,,,,,,,,,,,,,,,,,,,,,,,,,,
,,,,,,,,,,,,,,,89715,001,2022-04-29_10h26.48.142,SPAMnetsValid,2021.1.4,Win32,59.85873339,,,,,,,,,,,,,,,,,,,,,,,,,,,,,,,,,,,,,,,,,,,,,,,,,,,,warmth,candle,2,0,2,0,1,,,,,,,,,,,,,,,,,,,,,,,,,,,,,,,
,,,,,,,,,,,,,,,89715,001,2022-04-29_10h26.48.142,SPAMnetsValid,2021.1.4,Win32,59.85873339,,,,,,,,,,,,,,,,,,,,,,,,,,,,,,,,,,,,,,,,,,,,,,,,,,,,stand,candle,3,0,3,0,1,,,,,,,,,,,,,,,,,,,,,,,,,,,,,,,
,,,,,,,,,,,,,,,89715,001,2022-04-29_10h26.48.142,SPAMnetsValid,2021.1.4,Win32,59.85873339,,,,,,,,,,,,,,,,,,,,,,,,,,,,,,,,,,,,,,,,,,,,,,,,,,,,art project,candle,4,0,4,0,1,,,,,,,,,,,,,,,,,,,,,,,,,,,,,,,
,,,,,,,,,,,,,,,89715,001,2022-04-29_10h26.48.142,SPAMnetsValid,2021.1.4,Win32,59.85873339,,,,,,,,,,,,,,,,,,,,,,,,,,,,,,,,,,,,,,,,,,,,,,,,,,,,summoning a demon,candle,5,0,5,0,1,,,,,,,,,,,,,,,,,,,,,,,,,,,,,,,
,,,,,,,,,,,,,,,89715,001,2022-04-29_10h26.48.142,SPAMnetsValid,2021.1.4,Win32,59.85873339,,,,,,,,,,,,,,,,,,,,,,,,,,,,,,,,,,,,,,,,,,,,,,,,,,,,to become an arsonist,candle,6,0,6,0,1,,,,,,,,,,,,,,,,,,,,,,,,,,,,,,,
,,,,,,,,,,,,,,,89715,001,2022-04-29_10h26.48.142,SPAMnetsValid,2021.1.4,Win32,59.85873339,,,,,,,,,,,,,,,,,,,,,,,,,,,,,,,,,,,,,,,,,,,,,,,,,,,,to burn something,candle,7,0,7,0,1,,,,,,,,,,,,,,,,,,,,,,,,,,,,,,,
,,,,,,,,,,,,,,,89715,001,2022-04-29_10h26.48.142,SPAMnetsValid,2021.1.4,Win32,59.85873339,,,,,,,,,,,,,,,,,,,,,,,,,,,,,,,,,,,,,,,,,,,,,,,,,,,,sex,candle,8,0,8,0,1,,,,,,,,,,,,,,,,,,,,,,,,,,,,,,,
,,,,,,,,,,,,,,,89715,001,2022-04-29_10h26.48.142,SPAMnetsValid,2021.1.4,Win32,59.85873339,,,,,,,,,,,,,,,,,,,,,,,,,,,,,,,,,,,,,,,,,,,,,,,,,,,,can roll it around as a game,candle,9,0,9,0,1,,,,,,,,,,,,,,,,,,,,,,,,,,,,,,,
,,,,,,,,,,,,,,,89715,001,2022-04-29_10h26.48.142,SPAMnetsValid,2021.1.4,Win32,59.85873339,,,,,,,,,,,,,,,,,,,,,,,,,,,,,,,,,,,,,,,,,,,,,,,,,,,,back massager,candle,10,0,10,0,1,,,,,,,,,,,,,,,,,,,,,,,,,,,,,,,
,,,,,,,,,,,,,,,89715,001,2022-04-29_10h26.48.142,SPAMnetsValid,2021.1.4,Win32,59.85873339,,,,,,,,,,,,,,,,,,,,,,,,,,,,,,,,,,,,,,,,,,,,,,,,,,,,,,,,,,,0,2,2,1,1,candle,,,,,,,,,,,,,,,,,,,,,,,,,
,,,,,,,,,,,,,,,89715,001,2022-04-29_10h26.48.142,SPAMnetsValid,2021.1.4,Win32,59.85873339,,,,,,,,,,,,,,,,,,,,,,,,,,,,,,,,,,,,,,,,,,,,,,,,,,,,,,,,,,,,,,,,,goat,Animals,0,0,0,0,1,,,,,,,,,,,,,,,,,,
,,,,,,,,,,,,,,,89715,001,2022-04-29_10h26.48.142,SPAMnetsValid,2021.1.4,Win32,59.85873339,,,,,,,,,,,,,,,,,,,,,,,,,,,,,,,,,,,,,,,,,,,,,,,,,,,,,,,,,,,,,,,,,pig,Animals,1,0,1,0,1,,,,,,,,,,,,,,,,,,
,,,,,,,,,,,,,,,89715,001,2022-04-29_10h26.48.142,SPAMnetsValid,2021.1.4,Win32,59.85873339,,,,,,,,,,,,,,,,,,,,,,,,,,,,,,,,,,,,,,,,,,,,,,,,,,,,,,,,,,,,,,,,,bird,Animals,2,0,2,0,1,,,,,,,,,,,,,,,,,,
,,,,,,,,,,,,,,,89715,001,2022-04-29_10h26.48.142,SPAMnetsValid,2021.1.4,Win32,59.85873339,,,,,,,,,,,,,,,,,,,,,,,,,,,,,,,,,,,,,,,,,,,,,,,,,,,,,,,,,,,,,,,,,dog,Animals,3,0,3,0,1,,,,,,,,,,,,,,,,,,
,,,,,,,,,,,,,,,89715,001,2022-04-29_10h26.48.142,SPAMnetsValid,2021.1.4,Win32,59.85873339,,,,,,,,,,,,,,,,,,,,,,,,,,,,,,,,,,,,,,,,,,,,,,,,,,,,,,,,,,,,,,,,,fish,Animals,4,0,4,0,1,,,,,,,,,,,,,,,,,,
,,,,,,,,,,,,,,,89715,001,2022-04-29_10h26.48.142,SPAMnetsValid,2021.1.4,Win32,59.85873339,,,,,,,,,,,,,,,,,,,,,,,,,,,,,,,,,,,,,,,,,,,,,,,,,,,,,,,,,,,,,,,,,bug,Animals,5,0,5,0,1,,,,,,,,,,,,,,,,,,
,,,,,,,,,,,,,,,89715,001,2022-04-29_10h26.48.142,SPAMnetsValid,2021.1.4,Win32,59.85873339,,,,,,,,,,,,,,,,,,,,,,,,,,,,,,,,,,,,,,,,,,,,,,,,,,,,,,,,,,,,,,,,,bat,Animals,6,0,6,0,1,,,,,,,,,,,,,,,,,,
,,,,,,,,,,,,,,,89715,001,2022-04-29_10h26.48.142,SPAMnetsValid,2021.1.4,Win32,59.85873339,,,,,,,,,,,,,,,,,,,,,,,,,,,,,,,,,,,,,,,,,,,,,,,,,,,,,,,,,,,,,,,,,owl,Animals,7,0,7,0,1,,,,,,,,,,,,,,,,,,
,,,,,,,,,,,,,,,89715,001,2022-04-29_10h26.48.142,SPAMnetsValid,2021.1.4,Win32,59.85873339,,,,,,,,,,,,,,,,,,,,,,,,,,,,,,,,,,,,,,,,,,,,,,,,,,,,,,,,,,,,,,,,,eagle,Animals,8,0,8,0,1,,,,,,,,,,,,,,,,,,
,,,,,,,,,,,,,,,89715,001,2022-04-29_10h26.48.142,SPAMnetsValid,2021.1.4,Win32,59.85873339,,,,,,,,,,,,,,,,,,,,,,,,,,,,,,,,,,,,,,,,,,,,,,,,,,,,,,,,,,,,,,,,,snake,Animals,9,0,9,0,1,,,,,,,,,,,,,,,,,,
,,,,,,,,,,,,,,,89715,001,2022-04-29_10h26.48.142,SPAMnetsValid,2021.1.4,Win32,59.85873339,,,,,,,,,,,,,,,,,,,,,,,,,,,,,,,,,,,,,,,,,,,,,,,,,,,,,,,,,,,,,,,,,frog,Animals,10,0,10,0,1,,,,,,,,,,,,,,,,,,
,,,,,,,,,,,,,,,89715,001,2022-04-29_10h26.48.142,SPAMnetsValid,2021.1.4,Win32,59.85873339,,,,,,,,,,,,,,,,,,,,,,,,,,,,,,,,,,,,,,,,,,,,,,,,,,,,,,,,,,,,,,,,,monkey,Animals,11,0,11,0,1,,,,,,,,,,,,,,,,,,
,,,,,,,,,,,,,,,89715,001,2022-04-29_10h26.48.142,SPAMnetsValid,2021.1.4,Win32,59.85873339,,,,,,,,,,,,,,,,,,,,,,,,,,,,,,,,,,,,,,,,,,,,,,,,,,,,,,,,,,,,,,,,,kangaroo,Animals,12,0,12,0,1,,,,,,,,,,,,,,,,,,
,,,,,,,,,,,,,,,89715,001,2022-04-29_10h26.48.142,SPAMnetsValid,2021.1.4,Win32,59.85873339,,,,,,,,,,,,,,,,,,,,,,,,,,,,,,,,,,,,,,,,,,,,,,,,,,,,,,,,,,,,,,,,,koala,Animals,13,0,13,0,1,,,,,,,,,,,,,,,,,,
,,,,,,,,,,,,,,,89715,001,2022-04-29_10h26.48.142,SPAMnetsValid,2021.1.4,Win32,59.85873339,,,,,,,,,,,,,,,,,,,,,,,,,,,,,,,,,,,,,,,,,,,,,,,,,,,,,,,,,,,,,,,,,kiwi,Animals,14,0,14,0,1,,,,,,,,,,,,,,,,,,
,,,,,,,,,,,,,,,89715,001,2022-04-29_10h26.48.142,SPAMnetsValid,2021.1.4,Win32,59.85873339,,,,,,,,,,,,,,,,,,,,,,,,,,,,,,,,,,,,,,,,,,,,,,,,,,,,,,,,,,,,,,,,,bear,Animals,15,0,15,0,1,,,,,,,,,,,,,,,,,,
,,,,,,,,,,,,,,,89715,001,2022-04-29_10h26.48.142,SPAMnetsValid,2021.1.4,Win32,59.85873339,,,,,,,,,,,,,,,,,,,,,,,,,,,,,,,,,,,,,,,,,,,,,,,,,,,,,,,,,,,,,,,,,lion,Animals,16,0,16,0,1,,,,,,,,,,,,,,,,,,
,,,,,,,,,,,,,,,89715,001,2022-04-29_10h26.48.142,SPAMnetsValid,2021.1.4,Win32,59.85873339,,,,,,,,,,,,,,,,,,,,,,,,,,,,,,,,,,,,,,,,,,,,,,,,,,,,,,,,,,,,,,,,,tiger,Animals,17,0,17,0,1,,,,,,,,,,,,,,,,,,
,,,,,,,,,,,,,,,89715,001,2022-04-29_10h26.48.142,SPAMnetsValid,2021.1.4,Win32,59.85873339,,,,,,,,,,,,,,,,,,,,,,,,,,,,,,,,,,,,,,,,,,,,,,,,,,,,,,,,,,,,,,,,,ape,Animals,18,0,18,0,1,,,,,,,,,,,,,,,,,,
,,,,,,,,,,,,,,,89715,001,2022-04-29_10h26.48.142,SPAMnetsValid,2021.1.4,Win32,59.85873339,,,,,,,,,,,,,,,,,,,,,,,,,,,,,,,,,,,,,,,,,,,,,,,,,,,,,,,,,,,,,,,,,elephant,Animals,19,0,19,0,1,,,,,,,,,,,,,,,,,,
,,,,,,,,,,,,,,,89715,001,2022-04-29_10h26.48.142,SPAMnetsValid,2021.1.4,Win32,59.85873339,,,,,,,,,,,,,,,,,,,,,,,,,,,,,,,,,,,,,,,,,,,,,,,,,,,,,,,,,,,,,,,,,otter,Animals,20,0,20,0,1,,,,,,,,,,,,,,,,,,
,,,,,,,,,,,,,,,89715,001,2022-04-29_10h26.48.142,SPAMnetsValid,2021.1.4,Win32,59.85873339,,,,,,,,,,,,,,,,,,,,,,,,,,,,,,,,,,,,,,,,,,,,,,,,,,,,,,,,,,,,,,,,,whale,Animals,21,0,21,0,1,,,,,,,,,,,,,,,,,,
,,,,,,,,,,,,,,,89715,001,2022-04-29_10h26.48.142,SPAMnetsValid,2021.1.4,Win32,59.85873339,,,,,,,,,,,,,,,,,,,,,,,,,,,,,,,,,,,,,,,,,,,,,,,,,,,,,,,,,,,,,,,,,shark,Animals,22,0,22,0,1,,,,,,,,,,,,,,,,,,
,,,,,,,,,,,,,,,89715,001,2022-04-29_10h26.48.142,SPAMnetsValid,2021.1.4,Win32,59.85873339,,,,,,,,,,,,,,,,,,,,,,,,,,,,,,,,,,,,,,,,,,,,,,,,,,,,,,,,,,,,,,,,,shunk,Animals,23,0,23,0,1,,,,,,,,,,,,,,,,,,
,,,,,,,,,,,,,,,89715,001,2022-04-29_10h26.48.142,SPAMnetsValid,2021.1.4,Win32,59.85873339,,,,,,,,,,,,,,,,,,,,,,,,,,,,,,,,,,,,,,,,,,,,,,,,,,,,,,,,,,,,,,,,,beetle,Animals,24,0,24,0,1,,,,,,,,,,,,,,,,,,
,,,,,,,,,,,,,,,89715,001,2022-04-29_10h26.48.142,SPAMnetsValid,2021.1.4,Win32,59.85873339,,,,,,,,,,,,,,,,,,,,,,,,,,,,,,,,,,,,,,,,,,,,,,,,,,,,,,,,,,,,,,,,,rat,Animals,25,0,25,0,1,,,,,,,,,,,,,,,,,,
,,,,,,,,,,,,,,,89715,001,2022-04-29_10h26.48.142,SPAMnetsValid,2021.1.4,Win32,59.85873339,,,,,,,,,,,,,,,,,,,,,,,,,,,,,,,,,,,,,,,,,,,,,,,,,,,,,,,,,,,,,,,,,mouse,Animals,26,0,26,0,1,,,,,,,,,,,,,,,,,,
,,,,,,,,,,,,,,,89715,001,2022-04-29_10h26.48.142,SPAMnetsValid,2021.1.4,Win32,59.85873339,,,,,,,,,,,,,,,,,,,,,,,,,,,,,,,,,,,,,,,,,,,,,,,,,,,,,,,,,,,,,,,,,hamster,Animals,27,0,27,0,1,,,,,,,,,,,,,,,,,,
,,,,,,,,,,,,,,,89715,001,2022-04-29_10h26.48.142,SPAMnetsValid,2021.1.4,Win32,59.85873339,,,,,,,,,,,,,,,,,,,,,,,,,,,,,,,,,,,,,,,,,,,,,,,,,,,,,,,,,,,,,,,,,guinea pig,Animals,28,0,28,0,1,,,,,,,,,,,,,,,,,,
,,,,,,,,,,,,,,,89715,001,2022-04-29_10h26.48.142,SPAMnetsValid,2021.1.4,Win32,59.85873339,,,,,,,,,,,,,,,,,,,,,,,,,,,,,,,,,,,,,,,,,,,,,,,,,,,,,,,,,,,,,,,,,ferret,Animals,29,0,29,0,1,,,,,,,,,,,,,,,,,,
,,,,,,,,,,,,,,,89715,001,2022-04-29_10h26.48.142,SPAMnetsValid,2021.1.4,Win32,59.85873339,,,,,,,,,,,,,,,,,,,,,,,,,,,,,,,,,,,,,,,,,,,,,,,,,,,,,,,,,,,,,,,,,moth,Animals,30,0,30,0,1,,,,,,,,,,,,,,,,,,
,,,,,,,,,,,,,,,89715,001,2022-04-29_10h26.48.142,SPAMnetsValid,2021.1.4,Win32,59.85873339,,,,,,,,,,,,,,,,,,,,,,,,,,,,,,,,,,,,,,,,,,,,,,,,,,,,,,,,,,,,,,,,,fly,Animals,31,0,31,0,1,,,,,,,,,,,,,,,,,,
,,,,,,,,,,,,,,,89715,001,2022-04-29_10h26.48.142,SPAMnetsValid,2021.1.4,Win32,59.85873339,,,,,,,,,,,,,,,,,,,,,,,,,,,,,,,,,,,,,,,,,,,,,,,,,,,,,,,,,,,,,,,,,,,,,,,,0,0,0,0,1,Animals,,,,,,,,,,,,
,,,,,,,,,,,,,,,89715,001,2022-04-29_10h26.48.142,SPAMnetsValid,2021.1.4,Win32,59.85873339,,,,,,,,,,,,,,,,,,,,,,,,,,,,,,,,,,,,,,,,,,,,,,,,,,,,,,,,,,,,,,,,,,,,,,,,,,,,,,5,3.6972,0,0,0,0,1,"I enjoy concentrating on a fantasy or daydream and exploring all its possibilities, letting it grow and develop.",0,1,,
,,,,,,,,,,,,,,,89715,001,2022-04-29_10h26.48.142,SPAMnetsValid,2021.1.4,Win32,59.85873339,,,,,,,,,,,,,,,,,,,,,,,,,,,,,,,,,,,,,,,,,,,,,,,,,,,,,,,,,,,,,,,,,,,,,,,,,,,,,,5,1.5906,0,1,1,1,1,I think it's interesting to learn and develop new hobbies.,0,2,,
,,,,,,,,,,,,,,,89715,001,2022-04-29_10h26.48.142,SPAMnetsValid,2021.1.4,Win32,59.85873339,,,,,,,,,,,,,,,,,,,,,,,,,,,,,,,,,,,,,,,,,,,,,,,,,,,,,,,,,,,,,,,,,,,,,,,,,,,,,,4,2.693,0,2,2,2,1,I am intrigued by the patterns I find in art and nature.,0,3,,
,,,,,,,,,,,,,,,89715,001,2022-04-29_10h26.48.142,SPAMnetsValid,2021.1.4,Win32,59.85873339,,,,,,,,,,,,,,,,,,,,,,,,,,,,,,,,,,,,,,,,,,,,,,,,,,,,,,,,,,,,,,,,,,,,,,,,,,,,,,1,3.8581,0,3,3,3,1,I believe letting students hear controversial speakers can only confuse and mislead them.,1,4,,
,,,,,,,,,,,,,,,89715,001,2022-04-29_10h26.48.142,SPAMnetsValid,2021.1.4,Win32,59.85873339,,,,,,,,,,,,,,,,,,,,,,,,,,,,,,,,,,,,,,,,,,,,,,,,,,,,,,,,,,,,,,,,,,,,,,,,,,,,,,2,2.9045,0,4,4,4,1,Poetry has little or no effect on me.,1,5,,
,,,,,,,,,,,,,,,89715,001,2022-04-29_10h26.48.142,SPAMnetsValid,2021.1.4,Win32,59.85873339,,,,,,,,,,,,,,,,,,,,,,,,,,,,,,,,,,,,,,,,,,,,,,,,,,,,,,,,,,,,,,,,,,,,,,,,,,,,,,1,5.2569,0,5,5,5,1,I would have difficulty just letting my mind wander without control or guidance.,1,6,,
,,,,,,,,,,,,,,,89715,001,2022-04-29_10h26.48.142,SPAMnetsValid,2021.1.4,Win32,59.85873339,,,,,,,,,,,,,,,,,,,,,,,,,,,,,,,,,,,,,,,,,,,,,,,,,,,,,,,,,,,,,,,,,,,,,,,,,,,,,,1,3.4234,0,6,6,6,1,I seldom notice the moods or feelings that different environments produce.,1,7,,
,,,,,,,,,,,,,,,89715,001,2022-04-29_10h26.48.142,SPAMnetsValid,2021.1.4,Win32,59.85873339,,,,,,,,,,,,,,,,,,,,,,,,,,,,,,,,,,,,,,,,,,,,,,,,,,,,,,,,,,,,,,,,,,,,,,,,,,,,,,5,2.8269,0,7,7,7,1,I experience a wide range of emotions or feelings.,0,8,,
,,,,,,,,,,,,,,,89715,001,2022-04-29_10h26.48.142,SPAMnetsValid,2021.1.4,Win32,59.85873339,,,,,,,,,,,,,,,,,,,,,,,,,,,,,,,,,,,,,,,,,,,,,,,,,,,,,,,,,,,,,,,,,,,,,,,,,,,,,,4,3.7311,0,8,8,8,1,"Sometimes when I am reading poetry or looking at a work of art, I feel a chill or wave of excitement.",0,9,,
,,,,,,,,,,,,,,,89715,001,2022-04-29_10h26.48.142,SPAMnetsValid,2021.1.4,Win32,59.85873339,,,,,,,,,,,,,,,,,,,,,,,,,,,,,,,,,,,,,,,,,,,,,,,,,,,,,,,,,,,,,,,,,,,,,,,,,,,,,,2,4.7753,0,9,9,9,1,I have little interest in speculating on the nature of the universe or the human condition.,1,10,,
,,,,,,,,,,,,,,,89715,001,2022-04-29_10h26.48.142,SPAMnetsValid,2021.1.4,Win32,59.85873339,,,,,,,,,,,,,,,,,,,,,,,,,,,,,,,,,,,,,,,,,,,,,,,,,,,,,,,,,,,,,,,,,,,,,,,,,,,,,,4,2.1761,0,10,10,10,1,I have a lot of intellectual curiosity.,0,11,,
,,,,,,,,,,,,,,,89715,001,2022-04-29_10h26.48.142,SPAMnetsValid,2021.1.4,Win32,59.85873339,,,,,,,,,,,,,,,,,,,,,,,,,,,,,,,,,,,,,,,,,,,,,,,,,,,,,,,,,,,,,,,,,,,,,,,,,,,,,,4,2.9062,0,11,11,11,1,I often enjoy playing with theories or abstract ideas.,0,12,,
,,,,,,,,,,,,,,,89715,001,2022-04-29_10h26.48.142,SPAMnetsValid,2021.1.4,Win32,59.85873339,,,,,,,,,,,,,,,,,,,,,,,,,,,,,,,,,,,,,,,,,,,,,,,,,,,,,,,,,,,,,,,,,,,,,,,,,,,,,,,,,,,,,,,,return,7.2015
