key_resp_3.keys,key_resp_3.rt,slider.response,slider.rt,rjt_rating,rjt_RT,trials_22.thisRepN,trials_22.thisTrialN,trials_22.thisN,trials_22.thisIndex,trials_22.ran,rjt_order,word1,word2,attention,participant,session,date,expName,psychopyVersion,OS,frameRate,trials_99.thisRepN,trials_99.thisTrialN,trials_99.thisN,trials_99.thisIndex,trials_99.ran,trials_5.thisRepN,trials_5.thisTrialN,trials_5.thisN,trials_5.thisIndex,trials_5.ran,repOne,repTwo,slider_2.response,slider_2.rt,trials_24.thisRepN,trials_24.thisTrialN,trials_24.thisN,trials_24.thisIndex,trials_24.ran,trials_4.thisRepN,trials_4.thisTrialN,trials_4.thisN,trials_4.thisIndex,trials_4.ran,slider_extend_2.response,slider_extend_2.rt,trials_6.thisRepN,trials_6.thisTrialN,trials_6.thisN,trials_6.thisIndex,trials_6.ran,vCue2,R1,R2,R3,R4,correct,sliderVocab.response,sliderVocab.rt,trials_7.thisRepN,trials_7.thisTrialN,trials_7.thisN,trials_7.thisIndex,trials_7.ran,VocabCue,VR1,VR2,VR3,VR4,VR5,VocabCorrect,AUT_resp,AUT_label,trials.thisRepN,trials.thisTrialN,trials.thisN,trials.thisIndex,trials.ran,trials_2.thisRepN,trials_2.thisTrialN,trials_2.thisN,trials_2.thisIndex,trials_2.ran,aut_prompt,VF_response,VF_tag,trials_16.thisRepN,trials_16.thisTrialN,trials_16.thisN,trials_16.thisIndex,trials_16.ran,trials_17.thisRepN,trials_17.thisTrialN,trials_17.thisN,trials_17.thisIndex,trials_17.ran,VFcond,open_slider.response,open_slider.rt,trials_3.thisRepN,trials_3.thisTrialN,trials_3.thisN,trials_3.thisIndex,trials_3.ran,OpenQ,Rev,OPEN_ORDER,key_resp_2.keys,key_resp_2.rt
return,9.8017,7,11.173,7,11.173,0,0,0,83,1,6,garden,onion,,89735,001,2022-04-28_14h47.12.994,SPAMnetsValid,2021.1.4,Win32,59.9880024,,,,,,,,,,,,,,,,,,,,,,,,,,,,,,,,,,,,,,,,,,,,,,,,,,,,,,,,,,,,,,,,,,,,,,,,,,,,,,,,,,,,,,,,,
,,3,4.6464,3,4.6464,0,1,1,55,1,1,rose,yogurt,,89735,001,2022-04-28_14h47.12.994,SPAMnetsValid,2021.1.4,Win32,59.9880024,,,,,,,,,,,,,,,,,,,,,,,,,,,,,,,,,,,,,,,,,,,,,,,,,,,,,,,,,,,,,,,,,,,,,,,,,,,,,,,,,,,,,,,,,
,,7,3.2293,7,3.2293,0,2,2,87,1,79,garden,strawberry,,89735,001,2022-04-28_14h47.12.994,SPAMnetsValid,2021.1.4,Win32,59.9880024,,,,,,,,,,,,,,,,,,,,,,,,,,,,,,,,,,,,,,,,,,,,,,,,,,,,,,,,,,,,,,,,,,,,,,,,,,,,,,,,,,,,,,,,,
,,1,2.2796,1,2.2796,0,3,3,59,1,8,broom,melon,,89735,001,2022-04-28_14h47.12.994,SPAMnetsValid,2021.1.4,Win32,59.9880024,,,,,,,,,,,,,,,,,,,,,,,,,,,,,,,,,,,,,,,,,,,,,,,,,,,,,,,,,,,,,,,,,,,,,,,,,,,,,,,,,,,,,,,,,
,,3,4.9262,3,4.9262,0,4,4,72,1,59,rose,strawberry,,89735,001,2022-04-28_14h47.12.994,SPAMnetsValid,2021.1.4,Win32,59.9880024,,,,,,,,,,,,,,,,,,,,,,,,,,,,,,,,,,,,,,,,,,,,,,,,,,,,,,,,,,,,,,,,,,,,,,,,,,,,,,,,,,,,,,,,,
,,1,4.4113,1,4.4113,0,5,5,31,1,33,oven,yogurt,,89735,001,2022-04-28_14h47.12.994,SPAMnetsValid,2021.1.4,Win32,59.9880024,,,,,,,,,,,,,,,,,,,,,,,,,,,,,,,,,,,,,,,,,,,,,,,,,,,,,,,,,,,,,,,,,,,,,,,,,,,,,,,,,,,,,,,,,
,,5,3.8166,5,3.8166,0,6,6,42,1,77,refrigerator,yogurt,,89735,001,2022-04-28_14h47.12.994,SPAMnetsValid,2021.1.4,Win32,59.9880024,,,,,,,,,,,,,,,,,,,,,,,,,,,,,,,,,,,,,,,,,,,,,,,,,,,,,,,,,,,,,,,,,,,,,,,,,,,,,,,,,,,,,,,,,
,,1,2.341,1,2.341,0,7,7,40,1,74,broom,pretzel,,89735,001,2022-04-28_14h47.12.994,SPAMnetsValid,2021.1.4,Win32,59.9880024,,,,,,,,,,,,,,,,,,,,,,,,,,,,,,,,,,,,,,,,,,,,,,,,,,,,,,,,,,,,,,,,,,,,,,,,,,,,,,,,,,,,,,,,,
,,4,3.5831,4,3.5831,0,8,8,36,1,12,cookie,yogurt,,89735,001,2022-04-28_14h47.12.994,SPAMnetsValid,2021.1.4,Win32,59.9880024,,,,,,,,,,,,,,,,,,,,,,,,,,,,,,,,,,,,,,,,,,,,,,,,,,,,,,,,,,,,,,,,,,,,,,,,,,,,,,,,,,,,,,,,,
,,6,2.2049,6,2.2049,0,9,9,95,1,52,carrot,tomato,,89735,001,2022-04-28_14h47.12.994,SPAMnetsValid,2021.1.4,Win32,59.9880024,,,,,,,,,,,,,,,,,,,,,,,,,,,,,,,,,,,,,,,,,,,,,,,,,,,,,,,,,,,,,,,,,,,,,,,,,,,,,,,,,,,,,,,,,
,,3,2.2841,3,2.2841,0,10,10,3,1,49,flower,strawberry,,89735,001,2022-04-28_14h47.12.994,SPAMnetsValid,2021.1.4,Win32,59.9880024,,,,,,,,,,,,,,,,,,,,,,,,,,,,,,,,,,,,,,,,,,,,,,,,,,,,,,,,,,,,,,,,,,,,,,,,,,,,,,,,,,,,,,,,,
,,1,1.9581,1,1.9581,0,11,11,27,1,72,broom,onion,,89735,001,2022-04-28_14h47.12.994,SPAMnetsValid,2021.1.4,Win32,59.9880024,,,,,,,,,,,,,,,,,,,,,,,,,,,,,,,,,,,,,,,,,,,,,,,,,,,,,,,,,,,,,,,,,,,,,,,,,,,,,,,,,,,,,,,,,
,,1,2.151,1,2.151,0,12,12,38,1,88,cactus,melon,,89735,001,2022-04-28_14h47.12.994,SPAMnetsValid,2021.1.4,Win32,59.9880024,,,,,,,,,,,,,,,,,,,,,,,,,,,,,,,,,,,,,,,,,,,,,,,,,,,,,,,,,,,,,,,,,,,,,,,,,,,,,,,,,,,,,,,,,
,,1,1.4362,1,1.4362,0,13,13,41,1,19,microwave,pretzel,,89735,001,2022-04-28_14h47.12.994,SPAMnetsValid,2021.1.4,Win32,59.9880024,,,,,,,,,,,,,,,,,,,,,,,,,,,,,,,,,,,,,,,,,,,,,,,,,,,,,,,,,,,,,,,,,,,,,,,,,,,,,,,,,,,,,,,,,
,,6,1.8851,6,1.8851,0,14,14,44,1,25,carrot,onion,,89735,001,2022-04-28_14h47.12.994,SPAMnetsValid,2021.1.4,Win32,59.9880024,,,,,,,,,,,,,,,,,,,,,,,,,,,,,,,,,,,,,,,,,,,,,,,,,,,,,,,,,,,,,,,,,,,,,,,,,,,,,,,,,,,,,,,,,
,,1,1.8319,1,1.8319,0,15,15,85,1,90,cactus,cake,,89735,001,2022-04-28_14h47.12.994,SPAMnetsValid,2021.1.4,Win32,59.9880024,,,,,,,,,,,,,,,,,,,,,,,,,,,,,,,,,,,,,,,,,,,,,,,,,,,,,,,,,,,,,,,,,,,,,,,,,,,,,,,,,,,,,,,,,
,,1,2.5009,1,2.5009,0,16,16,43,1,11,refrigerator,tree,,89735,001,2022-04-28_14h47.12.994,SPAMnetsValid,2021.1.4,Win32,59.9880024,,,,,,,,,,,,,,,,,,,,,,,,,,,,,,,,,,,,,,,,,,,,,,,,,,,,,,,,,,,,,,,,,,,,,,,,,,,,,,,,,,,,,,,,,
,,3,2.5768,3,2.5768,0,17,17,24,1,17,carrot,melon,,89735,001,2022-04-28_14h47.12.994,SPAMnetsValid,2021.1.4,Win32,59.9880024,,,,,,,,,,,,,,,,,,,,,,,,,,,,,,,,,,,,,,,,,,,,,,,,,,,,,,,,,,,,,,,,,,,,,,,,,,,,,,,,,,,,,,,,,
,,1,1.9562,1,1.9562,0,18,18,56,1,78,cookie,rose,,89735,001,2022-04-28_14h47.12.994,SPAMnetsValid,2021.1.4,Win32,59.9880024,,,,,,,,,,,,,,,,,,,,,,,,,,,,,,,,,,,,,,,,,,,,,,,,,,,,,,,,,,,,,,,,,,,,,,,,,,,,,,,,,,,,,,,,,
,,7,3.1636,7,3.1636,0,19,19,64,1,9,kitchen,refrigerator,,89735,001,2022-04-28_14h47.12.994,SPAMnetsValid,2021.1.4,Win32,59.9880024,,,,,,,,,,,,,,,,,,,,,,,,,,,,,,,,,,,,,,,,,,,,,,,,,,,,,,,,,,,,,,,,,,,,,,,,,,,,,,,,,,,,,,,,,
,,3,2.5973,3,2.5973,0,20,20,13,1,26,tomato,yogurt,,89735,001,2022-04-28_14h47.12.994,SPAMnetsValid,2021.1.4,Win32,59.9880024,,,,,,,,,,,,,,,,,,,,,,,,,,,,,,,,,,,,,,,,,,,,,,,,,,,,,,,,,,,,,,,,,,,,,,,,,,,,,,,,,,,,,,,,,
,,4,4.0168,4,4.0168,0,21,21,94,1,68,flower,tomato,,89735,001,2022-04-28_14h47.12.994,SPAMnetsValid,2021.1.4,Win32,59.9880024,,,,,,,,,,,,,,,,,,,,,,,,,,,,,,,,,,,,,,,,,,,,,,,,,,,,,,,,,,,,,,,,,,,,,,,,,,,,,,,,,,,,,,,,,
,,5,6.1579,5,6.1579,0,22,22,81,1,60,cactus,onion,,89735,001,2022-04-28_14h47.12.994,SPAMnetsValid,2021.1.4,Win32,59.9880024,,,,,,,,,,,,,,,,,,,,,,,,,,,,,,,,,,,,,,,,,,,,,,,,,,,,,,,,,,,,,,,,,,,,,,,,,,,,,,,,,,,,,,,,,
,,1,7.2423,1,7.2423,0,23,23,84,1,91,microwave,rose,,89735,001,2022-04-28_14h47.12.994,SPAMnetsValid,2021.1.4,Win32,59.9880024,,,,,,,,,,,,,,,,,,,,,,,,,,,,,,,,,,,,,,,,,,,,,,,,,,,,,,,,,,,,,,,,,,,,,,,,,,,,,,,,,,,,,,,,,
,,1,9.1898,1,9.1898,0,24,24,32,1,40,broom,cake,,89735,001,2022-04-28_14h47.12.994,SPAMnetsValid,2021.1.4,Win32,59.9880024,,,,,,,,,,,,,,,,,,,,,,,,,,,,,,,,,,,,,,,,,,,,,,,,,,,,,,,,,,,,,,,,,,,,,,,,,,,,,,,,,,,,,,,,,
,,1,2.4735,1,2.4735,0,25,25,15,1,48,flower,oven,,89735,001,2022-04-28_14h47.12.994,SPAMnetsValid,2021.1.4,Win32,59.9880024,,,,,,,,,,,,,,,,,,,,,,,,,,,,,,,,,,,,,,,,,,,,,,,,,,,,,,,,,,,,,,,,,,,,,,,,,,,,,,,,,,,,,,,,,
,,4,1.7368,4,1.7368,0,26,26,67,1,54,chocolate,yogurt,,89735,001,2022-04-28_14h47.12.994,SPAMnetsValid,2021.1.4,Win32,59.9880024,,,,,,,,,,,,,,,,,,,,,,,,,,,,,,,,,,,,,,,,,,,,,,,,,,,,,,,,,,,,,,,,,,,,,,,,,,,,,,,,,,,,,,,,,
,,5,2.4179,5,2.4179,0,27,27,2,1,22,kitchen,strawberry,,89735,001,2022-04-28_14h47.12.994,SPAMnetsValid,2021.1.4,Win32,59.9880024,,,,,,,,,,,,,,,,,,,,,,,,,,,,,,,,,,,,,,,,,,,,,,,,,,,,,,,,,,,,,,,,,,,,,,,,,,,,,,,,,,,,,,,,,
,,1,2.019,1,2.019,0,28,28,26,1,35,flower,pretzel,,89735,001,2022-04-28_14h47.12.994,SPAMnetsValid,2021.1.4,Win32,59.9880024,,,,,,,,,,,,,,,,,,,,,,,,,,,,,,,,,,,,,,,,,,,,,,,,,,,,,,,,,,,,,,,,,,,,,,,,,,,,,,,,,,,,,,,,,
,,7,2.9689,7,2.9689,0,29,29,60,1,89,chocolate,rose,,89735,001,2022-04-28_14h47.12.994,SPAMnetsValid,2021.1.4,Win32,59.9880024,,,,,,,,,,,,,,,,,,,,,,,,,,,,,,,,,,,,,,,,,,,,,,,,,,,,,,,,,,,,,,,,,,,,,,,,,,,,,,,,,,,,,,,,,
,,5,3.5425,5,3.5425,0,30,30,9,1,75,cookie,onion,,89735,001,2022-04-28_14h47.12.994,SPAMnetsValid,2021.1.4,Win32,59.9880024,,,,,,,,,,,,,,,,,,,,,,,,,,,,,,,,,,,,,,,,,,,,,,,,,,,,,,,,,,,,,,,,,,,,,,,,,,,,,,,,,,,,,,,,,
,,6,1.5878,6,1.5878,0,31,31,75,1,69,carrot,refrigerator,,89735,001,2022-04-28_14h47.12.994,SPAMnetsValid,2021.1.4,Win32,59.9880024,,,,,,,,,,,,,,,,,,,,,,,,,,,,,,,,,,,,,,,,,,,,,,,,,,,,,,,,,,,,,,,,,,,,,,,,,,,,,,,,,,,,,,,,,
,,1,1.4089,1,1.4089,0,32,32,5,1,13,broom,yogurt,,89735,001,2022-04-28_14h47.12.994,SPAMnetsValid,2021.1.4,Win32,59.9880024,,,,,,,,,,,,,,,,,,,,,,,,,,,,,,,,,,,,,,,,,,,,,,,,,,,,,,,,,,,,,,,,,,,,,,,,,,,,,,,,,,,,,,,,,
,,1,1.2766,1,1.2766,0,33,33,70,1,5,oven,tree,,89735,001,2022-04-28_14h47.12.994,SPAMnetsValid,2021.1.4,Win32,59.9880024,,,,,,,,,,,,,,,,,,,,,,,,,,,,,,,,,,,,,,,,,,,,,,,,,,,,,,,,,,,,,,,,,,,,,,,,,,,,,,,,,,,,,,,,,
,,1,1.4452,1,1.4452,0,34,34,11,1,37,garden,refrigerator,,89735,001,2022-04-28_14h47.12.994,SPAMnetsValid,2021.1.4,Win32,59.9880024,,,,,,,,,,,,,,,,,,,,,,,,,,,,,,,,,,,,,,,,,,,,,,,,,,,,,,,,,,,,,,,,,,,,,,,,,,,,,,,,,,,,,,,,,
,,1,1.4991,1,1.4991,0,35,35,89,1,80,chocolate,tree,,89735,001,2022-04-28_14h47.12.994,SPAMnetsValid,2021.1.4,Win32,59.9880024,,,,,,,,,,,,,,,,,,,,,,,,,,,,,,,,,,,,,,,,,,,,,,,,,,,,,,,,,,,,,,,,,,,,,,,,,,,,,,,,,,,,,,,,,
,,4,2.7585,4,2.7585,0,36,36,6,1,87,carrot,yogurt,,89735,001,2022-04-28_14h47.12.994,SPAMnetsValid,2021.1.4,Win32,59.9880024,,,,,,,,,,,,,,,,,,,,,,,,,,,,,,,,,,,,,,,,,,,,,,,,,,,,,,,,,,,,,,,,,,,,,,,,,,,,,,,,,,,,,,,,,
,,1,1.4843,1,1.4843,0,37,37,33,1,32,cake,microwave,,89735,001,2022-04-28_14h47.12.994,SPAMnetsValid,2021.1.4,Win32,59.9880024,,,,,,,,,,,,,,,,,,,,,,,,,,,,,,,,,,,,,,,,,,,,,,,,,,,,,,,,,,,,,,,,,,,,,,,,,,,,,,,,,,,,,,,,,
,,7,1.9998,7,1.9998,0,38,38,30,1,3,cake,oven,,89735,001,2022-04-28_14h47.12.994,SPAMnetsValid,2021.1.4,Win32,59.9880024,,,,,,,,,,,,,,,,,,,,,,,,,,,,,,,,,,,,,,,,,,,,,,,,,,,,,,,,,,,,,,,,,,,,,,,,,,,,,,,,,,,,,,,,,
,,3,2.2362,3,2.2362,0,39,39,54,1,28,cake,melon,,89735,001,2022-04-28_14h47.12.994,SPAMnetsValid,2021.1.4,Win32,59.9880024,,,,,,,,,,,,,,,,,,,,,,,,,,,,,,,,,,,,,,,,,,,,,,,,,,,,,,,,,,,,,,,,,,,,,,,,,,,,,,,,,,,,,,,,,
,,2,2.3015,2,2.3015,0,40,40,29,1,42,garden,kitchen,,89735,001,2022-04-28_14h47.12.994,SPAMnetsValid,2021.1.4,Win32,59.9880024,,,,,,,,,,,,,,,,,,,,,,,,,,,,,,,,,,,,,,,,,,,,,,,,,,,,,,,,,,,,,,,,,,,,,,,,,,,,,,,,,,,,,,,,,
,,1,2.7177,1,2.7177,0,41,41,57,1,62,kitchen,rose,,89735,001,2022-04-28_14h47.12.994,SPAMnetsValid,2021.1.4,Win32,59.9880024,,,,,,,,,,,,,,,,,,,,,,,,,,,,,,,,,,,,,,,,,,,,,,,,,,,,,,,,,,,,,,,,,,,,,,,,,,,,,,,,,,,,,,,,,
,,9,2.2349,9,2.2349,0,42,42,10,1,191,cake,cake,CHECK,89735,001,2022-04-28_14h47.12.994,SPAMnetsValid,2021.1.4,Win32,59.9880024,,,,,,,,,,,,,,,,,,,,,,,,,,,,,,,,,,,,,,,,,,,,,,,,,,,,,,,,,,,,,,,,,,,,,,,,,,,,,,,,,,,,,,,,,
,,4,3.2998,4,3.2998,0,43,43,66,1,20,rose,tree,,89735,001,2022-04-28_14h47.12.994,SPAMnetsValid,2021.1.4,Win32,59.9880024,,,,,,,,,,,,,,,,,,,,,,,,,,,,,,,,,,,,,,,,,,,,,,,,,,,,,,,,,,,,,,,,,,,,,,,,,,,,,,,,,,,,,,,,,
,,3,2.8018,3,2.8018,0,44,44,71,1,38,pretzel,refrigerator,,89735,001,2022-04-28_14h47.12.994,SPAMnetsValid,2021.1.4,Win32,59.9880024,,,,,,,,,,,,,,,,,,,,,,,,,,,,,,,,,,,,,,,,,,,,,,,,,,,,,,,,,,,,,,,,,,,,,,,,,,,,,,,,,,,,,,,,,
,,2,2.1487,2,2.1487,0,45,45,8,1,43,chocolate,tomato,,89735,001,2022-04-28_14h47.12.994,SPAMnetsValid,2021.1.4,Win32,59.9880024,,,,,,,,,,,,,,,,,,,,,,,,,,,,,,,,,,,,,,,,,,,,,,,,,,,,,,,,,,,,,,,,,,,,,,,,,,,,,,,,,,,,,,,,,
,,3,2.1309,3,2.1309,0,46,46,86,1,51,onion,strawberry,,89735,001,2022-04-28_14h47.12.994,SPAMnetsValid,2021.1.4,Win32,59.9880024,,,,,,,,,,,,,,,,,,,,,,,,,,,,,,,,,,,,,,,,,,,,,,,,,,,,,,,,,,,,,,,,,,,,,,,,,,,,,,,,,,,,,,,,,
,,4,2.8297,4,2.8297,0,47,47,76,1,36,broom,kitchen,,89735,001,2022-04-28_14h47.12.994,SPAMnetsValid,2021.1.4,Win32,59.9880024,,,,,,,,,,,,,,,,,,,,,,,,,,,,,,,,,,,,,,,,,,,,,,,,,,,,,,,,,,,,,,,,,,,,,,,,,,,,,,,,,,,,,,,,,
,,2,2.9939,2,2.9939,0,48,48,78,1,30,cookie,pretzel,,89735,001,2022-04-28_14h47.12.994,SPAMnetsValid,2021.1.4,Win32,59.9880024,,,,,,,,,,,,,,,,,,,,,,,,,,,,,,,,,,,,,,,,,,,,,,,,,,,,,,,,,,,,,,,,,,,,,,,,,,,,,,,,,,,,,,,,,
,,6,1.9474,6,1.9474,0,49,49,51,1,47,onion,tomato,,89735,001,2022-04-28_14h47.12.994,SPAMnetsValid,2021.1.4,Win32,59.9880024,,,,,,,,,,,,,,,,,,,,,,,,,,,,,,,,,,,,,,,,,,,,,,,,,,,,,,,,,,,,,,,,,,,,,,,,,,,,,,,,,,,,,,,,,
,,7,2.3106,7,2.3106,0,50,50,19,1,76,garden,rose,,89735,001,2022-04-28_14h47.12.994,SPAMnetsValid,2021.1.4,Win32,59.9880024,,,,,,,,,,,,,,,,,,,,,,,,,,,,,,,,,,,,,,,,,,,,,,,,,,,,,,,,,,,,,,,,,,,,,,,,,,,,,,,,,,,,,,,,,
,,3,5.3255,3,5.3255,0,51,51,17,1,27,cactus,cookie,,89735,001,2022-04-28_14h47.12.994,SPAMnetsValid,2021.1.4,Win32,59.9880024,,,,,,,,,,,,,,,,,,,,,,,,,,,,,,,,,,,,,,,,,,,,,,,,,,,,,,,,,,,,,,,,,,,,,,,,,,,,,,,,,,,,,,,,,
,,3,1.8158,3,1.8158,0,52,52,69,1,45,onion,pretzel,,89735,001,2022-04-28_14h47.12.994,SPAMnetsValid,2021.1.4,Win32,59.9880024,,,,,,,,,,,,,,,,,,,,,,,,,,,,,,,,,,,,,,,,,,,,,,,,,,,,,,,,,,,,,,,,,,,,,,,,,,,,,,,,,,,,,,,,,
,,5,6.04,5,6.04,0,53,53,96,1,82,cake,kitchen,,89735,001,2022-04-28_14h47.12.994,SPAMnetsValid,2021.1.4,Win32,59.9880024,,,,,,,,,,,,,,,,,,,,,,,,,,,,,,,,,,,,,,,,,,,,,,,,,,,,,,,,,,,,,,,,,,,,,,,,,,,,,,,,,,,,,,,,,
,,6,2.5768,6,2.5768,0,54,54,93,1,63,cake,cookie,,89735,001,2022-04-28_14h47.12.994,SPAMnetsValid,2021.1.4,Win32,59.9880024,,,,,,,,,,,,,,,,,,,,,,,,,,,,,,,,,,,,,,,,,,,,,,,,,,,,,,,,,,,,,,,,,,,,,,,,,,,,,,,,,,,,,,,,,
,,3,1.6298,3,1.6298,0,55,55,63,1,21,cake,onion,,89735,001,2022-04-28_14h47.12.994,SPAMnetsValid,2021.1.4,Win32,59.9880024,,,,,,,,,,,,,,,,,,,,,,,,,,,,,,,,,,,,,,,,,,,,,,,,,,,,,,,,,,,,,,,,,,,,,,,,,,,,,,,,,,,,,,,,,
,,1,1.7854,1,1.7854,0,56,56,25,1,23,flower,microwave,,89735,001,2022-04-28_14h47.12.994,SPAMnetsValid,2021.1.4,Win32,59.9880024,,,,,,,,,,,,,,,,,,,,,,,,,,,,,,,,,,,,,,,,,,,,,,,,,,,,,,,,,,,,,,,,,,,,,,,,,,,,,,,,,,,,,,,,,
,,1,6.5759,1,6.5759,0,57,57,61,1,71,broom,rose,,89735,001,2022-04-28_14h47.12.994,SPAMnetsValid,2021.1.4,Win32,59.9880024,,,,,,,,,,,,,,,,,,,,,,,,,,,,,,,,,,,,,,,,,,,,,,,,,,,,,,,,,,,,,,,,,,,,,,,,,,,,,,,,,,,,,,,,,
,,1,1.7555,1,1.7555,0,58,58,73,1,50,carrot,rose,,89735,001,2022-04-28_14h47.12.994,SPAMnetsValid,2021.1.4,Win32,59.9880024,,,,,,,,,,,,,,,,,,,,,,,,,,,,,,,,,,,,,,,,,,,,,,,,,,,,,,,,,,,,,,,,,,,,,,,,,,,,,,,,,,,,,,,,,
,,7,1.9475,7,1.9475,0,59,59,22,1,16,chocolate,flower,,89735,001,2022-04-28_14h47.12.994,SPAMnetsValid,2021.1.4,Win32,59.9880024,,,,,,,,,,,,,,,,,,,,,,,,,,,,,,,,,,,,,,,,,,,,,,,,,,,,,,,,,,,,,,,,,,,,,,,,,,,,,,,,,,,,,,,,,
,,4,2.4479,4,2.4479,0,60,60,52,1,4,chocolate,pretzel,,89735,001,2022-04-28_14h47.12.994,SPAMnetsValid,2021.1.4,Win32,59.9880024,,,,,,,,,,,,,,,,,,,,,,,,,,,,,,,,,,,,,,,,,,,,,,,,,,,,,,,,,,,,,,,,,,,,,,,,,,,,,,,,,,,,,,,,,
,,3,1.8017,3,1.8017,0,61,61,90,1,95,broom,refrigerator,,89735,001,2022-04-28_14h47.12.994,SPAMnetsValid,2021.1.4,Win32,59.9880024,,,,,,,,,,,,,,,,,,,,,,,,,,,,,,,,,,,,,,,,,,,,,,,,,,,,,,,,,,,,,,,,,,,,,,,,,,,,,,,,,,,,,,,,,
,,1,2.2398,1,2.2398,0,62,62,49,1,57,flower,kitchen,,89735,001,2022-04-28_14h47.12.994,SPAMnetsValid,2021.1.4,Win32,59.9880024,,,,,,,,,,,,,,,,,,,,,,,,,,,,,,,,,,,,,,,,,,,,,,,,,,,,,,,,,,,,,,,,,,,,,,,,,,,,,,,,,,,,,,,,,
,,5,2.9041,5,2.9041,0,63,63,21,1,56,cactus,tree,,89735,001,2022-04-28_14h47.12.994,SPAMnetsValid,2021.1.4,Win32,59.9880024,,,,,,,,,,,,,,,,,,,,,,,,,,,,,,,,,,,,,,,,,,,,,,,,,,,,,,,,,,,,,,,,,,,,,,,,,,,,,,,,,,,,,,,,,
,,6,2.0151,6,2.0151,0,64,64,35,1,55,tomato,tree,,89735,001,2022-04-28_14h47.12.994,SPAMnetsValid,2021.1.4,Win32,59.9880024,,,,,,,,,,,,,,,,,,,,,,,,,,,,,,,,,,,,,,,,,,,,,,,,,,,,,,,,,,,,,,,,,,,,,,,,,,,,,,,,,,,,,,,,,
,,2,1.7195,2,1.7195,0,65,65,20,1,39,melon,pretzel,,89735,001,2022-04-28_14h47.12.994,SPAMnetsValid,2021.1.4,Win32,59.9880024,,,,,,,,,,,,,,,,,,,,,,,,,,,,,,,,,,,,,,,,,,,,,,,,,,,,,,,,,,,,,,,,,,,,,,,,,,,,,,,,,,,,,,,,,
,,1,1.8106,1,1.8106,0,66,66,4,1,83,broom,carrot,,89735,001,2022-04-28_14h47.12.994,SPAMnetsValid,2021.1.4,Win32,59.9880024,,,,,,,,,,,,,,,,,,,,,,,,,,,,,,,,,,,,,,,,,,,,,,,,,,,,,,,,,,,,,,,,,,,,,,,,,,,,,,,,,,,,,,,,,
,,1,2.0526,1,2.0526,0,67,67,46,1,41,broom,cactus,,89735,001,2022-04-28_14h47.12.994,SPAMnetsValid,2021.1.4,Win32,59.9880024,,,,,,,,,,,,,,,,,,,,,,,,,,,,,,,,,,,,,,,,,,,,,,,,,,,,,,,,,,,,,,,,,,,,,,,,,,,,,,,,,,,,,,,,,
,,6,1.6456,6,1.6456,0,68,68,91,1,2,kitchen,onion,,89735,001,2022-04-28_14h47.12.994,SPAMnetsValid,2021.1.4,Win32,59.9880024,,,,,,,,,,,,,,,,,,,,,,,,,,,,,,,,,,,,,,,,,,,,,,,,,,,,,,,,,,,,,,,,,,,,,,,,,,,,,,,,,,,,,,,,,
,,2,3.013,2,3.013,0,69,69,39,1,15,onion,oven,,89735,001,2022-04-28_14h47.12.994,SPAMnetsValid,2021.1.4,Win32,59.9880024,,,,,,,,,,,,,,,,,,,,,,,,,,,,,,,,,,,,,,,,,,,,,,,,,,,,,,,,,,,,,,,,,,,,,,,,,,,,,,,,,,,,,,,,,
,,7,6.2101,7,6.2101,0,70,70,58,1,94,kitchen,microwave,,89735,001,2022-04-28_14h47.12.994,SPAMnetsValid,2021.1.4,Win32,59.9880024,,,,,,,,,,,,,,,,,,,,,,,,,,,,,,,,,,,,,,,,,,,,,,,,,,,,,,,,,,,,,,,,,,,,,,,,,,,,,,,,,,,,,,,,,
,,1,12.1065,1,12.1065,0,71,71,47,1,73,broom,chocolate,,89735,001,2022-04-28_14h47.12.994,SPAMnetsValid,2021.1.4,Win32,59.9880024,,,,,,,,,,,,,,,,,,,,,,,,,,,,,,,,,,,,,,,,,,,,,,,,,,,,,,,,,,,,,,,,,,,,,,,,,,,,,,,,,,,,,,,,,
,,1,1.6243,1,1.6243,0,72,72,65,1,46,garden,yogurt,,89735,001,2022-04-28_14h47.12.994,SPAMnetsValid,2021.1.4,Win32,59.9880024,,,,,,,,,,,,,,,,,,,,,,,,,,,,,,,,,,,,,,,,,,,,,,,,,,,,,,,,,,,,,,,,,,,,,,,,,,,,,,,,,,,,,,,,,
,,1,1.0369,1,1.0369,0,73,73,16,1,14,broom,cookie,,89735,001,2022-04-28_14h47.12.994,SPAMnetsValid,2021.1.4,Win32,59.9880024,,,,,,,,,,,,,,,,,,,,,,,,,,,,,,,,,,,,,,,,,,,,,,,,,,,,,,,,,,,,,,,,,,,,,,,,,,,,,,,,,,,,,,,,,
,,1,1.1893,1,1.1893,0,74,74,12,1,67,flower,yogurt,,89735,001,2022-04-28_14h47.12.994,SPAMnetsValid,2021.1.4,Win32,59.9880024,,,,,,,,,,,,,,,,,,,,,,,,,,,,,,,,,,,,,,,,,,,,,,,,,,,,,,,,,,,,,,,,,,,,,,,,,,,,,,,,,,,,,,,,,
,,4,2.1979,4,2.1979,0,75,75,77,1,7,melon,tree,,89735,001,2022-04-28_14h47.12.994,SPAMnetsValid,2021.1.4,Win32,59.9880024,,,,,,,,,,,,,,,,,,,,,,,,,,,,,,,,,,,,,,,,,,,,,,,,,,,,,,,,,,,,,,,,,,,,,,,,,,,,,,,,,,,,,,,,,
,,1,1.3365,1,1.3365,0,76,76,7,1,34,melon,oven,,89735,001,2022-04-28_14h47.12.994,SPAMnetsValid,2021.1.4,Win32,59.9880024,,,,,,,,,,,,,,,,,,,,,,,,,,,,,,,,,,,,,,,,,,,,,,,,,,,,,,,,,,,,,,,,,,,,,,,,,,,,,,,,,,,,,,,,,
,,7,1.5685,7,1.5685,0,77,77,62,1,18,onion,refrigerator,,89735,001,2022-04-28_14h47.12.994,SPAMnetsValid,2021.1.4,Win32,59.9880024,,,,,,,,,,,,,,,,,,,,,,,,,,,,,,,,,,,,,,,,,,,,,,,,,,,,,,,,,,,,,,,,,,,,,,,,,,,,,,,,,,,,,,,,,
,,3,2.3973,3,2.3973,0,78,78,80,1,61,strawberry,tomato,,89735,001,2022-04-28_14h47.12.994,SPAMnetsValid,2021.1.4,Win32,59.9880024,,,,,,,,,,,,,,,,,,,,,,,,,,,,,,,,,,,,,,,,,,,,,,,,,,,,,,,,,,,,,,,,,,,,,,,,,,,,,,,,,,,,,,,,,
,,3,2.1924,3,2.1924,0,79,79,92,1,44,cookie,melon,,89735,001,2022-04-28_14h47.12.994,SPAMnetsValid,2021.1.4,Win32,59.9880024,,,,,,,,,,,,,,,,,,,,,,,,,,,,,,,,,,,,,,,,,,,,,,,,,,,,,,,,,,,,,,,,,,,,,,,,,,,,,,,,,,,,,,,,,
,,1,1.6755,1,1.6755,0,80,80,18,1,85,cake,tree,,89735,001,2022-04-28_14h47.12.994,SPAMnetsValid,2021.1.4,Win32,59.9880024,,,,,,,,,,,,,,,,,,,,,,,,,,,,,,,,,,,,,,,,,,,,,,,,,,,,,,,,,,,,,,,,,,,,,,,,,,,,,,,,,,,,,,,,,
,,1,1.5352,1,1.5352,0,81,81,1,1,31,cactus,pretzel,,89735,001,2022-04-28_14h47.12.994,SPAMnetsValid,2021.1.4,Win32,59.9880024,,,,,,,,,,,,,,,,,,,,,,,,,,,,,,,,,,,,,,,,,,,,,,,,,,,,,,,,,,,,,,,,,,,,,,,,,,,,,,,,,,,,,,,,,
,,2,2.5981,2,2.5981,0,82,82,28,1,84,oven,tomato,,89735,001,2022-04-28_14h47.12.994,SPAMnetsValid,2021.1.4,Win32,59.9880024,,,,,,,,,,,,,,,,,,,,,,,,,,,,,,,,,,,,,,,,,,,,,,,,,,,,,,,,,,,,,,,,,,,,,,,,,,,,,,,,,,,,,,,,,
,,1,1.6989,1,1.6989,0,83,83,0,1,53,garden,pretzel,,89735,001,2022-04-28_14h47.12.994,SPAMnetsValid,2021.1.4,Win32,59.9880024,,,,,,,,,,,,,,,,,,,,,,,,,,,,,,,,,,,,,,,,,,,,,,,,,,,,,,,,,,,,,,,,,,,,,,,,,,,,,,,,,,,,,,,,,
,,1,1.5856,1,1.5856,0,84,84,23,1,65,broom,garden,,89735,001,2022-04-28_14h47.12.994,SPAMnetsValid,2021.1.4,Win32,59.9880024,,,,,,,,,,,,,,,,,,,,,,,,,,,,,,,,,,,,,,,,,,,,,,,,,,,,,,,,,,,,,,,,,,,,,,,,,,,,,,,,,,,,,,,,,
,,1,1.807,1,1.807,0,85,85,74,1,70,chocolate,onion,,89735,001,2022-04-28_14h47.12.994,SPAMnetsValid,2021.1.4,Win32,59.9880024,,,,,,,,,,,,,,,,,,,,,,,,,,,,,,,,,,,,,,,,,,,,,,,,,,,,,,,,,,,,,,,,,,,,,,,,,,,,,,,,,,,,,,,,,
,,9,2.3173,9,2.3173,0,86,86,53,1,192,microwave,microwave,CHECK,89735,001,2022-04-28_14h47.12.994,SPAMnetsValid,2021.1.4,Win32,59.9880024,,,,,,,,,,,,,,,,,,,,,,,,,,,,,,,,,,,,,,,,,,,,,,,,,,,,,,,,,,,,,,,,,,,,,,,,,,,,,,,,,,,,,,,,,
,,1,1.8522,1,1.8522,0,87,87,14,1,64,chocolate,garden,,89735,001,2022-04-28_14h47.12.994,SPAMnetsValid,2021.1.4,Win32,59.9880024,,,,,,,,,,,,,,,,,,,,,,,,,,,,,,,,,,,,,,,,,,,,,,,,,,,,,,,,,,,,,,,,,,,,,,,,,,,,,,,,,,,,,,,,,
,,3,2.2685,3,2.2685,0,88,88,34,1,29,chocolate,melon,,89735,001,2022-04-28_14h47.12.994,SPAMnetsValid,2021.1.4,Win32,59.9880024,,,,,,,,,,,,,,,,,,,,,,,,,,,,,,,,,,,,,,,,,,,,,,,,,,,,,,,,,,,,,,,,,,,,,,,,,,,,,,,,,,,,,,,,,
,,3,1.38,3,1.38,0,89,89,50,1,81,pretzel,yogurt,,89735,001,2022-04-28_14h47.12.994,SPAMnetsValid,2021.1.4,Win32,59.9880024,,,,,,,,,,,,,,,,,,,,,,,,,,,,,,,,,,,,,,,,,,,,,,,,,,,,,,,,,,,,,,,,,,,,,,,,,,,,,,,,,,,,,,,,,
,,7,2.4405,7,2.4405,0,90,90,82,1,93,kitchen,oven,,89735,001,2022-04-28_14h47.12.994,SPAMnetsValid,2021.1.4,Win32,59.9880024,,,,,,,,,,,,,,,,,,,,,,,,,,,,,,,,,,,,,,,,,,,,,,,,,,,,,,,,,,,,,,,,,,,,,,,,,,,,,,,,,,,,,,,,,
,,1,3.9769,1,3.9769,0,91,91,79,1,86,oven,rose,,89735,001,2022-04-28_14h47.12.994,SPAMnetsValid,2021.1.4,Win32,59.9880024,,,,,,,,,,,,,,,,,,,,,,,,,,,,,,,,,,,,,,,,,,,,,,,,,,,,,,,,,,,,,,,,,,,,,,,,,,,,,,,,,,,,,,,,,
,,3,2.1067,3,2.1067,0,92,92,48,1,66,melon,yogurt,,89735,001,2022-04-28_14h47.12.994,SPAMnetsValid,2021.1.4,Win32,59.9880024,,,,,,,,,,,,,,,,,,,,,,,,,,,,,,,,,,,,,,,,,,,,,,,,,,,,,,,,,,,,,,,,,,,,,,,,,,,,,,,,,,,,,,,,,
,,1,3.3133,1,3.3133,0,93,93,88,1,92,broom,flower,,89735,001,2022-04-28_14h47.12.994,SPAMnetsValid,2021.1.4,Win32,59.9880024,,,,,,,,,,,,,,,,,,,,,,,,,,,,,,,,,,,,,,,,,,,,,,,,,,,,,,,,,,,,,,,,,,,,,,,,,,,,,,,,,,,,,,,,,
,,1,1.5373,1,1.5373,0,94,94,37,1,58,garden,oven,,89735,001,2022-04-28_14h47.12.994,SPAMnetsValid,2021.1.4,Win32,59.9880024,,,,,,,,,,,,,,,,,,,,,,,,,,,,,,,,,,,,,,,,,,,,,,,,,,,,,,,,,,,,,,,,,,,,,,,,,,,,,,,,,,,,,,,,,
,,1,2.0582,1,2.0582,0,95,95,45,1,10,flower,onion,,89735,001,2022-04-28_14h47.12.994,SPAMnetsValid,2021.1.4,Win32,59.9880024,,,,,,,,,,,,,,,,,,,,,,,,,,,,,,,,,,,,,,,,,,,,,,,,,,,,,,,,,,,,,,,,,,,,,,,,,,,,,,,,,,,,,,,,,
,,5,3.9254,5,3.9254,0,96,96,68,1,24,cookie,tomato,,89735,001,2022-04-28_14h47.12.994,SPAMnetsValid,2021.1.4,Win32,59.9880024,,,,,,,,,,,,,,,,,,,,,,,,,,,,,,,,,,,,,,,,,,,,,,,,,,,,,,,,,,,,,,,,,,,,,,,,,,,,,,,,,,,,,,,,,
,,,,,,,,,,,,,,,89735,001,2022-04-28_14h47.12.994,SPAMnetsValid,2021.1.4,Win32,59.9880024,0,0,0,0,1,,,,,,,,,,,,,,,,,,,,,,,,,,,,,,,,,,,,,,,,,,,,,,,,,,,,,,,,,,,,,,,,,,,,,,,,,,,,,,,,,,,,
,,,,,,,,,,,,,,,89735,001,2022-04-28_14h47.12.994,SPAMnetsValid,2021.1.4,Win32,59.9880024,,,,,,0,0,0,0,1,1,0,,,,,,,,,,,,,,,,,,,,,,,,,,,,,,,,,,,,,,,,,,,,,,,,,,,,,,,,,,,,,,,,,,,,,,,,,,,,,
,,,,5,2.4243,,,,,,183,cake,rose,,89735,001,2022-04-28_14h47.12.994,SPAMnetsValid,2021.1.4,Win32,59.9880024,,,,,,,,,,,,,5,2.4243,0,0,0,19,1,,,,,,,,,,,,,,,,,,,,,,,,,,,,,,,,,,,,,,,,,,,,,,,,,,,,,,,,,,,,,,,,,,,,,,
,,,,6,2.4806,,,,,,109,broom,strawberry,,89735,001,2022-04-28_14h47.12.994,SPAMnetsValid,2021.1.4,Win32,59.9880024,,,,,,,,,,,,,6,2.4806,0,1,1,4,1,,,,,,,,,,,,,,,,,,,,,,,,,,,,,,,,,,,,,,,,,,,,,,,,,,,,,,,,,,,,,,,,,,,,,,
,,,,3,2.2502,,,,,,127,cactus,chocolate,,89735,001,2022-04-28_14h47.12.994,SPAMnetsValid,2021.1.4,Win32,59.9880024,,,,,,,,,,,,,3,2.2502,0,2,2,57,1,,,,,,,,,,,,,,,,,,,,,,,,,,,,,,,,,,,,,,,,,,,,,,,,,,,,,,,,,,,,,,,,,,,,,,
,,,,4,2.1424,,,,,,188,flower,tree,,89735,001,2022-04-28_14h47.12.994,SPAMnetsValid,2021.1.4,Win32,59.9880024,,,,,,,,,,,,,4,2.1424,0,3,3,7,1,,,,,,,,,,,,,,,,,,,,,,,,,,,,,,,,,,,,,,,,,,,,,,,,,,,,,,,,,,,,,,,,,,,,,,
,,,,7,5.1627,,,,,,107,rose,tomato,,89735,001,2022-04-28_14h47.12.994,SPAMnetsValid,2021.1.4,Win32,59.9880024,,,,,,,,,,,,,7,5.1627,0,4,4,26,1,,,,,,,,,,,,,,,,,,,,,,,,,,,,,,,,,,,,,,,,,,,,,,,,,,,,,,,,,,,,,,,,,,,,,,
,,,,7,0.0943,,,,,,160,cookie,kitchen,,89735,001,2022-04-28_14h47.12.994,SPAMnetsValid,2021.1.4,Win32,59.9880024,,,,,,,,,,,,,7,0.0943,0,5,5,65,1,,,,,,,,,,,,,,,,,,,,,,,,,,,,,,,,,,,,,,,,,,,,,,,,,,,,,,,,,,,,,,,,,,,,,,
,,,,4,1.6267,,,,,,124,oven,refrigerator,,89735,001,2022-04-28_14h47.12.994,SPAMnetsValid,2021.1.4,Win32,59.9880024,,,,,,,,,,,,,4,1.6267,0,6,6,69,1,,,,,,,,,,,,,,,,,,,,,,,,,,,,,,,,,,,,,,,,,,,,,,,,,,,,,,,,,,,,,,,,,,,,,,
,,,,3,1.2823,,,,,,150,microwave,refrigerator,,89735,001,2022-04-28_14h47.12.994,SPAMnetsValid,2021.1.4,Win32,59.9880024,,,,,,,,,,,,,3,1.2823,0,7,7,66,1,,,,,,,,,,,,,,,,,,,,,,,,,,,,,,,,,,,,,,,,,,,,,,,,,,,,,,,,,,,,,,,,,,,,,,
,,,,2,1.9636,,,,,,174,cake,pretzel,,89735,001,2022-04-28_14h47.12.994,SPAMnetsValid,2021.1.4,Win32,59.9880024,,,,,,,,,,,,,2,1.9636,0,8,8,2,1,,,,,,,,,,,,,,,,,,,,,,,,,,,,,,,,,,,,,,,,,,,,,,,,,,,,,,,,,,,,,,,,,,,,,,
,,,,6,2.6005,,,,,,181,carrot,kitchen,,89735,001,2022-04-28_14h47.12.994,SPAMnetsValid,2021.1.4,Win32,59.9880024,,,,,,,,,,,,,6,2.6005,0,9,9,72,1,,,,,,,,,,,,,,,,,,,,,,,,,,,,,,,,,,,,,,,,,,,,,,,,,,,,,,,,,,,,,,,,,,,,,,
,,,,6,1.7292,,,,,,138,flower,rose,,89735,001,2022-04-28_14h47.12.994,SPAMnetsValid,2021.1.4,Win32,59.9880024,,,,,,,,,,,,,6,1.7292,0,10,10,61,1,,,,,,,,,,,,,,,,,,,,,,,,,,,,,,,,,,,,,,,,,,,,,,,,,,,,,,,,,,,,,,,,,,,,,,
,,,,6,0.9723,,,,,,168,cactus,flower,,89735,001,2022-04-28_14h47.12.994,SPAMnetsValid,2021.1.4,Win32,59.9880024,,,,,,,,,,,,,6,0.9723,0,11,11,51,1,,,,,,,,,,,,,,,,,,,,,,,,,,,,,,,,,,,,,,,,,,,,,,,,,,,,,,,,,,,,,,,,,,,,,,
,,,,6,1.6479,,,,,,156,melon,rose,,89735,001,2022-04-28_14h47.12.994,SPAMnetsValid,2021.1.4,Win32,59.9880024,,,,,,,,,,,,,6,1.6479,0,12,12,31,1,,,,,,,,,,,,,,,,,,,,,,,,,,,,,,,,,,,,,,,,,,,,,,,,,,,,,,,,,,,,,,,,,,,,,,
,,,,6,0.8967,,,,,,105,cactus,oven,,89735,001,2022-04-28_14h47.12.994,SPAMnetsValid,2021.1.4,Win32,59.9880024,,,,,,,,,,,,,6,0.8967,0,13,13,13,1,,,,,,,,,,,,,,,,,,,,,,,,,,,,,,,,,,,,,,,,,,,,,,,,,,,,,,,,,,,,,,,,,,,,,,
,,,,6,2.7181,,,,,,145,cactus,yogurt,,89735,001,2022-04-28_14h47.12.994,SPAMnetsValid,2021.1.4,Win32,59.9880024,,,,,,,,,,,,,6,2.7181,0,14,14,15,1,,,,,,,,,,,,,,,,,,,,,,,,,,,,,,,,,,,,,,,,,,,,,,,,,,,,,,,,,,,,,,,,,,,,,,
,,,,6,1.0508,,,,,,163,melon,refrigerator,,89735,001,2022-04-28_14h47.12.994,SPAMnetsValid,2021.1.4,Win32,59.9880024,,,,,,,,,,,,,6,1.0508,0,15,15,29,1,,,,,,,,,,,,,,,,,,,,,,,,,,,,,,,,,,,,,,,,,,,,,,,,,,,,,,,,,,,,,,,,,,,,,,
,,,,6,1.0022,,,,,,110,chocolate,cookie,,89735,001,2022-04-28_14h47.12.994,SPAMnetsValid,2021.1.4,Win32,59.9880024,,,,,,,,,,,,,6,1.0022,0,16,16,52,1,,,,,,,,,,,,,,,,,,,,,,,,,,,,,,,,,,,,,,,,,,,,,,,,,,,,,,,,,,,,,,,,,,,,,,
,,,,6,1.3826,,,,,,125,carrot,tree,,89735,001,2022-04-28_14h47.12.994,SPAMnetsValid,2021.1.4,Win32,59.9880024,,,,,,,,,,,,,6,1.3826,0,17,17,30,1,,,,,,,,,,,,,,,,,,,,,,,,,,,,,,,,,,,,,,,,,,,,,,,,,,,,,,,,,,,,,,,,,,,,,,
,,,,6,1.1865,,,,,,128,melon,microwave,,89735,001,2022-04-28_14h47.12.994,SPAMnetsValid,2021.1.4,Win32,59.9880024,,,,,,,,,,,,,6,1.1865,0,18,18,74,1,,,,,,,,,,,,,,,,,,,,,,,,,,,,,,,,,,,,,,,,,,,,,,,,,,,,,,,,,,,,,,,,,,,,,,
,,,,6,1.2074,,,,,,194,cactus,cactus,CHECK,89735,001,2022-04-28_14h47.12.994,SPAMnetsValid,2021.1.4,Win32,59.9880024,,,,,,,,,,,,,6,1.2074,0,19,19,25,1,,,,,,,,,,,,,,,,,,,,,,,,,,,,,,,,,,,,,,,,,,,,,,,,,,,,,,,,,,,,,,,,,,,,,,
,,,,6,1.002,,,,,,113,refrigerator,strawberry,,89735,001,2022-04-28_14h47.12.994,SPAMnetsValid,2021.1.4,Win32,59.9880024,,,,,,,,,,,,,6,1.002,0,20,20,56,1,,,,,,,,,,,,,,,,,,,,,,,,,,,,,,,,,,,,,,,,,,,,,,,,,,,,,,,,,,,,,,,,,,,,,,
,,,,6,0.9696,,,,,,158,cookie,oven,,89735,001,2022-04-28_14h47.12.994,SPAMnetsValid,2021.1.4,Win32,59.9880024,,,,,,,,,,,,,6,0.9696,0,21,21,27,1,,,,,,,,,,,,,,,,,,,,,,,,,,,,,,,,,,,,,,,,,,,,,,,,,,,,,,,,,,,,,,,,,,,,,,
,,,,6,1.2553,,,,,,140,cookie,refrigerator,,89735,001,2022-04-28_14h47.12.994,SPAMnetsValid,2021.1.4,Win32,59.9880024,,,,,,,,,,,,,6,1.2553,0,22,22,89,1,,,,,,,,,,,,,,,,,,,,,,,,,,,,,,,,,,,,,,,,,,,,,,,,,,,,,,,,,,,,,,,,,,,,,,
,,,,6,1.1811,,,,,,167,carrot,garden,,89735,001,2022-04-28_14h47.12.994,SPAMnetsValid,2021.1.4,Win32,59.9880024,,,,,,,,,,,,,6,1.1811,0,23,23,47,1,,,,,,,,,,,,,,,,,,,,,,,,,,,,,,,,,,,,,,,,,,,,,,,,,,,,,,,,,,,,,,,,,,,,,,
,,,,6,1.0441,,,,,,176,cactus,tomato,,89735,001,2022-04-28_14h47.12.994,SPAMnetsValid,2021.1.4,Win32,59.9880024,,,,,,,,,,,,,6,1.0441,0,24,24,9,1,,,,,,,,,,,,,,,,,,,,,,,,,,,,,,,,,,,,,,,,,,,,,,,,,,,,,,,,,,,,,,,,,,,,,,
,,,,6,0.8816,,,,,,119,strawberry,tree,,89735,001,2022-04-28_14h47.12.994,SPAMnetsValid,2021.1.4,Win32,59.9880024,,,,,,,,,,,,,6,0.8816,0,25,25,18,1,,,,,,,,,,,,,,,,,,,,,,,,,,,,,,,,,,,,,,,,,,,,,,,,,,,,,,,,,,,,,,,,,,,,,,
,,,,6,0.9115,,,,,,120,microwave,oven,,89735,001,2022-04-28_14h47.12.994,SPAMnetsValid,2021.1.4,Win32,59.9880024,,,,,,,,,,,,,6,0.9115,0,26,26,14,1,,,,,,,,,,,,,,,,,,,,,,,,,,,,,,,,,,,,,,,,,,,,,,,,,,,,,,,,,,,,,,,,,,,,,,
,,,,6,1.1319,,,,,,172,kitchen,melon,,89735,001,2022-04-28_14h47.12.994,SPAMnetsValid,2021.1.4,Win32,59.9880024,,,,,,,,,,,,,6,1.1319,0,27,27,77,1,,,,,,,,,,,,,,,,,,,,,,,,,,,,,,,,,,,,,,,,,,,,,,,,,,,,,,,,,,,,,,,,,,,,,,
,,,,6,1.7105,,,,,,112,cake,carrot,,89735,001,2022-04-28_14h47.12.994,SPAMnetsValid,2021.1.4,Win32,59.9880024,,,,,,,,,,,,,6,1.7105,0,28,28,39,1,,,,,,,,,,,,,,,,,,,,,,,,,,,,,,,,,,,,,,,,,,,,,,,,,,,,,,,,,,,,,,,,,,,,,,
,,,,6,2.2309,,,,,,116,cake,chocolate,,89735,001,2022-04-28_14h47.12.994,SPAMnetsValid,2021.1.4,Win32,59.9880024,,,,,,,,,,,,,6,2.2309,0,29,29,44,1,,,,,,,,,,,,,,,,,,,,,,,,,,,,,,,,,,,,,,,,,,,,,,,,,,,,,,,,,,,,,,,,,,,,,,
,,,,6,1.1942,,,,,,142,garden,tree,,89735,001,2022-04-28_14h47.12.994,SPAMnetsValid,2021.1.4,Win32,59.9880024,,,,,,,,,,,,,6,1.1942,0,30,30,22,1,,,,,,,,,,,,,,,,,,,,,,,,,,,,,,,,,,,,,,,,,,,,,,,,,,,,,,,,,,,,,,,,,,,,,,
,,,,6,1.2276,,,,,,132,broom,tree,,89735,001,2022-04-28_14h47.12.994,SPAMnetsValid,2021.1.4,Win32,59.9880024,,,,,,,,,,,,,6,1.2276,0,31,31,78,1,,,,,,,,,,,,,,,,,,,,,,,,,,,,,,,,,,,,,,,,,,,,,,,,,,,,,,,,,,,,,,,,,,,,,,
,,,,6,1.1485,,,,,,152,cactus,strawberry,,89735,001,2022-04-28_14h47.12.994,SPAMnetsValid,2021.1.4,Win32,59.9880024,,,,,,,,,,,,,6,1.1485,0,32,32,49,1,,,,,,,,,,,,,,,,,,,,,,,,,,,,,,,,,,,,,,,,,,,,,,,,,,,,,,,,,,,,,,,,,,,,,,
,,,,6,0.9539,,,,,,121,broom,microwave,,89735,001,2022-04-28_14h47.12.994,SPAMnetsValid,2021.1.4,Win32,59.9880024,,,,,,,,,,,,,6,0.9539,0,33,33,95,1,,,,,,,,,,,,,,,,,,,,,,,,,,,,,,,,,,,,,,,,,,,,,,,,,,,,,,,,,,,,,,,,,,,,,,
,,,,6,1.0127,,,,,,180,tree,yogurt,,89735,001,2022-04-28_14h47.12.994,SPAMnetsValid,2021.1.4,Win32,59.9880024,,,,,,,,,,,,,6,1.0127,0,34,34,68,1,,,,,,,,,,,,,,,,,,,,,,,,,,,,,,,,,,,,,,,,,,,,,,,,,,,,,,,,,,,,,,,,,,,,,,
,,,,6,1.4957,,,,,,161,kitchen,pretzel,,89735,001,2022-04-28_14h47.12.994,SPAMnetsValid,2021.1.4,Win32,59.9880024,,,,,,,,,,,,,6,1.4957,0,35,35,36,1,,,,,,,,,,,,,,,,,,,,,,,,,,,,,,,,,,,,,,,,,,,,,,,,,,,,,,,,,,,,,,,,,,,,,,
,,,,6,1.125,,,,,,146,pretzel,tree,,89735,001,2022-04-28_14h47.12.994,SPAMnetsValid,2021.1.4,Win32,59.9880024,,,,,,,,,,,,,6,1.125,0,36,36,80,1,,,,,,,,,,,,,,,,,,,,,,,,,,,,,,,,,,,,,,,,,,,,,,,,,,,,,,,,,,,,,,,,,,,,,,
,,,,6,1.6629,,,,,,96,oven,strawberry,,89735,001,2022-04-28_14h47.12.994,SPAMnetsValid,2021.1.4,Win32,59.9880024,,,,,,,,,,,,,6,1.6629,0,37,37,67,1,,,,,,,,,,,,,,,,,,,,,,,,,,,,,,,,,,,,,,,,,,,,,,,,,,,,,,,,,,,,,,,,,,,,,,
,,,,6,1.2615,,,,,,182,flower,refrigerator,,89735,001,2022-04-28_14h47.12.994,SPAMnetsValid,2021.1.4,Win32,59.9880024,,,,,,,,,,,,,6,1.2615,0,38,38,32,1,,,,,,,,,,,,,,,,,,,,,,,,,,,,,,,,,,,,,,,,,,,,,,,,,,,,,,,,,,,,,,,,,,,,,,
,,,,6,1.084,,,,,,99,garden,melon,,89735,001,2022-04-28_14h47.12.994,SPAMnetsValid,2021.1.4,Win32,59.9880024,,,,,,,,,,,,,6,1.084,0,39,39,17,1,,,,,,,,,,,,,,,,,,,,,,,,,,,,,,,,,,,,,,,,,,,,,,,,,,,,,,,,,,,,,,,,,,,,,,
,,,,6,1.1136,,,,,,126,kitchen,tree,,89735,001,2022-04-28_14h47.12.994,SPAMnetsValid,2021.1.4,Win32,59.9880024,,,,,,,,,,,,,6,1.1136,0,40,40,50,1,,,,,,,,,,,,,,,,,,,,,,,,,,,,,,,,,,,,,,,,,,,,,,,,,,,,,,,,,,,,,,,,,,,,,,
,,,,6,1.0781,,,,,,193,melon,melon,CHECK,89735,001,2022-04-28_14h47.12.994,SPAMnetsValid,2021.1.4,Win32,59.9880024,,,,,,,,,,,,,6,1.0781,0,41,41,86,1,,,,,,,,,,,,,,,,,,,,,,,,,,,,,,,,,,,,,,,,,,,,,,,,,,,,,,,,,,,,,,,,,,,,,,
,,,,6,0.9104,,,,,,190,microwave,strawberry,,89735,001,2022-04-28_14h47.12.994,SPAMnetsValid,2021.1.4,Win32,59.9880024,,,,,,,,,,,,,6,0.9104,0,42,42,90,1,,,,,,,,,,,,,,,,,,,,,,,,,,,,,,,,,,,,,,,,,,,,,,,,,,,,,,,,,,,,,,,,,,,,,,
,,,,6,1.3568,,,,,,189,onion,tree,,89735,001,2022-04-28_14h47.12.994,SPAMnetsValid,2021.1.4,Win32,59.9880024,,,,,,,,,,,,,6,1.3568,0,43,43,62,1,,,,,,,,,,,,,,,,,,,,,,,,,,,,,,,,,,,,,,,,,,,,,,,,,,,,,,,,,,,,,,,,,,,,,,
,,,,6,0.9523,,,,,,178,cactus,carrot,,89735,001,2022-04-28_14h47.12.994,SPAMnetsValid,2021.1.4,Win32,59.9880024,,,,,,,,,,,,,6,0.9523,0,44,44,75,1,,,,,,,,,,,,,,,,,,,,,,,,,,,,,,,,,,,,,,,,,,,,,,,,,,,,,,,,,,,,,,,,,,,,,,
,,,,6,0.9866,,,,,,153,carrot,pretzel,,89735,001,2022-04-28_14h47.12.994,SPAMnetsValid,2021.1.4,Win32,59.9880024,,,,,,,,,,,,,6,0.9866,0,45,45,34,1,,,,,,,,,,,,,,,,,,,,,,,,,,,,,,,,,,,,,,,,,,,,,,,,,,,,,,,,,,,,,,,,,,,,,,
,,,,6,0.9367,,,,,,137,microwave,tree,,89735,001,2022-04-28_14h47.12.994,SPAMnetsValid,2021.1.4,Win32,59.9880024,,,,,,,,,,,,,6,0.9367,0,46,46,63,1,,,,,,,,,,,,,,,,,,,,,,,,,,,,,,,,,,,,,,,,,,,,,,,,,,,,,,,,,,,,,,,,,,,,,,
,,,,6,0.9691,,,,,,115,refrigerator,tomato,,89735,001,2022-04-28_14h47.12.994,SPAMnetsValid,2021.1.4,Win32,59.9880024,,,,,,,,,,,,,6,0.9691,0,47,47,85,1,,,,,,,,,,,,,,,,,,,,,,,,,,,,,,,,,,,,,,,,,,,,,,,,,,,,,,,,,,,,,,,,,,,,,,
,,,,6,0.9861,,,,,,169,onion,yogurt,,89735,001,2022-04-28_14h47.12.994,SPAMnetsValid,2021.1.4,Win32,59.9880024,,,,,,,,,,,,,6,0.9861,0,48,48,24,1,,,,,,,,,,,,,,,,,,,,,,,,,,,,,,,,,,,,,,,,,,,,,,,,,,,,,,,,,,,,,,,,,,,,,,
,,,,6,1.1397,,,,,,111,carrot,microwave,,89735,001,2022-04-28_14h47.12.994,SPAMnetsValid,2021.1.4,Win32,59.9880024,,,,,,,,,,,,,6,1.1397,0,49,49,16,1,,,,,,,,,,,,,,,,,,,,,,,,,,,,,,,,,,,,,,,,,,,,,,,,,,,,,,,,,,,,,,,,,,,,,,
,,,,6,0.9671,,,,,,131,cactus,garden,,89735,001,2022-04-28_14h47.12.994,SPAMnetsValid,2021.1.4,Win32,59.9880024,,,,,,,,,,,,,6,0.9671,0,50,50,33,1,,,,,,,,,,,,,,,,,,,,,,,,,,,,,,,,,,,,,,,,,,,,,,,,,,,,,,,,,,,,,,,,,,,,,,
,,,,6,0.9662,,,,,,103,pretzel,tomato,,89735,001,2022-04-28_14h47.12.994,SPAMnetsValid,2021.1.4,Win32,59.9880024,,,,,,,,,,,,,6,0.9662,0,51,51,79,1,,,,,,,,,,,,,,,,,,,,,,,,,,,,,,,,,,,,,,,,,,,,,,,,,,,,,,,,,,,,,,,,,,,,,,
,,,,6,0.9684,,,,,,173,kitchen,tomato,,89735,001,2022-04-28_14h47.12.994,SPAMnetsValid,2021.1.4,Win32,59.9880024,,,,,,,,,,,,,6,0.9684,0,52,52,1,1,,,,,,,,,,,,,,,,,,,,,,,,,,,,,,,,,,,,,,,,,,,,,,,,,,,,,,,,,,,,,,,,,,,,,,
,,,,6,0.9877,,,,,,184,oven,pretzel,,89735,001,2022-04-28_14h47.12.994,SPAMnetsValid,2021.1.4,Win32,59.9880024,,,,,,,,,,,,,6,0.9877,0,53,53,42,1,,,,,,,,,,,,,,,,,,,,,,,,,,,,,,,,,,,,,,,,,,,,,,,,,,,,,,,,,,,,,,,,,,,,,,
,,,,6,0.9536,,,,,,104,garden,microwave,,89735,001,2022-04-28_14h47.12.994,SPAMnetsValid,2021.1.4,Win32,59.9880024,,,,,,,,,,,,,6,0.9536,0,54,54,81,1,,,,,,,,,,,,,,,,,,,,,,,,,,,,,,,,,,,,,,,,,,,,,,,,,,,,,,,,,,,,,,,,,,,,,,
,,,,6,1.0855,,,,,,179,broom,oven,,89735,001,2022-04-28_14h47.12.994,SPAMnetsValid,2021.1.4,Win32,59.9880024,,,,,,,,,,,,,6,1.0855,0,55,55,45,1,,,,,,,,,,,,,,,,,,,,,,,,,,,,,,,,,,,,,,,,,,,,,,,,,,,,,,,,,,,,,,,,,,,,,,
,,,,6,1.1414,,,,,,166,cake,yogurt,,89735,001,2022-04-28_14h47.12.994,SPAMnetsValid,2021.1.4,Win32,59.9880024,,,,,,,,,,,,,6,1.1414,0,56,56,91,1,,,,,,,,,,,,,,,,,,,,,,,,,,,,,,,,,,,,,,,,,,,,,,,,,,,,,,,,,,,,,,,,,,,,,,
,,,,6,1.1512,,,,,,157,refrigerator,rose,,89735,001,2022-04-28_14h47.12.994,SPAMnetsValid,2021.1.4,Win32,59.9880024,,,,,,,,,,,,,6,1.1512,0,57,57,64,1,,,,,,,,,,,,,,,,,,,,,,,,,,,,,,,,,,,,,,,,,,,,,,,,,,,,,,,,,,,,,,,,,,,,,,
,,,,6,1.1044,,,,,,177,chocolate,strawberry,,89735,001,2022-04-28_14h47.12.994,SPAMnetsValid,2021.1.4,Win32,59.9880024,,,,,,,,,,,,,6,1.1044,0,58,58,53,1,,,,,,,,,,,,,,,,,,,,,,,,,,,,,,,,,,,,,,,,,,,,,,,,,,,,,,,,,,,,,,,,,,,,,,
,,,,6,1.1703,,,,,,117,melon,strawberry,,89735,001,2022-04-28_14h47.12.994,SPAMnetsValid,2021.1.4,Win32,59.9880024,,,,,,,,,,,,,6,1.1703,0,59,59,11,1,,,,,,,,,,,,,,,,,,,,,,,,,,,,,,,,,,,,,,,,,,,,,,,,,,,,,,,,,,,,,,,,,,,,,,
,,,,6,1.1695,,,,,,97,chocolate,kitchen,,89735,001,2022-04-28_14h47.12.994,SPAMnetsValid,2021.1.4,Win32,59.9880024,,,,,,,,,,,,,6,1.1695,0,60,60,8,1,,,,,,,,,,,,,,,,,,,,,,,,,,,,,,,,,,,,,,,,,,,,,,,,,,,,,,,,,,,,,,,,,,,,,,
,,,,6,1.1383,,,,,,114,cookie,strawberry,,89735,001,2022-04-28_14h47.12.994,SPAMnetsValid,2021.1.4,Win32,59.9880024,,,,,,,,,,,,,6,1.1383,0,61,61,87,1,,,,,,,,,,,,,,,,,,,,,,,,,,,,,,,,,,,,,,,,,,,,,,,,,,,,,,,,,,,,,,,,,,,,,,
,,,,6,1.1503,,,,,,155,carrot,cookie,,89735,001,2022-04-28_14h47.12.994,SPAMnetsValid,2021.1.4,Win32,59.9880024,,,,,,,,,,,,,6,1.1503,0,62,62,38,1,,,,,,,,,,,,,,,,,,,,,,,,,,,,,,,,,,,,,,,,,,,,,,,,,,,,,,,,,,,,,,,,,,,,,,
,,,,6,0.986,,,,,,151,microwave,onion,,89735,001,2022-04-28_14h47.12.994,SPAMnetsValid,2021.1.4,Win32,59.9880024,,,,,,,,,,,,,6,0.986,0,63,63,6,1,,,,,,,,,,,,,,,,,,,,,,,,,,,,,,,,,,,,,,,,,,,,,,,,,,,,,,,,,,,,,,,,,,,,,,
,,,,6,0.9864,,,,,,175,melon,onion,,89735,001,2022-04-28_14h47.12.994,SPAMnetsValid,2021.1.4,Win32,59.9880024,,,,,,,,,,,,,6,0.9864,0,64,64,41,1,,,,,,,,,,,,,,,,,,,,,,,,,,,,,,,,,,,,,,,,,,,,,,,,,,,,,,,,,,,,,,,,,,,,,,
,,,,6,0.9876,,,,,,123,cookie,tree,,89735,001,2022-04-28_14h47.12.994,SPAMnetsValid,2021.1.4,Win32,59.9880024,,,,,,,,,,,,,6,0.9876,0,65,65,46,1,,,,,,,,,,,,,,,,,,,,,,,,,,,,,,,,,,,,,,,,,,,,,,,,,,,,,,,,,,,,,,,,,,,,,,
,,,,6,1.1197,,,,,,141,melon,tomato,,89735,001,2022-04-28_14h47.12.994,SPAMnetsValid,2021.1.4,Win32,59.9880024,,,,,,,,,,,,,6,1.1197,0,66,66,70,1,,,,,,,,,,,,,,,,,,,,,,,,,,,,,,,,,,,,,,,,,,,,,,,,,,,,,,,,,,,,,,,,,,,,,,
,,,,6,1.0021,,,,,,100,garden,tomato,,89735,001,2022-04-28_14h47.12.994,SPAMnetsValid,2021.1.4,Win32,59.9880024,,,,,,,,,,,,,6,1.0021,0,67,67,83,1,,,,,,,,,,,,,,,,,,,,,,,,,,,,,,,,,,,,,,,,,,,,,,,,,,,,,,,,,,,,,,,,,,,,,,
,,,,6,1.0059,,,,,,133,cake,flower,,89735,001,2022-04-28_14h47.12.994,SPAMnetsValid,2021.1.4,Win32,59.9880024,,,,,,,,,,,,,6,1.0059,0,68,68,94,1,,,,,,,,,,,,,,,,,,,,,,,,,,,,,,,,,,,,,,,,,,,,,,,,,,,,,,,,,,,,,,,,,,,,,,
,,,,6,1.1257,,,,,,118,chocolate,oven,,89735,001,2022-04-28_14h47.12.994,SPAMnetsValid,2021.1.4,Win32,59.9880024,,,,,,,,,,,,,6,1.1257,0,69,69,10,1,,,,,,,,,,,,,,,,,,,,,,,,,,,,,,,,,,,,,,,,,,,,,,,,,,,,,,,,,,,,,,,,,,,,,,
,,,,6,1.1667,,,,,,143,pretzel,rose,,89735,001,2022-04-28_14h47.12.994,SPAMnetsValid,2021.1.4,Win32,59.9880024,,,,,,,,,,,,,6,1.1667,0,70,70,55,1,,,,,,,,,,,,,,,,,,,,,,,,,,,,,,,,,,,,,,,,,,,,,,,,,,,,,,,,,,,,,,,,,,,,,,
,,,,6,0.9685,,,,,,185,cactus,rose,,89735,001,2022-04-28_14h47.12.994,SPAMnetsValid,2021.1.4,Win32,59.9880024,,,,,,,,,,,,,6,0.9685,0,71,71,43,1,,,,,,,,,,,,,,,,,,,,,,,,,,,,,,,,,,,,,,,,,,,,,,,,,,,,,,,,,,,,,,,,,,,,,,
,,,,6,0.9829,,,,,,144,cake,garden,,89735,001,2022-04-28_14h47.12.994,SPAMnetsValid,2021.1.4,Win32,59.9880024,,,,,,,,,,,,,6,0.9829,0,72,72,58,1,,,,,,,,,,,,,,,,,,,,,,,,,,,,,,,,,,,,,,,,,,,,,,,,,,,,,,,,,,,,,,,,,,,,,,
,,,,6,1.1361,,,,,,98,pretzel,strawberry,,89735,001,2022-04-28_14h47.12.994,SPAMnetsValid,2021.1.4,Win32,59.9880024,,,,,,,,,,,,,6,1.1361,0,73,73,82,1,,,,,,,,,,,,,,,,,,,,,,,,,,,,,,,,,,,,,,,,,,,,,,,,,,,,,,,,,,,,,,,,,,,,,,
,,,,6,0.9711,,,,,,134,carrot,flower,,89735,001,2022-04-28_14h47.12.994,SPAMnetsValid,2021.1.4,Win32,59.9880024,,,,,,,,,,,,,6,0.9711,0,74,74,93,1,,,,,,,,,,,,,,,,,,,,,,,,,,,,,,,,,,,,,,,,,,,,,,,,,,,,,,,,,,,,,,,,,,,,,,
,,,,6,1.0163,,,,,,108,carrot,chocolate,,89735,001,2022-04-28_14h47.12.994,SPAMnetsValid,2021.1.4,Win32,59.9880024,,,,,,,,,,,,,6,1.0163,0,75,75,5,1,,,,,,,,,,,,,,,,,,,,,,,,,,,,,,,,,,,,,,,,,,,,,,,,,,,,,,,,,,,,,,,,,,,,,,
,,,,6,1.0103,,,,,,101,cactus,kitchen,,89735,001,2022-04-28_14h47.12.994,SPAMnetsValid,2021.1.4,Win32,59.9880024,,,,,,,,,,,,,6,1.0103,0,76,76,54,1,,,,,,,,,,,,,,,,,,,,,,,,,,,,,,,,,,,,,,,,,,,,,,,,,,,,,,,,,,,,,,,,,,,,,,
,,,,6,0.9955,,,,,,187,cactus,microwave,,89735,001,2022-04-28_14h47.12.994,SPAMnetsValid,2021.1.4,Win32,59.9880024,,,,,,,,,,,,,6,0.9955,0,77,77,71,1,,,,,,,,,,,,,,,,,,,,,,,,,,,,,,,,,,,,,,,,,,,,,,,,,,,,,,,,,,,,,,,,,,,,,,
,,,,6,0.9688,,,,,,165,onion,rose,,89735,001,2022-04-28_14h47.12.994,SPAMnetsValid,2021.1.4,Win32,59.9880024,,,,,,,,,,,,,6,0.9688,0,78,78,40,1,,,,,,,,,,,,,,,,,,,,,,,,,,,,,,,,,,,,,,,,,,,,,,,,,,,,,,,,,,,,,,,,,,,,,,
,,,,6,0.9867,,,,,,154,strawberry,yogurt,,89735,001,2022-04-28_14h47.12.994,SPAMnetsValid,2021.1.4,Win32,59.9880024,,,,,,,,,,,,,6,0.9867,0,79,79,28,1,,,,,,,,,,,,,,,,,,,,,,,,,,,,,,,,,,,,,,,,,,,,,,,,,,,,,,,,,,,,,,,,,,,,,,
,,,,6,1.0268,,,,,,170,cookie,microwave,,89735,001,2022-04-28_14h47.12.994,SPAMnetsValid,2021.1.4,Win32,59.9880024,,,,,,,,,,,,,6,1.0268,0,80,80,92,1,,,,,,,,,,,,,,,,,,,,,,,,,,,,,,,,,,,,,,,,,,,,,,,,,,,,,,,,,,,,,,,,,,,,,,
,,,,6,1.0361,,,,,,171,cake,tomato,,89735,001,2022-04-28_14h47.12.994,SPAMnetsValid,2021.1.4,Win32,59.9880024,,,,,,,,,,,,,6,1.0361,0,81,81,88,1,,,,,,,,,,,,,,,,,,,,,,,,,,,,,,,,,,,,,,,,,,,,,,,,,,,,,,,,,,,,,,,,,,,,,,
,,,,6,1.5218,,,,,,136,chocolate,microwave,,89735,001,2022-04-28_14h47.12.994,SPAMnetsValid,2021.1.4,Win32,59.9880024,,,,,,,,,,,,,6,1.5218,0,82,82,96,1,,,,,,,,,,,,,,,,,,,,,,,,,,,,,,,,,,,,,,,,,,,,,,,,,,,,,,,,,,,,,,,,,,,,,,
,,,,6,1.735,,,,,,186,kitchen,yogurt,,89735,001,2022-04-28_14h47.12.994,SPAMnetsValid,2021.1.4,Win32,59.9880024,,,,,,,,,,,,,6,1.735,0,83,83,48,1,,,,,,,,,,,,,,,,,,,,,,,,,,,,,,,,,,,,,,,,,,,,,,,,,,,,,,,,,,,,,,,,,,,,,,
,,,,6,1.0492,,,,,,164,cookie,garden,,89735,001,2022-04-28_14h47.12.994,SPAMnetsValid,2021.1.4,Win32,59.9880024,,,,,,,,,,,,,6,1.0492,0,84,84,59,1,,,,,,,,,,,,,,,,,,,,,,,,,,,,,,,,,,,,,,,,,,,,,,,,,,,,,,,,,,,,,,,,,,,,,,
,,,,6,0.9874,,,,,,139,carrot,strawberry,,89735,001,2022-04-28_14h47.12.994,SPAMnetsValid,2021.1.4,Win32,59.9880024,,,,,,,,,,,,,6,0.9874,0,85,85,37,1,,,,,,,,,,,,,,,,,,,,,,,,,,,,,,,,,,,,,,,,,,,,,,,,,,,,,,,,,,,,,,,,,,,,,,
,,,,6,0.9772,,,,,,159,cookie,flower,,89735,001,2022-04-28_14h47.12.994,SPAMnetsValid,2021.1.4,Win32,59.9880024,,,,,,,,,,,,,6,0.9772,0,86,86,21,1,,,,,,,,,,,,,,,,,,,,,,,,,,,,,,,,,,,,,,,,,,,,,,,,,,,,,,,,,,,,,,,,,,,,,,
,,,,6,0.9706,,,,,,162,microwave,tomato,,89735,001,2022-04-28_14h47.12.994,SPAMnetsValid,2021.1.4,Win32,59.9880024,,,,,,,,,,,,,6,0.9706,0,87,87,12,1,,,,,,,,,,,,,,,,,,,,,,,,,,,,,,,,,,,,,,,,,,,,,,,,,,,,,,,,,,,,,,,,,,,,,,
,,,,6,0.9326,,,,,,122,flower,garden,,89735,001,2022-04-28_14h47.12.994,SPAMnetsValid,2021.1.4,Win32,59.9880024,,,,,,,,,,,,,6,0.9326,0,88,88,60,1,,,,,,,,,,,,,,,,,,,,,,,,,,,,,,,,,,,,,,,,,,,,,,,,,,,,,,,,,,,,,,,,,,,,,,
,,,,6,0.9376,,,,,,148,flower,melon,,89735,001,2022-04-28_14h47.12.994,SPAMnetsValid,2021.1.4,Win32,59.9880024,,,,,,,,,,,,,6,0.9376,0,89,89,23,1,,,,,,,,,,,,,,,,,,,,,,,,,,,,,,,,,,,,,,,,,,,,,,,,,,,,,,,,,,,,,,,,,,,,,,
,,,,6,0.9896,,,,,,129,cactus,refrigerator,,89735,001,2022-04-28_14h47.12.994,SPAMnetsValid,2021.1.4,Win32,59.9880024,,,,,,,,,,,,,6,0.9896,0,90,90,3,1,,,,,,,,,,,,,,,,,,,,,,,,,,,,,,,,,,,,,,,,,,,,,,,,,,,,,,,,,,,,,,,,,,,,,,
,,,,6,0.9366,,,,,,102,chocolate,refrigerator,,89735,001,2022-04-28_14h47.12.994,SPAMnetsValid,2021.1.4,Win32,59.9880024,,,,,,,,,,,,,6,0.9366,0,91,91,76,1,,,,,,,,,,,,,,,,,,,,,,,,,,,,,,,,,,,,,,,,,,,,,,,,,,,,,,,,,,,,,,,,,,,,,,
,,,,6,0.9686,,,,,,149,broom,tomato,,89735,001,2022-04-28_14h47.12.994,SPAMnetsValid,2021.1.4,Win32,59.9880024,,,,,,,,,,,,,6,0.9686,0,92,92,20,1,,,,,,,,,,,,,,,,,,,,,,,,,,,,,,,,,,,,,,,,,,,,,,,,,,,,,,,,,,,,,,,,,,,,,,
,,,,6,0.9489,,,,,,106,cake,strawberry,,89735,001,2022-04-28_14h47.12.994,SPAMnetsValid,2021.1.4,Win32,59.9880024,,,,,,,,,,,,,6,0.9489,0,93,93,0,1,,,,,,,,,,,,,,,,,,,,,,,,,,,,,,,,,,,,,,,,,,,,,,,,,,,,,,,,,,,,,,,,,,,,,,
,,,,6,1.3615,,,,,,135,carrot,oven,,89735,001,2022-04-28_14h47.12.994,SPAMnetsValid,2021.1.4,Win32,59.9880024,,,,,,,,,,,,,6,1.3615,0,94,94,73,1,,,,,,,,,,,,,,,,,,,,,,,,,,,,,,,,,,,,,,,,,,,,,,,,,,,,,,,,,,,,,,,,,,,,,,
,,,,6,0.9527,,,,,,147,cake,refrigerator,,89735,001,2022-04-28_14h47.12.994,SPAMnetsValid,2021.1.4,Win32,59.9880024,,,,,,,,,,,,,6,0.9527,0,95,95,35,1,,,,,,,,,,,,,,,,,,,,,,,,,,,,,,,,,,,,,,,,,,,,,,,,,,,,,,,,,,,,,,,,,,,,,,
,,,,6,0.9692,,,,,,130,microwave,yogurt,,89735,001,2022-04-28_14h47.12.994,SPAMnetsValid,2021.1.4,Win32,59.9880024,,,,,,,,,,,,,6,0.9692,0,96,96,84,1,,,,,,,,,,,,,,,,,,,,,,,,,,,,,,,,,,,,,,,,,,,,,,,,,,,,,,,,,,,,,,,,,,,,,,
,,,,,,,,,,,,,,,89735,001,2022-04-28_14h47.12.994,SPAMnetsValid,2021.1.4,Win32,59.9880024,,,,,,,,,,,,,,,,,,,,0,0,0,0,1,,,,,,,,,,,,,,,,,,,,,,,,,,,,,,,,,,,,,,,,,,,,,,,,,,,,,,,,,,,,,,,,,
,,,,,,,,,,,,,,,89735,001,2022-04-28_14h47.12.994,SPAMnetsValid,2021.1.4,Win32,59.9880024,,,,,,0,1,1,1,1,0,1,,,,,,,,,,,,,,,,,,,,,,,,,,,,,,,,,,,,,,,,,,,,,,,,,,,,,,,,,,,,,,,,,,,,,,,,,,,,,
,,,,,,,,,,,,,,,89735,001,2022-04-28_14h47.12.994,SPAMnetsValid,2021.1.4,Win32,59.9880024,,,,,,,,,,,,,,,,,,,,,,,,,1,12.5321,0,0,0,0,1,rancor,forbearance,ridicule,malice,bravery,3,,,,,,,,,,,,,,,,,,,,,,,,,,,,,,,,,,,,,,,,,,,,,,,,,,,,
,,,,,,,,,,,,,,,89735,001,2022-04-28_14h47.12.994,SPAMnetsValid,2021.1.4,Win32,59.9880024,,,,,,,,,,,,,,,,,,,,,,,,,4,4.0512,0,1,1,1,1,raucous,empty,quiet,smooth,harsh,4,,,,,,,,,,,,,,,,,,,,,,,,,,,,,,,,,,,,,,,,,,,,,,,,,,,,
,,,,,,,,,,,,,,,89735,001,2022-04-28_14h47.12.994,SPAMnetsValid,2021.1.4,Win32,59.9880024,,,,,,,,,,,,,,,,,,,,,,,,,4,2.7966,0,2,2,2,1,gargoyle,oil,medicine,carved waterspout,ugly building,3,,,,,,,,,,,,,,,,,,,,,,,,,,,,,,,,,,,,,,,,,,,,,,,,,,,,
,,,,,,,,,,,,,,,89735,001,2022-04-28_14h47.12.994,SPAMnetsValid,2021.1.4,Win32,59.9880024,,,,,,,,,,,,,,,,,,,,,,,,,2,6.7148,0,3,3,3,1,recrudesce,purify,renew activity,lack refinement,crush,2,,,,,,,,,,,,,,,,,,,,,,,,,,,,,,,,,,,,,,,,,,,,,,,,,,,,
,,,,,,,,,,,,,,,89735,001,2022-04-28_14h47.12.994,SPAMnetsValid,2021.1.4,Win32,59.9880024,,,,,,,,,,,,,,,,,,,,,,,,,4,5.6688,0,4,4,4,1,specious,"plausible, but not genuine",noteworthy,class or variety,roomy,1,,,,,,,,,,,,,,,,,,,,,,,,,,,,,,,,,,,,,,,,,,,,,,,,,,,,
,,,,,,,,,,,,,,,89735,001,2022-04-28_14h47.12.994,SPAMnetsValid,2021.1.4,Win32,59.9880024,,,,,,,,,,,,,,,,,,,,,,,,,1,3.5262,0,5,5,5,1,bauble,bubble,showy plaything,idle talk,confusion,2,,,,,,,,,,,,,,,,,,,,,,,,,,,,,,,,,,,,,,,,,,,,,,,,,,,,
,,,,,,,,,,,,,,,89735,001,2022-04-28_14h47.12.994,SPAMnetsValid,2021.1.4,Win32,59.9880024,,,,,,,,,,,,,,,,,,,,,,,,,4,6.3579,0,6,6,6,1,prolific,scarce,producing abundantly,reckless,speaking profanely,2,,,,,,,,,,,,,,,,,,,,,,,,,,,,,,,,,,,,,,,,,,,,,,,,,,,,
,,,,,,,,,,,,,,,89735,001,2022-04-28_14h47.12.994,SPAMnetsValid,2021.1.4,Win32,59.9880024,,,,,,,,,,,,,,,,,,,,,,,,,2,3.9374,0,7,7,7,1,opulent,party,wealthy,happy frame of mind,semiprecious stone,2,,,,,,,,,,,,,,,,,,,,,,,,,,,,,,,,,,,,,,,,,,,,,,,,,,,,
,,,,,,,,,,,,,,,89735,001,2022-04-28_14h47.12.994,SPAMnetsValid,2021.1.4,Win32,59.9880024,,,,,,,,,,,,,,,,,,,,,,,,,2,3.7712,0,8,8,8,1,coercion,conspiracy,strategy,restraint,attraction,3,,,,,,,,,,,,,,,,,,,,,,,,,,,,,,,,,,,,,,,,,,,,,,,,,,,,
,,,,,,,,,,,,,,,89735,001,2022-04-28_14h47.12.994,SPAMnetsValid,2021.1.4,Win32,59.9880024,,,,,,,,,,,,,,,,,,,,,,,,,4,3.425,0,9,9,9,1,hiatus,animal,calamity,dread,gap,4,,,,,,,,,,,,,,,,,,,,,,,,,,,,,,,,,,,,,,,,,,,,,,,,,,,,
,,,,,,,,,,,,,,,89735,001,2022-04-28_14h47.12.994,SPAMnetsValid,2021.1.4,Win32,59.9880024,,,,,,,,,,,,,,,,,,,,,,,,,2,6.0676,0,10,10,10,1,germane,microbe,contagious,relevant,different,3,,,,,,,,,,,,,,,,,,,,,,,,,,,,,,,,,,,,,,,,,,,,,,,,,,,,
,,,,,,,,,,,,,,,89735,001,2022-04-28_14h47.12.994,SPAMnetsValid,2021.1.4,Win32,59.9880024,,,,,,,,,,,,,,,,,,,,,,,,,3,3.6337,0,11,11,11,1,perfunctory,fundamental,formal,superficial,careful,3,,,,,,,,,,,,,,,,,,,,,,,,,,,,,,,,,,,,,,,,,,,,,,,,,,,,
,,,,,,,,,,,,,,,89735,001,2022-04-28_14h47.12.994,SPAMnetsValid,2021.1.4,Win32,59.9880024,,,,,,,,,,,,,,,,,,,,,,,,,3,3.4193,0,12,12,12,1,diverge,reveal,chant,distract the attention of,differ or turn off from,4,,,,,,,,,,,,,,,,,,,,,,,,,,,,,,,,,,,,,,,,,,,,,,,,,,,,
,,,,,,,,,,,,,,,89735,001,2022-04-28_14h47.12.994,SPAMnetsValid,2021.1.4,Win32,59.9880024,,,,,,,,,,,,,,,,,,,,,,,,,4,3.3516,0,13,13,13,1,evoke,take away,anger,connect,bring out,4,,,,,,,,,,,,,,,,,,,,,,,,,,,,,,,,,,,,,,,,,,,,,,,,,,,,
,,,,,,,,,,,,,,,89735,001,2022-04-28_14h47.12.994,SPAMnetsValid,2021.1.4,Win32,59.9880024,,,,,,,,,,,,,,,,,,,,,,,,,3,12.8259,0,14,14,14,1,pertinent,relevant,lying next to,necessary,bold,1,,,,,,,,,,,,,,,,,,,,,,,,,,,,,,,,,,,,,,,,,,,,,,,,,,,,
,,,,,,,,,,,,,,,89735,001,2022-04-28_14h47.12.994,SPAMnetsValid,2021.1.4,Win32,59.9880024,,,,,,,,,,,,,,,,,,,,,,,,,2,7.0378,0,15,15,15,1,holocaust,entirety,destruction,saintly,price,2,,,,,,,,,,,,,,,,,,,,,,,,,,,,,,,,,,,,,,,,,,,,,,,,,,,,
,,,,,,,,,,,,,,,89735,001,2022-04-28_14h47.12.994,SPAMnetsValid,2021.1.4,Win32,59.9880024,,,,,,,,,,,,,,,,,,,,,,,,,3,8.7011,0,16,16,16,1,piquant,mellow,fish,pungent,cloth,3,,,,,,,,,,,,,,,,,,,,,,,,,,,,,,,,,,,,,,,,,,,,,,,,,,,,
,,,,,,,,,,,,,,,89735,001,2022-04-28_14h47.12.994,SPAMnetsValid,2021.1.4,Win32,59.9880024,,,,,,,,,,,,,,,,,,,,,,,,,1,8.2967,0,17,17,17,1,firmament,foundation,heavens,strong,glue,2,,,,,,,,,,,,,,,,,,,,,,,,,,,,,,,,,,,,,,,,,,,,,,,,,,,,
,,,,,,,,,,,,,,,89735,001,2022-04-28_14h47.12.994,SPAMnetsValid,2021.1.4,Win32,59.9880024,,,,,,,,,,,,,,,,,,,,,,,,,,,,,,,,,,,,,,4,8.6014,0,0,0,0,1,marketable,partisan,jocular,marriageable,salable,essential,4,,,,,,,,,,,,,,,,,,,,,,,,,,,,,,,,,,,,,,
,,,,,,,,,,,,,,,89735,001,2022-04-28_14h47.12.994,SPAMnetsValid,2021.1.4,Win32,59.9880024,,,,,,,,,,,,,,,,,,,,,,,,,,,,,,,,,,,,,,5,6.7782,0,1,1,1,1,cottontail,squirrel,poplar,boa,marshy plant,rabbit,5,,,,,,,,,,,,,,,,,,,,,,,,,,,,,,,,,,,,,,
,,,,,,,,,,,,,,,89735,001,2022-04-28_14h47.12.994,SPAMnetsValid,2021.1.4,Win32,59.9880024,,,,,,,,,,,,,,,,,,,,,,,,,,,,,,,,,,,,,,3,6.6802,0,2,2,2,1,boggy,afraid,false,marshy,dense,black,3,,,,,,,,,,,,,,,,,,,,,,,,,,,,,,,,,,,,,,
,,,,,,,,,,,,,,,89735,001,2022-04-28_14h47.12.994,SPAMnetsValid,2021.1.4,Win32,59.9880024,,,,,,,,,,,,,,,,,,,,,,,,,,,,,,,,,,,,,,3,9.7928,0,3,3,3,1,gruesomeness,blackness,falseness,vindictiveness,drunkenness,ghastliness,5,,,,,,,,,,,,,,,,,,,,,,,,,,,,,,,,,,,,,,
,,,,,,,,,,,,,,,89735,001,2022-04-28_14h47.12.994,SPAMnetsValid,2021.1.4,Win32,59.9880024,,,,,,,,,,,,,,,,,,,,,,,,,,,,,,,,,,,,,,3,7.7387,0,4,4,4,1,loathing,diffidence,laziness,abhorrence,cleverness,comfort,3,,,,,,,,,,,,,,,,,,,,,,,,,,,,,,,,,,,,,,
,,,,,,,,,,,,,,,89735,001,2022-04-28_14h47.12.994,SPAMnetsValid,2021.1.4,Win32,59.9880024,,,,,,,,,,,,,,,,,,,,,,,,,,,,,,,,,,,,,,3,2.2896,0,5,5,5,1,bantam,fowl,ridicule,cripple,vegetable,ensign,1,,,,,,,,,,,,,,,,,,,,,,,,,,,,,,,,,,,,,,
,,,,,,,,,,,,,,,89735,001,2022-04-28_14h47.12.994,SPAMnetsValid,2021.1.4,Win32,59.9880024,,,,,,,,,,,,,,,,,,,,,,,,,,,,,,,,,,,,,,5,4.0735,0,6,6,6,1,evoke,wake up,surrender,reconnoiter,transcend,call forth,5,,,,,,,,,,,,,,,,,,,,,,,,,,,,,,,,,,,,,,
,,,,,,,,,,,,,,,89735,001,2022-04-28_14h47.12.994,SPAMnetsValid,2021.1.4,Win32,59.9880024,,,,,,,,,,,,,,,,,,,,,,,,,,,,,,,,,,,,,,5,38.6771,0,7,7,7,1,unobtrusive,unintelligent,epileptic,illogical,lineal,modest,5,,,,,,,,,,,,,,,,,,,,,,,,,,,,,,,,,,,,,,
,,,,,,,,,,,,,,,89735,001,2022-04-28_14h47.12.994,SPAMnetsValid,2021.1.4,Win32,59.9880024,,,,,,,,,,,,,,,,,,,,,,,,,,,,,,,,,,,,,,3,12.5854,0,8,8,8,1,terrain,ice cream,final test,tractor,area of ground,weight,4,,,,,,,,,,,,,,,,,,,,,,,,,,,,,,,,,,,,,,
,,,,,,,,,,,,,,,89735,001,2022-04-28_14h47.12.994,SPAMnetsValid,2021.1.4,Win32,59.9880024,,,,,,,,,,,,,,,,,,,,,,,,,,,,,,,,,,,,,,5,16.3474,0,9,9,9,1,capriciousness,stubbornness,courage,whimsicality,amazement,greediness,3,,,,,,,,,,,,,,,,,,,,,,,,,,,,,,,,,,,,,,
,,,,,,,,,,,,,,,89735,001,2022-04-28_14h47.12.994,SPAMnetsValid,2021.1.4,Win32,59.9880024,,,,,,,,,,,,,,,,,,,,,,,,,,,,,,,,,,,,,,2,1.7474,0,10,10,10,1,maelstrom,slander,whirlpool,enmity,armor,majolica,2,,,,,,,,,,,,,,,,,,,,,,,,,,,,,,,,,,,,,,
,,,,,,,,,,,,,,,89735,001,2022-04-28_14h47.12.994,SPAMnetsValid,2021.1.4,Win32,59.9880024,,,,,,,,,,,,,,,,,,,,,,,,,,,,,,,,,,,,,,5,3.8313,0,11,11,11,1,tentative,critical,conclusive,authentic,provisional,apprehensive,4,,,,,,,,,,,,,,,,,,,,,,,,,,,,,,,,,,,,,,
,,,,,,,,,,,,,,,89735,001,2022-04-28_14h47.12.994,SPAMnetsValid,2021.1.4,Win32,59.9880024,,,,,,,,,,,,,,,,,,,,,,,,,,,,,,,,,,,,,,5,7.058,0,12,12,12,1,placate,rehabilitate,plagiarize,depredate,apprise,conciliate,5,,,,,,,,,,,,,,,,,,,,,,,,,,,,,,,,,,,,,,
,,,,,,,,,,,,,,,89735,001,2022-04-28_14h47.12.994,SPAMnetsValid,2021.1.4,Win32,59.9880024,,,,,,,,,,,,,,,,,,,,,,,,,,,,,,,,,,,,,,3,2.4798,0,13,13,13,1,surcease,enlightenment,cessation,inattention,censor,substitution,2,,,,,,,,,,,,,,,,,,,,,,,,,,,,,,,,,,,,,,
,,,,,,,,,,,,,,,89735,001,2022-04-28_14h47.12.994,SPAMnetsValid,2021.1.4,Win32,59.9880024,,,,,,,,,,,,,,,,,,,,,,,,,,,,,,,,,,,,,,4,1.4809,0,14,14,14,1,apathetic,wandering,impassive,hateful,prophetic,overflowing,2,,,,,,,,,,,,,,,,,,,,,,,,,,,,,,,,,,,,,,
,,,,,,,,,,,,,,,89735,001,2022-04-28_14h47.12.994,SPAMnetsValid,2021.1.4,Win32,59.9880024,,,,,,,,,,,,,,,,,,,,,,,,,,,,,,,,,,,,,,3,1.381,0,15,15,15,1,paternoster,paternalism,patricide,malediction,benediction,prayer,5,,,,,,,,,,,,,,,,,,,,,,,,,,,,,,,,,,,,,,
,,,,,,,,,,,,,,,89735,001,2022-04-28_14h47.12.994,SPAMnetsValid,2021.1.4,Win32,59.9880024,,,,,,,,,,,,,,,,,,,,,,,,,,,,,,,,,,,,,,2,1.4646,0,16,16,16,1,opalescence,opulence,senescence,bankruptcy,iridescence,assiduity,4,,,,,,,,,,,,,,,,,,,,,,,,,,,,,,,,,,,,,,
,,,,,,,,,,,,,,,89735,001,2022-04-28_14h47.12.994,SPAMnetsValid,2021.1.4,Win32,59.9880024,,,,,,,,,,,,,,,,,,,,,,,,,,,,,,,,,,,,,,3,1.4468,0,17,17,17,1,lush,stupid,luxurious,hazy,putrid,languishing,2,,,,,,,,,,,,,,,,,,,,,,,,,,,,,,,,,,,,,,
,,,,,,,,,,,,,,,89735,001,2022-04-28_14h47.12.994,SPAMnetsValid,2021.1.4,Win32,59.9880024,,,,,,,,,,,,,,,,,,,,,,,,,,,,,,,,,,,,,,4,1.4167,0,18,18,18,1,curtailment,expenditure,abandonment,abridgment,improvement,forgery,3,,,,,,,,,,,,,,,,,,,,,,,,,,,,,,,,,,,,,,
,,,,,,,,,,,,,,,89735,001,2022-04-28_14h47.12.994,SPAMnetsValid,2021.1.4,Win32,59.9880024,,,,,,,,,,,,,,,,,,,,,,,,,,,,,,,,,,,,,,5,1.8666,0,19,19,19,1,perversity,adversity,perviousness,travesty,waywardness,gentility,4,,,,,,,,,,,,,,,,,,,,,,,,,,,,,,,,,,,,,,
,,,,,,,,,,,,,,,89735,001,2022-04-28_14h47.12.994,SPAMnetsValid,2021.1.4,Win32,59.9880024,,,,,,,,,,,,,,,,,,,,,,,,,,,,,,,,,,,,,,2,1.7625,0,20,20,20,1,calumnious,complimentary,analogous,slanderous,tempestuous,magnanimous,3,,,,,,,,,,,,,,,,,,,,,,,,,,,,,,,,,,,,,,
,,,,,,,,,,,,,,,89735,001,2022-04-28_14h47.12.994,SPAMnetsValid,2021.1.4,Win32,59.9880024,,,,,,,,,,,,,,,,,,,,,,,,,,,,,,,,,,,,,,1,1.4318,0,21,21,21,1,illiberality,bigotry,imbecility,illegibility,cautery,immaturity,1,,,,,,,,,,,,,,,,,,,,,,,,,,,,,,,,,,,,,,
,,,,,,,,,,,,,,,89735,001,2022-04-28_14h47.12.994,SPAMnetsValid,2021.1.4,Win32,59.9880024,,,,,,,,,,,,,,,,,,,,,,,,,,,,,,,,,,,,,,3,1.6316,0,22,22,22,1,clabber,rejoice,gossip,curdle,crow,hobble,3,,,,,,,,,,,,,,,,,,,,,,,,,,,,,,,,,,,,,,
,,,,,,,,,,,,,,,89735,001,2022-04-28_14h47.12.994,SPAMnetsValid,2021.1.4,Win32,59.9880024,,,,,,,,,,,,,,,,,,,,,,,,,,,,,,,,,,,,,,4,1.5306,0,23,23,23,1,sedulousness,diligence,credulousness,seduction,perilousness,frankness,1,,,,,,,,,,,,,,,,,,,,,,,,,,,,,,,,,,,,,,
,,,,,,,,,,,,,,,89735,001,2022-04-28_14h47.12.994,SPAMnetsValid,2021.1.4,Win32,59.9880024,,,,,,,,,,,,,,,,,,,,,,,,,,,,,,,,,,,,,,,,,,,,,,,,,,,,sleep,pillow,0,0,0,0,1,,,,,,,,,,,,,,,,,,,,,,,,,,,,,,,
,,,,,,,,,,,,,,,89735,001,2022-04-28_14h47.12.994,SPAMnetsValid,2021.1.4,Win32,59.9880024,,,,,,,,,,,,,,,,,,,,,,,,,,,,,,,,,,,,,,,,,,,,,,,,,,,,pillow fight,pillow,1,0,1,0,1,,,,,,,,,,,,,,,,,,,,,,,,,,,,,,,
,,,,,,,,,,,,,,,89735,001,2022-04-28_14h47.12.994,SPAMnetsValid,2021.1.4,Win32,59.9880024,,,,,,,,,,,,,,,,,,,,,,,,,,,,,,,,,,,,,,,,,,,,,,,,,,,,painting,pillow,2,0,2,0,1,,,,,,,,,,,,,,,,,,,,,,,,,,,,,,,
,,,,,,,,,,,,,,,89735,001,2022-04-28_14h47.12.994,SPAMnetsValid,2021.1.4,Win32,59.9880024,,,,,,,,,,,,,,,,,,,,,,,,,,,,,,,,,,,,,,,,,,,,,,,,,,,,drawing,pillow,3,0,3,0,1,,,,,,,,,,,,,,,,,,,,,,,,,,,,,,,
,,,,,,,,,,,,,,,89735,001,2022-04-28_14h47.12.994,SPAMnetsValid,2021.1.4,Win32,59.9880024,,,,,,,,,,,,,,,,,,,,,,,,,,,,,,,,,,,,,,,,,,,,,,,,,,,,ghost sheet,pillow,4,0,4,0,1,,,,,,,,,,,,,,,,,,,,,,,,,,,,,,,
,,,,,,,,,,,,,,,89735,001,2022-04-28_14h47.12.994,SPAMnetsValid,2021.1.4,Win32,59.9880024,,,,,,,,,,,,,,,,,,,,,,,,,,,,,,,,,,,,,,,,,,,,,,,,,,,,costume ,pillow,5,0,5,0,1,,,,,,,,,,,,,,,,,,,,,,,,,,,,,,,
,,,,,,,,,,,,,,,89735,001,2022-04-28_14h47.12.994,SPAMnetsValid,2021.1.4,Win32,59.9880024,,,,,,,,,,,,,,,,,,,,,,,,,,,,,,,,,,,,,,,,,,,,,,,,,,,,pillow fort ,pillow,6,0,6,0,1,,,,,,,,,,,,,,,,,,,,,,,,,,,,,,,
,,,,,,,,,,,,,,,89735,001,2022-04-28_14h47.12.994,SPAMnetsValid,2021.1.4,Win32,59.9880024,,,,,,,,,,,,,,,,,,,,,,,,,,,,,,,,,,,,,,,,,,,,,,,,,,,,pillow wall,pillow,7,0,7,0,1,,,,,,,,,,,,,,,,,,,,,,,,,,,,,,,
,,,,,,,,,,,,,,,89735,001,2022-04-28_14h47.12.994,SPAMnetsValid,2021.1.4,Win32,59.9880024,,,,,,,,,,,,,,,,,,,,,,,,,,,,,,,,,,,,,,,,,,,,,,,,,,,,decoration,pillow,8,0,8,0,1,,,,,,,,,,,,,,,,,,,,,,,,,,,,,,,
,,,,,,,,,,,,,,,89735,001,2022-04-28_14h47.12.994,SPAMnetsValid,2021.1.4,Win32,59.9880024,,,,,,,,,,,,,,,,,,,,,,,,,,,,,,,,,,,,,,,,,,,,,,,,,,,,,pillow,9,0,9,0,1,,,,,,,,,,,,,,,,,,,,,,,,,,,,,,,
,,,,,,,,,,,,,,,89735,001,2022-04-28_14h47.12.994,SPAMnetsValid,2021.1.4,Win32,59.9880024,,,,,,,,,,,,,,,,,,,,,,,,,,,,,,,,,,,,,,,,,,,,,,,,,,,,,,,,,,,0,0,0,2,1,pillow,,,,,,,,,,,,,,,,,,,,,,,,,
,,,,,,,,,,,,,,,89735,001,2022-04-28_14h47.12.994,SPAMnetsValid,2021.1.4,Win32,59.9880024,,,,,,,,,,,,,,,,,,,,,,,,,,,,,,,,,,,,,,,,,,,,,,,,,,,,hat,bucket,0,0,0,0,1,,,,,,,,,,,,,,,,,,,,,,,,,,,,,,,
,,,,,,,,,,,,,,,89735,001,2022-04-28_14h47.12.994,SPAMnetsValid,2021.1.4,Win32,59.9880024,,,,,,,,,,,,,,,,,,,,,,,,,,,,,,,,,,,,,,,,,,,,,,,,,,,,water,bucket,1,0,1,0,1,,,,,,,,,,,,,,,,,,,,,,,,,,,,,,,
,,,,,,,,,,,,,,,89735,001,2022-04-28_14h47.12.994,SPAMnetsValid,2021.1.4,Win32,59.9880024,,,,,,,,,,,,,,,,,,,,,,,,,,,,,,,,,,,,,,,,,,,,,,,,,,,,rain water,bucket,2,0,2,0,1,,,,,,,,,,,,,,,,,,,,,,,,,,,,,,,
,,,,,,,,,,,,,,,89735,001,2022-04-28_14h47.12.994,SPAMnetsValid,2021.1.4,Win32,59.9880024,,,,,,,,,,,,,,,,,,,,,,,,,,,,,,,,,,,,,,,,,,,,,,,,,,,,harvestk g,bucket,3,0,3,0,1,,,,,,,,,,,,,,,,,,,,,,,,,,,,,,,
,,,,,,,,,,,,,,,89735,001,2022-04-28_14h47.12.994,SPAMnetsValid,2021.1.4,Win32,59.9880024,,,,,,,,,,,,,,,,,,,,,,,,,,,,,,,,,,,,,,,,,,,,,,,,,,,,butt bucket,bucket,4,0,4,0,1,,,,,,,,,,,,,,,,,,,,,,,,,,,,,,,
,,,,,,,,,,,,,,,89735,001,2022-04-28_14h47.12.994,SPAMnetsValid,2021.1.4,Win32,59.9880024,,,,,,,,,,,,,,,,,,,,,,,,,,,,,,,,,,,,,,,,,,,,,,,,,,,,gardening,bucket,5,0,5,0,1,,,,,,,,,,,,,,,,,,,,,,,,,,,,,,,
,,,,,,,,,,,,,,,89735,001,2022-04-28_14h47.12.994,SPAMnetsValid,2021.1.4,Win32,59.9880024,,,,,,,,,,,,,,,,,,,,,,,,,,,,,,,,,,,,,,,,,,,,,,,,,,,,baths,bucket,6,0,6,0,1,,,,,,,,,,,,,,,,,,,,,,,,,,,,,,,
,,,,,,,,,,,,,,,89735,001,2022-04-28_14h47.12.994,SPAMnetsValid,2021.1.4,Win32,59.9880024,,,,,,,,,,,,,,,,,,,,,,,,,,,,,,,,,,,,,,,,,,,,,,,,,,,,sand castles,bucket,7,0,7,0,1,,,,,,,,,,,,,,,,,,,,,,,,,,,,,,,
,,,,,,,,,,,,,,,89735,001,2022-04-28_14h47.12.994,SPAMnetsValid,2021.1.4,Win32,59.9880024,,,,,,,,,,,,,,,,,,,,,,,,,,,,,,,,,,,,,,,,,,,,,,,,,,,,waste,bucket,8,0,8,0,1,,,,,,,,,,,,,,,,,,,,,,,,,,,,,,,
,,,,,,,,,,,,,,,89735,001,2022-04-28_14h47.12.994,SPAMnetsValid,2021.1.4,Win32,59.9880024,,,,,,,,,,,,,,,,,,,,,,,,,,,,,,,,,,,,,,,,,,,,,,,,,,,,pee,bucket,9,0,9,0,1,,,,,,,,,,,,,,,,,,,,,,,,,,,,,,,
,,,,,,,,,,,,,,,89735,001,2022-04-28_14h47.12.994,SPAMnetsValid,2021.1.4,Win32,59.9880024,,,,,,,,,,,,,,,,,,,,,,,,,,,,,,,,,,,,,,,,,,,,,,,,,,,,toilet,bucket,10,0,10,0,1,,,,,,,,,,,,,,,,,,,,,,,,,,,,,,,
,,,,,,,,,,,,,,,89735,001,2022-04-28_14h47.12.994,SPAMnetsValid,2021.1.4,Win32,59.9880024,,,,,,,,,,,,,,,,,,,,,,,,,,,,,,,,,,,,,,,,,,,,,,,,,,,,food,bucket,11,0,11,0,1,,,,,,,,,,,,,,,,,,,,,,,,,,,,,,,
,,,,,,,,,,,,,,,89735,001,2022-04-28_14h47.12.994,SPAMnetsValid,2021.1.4,Win32,59.9880024,,,,,,,,,,,,,,,,,,,,,,,,,,,,,,,,,,,,,,,,,,,,,,,,,,,,weapon,bucket,12,0,12,0,1,,,,,,,,,,,,,,,,,,,,,,,,,,,,,,,
,,,,,,,,,,,,,,,89735,001,2022-04-28_14h47.12.994,SPAMnetsValid,2021.1.4,Win32,59.9880024,,,,,,,,,,,,,,,,,,,,,,,,,,,,,,,,,,,,,,,,,,,,,,,,,,,,,,,,,,,0,1,1,0,1,bucket,,,,,,,,,,,,,,,,,,,,,,,,,
,,,,,,,,,,,,,,,89735,001,2022-04-28_14h47.12.994,SPAMnetsValid,2021.1.4,Win32,59.9880024,,,,,,,,,,,,,,,,,,,,,,,,,,,,,,,,,,,,,,,,,,,,,,,,,,,,fire,candle,0,0,0,0,1,,,,,,,,,,,,,,,,,,,,,,,,,,,,,,,
,,,,,,,,,,,,,,,89735,001,2022-04-28_14h47.12.994,SPAMnetsValid,2021.1.4,Win32,59.9880024,,,,,,,,,,,,,,,,,,,,,,,,,,,,,,,,,,,,,,,,,,,,,,,,,,,,scents,candle,1,0,1,0,1,,,,,,,,,,,,,,,,,,,,,,,,,,,,,,,
,,,,,,,,,,,,,,,89735,001,2022-04-28_14h47.12.994,SPAMnetsValid,2021.1.4,Win32,59.9880024,,,,,,,,,,,,,,,,,,,,,,,,,,,,,,,,,,,,,,,,,,,,,,,,,,,,wax,candle,2,0,2,0,1,,,,,,,,,,,,,,,,,,,,,,,,,,,,,,,
,,,,,,,,,,,,,,,89735,001,2022-04-28_14h47.12.994,SPAMnetsValid,2021.1.4,Win32,59.9880024,,,,,,,,,,,,,,,,,,,,,,,,,,,,,,,,,,,,,,,,,,,,,,,,,,,,romantic,candle,3,0,3,0,1,,,,,,,,,,,,,,,,,,,,,,,,,,,,,,,
,,,,,,,,,,,,,,,89735,001,2022-04-28_14h47.12.994,SPAMnetsValid,2021.1.4,Win32,59.9880024,,,,,,,,,,,,,,,,,,,,,,,,,,,,,,,,,,,,,,,,,,,,,,,,,,,,pain,candle,4,0,4,0,1,,,,,,,,,,,,,,,,,,,,,,,,,,,,,,,
,,,,,,,,,,,,,,,89735,001,2022-04-28_14h47.12.994,SPAMnetsValid,2021.1.4,Win32,59.9880024,,,,,,,,,,,,,,,,,,,,,,,,,,,,,,,,,,,,,,,,,,,,,,,,,,,,light,candle,5,0,5,0,1,,,,,,,,,,,,,,,,,,,,,,,,,,,,,,,
,,,,,,,,,,,,,,,89735,001,2022-04-28_14h47.12.994,SPAMnetsValid,2021.1.4,Win32,59.9880024,,,,,,,,,,,,,,,,,,,,,,,,,,,,,,,,,,,,,,,,,,,,,,,,,,,,dates,candle,6,0,6,0,1,,,,,,,,,,,,,,,,,,,,,,,,,,,,,,,
,,,,,,,,,,,,,,,89735,001,2022-04-28_14h47.12.994,SPAMnetsValid,2021.1.4,Win32,59.9880024,,,,,,,,,,,,,,,,,,,,,,,,,,,,,,,,,,,,,,,,,,,,,,,,,,,,valentines day ,candle,7,0,7,0,1,,,,,,,,,,,,,,,,,,,,,,,,,,,,,,,
,,,,,,,,,,,,,,,89735,001,2022-04-28_14h47.12.994,SPAMnetsValid,2021.1.4,Win32,59.9880024,,,,,,,,,,,,,,,,,,,,,,,,,,,,,,,,,,,,,,,,,,,,,,,,,,,,anniversaries,candle,8,0,8,0,1,,,,,,,,,,,,,,,,,,,,,,,,,,,,,,,
,,,,,,,,,,,,,,,89735,001,2022-04-28_14h47.12.994,SPAMnetsValid,2021.1.4,Win32,59.9880024,,,,,,,,,,,,,,,,,,,,,,,,,,,,,,,,,,,,,,,,,,,,,,,,,,,,fresh smells,candle,9,0,9,0,1,,,,,,,,,,,,,,,,,,,,,,,,,,,,,,,
,,,,,,,,,,,,,,,89735,001,2022-04-28_14h47.12.994,SPAMnetsValid,2021.1.4,Win32,59.9880024,,,,,,,,,,,,,,,,,,,,,,,,,,,,,,,,,,,,,,,,,,,,,,,,,,,,warmth,candle,10,0,10,0,1,,,,,,,,,,,,,,,,,,,,,,,,,,,,,,,
,,,,,,,,,,,,,,,89735,001,2022-04-28_14h47.12.994,SPAMnetsValid,2021.1.4,Win32,59.9880024,,,,,,,,,,,,,,,,,,,,,,,,,,,,,,,,,,,,,,,,,,,,,,,,,,,,scents,candle,11,0,11,0,1,,,,,,,,,,,,,,,,,,,,,,,,,,,,,,,
,,,,,,,,,,,,,,,89735,001,2022-04-28_14h47.12.994,SPAMnetsValid,2021.1.4,Win32,59.9880024,,,,,,,,,,,,,,,,,,,,,,,,,,,,,,,,,,,,,,,,,,,,,,,,,,,,heat,candle,12,0,12,0,1,,,,,,,,,,,,,,,,,,,,,,,,,,,,,,,
,,,,,,,,,,,,,,,89735,001,2022-04-28_14h47.12.994,SPAMnetsValid,2021.1.4,Win32,59.9880024,,,,,,,,,,,,,,,,,,,,,,,,,,,,,,,,,,,,,,,,,,,,,,,,,,,,burning ,candle,13,0,13,0,1,,,,,,,,,,,,,,,,,,,,,,,,,,,,,,,
,,,,,,,,,,,,,,,89735,001,2022-04-28_14h47.12.994,SPAMnetsValid,2021.1.4,Win32,59.9880024,,,,,,,,,,,,,,,,,,,,,,,,,,,,,,,,,,,,,,,,,,,,,,,,,,,,bath with candles ,candle,14,0,14,0,1,,,,,,,,,,,,,,,,,,,,,,,,,,,,,,,
,,,,,,,,,,,,,,,89735,001,2022-04-28_14h47.12.994,SPAMnetsValid,2021.1.4,Win32,59.9880024,,,,,,,,,,,,,,,,,,,,,,,,,,,,,,,,,,,,,,,,,,,,,,,,,,,,,,,,,,,0,2,2,1,1,candle,,,,,,,,,,,,,,,,,,,,,,,,,
,,,,,,,,,,,,,,,89735,001,2022-04-28_14h47.12.994,SPAMnetsValid,2021.1.4,Win32,59.9880024,,,,,,,,,,,,,,,,,,,,,,,,,,,,,,,,,,,,,,,,,,,,,,,,,,,,,,,,,,,,,,,,,dog,Animals,0,0,0,0,1,,,,,,,,,,,,,,,,,,
,,,,,,,,,,,,,,,89735,001,2022-04-28_14h47.12.994,SPAMnetsValid,2021.1.4,Win32,59.9880024,,,,,,,,,,,,,,,,,,,,,,,,,,,,,,,,,,,,,,,,,,,,,,,,,,,,,,,,,,,,,,,,,cat,Animals,1,0,1,0,1,,,,,,,,,,,,,,,,,,
,,,,,,,,,,,,,,,89735,001,2022-04-28_14h47.12.994,SPAMnetsValid,2021.1.4,Win32,59.9880024,,,,,,,,,,,,,,,,,,,,,,,,,,,,,,,,,,,,,,,,,,,,,,,,,,,,,,,,,,,,,,,,,giraffe,Animals,2,0,2,0,1,,,,,,,,,,,,,,,,,,
,,,,,,,,,,,,,,,89735,001,2022-04-28_14h47.12.994,SPAMnetsValid,2021.1.4,Win32,59.9880024,,,,,,,,,,,,,,,,,,,,,,,,,,,,,,,,,,,,,,,,,,,,,,,,,,,,,,,,,,,,,,,,,dolphin,Animals,3,0,3,0,1,,,,,,,,,,,,,,,,,,
,,,,,,,,,,,,,,,89735,001,2022-04-28_14h47.12.994,SPAMnetsValid,2021.1.4,Win32,59.9880024,,,,,,,,,,,,,,,,,,,,,,,,,,,,,,,,,,,,,,,,,,,,,,,,,,,,,,,,,,,,,,,,,whale,Animals,4,0,4,0,1,,,,,,,,,,,,,,,,,,
,,,,,,,,,,,,,,,89735,001,2022-04-28_14h47.12.994,SPAMnetsValid,2021.1.4,Win32,59.9880024,,,,,,,,,,,,,,,,,,,,,,,,,,,,,,,,,,,,,,,,,,,,,,,,,,,,,,,,,,,,,,,,,frog,Animals,5,0,5,0,1,,,,,,,,,,,,,,,,,,
,,,,,,,,,,,,,,,89735,001,2022-04-28_14h47.12.994,SPAMnetsValid,2021.1.4,Win32,59.9880024,,,,,,,,,,,,,,,,,,,,,,,,,,,,,,,,,,,,,,,,,,,,,,,,,,,,,,,,,,,,,,,,,worm,Animals,6,0,6,0,1,,,,,,,,,,,,,,,,,,
,,,,,,,,,,,,,,,89735,001,2022-04-28_14h47.12.994,SPAMnetsValid,2021.1.4,Win32,59.9880024,,,,,,,,,,,,,,,,,,,,,,,,,,,,,,,,,,,,,,,,,,,,,,,,,,,,,,,,,,,,,,,,,toad,Animals,7,0,7,0,1,,,,,,,,,,,,,,,,,,
,,,,,,,,,,,,,,,89735,001,2022-04-28_14h47.12.994,SPAMnetsValid,2021.1.4,Win32,59.9880024,,,,,,,,,,,,,,,,,,,,,,,,,,,,,,,,,,,,,,,,,,,,,,,,,,,,,,,,,,,,,,,,,ant,Animals,8,0,8,0,1,,,,,,,,,,,,,,,,,,
,,,,,,,,,,,,,,,89735,001,2022-04-28_14h47.12.994,SPAMnetsValid,2021.1.4,Win32,59.9880024,,,,,,,,,,,,,,,,,,,,,,,,,,,,,,,,,,,,,,,,,,,,,,,,,,,,,,,,,,,,,,,,,cow,Animals,9,0,9,0,1,,,,,,,,,,,,,,,,,,
,,,,,,,,,,,,,,,89735,001,2022-04-28_14h47.12.994,SPAMnetsValid,2021.1.4,Win32,59.9880024,,,,,,,,,,,,,,,,,,,,,,,,,,,,,,,,,,,,,,,,,,,,,,,,,,,,,,,,,,,,,,,,,horse,Animals,10,0,10,0,1,,,,,,,,,,,,,,,,,,
,,,,,,,,,,,,,,,89735,001,2022-04-28_14h47.12.994,SPAMnetsValid,2021.1.4,Win32,59.9880024,,,,,,,,,,,,,,,,,,,,,,,,,,,,,,,,,,,,,,,,,,,,,,,,,,,,,,,,,,,,,,,,,fish,Animals,11,0,11,0,1,,,,,,,,,,,,,,,,,,
,,,,,,,,,,,,,,,89735,001,2022-04-28_14h47.12.994,SPAMnetsValid,2021.1.4,Win32,59.9880024,,,,,,,,,,,,,,,,,,,,,,,,,,,,,,,,,,,,,,,,,,,,,,,,,,,,,,,,,,,,,,,,,shark,Animals,12,0,12,0,1,,,,,,,,,,,,,,,,,,
,,,,,,,,,,,,,,,89735,001,2022-04-28_14h47.12.994,SPAMnetsValid,2021.1.4,Win32,59.9880024,,,,,,,,,,,,,,,,,,,,,,,,,,,,,,,,,,,,,,,,,,,,,,,,,,,,,,,,,,,,,,,,,seal,Animals,13,0,13,0,1,,,,,,,,,,,,,,,,,,
,,,,,,,,,,,,,,,89735,001,2022-04-28_14h47.12.994,SPAMnetsValid,2021.1.4,Win32,59.9880024,,,,,,,,,,,,,,,,,,,,,,,,,,,,,,,,,,,,,,,,,,,,,,,,,,,,,,,,,,,,,,,,,octopus,Animals,14,0,14,0,1,,,,,,,,,,,,,,,,,,
,,,,,,,,,,,,,,,89735,001,2022-04-28_14h47.12.994,SPAMnetsValid,2021.1.4,Win32,59.9880024,,,,,,,,,,,,,,,,,,,,,,,,,,,,,,,,,,,,,,,,,,,,,,,,,,,,,,,,,,,,,,,,,bird,Animals,15,0,15,0,1,,,,,,,,,,,,,,,,,,
,,,,,,,,,,,,,,,89735,001,2022-04-28_14h47.12.994,SPAMnetsValid,2021.1.4,Win32,59.9880024,,,,,,,,,,,,,,,,,,,,,,,,,,,,,,,,,,,,,,,,,,,,,,,,,,,,,,,,,,,,,,,,,chicken,Animals,16,0,16,0,1,,,,,,,,,,,,,,,,,,
,,,,,,,,,,,,,,,89735,001,2022-04-28_14h47.12.994,SPAMnetsValid,2021.1.4,Win32,59.9880024,,,,,,,,,,,,,,,,,,,,,,,,,,,,,,,,,,,,,,,,,,,,,,,,,,,,,,,,,,,,,,,,,turkey ,Animals,17,0,17,0,1,,,,,,,,,,,,,,,,,,
,,,,,,,,,,,,,,,89735,001,2022-04-28_14h47.12.994,SPAMnetsValid,2021.1.4,Win32,59.9880024,,,,,,,,,,,,,,,,,,,,,,,,,,,,,,,,,,,,,,,,,,,,,,,,,,,,,,,,,,,,,,,,,rooster,Animals,18,0,18,0,1,,,,,,,,,,,,,,,,,,
,,,,,,,,,,,,,,,89735,001,2022-04-28_14h47.12.994,SPAMnetsValid,2021.1.4,Win32,59.9880024,,,,,,,,,,,,,,,,,,,,,,,,,,,,,,,,,,,,,,,,,,,,,,,,,,,,,,,,,,,,,,,,,hen,Animals,19,0,19,0,1,,,,,,,,,,,,,,,,,,
,,,,,,,,,,,,,,,89735,001,2022-04-28_14h47.12.994,SPAMnetsValid,2021.1.4,Win32,59.9880024,,,,,,,,,,,,,,,,,,,,,,,,,,,,,,,,,,,,,,,,,,,,,,,,,,,,,,,,,,,,,,,,,firefly,Animals,20,0,20,0,1,,,,,,,,,,,,,,,,,,
,,,,,,,,,,,,,,,89735,001,2022-04-28_14h47.12.994,SPAMnetsValid,2021.1.4,Win32,59.9880024,,,,,,,,,,,,,,,,,,,,,,,,,,,,,,,,,,,,,,,,,,,,,,,,,,,,,,,,,,,,,,,,,fly,Animals,21,0,21,0,1,,,,,,,,,,,,,,,,,,
,,,,,,,,,,,,,,,89735,001,2022-04-28_14h47.12.994,SPAMnetsValid,2021.1.4,Win32,59.9880024,,,,,,,,,,,,,,,,,,,,,,,,,,,,,,,,,,,,,,,,,,,,,,,,,,,,,,,,,,,,,,,,,spider,Animals,22,0,22,0,1,,,,,,,,,,,,,,,,,,
,,,,,,,,,,,,,,,89735,001,2022-04-28_14h47.12.994,SPAMnetsValid,2021.1.4,Win32,59.9880024,,,,,,,,,,,,,,,,,,,,,,,,,,,,,,,,,,,,,,,,,,,,,,,,,,,,,,,,,,,,,,,,,humans,Animals,23,0,23,0,1,,,,,,,,,,,,,,,,,,
,,,,,,,,,,,,,,,89735,001,2022-04-28_14h47.12.994,SPAMnetsValid,2021.1.4,Win32,59.9880024,,,,,,,,,,,,,,,,,,,,,,,,,,,,,,,,,,,,,,,,,,,,,,,,,,,,,,,,,,,,,,,,,centipede,Animals,24,0,24,0,1,,,,,,,,,,,,,,,,,,
,,,,,,,,,,,,,,,89735,001,2022-04-28_14h47.12.994,SPAMnetsValid,2021.1.4,Win32,59.9880024,,,,,,,,,,,,,,,,,,,,,,,,,,,,,,,,,,,,,,,,,,,,,,,,,,,,,,,,,,,,,,,,,stink bugs,Animals,25,0,25,0,1,,,,,,,,,,,,,,,,,,
,,,,,,,,,,,,,,,89735,001,2022-04-28_14h47.12.994,SPAMnetsValid,2021.1.4,Win32,59.9880024,,,,,,,,,,,,,,,,,,,,,,,,,,,,,,,,,,,,,,,,,,,,,,,,,,,,,,,,,,,,,,,,,butterflies,Animals,26,0,26,0,1,,,,,,,,,,,,,,,,,,
,,,,,,,,,,,,,,,89735,001,2022-04-28_14h47.12.994,SPAMnetsValid,2021.1.4,Win32,59.9880024,,,,,,,,,,,,,,,,,,,,,,,,,,,,,,,,,,,,,,,,,,,,,,,,,,,,,,,,,,,,,,,,,bees,Animals,27,0,27,0,1,,,,,,,,,,,,,,,,,,
,,,,,,,,,,,,,,,89735,001,2022-04-28_14h47.12.994,SPAMnetsValid,2021.1.4,Win32,59.9880024,,,,,,,,,,,,,,,,,,,,,,,,,,,,,,,,,,,,,,,,,,,,,,,,,,,,,,,,,,,,,,,,,rabbits,Animals,28,0,28,0,1,,,,,,,,,,,,,,,,,,
,,,,,,,,,,,,,,,89735,001,2022-04-28_14h47.12.994,SPAMnetsValid,2021.1.4,Win32,59.9880024,,,,,,,,,,,,,,,,,,,,,,,,,,,,,,,,,,,,,,,,,,,,,,,,,,,,,,,,,,,,,,,,,groundhogs,Animals,29,0,29,0,1,,,,,,,,,,,,,,,,,,
,,,,,,,,,,,,,,,89735,001,2022-04-28_14h47.12.994,SPAMnetsValid,2021.1.4,Win32,59.9880024,,,,,,,,,,,,,,,,,,,,,,,,,,,,,,,,,,,,,,,,,,,,,,,,,,,,,,,,,,,,,,,,,snake,Animals,30,0,30,0,1,,,,,,,,,,,,,,,,,,
,,,,,,,,,,,,,,,89735,001,2022-04-28_14h47.12.994,SPAMnetsValid,2021.1.4,Win32,59.9880024,,,,,,,,,,,,,,,,,,,,,,,,,,,,,,,,,,,,,,,,,,,,,,,,,,,,,,,,,,,,,,,,,seahorse,Animals,31,0,31,0,1,,,,,,,,,,,,,,,,,,
,,,,,,,,,,,,,,,89735,001,2022-04-28_14h47.12.994,SPAMnetsValid,2021.1.4,Win32,59.9880024,,,,,,,,,,,,,,,,,,,,,,,,,,,,,,,,,,,,,,,,,,,,,,,,,,,,,,,,,,,,,,,,,penguin,Animals,32,0,32,0,1,,,,,,,,,,,,,,,,,,
,,,,,,,,,,,,,,,89735,001,2022-04-28_14h47.12.994,SPAMnetsValid,2021.1.4,Win32,59.9880024,,,,,,,,,,,,,,,,,,,,,,,,,,,,,,,,,,,,,,,,,,,,,,,,,,,,,,,,,,,,,,,,,puffer fish ,Animals,33,0,33,0,1,,,,,,,,,,,,,,,,,,
,,,,,,,,,,,,,,,89735,001,2022-04-28_14h47.12.994,SPAMnetsValid,2021.1.4,Win32,59.9880024,,,,,,,,,,,,,,,,,,,,,,,,,,,,,,,,,,,,,,,,,,,,,,,,,,,,,,,,,,,,,,,,,blob fish ,Animals,34,0,34,0,1,,,,,,,,,,,,,,,,,,
,,,,,,,,,,,,,,,89735,001,2022-04-28_14h47.12.994,SPAMnetsValid,2021.1.4,Win32,59.9880024,,,,,,,,,,,,,,,,,,,,,,,,,,,,,,,,,,,,,,,,,,,,,,,,,,,,,,,,,,,,,,,,,donkey,Animals,35,0,35,0,1,,,,,,,,,,,,,,,,,,
,,,,,,,,,,,,,,,89735,001,2022-04-28_14h47.12.994,SPAMnetsValid,2021.1.4,Win32,59.9880024,,,,,,,,,,,,,,,,,,,,,,,,,,,,,,,,,,,,,,,,,,,,,,,,,,,,,,,,,,,,,,,,,bull,Animals,36,0,36,0,1,,,,,,,,,,,,,,,,,,
,,,,,,,,,,,,,,,89735,001,2022-04-28_14h47.12.994,SPAMnetsValid,2021.1.4,Win32,59.9880024,,,,,,,,,,,,,,,,,,,,,,,,,,,,,,,,,,,,,,,,,,,,,,,,,,,,,,,,,,,,,,,,,buffalo,Animals,37,0,37,0,1,,,,,,,,,,,,,,,,,,
,,,,,,,,,,,,,,,89735,001,2022-04-28_14h47.12.994,SPAMnetsValid,2021.1.4,Win32,59.9880024,,,,,,,,,,,,,,,,,,,,,,,,,,,,,,,,,,,,,,,,,,,,,,,,,,,,,,,,,,,,,,,,,,,,,,,,0,0,0,0,1,Animals,,,,,,,,,,,,
,,,,,,,,,,,,,,,89735,001,2022-04-28_14h47.12.994,SPAMnetsValid,2021.1.4,Win32,59.9880024,,,,,,,,,,,,,,,,,,,,,,,,,,,,,,,,,,,,,,,,,,,,,,,,,,,,,,,,,,,,,,,,,,,,,,,,,,,,,,5,15.4348,0,0,0,0,1,"I enjoy concentrating on a fantasy or daydream and exploring all its possibilities, letting it grow and develop.",0,1,,
,,,,,,,,,,,,,,,89735,001,2022-04-28_14h47.12.994,SPAMnetsValid,2021.1.4,Win32,59.9880024,,,,,,,,,,,,,,,,,,,,,,,,,,,,,,,,,,,,,,,,,,,,,,,,,,,,,,,,,,,,,,,,,,,,,,,,,,,,,,4,4.5691,0,1,1,1,1,I think it's interesting to learn and develop new hobbies.,0,2,,
,,,,,,,,,,,,,,,89735,001,2022-04-28_14h47.12.994,SPAMnetsValid,2021.1.4,Win32,59.9880024,,,,,,,,,,,,,,,,,,,,,,,,,,,,,,,,,,,,,,,,,,,,,,,,,,,,,,,,,,,,,,,,,,,,,,,,,,,,,,3,3.2792,0,2,2,2,1,I am intrigued by the patterns I find in art and nature.,0,3,,
,,,,,,,,,,,,,,,89735,001,2022-04-28_14h47.12.994,SPAMnetsValid,2021.1.4,Win32,59.9880024,,,,,,,,,,,,,,,,,,,,,,,,,,,,,,,,,,,,,,,,,,,,,,,,,,,,,,,,,,,,,,,,,,,,,,,,,,,,,,2,3.6138,0,3,3,3,1,I believe letting students hear controversial speakers can only confuse and mislead them.,1,4,,
,,,,,,,,,,,,,,,89735,001,2022-04-28_14h47.12.994,SPAMnetsValid,2021.1.4,Win32,59.9880024,,,,,,,,,,,,,,,,,,,,,,,,,,,,,,,,,,,,,,,,,,,,,,,,,,,,,,,,,,,,,,,,,,,,,,,,,,,,,,3,3.5936,0,4,4,4,1,Poetry has little or no effect on me.,1,5,,
,,,,,,,,,,,,,,,89735,001,2022-04-28_14h47.12.994,SPAMnetsValid,2021.1.4,Win32,59.9880024,,,,,,,,,,,,,,,,,,,,,,,,,,,,,,,,,,,,,,,,,,,,,,,,,,,,,,,,,,,,,,,,,,,,,,,,,,,,,,3,121.6887,0,5,5,5,1,I would have difficulty just letting my mind wander without control or guidance.,1,6,,
,,,,,,,,,,,,,,,89735,001,2022-04-28_14h47.12.994,SPAMnetsValid,2021.1.4,Win32,59.9880024,,,,,,,,,,,,,,,,,,,,,,,,,,,,,,,,,,,,,,,,,,,,,,,,,,,,,,,,,,,,,,,,,,,,,,,,,,,,,,2,74.3291,0,6,6,6,1,I seldom notice the moods or feelings that different environments produce.,1,7,,
,,,,,,,,,,,,,,,89735,001,2022-04-28_14h47.12.994,SPAMnetsValid,2021.1.4,Win32,59.9880024,,,,,,,,,,,,,,,,,,,,,,,,,,,,,,,,,,,,,,,,,,,,,,,,,,,,,,,,,,,,,,,,,,,,,,,,,,,,,,4,22.7691,0,7,7,7,1,I experience a wide range of emotions or feelings.,0,8,,
,,,,,,,,,,,,,,,89735,001,2022-04-28_14h47.12.994,SPAMnetsValid,2021.1.4,Win32,59.9880024,,,,,,,,,,,,,,,,,,,,,,,,,,,,,,,,,,,,,,,,,,,,,,,,,,,,,,,,,,,,,,,,,,,,,,,,,,,,,,2,13.373,0,8,8,8,1,"Sometimes when I am reading poetry or looking at a work of art, I feel a chill or wave of excitement.",0,9,,
,,,,,,,,,,,,,,,89735,001,2022-04-28_14h47.12.994,SPAMnetsValid,2021.1.4,Win32,59.9880024,,,,,,,,,,,,,,,,,,,,,,,,,,,,,,,,,,,,,,,,,,,,,,,,,,,,,,,,,,,,,,,,,,,,,,,,,,,,,,2,8.966,0,9,9,9,1,I have little interest in speculating on the nature of the universe or the human condition.,1,10,,
,,,,,,,,,,,,,,,89735,001,2022-04-28_14h47.12.994,SPAMnetsValid,2021.1.4,Win32,59.9880024,,,,,,,,,,,,,,,,,,,,,,,,,,,,,,,,,,,,,,,,,,,,,,,,,,,,,,,,,,,,,,,,,,,,,,,,,,,,,,4,2.0529,0,10,10,10,1,I have a lot of intellectual curiosity.,0,11,,
,,,,,,,,,,,,,,,89735,001,2022-04-28_14h47.12.994,SPAMnetsValid,2021.1.4,Win32,59.9880024,,,,,,,,,,,,,,,,,,,,,,,,,,,,,,,,,,,,,,,,,,,,,,,,,,,,,,,,,,,,,,,,,,,,,,,,,,,,,,4,4.9985,0,11,11,11,1,I often enjoy playing with theories or abstract ideas.,0,12,,
,,,,,,,,,,,,,,,89735,001,2022-04-28_14h47.12.994,SPAMnetsValid,2021.1.4,Win32,59.9880024,,,,,,,,,,,,,,,,,,,,,,,,,,,,,,,,,,,,,,,,,,,,,,,,,,,,,,,,,,,,,,,,,,,,,,,,,,,,,,,,,,,,,,,,return,8.2925
