key_resp_3.keys,key_resp_3.rt,slider_2.response,slider_2.rt,rjt_rating,rjt_RT,trials_24.thisRepN,trials_24.thisTrialN,trials_24.thisN,trials_24.thisIndex,trials_24.ran,rjt_order,word1,word2,attention,participant,session,date,expName,psychopyVersion,OS,frameRate,trials_4.thisRepN,trials_4.thisTrialN,trials_4.thisN,trials_4.thisIndex,trials_4.ran,trials_5.thisRepN,trials_5.thisTrialN,trials_5.thisN,trials_5.thisIndex,trials_5.ran,repOne,repTwo,slider.response,slider.rt,trials_22.thisRepN,trials_22.thisTrialN,trials_22.thisN,trials_22.thisIndex,trials_22.ran,trials_99.thisRepN,trials_99.thisTrialN,trials_99.thisN,trials_99.thisIndex,trials_99.ran,slider_extend_2.response,slider_extend_2.rt,trials_6.thisRepN,trials_6.thisTrialN,trials_6.thisN,trials_6.thisIndex,trials_6.ran,vCue2,R1,R2,R3,R4,correct,sliderVocab.response,sliderVocab.rt,trials_7.thisRepN,trials_7.thisTrialN,trials_7.thisN,trials_7.thisIndex,trials_7.ran,VocabCue,VR1,VR2,VR3,VR4,VR5,VocabCorrect,AUT_resp,AUT_label,trials.thisRepN,trials.thisTrialN,trials.thisN,trials.thisIndex,trials.ran,trials_2.thisRepN,trials_2.thisTrialN,trials_2.thisN,trials_2.thisIndex,trials_2.ran,aut_prompt,VF_response,VF_tag,trials_16.thisRepN,trials_16.thisTrialN,trials_16.thisN,trials_16.thisIndex,trials_16.ran,trials_17.thisRepN,trials_17.thisTrialN,trials_17.thisN,trials_17.thisIndex,trials_17.ran,VFcond,open_slider.response,open_slider.rt,trials_3.thisRepN,trials_3.thisTrialN,trials_3.thisN,trials_3.thisIndex,trials_3.ran,OpenQ,Rev,OPEN_ORDER,key_resp_2.keys,key_resp_2.rt
return,5.0945,3,6.1147,3,6.1147,0,0,0,30,1,125,carrot,tree,,89761,001,2022-04-27_15h51.52.354,SPAMnetsValid,2021.1.4,Win32,58.2954413,,,,,,,,,,,,,,,,,,,,,,,,,,,,,,,,,,,,,,,,,,,,,,,,,,,,,,,,,,,,,,,,,,,,,,,,,,,,,,,,,,,,,,,,,
,,7,3.4133,7,3.4133,0,1,1,51,1,168,cactus,flower,,89761,001,2022-04-27_15h51.52.354,SPAMnetsValid,2021.1.4,Win32,58.2954413,,,,,,,,,,,,,,,,,,,,,,,,,,,,,,,,,,,,,,,,,,,,,,,,,,,,,,,,,,,,,,,,,,,,,,,,,,,,,,,,,,,,,,,,,
,,5,3.7958,5,3.7958,0,2,2,26,1,107,rose,tomato,,89761,001,2022-04-27_15h51.52.354,SPAMnetsValid,2021.1.4,Win32,58.2954413,,,,,,,,,,,,,,,,,,,,,,,,,,,,,,,,,,,,,,,,,,,,,,,,,,,,,,,,,,,,,,,,,,,,,,,,,,,,,,,,,,,,,,,,,
,,9,1.951,9,1.951,0,3,3,25,1,194,cactus,cactus,CHECK,89761,001,2022-04-27_15h51.52.354,SPAMnetsValid,2021.1.4,Win32,58.2954413,,,,,,,,,,,,,,,,,,,,,,,,,,,,,,,,,,,,,,,,,,,,,,,,,,,,,,,,,,,,,,,,,,,,,,,,,,,,,,,,,,,,,,,,,
,,1,1.9073,1,1.9073,0,4,4,4,1,109,broom,strawberry,,89761,001,2022-04-27_15h51.52.354,SPAMnetsValid,2021.1.4,Win32,58.2954413,,,,,,,,,,,,,,,,,,,,,,,,,,,,,,,,,,,,,,,,,,,,,,,,,,,,,,,,,,,,,,,,,,,,,,,,,,,,,,,,,,,,,,,,,
,,6,3.0732,6,3.0732,0,5,5,80,1,146,pretzel,tree,,89761,001,2022-04-27_15h51.52.354,SPAMnetsValid,2021.1.4,Win32,58.2954413,,,,,,,,,,,,,,,,,,,,,,,,,,,,,,,,,,,,,,,,,,,,,,,,,,,,,,,,,,,,,,,,,,,,,,,,,,,,,,,,,,,,,,,,,
,,2,1.4358,2,1.4358,0,6,6,84,1,130,microwave,yogurt,,89761,001,2022-04-27_15h51.52.354,SPAMnetsValid,2021.1.4,Win32,58.2954413,,,,,,,,,,,,,,,,,,,,,,,,,,,,,,,,,,,,,,,,,,,,,,,,,,,,,,,,,,,,,,,,,,,,,,,,,,,,,,,,,,,,,,,,,
,,6,3.7379,6,3.7379,0,7,7,35,1,147,cake,refrigerator,,89761,001,2022-04-27_15h51.52.354,SPAMnetsValid,2021.1.4,Win32,58.2954413,,,,,,,,,,,,,,,,,,,,,,,,,,,,,,,,,,,,,,,,,,,,,,,,,,,,,,,,,,,,,,,,,,,,,,,,,,,,,,,,,,,,,,,,,
,,6,2.799,6,2.799,0,8,8,36,1,161,kitchen,pretzel,,89761,001,2022-04-27_15h51.52.354,SPAMnetsValid,2021.1.4,Win32,58.2954413,,,,,,,,,,,,,,,,,,,,,,,,,,,,,,,,,,,,,,,,,,,,,,,,,,,,,,,,,,,,,,,,,,,,,,,,,,,,,,,,,,,,,,,,,
,,6,0.1042,6,0.1042,0,9,9,92,1,170,cookie,microwave,,89761,001,2022-04-27_15h51.52.354,SPAMnetsValid,2021.1.4,Win32,58.2954413,,,,,,,,,,,,,,,,,,,,,,,,,,,,,,,,,,,,,,,,,,,,,,,,,,,,,,,,,,,,,,,,,,,,,,,,,,,,,,,,,,,,,,,,,
,,9,1.6784,9,1.6784,0,10,10,44,1,116,cake,chocolate,,89761,001,2022-04-27_15h51.52.354,SPAMnetsValid,2021.1.4,Win32,58.2954413,,,,,,,,,,,,,,,,,,,,,,,,,,,,,,,,,,,,,,,,,,,,,,,,,,,,,,,,,,,,,,,,,,,,,,,,,,,,,,,,,,,,,,,,,
,,3,2.1512,3,2.1512,0,11,11,88,1,171,cake,tomato,,89761,001,2022-04-27_15h51.52.354,SPAMnetsValid,2021.1.4,Win32,58.2954413,,,,,,,,,,,,,,,,,,,,,,,,,,,,,,,,,,,,,,,,,,,,,,,,,,,,,,,,,,,,,,,,,,,,,,,,,,,,,,,,,,,,,,,,,
,,1,2.2373,1,2.2373,0,12,12,59,1,164,cookie,garden,,89761,001,2022-04-27_15h51.52.354,SPAMnetsValid,2021.1.4,Win32,58.2954413,,,,,,,,,,,,,,,,,,,,,,,,,,,,,,,,,,,,,,,,,,,,,,,,,,,,,,,,,,,,,,,,,,,,,,,,,,,,,,,,,,,,,,,,,
,,3,2.1663,3,2.1663,0,13,13,67,1,96,oven,strawberry,,89761,001,2022-04-27_15h51.52.354,SPAMnetsValid,2021.1.4,Win32,58.2954413,,,,,,,,,,,,,,,,,,,,,,,,,,,,,,,,,,,,,,,,,,,,,,,,,,,,,,,,,,,,,,,,,,,,,,,,,,,,,,,,,,,,,,,,,
,,5,2.8852,5,2.8852,0,14,14,6,1,151,microwave,onion,,89761,001,2022-04-27_15h51.52.354,SPAMnetsValid,2021.1.4,Win32,58.2954413,,,,,,,,,,,,,,,,,,,,,,,,,,,,,,,,,,,,,,,,,,,,,,,,,,,,,,,,,,,,,,,,,,,,,,,,,,,,,,,,,,,,,,,,,
,,4,1.6815,4,1.6815,0,15,15,87,1,114,cookie,strawberry,,89761,001,2022-04-27_15h51.52.354,SPAMnetsValid,2021.1.4,Win32,58.2954413,,,,,,,,,,,,,,,,,,,,,,,,,,,,,,,,,,,,,,,,,,,,,,,,,,,,,,,,,,,,,,,,,,,,,,,,,,,,,,,,,,,,,,,,,
,,9,1.7346,9,1.7346,0,16,16,60,1,122,flower,garden,,89761,001,2022-04-27_15h51.52.354,SPAMnetsValid,2021.1.4,Win32,58.2954413,,,,,,,,,,,,,,,,,,,,,,,,,,,,,,,,,,,,,,,,,,,,,,,,,,,,,,,,,,,,,,,,,,,,,,,,,,,,,,,,,,,,,,,,,
,,9,1.6786,9,1.6786,0,17,17,17,1,99,garden,melon,,89761,001,2022-04-27_15h51.52.354,SPAMnetsValid,2021.1.4,Win32,58.2954413,,,,,,,,,,,,,,,,,,,,,,,,,,,,,,,,,,,,,,,,,,,,,,,,,,,,,,,,,,,,,,,,,,,,,,,,,,,,,,,,,,,,,,,,,
,,9,1.0026,9,1.0026,0,18,18,22,1,142,garden,tree,,89761,001,2022-04-27_15h51.52.354,SPAMnetsValid,2021.1.4,Win32,58.2954413,,,,,,,,,,,,,,,,,,,,,,,,,,,,,,,,,,,,,,,,,,,,,,,,,,,,,,,,,,,,,,,,,,,,,,,,,,,,,,,,,,,,,,,,,
,,7,1.9173,7,1.9173,0,19,19,42,1,184,oven,pretzel,,89761,001,2022-04-27_15h51.52.354,SPAMnetsValid,2021.1.4,Win32,58.2954413,,,,,,,,,,,,,,,,,,,,,,,,,,,,,,,,,,,,,,,,,,,,,,,,,,,,,,,,,,,,,,,,,,,,,,,,,,,,,,,,,,,,,,,,,
,,2,2.2927,2,2.2927,0,20,20,2,1,174,cake,pretzel,,89761,001,2022-04-27_15h51.52.354,SPAMnetsValid,2021.1.4,Win32,58.2954413,,,,,,,,,,,,,,,,,,,,,,,,,,,,,,,,,,,,,,,,,,,,,,,,,,,,,,,,,,,,,,,,,,,,,,,,,,,,,,,,,,,,,,,,,
,,1,1.5046,1,1.5046,0,21,21,71,1,187,cactus,microwave,,89761,001,2022-04-27_15h51.52.354,SPAMnetsValid,2021.1.4,Win32,58.2954413,,,,,,,,,,,,,,,,,,,,,,,,,,,,,,,,,,,,,,,,,,,,,,,,,,,,,,,,,,,,,,,,,,,,,,,,,,,,,,,,,,,,,,,,,
,,1,1.5044,1,1.5044,0,22,22,3,1,129,cactus,refrigerator,,89761,001,2022-04-27_15h51.52.354,SPAMnetsValid,2021.1.4,Win32,58.2954413,,,,,,,,,,,,,,,,,,,,,,,,,,,,,,,,,,,,,,,,,,,,,,,,,,,,,,,,,,,,,,,,,,,,,,,,,,,,,,,,,,,,,,,,,
,,6,2.0215,6,2.0215,0,23,23,85,1,115,refrigerator,tomato,,89761,001,2022-04-27_15h51.52.354,SPAMnetsValid,2021.1.4,Win32,58.2954413,,,,,,,,,,,,,,,,,,,,,,,,,,,,,,,,,,,,,,,,,,,,,,,,,,,,,,,,,,,,,,,,,,,,,,,,,,,,,,,,,,,,,,,,,
,,9,2.1047,9,2.1047,0,24,24,86,1,193,melon,melon,CHECK,89761,001,2022-04-27_15h51.52.354,SPAMnetsValid,2021.1.4,Win32,58.2954413,,,,,,,,,,,,,,,,,,,,,,,,,,,,,,,,,,,,,,,,,,,,,,,,,,,,,,,,,,,,,,,,,,,,,,,,,,,,,,,,,,,,,,,,,
,,8,2.5052,8,2.5052,0,25,25,65,1,160,cookie,kitchen,,89761,001,2022-04-27_15h51.52.354,SPAMnetsValid,2021.1.4,Win32,58.2954413,,,,,,,,,,,,,,,,,,,,,,,,,,,,,,,,,,,,,,,,,,,,,,,,,,,,,,,,,,,,,,,,,,,,,,,,,,,,,,,,,,,,,,,,,
,,2,1.9734,2,1.9734,0,26,26,49,1,152,cactus,strawberry,,89761,001,2022-04-27_15h51.52.354,SPAMnetsValid,2021.1.4,Win32,58.2954413,,,,,,,,,,,,,,,,,,,,,,,,,,,,,,,,,,,,,,,,,,,,,,,,,,,,,,,,,,,,,,,,,,,,,,,,,,,,,,,,,,,,,,,,,
,,9,2.0641,9,2.0641,0,27,27,61,1,138,flower,rose,,89761,001,2022-04-27_15h51.52.354,SPAMnetsValid,2021.1.4,Win32,58.2954413,,,,,,,,,,,,,,,,,,,,,,,,,,,,,,,,,,,,,,,,,,,,,,,,,,,,,,,,,,,,,,,,,,,,,,,,,,,,,,,,,,,,,,,,,
,,9,1.4083,9,1.4083,0,28,28,74,1,128,melon,microwave,,89761,001,2022-04-27_15h51.52.354,SPAMnetsValid,2021.1.4,Win32,58.2954413,,,,,,,,,,,,,,,,,,,,,,,,,,,,,,,,,,,,,,,,,,,,,,,,,,,,,,,,,,,,,,,,,,,,,,,,,,,,,,,,,,,,,,,,,
,,3,2.4006,3,2.4006,0,29,29,32,1,182,flower,refrigerator,,89761,001,2022-04-27_15h51.52.354,SPAMnetsValid,2021.1.4,Win32,58.2954413,,,,,,,,,,,,,,,,,,,,,,,,,,,,,,,,,,,,,,,,,,,,,,,,,,,,,,,,,,,,,,,,,,,,,,,,,,,,,,,,,,,,,,,,,
,,7,1.9965,7,1.9965,0,30,30,39,1,112,cake,carrot,,89761,001,2022-04-27_15h51.52.354,SPAMnetsValid,2021.1.4,Win32,58.2954413,,,,,,,,,,,,,,,,,,,,,,,,,,,,,,,,,,,,,,,,,,,,,,,,,,,,,,,,,,,,,,,,,,,,,,,,,,,,,,,,,,,,,,,,,
,,7,2.1429,7,2.1429,0,31,31,27,1,158,cookie,oven,,89761,001,2022-04-27_15h51.52.354,SPAMnetsValid,2021.1.4,Win32,58.2954413,,,,,,,,,,,,,,,,,,,,,,,,,,,,,,,,,,,,,,,,,,,,,,,,,,,,,,,,,,,,,,,,,,,,,,,,,,,,,,,,,,,,,,,,,
,,9,1.7224,9,1.7224,0,32,32,66,1,150,microwave,refrigerator,,89761,001,2022-04-27_15h51.52.354,SPAMnetsValid,2021.1.4,Win32,58.2954413,,,,,,,,,,,,,,,,,,,,,,,,,,,,,,,,,,,,,,,,,,,,,,,,,,,,,,,,,,,,,,,,,,,,,,,,,,,,,,,,,,,,,,,,,
,,1,1.7806,1,1.7806,0,33,33,34,1,153,carrot,pretzel,,89761,001,2022-04-27_15h51.52.354,SPAMnetsValid,2021.1.4,Win32,58.2954413,,,,,,,,,,,,,,,,,,,,,,,,,,,,,,,,,,,,,,,,,,,,,,,,,,,,,,,,,,,,,,,,,,,,,,,,,,,,,,,,,,,,,,,,,
,,2,1.5569,2,1.5569,0,34,34,45,1,179,broom,oven,,89761,001,2022-04-27_15h51.52.354,SPAMnetsValid,2021.1.4,Win32,58.2954413,,,,,,,,,,,,,,,,,,,,,,,,,,,,,,,,,,,,,,,,,,,,,,,,,,,,,,,,,,,,,,,,,,,,,,,,,,,,,,,,,,,,,,,,,
,,7,2.2895,7,2.2895,0,35,35,56,1,113,refrigerator,strawberry,,89761,001,2022-04-27_15h51.52.354,SPAMnetsValid,2021.1.4,Win32,58.2954413,,,,,,,,,,,,,,,,,,,,,,,,,,,,,,,,,,,,,,,,,,,,,,,,,,,,,,,,,,,,,,,,,,,,,,,,,,,,,,,,,,,,,,,,,
,,2,1.9015,2,1.9015,0,36,36,78,1,132,broom,tree,,89761,001,2022-04-27_15h51.52.354,SPAMnetsValid,2021.1.4,Win32,58.2954413,,,,,,,,,,,,,,,,,,,,,,,,,,,,,,,,,,,,,,,,,,,,,,,,,,,,,,,,,,,,,,,,,,,,,,,,,,,,,,,,,,,,,,,,,
,,1,2.6078,1,2.6078,0,37,37,55,1,143,pretzel,rose,,89761,001,2022-04-27_15h51.52.354,SPAMnetsValid,2021.1.4,Win32,58.2954413,,,,,,,,,,,,,,,,,,,,,,,,,,,,,,,,,,,,,,,,,,,,,,,,,,,,,,,,,,,,,,,,,,,,,,,,,,,,,,,,,,,,,,,,,
,,1,1.2377,1,1.2377,0,38,38,64,1,157,refrigerator,rose,,89761,001,2022-04-27_15h51.52.354,SPAMnetsValid,2021.1.4,Win32,58.2954413,,,,,,,,,,,,,,,,,,,,,,,,,,,,,,,,,,,,,,,,,,,,,,,,,,,,,,,,,,,,,,,,,,,,,,,,,,,,,,,,,,,,,,,,,
,,7,1.6181,7,1.6181,0,39,39,29,1,163,melon,refrigerator,,89761,001,2022-04-27_15h51.52.354,SPAMnetsValid,2021.1.4,Win32,58.2954413,,,,,,,,,,,,,,,,,,,,,,,,,,,,,,,,,,,,,,,,,,,,,,,,,,,,,,,,,,,,,,,,,,,,,,,,,,,,,,,,,,,,,,,,,
,,8,3.4697,8,3.4697,0,40,40,7,1,188,flower,tree,,89761,001,2022-04-27_15h51.52.354,SPAMnetsValid,2021.1.4,Win32,58.2954413,,,,,,,,,,,,,,,,,,,,,,,,,,,,,,,,,,,,,,,,,,,,,,,,,,,,,,,,,,,,,,,,,,,,,,,,,,,,,,,,,,,,,,,,,
,,6,1.9465,6,1.9465,0,41,41,89,1,140,cookie,refrigerator,,89761,001,2022-04-27_15h51.52.354,SPAMnetsValid,2021.1.4,Win32,58.2954413,,,,,,,,,,,,,,,,,,,,,,,,,,,,,,,,,,,,,,,,,,,,,,,,,,,,,,,,,,,,,,,,,,,,,,,,,,,,,,,,,,,,,,,,,
,,9,2.2899,9,2.2899,0,42,42,83,1,100,garden,tomato,,89761,001,2022-04-27_15h51.52.354,SPAMnetsValid,2021.1.4,Win32,58.2954413,,,,,,,,,,,,,,,,,,,,,,,,,,,,,,,,,,,,,,,,,,,,,,,,,,,,,,,,,,,,,,,,,,,,,,,,,,,,,,,,,,,,,,,,,
,,2,2.1408,2,2.1408,0,43,43,68,1,180,tree,yogurt,,89761,001,2022-04-27_15h51.52.354,SPAMnetsValid,2021.1.4,Win32,58.2954413,,,,,,,,,,,,,,,,,,,,,,,,,,,,,,,,,,,,,,,,,,,,,,,,,,,,,,,,,,,,,,,,,,,,,,,,,,,,,,,,,,,,,,,,,
,,2,2.4587,2,2.4587,0,44,44,90,1,190,microwave,strawberry,,89761,001,2022-04-27_15h51.52.354,SPAMnetsValid,2021.1.4,Win32,58.2954413,,,,,,,,,,,,,,,,,,,,,,,,,,,,,,,,,,,,,,,,,,,,,,,,,,,,,,,,,,,,,,,,,,,,,,,,,,,,,,,,,,,,,,,,,
,,2,1.0422,2,1.0422,0,45,45,12,1,162,microwave,tomato,,89761,001,2022-04-27_15h51.52.354,SPAMnetsValid,2021.1.4,Win32,58.2954413,,,,,,,,,,,,,,,,,,,,,,,,,,,,,,,,,,,,,,,,,,,,,,,,,,,,,,,,,,,,,,,,,,,,,,,,,,,,,,,,,,,,,,,,,
,,4,2.012,4,2.012,0,46,46,91,1,166,cake,yogurt,,89761,001,2022-04-27_15h51.52.354,SPAMnetsValid,2021.1.4,Win32,58.2954413,,,,,,,,,,,,,,,,,,,,,,,,,,,,,,,,,,,,,,,,,,,,,,,,,,,,,,,,,,,,,,,,,,,,,,,,,,,,,,,,,,,,,,,,,
,,1,1.6595,1,1.6595,0,47,47,63,1,137,microwave,tree,,89761,001,2022-04-27_15h51.52.354,SPAMnetsValid,2021.1.4,Win32,58.2954413,,,,,,,,,,,,,,,,,,,,,,,,,,,,,,,,,,,,,,,,,,,,,,,,,,,,,,,,,,,,,,,,,,,,,,,,,,,,,,,,,,,,,,,,,
,,4,2.2081,4,2.2081,0,48,48,37,1,139,carrot,strawberry,,89761,001,2022-04-27_15h51.52.354,SPAMnetsValid,2021.1.4,Win32,58.2954413,,,,,,,,,,,,,,,,,,,,,,,,,,,,,,,,,,,,,,,,,,,,,,,,,,,,,,,,,,,,,,,,,,,,,,,,,,,,,,,,,,,,,,,,,
,,4,1.8612,4,1.8612,0,49,49,28,1,154,strawberry,yogurt,,89761,001,2022-04-27_15h51.52.354,SPAMnetsValid,2021.1.4,Win32,58.2954413,,,,,,,,,,,,,,,,,,,,,,,,,,,,,,,,,,,,,,,,,,,,,,,,,,,,,,,,,,,,,,,,,,,,,,,,,,,,,,,,,,,,,,,,,
,,9,1.9105,9,1.9105,0,50,50,69,1,124,oven,refrigerator,,89761,001,2022-04-27_15h51.52.354,SPAMnetsValid,2021.1.4,Win32,58.2954413,,,,,,,,,,,,,,,,,,,,,,,,,,,,,,,,,,,,,,,,,,,,,,,,,,,,,,,,,,,,,,,,,,,,,,,,,,,,,,,,,,,,,,,,,
,,3,1.7211,3,1.7211,0,51,51,73,1,135,carrot,oven,,89761,001,2022-04-27_15h51.52.354,SPAMnetsValid,2021.1.4,Win32,58.2954413,,,,,,,,,,,,,,,,,,,,,,,,,,,,,,,,,,,,,,,,,,,,,,,,,,,,,,,,,,,,,,,,,,,,,,,,,,,,,,,,,,,,,,,,,
,,3,1.1648,3,1.1648,0,52,52,38,1,155,carrot,cookie,,89761,001,2022-04-27_15h51.52.354,SPAMnetsValid,2021.1.4,Win32,58.2954413,,,,,,,,,,,,,,,,,,,,,,,,,,,,,,,,,,,,,,,,,,,,,,,,,,,,,,,,,,,,,,,,,,,,,,,,,,,,,,,,,,,,,,,,,
,,2,1.6483,2,1.6483,0,53,53,40,1,165,onion,rose,,89761,001,2022-04-27_15h51.52.354,SPAMnetsValid,2021.1.4,Win32,58.2954413,,,,,,,,,,,,,,,,,,,,,,,,,,,,,,,,,,,,,,,,,,,,,,,,,,,,,,,,,,,,,,,,,,,,,,,,,,,,,,,,,,,,,,,,,
,,2,1.1608,2,1.1608,0,54,54,46,1,123,cookie,tree,,89761,001,2022-04-27_15h51.52.354,SPAMnetsValid,2021.1.4,Win32,58.2954413,,,,,,,,,,,,,,,,,,,,,,,,,,,,,,,,,,,,,,,,,,,,,,,,,,,,,,,,,,,,,,,,,,,,,,,,,,,,,,,,,,,,,,,,,
,,2,1.4015,2,1.4015,0,55,55,82,1,98,pretzel,strawberry,,89761,001,2022-04-27_15h51.52.354,SPAMnetsValid,2021.1.4,Win32,58.2954413,,,,,,,,,,,,,,,,,,,,,,,,,,,,,,,,,,,,,,,,,,,,,,,,,,,,,,,,,,,,,,,,,,,,,,,,,,,,,,,,,,,,,,,,,
,,7,1.8193,7,1.8193,0,56,56,48,1,186,kitchen,yogurt,,89761,001,2022-04-27_15h51.52.354,SPAMnetsValid,2021.1.4,Win32,58.2954413,,,,,,,,,,,,,,,,,,,,,,,,,,,,,,,,,,,,,,,,,,,,,,,,,,,,,,,,,,,,,,,,,,,,,,,,,,,,,,,,,,,,,,,,,
,,3,2.3468,3,2.3468,0,57,57,5,1,108,carrot,chocolate,,89761,001,2022-04-27_15h51.52.354,SPAMnetsValid,2021.1.4,Win32,58.2954413,,,,,,,,,,,,,,,,,,,,,,,,,,,,,,,,,,,,,,,,,,,,,,,,,,,,,,,,,,,,,,,,,,,,,,,,,,,,,,,,,,,,,,,,,
,,3,1.1693,3,1.1693,0,58,58,19,1,183,cake,rose,,89761,001,2022-04-27_15h51.52.354,SPAMnetsValid,2021.1.4,Win32,58.2954413,,,,,,,,,,,,,,,,,,,,,,,,,,,,,,,,,,,,,,,,,,,,,,,,,,,,,,,,,,,,,,,,,,,,,,,,,,,,,,,,,,,,,,,,,
,,3,0.9437,3,0.9437,0,59,59,53,1,177,chocolate,strawberry,,89761,001,2022-04-27_15h51.52.354,SPAMnetsValid,2021.1.4,Win32,58.2954413,,,,,,,,,,,,,,,,,,,,,,,,,,,,,,,,,,,,,,,,,,,,,,,,,,,,,,,,,,,,,,,,,,,,,,,,,,,,,,,,,,,,,,,,,
,,3,1.4382,3,1.4382,0,60,60,9,1,176,cactus,tomato,,89761,001,2022-04-27_15h51.52.354,SPAMnetsValid,2021.1.4,Win32,58.2954413,,,,,,,,,,,,,,,,,,,,,,,,,,,,,,,,,,,,,,,,,,,,,,,,,,,,,,,,,,,,,,,,,,,,,,,,,,,,,,,,,,,,,,,,,
,,8,1.642,8,1.642,0,61,61,47,1,167,carrot,garden,,89761,001,2022-04-27_15h51.52.354,SPAMnetsValid,2021.1.4,Win32,58.2954413,,,,,,,,,,,,,,,,,,,,,,,,,,,,,,,,,,,,,,,,,,,,,,,,,,,,,,,,,,,,,,,,,,,,,,,,,,,,,,,,,,,,,,,,,
,,3,2.0977,3,2.0977,0,62,62,50,1,126,kitchen,tree,,89761,001,2022-04-27_15h51.52.354,SPAMnetsValid,2021.1.4,Win32,58.2954413,,,,,,,,,,,,,,,,,,,,,,,,,,,,,,,,,,,,,,,,,,,,,,,,,,,,,,,,,,,,,,,,,,,,,,,,,,,,,,,,,,,,,,,,,
,,3,1.2389,3,1.2389,0,63,63,54,1,101,cactus,kitchen,,89761,001,2022-04-27_15h51.52.354,SPAMnetsValid,2021.1.4,Win32,58.2954413,,,,,,,,,,,,,,,,,,,,,,,,,,,,,,,,,,,,,,,,,,,,,,,,,,,,,,,,,,,,,,,,,,,,,,,,,,,,,,,,,,,,,,,,,
,,8,1.7738,8,1.7738,0,64,64,79,1,103,pretzel,tomato,,89761,001,2022-04-27_15h51.52.354,SPAMnetsValid,2021.1.4,Win32,58.2954413,,,,,,,,,,,,,,,,,,,,,,,,,,,,,,,,,,,,,,,,,,,,,,,,,,,,,,,,,,,,,,,,,,,,,,,,,,,,,,,,,,,,,,,,,
,,8,1.9074,8,1.9074,0,65,65,77,1,172,kitchen,melon,,89761,001,2022-04-27_15h51.52.354,SPAMnetsValid,2021.1.4,Win32,58.2954413,,,,,,,,,,,,,,,,,,,,,,,,,,,,,,,,,,,,,,,,,,,,,,,,,,,,,,,,,,,,,,,,,,,,,,,,,,,,,,,,,,,,,,,,,
,,3,3.0708,3,3.0708,0,66,66,75,1,178,cactus,carrot,,89761,001,2022-04-27_15h51.52.354,SPAMnetsValid,2021.1.4,Win32,58.2954413,,,,,,,,,,,,,,,,,,,,,,,,,,,,,,,,,,,,,,,,,,,,,,,,,,,,,,,,,,,,,,,,,,,,,,,,,,,,,,,,,,,,,,,,,
,,3,1.6306,3,1.6306,0,67,67,94,1,133,cake,flower,,89761,001,2022-04-27_15h51.52.354,SPAMnetsValid,2021.1.4,Win32,58.2954413,,,,,,,,,,,,,,,,,,,,,,,,,,,,,,,,,,,,,,,,,,,,,,,,,,,,,,,,,,,,,,,,,,,,,,,,,,,,,,,,,,,,,,,,,
,,7,1.3606,7,1.3606,0,68,68,76,1,102,chocolate,refrigerator,,89761,001,2022-04-27_15h51.52.354,SPAMnetsValid,2021.1.4,Win32,58.2954413,,,,,,,,,,,,,,,,,,,,,,,,,,,,,,,,,,,,,,,,,,,,,,,,,,,,,,,,,,,,,,,,,,,,,,,,,,,,,,,,,,,,,,,,,
,,7,1.0487,7,1.0487,0,69,69,11,1,117,melon,strawberry,,89761,001,2022-04-27_15h51.52.354,SPAMnetsValid,2021.1.4,Win32,58.2954413,,,,,,,,,,,,,,,,,,,,,,,,,,,,,,,,,,,,,,,,,,,,,,,,,,,,,,,,,,,,,,,,,,,,,,,,,,,,,,,,,,,,,,,,,
,,2,2.4468,2,2.4468,0,70,70,58,1,144,cake,garden,,89761,001,2022-04-27_15h51.52.354,SPAMnetsValid,2021.1.4,Win32,58.2954413,,,,,,,,,,,,,,,,,,,,,,,,,,,,,,,,,,,,,,,,,,,,,,,,,,,,,,,,,,,,,,,,,,,,,,,,,,,,,,,,,,,,,,,,,
,,3,0.9564,3,0.9564,0,71,71,43,1,185,cactus,rose,,89761,001,2022-04-27_15h51.52.354,SPAMnetsValid,2021.1.4,Win32,58.2954413,,,,,,,,,,,,,,,,,,,,,,,,,,,,,,,,,,,,,,,,,,,,,,,,,,,,,,,,,,,,,,,,,,,,,,,,,,,,,,,,,,,,,,,,,
,,3,1.1538,3,1.1538,0,72,72,21,1,159,cookie,flower,,89761,001,2022-04-27_15h51.52.354,SPAMnetsValid,2021.1.4,Win32,58.2954413,,,,,,,,,,,,,,,,,,,,,,,,,,,,,,,,,,,,,,,,,,,,,,,,,,,,,,,,,,,,,,,,,,,,,,,,,,,,,,,,,,,,,,,,,
,,2,29.9596,2,29.9596,0,73,73,33,1,131,cactus,garden,,89761,001,2022-04-27_15h51.52.354,SPAMnetsValid,2021.1.4,Win32,58.2954413,,,,,,,,,,,,,,,,,,,,,,,,,,,,,,,,,,,,,,,,,,,,,,,,,,,,,,,,,,,,,,,,,,,,,,,,,,,,,,,,,,,,,,,,,
,,2,1.2139,2,1.2139,0,74,74,95,1,121,broom,microwave,,89761,001,2022-04-27_15h51.52.354,SPAMnetsValid,2021.1.4,Win32,58.2954413,,,,,,,,,,,,,,,,,,,,,,,,,,,,,,,,,,,,,,,,,,,,,,,,,,,,,,,,,,,,,,,,,,,,,,,,,,,,,,,,,,,,,,,,,
,,2,1.2547,2,1.2547,0,75,75,16,1,111,carrot,microwave,,89761,001,2022-04-27_15h51.52.354,SPAMnetsValid,2021.1.4,Win32,58.2954413,,,,,,,,,,,,,,,,,,,,,,,,,,,,,,,,,,,,,,,,,,,,,,,,,,,,,,,,,,,,,,,,,,,,,,,,,,,,,,,,,,,,,,,,,
,,8,3.1065,8,3.1065,0,76,76,52,1,110,chocolate,cookie,,89761,001,2022-04-27_15h51.52.354,SPAMnetsValid,2021.1.4,Win32,58.2954413,,,,,,,,,,,,,,,,,,,,,,,,,,,,,,,,,,,,,,,,,,,,,,,,,,,,,,,,,,,,,,,,,,,,,,,,,,,,,,,,,,,,,,,,,
,,2,1.2994,2,1.2994,0,77,77,24,1,169,onion,yogurt,,89761,001,2022-04-27_15h51.52.354,SPAMnetsValid,2021.1.4,Win32,58.2954413,,,,,,,,,,,,,,,,,,,,,,,,,,,,,,,,,,,,,,,,,,,,,,,,,,,,,,,,,,,,,,,,,,,,,,,,,,,,,,,,,,,,,,,,,
,,7,1.4494,7,1.4494,0,78,78,93,1,134,carrot,flower,,89761,001,2022-04-27_15h51.52.354,SPAMnetsValid,2021.1.4,Win32,58.2954413,,,,,,,,,,,,,,,,,,,,,,,,,,,,,,,,,,,,,,,,,,,,,,,,,,,,,,,,,,,,,,,,,,,,,,,,,,,,,,,,,,,,,,,,,
,,9,0.4074,9,0.4074,0,79,79,18,1,119,strawberry,tree,,89761,001,2022-04-27_15h51.52.354,SPAMnetsValid,2021.1.4,Win32,58.2954413,,,,,,,,,,,,,,,,,,,,,,,,,,,,,,,,,,,,,,,,,,,,,,,,,,,,,,,,,,,,,,,,,,,,,,,,,,,,,,,,,,,,,,,,,
,,6,0.1048,6,0.1048,0,80,80,96,1,136,chocolate,microwave,,89761,001,2022-04-27_15h51.52.354,SPAMnetsValid,2021.1.4,Win32,58.2954413,,,,,,,,,,,,,,,,,,,,,,,,,,,,,,,,,,,,,,,,,,,,,,,,,,,,,,,,,,,,,,,,,,,,,,,,,,,,,,,,,,,,,,,,,
,,8,1.385,8,1.385,0,81,81,23,1,148,flower,melon,,89761,001,2022-04-27_15h51.52.354,SPAMnetsValid,2021.1.4,Win32,58.2954413,,,,,,,,,,,,,,,,,,,,,,,,,,,,,,,,,,,,,,,,,,,,,,,,,,,,,,,,,,,,,,,,,,,,,,,,,,,,,,,,,,,,,,,,,
,,1,1.2687,1,1.2687,0,82,82,13,1,105,cactus,oven,,89761,001,2022-04-27_15h51.52.354,SPAMnetsValid,2021.1.4,Win32,58.2954413,,,,,,,,,,,,,,,,,,,,,,,,,,,,,,,,,,,,,,,,,,,,,,,,,,,,,,,,,,,,,,,,,,,,,,,,,,,,,,,,,,,,,,,,,
,,7,7.2663,7,7.2663,0,83,83,72,1,181,carrot,kitchen,,89761,001,2022-04-27_15h51.52.354,SPAMnetsValid,2021.1.4,Win32,58.2954413,,,,,,,,,,,,,,,,,,,,,,,,,,,,,,,,,,,,,,,,,,,,,,,,,,,,,,,,,,,,,,,,,,,,,,,,,,,,,,,,,,,,,,,,,
,,7,0.8942,7,0.8942,0,84,84,0,1,106,cake,strawberry,,89761,001,2022-04-27_15h51.52.354,SPAMnetsValid,2021.1.4,Win32,58.2954413,,,,,,,,,,,,,,,,,,,,,,,,,,,,,,,,,,,,,,,,,,,,,,,,,,,,,,,,,,,,,,,,,,,,,,,,,,,,,,,,,,,,,,,,,
,,8,1.5379,8,1.5379,0,85,85,8,1,97,chocolate,kitchen,,89761,001,2022-04-27_15h51.52.354,SPAMnetsValid,2021.1.4,Win32,58.2954413,,,,,,,,,,,,,,,,,,,,,,,,,,,,,,,,,,,,,,,,,,,,,,,,,,,,,,,,,,,,,,,,,,,,,,,,,,,,,,,,,,,,,,,,,
,,7,1.9881,7,1.9881,0,86,86,10,1,118,chocolate,oven,,89761,001,2022-04-27_15h51.52.354,SPAMnetsValid,2021.1.4,Win32,58.2954413,,,,,,,,,,,,,,,,,,,,,,,,,,,,,,,,,,,,,,,,,,,,,,,,,,,,,,,,,,,,,,,,,,,,,,,,,,,,,,,,,,,,,,,,,
,,4,1.7267,4,1.7267,0,87,87,70,1,141,melon,tomato,,89761,001,2022-04-27_15h51.52.354,SPAMnetsValid,2021.1.4,Win32,58.2954413,,,,,,,,,,,,,,,,,,,,,,,,,,,,,,,,,,,,,,,,,,,,,,,,,,,,,,,,,,,,,,,,,,,,,,,,,,,,,,,,,,,,,,,,,
,,4,2.301,4,2.301,0,88,88,62,1,189,onion,tree,,89761,001,2022-04-27_15h51.52.354,SPAMnetsValid,2021.1.4,Win32,58.2954413,,,,,,,,,,,,,,,,,,,,,,,,,,,,,,,,,,,,,,,,,,,,,,,,,,,,,,,,,,,,,,,,,,,,,,,,,,,,,,,,,,,,,,,,,
,,1,2.1275,1,2.1275,0,89,89,57,1,127,cactus,chocolate,,89761,001,2022-04-27_15h51.52.354,SPAMnetsValid,2021.1.4,Win32,58.2954413,,,,,,,,,,,,,,,,,,,,,,,,,,,,,,,,,,,,,,,,,,,,,,,,,,,,,,,,,,,,,,,,,,,,,,,,,,,,,,,,,,,,,,,,,
,,1,1.1579,1,1.1579,0,90,90,20,1,149,broom,tomato,,89761,001,2022-04-27_15h51.52.354,SPAMnetsValid,2021.1.4,Win32,58.2954413,,,,,,,,,,,,,,,,,,,,,,,,,,,,,,,,,,,,,,,,,,,,,,,,,,,,,,,,,,,,,,,,,,,,,,,,,,,,,,,,,,,,,,,,,
,,1,1.1316,1,1.1316,0,91,91,15,1,145,cactus,yogurt,,89761,001,2022-04-27_15h51.52.354,SPAMnetsValid,2021.1.4,Win32,58.2954413,,,,,,,,,,,,,,,,,,,,,,,,,,,,,,,,,,,,,,,,,,,,,,,,,,,,,,,,,,,,,,,,,,,,,,,,,,,,,,,,,,,,,,,,,
,,1,2.3067,1,2.3067,0,92,92,81,1,104,garden,microwave,,89761,001,2022-04-27_15h51.52.354,SPAMnetsValid,2021.1.4,Win32,58.2954413,,,,,,,,,,,,,,,,,,,,,,,,,,,,,,,,,,,,,,,,,,,,,,,,,,,,,,,,,,,,,,,,,,,,,,,,,,,,,,,,,,,,,,,,,
,,8,2.1955,8,2.1955,0,93,93,1,1,173,kitchen,tomato,,89761,001,2022-04-27_15h51.52.354,SPAMnetsValid,2021.1.4,Win32,58.2954413,,,,,,,,,,,,,,,,,,,,,,,,,,,,,,,,,,,,,,,,,,,,,,,,,,,,,,,,,,,,,,,,,,,,,,,,,,,,,,,,,,,,,,,,,
,,6,1.8695,6,1.8695,0,94,94,31,1,156,melon,rose,,89761,001,2022-04-27_15h51.52.354,SPAMnetsValid,2021.1.4,Win32,58.2954413,,,,,,,,,,,,,,,,,,,,,,,,,,,,,,,,,,,,,,,,,,,,,,,,,,,,,,,,,,,,,,,,,,,,,,,,,,,,,,,,,,,,,,,,,
,,6,1.7172,6,1.7172,0,95,95,14,1,120,microwave,oven,,89761,001,2022-04-27_15h51.52.354,SPAMnetsValid,2021.1.4,Win32,58.2954413,,,,,,,,,,,,,,,,,,,,,,,,,,,,,,,,,,,,,,,,,,,,,,,,,,,,,,,,,,,,,,,,,,,,,,,,,,,,,,,,,,,,,,,,,
,,4,1.6967,4,1.6967,0,96,96,41,1,175,melon,onion,,89761,001,2022-04-27_15h51.52.354,SPAMnetsValid,2021.1.4,Win32,58.2954413,,,,,,,,,,,,,,,,,,,,,,,,,,,,,,,,,,,,,,,,,,,,,,,,,,,,,,,,,,,,,,,,,,,,,,,,,,,,,,,,,,,,,,,,,
,,,,,,,,,,,,,,,89761,001,2022-04-27_15h51.52.354,SPAMnetsValid,2021.1.4,Win32,58.2954413,0,0,0,0,1,,,,,,,,,,,,,,,,,,,,,,,,,,,,,,,,,,,,,,,,,,,,,,,,,,,,,,,,,,,,,,,,,,,,,,,,,,,,,,,,,,,,
,,,,,,,,,,,,,,,89761,001,2022-04-27_15h51.52.354,SPAMnetsValid,2021.1.4,Win32,58.2954413,,,,,,0,0,0,1,1,0,1,,,,,,,,,,,,,,,,,,,,,,,,,,,,,,,,,,,,,,,,,,,,,,,,,,,,,,,,,,,,,,,,,,,,,,,,,,,,,
,,,,3,1.2066,,,,,,93,kitchen,oven,,89761,001,2022-04-27_15h51.52.354,SPAMnetsValid,2021.1.4,Win32,58.2954413,,,,,,,,,,,,,3,1.2066,0,0,0,82,1,,,,,,,,,,,,,,,,,,,,,,,,,,,,,,,,,,,,,,,,,,,,,,,,,,,,,,,,,,,,,,,,,,,,,,
,,,,3,0.7753,,,,,,48,flower,oven,,89761,001,2022-04-27_15h51.52.354,SPAMnetsValid,2021.1.4,Win32,58.2954413,,,,,,,,,,,,,3,0.7753,0,1,1,15,1,,,,,,,,,,,,,,,,,,,,,,,,,,,,,,,,,,,,,,,,,,,,,,,,,,,,,,,,,,,,,,,,,,,,,,
,,,,3,2.5551,,,,,,57,flower,kitchen,,89761,001,2022-04-27_15h51.52.354,SPAMnetsValid,2021.1.4,Win32,58.2954413,,,,,,,,,,,,,3,2.5551,0,2,2,49,1,,,,,,,,,,,,,,,,,,,,,,,,,,,,,,,,,,,,,,,,,,,,,,,,,,,,,,,,,,,,,,,,,,,,,,
,,,,3,1.0054,,,,,,36,broom,kitchen,,89761,001,2022-04-27_15h51.52.354,SPAMnetsValid,2021.1.4,Win32,58.2954413,,,,,,,,,,,,,3,1.0054,0,3,3,76,1,,,,,,,,,,,,,,,,,,,,,,,,,,,,,,,,,,,,,,,,,,,,,,,,,,,,,,,,,,,,,,,,,,,,,,
,,,,1,0.7008,,,,,,92,broom,flower,,89761,001,2022-04-27_15h51.52.354,SPAMnetsValid,2021.1.4,Win32,58.2954413,,,,,,,,,,,,,1,0.7008,0,4,4,88,1,,,,,,,,,,,,,,,,,,,,,,,,,,,,,,,,,,,,,,,,,,,,,,,,,,,,,,,,,,,,,,,,,,,,,,
,,,,7,1.5074,,,,,,61,strawberry,tomato,,89761,001,2022-04-27_15h51.52.354,SPAMnetsValid,2021.1.4,Win32,58.2954413,,,,,,,,,,,,,7,1.5074,0,5,5,80,1,,,,,,,,,,,,,,,,,,,,,,,,,,,,,,,,,,,,,,,,,,,,,,,,,,,,,,,,,,,,,,,,,,,,,,
,,,,7,1.3587,,,,,,62,kitchen,rose,,89761,001,2022-04-27_15h51.52.354,SPAMnetsValid,2021.1.4,Win32,58.2954413,,,,,,,,,,,,,7,1.3587,0,6,6,57,1,,,,,,,,,,,,,,,,,,,,,,,,,,,,,,,,,,,,,,,,,,,,,,,,,,,,,,,,,,,,,,,,,,,,,,
,,,,3,2.5708,,,,,,58,garden,oven,,89761,001,2022-04-27_15h51.52.354,SPAMnetsValid,2021.1.4,Win32,58.2954413,,,,,,,,,,,,,3,2.5708,0,7,7,37,1,,,,,,,,,,,,,,,,,,,,,,,,,,,,,,,,,,,,,,,,,,,,,,,,,,,,,,,,,,,,,,,,,,,,,,
,,,,2,1.2338,,,,,,56,cactus,tree,,89761,001,2022-04-27_15h51.52.354,SPAMnetsValid,2021.1.4,Win32,58.2954413,,,,,,,,,,,,,2,1.2338,0,8,8,21,1,,,,,,,,,,,,,,,,,,,,,,,,,,,,,,,,,,,,,,,,,,,,,,,,,,,,,,,,,,,,,,,,,,,,,,
,,,,4,1.3804,,,,,,40,broom,cake,,89761,001,2022-04-27_15h51.52.354,SPAMnetsValid,2021.1.4,Win32,58.2954413,,,,,,,,,,,,,4,1.3804,0,9,9,32,1,,,,,,,,,,,,,,,,,,,,,,,,,,,,,,,,,,,,,,,,,,,,,,,,,,,,,,,,,,,,,,,,,,,,,,
,,,,8,2.1646,,,,,,68,flower,tomato,,89761,001,2022-04-27_15h51.52.354,SPAMnetsValid,2021.1.4,Win32,58.2954413,,,,,,,,,,,,,8,2.1646,0,10,10,94,1,,,,,,,,,,,,,,,,,,,,,,,,,,,,,,,,,,,,,,,,,,,,,,,,,,,,,,,,,,,,,,,,,,,,,,
,,,,8,0.751,,,,,,9,kitchen,refrigerator,,89761,001,2022-04-27_15h51.52.354,SPAMnetsValid,2021.1.4,Win32,58.2954413,,,,,,,,,,,,,8,0.751,0,11,11,64,1,,,,,,,,,,,,,,,,,,,,,,,,,,,,,,,,,,,,,,,,,,,,,,,,,,,,,,,,,,,,,,,,,,,,,,
,,,,9,0.0163,,,,,,18,onion,refrigerator,,89761,001,2022-04-27_15h51.52.354,SPAMnetsValid,2021.1.4,Win32,58.2954413,,,,,,,,,,,,,9,0.0163,0,12,12,62,1,,,,,,,,,,,,,,,,,,,,,,,,,,,,,,,,,,,,,,,,,,,,,,,,,,,,,,,,,,,,,,,,,,,,,,
,,,,8,0.8197,,,,,,14,broom,cookie,,89761,001,2022-04-27_15h51.52.354,SPAMnetsValid,2021.1.4,Win32,58.2954413,,,,,,,,,,,,,8,0.8197,0,13,13,16,1,,,,,,,,,,,,,,,,,,,,,,,,,,,,,,,,,,,,,,,,,,,,,,,,,,,,,,,,,,,,,,,,,,,,,,
,,,,3,0.918,,,,,,69,carrot,refrigerator,,89761,001,2022-04-27_15h51.52.354,SPAMnetsValid,2021.1.4,Win32,58.2954413,,,,,,,,,,,,,3,0.918,0,14,14,75,1,,,,,,,,,,,,,,,,,,,,,,,,,,,,,,,,,,,,,,,,,,,,,,,,,,,,,,,,,,,,,,,,,,,,,,
,,,,9,1.598,,,,,,76,garden,rose,,89761,001,2022-04-27_15h51.52.354,SPAMnetsValid,2021.1.4,Win32,58.2954413,,,,,,,,,,,,,9,1.598,0,15,15,19,1,,,,,,,,,,,,,,,,,,,,,,,,,,,,,,,,,,,,,,,,,,,,,,,,,,,,,,,,,,,,,,,,,,,,,,
,,,,6,1.1649,,,,,,78,cookie,rose,,89761,001,2022-04-27_15h51.52.354,SPAMnetsValid,2021.1.4,Win32,58.2954413,,,,,,,,,,,,,6,1.1649,0,16,16,56,1,,,,,,,,,,,,,,,,,,,,,,,,,,,,,,,,,,,,,,,,,,,,,,,,,,,,,,,,,,,,,,,,,,,,,,
,,,,2,2.5159,,,,,,64,chocolate,garden,,89761,001,2022-04-27_15h51.52.354,SPAMnetsValid,2021.1.4,Win32,58.2954413,,,,,,,,,,,,,2,2.5159,0,17,17,14,1,,,,,,,,,,,,,,,,,,,,,,,,,,,,,,,,,,,,,,,,,,,,,,,,,,,,,,,,,,,,,,,,,,,,,,
,,,,8,1.5958,,,,,,77,refrigerator,yogurt,,89761,001,2022-04-27_15h51.52.354,SPAMnetsValid,2021.1.4,Win32,58.2954413,,,,,,,,,,,,,8,1.5958,0,18,18,42,1,,,,,,,,,,,,,,,,,,,,,,,,,,,,,,,,,,,,,,,,,,,,,,,,,,,,,,,,,,,,,,,,,,,,,,
,,,,2,1.3395,,,,,,34,melon,oven,,89761,001,2022-04-27_15h51.52.354,SPAMnetsValid,2021.1.4,Win32,58.2954413,,,,,,,,,,,,,2,1.3395,0,19,19,7,1,,,,,,,,,,,,,,,,,,,,,,,,,,,,,,,,,,,,,,,,,,,,,,,,,,,,,,,,,,,,,,,,,,,,,,
,,,,2,0.9145,,,,,,82,cake,kitchen,,89761,001,2022-04-27_15h51.52.354,SPAMnetsValid,2021.1.4,Win32,58.2954413,,,,,,,,,,,,,2,0.9145,0,20,20,96,1,,,,,,,,,,,,,,,,,,,,,,,,,,,,,,,,,,,,,,,,,,,,,,,,,,,,,,,,,,,,,,,,,,,,,,
,,,,7,1.1339,,,,,,33,oven,yogurt,,89761,001,2022-04-27_15h51.52.354,SPAMnetsValid,2021.1.4,Win32,58.2954413,,,,,,,,,,,,,7,1.1339,0,21,21,31,1,,,,,,,,,,,,,,,,,,,,,,,,,,,,,,,,,,,,,,,,,,,,,,,,,,,,,,,,,,,,,,,,,,,,,,
,,,,8,1.6303,,,,,,66,melon,yogurt,,89761,001,2022-04-27_15h51.52.354,SPAMnetsValid,2021.1.4,Win32,58.2954413,,,,,,,,,,,,,8,1.6303,0,22,22,48,1,,,,,,,,,,,,,,,,,,,,,,,,,,,,,,,,,,,,,,,,,,,,,,,,,,,,,,,,,,,,,,,,,,,,,,
,,,,4,1.7546,,,,,,80,chocolate,tree,,89761,001,2022-04-27_15h51.52.354,SPAMnetsValid,2021.1.4,Win32,58.2954413,,,,,,,,,,,,,4,1.7546,0,23,23,89,1,,,,,,,,,,,,,,,,,,,,,,,,,,,,,,,,,,,,,,,,,,,,,,,,,,,,,,,,,,,,,,,,,,,,,,
,,,,7,1.8899,,,,,,12,cookie,yogurt,,89761,001,2022-04-27_15h51.52.354,SPAMnetsValid,2021.1.4,Win32,58.2954413,,,,,,,,,,,,,7,1.8899,0,24,24,36,1,,,,,,,,,,,,,,,,,,,,,,,,,,,,,,,,,,,,,,,,,,,,,,,,,,,,,,,,,,,,,,,,,,,,,,
,,,,4,1.0371,,,,,,47,onion,tomato,,89761,001,2022-04-27_15h51.52.354,SPAMnetsValid,2021.1.4,Win32,58.2954413,,,,,,,,,,,,,4,1.0371,0,25,25,51,1,,,,,,,,,,,,,,,,,,,,,,,,,,,,,,,,,,,,,,,,,,,,,,,,,,,,,,,,,,,,,,,,,,,,,,
,,,,2,1.3787,,,,,,83,broom,carrot,,89761,001,2022-04-27_15h51.52.354,SPAMnetsValid,2021.1.4,Win32,58.2954413,,,,,,,,,,,,,2,1.3787,0,26,26,4,1,,,,,,,,,,,,,,,,,,,,,,,,,,,,,,,,,,,,,,,,,,,,,,,,,,,,,,,,,,,,,,,,,,,,,,
,,,,2,1.1036,,,,,,70,chocolate,onion,,89761,001,2022-04-27_15h51.52.354,SPAMnetsValid,2021.1.4,Win32,58.2954413,,,,,,,,,,,,,2,1.1036,0,27,27,74,1,,,,,,,,,,,,,,,,,,,,,,,,,,,,,,,,,,,,,,,,,,,,,,,,,,,,,,,,,,,,,,,,,,,,,,
,,,,8,1.5071,,,,,,63,cake,cookie,,89761,001,2022-04-27_15h51.52.354,SPAMnetsValid,2021.1.4,Win32,58.2954413,,,,,,,,,,,,,8,1.5071,0,28,28,93,1,,,,,,,,,,,,,,,,,,,,,,,,,,,,,,,,,,,,,,,,,,,,,,,,,,,,,,,,,,,,,,,,,,,,,,
,,,,8,1.3185,,,,,,32,cake,microwave,,89761,001,2022-04-27_15h51.52.354,SPAMnetsValid,2021.1.4,Win32,58.2954413,,,,,,,,,,,,,8,1.3185,0,29,29,33,1,,,,,,,,,,,,,,,,,,,,,,,,,,,,,,,,,,,,,,,,,,,,,,,,,,,,,,,,,,,,,,,,,,,,,,
,,,,3,2.1021,,,,,,8,broom,melon,,89761,001,2022-04-27_15h51.52.354,SPAMnetsValid,2021.1.4,Win32,58.2954413,,,,,,,,,,,,,3,2.1021,0,30,30,59,1,,,,,,,,,,,,,,,,,,,,,,,,,,,,,,,,,,,,,,,,,,,,,,,,,,,,,,,,,,,,,,,,,,,,,,
,,,,3,1.2854,,,,,,86,oven,rose,,89761,001,2022-04-27_15h51.52.354,SPAMnetsValid,2021.1.4,Win32,58.2954413,,,,,,,,,,,,,3,1.2854,0,31,31,79,1,,,,,,,,,,,,,,,,,,,,,,,,,,,,,,,,,,,,,,,,,,,,,,,,,,,,,,,,,,,,,,,,,,,,,,
,,,,8,1.1689,,,,,,54,chocolate,yogurt,,89761,001,2022-04-27_15h51.52.354,SPAMnetsValid,2021.1.4,Win32,58.2954413,,,,,,,,,,,,,8,1.1689,0,32,32,67,1,,,,,,,,,,,,,,,,,,,,,,,,,,,,,,,,,,,,,,,,,,,,,,,,,,,,,,,,,,,,,,,,,,,,,,
,,,,8,0.8029,,,,,,43,chocolate,tomato,,89761,001,2022-04-27_15h51.52.354,SPAMnetsValid,2021.1.4,Win32,58.2954413,,,,,,,,,,,,,8,0.8029,0,33,33,8,1,,,,,,,,,,,,,,,,,,,,,,,,,,,,,,,,,,,,,,,,,,,,,,,,,,,,,,,,,,,,,,,,,,,,,,
,,,,1,1.6198,,,,,,95,broom,refrigerator,,89761,001,2022-04-27_15h51.52.354,SPAMnetsValid,2021.1.4,Win32,58.2954413,,,,,,,,,,,,,1,1.6198,0,34,34,90,1,,,,,,,,,,,,,,,,,,,,,,,,,,,,,,,,,,,,,,,,,,,,,,,,,,,,,,,,,,,,,,,,,,,,,,
,,,,1,1.4402,,,,,,27,cactus,cookie,,89761,001,2022-04-27_15h51.52.354,SPAMnetsValid,2021.1.4,Win32,58.2954413,,,,,,,,,,,,,1,1.4402,0,35,35,17,1,,,,,,,,,,,,,,,,,,,,,,,,,,,,,,,,,,,,,,,,,,,,,,,,,,,,,,,,,,,,,,,,,,,,,,
,,,,1,0.955,,,,,,10,flower,onion,,89761,001,2022-04-27_15h51.52.354,SPAMnetsValid,2021.1.4,Win32,58.2954413,,,,,,,,,,,,,1,0.955,0,36,36,45,1,,,,,,,,,,,,,,,,,,,,,,,,,,,,,,,,,,,,,,,,,,,,,,,,,,,,,,,,,,,,,,,,,,,,,,
,,,,1,0.727,,,,,,28,cake,melon,,89761,001,2022-04-27_15h51.52.354,SPAMnetsValid,2021.1.4,Win32,58.2954413,,,,,,,,,,,,,1,0.727,0,37,37,54,1,,,,,,,,,,,,,,,,,,,,,,,,,,,,,,,,,,,,,,,,,,,,,,,,,,,,,,,,,,,,,,,,,,,,,,
,,,,7,1.8039,,,,,,59,rose,strawberry,,89761,001,2022-04-27_15h51.52.354,SPAMnetsValid,2021.1.4,Win32,58.2954413,,,,,,,,,,,,,7,1.8039,0,38,38,72,1,,,,,,,,,,,,,,,,,,,,,,,,,,,,,,,,,,,,,,,,,,,,,,,,,,,,,,,,,,,,,,,,,,,,,,
,,,,3,1.5617,,,,,,45,onion,pretzel,,89761,001,2022-04-27_15h51.52.354,SPAMnetsValid,2021.1.4,Win32,58.2954413,,,,,,,,,,,,,3,1.5617,0,39,39,69,1,,,,,,,,,,,,,,,,,,,,,,,,,,,,,,,,,,,,,,,,,,,,,,,,,,,,,,,,,,,,,,,,,,,,,,
,,,,9,2.0218,,,,,,191,cake,cake,CHECK,89761,001,2022-04-27_15h51.52.354,SPAMnetsValid,2021.1.4,Win32,58.2954413,,,,,,,,,,,,,9,2.0218,0,40,40,10,1,,,,,,,,,,,,,,,,,,,,,,,,,,,,,,,,,,,,,,,,,,,,,,,,,,,,,,,,,,,,,,,,,,,,,,
,,,,2,2.8261,,,,,,72,broom,onion,,89761,001,2022-04-27_15h51.52.354,SPAMnetsValid,2021.1.4,Win32,58.2954413,,,,,,,,,,,,,2,2.8261,0,41,41,27,1,,,,,,,,,,,,,,,,,,,,,,,,,,,,,,,,,,,,,,,,,,,,,,,,,,,,,,,,,,,,,,,,,,,,,,
,,,,6,2.2069,,,,,,1,rose,yogurt,,89761,001,2022-04-27_15h51.52.354,SPAMnetsValid,2021.1.4,Win32,58.2954413,,,,,,,,,,,,,6,2.2069,0,42,42,55,1,,,,,,,,,,,,,,,,,,,,,,,,,,,,,,,,,,,,,,,,,,,,,,,,,,,,,,,,,,,,,,,,,,,,,,
,,,,7,1.3322,,,,,,29,chocolate,melon,,89761,001,2022-04-27_15h51.52.354,SPAMnetsValid,2021.1.4,Win32,58.2954413,,,,,,,,,,,,,7,1.3322,0,43,43,34,1,,,,,,,,,,,,,,,,,,,,,,,,,,,,,,,,,,,,,,,,,,,,,,,,,,,,,,,,,,,,,,,,,,,,,,
,,,,9,1.4838,,,,,,15,onion,oven,,89761,001,2022-04-27_15h51.52.354,SPAMnetsValid,2021.1.4,Win32,58.2954413,,,,,,,,,,,,,9,1.4838,0,44,44,39,1,,,,,,,,,,,,,,,,,,,,,,,,,,,,,,,,,,,,,,,,,,,,,,,,,,,,,,,,,,,,,,,,,,,,,,
,,,,9,0.7612,,,,,,20,rose,tree,,89761,001,2022-04-27_15h51.52.354,SPAMnetsValid,2021.1.4,Win32,58.2954413,,,,,,,,,,,,,9,0.7612,0,45,45,66,1,,,,,,,,,,,,,,,,,,,,,,,,,,,,,,,,,,,,,,,,,,,,,,,,,,,,,,,,,,,,,,,,,,,,,,
,,,,4,1.73,,,,,,89,chocolate,rose,,89761,001,2022-04-27_15h51.52.354,SPAMnetsValid,2021.1.4,Win32,58.2954413,,,,,,,,,,,,,4,1.73,0,46,46,60,1,,,,,,,,,,,,,,,,,,,,,,,,,,,,,,,,,,,,,,,,,,,,,,,,,,,,,,,,,,,,,,,,,,,,,,
,,,,9,1.7755,,,,,,192,microwave,microwave,CHECK,89761,001,2022-04-27_15h51.52.354,SPAMnetsValid,2021.1.4,Win32,58.2954413,,,,,,,,,,,,,9,1.7755,0,47,47,53,1,,,,,,,,,,,,,,,,,,,,,,,,,,,,,,,,,,,,,,,,,,,,,,,,,,,,,,,,,,,,,,,,,,,,,,
,,,,6,1.0087,,,,,,55,tomato,tree,,89761,001,2022-04-27_15h51.52.354,SPAMnetsValid,2021.1.4,Win32,58.2954413,,,,,,,,,,,,,6,1.0087,0,48,48,35,1,,,,,,,,,,,,,,,,,,,,,,,,,,,,,,,,,,,,,,,,,,,,,,,,,,,,,,,,,,,,,,,,,,,,,,
,,,,8,1.1286,,,,,,22,kitchen,strawberry,,89761,001,2022-04-27_15h51.52.354,SPAMnetsValid,2021.1.4,Win32,58.2954413,,,,,,,,,,,,,8,1.1286,0,49,49,2,1,,,,,,,,,,,,,,,,,,,,,,,,,,,,,,,,,,,,,,,,,,,,,,,,,,,,,,,,,,,,,,,,,,,,,,
,,,,8,0.7032,,,,,,94,kitchen,microwave,,89761,001,2022-04-27_15h51.52.354,SPAMnetsValid,2021.1.4,Win32,58.2954413,,,,,,,,,,,,,8,0.7032,0,50,50,58,1,,,,,,,,,,,,,,,,,,,,,,,,,,,,,,,,,,,,,,,,,,,,,,,,,,,,,,,,,,,,,,,,,,,,,,
,,,,3,1.7471,,,,,,42,garden,kitchen,,89761,001,2022-04-27_15h51.52.354,SPAMnetsValid,2021.1.4,Win32,58.2954413,,,,,,,,,,,,,3,1.7471,0,51,51,29,1,,,,,,,,,,,,,,,,,,,,,,,,,,,,,,,,,,,,,,,,,,,,,,,,,,,,,,,,,,,,,,,,,,,,,,
,,,,3,1.1157,,,,,,38,pretzel,refrigerator,,89761,001,2022-04-27_15h51.52.354,SPAMnetsValid,2021.1.4,Win32,58.2954413,,,,,,,,,,,,,3,1.1157,0,52,52,71,1,,,,,,,,,,,,,,,,,,,,,,,,,,,,,,,,,,,,,,,,,,,,,,,,,,,,,,,,,,,,,,,,,,,,,,
,,,,1,1.7935,,,,,,60,cactus,onion,,89761,001,2022-04-27_15h51.52.354,SPAMnetsValid,2021.1.4,Win32,58.2954413,,,,,,,,,,,,,1,1.7935,0,53,53,81,1,,,,,,,,,,,,,,,,,,,,,,,,,,,,,,,,,,,,,,,,,,,,,,,,,,,,,,,,,,,,,,,,,,,,,,
,,,,6,1.637,,,,,,52,carrot,tomato,,89761,001,2022-04-27_15h51.52.354,SPAMnetsValid,2021.1.4,Win32,58.2954413,,,,,,,,,,,,,6,1.637,0,54,54,95,1,,,,,,,,,,,,,,,,,,,,,,,,,,,,,,,,,,,,,,,,,,,,,,,,,,,,,,,,,,,,,,,,,,,,,,
,,,,6,1.0023,,,,,,35,flower,pretzel,,89761,001,2022-04-27_15h51.52.354,SPAMnetsValid,2021.1.4,Win32,58.2954413,,,,,,,,,,,,,6,1.0023,0,55,55,26,1,,,,,,,,,,,,,,,,,,,,,,,,,,,,,,,,,,,,,,,,,,,,,,,,,,,,,,,,,,,,,,,,,,,,,,
,,,,3,1.3008,,,,,,19,microwave,pretzel,,89761,001,2022-04-27_15h51.52.354,SPAMnetsValid,2021.1.4,Win32,58.2954413,,,,,,,,,,,,,3,1.3008,0,56,56,41,1,,,,,,,,,,,,,,,,,,,,,,,,,,,,,,,,,,,,,,,,,,,,,,,,,,,,,,,,,,,,,,,,,,,,,,
,,,,6,1.817,,,,,,41,broom,cactus,,89761,001,2022-04-27_15h51.52.354,SPAMnetsValid,2021.1.4,Win32,58.2954413,,,,,,,,,,,,,6,1.817,0,57,57,46,1,,,,,,,,,,,,,,,,,,,,,,,,,,,,,,,,,,,,,,,,,,,,,,,,,,,,,,,,,,,,,,,,,,,,,,
,,,,4,1.5492,,,,,,5,oven,tree,,89761,001,2022-04-27_15h51.52.354,SPAMnetsValid,2021.1.4,Win32,58.2954413,,,,,,,,,,,,,4,1.5492,0,58,58,70,1,,,,,,,,,,,,,,,,,,,,,,,,,,,,,,,,,,,,,,,,,,,,,,,,,,,,,,,,,,,,,,,,,,,,,,
,,,,6,0.9225,,,,,,81,pretzel,yogurt,,89761,001,2022-04-27_15h51.52.354,SPAMnetsValid,2021.1.4,Win32,58.2954413,,,,,,,,,,,,,6,0.9225,0,59,59,50,1,,,,,,,,,,,,,,,,,,,,,,,,,,,,,,,,,,,,,,,,,,,,,,,,,,,,,,,,,,,,,,,,,,,,,,
,,,,4,0.7727,,,,,,24,cookie,tomato,,89761,001,2022-04-27_15h51.52.354,SPAMnetsValid,2021.1.4,Win32,58.2954413,,,,,,,,,,,,,4,0.7727,0,60,60,68,1,,,,,,,,,,,,,,,,,,,,,,,,,,,,,,,,,,,,,,,,,,,,,,,,,,,,,,,,,,,,,,,,,,,,,,
,,,,6,0.539,,,,,,23,flower,microwave,,89761,001,2022-04-27_15h51.52.354,SPAMnetsValid,2021.1.4,Win32,58.2954413,,,,,,,,,,,,,6,0.539,0,61,61,25,1,,,,,,,,,,,,,,,,,,,,,,,,,,,,,,,,,,,,,,,,,,,,,,,,,,,,,,,,,,,,,,,,,,,,,,
,,,,7,1.0112,,,,,,73,broom,chocolate,,89761,001,2022-04-27_15h51.52.354,SPAMnetsValid,2021.1.4,Win32,58.2954413,,,,,,,,,,,,,7,1.0112,0,62,62,47,1,,,,,,,,,,,,,,,,,,,,,,,,,,,,,,,,,,,,,,,,,,,,,,,,,,,,,,,,,,,,,,,,,,,,,,
,,,,8,1.1322,,,,,,75,cookie,onion,,89761,001,2022-04-27_15h51.52.354,SPAMnetsValid,2021.1.4,Win32,58.2954413,,,,,,,,,,,,,8,1.1322,0,63,63,9,1,,,,,,,,,,,,,,,,,,,,,,,,,,,,,,,,,,,,,,,,,,,,,,,,,,,,,,,,,,,,,,,,,,,,,,
,,,,3,0.6425,,,,,,25,carrot,onion,,89761,001,2022-04-27_15h51.52.354,SPAMnetsValid,2021.1.4,Win32,58.2954413,,,,,,,,,,,,,3,0.6425,0,64,64,44,1,,,,,,,,,,,,,,,,,,,,,,,,,,,,,,,,,,,,,,,,,,,,,,,,,,,,,,,,,,,,,,,,,,,,,,
,,,,8,0.4519,,,,,,87,carrot,yogurt,,89761,001,2022-04-27_15h51.52.354,SPAMnetsValid,2021.1.4,Win32,58.2954413,,,,,,,,,,,,,8,0.4519,0,65,65,6,1,,,,,,,,,,,,,,,,,,,,,,,,,,,,,,,,,,,,,,,,,,,,,,,,,,,,,,,,,,,,,,,,,,,,,,
,,,,4,0.3965,,,,,,37,garden,refrigerator,,89761,001,2022-04-27_15h51.52.354,SPAMnetsValid,2021.1.4,Win32,58.2954413,,,,,,,,,,,,,4,0.3965,0,66,66,11,1,,,,,,,,,,,,,,,,,,,,,,,,,,,,,,,,,,,,,,,,,,,,,,,,,,,,,,,,,,,,,,,,,,,,,,
,,,,7,0.5405,,,,,,16,chocolate,flower,,89761,001,2022-04-27_15h51.52.354,SPAMnetsValid,2021.1.4,Win32,58.2954413,,,,,,,,,,,,,7,0.5405,0,67,67,22,1,,,,,,,,,,,,,,,,,,,,,,,,,,,,,,,,,,,,,,,,,,,,,,,,,,,,,,,,,,,,,,,,,,,,,,
,,,,3,0.4947,,,,,,79,garden,strawberry,,89761,001,2022-04-27_15h51.52.354,SPAMnetsValid,2021.1.4,Win32,58.2954413,,,,,,,,,,,,,3,0.4947,0,68,68,87,1,,,,,,,,,,,,,,,,,,,,,,,,,,,,,,,,,,,,,,,,,,,,,,,,,,,,,,,,,,,,,,,,,,,,,,
,,,,7,0.4192,,,,,,17,carrot,melon,,89761,001,2022-04-27_15h51.52.354,SPAMnetsValid,2021.1.4,Win32,58.2954413,,,,,,,,,,,,,7,0.4192,0,69,69,24,1,,,,,,,,,,,,,,,,,,,,,,,,,,,,,,,,,,,,,,,,,,,,,,,,,,,,,,,,,,,,,,,,,,,,,,
,,,,3,0.4906,,,,,,67,flower,yogurt,,89761,001,2022-04-27_15h51.52.354,SPAMnetsValid,2021.1.4,Win32,58.2954413,,,,,,,,,,,,,3,0.4906,0,70,70,12,1,,,,,,,,,,,,,,,,,,,,,,,,,,,,,,,,,,,,,,,,,,,,,,,,,,,,,,,,,,,,,,,,,,,,,,
,,,,3,1.4184,,,,,,39,melon,pretzel,,89761,001,2022-04-27_15h51.52.354,SPAMnetsValid,2021.1.4,Win32,58.2954413,,,,,,,,,,,,,3,1.4184,0,71,71,20,1,,,,,,,,,,,,,,,,,,,,,,,,,,,,,,,,,,,,,,,,,,,,,,,,,,,,,,,,,,,,,,,,,,,,,,
,,,,3,1.0455,,,,,,65,broom,garden,,89761,001,2022-04-27_15h51.52.354,SPAMnetsValid,2021.1.4,Win32,58.2954413,,,,,,,,,,,,,3,1.0455,0,72,72,23,1,,,,,,,,,,,,,,,,,,,,,,,,,,,,,,,,,,,,,,,,,,,,,,,,,,,,,,,,,,,,,,,,,,,,,,
,,,,8,1.6619,,,,,,46,garden,yogurt,,89761,001,2022-04-27_15h51.52.354,SPAMnetsValid,2021.1.4,Win32,58.2954413,,,,,,,,,,,,,8,1.6619,0,73,73,65,1,,,,,,,,,,,,,,,,,,,,,,,,,,,,,,,,,,,,,,,,,,,,,,,,,,,,,,,,,,,,,,,,,,,,,,
,,,,3,2.0361,,,,,,21,cake,onion,,89761,001,2022-04-27_15h51.52.354,SPAMnetsValid,2021.1.4,Win32,58.2954413,,,,,,,,,,,,,3,2.0361,0,74,74,63,1,,,,,,,,,,,,,,,,,,,,,,,,,,,,,,,,,,,,,,,,,,,,,,,,,,,,,,,,,,,,,,,,,,,,,,
,,,,2,0.9853,,,,,,49,flower,strawberry,,89761,001,2022-04-27_15h51.52.354,SPAMnetsValid,2021.1.4,Win32,58.2954413,,,,,,,,,,,,,2,0.9853,0,75,75,3,1,,,,,,,,,,,,,,,,,,,,,,,,,,,,,,,,,,,,,,,,,,,,,,,,,,,,,,,,,,,,,,,,,,,,,,
,,,,1,1.0984,,,,,,91,microwave,rose,,89761,001,2022-04-27_15h51.52.354,SPAMnetsValid,2021.1.4,Win32,58.2954413,,,,,,,,,,,,,1,1.0984,0,76,76,84,1,,,,,,,,,,,,,,,,,,,,,,,,,,,,,,,,,,,,,,,,,,,,,,,,,,,,,,,,,,,,,,,,,,,,,,
,,,,2,0.8061,,,,,,7,melon,tree,,89761,001,2022-04-27_15h51.52.354,SPAMnetsValid,2021.1.4,Win32,58.2954413,,,,,,,,,,,,,2,0.8061,0,77,77,77,1,,,,,,,,,,,,,,,,,,,,,,,,,,,,,,,,,,,,,,,,,,,,,,,,,,,,,,,,,,,,,,,,,,,,,,
,,,,7,1.0676,,,,,,4,chocolate,pretzel,,89761,001,2022-04-27_15h51.52.354,SPAMnetsValid,2021.1.4,Win32,58.2954413,,,,,,,,,,,,,7,1.0676,0,78,78,52,1,,,,,,,,,,,,,,,,,,,,,,,,,,,,,,,,,,,,,,,,,,,,,,,,,,,,,,,,,,,,,,,,,,,,,,
,,,,2,2.3214,,,,,,84,oven,tomato,,89761,001,2022-04-27_15h51.52.354,SPAMnetsValid,2021.1.4,Win32,58.2954413,,,,,,,,,,,,,2,2.3214,0,79,79,28,1,,,,,,,,,,,,,,,,,,,,,,,,,,,,,,,,,,,,,,,,,,,,,,,,,,,,,,,,,,,,,,,,,,,,,,
,,,,2,0.8048,,,,,,26,tomato,yogurt,,89761,001,2022-04-27_15h51.52.354,SPAMnetsValid,2021.1.4,Win32,58.2954413,,,,,,,,,,,,,2,0.8048,0,80,80,13,1,,,,,,,,,,,,,,,,,,,,,,,,,,,,,,,,,,,,,,,,,,,,,,,,,,,,,,,,,,,,,,,,,,,,,,
,,,,2,1.5147,,,,,,85,cake,tree,,89761,001,2022-04-27_15h51.52.354,SPAMnetsValid,2021.1.4,Win32,58.2954413,,,,,,,,,,,,,2,1.5147,0,81,81,18,1,,,,,,,,,,,,,,,,,,,,,,,,,,,,,,,,,,,,,,,,,,,,,,,,,,,,,,,,,,,,,,,,,,,,,,
,,,,2,0.8963,,,,,,31,cactus,pretzel,,89761,001,2022-04-27_15h51.52.354,SPAMnetsValid,2021.1.4,Win32,58.2954413,,,,,,,,,,,,,2,0.8963,0,82,82,1,1,,,,,,,,,,,,,,,,,,,,,,,,,,,,,,,,,,,,,,,,,,,,,,,,,,,,,,,,,,,,,,,,,,,,,,
,,,,2,1.1696,,,,,,51,onion,strawberry,,89761,001,2022-04-27_15h51.52.354,SPAMnetsValid,2021.1.4,Win32,58.2954413,,,,,,,,,,,,,2,1.1696,0,83,83,86,1,,,,,,,,,,,,,,,,,,,,,,,,,,,,,,,,,,,,,,,,,,,,,,,,,,,,,,,,,,,,,,,,,,,,,,
,,,,2,1.7906,,,,,,53,garden,pretzel,,89761,001,2022-04-27_15h51.52.354,SPAMnetsValid,2021.1.4,Win32,58.2954413,,,,,,,,,,,,,2,1.7906,0,84,84,0,1,,,,,,,,,,,,,,,,,,,,,,,,,,,,,,,,,,,,,,,,,,,,,,,,,,,,,,,,,,,,,,,,,,,,,,
,,,,9,2.1055,,,,,,3,cake,oven,,89761,001,2022-04-27_15h51.52.354,SPAMnetsValid,2021.1.4,Win32,58.2954413,,,,,,,,,,,,,9,2.1055,0,85,85,30,1,,,,,,,,,,,,,,,,,,,,,,,,,,,,,,,,,,,,,,,,,,,,,,,,,,,,,,,,,,,,,,,,,,,,,,
,,,,7,0.8936,,,,,,2,kitchen,onion,,89761,001,2022-04-27_15h51.52.354,SPAMnetsValid,2021.1.4,Win32,58.2954413,,,,,,,,,,,,,7,0.8936,0,86,86,91,1,,,,,,,,,,,,,,,,,,,,,,,,,,,,,,,,,,,,,,,,,,,,,,,,,,,,,,,,,,,,,,,,,,,,,,
,,,,3,1.7017,,,,,,30,cookie,pretzel,,89761,001,2022-04-27_15h51.52.354,SPAMnetsValid,2021.1.4,Win32,58.2954413,,,,,,,,,,,,,3,1.7017,0,87,87,78,1,,,,,,,,,,,,,,,,,,,,,,,,,,,,,,,,,,,,,,,,,,,,,,,,,,,,,,,,,,,,,,,,,,,,,,
,,,,3,1.1302,,,,,,13,broom,yogurt,,89761,001,2022-04-27_15h51.52.354,SPAMnetsValid,2021.1.4,Win32,58.2954413,,,,,,,,,,,,,3,1.1302,0,88,88,5,1,,,,,,,,,,,,,,,,,,,,,,,,,,,,,,,,,,,,,,,,,,,,,,,,,,,,,,,,,,,,,,,,,,,,,,
,,,,3,0.9854,,,,,,44,cookie,melon,,89761,001,2022-04-27_15h51.52.354,SPAMnetsValid,2021.1.4,Win32,58.2954413,,,,,,,,,,,,,3,0.9854,0,89,89,92,1,,,,,,,,,,,,,,,,,,,,,,,,,,,,,,,,,,,,,,,,,,,,,,,,,,,,,,,,,,,,,,,,,,,,,,
,,,,3,0.9223,,,,,,74,broom,pretzel,,89761,001,2022-04-27_15h51.52.354,SPAMnetsValid,2021.1.4,Win32,58.2954413,,,,,,,,,,,,,3,0.9223,0,90,90,40,1,,,,,,,,,,,,,,,,,,,,,,,,,,,,,,,,,,,,,,,,,,,,,,,,,,,,,,,,,,,,,,,,,,,,,,
,,,,1,1.6126,,,,,,90,cactus,cake,,89761,001,2022-04-27_15h51.52.354,SPAMnetsValid,2021.1.4,Win32,58.2954413,,,,,,,,,,,,,1,1.6126,0,91,91,85,1,,,,,,,,,,,,,,,,,,,,,,,,,,,,,,,,,,,,,,,,,,,,,,,,,,,,,,,,,,,,,,,,,,,,,,
,,,,1,1.2188,,,,,,6,garden,onion,,89761,001,2022-04-27_15h51.52.354,SPAMnetsValid,2021.1.4,Win32,58.2954413,,,,,,,,,,,,,1,1.2188,0,92,92,83,1,,,,,,,,,,,,,,,,,,,,,,,,,,,,,,,,,,,,,,,,,,,,,,,,,,,,,,,,,,,,,,,,,,,,,,
,,,,2,3.5024,,,,,,71,broom,rose,,89761,001,2022-04-27_15h51.52.354,SPAMnetsValid,2021.1.4,Win32,58.2954413,,,,,,,,,,,,,2,3.5024,0,93,93,61,1,,,,,,,,,,,,,,,,,,,,,,,,,,,,,,,,,,,,,,,,,,,,,,,,,,,,,,,,,,,,,,,,,,,,,,
,,,,7,1.9747,,,,,,88,cactus,melon,,89761,001,2022-04-27_15h51.52.354,SPAMnetsValid,2021.1.4,Win32,58.2954413,,,,,,,,,,,,,7,1.9747,0,94,94,38,1,,,,,,,,,,,,,,,,,,,,,,,,,,,,,,,,,,,,,,,,,,,,,,,,,,,,,,,,,,,,,,,,,,,,,,
,,,,6,1.946,,,,,,50,carrot,rose,,89761,001,2022-04-27_15h51.52.354,SPAMnetsValid,2021.1.4,Win32,58.2954413,,,,,,,,,,,,,6,1.946,0,95,95,73,1,,,,,,,,,,,,,,,,,,,,,,,,,,,,,,,,,,,,,,,,,,,,,,,,,,,,,,,,,,,,,,,,,,,,,,
,,,,1,10.82,,,,,,11,refrigerator,tree,,89761,001,2022-04-27_15h51.52.354,SPAMnetsValid,2021.1.4,Win32,58.2954413,,,,,,,,,,,,,1,10.82,0,96,96,43,1,,,,,,,,,,,,,,,,,,,,,,,,,,,,,,,,,,,,,,,,,,,,,,,,,,,,,,,,,,,,,,,,,,,,,,
,,,,,,,,,,,,,,,89761,001,2022-04-27_15h51.52.354,SPAMnetsValid,2021.1.4,Win32,58.2954413,,,,,,,,,,,,,,,,,,,,0,0,0,0,1,,,,,,,,,,,,,,,,,,,,,,,,,,,,,,,,,,,,,,,,,,,,,,,,,,,,,,,,,,,,,,,,,
,,,,,,,,,,,,,,,89761,001,2022-04-27_15h51.52.354,SPAMnetsValid,2021.1.4,Win32,58.2954413,,,,,,0,1,1,0,1,1,0,,,,,,,,,,,,,,,,,,,,,,,,,,,,,,,,,,,,,,,,,,,,,,,,,,,,,,,,,,,,,,,,,,,,,,,,,,,,,
,,,,,,,,,,,,,,,89761,001,2022-04-27_15h51.52.354,SPAMnetsValid,2021.1.4,Win32,58.2954413,,,,,,,,,,,,,,,,,,,,,,,,,2,9.6496,0,0,0,0,1,rancor,forbearance,ridicule,malice,bravery,3,,,,,,,,,,,,,,,,,,,,,,,,,,,,,,,,,,,,,,,,,,,,,,,,,,,,
,,,,,,,,,,,,,,,89761,001,2022-04-27_15h51.52.354,SPAMnetsValid,2021.1.4,Win32,58.2954413,,,,,,,,,,,,,,,,,,,,,,,,,4,3.0907,0,1,1,1,1,raucous,empty,quiet,smooth,harsh,4,,,,,,,,,,,,,,,,,,,,,,,,,,,,,,,,,,,,,,,,,,,,,,,,,,,,
,,,,,,,,,,,,,,,89761,001,2022-04-27_15h51.52.354,SPAMnetsValid,2021.1.4,Win32,58.2954413,,,,,,,,,,,,,,,,,,,,,,,,,3,4.4671,0,2,2,2,1,gargoyle,oil,medicine,carved waterspout,ugly building,3,,,,,,,,,,,,,,,,,,,,,,,,,,,,,,,,,,,,,,,,,,,,,,,,,,,,
,,,,,,,,,,,,,,,89761,001,2022-04-27_15h51.52.354,SPAMnetsValid,2021.1.4,Win32,58.2954413,,,,,,,,,,,,,,,,,,,,,,,,,3,2.954,0,3,3,3,1,recrudesce,purify,renew activity,lack refinement,crush,2,,,,,,,,,,,,,,,,,,,,,,,,,,,,,,,,,,,,,,,,,,,,,,,,,,,,
,,,,,,,,,,,,,,,89761,001,2022-04-27_15h51.52.354,SPAMnetsValid,2021.1.4,Win32,58.2954413,,,,,,,,,,,,,,,,,,,,,,,,,3,3.0537,0,4,4,4,1,specious,"plausible, but not genuine",noteworthy,class or variety,roomy,1,,,,,,,,,,,,,,,,,,,,,,,,,,,,,,,,,,,,,,,,,,,,,,,,,,,,
,,,,,,,,,,,,,,,89761,001,2022-04-27_15h51.52.354,SPAMnetsValid,2021.1.4,Win32,58.2954413,,,,,,,,,,,,,,,,,,,,,,,,,3,1.9593,0,5,5,5,1,bauble,bubble,showy plaything,idle talk,confusion,2,,,,,,,,,,,,,,,,,,,,,,,,,,,,,,,,,,,,,,,,,,,,,,,,,,,,
,,,,,,,,,,,,,,,89761,001,2022-04-27_15h51.52.354,SPAMnetsValid,2021.1.4,Win32,58.2954413,,,,,,,,,,,,,,,,,,,,,,,,,2,1.6627,0,6,6,6,1,prolific,scarce,producing abundantly,reckless,speaking profanely,2,,,,,,,,,,,,,,,,,,,,,,,,,,,,,,,,,,,,,,,,,,,,,,,,,,,,
,,,,,,,,,,,,,,,89761,001,2022-04-27_15h51.52.354,SPAMnetsValid,2021.1.4,Win32,58.2954413,,,,,,,,,,,,,,,,,,,,,,,,,2,3.5181,0,7,7,7,1,opulent,party,wealthy,happy frame of mind,semiprecious stone,2,,,,,,,,,,,,,,,,,,,,,,,,,,,,,,,,,,,,,,,,,,,,,,,,,,,,
,,,,,,,,,,,,,,,89761,001,2022-04-27_15h51.52.354,SPAMnetsValid,2021.1.4,Win32,58.2954413,,,,,,,,,,,,,,,,,,,,,,,,,4,3.2519,0,8,8,8,1,coercion,conspiracy,strategy,restraint,attraction,3,,,,,,,,,,,,,,,,,,,,,,,,,,,,,,,,,,,,,,,,,,,,,,,,,,,,
,,,,,,,,,,,,,,,89761,001,2022-04-27_15h51.52.354,SPAMnetsValid,2021.1.4,Win32,58.2954413,,,,,,,,,,,,,,,,,,,,,,,,,4,2.7906,0,9,9,9,1,hiatus,animal,calamity,dread,gap,4,,,,,,,,,,,,,,,,,,,,,,,,,,,,,,,,,,,,,,,,,,,,,,,,,,,,
,,,,,,,,,,,,,,,89761,001,2022-04-27_15h51.52.354,SPAMnetsValid,2021.1.4,Win32,58.2954413,,,,,,,,,,,,,,,,,,,,,,,,,4,6.7246,0,10,10,10,1,germane,microbe,contagious,relevant,different,3,,,,,,,,,,,,,,,,,,,,,,,,,,,,,,,,,,,,,,,,,,,,,,,,,,,,
,,,,,,,,,,,,,,,89761,001,2022-04-27_15h51.52.354,SPAMnetsValid,2021.1.4,Win32,58.2954413,,,,,,,,,,,,,,,,,,,,,,,,,2,3.7227,0,11,11,11,1,perfunctory,fundamental,formal,superficial,careful,3,,,,,,,,,,,,,,,,,,,,,,,,,,,,,,,,,,,,,,,,,,,,,,,,,,,,
,,,,,,,,,,,,,,,89761,001,2022-04-27_15h51.52.354,SPAMnetsValid,2021.1.4,Win32,58.2954413,,,,,,,,,,,,,,,,,,,,,,,,,4,2.307,0,12,12,12,1,diverge,reveal,chant,distract the attention of,differ or turn off from,4,,,,,,,,,,,,,,,,,,,,,,,,,,,,,,,,,,,,,,,,,,,,,,,,,,,,
,,,,,,,,,,,,,,,89761,001,2022-04-27_15h51.52.354,SPAMnetsValid,2021.1.4,Win32,58.2954413,,,,,,,,,,,,,,,,,,,,,,,,,4,3.2036,0,13,13,13,1,evoke,take away,anger,connect,bring out,4,,,,,,,,,,,,,,,,,,,,,,,,,,,,,,,,,,,,,,,,,,,,,,,,,,,,
,,,,,,,,,,,,,,,89761,001,2022-04-27_15h51.52.354,SPAMnetsValid,2021.1.4,Win32,58.2954413,,,,,,,,,,,,,,,,,,,,,,,,,3,2.22,0,14,14,14,1,pertinent,relevant,lying next to,necessary,bold,1,,,,,,,,,,,,,,,,,,,,,,,,,,,,,,,,,,,,,,,,,,,,,,,,,,,,
,,,,,,,,,,,,,,,89761,001,2022-04-27_15h51.52.354,SPAMnetsValid,2021.1.4,Win32,58.2954413,,,,,,,,,,,,,,,,,,,,,,,,,2,2.8401,0,15,15,15,1,holocaust,entirety,destruction,saintly,price,2,,,,,,,,,,,,,,,,,,,,,,,,,,,,,,,,,,,,,,,,,,,,,,,,,,,,
,,,,,,,,,,,,,,,89761,001,2022-04-27_15h51.52.354,SPAMnetsValid,2021.1.4,Win32,58.2954413,,,,,,,,,,,,,,,,,,,,,,,,,,,0,16,16,16,1,piquant,mellow,fish,pungent,cloth,3,,,,,,,,,,,,,,,,,,,,,,,,,,,,,,,,,,,,,,,,,,,,,,,,,,,,
,,,,,,,,,,,,,,,89761,001,2022-04-27_15h51.52.354,SPAMnetsValid,2021.1.4,Win32,58.2954413,,,,,,,,,,,,,,,,,,,,,,,,,3,4.3276,0,17,17,17,1,firmament,foundation,heavens,strong,glue,2,,,,,,,,,,,,,,,,,,,,,,,,,,,,,,,,,,,,,,,,,,,,,,,,,,,,
,,,,,,,,,,,,,,,89761,001,2022-04-27_15h51.52.354,SPAMnetsValid,2021.1.4,Win32,58.2954413,,,,,,,,,,,,,,,,,,,,,,,,,,,,,,,,,,,,,,3,4.1864,0,0,0,0,1,marketable,partisan,jocular,marriageable,salable,essential,4,,,,,,,,,,,,,,,,,,,,,,,,,,,,,,,,,,,,,,
,,,,,,,,,,,,,,,89761,001,2022-04-27_15h51.52.354,SPAMnetsValid,2021.1.4,Win32,58.2954413,,,,,,,,,,,,,,,,,,,,,,,,,,,,,,,,,,,,,,,,0,1,1,1,1,cottontail,squirrel,poplar,boa,marshy plant,rabbit,5,,,,,,,,,,,,,,,,,,,,,,,,,,,,,,,,,,,,,,
,,,,,,,,,,,,,,,89761,001,2022-04-27_15h51.52.354,SPAMnetsValid,2021.1.4,Win32,58.2954413,,,,,,,,,,,,,,,,,,,,,,,,,,,,,,,,,,,,,,3,2.3252,0,2,2,2,1,boggy,afraid,false,marshy,dense,black,3,,,,,,,,,,,,,,,,,,,,,,,,,,,,,,,,,,,,,,
,,,,,,,,,,,,,,,89761,001,2022-04-27_15h51.52.354,SPAMnetsValid,2021.1.4,Win32,58.2954413,,,,,,,,,,,,,,,,,,,,,,,,,,,,,,,,,,,,,,4,4.1451,0,3,3,3,1,gruesomeness,blackness,falseness,vindictiveness,drunkenness,ghastliness,5,,,,,,,,,,,,,,,,,,,,,,,,,,,,,,,,,,,,,,
,,,,,,,,,,,,,,,89761,001,2022-04-27_15h51.52.354,SPAMnetsValid,2021.1.4,Win32,58.2954413,,,,,,,,,,,,,,,,,,,,,,,,,,,,,,,,,,,,,,3,5.5425,0,4,4,4,1,loathing,diffidence,laziness,abhorrence,cleverness,comfort,3,,,,,,,,,,,,,,,,,,,,,,,,,,,,,,,,,,,,,,
,,,,,,,,,,,,,,,89761,001,2022-04-27_15h51.52.354,SPAMnetsValid,2021.1.4,Win32,58.2954413,,,,,,,,,,,,,,,,,,,,,,,,,,,,,,,,,,,,,,,,0,5,5,5,1,bantam,fowl,ridicule,cripple,vegetable,ensign,1,,,,,,,,,,,,,,,,,,,,,,,,,,,,,,,,,,,,,,
,,,,,,,,,,,,,,,89761,001,2022-04-27_15h51.52.354,SPAMnetsValid,2021.1.4,Win32,58.2954413,,,,,,,,,,,,,,,,,,,,,,,,,,,,,,,,,,,,,,5,2.6286,0,6,6,6,1,evoke,wake up,surrender,reconnoiter,transcend,call forth,5,,,,,,,,,,,,,,,,,,,,,,,,,,,,,,,,,,,,,,
,,,,,,,,,,,,,,,89761,001,2022-04-27_15h51.52.354,SPAMnetsValid,2021.1.4,Win32,58.2954413,,,,,,,,,,,,,,,,,,,,,,,,,,,,,,,,,,,,,,4,3.5243,0,7,7,7,1,unobtrusive,unintelligent,epileptic,illogical,lineal,modest,5,,,,,,,,,,,,,,,,,,,,,,,,,,,,,,,,,,,,,,
,,,,,,,,,,,,,,,89761,001,2022-04-27_15h51.52.354,SPAMnetsValid,2021.1.4,Win32,58.2954413,,,,,,,,,,,,,,,,,,,,,,,,,,,,,,,,,,,,,,4,2.6011,0,8,8,8,1,terrain,ice cream,final test,tractor,area of ground,weight,4,,,,,,,,,,,,,,,,,,,,,,,,,,,,,,,,,,,,,,
,,,,,,,,,,,,,,,89761,001,2022-04-27_15h51.52.354,SPAMnetsValid,2021.1.4,Win32,58.2954413,,,,,,,,,,,,,,,,,,,,,,,,,,,,,,,,,,,,,,4,2.4186,0,9,9,9,1,capriciousness,stubbornness,courage,whimsicality,amazement,greediness,3,,,,,,,,,,,,,,,,,,,,,,,,,,,,,,,,,,,,,,
,,,,,,,,,,,,,,,89761,001,2022-04-27_15h51.52.354,SPAMnetsValid,2021.1.4,Win32,58.2954413,,,,,,,,,,,,,,,,,,,,,,,,,,,,,,,,,,,,,,2,1.7463,0,10,10,10,1,maelstrom,slander,whirlpool,enmity,armor,majolica,2,,,,,,,,,,,,,,,,,,,,,,,,,,,,,,,,,,,,,,
,,,,,,,,,,,,,,,89761,001,2022-04-27_15h51.52.354,SPAMnetsValid,2021.1.4,Win32,58.2954413,,,,,,,,,,,,,,,,,,,,,,,,,,,,,,,,,,,,,,4,4.7972,0,11,11,11,1,tentative,critical,conclusive,authentic,provisional,apprehensive,4,,,,,,,,,,,,,,,,,,,,,,,,,,,,,,,,,,,,,,
,,,,,,,,,,,,,,,89761,001,2022-04-27_15h51.52.354,SPAMnetsValid,2021.1.4,Win32,58.2954413,,,,,,,,,,,,,,,,,,,,,,,,,,,,,,,,,,,,,,5,2.8187,0,12,12,12,1,placate,rehabilitate,plagiarize,depredate,apprise,conciliate,5,,,,,,,,,,,,,,,,,,,,,,,,,,,,,,,,,,,,,,
,,,,,,,,,,,,,,,89761,001,2022-04-27_15h51.52.354,SPAMnetsValid,2021.1.4,Win32,58.2954413,,,,,,,,,,,,,,,,,,,,,,,,,,,,,,,,,,,,,,1,2.1619,0,13,13,13,1,surcease,enlightenment,cessation,inattention,censor,substitution,2,,,,,,,,,,,,,,,,,,,,,,,,,,,,,,,,,,,,,,
,,,,,,,,,,,,,,,89761,001,2022-04-27_15h51.52.354,SPAMnetsValid,2021.1.4,Win32,58.2954413,,,,,,,,,,,,,,,,,,,,,,,,,,,,,,,,,,,,,,2,1.6525,0,14,14,14,1,apathetic,wandering,impassive,hateful,prophetic,overflowing,2,,,,,,,,,,,,,,,,,,,,,,,,,,,,,,,,,,,,,,
,,,,,,,,,,,,,,,89761,001,2022-04-27_15h51.52.354,SPAMnetsValid,2021.1.4,Win32,58.2954413,,,,,,,,,,,,,,,,,,,,,,,,,,,,,,,,,,,,,,,,0,15,15,15,1,paternoster,paternalism,patricide,malediction,benediction,prayer,5,,,,,,,,,,,,,,,,,,,,,,,,,,,,,,,,,,,,,,
,,,,,,,,,,,,,,,89761,001,2022-04-27_15h51.52.354,SPAMnetsValid,2021.1.4,Win32,58.2954413,,,,,,,,,,,,,,,,,,,,,,,,,,,,,,,,,,,,,,1,3.7282,0,16,16,16,1,opalescence,opulence,senescence,bankruptcy,iridescence,assiduity,4,,,,,,,,,,,,,,,,,,,,,,,,,,,,,,,,,,,,,,
,,,,,,,,,,,,,,,89761,001,2022-04-27_15h51.52.354,SPAMnetsValid,2021.1.4,Win32,58.2954413,,,,,,,,,,,,,,,,,,,,,,,,,,,,,,,,,,,,,,5,3.7405,0,17,17,17,1,lush,stupid,luxurious,hazy,putrid,languishing,2,,,,,,,,,,,,,,,,,,,,,,,,,,,,,,,,,,,,,,
,,,,,,,,,,,,,,,89761,001,2022-04-27_15h51.52.354,SPAMnetsValid,2021.1.4,Win32,58.2954413,,,,,,,,,,,,,,,,,,,,,,,,,,,,,,,,,,,,,,4,3.771,0,18,18,18,1,curtailment,expenditure,abandonment,abridgment,improvement,forgery,3,,,,,,,,,,,,,,,,,,,,,,,,,,,,,,,,,,,,,,
,,,,,,,,,,,,,,,89761,001,2022-04-27_15h51.52.354,SPAMnetsValid,2021.1.4,Win32,58.2954413,,,,,,,,,,,,,,,,,,,,,,,,,,,,,,,,,,,,,,2,4.695,0,19,19,19,1,perversity,adversity,perviousness,travesty,waywardness,gentility,4,,,,,,,,,,,,,,,,,,,,,,,,,,,,,,,,,,,,,,
,,,,,,,,,,,,,,,89761,001,2022-04-27_15h51.52.354,SPAMnetsValid,2021.1.4,Win32,58.2954413,,,,,,,,,,,,,,,,,,,,,,,,,,,,,,,,,,,,,,3,2.4927,0,20,20,20,1,calumnious,complimentary,analogous,slanderous,tempestuous,magnanimous,3,,,,,,,,,,,,,,,,,,,,,,,,,,,,,,,,,,,,,,
,,,,,,,,,,,,,,,89761,001,2022-04-27_15h51.52.354,SPAMnetsValid,2021.1.4,Win32,58.2954413,,,,,,,,,,,,,,,,,,,,,,,,,,,,,,,,,,,,,,5,5.488,0,21,21,21,1,illiberality,bigotry,imbecility,illegibility,cautery,immaturity,1,,,,,,,,,,,,,,,,,,,,,,,,,,,,,,,,,,,,,,
,,,,,,,,,,,,,,,89761,001,2022-04-27_15h51.52.354,SPAMnetsValid,2021.1.4,Win32,58.2954413,,,,,,,,,,,,,,,,,,,,,,,,,,,,,,,,,,,,,,2,4.1013,0,22,22,22,1,clabber,rejoice,gossip,curdle,crow,hobble,3,,,,,,,,,,,,,,,,,,,,,,,,,,,,,,,,,,,,,,
,,,,,,,,,,,,,,,89761,001,2022-04-27_15h51.52.354,SPAMnetsValid,2021.1.4,Win32,58.2954413,,,,,,,,,,,,,,,,,,,,,,,,,,,,,,,,,,,,,,3,8.8466,0,23,23,23,1,sedulousness,diligence,credulousness,seduction,perilousness,frankness,1,,,,,,,,,,,,,,,,,,,,,,,,,,,,,,,,,,,,,,
,,,,,,,,,,,,,,,89761,001,2022-04-27_15h51.52.354,SPAMnetsValid,2021.1.4,Win32,58.2954413,,,,,,,,,,,,,,,,,,,,,,,,,,,,,,,,,,,,,,,,,,,,,,,,,,,,"sleep, throw, cushion, smother, support",pillow,0,0,0,0,1,,,,,,,,,,,,,,,,,,,,,,,,,,,,,,,
,,,,,,,,,,,,,,,89761,001,2022-04-27_15h51.52.354,SPAMnetsValid,2021.1.4,Win32,58.2954413,,,,,,,,,,,,,,,,,,,,,,,,,,,,,,,,,,,,,,,,,,,,,,,,,,,,sleep,pillow,1,0,1,0,1,,,,,,,,,,,,,,,,,,,,,,,,,,,,,,,
,,,,,,,,,,,,,,,89761,001,2022-04-27_15h51.52.354,SPAMnetsValid,2021.1.4,Win32,58.2954413,,,,,,,,,,,,,,,,,,,,,,,,,,,,,,,,,,,,,,,,,,,,,,,,,,,,smother,pillow,2,0,2,0,1,,,,,,,,,,,,,,,,,,,,,,,,,,,,,,,
,,,,,,,,,,,,,,,89761,001,2022-04-27_15h51.52.354,SPAMnetsValid,2021.1.4,Win32,58.2954413,,,,,,,,,,,,,,,,,,,,,,,,,,,,,,,,,,,,,,,,,,,,,,,,,,,,supprt,pillow,3,0,3,0,1,,,,,,,,,,,,,,,,,,,,,,,,,,,,,,,
,,,,,,,,,,,,,,,89761,001,2022-04-27_15h51.52.354,SPAMnetsValid,2021.1.4,Win32,58.2954413,,,,,,,,,,,,,,,,,,,,,,,,,,,,,,,,,,,,,,,,,,,,,,,,,,,,cushion,pillow,4,0,4,0,1,,,,,,,,,,,,,,,,,,,,,,,,,,,,,,,
,,,,,,,,,,,,,,,89761,001,2022-04-27_15h51.52.354,SPAMnetsValid,2021.1.4,Win32,58.2954413,,,,,,,,,,,,,,,,,,,,,,,,,,,,,,,,,,,,,,,,,,,,,,,,,,,,brace,pillow,5,0,5,0,1,,,,,,,,,,,,,,,,,,,,,,,,,,,,,,,
,,,,,,,,,,,,,,,89761,001,2022-04-27_15h51.52.354,SPAMnetsValid,2021.1.4,Win32,58.2954413,,,,,,,,,,,,,,,,,,,,,,,,,,,,,,,,,,,,,,,,,,,,,,,,,,,,feathers,pillow,6,0,6,0,1,,,,,,,,,,,,,,,,,,,,,,,,,,,,,,,
,,,,,,,,,,,,,,,89761,001,2022-04-27_15h51.52.354,SPAMnetsValid,2021.1.4,Win32,58.2954413,,,,,,,,,,,,,,,,,,,,,,,,,,,,,,,,,,,,,,,,,,,,,,,,,,,,sack,pillow,7,0,7,0,1,,,,,,,,,,,,,,,,,,,,,,,,,,,,,,,
,,,,,,,,,,,,,,,89761,001,2022-04-27_15h51.52.354,SPAMnetsValid,2021.1.4,Win32,58.2954413,,,,,,,,,,,,,,,,,,,,,,,,,,,,,,,,,,,,,,,,,,,,,,,,,,,,,,,,,,,0,0,0,2,1,pillow,,,,,,,,,,,,,,,,,,,,,,,,,
,,,,,,,,,,,,,,,89761,001,2022-04-27_15h51.52.354,SPAMnetsValid,2021.1.4,Win32,58.2954413,,,,,,,,,,,,,,,,,,,,,,,,,,,,,,,,,,,,,,,,,,,,,,,,,,,,helmet,bucket,0,0,0,0,1,,,,,,,,,,,,,,,,,,,,,,,,,,,,,,,
,,,,,,,,,,,,,,,89761,001,2022-04-27_15h51.52.354,SPAMnetsValid,2021.1.4,Win32,58.2954413,,,,,,,,,,,,,,,,,,,,,,,,,,,,,,,,,,,,,,,,,,,,,,,,,,,,cap,bucket,1,0,1,0,1,,,,,,,,,,,,,,,,,,,,,,,,,,,,,,,
,,,,,,,,,,,,,,,89761,001,2022-04-27_15h51.52.354,SPAMnetsValid,2021.1.4,Win32,58.2954413,,,,,,,,,,,,,,,,,,,,,,,,,,,,,,,,,,,,,,,,,,,,,,,,,,,,carry,bucket,2,0,2,0,1,,,,,,,,,,,,,,,,,,,,,,,,,,,,,,,
,,,,,,,,,,,,,,,89761,001,2022-04-27_15h51.52.354,SPAMnetsValid,2021.1.4,Win32,58.2954413,,,,,,,,,,,,,,,,,,,,,,,,,,,,,,,,,,,,,,,,,,,,,,,,,,,,submerge,bucket,3,0,3,0,1,,,,,,,,,,,,,,,,,,,,,,,,,,,,,,,
,,,,,,,,,,,,,,,89761,001,2022-04-27_15h51.52.354,SPAMnetsValid,2021.1.4,Win32,58.2954413,,,,,,,,,,,,,,,,,,,,,,,,,,,,,,,,,,,,,,,,,,,,,,,,,,,,wash,bucket,4,0,4,0,1,,,,,,,,,,,,,,,,,,,,,,,,,,,,,,,
,,,,,,,,,,,,,,,89761,001,2022-04-27_15h51.52.354,SPAMnetsValid,2021.1.4,Win32,58.2954413,,,,,,,,,,,,,,,,,,,,,,,,,,,,,,,,,,,,,,,,,,,,,,,,,,,,suffocate,bucket,5,0,5,0,1,,,,,,,,,,,,,,,,,,,,,,,,,,,,,,,
,,,,,,,,,,,,,,,89761,001,2022-04-27_15h51.52.354,SPAMnetsValid,2021.1.4,Win32,58.2954413,,,,,,,,,,,,,,,,,,,,,,,,,,,,,,,,,,,,,,,,,,,,,,,,,,,,blind,bucket,6,0,6,0,1,,,,,,,,,,,,,,,,,,,,,,,,,,,,,,,
,,,,,,,,,,,,,,,89761,001,2022-04-27_15h51.52.354,SPAMnetsValid,2021.1.4,Win32,58.2954413,,,,,,,,,,,,,,,,,,,,,,,,,,,,,,,,,,,,,,,,,,,,,,,,,,,,dull,bucket,7,0,7,0,1,,,,,,,,,,,,,,,,,,,,,,,,,,,,,,,
,,,,,,,,,,,,,,,89761,001,2022-04-27_15h51.52.354,SPAMnetsValid,2021.1.4,Win32,58.2954413,,,,,,,,,,,,,,,,,,,,,,,,,,,,,,,,,,,,,,,,,,,,,,,,,,,,stool,bucket,8,0,8,0,1,,,,,,,,,,,,,,,,,,,,,,,,,,,,,,,
,,,,,,,,,,,,,,,89761,001,2022-04-27_15h51.52.354,SPAMnetsValid,2021.1.4,Win32,58.2954413,,,,,,,,,,,,,,,,,,,,,,,,,,,,,,,,,,,,,,,,,,,,,,,,,,,,step,bucket,9,0,9,0,1,,,,,,,,,,,,,,,,,,,,,,,,,,,,,,,
,,,,,,,,,,,,,,,89761,001,2022-04-27_15h51.52.354,SPAMnetsValid,2021.1.4,Win32,58.2954413,,,,,,,,,,,,,,,,,,,,,,,,,,,,,,,,,,,,,,,,,,,,,,,,,,,,,,,,,,,0,1,1,0,1,bucket,,,,,,,,,,,,,,,,,,,,,,,,,
,,,,,,,,,,,,,,,89761,001,2022-04-27_15h51.52.354,SPAMnetsValid,2021.1.4,Win32,58.2954413,,,,,,,,,,,,,,,,,,,,,,,,,,,,,,,,,,,,,,,,,,,,,,,,,,,,light,candle,0,0,0,0,1,,,,,,,,,,,,,,,,,,,,,,,,,,,,,,,
,,,,,,,,,,,,,,,89761,001,2022-04-27_15h51.52.354,SPAMnetsValid,2021.1.4,Win32,58.2954413,,,,,,,,,,,,,,,,,,,,,,,,,,,,,,,,,,,,,,,,,,,,,,,,,,,,burn,candle,1,0,1,0,1,,,,,,,,,,,,,,,,,,,,,,,,,,,,,,,
,,,,,,,,,,,,,,,89761,001,2022-04-27_15h51.52.354,SPAMnetsValid,2021.1.4,Win32,58.2954413,,,,,,,,,,,,,,,,,,,,,,,,,,,,,,,,,,,,,,,,,,,,,,,,,,,,smoke,candle,2,0,2,0,1,,,,,,,,,,,,,,,,,,,,,,,,,,,,,,,
,,,,,,,,,,,,,,,89761,001,2022-04-27_15h51.52.354,SPAMnetsValid,2021.1.4,Win32,58.2954413,,,,,,,,,,,,,,,,,,,,,,,,,,,,,,,,,,,,,,,,,,,,,,,,,,,,melt,candle,3,0,3,0,1,,,,,,,,,,,,,,,,,,,,,,,,,,,,,,,
,,,,,,,,,,,,,,,89761,001,2022-04-27_15h51.52.354,SPAMnetsValid,2021.1.4,Win32,58.2954413,,,,,,,,,,,,,,,,,,,,,,,,,,,,,,,,,,,,,,,,,,,,,,,,,,,,wax,candle,4,0,4,0,1,,,,,,,,,,,,,,,,,,,,,,,,,,,,,,,
,,,,,,,,,,,,,,,89761,001,2022-04-27_15h51.52.354,SPAMnetsValid,2021.1.4,Win32,58.2954413,,,,,,,,,,,,,,,,,,,,,,,,,,,,,,,,,,,,,,,,,,,,,,,,,,,,scar,candle,5,0,5,0,1,,,,,,,,,,,,,,,,,,,,,,,,,,,,,,,
,,,,,,,,,,,,,,,89761,001,2022-04-27_15h51.52.354,SPAMnetsValid,2021.1.4,Win32,58.2954413,,,,,,,,,,,,,,,,,,,,,,,,,,,,,,,,,,,,,,,,,,,,,,,,,,,,,,,,,,,0,2,2,1,1,candle,,,,,,,,,,,,,,,,,,,,,,,,,
,,,,,,,,,,,,,,,89761,001,2022-04-27_15h51.52.354,SPAMnetsValid,2021.1.4,Win32,58.2954413,,,,,,,,,,,,,,,,,,,,,,,,,,,,,,,,,,,,,,,,,,,,,,,,,,,,,,,,,,,,,,,,,tiger,Animals,0,0,0,0,1,,,,,,,,,,,,,,,,,,
,,,,,,,,,,,,,,,89761,001,2022-04-27_15h51.52.354,SPAMnetsValid,2021.1.4,Win32,58.2954413,,,,,,,,,,,,,,,,,,,,,,,,,,,,,,,,,,,,,,,,,,,,,,,,,,,,,,,,,,,,,,,,,lion,Animals,1,0,1,0,1,,,,,,,,,,,,,,,,,,
,,,,,,,,,,,,,,,89761,001,2022-04-27_15h51.52.354,SPAMnetsValid,2021.1.4,Win32,58.2954413,,,,,,,,,,,,,,,,,,,,,,,,,,,,,,,,,,,,,,,,,,,,,,,,,,,,,,,,,,,,,,,,,seal,Animals,2,0,2,0,1,,,,,,,,,,,,,,,,,,
,,,,,,,,,,,,,,,89761,001,2022-04-27_15h51.52.354,SPAMnetsValid,2021.1.4,Win32,58.2954413,,,,,,,,,,,,,,,,,,,,,,,,,,,,,,,,,,,,,,,,,,,,,,,,,,,,,,,,,,,,,,,,,elephant,Animals,3,0,3,0,1,,,,,,,,,,,,,,,,,,
,,,,,,,,,,,,,,,89761,001,2022-04-27_15h51.52.354,SPAMnetsValid,2021.1.4,Win32,58.2954413,,,,,,,,,,,,,,,,,,,,,,,,,,,,,,,,,,,,,,,,,,,,,,,,,,,,,,,,,,,,,,,,,alligator,Animals,4,0,4,0,1,,,,,,,,,,,,,,,,,,
,,,,,,,,,,,,,,,89761,001,2022-04-27_15h51.52.354,SPAMnetsValid,2021.1.4,Win32,58.2954413,,,,,,,,,,,,,,,,,,,,,,,,,,,,,,,,,,,,,,,,,,,,,,,,,,,,,,,,,,,,,,,,,crocidle,Animals,5,0,5,0,1,,,,,,,,,,,,,,,,,,
,,,,,,,,,,,,,,,89761,001,2022-04-27_15h51.52.354,SPAMnetsValid,2021.1.4,Win32,58.2954413,,,,,,,,,,,,,,,,,,,,,,,,,,,,,,,,,,,,,,,,,,,,,,,,,,,,,,,,,,,,,,,,,dog,Animals,6,0,6,0,1,,,,,,,,,,,,,,,,,,
,,,,,,,,,,,,,,,89761,001,2022-04-27_15h51.52.354,SPAMnetsValid,2021.1.4,Win32,58.2954413,,,,,,,,,,,,,,,,,,,,,,,,,,,,,,,,,,,,,,,,,,,,,,,,,,,,,,,,,,,,,,,,,car,Animals,7,0,7,0,1,,,,,,,,,,,,,,,,,,
,,,,,,,,,,,,,,,89761,001,2022-04-27_15h51.52.354,SPAMnetsValid,2021.1.4,Win32,58.2954413,,,,,,,,,,,,,,,,,,,,,,,,,,,,,,,,,,,,,,,,,,,,,,,,,,,,,,,,,,,,,,,,,cat,Animals,8,0,8,0,1,,,,,,,,,,,,,,,,,,
,,,,,,,,,,,,,,,89761,001,2022-04-27_15h51.52.354,SPAMnetsValid,2021.1.4,Win32,58.2954413,,,,,,,,,,,,,,,,,,,,,,,,,,,,,,,,,,,,,,,,,,,,,,,,,,,,,,,,,,,,,,,,,rat,Animals,9,0,9,0,1,,,,,,,,,,,,,,,,,,
,,,,,,,,,,,,,,,89761,001,2022-04-27_15h51.52.354,SPAMnetsValid,2021.1.4,Win32,58.2954413,,,,,,,,,,,,,,,,,,,,,,,,,,,,,,,,,,,,,,,,,,,,,,,,,,,,,,,,,,,,,,,,,mouse,Animals,10,0,10,0,1,,,,,,,,,,,,,,,,,,
,,,,,,,,,,,,,,,89761,001,2022-04-27_15h51.52.354,SPAMnetsValid,2021.1.4,Win32,58.2954413,,,,,,,,,,,,,,,,,,,,,,,,,,,,,,,,,,,,,,,,,,,,,,,,,,,,,,,,,,,,,,,,,penguin,Animals,11,0,11,0,1,,,,,,,,,,,,,,,,,,
,,,,,,,,,,,,,,,89761,001,2022-04-27_15h51.52.354,SPAMnetsValid,2021.1.4,Win32,58.2954413,,,,,,,,,,,,,,,,,,,,,,,,,,,,,,,,,,,,,,,,,,,,,,,,,,,,,,,,,,,,,,,,,sharks,Animals,12,0,12,0,1,,,,,,,,,,,,,,,,,,
,,,,,,,,,,,,,,,89761,001,2022-04-27_15h51.52.354,SPAMnetsValid,2021.1.4,Win32,58.2954413,,,,,,,,,,,,,,,,,,,,,,,,,,,,,,,,,,,,,,,,,,,,,,,,,,,,,,,,,,,,,,,,,lizards,Animals,13,0,13,0,1,,,,,,,,,,,,,,,,,,
,,,,,,,,,,,,,,,89761,001,2022-04-27_15h51.52.354,SPAMnetsValid,2021.1.4,Win32,58.2954413,,,,,,,,,,,,,,,,,,,,,,,,,,,,,,,,,,,,,,,,,,,,,,,,,,,,,,,,,,,,,,,,,bear,Animals,14,0,14,0,1,,,,,,,,,,,,,,,,,,
,,,,,,,,,,,,,,,89761,001,2022-04-27_15h51.52.354,SPAMnetsValid,2021.1.4,Win32,58.2954413,,,,,,,,,,,,,,,,,,,,,,,,,,,,,,,,,,,,,,,,,,,,,,,,,,,,,,,,,,,,,,,,,deer,Animals,15,0,15,0,1,,,,,,,,,,,,,,,,,,
,,,,,,,,,,,,,,,89761,001,2022-04-27_15h51.52.354,SPAMnetsValid,2021.1.4,Win32,58.2954413,,,,,,,,,,,,,,,,,,,,,,,,,,,,,,,,,,,,,,,,,,,,,,,,,,,,,,,,,,,,,,,,,elk,Animals,16,0,16,0,1,,,,,,,,,,,,,,,,,,
,,,,,,,,,,,,,,,89761,001,2022-04-27_15h51.52.354,SPAMnetsValid,2021.1.4,Win32,58.2954413,,,,,,,,,,,,,,,,,,,,,,,,,,,,,,,,,,,,,,,,,,,,,,,,,,,,,,,,,,,,,,,,,flamingo,Animals,17,0,17,0,1,,,,,,,,,,,,,,,,,,
,,,,,,,,,,,,,,,89761,001,2022-04-27_15h51.52.354,SPAMnetsValid,2021.1.4,Win32,58.2954413,,,,,,,,,,,,,,,,,,,,,,,,,,,,,,,,,,,,,,,,,,,,,,,,,,,,,,,,,,,,,,,,,robbin,Animals,18,0,18,0,1,,,,,,,,,,,,,,,,,,
,,,,,,,,,,,,,,,89761,001,2022-04-27_15h51.52.354,SPAMnetsValid,2021.1.4,Win32,58.2954413,,,,,,,,,,,,,,,,,,,,,,,,,,,,,,,,,,,,,,,,,,,,,,,,,,,,,,,,,,,,,,,,,ladybug,Animals,19,0,19,0,1,,,,,,,,,,,,,,,,,,
,,,,,,,,,,,,,,,89761,001,2022-04-27_15h51.52.354,SPAMnetsValid,2021.1.4,Win32,58.2954413,,,,,,,,,,,,,,,,,,,,,,,,,,,,,,,,,,,,,,,,,,,,,,,,,,,,,,,,,,,,,,,,,stnk bugs,Animals,20,0,20,0,1,,,,,,,,,,,,,,,,,,
,,,,,,,,,,,,,,,89761,001,2022-04-27_15h51.52.354,SPAMnetsValid,2021.1.4,Win32,58.2954413,,,,,,,,,,,,,,,,,,,,,,,,,,,,,,,,,,,,,,,,,,,,,,,,,,,,,,,,,,,,,,,,,bees,Animals,21,0,21,0,1,,,,,,,,,,,,,,,,,,
,,,,,,,,,,,,,,,89761,001,2022-04-27_15h51.52.354,SPAMnetsValid,2021.1.4,Win32,58.2954413,,,,,,,,,,,,,,,,,,,,,,,,,,,,,,,,,,,,,,,,,,,,,,,,,,,,,,,,,,,,,,,,,wasps,Animals,22,0,22,0,1,,,,,,,,,,,,,,,,,,
,,,,,,,,,,,,,,,89761,001,2022-04-27_15h51.52.354,SPAMnetsValid,2021.1.4,Win32,58.2954413,,,,,,,,,,,,,,,,,,,,,,,,,,,,,,,,,,,,,,,,,,,,,,,,,,,,,,,,,,,,,,,,,sparrow,Animals,23,0,23,0,1,,,,,,,,,,,,,,,,,,
,,,,,,,,,,,,,,,89761,001,2022-04-27_15h51.52.354,SPAMnetsValid,2021.1.4,Win32,58.2954413,,,,,,,,,,,,,,,,,,,,,,,,,,,,,,,,,,,,,,,,,,,,,,,,,,,,,,,,,,,,,,,,,fish,Animals,24,0,24,0,1,,,,,,,,,,,,,,,,,,
,,,,,,,,,,,,,,,89761,001,2022-04-27_15h51.52.354,SPAMnetsValid,2021.1.4,Win32,58.2954413,,,,,,,,,,,,,,,,,,,,,,,,,,,,,,,,,,,,,,,,,,,,,,,,,,,,,,,,,,,,,,,,,whale,Animals,25,0,25,0,1,,,,,,,,,,,,,,,,,,
,,,,,,,,,,,,,,,89761,001,2022-04-27_15h51.52.354,SPAMnetsValid,2021.1.4,Win32,58.2954413,,,,,,,,,,,,,,,,,,,,,,,,,,,,,,,,,,,,,,,,,,,,,,,,,,,,,,,,,,,,,,,,,cheetah,Animals,26,0,26,0,1,,,,,,,,,,,,,,,,,,
,,,,,,,,,,,,,,,89761,001,2022-04-27_15h51.52.354,SPAMnetsValid,2021.1.4,Win32,58.2954413,,,,,,,,,,,,,,,,,,,,,,,,,,,,,,,,,,,,,,,,,,,,,,,,,,,,,,,,,,,,,,,,,bitches,Animals,27,0,27,0,1,,,,,,,,,,,,,,,,,,
,,,,,,,,,,,,,,,89761,001,2022-04-27_15h51.52.354,SPAMnetsValid,2021.1.4,Win32,58.2954413,,,,,,,,,,,,,,,,,,,,,,,,,,,,,,,,,,,,,,,,,,,,,,,,,,,,,,,,,,,,,,,,,,,,,,,,0,0,0,0,1,Animals,,,,,,,,,,,,
,,,,,,,,,,,,,,,89761,001,2022-04-27_15h51.52.354,SPAMnetsValid,2021.1.4,Win32,58.2954413,,,,,,,,,,,,,,,,,,,,,,,,,,,,,,,,,,,,,,,,,,,,,,,,,,,,,,,,,,,,,,,,,,,,,,,,,,,,,,4,6.9039,0,0,0,0,1,"I enjoy concentrating on a fantasy or daydream and exploring all its possibilities, letting it grow and develop.",0,1,,
,,,,,,,,,,,,,,,89761,001,2022-04-27_15h51.52.354,SPAMnetsValid,2021.1.4,Win32,58.2954413,,,,,,,,,,,,,,,,,,,,,,,,,,,,,,,,,,,,,,,,,,,,,,,,,,,,,,,,,,,,,,,,,,,,,,,,,,,,,,4,3.3074,0,1,1,1,1,I think it's interesting to learn and develop new hobbies.,0,2,,
,,,,,,,,,,,,,,,89761,001,2022-04-27_15h51.52.354,SPAMnetsValid,2021.1.4,Win32,58.2954413,,,,,,,,,,,,,,,,,,,,,,,,,,,,,,,,,,,,,,,,,,,,,,,,,,,,,,,,,,,,,,,,,,,,,,,,,,,,,,4,2.0866,0,2,2,2,1,I am intrigued by the patterns I find in art and nature.,0,3,,
,,,,,,,,,,,,,,,89761,001,2022-04-27_15h51.52.354,SPAMnetsValid,2021.1.4,Win32,58.2954413,,,,,,,,,,,,,,,,,,,,,,,,,,,,,,,,,,,,,,,,,,,,,,,,,,,,,,,,,,,,,,,,,,,,,,,,,,,,,,2,4.2356,0,3,3,3,1,I believe letting students hear controversial speakers can only confuse and mislead them.,1,4,,
,,,,,,,,,,,,,,,89761,001,2022-04-27_15h51.52.354,SPAMnetsValid,2021.1.4,Win32,58.2954413,,,,,,,,,,,,,,,,,,,,,,,,,,,,,,,,,,,,,,,,,,,,,,,,,,,,,,,,,,,,,,,,,,,,,,,,,,,,,,2,1.4895,0,4,4,4,1,Poetry has little or no effect on me.,1,5,,
,,,,,,,,,,,,,,,89761,001,2022-04-27_15h51.52.354,SPAMnetsValid,2021.1.4,Win32,58.2954413,,,,,,,,,,,,,,,,,,,,,,,,,,,,,,,,,,,,,,,,,,,,,,,,,,,,,,,,,,,,,,,,,,,,,,,,,,,,,,3,5.325,0,5,5,5,1,I would have difficulty just letting my mind wander without control or guidance.,1,6,,
,,,,,,,,,,,,,,,89761,001,2022-04-27_15h51.52.354,SPAMnetsValid,2021.1.4,Win32,58.2954413,,,,,,,,,,,,,,,,,,,,,,,,,,,,,,,,,,,,,,,,,,,,,,,,,,,,,,,,,,,,,,,,,,,,,,,,,,,,,,2,3.1247,0,6,6,6,1,I seldom notice the moods or feelings that different environments produce.,1,7,,
,,,,,,,,,,,,,,,89761,001,2022-04-27_15h51.52.354,SPAMnetsValid,2021.1.4,Win32,58.2954413,,,,,,,,,,,,,,,,,,,,,,,,,,,,,,,,,,,,,,,,,,,,,,,,,,,,,,,,,,,,,,,,,,,,,,,,,,,,,,5,2.1892,0,7,7,7,1,I experience a wide range of emotions or feelings.,0,8,,
,,,,,,,,,,,,,,,89761,001,2022-04-27_15h51.52.354,SPAMnetsValid,2021.1.4,Win32,58.2954413,,,,,,,,,,,,,,,,,,,,,,,,,,,,,,,,,,,,,,,,,,,,,,,,,,,,,,,,,,,,,,,,,,,,,,,,,,,,,,4,2.8564,0,8,8,8,1,"Sometimes when I am reading poetry or looking at a work of art, I feel a chill or wave of excitement.",0,9,,
,,,,,,,,,,,,,,,89761,001,2022-04-27_15h51.52.354,SPAMnetsValid,2021.1.4,Win32,58.2954413,,,,,,,,,,,,,,,,,,,,,,,,,,,,,,,,,,,,,,,,,,,,,,,,,,,,,,,,,,,,,,,,,,,,,,,,,,,,,,1,3.4094,0,9,9,9,1,I have little interest in speculating on the nature of the universe or the human condition.,1,10,,
,,,,,,,,,,,,,,,89761,001,2022-04-27_15h51.52.354,SPAMnetsValid,2021.1.4,Win32,58.2954413,,,,,,,,,,,,,,,,,,,,,,,,,,,,,,,,,,,,,,,,,,,,,,,,,,,,,,,,,,,,,,,,,,,,,,,,,,,,,,5,2.3722,0,10,10,10,1,I have a lot of intellectual curiosity.,0,11,,
,,,,,,,,,,,,,,,89761,001,2022-04-27_15h51.52.354,SPAMnetsValid,2021.1.4,Win32,58.2954413,,,,,,,,,,,,,,,,,,,,,,,,,,,,,,,,,,,,,,,,,,,,,,,,,,,,,,,,,,,,,,,,,,,,,,,,,,,,,,4,1.7163,0,11,11,11,1,I often enjoy playing with theories or abstract ideas.,0,12,,
,,,,,,,,,,,,,,,89761,001,2022-04-27_15h51.52.354,SPAMnetsValid,2021.1.4,Win32,58.2954413,,,,,,,,,,,,,,,,,,,,,,,,,,,,,,,,,,,,,,,,,,,,,,,,,,,,,,,,,,,,,,,,,,,,,,,,,,,,,,,,,,,,,,,,return,9.7487
