key_resp_3.keys,key_resp_3.rt,slider.response,slider.rt,rjt_rating,rjt_RT,trials_22.thisRepN,trials_22.thisTrialN,trials_22.thisN,trials_22.thisIndex,trials_22.ran,rjt_order,word1,word2,attention,participant,session,date,expName,psychopyVersion,OS,frameRate,trials_99.thisRepN,trials_99.thisTrialN,trials_99.thisN,trials_99.thisIndex,trials_99.ran,trials_5.thisRepN,trials_5.thisTrialN,trials_5.thisN,trials_5.thisIndex,trials_5.ran,repOne,repTwo,slider_2.response,slider_2.rt,trials_24.thisRepN,trials_24.thisTrialN,trials_24.thisN,trials_24.thisIndex,trials_24.ran,trials_4.thisRepN,trials_4.thisTrialN,trials_4.thisN,trials_4.thisIndex,trials_4.ran,slider_extend_2.response,slider_extend_2.rt,trials_6.thisRepN,trials_6.thisTrialN,trials_6.thisN,trials_6.thisIndex,trials_6.ran,vCue2,R1,R2,R3,R4,correct,sliderVocab.response,sliderVocab.rt,trials_7.thisRepN,trials_7.thisTrialN,trials_7.thisN,trials_7.thisIndex,trials_7.ran,VocabCue,VR1,VR2,VR3,VR4,VR5,VocabCorrect,AUT_resp,AUT_label,trials.thisRepN,trials.thisTrialN,trials.thisN,trials.thisIndex,trials.ran,trials_2.thisRepN,trials_2.thisTrialN,trials_2.thisN,trials_2.thisIndex,trials_2.ran,aut_prompt,VF_response,VF_tag,trials_16.thisRepN,trials_16.thisTrialN,trials_16.thisN,trials_16.thisIndex,trials_16.ran,trials_17.thisRepN,trials_17.thisTrialN,trials_17.thisN,trials_17.thisIndex,trials_17.ran,VFcond,open_slider.response,open_slider.rt,trials_3.thisRepN,trials_3.thisTrialN,trials_3.thisN,trials_3.thisIndex,trials_3.ran,OpenQ,Rev,OPEN_ORDER,key_resp_2.keys,key_resp_2.rt
return,4.8494,1,4.9419,1,4.9419,0,0,0,26,1,35,flower,pretzel,,89775,001,2022-04-26_22h50.38.689,SPAMnetsValid,2021.1.4,Win32,60.0132029,,,,,,,,,,,,,,,,,,,,,,,,,,,,,,,,,,,,,,,,,,,,,,,,,,,,,,,,,,,,,,,,,,,,,,,,,,,,,,,,,,,,,,,,,
,,6,4.3575,6,4.3575,0,1,1,96,1,82,cake,kitchen,,89775,001,2022-04-26_22h50.38.689,SPAMnetsValid,2021.1.4,Win32,60.0132029,,,,,,,,,,,,,,,,,,,,,,,,,,,,,,,,,,,,,,,,,,,,,,,,,,,,,,,,,,,,,,,,,,,,,,,,,,,,,,,,,,,,,,,,,
,,7,2.3417,7,2.3417,0,2,2,44,1,25,carrot,onion,,89775,001,2022-04-26_22h50.38.689,SPAMnetsValid,2021.1.4,Win32,60.0132029,,,,,,,,,,,,,,,,,,,,,,,,,,,,,,,,,,,,,,,,,,,,,,,,,,,,,,,,,,,,,,,,,,,,,,,,,,,,,,,,,,,,,,,,,
,,1,2.3728,1,2.3728,0,3,3,32,1,40,broom,cake,,89775,001,2022-04-26_22h50.38.689,SPAMnetsValid,2021.1.4,Win32,60.0132029,,,,,,,,,,,,,,,,,,,,,,,,,,,,,,,,,,,,,,,,,,,,,,,,,,,,,,,,,,,,,,,,,,,,,,,,,,,,,,,,,,,,,,,,,
,,1,2.5507,1,2.5507,0,4,4,70,1,5,oven,tree,,89775,001,2022-04-26_22h50.38.689,SPAMnetsValid,2021.1.4,Win32,60.0132029,,,,,,,,,,,,,,,,,,,,,,,,,,,,,,,,,,,,,,,,,,,,,,,,,,,,,,,,,,,,,,,,,,,,,,,,,,,,,,,,,,,,,,,,,
,,2,2.6369,2,2.6369,0,5,5,9,1,75,cookie,onion,,89775,001,2022-04-26_22h50.38.689,SPAMnetsValid,2021.1.4,Win32,60.0132029,,,,,,,,,,,,,,,,,,,,,,,,,,,,,,,,,,,,,,,,,,,,,,,,,,,,,,,,,,,,,,,,,,,,,,,,,,,,,,,,,,,,,,,,,
,,5,2.3962,5,2.3962,0,6,6,38,1,88,cactus,melon,,89775,001,2022-04-26_22h50.38.689,SPAMnetsValid,2021.1.4,Win32,60.0132029,,,,,,,,,,,,,,,,,,,,,,,,,,,,,,,,,,,,,,,,,,,,,,,,,,,,,,,,,,,,,,,,,,,,,,,,,,,,,,,,,,,,,,,,,
,,9,1.8896,9,1.8896,0,7,7,53,1,192,microwave,microwave,CHECK,89775,001,2022-04-26_22h50.38.689,SPAMnetsValid,2021.1.4,Win32,60.0132029,,,,,,,,,,,,,,,,,,,,,,,,,,,,,,,,,,,,,,,,,,,,,,,,,,,,,,,,,,,,,,,,,,,,,,,,,,,,,,,,,,,,,,,,,
,,4,2.4732,4,2.4732,0,8,8,6,1,87,carrot,yogurt,,89775,001,2022-04-26_22h50.38.689,SPAMnetsValid,2021.1.4,Win32,60.0132029,,,,,,,,,,,,,,,,,,,,,,,,,,,,,,,,,,,,,,,,,,,,,,,,,,,,,,,,,,,,,,,,,,,,,,,,,,,,,,,,,,,,,,,,,
,,4,2.1914,4,2.1914,0,9,9,94,1,68,flower,tomato,,89775,001,2022-04-26_22h50.38.689,SPAMnetsValid,2021.1.4,Win32,60.0132029,,,,,,,,,,,,,,,,,,,,,,,,,,,,,,,,,,,,,,,,,,,,,,,,,,,,,,,,,,,,,,,,,,,,,,,,,,,,,,,,,,,,,,,,,
,,9,1.5301,9,1.5301,0,10,10,10,1,191,cake,cake,CHECK,89775,001,2022-04-26_22h50.38.689,SPAMnetsValid,2021.1.4,Win32,60.0132029,,,,,,,,,,,,,,,,,,,,,,,,,,,,,,,,,,,,,,,,,,,,,,,,,,,,,,,,,,,,,,,,,,,,,,,,,,,,,,,,,,,,,,,,,
,,3,2.9897,3,2.9897,0,11,11,89,1,80,chocolate,tree,,89775,001,2022-04-26_22h50.38.689,SPAMnetsValid,2021.1.4,Win32,60.0132029,,,,,,,,,,,,,,,,,,,,,,,,,,,,,,,,,,,,,,,,,,,,,,,,,,,,,,,,,,,,,,,,,,,,,,,,,,,,,,,,,,,,,,,,,
,,3,2.9132,3,2.9132,0,12,12,45,1,10,flower,onion,,89775,001,2022-04-26_22h50.38.689,SPAMnetsValid,2021.1.4,Win32,60.0132029,,,,,,,,,,,,,,,,,,,,,,,,,,,,,,,,,,,,,,,,,,,,,,,,,,,,,,,,,,,,,,,,,,,,,,,,,,,,,,,,,,,,,,,,,
,,8,2.477,8,2.477,0,13,13,21,1,56,cactus,tree,,89775,001,2022-04-26_22h50.38.689,SPAMnetsValid,2021.1.4,Win32,60.0132029,,,,,,,,,,,,,,,,,,,,,,,,,,,,,,,,,,,,,,,,,,,,,,,,,,,,,,,,,,,,,,,,,,,,,,,,,,,,,,,,,,,,,,,,,
,,6,2.3565,6,2.3565,0,14,14,3,1,49,flower,strawberry,,89775,001,2022-04-26_22h50.38.689,SPAMnetsValid,2021.1.4,Win32,60.0132029,,,,,,,,,,,,,,,,,,,,,,,,,,,,,,,,,,,,,,,,,,,,,,,,,,,,,,,,,,,,,,,,,,,,,,,,,,,,,,,,,,,,,,,,,
,,1,1.6973,1,1.6973,0,15,15,90,1,95,broom,refrigerator,,89775,001,2022-04-26_22h50.38.689,SPAMnetsValid,2021.1.4,Win32,60.0132029,,,,,,,,,,,,,,,,,,,,,,,,,,,,,,,,,,,,,,,,,,,,,,,,,,,,,,,,,,,,,,,,,,,,,,,,,,,,,,,,,,,,,,,,,
,,1,1.944,1,1.944,0,16,16,1,1,31,cactus,pretzel,,89775,001,2022-04-26_22h50.38.689,SPAMnetsValid,2021.1.4,Win32,60.0132029,,,,,,,,,,,,,,,,,,,,,,,,,,,,,,,,,,,,,,,,,,,,,,,,,,,,,,,,,,,,,,,,,,,,,,,,,,,,,,,,,,,,,,,,,
,,2,2.2136,2,2.2136,0,17,17,13,1,26,tomato,yogurt,,89775,001,2022-04-26_22h50.38.689,SPAMnetsValid,2021.1.4,Win32,60.0132029,,,,,,,,,,,,,,,,,,,,,,,,,,,,,,,,,,,,,,,,,,,,,,,,,,,,,,,,,,,,,,,,,,,,,,,,,,,,,,,,,,,,,,,,,
,,2,2.3793,2,2.3793,0,18,18,18,1,85,cake,tree,,89775,001,2022-04-26_22h50.38.689,SPAMnetsValid,2021.1.4,Win32,60.0132029,,,,,,,,,,,,,,,,,,,,,,,,,,,,,,,,,,,,,,,,,,,,,,,,,,,,,,,,,,,,,,,,,,,,,,,,,,,,,,,,,,,,,,,,,
,,8,3.4251,8,3.4251,0,19,19,19,1,76,garden,rose,,89775,001,2022-04-26_22h50.38.689,SPAMnetsValid,2021.1.4,Win32,60.0132029,,,,,,,,,,,,,,,,,,,,,,,,,,,,,,,,,,,,,,,,,,,,,,,,,,,,,,,,,,,,,,,,,,,,,,,,,,,,,,,,,,,,,,,,,
,,7,3.376,7,3.376,0,20,20,35,1,55,tomato,tree,,89775,001,2022-04-26_22h50.38.689,SPAMnetsValid,2021.1.4,Win32,60.0132029,,,,,,,,,,,,,,,,,,,,,,,,,,,,,,,,,,,,,,,,,,,,,,,,,,,,,,,,,,,,,,,,,,,,,,,,,,,,,,,,,,,,,,,,,
,,2,3.3232,2,3.3232,0,21,21,63,1,21,cake,onion,,89775,001,2022-04-26_22h50.38.689,SPAMnetsValid,2021.1.4,Win32,60.0132029,,,,,,,,,,,,,,,,,,,,,,,,,,,,,,,,,,,,,,,,,,,,,,,,,,,,,,,,,,,,,,,,,,,,,,,,,,,,,,,,,,,,,,,,,
,,3,1.9068,3,1.9068,0,22,22,86,1,51,onion,strawberry,,89775,001,2022-04-26_22h50.38.689,SPAMnetsValid,2021.1.4,Win32,60.0132029,,,,,,,,,,,,,,,,,,,,,,,,,,,,,,,,,,,,,,,,,,,,,,,,,,,,,,,,,,,,,,,,,,,,,,,,,,,,,,,,,,,,,,,,,
,,8,2.1799,8,2.1799,0,23,23,82,1,93,kitchen,oven,,89775,001,2022-04-26_22h50.38.689,SPAMnetsValid,2021.1.4,Win32,60.0132029,,,,,,,,,,,,,,,,,,,,,,,,,,,,,,,,,,,,,,,,,,,,,,,,,,,,,,,,,,,,,,,,,,,,,,,,,,,,,,,,,,,,,,,,,
,,5,3.3816,5,3.3816,0,24,24,22,1,16,chocolate,flower,,89775,001,2022-04-26_22h50.38.689,SPAMnetsValid,2021.1.4,Win32,60.0132029,,,,,,,,,,,,,,,,,,,,,,,,,,,,,,,,,,,,,,,,,,,,,,,,,,,,,,,,,,,,,,,,,,,,,,,,,,,,,,,,,,,,,,,,,
,,5,4.8059,5,4.8059,0,25,25,50,1,81,pretzel,yogurt,,89775,001,2022-04-26_22h50.38.689,SPAMnetsValid,2021.1.4,Win32,60.0132029,,,,,,,,,,,,,,,,,,,,,,,,,,,,,,,,,,,,,,,,,,,,,,,,,,,,,,,,,,,,,,,,,,,,,,,,,,,,,,,,,,,,,,,,,
,,2,1.9569,2,1.9569,0,26,26,65,1,46,garden,yogurt,,89775,001,2022-04-26_22h50.38.689,SPAMnetsValid,2021.1.4,Win32,60.0132029,,,,,,,,,,,,,,,,,,,,,,,,,,,,,,,,,,,,,,,,,,,,,,,,,,,,,,,,,,,,,,,,,,,,,,,,,,,,,,,,,,,,,,,,,
,,7,2.4092,7,2.4092,0,27,27,24,1,17,carrot,melon,,89775,001,2022-04-26_22h50.38.689,SPAMnetsValid,2021.1.4,Win32,60.0132029,,,,,,,,,,,,,,,,,,,,,,,,,,,,,,,,,,,,,,,,,,,,,,,,,,,,,,,,,,,,,,,,,,,,,,,,,,,,,,,,,,,,,,,,,
,,6,1.7435,6,1.7435,0,28,28,20,1,39,melon,pretzel,,89775,001,2022-04-26_22h50.38.689,SPAMnetsValid,2021.1.4,Win32,60.0132029,,,,,,,,,,,,,,,,,,,,,,,,,,,,,,,,,,,,,,,,,,,,,,,,,,,,,,,,,,,,,,,,,,,,,,,,,,,,,,,,,,,,,,,,,
,,2,6.4565,2,6.4565,0,29,29,11,1,37,garden,refrigerator,,89775,001,2022-04-26_22h50.38.689,SPAMnetsValid,2021.1.4,Win32,60.0132029,,,,,,,,,,,,,,,,,,,,,,,,,,,,,,,,,,,,,,,,,,,,,,,,,,,,,,,,,,,,,,,,,,,,,,,,,,,,,,,,,,,,,,,,,
,,1,2.5431,1,2.5431,0,30,30,23,1,65,broom,garden,,89775,001,2022-04-26_22h50.38.689,SPAMnetsValid,2021.1.4,Win32,60.0132029,,,,,,,,,,,,,,,,,,,,,,,,,,,,,,,,,,,,,,,,,,,,,,,,,,,,,,,,,,,,,,,,,,,,,,,,,,,,,,,,,,,,,,,,,
,,2,5.5895,2,5.5895,0,31,31,37,1,58,garden,oven,,89775,001,2022-04-26_22h50.38.689,SPAMnetsValid,2021.1.4,Win32,60.0132029,,,,,,,,,,,,,,,,,,,,,,,,,,,,,,,,,,,,,,,,,,,,,,,,,,,,,,,,,,,,,,,,,,,,,,,,,,,,,,,,,,,,,,,,,
,,9,2.0304,9,2.0304,0,32,32,64,1,9,kitchen,refrigerator,,89775,001,2022-04-26_22h50.38.689,SPAMnetsValid,2021.1.4,Win32,60.0132029,,,,,,,,,,,,,,,,,,,,,,,,,,,,,,,,,,,,,,,,,,,,,,,,,,,,,,,,,,,,,,,,,,,,,,,,,,,,,,,,,,,,,,,,,
,,1,2.823,1,2.823,0,33,33,27,1,72,broom,onion,,89775,001,2022-04-26_22h50.38.689,SPAMnetsValid,2021.1.4,Win32,60.0132029,,,,,,,,,,,,,,,,,,,,,,,,,,,,,,,,,,,,,,,,,,,,,,,,,,,,,,,,,,,,,,,,,,,,,,,,,,,,,,,,,,,,,,,,,
,,2,2.0394,2,2.0394,0,34,34,33,1,32,cake,microwave,,89775,001,2022-04-26_22h50.38.689,SPAMnetsValid,2021.1.4,Win32,60.0132029,,,,,,,,,,,,,,,,,,,,,,,,,,,,,,,,,,,,,,,,,,,,,,,,,,,,,,,,,,,,,,,,,,,,,,,,,,,,,,,,,,,,,,,,,
,,3,2.4063,3,2.4063,0,35,35,48,1,66,melon,yogurt,,89775,001,2022-04-26_22h50.38.689,SPAMnetsValid,2021.1.4,Win32,60.0132029,,,,,,,,,,,,,,,,,,,,,,,,,,,,,,,,,,,,,,,,,,,,,,,,,,,,,,,,,,,,,,,,,,,,,,,,,,,,,,,,,,,,,,,,,
,,8,2.61,8,2.61,0,36,36,93,1,63,cake,cookie,,89775,001,2022-04-26_22h50.38.689,SPAMnetsValid,2021.1.4,Win32,60.0132029,,,,,,,,,,,,,,,,,,,,,,,,,,,,,,,,,,,,,,,,,,,,,,,,,,,,,,,,,,,,,,,,,,,,,,,,,,,,,,,,,,,,,,,,,
,,8,2.4233,8,2.4233,0,37,37,95,1,52,carrot,tomato,,89775,001,2022-04-26_22h50.38.689,SPAMnetsValid,2021.1.4,Win32,60.0132029,,,,,,,,,,,,,,,,,,,,,,,,,,,,,,,,,,,,,,,,,,,,,,,,,,,,,,,,,,,,,,,,,,,,,,,,,,,,,,,,,,,,,,,,,
,,2,2.6776,2,2.6776,0,38,38,42,1,77,refrigerator,yogurt,,89775,001,2022-04-26_22h50.38.689,SPAMnetsValid,2021.1.4,Win32,60.0132029,,,,,,,,,,,,,,,,,,,,,,,,,,,,,,,,,,,,,,,,,,,,,,,,,,,,,,,,,,,,,,,,,,,,,,,,,,,,,,,,,,,,,,,,,
,,6,2.0068,6,2.0068,0,39,39,67,1,54,chocolate,yogurt,,89775,001,2022-04-26_22h50.38.689,SPAMnetsValid,2021.1.4,Win32,60.0132029,,,,,,,,,,,,,,,,,,,,,,,,,,,,,,,,,,,,,,,,,,,,,,,,,,,,,,,,,,,,,,,,,,,,,,,,,,,,,,,,,,,,,,,,,
,,3,1.6973,3,1.6973,0,40,40,77,1,7,melon,tree,,89775,001,2022-04-26_22h50.38.689,SPAMnetsValid,2021.1.4,Win32,60.0132029,,,,,,,,,,,,,,,,,,,,,,,,,,,,,,,,,,,,,,,,,,,,,,,,,,,,,,,,,,,,,,,,,,,,,,,,,,,,,,,,,,,,,,,,,
,,2,2.5901,2,2.5901,0,41,41,54,1,28,cake,melon,,89775,001,2022-04-26_22h50.38.689,SPAMnetsValid,2021.1.4,Win32,60.0132029,,,,,,,,,,,,,,,,,,,,,,,,,,,,,,,,,,,,,,,,,,,,,,,,,,,,,,,,,,,,,,,,,,,,,,,,,,,,,,,,,,,,,,,,,
,,2,5.0751,2,5.0751,0,42,42,29,1,42,garden,kitchen,,89775,001,2022-04-26_22h50.38.689,SPAMnetsValid,2021.1.4,Win32,60.0132029,,,,,,,,,,,,,,,,,,,,,,,,,,,,,,,,,,,,,,,,,,,,,,,,,,,,,,,,,,,,,,,,,,,,,,,,,,,,,,,,,,,,,,,,,
,,1,1.9421,1,1.9421,0,43,43,61,1,71,broom,rose,,89775,001,2022-04-26_22h50.38.689,SPAMnetsValid,2021.1.4,Win32,60.0132029,,,,,,,,,,,,,,,,,,,,,,,,,,,,,,,,,,,,,,,,,,,,,,,,,,,,,,,,,,,,,,,,,,,,,,,,,,,,,,,,,,,,,,,,,
,,7,2.0634,7,2.0634,0,44,44,80,1,61,strawberry,tomato,,89775,001,2022-04-26_22h50.38.689,SPAMnetsValid,2021.1.4,Win32,60.0132029,,,,,,,,,,,,,,,,,,,,,,,,,,,,,,,,,,,,,,,,,,,,,,,,,,,,,,,,,,,,,,,,,,,,,,,,,,,,,,,,,,,,,,,,,
,,6,2.9548,6,2.9548,0,45,45,78,1,30,cookie,pretzel,,89775,001,2022-04-26_22h50.38.689,SPAMnetsValid,2021.1.4,Win32,60.0132029,,,,,,,,,,,,,,,,,,,,,,,,,,,,,,,,,,,,,,,,,,,,,,,,,,,,,,,,,,,,,,,,,,,,,,,,,,,,,,,,,,,,,,,,,
,,3,2.0776,3,2.0776,0,46,46,39,1,15,onion,oven,,89775,001,2022-04-26_22h50.38.689,SPAMnetsValid,2021.1.4,Win32,60.0132029,,,,,,,,,,,,,,,,,,,,,,,,,,,,,,,,,,,,,,,,,,,,,,,,,,,,,,,,,,,,,,,,,,,,,,,,,,,,,,,,,,,,,,,,,
,,1,2.3552,1,2.3552,0,47,47,16,1,14,broom,cookie,,89775,001,2022-04-26_22h50.38.689,SPAMnetsValid,2021.1.4,Win32,60.0132029,,,,,,,,,,,,,,,,,,,,,,,,,,,,,,,,,,,,,,,,,,,,,,,,,,,,,,,,,,,,,,,,,,,,,,,,,,,,,,,,,,,,,,,,,
,,1,2.774,1,2.774,0,48,48,31,1,33,oven,yogurt,,89775,001,2022-04-26_22h50.38.689,SPAMnetsValid,2021.1.4,Win32,60.0132029,,,,,,,,,,,,,,,,,,,,,,,,,,,,,,,,,,,,,,,,,,,,,,,,,,,,,,,,,,,,,,,,,,,,,,,,,,,,,,,,,,,,,,,,,
,,1,1.9565,1,1.9565,0,49,49,12,1,67,flower,yogurt,,89775,001,2022-04-26_22h50.38.689,SPAMnetsValid,2021.1.4,Win32,60.0132029,,,,,,,,,,,,,,,,,,,,,,,,,,,,,,,,,,,,,,,,,,,,,,,,,,,,,,,,,,,,,,,,,,,,,,,,,,,,,,,,,,,,,,,,,
,,1,2.5406,1,2.5406,0,50,50,15,1,48,flower,oven,,89775,001,2022-04-26_22h50.38.689,SPAMnetsValid,2021.1.4,Win32,60.0132029,,,,,,,,,,,,,,,,,,,,,,,,,,,,,,,,,,,,,,,,,,,,,,,,,,,,,,,,,,,,,,,,,,,,,,,,,,,,,,,,,,,,,,,,,
,,2,2.1406,2,2.1406,0,51,51,2,1,22,kitchen,strawberry,,89775,001,2022-04-26_22h50.38.689,SPAMnetsValid,2021.1.4,Win32,60.0132029,,,,,,,,,,,,,,,,,,,,,,,,,,,,,,,,,,,,,,,,,,,,,,,,,,,,,,,,,,,,,,,,,,,,,,,,,,,,,,,,,,,,,,,,,
,,1,1.9591,1,1.9591,0,52,52,59,1,8,broom,melon,,89775,001,2022-04-26_22h50.38.689,SPAMnetsValid,2021.1.4,Win32,60.0132029,,,,,,,,,,,,,,,,,,,,,,,,,,,,,,,,,,,,,,,,,,,,,,,,,,,,,,,,,,,,,,,,,,,,,,,,,,,,,,,,,,,,,,,,,
,,9,2.8322,9,2.8322,0,53,53,58,1,94,kitchen,microwave,,89775,001,2022-04-26_22h50.38.689,SPAMnetsValid,2021.1.4,Win32,60.0132029,,,,,,,,,,,,,,,,,,,,,,,,,,,,,,,,,,,,,,,,,,,,,,,,,,,,,,,,,,,,,,,,,,,,,,,,,,,,,,,,,,,,,,,,,
,,7,2.5239,7,2.5239,0,54,54,66,1,20,rose,tree,,89775,001,2022-04-26_22h50.38.689,SPAMnetsValid,2021.1.4,Win32,60.0132029,,,,,,,,,,,,,,,,,,,,,,,,,,,,,,,,,,,,,,,,,,,,,,,,,,,,,,,,,,,,,,,,,,,,,,,,,,,,,,,,,,,,,,,,,
,,3,2.8647,3,2.8647,0,55,55,79,1,86,oven,rose,,89775,001,2022-04-26_22h50.38.689,SPAMnetsValid,2021.1.4,Win32,60.0132029,,,,,,,,,,,,,,,,,,,,,,,,,,,,,,,,,,,,,,,,,,,,,,,,,,,,,,,,,,,,,,,,,,,,,,,,,,,,,,,,,,,,,,,,,
,,1,2.709,1,2.709,0,56,56,43,1,11,refrigerator,tree,,89775,001,2022-04-26_22h50.38.689,SPAMnetsValid,2021.1.4,Win32,60.0132029,,,,,,,,,,,,,,,,,,,,,,,,,,,,,,,,,,,,,,,,,,,,,,,,,,,,,,,,,,,,,,,,,,,,,,,,,,,,,,,,,,,,,,,,,
,,3,2.3937,3,2.3937,0,57,57,34,1,29,chocolate,melon,,89775,001,2022-04-26_22h50.38.689,SPAMnetsValid,2021.1.4,Win32,60.0132029,,,,,,,,,,,,,,,,,,,,,,,,,,,,,,,,,,,,,,,,,,,,,,,,,,,,,,,,,,,,,,,,,,,,,,,,,,,,,,,,,,,,,,,,,
,,4,2.0402,4,2.0402,0,58,58,72,1,59,rose,strawberry,,89775,001,2022-04-26_22h50.38.689,SPAMnetsValid,2021.1.4,Win32,60.0132029,,,,,,,,,,,,,,,,,,,,,,,,,,,,,,,,,,,,,,,,,,,,,,,,,,,,,,,,,,,,,,,,,,,,,,,,,,,,,,,,,,,,,,,,,
,,2,6.6026,2,6.6026,0,59,59,74,1,70,chocolate,onion,,89775,001,2022-04-26_22h50.38.689,SPAMnetsValid,2021.1.4,Win32,60.0132029,,,,,,,,,,,,,,,,,,,,,,,,,,,,,,,,,,,,,,,,,,,,,,,,,,,,,,,,,,,,,,,,,,,,,,,,,,,,,,,,,,,,,,,,,
,,2,2.2758,2,2.2758,0,60,60,71,1,38,pretzel,refrigerator,,89775,001,2022-04-26_22h50.38.689,SPAMnetsValid,2021.1.4,Win32,60.0132029,,,,,,,,,,,,,,,,,,,,,,,,,,,,,,,,,,,,,,,,,,,,,,,,,,,,,,,,,,,,,,,,,,,,,,,,,,,,,,,,,,,,,,,,,
,,1,1.9103,1,1.9103,0,61,61,84,1,91,microwave,rose,,89775,001,2022-04-26_22h50.38.689,SPAMnetsValid,2021.1.4,Win32,60.0132029,,,,,,,,,,,,,,,,,,,,,,,,,,,,,,,,,,,,,,,,,,,,,,,,,,,,,,,,,,,,,,,,,,,,,,,,,,,,,,,,,,,,,,,,,
,,1,2.2001,1,2.2001,0,62,62,25,1,23,flower,microwave,,89775,001,2022-04-26_22h50.38.689,SPAMnetsValid,2021.1.4,Win32,60.0132029,,,,,,,,,,,,,,,,,,,,,,,,,,,,,,,,,,,,,,,,,,,,,,,,,,,,,,,,,,,,,,,,,,,,,,,,,,,,,,,,,,,,,,,,,
,,1,2.1945,1,2.1945,0,63,63,40,1,74,broom,pretzel,,89775,001,2022-04-26_22h50.38.689,SPAMnetsValid,2021.1.4,Win32,60.0132029,,,,,,,,,,,,,,,,,,,,,,,,,,,,,,,,,,,,,,,,,,,,,,,,,,,,,,,,,,,,,,,,,,,,,,,,,,,,,,,,,,,,,,,,,
,,1,2.2233,1,2.2233,0,64,64,91,1,2,kitchen,onion,,89775,001,2022-04-26_22h50.38.689,SPAMnetsValid,2021.1.4,Win32,60.0132029,,,,,,,,,,,,,,,,,,,,,,,,,,,,,,,,,,,,,,,,,,,,,,,,,,,,,,,,,,,,,,,,,,,,,,,,,,,,,,,,,,,,,,,,,
,,5,4.0553,5,4.0553,0,65,65,76,1,36,broom,kitchen,,89775,001,2022-04-26_22h50.38.689,SPAMnetsValid,2021.1.4,Win32,60.0132029,,,,,,,,,,,,,,,,,,,,,,,,,,,,,,,,,,,,,,,,,,,,,,,,,,,,,,,,,,,,,,,,,,,,,,,,,,,,,,,,,,,,,,,,,
,,1,3.2648,1,3.2648,0,66,66,56,1,78,cookie,rose,,89775,001,2022-04-26_22h50.38.689,SPAMnetsValid,2021.1.4,Win32,60.0132029,,,,,,,,,,,,,,,,,,,,,,,,,,,,,,,,,,,,,,,,,,,,,,,,,,,,,,,,,,,,,,,,,,,,,,,,,,,,,,,,,,,,,,,,,
,,2,4.1694,2,4.1694,0,67,67,68,1,24,cookie,tomato,,89775,001,2022-04-26_22h50.38.689,SPAMnetsValid,2021.1.4,Win32,60.0132029,,,,,,,,,,,,,,,,,,,,,,,,,,,,,,,,,,,,,,,,,,,,,,,,,,,,,,,,,,,,,,,,,,,,,,,,,,,,,,,,,,,,,,,,,
,,2,4.1283,2,4.1283,0,68,68,52,1,4,chocolate,pretzel,,89775,001,2022-04-26_22h50.38.689,SPAMnetsValid,2021.1.4,Win32,60.0132029,,,,,,,,,,,,,,,,,,,,,,,,,,,,,,,,,,,,,,,,,,,,,,,,,,,,,,,,,,,,,,,,,,,,,,,,,,,,,,,,,,,,,,,,,
,,2,2.7063,2,2.7063,0,69,69,75,1,69,carrot,refrigerator,,89775,001,2022-04-26_22h50.38.689,SPAMnetsValid,2021.1.4,Win32,60.0132029,,,,,,,,,,,,,,,,,,,,,,,,,,,,,,,,,,,,,,,,,,,,,,,,,,,,,,,,,,,,,,,,,,,,,,,,,,,,,,,,,,,,,,,,,
,,1,2.2893,1,2.2893,0,70,70,28,1,84,oven,tomato,,89775,001,2022-04-26_22h50.38.689,SPAMnetsValid,2021.1.4,Win32,60.0132029,,,,,,,,,,,,,,,,,,,,,,,,,,,,,,,,,,,,,,,,,,,,,,,,,,,,,,,,,,,,,,,,,,,,,,,,,,,,,,,,,,,,,,,,,
,,2,2.5896,2,2.5896,0,71,71,81,1,60,cactus,onion,,89775,001,2022-04-26_22h50.38.689,SPAMnetsValid,2021.1.4,Win32,60.0132029,,,,,,,,,,,,,,,,,,,,,,,,,,,,,,,,,,,,,,,,,,,,,,,,,,,,,,,,,,,,,,,,,,,,,,,,,,,,,,,,,,,,,,,,,
,,1,2.4904,1,2.4904,0,72,72,0,1,53,garden,pretzel,,89775,001,2022-04-26_22h50.38.689,SPAMnetsValid,2021.1.4,Win32,60.0132029,,,,,,,,,,,,,,,,,,,,,,,,,,,,,,,,,,,,,,,,,,,,,,,,,,,,,,,,,,,,,,,,,,,,,,,,,,,,,,,,,,,,,,,,,
,,2,3.2092,2,3.2092,0,73,73,73,1,50,carrot,rose,,89775,001,2022-04-26_22h50.38.689,SPAMnetsValid,2021.1.4,Win32,60.0132029,,,,,,,,,,,,,,,,,,,,,,,,,,,,,,,,,,,,,,,,,,,,,,,,,,,,,,,,,,,,,,,,,,,,,,,,,,,,,,,,,,,,,,,,,
,,1,2.3562,1,2.3562,0,74,74,14,1,64,chocolate,garden,,89775,001,2022-04-26_22h50.38.689,SPAMnetsValid,2021.1.4,Win32,60.0132029,,,,,,,,,,,,,,,,,,,,,,,,,,,,,,,,,,,,,,,,,,,,,,,,,,,,,,,,,,,,,,,,,,,,,,,,,,,,,,,,,,,,,,,,,
,,1,3.3379,1,3.3379,0,75,75,49,1,57,flower,kitchen,,89775,001,2022-04-26_22h50.38.689,SPAMnetsValid,2021.1.4,Win32,60.0132029,,,,,,,,,,,,,,,,,,,,,,,,,,,,,,,,,,,,,,,,,,,,,,,,,,,,,,,,,,,,,,,,,,,,,,,,,,,,,,,,,,,,,,,,,
,,1,1.9162,1,1.9162,0,76,76,46,1,41,broom,cactus,,89775,001,2022-04-26_22h50.38.689,SPAMnetsValid,2021.1.4,Win32,60.0132029,,,,,,,,,,,,,,,,,,,,,,,,,,,,,,,,,,,,,,,,,,,,,,,,,,,,,,,,,,,,,,,,,,,,,,,,,,,,,,,,,,,,,,,,,
,,1,1.9404,1,1.9404,0,77,77,7,1,34,melon,oven,,89775,001,2022-04-26_22h50.38.689,SPAMnetsValid,2021.1.4,Win32,60.0132029,,,,,,,,,,,,,,,,,,,,,,,,,,,,,,,,,,,,,,,,,,,,,,,,,,,,,,,,,,,,,,,,,,,,,,,,,,,,,,,,,,,,,,,,,
,,1,1.8887,1,1.8887,0,78,78,88,1,92,broom,flower,,89775,001,2022-04-26_22h50.38.689,SPAMnetsValid,2021.1.4,Win32,60.0132029,,,,,,,,,,,,,,,,,,,,,,,,,,,,,,,,,,,,,,,,,,,,,,,,,,,,,,,,,,,,,,,,,,,,,,,,,,,,,,,,,,,,,,,,,
,,1,4.7396,1,4.7396,0,79,79,55,1,1,rose,yogurt,,89775,001,2022-04-26_22h50.38.689,SPAMnetsValid,2021.1.4,Win32,60.0132029,,,,,,,,,,,,,,,,,,,,,,,,,,,,,,,,,,,,,,,,,,,,,,,,,,,,,,,,,,,,,,,,,,,,,,,,,,,,,,,,,,,,,,,,,
,,1,9.2779,1,9.2779,0,80,80,62,1,18,onion,refrigerator,,89775,001,2022-04-26_22h50.38.689,SPAMnetsValid,2021.1.4,Win32,60.0132029,,,,,,,,,,,,,,,,,,,,,,,,,,,,,,,,,,,,,,,,,,,,,,,,,,,,,,,,,,,,,,,,,,,,,,,,,,,,,,,,,,,,,,,,,
,,2,2.9565,2,2.9565,0,81,81,17,1,27,cactus,cookie,,89775,001,2022-04-26_22h50.38.689,SPAMnetsValid,2021.1.4,Win32,60.0132029,,,,,,,,,,,,,,,,,,,,,,,,,,,,,,,,,,,,,,,,,,,,,,,,,,,,,,,,,,,,,,,,,,,,,,,,,,,,,,,,,,,,,,,,,
,,3,3.5122,3,3.5122,0,82,82,36,1,12,cookie,yogurt,,89775,001,2022-04-26_22h50.38.689,SPAMnetsValid,2021.1.4,Win32,60.0132029,,,,,,,,,,,,,,,,,,,,,,,,,,,,,,,,,,,,,,,,,,,,,,,,,,,,,,,,,,,,,,,,,,,,,,,,,,,,,,,,,,,,,,,,,
,,5,2.964,5,2.964,0,83,83,83,1,6,garden,onion,,89775,001,2022-04-26_22h50.38.689,SPAMnetsValid,2021.1.4,Win32,60.0132029,,,,,,,,,,,,,,,,,,,,,,,,,,,,,,,,,,,,,,,,,,,,,,,,,,,,,,,,,,,,,,,,,,,,,,,,,,,,,,,,,,,,,,,,,
,,1,2.7893,1,2.7893,0,84,84,57,1,62,kitchen,rose,,89775,001,2022-04-26_22h50.38.689,SPAMnetsValid,2021.1.4,Win32,60.0132029,,,,,,,,,,,,,,,,,,,,,,,,,,,,,,,,,,,,,,,,,,,,,,,,,,,,,,,,,,,,,,,,,,,,,,,,,,,,,,,,,,,,,,,,,
,,2,3.4603,2,3.4603,0,85,85,69,1,45,onion,pretzel,,89775,001,2022-04-26_22h50.38.689,SPAMnetsValid,2021.1.4,Win32,60.0132029,,,,,,,,,,,,,,,,,,,,,,,,,,,,,,,,,,,,,,,,,,,,,,,,,,,,,,,,,,,,,,,,,,,,,,,,,,,,,,,,,,,,,,,,,
,,7,1.9394,7,1.9394,0,86,86,51,1,47,onion,tomato,,89775,001,2022-04-26_22h50.38.689,SPAMnetsValid,2021.1.4,Win32,60.0132029,,,,,,,,,,,,,,,,,,,,,,,,,,,,,,,,,,,,,,,,,,,,,,,,,,,,,,,,,,,,,,,,,,,,,,,,,,,,,,,,,,,,,,,,,
,,1,1.874,1,1.874,0,87,87,85,1,90,cactus,cake,,89775,001,2022-04-26_22h50.38.689,SPAMnetsValid,2021.1.4,Win32,60.0132029,,,,,,,,,,,,,,,,,,,,,,,,,,,,,,,,,,,,,,,,,,,,,,,,,,,,,,,,,,,,,,,,,,,,,,,,,,,,,,,,,,,,,,,,,
,,2,3.4953,2,3.4953,0,88,88,8,1,43,chocolate,tomato,,89775,001,2022-04-26_22h50.38.689,SPAMnetsValid,2021.1.4,Win32,60.0132029,,,,,,,,,,,,,,,,,,,,,,,,,,,,,,,,,,,,,,,,,,,,,,,,,,,,,,,,,,,,,,,,,,,,,,,,,,,,,,,,,,,,,,,,,
,,1,2.0224,1,2.0224,0,89,89,30,1,3,cake,oven,,89775,001,2022-04-26_22h50.38.689,SPAMnetsValid,2021.1.4,Win32,60.0132029,,,,,,,,,,,,,,,,,,,,,,,,,,,,,,,,,,,,,,,,,,,,,,,,,,,,,,,,,,,,,,,,,,,,,,,,,,,,,,,,,,,,,,,,,
,,4,2.1967,4,2.1967,0,90,90,87,1,79,garden,strawberry,,89775,001,2022-04-26_22h50.38.689,SPAMnetsValid,2021.1.4,Win32,60.0132029,,,,,,,,,,,,,,,,,,,,,,,,,,,,,,,,,,,,,,,,,,,,,,,,,,,,,,,,,,,,,,,,,,,,,,,,,,,,,,,,,,,,,,,,,
,,1,1.8559,1,1.8559,0,91,91,41,1,19,microwave,pretzel,,89775,001,2022-04-26_22h50.38.689,SPAMnetsValid,2021.1.4,Win32,60.0132029,,,,,,,,,,,,,,,,,,,,,,,,,,,,,,,,,,,,,,,,,,,,,,,,,,,,,,,,,,,,,,,,,,,,,,,,,,,,,,,,,,,,,,,,,
,,2,6.3123,2,6.3123,0,92,92,92,1,44,cookie,melon,,89775,001,2022-04-26_22h50.38.689,SPAMnetsValid,2021.1.4,Win32,60.0132029,,,,,,,,,,,,,,,,,,,,,,,,,,,,,,,,,,,,,,,,,,,,,,,,,,,,,,,,,,,,,,,,,,,,,,,,,,,,,,,,,,,,,,,,,
,,2,4.8563,2,4.8563,0,93,93,47,1,73,broom,chocolate,,89775,001,2022-04-26_22h50.38.689,SPAMnetsValid,2021.1.4,Win32,60.0132029,,,,,,,,,,,,,,,,,,,,,,,,,,,,,,,,,,,,,,,,,,,,,,,,,,,,,,,,,,,,,,,,,,,,,,,,,,,,,,,,,,,,,,,,,
,,1,1.7414,1,1.7414,0,94,94,5,1,13,broom,yogurt,,89775,001,2022-04-26_22h50.38.689,SPAMnetsValid,2021.1.4,Win32,60.0132029,,,,,,,,,,,,,,,,,,,,,,,,,,,,,,,,,,,,,,,,,,,,,,,,,,,,,,,,,,,,,,,,,,,,,,,,,,,,,,,,,,,,,,,,,
,,2,2.2557,2,2.2557,0,95,95,4,1,83,broom,carrot,,89775,001,2022-04-26_22h50.38.689,SPAMnetsValid,2021.1.4,Win32,60.0132029,,,,,,,,,,,,,,,,,,,,,,,,,,,,,,,,,,,,,,,,,,,,,,,,,,,,,,,,,,,,,,,,,,,,,,,,,,,,,,,,,,,,,,,,,
,,2,7.1538,2,7.1538,0,96,96,60,1,89,chocolate,rose,,89775,001,2022-04-26_22h50.38.689,SPAMnetsValid,2021.1.4,Win32,60.0132029,,,,,,,,,,,,,,,,,,,,,,,,,,,,,,,,,,,,,,,,,,,,,,,,,,,,,,,,,,,,,,,,,,,,,,,,,,,,,,,,,,,,,,,,,
,,,,,,,,,,,,,,,89775,001,2022-04-26_22h50.38.689,SPAMnetsValid,2021.1.4,Win32,60.0132029,0,0,0,0,1,,,,,,,,,,,,,,,,,,,,,,,,,,,,,,,,,,,,,,,,,,,,,,,,,,,,,,,,,,,,,,,,,,,,,,,,,,,,,,,,,,,,
,,,,,,,,,,,,,,,89775,001,2022-04-26_22h50.38.689,SPAMnetsValid,2021.1.4,Win32,60.0132029,,,,,,0,0,0,0,1,1,0,,,,,,,,,,,,,,,,,,,,,,,,,,,,,,,,,,,,,,,,,,,,,,,,,,,,,,,,,,,,,,,,,,,,,,,,,,,,,
,,,,1,10.4752,,,,,,159,cookie,flower,,89775,001,2022-04-26_22h50.38.689,SPAMnetsValid,2021.1.4,Win32,60.0132029,,,,,,,,,,,,,1,10.4752,0,0,0,21,1,,,,,,,,,,,,,,,,,,,,,,,,,,,,,,,,,,,,,,,,,,,,,,,,,,,,,,,,,,,,,,,,,,,,,,
,,,,1,2.3887,,,,,,130,microwave,yogurt,,89775,001,2022-04-26_22h50.38.689,SPAMnetsValid,2021.1.4,Win32,60.0132029,,,,,,,,,,,,,1,2.3887,0,1,1,84,1,,,,,,,,,,,,,,,,,,,,,,,,,,,,,,,,,,,,,,,,,,,,,,,,,,,,,,,,,,,,,,,,,,,,,,
,,,,7,2.5392,,,,,,139,carrot,strawberry,,89775,001,2022-04-26_22h50.38.689,SPAMnetsValid,2021.1.4,Win32,60.0132029,,,,,,,,,,,,,7,2.5392,0,2,2,37,1,,,,,,,,,,,,,,,,,,,,,,,,,,,,,,,,,,,,,,,,,,,,,,,,,,,,,,,,,,,,,,,,,,,,,,
,,,,2,3.8058,,,,,,156,melon,rose,,89775,001,2022-04-26_22h50.38.689,SPAMnetsValid,2021.1.4,Win32,60.0132029,,,,,,,,,,,,,2,3.8058,0,3,3,31,1,,,,,,,,,,,,,,,,,,,,,,,,,,,,,,,,,,,,,,,,,,,,,,,,,,,,,,,,,,,,,,,,,,,,,,
,,,,4,2.4568,,,,,,181,carrot,kitchen,,89775,001,2022-04-26_22h50.38.689,SPAMnetsValid,2021.1.4,Win32,60.0132029,,,,,,,,,,,,,4,2.4568,0,4,4,72,1,,,,,,,,,,,,,,,,,,,,,,,,,,,,,,,,,,,,,,,,,,,,,,,,,,,,,,,,,,,,,,,,,,,,,,
,,,,1,7.4052,,,,,,132,broom,tree,,89775,001,2022-04-26_22h50.38.689,SPAMnetsValid,2021.1.4,Win32,60.0132029,,,,,,,,,,,,,1,7.4052,0,5,5,78,1,,,,,,,,,,,,,,,,,,,,,,,,,,,,,,,,,,,,,,,,,,,,,,,,,,,,,,,,,,,,,,,,,,,,,,
,,,,1,17.3211,,,,,,151,microwave,onion,,89775,001,2022-04-26_22h50.38.689,SPAMnetsValid,2021.1.4,Win32,60.0132029,,,,,,,,,,,,,1,17.3211,0,6,6,6,1,,,,,,,,,,,,,,,,,,,,,,,,,,,,,,,,,,,,,,,,,,,,,,,,,,,,,,,,,,,,,,,,,,,,,,
,,,,8,3.7593,,,,,,116,cake,chocolate,,89775,001,2022-04-26_22h50.38.689,SPAMnetsValid,2021.1.4,Win32,60.0132029,,,,,,,,,,,,,8,3.7593,0,7,7,44,1,,,,,,,,,,,,,,,,,,,,,,,,,,,,,,,,,,,,,,,,,,,,,,,,,,,,,,,,,,,,,,,,,,,,,,
,,,,7,3.6229,,,,,,150,microwave,refrigerator,,89775,001,2022-04-26_22h50.38.689,SPAMnetsValid,2021.1.4,Win32,60.0132029,,,,,,,,,,,,,7,3.6229,0,8,8,66,1,,,,,,,,,,,,,,,,,,,,,,,,,,,,,,,,,,,,,,,,,,,,,,,,,,,,,,,,,,,,,,,,,,,,,,
,,,,1,2.2958,,,,,,137,microwave,tree,,89775,001,2022-04-26_22h50.38.689,SPAMnetsValid,2021.1.4,Win32,60.0132029,,,,,,,,,,,,,1,2.2958,0,9,9,63,1,,,,,,,,,,,,,,,,,,,,,,,,,,,,,,,,,,,,,,,,,,,,,,,,,,,,,,,,,,,,,,,,,,,,,,
,,,,1,1.8453,,,,,,126,kitchen,tree,,89775,001,2022-04-26_22h50.38.689,SPAMnetsValid,2021.1.4,Win32,60.0132029,,,,,,,,,,,,,1,1.8453,0,10,10,50,1,,,,,,,,,,,,,,,,,,,,,,,,,,,,,,,,,,,,,,,,,,,,,,,,,,,,,,,,,,,,,,,,,,,,,,
,,,,2,3.7138,,,,,,179,broom,oven,,89775,001,2022-04-26_22h50.38.689,SPAMnetsValid,2021.1.4,Win32,60.0132029,,,,,,,,,,,,,2,3.7138,0,11,11,45,1,,,,,,,,,,,,,,,,,,,,,,,,,,,,,,,,,,,,,,,,,,,,,,,,,,,,,,,,,,,,,,,,,,,,,,
,,,,9,2.2743,,,,,,177,chocolate,strawberry,,89775,001,2022-04-26_22h50.38.689,SPAMnetsValid,2021.1.4,Win32,60.0132029,,,,,,,,,,,,,9,2.2743,0,12,12,53,1,,,,,,,,,,,,,,,,,,,,,,,,,,,,,,,,,,,,,,,,,,,,,,,,,,,,,,,,,,,,,,,,,,,,,,
,,,,3,1.7768,,,,,,171,cake,tomato,,89775,001,2022-04-26_22h50.38.689,SPAMnetsValid,2021.1.4,Win32,60.0132029,,,,,,,,,,,,,3,1.7768,0,13,13,88,1,,,,,,,,,,,,,,,,,,,,,,,,,,,,,,,,,,,,,,,,,,,,,,,,,,,,,,,,,,,,,,,,,,,,,,
,,,,7,2.3684,,,,,,167,carrot,garden,,89775,001,2022-04-26_22h50.38.689,SPAMnetsValid,2021.1.4,Win32,60.0132029,,,,,,,,,,,,,7,2.3684,0,14,14,47,1,,,,,,,,,,,,,,,,,,,,,,,,,,,,,,,,,,,,,,,,,,,,,,,,,,,,,,,,,,,,,,,,,,,,,,
,,,,6,2.4593,,,,,,97,chocolate,kitchen,,89775,001,2022-04-26_22h50.38.689,SPAMnetsValid,2021.1.4,Win32,60.0132029,,,,,,,,,,,,,6,2.4593,0,15,15,8,1,,,,,,,,,,,,,,,,,,,,,,,,,,,,,,,,,,,,,,,,,,,,,,,,,,,,,,,,,,,,,,,,,,,,,,
,,,,8,2.8896,,,,,,158,cookie,oven,,89775,001,2022-04-26_22h50.38.689,SPAMnetsValid,2021.1.4,Win32,60.0132029,,,,,,,,,,,,,8,2.8896,0,16,16,27,1,,,,,,,,,,,,,,,,,,,,,,,,,,,,,,,,,,,,,,,,,,,,,,,,,,,,,,,,,,,,,,,,,,,,,,
,,,,6,1.9759,,,,,,140,cookie,refrigerator,,89775,001,2022-04-26_22h50.38.689,SPAMnetsValid,2021.1.4,Win32,60.0132029,,,,,,,,,,,,,6,1.9759,0,17,17,89,1,,,,,,,,,,,,,,,,,,,,,,,,,,,,,,,,,,,,,,,,,,,,,,,,,,,,,,,,,,,,,,,,,,,,,,
,,,,1,1.6067,,,,,,164,cookie,garden,,89775,001,2022-04-26_22h50.38.689,SPAMnetsValid,2021.1.4,Win32,60.0132029,,,,,,,,,,,,,1,1.6067,0,18,18,59,1,,,,,,,,,,,,,,,,,,,,,,,,,,,,,,,,,,,,,,,,,,,,,,,,,,,,,,,,,,,,,,,,,,,,,,
,,,,2,2.5064,,,,,,107,rose,tomato,,89775,001,2022-04-26_22h50.38.689,SPAMnetsValid,2021.1.4,Win32,60.0132029,,,,,,,,,,,,,2,2.5064,0,19,19,26,1,,,,,,,,,,,,,,,,,,,,,,,,,,,,,,,,,,,,,,,,,,,,,,,,,,,,,,,,,,,,,,,,,,,,,,
,,,,1,1.6743,,,,,,190,microwave,strawberry,,89775,001,2022-04-26_22h50.38.689,SPAMnetsValid,2021.1.4,Win32,60.0132029,,,,,,,,,,,,,1,1.6743,0,20,20,90,1,,,,,,,,,,,,,,,,,,,,,,,,,,,,,,,,,,,,,,,,,,,,,,,,,,,,,,,,,,,,,,,,,,,,,,
,,,,4,2.0888,,,,,,113,refrigerator,strawberry,,89775,001,2022-04-26_22h50.38.689,SPAMnetsValid,2021.1.4,Win32,60.0132029,,,,,,,,,,,,,4,2.0888,0,21,21,56,1,,,,,,,,,,,,,,,,,,,,,,,,,,,,,,,,,,,,,,,,,,,,,,,,,,,,,,,,,,,,,,,,,,,,,,
,,,,3,4.2633,,,,,,182,flower,refrigerator,,89775,001,2022-04-26_22h50.38.689,SPAMnetsValid,2021.1.4,Win32,60.0132029,,,,,,,,,,,,,3,4.2633,0,22,22,32,1,,,,,,,,,,,,,,,,,,,,,,,,,,,,,,,,,,,,,,,,,,,,,,,,,,,,,,,,,,,,,,,,,,,,,,
,,,,1,1.5794,,,,,,189,onion,tree,,89775,001,2022-04-26_22h50.38.689,SPAMnetsValid,2021.1.4,Win32,60.0132029,,,,,,,,,,,,,1,1.5794,0,23,23,62,1,,,,,,,,,,,,,,,,,,,,,,,,,,,,,,,,,,,,,,,,,,,,,,,,,,,,,,,,,,,,,,,,,,,,,,
,,,,6,2.2732,,,,,,115,refrigerator,tomato,,89775,001,2022-04-26_22h50.38.689,SPAMnetsValid,2021.1.4,Win32,60.0132029,,,,,,,,,,,,,6,2.2732,0,24,24,85,1,,,,,,,,,,,,,,,,,,,,,,,,,,,,,,,,,,,,,,,,,,,,,,,,,,,,,,,,,,,,,,,,,,,,,,
,,,,1,2.9093,,,,,,149,broom,tomato,,89775,001,2022-04-26_22h50.38.689,SPAMnetsValid,2021.1.4,Win32,60.0132029,,,,,,,,,,,,,1,2.9093,0,25,25,20,1,,,,,,,,,,,,,,,,,,,,,,,,,,,,,,,,,,,,,,,,,,,,,,,,,,,,,,,,,,,,,,,,,,,,,,
,,,,1,1.8982,,,,,,109,broom,strawberry,,89775,001,2022-04-26_22h50.38.689,SPAMnetsValid,2021.1.4,Win32,60.0132029,,,,,,,,,,,,,1,1.8982,0,26,26,4,1,,,,,,,,,,,,,,,,,,,,,,,,,,,,,,,,,,,,,,,,,,,,,,,,,,,,,,,,,,,,,,,,,,,,,,
,,,,2,2.1401,,,,,,98,pretzel,strawberry,,89775,001,2022-04-26_22h50.38.689,SPAMnetsValid,2021.1.4,Win32,60.0132029,,,,,,,,,,,,,2,2.1401,0,27,27,82,1,,,,,,,,,,,,,,,,,,,,,,,,,,,,,,,,,,,,,,,,,,,,,,,,,,,,,,,,,,,,,,,,,,,,,,
,,,,1,3.0088,,,,,,180,tree,yogurt,,89775,001,2022-04-26_22h50.38.689,SPAMnetsValid,2021.1.4,Win32,60.0132029,,,,,,,,,,,,,1,3.0088,0,28,28,68,1,,,,,,,,,,,,,,,,,,,,,,,,,,,,,,,,,,,,,,,,,,,,,,,,,,,,,,,,,,,,,,,,,,,,,,
,,,,2,2.641,,,,,,119,strawberry,tree,,89775,001,2022-04-26_22h50.38.689,SPAMnetsValid,2021.1.4,Win32,60.0132029,,,,,,,,,,,,,2,2.641,0,29,29,18,1,,,,,,,,,,,,,,,,,,,,,,,,,,,,,,,,,,,,,,,,,,,,,,,,,,,,,,,,,,,,,,,,,,,,,,
,,,,7,5.0302,,,,,,168,cactus,flower,,89775,001,2022-04-26_22h50.38.689,SPAMnetsValid,2021.1.4,Win32,60.0132029,,,,,,,,,,,,,7,5.0302,0,30,30,51,1,,,,,,,,,,,,,,,,,,,,,,,,,,,,,,,,,,,,,,,,,,,,,,,,,,,,,,,,,,,,,,,,,,,,,,
,,,,8,2.1562,,,,,,154,strawberry,yogurt,,89775,001,2022-04-26_22h50.38.689,SPAMnetsValid,2021.1.4,Win32,60.0132029,,,,,,,,,,,,,8,2.1562,0,31,31,28,1,,,,,,,,,,,,,,,,,,,,,,,,,,,,,,,,,,,,,,,,,,,,,,,,,,,,,,,,,,,,,,,,,,,,,,
,,,,1,2.0727,,,,,,129,cactus,refrigerator,,89775,001,2022-04-26_22h50.38.689,SPAMnetsValid,2021.1.4,Win32,60.0132029,,,,,,,,,,,,,1,2.0727,0,32,32,3,1,,,,,,,,,,,,,,,,,,,,,,,,,,,,,,,,,,,,,,,,,,,,,,,,,,,,,,,,,,,,,,,,,,,,,,
,,,,3,1.9146,,,,,,153,carrot,pretzel,,89775,001,2022-04-26_22h50.38.689,SPAMnetsValid,2021.1.4,Win32,60.0132029,,,,,,,,,,,,,3,1.9146,0,33,33,34,1,,,,,,,,,,,,,,,,,,,,,,,,,,,,,,,,,,,,,,,,,,,,,,,,,,,,,,,,,,,,,,,,,,,,,,
,,,,5,4.6834,,,,,,184,oven,pretzel,,89775,001,2022-04-26_22h50.38.689,SPAMnetsValid,2021.1.4,Win32,60.0132029,,,,,,,,,,,,,5,4.6834,0,34,34,42,1,,,,,,,,,,,,,,,,,,,,,,,,,,,,,,,,,,,,,,,,,,,,,,,,,,,,,,,,,,,,,,,,,,,,,,
,,,,7,2.5062,,,,,,173,kitchen,tomato,,89775,001,2022-04-26_22h50.38.689,SPAMnetsValid,2021.1.4,Win32,60.0132029,,,,,,,,,,,,,7,2.5062,0,35,35,1,1,,,,,,,,,,,,,,,,,,,,,,,,,,,,,,,,,,,,,,,,,,,,,,,,,,,,,,,,,,,,,,,,,,,,,,
,,,,8,2.0781,,,,,,163,melon,refrigerator,,89775,001,2022-04-26_22h50.38.689,SPAMnetsValid,2021.1.4,Win32,60.0132029,,,,,,,,,,,,,8,2.0781,0,36,36,29,1,,,,,,,,,,,,,,,,,,,,,,,,,,,,,,,,,,,,,,,,,,,,,,,,,,,,,,,,,,,,,,,,,,,,,,
,,,,2,3.8735,,,,,,125,carrot,tree,,89775,001,2022-04-26_22h50.38.689,SPAMnetsValid,2021.1.4,Win32,60.0132029,,,,,,,,,,,,,2,3.8735,0,37,37,30,1,,,,,,,,,,,,,,,,,,,,,,,,,,,,,,,,,,,,,,,,,,,,,,,,,,,,,,,,,,,,,,,,,,,,,,
,,,,2,3.5053,,,,,,133,cake,flower,,89775,001,2022-04-26_22h50.38.689,SPAMnetsValid,2021.1.4,Win32,60.0132029,,,,,,,,,,,,,2,3.5053,0,38,38,94,1,,,,,,,,,,,,,,,,,,,,,,,,,,,,,,,,,,,,,,,,,,,,,,,,,,,,,,,,,,,,,,,,,,,,,,
,,,,2,2.6413,,,,,,105,cactus,oven,,89775,001,2022-04-26_22h50.38.689,SPAMnetsValid,2021.1.4,Win32,60.0132029,,,,,,,,,,,,,2,2.6413,0,39,39,13,1,,,,,,,,,,,,,,,,,,,,,,,,,,,,,,,,,,,,,,,,,,,,,,,,,,,,,,,,,,,,,,,,,,,,,,
,,,,3,3.5896,,,,,,135,carrot,oven,,89775,001,2022-04-26_22h50.38.689,SPAMnetsValid,2021.1.4,Win32,60.0132029,,,,,,,,,,,,,3,3.5896,0,40,40,73,1,,,,,,,,,,,,,,,,,,,,,,,,,,,,,,,,,,,,,,,,,,,,,,,,,,,,,,,,,,,,,,,,,,,,,,
,,,,3,2.1959,,,,,,162,microwave,tomato,,89775,001,2022-04-26_22h50.38.689,SPAMnetsValid,2021.1.4,Win32,60.0132029,,,,,,,,,,,,,3,2.1959,0,41,41,12,1,,,,,,,,,,,,,,,,,,,,,,,,,,,,,,,,,,,,,,,,,,,,,,,,,,,,,,,,,,,,,,,,,,,,,,
,,,,7,1.8115,,,,,,147,cake,refrigerator,,89775,001,2022-04-26_22h50.38.689,SPAMnetsValid,2021.1.4,Win32,60.0132029,,,,,,,,,,,,,7,1.8115,0,42,42,35,1,,,,,,,,,,,,,,,,,,,,,,,,,,,,,,,,,,,,,,,,,,,,,,,,,,,,,,,,,,,,,,,,,,,,,,
,,,,8,2.2591,,,,,,131,cactus,garden,,89775,001,2022-04-26_22h50.38.689,SPAMnetsValid,2021.1.4,Win32,60.0132029,,,,,,,,,,,,,8,2.2591,0,43,43,33,1,,,,,,,,,,,,,,,,,,,,,,,,,,,,,,,,,,,,,,,,,,,,,,,,,,,,,,,,,,,,,,,,,,,,,,
,,,,7,2.5405,,,,,,185,cactus,rose,,89775,001,2022-04-26_22h50.38.689,SPAMnetsValid,2021.1.4,Win32,60.0132029,,,,,,,,,,,,,7,2.5405,0,44,44,43,1,,,,,,,,,,,,,,,,,,,,,,,,,,,,,,,,,,,,,,,,,,,,,,,,,,,,,,,,,,,,,,,,,,,,,,
,,,,1,3.1414,,,,,,157,refrigerator,rose,,89775,001,2022-04-26_22h50.38.689,SPAMnetsValid,2021.1.4,Win32,60.0132029,,,,,,,,,,,,,1,3.1414,0,45,45,64,1,,,,,,,,,,,,,,,,,,,,,,,,,,,,,,,,,,,,,,,,,,,,,,,,,,,,,,,,,,,,,,,,,,,,,,
,,,,1,1.9915,,,,,,104,garden,microwave,,89775,001,2022-04-26_22h50.38.689,SPAMnetsValid,2021.1.4,Win32,60.0132029,,,,,,,,,,,,,1,1.9915,0,46,46,81,1,,,,,,,,,,,,,,,,,,,,,,,,,,,,,,,,,,,,,,,,,,,,,,,,,,,,,,,,,,,,,,,,,,,,,,
,,,,1,2.148,,,,,,128,melon,microwave,,89775,001,2022-04-26_22h50.38.689,SPAMnetsValid,2021.1.4,Win32,60.0132029,,,,,,,,,,,,,1,2.148,0,47,47,74,1,,,,,,,,,,,,,,,,,,,,,,,,,,,,,,,,,,,,,,,,,,,,,,,,,,,,,,,,,,,,,,,,,,,,,,
,,,,8,2.6149,,,,,,106,cake,strawberry,,89775,001,2022-04-26_22h50.38.689,SPAMnetsValid,2021.1.4,Win32,60.0132029,,,,,,,,,,,,,8,2.6149,0,48,48,0,1,,,,,,,,,,,,,,,,,,,,,,,,,,,,,,,,,,,,,,,,,,,,,,,,,,,,,,,,,,,,,,,,,,,,,,
,,,,7,3.6572,,,,,,155,carrot,cookie,,89775,001,2022-04-26_22h50.38.689,SPAMnetsValid,2021.1.4,Win32,60.0132029,,,,,,,,,,,,,7,3.6572,0,49,49,38,1,,,,,,,,,,,,,,,,,,,,,,,,,,,,,,,,,,,,,,,,,,,,,,,,,,,,,,,,,,,,,,,,,,,,,,
,,,,1,2.6061,,,,,,121,broom,microwave,,89775,001,2022-04-26_22h50.38.689,SPAMnetsValid,2021.1.4,Win32,60.0132029,,,,,,,,,,,,,1,2.6061,0,50,50,95,1,,,,,,,,,,,,,,,,,,,,,,,,,,,,,,,,,,,,,,,,,,,,,,,,,,,,,,,,,,,,,,,,,,,,,,
,,,,1,2.464,,,,,,145,cactus,yogurt,,89775,001,2022-04-26_22h50.38.689,SPAMnetsValid,2021.1.4,Win32,60.0132029,,,,,,,,,,,,,1,2.464,0,51,51,15,1,,,,,,,,,,,,,,,,,,,,,,,,,,,,,,,,,,,,,,,,,,,,,,,,,,,,,,,,,,,,,,,,,,,,,,
,,,,1,1.9562,,,,,,187,cactus,microwave,,89775,001,2022-04-26_22h50.38.689,SPAMnetsValid,2021.1.4,Win32,60.0132029,,,,,,,,,,,,,1,1.9562,0,52,52,71,1,,,,,,,,,,,,,,,,,,,,,,,,,,,,,,,,,,,,,,,,,,,,,,,,,,,,,,,,,,,,,,,,,,,,,,
,,,,7,2.3171,,,,,,188,flower,tree,,89775,001,2022-04-26_22h50.38.689,SPAMnetsValid,2021.1.4,Win32,60.0132029,,,,,,,,,,,,,7,2.3171,0,53,53,7,1,,,,,,,,,,,,,,,,,,,,,,,,,,,,,,,,,,,,,,,,,,,,,,,,,,,,,,,,,,,,,,,,,,,,,,
,,,,3,6.1419,,,,,,114,cookie,strawberry,,89775,001,2022-04-26_22h50.38.689,SPAMnetsValid,2021.1.4,Win32,60.0132029,,,,,,,,,,,,,3,6.1419,0,54,54,87,1,,,,,,,,,,,,,,,,,,,,,,,,,,,,,,,,,,,,,,,,,,,,,,,,,,,,,,,,,,,,,,,,,,,,,,
,,,,9,1.9627,,,,,,122,flower,garden,,89775,001,2022-04-26_22h50.38.689,SPAMnetsValid,2021.1.4,Win32,60.0132029,,,,,,,,,,,,,9,1.9627,0,55,55,60,1,,,,,,,,,,,,,,,,,,,,,,,,,,,,,,,,,,,,,,,,,,,,,,,,,,,,,,,,,,,,,,,,,,,,,,
,,,,6,2.5711,,,,,,161,kitchen,pretzel,,89775,001,2022-04-26_22h50.38.689,SPAMnetsValid,2021.1.4,Win32,60.0132029,,,,,,,,,,,,,6,2.5711,0,56,56,36,1,,,,,,,,,,,,,,,,,,,,,,,,,,,,,,,,,,,,,,,,,,,,,,,,,,,,,,,,,,,,,,,,,,,,,,
,,,,8,4.3231,,,,,,138,flower,rose,,89775,001,2022-04-26_22h50.38.689,SPAMnetsValid,2021.1.4,Win32,60.0132029,,,,,,,,,,,,,8,4.3231,0,57,57,61,1,,,,,,,,,,,,,,,,,,,,,,,,,,,,,,,,,,,,,,,,,,,,,,,,,,,,,,,,,,,,,,,,,,,,,,
,,,,1,3.0889,,,,,,123,cookie,tree,,89775,001,2022-04-26_22h50.38.689,SPAMnetsValid,2021.1.4,Win32,60.0132029,,,,,,,,,,,,,1,3.0889,0,58,58,46,1,,,,,,,,,,,,,,,,,,,,,,,,,,,,,,,,,,,,,,,,,,,,,,,,,,,,,,,,,,,,,,,,,,,,,,
,,,,1,2.373,,,,,,146,pretzel,tree,,89775,001,2022-04-26_22h50.38.689,SPAMnetsValid,2021.1.4,Win32,60.0132029,,,,,,,,,,,,,1,2.373,0,59,59,80,1,,,,,,,,,,,,,,,,,,,,,,,,,,,,,,,,,,,,,,,,,,,,,,,,,,,,,,,,,,,,,,,,,,,,,,
,,,,9,2.3608,,,,,,112,cake,carrot,,89775,001,2022-04-26_22h50.38.689,SPAMnetsValid,2021.1.4,Win32,60.0132029,,,,,,,,,,,,,9,2.3608,0,60,60,39,1,,,,,,,,,,,,,,,,,,,,,,,,,,,,,,,,,,,,,,,,,,,,,,,,,,,,,,,,,,,,,,,,,,,,,,
,,,,2,2.5724,,,,,,143,pretzel,rose,,89775,001,2022-04-26_22h50.38.689,SPAMnetsValid,2021.1.4,Win32,60.0132029,,,,,,,,,,,,,2,2.5724,0,61,61,55,1,,,,,,,,,,,,,,,,,,,,,,,,,,,,,,,,,,,,,,,,,,,,,,,,,,,,,,,,,,,,,,,,,,,,,,
,,,,1,1.7074,,,,,,111,carrot,microwave,,89775,001,2022-04-26_22h50.38.689,SPAMnetsValid,2021.1.4,Win32,60.0132029,,,,,,,,,,,,,1,1.7074,0,62,62,16,1,,,,,,,,,,,,,,,,,,,,,,,,,,,,,,,,,,,,,,,,,,,,,,,,,,,,,,,,,,,,,,,,,,,,,,
,,,,8,3.9228,,,,,,100,garden,tomato,,89775,001,2022-04-26_22h50.38.689,SPAMnetsValid,2021.1.4,Win32,60.0132029,,,,,,,,,,,,,8,3.9228,0,63,63,83,1,,,,,,,,,,,,,,,,,,,,,,,,,,,,,,,,,,,,,,,,,,,,,,,,,,,,,,,,,,,,,,,,,,,,,,
,,,,2,2.0885,,,,,,165,onion,rose,,89775,001,2022-04-26_22h50.38.689,SPAMnetsValid,2021.1.4,Win32,60.0132029,,,,,,,,,,,,,2,2.0885,0,64,64,40,1,,,,,,,,,,,,,,,,,,,,,,,,,,,,,,,,,,,,,,,,,,,,,,,,,,,,,,,,,,,,,,,,,,,,,,
,,,,9,2.4563,,,,,,142,garden,tree,,89775,001,2022-04-26_22h50.38.689,SPAMnetsValid,2021.1.4,Win32,60.0132029,,,,,,,,,,,,,9,2.4563,0,65,65,22,1,,,,,,,,,,,,,,,,,,,,,,,,,,,,,,,,,,,,,,,,,,,,,,,,,,,,,,,,,,,,,,,,,,,,,,
,,,,1,2.8225,,,,,,169,onion,yogurt,,89775,001,2022-04-26_22h50.38.689,SPAMnetsValid,2021.1.4,Win32,60.0132029,,,,,,,,,,,,,1,2.8225,0,66,66,24,1,,,,,,,,,,,,,,,,,,,,,,,,,,,,,,,,,,,,,,,,,,,,,,,,,,,,,,,,,,,,,,,,,,,,,,
,,,,9,2.0361,,,,,,194,cactus,cactus,CHECK,89775,001,2022-04-26_22h50.38.689,SPAMnetsValid,2021.1.4,Win32,60.0132029,,,,,,,,,,,,,9,2.0361,0,67,67,25,1,,,,,,,,,,,,,,,,,,,,,,,,,,,,,,,,,,,,,,,,,,,,,,,,,,,,,,,,,,,,,,,,,,,,,,
,,,,9,2.2596,,,,,,99,garden,melon,,89775,001,2022-04-26_22h50.38.689,SPAMnetsValid,2021.1.4,Win32,60.0132029,,,,,,,,,,,,,9,2.2596,0,68,68,17,1,,,,,,,,,,,,,,,,,,,,,,,,,,,,,,,,,,,,,,,,,,,,,,,,,,,,,,,,,,,,,,,,,,,,,,
,,,,6,2.3227,,,,,,108,carrot,chocolate,,89775,001,2022-04-26_22h50.38.689,SPAMnetsValid,2021.1.4,Win32,60.0132029,,,,,,,,,,,,,6,2.3227,0,69,69,5,1,,,,,,,,,,,,,,,,,,,,,,,,,,,,,,,,,,,,,,,,,,,,,,,,,,,,,,,,,,,,,,,,,,,,,,
,,,,3,2.6065,,,,,,117,melon,strawberry,,89775,001,2022-04-26_22h50.38.689,SPAMnetsValid,2021.1.4,Win32,60.0132029,,,,,,,,,,,,,3,2.6065,0,70,70,11,1,,,,,,,,,,,,,,,,,,,,,,,,,,,,,,,,,,,,,,,,,,,,,,,,,,,,,,,,,,,,,,,,,,,,,,
,,,,1,2.7728,,,,,,183,cake,rose,,89775,001,2022-04-26_22h50.38.689,SPAMnetsValid,2021.1.4,Win32,60.0132029,,,,,,,,,,,,,1,2.7728,0,71,71,19,1,,,,,,,,,,,,,,,,,,,,,,,,,,,,,,,,,,,,,,,,,,,,,,,,,,,,,,,,,,,,,,,,,,,,,,
,,,,5,2.8813,,,,,,172,kitchen,melon,,89775,001,2022-04-26_22h50.38.689,SPAMnetsValid,2021.1.4,Win32,60.0132029,,,,,,,,,,,,,5,2.8813,0,72,72,77,1,,,,,,,,,,,,,,,,,,,,,,,,,,,,,,,,,,,,,,,,,,,,,,,,,,,,,,,,,,,,,,,,,,,,,,
,,,,6,3.5765,,,,,,178,cactus,carrot,,89775,001,2022-04-26_22h50.38.689,SPAMnetsValid,2021.1.4,Win32,60.0132029,,,,,,,,,,,,,6,3.5765,0,73,73,75,1,,,,,,,,,,,,,,,,,,,,,,,,,,,,,,,,,,,,,,,,,,,,,,,,,,,,,,,,,,,,,,,,,,,,,,
,,,,3,2.1228,,,,,,176,cactus,tomato,,89775,001,2022-04-26_22h50.38.689,SPAMnetsValid,2021.1.4,Win32,60.0132029,,,,,,,,,,,,,3,2.1228,0,74,74,9,1,,,,,,,,,,,,,,,,,,,,,,,,,,,,,,,,,,,,,,,,,,,,,,,,,,,,,,,,,,,,,,,,,,,,,,
,,,,9,1.7719,,,,,,193,melon,melon,CHECK,89775,001,2022-04-26_22h50.38.689,SPAMnetsValid,2021.1.4,Win32,60.0132029,,,,,,,,,,,,,9,1.7719,0,75,75,86,1,,,,,,,,,,,,,,,,,,,,,,,,,,,,,,,,,,,,,,,,,,,,,,,,,,,,,,,,,,,,,,,,,,,,,,
,,,,1,5.99,,,,,,174,cake,pretzel,,89775,001,2022-04-26_22h50.38.689,SPAMnetsValid,2021.1.4,Win32,60.0132029,,,,,,,,,,,,,1,5.99,0,76,76,2,1,,,,,,,,,,,,,,,,,,,,,,,,,,,,,,,,,,,,,,,,,,,,,,,,,,,,,,,,,,,,,,,,,,,,,,
,,,,7,3.3566,,,,,,186,kitchen,yogurt,,89775,001,2022-04-26_22h50.38.689,SPAMnetsValid,2021.1.4,Win32,60.0132029,,,,,,,,,,,,,7,3.3566,0,77,77,48,1,,,,,,,,,,,,,,,,,,,,,,,,,,,,,,,,,,,,,,,,,,,,,,,,,,,,,,,,,,,,,,,,,,,,,,
,,,,1,2.5585,,,,,,144,cake,garden,,89775,001,2022-04-26_22h50.38.689,SPAMnetsValid,2021.1.4,Win32,60.0132029,,,,,,,,,,,,,1,2.5585,0,78,78,58,1,,,,,,,,,,,,,,,,,,,,,,,,,,,,,,,,,,,,,,,,,,,,,,,,,,,,,,,,,,,,,,,,,,,,,,
,,,,5,3.355,,,,,,102,chocolate,refrigerator,,89775,001,2022-04-26_22h50.38.689,SPAMnetsValid,2021.1.4,Win32,60.0132029,,,,,,,,,,,,,5,3.355,0,79,79,76,1,,,,,,,,,,,,,,,,,,,,,,,,,,,,,,,,,,,,,,,,,,,,,,,,,,,,,,,,,,,,,,,,,,,,,,
,,,,5,5.6068,,,,,,141,melon,tomato,,89775,001,2022-04-26_22h50.38.689,SPAMnetsValid,2021.1.4,Win32,60.0132029,,,,,,,,,,,,,5,5.6068,0,80,80,70,1,,,,,,,,,,,,,,,,,,,,,,,,,,,,,,,,,,,,,,,,,,,,,,,,,,,,,,,,,,,,,,,,,,,,,,
,,,,9,2.415,,,,,,120,microwave,oven,,89775,001,2022-04-26_22h50.38.689,SPAMnetsValid,2021.1.4,Win32,60.0132029,,,,,,,,,,,,,9,2.415,0,81,81,14,1,,,,,,,,,,,,,,,,,,,,,,,,,,,,,,,,,,,,,,,,,,,,,,,,,,,,,,,,,,,,,,,,,,,,,,
,,,,2,2.0777,,,,,,103,pretzel,tomato,,89775,001,2022-04-26_22h50.38.689,SPAMnetsValid,2021.1.4,Win32,60.0132029,,,,,,,,,,,,,2,2.0777,0,82,82,79,1,,,,,,,,,,,,,,,,,,,,,,,,,,,,,,,,,,,,,,,,,,,,,,,,,,,,,,,,,,,,,,,,,,,,,,
,,,,2,2.5576,,,,,,118,chocolate,oven,,89775,001,2022-04-26_22h50.38.689,SPAMnetsValid,2021.1.4,Win32,60.0132029,,,,,,,,,,,,,2,2.5576,0,83,83,10,1,,,,,,,,,,,,,,,,,,,,,,,,,,,,,,,,,,,,,,,,,,,,,,,,,,,,,,,,,,,,,,,,,,,,,,
,,,,2,2.3074,,,,,,175,melon,onion,,89775,001,2022-04-26_22h50.38.689,SPAMnetsValid,2021.1.4,Win32,60.0132029,,,,,,,,,,,,,2,2.3074,0,84,84,41,1,,,,,,,,,,,,,,,,,,,,,,,,,,,,,,,,,,,,,,,,,,,,,,,,,,,,,,,,,,,,,,,,,,,,,,
,,,,1,2.0802,,,,,,148,flower,melon,,89775,001,2022-04-26_22h50.38.689,SPAMnetsValid,2021.1.4,Win32,60.0132029,,,,,,,,,,,,,1,2.0802,0,85,85,23,1,,,,,,,,,,,,,,,,,,,,,,,,,,,,,,,,,,,,,,,,,,,,,,,,,,,,,,,,,,,,,,,,,,,,,,
,,,,1,2.1351,,,,,,134,carrot,flower,,89775,001,2022-04-26_22h50.38.689,SPAMnetsValid,2021.1.4,Win32,60.0132029,,,,,,,,,,,,,1,2.1351,0,86,86,93,1,,,,,,,,,,,,,,,,,,,,,,,,,,,,,,,,,,,,,,,,,,,,,,,,,,,,,,,,,,,,,,,,,,,,,,
,,,,1,1.9571,,,,,,127,cactus,chocolate,,89775,001,2022-04-26_22h50.38.689,SPAMnetsValid,2021.1.4,Win32,60.0132029,,,,,,,,,,,,,1,1.9571,0,87,87,57,1,,,,,,,,,,,,,,,,,,,,,,,,,,,,,,,,,,,,,,,,,,,,,,,,,,,,,,,,,,,,,,,,,,,,,,
,,,,2,2.2741,,,,,,96,oven,strawberry,,89775,001,2022-04-26_22h50.38.689,SPAMnetsValid,2021.1.4,Win32,60.0132029,,,,,,,,,,,,,2,2.2741,0,88,88,67,1,,,,,,,,,,,,,,,,,,,,,,,,,,,,,,,,,,,,,,,,,,,,,,,,,,,,,,,,,,,,,,,,,,,,,,
,,,,1,2.9821,,,,,,101,cactus,kitchen,,89775,001,2022-04-26_22h50.38.689,SPAMnetsValid,2021.1.4,Win32,60.0132029,,,,,,,,,,,,,1,2.9821,0,89,89,54,1,,,,,,,,,,,,,,,,,,,,,,,,,,,,,,,,,,,,,,,,,,,,,,,,,,,,,,,,,,,,,,,,,,,,,,
,,,,1,1.8308,,,,,,166,cake,yogurt,,89775,001,2022-04-26_22h50.38.689,SPAMnetsValid,2021.1.4,Win32,60.0132029,,,,,,,,,,,,,1,1.8308,0,90,90,91,1,,,,,,,,,,,,,,,,,,,,,,,,,,,,,,,,,,,,,,,,,,,,,,,,,,,,,,,,,,,,,,,,,,,,,,
,,,,2,1.9738,,,,,,152,cactus,strawberry,,89775,001,2022-04-26_22h50.38.689,SPAMnetsValid,2021.1.4,Win32,60.0132029,,,,,,,,,,,,,2,1.9738,0,91,91,49,1,,,,,,,,,,,,,,,,,,,,,,,,,,,,,,,,,,,,,,,,,,,,,,,,,,,,,,,,,,,,,,,,,,,,,,
,,,,9,2.0362,,,,,,124,oven,refrigerator,,89775,001,2022-04-26_22h50.38.689,SPAMnetsValid,2021.1.4,Win32,60.0132029,,,,,,,,,,,,,9,2.0362,0,92,92,69,1,,,,,,,,,,,,,,,,,,,,,,,,,,,,,,,,,,,,,,,,,,,,,,,,,,,,,,,,,,,,,,,,,,,,,,
,,,,8,2.7735,,,,,,170,cookie,microwave,,89775,001,2022-04-26_22h50.38.689,SPAMnetsValid,2021.1.4,Win32,60.0132029,,,,,,,,,,,,,8,2.7735,0,93,93,92,1,,,,,,,,,,,,,,,,,,,,,,,,,,,,,,,,,,,,,,,,,,,,,,,,,,,,,,,,,,,,,,,,,,,,,,
,,,,7,2.7608,,,,,,160,cookie,kitchen,,89775,001,2022-04-26_22h50.38.689,SPAMnetsValid,2021.1.4,Win32,60.0132029,,,,,,,,,,,,,7,2.7608,0,94,94,65,1,,,,,,,,,,,,,,,,,,,,,,,,,,,,,,,,,,,,,,,,,,,,,,,,,,,,,,,,,,,,,,,,,,,,,,
,,,,6,1.6075,,,,,,136,chocolate,microwave,,89775,001,2022-04-26_22h50.38.689,SPAMnetsValid,2021.1.4,Win32,60.0132029,,,,,,,,,,,,,6,1.6075,0,95,95,96,1,,,,,,,,,,,,,,,,,,,,,,,,,,,,,,,,,,,,,,,,,,,,,,,,,,,,,,,,,,,,,,,,,,,,,,
,,,,9,2.7103,,,,,,110,chocolate,cookie,,89775,001,2022-04-26_22h50.38.689,SPAMnetsValid,2021.1.4,Win32,60.0132029,,,,,,,,,,,,,9,2.7103,0,96,96,52,1,,,,,,,,,,,,,,,,,,,,,,,,,,,,,,,,,,,,,,,,,,,,,,,,,,,,,,,,,,,,,,,,,,,,,,
,,,,,,,,,,,,,,,89775,001,2022-04-26_22h50.38.689,SPAMnetsValid,2021.1.4,Win32,60.0132029,,,,,,,,,,,,,,,,,,,,0,0,0,0,1,,,,,,,,,,,,,,,,,,,,,,,,,,,,,,,,,,,,,,,,,,,,,,,,,,,,,,,,,,,,,,,,,
,,,,,,,,,,,,,,,89775,001,2022-04-26_22h50.38.689,SPAMnetsValid,2021.1.4,Win32,60.0132029,,,,,,0,1,1,1,1,0,1,,,,,,,,,,,,,,,,,,,,,,,,,,,,,,,,,,,,,,,,,,,,,,,,,,,,,,,,,,,,,,,,,,,,,,,,,,,,,
,,,,,,,,,,,,,,,89775,001,2022-04-26_22h50.38.689,SPAMnetsValid,2021.1.4,Win32,60.0132029,,,,,,,,,,,,,,,,,,,,,,,,,3,8.8187,0,0,0,0,1,rancor,forbearance,ridicule,malice,bravery,3,,,,,,,,,,,,,,,,,,,,,,,,,,,,,,,,,,,,,,,,,,,,,,,,,,,,
,,,,,,,,,,,,,,,89775,001,2022-04-26_22h50.38.689,SPAMnetsValid,2021.1.4,Win32,60.0132029,,,,,,,,,,,,,,,,,,,,,,,,,4,4.2589,0,1,1,1,1,raucous,empty,quiet,smooth,harsh,4,,,,,,,,,,,,,,,,,,,,,,,,,,,,,,,,,,,,,,,,,,,,,,,,,,,,
,,,,,,,,,,,,,,,89775,001,2022-04-26_22h50.38.689,SPAMnetsValid,2021.1.4,Win32,60.0132029,,,,,,,,,,,,,,,,,,,,,,,,,3,3.6594,0,2,2,2,1,gargoyle,oil,medicine,carved waterspout,ugly building,3,,,,,,,,,,,,,,,,,,,,,,,,,,,,,,,,,,,,,,,,,,,,,,,,,,,,
,,,,,,,,,,,,,,,89775,001,2022-04-26_22h50.38.689,SPAMnetsValid,2021.1.4,Win32,60.0132029,,,,,,,,,,,,,,,,,,,,,,,,,1,5.1253,0,3,3,3,1,recrudesce,purify,renew activity,lack refinement,crush,2,,,,,,,,,,,,,,,,,,,,,,,,,,,,,,,,,,,,,,,,,,,,,,,,,,,,
,,,,,,,,,,,,,,,89775,001,2022-04-26_22h50.38.689,SPAMnetsValid,2021.1.4,Win32,60.0132029,,,,,,,,,,,,,,,,,,,,,,,,,3,4.8094,0,4,4,4,1,specious,"plausible, but not genuine",noteworthy,class or variety,roomy,1,,,,,,,,,,,,,,,,,,,,,,,,,,,,,,,,,,,,,,,,,,,,,,,,,,,,
,,,,,,,,,,,,,,,89775,001,2022-04-26_22h50.38.689,SPAMnetsValid,2021.1.4,Win32,60.0132029,,,,,,,,,,,,,,,,,,,,,,,,,4,5.3368,0,5,5,5,1,bauble,bubble,showy plaything,idle talk,confusion,2,,,,,,,,,,,,,,,,,,,,,,,,,,,,,,,,,,,,,,,,,,,,,,,,,,,,
,,,,,,,,,,,,,,,89775,001,2022-04-26_22h50.38.689,SPAMnetsValid,2021.1.4,Win32,60.0132029,,,,,,,,,,,,,,,,,,,,,,,,,2,6.4582,0,6,6,6,1,prolific,scarce,producing abundantly,reckless,speaking profanely,2,,,,,,,,,,,,,,,,,,,,,,,,,,,,,,,,,,,,,,,,,,,,,,,,,,,,
,,,,,,,,,,,,,,,89775,001,2022-04-26_22h50.38.689,SPAMnetsValid,2021.1.4,Win32,60.0132029,,,,,,,,,,,,,,,,,,,,,,,,,2,5.7524,0,7,7,7,1,opulent,party,wealthy,happy frame of mind,semiprecious stone,2,,,,,,,,,,,,,,,,,,,,,,,,,,,,,,,,,,,,,,,,,,,,,,,,,,,,
,,,,,,,,,,,,,,,89775,001,2022-04-26_22h50.38.689,SPAMnetsValid,2021.1.4,Win32,60.0132029,,,,,,,,,,,,,,,,,,,,,,,,,4,5.5118,0,8,8,8,1,coercion,conspiracy,strategy,restraint,attraction,3,,,,,,,,,,,,,,,,,,,,,,,,,,,,,,,,,,,,,,,,,,,,,,,,,,,,
,,,,,,,,,,,,,,,89775,001,2022-04-26_22h50.38.689,SPAMnetsValid,2021.1.4,Win32,60.0132029,,,,,,,,,,,,,,,,,,,,,,,,,4,3.045,0,9,9,9,1,hiatus,animal,calamity,dread,gap,4,,,,,,,,,,,,,,,,,,,,,,,,,,,,,,,,,,,,,,,,,,,,,,,,,,,,
,,,,,,,,,,,,,,,89775,001,2022-04-26_22h50.38.689,SPAMnetsValid,2021.1.4,Win32,60.0132029,,,,,,,,,,,,,,,,,,,,,,,,,3,4.8587,0,10,10,10,1,germane,microbe,contagious,relevant,different,3,,,,,,,,,,,,,,,,,,,,,,,,,,,,,,,,,,,,,,,,,,,,,,,,,,,,
,,,,,,,,,,,,,,,89775,001,2022-04-26_22h50.38.689,SPAMnetsValid,2021.1.4,Win32,60.0132029,,,,,,,,,,,,,,,,,,,,,,,,,1,5.1097,0,11,11,11,1,perfunctory,fundamental,formal,superficial,careful,3,,,,,,,,,,,,,,,,,,,,,,,,,,,,,,,,,,,,,,,,,,,,,,,,,,,,
,,,,,,,,,,,,,,,89775,001,2022-04-26_22h50.38.689,SPAMnetsValid,2021.1.4,Win32,60.0132029,,,,,,,,,,,,,,,,,,,,,,,,,4,3.0182,0,12,12,12,1,diverge,reveal,chant,distract the attention of,differ or turn off from,4,,,,,,,,,,,,,,,,,,,,,,,,,,,,,,,,,,,,,,,,,,,,,,,,,,,,
,,,,,,,,,,,,,,,89775,001,2022-04-26_22h50.38.689,SPAMnetsValid,2021.1.4,Win32,60.0132029,,,,,,,,,,,,,,,,,,,,,,,,,4,2.7094,0,13,13,13,1,evoke,take away,anger,connect,bring out,4,,,,,,,,,,,,,,,,,,,,,,,,,,,,,,,,,,,,,,,,,,,,,,,,,,,,
,,,,,,,,,,,,,,,89775,001,2022-04-26_22h50.38.689,SPAMnetsValid,2021.1.4,Win32,60.0132029,,,,,,,,,,,,,,,,,,,,,,,,,1,2.3927,0,14,14,14,1,pertinent,relevant,lying next to,necessary,bold,1,,,,,,,,,,,,,,,,,,,,,,,,,,,,,,,,,,,,,,,,,,,,,,,,,,,,
,,,,,,,,,,,,,,,89775,001,2022-04-26_22h50.38.689,SPAMnetsValid,2021.1.4,Win32,60.0132029,,,,,,,,,,,,,,,,,,,,,,,,,2,2.2277,0,15,15,15,1,holocaust,entirety,destruction,saintly,price,2,,,,,,,,,,,,,,,,,,,,,,,,,,,,,,,,,,,,,,,,,,,,,,,,,,,,
,,,,,,,,,,,,,,,89775,001,2022-04-26_22h50.38.689,SPAMnetsValid,2021.1.4,Win32,60.0132029,,,,,,,,,,,,,,,,,,,,,,,,,3,2.628,0,16,16,16,1,piquant,mellow,fish,pungent,cloth,3,,,,,,,,,,,,,,,,,,,,,,,,,,,,,,,,,,,,,,,,,,,,,,,,,,,,
,,,,,,,,,,,,,,,89775,001,2022-04-26_22h50.38.689,SPAMnetsValid,2021.1.4,Win32,60.0132029,,,,,,,,,,,,,,,,,,,,,,,,,1,7.1996,0,17,17,17,1,firmament,foundation,heavens,strong,glue,2,,,,,,,,,,,,,,,,,,,,,,,,,,,,,,,,,,,,,,,,,,,,,,,,,,,,
,,,,,,,,,,,,,,,89775,001,2022-04-26_22h50.38.689,SPAMnetsValid,2021.1.4,Win32,60.0132029,,,,,,,,,,,,,,,,,,,,,,,,,,,,,,,,,,,,,,3,4.3912,0,0,0,0,1,marketable,partisan,jocular,marriageable,salable,essential,4,,,,,,,,,,,,,,,,,,,,,,,,,,,,,,,,,,,,,,
,,,,,,,,,,,,,,,89775,001,2022-04-26_22h50.38.689,SPAMnetsValid,2021.1.4,Win32,60.0132029,,,,,,,,,,,,,,,,,,,,,,,,,,,,,,,,,,,,,,4,3.632,0,1,1,1,1,cottontail,squirrel,poplar,boa,marshy plant,rabbit,5,,,,,,,,,,,,,,,,,,,,,,,,,,,,,,,,,,,,,,
,,,,,,,,,,,,,,,89775,001,2022-04-26_22h50.38.689,SPAMnetsValid,2021.1.4,Win32,60.0132029,,,,,,,,,,,,,,,,,,,,,,,,,,,,,,,,,,,,,,3,3.3157,0,2,2,2,1,boggy,afraid,false,marshy,dense,black,3,,,,,,,,,,,,,,,,,,,,,,,,,,,,,,,,,,,,,,
,,,,,,,,,,,,,,,89775,001,2022-04-26_22h50.38.689,SPAMnetsValid,2021.1.4,Win32,60.0132029,,,,,,,,,,,,,,,,,,,,,,,,,,,,,,,,,,,,,,3,8.1108,0,3,3,3,1,gruesomeness,blackness,falseness,vindictiveness,drunkenness,ghastliness,5,,,,,,,,,,,,,,,,,,,,,,,,,,,,,,,,,,,,,,
,,,,,,,,,,,,,,,89775,001,2022-04-26_22h50.38.689,SPAMnetsValid,2021.1.4,Win32,60.0132029,,,,,,,,,,,,,,,,,,,,,,,,,,,,,,,,,,,,,,1,4.1146,0,4,4,4,1,loathing,diffidence,laziness,abhorrence,cleverness,comfort,3,,,,,,,,,,,,,,,,,,,,,,,,,,,,,,,,,,,,,,
,,,,,,,,,,,,,,,89775,001,2022-04-26_22h50.38.689,SPAMnetsValid,2021.1.4,Win32,60.0132029,,,,,,,,,,,,,,,,,,,,,,,,,,,,,,,,,,,,,,2,4.8782,0,5,5,5,1,bantam,fowl,ridicule,cripple,vegetable,ensign,1,,,,,,,,,,,,,,,,,,,,,,,,,,,,,,,,,,,,,,
,,,,,,,,,,,,,,,89775,001,2022-04-26_22h50.38.689,SPAMnetsValid,2021.1.4,Win32,60.0132029,,,,,,,,,,,,,,,,,,,,,,,,,,,,,,,,,,,,,,3,4.7038,0,6,6,6,1,evoke,wake up,surrender,reconnoiter,transcend,call forth,5,,,,,,,,,,,,,,,,,,,,,,,,,,,,,,,,,,,,,,
,,,,,,,,,,,,,,,89775,001,2022-04-26_22h50.38.689,SPAMnetsValid,2021.1.4,Win32,60.0132029,,,,,,,,,,,,,,,,,,,,,,,,,,,,,,,,,,,,,,2,7.8426,0,7,7,7,1,unobtrusive,unintelligent,epileptic,illogical,lineal,modest,5,,,,,,,,,,,,,,,,,,,,,,,,,,,,,,,,,,,,,,
,,,,,,,,,,,,,,,89775,001,2022-04-26_22h50.38.689,SPAMnetsValid,2021.1.4,Win32,60.0132029,,,,,,,,,,,,,,,,,,,,,,,,,,,,,,,,,,,,,,4,2.3286,0,8,8,8,1,terrain,ice cream,final test,tractor,area of ground,weight,4,,,,,,,,,,,,,,,,,,,,,,,,,,,,,,,,,,,,,,
,,,,,,,,,,,,,,,89775,001,2022-04-26_22h50.38.689,SPAMnetsValid,2021.1.4,Win32,60.0132029,,,,,,,,,,,,,,,,,,,,,,,,,,,,,,,,,,,,,,2,4.1644,0,9,9,9,1,capriciousness,stubbornness,courage,whimsicality,amazement,greediness,3,,,,,,,,,,,,,,,,,,,,,,,,,,,,,,,,,,,,,,
,,,,,,,,,,,,,,,89775,001,2022-04-26_22h50.38.689,SPAMnetsValid,2021.1.4,Win32,60.0132029,,,,,,,,,,,,,,,,,,,,,,,,,,,,,,,,,,,,,,2,3.4912,0,10,10,10,1,maelstrom,slander,whirlpool,enmity,armor,majolica,2,,,,,,,,,,,,,,,,,,,,,,,,,,,,,,,,,,,,,,
,,,,,,,,,,,,,,,89775,001,2022-04-26_22h50.38.689,SPAMnetsValid,2021.1.4,Win32,60.0132029,,,,,,,,,,,,,,,,,,,,,,,,,,,,,,,,,,,,,,4,9.6591,0,11,11,11,1,tentative,critical,conclusive,authentic,provisional,apprehensive,4,,,,,,,,,,,,,,,,,,,,,,,,,,,,,,,,,,,,,,
,,,,,,,,,,,,,,,89775,001,2022-04-26_22h50.38.689,SPAMnetsValid,2021.1.4,Win32,60.0132029,,,,,,,,,,,,,,,,,,,,,,,,,,,,,,,,,,,,,,5,7.2667,0,12,12,12,1,placate,rehabilitate,plagiarize,depredate,apprise,conciliate,5,,,,,,,,,,,,,,,,,,,,,,,,,,,,,,,,,,,,,,
,,,,,,,,,,,,,,,89775,001,2022-04-26_22h50.38.689,SPAMnetsValid,2021.1.4,Win32,60.0132029,,,,,,,,,,,,,,,,,,,,,,,,,,,,,,,,,,,,,,2,2.7145,0,13,13,13,1,surcease,enlightenment,cessation,inattention,censor,substitution,2,,,,,,,,,,,,,,,,,,,,,,,,,,,,,,,,,,,,,,
,,,,,,,,,,,,,,,89775,001,2022-04-26_22h50.38.689,SPAMnetsValid,2021.1.4,Win32,60.0132029,,,,,,,,,,,,,,,,,,,,,,,,,,,,,,,,,,,,,,2,6.0947,0,14,14,14,1,apathetic,wandering,impassive,hateful,prophetic,overflowing,2,,,,,,,,,,,,,,,,,,,,,,,,,,,,,,,,,,,,,,
,,,,,,,,,,,,,,,89775,001,2022-04-26_22h50.38.689,SPAMnetsValid,2021.1.4,Win32,60.0132029,,,,,,,,,,,,,,,,,,,,,,,,,,,,,,,,,,,,,,4,2.7128,0,15,15,15,1,paternoster,paternalism,patricide,malediction,benediction,prayer,5,,,,,,,,,,,,,,,,,,,,,,,,,,,,,,,,,,,,,,
,,,,,,,,,,,,,,,89775,001,2022-04-26_22h50.38.689,SPAMnetsValid,2021.1.4,Win32,60.0132029,,,,,,,,,,,,,,,,,,,,,,,,,,,,,,,,,,,,,,2,1.9229,0,16,16,16,1,opalescence,opulence,senescence,bankruptcy,iridescence,assiduity,4,,,,,,,,,,,,,,,,,,,,,,,,,,,,,,,,,,,,,,
,,,,,,,,,,,,,,,89775,001,2022-04-26_22h50.38.689,SPAMnetsValid,2021.1.4,Win32,60.0132029,,,,,,,,,,,,,,,,,,,,,,,,,,,,,,,,,,,,,,2,3.9302,0,17,17,17,1,lush,stupid,luxurious,hazy,putrid,languishing,2,,,,,,,,,,,,,,,,,,,,,,,,,,,,,,,,,,,,,,
,,,,,,,,,,,,,,,89775,001,2022-04-26_22h50.38.689,SPAMnetsValid,2021.1.4,Win32,60.0132029,,,,,,,,,,,,,,,,,,,,,,,,,,,,,,,,,,,,,,2,5.4447,0,18,18,18,1,curtailment,expenditure,abandonment,abridgment,improvement,forgery,3,,,,,,,,,,,,,,,,,,,,,,,,,,,,,,,,,,,,,,
,,,,,,,,,,,,,,,89775,001,2022-04-26_22h50.38.689,SPAMnetsValid,2021.1.4,Win32,60.0132029,,,,,,,,,,,,,,,,,,,,,,,,,,,,,,,,,,,,,,4,2.1666,0,19,19,19,1,perversity,adversity,perviousness,travesty,waywardness,gentility,4,,,,,,,,,,,,,,,,,,,,,,,,,,,,,,,,,,,,,,
,,,,,,,,,,,,,,,89775,001,2022-04-26_22h50.38.689,SPAMnetsValid,2021.1.4,Win32,60.0132029,,,,,,,,,,,,,,,,,,,,,,,,,,,,,,,,,,,,,,2,5.5686,0,20,20,20,1,calumnious,complimentary,analogous,slanderous,tempestuous,magnanimous,3,,,,,,,,,,,,,,,,,,,,,,,,,,,,,,,,,,,,,,
,,,,,,,,,,,,,,,89775,001,2022-04-26_22h50.38.689,SPAMnetsValid,2021.1.4,Win32,60.0132029,,,,,,,,,,,,,,,,,,,,,,,,,,,,,,,,,,,,,,4,2.1432,0,21,21,21,1,illiberality,bigotry,imbecility,illegibility,cautery,immaturity,1,,,,,,,,,,,,,,,,,,,,,,,,,,,,,,,,,,,,,,
,,,,,,,,,,,,,,,89775,001,2022-04-26_22h50.38.689,SPAMnetsValid,2021.1.4,Win32,60.0132029,,,,,,,,,,,,,,,,,,,,,,,,,,,,,,,,,,,,,,3,5.4012,0,22,22,22,1,clabber,rejoice,gossip,curdle,crow,hobble,3,,,,,,,,,,,,,,,,,,,,,,,,,,,,,,,,,,,,,,
,,,,,,,,,,,,,,,89775,001,2022-04-26_22h50.38.689,SPAMnetsValid,2021.1.4,Win32,60.0132029,,,,,,,,,,,,,,,,,,,,,,,,,,,,,,,,,,,,,,4,15.8426,0,23,23,23,1,sedulousness,diligence,credulousness,seduction,perilousness,frankness,1,,,,,,,,,,,,,,,,,,,,,,,,,,,,,,,,,,,,,,
,,,,,,,,,,,,,,,89775,001,2022-04-26_22h50.38.689,SPAMnetsValid,2021.1.4,Win32,60.0132029,,,,,,,,,,,,,,,,,,,,,,,,,,,,,,,,,,,,,,,,,,,,,,,,,,,,get water,bucket,0,0,0,0,1,,,,,,,,,,,,,,,,,,,,,,,,,,,,,,,
,,,,,,,,,,,,,,,89775,001,2022-04-26_22h50.38.689,SPAMnetsValid,2021.1.4,Win32,60.0132029,,,,,,,,,,,,,,,,,,,,,,,,,,,,,,,,,,,,,,,,,,,,,,,,,,,,help a leak,bucket,1,0,1,0,1,,,,,,,,,,,,,,,,,,,,,,,,,,,,,,,
,,,,,,,,,,,,,,,89775,001,2022-04-26_22h50.38.689,SPAMnetsValid,2021.1.4,Win32,60.0132029,,,,,,,,,,,,,,,,,,,,,,,,,,,,,,,,,,,,,,,,,,,,,,,,,,,,mop,bucket,2,0,2,0,1,,,,,,,,,,,,,,,,,,,,,,,,,,,,,,,
,,,,,,,,,,,,,,,89775,001,2022-04-26_22h50.38.689,SPAMnetsValid,2021.1.4,Win32,60.0132029,,,,,,,,,,,,,,,,,,,,,,,,,,,,,,,,,,,,,,,,,,,,,,,,,,,,wash a dog,bucket,3,0,3,0,1,,,,,,,,,,,,,,,,,,,,,,,,,,,,,,,
,,,,,,,,,,,,,,,89775,001,2022-04-26_22h50.38.689,SPAMnetsValid,2021.1.4,Win32,60.0132029,,,,,,,,,,,,,,,,,,,,,,,,,,,,,,,,,,,,,,,,,,,,,,,,,,,,sandcastle,bucket,4,0,4,0,1,,,,,,,,,,,,,,,,,,,,,,,,,,,,,,,
,,,,,,,,,,,,,,,89775,001,2022-04-26_22h50.38.689,SPAMnetsValid,2021.1.4,Win32,60.0132029,,,,,,,,,,,,,,,,,,,,,,,,,,,,,,,,,,,,,,,,,,,,,,,,,,,,store liquid,bucket,5,0,5,0,1,,,,,,,,,,,,,,,,,,,,,,,,,,,,,,,
,,,,,,,,,,,,,,,89775,001,2022-04-26_22h50.38.689,SPAMnetsValid,2021.1.4,Win32,60.0132029,,,,,,,,,,,,,,,,,,,,,,,,,,,,,,,,,,,,,,,,,,,,,,,,,,,,cooler with ice,bucket,6,0,6,0,1,,,,,,,,,,,,,,,,,,,,,,,,,,,,,,,
,,,,,,,,,,,,,,,89775,001,2022-04-26_22h50.38.689,SPAMnetsValid,2021.1.4,Win32,60.0132029,,,,,,,,,,,,,,,,,,,,,,,,,,,,,,,,,,,,,,,,,,,,,,,,,,,,hat,bucket,7,0,7,0,1,,,,,,,,,,,,,,,,,,,,,,,,,,,,,,,
,,,,,,,,,,,,,,,89775,001,2022-04-26_22h50.38.689,SPAMnetsValid,2021.1.4,Win32,60.0132029,,,,,,,,,,,,,,,,,,,,,,,,,,,,,,,,,,,,,,,,,,,,,,,,,,,,,,,,,,,0,0,0,0,1,bucket,,,,,,,,,,,,,,,,,,,,,,,,,
,,,,,,,,,,,,,,,89775,001,2022-04-26_22h50.38.689,SPAMnetsValid,2021.1.4,Win32,60.0132029,,,,,,,,,,,,,,,,,,,,,,,,,,,,,,,,,,,,,,,,,,,,,,,,,,,,sleep,pillow,0,0,0,0,1,,,,,,,,,,,,,,,,,,,,,,,,,,,,,,,
,,,,,,,,,,,,,,,89775,001,2022-04-26_22h50.38.689,SPAMnetsValid,2021.1.4,Win32,60.0132029,,,,,,,,,,,,,,,,,,,,,,,,,,,,,,,,,,,,,,,,,,,,,,,,,,,,fight,pillow,1,0,1,0,1,,,,,,,,,,,,,,,,,,,,,,,,,,,,,,,
,,,,,,,,,,,,,,,89775,001,2022-04-26_22h50.38.689,SPAMnetsValid,2021.1.4,Win32,60.0132029,,,,,,,,,,,,,,,,,,,,,,,,,,,,,,,,,,,,,,,,,,,,,,,,,,,,elevate feet,pillow,2,0,2,0,1,,,,,,,,,,,,,,,,,,,,,,,,,,,,,,,
,,,,,,,,,,,,,,,89775,001,2022-04-26_22h50.38.689,SPAMnetsValid,2021.1.4,Win32,60.0132029,,,,,,,,,,,,,,,,,,,,,,,,,,,,,,,,,,,,,,,,,,,,,,,,,,,,arm rest,pillow,3,0,3,0,1,,,,,,,,,,,,,,,,,,,,,,,,,,,,,,,
,,,,,,,,,,,,,,,89775,001,2022-04-26_22h50.38.689,SPAMnetsValid,2021.1.4,Win32,60.0132029,,,,,,,,,,,,,,,,,,,,,,,,,,,,,,,,,,,,,,,,,,,,,,,,,,,,stack them,pillow,4,0,4,0,1,,,,,,,,,,,,,,,,,,,,,,,,,,,,,,,
,,,,,,,,,,,,,,,89775,001,2022-04-26_22h50.38.689,SPAMnetsValid,2021.1.4,Win32,60.0132029,,,,,,,,,,,,,,,,,,,,,,,,,,,,,,,,,,,,,,,,,,,,,,,,,,,,block light from a window,pillow,5,0,5,0,1,,,,,,,,,,,,,,,,,,,,,,,,,,,,,,,
,,,,,,,,,,,,,,,89775,001,2022-04-26_22h50.38.689,SPAMnetsValid,2021.1.4,Win32,60.0132029,,,,,,,,,,,,,,,,,,,,,,,,,,,,,,,,,,,,,,,,,,,,,,,,,,,,stuff crack between bed and wall,pillow,6,0,6,0,1,,,,,,,,,,,,,,,,,,,,,,,,,,,,,,,
,,,,,,,,,,,,,,,89775,001,2022-04-26_22h50.38.689,SPAMnetsValid,2021.1.4,Win32,60.0132029,,,,,,,,,,,,,,,,,,,,,,,,,,,,,,,,,,,,,,,,,,,,,,,,,,,,stool for an inch or two,pillow,7,0,7,0,1,,,,,,,,,,,,,,,,,,,,,,,,,,,,,,,
,,,,,,,,,,,,,,,89775,001,2022-04-26_22h50.38.689,SPAMnetsValid,2021.1.4,Win32,60.0132029,,,,,,,,,,,,,,,,,,,,,,,,,,,,,,,,,,,,,,,,,,,,,,,,,,,,,,,,,,,0,1,1,2,1,pillow,,,,,,,,,,,,,,,,,,,,,,,,,
,,,,,,,,,,,,,,,89775,001,2022-04-26_22h50.38.689,SPAMnetsValid,2021.1.4,Win32,60.0132029,,,,,,,,,,,,,,,,,,,,,,,,,,,,,,,,,,,,,,,,,,,,,,,,,,,,light ,candle,0,0,0,0,1,,,,,,,,,,,,,,,,,,,,,,,,,,,,,,,
,,,,,,,,,,,,,,,89775,001,2022-04-26_22h50.38.689,SPAMnetsValid,2021.1.4,Win32,60.0132029,,,,,,,,,,,,,,,,,,,,,,,,,,,,,,,,,,,,,,,,,,,,,,,,,,,,heat wax to close a letter,candle,1,0,1,0,1,,,,,,,,,,,,,,,,,,,,,,,,,,,,,,,
,,,,,,,,,,,,,,,89775,001,2022-04-26_22h50.38.689,SPAMnetsValid,2021.1.4,Win32,60.0132029,,,,,,,,,,,,,,,,,,,,,,,,,,,,,,,,,,,,,,,,,,,,,,,,,,,,light a fire,candle,2,0,2,0,1,,,,,,,,,,,,,,,,,,,,,,,,,,,,,,,
,,,,,,,,,,,,,,,89775,001,2022-04-26_22h50.38.689,SPAMnetsValid,2021.1.4,Win32,60.0132029,,,,,,,,,,,,,,,,,,,,,,,,,,,,,,,,,,,,,,,,,,,,,,,,,,,,light another candle,candle,3,0,3,0,1,,,,,,,,,,,,,,,,,,,,,,,,,,,,,,,
,,,,,,,,,,,,,,,89775,001,2022-04-26_22h50.38.689,SPAMnetsValid,2021.1.4,Win32,60.0132029,,,,,,,,,,,,,,,,,,,,,,,,,,,,,,,,,,,,,,,,,,,,,,,,,,,,change scent of room,candle,4,0,4,0,1,,,,,,,,,,,,,,,,,,,,,,,,,,,,,,,
,,,,,,,,,,,,,,,89775,001,2022-04-26_22h50.38.689,SPAMnetsValid,2021.1.4,Win32,60.0132029,,,,,,,,,,,,,,,,,,,,,,,,,,,,,,,,,,,,,,,,,,,,,,,,,,,,allow someone to see from far away,candle,5,0,5,0,1,,,,,,,,,,,,,,,,,,,,,,,,,,,,,,,
,,,,,,,,,,,,,,,89775,001,2022-04-26_22h50.38.689,SPAMnetsValid,2021.1.4,Win32,60.0132029,,,,,,,,,,,,,,,,,,,,,,,,,,,,,,,,,,,,,,,,,,,,,,,,,,,,romantic dinner,candle,6,0,6,0,1,,,,,,,,,,,,,,,,,,,,,,,,,,,,,,,
,,,,,,,,,,,,,,,89775,001,2022-04-26_22h50.38.689,SPAMnetsValid,2021.1.4,Win32,60.0132029,,,,,,,,,,,,,,,,,,,,,,,,,,,,,,,,,,,,,,,,,,,,,,,,,,,,gift,candle,7,0,7,0,1,,,,,,,,,,,,,,,,,,,,,,,,,,,,,,,
,,,,,,,,,,,,,,,89775,001,2022-04-26_22h50.38.689,SPAMnetsValid,2021.1.4,Win32,60.0132029,,,,,,,,,,,,,,,,,,,,,,,,,,,,,,,,,,,,,,,,,,,,,,,,,,,,,,,,,,,0,2,2,1,1,candle,,,,,,,,,,,,,,,,,,,,,,,,,
,,,,,,,,,,,,,,,89775,001,2022-04-26_22h50.38.689,SPAMnetsValid,2021.1.4,Win32,60.0132029,,,,,,,,,,,,,,,,,,,,,,,,,,,,,,,,,,,,,,,,,,,,,,,,,,,,,,,,,,,,,,,,,elephant,Animals,0,0,0,0,1,,,,,,,,,,,,,,,,,,
,,,,,,,,,,,,,,,89775,001,2022-04-26_22h50.38.689,SPAMnetsValid,2021.1.4,Win32,60.0132029,,,,,,,,,,,,,,,,,,,,,,,,,,,,,,,,,,,,,,,,,,,,,,,,,,,,,,,,,,,,,,,,,lion,Animals,1,0,1,0,1,,,,,,,,,,,,,,,,,,
,,,,,,,,,,,,,,,89775,001,2022-04-26_22h50.38.689,SPAMnetsValid,2021.1.4,Win32,60.0132029,,,,,,,,,,,,,,,,,,,,,,,,,,,,,,,,,,,,,,,,,,,,,,,,,,,,,,,,,,,,,,,,,tiger,Animals,2,0,2,0,1,,,,,,,,,,,,,,,,,,
,,,,,,,,,,,,,,,89775,001,2022-04-26_22h50.38.689,SPAMnetsValid,2021.1.4,Win32,60.0132029,,,,,,,,,,,,,,,,,,,,,,,,,,,,,,,,,,,,,,,,,,,,,,,,,,,,,,,,,,,,,,,,,dog,Animals,3,0,3,0,1,,,,,,,,,,,,,,,,,,
,,,,,,,,,,,,,,,89775,001,2022-04-26_22h50.38.689,SPAMnetsValid,2021.1.4,Win32,60.0132029,,,,,,,,,,,,,,,,,,,,,,,,,,,,,,,,,,,,,,,,,,,,,,,,,,,,,,,,,,,,,,,,,cat,Animals,4,0,4,0,1,,,,,,,,,,,,,,,,,,
,,,,,,,,,,,,,,,89775,001,2022-04-26_22h50.38.689,SPAMnetsValid,2021.1.4,Win32,60.0132029,,,,,,,,,,,,,,,,,,,,,,,,,,,,,,,,,,,,,,,,,,,,,,,,,,,,,,,,,,,,,,,,,sheep,Animals,5,0,5,0,1,,,,,,,,,,,,,,,,,,
,,,,,,,,,,,,,,,89775,001,2022-04-26_22h50.38.689,SPAMnetsValid,2021.1.4,Win32,60.0132029,,,,,,,,,,,,,,,,,,,,,,,,,,,,,,,,,,,,,,,,,,,,,,,,,,,,,,,,,,,,,,,,,cow,Animals,6,0,6,0,1,,,,,,,,,,,,,,,,,,
,,,,,,,,,,,,,,,89775,001,2022-04-26_22h50.38.689,SPAMnetsValid,2021.1.4,Win32,60.0132029,,,,,,,,,,,,,,,,,,,,,,,,,,,,,,,,,,,,,,,,,,,,,,,,,,,,,,,,,,,,,,,,,pig,Animals,7,0,7,0,1,,,,,,,,,,,,,,,,,,
,,,,,,,,,,,,,,,89775,001,2022-04-26_22h50.38.689,SPAMnetsValid,2021.1.4,Win32,60.0132029,,,,,,,,,,,,,,,,,,,,,,,,,,,,,,,,,,,,,,,,,,,,,,,,,,,,,,,,,,,,,,,,,rhino,Animals,8,0,8,0,1,,,,,,,,,,,,,,,,,,
,,,,,,,,,,,,,,,89775,001,2022-04-26_22h50.38.689,SPAMnetsValid,2021.1.4,Win32,60.0132029,,,,,,,,,,,,,,,,,,,,,,,,,,,,,,,,,,,,,,,,,,,,,,,,,,,,,,,,,,,,,,,,,hippo,Animals,9,0,9,0,1,,,,,,,,,,,,,,,,,,
,,,,,,,,,,,,,,,89775,001,2022-04-26_22h50.38.689,SPAMnetsValid,2021.1.4,Win32,60.0132029,,,,,,,,,,,,,,,,,,,,,,,,,,,,,,,,,,,,,,,,,,,,,,,,,,,,,,,,,,,,,,,,,zebra,Animals,10,0,10,0,1,,,,,,,,,,,,,,,,,,
,,,,,,,,,,,,,,,89775,001,2022-04-26_22h50.38.689,SPAMnetsValid,2021.1.4,Win32,60.0132029,,,,,,,,,,,,,,,,,,,,,,,,,,,,,,,,,,,,,,,,,,,,,,,,,,,,,,,,,,,,,,,,,giraffe,Animals,11,0,11,0,1,,,,,,,,,,,,,,,,,,
,,,,,,,,,,,,,,,89775,001,2022-04-26_22h50.38.689,SPAMnetsValid,2021.1.4,Win32,60.0132029,,,,,,,,,,,,,,,,,,,,,,,,,,,,,,,,,,,,,,,,,,,,,,,,,,,,,,,,,,,,,,,,,dolphin,Animals,12,0,12,0,1,,,,,,,,,,,,,,,,,,
,,,,,,,,,,,,,,,89775,001,2022-04-26_22h50.38.689,SPAMnetsValid,2021.1.4,Win32,60.0132029,,,,,,,,,,,,,,,,,,,,,,,,,,,,,,,,,,,,,,,,,,,,,,,,,,,,,,,,,,,,,,,,,boar,Animals,13,0,13,0,1,,,,,,,,,,,,,,,,,,
,,,,,,,,,,,,,,,89775,001,2022-04-26_22h50.38.689,SPAMnetsValid,2021.1.4,Win32,60.0132029,,,,,,,,,,,,,,,,,,,,,,,,,,,,,,,,,,,,,,,,,,,,,,,,,,,,,,,,,,,,,,,,,lamb,Animals,14,0,14,0,1,,,,,,,,,,,,,,,,,,
,,,,,,,,,,,,,,,89775,001,2022-04-26_22h50.38.689,SPAMnetsValid,2021.1.4,Win32,60.0132029,,,,,,,,,,,,,,,,,,,,,,,,,,,,,,,,,,,,,,,,,,,,,,,,,,,,,,,,,,,,,,,,,chicken,Animals,15,0,15,0,1,,,,,,,,,,,,,,,,,,
,,,,,,,,,,,,,,,89775,001,2022-04-26_22h50.38.689,SPAMnetsValid,2021.1.4,Win32,60.0132029,,,,,,,,,,,,,,,,,,,,,,,,,,,,,,,,,,,,,,,,,,,,,,,,,,,,,,,,,,,,,,,,,duck,Animals,16,0,16,0,1,,,,,,,,,,,,,,,,,,
,,,,,,,,,,,,,,,89775,001,2022-04-26_22h50.38.689,SPAMnetsValid,2021.1.4,Win32,60.0132029,,,,,,,,,,,,,,,,,,,,,,,,,,,,,,,,,,,,,,,,,,,,,,,,,,,,,,,,,,,,,,,,,bear,Animals,17,0,17,0,1,,,,,,,,,,,,,,,,,,
,,,,,,,,,,,,,,,89775,001,2022-04-26_22h50.38.689,SPAMnetsValid,2021.1.4,Win32,60.0132029,,,,,,,,,,,,,,,,,,,,,,,,,,,,,,,,,,,,,,,,,,,,,,,,,,,,,,,,,,,,,,,,,polar bear,Animals,18,0,18,0,1,,,,,,,,,,,,,,,,,,
,,,,,,,,,,,,,,,89775,001,2022-04-26_22h50.38.689,SPAMnetsValid,2021.1.4,Win32,60.0132029,,,,,,,,,,,,,,,,,,,,,,,,,,,,,,,,,,,,,,,,,,,,,,,,,,,,,,,,,,,,,,,,,penguin,Animals,19,0,19,0,1,,,,,,,,,,,,,,,,,,
,,,,,,,,,,,,,,,89775,001,2022-04-26_22h50.38.689,SPAMnetsValid,2021.1.4,Win32,60.0132029,,,,,,,,,,,,,,,,,,,,,,,,,,,,,,,,,,,,,,,,,,,,,,,,,,,,,,,,,,,,,,,,,koala,Animals,20,0,20,0,1,,,,,,,,,,,,,,,,,,
,,,,,,,,,,,,,,,89775,001,2022-04-26_22h50.38.689,SPAMnetsValid,2021.1.4,Win32,60.0132029,,,,,,,,,,,,,,,,,,,,,,,,,,,,,,,,,,,,,,,,,,,,,,,,,,,,,,,,,,,,,,,,,kangaroo,Animals,21,0,21,0,1,,,,,,,,,,,,,,,,,,
,,,,,,,,,,,,,,,89775,001,2022-04-26_22h50.38.689,SPAMnetsValid,2021.1.4,Win32,60.0132029,,,,,,,,,,,,,,,,,,,,,,,,,,,,,,,,,,,,,,,,,,,,,,,,,,,,,,,,,,,,,,,,,wombat,Animals,22,0,22,0,1,,,,,,,,,,,,,,,,,,
,,,,,,,,,,,,,,,89775,001,2022-04-26_22h50.38.689,SPAMnetsValid,2021.1.4,Win32,60.0132029,,,,,,,,,,,,,,,,,,,,,,,,,,,,,,,,,,,,,,,,,,,,,,,,,,,,,,,,,,,,,,,,,lemur,Animals,23,0,23,0,1,,,,,,,,,,,,,,,,,,
,,,,,,,,,,,,,,,89775,001,2022-04-26_22h50.38.689,SPAMnetsValid,2021.1.4,Win32,60.0132029,,,,,,,,,,,,,,,,,,,,,,,,,,,,,,,,,,,,,,,,,,,,,,,,,,,,,,,,,,,,,,,,,antelope,Animals,24,0,24,0,1,,,,,,,,,,,,,,,,,,
,,,,,,,,,,,,,,,89775,001,2022-04-26_22h50.38.689,SPAMnetsValid,2021.1.4,Win32,60.0132029,,,,,,,,,,,,,,,,,,,,,,,,,,,,,,,,,,,,,,,,,,,,,,,,,,,,,,,,,,,,,,,,,deer,Animals,25,0,25,0,1,,,,,,,,,,,,,,,,,,
,,,,,,,,,,,,,,,89775,001,2022-04-26_22h50.38.689,SPAMnetsValid,2021.1.4,Win32,60.0132029,,,,,,,,,,,,,,,,,,,,,,,,,,,,,,,,,,,,,,,,,,,,,,,,,,,,,,,,,,,,,,,,,moose,Animals,26,0,26,0,1,,,,,,,,,,,,,,,,,,
,,,,,,,,,,,,,,,89775,001,2022-04-26_22h50.38.689,SPAMnetsValid,2021.1.4,Win32,60.0132029,,,,,,,,,,,,,,,,,,,,,,,,,,,,,,,,,,,,,,,,,,,,,,,,,,,,,,,,,,,,,,,,,goose,Animals,27,0,27,0,1,,,,,,,,,,,,,,,,,,
,,,,,,,,,,,,,,,89775,001,2022-04-26_22h50.38.689,SPAMnetsValid,2021.1.4,Win32,60.0132029,,,,,,,,,,,,,,,,,,,,,,,,,,,,,,,,,,,,,,,,,,,,,,,,,,,,,,,,,,,,,,,,,gazelle,Animals,28,0,28,0,1,,,,,,,,,,,,,,,,,,
,,,,,,,,,,,,,,,89775,001,2022-04-26_22h50.38.689,SPAMnetsValid,2021.1.4,Win32,60.0132029,,,,,,,,,,,,,,,,,,,,,,,,,,,,,,,,,,,,,,,,,,,,,,,,,,,,,,,,,,,,,,,,,panther,Animals,29,0,29,0,1,,,,,,,,,,,,,,,,,,
,,,,,,,,,,,,,,,89775,001,2022-04-26_22h50.38.689,SPAMnetsValid,2021.1.4,Win32,60.0132029,,,,,,,,,,,,,,,,,,,,,,,,,,,,,,,,,,,,,,,,,,,,,,,,,,,,,,,,,,,,,,,,,monkey,Animals,30,0,30,0,1,,,,,,,,,,,,,,,,,,
,,,,,,,,,,,,,,,89775,001,2022-04-26_22h50.38.689,SPAMnetsValid,2021.1.4,Win32,60.0132029,,,,,,,,,,,,,,,,,,,,,,,,,,,,,,,,,,,,,,,,,,,,,,,,,,,,,,,,,,,,,,,,,chimp,Animals,31,0,31,0,1,,,,,,,,,,,,,,,,,,
,,,,,,,,,,,,,,,89775,001,2022-04-26_22h50.38.689,SPAMnetsValid,2021.1.4,Win32,60.0132029,,,,,,,,,,,,,,,,,,,,,,,,,,,,,,,,,,,,,,,,,,,,,,,,,,,,,,,,,,,,,,,,,,,,,,,,0,0,0,0,1,Animals,,,,,,,,,,,,
,,,,,,,,,,,,,,,89775,001,2022-04-26_22h50.38.689,SPAMnetsValid,2021.1.4,Win32,60.0132029,,,,,,,,,,,,,,,,,,,,,,,,,,,,,,,,,,,,,,,,,,,,,,,,,,,,,,,,,,,,,,,,,,,,,,,,,,,,,,5,5.0349,0,0,0,0,1,"I enjoy concentrating on a fantasy or daydream and exploring all its possibilities, letting it grow and develop.",0,1,,
,,,,,,,,,,,,,,,89775,001,2022-04-26_22h50.38.689,SPAMnetsValid,2021.1.4,Win32,60.0132029,,,,,,,,,,,,,,,,,,,,,,,,,,,,,,,,,,,,,,,,,,,,,,,,,,,,,,,,,,,,,,,,,,,,,,,,,,,,,,5,3.542,0,1,1,1,1,I think it's interesting to learn and develop new hobbies.,0,2,,
,,,,,,,,,,,,,,,89775,001,2022-04-26_22h50.38.689,SPAMnetsValid,2021.1.4,Win32,60.0132029,,,,,,,,,,,,,,,,,,,,,,,,,,,,,,,,,,,,,,,,,,,,,,,,,,,,,,,,,,,,,,,,,,,,,,,,,,,,,,4,2.5325,0,2,2,2,1,I am intrigued by the patterns I find in art and nature.,0,3,,
,,,,,,,,,,,,,,,89775,001,2022-04-26_22h50.38.689,SPAMnetsValid,2021.1.4,Win32,60.0132029,,,,,,,,,,,,,,,,,,,,,,,,,,,,,,,,,,,,,,,,,,,,,,,,,,,,,,,,,,,,,,,,,,,,,,,,,,,,,,1,3.7769,0,3,3,3,1,I believe letting students hear controversial speakers can only confuse and mislead them.,1,4,,
,,,,,,,,,,,,,,,89775,001,2022-04-26_22h50.38.689,SPAMnetsValid,2021.1.4,Win32,60.0132029,,,,,,,,,,,,,,,,,,,,,,,,,,,,,,,,,,,,,,,,,,,,,,,,,,,,,,,,,,,,,,,,,,,,,,,,,,,,,,4,2.7492,0,4,4,4,1,Poetry has little or no effect on me.,1,5,,
,,,,,,,,,,,,,,,89775,001,2022-04-26_22h50.38.689,SPAMnetsValid,2021.1.4,Win32,60.0132029,,,,,,,,,,,,,,,,,,,,,,,,,,,,,,,,,,,,,,,,,,,,,,,,,,,,,,,,,,,,,,,,,,,,,,,,,,,,,,2,3.774,0,5,5,5,1,I would have difficulty just letting my mind wander without control or guidance.,1,6,,
,,,,,,,,,,,,,,,89775,001,2022-04-26_22h50.38.689,SPAMnetsValid,2021.1.4,Win32,60.0132029,,,,,,,,,,,,,,,,,,,,,,,,,,,,,,,,,,,,,,,,,,,,,,,,,,,,,,,,,,,,,,,,,,,,,,,,,,,,,,1,5.8092,0,6,6,6,1,I seldom notice the moods or feelings that different environments produce.,1,7,,
,,,,,,,,,,,,,,,89775,001,2022-04-26_22h50.38.689,SPAMnetsValid,2021.1.4,Win32,60.0132029,,,,,,,,,,,,,,,,,,,,,,,,,,,,,,,,,,,,,,,,,,,,,,,,,,,,,,,,,,,,,,,,,,,,,,,,,,,,,,5,1.9752,0,7,7,7,1,I experience a wide range of emotions or feelings.,0,8,,
,,,,,,,,,,,,,,,89775,001,2022-04-26_22h50.38.689,SPAMnetsValid,2021.1.4,Win32,60.0132029,,,,,,,,,,,,,,,,,,,,,,,,,,,,,,,,,,,,,,,,,,,,,,,,,,,,,,,,,,,,,,,,,,,,,,,,,,,,,,1,3.675,0,8,8,8,1,"Sometimes when I am reading poetry or looking at a work of art, I feel a chill or wave of excitement.",0,9,,
,,,,,,,,,,,,,,,89775,001,2022-04-26_22h50.38.689,SPAMnetsValid,2021.1.4,Win32,60.0132029,,,,,,,,,,,,,,,,,,,,,,,,,,,,,,,,,,,,,,,,,,,,,,,,,,,,,,,,,,,,,,,,,,,,,,,,,,,,,,2,3.6947,0,9,9,9,1,I have little interest in speculating on the nature of the universe or the human condition.,1,10,,
,,,,,,,,,,,,,,,89775,001,2022-04-26_22h50.38.689,SPAMnetsValid,2021.1.4,Win32,60.0132029,,,,,,,,,,,,,,,,,,,,,,,,,,,,,,,,,,,,,,,,,,,,,,,,,,,,,,,,,,,,,,,,,,,,,,,,,,,,,,5,2.8781,0,10,10,10,1,I have a lot of intellectual curiosity.,0,11,,
,,,,,,,,,,,,,,,89775,001,2022-04-26_22h50.38.689,SPAMnetsValid,2021.1.4,Win32,60.0132029,,,,,,,,,,,,,,,,,,,,,,,,,,,,,,,,,,,,,,,,,,,,,,,,,,,,,,,,,,,,,,,,,,,,,,,,,,,,,,2,2.5887,0,11,11,11,1,I often enjoy playing with theories or abstract ideas.,0,12,,
,,,,,,,,,,,,,,,89775,001,2022-04-26_22h50.38.689,SPAMnetsValid,2021.1.4,Win32,60.0132029,,,,,,,,,,,,,,,,,,,,,,,,,,,,,,,,,,,,,,,,,,,,,,,,,,,,,,,,,,,,,,,,,,,,,,,,,,,,,,,,,,,,,,,,return,6.9868
