key_resp_3.keys,key_resp_3.rt,slider.response,slider.rt,rjt_rating,rjt_RT,trials_22.thisRepN,trials_22.thisTrialN,trials_22.thisN,trials_22.thisIndex,trials_22.ran,rjt_order,word1,word2,attention,participant,session,date,expName,psychopyVersion,OS,frameRate,trials_99.thisRepN,trials_99.thisTrialN,trials_99.thisN,trials_99.thisIndex,trials_99.ran,trials_5.thisRepN,trials_5.thisTrialN,trials_5.thisN,trials_5.thisIndex,trials_5.ran,repOne,repTwo,slider_2.response,slider_2.rt,trials_24.thisRepN,trials_24.thisTrialN,trials_24.thisN,trials_24.thisIndex,trials_24.ran,trials_4.thisRepN,trials_4.thisTrialN,trials_4.thisN,trials_4.thisIndex,trials_4.ran,slider_extend_2.response,slider_extend_2.rt,trials_6.thisRepN,trials_6.thisTrialN,trials_6.thisN,trials_6.thisIndex,trials_6.ran,vCue2,R1,R2,R3,R4,correct,sliderVocab.response,sliderVocab.rt,trials_7.thisRepN,trials_7.thisTrialN,trials_7.thisN,trials_7.thisIndex,trials_7.ran,VocabCue,VR1,VR2,VR3,VR4,VR5,VocabCorrect,AUT_resp,AUT_label,trials.thisRepN,trials.thisTrialN,trials.thisN,trials.thisIndex,trials.ran,trials_2.thisRepN,trials_2.thisTrialN,trials_2.thisN,trials_2.thisIndex,trials_2.ran,aut_prompt,VF_response,VF_tag,trials_16.thisRepN,trials_16.thisTrialN,trials_16.thisN,trials_16.thisIndex,trials_16.ran,trials_17.thisRepN,trials_17.thisTrialN,trials_17.thisN,trials_17.thisIndex,trials_17.ran,VFcond,open_slider.response,open_slider.rt,trials_3.thisRepN,trials_3.thisTrialN,trials_3.thisN,trials_3.thisIndex,trials_3.ran,OpenQ,Rev,OPEN_ORDER,key_resp_2.keys,key_resp_2.rt
return,11.6671,6,5.6484,6,5.6484,0,0,0,21,1,56,cactus,tree,,89790,001,2022-04-29_12h01.09.462,SPAMnetsValid,2021.1.4,Win32,60.07088364,,,,,,,,,,,,,,,,,,,,,,,,,,,,,,,,,,,,,,,,,,,,,,,,,,,,,,,,,,,,,,,,,,,,,,,,,,,,,,,,,,,,,,,,,
,,3,4.2405,3,4.2405,0,1,1,63,1,21,cake,onion,,89790,001,2022-04-29_12h01.09.462,SPAMnetsValid,2021.1.4,Win32,60.07088364,,,,,,,,,,,,,,,,,,,,,,,,,,,,,,,,,,,,,,,,,,,,,,,,,,,,,,,,,,,,,,,,,,,,,,,,,,,,,,,,,,,,,,,,,
,,4,4.1616,4,4.1616,0,2,2,42,1,77,refrigerator,yogurt,,89790,001,2022-04-29_12h01.09.462,SPAMnetsValid,2021.1.4,Win32,60.07088364,,,,,,,,,,,,,,,,,,,,,,,,,,,,,,,,,,,,,,,,,,,,,,,,,,,,,,,,,,,,,,,,,,,,,,,,,,,,,,,,,,,,,,,,,
,,1,2.2785,1,2.2785,0,3,3,56,1,78,cookie,rose,,89790,001,2022-04-29_12h01.09.462,SPAMnetsValid,2021.1.4,Win32,60.07088364,,,,,,,,,,,,,,,,,,,,,,,,,,,,,,,,,,,,,,,,,,,,,,,,,,,,,,,,,,,,,,,,,,,,,,,,,,,,,,,,,,,,,,,,,
,,1,2.8557,1,2.8557,0,4,4,29,1,42,garden,kitchen,,89790,001,2022-04-29_12h01.09.462,SPAMnetsValid,2021.1.4,Win32,60.07088364,,,,,,,,,,,,,,,,,,,,,,,,,,,,,,,,,,,,,,,,,,,,,,,,,,,,,,,,,,,,,,,,,,,,,,,,,,,,,,,,,,,,,,,,,
,,6,2.4534,6,2.4534,0,5,5,6,1,87,carrot,yogurt,,89790,001,2022-04-29_12h01.09.462,SPAMnetsValid,2021.1.4,Win32,60.07088364,,,,,,,,,,,,,,,,,,,,,,,,,,,,,,,,,,,,,,,,,,,,,,,,,,,,,,,,,,,,,,,,,,,,,,,,,,,,,,,,,,,,,,,,,
,,8,1.759,8,1.759,0,6,6,82,1,93,kitchen,oven,,89790,001,2022-04-29_12h01.09.462,SPAMnetsValid,2021.1.4,Win32,60.07088364,,,,,,,,,,,,,,,,,,,,,,,,,,,,,,,,,,,,,,,,,,,,,,,,,,,,,,,,,,,,,,,,,,,,,,,,,,,,,,,,,,,,,,,,,
,,2,2.3933,2,2.3933,0,7,7,22,1,16,chocolate,flower,,89790,001,2022-04-29_12h01.09.462,SPAMnetsValid,2021.1.4,Win32,60.07088364,,,,,,,,,,,,,,,,,,,,,,,,,,,,,,,,,,,,,,,,,,,,,,,,,,,,,,,,,,,,,,,,,,,,,,,,,,,,,,,,,,,,,,,,,
,,5,7.7023,5,7.7023,0,8,8,2,1,22,kitchen,strawberry,,89790,001,2022-04-29_12h01.09.462,SPAMnetsValid,2021.1.4,Win32,60.07088364,,,,,,,,,,,,,,,,,,,,,,,,,,,,,,,,,,,,,,,,,,,,,,,,,,,,,,,,,,,,,,,,,,,,,,,,,,,,,,,,,,,,,,,,,
,,1,1.9367,1,1.9367,0,9,9,14,1,64,chocolate,garden,,89790,001,2022-04-29_12h01.09.462,SPAMnetsValid,2021.1.4,Win32,60.07088364,,,,,,,,,,,,,,,,,,,,,,,,,,,,,,,,,,,,,,,,,,,,,,,,,,,,,,,,,,,,,,,,,,,,,,,,,,,,,,,,,,,,,,,,,
,,1,2.2131,1,2.2131,0,10,10,4,1,83,broom,carrot,,89790,001,2022-04-29_12h01.09.462,SPAMnetsValid,2021.1.4,Win32,60.07088364,,,,,,,,,,,,,,,,,,,,,,,,,,,,,,,,,,,,,,,,,,,,,,,,,,,,,,,,,,,,,,,,,,,,,,,,,,,,,,,,,,,,,,,,,
,,8,1.8435,8,1.8435,0,11,11,51,1,47,onion,tomato,,89790,001,2022-04-29_12h01.09.462,SPAMnetsValid,2021.1.4,Win32,60.07088364,,,,,,,,,,,,,,,,,,,,,,,,,,,,,,,,,,,,,,,,,,,,,,,,,,,,,,,,,,,,,,,,,,,,,,,,,,,,,,,,,,,,,,,,,
,,5,3.2298,5,3.2298,0,12,12,67,1,54,chocolate,yogurt,,89790,001,2022-04-29_12h01.09.462,SPAMnetsValid,2021.1.4,Win32,60.07088364,,,,,,,,,,,,,,,,,,,,,,,,,,,,,,,,,,,,,,,,,,,,,,,,,,,,,,,,,,,,,,,,,,,,,,,,,,,,,,,,,,,,,,,,,
,,5,1.9037,5,1.9037,0,13,13,92,1,44,cookie,melon,,89790,001,2022-04-29_12h01.09.462,SPAMnetsValid,2021.1.4,Win32,60.07088364,,,,,,,,,,,,,,,,,,,,,,,,,,,,,,,,,,,,,,,,,,,,,,,,,,,,,,,,,,,,,,,,,,,,,,,,,,,,,,,,,,,,,,,,,
,,5,1.0454,5,1.0454,0,14,14,36,1,12,cookie,yogurt,,89790,001,2022-04-29_12h01.09.462,SPAMnetsValid,2021.1.4,Win32,60.07088364,,,,,,,,,,,,,,,,,,,,,,,,,,,,,,,,,,,,,,,,,,,,,,,,,,,,,,,,,,,,,,,,,,,,,,,,,,,,,,,,,,,,,,,,,
,,1,2.0416,1,2.0416,0,15,15,88,1,92,broom,flower,,89790,001,2022-04-29_12h01.09.462,SPAMnetsValid,2021.1.4,Win32,60.07088364,,,,,,,,,,,,,,,,,,,,,,,,,,,,,,,,,,,,,,,,,,,,,,,,,,,,,,,,,,,,,,,,,,,,,,,,,,,,,,,,,,,,,,,,,
,,1,4.6011,1,4.6011,0,16,16,17,1,27,cactus,cookie,,89790,001,2022-04-29_12h01.09.462,SPAMnetsValid,2021.1.4,Win32,60.07088364,,,,,,,,,,,,,,,,,,,,,,,,,,,,,,,,,,,,,,,,,,,,,,,,,,,,,,,,,,,,,,,,,,,,,,,,,,,,,,,,,,,,,,,,,
,,8,1.6694,8,1.6694,0,17,17,58,1,94,kitchen,microwave,,89790,001,2022-04-29_12h01.09.462,SPAMnetsValid,2021.1.4,Win32,60.07088364,,,,,,,,,,,,,,,,,,,,,,,,,,,,,,,,,,,,,,,,,,,,,,,,,,,,,,,,,,,,,,,,,,,,,,,,,,,,,,,,,,,,,,,,,
,,6,2.5395,6,2.5395,0,18,18,96,1,82,cake,kitchen,,89790,001,2022-04-29_12h01.09.462,SPAMnetsValid,2021.1.4,Win32,60.07088364,,,,,,,,,,,,,,,,,,,,,,,,,,,,,,,,,,,,,,,,,,,,,,,,,,,,,,,,,,,,,,,,,,,,,,,,,,,,,,,,,,,,,,,,,
,,2,2.137,2,2.137,0,19,19,38,1,88,cactus,melon,,89790,001,2022-04-29_12h01.09.462,SPAMnetsValid,2021.1.4,Win32,60.07088364,,,,,,,,,,,,,,,,,,,,,,,,,,,,,,,,,,,,,,,,,,,,,,,,,,,,,,,,,,,,,,,,,,,,,,,,,,,,,,,,,,,,,,,,,
,,1,3.4051,1,3.4051,0,20,20,39,1,15,onion,oven,,89790,001,2022-04-29_12h01.09.462,SPAMnetsValid,2021.1.4,Win32,60.07088364,,,,,,,,,,,,,,,,,,,,,,,,,,,,,,,,,,,,,,,,,,,,,,,,,,,,,,,,,,,,,,,,,,,,,,,,,,,,,,,,,,,,,,,,,
,,2,4.4196,2,4.4196,0,21,21,41,1,19,microwave,pretzel,,89790,001,2022-04-29_12h01.09.462,SPAMnetsValid,2021.1.4,Win32,60.07088364,,,,,,,,,,,,,,,,,,,,,,,,,,,,,,,,,,,,,,,,,,,,,,,,,,,,,,,,,,,,,,,,,,,,,,,,,,,,,,,,,,,,,,,,,
,,7,2.2699,7,2.2699,0,22,22,83,1,6,garden,onion,,89790,001,2022-04-29_12h01.09.462,SPAMnetsValid,2021.1.4,Win32,60.07088364,,,,,,,,,,,,,,,,,,,,,,,,,,,,,,,,,,,,,,,,,,,,,,,,,,,,,,,,,,,,,,,,,,,,,,,,,,,,,,,,,,,,,,,,,
,,2,4.6247,2,4.6247,0,23,23,8,1,43,chocolate,tomato,,89790,001,2022-04-29_12h01.09.462,SPAMnetsValid,2021.1.4,Win32,60.07088364,,,,,,,,,,,,,,,,,,,,,,,,,,,,,,,,,,,,,,,,,,,,,,,,,,,,,,,,,,,,,,,,,,,,,,,,,,,,,,,,,,,,,,,,,
,,1,2.869,1,2.869,0,24,24,18,1,85,cake,tree,,89790,001,2022-04-29_12h01.09.462,SPAMnetsValid,2021.1.4,Win32,60.07088364,,,,,,,,,,,,,,,,,,,,,,,,,,,,,,,,,,,,,,,,,,,,,,,,,,,,,,,,,,,,,,,,,,,,,,,,,,,,,,,,,,,,,,,,,
,,4,11.6846,4,11.6846,0,25,25,60,1,89,chocolate,rose,,89790,001,2022-04-29_12h01.09.462,SPAMnetsValid,2021.1.4,Win32,60.07088364,,,,,,,,,,,,,,,,,,,,,,,,,,,,,,,,,,,,,,,,,,,,,,,,,,,,,,,,,,,,,,,,,,,,,,,,,,,,,,,,,,,,,,,,,
,,2,13.199,2,13.199,0,26,26,66,1,20,rose,tree,,89790,001,2022-04-29_12h01.09.462,SPAMnetsValid,2021.1.4,Win32,60.07088364,,,,,,,,,,,,,,,,,,,,,,,,,,,,,,,,,,,,,,,,,,,,,,,,,,,,,,,,,,,,,,,,,,,,,,,,,,,,,,,,,,,,,,,,,
,,1,2.1831,1,2.1831,0,27,27,85,1,90,cactus,cake,,89790,001,2022-04-29_12h01.09.462,SPAMnetsValid,2021.1.4,Win32,60.07088364,,,,,,,,,,,,,,,,,,,,,,,,,,,,,,,,,,,,,,,,,,,,,,,,,,,,,,,,,,,,,,,,,,,,,,,,,,,,,,,,,,,,,,,,,
,,1,1.5256,1,1.5256,0,28,28,89,1,80,chocolate,tree,,89790,001,2022-04-29_12h01.09.462,SPAMnetsValid,2021.1.4,Win32,60.07088364,,,,,,,,,,,,,,,,,,,,,,,,,,,,,,,,,,,,,,,,,,,,,,,,,,,,,,,,,,,,,,,,,,,,,,,,,,,,,,,,,,,,,,,,,
,,1,1.9898,1,1.9898,0,29,29,77,1,7,melon,tree,,89790,001,2022-04-29_12h01.09.462,SPAMnetsValid,2021.1.4,Win32,60.07088364,,,,,,,,,,,,,,,,,,,,,,,,,,,,,,,,,,,,,,,,,,,,,,,,,,,,,,,,,,,,,,,,,,,,,,,,,,,,,,,,,,,,,,,,,
,,2,2.1932,2,2.1932,0,30,30,49,1,57,flower,kitchen,,89790,001,2022-04-29_12h01.09.462,SPAMnetsValid,2021.1.4,Win32,60.07088364,,,,,,,,,,,,,,,,,,,,,,,,,,,,,,,,,,,,,,,,,,,,,,,,,,,,,,,,,,,,,,,,,,,,,,,,,,,,,,,,,,,,,,,,,
,,1,1.6919,1,1.6919,0,31,31,61,1,71,broom,rose,,89790,001,2022-04-29_12h01.09.462,SPAMnetsValid,2021.1.4,Win32,60.07088364,,,,,,,,,,,,,,,,,,,,,,,,,,,,,,,,,,,,,,,,,,,,,,,,,,,,,,,,,,,,,,,,,,,,,,,,,,,,,,,,,,,,,,,,,
,,1,1.653,1,1.653,0,32,32,34,1,29,chocolate,melon,,89790,001,2022-04-29_12h01.09.462,SPAMnetsValid,2021.1.4,Win32,60.07088364,,,,,,,,,,,,,,,,,,,,,,,,,,,,,,,,,,,,,,,,,,,,,,,,,,,,,,,,,,,,,,,,,,,,,,,,,,,,,,,,,,,,,,,,,
,,1,1.3555,1,1.3555,0,33,33,31,1,33,oven,yogurt,,89790,001,2022-04-29_12h01.09.462,SPAMnetsValid,2021.1.4,Win32,60.07088364,,,,,,,,,,,,,,,,,,,,,,,,,,,,,,,,,,,,,,,,,,,,,,,,,,,,,,,,,,,,,,,,,,,,,,,,,,,,,,,,,,,,,,,,,
,,4,2.3099,4,2.3099,0,34,34,94,1,68,flower,tomato,,89790,001,2022-04-29_12h01.09.462,SPAMnetsValid,2021.1.4,Win32,60.07088364,,,,,,,,,,,,,,,,,,,,,,,,,,,,,,,,,,,,,,,,,,,,,,,,,,,,,,,,,,,,,,,,,,,,,,,,,,,,,,,,,,,,,,,,,
,,3,1.6542,3,1.6542,0,35,35,35,1,55,tomato,tree,,89790,001,2022-04-29_12h01.09.462,SPAMnetsValid,2021.1.4,Win32,60.07088364,,,,,,,,,,,,,,,,,,,,,,,,,,,,,,,,,,,,,,,,,,,,,,,,,,,,,,,,,,,,,,,,,,,,,,,,,,,,,,,,,,,,,,,,,
,,6,2.4442,6,2.4442,0,36,36,62,1,18,onion,refrigerator,,89790,001,2022-04-29_12h01.09.462,SPAMnetsValid,2021.1.4,Win32,60.07088364,,,,,,,,,,,,,,,,,,,,,,,,,,,,,,,,,,,,,,,,,,,,,,,,,,,,,,,,,,,,,,,,,,,,,,,,,,,,,,,,,,,,,,,,,
,,1,1.6004,1,1.6004,0,37,37,59,1,8,broom,melon,,89790,001,2022-04-29_12h01.09.462,SPAMnetsValid,2021.1.4,Win32,60.07088364,,,,,,,,,,,,,,,,,,,,,,,,,,,,,,,,,,,,,,,,,,,,,,,,,,,,,,,,,,,,,,,,,,,,,,,,,,,,,,,,,,,,,,,,,
,,4,2.3993,4,2.3993,0,38,38,52,1,4,chocolate,pretzel,,89790,001,2022-04-29_12h01.09.462,SPAMnetsValid,2021.1.4,Win32,60.07088364,,,,,,,,,,,,,,,,,,,,,,,,,,,,,,,,,,,,,,,,,,,,,,,,,,,,,,,,,,,,,,,,,,,,,,,,,,,,,,,,,,,,,,,,,
,,1,1.57,1,1.57,0,39,39,68,1,24,cookie,tomato,,89790,001,2022-04-29_12h01.09.462,SPAMnetsValid,2021.1.4,Win32,60.07088364,,,,,,,,,,,,,,,,,,,,,,,,,,,,,,,,,,,,,,,,,,,,,,,,,,,,,,,,,,,,,,,,,,,,,,,,,,,,,,,,,,,,,,,,,
,,1,1.5873,1,1.5873,0,40,40,1,1,31,cactus,pretzel,,89790,001,2022-04-29_12h01.09.462,SPAMnetsValid,2021.1.4,Win32,60.07088364,,,,,,,,,,,,,,,,,,,,,,,,,,,,,,,,,,,,,,,,,,,,,,,,,,,,,,,,,,,,,,,,,,,,,,,,,,,,,,,,,,,,,,,,,
,,4,1.7881,4,1.7881,0,41,41,50,1,81,pretzel,yogurt,,89790,001,2022-04-29_12h01.09.462,SPAMnetsValid,2021.1.4,Win32,60.07088364,,,,,,,,,,,,,,,,,,,,,,,,,,,,,,,,,,,,,,,,,,,,,,,,,,,,,,,,,,,,,,,,,,,,,,,,,,,,,,,,,,,,,,,,,
,,1,1.6335,1,1.6335,0,42,42,32,1,40,broom,cake,,89790,001,2022-04-29_12h01.09.462,SPAMnetsValid,2021.1.4,Win32,60.07088364,,,,,,,,,,,,,,,,,,,,,,,,,,,,,,,,,,,,,,,,,,,,,,,,,,,,,,,,,,,,,,,,,,,,,,,,,,,,,,,,,,,,,,,,,
,,1,1.2364,1,1.2364,0,43,43,7,1,34,melon,oven,,89790,001,2022-04-29_12h01.09.462,SPAMnetsValid,2021.1.4,Win32,60.07088364,,,,,,,,,,,,,,,,,,,,,,,,,,,,,,,,,,,,,,,,,,,,,,,,,,,,,,,,,,,,,,,,,,,,,,,,,,,,,,,,,,,,,,,,,
,,1,3.1534,1,3.1534,0,44,44,76,1,36,broom,kitchen,,89790,001,2022-04-29_12h01.09.462,SPAMnetsValid,2021.1.4,Win32,60.07088364,,,,,,,,,,,,,,,,,,,,,,,,,,,,,,,,,,,,,,,,,,,,,,,,,,,,,,,,,,,,,,,,,,,,,,,,,,,,,,,,,,,,,,,,,
,,9,1.5514,9,1.5514,0,45,45,53,1,192,microwave,microwave,CHECK,89790,001,2022-04-29_12h01.09.462,SPAMnetsValid,2021.1.4,Win32,60.07088364,,,,,,,,,,,,,,,,,,,,,,,,,,,,,,,,,,,,,,,,,,,,,,,,,,,,,,,,,,,,,,,,,,,,,,,,,,,,,,,,,,,,,,,,,
,,1,2.2747,1,2.2747,0,46,46,46,1,41,broom,cactus,,89790,001,2022-04-29_12h01.09.462,SPAMnetsValid,2021.1.4,Win32,60.07088364,,,,,,,,,,,,,,,,,,,,,,,,,,,,,,,,,,,,,,,,,,,,,,,,,,,,,,,,,,,,,,,,,,,,,,,,,,,,,,,,,,,,,,,,,
,,2,2.1853,2,2.1853,0,47,47,72,1,59,rose,strawberry,,89790,001,2022-04-29_12h01.09.462,SPAMnetsValid,2021.1.4,Win32,60.07088364,,,,,,,,,,,,,,,,,,,,,,,,,,,,,,,,,,,,,,,,,,,,,,,,,,,,,,,,,,,,,,,,,,,,,,,,,,,,,,,,,,,,,,,,,
,,1,1.5668,1,1.5668,0,48,48,84,1,91,microwave,rose,,89790,001,2022-04-29_12h01.09.462,SPAMnetsValid,2021.1.4,Win32,60.07088364,,,,,,,,,,,,,,,,,,,,,,,,,,,,,,,,,,,,,,,,,,,,,,,,,,,,,,,,,,,,,,,,,,,,,,,,,,,,,,,,,,,,,,,,,
,,2,5.0375,2,5.0375,0,49,49,3,1,49,flower,strawberry,,89790,001,2022-04-29_12h01.09.462,SPAMnetsValid,2021.1.4,Win32,60.07088364,,,,,,,,,,,,,,,,,,,,,,,,,,,,,,,,,,,,,,,,,,,,,,,,,,,,,,,,,,,,,,,,,,,,,,,,,,,,,,,,,,,,,,,,,
,,1,1.4128,1,1.4128,0,50,50,43,1,11,refrigerator,tree,,89790,001,2022-04-29_12h01.09.462,SPAMnetsValid,2021.1.4,Win32,60.07088364,,,,,,,,,,,,,,,,,,,,,,,,,,,,,,,,,,,,,,,,,,,,,,,,,,,,,,,,,,,,,,,,,,,,,,,,,,,,,,,,,,,,,,,,,
,,1,1.748,1,1.748,0,51,51,70,1,5,oven,tree,,89790,001,2022-04-29_12h01.09.462,SPAMnetsValid,2021.1.4,Win32,60.07088364,,,,,,,,,,,,,,,,,,,,,,,,,,,,,,,,,,,,,,,,,,,,,,,,,,,,,,,,,,,,,,,,,,,,,,,,,,,,,,,,,,,,,,,,,
,,1,1.3551,1,1.3551,0,52,52,0,1,53,garden,pretzel,,89790,001,2022-04-29_12h01.09.462,SPAMnetsValid,2021.1.4,Win32,60.07088364,,,,,,,,,,,,,,,,,,,,,,,,,,,,,,,,,,,,,,,,,,,,,,,,,,,,,,,,,,,,,,,,,,,,,,,,,,,,,,,,,,,,,,,,,
,,1,1.1146,1,1.1146,0,53,53,20,1,39,melon,pretzel,,89790,001,2022-04-29_12h01.09.462,SPAMnetsValid,2021.1.4,Win32,60.07088364,,,,,,,,,,,,,,,,,,,,,,,,,,,,,,,,,,,,,,,,,,,,,,,,,,,,,,,,,,,,,,,,,,,,,,,,,,,,,,,,,,,,,,,,,
,,8,1.5807,8,1.5807,0,54,54,64,1,9,kitchen,refrigerator,,89790,001,2022-04-29_12h01.09.462,SPAMnetsValid,2021.1.4,Win32,60.07088364,,,,,,,,,,,,,,,,,,,,,,,,,,,,,,,,,,,,,,,,,,,,,,,,,,,,,,,,,,,,,,,,,,,,,,,,,,,,,,,,,,,,,,,,,
,,6,1.8125,6,1.8125,0,55,55,93,1,63,cake,cookie,,89790,001,2022-04-29_12h01.09.462,SPAMnetsValid,2021.1.4,Win32,60.07088364,,,,,,,,,,,,,,,,,,,,,,,,,,,,,,,,,,,,,,,,,,,,,,,,,,,,,,,,,,,,,,,,,,,,,,,,,,,,,,,,,,,,,,,,,
,,6,1.0469,6,1.0469,0,56,56,86,1,51,onion,strawberry,,89790,001,2022-04-29_12h01.09.462,SPAMnetsValid,2021.1.4,Win32,60.07088364,,,,,,,,,,,,,,,,,,,,,,,,,,,,,,,,,,,,,,,,,,,,,,,,,,,,,,,,,,,,,,,,,,,,,,,,,,,,,,,,,,,,,,,,,
,,2,1.554,2,1.554,0,57,57,81,1,60,cactus,onion,,89790,001,2022-04-29_12h01.09.462,SPAMnetsValid,2021.1.4,Win32,60.07088364,,,,,,,,,,,,,,,,,,,,,,,,,,,,,,,,,,,,,,,,,,,,,,,,,,,,,,,,,,,,,,,,,,,,,,,,,,,,,,,,,,,,,,,,,
,,1,1.2291,1,1.2291,0,58,58,47,1,73,broom,chocolate,,89790,001,2022-04-29_12h01.09.462,SPAMnetsValid,2021.1.4,Win32,60.07088364,,,,,,,,,,,,,,,,,,,,,,,,,,,,,,,,,,,,,,,,,,,,,,,,,,,,,,,,,,,,,,,,,,,,,,,,,,,,,,,,,,,,,,,,,
,,6,1.905,6,1.905,0,59,59,91,1,2,kitchen,onion,,89790,001,2022-04-29_12h01.09.462,SPAMnetsValid,2021.1.4,Win32,60.07088364,,,,,,,,,,,,,,,,,,,,,,,,,,,,,,,,,,,,,,,,,,,,,,,,,,,,,,,,,,,,,,,,,,,,,,,,,,,,,,,,,,,,,,,,,
,,1,1.7078,1,1.7078,0,60,60,11,1,37,garden,refrigerator,,89790,001,2022-04-29_12h01.09.462,SPAMnetsValid,2021.1.4,Win32,60.07088364,,,,,,,,,,,,,,,,,,,,,,,,,,,,,,,,,,,,,,,,,,,,,,,,,,,,,,,,,,,,,,,,,,,,,,,,,,,,,,,,,,,,,,,,,
,,1,1.2278,1,1.2278,0,61,61,40,1,74,broom,pretzel,,89790,001,2022-04-29_12h01.09.462,SPAMnetsValid,2021.1.4,Win32,60.07088364,,,,,,,,,,,,,,,,,,,,,,,,,,,,,,,,,,,,,,,,,,,,,,,,,,,,,,,,,,,,,,,,,,,,,,,,,,,,,,,,,,,,,,,,,
,,1,1.0086,1,1.0086,0,62,62,27,1,72,broom,onion,,89790,001,2022-04-29_12h01.09.462,SPAMnetsValid,2021.1.4,Win32,60.07088364,,,,,,,,,,,,,,,,,,,,,,,,,,,,,,,,,,,,,,,,,,,,,,,,,,,,,,,,,,,,,,,,,,,,,,,,,,,,,,,,,,,,,,,,,
,,1,2.5469,1,2.5469,0,63,63,57,1,62,kitchen,rose,,89790,001,2022-04-29_12h01.09.462,SPAMnetsValid,2021.1.4,Win32,60.07088364,,,,,,,,,,,,,,,,,,,,,,,,,,,,,,,,,,,,,,,,,,,,,,,,,,,,,,,,,,,,,,,,,,,,,,,,,,,,,,,,,,,,,,,,,
,,1,1.3212,1,1.3212,0,64,64,79,1,86,oven,rose,,89790,001,2022-04-29_12h01.09.462,SPAMnetsValid,2021.1.4,Win32,60.07088364,,,,,,,,,,,,,,,,,,,,,,,,,,,,,,,,,,,,,,,,,,,,,,,,,,,,,,,,,,,,,,,,,,,,,,,,,,,,,,,,,,,,,,,,,
,,1,1.2711,1,1.2711,0,65,65,65,1,46,garden,yogurt,,89790,001,2022-04-29_12h01.09.462,SPAMnetsValid,2021.1.4,Win32,60.07088364,,,,,,,,,,,,,,,,,,,,,,,,,,,,,,,,,,,,,,,,,,,,,,,,,,,,,,,,,,,,,,,,,,,,,,,,,,,,,,,,,,,,,,,,,
,,8,1.9227,8,1.9227,0,66,66,19,1,76,garden,rose,,89790,001,2022-04-29_12h01.09.462,SPAMnetsValid,2021.1.4,Win32,60.07088364,,,,,,,,,,,,,,,,,,,,,,,,,,,,,,,,,,,,,,,,,,,,,,,,,,,,,,,,,,,,,,,,,,,,,,,,,,,,,,,,,,,,,,,,,
,,8,1.508,8,1.508,0,67,67,30,1,3,cake,oven,,89790,001,2022-04-29_12h01.09.462,SPAMnetsValid,2021.1.4,Win32,60.07088364,,,,,,,,,,,,,,,,,,,,,,,,,,,,,,,,,,,,,,,,,,,,,,,,,,,,,,,,,,,,,,,,,,,,,,,,,,,,,,,,,,,,,,,,,
,,3,2.8593,3,2.8593,0,68,68,28,1,84,oven,tomato,,89790,001,2022-04-29_12h01.09.462,SPAMnetsValid,2021.1.4,Win32,60.07088364,,,,,,,,,,,,,,,,,,,,,,,,,,,,,,,,,,,,,,,,,,,,,,,,,,,,,,,,,,,,,,,,,,,,,,,,,,,,,,,,,,,,,,,,,
,,1,1.4383,1,1.4383,0,69,69,25,1,23,flower,microwave,,89790,001,2022-04-29_12h01.09.462,SPAMnetsValid,2021.1.4,Win32,60.07088364,,,,,,,,,,,,,,,,,,,,,,,,,,,,,,,,,,,,,,,,,,,,,,,,,,,,,,,,,,,,,,,,,,,,,,,,,,,,,,,,,,,,,,,,,
,,1,1.4784,1,1.4784,0,70,70,74,1,70,chocolate,onion,,89790,001,2022-04-29_12h01.09.462,SPAMnetsValid,2021.1.4,Win32,60.07088364,,,,,,,,,,,,,,,,,,,,,,,,,,,,,,,,,,,,,,,,,,,,,,,,,,,,,,,,,,,,,,,,,,,,,,,,,,,,,,,,,,,,,,,,,
,,1,1.563,1,1.563,0,71,71,24,1,17,carrot,melon,,89790,001,2022-04-29_12h01.09.462,SPAMnetsValid,2021.1.4,Win32,60.07088364,,,,,,,,,,,,,,,,,,,,,,,,,,,,,,,,,,,,,,,,,,,,,,,,,,,,,,,,,,,,,,,,,,,,,,,,,,,,,,,,,,,,,,,,,
,,6,1.7041,6,1.7041,0,72,72,87,1,79,garden,strawberry,,89790,001,2022-04-29_12h01.09.462,SPAMnetsValid,2021.1.4,Win32,60.07088364,,,,,,,,,,,,,,,,,,,,,,,,,,,,,,,,,,,,,,,,,,,,,,,,,,,,,,,,,,,,,,,,,,,,,,,,,,,,,,,,,,,,,,,,,
,,4,2.4955,4,2.4955,0,73,73,33,1,32,cake,microwave,,89790,001,2022-04-29_12h01.09.462,SPAMnetsValid,2021.1.4,Win32,60.07088364,,,,,,,,,,,,,,,,,,,,,,,,,,,,,,,,,,,,,,,,,,,,,,,,,,,,,,,,,,,,,,,,,,,,,,,,,,,,,,,,,,,,,,,,,
,,6,2.3029,6,2.3029,0,74,74,78,1,30,cookie,pretzel,,89790,001,2022-04-29_12h01.09.462,SPAMnetsValid,2021.1.4,Win32,60.07088364,,,,,,,,,,,,,,,,,,,,,,,,,,,,,,,,,,,,,,,,,,,,,,,,,,,,,,,,,,,,,,,,,,,,,,,,,,,,,,,,,,,,,,,,,
,,7,1.7487,7,1.7487,0,75,75,75,1,69,carrot,refrigerator,,89790,001,2022-04-29_12h01.09.462,SPAMnetsValid,2021.1.4,Win32,60.07088364,,,,,,,,,,,,,,,,,,,,,,,,,,,,,,,,,,,,,,,,,,,,,,,,,,,,,,,,,,,,,,,,,,,,,,,,,,,,,,,,,,,,,,,,,
,,1,1.5564,1,1.5564,0,76,76,69,1,45,onion,pretzel,,89790,001,2022-04-29_12h01.09.462,SPAMnetsValid,2021.1.4,Win32,60.07088364,,,,,,,,,,,,,,,,,,,,,,,,,,,,,,,,,,,,,,,,,,,,,,,,,,,,,,,,,,,,,,,,,,,,,,,,,,,,,,,,,,,,,,,,,
,,1,1.062,1,1.062,0,77,77,23,1,65,broom,garden,,89790,001,2022-04-29_12h01.09.462,SPAMnetsValid,2021.1.4,Win32,60.07088364,,,,,,,,,,,,,,,,,,,,,,,,,,,,,,,,,,,,,,,,,,,,,,,,,,,,,,,,,,,,,,,,,,,,,,,,,,,,,,,,,,,,,,,,,
,,2,1.7686,2,1.7686,0,78,78,73,1,50,carrot,rose,,89790,001,2022-04-29_12h01.09.462,SPAMnetsValid,2021.1.4,Win32,60.07088364,,,,,,,,,,,,,,,,,,,,,,,,,,,,,,,,,,,,,,,,,,,,,,,,,,,,,,,,,,,,,,,,,,,,,,,,,,,,,,,,,,,,,,,,,
,,1,1.3885,1,1.3885,0,79,79,26,1,35,flower,pretzel,,89790,001,2022-04-29_12h01.09.462,SPAMnetsValid,2021.1.4,Win32,60.07088364,,,,,,,,,,,,,,,,,,,,,,,,,,,,,,,,,,,,,,,,,,,,,,,,,,,,,,,,,,,,,,,,,,,,,,,,,,,,,,,,,,,,,,,,,
,,1,2.7121,1,2.7121,0,80,80,44,1,25,carrot,onion,,89790,001,2022-04-29_12h01.09.462,SPAMnetsValid,2021.1.4,Win32,60.07088364,,,,,,,,,,,,,,,,,,,,,,,,,,,,,,,,,,,,,,,,,,,,,,,,,,,,,,,,,,,,,,,,,,,,,,,,,,,,,,,,,,,,,,,,,
,,1,3.3052,1,3.3052,0,81,81,5,1,13,broom,yogurt,,89790,001,2022-04-29_12h01.09.462,SPAMnetsValid,2021.1.4,Win32,60.07088364,,,,,,,,,,,,,,,,,,,,,,,,,,,,,,,,,,,,,,,,,,,,,,,,,,,,,,,,,,,,,,,,,,,,,,,,,,,,,,,,,,,,,,,,,
,,1,1.0588,1,1.0588,0,82,82,90,1,95,broom,refrigerator,,89790,001,2022-04-29_12h01.09.462,SPAMnetsValid,2021.1.4,Win32,60.07088364,,,,,,,,,,,,,,,,,,,,,,,,,,,,,,,,,,,,,,,,,,,,,,,,,,,,,,,,,,,,,,,,,,,,,,,,,,,,,,,,,,,,,,,,,
,,4,1.7549,4,1.7549,0,83,83,9,1,75,cookie,onion,,89790,001,2022-04-29_12h01.09.462,SPAMnetsValid,2021.1.4,Win32,60.07088364,,,,,,,,,,,,,,,,,,,,,,,,,,,,,,,,,,,,,,,,,,,,,,,,,,,,,,,,,,,,,,,,,,,,,,,,,,,,,,,,,,,,,,,,,
,,1,1.3525,1,1.3525,0,84,84,12,1,67,flower,yogurt,,89790,001,2022-04-29_12h01.09.462,SPAMnetsValid,2021.1.4,Win32,60.07088364,,,,,,,,,,,,,,,,,,,,,,,,,,,,,,,,,,,,,,,,,,,,,,,,,,,,,,,,,,,,,,,,,,,,,,,,,,,,,,,,,,,,,,,,,
,,3,2.1242,3,2.1242,0,85,85,54,1,28,cake,melon,,89790,001,2022-04-29_12h01.09.462,SPAMnetsValid,2021.1.4,Win32,60.07088364,,,,,,,,,,,,,,,,,,,,,,,,,,,,,,,,,,,,,,,,,,,,,,,,,,,,,,,,,,,,,,,,,,,,,,,,,,,,,,,,,,,,,,,,,
,,2,3.3416,2,3.3416,0,86,86,13,1,26,tomato,yogurt,,89790,001,2022-04-29_12h01.09.462,SPAMnetsValid,2021.1.4,Win32,60.07088364,,,,,,,,,,,,,,,,,,,,,,,,,,,,,,,,,,,,,,,,,,,,,,,,,,,,,,,,,,,,,,,,,,,,,,,,,,,,,,,,,,,,,,,,,
,,1,1.787,1,1.787,0,87,87,55,1,1,rose,yogurt,,89790,001,2022-04-29_12h01.09.462,SPAMnetsValid,2021.1.4,Win32,60.07088364,,,,,,,,,,,,,,,,,,,,,,,,,,,,,,,,,,,,,,,,,,,,,,,,,,,,,,,,,,,,,,,,,,,,,,,,,,,,,,,,,,,,,,,,,
,,9,1.6508,9,1.6508,0,88,88,10,1,191,cake,cake,CHECK,89790,001,2022-04-29_12h01.09.462,SPAMnetsValid,2021.1.4,Win32,60.07088364,,,,,,,,,,,,,,,,,,,,,,,,,,,,,,,,,,,,,,,,,,,,,,,,,,,,,,,,,,,,,,,,,,,,,,,,,,,,,,,,,,,,,,,,,
,,2,1.9934,2,1.9934,0,89,89,45,1,10,flower,onion,,89790,001,2022-04-29_12h01.09.462,SPAMnetsValid,2021.1.4,Win32,60.07088364,,,,,,,,,,,,,,,,,,,,,,,,,,,,,,,,,,,,,,,,,,,,,,,,,,,,,,,,,,,,,,,,,,,,,,,,,,,,,,,,,,,,,,,,,
,,1,1.4527,1,1.4527,0,90,90,15,1,48,flower,oven,,89790,001,2022-04-29_12h01.09.462,SPAMnetsValid,2021.1.4,Win32,60.07088364,,,,,,,,,,,,,,,,,,,,,,,,,,,,,,,,,,,,,,,,,,,,,,,,,,,,,,,,,,,,,,,,,,,,,,,,,,,,,,,,,,,,,,,,,
,,3,2.9189,3,2.9189,0,91,91,48,1,66,melon,yogurt,,89790,001,2022-04-29_12h01.09.462,SPAMnetsValid,2021.1.4,Win32,60.07088364,,,,,,,,,,,,,,,,,,,,,,,,,,,,,,,,,,,,,,,,,,,,,,,,,,,,,,,,,,,,,,,,,,,,,,,,,,,,,,,,,,,,,,,,,
,,3,3.0047,3,3.0047,0,92,92,71,1,38,pretzel,refrigerator,,89790,001,2022-04-29_12h01.09.462,SPAMnetsValid,2021.1.4,Win32,60.07088364,,,,,,,,,,,,,,,,,,,,,,,,,,,,,,,,,,,,,,,,,,,,,,,,,,,,,,,,,,,,,,,,,,,,,,,,,,,,,,,,,,,,,,,,,
,,1,1.3323,1,1.3323,0,93,93,16,1,14,broom,cookie,,89790,001,2022-04-29_12h01.09.462,SPAMnetsValid,2021.1.4,Win32,60.07088364,,,,,,,,,,,,,,,,,,,,,,,,,,,,,,,,,,,,,,,,,,,,,,,,,,,,,,,,,,,,,,,,,,,,,,,,,,,,,,,,,,,,,,,,,
,,1,1.1084,1,1.1084,0,94,94,37,1,58,garden,oven,,89790,001,2022-04-29_12h01.09.462,SPAMnetsValid,2021.1.4,Win32,60.07088364,,,,,,,,,,,,,,,,,,,,,,,,,,,,,,,,,,,,,,,,,,,,,,,,,,,,,,,,,,,,,,,,,,,,,,,,,,,,,,,,,,,,,,,,,
,,7,2.2212,7,2.2212,0,95,95,95,1,52,carrot,tomato,,89790,001,2022-04-29_12h01.09.462,SPAMnetsValid,2021.1.4,Win32,60.07088364,,,,,,,,,,,,,,,,,,,,,,,,,,,,,,,,,,,,,,,,,,,,,,,,,,,,,,,,,,,,,,,,,,,,,,,,,,,,,,,,,,,,,,,,,
,,7,1.4565,7,1.4565,0,96,96,80,1,61,strawberry,tomato,,89790,001,2022-04-29_12h01.09.462,SPAMnetsValid,2021.1.4,Win32,60.07088364,,,,,,,,,,,,,,,,,,,,,,,,,,,,,,,,,,,,,,,,,,,,,,,,,,,,,,,,,,,,,,,,,,,,,,,,,,,,,,,,,,,,,,,,,
,,,,,,,,,,,,,,,89790,001,2022-04-29_12h01.09.462,SPAMnetsValid,2021.1.4,Win32,60.07088364,0,0,0,0,1,,,,,,,,,,,,,,,,,,,,,,,,,,,,,,,,,,,,,,,,,,,,,,,,,,,,,,,,,,,,,,,,,,,,,,,,,,,,,,,,,,,,
,,,,,,,,,,,,,,,89790,001,2022-04-29_12h01.09.462,SPAMnetsValid,2021.1.4,Win32,60.07088364,,,,,,0,0,0,0,1,1,0,,,,,,,,,,,,,,,,,,,,,,,,,,,,,,,,,,,,,,,,,,,,,,,,,,,,,,,,,,,,,,,,,,,,,,,,,,,,,
,,,,2,6.7479,,,,,,119,strawberry,tree,,89790,001,2022-04-29_12h01.09.462,SPAMnetsValid,2021.1.4,Win32,60.07088364,,,,,,,,,,,,,2,6.7479,0,0,0,18,1,,,,,,,,,,,,,,,,,,,,,,,,,,,,,,,,,,,,,,,,,,,,,,,,,,,,,,,,,,,,,,,,,,,,,,
,,,,3,2.9034,,,,,,169,onion,yogurt,,89790,001,2022-04-29_12h01.09.462,SPAMnetsValid,2021.1.4,Win32,60.07088364,,,,,,,,,,,,,3,2.9034,0,1,1,24,1,,,,,,,,,,,,,,,,,,,,,,,,,,,,,,,,,,,,,,,,,,,,,,,,,,,,,,,,,,,,,,,,,,,,,,
,,,,4,2.1024,,,,,,141,melon,tomato,,89790,001,2022-04-29_12h01.09.462,SPAMnetsValid,2021.1.4,Win32,60.07088364,,,,,,,,,,,,,4,2.1024,0,2,2,70,1,,,,,,,,,,,,,,,,,,,,,,,,,,,,,,,,,,,,,,,,,,,,,,,,,,,,,,,,,,,,,,,,,,,,,,
,,,,1,1.1571,,,,,,146,pretzel,tree,,89790,001,2022-04-29_12h01.09.462,SPAMnetsValid,2021.1.4,Win32,60.07088364,,,,,,,,,,,,,1,1.1571,0,3,3,80,1,,,,,,,,,,,,,,,,,,,,,,,,,,,,,,,,,,,,,,,,,,,,,,,,,,,,,,,,,,,,,,,,,,,,,,
,,,,3,4.4265,,,,,,175,melon,onion,,89790,001,2022-04-29_12h01.09.462,SPAMnetsValid,2021.1.4,Win32,60.07088364,,,,,,,,,,,,,3,4.4265,0,4,4,41,1,,,,,,,,,,,,,,,,,,,,,,,,,,,,,,,,,,,,,,,,,,,,,,,,,,,,,,,,,,,,,,,,,,,,,,
,,,,7,3.2337,,,,,,160,cookie,kitchen,,89790,001,2022-04-29_12h01.09.462,SPAMnetsValid,2021.1.4,Win32,60.07088364,,,,,,,,,,,,,7,3.2337,0,5,5,65,1,,,,,,,,,,,,,,,,,,,,,,,,,,,,,,,,,,,,,,,,,,,,,,,,,,,,,,,,,,,,,,,,,,,,,,
,,,,6,2.1218,,,,,,99,garden,melon,,89790,001,2022-04-29_12h01.09.462,SPAMnetsValid,2021.1.4,Win32,60.07088364,,,,,,,,,,,,,6,2.1218,0,6,6,17,1,,,,,,,,,,,,,,,,,,,,,,,,,,,,,,,,,,,,,,,,,,,,,,,,,,,,,,,,,,,,,,,,,,,,,,
,,,,1,1.5042,,,,,,164,cookie,garden,,89790,001,2022-04-29_12h01.09.462,SPAMnetsValid,2021.1.4,Win32,60.07088364,,,,,,,,,,,,,1,1.5042,0,7,7,59,1,,,,,,,,,,,,,,,,,,,,,,,,,,,,,,,,,,,,,,,,,,,,,,,,,,,,,,,,,,,,,,,,,,,,,,
,,,,1,3.9049,,,,,,109,broom,strawberry,,89790,001,2022-04-29_12h01.09.462,SPAMnetsValid,2021.1.4,Win32,60.07088364,,,,,,,,,,,,,1,3.9049,0,8,8,4,1,,,,,,,,,,,,,,,,,,,,,,,,,,,,,,,,,,,,,,,,,,,,,,,,,,,,,,,,,,,,,,,,,,,,,,
,,,,5,2.3941,,,,,,173,kitchen,tomato,,89790,001,2022-04-29_12h01.09.462,SPAMnetsValid,2021.1.4,Win32,60.07088364,,,,,,,,,,,,,5,2.3941,0,9,9,1,1,,,,,,,,,,,,,,,,,,,,,,,,,,,,,,,,,,,,,,,,,,,,,,,,,,,,,,,,,,,,,,,,,,,,,,
,,,,5,2.2573,,,,,,102,chocolate,refrigerator,,89790,001,2022-04-29_12h01.09.462,SPAMnetsValid,2021.1.4,Win32,60.07088364,,,,,,,,,,,,,5,2.2573,0,10,10,76,1,,,,,,,,,,,,,,,,,,,,,,,,,,,,,,,,,,,,,,,,,,,,,,,,,,,,,,,,,,,,,,,,,,,,,,
,,,,9,2.1137,,,,,,194,cactus,cactus,CHECK,89790,001,2022-04-29_12h01.09.462,SPAMnetsValid,2021.1.4,Win32,60.07088364,,,,,,,,,,,,,9,2.1137,0,11,11,25,1,,,,,,,,,,,,,,,,,,,,,,,,,,,,,,,,,,,,,,,,,,,,,,,,,,,,,,,,,,,,,,,,,,,,,,
,,,,1,2.2698,,,,,,128,melon,microwave,,89790,001,2022-04-29_12h01.09.462,SPAMnetsValid,2021.1.4,Win32,60.07088364,,,,,,,,,,,,,1,2.2698,0,12,12,74,1,,,,,,,,,,,,,,,,,,,,,,,,,,,,,,,,,,,,,,,,,,,,,,,,,,,,,,,,,,,,,,,,,,,,,,
,,,,1,0.9572,,,,,,121,broom,microwave,,89790,001,2022-04-29_12h01.09.462,SPAMnetsValid,2021.1.4,Win32,60.07088364,,,,,,,,,,,,,1,0.9572,0,13,13,95,1,,,,,,,,,,,,,,,,,,,,,,,,,,,,,,,,,,,,,,,,,,,,,,,,,,,,,,,,,,,,,,,,,,,,,,
,,,,1,1.1984,,,,,,96,oven,strawberry,,89790,001,2022-04-29_12h01.09.462,SPAMnetsValid,2021.1.4,Win32,60.07088364,,,,,,,,,,,,,1,1.1984,0,14,14,67,1,,,,,,,,,,,,,,,,,,,,,,,,,,,,,,,,,,,,,,,,,,,,,,,,,,,,,,,,,,,,,,,,,,,,,,
,,,,1,1.4626,,,,,,183,cake,rose,,89790,001,2022-04-29_12h01.09.462,SPAMnetsValid,2021.1.4,Win32,60.07088364,,,,,,,,,,,,,1,1.4626,0,15,15,19,1,,,,,,,,,,,,,,,,,,,,,,,,,,,,,,,,,,,,,,,,,,,,,,,,,,,,,,,,,,,,,,,,,,,,,,
,,,,3,2.1708,,,,,,98,pretzel,strawberry,,89790,001,2022-04-29_12h01.09.462,SPAMnetsValid,2021.1.4,Win32,60.07088364,,,,,,,,,,,,,3,2.1708,0,16,16,82,1,,,,,,,,,,,,,,,,,,,,,,,,,,,,,,,,,,,,,,,,,,,,,,,,,,,,,,,,,,,,,,,,,,,,,,
,,,,2,3.8232,,,,,,114,cookie,strawberry,,89790,001,2022-04-29_12h01.09.462,SPAMnetsValid,2021.1.4,Win32,60.07088364,,,,,,,,,,,,,2,3.8232,0,17,17,87,1,,,,,,,,,,,,,,,,,,,,,,,,,,,,,,,,,,,,,,,,,,,,,,,,,,,,,,,,,,,,,,,,,,,,,,
,,,,1,1.5217,,,,,,145,cactus,yogurt,,89790,001,2022-04-29_12h01.09.462,SPAMnetsValid,2021.1.4,Win32,60.07088364,,,,,,,,,,,,,1,1.5217,0,18,18,15,1,,,,,,,,,,,,,,,,,,,,,,,,,,,,,,,,,,,,,,,,,,,,,,,,,,,,,,,,,,,,,,,,,,,,,,
,,,,4,1.9883,,,,,,113,refrigerator,strawberry,,89790,001,2022-04-29_12h01.09.462,SPAMnetsValid,2021.1.4,Win32,60.07088364,,,,,,,,,,,,,4,1.9883,0,19,19,56,1,,,,,,,,,,,,,,,,,,,,,,,,,,,,,,,,,,,,,,,,,,,,,,,,,,,,,,,,,,,,,,,,,,,,,,
,,,,3,1.8455,,,,,,136,chocolate,microwave,,89790,001,2022-04-29_12h01.09.462,SPAMnetsValid,2021.1.4,Win32,60.07088364,,,,,,,,,,,,,3,1.8455,0,20,20,96,1,,,,,,,,,,,,,,,,,,,,,,,,,,,,,,,,,,,,,,,,,,,,,,,,,,,,,,,,,,,,,,,,,,,,,,
,,,,3,1.7213,,,,,,166,cake,yogurt,,89790,001,2022-04-29_12h01.09.462,SPAMnetsValid,2021.1.4,Win32,60.07088364,,,,,,,,,,,,,3,1.7213,0,21,21,91,1,,,,,,,,,,,,,,,,,,,,,,,,,,,,,,,,,,,,,,,,,,,,,,,,,,,,,,,,,,,,,,,,,,,,,,
,,,,1,1.2871,,,,,,148,flower,melon,,89790,001,2022-04-29_12h01.09.462,SPAMnetsValid,2021.1.4,Win32,60.07088364,,,,,,,,,,,,,1,1.2871,0,22,22,23,1,,,,,,,,,,,,,,,,,,,,,,,,,,,,,,,,,,,,,,,,,,,,,,,,,,,,,,,,,,,,,,,,,,,,,,
,,,,1,1.9303,,,,,,105,cactus,oven,,89790,001,2022-04-29_12h01.09.462,SPAMnetsValid,2021.1.4,Win32,60.07088364,,,,,,,,,,,,,1,1.9303,0,23,23,13,1,,,,,,,,,,,,,,,,,,,,,,,,,,,,,,,,,,,,,,,,,,,,,,,,,,,,,,,,,,,,,,,,,,,,,,
,,,,1,1.0709,,,,,,129,cactus,refrigerator,,89790,001,2022-04-29_12h01.09.462,SPAMnetsValid,2021.1.4,Win32,60.07088364,,,,,,,,,,,,,1,1.0709,0,24,24,3,1,,,,,,,,,,,,,,,,,,,,,,,,,,,,,,,,,,,,,,,,,,,,,,,,,,,,,,,,,,,,,,,,,,,,,,
,,,,1,2.1804,,,,,,165,onion,rose,,89790,001,2022-04-29_12h01.09.462,SPAMnetsValid,2021.1.4,Win32,60.07088364,,,,,,,,,,,,,1,2.1804,0,25,25,40,1,,,,,,,,,,,,,,,,,,,,,,,,,,,,,,,,,,,,,,,,,,,,,,,,,,,,,,,,,,,,,,,,,,,,,,
,,,,2,1.6908,,,,,,168,cactus,flower,,89790,001,2022-04-29_12h01.09.462,SPAMnetsValid,2021.1.4,Win32,60.07088364,,,,,,,,,,,,,2,1.6908,0,26,26,51,1,,,,,,,,,,,,,,,,,,,,,,,,,,,,,,,,,,,,,,,,,,,,,,,,,,,,,,,,,,,,,,,,,,,,,,
,,,,4,1.9285,,,,,,170,cookie,microwave,,89790,001,2022-04-29_12h01.09.462,SPAMnetsValid,2021.1.4,Win32,60.07088364,,,,,,,,,,,,,4,1.9285,0,27,27,92,1,,,,,,,,,,,,,,,,,,,,,,,,,,,,,,,,,,,,,,,,,,,,,,,,,,,,,,,,,,,,,,,,,,,,,,
,,,,3,2.6922,,,,,,143,pretzel,rose,,89790,001,2022-04-29_12h01.09.462,SPAMnetsValid,2021.1.4,Win32,60.07088364,,,,,,,,,,,,,3,2.6922,0,28,28,55,1,,,,,,,,,,,,,,,,,,,,,,,,,,,,,,,,,,,,,,,,,,,,,,,,,,,,,,,,,,,,,,,,,,,,,,
,,,,2,12.2295,,,,,,135,carrot,oven,,89790,001,2022-04-29_12h01.09.462,SPAMnetsValid,2021.1.4,Win32,60.07088364,,,,,,,,,,,,,2,12.2295,0,29,29,73,1,,,,,,,,,,,,,,,,,,,,,,,,,,,,,,,,,,,,,,,,,,,,,,,,,,,,,,,,,,,,,,,,,,,,,,
,,,,1,1.4383,,,,,,149,broom,tomato,,89790,001,2022-04-29_12h01.09.462,SPAMnetsValid,2021.1.4,Win32,60.07088364,,,,,,,,,,,,,1,1.4383,0,30,30,20,1,,,,,,,,,,,,,,,,,,,,,,,,,,,,,,,,,,,,,,,,,,,,,,,,,,,,,,,,,,,,,,,,,,,,,,
,,,,1,2.6777,,,,,,111,carrot,microwave,,89790,001,2022-04-29_12h01.09.462,SPAMnetsValid,2021.1.4,Win32,60.07088364,,,,,,,,,,,,,1,2.6777,0,31,31,16,1,,,,,,,,,,,,,,,,,,,,,,,,,,,,,,,,,,,,,,,,,,,,,,,,,,,,,,,,,,,,,,,,,,,,,,
,,,,1,1.0298,,,,,,142,garden,tree,,89790,001,2022-04-29_12h01.09.462,SPAMnetsValid,2021.1.4,Win32,60.07088364,,,,,,,,,,,,,1,1.0298,0,32,32,22,1,,,,,,,,,,,,,,,,,,,,,,,,,,,,,,,,,,,,,,,,,,,,,,,,,,,,,,,,,,,,,,,,,,,,,,
,,,,1,1.628,,,,,,108,carrot,chocolate,,89790,001,2022-04-29_12h01.09.462,SPAMnetsValid,2021.1.4,Win32,60.07088364,,,,,,,,,,,,,1,1.628,0,33,33,5,1,,,,,,,,,,,,,,,,,,,,,,,,,,,,,,,,,,,,,,,,,,,,,,,,,,,,,,,,,,,,,,,,,,,,,,
,,,,1,0.9059,,,,,,155,carrot,cookie,,89790,001,2022-04-29_12h01.09.462,SPAMnetsValid,2021.1.4,Win32,60.07088364,,,,,,,,,,,,,1,0.9059,0,34,34,38,1,,,,,,,,,,,,,,,,,,,,,,,,,,,,,,,,,,,,,,,,,,,,,,,,,,,,,,,,,,,,,,,,,,,,,,
,,,,1,1.0418,,,,,,184,oven,pretzel,,89790,001,2022-04-29_12h01.09.462,SPAMnetsValid,2021.1.4,Win32,60.07088364,,,,,,,,,,,,,1,1.0418,0,35,35,42,1,,,,,,,,,,,,,,,,,,,,,,,,,,,,,,,,,,,,,,,,,,,,,,,,,,,,,,,,,,,,,,,,,,,,,,
,,,,2,1.8231,,,,,,134,carrot,flower,,89790,001,2022-04-29_12h01.09.462,SPAMnetsValid,2021.1.4,Win32,60.07088364,,,,,,,,,,,,,2,1.8231,0,36,36,93,1,,,,,,,,,,,,,,,,,,,,,,,,,,,,,,,,,,,,,,,,,,,,,,,,,,,,,,,,,,,,,,,,,,,,,,
,,,,7,2.2938,,,,,,150,microwave,refrigerator,,89790,001,2022-04-29_12h01.09.462,SPAMnetsValid,2021.1.4,Win32,60.07088364,,,,,,,,,,,,,7,2.2938,0,37,37,66,1,,,,,,,,,,,,,,,,,,,,,,,,,,,,,,,,,,,,,,,,,,,,,,,,,,,,,,,,,,,,,,,,,,,,,,
,,,,1,1.445,,,,,,187,cactus,microwave,,89790,001,2022-04-29_12h01.09.462,SPAMnetsValid,2021.1.4,Win32,60.07088364,,,,,,,,,,,,,1,1.445,0,38,38,71,1,,,,,,,,,,,,,,,,,,,,,,,,,,,,,,,,,,,,,,,,,,,,,,,,,,,,,,,,,,,,,,,,,,,,,,
,,,,3,1.8887,,,,,,97,chocolate,kitchen,,89790,001,2022-04-29_12h01.09.462,SPAMnetsValid,2021.1.4,Win32,60.07088364,,,,,,,,,,,,,3,1.8887,0,39,39,8,1,,,,,,,,,,,,,,,,,,,,,,,,,,,,,,,,,,,,,,,,,,,,,,,,,,,,,,,,,,,,,,,,,,,,,,
,,,,2,9.9855,,,,,,133,cake,flower,,89790,001,2022-04-29_12h01.09.462,SPAMnetsValid,2021.1.4,Win32,60.07088364,,,,,,,,,,,,,2,9.9855,0,40,40,94,1,,,,,,,,,,,,,,,,,,,,,,,,,,,,,,,,,,,,,,,,,,,,,,,,,,,,,,,,,,,,,,,,,,,,,,
,,,,2,1.8138,,,,,,177,chocolate,strawberry,,89790,001,2022-04-29_12h01.09.462,SPAMnetsValid,2021.1.4,Win32,60.07088364,,,,,,,,,,,,,2,1.8138,0,41,41,53,1,,,,,,,,,,,,,,,,,,,,,,,,,,,,,,,,,,,,,,,,,,,,,,,,,,,,,,,,,,,,,,,,,,,,,,
,,,,3,3.3721,,,,,,110,chocolate,cookie,,89790,001,2022-04-29_12h01.09.462,SPAMnetsValid,2021.1.4,Win32,60.07088364,,,,,,,,,,,,,3,3.3721,0,42,42,52,1,,,,,,,,,,,,,,,,,,,,,,,,,,,,,,,,,,,,,,,,,,,,,,,,,,,,,,,,,,,,,,,,,,,,,,
,,,,2,1.956,,,,,,117,melon,strawberry,,89790,001,2022-04-29_12h01.09.462,SPAMnetsValid,2021.1.4,Win32,60.07088364,,,,,,,,,,,,,2,1.956,0,43,43,11,1,,,,,,,,,,,,,,,,,,,,,,,,,,,,,,,,,,,,,,,,,,,,,,,,,,,,,,,,,,,,,,,,,,,,,,
,,,,1,1.1906,,,,,,179,broom,oven,,89790,001,2022-04-29_12h01.09.462,SPAMnetsValid,2021.1.4,Win32,60.07088364,,,,,,,,,,,,,1,1.1906,0,44,44,45,1,,,,,,,,,,,,,,,,,,,,,,,,,,,,,,,,,,,,,,,,,,,,,,,,,,,,,,,,,,,,,,,,,,,,,,
,,,,1,1.1372,,,,,,118,chocolate,oven,,89790,001,2022-04-29_12h01.09.462,SPAMnetsValid,2021.1.4,Win32,60.07088364,,,,,,,,,,,,,1,1.1372,0,45,45,10,1,,,,,,,,,,,,,,,,,,,,,,,,,,,,,,,,,,,,,,,,,,,,,,,,,,,,,,,,,,,,,,,,,,,,,,
,,,,1,1.2255,,,,,,189,onion,tree,,89790,001,2022-04-29_12h01.09.462,SPAMnetsValid,2021.1.4,Win32,60.07088364,,,,,,,,,,,,,1,1.2255,0,46,46,62,1,,,,,,,,,,,,,,,,,,,,,,,,,,,,,,,,,,,,,,,,,,,,,,,,,,,,,,,,,,,,,,,,,,,,,,
,,,,1,1.0821,,,,,,103,pretzel,tomato,,89790,001,2022-04-29_12h01.09.462,SPAMnetsValid,2021.1.4,Win32,60.07088364,,,,,,,,,,,,,1,1.0821,0,47,47,79,1,,,,,,,,,,,,,,,,,,,,,,,,,,,,,,,,,,,,,,,,,,,,,,,,,,,,,,,,,,,,,,,,,,,,,,
,,,,1,1.0412,,,,,,180,tree,yogurt,,89790,001,2022-04-29_12h01.09.462,SPAMnetsValid,2021.1.4,Win32,60.07088364,,,,,,,,,,,,,1,1.0412,0,48,48,68,1,,,,,,,,,,,,,,,,,,,,,,,,,,,,,,,,,,,,,,,,,,,,,,,,,,,,,,,,,,,,,,,,,,,,,,
,,,,1,1.3154,,,,,,172,kitchen,melon,,89790,001,2022-04-29_12h01.09.462,SPAMnetsValid,2021.1.4,Win32,60.07088364,,,,,,,,,,,,,1,1.3154,0,49,49,77,1,,,,,,,,,,,,,,,,,,,,,,,,,,,,,,,,,,,,,,,,,,,,,,,,,,,,,,,,,,,,,,,,,,,,,,
,,,,1,1.2705,,,,,,190,microwave,strawberry,,89790,001,2022-04-29_12h01.09.462,SPAMnetsValid,2021.1.4,Win32,60.07088364,,,,,,,,,,,,,1,1.2705,0,50,50,90,1,,,,,,,,,,,,,,,,,,,,,,,,,,,,,,,,,,,,,,,,,,,,,,,,,,,,,,,,,,,,,,,,,,,,,,
,,,,1,0.9364,,,,,,151,microwave,onion,,89790,001,2022-04-29_12h01.09.462,SPAMnetsValid,2021.1.4,Win32,60.07088364,,,,,,,,,,,,,1,0.9364,0,51,51,6,1,,,,,,,,,,,,,,,,,,,,,,,,,,,,,,,,,,,,,,,,,,,,,,,,,,,,,,,,,,,,,,,,,,,,,,
,,,,1,1.3609,,,,,,153,carrot,pretzel,,89790,001,2022-04-29_12h01.09.462,SPAMnetsValid,2021.1.4,Win32,60.07088364,,,,,,,,,,,,,1,1.3609,0,52,52,34,1,,,,,,,,,,,,,,,,,,,,,,,,,,,,,,,,,,,,,,,,,,,,,,,,,,,,,,,,,,,,,,,,,,,,,,
,,,,2,9.2457,,,,,,147,cake,refrigerator,,89790,001,2022-04-29_12h01.09.462,SPAMnetsValid,2021.1.4,Win32,60.07088364,,,,,,,,,,,,,2,9.2457,0,53,53,35,1,,,,,,,,,,,,,,,,,,,,,,,,,,,,,,,,,,,,,,,,,,,,,,,,,,,,,,,,,,,,,,,,,,,,,,
,,,,2,2.4757,,,,,,107,rose,tomato,,89790,001,2022-04-29_12h01.09.462,SPAMnetsValid,2021.1.4,Win32,60.07088364,,,,,,,,,,,,,2,2.4757,0,54,54,26,1,,,,,,,,,,,,,,,,,,,,,,,,,,,,,,,,,,,,,,,,,,,,,,,,,,,,,,,,,,,,,,,,,,,,,,
,,,,9,1.5651,,,,,,193,melon,melon,CHECK,89790,001,2022-04-29_12h01.09.462,SPAMnetsValid,2021.1.4,Win32,60.07088364,,,,,,,,,,,,,9,1.5651,0,55,55,86,1,,,,,,,,,,,,,,,,,,,,,,,,,,,,,,,,,,,,,,,,,,,,,,,,,,,,,,,,,,,,,,,,,,,,,,
,,,,8,1.9215,,,,,,120,microwave,oven,,89790,001,2022-04-29_12h01.09.462,SPAMnetsValid,2021.1.4,Win32,60.07088364,,,,,,,,,,,,,8,1.9215,0,56,56,14,1,,,,,,,,,,,,,,,,,,,,,,,,,,,,,,,,,,,,,,,,,,,,,,,,,,,,,,,,,,,,,,,,,,,,,,
,,,,8,2.7765,,,,,,124,oven,refrigerator,,89790,001,2022-04-29_12h01.09.462,SPAMnetsValid,2021.1.4,Win32,60.07088364,,,,,,,,,,,,,8,2.7765,0,57,57,69,1,,,,,,,,,,,,,,,,,,,,,,,,,,,,,,,,,,,,,,,,,,,,,,,,,,,,,,,,,,,,,,,,,,,,,,
,,,,3,2.4935,,,,,,181,carrot,kitchen,,89790,001,2022-04-29_12h01.09.462,SPAMnetsValid,2021.1.4,Win32,60.07088364,,,,,,,,,,,,,3,2.4935,0,58,58,72,1,,,,,,,,,,,,,,,,,,,,,,,,,,,,,,,,,,,,,,,,,,,,,,,,,,,,,,,,,,,,,,,,,,,,,,
,,,,1,1.4761,,,,,,188,flower,tree,,89790,001,2022-04-29_12h01.09.462,SPAMnetsValid,2021.1.4,Win32,60.07088364,,,,,,,,,,,,,1,1.4761,0,59,59,7,1,,,,,,,,,,,,,,,,,,,,,,,,,,,,,,,,,,,,,,,,,,,,,,,,,,,,,,,,,,,,,,,,,,,,,,
,,,,1,1.5387,,,,,,182,flower,refrigerator,,89790,001,2022-04-29_12h01.09.462,SPAMnetsValid,2021.1.4,Win32,60.07088364,,,,,,,,,,,,,1,1.5387,0,60,60,32,1,,,,,,,,,,,,,,,,,,,,,,,,,,,,,,,,,,,,,,,,,,,,,,,,,,,,,,,,,,,,,,,,,,,,,,
,,,,4,2.0208,,,,,,186,kitchen,yogurt,,89790,001,2022-04-29_12h01.09.462,SPAMnetsValid,2021.1.4,Win32,60.07088364,,,,,,,,,,,,,4,2.0208,0,61,61,48,1,,,,,,,,,,,,,,,,,,,,,,,,,,,,,,,,,,,,,,,,,,,,,,,,,,,,,,,,,,,,,,,,,,,,,,
,,,,2,2.5597,,,,,,174,cake,pretzel,,89790,001,2022-04-29_12h01.09.462,SPAMnetsValid,2021.1.4,Win32,60.07088364,,,,,,,,,,,,,2,2.5597,0,62,62,2,1,,,,,,,,,,,,,,,,,,,,,,,,,,,,,,,,,,,,,,,,,,,,,,,,,,,,,,,,,,,,,,,,,,,,,,
,,,,1,3.0702,,,,,,101,cactus,kitchen,,89790,001,2022-04-29_12h01.09.462,SPAMnetsValid,2021.1.4,Win32,60.07088364,,,,,,,,,,,,,1,3.0702,0,63,63,54,1,,,,,,,,,,,,,,,,,,,,,,,,,,,,,,,,,,,,,,,,,,,,,,,,,,,,,,,,,,,,,,,,,,,,,,
,,,,1,1.2393,,,,,,125,carrot,tree,,89790,001,2022-04-29_12h01.09.462,SPAMnetsValid,2021.1.4,Win32,60.07088364,,,,,,,,,,,,,1,1.2393,0,64,64,30,1,,,,,,,,,,,,,,,,,,,,,,,,,,,,,,,,,,,,,,,,,,,,,,,,,,,,,,,,,,,,,,,,,,,,,,
,,,,6,2.4395,,,,,,100,garden,tomato,,89790,001,2022-04-29_12h01.09.462,SPAMnetsValid,2021.1.4,Win32,60.07088364,,,,,,,,,,,,,6,2.4395,0,65,65,83,1,,,,,,,,,,,,,,,,,,,,,,,,,,,,,,,,,,,,,,,,,,,,,,,,,,,,,,,,,,,,,,,,,,,,,,
,,,,1,2.2388,,,,,,130,microwave,yogurt,,89790,001,2022-04-29_12h01.09.462,SPAMnetsValid,2021.1.4,Win32,60.07088364,,,,,,,,,,,,,1,2.2388,0,66,66,84,1,,,,,,,,,,,,,,,,,,,,,,,,,,,,,,,,,,,,,,,,,,,,,,,,,,,,,,,,,,,,,,,,,,,,,,
,,,,2,2.9858,,,,,,176,cactus,tomato,,89790,001,2022-04-29_12h01.09.462,SPAMnetsValid,2021.1.4,Win32,60.07088364,,,,,,,,,,,,,2,2.9858,0,67,67,9,1,,,,,,,,,,,,,,,,,,,,,,,,,,,,,,,,,,,,,,,,,,,,,,,,,,,,,,,,,,,,,,,,,,,,,,
,,,,1,1.874,,,,,,152,cactus,strawberry,,89790,001,2022-04-29_12h01.09.462,SPAMnetsValid,2021.1.4,Win32,60.07088364,,,,,,,,,,,,,1,1.874,0,68,68,49,1,,,,,,,,,,,,,,,,,,,,,,,,,,,,,,,,,,,,,,,,,,,,,,,,,,,,,,,,,,,,,,,,,,,,,,
,,,,1,1.4729,,,,,,126,kitchen,tree,,89790,001,2022-04-29_12h01.09.462,SPAMnetsValid,2021.1.4,Win32,60.07088364,,,,,,,,,,,,,1,1.4729,0,69,69,50,1,,,,,,,,,,,,,,,,,,,,,,,,,,,,,,,,,,,,,,,,,,,,,,,,,,,,,,,,,,,,,,,,,,,,,,
,,,,1,1.2546,,,,,,144,cake,garden,,89790,001,2022-04-29_12h01.09.462,SPAMnetsValid,2021.1.4,Win32,60.07088364,,,,,,,,,,,,,1,1.2546,0,70,70,58,1,,,,,,,,,,,,,,,,,,,,,,,,,,,,,,,,,,,,,,,,,,,,,,,,,,,,,,,,,,,,,,,,,,,,,,
,,,,1,1.9047,,,,,,156,melon,rose,,89790,001,2022-04-29_12h01.09.462,SPAMnetsValid,2021.1.4,Win32,60.07088364,,,,,,,,,,,,,1,1.9047,0,71,71,31,1,,,,,,,,,,,,,,,,,,,,,,,,,,,,,,,,,,,,,,,,,,,,,,,,,,,,,,,,,,,,,,,,,,,,,,
,,,,1,1.7941,,,,,,185,cactus,rose,,89790,001,2022-04-29_12h01.09.462,SPAMnetsValid,2021.1.4,Win32,60.07088364,,,,,,,,,,,,,1,1.7941,0,72,72,43,1,,,,,,,,,,,,,,,,,,,,,,,,,,,,,,,,,,,,,,,,,,,,,,,,,,,,,,,,,,,,,,,,,,,,,,
,,,,1,1.4239,,,,,,104,garden,microwave,,89790,001,2022-04-29_12h01.09.462,SPAMnetsValid,2021.1.4,Win32,60.07088364,,,,,,,,,,,,,1,1.4239,0,73,73,81,1,,,,,,,,,,,,,,,,,,,,,,,,,,,,,,,,,,,,,,,,,,,,,,,,,,,,,,,,,,,,,,,,,,,,,,
,,,,7,1.8074,,,,,,122,flower,garden,,89790,001,2022-04-29_12h01.09.462,SPAMnetsValid,2021.1.4,Win32,60.07088364,,,,,,,,,,,,,7,1.8074,0,74,74,60,1,,,,,,,,,,,,,,,,,,,,,,,,,,,,,,,,,,,,,,,,,,,,,,,,,,,,,,,,,,,,,,,,,,,,,,
,,,,4,1.7785,,,,,,106,cake,strawberry,,89790,001,2022-04-29_12h01.09.462,SPAMnetsValid,2021.1.4,Win32,60.07088364,,,,,,,,,,,,,4,1.7785,0,75,75,0,1,,,,,,,,,,,,,,,,,,,,,,,,,,,,,,,,,,,,,,,,,,,,,,,,,,,,,,,,,,,,,,,,,,,,,,
,,,,1,2.006,,,,,,178,cactus,carrot,,89790,001,2022-04-29_12h01.09.462,SPAMnetsValid,2021.1.4,Win32,60.07088364,,,,,,,,,,,,,1,2.006,0,76,76,75,1,,,,,,,,,,,,,,,,,,,,,,,,,,,,,,,,,,,,,,,,,,,,,,,,,,,,,,,,,,,,,,,,,,,,,,
,,,,1,1.9651,,,,,,127,cactus,chocolate,,89790,001,2022-04-29_12h01.09.462,SPAMnetsValid,2021.1.4,Win32,60.07088364,,,,,,,,,,,,,1,1.9651,0,77,77,57,1,,,,,,,,,,,,,,,,,,,,,,,,,,,,,,,,,,,,,,,,,,,,,,,,,,,,,,,,,,,,,,,,,,,,,,
,,,,1,2.4429,,,,,,161,kitchen,pretzel,,89790,001,2022-04-29_12h01.09.462,SPAMnetsValid,2021.1.4,Win32,60.07088364,,,,,,,,,,,,,1,2.4429,0,78,78,36,1,,,,,,,,,,,,,,,,,,,,,,,,,,,,,,,,,,,,,,,,,,,,,,,,,,,,,,,,,,,,,,,,,,,,,,
,,,,1,1.9705,,,,,,162,microwave,tomato,,89790,001,2022-04-29_12h01.09.462,SPAMnetsValid,2021.1.4,Win32,60.07088364,,,,,,,,,,,,,1,1.9705,0,79,79,12,1,,,,,,,,,,,,,,,,,,,,,,,,,,,,,,,,,,,,,,,,,,,,,,,,,,,,,,,,,,,,,,,,,,,,,,
,,,,1,1.3443,,,,,,132,broom,tree,,89790,001,2022-04-29_12h01.09.462,SPAMnetsValid,2021.1.4,Win32,60.07088364,,,,,,,,,,,,,1,1.3443,0,80,80,78,1,,,,,,,,,,,,,,,,,,,,,,,,,,,,,,,,,,,,,,,,,,,,,,,,,,,,,,,,,,,,,,,,,,,,,,
,,,,1,6.3027,,,,,,140,cookie,refrigerator,,89790,001,2022-04-29_12h01.09.462,SPAMnetsValid,2021.1.4,Win32,60.07088364,,,,,,,,,,,,,1,6.3027,0,81,81,89,1,,,,,,,,,,,,,,,,,,,,,,,,,,,,,,,,,,,,,,,,,,,,,,,,,,,,,,,,,,,,,,,,,,,,,,
,,,,4,1.9705,,,,,,158,cookie,oven,,89790,001,2022-04-29_12h01.09.462,SPAMnetsValid,2021.1.4,Win32,60.07088364,,,,,,,,,,,,,4,1.9705,0,82,82,27,1,,,,,,,,,,,,,,,,,,,,,,,,,,,,,,,,,,,,,,,,,,,,,,,,,,,,,,,,,,,,,,,,,,,,,,
,,,,2,3.4539,,,,,,112,cake,carrot,,89790,001,2022-04-29_12h01.09.462,SPAMnetsValid,2021.1.4,Win32,60.07088364,,,,,,,,,,,,,2,3.4539,0,83,83,39,1,,,,,,,,,,,,,,,,,,,,,,,,,,,,,,,,,,,,,,,,,,,,,,,,,,,,,,,,,,,,,,,,,,,,,,
,,,,7,2.6973,,,,,,138,flower,rose,,89790,001,2022-04-29_12h01.09.462,SPAMnetsValid,2021.1.4,Win32,60.07088364,,,,,,,,,,,,,7,2.6973,0,84,84,61,1,,,,,,,,,,,,,,,,,,,,,,,,,,,,,,,,,,,,,,,,,,,,,,,,,,,,,,,,,,,,,,,,,,,,,,
,,,,1,5.4127,,,,,,123,cookie,tree,,89790,001,2022-04-29_12h01.09.462,SPAMnetsValid,2021.1.4,Win32,60.07088364,,,,,,,,,,,,,1,5.4127,0,85,85,46,1,,,,,,,,,,,,,,,,,,,,,,,,,,,,,,,,,,,,,,,,,,,,,,,,,,,,,,,,,,,,,,,,,,,,,,
,,,,2,2.8983,,,,,,163,melon,refrigerator,,89790,001,2022-04-29_12h01.09.462,SPAMnetsValid,2021.1.4,Win32,60.07088364,,,,,,,,,,,,,2,2.8983,0,86,86,29,1,,,,,,,,,,,,,,,,,,,,,,,,,,,,,,,,,,,,,,,,,,,,,,,,,,,,,,,,,,,,,,,,,,,,,,
,,,,1,4.5573,,,,,,139,carrot,strawberry,,89790,001,2022-04-29_12h01.09.462,SPAMnetsValid,2021.1.4,Win32,60.07088364,,,,,,,,,,,,,1,4.5573,0,87,87,37,1,,,,,,,,,,,,,,,,,,,,,,,,,,,,,,,,,,,,,,,,,,,,,,,,,,,,,,,,,,,,,,,,,,,,,,
,,,,1,2.7467,,,,,,159,cookie,flower,,89790,001,2022-04-29_12h01.09.462,SPAMnetsValid,2021.1.4,Win32,60.07088364,,,,,,,,,,,,,1,2.7467,0,88,88,21,1,,,,,,,,,,,,,,,,,,,,,,,,,,,,,,,,,,,,,,,,,,,,,,,,,,,,,,,,,,,,,,,,,,,,,,
,,,,4,1.7464,,,,,,116,cake,chocolate,,89790,001,2022-04-29_12h01.09.462,SPAMnetsValid,2021.1.4,Win32,60.07088364,,,,,,,,,,,,,4,1.7464,0,89,89,44,1,,,,,,,,,,,,,,,,,,,,,,,,,,,,,,,,,,,,,,,,,,,,,,,,,,,,,,,,,,,,,,,,,,,,,,
,,,,1,1.3724,,,,,,137,microwave,tree,,89790,001,2022-04-29_12h01.09.462,SPAMnetsValid,2021.1.4,Win32,60.07088364,,,,,,,,,,,,,1,1.3724,0,90,90,63,1,,,,,,,,,,,,,,,,,,,,,,,,,,,,,,,,,,,,,,,,,,,,,,,,,,,,,,,,,,,,,,,,,,,,,,
,,,,4,2.3611,,,,,,131,cactus,garden,,89790,001,2022-04-29_12h01.09.462,SPAMnetsValid,2021.1.4,Win32,60.07088364,,,,,,,,,,,,,4,2.3611,0,91,91,33,1,,,,,,,,,,,,,,,,,,,,,,,,,,,,,,,,,,,,,,,,,,,,,,,,,,,,,,,,,,,,,,,,,,,,,,
,,,,4,4.4066,,,,,,154,strawberry,yogurt,,89790,001,2022-04-29_12h01.09.462,SPAMnetsValid,2021.1.4,Win32,60.07088364,,,,,,,,,,,,,4,4.4066,0,92,92,28,1,,,,,,,,,,,,,,,,,,,,,,,,,,,,,,,,,,,,,,,,,,,,,,,,,,,,,,,,,,,,,,,,,,,,,,
,,,,3,4.4924,,,,,,115,refrigerator,tomato,,89790,001,2022-04-29_12h01.09.462,SPAMnetsValid,2021.1.4,Win32,60.07088364,,,,,,,,,,,,,3,4.4924,0,93,93,85,1,,,,,,,,,,,,,,,,,,,,,,,,,,,,,,,,,,,,,,,,,,,,,,,,,,,,,,,,,,,,,,,,,,,,,,
,,,,6,1.9875,,,,,,167,carrot,garden,,89790,001,2022-04-29_12h01.09.462,SPAMnetsValid,2021.1.4,Win32,60.07088364,,,,,,,,,,,,,6,1.9875,0,94,94,47,1,,,,,,,,,,,,,,,,,,,,,,,,,,,,,,,,,,,,,,,,,,,,,,,,,,,,,,,,,,,,,,,,,,,,,,
,,,,1,1.5311,,,,,,171,cake,tomato,,89790,001,2022-04-29_12h01.09.462,SPAMnetsValid,2021.1.4,Win32,60.07088364,,,,,,,,,,,,,1,1.5311,0,95,95,88,1,,,,,,,,,,,,,,,,,,,,,,,,,,,,,,,,,,,,,,,,,,,,,,,,,,,,,,,,,,,,,,,,,,,,,,
,,,,1,1.4732,,,,,,157,refrigerator,rose,,89790,001,2022-04-29_12h01.09.462,SPAMnetsValid,2021.1.4,Win32,60.07088364,,,,,,,,,,,,,1,1.4732,0,96,96,64,1,,,,,,,,,,,,,,,,,,,,,,,,,,,,,,,,,,,,,,,,,,,,,,,,,,,,,,,,,,,,,,,,,,,,,,
,,,,,,,,,,,,,,,89790,001,2022-04-29_12h01.09.462,SPAMnetsValid,2021.1.4,Win32,60.07088364,,,,,,,,,,,,,,,,,,,,0,0,0,0,1,,,,,,,,,,,,,,,,,,,,,,,,,,,,,,,,,,,,,,,,,,,,,,,,,,,,,,,,,,,,,,,,,
,,,,,,,,,,,,,,,89790,001,2022-04-29_12h01.09.462,SPAMnetsValid,2021.1.4,Win32,60.07088364,,,,,,0,1,1,1,1,0,1,,,,,,,,,,,,,,,,,,,,,,,,,,,,,,,,,,,,,,,,,,,,,,,,,,,,,,,,,,,,,,,,,,,,,,,,,,,,,
,,,,,,,,,,,,,,,89790,001,2022-04-29_12h01.09.462,SPAMnetsValid,2021.1.4,Win32,60.07088364,,,,,,,,,,,,,,,,,,,,,,,,,4,5.6662,0,0,0,0,1,rancor,forbearance,ridicule,malice,bravery,3,,,,,,,,,,,,,,,,,,,,,,,,,,,,,,,,,,,,,,,,,,,,,,,,,,,,
,,,,,,,,,,,,,,,89790,001,2022-04-29_12h01.09.462,SPAMnetsValid,2021.1.4,Win32,60.07088364,,,,,,,,,,,,,,,,,,,,,,,,,4,8.4302,0,1,1,1,1,raucous,empty,quiet,smooth,harsh,4,,,,,,,,,,,,,,,,,,,,,,,,,,,,,,,,,,,,,,,,,,,,,,,,,,,,
,,,,,,,,,,,,,,,89790,001,2022-04-29_12h01.09.462,SPAMnetsValid,2021.1.4,Win32,60.07088364,,,,,,,,,,,,,,,,,,,,,,,,,3,5.6159,0,2,2,2,1,gargoyle,oil,medicine,carved waterspout,ugly building,3,,,,,,,,,,,,,,,,,,,,,,,,,,,,,,,,,,,,,,,,,,,,,,,,,,,,
,,,,,,,,,,,,,,,89790,001,2022-04-29_12h01.09.462,SPAMnetsValid,2021.1.4,Win32,60.07088364,,,,,,,,,,,,,,,,,,,,,,,,,3,7.3256,0,3,3,3,1,recrudesce,purify,renew activity,lack refinement,crush,2,,,,,,,,,,,,,,,,,,,,,,,,,,,,,,,,,,,,,,,,,,,,,,,,,,,,
,,,,,,,,,,,,,,,89790,001,2022-04-29_12h01.09.462,SPAMnetsValid,2021.1.4,Win32,60.07088364,,,,,,,,,,,,,,,,,,,,,,,,,3,4.9901,0,4,4,4,1,specious,"plausible, but not genuine",noteworthy,class or variety,roomy,1,,,,,,,,,,,,,,,,,,,,,,,,,,,,,,,,,,,,,,,,,,,,,,,,,,,,
,,,,,,,,,,,,,,,89790,001,2022-04-29_12h01.09.462,SPAMnetsValid,2021.1.4,Win32,60.07088364,,,,,,,,,,,,,,,,,,,,,,,,,3,6.6866,0,5,5,5,1,bauble,bubble,showy plaything,idle talk,confusion,2,,,,,,,,,,,,,,,,,,,,,,,,,,,,,,,,,,,,,,,,,,,,,,,,,,,,
,,,,,,,,,,,,,,,89790,001,2022-04-29_12h01.09.462,SPAMnetsValid,2021.1.4,Win32,60.07088364,,,,,,,,,,,,,,,,,,,,,,,,,2,4.5996,0,6,6,6,1,prolific,scarce,producing abundantly,reckless,speaking profanely,2,,,,,,,,,,,,,,,,,,,,,,,,,,,,,,,,,,,,,,,,,,,,,,,,,,,,
,,,,,,,,,,,,,,,89790,001,2022-04-29_12h01.09.462,SPAMnetsValid,2021.1.4,Win32,60.07088364,,,,,,,,,,,,,,,,,,,,,,,,,2,3.2674,0,7,7,7,1,opulent,party,wealthy,happy frame of mind,semiprecious stone,2,,,,,,,,,,,,,,,,,,,,,,,,,,,,,,,,,,,,,,,,,,,,,,,,,,,,
,,,,,,,,,,,,,,,89790,001,2022-04-29_12h01.09.462,SPAMnetsValid,2021.1.4,Win32,60.07088364,,,,,,,,,,,,,,,,,,,,,,,,,1,4.8125,0,8,8,8,1,coercion,conspiracy,strategy,restraint,attraction,3,,,,,,,,,,,,,,,,,,,,,,,,,,,,,,,,,,,,,,,,,,,,,,,,,,,,
,,,,,,,,,,,,,,,89790,001,2022-04-29_12h01.09.462,SPAMnetsValid,2021.1.4,Win32,60.07088364,,,,,,,,,,,,,,,,,,,,,,,,,4,4.7527,0,9,9,9,1,hiatus,animal,calamity,dread,gap,4,,,,,,,,,,,,,,,,,,,,,,,,,,,,,,,,,,,,,,,,,,,,,,,,,,,,
,,,,,,,,,,,,,,,89790,001,2022-04-29_12h01.09.462,SPAMnetsValid,2021.1.4,Win32,60.07088364,,,,,,,,,,,,,,,,,,,,,,,,,3,10.4851,0,10,10,10,1,germane,microbe,contagious,relevant,different,3,,,,,,,,,,,,,,,,,,,,,,,,,,,,,,,,,,,,,,,,,,,,,,,,,,,,
,,,,,,,,,,,,,,,89790,001,2022-04-29_12h01.09.462,SPAMnetsValid,2021.1.4,Win32,60.07088364,,,,,,,,,,,,,,,,,,,,,,,,,3,7.3742,0,11,11,11,1,perfunctory,fundamental,formal,superficial,careful,3,,,,,,,,,,,,,,,,,,,,,,,,,,,,,,,,,,,,,,,,,,,,,,,,,,,,
,,,,,,,,,,,,,,,89790,001,2022-04-29_12h01.09.462,SPAMnetsValid,2021.1.4,Win32,60.07088364,,,,,,,,,,,,,,,,,,,,,,,,,4,4.9593,0,12,12,12,1,diverge,reveal,chant,distract the attention of,differ or turn off from,4,,,,,,,,,,,,,,,,,,,,,,,,,,,,,,,,,,,,,,,,,,,,,,,,,,,,
,,,,,,,,,,,,,,,89790,001,2022-04-29_12h01.09.462,SPAMnetsValid,2021.1.4,Win32,60.07088364,,,,,,,,,,,,,,,,,,,,,,,,,4,2.9639,0,13,13,13,1,evoke,take away,anger,connect,bring out,4,,,,,,,,,,,,,,,,,,,,,,,,,,,,,,,,,,,,,,,,,,,,,,,,,,,,
,,,,,,,,,,,,,,,89790,001,2022-04-29_12h01.09.462,SPAMnetsValid,2021.1.4,Win32,60.07088364,,,,,,,,,,,,,,,,,,,,,,,,,1,2.4942,0,14,14,14,1,pertinent,relevant,lying next to,necessary,bold,1,,,,,,,,,,,,,,,,,,,,,,,,,,,,,,,,,,,,,,,,,,,,,,,,,,,,
,,,,,,,,,,,,,,,89790,001,2022-04-29_12h01.09.462,SPAMnetsValid,2021.1.4,Win32,60.07088364,,,,,,,,,,,,,,,,,,,,,,,,,2,5.3633,0,15,15,15,1,holocaust,entirety,destruction,saintly,price,2,,,,,,,,,,,,,,,,,,,,,,,,,,,,,,,,,,,,,,,,,,,,,,,,,,,,
,,,,,,,,,,,,,,,89790,001,2022-04-29_12h01.09.462,SPAMnetsValid,2021.1.4,Win32,60.07088364,,,,,,,,,,,,,,,,,,,,,,,,,1,4.3691,0,16,16,16,1,piquant,mellow,fish,pungent,cloth,3,,,,,,,,,,,,,,,,,,,,,,,,,,,,,,,,,,,,,,,,,,,,,,,,,,,,
,,,,,,,,,,,,,,,89790,001,2022-04-29_12h01.09.462,SPAMnetsValid,2021.1.4,Win32,60.07088364,,,,,,,,,,,,,,,,,,,,,,,,,1,3.6688,0,17,17,17,1,firmament,foundation,heavens,strong,glue,2,,,,,,,,,,,,,,,,,,,,,,,,,,,,,,,,,,,,,,,,,,,,,,,,,,,,
,,,,,,,,,,,,,,,89790,001,2022-04-29_12h01.09.462,SPAMnetsValid,2021.1.4,Win32,60.07088364,,,,,,,,,,,,,,,,,,,,,,,,,,,,,,,,,,,,,,4,7.7259,0,0,0,0,1,marketable,partisan,jocular,marriageable,salable,essential,4,,,,,,,,,,,,,,,,,,,,,,,,,,,,,,,,,,,,,,
,,,,,,,,,,,,,,,89790,001,2022-04-29_12h01.09.462,SPAMnetsValid,2021.1.4,Win32,60.07088364,,,,,,,,,,,,,,,,,,,,,,,,,,,,,,,,,,,,,,5,5.5435,0,1,1,1,1,cottontail,squirrel,poplar,boa,marshy plant,rabbit,5,,,,,,,,,,,,,,,,,,,,,,,,,,,,,,,,,,,,,,
,,,,,,,,,,,,,,,89790,001,2022-04-29_12h01.09.462,SPAMnetsValid,2021.1.4,Win32,60.07088364,,,,,,,,,,,,,,,,,,,,,,,,,,,,,,,,,,,,,,3,2.2463,0,2,2,2,1,boggy,afraid,false,marshy,dense,black,3,,,,,,,,,,,,,,,,,,,,,,,,,,,,,,,,,,,,,,
,,,,,,,,,,,,,,,89790,001,2022-04-29_12h01.09.462,SPAMnetsValid,2021.1.4,Win32,60.07088364,,,,,,,,,,,,,,,,,,,,,,,,,,,,,,,,,,,,,,5,4.4246,0,3,3,3,1,gruesomeness,blackness,falseness,vindictiveness,drunkenness,ghastliness,5,,,,,,,,,,,,,,,,,,,,,,,,,,,,,,,,,,,,,,
,,,,,,,,,,,,,,,89790,001,2022-04-29_12h01.09.462,SPAMnetsValid,2021.1.4,Win32,60.07088364,,,,,,,,,,,,,,,,,,,,,,,,,,,,,,,,,,,,,,3,2.6384,0,4,4,4,1,loathing,diffidence,laziness,abhorrence,cleverness,comfort,3,,,,,,,,,,,,,,,,,,,,,,,,,,,,,,,,,,,,,,
,,,,,,,,,,,,,,,89790,001,2022-04-29_12h01.09.462,SPAMnetsValid,2021.1.4,Win32,60.07088364,,,,,,,,,,,,,,,,,,,,,,,,,,,,,,,,,,,,,,1,6.4582,0,5,5,5,1,bantam,fowl,ridicule,cripple,vegetable,ensign,1,,,,,,,,,,,,,,,,,,,,,,,,,,,,,,,,,,,,,,
,,,,,,,,,,,,,,,89790,001,2022-04-29_12h01.09.462,SPAMnetsValid,2021.1.4,Win32,60.07088364,,,,,,,,,,,,,,,,,,,,,,,,,,,,,,,,,,,,,,5,4.1391,0,6,6,6,1,evoke,wake up,surrender,reconnoiter,transcend,call forth,5,,,,,,,,,,,,,,,,,,,,,,,,,,,,,,,,,,,,,,
,,,,,,,,,,,,,,,89790,001,2022-04-29_12h01.09.462,SPAMnetsValid,2021.1.4,Win32,60.07088364,,,,,,,,,,,,,,,,,,,,,,,,,,,,,,,,,,,,,,3,10.1755,0,7,7,7,1,unobtrusive,unintelligent,epileptic,illogical,lineal,modest,5,,,,,,,,,,,,,,,,,,,,,,,,,,,,,,,,,,,,,,
,,,,,,,,,,,,,,,89790,001,2022-04-29_12h01.09.462,SPAMnetsValid,2021.1.4,Win32,60.07088364,,,,,,,,,,,,,,,,,,,,,,,,,,,,,,,,,,,,,,4,2.7434,0,8,8,8,1,terrain,ice cream,final test,tractor,area of ground,weight,4,,,,,,,,,,,,,,,,,,,,,,,,,,,,,,,,,,,,,,
,,,,,,,,,,,,,,,89790,001,2022-04-29_12h01.09.462,SPAMnetsValid,2021.1.4,Win32,60.07088364,,,,,,,,,,,,,,,,,,,,,,,,,,,,,,,,,,,,,,3,6.179,0,9,9,9,1,capriciousness,stubbornness,courage,whimsicality,amazement,greediness,3,,,,,,,,,,,,,,,,,,,,,,,,,,,,,,,,,,,,,,
,,,,,,,,,,,,,,,89790,001,2022-04-29_12h01.09.462,SPAMnetsValid,2021.1.4,Win32,60.07088364,,,,,,,,,,,,,,,,,,,,,,,,,,,,,,,,,,,,,,2,2.5553,0,10,10,10,1,maelstrom,slander,whirlpool,enmity,armor,majolica,2,,,,,,,,,,,,,,,,,,,,,,,,,,,,,,,,,,,,,,
,,,,,,,,,,,,,,,89790,001,2022-04-29_12h01.09.462,SPAMnetsValid,2021.1.4,Win32,60.07088364,,,,,,,,,,,,,,,,,,,,,,,,,,,,,,,,,,,,,,5,3.4272,0,11,11,11,1,tentative,critical,conclusive,authentic,provisional,apprehensive,4,,,,,,,,,,,,,,,,,,,,,,,,,,,,,,,,,,,,,,
,,,,,,,,,,,,,,,89790,001,2022-04-29_12h01.09.462,SPAMnetsValid,2021.1.4,Win32,60.07088364,,,,,,,,,,,,,,,,,,,,,,,,,,,,,,,,,,,,,,3,14.1708,0,12,12,12,1,placate,rehabilitate,plagiarize,depredate,apprise,conciliate,5,,,,,,,,,,,,,,,,,,,,,,,,,,,,,,,,,,,,,,
,,,,,,,,,,,,,,,89790,001,2022-04-29_12h01.09.462,SPAMnetsValid,2021.1.4,Win32,60.07088364,,,,,,,,,,,,,,,,,,,,,,,,,,,,,,,,,,,,,,2,4.9309,0,13,13,13,1,surcease,enlightenment,cessation,inattention,censor,substitution,2,,,,,,,,,,,,,,,,,,,,,,,,,,,,,,,,,,,,,,
,,,,,,,,,,,,,,,89790,001,2022-04-29_12h01.09.462,SPAMnetsValid,2021.1.4,Win32,60.07088364,,,,,,,,,,,,,,,,,,,,,,,,,,,,,,,,,,,,,,3,11.5849,0,14,14,14,1,apathetic,wandering,impassive,hateful,prophetic,overflowing,2,,,,,,,,,,,,,,,,,,,,,,,,,,,,,,,,,,,,,,
,,,,,,,,,,,,,,,89790,001,2022-04-29_12h01.09.462,SPAMnetsValid,2021.1.4,Win32,60.07088364,,,,,,,,,,,,,,,,,,,,,,,,,,,,,,,,,,,,,,1,9.2263,0,15,15,15,1,paternoster,paternalism,patricide,malediction,benediction,prayer,5,,,,,,,,,,,,,,,,,,,,,,,,,,,,,,,,,,,,,,
,,,,,,,,,,,,,,,89790,001,2022-04-29_12h01.09.462,SPAMnetsValid,2021.1.4,Win32,60.07088364,,,,,,,,,,,,,,,,,,,,,,,,,,,,,,,,,,,,,,4,6.9229,0,16,16,16,1,opalescence,opulence,senescence,bankruptcy,iridescence,assiduity,4,,,,,,,,,,,,,,,,,,,,,,,,,,,,,,,,,,,,,,
,,,,,,,,,,,,,,,89790,001,2022-04-29_12h01.09.462,SPAMnetsValid,2021.1.4,Win32,60.07088364,,,,,,,,,,,,,,,,,,,,,,,,,,,,,,,,,,,,,,2,3.9632,0,17,17,17,1,lush,stupid,luxurious,hazy,putrid,languishing,2,,,,,,,,,,,,,,,,,,,,,,,,,,,,,,,,,,,,,,
,,,,,,,,,,,,,,,89790,001,2022-04-29_12h01.09.462,SPAMnetsValid,2021.1.4,Win32,60.07088364,,,,,,,,,,,,,,,,,,,,,,,,,,,,,,,,,,,,,,3,7.2261,0,18,18,18,1,curtailment,expenditure,abandonment,abridgment,improvement,forgery,3,,,,,,,,,,,,,,,,,,,,,,,,,,,,,,,,,,,,,,
,,,,,,,,,,,,,,,89790,001,2022-04-29_12h01.09.462,SPAMnetsValid,2021.1.4,Win32,60.07088364,,,,,,,,,,,,,,,,,,,,,,,,,,,,,,,,,,,,,,2,4.5294,0,19,19,19,1,perversity,adversity,perviousness,travesty,waywardness,gentility,4,,,,,,,,,,,,,,,,,,,,,,,,,,,,,,,,,,,,,,
,,,,,,,,,,,,,,,89790,001,2022-04-29_12h01.09.462,SPAMnetsValid,2021.1.4,Win32,60.07088364,,,,,,,,,,,,,,,,,,,,,,,,,,,,,,,,,,,,,,3,4.9235,0,20,20,20,1,calumnious,complimentary,analogous,slanderous,tempestuous,magnanimous,3,,,,,,,,,,,,,,,,,,,,,,,,,,,,,,,,,,,,,,
,,,,,,,,,,,,,,,89790,001,2022-04-29_12h01.09.462,SPAMnetsValid,2021.1.4,Win32,60.07088364,,,,,,,,,,,,,,,,,,,,,,,,,,,,,,,,,,,,,,1,12.6008,0,21,21,21,1,illiberality,bigotry,imbecility,illegibility,cautery,immaturity,1,,,,,,,,,,,,,,,,,,,,,,,,,,,,,,,,,,,,,,
,,,,,,,,,,,,,,,89790,001,2022-04-29_12h01.09.462,SPAMnetsValid,2021.1.4,Win32,60.07088364,,,,,,,,,,,,,,,,,,,,,,,,,,,,,,,,,,,,,,2,6.5423,0,22,22,22,1,clabber,rejoice,gossip,curdle,crow,hobble,3,,,,,,,,,,,,,,,,,,,,,,,,,,,,,,,,,,,,,,
,,,,,,,,,,,,,,,89790,001,2022-04-29_12h01.09.462,SPAMnetsValid,2021.1.4,Win32,60.07088364,,,,,,,,,,,,,,,,,,,,,,,,,,,,,,,,,,,,,,1,11.959,0,23,23,23,1,sedulousness,diligence,credulousness,seduction,perilousness,frankness,1,,,,,,,,,,,,,,,,,,,,,,,,,,,,,,,,,,,,,,
,,,,,,,,,,,,,,,89790,001,2022-04-29_12h01.09.462,SPAMnetsValid,2021.1.4,Win32,60.07088364,,,,,,,,,,,,,,,,,,,,,,,,,,,,,,,,,,,,,,,,,,,,,,,,,,,,"light, cake, foreplay, arson,birthday",candle,0,0,0,0,1,,,,,,,,,,,,,,,,,,,,,,,,,,,,,,,
,,,,,,,,,,,,,,,89790,001,2022-04-29_12h01.09.462,SPAMnetsValid,2021.1.4,Win32,60.07088364,,,,,,,,,,,,,,,,,,,,,,,,,,,,,,,,,,,,,,,,,,,,,,,,,,,,celebration,candle,1,0,1,0,1,,,,,,,,,,,,,,,,,,,,,,,,,,,,,,,
,,,,,,,,,,,,,,,89790,001,2022-04-29_12h01.09.462,SPAMnetsValid,2021.1.4,Win32,60.07088364,,,,,,,,,,,,,,,,,,,,,,,,,,,,,,,,,,,,,,,,,,,,,,,,,,,,foreplay,candle,2,0,2,0,1,,,,,,,,,,,,,,,,,,,,,,,,,,,,,,,
,,,,,,,,,,,,,,,89790,001,2022-04-29_12h01.09.462,SPAMnetsValid,2021.1.4,Win32,60.07088364,,,,,,,,,,,,,,,,,,,,,,,,,,,,,,,,,,,,,,,,,,,,,,,,,,,,seduction,candle,3,0,3,0,1,,,,,,,,,,,,,,,,,,,,,,,,,,,,,,,
,,,,,,,,,,,,,,,89790,001,2022-04-29_12h01.09.462,SPAMnetsValid,2021.1.4,Win32,60.07088364,,,,,,,,,,,,,,,,,,,,,,,,,,,,,,,,,,,,,,,,,,,,,,,,,,,,romance,candle,4,0,4,0,1,,,,,,,,,,,,,,,,,,,,,,,,,,,,,,,
,,,,,,,,,,,,,,,89790,001,2022-04-29_12h01.09.462,SPAMnetsValid,2021.1.4,Win32,60.07088364,,,,,,,,,,,,,,,,,,,,,,,,,,,,,,,,,,,,,,,,,,,,,,,,,,,,destruction,candle,5,0,5,0,1,,,,,,,,,,,,,,,,,,,,,,,,,,,,,,,
,,,,,,,,,,,,,,,89790,001,2022-04-29_12h01.09.462,SPAMnetsValid,2021.1.4,Win32,60.07088364,,,,,,,,,,,,,,,,,,,,,,,,,,,,,,,,,,,,,,,,,,,,,,,,,,,,mood,candle,6,0,6,0,1,,,,,,,,,,,,,,,,,,,,,,,,,,,,,,,
,,,,,,,,,,,,,,,89790,001,2022-04-29_12h01.09.462,SPAMnetsValid,2021.1.4,Win32,60.07088364,,,,,,,,,,,,,,,,,,,,,,,,,,,,,,,,,,,,,,,,,,,,,,,,,,,,light,candle,7,0,7,0,1,,,,,,,,,,,,,,,,,,,,,,,,,,,,,,,
,,,,,,,,,,,,,,,89790,001,2022-04-29_12h01.09.462,SPAMnetsValid,2021.1.4,Win32,60.07088364,,,,,,,,,,,,,,,,,,,,,,,,,,,,,,,,,,,,,,,,,,,,,,,,,,,,scent,candle,8,0,8,0,1,,,,,,,,,,,,,,,,,,,,,,,,,,,,,,,
,,,,,,,,,,,,,,,89790,001,2022-04-29_12h01.09.462,SPAMnetsValid,2021.1.4,Win32,60.07088364,,,,,,,,,,,,,,,,,,,,,,,,,,,,,,,,,,,,,,,,,,,,,,,,,,,,ambience,candle,9,0,9,0,1,,,,,,,,,,,,,,,,,,,,,,,,,,,,,,,
,,,,,,,,,,,,,,,89790,001,2022-04-29_12h01.09.462,SPAMnetsValid,2021.1.4,Win32,60.07088364,,,,,,,,,,,,,,,,,,,,,,,,,,,,,,,,,,,,,,,,,,,,,,,,,,,,,,,,,,,0,0,0,1,1,candle,,,,,,,,,,,,,,,,,,,,,,,,,
,,,,,,,,,,,,,,,89790,001,2022-04-29_12h01.09.462,SPAMnetsValid,2021.1.4,Win32,60.07088364,,,,,,,,,,,,,,,,,,,,,,,,,,,,,,,,,,,,,,,,,,,,,,,,,,,,carrying,bucket,0,0,0,0,1,,,,,,,,,,,,,,,,,,,,,,,,,,,,,,,
,,,,,,,,,,,,,,,89790,001,2022-04-29_12h01.09.462,SPAMnetsValid,2021.1.4,Win32,60.07088364,,,,,,,,,,,,,,,,,,,,,,,,,,,,,,,,,,,,,,,,,,,,,,,,,,,,covering,bucket,1,0,1,0,1,,,,,,,,,,,,,,,,,,,,,,,,,,,,,,,
,,,,,,,,,,,,,,,89790,001,2022-04-29_12h01.09.462,SPAMnetsValid,2021.1.4,Win32,60.07088364,,,,,,,,,,,,,,,,,,,,,,,,,,,,,,,,,,,,,,,,,,,,,,,,,,,,used as a step,bucket,2,0,2,0,1,,,,,,,,,,,,,,,,,,,,,,,,,,,,,,,
,,,,,,,,,,,,,,,89790,001,2022-04-29_12h01.09.462,SPAMnetsValid,2021.1.4,Win32,60.07088364,,,,,,,,,,,,,,,,,,,,,,,,,,,,,,,,,,,,,,,,,,,,,,,,,,,,used to makenoise,bucket,3,0,3,0,1,,,,,,,,,,,,,,,,,,,,,,,,,,,,,,,
,,,,,,,,,,,,,,,89790,001,2022-04-29_12h01.09.462,SPAMnetsValid,2021.1.4,Win32,60.07088364,,,,,,,,,,,,,,,,,,,,,,,,,,,,,,,,,,,,,,,,,,,,,,,,,,,,hold liquids,bucket,4,0,4,0,1,,,,,,,,,,,,,,,,,,,,,,,,,,,,,,,
,,,,,,,,,,,,,,,89790,001,2022-04-29_12h01.09.462,SPAMnetsValid,2021.1.4,Win32,60.07088364,,,,,,,,,,,,,,,,,,,,,,,,,,,,,,,,,,,,,,,,,,,,,,,,,,,,,bucket,5,0,5,0,1,,,,,,,,,,,,,,,,,,,,,,,,,,,,,,,
,,,,,,,,,,,,,,,89790,001,2022-04-29_12h01.09.462,SPAMnetsValid,2021.1.4,Win32,60.07088364,,,,,,,,,,,,,,,,,,,,,,,,,,,,,,,,,,,,,,,,,,,,,,,,,,,,used for projects,bucket,6,0,6,0,1,,,,,,,,,,,,,,,,,,,,,,,,,,,,,,,
,,,,,,,,,,,,,,,89790,001,2022-04-29_12h01.09.462,SPAMnetsValid,2021.1.4,Win32,60.07088364,,,,,,,,,,,,,,,,,,,,,,,,,,,,,,,,,,,,,,,,,,,,,,,,,,,,tool,bucket,7,0,7,0,1,,,,,,,,,,,,,,,,,,,,,,,,,,,,,,,
,,,,,,,,,,,,,,,89790,001,2022-04-29_12h01.09.462,SPAMnetsValid,2021.1.4,Win32,60.07088364,,,,,,,,,,,,,,,,,,,,,,,,,,,,,,,,,,,,,,,,,,,,,,,,,,,,paint bucket,bucket,8,0,8,0,1,,,,,,,,,,,,,,,,,,,,,,,,,,,,,,,
,,,,,,,,,,,,,,,89790,001,2022-04-29_12h01.09.462,SPAMnetsValid,2021.1.4,Win32,60.07088364,,,,,,,,,,,,,,,,,,,,,,,,,,,,,,,,,,,,,,,,,,,,,,,,,,,,,,,,,,,0,1,1,0,1,bucket,,,,,,,,,,,,,,,,,,,,,,,,,
,,,,,,,,,,,,,,,89790,001,2022-04-29_12h01.09.462,SPAMnetsValid,2021.1.4,Win32,60.07088364,,,,,,,,,,,,,,,,,,,,,,,,,,,,,,,,,,,,,,,,,,,,,,,,,,,,pillow fight,pillow,0,0,0,0,1,,,,,,,,,,,,,,,,,,,,,,,,,,,,,,,
,,,,,,,,,,,,,,,89790,001,2022-04-29_12h01.09.462,SPAMnetsValid,2021.1.4,Win32,60.07088364,,,,,,,,,,,,,,,,,,,,,,,,,,,,,,,,,,,,,,,,,,,,,,,,,,,,sleep,pillow,1,0,1,0,1,,,,,,,,,,,,,,,,,,,,,,,,,,,,,,,
,,,,,,,,,,,,,,,89790,001,2022-04-29_12h01.09.462,SPAMnetsValid,2021.1.4,Win32,60.07088364,,,,,,,,,,,,,,,,,,,,,,,,,,,,,,,,,,,,,,,,,,,,,,,,,,,,cuddle buddy,pillow,2,0,2,0,1,,,,,,,,,,,,,,,,,,,,,,,,,,,,,,,
,,,,,,,,,,,,,,,89790,001,2022-04-29_12h01.09.462,SPAMnetsValid,2021.1.4,Win32,60.07088364,,,,,,,,,,,,,,,,,,,,,,,,,,,,,,,,,,,,,,,,,,,,,,,,,,,,smothering someone,pillow,3,0,3,0,1,,,,,,,,,,,,,,,,,,,,,,,,,,,,,,,
,,,,,,,,,,,,,,,89790,001,2022-04-29_12h01.09.462,SPAMnetsValid,2021.1.4,Win32,60.07088364,,,,,,,,,,,,,,,,,,,,,,,,,,,,,,,,,,,,,,,,,,,,,,,,,,,,noise dampener,pillow,4,0,4,0,1,,,,,,,,,,,,,,,,,,,,,,,,,,,,,,,
,,,,,,,,,,,,,,,89790,001,2022-04-29_12h01.09.462,SPAMnetsValid,2021.1.4,Win32,60.07088364,,,,,,,,,,,,,,,,,,,,,,,,,,,,,,,,,,,,,,,,,,,,,,,,,,,,foot rest,pillow,5,0,5,0,1,,,,,,,,,,,,,,,,,,,,,,,,,,,,,,,
,,,,,,,,,,,,,,,89790,001,2022-04-29_12h01.09.462,SPAMnetsValid,2021.1.4,Win32,60.07088364,,,,,,,,,,,,,,,,,,,,,,,,,,,,,,,,,,,,,,,,,,,,,,,,,,,,lumbar support,pillow,6,0,6,0,1,,,,,,,,,,,,,,,,,,,,,,,,,,,,,,,
,,,,,,,,,,,,,,,89790,001,2022-04-29_12h01.09.462,SPAMnetsValid,2021.1.4,Win32,60.07088364,,,,,,,,,,,,,,,,,,,,,,,,,,,,,,,,,,,,,,,,,,,,,,,,,,,,pillow fort,pillow,7,0,7,0,1,,,,,,,,,,,,,,,,,,,,,,,,,,,,,,,
,,,,,,,,,,,,,,,89790,001,2022-04-29_12h01.09.462,SPAMnetsValid,2021.1.4,Win32,60.07088364,,,,,,,,,,,,,,,,,,,,,,,,,,,,,,,,,,,,,,,,,,,,,,,,,,,,cover yourself in pillows,pillow,8,0,8,0,1,,,,,,,,,,,,,,,,,,,,,,,,,,,,,,,
,,,,,,,,,,,,,,,89790,001,2022-04-29_12h01.09.462,SPAMnetsValid,2021.1.4,Win32,60.07088364,,,,,,,,,,,,,,,,,,,,,,,,,,,,,,,,,,,,,,,,,,,,,,,,,,,,,,,,,,,0,2,2,2,1,pillow,,,,,,,,,,,,,,,,,,,,,,,,,
,,,,,,,,,,,,,,,89790,001,2022-04-29_12h01.09.462,SPAMnetsValid,2021.1.4,Win32,60.07088364,,,,,,,,,,,,,,,,,,,,,,,,,,,,,,,,,,,,,,,,,,,,,,,,,,,,,,,,,,,,,,,,,cow,Animals,0,0,0,0,1,,,,,,,,,,,,,,,,,,
,,,,,,,,,,,,,,,89790,001,2022-04-29_12h01.09.462,SPAMnetsValid,2021.1.4,Win32,60.07088364,,,,,,,,,,,,,,,,,,,,,,,,,,,,,,,,,,,,,,,,,,,,,,,,,,,,,,,,,,,,,,,,,deer,Animals,1,0,1,0,1,,,,,,,,,,,,,,,,,,
,,,,,,,,,,,,,,,89790,001,2022-04-29_12h01.09.462,SPAMnetsValid,2021.1.4,Win32,60.07088364,,,,,,,,,,,,,,,,,,,,,,,,,,,,,,,,,,,,,,,,,,,,,,,,,,,,,,,,,,,,,,,,,dolphin,Animals,2,0,2,0,1,,,,,,,,,,,,,,,,,,
,,,,,,,,,,,,,,,89790,001,2022-04-29_12h01.09.462,SPAMnetsValid,2021.1.4,Win32,60.07088364,,,,,,,,,,,,,,,,,,,,,,,,,,,,,,,,,,,,,,,,,,,,,,,,,,,,,,,,,,,,,,,,,elephant,Animals,3,0,3,0,1,,,,,,,,,,,,,,,,,,
,,,,,,,,,,,,,,,89790,001,2022-04-29_12h01.09.462,SPAMnetsValid,2021.1.4,Win32,60.07088364,,,,,,,,,,,,,,,,,,,,,,,,,,,,,,,,,,,,,,,,,,,,,,,,,,,,,,,,,,,,,,,,,cat,Animals,4,0,4,0,1,,,,,,,,,,,,,,,,,,
,,,,,,,,,,,,,,,89790,001,2022-04-29_12h01.09.462,SPAMnetsValid,2021.1.4,Win32,60.07088364,,,,,,,,,,,,,,,,,,,,,,,,,,,,,,,,,,,,,,,,,,,,,,,,,,,,,,,,,,,,,,,,,mouse,Animals,5,0,5,0,1,,,,,,,,,,,,,,,,,,
,,,,,,,,,,,,,,,89790,001,2022-04-29_12h01.09.462,SPAMnetsValid,2021.1.4,Win32,60.07088364,,,,,,,,,,,,,,,,,,,,,,,,,,,,,,,,,,,,,,,,,,,,,,,,,,,,,,,,,,,,,,,,,horse,Animals,6,0,6,0,1,,,,,,,,,,,,,,,,,,
,,,,,,,,,,,,,,,89790,001,2022-04-29_12h01.09.462,SPAMnetsValid,2021.1.4,Win32,60.07088364,,,,,,,,,,,,,,,,,,,,,,,,,,,,,,,,,,,,,,,,,,,,,,,,,,,,,,,,,,,,,,,,,giraffe,Animals,7,0,7,0,1,,,,,,,,,,,,,,,,,,
,,,,,,,,,,,,,,,89790,001,2022-04-29_12h01.09.462,SPAMnetsValid,2021.1.4,Win32,60.07088364,,,,,,,,,,,,,,,,,,,,,,,,,,,,,,,,,,,,,,,,,,,,,,,,,,,,,,,,,,,,,,,,,zebra,Animals,8,0,8,0,1,,,,,,,,,,,,,,,,,,
,,,,,,,,,,,,,,,89790,001,2022-04-29_12h01.09.462,SPAMnetsValid,2021.1.4,Win32,60.07088364,,,,,,,,,,,,,,,,,,,,,,,,,,,,,,,,,,,,,,,,,,,,,,,,,,,,,,,,,,,,,,,,,lion,Animals,9,0,9,0,1,,,,,,,,,,,,,,,,,,
,,,,,,,,,,,,,,,89790,001,2022-04-29_12h01.09.462,SPAMnetsValid,2021.1.4,Win32,60.07088364,,,,,,,,,,,,,,,,,,,,,,,,,,,,,,,,,,,,,,,,,,,,,,,,,,,,,,,,,,,,,,,,,tiger,Animals,10,0,10,0,1,,,,,,,,,,,,,,,,,,
,,,,,,,,,,,,,,,89790,001,2022-04-29_12h01.09.462,SPAMnetsValid,2021.1.4,Win32,60.07088364,,,,,,,,,,,,,,,,,,,,,,,,,,,,,,,,,,,,,,,,,,,,,,,,,,,,,,,,,,,,,,,,,bear,Animals,11,0,11,0,1,,,,,,,,,,,,,,,,,,
,,,,,,,,,,,,,,,89790,001,2022-04-29_12h01.09.462,SPAMnetsValid,2021.1.4,Win32,60.07088364,,,,,,,,,,,,,,,,,,,,,,,,,,,,,,,,,,,,,,,,,,,,,,,,,,,,,,,,,,,,,,,,,goat,Animals,12,0,12,0,1,,,,,,,,,,,,,,,,,,
,,,,,,,,,,,,,,,89790,001,2022-04-29_12h01.09.462,SPAMnetsValid,2021.1.4,Win32,60.07088364,,,,,,,,,,,,,,,,,,,,,,,,,,,,,,,,,,,,,,,,,,,,,,,,,,,,,,,,,,,,,,,,,sheep,Animals,13,0,13,0,1,,,,,,,,,,,,,,,,,,
,,,,,,,,,,,,,,,89790,001,2022-04-29_12h01.09.462,SPAMnetsValid,2021.1.4,Win32,60.07088364,,,,,,,,,,,,,,,,,,,,,,,,,,,,,,,,,,,,,,,,,,,,,,,,,,,,,,,,,,,,,,,,,pig,Animals,14,0,14,0,1,,,,,,,,,,,,,,,,,,
,,,,,,,,,,,,,,,89790,001,2022-04-29_12h01.09.462,SPAMnetsValid,2021.1.4,Win32,60.07088364,,,,,,,,,,,,,,,,,,,,,,,,,,,,,,,,,,,,,,,,,,,,,,,,,,,,,,,,,,,,,,,,,boar,Animals,15,0,15,0,1,,,,,,,,,,,,,,,,,,
,,,,,,,,,,,,,,,89790,001,2022-04-29_12h01.09.462,SPAMnetsValid,2021.1.4,Win32,60.07088364,,,,,,,,,,,,,,,,,,,,,,,,,,,,,,,,,,,,,,,,,,,,,,,,,,,,,,,,,,,,,,,,,turtle,Animals,16,0,16,0,1,,,,,,,,,,,,,,,,,,
,,,,,,,,,,,,,,,89790,001,2022-04-29_12h01.09.462,SPAMnetsValid,2021.1.4,Win32,60.07088364,,,,,,,,,,,,,,,,,,,,,,,,,,,,,,,,,,,,,,,,,,,,,,,,,,,,,,,,,,,,,,,,,guinea pig,Animals,17,0,17,0,1,,,,,,,,,,,,,,,,,,
,,,,,,,,,,,,,,,89790,001,2022-04-29_12h01.09.462,SPAMnetsValid,2021.1.4,Win32,60.07088364,,,,,,,,,,,,,,,,,,,,,,,,,,,,,,,,,,,,,,,,,,,,,,,,,,,,,,,,,,,,,,,,,ferret,Animals,18,0,18,0,1,,,,,,,,,,,,,,,,,,
,,,,,,,,,,,,,,,89790,001,2022-04-29_12h01.09.462,SPAMnetsValid,2021.1.4,Win32,60.07088364,,,,,,,,,,,,,,,,,,,,,,,,,,,,,,,,,,,,,,,,,,,,,,,,,,,,,,,,,,,,,,,,,chinchilla,Animals,19,0,19,0,1,,,,,,,,,,,,,,,,,,
,,,,,,,,,,,,,,,89790,001,2022-04-29_12h01.09.462,SPAMnetsValid,2021.1.4,Win32,60.07088364,,,,,,,,,,,,,,,,,,,,,,,,,,,,,,,,,,,,,,,,,,,,,,,,,,,,,,,,,,,,,,,,,snake,Animals,20,0,20,0,1,,,,,,,,,,,,,,,,,,
,,,,,,,,,,,,,,,89790,001,2022-04-29_12h01.09.462,SPAMnetsValid,2021.1.4,Win32,60.07088364,,,,,,,,,,,,,,,,,,,,,,,,,,,,,,,,,,,,,,,,,,,,,,,,,,,,,,,,,,,,,,,,,leopard,Animals,21,0,21,0,1,,,,,,,,,,,,,,,,,,
,,,,,,,,,,,,,,,89790,001,2022-04-29_12h01.09.462,SPAMnetsValid,2021.1.4,Win32,60.07088364,,,,,,,,,,,,,,,,,,,,,,,,,,,,,,,,,,,,,,,,,,,,,,,,,,,,,,,,,,,,,,,,,monkey,Animals,22,0,22,0,1,,,,,,,,,,,,,,,,,,
,,,,,,,,,,,,,,,89790,001,2022-04-29_12h01.09.462,SPAMnetsValid,2021.1.4,Win32,60.07088364,,,,,,,,,,,,,,,,,,,,,,,,,,,,,,,,,,,,,,,,,,,,,,,,,,,,,,,,,,,,,,,,,ant eater,Animals,23,0,23,0,1,,,,,,,,,,,,,,,,,,
,,,,,,,,,,,,,,,89790,001,2022-04-29_12h01.09.462,SPAMnetsValid,2021.1.4,Win32,60.07088364,,,,,,,,,,,,,,,,,,,,,,,,,,,,,,,,,,,,,,,,,,,,,,,,,,,,,,,,,,,,,,,,,echidna,Animals,24,0,24,0,1,,,,,,,,,,,,,,,,,,
,,,,,,,,,,,,,,,89790,001,2022-04-29_12h01.09.462,SPAMnetsValid,2021.1.4,Win32,60.07088364,,,,,,,,,,,,,,,,,,,,,,,,,,,,,,,,,,,,,,,,,,,,,,,,,,,,,,,,,,,,,,,,,tapir,Animals,25,0,25,0,1,,,,,,,,,,,,,,,,,,
,,,,,,,,,,,,,,,89790,001,2022-04-29_12h01.09.462,SPAMnetsValid,2021.1.4,Win32,60.07088364,,,,,,,,,,,,,,,,,,,,,,,,,,,,,,,,,,,,,,,,,,,,,,,,,,,,,,,,,,,,,,,,,hedgehog,Animals,26,0,26,0,1,,,,,,,,,,,,,,,,,,
,,,,,,,,,,,,,,,89790,001,2022-04-29_12h01.09.462,SPAMnetsValid,2021.1.4,Win32,60.07088364,,,,,,,,,,,,,,,,,,,,,,,,,,,,,,,,,,,,,,,,,,,,,,,,,,,,,,,,,,,,,,,,,moose,Animals,27,0,27,0,1,,,,,,,,,,,,,,,,,,
,,,,,,,,,,,,,,,89790,001,2022-04-29_12h01.09.462,SPAMnetsValid,2021.1.4,Win32,60.07088364,,,,,,,,,,,,,,,,,,,,,,,,,,,,,,,,,,,,,,,,,,,,,,,,,,,,,,,,,,,,,,,,,elk,Animals,28,0,28,0,1,,,,,,,,,,,,,,,,,,
,,,,,,,,,,,,,,,89790,001,2022-04-29_12h01.09.462,SPAMnetsValid,2021.1.4,Win32,60.07088364,,,,,,,,,,,,,,,,,,,,,,,,,,,,,,,,,,,,,,,,,,,,,,,,,,,,,,,,,,,,,,,,,reindeer,Animals,29,0,29,0,1,,,,,,,,,,,,,,,,,,
,,,,,,,,,,,,,,,89790,001,2022-04-29_12h01.09.462,SPAMnetsValid,2021.1.4,Win32,60.07088364,,,,,,,,,,,,,,,,,,,,,,,,,,,,,,,,,,,,,,,,,,,,,,,,,,,,,,,,,,,,,,,,,,,,,,,,0,0,0,0,1,Animals,,,,,,,,,,,,
,,,,,,,,,,,,,,,89790,001,2022-04-29_12h01.09.462,SPAMnetsValid,2021.1.4,Win32,60.07088364,,,,,,,,,,,,,,,,,,,,,,,,,,,,,,,,,,,,,,,,,,,,,,,,,,,,,,,,,,,,,,,,,,,,,,,,,,,,,,4,6.753,0,0,0,0,1,"I enjoy concentrating on a fantasy or daydream and exploring all its possibilities, letting it grow and develop.",0,1,,
,,,,,,,,,,,,,,,89790,001,2022-04-29_12h01.09.462,SPAMnetsValid,2021.1.4,Win32,60.07088364,,,,,,,,,,,,,,,,,,,,,,,,,,,,,,,,,,,,,,,,,,,,,,,,,,,,,,,,,,,,,,,,,,,,,,,,,,,,,,5,1.7983,0,1,1,1,1,I think it's interesting to learn and develop new hobbies.,0,2,,
,,,,,,,,,,,,,,,89790,001,2022-04-29_12h01.09.462,SPAMnetsValid,2021.1.4,Win32,60.07088364,,,,,,,,,,,,,,,,,,,,,,,,,,,,,,,,,,,,,,,,,,,,,,,,,,,,,,,,,,,,,,,,,,,,,,,,,,,,,,5,2.3646,0,2,2,2,1,I am intrigued by the patterns I find in art and nature.,0,3,,
,,,,,,,,,,,,,,,89790,001,2022-04-29_12h01.09.462,SPAMnetsValid,2021.1.4,Win32,60.07088364,,,,,,,,,,,,,,,,,,,,,,,,,,,,,,,,,,,,,,,,,,,,,,,,,,,,,,,,,,,,,,,,,,,,,,,,,,,,,,1,6.2058,0,3,3,3,1,I believe letting students hear controversial speakers can only confuse and mislead them.,1,4,,
,,,,,,,,,,,,,,,89790,001,2022-04-29_12h01.09.462,SPAMnetsValid,2021.1.4,Win32,60.07088364,,,,,,,,,,,,,,,,,,,,,,,,,,,,,,,,,,,,,,,,,,,,,,,,,,,,,,,,,,,,,,,,,,,,,,,,,,,,,,2,2.8369,0,4,4,4,1,Poetry has little or no effect on me.,1,5,,
,,,,,,,,,,,,,,,89790,001,2022-04-29_12h01.09.462,SPAMnetsValid,2021.1.4,Win32,60.07088364,,,,,,,,,,,,,,,,,,,,,,,,,,,,,,,,,,,,,,,,,,,,,,,,,,,,,,,,,,,,,,,,,,,,,,,,,,,,,,2,3.921,0,5,5,5,1,I would have difficulty just letting my mind wander without control or guidance.,1,6,,
,,,,,,,,,,,,,,,89790,001,2022-04-29_12h01.09.462,SPAMnetsValid,2021.1.4,Win32,60.07088364,,,,,,,,,,,,,,,,,,,,,,,,,,,,,,,,,,,,,,,,,,,,,,,,,,,,,,,,,,,,,,,,,,,,,,,,,,,,,,1,3.2918,0,6,6,6,1,I seldom notice the moods or feelings that different environments produce.,1,7,,
,,,,,,,,,,,,,,,89790,001,2022-04-29_12h01.09.462,SPAMnetsValid,2021.1.4,Win32,60.07088364,,,,,,,,,,,,,,,,,,,,,,,,,,,,,,,,,,,,,,,,,,,,,,,,,,,,,,,,,,,,,,,,,,,,,,,,,,,,,,2,3.2204,0,7,7,7,1,I experience a wide range of emotions or feelings.,0,8,,
,,,,,,,,,,,,,,,89790,001,2022-04-29_12h01.09.462,SPAMnetsValid,2021.1.4,Win32,60.07088364,,,,,,,,,,,,,,,,,,,,,,,,,,,,,,,,,,,,,,,,,,,,,,,,,,,,,,,,,,,,,,,,,,,,,,,,,,,,,,4,4.5793,0,8,8,8,1,"Sometimes when I am reading poetry or looking at a work of art, I feel a chill or wave of excitement.",0,9,,
,,,,,,,,,,,,,,,89790,001,2022-04-29_12h01.09.462,SPAMnetsValid,2021.1.4,Win32,60.07088364,,,,,,,,,,,,,,,,,,,,,,,,,,,,,,,,,,,,,,,,,,,,,,,,,,,,,,,,,,,,,,,,,,,,,,,,,,,,,,5,3.2989,0,9,9,9,1,I have little interest in speculating on the nature of the universe or the human condition.,1,10,,
,,,,,,,,,,,,,,,89790,001,2022-04-29_12h01.09.462,SPAMnetsValid,2021.1.4,Win32,60.07088364,,,,,,,,,,,,,,,,,,,,,,,,,,,,,,,,,,,,,,,,,,,,,,,,,,,,,,,,,,,,,,,,,,,,,,,,,,,,,,5,1.8975,0,10,10,10,1,I have a lot of intellectual curiosity.,0,11,,
,,,,,,,,,,,,,,,89790,001,2022-04-29_12h01.09.462,SPAMnetsValid,2021.1.4,Win32,60.07088364,,,,,,,,,,,,,,,,,,,,,,,,,,,,,,,,,,,,,,,,,,,,,,,,,,,,,,,,,,,,,,,,,,,,,,,,,,,,,,5,1.7766,0,11,11,11,1,I often enjoy playing with theories or abstract ideas.,0,12,,
,,,,,,,,,,,,,,,89790,001,2022-04-29_12h01.09.462,SPAMnetsValid,2021.1.4,Win32,60.07088364,,,,,,,,,,,,,,,,,,,,,,,,,,,,,,,,,,,,,,,,,,,,,,,,,,,,,,,,,,,,,,,,,,,,,,,,,,,,,,,,,,,,,,,,return,127.3081
