key_resp_3.keys,key_resp_3.rt,slider_2.response,slider_2.rt,rjt_rating,rjt_RT,trials_24.thisRepN,trials_24.thisTrialN,trials_24.thisN,trials_24.thisIndex,trials_24.ran,rjt_order,word1,word2,attention,participant,session,date,expName,psychopyVersion,OS,frameRate,trials_4.thisRepN,trials_4.thisTrialN,trials_4.thisN,trials_4.thisIndex,trials_4.ran,trials_5.thisRepN,trials_5.thisTrialN,trials_5.thisN,trials_5.thisIndex,trials_5.ran,repOne,repTwo,slider.response,slider.rt,trials_22.thisRepN,trials_22.thisTrialN,trials_22.thisN,trials_22.thisIndex,trials_22.ran,trials_99.thisRepN,trials_99.thisTrialN,trials_99.thisN,trials_99.thisIndex,trials_99.ran,slider_extend_2.response,slider_extend_2.rt,trials_6.thisRepN,trials_6.thisTrialN,trials_6.thisN,trials_6.thisIndex,trials_6.ran,vCue2,R1,R2,R3,R4,correct,sliderVocab.response,sliderVocab.rt,trials_7.thisRepN,trials_7.thisTrialN,trials_7.thisN,trials_7.thisIndex,trials_7.ran,VocabCue,VR1,VR2,VR3,VR4,VR5,VocabCorrect,AUT_resp,AUT_label,trials.thisRepN,trials.thisTrialN,trials.thisN,trials.thisIndex,trials.ran,trials_2.thisRepN,trials_2.thisTrialN,trials_2.thisN,trials_2.thisIndex,trials_2.ran,aut_prompt,VF_response,VF_tag,trials_16.thisRepN,trials_16.thisTrialN,trials_16.thisN,trials_16.thisIndex,trials_16.ran,trials_17.thisRepN,trials_17.thisTrialN,trials_17.thisN,trials_17.thisIndex,trials_17.ran,VFcond,open_slider.response,open_slider.rt,trials_3.thisRepN,trials_3.thisTrialN,trials_3.thisN,trials_3.thisIndex,trials_3.ran,OpenQ,Rev,OPEN_ORDER,key_resp_2.keys,key_resp_2.rt
return,16.0611,7,4.3076,7,4.3076,0,0,0,72,1,181,carrot,kitchen,,89795,005,2022-04-24_18h47.14.905,SPAMnetsValid,2021.1.4,Win32,60.06727535,,,,,,,,,,,,,,,,,,,,,,,,,,,,,,,,,,,,,,,,,,,,,,,,,,,,,,,,,,,,,,,,,,,,,,,,,,,,,,,,,,,,,,,,,
,,1,2.1672,1,2.1672,0,1,1,59,1,164,cookie,garden,,89795,005,2022-04-24_18h47.14.905,SPAMnetsValid,2021.1.4,Win32,60.06727535,,,,,,,,,,,,,,,,,,,,,,,,,,,,,,,,,,,,,,,,,,,,,,,,,,,,,,,,,,,,,,,,,,,,,,,,,,,,,,,,,,,,,,,,,
,,7,1.5201,7,1.5201,0,2,2,36,1,161,kitchen,pretzel,,89795,005,2022-04-24_18h47.14.905,SPAMnetsValid,2021.1.4,Win32,60.06727535,,,,,,,,,,,,,,,,,,,,,,,,,,,,,,,,,,,,,,,,,,,,,,,,,,,,,,,,,,,,,,,,,,,,,,,,,,,,,,,,,,,,,,,,,
,,8,2.4797,8,2.4797,0,3,3,24,1,169,onion,yogurt,,89795,005,2022-04-24_18h47.14.905,SPAMnetsValid,2021.1.4,Win32,60.06727535,,,,,,,,,,,,,,,,,,,,,,,,,,,,,,,,,,,,,,,,,,,,,,,,,,,,,,,,,,,,,,,,,,,,,,,,,,,,,,,,,,,,,,,,,
,,8,4.1315,8,4.1315,0,4,4,48,1,186,kitchen,yogurt,,89795,005,2022-04-24_18h47.14.905,SPAMnetsValid,2021.1.4,Win32,60.06727535,,,,,,,,,,,,,,,,,,,,,,,,,,,,,,,,,,,,,,,,,,,,,,,,,,,,,,,,,,,,,,,,,,,,,,,,,,,,,,,,,,,,,,,,,
,,9,1.7696,9,1.7696,0,5,5,17,1,99,garden,melon,,89795,005,2022-04-24_18h47.14.905,SPAMnetsValid,2021.1.4,Win32,60.06727535,,,,,,,,,,,,,,,,,,,,,,,,,,,,,,,,,,,,,,,,,,,,,,,,,,,,,,,,,,,,,,,,,,,,,,,,,,,,,,,,,,,,,,,,,
,,2,2.2773,2,2.2773,0,6,6,32,1,182,flower,refrigerator,,89795,005,2022-04-24_18h47.14.905,SPAMnetsValid,2021.1.4,Win32,60.06727535,,,,,,,,,,,,,,,,,,,,,,,,,,,,,,,,,,,,,,,,,,,,,,,,,,,,,,,,,,,,,,,,,,,,,,,,,,,,,,,,,,,,,,,,,
,,7,2.2498,7,2.2498,0,7,7,85,1,115,refrigerator,tomato,,89795,005,2022-04-24_18h47.14.905,SPAMnetsValid,2021.1.4,Win32,60.06727535,,,,,,,,,,,,,,,,,,,,,,,,,,,,,,,,,,,,,,,,,,,,,,,,,,,,,,,,,,,,,,,,,,,,,,,,,,,,,,,,,,,,,,,,,
,,7,1.6197,7,1.6197,0,8,8,70,1,141,melon,tomato,,89795,005,2022-04-24_18h47.14.905,SPAMnetsValid,2021.1.4,Win32,60.06727535,,,,,,,,,,,,,,,,,,,,,,,,,,,,,,,,,,,,,,,,,,,,,,,,,,,,,,,,,,,,,,,,,,,,,,,,,,,,,,,,,,,,,,,,,
,,6,1.4363,6,1.4363,0,9,9,0,1,106,cake,strawberry,,89795,005,2022-04-24_18h47.14.905,SPAMnetsValid,2021.1.4,Win32,60.06727535,,,,,,,,,,,,,,,,,,,,,,,,,,,,,,,,,,,,,,,,,,,,,,,,,,,,,,,,,,,,,,,,,,,,,,,,,,,,,,,,,,,,,,,,,
,,8,2.7099,8,2.7099,0,10,10,94,1,133,cake,flower,,89795,005,2022-04-24_18h47.14.905,SPAMnetsValid,2021.1.4,Win32,60.06727535,,,,,,,,,,,,,,,,,,,,,,,,,,,,,,,,,,,,,,,,,,,,,,,,,,,,,,,,,,,,,,,,,,,,,,,,,,,,,,,,,,,,,,,,,
,,1,1.6204,1,1.6204,0,11,11,15,1,145,cactus,yogurt,,89795,005,2022-04-24_18h47.14.905,SPAMnetsValid,2021.1.4,Win32,60.06727535,,,,,,,,,,,,,,,,,,,,,,,,,,,,,,,,,,,,,,,,,,,,,,,,,,,,,,,,,,,,,,,,,,,,,,,,,,,,,,,,,,,,,,,,,
,,3,3.5044,3,3.5044,0,12,12,96,1,136,chocolate,microwave,,89795,005,2022-04-24_18h47.14.905,SPAMnetsValid,2021.1.4,Win32,60.06727535,,,,,,,,,,,,,,,,,,,,,,,,,,,,,,,,,,,,,,,,,,,,,,,,,,,,,,,,,,,,,,,,,,,,,,,,,,,,,,,,,,,,,,,,,
,,2,1.3439,2,1.3439,0,13,13,79,1,103,pretzel,tomato,,89795,005,2022-04-24_18h47.14.905,SPAMnetsValid,2021.1.4,Win32,60.06727535,,,,,,,,,,,,,,,,,,,,,,,,,,,,,,,,,,,,,,,,,,,,,,,,,,,,,,,,,,,,,,,,,,,,,,,,,,,,,,,,,,,,,,,,,
,,1,1.2541,1,1.2541,0,14,14,30,1,125,carrot,tree,,89795,005,2022-04-24_18h47.14.905,SPAMnetsValid,2021.1.4,Win32,60.06727535,,,,,,,,,,,,,,,,,,,,,,,,,,,,,,,,,,,,,,,,,,,,,,,,,,,,,,,,,,,,,,,,,,,,,,,,,,,,,,,,,,,,,,,,,
,,9,2.2027,9,2.2027,0,15,15,61,1,138,flower,rose,,89795,005,2022-04-24_18h47.14.905,SPAMnetsValid,2021.1.4,Win32,60.06727535,,,,,,,,,,,,,,,,,,,,,,,,,,,,,,,,,,,,,,,,,,,,,,,,,,,,,,,,,,,,,,,,,,,,,,,,,,,,,,,,,,,,,,,,,
,,1,4.1884,1,4.1884,0,16,16,71,1,187,cactus,microwave,,89795,005,2022-04-24_18h47.14.905,SPAMnetsValid,2021.1.4,Win32,60.06727535,,,,,,,,,,,,,,,,,,,,,,,,,,,,,,,,,,,,,,,,,,,,,,,,,,,,,,,,,,,,,,,,,,,,,,,,,,,,,,,,,,,,,,,,,
,,1,1.1153,1,1.1153,0,17,17,76,1,102,chocolate,refrigerator,,89795,005,2022-04-24_18h47.14.905,SPAMnetsValid,2021.1.4,Win32,60.06727535,,,,,,,,,,,,,,,,,,,,,,,,,,,,,,,,,,,,,,,,,,,,,,,,,,,,,,,,,,,,,,,,,,,,,,,,,,,,,,,,,,,,,,,,,
,,2,9.7155,2,9.7155,0,18,18,67,1,96,oven,strawberry,,89795,005,2022-04-24_18h47.14.905,SPAMnetsValid,2021.1.4,Win32,60.06727535,,,,,,,,,,,,,,,,,,,,,,,,,,,,,,,,,,,,,,,,,,,,,,,,,,,,,,,,,,,,,,,,,,,,,,,,,,,,,,,,,,,,,,,,,
,,8,2.0766,8,2.0766,0,19,19,23,1,148,flower,melon,,89795,005,2022-04-24_18h47.14.905,SPAMnetsValid,2021.1.4,Win32,60.06727535,,,,,,,,,,,,,,,,,,,,,,,,,,,,,,,,,,,,,,,,,,,,,,,,,,,,,,,,,,,,,,,,,,,,,,,,,,,,,,,,,,,,,,,,,
,,8,1.2538,8,1.2538,0,20,20,47,1,167,carrot,garden,,89795,005,2022-04-24_18h47.14.905,SPAMnetsValid,2021.1.4,Win32,60.06727535,,,,,,,,,,,,,,,,,,,,,,,,,,,,,,,,,,,,,,,,,,,,,,,,,,,,,,,,,,,,,,,,,,,,,,,,,,,,,,,,,,,,,,,,,
,,3,6.4102,3,6.4102,0,21,21,58,1,144,cake,garden,,89795,005,2022-04-24_18h47.14.905,SPAMnetsValid,2021.1.4,Win32,60.06727535,,,,,,,,,,,,,,,,,,,,,,,,,,,,,,,,,,,,,,,,,,,,,,,,,,,,,,,,,,,,,,,,,,,,,,,,,,,,,,,,,,,,,,,,,
,,2,1.1365,2,1.1365,0,22,22,92,1,170,cookie,microwave,,89795,005,2022-04-24_18h47.14.905,SPAMnetsValid,2021.1.4,Win32,60.06727535,,,,,,,,,,,,,,,,,,,,,,,,,,,,,,,,,,,,,,,,,,,,,,,,,,,,,,,,,,,,,,,,,,,,,,,,,,,,,,,,,,,,,,,,,
,,2,1.3735,2,1.3735,0,23,23,54,1,101,cactus,kitchen,,89795,005,2022-04-24_18h47.14.905,SPAMnetsValid,2021.1.4,Win32,60.06727535,,,,,,,,,,,,,,,,,,,,,,,,,,,,,,,,,,,,,,,,,,,,,,,,,,,,,,,,,,,,,,,,,,,,,,,,,,,,,,,,,,,,,,,,,
,,8,2.2436,8,2.2436,0,24,24,43,1,185,cactus,rose,,89795,005,2022-04-24_18h47.14.905,SPAMnetsValid,2021.1.4,Win32,60.06727535,,,,,,,,,,,,,,,,,,,,,,,,,,,,,,,,,,,,,,,,,,,,,,,,,,,,,,,,,,,,,,,,,,,,,,,,,,,,,,,,,,,,,,,,,
,,8,1.2003,8,1.2003,0,25,25,22,1,142,garden,tree,,89795,005,2022-04-24_18h47.14.905,SPAMnetsValid,2021.1.4,Win32,60.06727535,,,,,,,,,,,,,,,,,,,,,,,,,,,,,,,,,,,,,,,,,,,,,,,,,,,,,,,,,,,,,,,,,,,,,,,,,,,,,,,,,,,,,,,,,
,,8,1.2875,8,1.2875,0,26,26,83,1,100,garden,tomato,,89795,005,2022-04-24_18h47.14.905,SPAMnetsValid,2021.1.4,Win32,60.06727535,,,,,,,,,,,,,,,,,,,,,,,,,,,,,,,,,,,,,,,,,,,,,,,,,,,,,,,,,,,,,,,,,,,,,,,,,,,,,,,,,,,,,,,,,
,,7,2.0371,7,2.0371,0,27,27,41,1,175,melon,onion,,89795,005,2022-04-24_18h47.14.905,SPAMnetsValid,2021.1.4,Win32,60.06727535,,,,,,,,,,,,,,,,,,,,,,,,,,,,,,,,,,,,,,,,,,,,,,,,,,,,,,,,,,,,,,,,,,,,,,,,,,,,,,,,,,,,,,,,,
,,7,1.9038,7,1.9038,0,28,28,7,1,188,flower,tree,,89795,005,2022-04-24_18h47.14.905,SPAMnetsValid,2021.1.4,Win32,60.06727535,,,,,,,,,,,,,,,,,,,,,,,,,,,,,,,,,,,,,,,,,,,,,,,,,,,,,,,,,,,,,,,,,,,,,,,,,,,,,,,,,,,,,,,,,
,,1,1.2371,1,1.2371,0,29,29,63,1,137,microwave,tree,,89795,005,2022-04-24_18h47.14.905,SPAMnetsValid,2021.1.4,Win32,60.06727535,,,,,,,,,,,,,,,,,,,,,,,,,,,,,,,,,,,,,,,,,,,,,,,,,,,,,,,,,,,,,,,,,,,,,,,,,,,,,,,,,,,,,,,,,
,,8,3.3946,8,3.3946,0,30,30,53,1,177,chocolate,strawberry,,89795,005,2022-04-24_18h47.14.905,SPAMnetsValid,2021.1.4,Win32,60.06727535,,,,,,,,,,,,,,,,,,,,,,,,,,,,,,,,,,,,,,,,,,,,,,,,,,,,,,,,,,,,,,,,,,,,,,,,,,,,,,,,,,,,,,,,,
,,1,1.1538,1,1.1538,0,31,31,49,1,152,cactus,strawberry,,89795,005,2022-04-24_18h47.14.905,SPAMnetsValid,2021.1.4,Win32,60.06727535,,,,,,,,,,,,,,,,,,,,,,,,,,,,,,,,,,,,,,,,,,,,,,,,,,,,,,,,,,,,,,,,,,,,,,,,,,,,,,,,,,,,,,,,,
,,6,2.5017,6,2.5017,0,32,32,42,1,184,oven,pretzel,,89795,005,2022-04-24_18h47.14.905,SPAMnetsValid,2021.1.4,Win32,60.06727535,,,,,,,,,,,,,,,,,,,,,,,,,,,,,,,,,,,,,,,,,,,,,,,,,,,,,,,,,,,,,,,,,,,,,,,,,,,,,,,,,,,,,,,,,
,,8,1.3373,8,1.3373,0,33,33,29,1,163,melon,refrigerator,,89795,005,2022-04-24_18h47.14.905,SPAMnetsValid,2021.1.4,Win32,60.06727535,,,,,,,,,,,,,,,,,,,,,,,,,,,,,,,,,,,,,,,,,,,,,,,,,,,,,,,,,,,,,,,,,,,,,,,,,,,,,,,,,,,,,,,,,
,,8,1.2346,8,1.2346,0,34,34,60,1,122,flower,garden,,89795,005,2022-04-24_18h47.14.905,SPAMnetsValid,2021.1.4,Win32,60.06727535,,,,,,,,,,,,,,,,,,,,,,,,,,,,,,,,,,,,,,,,,,,,,,,,,,,,,,,,,,,,,,,,,,,,,,,,,,,,,,,,,,,,,,,,,
,,1,1.8536,1,1.8536,0,35,35,12,1,162,microwave,tomato,,89795,005,2022-04-24_18h47.14.905,SPAMnetsValid,2021.1.4,Win32,60.06727535,,,,,,,,,,,,,,,,,,,,,,,,,,,,,,,,,,,,,,,,,,,,,,,,,,,,,,,,,,,,,,,,,,,,,,,,,,,,,,,,,,,,,,,,,
,,7,1.7211,7,1.7211,0,36,36,1,1,173,kitchen,tomato,,89795,005,2022-04-24_18h47.14.905,SPAMnetsValid,2021.1.4,Win32,60.06727535,,,,,,,,,,,,,,,,,,,,,,,,,,,,,,,,,,,,,,,,,,,,,,,,,,,,,,,,,,,,,,,,,,,,,,,,,,,,,,,,,,,,,,,,,
,,7,3.6419,7,3.6419,0,37,37,65,1,160,cookie,kitchen,,89795,005,2022-04-24_18h47.14.905,SPAMnetsValid,2021.1.4,Win32,60.06727535,,,,,,,,,,,,,,,,,,,,,,,,,,,,,,,,,,,,,,,,,,,,,,,,,,,,,,,,,,,,,,,,,,,,,,,,,,,,,,,,,,,,,,,,,
,,2,2.6534,2,2.6534,0,38,38,84,1,130,microwave,yogurt,,89795,005,2022-04-24_18h47.14.905,SPAMnetsValid,2021.1.4,Win32,60.06727535,,,,,,,,,,,,,,,,,,,,,,,,,,,,,,,,,,,,,,,,,,,,,,,,,,,,,,,,,,,,,,,,,,,,,,,,,,,,,,,,,,,,,,,,,
,,1,1.3055,1,1.3055,0,39,39,50,1,126,kitchen,tree,,89795,005,2022-04-24_18h47.14.905,SPAMnetsValid,2021.1.4,Win32,60.06727535,,,,,,,,,,,,,,,,,,,,,,,,,,,,,,,,,,,,,,,,,,,,,,,,,,,,,,,,,,,,,,,,,,,,,,,,,,,,,,,,,,,,,,,,,
,,1,1.7161,1,1.7161,0,40,40,4,1,109,broom,strawberry,,89795,005,2022-04-24_18h47.14.905,SPAMnetsValid,2021.1.4,Win32,60.06727535,,,,,,,,,,,,,,,,,,,,,,,,,,,,,,,,,,,,,,,,,,,,,,,,,,,,,,,,,,,,,,,,,,,,,,,,,,,,,,,,,,,,,,,,,
,,7,1.3183,7,1.3183,0,41,41,8,1,97,chocolate,kitchen,,89795,005,2022-04-24_18h47.14.905,SPAMnetsValid,2021.1.4,Win32,60.06727535,,,,,,,,,,,,,,,,,,,,,,,,,,,,,,,,,,,,,,,,,,,,,,,,,,,,,,,,,,,,,,,,,,,,,,,,,,,,,,,,,,,,,,,,,
,,2,5.0813,2,5.0813,0,42,42,88,1,171,cake,tomato,,89795,005,2022-04-24_18h47.14.905,SPAMnetsValid,2021.1.4,Win32,60.06727535,,,,,,,,,,,,,,,,,,,,,,,,,,,,,,,,,,,,,,,,,,,,,,,,,,,,,,,,,,,,,,,,,,,,,,,,,,,,,,,,,,,,,,,,,
,,8,1.6788,8,1.6788,0,43,43,31,1,156,melon,rose,,89795,005,2022-04-24_18h47.14.905,SPAMnetsValid,2021.1.4,Win32,60.06727535,,,,,,,,,,,,,,,,,,,,,,,,,,,,,,,,,,,,,,,,,,,,,,,,,,,,,,,,,,,,,,,,,,,,,,,,,,,,,,,,,,,,,,,,,
,,1,1.2948,1,1.2948,0,44,44,68,1,180,tree,yogurt,,89795,005,2022-04-24_18h47.14.905,SPAMnetsValid,2021.1.4,Win32,60.06727535,,,,,,,,,,,,,,,,,,,,,,,,,,,,,,,,,,,,,,,,,,,,,,,,,,,,,,,,,,,,,,,,,,,,,,,,,,,,,,,,,,,,,,,,,
,,6,2.635,6,2.635,0,45,45,82,1,98,pretzel,strawberry,,89795,005,2022-04-24_18h47.14.905,SPAMnetsValid,2021.1.4,Win32,60.06727535,,,,,,,,,,,,,,,,,,,,,,,,,,,,,,,,,,,,,,,,,,,,,,,,,,,,,,,,,,,,,,,,,,,,,,,,,,,,,,,,,,,,,,,,,
,,7,1.3951,7,1.3951,0,46,46,11,1,117,melon,strawberry,,89795,005,2022-04-24_18h47.14.905,SPAMnetsValid,2021.1.4,Win32,60.06727535,,,,,,,,,,,,,,,,,,,,,,,,,,,,,,,,,,,,,,,,,,,,,,,,,,,,,,,,,,,,,,,,,,,,,,,,,,,,,,,,,,,,,,,,,
,,1,1.1527,1,1.1527,0,47,47,73,1,135,carrot,oven,,89795,005,2022-04-24_18h47.14.905,SPAMnetsValid,2021.1.4,Win32,60.06727535,,,,,,,,,,,,,,,,,,,,,,,,,,,,,,,,,,,,,,,,,,,,,,,,,,,,,,,,,,,,,,,,,,,,,,,,,,,,,,,,,,,,,,,,,
,,1,1.7654,1,1.7654,0,48,48,3,1,129,cactus,refrigerator,,89795,005,2022-04-24_18h47.14.905,SPAMnetsValid,2021.1.4,Win32,60.06727535,,,,,,,,,,,,,,,,,,,,,,,,,,,,,,,,,,,,,,,,,,,,,,,,,,,,,,,,,,,,,,,,,,,,,,,,,,,,,,,,,,,,,,,,,
,,8,1.1903,8,1.1903,0,49,49,34,1,153,carrot,pretzel,,89795,005,2022-04-24_18h47.14.905,SPAMnetsValid,2021.1.4,Win32,60.06727535,,,,,,,,,,,,,,,,,,,,,,,,,,,,,,,,,,,,,,,,,,,,,,,,,,,,,,,,,,,,,,,,,,,,,,,,,,,,,,,,,,,,,,,,,
,,7,1.692,7,1.692,0,50,50,37,1,139,carrot,strawberry,,89795,005,2022-04-24_18h47.14.905,SPAMnetsValid,2021.1.4,Win32,60.06727535,,,,,,,,,,,,,,,,,,,,,,,,,,,,,,,,,,,,,,,,,,,,,,,,,,,,,,,,,,,,,,,,,,,,,,,,,,,,,,,,,,,,,,,,,
,,8,1.1247,8,1.1247,0,51,51,91,1,166,cake,yogurt,,89795,005,2022-04-24_18h47.14.905,SPAMnetsValid,2021.1.4,Win32,60.06727535,,,,,,,,,,,,,,,,,,,,,,,,,,,,,,,,,,,,,,,,,,,,,,,,,,,,,,,,,,,,,,,,,,,,,,,,,,,,,,,,,,,,,,,,,
,,1,1.9447,1,1.9447,0,52,52,16,1,111,carrot,microwave,,89795,005,2022-04-24_18h47.14.905,SPAMnetsValid,2021.1.4,Win32,60.06727535,,,,,,,,,,,,,,,,,,,,,,,,,,,,,,,,,,,,,,,,,,,,,,,,,,,,,,,,,,,,,,,,,,,,,,,,,,,,,,,,,,,,,,,,,
,,1,1.3369,1,1.3369,0,53,53,57,1,127,cactus,chocolate,,89795,005,2022-04-24_18h47.14.905,SPAMnetsValid,2021.1.4,Win32,60.06727535,,,,,,,,,,,,,,,,,,,,,,,,,,,,,,,,,,,,,,,,,,,,,,,,,,,,,,,,,,,,,,,,,,,,,,,,,,,,,,,,,,,,,,,,,
,,9,1.4548,9,1.4548,0,54,54,86,1,193,melon,melon,CHECK,89795,005,2022-04-24_18h47.14.905,SPAMnetsValid,2021.1.4,Win32,60.06727535,,,,,,,,,,,,,,,,,,,,,,,,,,,,,,,,,,,,,,,,,,,,,,,,,,,,,,,,,,,,,,,,,,,,,,,,,,,,,,,,,,,,,,,,,
,,1,1.321,1,1.321,0,55,55,45,1,179,broom,oven,,89795,005,2022-04-24_18h47.14.905,SPAMnetsValid,2021.1.4,Win32,60.06727535,,,,,,,,,,,,,,,,,,,,,,,,,,,,,,,,,,,,,,,,,,,,,,,,,,,,,,,,,,,,,,,,,,,,,,,,,,,,,,,,,,,,,,,,,
,,5,2.5771,5,2.5771,0,56,56,64,1,157,refrigerator,rose,,89795,005,2022-04-24_18h47.14.905,SPAMnetsValid,2021.1.4,Win32,60.06727535,,,,,,,,,,,,,,,,,,,,,,,,,,,,,,,,,,,,,,,,,,,,,,,,,,,,,,,,,,,,,,,,,,,,,,,,,,,,,,,,,,,,,,,,,
,,4,3.4906,4,3.4906,0,57,57,18,1,119,strawberry,tree,,89795,005,2022-04-24_18h47.14.905,SPAMnetsValid,2021.1.4,Win32,60.06727535,,,,,,,,,,,,,,,,,,,,,,,,,,,,,,,,,,,,,,,,,,,,,,,,,,,,,,,,,,,,,,,,,,,,,,,,,,,,,,,,,,,,,,,,,
,,4,1.2201,4,1.2201,0,58,58,2,1,174,cake,pretzel,,89795,005,2022-04-24_18h47.14.905,SPAMnetsValid,2021.1.4,Win32,60.06727535,,,,,,,,,,,,,,,,,,,,,,,,,,,,,,,,,,,,,,,,,,,,,,,,,,,,,,,,,,,,,,,,,,,,,,,,,,,,,,,,,,,,,,,,,
,,4,0.997,4,0.997,0,59,59,14,1,120,microwave,oven,,89795,005,2022-04-24_18h47.14.905,SPAMnetsValid,2021.1.4,Win32,60.06727535,,,,,,,,,,,,,,,,,,,,,,,,,,,,,,,,,,,,,,,,,,,,,,,,,,,,,,,,,,,,,,,,,,,,,,,,,,,,,,,,,,,,,,,,,
,,1,1.2089,1,1.2089,0,60,60,13,1,105,cactus,oven,,89795,005,2022-04-24_18h47.14.905,SPAMnetsValid,2021.1.4,Win32,60.06727535,,,,,,,,,,,,,,,,,,,,,,,,,,,,,,,,,,,,,,,,,,,,,,,,,,,,,,,,,,,,,,,,,,,,,,,,,,,,,,,,,,,,,,,,,
,,1,1.7419,1,1.7419,0,61,61,35,1,147,cake,refrigerator,,89795,005,2022-04-24_18h47.14.905,SPAMnetsValid,2021.1.4,Win32,60.06727535,,,,,,,,,,,,,,,,,,,,,,,,,,,,,,,,,,,,,,,,,,,,,,,,,,,,,,,,,,,,,,,,,,,,,,,,,,,,,,,,,,,,,,,,,
,,1,0.9299,1,0.9299,0,62,62,80,1,146,pretzel,tree,,89795,005,2022-04-24_18h47.14.905,SPAMnetsValid,2021.1.4,Win32,60.06727535,,,,,,,,,,,,,,,,,,,,,,,,,,,,,,,,,,,,,,,,,,,,,,,,,,,,,,,,,,,,,,,,,,,,,,,,,,,,,,,,,,,,,,,,,
,,1,0.9651,1,0.9651,0,63,63,52,1,110,chocolate,cookie,,89795,005,2022-04-24_18h47.14.905,SPAMnetsValid,2021.1.4,Win32,60.06727535,,,,,,,,,,,,,,,,,,,,,,,,,,,,,,,,,,,,,,,,,,,,,,,,,,,,,,,,,,,,,,,,,,,,,,,,,,,,,,,,,,,,,,,,,
,,1,0.9554,1,0.9554,0,64,64,9,1,176,cactus,tomato,,89795,005,2022-04-24_18h47.14.905,SPAMnetsValid,2021.1.4,Win32,60.06727535,,,,,,,,,,,,,,,,,,,,,,,,,,,,,,,,,,,,,,,,,,,,,,,,,,,,,,,,,,,,,,,,,,,,,,,,,,,,,,,,,,,,,,,,,
,,1,0.747,1,0.747,0,65,65,44,1,116,cake,chocolate,,89795,005,2022-04-24_18h47.14.905,SPAMnetsValid,2021.1.4,Win32,60.06727535,,,,,,,,,,,,,,,,,,,,,,,,,,,,,,,,,,,,,,,,,,,,,,,,,,,,,,,,,,,,,,,,,,,,,,,,,,,,,,,,,,,,,,,,,
,,1,1.1563,1,1.1563,0,66,66,5,1,108,carrot,chocolate,,89795,005,2022-04-24_18h47.14.905,SPAMnetsValid,2021.1.4,Win32,60.06727535,,,,,,,,,,,,,,,,,,,,,,,,,,,,,,,,,,,,,,,,,,,,,,,,,,,,,,,,,,,,,,,,,,,,,,,,,,,,,,,,,,,,,,,,,
,,8,1.3287,8,1.3287,0,67,67,56,1,113,refrigerator,strawberry,,89795,005,2022-04-24_18h47.14.905,SPAMnetsValid,2021.1.4,Win32,60.06727535,,,,,,,,,,,,,,,,,,,,,,,,,,,,,,,,,,,,,,,,,,,,,,,,,,,,,,,,,,,,,,,,,,,,,,,,,,,,,,,,,,,,,,,,,
,,3,2.5188,3,2.5188,0,68,68,10,1,118,chocolate,oven,,89795,005,2022-04-24_18h47.14.905,SPAMnetsValid,2021.1.4,Win32,60.06727535,,,,,,,,,,,,,,,,,,,,,,,,,,,,,,,,,,,,,,,,,,,,,,,,,,,,,,,,,,,,,,,,,,,,,,,,,,,,,,,,,,,,,,,,,
,,4,1.903,4,1.903,0,69,69,74,1,128,melon,microwave,,89795,005,2022-04-24_18h47.14.905,SPAMnetsValid,2021.1.4,Win32,60.06727535,,,,,,,,,,,,,,,,,,,,,,,,,,,,,,,,,,,,,,,,,,,,,,,,,,,,,,,,,,,,,,,,,,,,,,,,,,,,,,,,,,,,,,,,,
,,3,1.7031,3,1.7031,0,70,70,27,1,158,cookie,oven,,89795,005,2022-04-24_18h47.14.905,SPAMnetsValid,2021.1.4,Win32,60.06727535,,,,,,,,,,,,,,,,,,,,,,,,,,,,,,,,,,,,,,,,,,,,,,,,,,,,,,,,,,,,,,,,,,,,,,,,,,,,,,,,,,,,,,,,,
,,3,1.6822,3,1.6822,0,71,71,20,1,149,broom,tomato,,89795,005,2022-04-24_18h47.14.905,SPAMnetsValid,2021.1.4,Win32,60.06727535,,,,,,,,,,,,,,,,,,,,,,,,,,,,,,,,,,,,,,,,,,,,,,,,,,,,,,,,,,,,,,,,,,,,,,,,,,,,,,,,,,,,,,,,,
,,1,5.2462,1,5.2462,0,72,72,81,1,104,garden,microwave,,89795,005,2022-04-24_18h47.14.905,SPAMnetsValid,2021.1.4,Win32,60.06727535,,,,,,,,,,,,,,,,,,,,,,,,,,,,,,,,,,,,,,,,,,,,,,,,,,,,,,,,,,,,,,,,,,,,,,,,,,,,,,,,,,,,,,,,,
,,7,1.2127,7,1.2127,0,73,73,28,1,154,strawberry,yogurt,,89795,005,2022-04-24_18h47.14.905,SPAMnetsValid,2021.1.4,Win32,60.06727535,,,,,,,,,,,,,,,,,,,,,,,,,,,,,,,,,,,,,,,,,,,,,,,,,,,,,,,,,,,,,,,,,,,,,,,,,,,,,,,,,,,,,,,,,
,,9,1.2702,9,1.2702,0,74,74,25,1,194,cactus,cactus,CHECK,89795,005,2022-04-24_18h47.14.905,SPAMnetsValid,2021.1.4,Win32,60.06727535,,,,,,,,,,,,,,,,,,,,,,,,,,,,,,,,,,,,,,,,,,,,,,,,,,,,,,,,,,,,,,,,,,,,,,,,,,,,,,,,,,,,,,,,,
,,1,1.7035,1,1.7035,0,75,75,38,1,155,carrot,cookie,,89795,005,2022-04-24_18h47.14.905,SPAMnetsValid,2021.1.4,Win32,60.06727535,,,,,,,,,,,,,,,,,,,,,,,,,,,,,,,,,,,,,,,,,,,,,,,,,,,,,,,,,,,,,,,,,,,,,,,,,,,,,,,,,,,,,,,,,
,,1,0.9211,1,0.9211,0,76,76,90,1,190,microwave,strawberry,,89795,005,2022-04-24_18h47.14.905,SPAMnetsValid,2021.1.4,Win32,60.06727535,,,,,,,,,,,,,,,,,,,,,,,,,,,,,,,,,,,,,,,,,,,,,,,,,,,,,,,,,,,,,,,,,,,,,,,,,,,,,,,,,,,,,,,,,
,,1,0.8377,1,0.8377,0,77,77,55,1,143,pretzel,rose,,89795,005,2022-04-24_18h47.14.905,SPAMnetsValid,2021.1.4,Win32,60.06727535,,,,,,,,,,,,,,,,,,,,,,,,,,,,,,,,,,,,,,,,,,,,,,,,,,,,,,,,,,,,,,,,,,,,,,,,,,,,,,,,,,,,,,,,,
,,3,0.9934,3,0.9934,0,78,78,66,1,150,microwave,refrigerator,,89795,005,2022-04-24_18h47.14.905,SPAMnetsValid,2021.1.4,Win32,60.06727535,,,,,,,,,,,,,,,,,,,,,,,,,,,,,,,,,,,,,,,,,,,,,,,,,,,,,,,,,,,,,,,,,,,,,,,,,,,,,,,,,,,,,,,,,
,,7,1.688,7,1.688,0,79,79,51,1,168,cactus,flower,,89795,005,2022-04-24_18h47.14.905,SPAMnetsValid,2021.1.4,Win32,60.06727535,,,,,,,,,,,,,,,,,,,,,,,,,,,,,,,,,,,,,,,,,,,,,,,,,,,,,,,,,,,,,,,,,,,,,,,,,,,,,,,,,,,,,,,,,
,,7,1.629,7,1.629,0,80,80,33,1,131,cactus,garden,,89795,005,2022-04-24_18h47.14.905,SPAMnetsValid,2021.1.4,Win32,60.06727535,,,,,,,,,,,,,,,,,,,,,,,,,,,,,,,,,,,,,,,,,,,,,,,,,,,,,,,,,,,,,,,,,,,,,,,,,,,,,,,,,,,,,,,,,
,,1,1.6586,1,1.6586,0,81,81,95,1,121,broom,microwave,,89795,005,2022-04-24_18h47.14.905,SPAMnetsValid,2021.1.4,Win32,60.06727535,,,,,,,,,,,,,,,,,,,,,,,,,,,,,,,,,,,,,,,,,,,,,,,,,,,,,,,,,,,,,,,,,,,,,,,,,,,,,,,,,,,,,,,,,
,,3,1.2392,3,1.2392,0,82,82,62,1,189,onion,tree,,89795,005,2022-04-24_18h47.14.905,SPAMnetsValid,2021.1.4,Win32,60.06727535,,,,,,,,,,,,,,,,,,,,,,,,,,,,,,,,,,,,,,,,,,,,,,,,,,,,,,,,,,,,,,,,,,,,,,,,,,,,,,,,,,,,,,,,,
,,1,1.3055,1,1.3055,0,83,83,21,1,159,cookie,flower,,89795,005,2022-04-24_18h47.14.905,SPAMnetsValid,2021.1.4,Win32,60.06727535,,,,,,,,,,,,,,,,,,,,,,,,,,,,,,,,,,,,,,,,,,,,,,,,,,,,,,,,,,,,,,,,,,,,,,,,,,,,,,,,,,,,,,,,,
,,7,2.8969,7,2.8969,0,84,84,89,1,140,cookie,refrigerator,,89795,005,2022-04-24_18h47.14.905,SPAMnetsValid,2021.1.4,Win32,60.06727535,,,,,,,,,,,,,,,,,,,,,,,,,,,,,,,,,,,,,,,,,,,,,,,,,,,,,,,,,,,,,,,,,,,,,,,,,,,,,,,,,,,,,,,,,
,,2,1.2821,2,1.2821,0,85,85,46,1,123,cookie,tree,,89795,005,2022-04-24_18h47.14.905,SPAMnetsValid,2021.1.4,Win32,60.06727535,,,,,,,,,,,,,,,,,,,,,,,,,,,,,,,,,,,,,,,,,,,,,,,,,,,,,,,,,,,,,,,,,,,,,,,,,,,,,,,,,,,,,,,,,
,,8,2.3698,8,2.3698,0,86,86,26,1,107,rose,tomato,,89795,005,2022-04-24_18h47.14.905,SPAMnetsValid,2021.1.4,Win32,60.06727535,,,,,,,,,,,,,,,,,,,,,,,,,,,,,,,,,,,,,,,,,,,,,,,,,,,,,,,,,,,,,,,,,,,,,,,,,,,,,,,,,,,,,,,,,
,,7,4.7472,7,4.7472,0,87,87,77,1,172,kitchen,melon,,89795,005,2022-04-24_18h47.14.905,SPAMnetsValid,2021.1.4,Win32,60.06727535,,,,,,,,,,,,,,,,,,,,,,,,,,,,,,,,,,,,,,,,,,,,,,,,,,,,,,,,,,,,,,,,,,,,,,,,,,,,,,,,,,,,,,,,,
,,2,0.937,2,0.937,0,88,88,19,1,183,cake,rose,,89795,005,2022-04-24_18h47.14.905,SPAMnetsValid,2021.1.4,Win32,60.06727535,,,,,,,,,,,,,,,,,,,,,,,,,,,,,,,,,,,,,,,,,,,,,,,,,,,,,,,,,,,,,,,,,,,,,,,,,,,,,,,,,,,,,,,,,
,,1,0.8576,1,0.8576,0,89,89,40,1,165,onion,rose,,89795,005,2022-04-24_18h47.14.905,SPAMnetsValid,2021.1.4,Win32,60.06727535,,,,,,,,,,,,,,,,,,,,,,,,,,,,,,,,,,,,,,,,,,,,,,,,,,,,,,,,,,,,,,,,,,,,,,,,,,,,,,,,,,,,,,,,,
,,8,3.3048,8,3.3048,0,90,90,69,1,124,oven,refrigerator,,89795,005,2022-04-24_18h47.14.905,SPAMnetsValid,2021.1.4,Win32,60.06727535,,,,,,,,,,,,,,,,,,,,,,,,,,,,,,,,,,,,,,,,,,,,,,,,,,,,,,,,,,,,,,,,,,,,,,,,,,,,,,,,,,,,,,,,,
,,7,1.3345,7,1.3345,0,91,91,75,1,178,cactus,carrot,,89795,005,2022-04-24_18h47.14.905,SPAMnetsValid,2021.1.4,Win32,60.06727535,,,,,,,,,,,,,,,,,,,,,,,,,,,,,,,,,,,,,,,,,,,,,,,,,,,,,,,,,,,,,,,,,,,,,,,,,,,,,,,,,,,,,,,,,
,,8,1.4128,8,1.4128,0,92,92,93,1,134,carrot,flower,,89795,005,2022-04-24_18h47.14.905,SPAMnetsValid,2021.1.4,Win32,60.06727535,,,,,,,,,,,,,,,,,,,,,,,,,,,,,,,,,,,,,,,,,,,,,,,,,,,,,,,,,,,,,,,,,,,,,,,,,,,,,,,,,,,,,,,,,
,,3,3.3021,3,3.3021,0,93,93,87,1,114,cookie,strawberry,,89795,005,2022-04-24_18h47.14.905,SPAMnetsValid,2021.1.4,Win32,60.06727535,,,,,,,,,,,,,,,,,,,,,,,,,,,,,,,,,,,,,,,,,,,,,,,,,,,,,,,,,,,,,,,,,,,,,,,,,,,,,,,,,,,,,,,,,
,,6,3.9833,6,3.9833,0,94,94,6,1,151,microwave,onion,,89795,005,2022-04-24_18h47.14.905,SPAMnetsValid,2021.1.4,Win32,60.06727535,,,,,,,,,,,,,,,,,,,,,,,,,,,,,,,,,,,,,,,,,,,,,,,,,,,,,,,,,,,,,,,,,,,,,,,,,,,,,,,,,,,,,,,,,
,,8,1.47,8,1.47,0,95,95,78,1,132,broom,tree,,89795,005,2022-04-24_18h47.14.905,SPAMnetsValid,2021.1.4,Win32,60.06727535,,,,,,,,,,,,,,,,,,,,,,,,,,,,,,,,,,,,,,,,,,,,,,,,,,,,,,,,,,,,,,,,,,,,,,,,,,,,,,,,,,,,,,,,,
,,8,1.5145,8,1.5145,0,96,96,39,1,112,cake,carrot,,89795,005,2022-04-24_18h47.14.905,SPAMnetsValid,2021.1.4,Win32,60.06727535,,,,,,,,,,,,,,,,,,,,,,,,,,,,,,,,,,,,,,,,,,,,,,,,,,,,,,,,,,,,,,,,,,,,,,,,,,,,,,,,,,,,,,,,,
,,,,,,,,,,,,,,,89795,005,2022-04-24_18h47.14.905,SPAMnetsValid,2021.1.4,Win32,60.06727535,0,0,0,0,1,,,,,,,,,,,,,,,,,,,,,,,,,,,,,,,,,,,,,,,,,,,,,,,,,,,,,,,,,,,,,,,,,,,,,,,,,,,,,,,,,,,,
,,,,,,,,,,,,,,,89795,005,2022-04-24_18h47.14.905,SPAMnetsValid,2021.1.4,Win32,60.06727535,,,,,,0,0,0,1,1,0,1,,,,,,,,,,,,,,,,,,,,,,,,,,,,,,,,,,,,,,,,,,,,,,,,,,,,,,,,,,,,,,,,,,,,,,,,,,,,,
,,,,3,6.9679,,,,,,92,broom,flower,,89795,005,2022-04-24_18h47.14.905,SPAMnetsValid,2021.1.4,Win32,60.06727535,,,,,,,,,,,,,3,6.9679,0,0,0,88,1,,,,,,,,,,,,,,,,,,,,,,,,,,,,,,,,,,,,,,,,,,,,,,,,,,,,,,,,,,,,,,,,,,,,,,
,,,,1,1.2055,,,,,,23,flower,microwave,,89795,005,2022-04-24_18h47.14.905,SPAMnetsValid,2021.1.4,Win32,60.06727535,,,,,,,,,,,,,1,1.2055,0,1,1,25,1,,,,,,,,,,,,,,,,,,,,,,,,,,,,,,,,,,,,,,,,,,,,,,,,,,,,,,,,,,,,,,,,,,,,,,
,,,,7,2.823,,,,,,25,carrot,onion,,89795,005,2022-04-24_18h47.14.905,SPAMnetsValid,2021.1.4,Win32,60.06727535,,,,,,,,,,,,,7,2.823,0,2,2,44,1,,,,,,,,,,,,,,,,,,,,,,,,,,,,,,,,,,,,,,,,,,,,,,,,,,,,,,,,,,,,,,,,,,,,,,
,,,,1,1.7523,,,,,,71,broom,rose,,89795,005,2022-04-24_18h47.14.905,SPAMnetsValid,2021.1.4,Win32,60.06727535,,,,,,,,,,,,,1,1.7523,0,3,3,61,1,,,,,,,,,,,,,,,,,,,,,,,,,,,,,,,,,,,,,,,,,,,,,,,,,,,,,,,,,,,,,,,,,,,,,,
,,,,1,1.5216,,,,,,64,chocolate,garden,,89795,005,2022-04-24_18h47.14.905,SPAMnetsValid,2021.1.4,Win32,60.06727535,,,,,,,,,,,,,1,1.5216,0,4,4,14,1,,,,,,,,,,,,,,,,,,,,,,,,,,,,,,,,,,,,,,,,,,,,,,,,,,,,,,,,,,,,,,,,,,,,,,
,,,,7,3.2858,,,,,,50,carrot,rose,,89795,005,2022-04-24_18h47.14.905,SPAMnetsValid,2021.1.4,Win32,60.06727535,,,,,,,,,,,,,7,3.2858,0,5,5,73,1,,,,,,,,,,,,,,,,,,,,,,,,,,,,,,,,,,,,,,,,,,,,,,,,,,,,,,,,,,,,,,,,,,,,,,
,,,,1,1.6755,,,,,,41,broom,cactus,,89795,005,2022-04-24_18h47.14.905,SPAMnetsValid,2021.1.4,Win32,60.06727535,,,,,,,,,,,,,1,1.6755,0,6,6,46,1,,,,,,,,,,,,,,,,,,,,,,,,,,,,,,,,,,,,,,,,,,,,,,,,,,,,,,,,,,,,,,,,,,,,,,
,,,,1,1.0146,,,,,,73,broom,chocolate,,89795,005,2022-04-24_18h47.14.905,SPAMnetsValid,2021.1.4,Win32,60.06727535,,,,,,,,,,,,,1,1.0146,0,7,7,47,1,,,,,,,,,,,,,,,,,,,,,,,,,,,,,,,,,,,,,,,,,,,,,,,,,,,,,,,,,,,,,,,,,,,,,,
,,,,6,4.4132,,,,,,44,cookie,melon,,89795,005,2022-04-24_18h47.14.905,SPAMnetsValid,2021.1.4,Win32,60.06727535,,,,,,,,,,,,,6,4.4132,0,8,8,92,1,,,,,,,,,,,,,,,,,,,,,,,,,,,,,,,,,,,,,,,,,,,,,,,,,,,,,,,,,,,,,,,,,,,,,,
,,,,9,2.0887,,,,,,57,flower,kitchen,,89795,005,2022-04-24_18h47.14.905,SPAMnetsValid,2021.1.4,Win32,60.06727535,,,,,,,,,,,,,9,2.0887,0,9,9,49,1,,,,,,,,,,,,,,,,,,,,,,,,,,,,,,,,,,,,,,,,,,,,,,,,,,,,,,,,,,,,,,,,,,,,,,
,,,,1,1.9883,,,,,,56,cactus,tree,,89795,005,2022-04-24_18h47.14.905,SPAMnetsValid,2021.1.4,Win32,60.06727535,,,,,,,,,,,,,1,1.9883,0,10,10,21,1,,,,,,,,,,,,,,,,,,,,,,,,,,,,,,,,,,,,,,,,,,,,,,,,,,,,,,,,,,,,,,,,,,,,,,
,,,,1,1.0731,,,,,,75,cookie,onion,,89795,005,2022-04-24_18h47.14.905,SPAMnetsValid,2021.1.4,Win32,60.06727535,,,,,,,,,,,,,1,1.0731,0,11,11,9,1,,,,,,,,,,,,,,,,,,,,,,,,,,,,,,,,,,,,,,,,,,,,,,,,,,,,,,,,,,,,,,,,,,,,,,
,,,,1,0.914,,,,,,69,carrot,refrigerator,,89795,005,2022-04-24_18h47.14.905,SPAMnetsValid,2021.1.4,Win32,60.06727535,,,,,,,,,,,,,1,0.914,0,12,12,75,1,,,,,,,,,,,,,,,,,,,,,,,,,,,,,,,,,,,,,,,,,,,,,,,,,,,,,,,,,,,,,,,,,,,,,,
,,,,7,1.3946,,,,,,68,flower,tomato,,89795,005,2022-04-24_18h47.14.905,SPAMnetsValid,2021.1.4,Win32,60.06727535,,,,,,,,,,,,,7,1.3946,0,13,13,94,1,,,,,,,,,,,,,,,,,,,,,,,,,,,,,,,,,,,,,,,,,,,,,,,,,,,,,,,,,,,,,,,,,,,,,,
,,,,8,1.2933,,,,,,88,cactus,melon,,89795,005,2022-04-24_18h47.14.905,SPAMnetsValid,2021.1.4,Win32,60.06727535,,,,,,,,,,,,,8,1.2933,0,14,14,38,1,,,,,,,,,,,,,,,,,,,,,,,,,,,,,,,,,,,,,,,,,,,,,,,,,,,,,,,,,,,,,,,,,,,,,,
,,,,7,1.3268,,,,,,18,onion,refrigerator,,89795,005,2022-04-24_18h47.14.905,SPAMnetsValid,2021.1.4,Win32,60.06727535,,,,,,,,,,,,,7,1.3268,0,15,15,62,1,,,,,,,,,,,,,,,,,,,,,,,,,,,,,,,,,,,,,,,,,,,,,,,,,,,,,,,,,,,,,,,,,,,,,,
,,,,1,1.1798,,,,,,3,cake,oven,,89795,005,2022-04-24_18h47.14.905,SPAMnetsValid,2021.1.4,Win32,60.06727535,,,,,,,,,,,,,1,1.1798,0,16,16,30,1,,,,,,,,,,,,,,,,,,,,,,,,,,,,,,,,,,,,,,,,,,,,,,,,,,,,,,,,,,,,,,,,,,,,,,
,,,,1,1.4649,,,,,,34,melon,oven,,89795,005,2022-04-24_18h47.14.905,SPAMnetsValid,2021.1.4,Win32,60.06727535,,,,,,,,,,,,,1,1.4649,0,17,17,7,1,,,,,,,,,,,,,,,,,,,,,,,,,,,,,,,,,,,,,,,,,,,,,,,,,,,,,,,,,,,,,,,,,,,,,,
,,,,1,3.077,,,,,,2,kitchen,onion,,89795,005,2022-04-24_18h47.14.905,SPAMnetsValid,2021.1.4,Win32,60.06727535,,,,,,,,,,,,,1,3.077,0,18,18,91,1,,,,,,,,,,,,,,,,,,,,,,,,,,,,,,,,,,,,,,,,,,,,,,,,,,,,,,,,,,,,,,,,,,,,,,
,,,,7,1.4953,,,,,,59,rose,strawberry,,89795,005,2022-04-24_18h47.14.905,SPAMnetsValid,2021.1.4,Win32,60.06727535,,,,,,,,,,,,,7,1.4953,0,19,19,72,1,,,,,,,,,,,,,,,,,,,,,,,,,,,,,,,,,,,,,,,,,,,,,,,,,,,,,,,,,,,,,,,,,,,,,,
,,,,6,13.4456,,,,,,70,chocolate,onion,,89795,005,2022-04-24_18h47.14.905,SPAMnetsValid,2021.1.4,Win32,60.06727535,,,,,,,,,,,,,6,13.4456,0,20,20,74,1,,,,,,,,,,,,,,,,,,,,,,,,,,,,,,,,,,,,,,,,,,,,,,,,,,,,,,,,,,,,,,,,,,,,,,
,,,,1,1.291,,,,,,86,oven,rose,,89795,005,2022-04-24_18h47.14.905,SPAMnetsValid,2021.1.4,Win32,60.06727535,,,,,,,,,,,,,1,1.291,0,21,21,79,1,,,,,,,,,,,,,,,,,,,,,,,,,,,,,,,,,,,,,,,,,,,,,,,,,,,,,,,,,,,,,,,,,,,,,,
,,,,1,1.7092,,,,,,17,carrot,melon,,89795,005,2022-04-24_18h47.14.905,SPAMnetsValid,2021.1.4,Win32,60.06727535,,,,,,,,,,,,,1,1.7092,0,22,22,24,1,,,,,,,,,,,,,,,,,,,,,,,,,,,,,,,,,,,,,,,,,,,,,,,,,,,,,,,,,,,,,,,,,,,,,,
,,,,1,0.5293,,,,,,79,garden,strawberry,,89795,005,2022-04-24_18h47.14.905,SPAMnetsValid,2021.1.4,Win32,60.06727535,,,,,,,,,,,,,1,0.5293,0,23,23,87,1,,,,,,,,,,,,,,,,,,,,,,,,,,,,,,,,,,,,,,,,,,,,,,,,,,,,,,,,,,,,,,,,,,,,,,
,,,,3,0.6921,,,,,,39,melon,pretzel,,89795,005,2022-04-24_18h47.14.905,SPAMnetsValid,2021.1.4,Win32,60.06727535,,,,,,,,,,,,,3,0.6921,0,24,24,20,1,,,,,,,,,,,,,,,,,,,,,,,,,,,,,,,,,,,,,,,,,,,,,,,,,,,,,,,,,,,,,,,,,,,,,,
,,,,3,0.6573,,,,,,43,chocolate,tomato,,89795,005,2022-04-24_18h47.14.905,SPAMnetsValid,2021.1.4,Win32,60.06727535,,,,,,,,,,,,,3,0.6573,0,25,25,8,1,,,,,,,,,,,,,,,,,,,,,,,,,,,,,,,,,,,,,,,,,,,,,,,,,,,,,,,,,,,,,,,,,,,,,,
,,,,7,0.6232,,,,,,51,onion,strawberry,,89795,005,2022-04-24_18h47.14.905,SPAMnetsValid,2021.1.4,Win32,60.06727535,,,,,,,,,,,,,7,0.6232,0,26,26,86,1,,,,,,,,,,,,,,,,,,,,,,,,,,,,,,,,,,,,,,,,,,,,,,,,,,,,,,,,,,,,,,,,,,,,,,
,,,,1,1.4409,,,,,,58,garden,oven,,89795,005,2022-04-24_18h47.14.905,SPAMnetsValid,2021.1.4,Win32,60.06727535,,,,,,,,,,,,,1,1.4409,0,27,27,37,1,,,,,,,,,,,,,,,,,,,,,,,,,,,,,,,,,,,,,,,,,,,,,,,,,,,,,,,,,,,,,,,,,,,,,,
,,,,1,1.0093,,,,,,6,garden,onion,,89795,005,2022-04-24_18h47.14.905,SPAMnetsValid,2021.1.4,Win32,60.06727535,,,,,,,,,,,,,1,1.0093,0,28,28,83,1,,,,,,,,,,,,,,,,,,,,,,,,,,,,,,,,,,,,,,,,,,,,,,,,,,,,,,,,,,,,,,,,,,,,,,
,,,,1,2.3908,,,,,,78,cookie,rose,,89795,005,2022-04-24_18h47.14.905,SPAMnetsValid,2021.1.4,Win32,60.06727535,,,,,,,,,,,,,1,2.3908,0,29,29,56,1,,,,,,,,,,,,,,,,,,,,,,,,,,,,,,,,,,,,,,,,,,,,,,,,,,,,,,,,,,,,,,,,,,,,,,
,,,,8,1.7143,,,,,,54,chocolate,yogurt,,89795,005,2022-04-24_18h47.14.905,SPAMnetsValid,2021.1.4,Win32,60.06727535,,,,,,,,,,,,,8,1.7143,0,30,30,67,1,,,,,,,,,,,,,,,,,,,,,,,,,,,,,,,,,,,,,,,,,,,,,,,,,,,,,,,,,,,,,,,,,,,,,,
,,,,7,1.6928,,,,,,62,kitchen,rose,,89795,005,2022-04-24_18h47.14.905,SPAMnetsValid,2021.1.4,Win32,60.06727535,,,,,,,,,,,,,7,1.6928,0,31,31,57,1,,,,,,,,,,,,,,,,,,,,,,,,,,,,,,,,,,,,,,,,,,,,,,,,,,,,,,,,,,,,,,,,,,,,,,
,,,,1,1.0223,,,,,,8,broom,melon,,89795,005,2022-04-24_18h47.14.905,SPAMnetsValid,2021.1.4,Win32,60.06727535,,,,,,,,,,,,,1,1.0223,0,32,32,59,1,,,,,,,,,,,,,,,,,,,,,,,,,,,,,,,,,,,,,,,,,,,,,,,,,,,,,,,,,,,,,,,,,,,,,,
,,,,1,0.8559,,,,,,72,broom,onion,,89795,005,2022-04-24_18h47.14.905,SPAMnetsValid,2021.1.4,Win32,60.06727535,,,,,,,,,,,,,1,0.8559,0,33,33,27,1,,,,,,,,,,,,,,,,,,,,,,,,,,,,,,,,,,,,,,,,,,,,,,,,,,,,,,,,,,,,,,,,,,,,,,
,,,,1,2.1185,,,,,,42,garden,kitchen,,89795,005,2022-04-24_18h47.14.905,SPAMnetsValid,2021.1.4,Win32,60.06727535,,,,,,,,,,,,,1,2.1185,0,34,34,29,1,,,,,,,,,,,,,,,,,,,,,,,,,,,,,,,,,,,,,,,,,,,,,,,,,,,,,,,,,,,,,,,,,,,,,,
,,,,4,2.7863,,,,,,55,tomato,tree,,89795,005,2022-04-24_18h47.14.905,SPAMnetsValid,2021.1.4,Win32,60.06727535,,,,,,,,,,,,,4,2.7863,0,35,35,35,1,,,,,,,,,,,,,,,,,,,,,,,,,,,,,,,,,,,,,,,,,,,,,,,,,,,,,,,,,,,,,,,,,,,,,,
,,,,7,2.2362,,,,,,36,broom,kitchen,,89795,005,2022-04-24_18h47.14.905,SPAMnetsValid,2021.1.4,Win32,60.06727535,,,,,,,,,,,,,7,2.2362,0,36,36,76,1,,,,,,,,,,,,,,,,,,,,,,,,,,,,,,,,,,,,,,,,,,,,,,,,,,,,,,,,,,,,,,,,,,,,,,
,,,,1,1.1204,,,,,,5,oven,tree,,89795,005,2022-04-24_18h47.14.905,SPAMnetsValid,2021.1.4,Win32,60.06727535,,,,,,,,,,,,,1,1.1204,0,37,37,70,1,,,,,,,,,,,,,,,,,,,,,,,,,,,,,,,,,,,,,,,,,,,,,,,,,,,,,,,,,,,,,,,,,,,,,,
,,,,3,2.7594,,,,,,46,garden,yogurt,,89795,005,2022-04-24_18h47.14.905,SPAMnetsValid,2021.1.4,Win32,60.06727535,,,,,,,,,,,,,3,2.7594,0,38,38,65,1,,,,,,,,,,,,,,,,,,,,,,,,,,,,,,,,,,,,,,,,,,,,,,,,,,,,,,,,,,,,,,,,,,,,,,
,,,,3,1.596,,,,,,53,garden,pretzel,,89795,005,2022-04-24_18h47.14.905,SPAMnetsValid,2021.1.4,Win32,60.06727535,,,,,,,,,,,,,3,1.596,0,39,39,0,1,,,,,,,,,,,,,,,,,,,,,,,,,,,,,,,,,,,,,,,,,,,,,,,,,,,,,,,,,,,,,,,,,,,,,,
,,,,7,19.7806,,,,,,7,melon,tree,,89795,005,2022-04-24_18h47.14.905,SPAMnetsValid,2021.1.4,Win32,60.06727535,,,,,,,,,,,,,7,19.7806,0,40,40,77,1,,,,,,,,,,,,,,,,,,,,,,,,,,,,,,,,,,,,,,,,,,,,,,,,,,,,,,,,,,,,,,,,,,,,,,
,,,,1,1.509,,,,,,35,flower,pretzel,,89795,005,2022-04-24_18h47.14.905,SPAMnetsValid,2021.1.4,Win32,60.06727535,,,,,,,,,,,,,1,1.509,0,41,41,26,1,,,,,,,,,,,,,,,,,,,,,,,,,,,,,,,,,,,,,,,,,,,,,,,,,,,,,,,,,,,,,,,,,,,,,,
,,,,1,2.095,,,,,,15,onion,oven,,89795,005,2022-04-24_18h47.14.905,SPAMnetsValid,2021.1.4,Win32,60.06727535,,,,,,,,,,,,,1,2.095,0,42,42,39,1,,,,,,,,,,,,,,,,,,,,,,,,,,,,,,,,,,,,,,,,,,,,,,,,,,,,,,,,,,,,,,,,,,,,,,
,,,,5,2.1213,,,,,,38,pretzel,refrigerator,,89795,005,2022-04-24_18h47.14.905,SPAMnetsValid,2021.1.4,Win32,60.06727535,,,,,,,,,,,,,5,2.1213,0,43,43,71,1,,,,,,,,,,,,,,,,,,,,,,,,,,,,,,,,,,,,,,,,,,,,,,,,,,,,,,,,,,,,,,,,,,,,,,
,,,,8,3.7622,,,,,,77,refrigerator,yogurt,,89795,005,2022-04-24_18h47.14.905,SPAMnetsValid,2021.1.4,Win32,60.06727535,,,,,,,,,,,,,8,3.7622,0,44,44,42,1,,,,,,,,,,,,,,,,,,,,,,,,,,,,,,,,,,,,,,,,,,,,,,,,,,,,,,,,,,,,,,,,,,,,,,
,,,,8,1.9202,,,,,,12,cookie,yogurt,,89795,005,2022-04-24_18h47.14.905,SPAMnetsValid,2021.1.4,Win32,60.06727535,,,,,,,,,,,,,8,1.9202,0,45,45,36,1,,,,,,,,,,,,,,,,,,,,,,,,,,,,,,,,,,,,,,,,,,,,,,,,,,,,,,,,,,,,,,,,,,,,,,
,,,,7,1.4208,,,,,,76,garden,rose,,89795,005,2022-04-24_18h47.14.905,SPAMnetsValid,2021.1.4,Win32,60.06727535,,,,,,,,,,,,,7,1.4208,0,46,46,19,1,,,,,,,,,,,,,,,,,,,,,,,,,,,,,,,,,,,,,,,,,,,,,,,,,,,,,,,,,,,,,,,,,,,,,,
,,,,1,1.2036,,,,,,84,oven,tomato,,89795,005,2022-04-24_18h47.14.905,SPAMnetsValid,2021.1.4,Win32,60.06727535,,,,,,,,,,,,,1,1.2036,0,47,47,28,1,,,,,,,,,,,,,,,,,,,,,,,,,,,,,,,,,,,,,,,,,,,,,,,,,,,,,,,,,,,,,,,,,,,,,,
,,,,7,1.487,,,,,,82,cake,kitchen,,89795,005,2022-04-24_18h47.14.905,SPAMnetsValid,2021.1.4,Win32,60.06727535,,,,,,,,,,,,,7,1.487,0,48,48,96,1,,,,,,,,,,,,,,,,,,,,,,,,,,,,,,,,,,,,,,,,,,,,,,,,,,,,,,,,,,,,,,,,,,,,,,
,,,,1,1.2271,,,,,,95,broom,refrigerator,,89795,005,2022-04-24_18h47.14.905,SPAMnetsValid,2021.1.4,Win32,60.06727535,,,,,,,,,,,,,1,1.2271,0,49,49,90,1,,,,,,,,,,,,,,,,,,,,,,,,,,,,,,,,,,,,,,,,,,,,,,,,,,,,,,,,,,,,,,,,,,,,,,
,,,,1,1.0774,,,,,,65,broom,garden,,89795,005,2022-04-24_18h47.14.905,SPAMnetsValid,2021.1.4,Win32,60.06727535,,,,,,,,,,,,,1,1.0774,0,50,50,23,1,,,,,,,,,,,,,,,,,,,,,,,,,,,,,,,,,,,,,,,,,,,,,,,,,,,,,,,,,,,,,,,,,,,,,,
,,,,1,1.2,,,,,,31,cactus,pretzel,,89795,005,2022-04-24_18h47.14.905,SPAMnetsValid,2021.1.4,Win32,60.06727535,,,,,,,,,,,,,1,1.2,0,51,51,1,1,,,,,,,,,,,,,,,,,,,,,,,,,,,,,,,,,,,,,,,,,,,,,,,,,,,,,,,,,,,,,,,,,,,,,,
,,,,7,1.6846,,,,,,63,cake,cookie,,89795,005,2022-04-24_18h47.14.905,SPAMnetsValid,2021.1.4,Win32,60.06727535,,,,,,,,,,,,,7,1.6846,0,52,52,93,1,,,,,,,,,,,,,,,,,,,,,,,,,,,,,,,,,,,,,,,,,,,,,,,,,,,,,,,,,,,,,,,,,,,,,,
,,,,1,1.2975,,,,,,32,cake,microwave,,89795,005,2022-04-24_18h47.14.905,SPAMnetsValid,2021.1.4,Win32,60.06727535,,,,,,,,,,,,,1,1.2975,0,53,53,33,1,,,,,,,,,,,,,,,,,,,,,,,,,,,,,,,,,,,,,,,,,,,,,,,,,,,,,,,,,,,,,,,,,,,,,,
,,,,1,1.7698,,,,,,89,chocolate,rose,,89795,005,2022-04-24_18h47.14.905,SPAMnetsValid,2021.1.4,Win32,60.06727535,,,,,,,,,,,,,1,1.7698,0,54,54,60,1,,,,,,,,,,,,,,,,,,,,,,,,,,,,,,,,,,,,,,,,,,,,,,,,,,,,,,,,,,,,,,,,,,,,,,
,,,,1,1.9323,,,,,,52,carrot,tomato,,89795,005,2022-04-24_18h47.14.905,SPAMnetsValid,2021.1.4,Win32,60.06727535,,,,,,,,,,,,,1,1.9323,0,55,55,95,1,,,,,,,,,,,,,,,,,,,,,,,,,,,,,,,,,,,,,,,,,,,,,,,,,,,,,,,,,,,,,,,,,,,,,,
,,,,6,3.9986,,,,,,37,garden,refrigerator,,89795,005,2022-04-24_18h47.14.905,SPAMnetsValid,2021.1.4,Win32,60.06727535,,,,,,,,,,,,,6,3.9986,0,56,56,11,1,,,,,,,,,,,,,,,,,,,,,,,,,,,,,,,,,,,,,,,,,,,,,,,,,,,,,,,,,,,,,,,,,,,,,,
,,,,1,4.2868,,,,,,91,microwave,rose,,89795,005,2022-04-24_18h47.14.905,SPAMnetsValid,2021.1.4,Win32,60.06727535,,,,,,,,,,,,,1,4.2868,0,57,57,84,1,,,,,,,,,,,,,,,,,,,,,,,,,,,,,,,,,,,,,,,,,,,,,,,,,,,,,,,,,,,,,,,,,,,,,,
,,,,7,1.828,,,,,,66,melon,yogurt,,89795,005,2022-04-24_18h47.14.905,SPAMnetsValid,2021.1.4,Win32,60.06727535,,,,,,,,,,,,,7,1.828,0,58,58,48,1,,,,,,,,,,,,,,,,,,,,,,,,,,,,,,,,,,,,,,,,,,,,,,,,,,,,,,,,,,,,,,,,,,,,,,
,,,,8,1.2156,,,,,,87,carrot,yogurt,,89795,005,2022-04-24_18h47.14.905,SPAMnetsValid,2021.1.4,Win32,60.06727535,,,,,,,,,,,,,8,1.2156,0,59,59,6,1,,,,,,,,,,,,,,,,,,,,,,,,,,,,,,,,,,,,,,,,,,,,,,,,,,,,,,,,,,,,,,,,,,,,,,
,,,,1,2.1365,,,,,,14,broom,cookie,,89795,005,2022-04-24_18h47.14.905,SPAMnetsValid,2021.1.4,Win32,60.06727535,,,,,,,,,,,,,1,2.1365,0,60,60,16,1,,,,,,,,,,,,,,,,,,,,,,,,,,,,,,,,,,,,,,,,,,,,,,,,,,,,,,,,,,,,,,,,,,,,,,
,,,,8,10.856,,,,,,94,kitchen,microwave,,89795,005,2022-04-24_18h47.14.905,SPAMnetsValid,2021.1.4,Win32,60.06727535,,,,,,,,,,,,,8,10.856,0,61,61,58,1,,,,,,,,,,,,,,,,,,,,,,,,,,,,,,,,,,,,,,,,,,,,,,,,,,,,,,,,,,,,,,,,,,,,,,
,,,,1,1.176,,,,,,83,broom,carrot,,89795,005,2022-04-24_18h47.14.905,SPAMnetsValid,2021.1.4,Win32,60.06727535,,,,,,,,,,,,,1,1.176,0,62,62,4,1,,,,,,,,,,,,,,,,,,,,,,,,,,,,,,,,,,,,,,,,,,,,,,,,,,,,,,,,,,,,,,,,,,,,,,
,,,,3,1.5201,,,,,,47,onion,tomato,,89795,005,2022-04-24_18h47.14.905,SPAMnetsValid,2021.1.4,Win32,60.06727535,,,,,,,,,,,,,3,1.5201,0,63,63,51,1,,,,,,,,,,,,,,,,,,,,,,,,,,,,,,,,,,,,,,,,,,,,,,,,,,,,,,,,,,,,,,,,,,,,,,
,,,,1,0.8956,,,,,,60,cactus,onion,,89795,005,2022-04-24_18h47.14.905,SPAMnetsValid,2021.1.4,Win32,60.06727535,,,,,,,,,,,,,1,0.8956,0,64,64,81,1,,,,,,,,,,,,,,,,,,,,,,,,,,,,,,,,,,,,,,,,,,,,,,,,,,,,,,,,,,,,,,,,,,,,,,
,,,,3,0.9649,,,,,,48,flower,oven,,89795,005,2022-04-24_18h47.14.905,SPAMnetsValid,2021.1.4,Win32,60.06727535,,,,,,,,,,,,,3,0.9649,0,65,65,15,1,,,,,,,,,,,,,,,,,,,,,,,,,,,,,,,,,,,,,,,,,,,,,,,,,,,,,,,,,,,,,,,,,,,,,,
,,,,2,0.7422,,,,,,19,microwave,pretzel,,89795,005,2022-04-24_18h47.14.905,SPAMnetsValid,2021.1.4,Win32,60.06727535,,,,,,,,,,,,,2,0.7422,0,66,66,41,1,,,,,,,,,,,,,,,,,,,,,,,,,,,,,,,,,,,,,,,,,,,,,,,,,,,,,,,,,,,,,,,,,,,,,,
,,,,2,0.7108,,,,,,4,chocolate,pretzel,,89795,005,2022-04-24_18h47.14.905,SPAMnetsValid,2021.1.4,Win32,60.06727535,,,,,,,,,,,,,2,0.7108,0,67,67,52,1,,,,,,,,,,,,,,,,,,,,,,,,,,,,,,,,,,,,,,,,,,,,,,,,,,,,,,,,,,,,,,,,,,,,,,
,,,,2,1.0313,,,,,,27,cactus,cookie,,89795,005,2022-04-24_18h47.14.905,SPAMnetsValid,2021.1.4,Win32,60.06727535,,,,,,,,,,,,,2,1.0313,0,68,68,17,1,,,,,,,,,,,,,,,,,,,,,,,,,,,,,,,,,,,,,,,,,,,,,,,,,,,,,,,,,,,,,,,,,,,,,,
,,,,7,1.2217,,,,,,61,strawberry,tomato,,89795,005,2022-04-24_18h47.14.905,SPAMnetsValid,2021.1.4,Win32,60.06727535,,,,,,,,,,,,,7,1.2217,0,69,69,80,1,,,,,,,,,,,,,,,,,,,,,,,,,,,,,,,,,,,,,,,,,,,,,,,,,,,,,,,,,,,,,,,,,,,,,,
,,,,6,1.4376,,,,,,21,cake,onion,,89795,005,2022-04-24_18h47.14.905,SPAMnetsValid,2021.1.4,Win32,60.06727535,,,,,,,,,,,,,6,1.4376,0,70,70,63,1,,,,,,,,,,,,,,,,,,,,,,,,,,,,,,,,,,,,,,,,,,,,,,,,,,,,,,,,,,,,,,,,,,,,,,
,,,,6,1.1418,,,,,,24,cookie,tomato,,89795,005,2022-04-24_18h47.14.905,SPAMnetsValid,2021.1.4,Win32,60.06727535,,,,,,,,,,,,,6,1.1418,0,71,71,68,1,,,,,,,,,,,,,,,,,,,,,,,,,,,,,,,,,,,,,,,,,,,,,,,,,,,,,,,,,,,,,,,,,,,,,,
,,,,6,1.4376,,,,,,1,rose,yogurt,,89795,005,2022-04-24_18h47.14.905,SPAMnetsValid,2021.1.4,Win32,60.06727535,,,,,,,,,,,,,6,1.4376,0,72,72,55,1,,,,,,,,,,,,,,,,,,,,,,,,,,,,,,,,,,,,,,,,,,,,,,,,,,,,,,,,,,,,,,,,,,,,,,
,,,,1,1.0217,,,,,,40,broom,cake,,89795,005,2022-04-24_18h47.14.905,SPAMnetsValid,2021.1.4,Win32,60.06727535,,,,,,,,,,,,,1,1.0217,0,73,73,32,1,,,,,,,,,,,,,,,,,,,,,,,,,,,,,,,,,,,,,,,,,,,,,,,,,,,,,,,,,,,,,,,,,,,,,,
,,,,7,2.732,,,,,,22,kitchen,strawberry,,89795,005,2022-04-24_18h47.14.905,SPAMnetsValid,2021.1.4,Win32,60.06727535,,,,,,,,,,,,,7,2.732,0,74,74,2,1,,,,,,,,,,,,,,,,,,,,,,,,,,,,,,,,,,,,,,,,,,,,,,,,,,,,,,,,,,,,,,,,,,,,,,
,,,,1,1.2034,,,,,,81,pretzel,yogurt,,89795,005,2022-04-24_18h47.14.905,SPAMnetsValid,2021.1.4,Win32,60.06727535,,,,,,,,,,,,,1,1.2034,0,75,75,50,1,,,,,,,,,,,,,,,,,,,,,,,,,,,,,,,,,,,,,,,,,,,,,,,,,,,,,,,,,,,,,,,,,,,,,,
,,,,3,1.3881,,,,,,49,flower,strawberry,,89795,005,2022-04-24_18h47.14.905,SPAMnetsValid,2021.1.4,Win32,60.06727535,,,,,,,,,,,,,3,1.3881,0,76,76,3,1,,,,,,,,,,,,,,,,,,,,,,,,,,,,,,,,,,,,,,,,,,,,,,,,,,,,,,,,,,,,,,,,,,,,,,
,,,,7,0.9581,,,,,,9,kitchen,refrigerator,,89795,005,2022-04-24_18h47.14.905,SPAMnetsValid,2021.1.4,Win32,60.06727535,,,,,,,,,,,,,7,0.9581,0,77,77,64,1,,,,,,,,,,,,,,,,,,,,,,,,,,,,,,,,,,,,,,,,,,,,,,,,,,,,,,,,,,,,,,,,,,,,,,
,,,,6,3.9397,,,,,,29,chocolate,melon,,89795,005,2022-04-24_18h47.14.905,SPAMnetsValid,2021.1.4,Win32,60.06727535,,,,,,,,,,,,,6,3.9397,0,78,78,34,1,,,,,,,,,,,,,,,,,,,,,,,,,,,,,,,,,,,,,,,,,,,,,,,,,,,,,,,,,,,,,,,,,,,,,,
,,,,9,1.4591,,,,,,192,microwave,microwave,CHECK,89795,005,2022-04-24_18h47.14.905,SPAMnetsValid,2021.1.4,Win32,60.06727535,,,,,,,,,,,,,9,1.4591,0,79,79,53,1,,,,,,,,,,,,,,,,,,,,,,,,,,,,,,,,,,,,,,,,,,,,,,,,,,,,,,,,,,,,,,,,,,,,,,
,,,,1,0.963,,,,,,93,kitchen,oven,,89795,005,2022-04-24_18h47.14.905,SPAMnetsValid,2021.1.4,Win32,60.06727535,,,,,,,,,,,,,1,0.963,0,80,80,82,1,,,,,,,,,,,,,,,,,,,,,,,,,,,,,,,,,,,,,,,,,,,,,,,,,,,,,,,,,,,,,,,,,,,,,,
,,,,6,1.0432,,,,,,26,tomato,yogurt,,89795,005,2022-04-24_18h47.14.905,SPAMnetsValid,2021.1.4,Win32,60.06727535,,,,,,,,,,,,,6,1.0432,0,81,81,13,1,,,,,,,,,,,,,,,,,,,,,,,,,,,,,,,,,,,,,,,,,,,,,,,,,,,,,,,,,,,,,,,,,,,,,,
,,,,1,0.7411,,,,,,85,cake,tree,,89795,005,2022-04-24_18h47.14.905,SPAMnetsValid,2021.1.4,Win32,60.06727535,,,,,,,,,,,,,1,0.7411,0,82,82,18,1,,,,,,,,,,,,,,,,,,,,,,,,,,,,,,,,,,,,,,,,,,,,,,,,,,,,,,,,,,,,,,,,,,,,,,
,,,,5,2.8196,,,,,,33,oven,yogurt,,89795,005,2022-04-24_18h47.14.905,SPAMnetsValid,2021.1.4,Win32,60.06727535,,,,,,,,,,,,,5,2.8196,0,83,83,31,1,,,,,,,,,,,,,,,,,,,,,,,,,,,,,,,,,,,,,,,,,,,,,,,,,,,,,,,,,,,,,,,,,,,,,,
,,,,5,1.2847,,,,,,16,chocolate,flower,,89795,005,2022-04-24_18h47.14.905,SPAMnetsValid,2021.1.4,Win32,60.06727535,,,,,,,,,,,,,5,1.2847,0,84,84,22,1,,,,,,,,,,,,,,,,,,,,,,,,,,,,,,,,,,,,,,,,,,,,,,,,,,,,,,,,,,,,,,,,,,,,,,
,,,,5,1.4535,,,,,,10,flower,onion,,89795,005,2022-04-24_18h47.14.905,SPAMnetsValid,2021.1.4,Win32,60.06727535,,,,,,,,,,,,,5,1.4535,0,85,85,45,1,,,,,,,,,,,,,,,,,,,,,,,,,,,,,,,,,,,,,,,,,,,,,,,,,,,,,,,,,,,,,,,,,,,,,,
,,,,8,15.3073,,,,,,30,cookie,pretzel,,89795,005,2022-04-24_18h47.14.905,SPAMnetsValid,2021.1.4,Win32,60.06727535,,,,,,,,,,,,,8,15.3073,0,86,86,78,1,,,,,,,,,,,,,,,,,,,,,,,,,,,,,,,,,,,,,,,,,,,,,,,,,,,,,,,,,,,,,,,,,,,,,,
,,,,1,1.2585,,,,,,80,chocolate,tree,,89795,005,2022-04-24_18h47.14.905,SPAMnetsValid,2021.1.4,Win32,60.06727535,,,,,,,,,,,,,1,1.2585,0,87,87,89,1,,,,,,,,,,,,,,,,,,,,,,,,,,,,,,,,,,,,,,,,,,,,,,,,,,,,,,,,,,,,,,,,,,,,,,
,,,,2,1.97,,,,,,11,refrigerator,tree,,89795,005,2022-04-24_18h47.14.905,SPAMnetsValid,2021.1.4,Win32,60.06727535,,,,,,,,,,,,,2,1.97,0,88,88,43,1,,,,,,,,,,,,,,,,,,,,,,,,,,,,,,,,,,,,,,,,,,,,,,,,,,,,,,,,,,,,,,,,,,,,,,
,,,,3,2.2443,,,,,,90,cactus,cake,,89795,005,2022-04-24_18h47.14.905,SPAMnetsValid,2021.1.4,Win32,60.06727535,,,,,,,,,,,,,3,2.2443,0,89,89,85,1,,,,,,,,,,,,,,,,,,,,,,,,,,,,,,,,,,,,,,,,,,,,,,,,,,,,,,,,,,,,,,,,,,,,,,
,,,,6,1.1757,,,,,,28,cake,melon,,89795,005,2022-04-24_18h47.14.905,SPAMnetsValid,2021.1.4,Win32,60.06727535,,,,,,,,,,,,,6,1.1757,0,90,90,54,1,,,,,,,,,,,,,,,,,,,,,,,,,,,,,,,,,,,,,,,,,,,,,,,,,,,,,,,,,,,,,,,,,,,,,,
,,,,1,1.1401,,,,,,13,broom,yogurt,,89795,005,2022-04-24_18h47.14.905,SPAMnetsValid,2021.1.4,Win32,60.06727535,,,,,,,,,,,,,1,1.1401,0,91,91,5,1,,,,,,,,,,,,,,,,,,,,,,,,,,,,,,,,,,,,,,,,,,,,,,,,,,,,,,,,,,,,,,,,,,,,,,
,,,,4,2.3874,,,,,,67,flower,yogurt,,89795,005,2022-04-24_18h47.14.905,SPAMnetsValid,2021.1.4,Win32,60.06727535,,,,,,,,,,,,,4,2.3874,0,92,92,12,1,,,,,,,,,,,,,,,,,,,,,,,,,,,,,,,,,,,,,,,,,,,,,,,,,,,,,,,,,,,,,,,,,,,,,,
,,,,6,1.2609,,,,,,20,rose,tree,,89795,005,2022-04-24_18h47.14.905,SPAMnetsValid,2021.1.4,Win32,60.06727535,,,,,,,,,,,,,6,1.2609,0,93,93,66,1,,,,,,,,,,,,,,,,,,,,,,,,,,,,,,,,,,,,,,,,,,,,,,,,,,,,,,,,,,,,,,,,,,,,,,
,,,,2,1.1263,,,,,,45,onion,pretzel,,89795,005,2022-04-24_18h47.14.905,SPAMnetsValid,2021.1.4,Win32,60.06727535,,,,,,,,,,,,,2,1.1263,0,94,94,69,1,,,,,,,,,,,,,,,,,,,,,,,,,,,,,,,,,,,,,,,,,,,,,,,,,,,,,,,,,,,,,,,,,,,,,,
,,,,6,0.8204,,,,,,191,cake,cake,CHECK,89795,005,2022-04-24_18h47.14.905,SPAMnetsValid,2021.1.4,Win32,60.06727535,,,,,,,,,,,,,6,0.8204,0,95,95,10,1,,,,,,,,,,,,,,,,,,,,,,,,,,,,,,,,,,,,,,,,,,,,,,,,,,,,,,,,,,,,,,,,,,,,,,
,,,,7,2.6862,,,,,,74,broom,pretzel,,89795,005,2022-04-24_18h47.14.905,SPAMnetsValid,2021.1.4,Win32,60.06727535,,,,,,,,,,,,,7,2.6862,0,96,96,40,1,,,,,,,,,,,,,,,,,,,,,,,,,,,,,,,,,,,,,,,,,,,,,,,,,,,,,,,,,,,,,,,,,,,,,,
,,,,,,,,,,,,,,,89795,005,2022-04-24_18h47.14.905,SPAMnetsValid,2021.1.4,Win32,60.06727535,,,,,,,,,,,,,,,,,,,,0,0,0,0,1,,,,,,,,,,,,,,,,,,,,,,,,,,,,,,,,,,,,,,,,,,,,,,,,,,,,,,,,,,,,,,,,,
,,,,,,,,,,,,,,,89795,005,2022-04-24_18h47.14.905,SPAMnetsValid,2021.1.4,Win32,60.06727535,,,,,,0,1,1,0,1,1,0,,,,,,,,,,,,,,,,,,,,,,,,,,,,,,,,,,,,,,,,,,,,,,,,,,,,,,,,,,,,,,,,,,,,,,,,,,,,,
,,,,,,,,,,,,,,,89795,005,2022-04-24_18h47.14.905,SPAMnetsValid,2021.1.4,Win32,60.06727535,,,,,,,,,,,,,,,,,,,,,,,,,1,4.8153,0,0,0,0,1,rancor,forbearance,ridicule,malice,bravery,3,,,,,,,,,,,,,,,,,,,,,,,,,,,,,,,,,,,,,,,,,,,,,,,,,,,,
,,,,,,,,,,,,,,,89795,005,2022-04-24_18h47.14.905,SPAMnetsValid,2021.1.4,Win32,60.06727535,,,,,,,,,,,,,,,,,,,,,,,,,3,7.5475,0,1,1,1,1,raucous,empty,quiet,smooth,harsh,4,,,,,,,,,,,,,,,,,,,,,,,,,,,,,,,,,,,,,,,,,,,,,,,,,,,,
,,,,,,,,,,,,,,,89795,005,2022-04-24_18h47.14.905,SPAMnetsValid,2021.1.4,Win32,60.06727535,,,,,,,,,,,,,,,,,,,,,,,,,3,3.4185,0,2,2,2,1,gargoyle,oil,medicine,carved waterspout,ugly building,3,,,,,,,,,,,,,,,,,,,,,,,,,,,,,,,,,,,,,,,,,,,,,,,,,,,,
,,,,,,,,,,,,,,,89795,005,2022-04-24_18h47.14.905,SPAMnetsValid,2021.1.4,Win32,60.06727535,,,,,,,,,,,,,,,,,,,,,,,,,1,5.7004,0,3,3,3,1,recrudesce,purify,renew activity,lack refinement,crush,2,,,,,,,,,,,,,,,,,,,,,,,,,,,,,,,,,,,,,,,,,,,,,,,,,,,,
,,,,,,,,,,,,,,,89795,005,2022-04-24_18h47.14.905,SPAMnetsValid,2021.1.4,Win32,60.06727535,,,,,,,,,,,,,,,,,,,,,,,,,4,4.449,0,4,4,4,1,specious,"plausible, but not genuine",noteworthy,class or variety,roomy,1,,,,,,,,,,,,,,,,,,,,,,,,,,,,,,,,,,,,,,,,,,,,,,,,,,,,
,,,,,,,,,,,,,,,89795,005,2022-04-24_18h47.14.905,SPAMnetsValid,2021.1.4,Win32,60.06727535,,,,,,,,,,,,,,,,,,,,,,,,,3,5.8141,0,5,5,5,1,bauble,bubble,showy plaything,idle talk,confusion,2,,,,,,,,,,,,,,,,,,,,,,,,,,,,,,,,,,,,,,,,,,,,,,,,,,,,
,,,,,,,,,,,,,,,89795,005,2022-04-24_18h47.14.905,SPAMnetsValid,2021.1.4,Win32,60.06727535,,,,,,,,,,,,,,,,,,,,,,,,,3,3.5173,0,6,6,6,1,prolific,scarce,producing abundantly,reckless,speaking profanely,2,,,,,,,,,,,,,,,,,,,,,,,,,,,,,,,,,,,,,,,,,,,,,,,,,,,,
,,,,,,,,,,,,,,,89795,005,2022-04-24_18h47.14.905,SPAMnetsValid,2021.1.4,Win32,60.06727535,,,,,,,,,,,,,,,,,,,,,,,,,4,3.5414,0,7,7,7,1,opulent,party,wealthy,happy frame of mind,semiprecious stone,2,,,,,,,,,,,,,,,,,,,,,,,,,,,,,,,,,,,,,,,,,,,,,,,,,,,,
,,,,,,,,,,,,,,,89795,005,2022-04-24_18h47.14.905,SPAMnetsValid,2021.1.4,Win32,60.06727535,,,,,,,,,,,,,,,,,,,,,,,,,3,4.9922,0,8,8,8,1,coercion,conspiracy,strategy,restraint,attraction,3,,,,,,,,,,,,,,,,,,,,,,,,,,,,,,,,,,,,,,,,,,,,,,,,,,,,
,,,,,,,,,,,,,,,89795,005,2022-04-24_18h47.14.905,SPAMnetsValid,2021.1.4,Win32,60.06727535,,,,,,,,,,,,,,,,,,,,,,,,,3,3.1998,0,9,9,9,1,hiatus,animal,calamity,dread,gap,4,,,,,,,,,,,,,,,,,,,,,,,,,,,,,,,,,,,,,,,,,,,,,,,,,,,,
,,,,,,,,,,,,,,,89795,005,2022-04-24_18h47.14.905,SPAMnetsValid,2021.1.4,Win32,60.06727535,,,,,,,,,,,,,,,,,,,,,,,,,2,2.0281,0,10,10,10,1,germane,microbe,contagious,relevant,different,3,,,,,,,,,,,,,,,,,,,,,,,,,,,,,,,,,,,,,,,,,,,,,,,,,,,,
,,,,,,,,,,,,,,,89795,005,2022-04-24_18h47.14.905,SPAMnetsValid,2021.1.4,Win32,60.06727535,,,,,,,,,,,,,,,,,,,,,,,,,2,5.8507,0,11,11,11,1,perfunctory,fundamental,formal,superficial,careful,3,,,,,,,,,,,,,,,,,,,,,,,,,,,,,,,,,,,,,,,,,,,,,,,,,,,,
,,,,,,,,,,,,,,,89795,005,2022-04-24_18h47.14.905,SPAMnetsValid,2021.1.4,Win32,60.06727535,,,,,,,,,,,,,,,,,,,,,,,,,4,11.1873,0,12,12,12,1,diverge,reveal,chant,distract the attention of,differ or turn off from,4,,,,,,,,,,,,,,,,,,,,,,,,,,,,,,,,,,,,,,,,,,,,,,,,,,,,
,,,,,,,,,,,,,,,89795,005,2022-04-24_18h47.14.905,SPAMnetsValid,2021.1.4,Win32,60.06727535,,,,,,,,,,,,,,,,,,,,,,,,,4,3.6589,0,13,13,13,1,evoke,take away,anger,connect,bring out,4,,,,,,,,,,,,,,,,,,,,,,,,,,,,,,,,,,,,,,,,,,,,,,,,,,,,
,,,,,,,,,,,,,,,89795,005,2022-04-24_18h47.14.905,SPAMnetsValid,2021.1.4,Win32,60.06727535,,,,,,,,,,,,,,,,,,,,,,,,,1,4.7989,0,14,14,14,1,pertinent,relevant,lying next to,necessary,bold,1,,,,,,,,,,,,,,,,,,,,,,,,,,,,,,,,,,,,,,,,,,,,,,,,,,,,
,,,,,,,,,,,,,,,89795,005,2022-04-24_18h47.14.905,SPAMnetsValid,2021.1.4,Win32,60.06727535,,,,,,,,,,,,,,,,,,,,,,,,,2,7.2809,0,15,15,15,1,holocaust,entirety,destruction,saintly,price,2,,,,,,,,,,,,,,,,,,,,,,,,,,,,,,,,,,,,,,,,,,,,,,,,,,,,
,,,,,,,,,,,,,,,89795,005,2022-04-24_18h47.14.905,SPAMnetsValid,2021.1.4,Win32,60.06727535,,,,,,,,,,,,,,,,,,,,,,,,,3,2.6839,0,16,16,16,1,piquant,mellow,fish,pungent,cloth,3,,,,,,,,,,,,,,,,,,,,,,,,,,,,,,,,,,,,,,,,,,,,,,,,,,,,
,,,,,,,,,,,,,,,89795,005,2022-04-24_18h47.14.905,SPAMnetsValid,2021.1.4,Win32,60.06727535,,,,,,,,,,,,,,,,,,,,,,,,,3,1.615,0,17,17,17,1,firmament,foundation,heavens,strong,glue,2,,,,,,,,,,,,,,,,,,,,,,,,,,,,,,,,,,,,,,,,,,,,,,,,,,,,
,,,,,,,,,,,,,,,89795,005,2022-04-24_18h47.14.905,SPAMnetsValid,2021.1.4,Win32,60.06727535,,,,,,,,,,,,,,,,,,,,,,,,,,,,,,,,,,,,,,4,3.8254,0,0,0,0,1,marketable,partisan,jocular,marriageable,salable,essential,4,,,,,,,,,,,,,,,,,,,,,,,,,,,,,,,,,,,,,,
,,,,,,,,,,,,,,,89795,005,2022-04-24_18h47.14.905,SPAMnetsValid,2021.1.4,Win32,60.06727535,,,,,,,,,,,,,,,,,,,,,,,,,,,,,,,,,,,,,,2,6.3956,0,1,1,1,1,cottontail,squirrel,poplar,boa,marshy plant,rabbit,5,,,,,,,,,,,,,,,,,,,,,,,,,,,,,,,,,,,,,,
,,,,,,,,,,,,,,,89795,005,2022-04-24_18h47.14.905,SPAMnetsValid,2021.1.4,Win32,60.06727535,,,,,,,,,,,,,,,,,,,,,,,,,,,,,,,,,,,,,,3,2.5924,0,2,2,2,1,boggy,afraid,false,marshy,dense,black,3,,,,,,,,,,,,,,,,,,,,,,,,,,,,,,,,,,,,,,
,,,,,,,,,,,,,,,89795,005,2022-04-24_18h47.14.905,SPAMnetsValid,2021.1.4,Win32,60.06727535,,,,,,,,,,,,,,,,,,,,,,,,,,,,,,,,,,,,,,2,2.7345,0,3,3,3,1,gruesomeness,blackness,falseness,vindictiveness,drunkenness,ghastliness,5,,,,,,,,,,,,,,,,,,,,,,,,,,,,,,,,,,,,,,
,,,,,,,,,,,,,,,89795,005,2022-04-24_18h47.14.905,SPAMnetsValid,2021.1.4,Win32,60.06727535,,,,,,,,,,,,,,,,,,,,,,,,,,,,,,,,,,,,,,1,1.3823,0,4,4,4,1,loathing,diffidence,laziness,abhorrence,cleverness,comfort,3,,,,,,,,,,,,,,,,,,,,,,,,,,,,,,,,,,,,,,
,,,,,,,,,,,,,,,89795,005,2022-04-24_18h47.14.905,SPAMnetsValid,2021.1.4,Win32,60.06727535,,,,,,,,,,,,,,,,,,,,,,,,,,,,,,,,,,,,,,3,0.7675,0,5,5,5,1,bantam,fowl,ridicule,cripple,vegetable,ensign,1,,,,,,,,,,,,,,,,,,,,,,,,,,,,,,,,,,,,,,
,,,,,,,,,,,,,,,89795,005,2022-04-24_18h47.14.905,SPAMnetsValid,2021.1.4,Win32,60.06727535,,,,,,,,,,,,,,,,,,,,,,,,,,,,,,,,,,,,,,4,0.5659,0,6,6,6,1,evoke,wake up,surrender,reconnoiter,transcend,call forth,5,,,,,,,,,,,,,,,,,,,,,,,,,,,,,,,,,,,,,,
,,,,,,,,,,,,,,,89795,005,2022-04-24_18h47.14.905,SPAMnetsValid,2021.1.4,Win32,60.06727535,,,,,,,,,,,,,,,,,,,,,,,,,,,,,,,,,,,,,,2,0.9156,0,7,7,7,1,unobtrusive,unintelligent,epileptic,illogical,lineal,modest,5,,,,,,,,,,,,,,,,,,,,,,,,,,,,,,,,,,,,,,
,,,,,,,,,,,,,,,89795,005,2022-04-24_18h47.14.905,SPAMnetsValid,2021.1.4,Win32,60.06727535,,,,,,,,,,,,,,,,,,,,,,,,,,,,,,,,,,,,,,4,3.7184,0,8,8,8,1,terrain,ice cream,final test,tractor,area of ground,weight,4,,,,,,,,,,,,,,,,,,,,,,,,,,,,,,,,,,,,,,
,,,,,,,,,,,,,,,89795,005,2022-04-24_18h47.14.905,SPAMnetsValid,2021.1.4,Win32,60.06727535,,,,,,,,,,,,,,,,,,,,,,,,,,,,,,,,,,,,,,1,2.7961,0,9,9,9,1,capriciousness,stubbornness,courage,whimsicality,amazement,greediness,3,,,,,,,,,,,,,,,,,,,,,,,,,,,,,,,,,,,,,,
,,,,,,,,,,,,,,,89795,005,2022-04-24_18h47.14.905,SPAMnetsValid,2021.1.4,Win32,60.06727535,,,,,,,,,,,,,,,,,,,,,,,,,,,,,,,,,,,,,,4,1.565,0,10,10,10,1,maelstrom,slander,whirlpool,enmity,armor,majolica,2,,,,,,,,,,,,,,,,,,,,,,,,,,,,,,,,,,,,,,
,,,,,,,,,,,,,,,89795,005,2022-04-24_18h47.14.905,SPAMnetsValid,2021.1.4,Win32,60.06727535,,,,,,,,,,,,,,,,,,,,,,,,,,,,,,,,,,,,,,5,3.7165,0,11,11,11,1,tentative,critical,conclusive,authentic,provisional,apprehensive,4,,,,,,,,,,,,,,,,,,,,,,,,,,,,,,,,,,,,,,
,,,,,,,,,,,,,,,89795,005,2022-04-24_18h47.14.905,SPAMnetsValid,2021.1.4,Win32,60.06727535,,,,,,,,,,,,,,,,,,,,,,,,,,,,,,,,,,,,,,1,1.8986,0,12,12,12,1,placate,rehabilitate,plagiarize,depredate,apprise,conciliate,5,,,,,,,,,,,,,,,,,,,,,,,,,,,,,,,,,,,,,,
,,,,,,,,,,,,,,,89795,005,2022-04-24_18h47.14.905,SPAMnetsValid,2021.1.4,Win32,60.06727535,,,,,,,,,,,,,,,,,,,,,,,,,,,,,,,,,,,,,,4,9.6905,0,13,13,13,1,surcease,enlightenment,cessation,inattention,censor,substitution,2,,,,,,,,,,,,,,,,,,,,,,,,,,,,,,,,,,,,,,
,,,,,,,,,,,,,,,89795,005,2022-04-24_18h47.14.905,SPAMnetsValid,2021.1.4,Win32,60.06727535,,,,,,,,,,,,,,,,,,,,,,,,,,,,,,,,,,,,,,3,3.2828,0,14,14,14,1,apathetic,wandering,impassive,hateful,prophetic,overflowing,2,,,,,,,,,,,,,,,,,,,,,,,,,,,,,,,,,,,,,,
,,,,,,,,,,,,,,,89795,005,2022-04-24_18h47.14.905,SPAMnetsValid,2021.1.4,Win32,60.06727535,,,,,,,,,,,,,,,,,,,,,,,,,,,,,,,,,,,,,,,,0,15,15,15,1,paternoster,paternalism,patricide,malediction,benediction,prayer,5,,,,,,,,,,,,,,,,,,,,,,,,,,,,,,,,,,,,,,
,,,,,,,,,,,,,,,89795,005,2022-04-24_18h47.14.905,SPAMnetsValid,2021.1.4,Win32,60.06727535,,,,,,,,,,,,,,,,,,,,,,,,,,,,,,,,,,,,,,1,0.1493,0,16,16,16,1,opalescence,opulence,senescence,bankruptcy,iridescence,assiduity,4,,,,,,,,,,,,,,,,,,,,,,,,,,,,,,,,,,,,,,
,,,,,,,,,,,,,,,89795,005,2022-04-24_18h47.14.905,SPAMnetsValid,2021.1.4,Win32,60.06727535,,,,,,,,,,,,,,,,,,,,,,,,,,,,,,,,,,,,,,2,3.714,0,17,17,17,1,lush,stupid,luxurious,hazy,putrid,languishing,2,,,,,,,,,,,,,,,,,,,,,,,,,,,,,,,,,,,,,,
,,,,,,,,,,,,,,,89795,005,2022-04-24_18h47.14.905,SPAMnetsValid,2021.1.4,Win32,60.06727535,,,,,,,,,,,,,,,,,,,,,,,,,,,,,,,,,,,,,,4,3.3085,0,18,18,18,1,curtailment,expenditure,abandonment,abridgment,improvement,forgery,3,,,,,,,,,,,,,,,,,,,,,,,,,,,,,,,,,,,,,,
,,,,,,,,,,,,,,,89795,005,2022-04-24_18h47.14.905,SPAMnetsValid,2021.1.4,Win32,60.06727535,,,,,,,,,,,,,,,,,,,,,,,,,,,,,,,,,,,,,,5,4.837,0,19,19,19,1,perversity,adversity,perviousness,travesty,waywardness,gentility,4,,,,,,,,,,,,,,,,,,,,,,,,,,,,,,,,,,,,,,
,,,,,,,,,,,,,,,89795,005,2022-04-24_18h47.14.905,SPAMnetsValid,2021.1.4,Win32,60.06727535,,,,,,,,,,,,,,,,,,,,,,,,,,,,,,,,,,,,,,1,2.5352,0,20,20,20,1,calumnious,complimentary,analogous,slanderous,tempestuous,magnanimous,3,,,,,,,,,,,,,,,,,,,,,,,,,,,,,,,,,,,,,,
,,,,,,,,,,,,,,,89795,005,2022-04-24_18h47.14.905,SPAMnetsValid,2021.1.4,Win32,60.06727535,,,,,,,,,,,,,,,,,,,,,,,,,,,,,,,,,,,,,,3,2.2849,0,21,21,21,1,illiberality,bigotry,imbecility,illegibility,cautery,immaturity,1,,,,,,,,,,,,,,,,,,,,,,,,,,,,,,,,,,,,,,
,,,,,,,,,,,,,,,89795,005,2022-04-24_18h47.14.905,SPAMnetsValid,2021.1.4,Win32,60.06727535,,,,,,,,,,,,,,,,,,,,,,,,,,,,,,,,,,,,,,1,1.6768,0,22,22,22,1,clabber,rejoice,gossip,curdle,crow,hobble,3,,,,,,,,,,,,,,,,,,,,,,,,,,,,,,,,,,,,,,
,,,,,,,,,,,,,,,89795,005,2022-04-24_18h47.14.905,SPAMnetsValid,2021.1.4,Win32,60.06727535,,,,,,,,,,,,,,,,,,,,,,,,,,,,,,,,,,,,,,5,1.72,0,23,23,23,1,sedulousness,diligence,credulousness,seduction,perilousness,frankness,1,,,,,,,,,,,,,,,,,,,,,,,,,,,,,,,,,,,,,,
,,,,,,,,,,,,,,,89795,005,2022-04-24_18h47.14.905,SPAMnetsValid,2021.1.4,Win32,60.06727535,,,,,,,,,,,,,,,,,,,,,,,,,,,,,,,,,,,,,,,,,,,,,,,,,,,,fight,pillow,0,0,0,0,1,,,,,,,,,,,,,,,,,,,,,,,,,,,,,,,
,,,,,,,,,,,,,,,89795,005,2022-04-24_18h47.14.905,SPAMnetsValid,2021.1.4,Win32,60.06727535,,,,,,,,,,,,,,,,,,,,,,,,,,,,,,,,,,,,,,,,,,,,,,,,,,,,throw,pillow,1,0,1,0,1,,,,,,,,,,,,,,,,,,,,,,,,,,,,,,,
,,,,,,,,,,,,,,,89795,005,2022-04-24_18h47.14.905,SPAMnetsValid,2021.1.4,Win32,60.06727535,,,,,,,,,,,,,,,,,,,,,,,,,,,,,,,,,,,,,,,,,,,,,,,,,,,,sleep,pillow,2,0,2,0,1,,,,,,,,,,,,,,,,,,,,,,,,,,,,,,,
,,,,,,,,,,,,,,,89795,005,2022-04-24_18h47.14.905,SPAMnetsValid,2021.1.4,Win32,60.06727535,,,,,,,,,,,,,,,,,,,,,,,,,,,,,,,,,,,,,,,,,,,,,,,,,,,,carry,pillow,3,0,3,0,1,,,,,,,,,,,,,,,,,,,,,,,,,,,,,,,
,,,,,,,,,,,,,,,89795,005,2022-04-24_18h47.14.905,SPAMnetsValid,2021.1.4,Win32,60.06727535,,,,,,,,,,,,,,,,,,,,,,,,,,,,,,,,,,,,,,,,,,,,,,,,,,,,fall onto,pillow,4,0,4,0,1,,,,,,,,,,,,,,,,,,,,,,,,,,,,,,,
,,,,,,,,,,,,,,,89795,005,2022-04-24_18h47.14.905,SPAMnetsValid,2021.1.4,Win32,60.06727535,,,,,,,,,,,,,,,,,,,,,,,,,,,,,,,,,,,,,,,,,,,,,,,,,,,,mop,pillow,5,0,5,0,1,,,,,,,,,,,,,,,,,,,,,,,,,,,,,,,
,,,,,,,,,,,,,,,89795,005,2022-04-24_18h47.14.905,SPAMnetsValid,2021.1.4,Win32,60.06727535,,,,,,,,,,,,,,,,,,,,,,,,,,,,,,,,,,,,,,,,,,,,,,,,,,,,kick,pillow,6,0,6,0,1,,,,,,,,,,,,,,,,,,,,,,,,,,,,,,,
,,,,,,,,,,,,,,,89795,005,2022-04-24_18h47.14.905,SPAMnetsValid,2021.1.4,Win32,60.06727535,,,,,,,,,,,,,,,,,,,,,,,,,,,,,,,,,,,,,,,,,,,,,,,,,,,,flip,pillow,7,0,7,0,1,,,,,,,,,,,,,,,,,,,,,,,,,,,,,,,
,,,,,,,,,,,,,,,89795,005,2022-04-24_18h47.14.905,SPAMnetsValid,2021.1.4,Win32,60.06727535,,,,,,,,,,,,,,,,,,,,,,,,,,,,,,,,,,,,,,,,,,,,,,,,,,,,cover,pillow,8,0,8,0,1,,,,,,,,,,,,,,,,,,,,,,,,,,,,,,,
,,,,,,,,,,,,,,,89795,005,2022-04-24_18h47.14.905,SPAMnetsValid,2021.1.4,Win32,60.06727535,,,,,,,,,,,,,,,,,,,,,,,,,,,,,,,,,,,,,,,,,,,,,,,,,,,,punch,pillow,9,0,9,0,1,,,,,,,,,,,,,,,,,,,,,,,,,,,,,,,
,,,,,,,,,,,,,,,89795,005,2022-04-24_18h47.14.905,SPAMnetsValid,2021.1.4,Win32,60.06727535,,,,,,,,,,,,,,,,,,,,,,,,,,,,,,,,,,,,,,,,,,,,,,,,,,,,,,,,,,,0,0,0,2,1,pillow,,,,,,,,,,,,,,,,,,,,,,,,,
,,,,,,,,,,,,,,,89795,005,2022-04-24_18h47.14.905,SPAMnetsValid,2021.1.4,Win32,60.06727535,,,,,,,,,,,,,,,,,,,,,,,,,,,,,,,,,,,,,,,,,,,,,,,,,,,,wear,bucket,0,0,0,0,1,,,,,,,,,,,,,,,,,,,,,,,,,,,,,,,
,,,,,,,,,,,,,,,89795,005,2022-04-24_18h47.14.905,SPAMnetsValid,2021.1.4,Win32,60.06727535,,,,,,,,,,,,,,,,,,,,,,,,,,,,,,,,,,,,,,,,,,,,,,,,,,,,dress,bucket,1,0,1,0,1,,,,,,,,,,,,,,,,,,,,,,,,,,,,,,,
,,,,,,,,,,,,,,,89795,005,2022-04-24_18h47.14.905,SPAMnetsValid,2021.1.4,Win32,60.06727535,,,,,,,,,,,,,,,,,,,,,,,,,,,,,,,,,,,,,,,,,,,,,,,,,,,,decoration,bucket,2,0,2,0,1,,,,,,,,,,,,,,,,,,,,,,,,,,,,,,,
,,,,,,,,,,,,,,,89795,005,2022-04-24_18h47.14.905,SPAMnetsValid,2021.1.4,Win32,60.06727535,,,,,,,,,,,,,,,,,,,,,,,,,,,,,,,,,,,,,,,,,,,,,,,,,,,,table use,bucket,3,0,3,0,1,,,,,,,,,,,,,,,,,,,,,,,,,,,,,,,
,,,,,,,,,,,,,,,89795,005,2022-04-24_18h47.14.905,SPAMnetsValid,2021.1.4,Win32,60.06727535,,,,,,,,,,,,,,,,,,,,,,,,,,,,,,,,,,,,,,,,,,,,,,,,,,,,sit on,bucket,4,0,4,0,1,,,,,,,,,,,,,,,,,,,,,,,,,,,,,,,
,,,,,,,,,,,,,,,89795,005,2022-04-24_18h47.14.905,SPAMnetsValid,2021.1.4,Win32,60.06727535,,,,,,,,,,,,,,,,,,,,,,,,,,,,,,,,,,,,,,,,,,,,,,,,,,,,use as a basketball basket,bucket,5,0,5,0,1,,,,,,,,,,,,,,,,,,,,,,,,,,,,,,,
,,,,,,,,,,,,,,,89795,005,2022-04-24_18h47.14.905,SPAMnetsValid,2021.1.4,Win32,60.06727535,,,,,,,,,,,,,,,,,,,,,,,,,,,,,,,,,,,,,,,,,,,,,,,,,,,,,,,,,,,0,1,1,0,1,bucket,,,,,,,,,,,,,,,,,,,,,,,,,
,,,,,,,,,,,,,,,89795,005,2022-04-24_18h47.14.905,SPAMnetsValid,2021.1.4,Win32,60.06727535,,,,,,,,,,,,,,,,,,,,,,,,,,,,,,,,,,,,,,,,,,,,,,,,,,,,blow,candle,0,0,0,0,1,,,,,,,,,,,,,,,,,,,,,,,,,,,,,,,
,,,,,,,,,,,,,,,89795,005,2022-04-24_18h47.14.905,SPAMnetsValid,2021.1.4,Win32,60.06727535,,,,,,,,,,,,,,,,,,,,,,,,,,,,,,,,,,,,,,,,,,,,,,,,,,,,painting ,candle,1,0,1,0,1,,,,,,,,,,,,,,,,,,,,,,,,,,,,,,,
,,,,,,,,,,,,,,,89795,005,2022-04-24_18h47.14.905,SPAMnetsValid,2021.1.4,Win32,60.06727535,,,,,,,,,,,,,,,,,,,,,,,,,,,,,,,,,,,,,,,,,,,,,,,,,,,,light source,candle,2,0,2,0,1,,,,,,,,,,,,,,,,,,,,,,,,,,,,,,,
,,,,,,,,,,,,,,,89795,005,2022-04-24_18h47.14.905,SPAMnetsValid,2021.1.4,Win32,60.06727535,,,,,,,,,,,,,,,,,,,,,,,,,,,,,,,,,,,,,,,,,,,,,,,,,,,,dnominos,candle,3,0,3,0,1,,,,,,,,,,,,,,,,,,,,,,,,,,,,,,,
,,,,,,,,,,,,,,,89795,005,2022-04-24_18h47.14.905,SPAMnetsValid,2021.1.4,Win32,60.06727535,,,,,,,,,,,,,,,,,,,,,,,,,,,,,,,,,,,,,,,,,,,,,,,,,,,,,,,,,,,0,2,2,1,1,candle,,,,,,,,,,,,,,,,,,,,,,,,,
,,,,,,,,,,,,,,,89795,005,2022-04-24_18h47.14.905,SPAMnetsValid,2021.1.4,Win32,60.06727535,,,,,,,,,,,,,,,,,,,,,,,,,,,,,,,,,,,,,,,,,,,,,,,,,,,,,,,,,,,,,,,,,dog,Animals,0,0,0,0,1,,,,,,,,,,,,,,,,,,
,,,,,,,,,,,,,,,89795,005,2022-04-24_18h47.14.905,SPAMnetsValid,2021.1.4,Win32,60.06727535,,,,,,,,,,,,,,,,,,,,,,,,,,,,,,,,,,,,,,,,,,,,,,,,,,,,,,,,,,,,,,,,,cat,Animals,1,0,1,0,1,,,,,,,,,,,,,,,,,,
,,,,,,,,,,,,,,,89795,005,2022-04-24_18h47.14.905,SPAMnetsValid,2021.1.4,Win32,60.06727535,,,,,,,,,,,,,,,,,,,,,,,,,,,,,,,,,,,,,,,,,,,,,,,,,,,,,,,,,,,,,,,,,lion,Animals,2,0,2,0,1,,,,,,,,,,,,,,,,,,
,,,,,,,,,,,,,,,89795,005,2022-04-24_18h47.14.905,SPAMnetsValid,2021.1.4,Win32,60.06727535,,,,,,,,,,,,,,,,,,,,,,,,,,,,,,,,,,,,,,,,,,,,,,,,,,,,,,,,,,,,,,,,,tiger,Animals,3,0,3,0,1,,,,,,,,,,,,,,,,,,
,,,,,,,,,,,,,,,89795,005,2022-04-24_18h47.14.905,SPAMnetsValid,2021.1.4,Win32,60.06727535,,,,,,,,,,,,,,,,,,,,,,,,,,,,,,,,,,,,,,,,,,,,,,,,,,,,,,,,,,,,,,,,,bird,Animals,4,0,4,0,1,,,,,,,,,,,,,,,,,,
,,,,,,,,,,,,,,,89795,005,2022-04-24_18h47.14.905,SPAMnetsValid,2021.1.4,Win32,60.06727535,,,,,,,,,,,,,,,,,,,,,,,,,,,,,,,,,,,,,,,,,,,,,,,,,,,,,,,,,,,,,,,,,fish,Animals,5,0,5,0,1,,,,,,,,,,,,,,,,,,
,,,,,,,,,,,,,,,89795,005,2022-04-24_18h47.14.905,SPAMnetsValid,2021.1.4,Win32,60.06727535,,,,,,,,,,,,,,,,,,,,,,,,,,,,,,,,,,,,,,,,,,,,,,,,,,,,,,,,,,,,,,,,,rat,Animals,6,0,6,0,1,,,,,,,,,,,,,,,,,,
,,,,,,,,,,,,,,,89795,005,2022-04-24_18h47.14.905,SPAMnetsValid,2021.1.4,Win32,60.06727535,,,,,,,,,,,,,,,,,,,,,,,,,,,,,,,,,,,,,,,,,,,,,,,,,,,,,,,,,,,,,,,,,human,Animals,7,0,7,0,1,,,,,,,,,,,,,,,,,,
,,,,,,,,,,,,,,,89795,005,2022-04-24_18h47.14.905,SPAMnetsValid,2021.1.4,Win32,60.06727535,,,,,,,,,,,,,,,,,,,,,,,,,,,,,,,,,,,,,,,,,,,,,,,,,,,,,,,,,,,,,,,,,doplhans,Animals,8,0,8,0,1,,,,,,,,,,,,,,,,,,
,,,,,,,,,,,,,,,89795,005,2022-04-24_18h47.14.905,SPAMnetsValid,2021.1.4,Win32,60.06727535,,,,,,,,,,,,,,,,,,,,,,,,,,,,,,,,,,,,,,,,,,,,,,,,,,,,,,,,,,,,,,,,,pungins,Animals,9,0,9,0,1,,,,,,,,,,,,,,,,,,
,,,,,,,,,,,,,,,89795,005,2022-04-24_18h47.14.905,SPAMnetsValid,2021.1.4,Win32,60.06727535,,,,,,,,,,,,,,,,,,,,,,,,,,,,,,,,,,,,,,,,,,,,,,,,,,,,,,,,,,,,,,,,,,,,,,,,0,0,0,0,1,Animals,,,,,,,,,,,,
,,,,,,,,,,,,,,,89795,005,2022-04-24_18h47.14.905,SPAMnetsValid,2021.1.4,Win32,60.06727535,,,,,,,,,,,,,,,,,,,,,,,,,,,,,,,,,,,,,,,,,,,,,,,,,,,,,,,,,,,,,,,,,,,,,,,,,,,,,,2,10.904,0,0,0,0,1,"I enjoy concentrating on a fantasy or daydream and exploring all its possibilities, letting it grow and develop.",0,1,,
,,,,,,,,,,,,,,,89795,005,2022-04-24_18h47.14.905,SPAMnetsValid,2021.1.4,Win32,60.06727535,,,,,,,,,,,,,,,,,,,,,,,,,,,,,,,,,,,,,,,,,,,,,,,,,,,,,,,,,,,,,,,,,,,,,,,,,,,,,,4,3.6553,0,1,1,1,1,I think it's interesting to learn and develop new hobbies.,0,2,,
,,,,,,,,,,,,,,,89795,005,2022-04-24_18h47.14.905,SPAMnetsValid,2021.1.4,Win32,60.06727535,,,,,,,,,,,,,,,,,,,,,,,,,,,,,,,,,,,,,,,,,,,,,,,,,,,,,,,,,,,,,,,,,,,,,,,,,,,,,,4,5.3466,0,2,2,2,1,I am intrigued by the patterns I find in art and nature.,0,3,,
,,,,,,,,,,,,,,,89795,005,2022-04-24_18h47.14.905,SPAMnetsValid,2021.1.4,Win32,60.06727535,,,,,,,,,,,,,,,,,,,,,,,,,,,,,,,,,,,,,,,,,,,,,,,,,,,,,,,,,,,,,,,,,,,,,,,,,,,,,,3,5.988,0,3,3,3,1,I believe letting students hear controversial speakers can only confuse and mislead them.,1,4,,
,,,,,,,,,,,,,,,89795,005,2022-04-24_18h47.14.905,SPAMnetsValid,2021.1.4,Win32,60.06727535,,,,,,,,,,,,,,,,,,,,,,,,,,,,,,,,,,,,,,,,,,,,,,,,,,,,,,,,,,,,,,,,,,,,,,,,,,,,,,3,2.1322,0,4,4,4,1,Poetry has little or no effect on me.,1,5,,
,,,,,,,,,,,,,,,89795,005,2022-04-24_18h47.14.905,SPAMnetsValid,2021.1.4,Win32,60.06727535,,,,,,,,,,,,,,,,,,,,,,,,,,,,,,,,,,,,,,,,,,,,,,,,,,,,,,,,,,,,,,,,,,,,,,,,,,,,,,3,3.8616,0,5,5,5,1,I would have difficulty just letting my mind wander without control or guidance.,1,6,,
,,,,,,,,,,,,,,,89795,005,2022-04-24_18h47.14.905,SPAMnetsValid,2021.1.4,Win32,60.06727535,,,,,,,,,,,,,,,,,,,,,,,,,,,,,,,,,,,,,,,,,,,,,,,,,,,,,,,,,,,,,,,,,,,,,,,,,,,,,,4,3.9597,0,6,6,6,1,I seldom notice the moods or feelings that different environments produce.,1,7,,
,,,,,,,,,,,,,,,89795,005,2022-04-24_18h47.14.905,SPAMnetsValid,2021.1.4,Win32,60.06727535,,,,,,,,,,,,,,,,,,,,,,,,,,,,,,,,,,,,,,,,,,,,,,,,,,,,,,,,,,,,,,,,,,,,,,,,,,,,,,5,2.6131,0,7,7,7,1,I experience a wide range of emotions or feelings.,0,8,,
,,,,,,,,,,,,,,,89795,005,2022-04-24_18h47.14.905,SPAMnetsValid,2021.1.4,Win32,60.06727535,,,,,,,,,,,,,,,,,,,,,,,,,,,,,,,,,,,,,,,,,,,,,,,,,,,,,,,,,,,,,,,,,,,,,,,,,,,,,,3,3.5048,0,8,8,8,1,"Sometimes when I am reading poetry or looking at a work of art, I feel a chill or wave of excitement.",0,9,,
,,,,,,,,,,,,,,,89795,005,2022-04-24_18h47.14.905,SPAMnetsValid,2021.1.4,Win32,60.06727535,,,,,,,,,,,,,,,,,,,,,,,,,,,,,,,,,,,,,,,,,,,,,,,,,,,,,,,,,,,,,,,,,,,,,,,,,,,,,,3,2.2645,0,9,9,9,1,I have little interest in speculating on the nature of the universe or the human condition.,1,10,,
,,,,,,,,,,,,,,,89795,005,2022-04-24_18h47.14.905,SPAMnetsValid,2021.1.4,Win32,60.06727535,,,,,,,,,,,,,,,,,,,,,,,,,,,,,,,,,,,,,,,,,,,,,,,,,,,,,,,,,,,,,,,,,,,,,,,,,,,,,,3,2.3536,0,10,10,10,1,I have a lot of intellectual curiosity.,0,11,,
,,,,,,,,,,,,,,,89795,005,2022-04-24_18h47.14.905,SPAMnetsValid,2021.1.4,Win32,60.06727535,,,,,,,,,,,,,,,,,,,,,,,,,,,,,,,,,,,,,,,,,,,,,,,,,,,,,,,,,,,,,,,,,,,,,,,,,,,,,,3,2.3282,0,11,11,11,1,I often enjoy playing with theories or abstract ideas.,0,12,,
,,,,,,,,,,,,,,,89795,005,2022-04-24_18h47.14.905,SPAMnetsValid,2021.1.4,Win32,60.06727535,,,,,,,,,,,,,,,,,,,,,,,,,,,,,,,,,,,,,,,,,,,,,,,,,,,,,,,,,,,,,,,,,,,,,,,,,,,,,,,,,,,,,,,,return,17.1132
