key_resp_3.keys,key_resp_3.rt,slider_2.response,slider_2.rt,rjt_rating,rjt_RT,trials_24.thisRepN,trials_24.thisTrialN,trials_24.thisN,trials_24.thisIndex,trials_24.ran,rjt_order,word1,word2,attention,participant,session,date,expName,psychopyVersion,OS,frameRate,trials_4.thisRepN,trials_4.thisTrialN,trials_4.thisN,trials_4.thisIndex,trials_4.ran,trials_5.thisRepN,trials_5.thisTrialN,trials_5.thisN,trials_5.thisIndex,trials_5.ran,repOne,repTwo,slider.response,slider.rt,trials_22.thisRepN,trials_22.thisTrialN,trials_22.thisN,trials_22.thisIndex,trials_22.ran,trials_99.thisRepN,trials_99.thisTrialN,trials_99.thisN,trials_99.thisIndex,trials_99.ran,slider_extend_2.response,slider_extend_2.rt,trials_6.thisRepN,trials_6.thisTrialN,trials_6.thisN,trials_6.thisIndex,trials_6.ran,vCue2,R1,R2,R3,R4,correct,sliderVocab.response,sliderVocab.rt,trials_7.thisRepN,trials_7.thisTrialN,trials_7.thisN,trials_7.thisIndex,trials_7.ran,VocabCue,VR1,VR2,VR3,VR4,VR5,VocabCorrect,AUT_resp,AUT_label,trials.thisRepN,trials.thisTrialN,trials.thisN,trials.thisIndex,trials.ran,trials_2.thisRepN,trials_2.thisTrialN,trials_2.thisN,trials_2.thisIndex,trials_2.ran,aut_prompt,trials_17.thisRepN,trials_17.thisTrialN,trials_17.thisN,trials_17.thisIndex,trials_17.ran,VFcond,open_slider.response,open_slider.rt,trials_3.thisRepN,trials_3.thisTrialN,trials_3.thisN,trials_3.thisIndex,trials_3.ran,OpenQ,Rev,OPEN_ORDER,key_resp_2.keys,key_resp_2.rt
return,0.6188,5,16.794,5,16.794,0,0,0,11,1,117,melon,strawberry,,89804,001,2022-04-29_15h04.24.929,SPAMnetsValid,2021.1.4,Win32,60.0132029,,,,,,,,,,,,,,,,,,,,,,,,,,,,,,,,,,,,,,,,,,,,,,,,,,,,,,,,,,,,,,,,,,,,,,,,,,,,,,,,,,
,,2,2.5264,2,2.5264,0,1,1,82,1,98,pretzel,strawberry,,89804,001,2022-04-29_15h04.24.929,SPAMnetsValid,2021.1.4,Win32,60.0132029,,,,,,,,,,,,,,,,,,,,,,,,,,,,,,,,,,,,,,,,,,,,,,,,,,,,,,,,,,,,,,,,,,,,,,,,,,,,,,,,,,
,,2,2.0191,2,2.0191,0,2,2,41,1,175,melon,onion,,89804,001,2022-04-29_15h04.24.929,SPAMnetsValid,2021.1.4,Win32,60.0132029,,,,,,,,,,,,,,,,,,,,,,,,,,,,,,,,,,,,,,,,,,,,,,,,,,,,,,,,,,,,,,,,,,,,,,,,,,,,,,,,,,
,,1,2.3332,1,2.3332,0,3,3,80,1,146,pretzel,tree,,89804,001,2022-04-29_15h04.24.929,SPAMnetsValid,2021.1.4,Win32,60.0132029,,,,,,,,,,,,,,,,,,,,,,,,,,,,,,,,,,,,,,,,,,,,,,,,,,,,,,,,,,,,,,,,,,,,,,,,,,,,,,,,,,
,,2,3.0099,2,3.0099,0,4,4,73,1,135,carrot,oven,,89804,001,2022-04-29_15h04.24.929,SPAMnetsValid,2021.1.4,Win32,60.0132029,,,,,,,,,,,,,,,,,,,,,,,,,,,,,,,,,,,,,,,,,,,,,,,,,,,,,,,,,,,,,,,,,,,,,,,,,,,,,,,,,,
,,1,2.4543,1,2.4543,0,5,5,2,1,174,cake,pretzel,,89804,001,2022-04-29_15h04.24.929,SPAMnetsValid,2021.1.4,Win32,60.0132029,,,,,,,,,,,,,,,,,,,,,,,,,,,,,,,,,,,,,,,,,,,,,,,,,,,,,,,,,,,,,,,,,,,,,,,,,,,,,,,,,,
,,8,2.1883,8,2.1883,0,6,6,47,1,167,carrot,garden,,89804,001,2022-04-29_15h04.24.929,SPAMnetsValid,2021.1.4,Win32,60.0132029,,,,,,,,,,,,,,,,,,,,,,,,,,,,,,,,,,,,,,,,,,,,,,,,,,,,,,,,,,,,,,,,,,,,,,,,,,,,,,,,,,
,,1,2.2059,1,2.2059,0,7,7,71,1,187,cactus,microwave,,89804,001,2022-04-29_15h04.24.929,SPAMnetsValid,2021.1.4,Win32,60.0132029,,,,,,,,,,,,,,,,,,,,,,,,,,,,,,,,,,,,,,,,,,,,,,,,,,,,,,,,,,,,,,,,,,,,,,,,,,,,,,,,,,
,,1,1.647,1,1.647,0,8,8,78,1,132,broom,tree,,89804,001,2022-04-29_15h04.24.929,SPAMnetsValid,2021.1.4,Win32,60.0132029,,,,,,,,,,,,,,,,,,,,,,,,,,,,,,,,,,,,,,,,,,,,,,,,,,,,,,,,,,,,,,,,,,,,,,,,,,,,,,,,,,
,,2,2.1205,2,2.1205,0,9,9,84,1,130,microwave,yogurt,,89804,001,2022-04-29_15h04.24.929,SPAMnetsValid,2021.1.4,Win32,60.0132029,,,,,,,,,,,,,,,,,,,,,,,,,,,,,,,,,,,,,,,,,,,,,,,,,,,,,,,,,,,,,,,,,,,,,,,,,,,,,,,,,,
,,3,3.7605,3,3.7605,0,10,10,94,1,133,cake,flower,,89804,001,2022-04-29_15h04.24.929,SPAMnetsValid,2021.1.4,Win32,60.0132029,,,,,,,,,,,,,,,,,,,,,,,,,,,,,,,,,,,,,,,,,,,,,,,,,,,,,,,,,,,,,,,,,,,,,,,,,,,,,,,,,,
,,7,2.2557,7,2.2557,0,11,11,35,1,147,cake,refrigerator,,89804,001,2022-04-29_15h04.24.929,SPAMnetsValid,2021.1.4,Win32,60.0132029,,,,,,,,,,,,,,,,,,,,,,,,,,,,,,,,,,,,,,,,,,,,,,,,,,,,,,,,,,,,,,,,,,,,,,,,,,,,,,,,,,
,,7,2.154,7,2.154,0,12,12,37,1,139,carrot,strawberry,,89804,001,2022-04-29_15h04.24.929,SPAMnetsValid,2021.1.4,Win32,60.0132029,,,,,,,,,,,,,,,,,,,,,,,,,,,,,,,,,,,,,,,,,,,,,,,,,,,,,,,,,,,,,,,,,,,,,,,,,,,,,,,,,,
,,5,2.463,5,2.463,0,13,13,42,1,184,oven,pretzel,,89804,001,2022-04-29_15h04.24.929,SPAMnetsValid,2021.1.4,Win32,60.0132029,,,,,,,,,,,,,,,,,,,,,,,,,,,,,,,,,,,,,,,,,,,,,,,,,,,,,,,,,,,,,,,,,,,,,,,,,,,,,,,,,,
,,9,1.3893,9,1.3893,0,14,14,7,1,188,flower,tree,,89804,001,2022-04-29_15h04.24.929,SPAMnetsValid,2021.1.4,Win32,60.0132029,,,,,,,,,,,,,,,,,,,,,,,,,,,,,,,,,,,,,,,,,,,,,,,,,,,,,,,,,,,,,,,,,,,,,,,,,,,,,,,,,,
,,2,2.6851,2,2.6851,0,15,15,4,1,109,broom,strawberry,,89804,001,2022-04-29_15h04.24.929,SPAMnetsValid,2021.1.4,Win32,60.0132029,,,,,,,,,,,,,,,,,,,,,,,,,,,,,,,,,,,,,,,,,,,,,,,,,,,,,,,,,,,,,,,,,,,,,,,,,,,,,,,,,,
,,2,2.4475,2,2.4475,0,16,16,59,1,164,cookie,garden,,89804,001,2022-04-29_15h04.24.929,SPAMnetsValid,2021.1.4,Win32,60.0132029,,,,,,,,,,,,,,,,,,,,,,,,,,,,,,,,,,,,,,,,,,,,,,,,,,,,,,,,,,,,,,,,,,,,,,,,,,,,,,,,,,
,,9,1.5661,9,1.5661,0,17,17,25,1,194,cactus,cactus,CHECK,89804,001,2022-04-29_15h04.24.929,SPAMnetsValid,2021.1.4,Win32,60.0132029,,,,,,,,,,,,,,,,,,,,,,,,,,,,,,,,,,,,,,,,,,,,,,,,,,,,,,,,,,,,,,,,,,,,,,,,,,,,,,,,,,
,,7,1.8385,7,1.8385,0,18,18,70,1,141,melon,tomato,,89804,001,2022-04-29_15h04.24.929,SPAMnetsValid,2021.1.4,Win32,60.0132029,,,,,,,,,,,,,,,,,,,,,,,,,,,,,,,,,,,,,,,,,,,,,,,,,,,,,,,,,,,,,,,,,,,,,,,,,,,,,,,,,,
,,1,1.4447,1,1.4447,0,19,19,13,1,105,cactus,oven,,89804,001,2022-04-29_15h04.24.929,SPAMnetsValid,2021.1.4,Win32,60.0132029,,,,,,,,,,,,,,,,,,,,,,,,,,,,,,,,,,,,,,,,,,,,,,,,,,,,,,,,,,,,,,,,,,,,,,,,,,,,,,,,,,
,,5,1.8725,5,1.8725,0,20,20,92,1,170,cookie,microwave,,89804,001,2022-04-29_15h04.24.929,SPAMnetsValid,2021.1.4,Win32,60.0132029,,,,,,,,,,,,,,,,,,,,,,,,,,,,,,,,,,,,,,,,,,,,,,,,,,,,,,,,,,,,,,,,,,,,,,,,,,,,,,,,,,
,,6,1.992,6,1.992,0,21,21,38,1,155,carrot,cookie,,89804,001,2022-04-29_15h04.24.929,SPAMnetsValid,2021.1.4,Win32,60.0132029,,,,,,,,,,,,,,,,,,,,,,,,,,,,,,,,,,,,,,,,,,,,,,,,,,,,,,,,,,,,,,,,,,,,,,,,,,,,,,,,,,
,,4,1.6038,4,1.6038,0,22,22,39,1,112,cake,carrot,,89804,001,2022-04-29_15h04.24.929,SPAMnetsValid,2021.1.4,Win32,60.0132029,,,,,,,,,,,,,,,,,,,,,,,,,,,,,,,,,,,,,,,,,,,,,,,,,,,,,,,,,,,,,,,,,,,,,,,,,,,,,,,,,,
,,2,1.9551,2,1.9551,0,23,23,29,1,163,melon,refrigerator,,89804,001,2022-04-29_15h04.24.929,SPAMnetsValid,2021.1.4,Win32,60.0132029,,,,,,,,,,,,,,,,,,,,,,,,,,,,,,,,,,,,,,,,,,,,,,,,,,,,,,,,,,,,,,,,,,,,,,,,,,,,,,,,,,
,,5,4.3736,5,4.3736,0,24,24,10,1,118,chocolate,oven,,89804,001,2022-04-29_15h04.24.929,SPAMnetsValid,2021.1.4,Win32,60.0132029,,,,,,,,,,,,,,,,,,,,,,,,,,,,,,,,,,,,,,,,,,,,,,,,,,,,,,,,,,,,,,,,,,,,,,,,,,,,,,,,,,
,,4,3.9367,4,3.9367,0,25,25,26,1,107,rose,tomato,,89804,001,2022-04-29_15h04.24.929,SPAMnetsValid,2021.1.4,Win32,60.0132029,,,,,,,,,,,,,,,,,,,,,,,,,,,,,,,,,,,,,,,,,,,,,,,,,,,,,,,,,,,,,,,,,,,,,,,,,,,,,,,,,,
,,7,1.8374,7,1.8374,0,26,26,51,1,168,cactus,flower,,89804,001,2022-04-29_15h04.24.929,SPAMnetsValid,2021.1.4,Win32,60.0132029,,,,,,,,,,,,,,,,,,,,,,,,,,,,,,,,,,,,,,,,,,,,,,,,,,,,,,,,,,,,,,,,,,,,,,,,,,,,,,,,,,
,,2,2.1464,2,2.1464,0,27,27,72,1,181,carrot,kitchen,,89804,001,2022-04-29_15h04.24.929,SPAMnetsValid,2021.1.4,Win32,60.0132029,,,,,,,,,,,,,,,,,,,,,,,,,,,,,,,,,,,,,,,,,,,,,,,,,,,,,,,,,,,,,,,,,,,,,,,,,,,,,,,,,,
,,4,3.7496,4,3.7496,0,28,28,1,1,173,kitchen,tomato,,89804,001,2022-04-29_15h04.24.929,SPAMnetsValid,2021.1.4,Win32,60.0132029,,,,,,,,,,,,,,,,,,,,,,,,,,,,,,,,,,,,,,,,,,,,,,,,,,,,,,,,,,,,,,,,,,,,,,,,,,,,,,,,,,
,,1,3.213,1,3.213,0,29,29,24,1,169,onion,yogurt,,89804,001,2022-04-29_15h04.24.929,SPAMnetsValid,2021.1.4,Win32,60.0132029,,,,,,,,,,,,,,,,,,,,,,,,,,,,,,,,,,,,,,,,,,,,,,,,,,,,,,,,,,,,,,,,,,,,,,,,,,,,,,,,,,
,,1,1.559,1,1.559,0,30,30,32,1,182,flower,refrigerator,,89804,001,2022-04-29_15h04.24.929,SPAMnetsValid,2021.1.4,Win32,60.0132029,,,,,,,,,,,,,,,,,,,,,,,,,,,,,,,,,,,,,,,,,,,,,,,,,,,,,,,,,,,,,,,,,,,,,,,,,,,,,,,,,,
,,4,2.2269,4,2.2269,0,31,31,75,1,178,cactus,carrot,,89804,001,2022-04-29_15h04.24.929,SPAMnetsValid,2021.1.4,Win32,60.0132029,,,,,,,,,,,,,,,,,,,,,,,,,,,,,,,,,,,,,,,,,,,,,,,,,,,,,,,,,,,,,,,,,,,,,,,,,,,,,,,,,,
,,7,2.6687,7,2.6687,0,32,32,69,1,124,oven,refrigerator,,89804,001,2022-04-29_15h04.24.929,SPAMnetsValid,2021.1.4,Win32,60.0132029,,,,,,,,,,,,,,,,,,,,,,,,,,,,,,,,,,,,,,,,,,,,,,,,,,,,,,,,,,,,,,,,,,,,,,,,,,,,,,,,,,
,,6,2.231,6,2.231,0,33,33,14,1,120,microwave,oven,,89804,001,2022-04-29_15h04.24.929,SPAMnetsValid,2021.1.4,Win32,60.0132029,,,,,,,,,,,,,,,,,,,,,,,,,,,,,,,,,,,,,,,,,,,,,,,,,,,,,,,,,,,,,,,,,,,,,,,,,,,,,,,,,,
,,1,2.8531,1,2.8531,0,34,34,46,1,123,cookie,tree,,89804,001,2022-04-29_15h04.24.929,SPAMnetsValid,2021.1.4,Win32,60.0132029,,,,,,,,,,,,,,,,,,,,,,,,,,,,,,,,,,,,,,,,,,,,,,,,,,,,,,,,,,,,,,,,,,,,,,,,,,,,,,,,,,
,,1,1.8963,1,1.8963,0,35,35,12,1,162,microwave,tomato,,89804,001,2022-04-29_15h04.24.929,SPAMnetsValid,2021.1.4,Win32,60.0132029,,,,,,,,,,,,,,,,,,,,,,,,,,,,,,,,,,,,,,,,,,,,,,,,,,,,,,,,,,,,,,,,,,,,,,,,,,,,,,,,,,
,,2,1.8675,2,1.8675,0,36,36,6,1,151,microwave,onion,,89804,001,2022-04-29_15h04.24.929,SPAMnetsValid,2021.1.4,Win32,60.0132029,,,,,,,,,,,,,,,,,,,,,,,,,,,,,,,,,,,,,,,,,,,,,,,,,,,,,,,,,,,,,,,,,,,,,,,,,,,,,,,,,,
,,2,1.5898,2,1.5898,0,37,37,50,1,126,kitchen,tree,,89804,001,2022-04-29_15h04.24.929,SPAMnetsValid,2021.1.4,Win32,60.0132029,,,,,,,,,,,,,,,,,,,,,,,,,,,,,,,,,,,,,,,,,,,,,,,,,,,,,,,,,,,,,,,,,,,,,,,,,,,,,,,,,,
,,8,3.8526,8,3.8526,0,38,38,22,1,142,garden,tree,,89804,001,2022-04-29_15h04.24.929,SPAMnetsValid,2021.1.4,Win32,60.0132029,,,,,,,,,,,,,,,,,,,,,,,,,,,,,,,,,,,,,,,,,,,,,,,,,,,,,,,,,,,,,,,,,,,,,,,,,,,,,,,,,,
,,3,1.7826,3,1.7826,0,39,39,21,1,159,cookie,flower,,89804,001,2022-04-29_15h04.24.929,SPAMnetsValid,2021.1.4,Win32,60.0132029,,,,,,,,,,,,,,,,,,,,,,,,,,,,,,,,,,,,,,,,,,,,,,,,,,,,,,,,,,,,,,,,,,,,,,,,,,,,,,,,,,
,,1,1.6796,1,1.6796,0,40,40,79,1,103,pretzel,tomato,,89804,001,2022-04-29_15h04.24.929,SPAMnetsValid,2021.1.4,Win32,60.0132029,,,,,,,,,,,,,,,,,,,,,,,,,,,,,,,,,,,,,,,,,,,,,,,,,,,,,,,,,,,,,,,,,,,,,,,,,,,,,,,,,,
,,1,1.3685,1,1.3685,0,41,41,64,1,157,refrigerator,rose,,89804,001,2022-04-29_15h04.24.929,SPAMnetsValid,2021.1.4,Win32,60.0132029,,,,,,,,,,,,,,,,,,,,,,,,,,,,,,,,,,,,,,,,,,,,,,,,,,,,,,,,,,,,,,,,,,,,,,,,,,,,,,,,,,
,,4,2.4814,4,2.4814,0,42,42,23,1,148,flower,melon,,89804,001,2022-04-29_15h04.24.929,SPAMnetsValid,2021.1.4,Win32,60.0132029,,,,,,,,,,,,,,,,,,,,,,,,,,,,,,,,,,,,,,,,,,,,,,,,,,,,,,,,,,,,,,,,,,,,,,,,,,,,,,,,,,
,,2,2.3489,2,2.3489,0,43,43,9,1,176,cactus,tomato,,89804,001,2022-04-29_15h04.24.929,SPAMnetsValid,2021.1.4,Win32,60.0132029,,,,,,,,,,,,,,,,,,,,,,,,,,,,,,,,,,,,,,,,,,,,,,,,,,,,,,,,,,,,,,,,,,,,,,,,,,,,,,,,,,
,,2,2.3619,2,2.3619,0,44,44,45,1,179,broom,oven,,89804,001,2022-04-29_15h04.24.929,SPAMnetsValid,2021.1.4,Win32,60.0132029,,,,,,,,,,,,,,,,,,,,,,,,,,,,,,,,,,,,,,,,,,,,,,,,,,,,,,,,,,,,,,,,,,,,,,,,,,,,,,,,,,
,,4,2.0605,4,2.0605,0,45,45,36,1,161,kitchen,pretzel,,89804,001,2022-04-29_15h04.24.929,SPAMnetsValid,2021.1.4,Win32,60.0132029,,,,,,,,,,,,,,,,,,,,,,,,,,,,,,,,,,,,,,,,,,,,,,,,,,,,,,,,,,,,,,,,,,,,,,,,,,,,,,,,,,
,,1,2.0455,1,2.0455,0,46,46,20,1,149,broom,tomato,,89804,001,2022-04-29_15h04.24.929,SPAMnetsValid,2021.1.4,Win32,60.0132029,,,,,,,,,,,,,,,,,,,,,,,,,,,,,,,,,,,,,,,,,,,,,,,,,,,,,,,,,,,,,,,,,,,,,,,,,,,,,,,,,,
,,1,1.4824,1,1.4824,0,47,47,74,1,128,melon,microwave,,89804,001,2022-04-29_15h04.24.929,SPAMnetsValid,2021.1.4,Win32,60.0132029,,,,,,,,,,,,,,,,,,,,,,,,,,,,,,,,,,,,,,,,,,,,,,,,,,,,,,,,,,,,,,,,,,,,,,,,,,,,,,,,,,
,,6,2.6139,6,2.6139,0,48,48,56,1,113,refrigerator,strawberry,,89804,001,2022-04-29_15h04.24.929,SPAMnetsValid,2021.1.4,Win32,60.0132029,,,,,,,,,,,,,,,,,,,,,,,,,,,,,,,,,,,,,,,,,,,,,,,,,,,,,,,,,,,,,,,,,,,,,,,,,,,,,,,,,,
,,7,2.2351,7,2.2351,0,49,49,43,1,185,cactus,rose,,89804,001,2022-04-29_15h04.24.929,SPAMnetsValid,2021.1.4,Win32,60.0132029,,,,,,,,,,,,,,,,,,,,,,,,,,,,,,,,,,,,,,,,,,,,,,,,,,,,,,,,,,,,,,,,,,,,,,,,,,,,,,,,,,
,,6,2.8378,6,2.8378,0,50,50,30,1,125,carrot,tree,,89804,001,2022-04-29_15h04.24.929,SPAMnetsValid,2021.1.4,Win32,60.0132029,,,,,,,,,,,,,,,,,,,,,,,,,,,,,,,,,,,,,,,,,,,,,,,,,,,,,,,,,,,,,,,,,,,,,,,,,,,,,,,,,,
,,6,0.0831,6,0.0831,0,51,51,87,1,114,cookie,strawberry,,89804,001,2022-04-29_15h04.24.929,SPAMnetsValid,2021.1.4,Win32,60.0132029,,,,,,,,,,,,,,,,,,,,,,,,,,,,,,,,,,,,,,,,,,,,,,,,,,,,,,,,,,,,,,,,,,,,,,,,,,,,,,,,,,
,,7,3.5962,7,3.5962,0,52,52,66,1,150,microwave,refrigerator,,89804,001,2022-04-29_15h04.24.929,SPAMnetsValid,2021.1.4,Win32,60.0132029,,,,,,,,,,,,,,,,,,,,,,,,,,,,,,,,,,,,,,,,,,,,,,,,,,,,,,,,,,,,,,,,,,,,,,,,,,,,,,,,,,
,,8,4.1693,8,4.1693,0,53,53,60,1,122,flower,garden,,89804,001,2022-04-29_15h04.24.929,SPAMnetsValid,2021.1.4,Win32,60.0132029,,,,,,,,,,,,,,,,,,,,,,,,,,,,,,,,,,,,,,,,,,,,,,,,,,,,,,,,,,,,,,,,,,,,,,,,,,,,,,,,,,
,,3,2.7358,3,2.7358,0,54,54,0,1,106,cake,strawberry,,89804,001,2022-04-29_15h04.24.929,SPAMnetsValid,2021.1.4,Win32,60.0132029,,,,,,,,,,,,,,,,,,,,,,,,,,,,,,,,,,,,,,,,,,,,,,,,,,,,,,,,,,,,,,,,,,,,,,,,,,,,,,,,,,
,,7,2.3241,7,2.3241,0,55,55,33,1,131,cactus,garden,,89804,001,2022-04-29_15h04.24.929,SPAMnetsValid,2021.1.4,Win32,60.0132029,,,,,,,,,,,,,,,,,,,,,,,,,,,,,,,,,,,,,,,,,,,,,,,,,,,,,,,,,,,,,,,,,,,,,,,,,,,,,,,,,,
,,7,2.924,7,2.924,0,56,56,28,1,154,strawberry,yogurt,,89804,001,2022-04-29_15h04.24.929,SPAMnetsValid,2021.1.4,Win32,60.0132029,,,,,,,,,,,,,,,,,,,,,,,,,,,,,,,,,,,,,,,,,,,,,,,,,,,,,,,,,,,,,,,,,,,,,,,,,,,,,,,,,,
,,1,2.0828,1,2.0828,0,57,57,81,1,104,garden,microwave,,89804,001,2022-04-29_15h04.24.929,SPAMnetsValid,2021.1.4,Win32,60.0132029,,,,,,,,,,,,,,,,,,,,,,,,,,,,,,,,,,,,,,,,,,,,,,,,,,,,,,,,,,,,,,,,,,,,,,,,,,,,,,,,,,
,,4,2.3193,4,2.3193,0,58,58,91,1,166,cake,yogurt,,89804,001,2022-04-29_15h04.24.929,SPAMnetsValid,2021.1.4,Win32,60.0132029,,,,,,,,,,,,,,,,,,,,,,,,,,,,,,,,,,,,,,,,,,,,,,,,,,,,,,,,,,,,,,,,,,,,,,,,,,,,,,,,,,
,,3,2.2974,3,2.2974,0,59,59,96,1,136,chocolate,microwave,,89804,001,2022-04-29_15h04.24.929,SPAMnetsValid,2021.1.4,Win32,60.0132029,,,,,,,,,,,,,,,,,,,,,,,,,,,,,,,,,,,,,,,,,,,,,,,,,,,,,,,,,,,,,,,,,,,,,,,,,,,,,,,,,,
,,4,1.5655,4,1.5655,0,60,60,48,1,186,kitchen,yogurt,,89804,001,2022-04-29_15h04.24.929,SPAMnetsValid,2021.1.4,Win32,60.0132029,,,,,,,,,,,,,,,,,,,,,,,,,,,,,,,,,,,,,,,,,,,,,,,,,,,,,,,,,,,,,,,,,,,,,,,,,,,,,,,,,,
,,3,1.3193,3,1.3193,0,61,61,49,1,152,cactus,strawberry,,89804,001,2022-04-29_15h04.24.929,SPAMnetsValid,2021.1.4,Win32,60.0132029,,,,,,,,,,,,,,,,,,,,,,,,,,,,,,,,,,,,,,,,,,,,,,,,,,,,,,,,,,,,,,,,,,,,,,,,,,,,,,,,,,
,,1,1.4843,1,1.4843,0,62,62,19,1,183,cake,rose,,89804,001,2022-04-29_15h04.24.929,SPAMnetsValid,2021.1.4,Win32,60.0132029,,,,,,,,,,,,,,,,,,,,,,,,,,,,,,,,,,,,,,,,,,,,,,,,,,,,,,,,,,,,,,,,,,,,,,,,,,,,,,,,,,
,,1,1.3819,1,1.3819,0,63,63,95,1,121,broom,microwave,,89804,001,2022-04-29_15h04.24.929,SPAMnetsValid,2021.1.4,Win32,60.0132029,,,,,,,,,,,,,,,,,,,,,,,,,,,,,,,,,,,,,,,,,,,,,,,,,,,,,,,,,,,,,,,,,,,,,,,,,,,,,,,,,,
,,4,1.9349,4,1.9349,0,64,64,76,1,102,chocolate,refrigerator,,89804,001,2022-04-29_15h04.24.929,SPAMnetsValid,2021.1.4,Win32,60.0132029,,,,,,,,,,,,,,,,,,,,,,,,,,,,,,,,,,,,,,,,,,,,,,,,,,,,,,,,,,,,,,,,,,,,,,,,,,,,,,,,,,
,,4,1.584,4,1.584,0,65,65,90,1,190,microwave,strawberry,,89804,001,2022-04-29_15h04.24.929,SPAMnetsValid,2021.1.4,Win32,60.0132029,,,,,,,,,,,,,,,,,,,,,,,,,,,,,,,,,,,,,,,,,,,,,,,,,,,,,,,,,,,,,,,,,,,,,,,,,,,,,,,,,,
,,2,1.8635,2,1.8635,0,66,66,31,1,156,melon,rose,,89804,001,2022-04-29_15h04.24.929,SPAMnetsValid,2021.1.4,Win32,60.0132029,,,,,,,,,,,,,,,,,,,,,,,,,,,,,,,,,,,,,,,,,,,,,,,,,,,,,,,,,,,,,,,,,,,,,,,,,,,,,,,,,,
,,9,2.1311,9,2.1311,0,67,67,61,1,138,flower,rose,,89804,001,2022-04-29_15h04.24.929,SPAMnetsValid,2021.1.4,Win32,60.0132029,,,,,,,,,,,,,,,,,,,,,,,,,,,,,,,,,,,,,,,,,,,,,,,,,,,,,,,,,,,,,,,,,,,,,,,,,,,,,,,,,,
,,7,2.0837,7,2.0837,0,68,68,83,1,100,garden,tomato,,89804,001,2022-04-29_15h04.24.929,SPAMnetsValid,2021.1.4,Win32,60.0132029,,,,,,,,,,,,,,,,,,,,,,,,,,,,,,,,,,,,,,,,,,,,,,,,,,,,,,,,,,,,,,,,,,,,,,,,,,,,,,,,,,
,,6,1.8846,6,1.8846,0,69,69,18,1,119,strawberry,tree,,89804,001,2022-04-29_15h04.24.929,SPAMnetsValid,2021.1.4,Win32,60.0132029,,,,,,,,,,,,,,,,,,,,,,,,,,,,,,,,,,,,,,,,,,,,,,,,,,,,,,,,,,,,,,,,,,,,,,,,,,,,,,,,,,
,,1,1.3695,1,1.3695,0,70,70,65,1,160,cookie,kitchen,,89804,001,2022-04-29_15h04.24.929,SPAMnetsValid,2021.1.4,Win32,60.0132029,,,,,,,,,,,,,,,,,,,,,,,,,,,,,,,,,,,,,,,,,,,,,,,,,,,,,,,,,,,,,,,,,,,,,,,,,,,,,,,,,,
,,1,1.868,1,1.868,0,71,71,3,1,129,cactus,refrigerator,,89804,001,2022-04-29_15h04.24.929,SPAMnetsValid,2021.1.4,Win32,60.0132029,,,,,,,,,,,,,,,,,,,,,,,,,,,,,,,,,,,,,,,,,,,,,,,,,,,,,,,,,,,,,,,,,,,,,,,,,,,,,,,,,,
,,1,2.3053,1,2.3053,0,72,72,58,1,144,cake,garden,,89804,001,2022-04-29_15h04.24.929,SPAMnetsValid,2021.1.4,Win32,60.0132029,,,,,,,,,,,,,,,,,,,,,,,,,,,,,,,,,,,,,,,,,,,,,,,,,,,,,,,,,,,,,,,,,,,,,,,,,,,,,,,,,,
,,7,2.4555,7,2.4555,0,73,73,27,1,158,cookie,oven,,89804,001,2022-04-29_15h04.24.929,SPAMnetsValid,2021.1.4,Win32,60.0132029,,,,,,,,,,,,,,,,,,,,,,,,,,,,,,,,,,,,,,,,,,,,,,,,,,,,,,,,,,,,,,,,,,,,,,,,,,,,,,,,,,
,,6,2.0538,6,2.0538,0,74,74,53,1,177,chocolate,strawberry,,89804,001,2022-04-29_15h04.24.929,SPAMnetsValid,2021.1.4,Win32,60.0132029,,,,,,,,,,,,,,,,,,,,,,,,,,,,,,,,,,,,,,,,,,,,,,,,,,,,,,,,,,,,,,,,,,,,,,,,,,,,,,,,,,
,,6,1.8187,6,1.8187,0,75,75,67,1,96,oven,strawberry,,89804,001,2022-04-29_15h04.24.929,SPAMnetsValid,2021.1.4,Win32,60.0132029,,,,,,,,,,,,,,,,,,,,,,,,,,,,,,,,,,,,,,,,,,,,,,,,,,,,,,,,,,,,,,,,,,,,,,,,,,,,,,,,,,
,,1,1.6721,1,1.6721,0,76,76,15,1,145,cactus,yogurt,,89804,001,2022-04-29_15h04.24.929,SPAMnetsValid,2021.1.4,Win32,60.0132029,,,,,,,,,,,,,,,,,,,,,,,,,,,,,,,,,,,,,,,,,,,,,,,,,,,,,,,,,,,,,,,,,,,,,,,,,,,,,,,,,,
,,2,2.307,2,2.307,0,77,77,77,1,172,kitchen,melon,,89804,001,2022-04-29_15h04.24.929,SPAMnetsValid,2021.1.4,Win32,60.0132029,,,,,,,,,,,,,,,,,,,,,,,,,,,,,,,,,,,,,,,,,,,,,,,,,,,,,,,,,,,,,,,,,,,,,,,,,,,,,,,,,,
,,1,1.7671,1,1.7671,0,78,78,34,1,153,carrot,pretzel,,89804,001,2022-04-29_15h04.24.929,SPAMnetsValid,2021.1.4,Win32,60.0132029,,,,,,,,,,,,,,,,,,,,,,,,,,,,,,,,,,,,,,,,,,,,,,,,,,,,,,,,,,,,,,,,,,,,,,,,,,,,,,,,,,
,,1,1.3678,1,1.3678,0,79,79,68,1,180,tree,yogurt,,89804,001,2022-04-29_15h04.24.929,SPAMnetsValid,2021.1.4,Win32,60.0132029,,,,,,,,,,,,,,,,,,,,,,,,,,,,,,,,,,,,,,,,,,,,,,,,,,,,,,,,,,,,,,,,,,,,,,,,,,,,,,,,,,
,,5,1.5463,5,1.5463,0,80,80,8,1,97,chocolate,kitchen,,89804,001,2022-04-29_15h04.24.929,SPAMnetsValid,2021.1.4,Win32,60.0132029,,,,,,,,,,,,,,,,,,,,,,,,,,,,,,,,,,,,,,,,,,,,,,,,,,,,,,,,,,,,,,,,,,,,,,,,,,,,,,,,,,
,,4,2.4153,4,2.4153,0,81,81,93,1,134,carrot,flower,,89804,001,2022-04-29_15h04.24.929,SPAMnetsValid,2021.1.4,Win32,60.0132029,,,,,,,,,,,,,,,,,,,,,,,,,,,,,,,,,,,,,,,,,,,,,,,,,,,,,,,,,,,,,,,,,,,,,,,,,,,,,,,,,,
,,1,1.9482,1,1.9482,0,82,82,40,1,165,onion,rose,,89804,001,2022-04-29_15h04.24.929,SPAMnetsValid,2021.1.4,Win32,60.0132029,,,,,,,,,,,,,,,,,,,,,,,,,,,,,,,,,,,,,,,,,,,,,,,,,,,,,,,,,,,,,,,,,,,,,,,,,,,,,,,,,,
,,2,1.9641,2,1.9641,0,83,83,88,1,171,cake,tomato,,89804,001,2022-04-29_15h04.24.929,SPAMnetsValid,2021.1.4,Win32,60.0132029,,,,,,,,,,,,,,,,,,,,,,,,,,,,,,,,,,,,,,,,,,,,,,,,,,,,,,,,,,,,,,,,,,,,,,,,,,,,,,,,,,
,,6,2.4571,6,2.4571,0,84,84,52,1,110,chocolate,cookie,,89804,001,2022-04-29_15h04.24.929,SPAMnetsValid,2021.1.4,Win32,60.0132029,,,,,,,,,,,,,,,,,,,,,,,,,,,,,,,,,,,,,,,,,,,,,,,,,,,,,,,,,,,,,,,,,,,,,,,,,,,,,,,,,,
,,1,1.3854,1,1.3854,0,85,85,16,1,111,carrot,microwave,,89804,001,2022-04-29_15h04.24.929,SPAMnetsValid,2021.1.4,Win32,60.0132029,,,,,,,,,,,,,,,,,,,,,,,,,,,,,,,,,,,,,,,,,,,,,,,,,,,,,,,,,,,,,,,,,,,,,,,,,,,,,,,,,,
,,4,1.9488,4,1.9488,0,86,86,89,1,140,cookie,refrigerator,,89804,001,2022-04-29_15h04.24.929,SPAMnetsValid,2021.1.4,Win32,60.0132029,,,,,,,,,,,,,,,,,,,,,,,,,,,,,,,,,,,,,,,,,,,,,,,,,,,,,,,,,,,,,,,,,,,,,,,,,,,,,,,,,,
,,7,2.3306,7,2.3306,0,87,87,44,1,116,cake,chocolate,,89804,001,2022-04-29_15h04.24.929,SPAMnetsValid,2021.1.4,Win32,60.0132029,,,,,,,,,,,,,,,,,,,,,,,,,,,,,,,,,,,,,,,,,,,,,,,,,,,,,,,,,,,,,,,,,,,,,,,,,,,,,,,,,,
,,9,1.489,9,1.489,0,88,88,86,1,193,melon,melon,CHECK,89804,001,2022-04-29_15h04.24.929,SPAMnetsValid,2021.1.4,Win32,60.0132029,,,,,,,,,,,,,,,,,,,,,,,,,,,,,,,,,,,,,,,,,,,,,,,,,,,,,,,,,,,,,,,,,,,,,,,,,,,,,,,,,,
,,1,2.1423,1,2.1423,0,89,89,57,1,127,cactus,chocolate,,89804,001,2022-04-29_15h04.24.929,SPAMnetsValid,2021.1.4,Win32,60.0132029,,,,,,,,,,,,,,,,,,,,,,,,,,,,,,,,,,,,,,,,,,,,,,,,,,,,,,,,,,,,,,,,,,,,,,,,,,,,,,,,,,
,,2,2.8922,2,2.8922,0,90,90,63,1,137,microwave,tree,,89804,001,2022-04-29_15h04.24.929,SPAMnetsValid,2021.1.4,Win32,60.0132029,,,,,,,,,,,,,,,,,,,,,,,,,,,,,,,,,,,,,,,,,,,,,,,,,,,,,,,,,,,,,,,,,,,,,,,,,,,,,,,,,,
,,7,2.6075,7,2.6075,0,91,91,17,1,99,garden,melon,,89804,001,2022-04-29_15h04.24.929,SPAMnetsValid,2021.1.4,Win32,60.0132029,,,,,,,,,,,,,,,,,,,,,,,,,,,,,,,,,,,,,,,,,,,,,,,,,,,,,,,,,,,,,,,,,,,,,,,,,,,,,,,,,,
,,1,1.3676,1,1.3676,0,92,92,54,1,101,cactus,kitchen,,89804,001,2022-04-29_15h04.24.929,SPAMnetsValid,2021.1.4,Win32,60.0132029,,,,,,,,,,,,,,,,,,,,,,,,,,,,,,,,,,,,,,,,,,,,,,,,,,,,,,,,,,,,,,,,,,,,,,,,,,,,,,,,,,
,,1,1.5076,1,1.5076,0,93,93,55,1,143,pretzel,rose,,89804,001,2022-04-29_15h04.24.929,SPAMnetsValid,2021.1.4,Win32,60.0132029,,,,,,,,,,,,,,,,,,,,,,,,,,,,,,,,,,,,,,,,,,,,,,,,,,,,,,,,,,,,,,,,,,,,,,,,,,,,,,,,,,
,,1,1.5882,1,1.5882,0,94,94,5,1,108,carrot,chocolate,,89804,001,2022-04-29_15h04.24.929,SPAMnetsValid,2021.1.4,Win32,60.0132029,,,,,,,,,,,,,,,,,,,,,,,,,,,,,,,,,,,,,,,,,,,,,,,,,,,,,,,,,,,,,,,,,,,,,,,,,,,,,,,,,,
,,1,1.5237,1,1.5237,0,95,95,85,1,115,refrigerator,tomato,,89804,001,2022-04-29_15h04.24.929,SPAMnetsValid,2021.1.4,Win32,60.0132029,,,,,,,,,,,,,,,,,,,,,,,,,,,,,,,,,,,,,,,,,,,,,,,,,,,,,,,,,,,,,,,,,,,,,,,,,,,,,,,,,,
,,1,1.4471,1,1.4471,0,96,96,62,1,189,onion,tree,,89804,001,2022-04-29_15h04.24.929,SPAMnetsValid,2021.1.4,Win32,60.0132029,,,,,,,,,,,,,,,,,,,,,,,,,,,,,,,,,,,,,,,,,,,,,,,,,,,,,,,,,,,,,,,,,,,,,,,,,,,,,,,,,,
,,,,,,,,,,,,,,,89804,001,2022-04-29_15h04.24.929,SPAMnetsValid,2021.1.4,Win32,60.0132029,0,0,0,0,1,,,,,,,,,,,,,,,,,,,,,,,,,,,,,,,,,,,,,,,,,,,,,,,,,,,,,,,,,,,,,,,,,,,,,,,,,,,,,
,,,,,,,,,,,,,,,89804,001,2022-04-29_15h04.24.929,SPAMnetsValid,2021.1.4,Win32,60.0132029,,,,,,0,0,0,1,1,0,1,,,,,,,,,,,,,,,,,,,,,,,,,,,,,,,,,,,,,,,,,,,,,,,,,,,,,,,,,,,,,,,,,,,,,,
,,,,1,59.1627,,,,,,27,cactus,cookie,,89804,001,2022-04-29_15h04.24.929,SPAMnetsValid,2021.1.4,Win32,60.0132029,,,,,,,,,,,,,1,59.1627,0,0,0,17,1,,,,,,,,,,,,,,,,,,,,,,,,,,,,,,,,,,,,,,,,,,,,,,,,,,,,,,,,,,,,,,,
,,,,1,1.767,,,,,,83,broom,carrot,,89804,001,2022-04-29_15h04.24.929,SPAMnetsValid,2021.1.4,Win32,60.0132029,,,,,,,,,,,,,1,1.767,0,1,1,4,1,,,,,,,,,,,,,,,,,,,,,,,,,,,,,,,,,,,,,,,,,,,,,,,,,,,,,,,,,,,,,,,
,,,,2,2.0713,,,,,,32,cake,microwave,,89804,001,2022-04-29_15h04.24.929,SPAMnetsValid,2021.1.4,Win32,60.0132029,,,,,,,,,,,,,2,2.0713,0,2,2,33,1,,,,,,,,,,,,,,,,,,,,,,,,,,,,,,,,,,,,,,,,,,,,,,,,,,,,,,,,,,,,,,,
,,,,2,1.6697,,,,,,11,refrigerator,tree,,89804,001,2022-04-29_15h04.24.929,SPAMnetsValid,2021.1.4,Win32,60.0132029,,,,,,,,,,,,,2,1.6697,0,3,3,43,1,,,,,,,,,,,,,,,,,,,,,,,,,,,,,,,,,,,,,,,,,,,,,,,,,,,,,,,,,,,,,,,
,,,,6,2.216,,,,,,59,rose,strawberry,,89804,001,2022-04-29_15h04.24.929,SPAMnetsValid,2021.1.4,Win32,60.0132029,,,,,,,,,,,,,6,2.216,0,4,4,72,1,,,,,,,,,,,,,,,,,,,,,,,,,,,,,,,,,,,,,,,,,,,,,,,,,,,,,,,,,,,,,,,
,,,,1,1.5315,,,,,,33,oven,yogurt,,89804,001,2022-04-29_15h04.24.929,SPAMnetsValid,2021.1.4,Win32,60.0132029,,,,,,,,,,,,,1,1.5315,0,5,5,31,1,,,,,,,,,,,,,,,,,,,,,,,,,,,,,,,,,,,,,,,,,,,,,,,,,,,,,,,,,,,,,,,
,,,,1,1.2028,,,,,,26,tomato,yogurt,,89804,001,2022-04-29_15h04.24.929,SPAMnetsValid,2021.1.4,Win32,60.0132029,,,,,,,,,,,,,1,1.2028,0,6,6,13,1,,,,,,,,,,,,,,,,,,,,,,,,,,,,,,,,,,,,,,,,,,,,,,,,,,,,,,,,,,,,,,,
,,,,4,1.8624,,,,,,95,broom,refrigerator,,89804,001,2022-04-29_15h04.24.929,SPAMnetsValid,2021.1.4,Win32,60.0132029,,,,,,,,,,,,,4,1.8624,0,7,7,90,1,,,,,,,,,,,,,,,,,,,,,,,,,,,,,,,,,,,,,,,,,,,,,,,,,,,,,,,,,,,,,,,
,,,,4,2.5983,,,,,,52,carrot,tomato,,89804,001,2022-04-29_15h04.24.929,SPAMnetsValid,2021.1.4,Win32,60.0132029,,,,,,,,,,,,,4,2.5983,0,8,8,95,1,,,,,,,,,,,,,,,,,,,,,,,,,,,,,,,,,,,,,,,,,,,,,,,,,,,,,,,,,,,,,,,
,,,,9,1.2886,,,,,,191,cake,cake,CHECK,89804,001,2022-04-29_15h04.24.929,SPAMnetsValid,2021.1.4,Win32,60.0132029,,,,,,,,,,,,,9,1.2886,0,9,9,10,1,,,,,,,,,,,,,,,,,,,,,,,,,,,,,,,,,,,,,,,,,,,,,,,,,,,,,,,,,,,,,,,
,,,,1,1.8532,,,,,,58,garden,oven,,89804,001,2022-04-29_15h04.24.929,SPAMnetsValid,2021.1.4,Win32,60.0132029,,,,,,,,,,,,,1,1.8532,0,10,10,37,1,,,,,,,,,,,,,,,,,,,,,,,,,,,,,,,,,,,,,,,,,,,,,,,,,,,,,,,,,,,,,,,
,,,,7,1.6525,,,,,,3,cake,oven,,89804,001,2022-04-29_15h04.24.929,SPAMnetsValid,2021.1.4,Win32,60.0132029,,,,,,,,,,,,,7,1.6525,0,11,11,30,1,,,,,,,,,,,,,,,,,,,,,,,,,,,,,,,,,,,,,,,,,,,,,,,,,,,,,,,,,,,,,,,
,,,,1,1.6042,,,,,,15,onion,oven,,89804,001,2022-04-29_15h04.24.929,SPAMnetsValid,2021.1.4,Win32,60.0132029,,,,,,,,,,,,,1,1.6042,0,12,12,39,1,,,,,,,,,,,,,,,,,,,,,,,,,,,,,,,,,,,,,,,,,,,,,,,,,,,,,,,,,,,,,,,
,,,,1,1.4358,,,,,,46,garden,yogurt,,89804,001,2022-04-29_15h04.24.929,SPAMnetsValid,2021.1.4,Win32,60.0132029,,,,,,,,,,,,,1,1.4358,0,13,13,65,1,,,,,,,,,,,,,,,,,,,,,,,,,,,,,,,,,,,,,,,,,,,,,,,,,,,,,,,,,,,,,,,
,,,,1,1.3855,,,,,,24,cookie,tomato,,89804,001,2022-04-29_15h04.24.929,SPAMnetsValid,2021.1.4,Win32,60.0132029,,,,,,,,,,,,,1,1.3855,0,14,14,68,1,,,,,,,,,,,,,,,,,,,,,,,,,,,,,,,,,,,,,,,,,,,,,,,,,,,,,,,,,,,,,,,
,,,,1,1.4026,,,,,,5,oven,tree,,89804,001,2022-04-29_15h04.24.929,SPAMnetsValid,2021.1.4,Win32,60.0132029,,,,,,,,,,,,,1,1.4026,0,15,15,70,1,,,,,,,,,,,,,,,,,,,,,,,,,,,,,,,,,,,,,,,,,,,,,,,,,,,,,,,,,,,,,,,
,,,,3,1.4856,,,,,,10,flower,onion,,89804,001,2022-04-29_15h04.24.929,SPAMnetsValid,2021.1.4,Win32,60.0132029,,,,,,,,,,,,,3,1.4856,0,16,16,45,1,,,,,,,,,,,,,,,,,,,,,,,,,,,,,,,,,,,,,,,,,,,,,,,,,,,,,,,,,,,,,,,
,,,,4,1.7678,,,,,,77,refrigerator,yogurt,,89804,001,2022-04-29_15h04.24.929,SPAMnetsValid,2021.1.4,Win32,60.0132029,,,,,,,,,,,,,4,1.7678,0,17,17,42,1,,,,,,,,,,,,,,,,,,,,,,,,,,,,,,,,,,,,,,,,,,,,,,,,,,,,,,,,,,,,,,,
,,,,1,1.5216,,,,,,40,broom,cake,,89804,001,2022-04-29_15h04.24.929,SPAMnetsValid,2021.1.4,Win32,60.0132029,,,,,,,,,,,,,1,1.5216,0,18,18,32,1,,,,,,,,,,,,,,,,,,,,,,,,,,,,,,,,,,,,,,,,,,,,,,,,,,,,,,,,,,,,,,,
,,,,1,1.4351,,,,,,66,melon,yogurt,,89804,001,2022-04-29_15h04.24.929,SPAMnetsValid,2021.1.4,Win32,60.0132029,,,,,,,,,,,,,1,1.4351,0,19,19,48,1,,,,,,,,,,,,,,,,,,,,,,,,,,,,,,,,,,,,,,,,,,,,,,,,,,,,,,,,,,,,,,,
,,,,3,1.7323,,,,,,31,cactus,pretzel,,89804,001,2022-04-29_15h04.24.929,SPAMnetsValid,2021.1.4,Win32,60.0132029,,,,,,,,,,,,,3,1.7323,0,20,20,1,1,,,,,,,,,,,,,,,,,,,,,,,,,,,,,,,,,,,,,,,,,,,,,,,,,,,,,,,,,,,,,,,
,,,,4,3.069,,,,,,69,carrot,refrigerator,,89804,001,2022-04-29_15h04.24.929,SPAMnetsValid,2021.1.4,Win32,60.0132029,,,,,,,,,,,,,4,3.069,0,21,21,75,1,,,,,,,,,,,,,,,,,,,,,,,,,,,,,,,,,,,,,,,,,,,,,,,,,,,,,,,,,,,,,,,
,,,,3,1.6575,,,,,,38,pretzel,refrigerator,,89804,001,2022-04-29_15h04.24.929,SPAMnetsValid,2021.1.4,Win32,60.0132029,,,,,,,,,,,,,3,1.6575,0,22,22,71,1,,,,,,,,,,,,,,,,,,,,,,,,,,,,,,,,,,,,,,,,,,,,,,,,,,,,,,,,,,,,,,,
,,,,7,2.0141,,,,,,9,kitchen,refrigerator,,89804,001,2022-04-29_15h04.24.929,SPAMnetsValid,2021.1.4,Win32,60.0132029,,,,,,,,,,,,,7,2.0141,0,23,23,64,1,,,,,,,,,,,,,,,,,,,,,,,,,,,,,,,,,,,,,,,,,,,,,,,,,,,,,,,,,,,,,,,
,,,,1,1.3519,,,,,,60,cactus,onion,,89804,001,2022-04-29_15h04.24.929,SPAMnetsValid,2021.1.4,Win32,60.0132029,,,,,,,,,,,,,1,1.3519,0,24,24,81,1,,,,,,,,,,,,,,,,,,,,,,,,,,,,,,,,,,,,,,,,,,,,,,,,,,,,,,,,,,,,,,,
,,,,1,2.1681,,,,,,84,oven,tomato,,89804,001,2022-04-29_15h04.24.929,SPAMnetsValid,2021.1.4,Win32,60.0132029,,,,,,,,,,,,,1,2.1681,0,25,25,28,1,,,,,,,,,,,,,,,,,,,,,,,,,,,,,,,,,,,,,,,,,,,,,,,,,,,,,,,,,,,,,,,
,,,,1,3.2865,,,,,,53,garden,pretzel,,89804,001,2022-04-29_15h04.24.929,SPAMnetsValid,2021.1.4,Win32,60.0132029,,,,,,,,,,,,,1,3.2865,0,26,26,0,1,,,,,,,,,,,,,,,,,,,,,,,,,,,,,,,,,,,,,,,,,,,,,,,,,,,,,,,,,,,,,,,
,,,,1,2.7385,,,,,,75,cookie,onion,,89804,001,2022-04-29_15h04.24.929,SPAMnetsValid,2021.1.4,Win32,60.0132029,,,,,,,,,,,,,1,2.7385,0,27,27,9,1,,,,,,,,,,,,,,,,,,,,,,,,,,,,,,,,,,,,,,,,,,,,,,,,,,,,,,,,,,,,,,,
,,,,1,2.3056,,,,,,91,microwave,rose,,89804,001,2022-04-29_15h04.24.929,SPAMnetsValid,2021.1.4,Win32,60.0132029,,,,,,,,,,,,,1,2.3056,0,28,28,84,1,,,,,,,,,,,,,,,,,,,,,,,,,,,,,,,,,,,,,,,,,,,,,,,,,,,,,,,,,,,,,,,
,,,,1,2.1792,,,,,,42,garden,kitchen,,89804,001,2022-04-29_15h04.24.929,SPAMnetsValid,2021.1.4,Win32,60.0132029,,,,,,,,,,,,,1,2.1792,0,29,29,29,1,,,,,,,,,,,,,,,,,,,,,,,,,,,,,,,,,,,,,,,,,,,,,,,,,,,,,,,,,,,,,,,
,,,,1,2.6386,,,,,,16,chocolate,flower,,89804,001,2022-04-29_15h04.24.929,SPAMnetsValid,2021.1.4,Win32,60.0132029,,,,,,,,,,,,,1,2.6386,0,30,30,22,1,,,,,,,,,,,,,,,,,,,,,,,,,,,,,,,,,,,,,,,,,,,,,,,,,,,,,,,,,,,,,,,
,,,,2,1.6142,,,,,,37,garden,refrigerator,,89804,001,2022-04-29_15h04.24.929,SPAMnetsValid,2021.1.4,Win32,60.0132029,,,,,,,,,,,,,2,1.6142,0,31,31,11,1,,,,,,,,,,,,,,,,,,,,,,,,,,,,,,,,,,,,,,,,,,,,,,,,,,,,,,,,,,,,,,,
,,,,1,1.5352,,,,,,80,chocolate,tree,,89804,001,2022-04-29_15h04.24.929,SPAMnetsValid,2021.1.4,Win32,60.0132029,,,,,,,,,,,,,1,1.5352,0,32,32,89,1,,,,,,,,,,,,,,,,,,,,,,,,,,,,,,,,,,,,,,,,,,,,,,,,,,,,,,,,,,,,,,,
,,,,1,1.4553,,,,,,85,cake,tree,,89804,001,2022-04-29_15h04.24.929,SPAMnetsValid,2021.1.4,Win32,60.0132029,,,,,,,,,,,,,1,1.4553,0,33,33,18,1,,,,,,,,,,,,,,,,,,,,,,,,,,,,,,,,,,,,,,,,,,,,,,,,,,,,,,,,,,,,,,,
,,,,7,2.0186,,,,,,76,garden,rose,,89804,001,2022-04-29_15h04.24.929,SPAMnetsValid,2021.1.4,Win32,60.0132029,,,,,,,,,,,,,7,2.0186,0,34,34,19,1,,,,,,,,,,,,,,,,,,,,,,,,,,,,,,,,,,,,,,,,,,,,,,,,,,,,,,,,,,,,,,,
,,,,1,1.6166,,,,,,23,flower,microwave,,89804,001,2022-04-29_15h04.24.929,SPAMnetsValid,2021.1.4,Win32,60.0132029,,,,,,,,,,,,,1,1.6166,0,35,35,25,1,,,,,,,,,,,,,,,,,,,,,,,,,,,,,,,,,,,,,,,,,,,,,,,,,,,,,,,,,,,,,,,
,,,,8,2.5037,,,,,,93,kitchen,oven,,89804,001,2022-04-29_15h04.24.929,SPAMnetsValid,2021.1.4,Win32,60.0132029,,,,,,,,,,,,,8,2.5037,0,36,36,82,1,,,,,,,,,,,,,,,,,,,,,,,,,,,,,,,,,,,,,,,,,,,,,,,,,,,,,,,,,,,,,,,
,,,,1,1.2968,,,,,,1,rose,yogurt,,89804,001,2022-04-29_15h04.24.929,SPAMnetsValid,2021.1.4,Win32,60.0132029,,,,,,,,,,,,,1,1.2968,0,37,37,55,1,,,,,,,,,,,,,,,,,,,,,,,,,,,,,,,,,,,,,,,,,,,,,,,,,,,,,,,,,,,,,,,
,,,,4,2.2453,,,,,,22,kitchen,strawberry,,89804,001,2022-04-29_15h04.24.929,SPAMnetsValid,2021.1.4,Win32,60.0132029,,,,,,,,,,,,,4,2.2453,0,38,38,2,1,,,,,,,,,,,,,,,,,,,,,,,,,,,,,,,,,,,,,,,,,,,,,,,,,,,,,,,,,,,,,,,
,,,,1,1.6379,,,,,,90,cactus,cake,,89804,001,2022-04-29_15h04.24.929,SPAMnetsValid,2021.1.4,Win32,60.0132029,,,,,,,,,,,,,1,1.6379,0,39,39,85,1,,,,,,,,,,,,,,,,,,,,,,,,,,,,,,,,,,,,,,,,,,,,,,,,,,,,,,,,,,,,,,,
,,,,1,1.4998,,,,,,86,oven,rose,,89804,001,2022-04-29_15h04.24.929,SPAMnetsValid,2021.1.4,Win32,60.0132029,,,,,,,,,,,,,1,1.4998,0,40,40,79,1,,,,,,,,,,,,,,,,,,,,,,,,,,,,,,,,,,,,,,,,,,,,,,,,,,,,,,,,,,,,,,,
,,,,1,2.2202,,,,,,44,cookie,melon,,89804,001,2022-04-29_15h04.24.929,SPAMnetsValid,2021.1.4,Win32,60.0132029,,,,,,,,,,,,,1,2.2202,0,41,41,92,1,,,,,,,,,,,,,,,,,,,,,,,,,,,,,,,,,,,,,,,,,,,,,,,,,,,,,,,,,,,,,,,
,,,,3,2.8865,,,,,,47,onion,tomato,,89804,001,2022-04-29_15h04.24.929,SPAMnetsValid,2021.1.4,Win32,60.0132029,,,,,,,,,,,,,3,2.8865,0,42,42,51,1,,,,,,,,,,,,,,,,,,,,,,,,,,,,,,,,,,,,,,,,,,,,,,,,,,,,,,,,,,,,,,,
,,,,1,1.4897,,,,,,36,broom,kitchen,,89804,001,2022-04-29_15h04.24.929,SPAMnetsValid,2021.1.4,Win32,60.0132029,,,,,,,,,,,,,1,1.4897,0,43,43,76,1,,,,,,,,,,,,,,,,,,,,,,,,,,,,,,,,,,,,,,,,,,,,,,,,,,,,,,,,,,,,,,,
,,,,1,1.3819,,,,,,78,cookie,rose,,89804,001,2022-04-29_15h04.24.929,SPAMnetsValid,2021.1.4,Win32,60.0132029,,,,,,,,,,,,,1,1.3819,0,44,44,56,1,,,,,,,,,,,,,,,,,,,,,,,,,,,,,,,,,,,,,,,,,,,,,,,,,,,,,,,,,,,,,,,
,,,,1,1.9862,,,,,,50,carrot,rose,,89804,001,2022-04-29_15h04.24.929,SPAMnetsValid,2021.1.4,Win32,60.0132029,,,,,,,,,,,,,1,1.9862,0,45,45,73,1,,,,,,,,,,,,,,,,,,,,,,,,,,,,,,,,,,,,,,,,,,,,,,,,,,,,,,,,,,,,,,,
,,,,1,1.4378,,,,,,74,broom,pretzel,,89804,001,2022-04-29_15h04.24.929,SPAMnetsValid,2021.1.4,Win32,60.0132029,,,,,,,,,,,,,1,1.4378,0,46,46,40,1,,,,,,,,,,,,,,,,,,,,,,,,,,,,,,,,,,,,,,,,,,,,,,,,,,,,,,,,,,,,,,,
,,,,4,1.597,,,,,,79,garden,strawberry,,89804,001,2022-04-29_15h04.24.929,SPAMnetsValid,2021.1.4,Win32,60.0132029,,,,,,,,,,,,,4,1.597,0,47,47,87,1,,,,,,,,,,,,,,,,,,,,,,,,,,,,,,,,,,,,,,,,,,,,,,,,,,,,,,,,,,,,,,,
,,,,2,1.7914,,,,,,88,cactus,melon,,89804,001,2022-04-29_15h04.24.929,SPAMnetsValid,2021.1.4,Win32,60.0132029,,,,,,,,,,,,,2,1.7914,0,48,48,38,1,,,,,,,,,,,,,,,,,,,,,,,,,,,,,,,,,,,,,,,,,,,,,,,,,,,,,,,,,,,,,,,
,,,,4,1.9133,,,,,,17,carrot,melon,,89804,001,2022-04-29_15h04.24.929,SPAMnetsValid,2021.1.4,Win32,60.0132029,,,,,,,,,,,,,4,1.9133,0,49,49,24,1,,,,,,,,,,,,,,,,,,,,,,,,,,,,,,,,,,,,,,,,,,,,,,,,,,,,,,,,,,,,,,,
,,,,9,1.3718,,,,,,192,microwave,microwave,CHECK,89804,001,2022-04-29_15h04.24.929,SPAMnetsValid,2021.1.4,Win32,60.0132029,,,,,,,,,,,,,9,1.3718,0,50,50,53,1,,,,,,,,,,,,,,,,,,,,,,,,,,,,,,,,,,,,,,,,,,,,,,,,,,,,,,,,,,,,,,,
,,,,1,3.2871,,,,,,43,chocolate,tomato,,89804,001,2022-04-29_15h04.24.929,SPAMnetsValid,2021.1.4,Win32,60.0132029,,,,,,,,,,,,,1,3.2871,0,51,51,8,1,,,,,,,,,,,,,,,,,,,,,,,,,,,,,,,,,,,,,,,,,,,,,,,,,,,,,,,,,,,,,,,
,,,,1,1.7186,,,,,,73,broom,chocolate,,89804,001,2022-04-29_15h04.24.929,SPAMnetsValid,2021.1.4,Win32,60.0132029,,,,,,,,,,,,,1,1.7186,0,52,52,47,1,,,,,,,,,,,,,,,,,,,,,,,,,,,,,,,,,,,,,,,,,,,,,,,,,,,,,,,,,,,,,,,
,,,,2,2.0531,,,,,,51,onion,strawberry,,89804,001,2022-04-29_15h04.24.929,SPAMnetsValid,2021.1.4,Win32,60.0132029,,,,,,,,,,,,,2,2.0531,0,53,53,86,1,,,,,,,,,,,,,,,,,,,,,,,,,,,,,,,,,,,,,,,,,,,,,,,,,,,,,,,,,,,,,,,
,,,,1,2.7371,,,,,,48,flower,oven,,89804,001,2022-04-29_15h04.24.929,SPAMnetsValid,2021.1.4,Win32,60.0132029,,,,,,,,,,,,,1,2.7371,0,54,54,15,1,,,,,,,,,,,,,,,,,,,,,,,,,,,,,,,,,,,,,,,,,,,,,,,,,,,,,,,,,,,,,,,
,,,,1,1.9107,,,,,,57,flower,kitchen,,89804,001,2022-04-29_15h04.24.929,SPAMnetsValid,2021.1.4,Win32,60.0132029,,,,,,,,,,,,,1,1.9107,0,55,55,49,1,,,,,,,,,,,,,,,,,,,,,,,,,,,,,,,,,,,,,,,,,,,,,,,,,,,,,,,,,,,,,,,
,,,,1,1.4743,,,,,,39,melon,pretzel,,89804,001,2022-04-29_15h04.24.929,SPAMnetsValid,2021.1.4,Win32,60.0132029,,,,,,,,,,,,,1,1.4743,0,56,56,20,1,,,,,,,,,,,,,,,,,,,,,,,,,,,,,,,,,,,,,,,,,,,,,,,,,,,,,,,,,,,,,,,
,,,,1,1.5711,,,,,,21,cake,onion,,89804,001,2022-04-29_15h04.24.929,SPAMnetsValid,2021.1.4,Win32,60.0132029,,,,,,,,,,,,,1,1.5711,0,57,57,63,1,,,,,,,,,,,,,,,,,,,,,,,,,,,,,,,,,,,,,,,,,,,,,,,,,,,,,,,,,,,,,,,
,,,,2,1.9401,,,,,,89,chocolate,rose,,89804,001,2022-04-29_15h04.24.929,SPAMnetsValid,2021.1.4,Win32,60.0132029,,,,,,,,,,,,,2,1.9401,0,58,58,60,1,,,,,,,,,,,,,,,,,,,,,,,,,,,,,,,,,,,,,,,,,,,,,,,,,,,,,,,,,,,,,,,
,,,,3,1.5975,,,,,,19,microwave,pretzel,,89804,001,2022-04-29_15h04.24.929,SPAMnetsValid,2021.1.4,Win32,60.0132029,,,,,,,,,,,,,3,1.5975,0,59,59,41,1,,,,,,,,,,,,,,,,,,,,,,,,,,,,,,,,,,,,,,,,,,,,,,,,,,,,,,,,,,,,,,,
,,,,3,2.7253,,,,,,63,cake,cookie,,89804,001,2022-04-29_15h04.24.929,SPAMnetsValid,2021.1.4,Win32,60.0132029,,,,,,,,,,,,,3,2.7253,0,60,60,93,1,,,,,,,,,,,,,,,,,,,,,,,,,,,,,,,,,,,,,,,,,,,,,,,,,,,,,,,,,,,,,,,
,,,,1,1.4782,,,,,,68,flower,tomato,,89804,001,2022-04-29_15h04.24.929,SPAMnetsValid,2021.1.4,Win32,60.0132029,,,,,,,,,,,,,1,1.4782,0,61,61,94,1,,,,,,,,,,,,,,,,,,,,,,,,,,,,,,,,,,,,,,,,,,,,,,,,,,,,,,,,,,,,,,,
,,,,1,1.2894,,,,,,35,flower,pretzel,,89804,001,2022-04-29_15h04.24.929,SPAMnetsValid,2021.1.4,Win32,60.0132029,,,,,,,,,,,,,1,1.2894,0,62,62,26,1,,,,,,,,,,,,,,,,,,,,,,,,,,,,,,,,,,,,,,,,,,,,,,,,,,,,,,,,,,,,,,,
,,,,7,2.8294,,,,,,56,cactus,tree,,89804,001,2022-04-29_15h04.24.929,SPAMnetsValid,2021.1.4,Win32,60.0132029,,,,,,,,,,,,,7,2.8294,0,63,63,21,1,,,,,,,,,,,,,,,,,,,,,,,,,,,,,,,,,,,,,,,,,,,,,,,,,,,,,,,,,,,,,,,
,,,,7,2.9597,,,,,,20,rose,tree,,89804,001,2022-04-29_15h04.24.929,SPAMnetsValid,2021.1.4,Win32,60.0132029,,,,,,,,,,,,,7,2.9597,0,64,64,66,1,,,,,,,,,,,,,,,,,,,,,,,,,,,,,,,,,,,,,,,,,,,,,,,,,,,,,,,,,,,,,,,
,,,,5,2.2436,,,,,,61,strawberry,tomato,,89804,001,2022-04-29_15h04.24.929,SPAMnetsValid,2021.1.4,Win32,60.0132029,,,,,,,,,,,,,5,2.2436,0,65,65,80,1,,,,,,,,,,,,,,,,,,,,,,,,,,,,,,,,,,,,,,,,,,,,,,,,,,,,,,,,,,,,,,,
,,,,2,3.2302,,,,,,71,broom,rose,,89804,001,2022-04-29_15h04.24.929,SPAMnetsValid,2021.1.4,Win32,60.0132029,,,,,,,,,,,,,2,3.2302,0,66,66,61,1,,,,,,,,,,,,,,,,,,,,,,,,,,,,,,,,,,,,,,,,,,,,,,,,,,,,,,,,,,,,,,,
,,,,1,1.7057,,,,,,81,pretzel,yogurt,,89804,001,2022-04-29_15h04.24.929,SPAMnetsValid,2021.1.4,Win32,60.0132029,,,,,,,,,,,,,1,1.7057,0,67,67,50,1,,,,,,,,,,,,,,,,,,,,,,,,,,,,,,,,,,,,,,,,,,,,,,,,,,,,,,,,,,,,,,,
,,,,2,1.6706,,,,,,18,onion,refrigerator,,89804,001,2022-04-29_15h04.24.929,SPAMnetsValid,2021.1.4,Win32,60.0132029,,,,,,,,,,,,,2,1.6706,0,68,68,62,1,,,,,,,,,,,,,,,,,,,,,,,,,,,,,,,,,,,,,,,,,,,,,,,,,,,,,,,,,,,,,,,
,,,,1,1.6205,,,,,,65,broom,garden,,89804,001,2022-04-29_15h04.24.929,SPAMnetsValid,2021.1.4,Win32,60.0132029,,,,,,,,,,,,,1,1.6205,0,69,69,23,1,,,,,,,,,,,,,,,,,,,,,,,,,,,,,,,,,,,,,,,,,,,,,,,,,,,,,,,,,,,,,,,
,,,,3,2.6537,,,,,,30,cookie,pretzel,,89804,001,2022-04-29_15h04.24.929,SPAMnetsValid,2021.1.4,Win32,60.0132029,,,,,,,,,,,,,3,2.6537,0,70,70,78,1,,,,,,,,,,,,,,,,,,,,,,,,,,,,,,,,,,,,,,,,,,,,,,,,,,,,,,,,,,,,,,,
,,,,1,1.4519,,,,,,72,broom,onion,,89804,001,2022-04-29_15h04.24.929,SPAMnetsValid,2021.1.4,Win32,60.0132029,,,,,,,,,,,,,1,1.4519,0,71,71,27,1,,,,,,,,,,,,,,,,,,,,,,,,,,,,,,,,,,,,,,,,,,,,,,,,,,,,,,,,,,,,,,,
,,,,1,1.7418,,,,,,49,flower,strawberry,,89804,001,2022-04-29_15h04.24.929,SPAMnetsValid,2021.1.4,Win32,60.0132029,,,,,,,,,,,,,1,1.7418,0,72,72,3,1,,,,,,,,,,,,,,,,,,,,,,,,,,,,,,,,,,,,,,,,,,,,,,,,,,,,,,,,,,,,,,,
,,,,1,1.6876,,,,,,29,chocolate,melon,,89804,001,2022-04-29_15h04.24.929,SPAMnetsValid,2021.1.4,Win32,60.0132029,,,,,,,,,,,,,1,1.6876,0,73,73,34,1,,,,,,,,,,,,,,,,,,,,,,,,,,,,,,,,,,,,,,,,,,,,,,,,,,,,,,,,,,,,,,,
,,,,2,1.8269,,,,,,2,kitchen,onion,,89804,001,2022-04-29_15h04.24.929,SPAMnetsValid,2021.1.4,Win32,60.0132029,,,,,,,,,,,,,2,1.8269,0,74,74,91,1,,,,,,,,,,,,,,,,,,,,,,,,,,,,,,,,,,,,,,,,,,,,,,,,,,,,,,,,,,,,,,,
,,,,1,1.6256,,,,,,14,broom,cookie,,89804,001,2022-04-29_15h04.24.929,SPAMnetsValid,2021.1.4,Win32,60.0132029,,,,,,,,,,,,,1,1.6256,0,75,75,16,1,,,,,,,,,,,,,,,,,,,,,,,,,,,,,,,,,,,,,,,,,,,,,,,,,,,,,,,,,,,,,,,
,,,,1,1.811,,,,,,34,melon,oven,,89804,001,2022-04-29_15h04.24.929,SPAMnetsValid,2021.1.4,Win32,60.0132029,,,,,,,,,,,,,1,1.811,0,76,76,7,1,,,,,,,,,,,,,,,,,,,,,,,,,,,,,,,,,,,,,,,,,,,,,,,,,,,,,,,,,,,,,,,
,,,,1,2.4197,,,,,,7,melon,tree,,89804,001,2022-04-29_15h04.24.929,SPAMnetsValid,2021.1.4,Win32,60.0132029,,,,,,,,,,,,,1,2.4197,0,77,77,77,1,,,,,,,,,,,,,,,,,,,,,,,,,,,,,,,,,,,,,,,,,,,,,,,,,,,,,,,,,,,,,,,
,,,,1,2.4527,,,,,,45,onion,pretzel,,89804,001,2022-04-29_15h04.24.929,SPAMnetsValid,2021.1.4,Win32,60.0132029,,,,,,,,,,,,,1,2.4527,0,78,78,69,1,,,,,,,,,,,,,,,,,,,,,,,,,,,,,,,,,,,,,,,,,,,,,,,,,,,,,,,,,,,,,,,
,,,,1,1.8035,,,,,,28,cake,melon,,89804,001,2022-04-29_15h04.24.929,SPAMnetsValid,2021.1.4,Win32,60.0132029,,,,,,,,,,,,,1,1.8035,0,79,79,54,1,,,,,,,,,,,,,,,,,,,,,,,,,,,,,,,,,,,,,,,,,,,,,,,,,,,,,,,,,,,,,,,
,,,,1,2.1337,,,,,,62,kitchen,rose,,89804,001,2022-04-29_15h04.24.929,SPAMnetsValid,2021.1.4,Win32,60.0132029,,,,,,,,,,,,,1,2.1337,0,80,80,57,1,,,,,,,,,,,,,,,,,,,,,,,,,,,,,,,,,,,,,,,,,,,,,,,,,,,,,,,,,,,,,,,
,,,,1,6.7217,,,,,,13,broom,yogurt,,89804,001,2022-04-29_15h04.24.929,SPAMnetsValid,2021.1.4,Win32,60.0132029,,,,,,,,,,,,,1,6.7217,0,81,81,5,1,,,,,,,,,,,,,,,,,,,,,,,,,,,,,,,,,,,,,,,,,,,,,,,,,,,,,,,,,,,,,,,
,,,,4,3.7292,,,,,,94,kitchen,microwave,,89804,001,2022-04-29_15h04.24.929,SPAMnetsValid,2021.1.4,Win32,60.0132029,,,,,,,,,,,,,4,3.7292,0,82,82,58,1,,,,,,,,,,,,,,,,,,,,,,,,,,,,,,,,,,,,,,,,,,,,,,,,,,,,,,,,,,,,,,,
,,,,1,3.8862,,,,,,87,carrot,yogurt,,89804,001,2022-04-29_15h04.24.929,SPAMnetsValid,2021.1.4,Win32,60.0132029,,,,,,,,,,,,,1,3.8862,0,83,83,6,1,,,,,,,,,,,,,,,,,,,,,,,,,,,,,,,,,,,,,,,,,,,,,,,,,,,,,,,,,,,,,,,
,,,,1,1.6327,,,,,,70,chocolate,onion,,89804,001,2022-04-29_15h04.24.929,SPAMnetsValid,2021.1.4,Win32,60.0132029,,,,,,,,,,,,,1,1.6327,0,84,84,74,1,,,,,,,,,,,,,,,,,,,,,,,,,,,,,,,,,,,,,,,,,,,,,,,,,,,,,,,,,,,,,,,
,,,,1,1.6888,,,,,,64,chocolate,garden,,89804,001,2022-04-29_15h04.24.929,SPAMnetsValid,2021.1.4,Win32,60.0132029,,,,,,,,,,,,,1,1.6888,0,85,85,14,1,,,,,,,,,,,,,,,,,,,,,,,,,,,,,,,,,,,,,,,,,,,,,,,,,,,,,,,,,,,,,,,
,,,,3,2.0684,,,,,,54,chocolate,yogurt,,89804,001,2022-04-29_15h04.24.929,SPAMnetsValid,2021.1.4,Win32,60.0132029,,,,,,,,,,,,,3,2.0684,0,86,86,67,1,,,,,,,,,,,,,,,,,,,,,,,,,,,,,,,,,,,,,,,,,,,,,,,,,,,,,,,,,,,,,,,
,,,,3,1.5529,,,,,,4,chocolate,pretzel,,89804,001,2022-04-29_15h04.24.929,SPAMnetsValid,2021.1.4,Win32,60.0132029,,,,,,,,,,,,,3,1.5529,0,87,87,52,1,,,,,,,,,,,,,,,,,,,,,,,,,,,,,,,,,,,,,,,,,,,,,,,,,,,,,,,,,,,,,,,
,,,,3,2.9268,,,,,,25,carrot,onion,,89804,001,2022-04-29_15h04.24.929,SPAMnetsValid,2021.1.4,Win32,60.0132029,,,,,,,,,,,,,3,2.9268,0,88,88,44,1,,,,,,,,,,,,,,,,,,,,,,,,,,,,,,,,,,,,,,,,,,,,,,,,,,,,,,,,,,,,,,,
,,,,1,1.2016,,,,,,8,broom,melon,,89804,001,2022-04-29_15h04.24.929,SPAMnetsValid,2021.1.4,Win32,60.0132029,,,,,,,,,,,,,1,1.2016,0,89,89,59,1,,,,,,,,,,,,,,,,,,,,,,,,,,,,,,,,,,,,,,,,,,,,,,,,,,,,,,,,,,,,,,,
,,,,1,2.4362,,,,,,67,flower,yogurt,,89804,001,2022-04-29_15h04.24.929,SPAMnetsValid,2021.1.4,Win32,60.0132029,,,,,,,,,,,,,1,2.4362,0,90,90,12,1,,,,,,,,,,,,,,,,,,,,,,,,,,,,,,,,,,,,,,,,,,,,,,,,,,,,,,,,,,,,,,,
,,,,1,3.9015,,,,,,41,broom,cactus,,89804,001,2022-04-29_15h04.24.929,SPAMnetsValid,2021.1.4,Win32,60.0132029,,,,,,,,,,,,,1,3.9015,0,91,91,46,1,,,,,,,,,,,,,,,,,,,,,,,,,,,,,,,,,,,,,,,,,,,,,,,,,,,,,,,,,,,,,,,
,,,,6,1.9842,,,,,,6,garden,onion,,89804,001,2022-04-29_15h04.24.929,SPAMnetsValid,2021.1.4,Win32,60.0132029,,,,,,,,,,,,,6,1.9842,0,92,92,83,1,,,,,,,,,,,,,,,,,,,,,,,,,,,,,,,,,,,,,,,,,,,,,,,,,,,,,,,,,,,,,,,
,,,,1,1.6023,,,,,,92,broom,flower,,89804,001,2022-04-29_15h04.24.929,SPAMnetsValid,2021.1.4,Win32,60.0132029,,,,,,,,,,,,,1,1.6023,0,93,93,88,1,,,,,,,,,,,,,,,,,,,,,,,,,,,,,,,,,,,,,,,,,,,,,,,,,,,,,,,,,,,,,,,
,,,,7,1.7046,,,,,,82,cake,kitchen,,89804,001,2022-04-29_15h04.24.929,SPAMnetsValid,2021.1.4,Win32,60.0132029,,,,,,,,,,,,,7,1.7046,0,94,94,96,1,,,,,,,,,,,,,,,,,,,,,,,,,,,,,,,,,,,,,,,,,,,,,,,,,,,,,,,,,,,,,,,
,,,,5,4.6801,,,,,,12,cookie,yogurt,,89804,001,2022-04-29_15h04.24.929,SPAMnetsValid,2021.1.4,Win32,60.0132029,,,,,,,,,,,,,5,4.6801,0,95,95,36,1,,,,,,,,,,,,,,,,,,,,,,,,,,,,,,,,,,,,,,,,,,,,,,,,,,,,,,,,,,,,,,,
,,,,8,2.3652,,,,,,55,tomato,tree,,89804,001,2022-04-29_15h04.24.929,SPAMnetsValid,2021.1.4,Win32,60.0132029,,,,,,,,,,,,,8,2.3652,0,96,96,35,1,,,,,,,,,,,,,,,,,,,,,,,,,,,,,,,,,,,,,,,,,,,,,,,,,,,,,,,,,,,,,,,
,,,,,,,,,,,,,,,89804,001,2022-04-29_15h04.24.929,SPAMnetsValid,2021.1.4,Win32,60.0132029,,,,,,,,,,,,,,,,,,,,0,0,0,0,1,,,,,,,,,,,,,,,,,,,,,,,,,,,,,,,,,,,,,,,,,,,,,,,,,,,,,,,,,,
,,,,,,,,,,,,,,,89804,001,2022-04-29_15h04.24.929,SPAMnetsValid,2021.1.4,Win32,60.0132029,,,,,,0,1,1,0,1,1,0,,,,,,,,,,,,,,,,,,,,,,,,,,,,,,,,,,,,,,,,,,,,,,,,,,,,,,,,,,,,,,,,,,,,,,
,,,,,,,,,,,,,,,89804,001,2022-04-29_15h04.24.929,SPAMnetsValid,2021.1.4,Win32,60.0132029,,,,,,,,,,,,,,,,,,,,,,,,,3,8.832,0,0,0,0,1,rancor,forbearance,ridicule,malice,bravery,3,,,,,,,,,,,,,,,,,,,,,,,,,,,,,,,,,,,,,,,,,,,,,
,,,,,,,,,,,,,,,89804,001,2022-04-29_15h04.24.929,SPAMnetsValid,2021.1.4,Win32,60.0132029,,,,,,,,,,,,,,,,,,,,,,,,,4,4.141,0,1,1,1,1,raucous,empty,quiet,smooth,harsh,4,,,,,,,,,,,,,,,,,,,,,,,,,,,,,,,,,,,,,,,,,,,,,
,,,,,,,,,,,,,,,89804,001,2022-04-29_15h04.24.929,SPAMnetsValid,2021.1.4,Win32,60.0132029,,,,,,,,,,,,,,,,,,,,,,,,,4,8.0244,0,2,2,2,1,gargoyle,oil,medicine,carved waterspout,ugly building,3,,,,,,,,,,,,,,,,,,,,,,,,,,,,,,,,,,,,,,,,,,,,,
,,,,,,,,,,,,,,,89804,001,2022-04-29_15h04.24.929,SPAMnetsValid,2021.1.4,Win32,60.0132029,,,,,,,,,,,,,,,,,,,,,,,,,3,8.4141,0,3,3,3,1,recrudesce,purify,renew activity,lack refinement,crush,2,,,,,,,,,,,,,,,,,,,,,,,,,,,,,,,,,,,,,,,,,,,,,
,,,,,,,,,,,,,,,89804,001,2022-04-29_15h04.24.929,SPAMnetsValid,2021.1.4,Win32,60.0132029,,,,,,,,,,,,,,,,,,,,,,,,,4,7.6324,0,4,4,4,1,specious,"plausible, but not genuine",noteworthy,class or variety,roomy,1,,,,,,,,,,,,,,,,,,,,,,,,,,,,,,,,,,,,,,,,,,,,,
,,,,,,,,,,,,,,,89804,001,2022-04-29_15h04.24.929,SPAMnetsValid,2021.1.4,Win32,60.0132029,,,,,,,,,,,,,,,,,,,,,,,,,3,4.7117,0,5,5,5,1,bauble,bubble,showy plaything,idle talk,confusion,2,,,,,,,,,,,,,,,,,,,,,,,,,,,,,,,,,,,,,,,,,,,,,
,,,,,,,,,,,,,,,89804,001,2022-04-29_15h04.24.929,SPAMnetsValid,2021.1.4,Win32,60.0132029,,,,,,,,,,,,,,,,,,,,,,,,,4,3.6441,0,6,6,6,1,prolific,scarce,producing abundantly,reckless,speaking profanely,2,,,,,,,,,,,,,,,,,,,,,,,,,,,,,,,,,,,,,,,,,,,,,
,,,,,,,,,,,,,,,89804,001,2022-04-29_15h04.24.929,SPAMnetsValid,2021.1.4,Win32,60.0132029,,,,,,,,,,,,,,,,,,,,,,,,,2,3.1589,0,7,7,7,1,opulent,party,wealthy,happy frame of mind,semiprecious stone,2,,,,,,,,,,,,,,,,,,,,,,,,,,,,,,,,,,,,,,,,,,,,,
,,,,,,,,,,,,,,,89804,001,2022-04-29_15h04.24.929,SPAMnetsValid,2021.1.4,Win32,60.0132029,,,,,,,,,,,,,,,,,,,,,,,,,2,5.663,0,8,8,8,1,coercion,conspiracy,strategy,restraint,attraction,3,,,,,,,,,,,,,,,,,,,,,,,,,,,,,,,,,,,,,,,,,,,,,
,,,,,,,,,,,,,,,89804,001,2022-04-29_15h04.24.929,SPAMnetsValid,2021.1.4,Win32,60.0132029,,,,,,,,,,,,,,,,,,,,,,,,,4,2.5724,0,9,9,9,1,hiatus,animal,calamity,dread,gap,4,,,,,,,,,,,,,,,,,,,,,,,,,,,,,,,,,,,,,,,,,,,,,
,,,,,,,,,,,,,,,89804,001,2022-04-29_15h04.24.929,SPAMnetsValid,2021.1.4,Win32,60.0132029,,,,,,,,,,,,,,,,,,,,,,,,,3,4.4574,0,10,10,10,1,germane,microbe,contagious,relevant,different,3,,,,,,,,,,,,,,,,,,,,,,,,,,,,,,,,,,,,,,,,,,,,,
,,,,,,,,,,,,,,,89804,001,2022-04-29_15h04.24.929,SPAMnetsValid,2021.1.4,Win32,60.0132029,,,,,,,,,,,,,,,,,,,,,,,,,1,3.3731,0,11,11,11,1,perfunctory,fundamental,formal,superficial,careful,3,,,,,,,,,,,,,,,,,,,,,,,,,,,,,,,,,,,,,,,,,,,,,
,,,,,,,,,,,,,,,89804,001,2022-04-29_15h04.24.929,SPAMnetsValid,2021.1.4,Win32,60.0132029,,,,,,,,,,,,,,,,,,,,,,,,,3,4.7707,0,12,12,12,1,diverge,reveal,chant,distract the attention of,differ or turn off from,4,,,,,,,,,,,,,,,,,,,,,,,,,,,,,,,,,,,,,,,,,,,,,
,,,,,,,,,,,,,,,89804,001,2022-04-29_15h04.24.929,SPAMnetsValid,2021.1.4,Win32,60.0132029,,,,,,,,,,,,,,,,,,,,,,,,,4,2.872,0,13,13,13,1,evoke,take away,anger,connect,bring out,4,,,,,,,,,,,,,,,,,,,,,,,,,,,,,,,,,,,,,,,,,,,,,
,,,,,,,,,,,,,,,89804,001,2022-04-29_15h04.24.929,SPAMnetsValid,2021.1.4,Win32,60.0132029,,,,,,,,,,,,,,,,,,,,,,,,,3,3.4065,0,14,14,14,1,pertinent,relevant,lying next to,necessary,bold,1,,,,,,,,,,,,,,,,,,,,,,,,,,,,,,,,,,,,,,,,,,,,,
,,,,,,,,,,,,,,,89804,001,2022-04-29_15h04.24.929,SPAMnetsValid,2021.1.4,Win32,60.0132029,,,,,,,,,,,,,,,,,,,,,,,,,2,2.1932,0,15,15,15,1,holocaust,entirety,destruction,saintly,price,2,,,,,,,,,,,,,,,,,,,,,,,,,,,,,,,,,,,,,,,,,,,,,
,,,,,,,,,,,,,,,89804,001,2022-04-29_15h04.24.929,SPAMnetsValid,2021.1.4,Win32,60.0132029,,,,,,,,,,,,,,,,,,,,,,,,,3,3.4224,0,16,16,16,1,piquant,mellow,fish,pungent,cloth,3,,,,,,,,,,,,,,,,,,,,,,,,,,,,,,,,,,,,,,,,,,,,,
,,,,,,,,,,,,,,,89804,001,2022-04-29_15h04.24.929,SPAMnetsValid,2021.1.4,Win32,60.0132029,,,,,,,,,,,,,,,,,,,,,,,,,1,3.224,0,17,17,17,1,firmament,foundation,heavens,strong,glue,2,,,,,,,,,,,,,,,,,,,,,,,,,,,,,,,,,,,,,,,,,,,,,
,,,,,,,,,,,,,,,89804,001,2022-04-29_15h04.24.929,SPAMnetsValid,2021.1.4,Win32,60.0132029,,,,,,,,,,,,,,,,,,,,,,,,,,,,,,,,,,,,,,5,4.8749,0,0,0,0,1,marketable,partisan,jocular,marriageable,salable,essential,4,,,,,,,,,,,,,,,,,,,,,,,,,,,,,,,
,,,,,,,,,,,,,,,89804,001,2022-04-29_15h04.24.929,SPAMnetsValid,2021.1.4,Win32,60.0132029,,,,,,,,,,,,,,,,,,,,,,,,,,,,,,,,,,,,,,5,4.447,0,1,1,1,1,cottontail,squirrel,poplar,boa,marshy plant,rabbit,5,,,,,,,,,,,,,,,,,,,,,,,,,,,,,,,
,,,,,,,,,,,,,,,89804,001,2022-04-29_15h04.24.929,SPAMnetsValid,2021.1.4,Win32,60.0132029,,,,,,,,,,,,,,,,,,,,,,,,,,,,,,,,,,,,,,4,3.7576,0,2,2,2,1,boggy,afraid,false,marshy,dense,black,3,,,,,,,,,,,,,,,,,,,,,,,,,,,,,,,
,,,,,,,,,,,,,,,89804,001,2022-04-29_15h04.24.929,SPAMnetsValid,2021.1.4,Win32,60.0132029,,,,,,,,,,,,,,,,,,,,,,,,,,,,,,,,,,,,,,4,4.5645,0,3,3,3,1,gruesomeness,blackness,falseness,vindictiveness,drunkenness,ghastliness,5,,,,,,,,,,,,,,,,,,,,,,,,,,,,,,,
,,,,,,,,,,,,,,,89804,001,2022-04-29_15h04.24.929,SPAMnetsValid,2021.1.4,Win32,60.0132029,,,,,,,,,,,,,,,,,,,,,,,,,,,,,,,,,,,,,,3,2.6621,0,4,4,4,1,loathing,diffidence,laziness,abhorrence,cleverness,comfort,3,,,,,,,,,,,,,,,,,,,,,,,,,,,,,,,
,,,,,,,,,,,,,,,89804,001,2022-04-29_15h04.24.929,SPAMnetsValid,2021.1.4,Win32,60.0132029,,,,,,,,,,,,,,,,,,,,,,,,,,,,,,,,,,,,,,5,5.4682,0,5,5,5,1,bantam,fowl,ridicule,cripple,vegetable,ensign,1,,,,,,,,,,,,,,,,,,,,,,,,,,,,,,,
,,,,,,,,,,,,,,,89804,001,2022-04-29_15h04.24.929,SPAMnetsValid,2021.1.4,Win32,60.0132029,,,,,,,,,,,,,,,,,,,,,,,,,,,,,,,,,,,,,,5,6.905,0,6,6,6,1,evoke,wake up,surrender,reconnoiter,transcend,call forth,5,,,,,,,,,,,,,,,,,,,,,,,,,,,,,,,
,,,,,,,,,,,,,,,89804,001,2022-04-29_15h04.24.929,SPAMnetsValid,2021.1.4,Win32,60.0132029,,,,,,,,,,,,,,,,,,,,,,,,,,,,,,,,,,,,,,3,3.5504,0,7,7,7,1,unobtrusive,unintelligent,epileptic,illogical,lineal,modest,5,,,,,,,,,,,,,,,,,,,,,,,,,,,,,,,
,,,,,,,,,,,,,,,89804,001,2022-04-29_15h04.24.929,SPAMnetsValid,2021.1.4,Win32,60.0132029,,,,,,,,,,,,,,,,,,,,,,,,,,,,,,,,,,,,,,4,3.6677,0,8,8,8,1,terrain,ice cream,final test,tractor,area of ground,weight,4,,,,,,,,,,,,,,,,,,,,,,,,,,,,,,,
,,,,,,,,,,,,,,,89804,001,2022-04-29_15h04.24.929,SPAMnetsValid,2021.1.4,Win32,60.0132029,,,,,,,,,,,,,,,,,,,,,,,,,,,,,,,,,,,,,,1,7.2429,0,9,9,9,1,capriciousness,stubbornness,courage,whimsicality,amazement,greediness,3,,,,,,,,,,,,,,,,,,,,,,,,,,,,,,,
,,,,,,,,,,,,,,,89804,001,2022-04-29_15h04.24.929,SPAMnetsValid,2021.1.4,Win32,60.0132029,,,,,,,,,,,,,,,,,,,,,,,,,,,,,,,,,,,,,,3,3.3774,0,10,10,10,1,maelstrom,slander,whirlpool,enmity,armor,majolica,2,,,,,,,,,,,,,,,,,,,,,,,,,,,,,,,
,,,,,,,,,,,,,,,89804,001,2022-04-29_15h04.24.929,SPAMnetsValid,2021.1.4,Win32,60.0132029,,,,,,,,,,,,,,,,,,,,,,,,,,,,,,,,,,,,,,1,3.4929,0,11,11,11,1,tentative,critical,conclusive,authentic,provisional,apprehensive,4,,,,,,,,,,,,,,,,,,,,,,,,,,,,,,,
,,,,,,,,,,,,,,,89804,001,2022-04-29_15h04.24.929,SPAMnetsValid,2021.1.4,Win32,60.0132029,,,,,,,,,,,,,,,,,,,,,,,,,,,,,,,,,,,,,,2,4.7438,0,12,12,12,1,placate,rehabilitate,plagiarize,depredate,apprise,conciliate,5,,,,,,,,,,,,,,,,,,,,,,,,,,,,,,,
,,,,,,,,,,,,,,,89804,001,2022-04-29_15h04.24.929,SPAMnetsValid,2021.1.4,Win32,60.0132029,,,,,,,,,,,,,,,,,,,,,,,,,,,,,,,,,,,,,,2,6.0834,0,13,13,13,1,surcease,enlightenment,cessation,inattention,censor,substitution,2,,,,,,,,,,,,,,,,,,,,,,,,,,,,,,,
,,,,,,,,,,,,,,,89804,001,2022-04-29_15h04.24.929,SPAMnetsValid,2021.1.4,Win32,60.0132029,,,,,,,,,,,,,,,,,,,,,,,,,,,,,,,,,,,,,,3,3.5846,0,14,14,14,1,apathetic,wandering,impassive,hateful,prophetic,overflowing,2,,,,,,,,,,,,,,,,,,,,,,,,,,,,,,,
,,,,,,,,,,,,,,,89804,001,2022-04-29_15h04.24.929,SPAMnetsValid,2021.1.4,Win32,60.0132029,,,,,,,,,,,,,,,,,,,,,,,,,,,,,,,,,,,,,,1,7.9103,0,15,15,15,1,paternoster,paternalism,patricide,malediction,benediction,prayer,5,,,,,,,,,,,,,,,,,,,,,,,,,,,,,,,
,,,,,,,,,,,,,,,89804,001,2022-04-29_15h04.24.929,SPAMnetsValid,2021.1.4,Win32,60.0132029,,,,,,,,,,,,,,,,,,,,,,,,,,,,,,,,,,,,,,1,6.1434,0,16,16,16,1,opalescence,opulence,senescence,bankruptcy,iridescence,assiduity,4,,,,,,,,,,,,,,,,,,,,,,,,,,,,,,,
,,,,,,,,,,,,,,,89804,001,2022-04-29_15h04.24.929,SPAMnetsValid,2021.1.4,Win32,60.0132029,,,,,,,,,,,,,,,,,,,,,,,,,,,,,,,,,,,,,,2,2.3602,0,17,17,17,1,lush,stupid,luxurious,hazy,putrid,languishing,2,,,,,,,,,,,,,,,,,,,,,,,,,,,,,,,
,,,,,,,,,,,,,,,89804,001,2022-04-29_15h04.24.929,SPAMnetsValid,2021.1.4,Win32,60.0132029,,,,,,,,,,,,,,,,,,,,,,,,,,,,,,,,,,,,,,4,5.7254,0,18,18,18,1,curtailment,expenditure,abandonment,abridgment,improvement,forgery,3,,,,,,,,,,,,,,,,,,,,,,,,,,,,,,,
,,,,,,,,,,,,,,,89804,001,2022-04-29_15h04.24.929,SPAMnetsValid,2021.1.4,Win32,60.0132029,,,,,,,,,,,,,,,,,,,,,,,,,,,,,,,,,,,,,,2,6.5808,0,19,19,19,1,perversity,adversity,perviousness,travesty,waywardness,gentility,4,,,,,,,,,,,,,,,,,,,,,,,,,,,,,,,
,,,,,,,,,,,,,,,89804,001,2022-04-29_15h04.24.929,SPAMnetsValid,2021.1.4,Win32,60.0132029,,,,,,,,,,,,,,,,,,,,,,,,,,,,,,,,,,,,,,1,3.4412,0,20,20,20,1,calumnious,complimentary,analogous,slanderous,tempestuous,magnanimous,3,,,,,,,,,,,,,,,,,,,,,,,,,,,,,,,
,,,,,,,,,,,,,,,89804,001,2022-04-29_15h04.24.929,SPAMnetsValid,2021.1.4,Win32,60.0132029,,,,,,,,,,,,,,,,,,,,,,,,,,,,,,,,,,,,,,1,9.2113,0,21,21,21,1,illiberality,bigotry,imbecility,illegibility,cautery,immaturity,1,,,,,,,,,,,,,,,,,,,,,,,,,,,,,,,
,,,,,,,,,,,,,,,89804,001,2022-04-29_15h04.24.929,SPAMnetsValid,2021.1.4,Win32,60.0132029,,,,,,,,,,,,,,,,,,,,,,,,,,,,,,,,,,,,,,2,4.9462,0,22,22,22,1,clabber,rejoice,gossip,curdle,crow,hobble,3,,,,,,,,,,,,,,,,,,,,,,,,,,,,,,,
,,,,,,,,,,,,,,,89804,001,2022-04-29_15h04.24.929,SPAMnetsValid,2021.1.4,Win32,60.0132029,,,,,,,,,,,,,,,,,,,,,,,,,,,,,,,,,,,,,,3,6.8931,0,23,23,23,1,sedulousness,diligence,credulousness,seduction,perilousness,frankness,1,,,,,,,,,,,,,,,,,,,,,,,,,,,,,,,
,,,,,,,,,,,,,,,89804,001,2022-04-29_15h04.24.929,SPAMnetsValid,2021.1.4,Win32,60.0132029,,,,,,,,,,,,,,,,,,,,,,,,,,,,,,,,,,,,,,,,,,,,,,,,,,,,carry objects,bucket,0,0,0,0,1,,,,,,,,,,,,,,,,,,,,,,,,
,,,,,,,,,,,,,,,89804,001,2022-04-29_15h04.24.929,SPAMnetsValid,2021.1.4,Win32,60.0132029,,,,,,,,,,,,,,,,,,,,,,,,,,,,,,,,,,,,,,,,,,,,,,,,,,,,store objects,bucket,1,0,1,0,1,,,,,,,,,,,,,,,,,,,,,,,,
,,,,,,,,,,,,,,,89804,001,2022-04-29_15h04.24.929,SPAMnetsValid,2021.1.4,Win32,60.0132029,,,,,,,,,,,,,,,,,,,,,,,,,,,,,,,,,,,,,,,,,,,,,,,,,,,,carry water,bucket,2,0,2,0,1,,,,,,,,,,,,,,,,,,,,,,,,
,,,,,,,,,,,,,,,89804,001,2022-04-29_15h04.24.929,SPAMnetsValid,2021.1.4,Win32,60.0132029,,,,,,,,,,,,,,,,,,,,,,,,,,,,,,,,,,,,,,,,,,,,,,,,,,,,make snadcastle,bucket,3,0,3,0,1,,,,,,,,,,,,,,,,,,,,,,,,
,,,,,,,,,,,,,,,89804,001,2022-04-29_15h04.24.929,SPAMnetsValid,2021.1.4,Win32,60.0132029,,,,,,,,,,,,,,,,,,,,,,,,,,,,,,,,,,,,,,,,,,,,,,,,,,,,a useful objectwith many purpose,bucket,4,0,4,0,1,,,,,,,,,,,,,,,,,,,,,,,,
,,,,,,,,,,,,,,,89804,001,2022-04-29_15h04.24.929,SPAMnetsValid,2021.1.4,Win32,60.0132029,,,,,,,,,,,,,,,,,,,,,,,,,,,,,,,,,,,,,,,,,,,,,,,,,,,,ciruclar shape,bucket,5,0,5,0,1,,,,,,,,,,,,,,,,,,,,,,,,
,,,,,,,,,,,,,,,89804,001,2022-04-29_15h04.24.929,SPAMnetsValid,2021.1.4,Win32,60.0132029,,,,,,,,,,,,,,,,,,,,,,,,,,,,,,,,,,,,,,,,,,,,,,,,,,,,shower with ,bucket,6,0,6,0,1,,,,,,,,,,,,,,,,,,,,,,,,
,,,,,,,,,,,,,,,89804,001,2022-04-29_15h04.24.929,SPAMnetsValid,2021.1.4,Win32,60.0132029,,,,,,,,,,,,,,,,,,,,,,,,,,,,,,,,,,,,,,,,,,,,,,,,,,,,sit on ,bucket,7,0,7,0,1,,,,,,,,,,,,,,,,,,,,,,,,
,,,,,,,,,,,,,,,89804,001,2022-04-29_15h04.24.929,SPAMnetsValid,2021.1.4,Win32,60.0132029,,,,,,,,,,,,,,,,,,,,,,,,,,,,,,,,,,,,,,,,,,,,,,,,,,,,throw at someone,bucket,8,0,8,0,1,,,,,,,,,,,,,,,,,,,,,,,,
,,,,,,,,,,,,,,,89804,001,2022-04-29_15h04.24.929,SPAMnetsValid,2021.1.4,Win32,60.0132029,,,,,,,,,,,,,,,,,,,,,,,,,,,,,,,,,,,,,,,,,,,,,,,,,,,,storeage,bucket,9,0,9,0,1,,,,,,,,,,,,,,,,,,,,,,,,
,,,,,,,,,,,,,,,89804,001,2022-04-29_15h04.24.929,SPAMnetsValid,2021.1.4,Win32,60.0132029,,,,,,,,,,,,,,,,,,,,,,,,,,,,,,,,,,,,,,,,,,,,,,,,,,,,meant to carry something,bucket,10,0,10,0,1,,,,,,,,,,,,,,,,,,,,,,,,
,,,,,,,,,,,,,,,89804,001,2022-04-29_15h04.24.929,SPAMnetsValid,2021.1.4,Win32,60.0132029,,,,,,,,,,,,,,,,,,,,,,,,,,,,,,,,,,,,,,,,,,,,,,,,,,,,trnasportation,bucket,11,0,11,0,1,,,,,,,,,,,,,,,,,,,,,,,,
,,,,,,,,,,,,,,,89804,001,2022-04-29_15h04.24.929,SPAMnetsValid,2021.1.4,Win32,60.0132029,,,,,,,,,,,,,,,,,,,,,,,,,,,,,,,,,,,,,,,,,,,,,,,,,,,,very important at the beach,bucket,12,0,12,0,1,,,,,,,,,,,,,,,,,,,,,,,,
,,,,,,,,,,,,,,,89804,001,2022-04-29_15h04.24.929,SPAMnetsValid,2021.1.4,Win32,60.0132029,,,,,,,,,,,,,,,,,,,,,,,,,,,,,,,,,,,,,,,,,,,,,,,,,,,,,,,,,,,0,0,0,0,1,bucket,,,,,,,,,,,,,,,,,,
,,,,,,,,,,,,,,,89804,001,2022-04-29_15h04.24.929,SPAMnetsValid,2021.1.4,Win32,60.0132029,,,,,,,,,,,,,,,,,,,,,,,,,,,,,,,,,,,,,,,,,,,,,,,,,,,,sleep on ,pillow,0,0,0,0,1,,,,,,,,,,,,,,,,,,,,,,,,
,,,,,,,,,,,,,,,89804,001,2022-04-29_15h04.24.929,SPAMnetsValid,2021.1.4,Win32,60.0132029,,,,,,,,,,,,,,,,,,,,,,,,,,,,,,,,,,,,,,,,,,,,,,,,,,,,very comfy,pillow,1,0,1,0,1,,,,,,,,,,,,,,,,,,,,,,,,
,,,,,,,,,,,,,,,89804,001,2022-04-29_15h04.24.929,SPAMnetsValid,2021.1.4,Win32,60.0132029,,,,,,,,,,,,,,,,,,,,,,,,,,,,,,,,,,,,,,,,,,,,,,,,,,,,creates a restful sleep,pillow,2,0,2,0,1,,,,,,,,,,,,,,,,,,,,,,,,
,,,,,,,,,,,,,,,89804,001,2022-04-29_15h04.24.929,SPAMnetsValid,2021.1.4,Win32,60.0132029,,,,,,,,,,,,,,,,,,,,,,,,,,,,,,,,,,,,,,,,,,,,,,,,,,,,fluffy,pillow,3,0,3,0,1,,,,,,,,,,,,,,,,,,,,,,,,
,,,,,,,,,,,,,,,89804,001,2022-04-29_15h04.24.929,SPAMnetsValid,2021.1.4,Win32,60.0132029,,,,,,,,,,,,,,,,,,,,,,,,,,,,,,,,,,,,,,,,,,,,,,,,,,,,white,pillow,4,0,4,0,1,,,,,,,,,,,,,,,,,,,,,,,,
,,,,,,,,,,,,,,,89804,001,2022-04-29_15h04.24.929,SPAMnetsValid,2021.1.4,Win32,60.0132029,,,,,,,,,,,,,,,,,,,,,,,,,,,,,,,,,,,,,,,,,,,,,,,,,,,,firm,pillow,5,0,5,0,1,,,,,,,,,,,,,,,,,,,,,,,,
,,,,,,,,,,,,,,,89804,001,2022-04-29_15h04.24.929,SPAMnetsValid,2021.1.4,Win32,60.0132029,,,,,,,,,,,,,,,,,,,,,,,,,,,,,,,,,,,,,,,,,,,,,,,,,,,,very soft ,pillow,6,0,6,0,1,,,,,,,,,,,,,,,,,,,,,,,,
,,,,,,,,,,,,,,,89804,001,2022-04-29_15h04.24.929,SPAMnetsValid,2021.1.4,Win32,60.0132029,,,,,,,,,,,,,,,,,,,,,,,,,,,,,,,,,,,,,,,,,,,,,,,,,,,,easily adjustable,pillow,7,0,7,0,1,,,,,,,,,,,,,,,,,,,,,,,,
,,,,,,,,,,,,,,,89804,001,2022-04-29_15h04.24.929,SPAMnetsValid,2021.1.4,Win32,60.0132029,,,,,,,,,,,,,,,,,,,,,,,,,,,,,,,,,,,,,,,,,,,,,,,,,,,,pillow fight with sister,pillow,8,0,8,0,1,,,,,,,,,,,,,,,,,,,,,,,,
,,,,,,,,,,,,,,,89804,001,2022-04-29_15h04.24.929,SPAMnetsValid,2021.1.4,Win32,60.0132029,,,,,,,,,,,,,,,,,,,,,,,,,,,,,,,,,,,,,,,,,,,,,,,,,,,,many purposes,pillow,9,0,9,0,1,,,,,,,,,,,,,,,,,,,,,,,,
,,,,,,,,,,,,,,,89804,001,2022-04-29_15h04.24.929,SPAMnetsValid,2021.1.4,Win32,60.0132029,,,,,,,,,,,,,,,,,,,,,,,,,,,,,,,,,,,,,,,,,,,,,,,,,,,,creates seperation,pillow,10,0,10,0,1,,,,,,,,,,,,,,,,,,,,,,,,
,,,,,,,,,,,,,,,89804,001,2022-04-29_15h04.24.929,SPAMnetsValid,2021.1.4,Win32,60.0132029,,,,,,,,,,,,,,,,,,,,,,,,,,,,,,,,,,,,,,,,,,,,,,,,,,,,used on a bed,pillow,11,0,11,0,1,,,,,,,,,,,,,,,,,,,,,,,,
,,,,,,,,,,,,,,,89804,001,2022-04-29_15h04.24.929,SPAMnetsValid,2021.1.4,Win32,60.0132029,,,,,,,,,,,,,,,,,,,,,,,,,,,,,,,,,,,,,,,,,,,,,,,,,,,,love to sleep on it,pillow,12,0,12,0,1,,,,,,,,,,,,,,,,,,,,,,,,
,,,,,,,,,,,,,,,89804,001,2022-04-29_15h04.24.929,SPAMnetsValid,2021.1.4,Win32,60.0132029,,,,,,,,,,,,,,,,,,,,,,,,,,,,,,,,,,,,,,,,,,,,,,,,,,,,lay my head on it ,pillow,13,0,13,0,1,,,,,,,,,,,,,,,,,,,,,,,,
,,,,,,,,,,,,,,,89804,001,2022-04-29_15h04.24.929,SPAMnetsValid,2021.1.4,Win32,60.0132029,,,,,,,,,,,,,,,,,,,,,,,,,,,,,,,,,,,,,,,,,,,,,,,,,,,,place on my back ,pillow,14,0,14,0,1,,,,,,,,,,,,,,,,,,,,,,,,
,,,,,,,,,,,,,,,89804,001,2022-04-29_15h04.24.929,SPAMnetsValid,2021.1.4,Win32,60.0132029,,,,,,,,,,,,,,,,,,,,,,,,,,,,,,,,,,,,,,,,,,,,,,,,,,,,,,,,,,,0,1,1,2,1,pillow,,,,,,,,,,,,,,,,,,
,,,,,,,,,,,,,,,89804,001,2022-04-29_15h04.24.929,SPAMnetsValid,2021.1.4,Win32,60.0132029,,,,,,,,,,,,,,,,,,,,,,,,,,,,,,,,,,,,,,,,,,,,,,,,,,,,creates warm,candle,0,0,0,0,1,,,,,,,,,,,,,,,,,,,,,,,,
,,,,,,,,,,,,,,,89804,001,2022-04-29_15h04.24.929,SPAMnetsValid,2021.1.4,Win32,60.0132029,,,,,,,,,,,,,,,,,,,,,,,,,,,,,,,,,,,,,,,,,,,,,,,,,,,,when lights off,candle,1,0,1,0,1,,,,,,,,,,,,,,,,,,,,,,,,
,,,,,,,,,,,,,,,89804,001,2022-04-29_15h04.24.929,SPAMnetsValid,2021.1.4,Win32,60.0132029,,,,,,,,,,,,,,,,,,,,,,,,,,,,,,,,,,,,,,,,,,,,,,,,,,,,luminous,candle,2,0,2,0,1,,,,,,,,,,,,,,,,,,,,,,,,
,,,,,,,,,,,,,,,89804,001,2022-04-29_15h04.24.929,SPAMnetsValid,2021.1.4,Win32,60.0132029,,,,,,,,,,,,,,,,,,,,,,,,,,,,,,,,,,,,,,,,,,,,,,,,,,,,creates a fragent,candle,3,0,3,0,1,,,,,,,,,,,,,,,,,,,,,,,,
,,,,,,,,,,,,,,,89804,001,2022-04-29_15h04.24.929,SPAMnetsValid,2021.1.4,Win32,60.0132029,,,,,,,,,,,,,,,,,,,,,,,,,,,,,,,,,,,,,,,,,,,,,,,,,,,,scented ,candle,4,0,4,0,1,,,,,,,,,,,,,,,,,,,,,,,,
,,,,,,,,,,,,,,,89804,001,2022-04-29_15h04.24.929,SPAMnetsValid,2021.1.4,Win32,60.0132029,,,,,,,,,,,,,,,,,,,,,,,,,,,,,,,,,,,,,,,,,,,,,,,,,,,,different shapes,candle,5,0,5,0,1,,,,,,,,,,,,,,,,,,,,,,,,
,,,,,,,,,,,,,,,89804,001,2022-04-29_15h04.24.929,SPAMnetsValid,2021.1.4,Win32,60.0132029,,,,,,,,,,,,,,,,,,,,,,,,,,,,,,,,,,,,,,,,,,,,,,,,,,,,creates warmth,candle,6,0,6,0,1,,,,,,,,,,,,,,,,,,,,,,,,
,,,,,,,,,,,,,,,89804,001,2022-04-29_15h04.24.929,SPAMnetsValid,2021.1.4,Win32,60.0132029,,,,,,,,,,,,,,,,,,,,,,,,,,,,,,,,,,,,,,,,,,,,,,,,,,,,pollutes the air sometime,candle,7,0,7,0,1,,,,,,,,,,,,,,,,,,,,,,,,
,,,,,,,,,,,,,,,89804,001,2022-04-29_15h04.24.929,SPAMnetsValid,2021.1.4,Win32,60.0132029,,,,,,,,,,,,,,,,,,,,,,,,,,,,,,,,,,,,,,,,,,,,,,,,,,,,releases co2,candle,8,0,8,0,1,,,,,,,,,,,,,,,,,,,,,,,,
,,,,,,,,,,,,,,,89804,001,2022-04-29_15h04.24.929,SPAMnetsValid,2021.1.4,Win32,60.0132029,,,,,,,,,,,,,,,,,,,,,,,,,,,,,,,,,,,,,,,,,,,,,,,,,,,,when power is out,candle,9,0,9,0,1,,,,,,,,,,,,,,,,,,,,,,,,
,,,,,,,,,,,,,,,89804,001,2022-04-29_15h04.24.929,SPAMnetsValid,2021.1.4,Win32,60.0132029,,,,,,,,,,,,,,,,,,,,,,,,,,,,,,,,,,,,,,,,,,,,,,,,,,,,no light or water,candle,10,0,10,0,1,,,,,,,,,,,,,,,,,,,,,,,,
,,,,,,,,,,,,,,,89804,001,2022-04-29_15h04.24.929,SPAMnetsValid,2021.1.4,Win32,60.0132029,,,,,,,,,,,,,,,,,,,,,,,,,,,,,,,,,,,,,,,,,,,,,,,,,,,,,,,,,,,0,2,2,1,1,candle,,,,,,,,,,,,,,,,,,
,,,,,,,,,,,,,,,89804,001,2022-04-29_15h04.24.929,SPAMnetsValid,2021.1.4,Win32,60.0132029,,,,,,,,,,,,,,,,,,,,,,,,,,,,,,,,,,,,,,,,,,,,,,,,,,,,,,,,,,,,,,,,,0,0,0,0,1,Animals,,,,,,,,,,,,
,,,,,,,,,,,,,,,89804,001,2022-04-29_15h04.24.929,SPAMnetsValid,2021.1.4,Win32,60.0132029,,,,,,,,,,,,,,,,,,,,,,,,,,,,,,,,,,,,,,,,,,,,,,,,,,,,,,,,,,,,,,,,,,,,,,,5,5.257,0,0,0,0,1,"I enjoy concentrating on a fantasy or daydream and exploring all its possibilities, letting it grow and develop.",0,1,,
,,,,,,,,,,,,,,,89804,001,2022-04-29_15h04.24.929,SPAMnetsValid,2021.1.4,Win32,60.0132029,,,,,,,,,,,,,,,,,,,,,,,,,,,,,,,,,,,,,,,,,,,,,,,,,,,,,,,,,,,,,,,,,,,,,,,5,1.9596,0,1,1,1,1,I think it's interesting to learn and develop new hobbies.,0,2,,
,,,,,,,,,,,,,,,89804,001,2022-04-29_15h04.24.929,SPAMnetsValid,2021.1.4,Win32,60.0132029,,,,,,,,,,,,,,,,,,,,,,,,,,,,,,,,,,,,,,,,,,,,,,,,,,,,,,,,,,,,,,,,,,,,,,,4,2.4542,0,2,2,2,1,I am intrigued by the patterns I find in art and nature.,0,3,,
,,,,,,,,,,,,,,,89804,001,2022-04-29_15h04.24.929,SPAMnetsValid,2021.1.4,Win32,60.0132029,,,,,,,,,,,,,,,,,,,,,,,,,,,,,,,,,,,,,,,,,,,,,,,,,,,,,,,,,,,,,,,,,,,,,,,1,3.9751,0,3,3,3,1,I believe letting students hear controversial speakers can only confuse and mislead them.,1,4,,
,,,,,,,,,,,,,,,89804,001,2022-04-29_15h04.24.929,SPAMnetsValid,2021.1.4,Win32,60.0132029,,,,,,,,,,,,,,,,,,,,,,,,,,,,,,,,,,,,,,,,,,,,,,,,,,,,,,,,,,,,,,,,,,,,,,,2,3.5714,0,4,4,4,1,Poetry has little or no effect on me.,1,5,,
,,,,,,,,,,,,,,,89804,001,2022-04-29_15h04.24.929,SPAMnetsValid,2021.1.4,Win32,60.0132029,,,,,,,,,,,,,,,,,,,,,,,,,,,,,,,,,,,,,,,,,,,,,,,,,,,,,,,,,,,,,,,,,,,,,,,5,3.3291,0,5,5,5,1,I would have difficulty just letting my mind wander without control or guidance.,1,6,,
,,,,,,,,,,,,,,,89804,001,2022-04-29_15h04.24.929,SPAMnetsValid,2021.1.4,Win32,60.0132029,,,,,,,,,,,,,,,,,,,,,,,,,,,,,,,,,,,,,,,,,,,,,,,,,,,,,,,,,,,,,,,,,,,,,,,1,5.5747,0,6,6,6,1,I seldom notice the moods or feelings that different environments produce.,1,7,,
,,,,,,,,,,,,,,,89804,001,2022-04-29_15h04.24.929,SPAMnetsValid,2021.1.4,Win32,60.0132029,,,,,,,,,,,,,,,,,,,,,,,,,,,,,,,,,,,,,,,,,,,,,,,,,,,,,,,,,,,,,,,,,,,,,,,3,3.371,0,7,7,7,1,I experience a wide range of emotions or feelings.,0,8,,
,,,,,,,,,,,,,,,89804,001,2022-04-29_15h04.24.929,SPAMnetsValid,2021.1.4,Win32,60.0132029,,,,,,,,,,,,,,,,,,,,,,,,,,,,,,,,,,,,,,,,,,,,,,,,,,,,,,,,,,,,,,,,,,,,,,,4,3.4558,0,8,8,8,1,"Sometimes when I am reading poetry or looking at a work of art, I feel a chill or wave of excitement.",0,9,,
,,,,,,,,,,,,,,,89804,001,2022-04-29_15h04.24.929,SPAMnetsValid,2021.1.4,Win32,60.0132029,,,,,,,,,,,,,,,,,,,,,,,,,,,,,,,,,,,,,,,,,,,,,,,,,,,,,,,,,,,,,,,,,,,,,,,1,5.5799,0,9,9,9,1,I have little interest in speculating on the nature of the universe or the human condition.,1,10,,
,,,,,,,,,,,,,,,89804,001,2022-04-29_15h04.24.929,SPAMnetsValid,2021.1.4,Win32,60.0132029,,,,,,,,,,,,,,,,,,,,,,,,,,,,,,,,,,,,,,,,,,,,,,,,,,,,,,,,,,,,,,,,,,,,,,,5,2.6031,0,10,10,10,1,I have a lot of intellectual curiosity.,0,11,,
,,,,,,,,,,,,,,,89804,001,2022-04-29_15h04.24.929,SPAMnetsValid,2021.1.4,Win32,60.0132029,,,,,,,,,,,,,,,,,,,,,,,,,,,,,,,,,,,,,,,,,,,,,,,,,,,,,,,,,,,,,,,,,,,,,,,5,3.2867,0,11,11,11,1,I often enjoy playing with theories or abstract ideas.,0,12,,
,,,,,,,,,,,,,,,89804,001,2022-04-29_15h04.24.929,SPAMnetsValid,2021.1.4,Win32,60.0132029,,,,,,,,,,,,,,,,,,,,,,,,,,,,,,,,,,,,,,,,,,,,,,,,,,,,,,,,,,,,,,,,,,,,,,,,,,,,,,,,,return,11.1471
