key_resp_3.keys,key_resp_3.rt,slider_2.response,slider_2.rt,rjt_rating,rjt_RT,trials_24.thisRepN,trials_24.thisTrialN,trials_24.thisN,trials_24.thisIndex,trials_24.ran,rjt_order,word1,word2,attention,participant,session,date,expName,psychopyVersion,OS,frameRate,trials_4.thisRepN,trials_4.thisTrialN,trials_4.thisN,trials_4.thisIndex,trials_4.ran,trials_5.thisRepN,trials_5.thisTrialN,trials_5.thisN,trials_5.thisIndex,trials_5.ran,repOne,repTwo,slider.response,slider.rt,trials_22.thisRepN,trials_22.thisTrialN,trials_22.thisN,trials_22.thisIndex,trials_22.ran,trials_99.thisRepN,trials_99.thisTrialN,trials_99.thisN,trials_99.thisIndex,trials_99.ran,slider_extend_2.response,slider_extend_2.rt,trials_6.thisRepN,trials_6.thisTrialN,trials_6.thisN,trials_6.thisIndex,trials_6.ran,vCue2,R1,R2,R3,R4,correct,sliderVocab.response,sliderVocab.rt,trials_7.thisRepN,trials_7.thisTrialN,trials_7.thisN,trials_7.thisIndex,trials_7.ran,VocabCue,VR1,VR2,VR3,VR4,VR5,VocabCorrect,AUT_resp,AUT_label,trials.thisRepN,trials.thisTrialN,trials.thisN,trials.thisIndex,trials.ran,trials_2.thisRepN,trials_2.thisTrialN,trials_2.thisN,trials_2.thisIndex,trials_2.ran,aut_prompt,VF_response,VF_tag,trials_16.thisRepN,trials_16.thisTrialN,trials_16.thisN,trials_16.thisIndex,trials_16.ran,trials_17.thisRepN,trials_17.thisTrialN,trials_17.thisN,trials_17.thisIndex,trials_17.ran,VFcond,open_slider.response,open_slider.rt,trials_3.thisRepN,trials_3.thisTrialN,trials_3.thisN,trials_3.thisIndex,trials_3.ran,OpenQ,Rev,OPEN_ORDER,key_resp_2.keys,key_resp_2.rt
return,12.507,2,3.017,2,3.017,0,0,0,70,1,141,melon,tomato,,89845,001,2022-04-29_15h12.25.974,SPAMnetsValid,2021.1.4,Win32,59.95203837,,,,,,,,,,,,,,,,,,,,,,,,,,,,,,,,,,,,,,,,,,,,,,,,,,,,,,,,,,,,,,,,,,,,,,,,,,,,,,,,,,,,,,,,,
,,6,5.266,6,5.266,0,1,1,27,1,158,cookie,oven,,89845,001,2022-04-29_15h12.25.974,SPAMnetsValid,2021.1.4,Win32,59.95203837,,,,,,,,,,,,,,,,,,,,,,,,,,,,,,,,,,,,,,,,,,,,,,,,,,,,,,,,,,,,,,,,,,,,,,,,,,,,,,,,,,,,,,,,,
,,1,2.619,1,2.619,0,2,2,73,1,135,carrot,oven,,89845,001,2022-04-29_15h12.25.974,SPAMnetsValid,2021.1.4,Win32,59.95203837,,,,,,,,,,,,,,,,,,,,,,,,,,,,,,,,,,,,,,,,,,,,,,,,,,,,,,,,,,,,,,,,,,,,,,,,,,,,,,,,,,,,,,,,,
,,2,3.122,2,3.122,0,3,3,12,1,162,microwave,tomato,,89845,001,2022-04-29_15h12.25.974,SPAMnetsValid,2021.1.4,Win32,59.95203837,,,,,,,,,,,,,,,,,,,,,,,,,,,,,,,,,,,,,,,,,,,,,,,,,,,,,,,,,,,,,,,,,,,,,,,,,,,,,,,,,,,,,,,,,
,,7,2.283,7,2.283,0,4,4,85,1,115,refrigerator,tomato,,89845,001,2022-04-29_15h12.25.974,SPAMnetsValid,2021.1.4,Win32,59.95203837,,,,,,,,,,,,,,,,,,,,,,,,,,,,,,,,,,,,,,,,,,,,,,,,,,,,,,,,,,,,,,,,,,,,,,,,,,,,,,,,,,,,,,,,,
,,7,1.75,7,1.75,0,5,5,93,1,134,carrot,flower,,89845,001,2022-04-29_15h12.25.974,SPAMnetsValid,2021.1.4,Win32,59.95203837,,,,,,,,,,,,,,,,,,,,,,,,,,,,,,,,,,,,,,,,,,,,,,,,,,,,,,,,,,,,,,,,,,,,,,,,,,,,,,,,,,,,,,,,,
,,2,1.95,2,1.95,0,6,6,63,1,137,microwave,tree,,89845,001,2022-04-29_15h12.25.974,SPAMnetsValid,2021.1.4,Win32,59.95203837,,,,,,,,,,,,,,,,,,,,,,,,,,,,,,,,,,,,,,,,,,,,,,,,,,,,,,,,,,,,,,,,,,,,,,,,,,,,,,,,,,,,,,,,,
,,6,2.602,6,2.602,0,7,7,69,1,124,oven,refrigerator,,89845,001,2022-04-29_15h12.25.974,SPAMnetsValid,2021.1.4,Win32,59.95203837,,,,,,,,,,,,,,,,,,,,,,,,,,,,,,,,,,,,,,,,,,,,,,,,,,,,,,,,,,,,,,,,,,,,,,,,,,,,,,,,,,,,,,,,,
,,3,1.609,3,1.609,0,8,8,87,1,114,cookie,strawberry,,89845,001,2022-04-29_15h12.25.974,SPAMnetsValid,2021.1.4,Win32,59.95203837,,,,,,,,,,,,,,,,,,,,,,,,,,,,,,,,,,,,,,,,,,,,,,,,,,,,,,,,,,,,,,,,,,,,,,,,,,,,,,,,,,,,,,,,,
,,1,2.249,1,2.249,0,9,9,3,1,129,cactus,refrigerator,,89845,001,2022-04-29_15h12.25.974,SPAMnetsValid,2021.1.4,Win32,59.95203837,,,,,,,,,,,,,,,,,,,,,,,,,,,,,,,,,,,,,,,,,,,,,,,,,,,,,,,,,,,,,,,,,,,,,,,,,,,,,,,,,,,,,,,,,
,,1,1.96,1,1.96,0,10,10,57,1,127,cactus,chocolate,,89845,001,2022-04-29_15h12.25.974,SPAMnetsValid,2021.1.4,Win32,59.95203837,,,,,,,,,,,,,,,,,,,,,,,,,,,,,,,,,,,,,,,,,,,,,,,,,,,,,,,,,,,,,,,,,,,,,,,,,,,,,,,,,,,,,,,,,
,,1,1.838,1,1.838,0,11,11,15,1,145,cactus,yogurt,,89845,001,2022-04-29_15h12.25.974,SPAMnetsValid,2021.1.4,Win32,59.95203837,,,,,,,,,,,,,,,,,,,,,,,,,,,,,,,,,,,,,,,,,,,,,,,,,,,,,,,,,,,,,,,,,,,,,,,,,,,,,,,,,,,,,,,,,
,,7,2.528,7,2.528,0,12,12,39,1,112,cake,carrot,,89845,001,2022-04-29_15h12.25.974,SPAMnetsValid,2021.1.4,Win32,59.95203837,,,,,,,,,,,,,,,,,,,,,,,,,,,,,,,,,,,,,,,,,,,,,,,,,,,,,,,,,,,,,,,,,,,,,,,,,,,,,,,,,,,,,,,,,
,,2,2.771,2,2.771,0,13,13,75,1,178,cactus,carrot,,89845,001,2022-04-29_15h12.25.974,SPAMnetsValid,2021.1.4,Win32,59.95203837,,,,,,,,,,,,,,,,,,,,,,,,,,,,,,,,,,,,,,,,,,,,,,,,,,,,,,,,,,,,,,,,,,,,,,,,,,,,,,,,,,,,,,,,,
,,3,3.004,3,3.004,0,14,14,45,1,179,broom,oven,,89845,001,2022-04-29_15h12.25.974,SPAMnetsValid,2021.1.4,Win32,59.95203837,,,,,,,,,,,,,,,,,,,,,,,,,,,,,,,,,,,,,,,,,,,,,,,,,,,,,,,,,,,,,,,,,,,,,,,,,,,,,,,,,,,,,,,,,
,,1,4.617,1,4.617,0,15,15,31,1,156,melon,rose,,89845,001,2022-04-29_15h12.25.974,SPAMnetsValid,2021.1.4,Win32,59.95203837,,,,,,,,,,,,,,,,,,,,,,,,,,,,,,,,,,,,,,,,,,,,,,,,,,,,,,,,,,,,,,,,,,,,,,,,,,,,,,,,,,,,,,,,,
,,3,1.494,3,1.494,0,16,16,81,1,104,garden,microwave,,89845,001,2022-04-29_15h12.25.974,SPAMnetsValid,2021.1.4,Win32,59.95203837,,,,,,,,,,,,,,,,,,,,,,,,,,,,,,,,,,,,,,,,,,,,,,,,,,,,,,,,,,,,,,,,,,,,,,,,,,,,,,,,,,,,,,,,,
,,2,3.423,2,3.423,0,17,17,36,1,161,kitchen,pretzel,,89845,001,2022-04-29_15h12.25.974,SPAMnetsValid,2021.1.4,Win32,59.95203837,,,,,,,,,,,,,,,,,,,,,,,,,,,,,,,,,,,,,,,,,,,,,,,,,,,,,,,,,,,,,,,,,,,,,,,,,,,,,,,,,,,,,,,,,
,,8,2.552,8,2.552,0,18,18,7,1,188,flower,tree,,89845,001,2022-04-29_15h12.25.974,SPAMnetsValid,2021.1.4,Win32,59.95203837,,,,,,,,,,,,,,,,,,,,,,,,,,,,,,,,,,,,,,,,,,,,,,,,,,,,,,,,,,,,,,,,,,,,,,,,,,,,,,,,,,,,,,,,,
,,1,1.753,1,1.753,0,19,19,79,1,103,pretzel,tomato,,89845,001,2022-04-29_15h12.25.974,SPAMnetsValid,2021.1.4,Win32,59.95203837,,,,,,,,,,,,,,,,,,,,,,,,,,,,,,,,,,,,,,,,,,,,,,,,,,,,,,,,,,,,,,,,,,,,,,,,,,,,,,,,,,,,,,,,,
,,9,2.555,9,2.555,0,20,20,33,1,131,cactus,garden,,89845,001,2022-04-29_15h12.25.974,SPAMnetsValid,2021.1.4,Win32,59.95203837,,,,,,,,,,,,,,,,,,,,,,,,,,,,,,,,,,,,,,,,,,,,,,,,,,,,,,,,,,,,,,,,,,,,,,,,,,,,,,,,,,,,,,,,,
,,1,2.22,1,2.22,0,21,21,34,1,153,carrot,pretzel,,89845,001,2022-04-29_15h12.25.974,SPAMnetsValid,2021.1.4,Win32,59.95203837,,,,,,,,,,,,,,,,,,,,,,,,,,,,,,,,,,,,,,,,,,,,,,,,,,,,,,,,,,,,,,,,,,,,,,,,,,,,,,,,,,,,,,,,,
,,8,2.523,8,2.523,0,22,22,53,1,177,chocolate,strawberry,,89845,001,2022-04-29_15h12.25.974,SPAMnetsValid,2021.1.4,Win32,59.95203837,,,,,,,,,,,,,,,,,,,,,,,,,,,,,,,,,,,,,,,,,,,,,,,,,,,,,,,,,,,,,,,,,,,,,,,,,,,,,,,,,,,,,,,,,
,,1,5.491,1,5.491,0,23,23,41,1,175,melon,onion,,89845,001,2022-04-29_15h12.25.974,SPAMnetsValid,2021.1.4,Win32,59.95203837,,,,,,,,,,,,,,,,,,,,,,,,,,,,,,,,,,,,,,,,,,,,,,,,,,,,,,,,,,,,,,,,,,,,,,,,,,,,,,,,,,,,,,,,,
,,9,7.331,9,7.331,0,24,24,52,1,110,chocolate,cookie,,89845,001,2022-04-29_15h12.25.974,SPAMnetsValid,2021.1.4,Win32,59.95203837,,,,,,,,,,,,,,,,,,,,,,,,,,,,,,,,,,,,,,,,,,,,,,,,,,,,,,,,,,,,,,,,,,,,,,,,,,,,,,,,,,,,,,,,,
,,2,3.708,2,3.708,0,25,25,32,1,182,flower,refrigerator,,89845,001,2022-04-29_15h12.25.974,SPAMnetsValid,2021.1.4,Win32,59.95203837,,,,,,,,,,,,,,,,,,,,,,,,,,,,,,,,,,,,,,,,,,,,,,,,,,,,,,,,,,,,,,,,,,,,,,,,,,,,,,,,,,,,,,,,,
,,2,11.047,2,11.047,0,26,26,77,1,172,kitchen,melon,,89845,001,2022-04-29_15h12.25.974,SPAMnetsValid,2021.1.4,Win32,59.95203837,,,,,,,,,,,,,,,,,,,,,,,,,,,,,,,,,,,,,,,,,,,,,,,,,,,,,,,,,,,,,,,,,,,,,,,,,,,,,,,,,,,,,,,,,
,,4,5.393,4,5.393,0,27,27,72,1,181,carrot,kitchen,,89845,001,2022-04-29_15h12.25.974,SPAMnetsValid,2021.1.4,Win32,59.95203837,,,,,,,,,,,,,,,,,,,,,,,,,,,,,,,,,,,,,,,,,,,,,,,,,,,,,,,,,,,,,,,,,,,,,,,,,,,,,,,,,,,,,,,,,
,,3,3.345,3,3.345,0,28,28,26,1,107,rose,tomato,,89845,001,2022-04-29_15h12.25.974,SPAMnetsValid,2021.1.4,Win32,59.95203837,,,,,,,,,,,,,,,,,,,,,,,,,,,,,,,,,,,,,,,,,,,,,,,,,,,,,,,,,,,,,,,,,,,,,,,,,,,,,,,,,,,,,,,,,
,,1,1.933,1,1.933,0,29,29,54,1,101,cactus,kitchen,,89845,001,2022-04-29_15h12.25.974,SPAMnetsValid,2021.1.4,Win32,59.95203837,,,,,,,,,,,,,,,,,,,,,,,,,,,,,,,,,,,,,,,,,,,,,,,,,,,,,,,,,,,,,,,,,,,,,,,,,,,,,,,,,,,,,,,,,
,,7,2.205,7,2.205,0,30,30,47,1,167,carrot,garden,,89845,001,2022-04-29_15h12.25.974,SPAMnetsValid,2021.1.4,Win32,59.95203837,,,,,,,,,,,,,,,,,,,,,,,,,,,,,,,,,,,,,,,,,,,,,,,,,,,,,,,,,,,,,,,,,,,,,,,,,,,,,,,,,,,,,,,,,
,,2,3.068,2,3.068,0,31,31,88,1,171,cake,tomato,,89845,001,2022-04-29_15h12.25.974,SPAMnetsValid,2021.1.4,Win32,59.95203837,,,,,,,,,,,,,,,,,,,,,,,,,,,,,,,,,,,,,,,,,,,,,,,,,,,,,,,,,,,,,,,,,,,,,,,,,,,,,,,,,,,,,,,,,
,,2,2.225,2,2.225,0,32,32,67,1,96,oven,strawberry,,89845,001,2022-04-29_15h12.25.974,SPAMnetsValid,2021.1.4,Win32,59.95203837,,,,,,,,,,,,,,,,,,,,,,,,,,,,,,,,,,,,,,,,,,,,,,,,,,,,,,,,,,,,,,,,,,,,,,,,,,,,,,,,,,,,,,,,,
,,9,3.169,9,3.169,0,33,33,28,1,154,strawberry,yogurt,,89845,001,2022-04-29_15h12.25.974,SPAMnetsValid,2021.1.4,Win32,59.95203837,,,,,,,,,,,,,,,,,,,,,,,,,,,,,,,,,,,,,,,,,,,,,,,,,,,,,,,,,,,,,,,,,,,,,,,,,,,,,,,,,,,,,,,,,
,,9,1.634,9,1.634,0,34,34,83,1,100,garden,tomato,,89845,001,2022-04-29_15h12.25.974,SPAMnetsValid,2021.1.4,Win32,59.95203837,,,,,,,,,,,,,,,,,,,,,,,,,,,,,,,,,,,,,,,,,,,,,,,,,,,,,,,,,,,,,,,,,,,,,,,,,,,,,,,,,,,,,,,,,
,,3,1.651,3,1.651,0,35,35,6,1,151,microwave,onion,,89845,001,2022-04-29_15h12.25.974,SPAMnetsValid,2021.1.4,Win32,59.95203837,,,,,,,,,,,,,,,,,,,,,,,,,,,,,,,,,,,,,,,,,,,,,,,,,,,,,,,,,,,,,,,,,,,,,,,,,,,,,,,,,,,,,,,,,
,,2,2.081,2,2.081,0,36,36,10,1,118,chocolate,oven,,89845,001,2022-04-29_15h12.25.974,SPAMnetsValid,2021.1.4,Win32,59.95203837,,,,,,,,,,,,,,,,,,,,,,,,,,,,,,,,,,,,,,,,,,,,,,,,,,,,,,,,,,,,,,,,,,,,,,,,,,,,,,,,,,,,,,,,,
,,2,1.762,2,1.762,0,37,37,91,1,166,cake,yogurt,,89845,001,2022-04-29_15h12.25.974,SPAMnetsValid,2021.1.4,Win32,59.95203837,,,,,,,,,,,,,,,,,,,,,,,,,,,,,,,,,,,,,,,,,,,,,,,,,,,,,,,,,,,,,,,,,,,,,,,,,,,,,,,,,,,,,,,,,
,,7,3.454,7,3.454,0,38,38,22,1,142,garden,tree,,89845,001,2022-04-29_15h12.25.974,SPAMnetsValid,2021.1.4,Win32,59.95203837,,,,,,,,,,,,,,,,,,,,,,,,,,,,,,,,,,,,,,,,,,,,,,,,,,,,,,,,,,,,,,,,,,,,,,,,,,,,,,,,,,,,,,,,,
,,7,1.735,7,1.735,0,39,39,60,1,122,flower,garden,,89845,001,2022-04-29_15h12.25.974,SPAMnetsValid,2021.1.4,Win32,59.95203837,,,,,,,,,,,,,,,,,,,,,,,,,,,,,,,,,,,,,,,,,,,,,,,,,,,,,,,,,,,,,,,,,,,,,,,,,,,,,,,,,,,,,,,,,
,,2,4.537,2,4.537,0,40,40,49,1,152,cactus,strawberry,,89845,001,2022-04-29_15h12.25.974,SPAMnetsValid,2021.1.4,Win32,59.95203837,,,,,,,,,,,,,,,,,,,,,,,,,,,,,,,,,,,,,,,,,,,,,,,,,,,,,,,,,,,,,,,,,,,,,,,,,,,,,,,,,,,,,,,,,
,,2,3.64,2,3.64,0,41,41,19,1,183,cake,rose,,89845,001,2022-04-29_15h12.25.974,SPAMnetsValid,2021.1.4,Win32,59.95203837,,,,,,,,,,,,,,,,,,,,,,,,,,,,,,,,,,,,,,,,,,,,,,,,,,,,,,,,,,,,,,,,,,,,,,,,,,,,,,,,,,,,,,,,,
,,7,1.401,7,1.401,0,42,42,65,1,160,cookie,kitchen,,89845,001,2022-04-29_15h12.25.974,SPAMnetsValid,2021.1.4,Win32,59.95203837,,,,,,,,,,,,,,,,,,,,,,,,,,,,,,,,,,,,,,,,,,,,,,,,,,,,,,,,,,,,,,,,,,,,,,,,,,,,,,,,,,,,,,,,,
,,3,3.529,3,3.529,0,43,43,59,1,164,cookie,garden,,89845,001,2022-04-29_15h12.25.974,SPAMnetsValid,2021.1.4,Win32,59.95203837,,,,,,,,,,,,,,,,,,,,,,,,,,,,,,,,,,,,,,,,,,,,,,,,,,,,,,,,,,,,,,,,,,,,,,,,,,,,,,,,,,,,,,,,,
,,9,2.103,9,2.103,0,44,44,25,1,194,cactus,cactus,CHECK,89845,001,2022-04-29_15h12.25.974,SPAMnetsValid,2021.1.4,Win32,59.95203837,,,,,,,,,,,,,,,,,,,,,,,,,,,,,,,,,,,,,,,,,,,,,,,,,,,,,,,,,,,,,,,,,,,,,,,,,,,,,,,,,,,,,,,,,
,,7,1.737,7,1.737,0,45,45,37,1,139,carrot,strawberry,,89845,001,2022-04-29_15h12.25.974,SPAMnetsValid,2021.1.4,Win32,59.95203837,,,,,,,,,,,,,,,,,,,,,,,,,,,,,,,,,,,,,,,,,,,,,,,,,,,,,,,,,,,,,,,,,,,,,,,,,,,,,,,,,,,,,,,,,
,,2,1.819,2,1.819,0,46,46,46,1,123,cookie,tree,,89845,001,2022-04-29_15h12.25.974,SPAMnetsValid,2021.1.4,Win32,59.95203837,,,,,,,,,,,,,,,,,,,,,,,,,,,,,,,,,,,,,,,,,,,,,,,,,,,,,,,,,,,,,,,,,,,,,,,,,,,,,,,,,,,,,,,,,
,,1,1.695,1,1.695,0,47,47,20,1,149,broom,tomato,,89845,001,2022-04-29_15h12.25.974,SPAMnetsValid,2021.1.4,Win32,59.95203837,,,,,,,,,,,,,,,,,,,,,,,,,,,,,,,,,,,,,,,,,,,,,,,,,,,,,,,,,,,,,,,,,,,,,,,,,,,,,,,,,,,,,,,,,
,,2,1.471,2,1.471,0,48,48,13,1,105,cactus,oven,,89845,001,2022-04-29_15h12.25.974,SPAMnetsValid,2021.1.4,Win32,59.95203837,,,,,,,,,,,,,,,,,,,,,,,,,,,,,,,,,,,,,,,,,,,,,,,,,,,,,,,,,,,,,,,,,,,,,,,,,,,,,,,,,,,,,,,,,
,,3,1.984,3,1.984,0,49,49,56,1,113,refrigerator,strawberry,,89845,001,2022-04-29_15h12.25.974,SPAMnetsValid,2021.1.4,Win32,59.95203837,,,,,,,,,,,,,,,,,,,,,,,,,,,,,,,,,,,,,,,,,,,,,,,,,,,,,,,,,,,,,,,,,,,,,,,,,,,,,,,,,,,,,,,,,
,,3,1.453,3,1.453,0,50,50,76,1,102,chocolate,refrigerator,,89845,001,2022-04-29_15h12.25.974,SPAMnetsValid,2021.1.4,Win32,59.95203837,,,,,,,,,,,,,,,,,,,,,,,,,,,,,,,,,,,,,,,,,,,,,,,,,,,,,,,,,,,,,,,,,,,,,,,,,,,,,,,,,,,,,,,,,
,,2,1.764,2,1.764,0,51,51,55,1,143,pretzel,rose,,89845,001,2022-04-29_15h12.25.974,SPAMnetsValid,2021.1.4,Win32,59.95203837,,,,,,,,,,,,,,,,,,,,,,,,,,,,,,,,,,,,,,,,,,,,,,,,,,,,,,,,,,,,,,,,,,,,,,,,,,,,,,,,,,,,,,,,,
,,4,3.377,4,3.377,0,52,52,8,1,97,chocolate,kitchen,,89845,001,2022-04-29_15h12.25.974,SPAMnetsValid,2021.1.4,Win32,59.95203837,,,,,,,,,,,,,,,,,,,,,,,,,,,,,,,,,,,,,,,,,,,,,,,,,,,,,,,,,,,,,,,,,,,,,,,,,,,,,,,,,,,,,,,,,
,,4,2.596,4,2.596,0,53,53,35,1,147,cake,refrigerator,,89845,001,2022-04-29_15h12.25.974,SPAMnetsValid,2021.1.4,Win32,59.95203837,,,,,,,,,,,,,,,,,,,,,,,,,,,,,,,,,,,,,,,,,,,,,,,,,,,,,,,,,,,,,,,,,,,,,,,,,,,,,,,,,,,,,,,,,
,,3,1.462,3,1.462,0,54,54,16,1,111,carrot,microwave,,89845,001,2022-04-29_15h12.25.974,SPAMnetsValid,2021.1.4,Win32,59.95203837,,,,,,,,,,,,,,,,,,,,,,,,,,,,,,,,,,,,,,,,,,,,,,,,,,,,,,,,,,,,,,,,,,,,,,,,,,,,,,,,,,,,,,,,,
,,2,1.623,2,1.623,0,55,55,9,1,176,cactus,tomato,,89845,001,2022-04-29_15h12.25.974,SPAMnetsValid,2021.1.4,Win32,59.95203837,,,,,,,,,,,,,,,,,,,,,,,,,,,,,,,,,,,,,,,,,,,,,,,,,,,,,,,,,,,,,,,,,,,,,,,,,,,,,,,,,,,,,,,,,
,,2,1.455,2,1.455,0,56,56,80,1,146,pretzel,tree,,89845,001,2022-04-29_15h12.25.974,SPAMnetsValid,2021.1.4,Win32,59.95203837,,,,,,,,,,,,,,,,,,,,,,,,,,,,,,,,,,,,,,,,,,,,,,,,,,,,,,,,,,,,,,,,,,,,,,,,,,,,,,,,,,,,,,,,,
,,2,1.575,2,1.575,0,57,57,90,1,190,microwave,strawberry,,89845,001,2022-04-29_15h12.25.974,SPAMnetsValid,2021.1.4,Win32,59.95203837,,,,,,,,,,,,,,,,,,,,,,,,,,,,,,,,,,,,,,,,,,,,,,,,,,,,,,,,,,,,,,,,,,,,,,,,,,,,,,,,,,,,,,,,,
,,3,2.682,3,2.682,0,58,58,95,1,121,broom,microwave,,89845,001,2022-04-29_15h12.25.974,SPAMnetsValid,2021.1.4,Win32,59.95203837,,,,,,,,,,,,,,,,,,,,,,,,,,,,,,,,,,,,,,,,,,,,,,,,,,,,,,,,,,,,,,,,,,,,,,,,,,,,,,,,,,,,,,,,,
,,1,2.296,1,2.296,0,59,59,50,1,126,kitchen,tree,,89845,001,2022-04-29_15h12.25.974,SPAMnetsValid,2021.1.4,Win32,59.95203837,,,,,,,,,,,,,,,,,,,,,,,,,,,,,,,,,,,,,,,,,,,,,,,,,,,,,,,,,,,,,,,,,,,,,,,,,,,,,,,,,,,,,,,,,
,,2,1.592,2,1.592,0,60,60,40,1,165,onion,rose,,89845,001,2022-04-29_15h12.25.974,SPAMnetsValid,2021.1.4,Win32,59.95203837,,,,,,,,,,,,,,,,,,,,,,,,,,,,,,,,,,,,,,,,,,,,,,,,,,,,,,,,,,,,,,,,,,,,,,,,,,,,,,,,,,,,,,,,,
,,2,2.163,2,2.163,0,61,61,64,1,157,refrigerator,rose,,89845,001,2022-04-29_15h12.25.974,SPAMnetsValid,2021.1.4,Win32,59.95203837,,,,,,,,,,,,,,,,,,,,,,,,,,,,,,,,,,,,,,,,,,,,,,,,,,,,,,,,,,,,,,,,,,,,,,,,,,,,,,,,,,,,,,,,,
,,4,2.087,4,2.087,0,62,62,1,1,173,kitchen,tomato,,89845,001,2022-04-29_15h12.25.974,SPAMnetsValid,2021.1.4,Win32,59.95203837,,,,,,,,,,,,,,,,,,,,,,,,,,,,,,,,,,,,,,,,,,,,,,,,,,,,,,,,,,,,,,,,,,,,,,,,,,,,,,,,,,,,,,,,,
,,2,2.035,2,2.035,0,63,63,84,1,130,microwave,yogurt,,89845,001,2022-04-29_15h12.25.974,SPAMnetsValid,2021.1.4,Win32,59.95203837,,,,,,,,,,,,,,,,,,,,,,,,,,,,,,,,,,,,,,,,,,,,,,,,,,,,,,,,,,,,,,,,,,,,,,,,,,,,,,,,,,,,,,,,,
,,9,2.94,9,2.94,0,64,64,44,1,116,cake,chocolate,,89845,001,2022-04-29_15h12.25.974,SPAMnetsValid,2021.1.4,Win32,59.95203837,,,,,,,,,,,,,,,,,,,,,,,,,,,,,,,,,,,,,,,,,,,,,,,,,,,,,,,,,,,,,,,,,,,,,,,,,,,,,,,,,,,,,,,,,
,,9,1.455,9,1.455,0,65,65,86,1,193,melon,melon,CHECK,89845,001,2022-04-29_15h12.25.974,SPAMnetsValid,2021.1.4,Win32,59.95203837,,,,,,,,,,,,,,,,,,,,,,,,,,,,,,,,,,,,,,,,,,,,,,,,,,,,,,,,,,,,,,,,,,,,,,,,,,,,,,,,,,,,,,,,,
,,2,2.522,2,2.522,0,66,66,74,1,128,melon,microwave,,89845,001,2022-04-29_15h12.25.974,SPAMnetsValid,2021.1.4,Win32,59.95203837,,,,,,,,,,,,,,,,,,,,,,,,,,,,,,,,,,,,,,,,,,,,,,,,,,,,,,,,,,,,,,,,,,,,,,,,,,,,,,,,,,,,,,,,,
,,3,2.692,3,2.692,0,67,67,82,1,98,pretzel,strawberry,,89845,001,2022-04-29_15h12.25.974,SPAMnetsValid,2021.1.4,Win32,59.95203837,,,,,,,,,,,,,,,,,,,,,,,,,,,,,,,,,,,,,,,,,,,,,,,,,,,,,,,,,,,,,,,,,,,,,,,,,,,,,,,,,,,,,,,,,
,,7,5.812,7,5.812,0,68,68,61,1,138,flower,rose,,89845,001,2022-04-29_15h12.25.974,SPAMnetsValid,2021.1.4,Win32,59.95203837,,,,,,,,,,,,,,,,,,,,,,,,,,,,,,,,,,,,,,,,,,,,,,,,,,,,,,,,,,,,,,,,,,,,,,,,,,,,,,,,,,,,,,,,,
,,8,4.147,8,4.147,0,69,69,17,1,99,garden,melon,,89845,001,2022-04-29_15h12.25.974,SPAMnetsValid,2021.1.4,Win32,59.95203837,,,,,,,,,,,,,,,,,,,,,,,,,,,,,,,,,,,,,,,,,,,,,,,,,,,,,,,,,,,,,,,,,,,,,,,,,,,,,,,,,,,,,,,,,
,,8,1.846,8,1.846,0,70,70,66,1,150,microwave,refrigerator,,89845,001,2022-04-29_15h12.25.974,SPAMnetsValid,2021.1.4,Win32,59.95203837,,,,,,,,,,,,,,,,,,,,,,,,,,,,,,,,,,,,,,,,,,,,,,,,,,,,,,,,,,,,,,,,,,,,,,,,,,,,,,,,,,,,,,,,,
,,6,14.199,6,14.199,0,71,71,14,1,120,microwave,oven,,89845,001,2022-04-29_15h12.25.974,SPAMnetsValid,2021.1.4,Win32,59.95203837,,,,,,,,,,,,,,,,,,,,,,,,,,,,,,,,,,,,,,,,,,,,,,,,,,,,,,,,,,,,,,,,,,,,,,,,,,,,,,,,,,,,,,,,,
,,2,2.523,2,2.523,0,72,72,68,1,180,tree,yogurt,,89845,001,2022-04-29_15h12.25.974,SPAMnetsValid,2021.1.4,Win32,59.95203837,,,,,,,,,,,,,,,,,,,,,,,,,,,,,,,,,,,,,,,,,,,,,,,,,,,,,,,,,,,,,,,,,,,,,,,,,,,,,,,,,,,,,,,,,
,,2,1.625,2,1.625,0,73,73,71,1,187,cactus,microwave,,89845,001,2022-04-29_15h12.25.974,SPAMnetsValid,2021.1.4,Win32,59.95203837,,,,,,,,,,,,,,,,,,,,,,,,,,,,,,,,,,,,,,,,,,,,,,,,,,,,,,,,,,,,,,,,,,,,,,,,,,,,,,,,,,,,,,,,,
,,2,1.766,2,1.766,0,74,74,62,1,189,onion,tree,,89845,001,2022-04-29_15h12.25.974,SPAMnetsValid,2021.1.4,Win32,59.95203837,,,,,,,,,,,,,,,,,,,,,,,,,,,,,,,,,,,,,,,,,,,,,,,,,,,,,,,,,,,,,,,,,,,,,,,,,,,,,,,,,,,,,,,,,
,,4,3.967,4,3.967,0,75,75,24,1,169,onion,yogurt,,89845,001,2022-04-29_15h12.25.974,SPAMnetsValid,2021.1.4,Win32,59.95203837,,,,,,,,,,,,,,,,,,,,,,,,,,,,,,,,,,,,,,,,,,,,,,,,,,,,,,,,,,,,,,,,,,,,,,,,,,,,,,,,,,,,,,,,,
,,3,2.223,3,2.223,0,76,76,94,1,133,cake,flower,,89845,001,2022-04-29_15h12.25.974,SPAMnetsValid,2021.1.4,Win32,59.95203837,,,,,,,,,,,,,,,,,,,,,,,,,,,,,,,,,,,,,,,,,,,,,,,,,,,,,,,,,,,,,,,,,,,,,,,,,,,,,,,,,,,,,,,,,
,,6,3.172,6,3.172,0,77,77,92,1,170,cookie,microwave,,89845,001,2022-04-29_15h12.25.974,SPAMnetsValid,2021.1.4,Win32,59.95203837,,,,,,,,,,,,,,,,,,,,,,,,,,,,,,,,,,,,,,,,,,,,,,,,,,,,,,,,,,,,,,,,,,,,,,,,,,,,,,,,,,,,,,,,,
,,6,1.4,6,1.4,0,78,78,89,1,140,cookie,refrigerator,,89845,001,2022-04-29_15h12.25.974,SPAMnetsValid,2021.1.4,Win32,59.95203837,,,,,,,,,,,,,,,,,,,,,,,,,,,,,,,,,,,,,,,,,,,,,,,,,,,,,,,,,,,,,,,,,,,,,,,,,,,,,,,,,,,,,,,,,
,,6,1.601,6,1.601,0,79,79,23,1,148,flower,melon,,89845,001,2022-04-29_15h12.25.974,SPAMnetsValid,2021.1.4,Win32,59.95203837,,,,,,,,,,,,,,,,,,,,,,,,,,,,,,,,,,,,,,,,,,,,,,,,,,,,,,,,,,,,,,,,,,,,,,,,,,,,,,,,,,,,,,,,,
,,6,1.017,6,1.017,0,80,80,21,1,159,cookie,flower,,89845,001,2022-04-29_15h12.25.974,SPAMnetsValid,2021.1.4,Win32,59.95203837,,,,,,,,,,,,,,,,,,,,,,,,,,,,,,,,,,,,,,,,,,,,,,,,,,,,,,,,,,,,,,,,,,,,,,,,,,,,,,,,,,,,,,,,,
,,3,1.917,3,1.917,0,81,81,43,1,185,cactus,rose,,89845,001,2022-04-29_15h12.25.974,SPAMnetsValid,2021.1.4,Win32,59.95203837,,,,,,,,,,,,,,,,,,,,,,,,,,,,,,,,,,,,,,,,,,,,,,,,,,,,,,,,,,,,,,,,,,,,,,,,,,,,,,,,,,,,,,,,,
,,3,2.132,3,2.132,0,82,82,18,1,119,strawberry,tree,,89845,001,2022-04-29_15h12.25.974,SPAMnetsValid,2021.1.4,Win32,59.95203837,,,,,,,,,,,,,,,,,,,,,,,,,,,,,,,,,,,,,,,,,,,,,,,,,,,,,,,,,,,,,,,,,,,,,,,,,,,,,,,,,,,,,,,,,
,,3,1.75,3,1.75,0,83,83,58,1,144,cake,garden,,89845,001,2022-04-29_15h12.25.974,SPAMnetsValid,2021.1.4,Win32,59.95203837,,,,,,,,,,,,,,,,,,,,,,,,,,,,,,,,,,,,,,,,,,,,,,,,,,,,,,,,,,,,,,,,,,,,,,,,,,,,,,,,,,,,,,,,,
,,3,1.41,3,1.41,0,84,84,29,1,163,melon,refrigerator,,89845,001,2022-04-29_15h12.25.974,SPAMnetsValid,2021.1.4,Win32,59.95203837,,,,,,,,,,,,,,,,,,,,,,,,,,,,,,,,,,,,,,,,,,,,,,,,,,,,,,,,,,,,,,,,,,,,,,,,,,,,,,,,,,,,,,,,,
,,4,2.111,4,2.111,0,85,85,2,1,174,cake,pretzel,,89845,001,2022-04-29_15h12.25.974,SPAMnetsValid,2021.1.4,Win32,59.95203837,,,,,,,,,,,,,,,,,,,,,,,,,,,,,,,,,,,,,,,,,,,,,,,,,,,,,,,,,,,,,,,,,,,,,,,,,,,,,,,,,,,,,,,,,
,,6,3.137,6,3.137,0,86,86,38,1,155,carrot,cookie,,89845,001,2022-04-29_15h12.25.974,SPAMnetsValid,2021.1.4,Win32,59.95203837,,,,,,,,,,,,,,,,,,,,,,,,,,,,,,,,,,,,,,,,,,,,,,,,,,,,,,,,,,,,,,,,,,,,,,,,,,,,,,,,,,,,,,,,,
,,8,3.15,8,3.15,0,87,87,11,1,117,melon,strawberry,,89845,001,2022-04-29_15h12.25.974,SPAMnetsValid,2021.1.4,Win32,59.95203837,,,,,,,,,,,,,,,,,,,,,,,,,,,,,,,,,,,,,,,,,,,,,,,,,,,,,,,,,,,,,,,,,,,,,,,,,,,,,,,,,,,,,,,,,
,,3,6.078,3,6.078,0,88,88,30,1,125,carrot,tree,,89845,001,2022-04-29_15h12.25.974,SPAMnetsValid,2021.1.4,Win32,59.95203837,,,,,,,,,,,,,,,,,,,,,,,,,,,,,,,,,,,,,,,,,,,,,,,,,,,,,,,,,,,,,,,,,,,,,,,,,,,,,,,,,,,,,,,,,
,,3,9.083,3,9.083,0,89,89,48,1,186,kitchen,yogurt,,89845,001,2022-04-29_15h12.25.974,SPAMnetsValid,2021.1.4,Win32,59.95203837,,,,,,,,,,,,,,,,,,,,,,,,,,,,,,,,,,,,,,,,,,,,,,,,,,,,,,,,,,,,,,,,,,,,,,,,,,,,,,,,,,,,,,,,,
,,7,8.869,7,8.869,0,90,90,51,1,168,cactus,flower,,89845,001,2022-04-29_15h12.25.974,SPAMnetsValid,2021.1.4,Win32,59.95203837,,,,,,,,,,,,,,,,,,,,,,,,,,,,,,,,,,,,,,,,,,,,,,,,,,,,,,,,,,,,,,,,,,,,,,,,,,,,,,,,,,,,,,,,,
,,1,1.818,1,1.818,0,91,91,4,1,109,broom,strawberry,,89845,001,2022-04-29_15h12.25.974,SPAMnetsValid,2021.1.4,Win32,59.95203837,,,,,,,,,,,,,,,,,,,,,,,,,,,,,,,,,,,,,,,,,,,,,,,,,,,,,,,,,,,,,,,,,,,,,,,,,,,,,,,,,,,,,,,,,
,,9,2.885,9,2.885,0,92,92,0,1,106,cake,strawberry,,89845,001,2022-04-29_15h12.25.974,SPAMnetsValid,2021.1.4,Win32,59.95203837,,,,,,,,,,,,,,,,,,,,,,,,,,,,,,,,,,,,,,,,,,,,,,,,,,,,,,,,,,,,,,,,,,,,,,,,,,,,,,,,,,,,,,,,,
,,6,2.303,6,2.303,0,93,93,5,1,108,carrot,chocolate,,89845,001,2022-04-29_15h12.25.974,SPAMnetsValid,2021.1.4,Win32,59.95203837,,,,,,,,,,,,,,,,,,,,,,,,,,,,,,,,,,,,,,,,,,,,,,,,,,,,,,,,,,,,,,,,,,,,,,,,,,,,,,,,,,,,,,,,,
,,3,2.024,3,2.024,0,94,94,42,1,184,oven,pretzel,,89845,001,2022-04-29_15h12.25.974,SPAMnetsValid,2021.1.4,Win32,59.95203837,,,,,,,,,,,,,,,,,,,,,,,,,,,,,,,,,,,,,,,,,,,,,,,,,,,,,,,,,,,,,,,,,,,,,,,,,,,,,,,,,,,,,,,,,
,,3,3.149,3,3.149,0,95,95,78,1,132,broom,tree,,89845,001,2022-04-29_15h12.25.974,SPAMnetsValid,2021.1.4,Win32,59.95203837,,,,,,,,,,,,,,,,,,,,,,,,,,,,,,,,,,,,,,,,,,,,,,,,,,,,,,,,,,,,,,,,,,,,,,,,,,,,,,,,,,,,,,,,,
,,6,1.583,6,1.583,0,96,96,96,1,136,chocolate,microwave,,89845,001,2022-04-29_15h12.25.974,SPAMnetsValid,2021.1.4,Win32,59.95203837,,,,,,,,,,,,,,,,,,,,,,,,,,,,,,,,,,,,,,,,,,,,,,,,,,,,,,,,,,,,,,,,,,,,,,,,,,,,,,,,,,,,,,,,,
,,,,,,,,,,,,,,,89845,001,2022-04-29_15h12.25.974,SPAMnetsValid,2021.1.4,Win32,59.95203837,0,0,0,0,1,,,,,,,,,,,,,,,,,,,,,,,,,,,,,,,,,,,,,,,,,,,,,,,,,,,,,,,,,,,,,,,,,,,,,,,,,,,,,,,,,,,,
,,,,,,,,,,,,,,,89845,001,2022-04-29_15h12.25.974,SPAMnetsValid,2021.1.4,Win32,59.95203837,,,,,,0,0,0,1,1,0,1,,,,,,,,,,,,,,,,,,,,,,,,,,,,,,,,,,,,,,,,,,,,,,,,,,,,,,,,,,,,,,,,,,,,,,,,,,,,,
,,,,2,4.808,,,,,,58,garden,oven,,89845,001,2022-04-29_15h12.25.974,SPAMnetsValid,2021.1.4,Win32,59.95203837,,,,,,,,,,,,,2,4.808,0,0,0,37,1,,,,,,,,,,,,,,,,,,,,,,,,,,,,,,,,,,,,,,,,,,,,,,,,,,,,,,,,,,,,,,,,,,,,,,
,,,,2,1.783,,,,,,24,cookie,tomato,,89845,001,2022-04-29_15h12.25.974,SPAMnetsValid,2021.1.4,Win32,59.95203837,,,,,,,,,,,,,2,1.783,0,1,1,68,1,,,,,,,,,,,,,,,,,,,,,,,,,,,,,,,,,,,,,,,,,,,,,,,,,,,,,,,,,,,,,,,,,,,,,,
,,,,2,1.268,,,,,,37,garden,refrigerator,,89845,001,2022-04-29_15h12.25.974,SPAMnetsValid,2021.1.4,Win32,59.95203837,,,,,,,,,,,,,2,1.268,0,2,2,11,1,,,,,,,,,,,,,,,,,,,,,,,,,,,,,,,,,,,,,,,,,,,,,,,,,,,,,,,,,,,,,,,,,,,,,,
,,,,2,1.427,,,,,,70,chocolate,onion,,89845,001,2022-04-29_15h12.25.974,SPAMnetsValid,2021.1.4,Win32,59.95203837,,,,,,,,,,,,,2,1.427,0,3,3,74,1,,,,,,,,,,,,,,,,,,,,,,,,,,,,,,,,,,,,,,,,,,,,,,,,,,,,,,,,,,,,,,,,,,,,,,
,,,,6,3.102,,,,,,42,garden,kitchen,,89845,001,2022-04-29_15h12.25.974,SPAMnetsValid,2021.1.4,Win32,59.95203837,,,,,,,,,,,,,6,3.102,0,4,4,29,1,,,,,,,,,,,,,,,,,,,,,,,,,,,,,,,,,,,,,,,,,,,,,,,,,,,,,,,,,,,,,,,,,,,,,,
,,,,7,1.751,,,,,,9,kitchen,refrigerator,,89845,001,2022-04-29_15h12.25.974,SPAMnetsValid,2021.1.4,Win32,59.95203837,,,,,,,,,,,,,7,1.751,0,5,5,64,1,,,,,,,,,,,,,,,,,,,,,,,,,,,,,,,,,,,,,,,,,,,,,,,,,,,,,,,,,,,,,,,,,,,,,,
,,,,1,2.148,,,,,,8,broom,melon,,89845,001,2022-04-29_15h12.25.974,SPAMnetsValid,2021.1.4,Win32,59.95203837,,,,,,,,,,,,,1,2.148,0,6,6,59,1,,,,,,,,,,,,,,,,,,,,,,,,,,,,,,,,,,,,,,,,,,,,,,,,,,,,,,,,,,,,,,,,,,,,,,
,,,,1,18.163,,,,,,27,cactus,cookie,,89845,001,2022-04-29_15h12.25.974,SPAMnetsValid,2021.1.4,Win32,59.95203837,,,,,,,,,,,,,1,18.163,0,7,7,17,1,,,,,,,,,,,,,,,,,,,,,,,,,,,,,,,,,,,,,,,,,,,,,,,,,,,,,,,,,,,,,,,,,,,,,,
,,,,7,1.738,,,,,,32,cake,microwave,,89845,001,2022-04-29_15h12.25.974,SPAMnetsValid,2021.1.4,Win32,59.95203837,,,,,,,,,,,,,7,1.738,0,8,8,33,1,,,,,,,,,,,,,,,,,,,,,,,,,,,,,,,,,,,,,,,,,,,,,,,,,,,,,,,,,,,,,,,,,,,,,,
,,,,1,1.619,,,,,,14,broom,cookie,,89845,001,2022-04-29_15h12.25.974,SPAMnetsValid,2021.1.4,Win32,59.95203837,,,,,,,,,,,,,1,1.619,0,9,9,16,1,,,,,,,,,,,,,,,,,,,,,,,,,,,,,,,,,,,,,,,,,,,,,,,,,,,,,,,,,,,,,,,,,,,,,,
,,,,3,1.557,,,,,,50,carrot,rose,,89845,001,2022-04-29_15h12.25.974,SPAMnetsValid,2021.1.4,Win32,59.95203837,,,,,,,,,,,,,3,1.557,0,10,10,73,1,,,,,,,,,,,,,,,,,,,,,,,,,,,,,,,,,,,,,,,,,,,,,,,,,,,,,,,,,,,,,,,,,,,,,,
,,,,3,4.956,,,,,,34,melon,oven,,89845,001,2022-04-29_15h12.25.974,SPAMnetsValid,2021.1.4,Win32,59.95203837,,,,,,,,,,,,,3,4.956,0,11,11,7,1,,,,,,,,,,,,,,,,,,,,,,,,,,,,,,,,,,,,,,,,,,,,,,,,,,,,,,,,,,,,,,,,,,,,,,
,,,,2,2.272,,,,,,61,strawberry,tomato,,89845,001,2022-04-29_15h12.25.974,SPAMnetsValid,2021.1.4,Win32,59.95203837,,,,,,,,,,,,,2,2.272,0,12,12,80,1,,,,,,,,,,,,,,,,,,,,,,,,,,,,,,,,,,,,,,,,,,,,,,,,,,,,,,,,,,,,,,,,,,,,,,
,,,,9,1.819,,,,,,192,microwave,microwave,CHECK,89845,001,2022-04-29_15h12.25.974,SPAMnetsValid,2021.1.4,Win32,59.95203837,,,,,,,,,,,,,9,1.819,0,13,13,53,1,,,,,,,,,,,,,,,,,,,,,,,,,,,,,,,,,,,,,,,,,,,,,,,,,,,,,,,,,,,,,,,,,,,,,,
,,,,2,1.93,,,,,,31,cactus,pretzel,,89845,001,2022-04-29_15h12.25.974,SPAMnetsValid,2021.1.4,Win32,59.95203837,,,,,,,,,,,,,2,1.93,0,14,14,1,1,,,,,,,,,,,,,,,,,,,,,,,,,,,,,,,,,,,,,,,,,,,,,,,,,,,,,,,,,,,,,,,,,,,,,,
,,,,5,2.419,,,,,,25,carrot,onion,,89845,001,2022-04-29_15h12.25.974,SPAMnetsValid,2021.1.4,Win32,59.95203837,,,,,,,,,,,,,5,2.419,0,15,15,44,1,,,,,,,,,,,,,,,,,,,,,,,,,,,,,,,,,,,,,,,,,,,,,,,,,,,,,,,,,,,,,,,,,,,,,,
,,,,8,2.466,,,,,,54,chocolate,yogurt,,89845,001,2022-04-29_15h12.25.974,SPAMnetsValid,2021.1.4,Win32,59.95203837,,,,,,,,,,,,,8,2.466,0,16,16,67,1,,,,,,,,,,,,,,,,,,,,,,,,,,,,,,,,,,,,,,,,,,,,,,,,,,,,,,,,,,,,,,,,,,,,,,
,,,,4,1.283,,,,,,67,flower,yogurt,,89845,001,2022-04-29_15h12.25.974,SPAMnetsValid,2021.1.4,Win32,59.95203837,,,,,,,,,,,,,4,1.283,0,17,17,12,1,,,,,,,,,,,,,,,,,,,,,,,,,,,,,,,,,,,,,,,,,,,,,,,,,,,,,,,,,,,,,,,,,,,,,,
,,,,1,1.621,,,,,,92,broom,flower,,89845,001,2022-04-29_15h12.25.974,SPAMnetsValid,2021.1.4,Win32,59.95203837,,,,,,,,,,,,,1,1.621,0,18,18,88,1,,,,,,,,,,,,,,,,,,,,,,,,,,,,,,,,,,,,,,,,,,,,,,,,,,,,,,,,,,,,,,,,,,,,,,
,,,,1,2.003,,,,,,13,broom,yogurt,,89845,001,2022-04-29_15h12.25.974,SPAMnetsValid,2021.1.4,Win32,59.95203837,,,,,,,,,,,,,1,2.003,0,19,19,5,1,,,,,,,,,,,,,,,,,,,,,,,,,,,,,,,,,,,,,,,,,,,,,,,,,,,,,,,,,,,,,,,,,,,,,,
,,,,4,1.653,,,,,,68,flower,tomato,,89845,001,2022-04-29_15h12.25.974,SPAMnetsValid,2021.1.4,Win32,59.95203837,,,,,,,,,,,,,4,1.653,0,20,20,94,1,,,,,,,,,,,,,,,,,,,,,,,,,,,,,,,,,,,,,,,,,,,,,,,,,,,,,,,,,,,,,,,,,,,,,,
,,,,7,2.474,,,,,,22,kitchen,strawberry,,89845,001,2022-04-29_15h12.25.974,SPAMnetsValid,2021.1.4,Win32,59.95203837,,,,,,,,,,,,,7,2.474,0,21,21,2,1,,,,,,,,,,,,,,,,,,,,,,,,,,,,,,,,,,,,,,,,,,,,,,,,,,,,,,,,,,,,,,,,,,,,,,
,,,,4,2.269,,,,,,44,cookie,melon,,89845,001,2022-04-29_15h12.25.974,SPAMnetsValid,2021.1.4,Win32,59.95203837,,,,,,,,,,,,,4,2.269,0,22,22,92,1,,,,,,,,,,,,,,,,,,,,,,,,,,,,,,,,,,,,,,,,,,,,,,,,,,,,,,,,,,,,,,,,,,,,,,
,,,,3,1.837,,,,,,80,chocolate,tree,,89845,001,2022-04-29_15h12.25.974,SPAMnetsValid,2021.1.4,Win32,59.95203837,,,,,,,,,,,,,3,1.837,0,23,23,89,1,,,,,,,,,,,,,,,,,,,,,,,,,,,,,,,,,,,,,,,,,,,,,,,,,,,,,,,,,,,,,,,,,,,,,,
,,,,3,1.667,,,,,,4,chocolate,pretzel,,89845,001,2022-04-29_15h12.25.974,SPAMnetsValid,2021.1.4,Win32,59.95203837,,,,,,,,,,,,,3,1.667,0,24,24,52,1,,,,,,,,,,,,,,,,,,,,,,,,,,,,,,,,,,,,,,,,,,,,,,,,,,,,,,,,,,,,,,,,,,,,,,
,,,,1,1.831,,,,,,83,broom,carrot,,89845,001,2022-04-29_15h12.25.974,SPAMnetsValid,2021.1.4,Win32,59.95203837,,,,,,,,,,,,,1,1.831,0,25,25,4,1,,,,,,,,,,,,,,,,,,,,,,,,,,,,,,,,,,,,,,,,,,,,,,,,,,,,,,,,,,,,,,,,,,,,,,
,,,,2,2.793,,,,,,35,flower,pretzel,,89845,001,2022-04-29_15h12.25.974,SPAMnetsValid,2021.1.4,Win32,59.95203837,,,,,,,,,,,,,2,2.793,0,26,26,26,1,,,,,,,,,,,,,,,,,,,,,,,,,,,,,,,,,,,,,,,,,,,,,,,,,,,,,,,,,,,,,,,,,,,,,,
,,,,5,3.441,,,,,,55,tomato,tree,,89845,001,2022-04-29_15h12.25.974,SPAMnetsValid,2021.1.4,Win32,59.95203837,,,,,,,,,,,,,5,3.441,0,27,27,35,1,,,,,,,,,,,,,,,,,,,,,,,,,,,,,,,,,,,,,,,,,,,,,,,,,,,,,,,,,,,,,,,,,,,,,,
,,,,4,2.534,,,,,,73,broom,chocolate,,89845,001,2022-04-29_15h12.25.974,SPAMnetsValid,2021.1.4,Win32,59.95203837,,,,,,,,,,,,,4,2.534,0,28,28,47,1,,,,,,,,,,,,,,,,,,,,,,,,,,,,,,,,,,,,,,,,,,,,,,,,,,,,,,,,,,,,,,,,,,,,,,
,,,,4,2.234,,,,,,1,rose,yogurt,,89845,001,2022-04-29_15h12.25.974,SPAMnetsValid,2021.1.4,Win32,59.95203837,,,,,,,,,,,,,4,2.234,0,29,29,55,1,,,,,,,,,,,,,,,,,,,,,,,,,,,,,,,,,,,,,,,,,,,,,,,,,,,,,,,,,,,,,,,,,,,,,,
,,,,7,2.286,,,,,,69,carrot,refrigerator,,89845,001,2022-04-29_15h12.25.974,SPAMnetsValid,2021.1.4,Win32,59.95203837,,,,,,,,,,,,,7,2.286,0,30,30,75,1,,,,,,,,,,,,,,,,,,,,,,,,,,,,,,,,,,,,,,,,,,,,,,,,,,,,,,,,,,,,,,,,,,,,,,
,,,,7,1.615,,,,,,52,carrot,tomato,,89845,001,2022-04-29_15h12.25.974,SPAMnetsValid,2021.1.4,Win32,59.95203837,,,,,,,,,,,,,7,1.615,0,31,31,95,1,,,,,,,,,,,,,,,,,,,,,,,,,,,,,,,,,,,,,,,,,,,,,,,,,,,,,,,,,,,,,,,,,,,,,,
,,,,3,2.766,,,,,,21,cake,onion,,89845,001,2022-04-29_15h12.25.974,SPAMnetsValid,2021.1.4,Win32,59.95203837,,,,,,,,,,,,,3,2.766,0,32,32,63,1,,,,,,,,,,,,,,,,,,,,,,,,,,,,,,,,,,,,,,,,,,,,,,,,,,,,,,,,,,,,,,,,,,,,,,
,,,,8,3.695,,,,,,36,broom,kitchen,,89845,001,2022-04-29_15h12.25.974,SPAMnetsValid,2021.1.4,Win32,59.95203837,,,,,,,,,,,,,8,3.695,0,33,33,76,1,,,,,,,,,,,,,,,,,,,,,,,,,,,,,,,,,,,,,,,,,,,,,,,,,,,,,,,,,,,,,,,,,,,,,,
,,,,4,2.374,,,,,,66,melon,yogurt,,89845,001,2022-04-29_15h12.25.974,SPAMnetsValid,2021.1.4,Win32,59.95203837,,,,,,,,,,,,,4,2.374,0,34,34,48,1,,,,,,,,,,,,,,,,,,,,,,,,,,,,,,,,,,,,,,,,,,,,,,,,,,,,,,,,,,,,,,,,,,,,,,
,,,,6,2.357,,,,,,12,cookie,yogurt,,89845,001,2022-04-29_15h12.25.974,SPAMnetsValid,2021.1.4,Win32,59.95203837,,,,,,,,,,,,,6,2.357,0,35,35,36,1,,,,,,,,,,,,,,,,,,,,,,,,,,,,,,,,,,,,,,,,,,,,,,,,,,,,,,,,,,,,,,,,,,,,,,
,,,,2,2.07,,,,,,40,broom,cake,,89845,001,2022-04-29_15h12.25.974,SPAMnetsValid,2021.1.4,Win32,59.95203837,,,,,,,,,,,,,2,2.07,0,36,36,32,1,,,,,,,,,,,,,,,,,,,,,,,,,,,,,,,,,,,,,,,,,,,,,,,,,,,,,,,,,,,,,,,,,,,,,,
,,,,6,5.698,,,,,,20,rose,tree,,89845,001,2022-04-29_15h12.25.974,SPAMnetsValid,2021.1.4,Win32,59.95203837,,,,,,,,,,,,,6,5.698,0,37,37,66,1,,,,,,,,,,,,,,,,,,,,,,,,,,,,,,,,,,,,,,,,,,,,,,,,,,,,,,,,,,,,,,,,,,,,,,
,,,,3,15.729,,,,,,72,broom,onion,,89845,001,2022-04-29_15h12.25.974,SPAMnetsValid,2021.1.4,Win32,59.95203837,,,,,,,,,,,,,3,15.729,0,38,38,27,1,,,,,,,,,,,,,,,,,,,,,,,,,,,,,,,,,,,,,,,,,,,,,,,,,,,,,,,,,,,,,,,,,,,,,,
,,,,8,2.337,,,,,,93,kitchen,oven,,89845,001,2022-04-29_15h12.25.974,SPAMnetsValid,2021.1.4,Win32,59.95203837,,,,,,,,,,,,,8,2.337,0,39,39,82,1,,,,,,,,,,,,,,,,,,,,,,,,,,,,,,,,,,,,,,,,,,,,,,,,,,,,,,,,,,,,,,,,,,,,,,
,,,,2,10.374,,,,,,57,flower,kitchen,,89845,001,2022-04-29_15h12.25.974,SPAMnetsValid,2021.1.4,Win32,59.95203837,,,,,,,,,,,,,2,10.374,0,40,40,49,1,,,,,,,,,,,,,,,,,,,,,,,,,,,,,,,,,,,,,,,,,,,,,,,,,,,,,,,,,,,,,,,,,,,,,,
,,,,3,7.568,,,,,,17,carrot,melon,,89845,001,2022-04-29_15h12.25.974,SPAMnetsValid,2021.1.4,Win32,59.95203837,,,,,,,,,,,,,3,7.568,0,41,41,24,1,,,,,,,,,,,,,,,,,,,,,,,,,,,,,,,,,,,,,,,,,,,,,,,,,,,,,,,,,,,,,,,,,,,,,,
,,,,4,3.033,,,,,,59,rose,strawberry,,89845,001,2022-04-29_15h12.25.974,SPAMnetsValid,2021.1.4,Win32,59.95203837,,,,,,,,,,,,,4,3.033,0,42,42,72,1,,,,,,,,,,,,,,,,,,,,,,,,,,,,,,,,,,,,,,,,,,,,,,,,,,,,,,,,,,,,,,,,,,,,,,
,,,,3,2.042,,,,,,29,chocolate,melon,,89845,001,2022-04-29_15h12.25.974,SPAMnetsValid,2021.1.4,Win32,59.95203837,,,,,,,,,,,,,3,2.042,0,43,43,34,1,,,,,,,,,,,,,,,,,,,,,,,,,,,,,,,,,,,,,,,,,,,,,,,,,,,,,,,,,,,,,,,,,,,,,,
,,,,8,2.527,,,,,,79,garden,strawberry,,89845,001,2022-04-29_15h12.25.974,SPAMnetsValid,2021.1.4,Win32,59.95203837,,,,,,,,,,,,,8,2.527,0,44,44,87,1,,,,,,,,,,,,,,,,,,,,,,,,,,,,,,,,,,,,,,,,,,,,,,,,,,,,,,,,,,,,,,,,,,,,,,
,,,,2,2.253,,,,,,60,cactus,onion,,89845,001,2022-04-29_15h12.25.974,SPAMnetsValid,2021.1.4,Win32,59.95203837,,,,,,,,,,,,,2,2.253,0,45,45,81,1,,,,,,,,,,,,,,,,,,,,,,,,,,,,,,,,,,,,,,,,,,,,,,,,,,,,,,,,,,,,,,,,,,,,,,
,,,,3,1.869,,,,,,48,flower,oven,,89845,001,2022-04-29_15h12.25.974,SPAMnetsValid,2021.1.4,Win32,59.95203837,,,,,,,,,,,,,3,1.869,0,46,46,15,1,,,,,,,,,,,,,,,,,,,,,,,,,,,,,,,,,,,,,,,,,,,,,,,,,,,,,,,,,,,,,,,,,,,,,,
,,,,3,1.262,,,,,,43,chocolate,tomato,,89845,001,2022-04-29_15h12.25.974,SPAMnetsValid,2021.1.4,Win32,59.95203837,,,,,,,,,,,,,3,1.262,0,47,47,8,1,,,,,,,,,,,,,,,,,,,,,,,,,,,,,,,,,,,,,,,,,,,,,,,,,,,,,,,,,,,,,,,,,,,,,,
,,,,3,1.446,,,,,,64,chocolate,garden,,89845,001,2022-04-29_15h12.25.974,SPAMnetsValid,2021.1.4,Win32,59.95203837,,,,,,,,,,,,,3,1.446,0,48,48,14,1,,,,,,,,,,,,,,,,,,,,,,,,,,,,,,,,,,,,,,,,,,,,,,,,,,,,,,,,,,,,,,,,,,,,,,
,,,,2,1.715,,,,,,75,cookie,onion,,89845,001,2022-04-29_15h12.25.974,SPAMnetsValid,2021.1.4,Win32,59.95203837,,,,,,,,,,,,,2,1.715,0,49,49,9,1,,,,,,,,,,,,,,,,,,,,,,,,,,,,,,,,,,,,,,,,,,,,,,,,,,,,,,,,,,,,,,,,,,,,,,
,,,,8,1.99,,,,,,63,cake,cookie,,89845,001,2022-04-29_15h12.25.974,SPAMnetsValid,2021.1.4,Win32,59.95203837,,,,,,,,,,,,,8,1.99,0,50,50,93,1,,,,,,,,,,,,,,,,,,,,,,,,,,,,,,,,,,,,,,,,,,,,,,,,,,,,,,,,,,,,,,,,,,,,,,
,,,,7,2.17,,,,,,19,microwave,pretzel,,89845,001,2022-04-29_15h12.25.974,SPAMnetsValid,2021.1.4,Win32,59.95203837,,,,,,,,,,,,,7,2.17,0,51,51,41,1,,,,,,,,,,,,,,,,,,,,,,,,,,,,,,,,,,,,,,,,,,,,,,,,,,,,,,,,,,,,,,,,,,,,,,
,,,,4,1.484,,,,,,7,melon,tree,,89845,001,2022-04-29_15h12.25.974,SPAMnetsValid,2021.1.4,Win32,59.95203837,,,,,,,,,,,,,4,1.484,0,52,52,77,1,,,,,,,,,,,,,,,,,,,,,,,,,,,,,,,,,,,,,,,,,,,,,,,,,,,,,,,,,,,,,,,,,,,,,,
,,,,7,13.139,,,,,,76,garden,rose,,89845,001,2022-04-29_15h12.25.974,SPAMnetsValid,2021.1.4,Win32,59.95203837,,,,,,,,,,,,,7,13.139,0,53,53,19,1,,,,,,,,,,,,,,,,,,,,,,,,,,,,,,,,,,,,,,,,,,,,,,,,,,,,,,,,,,,,,,,,,,,,,,
,,,,2,10.557,,,,,,46,garden,yogurt,,89845,001,2022-04-29_15h12.25.974,SPAMnetsValid,2021.1.4,Win32,59.95203837,,,,,,,,,,,,,2,10.557,0,54,54,65,1,,,,,,,,,,,,,,,,,,,,,,,,,,,,,,,,,,,,,,,,,,,,,,,,,,,,,,,,,,,,,,,,,,,,,,
,,,,4,2.201,,,,,,18,onion,refrigerator,,89845,001,2022-04-29_15h12.25.974,SPAMnetsValid,2021.1.4,Win32,59.95203837,,,,,,,,,,,,,4,2.201,0,55,55,62,1,,,,,,,,,,,,,,,,,,,,,,,,,,,,,,,,,,,,,,,,,,,,,,,,,,,,,,,,,,,,,,,,,,,,,,
,,,,2,1.598,,,,,,95,broom,refrigerator,,89845,001,2022-04-29_15h12.25.974,SPAMnetsValid,2021.1.4,Win32,59.95203837,,,,,,,,,,,,,2,1.598,0,56,56,90,1,,,,,,,,,,,,,,,,,,,,,,,,,,,,,,,,,,,,,,,,,,,,,,,,,,,,,,,,,,,,,,,,,,,,,,
,,,,9,1.521,,,,,,191,cake,cake,CHECK,89845,001,2022-04-29_15h12.25.974,SPAMnetsValid,2021.1.4,Win32,59.95203837,,,,,,,,,,,,,9,1.521,0,57,57,10,1,,,,,,,,,,,,,,,,,,,,,,,,,,,,,,,,,,,,,,,,,,,,,,,,,,,,,,,,,,,,,,,,,,,,,,
,,,,1,2.237,,,,,,41,broom,cactus,,89845,001,2022-04-29_15h12.25.974,SPAMnetsValid,2021.1.4,Win32,59.95203837,,,,,,,,,,,,,1,2.237,0,58,58,46,1,,,,,,,,,,,,,,,,,,,,,,,,,,,,,,,,,,,,,,,,,,,,,,,,,,,,,,,,,,,,,,,,,,,,,,
,,,,3,2.84,,,,,,84,oven,tomato,,89845,001,2022-04-29_15h12.25.974,SPAMnetsValid,2021.1.4,Win32,59.95203837,,,,,,,,,,,,,3,2.84,0,59,59,28,1,,,,,,,,,,,,,,,,,,,,,,,,,,,,,,,,,,,,,,,,,,,,,,,,,,,,,,,,,,,,,,,,,,,,,,
,,,,4,1.572,,,,,,53,garden,pretzel,,89845,001,2022-04-29_15h12.25.974,SPAMnetsValid,2021.1.4,Win32,59.95203837,,,,,,,,,,,,,4,1.572,0,60,60,0,1,,,,,,,,,,,,,,,,,,,,,,,,,,,,,,,,,,,,,,,,,,,,,,,,,,,,,,,,,,,,,,,,,,,,,,
,,,,3,2.317,,,,,,86,oven,rose,,89845,001,2022-04-29_15h12.25.974,SPAMnetsValid,2021.1.4,Win32,59.95203837,,,,,,,,,,,,,3,2.317,0,61,61,79,1,,,,,,,,,,,,,,,,,,,,,,,,,,,,,,,,,,,,,,,,,,,,,,,,,,,,,,,,,,,,,,,,,,,,,,
,,,,4,1.772,,,,,,45,onion,pretzel,,89845,001,2022-04-29_15h12.25.974,SPAMnetsValid,2021.1.4,Win32,59.95203837,,,,,,,,,,,,,4,1.772,0,62,62,69,1,,,,,,,,,,,,,,,,,,,,,,,,,,,,,,,,,,,,,,,,,,,,,,,,,,,,,,,,,,,,,,,,,,,,,,
,,,,2,2.04,,,,,,11,refrigerator,tree,,89845,001,2022-04-29_15h12.25.974,SPAMnetsValid,2021.1.4,Win32,59.95203837,,,,,,,,,,,,,2,2.04,0,63,63,43,1,,,,,,,,,,,,,,,,,,,,,,,,,,,,,,,,,,,,,,,,,,,,,,,,,,,,,,,,,,,,,,,,,,,,,,
,,,,2,1.433,,,,,,89,chocolate,rose,,89845,001,2022-04-29_15h12.25.974,SPAMnetsValid,2021.1.4,Win32,59.95203837,,,,,,,,,,,,,2,1.433,0,64,64,60,1,,,,,,,,,,,,,,,,,,,,,,,,,,,,,,,,,,,,,,,,,,,,,,,,,,,,,,,,,,,,,,,,,,,,,,
,,,,7,2.651,,,,,,82,cake,kitchen,,89845,001,2022-04-29_15h12.25.974,SPAMnetsValid,2021.1.4,Win32,59.95203837,,,,,,,,,,,,,7,2.651,0,65,65,96,1,,,,,,,,,,,,,,,,,,,,,,,,,,,,,,,,,,,,,,,,,,,,,,,,,,,,,,,,,,,,,,,,,,,,,,
,,,,3,1.65,,,,,,85,cake,tree,,89845,001,2022-04-29_15h12.25.974,SPAMnetsValid,2021.1.4,Win32,59.95203837,,,,,,,,,,,,,3,1.65,0,66,66,18,1,,,,,,,,,,,,,,,,,,,,,,,,,,,,,,,,,,,,,,,,,,,,,,,,,,,,,,,,,,,,,,,,,,,,,,
,,,,7,2.5,,,,,,49,flower,strawberry,,89845,001,2022-04-29_15h12.25.974,SPAMnetsValid,2021.1.4,Win32,59.95203837,,,,,,,,,,,,,7,2.5,0,67,67,3,1,,,,,,,,,,,,,,,,,,,,,,,,,,,,,,,,,,,,,,,,,,,,,,,,,,,,,,,,,,,,,,,,,,,,,,
,,,,4,2.268,,,,,,15,onion,oven,,89845,001,2022-04-29_15h12.25.974,SPAMnetsValid,2021.1.4,Win32,59.95203837,,,,,,,,,,,,,4,2.268,0,68,68,39,1,,,,,,,,,,,,,,,,,,,,,,,,,,,,,,,,,,,,,,,,,,,,,,,,,,,,,,,,,,,,,,,,,,,,,,
,,,,1,1.569,,,,,,74,broom,pretzel,,89845,001,2022-04-29_15h12.25.974,SPAMnetsValid,2021.1.4,Win32,59.95203837,,,,,,,,,,,,,1,1.569,0,69,69,40,1,,,,,,,,,,,,,,,,,,,,,,,,,,,,,,,,,,,,,,,,,,,,,,,,,,,,,,,,,,,,,,,,,,,,,,
,,,,1,2.098,,,,,,91,microwave,rose,,89845,001,2022-04-29_15h12.25.974,SPAMnetsValid,2021.1.4,Win32,59.95203837,,,,,,,,,,,,,1,2.098,0,70,70,84,1,,,,,,,,,,,,,,,,,,,,,,,,,,,,,,,,,,,,,,,,,,,,,,,,,,,,,,,,,,,,,,,,,,,,,,
,,,,3,1.602,,,,,,81,pretzel,yogurt,,89845,001,2022-04-29_15h12.25.974,SPAMnetsValid,2021.1.4,Win32,59.95203837,,,,,,,,,,,,,3,1.602,0,71,71,50,1,,,,,,,,,,,,,,,,,,,,,,,,,,,,,,,,,,,,,,,,,,,,,,,,,,,,,,,,,,,,,,,,,,,,,,
,,,,1,1.819,,,,,,23,flower,microwave,,89845,001,2022-04-29_15h12.25.974,SPAMnetsValid,2021.1.4,Win32,59.95203837,,,,,,,,,,,,,1,1.819,0,72,72,25,1,,,,,,,,,,,,,,,,,,,,,,,,,,,,,,,,,,,,,,,,,,,,,,,,,,,,,,,,,,,,,,,,,,,,,,
,,,,7,1.589,,,,,,94,kitchen,microwave,,89845,001,2022-04-29_15h12.25.974,SPAMnetsValid,2021.1.4,Win32,59.95203837,,,,,,,,,,,,,7,1.589,0,73,73,58,1,,,,,,,,,,,,,,,,,,,,,,,,,,,,,,,,,,,,,,,,,,,,,,,,,,,,,,,,,,,,,,,,,,,,,,
,,,,8,2.116,,,,,,77,refrigerator,yogurt,,89845,001,2022-04-29_15h12.25.974,SPAMnetsValid,2021.1.4,Win32,59.95203837,,,,,,,,,,,,,8,2.116,0,74,74,42,1,,,,,,,,,,,,,,,,,,,,,,,,,,,,,,,,,,,,,,,,,,,,,,,,,,,,,,,,,,,,,,,,,,,,,,
,,,,4,3.328,,,,,,90,cactus,cake,,89845,001,2022-04-29_15h12.25.974,SPAMnetsValid,2021.1.4,Win32,59.95203837,,,,,,,,,,,,,4,3.328,0,75,75,85,1,,,,,,,,,,,,,,,,,,,,,,,,,,,,,,,,,,,,,,,,,,,,,,,,,,,,,,,,,,,,,,,,,,,,,,
,,,,2,1.292,,,,,,39,melon,pretzel,,89845,001,2022-04-29_15h12.25.974,SPAMnetsValid,2021.1.4,Win32,59.95203837,,,,,,,,,,,,,2,1.292,0,76,76,20,1,,,,,,,,,,,,,,,,,,,,,,,,,,,,,,,,,,,,,,,,,,,,,,,,,,,,,,,,,,,,,,,,,,,,,,
,,,,6,1.703,,,,,,38,pretzel,refrigerator,,89845,001,2022-04-29_15h12.25.974,SPAMnetsValid,2021.1.4,Win32,59.95203837,,,,,,,,,,,,,6,1.703,0,77,77,71,1,,,,,,,,,,,,,,,,,,,,,,,,,,,,,,,,,,,,,,,,,,,,,,,,,,,,,,,,,,,,,,,,,,,,,,
,,,,3,2.898,,,,,,30,cookie,pretzel,,89845,001,2022-04-29_15h12.25.974,SPAMnetsValid,2021.1.4,Win32,59.95203837,,,,,,,,,,,,,3,2.898,0,78,78,78,1,,,,,,,,,,,,,,,,,,,,,,,,,,,,,,,,,,,,,,,,,,,,,,,,,,,,,,,,,,,,,,,,,,,,,,
,,,,2,1.731,,,,,,88,cactus,melon,,89845,001,2022-04-29_15h12.25.974,SPAMnetsValid,2021.1.4,Win32,59.95203837,,,,,,,,,,,,,2,1.731,0,79,79,38,1,,,,,,,,,,,,,,,,,,,,,,,,,,,,,,,,,,,,,,,,,,,,,,,,,,,,,,,,,,,,,,,,,,,,,,
,,,,4,6.084,,,,,,5,oven,tree,,89845,001,2022-04-29_15h12.25.974,SPAMnetsValid,2021.1.4,Win32,59.95203837,,,,,,,,,,,,,4,6.084,0,80,80,70,1,,,,,,,,,,,,,,,,,,,,,,,,,,,,,,,,,,,,,,,,,,,,,,,,,,,,,,,,,,,,,,,,,,,,,,
,,,,3,13.055,,,,,,10,flower,onion,,89845,001,2022-04-29_15h12.25.974,SPAMnetsValid,2021.1.4,Win32,59.95203837,,,,,,,,,,,,,3,13.055,0,81,81,45,1,,,,,,,,,,,,,,,,,,,,,,,,,,,,,,,,,,,,,,,,,,,,,,,,,,,,,,,,,,,,,,,,,,,,,,
,,,,3,2.197,,,,,,51,onion,strawberry,,89845,001,2022-04-29_15h12.25.974,SPAMnetsValid,2021.1.4,Win32,59.95203837,,,,,,,,,,,,,3,2.197,0,82,82,86,1,,,,,,,,,,,,,,,,,,,,,,,,,,,,,,,,,,,,,,,,,,,,,,,,,,,,,,,,,,,,,,,,,,,,,,
,,,,7,3.249,,,,,,6,garden,onion,,89845,001,2022-04-29_15h12.25.974,SPAMnetsValid,2021.1.4,Win32,59.95203837,,,,,,,,,,,,,7,3.249,0,83,83,83,1,,,,,,,,,,,,,,,,,,,,,,,,,,,,,,,,,,,,,,,,,,,,,,,,,,,,,,,,,,,,,,,,,,,,,,
,,,,7,1.806,,,,,,47,onion,tomato,,89845,001,2022-04-29_15h12.25.974,SPAMnetsValid,2021.1.4,Win32,59.95203837,,,,,,,,,,,,,7,1.806,0,84,84,51,1,,,,,,,,,,,,,,,,,,,,,,,,,,,,,,,,,,,,,,,,,,,,,,,,,,,,,,,,,,,,,,,,,,,,,,
,,,,2,4.115,,,,,,71,broom,rose,,89845,001,2022-04-29_15h12.25.974,SPAMnetsValid,2021.1.4,Win32,59.95203837,,,,,,,,,,,,,2,4.115,0,85,85,61,1,,,,,,,,,,,,,,,,,,,,,,,,,,,,,,,,,,,,,,,,,,,,,,,,,,,,,,,,,,,,,,,,,,,,,,
,,,,7,2.101,,,,,,2,kitchen,onion,,89845,001,2022-04-29_15h12.25.974,SPAMnetsValid,2021.1.4,Win32,59.95203837,,,,,,,,,,,,,7,2.101,0,86,86,91,1,,,,,,,,,,,,,,,,,,,,,,,,,,,,,,,,,,,,,,,,,,,,,,,,,,,,,,,,,,,,,,,,,,,,,,
,,,,8,6.577,,,,,,3,cake,oven,,89845,001,2022-04-29_15h12.25.974,SPAMnetsValid,2021.1.4,Win32,59.95203837,,,,,,,,,,,,,8,6.577,0,87,87,30,1,,,,,,,,,,,,,,,,,,,,,,,,,,,,,,,,,,,,,,,,,,,,,,,,,,,,,,,,,,,,,,,,,,,,,,
,,,,2,1.811,,,,,,16,chocolate,flower,,89845,001,2022-04-29_15h12.25.974,SPAMnetsValid,2021.1.4,Win32,59.95203837,,,,,,,,,,,,,2,1.811,0,88,88,22,1,,,,,,,,,,,,,,,,,,,,,,,,,,,,,,,,,,,,,,,,,,,,,,,,,,,,,,,,,,,,,,,,,,,,,,
,,,,3,4.205,,,,,,78,cookie,rose,,89845,001,2022-04-29_15h12.25.974,SPAMnetsValid,2021.1.4,Win32,59.95203837,,,,,,,,,,,,,3,4.205,0,89,89,56,1,,,,,,,,,,,,,,,,,,,,,,,,,,,,,,,,,,,,,,,,,,,,,,,,,,,,,,,,,,,,,,,,,,,,,,
,,,,7,1.532,,,,,,87,carrot,yogurt,,89845,001,2022-04-29_15h12.25.974,SPAMnetsValid,2021.1.4,Win32,59.95203837,,,,,,,,,,,,,7,1.532,0,90,90,6,1,,,,,,,,,,,,,,,,,,,,,,,,,,,,,,,,,,,,,,,,,,,,,,,,,,,,,,,,,,,,,,,,,,,,,,
,,,,7,1.468,,,,,,28,cake,melon,,89845,001,2022-04-29_15h12.25.974,SPAMnetsValid,2021.1.4,Win32,59.95203837,,,,,,,,,,,,,7,1.468,0,91,91,54,1,,,,,,,,,,,,,,,,,,,,,,,,,,,,,,,,,,,,,,,,,,,,,,,,,,,,,,,,,,,,,,,,,,,,,,
,,,,7,2.8,,,,,,56,cactus,tree,,89845,001,2022-04-29_15h12.25.974,SPAMnetsValid,2021.1.4,Win32,59.95203837,,,,,,,,,,,,,7,2.8,0,92,92,21,1,,,,,,,,,,,,,,,,,,,,,,,,,,,,,,,,,,,,,,,,,,,,,,,,,,,,,,,,,,,,,,,,,,,,,,
,,,,3,3.152,,,,,,26,tomato,yogurt,,89845,001,2022-04-29_15h12.25.974,SPAMnetsValid,2021.1.4,Win32,59.95203837,,,,,,,,,,,,,3,3.152,0,93,93,13,1,,,,,,,,,,,,,,,,,,,,,,,,,,,,,,,,,,,,,,,,,,,,,,,,,,,,,,,,,,,,,,,,,,,,,,
,,,,7,6.94,,,,,,62,kitchen,rose,,89845,001,2022-04-29_15h12.25.974,SPAMnetsValid,2021.1.4,Win32,59.95203837,,,,,,,,,,,,,7,6.94,0,94,94,57,1,,,,,,,,,,,,,,,,,,,,,,,,,,,,,,,,,,,,,,,,,,,,,,,,,,,,,,,,,,,,,,,,,,,,,,
,,,,2,1.519,,,,,,65,broom,garden,,89845,001,2022-04-29_15h12.25.974,SPAMnetsValid,2021.1.4,Win32,59.95203837,,,,,,,,,,,,,2,1.519,0,95,95,23,1,,,,,,,,,,,,,,,,,,,,,,,,,,,,,,,,,,,,,,,,,,,,,,,,,,,,,,,,,,,,,,,,,,,,,,
,,,,2,6.061,,,,,,33,oven,yogurt,,89845,001,2022-04-29_15h12.25.974,SPAMnetsValid,2021.1.4,Win32,59.95203837,,,,,,,,,,,,,2,6.061,0,96,96,31,1,,,,,,,,,,,,,,,,,,,,,,,,,,,,,,,,,,,,,,,,,,,,,,,,,,,,,,,,,,,,,,,,,,,,,,
,,,,,,,,,,,,,,,89845,001,2022-04-29_15h12.25.974,SPAMnetsValid,2021.1.4,Win32,59.95203837,,,,,,,,,,,,,,,,,,,,0,0,0,0,1,,,,,,,,,,,,,,,,,,,,,,,,,,,,,,,,,,,,,,,,,,,,,,,,,,,,,,,,,,,,,,,,,
,,,,,,,,,,,,,,,89845,001,2022-04-29_15h12.25.974,SPAMnetsValid,2021.1.4,Win32,59.95203837,,,,,,0,1,1,0,1,1,0,,,,,,,,,,,,,,,,,,,,,,,,,,,,,,,,,,,,,,,,,,,,,,,,,,,,,,,,,,,,,,,,,,,,,,,,,,,,,
,,,,,,,,,,,,,,,89845,001,2022-04-29_15h12.25.974,SPAMnetsValid,2021.1.4,Win32,59.95203837,,,,,,,,,,,,,,,,,,,,,,,,,2,6.061,0,0,0,0,1,rancor,forbearance,ridicule,malice,bravery,3,,,,,,,,,,,,,,,,,,,,,,,,,,,,,,,,,,,,,,,,,,,,,,,,,,,,
,,,,,,,,,,,,,,,89845,001,2022-04-29_15h12.25.974,SPAMnetsValid,2021.1.4,Win32,59.95203837,,,,,,,,,,,,,,,,,,,,,,,,,4,5.193,0,1,1,1,1,raucous,empty,quiet,smooth,harsh,4,,,,,,,,,,,,,,,,,,,,,,,,,,,,,,,,,,,,,,,,,,,,,,,,,,,,
,,,,,,,,,,,,,,,89845,001,2022-04-29_15h12.25.974,SPAMnetsValid,2021.1.4,Win32,59.95203837,,,,,,,,,,,,,,,,,,,,,,,,,4,5.839,0,2,2,2,1,gargoyle,oil,medicine,carved waterspout,ugly building,3,,,,,,,,,,,,,,,,,,,,,,,,,,,,,,,,,,,,,,,,,,,,,,,,,,,,
,,,,,,,,,,,,,,,89845,001,2022-04-29_15h12.25.974,SPAMnetsValid,2021.1.4,Win32,59.95203837,,,,,,,,,,,,,,,,,,,,,,,,,1,5.108,0,3,3,3,1,recrudesce,purify,renew activity,lack refinement,crush,2,,,,,,,,,,,,,,,,,,,,,,,,,,,,,,,,,,,,,,,,,,,,,,,,,,,,
,,,,,,,,,,,,,,,89845,001,2022-04-29_15h12.25.974,SPAMnetsValid,2021.1.4,Win32,59.95203837,,,,,,,,,,,,,,,,,,,,,,,,,3,5.221,0,4,4,4,1,specious,"plausible, but not genuine",noteworthy,class or variety,roomy,1,,,,,,,,,,,,,,,,,,,,,,,,,,,,,,,,,,,,,,,,,,,,,,,,,,,,
,,,,,,,,,,,,,,,89845,001,2022-04-29_15h12.25.974,SPAMnetsValid,2021.1.4,Win32,59.95203837,,,,,,,,,,,,,,,,,,,,,,,,,3,2.786,0,5,5,5,1,bauble,bubble,showy plaything,idle talk,confusion,2,,,,,,,,,,,,,,,,,,,,,,,,,,,,,,,,,,,,,,,,,,,,,,,,,,,,
,,,,,,,,,,,,,,,89845,001,2022-04-29_15h12.25.974,SPAMnetsValid,2021.1.4,Win32,59.95203837,,,,,,,,,,,,,,,,,,,,,,,,,4,4.933,0,6,6,6,1,prolific,scarce,producing abundantly,reckless,speaking profanely,2,,,,,,,,,,,,,,,,,,,,,,,,,,,,,,,,,,,,,,,,,,,,,,,,,,,,
,,,,,,,,,,,,,,,89845,001,2022-04-29_15h12.25.974,SPAMnetsValid,2021.1.4,Win32,59.95203837,,,,,,,,,,,,,,,,,,,,,,,,,4,6.556,0,7,7,7,1,opulent,party,wealthy,happy frame of mind,semiprecious stone,2,,,,,,,,,,,,,,,,,,,,,,,,,,,,,,,,,,,,,,,,,,,,,,,,,,,,
,,,,,,,,,,,,,,,89845,001,2022-04-29_15h12.25.974,SPAMnetsValid,2021.1.4,Win32,59.95203837,,,,,,,,,,,,,,,,,,,,,,,,,1,11.516,0,8,8,8,1,coercion,conspiracy,strategy,restraint,attraction,3,,,,,,,,,,,,,,,,,,,,,,,,,,,,,,,,,,,,,,,,,,,,,,,,,,,,
,,,,,,,,,,,,,,,89845,001,2022-04-29_15h12.25.974,SPAMnetsValid,2021.1.4,Win32,59.95203837,,,,,,,,,,,,,,,,,,,,,,,,,2,12.073,0,9,9,9,1,hiatus,animal,calamity,dread,gap,4,,,,,,,,,,,,,,,,,,,,,,,,,,,,,,,,,,,,,,,,,,,,,,,,,,,,
,,,,,,,,,,,,,,,89845,001,2022-04-29_15h12.25.974,SPAMnetsValid,2021.1.4,Win32,59.95203837,,,,,,,,,,,,,,,,,,,,,,,,,3,7.483,0,10,10,10,1,germane,microbe,contagious,relevant,different,3,,,,,,,,,,,,,,,,,,,,,,,,,,,,,,,,,,,,,,,,,,,,,,,,,,,,
,,,,,,,,,,,,,,,89845,001,2022-04-29_15h12.25.974,SPAMnetsValid,2021.1.4,Win32,59.95203837,,,,,,,,,,,,,,,,,,,,,,,,,2,3.807,0,11,11,11,1,perfunctory,fundamental,formal,superficial,careful,3,,,,,,,,,,,,,,,,,,,,,,,,,,,,,,,,,,,,,,,,,,,,,,,,,,,,
,,,,,,,,,,,,,,,89845,001,2022-04-29_15h12.25.974,SPAMnetsValid,2021.1.4,Win32,59.95203837,,,,,,,,,,,,,,,,,,,,,,,,,4,4.648,0,12,12,12,1,diverge,reveal,chant,distract the attention of,differ or turn off from,4,,,,,,,,,,,,,,,,,,,,,,,,,,,,,,,,,,,,,,,,,,,,,,,,,,,,
,,,,,,,,,,,,,,,89845,001,2022-04-29_15h12.25.974,SPAMnetsValid,2021.1.4,Win32,59.95203837,,,,,,,,,,,,,,,,,,,,,,,,,4,4.048,0,13,13,13,1,evoke,take away,anger,connect,bring out,4,,,,,,,,,,,,,,,,,,,,,,,,,,,,,,,,,,,,,,,,,,,,,,,,,,,,
,,,,,,,,,,,,,,,89845,001,2022-04-29_15h12.25.974,SPAMnetsValid,2021.1.4,Win32,59.95203837,,,,,,,,,,,,,,,,,,,,,,,,,2,3.209,0,14,14,14,1,pertinent,relevant,lying next to,necessary,bold,1,,,,,,,,,,,,,,,,,,,,,,,,,,,,,,,,,,,,,,,,,,,,,,,,,,,,
,,,,,,,,,,,,,,,89845,001,2022-04-29_15h12.25.974,SPAMnetsValid,2021.1.4,Win32,59.95203837,,,,,,,,,,,,,,,,,,,,,,,,,2,5.184,0,15,15,15,1,holocaust,entirety,destruction,saintly,price,2,,,,,,,,,,,,,,,,,,,,,,,,,,,,,,,,,,,,,,,,,,,,,,,,,,,,
,,,,,,,,,,,,,,,89845,001,2022-04-29_15h12.25.974,SPAMnetsValid,2021.1.4,Win32,59.95203837,,,,,,,,,,,,,,,,,,,,,,,,,2,4.232,0,16,16,16,1,piquant,mellow,fish,pungent,cloth,3,,,,,,,,,,,,,,,,,,,,,,,,,,,,,,,,,,,,,,,,,,,,,,,,,,,,
,,,,,,,,,,,,,,,89845,001,2022-04-29_15h12.25.974,SPAMnetsValid,2021.1.4,Win32,59.95203837,,,,,,,,,,,,,,,,,,,,,,,,,3,5.581,0,17,17,17,1,firmament,foundation,heavens,strong,glue,2,,,,,,,,,,,,,,,,,,,,,,,,,,,,,,,,,,,,,,,,,,,,,,,,,,,,
,,,,,,,,,,,,,,,89845,001,2022-04-29_15h12.25.974,SPAMnetsValid,2021.1.4,Win32,59.95203837,,,,,,,,,,,,,,,,,,,,,,,,,,,,,,,,,,,,,,4,4.375,0,0,0,0,1,marketable,partisan,jocular,marriageable,salable,essential,4,,,,,,,,,,,,,,,,,,,,,,,,,,,,,,,,,,,,,,
,,,,,,,,,,,,,,,89845,001,2022-04-29_15h12.25.974,SPAMnetsValid,2021.1.4,Win32,59.95203837,,,,,,,,,,,,,,,,,,,,,,,,,,,,,,,,,,,,,,5,4.441,0,1,1,1,1,cottontail,squirrel,poplar,boa,marshy plant,rabbit,5,,,,,,,,,,,,,,,,,,,,,,,,,,,,,,,,,,,,,,
,,,,,,,,,,,,,,,89845,001,2022-04-29_15h12.25.974,SPAMnetsValid,2021.1.4,Win32,59.95203837,,,,,,,,,,,,,,,,,,,,,,,,,,,,,,,,,,,,,,3,18.603,0,2,2,2,1,boggy,afraid,false,marshy,dense,black,3,,,,,,,,,,,,,,,,,,,,,,,,,,,,,,,,,,,,,,
,,,,,,,,,,,,,,,89845,001,2022-04-29_15h12.25.974,SPAMnetsValid,2021.1.4,Win32,59.95203837,,,,,,,,,,,,,,,,,,,,,,,,,,,,,,,,,,,,,,3,3.29,0,3,3,3,1,gruesomeness,blackness,falseness,vindictiveness,drunkenness,ghastliness,5,,,,,,,,,,,,,,,,,,,,,,,,,,,,,,,,,,,,,,
,,,,,,,,,,,,,,,89845,001,2022-04-29_15h12.25.974,SPAMnetsValid,2021.1.4,Win32,59.95203837,,,,,,,,,,,,,,,,,,,,,,,,,,,,,,,,,,,,,,3,7.791,0,4,4,4,1,loathing,diffidence,laziness,abhorrence,cleverness,comfort,3,,,,,,,,,,,,,,,,,,,,,,,,,,,,,,,,,,,,,,
,,,,,,,,,,,,,,,89845,001,2022-04-29_15h12.25.974,SPAMnetsValid,2021.1.4,Win32,59.95203837,,,,,,,,,,,,,,,,,,,,,,,,,,,,,,,,,,,,,,1,5.067,0,5,5,5,1,bantam,fowl,ridicule,cripple,vegetable,ensign,1,,,,,,,,,,,,,,,,,,,,,,,,,,,,,,,,,,,,,,
,,,,,,,,,,,,,,,89845,001,2022-04-29_15h12.25.974,SPAMnetsValid,2021.1.4,Win32,59.95203837,,,,,,,,,,,,,,,,,,,,,,,,,,,,,,,,,,,,,,3,4.252,0,6,6,6,1,evoke,wake up,surrender,reconnoiter,transcend,call forth,5,,,,,,,,,,,,,,,,,,,,,,,,,,,,,,,,,,,,,,
,,,,,,,,,,,,,,,89845,001,2022-04-29_15h12.25.974,SPAMnetsValid,2021.1.4,Win32,59.95203837,,,,,,,,,,,,,,,,,,,,,,,,,,,,,,,,,,,,,,5,5.382,0,7,7,7,1,unobtrusive,unintelligent,epileptic,illogical,lineal,modest,5,,,,,,,,,,,,,,,,,,,,,,,,,,,,,,,,,,,,,,
,,,,,,,,,,,,,,,89845,001,2022-04-29_15h12.25.974,SPAMnetsValid,2021.1.4,Win32,59.95203837,,,,,,,,,,,,,,,,,,,,,,,,,,,,,,,,,,,,,,4,2.623,0,8,8,8,1,terrain,ice cream,final test,tractor,area of ground,weight,4,,,,,,,,,,,,,,,,,,,,,,,,,,,,,,,,,,,,,,
,,,,,,,,,,,,,,,89845,001,2022-04-29_15h12.25.974,SPAMnetsValid,2021.1.4,Win32,59.95203837,,,,,,,,,,,,,,,,,,,,,,,,,,,,,,,,,,,,,,3,3.507,0,9,9,9,1,capriciousness,stubbornness,courage,whimsicality,amazement,greediness,3,,,,,,,,,,,,,,,,,,,,,,,,,,,,,,,,,,,,,,
,,,,,,,,,,,,,,,89845,001,2022-04-29_15h12.25.974,SPAMnetsValid,2021.1.4,Win32,59.95203837,,,,,,,,,,,,,,,,,,,,,,,,,,,,,,,,,,,,,,5,4.051,0,10,10,10,1,maelstrom,slander,whirlpool,enmity,armor,majolica,2,,,,,,,,,,,,,,,,,,,,,,,,,,,,,,,,,,,,,,
,,,,,,,,,,,,,,,89845,001,2022-04-29_15h12.25.974,SPAMnetsValid,2021.1.4,Win32,59.95203837,,,,,,,,,,,,,,,,,,,,,,,,,,,,,,,,,,,,,,1,5.77,0,11,11,11,1,tentative,critical,conclusive,authentic,provisional,apprehensive,4,,,,,,,,,,,,,,,,,,,,,,,,,,,,,,,,,,,,,,
,,,,,,,,,,,,,,,89845,001,2022-04-29_15h12.25.974,SPAMnetsValid,2021.1.4,Win32,59.95203837,,,,,,,,,,,,,,,,,,,,,,,,,,,,,,,,,,,,,,3,6.87,0,12,12,12,1,placate,rehabilitate,plagiarize,depredate,apprise,conciliate,5,,,,,,,,,,,,,,,,,,,,,,,,,,,,,,,,,,,,,,
,,,,,,,,,,,,,,,89845,001,2022-04-29_15h12.25.974,SPAMnetsValid,2021.1.4,Win32,59.95203837,,,,,,,,,,,,,,,,,,,,,,,,,,,,,,,,,,,,,,2,6.999,0,13,13,13,1,surcease,enlightenment,cessation,inattention,censor,substitution,2,,,,,,,,,,,,,,,,,,,,,,,,,,,,,,,,,,,,,,
,,,,,,,,,,,,,,,89845,001,2022-04-29_15h12.25.974,SPAMnetsValid,2021.1.4,Win32,59.95203837,,,,,,,,,,,,,,,,,,,,,,,,,,,,,,,,,,,,,,1,15.723,0,14,14,14,1,apathetic,wandering,impassive,hateful,prophetic,overflowing,2,,,,,,,,,,,,,,,,,,,,,,,,,,,,,,,,,,,,,,
,,,,,,,,,,,,,,,89845,001,2022-04-29_15h12.25.974,SPAMnetsValid,2021.1.4,Win32,59.95203837,,,,,,,,,,,,,,,,,,,,,,,,,,,,,,,,,,,,,,5,7.974,0,15,15,15,1,paternoster,paternalism,patricide,malediction,benediction,prayer,5,,,,,,,,,,,,,,,,,,,,,,,,,,,,,,,,,,,,,,
,,,,,,,,,,,,,,,89845,001,2022-04-29_15h12.25.974,SPAMnetsValid,2021.1.4,Win32,59.95203837,,,,,,,,,,,,,,,,,,,,,,,,,,,,,,,,,,,,,,1,3.403,0,16,16,16,1,opalescence,opulence,senescence,bankruptcy,iridescence,assiduity,4,,,,,,,,,,,,,,,,,,,,,,,,,,,,,,,,,,,,,,
,,,,,,,,,,,,,,,89845,001,2022-04-29_15h12.25.974,SPAMnetsValid,2021.1.4,Win32,59.95203837,,,,,,,,,,,,,,,,,,,,,,,,,,,,,,,,,,,,,,2,2.119,0,17,17,17,1,lush,stupid,luxurious,hazy,putrid,languishing,2,,,,,,,,,,,,,,,,,,,,,,,,,,,,,,,,,,,,,,
,,,,,,,,,,,,,,,89845,001,2022-04-29_15h12.25.974,SPAMnetsValid,2021.1.4,Win32,59.95203837,,,,,,,,,,,,,,,,,,,,,,,,,,,,,,,,,,,,,,4,3.258,0,18,18,18,1,curtailment,expenditure,abandonment,abridgment,improvement,forgery,3,,,,,,,,,,,,,,,,,,,,,,,,,,,,,,,,,,,,,,
,,,,,,,,,,,,,,,89845,001,2022-04-29_15h12.25.974,SPAMnetsValid,2021.1.4,Win32,59.95203837,,,,,,,,,,,,,,,,,,,,,,,,,,,,,,,,,,,,,,3,5.242,0,19,19,19,1,perversity,adversity,perviousness,travesty,waywardness,gentility,4,,,,,,,,,,,,,,,,,,,,,,,,,,,,,,,,,,,,,,
,,,,,,,,,,,,,,,89845,001,2022-04-29_15h12.25.974,SPAMnetsValid,2021.1.4,Win32,59.95203837,,,,,,,,,,,,,,,,,,,,,,,,,,,,,,,,,,,,,,2,2.35,0,20,20,20,1,calumnious,complimentary,analogous,slanderous,tempestuous,magnanimous,3,,,,,,,,,,,,,,,,,,,,,,,,,,,,,,,,,,,,,,
,,,,,,,,,,,,,,,89845,001,2022-04-29_15h12.25.974,SPAMnetsValid,2021.1.4,Win32,59.95203837,,,,,,,,,,,,,,,,,,,,,,,,,,,,,,,,,,,,,,5,5.088,0,21,21,21,1,illiberality,bigotry,imbecility,illegibility,cautery,immaturity,1,,,,,,,,,,,,,,,,,,,,,,,,,,,,,,,,,,,,,,
,,,,,,,,,,,,,,,89845,001,2022-04-29_15h12.25.974,SPAMnetsValid,2021.1.4,Win32,59.95203837,,,,,,,,,,,,,,,,,,,,,,,,,,,,,,,,,,,,,,2,2.601,0,22,22,22,1,clabber,rejoice,gossip,curdle,crow,hobble,3,,,,,,,,,,,,,,,,,,,,,,,,,,,,,,,,,,,,,,
,,,,,,,,,,,,,,,89845,001,2022-04-29_15h12.25.974,SPAMnetsValid,2021.1.4,Win32,59.95203837,,,,,,,,,,,,,,,,,,,,,,,,,,,,,,,,,,,,,,3,1.622,0,23,23,23,1,sedulousness,diligence,credulousness,seduction,perilousness,frankness,1,,,,,,,,,,,,,,,,,,,,,,,,,,,,,,,,,,,,,,
,,,,,,,,,,,,,,,89845,001,2022-04-29_15h12.25.974,SPAMnetsValid,2021.1.4,Win32,59.95203837,,,,,,,,,,,,,,,,,,,,,,,,,,,,,,,,,,,,,,,,,,,,,,,,,,,,pail,bucket,0,0,0,0,1,,,,,,,,,,,,,,,,,,,,,,,,,,,,,,,
,,,,,,,,,,,,,,,89845,001,2022-04-29_15h12.25.974,SPAMnetsValid,2021.1.4,Win32,59.95203837,,,,,,,,,,,,,,,,,,,,,,,,,,,,,,,,,,,,,,,,,,,,,,,,,,,,water,bucket,1,0,1,0,1,,,,,,,,,,,,,,,,,,,,,,,,,,,,,,,
,,,,,,,,,,,,,,,89845,001,2022-04-29_15h12.25.974,SPAMnetsValid,2021.1.4,Win32,59.95203837,,,,,,,,,,,,,,,,,,,,,,,,,,,,,,,,,,,,,,,,,,,,,,,,,,,,sandcastle,bucket,2,0,2,0,1,,,,,,,,,,,,,,,,,,,,,,,,,,,,,,,
,,,,,,,,,,,,,,,89845,001,2022-04-29_15h12.25.974,SPAMnetsValid,2021.1.4,Win32,59.95203837,,,,,,,,,,,,,,,,,,,,,,,,,,,,,,,,,,,,,,,,,,,,,,,,,,,,carrying water,bucket,3,0,3,0,1,,,,,,,,,,,,,,,,,,,,,,,,,,,,,,,
,,,,,,,,,,,,,,,89845,001,2022-04-29_15h12.25.974,SPAMnetsValid,2021.1.4,Win32,59.95203837,,,,,,,,,,,,,,,,,,,,,,,,,,,,,,,,,,,,,,,,,,,,,,,,,,,,thirst,bucket,4,0,4,0,1,,,,,,,,,,,,,,,,,,,,,,,,,,,,,,,
,,,,,,,,,,,,,,,89845,001,2022-04-29_15h12.25.974,SPAMnetsValid,2021.1.4,Win32,59.95203837,,,,,,,,,,,,,,,,,,,,,,,,,,,,,,,,,,,,,,,,,,,,,,,,,,,,shells,bucket,5,0,5,0,1,,,,,,,,,,,,,,,,,,,,,,,,,,,,,,,
,,,,,,,,,,,,,,,89845,001,2022-04-29_15h12.25.974,SPAMnetsValid,2021.1.4,Win32,59.95203837,,,,,,,,,,,,,,,,,,,,,,,,,,,,,,,,,,,,,,,,,,,,,,,,,,,,helmet,bucket,6,0,6,0,1,,,,,,,,,,,,,,,,,,,,,,,,,,,,,,,
,,,,,,,,,,,,,,,89845,001,2022-04-29_15h12.25.974,SPAMnetsValid,2021.1.4,Win32,59.95203837,,,,,,,,,,,,,,,,,,,,,,,,,,,,,,,,,,,,,,,,,,,,,,,,,,,,shade,bucket,7,0,7,0,1,,,,,,,,,,,,,,,,,,,,,,,,,,,,,,,
,,,,,,,,,,,,,,,89845,001,2022-04-29_15h12.25.974,SPAMnetsValid,2021.1.4,Win32,59.95203837,,,,,,,,,,,,,,,,,,,,,,,,,,,,,,,,,,,,,,,,,,,,,,,,,,,,carrier,bucket,8,0,8,0,1,,,,,,,,,,,,,,,,,,,,,,,,,,,,,,,
,,,,,,,,,,,,,,,89845,001,2022-04-29_15h12.25.974,SPAMnetsValid,2021.1.4,Win32,59.95203837,,,,,,,,,,,,,,,,,,,,,,,,,,,,,,,,,,,,,,,,,,,,,,,,,,,,,,,,,,,0,0,0,0,1,bucket,,,,,,,,,,,,,,,,,,,,,,,,,
,,,,,,,,,,,,,,,89845,001,2022-04-29_15h12.25.974,SPAMnetsValid,2021.1.4,Win32,59.95203837,,,,,,,,,,,,,,,,,,,,,,,,,,,,,,,,,,,,,,,,,,,,,,,,,,,,sleep,pillow,0,0,0,0,1,,,,,,,,,,,,,,,,,,,,,,,,,,,,,,,
,,,,,,,,,,,,,,,89845,001,2022-04-29_15h12.25.974,SPAMnetsValid,2021.1.4,Win32,59.95203837,,,,,,,,,,,,,,,,,,,,,,,,,,,,,,,,,,,,,,,,,,,,,,,,,,,,fight,pillow,1,0,1,0,1,,,,,,,,,,,,,,,,,,,,,,,,,,,,,,,
,,,,,,,,,,,,,,,89845,001,2022-04-29_15h12.25.974,SPAMnetsValid,2021.1.4,Win32,59.95203837,,,,,,,,,,,,,,,,,,,,,,,,,,,,,,,,,,,,,,,,,,,,,,,,,,,,fort,pillow,2,0,2,0,1,,,,,,,,,,,,,,,,,,,,,,,,,,,,,,,
,,,,,,,,,,,,,,,89845,001,2022-04-29_15h12.25.974,SPAMnetsValid,2021.1.4,Win32,59.95203837,,,,,,,,,,,,,,,,,,,,,,,,,,,,,,,,,,,,,,,,,,,,,,,,,,,,comfort,pillow,3,0,3,0,1,,,,,,,,,,,,,,,,,,,,,,,,,,,,,,,
,,,,,,,,,,,,,,,89845,001,2022-04-29_15h12.25.974,SPAMnetsValid,2021.1.4,Win32,59.95203837,,,,,,,,,,,,,,,,,,,,,,,,,,,,,,,,,,,,,,,,,,,,,,,,,,,,protection,pillow,4,0,4,0,1,,,,,,,,,,,,,,,,,,,,,,,,,,,,,,,
,,,,,,,,,,,,,,,89845,001,2022-04-29_15h12.25.974,SPAMnetsValid,2021.1.4,Win32,59.95203837,,,,,,,,,,,,,,,,,,,,,,,,,,,,,,,,,,,,,,,,,,,,,,,,,,,,body armor,pillow,5,0,5,0,1,,,,,,,,,,,,,,,,,,,,,,,,,,,,,,,
,,,,,,,,,,,,,,,89845,001,2022-04-29_15h12.25.974,SPAMnetsValid,2021.1.4,Win32,59.95203837,,,,,,,,,,,,,,,,,,,,,,,,,,,,,,,,,,,,,,,,,,,,,,,,,,,,sled,pillow,6,0,6,0,1,,,,,,,,,,,,,,,,,,,,,,,,,,,,,,,
,,,,,,,,,,,,,,,89845,001,2022-04-29_15h12.25.974,SPAMnetsValid,2021.1.4,Win32,59.95203837,,,,,,,,,,,,,,,,,,,,,,,,,,,,,,,,,,,,,,,,,,,,,,,,,,,,punching bag,pillow,7,0,7,0,1,,,,,,,,,,,,,,,,,,,,,,,,,,,,,,,
,,,,,,,,,,,,,,,89845,001,2022-04-29_15h12.25.974,SPAMnetsValid,2021.1.4,Win32,59.95203837,,,,,,,,,,,,,,,,,,,,,,,,,,,,,,,,,,,,,,,,,,,,,,,,,,,,weapon,pillow,8,0,8,0,1,,,,,,,,,,,,,,,,,,,,,,,,,,,,,,,
,,,,,,,,,,,,,,,89845,001,2022-04-29_15h12.25.974,SPAMnetsValid,2021.1.4,Win32,59.95203837,,,,,,,,,,,,,,,,,,,,,,,,,,,,,,,,,,,,,,,,,,,,,,,,,,,,companion,pillow,9,0,9,0,1,,,,,,,,,,,,,,,,,,,,,,,,,,,,,,,
,,,,,,,,,,,,,,,89845,001,2022-04-29_15h12.25.974,SPAMnetsValid,2021.1.4,Win32,59.95203837,,,,,,,,,,,,,,,,,,,,,,,,,,,,,,,,,,,,,,,,,,,,,,,,,,,,to cuddle,pillow,10,0,10,0,1,,,,,,,,,,,,,,,,,,,,,,,,,,,,,,,
,,,,,,,,,,,,,,,89845,001,2022-04-29_15h12.25.974,SPAMnetsValid,2021.1.4,Win32,59.95203837,,,,,,,,,,,,,,,,,,,,,,,,,,,,,,,,,,,,,,,,,,,,,,,,,,,,to sleep on,pillow,11,0,11,0,1,,,,,,,,,,,,,,,,,,,,,,,,,,,,,,,
,,,,,,,,,,,,,,,89845,001,2022-04-29_15h12.25.974,SPAMnetsValid,2021.1.4,Win32,59.95203837,,,,,,,,,,,,,,,,,,,,,,,,,,,,,,,,,,,,,,,,,,,,,,,,,,,,to hide under,pillow,12,0,12,0,1,,,,,,,,,,,,,,,,,,,,,,,,,,,,,,,
,,,,,,,,,,,,,,,89845,001,2022-04-29_15h12.25.974,SPAMnetsValid,2021.1.4,Win32,59.95203837,,,,,,,,,,,,,,,,,,,,,,,,,,,,,,,,,,,,,,,,,,,,,,,,,,,,to throw,pillow,13,0,13,0,1,,,,,,,,,,,,,,,,,,,,,,,,,,,,,,,
,,,,,,,,,,,,,,,89845,001,2022-04-29_15h12.25.974,SPAMnetsValid,2021.1.4,Win32,59.95203837,,,,,,,,,,,,,,,,,,,,,,,,,,,,,,,,,,,,,,,,,,,,,,,,,,,,,,,,,,,0,1,1,2,1,pillow,,,,,,,,,,,,,,,,,,,,,,,,,
,,,,,,,,,,,,,,,89845,001,2022-04-29_15h12.25.974,SPAMnetsValid,2021.1.4,Win32,59.95203837,,,,,,,,,,,,,,,,,,,,,,,,,,,,,,,,,,,,,,,,,,,,,,,,,,,,to light it,candle,0,0,0,0,1,,,,,,,,,,,,,,,,,,,,,,,,,,,,,,,
,,,,,,,,,,,,,,,89845,001,2022-04-29_15h12.25.974,SPAMnetsValid,2021.1.4,Win32,59.95203837,,,,,,,,,,,,,,,,,,,,,,,,,,,,,,,,,,,,,,,,,,,,,,,,,,,,to make wax,candle,1,0,1,0,1,,,,,,,,,,,,,,,,,,,,,,,,,,,,,,,
,,,,,,,,,,,,,,,89845,001,2022-04-29_15h12.25.974,SPAMnetsValid,2021.1.4,Win32,59.95203837,,,,,,,,,,,,,,,,,,,,,,,,,,,,,,,,,,,,,,,,,,,,,,,,,,,,provide light,candle,2,0,2,0,1,,,,,,,,,,,,,,,,,,,,,,,,,,,,,,,
,,,,,,,,,,,,,,,89845,001,2022-04-29_15h12.25.974,SPAMnetsValid,2021.1.4,Win32,59.95203837,,,,,,,,,,,,,,,,,,,,,,,,,,,,,,,,,,,,,,,,,,,,,,,,,,,,smell good,candle,3,0,3,0,1,,,,,,,,,,,,,,,,,,,,,,,,,,,,,,,
,,,,,,,,,,,,,,,89845,001,2022-04-29_15h12.25.974,SPAMnetsValid,2021.1.4,Win32,59.95203837,,,,,,,,,,,,,,,,,,,,,,,,,,,,,,,,,,,,,,,,,,,,,,,,,,,,birthday cake celebrations,candle,4,0,4,0,1,,,,,,,,,,,,,,,,,,,,,,,,,,,,,,,
,,,,,,,,,,,,,,,89845,001,2022-04-29_15h12.25.974,SPAMnetsValid,2021.1.4,Win32,59.95203837,,,,,,,,,,,,,,,,,,,,,,,,,,,,,,,,,,,,,,,,,,,,,,,,,,,,to catch things on fire,candle,5,0,5,0,1,,,,,,,,,,,,,,,,,,,,,,,,,,,,,,,
,,,,,,,,,,,,,,,89845,001,2022-04-29_15h12.25.974,SPAMnetsValid,2021.1.4,Win32,59.95203837,,,,,,,,,,,,,,,,,,,,,,,,,,,,,,,,,,,,,,,,,,,,,,,,,,,,to read,candle,6,0,6,0,1,,,,,,,,,,,,,,,,,,,,,,,,,,,,,,,
,,,,,,,,,,,,,,,89845,001,2022-04-29_15h12.25.974,SPAMnetsValid,2021.1.4,Win32,59.95203837,,,,,,,,,,,,,,,,,,,,,,,,,,,,,,,,,,,,,,,,,,,,,,,,,,,,to melt things,candle,7,0,7,0,1,,,,,,,,,,,,,,,,,,,,,,,,,,,,,,,
,,,,,,,,,,,,,,,89845,001,2022-04-29_15h12.25.974,SPAMnetsValid,2021.1.4,Win32,59.95203837,,,,,,,,,,,,,,,,,,,,,,,,,,,,,,,,,,,,,,,,,,,,,,,,,,,,arson,candle,8,0,8,0,1,,,,,,,,,,,,,,,,,,,,,,,,,,,,,,,
,,,,,,,,,,,,,,,89845,001,2022-04-29_15h12.25.974,SPAMnetsValid,2021.1.4,Win32,59.95203837,,,,,,,,,,,,,,,,,,,,,,,,,,,,,,,,,,,,,,,,,,,,,,,,,,,,sparklers,candle,9,0,9,0,1,,,,,,,,,,,,,,,,,,,,,,,,,,,,,,,
,,,,,,,,,,,,,,,89845,001,2022-04-29_15h12.25.974,SPAMnetsValid,2021.1.4,Win32,59.95203837,,,,,,,,,,,,,,,,,,,,,,,,,,,,,,,,,,,,,,,,,,,,,,,,,,,,to see,candle,10,0,10,0,1,,,,,,,,,,,,,,,,,,,,,,,,,,,,,,,
,,,,,,,,,,,,,,,89845,001,2022-04-29_15h12.25.974,SPAMnetsValid,2021.1.4,Win32,59.95203837,,,,,,,,,,,,,,,,,,,,,,,,,,,,,,,,,,,,,,,,,,,,,,,,,,,,,,,,,,,0,2,2,1,1,candle,,,,,,,,,,,,,,,,,,,,,,,,,
,,,,,,,,,,,,,,,89845,001,2022-04-29_15h12.25.974,SPAMnetsValid,2021.1.4,Win32,59.95203837,,,,,,,,,,,,,,,,,,,,,,,,,,,,,,,,,,,,,,,,,,,,,,,,,,,,,,,,,,,,,,,,,cow,Animals,0,0,0,0,1,,,,,,,,,,,,,,,,,,
,,,,,,,,,,,,,,,89845,001,2022-04-29_15h12.25.974,SPAMnetsValid,2021.1.4,Win32,59.95203837,,,,,,,,,,,,,,,,,,,,,,,,,,,,,,,,,,,,,,,,,,,,,,,,,,,,,,,,,,,,,,,,,pig,Animals,1,0,1,0,1,,,,,,,,,,,,,,,,,,
,,,,,,,,,,,,,,,89845,001,2022-04-29_15h12.25.974,SPAMnetsValid,2021.1.4,Win32,59.95203837,,,,,,,,,,,,,,,,,,,,,,,,,,,,,,,,,,,,,,,,,,,,,,,,,,,,,,,,,,,,,,,,,penguin,Animals,2,0,2,0,1,,,,,,,,,,,,,,,,,,
,,,,,,,,,,,,,,,89845,001,2022-04-29_15h12.25.974,SPAMnetsValid,2021.1.4,Win32,59.95203837,,,,,,,,,,,,,,,,,,,,,,,,,,,,,,,,,,,,,,,,,,,,,,,,,,,,,,,,,,,,,,,,,polar bear,Animals,3,0,3,0,1,,,,,,,,,,,,,,,,,,
,,,,,,,,,,,,,,,89845,001,2022-04-29_15h12.25.974,SPAMnetsValid,2021.1.4,Win32,59.95203837,,,,,,,,,,,,,,,,,,,,,,,,,,,,,,,,,,,,,,,,,,,,,,,,,,,,,,,,,,,,,,,,,grizzly bear,Animals,4,0,4,0,1,,,,,,,,,,,,,,,,,,
,,,,,,,,,,,,,,,89845,001,2022-04-29_15h12.25.974,SPAMnetsValid,2021.1.4,Win32,59.95203837,,,,,,,,,,,,,,,,,,,,,,,,,,,,,,,,,,,,,,,,,,,,,,,,,,,,,,,,,,,,,,,,,black bear,Animals,5,0,5,0,1,,,,,,,,,,,,,,,,,,
,,,,,,,,,,,,,,,89845,001,2022-04-29_15h12.25.974,SPAMnetsValid,2021.1.4,Win32,59.95203837,,,,,,,,,,,,,,,,,,,,,,,,,,,,,,,,,,,,,,,,,,,,,,,,,,,,,,,,,,,,,,,,,fish,Animals,6,0,6,0,1,,,,,,,,,,,,,,,,,,
,,,,,,,,,,,,,,,89845,001,2022-04-29_15h12.25.974,SPAMnetsValid,2021.1.4,Win32,59.95203837,,,,,,,,,,,,,,,,,,,,,,,,,,,,,,,,,,,,,,,,,,,,,,,,,,,,,,,,,,,,,,,,,crab,Animals,7,0,7,0,1,,,,,,,,,,,,,,,,,,
,,,,,,,,,,,,,,,89845,001,2022-04-29_15h12.25.974,SPAMnetsValid,2021.1.4,Win32,59.95203837,,,,,,,,,,,,,,,,,,,,,,,,,,,,,,,,,,,,,,,,,,,,,,,,,,,,,,,,,,,,,,,,,horse,Animals,8,0,8,0,1,,,,,,,,,,,,,,,,,,
,,,,,,,,,,,,,,,89845,001,2022-04-29_15h12.25.974,SPAMnetsValid,2021.1.4,Win32,59.95203837,,,,,,,,,,,,,,,,,,,,,,,,,,,,,,,,,,,,,,,,,,,,,,,,,,,,,,,,,,,,,,,,,bird,Animals,9,0,9,0,1,,,,,,,,,,,,,,,,,,
,,,,,,,,,,,,,,,89845,001,2022-04-29_15h12.25.974,SPAMnetsValid,2021.1.4,Win32,59.95203837,,,,,,,,,,,,,,,,,,,,,,,,,,,,,,,,,,,,,,,,,,,,,,,,,,,,,,,,,,,,,,,,,whale,Animals,10,0,10,0,1,,,,,,,,,,,,,,,,,,
,,,,,,,,,,,,,,,89845,001,2022-04-29_15h12.25.974,SPAMnetsValid,2021.1.4,Win32,59.95203837,,,,,,,,,,,,,,,,,,,,,,,,,,,,,,,,,,,,,,,,,,,,,,,,,,,,,,,,,,,,,,,,,octupus,Animals,11,0,11,0,1,,,,,,,,,,,,,,,,,,
,,,,,,,,,,,,,,,89845,001,2022-04-29_15h12.25.974,SPAMnetsValid,2021.1.4,Win32,59.95203837,,,,,,,,,,,,,,,,,,,,,,,,,,,,,,,,,,,,,,,,,,,,,,,,,,,,,,,,,,,,,,,,,seahorse,Animals,12,0,12,0,1,,,,,,,,,,,,,,,,,,
,,,,,,,,,,,,,,,89845,001,2022-04-29_15h12.25.974,SPAMnetsValid,2021.1.4,Win32,59.95203837,,,,,,,,,,,,,,,,,,,,,,,,,,,,,,,,,,,,,,,,,,,,,,,,,,,,,,,,,,,,,,,,,spider,Animals,13,0,13,0,1,,,,,,,,,,,,,,,,,,
,,,,,,,,,,,,,,,89845,001,2022-04-29_15h12.25.974,SPAMnetsValid,2021.1.4,Win32,59.95203837,,,,,,,,,,,,,,,,,,,,,,,,,,,,,,,,,,,,,,,,,,,,,,,,,,,,,,,,,,,,,,,,,snake,Animals,14,0,14,0,1,,,,,,,,,,,,,,,,,,
,,,,,,,,,,,,,,,89845,001,2022-04-29_15h12.25.974,SPAMnetsValid,2021.1.4,Win32,59.95203837,,,,,,,,,,,,,,,,,,,,,,,,,,,,,,,,,,,,,,,,,,,,,,,,,,,,,,,,,,,,,,,,,elephant,Animals,15,0,15,0,1,,,,,,,,,,,,,,,,,,
,,,,,,,,,,,,,,,89845,001,2022-04-29_15h12.25.974,SPAMnetsValid,2021.1.4,Win32,59.95203837,,,,,,,,,,,,,,,,,,,,,,,,,,,,,,,,,,,,,,,,,,,,,,,,,,,,,,,,,,,,,,,,,giraffe,Animals,16,0,16,0,1,,,,,,,,,,,,,,,,,,
,,,,,,,,,,,,,,,89845,001,2022-04-29_15h12.25.974,SPAMnetsValid,2021.1.4,Win32,59.95203837,,,,,,,,,,,,,,,,,,,,,,,,,,,,,,,,,,,,,,,,,,,,,,,,,,,,,,,,,,,,,,,,,donkey,Animals,17,0,17,0,1,,,,,,,,,,,,,,,,,,
,,,,,,,,,,,,,,,89845,001,2022-04-29_15h12.25.974,SPAMnetsValid,2021.1.4,Win32,59.95203837,,,,,,,,,,,,,,,,,,,,,,,,,,,,,,,,,,,,,,,,,,,,,,,,,,,,,,,,,,,,,,,,,lamb,Animals,18,0,18,0,1,,,,,,,,,,,,,,,,,,
,,,,,,,,,,,,,,,89845,001,2022-04-29_15h12.25.974,SPAMnetsValid,2021.1.4,Win32,59.95203837,,,,,,,,,,,,,,,,,,,,,,,,,,,,,,,,,,,,,,,,,,,,,,,,,,,,,,,,,,,,,,,,,sheep,Animals,19,0,19,0,1,,,,,,,,,,,,,,,,,,
,,,,,,,,,,,,,,,89845,001,2022-04-29_15h12.25.974,SPAMnetsValid,2021.1.4,Win32,59.95203837,,,,,,,,,,,,,,,,,,,,,,,,,,,,,,,,,,,,,,,,,,,,,,,,,,,,,,,,,,,,,,,,,lizard,Animals,20,0,20,0,1,,,,,,,,,,,,,,,,,,
,,,,,,,,,,,,,,,89845,001,2022-04-29_15h12.25.974,SPAMnetsValid,2021.1.4,Win32,59.95203837,,,,,,,,,,,,,,,,,,,,,,,,,,,,,,,,,,,,,,,,,,,,,,,,,,,,,,,,,,,,,,,,,shark,Animals,21,0,21,0,1,,,,,,,,,,,,,,,,,,
,,,,,,,,,,,,,,,89845,001,2022-04-29_15h12.25.974,SPAMnetsValid,2021.1.4,Win32,59.95203837,,,,,,,,,,,,,,,,,,,,,,,,,,,,,,,,,,,,,,,,,,,,,,,,,,,,,,,,,,,,,,,,,alligator,Animals,22,0,22,0,1,,,,,,,,,,,,,,,,,,
,,,,,,,,,,,,,,,89845,001,2022-04-29_15h12.25.974,SPAMnetsValid,2021.1.4,Win32,59.95203837,,,,,,,,,,,,,,,,,,,,,,,,,,,,,,,,,,,,,,,,,,,,,,,,,,,,,,,,,,,,,,,,,iguana,Animals,23,0,23,0,1,,,,,,,,,,,,,,,,,,
,,,,,,,,,,,,,,,89845,001,2022-04-29_15h12.25.974,SPAMnetsValid,2021.1.4,Win32,59.95203837,,,,,,,,,,,,,,,,,,,,,,,,,,,,,,,,,,,,,,,,,,,,,,,,,,,,,,,,,,,,,,,,,tocan,Animals,24,0,24,0,1,,,,,,,,,,,,,,,,,,
,,,,,,,,,,,,,,,89845,001,2022-04-29_15h12.25.974,SPAMnetsValid,2021.1.4,Win32,59.95203837,,,,,,,,,,,,,,,,,,,,,,,,,,,,,,,,,,,,,,,,,,,,,,,,,,,,,,,,,,,,,,,,,flamingo,Animals,25,0,25,0,1,,,,,,,,,,,,,,,,,,
,,,,,,,,,,,,,,,89845,001,2022-04-29_15h12.25.974,SPAMnetsValid,2021.1.4,Win32,59.95203837,,,,,,,,,,,,,,,,,,,,,,,,,,,,,,,,,,,,,,,,,,,,,,,,,,,,,,,,,,,,,,,,,tiger,Animals,26,0,26,0,1,,,,,,,,,,,,,,,,,,
,,,,,,,,,,,,,,,89845,001,2022-04-29_15h12.25.974,SPAMnetsValid,2021.1.4,Win32,59.95203837,,,,,,,,,,,,,,,,,,,,,,,,,,,,,,,,,,,,,,,,,,,,,,,,,,,,,,,,,,,,,,,,,lion,Animals,27,0,27,0,1,,,,,,,,,,,,,,,,,,
,,,,,,,,,,,,,,,89845,001,2022-04-29_15h12.25.974,SPAMnetsValid,2021.1.4,Win32,59.95203837,,,,,,,,,,,,,,,,,,,,,,,,,,,,,,,,,,,,,,,,,,,,,,,,,,,,,,,,,,,,,,,,,peacock,Animals,28,0,28,0,1,,,,,,,,,,,,,,,,,,
,,,,,,,,,,,,,,,89845,001,2022-04-29_15h12.25.974,SPAMnetsValid,2021.1.4,Win32,59.95203837,,,,,,,,,,,,,,,,,,,,,,,,,,,,,,,,,,,,,,,,,,,,,,,,,,,,,,,,,,,,,,,,,dog,Animals,29,0,29,0,1,,,,,,,,,,,,,,,,,,
,,,,,,,,,,,,,,,89845,001,2022-04-29_15h12.25.974,SPAMnetsValid,2021.1.4,Win32,59.95203837,,,,,,,,,,,,,,,,,,,,,,,,,,,,,,,,,,,,,,,,,,,,,,,,,,,,,,,,,,,,,,,,,cat,Animals,30,0,30,0,1,,,,,,,,,,,,,,,,,,
,,,,,,,,,,,,,,,89845,001,2022-04-29_15h12.25.974,SPAMnetsValid,2021.1.4,Win32,59.95203837,,,,,,,,,,,,,,,,,,,,,,,,,,,,,,,,,,,,,,,,,,,,,,,,,,,,,,,,,,,,,,,,,bug,Animals,31,0,31,0,1,,,,,,,,,,,,,,,,,,
,,,,,,,,,,,,,,,89845,001,2022-04-29_15h12.25.974,SPAMnetsValid,2021.1.4,Win32,59.95203837,,,,,,,,,,,,,,,,,,,,,,,,,,,,,,,,,,,,,,,,,,,,,,,,,,,,,,,,,,,,,,,,,squirrel,Animals,32,0,32,0,1,,,,,,,,,,,,,,,,,,
,,,,,,,,,,,,,,,89845,001,2022-04-29_15h12.25.974,SPAMnetsValid,2021.1.4,Win32,59.95203837,,,,,,,,,,,,,,,,,,,,,,,,,,,,,,,,,,,,,,,,,,,,,,,,,,,,,,,,,,,,,,,,,sloth,Animals,33,0,33,0,1,,,,,,,,,,,,,,,,,,
,,,,,,,,,,,,,,,89845,001,2022-04-29_15h12.25.974,SPAMnetsValid,2021.1.4,Win32,59.95203837,,,,,,,,,,,,,,,,,,,,,,,,,,,,,,,,,,,,,,,,,,,,,,,,,,,,,,,,,,,,,,,,,,,,,,,,0,0,0,0,1,Animals,,,,,,,,,,,,
,,,,,,,,,,,,,,,89845,001,2022-04-29_15h12.25.974,SPAMnetsValid,2021.1.4,Win32,59.95203837,,,,,,,,,,,,,,,,,,,,,,,,,,,,,,,,,,,,,,,,,,,,,,,,,,,,,,,,,,,,,,,,,,,,,,,,,,,,,,3,16.296,0,0,0,0,1,"I enjoy concentrating on a fantasy or daydream and exploring all its possibilities, letting it grow and develop.",0,1,,
,,,,,,,,,,,,,,,89845,001,2022-04-29_15h12.25.974,SPAMnetsValid,2021.1.4,Win32,59.95203837,,,,,,,,,,,,,,,,,,,,,,,,,,,,,,,,,,,,,,,,,,,,,,,,,,,,,,,,,,,,,,,,,,,,,,,,,,,,,,4,2.005,0,1,1,1,1,I think it's interesting to learn and develop new hobbies.,0,2,,
,,,,,,,,,,,,,,,89845,001,2022-04-29_15h12.25.974,SPAMnetsValid,2021.1.4,Win32,59.95203837,,,,,,,,,,,,,,,,,,,,,,,,,,,,,,,,,,,,,,,,,,,,,,,,,,,,,,,,,,,,,,,,,,,,,,,,,,,,,,2,5.153,0,2,2,2,1,I am intrigued by the patterns I find in art and nature.,0,3,,
,,,,,,,,,,,,,,,89845,001,2022-04-29_15h12.25.974,SPAMnetsValid,2021.1.4,Win32,59.95203837,,,,,,,,,,,,,,,,,,,,,,,,,,,,,,,,,,,,,,,,,,,,,,,,,,,,,,,,,,,,,,,,,,,,,,,,,,,,,,2,43.669,0,3,3,3,1,I believe letting students hear controversial speakers can only confuse and mislead them.,1,4,,
,,,,,,,,,,,,,,,89845,001,2022-04-29_15h12.25.974,SPAMnetsValid,2021.1.4,Win32,59.95203837,,,,,,,,,,,,,,,,,,,,,,,,,,,,,,,,,,,,,,,,,,,,,,,,,,,,,,,,,,,,,,,,,,,,,,,,,,,,,,3,22.382,0,4,4,4,1,Poetry has little or no effect on me.,1,5,,
,,,,,,,,,,,,,,,89845,001,2022-04-29_15h12.25.974,SPAMnetsValid,2021.1.4,Win32,59.95203837,,,,,,,,,,,,,,,,,,,,,,,,,,,,,,,,,,,,,,,,,,,,,,,,,,,,,,,,,,,,,,,,,,,,,,,,,,,,,,2,13.281,0,5,5,5,1,I would have difficulty just letting my mind wander without control or guidance.,1,6,,
,,,,,,,,,,,,,,,89845,001,2022-04-29_15h12.25.974,SPAMnetsValid,2021.1.4,Win32,59.95203837,,,,,,,,,,,,,,,,,,,,,,,,,,,,,,,,,,,,,,,,,,,,,,,,,,,,,,,,,,,,,,,,,,,,,,,,,,,,,,4,32.641,0,6,6,6,1,I seldom notice the moods or feelings that different environments produce.,1,7,,
,,,,,,,,,,,,,,,89845,001,2022-04-29_15h12.25.974,SPAMnetsValid,2021.1.4,Win32,59.95203837,,,,,,,,,,,,,,,,,,,,,,,,,,,,,,,,,,,,,,,,,,,,,,,,,,,,,,,,,,,,,,,,,,,,,,,,,,,,,,2,3.303,0,7,7,7,1,I experience a wide range of emotions or feelings.,0,8,,
,,,,,,,,,,,,,,,89845,001,2022-04-29_15h12.25.974,SPAMnetsValid,2021.1.4,Win32,59.95203837,,,,,,,,,,,,,,,,,,,,,,,,,,,,,,,,,,,,,,,,,,,,,,,,,,,,,,,,,,,,,,,,,,,,,,,,,,,,,,2,23.081,0,8,8,8,1,"Sometimes when I am reading poetry or looking at a work of art, I feel a chill or wave of excitement.",0,9,,
,,,,,,,,,,,,,,,89845,001,2022-04-29_15h12.25.974,SPAMnetsValid,2021.1.4,Win32,59.95203837,,,,,,,,,,,,,,,,,,,,,,,,,,,,,,,,,,,,,,,,,,,,,,,,,,,,,,,,,,,,,,,,,,,,,,,,,,,,,,3,7.099,0,9,9,9,1,I have little interest in speculating on the nature of the universe or the human condition.,1,10,,
,,,,,,,,,,,,,,,89845,001,2022-04-29_15h12.25.974,SPAMnetsValid,2021.1.4,Win32,59.95203837,,,,,,,,,,,,,,,,,,,,,,,,,,,,,,,,,,,,,,,,,,,,,,,,,,,,,,,,,,,,,,,,,,,,,,,,,,,,,,4,2.02,0,10,10,10,1,I have a lot of intellectual curiosity.,0,11,,
,,,,,,,,,,,,,,,89845,001,2022-04-29_15h12.25.974,SPAMnetsValid,2021.1.4,Win32,59.95203837,,,,,,,,,,,,,,,,,,,,,,,,,,,,,,,,,,,,,,,,,,,,,,,,,,,,,,,,,,,,,,,,,,,,,,,,,,,,,,4,2.426,0,11,11,11,1,I often enjoy playing with theories or abstract ideas.,0,12,,
,,,,,,,,,,,,,,,89845,001,2022-04-29_15h12.25.974,SPAMnetsValid,2021.1.4,Win32,59.95203837,,,,,,,,,,,,,,,,,,,,,,,,,,,,,,,,,,,,,,,,,,,,,,,,,,,,,,,,,,,,,,,,,,,,,,,,,,,,,,,,,,,,,,,,return,37.711
