key_resp_3.keys,key_resp_3.rt,slider_2.response,slider_2.rt,rjt_rating,rjt_RT,trials_24.thisRepN,trials_24.thisTrialN,trials_24.thisN,trials_24.thisIndex,trials_24.ran,rjt_order,word1,word2,attention,participant,session,date,expName,psychopyVersion,OS,frameRate,trials_4.thisRepN,trials_4.thisTrialN,trials_4.thisN,trials_4.thisIndex,trials_4.ran,trials_5.thisRepN,trials_5.thisTrialN,trials_5.thisN,trials_5.thisIndex,trials_5.ran,repOne,repTwo,slider.response,slider.rt,trials_22.thisRepN,trials_22.thisTrialN,trials_22.thisN,trials_22.thisIndex,trials_22.ran,trials_99.thisRepN,trials_99.thisTrialN,trials_99.thisN,trials_99.thisIndex,trials_99.ran,slider_extend_2.response,slider_extend_2.rt,trials_6.thisRepN,trials_6.thisTrialN,trials_6.thisN,trials_6.thisIndex,trials_6.ran,vCue2,R1,R2,R3,R4,correct,sliderVocab.response,sliderVocab.rt,trials_7.thisRepN,trials_7.thisTrialN,trials_7.thisN,trials_7.thisIndex,trials_7.ran,VocabCue,VR1,VR2,VR3,VR4,VR5,VocabCorrect,trials_2.thisRepN,trials_2.thisTrialN,trials_2.thisN,trials_2.thisIndex,trials_2.ran,aut_prompt,AUT_resp,AUT_label,trials.thisRepN,trials.thisTrialN,trials.thisN,trials.thisIndex,trials.ran,VF_response,VF_tag,trials_16.thisRepN,trials_16.thisTrialN,trials_16.thisN,trials_16.thisIndex,trials_16.ran,trials_17.thisRepN,trials_17.thisTrialN,trials_17.thisN,trials_17.thisIndex,trials_17.ran,VFcond,open_slider.response,open_slider.rt,trials_3.thisRepN,trials_3.thisTrialN,trials_3.thisN,trials_3.thisIndex,trials_3.ran,OpenQ,Rev,OPEN_ORDER,key_resp_2.keys,key_resp_2.rt
return,26.039,1,23.607,1,23.607,0,0,0,84,1,130,microwave,yogurt,,89849,001,2022-04-24_22h12.21.160,SPAMnetsValid,2021.1.4,MacIntel,66.66666667,,,,,,,,,,,,,,,,,,,,,,,,,,,,,,,,,,,,,,,,,,,,,,,,,,,,,,,,,,,,,,,,,,,,,,,,,,,,,,,,,,,,,,,,,
,,6,4.57,6,4.57,0,1,1,23,1,148,flower,melon,,89849,001,2022-04-24_22h12.21.160,SPAMnetsValid,2021.1.4,MacIntel,66.66666667,,,,,,,,,,,,,,,,,,,,,,,,,,,,,,,,,,,,,,,,,,,,,,,,,,,,,,,,,,,,,,,,,,,,,,,,,,,,,,,,,,,,,,,,,
,,4,4.672,4,4.672,0,2,2,48,1,186,kitchen,yogurt,,89849,001,2022-04-24_22h12.21.160,SPAMnetsValid,2021.1.4,MacIntel,66.66666667,,,,,,,,,,,,,,,,,,,,,,,,,,,,,,,,,,,,,,,,,,,,,,,,,,,,,,,,,,,,,,,,,,,,,,,,,,,,,,,,,,,,,,,,,
,,9,2.686,9,2.686,0,3,3,61,1,138,flower,rose,,89849,001,2022-04-24_22h12.21.160,SPAMnetsValid,2021.1.4,MacIntel,66.66666667,,,,,,,,,,,,,,,,,,,,,,,,,,,,,,,,,,,,,,,,,,,,,,,,,,,,,,,,,,,,,,,,,,,,,,,,,,,,,,,,,,,,,,,,,
,,7,5.348,7,5.348,0,4,4,43,1,185,cactus,rose,,89849,001,2022-04-24_22h12.21.160,SPAMnetsValid,2021.1.4,MacIntel,66.66666667,,,,,,,,,,,,,,,,,,,,,,,,,,,,,,,,,,,,,,,,,,,,,,,,,,,,,,,,,,,,,,,,,,,,,,,,,,,,,,,,,,,,,,,,,
,,2,3.121,2,3.121,0,5,5,42,1,184,oven,pretzel,,89849,001,2022-04-24_22h12.21.160,SPAMnetsValid,2021.1.4,MacIntel,66.66666667,,,,,,,,,,,,,,,,,,,,,,,,,,,,,,,,,,,,,,,,,,,,,,,,,,,,,,,,,,,,,,,,,,,,,,,,,,,,,,,,,,,,,,,,,
,,1,1.668,1,1.668,0,6,6,10,1,118,chocolate,oven,,89849,001,2022-04-24_22h12.21.160,SPAMnetsValid,2021.1.4,MacIntel,66.66666667,,,,,,,,,,,,,,,,,,,,,,,,,,,,,,,,,,,,,,,,,,,,,,,,,,,,,,,,,,,,,,,,,,,,,,,,,,,,,,,,,,,,,,,,,
,,9,2.419,9,2.419,0,7,7,66,1,150,microwave,refrigerator,,89849,001,2022-04-24_22h12.21.160,SPAMnetsValid,2021.1.4,MacIntel,66.66666667,,,,,,,,,,,,,,,,,,,,,,,,,,,,,,,,,,,,,,,,,,,,,,,,,,,,,,,,,,,,,,,,,,,,,,,,,,,,,,,,,,,,,,,,,
,,6,140.624,6,140.624,0,8,8,56,1,113,refrigerator,strawberry,,89849,001,2022-04-24_22h12.21.160,SPAMnetsValid,2021.1.4,MacIntel,66.66666667,,,,,,,,,,,,,,,,,,,,,,,,,,,,,,,,,,,,,,,,,,,,,,,,,,,,,,,,,,,,,,,,,,,,,,,,,,,,,,,,,,,,,,,,,
,,8,1.926,8,1.926,0,9,9,53,1,177,chocolate,strawberry,,89849,001,2022-04-24_22h12.21.160,SPAMnetsValid,2021.1.4,MacIntel,66.66666667,,,,,,,,,,,,,,,,,,,,,,,,,,,,,,,,,,,,,,,,,,,,,,,,,,,,,,,,,,,,,,,,,,,,,,,,,,,,,,,,,,,,,,,,,
,,1,3.548,1,3.548,0,10,10,54,1,101,cactus,kitchen,,89849,001,2022-04-24_22h12.21.160,SPAMnetsValid,2021.1.4,MacIntel,66.66666667,,,,,,,,,,,,,,,,,,,,,,,,,,,,,,,,,,,,,,,,,,,,,,,,,,,,,,,,,,,,,,,,,,,,,,,,,,,,,,,,,,,,,,,,,
,,6,2.745,6,2.745,0,11,11,38,1,155,carrot,cookie,,89849,001,2022-04-24_22h12.21.160,SPAMnetsValid,2021.1.4,MacIntel,66.66666667,,,,,,,,,,,,,,,,,,,,,,,,,,,,,,,,,,,,,,,,,,,,,,,,,,,,,,,,,,,,,,,,,,,,,,,,,,,,,,,,,,,,,,,,,
,,1,1.614,1,1.614,0,12,12,32,1,182,flower,refrigerator,,89849,001,2022-04-24_22h12.21.160,SPAMnetsValid,2021.1.4,MacIntel,66.66666667,,,,,,,,,,,,,,,,,,,,,,,,,,,,,,,,,,,,,,,,,,,,,,,,,,,,,,,,,,,,,,,,,,,,,,,,,,,,,,,,,,,,,,,,,
,,1,1.112,1,1.112,0,13,13,50,1,126,kitchen,tree,,89849,001,2022-04-24_22h12.21.160,SPAMnetsValid,2021.1.4,MacIntel,66.66666667,,,,,,,,,,,,,,,,,,,,,,,,,,,,,,,,,,,,,,,,,,,,,,,,,,,,,,,,,,,,,,,,,,,,,,,,,,,,,,,,,,,,,,,,,
,,6,1.428,6,1.428,0,14,14,87,1,114,cookie,strawberry,,89849,001,2022-04-24_22h12.21.160,SPAMnetsValid,2021.1.4,MacIntel,66.66666667,,,,,,,,,,,,,,,,,,,,,,,,,,,,,,,,,,,,,,,,,,,,,,,,,,,,,,,,,,,,,,,,,,,,,,,,,,,,,,,,,,,,,,,,,
,,1,434.886,1,434.886,0,15,15,3,1,129,cactus,refrigerator,,89849,001,2022-04-24_22h12.21.160,SPAMnetsValid,2021.1.4,MacIntel,66.66666667,,,,,,,,,,,,,,,,,,,,,,,,,,,,,,,,,,,,,,,,,,,,,,,,,,,,,,,,,,,,,,,,,,,,,,,,,,,,,,,,,,,,,,,,,
,,6,1.754,6,1.754,0,16,16,76,1,102,chocolate,refrigerator,,89849,001,2022-04-24_22h12.21.160,SPAMnetsValid,2021.1.4,MacIntel,66.66666667,,,,,,,,,,,,,,,,,,,,,,,,,,,,,,,,,,,,,,,,,,,,,,,,,,,,,,,,,,,,,,,,,,,,,,,,,,,,,,,,,,,,,,,,,
,,7,2.658,7,2.658,0,17,17,29,1,163,melon,refrigerator,,89849,001,2022-04-24_22h12.21.160,SPAMnetsValid,2021.1.4,MacIntel,66.66666667,,,,,,,,,,,,,,,,,,,,,,,,,,,,,,,,,,,,,,,,,,,,,,,,,,,,,,,,,,,,,,,,,,,,,,,,,,,,,,,,,,,,,,,,,
,,9,1.913,9,1.913,0,18,18,14,1,120,microwave,oven,,89849,001,2022-04-24_22h12.21.160,SPAMnetsValid,2021.1.4,MacIntel,66.66666667,,,,,,,,,,,,,,,,,,,,,,,,,,,,,,,,,,,,,,,,,,,,,,,,,,,,,,,,,,,,,,,,,,,,,,,,,,,,,,,,,,,,,,,,,
,,1,1.611,1,1.611,0,19,19,63,1,137,microwave,tree,,89849,001,2022-04-24_22h12.21.160,SPAMnetsValid,2021.1.4,MacIntel,66.66666667,,,,,,,,,,,,,,,,,,,,,,,,,,,,,,,,,,,,,,,,,,,,,,,,,,,,,,,,,,,,,,,,,,,,,,,,,,,,,,,,,,,,,,,,,
,,1,2.803,1,2.803,0,20,20,94,1,133,cake,flower,,89849,001,2022-04-24_22h12.21.160,SPAMnetsValid,2021.1.4,MacIntel,66.66666667,,,,,,,,,,,,,,,,,,,,,,,,,,,,,,,,,,,,,,,,,,,,,,,,,,,,,,,,,,,,,,,,,,,,,,,,,,,,,,,,,,,,,,,,,
,,9,6.704,9,6.704,0,21,21,60,1,122,flower,garden,,89849,001,2022-04-24_22h12.21.160,SPAMnetsValid,2021.1.4,MacIntel,66.66666667,,,,,,,,,,,,,,,,,,,,,,,,,,,,,,,,,,,,,,,,,,,,,,,,,,,,,,,,,,,,,,,,,,,,,,,,,,,,,,,,,,,,,,,,,
,,1,1.986,1,1.986,0,22,22,19,1,183,cake,rose,,89849,001,2022-04-24_22h12.21.160,SPAMnetsValid,2021.1.4,MacIntel,66.66666667,,,,,,,,,,,,,,,,,,,,,,,,,,,,,,,,,,,,,,,,,,,,,,,,,,,,,,,,,,,,,,,,,,,,,,,,,,,,,,,,,,,,,,,,,
,,1,1.529,1,1.529,0,23,23,88,1,171,cake,tomato,,89849,001,2022-04-24_22h12.21.160,SPAMnetsValid,2021.1.4,MacIntel,66.66666667,,,,,,,,,,,,,,,,,,,,,,,,,,,,,,,,,,,,,,,,,,,,,,,,,,,,,,,,,,,,,,,,,,,,,,,,,,,,,,,,,,,,,,,,,
,,1,2.147,1,2.147,0,24,24,40,1,165,onion,rose,,89849,001,2022-04-24_22h12.21.160,SPAMnetsValid,2021.1.4,MacIntel,66.66666667,,,,,,,,,,,,,,,,,,,,,,,,,,,,,,,,,,,,,,,,,,,,,,,,,,,,,,,,,,,,,,,,,,,,,,,,,,,,,,,,,,,,,,,,,
,,6,3.302,6,3.302,0,25,25,26,1,107,rose,tomato,,89849,001,2022-04-24_22h12.21.160,SPAMnetsValid,2021.1.4,MacIntel,66.66666667,,,,,,,,,,,,,,,,,,,,,,,,,,,,,,,,,,,,,,,,,,,,,,,,,,,,,,,,,,,,,,,,,,,,,,,,,,,,,,,,,,,,,,,,,
,,3,13.696,3,13.696,0,26,26,96,1,136,chocolate,microwave,,89849,001,2022-04-24_22h12.21.160,SPAMnetsValid,2021.1.4,MacIntel,66.66666667,,,,,,,,,,,,,,,,,,,,,,,,,,,,,,,,,,,,,,,,,,,,,,,,,,,,,,,,,,,,,,,,,,,,,,,,,,,,,,,,,,,,,,,,,
,,6,69.974,6,69.974,0,27,27,0,1,106,cake,strawberry,,89849,001,2022-04-24_22h12.21.160,SPAMnetsValid,2021.1.4,MacIntel,66.66666667,,,,,,,,,,,,,,,,,,,,,,,,,,,,,,,,,,,,,,,,,,,,,,,,,,,,,,,,,,,,,,,,,,,,,,,,,,,,,,,,,,,,,,,,,
,,7,1.831,7,1.831,0,28,28,89,1,140,cookie,refrigerator,,89849,001,2022-04-24_22h12.21.160,SPAMnetsValid,2021.1.4,MacIntel,66.66666667,,,,,,,,,,,,,,,,,,,,,,,,,,,,,,,,,,,,,,,,,,,,,,,,,,,,,,,,,,,,,,,,,,,,,,,,,,,,,,,,,,,,,,,,,
,,1,1.795,1,1.795,0,29,29,21,1,159,cookie,flower,,89849,001,2022-04-24_22h12.21.160,SPAMnetsValid,2021.1.4,MacIntel,66.66666667,,,,,,,,,,,,,,,,,,,,,,,,,,,,,,,,,,,,,,,,,,,,,,,,,,,,,,,,,,,,,,,,,,,,,,,,,,,,,,,,,,,,,,,,,
,,2,2.244,2,2.244,0,30,30,24,1,169,onion,yogurt,,89849,001,2022-04-24_22h12.21.160,SPAMnetsValid,2021.1.4,MacIntel,66.66666667,,,,,,,,,,,,,,,,,,,,,,,,,,,,,,,,,,,,,,,,,,,,,,,,,,,,,,,,,,,,,,,,,,,,,,,,,,,,,,,,,,,,,,,,,
,,4,3.513,4,3.513,0,31,31,64,1,157,refrigerator,rose,,89849,001,2022-04-24_22h12.21.160,SPAMnetsValid,2021.1.4,MacIntel,66.66666667,,,,,,,,,,,,,,,,,,,,,,,,,,,,,,,,,,,,,,,,,,,,,,,,,,,,,,,,,,,,,,,,,,,,,,,,,,,,,,,,,,,,,,,,,
,,4,1.537,4,1.537,0,32,32,5,1,108,carrot,chocolate,,89849,001,2022-04-24_22h12.21.160,SPAMnetsValid,2021.1.4,MacIntel,66.66666667,,,,,,,,,,,,,,,,,,,,,,,,,,,,,,,,,,,,,,,,,,,,,,,,,,,,,,,,,,,,,,,,,,,,,,,,,,,,,,,,,,,,,,,,,
,,9,37.997,9,37.997,0,33,33,69,1,124,oven,refrigerator,,89849,001,2022-04-24_22h12.21.160,SPAMnetsValid,2021.1.4,MacIntel,66.66666667,,,,,,,,,,,,,,,,,,,,,,,,,,,,,,,,,,,,,,,,,,,,,,,,,,,,,,,,,,,,,,,,,,,,,,,,,,,,,,,,,,,,,,,,,
,,6,1.854,6,1.854,0,34,34,72,1,181,carrot,kitchen,,89849,001,2022-04-24_22h12.21.160,SPAMnetsValid,2021.1.4,MacIntel,66.66666667,,,,,,,,,,,,,,,,,,,,,,,,,,,,,,,,,,,,,,,,,,,,,,,,,,,,,,,,,,,,,,,,,,,,,,,,,,,,,,,,,,,,,,,,,
,,4,1.872,4,1.872,0,35,35,74,1,128,melon,microwave,,89849,001,2022-04-24_22h12.21.160,SPAMnetsValid,2021.1.4,MacIntel,66.66666667,,,,,,,,,,,,,,,,,,,,,,,,,,,,,,,,,,,,,,,,,,,,,,,,,,,,,,,,,,,,,,,,,,,,,,,,,,,,,,,,,,,,,,,,,
,,2,2.98,2,2.98,0,36,36,79,1,103,pretzel,tomato,,89849,001,2022-04-24_22h12.21.160,SPAMnetsValid,2021.1.4,MacIntel,66.66666667,,,,,,,,,,,,,,,,,,,,,,,,,,,,,,,,,,,,,,,,,,,,,,,,,,,,,,,,,,,,,,,,,,,,,,,,,,,,,,,,,,,,,,,,,
,,6,1.471,6,1.471,0,37,37,39,1,112,cake,carrot,,89849,001,2022-04-24_22h12.21.160,SPAMnetsValid,2021.1.4,MacIntel,66.66666667,,,,,,,,,,,,,,,,,,,,,,,,,,,,,,,,,,,,,,,,,,,,,,,,,,,,,,,,,,,,,,,,,,,,,,,,,,,,,,,,,,,,,,,,,
,,7,3.421,7,3.421,0,38,38,91,1,166,cake,yogurt,,89849,001,2022-04-24_22h12.21.160,SPAMnetsValid,2021.1.4,MacIntel,66.66666667,,,,,,,,,,,,,,,,,,,,,,,,,,,,,,,,,,,,,,,,,,,,,,,,,,,,,,,,,,,,,,,,,,,,,,,,,,,,,,,,,,,,,,,,,
,,9,9.631,9,9.631,0,39,39,83,1,100,garden,tomato,,89849,001,2022-04-24_22h12.21.160,SPAMnetsValid,2021.1.4,MacIntel,66.66666667,,,,,,,,,,,,,,,,,,,,,,,,,,,,,,,,,,,,,,,,,,,,,,,,,,,,,,,,,,,,,,,,,,,,,,,,,,,,,,,,,,,,,,,,,
,,4,4.987,4,4.987,0,40,40,34,1,153,carrot,pretzel,,89849,001,2022-04-24_22h12.21.160,SPAMnetsValid,2021.1.4,MacIntel,66.66666667,,,,,,,,,,,,,,,,,,,,,,,,,,,,,,,,,,,,,,,,,,,,,,,,,,,,,,,,,,,,,,,,,,,,,,,,,,,,,,,,,,,,,,,,,
,,3,2.098,3,2.098,0,41,41,58,1,144,cake,garden,,89849,001,2022-04-24_22h12.21.160,SPAMnetsValid,2021.1.4,MacIntel,66.66666667,,,,,,,,,,,,,,,,,,,,,,,,,,,,,,,,,,,,,,,,,,,,,,,,,,,,,,,,,,,,,,,,,,,,,,,,,,,,,,,,,,,,,,,,,
,,1,4.349,1,4.349,0,42,42,12,1,162,microwave,tomato,,89849,001,2022-04-24_22h12.21.160,SPAMnetsValid,2021.1.4,MacIntel,66.66666667,,,,,,,,,,,,,,,,,,,,,,,,,,,,,,,,,,,,,,,,,,,,,,,,,,,,,,,,,,,,,,,,,,,,,,,,,,,,,,,,,,,,,,,,,
,,1,1.37,1,1.37,0,43,43,78,1,132,broom,tree,,89849,001,2022-04-24_22h12.21.160,SPAMnetsValid,2021.1.4,MacIntel,66.66666667,,,,,,,,,,,,,,,,,,,,,,,,,,,,,,,,,,,,,,,,,,,,,,,,,,,,,,,,,,,,,,,,,,,,,,,,,,,,,,,,,,,,,,,,,
,,1,8.237,1,8.237,0,44,44,90,1,190,microwave,strawberry,,89849,001,2022-04-24_22h12.21.160,SPAMnetsValid,2021.1.4,MacIntel,66.66666667,,,,,,,,,,,,,,,,,,,,,,,,,,,,,,,,,,,,,,,,,,,,,,,,,,,,,,,,,,,,,,,,,,,,,,,,,,,,,,,,,,,,,,,,,
,,9,1.998,9,1.998,0,45,45,47,1,167,carrot,garden,,89849,001,2022-04-24_22h12.21.160,SPAMnetsValid,2021.1.4,MacIntel,66.66666667,,,,,,,,,,,,,,,,,,,,,,,,,,,,,,,,,,,,,,,,,,,,,,,,,,,,,,,,,,,,,,,,,,,,,,,,,,,,,,,,,,,,,,,,,
,,2,3.314,2,3.314,0,46,46,59,1,164,cookie,garden,,89849,001,2022-04-24_22h12.21.160,SPAMnetsValid,2021.1.4,MacIntel,66.66666667,,,,,,,,,,,,,,,,,,,,,,,,,,,,,,,,,,,,,,,,,,,,,,,,,,,,,,,,,,,,,,,,,,,,,,,,,,,,,,,,,,,,,,,,,
,,1,1.122,1,1.122,0,47,47,4,1,109,broom,strawberry,,89849,001,2022-04-24_22h12.21.160,SPAMnetsValid,2021.1.4,MacIntel,66.66666667,,,,,,,,,,,,,,,,,,,,,,,,,,,,,,,,,,,,,,,,,,,,,,,,,,,,,,,,,,,,,,,,,,,,,,,,,,,,,,,,,,,,,,,,,
,,4,4.063,4,4.063,0,48,48,80,1,146,pretzel,tree,,89849,001,2022-04-24_22h12.21.160,SPAMnetsValid,2021.1.4,MacIntel,66.66666667,,,,,,,,,,,,,,,,,,,,,,,,,,,,,,,,,,,,,,,,,,,,,,,,,,,,,,,,,,,,,,,,,,,,,,,,,,,,,,,,,,,,,,,,,
,,2,516.471,2,516.471,0,49,49,31,1,156,melon,rose,,89849,001,2022-04-24_22h12.21.160,SPAMnetsValid,2021.1.4,MacIntel,66.66666667,,,,,,,,,,,,,,,,,,,,,,,,,,,,,,,,,,,,,,,,,,,,,,,,,,,,,,,,,,,,,,,,,,,,,,,,,,,,,,,,,,,,,,,,,
,,7,1.918,7,1.918,0,50,50,7,1,188,flower,tree,,89849,001,2022-04-24_22h12.21.160,SPAMnetsValid,2021.1.4,MacIntel,66.66666667,,,,,,,,,,,,,,,,,,,,,,,,,,,,,,,,,,,,,,,,,,,,,,,,,,,,,,,,,,,,,,,,,,,,,,,,,,,,,,,,,,,,,,,,,
,,6,1.905,6,1.905,0,51,51,93,1,134,carrot,flower,,89849,001,2022-04-24_22h12.21.160,SPAMnetsValid,2021.1.4,MacIntel,66.66666667,,,,,,,,,,,,,,,,,,,,,,,,,,,,,,,,,,,,,,,,,,,,,,,,,,,,,,,,,,,,,,,,,,,,,,,,,,,,,,,,,,,,,,,,,
,,4,3.163,4,3.163,0,52,52,1,1,173,kitchen,tomato,,89849,001,2022-04-24_22h12.21.160,SPAMnetsValid,2021.1.4,MacIntel,66.66666667,,,,,,,,,,,,,,,,,,,,,,,,,,,,,,,,,,,,,,,,,,,,,,,,,,,,,,,,,,,,,,,,,,,,,,,,,,,,,,,,,,,,,,,,,
,,6,2.299,6,2.299,0,53,53,62,1,189,onion,tree,,89849,001,2022-04-24_22h12.21.160,SPAMnetsValid,2021.1.4,MacIntel,66.66666667,,,,,,,,,,,,,,,,,,,,,,,,,,,,,,,,,,,,,,,,,,,,,,,,,,,,,,,,,,,,,,,,,,,,,,,,,,,,,,,,,,,,,,,,,
,,9,1.387,9,1.387,0,54,54,25,1,194,cactus,cactus,CHECK,89849,001,2022-04-24_22h12.21.160,SPAMnetsValid,2021.1.4,MacIntel,66.66666667,,,,,,,,,,,,,,,,,,,,,,,,,,,,,,,,,,,,,,,,,,,,,,,,,,,,,,,,,,,,,,,,,,,,,,,,,,,,,,,,,,,,,,,,,
,,1,1.588,1,1.588,0,55,55,95,1,121,broom,microwave,,89849,001,2022-04-24_22h12.21.160,SPAMnetsValid,2021.1.4,MacIntel,66.66666667,,,,,,,,,,,,,,,,,,,,,,,,,,,,,,,,,,,,,,,,,,,,,,,,,,,,,,,,,,,,,,,,,,,,,,,,,,,,,,,,,,,,,,,,,
,,1,1.371,1,1.371,0,56,56,71,1,187,cactus,microwave,,89849,001,2022-04-24_22h12.21.160,SPAMnetsValid,2021.1.4,MacIntel,66.66666667,,,,,,,,,,,,,,,,,,,,,,,,,,,,,,,,,,,,,,,,,,,,,,,,,,,,,,,,,,,,,,,,,,,,,,,,,,,,,,,,,,,,,,,,,
,,1,1.938,1,1.938,0,57,57,45,1,179,broom,oven,,89849,001,2022-04-24_22h12.21.160,SPAMnetsValid,2021.1.4,MacIntel,66.66666667,,,,,,,,,,,,,,,,,,,,,,,,,,,,,,,,,,,,,,,,,,,,,,,,,,,,,,,,,,,,,,,,,,,,,,,,,,,,,,,,,,,,,,,,,
,,1,3.011,1,3.011,0,58,58,15,1,145,cactus,yogurt,,89849,001,2022-04-24_22h12.21.160,SPAMnetsValid,2021.1.4,MacIntel,66.66666667,,,,,,,,,,,,,,,,,,,,,,,,,,,,,,,,,,,,,,,,,,,,,,,,,,,,,,,,,,,,,,,,,,,,,,,,,,,,,,,,,,,,,,,,,
,,2,3.601,2,3.601,0,59,59,36,1,161,kitchen,pretzel,,89849,001,2022-04-24_22h12.21.160,SPAMnetsValid,2021.1.4,MacIntel,66.66666667,,,,,,,,,,,,,,,,,,,,,,,,,,,,,,,,,,,,,,,,,,,,,,,,,,,,,,,,,,,,,,,,,,,,,,,,,,,,,,,,,,,,,,,,,
,,4,2.23,4,2.23,0,60,60,49,1,152,cactus,strawberry,,89849,001,2022-04-24_22h12.21.160,SPAMnetsValid,2021.1.4,MacIntel,66.66666667,,,,,,,,,,,,,,,,,,,,,,,,,,,,,,,,,,,,,,,,,,,,,,,,,,,,,,,,,,,,,,,,,,,,,,,,,,,,,,,,,,,,,,,,,
,,9,2.511,9,2.511,0,61,61,51,1,168,cactus,flower,,89849,001,2022-04-24_22h12.21.160,SPAMnetsValid,2021.1.4,MacIntel,66.66666667,,,,,,,,,,,,,,,,,,,,,,,,,,,,,,,,,,,,,,,,,,,,,,,,,,,,,,,,,,,,,,,,,,,,,,,,,,,,,,,,,,,,,,,,,
,,5,3.237,5,3.237,0,62,62,65,1,160,cookie,kitchen,,89849,001,2022-04-24_22h12.21.160,SPAMnetsValid,2021.1.4,MacIntel,66.66666667,,,,,,,,,,,,,,,,,,,,,,,,,,,,,,,,,,,,,,,,,,,,,,,,,,,,,,,,,,,,,,,,,,,,,,,,,,,,,,,,,,,,,,,,,
,,1,1.53,1,1.53,0,63,63,20,1,149,broom,tomato,,89849,001,2022-04-24_22h12.21.160,SPAMnetsValid,2021.1.4,MacIntel,66.66666667,,,,,,,,,,,,,,,,,,,,,,,,,,,,,,,,,,,,,,,,,,,,,,,,,,,,,,,,,,,,,,,,,,,,,,,,,,,,,,,,,,,,,,,,,
,,7,3.346,7,3.346,0,64,64,70,1,141,melon,tomato,,89849,001,2022-04-24_22h12.21.160,SPAMnetsValid,2021.1.4,MacIntel,66.66666667,,,,,,,,,,,,,,,,,,,,,,,,,,,,,,,,,,,,,,,,,,,,,,,,,,,,,,,,,,,,,,,,,,,,,,,,,,,,,,,,,,,,,,,,,
,,6,1.968,6,1.968,0,65,65,75,1,178,cactus,carrot,,89849,001,2022-04-24_22h12.21.160,SPAMnetsValid,2021.1.4,MacIntel,66.66666667,,,,,,,,,,,,,,,,,,,,,,,,,,,,,,,,,,,,,,,,,,,,,,,,,,,,,,,,,,,,,,,,,,,,,,,,,,,,,,,,,,,,,,,,,
,,4,7.603,4,7.603,0,66,66,41,1,175,melon,onion,,89849,001,2022-04-24_22h12.21.160,SPAMnetsValid,2021.1.4,MacIntel,66.66666667,,,,,,,,,,,,,,,,,,,,,,,,,,,,,,,,,,,,,,,,,,,,,,,,,,,,,,,,,,,,,,,,,,,,,,,,,,,,,,,,,,,,,,,,,
,,1,3.147,1,3.147,0,67,67,16,1,111,carrot,microwave,,89849,001,2022-04-24_22h12.21.160,SPAMnetsValid,2021.1.4,MacIntel,66.66666667,,,,,,,,,,,,,,,,,,,,,,,,,,,,,,,,,,,,,,,,,,,,,,,,,,,,,,,,,,,,,,,,,,,,,,,,,,,,,,,,,,,,,,,,,
,,9,1.531,9,1.531,0,68,68,86,1,193,melon,melon,CHECK,89849,001,2022-04-24_22h12.21.160,SPAMnetsValid,2021.1.4,MacIntel,66.66666667,,,,,,,,,,,,,,,,,,,,,,,,,,,,,,,,,,,,,,,,,,,,,,,,,,,,,,,,,,,,,,,,,,,,,,,,,,,,,,,,,,,,,,,,,
,,8,1.971,8,1.971,0,69,69,22,1,142,garden,tree,,89849,001,2022-04-24_22h12.21.160,SPAMnetsValid,2021.1.4,MacIntel,66.66666667,,,,,,,,,,,,,,,,,,,,,,,,,,,,,,,,,,,,,,,,,,,,,,,,,,,,,,,,,,,,,,,,,,,,,,,,,,,,,,,,,,,,,,,,,
,,1,1.64,1,1.64,0,70,70,6,1,151,microwave,onion,,89849,001,2022-04-24_22h12.21.160,SPAMnetsValid,2021.1.4,MacIntel,66.66666667,,,,,,,,,,,,,,,,,,,,,,,,,,,,,,,,,,,,,,,,,,,,,,,,,,,,,,,,,,,,,,,,,,,,,,,,,,,,,,,,,,,,,,,,,
,,6,2.879,6,2.879,0,71,71,18,1,119,strawberry,tree,,89849,001,2022-04-24_22h12.21.160,SPAMnetsValid,2021.1.4,MacIntel,66.66666667,,,,,,,,,,,,,,,,,,,,,,,,,,,,,,,,,,,,,,,,,,,,,,,,,,,,,,,,,,,,,,,,,,,,,,,,,,,,,,,,,,,,,,,,,
,,1,1.672,1,1.672,0,72,72,92,1,170,cookie,microwave,,89849,001,2022-04-24_22h12.21.160,SPAMnetsValid,2021.1.4,MacIntel,66.66666667,,,,,,,,,,,,,,,,,,,,,,,,,,,,,,,,,,,,,,,,,,,,,,,,,,,,,,,,,,,,,,,,,,,,,,,,,,,,,,,,,,,,,,,,,
,,4,2.055,4,2.055,0,73,73,57,1,127,cactus,chocolate,,89849,001,2022-04-24_22h12.21.160,SPAMnetsValid,2021.1.4,MacIntel,66.66666667,,,,,,,,,,,,,,,,,,,,,,,,,,,,,,,,,,,,,,,,,,,,,,,,,,,,,,,,,,,,,,,,,,,,,,,,,,,,,,,,,,,,,,,,,
,,8,3.303,8,3.303,0,74,74,17,1,99,garden,melon,,89849,001,2022-04-24_22h12.21.160,SPAMnetsValid,2021.1.4,MacIntel,66.66666667,,,,,,,,,,,,,,,,,,,,,,,,,,,,,,,,,,,,,,,,,,,,,,,,,,,,,,,,,,,,,,,,,,,,,,,,,,,,,,,,,,,,,,,,,
,,1,3.702,1,3.702,0,75,75,68,1,180,tree,yogurt,,89849,001,2022-04-24_22h12.21.160,SPAMnetsValid,2021.1.4,MacIntel,66.66666667,,,,,,,,,,,,,,,,,,,,,,,,,,,,,,,,,,,,,,,,,,,,,,,,,,,,,,,,,,,,,,,,,,,,,,,,,,,,,,,,,,,,,,,,,
,,1,1.766,1,1.766,0,76,76,73,1,135,carrot,oven,,89849,001,2022-04-24_22h12.21.160,SPAMnetsValid,2021.1.4,MacIntel,66.66666667,,,,,,,,,,,,,,,,,,,,,,,,,,,,,,,,,,,,,,,,,,,,,,,,,,,,,,,,,,,,,,,,,,,,,,,,,,,,,,,,,,,,,,,,,
,,1,1.887,1,1.887,0,77,77,67,1,96,oven,strawberry,,89849,001,2022-04-24_22h12.21.160,SPAMnetsValid,2021.1.4,MacIntel,66.66666667,,,,,,,,,,,,,,,,,,,,,,,,,,,,,,,,,,,,,,,,,,,,,,,,,,,,,,,,,,,,,,,,,,,,,,,,,,,,,,,,,,,,,,,,,
,,8,2.964,8,2.964,0,78,78,52,1,110,chocolate,cookie,,89849,001,2022-04-24_22h12.21.160,SPAMnetsValid,2021.1.4,MacIntel,66.66666667,,,,,,,,,,,,,,,,,,,,,,,,,,,,,,,,,,,,,,,,,,,,,,,,,,,,,,,,,,,,,,,,,,,,,,,,,,,,,,,,,,,,,,,,,
,,6,3.37,6,3.37,0,79,79,2,1,174,cake,pretzel,,89849,001,2022-04-24_22h12.21.160,SPAMnetsValid,2021.1.4,MacIntel,66.66666667,,,,,,,,,,,,,,,,,,,,,,,,,,,,,,,,,,,,,,,,,,,,,,,,,,,,,,,,,,,,,,,,,,,,,,,,,,,,,,,,,,,,,,,,,
,,4,2.497,4,2.497,0,80,80,85,1,115,refrigerator,tomato,,89849,001,2022-04-24_22h12.21.160,SPAMnetsValid,2021.1.4,MacIntel,66.66666667,,,,,,,,,,,,,,,,,,,,,,,,,,,,,,,,,,,,,,,,,,,,,,,,,,,,,,,,,,,,,,,,,,,,,,,,,,,,,,,,,,,,,,,,,
,,1,1.803,1,1.803,0,81,81,55,1,143,pretzel,rose,,89849,001,2022-04-24_22h12.21.160,SPAMnetsValid,2021.1.4,MacIntel,66.66666667,,,,,,,,,,,,,,,,,,,,,,,,,,,,,,,,,,,,,,,,,,,,,,,,,,,,,,,,,,,,,,,,,,,,,,,,,,,,,,,,,,,,,,,,,
,,8,1.923,8,1.923,0,82,82,35,1,147,cake,refrigerator,,89849,001,2022-04-24_22h12.21.160,SPAMnetsValid,2021.1.4,MacIntel,66.66666667,,,,,,,,,,,,,,,,,,,,,,,,,,,,,,,,,,,,,,,,,,,,,,,,,,,,,,,,,,,,,,,,,,,,,,,,,,,,,,,,,,,,,,,,,
,,9,2.556,9,2.556,0,83,83,82,1,98,pretzel,strawberry,,89849,001,2022-04-24_22h12.21.160,SPAMnetsValid,2021.1.4,MacIntel,66.66666667,,,,,,,,,,,,,,,,,,,,,,,,,,,,,,,,,,,,,,,,,,,,,,,,,,,,,,,,,,,,,,,,,,,,,,,,,,,,,,,,,,,,,,,,,
,,1,1.787,1,1.787,0,84,84,8,1,97,chocolate,kitchen,,89849,001,2022-04-24_22h12.21.160,SPAMnetsValid,2021.1.4,MacIntel,66.66666667,,,,,,,,,,,,,,,,,,,,,,,,,,,,,,,,,,,,,,,,,,,,,,,,,,,,,,,,,,,,,,,,,,,,,,,,,,,,,,,,,,,,,,,,,
,,1,2.773,1,2.773,0,85,85,46,1,123,cookie,tree,,89849,001,2022-04-24_22h12.21.160,SPAMnetsValid,2021.1.4,MacIntel,66.66666667,,,,,,,,,,,,,,,,,,,,,,,,,,,,,,,,,,,,,,,,,,,,,,,,,,,,,,,,,,,,,,,,,,,,,,,,,,,,,,,,,,,,,,,,,
,,3,1.904,3,1.904,0,86,86,77,1,172,kitchen,melon,,89849,001,2022-04-24_22h12.21.160,SPAMnetsValid,2021.1.4,MacIntel,66.66666667,,,,,,,,,,,,,,,,,,,,,,,,,,,,,,,,,,,,,,,,,,,,,,,,,,,,,,,,,,,,,,,,,,,,,,,,,,,,,,,,,,,,,,,,,
,,7,2.599,7,2.599,0,87,87,30,1,125,carrot,tree,,89849,001,2022-04-24_22h12.21.160,SPAMnetsValid,2021.1.4,MacIntel,66.66666667,,,,,,,,,,,,,,,,,,,,,,,,,,,,,,,,,,,,,,,,,,,,,,,,,,,,,,,,,,,,,,,,,,,,,,,,,,,,,,,,,,,,,,,,,
,,9,4.249,9,4.249,0,88,88,37,1,139,carrot,strawberry,,89849,001,2022-04-24_22h12.21.160,SPAMnetsValid,2021.1.4,MacIntel,66.66666667,,,,,,,,,,,,,,,,,,,,,,,,,,,,,,,,,,,,,,,,,,,,,,,,,,,,,,,,,,,,,,,,,,,,,,,,,,,,,,,,,,,,,,,,,
,,1,4.173,1,4.173,0,89,89,33,1,131,cactus,garden,,89849,001,2022-04-24_22h12.21.160,SPAMnetsValid,2021.1.4,MacIntel,66.66666667,,,,,,,,,,,,,,,,,,,,,,,,,,,,,,,,,,,,,,,,,,,,,,,,,,,,,,,,,,,,,,,,,,,,,,,,,,,,,,,,,,,,,,,,,
,,1,2.273,1,2.273,0,90,90,9,1,176,cactus,tomato,,89849,001,2022-04-24_22h12.21.160,SPAMnetsValid,2021.1.4,MacIntel,66.66666667,,,,,,,,,,,,,,,,,,,,,,,,,,,,,,,,,,,,,,,,,,,,,,,,,,,,,,,,,,,,,,,,,,,,,,,,,,,,,,,,,,,,,,,,,
,,1,1.162,1,1.162,0,91,91,13,1,105,cactus,oven,,89849,001,2022-04-24_22h12.21.160,SPAMnetsValid,2021.1.4,MacIntel,66.66666667,,,,,,,,,,,,,,,,,,,,,,,,,,,,,,,,,,,,,,,,,,,,,,,,,,,,,,,,,,,,,,,,,,,,,,,,,,,,,,,,,,,,,,,,,
,,1,1.623,1,1.623,0,92,92,81,1,104,garden,microwave,,89849,001,2022-04-24_22h12.21.160,SPAMnetsValid,2021.1.4,MacIntel,66.66666667,,,,,,,,,,,,,,,,,,,,,,,,,,,,,,,,,,,,,,,,,,,,,,,,,,,,,,,,,,,,,,,,,,,,,,,,,,,,,,,,,,,,,,,,,
,,9,3.046,9,3.046,0,93,93,27,1,158,cookie,oven,,89849,001,2022-04-24_22h12.21.160,SPAMnetsValid,2021.1.4,MacIntel,66.66666667,,,,,,,,,,,,,,,,,,,,,,,,,,,,,,,,,,,,,,,,,,,,,,,,,,,,,,,,,,,,,,,,,,,,,,,,,,,,,,,,,,,,,,,,,
,,8,4.545,8,4.545,0,94,94,44,1,116,cake,chocolate,,89849,001,2022-04-24_22h12.21.160,SPAMnetsValid,2021.1.4,MacIntel,66.66666667,,,,,,,,,,,,,,,,,,,,,,,,,,,,,,,,,,,,,,,,,,,,,,,,,,,,,,,,,,,,,,,,,,,,,,,,,,,,,,,,,,,,,,,,,
,,8,5.703,8,5.703,0,95,95,28,1,154,strawberry,yogurt,,89849,001,2022-04-24_22h12.21.160,SPAMnetsValid,2021.1.4,MacIntel,66.66666667,,,,,,,,,,,,,,,,,,,,,,,,,,,,,,,,,,,,,,,,,,,,,,,,,,,,,,,,,,,,,,,,,,,,,,,,,,,,,,,,,,,,,,,,,
,,7,2.402,7,2.402,0,96,96,11,1,117,melon,strawberry,,89849,001,2022-04-24_22h12.21.160,SPAMnetsValid,2021.1.4,MacIntel,66.66666667,,,,,,,,,,,,,,,,,,,,,,,,,,,,,,,,,,,,,,,,,,,,,,,,,,,,,,,,,,,,,,,,,,,,,,,,,,,,,,,,,,,,,,,,,
,,,,,,,,,,,,,,,89849,001,2022-04-24_22h12.21.160,SPAMnetsValid,2021.1.4,MacIntel,66.66666667,0,0,0,0,1,,,,,,,,,,,,,,,,,,,,,,,,,,,,,,,,,,,,,,,,,,,,,,,,,,,,,,,,,,,,,,,,,,,,,,,,,,,,,,,,,,,,
,,,,,,,,,,,,,,,89849,001,2022-04-24_22h12.21.160,SPAMnetsValid,2021.1.4,MacIntel,66.66666667,,,,,,0,0,0,1,1,0,1,,,,,,,,,,,,,,,,,,,,,,,,,,,,,,,,,,,,,,,,,,,,,,,,,,,,,,,,,,,,,,,,,,,,,,,,,,,,,
,,,,7,2.847,,,,,,42,garden,kitchen,,89849,001,2022-04-24_22h12.21.160,SPAMnetsValid,2021.1.4,MacIntel,66.66666667,,,,,,,,,,,,,7,2.847,0,0,0,29,1,,,,,,,,,,,,,,,,,,,,,,,,,,,,,,,,,,,,,,,,,,,,,,,,,,,,,,,,,,,,,,,,,,,,,,
,,,,2,1.614,,,,,,36,broom,kitchen,,89849,001,2022-04-24_22h12.21.160,SPAMnetsValid,2021.1.4,MacIntel,66.66666667,,,,,,,,,,,,,2,1.614,0,1,1,76,1,,,,,,,,,,,,,,,,,,,,,,,,,,,,,,,,,,,,,,,,,,,,,,,,,,,,,,,,,,,,,,,,,,,,,,
,,,,1,1.562,,,,,,62,kitchen,rose,,89849,001,2022-04-24_22h12.21.160,SPAMnetsValid,2021.1.4,MacIntel,66.66666667,,,,,,,,,,,,,1,1.562,0,2,2,57,1,,,,,,,,,,,,,,,,,,,,,,,,,,,,,,,,,,,,,,,,,,,,,,,,,,,,,,,,,,,,,,,,,,,,,,
,,,,2,2.194,,,,,,53,garden,pretzel,,89849,001,2022-04-24_22h12.21.160,SPAMnetsValid,2021.1.4,MacIntel,66.66666667,,,,,,,,,,,,,2,2.194,0,3,3,0,1,,,,,,,,,,,,,,,,,,,,,,,,,,,,,,,,,,,,,,,,,,,,,,,,,,,,,,,,,,,,,,,,,,,,,,
,,,,1,0.762,,,,,,5,oven,tree,,89849,001,2022-04-24_22h12.21.160,SPAMnetsValid,2021.1.4,MacIntel,66.66666667,,,,,,,,,,,,,1,0.762,0,4,4,70,1,,,,,,,,,,,,,,,,,,,,,,,,,,,,,,,,,,,,,,,,,,,,,,,,,,,,,,,,,,,,,,,,,,,,,,
,,,,6,4.379,,,,,,12,cookie,yogurt,,89849,001,2022-04-24_22h12.21.160,SPAMnetsValid,2021.1.4,MacIntel,66.66666667,,,,,,,,,,,,,6,4.379,0,5,5,36,1,,,,,,,,,,,,,,,,,,,,,,,,,,,,,,,,,,,,,,,,,,,,,,,,,,,,,,,,,,,,,,,,,,,,,,
,,,,6,2.264,,,,,,18,onion,refrigerator,,89849,001,2022-04-24_22h12.21.160,SPAMnetsValid,2021.1.4,MacIntel,66.66666667,,,,,,,,,,,,,6,2.264,0,6,6,62,1,,,,,,,,,,,,,,,,,,,,,,,,,,,,,,,,,,,,,,,,,,,,,,,,,,,,,,,,,,,,,,,,,,,,,,
,,,,1,1.407,,,,,,71,broom,rose,,89849,001,2022-04-24_22h12.21.160,SPAMnetsValid,2021.1.4,MacIntel,66.66666667,,,,,,,,,,,,,1,1.407,0,7,7,61,1,,,,,,,,,,,,,,,,,,,,,,,,,,,,,,,,,,,,,,,,,,,,,,,,,,,,,,,,,,,,,,,,,,,,,,
,,,,7,2.556,,,,,,56,cactus,tree,,89849,001,2022-04-24_22h12.21.160,SPAMnetsValid,2021.1.4,MacIntel,66.66666667,,,,,,,,,,,,,7,2.556,0,8,8,21,1,,,,,,,,,,,,,,,,,,,,,,,,,,,,,,,,,,,,,,,,,,,,,,,,,,,,,,,,,,,,,,,,,,,,,,
,,,,1,1.992,,,,,,33,oven,yogurt,,89849,001,2022-04-24_22h12.21.160,SPAMnetsValid,2021.1.4,MacIntel,66.66666667,,,,,,,,,,,,,1,1.992,0,9,9,31,1,,,,,,,,,,,,,,,,,,,,,,,,,,,,,,,,,,,,,,,,,,,,,,,,,,,,,,,,,,,,,,,,,,,,,,
,,,,4,1.762,,,,,,27,cactus,cookie,,89849,001,2022-04-24_22h12.21.160,SPAMnetsValid,2021.1.4,MacIntel,66.66666667,,,,,,,,,,,,,4,1.762,0,10,10,17,1,,,,,,,,,,,,,,,,,,,,,,,,,,,,,,,,,,,,,,,,,,,,,,,,,,,,,,,,,,,,,,,,,,,,,,
,,,,1,2.122,,,,,,92,broom,flower,,89849,001,2022-04-24_22h12.21.160,SPAMnetsValid,2021.1.4,MacIntel,66.66666667,,,,,,,,,,,,,1,2.122,0,11,11,88,1,,,,,,,,,,,,,,,,,,,,,,,,,,,,,,,,,,,,,,,,,,,,,,,,,,,,,,,,,,,,,,,,,,,,,,
,,,,7,2.787,,,,,,54,chocolate,yogurt,,89849,001,2022-04-24_22h12.21.160,SPAMnetsValid,2021.1.4,MacIntel,66.66666667,,,,,,,,,,,,,7,2.787,0,12,12,67,1,,,,,,,,,,,,,,,,,,,,,,,,,,,,,,,,,,,,,,,,,,,,,,,,,,,,,,,,,,,,,,,,,,,,,,
,,,,1,10.187,,,,,,86,oven,rose,,89849,001,2022-04-24_22h12.21.160,SPAMnetsValid,2021.1.4,MacIntel,66.66666667,,,,,,,,,,,,,1,10.187,0,13,13,79,1,,,,,,,,,,,,,,,,,,,,,,,,,,,,,,,,,,,,,,,,,,,,,,,,,,,,,,,,,,,,,,,,,,,,,,
,,,,2,15.046,,,,,,87,carrot,yogurt,,89849,001,2022-04-24_22h12.21.160,SPAMnetsValid,2021.1.4,MacIntel,66.66666667,,,,,,,,,,,,,2,15.046,0,14,14,6,1,,,,,,,,,,,,,,,,,,,,,,,,,,,,,,,,,,,,,,,,,,,,,,,,,,,,,,,,,,,,,,,,,,,,,,
,,,,8,2.088,,,,,,66,melon,yogurt,,89849,001,2022-04-24_22h12.21.160,SPAMnetsValid,2021.1.4,MacIntel,66.66666667,,,,,,,,,,,,,8,2.088,0,15,15,48,1,,,,,,,,,,,,,,,,,,,,,,,,,,,,,,,,,,,,,,,,,,,,,,,,,,,,,,,,,,,,,,,,,,,,,,
,,,,6,2.771,,,,,,68,flower,tomato,,89849,001,2022-04-24_22h12.21.160,SPAMnetsValid,2021.1.4,MacIntel,66.66666667,,,,,,,,,,,,,6,2.771,0,16,16,94,1,,,,,,,,,,,,,,,,,,,,,,,,,,,,,,,,,,,,,,,,,,,,,,,,,,,,,,,,,,,,,,,,,,,,,,
,,,,1,1.511,,,,,,34,melon,oven,,89849,001,2022-04-24_22h12.21.160,SPAMnetsValid,2021.1.4,MacIntel,66.66666667,,,,,,,,,,,,,1,1.511,0,17,17,7,1,,,,,,,,,,,,,,,,,,,,,,,,,,,,,,,,,,,,,,,,,,,,,,,,,,,,,,,,,,,,,,,,,,,,,,
,,,,1,3.32,,,,,,50,carrot,rose,,89849,001,2022-04-24_22h12.21.160,SPAMnetsValid,2021.1.4,MacIntel,66.66666667,,,,,,,,,,,,,1,3.32,0,18,18,73,1,,,,,,,,,,,,,,,,,,,,,,,,,,,,,,,,,,,,,,,,,,,,,,,,,,,,,,,,,,,,,,,,,,,,,,
,,,,9,1.466,,,,,,191,cake,cake,CHECK,89849,001,2022-04-24_22h12.21.160,SPAMnetsValid,2021.1.4,MacIntel,66.66666667,,,,,,,,,,,,,9,1.466,0,19,19,10,1,,,,,,,,,,,,,,,,,,,,,,,,,,,,,,,,,,,,,,,,,,,,,,,,,,,,,,,,,,,,,,,,,,,,,,
,,,,1,2.063,,,,,,41,broom,cactus,,89849,001,2022-04-24_22h12.21.160,SPAMnetsValid,2021.1.4,MacIntel,66.66666667,,,,,,,,,,,,,1,2.063,0,20,20,46,1,,,,,,,,,,,,,,,,,,,,,,,,,,,,,,,,,,,,,,,,,,,,,,,,,,,,,,,,,,,,,,,,,,,,,,
,,,,1,1.514,,,,,,65,broom,garden,,89849,001,2022-04-24_22h12.21.160,SPAMnetsValid,2021.1.4,MacIntel,66.66666667,,,,,,,,,,,,,1,1.514,0,21,21,23,1,,,,,,,,,,,,,,,,,,,,,,,,,,,,,,,,,,,,,,,,,,,,,,,,,,,,,,,,,,,,,,,,,,,,,,
,,,,8,4.088,,,,,,61,strawberry,tomato,,89849,001,2022-04-24_22h12.21.160,SPAMnetsValid,2021.1.4,MacIntel,66.66666667,,,,,,,,,,,,,8,4.088,0,22,22,80,1,,,,,,,,,,,,,,,,,,,,,,,,,,,,,,,,,,,,,,,,,,,,,,,,,,,,,,,,,,,,,,,,,,,,,,
,,,,2,5.588,,,,,,1,rose,yogurt,,89849,001,2022-04-24_22h12.21.160,SPAMnetsValid,2021.1.4,MacIntel,66.66666667,,,,,,,,,,,,,2,5.588,0,23,23,55,1,,,,,,,,,,,,,,,,,,,,,,,,,,,,,,,,,,,,,,,,,,,,,,,,,,,,,,,,,,,,,,,,,,,,,,
,,,,1,2.668,,,,,,58,garden,oven,,89849,001,2022-04-24_22h12.21.160,SPAMnetsValid,2021.1.4,MacIntel,66.66666667,,,,,,,,,,,,,1,2.668,0,24,24,37,1,,,,,,,,,,,,,,,,,,,,,,,,,,,,,,,,,,,,,,,,,,,,,,,,,,,,,,,,,,,,,,,,,,,,,,
,,,,9,2.269,,,,,,82,cake,kitchen,,89849,001,2022-04-24_22h12.21.160,SPAMnetsValid,2021.1.4,MacIntel,66.66666667,,,,,,,,,,,,,9,2.269,0,25,25,96,1,,,,,,,,,,,,,,,,,,,,,,,,,,,,,,,,,,,,,,,,,,,,,,,,,,,,,,,,,,,,,,,,,,,,,,
,,,,9,4.026,,,,,,93,kitchen,oven,,89849,001,2022-04-24_22h12.21.160,SPAMnetsValid,2021.1.4,MacIntel,66.66666667,,,,,,,,,,,,,9,4.026,0,26,26,82,1,,,,,,,,,,,,,,,,,,,,,,,,,,,,,,,,,,,,,,,,,,,,,,,,,,,,,,,,,,,,,,,,,,,,,,
,,,,1,2.695,,,,,,25,carrot,onion,,89849,001,2022-04-24_22h12.21.160,SPAMnetsValid,2021.1.4,MacIntel,66.66666667,,,,,,,,,,,,,1,2.695,0,27,27,44,1,,,,,,,,,,,,,,,,,,,,,,,,,,,,,,,,,,,,,,,,,,,,,,,,,,,,,,,,,,,,,,,,,,,,,,
,,,,1,1.88,,,,,,80,chocolate,tree,,89849,001,2022-04-24_22h12.21.160,SPAMnetsValid,2021.1.4,MacIntel,66.66666667,,,,,,,,,,,,,1,1.88,0,28,28,89,1,,,,,,,,,,,,,,,,,,,,,,,,,,,,,,,,,,,,,,,,,,,,,,,,,,,,,,,,,,,,,,,,,,,,,,
,,,,1,1.802,,,,,,23,flower,microwave,,89849,001,2022-04-24_22h12.21.160,SPAMnetsValid,2021.1.4,MacIntel,66.66666667,,,,,,,,,,,,,1,1.802,0,29,29,25,1,,,,,,,,,,,,,,,,,,,,,,,,,,,,,,,,,,,,,,,,,,,,,,,,,,,,,,,,,,,,,,,,,,,,,,
,,,,2,3.283,,,,,,75,cookie,onion,,89849,001,2022-04-24_22h12.21.160,SPAMnetsValid,2021.1.4,MacIntel,66.66666667,,,,,,,,,,,,,2,3.283,0,30,30,9,1,,,,,,,,,,,,,,,,,,,,,,,,,,,,,,,,,,,,,,,,,,,,,,,,,,,,,,,,,,,,,,,,,,,,,,
,,,,6,3.313,,,,,,55,tomato,tree,,89849,001,2022-04-24_22h12.21.160,SPAMnetsValid,2021.1.4,MacIntel,66.66666667,,,,,,,,,,,,,6,3.313,0,31,31,35,1,,,,,,,,,,,,,,,,,,,,,,,,,,,,,,,,,,,,,,,,,,,,,,,,,,,,,,,,,,,,,,,,,,,,,,
,,,,4,10.387,,,,,,81,pretzel,yogurt,,89849,001,2022-04-24_22h12.21.160,SPAMnetsValid,2021.1.4,MacIntel,66.66666667,,,,,,,,,,,,,4,10.387,0,32,32,50,1,,,,,,,,,,,,,,,,,,,,,,,,,,,,,,,,,,,,,,,,,,,,,,,,,,,,,,,,,,,,,,,,,,,,,,
,,,,8,4.416,,,,,,63,cake,cookie,,89849,001,2022-04-24_22h12.21.160,SPAMnetsValid,2021.1.4,MacIntel,66.66666667,,,,,,,,,,,,,8,4.416,0,33,33,93,1,,,,,,,,,,,,,,,,,,,,,,,,,,,,,,,,,,,,,,,,,,,,,,,,,,,,,,,,,,,,,,,,,,,,,,
,,,,1,3.144,,,,,,67,flower,yogurt,,89849,001,2022-04-24_22h12.21.160,SPAMnetsValid,2021.1.4,MacIntel,66.66666667,,,,,,,,,,,,,1,3.144,0,34,34,12,1,,,,,,,,,,,,,,,,,,,,,,,,,,,,,,,,,,,,,,,,,,,,,,,,,,,,,,,,,,,,,,,,,,,,,,
,,,,2,2.137,,,,,,37,garden,refrigerator,,89849,001,2022-04-24_22h12.21.160,SPAMnetsValid,2021.1.4,MacIntel,66.66666667,,,,,,,,,,,,,2,2.137,0,35,35,11,1,,,,,,,,,,,,,,,,,,,,,,,,,,,,,,,,,,,,,,,,,,,,,,,,,,,,,,,,,,,,,,,,,,,,,,
,,,,1,37.913,,,,,,78,cookie,rose,,89849,001,2022-04-24_22h12.21.160,SPAMnetsValid,2021.1.4,MacIntel,66.66666667,,,,,,,,,,,,,1,37.913,0,36,36,56,1,,,,,,,,,,,,,,,,,,,,,,,,,,,,,,,,,,,,,,,,,,,,,,,,,,,,,,,,,,,,,,,,,,,,,,
,,,,9,1.68,,,,,,94,kitchen,microwave,,89849,001,2022-04-24_22h12.21.160,SPAMnetsValid,2021.1.4,MacIntel,66.66666667,,,,,,,,,,,,,9,1.68,0,37,37,58,1,,,,,,,,,,,,,,,,,,,,,,,,,,,,,,,,,,,,,,,,,,,,,,,,,,,,,,,,,,,,,,,,,,,,,,
,,,,4,4.673,,,,,,28,cake,melon,,89849,001,2022-04-24_22h12.21.160,SPAMnetsValid,2021.1.4,MacIntel,66.66666667,,,,,,,,,,,,,4,4.673,0,38,38,54,1,,,,,,,,,,,,,,,,,,,,,,,,,,,,,,,,,,,,,,,,,,,,,,,,,,,,,,,,,,,,,,,,,,,,,,
,,,,8,1.78,,,,,,4,chocolate,pretzel,,89849,001,2022-04-24_22h12.21.160,SPAMnetsValid,2021.1.4,MacIntel,66.66666667,,,,,,,,,,,,,8,1.78,0,39,39,52,1,,,,,,,,,,,,,,,,,,,,,,,,,,,,,,,,,,,,,,,,,,,,,,,,,,,,,,,,,,,,,,,,,,,,,,
,,,,9,1.212,,,,,,192,microwave,microwave,CHECK,89849,001,2022-04-24_22h12.21.160,SPAMnetsValid,2021.1.4,MacIntel,66.66666667,,,,,,,,,,,,,9,1.212,0,40,40,53,1,,,,,,,,,,,,,,,,,,,,,,,,,,,,,,,,,,,,,,,,,,,,,,,,,,,,,,,,,,,,,,,,,,,,,,
,,,,6,1.656,,,,,,20,rose,tree,,89849,001,2022-04-24_22h12.21.160,SPAMnetsValid,2021.1.4,MacIntel,66.66666667,,,,,,,,,,,,,6,1.656,0,41,41,66,1,,,,,,,,,,,,,,,,,,,,,,,,,,,,,,,,,,,,,,,,,,,,,,,,,,,,,,,,,,,,,,,,,,,,,,
,,,,6,4.787,,,,,,51,onion,strawberry,,89849,001,2022-04-24_22h12.21.160,SPAMnetsValid,2021.1.4,MacIntel,66.66666667,,,,,,,,,,,,,6,4.787,0,42,42,86,1,,,,,,,,,,,,,,,,,,,,,,,,,,,,,,,,,,,,,,,,,,,,,,,,,,,,,,,,,,,,,,,,,,,,,,
,,,,9,2.463,,,,,,9,kitchen,refrigerator,,89849,001,2022-04-24_22h12.21.160,SPAMnetsValid,2021.1.4,MacIntel,66.66666667,,,,,,,,,,,,,9,2.463,0,43,43,64,1,,,,,,,,,,,,,,,,,,,,,,,,,,,,,,,,,,,,,,,,,,,,,,,,,,,,,,,,,,,,,,,,,,,,,,
,,,,4,5.154,,,,,,7,melon,tree,,89849,001,2022-04-24_22h12.21.160,SPAMnetsValid,2021.1.4,MacIntel,66.66666667,,,,,,,,,,,,,4,5.154,0,44,44,77,1,,,,,,,,,,,,,,,,,,,,,,,,,,,,,,,,,,,,,,,,,,,,,,,,,,,,,,,,,,,,,,,,,,,,,,
,,,,1,0.973,,,,,,74,broom,pretzel,,89849,001,2022-04-24_22h12.21.160,SPAMnetsValid,2021.1.4,MacIntel,66.66666667,,,,,,,,,,,,,1,0.973,0,45,45,40,1,,,,,,,,,,,,,,,,,,,,,,,,,,,,,,,,,,,,,,,,,,,,,,,,,,,,,,,,,,,,,,,,,,,,,,
,,,,1,1.012,,,,,,73,broom,chocolate,,89849,001,2022-04-24_22h12.21.160,SPAMnetsValid,2021.1.4,MacIntel,66.66666667,,,,,,,,,,,,,1,1.012,0,46,46,47,1,,,,,,,,,,,,,,,,,,,,,,,,,,,,,,,,,,,,,,,,,,,,,,,,,,,,,,,,,,,,,,,,,,,,,,
,,,,2,2.278,,,,,,26,tomato,yogurt,,89849,001,2022-04-24_22h12.21.160,SPAMnetsValid,2021.1.4,MacIntel,66.66666667,,,,,,,,,,,,,2,2.278,0,47,47,13,1,,,,,,,,,,,,,,,,,,,,,,,,,,,,,,,,,,,,,,,,,,,,,,,,,,,,,,,,,,,,,,,,,,,,,,
,,,,3,3.548,,,,,,10,flower,onion,,89849,001,2022-04-24_22h12.21.160,SPAMnetsValid,2021.1.4,MacIntel,66.66666667,,,,,,,,,,,,,3,3.548,0,48,48,45,1,,,,,,,,,,,,,,,,,,,,,,,,,,,,,,,,,,,,,,,,,,,,,,,,,,,,,,,,,,,,,,,,,,,,,,
,,,,1,1.531,,,,,,13,broom,yogurt,,89849,001,2022-04-24_22h12.21.160,SPAMnetsValid,2021.1.4,MacIntel,66.66666667,,,,,,,,,,,,,1,1.531,0,49,49,5,1,,,,,,,,,,,,,,,,,,,,,,,,,,,,,,,,,,,,,,,,,,,,,,,,,,,,,,,,,,,,,,,,,,,,,,
,,,,8,2.446,,,,,,89,chocolate,rose,,89849,001,2022-04-24_22h12.21.160,SPAMnetsValid,2021.1.4,MacIntel,66.66666667,,,,,,,,,,,,,8,2.446,0,50,50,60,1,,,,,,,,,,,,,,,,,,,,,,,,,,,,,,,,,,,,,,,,,,,,,,,,,,,,,,,,,,,,,,,,,,,,,,
,,,,2,3.24,,,,,,84,oven,tomato,,89849,001,2022-04-24_22h12.21.160,SPAMnetsValid,2021.1.4,MacIntel,66.66666667,,,,,,,,,,,,,2,3.24,0,51,51,28,1,,,,,,,,,,,,,,,,,,,,,,,,,,,,,,,,,,,,,,,,,,,,,,,,,,,,,,,,,,,,,,,,,,,,,,
,,,,8,2.264,,,,,,16,chocolate,flower,,89849,001,2022-04-24_22h12.21.160,SPAMnetsValid,2021.1.4,MacIntel,66.66666667,,,,,,,,,,,,,8,2.264,0,52,52,22,1,,,,,,,,,,,,,,,,,,,,,,,,,,,,,,,,,,,,,,,,,,,,,,,,,,,,,,,,,,,,,,,,,,,,,,
,,,,3,5.055,,,,,,39,melon,pretzel,,89849,001,2022-04-24_22h12.21.160,SPAMnetsValid,2021.1.4,MacIntel,66.66666667,,,,,,,,,,,,,3,5.055,0,53,53,20,1,,,,,,,,,,,,,,,,,,,,,,,,,,,,,,,,,,,,,,,,,,,,,,,,,,,,,,,,,,,,,,,,,,,,,,
,,,,1,1.539,,,,,,60,cactus,onion,,89849,001,2022-04-24_22h12.21.160,SPAMnetsValid,2021.1.4,MacIntel,66.66666667,,,,,,,,,,,,,1,1.539,0,54,54,81,1,,,,,,,,,,,,,,,,,,,,,,,,,,,,,,,,,,,,,,,,,,,,,,,,,,,,,,,,,,,,,,,,,,,,,,
,,,,2,2.937,,,,,,24,cookie,tomato,,89849,001,2022-04-24_22h12.21.160,SPAMnetsValid,2021.1.4,MacIntel,66.66666667,,,,,,,,,,,,,2,2.937,0,55,55,68,1,,,,,,,,,,,,,,,,,,,,,,,,,,,,,,,,,,,,,,,,,,,,,,,,,,,,,,,,,,,,,,,,,,,,,,
,,,,3,2.644,,,,,,22,kitchen,strawberry,,89849,001,2022-04-24_22h12.21.160,SPAMnetsValid,2021.1.4,MacIntel,66.66666667,,,,,,,,,,,,,3,2.644,0,56,56,2,1,,,,,,,,,,,,,,,,,,,,,,,,,,,,,,,,,,,,,,,,,,,,,,,,,,,,,,,,,,,,,,,,,,,,,,
,,,,1,6.797,,,,,,14,broom,cookie,,89849,001,2022-04-24_22h12.21.160,SPAMnetsValid,2021.1.4,MacIntel,66.66666667,,,,,,,,,,,,,1,6.797,0,57,57,16,1,,,,,,,,,,,,,,,,,,,,,,,,,,,,,,,,,,,,,,,,,,,,,,,,,,,,,,,,,,,,,,,,,,,,,,
,,,,1,0.963,,,,,,95,broom,refrigerator,,89849,001,2022-04-24_22h12.21.160,SPAMnetsValid,2021.1.4,MacIntel,66.66666667,,,,,,,,,,,,,1,0.963,0,58,58,90,1,,,,,,,,,,,,,,,,,,,,,,,,,,,,,,,,,,,,,,,,,,,,,,,,,,,,,,,,,,,,,,,,,,,,,,
,,,,4,2.699,,,,,,90,cactus,cake,,89849,001,2022-04-24_22h12.21.160,SPAMnetsValid,2021.1.4,MacIntel,66.66666667,,,,,,,,,,,,,4,2.699,0,59,59,85,1,,,,,,,,,,,,,,,,,,,,,,,,,,,,,,,,,,,,,,,,,,,,,,,,,,,,,,,,,,,,,,,,,,,,,,
,,,,1,1.848,,,,,,43,chocolate,tomato,,89849,001,2022-04-24_22h12.21.160,SPAMnetsValid,2021.1.4,MacIntel,66.66666667,,,,,,,,,,,,,1,1.848,0,60,60,8,1,,,,,,,,,,,,,,,,,,,,,,,,,,,,,,,,,,,,,,,,,,,,,,,,,,,,,,,,,,,,,,,,,,,,,,
,,,,2,2.591,,,,,,38,pretzel,refrigerator,,89849,001,2022-04-24_22h12.21.160,SPAMnetsValid,2021.1.4,MacIntel,66.66666667,,,,,,,,,,,,,2,2.591,0,61,61,71,1,,,,,,,,,,,,,,,,,,,,,,,,,,,,,,,,,,,,,,,,,,,,,,,,,,,,,,,,,,,,,,,,,,,,,,
,,,,1,1.63,,,,,,83,broom,carrot,,89849,001,2022-04-24_22h12.21.160,SPAMnetsValid,2021.1.4,MacIntel,66.66666667,,,,,,,,,,,,,1,1.63,0,62,62,4,1,,,,,,,,,,,,,,,,,,,,,,,,,,,,,,,,,,,,,,,,,,,,,,,,,,,,,,,,,,,,,,,,,,,,,,
,,,,3,3.503,,,,,,64,chocolate,garden,,89849,001,2022-04-24_22h12.21.160,SPAMnetsValid,2021.1.4,MacIntel,66.66666667,,,,,,,,,,,,,3,3.503,0,63,63,14,1,,,,,,,,,,,,,,,,,,,,,,,,,,,,,,,,,,,,,,,,,,,,,,,,,,,,,,,,,,,,,,,,,,,,,,
,,,,9,2.923,,,,,,77,refrigerator,yogurt,,89849,001,2022-04-24_22h12.21.160,SPAMnetsValid,2021.1.4,MacIntel,66.66666667,,,,,,,,,,,,,9,2.923,0,64,64,42,1,,,,,,,,,,,,,,,,,,,,,,,,,,,,,,,,,,,,,,,,,,,,,,,,,,,,,,,,,,,,,,,,,,,,,,
,,,,3,5.937,,,,,,70,chocolate,onion,,89849,001,2022-04-24_22h12.21.160,SPAMnetsValid,2021.1.4,MacIntel,66.66666667,,,,,,,,,,,,,3,5.937,0,65,65,74,1,,,,,,,,,,,,,,,,,,,,,,,,,,,,,,,,,,,,,,,,,,,,,,,,,,,,,,,,,,,,,,,,,,,,,,
,,,,4,2.386,,,,,,59,rose,strawberry,,89849,001,2022-04-24_22h12.21.160,SPAMnetsValid,2021.1.4,MacIntel,66.66666667,,,,,,,,,,,,,4,2.386,0,66,66,72,1,,,,,,,,,,,,,,,,,,,,,,,,,,,,,,,,,,,,,,,,,,,,,,,,,,,,,,,,,,,,,,,,,,,,,,
,,,,7,7.283,,,,,,19,microwave,pretzel,,89849,001,2022-04-24_22h12.21.160,SPAMnetsValid,2021.1.4,MacIntel,66.66666667,,,,,,,,,,,,,7,7.283,0,67,67,41,1,,,,,,,,,,,,,,,,,,,,,,,,,,,,,,,,,,,,,,,,,,,,,,,,,,,,,,,,,,,,,,,,,,,,,,
,,,,1,12.93,,,,,,52,carrot,tomato,,89849,001,2022-04-24_22h12.21.160,SPAMnetsValid,2021.1.4,MacIntel,66.66666667,,,,,,,,,,,,,1,12.93,0,68,68,95,1,,,,,,,,,,,,,,,,,,,,,,,,,,,,,,,,,,,,,,,,,,,,,,,,,,,,,,,,,,,,,,,,,,,,,,
,,,,2,5.979,,,,,,32,cake,microwave,,89849,001,2022-04-24_22h12.21.160,SPAMnetsValid,2021.1.4,MacIntel,66.66666667,,,,,,,,,,,,,2,5.979,0,69,69,33,1,,,,,,,,,,,,,,,,,,,,,,,,,,,,,,,,,,,,,,,,,,,,,,,,,,,,,,,,,,,,,,,,,,,,,,
,,,,1,2.029,,,,,,44,cookie,melon,,89849,001,2022-04-24_22h12.21.160,SPAMnetsValid,2021.1.4,MacIntel,66.66666667,,,,,,,,,,,,,1,2.029,0,70,70,92,1,,,,,,,,,,,,,,,,,,,,,,,,,,,,,,,,,,,,,,,,,,,,,,,,,,,,,,,,,,,,,,,,,,,,,,
,,,,1,1.88,,,,,,91,microwave,rose,,89849,001,2022-04-24_22h12.21.160,SPAMnetsValid,2021.1.4,MacIntel,66.66666667,,,,,,,,,,,,,1,1.88,0,71,71,84,1,,,,,,,,,,,,,,,,,,,,,,,,,,,,,,,,,,,,,,,,,,,,,,,,,,,,,,,,,,,,,,,,,,,,,,
,,,,8,1.829,,,,,,6,garden,onion,,89849,001,2022-04-24_22h12.21.160,SPAMnetsValid,2021.1.4,MacIntel,66.66666667,,,,,,,,,,,,,8,1.829,0,72,72,83,1,,,,,,,,,,,,,,,,,,,,,,,,,,,,,,,,,,,,,,,,,,,,,,,,,,,,,,,,,,,,,,,,,,,,,,
,,,,1,1.545,,,,,,72,broom,onion,,89849,001,2022-04-24_22h12.21.160,SPAMnetsValid,2021.1.4,MacIntel,66.66666667,,,,,,,,,,,,,1,1.545,0,73,73,27,1,,,,,,,,,,,,,,,,,,,,,,,,,,,,,,,,,,,,,,,,,,,,,,,,,,,,,,,,,,,,,,,,,,,,,,
,,,,3,2.471,,,,,,31,cactus,pretzel,,89849,001,2022-04-24_22h12.21.160,SPAMnetsValid,2021.1.4,MacIntel,66.66666667,,,,,,,,,,,,,3,2.471,0,74,74,1,1,,,,,,,,,,,,,,,,,,,,,,,,,,,,,,,,,,,,,,,,,,,,,,,,,,,,,,,,,,,,,,,,,,,,,,
,,,,4,3.797,,,,,,2,kitchen,onion,,89849,001,2022-04-24_22h12.21.160,SPAMnetsValid,2021.1.4,MacIntel,66.66666667,,,,,,,,,,,,,4,3.797,0,75,75,91,1,,,,,,,,,,,,,,,,,,,,,,,,,,,,,,,,,,,,,,,,,,,,,,,,,,,,,,,,,,,,,,,,,,,,,,
,,,,1,1.485,,,,,,40,broom,cake,,89849,001,2022-04-24_22h12.21.160,SPAMnetsValid,2021.1.4,MacIntel,66.66666667,,,,,,,,,,,,,1,1.485,0,76,76,32,1,,,,,,,,,,,,,,,,,,,,,,,,,,,,,,,,,,,,,,,,,,,,,,,,,,,,,,,,,,,,,,,,,,,,,,
,,,,1,41.971,,,,,,29,chocolate,melon,,89849,001,2022-04-24_22h12.21.160,SPAMnetsValid,2021.1.4,MacIntel,66.66666667,,,,,,,,,,,,,1,41.971,0,77,77,34,1,,,,,,,,,,,,,,,,,,,,,,,,,,,,,,,,,,,,,,,,,,,,,,,,,,,,,,,,,,,,,,,,,,,,,,
,,,,2,2.512,,,,,,57,flower,kitchen,,89849,001,2022-04-24_22h12.21.160,SPAMnetsValid,2021.1.4,MacIntel,66.66666667,,,,,,,,,,,,,2,2.512,0,78,78,49,1,,,,,,,,,,,,,,,,,,,,,,,,,,,,,,,,,,,,,,,,,,,,,,,,,,,,,,,,,,,,,,,,,,,,,,
,,,,8,2.328,,,,,,79,garden,strawberry,,89849,001,2022-04-24_22h12.21.160,SPAMnetsValid,2021.1.4,MacIntel,66.66666667,,,,,,,,,,,,,8,2.328,0,79,79,87,1,,,,,,,,,,,,,,,,,,,,,,,,,,,,,,,,,,,,,,,,,,,,,,,,,,,,,,,,,,,,,,,,,,,,,,
,,,,2,1.851,,,,,,46,garden,yogurt,,89849,001,2022-04-24_22h12.21.160,SPAMnetsValid,2021.1.4,MacIntel,66.66666667,,,,,,,,,,,,,2,1.851,0,80,80,65,1,,,,,,,,,,,,,,,,,,,,,,,,,,,,,,,,,,,,,,,,,,,,,,,,,,,,,,,,,,,,,,,,,,,,,,
,,,,1,1.839,,,,,,35,flower,pretzel,,89849,001,2022-04-24_22h12.21.160,SPAMnetsValid,2021.1.4,MacIntel,66.66666667,,,,,,,,,,,,,1,1.839,0,81,81,26,1,,,,,,,,,,,,,,,,,,,,,,,,,,,,,,,,,,,,,,,,,,,,,,,,,,,,,,,,,,,,,,,,,,,,,,
,,,,1,1.503,,,,,,8,broom,melon,,89849,001,2022-04-24_22h12.21.160,SPAMnetsValid,2021.1.4,MacIntel,66.66666667,,,,,,,,,,,,,1,1.503,0,82,82,59,1,,,,,,,,,,,,,,,,,,,,,,,,,,,,,,,,,,,,,,,,,,,,,,,,,,,,,,,,,,,,,,,,,,,,,,
,,,,3,2.431,,,,,,69,carrot,refrigerator,,89849,001,2022-04-24_22h12.21.160,SPAMnetsValid,2021.1.4,MacIntel,66.66666667,,,,,,,,,,,,,3,2.431,0,83,83,75,1,,,,,,,,,,,,,,,,,,,,,,,,,,,,,,,,,,,,,,,,,,,,,,,,,,,,,,,,,,,,,,,,,,,,,,
,,,,1,2.236,,,,,,45,onion,pretzel,,89849,001,2022-04-24_22h12.21.160,SPAMnetsValid,2021.1.4,MacIntel,66.66666667,,,,,,,,,,,,,1,2.236,0,84,84,69,1,,,,,,,,,,,,,,,,,,,,,,,,,,,,,,,,,,,,,,,,,,,,,,,,,,,,,,,,,,,,,,,,,,,,,,
,,,,9,2.961,,,,,,3,cake,oven,,89849,001,2022-04-24_22h12.21.160,SPAMnetsValid,2021.1.4,MacIntel,66.66666667,,,,,,,,,,,,,9,2.961,0,85,85,30,1,,,,,,,,,,,,,,,,,,,,,,,,,,,,,,,,,,,,,,,,,,,,,,,,,,,,,,,,,,,,,,,,,,,,,,
,,,,2,2.52,,,,,,15,onion,oven,,89849,001,2022-04-24_22h12.21.160,SPAMnetsValid,2021.1.4,MacIntel,66.66666667,,,,,,,,,,,,,2,2.52,0,86,86,39,1,,,,,,,,,,,,,,,,,,,,,,,,,,,,,,,,,,,,,,,,,,,,,,,,,,,,,,,,,,,,,,,,,,,,,,
,,,,1,3.22,,,,,,85,cake,tree,,89849,001,2022-04-24_22h12.21.160,SPAMnetsValid,2021.1.4,MacIntel,66.66666667,,,,,,,,,,,,,1,3.22,0,87,87,18,1,,,,,,,,,,,,,,,,,,,,,,,,,,,,,,,,,,,,,,,,,,,,,,,,,,,,,,,,,,,,,,,,,,,,,,
,,,,6,6.048,,,,,,30,cookie,pretzel,,89849,001,2022-04-24_22h12.21.160,SPAMnetsValid,2021.1.4,MacIntel,66.66666667,,,,,,,,,,,,,6,6.048,0,88,88,78,1,,,,,,,,,,,,,,,,,,,,,,,,,,,,,,,,,,,,,,,,,,,,,,,,,,,,,,,,,,,,,,,,,,,,,,
,,,,8,3.07,,,,,,17,carrot,melon,,89849,001,2022-04-24_22h12.21.160,SPAMnetsValid,2021.1.4,MacIntel,66.66666667,,,,,,,,,,,,,8,3.07,0,89,89,24,1,,,,,,,,,,,,,,,,,,,,,,,,,,,,,,,,,,,,,,,,,,,,,,,,,,,,,,,,,,,,,,,,,,,,,,
,,,,6,14.121,,,,,,49,flower,strawberry,,89849,001,2022-04-24_22h12.21.160,SPAMnetsValid,2021.1.4,MacIntel,66.66666667,,,,,,,,,,,,,6,14.121,0,90,90,3,1,,,,,,,,,,,,,,,,,,,,,,,,,,,,,,,,,,,,,,,,,,,,,,,,,,,,,,,,,,,,,,,,,,,,,,
,,,,2,2.695,,,,,,76,garden,rose,,89849,001,2022-04-24_22h12.21.160,SPAMnetsValid,2021.1.4,MacIntel,66.66666667,,,,,,,,,,,,,2,2.695,0,91,91,19,1,,,,,,,,,,,,,,,,,,,,,,,,,,,,,,,,,,,,,,,,,,,,,,,,,,,,,,,,,,,,,,,,,,,,,,
,,,,1,3.783,,,,,,48,flower,oven,,89849,001,2022-04-24_22h12.21.160,SPAMnetsValid,2021.1.4,MacIntel,66.66666667,,,,,,,,,,,,,1,3.783,0,92,92,15,1,,,,,,,,,,,,,,,,,,,,,,,,,,,,,,,,,,,,,,,,,,,,,,,,,,,,,,,,,,,,,,,,,,,,,,
,,,,1,3.613,,,,,,21,cake,onion,,89849,001,2022-04-24_22h12.21.160,SPAMnetsValid,2021.1.4,MacIntel,66.66666667,,,,,,,,,,,,,1,3.613,0,93,93,63,1,,,,,,,,,,,,,,,,,,,,,,,,,,,,,,,,,,,,,,,,,,,,,,,,,,,,,,,,,,,,,,,,,,,,,,
,,,,1,1.614,,,,,,11,refrigerator,tree,,89849,001,2022-04-24_22h12.21.160,SPAMnetsValid,2021.1.4,MacIntel,66.66666667,,,,,,,,,,,,,1,1.614,0,94,94,43,1,,,,,,,,,,,,,,,,,,,,,,,,,,,,,,,,,,,,,,,,,,,,,,,,,,,,,,,,,,,,,,,,,,,,,,
,,,,4,1.756,,,,,,88,cactus,melon,,89849,001,2022-04-24_22h12.21.160,SPAMnetsValid,2021.1.4,MacIntel,66.66666667,,,,,,,,,,,,,4,1.756,0,95,95,38,1,,,,,,,,,,,,,,,,,,,,,,,,,,,,,,,,,,,,,,,,,,,,,,,,,,,,,,,,,,,,,,,,,,,,,,
,,,,1,5.755,,,,,,47,onion,tomato,,89849,001,2022-04-24_22h12.21.160,SPAMnetsValid,2021.1.4,MacIntel,66.66666667,,,,,,,,,,,,,1,5.755,0,96,96,51,1,,,,,,,,,,,,,,,,,,,,,,,,,,,,,,,,,,,,,,,,,,,,,,,,,,,,,,,,,,,,,,,,,,,,,,
,,,,,,,,,,,,,,,89849,001,2022-04-24_22h12.21.160,SPAMnetsValid,2021.1.4,MacIntel,66.66666667,,,,,,,,,,,,,,,,,,,,0,0,0,0,1,,,,,,,,,,,,,,,,,,,,,,,,,,,,,,,,,,,,,,,,,,,,,,,,,,,,,,,,,,,,,,,,,
,,,,,,,,,,,,,,,89849,001,2022-04-24_22h12.21.160,SPAMnetsValid,2021.1.4,MacIntel,66.66666667,,,,,,0,1,1,0,1,1,0,,,,,,,,,,,,,,,,,,,,,,,,,,,,,,,,,,,,,,,,,,,,,,,,,,,,,,,,,,,,,,,,,,,,,,,,,,,,,
,,,,,,,,,,,,,,,89849,001,2022-04-24_22h12.21.160,SPAMnetsValid,2021.1.4,MacIntel,66.66666667,,,,,,,,,,,,,,,,,,,,,,,,,2,4.519,0,0,0,0,1,rancor,forbearance,ridicule,malice,bravery,3,,,,,,,,,,,,,,,,,,,,,,,,,,,,,,,,,,,,,,,,,,,,,,,,,,,,
,,,,,,,,,,,,,,,89849,001,2022-04-24_22h12.21.160,SPAMnetsValid,2021.1.4,MacIntel,66.66666667,,,,,,,,,,,,,,,,,,,,,,,,,4,4.095,0,1,1,1,1,raucous,empty,quiet,smooth,harsh,4,,,,,,,,,,,,,,,,,,,,,,,,,,,,,,,,,,,,,,,,,,,,,,,,,,,,
,,,,,,,,,,,,,,,89849,001,2022-04-24_22h12.21.160,SPAMnetsValid,2021.1.4,MacIntel,66.66666667,,,,,,,,,,,,,,,,,,,,,,,,,3,6.655,0,2,2,2,1,gargoyle,oil,medicine,carved waterspout,ugly building,3,,,,,,,,,,,,,,,,,,,,,,,,,,,,,,,,,,,,,,,,,,,,,,,,,,,,
,,,,,,,,,,,,,,,89849,001,2022-04-24_22h12.21.160,SPAMnetsValid,2021.1.4,MacIntel,66.66666667,,,,,,,,,,,,,,,,,,,,,,,,,1,5.012,0,3,3,3,1,recrudesce,purify,renew activity,lack refinement,crush,2,,,,,,,,,,,,,,,,,,,,,,,,,,,,,,,,,,,,,,,,,,,,,,,,,,,,
,,,,,,,,,,,,,,,89849,001,2022-04-24_22h12.21.160,SPAMnetsValid,2021.1.4,MacIntel,66.66666667,,,,,,,,,,,,,,,,,,,,,,,,,2,5.157,0,4,4,4,1,specious,"plausible, but not genuine",noteworthy,class or variety,roomy,1,,,,,,,,,,,,,,,,,,,,,,,,,,,,,,,,,,,,,,,,,,,,,,,,,,,,
,,,,,,,,,,,,,,,89849,001,2022-04-24_22h12.21.160,SPAMnetsValid,2021.1.4,MacIntel,66.66666667,,,,,,,,,,,,,,,,,,,,,,,,,4,7.978,0,5,5,5,1,bauble,bubble,showy plaything,idle talk,confusion,2,,,,,,,,,,,,,,,,,,,,,,,,,,,,,,,,,,,,,,,,,,,,,,,,,,,,
,,,,,,,,,,,,,,,89849,001,2022-04-24_22h12.21.160,SPAMnetsValid,2021.1.4,MacIntel,66.66666667,,,,,,,,,,,,,,,,,,,,,,,,,4,4.874,0,6,6,6,1,prolific,scarce,producing abundantly,reckless,speaking profanely,2,,,,,,,,,,,,,,,,,,,,,,,,,,,,,,,,,,,,,,,,,,,,,,,,,,,,
,,,,,,,,,,,,,,,89849,001,2022-04-24_22h12.21.160,SPAMnetsValid,2021.1.4,MacIntel,66.66666667,,,,,,,,,,,,,,,,,,,,,,,,,3,5.864,0,7,7,7,1,opulent,party,wealthy,happy frame of mind,semiprecious stone,2,,,,,,,,,,,,,,,,,,,,,,,,,,,,,,,,,,,,,,,,,,,,,,,,,,,,
,,,,,,,,,,,,,,,89849,001,2022-04-24_22h12.21.160,SPAMnetsValid,2021.1.4,MacIntel,66.66666667,,,,,,,,,,,,,,,,,,,,,,,,,4,3.856,0,8,8,8,1,coercion,conspiracy,strategy,restraint,attraction,3,,,,,,,,,,,,,,,,,,,,,,,,,,,,,,,,,,,,,,,,,,,,,,,,,,,,
,,,,,,,,,,,,,,,89849,001,2022-04-24_22h12.21.160,SPAMnetsValid,2021.1.4,MacIntel,66.66666667,,,,,,,,,,,,,,,,,,,,,,,,,2,5.253,0,9,9,9,1,hiatus,animal,calamity,dread,gap,4,,,,,,,,,,,,,,,,,,,,,,,,,,,,,,,,,,,,,,,,,,,,,,,,,,,,
,,,,,,,,,,,,,,,89849,001,2022-04-24_22h12.21.160,SPAMnetsValid,2021.1.4,MacIntel,66.66666667,,,,,,,,,,,,,,,,,,,,,,,,,3,2.83,0,10,10,10,1,germane,microbe,contagious,relevant,different,3,,,,,,,,,,,,,,,,,,,,,,,,,,,,,,,,,,,,,,,,,,,,,,,,,,,,
,,,,,,,,,,,,,,,89849,001,2022-04-24_22h12.21.160,SPAMnetsValid,2021.1.4,MacIntel,66.66666667,,,,,,,,,,,,,,,,,,,,,,,,,1,3.754,0,11,11,11,1,perfunctory,fundamental,formal,superficial,careful,3,,,,,,,,,,,,,,,,,,,,,,,,,,,,,,,,,,,,,,,,,,,,,,,,,,,,
,,,,,,,,,,,,,,,89849,001,2022-04-24_22h12.21.160,SPAMnetsValid,2021.1.4,MacIntel,66.66666667,,,,,,,,,,,,,,,,,,,,,,,,,4,2.254,0,12,12,12,1,diverge,reveal,chant,distract the attention of,differ or turn off from,4,,,,,,,,,,,,,,,,,,,,,,,,,,,,,,,,,,,,,,,,,,,,,,,,,,,,
,,,,,,,,,,,,,,,89849,001,2022-04-24_22h12.21.160,SPAMnetsValid,2021.1.4,MacIntel,66.66666667,,,,,,,,,,,,,,,,,,,,,,,,,4,3.263,0,13,13,13,1,evoke,take away,anger,connect,bring out,4,,,,,,,,,,,,,,,,,,,,,,,,,,,,,,,,,,,,,,,,,,,,,,,,,,,,
,,,,,,,,,,,,,,,89849,001,2022-04-24_22h12.21.160,SPAMnetsValid,2021.1.4,MacIntel,66.66666667,,,,,,,,,,,,,,,,,,,,,,,,,1,10.613,0,14,14,14,1,pertinent,relevant,lying next to,necessary,bold,1,,,,,,,,,,,,,,,,,,,,,,,,,,,,,,,,,,,,,,,,,,,,,,,,,,,,
,,,,,,,,,,,,,,,89849,001,2022-04-24_22h12.21.160,SPAMnetsValid,2021.1.4,MacIntel,66.66666667,,,,,,,,,,,,,,,,,,,,,,,,,2,2.383,0,15,15,15,1,holocaust,entirety,destruction,saintly,price,2,,,,,,,,,,,,,,,,,,,,,,,,,,,,,,,,,,,,,,,,,,,,,,,,,,,,
,,,,,,,,,,,,,,,89849,001,2022-04-24_22h12.21.160,SPAMnetsValid,2021.1.4,MacIntel,66.66666667,,,,,,,,,,,,,,,,,,,,,,,,,1,3.049,0,16,16,16,1,piquant,mellow,fish,pungent,cloth,3,,,,,,,,,,,,,,,,,,,,,,,,,,,,,,,,,,,,,,,,,,,,,,,,,,,,
,,,,,,,,,,,,,,,89849,001,2022-04-24_22h12.21.160,SPAMnetsValid,2021.1.4,MacIntel,66.66666667,,,,,,,,,,,,,,,,,,,,,,,,,1,2.25,0,17,17,17,1,firmament,foundation,heavens,strong,glue,2,,,,,,,,,,,,,,,,,,,,,,,,,,,,,,,,,,,,,,,,,,,,,,,,,,,,
,,,,,,,,,,,,,,,89849,001,2022-04-24_22h12.21.160,SPAMnetsValid,2021.1.4,MacIntel,66.66666667,,,,,,,,,,,,,,,,,,,,,,,,,,,,,,,,,,,,,,4,3.173,0,0,0,0,1,marketable,partisan,jocular,marriageable,salable,essential,4,,,,,,,,,,,,,,,,,,,,,,,,,,,,,,,,,,,,,,
,,,,,,,,,,,,,,,89849,001,2022-04-24_22h12.21.160,SPAMnetsValid,2021.1.4,MacIntel,66.66666667,,,,,,,,,,,,,,,,,,,,,,,,,,,,,,,,,,,,,,4,2.394,0,1,1,1,1,cottontail,squirrel,poplar,boa,marshy plant,rabbit,5,,,,,,,,,,,,,,,,,,,,,,,,,,,,,,,,,,,,,,
,,,,,,,,,,,,,,,89849,001,2022-04-24_22h12.21.160,SPAMnetsValid,2021.1.4,MacIntel,66.66666667,,,,,,,,,,,,,,,,,,,,,,,,,,,,,,,,,,,,,,3,1.798,0,2,2,2,1,boggy,afraid,false,marshy,dense,black,3,,,,,,,,,,,,,,,,,,,,,,,,,,,,,,,,,,,,,,
,,,,,,,,,,,,,,,89849,001,2022-04-24_22h12.21.160,SPAMnetsValid,2021.1.4,MacIntel,66.66666667,,,,,,,,,,,,,,,,,,,,,,,,,,,,,,,,,,,,,,3,7.415,0,3,3,3,1,gruesomeness,blackness,falseness,vindictiveness,drunkenness,ghastliness,5,,,,,,,,,,,,,,,,,,,,,,,,,,,,,,,,,,,,,,
,,,,,,,,,,,,,,,89849,001,2022-04-24_22h12.21.160,SPAMnetsValid,2021.1.4,MacIntel,66.66666667,,,,,,,,,,,,,,,,,,,,,,,,,,,,,,,,,,,,,,5,7.947,0,4,4,4,1,loathing,diffidence,laziness,abhorrence,cleverness,comfort,3,,,,,,,,,,,,,,,,,,,,,,,,,,,,,,,,,,,,,,
,,,,,,,,,,,,,,,89849,001,2022-04-24_22h12.21.160,SPAMnetsValid,2021.1.4,MacIntel,66.66666667,,,,,,,,,,,,,,,,,,,,,,,,,,,,,,,,,,,,,,1,3.998,0,5,5,5,1,bantam,fowl,ridicule,cripple,vegetable,ensign,1,,,,,,,,,,,,,,,,,,,,,,,,,,,,,,,,,,,,,,
,,,,,,,,,,,,,,,89849,001,2022-04-24_22h12.21.160,SPAMnetsValid,2021.1.4,MacIntel,66.66666667,,,,,,,,,,,,,,,,,,,,,,,,,,,,,,,,,,,,,,5,3.438,0,6,6,6,1,evoke,wake up,surrender,reconnoiter,transcend,call forth,5,,,,,,,,,,,,,,,,,,,,,,,,,,,,,,,,,,,,,,
,,,,,,,,,,,,,,,89849,001,2022-04-24_22h12.21.160,SPAMnetsValid,2021.1.4,MacIntel,66.66666667,,,,,,,,,,,,,,,,,,,,,,,,,,,,,,,,,,,,,,5,18.905,0,7,7,7,1,unobtrusive,unintelligent,epileptic,illogical,lineal,modest,5,,,,,,,,,,,,,,,,,,,,,,,,,,,,,,,,,,,,,,
,,,,,,,,,,,,,,,89849,001,2022-04-24_22h12.21.160,SPAMnetsValid,2021.1.4,MacIntel,66.66666667,,,,,,,,,,,,,,,,,,,,,,,,,,,,,,,,,,,,,,4,2.74,0,8,8,8,1,terrain,ice cream,final test,tractor,area of ground,weight,4,,,,,,,,,,,,,,,,,,,,,,,,,,,,,,,,,,,,,,
,,,,,,,,,,,,,,,89849,001,2022-04-24_22h12.21.160,SPAMnetsValid,2021.1.4,MacIntel,66.66666667,,,,,,,,,,,,,,,,,,,,,,,,,,,,,,,,,,,,,,3,4.646,0,9,9,9,1,capriciousness,stubbornness,courage,whimsicality,amazement,greediness,3,,,,,,,,,,,,,,,,,,,,,,,,,,,,,,,,,,,,,,
,,,,,,,,,,,,,,,89849,001,2022-04-24_22h12.21.160,SPAMnetsValid,2021.1.4,MacIntel,66.66666667,,,,,,,,,,,,,,,,,,,,,,,,,,,,,,,,,,,,,,1,4.722,0,10,10,10,1,maelstrom,slander,whirlpool,enmity,armor,majolica,2,,,,,,,,,,,,,,,,,,,,,,,,,,,,,,,,,,,,,,
,,,,,,,,,,,,,,,89849,001,2022-04-24_22h12.21.160,SPAMnetsValid,2021.1.4,MacIntel,66.66666667,,,,,,,,,,,,,,,,,,,,,,,,,,,,,,,,,,,,,,4,3.922,0,11,11,11,1,tentative,critical,conclusive,authentic,provisional,apprehensive,4,,,,,,,,,,,,,,,,,,,,,,,,,,,,,,,,,,,,,,
,,,,,,,,,,,,,,,89849,001,2022-04-24_22h12.21.160,SPAMnetsValid,2021.1.4,MacIntel,66.66666667,,,,,,,,,,,,,,,,,,,,,,,,,,,,,,,,,,,,,,2,3.387,0,12,12,12,1,placate,rehabilitate,plagiarize,depredate,apprise,conciliate,5,,,,,,,,,,,,,,,,,,,,,,,,,,,,,,,,,,,,,,
,,,,,,,,,,,,,,,89849,001,2022-04-24_22h12.21.160,SPAMnetsValid,2021.1.4,MacIntel,66.66666667,,,,,,,,,,,,,,,,,,,,,,,,,,,,,,,,,,,,,,2,5.988,0,13,13,13,1,surcease,enlightenment,cessation,inattention,censor,substitution,2,,,,,,,,,,,,,,,,,,,,,,,,,,,,,,,,,,,,,,
,,,,,,,,,,,,,,,89849,001,2022-04-24_22h12.21.160,SPAMnetsValid,2021.1.4,MacIntel,66.66666667,,,,,,,,,,,,,,,,,,,,,,,,,,,,,,,,,,,,,,2,6.388,0,14,14,14,1,apathetic,wandering,impassive,hateful,prophetic,overflowing,2,,,,,,,,,,,,,,,,,,,,,,,,,,,,,,,,,,,,,,
,,,,,,,,,,,,,,,89849,001,2022-04-24_22h12.21.160,SPAMnetsValid,2021.1.4,MacIntel,66.66666667,,,,,,,,,,,,,,,,,,,,,,,,,,,,,,,,,,,,,,4,6.646,0,15,15,15,1,paternoster,paternalism,patricide,malediction,benediction,prayer,5,,,,,,,,,,,,,,,,,,,,,,,,,,,,,,,,,,,,,,
,,,,,,,,,,,,,,,89849,001,2022-04-24_22h12.21.160,SPAMnetsValid,2021.1.4,MacIntel,66.66666667,,,,,,,,,,,,,,,,,,,,,,,,,,,,,,,,,,,,,,4,8.522,0,16,16,16,1,opalescence,opulence,senescence,bankruptcy,iridescence,assiduity,4,,,,,,,,,,,,,,,,,,,,,,,,,,,,,,,,,,,,,,
,,,,,,,,,,,,,,,89849,001,2022-04-24_22h12.21.160,SPAMnetsValid,2021.1.4,MacIntel,66.66666667,,,,,,,,,,,,,,,,,,,,,,,,,,,,,,,,,,,,,,2,4.482,0,17,17,17,1,lush,stupid,luxurious,hazy,putrid,languishing,2,,,,,,,,,,,,,,,,,,,,,,,,,,,,,,,,,,,,,,
,,,,,,,,,,,,,,,89849,001,2022-04-24_22h12.21.160,SPAMnetsValid,2021.1.4,MacIntel,66.66666667,,,,,,,,,,,,,,,,,,,,,,,,,,,,,,,,,,,,,,3,6.247,0,18,18,18,1,curtailment,expenditure,abandonment,abridgment,improvement,forgery,3,,,,,,,,,,,,,,,,,,,,,,,,,,,,,,,,,,,,,,
,,,,,,,,,,,,,,,89849,001,2022-04-24_22h12.21.160,SPAMnetsValid,2021.1.4,MacIntel,66.66666667,,,,,,,,,,,,,,,,,,,,,,,,,,,,,,,,,,,,,,4,7.013,0,19,19,19,1,perversity,adversity,perviousness,travesty,waywardness,gentility,4,,,,,,,,,,,,,,,,,,,,,,,,,,,,,,,,,,,,,,
,,,,,,,,,,,,,,,89849,001,2022-04-24_22h12.21.160,SPAMnetsValid,2021.1.4,MacIntel,66.66666667,,,,,,,,,,,,,,,,,,,,,,,,,,,,,,,,,,,,,,4,5.77,0,20,20,20,1,calumnious,complimentary,analogous,slanderous,tempestuous,magnanimous,3,,,,,,,,,,,,,,,,,,,,,,,,,,,,,,,,,,,,,,
,,,,,,,,,,,,,,,89849,001,2022-04-24_22h12.21.160,SPAMnetsValid,2021.1.4,MacIntel,66.66666667,,,,,,,,,,,,,,,,,,,,,,,,,,,,,,,,,,,,,,2,4.785,0,21,21,21,1,illiberality,bigotry,imbecility,illegibility,cautery,immaturity,1,,,,,,,,,,,,,,,,,,,,,,,,,,,,,,,,,,,,,,
,,,,,,,,,,,,,,,89849,001,2022-04-24_22h12.21.160,SPAMnetsValid,2021.1.4,MacIntel,66.66666667,,,,,,,,,,,,,,,,,,,,,,,,,,,,,,,,,,,,,,2,5.071,0,22,22,22,1,clabber,rejoice,gossip,curdle,crow,hobble,3,,,,,,,,,,,,,,,,,,,,,,,,,,,,,,,,,,,,,,
,,,,,,,,,,,,,,,89849,001,2022-04-24_22h12.21.160,SPAMnetsValid,2021.1.4,MacIntel,66.66666667,,,,,,,,,,,,,,,,,,,,,,,,,,,,,,,,,,,,,,3,7.282,0,23,23,23,1,sedulousness,diligence,credulousness,seduction,perilousness,frankness,1,,,,,,,,,,,,,,,,,,,,,,,,,,,,,,,,,,,,,,
,,,,,,,,,,,,,,,89849,001,2022-04-24_22h12.21.160,SPAMnetsValid,2021.1.4,MacIntel,66.66666667,,,,,,,,,,,,,,,,,,,,,,,,,,,,,,,,,,,,,,,,,,,,,,,,,,,,0,0,0,0,1,bucket,,,,,,,,,,,,,,,,,,,,,,,,,,,,,,,,
,,,,,,,,,,,,,,,89849,001,2022-04-24_22h12.21.160,SPAMnetsValid,2021.1.4,MacIntel,66.66666667,,,,,,,,,,,,,,,,,,,,,,,,,,,,,,,,,,,,,,,,,,,,,,,,,,,,,,,,,,"head holder, used for fighting, hit someone, prop up your back, fire starter, cusion,  money holder, ",pillow,0,0,0,0,1,,,,,,,,,,,,,,,,,,,,,,,,,
,,,,,,,,,,,,,,,89849,001,2022-04-24_22h12.21.160,SPAMnetsValid,2021.1.4,MacIntel,66.66666667,,,,,,,,,,,,,,,,,,,,,,,,,,,,,,,,,,,,,,,,,,,,,,,,,,,,,,,,,,money holder,pillow,1,0,1,0,1,,,,,,,,,,,,,,,,,,,,,,,,,
,,,,,,,,,,,,,,,89849,001,2022-04-24_22h12.21.160,SPAMnetsValid,2021.1.4,MacIntel,66.66666667,,,,,,,,,,,,,,,,,,,,,,,,,,,,,,,,,,,,,,,,,,,,,,,,,,,,,,,,,,head holder,pillow,2,0,2,0,1,,,,,,,,,,,,,,,,,,,,,,,,,
,,,,,,,,,,,,,,,89849,001,2022-04-24_22h12.21.160,SPAMnetsValid,2021.1.4,MacIntel,66.66666667,,,,,,,,,,,,,,,,,,,,,,,,,,,,,,,,,,,,,,,,,,,,,,,,,,,,0,1,1,2,1,pillow,,,,,,,,,,,,,,,,,,,,,,,,,,,,,,,,
,,,,,,,,,,,,,,,89849,001,2022-04-24_22h12.21.160,SPAMnetsValid,2021.1.4,MacIntel,66.66666667,,,,,,,,,,,,,,,,,,,,,,,,,,,,,,,,,,,,,,,,,,,,,,,,,,,,,,,,,,light source,candle,0,0,0,0,1,,,,,,,,,,,,,,,,,,,,,,,,,
,,,,,,,,,,,,,,,89849,001,2022-04-24_22h12.21.160,SPAMnetsValid,2021.1.4,MacIntel,66.66666667,,,,,,,,,,,,,,,,,,,,,,,,,,,,,,,,,,,,,,,,,,,,,,,,,,,,,,,,,,change holder,candle,1,0,1,0,1,,,,,,,,,,,,,,,,,,,,,,,,,
,,,,,,,,,,,,,,,89849,001,2022-04-24_22h12.21.160,SPAMnetsValid,2021.1.4,MacIntel,66.66666667,,,,,,,,,,,,,,,,,,,,,,,,,,,,,,,,,,,,,,,,,,,,,,,,,,,,,,,,,,improver of smell,candle,2,0,2,0,1,,,,,,,,,,,,,,,,,,,,,,,,,
,,,,,,,,,,,,,,,89849,001,2022-04-24_22h12.21.160,SPAMnetsValid,2021.1.4,MacIntel,66.66666667,,,,,,,,,,,,,,,,,,,,,,,,,,,,,,,,,,,,,,,,,,,,,,,,,,,,,,,,,,fire starter,candle,3,0,3,0,1,,,,,,,,,,,,,,,,,,,,,,,,,
,,,,,,,,,,,,,,,89849,001,2022-04-24_22h12.21.160,SPAMnetsValid,2021.1.4,MacIntel,66.66666667,,,,,,,,,,,,,,,,,,,,,,,,,,,,,,,,,,,,,,,,,,,,,,,,,,,,,,,,,,warmth,candle,4,0,4,0,1,,,,,,,,,,,,,,,,,,,,,,,,,
,,,,,,,,,,,,,,,89849,001,2022-04-24_22h12.21.160,SPAMnetsValid,2021.1.4,MacIntel,66.66666667,,,,,,,,,,,,,,,,,,,,,,,,,,,,,,,,,,,,,,,,,,,,,,,,,,,,,,,,,,purifier of metals,candle,5,0,5,0,1,,,,,,,,,,,,,,,,,,,,,,,,,
,,,,,,,,,,,,,,,89849,001,2022-04-24_22h12.21.160,SPAMnetsValid,2021.1.4,MacIntel,66.66666667,,,,,,,,,,,,,,,,,,,,,,,,,,,,,,,,,,,,,,,,,,,,,,,,,,,,,,,,,,melter,candle,6,0,6,0,1,,,,,,,,,,,,,,,,,,,,,,,,,
,,,,,,,,,,,,,,,89849,001,2022-04-24_22h12.21.160,SPAMnetsValid,2021.1.4,MacIntel,66.66666667,,,,,,,,,,,,,,,,,,,,,,,,,,,,,,,,,,,,,,,,,,,,,,,,,,,,0,2,2,1,1,candle,,,,,,,,,,,,,,,,,,,,,,,,,,,,,,,,
,,,,,,,,,,,,,,,89849,001,2022-04-24_22h12.21.160,SPAMnetsValid,2021.1.4,MacIntel,66.66666667,,,,,,,,,,,,,,,,,,,,,,,,,,,,,,,,,,,,,,,,,,,,,,,,,,,,,,,,,,,,,,,,,giraffe,Animals,0,0,0,0,1,,,,,,,,,,,,,,,,,,
,,,,,,,,,,,,,,,89849,001,2022-04-24_22h12.21.160,SPAMnetsValid,2021.1.4,MacIntel,66.66666667,,,,,,,,,,,,,,,,,,,,,,,,,,,,,,,,,,,,,,,,,,,,,,,,,,,,,,,,,,,,,,,,,deer,Animals,1,0,1,0,1,,,,,,,,,,,,,,,,,,
,,,,,,,,,,,,,,,89849,001,2022-04-24_22h12.21.160,SPAMnetsValid,2021.1.4,MacIntel,66.66666667,,,,,,,,,,,,,,,,,,,,,,,,,,,,,,,,,,,,,,,,,,,,,,,,,,,,,,,,,,,,,,,,,squirrel,Animals,2,0,2,0,1,,,,,,,,,,,,,,,,,,
,,,,,,,,,,,,,,,89849,001,2022-04-24_22h12.21.160,SPAMnetsValid,2021.1.4,MacIntel,66.66666667,,,,,,,,,,,,,,,,,,,,,,,,,,,,,,,,,,,,,,,,,,,,,,,,,,,,,,,,,,,,,,,,,mouse,Animals,3,0,3,0,1,,,,,,,,,,,,,,,,,,
,,,,,,,,,,,,,,,89849,001,2022-04-24_22h12.21.160,SPAMnetsValid,2021.1.4,MacIntel,66.66666667,,,,,,,,,,,,,,,,,,,,,,,,,,,,,,,,,,,,,,,,,,,,,,,,,,,,,,,,,,,,,,,,,rat,Animals,4,0,4,0,1,,,,,,,,,,,,,,,,,,
,,,,,,,,,,,,,,,89849,001,2022-04-24_22h12.21.160,SPAMnetsValid,2021.1.4,MacIntel,66.66666667,,,,,,,,,,,,,,,,,,,,,,,,,,,,,,,,,,,,,,,,,,,,,,,,,,,,,,,,,,,,,,,,,bear,Animals,5,0,5,0,1,,,,,,,,,,,,,,,,,,
,,,,,,,,,,,,,,,89849,001,2022-04-24_22h12.21.160,SPAMnetsValid,2021.1.4,MacIntel,66.66666667,,,,,,,,,,,,,,,,,,,,,,,,,,,,,,,,,,,,,,,,,,,,,,,,,,,,,,,,,,,,,,,,,turkey,Animals,6,0,6,0,1,,,,,,,,,,,,,,,,,,
,,,,,,,,,,,,,,,89849,001,2022-04-24_22h12.21.160,SPAMnetsValid,2021.1.4,MacIntel,66.66666667,,,,,,,,,,,,,,,,,,,,,,,,,,,,,,,,,,,,,,,,,,,,,,,,,,,,,,,,,,,,,,,,,coi,Animals,7,0,7,0,1,,,,,,,,,,,,,,,,,,
,,,,,,,,,,,,,,,89849,001,2022-04-24_22h12.21.160,SPAMnetsValid,2021.1.4,MacIntel,66.66666667,,,,,,,,,,,,,,,,,,,,,,,,,,,,,,,,,,,,,,,,,,,,,,,,,,,,,,,,,,,,,,,,,trout,Animals,8,0,8,0,1,,,,,,,,,,,,,,,,,,
,,,,,,,,,,,,,,,89849,001,2022-04-24_22h12.21.160,SPAMnetsValid,2021.1.4,MacIntel,66.66666667,,,,,,,,,,,,,,,,,,,,,,,,,,,,,,,,,,,,,,,,,,,,,,,,,,,,,,,,,,,,,,,,,kingfish,Animals,9,0,9,0,1,,,,,,,,,,,,,,,,,,
,,,,,,,,,,,,,,,89849,001,2022-04-24_22h12.21.160,SPAMnetsValid,2021.1.4,MacIntel,66.66666667,,,,,,,,,,,,,,,,,,,,,,,,,,,,,,,,,,,,,,,,,,,,,,,,,,,,,,,,,,,,,,,,,blue gill,Animals,10,0,10,0,1,,,,,,,,,,,,,,,,,,
,,,,,,,,,,,,,,,89849,001,2022-04-24_22h12.21.160,SPAMnetsValid,2021.1.4,MacIntel,66.66666667,,,,,,,,,,,,,,,,,,,,,,,,,,,,,,,,,,,,,,,,,,,,,,,,,,,,,,,,,,,,,,,,,bass,Animals,11,0,11,0,1,,,,,,,,,,,,,,,,,,
,,,,,,,,,,,,,,,89849,001,2022-04-24_22h12.21.160,SPAMnetsValid,2021.1.4,MacIntel,66.66666667,,,,,,,,,,,,,,,,,,,,,,,,,,,,,,,,,,,,,,,,,,,,,,,,,,,,,,,,,,,,,,,,,minnow,Animals,12,0,12,0,1,,,,,,,,,,,,,,,,,,
,,,,,,,,,,,,,,,89849,001,2022-04-24_22h12.21.160,SPAMnetsValid,2021.1.4,MacIntel,66.66666667,,,,,,,,,,,,,,,,,,,,,,,,,,,,,,,,,,,,,,,,,,,,,,,,,,,,,,,,,,,,,,,,,dog,Animals,13,0,13,0,1,,,,,,,,,,,,,,,,,,
,,,,,,,,,,,,,,,89849,001,2022-04-24_22h12.21.160,SPAMnetsValid,2021.1.4,MacIntel,66.66666667,,,,,,,,,,,,,,,,,,,,,,,,,,,,,,,,,,,,,,,,,,,,,,,,,,,,,,,,,,,,,,,,,cat,Animals,14,0,14,0,1,,,,,,,,,,,,,,,,,,
,,,,,,,,,,,,,,,89849,001,2022-04-24_22h12.21.160,SPAMnetsValid,2021.1.4,MacIntel,66.66666667,,,,,,,,,,,,,,,,,,,,,,,,,,,,,,,,,,,,,,,,,,,,,,,,,,,,,,,,,,,,,,,,,hamster,Animals,15,0,15,0,1,,,,,,,,,,,,,,,,,,
,,,,,,,,,,,,,,,89849,001,2022-04-24_22h12.21.160,SPAMnetsValid,2021.1.4,MacIntel,66.66666667,,,,,,,,,,,,,,,,,,,,,,,,,,,,,,,,,,,,,,,,,,,,,,,,,,,,,,,,,,,,,,,,,chamelion,Animals,16,0,16,0,1,,,,,,,,,,,,,,,,,,
,,,,,,,,,,,,,,,89849,001,2022-04-24_22h12.21.160,SPAMnetsValid,2021.1.4,MacIntel,66.66666667,,,,,,,,,,,,,,,,,,,,,,,,,,,,,,,,,,,,,,,,,,,,,,,,,,,,,,,,,,,,,,,,,lizard,Animals,17,0,17,0,1,,,,,,,,,,,,,,,,,,
,,,,,,,,,,,,,,,89849,001,2022-04-24_22h12.21.160,SPAMnetsValid,2021.1.4,MacIntel,66.66666667,,,,,,,,,,,,,,,,,,,,,,,,,,,,,,,,,,,,,,,,,,,,,,,,,,,,,,,,,,,,,,,,,snake,Animals,18,0,18,0,1,,,,,,,,,,,,,,,,,,
,,,,,,,,,,,,,,,89849,001,2022-04-24_22h12.21.160,SPAMnetsValid,2021.1.4,MacIntel,66.66666667,,,,,,,,,,,,,,,,,,,,,,,,,,,,,,,,,,,,,,,,,,,,,,,,,,,,,,,,,,,,,,,,,donkey,Animals,19,0,19,0,1,,,,,,,,,,,,,,,,,,
,,,,,,,,,,,,,,,89849,001,2022-04-24_22h12.21.160,SPAMnetsValid,2021.1.4,MacIntel,66.66666667,,,,,,,,,,,,,,,,,,,,,,,,,,,,,,,,,,,,,,,,,,,,,,,,,,,,,,,,,,,,,,,,,goats,Animals,20,0,20,0,1,,,,,,,,,,,,,,,,,,
,,,,,,,,,,,,,,,89849,001,2022-04-24_22h12.21.160,SPAMnetsValid,2021.1.4,MacIntel,66.66666667,,,,,,,,,,,,,,,,,,,,,,,,,,,,,,,,,,,,,,,,,,,,,,,,,,,,,,,,,,,,,,,,,cow,Animals,21,0,21,0,1,,,,,,,,,,,,,,,,,,
,,,,,,,,,,,,,,,89849,001,2022-04-24_22h12.21.160,SPAMnetsValid,2021.1.4,MacIntel,66.66666667,,,,,,,,,,,,,,,,,,,,,,,,,,,,,,,,,,,,,,,,,,,,,,,,,,,,,,,,,,,,,,,,,pig,Animals,22,0,22,0,1,,,,,,,,,,,,,,,,,,
,,,,,,,,,,,,,,,89849,001,2022-04-24_22h12.21.160,SPAMnetsValid,2021.1.4,MacIntel,66.66666667,,,,,,,,,,,,,,,,,,,,,,,,,,,,,,,,,,,,,,,,,,,,,,,,,,,,,,,,,,,,,,,,,chicken,Animals,23,0,23,0,1,,,,,,,,,,,,,,,,,,
,,,,,,,,,,,,,,,89849,001,2022-04-24_22h12.21.160,SPAMnetsValid,2021.1.4,MacIntel,66.66666667,,,,,,,,,,,,,,,,,,,,,,,,,,,,,,,,,,,,,,,,,,,,,,,,,,,,,,,,,,,,,,,,,moose,Animals,24,0,24,0,1,,,,,,,,,,,,,,,,,,
,,,,,,,,,,,,,,,89849,001,2022-04-24_22h12.21.160,SPAMnetsValid,2021.1.4,MacIntel,66.66666667,,,,,,,,,,,,,,,,,,,,,,,,,,,,,,,,,,,,,,,,,,,,,,,,,,,,,,,,,,,,,,,,,elk,Animals,25,0,25,0,1,,,,,,,,,,,,,,,,,,
,,,,,,,,,,,,,,,89849,001,2022-04-24_22h12.21.160,SPAMnetsValid,2021.1.4,MacIntel,66.66666667,,,,,,,,,,,,,,,,,,,,,,,,,,,,,,,,,,,,,,,,,,,,,,,,,,,,,,,,,,,,,,,,,elephant,Animals,26,0,26,0,1,,,,,,,,,,,,,,,,,,
,,,,,,,,,,,,,,,89849,001,2022-04-24_22h12.21.160,SPAMnetsValid,2021.1.4,MacIntel,66.66666667,,,,,,,,,,,,,,,,,,,,,,,,,,,,,,,,,,,,,,,,,,,,,,,,,,,,,,,,,,,,,,,,,zebra,Animals,27,0,27,0,1,,,,,,,,,,,,,,,,,,
,,,,,,,,,,,,,,,89849,001,2022-04-24_22h12.21.160,SPAMnetsValid,2021.1.4,MacIntel,66.66666667,,,,,,,,,,,,,,,,,,,,,,,,,,,,,,,,,,,,,,,,,,,,,,,,,,,,,,,,,,,,,,,,,hyena,Animals,28,0,28,0,1,,,,,,,,,,,,,,,,,,
,,,,,,,,,,,,,,,89849,001,2022-04-24_22h12.21.160,SPAMnetsValid,2021.1.4,MacIntel,66.66666667,,,,,,,,,,,,,,,,,,,,,,,,,,,,,,,,,,,,,,,,,,,,,,,,,,,,,,,,,,,,,,,,,monkey,Animals,29,0,29,0,1,,,,,,,,,,,,,,,,,,
,,,,,,,,,,,,,,,89849,001,2022-04-24_22h12.21.160,SPAMnetsValid,2021.1.4,MacIntel,66.66666667,,,,,,,,,,,,,,,,,,,,,,,,,,,,,,,,,,,,,,,,,,,,,,,,,,,,,,,,,,,,,,,,,gorilla,Animals,30,0,30,0,1,,,,,,,,,,,,,,,,,,
,,,,,,,,,,,,,,,89849,001,2022-04-24_22h12.21.160,SPAMnetsValid,2021.1.4,MacIntel,66.66666667,,,,,,,,,,,,,,,,,,,,,,,,,,,,,,,,,,,,,,,,,,,,,,,,,,,,,,,,,,,,,,,,,frog,Animals,31,0,31,0,1,,,,,,,,,,,,,,,,,,
,,,,,,,,,,,,,,,89849,001,2022-04-24_22h12.21.160,SPAMnetsValid,2021.1.4,MacIntel,66.66666667,,,,,,,,,,,,,,,,,,,,,,,,,,,,,,,,,,,,,,,,,,,,,,,,,,,,,,,,,,,,,,,,,toad,Animals,32,0,32,0,1,,,,,,,,,,,,,,,,,,
,,,,,,,,,,,,,,,89849,001,2022-04-24_22h12.21.160,SPAMnetsValid,2021.1.4,MacIntel,66.66666667,,,,,,,,,,,,,,,,,,,,,,,,,,,,,,,,,,,,,,,,,,,,,,,,,,,,,,,,,,,,,,,,,spider,Animals,33,0,33,0,1,,,,,,,,,,,,,,,,,,
,,,,,,,,,,,,,,,89849,001,2022-04-24_22h12.21.160,SPAMnetsValid,2021.1.4,MacIntel,66.66666667,,,,,,,,,,,,,,,,,,,,,,,,,,,,,,,,,,,,,,,,,,,,,,,,,,,,,,,,,,,,,,,,,lamb,Animals,34,0,34,0,1,,,,,,,,,,,,,,,,,,
,,,,,,,,,,,,,,,89849,001,2022-04-24_22h12.21.160,SPAMnetsValid,2021.1.4,MacIntel,66.66666667,,,,,,,,,,,,,,,,,,,,,,,,,,,,,,,,,,,,,,,,,,,,,,,,,,,,,,,,,,,,,,,,,sheep,Animals,35,0,35,0,1,,,,,,,,,,,,,,,,,,
,,,,,,,,,,,,,,,89849,001,2022-04-24_22h12.21.160,SPAMnetsValid,2021.1.4,MacIntel,66.66666667,,,,,,,,,,,,,,,,,,,,,,,,,,,,,,,,,,,,,,,,,,,,,,,,,,,,,,,,,,,,,,,,,,,,,,,,0,0,0,0,1,Animals,,,,,,,,,,,,
,,,,,,,,,,,,,,,89849,001,2022-04-24_22h12.21.160,SPAMnetsValid,2021.1.4,MacIntel,66.66666667,,,,,,,,,,,,,,,,,,,,,,,,,,,,,,,,,,,,,,,,,,,,,,,,,,,,,,,,,,,,,,,,,,,,,,,,,,,,,,4,9.127,0,0,0,0,1,"I enjoy concentrating on a fantasy or daydream and exploring all its possibilities, letting it grow and develop.",0,1,,
,,,,,,,,,,,,,,,89849,001,2022-04-24_22h12.21.160,SPAMnetsValid,2021.1.4,MacIntel,66.66666667,,,,,,,,,,,,,,,,,,,,,,,,,,,,,,,,,,,,,,,,,,,,,,,,,,,,,,,,,,,,,,,,,,,,,,,,,,,,,,5,3.069,0,1,1,1,1,I think it's interesting to learn and develop new hobbies.,0,2,,
,,,,,,,,,,,,,,,89849,001,2022-04-24_22h12.21.160,SPAMnetsValid,2021.1.4,MacIntel,66.66666667,,,,,,,,,,,,,,,,,,,,,,,,,,,,,,,,,,,,,,,,,,,,,,,,,,,,,,,,,,,,,,,,,,,,,,,,,,,,,,4,4.481,0,2,2,2,1,I am intrigued by the patterns I find in art and nature.,0,3,,
,,,,,,,,,,,,,,,89849,001,2022-04-24_22h12.21.160,SPAMnetsValid,2021.1.4,MacIntel,66.66666667,,,,,,,,,,,,,,,,,,,,,,,,,,,,,,,,,,,,,,,,,,,,,,,,,,,,,,,,,,,,,,,,,,,,,,,,,,,,,,1,4.154,0,3,3,3,1,I believe letting students hear controversial speakers can only confuse and mislead them.,1,4,,
,,,,,,,,,,,,,,,89849,001,2022-04-24_22h12.21.160,SPAMnetsValid,2021.1.4,MacIntel,66.66666667,,,,,,,,,,,,,,,,,,,,,,,,,,,,,,,,,,,,,,,,,,,,,,,,,,,,,,,,,,,,,,,,,,,,,,,,,,,,,,2,1.999,0,4,4,4,1,Poetry has little or no effect on me.,1,5,,
,,,,,,,,,,,,,,,89849,001,2022-04-24_22h12.21.160,SPAMnetsValid,2021.1.4,MacIntel,66.66666667,,,,,,,,,,,,,,,,,,,,,,,,,,,,,,,,,,,,,,,,,,,,,,,,,,,,,,,,,,,,,,,,,,,,,,,,,,,,,,5,6.631,0,5,5,5,1,I would have difficulty just letting my mind wander without control or guidance.,1,6,,
,,,,,,,,,,,,,,,89849,001,2022-04-24_22h12.21.160,SPAMnetsValid,2021.1.4,MacIntel,66.66666667,,,,,,,,,,,,,,,,,,,,,,,,,,,,,,,,,,,,,,,,,,,,,,,,,,,,,,,,,,,,,,,,,,,,,,,,,,,,,,2,10.271,0,6,6,6,1,I seldom notice the moods or feelings that different environments produce.,1,7,,
,,,,,,,,,,,,,,,89849,001,2022-04-24_22h12.21.160,SPAMnetsValid,2021.1.4,MacIntel,66.66666667,,,,,,,,,,,,,,,,,,,,,,,,,,,,,,,,,,,,,,,,,,,,,,,,,,,,,,,,,,,,,,,,,,,,,,,,,,,,,,2,2.38,0,7,7,7,1,I experience a wide range of emotions or feelings.,0,8,,
,,,,,,,,,,,,,,,89849,001,2022-04-24_22h12.21.160,SPAMnetsValid,2021.1.4,MacIntel,66.66666667,,,,,,,,,,,,,,,,,,,,,,,,,,,,,,,,,,,,,,,,,,,,,,,,,,,,,,,,,,,,,,,,,,,,,,,,,,,,,,4,4.14,0,8,8,8,1,"Sometimes when I am reading poetry or looking at a work of art, I feel a chill or wave of excitement.",0,9,,
,,,,,,,,,,,,,,,89849,001,2022-04-24_22h12.21.160,SPAMnetsValid,2021.1.4,MacIntel,66.66666667,,,,,,,,,,,,,,,,,,,,,,,,,,,,,,,,,,,,,,,,,,,,,,,,,,,,,,,,,,,,,,,,,,,,,,,,,,,,,,2,15.247,0,9,9,9,1,I have little interest in speculating on the nature of the universe or the human condition.,1,10,,
,,,,,,,,,,,,,,,89849,001,2022-04-24_22h12.21.160,SPAMnetsValid,2021.1.4,MacIntel,66.66666667,,,,,,,,,,,,,,,,,,,,,,,,,,,,,,,,,,,,,,,,,,,,,,,,,,,,,,,,,,,,,,,,,,,,,,,,,,,,,,5,1.964,0,10,10,10,1,I have a lot of intellectual curiosity.,0,11,,
,,,,,,,,,,,,,,,89849,001,2022-04-24_22h12.21.160,SPAMnetsValid,2021.1.4,MacIntel,66.66666667,,,,,,,,,,,,,,,,,,,,,,,,,,,,,,,,,,,,,,,,,,,,,,,,,,,,,,,,,,,,,,,,,,,,,,,,,,,,,,5,3.882,0,11,11,11,1,I often enjoy playing with theories or abstract ideas.,0,12,,
,,,,,,,,,,,,,,,89849,001,2022-04-24_22h12.21.160,SPAMnetsValid,2021.1.4,MacIntel,66.66666667,,,,,,,,,,,,,,,,,,,,,,,,,,,,,,,,,,,,,,,,,,,,,,,,,,,,,,,,,,,,,,,,,,,,,,,,,,,,,,,,,,,,,,,,return,111.962
