key_resp_3.keys,key_resp_3.rt,slider.response,slider.rt,rjt_rating,rjt_RT,trials_22.thisRepN,trials_22.thisTrialN,trials_22.thisN,trials_22.thisIndex,trials_22.ran,rjt_order,word1,word2,attention,participant,session,date,expName,psychopyVersion,OS,frameRate,trials_99.thisRepN,trials_99.thisTrialN,trials_99.thisN,trials_99.thisIndex,trials_99.ran,trials_5.thisRepN,trials_5.thisTrialN,trials_5.thisN,trials_5.thisIndex,trials_5.ran,repOne,repTwo,slider_2.response,slider_2.rt,trials_24.thisRepN,trials_24.thisTrialN,trials_24.thisN,trials_24.thisIndex,trials_24.ran,trials_4.thisRepN,trials_4.thisTrialN,trials_4.thisN,trials_4.thisIndex,trials_4.ran,slider_extend_2.response,slider_extend_2.rt,trials_6.thisRepN,trials_6.thisTrialN,trials_6.thisN,trials_6.thisIndex,trials_6.ran,vCue2,R1,R2,R3,R4,correct,sliderVocab.response,sliderVocab.rt,trials_7.thisRepN,trials_7.thisTrialN,trials_7.thisN,trials_7.thisIndex,trials_7.ran,VocabCue,VR1,VR2,VR3,VR4,VR5,VocabCorrect,AUT_resp,AUT_label,trials.thisRepN,trials.thisTrialN,trials.thisN,trials.thisIndex,trials.ran,trials_2.thisRepN,trials_2.thisTrialN,trials_2.thisN,trials_2.thisIndex,trials_2.ran,aut_prompt,VF_response,VF_tag,trials_16.thisRepN,trials_16.thisTrialN,trials_16.thisN,trials_16.thisIndex,trials_16.ran,trials_17.thisRepN,trials_17.thisTrialN,trials_17.thisN,trials_17.thisIndex,trials_17.ran,VFcond,open_slider.response,open_slider.rt,trials_3.thisRepN,trials_3.thisTrialN,trials_3.thisN,trials_3.thisIndex,trials_3.ran,OpenQ,Rev,OPEN_ORDER,key_resp_2.keys,key_resp_2.rt
return,7.7432,9,8.6602,9,8.6602,0,0,0,87,1,79,garden,strawberry,,89882,001,2022-04-29_13h53.36.703,SPAMnetsValid,2021.1.4,Win32,61.77033788,,,,,,,,,,,,,,,,,,,,,,,,,,,,,,,,,,,,,,,,,,,,,,,,,,,,,,,,,,,,,,,,,,,,,,,,,,,,,,,,,,,,,,,,,
,,6,2.8365,6,2.8365,0,1,1,49,1,57,flower,kitchen,,89882,001,2022-04-29_13h53.36.703,SPAMnetsValid,2021.1.4,Win32,61.77033788,,,,,,,,,,,,,,,,,,,,,,,,,,,,,,,,,,,,,,,,,,,,,,,,,,,,,,,,,,,,,,,,,,,,,,,,,,,,,,,,,,,,,,,,,
,,1,2.7373,1,2.7373,0,2,2,26,1,35,flower,pretzel,,89882,001,2022-04-29_13h53.36.703,SPAMnetsValid,2021.1.4,Win32,61.77033788,,,,,,,,,,,,,,,,,,,,,,,,,,,,,,,,,,,,,,,,,,,,,,,,,,,,,,,,,,,,,,,,,,,,,,,,,,,,,,,,,,,,,,,,,
,,6,3.5144,6,3.5144,0,3,3,72,1,59,rose,strawberry,,89882,001,2022-04-29_13h53.36.703,SPAMnetsValid,2021.1.4,Win32,61.77033788,,,,,,,,,,,,,,,,,,,,,,,,,,,,,,,,,,,,,,,,,,,,,,,,,,,,,,,,,,,,,,,,,,,,,,,,,,,,,,,,,,,,,,,,,
,,8,3.5665,8,3.5665,0,4,4,62,1,18,onion,refrigerator,,89882,001,2022-04-29_13h53.36.703,SPAMnetsValid,2021.1.4,Win32,61.77033788,,,,,,,,,,,,,,,,,,,,,,,,,,,,,,,,,,,,,,,,,,,,,,,,,,,,,,,,,,,,,,,,,,,,,,,,,,,,,,,,,,,,,,,,,
,,2,2.3044,2,2.3044,0,5,5,12,1,67,flower,yogurt,,89882,001,2022-04-29_13h53.36.703,SPAMnetsValid,2021.1.4,Win32,61.77033788,,,,,,,,,,,,,,,,,,,,,,,,,,,,,,,,,,,,,,,,,,,,,,,,,,,,,,,,,,,,,,,,,,,,,,,,,,,,,,,,,,,,,,,,,
,,1,2.0739,1,2.0739,0,6,6,35,1,55,tomato,tree,,89882,001,2022-04-29_13h53.36.703,SPAMnetsValid,2021.1.4,Win32,61.77033788,,,,,,,,,,,,,,,,,,,,,,,,,,,,,,,,,,,,,,,,,,,,,,,,,,,,,,,,,,,,,,,,,,,,,,,,,,,,,,,,,,,,,,,,,
,,5,2.7628,5,2.7628,0,7,7,20,1,39,melon,pretzel,,89882,001,2022-04-29_13h53.36.703,SPAMnetsValid,2021.1.4,Win32,61.77033788,,,,,,,,,,,,,,,,,,,,,,,,,,,,,,,,,,,,,,,,,,,,,,,,,,,,,,,,,,,,,,,,,,,,,,,,,,,,,,,,,,,,,,,,,
,,3,2.4432,3,2.4432,0,8,8,14,1,64,chocolate,garden,,89882,001,2022-04-29_13h53.36.703,SPAMnetsValid,2021.1.4,Win32,61.77033788,,,,,,,,,,,,,,,,,,,,,,,,,,,,,,,,,,,,,,,,,,,,,,,,,,,,,,,,,,,,,,,,,,,,,,,,,,,,,,,,,,,,,,,,,
,,2,5.8792,2,5.8792,0,9,9,8,1,43,chocolate,tomato,,89882,001,2022-04-29_13h53.36.703,SPAMnetsValid,2021.1.4,Win32,61.77033788,,,,,,,,,,,,,,,,,,,,,,,,,,,,,,,,,,,,,,,,,,,,,,,,,,,,,,,,,,,,,,,,,,,,,,,,,,,,,,,,,,,,,,,,,
,,9,2.4264,9,2.4264,0,10,10,52,1,4,chocolate,pretzel,,89882,001,2022-04-29_13h53.36.703,SPAMnetsValid,2021.1.4,Win32,61.77033788,,,,,,,,,,,,,,,,,,,,,,,,,,,,,,,,,,,,,,,,,,,,,,,,,,,,,,,,,,,,,,,,,,,,,,,,,,,,,,,,,,,,,,,,,
,,5,2.7805,5,2.7805,0,11,11,86,1,51,onion,strawberry,,89882,001,2022-04-29_13h53.36.703,SPAMnetsValid,2021.1.4,Win32,61.77033788,,,,,,,,,,,,,,,,,,,,,,,,,,,,,,,,,,,,,,,,,,,,,,,,,,,,,,,,,,,,,,,,,,,,,,,,,,,,,,,,,,,,,,,,,
,,9,1.8506,9,1.8506,0,12,12,19,1,76,garden,rose,,89882,001,2022-04-29_13h53.36.703,SPAMnetsValid,2021.1.4,Win32,61.77033788,,,,,,,,,,,,,,,,,,,,,,,,,,,,,,,,,,,,,,,,,,,,,,,,,,,,,,,,,,,,,,,,,,,,,,,,,,,,,,,,,,,,,,,,,
,,6,2.404,6,2.404,0,13,13,78,1,30,cookie,pretzel,,89882,001,2022-04-29_13h53.36.703,SPAMnetsValid,2021.1.4,Win32,61.77033788,,,,,,,,,,,,,,,,,,,,,,,,,,,,,,,,,,,,,,,,,,,,,,,,,,,,,,,,,,,,,,,,,,,,,,,,,,,,,,,,,,,,,,,,,
,,2,2.2166,2,2.2166,0,14,14,74,1,70,chocolate,onion,,89882,001,2022-04-29_13h53.36.703,SPAMnetsValid,2021.1.4,Win32,61.77033788,,,,,,,,,,,,,,,,,,,,,,,,,,,,,,,,,,,,,,,,,,,,,,,,,,,,,,,,,,,,,,,,,,,,,,,,,,,,,,,,,,,,,,,,,
,,1,2.4634,1,2.4634,0,15,15,31,1,33,oven,yogurt,,89882,001,2022-04-29_13h53.36.703,SPAMnetsValid,2021.1.4,Win32,61.77033788,,,,,,,,,,,,,,,,,,,,,,,,,,,,,,,,,,,,,,,,,,,,,,,,,,,,,,,,,,,,,,,,,,,,,,,,,,,,,,,,,,,,,,,,,
,,1,2.1666,1,2.1666,0,16,16,27,1,72,broom,onion,,89882,001,2022-04-29_13h53.36.703,SPAMnetsValid,2021.1.4,Win32,61.77033788,,,,,,,,,,,,,,,,,,,,,,,,,,,,,,,,,,,,,,,,,,,,,,,,,,,,,,,,,,,,,,,,,,,,,,,,,,,,,,,,,,,,,,,,,
,,5,4.6947,5,4.6947,0,17,17,81,1,60,cactus,onion,,89882,001,2022-04-29_13h53.36.703,SPAMnetsValid,2021.1.4,Win32,61.77033788,,,,,,,,,,,,,,,,,,,,,,,,,,,,,,,,,,,,,,,,,,,,,,,,,,,,,,,,,,,,,,,,,,,,,,,,,,,,,,,,,,,,,,,,,
,,1,2.6876,1,2.6876,0,18,18,5,1,13,broom,yogurt,,89882,001,2022-04-29_13h53.36.703,SPAMnetsValid,2021.1.4,Win32,61.77033788,,,,,,,,,,,,,,,,,,,,,,,,,,,,,,,,,,,,,,,,,,,,,,,,,,,,,,,,,,,,,,,,,,,,,,,,,,,,,,,,,,,,,,,,,
,,9,2.0168,9,2.0168,0,19,19,64,1,9,kitchen,refrigerator,,89882,001,2022-04-29_13h53.36.703,SPAMnetsValid,2021.1.4,Win32,61.77033788,,,,,,,,,,,,,,,,,,,,,,,,,,,,,,,,,,,,,,,,,,,,,,,,,,,,,,,,,,,,,,,,,,,,,,,,,,,,,,,,,,,,,,,,,
,,1,2.3007,1,2.3007,0,20,20,40,1,74,broom,pretzel,,89882,001,2022-04-29_13h53.36.703,SPAMnetsValid,2021.1.4,Win32,61.77033788,,,,,,,,,,,,,,,,,,,,,,,,,,,,,,,,,,,,,,,,,,,,,,,,,,,,,,,,,,,,,,,,,,,,,,,,,,,,,,,,,,,,,,,,,
,,6,3.1004,6,3.1004,0,21,21,36,1,12,cookie,yogurt,,89882,001,2022-04-29_13h53.36.703,SPAMnetsValid,2021.1.4,Win32,61.77033788,,,,,,,,,,,,,,,,,,,,,,,,,,,,,,,,,,,,,,,,,,,,,,,,,,,,,,,,,,,,,,,,,,,,,,,,,,,,,,,,,,,,,,,,,
,,9,2.3722,9,2.3722,0,22,22,10,1,191,cake,cake,CHECK,89882,001,2022-04-29_13h53.36.703,SPAMnetsValid,2021.1.4,Win32,61.77033788,,,,,,,,,,,,,,,,,,,,,,,,,,,,,,,,,,,,,,,,,,,,,,,,,,,,,,,,,,,,,,,,,,,,,,,,,,,,,,,,,,,,,,,,,
,,1,2.2249,1,2.2249,0,23,23,61,1,71,broom,rose,,89882,001,2022-04-29_13h53.36.703,SPAMnetsValid,2021.1.4,Win32,61.77033788,,,,,,,,,,,,,,,,,,,,,,,,,,,,,,,,,,,,,,,,,,,,,,,,,,,,,,,,,,,,,,,,,,,,,,,,,,,,,,,,,,,,,,,,,
,,1,1.9295,1,1.9295,0,24,24,15,1,48,flower,oven,,89882,001,2022-04-29_13h53.36.703,SPAMnetsValid,2021.1.4,Win32,61.77033788,,,,,,,,,,,,,,,,,,,,,,,,,,,,,,,,,,,,,,,,,,,,,,,,,,,,,,,,,,,,,,,,,,,,,,,,,,,,,,,,,,,,,,,,,
,,2,3.1786,2,3.1786,0,25,25,17,1,27,cactus,cookie,,89882,001,2022-04-29_13h53.36.703,SPAMnetsValid,2021.1.4,Win32,61.77033788,,,,,,,,,,,,,,,,,,,,,,,,,,,,,,,,,,,,,,,,,,,,,,,,,,,,,,,,,,,,,,,,,,,,,,,,,,,,,,,,,,,,,,,,,
,,2,2.1136,2,2.1136,0,26,26,47,1,73,broom,chocolate,,89882,001,2022-04-29_13h53.36.703,SPAMnetsValid,2021.1.4,Win32,61.77033788,,,,,,,,,,,,,,,,,,,,,,,,,,,,,,,,,,,,,,,,,,,,,,,,,,,,,,,,,,,,,,,,,,,,,,,,,,,,,,,,,,,,,,,,,
,,5,1.761,5,1.761,0,27,27,92,1,44,cookie,melon,,89882,001,2022-04-29_13h53.36.703,SPAMnetsValid,2021.1.4,Win32,61.77033788,,,,,,,,,,,,,,,,,,,,,,,,,,,,,,,,,,,,,,,,,,,,,,,,,,,,,,,,,,,,,,,,,,,,,,,,,,,,,,,,,,,,,,,,,
,,1,2.4069,1,2.4069,0,28,28,11,1,37,garden,refrigerator,,89882,001,2022-04-29_13h53.36.703,SPAMnetsValid,2021.1.4,Win32,61.77033788,,,,,,,,,,,,,,,,,,,,,,,,,,,,,,,,,,,,,,,,,,,,,,,,,,,,,,,,,,,,,,,,,,,,,,,,,,,,,,,,,,,,,,,,,
,,5,2.7028,5,2.7028,0,29,29,45,1,10,flower,onion,,89882,001,2022-04-29_13h53.36.703,SPAMnetsValid,2021.1.4,Win32,61.77033788,,,,,,,,,,,,,,,,,,,,,,,,,,,,,,,,,,,,,,,,,,,,,,,,,,,,,,,,,,,,,,,,,,,,,,,,,,,,,,,,,,,,,,,,,
,,5,0.0632,5,0.0632,0,30,30,13,1,26,tomato,yogurt,,89882,001,2022-04-29_13h53.36.703,SPAMnetsValid,2021.1.4,Win32,61.77033788,,,,,,,,,,,,,,,,,,,,,,,,,,,,,,,,,,,,,,,,,,,,,,,,,,,,,,,,,,,,,,,,,,,,,,,,,,,,,,,,,,,,,,,,,
,,9,2.3452,9,2.3452,0,31,31,51,1,47,onion,tomato,,89882,001,2022-04-29_13h53.36.703,SPAMnetsValid,2021.1.4,Win32,61.77033788,,,,,,,,,,,,,,,,,,,,,,,,,,,,,,,,,,,,,,,,,,,,,,,,,,,,,,,,,,,,,,,,,,,,,,,,,,,,,,,,,,,,,,,,,
,,1,1.8531,1,1.8531,0,32,32,65,1,46,garden,yogurt,,89882,001,2022-04-29_13h53.36.703,SPAMnetsValid,2021.1.4,Win32,61.77033788,,,,,,,,,,,,,,,,,,,,,,,,,,,,,,,,,,,,,,,,,,,,,,,,,,,,,,,,,,,,,,,,,,,,,,,,,,,,,,,,,,,,,,,,,
,,6,2.1254,6,2.1254,0,33,33,73,1,50,carrot,rose,,89882,001,2022-04-29_13h53.36.703,SPAMnetsValid,2021.1.4,Win32,61.77033788,,,,,,,,,,,,,,,,,,,,,,,,,,,,,,,,,,,,,,,,,,,,,,,,,,,,,,,,,,,,,,,,,,,,,,,,,,,,,,,,,,,,,,,,,
,,7,3.0697,7,3.0697,0,34,34,90,1,95,broom,refrigerator,,89882,001,2022-04-29_13h53.36.703,SPAMnetsValid,2021.1.4,Win32,61.77033788,,,,,,,,,,,,,,,,,,,,,,,,,,,,,,,,,,,,,,,,,,,,,,,,,,,,,,,,,,,,,,,,,,,,,,,,,,,,,,,,,,,,,,,,,
,,2,2.0547,2,2.0547,0,35,35,56,1,78,cookie,rose,,89882,001,2022-04-29_13h53.36.703,SPAMnetsValid,2021.1.4,Win32,61.77033788,,,,,,,,,,,,,,,,,,,,,,,,,,,,,,,,,,,,,,,,,,,,,,,,,,,,,,,,,,,,,,,,,,,,,,,,,,,,,,,,,,,,,,,,,
,,1,1.7935,1,1.7935,0,36,36,37,1,58,garden,oven,,89882,001,2022-04-29_13h53.36.703,SPAMnetsValid,2021.1.4,Win32,61.77033788,,,,,,,,,,,,,,,,,,,,,,,,,,,,,,,,,,,,,,,,,,,,,,,,,,,,,,,,,,,,,,,,,,,,,,,,,,,,,,,,,,,,,,,,,
,,7,1.9128,7,1.9128,0,37,37,2,1,22,kitchen,strawberry,,89882,001,2022-04-29_13h53.36.703,SPAMnetsValid,2021.1.4,Win32,61.77033788,,,,,,,,,,,,,,,,,,,,,,,,,,,,,,,,,,,,,,,,,,,,,,,,,,,,,,,,,,,,,,,,,,,,,,,,,,,,,,,,,,,,,,,,,
,,4,3.3776,4,3.3776,0,38,38,71,1,38,pretzel,refrigerator,,89882,001,2022-04-29_13h53.36.703,SPAMnetsValid,2021.1.4,Win32,61.77033788,,,,,,,,,,,,,,,,,,,,,,,,,,,,,,,,,,,,,,,,,,,,,,,,,,,,,,,,,,,,,,,,,,,,,,,,,,,,,,,,,,,,,,,,,
,,5,3.6844,5,3.6844,0,39,39,50,1,81,pretzel,yogurt,,89882,001,2022-04-29_13h53.36.703,SPAMnetsValid,2021.1.4,Win32,61.77033788,,,,,,,,,,,,,,,,,,,,,,,,,,,,,,,,,,,,,,,,,,,,,,,,,,,,,,,,,,,,,,,,,,,,,,,,,,,,,,,,,,,,,,,,,
,,7,1.7549,7,1.7549,0,40,40,3,1,49,flower,strawberry,,89882,001,2022-04-29_13h53.36.703,SPAMnetsValid,2021.1.4,Win32,61.77033788,,,,,,,,,,,,,,,,,,,,,,,,,,,,,,,,,,,,,,,,,,,,,,,,,,,,,,,,,,,,,,,,,,,,,,,,,,,,,,,,,,,,,,,,,
,,7,2.0364,7,2.0364,0,41,41,22,1,16,chocolate,flower,,89882,001,2022-04-29_13h53.36.703,SPAMnetsValid,2021.1.4,Win32,61.77033788,,,,,,,,,,,,,,,,,,,,,,,,,,,,,,,,,,,,,,,,,,,,,,,,,,,,,,,,,,,,,,,,,,,,,,,,,,,,,,,,,,,,,,,,,
,,2,2.0174,2,2.0174,0,42,42,46,1,41,broom,cactus,,89882,001,2022-04-29_13h53.36.703,SPAMnetsValid,2021.1.4,Win32,61.77033788,,,,,,,,,,,,,,,,,,,,,,,,,,,,,,,,,,,,,,,,,,,,,,,,,,,,,,,,,,,,,,,,,,,,,,,,,,,,,,,,,,,,,,,,,
,,7,1.784,7,1.784,0,43,43,6,1,87,carrot,yogurt,,89882,001,2022-04-29_13h53.36.703,SPAMnetsValid,2021.1.4,Win32,61.77033788,,,,,,,,,,,,,,,,,,,,,,,,,,,,,,,,,,,,,,,,,,,,,,,,,,,,,,,,,,,,,,,,,,,,,,,,,,,,,,,,,,,,,,,,,
,,6,1.8216,6,1.8216,0,44,44,28,1,84,oven,tomato,,89882,001,2022-04-29_13h53.36.703,SPAMnetsValid,2021.1.4,Win32,61.77033788,,,,,,,,,,,,,,,,,,,,,,,,,,,,,,,,,,,,,,,,,,,,,,,,,,,,,,,,,,,,,,,,,,,,,,,,,,,,,,,,,,,,,,,,,
,,6,2.1387,6,2.1387,0,45,45,94,1,68,flower,tomato,,89882,001,2022-04-29_13h53.36.703,SPAMnetsValid,2021.1.4,Win32,61.77033788,,,,,,,,,,,,,,,,,,,,,,,,,,,,,,,,,,,,,,,,,,,,,,,,,,,,,,,,,,,,,,,,,,,,,,,,,,,,,,,,,,,,,,,,,
,,9,1.6358,9,1.6358,0,46,46,53,1,192,microwave,microwave,CHECK,89882,001,2022-04-29_13h53.36.703,SPAMnetsValid,2021.1.4,Win32,61.77033788,,,,,,,,,,,,,,,,,,,,,,,,,,,,,,,,,,,,,,,,,,,,,,,,,,,,,,,,,,,,,,,,,,,,,,,,,,,,,,,,,,,,,,,,,
,,1,1.9846,1,1.9846,0,47,47,25,1,23,flower,microwave,,89882,001,2022-04-29_13h53.36.703,SPAMnetsValid,2021.1.4,Win32,61.77033788,,,,,,,,,,,,,,,,,,,,,,,,,,,,,,,,,,,,,,,,,,,,,,,,,,,,,,,,,,,,,,,,,,,,,,,,,,,,,,,,,,,,,,,,,
,,1,3.0369,1,3.0369,0,48,48,59,1,8,broom,melon,,89882,001,2022-04-29_13h53.36.703,SPAMnetsValid,2021.1.4,Win32,61.77033788,,,,,,,,,,,,,,,,,,,,,,,,,,,,,,,,,,,,,,,,,,,,,,,,,,,,,,,,,,,,,,,,,,,,,,,,,,,,,,,,,,,,,,,,,
,,6,2.105,6,2.105,0,49,49,9,1,75,cookie,onion,,89882,001,2022-04-29_13h53.36.703,SPAMnetsValid,2021.1.4,Win32,61.77033788,,,,,,,,,,,,,,,,,,,,,,,,,,,,,,,,,,,,,,,,,,,,,,,,,,,,,,,,,,,,,,,,,,,,,,,,,,,,,,,,,,,,,,,,,
,,1,1.9024,1,1.9024,0,50,50,70,1,5,oven,tree,,89882,001,2022-04-29_13h53.36.703,SPAMnetsValid,2021.1.4,Win32,61.77033788,,,,,,,,,,,,,,,,,,,,,,,,,,,,,,,,,,,,,,,,,,,,,,,,,,,,,,,,,,,,,,,,,,,,,,,,,,,,,,,,,,,,,,,,,
,,6,2.4934,6,2.4934,0,51,51,63,1,21,cake,onion,,89882,001,2022-04-29_13h53.36.703,SPAMnetsValid,2021.1.4,Win32,61.77033788,,,,,,,,,,,,,,,,,,,,,,,,,,,,,,,,,,,,,,,,,,,,,,,,,,,,,,,,,,,,,,,,,,,,,,,,,,,,,,,,,,,,,,,,,
,,9,2.0367,9,2.0367,0,52,52,60,1,89,chocolate,rose,,89882,001,2022-04-29_13h53.36.703,SPAMnetsValid,2021.1.4,Win32,61.77033788,,,,,,,,,,,,,,,,,,,,,,,,,,,,,,,,,,,,,,,,,,,,,,,,,,,,,,,,,,,,,,,,,,,,,,,,,,,,,,,,,,,,,,,,,
,,2,5.1148,2,5.1148,0,53,53,33,1,32,cake,microwave,,89882,001,2022-04-29_13h53.36.703,SPAMnetsValid,2021.1.4,Win32,61.77033788,,,,,,,,,,,,,,,,,,,,,,,,,,,,,,,,,,,,,,,,,,,,,,,,,,,,,,,,,,,,,,,,,,,,,,,,,,,,,,,,,,,,,,,,,
,,6,2.3198,6,2.3198,0,54,54,39,1,15,onion,oven,,89882,001,2022-04-29_13h53.36.703,SPAMnetsValid,2021.1.4,Win32,61.77033788,,,,,,,,,,,,,,,,,,,,,,,,,,,,,,,,,,,,,,,,,,,,,,,,,,,,,,,,,,,,,,,,,,,,,,,,,,,,,,,,,,,,,,,,,
,,2,1.6392,2,1.6392,0,55,55,16,1,14,broom,cookie,,89882,001,2022-04-29_13h53.36.703,SPAMnetsValid,2021.1.4,Win32,61.77033788,,,,,,,,,,,,,,,,,,,,,,,,,,,,,,,,,,,,,,,,,,,,,,,,,,,,,,,,,,,,,,,,,,,,,,,,,,,,,,,,,,,,,,,,,
,,1,2.4852,1,2.4852,0,56,56,7,1,34,melon,oven,,89882,001,2022-04-29_13h53.36.703,SPAMnetsValid,2021.1.4,Win32,61.77033788,,,,,,,,,,,,,,,,,,,,,,,,,,,,,,,,,,,,,,,,,,,,,,,,,,,,,,,,,,,,,,,,,,,,,,,,,,,,,,,,,,,,,,,,,
,,9,1.7364,9,1.7364,0,57,57,80,1,61,strawberry,tomato,,89882,001,2022-04-29_13h53.36.703,SPAMnetsValid,2021.1.4,Win32,61.77033788,,,,,,,,,,,,,,,,,,,,,,,,,,,,,,,,,,,,,,,,,,,,,,,,,,,,,,,,,,,,,,,,,,,,,,,,,,,,,,,,,,,,,,,,,
,,2,2.6725,2,2.6725,0,58,58,43,1,11,refrigerator,tree,,89882,001,2022-04-29_13h53.36.703,SPAMnetsValid,2021.1.4,Win32,61.77033788,,,,,,,,,,,,,,,,,,,,,,,,,,,,,,,,,,,,,,,,,,,,,,,,,,,,,,,,,,,,,,,,,,,,,,,,,,,,,,,,,,,,,,,,,
,,2,1.712,2,1.712,0,59,59,1,1,31,cactus,pretzel,,89882,001,2022-04-29_13h53.36.703,SPAMnetsValid,2021.1.4,Win32,61.77033788,,,,,,,,,,,,,,,,,,,,,,,,,,,,,,,,,,,,,,,,,,,,,,,,,,,,,,,,,,,,,,,,,,,,,,,,,,,,,,,,,,,,,,,,,
,,4,2.2762,4,2.2762,0,60,60,34,1,29,chocolate,melon,,89882,001,2022-04-29_13h53.36.703,SPAMnetsValid,2021.1.4,Win32,61.77033788,,,,,,,,,,,,,,,,,,,,,,,,,,,,,,,,,,,,,,,,,,,,,,,,,,,,,,,,,,,,,,,,,,,,,,,,,,,,,,,,,,,,,,,,,
,,9,1.8333,9,1.8333,0,61,61,42,1,77,refrigerator,yogurt,,89882,001,2022-04-29_13h53.36.703,SPAMnetsValid,2021.1.4,Win32,61.77033788,,,,,,,,,,,,,,,,,,,,,,,,,,,,,,,,,,,,,,,,,,,,,,,,,,,,,,,,,,,,,,,,,,,,,,,,,,,,,,,,,,,,,,,,,
,,1,1.7515,1,1.7515,0,62,62,23,1,65,broom,garden,,89882,001,2022-04-29_13h53.36.703,SPAMnetsValid,2021.1.4,Win32,61.77033788,,,,,,,,,,,,,,,,,,,,,,,,,,,,,,,,,,,,,,,,,,,,,,,,,,,,,,,,,,,,,,,,,,,,,,,,,,,,,,,,,,,,,,,,,
,,7,2.2004,7,2.2004,0,63,63,66,1,20,rose,tree,,89882,001,2022-04-29_13h53.36.703,SPAMnetsValid,2021.1.4,Win32,61.77033788,,,,,,,,,,,,,,,,,,,,,,,,,,,,,,,,,,,,,,,,,,,,,,,,,,,,,,,,,,,,,,,,,,,,,,,,,,,,,,,,,,,,,,,,,
,,5,3.3338,5,3.3338,0,64,64,69,1,45,onion,pretzel,,89882,001,2022-04-29_13h53.36.703,SPAMnetsValid,2021.1.4,Win32,61.77033788,,,,,,,,,,,,,,,,,,,,,,,,,,,,,,,,,,,,,,,,,,,,,,,,,,,,,,,,,,,,,,,,,,,,,,,,,,,,,,,,,,,,,,,,,
,,4,1.8707,4,1.8707,0,65,65,57,1,62,kitchen,rose,,89882,001,2022-04-29_13h53.36.703,SPAMnetsValid,2021.1.4,Win32,61.77033788,,,,,,,,,,,,,,,,,,,,,,,,,,,,,,,,,,,,,,,,,,,,,,,,,,,,,,,,,,,,,,,,,,,,,,,,,,,,,,,,,,,,,,,,,
,,1,1.7687,1,1.7687,0,66,66,4,1,83,broom,carrot,,89882,001,2022-04-29_13h53.36.703,SPAMnetsValid,2021.1.4,Win32,61.77033788,,,,,,,,,,,,,,,,,,,,,,,,,,,,,,,,,,,,,,,,,,,,,,,,,,,,,,,,,,,,,,,,,,,,,,,,,,,,,,,,,,,,,,,,,
,,8,1.9517,8,1.9517,0,67,67,95,1,52,carrot,tomato,,89882,001,2022-04-29_13h53.36.703,SPAMnetsValid,2021.1.4,Win32,61.77033788,,,,,,,,,,,,,,,,,,,,,,,,,,,,,,,,,,,,,,,,,,,,,,,,,,,,,,,,,,,,,,,,,,,,,,,,,,,,,,,,,,,,,,,,,
,,1,1.8041,1,1.8041,0,68,68,55,1,1,rose,yogurt,,89882,001,2022-04-29_13h53.36.703,SPAMnetsValid,2021.1.4,Win32,61.77033788,,,,,,,,,,,,,,,,,,,,,,,,,,,,,,,,,,,,,,,,,,,,,,,,,,,,,,,,,,,,,,,,,,,,,,,,,,,,,,,,,,,,,,,,,
,,9,1.7029,9,1.7029,0,69,69,82,1,93,kitchen,oven,,89882,001,2022-04-29_13h53.36.703,SPAMnetsValid,2021.1.4,Win32,61.77033788,,,,,,,,,,,,,,,,,,,,,,,,,,,,,,,,,,,,,,,,,,,,,,,,,,,,,,,,,,,,,,,,,,,,,,,,,,,,,,,,,,,,,,,,,
,,1,1.8936,1,1.8936,0,70,70,18,1,85,cake,tree,,89882,001,2022-04-29_13h53.36.703,SPAMnetsValid,2021.1.4,Win32,61.77033788,,,,,,,,,,,,,,,,,,,,,,,,,,,,,,,,,,,,,,,,,,,,,,,,,,,,,,,,,,,,,,,,,,,,,,,,,,,,,,,,,,,,,,,,,
,,9,2.2219,9,2.2219,0,71,71,76,1,36,broom,kitchen,,89882,001,2022-04-29_13h53.36.703,SPAMnetsValid,2021.1.4,Win32,61.77033788,,,,,,,,,,,,,,,,,,,,,,,,,,,,,,,,,,,,,,,,,,,,,,,,,,,,,,,,,,,,,,,,,,,,,,,,,,,,,,,,,,,,,,,,,
,,9,1.925,9,1.925,0,72,72,93,1,63,cake,cookie,,89882,001,2022-04-29_13h53.36.703,SPAMnetsValid,2021.1.4,Win32,61.77033788,,,,,,,,,,,,,,,,,,,,,,,,,,,,,,,,,,,,,,,,,,,,,,,,,,,,,,,,,,,,,,,,,,,,,,,,,,,,,,,,,,,,,,,,,
,,6,2.2594,6,2.2594,0,73,73,91,1,2,kitchen,onion,,89882,001,2022-04-29_13h53.36.703,SPAMnetsValid,2021.1.4,Win32,61.77033788,,,,,,,,,,,,,,,,,,,,,,,,,,,,,,,,,,,,,,,,,,,,,,,,,,,,,,,,,,,,,,,,,,,,,,,,,,,,,,,,,,,,,,,,,
,,6,1.546,6,1.546,0,74,74,24,1,17,carrot,melon,,89882,001,2022-04-29_13h53.36.703,SPAMnetsValid,2021.1.4,Win32,61.77033788,,,,,,,,,,,,,,,,,,,,,,,,,,,,,,,,,,,,,,,,,,,,,,,,,,,,,,,,,,,,,,,,,,,,,,,,,,,,,,,,,,,,,,,,,
,,3,2.3531,3,2.3531,0,75,75,77,1,7,melon,tree,,89882,001,2022-04-29_13h53.36.703,SPAMnetsValid,2021.1.4,Win32,61.77033788,,,,,,,,,,,,,,,,,,,,,,,,,,,,,,,,,,,,,,,,,,,,,,,,,,,,,,,,,,,,,,,,,,,,,,,,,,,,,,,,,,,,,,,,,
,,3,1.9278,3,1.9278,0,76,76,21,1,56,cactus,tree,,89882,001,2022-04-29_13h53.36.703,SPAMnetsValid,2021.1.4,Win32,61.77033788,,,,,,,,,,,,,,,,,,,,,,,,,,,,,,,,,,,,,,,,,,,,,,,,,,,,,,,,,,,,,,,,,,,,,,,,,,,,,,,,,,,,,,,,,
,,3,3.3098,3,3.3098,0,77,77,54,1,28,cake,melon,,89882,001,2022-04-29_13h53.36.703,SPAMnetsValid,2021.1.4,Win32,61.77033788,,,,,,,,,,,,,,,,,,,,,,,,,,,,,,,,,,,,,,,,,,,,,,,,,,,,,,,,,,,,,,,,,,,,,,,,,,,,,,,,,,,,,,,,,
,,1,1.6344,1,1.6344,0,78,78,0,1,53,garden,pretzel,,89882,001,2022-04-29_13h53.36.703,SPAMnetsValid,2021.1.4,Win32,61.77033788,,,,,,,,,,,,,,,,,,,,,,,,,,,,,,,,,,,,,,,,,,,,,,,,,,,,,,,,,,,,,,,,,,,,,,,,,,,,,,,,,,,,,,,,,
,,8,2.1122,8,2.1122,0,79,79,67,1,54,chocolate,yogurt,,89882,001,2022-04-29_13h53.36.703,SPAMnetsValid,2021.1.4,Win32,61.77033788,,,,,,,,,,,,,,,,,,,,,,,,,,,,,,,,,,,,,,,,,,,,,,,,,,,,,,,,,,,,,,,,,,,,,,,,,,,,,,,,,,,,,,,,,
,,7,1.9246,7,1.9246,0,80,80,48,1,66,melon,yogurt,,89882,001,2022-04-29_13h53.36.703,SPAMnetsValid,2021.1.4,Win32,61.77033788,,,,,,,,,,,,,,,,,,,,,,,,,,,,,,,,,,,,,,,,,,,,,,,,,,,,,,,,,,,,,,,,,,,,,,,,,,,,,,,,,,,,,,,,,
,,2,1.6958,2,1.6958,0,81,81,85,1,90,cactus,cake,,89882,001,2022-04-29_13h53.36.703,SPAMnetsValid,2021.1.4,Win32,61.77033788,,,,,,,,,,,,,,,,,,,,,,,,,,,,,,,,,,,,,,,,,,,,,,,,,,,,,,,,,,,,,,,,,,,,,,,,,,,,,,,,,,,,,,,,,
,,1,1.6622,1,1.6622,0,82,82,89,1,80,chocolate,tree,,89882,001,2022-04-29_13h53.36.703,SPAMnetsValid,2021.1.4,Win32,61.77033788,,,,,,,,,,,,,,,,,,,,,,,,,,,,,,,,,,,,,,,,,,,,,,,,,,,,,,,,,,,,,,,,,,,,,,,,,,,,,,,,,,,,,,,,,
,,9,1.8247,9,1.8247,0,83,83,58,1,94,kitchen,microwave,,89882,001,2022-04-29_13h53.36.703,SPAMnetsValid,2021.1.4,Win32,61.77033788,,,,,,,,,,,,,,,,,,,,,,,,,,,,,,,,,,,,,,,,,,,,,,,,,,,,,,,,,,,,,,,,,,,,,,,,,,,,,,,,,,,,,,,,,
,,6,1.8196,6,1.8196,0,84,84,83,1,6,garden,onion,,89882,001,2022-04-29_13h53.36.703,SPAMnetsValid,2021.1.4,Win32,61.77033788,,,,,,,,,,,,,,,,,,,,,,,,,,,,,,,,,,,,,,,,,,,,,,,,,,,,,,,,,,,,,,,,,,,,,,,,,,,,,,,,,,,,,,,,,
,,1,1.7939,1,1.7939,0,85,85,79,1,86,oven,rose,,89882,001,2022-04-29_13h53.36.703,SPAMnetsValid,2021.1.4,Win32,61.77033788,,,,,,,,,,,,,,,,,,,,,,,,,,,,,,,,,,,,,,,,,,,,,,,,,,,,,,,,,,,,,,,,,,,,,,,,,,,,,,,,,,,,,,,,,
,,1,1.7898,1,1.7898,0,86,86,32,1,40,broom,cake,,89882,001,2022-04-29_13h53.36.703,SPAMnetsValid,2021.1.4,Win32,61.77033788,,,,,,,,,,,,,,,,,,,,,,,,,,,,,,,,,,,,,,,,,,,,,,,,,,,,,,,,,,,,,,,,,,,,,,,,,,,,,,,,,,,,,,,,,
,,1,2.7559,1,2.7559,0,87,87,38,1,88,cactus,melon,,89882,001,2022-04-29_13h53.36.703,SPAMnetsValid,2021.1.4,Win32,61.77033788,,,,,,,,,,,,,,,,,,,,,,,,,,,,,,,,,,,,,,,,,,,,,,,,,,,,,,,,,,,,,,,,,,,,,,,,,,,,,,,,,,,,,,,,,
,,6,1.7833,6,1.7833,0,88,88,68,1,24,cookie,tomato,,89882,001,2022-04-29_13h53.36.703,SPAMnetsValid,2021.1.4,Win32,61.77033788,,,,,,,,,,,,,,,,,,,,,,,,,,,,,,,,,,,,,,,,,,,,,,,,,,,,,,,,,,,,,,,,,,,,,,,,,,,,,,,,,,,,,,,,,
,,9,1.5311,9,1.5311,0,89,89,30,1,3,cake,oven,,89882,001,2022-04-29_13h53.36.703,SPAMnetsValid,2021.1.4,Win32,61.77033788,,,,,,,,,,,,,,,,,,,,,,,,,,,,,,,,,,,,,,,,,,,,,,,,,,,,,,,,,,,,,,,,,,,,,,,,,,,,,,,,,,,,,,,,,
,,6,3.7713,6,3.7713,0,90,90,44,1,25,carrot,onion,,89882,001,2022-04-29_13h53.36.703,SPAMnetsValid,2021.1.4,Win32,61.77033788,,,,,,,,,,,,,,,,,,,,,,,,,,,,,,,,,,,,,,,,,,,,,,,,,,,,,,,,,,,,,,,,,,,,,,,,,,,,,,,,,,,,,,,,,
,,1,1.6323,1,1.6323,0,91,91,84,1,91,microwave,rose,,89882,001,2022-04-29_13h53.36.703,SPAMnetsValid,2021.1.4,Win32,61.77033788,,,,,,,,,,,,,,,,,,,,,,,,,,,,,,,,,,,,,,,,,,,,,,,,,,,,,,,,,,,,,,,,,,,,,,,,,,,,,,,,,,,,,,,,,
,,8,2.0952,8,2.0952,0,92,92,96,1,82,cake,kitchen,,89882,001,2022-04-29_13h53.36.703,SPAMnetsValid,2021.1.4,Win32,61.77033788,,,,,,,,,,,,,,,,,,,,,,,,,,,,,,,,,,,,,,,,,,,,,,,,,,,,,,,,,,,,,,,,,,,,,,,,,,,,,,,,,,,,,,,,,
,,3,1.9064,3,1.9064,0,93,93,41,1,19,microwave,pretzel,,89882,001,2022-04-29_13h53.36.703,SPAMnetsValid,2021.1.4,Win32,61.77033788,,,,,,,,,,,,,,,,,,,,,,,,,,,,,,,,,,,,,,,,,,,,,,,,,,,,,,,,,,,,,,,,,,,,,,,,,,,,,,,,,,,,,,,,,
,,3,3.1165,3,3.1165,0,94,94,88,1,92,broom,flower,,89882,001,2022-04-29_13h53.36.703,SPAMnetsValid,2021.1.4,Win32,61.77033788,,,,,,,,,,,,,,,,,,,,,,,,,,,,,,,,,,,,,,,,,,,,,,,,,,,,,,,,,,,,,,,,,,,,,,,,,,,,,,,,,,,,,,,,,
,,2,2.0974,2,2.0974,0,95,95,29,1,42,garden,kitchen,,89882,001,2022-04-29_13h53.36.703,SPAMnetsValid,2021.1.4,Win32,61.77033788,,,,,,,,,,,,,,,,,,,,,,,,,,,,,,,,,,,,,,,,,,,,,,,,,,,,,,,,,,,,,,,,,,,,,,,,,,,,,,,,,,,,,,,,,
,,9,1.7852,9,1.7852,0,96,96,75,1,69,carrot,refrigerator,,89882,001,2022-04-29_13h53.36.703,SPAMnetsValid,2021.1.4,Win32,61.77033788,,,,,,,,,,,,,,,,,,,,,,,,,,,,,,,,,,,,,,,,,,,,,,,,,,,,,,,,,,,,,,,,,,,,,,,,,,,,,,,,,,,,,,,,,
,,,,,,,,,,,,,,,89882,001,2022-04-29_13h53.36.703,SPAMnetsValid,2021.1.4,Win32,61.77033788,0,0,0,0,1,,,,,,,,,,,,,,,,,,,,,,,,,,,,,,,,,,,,,,,,,,,,,,,,,,,,,,,,,,,,,,,,,,,,,,,,,,,,,,,,,,,,
,,,,,,,,,,,,,,,89882,001,2022-04-29_13h53.36.703,SPAMnetsValid,2021.1.4,Win32,61.77033788,,,,,,0,0,0,0,1,1,0,,,,,,,,,,,,,,,,,,,,,,,,,,,,,,,,,,,,,,,,,,,,,,,,,,,,,,,,,,,,,,,,,,,,,,,,,,,,,
,,,,9,6.9805,,,,,,113,refrigerator,strawberry,,89882,001,2022-04-29_13h53.36.703,SPAMnetsValid,2021.1.4,Win32,61.77033788,,,,,,,,,,,,,9,6.9805,0,0,0,56,1,,,,,,,,,,,,,,,,,,,,,,,,,,,,,,,,,,,,,,,,,,,,,,,,,,,,,,,,,,,,,,,,,,,,,,
,,,,1,1.7981,,,,,,183,cake,rose,,89882,001,2022-04-29_13h53.36.703,SPAMnetsValid,2021.1.4,Win32,61.77033788,,,,,,,,,,,,,1,1.7981,0,1,1,19,1,,,,,,,,,,,,,,,,,,,,,,,,,,,,,,,,,,,,,,,,,,,,,,,,,,,,,,,,,,,,,,,,,,,,,,
,,,,4,2.0325,,,,,,118,chocolate,oven,,89882,001,2022-04-29_13h53.36.703,SPAMnetsValid,2021.1.4,Win32,61.77033788,,,,,,,,,,,,,4,2.0325,0,2,2,10,1,,,,,,,,,,,,,,,,,,,,,,,,,,,,,,,,,,,,,,,,,,,,,,,,,,,,,,,,,,,,,,,,,,,,,,
,,,,4,1.7083,,,,,,169,onion,yogurt,,89882,001,2022-04-29_13h53.36.703,SPAMnetsValid,2021.1.4,Win32,61.77033788,,,,,,,,,,,,,4,1.7083,0,3,3,24,1,,,,,,,,,,,,,,,,,,,,,,,,,,,,,,,,,,,,,,,,,,,,,,,,,,,,,,,,,,,,,,,,,,,,,,
,,,,6,1.6709,,,,,,175,melon,onion,,89882,001,2022-04-29_13h53.36.703,SPAMnetsValid,2021.1.4,Win32,61.77033788,,,,,,,,,,,,,6,1.6709,0,4,4,41,1,,,,,,,,,,,,,,,,,,,,,,,,,,,,,,,,,,,,,,,,,,,,,,,,,,,,,,,,,,,,,,,,,,,,,,
,,,,6,1.5991,,,,,,139,carrot,strawberry,,89882,001,2022-04-29_13h53.36.703,SPAMnetsValid,2021.1.4,Win32,61.77033788,,,,,,,,,,,,,6,1.5991,0,5,5,37,1,,,,,,,,,,,,,,,,,,,,,,,,,,,,,,,,,,,,,,,,,,,,,,,,,,,,,,,,,,,,,,,,,,,,,,
,,,,6,1.4677,,,,,,172,kitchen,melon,,89882,001,2022-04-29_13h53.36.703,SPAMnetsValid,2021.1.4,Win32,61.77033788,,,,,,,,,,,,,6,1.4677,0,6,6,77,1,,,,,,,,,,,,,,,,,,,,,,,,,,,,,,,,,,,,,,,,,,,,,,,,,,,,,,,,,,,,,,,,,,,,,,
,,,,3,2.231,,,,,,128,melon,microwave,,89882,001,2022-04-29_13h53.36.703,SPAMnetsValid,2021.1.4,Win32,61.77033788,,,,,,,,,,,,,3,2.231,0,7,7,74,1,,,,,,,,,,,,,,,,,,,,,,,,,,,,,,,,,,,,,,,,,,,,,,,,,,,,,,,,,,,,,,,,,,,,,,
,,,,2,1.7856,,,,,,164,cookie,garden,,89882,001,2022-04-29_13h53.36.703,SPAMnetsValid,2021.1.4,Win32,61.77033788,,,,,,,,,,,,,2,1.7856,0,8,8,59,1,,,,,,,,,,,,,,,,,,,,,,,,,,,,,,,,,,,,,,,,,,,,,,,,,,,,,,,,,,,,,,,,,,,,,,
,,,,2,1.6995,,,,,,171,cake,tomato,,89882,001,2022-04-29_13h53.36.703,SPAMnetsValid,2021.1.4,Win32,61.77033788,,,,,,,,,,,,,2,1.6995,0,9,9,88,1,,,,,,,,,,,,,,,,,,,,,,,,,,,,,,,,,,,,,,,,,,,,,,,,,,,,,,,,,,,,,,,,,,,,,,
,,,,6,1.6968,,,,,,99,garden,melon,,89882,001,2022-04-29_13h53.36.703,SPAMnetsValid,2021.1.4,Win32,61.77033788,,,,,,,,,,,,,6,1.6968,0,10,10,17,1,,,,,,,,,,,,,,,,,,,,,,,,,,,,,,,,,,,,,,,,,,,,,,,,,,,,,,,,,,,,,,,,,,,,,,
,,,,6,2.1288,,,,,,121,broom,microwave,,89882,001,2022-04-29_13h53.36.703,SPAMnetsValid,2021.1.4,Win32,61.77033788,,,,,,,,,,,,,6,2.1288,0,11,11,95,1,,,,,,,,,,,,,,,,,,,,,,,,,,,,,,,,,,,,,,,,,,,,,,,,,,,,,,,,,,,,,,,,,,,,,,
,,,,9,1.8968,,,,,,120,microwave,oven,,89882,001,2022-04-29_13h53.36.703,SPAMnetsValid,2021.1.4,Win32,61.77033788,,,,,,,,,,,,,9,1.8968,0,12,12,14,1,,,,,,,,,,,,,,,,,,,,,,,,,,,,,,,,,,,,,,,,,,,,,,,,,,,,,,,,,,,,,,,,,,,,,,
,,,,1,1.9174,,,,,,137,microwave,tree,,89882,001,2022-04-29_13h53.36.703,SPAMnetsValid,2021.1.4,Win32,61.77033788,,,,,,,,,,,,,1,1.9174,0,13,13,63,1,,,,,,,,,,,,,,,,,,,,,,,,,,,,,,,,,,,,,,,,,,,,,,,,,,,,,,,,,,,,,,,,,,,,,,
,,,,6,1.9005,,,,,,98,pretzel,strawberry,,89882,001,2022-04-29_13h53.36.703,SPAMnetsValid,2021.1.4,Win32,61.77033788,,,,,,,,,,,,,6,1.9005,0,14,14,82,1,,,,,,,,,,,,,,,,,,,,,,,,,,,,,,,,,,,,,,,,,,,,,,,,,,,,,,,,,,,,,,,,,,,,,,
,,,,1,1.7325,,,,,,180,tree,yogurt,,89882,001,2022-04-29_13h53.36.703,SPAMnetsValid,2021.1.4,Win32,61.77033788,,,,,,,,,,,,,1,1.7325,0,15,15,68,1,,,,,,,,,,,,,,,,,,,,,,,,,,,,,,,,,,,,,,,,,,,,,,,,,,,,,,,,,,,,,,,,,,,,,,
,,,,4,1.9295,,,,,,157,refrigerator,rose,,89882,001,2022-04-29_13h53.36.703,SPAMnetsValid,2021.1.4,Win32,61.77033788,,,,,,,,,,,,,4,1.9295,0,16,16,64,1,,,,,,,,,,,,,,,,,,,,,,,,,,,,,,,,,,,,,,,,,,,,,,,,,,,,,,,,,,,,,,,,,,,,,,
,,,,9,1.778,,,,,,163,melon,refrigerator,,89882,001,2022-04-29_13h53.36.703,SPAMnetsValid,2021.1.4,Win32,61.77033788,,,,,,,,,,,,,9,1.778,0,17,17,29,1,,,,,,,,,,,,,,,,,,,,,,,,,,,,,,,,,,,,,,,,,,,,,,,,,,,,,,,,,,,,,,,,,,,,,,
,,,,4,1.6898,,,,,,156,melon,rose,,89882,001,2022-04-29_13h53.36.703,SPAMnetsValid,2021.1.4,Win32,61.77033788,,,,,,,,,,,,,4,1.6898,0,18,18,31,1,,,,,,,,,,,,,,,,,,,,,,,,,,,,,,,,,,,,,,,,,,,,,,,,,,,,,,,,,,,,,,,,,,,,,,
,,,,9,1.8785,,,,,,177,chocolate,strawberry,,89882,001,2022-04-29_13h53.36.703,SPAMnetsValid,2021.1.4,Win32,61.77033788,,,,,,,,,,,,,9,1.8785,0,19,19,53,1,,,,,,,,,,,,,,,,,,,,,,,,,,,,,,,,,,,,,,,,,,,,,,,,,,,,,,,,,,,,,,,,,,,,,,
,,,,9,2.1103,,,,,,142,garden,tree,,89882,001,2022-04-29_13h53.36.703,SPAMnetsValid,2021.1.4,Win32,61.77033788,,,,,,,,,,,,,9,2.1103,0,20,20,22,1,,,,,,,,,,,,,,,,,,,,,,,,,,,,,,,,,,,,,,,,,,,,,,,,,,,,,,,,,,,,,,,,,,,,,,
,,,,9,1.5331,,,,,,186,kitchen,yogurt,,89882,001,2022-04-29_13h53.36.703,SPAMnetsValid,2021.1.4,Win32,61.77033788,,,,,,,,,,,,,9,1.5331,0,21,21,48,1,,,,,,,,,,,,,,,,,,,,,,,,,,,,,,,,,,,,,,,,,,,,,,,,,,,,,,,,,,,,,,,,,,,,,,
,,,,1,2.4611,,,,,,178,cactus,carrot,,89882,001,2022-04-29_13h53.36.703,SPAMnetsValid,2021.1.4,Win32,61.77033788,,,,,,,,,,,,,1,2.4611,0,22,22,75,1,,,,,,,,,,,,,,,,,,,,,,,,,,,,,,,,,,,,,,,,,,,,,,,,,,,,,,,,,,,,,,,,,,,,,,
,,,,1,1.7636,,,,,,145,cactus,yogurt,,89882,001,2022-04-29_13h53.36.703,SPAMnetsValid,2021.1.4,Win32,61.77033788,,,,,,,,,,,,,1,1.7636,0,23,23,15,1,,,,,,,,,,,,,,,,,,,,,,,,,,,,,,,,,,,,,,,,,,,,,,,,,,,,,,,,,,,,,,,,,,,,,,
,,,,6,1.7298,,,,,,174,cake,pretzel,,89882,001,2022-04-29_13h53.36.703,SPAMnetsValid,2021.1.4,Win32,61.77033788,,,,,,,,,,,,,6,1.7298,0,24,24,2,1,,,,,,,,,,,,,,,,,,,,,,,,,,,,,,,,,,,,,,,,,,,,,,,,,,,,,,,,,,,,,,,,,,,,,,
,,,,9,1.4833,,,,,,158,cookie,oven,,89882,001,2022-04-29_13h53.36.703,SPAMnetsValid,2021.1.4,Win32,61.77033788,,,,,,,,,,,,,9,1.4833,0,25,25,27,1,,,,,,,,,,,,,,,,,,,,,,,,,,,,,,,,,,,,,,,,,,,,,,,,,,,,,,,,,,,,,,,,,,,,,,
,,,,7,2.0381,,,,,,108,carrot,chocolate,,89882,001,2022-04-29_13h53.36.703,SPAMnetsValid,2021.1.4,Win32,61.77033788,,,,,,,,,,,,,7,2.0381,0,26,26,5,1,,,,,,,,,,,,,,,,,,,,,,,,,,,,,,,,,,,,,,,,,,,,,,,,,,,,,,,,,,,,,,,,,,,,,,
,,,,9,2.0371,,,,,,181,carrot,kitchen,,89882,001,2022-04-29_13h53.36.703,SPAMnetsValid,2021.1.4,Win32,61.77033788,,,,,,,,,,,,,9,2.0371,0,27,27,72,1,,,,,,,,,,,,,,,,,,,,,,,,,,,,,,,,,,,,,,,,,,,,,,,,,,,,,,,,,,,,,,,,,,,,,,
,,,,4,3.8503,,,,,,153,carrot,pretzel,,89882,001,2022-04-29_13h53.36.703,SPAMnetsValid,2021.1.4,Win32,61.77033788,,,,,,,,,,,,,4,3.8503,0,28,28,34,1,,,,,,,,,,,,,,,,,,,,,,,,,,,,,,,,,,,,,,,,,,,,,,,,,,,,,,,,,,,,,,,,,,,,,,
,,,,6,2.2767,,,,,,133,cake,flower,,89882,001,2022-04-29_13h53.36.703,SPAMnetsValid,2021.1.4,Win32,61.77033788,,,,,,,,,,,,,6,2.2767,0,29,29,94,1,,,,,,,,,,,,,,,,,,,,,,,,,,,,,,,,,,,,,,,,,,,,,,,,,,,,,,,,,,,,,,,,,,,,,,
,,,,9,2.0648,,,,,,167,carrot,garden,,89882,001,2022-04-29_13h53.36.703,SPAMnetsValid,2021.1.4,Win32,61.77033788,,,,,,,,,,,,,9,2.0648,0,30,30,47,1,,,,,,,,,,,,,,,,,,,,,,,,,,,,,,,,,,,,,,,,,,,,,,,,,,,,,,,,,,,,,,,,,,,,,,
,,,,6,2.1823,,,,,,185,cactus,rose,,89882,001,2022-04-29_13h53.36.703,SPAMnetsValid,2021.1.4,Win32,61.77033788,,,,,,,,,,,,,6,2.1823,0,31,31,43,1,,,,,,,,,,,,,,,,,,,,,,,,,,,,,,,,,,,,,,,,,,,,,,,,,,,,,,,,,,,,,,,,,,,,,,
,,,,1,2.5178,,,,,,144,cake,garden,,89882,001,2022-04-29_13h53.36.703,SPAMnetsValid,2021.1.4,Win32,61.77033788,,,,,,,,,,,,,1,2.5178,0,32,32,58,1,,,,,,,,,,,,,,,,,,,,,,,,,,,,,,,,,,,,,,,,,,,,,,,,,,,,,,,,,,,,,,,,,,,,,,
,,,,4,4.2151,,,,,,152,cactus,strawberry,,89882,001,2022-04-29_13h53.36.703,SPAMnetsValid,2021.1.4,Win32,61.77033788,,,,,,,,,,,,,4,4.2151,0,33,33,49,1,,,,,,,,,,,,,,,,,,,,,,,,,,,,,,,,,,,,,,,,,,,,,,,,,,,,,,,,,,,,,,,,,,,,,,
,,,,1,1.63,,,,,,129,cactus,refrigerator,,89882,001,2022-04-29_13h53.36.703,SPAMnetsValid,2021.1.4,Win32,61.77033788,,,,,,,,,,,,,1,1.63,0,34,34,3,1,,,,,,,,,,,,,,,,,,,,,,,,,,,,,,,,,,,,,,,,,,,,,,,,,,,,,,,,,,,,,,,,,,,,,,
,,,,9,1.7834,,,,,,100,garden,tomato,,89882,001,2022-04-29_13h53.36.703,SPAMnetsValid,2021.1.4,Win32,61.77033788,,,,,,,,,,,,,9,1.7834,0,35,35,83,1,,,,,,,,,,,,,,,,,,,,,,,,,,,,,,,,,,,,,,,,,,,,,,,,,,,,,,,,,,,,,,,,,,,,,,
,,,,4,1.9802,,,,,,182,flower,refrigerator,,89882,001,2022-04-29_13h53.36.703,SPAMnetsValid,2021.1.4,Win32,61.77033788,,,,,,,,,,,,,4,1.9802,0,36,36,32,1,,,,,,,,,,,,,,,,,,,,,,,,,,,,,,,,,,,,,,,,,,,,,,,,,,,,,,,,,,,,,,,,,,,,,,
,,,,9,1.6734,,,,,,116,cake,chocolate,,89882,001,2022-04-29_13h53.36.703,SPAMnetsValid,2021.1.4,Win32,61.77033788,,,,,,,,,,,,,9,1.6734,0,37,37,44,1,,,,,,,,,,,,,,,,,,,,,,,,,,,,,,,,,,,,,,,,,,,,,,,,,,,,,,,,,,,,,,,,,,,,,,
,,,,1,1.7108,,,,,,149,broom,tomato,,89882,001,2022-04-29_13h53.36.703,SPAMnetsValid,2021.1.4,Win32,61.77033788,,,,,,,,,,,,,1,1.7108,0,38,38,20,1,,,,,,,,,,,,,,,,,,,,,,,,,,,,,,,,,,,,,,,,,,,,,,,,,,,,,,,,,,,,,,,,,,,,,,
,,,,9,1.9334,,,,,,168,cactus,flower,,89882,001,2022-04-29_13h53.36.703,SPAMnetsValid,2021.1.4,Win32,61.77033788,,,,,,,,,,,,,9,1.9334,0,39,39,51,1,,,,,,,,,,,,,,,,,,,,,,,,,,,,,,,,,,,,,,,,,,,,,,,,,,,,,,,,,,,,,,,,,,,,,,
,,,,9,1.9032,,,,,,150,microwave,refrigerator,,89882,001,2022-04-29_13h53.36.703,SPAMnetsValid,2021.1.4,Win32,61.77033788,,,,,,,,,,,,,9,1.9032,0,40,40,66,1,,,,,,,,,,,,,,,,,,,,,,,,,,,,,,,,,,,,,,,,,,,,,,,,,,,,,,,,,,,,,,,,,,,,,,
,,,,6,1.932,,,,,,147,cake,refrigerator,,89882,001,2022-04-29_13h53.36.703,SPAMnetsValid,2021.1.4,Win32,61.77033788,,,,,,,,,,,,,6,1.932,0,41,41,35,1,,,,,,,,,,,,,,,,,,,,,,,,,,,,,,,,,,,,,,,,,,,,,,,,,,,,,,,,,,,,,,,,,,,,,,
,,,,9,1.4872,,,,,,138,flower,rose,,89882,001,2022-04-29_13h53.36.703,SPAMnetsValid,2021.1.4,Win32,61.77033788,,,,,,,,,,,,,9,1.4872,0,42,42,61,1,,,,,,,,,,,,,,,,,,,,,,,,,,,,,,,,,,,,,,,,,,,,,,,,,,,,,,,,,,,,,,,,,,,,,,
,,,,9,1.6659,,,,,,154,strawberry,yogurt,,89882,001,2022-04-29_13h53.36.703,SPAMnetsValid,2021.1.4,Win32,61.77033788,,,,,,,,,,,,,9,1.6659,0,43,43,28,1,,,,,,,,,,,,,,,,,,,,,,,,,,,,,,,,,,,,,,,,,,,,,,,,,,,,,,,,,,,,,,,,,,,,,,
,,,,9,1.6664,,,,,,131,cactus,garden,,89882,001,2022-04-29_13h53.36.703,SPAMnetsValid,2021.1.4,Win32,61.77033788,,,,,,,,,,,,,9,1.6664,0,44,44,33,1,,,,,,,,,,,,,,,,,,,,,,,,,,,,,,,,,,,,,,,,,,,,,,,,,,,,,,,,,,,,,,,,,,,,,,
,,,,6,2.5624,,,,,,96,oven,strawberry,,89882,001,2022-04-29_13h53.36.703,SPAMnetsValid,2021.1.4,Win32,61.77033788,,,,,,,,,,,,,6,2.5624,0,45,45,67,1,,,,,,,,,,,,,,,,,,,,,,,,,,,,,,,,,,,,,,,,,,,,,,,,,,,,,,,,,,,,,,,,,,,,,,
,,,,6,2.1487,,,,,,189,onion,tree,,89882,001,2022-04-29_13h53.36.703,SPAMnetsValid,2021.1.4,Win32,61.77033788,,,,,,,,,,,,,6,2.1487,0,46,46,62,1,,,,,,,,,,,,,,,,,,,,,,,,,,,,,,,,,,,,,,,,,,,,,,,,,,,,,,,,,,,,,,,,,,,,,,
,,,,6,1.7141,,,,,,148,flower,melon,,89882,001,2022-04-29_13h53.36.703,SPAMnetsValid,2021.1.4,Win32,61.77033788,,,,,,,,,,,,,6,1.7141,0,47,47,23,1,,,,,,,,,,,,,,,,,,,,,,,,,,,,,,,,,,,,,,,,,,,,,,,,,,,,,,,,,,,,,,,,,,,,,,
,,,,6,1.9927,,,,,,134,carrot,flower,,89882,001,2022-04-29_13h53.36.703,SPAMnetsValid,2021.1.4,Win32,61.77033788,,,,,,,,,,,,,6,1.9927,0,48,48,93,1,,,,,,,,,,,,,,,,,,,,,,,,,,,,,,,,,,,,,,,,,,,,,,,,,,,,,,,,,,,,,,,,,,,,,,
,,,,9,1.5114,,,,,,110,chocolate,cookie,,89882,001,2022-04-29_13h53.36.703,SPAMnetsValid,2021.1.4,Win32,61.77033788,,,,,,,,,,,,,9,1.5114,0,49,49,52,1,,,,,,,,,,,,,,,,,,,,,,,,,,,,,,,,,,,,,,,,,,,,,,,,,,,,,,,,,,,,,,,,,,,,,,
,,,,6,1.6046,,,,,,141,melon,tomato,,89882,001,2022-04-29_13h53.36.703,SPAMnetsValid,2021.1.4,Win32,61.77033788,,,,,,,,,,,,,6,1.6046,0,50,50,70,1,,,,,,,,,,,,,,,,,,,,,,,,,,,,,,,,,,,,,,,,,,,,,,,,,,,,,,,,,,,,,,,,,,,,,,
,,,,4,2.3176,,,,,,119,strawberry,tree,,89882,001,2022-04-29_13h53.36.703,SPAMnetsValid,2021.1.4,Win32,61.77033788,,,,,,,,,,,,,4,2.3176,0,51,51,18,1,,,,,,,,,,,,,,,,,,,,,,,,,,,,,,,,,,,,,,,,,,,,,,,,,,,,,,,,,,,,,,,,,,,,,,
,,,,1,2.1657,,,,,,187,cactus,microwave,,89882,001,2022-04-29_13h53.36.703,SPAMnetsValid,2021.1.4,Win32,61.77033788,,,,,,,,,,,,,1,2.1657,0,52,52,71,1,,,,,,,,,,,,,,,,,,,,,,,,,,,,,,,,,,,,,,,,,,,,,,,,,,,,,,,,,,,,,,,,,,,,,,
,,,,1,1.65,,,,,,146,pretzel,tree,,89882,001,2022-04-29_13h53.36.703,SPAMnetsValid,2021.1.4,Win32,61.77033788,,,,,,,,,,,,,1,1.65,0,53,53,80,1,,,,,,,,,,,,,,,,,,,,,,,,,,,,,,,,,,,,,,,,,,,,,,,,,,,,,,,,,,,,,,,,,,,,,,
,,,,6,2.0165,,,,,,162,microwave,tomato,,89882,001,2022-04-29_13h53.36.703,SPAMnetsValid,2021.1.4,Win32,61.77033788,,,,,,,,,,,,,6,2.0165,0,54,54,12,1,,,,,,,,,,,,,,,,,,,,,,,,,,,,,,,,,,,,,,,,,,,,,,,,,,,,,,,,,,,,,,,,,,,,,,
,,,,6,1.9319,,,,,,126,kitchen,tree,,89882,001,2022-04-29_13h53.36.703,SPAMnetsValid,2021.1.4,Win32,61.77033788,,,,,,,,,,,,,6,1.9319,0,55,55,50,1,,,,,,,,,,,,,,,,,,,,,,,,,,,,,,,,,,,,,,,,,,,,,,,,,,,,,,,,,,,,,,,,,,,,,,
,,,,6,1.8626,,,,,,190,microwave,strawberry,,89882,001,2022-04-29_13h53.36.703,SPAMnetsValid,2021.1.4,Win32,61.77033788,,,,,,,,,,,,,6,1.8626,0,56,56,90,1,,,,,,,,,,,,,,,,,,,,,,,,,,,,,,,,,,,,,,,,,,,,,,,,,,,,,,,,,,,,,,,,,,,,,,
,,,,6,1.6819,,,,,,166,cake,yogurt,,89882,001,2022-04-29_13h53.36.703,SPAMnetsValid,2021.1.4,Win32,61.77033788,,,,,,,,,,,,,6,1.6819,0,57,57,91,1,,,,,,,,,,,,,,,,,,,,,,,,,,,,,,,,,,,,,,,,,,,,,,,,,,,,,,,,,,,,,,,,,,,,,,
,,,,6,1.5388,,,,,,107,rose,tomato,,89882,001,2022-04-29_13h53.36.703,SPAMnetsValid,2021.1.4,Win32,61.77033788,,,,,,,,,,,,,6,1.5388,0,58,58,26,1,,,,,,,,,,,,,,,,,,,,,,,,,,,,,,,,,,,,,,,,,,,,,,,,,,,,,,,,,,,,,,,,,,,,,,
,,,,8,2.053,,,,,,179,broom,oven,,89882,001,2022-04-29_13h53.36.703,SPAMnetsValid,2021.1.4,Win32,61.77033788,,,,,,,,,,,,,8,2.053,0,59,59,45,1,,,,,,,,,,,,,,,,,,,,,,,,,,,,,,,,,,,,,,,,,,,,,,,,,,,,,,,,,,,,,,,,,,,,,,
,,,,1,3.1482,,,,,,159,cookie,flower,,89882,001,2022-04-29_13h53.36.703,SPAMnetsValid,2021.1.4,Win32,61.77033788,,,,,,,,,,,,,1,3.1482,0,60,60,21,1,,,,,,,,,,,,,,,,,,,,,,,,,,,,,,,,,,,,,,,,,,,,,,,,,,,,,,,,,,,,,,,,,,,,,,
,,,,9,2.284,,,,,,194,cactus,cactus,CHECK,89882,001,2022-04-29_13h53.36.703,SPAMnetsValid,2021.1.4,Win32,61.77033788,,,,,,,,,,,,,9,2.284,0,61,61,25,1,,,,,,,,,,,,,,,,,,,,,,,,,,,,,,,,,,,,,,,,,,,,,,,,,,,,,,,,,,,,,,,,,,,,,,
,,,,9,3.0349,,,,,,106,cake,strawberry,,89882,001,2022-04-29_13h53.36.703,SPAMnetsValid,2021.1.4,Win32,61.77033788,,,,,,,,,,,,,9,3.0349,0,62,62,0,1,,,,,,,,,,,,,,,,,,,,,,,,,,,,,,,,,,,,,,,,,,,,,,,,,,,,,,,,,,,,,,,,,,,,,,
,,,,6,0.8995,,,,,,151,microwave,onion,,89882,001,2022-04-29_13h53.36.703,SPAMnetsValid,2021.1.4,Win32,61.77033788,,,,,,,,,,,,,6,0.8995,0,63,63,6,1,,,,,,,,,,,,,,,,,,,,,,,,,,,,,,,,,,,,,,,,,,,,,,,,,,,,,,,,,,,,,,,,,,,,,,
,,,,9,1.8685,,,,,,112,cake,carrot,,89882,001,2022-04-29_13h53.36.703,SPAMnetsValid,2021.1.4,Win32,61.77033788,,,,,,,,,,,,,9,1.8685,0,64,64,39,1,,,,,,,,,,,,,,,,,,,,,,,,,,,,,,,,,,,,,,,,,,,,,,,,,,,,,,,,,,,,,,,,,,,,,,
,,,,6,3.585,,,,,,117,melon,strawberry,,89882,001,2022-04-29_13h53.36.703,SPAMnetsValid,2021.1.4,Win32,61.77033788,,,,,,,,,,,,,6,3.585,0,65,65,11,1,,,,,,,,,,,,,,,,,,,,,,,,,,,,,,,,,,,,,,,,,,,,,,,,,,,,,,,,,,,,,,,,,,,,,,
,,,,9,1.7059,,,,,,193,melon,melon,CHECK,89882,001,2022-04-29_13h53.36.703,SPAMnetsValid,2021.1.4,Win32,61.77033788,,,,,,,,,,,,,9,1.7059,0,66,66,86,1,,,,,,,,,,,,,,,,,,,,,,,,,,,,,,,,,,,,,,,,,,,,,,,,,,,,,,,,,,,,,,,,,,,,,,
,,,,9,1.7659,,,,,,115,refrigerator,tomato,,89882,001,2022-04-29_13h53.36.703,SPAMnetsValid,2021.1.4,Win32,61.77033788,,,,,,,,,,,,,9,1.7659,0,67,67,85,1,,,,,,,,,,,,,,,,,,,,,,,,,,,,,,,,,,,,,,,,,,,,,,,,,,,,,,,,,,,,,,,,,,,,,,
,,,,6,2.4944,,,,,,103,pretzel,tomato,,89882,001,2022-04-29_13h53.36.703,SPAMnetsValid,2021.1.4,Win32,61.77033788,,,,,,,,,,,,,6,2.4944,0,68,68,79,1,,,,,,,,,,,,,,,,,,,,,,,,,,,,,,,,,,,,,,,,,,,,,,,,,,,,,,,,,,,,,,,,,,,,,,
,,,,4,1.5282,,,,,,165,onion,rose,,89882,001,2022-04-29_13h53.36.703,SPAMnetsValid,2021.1.4,Win32,61.77033788,,,,,,,,,,,,,4,1.5282,0,69,69,40,1,,,,,,,,,,,,,,,,,,,,,,,,,,,,,,,,,,,,,,,,,,,,,,,,,,,,,,,,,,,,,,,,,,,,,,
,,,,9,1.6804,,,,,,102,chocolate,refrigerator,,89882,001,2022-04-29_13h53.36.703,SPAMnetsValid,2021.1.4,Win32,61.77033788,,,,,,,,,,,,,9,1.6804,0,70,70,76,1,,,,,,,,,,,,,,,,,,,,,,,,,,,,,,,,,,,,,,,,,,,,,,,,,,,,,,,,,,,,,,,,,,,,,,
,,,,6,1.8919,,,,,,136,chocolate,microwave,,89882,001,2022-04-29_13h53.36.703,SPAMnetsValid,2021.1.4,Win32,61.77033788,,,,,,,,,,,,,6,1.8919,0,71,71,96,1,,,,,,,,,,,,,,,,,,,,,,,,,,,,,,,,,,,,,,,,,,,,,,,,,,,,,,,,,,,,,,,,,,,,,,
,,,,6,2.8215,,,,,,101,cactus,kitchen,,89882,001,2022-04-29_13h53.36.703,SPAMnetsValid,2021.1.4,Win32,61.77033788,,,,,,,,,,,,,6,2.8215,0,72,72,54,1,,,,,,,,,,,,,,,,,,,,,,,,,,,,,,,,,,,,,,,,,,,,,,,,,,,,,,,,,,,,,,,,,,,,,,
,,,,1,1.6446,,,,,,109,broom,strawberry,,89882,001,2022-04-29_13h53.36.703,SPAMnetsValid,2021.1.4,Win32,61.77033788,,,,,,,,,,,,,1,1.6446,0,73,73,4,1,,,,,,,,,,,,,,,,,,,,,,,,,,,,,,,,,,,,,,,,,,,,,,,,,,,,,,,,,,,,,,,,,,,,,,
,,,,6,1.5401,,,,,,114,cookie,strawberry,,89882,001,2022-04-29_13h53.36.703,SPAMnetsValid,2021.1.4,Win32,61.77033788,,,,,,,,,,,,,6,1.5401,0,74,74,87,1,,,,,,,,,,,,,,,,,,,,,,,,,,,,,,,,,,,,,,,,,,,,,,,,,,,,,,,,,,,,,,,,,,,,,,
,,,,8,1.8703,,,,,,160,cookie,kitchen,,89882,001,2022-04-29_13h53.36.703,SPAMnetsValid,2021.1.4,Win32,61.77033788,,,,,,,,,,,,,8,1.8703,0,75,75,65,1,,,,,,,,,,,,,,,,,,,,,,,,,,,,,,,,,,,,,,,,,,,,,,,,,,,,,,,,,,,,,,,,,,,,,,
,,,,8,1.8555,,,,,,135,carrot,oven,,89882,001,2022-04-29_13h53.36.703,SPAMnetsValid,2021.1.4,Win32,61.77033788,,,,,,,,,,,,,8,1.8555,0,76,76,73,1,,,,,,,,,,,,,,,,,,,,,,,,,,,,,,,,,,,,,,,,,,,,,,,,,,,,,,,,,,,,,,,,,,,,,,
,,,,1,1.6023,,,,,,123,cookie,tree,,89882,001,2022-04-29_13h53.36.703,SPAMnetsValid,2021.1.4,Win32,61.77033788,,,,,,,,,,,,,1,1.6023,0,77,77,46,1,,,,,,,,,,,,,,,,,,,,,,,,,,,,,,,,,,,,,,,,,,,,,,,,,,,,,,,,,,,,,,,,,,,,,,
,,,,1,1.8197,,,,,,105,cactus,oven,,89882,001,2022-04-29_13h53.36.703,SPAMnetsValid,2021.1.4,Win32,61.77033788,,,,,,,,,,,,,1,1.8197,0,78,78,13,1,,,,,,,,,,,,,,,,,,,,,,,,,,,,,,,,,,,,,,,,,,,,,,,,,,,,,,,,,,,,,,,,,,,,,,
,,,,7,2.386,,,,,,97,chocolate,kitchen,,89882,001,2022-04-29_13h53.36.703,SPAMnetsValid,2021.1.4,Win32,61.77033788,,,,,,,,,,,,,7,2.386,0,79,79,8,1,,,,,,,,,,,,,,,,,,,,,,,,,,,,,,,,,,,,,,,,,,,,,,,,,,,,,,,,,,,,,,,,,,,,,,
,,,,4,2.2191,,,,,,125,carrot,tree,,89882,001,2022-04-29_13h53.36.703,SPAMnetsValid,2021.1.4,Win32,61.77033788,,,,,,,,,,,,,4,2.2191,0,80,80,30,1,,,,,,,,,,,,,,,,,,,,,,,,,,,,,,,,,,,,,,,,,,,,,,,,,,,,,,,,,,,,,,,,,,,,,,
,,,,4,1.4826,,,,,,184,oven,pretzel,,89882,001,2022-04-29_13h53.36.703,SPAMnetsValid,2021.1.4,Win32,61.77033788,,,,,,,,,,,,,4,1.4826,0,81,81,42,1,,,,,,,,,,,,,,,,,,,,,,,,,,,,,,,,,,,,,,,,,,,,,,,,,,,,,,,,,,,,,,,,,,,,,,
,,,,6,1.5479,,,,,,188,flower,tree,,89882,001,2022-04-29_13h53.36.703,SPAMnetsValid,2021.1.4,Win32,61.77033788,,,,,,,,,,,,,6,1.5479,0,82,82,7,1,,,,,,,,,,,,,,,,,,,,,,,,,,,,,,,,,,,,,,,,,,,,,,,,,,,,,,,,,,,,,,,,,,,,,,
,,,,7,1.3995,,,,,,173,kitchen,tomato,,89882,001,2022-04-29_13h53.36.703,SPAMnetsValid,2021.1.4,Win32,61.77033788,,,,,,,,,,,,,7,1.3995,0,83,83,1,1,,,,,,,,,,,,,,,,,,,,,,,,,,,,,,,,,,,,,,,,,,,,,,,,,,,,,,,,,,,,,,,,,,,,,,
,,,,9,1.6509,,,,,,122,flower,garden,,89882,001,2022-04-29_13h53.36.703,SPAMnetsValid,2021.1.4,Win32,61.77033788,,,,,,,,,,,,,9,1.6509,0,84,84,60,1,,,,,,,,,,,,,,,,,,,,,,,,,,,,,,,,,,,,,,,,,,,,,,,,,,,,,,,,,,,,,,,,,,,,,,
,,,,9,1.8603,,,,,,124,oven,refrigerator,,89882,001,2022-04-29_13h53.36.703,SPAMnetsValid,2021.1.4,Win32,61.77033788,,,,,,,,,,,,,9,1.8603,0,85,85,69,1,,,,,,,,,,,,,,,,,,,,,,,,,,,,,,,,,,,,,,,,,,,,,,,,,,,,,,,,,,,,,,,,,,,,,,
,,,,4,2.6542,,,,,,132,broom,tree,,89882,001,2022-04-29_13h53.36.703,SPAMnetsValid,2021.1.4,Win32,61.77033788,,,,,,,,,,,,,4,2.6542,0,86,86,78,1,,,,,,,,,,,,,,,,,,,,,,,,,,,,,,,,,,,,,,,,,,,,,,,,,,,,,,,,,,,,,,,,,,,,,,
,,,,1,2.306,,,,,,104,garden,microwave,,89882,001,2022-04-29_13h53.36.703,SPAMnetsValid,2021.1.4,Win32,61.77033788,,,,,,,,,,,,,1,2.306,0,87,87,81,1,,,,,,,,,,,,,,,,,,,,,,,,,,,,,,,,,,,,,,,,,,,,,,,,,,,,,,,,,,,,,,,,,,,,,,
,,,,6,1.7707,,,,,,140,cookie,refrigerator,,89882,001,2022-04-29_13h53.36.703,SPAMnetsValid,2021.1.4,Win32,61.77033788,,,,,,,,,,,,,6,1.7707,0,88,88,89,1,,,,,,,,,,,,,,,,,,,,,,,,,,,,,,,,,,,,,,,,,,,,,,,,,,,,,,,,,,,,,,,,,,,,,,
,,,,1,1.7616,,,,,,143,pretzel,rose,,89882,001,2022-04-29_13h53.36.703,SPAMnetsValid,2021.1.4,Win32,61.77033788,,,,,,,,,,,,,1,1.7616,0,89,89,55,1,,,,,,,,,,,,,,,,,,,,,,,,,,,,,,,,,,,,,,,,,,,,,,,,,,,,,,,,,,,,,,,,,,,,,,
,,,,8,1.9073,,,,,,161,kitchen,pretzel,,89882,001,2022-04-29_13h53.36.703,SPAMnetsValid,2021.1.4,Win32,61.77033788,,,,,,,,,,,,,8,1.9073,0,90,90,36,1,,,,,,,,,,,,,,,,,,,,,,,,,,,,,,,,,,,,,,,,,,,,,,,,,,,,,,,,,,,,,,,,,,,,,,
,,,,7,1.919,,,,,,155,carrot,cookie,,89882,001,2022-04-29_13h53.36.703,SPAMnetsValid,2021.1.4,Win32,61.77033788,,,,,,,,,,,,,7,1.919,0,91,91,38,1,,,,,,,,,,,,,,,,,,,,,,,,,,,,,,,,,,,,,,,,,,,,,,,,,,,,,,,,,,,,,,,,,,,,,,
,,,,6,2.6945,,,,,,170,cookie,microwave,,89882,001,2022-04-29_13h53.36.703,SPAMnetsValid,2021.1.4,Win32,61.77033788,,,,,,,,,,,,,6,2.6945,0,92,92,92,1,,,,,,,,,,,,,,,,,,,,,,,,,,,,,,,,,,,,,,,,,,,,,,,,,,,,,,,,,,,,,,,,,,,,,,
,,,,1,3.0834,,,,,,130,microwave,yogurt,,89882,001,2022-04-29_13h53.36.703,SPAMnetsValid,2021.1.4,Win32,61.77033788,,,,,,,,,,,,,1,3.0834,0,93,93,84,1,,,,,,,,,,,,,,,,,,,,,,,,,,,,,,,,,,,,,,,,,,,,,,,,,,,,,,,,,,,,,,,,,,,,,,
,,,,4,2.5848,,,,,,176,cactus,tomato,,89882,001,2022-04-29_13h53.36.703,SPAMnetsValid,2021.1.4,Win32,61.77033788,,,,,,,,,,,,,4,2.5848,0,94,94,9,1,,,,,,,,,,,,,,,,,,,,,,,,,,,,,,,,,,,,,,,,,,,,,,,,,,,,,,,,,,,,,,,,,,,,,,
,,,,1,1.7914,,,,,,127,cactus,chocolate,,89882,001,2022-04-29_13h53.36.703,SPAMnetsValid,2021.1.4,Win32,61.77033788,,,,,,,,,,,,,1,1.7914,0,95,95,57,1,,,,,,,,,,,,,,,,,,,,,,,,,,,,,,,,,,,,,,,,,,,,,,,,,,,,,,,,,,,,,,,,,,,,,,
,,,,6,1.639,,,,,,111,carrot,microwave,,89882,001,2022-04-29_13h53.36.703,SPAMnetsValid,2021.1.4,Win32,61.77033788,,,,,,,,,,,,,6,1.639,0,96,96,16,1,,,,,,,,,,,,,,,,,,,,,,,,,,,,,,,,,,,,,,,,,,,,,,,,,,,,,,,,,,,,,,,,,,,,,,
,,,,,,,,,,,,,,,89882,001,2022-04-29_13h53.36.703,SPAMnetsValid,2021.1.4,Win32,61.77033788,,,,,,,,,,,,,,,,,,,,0,0,0,0,1,,,,,,,,,,,,,,,,,,,,,,,,,,,,,,,,,,,,,,,,,,,,,,,,,,,,,,,,,,,,,,,,,
,,,,,,,,,,,,,,,89882,001,2022-04-29_13h53.36.703,SPAMnetsValid,2021.1.4,Win32,61.77033788,,,,,,0,1,1,1,1,0,1,,,,,,,,,,,,,,,,,,,,,,,,,,,,,,,,,,,,,,,,,,,,,,,,,,,,,,,,,,,,,,,,,,,,,,,,,,,,,
,,,,,,,,,,,,,,,89882,001,2022-04-29_13h53.36.703,SPAMnetsValid,2021.1.4,Win32,61.77033788,,,,,,,,,,,,,,,,,,,,,,,,,3,3.5046,0,0,0,0,1,rancor,forbearance,ridicule,malice,bravery,3,,,,,,,,,,,,,,,,,,,,,,,,,,,,,,,,,,,,,,,,,,,,,,,,,,,,
,,,,,,,,,,,,,,,89882,001,2022-04-29_13h53.36.703,SPAMnetsValid,2021.1.4,Win32,61.77033788,,,,,,,,,,,,,,,,,,,,,,,,,4,2.6363,0,1,1,1,1,raucous,empty,quiet,smooth,harsh,4,,,,,,,,,,,,,,,,,,,,,,,,,,,,,,,,,,,,,,,,,,,,,,,,,,,,
,,,,,,,,,,,,,,,89882,001,2022-04-29_13h53.36.703,SPAMnetsValid,2021.1.4,Win32,61.77033788,,,,,,,,,,,,,,,,,,,,,,,,,3,4.1024,0,2,2,2,1,gargoyle,oil,medicine,carved waterspout,ugly building,3,,,,,,,,,,,,,,,,,,,,,,,,,,,,,,,,,,,,,,,,,,,,,,,,,,,,
,,,,,,,,,,,,,,,89882,001,2022-04-29_13h53.36.703,SPAMnetsValid,2021.1.4,Win32,61.77033788,,,,,,,,,,,,,,,,,,,,,,,,,3,6.4844,0,3,3,3,1,recrudesce,purify,renew activity,lack refinement,crush,2,,,,,,,,,,,,,,,,,,,,,,,,,,,,,,,,,,,,,,,,,,,,,,,,,,,,
,,,,,,,,,,,,,,,89882,001,2022-04-29_13h53.36.703,SPAMnetsValid,2021.1.4,Win32,61.77033788,,,,,,,,,,,,,,,,,,,,,,,,,3,7.7807,0,4,4,4,1,specious,"plausible, but not genuine",noteworthy,class or variety,roomy,1,,,,,,,,,,,,,,,,,,,,,,,,,,,,,,,,,,,,,,,,,,,,,,,,,,,,
,,,,,,,,,,,,,,,89882,001,2022-04-29_13h53.36.703,SPAMnetsValid,2021.1.4,Win32,61.77033788,,,,,,,,,,,,,,,,,,,,,,,,,2,4.5385,0,5,5,5,1,bauble,bubble,showy plaything,idle talk,confusion,2,,,,,,,,,,,,,,,,,,,,,,,,,,,,,,,,,,,,,,,,,,,,,,,,,,,,
,,,,,,,,,,,,,,,89882,001,2022-04-29_13h53.36.703,SPAMnetsValid,2021.1.4,Win32,61.77033788,,,,,,,,,,,,,,,,,,,,,,,,,2,4.1565,0,6,6,6,1,prolific,scarce,producing abundantly,reckless,speaking profanely,2,,,,,,,,,,,,,,,,,,,,,,,,,,,,,,,,,,,,,,,,,,,,,,,,,,,,
,,,,,,,,,,,,,,,89882,001,2022-04-29_13h53.36.703,SPAMnetsValid,2021.1.4,Win32,61.77033788,,,,,,,,,,,,,,,,,,,,,,,,,2,2.6548,0,7,7,7,1,opulent,party,wealthy,happy frame of mind,semiprecious stone,2,,,,,,,,,,,,,,,,,,,,,,,,,,,,,,,,,,,,,,,,,,,,,,,,,,,,
,,,,,,,,,,,,,,,89882,001,2022-04-29_13h53.36.703,SPAMnetsValid,2021.1.4,Win32,61.77033788,,,,,,,,,,,,,,,,,,,,,,,,,4,11.5589,0,8,8,8,1,coercion,conspiracy,strategy,restraint,attraction,3,,,,,,,,,,,,,,,,,,,,,,,,,,,,,,,,,,,,,,,,,,,,,,,,,,,,
,,,,,,,,,,,,,,,89882,001,2022-04-29_13h53.36.703,SPAMnetsValid,2021.1.4,Win32,61.77033788,,,,,,,,,,,,,,,,,,,,,,,,,4,2.3751,0,9,9,9,1,hiatus,animal,calamity,dread,gap,4,,,,,,,,,,,,,,,,,,,,,,,,,,,,,,,,,,,,,,,,,,,,,,,,,,,,
,,,,,,,,,,,,,,,89882,001,2022-04-29_13h53.36.703,SPAMnetsValid,2021.1.4,Win32,61.77033788,,,,,,,,,,,,,,,,,,,,,,,,,3,7.4586,0,10,10,10,1,germane,microbe,contagious,relevant,different,3,,,,,,,,,,,,,,,,,,,,,,,,,,,,,,,,,,,,,,,,,,,,,,,,,,,,
,,,,,,,,,,,,,,,89882,001,2022-04-29_13h53.36.703,SPAMnetsValid,2021.1.4,Win32,61.77033788,,,,,,,,,,,,,,,,,,,,,,,,,1,4.9645,0,11,11,11,1,perfunctory,fundamental,formal,superficial,careful,3,,,,,,,,,,,,,,,,,,,,,,,,,,,,,,,,,,,,,,,,,,,,,,,,,,,,
,,,,,,,,,,,,,,,89882,001,2022-04-29_13h53.36.703,SPAMnetsValid,2021.1.4,Win32,61.77033788,,,,,,,,,,,,,,,,,,,,,,,,,4,3.4326,0,12,12,12,1,diverge,reveal,chant,distract the attention of,differ or turn off from,4,,,,,,,,,,,,,,,,,,,,,,,,,,,,,,,,,,,,,,,,,,,,,,,,,,,,
,,,,,,,,,,,,,,,89882,001,2022-04-29_13h53.36.703,SPAMnetsValid,2021.1.4,Win32,61.77033788,,,,,,,,,,,,,,,,,,,,,,,,,4,2.4344,0,13,13,13,1,evoke,take away,anger,connect,bring out,4,,,,,,,,,,,,,,,,,,,,,,,,,,,,,,,,,,,,,,,,,,,,,,,,,,,,
,,,,,,,,,,,,,,,89882,001,2022-04-29_13h53.36.703,SPAMnetsValid,2021.1.4,Win32,61.77033788,,,,,,,,,,,,,,,,,,,,,,,,,1,2.3338,0,14,14,14,1,pertinent,relevant,lying next to,necessary,bold,1,,,,,,,,,,,,,,,,,,,,,,,,,,,,,,,,,,,,,,,,,,,,,,,,,,,,
,,,,,,,,,,,,,,,89882,001,2022-04-29_13h53.36.703,SPAMnetsValid,2021.1.4,Win32,61.77033788,,,,,,,,,,,,,,,,,,,,,,,,,2,2.0582,0,15,15,15,1,holocaust,entirety,destruction,saintly,price,2,,,,,,,,,,,,,,,,,,,,,,,,,,,,,,,,,,,,,,,,,,,,,,,,,,,,
,,,,,,,,,,,,,,,89882,001,2022-04-29_13h53.36.703,SPAMnetsValid,2021.1.4,Win32,61.77033788,,,,,,,,,,,,,,,,,,,,,,,,,1,9.346,0,16,16,16,1,piquant,mellow,fish,pungent,cloth,3,,,,,,,,,,,,,,,,,,,,,,,,,,,,,,,,,,,,,,,,,,,,,,,,,,,,
,,,,,,,,,,,,,,,89882,001,2022-04-29_13h53.36.703,SPAMnetsValid,2021.1.4,Win32,61.77033788,,,,,,,,,,,,,,,,,,,,,,,,,3,3.4015,0,17,17,17,1,firmament,foundation,heavens,strong,glue,2,,,,,,,,,,,,,,,,,,,,,,,,,,,,,,,,,,,,,,,,,,,,,,,,,,,,
,,,,,,,,,,,,,,,89882,001,2022-04-29_13h53.36.703,SPAMnetsValid,2021.1.4,Win32,61.77033788,,,,,,,,,,,,,,,,,,,,,,,,,,,,,,,,,,,,,,4,2.8113,0,0,0,0,1,marketable,partisan,jocular,marriageable,salable,essential,4,,,,,,,,,,,,,,,,,,,,,,,,,,,,,,,,,,,,,,
,,,,,,,,,,,,,,,89882,001,2022-04-29_13h53.36.703,SPAMnetsValid,2021.1.4,Win32,61.77033788,,,,,,,,,,,,,,,,,,,,,,,,,,,,,,,,,,,,,,5,3.1769,0,1,1,1,1,cottontail,squirrel,poplar,boa,marshy plant,rabbit,5,,,,,,,,,,,,,,,,,,,,,,,,,,,,,,,,,,,,,,
,,,,,,,,,,,,,,,89882,001,2022-04-29_13h53.36.703,SPAMnetsValid,2021.1.4,Win32,61.77033788,,,,,,,,,,,,,,,,,,,,,,,,,,,,,,,,,,,,,,3,2.0677,0,2,2,2,1,boggy,afraid,false,marshy,dense,black,3,,,,,,,,,,,,,,,,,,,,,,,,,,,,,,,,,,,,,,
,,,,,,,,,,,,,,,89882,001,2022-04-29_13h53.36.703,SPAMnetsValid,2021.1.4,Win32,61.77033788,,,,,,,,,,,,,,,,,,,,,,,,,,,,,,,,,,,,,,5,3.4717,0,3,3,3,1,gruesomeness,blackness,falseness,vindictiveness,drunkenness,ghastliness,5,,,,,,,,,,,,,,,,,,,,,,,,,,,,,,,,,,,,,,
,,,,,,,,,,,,,,,89882,001,2022-04-29_13h53.36.703,SPAMnetsValid,2021.1.4,Win32,61.77033788,,,,,,,,,,,,,,,,,,,,,,,,,,,,,,,,,,,,,,3,2.1699,0,4,4,4,1,loathing,diffidence,laziness,abhorrence,cleverness,comfort,3,,,,,,,,,,,,,,,,,,,,,,,,,,,,,,,,,,,,,,
,,,,,,,,,,,,,,,89882,001,2022-04-29_13h53.36.703,SPAMnetsValid,2021.1.4,Win32,61.77033788,,,,,,,,,,,,,,,,,,,,,,,,,,,,,,,,,,,,,,2,5.2017,0,5,5,5,1,bantam,fowl,ridicule,cripple,vegetable,ensign,1,,,,,,,,,,,,,,,,,,,,,,,,,,,,,,,,,,,,,,
,,,,,,,,,,,,,,,89882,001,2022-04-29_13h53.36.703,SPAMnetsValid,2021.1.4,Win32,61.77033788,,,,,,,,,,,,,,,,,,,,,,,,,,,,,,,,,,,,,,5,3.0586,0,6,6,6,1,evoke,wake up,surrender,reconnoiter,transcend,call forth,5,,,,,,,,,,,,,,,,,,,,,,,,,,,,,,,,,,,,,,
,,,,,,,,,,,,,,,89882,001,2022-04-29_13h53.36.703,SPAMnetsValid,2021.1.4,Win32,61.77033788,,,,,,,,,,,,,,,,,,,,,,,,,,,,,,,,,,,,,,5,2.9017,0,7,7,7,1,unobtrusive,unintelligent,epileptic,illogical,lineal,modest,5,,,,,,,,,,,,,,,,,,,,,,,,,,,,,,,,,,,,,,
,,,,,,,,,,,,,,,89882,001,2022-04-29_13h53.36.703,SPAMnetsValid,2021.1.4,Win32,61.77033788,,,,,,,,,,,,,,,,,,,,,,,,,,,,,,,,,,,,,,4,5.135,0,8,8,8,1,terrain,ice cream,final test,tractor,area of ground,weight,4,,,,,,,,,,,,,,,,,,,,,,,,,,,,,,,,,,,,,,
,,,,,,,,,,,,,,,89882,001,2022-04-29_13h53.36.703,SPAMnetsValid,2021.1.4,Win32,61.77033788,,,,,,,,,,,,,,,,,,,,,,,,,,,,,,,,,,,,,,5,4.1134,0,9,9,9,1,capriciousness,stubbornness,courage,whimsicality,amazement,greediness,3,,,,,,,,,,,,,,,,,,,,,,,,,,,,,,,,,,,,,,
,,,,,,,,,,,,,,,89882,001,2022-04-29_13h53.36.703,SPAMnetsValid,2021.1.4,Win32,61.77033788,,,,,,,,,,,,,,,,,,,,,,,,,,,,,,,,,,,,,,3,7.7621,0,10,10,10,1,maelstrom,slander,whirlpool,enmity,armor,majolica,2,,,,,,,,,,,,,,,,,,,,,,,,,,,,,,,,,,,,,,
,,,,,,,,,,,,,,,89882,001,2022-04-29_13h53.36.703,SPAMnetsValid,2021.1.4,Win32,61.77033788,,,,,,,,,,,,,,,,,,,,,,,,,,,,,,,,,,,,,,5,4.2537,0,11,11,11,1,tentative,critical,conclusive,authentic,provisional,apprehensive,4,,,,,,,,,,,,,,,,,,,,,,,,,,,,,,,,,,,,,,
,,,,,,,,,,,,,,,89882,001,2022-04-29_13h53.36.703,SPAMnetsValid,2021.1.4,Win32,61.77033788,,,,,,,,,,,,,,,,,,,,,,,,,,,,,,,,,,,,,,5,3.7869,0,12,12,12,1,placate,rehabilitate,plagiarize,depredate,apprise,conciliate,5,,,,,,,,,,,,,,,,,,,,,,,,,,,,,,,,,,,,,,
,,,,,,,,,,,,,,,89882,001,2022-04-29_13h53.36.703,SPAMnetsValid,2021.1.4,Win32,61.77033788,,,,,,,,,,,,,,,,,,,,,,,,,,,,,,,,,,,,,,2,3.9226,0,13,13,13,1,surcease,enlightenment,cessation,inattention,censor,substitution,2,,,,,,,,,,,,,,,,,,,,,,,,,,,,,,,,,,,,,,
,,,,,,,,,,,,,,,89882,001,2022-04-29_13h53.36.703,SPAMnetsValid,2021.1.4,Win32,61.77033788,,,,,,,,,,,,,,,,,,,,,,,,,,,,,,,,,,,,,,2,4.1642,0,14,14,14,1,apathetic,wandering,impassive,hateful,prophetic,overflowing,2,,,,,,,,,,,,,,,,,,,,,,,,,,,,,,,,,,,,,,
,,,,,,,,,,,,,,,89882,001,2022-04-29_13h53.36.703,SPAMnetsValid,2021.1.4,Win32,61.77033788,,,,,,,,,,,,,,,,,,,,,,,,,,,,,,,,,,,,,,2,6.01,0,15,15,15,1,paternoster,paternalism,patricide,malediction,benediction,prayer,5,,,,,,,,,,,,,,,,,,,,,,,,,,,,,,,,,,,,,,
,,,,,,,,,,,,,,,89882,001,2022-04-29_13h53.36.703,SPAMnetsValid,2021.1.4,Win32,61.77033788,,,,,,,,,,,,,,,,,,,,,,,,,,,,,,,,,,,,,,1,4.9436,0,16,16,16,1,opalescence,opulence,senescence,bankruptcy,iridescence,assiduity,4,,,,,,,,,,,,,,,,,,,,,,,,,,,,,,,,,,,,,,
,,,,,,,,,,,,,,,89882,001,2022-04-29_13h53.36.703,SPAMnetsValid,2021.1.4,Win32,61.77033788,,,,,,,,,,,,,,,,,,,,,,,,,,,,,,,,,,,,,,2,5.8705,0,17,17,17,1,lush,stupid,luxurious,hazy,putrid,languishing,2,,,,,,,,,,,,,,,,,,,,,,,,,,,,,,,,,,,,,,
,,,,,,,,,,,,,,,89882,001,2022-04-29_13h53.36.703,SPAMnetsValid,2021.1.4,Win32,61.77033788,,,,,,,,,,,,,,,,,,,,,,,,,,,,,,,,,,,,,,2,6.0841,0,18,18,18,1,curtailment,expenditure,abandonment,abridgment,improvement,forgery,3,,,,,,,,,,,,,,,,,,,,,,,,,,,,,,,,,,,,,,
,,,,,,,,,,,,,,,89882,001,2022-04-29_13h53.36.703,SPAMnetsValid,2021.1.4,Win32,61.77033788,,,,,,,,,,,,,,,,,,,,,,,,,,,,,,,,,,,,,,2,8.8821,0,19,19,19,1,perversity,adversity,perviousness,travesty,waywardness,gentility,4,,,,,,,,,,,,,,,,,,,,,,,,,,,,,,,,,,,,,,
,,,,,,,,,,,,,,,89882,001,2022-04-29_13h53.36.703,SPAMnetsValid,2021.1.4,Win32,61.77033788,,,,,,,,,,,,,,,,,,,,,,,,,,,,,,,,,,,,,,1,6.1178,0,20,20,20,1,calumnious,complimentary,analogous,slanderous,tempestuous,magnanimous,3,,,,,,,,,,,,,,,,,,,,,,,,,,,,,,,,,,,,,,
,,,,,,,,,,,,,,,89882,001,2022-04-29_13h53.36.703,SPAMnetsValid,2021.1.4,Win32,61.77033788,,,,,,,,,,,,,,,,,,,,,,,,,,,,,,,,,,,,,,3,6.1021,0,21,21,21,1,illiberality,bigotry,imbecility,illegibility,cautery,immaturity,1,,,,,,,,,,,,,,,,,,,,,,,,,,,,,,,,,,,,,,
,,,,,,,,,,,,,,,89882,001,2022-04-29_13h53.36.703,SPAMnetsValid,2021.1.4,Win32,61.77033788,,,,,,,,,,,,,,,,,,,,,,,,,,,,,,,,,,,,,,2,4.1055,0,22,22,22,1,clabber,rejoice,gossip,curdle,crow,hobble,3,,,,,,,,,,,,,,,,,,,,,,,,,,,,,,,,,,,,,,
,,,,,,,,,,,,,,,89882,001,2022-04-29_13h53.36.703,SPAMnetsValid,2021.1.4,Win32,61.77033788,,,,,,,,,,,,,,,,,,,,,,,,,,,,,,,,,,,,,,2,8.2627,0,23,23,23,1,sedulousness,diligence,credulousness,seduction,perilousness,frankness,1,,,,,,,,,,,,,,,,,,,,,,,,,,,,,,,,,,,,,,
,,,,,,,,,,,,,,,89882,001,2022-04-29_13h53.36.703,SPAMnetsValid,2021.1.4,Win32,61.77033788,,,,,,,,,,,,,,,,,,,,,,,,,,,,,,,,,,,,,,,,,,,,,,,,,,,,catch water,bucket,0,0,0,0,1,,,,,,,,,,,,,,,,,,,,,,,,,,,,,,,
,,,,,,,,,,,,,,,89882,001,2022-04-29_13h53.36.703,SPAMnetsValid,2021.1.4,Win32,61.77033788,,,,,,,,,,,,,,,,,,,,,,,,,,,,,,,,,,,,,,,,,,,,,,,,,,,,fill with balloons,bucket,1,0,1,0,1,,,,,,,,,,,,,,,,,,,,,,,,,,,,,,,
,,,,,,,,,,,,,,,89882,001,2022-04-29_13h53.36.703,SPAMnetsValid,2021.1.4,Win32,61.77033788,,,,,,,,,,,,,,,,,,,,,,,,,,,,,,,,,,,,,,,,,,,,,,,,,,,,use for carrying,bucket,2,0,2,0,1,,,,,,,,,,,,,,,,,,,,,,,,,,,,,,,
,,,,,,,,,,,,,,,89882,001,2022-04-29_13h53.36.703,SPAMnetsValid,2021.1.4,Win32,61.77033788,,,,,,,,,,,,,,,,,,,,,,,,,,,,,,,,,,,,,,,,,,,,,,,,,,,,use to sit on,bucket,3,0,3,0,1,,,,,,,,,,,,,,,,,,,,,,,,,,,,,,,
,,,,,,,,,,,,,,,89882,001,2022-04-29_13h53.36.703,SPAMnetsValid,2021.1.4,Win32,61.77033788,,,,,,,,,,,,,,,,,,,,,,,,,,,,,,,,,,,,,,,,,,,,,,,,,,,,use as a drum,bucket,4,0,4,0,1,,,,,,,,,,,,,,,,,,,,,,,,,,,,,,,
,,,,,,,,,,,,,,,89882,001,2022-04-29_13h53.36.703,SPAMnetsValid,2021.1.4,Win32,61.77033788,,,,,,,,,,,,,,,,,,,,,,,,,,,,,,,,,,,,,,,,,,,,,,,,,,,,kick it,bucket,5,0,5,0,1,,,,,,,,,,,,,,,,,,,,,,,,,,,,,,,
,,,,,,,,,,,,,,,89882,001,2022-04-29_13h53.36.703,SPAMnetsValid,2021.1.4,Win32,61.77033788,,,,,,,,,,,,,,,,,,,,,,,,,,,,,,,,,,,,,,,,,,,,,,,,,,,,use as a step stool,bucket,6,0,6,0,1,,,,,,,,,,,,,,,,,,,,,,,,,,,,,,,
,,,,,,,,,,,,,,,89882,001,2022-04-29_13h53.36.703,SPAMnetsValid,2021.1.4,Win32,61.77033788,,,,,,,,,,,,,,,,,,,,,,,,,,,,,,,,,,,,,,,,,,,,,,,,,,,,decoration,bucket,7,0,7,0,1,,,,,,,,,,,,,,,,,,,,,,,,,,,,,,,
,,,,,,,,,,,,,,,89882,001,2022-04-29_13h53.36.703,SPAMnetsValid,2021.1.4,Win32,61.77033788,,,,,,,,,,,,,,,,,,,,,,,,,,,,,,,,,,,,,,,,,,,,,,,,,,,,plant flowers ,bucket,8,0,8,0,1,,,,,,,,,,,,,,,,,,,,,,,,,,,,,,,
,,,,,,,,,,,,,,,89882,001,2022-04-29_13h53.36.703,SPAMnetsValid,2021.1.4,Win32,61.77033788,,,,,,,,,,,,,,,,,,,,,,,,,,,,,,,,,,,,,,,,,,,,,,,,,,,,use for cleaning solution,bucket,9,0,9,0,1,,,,,,,,,,,,,,,,,,,,,,,,,,,,,,,
,,,,,,,,,,,,,,,89882,001,2022-04-29_13h53.36.703,SPAMnetsValid,2021.1.4,Win32,61.77033788,,,,,,,,,,,,,,,,,,,,,,,,,,,,,,,,,,,,,,,,,,,,,,,,,,,,storage,bucket,10,0,10,0,1,,,,,,,,,,,,,,,,,,,,,,,,,,,,,,,
,,,,,,,,,,,,,,,89882,001,2022-04-29_13h53.36.703,SPAMnetsValid,2021.1.4,Win32,61.77033788,,,,,,,,,,,,,,,,,,,,,,,,,,,,,,,,,,,,,,,,,,,,,,,,,,,,marbles,bucket,11,0,11,0,1,,,,,,,,,,,,,,,,,,,,,,,,,,,,,,,
,,,,,,,,,,,,,,,89882,001,2022-04-29_13h53.36.703,SPAMnetsValid,2021.1.4,Win32,61.77033788,,,,,,,,,,,,,,,,,,,,,,,,,,,,,,,,,,,,,,,,,,,,,,,,,,,,,,,,,,,0,0,0,0,1,bucket,,,,,,,,,,,,,,,,,,,,,,,,,
,,,,,,,,,,,,,,,89882,001,2022-04-29_13h53.36.703,SPAMnetsValid,2021.1.4,Win32,61.77033788,,,,,,,,,,,,,,,,,,,,,,,,,,,,,,,,,,,,,,,,,,,,,,,,,,,,romatic dinner,candle,0,0,0,0,1,,,,,,,,,,,,,,,,,,,,,,,,,,,,,,,
,,,,,,,,,,,,,,,89882,001,2022-04-29_13h53.36.703,SPAMnetsValid,2021.1.4,Win32,61.77033788,,,,,,,,,,,,,,,,,,,,,,,,,,,,,,,,,,,,,,,,,,,,,,,,,,,,wax art,candle,1,0,1,0,1,,,,,,,,,,,,,,,,,,,,,,,,,,,,,,,
,,,,,,,,,,,,,,,89882,001,2022-04-29_13h53.36.703,SPAMnetsValid,2021.1.4,Win32,61.77033788,,,,,,,,,,,,,,,,,,,,,,,,,,,,,,,,,,,,,,,,,,,,,,,,,,,,innapropriate things ;,candle,2,0,2,0,1,,,,,,,,,,,,,,,,,,,,,,,,,,,,,,,
,,,,,,,,,,,,,,,89882,001,2022-04-29_13h53.36.703,SPAMnetsValid,2021.1.4,Win32,61.77033788,,,,,,,,,,,,,,,,,,,,,,,,,,,,,,,,,,,,,,,,,,,,,,,,,,,,set things on fire,candle,3,0,3,0,1,,,,,,,,,,,,,,,,,,,,,,,,,,,,,,,
,,,,,,,,,,,,,,,89882,001,2022-04-29_13h53.36.703,SPAMnetsValid,2021.1.4,Win32,61.77033788,,,,,,,,,,,,,,,,,,,,,,,,,,,,,,,,,,,,,,,,,,,,,,,,,,,,melt down to make crayons,candle,4,0,4,0,1,,,,,,,,,,,,,,,,,,,,,,,,,,,,,,,
,,,,,,,,,,,,,,,89882,001,2022-04-29_13h53.36.703,SPAMnetsValid,2021.1.4,Win32,61.77033788,,,,,,,,,,,,,,,,,,,,,,,,,,,,,,,,,,,,,,,,,,,,,,,,,,,,make scents,candle,5,0,5,0,1,,,,,,,,,,,,,,,,,,,,,,,,,,,,,,,
,,,,,,,,,,,,,,,89882,001,2022-04-29_13h53.36.703,SPAMnetsValid,2021.1.4,Win32,61.77033788,,,,,,,,,,,,,,,,,,,,,,,,,,,,,,,,,,,,,,,,,,,,,,,,,,,,make fun shapes,candle,6,0,6,0,1,,,,,,,,,,,,,,,,,,,,,,,,,,,,,,,
,,,,,,,,,,,,,,,89882,001,2022-04-29_13h53.36.703,SPAMnetsValid,2021.1.4,Win32,61.77033788,,,,,,,,,,,,,,,,,,,,,,,,,,,,,,,,,,,,,,,,,,,,,,,,,,,,draw with them,candle,7,0,7,0,1,,,,,,,,,,,,,,,,,,,,,,,,,,,,,,,
,,,,,,,,,,,,,,,89882,001,2022-04-29_13h53.36.703,SPAMnetsValid,2021.1.4,Win32,61.77033788,,,,,,,,,,,,,,,,,,,,,,,,,,,,,,,,,,,,,,,,,,,,,,,,,,,,,,,,,,,0,1,1,1,1,candle,,,,,,,,,,,,,,,,,,,,,,,,,
,,,,,,,,,,,,,,,89882,001,2022-04-29_13h53.36.703,SPAMnetsValid,2021.1.4,Win32,61.77033788,,,,,,,,,,,,,,,,,,,,,,,,,,,,,,,,,,,,,,,,,,,,,,,,,,,,sleep,pillow,0,0,0,0,1,,,,,,,,,,,,,,,,,,,,,,,,,,,,,,,
,,,,,,,,,,,,,,,89882,001,2022-04-29_13h53.36.703,SPAMnetsValid,2021.1.4,Win32,61.77033788,,,,,,,,,,,,,,,,,,,,,,,,,,,,,,,,,,,,,,,,,,,,,,,,,,,,make fort,pillow,1,0,1,0,1,,,,,,,,,,,,,,,,,,,,,,,,,,,,,,,
,,,,,,,,,,,,,,,89882,001,2022-04-29_13h53.36.703,SPAMnetsValid,2021.1.4,Win32,61.77033788,,,,,,,,,,,,,,,,,,,,,,,,,,,,,,,,,,,,,,,,,,,,,,,,,,,,yell into,pillow,2,0,2,0,1,,,,,,,,,,,,,,,,,,,,,,,,,,,,,,,
,,,,,,,,,,,,,,,89882,001,2022-04-29_13h53.36.703,SPAMnetsValid,2021.1.4,Win32,61.77033788,,,,,,,,,,,,,,,,,,,,,,,,,,,,,,,,,,,,,,,,,,,,,,,,,,,,cuddle,pillow,3,0,3,0,1,,,,,,,,,,,,,,,,,,,,,,,,,,,,,,,
,,,,,,,,,,,,,,,89882,001,2022-04-29_13h53.36.703,SPAMnetsValid,2021.1.4,Win32,61.77033788,,,,,,,,,,,,,,,,,,,,,,,,,,,,,,,,,,,,,,,,,,,,,,,,,,,,use filling to make something,pillow,4,0,4,0,1,,,,,,,,,,,,,,,,,,,,,,,,,,,,,,,
,,,,,,,,,,,,,,,89882,001,2022-04-29_13h53.36.703,SPAMnetsValid,2021.1.4,Win32,61.77033788,,,,,,,,,,,,,,,,,,,,,,,,,,,,,,,,,,,,,,,,,,,,,,,,,,,,beat it up,pillow,5,0,5,0,1,,,,,,,,,,,,,,,,,,,,,,,,,,,,,,,
,,,,,,,,,,,,,,,89882,001,2022-04-29_13h53.36.703,SPAMnetsValid,2021.1.4,Win32,61.77033788,,,,,,,,,,,,,,,,,,,,,,,,,,,,,,,,,,,,,,,,,,,,,,,,,,,,sew,pillow,6,0,6,0,1,,,,,,,,,,,,,,,,,,,,,,,,,,,,,,,
,,,,,,,,,,,,,,,89882,001,2022-04-29_13h53.36.703,SPAMnetsValid,2021.1.4,Win32,61.77033788,,,,,,,,,,,,,,,,,,,,,,,,,,,,,,,,,,,,,,,,,,,,,,,,,,,,paint,pillow,7,0,7,0,1,,,,,,,,,,,,,,,,,,,,,,,,,,,,,,,
,,,,,,,,,,,,,,,89882,001,2022-04-29_13h53.36.703,SPAMnetsValid,2021.1.4,Win32,61.77033788,,,,,,,,,,,,,,,,,,,,,,,,,,,,,,,,,,,,,,,,,,,,,,,,,,,,use as a place to land,pillow,8,0,8,0,1,,,,,,,,,,,,,,,,,,,,,,,,,,,,,,,
,,,,,,,,,,,,,,,89882,001,2022-04-29_13h53.36.703,SPAMnetsValid,2021.1.4,Win32,61.77033788,,,,,,,,,,,,,,,,,,,,,,,,,,,,,,,,,,,,,,,,,,,,,,,,,,,,make them into ''stepping'' stones,pillow,9,0,9,0,1,,,,,,,,,,,,,,,,,,,,,,,,,,,,,,,
,,,,,,,,,,,,,,,89882,001,2022-04-29_13h53.36.703,SPAMnetsValid,2021.1.4,Win32,61.77033788,,,,,,,,,,,,,,,,,,,,,,,,,,,,,,,,,,,,,,,,,,,,,,,,,,,,decorate with them,pillow,10,0,10,0,1,,,,,,,,,,,,,,,,,,,,,,,,,,,,,,,
,,,,,,,,,,,,,,,89882,001,2022-04-29_13h53.36.703,SPAMnetsValid,2021.1.4,Win32,61.77033788,,,,,,,,,,,,,,,,,,,,,,,,,,,,,,,,,,,,,,,,,,,,,,,,,,,,,,,,,,,0,2,2,2,1,pillow,,,,,,,,,,,,,,,,,,,,,,,,,
,,,,,,,,,,,,,,,89882,001,2022-04-29_13h53.36.703,SPAMnetsValid,2021.1.4,Win32,61.77033788,,,,,,,,,,,,,,,,,,,,,,,,,,,,,,,,,,,,,,,,,,,,,,,,,,,,,,,,,,,,,,,,,cat,Animals,0,0,0,0,1,,,,,,,,,,,,,,,,,,
,,,,,,,,,,,,,,,89882,001,2022-04-29_13h53.36.703,SPAMnetsValid,2021.1.4,Win32,61.77033788,,,,,,,,,,,,,,,,,,,,,,,,,,,,,,,,,,,,,,,,,,,,,,,,,,,,,,,,,,,,,,,,,dog,Animals,1,0,1,0,1,,,,,,,,,,,,,,,,,,
,,,,,,,,,,,,,,,89882,001,2022-04-29_13h53.36.703,SPAMnetsValid,2021.1.4,Win32,61.77033788,,,,,,,,,,,,,,,,,,,,,,,,,,,,,,,,,,,,,,,,,,,,,,,,,,,,,,,,,,,,,,,,,parrot,Animals,2,0,2,0,1,,,,,,,,,,,,,,,,,,
,,,,,,,,,,,,,,,89882,001,2022-04-29_13h53.36.703,SPAMnetsValid,2021.1.4,Win32,61.77033788,,,,,,,,,,,,,,,,,,,,,,,,,,,,,,,,,,,,,,,,,,,,,,,,,,,,,,,,,,,,,,,,,hamster,Animals,3,0,3,0,1,,,,,,,,,,,,,,,,,,
,,,,,,,,,,,,,,,89882,001,2022-04-29_13h53.36.703,SPAMnetsValid,2021.1.4,Win32,61.77033788,,,,,,,,,,,,,,,,,,,,,,,,,,,,,,,,,,,,,,,,,,,,,,,,,,,,,,,,,,,,,,,,,cow,Animals,4,0,4,0,1,,,,,,,,,,,,,,,,,,
,,,,,,,,,,,,,,,89882,001,2022-04-29_13h53.36.703,SPAMnetsValid,2021.1.4,Win32,61.77033788,,,,,,,,,,,,,,,,,,,,,,,,,,,,,,,,,,,,,,,,,,,,,,,,,,,,,,,,,,,,,,,,,sheep,Animals,5,0,5,0,1,,,,,,,,,,,,,,,,,,
,,,,,,,,,,,,,,,89882,001,2022-04-29_13h53.36.703,SPAMnetsValid,2021.1.4,Win32,61.77033788,,,,,,,,,,,,,,,,,,,,,,,,,,,,,,,,,,,,,,,,,,,,,,,,,,,,,,,,,,,,,,,,,pig,Animals,6,0,6,0,1,,,,,,,,,,,,,,,,,,
,,,,,,,,,,,,,,,89882,001,2022-04-29_13h53.36.703,SPAMnetsValid,2021.1.4,Win32,61.77033788,,,,,,,,,,,,,,,,,,,,,,,,,,,,,,,,,,,,,,,,,,,,,,,,,,,,,,,,,,,,,,,,,bird,Animals,7,0,7,0,1,,,,,,,,,,,,,,,,,,
,,,,,,,,,,,,,,,89882,001,2022-04-29_13h53.36.703,SPAMnetsValid,2021.1.4,Win32,61.77033788,,,,,,,,,,,,,,,,,,,,,,,,,,,,,,,,,,,,,,,,,,,,,,,,,,,,,,,,,,,,,,,,,horse,Animals,8,0,8,0,1,,,,,,,,,,,,,,,,,,
,,,,,,,,,,,,,,,89882,001,2022-04-29_13h53.36.703,SPAMnetsValid,2021.1.4,Win32,61.77033788,,,,,,,,,,,,,,,,,,,,,,,,,,,,,,,,,,,,,,,,,,,,,,,,,,,,,,,,,,,,,,,,,snake,Animals,9,0,9,0,1,,,,,,,,,,,,,,,,,,
,,,,,,,,,,,,,,,89882,001,2022-04-29_13h53.36.703,SPAMnetsValid,2021.1.4,Win32,61.77033788,,,,,,,,,,,,,,,,,,,,,,,,,,,,,,,,,,,,,,,,,,,,,,,,,,,,,,,,,,,,,,,,,gerbil,Animals,10,0,10,0,1,,,,,,,,,,,,,,,,,,
,,,,,,,,,,,,,,,89882,001,2022-04-29_13h53.36.703,SPAMnetsValid,2021.1.4,Win32,61.77033788,,,,,,,,,,,,,,,,,,,,,,,,,,,,,,,,,,,,,,,,,,,,,,,,,,,,,,,,,,,,,,,,,lion,Animals,11,0,11,0,1,,,,,,,,,,,,,,,,,,
,,,,,,,,,,,,,,,89882,001,2022-04-29_13h53.36.703,SPAMnetsValid,2021.1.4,Win32,61.77033788,,,,,,,,,,,,,,,,,,,,,,,,,,,,,,,,,,,,,,,,,,,,,,,,,,,,,,,,,,,,,,,,,tiger,Animals,12,0,12,0,1,,,,,,,,,,,,,,,,,,
,,,,,,,,,,,,,,,89882,001,2022-04-29_13h53.36.703,SPAMnetsValid,2021.1.4,Win32,61.77033788,,,,,,,,,,,,,,,,,,,,,,,,,,,,,,,,,,,,,,,,,,,,,,,,,,,,,,,,,,,,,,,,,bear,Animals,13,0,13,0,1,,,,,,,,,,,,,,,,,,
,,,,,,,,,,,,,,,89882,001,2022-04-29_13h53.36.703,SPAMnetsValid,2021.1.4,Win32,61.77033788,,,,,,,,,,,,,,,,,,,,,,,,,,,,,,,,,,,,,,,,,,,,,,,,,,,,,,,,,,,,,,,,,axolotl,Animals,14,0,14,0,1,,,,,,,,,,,,,,,,,,
,,,,,,,,,,,,,,,89882,001,2022-04-29_13h53.36.703,SPAMnetsValid,2021.1.4,Win32,61.77033788,,,,,,,,,,,,,,,,,,,,,,,,,,,,,,,,,,,,,,,,,,,,,,,,,,,,,,,,,,,,,,,,,fish,Animals,15,0,15,0,1,,,,,,,,,,,,,,,,,,
,,,,,,,,,,,,,,,89882,001,2022-04-29_13h53.36.703,SPAMnetsValid,2021.1.4,Win32,61.77033788,,,,,,,,,,,,,,,,,,,,,,,,,,,,,,,,,,,,,,,,,,,,,,,,,,,,,,,,,,,,,,,,,whale,Animals,16,0,16,0,1,,,,,,,,,,,,,,,,,,
,,,,,,,,,,,,,,,89882,001,2022-04-29_13h53.36.703,SPAMnetsValid,2021.1.4,Win32,61.77033788,,,,,,,,,,,,,,,,,,,,,,,,,,,,,,,,,,,,,,,,,,,,,,,,,,,,,,,,,,,,,,,,,dolphin,Animals,17,0,17,0,1,,,,,,,,,,,,,,,,,,
,,,,,,,,,,,,,,,89882,001,2022-04-29_13h53.36.703,SPAMnetsValid,2021.1.4,Win32,61.77033788,,,,,,,,,,,,,,,,,,,,,,,,,,,,,,,,,,,,,,,,,,,,,,,,,,,,,,,,,,,,,,,,,orca,Animals,18,0,18,0,1,,,,,,,,,,,,,,,,,,
,,,,,,,,,,,,,,,89882,001,2022-04-29_13h53.36.703,SPAMnetsValid,2021.1.4,Win32,61.77033788,,,,,,,,,,,,,,,,,,,,,,,,,,,,,,,,,,,,,,,,,,,,,,,,,,,,,,,,,,,,,,,,,snail,Animals,19,0,19,0,1,,,,,,,,,,,,,,,,,,
,,,,,,,,,,,,,,,89882,001,2022-04-29_13h53.36.703,SPAMnetsValid,2021.1.4,Win32,61.77033788,,,,,,,,,,,,,,,,,,,,,,,,,,,,,,,,,,,,,,,,,,,,,,,,,,,,,,,,,,,,,,,,,rabbit,Animals,20,0,20,0,1,,,,,,,,,,,,,,,,,,
,,,,,,,,,,,,,,,89882,001,2022-04-29_13h53.36.703,SPAMnetsValid,2021.1.4,Win32,61.77033788,,,,,,,,,,,,,,,,,,,,,,,,,,,,,,,,,,,,,,,,,,,,,,,,,,,,,,,,,,,,,,,,,ferret,Animals,21,0,21,0,1,,,,,,,,,,,,,,,,,,
,,,,,,,,,,,,,,,89882,001,2022-04-29_13h53.36.703,SPAMnetsValid,2021.1.4,Win32,61.77033788,,,,,,,,,,,,,,,,,,,,,,,,,,,,,,,,,,,,,,,,,,,,,,,,,,,,,,,,,,,,,,,,,turtle,Animals,22,0,22,0,1,,,,,,,,,,,,,,,,,,
,,,,,,,,,,,,,,,89882,001,2022-04-29_13h53.36.703,SPAMnetsValid,2021.1.4,Win32,61.77033788,,,,,,,,,,,,,,,,,,,,,,,,,,,,,,,,,,,,,,,,,,,,,,,,,,,,,,,,,,,,,,,,,insect,Animals,23,0,23,0,1,,,,,,,,,,,,,,,,,,
,,,,,,,,,,,,,,,89882,001,2022-04-29_13h53.36.703,SPAMnetsValid,2021.1.4,Win32,61.77033788,,,,,,,,,,,,,,,,,,,,,,,,,,,,,,,,,,,,,,,,,,,,,,,,,,,,,,,,,,,,,,,,,cheetah,Animals,24,0,24,0,1,,,,,,,,,,,,,,,,,,
,,,,,,,,,,,,,,,89882,001,2022-04-29_13h53.36.703,SPAMnetsValid,2021.1.4,Win32,61.77033788,,,,,,,,,,,,,,,,,,,,,,,,,,,,,,,,,,,,,,,,,,,,,,,,,,,,,,,,,,,,,,,,,giraffe,Animals,25,0,25,0,1,,,,,,,,,,,,,,,,,,
,,,,,,,,,,,,,,,89882,001,2022-04-29_13h53.36.703,SPAMnetsValid,2021.1.4,Win32,61.77033788,,,,,,,,,,,,,,,,,,,,,,,,,,,,,,,,,,,,,,,,,,,,,,,,,,,,,,,,,,,,,,,,,crocodile,Animals,26,0,26,0,1,,,,,,,,,,,,,,,,,,
,,,,,,,,,,,,,,,89882,001,2022-04-29_13h53.36.703,SPAMnetsValid,2021.1.4,Win32,61.77033788,,,,,,,,,,,,,,,,,,,,,,,,,,,,,,,,,,,,,,,,,,,,,,,,,,,,,,,,,,,,,,,,,alligator ,Animals,27,0,27,0,1,,,,,,,,,,,,,,,,,,
,,,,,,,,,,,,,,,89882,001,2022-04-29_13h53.36.703,SPAMnetsValid,2021.1.4,Win32,61.77033788,,,,,,,,,,,,,,,,,,,,,,,,,,,,,,,,,,,,,,,,,,,,,,,,,,,,,,,,,,,,,,,,,hyena,Animals,28,0,28,0,1,,,,,,,,,,,,,,,,,,
,,,,,,,,,,,,,,,89882,001,2022-04-29_13h53.36.703,SPAMnetsValid,2021.1.4,Win32,61.77033788,,,,,,,,,,,,,,,,,,,,,,,,,,,,,,,,,,,,,,,,,,,,,,,,,,,,,,,,,,,,,,,,,gazelle,Animals,29,0,29,0,1,,,,,,,,,,,,,,,,,,
,,,,,,,,,,,,,,,89882,001,2022-04-29_13h53.36.703,SPAMnetsValid,2021.1.4,Win32,61.77033788,,,,,,,,,,,,,,,,,,,,,,,,,,,,,,,,,,,,,,,,,,,,,,,,,,,,,,,,,,,,,,,,,,,,,,,,0,0,0,0,1,Animals,,,,,,,,,,,,
,,,,,,,,,,,,,,,89882,001,2022-04-29_13h53.36.703,SPAMnetsValid,2021.1.4,Win32,61.77033788,,,,,,,,,,,,,,,,,,,,,,,,,,,,,,,,,,,,,,,,,,,,,,,,,,,,,,,,,,,,,,,,,,,,,,,,,,,,,,4,3.526,0,0,0,0,1,"I enjoy concentrating on a fantasy or daydream and exploring all its possibilities, letting it grow and develop.",0,1,,
,,,,,,,,,,,,,,,89882,001,2022-04-29_13h53.36.703,SPAMnetsValid,2021.1.4,Win32,61.77033788,,,,,,,,,,,,,,,,,,,,,,,,,,,,,,,,,,,,,,,,,,,,,,,,,,,,,,,,,,,,,,,,,,,,,,,,,,,,,,5,3.2131,0,1,1,1,1,I think it's interesting to learn and develop new hobbies.,0,2,,
,,,,,,,,,,,,,,,89882,001,2022-04-29_13h53.36.703,SPAMnetsValid,2021.1.4,Win32,61.77033788,,,,,,,,,,,,,,,,,,,,,,,,,,,,,,,,,,,,,,,,,,,,,,,,,,,,,,,,,,,,,,,,,,,,,,,,,,,,,,4,2.2845,0,2,2,2,1,I am intrigued by the patterns I find in art and nature.,0,3,,
,,,,,,,,,,,,,,,89882,001,2022-04-29_13h53.36.703,SPAMnetsValid,2021.1.4,Win32,61.77033788,,,,,,,,,,,,,,,,,,,,,,,,,,,,,,,,,,,,,,,,,,,,,,,,,,,,,,,,,,,,,,,,,,,,,,,,,,,,,,2,3.8567,0,3,3,3,1,I believe letting students hear controversial speakers can only confuse and mislead them.,1,4,,
,,,,,,,,,,,,,,,89882,001,2022-04-29_13h53.36.703,SPAMnetsValid,2021.1.4,Win32,61.77033788,,,,,,,,,,,,,,,,,,,,,,,,,,,,,,,,,,,,,,,,,,,,,,,,,,,,,,,,,,,,,,,,,,,,,,,,,,,,,,3,2.4883,0,4,4,4,1,Poetry has little or no effect on me.,1,5,,
,,,,,,,,,,,,,,,89882,001,2022-04-29_13h53.36.703,SPAMnetsValid,2021.1.4,Win32,61.77033788,,,,,,,,,,,,,,,,,,,,,,,,,,,,,,,,,,,,,,,,,,,,,,,,,,,,,,,,,,,,,,,,,,,,,,,,,,,,,,2,2.8171,0,5,5,5,1,I would have difficulty just letting my mind wander without control or guidance.,1,6,,
,,,,,,,,,,,,,,,89882,001,2022-04-29_13h53.36.703,SPAMnetsValid,2021.1.4,Win32,61.77033788,,,,,,,,,,,,,,,,,,,,,,,,,,,,,,,,,,,,,,,,,,,,,,,,,,,,,,,,,,,,,,,,,,,,,,,,,,,,,,2,3.4734,0,6,6,6,1,I seldom notice the moods or feelings that different environments produce.,1,7,,
,,,,,,,,,,,,,,,89882,001,2022-04-29_13h53.36.703,SPAMnetsValid,2021.1.4,Win32,61.77033788,,,,,,,,,,,,,,,,,,,,,,,,,,,,,,,,,,,,,,,,,,,,,,,,,,,,,,,,,,,,,,,,,,,,,,,,,,,,,,5,1.9516,0,7,7,7,1,I experience a wide range of emotions or feelings.,0,8,,
,,,,,,,,,,,,,,,89882,001,2022-04-29_13h53.36.703,SPAMnetsValid,2021.1.4,Win32,61.77033788,,,,,,,,,,,,,,,,,,,,,,,,,,,,,,,,,,,,,,,,,,,,,,,,,,,,,,,,,,,,,,,,,,,,,,,,,,,,,,4,2.5789,0,8,8,8,1,"Sometimes when I am reading poetry or looking at a work of art, I feel a chill or wave of excitement.",0,9,,
,,,,,,,,,,,,,,,89882,001,2022-04-29_13h53.36.703,SPAMnetsValid,2021.1.4,Win32,61.77033788,,,,,,,,,,,,,,,,,,,,,,,,,,,,,,,,,,,,,,,,,,,,,,,,,,,,,,,,,,,,,,,,,,,,,,,,,,,,,,1,3.8086,0,9,9,9,1,I have little interest in speculating on the nature of the universe or the human condition.,1,10,,
,,,,,,,,,,,,,,,89882,001,2022-04-29_13h53.36.703,SPAMnetsValid,2021.1.4,Win32,61.77033788,,,,,,,,,,,,,,,,,,,,,,,,,,,,,,,,,,,,,,,,,,,,,,,,,,,,,,,,,,,,,,,,,,,,,,,,,,,,,,4,1.9086,0,10,10,10,1,I have a lot of intellectual curiosity.,0,11,,
,,,,,,,,,,,,,,,89882,001,2022-04-29_13h53.36.703,SPAMnetsValid,2021.1.4,Win32,61.77033788,,,,,,,,,,,,,,,,,,,,,,,,,,,,,,,,,,,,,,,,,,,,,,,,,,,,,,,,,,,,,,,,,,,,,,,,,,,,,,4,2.0676,0,11,11,11,1,I often enjoy playing with theories or abstract ideas.,0,12,,
,,,,,,,,,,,,,,,89882,001,2022-04-29_13h53.36.703,SPAMnetsValid,2021.1.4,Win32,61.77033788,,,,,,,,,,,,,,,,,,,,,,,,,,,,,,,,,,,,,,,,,,,,,,,,,,,,,,,,,,,,,,,,,,,,,,,,,,,,,,,,,,,,,,,,return,9.81
