key_resp_3.keys,key_resp_3.rt,slider_2.response,slider_2.rt,rjt_rating,rjt_RT,trials_24.thisRepN,trials_24.thisTrialN,trials_24.thisN,trials_24.thisIndex,trials_24.ran,rjt_order,word1,word2,attention,participant,session,date,expName,psychopyVersion,OS,frameRate,trials_4.thisRepN,trials_4.thisTrialN,trials_4.thisN,trials_4.thisIndex,trials_4.ran,trials_5.thisRepN,trials_5.thisTrialN,trials_5.thisN,trials_5.thisIndex,trials_5.ran,repOne,repTwo,slider.response,slider.rt,trials_22.thisRepN,trials_22.thisTrialN,trials_22.thisN,trials_22.thisIndex,trials_22.ran,trials_99.thisRepN,trials_99.thisTrialN,trials_99.thisN,trials_99.thisIndex,trials_99.ran,slider_extend_2.response,slider_extend_2.rt,trials_6.thisRepN,trials_6.thisTrialN,trials_6.thisN,trials_6.thisIndex,trials_6.ran,vCue2,R1,R2,R3,R4,correct,sliderVocab.response,sliderVocab.rt,trials_7.thisRepN,trials_7.thisTrialN,trials_7.thisN,trials_7.thisIndex,trials_7.ran,VocabCue,VR1,VR2,VR3,VR4,VR5,VocabCorrect,AUT_resp,AUT_label,trials.thisRepN,trials.thisTrialN,trials.thisN,trials.thisIndex,trials.ran,trials_2.thisRepN,trials_2.thisTrialN,trials_2.thisN,trials_2.thisIndex,trials_2.ran,aut_prompt,VF_response,VF_tag,trials_16.thisRepN,trials_16.thisTrialN,trials_16.thisN,trials_16.thisIndex,trials_16.ran,trials_17.thisRepN,trials_17.thisTrialN,trials_17.thisN,trials_17.thisIndex,trials_17.ran,VFcond,open_slider.response,open_slider.rt,trials_3.thisRepN,trials_3.thisTrialN,trials_3.thisN,trials_3.thisIndex,trials_3.ran,OpenQ,Rev,OPEN_ORDER,key_resp_2.keys,key_resp_2.rt
return,6.2182,3,9.7863,3,9.7863,0,0,0,74,1,128,melon,microwave,,89927,001,2022-04-28_18h13.16.530,SPAMnetsValid,2021.1.4,MacIntel,60.0024001,,,,,,,,,,,,,,,,,,,,,,,,,,,,,,,,,,,,,,,,,,,,,,,,,,,,,,,,,,,,,,,,,,,,,,,,,,,,,,,,,,,,,,,,,
,,3,2.0266,3,2.0266,0,1,1,71,1,187,cactus,microwave,,89927,001,2022-04-28_18h13.16.530,SPAMnetsValid,2021.1.4,MacIntel,60.0024001,,,,,,,,,,,,,,,,,,,,,,,,,,,,,,,,,,,,,,,,,,,,,,,,,,,,,,,,,,,,,,,,,,,,,,,,,,,,,,,,,,,,,,,,,
,,7,3.2963,7,3.2963,0,2,2,39,1,112,cake,carrot,,89927,001,2022-04-28_18h13.16.530,SPAMnetsValid,2021.1.4,MacIntel,60.0024001,,,,,,,,,,,,,,,,,,,,,,,,,,,,,,,,,,,,,,,,,,,,,,,,,,,,,,,,,,,,,,,,,,,,,,,,,,,,,,,,,,,,,,,,,
,,2,1.9789,2,1.9789,0,3,3,67,1,96,oven,strawberry,,89927,001,2022-04-28_18h13.16.530,SPAMnetsValid,2021.1.4,MacIntel,60.0024001,,,,,,,,,,,,,,,,,,,,,,,,,,,,,,,,,,,,,,,,,,,,,,,,,,,,,,,,,,,,,,,,,,,,,,,,,,,,,,,,,,,,,,,,,
,,9,2.0956,9,2.0956,0,4,4,44,1,116,cake,chocolate,,89927,001,2022-04-28_18h13.16.530,SPAMnetsValid,2021.1.4,MacIntel,60.0024001,,,,,,,,,,,,,,,,,,,,,,,,,,,,,,,,,,,,,,,,,,,,,,,,,,,,,,,,,,,,,,,,,,,,,,,,,,,,,,,,,,,,,,,,,
,,5,3.9447,5,3.9447,0,5,5,40,1,165,onion,rose,,89927,001,2022-04-28_18h13.16.530,SPAMnetsValid,2021.1.4,MacIntel,60.0024001,,,,,,,,,,,,,,,,,,,,,,,,,,,,,,,,,,,,,,,,,,,,,,,,,,,,,,,,,,,,,,,,,,,,,,,,,,,,,,,,,,,,,,,,,
,,7,2.4965,7,2.4965,0,6,6,37,1,139,carrot,strawberry,,89927,001,2022-04-28_18h13.16.530,SPAMnetsValid,2021.1.4,MacIntel,60.0024001,,,,,,,,,,,,,,,,,,,,,,,,,,,,,,,,,,,,,,,,,,,,,,,,,,,,,,,,,,,,,,,,,,,,,,,,,,,,,,,,,,,,,,,,,
,,8,1.6156,8,1.6156,0,7,7,53,1,177,chocolate,strawberry,,89927,001,2022-04-28_18h13.16.530,SPAMnetsValid,2021.1.4,MacIntel,60.0024001,,,,,,,,,,,,,,,,,,,,,,,,,,,,,,,,,,,,,,,,,,,,,,,,,,,,,,,,,,,,,,,,,,,,,,,,,,,,,,,,,,,,,,,,,
,,2,1.7784,2,1.7784,0,8,8,16,1,111,carrot,microwave,,89927,001,2022-04-28_18h13.16.530,SPAMnetsValid,2021.1.4,MacIntel,60.0024001,,,,,,,,,,,,,,,,,,,,,,,,,,,,,,,,,,,,,,,,,,,,,,,,,,,,,,,,,,,,,,,,,,,,,,,,,,,,,,,,,,,,,,,,,
,,6,1.7278,6,1.7278,0,9,9,92,1,170,cookie,microwave,,89927,001,2022-04-28_18h13.16.530,SPAMnetsValid,2021.1.4,MacIntel,60.0024001,,,,,,,,,,,,,,,,,,,,,,,,,,,,,,,,,,,,,,,,,,,,,,,,,,,,,,,,,,,,,,,,,,,,,,,,,,,,,,,,,,,,,,,,,
,,5,3.06,5,3.06,0,10,10,45,1,179,broom,oven,,89927,001,2022-04-28_18h13.16.530,SPAMnetsValid,2021.1.4,MacIntel,60.0024001,,,,,,,,,,,,,,,,,,,,,,,,,,,,,,,,,,,,,,,,,,,,,,,,,,,,,,,,,,,,,,,,,,,,,,,,,,,,,,,,,,,,,,,,,
,,1,2.2618,1,2.2618,0,11,11,80,1,146,pretzel,tree,,89927,001,2022-04-28_18h13.16.530,SPAMnetsValid,2021.1.4,MacIntel,60.0024001,,,,,,,,,,,,,,,,,,,,,,,,,,,,,,,,,,,,,,,,,,,,,,,,,,,,,,,,,,,,,,,,,,,,,,,,,,,,,,,,,,,,,,,,,
,,4,2.1116,4,2.1116,0,12,12,41,1,175,melon,onion,,89927,001,2022-04-28_18h13.16.530,SPAMnetsValid,2021.1.4,MacIntel,60.0024001,,,,,,,,,,,,,,,,,,,,,,,,,,,,,,,,,,,,,,,,,,,,,,,,,,,,,,,,,,,,,,,,,,,,,,,,,,,,,,,,,,,,,,,,,
,,6,4.2464,6,4.2464,0,13,13,5,1,108,carrot,chocolate,,89927,001,2022-04-28_18h13.16.530,SPAMnetsValid,2021.1.4,MacIntel,60.0024001,,,,,,,,,,,,,,,,,,,,,,,,,,,,,,,,,,,,,,,,,,,,,,,,,,,,,,,,,,,,,,,,,,,,,,,,,,,,,,,,,,,,,,,,,
,,9,1.719,9,1.719,0,14,14,52,1,110,chocolate,cookie,,89927,001,2022-04-28_18h13.16.530,SPAMnetsValid,2021.1.4,MacIntel,60.0024001,,,,,,,,,,,,,,,,,,,,,,,,,,,,,,,,,,,,,,,,,,,,,,,,,,,,,,,,,,,,,,,,,,,,,,,,,,,,,,,,,,,,,,,,,
,,1,1.8947,1,1.8947,0,15,15,81,1,104,garden,microwave,,89927,001,2022-04-28_18h13.16.530,SPAMnetsValid,2021.1.4,MacIntel,60.0024001,,,,,,,,,,,,,,,,,,,,,,,,,,,,,,,,,,,,,,,,,,,,,,,,,,,,,,,,,,,,,,,,,,,,,,,,,,,,,,,,,,,,,,,,,
,,1,1.746,1,1.746,0,16,16,32,1,182,flower,refrigerator,,89927,001,2022-04-28_18h13.16.530,SPAMnetsValid,2021.1.4,MacIntel,60.0024001,,,,,,,,,,,,,,,,,,,,,,,,,,,,,,,,,,,,,,,,,,,,,,,,,,,,,,,,,,,,,,,,,,,,,,,,,,,,,,,,,,,,,,,,,
,,3,1.5614,3,1.5614,0,17,17,70,1,141,melon,tomato,,89927,001,2022-04-28_18h13.16.530,SPAMnetsValid,2021.1.4,MacIntel,60.0024001,,,,,,,,,,,,,,,,,,,,,,,,,,,,,,,,,,,,,,,,,,,,,,,,,,,,,,,,,,,,,,,,,,,,,,,,,,,,,,,,,,,,,,,,,
,,3,1.7617,3,1.7617,0,18,18,58,1,144,cake,garden,,89927,001,2022-04-28_18h13.16.530,SPAMnetsValid,2021.1.4,MacIntel,60.0024001,,,,,,,,,,,,,,,,,,,,,,,,,,,,,,,,,,,,,,,,,,,,,,,,,,,,,,,,,,,,,,,,,,,,,,,,,,,,,,,,,,,,,,,,,
,,7,2.0148,7,2.0148,0,19,19,56,1,113,refrigerator,strawberry,,89927,001,2022-04-28_18h13.16.530,SPAMnetsValid,2021.1.4,MacIntel,60.0024001,,,,,,,,,,,,,,,,,,,,,,,,,,,,,,,,,,,,,,,,,,,,,,,,,,,,,,,,,,,,,,,,,,,,,,,,,,,,,,,,,,,,,,,,,
,,7,1.4638,7,1.4638,0,20,20,73,1,135,carrot,oven,,89927,001,2022-04-28_18h13.16.530,SPAMnetsValid,2021.1.4,MacIntel,60.0024001,,,,,,,,,,,,,,,,,,,,,,,,,,,,,,,,,,,,,,,,,,,,,,,,,,,,,,,,,,,,,,,,,,,,,,,,,,,,,,,,,,,,,,,,,
,,7,2.3606,7,2.3606,0,21,21,10,1,118,chocolate,oven,,89927,001,2022-04-28_18h13.16.530,SPAMnetsValid,2021.1.4,MacIntel,60.0024001,,,,,,,,,,,,,,,,,,,,,,,,,,,,,,,,,,,,,,,,,,,,,,,,,,,,,,,,,,,,,,,,,,,,,,,,,,,,,,,,,,,,,,,,,
,,1,1.5127,1,1.5127,0,22,22,20,1,149,broom,tomato,,89927,001,2022-04-28_18h13.16.530,SPAMnetsValid,2021.1.4,MacIntel,60.0024001,,,,,,,,,,,,,,,,,,,,,,,,,,,,,,,,,,,,,,,,,,,,,,,,,,,,,,,,,,,,,,,,,,,,,,,,,,,,,,,,,,,,,,,,,
,,6,4.8289,6,4.8289,0,23,23,43,1,185,cactus,rose,,89927,001,2022-04-28_18h13.16.530,SPAMnetsValid,2021.1.4,MacIntel,60.0024001,,,,,,,,,,,,,,,,,,,,,,,,,,,,,,,,,,,,,,,,,,,,,,,,,,,,,,,,,,,,,,,,,,,,,,,,,,,,,,,,,,,,,,,,,
,,1,2.0789,1,2.0789,0,24,24,84,1,130,microwave,yogurt,,89927,001,2022-04-28_18h13.16.530,SPAMnetsValid,2021.1.4,MacIntel,60.0024001,,,,,,,,,,,,,,,,,,,,,,,,,,,,,,,,,,,,,,,,,,,,,,,,,,,,,,,,,,,,,,,,,,,,,,,,,,,,,,,,,,,,,,,,,
,,3,8.8793,3,8.8793,0,25,25,64,1,157,refrigerator,rose,,89927,001,2022-04-28_18h13.16.530,SPAMnetsValid,2021.1.4,MacIntel,60.0024001,,,,,,,,,,,,,,,,,,,,,,,,,,,,,,,,,,,,,,,,,,,,,,,,,,,,,,,,,,,,,,,,,,,,,,,,,,,,,,,,,,,,,,,,,
,,7,1.3807,7,1.3807,0,26,26,8,1,97,chocolate,kitchen,,89927,001,2022-04-28_18h13.16.530,SPAMnetsValid,2021.1.4,MacIntel,60.0024001,,,,,,,,,,,,,,,,,,,,,,,,,,,,,,,,,,,,,,,,,,,,,,,,,,,,,,,,,,,,,,,,,,,,,,,,,,,,,,,,,,,,,,,,,
,,9,2.4623,9,2.4623,0,27,27,47,1,167,carrot,garden,,89927,001,2022-04-28_18h13.16.530,SPAMnetsValid,2021.1.4,MacIntel,60.0024001,,,,,,,,,,,,,,,,,,,,,,,,,,,,,,,,,,,,,,,,,,,,,,,,,,,,,,,,,,,,,,,,,,,,,,,,,,,,,,,,,,,,,,,,,
,,7,1.577,7,1.577,0,28,28,0,1,106,cake,strawberry,,89927,001,2022-04-28_18h13.16.530,SPAMnetsValid,2021.1.4,MacIntel,60.0024001,,,,,,,,,,,,,,,,,,,,,,,,,,,,,,,,,,,,,,,,,,,,,,,,,,,,,,,,,,,,,,,,,,,,,,,,,,,,,,,,,,,,,,,,,
,,7,1.444,7,1.444,0,29,29,36,1,161,kitchen,pretzel,,89927,001,2022-04-28_18h13.16.530,SPAMnetsValid,2021.1.4,MacIntel,60.0024001,,,,,,,,,,,,,,,,,,,,,,,,,,,,,,,,,,,,,,,,,,,,,,,,,,,,,,,,,,,,,,,,,,,,,,,,,,,,,,,,,,,,,,,,,
,,1,1.7095,1,1.7095,0,30,30,63,1,137,microwave,tree,,89927,001,2022-04-28_18h13.16.530,SPAMnetsValid,2021.1.4,MacIntel,60.0024001,,,,,,,,,,,,,,,,,,,,,,,,,,,,,,,,,,,,,,,,,,,,,,,,,,,,,,,,,,,,,,,,,,,,,,,,,,,,,,,,,,,,,,,,,
,,5,2.0937,5,2.0937,0,31,31,91,1,166,cake,yogurt,,89927,001,2022-04-28_18h13.16.530,SPAMnetsValid,2021.1.4,MacIntel,60.0024001,,,,,,,,,,,,,,,,,,,,,,,,,,,,,,,,,,,,,,,,,,,,,,,,,,,,,,,,,,,,,,,,,,,,,,,,,,,,,,,,,,,,,,,,,
,,2,2.9251,2,2.9251,0,32,32,4,1,109,broom,strawberry,,89927,001,2022-04-28_18h13.16.530,SPAMnetsValid,2021.1.4,MacIntel,60.0024001,,,,,,,,,,,,,,,,,,,,,,,,,,,,,,,,,,,,,,,,,,,,,,,,,,,,,,,,,,,,,,,,,,,,,,,,,,,,,,,,,,,,,,,,,
,,7,8.7,7,8.7,0,33,33,93,1,134,carrot,flower,,89927,001,2022-04-28_18h13.16.530,SPAMnetsValid,2021.1.4,MacIntel,60.0024001,,,,,,,,,,,,,,,,,,,,,,,,,,,,,,,,,,,,,,,,,,,,,,,,,,,,,,,,,,,,,,,,,,,,,,,,,,,,,,,,,,,,,,,,,
,,9,1.7625,9,1.7625,0,34,34,66,1,150,microwave,refrigerator,,89927,001,2022-04-28_18h13.16.530,SPAMnetsValid,2021.1.4,MacIntel,60.0024001,,,,,,,,,,,,,,,,,,,,,,,,,,,,,,,,,,,,,,,,,,,,,,,,,,,,,,,,,,,,,,,,,,,,,,,,,,,,,,,,,,,,,,,,,
,,6,1.6747,6,1.6747,0,35,35,26,1,107,rose,tomato,,89927,001,2022-04-28_18h13.16.530,SPAMnetsValid,2021.1.4,MacIntel,60.0024001,,,,,,,,,,,,,,,,,,,,,,,,,,,,,,,,,,,,,,,,,,,,,,,,,,,,,,,,,,,,,,,,,,,,,,,,,,,,,,,,,,,,,,,,,
,,3,1.529,3,1.529,0,36,36,62,1,189,onion,tree,,89927,001,2022-04-28_18h13.16.530,SPAMnetsValid,2021.1.4,MacIntel,60.0024001,,,,,,,,,,,,,,,,,,,,,,,,,,,,,,,,,,,,,,,,,,,,,,,,,,,,,,,,,,,,,,,,,,,,,,,,,,,,,,,,,,,,,,,,,
,,1,1.796,1,1.796,0,37,37,50,1,126,kitchen,tree,,89927,001,2022-04-28_18h13.16.530,SPAMnetsValid,2021.1.4,MacIntel,60.0024001,,,,,,,,,,,,,,,,,,,,,,,,,,,,,,,,,,,,,,,,,,,,,,,,,,,,,,,,,,,,,,,,,,,,,,,,,,,,,,,,,,,,,,,,,
,,7,1.5122,7,1.5122,0,38,38,65,1,160,cookie,kitchen,,89927,001,2022-04-28_18h13.16.530,SPAMnetsValid,2021.1.4,MacIntel,60.0024001,,,,,,,,,,,,,,,,,,,,,,,,,,,,,,,,,,,,,,,,,,,,,,,,,,,,,,,,,,,,,,,,,,,,,,,,,,,,,,,,,,,,,,,,,
,,9,2.3958,9,2.3958,0,39,39,7,1,188,flower,tree,,89927,001,2022-04-28_18h13.16.530,SPAMnetsValid,2021.1.4,MacIntel,60.0024001,,,,,,,,,,,,,,,,,,,,,,,,,,,,,,,,,,,,,,,,,,,,,,,,,,,,,,,,,,,,,,,,,,,,,,,,,,,,,,,,,,,,,,,,,
,,9,1.6451,9,1.6451,0,40,40,28,1,154,strawberry,yogurt,,89927,001,2022-04-28_18h13.16.530,SPAMnetsValid,2021.1.4,MacIntel,60.0024001,,,,,,,,,,,,,,,,,,,,,,,,,,,,,,,,,,,,,,,,,,,,,,,,,,,,,,,,,,,,,,,,,,,,,,,,,,,,,,,,,,,,,,,,,
,,9,1.2599,9,1.2599,0,41,41,14,1,120,microwave,oven,,89927,001,2022-04-28_18h13.16.530,SPAMnetsValid,2021.1.4,MacIntel,60.0024001,,,,,,,,,,,,,,,,,,,,,,,,,,,,,,,,,,,,,,,,,,,,,,,,,,,,,,,,,,,,,,,,,,,,,,,,,,,,,,,,,,,,,,,,,
,,3,2.4448,3,2.4448,0,42,42,82,1,98,pretzel,strawberry,,89927,001,2022-04-28_18h13.16.530,SPAMnetsValid,2021.1.4,MacIntel,60.0024001,,,,,,,,,,,,,,,,,,,,,,,,,,,,,,,,,,,,,,,,,,,,,,,,,,,,,,,,,,,,,,,,,,,,,,,,,,,,,,,,,,,,,,,,,
,,9,1.494,9,1.494,0,43,43,27,1,158,cookie,oven,,89927,001,2022-04-28_18h13.16.530,SPAMnetsValid,2021.1.4,MacIntel,60.0024001,,,,,,,,,,,,,,,,,,,,,,,,,,,,,,,,,,,,,,,,,,,,,,,,,,,,,,,,,,,,,,,,,,,,,,,,,,,,,,,,,,,,,,,,,
,,1,1.6621,1,1.6621,0,44,44,59,1,164,cookie,garden,,89927,001,2022-04-28_18h13.16.530,SPAMnetsValid,2021.1.4,MacIntel,60.0024001,,,,,,,,,,,,,,,,,,,,,,,,,,,,,,,,,,,,,,,,,,,,,,,,,,,,,,,,,,,,,,,,,,,,,,,,,,,,,,,,,,,,,,,,,
,,7,1.5926,7,1.5926,0,45,45,48,1,186,kitchen,yogurt,,89927,001,2022-04-28_18h13.16.530,SPAMnetsValid,2021.1.4,MacIntel,60.0024001,,,,,,,,,,,,,,,,,,,,,,,,,,,,,,,,,,,,,,,,,,,,,,,,,,,,,,,,,,,,,,,,,,,,,,,,,,,,,,,,,,,,,,,,,
,,1,1.979,1,1.979,0,46,46,34,1,153,carrot,pretzel,,89927,001,2022-04-28_18h13.16.530,SPAMnetsValid,2021.1.4,MacIntel,60.0024001,,,,,,,,,,,,,,,,,,,,,,,,,,,,,,,,,,,,,,,,,,,,,,,,,,,,,,,,,,,,,,,,,,,,,,,,,,,,,,,,,,,,,,,,,
,,2,2.5951,2,2.5951,0,47,47,23,1,148,flower,melon,,89927,001,2022-04-28_18h13.16.530,SPAMnetsValid,2021.1.4,MacIntel,60.0024001,,,,,,,,,,,,,,,,,,,,,,,,,,,,,,,,,,,,,,,,,,,,,,,,,,,,,,,,,,,,,,,,,,,,,,,,,,,,,,,,,,,,,,,,,
,,2,1.3752,2,1.3752,0,48,48,2,1,174,cake,pretzel,,89927,001,2022-04-28_18h13.16.530,SPAMnetsValid,2021.1.4,MacIntel,60.0024001,,,,,,,,,,,,,,,,,,,,,,,,,,,,,,,,,,,,,,,,,,,,,,,,,,,,,,,,,,,,,,,,,,,,,,,,,,,,,,,,,,,,,,,,,
,,6,2.7271,6,2.7271,0,49,49,18,1,119,strawberry,tree,,89927,001,2022-04-28_18h13.16.530,SPAMnetsValid,2021.1.4,MacIntel,60.0024001,,,,,,,,,,,,,,,,,,,,,,,,,,,,,,,,,,,,,,,,,,,,,,,,,,,,,,,,,,,,,,,,,,,,,,,,,,,,,,,,,,,,,,,,,
,,4,1.5265,4,1.5265,0,50,50,31,1,156,melon,rose,,89927,001,2022-04-28_18h13.16.530,SPAMnetsValid,2021.1.4,MacIntel,60.0024001,,,,,,,,,,,,,,,,,,,,,,,,,,,,,,,,,,,,,,,,,,,,,,,,,,,,,,,,,,,,,,,,,,,,,,,,,,,,,,,,,,,,,,,,,
,,7,1.5072,7,1.5072,0,51,51,87,1,114,cookie,strawberry,,89927,001,2022-04-28_18h13.16.530,SPAMnetsValid,2021.1.4,MacIntel,60.0024001,,,,,,,,,,,,,,,,,,,,,,,,,,,,,,,,,,,,,,,,,,,,,,,,,,,,,,,,,,,,,,,,,,,,,,,,,,,,,,,,,,,,,,,,,
,,1,1.6436,1,1.6436,0,52,52,54,1,101,cactus,kitchen,,89927,001,2022-04-28_18h13.16.530,SPAMnetsValid,2021.1.4,MacIntel,60.0024001,,,,,,,,,,,,,,,,,,,,,,,,,,,,,,,,,,,,,,,,,,,,,,,,,,,,,,,,,,,,,,,,,,,,,,,,,,,,,,,,,,,,,,,,,
,,6,1.5455,6,1.5455,0,53,53,19,1,183,cake,rose,,89927,001,2022-04-28_18h13.16.530,SPAMnetsValid,2021.1.4,MacIntel,60.0024001,,,,,,,,,,,,,,,,,,,,,,,,,,,,,,,,,,,,,,,,,,,,,,,,,,,,,,,,,,,,,,,,,,,,,,,,,,,,,,,,,,,,,,,,,
,,1,1.7613,1,1.7613,0,54,54,6,1,151,microwave,onion,,89927,001,2022-04-28_18h13.16.530,SPAMnetsValid,2021.1.4,MacIntel,60.0024001,,,,,,,,,,,,,,,,,,,,,,,,,,,,,,,,,,,,,,,,,,,,,,,,,,,,,,,,,,,,,,,,,,,,,,,,,,,,,,,,,,,,,,,,,
,,7,1.6292,7,1.6292,0,55,55,96,1,136,chocolate,microwave,,89927,001,2022-04-28_18h13.16.530,SPAMnetsValid,2021.1.4,MacIntel,60.0024001,,,,,,,,,,,,,,,,,,,,,,,,,,,,,,,,,,,,,,,,,,,,,,,,,,,,,,,,,,,,,,,,,,,,,,,,,,,,,,,,,,,,,,,,,
,,7,1.5794,7,1.5794,0,56,56,38,1,155,carrot,cookie,,89927,001,2022-04-28_18h13.16.530,SPAMnetsValid,2021.1.4,MacIntel,60.0024001,,,,,,,,,,,,,,,,,,,,,,,,,,,,,,,,,,,,,,,,,,,,,,,,,,,,,,,,,,,,,,,,,,,,,,,,,,,,,,,,,,,,,,,,,
,,3,1.8323,3,1.8323,0,57,57,94,1,133,cake,flower,,89927,001,2022-04-28_18h13.16.530,SPAMnetsValid,2021.1.4,MacIntel,60.0024001,,,,,,,,,,,,,,,,,,,,,,,,,,,,,,,,,,,,,,,,,,,,,,,,,,,,,,,,,,,,,,,,,,,,,,,,,,,,,,,,,,,,,,,,,
,,6,1.6119,6,1.6119,0,58,58,89,1,140,cookie,refrigerator,,89927,001,2022-04-28_18h13.16.530,SPAMnetsValid,2021.1.4,MacIntel,60.0024001,,,,,,,,,,,,,,,,,,,,,,,,,,,,,,,,,,,,,,,,,,,,,,,,,,,,,,,,,,,,,,,,,,,,,,,,,,,,,,,,,,,,,,,,,
,,7,1.5601,7,1.5601,0,59,59,95,1,121,broom,microwave,,89927,001,2022-04-28_18h13.16.530,SPAMnetsValid,2021.1.4,MacIntel,60.0024001,,,,,,,,,,,,,,,,,,,,,,,,,,,,,,,,,,,,,,,,,,,,,,,,,,,,,,,,,,,,,,,,,,,,,,,,,,,,,,,,,,,,,,,,,
,,5,2.6288,5,2.6288,0,60,60,29,1,163,melon,refrigerator,,89927,001,2022-04-28_18h13.16.530,SPAMnetsValid,2021.1.4,MacIntel,60.0024001,,,,,,,,,,,,,,,,,,,,,,,,,,,,,,,,,,,,,,,,,,,,,,,,,,,,,,,,,,,,,,,,,,,,,,,,,,,,,,,,,,,,,,,,,
,,8,1.6945,8,1.6945,0,61,61,51,1,168,cactus,flower,,89927,001,2022-04-28_18h13.16.530,SPAMnetsValid,2021.1.4,MacIntel,60.0024001,,,,,,,,,,,,,,,,,,,,,,,,,,,,,,,,,,,,,,,,,,,,,,,,,,,,,,,,,,,,,,,,,,,,,,,,,,,,,,,,,,,,,,,,,
,,2,1.5654,2,1.5654,0,62,62,68,1,180,tree,yogurt,,89927,001,2022-04-28_18h13.16.530,SPAMnetsValid,2021.1.4,MacIntel,60.0024001,,,,,,,,,,,,,,,,,,,,,,,,,,,,,,,,,,,,,,,,,,,,,,,,,,,,,,,,,,,,,,,,,,,,,,,,,,,,,,,,,,,,,,,,,
,,9,1.694,9,1.694,0,63,63,22,1,142,garden,tree,,89927,001,2022-04-28_18h13.16.530,SPAMnetsValid,2021.1.4,MacIntel,60.0024001,,,,,,,,,,,,,,,,,,,,,,,,,,,,,,,,,,,,,,,,,,,,,,,,,,,,,,,,,,,,,,,,,,,,,,,,,,,,,,,,,,,,,,,,,
,,4,1.3933,4,1.3933,0,64,64,77,1,172,kitchen,melon,,89927,001,2022-04-28_18h13.16.530,SPAMnetsValid,2021.1.4,MacIntel,60.0024001,,,,,,,,,,,,,,,,,,,,,,,,,,,,,,,,,,,,,,,,,,,,,,,,,,,,,,,,,,,,,,,,,,,,,,,,,,,,,,,,,,,,,,,,,
,,6,1.2945,6,1.2945,0,65,65,35,1,147,cake,refrigerator,,89927,001,2022-04-28_18h13.16.530,SPAMnetsValid,2021.1.4,MacIntel,60.0024001,,,,,,,,,,,,,,,,,,,,,,,,,,,,,,,,,,,,,,,,,,,,,,,,,,,,,,,,,,,,,,,,,,,,,,,,,,,,,,,,,,,,,,,,,
,,8,4.3767,8,4.3767,0,66,66,72,1,181,carrot,kitchen,,89927,001,2022-04-28_18h13.16.530,SPAMnetsValid,2021.1.4,MacIntel,60.0024001,,,,,,,,,,,,,,,,,,,,,,,,,,,,,,,,,,,,,,,,,,,,,,,,,,,,,,,,,,,,,,,,,,,,,,,,,,,,,,,,,,,,,,,,,
,,5,3.3453,5,3.3453,0,67,67,9,1,176,cactus,tomato,,89927,001,2022-04-28_18h13.16.530,SPAMnetsValid,2021.1.4,MacIntel,60.0024001,,,,,,,,,,,,,,,,,,,,,,,,,,,,,,,,,,,,,,,,,,,,,,,,,,,,,,,,,,,,,,,,,,,,,,,,,,,,,,,,,,,,,,,,,
,,4,1.2439,4,1.2439,0,68,68,21,1,159,cookie,flower,,89927,001,2022-04-28_18h13.16.530,SPAMnetsValid,2021.1.4,MacIntel,60.0024001,,,,,,,,,,,,,,,,,,,,,,,,,,,,,,,,,,,,,,,,,,,,,,,,,,,,,,,,,,,,,,,,,,,,,,,,,,,,,,,,,,,,,,,,,
,,4,2.7676,4,2.7676,0,69,69,85,1,115,refrigerator,tomato,,89927,001,2022-04-28_18h13.16.530,SPAMnetsValid,2021.1.4,MacIntel,60.0024001,,,,,,,,,,,,,,,,,,,,,,,,,,,,,,,,,,,,,,,,,,,,,,,,,,,,,,,,,,,,,,,,,,,,,,,,,,,,,,,,,,,,,,,,,
,,1,2.1456,1,2.1456,0,70,70,88,1,171,cake,tomato,,89927,001,2022-04-28_18h13.16.530,SPAMnetsValid,2021.1.4,MacIntel,60.0024001,,,,,,,,,,,,,,,,,,,,,,,,,,,,,,,,,,,,,,,,,,,,,,,,,,,,,,,,,,,,,,,,,,,,,,,,,,,,,,,,,,,,,,,,,
,,1,1.8926,1,1.8926,0,71,71,12,1,162,microwave,tomato,,89927,001,2022-04-28_18h13.16.530,SPAMnetsValid,2021.1.4,MacIntel,60.0024001,,,,,,,,,,,,,,,,,,,,,,,,,,,,,,,,,,,,,,,,,,,,,,,,,,,,,,,,,,,,,,,,,,,,,,,,,,,,,,,,,,,,,,,,,
,,4,1.5293,4,1.5293,0,72,72,78,1,132,broom,tree,,89927,001,2022-04-28_18h13.16.530,SPAMnetsValid,2021.1.4,MacIntel,60.0024001,,,,,,,,,,,,,,,,,,,,,,,,,,,,,,,,,,,,,,,,,,,,,,,,,,,,,,,,,,,,,,,,,,,,,,,,,,,,,,,,,,,,,,,,,
,,1,2.6112,1,2.6112,0,73,73,15,1,145,cactus,yogurt,,89927,001,2022-04-28_18h13.16.530,SPAMnetsValid,2021.1.4,MacIntel,60.0024001,,,,,,,,,,,,,,,,,,,,,,,,,,,,,,,,,,,,,,,,,,,,,,,,,,,,,,,,,,,,,,,,,,,,,,,,,,,,,,,,,,,,,,,,,
,,7,1.526,7,1.526,0,74,74,11,1,117,melon,strawberry,,89927,001,2022-04-28_18h13.16.530,SPAMnetsValid,2021.1.4,MacIntel,60.0024001,,,,,,,,,,,,,,,,,,,,,,,,,,,,,,,,,,,,,,,,,,,,,,,,,,,,,,,,,,,,,,,,,,,,,,,,,,,,,,,,,,,,,,,,,
,,2,2.1649,2,2.1649,0,75,75,13,1,105,cactus,oven,,89927,001,2022-04-28_18h13.16.530,SPAMnetsValid,2021.1.4,MacIntel,60.0024001,,,,,,,,,,,,,,,,,,,,,,,,,,,,,,,,,,,,,,,,,,,,,,,,,,,,,,,,,,,,,,,,,,,,,,,,,,,,,,,,,,,,,,,,,
,,1,1.3462,1,1.3462,0,76,76,75,1,178,cactus,carrot,,89927,001,2022-04-28_18h13.16.530,SPAMnetsValid,2021.1.4,MacIntel,60.0024001,,,,,,,,,,,,,,,,,,,,,,,,,,,,,,,,,,,,,,,,,,,,,,,,,,,,,,,,,,,,,,,,,,,,,,,,,,,,,,,,,,,,,,,,,
,,9,2.2778,9,2.2778,0,77,77,86,1,193,melon,melon,CHECK,89927,001,2022-04-28_18h13.16.530,SPAMnetsValid,2021.1.4,MacIntel,60.0024001,,,,,,,,,,,,,,,,,,,,,,,,,,,,,,,,,,,,,,,,,,,,,,,,,,,,,,,,,,,,,,,,,,,,,,,,,,,,,,,,,,,,,,,,,
,,7,1.6448,7,1.6448,0,78,78,1,1,173,kitchen,tomato,,89927,001,2022-04-28_18h13.16.530,SPAMnetsValid,2021.1.4,MacIntel,60.0024001,,,,,,,,,,,,,,,,,,,,,,,,,,,,,,,,,,,,,,,,,,,,,,,,,,,,,,,,,,,,,,,,,,,,,,,,,,,,,,,,,,,,,,,,,
,,1,2.3457,1,2.3457,0,79,79,24,1,169,onion,yogurt,,89927,001,2022-04-28_18h13.16.530,SPAMnetsValid,2021.1.4,MacIntel,60.0024001,,,,,,,,,,,,,,,,,,,,,,,,,,,,,,,,,,,,,,,,,,,,,,,,,,,,,,,,,,,,,,,,,,,,,,,,,,,,,,,,,,,,,,,,,
,,9,1.4789,9,1.4789,0,80,80,25,1,194,cactus,cactus,CHECK,89927,001,2022-04-28_18h13.16.530,SPAMnetsValid,2021.1.4,MacIntel,60.0024001,,,,,,,,,,,,,,,,,,,,,,,,,,,,,,,,,,,,,,,,,,,,,,,,,,,,,,,,,,,,,,,,,,,,,,,,,,,,,,,,,,,,,,,,,
,,3,4.3116,3,4.3116,0,81,81,3,1,129,cactus,refrigerator,,89927,001,2022-04-28_18h13.16.530,SPAMnetsValid,2021.1.4,MacIntel,60.0024001,,,,,,,,,,,,,,,,,,,,,,,,,,,,,,,,,,,,,,,,,,,,,,,,,,,,,,,,,,,,,,,,,,,,,,,,,,,,,,,,,,,,,,,,,
,,2,1.5456,2,1.5456,0,82,82,55,1,143,pretzel,rose,,89927,001,2022-04-28_18h13.16.530,SPAMnetsValid,2021.1.4,MacIntel,60.0024001,,,,,,,,,,,,,,,,,,,,,,,,,,,,,,,,,,,,,,,,,,,,,,,,,,,,,,,,,,,,,,,,,,,,,,,,,,,,,,,,,,,,,,,,,
,,7,1.3109,7,1.3109,0,83,83,69,1,124,oven,refrigerator,,89927,001,2022-04-28_18h13.16.530,SPAMnetsValid,2021.1.4,MacIntel,60.0024001,,,,,,,,,,,,,,,,,,,,,,,,,,,,,,,,,,,,,,,,,,,,,,,,,,,,,,,,,,,,,,,,,,,,,,,,,,,,,,,,,,,,,,,,,
,,7,1.9778,7,1.9778,0,84,84,76,1,102,chocolate,refrigerator,,89927,001,2022-04-28_18h13.16.530,SPAMnetsValid,2021.1.4,MacIntel,60.0024001,,,,,,,,,,,,,,,,,,,,,,,,,,,,,,,,,,,,,,,,,,,,,,,,,,,,,,,,,,,,,,,,,,,,,,,,,,,,,,,,,,,,,,,,,
,,2,2.682,2,2.682,0,85,85,57,1,127,cactus,chocolate,,89927,001,2022-04-28_18h13.16.530,SPAMnetsValid,2021.1.4,MacIntel,60.0024001,,,,,,,,,,,,,,,,,,,,,,,,,,,,,,,,,,,,,,,,,,,,,,,,,,,,,,,,,,,,,,,,,,,,,,,,,,,,,,,,,,,,,,,,,
,,9,1.9271,9,1.9271,0,86,86,61,1,138,flower,rose,,89927,001,2022-04-28_18h13.16.530,SPAMnetsValid,2021.1.4,MacIntel,60.0024001,,,,,,,,,,,,,,,,,,,,,,,,,,,,,,,,,,,,,,,,,,,,,,,,,,,,,,,,,,,,,,,,,,,,,,,,,,,,,,,,,,,,,,,,,
,,8,3.9936,8,3.9936,0,87,87,33,1,131,cactus,garden,,89927,001,2022-04-28_18h13.16.530,SPAMnetsValid,2021.1.4,MacIntel,60.0024001,,,,,,,,,,,,,,,,,,,,,,,,,,,,,,,,,,,,,,,,,,,,,,,,,,,,,,,,,,,,,,,,,,,,,,,,,,,,,,,,,,,,,,,,,
,,3,1.6949,3,1.6949,0,88,88,90,1,190,microwave,strawberry,,89927,001,2022-04-28_18h13.16.530,SPAMnetsValid,2021.1.4,MacIntel,60.0024001,,,,,,,,,,,,,,,,,,,,,,,,,,,,,,,,,,,,,,,,,,,,,,,,,,,,,,,,,,,,,,,,,,,,,,,,,,,,,,,,,,,,,,,,,
,,3,4.4788,3,4.4788,0,89,89,46,1,123,cookie,tree,,89927,001,2022-04-28_18h13.16.530,SPAMnetsValid,2021.1.4,MacIntel,60.0024001,,,,,,,,,,,,,,,,,,,,,,,,,,,,,,,,,,,,,,,,,,,,,,,,,,,,,,,,,,,,,,,,,,,,,,,,,,,,,,,,,,,,,,,,,
,,7,1.5119,7,1.5119,0,90,90,17,1,99,garden,melon,,89927,001,2022-04-28_18h13.16.530,SPAMnetsValid,2021.1.4,MacIntel,60.0024001,,,,,,,,,,,,,,,,,,,,,,,,,,,,,,,,,,,,,,,,,,,,,,,,,,,,,,,,,,,,,,,,,,,,,,,,,,,,,,,,,,,,,,,,,
,,8,1.2267,8,1.2267,0,91,91,83,1,100,garden,tomato,,89927,001,2022-04-28_18h13.16.530,SPAMnetsValid,2021.1.4,MacIntel,60.0024001,,,,,,,,,,,,,,,,,,,,,,,,,,,,,,,,,,,,,,,,,,,,,,,,,,,,,,,,,,,,,,,,,,,,,,,,,,,,,,,,,,,,,,,,,
,,2,1.4593,2,1.4593,0,92,92,49,1,152,cactus,strawberry,,89927,001,2022-04-28_18h13.16.530,SPAMnetsValid,2021.1.4,MacIntel,60.0024001,,,,,,,,,,,,,,,,,,,,,,,,,,,,,,,,,,,,,,,,,,,,,,,,,,,,,,,,,,,,,,,,,,,,,,,,,,,,,,,,,,,,,,,,,
,,2,1.6112,2,1.6112,0,93,93,79,1,103,pretzel,tomato,,89927,001,2022-04-28_18h13.16.530,SPAMnetsValid,2021.1.4,MacIntel,60.0024001,,,,,,,,,,,,,,,,,,,,,,,,,,,,,,,,,,,,,,,,,,,,,,,,,,,,,,,,,,,,,,,,,,,,,,,,,,,,,,,,,,,,,,,,,
,,8,2.0614,8,2.0614,0,94,94,42,1,184,oven,pretzel,,89927,001,2022-04-28_18h13.16.530,SPAMnetsValid,2021.1.4,MacIntel,60.0024001,,,,,,,,,,,,,,,,,,,,,,,,,,,,,,,,,,,,,,,,,,,,,,,,,,,,,,,,,,,,,,,,,,,,,,,,,,,,,,,,,,,,,,,,,
,,9,1.5787,9,1.5787,0,95,95,60,1,122,flower,garden,,89927,001,2022-04-28_18h13.16.530,SPAMnetsValid,2021.1.4,MacIntel,60.0024001,,,,,,,,,,,,,,,,,,,,,,,,,,,,,,,,,,,,,,,,,,,,,,,,,,,,,,,,,,,,,,,,,,,,,,,,,,,,,,,,,,,,,,,,,
,,6,2.0766,6,2.0766,0,96,96,30,1,125,carrot,tree,,89927,001,2022-04-28_18h13.16.530,SPAMnetsValid,2021.1.4,MacIntel,60.0024001,,,,,,,,,,,,,,,,,,,,,,,,,,,,,,,,,,,,,,,,,,,,,,,,,,,,,,,,,,,,,,,,,,,,,,,,,,,,,,,,,,,,,,,,,
,,,,,,,,,,,,,,,89927,001,2022-04-28_18h13.16.530,SPAMnetsValid,2021.1.4,MacIntel,60.0024001,0,0,0,0,1,,,,,,,,,,,,,,,,,,,,,,,,,,,,,,,,,,,,,,,,,,,,,,,,,,,,,,,,,,,,,,,,,,,,,,,,,,,,,,,,,,,,
,,,,,,,,,,,,,,,89927,001,2022-04-28_18h13.16.530,SPAMnetsValid,2021.1.4,MacIntel,60.0024001,,,,,,0,0,0,1,1,0,1,,,,,,,,,,,,,,,,,,,,,,,,,,,,,,,,,,,,,,,,,,,,,,,,,,,,,,,,,,,,,,,,,,,,,,,,,,,,,
,,,,7,9.7956,,,,,,49,flower,strawberry,,89927,001,2022-04-28_18h13.16.530,SPAMnetsValid,2021.1.4,MacIntel,60.0024001,,,,,,,,,,,,,7,9.7956,0,0,0,3,1,,,,,,,,,,,,,,,,,,,,,,,,,,,,,,,,,,,,,,,,,,,,,,,,,,,,,,,,,,,,,,,,,,,,,,
,,,,9,1.7283,,,,,,3,cake,oven,,89927,001,2022-04-28_18h13.16.530,SPAMnetsValid,2021.1.4,MacIntel,60.0024001,,,,,,,,,,,,,9,1.7283,0,1,1,30,1,,,,,,,,,,,,,,,,,,,,,,,,,,,,,,,,,,,,,,,,,,,,,,,,,,,,,,,,,,,,,,,,,,,,,,
,,,,6,1.344,,,,,,17,carrot,melon,,89927,001,2022-04-28_18h13.16.530,SPAMnetsValid,2021.1.4,MacIntel,60.0024001,,,,,,,,,,,,,6,1.344,0,2,2,24,1,,,,,,,,,,,,,,,,,,,,,,,,,,,,,,,,,,,,,,,,,,,,,,,,,,,,,,,,,,,,,,,,,,,,,,
,,,,4,1.3947,,,,,,33,oven,yogurt,,89927,001,2022-04-28_18h13.16.530,SPAMnetsValid,2021.1.4,MacIntel,60.0024001,,,,,,,,,,,,,4,1.3947,0,3,3,31,1,,,,,,,,,,,,,,,,,,,,,,,,,,,,,,,,,,,,,,,,,,,,,,,,,,,,,,,,,,,,,,,,,,,,,,
,,,,6,1.6117,,,,,,95,broom,refrigerator,,89927,001,2022-04-28_18h13.16.530,SPAMnetsValid,2021.1.4,MacIntel,60.0024001,,,,,,,,,,,,,6,1.6117,0,4,4,90,1,,,,,,,,,,,,,,,,,,,,,,,,,,,,,,,,,,,,,,,,,,,,,,,,,,,,,,,,,,,,,,,,,,,,,,
,,,,3,1.6123,,,,,,12,cookie,yogurt,,89927,001,2022-04-28_18h13.16.530,SPAMnetsValid,2021.1.4,MacIntel,60.0024001,,,,,,,,,,,,,3,1.6123,0,5,5,36,1,,,,,,,,,,,,,,,,,,,,,,,,,,,,,,,,,,,,,,,,,,,,,,,,,,,,,,,,,,,,,,,,,,,,,,
,,,,8,1.478,,,,,,6,garden,onion,,89927,001,2022-04-28_18h13.16.530,SPAMnetsValid,2021.1.4,MacIntel,60.0024001,,,,,,,,,,,,,8,1.478,0,6,6,83,1,,,,,,,,,,,,,,,,,,,,,,,,,,,,,,,,,,,,,,,,,,,,,,,,,,,,,,,,,,,,,,,,,,,,,,
,,,,3,1.1663,,,,,,83,broom,carrot,,89927,001,2022-04-28_18h13.16.530,SPAMnetsValid,2021.1.4,MacIntel,60.0024001,,,,,,,,,,,,,3,1.1663,0,7,7,4,1,,,,,,,,,,,,,,,,,,,,,,,,,,,,,,,,,,,,,,,,,,,,,,,,,,,,,,,,,,,,,,,,,,,,,,
,,,,9,1.4293,,,,,,192,microwave,microwave,CHECK,89927,001,2022-04-28_18h13.16.530,SPAMnetsValid,2021.1.4,MacIntel,60.0024001,,,,,,,,,,,,,9,1.4293,0,8,8,53,1,,,,,,,,,,,,,,,,,,,,,,,,,,,,,,,,,,,,,,,,,,,,,,,,,,,,,,,,,,,,,,,,,,,,,,
,,,,9,1.4124,,,,,,94,kitchen,microwave,,89927,001,2022-04-28_18h13.16.530,SPAMnetsValid,2021.1.4,MacIntel,60.0024001,,,,,,,,,,,,,9,1.4124,0,9,9,58,1,,,,,,,,,,,,,,,,,,,,,,,,,,,,,,,,,,,,,,,,,,,,,,,,,,,,,,,,,,,,,,,,,,,,,,
,,,,8,1.9289,,,,,,79,garden,strawberry,,89927,001,2022-04-28_18h13.16.530,SPAMnetsValid,2021.1.4,MacIntel,60.0024001,,,,,,,,,,,,,8,1.9289,0,10,10,87,1,,,,,,,,,,,,,,,,,,,,,,,,,,,,,,,,,,,,,,,,,,,,,,,,,,,,,,,,,,,,,,,,,,,,,,
,,,,6,1.8197,,,,,,57,flower,kitchen,,89927,001,2022-04-28_18h13.16.530,SPAMnetsValid,2021.1.4,MacIntel,60.0024001,,,,,,,,,,,,,6,1.8197,0,11,11,49,1,,,,,,,,,,,,,,,,,,,,,,,,,,,,,,,,,,,,,,,,,,,,,,,,,,,,,,,,,,,,,,,,,,,,,,
,,,,8,1.7785,,,,,,93,kitchen,oven,,89927,001,2022-04-28_18h13.16.530,SPAMnetsValid,2021.1.4,MacIntel,60.0024001,,,,,,,,,,,,,8,1.7785,0,12,12,82,1,,,,,,,,,,,,,,,,,,,,,,,,,,,,,,,,,,,,,,,,,,,,,,,,,,,,,,,,,,,,,,,,,,,,,,
,,,,7,1.7292,,,,,,59,rose,strawberry,,89927,001,2022-04-28_18h13.16.530,SPAMnetsValid,2021.1.4,MacIntel,60.0024001,,,,,,,,,,,,,7,1.7292,0,13,13,72,1,,,,,,,,,,,,,,,,,,,,,,,,,,,,,,,,,,,,,,,,,,,,,,,,,,,,,,,,,,,,,,,,,,,,,,
,,,,2,1.8108,,,,,,80,chocolate,tree,,89927,001,2022-04-28_18h13.16.530,SPAMnetsValid,2021.1.4,MacIntel,60.0024001,,,,,,,,,,,,,2,1.8108,0,14,14,89,1,,,,,,,,,,,,,,,,,,,,,,,,,,,,,,,,,,,,,,,,,,,,,,,,,,,,,,,,,,,,,,,,,,,,,,
,,,,2,1.4119,,,,,,45,onion,pretzel,,89927,001,2022-04-28_18h13.16.530,SPAMnetsValid,2021.1.4,MacIntel,60.0024001,,,,,,,,,,,,,2,1.4119,0,15,15,69,1,,,,,,,,,,,,,,,,,,,,,,,,,,,,,,,,,,,,,,,,,,,,,,,,,,,,,,,,,,,,,,,,,,,,,,
,,,,2,2.1116,,,,,,90,cactus,cake,,89927,001,2022-04-28_18h13.16.530,SPAMnetsValid,2021.1.4,MacIntel,60.0024001,,,,,,,,,,,,,2,2.1116,0,16,16,85,1,,,,,,,,,,,,,,,,,,,,,,,,,,,,,,,,,,,,,,,,,,,,,,,,,,,,,,,,,,,,,,,,,,,,,,
,,,,2,1.0962,,,,,,38,pretzel,refrigerator,,89927,001,2022-04-28_18h13.16.530,SPAMnetsValid,2021.1.4,MacIntel,60.0024001,,,,,,,,,,,,,2,1.0962,0,17,17,71,1,,,,,,,,,,,,,,,,,,,,,,,,,,,,,,,,,,,,,,,,,,,,,,,,,,,,,,,,,,,,,,,,,,,,,,
,,,,2,1.3941,,,,,,81,pretzel,yogurt,,89927,001,2022-04-28_18h13.16.530,SPAMnetsValid,2021.1.4,MacIntel,60.0024001,,,,,,,,,,,,,2,1.3941,0,18,18,50,1,,,,,,,,,,,,,,,,,,,,,,,,,,,,,,,,,,,,,,,,,,,,,,,,,,,,,,,,,,,,,,,,,,,,,,
,,,,4,2.2121,,,,,,64,chocolate,garden,,89927,001,2022-04-28_18h13.16.530,SPAMnetsValid,2021.1.4,MacIntel,60.0024001,,,,,,,,,,,,,4,2.2121,0,19,19,14,1,,,,,,,,,,,,,,,,,,,,,,,,,,,,,,,,,,,,,,,,,,,,,,,,,,,,,,,,,,,,,,,,,,,,,,
,,,,7,1.6283,,,,,,2,kitchen,onion,,89927,001,2022-04-28_18h13.16.530,SPAMnetsValid,2021.1.4,MacIntel,60.0024001,,,,,,,,,,,,,7,1.6283,0,20,20,91,1,,,,,,,,,,,,,,,,,,,,,,,,,,,,,,,,,,,,,,,,,,,,,,,,,,,,,,,,,,,,,,,,,,,,,,
,,,,2,1.5447,,,,,,71,broom,rose,,89927,001,2022-04-28_18h13.16.530,SPAMnetsValid,2021.1.4,MacIntel,60.0024001,,,,,,,,,,,,,2,1.5447,0,21,21,61,1,,,,,,,,,,,,,,,,,,,,,,,,,,,,,,,,,,,,,,,,,,,,,,,,,,,,,,,,,,,,,,,,,,,,,,
,,,,2,1.844,,,,,,41,broom,cactus,,89927,001,2022-04-28_18h13.16.530,SPAMnetsValid,2021.1.4,MacIntel,60.0024001,,,,,,,,,,,,,2,1.844,0,22,22,46,1,,,,,,,,,,,,,,,,,,,,,,,,,,,,,,,,,,,,,,,,,,,,,,,,,,,,,,,,,,,,,,,,,,,,,,
,,,,1,1.7112,,,,,,43,chocolate,tomato,,89927,001,2022-04-28_18h13.16.530,SPAMnetsValid,2021.1.4,MacIntel,60.0024001,,,,,,,,,,,,,1,1.7112,0,23,23,8,1,,,,,,,,,,,,,,,,,,,,,,,,,,,,,,,,,,,,,,,,,,,,,,,,,,,,,,,,,,,,,,,,,,,,,,
,,,,1,2.1799,,,,,,46,garden,yogurt,,89927,001,2022-04-28_18h13.16.530,SPAMnetsValid,2021.1.4,MacIntel,60.0024001,,,,,,,,,,,,,1,2.1799,0,24,24,65,1,,,,,,,,,,,,,,,,,,,,,,,,,,,,,,,,,,,,,,,,,,,,,,,,,,,,,,,,,,,,,,,,,,,,,,
,,,,1,1.3481,,,,,,31,cactus,pretzel,,89927,001,2022-04-28_18h13.16.530,SPAMnetsValid,2021.1.4,MacIntel,60.0024001,,,,,,,,,,,,,1,1.3481,0,25,25,1,1,,,,,,,,,,,,,,,,,,,,,,,,,,,,,,,,,,,,,,,,,,,,,,,,,,,,,,,,,,,,,,,,,,,,,,
,,,,1,1.0111,,,,,,75,cookie,onion,,89927,001,2022-04-28_18h13.16.530,SPAMnetsValid,2021.1.4,MacIntel,60.0024001,,,,,,,,,,,,,1,1.0111,0,26,26,9,1,,,,,,,,,,,,,,,,,,,,,,,,,,,,,,,,,,,,,,,,,,,,,,,,,,,,,,,,,,,,,,,,,,,,,,
,,,,1,1.2142,,,,,,78,cookie,rose,,89927,001,2022-04-28_18h13.16.530,SPAMnetsValid,2021.1.4,MacIntel,60.0024001,,,,,,,,,,,,,1,1.2142,0,27,27,56,1,,,,,,,,,,,,,,,,,,,,,,,,,,,,,,,,,,,,,,,,,,,,,,,,,,,,,,,,,,,,,,,,,,,,,,
,,,,1,4.8926,,,,,,53,garden,pretzel,,89927,001,2022-04-28_18h13.16.530,SPAMnetsValid,2021.1.4,MacIntel,60.0024001,,,,,,,,,,,,,1,4.8926,0,28,28,0,1,,,,,,,,,,,,,,,,,,,,,,,,,,,,,,,,,,,,,,,,,,,,,,,,,,,,,,,,,,,,,,,,,,,,,,
,,,,1,2.4913,,,,,,24,cookie,tomato,,89927,001,2022-04-28_18h13.16.530,SPAMnetsValid,2021.1.4,MacIntel,60.0024001,,,,,,,,,,,,,1,2.4913,0,29,29,68,1,,,,,,,,,,,,,,,,,,,,,,,,,,,,,,,,,,,,,,,,,,,,,,,,,,,,,,,,,,,,,,,,,,,,,,
,,,,5,2.6115,,,,,,88,cactus,melon,,89927,001,2022-04-28_18h13.16.530,SPAMnetsValid,2021.1.4,MacIntel,60.0024001,,,,,,,,,,,,,5,2.6115,0,30,30,38,1,,,,,,,,,,,,,,,,,,,,,,,,,,,,,,,,,,,,,,,,,,,,,,,,,,,,,,,,,,,,,,,,,,,,,,
,,,,4,1.5614,,,,,,48,flower,oven,,89927,001,2022-04-28_18h13.16.530,SPAMnetsValid,2021.1.4,MacIntel,60.0024001,,,,,,,,,,,,,4,1.5614,0,31,31,15,1,,,,,,,,,,,,,,,,,,,,,,,,,,,,,,,,,,,,,,,,,,,,,,,,,,,,,,,,,,,,,,,,,,,,,,
,,,,3,1.6275,,,,,,5,oven,tree,,89927,001,2022-04-28_18h13.16.530,SPAMnetsValid,2021.1.4,MacIntel,60.0024001,,,,,,,,,,,,,3,1.6275,0,32,32,70,1,,,,,,,,,,,,,,,,,,,,,,,,,,,,,,,,,,,,,,,,,,,,,,,,,,,,,,,,,,,,,,,,,,,,,,
,,,,7,1.7949,,,,,,68,flower,tomato,,89927,001,2022-04-28_18h13.16.530,SPAMnetsValid,2021.1.4,MacIntel,60.0024001,,,,,,,,,,,,,7,1.7949,0,33,33,94,1,,,,,,,,,,,,,,,,,,,,,,,,,,,,,,,,,,,,,,,,,,,,,,,,,,,,,,,,,,,,,,,,,,,,,,
,,,,2,1.4795,,,,,,85,cake,tree,,89927,001,2022-04-28_18h13.16.530,SPAMnetsValid,2021.1.4,MacIntel,60.0024001,,,,,,,,,,,,,2,1.4795,0,34,34,18,1,,,,,,,,,,,,,,,,,,,,,,,,,,,,,,,,,,,,,,,,,,,,,,,,,,,,,,,,,,,,,,,,,,,,,,
,,,,1,1.6968,,,,,,21,cake,onion,,89927,001,2022-04-28_18h13.16.530,SPAMnetsValid,2021.1.4,MacIntel,60.0024001,,,,,,,,,,,,,1,1.6968,0,35,35,63,1,,,,,,,,,,,,,,,,,,,,,,,,,,,,,,,,,,,,,,,,,,,,,,,,,,,,,,,,,,,,,,,,,,,,,,
,,,,8,1.6106,,,,,,61,strawberry,tomato,,89927,001,2022-04-28_18h13.16.530,SPAMnetsValid,2021.1.4,MacIntel,60.0024001,,,,,,,,,,,,,8,1.6106,0,36,36,80,1,,,,,,,,,,,,,,,,,,,,,,,,,,,,,,,,,,,,,,,,,,,,,,,,,,,,,,,,,,,,,,,,,,,,,,
,,,,7,2.0952,,,,,,82,cake,kitchen,,89927,001,2022-04-28_18h13.16.530,SPAMnetsValid,2021.1.4,MacIntel,60.0024001,,,,,,,,,,,,,7,2.0952,0,37,37,96,1,,,,,,,,,,,,,,,,,,,,,,,,,,,,,,,,,,,,,,,,,,,,,,,,,,,,,,,,,,,,,,,,,,,,,,
,,,,3,1.6118,,,,,,39,melon,pretzel,,89927,001,2022-04-28_18h13.16.530,SPAMnetsValid,2021.1.4,MacIntel,60.0024001,,,,,,,,,,,,,3,1.6118,0,38,38,20,1,,,,,,,,,,,,,,,,,,,,,,,,,,,,,,,,,,,,,,,,,,,,,,,,,,,,,,,,,,,,,,,,,,,,,,
,,,,8,1.4269,,,,,,19,microwave,pretzel,,89927,001,2022-04-28_18h13.16.530,SPAMnetsValid,2021.1.4,MacIntel,60.0024001,,,,,,,,,,,,,8,1.4269,0,39,39,41,1,,,,,,,,,,,,,,,,,,,,,,,,,,,,,,,,,,,,,,,,,,,,,,,,,,,,,,,,,,,,,,,,,,,,,,
,,,,8,2.5296,,,,,,50,carrot,rose,,89927,001,2022-04-28_18h13.16.530,SPAMnetsValid,2021.1.4,MacIntel,60.0024001,,,,,,,,,,,,,8,2.5296,0,40,40,73,1,,,,,,,,,,,,,,,,,,,,,,,,,,,,,,,,,,,,,,,,,,,,,,,,,,,,,,,,,,,,,,,,,,,,,,
,,,,3,2.6129,,,,,,32,cake,microwave,,89927,001,2022-04-28_18h13.16.530,SPAMnetsValid,2021.1.4,MacIntel,60.0024001,,,,,,,,,,,,,3,2.6129,0,41,41,33,1,,,,,,,,,,,,,,,,,,,,,,,,,,,,,,,,,,,,,,,,,,,,,,,,,,,,,,,,,,,,,,,,,,,,,,
,,,,7,2.1308,,,,,,42,garden,kitchen,,89927,001,2022-04-28_18h13.16.530,SPAMnetsValid,2021.1.4,MacIntel,60.0024001,,,,,,,,,,,,,7,2.1308,0,42,42,29,1,,,,,,,,,,,,,,,,,,,,,,,,,,,,,,,,,,,,,,,,,,,,,,,,,,,,,,,,,,,,,,,,,,,,,,
,,,,3,1.4116,,,,,,13,broom,yogurt,,89927,001,2022-04-28_18h13.16.530,SPAMnetsValid,2021.1.4,MacIntel,60.0024001,,,,,,,,,,,,,3,1.4116,0,43,43,5,1,,,,,,,,,,,,,,,,,,,,,,,,,,,,,,,,,,,,,,,,,,,,,,,,,,,,,,,,,,,,,,,,,,,,,,
,,,,3,1.0118,,,,,,87,carrot,yogurt,,89927,001,2022-04-28_18h13.16.530,SPAMnetsValid,2021.1.4,MacIntel,60.0024001,,,,,,,,,,,,,3,1.0118,0,44,44,6,1,,,,,,,,,,,,,,,,,,,,,,,,,,,,,,,,,,,,,,,,,,,,,,,,,,,,,,,,,,,,,,,,,,,,,,
,,,,3,1.045,,,,,,74,broom,pretzel,,89927,001,2022-04-28_18h13.16.530,SPAMnetsValid,2021.1.4,MacIntel,60.0024001,,,,,,,,,,,,,3,1.045,0,45,45,40,1,,,,,,,,,,,,,,,,,,,,,,,,,,,,,,,,,,,,,,,,,,,,,,,,,,,,,,,,,,,,,,,,,,,,,,
,,,,7,1.7116,,,,,,89,chocolate,rose,,89927,001,2022-04-28_18h13.16.530,SPAMnetsValid,2021.1.4,MacIntel,60.0024001,,,,,,,,,,,,,7,1.7116,0,46,46,60,1,,,,,,,,,,,,,,,,,,,,,,,,,,,,,,,,,,,,,,,,,,,,,,,,,,,,,,,,,,,,,,,,,,,,,,
,,,,6,2.0787,,,,,,7,melon,tree,,89927,001,2022-04-28_18h13.16.530,SPAMnetsValid,2021.1.4,MacIntel,60.0024001,,,,,,,,,,,,,6,2.0787,0,47,47,77,1,,,,,,,,,,,,,,,,,,,,,,,,,,,,,,,,,,,,,,,,,,,,,,,,,,,,,,,,,,,,,,,,,,,,,,
,,,,4,3.0799,,,,,,15,onion,oven,,89927,001,2022-04-28_18h13.16.530,SPAMnetsValid,2021.1.4,MacIntel,60.0024001,,,,,,,,,,,,,4,3.0799,0,48,48,39,1,,,,,,,,,,,,,,,,,,,,,,,,,,,,,,,,,,,,,,,,,,,,,,,,,,,,,,,,,,,,,,,,,,,,,,
,,,,6,1.8982,,,,,,54,chocolate,yogurt,,89927,001,2022-04-28_18h13.16.530,SPAMnetsValid,2021.1.4,MacIntel,60.0024001,,,,,,,,,,,,,6,1.8982,0,49,49,67,1,,,,,,,,,,,,,,,,,,,,,,,,,,,,,,,,,,,,,,,,,,,,,,,,,,,,,,,,,,,,,,,,,,,,,,
,,,,6,2.3116,,,,,,16,chocolate,flower,,89927,001,2022-04-28_18h13.16.530,SPAMnetsValid,2021.1.4,MacIntel,60.0024001,,,,,,,,,,,,,6,2.3116,0,50,50,22,1,,,,,,,,,,,,,,,,,,,,,,,,,,,,,,,,,,,,,,,,,,,,,,,,,,,,,,,,,,,,,,,,,,,,,,
,,,,9,1.8122,,,,,,4,chocolate,pretzel,,89927,001,2022-04-28_18h13.16.530,SPAMnetsValid,2021.1.4,MacIntel,60.0024001,,,,,,,,,,,,,9,1.8122,0,51,51,52,1,,,,,,,,,,,,,,,,,,,,,,,,,,,,,,,,,,,,,,,,,,,,,,,,,,,,,,,,,,,,,,,,,,,,,,
,,,,7,2.1276,,,,,,1,rose,yogurt,,89927,001,2022-04-28_18h13.16.530,SPAMnetsValid,2021.1.4,MacIntel,60.0024001,,,,,,,,,,,,,7,2.1276,0,52,52,55,1,,,,,,,,,,,,,,,,,,,,,,,,,,,,,,,,,,,,,,,,,,,,,,,,,,,,,,,,,,,,,,,,,,,,,,
,,,,3,1.7126,,,,,,44,cookie,melon,,89927,001,2022-04-28_18h13.16.530,SPAMnetsValid,2021.1.4,MacIntel,60.0024001,,,,,,,,,,,,,3,1.7126,0,53,53,92,1,,,,,,,,,,,,,,,,,,,,,,,,,,,,,,,,,,,,,,,,,,,,,,,,,,,,,,,,,,,,,,,,,,,,,,
,,,,6,2.1502,,,,,,36,broom,kitchen,,89927,001,2022-04-28_18h13.16.530,SPAMnetsValid,2021.1.4,MacIntel,60.0024001,,,,,,,,,,,,,6,2.1502,0,54,54,76,1,,,,,,,,,,,,,,,,,,,,,,,,,,,,,,,,,,,,,,,,,,,,,,,,,,,,,,,,,,,,,,,,,,,,,,
,,,,1,1.6302,,,,,,40,broom,cake,,89927,001,2022-04-28_18h13.16.530,SPAMnetsValid,2021.1.4,MacIntel,60.0024001,,,,,,,,,,,,,1,1.6302,0,55,55,32,1,,,,,,,,,,,,,,,,,,,,,,,,,,,,,,,,,,,,,,,,,,,,,,,,,,,,,,,,,,,,,,,,,,,,,,
,,,,1,1.5798,,,,,,10,flower,onion,,89927,001,2022-04-28_18h13.16.530,SPAMnetsValid,2021.1.4,MacIntel,60.0024001,,,,,,,,,,,,,1,1.5798,0,56,56,45,1,,,,,,,,,,,,,,,,,,,,,,,,,,,,,,,,,,,,,,,,,,,,,,,,,,,,,,,,,,,,,,,,,,,,,,
,,,,9,2.3297,,,,,,76,garden,rose,,89927,001,2022-04-28_18h13.16.530,SPAMnetsValid,2021.1.4,MacIntel,60.0024001,,,,,,,,,,,,,9,2.3297,0,57,57,19,1,,,,,,,,,,,,,,,,,,,,,,,,,,,,,,,,,,,,,,,,,,,,,,,,,,,,,,,,,,,,,,,,,,,,,,
,,,,7,1.6301,,,,,,66,melon,yogurt,,89927,001,2022-04-28_18h13.16.530,SPAMnetsValid,2021.1.4,MacIntel,60.0024001,,,,,,,,,,,,,7,1.6301,0,58,58,48,1,,,,,,,,,,,,,,,,,,,,,,,,,,,,,,,,,,,,,,,,,,,,,,,,,,,,,,,,,,,,,,,,,,,,,,
,,,,6,2.9458,,,,,,30,cookie,pretzel,,89927,001,2022-04-28_18h13.16.530,SPAMnetsValid,2021.1.4,MacIntel,60.0024001,,,,,,,,,,,,,6,2.9458,0,59,59,78,1,,,,,,,,,,,,,,,,,,,,,,,,,,,,,,,,,,,,,,,,,,,,,,,,,,,,,,,,,,,,,,,,,,,,,,
,,,,9,2.0206,,,,,,77,refrigerator,yogurt,,89927,001,2022-04-28_18h13.16.530,SPAMnetsValid,2021.1.4,MacIntel,60.0024001,,,,,,,,,,,,,9,2.0206,0,60,60,42,1,,,,,,,,,,,,,,,,,,,,,,,,,,,,,,,,,,,,,,,,,,,,,,,,,,,,,,,,,,,,,,,,,,,,,,
,,,,3,2.3475,,,,,,26,tomato,yogurt,,89927,001,2022-04-28_18h13.16.530,SPAMnetsValid,2021.1.4,MacIntel,60.0024001,,,,,,,,,,,,,3,2.3475,0,61,61,13,1,,,,,,,,,,,,,,,,,,,,,,,,,,,,,,,,,,,,,,,,,,,,,,,,,,,,,,,,,,,,,,,,,,,,,,
,,,,2,1.8287,,,,,,65,broom,garden,,89927,001,2022-04-28_18h13.16.530,SPAMnetsValid,2021.1.4,MacIntel,60.0024001,,,,,,,,,,,,,2,1.8287,0,62,62,23,1,,,,,,,,,,,,,,,,,,,,,,,,,,,,,,,,,,,,,,,,,,,,,,,,,,,,,,,,,,,,,,,,,,,,,,
,,,,1,1.5618,,,,,,51,onion,strawberry,,89927,001,2022-04-28_18h13.16.530,SPAMnetsValid,2021.1.4,MacIntel,60.0024001,,,,,,,,,,,,,1,1.5618,0,63,63,86,1,,,,,,,,,,,,,,,,,,,,,,,,,,,,,,,,,,,,,,,,,,,,,,,,,,,,,,,,,,,,,,,,,,,,,,
,,,,9,1.6442,,,,,,191,cake,cake,CHECK,89927,001,2022-04-28_18h13.16.530,SPAMnetsValid,2021.1.4,MacIntel,60.0024001,,,,,,,,,,,,,9,1.6442,0,64,64,10,1,,,,,,,,,,,,,,,,,,,,,,,,,,,,,,,,,,,,,,,,,,,,,,,,,,,,,,,,,,,,,,,,,,,,,,
,,,,3,1.7814,,,,,,92,broom,flower,,89927,001,2022-04-28_18h13.16.530,SPAMnetsValid,2021.1.4,MacIntel,60.0024001,,,,,,,,,,,,,3,1.7814,0,65,65,88,1,,,,,,,,,,,,,,,,,,,,,,,,,,,,,,,,,,,,,,,,,,,,,,,,,,,,,,,,,,,,,,,,,,,,,,
,,,,5,2.9287,,,,,,67,flower,yogurt,,89927,001,2022-04-28_18h13.16.530,SPAMnetsValid,2021.1.4,MacIntel,60.0024001,,,,,,,,,,,,,5,2.9287,0,66,66,12,1,,,,,,,,,,,,,,,,,,,,,,,,,,,,,,,,,,,,,,,,,,,,,,,,,,,,,,,,,,,,,,,,,,,,,,
,,,,7,2.227,,,,,,56,cactus,tree,,89927,001,2022-04-28_18h13.16.530,SPAMnetsValid,2021.1.4,MacIntel,60.0024001,,,,,,,,,,,,,7,2.227,0,67,67,21,1,,,,,,,,,,,,,,,,,,,,,,,,,,,,,,,,,,,,,,,,,,,,,,,,,,,,,,,,,,,,,,,,,,,,,,
,,,,9,1.4964,,,,,,9,kitchen,refrigerator,,89927,001,2022-04-28_18h13.16.530,SPAMnetsValid,2021.1.4,MacIntel,60.0024001,,,,,,,,,,,,,9,1.4964,0,68,68,64,1,,,,,,,,,,,,,,,,,,,,,,,,,,,,,,,,,,,,,,,,,,,,,,,,,,,,,,,,,,,,,,,,,,,,,,
,,,,1,1.4964,,,,,,70,chocolate,onion,,89927,001,2022-04-28_18h13.16.530,SPAMnetsValid,2021.1.4,MacIntel,60.0024001,,,,,,,,,,,,,1,1.4964,0,69,69,74,1,,,,,,,,,,,,,,,,,,,,,,,,,,,,,,,,,,,,,,,,,,,,,,,,,,,,,,,,,,,,,,,,,,,,,,
,,,,8,2.4488,,,,,,20,rose,tree,,89927,001,2022-04-28_18h13.16.530,SPAMnetsValid,2021.1.4,MacIntel,60.0024001,,,,,,,,,,,,,8,2.4488,0,70,70,66,1,,,,,,,,,,,,,,,,,,,,,,,,,,,,,,,,,,,,,,,,,,,,,,,,,,,,,,,,,,,,,,,,,,,,,,
,,,,8,3.279,,,,,,25,carrot,onion,,89927,001,2022-04-28_18h13.16.530,SPAMnetsValid,2021.1.4,MacIntel,60.0024001,,,,,,,,,,,,,8,3.279,0,71,71,44,1,,,,,,,,,,,,,,,,,,,,,,,,,,,,,,,,,,,,,,,,,,,,,,,,,,,,,,,,,,,,,,,,,,,,,,
,,,,3,1.9787,,,,,,62,kitchen,rose,,89927,001,2022-04-28_18h13.16.530,SPAMnetsValid,2021.1.4,MacIntel,60.0024001,,,,,,,,,,,,,3,1.9787,0,72,72,57,1,,,,,,,,,,,,,,,,,,,,,,,,,,,,,,,,,,,,,,,,,,,,,,,,,,,,,,,,,,,,,,,,,,,,,,
,,,,1,1.4612,,,,,,86,oven,rose,,89927,001,2022-04-28_18h13.16.530,SPAMnetsValid,2021.1.4,MacIntel,60.0024001,,,,,,,,,,,,,1,1.4612,0,73,73,79,1,,,,,,,,,,,,,,,,,,,,,,,,,,,,,,,,,,,,,,,,,,,,,,,,,,,,,,,,,,,,,,,,,,,,,,
,,,,8,2.0456,,,,,,52,carrot,tomato,,89927,001,2022-04-28_18h13.16.530,SPAMnetsValid,2021.1.4,MacIntel,60.0024001,,,,,,,,,,,,,8,2.0456,0,74,74,95,1,,,,,,,,,,,,,,,,,,,,,,,,,,,,,,,,,,,,,,,,,,,,,,,,,,,,,,,,,,,,,,,,,,,,,,
,,,,1,1.8117,,,,,,8,broom,melon,,89927,001,2022-04-28_18h13.16.530,SPAMnetsValid,2021.1.4,MacIntel,60.0024001,,,,,,,,,,,,,1,1.8117,0,75,75,59,1,,,,,,,,,,,,,,,,,,,,,,,,,,,,,,,,,,,,,,,,,,,,,,,,,,,,,,,,,,,,,,,,,,,,,,
,,,,7,2.1812,,,,,,69,carrot,refrigerator,,89927,001,2022-04-28_18h13.16.530,SPAMnetsValid,2021.1.4,MacIntel,60.0024001,,,,,,,,,,,,,7,2.1812,0,76,76,75,1,,,,,,,,,,,,,,,,,,,,,,,,,,,,,,,,,,,,,,,,,,,,,,,,,,,,,,,,,,,,,,,,,,,,,,
,,,,7,1.313,,,,,,18,onion,refrigerator,,89927,001,2022-04-28_18h13.16.530,SPAMnetsValid,2021.1.4,MacIntel,60.0024001,,,,,,,,,,,,,7,1.313,0,77,77,62,1,,,,,,,,,,,,,,,,,,,,,,,,,,,,,,,,,,,,,,,,,,,,,,,,,,,,,,,,,,,,,,,,,,,,,,
,,,,4,2.0648,,,,,,84,oven,tomato,,89927,001,2022-04-28_18h13.16.530,SPAMnetsValid,2021.1.4,MacIntel,60.0024001,,,,,,,,,,,,,4,2.0648,0,78,78,28,1,,,,,,,,,,,,,,,,,,,,,,,,,,,,,,,,,,,,,,,,,,,,,,,,,,,,,,,,,,,,,,,,,,,,,,
,,,,7,2.4453,,,,,,55,tomato,tree,,89927,001,2022-04-28_18h13.16.530,SPAMnetsValid,2021.1.4,MacIntel,60.0024001,,,,,,,,,,,,,7,2.4453,0,79,79,35,1,,,,,,,,,,,,,,,,,,,,,,,,,,,,,,,,,,,,,,,,,,,,,,,,,,,,,,,,,,,,,,,,,,,,,,
,,,,1,1.4645,,,,,,73,broom,chocolate,,89927,001,2022-04-28_18h13.16.530,SPAMnetsValid,2021.1.4,MacIntel,60.0024001,,,,,,,,,,,,,1,1.4645,0,80,80,47,1,,,,,,,,,,,,,,,,,,,,,,,,,,,,,,,,,,,,,,,,,,,,,,,,,,,,,,,,,,,,,,,,,,,,,,
,,,,6,2.0777,,,,,,37,garden,refrigerator,,89927,001,2022-04-28_18h13.16.530,SPAMnetsValid,2021.1.4,MacIntel,60.0024001,,,,,,,,,,,,,6,2.0777,0,81,81,11,1,,,,,,,,,,,,,,,,,,,,,,,,,,,,,,,,,,,,,,,,,,,,,,,,,,,,,,,,,,,,,,,,,,,,,,
,,,,8,1.5778,,,,,,22,kitchen,strawberry,,89927,001,2022-04-28_18h13.16.530,SPAMnetsValid,2021.1.4,MacIntel,60.0024001,,,,,,,,,,,,,8,1.5778,0,82,82,2,1,,,,,,,,,,,,,,,,,,,,,,,,,,,,,,,,,,,,,,,,,,,,,,,,,,,,,,,,,,,,,,,,,,,,,,
,,,,1,1.4285,,,,,,27,cactus,cookie,,89927,001,2022-04-28_18h13.16.530,SPAMnetsValid,2021.1.4,MacIntel,60.0024001,,,,,,,,,,,,,1,1.4285,0,83,83,17,1,,,,,,,,,,,,,,,,,,,,,,,,,,,,,,,,,,,,,,,,,,,,,,,,,,,,,,,,,,,,,,,,,,,,,,
,,,,9,2.2276,,,,,,63,cake,cookie,,89927,001,2022-04-28_18h13.16.530,SPAMnetsValid,2021.1.4,MacIntel,60.0024001,,,,,,,,,,,,,9,2.2276,0,84,84,93,1,,,,,,,,,,,,,,,,,,,,,,,,,,,,,,,,,,,,,,,,,,,,,,,,,,,,,,,,,,,,,,,,,,,,,,
,,,,2,2.3008,,,,,,35,flower,pretzel,,89927,001,2022-04-28_18h13.16.530,SPAMnetsValid,2021.1.4,MacIntel,60.0024001,,,,,,,,,,,,,2,2.3008,0,85,85,26,1,,,,,,,,,,,,,,,,,,,,,,,,,,,,,,,,,,,,,,,,,,,,,,,,,,,,,,,,,,,,,,,,,,,,,,
,,,,2,2.0813,,,,,,34,melon,oven,,89927,001,2022-04-28_18h13.16.530,SPAMnetsValid,2021.1.4,MacIntel,60.0024001,,,,,,,,,,,,,2,2.0813,0,86,86,7,1,,,,,,,,,,,,,,,,,,,,,,,,,,,,,,,,,,,,,,,,,,,,,,,,,,,,,,,,,,,,,,,,,,,,,,
,,,,1,1.945,,,,,,11,refrigerator,tree,,89927,001,2022-04-28_18h13.16.530,SPAMnetsValid,2021.1.4,MacIntel,60.0024001,,,,,,,,,,,,,1,1.945,0,87,87,43,1,,,,,,,,,,,,,,,,,,,,,,,,,,,,,,,,,,,,,,,,,,,,,,,,,,,,,,,,,,,,,,,,,,,,,,
,,,,1,1.5938,,,,,,23,flower,microwave,,89927,001,2022-04-28_18h13.16.530,SPAMnetsValid,2021.1.4,MacIntel,60.0024001,,,,,,,,,,,,,1,1.5938,0,88,88,25,1,,,,,,,,,,,,,,,,,,,,,,,,,,,,,,,,,,,,,,,,,,,,,,,,,,,,,,,,,,,,,,,,,,,,,,
,,,,1,2.0122,,,,,,91,microwave,rose,,89927,001,2022-04-28_18h13.16.530,SPAMnetsValid,2021.1.4,MacIntel,60.0024001,,,,,,,,,,,,,1,2.0122,0,89,89,84,1,,,,,,,,,,,,,,,,,,,,,,,,,,,,,,,,,,,,,,,,,,,,,,,,,,,,,,,,,,,,,,,,,,,,,,
,,,,9,2.2127,,,,,,47,onion,tomato,,89927,001,2022-04-28_18h13.16.530,SPAMnetsValid,2021.1.4,MacIntel,60.0024001,,,,,,,,,,,,,9,2.2127,0,90,90,51,1,,,,,,,,,,,,,,,,,,,,,,,,,,,,,,,,,,,,,,,,,,,,,,,,,,,,,,,,,,,,,,,,,,,,,,
,,,,3,2.5965,,,,,,28,cake,melon,,89927,001,2022-04-28_18h13.16.530,SPAMnetsValid,2021.1.4,MacIntel,60.0024001,,,,,,,,,,,,,3,2.5965,0,91,91,54,1,,,,,,,,,,,,,,,,,,,,,,,,,,,,,,,,,,,,,,,,,,,,,,,,,,,,,,,,,,,,,,,,,,,,,,
,,,,1,2.5297,,,,,,14,broom,cookie,,89927,001,2022-04-28_18h13.16.530,SPAMnetsValid,2021.1.4,MacIntel,60.0024001,,,,,,,,,,,,,1,2.5297,0,92,92,16,1,,,,,,,,,,,,,,,,,,,,,,,,,,,,,,,,,,,,,,,,,,,,,,,,,,,,,,,,,,,,,,,,,,,,,,
,,,,1,1.1456,,,,,,72,broom,onion,,89927,001,2022-04-28_18h13.16.530,SPAMnetsValid,2021.1.4,MacIntel,60.0024001,,,,,,,,,,,,,1,1.1456,0,93,93,27,1,,,,,,,,,,,,,,,,,,,,,,,,,,,,,,,,,,,,,,,,,,,,,,,,,,,,,,,,,,,,,,,,,,,,,,
,,,,1,1.3817,,,,,,58,garden,oven,,89927,001,2022-04-28_18h13.16.530,SPAMnetsValid,2021.1.4,MacIntel,60.0024001,,,,,,,,,,,,,1,1.3817,0,94,94,37,1,,,,,,,,,,,,,,,,,,,,,,,,,,,,,,,,,,,,,,,,,,,,,,,,,,,,,,,,,,,,,,,,,,,,,,
,,,,4,1.8785,,,,,,60,cactus,onion,,89927,001,2022-04-28_18h13.16.530,SPAMnetsValid,2021.1.4,MacIntel,60.0024001,,,,,,,,,,,,,4,1.8785,0,95,95,81,1,,,,,,,,,,,,,,,,,,,,,,,,,,,,,,,,,,,,,,,,,,,,,,,,,,,,,,,,,,,,,,,,,,,,,,
,,,,1,1.5613,,,,,,29,chocolate,melon,,89927,001,2022-04-28_18h13.16.530,SPAMnetsValid,2021.1.4,MacIntel,60.0024001,,,,,,,,,,,,,1,1.5613,0,96,96,34,1,,,,,,,,,,,,,,,,,,,,,,,,,,,,,,,,,,,,,,,,,,,,,,,,,,,,,,,,,,,,,,,,,,,,,,
,,,,,,,,,,,,,,,89927,001,2022-04-28_18h13.16.530,SPAMnetsValid,2021.1.4,MacIntel,60.0024001,,,,,,,,,,,,,,,,,,,,0,0,0,0,1,,,,,,,,,,,,,,,,,,,,,,,,,,,,,,,,,,,,,,,,,,,,,,,,,,,,,,,,,,,,,,,,,
,,,,,,,,,,,,,,,89927,001,2022-04-28_18h13.16.530,SPAMnetsValid,2021.1.4,MacIntel,60.0024001,,,,,,0,1,1,0,1,1,0,,,,,,,,,,,,,,,,,,,,,,,,,,,,,,,,,,,,,,,,,,,,,,,,,,,,,,,,,,,,,,,,,,,,,,,,,,,,,
,,,,,,,,,,,,,,,89927,001,2022-04-28_18h13.16.530,SPAMnetsValid,2021.1.4,MacIntel,60.0024001,,,,,,,,,,,,,,,,,,,,,,,,,1,6.3826,0,0,0,0,1,rancor,forbearance,ridicule,malice,bravery,3,,,,,,,,,,,,,,,,,,,,,,,,,,,,,,,,,,,,,,,,,,,,,,,,,,,,
,,,,,,,,,,,,,,,89927,001,2022-04-28_18h13.16.530,SPAMnetsValid,2021.1.4,MacIntel,60.0024001,,,,,,,,,,,,,,,,,,,,,,,,,4,3.8152,0,1,1,1,1,raucous,empty,quiet,smooth,harsh,4,,,,,,,,,,,,,,,,,,,,,,,,,,,,,,,,,,,,,,,,,,,,,,,,,,,,
,,,,,,,,,,,,,,,89927,001,2022-04-28_18h13.16.530,SPAMnetsValid,2021.1.4,MacIntel,60.0024001,,,,,,,,,,,,,,,,,,,,,,,,,3,8.0127,0,2,2,2,1,gargoyle,oil,medicine,carved waterspout,ugly building,3,,,,,,,,,,,,,,,,,,,,,,,,,,,,,,,,,,,,,,,,,,,,,,,,,,,,
,,,,,,,,,,,,,,,89927,001,2022-04-28_18h13.16.530,SPAMnetsValid,2021.1.4,MacIntel,60.0024001,,,,,,,,,,,,,,,,,,,,,,,,,3,2.2452,0,3,3,3,1,recrudesce,purify,renew activity,lack refinement,crush,2,,,,,,,,,,,,,,,,,,,,,,,,,,,,,,,,,,,,,,,,,,,,,,,,,,,,
,,,,,,,,,,,,,,,89927,001,2022-04-28_18h13.16.530,SPAMnetsValid,2021.1.4,MacIntel,60.0024001,,,,,,,,,,,,,,,,,,,,,,,,,3,2.3338,0,4,4,4,1,specious,"plausible, but not genuine",noteworthy,class or variety,roomy,1,,,,,,,,,,,,,,,,,,,,,,,,,,,,,,,,,,,,,,,,,,,,,,,,,,,,
,,,,,,,,,,,,,,,89927,001,2022-04-28_18h13.16.530,SPAMnetsValid,2021.1.4,MacIntel,60.0024001,,,,,,,,,,,,,,,,,,,,,,,,,3,5.0636,0,5,5,5,1,bauble,bubble,showy plaything,idle talk,confusion,2,,,,,,,,,,,,,,,,,,,,,,,,,,,,,,,,,,,,,,,,,,,,,,,,,,,,
,,,,,,,,,,,,,,,89927,001,2022-04-28_18h13.16.530,SPAMnetsValid,2021.1.4,MacIntel,60.0024001,,,,,,,,,,,,,,,,,,,,,,,,,2,2.6274,0,6,6,6,1,prolific,scarce,producing abundantly,reckless,speaking profanely,2,,,,,,,,,,,,,,,,,,,,,,,,,,,,,,,,,,,,,,,,,,,,,,,,,,,,
,,,,,,,,,,,,,,,89927,001,2022-04-28_18h13.16.530,SPAMnetsValid,2021.1.4,MacIntel,60.0024001,,,,,,,,,,,,,,,,,,,,,,,,,2,4.9635,0,7,7,7,1,opulent,party,wealthy,happy frame of mind,semiprecious stone,2,,,,,,,,,,,,,,,,,,,,,,,,,,,,,,,,,,,,,,,,,,,,,,,,,,,,
,,,,,,,,,,,,,,,89927,001,2022-04-28_18h13.16.530,SPAMnetsValid,2021.1.4,MacIntel,60.0024001,,,,,,,,,,,,,,,,,,,,,,,,,4,6.2643,0,8,8,8,1,coercion,conspiracy,strategy,restraint,attraction,3,,,,,,,,,,,,,,,,,,,,,,,,,,,,,,,,,,,,,,,,,,,,,,,,,,,,
,,,,,,,,,,,,,,,89927,001,2022-04-28_18h13.16.530,SPAMnetsValid,2021.1.4,MacIntel,60.0024001,,,,,,,,,,,,,,,,,,,,,,,,,4,2.613,0,9,9,9,1,hiatus,animal,calamity,dread,gap,4,,,,,,,,,,,,,,,,,,,,,,,,,,,,,,,,,,,,,,,,,,,,,,,,,,,,
,,,,,,,,,,,,,,,89927,001,2022-04-28_18h13.16.530,SPAMnetsValid,2021.1.4,MacIntel,60.0024001,,,,,,,,,,,,,,,,,,,,,,,,,4,5.0818,0,10,10,10,1,germane,microbe,contagious,relevant,different,3,,,,,,,,,,,,,,,,,,,,,,,,,,,,,,,,,,,,,,,,,,,,,,,,,,,,
,,,,,,,,,,,,,,,89927,001,2022-04-28_18h13.16.530,SPAMnetsValid,2021.1.4,MacIntel,60.0024001,,,,,,,,,,,,,,,,,,,,,,,,,1,7.8971,0,11,11,11,1,perfunctory,fundamental,formal,superficial,careful,3,,,,,,,,,,,,,,,,,,,,,,,,,,,,,,,,,,,,,,,,,,,,,,,,,,,,
,,,,,,,,,,,,,,,89927,001,2022-04-28_18h13.16.530,SPAMnetsValid,2021.1.4,MacIntel,60.0024001,,,,,,,,,,,,,,,,,,,,,,,,,4,12.1331,0,12,12,12,1,diverge,reveal,chant,distract the attention of,differ or turn off from,4,,,,,,,,,,,,,,,,,,,,,,,,,,,,,,,,,,,,,,,,,,,,,,,,,,,,
,,,,,,,,,,,,,,,89927,001,2022-04-28_18h13.16.530,SPAMnetsValid,2021.1.4,MacIntel,60.0024001,,,,,,,,,,,,,,,,,,,,,,,,,4,3.3294,0,13,13,13,1,evoke,take away,anger,connect,bring out,4,,,,,,,,,,,,,,,,,,,,,,,,,,,,,,,,,,,,,,,,,,,,,,,,,,,,
,,,,,,,,,,,,,,,89927,001,2022-04-28_18h13.16.530,SPAMnetsValid,2021.1.4,MacIntel,60.0024001,,,,,,,,,,,,,,,,,,,,,,,,,4,3.6295,0,14,14,14,1,pertinent,relevant,lying next to,necessary,bold,1,,,,,,,,,,,,,,,,,,,,,,,,,,,,,,,,,,,,,,,,,,,,,,,,,,,,
,,,,,,,,,,,,,,,89927,001,2022-04-28_18h13.16.530,SPAMnetsValid,2021.1.4,MacIntel,60.0024001,,,,,,,,,,,,,,,,,,,,,,,,,2,5.0791,0,15,15,15,1,holocaust,entirety,destruction,saintly,price,2,,,,,,,,,,,,,,,,,,,,,,,,,,,,,,,,,,,,,,,,,,,,,,,,,,,,
,,,,,,,,,,,,,,,89927,001,2022-04-28_18h13.16.530,SPAMnetsValid,2021.1.4,MacIntel,60.0024001,,,,,,,,,,,,,,,,,,,,,,,,,1,6.0968,0,16,16,16,1,piquant,mellow,fish,pungent,cloth,3,,,,,,,,,,,,,,,,,,,,,,,,,,,,,,,,,,,,,,,,,,,,,,,,,,,,
,,,,,,,,,,,,,,,89927,001,2022-04-28_18h13.16.530,SPAMnetsValid,2021.1.4,MacIntel,60.0024001,,,,,,,,,,,,,,,,,,,,,,,,,3,7.7015,0,17,17,17,1,firmament,foundation,heavens,strong,glue,2,,,,,,,,,,,,,,,,,,,,,,,,,,,,,,,,,,,,,,,,,,,,,,,,,,,,
,,,,,,,,,,,,,,,89927,001,2022-04-28_18h13.16.530,SPAMnetsValid,2021.1.4,MacIntel,60.0024001,,,,,,,,,,,,,,,,,,,,,,,,,,,,,,,,,,,,,,4,4.0269,0,0,0,0,1,marketable,partisan,jocular,marriageable,salable,essential,4,,,,,,,,,,,,,,,,,,,,,,,,,,,,,,,,,,,,,,
,,,,,,,,,,,,,,,89927,001,2022-04-28_18h13.16.530,SPAMnetsValid,2021.1.4,MacIntel,60.0024001,,,,,,,,,,,,,,,,,,,,,,,,,,,,,,,,,,,,,,5,4.9949,0,1,1,1,1,cottontail,squirrel,poplar,boa,marshy plant,rabbit,5,,,,,,,,,,,,,,,,,,,,,,,,,,,,,,,,,,,,,,
,,,,,,,,,,,,,,,89927,001,2022-04-28_18h13.16.530,SPAMnetsValid,2021.1.4,MacIntel,60.0024001,,,,,,,,,,,,,,,,,,,,,,,,,,,,,,,,,,,,,,3,2.8129,0,2,2,2,1,boggy,afraid,false,marshy,dense,black,3,,,,,,,,,,,,,,,,,,,,,,,,,,,,,,,,,,,,,,
,,,,,,,,,,,,,,,89927,001,2022-04-28_18h13.16.530,SPAMnetsValid,2021.1.4,MacIntel,60.0024001,,,,,,,,,,,,,,,,,,,,,,,,,,,,,,,,,,,,,,5,4.4287,0,3,3,3,1,gruesomeness,blackness,falseness,vindictiveness,drunkenness,ghastliness,5,,,,,,,,,,,,,,,,,,,,,,,,,,,,,,,,,,,,,,
,,,,,,,,,,,,,,,89927,001,2022-04-28_18h13.16.530,SPAMnetsValid,2021.1.4,MacIntel,60.0024001,,,,,,,,,,,,,,,,,,,,,,,,,,,,,,,,,,,,,,3,4.6122,0,4,4,4,1,loathing,diffidence,laziness,abhorrence,cleverness,comfort,3,,,,,,,,,,,,,,,,,,,,,,,,,,,,,,,,,,,,,,
,,,,,,,,,,,,,,,89927,001,2022-04-28_18h13.16.530,SPAMnetsValid,2021.1.4,MacIntel,60.0024001,,,,,,,,,,,,,,,,,,,,,,,,,,,,,,,,,,,,,,2,5.5298,0,5,5,5,1,bantam,fowl,ridicule,cripple,vegetable,ensign,1,,,,,,,,,,,,,,,,,,,,,,,,,,,,,,,,,,,,,,
,,,,,,,,,,,,,,,89927,001,2022-04-28_18h13.16.530,SPAMnetsValid,2021.1.4,MacIntel,60.0024001,,,,,,,,,,,,,,,,,,,,,,,,,,,,,,,,,,,,,,5,2.8471,0,6,6,6,1,evoke,wake up,surrender,reconnoiter,transcend,call forth,5,,,,,,,,,,,,,,,,,,,,,,,,,,,,,,,,,,,,,,
,,,,,,,,,,,,,,,89927,001,2022-04-28_18h13.16.530,SPAMnetsValid,2021.1.4,MacIntel,60.0024001,,,,,,,,,,,,,,,,,,,,,,,,,,,,,,,,,,,,,,4,3.1939,0,7,7,7,1,unobtrusive,unintelligent,epileptic,illogical,lineal,modest,5,,,,,,,,,,,,,,,,,,,,,,,,,,,,,,,,,,,,,,
,,,,,,,,,,,,,,,89927,001,2022-04-28_18h13.16.530,SPAMnetsValid,2021.1.4,MacIntel,60.0024001,,,,,,,,,,,,,,,,,,,,,,,,,,,,,,,,,,,,,,4,3.7608,0,8,8,8,1,terrain,ice cream,final test,tractor,area of ground,weight,4,,,,,,,,,,,,,,,,,,,,,,,,,,,,,,,,,,,,,,
,,,,,,,,,,,,,,,89927,001,2022-04-28_18h13.16.530,SPAMnetsValid,2021.1.4,MacIntel,60.0024001,,,,,,,,,,,,,,,,,,,,,,,,,,,,,,,,,,,,,,3,6.7307,0,9,9,9,1,capriciousness,stubbornness,courage,whimsicality,amazement,greediness,3,,,,,,,,,,,,,,,,,,,,,,,,,,,,,,,,,,,,,,
,,,,,,,,,,,,,,,89927,001,2022-04-28_18h13.16.530,SPAMnetsValid,2021.1.4,MacIntel,60.0024001,,,,,,,,,,,,,,,,,,,,,,,,,,,,,,,,,,,,,,1,5.7321,0,10,10,10,1,maelstrom,slander,whirlpool,enmity,armor,majolica,2,,,,,,,,,,,,,,,,,,,,,,,,,,,,,,,,,,,,,,
,,,,,,,,,,,,,,,89927,001,2022-04-28_18h13.16.530,SPAMnetsValid,2021.1.4,MacIntel,60.0024001,,,,,,,,,,,,,,,,,,,,,,,,,,,,,,,,,,,,,,4,7.3005,0,11,11,11,1,tentative,critical,conclusive,authentic,provisional,apprehensive,4,,,,,,,,,,,,,,,,,,,,,,,,,,,,,,,,,,,,,,
,,,,,,,,,,,,,,,89927,001,2022-04-28_18h13.16.530,SPAMnetsValid,2021.1.4,MacIntel,60.0024001,,,,,,,,,,,,,,,,,,,,,,,,,,,,,,,,,,,,,,1,2.6617,0,12,12,12,1,placate,rehabilitate,plagiarize,depredate,apprise,conciliate,5,,,,,,,,,,,,,,,,,,,,,,,,,,,,,,,,,,,,,,
,,,,,,,,,,,,,,,89927,001,2022-04-28_18h13.16.530,SPAMnetsValid,2021.1.4,MacIntel,60.0024001,,,,,,,,,,,,,,,,,,,,,,,,,,,,,,,,,,,,,,5,4.3816,0,13,13,13,1,surcease,enlightenment,cessation,inattention,censor,substitution,2,,,,,,,,,,,,,,,,,,,,,,,,,,,,,,,,,,,,,,
,,,,,,,,,,,,,,,89927,001,2022-04-28_18h13.16.530,SPAMnetsValid,2021.1.4,MacIntel,60.0024001,,,,,,,,,,,,,,,,,,,,,,,,,,,,,,,,,,,,,,2,4.4465,0,14,14,14,1,apathetic,wandering,impassive,hateful,prophetic,overflowing,2,,,,,,,,,,,,,,,,,,,,,,,,,,,,,,,,,,,,,,
,,,,,,,,,,,,,,,89927,001,2022-04-28_18h13.16.530,SPAMnetsValid,2021.1.4,MacIntel,60.0024001,,,,,,,,,,,,,,,,,,,,,,,,,,,,,,,,,,,,,,1,7.5962,0,15,15,15,1,paternoster,paternalism,patricide,malediction,benediction,prayer,5,,,,,,,,,,,,,,,,,,,,,,,,,,,,,,,,,,,,,,
,,,,,,,,,,,,,,,89927,001,2022-04-28_18h13.16.530,SPAMnetsValid,2021.1.4,MacIntel,60.0024001,,,,,,,,,,,,,,,,,,,,,,,,,,,,,,,,,,,,,,2,6.9462,0,16,16,16,1,opalescence,opulence,senescence,bankruptcy,iridescence,assiduity,4,,,,,,,,,,,,,,,,,,,,,,,,,,,,,,,,,,,,,,
,,,,,,,,,,,,,,,89927,001,2022-04-28_18h13.16.530,SPAMnetsValid,2021.1.4,MacIntel,60.0024001,,,,,,,,,,,,,,,,,,,,,,,,,,,,,,,,,,,,,,2,25.413,0,17,17,17,1,lush,stupid,luxurious,hazy,putrid,languishing,2,,,,,,,,,,,,,,,,,,,,,,,,,,,,,,,,,,,,,,
,,,,,,,,,,,,,,,89927,001,2022-04-28_18h13.16.530,SPAMnetsValid,2021.1.4,MacIntel,60.0024001,,,,,,,,,,,,,,,,,,,,,,,,,,,,,,,,,,,,,,3,2.6144,0,18,18,18,1,curtailment,expenditure,abandonment,abridgment,improvement,forgery,3,,,,,,,,,,,,,,,,,,,,,,,,,,,,,,,,,,,,,,
,,,,,,,,,,,,,,,89927,001,2022-04-28_18h13.16.530,SPAMnetsValid,2021.1.4,MacIntel,60.0024001,,,,,,,,,,,,,,,,,,,,,,,,,,,,,,,,,,,,,,2,2.3807,0,19,19,19,1,perversity,adversity,perviousness,travesty,waywardness,gentility,4,,,,,,,,,,,,,,,,,,,,,,,,,,,,,,,,,,,,,,
,,,,,,,,,,,,,,,89927,001,2022-04-28_18h13.16.530,SPAMnetsValid,2021.1.4,MacIntel,60.0024001,,,,,,,,,,,,,,,,,,,,,,,,,,,,,,,,,,,,,,3,2.1776,0,20,20,20,1,calumnious,complimentary,analogous,slanderous,tempestuous,magnanimous,3,,,,,,,,,,,,,,,,,,,,,,,,,,,,,,,,,,,,,,
,,,,,,,,,,,,,,,89927,001,2022-04-28_18h13.16.530,SPAMnetsValid,2021.1.4,MacIntel,60.0024001,,,,,,,,,,,,,,,,,,,,,,,,,,,,,,,,,,,,,,3,3.5275,0,21,21,21,1,illiberality,bigotry,imbecility,illegibility,cautery,immaturity,1,,,,,,,,,,,,,,,,,,,,,,,,,,,,,,,,,,,,,,
,,,,,,,,,,,,,,,89927,001,2022-04-28_18h13.16.530,SPAMnetsValid,2021.1.4,MacIntel,60.0024001,,,,,,,,,,,,,,,,,,,,,,,,,,,,,,,,,,,,,,3,4.6293,0,22,22,22,1,clabber,rejoice,gossip,curdle,crow,hobble,3,,,,,,,,,,,,,,,,,,,,,,,,,,,,,,,,,,,,,,
,,,,,,,,,,,,,,,89927,001,2022-04-28_18h13.16.530,SPAMnetsValid,2021.1.4,MacIntel,60.0024001,,,,,,,,,,,,,,,,,,,,,,,,,,,,,,,,,,,,,,2,1.9128,0,23,23,23,1,sedulousness,diligence,credulousness,seduction,perilousness,frankness,1,,,,,,,,,,,,,,,,,,,,,,,,,,,,,,,,,,,,,,
,,,,,,,,,,,,,,,89927,001,2022-04-28_18h13.16.530,SPAMnetsValid,2021.1.4,MacIntel,60.0024001,,,,,,,,,,,,,,,,,,,,,,,,,,,,,,,,,,,,,,,,,,,,,,,,,,,,light,candle,0,0,0,0,1,,,,,,,,,,,,,,,,,,,,,,,,,,,,,,,
,,,,,,,,,,,,,,,89927,001,2022-04-28_18h13.16.530,SPAMnetsValid,2021.1.4,MacIntel,60.0024001,,,,,,,,,,,,,,,,,,,,,,,,,,,,,,,,,,,,,,,,,,,,,,,,,,,,vision,candle,1,0,1,0,1,,,,,,,,,,,,,,,,,,,,,,,,,,,,,,,
,,,,,,,,,,,,,,,89927,001,2022-04-28_18h13.16.530,SPAMnetsValid,2021.1.4,MacIntel,60.0024001,,,,,,,,,,,,,,,,,,,,,,,,,,,,,,,,,,,,,,,,,,,,,,,,,,,,to burn something,candle,2,0,2,0,1,,,,,,,,,,,,,,,,,,,,,,,,,,,,,,,
,,,,,,,,,,,,,,,89927,001,2022-04-28_18h13.16.530,SPAMnetsValid,2021.1.4,MacIntel,60.0024001,,,,,,,,,,,,,,,,,,,,,,,,,,,,,,,,,,,,,,,,,,,,,,,,,,,,warmth,candle,3,0,3,0,1,,,,,,,,,,,,,,,,,,,,,,,,,,,,,,,
,,,,,,,,,,,,,,,89927,001,2022-04-28_18h13.16.530,SPAMnetsValid,2021.1.4,MacIntel,60.0024001,,,,,,,,,,,,,,,,,,,,,,,,,,,,,,,,,,,,,,,,,,,,,,,,,,,,birthday,candle,4,0,4,0,1,,,,,,,,,,,,,,,,,,,,,,,,,,,,,,,
,,,,,,,,,,,,,,,89927,001,2022-04-28_18h13.16.530,SPAMnetsValid,2021.1.4,MacIntel,60.0024001,,,,,,,,,,,,,,,,,,,,,,,,,,,,,,,,,,,,,,,,,,,,,,,,,,,,good scent,candle,5,0,5,0,1,,,,,,,,,,,,,,,,,,,,,,,,,,,,,,,
,,,,,,,,,,,,,,,89927,001,2022-04-28_18h13.16.530,SPAMnetsValid,2021.1.4,MacIntel,60.0024001,,,,,,,,,,,,,,,,,,,,,,,,,,,,,,,,,,,,,,,,,,,,,,,,,,,,ceremonies,candle,6,0,6,0,1,,,,,,,,,,,,,,,,,,,,,,,,,,,,,,,
,,,,,,,,,,,,,,,89927,001,2022-04-28_18h13.16.530,SPAMnetsValid,2021.1.4,MacIntel,60.0024001,,,,,,,,,,,,,,,,,,,,,,,,,,,,,,,,,,,,,,,,,,,,,,,,,,,,celebration,candle,7,0,7,0,1,,,,,,,,,,,,,,,,,,,,,,,,,,,,,,,
,,,,,,,,,,,,,,,89927,001,2022-04-28_18h13.16.530,SPAMnetsValid,2021.1.4,MacIntel,60.0024001,,,,,,,,,,,,,,,,,,,,,,,,,,,,,,,,,,,,,,,,,,,,,,,,,,,,light show,candle,8,0,8,0,1,,,,,,,,,,,,,,,,,,,,,,,,,,,,,,,
,,,,,,,,,,,,,,,89927,001,2022-04-28_18h13.16.530,SPAMnetsValid,2021.1.4,MacIntel,60.0024001,,,,,,,,,,,,,,,,,,,,,,,,,,,,,,,,,,,,,,,,,,,,,,,,,,,,,,,,,,,0,0,0,1,1,candle,,,,,,,,,,,,,,,,,,,,,,,,,
,,,,,,,,,,,,,,,89927,001,2022-04-28_18h13.16.530,SPAMnetsValid,2021.1.4,MacIntel,60.0024001,,,,,,,,,,,,,,,,,,,,,,,,,,,,,,,,,,,,,,,,,,,,,,,,,,,,water,bucket,0,0,0,0,1,,,,,,,,,,,,,,,,,,,,,,,,,,,,,,,
,,,,,,,,,,,,,,,89927,001,2022-04-28_18h13.16.530,SPAMnetsValid,2021.1.4,MacIntel,60.0024001,,,,,,,,,,,,,,,,,,,,,,,,,,,,,,,,,,,,,,,,,,,,,,,,,,,,hat,bucket,1,0,1,0,1,,,,,,,,,,,,,,,,,,,,,,,,,,,,,,,
,,,,,,,,,,,,,,,89927,001,2022-04-28_18h13.16.530,SPAMnetsValid,2021.1.4,MacIntel,60.0024001,,,,,,,,,,,,,,,,,,,,,,,,,,,,,,,,,,,,,,,,,,,,,,,,,,,,carry things,bucket,2,0,2,0,1,,,,,,,,,,,,,,,,,,,,,,,,,,,,,,,
,,,,,,,,,,,,,,,89927,001,2022-04-28_18h13.16.530,SPAMnetsValid,2021.1.4,MacIntel,60.0024001,,,,,,,,,,,,,,,,,,,,,,,,,,,,,,,,,,,,,,,,,,,,,,,,,,,,stool,bucket,3,0,3,0,1,,,,,,,,,,,,,,,,,,,,,,,,,,,,,,,
,,,,,,,,,,,,,,,89927,001,2022-04-28_18h13.16.530,SPAMnetsValid,2021.1.4,MacIntel,60.0024001,,,,,,,,,,,,,,,,,,,,,,,,,,,,,,,,,,,,,,,,,,,,,,,,,,,,bathroom,bucket,4,0,4,0,1,,,,,,,,,,,,,,,,,,,,,,,,,,,,,,,
,,,,,,,,,,,,,,,89927,001,2022-04-28_18h13.16.530,SPAMnetsValid,2021.1.4,MacIntel,60.0024001,,,,,,,,,,,,,,,,,,,,,,,,,,,,,,,,,,,,,,,,,,,,,,,,,,,,art project,bucket,5,0,5,0,1,,,,,,,,,,,,,,,,,,,,,,,,,,,,,,,
,,,,,,,,,,,,,,,89927,001,2022-04-28_18h13.16.530,SPAMnetsValid,2021.1.4,MacIntel,60.0024001,,,,,,,,,,,,,,,,,,,,,,,,,,,,,,,,,,,,,,,,,,,,,,,,,,,,liquid,bucket,6,0,6,0,1,,,,,,,,,,,,,,,,,,,,,,,,,,,,,,,
,,,,,,,,,,,,,,,89927,001,2022-04-28_18h13.16.530,SPAMnetsValid,2021.1.4,MacIntel,60.0024001,,,,,,,,,,,,,,,,,,,,,,,,,,,,,,,,,,,,,,,,,,,,,,,,,,,,car wash,bucket,7,0,7,0,1,,,,,,,,,,,,,,,,,,,,,,,,,,,,,,,
,,,,,,,,,,,,,,,89927,001,2022-04-28_18h13.16.530,SPAMnetsValid,2021.1.4,MacIntel,60.0024001,,,,,,,,,,,,,,,,,,,,,,,,,,,,,,,,,,,,,,,,,,,,,,,,,,,,to fill something,bucket,8,0,8,0,1,,,,,,,,,,,,,,,,,,,,,,,,,,,,,,,
,,,,,,,,,,,,,,,89927,001,2022-04-28_18h13.16.530,SPAMnetsValid,2021.1.4,MacIntel,60.0024001,,,,,,,,,,,,,,,,,,,,,,,,,,,,,,,,,,,,,,,,,,,,,,,,,,,,sand castle,bucket,9,0,9,0,1,,,,,,,,,,,,,,,,,,,,,,,,,,,,,,,
,,,,,,,,,,,,,,,89927,001,2022-04-28_18h13.16.530,SPAMnetsValid,2021.1.4,MacIntel,60.0024001,,,,,,,,,,,,,,,,,,,,,,,,,,,,,,,,,,,,,,,,,,,,,,,,,,,,getting sick,bucket,10,0,10,0,1,,,,,,,,,,,,,,,,,,,,,,,,,,,,,,,
,,,,,,,,,,,,,,,89927,001,2022-04-28_18h13.16.530,SPAMnetsValid,2021.1.4,MacIntel,60.0024001,,,,,,,,,,,,,,,,,,,,,,,,,,,,,,,,,,,,,,,,,,,,,,,,,,,,catching things,bucket,11,0,11,0,1,,,,,,,,,,,,,,,,,,,,,,,,,,,,,,,
,,,,,,,,,,,,,,,89927,001,2022-04-28_18h13.16.530,SPAMnetsValid,2021.1.4,MacIntel,60.0024001,,,,,,,,,,,,,,,,,,,,,,,,,,,,,,,,,,,,,,,,,,,,,,,,,,,,holder,bucket,12,0,12,0,1,,,,,,,,,,,,,,,,,,,,,,,,,,,,,,,
,,,,,,,,,,,,,,,89927,001,2022-04-28_18h13.16.530,SPAMnetsValid,2021.1.4,MacIntel,60.0024001,,,,,,,,,,,,,,,,,,,,,,,,,,,,,,,,,,,,,,,,,,,,,,,,,,,,robot costume,bucket,13,0,13,0,1,,,,,,,,,,,,,,,,,,,,,,,,,,,,,,,
,,,,,,,,,,,,,,,89927,001,2022-04-28_18h13.16.530,SPAMnetsValid,2021.1.4,MacIntel,60.0024001,,,,,,,,,,,,,,,,,,,,,,,,,,,,,,,,,,,,,,,,,,,,,,,,,,,,halloween costune,bucket,14,0,14,0,1,,,,,,,,,,,,,,,,,,,,,,,,,,,,,,,
,,,,,,,,,,,,,,,89927,001,2022-04-28_18h13.16.530,SPAMnetsValid,2021.1.4,MacIntel,60.0024001,,,,,,,,,,,,,,,,,,,,,,,,,,,,,,,,,,,,,,,,,,,,,,,,,,,,,,,,,,,0,1,1,0,1,bucket,,,,,,,,,,,,,,,,,,,,,,,,,
,,,,,,,,,,,,,,,89927,001,2022-04-28_18h13.16.530,SPAMnetsValid,2021.1.4,MacIntel,60.0024001,,,,,,,,,,,,,,,,,,,,,,,,,,,,,,,,,,,,,,,,,,,,,,,,,,,,sleep,pillow,0,0,0,0,1,,,,,,,,,,,,,,,,,,,,,,,,,,,,,,,
,,,,,,,,,,,,,,,89927,001,2022-04-28_18h13.16.530,SPAMnetsValid,2021.1.4,MacIntel,60.0024001,,,,,,,,,,,,,,,,,,,,,,,,,,,,,,,,,,,,,,,,,,,,,,,,,,,,comfort,pillow,1,0,1,0,1,,,,,,,,,,,,,,,,,,,,,,,,,,,,,,,
,,,,,,,,,,,,,,,89927,001,2022-04-28_18h13.16.530,SPAMnetsValid,2021.1.4,MacIntel,60.0024001,,,,,,,,,,,,,,,,,,,,,,,,,,,,,,,,,,,,,,,,,,,,,,,,,,,,fort,pillow,2,0,2,0,1,,,,,,,,,,,,,,,,,,,,,,,,,,,,,,,
,,,,,,,,,,,,,,,89927,001,2022-04-28_18h13.16.530,SPAMnetsValid,2021.1.4,MacIntel,60.0024001,,,,,,,,,,,,,,,,,,,,,,,,,,,,,,,,,,,,,,,,,,,,,,,,,,,,sleepovers,pillow,3,0,3,0,1,,,,,,,,,,,,,,,,,,,,,,,,,,,,,,,
,,,,,,,,,,,,,,,89927,001,2022-04-28_18h13.16.530,SPAMnetsValid,2021.1.4,MacIntel,60.0024001,,,,,,,,,,,,,,,,,,,,,,,,,,,,,,,,,,,,,,,,,,,,,,,,,,,,pillow fight,pillow,4,0,4,0,1,,,,,,,,,,,,,,,,,,,,,,,,,,,,,,,
,,,,,,,,,,,,,,,89927,001,2022-04-28_18h13.16.530,SPAMnetsValid,2021.1.4,MacIntel,60.0024001,,,,,,,,,,,,,,,,,,,,,,,,,,,,,,,,,,,,,,,,,,,,,,,,,,,,plane rides,pillow,5,0,5,0,1,,,,,,,,,,,,,,,,,,,,,,,,,,,,,,,
,,,,,,,,,,,,,,,89927,001,2022-04-28_18h13.16.530,SPAMnetsValid,2021.1.4,MacIntel,60.0024001,,,,,,,,,,,,,,,,,,,,,,,,,,,,,,,,,,,,,,,,,,,,,,,,,,,,car rides,pillow,6,0,6,0,1,,,,,,,,,,,,,,,,,,,,,,,,,,,,,,,
,,,,,,,,,,,,,,,89927,001,2022-04-28_18h13.16.530,SPAMnetsValid,2021.1.4,MacIntel,60.0024001,,,,,,,,,,,,,,,,,,,,,,,,,,,,,,,,,,,,,,,,,,,,,,,,,,,,trick or treating,pillow,7,0,7,0,1,,,,,,,,,,,,,,,,,,,,,,,,,,,,,,,
,,,,,,,,,,,,,,,89927,001,2022-04-28_18h13.16.530,SPAMnetsValid,2021.1.4,MacIntel,60.0024001,,,,,,,,,,,,,,,,,,,,,,,,,,,,,,,,,,,,,,,,,,,,,,,,,,,,costume,pillow,8,0,8,0,1,,,,,,,,,,,,,,,,,,,,,,,,,,,,,,,
,,,,,,,,,,,,,,,89927,001,2022-04-28_18h13.16.530,SPAMnetsValid,2021.1.4,MacIntel,60.0024001,,,,,,,,,,,,,,,,,,,,,,,,,,,,,,,,,,,,,,,,,,,,,,,,,,,,support,pillow,9,0,9,0,1,,,,,,,,,,,,,,,,,,,,,,,,,,,,,,,
,,,,,,,,,,,,,,,89927,001,2022-04-28_18h13.16.530,SPAMnetsValid,2021.1.4,MacIntel,60.0024001,,,,,,,,,,,,,,,,,,,,,,,,,,,,,,,,,,,,,,,,,,,,,,,,,,,,emotional support,pillow,10,0,10,0,1,,,,,,,,,,,,,,,,,,,,,,,,,,,,,,,
,,,,,,,,,,,,,,,89927,001,2022-04-28_18h13.16.530,SPAMnetsValid,2021.1.4,MacIntel,60.0024001,,,,,,,,,,,,,,,,,,,,,,,,,,,,,,,,,,,,,,,,,,,,,,,,,,,,hugging,pillow,11,0,11,0,1,,,,,,,,,,,,,,,,,,,,,,,,,,,,,,,
,,,,,,,,,,,,,,,89927,001,2022-04-28_18h13.16.530,SPAMnetsValid,2021.1.4,MacIntel,60.0024001,,,,,,,,,,,,,,,,,,,,,,,,,,,,,,,,,,,,,,,,,,,,,,,,,,,,headrest,pillow,12,0,12,0,1,,,,,,,,,,,,,,,,,,,,,,,,,,,,,,,
,,,,,,,,,,,,,,,89927,001,2022-04-28_18h13.16.530,SPAMnetsValid,2021.1.4,MacIntel,60.0024001,,,,,,,,,,,,,,,,,,,,,,,,,,,,,,,,,,,,,,,,,,,,,,,,,,,,cusion,pillow,13,0,13,0,1,,,,,,,,,,,,,,,,,,,,,,,,,,,,,,,
,,,,,,,,,,,,,,,89927,001,2022-04-28_18h13.16.530,SPAMnetsValid,2021.1.4,MacIntel,60.0024001,,,,,,,,,,,,,,,,,,,,,,,,,,,,,,,,,,,,,,,,,,,,,,,,,,,,,,,,,,,0,2,2,2,1,pillow,,,,,,,,,,,,,,,,,,,,,,,,,
,,,,,,,,,,,,,,,89927,001,2022-04-28_18h13.16.530,SPAMnetsValid,2021.1.4,MacIntel,60.0024001,,,,,,,,,,,,,,,,,,,,,,,,,,,,,,,,,,,,,,,,,,,,,,,,,,,,,,,,,,,,,,,,,dog,Animals,0,0,0,0,1,,,,,,,,,,,,,,,,,,
,,,,,,,,,,,,,,,89927,001,2022-04-28_18h13.16.530,SPAMnetsValid,2021.1.4,MacIntel,60.0024001,,,,,,,,,,,,,,,,,,,,,,,,,,,,,,,,,,,,,,,,,,,,,,,,,,,,,,,,,,,,,,,,,cat,Animals,1,0,1,0,1,,,,,,,,,,,,,,,,,,
,,,,,,,,,,,,,,,89927,001,2022-04-28_18h13.16.530,SPAMnetsValid,2021.1.4,MacIntel,60.0024001,,,,,,,,,,,,,,,,,,,,,,,,,,,,,,,,,,,,,,,,,,,,,,,,,,,,,,,,,,,,,,,,,jaguar,Animals,2,0,2,0,1,,,,,,,,,,,,,,,,,,
,,,,,,,,,,,,,,,89927,001,2022-04-28_18h13.16.530,SPAMnetsValid,2021.1.4,MacIntel,60.0024001,,,,,,,,,,,,,,,,,,,,,,,,,,,,,,,,,,,,,,,,,,,,,,,,,,,,,,,,,,,,,,,,,geese,Animals,3,0,3,0,1,,,,,,,,,,,,,,,,,,
,,,,,,,,,,,,,,,89927,001,2022-04-28_18h13.16.530,SPAMnetsValid,2021.1.4,MacIntel,60.0024001,,,,,,,,,,,,,,,,,,,,,,,,,,,,,,,,,,,,,,,,,,,,,,,,,,,,,,,,,,,,,,,,,pig,Animals,4,0,4,0,1,,,,,,,,,,,,,,,,,,
,,,,,,,,,,,,,,,89927,001,2022-04-28_18h13.16.530,SPAMnetsValid,2021.1.4,MacIntel,60.0024001,,,,,,,,,,,,,,,,,,,,,,,,,,,,,,,,,,,,,,,,,,,,,,,,,,,,,,,,,,,,,,,,,moose,Animals,5,0,5,0,1,,,,,,,,,,,,,,,,,,
,,,,,,,,,,,,,,,89927,001,2022-04-28_18h13.16.530,SPAMnetsValid,2021.1.4,MacIntel,60.0024001,,,,,,,,,,,,,,,,,,,,,,,,,,,,,,,,,,,,,,,,,,,,,,,,,,,,,,,,,,,,,,,,,pig,Animals,6,0,6,0,1,,,,,,,,,,,,,,,,,,
,,,,,,,,,,,,,,,89927,001,2022-04-28_18h13.16.530,SPAMnetsValid,2021.1.4,MacIntel,60.0024001,,,,,,,,,,,,,,,,,,,,,,,,,,,,,,,,,,,,,,,,,,,,,,,,,,,,,,,,,,,,,,,,,squirrel,Animals,7,0,7,0,1,,,,,,,,,,,,,,,,,,
,,,,,,,,,,,,,,,89927,001,2022-04-28_18h13.16.530,SPAMnetsValid,2021.1.4,MacIntel,60.0024001,,,,,,,,,,,,,,,,,,,,,,,,,,,,,,,,,,,,,,,,,,,,,,,,,,,,,,,,,,,,,,,,,lion,Animals,8,0,8,0,1,,,,,,,,,,,,,,,,,,
,,,,,,,,,,,,,,,89927,001,2022-04-28_18h13.16.530,SPAMnetsValid,2021.1.4,MacIntel,60.0024001,,,,,,,,,,,,,,,,,,,,,,,,,,,,,,,,,,,,,,,,,,,,,,,,,,,,,,,,,,,,,,,,,tiger,Animals,9,0,9,0,1,,,,,,,,,,,,,,,,,,
,,,,,,,,,,,,,,,89927,001,2022-04-28_18h13.16.530,SPAMnetsValid,2021.1.4,MacIntel,60.0024001,,,,,,,,,,,,,,,,,,,,,,,,,,,,,,,,,,,,,,,,,,,,,,,,,,,,,,,,,,,,,,,,,bear,Animals,10,0,10,0,1,,,,,,,,,,,,,,,,,,
,,,,,,,,,,,,,,,89927,001,2022-04-28_18h13.16.530,SPAMnetsValid,2021.1.4,MacIntel,60.0024001,,,,,,,,,,,,,,,,,,,,,,,,,,,,,,,,,,,,,,,,,,,,,,,,,,,,,,,,,,,,,,,,,condor,Animals,11,0,11,0,1,,,,,,,,,,,,,,,,,,
,,,,,,,,,,,,,,,89927,001,2022-04-28_18h13.16.530,SPAMnetsValid,2021.1.4,MacIntel,60.0024001,,,,,,,,,,,,,,,,,,,,,,,,,,,,,,,,,,,,,,,,,,,,,,,,,,,,,,,,,,,,,,,,,bird,Animals,12,0,12,0,1,,,,,,,,,,,,,,,,,,
,,,,,,,,,,,,,,,89927,001,2022-04-28_18h13.16.530,SPAMnetsValid,2021.1.4,MacIntel,60.0024001,,,,,,,,,,,,,,,,,,,,,,,,,,,,,,,,,,,,,,,,,,,,,,,,,,,,,,,,,,,,,,,,,rat,Animals,13,0,13,0,1,,,,,,,,,,,,,,,,,,
,,,,,,,,,,,,,,,89927,001,2022-04-28_18h13.16.530,SPAMnetsValid,2021.1.4,MacIntel,60.0024001,,,,,,,,,,,,,,,,,,,,,,,,,,,,,,,,,,,,,,,,,,,,,,,,,,,,,,,,,,,,,,,,,mice,Animals,14,0,14,0,1,,,,,,,,,,,,,,,,,,
,,,,,,,,,,,,,,,89927,001,2022-04-28_18h13.16.530,SPAMnetsValid,2021.1.4,MacIntel,60.0024001,,,,,,,,,,,,,,,,,,,,,,,,,,,,,,,,,,,,,,,,,,,,,,,,,,,,,,,,,,,,,,,,,fox,Animals,15,0,15,0,1,,,,,,,,,,,,,,,,,,
,,,,,,,,,,,,,,,89927,001,2022-04-28_18h13.16.530,SPAMnetsValid,2021.1.4,MacIntel,60.0024001,,,,,,,,,,,,,,,,,,,,,,,,,,,,,,,,,,,,,,,,,,,,,,,,,,,,,,,,,,,,,,,,,hound,Animals,16,0,16,0,1,,,,,,,,,,,,,,,,,,
,,,,,,,,,,,,,,,89927,001,2022-04-28_18h13.16.530,SPAMnetsValid,2021.1.4,MacIntel,60.0024001,,,,,,,,,,,,,,,,,,,,,,,,,,,,,,,,,,,,,,,,,,,,,,,,,,,,,,,,,,,,,,,,,deer,Animals,17,0,17,0,1,,,,,,,,,,,,,,,,,,
,,,,,,,,,,,,,,,89927,001,2022-04-28_18h13.16.530,SPAMnetsValid,2021.1.4,MacIntel,60.0024001,,,,,,,,,,,,,,,,,,,,,,,,,,,,,,,,,,,,,,,,,,,,,,,,,,,,,,,,,,,,,,,,,bunny,Animals,18,0,18,0,1,,,,,,,,,,,,,,,,,,
,,,,,,,,,,,,,,,89927,001,2022-04-28_18h13.16.530,SPAMnetsValid,2021.1.4,MacIntel,60.0024001,,,,,,,,,,,,,,,,,,,,,,,,,,,,,,,,,,,,,,,,,,,,,,,,,,,,,,,,,,,,,,,,,gazella,Animals,19,0,19,0,1,,,,,,,,,,,,,,,,,,
,,,,,,,,,,,,,,,89927,001,2022-04-28_18h13.16.530,SPAMnetsValid,2021.1.4,MacIntel,60.0024001,,,,,,,,,,,,,,,,,,,,,,,,,,,,,,,,,,,,,,,,,,,,,,,,,,,,,,,,,,,,,,,,,zebra,Animals,20,0,20,0,1,,,,,,,,,,,,,,,,,,
,,,,,,,,,,,,,,,89927,001,2022-04-28_18h13.16.530,SPAMnetsValid,2021.1.4,MacIntel,60.0024001,,,,,,,,,,,,,,,,,,,,,,,,,,,,,,,,,,,,,,,,,,,,,,,,,,,,,,,,,,,,,,,,,hippo,Animals,21,0,21,0,1,,,,,,,,,,,,,,,,,,
,,,,,,,,,,,,,,,89927,001,2022-04-28_18h13.16.530,SPAMnetsValid,2021.1.4,MacIntel,60.0024001,,,,,,,,,,,,,,,,,,,,,,,,,,,,,,,,,,,,,,,,,,,,,,,,,,,,,,,,,,,,,,,,,giraffe,Animals,22,0,22,0,1,,,,,,,,,,,,,,,,,,
,,,,,,,,,,,,,,,89927,001,2022-04-28_18h13.16.530,SPAMnetsValid,2021.1.4,MacIntel,60.0024001,,,,,,,,,,,,,,,,,,,,,,,,,,,,,,,,,,,,,,,,,,,,,,,,,,,,,,,,,,,,,,,,,monkey,Animals,23,0,23,0,1,,,,,,,,,,,,,,,,,,
,,,,,,,,,,,,,,,89927,001,2022-04-28_18h13.16.530,SPAMnetsValid,2021.1.4,MacIntel,60.0024001,,,,,,,,,,,,,,,,,,,,,,,,,,,,,,,,,,,,,,,,,,,,,,,,,,,,,,,,,,,,,,,,,panther,Animals,24,0,24,0,1,,,,,,,,,,,,,,,,,,
,,,,,,,,,,,,,,,89927,001,2022-04-28_18h13.16.530,SPAMnetsValid,2021.1.4,MacIntel,60.0024001,,,,,,,,,,,,,,,,,,,,,,,,,,,,,,,,,,,,,,,,,,,,,,,,,,,,,,,,,,,,,,,,,puma,Animals,25,0,25,0,1,,,,,,,,,,,,,,,,,,
,,,,,,,,,,,,,,,89927,001,2022-04-28_18h13.16.530,SPAMnetsValid,2021.1.4,MacIntel,60.0024001,,,,,,,,,,,,,,,,,,,,,,,,,,,,,,,,,,,,,,,,,,,,,,,,,,,,,,,,,,,,,,,,,rhino,Animals,26,0,26,0,1,,,,,,,,,,,,,,,,,,
,,,,,,,,,,,,,,,89927,001,2022-04-28_18h13.16.530,SPAMnetsValid,2021.1.4,MacIntel,60.0024001,,,,,,,,,,,,,,,,,,,,,,,,,,,,,,,,,,,,,,,,,,,,,,,,,,,,,,,,,,,,,,,,,dinosair,Animals,27,0,27,0,1,,,,,,,,,,,,,,,,,,
,,,,,,,,,,,,,,,89927,001,2022-04-28_18h13.16.530,SPAMnetsValid,2021.1.4,MacIntel,60.0024001,,,,,,,,,,,,,,,,,,,,,,,,,,,,,,,,,,,,,,,,,,,,,,,,,,,,,,,,,,,,,,,,,lynx,Animals,28,0,28,0,1,,,,,,,,,,,,,,,,,,
,,,,,,,,,,,,,,,89927,001,2022-04-28_18h13.16.530,SPAMnetsValid,2021.1.4,MacIntel,60.0024001,,,,,,,,,,,,,,,,,,,,,,,,,,,,,,,,,,,,,,,,,,,,,,,,,,,,,,,,,,,,,,,,,anteloope,Animals,29,0,29,0,1,,,,,,,,,,,,,,,,,,
,,,,,,,,,,,,,,,89927,001,2022-04-28_18h13.16.530,SPAMnetsValid,2021.1.4,MacIntel,60.0024001,,,,,,,,,,,,,,,,,,,,,,,,,,,,,,,,,,,,,,,,,,,,,,,,,,,,,,,,,,,,,,,,,horse,Animals,30,0,30,0,1,,,,,,,,,,,,,,,,,,
,,,,,,,,,,,,,,,89927,001,2022-04-28_18h13.16.530,SPAMnetsValid,2021.1.4,MacIntel,60.0024001,,,,,,,,,,,,,,,,,,,,,,,,,,,,,,,,,,,,,,,,,,,,,,,,,,,,,,,,,,,,,,,,,sheep,Animals,31,0,31,0,1,,,,,,,,,,,,,,,,,,
,,,,,,,,,,,,,,,89927,001,2022-04-28_18h13.16.530,SPAMnetsValid,2021.1.4,MacIntel,60.0024001,,,,,,,,,,,,,,,,,,,,,,,,,,,,,,,,,,,,,,,,,,,,,,,,,,,,,,,,,,,,,,,,,owl,Animals,32,0,32,0,1,,,,,,,,,,,,,,,,,,
,,,,,,,,,,,,,,,89927,001,2022-04-28_18h13.16.530,SPAMnetsValid,2021.1.4,MacIntel,60.0024001,,,,,,,,,,,,,,,,,,,,,,,,,,,,,,,,,,,,,,,,,,,,,,,,,,,,,,,,,,,,,,,,,penguin,Animals,33,0,33,0,1,,,,,,,,,,,,,,,,,,
,,,,,,,,,,,,,,,89927,001,2022-04-28_18h13.16.530,SPAMnetsValid,2021.1.4,MacIntel,60.0024001,,,,,,,,,,,,,,,,,,,,,,,,,,,,,,,,,,,,,,,,,,,,,,,,,,,,,,,,,,,,,,,,,koala,Animals,34,0,34,0,1,,,,,,,,,,,,,,,,,,
,,,,,,,,,,,,,,,89927,001,2022-04-28_18h13.16.530,SPAMnetsValid,2021.1.4,MacIntel,60.0024001,,,,,,,,,,,,,,,,,,,,,,,,,,,,,,,,,,,,,,,,,,,,,,,,,,,,,,,,,,,,,,,,,kangaroo,Animals,35,0,35,0,1,,,,,,,,,,,,,,,,,,
,,,,,,,,,,,,,,,89927,001,2022-04-28_18h13.16.530,SPAMnetsValid,2021.1.4,MacIntel,60.0024001,,,,,,,,,,,,,,,,,,,,,,,,,,,,,,,,,,,,,,,,,,,,,,,,,,,,,,,,,,,,,,,,,mole,Animals,36,0,36,0,1,,,,,,,,,,,,,,,,,,
,,,,,,,,,,,,,,,89927,001,2022-04-28_18h13.16.530,SPAMnetsValid,2021.1.4,MacIntel,60.0024001,,,,,,,,,,,,,,,,,,,,,,,,,,,,,,,,,,,,,,,,,,,,,,,,,,,,,,,,,,,,,,,,,warthog,Animals,37,0,37,0,1,,,,,,,,,,,,,,,,,,
,,,,,,,,,,,,,,,89927,001,2022-04-28_18h13.16.530,SPAMnetsValid,2021.1.4,MacIntel,60.0024001,,,,,,,,,,,,,,,,,,,,,,,,,,,,,,,,,,,,,,,,,,,,,,,,,,,,,,,,,,,,,,,,,prairie dog,Animals,38,0,38,0,1,,,,,,,,,,,,,,,,,,
,,,,,,,,,,,,,,,89927,001,2022-04-28_18h13.16.530,SPAMnetsValid,2021.1.4,MacIntel,60.0024001,,,,,,,,,,,,,,,,,,,,,,,,,,,,,,,,,,,,,,,,,,,,,,,,,,,,,,,,,,,,,,,,,hyena,Animals,39,0,39,0,1,,,,,,,,,,,,,,,,,,
,,,,,,,,,,,,,,,89927,001,2022-04-28_18h13.16.530,SPAMnetsValid,2021.1.4,MacIntel,60.0024001,,,,,,,,,,,,,,,,,,,,,,,,,,,,,,,,,,,,,,,,,,,,,,,,,,,,,,,,,,,,,,,,,wildabeast,Animals,40,0,40,0,1,,,,,,,,,,,,,,,,,,
,,,,,,,,,,,,,,,89927,001,2022-04-28_18h13.16.530,SPAMnetsValid,2021.1.4,MacIntel,60.0024001,,,,,,,,,,,,,,,,,,,,,,,,,,,,,,,,,,,,,,,,,,,,,,,,,,,,,,,,,,,,,,,,,flamingo,Animals,41,0,41,0,1,,,,,,,,,,,,,,,,,,
,,,,,,,,,,,,,,,89927,001,2022-04-28_18h13.16.530,SPAMnetsValid,2021.1.4,MacIntel,60.0024001,,,,,,,,,,,,,,,,,,,,,,,,,,,,,,,,,,,,,,,,,,,,,,,,,,,,,,,,,,,,,,,,,swan,Animals,42,0,42,0,1,,,,,,,,,,,,,,,,,,
,,,,,,,,,,,,,,,89927,001,2022-04-28_18h13.16.530,SPAMnetsValid,2021.1.4,MacIntel,60.0024001,,,,,,,,,,,,,,,,,,,,,,,,,,,,,,,,,,,,,,,,,,,,,,,,,,,,,,,,,,,,,,,,,ostrich,Animals,43,0,43,0,1,,,,,,,,,,,,,,,,,,
,,,,,,,,,,,,,,,89927,001,2022-04-28_18h13.16.530,SPAMnetsValid,2021.1.4,MacIntel,60.0024001,,,,,,,,,,,,,,,,,,,,,,,,,,,,,,,,,,,,,,,,,,,,,,,,,,,,,,,,,,,,,,,,,,,,,,,,0,0,0,0,1,Animals,,,,,,,,,,,,
,,,,,,,,,,,,,,,89927,001,2022-04-28_18h13.16.530,SPAMnetsValid,2021.1.4,MacIntel,60.0024001,,,,,,,,,,,,,,,,,,,,,,,,,,,,,,,,,,,,,,,,,,,,,,,,,,,,,,,,,,,,,,,,,,,,,,,,,,,,,,4,3.7567,0,0,0,0,1,"I enjoy concentrating on a fantasy or daydream and exploring all its possibilities, letting it grow and develop.",0,1,,
,,,,,,,,,,,,,,,89927,001,2022-04-28_18h13.16.530,SPAMnetsValid,2021.1.4,MacIntel,60.0024001,,,,,,,,,,,,,,,,,,,,,,,,,,,,,,,,,,,,,,,,,,,,,,,,,,,,,,,,,,,,,,,,,,,,,,,,,,,,,,5,2.7275,0,1,1,1,1,I think it's interesting to learn and develop new hobbies.,0,2,,
,,,,,,,,,,,,,,,89927,001,2022-04-28_18h13.16.530,SPAMnetsValid,2021.1.4,MacIntel,60.0024001,,,,,,,,,,,,,,,,,,,,,,,,,,,,,,,,,,,,,,,,,,,,,,,,,,,,,,,,,,,,,,,,,,,,,,,,,,,,,,5,2.6125,0,2,2,2,1,I am intrigued by the patterns I find in art and nature.,0,3,,
,,,,,,,,,,,,,,,89927,001,2022-04-28_18h13.16.530,SPAMnetsValid,2021.1.4,MacIntel,60.0024001,,,,,,,,,,,,,,,,,,,,,,,,,,,,,,,,,,,,,,,,,,,,,,,,,,,,,,,,,,,,,,,,,,,,,,,,,,,,,,2,4.1992,0,3,3,3,1,I believe letting students hear controversial speakers can only confuse and mislead them.,1,4,,
,,,,,,,,,,,,,,,89927,001,2022-04-28_18h13.16.530,SPAMnetsValid,2021.1.4,MacIntel,60.0024001,,,,,,,,,,,,,,,,,,,,,,,,,,,,,,,,,,,,,,,,,,,,,,,,,,,,,,,,,,,,,,,,,,,,,,,,,,,,,,2,3.8759,0,4,4,4,1,Poetry has little or no effect on me.,1,5,,
,,,,,,,,,,,,,,,89927,001,2022-04-28_18h13.16.530,SPAMnetsValid,2021.1.4,MacIntel,60.0024001,,,,,,,,,,,,,,,,,,,,,,,,,,,,,,,,,,,,,,,,,,,,,,,,,,,,,,,,,,,,,,,,,,,,,,,,,,,,,,3,3.3964,0,5,5,5,1,I would have difficulty just letting my mind wander without control or guidance.,1,6,,
,,,,,,,,,,,,,,,89927,001,2022-04-28_18h13.16.530,SPAMnetsValid,2021.1.4,MacIntel,60.0024001,,,,,,,,,,,,,,,,,,,,,,,,,,,,,,,,,,,,,,,,,,,,,,,,,,,,,,,,,,,,,,,,,,,,,,,,,,,,,,5,3.2329,0,6,6,6,1,I seldom notice the moods or feelings that different environments produce.,1,7,,
,,,,,,,,,,,,,,,89927,001,2022-04-28_18h13.16.530,SPAMnetsValid,2021.1.4,MacIntel,60.0024001,,,,,,,,,,,,,,,,,,,,,,,,,,,,,,,,,,,,,,,,,,,,,,,,,,,,,,,,,,,,,,,,,,,,,,,,,,,,,,4,2.8802,0,7,7,7,1,I experience a wide range of emotions or feelings.,0,8,,
,,,,,,,,,,,,,,,89927,001,2022-04-28_18h13.16.530,SPAMnetsValid,2021.1.4,MacIntel,60.0024001,,,,,,,,,,,,,,,,,,,,,,,,,,,,,,,,,,,,,,,,,,,,,,,,,,,,,,,,,,,,,,,,,,,,,,,,,,,,,,5,2.0993,0,8,8,8,1,"Sometimes when I am reading poetry or looking at a work of art, I feel a chill or wave of excitement.",0,9,,
,,,,,,,,,,,,,,,89927,001,2022-04-28_18h13.16.530,SPAMnetsValid,2021.1.4,MacIntel,60.0024001,,,,,,,,,,,,,,,,,,,,,,,,,,,,,,,,,,,,,,,,,,,,,,,,,,,,,,,,,,,,,,,,,,,,,,,,,,,,,,3,4.5805,0,9,9,9,1,I have little interest in speculating on the nature of the universe or the human condition.,1,10,,
,,,,,,,,,,,,,,,89927,001,2022-04-28_18h13.16.530,SPAMnetsValid,2021.1.4,MacIntel,60.0024001,,,,,,,,,,,,,,,,,,,,,,,,,,,,,,,,,,,,,,,,,,,,,,,,,,,,,,,,,,,,,,,,,,,,,,,,,,,,,,4,3.4981,0,10,10,10,1,I have a lot of intellectual curiosity.,0,11,,
,,,,,,,,,,,,,,,89927,001,2022-04-28_18h13.16.530,SPAMnetsValid,2021.1.4,MacIntel,60.0024001,,,,,,,,,,,,,,,,,,,,,,,,,,,,,,,,,,,,,,,,,,,,,,,,,,,,,,,,,,,,,,,,,,,,,,,,,,,,,,4,1.9338,0,11,11,11,1,I often enjoy playing with theories or abstract ideas.,0,12,,
,,,,,,,,,,,,,,,89927,001,2022-04-28_18h13.16.530,SPAMnetsValid,2021.1.4,MacIntel,60.0024001,,,,,,,,,,,,,,,,,,,,,,,,,,,,,,,,,,,,,,,,,,,,,,,,,,,,,,,,,,,,,,,,,,,,,,,,,,,,,,,,,,,,,,,,return,46.9498
