key_resp_3.keys,key_resp_3.rt,slider_2.response,slider_2.rt,rjt_rating,rjt_RT,trials_24.thisRepN,trials_24.thisTrialN,trials_24.thisN,trials_24.thisIndex,trials_24.ran,rjt_order,word1,word2,attention,participant,session,date,expName,psychopyVersion,OS,frameRate,trials_4.thisRepN,trials_4.thisTrialN,trials_4.thisN,trials_4.thisIndex,trials_4.ran,trials_5.thisRepN,trials_5.thisTrialN,trials_5.thisN,trials_5.thisIndex,trials_5.ran,repOne,repTwo,slider.response,slider.rt,trials_22.thisRepN,trials_22.thisTrialN,trials_22.thisN,trials_22.thisIndex,trials_22.ran,trials_99.thisRepN,trials_99.thisTrialN,trials_99.thisN,trials_99.thisIndex,trials_99.ran,slider_extend_2.response,slider_extend_2.rt,trials_6.thisRepN,trials_6.thisTrialN,trials_6.thisN,trials_6.thisIndex,trials_6.ran,vCue2,R1,R2,R3,R4,correct,sliderVocab.response,sliderVocab.rt,trials_7.thisRepN,trials_7.thisTrialN,trials_7.thisN,trials_7.thisIndex,trials_7.ran,VocabCue,VR1,VR2,VR3,VR4,VR5,VocabCorrect,AUT_resp,AUT_label,trials.thisRepN,trials.thisTrialN,trials.thisN,trials.thisIndex,trials.ran,trials_2.thisRepN,trials_2.thisTrialN,trials_2.thisN,trials_2.thisIndex,trials_2.ran,aut_prompt,VF_response,VF_tag,trials_16.thisRepN,trials_16.thisTrialN,trials_16.thisN,trials_16.thisIndex,trials_16.ran,trials_17.thisRepN,trials_17.thisTrialN,trials_17.thisN,trials_17.thisIndex,trials_17.ran,VFcond,open_slider.response,open_slider.rt,trials_3.thisRepN,trials_3.thisTrialN,trials_3.thisN,trials_3.thisIndex,trials_3.ran,OpenQ,Rev,OPEN_ORDER,key_resp_2.keys,key_resp_2.rt
return,11.704,1,3.12,1,3.12,0,0,0,76,1,102,chocolate,refrigerator,,89939,006,2022-04-27_20h07.10.476,SPAMnetsValid,2021.1.4,MacIntel,55.55555556,,,,,,,,,,,,,,,,,,,,,,,,,,,,,,,,,,,,,,,,,,,,,,,,,,,,,,,,,,,,,,,,,,,,,,,,,,,,,,,,,,,,,,,,,
,,3,3.607,3,3.607,0,1,1,34,1,153,carrot,pretzel,,89939,006,2022-04-27_20h07.10.476,SPAMnetsValid,2021.1.4,MacIntel,55.55555556,,,,,,,,,,,,,,,,,,,,,,,,,,,,,,,,,,,,,,,,,,,,,,,,,,,,,,,,,,,,,,,,,,,,,,,,,,,,,,,,,,,,,,,,,
,,1,3.336,1,3.336,0,2,2,33,1,131,cactus,garden,,89939,006,2022-04-27_20h07.10.476,SPAMnetsValid,2021.1.4,MacIntel,55.55555556,,,,,,,,,,,,,,,,,,,,,,,,,,,,,,,,,,,,,,,,,,,,,,,,,,,,,,,,,,,,,,,,,,,,,,,,,,,,,,,,,,,,,,,,,
,,1,1.347,1,1.347,0,3,3,71,1,187,cactus,microwave,,89939,006,2022-04-27_20h07.10.476,SPAMnetsValid,2021.1.4,MacIntel,55.55555556,,,,,,,,,,,,,,,,,,,,,,,,,,,,,,,,,,,,,,,,,,,,,,,,,,,,,,,,,,,,,,,,,,,,,,,,,,,,,,,,,,,,,,,,,
,,1,2.219,1,2.219,0,4,4,10,1,118,chocolate,oven,,89939,006,2022-04-27_20h07.10.476,SPAMnetsValid,2021.1.4,MacIntel,55.55555556,,,,,,,,,,,,,,,,,,,,,,,,,,,,,,,,,,,,,,,,,,,,,,,,,,,,,,,,,,,,,,,,,,,,,,,,,,,,,,,,,,,,,,,,,
,,8,3.542,8,3.542,0,5,5,39,1,112,cake,carrot,,89939,006,2022-04-27_20h07.10.476,SPAMnetsValid,2021.1.4,MacIntel,55.55555556,,,,,,,,,,,,,,,,,,,,,,,,,,,,,,,,,,,,,,,,,,,,,,,,,,,,,,,,,,,,,,,,,,,,,,,,,,,,,,,,,,,,,,,,,
,,1,3.294,1,3.294,0,6,6,58,1,144,cake,garden,,89939,006,2022-04-27_20h07.10.476,SPAMnetsValid,2021.1.4,MacIntel,55.55555556,,,,,,,,,,,,,,,,,,,,,,,,,,,,,,,,,,,,,,,,,,,,,,,,,,,,,,,,,,,,,,,,,,,,,,,,,,,,,,,,,,,,,,,,,
,,9,2.447,9,2.447,0,7,7,26,1,107,rose,tomato,,89939,006,2022-04-27_20h07.10.476,SPAMnetsValid,2021.1.4,MacIntel,55.55555556,,,,,,,,,,,,,,,,,,,,,,,,,,,,,,,,,,,,,,,,,,,,,,,,,,,,,,,,,,,,,,,,,,,,,,,,,,,,,,,,,,,,,,,,,
,,9,1.329,9,1.329,0,8,8,65,1,160,cookie,kitchen,,89939,006,2022-04-27_20h07.10.476,SPAMnetsValid,2021.1.4,MacIntel,55.55555556,,,,,,,,,,,,,,,,,,,,,,,,,,,,,,,,,,,,,,,,,,,,,,,,,,,,,,,,,,,,,,,,,,,,,,,,,,,,,,,,,,,,,,,,,
,,2,1.778,2,1.778,0,9,9,81,1,104,garden,microwave,,89939,006,2022-04-27_20h07.10.476,SPAMnetsValid,2021.1.4,MacIntel,55.55555556,,,,,,,,,,,,,,,,,,,,,,,,,,,,,,,,,,,,,,,,,,,,,,,,,,,,,,,,,,,,,,,,,,,,,,,,,,,,,,,,,,,,,,,,,
,,9,5.2,9,5.2,0,10,10,14,1,120,microwave,oven,,89939,006,2022-04-27_20h07.10.476,SPAMnetsValid,2021.1.4,MacIntel,55.55555556,,,,,,,,,,,,,,,,,,,,,,,,,,,,,,,,,,,,,,,,,,,,,,,,,,,,,,,,,,,,,,,,,,,,,,,,,,,,,,,,,,,,,,,,,
,,2,2.056,2,2.056,0,11,11,88,1,171,cake,tomato,,89939,006,2022-04-27_20h07.10.476,SPAMnetsValid,2021.1.4,MacIntel,55.55555556,,,,,,,,,,,,,,,,,,,,,,,,,,,,,,,,,,,,,,,,,,,,,,,,,,,,,,,,,,,,,,,,,,,,,,,,,,,,,,,,,,,,,,,,,
,,7,1.733,7,1.733,0,12,12,72,1,181,carrot,kitchen,,89939,006,2022-04-27_20h07.10.476,SPAMnetsValid,2021.1.4,MacIntel,55.55555556,,,,,,,,,,,,,,,,,,,,,,,,,,,,,,,,,,,,,,,,,,,,,,,,,,,,,,,,,,,,,,,,,,,,,,,,,,,,,,,,,,,,,,,,,
,,7,2.02,7,2.02,0,13,13,12,1,162,microwave,tomato,,89939,006,2022-04-27_20h07.10.476,SPAMnetsValid,2021.1.4,MacIntel,55.55555556,,,,,,,,,,,,,,,,,,,,,,,,,,,,,,,,,,,,,,,,,,,,,,,,,,,,,,,,,,,,,,,,,,,,,,,,,,,,,,,,,,,,,,,,,
,,1,2.299,1,2.299,0,14,14,20,1,149,broom,tomato,,89939,006,2022-04-27_20h07.10.476,SPAMnetsValid,2021.1.4,MacIntel,55.55555556,,,,,,,,,,,,,,,,,,,,,,,,,,,,,,,,,,,,,,,,,,,,,,,,,,,,,,,,,,,,,,,,,,,,,,,,,,,,,,,,,,,,,,,,,
,,6,5.333,6,5.333,0,15,15,31,1,156,melon,rose,,89939,006,2022-04-27_20h07.10.476,SPAMnetsValid,2021.1.4,MacIntel,55.55555556,,,,,,,,,,,,,,,,,,,,,,,,,,,,,,,,,,,,,,,,,,,,,,,,,,,,,,,,,,,,,,,,,,,,,,,,,,,,,,,,,,,,,,,,,
,,5,3.041,5,3.041,0,16,16,85,1,115,refrigerator,tomato,,89939,006,2022-04-27_20h07.10.476,SPAMnetsValid,2021.1.4,MacIntel,55.55555556,,,,,,,,,,,,,,,,,,,,,,,,,,,,,,,,,,,,,,,,,,,,,,,,,,,,,,,,,,,,,,,,,,,,,,,,,,,,,,,,,,,,,,,,,
,,5,1.868,5,1.868,0,17,17,1,1,173,kitchen,tomato,,89939,006,2022-04-27_20h07.10.476,SPAMnetsValid,2021.1.4,MacIntel,55.55555556,,,,,,,,,,,,,,,,,,,,,,,,,,,,,,,,,,,,,,,,,,,,,,,,,,,,,,,,,,,,,,,,,,,,,,,,,,,,,,,,,,,,,,,,,
,,1,3.712,1,3.712,0,18,18,19,1,183,cake,rose,,89939,006,2022-04-27_20h07.10.476,SPAMnetsValid,2021.1.4,MacIntel,55.55555556,,,,,,,,,,,,,,,,,,,,,,,,,,,,,,,,,,,,,,,,,,,,,,,,,,,,,,,,,,,,,,,,,,,,,,,,,,,,,,,,,,,,,,,,,
,,9,1.518,9,1.518,0,19,19,5,1,108,carrot,chocolate,,89939,006,2022-04-27_20h07.10.476,SPAMnetsValid,2021.1.4,MacIntel,55.55555556,,,,,,,,,,,,,,,,,,,,,,,,,,,,,,,,,,,,,,,,,,,,,,,,,,,,,,,,,,,,,,,,,,,,,,,,,,,,,,,,,,,,,,,,,
,,9,1.259,9,1.259,0,20,20,28,1,154,strawberry,yogurt,,89939,006,2022-04-27_20h07.10.476,SPAMnetsValid,2021.1.4,MacIntel,55.55555556,,,,,,,,,,,,,,,,,,,,,,,,,,,,,,,,,,,,,,,,,,,,,,,,,,,,,,,,,,,,,,,,,,,,,,,,,,,,,,,,,,,,,,,,,
,,7,1.492,7,1.492,0,21,21,38,1,155,carrot,cookie,,89939,006,2022-04-27_20h07.10.476,SPAMnetsValid,2021.1.4,MacIntel,55.55555556,,,,,,,,,,,,,,,,,,,,,,,,,,,,,,,,,,,,,,,,,,,,,,,,,,,,,,,,,,,,,,,,,,,,,,,,,,,,,,,,,,,,,,,,,
,,9,1.771,9,1.771,0,22,22,70,1,141,melon,tomato,,89939,006,2022-04-27_20h07.10.476,SPAMnetsValid,2021.1.4,MacIntel,55.55555556,,,,,,,,,,,,,,,,,,,,,,,,,,,,,,,,,,,,,,,,,,,,,,,,,,,,,,,,,,,,,,,,,,,,,,,,,,,,,,,,,,,,,,,,,
,,1,1.48,1,1.48,0,23,23,42,1,184,oven,pretzel,,89939,006,2022-04-27_20h07.10.476,SPAMnetsValid,2021.1.4,MacIntel,55.55555556,,,,,,,,,,,,,,,,,,,,,,,,,,,,,,,,,,,,,,,,,,,,,,,,,,,,,,,,,,,,,,,,,,,,,,,,,,,,,,,,,,,,,,,,,
,,1,1.54,1,1.54,0,24,24,79,1,103,pretzel,tomato,,89939,006,2022-04-27_20h07.10.476,SPAMnetsValid,2021.1.4,MacIntel,55.55555556,,,,,,,,,,,,,,,,,,,,,,,,,,,,,,,,,,,,,,,,,,,,,,,,,,,,,,,,,,,,,,,,,,,,,,,,,,,,,,,,,,,,,,,,,
,,8,1.648,8,1.648,0,25,25,48,1,186,kitchen,yogurt,,89939,006,2022-04-27_20h07.10.476,SPAMnetsValid,2021.1.4,MacIntel,55.55555556,,,,,,,,,,,,,,,,,,,,,,,,,,,,,,,,,,,,,,,,,,,,,,,,,,,,,,,,,,,,,,,,,,,,,,,,,,,,,,,,,,,,,,,,,
,,8,2.253,8,2.253,0,26,26,87,1,114,cookie,strawberry,,89939,006,2022-04-27_20h07.10.476,SPAMnetsValid,2021.1.4,MacIntel,55.55555556,,,,,,,,,,,,,,,,,,,,,,,,,,,,,,,,,,,,,,,,,,,,,,,,,,,,,,,,,,,,,,,,,,,,,,,,,,,,,,,,,,,,,,,,,
,,5,2.413,5,2.413,0,27,27,9,1,176,cactus,tomato,,89939,006,2022-04-27_20h07.10.476,SPAMnetsValid,2021.1.4,MacIntel,55.55555556,,,,,,,,,,,,,,,,,,,,,,,,,,,,,,,,,,,,,,,,,,,,,,,,,,,,,,,,,,,,,,,,,,,,,,,,,,,,,,,,,,,,,,,,,
,,1,1.978,1,1.978,0,28,28,80,1,146,pretzel,tree,,89939,006,2022-04-27_20h07.10.476,SPAMnetsValid,2021.1.4,MacIntel,55.55555556,,,,,,,,,,,,,,,,,,,,,,,,,,,,,,,,,,,,,,,,,,,,,,,,,,,,,,,,,,,,,,,,,,,,,,,,,,,,,,,,,,,,,,,,,
,,1,2.534,1,2.534,0,29,29,54,1,101,cactus,kitchen,,89939,006,2022-04-27_20h07.10.476,SPAMnetsValid,2021.1.4,MacIntel,55.55555556,,,,,,,,,,,,,,,,,,,,,,,,,,,,,,,,,,,,,,,,,,,,,,,,,,,,,,,,,,,,,,,,,,,,,,,,,,,,,,,,,,,,,,,,,
,,8,2.227,8,2.227,0,30,30,56,1,113,refrigerator,strawberry,,89939,006,2022-04-27_20h07.10.476,SPAMnetsValid,2021.1.4,MacIntel,55.55555556,,,,,,,,,,,,,,,,,,,,,,,,,,,,,,,,,,,,,,,,,,,,,,,,,,,,,,,,,,,,,,,,,,,,,,,,,,,,,,,,,,,,,,,,,
,,9,1.806,9,1.806,0,31,31,25,1,194,cactus,cactus,CHECK,89939,006,2022-04-27_20h07.10.476,SPAMnetsValid,2021.1.4,MacIntel,55.55555556,,,,,,,,,,,,,,,,,,,,,,,,,,,,,,,,,,,,,,,,,,,,,,,,,,,,,,,,,,,,,,,,,,,,,,,,,,,,,,,,,,,,,,,,,
,,9,2.621,9,2.621,0,32,32,69,1,124,oven,refrigerator,,89939,006,2022-04-27_20h07.10.476,SPAMnetsValid,2021.1.4,MacIntel,55.55555556,,,,,,,,,,,,,,,,,,,,,,,,,,,,,,,,,,,,,,,,,,,,,,,,,,,,,,,,,,,,,,,,,,,,,,,,,,,,,,,,,,,,,,,,,
,,3,1.979,3,1.979,0,33,33,92,1,170,cookie,microwave,,89939,006,2022-04-27_20h07.10.476,SPAMnetsValid,2021.1.4,MacIntel,55.55555556,,,,,,,,,,,,,,,,,,,,,,,,,,,,,,,,,,,,,,,,,,,,,,,,,,,,,,,,,,,,,,,,,,,,,,,,,,,,,,,,,,,,,,,,,
,,1,2.426,1,2.426,0,34,34,84,1,130,microwave,yogurt,,89939,006,2022-04-27_20h07.10.476,SPAMnetsValid,2021.1.4,MacIntel,55.55555556,,,,,,,,,,,,,,,,,,,,,,,,,,,,,,,,,,,,,,,,,,,,,,,,,,,,,,,,,,,,,,,,,,,,,,,,,,,,,,,,,,,,,,,,,
,,9,1.77,9,1.77,0,35,35,61,1,138,flower,rose,,89939,006,2022-04-27_20h07.10.476,SPAMnetsValid,2021.1.4,MacIntel,55.55555556,,,,,,,,,,,,,,,,,,,,,,,,,,,,,,,,,,,,,,,,,,,,,,,,,,,,,,,,,,,,,,,,,,,,,,,,,,,,,,,,,,,,,,,,,
,,9,1.58,9,1.58,0,36,36,37,1,139,carrot,strawberry,,89939,006,2022-04-27_20h07.10.476,SPAMnetsValid,2021.1.4,MacIntel,55.55555556,,,,,,,,,,,,,,,,,,,,,,,,,,,,,,,,,,,,,,,,,,,,,,,,,,,,,,,,,,,,,,,,,,,,,,,,,,,,,,,,,,,,,,,,,
,,5,2.121,5,2.121,0,37,37,51,1,168,cactus,flower,,89939,006,2022-04-27_20h07.10.476,SPAMnetsValid,2021.1.4,MacIntel,55.55555556,,,,,,,,,,,,,,,,,,,,,,,,,,,,,,,,,,,,,,,,,,,,,,,,,,,,,,,,,,,,,,,,,,,,,,,,,,,,,,,,,,,,,,,,,
,,3,1.681,3,1.681,0,38,38,50,1,126,kitchen,tree,,89939,006,2022-04-27_20h07.10.476,SPAMnetsValid,2021.1.4,MacIntel,55.55555556,,,,,,,,,,,,,,,,,,,,,,,,,,,,,,,,,,,,,,,,,,,,,,,,,,,,,,,,,,,,,,,,,,,,,,,,,,,,,,,,,,,,,,,,,
,,9,2.186,9,2.186,0,39,39,47,1,167,carrot,garden,,89939,006,2022-04-27_20h07.10.476,SPAMnetsValid,2021.1.4,MacIntel,55.55555556,,,,,,,,,,,,,,,,,,,,,,,,,,,,,,,,,,,,,,,,,,,,,,,,,,,,,,,,,,,,,,,,,,,,,,,,,,,,,,,,,,,,,,,,,
,,1,1.933,1,1.933,0,40,40,6,1,151,microwave,onion,,89939,006,2022-04-27_20h07.10.476,SPAMnetsValid,2021.1.4,MacIntel,55.55555556,,,,,,,,,,,,,,,,,,,,,,,,,,,,,,,,,,,,,,,,,,,,,,,,,,,,,,,,,,,,,,,,,,,,,,,,,,,,,,,,,,,,,,,,,
,,1,1.324,1,1.324,0,41,41,32,1,182,flower,refrigerator,,89939,006,2022-04-27_20h07.10.476,SPAMnetsValid,2021.1.4,MacIntel,55.55555556,,,,,,,,,,,,,,,,,,,,,,,,,,,,,,,,,,,,,,,,,,,,,,,,,,,,,,,,,,,,,,,,,,,,,,,,,,,,,,,,,,,,,,,,,
,,1,1.044,1,1.044,0,42,42,89,1,140,cookie,refrigerator,,89939,006,2022-04-27_20h07.10.476,SPAMnetsValid,2021.1.4,MacIntel,55.55555556,,,,,,,,,,,,,,,,,,,,,,,,,,,,,,,,,,,,,,,,,,,,,,,,,,,,,,,,,,,,,,,,,,,,,,,,,,,,,,,,,,,,,,,,,
,,9,1.964,9,1.964,0,43,43,86,1,193,melon,melon,CHECK,89939,006,2022-04-27_20h07.10.476,SPAMnetsValid,2021.1.4,MacIntel,55.55555556,,,,,,,,,,,,,,,,,,,,,,,,,,,,,,,,,,,,,,,,,,,,,,,,,,,,,,,,,,,,,,,,,,,,,,,,,,,,,,,,,,,,,,,,,
,,1,2.717,1,2.717,0,44,44,3,1,129,cactus,refrigerator,,89939,006,2022-04-27_20h07.10.476,SPAMnetsValid,2021.1.4,MacIntel,55.55555556,,,,,,,,,,,,,,,,,,,,,,,,,,,,,,,,,,,,,,,,,,,,,,,,,,,,,,,,,,,,,,,,,,,,,,,,,,,,,,,,,,,,,,,,,
,,1,1.319,1,1.319,0,45,45,49,1,152,cactus,strawberry,,89939,006,2022-04-27_20h07.10.476,SPAMnetsValid,2021.1.4,MacIntel,55.55555556,,,,,,,,,,,,,,,,,,,,,,,,,,,,,,,,,,,,,,,,,,,,,,,,,,,,,,,,,,,,,,,,,,,,,,,,,,,,,,,,,,,,,,,,,
,,1,1.322,1,1.322,0,46,46,94,1,133,cake,flower,,89939,006,2022-04-27_20h07.10.476,SPAMnetsValid,2021.1.4,MacIntel,55.55555556,,,,,,,,,,,,,,,,,,,,,,,,,,,,,,,,,,,,,,,,,,,,,,,,,,,,,,,,,,,,,,,,,,,,,,,,,,,,,,,,,,,,,,,,,
,,8,4.227,8,4.227,0,47,47,53,1,177,chocolate,strawberry,,89939,006,2022-04-27_20h07.10.476,SPAMnetsValid,2021.1.4,MacIntel,55.55555556,,,,,,,,,,,,,,,,,,,,,,,,,,,,,,,,,,,,,,,,,,,,,,,,,,,,,,,,,,,,,,,,,,,,,,,,,,,,,,,,,,,,,,,,,
,,1,2.189,1,2.189,0,48,48,90,1,190,microwave,strawberry,,89939,006,2022-04-27_20h07.10.476,SPAMnetsValid,2021.1.4,MacIntel,55.55555556,,,,,,,,,,,,,,,,,,,,,,,,,,,,,,,,,,,,,,,,,,,,,,,,,,,,,,,,,,,,,,,,,,,,,,,,,,,,,,,,,,,,,,,,,
,,9,3.823,9,3.823,0,49,49,44,1,116,cake,chocolate,,89939,006,2022-04-27_20h07.10.476,SPAMnetsValid,2021.1.4,MacIntel,55.55555556,,,,,,,,,,,,,,,,,,,,,,,,,,,,,,,,,,,,,,,,,,,,,,,,,,,,,,,,,,,,,,,,,,,,,,,,,,,,,,,,,,,,,,,,,
,,6,2.063,6,2.063,0,50,50,8,1,97,chocolate,kitchen,,89939,006,2022-04-27_20h07.10.476,SPAMnetsValid,2021.1.4,MacIntel,55.55555556,,,,,,,,,,,,,,,,,,,,,,,,,,,,,,,,,,,,,,,,,,,,,,,,,,,,,,,,,,,,,,,,,,,,,,,,,,,,,,,,,,,,,,,,,
,,1,1.871,1,1.871,0,51,51,21,1,159,cookie,flower,,89939,006,2022-04-27_20h07.10.476,SPAMnetsValid,2021.1.4,MacIntel,55.55555556,,,,,,,,,,,,,,,,,,,,,,,,,,,,,,,,,,,,,,,,,,,,,,,,,,,,,,,,,,,,,,,,,,,,,,,,,,,,,,,,,,,,,,,,,
,,1,1.273,1,1.273,0,52,52,67,1,96,oven,strawberry,,89939,006,2022-04-27_20h07.10.476,SPAMnetsValid,2021.1.4,MacIntel,55.55555556,,,,,,,,,,,,,,,,,,,,,,,,,,,,,,,,,,,,,,,,,,,,,,,,,,,,,,,,,,,,,,,,,,,,,,,,,,,,,,,,,,,,,,,,,
,,4,2.554,4,2.554,0,53,53,43,1,185,cactus,rose,,89939,006,2022-04-27_20h07.10.476,SPAMnetsValid,2021.1.4,MacIntel,55.55555556,,,,,,,,,,,,,,,,,,,,,,,,,,,,,,,,,,,,,,,,,,,,,,,,,,,,,,,,,,,,,,,,,,,,,,,,,,,,,,,,,,,,,,,,,
,,5,2.242,5,2.242,0,54,54,7,1,188,flower,tree,,89939,006,2022-04-27_20h07.10.476,SPAMnetsValid,2021.1.4,MacIntel,55.55555556,,,,,,,,,,,,,,,,,,,,,,,,,,,,,,,,,,,,,,,,,,,,,,,,,,,,,,,,,,,,,,,,,,,,,,,,,,,,,,,,,,,,,,,,,
,,1,1.942,1,1.942,0,55,55,59,1,164,cookie,garden,,89939,006,2022-04-27_20h07.10.476,SPAMnetsValid,2021.1.4,MacIntel,55.55555556,,,,,,,,,,,,,,,,,,,,,,,,,,,,,,,,,,,,,,,,,,,,,,,,,,,,,,,,,,,,,,,,,,,,,,,,,,,,,,,,,,,,,,,,,
,,9,1.896,9,1.896,0,56,56,60,1,122,flower,garden,,89939,006,2022-04-27_20h07.10.476,SPAMnetsValid,2021.1.4,MacIntel,55.55555556,,,,,,,,,,,,,,,,,,,,,,,,,,,,,,,,,,,,,,,,,,,,,,,,,,,,,,,,,,,,,,,,,,,,,,,,,,,,,,,,,,,,,,,,,
,,8,1.943,8,1.943,0,57,57,29,1,163,melon,refrigerator,,89939,006,2022-04-27_20h07.10.476,SPAMnetsValid,2021.1.4,MacIntel,55.55555556,,,,,,,,,,,,,,,,,,,,,,,,,,,,,,,,,,,,,,,,,,,,,,,,,,,,,,,,,,,,,,,,,,,,,,,,,,,,,,,,,,,,,,,,,
,,7,1.313,7,1.313,0,58,58,35,1,147,cake,refrigerator,,89939,006,2022-04-27_20h07.10.476,SPAMnetsValid,2021.1.4,MacIntel,55.55555556,,,,,,,,,,,,,,,,,,,,,,,,,,,,,,,,,,,,,,,,,,,,,,,,,,,,,,,,,,,,,,,,,,,,,,,,,,,,,,,,,,,,,,,,,
,,1,2.523,1,2.523,0,59,59,13,1,105,cactus,oven,,89939,006,2022-04-27_20h07.10.476,SPAMnetsValid,2021.1.4,MacIntel,55.55555556,,,,,,,,,,,,,,,,,,,,,,,,,,,,,,,,,,,,,,,,,,,,,,,,,,,,,,,,,,,,,,,,,,,,,,,,,,,,,,,,,,,,,,,,,
,,9,1.77,9,1.77,0,60,60,17,1,99,garden,melon,,89939,006,2022-04-27_20h07.10.476,SPAMnetsValid,2021.1.4,MacIntel,55.55555556,,,,,,,,,,,,,,,,,,,,,,,,,,,,,,,,,,,,,,,,,,,,,,,,,,,,,,,,,,,,,,,,,,,,,,,,,,,,,,,,,,,,,,,,,
,,1,5.353,1,5.353,0,61,61,57,1,127,cactus,chocolate,,89939,006,2022-04-27_20h07.10.476,SPAMnetsValid,2021.1.4,MacIntel,55.55555556,,,,,,,,,,,,,,,,,,,,,,,,,,,,,,,,,,,,,,,,,,,,,,,,,,,,,,,,,,,,,,,,,,,,,,,,,,,,,,,,,,,,,,,,,
,,1,1.227,1,1.227,0,62,62,75,1,178,cactus,carrot,,89939,006,2022-04-27_20h07.10.476,SPAMnetsValid,2021.1.4,MacIntel,55.55555556,,,,,,,,,,,,,,,,,,,,,,,,,,,,,,,,,,,,,,,,,,,,,,,,,,,,,,,,,,,,,,,,,,,,,,,,,,,,,,,,,,,,,,,,,
,,1,1.56,1,1.56,0,63,63,63,1,137,microwave,tree,,89939,006,2022-04-27_20h07.10.476,SPAMnetsValid,2021.1.4,MacIntel,55.55555556,,,,,,,,,,,,,,,,,,,,,,,,,,,,,,,,,,,,,,,,,,,,,,,,,,,,,,,,,,,,,,,,,,,,,,,,,,,,,,,,,,,,,,,,,
,,5,2.896,5,2.896,0,64,64,93,1,134,carrot,flower,,89939,006,2022-04-27_20h07.10.476,SPAMnetsValid,2021.1.4,MacIntel,55.55555556,,,,,,,,,,,,,,,,,,,,,,,,,,,,,,,,,,,,,,,,,,,,,,,,,,,,,,,,,,,,,,,,,,,,,,,,,,,,,,,,,,,,,,,,,
,,8,1.779,8,1.779,0,65,65,41,1,175,melon,onion,,89939,006,2022-04-27_20h07.10.476,SPAMnetsValid,2021.1.4,MacIntel,55.55555556,,,,,,,,,,,,,,,,,,,,,,,,,,,,,,,,,,,,,,,,,,,,,,,,,,,,,,,,,,,,,,,,,,,,,,,,,,,,,,,,,,,,,,,,,
,,8,0.665,8,0.665,0,66,66,77,1,172,kitchen,melon,,89939,006,2022-04-27_20h07.10.476,SPAMnetsValid,2021.1.4,MacIntel,55.55555556,,,,,,,,,,,,,,,,,,,,,,,,,,,,,,,,,,,,,,,,,,,,,,,,,,,,,,,,,,,,,,,,,,,,,,,,,,,,,,,,,,,,,,,,,
,,8,0.99,8,0.99,0,67,67,11,1,117,melon,strawberry,,89939,006,2022-04-27_20h07.10.476,SPAMnetsValid,2021.1.4,MacIntel,55.55555556,,,,,,,,,,,,,,,,,,,,,,,,,,,,,,,,,,,,,,,,,,,,,,,,,,,,,,,,,,,,,,,,,,,,,,,,,,,,,,,,,,,,,,,,,
,,1,1.925,1,1.925,0,68,68,30,1,125,carrot,tree,,89939,006,2022-04-27_20h07.10.476,SPAMnetsValid,2021.1.4,MacIntel,55.55555556,,,,,,,,,,,,,,,,,,,,,,,,,,,,,,,,,,,,,,,,,,,,,,,,,,,,,,,,,,,,,,,,,,,,,,,,,,,,,,,,,,,,,,,,,
,,3,2.11,3,2.11,0,69,69,36,1,161,kitchen,pretzel,,89939,006,2022-04-27_20h07.10.476,SPAMnetsValid,2021.1.4,MacIntel,55.55555556,,,,,,,,,,,,,,,,,,,,,,,,,,,,,,,,,,,,,,,,,,,,,,,,,,,,,,,,,,,,,,,,,,,,,,,,,,,,,,,,,,,,,,,,,
,,5,2.081,5,2.081,0,70,70,91,1,166,cake,yogurt,,89939,006,2022-04-27_20h07.10.476,SPAMnetsValid,2021.1.4,MacIntel,55.55555556,,,,,,,,,,,,,,,,,,,,,,,,,,,,,,,,,,,,,,,,,,,,,,,,,,,,,,,,,,,,,,,,,,,,,,,,,,,,,,,,,,,,,,,,,
,,1,2.978,1,2.978,0,71,71,73,1,135,carrot,oven,,89939,006,2022-04-27_20h07.10.476,SPAMnetsValid,2021.1.4,MacIntel,55.55555556,,,,,,,,,,,,,,,,,,,,,,,,,,,,,,,,,,,,,,,,,,,,,,,,,,,,,,,,,,,,,,,,,,,,,,,,,,,,,,,,,,,,,,,,,
,,1,2.018,1,2.018,0,72,72,64,1,157,refrigerator,rose,,89939,006,2022-04-27_20h07.10.476,SPAMnetsValid,2021.1.4,MacIntel,55.55555556,,,,,,,,,,,,,,,,,,,,,,,,,,,,,,,,,,,,,,,,,,,,,,,,,,,,,,,,,,,,,,,,,,,,,,,,,,,,,,,,,,,,,,,,,
,,1,2.267,1,2.267,0,73,73,95,1,121,broom,microwave,,89939,006,2022-04-27_20h07.10.476,SPAMnetsValid,2021.1.4,MacIntel,55.55555556,,,,,,,,,,,,,,,,,,,,,,,,,,,,,,,,,,,,,,,,,,,,,,,,,,,,,,,,,,,,,,,,,,,,,,,,,,,,,,,,,,,,,,,,,
,,3,2.405,3,2.405,0,74,74,24,1,169,onion,yogurt,,89939,006,2022-04-27_20h07.10.476,SPAMnetsValid,2021.1.4,MacIntel,55.55555556,,,,,,,,,,,,,,,,,,,,,,,,,,,,,,,,,,,,,,,,,,,,,,,,,,,,,,,,,,,,,,,,,,,,,,,,,,,,,,,,,,,,,,,,,
,,1,1.41,1,1.41,0,75,75,55,1,143,pretzel,rose,,89939,006,2022-04-27_20h07.10.476,SPAMnetsValid,2021.1.4,MacIntel,55.55555556,,,,,,,,,,,,,,,,,,,,,,,,,,,,,,,,,,,,,,,,,,,,,,,,,,,,,,,,,,,,,,,,,,,,,,,,,,,,,,,,,,,,,,,,,
,,3,1.691,3,1.691,0,76,76,82,1,98,pretzel,strawberry,,89939,006,2022-04-27_20h07.10.476,SPAMnetsValid,2021.1.4,MacIntel,55.55555556,,,,,,,,,,,,,,,,,,,,,,,,,,,,,,,,,,,,,,,,,,,,,,,,,,,,,,,,,,,,,,,,,,,,,,,,,,,,,,,,,,,,,,,,,
,,3,1.562,3,1.562,0,77,77,0,1,106,cake,strawberry,,89939,006,2022-04-27_20h07.10.476,SPAMnetsValid,2021.1.4,MacIntel,55.55555556,,,,,,,,,,,,,,,,,,,,,,,,,,,,,,,,,,,,,,,,,,,,,,,,,,,,,,,,,,,,,,,,,,,,,,,,,,,,,,,,,,,,,,,,,
,,1,3.013,1,3.013,0,78,78,16,1,111,carrot,microwave,,89939,006,2022-04-27_20h07.10.476,SPAMnetsValid,2021.1.4,MacIntel,55.55555556,,,,,,,,,,,,,,,,,,,,,,,,,,,,,,,,,,,,,,,,,,,,,,,,,,,,,,,,,,,,,,,,,,,,,,,,,,,,,,,,,,,,,,,,,
,,1,1.873,1,1.873,0,79,79,45,1,179,broom,oven,,89939,006,2022-04-27_20h07.10.476,SPAMnetsValid,2021.1.4,MacIntel,55.55555556,,,,,,,,,,,,,,,,,,,,,,,,,,,,,,,,,,,,,,,,,,,,,,,,,,,,,,,,,,,,,,,,,,,,,,,,,,,,,,,,,,,,,,,,,
,,9,3.581,9,3.581,0,80,80,66,1,150,microwave,refrigerator,,89939,006,2022-04-27_20h07.10.476,SPAMnetsValid,2021.1.4,MacIntel,55.55555556,,,,,,,,,,,,,,,,,,,,,,,,,,,,,,,,,,,,,,,,,,,,,,,,,,,,,,,,,,,,,,,,,,,,,,,,,,,,,,,,,,,,,,,,,
,,5,3.651,5,3.651,0,81,81,27,1,158,cookie,oven,,89939,006,2022-04-27_20h07.10.476,SPAMnetsValid,2021.1.4,MacIntel,55.55555556,,,,,,,,,,,,,,,,,,,,,,,,,,,,,,,,,,,,,,,,,,,,,,,,,,,,,,,,,,,,,,,,,,,,,,,,,,,,,,,,,,,,,,,,,
,,6,2.574,6,2.574,0,82,82,23,1,148,flower,melon,,89939,006,2022-04-27_20h07.10.476,SPAMnetsValid,2021.1.4,MacIntel,55.55555556,,,,,,,,,,,,,,,,,,,,,,,,,,,,,,,,,,,,,,,,,,,,,,,,,,,,,,,,,,,,,,,,,,,,,,,,,,,,,,,,,,,,,,,,,
,,1,1.929,1,1.929,0,83,83,78,1,132,broom,tree,,89939,006,2022-04-27_20h07.10.476,SPAMnetsValid,2021.1.4,MacIntel,55.55555556,,,,,,,,,,,,,,,,,,,,,,,,,,,,,,,,,,,,,,,,,,,,,,,,,,,,,,,,,,,,,,,,,,,,,,,,,,,,,,,,,,,,,,,,,
,,1,1.195,1,1.195,0,84,84,62,1,189,onion,tree,,89939,006,2022-04-27_20h07.10.476,SPAMnetsValid,2021.1.4,MacIntel,55.55555556,,,,,,,,,,,,,,,,,,,,,,,,,,,,,,,,,,,,,,,,,,,,,,,,,,,,,,,,,,,,,,,,,,,,,,,,,,,,,,,,,,,,,,,,,
,,1,1.077,1,1.077,0,85,85,46,1,123,cookie,tree,,89939,006,2022-04-27_20h07.10.476,SPAMnetsValid,2021.1.4,MacIntel,55.55555556,,,,,,,,,,,,,,,,,,,,,,,,,,,,,,,,,,,,,,,,,,,,,,,,,,,,,,,,,,,,,,,,,,,,,,,,,,,,,,,,,,,,,,,,,
,,1,1.821,1,1.821,0,86,86,22,1,142,garden,tree,,89939,006,2022-04-27_20h07.10.476,SPAMnetsValid,2021.1.4,MacIntel,55.55555556,,,,,,,,,,,,,,,,,,,,,,,,,,,,,,,,,,,,,,,,,,,,,,,,,,,,,,,,,,,,,,,,,,,,,,,,,,,,,,,,,,,,,,,,,
,,9,2.03,9,2.03,0,87,87,83,1,100,garden,tomato,,89939,006,2022-04-27_20h07.10.476,SPAMnetsValid,2021.1.4,MacIntel,55.55555556,,,,,,,,,,,,,,,,,,,,,,,,,,,,,,,,,,,,,,,,,,,,,,,,,,,,,,,,,,,,,,,,,,,,,,,,,,,,,,,,,,,,,,,,,
,,6,2.49,6,2.49,0,88,88,2,1,174,cake,pretzel,,89939,006,2022-04-27_20h07.10.476,SPAMnetsValid,2021.1.4,MacIntel,55.55555556,,,,,,,,,,,,,,,,,,,,,,,,,,,,,,,,,,,,,,,,,,,,,,,,,,,,,,,,,,,,,,,,,,,,,,,,,,,,,,,,,,,,,,,,,
,,1,1.912,1,1.912,0,89,89,4,1,109,broom,strawberry,,89939,006,2022-04-27_20h07.10.476,SPAMnetsValid,2021.1.4,MacIntel,55.55555556,,,,,,,,,,,,,,,,,,,,,,,,,,,,,,,,,,,,,,,,,,,,,,,,,,,,,,,,,,,,,,,,,,,,,,,,,,,,,,,,,,,,,,,,,
,,1,3.743,1,3.743,0,90,90,15,1,145,cactus,yogurt,,89939,006,2022-04-27_20h07.10.476,SPAMnetsValid,2021.1.4,MacIntel,55.55555556,,,,,,,,,,,,,,,,,,,,,,,,,,,,,,,,,,,,,,,,,,,,,,,,,,,,,,,,,,,,,,,,,,,,,,,,,,,,,,,,,,,,,,,,,
,,2,2.548,2,2.548,0,91,91,18,1,119,strawberry,tree,,89939,006,2022-04-27_20h07.10.476,SPAMnetsValid,2021.1.4,MacIntel,55.55555556,,,,,,,,,,,,,,,,,,,,,,,,,,,,,,,,,,,,,,,,,,,,,,,,,,,,,,,,,,,,,,,,,,,,,,,,,,,,,,,,,,,,,,,,,
,,1,2.132,1,2.132,0,92,92,40,1,165,onion,rose,,89939,006,2022-04-27_20h07.10.476,SPAMnetsValid,2021.1.4,MacIntel,55.55555556,,,,,,,,,,,,,,,,,,,,,,,,,,,,,,,,,,,,,,,,,,,,,,,,,,,,,,,,,,,,,,,,,,,,,,,,,,,,,,,,,,,,,,,,,
,,9,1.856,9,1.856,0,93,93,52,1,110,chocolate,cookie,,89939,006,2022-04-27_20h07.10.476,SPAMnetsValid,2021.1.4,MacIntel,55.55555556,,,,,,,,,,,,,,,,,,,,,,,,,,,,,,,,,,,,,,,,,,,,,,,,,,,,,,,,,,,,,,,,,,,,,,,,,,,,,,,,,,,,,,,,,
,,1,2.219,1,2.219,0,94,94,68,1,180,tree,yogurt,,89939,006,2022-04-27_20h07.10.476,SPAMnetsValid,2021.1.4,MacIntel,55.55555556,,,,,,,,,,,,,,,,,,,,,,,,,,,,,,,,,,,,,,,,,,,,,,,,,,,,,,,,,,,,,,,,,,,,,,,,,,,,,,,,,,,,,,,,,
,,3,1.468,3,1.468,0,95,95,96,1,136,chocolate,microwave,,89939,006,2022-04-27_20h07.10.476,SPAMnetsValid,2021.1.4,MacIntel,55.55555556,,,,,,,,,,,,,,,,,,,,,,,,,,,,,,,,,,,,,,,,,,,,,,,,,,,,,,,,,,,,,,,,,,,,,,,,,,,,,,,,,,,,,,,,,
,,1,1.802,1,1.802,0,96,96,74,1,128,melon,microwave,,89939,006,2022-04-27_20h07.10.476,SPAMnetsValid,2021.1.4,MacIntel,55.55555556,,,,,,,,,,,,,,,,,,,,,,,,,,,,,,,,,,,,,,,,,,,,,,,,,,,,,,,,,,,,,,,,,,,,,,,,,,,,,,,,,,,,,,,,,
,,,,,,,,,,,,,,,89939,006,2022-04-27_20h07.10.476,SPAMnetsValid,2021.1.4,MacIntel,55.55555556,0,0,0,0,1,,,,,,,,,,,,,,,,,,,,,,,,,,,,,,,,,,,,,,,,,,,,,,,,,,,,,,,,,,,,,,,,,,,,,,,,,,,,,,,,,,,,
,,,,,,,,,,,,,,,89939,006,2022-04-27_20h07.10.476,SPAMnetsValid,2021.1.4,MacIntel,55.55555556,,,,,,0,0,0,1,1,0,1,,,,,,,,,,,,,,,,,,,,,,,,,,,,,,,,,,,,,,,,,,,,,,,,,,,,,,,,,,,,,,,,,,,,,,,,,,,,,
,,,,1,5.09,,,,,,26,tomato,yogurt,,89939,006,2022-04-27_20h07.10.476,SPAMnetsValid,2021.1.4,MacIntel,55.55555556,,,,,,,,,,,,,1,5.09,0,0,0,13,1,,,,,,,,,,,,,,,,,,,,,,,,,,,,,,,,,,,,,,,,,,,,,,,,,,,,,,,,,,,,,,,,,,,,,,
,,,,1,1.103,,,,,,72,broom,onion,,89939,006,2022-04-27_20h07.10.476,SPAMnetsValid,2021.1.4,MacIntel,55.55555556,,,,,,,,,,,,,1,1.103,0,1,1,27,1,,,,,,,,,,,,,,,,,,,,,,,,,,,,,,,,,,,,,,,,,,,,,,,,,,,,,,,,,,,,,,,,,,,,,,
,,,,1,2.825,,,,,,58,garden,oven,,89939,006,2022-04-27_20h07.10.476,SPAMnetsValid,2021.1.4,MacIntel,55.55555556,,,,,,,,,,,,,1,2.825,0,2,2,37,1,,,,,,,,,,,,,,,,,,,,,,,,,,,,,,,,,,,,,,,,,,,,,,,,,,,,,,,,,,,,,,,,,,,,,,
,,,,4,1.667,,,,,,49,flower,strawberry,,89939,006,2022-04-27_20h07.10.476,SPAMnetsValid,2021.1.4,MacIntel,55.55555556,,,,,,,,,,,,,4,1.667,0,3,3,3,1,,,,,,,,,,,,,,,,,,,,,,,,,,,,,,,,,,,,,,,,,,,,,,,,,,,,,,,,,,,,,,,,,,,,,,
,,,,8,2.033,,,,,,4,chocolate,pretzel,,89939,006,2022-04-27_20h07.10.476,SPAMnetsValid,2021.1.4,MacIntel,55.55555556,,,,,,,,,,,,,8,2.033,0,4,4,52,1,,,,,,,,,,,,,,,,,,,,,,,,,,,,,,,,,,,,,,,,,,,,,,,,,,,,,,,,,,,,,,,,,,,,,,
,,,,1,2.196,,,,,,41,broom,cactus,,89939,006,2022-04-27_20h07.10.476,SPAMnetsValid,2021.1.4,MacIntel,55.55555556,,,,,,,,,,,,,1,2.196,0,5,5,46,1,,,,,,,,,,,,,,,,,,,,,,,,,,,,,,,,,,,,,,,,,,,,,,,,,,,,,,,,,,,,,,,,,,,,,,
,,,,1,1.248,,,,,,5,oven,tree,,89939,006,2022-04-27_20h07.10.476,SPAMnetsValid,2021.1.4,MacIntel,55.55555556,,,,,,,,,,,,,1,1.248,0,6,6,70,1,,,,,,,,,,,,,,,,,,,,,,,,,,,,,,,,,,,,,,,,,,,,,,,,,,,,,,,,,,,,,,,,,,,,,,
,,,,8,1.404,,,,,,77,refrigerator,yogurt,,89939,006,2022-04-27_20h07.10.476,SPAMnetsValid,2021.1.4,MacIntel,55.55555556,,,,,,,,,,,,,8,1.404,0,7,7,42,1,,,,,,,,,,,,,,,,,,,,,,,,,,,,,,,,,,,,,,,,,,,,,,,,,,,,,,,,,,,,,,,,,,,,,,
,,,,3,2.686,,,,,,28,cake,melon,,89939,006,2022-04-27_20h07.10.476,SPAMnetsValid,2021.1.4,MacIntel,55.55555556,,,,,,,,,,,,,3,2.686,0,8,8,54,1,,,,,,,,,,,,,,,,,,,,,,,,,,,,,,,,,,,,,,,,,,,,,,,,,,,,,,,,,,,,,,,,,,,,,,
,,,,2,1.252,,,,,,32,cake,microwave,,89939,006,2022-04-27_20h07.10.476,SPAMnetsValid,2021.1.4,MacIntel,55.55555556,,,,,,,,,,,,,2,1.252,0,9,9,33,1,,,,,,,,,,,,,,,,,,,,,,,,,,,,,,,,,,,,,,,,,,,,,,,,,,,,,,,,,,,,,,,,,,,,,,
,,,,9,3.203,,,,,,36,broom,kitchen,,89939,006,2022-04-27_20h07.10.476,SPAMnetsValid,2021.1.4,MacIntel,55.55555556,,,,,,,,,,,,,9,3.203,0,10,10,76,1,,,,,,,,,,,,,,,,,,,,,,,,,,,,,,,,,,,,,,,,,,,,,,,,,,,,,,,,,,,,,,,,,,,,,,
,,,,1,2.495,,,,,,23,flower,microwave,,89939,006,2022-04-27_20h07.10.476,SPAMnetsValid,2021.1.4,MacIntel,55.55555556,,,,,,,,,,,,,1,2.495,0,11,11,25,1,,,,,,,,,,,,,,,,,,,,,,,,,,,,,,,,,,,,,,,,,,,,,,,,,,,,,,,,,,,,,,,,,,,,,,
,,,,7,4.267,,,,,,69,carrot,refrigerator,,89939,006,2022-04-27_20h07.10.476,SPAMnetsValid,2021.1.4,MacIntel,55.55555556,,,,,,,,,,,,,7,4.267,0,12,12,75,1,,,,,,,,,,,,,,,,,,,,,,,,,,,,,,,,,,,,,,,,,,,,,,,,,,,,,,,,,,,,,,,,,,,,,,
,,,,1,1.68,,,,,,83,broom,carrot,,89939,006,2022-04-27_20h07.10.476,SPAMnetsValid,2021.1.4,MacIntel,55.55555556,,,,,,,,,,,,,1,1.68,0,13,13,4,1,,,,,,,,,,,,,,,,,,,,,,,,,,,,,,,,,,,,,,,,,,,,,,,,,,,,,,,,,,,,,,,,,,,,,,
,,,,1,1.062,,,,,,74,broom,pretzel,,89939,006,2022-04-27_20h07.10.476,SPAMnetsValid,2021.1.4,MacIntel,55.55555556,,,,,,,,,,,,,1,1.062,0,14,14,40,1,,,,,,,,,,,,,,,,,,,,,,,,,,,,,,,,,,,,,,,,,,,,,,,,,,,,,,,,,,,,,,,,,,,,,,
,,,,1,0.699,,,,,,71,broom,rose,,89939,006,2022-04-27_20h07.10.476,SPAMnetsValid,2021.1.4,MacIntel,55.55555556,,,,,,,,,,,,,1,0.699,0,15,15,61,1,,,,,,,,,,,,,,,,,,,,,,,,,,,,,,,,,,,,,,,,,,,,,,,,,,,,,,,,,,,,,,,,,,,,,,
,,,,7,1.508,,,,,,76,garden,rose,,89939,006,2022-04-27_20h07.10.476,SPAMnetsValid,2021.1.4,MacIntel,55.55555556,,,,,,,,,,,,,7,1.508,0,16,16,19,1,,,,,,,,,,,,,,,,,,,,,,,,,,,,,,,,,,,,,,,,,,,,,,,,,,,,,,,,,,,,,,,,,,,,,,
,,,,1,2.797,,,,,,64,chocolate,garden,,89939,006,2022-04-27_20h07.10.476,SPAMnetsValid,2021.1.4,MacIntel,55.55555556,,,,,,,,,,,,,1,2.797,0,17,17,14,1,,,,,,,,,,,,,,,,,,,,,,,,,,,,,,,,,,,,,,,,,,,,,,,,,,,,,,,,,,,,,,,,,,,,,,
,,,,9,1.695,,,,,,61,strawberry,tomato,,89939,006,2022-04-27_20h07.10.476,SPAMnetsValid,2021.1.4,MacIntel,55.55555556,,,,,,,,,,,,,9,1.695,0,18,18,80,1,,,,,,,,,,,,,,,,,,,,,,,,,,,,,,,,,,,,,,,,,,,,,,,,,,,,,,,,,,,,,,,,,,,,,,
,,,,9,1.178,,,,,,10,flower,onion,,89939,006,2022-04-27_20h07.10.476,SPAMnetsValid,2021.1.4,MacIntel,55.55555556,,,,,,,,,,,,,9,1.178,0,19,19,45,1,,,,,,,,,,,,,,,,,,,,,,,,,,,,,,,,,,,,,,,,,,,,,,,,,,,,,,,,,,,,,,,,,,,,,,
,,,,9,0.586,,,,,,68,flower,tomato,,89939,006,2022-04-27_20h07.10.476,SPAMnetsValid,2021.1.4,MacIntel,55.55555556,,,,,,,,,,,,,9,0.586,0,20,20,94,1,,,,,,,,,,,,,,,,,,,,,,,,,,,,,,,,,,,,,,,,,,,,,,,,,,,,,,,,,,,,,,,,,,,,,,
,,,,1,1.801,,,,,,84,oven,tomato,,89939,006,2022-04-27_20h07.10.476,SPAMnetsValid,2021.1.4,MacIntel,55.55555556,,,,,,,,,,,,,1,1.801,0,21,21,28,1,,,,,,,,,,,,,,,,,,,,,,,,,,,,,,,,,,,,,,,,,,,,,,,,,,,,,,,,,,,,,,,,,,,,,,
,,,,1,1.958,,,,,,7,melon,tree,,89939,006,2022-04-27_20h07.10.476,SPAMnetsValid,2021.1.4,MacIntel,55.55555556,,,,,,,,,,,,,1,1.958,0,22,22,77,1,,,,,,,,,,,,,,,,,,,,,,,,,,,,,,,,,,,,,,,,,,,,,,,,,,,,,,,,,,,,,,,,,,,,,,
,,,,1,1.408,,,,,,24,cookie,tomato,,89939,006,2022-04-27_20h07.10.476,SPAMnetsValid,2021.1.4,MacIntel,55.55555556,,,,,,,,,,,,,1,1.408,0,23,23,68,1,,,,,,,,,,,,,,,,,,,,,,,,,,,,,,,,,,,,,,,,,,,,,,,,,,,,,,,,,,,,,,,,,,,,,,
,,,,1,1.86,,,,,,13,broom,yogurt,,89939,006,2022-04-27_20h07.10.476,SPAMnetsValid,2021.1.4,MacIntel,55.55555556,,,,,,,,,,,,,1,1.86,0,24,24,5,1,,,,,,,,,,,,,,,,,,,,,,,,,,,,,,,,,,,,,,,,,,,,,,,,,,,,,,,,,,,,,,,,,,,,,,
,,,,1,1.292,,,,,,55,tomato,tree,,89939,006,2022-04-27_20h07.10.476,SPAMnetsValid,2021.1.4,MacIntel,55.55555556,,,,,,,,,,,,,1,1.292,0,25,25,35,1,,,,,,,,,,,,,,,,,,,,,,,,,,,,,,,,,,,,,,,,,,,,,,,,,,,,,,,,,,,,,,,,,,,,,,
,,,,2,2.823,,,,,,46,garden,yogurt,,89939,006,2022-04-27_20h07.10.476,SPAMnetsValid,2021.1.4,MacIntel,55.55555556,,,,,,,,,,,,,2,2.823,0,26,26,65,1,,,,,,,,,,,,,,,,,,,,,,,,,,,,,,,,,,,,,,,,,,,,,,,,,,,,,,,,,,,,,,,,,,,,,,
,,,,1,1.428,,,,,,14,broom,cookie,,89939,006,2022-04-27_20h07.10.476,SPAMnetsValid,2021.1.4,MacIntel,55.55555556,,,,,,,,,,,,,1,1.428,0,27,27,16,1,,,,,,,,,,,,,,,,,,,,,,,,,,,,,,,,,,,,,,,,,,,,,,,,,,,,,,,,,,,,,,,,,,,,,,
,,,,1,1.043,,,,,,65,broom,garden,,89939,006,2022-04-27_20h07.10.476,SPAMnetsValid,2021.1.4,MacIntel,55.55555556,,,,,,,,,,,,,1,1.043,0,28,28,23,1,,,,,,,,,,,,,,,,,,,,,,,,,,,,,,,,,,,,,,,,,,,,,,,,,,,,,,,,,,,,,,,,,,,,,,
,,,,3,1.912,,,,,,12,cookie,yogurt,,89939,006,2022-04-27_20h07.10.476,SPAMnetsValid,2021.1.4,MacIntel,55.55555556,,,,,,,,,,,,,3,1.912,0,29,29,36,1,,,,,,,,,,,,,,,,,,,,,,,,,,,,,,,,,,,,,,,,,,,,,,,,,,,,,,,,,,,,,,,,,,,,,,
,,,,1,2.083,,,,,,62,kitchen,rose,,89939,006,2022-04-27_20h07.10.476,SPAMnetsValid,2021.1.4,MacIntel,55.55555556,,,,,,,,,,,,,1,2.083,0,30,30,57,1,,,,,,,,,,,,,,,,,,,,,,,,,,,,,,,,,,,,,,,,,,,,,,,,,,,,,,,,,,,,,,,,,,,,,,
,,,,5,3.038,,,,,,42,garden,kitchen,,89939,006,2022-04-27_20h07.10.476,SPAMnetsValid,2021.1.4,MacIntel,55.55555556,,,,,,,,,,,,,5,3.038,0,31,31,29,1,,,,,,,,,,,,,,,,,,,,,,,,,,,,,,,,,,,,,,,,,,,,,,,,,,,,,,,,,,,,,,,,,,,,,,
,,,,1,2.387,,,,,,56,cactus,tree,,89939,006,2022-04-27_20h07.10.476,SPAMnetsValid,2021.1.4,MacIntel,55.55555556,,,,,,,,,,,,,1,2.387,0,32,32,21,1,,,,,,,,,,,,,,,,,,,,,,,,,,,,,,,,,,,,,,,,,,,,,,,,,,,,,,,,,,,,,,,,,,,,,,
,,,,1,1.486,,,,,,8,broom,melon,,89939,006,2022-04-27_20h07.10.476,SPAMnetsValid,2021.1.4,MacIntel,55.55555556,,,,,,,,,,,,,1,1.486,0,33,33,59,1,,,,,,,,,,,,,,,,,,,,,,,,,,,,,,,,,,,,,,,,,,,,,,,,,,,,,,,,,,,,,,,,,,,,,,
,,,,9,1.652,,,,,,9,kitchen,refrigerator,,89939,006,2022-04-27_20h07.10.476,SPAMnetsValid,2021.1.4,MacIntel,55.55555556,,,,,,,,,,,,,9,1.652,0,34,34,64,1,,,,,,,,,,,,,,,,,,,,,,,,,,,,,,,,,,,,,,,,,,,,,,,,,,,,,,,,,,,,,,,,,,,,,,
,,,,3,1.359,,,,,,48,flower,oven,,89939,006,2022-04-27_20h07.10.476,SPAMnetsValid,2021.1.4,MacIntel,55.55555556,,,,,,,,,,,,,3,1.359,0,35,35,15,1,,,,,,,,,,,,,,,,,,,,,,,,,,,,,,,,,,,,,,,,,,,,,,,,,,,,,,,,,,,,,,,,,,,,,,
,,,,1,1.213,,,,,,73,broom,chocolate,,89939,006,2022-04-27_20h07.10.476,SPAMnetsValid,2021.1.4,MacIntel,55.55555556,,,,,,,,,,,,,1,1.213,0,36,36,47,1,,,,,,,,,,,,,,,,,,,,,,,,,,,,,,,,,,,,,,,,,,,,,,,,,,,,,,,,,,,,,,,,,,,,,,
,,,,8,1.677,,,,,,82,cake,kitchen,,89939,006,2022-04-27_20h07.10.476,SPAMnetsValid,2021.1.4,MacIntel,55.55555556,,,,,,,,,,,,,8,1.677,0,37,37,96,1,,,,,,,,,,,,,,,,,,,,,,,,,,,,,,,,,,,,,,,,,,,,,,,,,,,,,,,,,,,,,,,,,,,,,,
,,,,2,1.514,,,,,,16,chocolate,flower,,89939,006,2022-04-27_20h07.10.476,SPAMnetsValid,2021.1.4,MacIntel,55.55555556,,,,,,,,,,,,,2,1.514,0,38,38,22,1,,,,,,,,,,,,,,,,,,,,,,,,,,,,,,,,,,,,,,,,,,,,,,,,,,,,,,,,,,,,,,,,,,,,,,
,,,,7,2.933,,,,,,22,kitchen,strawberry,,89939,006,2022-04-27_20h07.10.476,SPAMnetsValid,2021.1.4,MacIntel,55.55555556,,,,,,,,,,,,,7,2.933,0,39,39,2,1,,,,,,,,,,,,,,,,,,,,,,,,,,,,,,,,,,,,,,,,,,,,,,,,,,,,,,,,,,,,,,,,,,,,,,
,,,,1,2.87,,,,,,95,broom,refrigerator,,89939,006,2022-04-27_20h07.10.476,SPAMnetsValid,2021.1.4,MacIntel,55.55555556,,,,,,,,,,,,,1,2.87,0,40,40,90,1,,,,,,,,,,,,,,,,,,,,,,,,,,,,,,,,,,,,,,,,,,,,,,,,,,,,,,,,,,,,,,,,,,,,,,
,,,,6,2.273,,,,,,3,cake,oven,,89939,006,2022-04-27_20h07.10.476,SPAMnetsValid,2021.1.4,MacIntel,55.55555556,,,,,,,,,,,,,6,2.273,0,41,41,30,1,,,,,,,,,,,,,,,,,,,,,,,,,,,,,,,,,,,,,,,,,,,,,,,,,,,,,,,,,,,,,,,,,,,,,,
,,,,9,1.763,,,,,,6,garden,onion,,89939,006,2022-04-27_20h07.10.476,SPAMnetsValid,2021.1.4,MacIntel,55.55555556,,,,,,,,,,,,,9,1.763,0,42,42,83,1,,,,,,,,,,,,,,,,,,,,,,,,,,,,,,,,,,,,,,,,,,,,,,,,,,,,,,,,,,,,,,,,,,,,,,
,,,,9,1.544,,,,,,59,rose,strawberry,,89939,006,2022-04-27_20h07.10.476,SPAMnetsValid,2021.1.4,MacIntel,55.55555556,,,,,,,,,,,,,9,1.544,0,43,43,72,1,,,,,,,,,,,,,,,,,,,,,,,,,,,,,,,,,,,,,,,,,,,,,,,,,,,,,,,,,,,,,,,,,,,,,,
,,,,3,2.035,,,,,,15,onion,oven,,89939,006,2022-04-27_20h07.10.476,SPAMnetsValid,2021.1.4,MacIntel,55.55555556,,,,,,,,,,,,,3,2.035,0,44,44,39,1,,,,,,,,,,,,,,,,,,,,,,,,,,,,,,,,,,,,,,,,,,,,,,,,,,,,,,,,,,,,,,,,,,,,,,
,,,,2,1.698,,,,,,91,microwave,rose,,89939,006,2022-04-27_20h07.10.476,SPAMnetsValid,2021.1.4,MacIntel,55.55555556,,,,,,,,,,,,,2,1.698,0,45,45,84,1,,,,,,,,,,,,,,,,,,,,,,,,,,,,,,,,,,,,,,,,,,,,,,,,,,,,,,,,,,,,,,,,,,,,,,
,,,,1,3.523,,,,,,90,cactus,cake,,89939,006,2022-04-27_20h07.10.476,SPAMnetsValid,2021.1.4,MacIntel,55.55555556,,,,,,,,,,,,,1,3.523,0,46,46,85,1,,,,,,,,,,,,,,,,,,,,,,,,,,,,,,,,,,,,,,,,,,,,,,,,,,,,,,,,,,,,,,,,,,,,,,
,,,,1,1.275,,,,,,80,chocolate,tree,,89939,006,2022-04-27_20h07.10.476,SPAMnetsValid,2021.1.4,MacIntel,55.55555556,,,,,,,,,,,,,1,1.275,0,47,47,89,1,,,,,,,,,,,,,,,,,,,,,,,,,,,,,,,,,,,,,,,,,,,,,,,,,,,,,,,,,,,,,,,,,,,,,,
,,,,3,2.189,,,,,,60,cactus,onion,,89939,006,2022-04-27_20h07.10.476,SPAMnetsValid,2021.1.4,MacIntel,55.55555556,,,,,,,,,,,,,3,2.189,0,48,48,81,1,,,,,,,,,,,,,,,,,,,,,,,,,,,,,,,,,,,,,,,,,,,,,,,,,,,,,,,,,,,,,,,,,,,,,,
,,,,1,2.399,,,,,,20,rose,tree,,89939,006,2022-04-27_20h07.10.476,SPAMnetsValid,2021.1.4,MacIntel,55.55555556,,,,,,,,,,,,,1,2.399,0,49,49,66,1,,,,,,,,,,,,,,,,,,,,,,,,,,,,,,,,,,,,,,,,,,,,,,,,,,,,,,,,,,,,,,,,,,,,,,
,,,,1,1.145,,,,,,75,cookie,onion,,89939,006,2022-04-27_20h07.10.476,SPAMnetsValid,2021.1.4,MacIntel,55.55555556,,,,,,,,,,,,,1,1.145,0,50,50,9,1,,,,,,,,,,,,,,,,,,,,,,,,,,,,,,,,,,,,,,,,,,,,,,,,,,,,,,,,,,,,,,,,,,,,,,
,,,,1,1.003,,,,,,33,oven,yogurt,,89939,006,2022-04-27_20h07.10.476,SPAMnetsValid,2021.1.4,MacIntel,55.55555556,,,,,,,,,,,,,1,1.003,0,51,51,31,1,,,,,,,,,,,,,,,,,,,,,,,,,,,,,,,,,,,,,,,,,,,,,,,,,,,,,,,,,,,,,,,,,,,,,,
,,,,6,5.245,,,,,,37,garden,refrigerator,,89939,006,2022-04-27_20h07.10.476,SPAMnetsValid,2021.1.4,MacIntel,55.55555556,,,,,,,,,,,,,6,5.245,0,52,52,11,1,,,,,,,,,,,,,,,,,,,,,,,,,,,,,,,,,,,,,,,,,,,,,,,,,,,,,,,,,,,,,,,,,,,,,,
,,,,7,1.53,,,,,,52,carrot,tomato,,89939,006,2022-04-27_20h07.10.476,SPAMnetsValid,2021.1.4,MacIntel,55.55555556,,,,,,,,,,,,,7,1.53,0,53,53,95,1,,,,,,,,,,,,,,,,,,,,,,,,,,,,,,,,,,,,,,,,,,,,,,,,,,,,,,,,,,,,,,,,,,,,,,
,,,,1,1.312,,,,,,35,flower,pretzel,,89939,006,2022-04-27_20h07.10.476,SPAMnetsValid,2021.1.4,MacIntel,55.55555556,,,,,,,,,,,,,1,1.312,0,54,54,26,1,,,,,,,,,,,,,,,,,,,,,,,,,,,,,,,,,,,,,,,,,,,,,,,,,,,,,,,,,,,,,,,,,,,,,,
,,,,1,1.282,,,,,,67,flower,yogurt,,89939,006,2022-04-27_20h07.10.476,SPAMnetsValid,2021.1.4,MacIntel,55.55555556,,,,,,,,,,,,,1,1.282,0,55,55,12,1,,,,,,,,,,,,,,,,,,,,,,,,,,,,,,,,,,,,,,,,,,,,,,,,,,,,,,,,,,,,,,,,,,,,,,
,,,,1,1.909,,,,,,29,chocolate,melon,,89939,006,2022-04-27_20h07.10.476,SPAMnetsValid,2021.1.4,MacIntel,55.55555556,,,,,,,,,,,,,1,1.909,0,56,56,34,1,,,,,,,,,,,,,,,,,,,,,,,,,,,,,,,,,,,,,,,,,,,,,,,,,,,,,,,,,,,,,,,,,,,,,,
,,,,1,1.884,,,,,,44,cookie,melon,,89939,006,2022-04-27_20h07.10.476,SPAMnetsValid,2021.1.4,MacIntel,55.55555556,,,,,,,,,,,,,1,1.884,0,57,57,92,1,,,,,,,,,,,,,,,,,,,,,,,,,,,,,,,,,,,,,,,,,,,,,,,,,,,,,,,,,,,,,,,,,,,,,,
,,,,1,3.763,,,,,,43,chocolate,tomato,,89939,006,2022-04-27_20h07.10.476,SPAMnetsValid,2021.1.4,MacIntel,55.55555556,,,,,,,,,,,,,1,3.763,0,58,58,8,1,,,,,,,,,,,,,,,,,,,,,,,,,,,,,,,,,,,,,,,,,,,,,,,,,,,,,,,,,,,,,,,,,,,,,,
,,,,1,2.69,,,,,,53,garden,pretzel,,89939,006,2022-04-27_20h07.10.476,SPAMnetsValid,2021.1.4,MacIntel,55.55555556,,,,,,,,,,,,,1,2.69,0,59,59,0,1,,,,,,,,,,,,,,,,,,,,,,,,,,,,,,,,,,,,,,,,,,,,,,,,,,,,,,,,,,,,,,,,,,,,,,
,,,,7,1.681,,,,,,17,carrot,melon,,89939,006,2022-04-27_20h07.10.476,SPAMnetsValid,2021.1.4,MacIntel,55.55555556,,,,,,,,,,,,,7,1.681,0,60,60,24,1,,,,,,,,,,,,,,,,,,,,,,,,,,,,,,,,,,,,,,,,,,,,,,,,,,,,,,,,,,,,,,,,,,,,,,
,,,,1,1.945,,,,,,21,cake,onion,,89939,006,2022-04-27_20h07.10.476,SPAMnetsValid,2021.1.4,MacIntel,55.55555556,,,,,,,,,,,,,1,1.945,0,61,61,63,1,,,,,,,,,,,,,,,,,,,,,,,,,,,,,,,,,,,,,,,,,,,,,,,,,,,,,,,,,,,,,,,,,,,,,,
,,,,1,1.139,,,,,,86,oven,rose,,89939,006,2022-04-27_20h07.10.476,SPAMnetsValid,2021.1.4,MacIntel,55.55555556,,,,,,,,,,,,,1,1.139,0,62,62,79,1,,,,,,,,,,,,,,,,,,,,,,,,,,,,,,,,,,,,,,,,,,,,,,,,,,,,,,,,,,,,,,,,,,,,,,
,,,,1,1.115,,,,,,70,chocolate,onion,,89939,006,2022-04-27_20h07.10.476,SPAMnetsValid,2021.1.4,MacIntel,55.55555556,,,,,,,,,,,,,1,1.115,0,63,63,74,1,,,,,,,,,,,,,,,,,,,,,,,,,,,,,,,,,,,,,,,,,,,,,,,,,,,,,,,,,,,,,,,,,,,,,,
,,,,9,2.614,,,,,,79,garden,strawberry,,89939,006,2022-04-27_20h07.10.476,SPAMnetsValid,2021.1.4,MacIntel,55.55555556,,,,,,,,,,,,,9,2.614,0,64,64,87,1,,,,,,,,,,,,,,,,,,,,,,,,,,,,,,,,,,,,,,,,,,,,,,,,,,,,,,,,,,,,,,,,,,,,,,
,,,,9,2.361,,,,,,50,carrot,rose,,89939,006,2022-04-27_20h07.10.476,SPAMnetsValid,2021.1.4,MacIntel,55.55555556,,,,,,,,,,,,,9,2.361,0,65,65,73,1,,,,,,,,,,,,,,,,,,,,,,,,,,,,,,,,,,,,,,,,,,,,,,,,,,,,,,,,,,,,,,,,,,,,,,
,,,,8,2.704,,,,,,25,carrot,onion,,89939,006,2022-04-27_20h07.10.476,SPAMnetsValid,2021.1.4,MacIntel,55.55555556,,,,,,,,,,,,,8,2.704,0,66,66,44,1,,,,,,,,,,,,,,,,,,,,,,,,,,,,,,,,,,,,,,,,,,,,,,,,,,,,,,,,,,,,,,,,,,,,,,
,,,,1,1.838,,,,,,19,microwave,pretzel,,89939,006,2022-04-27_20h07.10.476,SPAMnetsValid,2021.1.4,MacIntel,55.55555556,,,,,,,,,,,,,1,1.838,0,67,67,41,1,,,,,,,,,,,,,,,,,,,,,,,,,,,,,,,,,,,,,,,,,,,,,,,,,,,,,,,,,,,,,,,,,,,,,,
,,,,4,3.477,,,,,,81,pretzel,yogurt,,89939,006,2022-04-27_20h07.10.476,SPAMnetsValid,2021.1.4,MacIntel,55.55555556,,,,,,,,,,,,,4,3.477,0,68,68,50,1,,,,,,,,,,,,,,,,,,,,,,,,,,,,,,,,,,,,,,,,,,,,,,,,,,,,,,,,,,,,,,,,,,,,,,
,,,,4,1.397,,,,,,89,chocolate,rose,,89939,006,2022-04-27_20h07.10.476,SPAMnetsValid,2021.1.4,MacIntel,55.55555556,,,,,,,,,,,,,4,1.397,0,69,69,60,1,,,,,,,,,,,,,,,,,,,,,,,,,,,,,,,,,,,,,,,,,,,,,,,,,,,,,,,,,,,,,,,,,,,,,,
,,,,6,3.112,,,,,,51,onion,strawberry,,89939,006,2022-04-27_20h07.10.476,SPAMnetsValid,2021.1.4,MacIntel,55.55555556,,,,,,,,,,,,,6,3.112,0,70,70,86,1,,,,,,,,,,,,,,,,,,,,,,,,,,,,,,,,,,,,,,,,,,,,,,,,,,,,,,,,,,,,,,,,,,,,,,
,,,,2,1.171,,,,,,88,cactus,melon,,89939,006,2022-04-27_20h07.10.476,SPAMnetsValid,2021.1.4,MacIntel,55.55555556,,,,,,,,,,,,,2,1.171,0,71,71,38,1,,,,,,,,,,,,,,,,,,,,,,,,,,,,,,,,,,,,,,,,,,,,,,,,,,,,,,,,,,,,,,,,,,,,,,
,,,,7,2.067,,,,,,93,kitchen,oven,,89939,006,2022-04-27_20h07.10.476,SPAMnetsValid,2021.1.4,MacIntel,55.55555556,,,,,,,,,,,,,7,2.067,0,72,72,82,1,,,,,,,,,,,,,,,,,,,,,,,,,,,,,,,,,,,,,,,,,,,,,,,,,,,,,,,,,,,,,,,,,,,,,,
,,,,3,1.541,,,,,,78,cookie,rose,,89939,006,2022-04-27_20h07.10.476,SPAMnetsValid,2021.1.4,MacIntel,55.55555556,,,,,,,,,,,,,3,1.541,0,73,73,56,1,,,,,,,,,,,,,,,,,,,,,,,,,,,,,,,,,,,,,,,,,,,,,,,,,,,,,,,,,,,,,,,,,,,,,,
,,,,2,2.569,,,,,,34,melon,oven,,89939,006,2022-04-27_20h07.10.476,SPAMnetsValid,2021.1.4,MacIntel,55.55555556,,,,,,,,,,,,,2,2.569,0,74,74,7,1,,,,,,,,,,,,,,,,,,,,,,,,,,,,,,,,,,,,,,,,,,,,,,,,,,,,,,,,,,,,,,,,,,,,,,
,,,,2,1.51,,,,,,85,cake,tree,,89939,006,2022-04-27_20h07.10.476,SPAMnetsValid,2021.1.4,MacIntel,55.55555556,,,,,,,,,,,,,2,1.51,0,75,75,18,1,,,,,,,,,,,,,,,,,,,,,,,,,,,,,,,,,,,,,,,,,,,,,,,,,,,,,,,,,,,,,,,,,,,,,,
,,,,2,0.632,,,,,,63,cake,cookie,,89939,006,2022-04-27_20h07.10.476,SPAMnetsValid,2021.1.4,MacIntel,55.55555556,,,,,,,,,,,,,2,0.632,0,76,76,93,1,,,,,,,,,,,,,,,,,,,,,,,,,,,,,,,,,,,,,,,,,,,,,,,,,,,,,,,,,,,,,,,,,,,,,,
,,,,2,0.541,,,,,,27,cactus,cookie,,89939,006,2022-04-27_20h07.10.476,SPAMnetsValid,2021.1.4,MacIntel,55.55555556,,,,,,,,,,,,,2,0.541,0,77,77,17,1,,,,,,,,,,,,,,,,,,,,,,,,,,,,,,,,,,,,,,,,,,,,,,,,,,,,,,,,,,,,,,,,,,,,,,
,,,,1,1.451,,,,,,11,refrigerator,tree,,89939,006,2022-04-27_20h07.10.476,SPAMnetsValid,2021.1.4,MacIntel,55.55555556,,,,,,,,,,,,,1,1.451,0,78,78,43,1,,,,,,,,,,,,,,,,,,,,,,,,,,,,,,,,,,,,,,,,,,,,,,,,,,,,,,,,,,,,,,,,,,,,,,
,,,,1,2.003,,,,,,45,onion,pretzel,,89939,006,2022-04-27_20h07.10.476,SPAMnetsValid,2021.1.4,MacIntel,55.55555556,,,,,,,,,,,,,1,2.003,0,79,79,69,1,,,,,,,,,,,,,,,,,,,,,,,,,,,,,,,,,,,,,,,,,,,,,,,,,,,,,,,,,,,,,,,,,,,,,,
,,,,1,0.497,,,,,,39,melon,pretzel,,89939,006,2022-04-27_20h07.10.476,SPAMnetsValid,2021.1.4,MacIntel,55.55555556,,,,,,,,,,,,,1,0.497,0,80,80,20,1,,,,,,,,,,,,,,,,,,,,,,,,,,,,,,,,,,,,,,,,,,,,,,,,,,,,,,,,,,,,,,,,,,,,,,
,,,,7,1.475,,,,,,30,cookie,pretzel,,89939,006,2022-04-27_20h07.10.476,SPAMnetsValid,2021.1.4,MacIntel,55.55555556,,,,,,,,,,,,,7,1.475,0,81,81,78,1,,,,,,,,,,,,,,,,,,,,,,,,,,,,,,,,,,,,,,,,,,,,,,,,,,,,,,,,,,,,,,,,,,,,,,
,,,,6,2.309,,,,,,18,onion,refrigerator,,89939,006,2022-04-27_20h07.10.476,SPAMnetsValid,2021.1.4,MacIntel,55.55555556,,,,,,,,,,,,,6,2.309,0,82,82,62,1,,,,,,,,,,,,,,,,,,,,,,,,,,,,,,,,,,,,,,,,,,,,,,,,,,,,,,,,,,,,,,,,,,,,,,
,,,,6,1.093,,,,,,66,melon,yogurt,,89939,006,2022-04-27_20h07.10.476,SPAMnetsValid,2021.1.4,MacIntel,55.55555556,,,,,,,,,,,,,6,1.093,0,83,83,48,1,,,,,,,,,,,,,,,,,,,,,,,,,,,,,,,,,,,,,,,,,,,,,,,,,,,,,,,,,,,,,,,,,,,,,,
,,,,9,1.685,,,,,,54,chocolate,yogurt,,89939,006,2022-04-27_20h07.10.476,SPAMnetsValid,2021.1.4,MacIntel,55.55555556,,,,,,,,,,,,,9,1.685,0,84,84,67,1,,,,,,,,,,,,,,,,,,,,,,,,,,,,,,,,,,,,,,,,,,,,,,,,,,,,,,,,,,,,,,,,,,,,,,
,,,,2,1.871,,,,,,38,pretzel,refrigerator,,89939,006,2022-04-27_20h07.10.476,SPAMnetsValid,2021.1.4,MacIntel,55.55555556,,,,,,,,,,,,,2,1.871,0,85,85,71,1,,,,,,,,,,,,,,,,,,,,,,,,,,,,,,,,,,,,,,,,,,,,,,,,,,,,,,,,,,,,,,,,,,,,,,
,,,,5,2.184,,,,,,87,carrot,yogurt,,89939,006,2022-04-27_20h07.10.476,SPAMnetsValid,2021.1.4,MacIntel,55.55555556,,,,,,,,,,,,,5,2.184,0,86,86,6,1,,,,,,,,,,,,,,,,,,,,,,,,,,,,,,,,,,,,,,,,,,,,,,,,,,,,,,,,,,,,,,,,,,,,,,
,,,,4,1.639,,,,,,1,rose,yogurt,,89939,006,2022-04-27_20h07.10.476,SPAMnetsValid,2021.1.4,MacIntel,55.55555556,,,,,,,,,,,,,4,1.639,0,87,87,55,1,,,,,,,,,,,,,,,,,,,,,,,,,,,,,,,,,,,,,,,,,,,,,,,,,,,,,,,,,,,,,,,,,,,,,,
,,,,1,1.514,,,,,,40,broom,cake,,89939,006,2022-04-27_20h07.10.476,SPAMnetsValid,2021.1.4,MacIntel,55.55555556,,,,,,,,,,,,,1,1.514,0,88,88,32,1,,,,,,,,,,,,,,,,,,,,,,,,,,,,,,,,,,,,,,,,,,,,,,,,,,,,,,,,,,,,,,,,,,,,,,
,,,,9,2.021,,,,,,191,cake,cake,CHECK,89939,006,2022-04-27_20h07.10.476,SPAMnetsValid,2021.1.4,MacIntel,55.55555556,,,,,,,,,,,,,9,2.021,0,89,89,10,1,,,,,,,,,,,,,,,,,,,,,,,,,,,,,,,,,,,,,,,,,,,,,,,,,,,,,,,,,,,,,,,,,,,,,,
,,,,9,2.312,,,,,,47,onion,tomato,,89939,006,2022-04-27_20h07.10.476,SPAMnetsValid,2021.1.4,MacIntel,55.55555556,,,,,,,,,,,,,9,2.312,0,90,90,51,1,,,,,,,,,,,,,,,,,,,,,,,,,,,,,,,,,,,,,,,,,,,,,,,,,,,,,,,,,,,,,,,,,,,,,,
,,,,9,1.347,,,,,,57,flower,kitchen,,89939,006,2022-04-27_20h07.10.476,SPAMnetsValid,2021.1.4,MacIntel,55.55555556,,,,,,,,,,,,,9,1.347,0,91,91,49,1,,,,,,,,,,,,,,,,,,,,,,,,,,,,,,,,,,,,,,,,,,,,,,,,,,,,,,,,,,,,,,,,,,,,,,
,,,,9,1.418,,,,,,192,microwave,microwave,CHECK,89939,006,2022-04-27_20h07.10.476,SPAMnetsValid,2021.1.4,MacIntel,55.55555556,,,,,,,,,,,,,9,1.418,0,92,92,53,1,,,,,,,,,,,,,,,,,,,,,,,,,,,,,,,,,,,,,,,,,,,,,,,,,,,,,,,,,,,,,,,,,,,,,,
,,,,9,2.28,,,,,,94,kitchen,microwave,,89939,006,2022-04-27_20h07.10.476,SPAMnetsValid,2021.1.4,MacIntel,55.55555556,,,,,,,,,,,,,9,2.28,0,93,93,58,1,,,,,,,,,,,,,,,,,,,,,,,,,,,,,,,,,,,,,,,,,,,,,,,,,,,,,,,,,,,,,,,,,,,,,,
,,,,1,2.357,,,,,,31,cactus,pretzel,,89939,006,2022-04-27_20h07.10.476,SPAMnetsValid,2021.1.4,MacIntel,55.55555556,,,,,,,,,,,,,1,2.357,0,94,94,1,1,,,,,,,,,,,,,,,,,,,,,,,,,,,,,,,,,,,,,,,,,,,,,,,,,,,,,,,,,,,,,,,,,,,,,,
,,,,5,2.161,,,,,,2,kitchen,onion,,89939,006,2022-04-27_20h07.10.476,SPAMnetsValid,2021.1.4,MacIntel,55.55555556,,,,,,,,,,,,,5,2.161,0,95,95,91,1,,,,,,,,,,,,,,,,,,,,,,,,,,,,,,,,,,,,,,,,,,,,,,,,,,,,,,,,,,,,,,,,,,,,,,
,,,,1,4.223,,,,,,92,broom,flower,,89939,006,2022-04-27_20h07.10.476,SPAMnetsValid,2021.1.4,MacIntel,55.55555556,,,,,,,,,,,,,1,4.223,0,96,96,88,1,,,,,,,,,,,,,,,,,,,,,,,,,,,,,,,,,,,,,,,,,,,,,,,,,,,,,,,,,,,,,,,,,,,,,,
,,,,,,,,,,,,,,,89939,006,2022-04-27_20h07.10.476,SPAMnetsValid,2021.1.4,MacIntel,55.55555556,,,,,,,,,,,,,,,,,,,,0,0,0,0,1,,,,,,,,,,,,,,,,,,,,,,,,,,,,,,,,,,,,,,,,,,,,,,,,,,,,,,,,,,,,,,,,,
,,,,,,,,,,,,,,,89939,006,2022-04-27_20h07.10.476,SPAMnetsValid,2021.1.4,MacIntel,55.55555556,,,,,,0,1,1,0,1,1,0,,,,,,,,,,,,,,,,,,,,,,,,,,,,,,,,,,,,,,,,,,,,,,,,,,,,,,,,,,,,,,,,,,,,,,,,,,,,,
,,,,,,,,,,,,,,,89939,006,2022-04-27_20h07.10.476,SPAMnetsValid,2021.1.4,MacIntel,55.55555556,,,,,,,,,,,,,,,,,,,,,,,,,2,3.338,0,0,0,0,1,rancor,forbearance,ridicule,malice,bravery,3,,,,,,,,,,,,,,,,,,,,,,,,,,,,,,,,,,,,,,,,,,,,,,,,,,,,
,,,,,,,,,,,,,,,89939,006,2022-04-27_20h07.10.476,SPAMnetsValid,2021.1.4,MacIntel,55.55555556,,,,,,,,,,,,,,,,,,,,,,,,,4,4.304,0,1,1,1,1,raucous,empty,quiet,smooth,harsh,4,,,,,,,,,,,,,,,,,,,,,,,,,,,,,,,,,,,,,,,,,,,,,,,,,,,,
,,,,,,,,,,,,,,,89939,006,2022-04-27_20h07.10.476,SPAMnetsValid,2021.1.4,MacIntel,55.55555556,,,,,,,,,,,,,,,,,,,,,,,,,3,7.571,0,2,2,2,1,gargoyle,oil,medicine,carved waterspout,ugly building,3,,,,,,,,,,,,,,,,,,,,,,,,,,,,,,,,,,,,,,,,,,,,,,,,,,,,
,,,,,,,,,,,,,,,89939,006,2022-04-27_20h07.10.476,SPAMnetsValid,2021.1.4,MacIntel,55.55555556,,,,,,,,,,,,,,,,,,,,,,,,,2,2.486,0,3,3,3,1,recrudesce,purify,renew activity,lack refinement,crush,2,,,,,,,,,,,,,,,,,,,,,,,,,,,,,,,,,,,,,,,,,,,,,,,,,,,,
,,,,,,,,,,,,,,,89939,006,2022-04-27_20h07.10.476,SPAMnetsValid,2021.1.4,MacIntel,55.55555556,,,,,,,,,,,,,,,,,,,,,,,,,3,3.945,0,4,4,4,1,specious,"plausible, but not genuine",noteworthy,class or variety,roomy,1,,,,,,,,,,,,,,,,,,,,,,,,,,,,,,,,,,,,,,,,,,,,,,,,,,,,
,,,,,,,,,,,,,,,89939,006,2022-04-27_20h07.10.476,SPAMnetsValid,2021.1.4,MacIntel,55.55555556,,,,,,,,,,,,,,,,,,,,,,,,,3,3.725,0,5,5,5,1,bauble,bubble,showy plaything,idle talk,confusion,2,,,,,,,,,,,,,,,,,,,,,,,,,,,,,,,,,,,,,,,,,,,,,,,,,,,,
,,,,,,,,,,,,,,,89939,006,2022-04-27_20h07.10.476,SPAMnetsValid,2021.1.4,MacIntel,55.55555556,,,,,,,,,,,,,,,,,,,,,,,,,2,6.132,0,6,6,6,1,prolific,scarce,producing abundantly,reckless,speaking profanely,2,,,,,,,,,,,,,,,,,,,,,,,,,,,,,,,,,,,,,,,,,,,,,,,,,,,,
,,,,,,,,,,,,,,,89939,006,2022-04-27_20h07.10.476,SPAMnetsValid,2021.1.4,MacIntel,55.55555556,,,,,,,,,,,,,,,,,,,,,,,,,2,3.459,0,7,7,7,1,opulent,party,wealthy,happy frame of mind,semiprecious stone,2,,,,,,,,,,,,,,,,,,,,,,,,,,,,,,,,,,,,,,,,,,,,,,,,,,,,
,,,,,,,,,,,,,,,89939,006,2022-04-27_20h07.10.476,SPAMnetsValid,2021.1.4,MacIntel,55.55555556,,,,,,,,,,,,,,,,,,,,,,,,,1,2.594,0,8,8,8,1,coercion,conspiracy,strategy,restraint,attraction,3,,,,,,,,,,,,,,,,,,,,,,,,,,,,,,,,,,,,,,,,,,,,,,,,,,,,
,,,,,,,,,,,,,,,89939,006,2022-04-27_20h07.10.476,SPAMnetsValid,2021.1.4,MacIntel,55.55555556,,,,,,,,,,,,,,,,,,,,,,,,,4,2.495,0,9,9,9,1,hiatus,animal,calamity,dread,gap,4,,,,,,,,,,,,,,,,,,,,,,,,,,,,,,,,,,,,,,,,,,,,,,,,,,,,
,,,,,,,,,,,,,,,89939,006,2022-04-27_20h07.10.476,SPAMnetsValid,2021.1.4,MacIntel,55.55555556,,,,,,,,,,,,,,,,,,,,,,,,,4,6.325,0,10,10,10,1,germane,microbe,contagious,relevant,different,3,,,,,,,,,,,,,,,,,,,,,,,,,,,,,,,,,,,,,,,,,,,,,,,,,,,,
,,,,,,,,,,,,,,,89939,006,2022-04-27_20h07.10.476,SPAMnetsValid,2021.1.4,MacIntel,55.55555556,,,,,,,,,,,,,,,,,,,,,,,,,1,4.574,0,11,11,11,1,perfunctory,fundamental,formal,superficial,careful,3,,,,,,,,,,,,,,,,,,,,,,,,,,,,,,,,,,,,,,,,,,,,,,,,,,,,
,,,,,,,,,,,,,,,89939,006,2022-04-27_20h07.10.476,SPAMnetsValid,2021.1.4,MacIntel,55.55555556,,,,,,,,,,,,,,,,,,,,,,,,,4,4.564,0,12,12,12,1,diverge,reveal,chant,distract the attention of,differ or turn off from,4,,,,,,,,,,,,,,,,,,,,,,,,,,,,,,,,,,,,,,,,,,,,,,,,,,,,
,,,,,,,,,,,,,,,89939,006,2022-04-27_20h07.10.476,SPAMnetsValid,2021.1.4,MacIntel,55.55555556,,,,,,,,,,,,,,,,,,,,,,,,,1,1.9,0,13,13,13,1,evoke,take away,anger,connect,bring out,4,,,,,,,,,,,,,,,,,,,,,,,,,,,,,,,,,,,,,,,,,,,,,,,,,,,,
,,,,,,,,,,,,,,,89939,006,2022-04-27_20h07.10.476,SPAMnetsValid,2021.1.4,MacIntel,55.55555556,,,,,,,,,,,,,,,,,,,,,,,,,1,5.573,0,14,14,14,1,pertinent,relevant,lying next to,necessary,bold,1,,,,,,,,,,,,,,,,,,,,,,,,,,,,,,,,,,,,,,,,,,,,,,,,,,,,
,,,,,,,,,,,,,,,89939,006,2022-04-27_20h07.10.476,SPAMnetsValid,2021.1.4,MacIntel,55.55555556,,,,,,,,,,,,,,,,,,,,,,,,,2,3.078,0,15,15,15,1,holocaust,entirety,destruction,saintly,price,2,,,,,,,,,,,,,,,,,,,,,,,,,,,,,,,,,,,,,,,,,,,,,,,,,,,,
,,,,,,,,,,,,,,,89939,006,2022-04-27_20h07.10.476,SPAMnetsValid,2021.1.4,MacIntel,55.55555556,,,,,,,,,,,,,,,,,,,,,,,,,3,5.706,0,16,16,16,1,piquant,mellow,fish,pungent,cloth,3,,,,,,,,,,,,,,,,,,,,,,,,,,,,,,,,,,,,,,,,,,,,,,,,,,,,
,,,,,,,,,,,,,,,89939,006,2022-04-27_20h07.10.476,SPAMnetsValid,2021.1.4,MacIntel,55.55555556,,,,,,,,,,,,,,,,,,,,,,,,,1,3.098,0,17,17,17,1,firmament,foundation,heavens,strong,glue,2,,,,,,,,,,,,,,,,,,,,,,,,,,,,,,,,,,,,,,,,,,,,,,,,,,,,
,,,,,,,,,,,,,,,89939,006,2022-04-27_20h07.10.476,SPAMnetsValid,2021.1.4,MacIntel,55.55555556,,,,,,,,,,,,,,,,,,,,,,,,,,,,,,,,,,,,,,3,7.649,0,0,0,0,1,marketable,partisan,jocular,marriageable,salable,essential,4,,,,,,,,,,,,,,,,,,,,,,,,,,,,,,,,,,,,,,
,,,,,,,,,,,,,,,89939,006,2022-04-27_20h07.10.476,SPAMnetsValid,2021.1.4,MacIntel,55.55555556,,,,,,,,,,,,,,,,,,,,,,,,,,,,,,,,,,,,,,5,4.408,0,1,1,1,1,cottontail,squirrel,poplar,boa,marshy plant,rabbit,5,,,,,,,,,,,,,,,,,,,,,,,,,,,,,,,,,,,,,,
,,,,,,,,,,,,,,,89939,006,2022-04-27_20h07.10.476,SPAMnetsValid,2021.1.4,MacIntel,55.55555556,,,,,,,,,,,,,,,,,,,,,,,,,,,,,,,,,,,,,,4,4.834,0,2,2,2,1,boggy,afraid,false,marshy,dense,black,3,,,,,,,,,,,,,,,,,,,,,,,,,,,,,,,,,,,,,,
,,,,,,,,,,,,,,,89939,006,2022-04-27_20h07.10.476,SPAMnetsValid,2021.1.4,MacIntel,55.55555556,,,,,,,,,,,,,,,,,,,,,,,,,,,,,,,,,,,,,,5,11.553,0,3,3,3,1,gruesomeness,blackness,falseness,vindictiveness,drunkenness,ghastliness,5,,,,,,,,,,,,,,,,,,,,,,,,,,,,,,,,,,,,,,
,,,,,,,,,,,,,,,89939,006,2022-04-27_20h07.10.476,SPAMnetsValid,2021.1.4,MacIntel,55.55555556,,,,,,,,,,,,,,,,,,,,,,,,,,,,,,,,,,,,,,1,4.598,0,4,4,4,1,loathing,diffidence,laziness,abhorrence,cleverness,comfort,3,,,,,,,,,,,,,,,,,,,,,,,,,,,,,,,,,,,,,,
,,,,,,,,,,,,,,,89939,006,2022-04-27_20h07.10.476,SPAMnetsValid,2021.1.4,MacIntel,55.55555556,,,,,,,,,,,,,,,,,,,,,,,,,,,,,,,,,,,,,,1,3.468,0,5,5,5,1,bantam,fowl,ridicule,cripple,vegetable,ensign,1,,,,,,,,,,,,,,,,,,,,,,,,,,,,,,,,,,,,,,
,,,,,,,,,,,,,,,89939,006,2022-04-27_20h07.10.476,SPAMnetsValid,2021.1.4,MacIntel,55.55555556,,,,,,,,,,,,,,,,,,,,,,,,,,,,,,,,,,,,,,5,4.674,0,6,6,6,1,evoke,wake up,surrender,reconnoiter,transcend,call forth,5,,,,,,,,,,,,,,,,,,,,,,,,,,,,,,,,,,,,,,
,,,,,,,,,,,,,,,89939,006,2022-04-27_20h07.10.476,SPAMnetsValid,2021.1.4,MacIntel,55.55555556,,,,,,,,,,,,,,,,,,,,,,,,,,,,,,,,,,,,,,3,4.956,0,7,7,7,1,unobtrusive,unintelligent,epileptic,illogical,lineal,modest,5,,,,,,,,,,,,,,,,,,,,,,,,,,,,,,,,,,,,,,
,,,,,,,,,,,,,,,89939,006,2022-04-27_20h07.10.476,SPAMnetsValid,2021.1.4,MacIntel,55.55555556,,,,,,,,,,,,,,,,,,,,,,,,,,,,,,,,,,,,,,,,0,8,8,8,1,terrain,ice cream,final test,tractor,area of ground,weight,4,,,,,,,,,,,,,,,,,,,,,,,,,,,,,,,,,,,,,,
,,,,,,,,,,,,,,,89939,006,2022-04-27_20h07.10.476,SPAMnetsValid,2021.1.4,MacIntel,55.55555556,,,,,,,,,,,,,,,,,,,,,,,,,,,,,,,,,,,,,,2,17.712,0,9,9,9,1,capriciousness,stubbornness,courage,whimsicality,amazement,greediness,3,,,,,,,,,,,,,,,,,,,,,,,,,,,,,,,,,,,,,,
,,,,,,,,,,,,,,,89939,006,2022-04-27_20h07.10.476,SPAMnetsValid,2021.1.4,MacIntel,55.55555556,,,,,,,,,,,,,,,,,,,,,,,,,,,,,,,,,,,,,,4,3.722,0,10,10,10,1,maelstrom,slander,whirlpool,enmity,armor,majolica,2,,,,,,,,,,,,,,,,,,,,,,,,,,,,,,,,,,,,,,
,,,,,,,,,,,,,,,89939,006,2022-04-27_20h07.10.476,SPAMnetsValid,2021.1.4,MacIntel,55.55555556,,,,,,,,,,,,,,,,,,,,,,,,,,,,,,,,,,,,,,1,10.891,0,11,11,11,1,tentative,critical,conclusive,authentic,provisional,apprehensive,4,,,,,,,,,,,,,,,,,,,,,,,,,,,,,,,,,,,,,,
,,,,,,,,,,,,,,,89939,006,2022-04-27_20h07.10.476,SPAMnetsValid,2021.1.4,MacIntel,55.55555556,,,,,,,,,,,,,,,,,,,,,,,,,,,,,,,,,,,,,,4,3.505,0,12,12,12,1,placate,rehabilitate,plagiarize,depredate,apprise,conciliate,5,,,,,,,,,,,,,,,,,,,,,,,,,,,,,,,,,,,,,,
,,,,,,,,,,,,,,,89939,006,2022-04-27_20h07.10.476,SPAMnetsValid,2021.1.4,MacIntel,55.55555556,,,,,,,,,,,,,,,,,,,,,,,,,,,,,,,,,,,,,,4,6.143,0,13,13,13,1,surcease,enlightenment,cessation,inattention,censor,substitution,2,,,,,,,,,,,,,,,,,,,,,,,,,,,,,,,,,,,,,,
,,,,,,,,,,,,,,,89939,006,2022-04-27_20h07.10.476,SPAMnetsValid,2021.1.4,MacIntel,55.55555556,,,,,,,,,,,,,,,,,,,,,,,,,,,,,,,,,,,,,,3,5.425,0,14,14,14,1,apathetic,wandering,impassive,hateful,prophetic,overflowing,2,,,,,,,,,,,,,,,,,,,,,,,,,,,,,,,,,,,,,,
,,,,,,,,,,,,,,,89939,006,2022-04-27_20h07.10.476,SPAMnetsValid,2021.1.4,MacIntel,55.55555556,,,,,,,,,,,,,,,,,,,,,,,,,,,,,,,,,,,,,,2,3.801,0,15,15,15,1,paternoster,paternalism,patricide,malediction,benediction,prayer,5,,,,,,,,,,,,,,,,,,,,,,,,,,,,,,,,,,,,,,
,,,,,,,,,,,,,,,89939,006,2022-04-27_20h07.10.476,SPAMnetsValid,2021.1.4,MacIntel,55.55555556,,,,,,,,,,,,,,,,,,,,,,,,,,,,,,,,,,,,,,5,3.316,0,16,16,16,1,opalescence,opulence,senescence,bankruptcy,iridescence,assiduity,4,,,,,,,,,,,,,,,,,,,,,,,,,,,,,,,,,,,,,,
,,,,,,,,,,,,,,,89939,006,2022-04-27_20h07.10.476,SPAMnetsValid,2021.1.4,MacIntel,55.55555556,,,,,,,,,,,,,,,,,,,,,,,,,,,,,,,,,,,,,,2,2.227,0,17,17,17,1,lush,stupid,luxurious,hazy,putrid,languishing,2,,,,,,,,,,,,,,,,,,,,,,,,,,,,,,,,,,,,,,
,,,,,,,,,,,,,,,89939,006,2022-04-27_20h07.10.476,SPAMnetsValid,2021.1.4,MacIntel,55.55555556,,,,,,,,,,,,,,,,,,,,,,,,,,,,,,,,,,,,,,4,5.668,0,18,18,18,1,curtailment,expenditure,abandonment,abridgment,improvement,forgery,3,,,,,,,,,,,,,,,,,,,,,,,,,,,,,,,,,,,,,,
,,,,,,,,,,,,,,,89939,006,2022-04-27_20h07.10.476,SPAMnetsValid,2021.1.4,MacIntel,55.55555556,,,,,,,,,,,,,,,,,,,,,,,,,,,,,,,,,,,,,,5,8.368,0,19,19,19,1,perversity,adversity,perviousness,travesty,waywardness,gentility,4,,,,,,,,,,,,,,,,,,,,,,,,,,,,,,,,,,,,,,
,,,,,,,,,,,,,,,89939,006,2022-04-27_20h07.10.476,SPAMnetsValid,2021.1.4,MacIntel,55.55555556,,,,,,,,,,,,,,,,,,,,,,,,,,,,,,,,,,,,,,1,2.218,0,20,20,20,1,calumnious,complimentary,analogous,slanderous,tempestuous,magnanimous,3,,,,,,,,,,,,,,,,,,,,,,,,,,,,,,,,,,,,,,
,,,,,,,,,,,,,,,89939,006,2022-04-27_20h07.10.476,SPAMnetsValid,2021.1.4,MacIntel,55.55555556,,,,,,,,,,,,,,,,,,,,,,,,,,,,,,,,,,,,,,3,3.338,0,21,21,21,1,illiberality,bigotry,imbecility,illegibility,cautery,immaturity,1,,,,,,,,,,,,,,,,,,,,,,,,,,,,,,,,,,,,,,
,,,,,,,,,,,,,,,89939,006,2022-04-27_20h07.10.476,SPAMnetsValid,2021.1.4,MacIntel,55.55555556,,,,,,,,,,,,,,,,,,,,,,,,,,,,,,,,,,,,,,2,2.248,0,22,22,22,1,clabber,rejoice,gossip,curdle,crow,hobble,3,,,,,,,,,,,,,,,,,,,,,,,,,,,,,,,,,,,,,,
,,,,,,,,,,,,,,,89939,006,2022-04-27_20h07.10.476,SPAMnetsValid,2021.1.4,MacIntel,55.55555556,,,,,,,,,,,,,,,,,,,,,,,,,,,,,,,,,,,,,,1,4.489,0,23,23,23,1,sedulousness,diligence,credulousness,seduction,perilousness,frankness,1,,,,,,,,,,,,,,,,,,,,,,,,,,,,,,,,,,,,,,
,,,,,,,,,,,,,,,89939,006,2022-04-27_20h07.10.476,SPAMnetsValid,2021.1.4,MacIntel,55.55555556,,,,,,,,,,,,,,,,,,,,,,,,,,,,,,,,,,,,,,,,,,,,,,,,,,,,weapon,pillow,0,0,0,0,1,,,,,,,,,,,,,,,,,,,,,,,,,,,,,,,
,,,,,,,,,,,,,,,89939,006,2022-04-27_20h07.10.476,SPAMnetsValid,2021.1.4,MacIntel,55.55555556,,,,,,,,,,,,,,,,,,,,,,,,,,,,,,,,,,,,,,,,,,,,,,,,,,,,shield,pillow,1,0,1,0,1,,,,,,,,,,,,,,,,,,,,,,,,,,,,,,,
,,,,,,,,,,,,,,,89939,006,2022-04-27_20h07.10.476,SPAMnetsValid,2021.1.4,MacIntel,55.55555556,,,,,,,,,,,,,,,,,,,,,,,,,,,,,,,,,,,,,,,,,,,,,,,,,,,,wall,pillow,2,0,2,0,1,,,,,,,,,,,,,,,,,,,,,,,,,,,,,,,
,,,,,,,,,,,,,,,89939,006,2022-04-27_20h07.10.476,SPAMnetsValid,2021.1.4,MacIntel,55.55555556,,,,,,,,,,,,,,,,,,,,,,,,,,,,,,,,,,,,,,,,,,,,,,,,,,,,building block,pillow,3,0,3,0,1,,,,,,,,,,,,,,,,,,,,,,,,,,,,,,,
,,,,,,,,,,,,,,,89939,006,2022-04-27_20h07.10.476,SPAMnetsValid,2021.1.4,MacIntel,55.55555556,,,,,,,,,,,,,,,,,,,,,,,,,,,,,,,,,,,,,,,,,,,,,,,,,,,,padding,pillow,4,0,4,0,1,,,,,,,,,,,,,,,,,,,,,,,,,,,,,,,
,,,,,,,,,,,,,,,89939,006,2022-04-27_20h07.10.476,SPAMnetsValid,2021.1.4,MacIntel,55.55555556,,,,,,,,,,,,,,,,,,,,,,,,,,,,,,,,,,,,,,,,,,,,,,,,,,,,childproffing,pillow,5,0,5,0,1,,,,,,,,,,,,,,,,,,,,,,,,,,,,,,,
,,,,,,,,,,,,,,,89939,006,2022-04-27_20h07.10.476,SPAMnetsValid,2021.1.4,MacIntel,55.55555556,,,,,,,,,,,,,,,,,,,,,,,,,,,,,,,,,,,,,,,,,,,,,,,,,,,,umbrella,pillow,6,0,6,0,1,,,,,,,,,,,,,,,,,,,,,,,,,,,,,,,
,,,,,,,,,,,,,,,89939,006,2022-04-27_20h07.10.476,SPAMnetsValid,2021.1.4,MacIntel,55.55555556,,,,,,,,,,,,,,,,,,,,,,,,,,,,,,,,,,,,,,,,,,,,,,,,,,,,canvas,pillow,7,0,7,0,1,,,,,,,,,,,,,,,,,,,,,,,,,,,,,,,
,,,,,,,,,,,,,,,89939,006,2022-04-27_20h07.10.476,SPAMnetsValid,2021.1.4,MacIntel,55.55555556,,,,,,,,,,,,,,,,,,,,,,,,,,,,,,,,,,,,,,,,,,,,,,,,,,,,,,,,,,,0,0,0,2,1,pillow,,,,,,,,,,,,,,,,,,,,,,,,,
,,,,,,,,,,,,,,,89939,006,2022-04-27_20h07.10.476,SPAMnetsValid,2021.1.4,MacIntel,55.55555556,,,,,,,,,,,,,,,,,,,,,,,,,,,,,,,,,,,,,,,,,,,,,,,,,,,,firestarter,candle,0,0,0,0,1,,,,,,,,,,,,,,,,,,,,,,,,,,,,,,,
,,,,,,,,,,,,,,,89939,006,2022-04-27_20h07.10.476,SPAMnetsValid,2021.1.4,MacIntel,55.55555556,,,,,,,,,,,,,,,,,,,,,,,,,,,,,,,,,,,,,,,,,,,,,,,,,,,,message therapy,candle,1,0,1,0,1,,,,,,,,,,,,,,,,,,,,,,,,,,,,,,,
,,,,,,,,,,,,,,,89939,006,2022-04-27_20h07.10.476,SPAMnetsValid,2021.1.4,MacIntel,55.55555556,,,,,,,,,,,,,,,,,,,,,,,,,,,,,,,,,,,,,,,,,,,,,,,,,,,,light,candle,2,0,2,0,1,,,,,,,,,,,,,,,,,,,,,,,,,,,,,,,
,,,,,,,,,,,,,,,89939,006,2022-04-27_20h07.10.476,SPAMnetsValid,2021.1.4,MacIntel,55.55555556,,,,,,,,,,,,,,,,,,,,,,,,,,,,,,,,,,,,,,,,,,,,,,,,,,,,clock,candle,3,0,3,0,1,,,,,,,,,,,,,,,,,,,,,,,,,,,,,,,
,,,,,,,,,,,,,,,89939,006,2022-04-27_20h07.10.476,SPAMnetsValid,2021.1.4,MacIntel,55.55555556,,,,,,,,,,,,,,,,,,,,,,,,,,,,,,,,,,,,,,,,,,,,,,,,,,,,oder relief,candle,4,0,4,0,1,,,,,,,,,,,,,,,,,,,,,,,,,,,,,,,
,,,,,,,,,,,,,,,89939,006,2022-04-27_20h07.10.476,SPAMnetsValid,2021.1.4,MacIntel,55.55555556,,,,,,,,,,,,,,,,,,,,,,,,,,,,,,,,,,,,,,,,,,,,,,,,,,,,religous practice,candle,5,0,5,0,1,,,,,,,,,,,,,,,,,,,,,,,,,,,,,,,
,,,,,,,,,,,,,,,89939,006,2022-04-27_20h07.10.476,SPAMnetsValid,2021.1.4,MacIntel,55.55555556,,,,,,,,,,,,,,,,,,,,,,,,,,,,,,,,,,,,,,,,,,,,,,,,,,,,theraputic device,candle,6,0,6,0,1,,,,,,,,,,,,,,,,,,,,,,,,,,,,,,,
,,,,,,,,,,,,,,,89939,006,2022-04-27_20h07.10.476,SPAMnetsValid,2021.1.4,MacIntel,55.55555556,,,,,,,,,,,,,,,,,,,,,,,,,,,,,,,,,,,,,,,,,,,,,,,,,,,,,,,,,,,0,1,1,1,1,candle,,,,,,,,,,,,,,,,,,,,,,,,,
,,,,,,,,,,,,,,,89939,006,2022-04-27_20h07.10.476,SPAMnetsValid,2021.1.4,MacIntel,55.55555556,,,,,,,,,,,,,,,,,,,,,,,,,,,,,,,,,,,,,,,,,,,,,,,,,,,,weapon,bucket,0,0,0,0,1,,,,,,,,,,,,,,,,,,,,,,,,,,,,,,,
,,,,,,,,,,,,,,,89939,006,2022-04-27_20h07.10.476,SPAMnetsValid,2021.1.4,MacIntel,55.55555556,,,,,,,,,,,,,,,,,,,,,,,,,,,,,,,,,,,,,,,,,,,,,,,,,,,,stroller,bucket,1,0,1,0,1,,,,,,,,,,,,,,,,,,,,,,,,,,,,,,,
,,,,,,,,,,,,,,,89939,006,2022-04-27_20h07.10.476,SPAMnetsValid,2021.1.4,MacIntel,55.55555556,,,,,,,,,,,,,,,,,,,,,,,,,,,,,,,,,,,,,,,,,,,,,,,,,,,,target ,bucket,2,0,2,0,1,,,,,,,,,,,,,,,,,,,,,,,,,,,,,,,
,,,,,,,,,,,,,,,89939,006,2022-04-27_20h07.10.476,SPAMnetsValid,2021.1.4,MacIntel,55.55555556,,,,,,,,,,,,,,,,,,,,,,,,,,,,,,,,,,,,,,,,,,,,,,,,,,,,goal,bucket,3,0,3,0,1,,,,,,,,,,,,,,,,,,,,,,,,,,,,,,,
,,,,,,,,,,,,,,,89939,006,2022-04-27_20h07.10.476,SPAMnetsValid,2021.1.4,MacIntel,55.55555556,,,,,,,,,,,,,,,,,,,,,,,,,,,,,,,,,,,,,,,,,,,,,,,,,,,,,,,,,,,0,2,2,0,1,bucket,,,,,,,,,,,,,,,,,,,,,,,,,
,,,,,,,,,,,,,,,89939,006,2022-04-27_20h07.10.476,SPAMnetsValid,2021.1.4,MacIntel,55.55555556,,,,,,,,,,,,,,,,,,,,,,,,,,,,,,,,,,,,,,,,,,,,,,,,,,,,,,,,,,,,,,,,,wolf,Animals,0,0,0,0,1,,,,,,,,,,,,,,,,,,
,,,,,,,,,,,,,,,89939,006,2022-04-27_20h07.10.476,SPAMnetsValid,2021.1.4,MacIntel,55.55555556,,,,,,,,,,,,,,,,,,,,,,,,,,,,,,,,,,,,,,,,,,,,,,,,,,,,,,,,,,,,,,,,,spider,Animals,1,0,1,0,1,,,,,,,,,,,,,,,,,,
,,,,,,,,,,,,,,,89939,006,2022-04-27_20h07.10.476,SPAMnetsValid,2021.1.4,MacIntel,55.55555556,,,,,,,,,,,,,,,,,,,,,,,,,,,,,,,,,,,,,,,,,,,,,,,,,,,,,,,,,,,,,,,,,bear,Animals,2,0,2,0,1,,,,,,,,,,,,,,,,,,
,,,,,,,,,,,,,,,89939,006,2022-04-27_20h07.10.476,SPAMnetsValid,2021.1.4,MacIntel,55.55555556,,,,,,,,,,,,,,,,,,,,,,,,,,,,,,,,,,,,,,,,,,,,,,,,,,,,,,,,,,,,,,,,,foc,Animals,3,0,3,0,1,,,,,,,,,,,,,,,,,,
,,,,,,,,,,,,,,,89939,006,2022-04-27_20h07.10.476,SPAMnetsValid,2021.1.4,MacIntel,55.55555556,,,,,,,,,,,,,,,,,,,,,,,,,,,,,,,,,,,,,,,,,,,,,,,,,,,,,,,,,,,,,,,,,fox,Animals,4,0,4,0,1,,,,,,,,,,,,,,,,,,
,,,,,,,,,,,,,,,89939,006,2022-04-27_20h07.10.476,SPAMnetsValid,2021.1.4,MacIntel,55.55555556,,,,,,,,,,,,,,,,,,,,,,,,,,,,,,,,,,,,,,,,,,,,,,,,,,,,,,,,,,,,,,,,,lion,Animals,5,0,5,0,1,,,,,,,,,,,,,,,,,,
,,,,,,,,,,,,,,,89939,006,2022-04-27_20h07.10.476,SPAMnetsValid,2021.1.4,MacIntel,55.55555556,,,,,,,,,,,,,,,,,,,,,,,,,,,,,,,,,,,,,,,,,,,,,,,,,,,,,,,,,,,,,,,,,sheep,Animals,6,0,6,0,1,,,,,,,,,,,,,,,,,,
,,,,,,,,,,,,,,,89939,006,2022-04-27_20h07.10.476,SPAMnetsValid,2021.1.4,MacIntel,55.55555556,,,,,,,,,,,,,,,,,,,,,,,,,,,,,,,,,,,,,,,,,,,,,,,,,,,,,,,,,,,,,,,,,cow,Animals,7,0,7,0,1,,,,,,,,,,,,,,,,,,
,,,,,,,,,,,,,,,89939,006,2022-04-27_20h07.10.476,SPAMnetsValid,2021.1.4,MacIntel,55.55555556,,,,,,,,,,,,,,,,,,,,,,,,,,,,,,,,,,,,,,,,,,,,,,,,,,,,,,,,,,,,,,,,,moose,Animals,8,0,8,0,1,,,,,,,,,,,,,,,,,,
,,,,,,,,,,,,,,,89939,006,2022-04-27_20h07.10.476,SPAMnetsValid,2021.1.4,MacIntel,55.55555556,,,,,,,,,,,,,,,,,,,,,,,,,,,,,,,,,,,,,,,,,,,,,,,,,,,,,,,,,,,,,,,,,chicken,Animals,9,0,9,0,1,,,,,,,,,,,,,,,,,,
,,,,,,,,,,,,,,,89939,006,2022-04-27_20h07.10.476,SPAMnetsValid,2021.1.4,MacIntel,55.55555556,,,,,,,,,,,,,,,,,,,,,,,,,,,,,,,,,,,,,,,,,,,,,,,,,,,,,,,,,,,,,,,,,shark,Animals,10,0,10,0,1,,,,,,,,,,,,,,,,,,
,,,,,,,,,,,,,,,89939,006,2022-04-27_20h07.10.476,SPAMnetsValid,2021.1.4,MacIntel,55.55555556,,,,,,,,,,,,,,,,,,,,,,,,,,,,,,,,,,,,,,,,,,,,,,,,,,,,,,,,,,,,,,,,,fish,Animals,11,0,11,0,1,,,,,,,,,,,,,,,,,,
,,,,,,,,,,,,,,,89939,006,2022-04-27_20h07.10.476,SPAMnetsValid,2021.1.4,MacIntel,55.55555556,,,,,,,,,,,,,,,,,,,,,,,,,,,,,,,,,,,,,,,,,,,,,,,,,,,,,,,,,,,,,,,,,snail,Animals,12,0,12,0,1,,,,,,,,,,,,,,,,,,
,,,,,,,,,,,,,,,89939,006,2022-04-27_20h07.10.476,SPAMnetsValid,2021.1.4,MacIntel,55.55555556,,,,,,,,,,,,,,,,,,,,,,,,,,,,,,,,,,,,,,,,,,,,,,,,,,,,,,,,,,,,,,,,,bear,Animals,13,0,13,0,1,,,,,,,,,,,,,,,,,,
,,,,,,,,,,,,,,,89939,006,2022-04-27_20h07.10.476,SPAMnetsValid,2021.1.4,MacIntel,55.55555556,,,,,,,,,,,,,,,,,,,,,,,,,,,,,,,,,,,,,,,,,,,,,,,,,,,,,,,,,,,,,,,,,scorpion,Animals,14,0,14,0,1,,,,,,,,,,,,,,,,,,
,,,,,,,,,,,,,,,89939,006,2022-04-27_20h07.10.476,SPAMnetsValid,2021.1.4,MacIntel,55.55555556,,,,,,,,,,,,,,,,,,,,,,,,,,,,,,,,,,,,,,,,,,,,,,,,,,,,,,,,,,,,,,,,,spider,Animals,15,0,15,0,1,,,,,,,,,,,,,,,,,,
,,,,,,,,,,,,,,,89939,006,2022-04-27_20h07.10.476,SPAMnetsValid,2021.1.4,MacIntel,55.55555556,,,,,,,,,,,,,,,,,,,,,,,,,,,,,,,,,,,,,,,,,,,,,,,,,,,,,,,,,,,,,,,,,snake,Animals,16,0,16,0,1,,,,,,,,,,,,,,,,,,
,,,,,,,,,,,,,,,89939,006,2022-04-27_20h07.10.476,SPAMnetsValid,2021.1.4,MacIntel,55.55555556,,,,,,,,,,,,,,,,,,,,,,,,,,,,,,,,,,,,,,,,,,,,,,,,,,,,,,,,,,,,,,,,,elephant,Animals,17,0,17,0,1,,,,,,,,,,,,,,,,,,
,,,,,,,,,,,,,,,89939,006,2022-04-27_20h07.10.476,SPAMnetsValid,2021.1.4,MacIntel,55.55555556,,,,,,,,,,,,,,,,,,,,,,,,,,,,,,,,,,,,,,,,,,,,,,,,,,,,,,,,,,,,,,,,,tiger,Animals,18,0,18,0,1,,,,,,,,,,,,,,,,,,
,,,,,,,,,,,,,,,89939,006,2022-04-27_20h07.10.476,SPAMnetsValid,2021.1.4,MacIntel,55.55555556,,,,,,,,,,,,,,,,,,,,,,,,,,,,,,,,,,,,,,,,,,,,,,,,,,,,,,,,,,,,,,,,,dog,Animals,19,0,19,0,1,,,,,,,,,,,,,,,,,,
,,,,,,,,,,,,,,,89939,006,2022-04-27_20h07.10.476,SPAMnetsValid,2021.1.4,MacIntel,55.55555556,,,,,,,,,,,,,,,,,,,,,,,,,,,,,,,,,,,,,,,,,,,,,,,,,,,,,,,,,,,,,,,,,cat,Animals,20,0,20,0,1,,,,,,,,,,,,,,,,,,
,,,,,,,,,,,,,,,89939,006,2022-04-27_20h07.10.476,SPAMnetsValid,2021.1.4,MacIntel,55.55555556,,,,,,,,,,,,,,,,,,,,,,,,,,,,,,,,,,,,,,,,,,,,,,,,,,,,,,,,,,,,,,,,,pherret,Animals,21,0,21,0,1,,,,,,,,,,,,,,,,,,
,,,,,,,,,,,,,,,89939,006,2022-04-27_20h07.10.476,SPAMnetsValid,2021.1.4,MacIntel,55.55555556,,,,,,,,,,,,,,,,,,,,,,,,,,,,,,,,,,,,,,,,,,,,,,,,,,,,,,,,,,,,,,,,,lizard,Animals,22,0,22,0,1,,,,,,,,,,,,,,,,,,
,,,,,,,,,,,,,,,89939,006,2022-04-27_20h07.10.476,SPAMnetsValid,2021.1.4,MacIntel,55.55555556,,,,,,,,,,,,,,,,,,,,,,,,,,,,,,,,,,,,,,,,,,,,,,,,,,,,,,,,,,,,,,,,,ant,Animals,23,0,23,0,1,,,,,,,,,,,,,,,,,,
,,,,,,,,,,,,,,,89939,006,2022-04-27_20h07.10.476,SPAMnetsValid,2021.1.4,MacIntel,55.55555556,,,,,,,,,,,,,,,,,,,,,,,,,,,,,,,,,,,,,,,,,,,,,,,,,,,,,,,,,,,,,,,,,bee,Animals,24,0,24,0,1,,,,,,,,,,,,,,,,,,
,,,,,,,,,,,,,,,89939,006,2022-04-27_20h07.10.476,SPAMnetsValid,2021.1.4,MacIntel,55.55555556,,,,,,,,,,,,,,,,,,,,,,,,,,,,,,,,,,,,,,,,,,,,,,,,,,,,,,,,,,,,,,,,,bird,Animals,25,0,25,0,1,,,,,,,,,,,,,,,,,,
,,,,,,,,,,,,,,,89939,006,2022-04-27_20h07.10.476,SPAMnetsValid,2021.1.4,MacIntel,55.55555556,,,,,,,,,,,,,,,,,,,,,,,,,,,,,,,,,,,,,,,,,,,,,,,,,,,,,,,,,,,,,,,,,patnther ,Animals,26,0,26,0,1,,,,,,,,,,,,,,,,,,
,,,,,,,,,,,,,,,89939,006,2022-04-27_20h07.10.476,SPAMnetsValid,2021.1.4,MacIntel,55.55555556,,,,,,,,,,,,,,,,,,,,,,,,,,,,,,,,,,,,,,,,,,,,,,,,,,,,,,,,,,,,,,,,,penguin,Animals,27,0,27,0,1,,,,,,,,,,,,,,,,,,
,,,,,,,,,,,,,,,89939,006,2022-04-27_20h07.10.476,SPAMnetsValid,2021.1.4,MacIntel,55.55555556,,,,,,,,,,,,,,,,,,,,,,,,,,,,,,,,,,,,,,,,,,,,,,,,,,,,,,,,,,,,,,,,,,,,,,,,0,0,0,0,1,Animals,,,,,,,,,,,,
,,,,,,,,,,,,,,,89939,006,2022-04-27_20h07.10.476,SPAMnetsValid,2021.1.4,MacIntel,55.55555556,,,,,,,,,,,,,,,,,,,,,,,,,,,,,,,,,,,,,,,,,,,,,,,,,,,,,,,,,,,,,,,,,,,,,,,,,,,,,,4,6.135,0,0,0,0,1,"I enjoy concentrating on a fantasy or daydream and exploring all its possibilities, letting it grow and develop.",0,1,,
,,,,,,,,,,,,,,,89939,006,2022-04-27_20h07.10.476,SPAMnetsValid,2021.1.4,MacIntel,55.55555556,,,,,,,,,,,,,,,,,,,,,,,,,,,,,,,,,,,,,,,,,,,,,,,,,,,,,,,,,,,,,,,,,,,,,,,,,,,,,,5,2.494,0,1,1,1,1,I think it's interesting to learn and develop new hobbies.,0,2,,
,,,,,,,,,,,,,,,89939,006,2022-04-27_20h07.10.476,SPAMnetsValid,2021.1.4,MacIntel,55.55555556,,,,,,,,,,,,,,,,,,,,,,,,,,,,,,,,,,,,,,,,,,,,,,,,,,,,,,,,,,,,,,,,,,,,,,,,,,,,,,5,2.512,0,2,2,2,1,I am intrigued by the patterns I find in art and nature.,0,3,,
,,,,,,,,,,,,,,,89939,006,2022-04-27_20h07.10.476,SPAMnetsValid,2021.1.4,MacIntel,55.55555556,,,,,,,,,,,,,,,,,,,,,,,,,,,,,,,,,,,,,,,,,,,,,,,,,,,,,,,,,,,,,,,,,,,,,,,,,,,,,,1,5.244,0,3,3,3,1,I believe letting students hear controversial speakers can only confuse and mislead them.,1,4,,
,,,,,,,,,,,,,,,89939,006,2022-04-27_20h07.10.476,SPAMnetsValid,2021.1.4,MacIntel,55.55555556,,,,,,,,,,,,,,,,,,,,,,,,,,,,,,,,,,,,,,,,,,,,,,,,,,,,,,,,,,,,,,,,,,,,,,,,,,,,,,3,3.133,0,4,4,4,1,Poetry has little or no effect on me.,1,5,,
,,,,,,,,,,,,,,,89939,006,2022-04-27_20h07.10.476,SPAMnetsValid,2021.1.4,MacIntel,55.55555556,,,,,,,,,,,,,,,,,,,,,,,,,,,,,,,,,,,,,,,,,,,,,,,,,,,,,,,,,,,,,,,,,,,,,,,,,,,,,,1,4.965,0,5,5,5,1,I would have difficulty just letting my mind wander without control or guidance.,1,6,,
,,,,,,,,,,,,,,,89939,006,2022-04-27_20h07.10.476,SPAMnetsValid,2021.1.4,MacIntel,55.55555556,,,,,,,,,,,,,,,,,,,,,,,,,,,,,,,,,,,,,,,,,,,,,,,,,,,,,,,,,,,,,,,,,,,,,,,,,,,,,,5,5.904,0,6,6,6,1,I seldom notice the moods or feelings that different environments produce.,1,7,,
,,,,,,,,,,,,,,,89939,006,2022-04-27_20h07.10.476,SPAMnetsValid,2021.1.4,MacIntel,55.55555556,,,,,,,,,,,,,,,,,,,,,,,,,,,,,,,,,,,,,,,,,,,,,,,,,,,,,,,,,,,,,,,,,,,,,,,,,,,,,,5,1.773,0,7,7,7,1,I experience a wide range of emotions or feelings.,0,8,,
,,,,,,,,,,,,,,,89939,006,2022-04-27_20h07.10.476,SPAMnetsValid,2021.1.4,MacIntel,55.55555556,,,,,,,,,,,,,,,,,,,,,,,,,,,,,,,,,,,,,,,,,,,,,,,,,,,,,,,,,,,,,,,,,,,,,,,,,,,,,,5,3.911,0,8,8,8,1,"Sometimes when I am reading poetry or looking at a work of art, I feel a chill or wave of excitement.",0,9,,
,,,,,,,,,,,,,,,89939,006,2022-04-27_20h07.10.476,SPAMnetsValid,2021.1.4,MacIntel,55.55555556,,,,,,,,,,,,,,,,,,,,,,,,,,,,,,,,,,,,,,,,,,,,,,,,,,,,,,,,,,,,,,,,,,,,,,,,,,,,,,1,4.397,0,9,9,9,1,I have little interest in speculating on the nature of the universe or the human condition.,1,10,,
,,,,,,,,,,,,,,,89939,006,2022-04-27_20h07.10.476,SPAMnetsValid,2021.1.4,MacIntel,55.55555556,,,,,,,,,,,,,,,,,,,,,,,,,,,,,,,,,,,,,,,,,,,,,,,,,,,,,,,,,,,,,,,,,,,,,,,,,,,,,,5,2.125,0,10,10,10,1,I have a lot of intellectual curiosity.,0,11,,
,,,,,,,,,,,,,,,89939,006,2022-04-27_20h07.10.476,SPAMnetsValid,2021.1.4,MacIntel,55.55555556,,,,,,,,,,,,,,,,,,,,,,,,,,,,,,,,,,,,,,,,,,,,,,,,,,,,,,,,,,,,,,,,,,,,,,,,,,,,,,5,2.466,0,11,11,11,1,I often enjoy playing with theories or abstract ideas.,0,12,,
,,,,,,,,,,,,,,,89939,006,2022-04-27_20h07.10.476,SPAMnetsValid,2021.1.4,MacIntel,55.55555556,,,,,,,,,,,,,,,,,,,,,,,,,,,,,,,,,,,,,,,,,,,,,,,,,,,,,,,,,,,,,,,,,,,,,,,,,,,,,,,,,,,,,,,,return,15.018
