key_resp_3.keys,key_resp_3.rt,slider.response,slider.rt,rjt_rating,rjt_RT,trials_22.thisRepN,trials_22.thisTrialN,trials_22.thisN,trials_22.thisIndex,trials_22.ran,rjt_order,word1,word2,attention,participant,session,date,expName,psychopyVersion,OS,frameRate,trials_99.thisRepN,trials_99.thisTrialN,trials_99.thisN,trials_99.thisIndex,trials_99.ran,trials_5.thisRepN,trials_5.thisTrialN,trials_5.thisN,trials_5.thisIndex,trials_5.ran,repOne,repTwo,slider_2.response,slider_2.rt,trials_24.thisRepN,trials_24.thisTrialN,trials_24.thisN,trials_24.thisIndex,trials_24.ran,trials_4.thisRepN,trials_4.thisTrialN,trials_4.thisN,trials_4.thisIndex,trials_4.ran,slider_extend_2.response,slider_extend_2.rt,trials_6.thisRepN,trials_6.thisTrialN,trials_6.thisN,trials_6.thisIndex,trials_6.ran,vCue2,R1,R2,R3,R4,correct,sliderVocab.response,sliderVocab.rt,trials_7.thisRepN,trials_7.thisTrialN,trials_7.thisN,trials_7.thisIndex,trials_7.ran,VocabCue,VR1,VR2,VR3,VR4,VR5,VocabCorrect,AUT_resp,AUT_label,trials.thisRepN,trials.thisTrialN,trials.thisN,trials.thisIndex,trials.ran,trials_2.thisRepN,trials_2.thisTrialN,trials_2.thisN,trials_2.thisIndex,trials_2.ran,aut_prompt,VF_response,VF_tag,trials_16.thisRepN,trials_16.thisTrialN,trials_16.thisN,trials_16.thisIndex,trials_16.ran,trials_17.thisRepN,trials_17.thisTrialN,trials_17.thisN,trials_17.thisIndex,trials_17.ran,VFcond,open_slider.response,open_slider.rt,trials_3.thisRepN,trials_3.thisTrialN,trials_3.thisN,trials_3.thisIndex,trials_3.ran,OpenQ,Rev,OPEN_ORDER,key_resp_2.keys,key_resp_2.rt
return,1.4479,7,13.0993,7,13.0993,0,0,0,95,1,52,carrot,tomato,,89940,001,2022-04-24_03h28.49.536,SPAMnetsValid,2021.1.4,Win32,59.93048064,,,,,,,,,,,,,,,,,,,,,,,,,,,,,,,,,,,,,,,,,,,,,,,,,,,,,,,,,,,,,,,,,,,,,,,,,,,,,,,,,,,,,,,,,
,,7,9.6858,7,9.6858,0,1,1,9,1,75,cookie,onion,,89940,001,2022-04-24_03h28.49.536,SPAMnetsValid,2021.1.4,Win32,59.93048064,,,,,,,,,,,,,,,,,,,,,,,,,,,,,,,,,,,,,,,,,,,,,,,,,,,,,,,,,,,,,,,,,,,,,,,,,,,,,,,,,,,,,,,,,
,,7,6.2767,7,6.2767,0,2,2,30,1,3,cake,oven,,89940,001,2022-04-24_03h28.49.536,SPAMnetsValid,2021.1.4,Win32,59.93048064,,,,,,,,,,,,,,,,,,,,,,,,,,,,,,,,,,,,,,,,,,,,,,,,,,,,,,,,,,,,,,,,,,,,,,,,,,,,,,,,,,,,,,,,,
,,3,3.9982,3,3.9982,0,3,3,23,1,65,broom,garden,,89940,001,2022-04-24_03h28.49.536,SPAMnetsValid,2021.1.4,Win32,59.93048064,,,,,,,,,,,,,,,,,,,,,,,,,,,,,,,,,,,,,,,,,,,,,,,,,,,,,,,,,,,,,,,,,,,,,,,,,,,,,,,,,,,,,,,,,
,,1,8.0785,1,8.0785,0,4,4,55,1,1,rose,yogurt,,89940,001,2022-04-24_03h28.49.536,SPAMnetsValid,2021.1.4,Win32,59.93048064,,,,,,,,,,,,,,,,,,,,,,,,,,,,,,,,,,,,,,,,,,,,,,,,,,,,,,,,,,,,,,,,,,,,,,,,,,,,,,,,,,,,,,,,,
,,2,3.5128,2,3.5128,0,5,5,47,1,73,broom,chocolate,,89940,001,2022-04-24_03h28.49.536,SPAMnetsValid,2021.1.4,Win32,59.93048064,,,,,,,,,,,,,,,,,,,,,,,,,,,,,,,,,,,,,,,,,,,,,,,,,,,,,,,,,,,,,,,,,,,,,,,,,,,,,,,,,,,,,,,,,
,,2,2.0091,2,2.0091,0,6,6,5,1,13,broom,yogurt,,89940,001,2022-04-24_03h28.49.536,SPAMnetsValid,2021.1.4,Win32,59.93048064,,,,,,,,,,,,,,,,,,,,,,,,,,,,,,,,,,,,,,,,,,,,,,,,,,,,,,,,,,,,,,,,,,,,,,,,,,,,,,,,,,,,,,,,,
,,8,1.7543,8,1.7543,0,7,7,87,1,79,garden,strawberry,,89940,001,2022-04-24_03h28.49.536,SPAMnetsValid,2021.1.4,Win32,59.93048064,,,,,,,,,,,,,,,,,,,,,,,,,,,,,,,,,,,,,,,,,,,,,,,,,,,,,,,,,,,,,,,,,,,,,,,,,,,,,,,,,,,,,,,,,
,,6,2.6829,6,2.6829,0,8,8,91,1,2,kitchen,onion,,89940,001,2022-04-24_03h28.49.536,SPAMnetsValid,2021.1.4,Win32,59.93048064,,,,,,,,,,,,,,,,,,,,,,,,,,,,,,,,,,,,,,,,,,,,,,,,,,,,,,,,,,,,,,,,,,,,,,,,,,,,,,,,,,,,,,,,,
,,7,2.0921,7,2.0921,0,9,9,92,1,44,cookie,melon,,89940,001,2022-04-24_03h28.49.536,SPAMnetsValid,2021.1.4,Win32,59.93048064,,,,,,,,,,,,,,,,,,,,,,,,,,,,,,,,,,,,,,,,,,,,,,,,,,,,,,,,,,,,,,,,,,,,,,,,,,,,,,,,,,,,,,,,,
,,6,2.4987,6,2.4987,0,10,10,50,1,81,pretzel,yogurt,,89940,001,2022-04-24_03h28.49.536,SPAMnetsValid,2021.1.4,Win32,59.93048064,,,,,,,,,,,,,,,,,,,,,,,,,,,,,,,,,,,,,,,,,,,,,,,,,,,,,,,,,,,,,,,,,,,,,,,,,,,,,,,,,,,,,,,,,
,,8,2.52,8,2.52,0,11,11,41,1,19,microwave,pretzel,,89940,001,2022-04-24_03h28.49.536,SPAMnetsValid,2021.1.4,Win32,59.93048064,,,,,,,,,,,,,,,,,,,,,,,,,,,,,,,,,,,,,,,,,,,,,,,,,,,,,,,,,,,,,,,,,,,,,,,,,,,,,,,,,,,,,,,,,
,,3,3.3674,3,3.3674,0,12,12,71,1,38,pretzel,refrigerator,,89940,001,2022-04-24_03h28.49.536,SPAMnetsValid,2021.1.4,Win32,59.93048064,,,,,,,,,,,,,,,,,,,,,,,,,,,,,,,,,,,,,,,,,,,,,,,,,,,,,,,,,,,,,,,,,,,,,,,,,,,,,,,,,,,,,,,,,
,,6,1.6427,6,1.6427,0,13,13,49,1,57,flower,kitchen,,89940,001,2022-04-24_03h28.49.536,SPAMnetsValid,2021.1.4,Win32,59.93048064,,,,,,,,,,,,,,,,,,,,,,,,,,,,,,,,,,,,,,,,,,,,,,,,,,,,,,,,,,,,,,,,,,,,,,,,,,,,,,,,,,,,,,,,,
,,1,2.1959,1,2.1959,0,14,14,40,1,74,broom,pretzel,,89940,001,2022-04-24_03h28.49.536,SPAMnetsValid,2021.1.4,Win32,59.93048064,,,,,,,,,,,,,,,,,,,,,,,,,,,,,,,,,,,,,,,,,,,,,,,,,,,,,,,,,,,,,,,,,,,,,,,,,,,,,,,,,,,,,,,,,
,,6,1.7504,6,1.7504,0,15,15,8,1,43,chocolate,tomato,,89940,001,2022-04-24_03h28.49.536,SPAMnetsValid,2021.1.4,Win32,59.93048064,,,,,,,,,,,,,,,,,,,,,,,,,,,,,,,,,,,,,,,,,,,,,,,,,,,,,,,,,,,,,,,,,,,,,,,,,,,,,,,,,,,,,,,,,
,,6,3.2921,6,3.2921,0,16,16,96,1,82,cake,kitchen,,89940,001,2022-04-24_03h28.49.536,SPAMnetsValid,2021.1.4,Win32,59.93048064,,,,,,,,,,,,,,,,,,,,,,,,,,,,,,,,,,,,,,,,,,,,,,,,,,,,,,,,,,,,,,,,,,,,,,,,,,,,,,,,,,,,,,,,,
,,1,2.0506,1,2.0506,0,17,17,43,1,11,refrigerator,tree,,89940,001,2022-04-24_03h28.49.536,SPAMnetsValid,2021.1.4,Win32,59.93048064,,,,,,,,,,,,,,,,,,,,,,,,,,,,,,,,,,,,,,,,,,,,,,,,,,,,,,,,,,,,,,,,,,,,,,,,,,,,,,,,,,,,,,,,,
,,8,1.961,8,1.961,0,18,18,21,1,56,cactus,tree,,89940,001,2022-04-24_03h28.49.536,SPAMnetsValid,2021.1.4,Win32,59.93048064,,,,,,,,,,,,,,,,,,,,,,,,,,,,,,,,,,,,,,,,,,,,,,,,,,,,,,,,,,,,,,,,,,,,,,,,,,,,,,,,,,,,,,,,,
,,6,3.3238,6,3.3238,0,19,19,20,1,39,melon,pretzel,,89940,001,2022-04-24_03h28.49.536,SPAMnetsValid,2021.1.4,Win32,59.93048064,,,,,,,,,,,,,,,,,,,,,,,,,,,,,,,,,,,,,,,,,,,,,,,,,,,,,,,,,,,,,,,,,,,,,,,,,,,,,,,,,,,,,,,,,
,,5,5.9202,5,5.9202,0,20,20,17,1,27,cactus,cookie,,89940,001,2022-04-24_03h28.49.536,SPAMnetsValid,2021.1.4,Win32,59.93048064,,,,,,,,,,,,,,,,,,,,,,,,,,,,,,,,,,,,,,,,,,,,,,,,,,,,,,,,,,,,,,,,,,,,,,,,,,,,,,,,,,,,,,,,,
,,3,3.2275,3,3.2275,0,21,21,33,1,32,cake,microwave,,89940,001,2022-04-24_03h28.49.536,SPAMnetsValid,2021.1.4,Win32,59.93048064,,,,,,,,,,,,,,,,,,,,,,,,,,,,,,,,,,,,,,,,,,,,,,,,,,,,,,,,,,,,,,,,,,,,,,,,,,,,,,,,,,,,,,,,,
,,6,1.789,6,1.789,0,22,22,69,1,45,onion,pretzel,,89940,001,2022-04-24_03h28.49.536,SPAMnetsValid,2021.1.4,Win32,59.93048064,,,,,,,,,,,,,,,,,,,,,,,,,,,,,,,,,,,,,,,,,,,,,,,,,,,,,,,,,,,,,,,,,,,,,,,,,,,,,,,,,,,,,,,,,
,,1,2.0144,1,2.0144,0,23,23,32,1,40,broom,cake,,89940,001,2022-04-24_03h28.49.536,SPAMnetsValid,2021.1.4,Win32,59.93048064,,,,,,,,,,,,,,,,,,,,,,,,,,,,,,,,,,,,,,,,,,,,,,,,,,,,,,,,,,,,,,,,,,,,,,,,,,,,,,,,,,,,,,,,,
,,6,2.7012,6,2.7012,0,24,24,75,1,69,carrot,refrigerator,,89940,001,2022-04-24_03h28.49.536,SPAMnetsValid,2021.1.4,Win32,59.93048064,,,,,,,,,,,,,,,,,,,,,,,,,,,,,,,,,,,,,,,,,,,,,,,,,,,,,,,,,,,,,,,,,,,,,,,,,,,,,,,,,,,,,,,,,
,,1,4.2805,1,4.2805,0,25,25,18,1,85,cake,tree,,89940,001,2022-04-24_03h28.49.536,SPAMnetsValid,2021.1.4,Win32,59.93048064,,,,,,,,,,,,,,,,,,,,,,,,,,,,,,,,,,,,,,,,,,,,,,,,,,,,,,,,,,,,,,,,,,,,,,,,,,,,,,,,,,,,,,,,,
,,3,3.6109,3,3.6109,0,26,26,60,1,89,chocolate,rose,,89940,001,2022-04-24_03h28.49.536,SPAMnetsValid,2021.1.4,Win32,59.93048064,,,,,,,,,,,,,,,,,,,,,,,,,,,,,,,,,,,,,,,,,,,,,,,,,,,,,,,,,,,,,,,,,,,,,,,,,,,,,,,,,,,,,,,,,
,,3,2.8751,3,2.8751,0,27,27,28,1,84,oven,tomato,,89940,001,2022-04-24_03h28.49.536,SPAMnetsValid,2021.1.4,Win32,59.93048064,,,,,,,,,,,,,,,,,,,,,,,,,,,,,,,,,,,,,,,,,,,,,,,,,,,,,,,,,,,,,,,,,,,,,,,,,,,,,,,,,,,,,,,,,
,,9,2.7966,9,2.7966,0,28,28,10,1,191,cake,cake,CHECK,89940,001,2022-04-24_03h28.49.536,SPAMnetsValid,2021.1.4,Win32,59.93048064,,,,,,,,,,,,,,,,,,,,,,,,,,,,,,,,,,,,,,,,,,,,,,,,,,,,,,,,,,,,,,,,,,,,,,,,,,,,,,,,,,,,,,,,,
,,2,2.2093,2,2.2093,0,29,29,61,1,71,broom,rose,,89940,001,2022-04-24_03h28.49.536,SPAMnetsValid,2021.1.4,Win32,59.93048064,,,,,,,,,,,,,,,,,,,,,,,,,,,,,,,,,,,,,,,,,,,,,,,,,,,,,,,,,,,,,,,,,,,,,,,,,,,,,,,,,,,,,,,,,
,,8,2.2497,8,2.2497,0,30,30,64,1,9,kitchen,refrigerator,,89940,001,2022-04-24_03h28.49.536,SPAMnetsValid,2021.1.4,Win32,59.93048064,,,,,,,,,,,,,,,,,,,,,,,,,,,,,,,,,,,,,,,,,,,,,,,,,,,,,,,,,,,,,,,,,,,,,,,,,,,,,,,,,,,,,,,,,
,,6,4.731,6,4.731,0,31,31,36,1,12,cookie,yogurt,,89940,001,2022-04-24_03h28.49.536,SPAMnetsValid,2021.1.4,Win32,59.93048064,,,,,,,,,,,,,,,,,,,,,,,,,,,,,,,,,,,,,,,,,,,,,,,,,,,,,,,,,,,,,,,,,,,,,,,,,,,,,,,,,,,,,,,,,
,,1,1.8674,1,1.8674,0,32,32,15,1,48,flower,oven,,89940,001,2022-04-24_03h28.49.536,SPAMnetsValid,2021.1.4,Win32,59.93048064,,,,,,,,,,,,,,,,,,,,,,,,,,,,,,,,,,,,,,,,,,,,,,,,,,,,,,,,,,,,,,,,,,,,,,,,,,,,,,,,,,,,,,,,,
,,2,5.1446,2,5.1446,0,33,33,70,1,5,oven,tree,,89940,001,2022-04-24_03h28.49.536,SPAMnetsValid,2021.1.4,Win32,59.93048064,,,,,,,,,,,,,,,,,,,,,,,,,,,,,,,,,,,,,,,,,,,,,,,,,,,,,,,,,,,,,,,,,,,,,,,,,,,,,,,,,,,,,,,,,
,,3,2.0586,3,2.0586,0,34,34,59,1,8,broom,melon,,89940,001,2022-04-24_03h28.49.536,SPAMnetsValid,2021.1.4,Win32,59.93048064,,,,,,,,,,,,,,,,,,,,,,,,,,,,,,,,,,,,,,,,,,,,,,,,,,,,,,,,,,,,,,,,,,,,,,,,,,,,,,,,,,,,,,,,,
,,5,2.1586,5,2.1586,0,35,35,3,1,49,flower,strawberry,,89940,001,2022-04-24_03h28.49.536,SPAMnetsValid,2021.1.4,Win32,59.93048064,,,,,,,,,,,,,,,,,,,,,,,,,,,,,,,,,,,,,,,,,,,,,,,,,,,,,,,,,,,,,,,,,,,,,,,,,,,,,,,,,,,,,,,,,
,,9,6.5934,9,6.5934,0,36,36,93,1,63,cake,cookie,,89940,001,2022-04-24_03h28.49.536,SPAMnetsValid,2021.1.4,Win32,59.93048064,,,,,,,,,,,,,,,,,,,,,,,,,,,,,,,,,,,,,,,,,,,,,,,,,,,,,,,,,,,,,,,,,,,,,,,,,,,,,,,,,,,,,,,,,
,,6,2.2684,6,2.2684,0,37,37,86,1,51,onion,strawberry,,89940,001,2022-04-24_03h28.49.536,SPAMnetsValid,2021.1.4,Win32,59.93048064,,,,,,,,,,,,,,,,,,,,,,,,,,,,,,,,,,,,,,,,,,,,,,,,,,,,,,,,,,,,,,,,,,,,,,,,,,,,,,,,,,,,,,,,,
,,5,2.7426,5,2.7426,0,38,38,78,1,30,cookie,pretzel,,89940,001,2022-04-24_03h28.49.536,SPAMnetsValid,2021.1.4,Win32,59.93048064,,,,,,,,,,,,,,,,,,,,,,,,,,,,,,,,,,,,,,,,,,,,,,,,,,,,,,,,,,,,,,,,,,,,,,,,,,,,,,,,,,,,,,,,,
,,3,1.8867,3,1.8867,0,39,39,1,1,31,cactus,pretzel,,89940,001,2022-04-24_03h28.49.536,SPAMnetsValid,2021.1.4,Win32,59.93048064,,,,,,,,,,,,,,,,,,,,,,,,,,,,,,,,,,,,,,,,,,,,,,,,,,,,,,,,,,,,,,,,,,,,,,,,,,,,,,,,,,,,,,,,,
,,5,2.1182,5,2.1182,0,40,40,2,1,22,kitchen,strawberry,,89940,001,2022-04-24_03h28.49.536,SPAMnetsValid,2021.1.4,Win32,59.93048064,,,,,,,,,,,,,,,,,,,,,,,,,,,,,,,,,,,,,,,,,,,,,,,,,,,,,,,,,,,,,,,,,,,,,,,,,,,,,,,,,,,,,,,,,
,,3,1.8773,3,1.8773,0,41,41,77,1,7,melon,tree,,89940,001,2022-04-24_03h28.49.536,SPAMnetsValid,2021.1.4,Win32,59.93048064,,,,,,,,,,,,,,,,,,,,,,,,,,,,,,,,,,,,,,,,,,,,,,,,,,,,,,,,,,,,,,,,,,,,,,,,,,,,,,,,,,,,,,,,,
,,1,1.8875,1,1.8875,0,42,42,4,1,83,broom,carrot,,89940,001,2022-04-24_03h28.49.536,SPAMnetsValid,2021.1.4,Win32,59.93048064,,,,,,,,,,,,,,,,,,,,,,,,,,,,,,,,,,,,,,,,,,,,,,,,,,,,,,,,,,,,,,,,,,,,,,,,,,,,,,,,,,,,,,,,,
,,2,2.0498,2,2.0498,0,43,43,65,1,46,garden,yogurt,,89940,001,2022-04-24_03h28.49.536,SPAMnetsValid,2021.1.4,Win32,59.93048064,,,,,,,,,,,,,,,,,,,,,,,,,,,,,,,,,,,,,,,,,,,,,,,,,,,,,,,,,,,,,,,,,,,,,,,,,,,,,,,,,,,,,,,,,
,,1,1.6178,1,1.6178,0,44,44,73,1,50,carrot,rose,,89940,001,2022-04-24_03h28.49.536,SPAMnetsValid,2021.1.4,Win32,59.93048064,,,,,,,,,,,,,,,,,,,,,,,,,,,,,,,,,,,,,,,,,,,,,,,,,,,,,,,,,,,,,,,,,,,,,,,,,,,,,,,,,,,,,,,,,
,,1,1.7245,1,1.7245,0,45,45,94,1,68,flower,tomato,,89940,001,2022-04-24_03h28.49.536,SPAMnetsValid,2021.1.4,Win32,59.93048064,,,,,,,,,,,,,,,,,,,,,,,,,,,,,,,,,,,,,,,,,,,,,,,,,,,,,,,,,,,,,,,,,,,,,,,,,,,,,,,,,,,,,,,,,
,,2,1.9326,2,1.9326,0,46,46,29,1,42,garden,kitchen,,89940,001,2022-04-24_03h28.49.536,SPAMnetsValid,2021.1.4,Win32,59.93048064,,,,,,,,,,,,,,,,,,,,,,,,,,,,,,,,,,,,,,,,,,,,,,,,,,,,,,,,,,,,,,,,,,,,,,,,,,,,,,,,,,,,,,,,,
,,9,1.7102,9,1.7102,0,47,47,19,1,76,garden,rose,,89940,001,2022-04-24_03h28.49.536,SPAMnetsValid,2021.1.4,Win32,59.93048064,,,,,,,,,,,,,,,,,,,,,,,,,,,,,,,,,,,,,,,,,,,,,,,,,,,,,,,,,,,,,,,,,,,,,,,,,,,,,,,,,,,,,,,,,
,,3,3.0319,3,3.0319,0,48,48,62,1,18,onion,refrigerator,,89940,001,2022-04-24_03h28.49.536,SPAMnetsValid,2021.1.4,Win32,59.93048064,,,,,,,,,,,,,,,,,,,,,,,,,,,,,,,,,,,,,,,,,,,,,,,,,,,,,,,,,,,,,,,,,,,,,,,,,,,,,,,,,,,,,,,,,
,,5,2.3839,5,2.3839,0,49,49,63,1,21,cake,onion,,89940,001,2022-04-24_03h28.49.536,SPAMnetsValid,2021.1.4,Win32,59.93048064,,,,,,,,,,,,,,,,,,,,,,,,,,,,,,,,,,,,,,,,,,,,,,,,,,,,,,,,,,,,,,,,,,,,,,,,,,,,,,,,,,,,,,,,,
,,3,2.4323,3,2.4323,0,50,50,45,1,10,flower,onion,,89940,001,2022-04-24_03h28.49.536,SPAMnetsValid,2021.1.4,Win32,59.93048064,,,,,,,,,,,,,,,,,,,,,,,,,,,,,,,,,,,,,,,,,,,,,,,,,,,,,,,,,,,,,,,,,,,,,,,,,,,,,,,,,,,,,,,,,
,,6,3.6551,6,3.6551,0,51,51,24,1,17,carrot,melon,,89940,001,2022-04-24_03h28.49.536,SPAMnetsValid,2021.1.4,Win32,59.93048064,,,,,,,,,,,,,,,,,,,,,,,,,,,,,,,,,,,,,,,,,,,,,,,,,,,,,,,,,,,,,,,,,,,,,,,,,,,,,,,,,,,,,,,,,
,,2,2.137,2,2.137,0,52,52,76,1,36,broom,kitchen,,89940,001,2022-04-24_03h28.49.536,SPAMnetsValid,2021.1.4,Win32,59.93048064,,,,,,,,,,,,,,,,,,,,,,,,,,,,,,,,,,,,,,,,,,,,,,,,,,,,,,,,,,,,,,,,,,,,,,,,,,,,,,,,,,,,,,,,,
,,9,2.485,9,2.485,0,53,53,66,1,20,rose,tree,,89940,001,2022-04-24_03h28.49.536,SPAMnetsValid,2021.1.4,Win32,59.93048064,,,,,,,,,,,,,,,,,,,,,,,,,,,,,,,,,,,,,,,,,,,,,,,,,,,,,,,,,,,,,,,,,,,,,,,,,,,,,,,,,,,,,,,,,
,,4,2.442,4,2.442,0,54,54,56,1,78,cookie,rose,,89940,001,2022-04-24_03h28.49.536,SPAMnetsValid,2021.1.4,Win32,59.93048064,,,,,,,,,,,,,,,,,,,,,,,,,,,,,,,,,,,,,,,,,,,,,,,,,,,,,,,,,,,,,,,,,,,,,,,,,,,,,,,,,,,,,,,,,
,,7,2.2516,7,2.2516,0,55,55,80,1,61,strawberry,tomato,,89940,001,2022-04-24_03h28.49.536,SPAMnetsValid,2021.1.4,Win32,59.93048064,,,,,,,,,,,,,,,,,,,,,,,,,,,,,,,,,,,,,,,,,,,,,,,,,,,,,,,,,,,,,,,,,,,,,,,,,,,,,,,,,,,,,,,,,
,,8,2.1622,8,2.1622,0,56,56,82,1,93,kitchen,oven,,89940,001,2022-04-24_03h28.49.536,SPAMnetsValid,2021.1.4,Win32,59.93048064,,,,,,,,,,,,,,,,,,,,,,,,,,,,,,,,,,,,,,,,,,,,,,,,,,,,,,,,,,,,,,,,,,,,,,,,,,,,,,,,,,,,,,,,,
,,7,2.2042,7,2.2042,0,57,57,42,1,77,refrigerator,yogurt,,89940,001,2022-04-24_03h28.49.536,SPAMnetsValid,2021.1.4,Win32,59.93048064,,,,,,,,,,,,,,,,,,,,,,,,,,,,,,,,,,,,,,,,,,,,,,,,,,,,,,,,,,,,,,,,,,,,,,,,,,,,,,,,,,,,,,,,,
,,4,3.764,4,3.764,0,58,58,74,1,70,chocolate,onion,,89940,001,2022-04-24_03h28.49.536,SPAMnetsValid,2021.1.4,Win32,59.93048064,,,,,,,,,,,,,,,,,,,,,,,,,,,,,,,,,,,,,,,,,,,,,,,,,,,,,,,,,,,,,,,,,,,,,,,,,,,,,,,,,,,,,,,,,
,,9,2.933,9,2.933,0,59,59,53,1,192,microwave,microwave,CHECK,89940,001,2022-04-24_03h28.49.536,SPAMnetsValid,2021.1.4,Win32,59.93048064,,,,,,,,,,,,,,,,,,,,,,,,,,,,,,,,,,,,,,,,,,,,,,,,,,,,,,,,,,,,,,,,,,,,,,,,,,,,,,,,,,,,,,,,,
,,7,3.0359,7,3.0359,0,60,60,90,1,95,broom,refrigerator,,89940,001,2022-04-24_03h28.49.536,SPAMnetsValid,2021.1.4,Win32,59.93048064,,,,,,,,,,,,,,,,,,,,,,,,,,,,,,,,,,,,,,,,,,,,,,,,,,,,,,,,,,,,,,,,,,,,,,,,,,,,,,,,,,,,,,,,,
,,6,3.2104,6,3.2104,0,61,61,13,1,26,tomato,yogurt,,89940,001,2022-04-24_03h28.49.536,SPAMnetsValid,2021.1.4,Win32,59.93048064,,,,,,,,,,,,,,,,,,,,,,,,,,,,,,,,,,,,,,,,,,,,,,,,,,,,,,,,,,,,,,,,,,,,,,,,,,,,,,,,,,,,,,,,,
,,7,3.7579,7,3.7579,0,62,62,67,1,54,chocolate,yogurt,,89940,001,2022-04-24_03h28.49.536,SPAMnetsValid,2021.1.4,Win32,59.93048064,,,,,,,,,,,,,,,,,,,,,,,,,,,,,,,,,,,,,,,,,,,,,,,,,,,,,,,,,,,,,,,,,,,,,,,,,,,,,,,,,,,,,,,,,
,,9,1.9688,9,1.9688,0,63,63,58,1,94,kitchen,microwave,,89940,001,2022-04-24_03h28.49.536,SPAMnetsValid,2021.1.4,Win32,59.93048064,,,,,,,,,,,,,,,,,,,,,,,,,,,,,,,,,,,,,,,,,,,,,,,,,,,,,,,,,,,,,,,,,,,,,,,,,,,,,,,,,,,,,,,,,
,,6,3.4748,6,3.4748,0,64,64,54,1,28,cake,melon,,89940,001,2022-04-24_03h28.49.536,SPAMnetsValid,2021.1.4,Win32,59.93048064,,,,,,,,,,,,,,,,,,,,,,,,,,,,,,,,,,,,,,,,,,,,,,,,,,,,,,,,,,,,,,,,,,,,,,,,,,,,,,,,,,,,,,,,,
,,2,2.4927,2,2.4927,0,65,65,89,1,80,chocolate,tree,,89940,001,2022-04-24_03h28.49.536,SPAMnetsValid,2021.1.4,Win32,59.93048064,,,,,,,,,,,,,,,,,,,,,,,,,,,,,,,,,,,,,,,,,,,,,,,,,,,,,,,,,,,,,,,,,,,,,,,,,,,,,,,,,,,,,,,,,
,,2,2.183,2,2.183,0,66,66,26,1,35,flower,pretzel,,89940,001,2022-04-24_03h28.49.536,SPAMnetsValid,2021.1.4,Win32,59.93048064,,,,,,,,,,,,,,,,,,,,,,,,,,,,,,,,,,,,,,,,,,,,,,,,,,,,,,,,,,,,,,,,,,,,,,,,,,,,,,,,,,,,,,,,,
,,4,3.3144,4,3.3144,0,67,67,27,1,72,broom,onion,,89940,001,2022-04-24_03h28.49.536,SPAMnetsValid,2021.1.4,Win32,59.93048064,,,,,,,,,,,,,,,,,,,,,,,,,,,,,,,,,,,,,,,,,,,,,,,,,,,,,,,,,,,,,,,,,,,,,,,,,,,,,,,,,,,,,,,,,
,,3,2.7782,3,2.7782,0,68,68,31,1,33,oven,yogurt,,89940,001,2022-04-24_03h28.49.536,SPAMnetsValid,2021.1.4,Win32,59.93048064,,,,,,,,,,,,,,,,,,,,,,,,,,,,,,,,,,,,,,,,,,,,,,,,,,,,,,,,,,,,,,,,,,,,,,,,,,,,,,,,,,,,,,,,,
,,2,2.715,2,2.715,0,69,69,35,1,55,tomato,tree,,89940,001,2022-04-24_03h28.49.536,SPAMnetsValid,2021.1.4,Win32,59.93048064,,,,,,,,,,,,,,,,,,,,,,,,,,,,,,,,,,,,,,,,,,,,,,,,,,,,,,,,,,,,,,,,,,,,,,,,,,,,,,,,,,,,,,,,,
,,3,1.716,3,1.716,0,70,70,38,1,88,cactus,melon,,89940,001,2022-04-24_03h28.49.536,SPAMnetsValid,2021.1.4,Win32,59.93048064,,,,,,,,,,,,,,,,,,,,,,,,,,,,,,,,,,,,,,,,,,,,,,,,,,,,,,,,,,,,,,,,,,,,,,,,,,,,,,,,,,,,,,,,,
,,3,1.4034,3,1.4034,0,71,71,83,1,6,garden,onion,,89940,001,2022-04-24_03h28.49.536,SPAMnetsValid,2021.1.4,Win32,59.93048064,,,,,,,,,,,,,,,,,,,,,,,,,,,,,,,,,,,,,,,,,,,,,,,,,,,,,,,,,,,,,,,,,,,,,,,,,,,,,,,,,,,,,,,,,
,,8,2.3399,8,2.3399,0,72,72,44,1,25,carrot,onion,,89940,001,2022-04-24_03h28.49.536,SPAMnetsValid,2021.1.4,Win32,59.93048064,,,,,,,,,,,,,,,,,,,,,,,,,,,,,,,,,,,,,,,,,,,,,,,,,,,,,,,,,,,,,,,,,,,,,,,,,,,,,,,,,,,,,,,,,
,,3,1.9045,3,1.9045,0,73,73,81,1,60,cactus,onion,,89940,001,2022-04-24_03h28.49.536,SPAMnetsValid,2021.1.4,Win32,59.93048064,,,,,,,,,,,,,,,,,,,,,,,,,,,,,,,,,,,,,,,,,,,,,,,,,,,,,,,,,,,,,,,,,,,,,,,,,,,,,,,,,,,,,,,,,
,,4,1.4624,4,1.4624,0,74,74,25,1,23,flower,microwave,,89940,001,2022-04-24_03h28.49.536,SPAMnetsValid,2021.1.4,Win32,59.93048064,,,,,,,,,,,,,,,,,,,,,,,,,,,,,,,,,,,,,,,,,,,,,,,,,,,,,,,,,,,,,,,,,,,,,,,,,,,,,,,,,,,,,,,,,
,,6,4.5651,6,4.5651,0,75,75,34,1,29,chocolate,melon,,89940,001,2022-04-24_03h28.49.536,SPAMnetsValid,2021.1.4,Win32,59.93048064,,,,,,,,,,,,,,,,,,,,,,,,,,,,,,,,,,,,,,,,,,,,,,,,,,,,,,,,,,,,,,,,,,,,,,,,,,,,,,,,,,,,,,,,,
,,5,1.6879,5,1.6879,0,76,76,57,1,62,kitchen,rose,,89940,001,2022-04-24_03h28.49.536,SPAMnetsValid,2021.1.4,Win32,59.93048064,,,,,,,,,,,,,,,,,,,,,,,,,,,,,,,,,,,,,,,,,,,,,,,,,,,,,,,,,,,,,,,,,,,,,,,,,,,,,,,,,,,,,,,,,
,,6,1.5831,6,1.5831,0,77,77,48,1,66,melon,yogurt,,89940,001,2022-04-24_03h28.49.536,SPAMnetsValid,2021.1.4,Win32,59.93048064,,,,,,,,,,,,,,,,,,,,,,,,,,,,,,,,,,,,,,,,,,,,,,,,,,,,,,,,,,,,,,,,,,,,,,,,,,,,,,,,,,,,,,,,,
,,2,1.6237,2,1.6237,0,78,78,16,1,14,broom,cookie,,89940,001,2022-04-24_03h28.49.536,SPAMnetsValid,2021.1.4,Win32,59.93048064,,,,,,,,,,,,,,,,,,,,,,,,,,,,,,,,,,,,,,,,,,,,,,,,,,,,,,,,,,,,,,,,,,,,,,,,,,,,,,,,,,,,,,,,,
,,2,1.4402,2,1.4402,0,79,79,68,1,24,cookie,tomato,,89940,001,2022-04-24_03h28.49.536,SPAMnetsValid,2021.1.4,Win32,59.93048064,,,,,,,,,,,,,,,,,,,,,,,,,,,,,,,,,,,,,,,,,,,,,,,,,,,,,,,,,,,,,,,,,,,,,,,,,,,,,,,,,,,,,,,,,
,,7,2.61,7,2.61,0,80,80,52,1,4,chocolate,pretzel,,89940,001,2022-04-24_03h28.49.536,SPAMnetsValid,2021.1.4,Win32,59.93048064,,,,,,,,,,,,,,,,,,,,,,,,,,,,,,,,,,,,,,,,,,,,,,,,,,,,,,,,,,,,,,,,,,,,,,,,,,,,,,,,,,,,,,,,,
,,3,2.507,3,2.507,0,81,81,14,1,64,chocolate,garden,,89940,001,2022-04-24_03h28.49.536,SPAMnetsValid,2021.1.4,Win32,59.93048064,,,,,,,,,,,,,,,,,,,,,,,,,,,,,,,,,,,,,,,,,,,,,,,,,,,,,,,,,,,,,,,,,,,,,,,,,,,,,,,,,,,,,,,,,
,,3,1.5515,3,1.5515,0,82,82,46,1,41,broom,cactus,,89940,001,2022-04-24_03h28.49.536,SPAMnetsValid,2021.1.4,Win32,59.93048064,,,,,,,,,,,,,,,,,,,,,,,,,,,,,,,,,,,,,,,,,,,,,,,,,,,,,,,,,,,,,,,,,,,,,,,,,,,,,,,,,,,,,,,,,
,,4,1.6672,4,1.6672,0,83,83,22,1,16,chocolate,flower,,89940,001,2022-04-24_03h28.49.536,SPAMnetsValid,2021.1.4,Win32,59.93048064,,,,,,,,,,,,,,,,,,,,,,,,,,,,,,,,,,,,,,,,,,,,,,,,,,,,,,,,,,,,,,,,,,,,,,,,,,,,,,,,,,,,,,,,,
,,6,1.6288,6,1.6288,0,84,84,39,1,15,onion,oven,,89940,001,2022-04-24_03h28.49.536,SPAMnetsValid,2021.1.4,Win32,59.93048064,,,,,,,,,,,,,,,,,,,,,,,,,,,,,,,,,,,,,,,,,,,,,,,,,,,,,,,,,,,,,,,,,,,,,,,,,,,,,,,,,,,,,,,,,
,,6,2.8513,6,2.8513,0,85,85,12,1,67,flower,yogurt,,89940,001,2022-04-24_03h28.49.536,SPAMnetsValid,2021.1.4,Win32,59.93048064,,,,,,,,,,,,,,,,,,,,,,,,,,,,,,,,,,,,,,,,,,,,,,,,,,,,,,,,,,,,,,,,,,,,,,,,,,,,,,,,,,,,,,,,,
,,2,4.0175,2,4.0175,0,86,86,11,1,37,garden,refrigerator,,89940,001,2022-04-24_03h28.49.536,SPAMnetsValid,2021.1.4,Win32,59.93048064,,,,,,,,,,,,,,,,,,,,,,,,,,,,,,,,,,,,,,,,,,,,,,,,,,,,,,,,,,,,,,,,,,,,,,,,,,,,,,,,,,,,,,,,,
,,4,2.2925,4,2.2925,0,87,87,85,1,90,cactus,cake,,89940,001,2022-04-24_03h28.49.536,SPAMnetsValid,2021.1.4,Win32,59.93048064,,,,,,,,,,,,,,,,,,,,,,,,,,,,,,,,,,,,,,,,,,,,,,,,,,,,,,,,,,,,,,,,,,,,,,,,,,,,,,,,,,,,,,,,,
,,4,1.4944,4,1.4944,0,88,88,84,1,91,microwave,rose,,89940,001,2022-04-24_03h28.49.536,SPAMnetsValid,2021.1.4,Win32,59.93048064,,,,,,,,,,,,,,,,,,,,,,,,,,,,,,,,,,,,,,,,,,,,,,,,,,,,,,,,,,,,,,,,,,,,,,,,,,,,,,,,,,,,,,,,,
,,4,1.5936,4,1.5936,0,89,89,79,1,86,oven,rose,,89940,001,2022-04-24_03h28.49.536,SPAMnetsValid,2021.1.4,Win32,59.93048064,,,,,,,,,,,,,,,,,,,,,,,,,,,,,,,,,,,,,,,,,,,,,,,,,,,,,,,,,,,,,,,,,,,,,,,,,,,,,,,,,,,,,,,,,
,,3,2.492,3,2.492,0,90,90,0,1,53,garden,pretzel,,89940,001,2022-04-24_03h28.49.536,SPAMnetsValid,2021.1.4,Win32,59.93048064,,,,,,,,,,,,,,,,,,,,,,,,,,,,,,,,,,,,,,,,,,,,,,,,,,,,,,,,,,,,,,,,,,,,,,,,,,,,,,,,,,,,,,,,,
,,7,2.6159,7,2.6159,0,91,91,72,1,59,rose,strawberry,,89940,001,2022-04-24_03h28.49.536,SPAMnetsValid,2021.1.4,Win32,59.93048064,,,,,,,,,,,,,,,,,,,,,,,,,,,,,,,,,,,,,,,,,,,,,,,,,,,,,,,,,,,,,,,,,,,,,,,,,,,,,,,,,,,,,,,,,
,,6,1.7159,6,1.7159,0,92,92,6,1,87,carrot,yogurt,,89940,001,2022-04-24_03h28.49.536,SPAMnetsValid,2021.1.4,Win32,59.93048064,,,,,,,,,,,,,,,,,,,,,,,,,,,,,,,,,,,,,,,,,,,,,,,,,,,,,,,,,,,,,,,,,,,,,,,,,,,,,,,,,,,,,,,,,
,,2,2.0327,2,2.0327,0,93,93,37,1,58,garden,oven,,89940,001,2022-04-24_03h28.49.536,SPAMnetsValid,2021.1.4,Win32,59.93048064,,,,,,,,,,,,,,,,,,,,,,,,,,,,,,,,,,,,,,,,,,,,,,,,,,,,,,,,,,,,,,,,,,,,,,,,,,,,,,,,,,,,,,,,,
,,8,2.5178,8,2.5178,0,94,94,51,1,47,onion,tomato,,89940,001,2022-04-24_03h28.49.536,SPAMnetsValid,2021.1.4,Win32,59.93048064,,,,,,,,,,,,,,,,,,,,,,,,,,,,,,,,,,,,,,,,,,,,,,,,,,,,,,,,,,,,,,,,,,,,,,,,,,,,,,,,,,,,,,,,,
,,2,2.0132,2,2.0132,0,95,95,7,1,34,melon,oven,,89940,001,2022-04-24_03h28.49.536,SPAMnetsValid,2021.1.4,Win32,59.93048064,,,,,,,,,,,,,,,,,,,,,,,,,,,,,,,,,,,,,,,,,,,,,,,,,,,,,,,,,,,,,,,,,,,,,,,,,,,,,,,,,,,,,,,,,
,,2,85.7193,2,85.7193,0,96,96,88,1,92,broom,flower,,89940,001,2022-04-24_03h28.49.536,SPAMnetsValid,2021.1.4,Win32,59.93048064,,,,,,,,,,,,,,,,,,,,,,,,,,,,,,,,,,,,,,,,,,,,,,,,,,,,,,,,,,,,,,,,,,,,,,,,,,,,,,,,,,,,,,,,,
,,,,,,,,,,,,,,,89940,001,2022-04-24_03h28.49.536,SPAMnetsValid,2021.1.4,Win32,59.93048064,0,0,0,0,1,,,,,,,,,,,,,,,,,,,,,,,,,,,,,,,,,,,,,,,,,,,,,,,,,,,,,,,,,,,,,,,,,,,,,,,,,,,,,,,,,,,,
,,,,,,,,,,,,,,,89940,001,2022-04-24_03h28.49.536,SPAMnetsValid,2021.1.4,Win32,59.93048064,,,,,,0,0,0,0,1,1,0,,,,,,,,,,,,,,,,,,,,,,,,,,,,,,,,,,,,,,,,,,,,,,,,,,,,,,,,,,,,,,,,,,,,,,,,,,,,,
,,,,3,3.9403,,,,,,145,cactus,yogurt,,89940,001,2022-04-24_03h28.49.536,SPAMnetsValid,2021.1.4,Win32,59.93048064,,,,,,,,,,,,,3,3.9403,0,0,0,15,1,,,,,,,,,,,,,,,,,,,,,,,,,,,,,,,,,,,,,,,,,,,,,,,,,,,,,,,,,,,,,,,,,,,,,,
,,,,6,2.2606,,,,,,161,kitchen,pretzel,,89940,001,2022-04-24_03h28.49.536,SPAMnetsValid,2021.1.4,Win32,59.93048064,,,,,,,,,,,,,6,2.2606,0,1,1,36,1,,,,,,,,,,,,,,,,,,,,,,,,,,,,,,,,,,,,,,,,,,,,,,,,,,,,,,,,,,,,,,,,,,,,,,
,,,,2,1.7202,,,,,,121,broom,microwave,,89940,001,2022-04-24_03h28.49.536,SPAMnetsValid,2021.1.4,Win32,59.93048064,,,,,,,,,,,,,2,1.7202,0,2,2,95,1,,,,,,,,,,,,,,,,,,,,,,,,,,,,,,,,,,,,,,,,,,,,,,,,,,,,,,,,,,,,,,,,,,,,,,
,,,,8,2.4778,,,,,,177,chocolate,strawberry,,89940,001,2022-04-24_03h28.49.536,SPAMnetsValid,2021.1.4,Win32,59.93048064,,,,,,,,,,,,,8,2.4778,0,3,3,53,1,,,,,,,,,,,,,,,,,,,,,,,,,,,,,,,,,,,,,,,,,,,,,,,,,,,,,,,,,,,,,,,,,,,,,,
,,,,7,3.0982,,,,,,158,cookie,oven,,89940,001,2022-04-24_03h28.49.536,SPAMnetsValid,2021.1.4,Win32,59.93048064,,,,,,,,,,,,,7,3.0982,0,4,4,27,1,,,,,,,,,,,,,,,,,,,,,,,,,,,,,,,,,,,,,,,,,,,,,,,,,,,,,,,,,,,,,,,,,,,,,,
,,,,6,1.8059,,,,,,171,cake,tomato,,89940,001,2022-04-24_03h28.49.536,SPAMnetsValid,2021.1.4,Win32,59.93048064,,,,,,,,,,,,,6,1.8059,0,5,5,88,1,,,,,,,,,,,,,,,,,,,,,,,,,,,,,,,,,,,,,,,,,,,,,,,,,,,,,,,,,,,,,,,,,,,,,,
,,,,2,1.8557,,,,,,159,cookie,flower,,89940,001,2022-04-24_03h28.49.536,SPAMnetsValid,2021.1.4,Win32,59.93048064,,,,,,,,,,,,,2,1.8557,0,6,6,21,1,,,,,,,,,,,,,,,,,,,,,,,,,,,,,,,,,,,,,,,,,,,,,,,,,,,,,,,,,,,,,,,,,,,,,,
,,,,7,3.3824,,,,,,131,cactus,garden,,89940,001,2022-04-24_03h28.49.536,SPAMnetsValid,2021.1.4,Win32,59.93048064,,,,,,,,,,,,,7,3.3824,0,7,7,33,1,,,,,,,,,,,,,,,,,,,,,,,,,,,,,,,,,,,,,,,,,,,,,,,,,,,,,,,,,,,,,,,,,,,,,,
,,,,9,1.4311,,,,,,138,flower,rose,,89940,001,2022-04-24_03h28.49.536,SPAMnetsValid,2021.1.4,Win32,59.93048064,,,,,,,,,,,,,9,1.4311,0,8,8,61,1,,,,,,,,,,,,,,,,,,,,,,,,,,,,,,,,,,,,,,,,,,,,,,,,,,,,,,,,,,,,,,,,,,,,,,
,,,,3,2.1508,,,,,,111,carrot,microwave,,89940,001,2022-04-24_03h28.49.536,SPAMnetsValid,2021.1.4,Win32,59.93048064,,,,,,,,,,,,,3,2.1508,0,9,9,16,1,,,,,,,,,,,,,,,,,,,,,,,,,,,,,,,,,,,,,,,,,,,,,,,,,,,,,,,,,,,,,,,,,,,,,,
,,,,6,3.7323,,,,,,99,garden,melon,,89940,001,2022-04-24_03h28.49.536,SPAMnetsValid,2021.1.4,Win32,59.93048064,,,,,,,,,,,,,6,3.7323,0,10,10,17,1,,,,,,,,,,,,,,,,,,,,,,,,,,,,,,,,,,,,,,,,,,,,,,,,,,,,,,,,,,,,,,,,,,,,,,
,,,,3,1.7036,,,,,,162,microwave,tomato,,89940,001,2022-04-24_03h28.49.536,SPAMnetsValid,2021.1.4,Win32,59.93048064,,,,,,,,,,,,,3,1.7036,0,11,11,12,1,,,,,,,,,,,,,,,,,,,,,,,,,,,,,,,,,,,,,,,,,,,,,,,,,,,,,,,,,,,,,,,,,,,,,,
,,,,6,2.035,,,,,,160,cookie,kitchen,,89940,001,2022-04-24_03h28.49.536,SPAMnetsValid,2021.1.4,Win32,59.93048064,,,,,,,,,,,,,6,2.035,0,12,12,65,1,,,,,,,,,,,,,,,,,,,,,,,,,,,,,,,,,,,,,,,,,,,,,,,,,,,,,,,,,,,,,,,,,,,,,,
,,,,9,1.4558,,,,,,150,microwave,refrigerator,,89940,001,2022-04-24_03h28.49.536,SPAMnetsValid,2021.1.4,Win32,59.93048064,,,,,,,,,,,,,9,1.4558,0,13,13,66,1,,,,,,,,,,,,,,,,,,,,,,,,,,,,,,,,,,,,,,,,,,,,,,,,,,,,,,,,,,,,,,,,,,,,,,
,,,,9,1.7339,,,,,,188,flower,tree,,89940,001,2022-04-24_03h28.49.536,SPAMnetsValid,2021.1.4,Win32,59.93048064,,,,,,,,,,,,,9,1.7339,0,14,14,7,1,,,,,,,,,,,,,,,,,,,,,,,,,,,,,,,,,,,,,,,,,,,,,,,,,,,,,,,,,,,,,,,,,,,,,,
,,,,6,1.7666,,,,,,173,kitchen,tomato,,89940,001,2022-04-24_03h28.49.536,SPAMnetsValid,2021.1.4,Win32,59.93048064,,,,,,,,,,,,,6,1.7666,0,15,15,1,1,,,,,,,,,,,,,,,,,,,,,,,,,,,,,,,,,,,,,,,,,,,,,,,,,,,,,,,,,,,,,,,,,,,,,,
,,,,6,1.8664,,,,,,106,cake,strawberry,,89940,001,2022-04-24_03h28.49.536,SPAMnetsValid,2021.1.4,Win32,59.93048064,,,,,,,,,,,,,6,1.8664,0,16,16,0,1,,,,,,,,,,,,,,,,,,,,,,,,,,,,,,,,,,,,,,,,,,,,,,,,,,,,,,,,,,,,,,,,,,,,,,
,,,,6,3.5567,,,,,,139,carrot,strawberry,,89940,001,2022-04-24_03h28.49.536,SPAMnetsValid,2021.1.4,Win32,59.93048064,,,,,,,,,,,,,6,3.5567,0,17,17,37,1,,,,,,,,,,,,,,,,,,,,,,,,,,,,,,,,,,,,,,,,,,,,,,,,,,,,,,,,,,,,,,,,,,,,,,
,,,,8,2.0389,,,,,,154,strawberry,yogurt,,89940,001,2022-04-24_03h28.49.536,SPAMnetsValid,2021.1.4,Win32,59.93048064,,,,,,,,,,,,,8,2.0389,0,18,18,28,1,,,,,,,,,,,,,,,,,,,,,,,,,,,,,,,,,,,,,,,,,,,,,,,,,,,,,,,,,,,,,,,,,,,,,,
,,,,7,2.8176,,,,,,181,carrot,kitchen,,89940,001,2022-04-24_03h28.49.536,SPAMnetsValid,2021.1.4,Win32,59.93048064,,,,,,,,,,,,,7,2.8176,0,19,19,72,1,,,,,,,,,,,,,,,,,,,,,,,,,,,,,,,,,,,,,,,,,,,,,,,,,,,,,,,,,,,,,,,,,,,,,,
,,,,6,2.2838,,,,,,108,carrot,chocolate,,89940,001,2022-04-24_03h28.49.536,SPAMnetsValid,2021.1.4,Win32,59.93048064,,,,,,,,,,,,,6,2.2838,0,20,20,5,1,,,,,,,,,,,,,,,,,,,,,,,,,,,,,,,,,,,,,,,,,,,,,,,,,,,,,,,,,,,,,,,,,,,,,,
,,,,5,3.1355,,,,,,103,pretzel,tomato,,89940,001,2022-04-24_03h28.49.536,SPAMnetsValid,2021.1.4,Win32,59.93048064,,,,,,,,,,,,,5,3.1355,0,21,21,79,1,,,,,,,,,,,,,,,,,,,,,,,,,,,,,,,,,,,,,,,,,,,,,,,,,,,,,,,,,,,,,,,,,,,,,,
,,,,5,2.118,,,,,,190,microwave,strawberry,,89940,001,2022-04-24_03h28.49.536,SPAMnetsValid,2021.1.4,Win32,59.93048064,,,,,,,,,,,,,5,2.118,0,22,22,90,1,,,,,,,,,,,,,,,,,,,,,,,,,,,,,,,,,,,,,,,,,,,,,,,,,,,,,,,,,,,,,,,,,,,,,,
,,,,4,2.2008,,,,,,172,kitchen,melon,,89940,001,2022-04-24_03h28.49.536,SPAMnetsValid,2021.1.4,Win32,59.93048064,,,,,,,,,,,,,4,2.2008,0,23,23,77,1,,,,,,,,,,,,,,,,,,,,,,,,,,,,,,,,,,,,,,,,,,,,,,,,,,,,,,,,,,,,,,,,,,,,,,
,,,,6,2.9165,,,,,,101,cactus,kitchen,,89940,001,2022-04-24_03h28.49.536,SPAMnetsValid,2021.1.4,Win32,59.93048064,,,,,,,,,,,,,6,2.9165,0,24,24,54,1,,,,,,,,,,,,,,,,,,,,,,,,,,,,,,,,,,,,,,,,,,,,,,,,,,,,,,,,,,,,,,,,,,,,,,
,,,,2,1.5783,,,,,,132,broom,tree,,89940,001,2022-04-24_03h28.49.536,SPAMnetsValid,2021.1.4,Win32,59.93048064,,,,,,,,,,,,,2,1.5783,0,25,25,78,1,,,,,,,,,,,,,,,,,,,,,,,,,,,,,,,,,,,,,,,,,,,,,,,,,,,,,,,,,,,,,,,,,,,,,,
,,,,3,1.7669,,,,,,128,melon,microwave,,89940,001,2022-04-24_03h28.49.536,SPAMnetsValid,2021.1.4,Win32,59.93048064,,,,,,,,,,,,,3,1.7669,0,26,26,74,1,,,,,,,,,,,,,,,,,,,,,,,,,,,,,,,,,,,,,,,,,,,,,,,,,,,,,,,,,,,,,,,,,,,,,,
,,,,8,1.817,,,,,,117,melon,strawberry,,89940,001,2022-04-24_03h28.49.536,SPAMnetsValid,2021.1.4,Win32,59.93048064,,,,,,,,,,,,,8,1.817,0,27,27,11,1,,,,,,,,,,,,,,,,,,,,,,,,,,,,,,,,,,,,,,,,,,,,,,,,,,,,,,,,,,,,,,,,,,,,,,
,,,,3,1.635,,,,,,140,cookie,refrigerator,,89940,001,2022-04-24_03h28.49.536,SPAMnetsValid,2021.1.4,Win32,59.93048064,,,,,,,,,,,,,3,1.635,0,28,28,89,1,,,,,,,,,,,,,,,,,,,,,,,,,,,,,,,,,,,,,,,,,,,,,,,,,,,,,,,,,,,,,,,,,,,,,,
,,,,3,2.117,,,,,,157,refrigerator,rose,,89940,001,2022-04-24_03h28.49.536,SPAMnetsValid,2021.1.4,Win32,59.93048064,,,,,,,,,,,,,3,2.117,0,29,29,64,1,,,,,,,,,,,,,,,,,,,,,,,,,,,,,,,,,,,,,,,,,,,,,,,,,,,,,,,,,,,,,,,,,,,,,,
,,,,3,2.1489,,,,,,189,onion,tree,,89940,001,2022-04-24_03h28.49.536,SPAMnetsValid,2021.1.4,Win32,59.93048064,,,,,,,,,,,,,3,2.1489,0,30,30,62,1,,,,,,,,,,,,,,,,,,,,,,,,,,,,,,,,,,,,,,,,,,,,,,,,,,,,,,,,,,,,,,,,,,,,,,
,,,,6,4.5054,,,,,,125,carrot,tree,,89940,001,2022-04-24_03h28.49.536,SPAMnetsValid,2021.1.4,Win32,59.93048064,,,,,,,,,,,,,6,4.5054,0,31,31,30,1,,,,,,,,,,,,,,,,,,,,,,,,,,,,,,,,,,,,,,,,,,,,,,,,,,,,,,,,,,,,,,,,,,,,,,
,,,,3,1.6775,,,,,,151,microwave,onion,,89940,001,2022-04-24_03h28.49.536,SPAMnetsValid,2021.1.4,Win32,59.93048064,,,,,,,,,,,,,3,1.6775,0,32,32,6,1,,,,,,,,,,,,,,,,,,,,,,,,,,,,,,,,,,,,,,,,,,,,,,,,,,,,,,,,,,,,,,,,,,,,,,
,,,,7,1.5832,,,,,,97,chocolate,kitchen,,89940,001,2022-04-24_03h28.49.536,SPAMnetsValid,2021.1.4,Win32,59.93048064,,,,,,,,,,,,,7,1.5832,0,33,33,8,1,,,,,,,,,,,,,,,,,,,,,,,,,,,,,,,,,,,,,,,,,,,,,,,,,,,,,,,,,,,,,,,,,,,,,,
,,,,4,1.6009,,,,,,152,cactus,strawberry,,89940,001,2022-04-24_03h28.49.536,SPAMnetsValid,2021.1.4,Win32,59.93048064,,,,,,,,,,,,,4,1.6009,0,34,34,49,1,,,,,,,,,,,,,,,,,,,,,,,,,,,,,,,,,,,,,,,,,,,,,,,,,,,,,,,,,,,,,,,,,,,,,,
,,,,9,1.6558,,,,,,142,garden,tree,,89940,001,2022-04-24_03h28.49.536,SPAMnetsValid,2021.1.4,Win32,59.93048064,,,,,,,,,,,,,9,1.6558,0,35,35,22,1,,,,,,,,,,,,,,,,,,,,,,,,,,,,,,,,,,,,,,,,,,,,,,,,,,,,,,,,,,,,,,,,,,,,,,
,,,,6,1.6399,,,,,,107,rose,tomato,,89940,001,2022-04-24_03h28.49.536,SPAMnetsValid,2021.1.4,Win32,59.93048064,,,,,,,,,,,,,6,1.6399,0,36,36,26,1,,,,,,,,,,,,,,,,,,,,,,,,,,,,,,,,,,,,,,,,,,,,,,,,,,,,,,,,,,,,,,,,,,,,,,
,,,,3,1.5189,,,,,,179,broom,oven,,89940,001,2022-04-24_03h28.49.536,SPAMnetsValid,2021.1.4,Win32,59.93048064,,,,,,,,,,,,,3,1.5189,0,37,37,45,1,,,,,,,,,,,,,,,,,,,,,,,,,,,,,,,,,,,,,,,,,,,,,,,,,,,,,,,,,,,,,,,,,,,,,,
,,,,4,7.6356,,,,,,147,cake,refrigerator,,89940,001,2022-04-24_03h28.49.536,SPAMnetsValid,2021.1.4,Win32,59.93048064,,,,,,,,,,,,,4,7.6356,0,38,38,35,1,,,,,,,,,,,,,,,,,,,,,,,,,,,,,,,,,,,,,,,,,,,,,,,,,,,,,,,,,,,,,,,,,,,,,,
,,,,5,1.3924,,,,,,156,melon,rose,,89940,001,2022-04-24_03h28.49.536,SPAMnetsValid,2021.1.4,Win32,59.93048064,,,,,,,,,,,,,5,1.3924,0,39,39,31,1,,,,,,,,,,,,,,,,,,,,,,,,,,,,,,,,,,,,,,,,,,,,,,,,,,,,,,,,,,,,,,,,,,,,,,
,,,,5,2.9566,,,,,,184,oven,pretzel,,89940,001,2022-04-24_03h28.49.536,SPAMnetsValid,2021.1.4,Win32,59.93048064,,,,,,,,,,,,,5,2.9566,0,40,40,42,1,,,,,,,,,,,,,,,,,,,,,,,,,,,,,,,,,,,,,,,,,,,,,,,,,,,,,,,,,,,,,,,,,,,,,,
,,,,3,1.5525,,,,,,143,pretzel,rose,,89940,001,2022-04-24_03h28.49.536,SPAMnetsValid,2021.1.4,Win32,59.93048064,,,,,,,,,,,,,3,1.5525,0,41,41,55,1,,,,,,,,,,,,,,,,,,,,,,,,,,,,,,,,,,,,,,,,,,,,,,,,,,,,,,,,,,,,,,,,,,,,,,
,,,,1,1.3528,,,,,,146,pretzel,tree,,89940,001,2022-04-24_03h28.49.536,SPAMnetsValid,2021.1.4,Win32,59.93048064,,,,,,,,,,,,,1,1.3528,0,42,42,80,1,,,,,,,,,,,,,,,,,,,,,,,,,,,,,,,,,,,,,,,,,,,,,,,,,,,,,,,,,,,,,,,,,,,,,,
,,,,1,1.5322,,,,,,180,tree,yogurt,,89940,001,2022-04-24_03h28.49.536,SPAMnetsValid,2021.1.4,Win32,59.93048064,,,,,,,,,,,,,1,1.5322,0,43,43,68,1,,,,,,,,,,,,,,,,,,,,,,,,,,,,,,,,,,,,,,,,,,,,,,,,,,,,,,,,,,,,,,,,,,,,,,
,,,,7,1.7669,,,,,,185,cactus,rose,,89940,001,2022-04-24_03h28.49.536,SPAMnetsValid,2021.1.4,Win32,59.93048064,,,,,,,,,,,,,7,1.7669,0,44,44,43,1,,,,,,,,,,,,,,,,,,,,,,,,,,,,,,,,,,,,,,,,,,,,,,,,,,,,,,,,,,,,,,,,,,,,,,
,,,,6,1.6669,,,,,,118,chocolate,oven,,89940,001,2022-04-24_03h28.49.536,SPAMnetsValid,2021.1.4,Win32,59.93048064,,,,,,,,,,,,,6,1.6669,0,45,45,10,1,,,,,,,,,,,,,,,,,,,,,,,,,,,,,,,,,,,,,,,,,,,,,,,,,,,,,,,,,,,,,,,,,,,,,,
,,,,6,1.6121,,,,,,186,kitchen,yogurt,,89940,001,2022-04-24_03h28.49.536,SPAMnetsValid,2021.1.4,Win32,59.93048064,,,,,,,,,,,,,6,1.6121,0,46,46,48,1,,,,,,,,,,,,,,,,,,,,,,,,,,,,,,,,,,,,,,,,,,,,,,,,,,,,,,,,,,,,,,,,,,,,,,
,,,,6,1.5195,,,,,,155,carrot,cookie,,89940,001,2022-04-24_03h28.49.536,SPAMnetsValid,2021.1.4,Win32,59.93048064,,,,,,,,,,,,,6,1.5195,0,47,47,38,1,,,,,,,,,,,,,,,,,,,,,,,,,,,,,,,,,,,,,,,,,,,,,,,,,,,,,,,,,,,,,,,,,,,,,,
,,,,2,1.7347,,,,,,104,garden,microwave,,89940,001,2022-04-24_03h28.49.536,SPAMnetsValid,2021.1.4,Win32,59.93048064,,,,,,,,,,,,,2,1.7347,0,48,48,81,1,,,,,,,,,,,,,,,,,,,,,,,,,,,,,,,,,,,,,,,,,,,,,,,,,,,,,,,,,,,,,,,,,,,,,,
,,,,2,2.0713,,,,,,115,refrigerator,tomato,,89940,001,2022-04-24_03h28.49.536,SPAMnetsValid,2021.1.4,Win32,59.93048064,,,,,,,,,,,,,2,2.0713,0,49,49,85,1,,,,,,,,,,,,,,,,,,,,,,,,,,,,,,,,,,,,,,,,,,,,,,,,,,,,,,,,,,,,,,,,,,,,,,
,,,,9,2.3986,,,,,,100,garden,tomato,,89940,001,2022-04-24_03h28.49.536,SPAMnetsValid,2021.1.4,Win32,59.93048064,,,,,,,,,,,,,9,2.3986,0,50,50,83,1,,,,,,,,,,,,,,,,,,,,,,,,,,,,,,,,,,,,,,,,,,,,,,,,,,,,,,,,,,,,,,,,,,,,,,
,,,,4,3.4704,,,,,,183,cake,rose,,89940,001,2022-04-24_03h28.49.536,SPAMnetsValid,2021.1.4,Win32,59.93048064,,,,,,,,,,,,,4,3.4704,0,51,51,19,1,,,,,,,,,,,,,,,,,,,,,,,,,,,,,,,,,,,,,,,,,,,,,,,,,,,,,,,,,,,,,,,,,,,,,,
,,,,2,2.1255,,,,,,164,cookie,garden,,89940,001,2022-04-24_03h28.49.536,SPAMnetsValid,2021.1.4,Win32,59.93048064,,,,,,,,,,,,,2,2.1255,0,52,52,59,1,,,,,,,,,,,,,,,,,,,,,,,,,,,,,,,,,,,,,,,,,,,,,,,,,,,,,,,,,,,,,,,,,,,,,,
,,,,5,1.5918,,,,,,114,cookie,strawberry,,89940,001,2022-04-24_03h28.49.536,SPAMnetsValid,2021.1.4,Win32,59.93048064,,,,,,,,,,,,,5,1.5918,0,53,53,87,1,,,,,,,,,,,,,,,,,,,,,,,,,,,,,,,,,,,,,,,,,,,,,,,,,,,,,,,,,,,,,,,,,,,,,,
,,,,5,1.1864,,,,,,174,cake,pretzel,,89940,001,2022-04-24_03h28.49.536,SPAMnetsValid,2021.1.4,Win32,59.93048064,,,,,,,,,,,,,5,1.1864,0,54,54,2,1,,,,,,,,,,,,,,,,,,,,,,,,,,,,,,,,,,,,,,,,,,,,,,,,,,,,,,,,,,,,,,,,,,,,,,
,,,,5,1.3356,,,,,,182,flower,refrigerator,,89940,001,2022-04-24_03h28.49.536,SPAMnetsValid,2021.1.4,Win32,59.93048064,,,,,,,,,,,,,5,1.3356,0,55,55,32,1,,,,,,,,,,,,,,,,,,,,,,,,,,,,,,,,,,,,,,,,,,,,,,,,,,,,,,,,,,,,,,,,,,,,,,
,,,,9,4.1385,,,,,,116,cake,chocolate,,89940,001,2022-04-24_03h28.49.536,SPAMnetsValid,2021.1.4,Win32,59.93048064,,,,,,,,,,,,,9,4.1385,0,56,56,44,1,,,,,,,,,,,,,,,,,,,,,,,,,,,,,,,,,,,,,,,,,,,,,,,,,,,,,,,,,,,,,,,,,,,,,,
,,,,3,4.0593,,,,,,133,cake,flower,,89940,001,2022-04-24_03h28.49.536,SPAMnetsValid,2021.1.4,Win32,59.93048064,,,,,,,,,,,,,3,4.0593,0,57,57,94,1,,,,,,,,,,,,,,,,,,,,,,,,,,,,,,,,,,,,,,,,,,,,,,,,,,,,,,,,,,,,,,,,,,,,,,
,,,,2,1.6067,,,,,,175,melon,onion,,89940,001,2022-04-24_03h28.49.536,SPAMnetsValid,2021.1.4,Win32,59.93048064,,,,,,,,,,,,,2,1.6067,0,58,58,41,1,,,,,,,,,,,,,,,,,,,,,,,,,,,,,,,,,,,,,,,,,,,,,,,,,,,,,,,,,,,,,,,,,,,,,,
,,,,8,2.2004,,,,,,167,carrot,garden,,89940,001,2022-04-24_03h28.49.536,SPAMnetsValid,2021.1.4,Win32,59.93048064,,,,,,,,,,,,,8,2.2004,0,59,59,47,1,,,,,,,,,,,,,,,,,,,,,,,,,,,,,,,,,,,,,,,,,,,,,,,,,,,,,,,,,,,,,,,,,,,,,,
,,,,3,1.6709,,,,,,96,oven,strawberry,,89940,001,2022-04-24_03h28.49.536,SPAMnetsValid,2021.1.4,Win32,59.93048064,,,,,,,,,,,,,3,1.6709,0,60,60,67,1,,,,,,,,,,,,,,,,,,,,,,,,,,,,,,,,,,,,,,,,,,,,,,,,,,,,,,,,,,,,,,,,,,,,,,
,,,,4,3.433,,,,,,102,chocolate,refrigerator,,89940,001,2022-04-24_03h28.49.536,SPAMnetsValid,2021.1.4,Win32,59.93048064,,,,,,,,,,,,,4,3.433,0,61,61,76,1,,,,,,,,,,,,,,,,,,,,,,,,,,,,,,,,,,,,,,,,,,,,,,,,,,,,,,,,,,,,,,,,,,,,,,
,,,,9,2.0861,,,,,,194,cactus,cactus,CHECK,89940,001,2022-04-24_03h28.49.536,SPAMnetsValid,2021.1.4,Win32,59.93048064,,,,,,,,,,,,,9,2.0861,0,62,62,25,1,,,,,,,,,,,,,,,,,,,,,,,,,,,,,,,,,,,,,,,,,,,,,,,,,,,,,,,,,,,,,,,,,,,,,,
,,,,3,1.569,,,,,,144,cake,garden,,89940,001,2022-04-24_03h28.49.536,SPAMnetsValid,2021.1.4,Win32,59.93048064,,,,,,,,,,,,,3,1.569,0,63,63,58,1,,,,,,,,,,,,,,,,,,,,,,,,,,,,,,,,,,,,,,,,,,,,,,,,,,,,,,,,,,,,,,,,,,,,,,
,,,,3,2.1018,,,,,,127,cactus,chocolate,,89940,001,2022-04-24_03h28.49.536,SPAMnetsValid,2021.1.4,Win32,59.93048064,,,,,,,,,,,,,3,2.1018,0,64,64,57,1,,,,,,,,,,,,,,,,,,,,,,,,,,,,,,,,,,,,,,,,,,,,,,,,,,,,,,,,,,,,,,,,,,,,,,
,,,,4,1.701,,,,,,136,chocolate,microwave,,89940,001,2022-04-24_03h28.49.536,SPAMnetsValid,2021.1.4,Win32,59.93048064,,,,,,,,,,,,,4,1.701,0,65,65,96,1,,,,,,,,,,,,,,,,,,,,,,,,,,,,,,,,,,,,,,,,,,,,,,,,,,,,,,,,,,,,,,,,,,,,,,
,,,,6,1.5025,,,,,,165,onion,rose,,89940,001,2022-04-24_03h28.49.536,SPAMnetsValid,2021.1.4,Win32,59.93048064,,,,,,,,,,,,,6,1.5025,0,66,66,40,1,,,,,,,,,,,,,,,,,,,,,,,,,,,,,,,,,,,,,,,,,,,,,,,,,,,,,,,,,,,,,,,,,,,,,,
,,,,6,3.4722,,,,,,113,refrigerator,strawberry,,89940,001,2022-04-24_03h28.49.536,SPAMnetsValid,2021.1.4,Win32,59.93048064,,,,,,,,,,,,,6,3.4722,0,67,67,56,1,,,,,,,,,,,,,,,,,,,,,,,,,,,,,,,,,,,,,,,,,,,,,,,,,,,,,,,,,,,,,,,,,,,,,,
,,,,5,3.6739,,,,,,169,onion,yogurt,,89940,001,2022-04-24_03h28.49.536,SPAMnetsValid,2021.1.4,Win32,59.93048064,,,,,,,,,,,,,5,3.6739,0,68,68,24,1,,,,,,,,,,,,,,,,,,,,,,,,,,,,,,,,,,,,,,,,,,,,,,,,,,,,,,,,,,,,,,,,,,,,,,
,,,,3,1.529,,,,,,137,microwave,tree,,89940,001,2022-04-24_03h28.49.536,SPAMnetsValid,2021.1.4,Win32,59.93048064,,,,,,,,,,,,,3,1.529,0,69,69,63,1,,,,,,,,,,,,,,,,,,,,,,,,,,,,,,,,,,,,,,,,,,,,,,,,,,,,,,,,,,,,,,,,,,,,,,
,,,,6,2.9842,,,,,,163,melon,refrigerator,,89940,001,2022-04-24_03h28.49.536,SPAMnetsValid,2021.1.4,Win32,59.93048064,,,,,,,,,,,,,6,2.9842,0,70,70,29,1,,,,,,,,,,,,,,,,,,,,,,,,,,,,,,,,,,,,,,,,,,,,,,,,,,,,,,,,,,,,,,,,,,,,,,
,,,,9,2.3571,,,,,,120,microwave,oven,,89940,001,2022-04-24_03h28.49.536,SPAMnetsValid,2021.1.4,Win32,59.93048064,,,,,,,,,,,,,9,2.3571,0,71,71,14,1,,,,,,,,,,,,,,,,,,,,,,,,,,,,,,,,,,,,,,,,,,,,,,,,,,,,,,,,,,,,,,,,,,,,,,
,,,,9,1.6339,,,,,,122,flower,garden,,89940,001,2022-04-24_03h28.49.536,SPAMnetsValid,2021.1.4,Win32,59.93048064,,,,,,,,,,,,,9,1.6339,0,72,72,60,1,,,,,,,,,,,,,,,,,,,,,,,,,,,,,,,,,,,,,,,,,,,,,,,,,,,,,,,,,,,,,,,,,,,,,,
,,,,9,2.3428,,,,,,124,oven,refrigerator,,89940,001,2022-04-24_03h28.49.536,SPAMnetsValid,2021.1.4,Win32,59.93048064,,,,,,,,,,,,,9,2.3428,0,73,73,69,1,,,,,,,,,,,,,,,,,,,,,,,,,,,,,,,,,,,,,,,,,,,,,,,,,,,,,,,,,,,,,,,,,,,,,,
,,,,4,1.8993,,,,,,135,carrot,oven,,89940,001,2022-04-24_03h28.49.536,SPAMnetsValid,2021.1.4,Win32,59.93048064,,,,,,,,,,,,,4,1.8993,0,74,74,73,1,,,,,,,,,,,,,,,,,,,,,,,,,,,,,,,,,,,,,,,,,,,,,,,,,,,,,,,,,,,,,,,,,,,,,,
,,,,2,1.8923,,,,,,109,broom,strawberry,,89940,001,2022-04-24_03h28.49.536,SPAMnetsValid,2021.1.4,Win32,59.93048064,,,,,,,,,,,,,2,1.8923,0,75,75,4,1,,,,,,,,,,,,,,,,,,,,,,,,,,,,,,,,,,,,,,,,,,,,,,,,,,,,,,,,,,,,,,,,,,,,,,
,,,,8,2.9412,,,,,,112,cake,carrot,,89940,001,2022-04-24_03h28.49.536,SPAMnetsValid,2021.1.4,Win32,59.93048064,,,,,,,,,,,,,8,2.9412,0,76,76,39,1,,,,,,,,,,,,,,,,,,,,,,,,,,,,,,,,,,,,,,,,,,,,,,,,,,,,,,,,,,,,,,,,,,,,,,
,,,,7,1.9363,,,,,,176,cactus,tomato,,89940,001,2022-04-24_03h28.49.536,SPAMnetsValid,2021.1.4,Win32,59.93048064,,,,,,,,,,,,,7,1.9363,0,77,77,9,1,,,,,,,,,,,,,,,,,,,,,,,,,,,,,,,,,,,,,,,,,,,,,,,,,,,,,,,,,,,,,,,,,,,,,,
,,,,6,2.0693,,,,,,166,cake,yogurt,,89940,001,2022-04-24_03h28.49.536,SPAMnetsValid,2021.1.4,Win32,59.93048064,,,,,,,,,,,,,6,2.0693,0,78,78,91,1,,,,,,,,,,,,,,,,,,,,,,,,,,,,,,,,,,,,,,,,,,,,,,,,,,,,,,,,,,,,,,,,,,,,,,
,,,,9,1.8522,,,,,,110,chocolate,cookie,,89940,001,2022-04-24_03h28.49.536,SPAMnetsValid,2021.1.4,Win32,59.93048064,,,,,,,,,,,,,9,1.8522,0,79,79,52,1,,,,,,,,,,,,,,,,,,,,,,,,,,,,,,,,,,,,,,,,,,,,,,,,,,,,,,,,,,,,,,,,,,,,,,
,,,,3,1.9656,,,,,,129,cactus,refrigerator,,89940,001,2022-04-24_03h28.49.536,SPAMnetsValid,2021.1.4,Win32,59.93048064,,,,,,,,,,,,,3,1.9656,0,80,80,3,1,,,,,,,,,,,,,,,,,,,,,,,,,,,,,,,,,,,,,,,,,,,,,,,,,,,,,,,,,,,,,,,,,,,,,,
,,,,6,3.617,,,,,,141,melon,tomato,,89940,001,2022-04-24_03h28.49.536,SPAMnetsValid,2021.1.4,Win32,59.93048064,,,,,,,,,,,,,6,3.617,0,81,81,70,1,,,,,,,,,,,,,,,,,,,,,,,,,,,,,,,,,,,,,,,,,,,,,,,,,,,,,,,,,,,,,,,,,,,,,,
,,,,4,1.8291,,,,,,148,flower,melon,,89940,001,2022-04-24_03h28.49.536,SPAMnetsValid,2021.1.4,Win32,59.93048064,,,,,,,,,,,,,4,1.8291,0,82,82,23,1,,,,,,,,,,,,,,,,,,,,,,,,,,,,,,,,,,,,,,,,,,,,,,,,,,,,,,,,,,,,,,,,,,,,,,
,,,,4,1.4346,,,,,,130,microwave,yogurt,,89940,001,2022-04-24_03h28.49.536,SPAMnetsValid,2021.1.4,Win32,59.93048064,,,,,,,,,,,,,4,1.4346,0,83,83,84,1,,,,,,,,,,,,,,,,,,,,,,,,,,,,,,,,,,,,,,,,,,,,,,,,,,,,,,,,,,,,,,,,,,,,,,
,,,,2,1.6892,,,,,,153,carrot,pretzel,,89940,001,2022-04-24_03h28.49.536,SPAMnetsValid,2021.1.4,Win32,59.93048064,,,,,,,,,,,,,2,1.6892,0,84,84,34,1,,,,,,,,,,,,,,,,,,,,,,,,,,,,,,,,,,,,,,,,,,,,,,,,,,,,,,,,,,,,,,,,,,,,,,
,,,,9,1.7374,,,,,,193,melon,melon,CHECK,89940,001,2022-04-24_03h28.49.536,SPAMnetsValid,2021.1.4,Win32,59.93048064,,,,,,,,,,,,,9,1.7374,0,85,85,86,1,,,,,,,,,,,,,,,,,,,,,,,,,,,,,,,,,,,,,,,,,,,,,,,,,,,,,,,,,,,,,,,,,,,,,,
,,,,1,2.1156,,,,,,149,broom,tomato,,89940,001,2022-04-24_03h28.49.536,SPAMnetsValid,2021.1.4,Win32,59.93048064,,,,,,,,,,,,,1,2.1156,0,86,86,20,1,,,,,,,,,,,,,,,,,,,,,,,,,,,,,,,,,,,,,,,,,,,,,,,,,,,,,,,,,,,,,,,,,,,,,,
,,,,4,1.9344,,,,,,170,cookie,microwave,,89940,001,2022-04-24_03h28.49.536,SPAMnetsValid,2021.1.4,Win32,59.93048064,,,,,,,,,,,,,4,1.9344,0,87,87,92,1,,,,,,,,,,,,,,,,,,,,,,,,,,,,,,,,,,,,,,,,,,,,,,,,,,,,,,,,,,,,,,,,,,,,,,
,,,,5,3.5561,,,,,,119,strawberry,tree,,89940,001,2022-04-24_03h28.49.536,SPAMnetsValid,2021.1.4,Win32,59.93048064,,,,,,,,,,,,,5,3.5561,0,88,88,18,1,,,,,,,,,,,,,,,,,,,,,,,,,,,,,,,,,,,,,,,,,,,,,,,,,,,,,,,,,,,,,,,,,,,,,,
,,,,6,1.982,,,,,,178,cactus,carrot,,89940,001,2022-04-24_03h28.49.536,SPAMnetsValid,2021.1.4,Win32,59.93048064,,,,,,,,,,,,,6,1.982,0,89,89,75,1,,,,,,,,,,,,,,,,,,,,,,,,,,,,,,,,,,,,,,,,,,,,,,,,,,,,,,,,,,,,,,,,,,,,,,
,,,,3,1.5416,,,,,,105,cactus,oven,,89940,001,2022-04-24_03h28.49.536,SPAMnetsValid,2021.1.4,Win32,59.93048064,,,,,,,,,,,,,3,1.5416,0,90,90,13,1,,,,,,,,,,,,,,,,,,,,,,,,,,,,,,,,,,,,,,,,,,,,,,,,,,,,,,,,,,,,,,,,,,,,,,
,,,,9,1.7042,,,,,,168,cactus,flower,,89940,001,2022-04-24_03h28.49.536,SPAMnetsValid,2021.1.4,Win32,59.93048064,,,,,,,,,,,,,9,1.7042,0,91,91,51,1,,,,,,,,,,,,,,,,,,,,,,,,,,,,,,,,,,,,,,,,,,,,,,,,,,,,,,,,,,,,,,,,,,,,,,
,,,,2,1.7998,,,,,,187,cactus,microwave,,89940,001,2022-04-24_03h28.49.536,SPAMnetsValid,2021.1.4,Win32,59.93048064,,,,,,,,,,,,,2,1.7998,0,92,92,71,1,,,,,,,,,,,,,,,,,,,,,,,,,,,,,,,,,,,,,,,,,,,,,,,,,,,,,,,,,,,,,,,,,,,,,,
,,,,2,1.5844,,,,,,123,cookie,tree,,89940,001,2022-04-24_03h28.49.536,SPAMnetsValid,2021.1.4,Win32,59.93048064,,,,,,,,,,,,,2,1.5844,0,93,93,46,1,,,,,,,,,,,,,,,,,,,,,,,,,,,,,,,,,,,,,,,,,,,,,,,,,,,,,,,,,,,,,,,,,,,,,,
,,,,2,1.6774,,,,,,134,carrot,flower,,89940,001,2022-04-24_03h28.49.536,SPAMnetsValid,2021.1.4,Win32,59.93048064,,,,,,,,,,,,,2,1.6774,0,94,94,93,1,,,,,,,,,,,,,,,,,,,,,,,,,,,,,,,,,,,,,,,,,,,,,,,,,,,,,,,,,,,,,,,,,,,,,,
,,,,1,2.1526,,,,,,126,kitchen,tree,,89940,001,2022-04-24_03h28.49.536,SPAMnetsValid,2021.1.4,Win32,59.93048064,,,,,,,,,,,,,1,2.1526,0,95,95,50,1,,,,,,,,,,,,,,,,,,,,,,,,,,,,,,,,,,,,,,,,,,,,,,,,,,,,,,,,,,,,,,,,,,,,,,
,,,,6,3.5644,,,,,,98,pretzel,strawberry,,89940,001,2022-04-24_03h28.49.536,SPAMnetsValid,2021.1.4,Win32,59.93048064,,,,,,,,,,,,,6,3.5644,0,96,96,82,1,,,,,,,,,,,,,,,,,,,,,,,,,,,,,,,,,,,,,,,,,,,,,,,,,,,,,,,,,,,,,,,,,,,,,,
,,,,,,,,,,,,,,,89940,001,2022-04-24_03h28.49.536,SPAMnetsValid,2021.1.4,Win32,59.93048064,,,,,,,,,,,,,,,,,,,,0,0,0,0,1,,,,,,,,,,,,,,,,,,,,,,,,,,,,,,,,,,,,,,,,,,,,,,,,,,,,,,,,,,,,,,,,,
,,,,,,,,,,,,,,,89940,001,2022-04-24_03h28.49.536,SPAMnetsValid,2021.1.4,Win32,59.93048064,,,,,,0,1,1,1,1,0,1,,,,,,,,,,,,,,,,,,,,,,,,,,,,,,,,,,,,,,,,,,,,,,,,,,,,,,,,,,,,,,,,,,,,,,,,,,,,,
,,,,,,,,,,,,,,,89940,001,2022-04-24_03h28.49.536,SPAMnetsValid,2021.1.4,Win32,59.93048064,,,,,,,,,,,,,,,,,,,,,,,,,3,11.4765,0,0,0,0,1,rancor,forbearance,ridicule,malice,bravery,3,,,,,,,,,,,,,,,,,,,,,,,,,,,,,,,,,,,,,,,,,,,,,,,,,,,,
,,,,,,,,,,,,,,,89940,001,2022-04-24_03h28.49.536,SPAMnetsValid,2021.1.4,Win32,59.93048064,,,,,,,,,,,,,,,,,,,,,,,,,4,6.296,0,1,1,1,1,raucous,empty,quiet,smooth,harsh,4,,,,,,,,,,,,,,,,,,,,,,,,,,,,,,,,,,,,,,,,,,,,,,,,,,,,
,,,,,,,,,,,,,,,89940,001,2022-04-24_03h28.49.536,SPAMnetsValid,2021.1.4,Win32,59.93048064,,,,,,,,,,,,,,,,,,,,,,,,,3,11.8829,0,2,2,2,1,gargoyle,oil,medicine,carved waterspout,ugly building,3,,,,,,,,,,,,,,,,,,,,,,,,,,,,,,,,,,,,,,,,,,,,,,,,,,,,
,,,,,,,,,,,,,,,89940,001,2022-04-24_03h28.49.536,SPAMnetsValid,2021.1.4,Win32,59.93048064,,,,,,,,,,,,,,,,,,,,,,,,,2,9.6932,0,3,3,3,1,recrudesce,purify,renew activity,lack refinement,crush,2,,,,,,,,,,,,,,,,,,,,,,,,,,,,,,,,,,,,,,,,,,,,,,,,,,,,
,,,,,,,,,,,,,,,89940,001,2022-04-24_03h28.49.536,SPAMnetsValid,2021.1.4,Win32,59.93048064,,,,,,,,,,,,,,,,,,,,,,,,,2,12.7034,0,4,4,4,1,specious,"plausible, but not genuine",noteworthy,class or variety,roomy,1,,,,,,,,,,,,,,,,,,,,,,,,,,,,,,,,,,,,,,,,,,,,,,,,,,,,
,,,,,,,,,,,,,,,89940,001,2022-04-24_03h28.49.536,SPAMnetsValid,2021.1.4,Win32,59.93048064,,,,,,,,,,,,,,,,,,,,,,,,,3,4.5541,0,5,5,5,1,bauble,bubble,showy plaything,idle talk,confusion,2,,,,,,,,,,,,,,,,,,,,,,,,,,,,,,,,,,,,,,,,,,,,,,,,,,,,
,,,,,,,,,,,,,,,89940,001,2022-04-24_03h28.49.536,SPAMnetsValid,2021.1.4,Win32,59.93048064,,,,,,,,,,,,,,,,,,,,,,,,,4,4.6199,0,6,6,6,1,prolific,scarce,producing abundantly,reckless,speaking profanely,2,,,,,,,,,,,,,,,,,,,,,,,,,,,,,,,,,,,,,,,,,,,,,,,,,,,,
,,,,,,,,,,,,,,,89940,001,2022-04-24_03h28.49.536,SPAMnetsValid,2021.1.4,Win32,59.93048064,,,,,,,,,,,,,,,,,,,,,,,,,2,8.2942,0,7,7,7,1,opulent,party,wealthy,happy frame of mind,semiprecious stone,2,,,,,,,,,,,,,,,,,,,,,,,,,,,,,,,,,,,,,,,,,,,,,,,,,,,,
,,,,,,,,,,,,,,,89940,001,2022-04-24_03h28.49.536,SPAMnetsValid,2021.1.4,Win32,59.93048064,,,,,,,,,,,,,,,,,,,,,,,,,2,4.2176,0,8,8,8,1,coercion,conspiracy,strategy,restraint,attraction,3,,,,,,,,,,,,,,,,,,,,,,,,,,,,,,,,,,,,,,,,,,,,,,,,,,,,
,,,,,,,,,,,,,,,89940,001,2022-04-24_03h28.49.536,SPAMnetsValid,2021.1.4,Win32,59.93048064,,,,,,,,,,,,,,,,,,,,,,,,,2,10.7264,0,9,9,9,1,hiatus,animal,calamity,dread,gap,4,,,,,,,,,,,,,,,,,,,,,,,,,,,,,,,,,,,,,,,,,,,,,,,,,,,,
,,,,,,,,,,,,,,,89940,001,2022-04-24_03h28.49.536,SPAMnetsValid,2021.1.4,Win32,59.93048064,,,,,,,,,,,,,,,,,,,,,,,,,4,10.935,0,10,10,10,1,germane,microbe,contagious,relevant,different,3,,,,,,,,,,,,,,,,,,,,,,,,,,,,,,,,,,,,,,,,,,,,,,,,,,,,
,,,,,,,,,,,,,,,89940,001,2022-04-24_03h28.49.536,SPAMnetsValid,2021.1.4,Win32,59.93048064,,,,,,,,,,,,,,,,,,,,,,,,,3,3.9346,0,11,11,11,1,perfunctory,fundamental,formal,superficial,careful,3,,,,,,,,,,,,,,,,,,,,,,,,,,,,,,,,,,,,,,,,,,,,,,,,,,,,
,,,,,,,,,,,,,,,89940,001,2022-04-24_03h28.49.536,SPAMnetsValid,2021.1.4,Win32,59.93048064,,,,,,,,,,,,,,,,,,,,,,,,,3,9.2201,0,12,12,12,1,diverge,reveal,chant,distract the attention of,differ or turn off from,4,,,,,,,,,,,,,,,,,,,,,,,,,,,,,,,,,,,,,,,,,,,,,,,,,,,,
,,,,,,,,,,,,,,,89940,001,2022-04-24_03h28.49.536,SPAMnetsValid,2021.1.4,Win32,59.93048064,,,,,,,,,,,,,,,,,,,,,,,,,4,3.1521,0,13,13,13,1,evoke,take away,anger,connect,bring out,4,,,,,,,,,,,,,,,,,,,,,,,,,,,,,,,,,,,,,,,,,,,,,,,,,,,,
,,,,,,,,,,,,,,,89940,001,2022-04-24_03h28.49.536,SPAMnetsValid,2021.1.4,Win32,59.93048064,,,,,,,,,,,,,,,,,,,,,,,,,3,11.258,0,14,14,14,1,pertinent,relevant,lying next to,necessary,bold,1,,,,,,,,,,,,,,,,,,,,,,,,,,,,,,,,,,,,,,,,,,,,,,,,,,,,
,,,,,,,,,,,,,,,89940,001,2022-04-24_03h28.49.536,SPAMnetsValid,2021.1.4,Win32,59.93048064,,,,,,,,,,,,,,,,,,,,,,,,,2,2.2241,0,15,15,15,1,holocaust,entirety,destruction,saintly,price,2,,,,,,,,,,,,,,,,,,,,,,,,,,,,,,,,,,,,,,,,,,,,,,,,,,,,
,,,,,,,,,,,,,,,89940,001,2022-04-24_03h28.49.536,SPAMnetsValid,2021.1.4,Win32,59.93048064,,,,,,,,,,,,,,,,,,,,,,,,,1,7.2099,0,16,16,16,1,piquant,mellow,fish,pungent,cloth,3,,,,,,,,,,,,,,,,,,,,,,,,,,,,,,,,,,,,,,,,,,,,,,,,,,,,
,,,,,,,,,,,,,,,89940,001,2022-04-24_03h28.49.536,SPAMnetsValid,2021.1.4,Win32,59.93048064,,,,,,,,,,,,,,,,,,,,,,,,,1,16.0883,0,17,17,17,1,firmament,foundation,heavens,strong,glue,2,,,,,,,,,,,,,,,,,,,,,,,,,,,,,,,,,,,,,,,,,,,,,,,,,,,,
,,,,,,,,,,,,,,,89940,001,2022-04-24_03h28.49.536,SPAMnetsValid,2021.1.4,Win32,59.93048064,,,,,,,,,,,,,,,,,,,,,,,,,,,,,,,,,,,,,,4,4.1043,0,0,0,0,1,marketable,partisan,jocular,marriageable,salable,essential,4,,,,,,,,,,,,,,,,,,,,,,,,,,,,,,,,,,,,,,
,,,,,,,,,,,,,,,89940,001,2022-04-24_03h28.49.536,SPAMnetsValid,2021.1.4,Win32,59.93048064,,,,,,,,,,,,,,,,,,,,,,,,,,,,,,,,,,,,,,5,3.4201,0,1,1,1,1,cottontail,squirrel,poplar,boa,marshy plant,rabbit,5,,,,,,,,,,,,,,,,,,,,,,,,,,,,,,,,,,,,,,
,,,,,,,,,,,,,,,89940,001,2022-04-24_03h28.49.536,SPAMnetsValid,2021.1.4,Win32,59.93048064,,,,,,,,,,,,,,,,,,,,,,,,,,,,,,,,,,,,,,3,4.1512,0,2,2,2,1,boggy,afraid,false,marshy,dense,black,3,,,,,,,,,,,,,,,,,,,,,,,,,,,,,,,,,,,,,,
,,,,,,,,,,,,,,,89940,001,2022-04-24_03h28.49.536,SPAMnetsValid,2021.1.4,Win32,59.93048064,,,,,,,,,,,,,,,,,,,,,,,,,,,,,,,,,,,,,,3,3.2743,0,3,3,3,1,gruesomeness,blackness,falseness,vindictiveness,drunkenness,ghastliness,5,,,,,,,,,,,,,,,,,,,,,,,,,,,,,,,,,,,,,,
,,,,,,,,,,,,,,,89940,001,2022-04-24_03h28.49.536,SPAMnetsValid,2021.1.4,Win32,59.93048064,,,,,,,,,,,,,,,,,,,,,,,,,,,,,,,,,,,,,,3,5.5325,0,4,4,4,1,loathing,diffidence,laziness,abhorrence,cleverness,comfort,3,,,,,,,,,,,,,,,,,,,,,,,,,,,,,,,,,,,,,,
,,,,,,,,,,,,,,,89940,001,2022-04-24_03h28.49.536,SPAMnetsValid,2021.1.4,Win32,59.93048064,,,,,,,,,,,,,,,,,,,,,,,,,,,,,,,,,,,,,,1,6.8361,0,5,5,5,1,bantam,fowl,ridicule,cripple,vegetable,ensign,1,,,,,,,,,,,,,,,,,,,,,,,,,,,,,,,,,,,,,,
,,,,,,,,,,,,,,,89940,001,2022-04-24_03h28.49.536,SPAMnetsValid,2021.1.4,Win32,59.93048064,,,,,,,,,,,,,,,,,,,,,,,,,,,,,,,,,,,,,,4,10.2435,0,6,6,6,1,evoke,wake up,surrender,reconnoiter,transcend,call forth,5,,,,,,,,,,,,,,,,,,,,,,,,,,,,,,,,,,,,,,
,,,,,,,,,,,,,,,89940,001,2022-04-24_03h28.49.536,SPAMnetsValid,2021.1.4,Win32,59.93048064,,,,,,,,,,,,,,,,,,,,,,,,,,,,,,,,,,,,,,3,4.9826,0,7,7,7,1,unobtrusive,unintelligent,epileptic,illogical,lineal,modest,5,,,,,,,,,,,,,,,,,,,,,,,,,,,,,,,,,,,,,,
,,,,,,,,,,,,,,,89940,001,2022-04-24_03h28.49.536,SPAMnetsValid,2021.1.4,Win32,59.93048064,,,,,,,,,,,,,,,,,,,,,,,,,,,,,,,,,,,,,,4,2.8699,0,8,8,8,1,terrain,ice cream,final test,tractor,area of ground,weight,4,,,,,,,,,,,,,,,,,,,,,,,,,,,,,,,,,,,,,,
,,,,,,,,,,,,,,,89940,001,2022-04-24_03h28.49.536,SPAMnetsValid,2021.1.4,Win32,59.93048064,,,,,,,,,,,,,,,,,,,,,,,,,,,,,,,,,,,,,,3,7.2465,0,9,9,9,1,capriciousness,stubbornness,courage,whimsicality,amazement,greediness,3,,,,,,,,,,,,,,,,,,,,,,,,,,,,,,,,,,,,,,
,,,,,,,,,,,,,,,89940,001,2022-04-24_03h28.49.536,SPAMnetsValid,2021.1.4,Win32,59.93048064,,,,,,,,,,,,,,,,,,,,,,,,,,,,,,,,,,,,,,1,5.2931,0,10,10,10,1,maelstrom,slander,whirlpool,enmity,armor,majolica,2,,,,,,,,,,,,,,,,,,,,,,,,,,,,,,,,,,,,,,
,,,,,,,,,,,,,,,89940,001,2022-04-24_03h28.49.536,SPAMnetsValid,2021.1.4,Win32,59.93048064,,,,,,,,,,,,,,,,,,,,,,,,,,,,,,,,,,,,,,5,5.551,0,11,11,11,1,tentative,critical,conclusive,authentic,provisional,apprehensive,4,,,,,,,,,,,,,,,,,,,,,,,,,,,,,,,,,,,,,,
,,,,,,,,,,,,,,,89940,001,2022-04-24_03h28.49.536,SPAMnetsValid,2021.1.4,Win32,59.93048064,,,,,,,,,,,,,,,,,,,,,,,,,,,,,,,,,,,,,,4,11.4329,0,12,12,12,1,placate,rehabilitate,plagiarize,depredate,apprise,conciliate,5,,,,,,,,,,,,,,,,,,,,,,,,,,,,,,,,,,,,,,
,,,,,,,,,,,,,,,89940,001,2022-04-24_03h28.49.536,SPAMnetsValid,2021.1.4,Win32,59.93048064,,,,,,,,,,,,,,,,,,,,,,,,,,,,,,,,,,,,,,2,2.7093,0,13,13,13,1,surcease,enlightenment,cessation,inattention,censor,substitution,2,,,,,,,,,,,,,,,,,,,,,,,,,,,,,,,,,,,,,,
,,,,,,,,,,,,,,,89940,001,2022-04-24_03h28.49.536,SPAMnetsValid,2021.1.4,Win32,59.93048064,,,,,,,,,,,,,,,,,,,,,,,,,,,,,,,,,,,,,,3,2.9256,0,14,14,14,1,apathetic,wandering,impassive,hateful,prophetic,overflowing,2,,,,,,,,,,,,,,,,,,,,,,,,,,,,,,,,,,,,,,
,,,,,,,,,,,,,,,89940,001,2022-04-24_03h28.49.536,SPAMnetsValid,2021.1.4,Win32,59.93048064,,,,,,,,,,,,,,,,,,,,,,,,,,,,,,,,,,,,,,2,4.5881,0,15,15,15,1,paternoster,paternalism,patricide,malediction,benediction,prayer,5,,,,,,,,,,,,,,,,,,,,,,,,,,,,,,,,,,,,,,
,,,,,,,,,,,,,,,89940,001,2022-04-24_03h28.49.536,SPAMnetsValid,2021.1.4,Win32,59.93048064,,,,,,,,,,,,,,,,,,,,,,,,,,,,,,,,,,,,,,4,9.1764,0,16,16,16,1,opalescence,opulence,senescence,bankruptcy,iridescence,assiduity,4,,,,,,,,,,,,,,,,,,,,,,,,,,,,,,,,,,,,,,
,,,,,,,,,,,,,,,89940,001,2022-04-24_03h28.49.536,SPAMnetsValid,2021.1.4,Win32,59.93048064,,,,,,,,,,,,,,,,,,,,,,,,,,,,,,,,,,,,,,2,3.7399,0,17,17,17,1,lush,stupid,luxurious,hazy,putrid,languishing,2,,,,,,,,,,,,,,,,,,,,,,,,,,,,,,,,,,,,,,
,,,,,,,,,,,,,,,89940,001,2022-04-24_03h28.49.536,SPAMnetsValid,2021.1.4,Win32,59.93048064,,,,,,,,,,,,,,,,,,,,,,,,,,,,,,,,,,,,,,1,5.6866,0,18,18,18,1,curtailment,expenditure,abandonment,abridgment,improvement,forgery,3,,,,,,,,,,,,,,,,,,,,,,,,,,,,,,,,,,,,,,
,,,,,,,,,,,,,,,89940,001,2022-04-24_03h28.49.536,SPAMnetsValid,2021.1.4,Win32,59.93048064,,,,,,,,,,,,,,,,,,,,,,,,,,,,,,,,,,,,,,4,8.9155,0,19,19,19,1,perversity,adversity,perviousness,travesty,waywardness,gentility,4,,,,,,,,,,,,,,,,,,,,,,,,,,,,,,,,,,,,,,
,,,,,,,,,,,,,,,89940,001,2022-04-24_03h28.49.536,SPAMnetsValid,2021.1.4,Win32,59.93048064,,,,,,,,,,,,,,,,,,,,,,,,,,,,,,,,,,,,,,3,5.4448,0,20,20,20,1,calumnious,complimentary,analogous,slanderous,tempestuous,magnanimous,3,,,,,,,,,,,,,,,,,,,,,,,,,,,,,,,,,,,,,,
,,,,,,,,,,,,,,,89940,001,2022-04-24_03h28.49.536,SPAMnetsValid,2021.1.4,Win32,59.93048064,,,,,,,,,,,,,,,,,,,,,,,,,,,,,,,,,,,,,,1,18.1761,0,21,21,21,1,illiberality,bigotry,imbecility,illegibility,cautery,immaturity,1,,,,,,,,,,,,,,,,,,,,,,,,,,,,,,,,,,,,,,
,,,,,,,,,,,,,,,89940,001,2022-04-24_03h28.49.536,SPAMnetsValid,2021.1.4,Win32,59.93048064,,,,,,,,,,,,,,,,,,,,,,,,,,,,,,,,,,,,,,2,3.6171,0,22,22,22,1,clabber,rejoice,gossip,curdle,crow,hobble,3,,,,,,,,,,,,,,,,,,,,,,,,,,,,,,,,,,,,,,
,,,,,,,,,,,,,,,89940,001,2022-04-24_03h28.49.536,SPAMnetsValid,2021.1.4,Win32,59.93048064,,,,,,,,,,,,,,,,,,,,,,,,,,,,,,,,,,,,,,3,8.6459,0,23,23,23,1,sedulousness,diligence,credulousness,seduction,perilousness,frankness,1,,,,,,,,,,,,,,,,,,,,,,,,,,,,,,,,,,,,,,
,,,,,,,,,,,,,,,89940,001,2022-04-24_03h28.49.536,SPAMnetsValid,2021.1.4,Win32,59.93048064,,,,,,,,,,,,,,,,,,,,,,,,,,,,,,,,,,,,,,,,,,,,,,,,,,,,to hold water,bucket,0,0,0,0,1,,,,,,,,,,,,,,,,,,,,,,,,,,,,,,,
,,,,,,,,,,,,,,,89940,001,2022-04-24_03h28.49.536,SPAMnetsValid,2021.1.4,Win32,59.93048064,,,,,,,,,,,,,,,,,,,,,,,,,,,,,,,,,,,,,,,,,,,,,,,,,,,,to fill with liquid,bucket,1,0,1,0,1,,,,,,,,,,,,,,,,,,,,,,,,,,,,,,,
,,,,,,,,,,,,,,,89940,001,2022-04-24_03h28.49.536,SPAMnetsValid,2021.1.4,Win32,59.93048064,,,,,,,,,,,,,,,,,,,,,,,,,,,,,,,,,,,,,,,,,,,,,,,,,,,,to make sand castles,bucket,2,0,2,0,1,,,,,,,,,,,,,,,,,,,,,,,,,,,,,,,
,,,,,,,,,,,,,,,89940,001,2022-04-24_03h28.49.536,SPAMnetsValid,2021.1.4,Win32,59.93048064,,,,,,,,,,,,,,,,,,,,,,,,,,,,,,,,,,,,,,,,,,,,,,,,,,,,to wear as a hat,bucket,3,0,3,0,1,,,,,,,,,,,,,,,,,,,,,,,,,,,,,,,
,,,,,,,,,,,,,,,89940,001,2022-04-24_03h28.49.536,SPAMnetsValid,2021.1.4,Win32,59.93048064,,,,,,,,,,,,,,,,,,,,,,,,,,,,,,,,,,,,,,,,,,,,,,,,,,,,to drink out of,bucket,4,0,4,0,1,,,,,,,,,,,,,,,,,,,,,,,,,,,,,,,
,,,,,,,,,,,,,,,89940,001,2022-04-24_03h28.49.536,SPAMnetsValid,2021.1.4,Win32,59.93048064,,,,,,,,,,,,,,,,,,,,,,,,,,,,,,,,,,,,,,,,,,,,,,,,,,,,to play to drums on,bucket,5,0,5,0,1,,,,,,,,,,,,,,,,,,,,,,,,,,,,,,,
,,,,,,,,,,,,,,,89940,001,2022-04-24_03h28.49.536,SPAMnetsValid,2021.1.4,Win32,59.93048064,,,,,,,,,,,,,,,,,,,,,,,,,,,,,,,,,,,,,,,,,,,,,,,,,,,,to use as a means to draw a circle,bucket,6,0,6,0,1,,,,,,,,,,,,,,,,,,,,,,,,,,,,,,,
,,,,,,,,,,,,,,,89940,001,2022-04-24_03h28.49.536,SPAMnetsValid,2021.1.4,Win32,59.93048064,,,,,,,,,,,,,,,,,,,,,,,,,,,,,,,,,,,,,,,,,,,,,,,,,,,,to use as a stepping stool,bucket,7,0,7,0,1,,,,,,,,,,,,,,,,,,,,,,,,,,,,,,,
,,,,,,,,,,,,,,,89940,001,2022-04-24_03h28.49.536,SPAMnetsValid,2021.1.4,Win32,59.93048064,,,,,,,,,,,,,,,,,,,,,,,,,,,,,,,,,,,,,,,,,,,,,,,,,,,,to use as a garbage can,bucket,8,0,8,0,1,,,,,,,,,,,,,,,,,,,,,,,,,,,,,,,
,,,,,,,,,,,,,,,89940,001,2022-04-24_03h28.49.536,SPAMnetsValid,2021.1.4,Win32,59.93048064,,,,,,,,,,,,,,,,,,,,,,,,,,,,,,,,,,,,,,,,,,,,,,,,,,,,,,,,,,,0,0,0,0,1,bucket,,,,,,,,,,,,,,,,,,,,,,,,,
,,,,,,,,,,,,,,,89940,001,2022-04-24_03h28.49.536,SPAMnetsValid,2021.1.4,Win32,59.93048064,,,,,,,,,,,,,,,,,,,,,,,,,,,,,,,,,,,,,,,,,,,,,,,,,,,,to light,candle,0,0,0,0,1,,,,,,,,,,,,,,,,,,,,,,,,,,,,,,,
,,,,,,,,,,,,,,,89940,001,2022-04-24_03h28.49.536,SPAMnetsValid,2021.1.4,Win32,59.93048064,,,,,,,,,,,,,,,,,,,,,,,,,,,,,,,,,,,,,,,,,,,,,,,,,,,,for the dark when you cant see,candle,1,0,1,0,1,,,,,,,,,,,,,,,,,,,,,,,,,,,,,,,
,,,,,,,,,,,,,,,89940,001,2022-04-24_03h28.49.536,SPAMnetsValid,2021.1.4,Win32,59.93048064,,,,,,,,,,,,,,,,,,,,,,,,,,,,,,,,,,,,,,,,,,,,,,,,,,,,for mood lighting,candle,2,0,2,0,1,,,,,,,,,,,,,,,,,,,,,,,,,,,,,,,
,,,,,,,,,,,,,,,89940,001,2022-04-24_03h28.49.536,SPAMnetsValid,2021.1.4,Win32,59.93048064,,,,,,,,,,,,,,,,,,,,,,,,,,,,,,,,,,,,,,,,,,,,,,,,,,,,for romance,candle,3,0,3,0,1,,,,,,,,,,,,,,,,,,,,,,,,,,,,,,,
,,,,,,,,,,,,,,,89940,001,2022-04-24_03h28.49.536,SPAMnetsValid,2021.1.4,Win32,59.93048064,,,,,,,,,,,,,,,,,,,,,,,,,,,,,,,,,,,,,,,,,,,,,,,,,,,, for birthdays,candle,4,0,4,0,1,,,,,,,,,,,,,,,,,,,,,,,,,,,,,,,
,,,,,,,,,,,,,,,89940,001,2022-04-24_03h28.49.536,SPAMnetsValid,2021.1.4,Win32,59.93048064,,,,,,,,,,,,,,,,,,,,,,,,,,,,,,,,,,,,,,,,,,,,,,,,,,,,to start a fire,candle,5,0,5,0,1,,,,,,,,,,,,,,,,,,,,,,,,,,,,,,,
,,,,,,,,,,,,,,,89940,001,2022-04-24_03h28.49.536,SPAMnetsValid,2021.1.4,Win32,59.93048064,,,,,,,,,,,,,,,,,,,,,,,,,,,,,,,,,,,,,,,,,,,,,,,,,,,,to light for religious reasons,candle,6,0,6,0,1,,,,,,,,,,,,,,,,,,,,,,,,,,,,,,,
,,,,,,,,,,,,,,,89940,001,2022-04-24_03h28.49.536,SPAMnetsValid,2021.1.4,Win32,59.93048064,,,,,,,,,,,,,,,,,,,,,,,,,,,,,,,,,,,,,,,,,,,,,,,,,,,,to smell good,candle,7,0,7,0,1,,,,,,,,,,,,,,,,,,,,,,,,,,,,,,,
,,,,,,,,,,,,,,,89940,001,2022-04-24_03h28.49.536,SPAMnetsValid,2021.1.4,Win32,59.93048064,,,,,,,,,,,,,,,,,,,,,,,,,,,,,,,,,,,,,,,,,,,,,,,,,,,,for warmth,candle,8,0,8,0,1,,,,,,,,,,,,,,,,,,,,,,,,,,,,,,,
,,,,,,,,,,,,,,,89940,001,2022-04-24_03h28.49.536,SPAMnetsValid,2021.1.4,Win32,59.93048064,,,,,,,,,,,,,,,,,,,,,,,,,,,,,,,,,,,,,,,,,,,,,,,,,,,,for decoration,candle,9,0,9,0,1,,,,,,,,,,,,,,,,,,,,,,,,,,,,,,,
,,,,,,,,,,,,,,,89940,001,2022-04-24_03h28.49.536,SPAMnetsValid,2021.1.4,Win32,59.93048064,,,,,,,,,,,,,,,,,,,,,,,,,,,,,,,,,,,,,,,,,,,,,,,,,,,,to test by smoke alarms,candle,10,0,10,0,1,,,,,,,,,,,,,,,,,,,,,,,,,,,,,,,
,,,,,,,,,,,,,,,89940,001,2022-04-24_03h28.49.536,SPAMnetsValid,2021.1.4,Win32,59.93048064,,,,,,,,,,,,,,,,,,,,,,,,,,,,,,,,,,,,,,,,,,,,,,,,,,,,,candle,11,0,11,0,1,,,,,,,,,,,,,,,,,,,,,,,,,,,,,,,
,,,,,,,,,,,,,,,89940,001,2022-04-24_03h28.49.536,SPAMnetsValid,2021.1.4,Win32,59.93048064,,,,,,,,,,,,,,,,,,,,,,,,,,,,,,,,,,,,,,,,,,,,,,,,,,,,,candle,12,0,12,0,1,,,,,,,,,,,,,,,,,,,,,,,,,,,,,,,
,,,,,,,,,,,,,,,89940,001,2022-04-24_03h28.49.536,SPAMnetsValid,2021.1.4,Win32,59.93048064,,,,,,,,,,,,,,,,,,,,,,,,,,,,,,,,,,,,,,,,,,,,,,,,,,,,,,,,,,,0,1,1,1,1,candle,,,,,,,,,,,,,,,,,,,,,,,,,
,,,,,,,,,,,,,,,89940,001,2022-04-24_03h28.49.536,SPAMnetsValid,2021.1.4,Win32,59.93048064,,,,,,,,,,,,,,,,,,,,,,,,,,,,,,,,,,,,,,,,,,,,,,,,,,,,to sleep on ,pillow,0,0,0,0,1,,,,,,,,,,,,,,,,,,,,,,,,,,,,,,,
,,,,,,,,,,,,,,,89940,001,2022-04-24_03h28.49.536,SPAMnetsValid,2021.1.4,Win32,59.93048064,,,,,,,,,,,,,,,,,,,,,,,,,,,,,,,,,,,,,,,,,,,,,,,,,,,,,pillow,1,0,1,0,1,,,,,,,,,,,,,,,,,,,,,,,,,,,,,,,
,,,,,,,,,,,,,,,89940,001,2022-04-24_03h28.49.536,SPAMnetsValid,2021.1.4,Win32,59.93048064,,,,,,,,,,,,,,,,,,,,,,,,,,,,,,,,,,,,,,,,,,,,,,,,,,,,pillow fight,pillow,2,0,2,0,1,,,,,,,,,,,,,,,,,,,,,,,,,,,,,,,
,,,,,,,,,,,,,,,89940,001,2022-04-24_03h28.49.536,SPAMnetsValid,2021.1.4,Win32,59.93048064,,,,,,,,,,,,,,,,,,,,,,,,,,,,,,,,,,,,,,,,,,,,,,,,,,,,suffication,pillow,3,0,3,0,1,,,,,,,,,,,,,,,,,,,,,,,,,,,,,,,
,,,,,,,,,,,,,,,89940,001,2022-04-24_03h28.49.536,SPAMnetsValid,2021.1.4,Win32,59.93048064,,,,,,,,,,,,,,,,,,,,,,,,,,,,,,,,,,,,,,,,,,,,,,,,,,,,as a prop for an injured body part,pillow,4,0,4,0,1,,,,,,,,,,,,,,,,,,,,,,,,,,,,,,,
,,,,,,,,,,,,,,,89940,001,2022-04-24_03h28.49.536,SPAMnetsValid,2021.1.4,Win32,59.93048064,,,,,,,,,,,,,,,,,,,,,,,,,,,,,,,,,,,,,,,,,,,,,,,,,,,,as a cushion on a chair,pillow,5,0,5,0,1,,,,,,,,,,,,,,,,,,,,,,,,,,,,,,,
,,,,,,,,,,,,,,,89940,001,2022-04-24_03h28.49.536,SPAMnetsValid,2021.1.4,Win32,59.93048064,,,,,,,,,,,,,,,,,,,,,,,,,,,,,,,,,,,,,,,,,,,,,,,,,,,,for decor,pillow,6,0,6,0,1,,,,,,,,,,,,,,,,,,,,,,,,,,,,,,,
,,,,,,,,,,,,,,,89940,001,2022-04-24_03h28.49.536,SPAMnetsValid,2021.1.4,Win32,59.93048064,,,,,,,,,,,,,,,,,,,,,,,,,,,,,,,,,,,,,,,,,,,,,,,,,,,,to lay on,pillow,7,0,7,0,1,,,,,,,,,,,,,,,,,,,,,,,,,,,,,,,
,,,,,,,,,,,,,,,89940,001,2022-04-24_03h28.49.536,SPAMnetsValid,2021.1.4,Win32,59.93048064,,,,,,,,,,,,,,,,,,,,,,,,,,,,,,,,,,,,,,,,,,,,,,,,,,,,to give as a gift,pillow,8,0,8,0,1,,,,,,,,,,,,,,,,,,,,,,,,,,,,,,,
,,,,,,,,,,,,,,,89940,001,2022-04-24_03h28.49.536,SPAMnetsValid,2021.1.4,Win32,59.93048064,,,,,,,,,,,,,,,,,,,,,,,,,,,,,,,,,,,,,,,,,,,,,,,,,,,,,,,,,,,0,2,2,2,1,pillow,,,,,,,,,,,,,,,,,,,,,,,,,
,,,,,,,,,,,,,,,89940,001,2022-04-24_03h28.49.536,SPAMnetsValid,2021.1.4,Win32,59.93048064,,,,,,,,,,,,,,,,,,,,,,,,,,,,,,,,,,,,,,,,,,,,,,,,,,,,,,,,,,,,,,,,,cat,Animals,0,0,0,0,1,,,,,,,,,,,,,,,,,,
,,,,,,,,,,,,,,,89940,001,2022-04-24_03h28.49.536,SPAMnetsValid,2021.1.4,Win32,59.93048064,,,,,,,,,,,,,,,,,,,,,,,,,,,,,,,,,,,,,,,,,,,,,,,,,,,,,,,,,,,,,,,,,dog,Animals,1,0,1,0,1,,,,,,,,,,,,,,,,,,
,,,,,,,,,,,,,,,89940,001,2022-04-24_03h28.49.536,SPAMnetsValid,2021.1.4,Win32,59.93048064,,,,,,,,,,,,,,,,,,,,,,,,,,,,,,,,,,,,,,,,,,,,,,,,,,,,,,,,,,,,,,,,,mice,Animals,2,0,2,0,1,,,,,,,,,,,,,,,,,,
,,,,,,,,,,,,,,,89940,001,2022-04-24_03h28.49.536,SPAMnetsValid,2021.1.4,Win32,59.93048064,,,,,,,,,,,,,,,,,,,,,,,,,,,,,,,,,,,,,,,,,,,,,,,,,,,,,,,,,,,,,,,,,zebra,Animals,3,0,3,0,1,,,,,,,,,,,,,,,,,,
,,,,,,,,,,,,,,,89940,001,2022-04-24_03h28.49.536,SPAMnetsValid,2021.1.4,Win32,59.93048064,,,,,,,,,,,,,,,,,,,,,,,,,,,,,,,,,,,,,,,,,,,,,,,,,,,,,,,,,,,,,,,,,hippo,Animals,4,0,4,0,1,,,,,,,,,,,,,,,,,,
,,,,,,,,,,,,,,,89940,001,2022-04-24_03h28.49.536,SPAMnetsValid,2021.1.4,Win32,59.93048064,,,,,,,,,,,,,,,,,,,,,,,,,,,,,,,,,,,,,,,,,,,,,,,,,,,,,,,,,,,,,,,,,giraffe,Animals,5,0,5,0,1,,,,,,,,,,,,,,,,,,
,,,,,,,,,,,,,,,89940,001,2022-04-24_03h28.49.536,SPAMnetsValid,2021.1.4,Win32,59.93048064,,,,,,,,,,,,,,,,,,,,,,,,,,,,,,,,,,,,,,,,,,,,,,,,,,,,,,,,,,,,,,,,,lion,Animals,6,0,6,0,1,,,,,,,,,,,,,,,,,,
,,,,,,,,,,,,,,,89940,001,2022-04-24_03h28.49.536,SPAMnetsValid,2021.1.4,Win32,59.93048064,,,,,,,,,,,,,,,,,,,,,,,,,,,,,,,,,,,,,,,,,,,,,,,,,,,,,,,,,,,,,,,,,tiger,Animals,7,0,7,0,1,,,,,,,,,,,,,,,,,,
,,,,,,,,,,,,,,,89940,001,2022-04-24_03h28.49.536,SPAMnetsValid,2021.1.4,Win32,59.93048064,,,,,,,,,,,,,,,,,,,,,,,,,,,,,,,,,,,,,,,,,,,,,,,,,,,,,,,,,,,,,,,,,bear,Animals,8,0,8,0,1,,,,,,,,,,,,,,,,,,
,,,,,,,,,,,,,,,89940,001,2022-04-24_03h28.49.536,SPAMnetsValid,2021.1.4,Win32,59.93048064,,,,,,,,,,,,,,,,,,,,,,,,,,,,,,,,,,,,,,,,,,,,,,,,,,,,,,,,,,,,,,,,,hampster,Animals,9,0,9,0,1,,,,,,,,,,,,,,,,,,
,,,,,,,,,,,,,,,89940,001,2022-04-24_03h28.49.536,SPAMnetsValid,2021.1.4,Win32,59.93048064,,,,,,,,,,,,,,,,,,,,,,,,,,,,,,,,,,,,,,,,,,,,,,,,,,,,,,,,,,,,,,,,,chicken,Animals,10,0,10,0,1,,,,,,,,,,,,,,,,,,
,,,,,,,,,,,,,,,89940,001,2022-04-24_03h28.49.536,SPAMnetsValid,2021.1.4,Win32,59.93048064,,,,,,,,,,,,,,,,,,,,,,,,,,,,,,,,,,,,,,,,,,,,,,,,,,,,,,,,,,,,,,,,,chick,Animals,11,0,11,0,1,,,,,,,,,,,,,,,,,,
,,,,,,,,,,,,,,,89940,001,2022-04-24_03h28.49.536,SPAMnetsValid,2021.1.4,Win32,59.93048064,,,,,,,,,,,,,,,,,,,,,,,,,,,,,,,,,,,,,,,,,,,,,,,,,,,,,,,,,,,,,,,,,eagle,Animals,12,0,12,0,1,,,,,,,,,,,,,,,,,,
,,,,,,,,,,,,,,,89940,001,2022-04-24_03h28.49.536,SPAMnetsValid,2021.1.4,Win32,59.93048064,,,,,,,,,,,,,,,,,,,,,,,,,,,,,,,,,,,,,,,,,,,,,,,,,,,,,,,,,,,,,,,,,pigeon,Animals,13,0,13,0,1,,,,,,,,,,,,,,,,,,
,,,,,,,,,,,,,,,89940,001,2022-04-24_03h28.49.536,SPAMnetsValid,2021.1.4,Win32,59.93048064,,,,,,,,,,,,,,,,,,,,,,,,,,,,,,,,,,,,,,,,,,,,,,,,,,,,,,,,,,,,,,,,,crow,Animals,14,0,14,0,1,,,,,,,,,,,,,,,,,,
,,,,,,,,,,,,,,,89940,001,2022-04-24_03h28.49.536,SPAMnetsValid,2021.1.4,Win32,59.93048064,,,,,,,,,,,,,,,,,,,,,,,,,,,,,,,,,,,,,,,,,,,,,,,,,,,,,,,,,,,,,,,,,hawk,Animals,15,0,15,0,1,,,,,,,,,,,,,,,,,,
,,,,,,,,,,,,,,,89940,001,2022-04-24_03h28.49.536,SPAMnetsValid,2021.1.4,Win32,59.93048064,,,,,,,,,,,,,,,,,,,,,,,,,,,,,,,,,,,,,,,,,,,,,,,,,,,,,,,,,,,,,,,,,lizard,Animals,16,0,16,0,1,,,,,,,,,,,,,,,,,,
,,,,,,,,,,,,,,,89940,001,2022-04-24_03h28.49.536,SPAMnetsValid,2021.1.4,Win32,59.93048064,,,,,,,,,,,,,,,,,,,,,,,,,,,,,,,,,,,,,,,,,,,,,,,,,,,,,,,,,,,,,,,,,frog,Animals,17,0,17,0,1,,,,,,,,,,,,,,,,,,
,,,,,,,,,,,,,,,89940,001,2022-04-24_03h28.49.536,SPAMnetsValid,2021.1.4,Win32,59.93048064,,,,,,,,,,,,,,,,,,,,,,,,,,,,,,,,,,,,,,,,,,,,,,,,,,,,,,,,,,,,,,,,,toad,Animals,18,0,18,0,1,,,,,,,,,,,,,,,,,,
,,,,,,,,,,,,,,,89940,001,2022-04-24_03h28.49.536,SPAMnetsValid,2021.1.4,Win32,59.93048064,,,,,,,,,,,,,,,,,,,,,,,,,,,,,,,,,,,,,,,,,,,,,,,,,,,,,,,,,,,,,,,,,mountain lion,Animals,19,0,19,0,1,,,,,,,,,,,,,,,,,,
,,,,,,,,,,,,,,,89940,001,2022-04-24_03h28.49.536,SPAMnetsValid,2021.1.4,Win32,59.93048064,,,,,,,,,,,,,,,,,,,,,,,,,,,,,,,,,,,,,,,,,,,,,,,,,,,,,,,,,,,,,,,,,pig,Animals,20,0,20,0,1,,,,,,,,,,,,,,,,,,
,,,,,,,,,,,,,,,89940,001,2022-04-24_03h28.49.536,SPAMnetsValid,2021.1.4,Win32,59.93048064,,,,,,,,,,,,,,,,,,,,,,,,,,,,,,,,,,,,,,,,,,,,,,,,,,,,,,,,,,,,,,,,,cow,Animals,21,0,21,0,1,,,,,,,,,,,,,,,,,,
,,,,,,,,,,,,,,,89940,001,2022-04-24_03h28.49.536,SPAMnetsValid,2021.1.4,Win32,59.93048064,,,,,,,,,,,,,,,,,,,,,,,,,,,,,,,,,,,,,,,,,,,,,,,,,,,,,,,,,,,,,,,,,hen,Animals,22,0,22,0,1,,,,,,,,,,,,,,,,,,
,,,,,,,,,,,,,,,89940,001,2022-04-24_03h28.49.536,SPAMnetsValid,2021.1.4,Win32,59.93048064,,,,,,,,,,,,,,,,,,,,,,,,,,,,,,,,,,,,,,,,,,,,,,,,,,,,,,,,,,,,,,,,,roaster,Animals,23,0,23,0,1,,,,,,,,,,,,,,,,,,
,,,,,,,,,,,,,,,89940,001,2022-04-24_03h28.49.536,SPAMnetsValid,2021.1.4,Win32,59.93048064,,,,,,,,,,,,,,,,,,,,,,,,,,,,,,,,,,,,,,,,,,,,,,,,,,,,,,,,,,,,,,,,,goat,Animals,24,0,24,0,1,,,,,,,,,,,,,,,,,,
,,,,,,,,,,,,,,,89940,001,2022-04-24_03h28.49.536,SPAMnetsValid,2021.1.4,Win32,59.93048064,,,,,,,,,,,,,,,,,,,,,,,,,,,,,,,,,,,,,,,,,,,,,,,,,,,,,,,,,,,,,,,,,sheep,Animals,25,0,25,0,1,,,,,,,,,,,,,,,,,,
,,,,,,,,,,,,,,,89940,001,2022-04-24_03h28.49.536,SPAMnetsValid,2021.1.4,Win32,59.93048064,,,,,,,,,,,,,,,,,,,,,,,,,,,,,,,,,,,,,,,,,,,,,,,,,,,,,,,,,,,,,,,,,snake,Animals,26,0,26,0,1,,,,,,,,,,,,,,,,,,
,,,,,,,,,,,,,,,89940,001,2022-04-24_03h28.49.536,SPAMnetsValid,2021.1.4,Win32,59.93048064,,,,,,,,,,,,,,,,,,,,,,,,,,,,,,,,,,,,,,,,,,,,,,,,,,,,,,,,,,,,,,,,,shark,Animals,27,0,27,0,1,,,,,,,,,,,,,,,,,,
,,,,,,,,,,,,,,,89940,001,2022-04-24_03h28.49.536,SPAMnetsValid,2021.1.4,Win32,59.93048064,,,,,,,,,,,,,,,,,,,,,,,,,,,,,,,,,,,,,,,,,,,,,,,,,,,,,,,,,,,,,,,,,cod,Animals,28,0,28,0,1,,,,,,,,,,,,,,,,,,
,,,,,,,,,,,,,,,89940,001,2022-04-24_03h28.49.536,SPAMnetsValid,2021.1.4,Win32,59.93048064,,,,,,,,,,,,,,,,,,,,,,,,,,,,,,,,,,,,,,,,,,,,,,,,,,,,,,,,,,,,,,,,,trout,Animals,29,0,29,0,1,,,,,,,,,,,,,,,,,,
,,,,,,,,,,,,,,,89940,001,2022-04-24_03h28.49.536,SPAMnetsValid,2021.1.4,Win32,59.93048064,,,,,,,,,,,,,,,,,,,,,,,,,,,,,,,,,,,,,,,,,,,,,,,,,,,,,,,,,,,,,,,,,whale,Animals,30,0,30,0,1,,,,,,,,,,,,,,,,,,
,,,,,,,,,,,,,,,89940,001,2022-04-24_03h28.49.536,SPAMnetsValid,2021.1.4,Win32,59.93048064,,,,,,,,,,,,,,,,,,,,,,,,,,,,,,,,,,,,,,,,,,,,,,,,,,,,,,,,,,,,,,,,,dolphin,Animals,31,0,31,0,1,,,,,,,,,,,,,,,,,,
,,,,,,,,,,,,,,,89940,001,2022-04-24_03h28.49.536,SPAMnetsValid,2021.1.4,Win32,59.93048064,,,,,,,,,,,,,,,,,,,,,,,,,,,,,,,,,,,,,,,,,,,,,,,,,,,,,,,,,,,,,,,,,starfish,Animals,32,0,32,0,1,,,,,,,,,,,,,,,,,,
,,,,,,,,,,,,,,,89940,001,2022-04-24_03h28.49.536,SPAMnetsValid,2021.1.4,Win32,59.93048064,,,,,,,,,,,,,,,,,,,,,,,,,,,,,,,,,,,,,,,,,,,,,,,,,,,,,,,,,,,,,,,,,jelly fish,Animals,33,0,33,0,1,,,,,,,,,,,,,,,,,,
,,,,,,,,,,,,,,,89940,001,2022-04-24_03h28.49.536,SPAMnetsValid,2021.1.4,Win32,59.93048064,,,,,,,,,,,,,,,,,,,,,,,,,,,,,,,,,,,,,,,,,,,,,,,,,,,,,,,,,,,,,,,,,polar bear,Animals,34,0,34,0,1,,,,,,,,,,,,,,,,,,
,,,,,,,,,,,,,,,89940,001,2022-04-24_03h28.49.536,SPAMnetsValid,2021.1.4,Win32,59.93048064,,,,,,,,,,,,,,,,,,,,,,,,,,,,,,,,,,,,,,,,,,,,,,,,,,,,,,,,,,,,,,,,,brown bear,Animals,35,0,35,0,1,,,,,,,,,,,,,,,,,,
,,,,,,,,,,,,,,,89940,001,2022-04-24_03h28.49.536,SPAMnetsValid,2021.1.4,Win32,59.93048064,,,,,,,,,,,,,,,,,,,,,,,,,,,,,,,,,,,,,,,,,,,,,,,,,,,,,,,,,,,,,,,,,black bear,Animals,36,0,36,0,1,,,,,,,,,,,,,,,,,,
,,,,,,,,,,,,,,,89940,001,2022-04-24_03h28.49.536,SPAMnetsValid,2021.1.4,Win32,59.93048064,,,,,,,,,,,,,,,,,,,,,,,,,,,,,,,,,,,,,,,,,,,,,,,,,,,,,,,,,,,,,,,,,penguin,Animals,37,0,37,0,1,,,,,,,,,,,,,,,,,,
,,,,,,,,,,,,,,,89940,001,2022-04-24_03h28.49.536,SPAMnetsValid,2021.1.4,Win32,59.93048064,,,,,,,,,,,,,,,,,,,,,,,,,,,,,,,,,,,,,,,,,,,,,,,,,,,,,,,,,,,,,,,,,ostrige,Animals,38,0,38,0,1,,,,,,,,,,,,,,,,,,
,,,,,,,,,,,,,,,89940,001,2022-04-24_03h28.49.536,SPAMnetsValid,2021.1.4,Win32,59.93048064,,,,,,,,,,,,,,,,,,,,,,,,,,,,,,,,,,,,,,,,,,,,,,,,,,,,,,,,,,,,,,,,,,,,,,,,0,0,0,0,1,Animals,,,,,,,,,,,,
,,,,,,,,,,,,,,,89940,001,2022-04-24_03h28.49.536,SPAMnetsValid,2021.1.4,Win32,59.93048064,,,,,,,,,,,,,,,,,,,,,,,,,,,,,,,,,,,,,,,,,,,,,,,,,,,,,,,,,,,,,,,,,,,,,,,,,,,,,,5,6.4343,0,0,0,0,1,"I enjoy concentrating on a fantasy or daydream and exploring all its possibilities, letting it grow and develop.",0,1,,
,,,,,,,,,,,,,,,89940,001,2022-04-24_03h28.49.536,SPAMnetsValid,2021.1.4,Win32,59.93048064,,,,,,,,,,,,,,,,,,,,,,,,,,,,,,,,,,,,,,,,,,,,,,,,,,,,,,,,,,,,,,,,,,,,,,,,,,,,,,5,3.0687,0,1,1,1,1,I think it's interesting to learn and develop new hobbies.,0,2,,
,,,,,,,,,,,,,,,89940,001,2022-04-24_03h28.49.536,SPAMnetsValid,2021.1.4,Win32,59.93048064,,,,,,,,,,,,,,,,,,,,,,,,,,,,,,,,,,,,,,,,,,,,,,,,,,,,,,,,,,,,,,,,,,,,,,,,,,,,,,3,3.1962,0,2,2,2,1,I am intrigued by the patterns I find in art and nature.,0,3,,
,,,,,,,,,,,,,,,89940,001,2022-04-24_03h28.49.536,SPAMnetsValid,2021.1.4,Win32,59.93048064,,,,,,,,,,,,,,,,,,,,,,,,,,,,,,,,,,,,,,,,,,,,,,,,,,,,,,,,,,,,,,,,,,,,,,,,,,,,,,3,6.6241,0,3,3,3,1,I believe letting students hear controversial speakers can only confuse and mislead them.,1,4,,
,,,,,,,,,,,,,,,89940,001,2022-04-24_03h28.49.536,SPAMnetsValid,2021.1.4,Win32,59.93048064,,,,,,,,,,,,,,,,,,,,,,,,,,,,,,,,,,,,,,,,,,,,,,,,,,,,,,,,,,,,,,,,,,,,,,,,,,,,,,4,2.7922,0,4,4,4,1,Poetry has little or no effect on me.,1,5,,
,,,,,,,,,,,,,,,89940,001,2022-04-24_03h28.49.536,SPAMnetsValid,2021.1.4,Win32,59.93048064,,,,,,,,,,,,,,,,,,,,,,,,,,,,,,,,,,,,,,,,,,,,,,,,,,,,,,,,,,,,,,,,,,,,,,,,,,,,,,2,8.6275,0,5,5,5,1,I would have difficulty just letting my mind wander without control or guidance.,1,6,,
,,,,,,,,,,,,,,,89940,001,2022-04-24_03h28.49.536,SPAMnetsValid,2021.1.4,Win32,59.93048064,,,,,,,,,,,,,,,,,,,,,,,,,,,,,,,,,,,,,,,,,,,,,,,,,,,,,,,,,,,,,,,,,,,,,,,,,,,,,,1,4.3657,0,6,6,6,1,I seldom notice the moods or feelings that different environments produce.,1,7,,
,,,,,,,,,,,,,,,89940,001,2022-04-24_03h28.49.536,SPAMnetsValid,2021.1.4,Win32,59.93048064,,,,,,,,,,,,,,,,,,,,,,,,,,,,,,,,,,,,,,,,,,,,,,,,,,,,,,,,,,,,,,,,,,,,,,,,,,,,,,4,3.6588,0,7,7,7,1,I experience a wide range of emotions or feelings.,0,8,,
,,,,,,,,,,,,,,,89940,001,2022-04-24_03h28.49.536,SPAMnetsValid,2021.1.4,Win32,59.93048064,,,,,,,,,,,,,,,,,,,,,,,,,,,,,,,,,,,,,,,,,,,,,,,,,,,,,,,,,,,,,,,,,,,,,,,,,,,,,,3,4.4204,0,8,8,8,1,"Sometimes when I am reading poetry or looking at a work of art, I feel a chill or wave of excitement.",0,9,,
,,,,,,,,,,,,,,,89940,001,2022-04-24_03h28.49.536,SPAMnetsValid,2021.1.4,Win32,59.93048064,,,,,,,,,,,,,,,,,,,,,,,,,,,,,,,,,,,,,,,,,,,,,,,,,,,,,,,,,,,,,,,,,,,,,,,,,,,,,,3,6.7308,0,9,9,9,1,I have little interest in speculating on the nature of the universe or the human condition.,1,10,,
,,,,,,,,,,,,,,,89940,001,2022-04-24_03h28.49.536,SPAMnetsValid,2021.1.4,Win32,59.93048064,,,,,,,,,,,,,,,,,,,,,,,,,,,,,,,,,,,,,,,,,,,,,,,,,,,,,,,,,,,,,,,,,,,,,,,,,,,,,,4,2.8248,0,10,10,10,1,I have a lot of intellectual curiosity.,0,11,,
,,,,,,,,,,,,,,,89940,001,2022-04-24_03h28.49.536,SPAMnetsValid,2021.1.4,Win32,59.93048064,,,,,,,,,,,,,,,,,,,,,,,,,,,,,,,,,,,,,,,,,,,,,,,,,,,,,,,,,,,,,,,,,,,,,,,,,,,,,,3,3.7218,0,11,11,11,1,I often enjoy playing with theories or abstract ideas.,0,12,,
,,,,,,,,,,,,,,,89940,001,2022-04-24_03h28.49.536,SPAMnetsValid,2021.1.4,Win32,59.93048064,,,,,,,,,,,,,,,,,,,,,,,,,,,,,,,,,,,,,,,,,,,,,,,,,,,,,,,,,,,,,,,,,,,,,,,,,,,,,,,,,,,,,,,,return,18.3864
