key_resp_3.keys,key_resp_3.rt,slider_2.response,slider_2.rt,rjt_rating,rjt_RT,trials_24.thisRepN,trials_24.thisTrialN,trials_24.thisN,trials_24.thisIndex,trials_24.ran,rjt_order,word1,word2,attention,participant,session,date,expName,psychopyVersion,OS,frameRate,trials_4.thisRepN,trials_4.thisTrialN,trials_4.thisN,trials_4.thisIndex,trials_4.ran,trials_5.thisRepN,trials_5.thisTrialN,trials_5.thisN,trials_5.thisIndex,trials_5.ran,repOne,repTwo,slider.response,slider.rt,trials_22.thisRepN,trials_22.thisTrialN,trials_22.thisN,trials_22.thisIndex,trials_22.ran,trials_99.thisRepN,trials_99.thisTrialN,trials_99.thisN,trials_99.thisIndex,trials_99.ran,slider_extend_2.response,slider_extend_2.rt,trials_6.thisRepN,trials_6.thisTrialN,trials_6.thisN,trials_6.thisIndex,trials_6.ran,vCue2,R1,R2,R3,R4,correct,sliderVocab.response,sliderVocab.rt,trials_7.thisRepN,trials_7.thisTrialN,trials_7.thisN,trials_7.thisIndex,trials_7.ran,VocabCue,VR1,VR2,VR3,VR4,VR5,VocabCorrect,AUT_resp,AUT_label,trials.thisRepN,trials.thisTrialN,trials.thisN,trials.thisIndex,trials.ran,trials_2.thisRepN,trials_2.thisTrialN,trials_2.thisN,trials_2.thisIndex,trials_2.ran,aut_prompt,VF_response,VF_tag,trials_16.thisRepN,trials_16.thisTrialN,trials_16.thisN,trials_16.thisIndex,trials_16.ran,trials_17.thisRepN,trials_17.thisTrialN,trials_17.thisN,trials_17.thisIndex,trials_17.ran,VFcond,open_slider.response,open_slider.rt,trials_3.thisRepN,trials_3.thisTrialN,trials_3.thisN,trials_3.thisIndex,trials_3.ran,OpenQ,Rev,OPEN_ORDER,key_resp_2.keys,key_resp_2.rt
return,17.5688,7,4.9903,7,4.9903,0,0,0,92,1,170,cookie,microwave,,89946,001,2022-04-26_12h13.56.947,SPAMnetsValid,2021.1.4,MacIntel,59.99880002,,,,,,,,,,,,,,,,,,,,,,,,,,,,,,,,,,,,,,,,,,,,,,,,,,,,,,,,,,,,,,,,,,,,,,,,,,,,,,,,,,,,,,,,,
,,4,2.2261,4,2.2261,0,1,1,17,1,99,garden,melon,,89946,001,2022-04-26_12h13.56.947,SPAMnetsValid,2021.1.4,MacIntel,59.99880002,,,,,,,,,,,,,,,,,,,,,,,,,,,,,,,,,,,,,,,,,,,,,,,,,,,,,,,,,,,,,,,,,,,,,,,,,,,,,,,,,,,,,,,,,
,,1,1.7933,1,1.7933,0,2,2,13,1,105,cactus,oven,,89946,001,2022-04-26_12h13.56.947,SPAMnetsValid,2021.1.4,MacIntel,59.99880002,,,,,,,,,,,,,,,,,,,,,,,,,,,,,,,,,,,,,,,,,,,,,,,,,,,,,,,,,,,,,,,,,,,,,,,,,,,,,,,,,,,,,,,,,
,,3,2.076,3,2.076,0,3,3,42,1,184,oven,pretzel,,89946,001,2022-04-26_12h13.56.947,SPAMnetsValid,2021.1.4,MacIntel,59.99880002,,,,,,,,,,,,,,,,,,,,,,,,,,,,,,,,,,,,,,,,,,,,,,,,,,,,,,,,,,,,,,,,,,,,,,,,,,,,,,,,,,,,,,,,,
,,9,2.0429,9,2.0429,0,4,4,47,1,167,carrot,garden,,89946,001,2022-04-26_12h13.56.947,SPAMnetsValid,2021.1.4,MacIntel,59.99880002,,,,,,,,,,,,,,,,,,,,,,,,,,,,,,,,,,,,,,,,,,,,,,,,,,,,,,,,,,,,,,,,,,,,,,,,,,,,,,,,,,,,,,,,,
,,7,1.8769,7,1.8769,0,5,5,37,1,139,carrot,strawberry,,89946,001,2022-04-26_12h13.56.947,SPAMnetsValid,2021.1.4,MacIntel,59.99880002,,,,,,,,,,,,,,,,,,,,,,,,,,,,,,,,,,,,,,,,,,,,,,,,,,,,,,,,,,,,,,,,,,,,,,,,,,,,,,,,,,,,,,,,,
,,4,2.4769,4,2.4769,0,6,6,18,1,119,strawberry,tree,,89946,001,2022-04-26_12h13.56.947,SPAMnetsValid,2021.1.4,MacIntel,59.99880002,,,,,,,,,,,,,,,,,,,,,,,,,,,,,,,,,,,,,,,,,,,,,,,,,,,,,,,,,,,,,,,,,,,,,,,,,,,,,,,,,,,,,,,,,
,,4,3.9454,4,3.9454,0,7,7,45,1,179,broom,oven,,89946,001,2022-04-26_12h13.56.947,SPAMnetsValid,2021.1.4,MacIntel,59.99880002,,,,,,,,,,,,,,,,,,,,,,,,,,,,,,,,,,,,,,,,,,,,,,,,,,,,,,,,,,,,,,,,,,,,,,,,,,,,,,,,,,,,,,,,,
,,3,2.7609,3,2.7609,0,8,8,38,1,155,carrot,cookie,,89946,001,2022-04-26_12h13.56.947,SPAMnetsValid,2021.1.4,MacIntel,59.99880002,,,,,,,,,,,,,,,,,,,,,,,,,,,,,,,,,,,,,,,,,,,,,,,,,,,,,,,,,,,,,,,,,,,,,,,,,,,,,,,,,,,,,,,,,
,,3,1.1759,3,1.1759,0,9,9,4,1,109,broom,strawberry,,89946,001,2022-04-26_12h13.56.947,SPAMnetsValid,2021.1.4,MacIntel,59.99880002,,,,,,,,,,,,,,,,,,,,,,,,,,,,,,,,,,,,,,,,,,,,,,,,,,,,,,,,,,,,,,,,,,,,,,,,,,,,,,,,,,,,,,,,,
,,4,1.2766,4,1.2766,0,10,10,21,1,159,cookie,flower,,89946,001,2022-04-26_12h13.56.947,SPAMnetsValid,2021.1.4,MacIntel,59.99880002,,,,,,,,,,,,,,,,,,,,,,,,,,,,,,,,,,,,,,,,,,,,,,,,,,,,,,,,,,,,,,,,,,,,,,,,,,,,,,,,,,,,,,,,,
,,7,1.4597,7,1.4597,0,11,11,70,1,141,melon,tomato,,89946,001,2022-04-26_12h13.56.947,SPAMnetsValid,2021.1.4,MacIntel,59.99880002,,,,,,,,,,,,,,,,,,,,,,,,,,,,,,,,,,,,,,,,,,,,,,,,,,,,,,,,,,,,,,,,,,,,,,,,,,,,,,,,,,,,,,,,,
,,4,1.327,4,1.327,0,12,12,79,1,103,pretzel,tomato,,89946,001,2022-04-26_12h13.56.947,SPAMnetsValid,2021.1.4,MacIntel,59.99880002,,,,,,,,,,,,,,,,,,,,,,,,,,,,,,,,,,,,,,,,,,,,,,,,,,,,,,,,,,,,,,,,,,,,,,,,,,,,,,,,,,,,,,,,,
,,4,1.4085,4,1.4085,0,13,13,59,1,164,cookie,garden,,89946,001,2022-04-26_12h13.56.947,SPAMnetsValid,2021.1.4,MacIntel,59.99880002,,,,,,,,,,,,,,,,,,,,,,,,,,,,,,,,,,,,,,,,,,,,,,,,,,,,,,,,,,,,,,,,,,,,,,,,,,,,,,,,,,,,,,,,,
,,4,0.9281,4,0.9281,0,14,14,57,1,127,cactus,chocolate,,89946,001,2022-04-26_12h13.56.947,SPAMnetsValid,2021.1.4,MacIntel,59.99880002,,,,,,,,,,,,,,,,,,,,,,,,,,,,,,,,,,,,,,,,,,,,,,,,,,,,,,,,,,,,,,,,,,,,,,,,,,,,,,,,,,,,,,,,,
,,7,1.6109,7,1.6109,0,15,15,91,1,166,cake,yogurt,,89946,001,2022-04-26_12h13.56.947,SPAMnetsValid,2021.1.4,MacIntel,59.99880002,,,,,,,,,,,,,,,,,,,,,,,,,,,,,,,,,,,,,,,,,,,,,,,,,,,,,,,,,,,,,,,,,,,,,,,,,,,,,,,,,,,,,,,,,
,,6,1.3573,6,1.3573,0,16,16,89,1,140,cookie,refrigerator,,89946,001,2022-04-26_12h13.56.947,SPAMnetsValid,2021.1.4,MacIntel,59.99880002,,,,,,,,,,,,,,,,,,,,,,,,,,,,,,,,,,,,,,,,,,,,,,,,,,,,,,,,,,,,,,,,,,,,,,,,,,,,,,,,,,,,,,,,,
,,8,1.5927,8,1.5927,0,17,17,48,1,186,kitchen,yogurt,,89946,001,2022-04-26_12h13.56.947,SPAMnetsValid,2021.1.4,MacIntel,59.99880002,,,,,,,,,,,,,,,,,,,,,,,,,,,,,,,,,,,,,,,,,,,,,,,,,,,,,,,,,,,,,,,,,,,,,,,,,,,,,,,,,,,,,,,,,
,,2,1.4651,2,1.4651,0,18,18,80,1,146,pretzel,tree,,89946,001,2022-04-26_12h13.56.947,SPAMnetsValid,2021.1.4,MacIntel,59.99880002,,,,,,,,,,,,,,,,,,,,,,,,,,,,,,,,,,,,,,,,,,,,,,,,,,,,,,,,,,,,,,,,,,,,,,,,,,,,,,,,,,,,,,,,,
,,9,1.9836,9,1.9836,0,19,19,61,1,138,flower,rose,,89946,001,2022-04-26_12h13.56.947,SPAMnetsValid,2021.1.4,MacIntel,59.99880002,,,,,,,,,,,,,,,,,,,,,,,,,,,,,,,,,,,,,,,,,,,,,,,,,,,,,,,,,,,,,,,,,,,,,,,,,,,,,,,,,,,,,,,,,
,,1,1.6831,1,1.6831,0,20,20,94,1,133,cake,flower,,89946,001,2022-04-26_12h13.56.947,SPAMnetsValid,2021.1.4,MacIntel,59.99880002,,,,,,,,,,,,,,,,,,,,,,,,,,,,,,,,,,,,,,,,,,,,,,,,,,,,,,,,,,,,,,,,,,,,,,,,,,,,,,,,,,,,,,,,,
,,1,1.108,1,1.108,0,21,21,74,1,128,melon,microwave,,89946,001,2022-04-26_12h13.56.947,SPAMnetsValid,2021.1.4,MacIntel,59.99880002,,,,,,,,,,,,,,,,,,,,,,,,,,,,,,,,,,,,,,,,,,,,,,,,,,,,,,,,,,,,,,,,,,,,,,,,,,,,,,,,,,,,,,,,,
,,8,1.91,8,1.91,0,22,22,35,1,147,cake,refrigerator,,89946,001,2022-04-26_12h13.56.947,SPAMnetsValid,2021.1.4,MacIntel,59.99880002,,,,,,,,,,,,,,,,,,,,,,,,,,,,,,,,,,,,,,,,,,,,,,,,,,,,,,,,,,,,,,,,,,,,,,,,,,,,,,,,,,,,,,,,,
,,2,1.8773,2,1.8773,0,23,23,58,1,144,cake,garden,,89946,001,2022-04-26_12h13.56.947,SPAMnetsValid,2021.1.4,MacIntel,59.99880002,,,,,,,,,,,,,,,,,,,,,,,,,,,,,,,,,,,,,,,,,,,,,,,,,,,,,,,,,,,,,,,,,,,,,,,,,,,,,,,,,,,,,,,,,
,,1,0.9649,1,0.9649,0,24,24,46,1,123,cookie,tree,,89946,001,2022-04-26_12h13.56.947,SPAMnetsValid,2021.1.4,MacIntel,59.99880002,,,,,,,,,,,,,,,,,,,,,,,,,,,,,,,,,,,,,,,,,,,,,,,,,,,,,,,,,,,,,,,,,,,,,,,,,,,,,,,,,,,,,,,,,
,,1,1.4262,1,1.4262,0,25,25,50,1,126,kitchen,tree,,89946,001,2022-04-26_12h13.56.947,SPAMnetsValid,2021.1.4,MacIntel,59.99880002,,,,,,,,,,,,,,,,,,,,,,,,,,,,,,,,,,,,,,,,,,,,,,,,,,,,,,,,,,,,,,,,,,,,,,,,,,,,,,,,,,,,,,,,,
,,6,1.6301,6,1.6301,0,26,26,10,1,118,chocolate,oven,,89946,001,2022-04-26_12h13.56.947,SPAMnetsValid,2021.1.4,MacIntel,59.99880002,,,,,,,,,,,,,,,,,,,,,,,,,,,,,,,,,,,,,,,,,,,,,,,,,,,,,,,,,,,,,,,,,,,,,,,,,,,,,,,,,,,,,,,,,
,,9,1.4777,9,1.4777,0,27,27,14,1,120,microwave,oven,,89946,001,2022-04-26_12h13.56.947,SPAMnetsValid,2021.1.4,MacIntel,59.99880002,,,,,,,,,,,,,,,,,,,,,,,,,,,,,,,,,,,,,,,,,,,,,,,,,,,,,,,,,,,,,,,,,,,,,,,,,,,,,,,,,,,,,,,,,
,,7,1.1593,7,1.1593,0,28,28,85,1,115,refrigerator,tomato,,89946,001,2022-04-26_12h13.56.947,SPAMnetsValid,2021.1.4,MacIntel,59.99880002,,,,,,,,,,,,,,,,,,,,,,,,,,,,,,,,,,,,,,,,,,,,,,,,,,,,,,,,,,,,,,,,,,,,,,,,,,,,,,,,,,,,,,,,,
,,6,2.6933,6,2.6933,0,29,29,93,1,134,carrot,flower,,89946,001,2022-04-26_12h13.56.947,SPAMnetsValid,2021.1.4,MacIntel,59.99880002,,,,,,,,,,,,,,,,,,,,,,,,,,,,,,,,,,,,,,,,,,,,,,,,,,,,,,,,,,,,,,,,,,,,,,,,,,,,,,,,,,,,,,,,,
,,7,2.1719,7,2.1719,0,30,30,66,1,150,microwave,refrigerator,,89946,001,2022-04-26_12h13.56.947,SPAMnetsValid,2021.1.4,MacIntel,59.99880002,,,,,,,,,,,,,,,,,,,,,,,,,,,,,,,,,,,,,,,,,,,,,,,,,,,,,,,,,,,,,,,,,,,,,,,,,,,,,,,,,,,,,,,,,
,,8,1.9615,8,1.9615,0,31,31,28,1,154,strawberry,yogurt,,89946,001,2022-04-26_12h13.56.947,SPAMnetsValid,2021.1.4,MacIntel,59.99880002,,,,,,,,,,,,,,,,,,,,,,,,,,,,,,,,,,,,,,,,,,,,,,,,,,,,,,,,,,,,,,,,,,,,,,,,,,,,,,,,,,,,,,,,,
,,1,1.7273,1,1.7273,0,32,32,71,1,187,cactus,microwave,,89946,001,2022-04-26_12h13.56.947,SPAMnetsValid,2021.1.4,MacIntel,59.99880002,,,,,,,,,,,,,,,,,,,,,,,,,,,,,,,,,,,,,,,,,,,,,,,,,,,,,,,,,,,,,,,,,,,,,,,,,,,,,,,,,,,,,,,,,
,,1,1.1436,1,1.1436,0,33,33,15,1,145,cactus,yogurt,,89946,001,2022-04-26_12h13.56.947,SPAMnetsValid,2021.1.4,MacIntel,59.99880002,,,,,,,,,,,,,,,,,,,,,,,,,,,,,,,,,,,,,,,,,,,,,,,,,,,,,,,,,,,,,,,,,,,,,,,,,,,,,,,,,,,,,,,,,
,,3,2.0267,3,2.0267,0,34,34,82,1,98,pretzel,strawberry,,89946,001,2022-04-26_12h13.56.947,SPAMnetsValid,2021.1.4,MacIntel,59.99880002,,,,,,,,,,,,,,,,,,,,,,,,,,,,,,,,,,,,,,,,,,,,,,,,,,,,,,,,,,,,,,,,,,,,,,,,,,,,,,,,,,,,,,,,,
,,8,1.3145,8,1.3145,0,35,35,56,1,113,refrigerator,strawberry,,89946,001,2022-04-26_12h13.56.947,SPAMnetsValid,2021.1.4,MacIntel,59.99880002,,,,,,,,,,,,,,,,,,,,,,,,,,,,,,,,,,,,,,,,,,,,,,,,,,,,,,,,,,,,,,,,,,,,,,,,,,,,,,,,,,,,,,,,,
,,2,1.3613,2,1.3613,0,36,36,16,1,111,carrot,microwave,,89946,001,2022-04-26_12h13.56.947,SPAMnetsValid,2021.1.4,MacIntel,59.99880002,,,,,,,,,,,,,,,,,,,,,,,,,,,,,,,,,,,,,,,,,,,,,,,,,,,,,,,,,,,,,,,,,,,,,,,,,,,,,,,,,,,,,,,,,
,,2,1.1283,2,1.1283,0,37,37,90,1,190,microwave,strawberry,,89946,001,2022-04-26_12h13.56.947,SPAMnetsValid,2021.1.4,MacIntel,59.99880002,,,,,,,,,,,,,,,,,,,,,,,,,,,,,,,,,,,,,,,,,,,,,,,,,,,,,,,,,,,,,,,,,,,,,,,,,,,,,,,,,,,,,,,,,
,,2,1.1458,2,1.1458,0,38,38,9,1,176,cactus,tomato,,89946,001,2022-04-26_12h13.56.947,SPAMnetsValid,2021.1.4,MacIntel,59.99880002,,,,,,,,,,,,,,,,,,,,,,,,,,,,,,,,,,,,,,,,,,,,,,,,,,,,,,,,,,,,,,,,,,,,,,,,,,,,,,,,,,,,,,,,,
,,1,1.4116,1,1.4116,0,39,39,23,1,148,flower,melon,,89946,001,2022-04-26_12h13.56.947,SPAMnetsValid,2021.1.4,MacIntel,59.99880002,,,,,,,,,,,,,,,,,,,,,,,,,,,,,,,,,,,,,,,,,,,,,,,,,,,,,,,,,,,,,,,,,,,,,,,,,,,,,,,,,,,,,,,,,
,,2,1.5104,2,1.5104,0,40,40,75,1,178,cactus,carrot,,89946,001,2022-04-26_12h13.56.947,SPAMnetsValid,2021.1.4,MacIntel,59.99880002,,,,,,,,,,,,,,,,,,,,,,,,,,,,,,,,,,,,,,,,,,,,,,,,,,,,,,,,,,,,,,,,,,,,,,,,,,,,,,,,,,,,,,,,,
,,7,2.0299,7,2.0299,0,41,41,36,1,161,kitchen,pretzel,,89946,001,2022-04-26_12h13.56.947,SPAMnetsValid,2021.1.4,MacIntel,59.99880002,,,,,,,,,,,,,,,,,,,,,,,,,,,,,,,,,,,,,,,,,,,,,,,,,,,,,,,,,,,,,,,,,,,,,,,,,,,,,,,,,,,,,,,,,
,,9,1.9775,9,1.9775,0,42,42,60,1,122,flower,garden,,89946,001,2022-04-26_12h13.56.947,SPAMnetsValid,2021.1.4,MacIntel,59.99880002,,,,,,,,,,,,,,,,,,,,,,,,,,,,,,,,,,,,,,,,,,,,,,,,,,,,,,,,,,,,,,,,,,,,,,,,,,,,,,,,,,,,,,,,,
,,3,3.2606,3,3.2606,0,43,43,27,1,158,cookie,oven,,89946,001,2022-04-26_12h13.56.947,SPAMnetsValid,2021.1.4,MacIntel,59.99880002,,,,,,,,,,,,,,,,,,,,,,,,,,,,,,,,,,,,,,,,,,,,,,,,,,,,,,,,,,,,,,,,,,,,,,,,,,,,,,,,,,,,,,,,,
,,3,0.9933,3,0.9933,0,44,44,73,1,135,carrot,oven,,89946,001,2022-04-26_12h13.56.947,SPAMnetsValid,2021.1.4,MacIntel,59.99880002,,,,,,,,,,,,,,,,,,,,,,,,,,,,,,,,,,,,,,,,,,,,,,,,,,,,,,,,,,,,,,,,,,,,,,,,,,,,,,,,,,,,,,,,,
,,3,0.761,3,0.761,0,45,45,3,1,129,cactus,refrigerator,,89946,001,2022-04-26_12h13.56.947,SPAMnetsValid,2021.1.4,MacIntel,59.99880002,,,,,,,,,,,,,,,,,,,,,,,,,,,,,,,,,,,,,,,,,,,,,,,,,,,,,,,,,,,,,,,,,,,,,,,,,,,,,,,,,,,,,,,,,
,,3,0.5927,3,0.5927,0,46,46,83,1,100,garden,tomato,,89946,001,2022-04-26_12h13.56.947,SPAMnetsValid,2021.1.4,MacIntel,59.99880002,,,,,,,,,,,,,,,,,,,,,,,,,,,,,,,,,,,,,,,,,,,,,,,,,,,,,,,,,,,,,,,,,,,,,,,,,,,,,,,,,,,,,,,,,
,,3,0.7438,3,0.7438,0,47,47,33,1,131,cactus,garden,,89946,001,2022-04-26_12h13.56.947,SPAMnetsValid,2021.1.4,MacIntel,59.99880002,,,,,,,,,,,,,,,,,,,,,,,,,,,,,,,,,,,,,,,,,,,,,,,,,,,,,,,,,,,,,,,,,,,,,,,,,,,,,,,,,,,,,,,,,
,,5,2.2786,5,2.2786,0,48,48,62,1,189,onion,tree,,89946,001,2022-04-26_12h13.56.947,SPAMnetsValid,2021.1.4,MacIntel,59.99880002,,,,,,,,,,,,,,,,,,,,,,,,,,,,,,,,,,,,,,,,,,,,,,,,,,,,,,,,,,,,,,,,,,,,,,,,,,,,,,,,,,,,,,,,,
,,4,0.759,4,0.759,0,49,49,49,1,152,cactus,strawberry,,89946,001,2022-04-26_12h13.56.947,SPAMnetsValid,2021.1.4,MacIntel,59.99880002,,,,,,,,,,,,,,,,,,,,,,,,,,,,,,,,,,,,,,,,,,,,,,,,,,,,,,,,,,,,,,,,,,,,,,,,,,,,,,,,,,,,,,,,,
,,4,0.7415,4,0.7415,0,50,50,20,1,149,broom,tomato,,89946,001,2022-04-26_12h13.56.947,SPAMnetsValid,2021.1.4,MacIntel,59.99880002,,,,,,,,,,,,,,,,,,,,,,,,,,,,,,,,,,,,,,,,,,,,,,,,,,,,,,,,,,,,,,,,,,,,,,,,,,,,,,,,,,,,,,,,,
,,4,0.7609,4,0.7609,0,51,51,81,1,104,garden,microwave,,89946,001,2022-04-26_12h13.56.947,SPAMnetsValid,2021.1.4,MacIntel,59.99880002,,,,,,,,,,,,,,,,,,,,,,,,,,,,,,,,,,,,,,,,,,,,,,,,,,,,,,,,,,,,,,,,,,,,,,,,,,,,,,,,,,,,,,,,,
,,8,2.1623,8,2.1623,0,52,52,65,1,160,cookie,kitchen,,89946,001,2022-04-26_12h13.56.947,SPAMnetsValid,2021.1.4,MacIntel,59.99880002,,,,,,,,,,,,,,,,,,,,,,,,,,,,,,,,,,,,,,,,,,,,,,,,,,,,,,,,,,,,,,,,,,,,,,,,,,,,,,,,,,,,,,,,,
,,4,0.8417,4,0.8417,0,53,53,32,1,182,flower,refrigerator,,89946,001,2022-04-26_12h13.56.947,SPAMnetsValid,2021.1.4,MacIntel,59.99880002,,,,,,,,,,,,,,,,,,,,,,,,,,,,,,,,,,,,,,,,,,,,,,,,,,,,,,,,,,,,,,,,,,,,,,,,,,,,,,,,,,,,,,,,,
,,6,1.7121,6,1.7121,0,54,54,76,1,102,chocolate,refrigerator,,89946,001,2022-04-26_12h13.56.947,SPAMnetsValid,2021.1.4,MacIntel,59.99880002,,,,,,,,,,,,,,,,,,,,,,,,,,,,,,,,,,,,,,,,,,,,,,,,,,,,,,,,,,,,,,,,,,,,,,,,,,,,,,,,,,,,,,,,,
,,6,0.931,6,0.931,0,55,55,96,1,136,chocolate,microwave,,89946,001,2022-04-26_12h13.56.947,SPAMnetsValid,2021.1.4,MacIntel,59.99880002,,,,,,,,,,,,,,,,,,,,,,,,,,,,,,,,,,,,,,,,,,,,,,,,,,,,,,,,,,,,,,,,,,,,,,,,,,,,,,,,,,,,,,,,,
,,3,1.3625,3,1.3625,0,56,56,87,1,114,cookie,strawberry,,89946,001,2022-04-26_12h13.56.947,SPAMnetsValid,2021.1.4,MacIntel,59.99880002,,,,,,,,,,,,,,,,,,,,,,,,,,,,,,,,,,,,,,,,,,,,,,,,,,,,,,,,,,,,,,,,,,,,,,,,,,,,,,,,,,,,,,,,,
,,9,1.3922,9,1.3922,0,57,57,44,1,116,cake,chocolate,,89946,001,2022-04-26_12h13.56.947,SPAMnetsValid,2021.1.4,MacIntel,59.99880002,,,,,,,,,,,,,,,,,,,,,,,,,,,,,,,,,,,,,,,,,,,,,,,,,,,,,,,,,,,,,,,,,,,,,,,,,,,,,,,,,,,,,,,,,
,,8,1.0935,8,1.0935,0,58,58,39,1,112,cake,carrot,,89946,001,2022-04-26_12h13.56.947,SPAMnetsValid,2021.1.4,MacIntel,59.99880002,,,,,,,,,,,,,,,,,,,,,,,,,,,,,,,,,,,,,,,,,,,,,,,,,,,,,,,,,,,,,,,,,,,,,,,,,,,,,,,,,,,,,,,,,
,,3,2.0851,3,2.0851,0,59,59,67,1,96,oven,strawberry,,89946,001,2022-04-26_12h13.56.947,SPAMnetsValid,2021.1.4,MacIntel,59.99880002,,,,,,,,,,,,,,,,,,,,,,,,,,,,,,,,,,,,,,,,,,,,,,,,,,,,,,,,,,,,,,,,,,,,,,,,,,,,,,,,,,,,,,,,,
,,8,1.7965,8,1.7965,0,60,60,0,1,106,cake,strawberry,,89946,001,2022-04-26_12h13.56.947,SPAMnetsValid,2021.1.4,MacIntel,59.99880002,,,,,,,,,,,,,,,,,,,,,,,,,,,,,,,,,,,,,,,,,,,,,,,,,,,,,,,,,,,,,,,,,,,,,,,,,,,,,,,,,,,,,,,,,
,,2,1.7448,2,1.7448,0,61,61,63,1,137,microwave,tree,,89946,001,2022-04-26_12h13.56.947,SPAMnetsValid,2021.1.4,MacIntel,59.99880002,,,,,,,,,,,,,,,,,,,,,,,,,,,,,,,,,,,,,,,,,,,,,,,,,,,,,,,,,,,,,,,,,,,,,,,,,,,,,,,,,,,,,,,,,
,,1,1.1607,1,1.1607,0,62,62,54,1,101,cactus,kitchen,,89946,001,2022-04-26_12h13.56.947,SPAMnetsValid,2021.1.4,MacIntel,59.99880002,,,,,,,,,,,,,,,,,,,,,,,,,,,,,,,,,,,,,,,,,,,,,,,,,,,,,,,,,,,,,,,,,,,,,,,,,,,,,,,,,,,,,,,,,
,,2,0.812,2,0.812,0,63,63,29,1,163,melon,refrigerator,,89946,001,2022-04-26_12h13.56.947,SPAMnetsValid,2021.1.4,MacIntel,59.99880002,,,,,,,,,,,,,,,,,,,,,,,,,,,,,,,,,,,,,,,,,,,,,,,,,,,,,,,,,,,,,,,,,,,,,,,,,,,,,,,,,,,,,,,,,
,,8,2.762,8,2.762,0,64,64,51,1,168,cactus,flower,,89946,001,2022-04-26_12h13.56.947,SPAMnetsValid,2021.1.4,MacIntel,59.99880002,,,,,,,,,,,,,,,,,,,,,,,,,,,,,,,,,,,,,,,,,,,,,,,,,,,,,,,,,,,,,,,,,,,,,,,,,,,,,,,,,,,,,,,,,
,,9,1.7814,9,1.7814,0,65,65,52,1,110,chocolate,cookie,,89946,001,2022-04-26_12h13.56.947,SPAMnetsValid,2021.1.4,MacIntel,59.99880002,,,,,,,,,,,,,,,,,,,,,,,,,,,,,,,,,,,,,,,,,,,,,,,,,,,,,,,,,,,,,,,,,,,,,,,,,,,,,,,,,,,,,,,,,
,,1,1.5278,1,1.5278,0,66,66,24,1,169,onion,yogurt,,89946,001,2022-04-26_12h13.56.947,SPAMnetsValid,2021.1.4,MacIntel,59.99880002,,,,,,,,,,,,,,,,,,,,,,,,,,,,,,,,,,,,,,,,,,,,,,,,,,,,,,,,,,,,,,,,,,,,,,,,,,,,,,,,,,,,,,,,,
,,2,1.6601,2,1.6601,0,67,67,26,1,107,rose,tomato,,89946,001,2022-04-26_12h13.56.947,SPAMnetsValid,2021.1.4,MacIntel,59.99880002,,,,,,,,,,,,,,,,,,,,,,,,,,,,,,,,,,,,,,,,,,,,,,,,,,,,,,,,,,,,,,,,,,,,,,,,,,,,,,,,,,,,,,,,,
,,2,0.9275,2,0.9275,0,68,68,68,1,180,tree,yogurt,,89946,001,2022-04-26_12h13.56.947,SPAMnetsValid,2021.1.4,MacIntel,59.99880002,,,,,,,,,,,,,,,,,,,,,,,,,,,,,,,,,,,,,,,,,,,,,,,,,,,,,,,,,,,,,,,,,,,,,,,,,,,,,,,,,,,,,,,,,
,,3,0.9107,3,0.9107,0,69,69,55,1,143,pretzel,rose,,89946,001,2022-04-26_12h13.56.947,SPAMnetsValid,2021.1.4,MacIntel,59.99880002,,,,,,,,,,,,,,,,,,,,,,,,,,,,,,,,,,,,,,,,,,,,,,,,,,,,,,,,,,,,,,,,,,,,,,,,,,,,,,,,,,,,,,,,,
,,2,0.7438,2,0.7438,0,70,70,34,1,153,carrot,pretzel,,89946,001,2022-04-26_12h13.56.947,SPAMnetsValid,2021.1.4,MacIntel,59.99880002,,,,,,,,,,,,,,,,,,,,,,,,,,,,,,,,,,,,,,,,,,,,,,,,,,,,,,,,,,,,,,,,,,,,,,,,,,,,,,,,,,,,,,,,,
,,2,1.1136,2,1.1136,0,71,71,84,1,130,microwave,yogurt,,89946,001,2022-04-26_12h13.56.947,SPAMnetsValid,2021.1.4,MacIntel,59.99880002,,,,,,,,,,,,,,,,,,,,,,,,,,,,,,,,,,,,,,,,,,,,,,,,,,,,,,,,,,,,,,,,,,,,,,,,,,,,,,,,,,,,,,,,,
,,7,1.2584,7,1.2584,0,72,72,8,1,97,chocolate,kitchen,,89946,001,2022-04-26_12h13.56.947,SPAMnetsValid,2021.1.4,MacIntel,59.99880002,,,,,,,,,,,,,,,,,,,,,,,,,,,,,,,,,,,,,,,,,,,,,,,,,,,,,,,,,,,,,,,,,,,,,,,,,,,,,,,,,,,,,,,,,
,,9,1.876,9,1.876,0,73,73,25,1,194,cactus,cactus,CHECK,89946,001,2022-04-26_12h13.56.947,SPAMnetsValid,2021.1.4,MacIntel,59.99880002,,,,,,,,,,,,,,,,,,,,,,,,,,,,,,,,,,,,,,,,,,,,,,,,,,,,,,,,,,,,,,,,,,,,,,,,,,,,,,,,,,,,,,,,,
,,8,1.6268,8,1.6268,0,74,74,22,1,142,garden,tree,,89946,001,2022-04-26_12h13.56.947,SPAMnetsValid,2021.1.4,MacIntel,59.99880002,,,,,,,,,,,,,,,,,,,,,,,,,,,,,,,,,,,,,,,,,,,,,,,,,,,,,,,,,,,,,,,,,,,,,,,,,,,,,,,,,,,,,,,,,
,,1,1.5443,1,1.5443,0,75,75,40,1,165,onion,rose,,89946,001,2022-04-26_12h13.56.947,SPAMnetsValid,2021.1.4,MacIntel,59.99880002,,,,,,,,,,,,,,,,,,,,,,,,,,,,,,,,,,,,,,,,,,,,,,,,,,,,,,,,,,,,,,,,,,,,,,,,,,,,,,,,,,,,,,,,,
,,1,1.525,1,1.525,0,76,76,19,1,183,cake,rose,,89946,001,2022-04-26_12h13.56.947,SPAMnetsValid,2021.1.4,MacIntel,59.99880002,,,,,,,,,,,,,,,,,,,,,,,,,,,,,,,,,,,,,,,,,,,,,,,,,,,,,,,,,,,,,,,,,,,,,,,,,,,,,,,,,,,,,,,,,
,,7,2.5701,7,2.5701,0,77,77,1,1,173,kitchen,tomato,,89946,001,2022-04-26_12h13.56.947,SPAMnetsValid,2021.1.4,MacIntel,59.99880002,,,,,,,,,,,,,,,,,,,,,,,,,,,,,,,,,,,,,,,,,,,,,,,,,,,,,,,,,,,,,,,,,,,,,,,,,,,,,,,,,,,,,,,,,
,,8,1.0459,8,1.0459,0,78,78,88,1,171,cake,tomato,,89946,001,2022-04-26_12h13.56.947,SPAMnetsValid,2021.1.4,MacIntel,59.99880002,,,,,,,,,,,,,,,,,,,,,,,,,,,,,,,,,,,,,,,,,,,,,,,,,,,,,,,,,,,,,,,,,,,,,,,,,,,,,,,,,,,,,,,,,
,,7,2.3775,7,2.3775,0,79,79,69,1,124,oven,refrigerator,,89946,001,2022-04-26_12h13.56.947,SPAMnetsValid,2021.1.4,MacIntel,59.99880002,,,,,,,,,,,,,,,,,,,,,,,,,,,,,,,,,,,,,,,,,,,,,,,,,,,,,,,,,,,,,,,,,,,,,,,,,,,,,,,,,,,,,,,,,
,,1,1.3426,1,1.3426,0,80,80,6,1,151,microwave,onion,,89946,001,2022-04-26_12h13.56.947,SPAMnetsValid,2021.1.4,MacIntel,59.99880002,,,,,,,,,,,,,,,,,,,,,,,,,,,,,,,,,,,,,,,,,,,,,,,,,,,,,,,,,,,,,,,,,,,,,,,,,,,,,,,,,,,,,,,,,
,,2,0.7612,2,0.7612,0,81,81,77,1,172,kitchen,melon,,89946,001,2022-04-26_12h13.56.947,SPAMnetsValid,2021.1.4,MacIntel,59.99880002,,,,,,,,,,,,,,,,,,,,,,,,,,,,,,,,,,,,,,,,,,,,,,,,,,,,,,,,,,,,,,,,,,,,,,,,,,,,,,,,,,,,,,,,,
,,7,1.848,7,1.848,0,82,82,41,1,175,melon,onion,,89946,001,2022-04-26_12h13.56.947,SPAMnetsValid,2021.1.4,MacIntel,59.99880002,,,,,,,,,,,,,,,,,,,,,,,,,,,,,,,,,,,,,,,,,,,,,,,,,,,,,,,,,,,,,,,,,,,,,,,,,,,,,,,,,,,,,,,,,
,,7,1.0098,7,1.0098,0,83,83,30,1,125,carrot,tree,,89946,001,2022-04-26_12h13.56.947,SPAMnetsValid,2021.1.4,MacIntel,59.99880002,,,,,,,,,,,,,,,,,,,,,,,,,,,,,,,,,,,,,,,,,,,,,,,,,,,,,,,,,,,,,,,,,,,,,,,,,,,,,,,,,,,,,,,,,
,,6,2.3164,6,2.3164,0,84,84,95,1,121,broom,microwave,,89946,001,2022-04-26_12h13.56.947,SPAMnetsValid,2021.1.4,MacIntel,59.99880002,,,,,,,,,,,,,,,,,,,,,,,,,,,,,,,,,,,,,,,,,,,,,,,,,,,,,,,,,,,,,,,,,,,,,,,,,,,,,,,,,,,,,,,,,
,,4,1.2433,4,1.2433,0,85,85,64,1,157,refrigerator,rose,,89946,001,2022-04-26_12h13.56.947,SPAMnetsValid,2021.1.4,MacIntel,59.99880002,,,,,,,,,,,,,,,,,,,,,,,,,,,,,,,,,,,,,,,,,,,,,,,,,,,,,,,,,,,,,,,,,,,,,,,,,,,,,,,,,,,,,,,,,
,,6,0.8426,6,0.8426,0,86,86,12,1,162,microwave,tomato,,89946,001,2022-04-26_12h13.56.947,SPAMnetsValid,2021.1.4,MacIntel,59.99880002,,,,,,,,,,,,,,,,,,,,,,,,,,,,,,,,,,,,,,,,,,,,,,,,,,,,,,,,,,,,,,,,,,,,,,,,,,,,,,,,,,,,,,,,,
,,9,1.2114,9,1.2114,0,87,87,86,1,193,melon,melon,CHECK,89946,001,2022-04-26_12h13.56.947,SPAMnetsValid,2021.1.4,MacIntel,59.99880002,,,,,,,,,,,,,,,,,,,,,,,,,,,,,,,,,,,,,,,,,,,,,,,,,,,,,,,,,,,,,,,,,,,,,,,,,,,,,,,,,,,,,,,,,
,,8,1.9598,8,1.9598,0,88,88,72,1,181,carrot,kitchen,,89946,001,2022-04-26_12h13.56.947,SPAMnetsValid,2021.1.4,MacIntel,59.99880002,,,,,,,,,,,,,,,,,,,,,,,,,,,,,,,,,,,,,,,,,,,,,,,,,,,,,,,,,,,,,,,,,,,,,,,,,,,,,,,,,,,,,,,,,
,,8,1.0652,8,1.0652,0,89,89,53,1,177,chocolate,strawberry,,89946,001,2022-04-26_12h13.56.947,SPAMnetsValid,2021.1.4,MacIntel,59.99880002,,,,,,,,,,,,,,,,,,,,,,,,,,,,,,,,,,,,,,,,,,,,,,,,,,,,,,,,,,,,,,,,,,,,,,,,,,,,,,,,,,,,,,,,,
,,5,2.5814,5,2.5814,0,90,90,5,1,108,carrot,chocolate,,89946,001,2022-04-26_12h13.56.947,SPAMnetsValid,2021.1.4,MacIntel,59.99880002,,,,,,,,,,,,,,,,,,,,,,,,,,,,,,,,,,,,,,,,,,,,,,,,,,,,,,,,,,,,,,,,,,,,,,,,,,,,,,,,,,,,,,,,,
,,2,2.1099,2,2.1099,0,91,91,78,1,132,broom,tree,,89946,001,2022-04-26_12h13.56.947,SPAMnetsValid,2021.1.4,MacIntel,59.99880002,,,,,,,,,,,,,,,,,,,,,,,,,,,,,,,,,,,,,,,,,,,,,,,,,,,,,,,,,,,,,,,,,,,,,,,,,,,,,,,,,,,,,,,,,
,,2,0.977,2,0.977,0,92,92,2,1,174,cake,pretzel,,89946,001,2022-04-26_12h13.56.947,SPAMnetsValid,2021.1.4,MacIntel,59.99880002,,,,,,,,,,,,,,,,,,,,,,,,,,,,,,,,,,,,,,,,,,,,,,,,,,,,,,,,,,,,,,,,,,,,,,,,,,,,,,,,,,,,,,,,,
,,9,1.6277,9,1.6277,0,93,93,11,1,117,melon,strawberry,,89946,001,2022-04-26_12h13.56.947,SPAMnetsValid,2021.1.4,MacIntel,59.99880002,,,,,,,,,,,,,,,,,,,,,,,,,,,,,,,,,,,,,,,,,,,,,,,,,,,,,,,,,,,,,,,,,,,,,,,,,,,,,,,,,,,,,,,,,
,,8,0.8299,8,0.8299,0,94,94,31,1,156,melon,rose,,89946,001,2022-04-26_12h13.56.947,SPAMnetsValid,2021.1.4,MacIntel,59.99880002,,,,,,,,,,,,,,,,,,,,,,,,,,,,,,,,,,,,,,,,,,,,,,,,,,,,,,,,,,,,,,,,,,,,,,,,,,,,,,,,,,,,,,,,,
,,7,1.3444,7,1.3444,0,95,95,43,1,185,cactus,rose,,89946,001,2022-04-26_12h13.56.947,SPAMnetsValid,2021.1.4,MacIntel,59.99880002,,,,,,,,,,,,,,,,,,,,,,,,,,,,,,,,,,,,,,,,,,,,,,,,,,,,,,,,,,,,,,,,,,,,,,,,,,,,,,,,,,,,,,,,,
,,6,1.0577,6,1.0577,0,96,96,7,1,188,flower,tree,,89946,001,2022-04-26_12h13.56.947,SPAMnetsValid,2021.1.4,MacIntel,59.99880002,,,,,,,,,,,,,,,,,,,,,,,,,,,,,,,,,,,,,,,,,,,,,,,,,,,,,,,,,,,,,,,,,,,,,,,,,,,,,,,,,,,,,,,,,
,,,,,,,,,,,,,,,89946,001,2022-04-26_12h13.56.947,SPAMnetsValid,2021.1.4,MacIntel,59.99880002,0,0,0,0,1,,,,,,,,,,,,,,,,,,,,,,,,,,,,,,,,,,,,,,,,,,,,,,,,,,,,,,,,,,,,,,,,,,,,,,,,,,,,,,,,,,,,
,,,,,,,,,,,,,,,89946,001,2022-04-26_12h13.56.947,SPAMnetsValid,2021.1.4,MacIntel,59.99880002,,,,,,0,0,0,1,1,0,1,,,,,,,,,,,,,,,,,,,,,,,,,,,,,,,,,,,,,,,,,,,,,,,,,,,,,,,,,,,,,,,,,,,,,,,,,,,,,
,,,,7,2.1424,,,,,,28,cake,melon,,89946,001,2022-04-26_12h13.56.947,SPAMnetsValid,2021.1.4,MacIntel,59.99880002,,,,,,,,,,,,,7,2.1424,0,0,0,54,1,,,,,,,,,,,,,,,,,,,,,,,,,,,,,,,,,,,,,,,,,,,,,,,,,,,,,,,,,,,,,,,,,,,,,,
,,,,6,3.0084,,,,,,2,kitchen,onion,,89946,001,2022-04-26_12h13.56.947,SPAMnetsValid,2021.1.4,MacIntel,59.99880002,,,,,,,,,,,,,6,3.0084,0,1,1,91,1,,,,,,,,,,,,,,,,,,,,,,,,,,,,,,,,,,,,,,,,,,,,,,,,,,,,,,,,,,,,,,,,,,,,,,
,,,,6,0.5281,,,,,,27,cactus,cookie,,89946,001,2022-04-26_12h13.56.947,SPAMnetsValid,2021.1.4,MacIntel,59.99880002,,,,,,,,,,,,,6,0.5281,0,2,2,17,1,,,,,,,,,,,,,,,,,,,,,,,,,,,,,,,,,,,,,,,,,,,,,,,,,,,,,,,,,,,,,,,,,,,,,,
,,,,6,0.4423,,,,,,36,broom,kitchen,,89946,001,2022-04-26_12h13.56.947,SPAMnetsValid,2021.1.4,MacIntel,59.99880002,,,,,,,,,,,,,6,0.4423,0,3,3,76,1,,,,,,,,,,,,,,,,,,,,,,,,,,,,,,,,,,,,,,,,,,,,,,,,,,,,,,,,,,,,,,,,,,,,,,
,,,,6,0.3552,,,,,,29,chocolate,melon,,89946,001,2022-04-26_12h13.56.947,SPAMnetsValid,2021.1.4,MacIntel,59.99880002,,,,,,,,,,,,,6,0.3552,0,4,4,34,1,,,,,,,,,,,,,,,,,,,,,,,,,,,,,,,,,,,,,,,,,,,,,,,,,,,,,,,,,,,,,,,,,,,,,,
,,,,3,1.4315,,,,,,1,rose,yogurt,,89946,001,2022-04-26_12h13.56.947,SPAMnetsValid,2021.1.4,MacIntel,59.99880002,,,,,,,,,,,,,3,1.4315,0,5,5,55,1,,,,,,,,,,,,,,,,,,,,,,,,,,,,,,,,,,,,,,,,,,,,,,,,,,,,,,,,,,,,,,,,,,,,,,
,,,,3,0.513,,,,,,90,cactus,cake,,89946,001,2022-04-26_12h13.56.947,SPAMnetsValid,2021.1.4,MacIntel,59.99880002,,,,,,,,,,,,,3,0.513,0,6,6,85,1,,,,,,,,,,,,,,,,,,,,,,,,,,,,,,,,,,,,,,,,,,,,,,,,,,,,,,,,,,,,,,,,,,,,,,
,,,,7,1.8286,,,,,,44,cookie,melon,,89946,001,2022-04-26_12h13.56.947,SPAMnetsValid,2021.1.4,MacIntel,59.99880002,,,,,,,,,,,,,7,1.8286,0,7,7,92,1,,,,,,,,,,,,,,,,,,,,,,,,,,,,,,,,,,,,,,,,,,,,,,,,,,,,,,,,,,,,,,,,,,,,,,
,,,,7,0.6762,,,,,,72,broom,onion,,89946,001,2022-04-26_12h13.56.947,SPAMnetsValid,2021.1.4,MacIntel,59.99880002,,,,,,,,,,,,,7,0.6762,0,8,8,27,1,,,,,,,,,,,,,,,,,,,,,,,,,,,,,,,,,,,,,,,,,,,,,,,,,,,,,,,,,,,,,,,,,,,,,,
,,,,7,2.3755,,,,,,21,cake,onion,,89946,001,2022-04-26_12h13.56.947,SPAMnetsValid,2021.1.4,MacIntel,59.99880002,,,,,,,,,,,,,7,2.3755,0,9,9,63,1,,,,,,,,,,,,,,,,,,,,,,,,,,,,,,,,,,,,,,,,,,,,,,,,,,,,,,,,,,,,,,,,,,,,,,
,,,,7,0.7978,,,,,,86,oven,rose,,89946,001,2022-04-26_12h13.56.947,SPAMnetsValid,2021.1.4,MacIntel,59.99880002,,,,,,,,,,,,,7,0.7978,0,10,10,79,1,,,,,,,,,,,,,,,,,,,,,,,,,,,,,,,,,,,,,,,,,,,,,,,,,,,,,,,,,,,,,,,,,,,,,,
,,,,7,0.7441,,,,,,91,microwave,rose,,89946,001,2022-04-26_12h13.56.947,SPAMnetsValid,2021.1.4,MacIntel,59.99880002,,,,,,,,,,,,,7,0.7441,0,11,11,84,1,,,,,,,,,,,,,,,,,,,,,,,,,,,,,,,,,,,,,,,,,,,,,,,,,,,,,,,,,,,,,,,,,,,,,,
,,,,7,0.4281,,,,,,9,kitchen,refrigerator,,89946,001,2022-04-26_12h13.56.947,SPAMnetsValid,2021.1.4,MacIntel,59.99880002,,,,,,,,,,,,,7,0.4281,0,12,12,64,1,,,,,,,,,,,,,,,,,,,,,,,,,,,,,,,,,,,,,,,,,,,,,,,,,,,,,,,,,,,,,,,,,,,,,,
,,,,7,0.6924,,,,,,88,cactus,melon,,89946,001,2022-04-26_12h13.56.947,SPAMnetsValid,2021.1.4,MacIntel,59.99880002,,,,,,,,,,,,,7,0.6924,0,13,13,38,1,,,,,,,,,,,,,,,,,,,,,,,,,,,,,,,,,,,,,,,,,,,,,,,,,,,,,,,,,,,,,,,,,,,,,,
,,,,8,1.1956,,,,,,63,cake,cookie,,89946,001,2022-04-26_12h13.56.947,SPAMnetsValid,2021.1.4,MacIntel,59.99880002,,,,,,,,,,,,,8,1.1956,0,14,14,93,1,,,,,,,,,,,,,,,,,,,,,,,,,,,,,,,,,,,,,,,,,,,,,,,,,,,,,,,,,,,,,,,,,,,,,,
,,,,8,0.5441,,,,,,84,oven,tomato,,89946,001,2022-04-26_12h13.56.947,SPAMnetsValid,2021.1.4,MacIntel,59.99880002,,,,,,,,,,,,,8,0.5441,0,15,15,28,1,,,,,,,,,,,,,,,,,,,,,,,,,,,,,,,,,,,,,,,,,,,,,,,,,,,,,,,,,,,,,,,,,,,,,,
,,,,2,0.8945,,,,,,40,broom,cake,,89946,001,2022-04-26_12h13.56.947,SPAMnetsValid,2021.1.4,MacIntel,59.99880002,,,,,,,,,,,,,2,0.8945,0,16,16,32,1,,,,,,,,,,,,,,,,,,,,,,,,,,,,,,,,,,,,,,,,,,,,,,,,,,,,,,,,,,,,,,,,,,,,,,
,,,,9,1.4947,,,,,,3,cake,oven,,89946,001,2022-04-26_12h13.56.947,SPAMnetsValid,2021.1.4,MacIntel,59.99880002,,,,,,,,,,,,,9,1.4947,0,17,17,30,1,,,,,,,,,,,,,,,,,,,,,,,,,,,,,,,,,,,,,,,,,,,,,,,,,,,,,,,,,,,,,,,,,,,,,,
,,,,9,1.3833,,,,,,56,cactus,tree,,89946,001,2022-04-26_12h13.56.947,SPAMnetsValid,2021.1.4,MacIntel,59.99880002,,,,,,,,,,,,,9,1.3833,0,18,18,21,1,,,,,,,,,,,,,,,,,,,,,,,,,,,,,,,,,,,,,,,,,,,,,,,,,,,,,,,,,,,,,,,,,,,,,,
,,,,7,1.5453,,,,,,54,chocolate,yogurt,,89946,001,2022-04-26_12h13.56.947,SPAMnetsValid,2021.1.4,MacIntel,59.99880002,,,,,,,,,,,,,7,1.5453,0,19,19,67,1,,,,,,,,,,,,,,,,,,,,,,,,,,,,,,,,,,,,,,,,,,,,,,,,,,,,,,,,,,,,,,,,,,,,,,
,,,,8,1.5928,,,,,,30,cookie,pretzel,,89946,001,2022-04-26_12h13.56.947,SPAMnetsValid,2021.1.4,MacIntel,59.99880002,,,,,,,,,,,,,8,1.5928,0,20,20,78,1,,,,,,,,,,,,,,,,,,,,,,,,,,,,,,,,,,,,,,,,,,,,,,,,,,,,,,,,,,,,,,,,,,,,,,
,,,,8,0.9437,,,,,,42,garden,kitchen,,89946,001,2022-04-26_12h13.56.947,SPAMnetsValid,2021.1.4,MacIntel,59.99880002,,,,,,,,,,,,,8,0.9437,0,21,21,29,1,,,,,,,,,,,,,,,,,,,,,,,,,,,,,,,,,,,,,,,,,,,,,,,,,,,,,,,,,,,,,,,,,,,,,,
,,,,6,0.6784,,,,,,34,melon,oven,,89946,001,2022-04-26_12h13.56.947,SPAMnetsValid,2021.1.4,MacIntel,59.99880002,,,,,,,,,,,,,6,0.6784,0,22,22,7,1,,,,,,,,,,,,,,,,,,,,,,,,,,,,,,,,,,,,,,,,,,,,,,,,,,,,,,,,,,,,,,,,,,,,,,
,,,,2,1.9594,,,,,,85,cake,tree,,89946,001,2022-04-26_12h13.56.947,SPAMnetsValid,2021.1.4,MacIntel,59.99880002,,,,,,,,,,,,,2,1.9594,0,23,23,18,1,,,,,,,,,,,,,,,,,,,,,,,,,,,,,,,,,,,,,,,,,,,,,,,,,,,,,,,,,,,,,,,,,,,,,,
,,,,2,0.7443,,,,,,41,broom,cactus,,89946,001,2022-04-26_12h13.56.947,SPAMnetsValid,2021.1.4,MacIntel,59.99880002,,,,,,,,,,,,,2,0.7443,0,24,24,46,1,,,,,,,,,,,,,,,,,,,,,,,,,,,,,,,,,,,,,,,,,,,,,,,,,,,,,,,,,,,,,,,,,,,,,,
,,,,3,0.5825,,,,,,20,rose,tree,,89946,001,2022-04-26_12h13.56.947,SPAMnetsValid,2021.1.4,MacIntel,59.99880002,,,,,,,,,,,,,3,0.5825,0,25,25,66,1,,,,,,,,,,,,,,,,,,,,,,,,,,,,,,,,,,,,,,,,,,,,,,,,,,,,,,,,,,,,,,,,,,,,,,
,,,,3,0.679,,,,,,76,garden,rose,,89946,001,2022-04-26_12h13.56.947,SPAMnetsValid,2021.1.4,MacIntel,59.99880002,,,,,,,,,,,,,3,0.679,0,26,26,19,1,,,,,,,,,,,,,,,,,,,,,,,,,,,,,,,,,,,,,,,,,,,,,,,,,,,,,,,,,,,,,,,,,,,,,,
,,,,7,1.676,,,,,,6,garden,onion,,89946,001,2022-04-26_12h13.56.947,SPAMnetsValid,2021.1.4,MacIntel,59.99880002,,,,,,,,,,,,,7,1.676,0,27,27,83,1,,,,,,,,,,,,,,,,,,,,,,,,,,,,,,,,,,,,,,,,,,,,,,,,,,,,,,,,,,,,,,,,,,,,,,
,,,,7,2.1944,,,,,,12,cookie,yogurt,,89946,001,2022-04-26_12h13.56.947,SPAMnetsValid,2021.1.4,MacIntel,59.99880002,,,,,,,,,,,,,7,2.1944,0,28,28,36,1,,,,,,,,,,,,,,,,,,,,,,,,,,,,,,,,,,,,,,,,,,,,,,,,,,,,,,,,,,,,,,,,,,,,,,
,,,,6,2.1603,,,,,,19,microwave,pretzel,,89946,001,2022-04-26_12h13.56.947,SPAMnetsValid,2021.1.4,MacIntel,59.99880002,,,,,,,,,,,,,6,2.1603,0,29,29,41,1,,,,,,,,,,,,,,,,,,,,,,,,,,,,,,,,,,,,,,,,,,,,,,,,,,,,,,,,,,,,,,,,,,,,,,
,,,,8,1.746,,,,,,25,carrot,onion,,89946,001,2022-04-26_12h13.56.947,SPAMnetsValid,2021.1.4,MacIntel,59.99880002,,,,,,,,,,,,,8,1.746,0,30,30,44,1,,,,,,,,,,,,,,,,,,,,,,,,,,,,,,,,,,,,,,,,,,,,,,,,,,,,,,,,,,,,,,,,,,,,,,
,,,,4,2.5267,,,,,,75,cookie,onion,,89946,001,2022-04-26_12h13.56.947,SPAMnetsValid,2021.1.4,MacIntel,59.99880002,,,,,,,,,,,,,4,2.5267,0,31,31,9,1,,,,,,,,,,,,,,,,,,,,,,,,,,,,,,,,,,,,,,,,,,,,,,,,,,,,,,,,,,,,,,,,,,,,,,
,,,,4,0.7096,,,,,,78,cookie,rose,,89946,001,2022-04-26_12h13.56.947,SPAMnetsValid,2021.1.4,MacIntel,59.99880002,,,,,,,,,,,,,4,0.7096,0,32,32,56,1,,,,,,,,,,,,,,,,,,,,,,,,,,,,,,,,,,,,,,,,,,,,,,,,,,,,,,,,,,,,,,,,,,,,,,
,,,,3,1.2302,,,,,,73,broom,chocolate,,89946,001,2022-04-26_12h13.56.947,SPAMnetsValid,2021.1.4,MacIntel,59.99880002,,,,,,,,,,,,,3,1.2302,0,33,33,47,1,,,,,,,,,,,,,,,,,,,,,,,,,,,,,,,,,,,,,,,,,,,,,,,,,,,,,,,,,,,,,,,,,,,,,,
,,,,3,0.8422,,,,,,45,onion,pretzel,,89946,001,2022-04-26_12h13.56.947,SPAMnetsValid,2021.1.4,MacIntel,59.99880002,,,,,,,,,,,,,3,0.8422,0,34,34,69,1,,,,,,,,,,,,,,,,,,,,,,,,,,,,,,,,,,,,,,,,,,,,,,,,,,,,,,,,,,,,,,,,,,,,,,
,,,,4,1.2469,,,,,,14,broom,cookie,,89946,001,2022-04-26_12h13.56.947,SPAMnetsValid,2021.1.4,MacIntel,59.99880002,,,,,,,,,,,,,4,1.2469,0,35,35,16,1,,,,,,,,,,,,,,,,,,,,,,,,,,,,,,,,,,,,,,,,,,,,,,,,,,,,,,,,,,,,,,,,,,,,,,
,,,,9,1.8939,,,,,,94,kitchen,microwave,,89946,001,2022-04-26_12h13.56.947,SPAMnetsValid,2021.1.4,MacIntel,59.99880002,,,,,,,,,,,,,9,1.8939,0,36,36,58,1,,,,,,,,,,,,,,,,,,,,,,,,,,,,,,,,,,,,,,,,,,,,,,,,,,,,,,,,,,,,,,,,,,,,,,
,,,,8,0.7427,,,,,,64,chocolate,garden,,89946,001,2022-04-26_12h13.56.947,SPAMnetsValid,2021.1.4,MacIntel,59.99880002,,,,,,,,,,,,,8,0.7427,0,37,37,14,1,,,,,,,,,,,,,,,,,,,,,,,,,,,,,,,,,,,,,,,,,,,,,,,,,,,,,,,,,,,,,,,,,,,,,,
,,,,7,0.6107,,,,,,59,rose,strawberry,,89946,001,2022-04-26_12h13.56.947,SPAMnetsValid,2021.1.4,MacIntel,59.99880002,,,,,,,,,,,,,7,0.6107,0,38,38,72,1,,,,,,,,,,,,,,,,,,,,,,,,,,,,,,,,,,,,,,,,,,,,,,,,,,,,,,,,,,,,,,,,,,,,,,
,,,,6,0.6112,,,,,,79,garden,strawberry,,89946,001,2022-04-26_12h13.56.947,SPAMnetsValid,2021.1.4,MacIntel,59.99880002,,,,,,,,,,,,,6,0.6112,0,39,39,87,1,,,,,,,,,,,,,,,,,,,,,,,,,,,,,,,,,,,,,,,,,,,,,,,,,,,,,,,,,,,,,,,,,,,,,,
,,,,4,0.5089,,,,,,47,onion,tomato,,89946,001,2022-04-26_12h13.56.947,SPAMnetsValid,2021.1.4,MacIntel,59.99880002,,,,,,,,,,,,,4,0.5089,0,40,40,51,1,,,,,,,,,,,,,,,,,,,,,,,,,,,,,,,,,,,,,,,,,,,,,,,,,,,,,,,,,,,,,,,,,,,,,,
,,,,5,2.0965,,,,,,68,flower,tomato,,89946,001,2022-04-26_12h13.56.947,SPAMnetsValid,2021.1.4,MacIntel,59.99880002,,,,,,,,,,,,,5,2.0965,0,41,41,94,1,,,,,,,,,,,,,,,,,,,,,,,,,,,,,,,,,,,,,,,,,,,,,,,,,,,,,,,,,,,,,,,,,,,,,,
,,,,2,0.5925,,,,,,92,broom,flower,,89946,001,2022-04-26_12h13.56.947,SPAMnetsValid,2021.1.4,MacIntel,59.99880002,,,,,,,,,,,,,2,0.5925,0,42,42,88,1,,,,,,,,,,,,,,,,,,,,,,,,,,,,,,,,,,,,,,,,,,,,,,,,,,,,,,,,,,,,,,,,,,,,,,
,,,,9,1.7645,,,,,,192,microwave,microwave,CHECK,89946,001,2022-04-26_12h13.56.947,SPAMnetsValid,2021.1.4,MacIntel,59.99880002,,,,,,,,,,,,,9,1.7645,0,43,43,53,1,,,,,,,,,,,,,,,,,,,,,,,,,,,,,,,,,,,,,,,,,,,,,,,,,,,,,,,,,,,,,,,,,,,,,,
,,,,2,2.5268,,,,,,80,chocolate,tree,,89946,001,2022-04-26_12h13.56.947,SPAMnetsValid,2021.1.4,MacIntel,59.99880002,,,,,,,,,,,,,2,2.5268,0,44,44,89,1,,,,,,,,,,,,,,,,,,,,,,,,,,,,,,,,,,,,,,,,,,,,,,,,,,,,,,,,,,,,,,,,,,,,,,
,,,,2,0.5474,,,,,,51,onion,strawberry,,89946,001,2022-04-26_12h13.56.947,SPAMnetsValid,2021.1.4,MacIntel,59.99880002,,,,,,,,,,,,,2,0.5474,0,45,45,86,1,,,,,,,,,,,,,,,,,,,,,,,,,,,,,,,,,,,,,,,,,,,,,,,,,,,,,,,,,,,,,,,,,,,,,,
,,,,2,7.2017,,,,,,11,refrigerator,tree,,89946,001,2022-04-26_12h13.56.947,SPAMnetsValid,2021.1.4,MacIntel,59.99880002,,,,,,,,,,,,,2,7.2017,0,46,46,43,1,,,,,,,,,,,,,,,,,,,,,,,,,,,,,,,,,,,,,,,,,,,,,,,,,,,,,,,,,,,,,,,,,,,,,,
,,,,2,0.6586,,,,,,83,broom,carrot,,89946,001,2022-04-26_12h13.56.947,SPAMnetsValid,2021.1.4,MacIntel,59.99880002,,,,,,,,,,,,,2,0.6586,0,47,47,4,1,,,,,,,,,,,,,,,,,,,,,,,,,,,,,,,,,,,,,,,,,,,,,,,,,,,,,,,,,,,,,,,,,,,,,,
,,,,7,1.7617,,,,,,37,garden,refrigerator,,89946,001,2022-04-26_12h13.56.947,SPAMnetsValid,2021.1.4,MacIntel,59.99880002,,,,,,,,,,,,,7,1.7617,0,48,48,11,1,,,,,,,,,,,,,,,,,,,,,,,,,,,,,,,,,,,,,,,,,,,,,,,,,,,,,,,,,,,,,,,,,,,,,,
,,,,7,1.317,,,,,,4,chocolate,pretzel,,89946,001,2022-04-26_12h13.56.947,SPAMnetsValid,2021.1.4,MacIntel,59.99880002,,,,,,,,,,,,,7,1.317,0,49,49,52,1,,,,,,,,,,,,,,,,,,,,,,,,,,,,,,,,,,,,,,,,,,,,,,,,,,,,,,,,,,,,,,,,,,,,,,
,,,,7,0.9171,,,,,,61,strawberry,tomato,,89946,001,2022-04-26_12h13.56.947,SPAMnetsValid,2021.1.4,MacIntel,59.99880002,,,,,,,,,,,,,7,0.9171,0,50,50,80,1,,,,,,,,,,,,,,,,,,,,,,,,,,,,,,,,,,,,,,,,,,,,,,,,,,,,,,,,,,,,,,,,,,,,,,
,,,,8,0.5278,,,,,,93,kitchen,oven,,89946,001,2022-04-26_12h13.56.947,SPAMnetsValid,2021.1.4,MacIntel,59.99880002,,,,,,,,,,,,,8,0.5278,0,51,51,82,1,,,,,,,,,,,,,,,,,,,,,,,,,,,,,,,,,,,,,,,,,,,,,,,,,,,,,,,,,,,,,,,,,,,,,,
,,,,8,0.6935,,,,,,26,tomato,yogurt,,89946,001,2022-04-26_12h13.56.947,SPAMnetsValid,2021.1.4,MacIntel,59.99880002,,,,,,,,,,,,,8,0.6935,0,52,52,13,1,,,,,,,,,,,,,,,,,,,,,,,,,,,,,,,,,,,,,,,,,,,,,,,,,,,,,,,,,,,,,,,,,,,,,,
,,,,6,0.8607,,,,,,48,flower,oven,,89946,001,2022-04-26_12h13.56.947,SPAMnetsValid,2021.1.4,MacIntel,59.99880002,,,,,,,,,,,,,6,0.8607,0,53,53,15,1,,,,,,,,,,,,,,,,,,,,,,,,,,,,,,,,,,,,,,,,,,,,,,,,,,,,,,,,,,,,,,,,,,,,,,
,,,,3,3.0587,,,,,,62,kitchen,rose,,89946,001,2022-04-26_12h13.56.947,SPAMnetsValid,2021.1.4,MacIntel,59.99880002,,,,,,,,,,,,,3,3.0587,0,54,54,57,1,,,,,,,,,,,,,,,,,,,,,,,,,,,,,,,,,,,,,,,,,,,,,,,,,,,,,,,,,,,,,,,,,,,,,,
,,,,4,2.1353,,,,,,70,chocolate,onion,,89946,001,2022-04-26_12h13.56.947,SPAMnetsValid,2021.1.4,MacIntel,59.99880002,,,,,,,,,,,,,4,2.1353,0,55,55,74,1,,,,,,,,,,,,,,,,,,,,,,,,,,,,,,,,,,,,,,,,,,,,,,,,,,,,,,,,,,,,,,,,,,,,,,
,,,,9,1.7947,,,,,,191,cake,cake,CHECK,89946,001,2022-04-26_12h13.56.947,SPAMnetsValid,2021.1.4,MacIntel,59.99880002,,,,,,,,,,,,,9,1.7947,0,56,56,10,1,,,,,,,,,,,,,,,,,,,,,,,,,,,,,,,,,,,,,,,,,,,,,,,,,,,,,,,,,,,,,,,,,,,,,,
,,,,8,1.6454,,,,,,57,flower,kitchen,,89946,001,2022-04-26_12h13.56.947,SPAMnetsValid,2021.1.4,MacIntel,59.99880002,,,,,,,,,,,,,8,1.6454,0,57,57,49,1,,,,,,,,,,,,,,,,,,,,,,,,,,,,,,,,,,,,,,,,,,,,,,,,,,,,,,,,,,,,,,,,,,,,,,
,,,,6,1.2437,,,,,,50,carrot,rose,,89946,001,2022-04-26_12h13.56.947,SPAMnetsValid,2021.1.4,MacIntel,59.99880002,,,,,,,,,,,,,6,1.2437,0,58,58,73,1,,,,,,,,,,,,,,,,,,,,,,,,,,,,,,,,,,,,,,,,,,,,,,,,,,,,,,,,,,,,,,,,,,,,,,
,,,,3,0.5154,,,,,,22,kitchen,strawberry,,89946,001,2022-04-26_12h13.56.947,SPAMnetsValid,2021.1.4,MacIntel,59.99880002,,,,,,,,,,,,,3,0.5154,0,59,59,2,1,,,,,,,,,,,,,,,,,,,,,,,,,,,,,,,,,,,,,,,,,,,,,,,,,,,,,,,,,,,,,,,,,,,,,,
,,,,3,1.2252,,,,,,81,pretzel,yogurt,,89946,001,2022-04-26_12h13.56.947,SPAMnetsValid,2021.1.4,MacIntel,59.99880002,,,,,,,,,,,,,3,1.2252,0,60,60,50,1,,,,,,,,,,,,,,,,,,,,,,,,,,,,,,,,,,,,,,,,,,,,,,,,,,,,,,,,,,,,,,,,,,,,,,
,,,,3,1.3938,,,,,,10,flower,onion,,89946,001,2022-04-26_12h13.56.947,SPAMnetsValid,2021.1.4,MacIntel,59.99880002,,,,,,,,,,,,,3,1.3938,0,61,61,45,1,,,,,,,,,,,,,,,,,,,,,,,,,,,,,,,,,,,,,,,,,,,,,,,,,,,,,,,,,,,,,,,,,,,,,,
,,,,3,0.5611,,,,,,58,garden,oven,,89946,001,2022-04-26_12h13.56.947,SPAMnetsValid,2021.1.4,MacIntel,59.99880002,,,,,,,,,,,,,3,0.5611,0,62,62,37,1,,,,,,,,,,,,,,,,,,,,,,,,,,,,,,,,,,,,,,,,,,,,,,,,,,,,,,,,,,,,,,,,,,,,,,
,,,,7,0.7779,,,,,,31,cactus,pretzel,,89946,001,2022-04-26_12h13.56.947,SPAMnetsValid,2021.1.4,MacIntel,59.99880002,,,,,,,,,,,,,7,0.7779,0,63,63,1,1,,,,,,,,,,,,,,,,,,,,,,,,,,,,,,,,,,,,,,,,,,,,,,,,,,,,,,,,,,,,,,,,,,,,,,
,,,,3,0.3408,,,,,,5,oven,tree,,89946,001,2022-04-26_12h13.56.947,SPAMnetsValid,2021.1.4,MacIntel,59.99880002,,,,,,,,,,,,,3,0.3408,0,64,64,70,1,,,,,,,,,,,,,,,,,,,,,,,,,,,,,,,,,,,,,,,,,,,,,,,,,,,,,,,,,,,,,,,,,,,,,,
,,,,3,0.78,,,,,,65,broom,garden,,89946,001,2022-04-26_12h13.56.947,SPAMnetsValid,2021.1.4,MacIntel,59.99880002,,,,,,,,,,,,,3,0.78,0,65,65,23,1,,,,,,,,,,,,,,,,,,,,,,,,,,,,,,,,,,,,,,,,,,,,,,,,,,,,,,,,,,,,,,,,,,,,,,
,,,,3,0.6115,,,,,,71,broom,rose,,89946,001,2022-04-26_12h13.56.947,SPAMnetsValid,2021.1.4,MacIntel,59.99880002,,,,,,,,,,,,,3,0.6115,0,66,66,61,1,,,,,,,,,,,,,,,,,,,,,,,,,,,,,,,,,,,,,,,,,,,,,,,,,,,,,,,,,,,,,,,,,,,,,,
,,,,2,1.0125,,,,,,67,flower,yogurt,,89946,001,2022-04-26_12h13.56.947,SPAMnetsValid,2021.1.4,MacIntel,59.99880002,,,,,,,,,,,,,2,1.0125,0,67,67,12,1,,,,,,,,,,,,,,,,,,,,,,,,,,,,,,,,,,,,,,,,,,,,,,,,,,,,,,,,,,,,,,,,,,,,,,
,,,,4,0.9273,,,,,,43,chocolate,tomato,,89946,001,2022-04-26_12h13.56.947,SPAMnetsValid,2021.1.4,MacIntel,59.99880002,,,,,,,,,,,,,4,0.9273,0,68,68,8,1,,,,,,,,,,,,,,,,,,,,,,,,,,,,,,,,,,,,,,,,,,,,,,,,,,,,,,,,,,,,,,,,,,,,,,
,,,,4,0.8832,,,,,,38,pretzel,refrigerator,,89946,001,2022-04-26_12h13.56.947,SPAMnetsValid,2021.1.4,MacIntel,59.99880002,,,,,,,,,,,,,4,0.8832,0,69,69,71,1,,,,,,,,,,,,,,,,,,,,,,,,,,,,,,,,,,,,,,,,,,,,,,,,,,,,,,,,,,,,,,,,,,,,,,
,,,,8,1.9064,,,,,,77,refrigerator,yogurt,,89946,001,2022-04-26_12h13.56.947,SPAMnetsValid,2021.1.4,MacIntel,59.99880002,,,,,,,,,,,,,8,1.9064,0,70,70,42,1,,,,,,,,,,,,,,,,,,,,,,,,,,,,,,,,,,,,,,,,,,,,,,,,,,,,,,,,,,,,,,,,,,,,,,
,,,,4,1.3173,,,,,,15,onion,oven,,89946,001,2022-04-26_12h13.56.947,SPAMnetsValid,2021.1.4,MacIntel,59.99880002,,,,,,,,,,,,,4,1.3173,0,71,71,39,1,,,,,,,,,,,,,,,,,,,,,,,,,,,,,,,,,,,,,,,,,,,,,,,,,,,,,,,,,,,,,,,,,,,,,,
,,,,3,0.5513,,,,,,32,cake,microwave,,89946,001,2022-04-26_12h13.56.947,SPAMnetsValid,2021.1.4,MacIntel,59.99880002,,,,,,,,,,,,,3,0.5513,0,72,72,33,1,,,,,,,,,,,,,,,,,,,,,,,,,,,,,,,,,,,,,,,,,,,,,,,,,,,,,,,,,,,,,,,,,,,,,,
,,,,4,0.6666,,,,,,74,broom,pretzel,,89946,001,2022-04-26_12h13.56.947,SPAMnetsValid,2021.1.4,MacIntel,59.99880002,,,,,,,,,,,,,4,0.6666,0,73,73,40,1,,,,,,,,,,,,,,,,,,,,,,,,,,,,,,,,,,,,,,,,,,,,,,,,,,,,,,,,,,,,,,,,,,,,,,
,,,,7,1.4297,,,,,,82,cake,kitchen,,89946,001,2022-04-26_12h13.56.947,SPAMnetsValid,2021.1.4,MacIntel,59.99880002,,,,,,,,,,,,,7,1.4297,0,74,74,96,1,,,,,,,,,,,,,,,,,,,,,,,,,,,,,,,,,,,,,,,,,,,,,,,,,,,,,,,,,,,,,,,,,,,,,,
,,,,7,1.011,,,,,,16,chocolate,flower,,89946,001,2022-04-26_12h13.56.947,SPAMnetsValid,2021.1.4,MacIntel,59.99880002,,,,,,,,,,,,,7,1.011,0,75,75,22,1,,,,,,,,,,,,,,,,,,,,,,,,,,,,,,,,,,,,,,,,,,,,,,,,,,,,,,,,,,,,,,,,,,,,,,
,,,,4,1.6455,,,,,,8,broom,melon,,89946,001,2022-04-26_12h13.56.947,SPAMnetsValid,2021.1.4,MacIntel,59.99880002,,,,,,,,,,,,,4,1.6455,0,76,76,59,1,,,,,,,,,,,,,,,,,,,,,,,,,,,,,,,,,,,,,,,,,,,,,,,,,,,,,,,,,,,,,,,,,,,,,,
,,,,7,1.4114,,,,,,95,broom,refrigerator,,89946,001,2022-04-26_12h13.56.947,SPAMnetsValid,2021.1.4,MacIntel,59.99880002,,,,,,,,,,,,,7,1.4114,0,77,77,90,1,,,,,,,,,,,,,,,,,,,,,,,,,,,,,,,,,,,,,,,,,,,,,,,,,,,,,,,,,,,,,,,,,,,,,,
,,,,4,1.8105,,,,,,23,flower,microwave,,89946,001,2022-04-26_12h13.56.947,SPAMnetsValid,2021.1.4,MacIntel,59.99880002,,,,,,,,,,,,,4,1.8105,0,78,78,25,1,,,,,,,,,,,,,,,,,,,,,,,,,,,,,,,,,,,,,,,,,,,,,,,,,,,,,,,,,,,,,,,,,,,,,,
,,,,3,0.6277,,,,,,52,carrot,tomato,,89946,001,2022-04-26_12h13.56.947,SPAMnetsValid,2021.1.4,MacIntel,59.99880002,,,,,,,,,,,,,3,0.6277,0,79,79,95,1,,,,,,,,,,,,,,,,,,,,,,,,,,,,,,,,,,,,,,,,,,,,,,,,,,,,,,,,,,,,,,,,,,,,,,
,,,,4,1.2438,,,,,,39,melon,pretzel,,89946,001,2022-04-26_12h13.56.947,SPAMnetsValid,2021.1.4,MacIntel,59.99880002,,,,,,,,,,,,,4,1.2438,0,80,80,20,1,,,,,,,,,,,,,,,,,,,,,,,,,,,,,,,,,,,,,,,,,,,,,,,,,,,,,,,,,,,,,,,,,,,,,,
,,,,3,0.6134,,,,,,53,garden,pretzel,,89946,001,2022-04-26_12h13.56.947,SPAMnetsValid,2021.1.4,MacIntel,59.99880002,,,,,,,,,,,,,3,0.6134,0,81,81,0,1,,,,,,,,,,,,,,,,,,,,,,,,,,,,,,,,,,,,,,,,,,,,,,,,,,,,,,,,,,,,,,,,,,,,,,
,,,,5,0.8757,,,,,,13,broom,yogurt,,89946,001,2022-04-26_12h13.56.947,SPAMnetsValid,2021.1.4,MacIntel,59.99880002,,,,,,,,,,,,,5,0.8757,0,82,82,5,1,,,,,,,,,,,,,,,,,,,,,,,,,,,,,,,,,,,,,,,,,,,,,,,,,,,,,,,,,,,,,,,,,,,,,,
,,,,7,1.9617,,,,,,18,onion,refrigerator,,89946,001,2022-04-26_12h13.56.947,SPAMnetsValid,2021.1.4,MacIntel,59.99880002,,,,,,,,,,,,,7,1.9617,0,83,83,62,1,,,,,,,,,,,,,,,,,,,,,,,,,,,,,,,,,,,,,,,,,,,,,,,,,,,,,,,,,,,,,,,,,,,,,,
,,,,6,0.8956,,,,,,33,oven,yogurt,,89946,001,2022-04-26_12h13.56.947,SPAMnetsValid,2021.1.4,MacIntel,59.99880002,,,,,,,,,,,,,6,0.8956,0,84,84,31,1,,,,,,,,,,,,,,,,,,,,,,,,,,,,,,,,,,,,,,,,,,,,,,,,,,,,,,,,,,,,,,,,,,,,,,
,,,,4,0.4924,,,,,,55,tomato,tree,,89946,001,2022-04-26_12h13.56.947,SPAMnetsValid,2021.1.4,MacIntel,59.99880002,,,,,,,,,,,,,4,0.4924,0,85,85,35,1,,,,,,,,,,,,,,,,,,,,,,,,,,,,,,,,,,,,,,,,,,,,,,,,,,,,,,,,,,,,,,,,,,,,,,
,,,,4,0.6158,,,,,,24,cookie,tomato,,89946,001,2022-04-26_12h13.56.947,SPAMnetsValid,2021.1.4,MacIntel,59.99880002,,,,,,,,,,,,,4,0.6158,0,86,86,68,1,,,,,,,,,,,,,,,,,,,,,,,,,,,,,,,,,,,,,,,,,,,,,,,,,,,,,,,,,,,,,,,,,,,,,,
,,,,4,0.4795,,,,,,69,carrot,refrigerator,,89946,001,2022-04-26_12h13.56.947,SPAMnetsValid,2021.1.4,MacIntel,59.99880002,,,,,,,,,,,,,4,0.4795,0,87,87,75,1,,,,,,,,,,,,,,,,,,,,,,,,,,,,,,,,,,,,,,,,,,,,,,,,,,,,,,,,,,,,,,,,,,,,,,
,,,,4,0.4613,,,,,,60,cactus,onion,,89946,001,2022-04-26_12h13.56.947,SPAMnetsValid,2021.1.4,MacIntel,59.99880002,,,,,,,,,,,,,4,0.4613,0,88,88,81,1,,,,,,,,,,,,,,,,,,,,,,,,,,,,,,,,,,,,,,,,,,,,,,,,,,,,,,,,,,,,,,,,,,,,,,
,,,,4,0.4271,,,,,,7,melon,tree,,89946,001,2022-04-26_12h13.56.947,SPAMnetsValid,2021.1.4,MacIntel,59.99880002,,,,,,,,,,,,,4,0.4271,0,89,89,77,1,,,,,,,,,,,,,,,,,,,,,,,,,,,,,,,,,,,,,,,,,,,,,,,,,,,,,,,,,,,,,,,,,,,,,,
,,,,4,1.4791,,,,,,46,garden,yogurt,,89946,001,2022-04-26_12h13.56.947,SPAMnetsValid,2021.1.4,MacIntel,59.99880002,,,,,,,,,,,,,4,1.4791,0,90,90,65,1,,,,,,,,,,,,,,,,,,,,,,,,,,,,,,,,,,,,,,,,,,,,,,,,,,,,,,,,,,,,,,,,,,,,,,
,,,,3,1.2618,,,,,,87,carrot,yogurt,,89946,001,2022-04-26_12h13.56.947,SPAMnetsValid,2021.1.4,MacIntel,59.99880002,,,,,,,,,,,,,3,1.2618,0,91,91,6,1,,,,,,,,,,,,,,,,,,,,,,,,,,,,,,,,,,,,,,,,,,,,,,,,,,,,,,,,,,,,,,,,,,,,,,
,,,,4,0.9609,,,,,,49,flower,strawberry,,89946,001,2022-04-26_12h13.56.947,SPAMnetsValid,2021.1.4,MacIntel,59.99880002,,,,,,,,,,,,,4,0.9609,0,92,92,3,1,,,,,,,,,,,,,,,,,,,,,,,,,,,,,,,,,,,,,,,,,,,,,,,,,,,,,,,,,,,,,,,,,,,,,,
,,,,6,1.3606,,,,,,17,carrot,melon,,89946,001,2022-04-26_12h13.56.947,SPAMnetsValid,2021.1.4,MacIntel,59.99880002,,,,,,,,,,,,,6,1.3606,0,93,93,24,1,,,,,,,,,,,,,,,,,,,,,,,,,,,,,,,,,,,,,,,,,,,,,,,,,,,,,,,,,,,,,,,,,,,,,,
,,,,4,2.3369,,,,,,35,flower,pretzel,,89946,001,2022-04-26_12h13.56.947,SPAMnetsValid,2021.1.4,MacIntel,59.99880002,,,,,,,,,,,,,4,2.3369,0,94,94,26,1,,,,,,,,,,,,,,,,,,,,,,,,,,,,,,,,,,,,,,,,,,,,,,,,,,,,,,,,,,,,,,,,,,,,,,
,,,,6,2.0624,,,,,,89,chocolate,rose,,89946,001,2022-04-26_12h13.56.947,SPAMnetsValid,2021.1.4,MacIntel,59.99880002,,,,,,,,,,,,,6,2.0624,0,95,95,60,1,,,,,,,,,,,,,,,,,,,,,,,,,,,,,,,,,,,,,,,,,,,,,,,,,,,,,,,,,,,,,,,,,,,,,,
,,,,7,40.6988,,,,,,66,melon,yogurt,,89946,001,2022-04-26_12h13.56.947,SPAMnetsValid,2021.1.4,MacIntel,59.99880002,,,,,,,,,,,,,7,40.6988,0,96,96,48,1,,,,,,,,,,,,,,,,,,,,,,,,,,,,,,,,,,,,,,,,,,,,,,,,,,,,,,,,,,,,,,,,,,,,,,
,,,,,,,,,,,,,,,89946,001,2022-04-26_12h13.56.947,SPAMnetsValid,2021.1.4,MacIntel,59.99880002,,,,,,,,,,,,,,,,,,,,0,0,0,0,1,,,,,,,,,,,,,,,,,,,,,,,,,,,,,,,,,,,,,,,,,,,,,,,,,,,,,,,,,,,,,,,,,
,,,,,,,,,,,,,,,89946,001,2022-04-26_12h13.56.947,SPAMnetsValid,2021.1.4,MacIntel,59.99880002,,,,,,0,1,1,0,1,1,0,,,,,,,,,,,,,,,,,,,,,,,,,,,,,,,,,,,,,,,,,,,,,,,,,,,,,,,,,,,,,,,,,,,,,,,,,,,,,
,,,,,,,,,,,,,,,89946,001,2022-04-26_12h13.56.947,SPAMnetsValid,2021.1.4,MacIntel,59.99880002,,,,,,,,,,,,,,,,,,,,,,,,,4,4.0925,0,0,0,0,1,rancor,forbearance,ridicule,malice,bravery,3,,,,,,,,,,,,,,,,,,,,,,,,,,,,,,,,,,,,,,,,,,,,,,,,,,,,
,,,,,,,,,,,,,,,89946,001,2022-04-26_12h13.56.947,SPAMnetsValid,2021.1.4,MacIntel,59.99880002,,,,,,,,,,,,,,,,,,,,,,,,,4,8.0464,0,1,1,1,1,raucous,empty,quiet,smooth,harsh,4,,,,,,,,,,,,,,,,,,,,,,,,,,,,,,,,,,,,,,,,,,,,,,,,,,,,
,,,,,,,,,,,,,,,89946,001,2022-04-26_12h13.56.947,SPAMnetsValid,2021.1.4,MacIntel,59.99880002,,,,,,,,,,,,,,,,,,,,,,,,,4,2.9767,0,2,2,2,1,gargoyle,oil,medicine,carved waterspout,ugly building,3,,,,,,,,,,,,,,,,,,,,,,,,,,,,,,,,,,,,,,,,,,,,,,,,,,,,
,,,,,,,,,,,,,,,89946,001,2022-04-26_12h13.56.947,SPAMnetsValid,2021.1.4,MacIntel,59.99880002,,,,,,,,,,,,,,,,,,,,,,,,,3,3.396,0,3,3,3,1,recrudesce,purify,renew activity,lack refinement,crush,2,,,,,,,,,,,,,,,,,,,,,,,,,,,,,,,,,,,,,,,,,,,,,,,,,,,,
,,,,,,,,,,,,,,,89946,001,2022-04-26_12h13.56.947,SPAMnetsValid,2021.1.4,MacIntel,59.99880002,,,,,,,,,,,,,,,,,,,,,,,,,3,4.3285,0,4,4,4,1,specious,"plausible, but not genuine",noteworthy,class or variety,roomy,1,,,,,,,,,,,,,,,,,,,,,,,,,,,,,,,,,,,,,,,,,,,,,,,,,,,,
,,,,,,,,,,,,,,,89946,001,2022-04-26_12h13.56.947,SPAMnetsValid,2021.1.4,MacIntel,59.99880002,,,,,,,,,,,,,,,,,,,,,,,,,2,3.4281,0,5,5,5,1,bauble,bubble,showy plaything,idle talk,confusion,2,,,,,,,,,,,,,,,,,,,,,,,,,,,,,,,,,,,,,,,,,,,,,,,,,,,,
,,,,,,,,,,,,,,,89946,001,2022-04-26_12h13.56.947,SPAMnetsValid,2021.1.4,MacIntel,59.99880002,,,,,,,,,,,,,,,,,,,,,,,,,2,5.4646,0,6,6,6,1,prolific,scarce,producing abundantly,reckless,speaking profanely,2,,,,,,,,,,,,,,,,,,,,,,,,,,,,,,,,,,,,,,,,,,,,,,,,,,,,
,,,,,,,,,,,,,,,89946,001,2022-04-26_12h13.56.947,SPAMnetsValid,2021.1.4,MacIntel,59.99880002,,,,,,,,,,,,,,,,,,,,,,,,,3,2.7991,0,7,7,7,1,opulent,party,wealthy,happy frame of mind,semiprecious stone,2,,,,,,,,,,,,,,,,,,,,,,,,,,,,,,,,,,,,,,,,,,,,,,,,,,,,
,,,,,,,,,,,,,,,89946,001,2022-04-26_12h13.56.947,SPAMnetsValid,2021.1.4,MacIntel,59.99880002,,,,,,,,,,,,,,,,,,,,,,,,,2,2.5974,0,8,8,8,1,coercion,conspiracy,strategy,restraint,attraction,3,,,,,,,,,,,,,,,,,,,,,,,,,,,,,,,,,,,,,,,,,,,,,,,,,,,,
,,,,,,,,,,,,,,,89946,001,2022-04-26_12h13.56.947,SPAMnetsValid,2021.1.4,MacIntel,59.99880002,,,,,,,,,,,,,,,,,,,,,,,,,4,3.5121,0,9,9,9,1,hiatus,animal,calamity,dread,gap,4,,,,,,,,,,,,,,,,,,,,,,,,,,,,,,,,,,,,,,,,,,,,,,,,,,,,
,,,,,,,,,,,,,,,89946,001,2022-04-26_12h13.56.947,SPAMnetsValid,2021.1.4,MacIntel,59.99880002,,,,,,,,,,,,,,,,,,,,,,,,,1,3.3488,0,10,10,10,1,germane,microbe,contagious,relevant,different,3,,,,,,,,,,,,,,,,,,,,,,,,,,,,,,,,,,,,,,,,,,,,,,,,,,,,
,,,,,,,,,,,,,,,89946,001,2022-04-26_12h13.56.947,SPAMnetsValid,2021.1.4,MacIntel,59.99880002,,,,,,,,,,,,,,,,,,,,,,,,,1,5.0267,0,11,11,11,1,perfunctory,fundamental,formal,superficial,careful,3,,,,,,,,,,,,,,,,,,,,,,,,,,,,,,,,,,,,,,,,,,,,,,,,,,,,
,,,,,,,,,,,,,,,89946,001,2022-04-26_12h13.56.947,SPAMnetsValid,2021.1.4,MacIntel,59.99880002,,,,,,,,,,,,,,,,,,,,,,,,,,,0,12,12,12,1,diverge,reveal,chant,distract the attention of,differ or turn off from,4,,,,,,,,,,,,,,,,,,,,,,,,,,,,,,,,,,,,,,,,,,,,,,,,,,,,
,,,,,,,,,,,,,,,89946,001,2022-04-26_12h13.56.947,SPAMnetsValid,2021.1.4,MacIntel,59.99880002,,,,,,,,,,,,,,,,,,,,,,,,,4,3.8389,0,13,13,13,1,evoke,take away,anger,connect,bring out,4,,,,,,,,,,,,,,,,,,,,,,,,,,,,,,,,,,,,,,,,,,,,,,,,,,,,
,,,,,,,,,,,,,,,89946,001,2022-04-26_12h13.56.947,SPAMnetsValid,2021.1.4,MacIntel,59.99880002,,,,,,,,,,,,,,,,,,,,,,,,,1,4.1717,0,14,14,14,1,pertinent,relevant,lying next to,necessary,bold,1,,,,,,,,,,,,,,,,,,,,,,,,,,,,,,,,,,,,,,,,,,,,,,,,,,,,
,,,,,,,,,,,,,,,89946,001,2022-04-26_12h13.56.947,SPAMnetsValid,2021.1.4,MacIntel,59.99880002,,,,,,,,,,,,,,,,,,,,,,,,,2,2.8595,0,15,15,15,1,holocaust,entirety,destruction,saintly,price,2,,,,,,,,,,,,,,,,,,,,,,,,,,,,,,,,,,,,,,,,,,,,,,,,,,,,
,,,,,,,,,,,,,,,89946,001,2022-04-26_12h13.56.947,SPAMnetsValid,2021.1.4,MacIntel,59.99880002,,,,,,,,,,,,,,,,,,,,,,,,,3,2.5117,0,16,16,16,1,piquant,mellow,fish,pungent,cloth,3,,,,,,,,,,,,,,,,,,,,,,,,,,,,,,,,,,,,,,,,,,,,,,,,,,,,
,,,,,,,,,,,,,,,89946,001,2022-04-26_12h13.56.947,SPAMnetsValid,2021.1.4,MacIntel,59.99880002,,,,,,,,,,,,,,,,,,,,,,,,,3,2.3294,0,17,17,17,1,firmament,foundation,heavens,strong,glue,2,,,,,,,,,,,,,,,,,,,,,,,,,,,,,,,,,,,,,,,,,,,,,,,,,,,,
,,,,,,,,,,,,,,,89946,001,2022-04-26_12h13.56.947,SPAMnetsValid,2021.1.4,MacIntel,59.99880002,,,,,,,,,,,,,,,,,,,,,,,,,,,,,,,,,,,,,,4,2.0114,0,0,0,0,1,marketable,partisan,jocular,marriageable,salable,essential,4,,,,,,,,,,,,,,,,,,,,,,,,,,,,,,,,,,,,,,
,,,,,,,,,,,,,,,89946,001,2022-04-26_12h13.56.947,SPAMnetsValid,2021.1.4,MacIntel,59.99880002,,,,,,,,,,,,,,,,,,,,,,,,,,,,,,,,,,,,,,5,2.5796,0,1,1,1,1,cottontail,squirrel,poplar,boa,marshy plant,rabbit,5,,,,,,,,,,,,,,,,,,,,,,,,,,,,,,,,,,,,,,
,,,,,,,,,,,,,,,89946,001,2022-04-26_12h13.56.947,SPAMnetsValid,2021.1.4,MacIntel,59.99880002,,,,,,,,,,,,,,,,,,,,,,,,,,,,,,,,,,,,,,4,1.9457,0,2,2,2,1,boggy,afraid,false,marshy,dense,black,3,,,,,,,,,,,,,,,,,,,,,,,,,,,,,,,,,,,,,,
,,,,,,,,,,,,,,,89946,001,2022-04-26_12h13.56.947,SPAMnetsValid,2021.1.4,MacIntel,59.99880002,,,,,,,,,,,,,,,,,,,,,,,,,,,,,,,,,,,,,,5,3.4306,0,3,3,3,1,gruesomeness,blackness,falseness,vindictiveness,drunkenness,ghastliness,5,,,,,,,,,,,,,,,,,,,,,,,,,,,,,,,,,,,,,,
,,,,,,,,,,,,,,,89946,001,2022-04-26_12h13.56.947,SPAMnetsValid,2021.1.4,MacIntel,59.99880002,,,,,,,,,,,,,,,,,,,,,,,,,,,,,,,,,,,,,,3,4.2114,0,4,4,4,1,loathing,diffidence,laziness,abhorrence,cleverness,comfort,3,,,,,,,,,,,,,,,,,,,,,,,,,,,,,,,,,,,,,,
,,,,,,,,,,,,,,,89946,001,2022-04-26_12h13.56.947,SPAMnetsValid,2021.1.4,MacIntel,59.99880002,,,,,,,,,,,,,,,,,,,,,,,,,,,,,,,,,,,,,,2,4.8115,0,5,5,5,1,bantam,fowl,ridicule,cripple,vegetable,ensign,1,,,,,,,,,,,,,,,,,,,,,,,,,,,,,,,,,,,,,,
,,,,,,,,,,,,,,,89946,001,2022-04-26_12h13.56.947,SPAMnetsValid,2021.1.4,MacIntel,59.99880002,,,,,,,,,,,,,,,,,,,,,,,,,,,,,,,,,,,,,,5,2.8951,0,6,6,6,1,evoke,wake up,surrender,reconnoiter,transcend,call forth,5,,,,,,,,,,,,,,,,,,,,,,,,,,,,,,,,,,,,,,
,,,,,,,,,,,,,,,89946,001,2022-04-26_12h13.56.947,SPAMnetsValid,2021.1.4,MacIntel,59.99880002,,,,,,,,,,,,,,,,,,,,,,,,,,,,,,,,,,,,,,5,2.2966,0,7,7,7,1,unobtrusive,unintelligent,epileptic,illogical,lineal,modest,5,,,,,,,,,,,,,,,,,,,,,,,,,,,,,,,,,,,,,,
,,,,,,,,,,,,,,,89946,001,2022-04-26_12h13.56.947,SPAMnetsValid,2021.1.4,MacIntel,59.99880002,,,,,,,,,,,,,,,,,,,,,,,,,,,,,,,,,,,,,,4,2.4644,0,8,8,8,1,terrain,ice cream,final test,tractor,area of ground,weight,4,,,,,,,,,,,,,,,,,,,,,,,,,,,,,,,,,,,,,,
,,,,,,,,,,,,,,,89946,001,2022-04-26_12h13.56.947,SPAMnetsValid,2021.1.4,MacIntel,59.99880002,,,,,,,,,,,,,,,,,,,,,,,,,,,,,,,,,,,,,,5,3.4537,0,9,9,9,1,capriciousness,stubbornness,courage,whimsicality,amazement,greediness,3,,,,,,,,,,,,,,,,,,,,,,,,,,,,,,,,,,,,,,
,,,,,,,,,,,,,,,89946,001,2022-04-26_12h13.56.947,SPAMnetsValid,2021.1.4,MacIntel,59.99880002,,,,,,,,,,,,,,,,,,,,,,,,,,,,,,,,,,,,,,1,5.0619,0,10,10,10,1,maelstrom,slander,whirlpool,enmity,armor,majolica,2,,,,,,,,,,,,,,,,,,,,,,,,,,,,,,,,,,,,,,
,,,,,,,,,,,,,,,89946,001,2022-04-26_12h13.56.947,SPAMnetsValid,2021.1.4,MacIntel,59.99880002,,,,,,,,,,,,,,,,,,,,,,,,,,,,,,,,,,,,,,5,24.0648,0,11,11,11,1,tentative,critical,conclusive,authentic,provisional,apprehensive,4,,,,,,,,,,,,,,,,,,,,,,,,,,,,,,,,,,,,,,
,,,,,,,,,,,,,,,89946,001,2022-04-26_12h13.56.947,SPAMnetsValid,2021.1.4,MacIntel,59.99880002,,,,,,,,,,,,,,,,,,,,,,,,,,,,,,,,,,,,,,5,8.6829,0,12,12,12,1,placate,rehabilitate,plagiarize,depredate,apprise,conciliate,5,,,,,,,,,,,,,,,,,,,,,,,,,,,,,,,,,,,,,,
,,,,,,,,,,,,,,,89946,001,2022-04-26_12h13.56.947,SPAMnetsValid,2021.1.4,MacIntel,59.99880002,,,,,,,,,,,,,,,,,,,,,,,,,,,,,,,,,,,,,,2,4.1141,0,13,13,13,1,surcease,enlightenment,cessation,inattention,censor,substitution,2,,,,,,,,,,,,,,,,,,,,,,,,,,,,,,,,,,,,,,
,,,,,,,,,,,,,,,89946,001,2022-04-26_12h13.56.947,SPAMnetsValid,2021.1.4,MacIntel,59.99880002,,,,,,,,,,,,,,,,,,,,,,,,,,,,,,,,,,,,,,2,4.9482,0,14,14,14,1,apathetic,wandering,impassive,hateful,prophetic,overflowing,2,,,,,,,,,,,,,,,,,,,,,,,,,,,,,,,,,,,,,,
,,,,,,,,,,,,,,,89946,001,2022-04-26_12h13.56.947,SPAMnetsValid,2021.1.4,MacIntel,59.99880002,,,,,,,,,,,,,,,,,,,,,,,,,,,,,,,,,,,,,,1,4.95,0,15,15,15,1,paternoster,paternalism,patricide,malediction,benediction,prayer,5,,,,,,,,,,,,,,,,,,,,,,,,,,,,,,,,,,,,,,
,,,,,,,,,,,,,,,89946,001,2022-04-26_12h13.56.947,SPAMnetsValid,2021.1.4,MacIntel,59.99880002,,,,,,,,,,,,,,,,,,,,,,,,,,,,,,,,,,,,,,1,1.7789,0,16,16,16,1,opalescence,opulence,senescence,bankruptcy,iridescence,assiduity,4,,,,,,,,,,,,,,,,,,,,,,,,,,,,,,,,,,,,,,
,,,,,,,,,,,,,,,89946,001,2022-04-26_12h13.56.947,SPAMnetsValid,2021.1.4,MacIntel,59.99880002,,,,,,,,,,,,,,,,,,,,,,,,,,,,,,,,,,,,,,2,4.0468,0,17,17,17,1,lush,stupid,luxurious,hazy,putrid,languishing,2,,,,,,,,,,,,,,,,,,,,,,,,,,,,,,,,,,,,,,
,,,,,,,,,,,,,,,89946,001,2022-04-26_12h13.56.947,SPAMnetsValid,2021.1.4,MacIntel,59.99880002,,,,,,,,,,,,,,,,,,,,,,,,,,,,,,,,,,,,,,3,4.2297,0,18,18,18,1,curtailment,expenditure,abandonment,abridgment,improvement,forgery,3,,,,,,,,,,,,,,,,,,,,,,,,,,,,,,,,,,,,,,
,,,,,,,,,,,,,,,89946,001,2022-04-26_12h13.56.947,SPAMnetsValid,2021.1.4,MacIntel,59.99880002,,,,,,,,,,,,,,,,,,,,,,,,,,,,,,,,,,,,,,3,3.8629,0,19,19,19,1,perversity,adversity,perviousness,travesty,waywardness,gentility,4,,,,,,,,,,,,,,,,,,,,,,,,,,,,,,,,,,,,,,
,,,,,,,,,,,,,,,89946,001,2022-04-26_12h13.56.947,SPAMnetsValid,2021.1.4,MacIntel,59.99880002,,,,,,,,,,,,,,,,,,,,,,,,,,,,,,,,,,,,,,3,5.2959,0,20,20,20,1,calumnious,complimentary,analogous,slanderous,tempestuous,magnanimous,3,,,,,,,,,,,,,,,,,,,,,,,,,,,,,,,,,,,,,,
,,,,,,,,,,,,,,,89946,001,2022-04-26_12h13.56.947,SPAMnetsValid,2021.1.4,MacIntel,59.99880002,,,,,,,,,,,,,,,,,,,,,,,,,,,,,,,,,,,,,,2,4.3758,0,21,21,21,1,illiberality,bigotry,imbecility,illegibility,cautery,immaturity,1,,,,,,,,,,,,,,,,,,,,,,,,,,,,,,,,,,,,,,
,,,,,,,,,,,,,,,89946,001,2022-04-26_12h13.56.947,SPAMnetsValid,2021.1.4,MacIntel,59.99880002,,,,,,,,,,,,,,,,,,,,,,,,,,,,,,,,,,,,,,2,1.9267,0,22,22,22,1,clabber,rejoice,gossip,curdle,crow,hobble,3,,,,,,,,,,,,,,,,,,,,,,,,,,,,,,,,,,,,,,
,,,,,,,,,,,,,,,89946,001,2022-04-26_12h13.56.947,SPAMnetsValid,2021.1.4,MacIntel,59.99880002,,,,,,,,,,,,,,,,,,,,,,,,,,,,,,,,,,,,,,1,7.8126,0,23,23,23,1,sedulousness,diligence,credulousness,seduction,perilousness,frankness,1,,,,,,,,,,,,,,,,,,,,,,,,,,,,,,,,,,,,,,
,,,,,,,,,,,,,,,89946,001,2022-04-26_12h13.56.947,SPAMnetsValid,2021.1.4,MacIntel,59.99880002,,,,,,,,,,,,,,,,,,,,,,,,,,,,,,,,,,,,,,,,,,,,,,,,,,,,hat,bucket,0,0,0,0,1,,,,,,,,,,,,,,,,,,,,,,,,,,,,,,,
,,,,,,,,,,,,,,,89946,001,2022-04-26_12h13.56.947,SPAMnetsValid,2021.1.4,MacIntel,59.99880002,,,,,,,,,,,,,,,,,,,,,,,,,,,,,,,,,,,,,,,,,,,,,,,,,,,,carry water,bucket,1,0,1,0,1,,,,,,,,,,,,,,,,,,,,,,,,,,,,,,,
,,,,,,,,,,,,,,,89946,001,2022-04-26_12h13.56.947,SPAMnetsValid,2021.1.4,MacIntel,59.99880002,,,,,,,,,,,,,,,,,,,,,,,,,,,,,,,,,,,,,,,,,,,,,,,,,,,,carry sand,bucket,2,0,2,0,1,,,,,,,,,,,,,,,,,,,,,,,,,,,,,,,
,,,,,,,,,,,,,,,89946,001,2022-04-26_12h13.56.947,SPAMnetsValid,2021.1.4,MacIntel,59.99880002,,,,,,,,,,,,,,,,,,,,,,,,,,,,,,,,,,,,,,,,,,,,,,,,,,,,make a sand castle,bucket,3,0,3,0,1,,,,,,,,,,,,,,,,,,,,,,,,,,,,,,,
,,,,,,,,,,,,,,,89946,001,2022-04-26_12h13.56.947,SPAMnetsValid,2021.1.4,MacIntel,59.99880002,,,,,,,,,,,,,,,,,,,,,,,,,,,,,,,,,,,,,,,,,,,,,,,,,,,,use as a bowl ,bucket,4,0,4,0,1,,,,,,,,,,,,,,,,,,,,,,,,,,,,,,,
,,,,,,,,,,,,,,,89946,001,2022-04-26_12h13.56.947,SPAMnetsValid,2021.1.4,MacIntel,59.99880002,,,,,,,,,,,,,,,,,,,,,,,,,,,,,,,,,,,,,,,,,,,,,,,,,,,,collect snow,bucket,5,0,5,0,1,,,,,,,,,,,,,,,,,,,,,,,,,,,,,,,
,,,,,,,,,,,,,,,89946,001,2022-04-26_12h13.56.947,SPAMnetsValid,2021.1.4,MacIntel,59.99880002,,,,,,,,,,,,,,,,,,,,,,,,,,,,,,,,,,,,,,,,,,,,,,,,,,,,collect water,bucket,6,0,6,0,1,,,,,,,,,,,,,,,,,,,,,,,,,,,,,,,
,,,,,,,,,,,,,,,89946,001,2022-04-26_12h13.56.947,SPAMnetsValid,2021.1.4,MacIntel,59.99880002,,,,,,,,,,,,,,,,,,,,,,,,,,,,,,,,,,,,,,,,,,,,,,,,,,,,collect fish ,bucket,7,0,7,0,1,,,,,,,,,,,,,,,,,,,,,,,,,,,,,,,
,,,,,,,,,,,,,,,89946,001,2022-04-26_12h13.56.947,SPAMnetsValid,2021.1.4,MacIntel,59.99880002,,,,,,,,,,,,,,,,,,,,,,,,,,,,,,,,,,,,,,,,,,,,,,,,,,,,make a foot bath,bucket,8,0,8,0,1,,,,,,,,,,,,,,,,,,,,,,,,,,,,,,,
,,,,,,,,,,,,,,,89946,001,2022-04-26_12h13.56.947,SPAMnetsValid,2021.1.4,MacIntel,59.99880002,,,,,,,,,,,,,,,,,,,,,,,,,,,,,,,,,,,,,,,,,,,,,,,,,,,,stand on top of,bucket,9,0,9,0,1,,,,,,,,,,,,,,,,,,,,,,,,,,,,,,,
,,,,,,,,,,,,,,,89946,001,2022-04-26_12h13.56.947,SPAMnetsValid,2021.1.4,MacIntel,59.99880002,,,,,,,,,,,,,,,,,,,,,,,,,,,,,,,,,,,,,,,,,,,,,,,,,,,,use  as a stool,bucket,10,0,10,0,1,,,,,,,,,,,,,,,,,,,,,,,,,,,,,,,
,,,,,,,,,,,,,,,89946,001,2022-04-26_12h13.56.947,SPAMnetsValid,2021.1.4,MacIntel,59.99880002,,,,,,,,,,,,,,,,,,,,,,,,,,,,,,,,,,,,,,,,,,,,,,,,,,,,use as a rolling ball sideways,bucket,11,0,11,0,1,,,,,,,,,,,,,,,,,,,,,,,,,,,,,,,
,,,,,,,,,,,,,,,89946,001,2022-04-26_12h13.56.947,SPAMnetsValid,2021.1.4,MacIntel,59.99880002,,,,,,,,,,,,,,,,,,,,,,,,,,,,,,,,,,,,,,,,,,,,,,,,,,,,use as a resuable shopping bag,bucket,12,0,12,0,1,,,,,,,,,,,,,,,,,,,,,,,,,,,,,,,
,,,,,,,,,,,,,,,89946,001,2022-04-26_12h13.56.947,SPAMnetsValid,2021.1.4,MacIntel,59.99880002,,,,,,,,,,,,,,,,,,,,,,,,,,,,,,,,,,,,,,,,,,,,,,,,,,,,collect flowers in it ,bucket,13,0,13,0,1,,,,,,,,,,,,,,,,,,,,,,,,,,,,,,,
,,,,,,,,,,,,,,,89946,001,2022-04-26_12h13.56.947,SPAMnetsValid,2021.1.4,MacIntel,59.99880002,,,,,,,,,,,,,,,,,,,,,,,,,,,,,,,,,,,,,,,,,,,,,,,,,,,,collect hermit crabs at the beach,bucket,14,0,14,0,1,,,,,,,,,,,,,,,,,,,,,,,,,,,,,,,
,,,,,,,,,,,,,,,89946,001,2022-04-26_12h13.56.947,SPAMnetsValid,2021.1.4,MacIntel,59.99880002,,,,,,,,,,,,,,,,,,,,,,,,,,,,,,,,,,,,,,,,,,,,,,,,,,,,use as a weapon by throwing ,bucket,15,0,15,0,1,,,,,,,,,,,,,,,,,,,,,,,,,,,,,,,
,,,,,,,,,,,,,,,89946,001,2022-04-26_12h13.56.947,SPAMnetsValid,2021.1.4,MacIntel,59.99880002,,,,,,,,,,,,,,,,,,,,,,,,,,,,,,,,,,,,,,,,,,,,,,,,,,,,foot bath,bucket,16,0,16,0,1,,,,,,,,,,,,,,,,,,,,,,,,,,,,,,,
,,,,,,,,,,,,,,,89946,001,2022-04-26_12h13.56.947,SPAMnetsValid,2021.1.4,MacIntel,59.99880002,,,,,,,,,,,,,,,,,,,,,,,,,,,,,,,,,,,,,,,,,,,,,,,,,,,,,,,,,,,0,0,0,0,1,bucket,,,,,,,,,,,,,,,,,,,,,,,,,
,,,,,,,,,,,,,,,89946,001,2022-04-26_12h13.56.947,SPAMnetsValid,2021.1.4,MacIntel,59.99880002,,,,,,,,,,,,,,,,,,,,,,,,,,,,,,,,,,,,,,,,,,,,,,,,,,,,sleeping,pillow,0,0,0,0,1,,,,,,,,,,,,,,,,,,,,,,,,,,,,,,,
,,,,,,,,,,,,,,,89946,001,2022-04-26_12h13.56.947,SPAMnetsValid,2021.1.4,MacIntel,59.99880002,,,,,,,,,,,,,,,,,,,,,,,,,,,,,,,,,,,,,,,,,,,,,,,,,,,,pillow fight ,pillow,1,0,1,0,1,,,,,,,,,,,,,,,,,,,,,,,,,,,,,,,
,,,,,,,,,,,,,,,89946,001,2022-04-26_12h13.56.947,SPAMnetsValid,2021.1.4,MacIntel,59.99880002,,,,,,,,,,,,,,,,,,,,,,,,,,,,,,,,,,,,,,,,,,,,,,,,,,,,mop,pillow,2,0,2,0,1,,,,,,,,,,,,,,,,,,,,,,,,,,,,,,,
,,,,,,,,,,,,,,,89946,001,2022-04-26_12h13.56.947,SPAMnetsValid,2021.1.4,MacIntel,59.99880002,,,,,,,,,,,,,,,,,,,,,,,,,,,,,,,,,,,,,,,,,,,,,,,,,,,,sponge,pillow,3,0,3,0,1,,,,,,,,,,,,,,,,,,,,,,,,,,,,,,,
,,,,,,,,,,,,,,,89946,001,2022-04-26_12h13.56.947,SPAMnetsValid,2021.1.4,MacIntel,59.99880002,,,,,,,,,,,,,,,,,,,,,,,,,,,,,,,,,,,,,,,,,,,,,,,,,,,,broom,pillow,4,0,4,0,1,,,,,,,,,,,,,,,,,,,,,,,,,,,,,,,
,,,,,,,,,,,,,,,89946,001,2022-04-26_12h13.56.947,SPAMnetsValid,2021.1.4,MacIntel,59.99880002,,,,,,,,,,,,,,,,,,,,,,,,,,,,,,,,,,,,,,,,,,,,,,,,,,,,swiffer,pillow,5,0,5,0,1,,,,,,,,,,,,,,,,,,,,,,,,,,,,,,,
,,,,,,,,,,,,,,,89946,001,2022-04-26_12h13.56.947,SPAMnetsValid,2021.1.4,MacIntel,59.99880002,,,,,,,,,,,,,,,,,,,,,,,,,,,,,,,,,,,,,,,,,,,,,,,,,,,,duster,pillow,6,0,6,0,1,,,,,,,,,,,,,,,,,,,,,,,,,,,,,,,
,,,,,,,,,,,,,,,89946,001,2022-04-26_12h13.56.947,SPAMnetsValid,2021.1.4,MacIntel,59.99880002,,,,,,,,,,,,,,,,,,,,,,,,,,,,,,,,,,,,,,,,,,,,,,,,,,,,wet it and use as  a weight ,pillow,7,0,7,0,1,,,,,,,,,,,,,,,,,,,,,,,,,,,,,,,
,,,,,,,,,,,,,,,89946,001,2022-04-26_12h13.56.947,SPAMnetsValid,2021.1.4,MacIntel,59.99880002,,,,,,,,,,,,,,,,,,,,,,,,,,,,,,,,,,,,,,,,,,,,,,,,,,,,if pregnant use to support stomach while sleeping,pillow,8,0,8,0,1,,,,,,,,,,,,,,,,,,,,,,,,,,,,,,,
,,,,,,,,,,,,,,,89946,001,2022-04-26_12h13.56.947,SPAMnetsValid,2021.1.4,MacIntel,59.99880002,,,,,,,,,,,,,,,,,,,,,,,,,,,,,,,,,,,,,,,,,,,,,,,,,,,,trampoline ,pillow,9,0,9,0,1,,,,,,,,,,,,,,,,,,,,,,,,,,,,,,,
,,,,,,,,,,,,,,,89946,001,2022-04-26_12h13.56.947,SPAMnetsValid,2021.1.4,MacIntel,59.99880002,,,,,,,,,,,,,,,,,,,,,,,,,,,,,,,,,,,,,,,,,,,,,,,,,,,,weapon by suffocating,pillow,10,0,10,0,1,,,,,,,,,,,,,,,,,,,,,,,,,,,,,,,
,,,,,,,,,,,,,,,89946,001,2022-04-26_12h13.56.947,SPAMnetsValid,2021.1.4,MacIntel,59.99880002,,,,,,,,,,,,,,,,,,,,,,,,,,,,,,,,,,,,,,,,,,,,,,,,,,,,paper for coloring,pillow,11,0,11,0,1,,,,,,,,,,,,,,,,,,,,,,,,,,,,,,,
,,,,,,,,,,,,,,,89946,001,2022-04-26_12h13.56.947,SPAMnetsValid,2021.1.4,MacIntel,59.99880002,,,,,,,,,,,,,,,,,,,,,,,,,,,,,,,,,,,,,,,,,,,,,,,,,,,,place to take notes,pillow,12,0,12,0,1,,,,,,,,,,,,,,,,,,,,,,,,,,,,,,,
,,,,,,,,,,,,,,,89946,001,2022-04-26_12h13.56.947,SPAMnetsValid,2021.1.4,MacIntel,59.99880002,,,,,,,,,,,,,,,,,,,,,,,,,,,,,,,,,,,,,,,,,,,,,,,,,,,,tissue ,pillow,13,0,13,0,1,,,,,,,,,,,,,,,,,,,,,,,,,,,,,,,
,,,,,,,,,,,,,,,89946,001,2022-04-26_12h13.56.947,SPAMnetsValid,2021.1.4,MacIntel,59.99880002,,,,,,,,,,,,,,,,,,,,,,,,,,,,,,,,,,,,,,,,,,,,,,,,,,,,use the insides for a feather boa,pillow,14,0,14,0,1,,,,,,,,,,,,,,,,,,,,,,,,,,,,,,,
,,,,,,,,,,,,,,,89946,001,2022-04-26_12h13.56.947,SPAMnetsValid,2021.1.4,MacIntel,59.99880002,,,,,,,,,,,,,,,,,,,,,,,,,,,,,,,,,,,,,,,,,,,,,,,,,,,,cushion for a chair,pillow,15,0,15,0,1,,,,,,,,,,,,,,,,,,,,,,,,,,,,,,,
,,,,,,,,,,,,,,,89946,001,2022-04-26_12h13.56.947,SPAMnetsValid,2021.1.4,MacIntel,59.99880002,,,,,,,,,,,,,,,,,,,,,,,,,,,,,,,,,,,,,,,,,,,,,,,,,,,,cushion for a couch,pillow,16,0,16,0,1,,,,,,,,,,,,,,,,,,,,,,,,,,,,,,,
,,,,,,,,,,,,,,,89946,001,2022-04-26_12h13.56.947,SPAMnetsValid,2021.1.4,MacIntel,59.99880002,,,,,,,,,,,,,,,,,,,,,,,,,,,,,,,,,,,,,,,,,,,,,,,,,,,,,,,,,,,0,1,1,2,1,pillow,,,,,,,,,,,,,,,,,,,,,,,,,
,,,,,,,,,,,,,,,89946,001,2022-04-26_12h13.56.947,SPAMnetsValid,2021.1.4,MacIntel,59.99880002,,,,,,,,,,,,,,,,,,,,,,,,,,,,,,,,,,,,,,,,,,,,,,,,,,,,light,candle,0,0,0,0,1,,,,,,,,,,,,,,,,,,,,,,,,,,,,,,,
,,,,,,,,,,,,,,,89946,001,2022-04-26_12h13.56.947,SPAMnetsValid,2021.1.4,MacIntel,59.99880002,,,,,,,,,,,,,,,,,,,,,,,,,,,,,,,,,,,,,,,,,,,,,,,,,,,,wax figurine,candle,1,0,1,0,1,,,,,,,,,,,,,,,,,,,,,,,,,,,,,,,
,,,,,,,,,,,,,,,89946,001,2022-04-26_12h13.56.947,SPAMnetsValid,2021.1.4,MacIntel,59.99880002,,,,,,,,,,,,,,,,,,,,,,,,,,,,,,,,,,,,,,,,,,,,,,,,,,,,letting it mold on your hand,candle,2,0,2,0,1,,,,,,,,,,,,,,,,,,,,,,,,,,,,,,,
,,,,,,,,,,,,,,,89946,001,2022-04-26_12h13.56.947,SPAMnetsValid,2021.1.4,MacIntel,59.99880002,,,,,,,,,,,,,,,,,,,,,,,,,,,,,,,,,,,,,,,,,,,,,,,,,,,,stamp for an envelope,candle,3,0,3,0,1,,,,,,,,,,,,,,,,,,,,,,,,,,,,,,,
,,,,,,,,,,,,,,,89946,001,2022-04-26_12h13.56.947,SPAMnetsValid,2021.1.4,MacIntel,59.99880002,,,,,,,,,,,,,,,,,,,,,,,,,,,,,,,,,,,,,,,,,,,,,,,,,,,,decoration,candle,4,0,4,0,1,,,,,,,,,,,,,,,,,,,,,,,,,,,,,,,
,,,,,,,,,,,,,,,89946,001,2022-04-26_12h13.56.947,SPAMnetsValid,2021.1.4,MacIntel,59.99880002,,,,,,,,,,,,,,,,,,,,,,,,,,,,,,,,,,,,,,,,,,,,,,,,,,,,weight,candle,5,0,5,0,1,,,,,,,,,,,,,,,,,,,,,,,,,,,,,,,
,,,,,,,,,,,,,,,89946,001,2022-04-26_12h13.56.947,SPAMnetsValid,2021.1.4,MacIntel,59.99880002,,,,,,,,,,,,,,,,,,,,,,,,,,,,,,,,,,,,,,,,,,,,,,,,,,,,weight to put on top of objects ,candle,6,0,6,0,1,,,,,,,,,,,,,,,,,,,,,,,,,,,,,,,
,,,,,,,,,,,,,,,89946,001,2022-04-26_12h13.56.947,SPAMnetsValid,2021.1.4,MacIntel,59.99880002,,,,,,,,,,,,,,,,,,,,,,,,,,,,,,,,,,,,,,,,,,,,,,,,,,,,muscle roller ,candle,7,0,7,0,1,,,,,,,,,,,,,,,,,,,,,,,,,,,,,,,
,,,,,,,,,,,,,,,89946,001,2022-04-26_12h13.56.947,SPAMnetsValid,2021.1.4,MacIntel,59.99880002,,,,,,,,,,,,,,,,,,,,,,,,,,,,,,,,,,,,,,,,,,,,,,,,,,,,something to take bad smells away,candle,8,0,8,0,1,,,,,,,,,,,,,,,,,,,,,,,,,,,,,,,
,,,,,,,,,,,,,,,89946,001,2022-04-26_12h13.56.947,SPAMnetsValid,2021.1.4,MacIntel,59.99880002,,,,,,,,,,,,,,,,,,,,,,,,,,,,,,,,,,,,,,,,,,,,,,,,,,,,boosts happiness,candle,9,0,9,0,1,,,,,,,,,,,,,,,,,,,,,,,,,,,,,,,
,,,,,,,,,,,,,,,89946,001,2022-04-26_12h13.56.947,SPAMnetsValid,2021.1.4,MacIntel,59.99880002,,,,,,,,,,,,,,,,,,,,,,,,,,,,,,,,,,,,,,,,,,,,,,,,,,,,encourages calmness,candle,10,0,10,0,1,,,,,,,,,,,,,,,,,,,,,,,,,,,,,,,
,,,,,,,,,,,,,,,89946,001,2022-04-26_12h13.56.947,SPAMnetsValid,2021.1.4,MacIntel,59.99880002,,,,,,,,,,,,,,,,,,,,,,,,,,,,,,,,,,,,,,,,,,,,,,,,,,,,romantic moment,candle,11,0,11,0,1,,,,,,,,,,,,,,,,,,,,,,,,,,,,,,,
,,,,,,,,,,,,,,,89946,001,2022-04-26_12h13.56.947,SPAMnetsValid,2021.1.4,MacIntel,59.99880002,,,,,,,,,,,,,,,,,,,,,,,,,,,,,,,,,,,,,,,,,,,,,,,,,,,,during a tornado ,candle,12,0,12,0,1,,,,,,,,,,,,,,,,,,,,,,,,,,,,,,,
,,,,,,,,,,,,,,,89946,001,2022-04-26_12h13.56.947,SPAMnetsValid,2021.1.4,MacIntel,59.99880002,,,,,,,,,,,,,,,,,,,,,,,,,,,,,,,,,,,,,,,,,,,,,,,,,,,,entertainment watching the flame dance,candle,13,0,13,0,1,,,,,,,,,,,,,,,,,,,,,,,,,,,,,,,
,,,,,,,,,,,,,,,89946,001,2022-04-26_12h13.56.947,SPAMnetsValid,2021.1.4,MacIntel,59.99880002,,,,,,,,,,,,,,,,,,,,,,,,,,,,,,,,,,,,,,,,,,,,,,,,,,,,,,,,,,,0,2,2,1,1,candle,,,,,,,,,,,,,,,,,,,,,,,,,
,,,,,,,,,,,,,,,89946,001,2022-04-26_12h13.56.947,SPAMnetsValid,2021.1.4,MacIntel,59.99880002,,,,,,,,,,,,,,,,,,,,,,,,,,,,,,,,,,,,,,,,,,,,,,,,,,,,,,,,,,,,,,,,,dog,Animals,0,0,0,0,1,,,,,,,,,,,,,,,,,,
,,,,,,,,,,,,,,,89946,001,2022-04-26_12h13.56.947,SPAMnetsValid,2021.1.4,MacIntel,59.99880002,,,,,,,,,,,,,,,,,,,,,,,,,,,,,,,,,,,,,,,,,,,,,,,,,,,,,,,,,,,,,,,,,cat,Animals,1,0,1,0,1,,,,,,,,,,,,,,,,,,
,,,,,,,,,,,,,,,89946,001,2022-04-26_12h13.56.947,SPAMnetsValid,2021.1.4,MacIntel,59.99880002,,,,,,,,,,,,,,,,,,,,,,,,,,,,,,,,,,,,,,,,,,,,,,,,,,,,,,,,,,,,,,,,,goat,Animals,2,0,2,0,1,,,,,,,,,,,,,,,,,,
,,,,,,,,,,,,,,,89946,001,2022-04-26_12h13.56.947,SPAMnetsValid,2021.1.4,MacIntel,59.99880002,,,,,,,,,,,,,,,,,,,,,,,,,,,,,,,,,,,,,,,,,,,,,,,,,,,,,,,,,,,,,,,,,sheep,Animals,3,0,3,0,1,,,,,,,,,,,,,,,,,,
,,,,,,,,,,,,,,,89946,001,2022-04-26_12h13.56.947,SPAMnetsValid,2021.1.4,MacIntel,59.99880002,,,,,,,,,,,,,,,,,,,,,,,,,,,,,,,,,,,,,,,,,,,,,,,,,,,,,,,,,,,,,,,,,pig,Animals,4,0,4,0,1,,,,,,,,,,,,,,,,,,
,,,,,,,,,,,,,,,89946,001,2022-04-26_12h13.56.947,SPAMnetsValid,2021.1.4,MacIntel,59.99880002,,,,,,,,,,,,,,,,,,,,,,,,,,,,,,,,,,,,,,,,,,,,,,,,,,,,,,,,,,,,,,,,,cow,Animals,5,0,5,0,1,,,,,,,,,,,,,,,,,,
,,,,,,,,,,,,,,,89946,001,2022-04-26_12h13.56.947,SPAMnetsValid,2021.1.4,MacIntel,59.99880002,,,,,,,,,,,,,,,,,,,,,,,,,,,,,,,,,,,,,,,,,,,,,,,,,,,,,,,,,,,,,,,,,rooster,Animals,6,0,6,0,1,,,,,,,,,,,,,,,,,,
,,,,,,,,,,,,,,,89946,001,2022-04-26_12h13.56.947,SPAMnetsValid,2021.1.4,MacIntel,59.99880002,,,,,,,,,,,,,,,,,,,,,,,,,,,,,,,,,,,,,,,,,,,,,,,,,,,,,,,,,,,,,,,,,peacock,Animals,7,0,7,0,1,,,,,,,,,,,,,,,,,,
,,,,,,,,,,,,,,,89946,001,2022-04-26_12h13.56.947,SPAMnetsValid,2021.1.4,MacIntel,59.99880002,,,,,,,,,,,,,,,,,,,,,,,,,,,,,,,,,,,,,,,,,,,,,,,,,,,,,,,,,,,,,,,,,lion,Animals,8,0,8,0,1,,,,,,,,,,,,,,,,,,
,,,,,,,,,,,,,,,89946,001,2022-04-26_12h13.56.947,SPAMnetsValid,2021.1.4,MacIntel,59.99880002,,,,,,,,,,,,,,,,,,,,,,,,,,,,,,,,,,,,,,,,,,,,,,,,,,,,,,,,,,,,,,,,,tiger,Animals,9,0,9,0,1,,,,,,,,,,,,,,,,,,
,,,,,,,,,,,,,,,89946,001,2022-04-26_12h13.56.947,SPAMnetsValid,2021.1.4,MacIntel,59.99880002,,,,,,,,,,,,,,,,,,,,,,,,,,,,,,,,,,,,,,,,,,,,,,,,,,,,,,,,,,,,,,,,,bea,Animals,10,0,10,0,1,,,,,,,,,,,,,,,,,,
,,,,,,,,,,,,,,,89946,001,2022-04-26_12h13.56.947,SPAMnetsValid,2021.1.4,MacIntel,59.99880002,,,,,,,,,,,,,,,,,,,,,,,,,,,,,,,,,,,,,,,,,,,,,,,,,,,,,,,,,,,,,,,,,bear,Animals,11,0,11,0,1,,,,,,,,,,,,,,,,,,
,,,,,,,,,,,,,,,89946,001,2022-04-26_12h13.56.947,SPAMnetsValid,2021.1.4,MacIntel,59.99880002,,,,,,,,,,,,,,,,,,,,,,,,,,,,,,,,,,,,,,,,,,,,,,,,,,,,,,,,,,,,,,,,,bee,Animals,12,0,12,0,1,,,,,,,,,,,,,,,,,,
,,,,,,,,,,,,,,,89946,001,2022-04-26_12h13.56.947,SPAMnetsValid,2021.1.4,MacIntel,59.99880002,,,,,,,,,,,,,,,,,,,,,,,,,,,,,,,,,,,,,,,,,,,,,,,,,,,,,,,,,,,,,,,,,bug,Animals,13,0,13,0,1,,,,,,,,,,,,,,,,,,
,,,,,,,,,,,,,,,89946,001,2022-04-26_12h13.56.947,SPAMnetsValid,2021.1.4,MacIntel,59.99880002,,,,,,,,,,,,,,,,,,,,,,,,,,,,,,,,,,,,,,,,,,,,,,,,,,,,,,,,,,,,,,,,,butterfly,Animals,14,0,14,0,1,,,,,,,,,,,,,,,,,,
,,,,,,,,,,,,,,,89946,001,2022-04-26_12h13.56.947,SPAMnetsValid,2021.1.4,MacIntel,59.99880002,,,,,,,,,,,,,,,,,,,,,,,,,,,,,,,,,,,,,,,,,,,,,,,,,,,,,,,,,,,,,,,,,dragonfly,Animals,15,0,15,0,1,,,,,,,,,,,,,,,,,,
,,,,,,,,,,,,,,,89946,001,2022-04-26_12h13.56.947,SPAMnetsValid,2021.1.4,MacIntel,59.99880002,,,,,,,,,,,,,,,,,,,,,,,,,,,,,,,,,,,,,,,,,,,,,,,,,,,,,,,,,,,,,,,,,beetle,Animals,16,0,16,0,1,,,,,,,,,,,,,,,,,,
,,,,,,,,,,,,,,,89946,001,2022-04-26_12h13.56.947,SPAMnetsValid,2021.1.4,MacIntel,59.99880002,,,,,,,,,,,,,,,,,,,,,,,,,,,,,,,,,,,,,,,,,,,,,,,,,,,,,,,,,,,,,,,,,fly,Animals,17,0,17,0,1,,,,,,,,,,,,,,,,,,
,,,,,,,,,,,,,,,89946,001,2022-04-26_12h13.56.947,SPAMnetsValid,2021.1.4,MacIntel,59.99880002,,,,,,,,,,,,,,,,,,,,,,,,,,,,,,,,,,,,,,,,,,,,,,,,,,,,,,,,,,,,,,,,,mosquito,Animals,18,0,18,0,1,,,,,,,,,,,,,,,,,,
,,,,,,,,,,,,,,,89946,001,2022-04-26_12h13.56.947,SPAMnetsValid,2021.1.4,MacIntel,59.99880002,,,,,,,,,,,,,,,,,,,,,,,,,,,,,,,,,,,,,,,,,,,,,,,,,,,,,,,,,,,,,,,,,hippo,Animals,19,0,19,0,1,,,,,,,,,,,,,,,,,,
,,,,,,,,,,,,,,,89946,001,2022-04-26_12h13.56.947,SPAMnetsValid,2021.1.4,MacIntel,59.99880002,,,,,,,,,,,,,,,,,,,,,,,,,,,,,,,,,,,,,,,,,,,,,,,,,,,,,,,,,,,,,,,,,elephant,Animals,20,0,20,0,1,,,,,,,,,,,,,,,,,,
,,,,,,,,,,,,,,,89946,001,2022-04-26_12h13.56.947,SPAMnetsValid,2021.1.4,MacIntel,59.99880002,,,,,,,,,,,,,,,,,,,,,,,,,,,,,,,,,,,,,,,,,,,,,,,,,,,,,,,,,,,,,,,,,cheetah,Animals,21,0,21,0,1,,,,,,,,,,,,,,,,,,
,,,,,,,,,,,,,,,89946,001,2022-04-26_12h13.56.947,SPAMnetsValid,2021.1.4,MacIntel,59.99880002,,,,,,,,,,,,,,,,,,,,,,,,,,,,,,,,,,,,,,,,,,,,,,,,,,,,,,,,,,,,,,,,,panthar,Animals,22,0,22,0,1,,,,,,,,,,,,,,,,,,
,,,,,,,,,,,,,,,89946,001,2022-04-26_12h13.56.947,SPAMnetsValid,2021.1.4,MacIntel,59.99880002,,,,,,,,,,,,,,,,,,,,,,,,,,,,,,,,,,,,,,,,,,,,,,,,,,,,,,,,,,,,,,,,,zebra,Animals,23,0,23,0,1,,,,,,,,,,,,,,,,,,
,,,,,,,,,,,,,,,89946,001,2022-04-26_12h13.56.947,SPAMnetsValid,2021.1.4,MacIntel,59.99880002,,,,,,,,,,,,,,,,,,,,,,,,,,,,,,,,,,,,,,,,,,,,,,,,,,,,,,,,,,,,,,,,,giraffe,Animals,24,0,24,0,1,,,,,,,,,,,,,,,,,,
,,,,,,,,,,,,,,,89946,001,2022-04-26_12h13.56.947,SPAMnetsValid,2021.1.4,MacIntel,59.99880002,,,,,,,,,,,,,,,,,,,,,,,,,,,,,,,,,,,,,,,,,,,,,,,,,,,,,,,,,,,,,,,,,emu,Animals,25,0,25,0,1,,,,,,,,,,,,,,,,,,
,,,,,,,,,,,,,,,89946,001,2022-04-26_12h13.56.947,SPAMnetsValid,2021.1.4,MacIntel,59.99880002,,,,,,,,,,,,,,,,,,,,,,,,,,,,,,,,,,,,,,,,,,,,,,,,,,,,,,,,,,,,,,,,,llama,Animals,26,0,26,0,1,,,,,,,,,,,,,,,,,,
,,,,,,,,,,,,,,,89946,001,2022-04-26_12h13.56.947,SPAMnetsValid,2021.1.4,MacIntel,59.99880002,,,,,,,,,,,,,,,,,,,,,,,,,,,,,,,,,,,,,,,,,,,,,,,,,,,,,,,,,,,,,,,,,goat,Animals,27,0,27,0,1,,,,,,,,,,,,,,,,,,
,,,,,,,,,,,,,,,89946,001,2022-04-26_12h13.56.947,SPAMnetsValid,2021.1.4,MacIntel,59.99880002,,,,,,,,,,,,,,,,,,,,,,,,,,,,,,,,,,,,,,,,,,,,,,,,,,,,,,,,,,,,,,,,,fish,Animals,28,0,28,0,1,,,,,,,,,,,,,,,,,,
,,,,,,,,,,,,,,,89946,001,2022-04-26_12h13.56.947,SPAMnetsValid,2021.1.4,MacIntel,59.99880002,,,,,,,,,,,,,,,,,,,,,,,,,,,,,,,,,,,,,,,,,,,,,,,,,,,,,,,,,,,,,,,,,bird,Animals,29,0,29,0,1,,,,,,,,,,,,,,,,,,
,,,,,,,,,,,,,,,89946,001,2022-04-26_12h13.56.947,SPAMnetsValid,2021.1.4,MacIntel,59.99880002,,,,,,,,,,,,,,,,,,,,,,,,,,,,,,,,,,,,,,,,,,,,,,,,,,,,,,,,,,,,,,,,,parrot,Animals,30,0,30,0,1,,,,,,,,,,,,,,,,,,
,,,,,,,,,,,,,,,89946,001,2022-04-26_12h13.56.947,SPAMnetsValid,2021.1.4,MacIntel,59.99880002,,,,,,,,,,,,,,,,,,,,,,,,,,,,,,,,,,,,,,,,,,,,,,,,,,,,,,,,,,,,,,,,,rabbit,Animals,31,0,31,0,1,,,,,,,,,,,,,,,,,,
,,,,,,,,,,,,,,,89946,001,2022-04-26_12h13.56.947,SPAMnetsValid,2021.1.4,MacIntel,59.99880002,,,,,,,,,,,,,,,,,,,,,,,,,,,,,,,,,,,,,,,,,,,,,,,,,,,,,,,,,,,,,,,,,hamster,Animals,32,0,32,0,1,,,,,,,,,,,,,,,,,,
,,,,,,,,,,,,,,,89946,001,2022-04-26_12h13.56.947,SPAMnetsValid,2021.1.4,MacIntel,59.99880002,,,,,,,,,,,,,,,,,,,,,,,,,,,,,,,,,,,,,,,,,,,,,,,,,,,,,,,,,,,,,,,,,mouse,Animals,33,0,33,0,1,,,,,,,,,,,,,,,,,,
,,,,,,,,,,,,,,,89946,001,2022-04-26_12h13.56.947,SPAMnetsValid,2021.1.4,MacIntel,59.99880002,,,,,,,,,,,,,,,,,,,,,,,,,,,,,,,,,,,,,,,,,,,,,,,,,,,,,,,,,,,,,,,,,rat,Animals,34,0,34,0,1,,,,,,,,,,,,,,,,,,
,,,,,,,,,,,,,,,89946,001,2022-04-26_12h13.56.947,SPAMnetsValid,2021.1.4,MacIntel,59.99880002,,,,,,,,,,,,,,,,,,,,,,,,,,,,,,,,,,,,,,,,,,,,,,,,,,,,,,,,,,,,,,,,,gerbil,Animals,35,0,35,0,1,,,,,,,,,,,,,,,,,,
,,,,,,,,,,,,,,,89946,001,2022-04-26_12h13.56.947,SPAMnetsValid,2021.1.4,MacIntel,59.99880002,,,,,,,,,,,,,,,,,,,,,,,,,,,,,,,,,,,,,,,,,,,,,,,,,,,,,,,,,,,,,,,,,guniea pig,Animals,36,0,36,0,1,,,,,,,,,,,,,,,,,,
,,,,,,,,,,,,,,,89946,001,2022-04-26_12h13.56.947,SPAMnetsValid,2021.1.4,MacIntel,59.99880002,,,,,,,,,,,,,,,,,,,,,,,,,,,,,,,,,,,,,,,,,,,,,,,,,,,,,,,,,,,,,,,,,pig,Animals,37,0,37,0,1,,,,,,,,,,,,,,,,,,
,,,,,,,,,,,,,,,89946,001,2022-04-26_12h13.56.947,SPAMnetsValid,2021.1.4,MacIntel,59.99880002,,,,,,,,,,,,,,,,,,,,,,,,,,,,,,,,,,,,,,,,,,,,,,,,,,,,,,,,,,,,,,,,,duck,Animals,38,0,38,0,1,,,,,,,,,,,,,,,,,,
,,,,,,,,,,,,,,,89946,001,2022-04-26_12h13.56.947,SPAMnetsValid,2021.1.4,MacIntel,59.99880002,,,,,,,,,,,,,,,,,,,,,,,,,,,,,,,,,,,,,,,,,,,,,,,,,,,,,,,,,,,,,,,,,turtle,Animals,39,0,39,0,1,,,,,,,,,,,,,,,,,,
,,,,,,,,,,,,,,,89946,001,2022-04-26_12h13.56.947,SPAMnetsValid,2021.1.4,MacIntel,59.99880002,,,,,,,,,,,,,,,,,,,,,,,,,,,,,,,,,,,,,,,,,,,,,,,,,,,,,,,,,,,,,,,,,alligator,Animals,40,0,40,0,1,,,,,,,,,,,,,,,,,,
,,,,,,,,,,,,,,,89946,001,2022-04-26_12h13.56.947,SPAMnetsValid,2021.1.4,MacIntel,59.99880002,,,,,,,,,,,,,,,,,,,,,,,,,,,,,,,,,,,,,,,,,,,,,,,,,,,,,,,,,,,,,,,,,crocodile,Animals,41,0,41,0,1,,,,,,,,,,,,,,,,,,
,,,,,,,,,,,,,,,89946,001,2022-04-26_12h13.56.947,SPAMnetsValid,2021.1.4,MacIntel,59.99880002,,,,,,,,,,,,,,,,,,,,,,,,,,,,,,,,,,,,,,,,,,,,,,,,,,,,,,,,,,,,,,,,,snake,Animals,42,0,42,0,1,,,,,,,,,,,,,,,,,,
,,,,,,,,,,,,,,,89946,001,2022-04-26_12h13.56.947,SPAMnetsValid,2021.1.4,MacIntel,59.99880002,,,,,,,,,,,,,,,,,,,,,,,,,,,,,,,,,,,,,,,,,,,,,,,,,,,,,,,,,,,,,,,,,frog,Animals,43,0,43,0,1,,,,,,,,,,,,,,,,,,
,,,,,,,,,,,,,,,89946,001,2022-04-26_12h13.56.947,SPAMnetsValid,2021.1.4,MacIntel,59.99880002,,,,,,,,,,,,,,,,,,,,,,,,,,,,,,,,,,,,,,,,,,,,,,,,,,,,,,,,,,,,,,,,,salamandar,Animals,44,0,44,0,1,,,,,,,,,,,,,,,,,,
,,,,,,,,,,,,,,,89946,001,2022-04-26_12h13.56.947,SPAMnetsValid,2021.1.4,MacIntel,59.99880002,,,,,,,,,,,,,,,,,,,,,,,,,,,,,,,,,,,,,,,,,,,,,,,,,,,,,,,,,,,,,,,,,lizard,Animals,45,0,45,0,1,,,,,,,,,,,,,,,,,,
,,,,,,,,,,,,,,,89946,001,2022-04-26_12h13.56.947,SPAMnetsValid,2021.1.4,MacIntel,59.99880002,,,,,,,,,,,,,,,,,,,,,,,,,,,,,,,,,,,,,,,,,,,,,,,,,,,,,,,,,,,,,,,,,horse,Animals,46,0,46,0,1,,,,,,,,,,,,,,,,,,
,,,,,,,,,,,,,,,89946,001,2022-04-26_12h13.56.947,SPAMnetsValid,2021.1.4,MacIntel,59.99880002,,,,,,,,,,,,,,,,,,,,,,,,,,,,,,,,,,,,,,,,,,,,,,,,,,,,,,,,,,,,,,,,,donkey,Animals,47,0,47,0,1,,,,,,,,,,,,,,,,,,
,,,,,,,,,,,,,,,89946,001,2022-04-26_12h13.56.947,SPAMnetsValid,2021.1.4,MacIntel,59.99880002,,,,,,,,,,,,,,,,,,,,,,,,,,,,,,,,,,,,,,,,,,,,,,,,,,,,,,,,,,,,,,,,,whale,Animals,48,0,48,0,1,,,,,,,,,,,,,,,,,,
,,,,,,,,,,,,,,,89946,001,2022-04-26_12h13.56.947,SPAMnetsValid,2021.1.4,MacIntel,59.99880002,,,,,,,,,,,,,,,,,,,,,,,,,,,,,,,,,,,,,,,,,,,,,,,,,,,,,,,,,,,,,,,,,shark,Animals,49,0,49,0,1,,,,,,,,,,,,,,,,,,
,,,,,,,,,,,,,,,89946,001,2022-04-26_12h13.56.947,SPAMnetsValid,2021.1.4,MacIntel,59.99880002,,,,,,,,,,,,,,,,,,,,,,,,,,,,,,,,,,,,,,,,,,,,,,,,,,,,,,,,,,,,,,,,,dolphin,Animals,50,0,50,0,1,,,,,,,,,,,,,,,,,,
,,,,,,,,,,,,,,,89946,001,2022-04-26_12h13.56.947,SPAMnetsValid,2021.1.4,MacIntel,59.99880002,,,,,,,,,,,,,,,,,,,,,,,,,,,,,,,,,,,,,,,,,,,,,,,,,,,,,,,,,,,,,,,,,seagull,Animals,51,0,51,0,1,,,,,,,,,,,,,,,,,,
,,,,,,,,,,,,,,,89946,001,2022-04-26_12h13.56.947,SPAMnetsValid,2021.1.4,MacIntel,59.99880002,,,,,,,,,,,,,,,,,,,,,,,,,,,,,,,,,,,,,,,,,,,,,,,,,,,,,,,,,,,,,,,,,,,,,,,,0,0,0,0,1,Animals,,,,,,,,,,,,
,,,,,,,,,,,,,,,89946,001,2022-04-26_12h13.56.947,SPAMnetsValid,2021.1.4,MacIntel,59.99880002,,,,,,,,,,,,,,,,,,,,,,,,,,,,,,,,,,,,,,,,,,,,,,,,,,,,,,,,,,,,,,,,,,,,,,,,,,,,,,4,6.6054,0,0,0,0,1,"I enjoy concentrating on a fantasy or daydream and exploring all its possibilities, letting it grow and develop.",0,1,,
,,,,,,,,,,,,,,,89946,001,2022-04-26_12h13.56.947,SPAMnetsValid,2021.1.4,MacIntel,59.99880002,,,,,,,,,,,,,,,,,,,,,,,,,,,,,,,,,,,,,,,,,,,,,,,,,,,,,,,,,,,,,,,,,,,,,,,,,,,,,,4,2.7608,0,1,1,1,1,I think it's interesting to learn and develop new hobbies.,0,2,,
,,,,,,,,,,,,,,,89946,001,2022-04-26_12h13.56.947,SPAMnetsValid,2021.1.4,MacIntel,59.99880002,,,,,,,,,,,,,,,,,,,,,,,,,,,,,,,,,,,,,,,,,,,,,,,,,,,,,,,,,,,,,,,,,,,,,,,,,,,,,,4,1.4623,0,2,2,2,1,I am intrigued by the patterns I find in art and nature.,0,3,,
,,,,,,,,,,,,,,,89946,001,2022-04-26_12h13.56.947,SPAMnetsValid,2021.1.4,MacIntel,59.99880002,,,,,,,,,,,,,,,,,,,,,,,,,,,,,,,,,,,,,,,,,,,,,,,,,,,,,,,,,,,,,,,,,,,,,,,,,,,,,,1,5.7952,0,3,3,3,1,I believe letting students hear controversial speakers can only confuse and mislead them.,1,4,,
,,,,,,,,,,,,,,,89946,001,2022-04-26_12h13.56.947,SPAMnetsValid,2021.1.4,MacIntel,59.99880002,,,,,,,,,,,,,,,,,,,,,,,,,,,,,,,,,,,,,,,,,,,,,,,,,,,,,,,,,,,,,,,,,,,,,,,,,,,,,,3,5.5469,0,4,4,4,1,Poetry has little or no effect on me.,1,5,,
,,,,,,,,,,,,,,,89946,001,2022-04-26_12h13.56.947,SPAMnetsValid,2021.1.4,MacIntel,59.99880002,,,,,,,,,,,,,,,,,,,,,,,,,,,,,,,,,,,,,,,,,,,,,,,,,,,,,,,,,,,,,,,,,,,,,,,,,,,,,,1,3.6796,0,5,5,5,1,I would have difficulty just letting my mind wander without control or guidance.,1,6,,
,,,,,,,,,,,,,,,89946,001,2022-04-26_12h13.56.947,SPAMnetsValid,2021.1.4,MacIntel,59.99880002,,,,,,,,,,,,,,,,,,,,,,,,,,,,,,,,,,,,,,,,,,,,,,,,,,,,,,,,,,,,,,,,,,,,,,,,,,,,,,1,2.432,0,6,6,6,1,I seldom notice the moods or feelings that different environments produce.,1,7,,
,,,,,,,,,,,,,,,89946,001,2022-04-26_12h13.56.947,SPAMnetsValid,2021.1.4,MacIntel,59.99880002,,,,,,,,,,,,,,,,,,,,,,,,,,,,,,,,,,,,,,,,,,,,,,,,,,,,,,,,,,,,,,,,,,,,,,,,,,,,,,5,2.3955,0,7,7,7,1,I experience a wide range of emotions or feelings.,0,8,,
,,,,,,,,,,,,,,,89946,001,2022-04-26_12h13.56.947,SPAMnetsValid,2021.1.4,MacIntel,59.99880002,,,,,,,,,,,,,,,,,,,,,,,,,,,,,,,,,,,,,,,,,,,,,,,,,,,,,,,,,,,,,,,,,,,,,,,,,,,,,,4,3.1958,0,8,8,8,1,"Sometimes when I am reading poetry or looking at a work of art, I feel a chill or wave of excitement.",0,9,,
,,,,,,,,,,,,,,,89946,001,2022-04-26_12h13.56.947,SPAMnetsValid,2021.1.4,MacIntel,59.99880002,,,,,,,,,,,,,,,,,,,,,,,,,,,,,,,,,,,,,,,,,,,,,,,,,,,,,,,,,,,,,,,,,,,,,,,,,,,,,,3,2.6814,0,9,9,9,1,I have little interest in speculating on the nature of the universe or the human condition.,1,10,,
,,,,,,,,,,,,,,,89946,001,2022-04-26_12h13.56.947,SPAMnetsValid,2021.1.4,MacIntel,59.99880002,,,,,,,,,,,,,,,,,,,,,,,,,,,,,,,,,,,,,,,,,,,,,,,,,,,,,,,,,,,,,,,,,,,,,,,,,,,,,,3,1.5816,0,10,10,10,1,I have a lot of intellectual curiosity.,0,11,,
,,,,,,,,,,,,,,,89946,001,2022-04-26_12h13.56.947,SPAMnetsValid,2021.1.4,MacIntel,59.99880002,,,,,,,,,,,,,,,,,,,,,,,,,,,,,,,,,,,,,,,,,,,,,,,,,,,,,,,,,,,,,,,,,,,,,,,,,,,,,,3,1.0928,0,11,11,11,1,I often enjoy playing with theories or abstract ideas.,0,12,,
,,,,,,,,,,,,,,,89946,001,2022-04-26_12h13.56.947,SPAMnetsValid,2021.1.4,MacIntel,59.99880002,,,,,,,,,,,,,,,,,,,,,,,,,,,,,,,,,,,,,,,,,,,,,,,,,,,,,,,,,,,,,,,,,,,,,,,,,,,,,,,,,,,,,,,,return,215.366
