key_resp_3.keys,key_resp_3.rt,slider_2.response,slider_2.rt,rjt_rating,rjt_RT,trials_24.thisRepN,trials_24.thisTrialN,trials_24.thisN,trials_24.thisIndex,trials_24.ran,rjt_order,word1,word2,attention,participant,session,date,expName,psychopyVersion,OS,frameRate,trials_4.thisRepN,trials_4.thisTrialN,trials_4.thisN,trials_4.thisIndex,trials_4.ran,trials_5.thisRepN,trials_5.thisTrialN,trials_5.thisN,trials_5.thisIndex,trials_5.ran,repOne,repTwo,slider.response,slider.rt,trials_22.thisRepN,trials_22.thisTrialN,trials_22.thisN,trials_22.thisIndex,trials_22.ran,trials_99.thisRepN,trials_99.thisTrialN,trials_99.thisN,trials_99.thisIndex,trials_99.ran,slider_extend_2.response,slider_extend_2.rt,trials_6.thisRepN,trials_6.thisTrialN,trials_6.thisN,trials_6.thisIndex,trials_6.ran,vCue2,R1,R2,R3,R4,correct,sliderVocab.response,sliderVocab.rt,trials_7.thisRepN,trials_7.thisTrialN,trials_7.thisN,trials_7.thisIndex,trials_7.ran,VocabCue,VR1,VR2,VR3,VR4,VR5,VocabCorrect,AUT_resp,AUT_label,trials.thisRepN,trials.thisTrialN,trials.thisN,trials.thisIndex,trials.ran,trials_2.thisRepN,trials_2.thisTrialN,trials_2.thisN,trials_2.thisIndex,trials_2.ran,aut_prompt,VF_response,VF_tag,trials_16.thisRepN,trials_16.thisTrialN,trials_16.thisN,trials_16.thisIndex,trials_16.ran,trials_17.thisRepN,trials_17.thisTrialN,trials_17.thisN,trials_17.thisIndex,trials_17.ran,VFcond,open_slider.response,open_slider.rt,trials_3.thisRepN,trials_3.thisTrialN,trials_3.thisN,trials_3.thisIndex,trials_3.ran,OpenQ,Rev,OPEN_ORDER,key_resp_2.keys,key_resp_2.rt
return,0.6492,2,3.0115,2,3.0115,0,0,0,40,1,165,onion,rose,,89994,001,2022-04-26_22h10.54.510,SPAMnetsValid,2021.1.4,Win32,59.79788315,,,,,,,,,,,,,,,,,,,,,,,,,,,,,,,,,,,,,,,,,,,,,,,,,,,,,,,,,,,,,,,,,,,,,,,,,,,,,,,,,,,,,,,,,
,,8,2.3044,8,2.3044,0,1,1,39,1,112,cake,carrot,,89994,001,2022-04-26_22h10.54.510,SPAMnetsValid,2021.1.4,Win32,59.79788315,,,,,,,,,,,,,,,,,,,,,,,,,,,,,,,,,,,,,,,,,,,,,,,,,,,,,,,,,,,,,,,,,,,,,,,,,,,,,,,,,,,,,,,,,
,,2,1.2922,2,1.2922,0,2,2,70,1,141,melon,tomato,,89994,001,2022-04-26_22h10.54.510,SPAMnetsValid,2021.1.4,Win32,59.79788315,,,,,,,,,,,,,,,,,,,,,,,,,,,,,,,,,,,,,,,,,,,,,,,,,,,,,,,,,,,,,,,,,,,,,,,,,,,,,,,,,,,,,,,,,
,,7,1.4959,7,1.4959,0,3,3,22,1,142,garden,tree,,89994,001,2022-04-26_22h10.54.510,SPAMnetsValid,2021.1.4,Win32,59.79788315,,,,,,,,,,,,,,,,,,,,,,,,,,,,,,,,,,,,,,,,,,,,,,,,,,,,,,,,,,,,,,,,,,,,,,,,,,,,,,,,,,,,,,,,,
,,3,1.4054,3,1.4054,0,4,4,12,1,162,microwave,tomato,,89994,001,2022-04-26_22h10.54.510,SPAMnetsValid,2021.1.4,Win32,59.79788315,,,,,,,,,,,,,,,,,,,,,,,,,,,,,,,,,,,,,,,,,,,,,,,,,,,,,,,,,,,,,,,,,,,,,,,,,,,,,,,,,,,,,,,,,
,,2,1.19,2,1.19,0,5,5,73,1,135,carrot,oven,,89994,001,2022-04-26_22h10.54.510,SPAMnetsValid,2021.1.4,Win32,59.79788315,,,,,,,,,,,,,,,,,,,,,,,,,,,,,,,,,,,,,,,,,,,,,,,,,,,,,,,,,,,,,,,,,,,,,,,,,,,,,,,,,,,,,,,,,
,,2,1.0699,2,1.0699,0,6,6,68,1,180,tree,yogurt,,89994,001,2022-04-26_22h10.54.510,SPAMnetsValid,2021.1.4,Win32,59.79788315,,,,,,,,,,,,,,,,,,,,,,,,,,,,,,,,,,,,,,,,,,,,,,,,,,,,,,,,,,,,,,,,,,,,,,,,,,,,,,,,,,,,,,,,,
,,1,1.5862,1,1.5862,0,7,7,89,1,140,cookie,refrigerator,,89994,001,2022-04-26_22h10.54.510,SPAMnetsValid,2021.1.4,Win32,59.79788315,,,,,,,,,,,,,,,,,,,,,,,,,,,,,,,,,,,,,,,,,,,,,,,,,,,,,,,,,,,,,,,,,,,,,,,,,,,,,,,,,,,,,,,,,
,,5,2.4148,5,2.4148,0,8,8,9,1,176,cactus,tomato,,89994,001,2022-04-26_22h10.54.510,SPAMnetsValid,2021.1.4,Win32,59.79788315,,,,,,,,,,,,,,,,,,,,,,,,,,,,,,,,,,,,,,,,,,,,,,,,,,,,,,,,,,,,,,,,,,,,,,,,,,,,,,,,,,,,,,,,,
,,4,3.4441,4,3.4441,0,9,9,19,1,183,cake,rose,,89994,001,2022-04-26_22h10.54.510,SPAMnetsValid,2021.1.4,Win32,59.79788315,,,,,,,,,,,,,,,,,,,,,,,,,,,,,,,,,,,,,,,,,,,,,,,,,,,,,,,,,,,,,,,,,,,,,,,,,,,,,,,,,,,,,,,,,
,,1,1.9826,1,1.9826,0,10,10,43,1,185,cactus,rose,,89994,001,2022-04-26_22h10.54.510,SPAMnetsValid,2021.1.4,Win32,59.79788315,,,,,,,,,,,,,,,,,,,,,,,,,,,,,,,,,,,,,,,,,,,,,,,,,,,,,,,,,,,,,,,,,,,,,,,,,,,,,,,,,,,,,,,,,
,,9,1.8971,9,1.8971,0,11,11,61,1,138,flower,rose,,89994,001,2022-04-26_22h10.54.510,SPAMnetsValid,2021.1.4,Win32,59.79788315,,,,,,,,,,,,,,,,,,,,,,,,,,,,,,,,,,,,,,,,,,,,,,,,,,,,,,,,,,,,,,,,,,,,,,,,,,,,,,,,,,,,,,,,,
,,3,1.6108,3,1.6108,0,12,12,2,1,174,cake,pretzel,,89994,001,2022-04-26_22h10.54.510,SPAMnetsValid,2021.1.4,Win32,59.79788315,,,,,,,,,,,,,,,,,,,,,,,,,,,,,,,,,,,,,,,,,,,,,,,,,,,,,,,,,,,,,,,,,,,,,,,,,,,,,,,,,,,,,,,,,
,,8,1.275,8,1.275,0,13,13,5,1,108,carrot,chocolate,,89994,001,2022-04-26_22h10.54.510,SPAMnetsValid,2021.1.4,Win32,59.79788315,,,,,,,,,,,,,,,,,,,,,,,,,,,,,,,,,,,,,,,,,,,,,,,,,,,,,,,,,,,,,,,,,,,,,,,,,,,,,,,,,,,,,,,,,
,,3,1.7575,3,1.7575,0,14,14,92,1,170,cookie,microwave,,89994,001,2022-04-26_22h10.54.510,SPAMnetsValid,2021.1.4,Win32,59.79788315,,,,,,,,,,,,,,,,,,,,,,,,,,,,,,,,,,,,,,,,,,,,,,,,,,,,,,,,,,,,,,,,,,,,,,,,,,,,,,,,,,,,,,,,,
,,7,2.156,7,2.156,0,15,15,37,1,139,carrot,strawberry,,89994,001,2022-04-26_22h10.54.510,SPAMnetsValid,2021.1.4,Win32,59.79788315,,,,,,,,,,,,,,,,,,,,,,,,,,,,,,,,,,,,,,,,,,,,,,,,,,,,,,,,,,,,,,,,,,,,,,,,,,,,,,,,,,,,,,,,,
,,8,1.92,8,1.92,0,16,16,47,1,167,carrot,garden,,89994,001,2022-04-26_22h10.54.510,SPAMnetsValid,2021.1.4,Win32,59.79788315,,,,,,,,,,,,,,,,,,,,,,,,,,,,,,,,,,,,,,,,,,,,,,,,,,,,,,,,,,,,,,,,,,,,,,,,,,,,,,,,,,,,,,,,,
,,3,1.3209,3,1.3209,0,17,17,57,1,127,cactus,chocolate,,89994,001,2022-04-26_22h10.54.510,SPAMnetsValid,2021.1.4,Win32,59.79788315,,,,,,,,,,,,,,,,,,,,,,,,,,,,,,,,,,,,,,,,,,,,,,,,,,,,,,,,,,,,,,,,,,,,,,,,,,,,,,,,,,,,,,,,,
,,5,3.4698,5,3.4698,0,18,18,31,1,156,melon,rose,,89994,001,2022-04-26_22h10.54.510,SPAMnetsValid,2021.1.4,Win32,59.79788315,,,,,,,,,,,,,,,,,,,,,,,,,,,,,,,,,,,,,,,,,,,,,,,,,,,,,,,,,,,,,,,,,,,,,,,,,,,,,,,,,,,,,,,,,
,,7,6.1651,7,6.1651,0,19,19,36,1,161,kitchen,pretzel,,89994,001,2022-04-26_22h10.54.510,SPAMnetsValid,2021.1.4,Win32,59.79788315,,,,,,,,,,,,,,,,,,,,,,,,,,,,,,,,,,,,,,,,,,,,,,,,,,,,,,,,,,,,,,,,,,,,,,,,,,,,,,,,,,,,,,,,,
,,2,1.2192,2,1.2192,0,20,20,64,1,157,refrigerator,rose,,89994,001,2022-04-26_22h10.54.510,SPAMnetsValid,2021.1.4,Win32,59.79788315,,,,,,,,,,,,,,,,,,,,,,,,,,,,,,,,,,,,,,,,,,,,,,,,,,,,,,,,,,,,,,,,,,,,,,,,,,,,,,,,,,,,,,,,,
,,3,2.8804,3,2.8804,0,21,21,45,1,179,broom,oven,,89994,001,2022-04-26_22h10.54.510,SPAMnetsValid,2021.1.4,Win32,59.79788315,,,,,,,,,,,,,,,,,,,,,,,,,,,,,,,,,,,,,,,,,,,,,,,,,,,,,,,,,,,,,,,,,,,,,,,,,,,,,,,,,,,,,,,,,
,,1,1.9608,1,1.9608,0,22,22,96,1,136,chocolate,microwave,,89994,001,2022-04-26_22h10.54.510,SPAMnetsValid,2021.1.4,Win32,59.79788315,,,,,,,,,,,,,,,,,,,,,,,,,,,,,,,,,,,,,,,,,,,,,,,,,,,,,,,,,,,,,,,,,,,,,,,,,,,,,,,,,,,,,,,,,
,,3,1.6964,3,1.6964,0,23,23,49,1,152,cactus,strawberry,,89994,001,2022-04-26_22h10.54.510,SPAMnetsValid,2021.1.4,Win32,59.79788315,,,,,,,,,,,,,,,,,,,,,,,,,,,,,,,,,,,,,,,,,,,,,,,,,,,,,,,,,,,,,,,,,,,,,,,,,,,,,,,,,,,,,,,,,
,,3,1.019,3,1.019,0,24,24,26,1,107,rose,tomato,,89994,001,2022-04-26_22h10.54.510,SPAMnetsValid,2021.1.4,Win32,59.79788315,,,,,,,,,,,,,,,,,,,,,,,,,,,,,,,,,,,,,,,,,,,,,,,,,,,,,,,,,,,,,,,,,,,,,,,,,,,,,,,,,,,,,,,,,
,,2,1.4935,2,1.4935,0,25,25,23,1,148,flower,melon,,89994,001,2022-04-26_22h10.54.510,SPAMnetsValid,2021.1.4,Win32,59.79788315,,,,,,,,,,,,,,,,,,,,,,,,,,,,,,,,,,,,,,,,,,,,,,,,,,,,,,,,,,,,,,,,,,,,,,,,,,,,,,,,,,,,,,,,,
,,3,1.6985,3,1.6985,0,26,26,42,1,184,oven,pretzel,,89994,001,2022-04-26_22h10.54.510,SPAMnetsValid,2021.1.4,Win32,59.79788315,,,,,,,,,,,,,,,,,,,,,,,,,,,,,,,,,,,,,,,,,,,,,,,,,,,,,,,,,,,,,,,,,,,,,,,,,,,,,,,,,,,,,,,,,
,,5,2.5715,5,2.5715,0,27,27,11,1,117,melon,strawberry,,89994,001,2022-04-26_22h10.54.510,SPAMnetsValid,2021.1.4,Win32,59.79788315,,,,,,,,,,,,,,,,,,,,,,,,,,,,,,,,,,,,,,,,,,,,,,,,,,,,,,,,,,,,,,,,,,,,,,,,,,,,,,,,,,,,,,,,,
,,2,0.9343,2,0.9343,0,28,28,90,1,190,microwave,strawberry,,89994,001,2022-04-26_22h10.54.510,SPAMnetsValid,2021.1.4,Win32,59.79788315,,,,,,,,,,,,,,,,,,,,,,,,,,,,,,,,,,,,,,,,,,,,,,,,,,,,,,,,,,,,,,,,,,,,,,,,,,,,,,,,,,,,,,,,,
,,6,2.2192,6,2.2192,0,29,29,75,1,178,cactus,carrot,,89994,001,2022-04-26_22h10.54.510,SPAMnetsValid,2021.1.4,Win32,59.79788315,,,,,,,,,,,,,,,,,,,,,,,,,,,,,,,,,,,,,,,,,,,,,,,,,,,,,,,,,,,,,,,,,,,,,,,,,,,,,,,,,,,,,,,,,
,,2,1.3883,2,1.3883,0,30,30,59,1,164,cookie,garden,,89994,001,2022-04-26_22h10.54.510,SPAMnetsValid,2021.1.4,Win32,59.79788315,,,,,,,,,,,,,,,,,,,,,,,,,,,,,,,,,,,,,,,,,,,,,,,,,,,,,,,,,,,,,,,,,,,,,,,,,,,,,,,,,,,,,,,,,
,,1,2.8693,1,2.8693,0,31,31,4,1,109,broom,strawberry,,89994,001,2022-04-26_22h10.54.510,SPAMnetsValid,2021.1.4,Win32,59.79788315,,,,,,,,,,,,,,,,,,,,,,,,,,,,,,,,,,,,,,,,,,,,,,,,,,,,,,,,,,,,,,,,,,,,,,,,,,,,,,,,,,,,,,,,,
,,2,1.0739,2,1.0739,0,32,32,32,1,182,flower,refrigerator,,89994,001,2022-04-26_22h10.54.510,SPAMnetsValid,2021.1.4,Win32,59.79788315,,,,,,,,,,,,,,,,,,,,,,,,,,,,,,,,,,,,,,,,,,,,,,,,,,,,,,,,,,,,,,,,,,,,,,,,,,,,,,,,,,,,,,,,,
,,8,1.7135,8,1.7135,0,33,33,69,1,124,oven,refrigerator,,89994,001,2022-04-26_22h10.54.510,SPAMnetsValid,2021.1.4,Win32,59.79788315,,,,,,,,,,,,,,,,,,,,,,,,,,,,,,,,,,,,,,,,,,,,,,,,,,,,,,,,,,,,,,,,,,,,,,,,,,,,,,,,,,,,,,,,,
,,2,1.5029,2,1.5029,0,34,34,79,1,103,pretzel,tomato,,89994,001,2022-04-26_22h10.54.510,SPAMnetsValid,2021.1.4,Win32,59.79788315,,,,,,,,,,,,,,,,,,,,,,,,,,,,,,,,,,,,,,,,,,,,,,,,,,,,,,,,,,,,,,,,,,,,,,,,,,,,,,,,,,,,,,,,,
,,2,1.5361,2,1.5361,0,35,35,46,1,123,cookie,tree,,89994,001,2022-04-26_22h10.54.510,SPAMnetsValid,2021.1.4,Win32,59.79788315,,,,,,,,,,,,,,,,,,,,,,,,,,,,,,,,,,,,,,,,,,,,,,,,,,,,,,,,,,,,,,,,,,,,,,,,,,,,,,,,,,,,,,,,,
,,2,1.6528,2,1.6528,0,36,36,54,1,101,cactus,kitchen,,89994,001,2022-04-26_22h10.54.510,SPAMnetsValid,2021.1.4,Win32,59.79788315,,,,,,,,,,,,,,,,,,,,,,,,,,,,,,,,,,,,,,,,,,,,,,,,,,,,,,,,,,,,,,,,,,,,,,,,,,,,,,,,,,,,,,,,,
,,8,1.6092,8,1.6092,0,37,37,65,1,160,cookie,kitchen,,89994,001,2022-04-26_22h10.54.510,SPAMnetsValid,2021.1.4,Win32,59.79788315,,,,,,,,,,,,,,,,,,,,,,,,,,,,,,,,,,,,,,,,,,,,,,,,,,,,,,,,,,,,,,,,,,,,,,,,,,,,,,,,,,,,,,,,,
,,2,1.2808,2,1.2808,0,38,38,13,1,105,cactus,oven,,89994,001,2022-04-26_22h10.54.510,SPAMnetsValid,2021.1.4,Win32,59.79788315,,,,,,,,,,,,,,,,,,,,,,,,,,,,,,,,,,,,,,,,,,,,,,,,,,,,,,,,,,,,,,,,,,,,,,,,,,,,,,,,,,,,,,,,,
,,2,1.3019,2,1.3019,0,39,39,66,1,150,microwave,refrigerator,,89994,001,2022-04-26_22h10.54.510,SPAMnetsValid,2021.1.4,Win32,59.79788315,,,,,,,,,,,,,,,,,,,,,,,,,,,,,,,,,,,,,,,,,,,,,,,,,,,,,,,,,,,,,,,,,,,,,,,,,,,,,,,,,,,,,,,,,
,,3,1.5812,3,1.5812,0,40,40,95,1,121,broom,microwave,,89994,001,2022-04-26_22h10.54.510,SPAMnetsValid,2021.1.4,Win32,59.79788315,,,,,,,,,,,,,,,,,,,,,,,,,,,,,,,,,,,,,,,,,,,,,,,,,,,,,,,,,,,,,,,,,,,,,,,,,,,,,,,,,,,,,,,,,
,,1,1.2699,1,1.2699,0,41,41,3,1,129,cactus,refrigerator,,89994,001,2022-04-26_22h10.54.510,SPAMnetsValid,2021.1.4,Win32,59.79788315,,,,,,,,,,,,,,,,,,,,,,,,,,,,,,,,,,,,,,,,,,,,,,,,,,,,,,,,,,,,,,,,,,,,,,,,,,,,,,,,,,,,,,,,,
,,5,2.8518,5,2.8518,0,42,42,27,1,158,cookie,oven,,89994,001,2022-04-26_22h10.54.510,SPAMnetsValid,2021.1.4,Win32,59.79788315,,,,,,,,,,,,,,,,,,,,,,,,,,,,,,,,,,,,,,,,,,,,,,,,,,,,,,,,,,,,,,,,,,,,,,,,,,,,,,,,,,,,,,,,,
,,2,1.1032,2,1.1032,0,43,43,55,1,143,pretzel,rose,,89994,001,2022-04-26_22h10.54.510,SPAMnetsValid,2021.1.4,Win32,59.79788315,,,,,,,,,,,,,,,,,,,,,,,,,,,,,,,,,,,,,,,,,,,,,,,,,,,,,,,,,,,,,,,,,,,,,,,,,,,,,,,,,,,,,,,,,
,,3,1.0791,3,1.0791,0,44,44,62,1,189,onion,tree,,89994,001,2022-04-26_22h10.54.510,SPAMnetsValid,2021.1.4,Win32,59.79788315,,,,,,,,,,,,,,,,,,,,,,,,,,,,,,,,,,,,,,,,,,,,,,,,,,,,,,,,,,,,,,,,,,,,,,,,,,,,,,,,,,,,,,,,,
,,7,1.8919,7,1.8919,0,45,45,0,1,106,cake,strawberry,,89994,001,2022-04-26_22h10.54.510,SPAMnetsValid,2021.1.4,Win32,59.79788315,,,,,,,,,,,,,,,,,,,,,,,,,,,,,,,,,,,,,,,,,,,,,,,,,,,,,,,,,,,,,,,,,,,,,,,,,,,,,,,,,,,,,,,,,
,,2,1.7711,2,1.7711,0,46,46,84,1,130,microwave,yogurt,,89994,001,2022-04-26_22h10.54.510,SPAMnetsValid,2021.1.4,Win32,59.79788315,,,,,,,,,,,,,,,,,,,,,,,,,,,,,,,,,,,,,,,,,,,,,,,,,,,,,,,,,,,,,,,,,,,,,,,,,,,,,,,,,,,,,,,,,
,,2,0.8074,2,0.8074,0,47,47,63,1,137,microwave,tree,,89994,001,2022-04-26_22h10.54.510,SPAMnetsValid,2021.1.4,Win32,59.79788315,,,,,,,,,,,,,,,,,,,,,,,,,,,,,,,,,,,,,,,,,,,,,,,,,,,,,,,,,,,,,,,,,,,,,,,,,,,,,,,,,,,,,,,,,
,,2,1.0215,2,1.0215,0,48,48,71,1,187,cactus,microwave,,89994,001,2022-04-26_22h10.54.510,SPAMnetsValid,2021.1.4,Win32,59.79788315,,,,,,,,,,,,,,,,,,,,,,,,,,,,,,,,,,,,,,,,,,,,,,,,,,,,,,,,,,,,,,,,,,,,,,,,,,,,,,,,,,,,,,,,,
,,1,4.8857,1,4.8857,0,49,49,76,1,102,chocolate,refrigerator,,89994,001,2022-04-26_22h10.54.510,SPAMnetsValid,2021.1.4,Win32,59.79788315,,,,,,,,,,,,,,,,,,,,,,,,,,,,,,,,,,,,,,,,,,,,,,,,,,,,,,,,,,,,,,,,,,,,,,,,,,,,,,,,,,,,,,,,,
,,1,3.5832,1,3.5832,0,50,50,16,1,111,carrot,microwave,,89994,001,2022-04-26_22h10.54.510,SPAMnetsValid,2021.1.4,Win32,59.79788315,,,,,,,,,,,,,,,,,,,,,,,,,,,,,,,,,,,,,,,,,,,,,,,,,,,,,,,,,,,,,,,,,,,,,,,,,,,,,,,,,,,,,,,,,
,,2,1.542,2,1.542,0,51,51,41,1,175,melon,onion,,89994,001,2022-04-26_22h10.54.510,SPAMnetsValid,2021.1.4,Win32,59.79788315,,,,,,,,,,,,,,,,,,,,,,,,,,,,,,,,,,,,,,,,,,,,,,,,,,,,,,,,,,,,,,,,,,,,,,,,,,,,,,,,,,,,,,,,,
,,4,2.1529,4,2.1529,0,52,52,78,1,132,broom,tree,,89994,001,2022-04-26_22h10.54.510,SPAMnetsValid,2021.1.4,Win32,59.79788315,,,,,,,,,,,,,,,,,,,,,,,,,,,,,,,,,,,,,,,,,,,,,,,,,,,,,,,,,,,,,,,,,,,,,,,,,,,,,,,,,,,,,,,,,
,,6,2.6151,6,2.6151,0,53,53,94,1,133,cake,flower,,89994,001,2022-04-26_22h10.54.510,SPAMnetsValid,2021.1.4,Win32,59.79788315,,,,,,,,,,,,,,,,,,,,,,,,,,,,,,,,,,,,,,,,,,,,,,,,,,,,,,,,,,,,,,,,,,,,,,,,,,,,,,,,,,,,,,,,,
,,2,3.0683,2,3.0683,0,54,54,21,1,159,cookie,flower,,89994,001,2022-04-26_22h10.54.510,SPAMnetsValid,2021.1.4,Win32,59.79788315,,,,,,,,,,,,,,,,,,,,,,,,,,,,,,,,,,,,,,,,,,,,,,,,,,,,,,,,,,,,,,,,,,,,,,,,,,,,,,,,,,,,,,,,,
,,2,1.4451,2,1.4451,0,55,55,29,1,163,melon,refrigerator,,89994,001,2022-04-26_22h10.54.510,SPAMnetsValid,2021.1.4,Win32,59.79788315,,,,,,,,,,,,,,,,,,,,,,,,,,,,,,,,,,,,,,,,,,,,,,,,,,,,,,,,,,,,,,,,,,,,,,,,,,,,,,,,,,,,,,,,,
,,7,2.7329,7,2.7329,0,56,56,83,1,100,garden,tomato,,89994,001,2022-04-26_22h10.54.510,SPAMnetsValid,2021.1.4,Win32,59.79788315,,,,,,,,,,,,,,,,,,,,,,,,,,,,,,,,,,,,,,,,,,,,,,,,,,,,,,,,,,,,,,,,,,,,,,,,,,,,,,,,,,,,,,,,,
,,3,1.2245,3,1.2245,0,57,57,24,1,169,onion,yogurt,,89994,001,2022-04-26_22h10.54.510,SPAMnetsValid,2021.1.4,Win32,59.79788315,,,,,,,,,,,,,,,,,,,,,,,,,,,,,,,,,,,,,,,,,,,,,,,,,,,,,,,,,,,,,,,,,,,,,,,,,,,,,,,,,,,,,,,,,
,,7,2.4523,7,2.4523,0,58,58,10,1,118,chocolate,oven,,89994,001,2022-04-26_22h10.54.510,SPAMnetsValid,2021.1.4,Win32,59.79788315,,,,,,,,,,,,,,,,,,,,,,,,,,,,,,,,,,,,,,,,,,,,,,,,,,,,,,,,,,,,,,,,,,,,,,,,,,,,,,,,,,,,,,,,,
,,2,1.9408,2,1.9408,0,59,59,58,1,144,cake,garden,,89994,001,2022-04-26_22h10.54.510,SPAMnetsValid,2021.1.4,Win32,59.79788315,,,,,,,,,,,,,,,,,,,,,,,,,,,,,,,,,,,,,,,,,,,,,,,,,,,,,,,,,,,,,,,,,,,,,,,,,,,,,,,,,,,,,,,,,
,,8,1.6635,8,1.6635,0,60,60,14,1,120,microwave,oven,,89994,001,2022-04-26_22h10.54.510,SPAMnetsValid,2021.1.4,Win32,59.79788315,,,,,,,,,,,,,,,,,,,,,,,,,,,,,,,,,,,,,,,,,,,,,,,,,,,,,,,,,,,,,,,,,,,,,,,,,,,,,,,,,,,,,,,,,
,,8,1.902,8,1.902,0,61,61,53,1,177,chocolate,strawberry,,89994,001,2022-04-26_22h10.54.510,SPAMnetsValid,2021.1.4,Win32,59.79788315,,,,,,,,,,,,,,,,,,,,,,,,,,,,,,,,,,,,,,,,,,,,,,,,,,,,,,,,,,,,,,,,,,,,,,,,,,,,,,,,,,,,,,,,,
,,5,2.5205,5,2.5205,0,62,62,38,1,155,carrot,cookie,,89994,001,2022-04-26_22h10.54.510,SPAMnetsValid,2021.1.4,Win32,59.79788315,,,,,,,,,,,,,,,,,,,,,,,,,,,,,,,,,,,,,,,,,,,,,,,,,,,,,,,,,,,,,,,,,,,,,,,,,,,,,,,,,,,,,,,,,
,,7,4.1993,7,4.1993,0,63,63,8,1,97,chocolate,kitchen,,89994,001,2022-04-26_22h10.54.510,SPAMnetsValid,2021.1.4,Win32,59.79788315,,,,,,,,,,,,,,,,,,,,,,,,,,,,,,,,,,,,,,,,,,,,,,,,,,,,,,,,,,,,,,,,,,,,,,,,,,,,,,,,,,,,,,,,,
,,2,1.5609,2,1.5609,0,64,64,81,1,104,garden,microwave,,89994,001,2022-04-26_22h10.54.510,SPAMnetsValid,2021.1.4,Win32,59.79788315,,,,,,,,,,,,,,,,,,,,,,,,,,,,,,,,,,,,,,,,,,,,,,,,,,,,,,,,,,,,,,,,,,,,,,,,,,,,,,,,,,,,,,,,,
,,2,3.2384,2,3.2384,0,65,65,72,1,181,carrot,kitchen,,89994,001,2022-04-26_22h10.54.510,SPAMnetsValid,2021.1.4,Win32,59.79788315,,,,,,,,,,,,,,,,,,,,,,,,,,,,,,,,,,,,,,,,,,,,,,,,,,,,,,,,,,,,,,,,,,,,,,,,,,,,,,,,,,,,,,,,,
,,4,1.7418,4,1.7418,0,66,66,7,1,188,flower,tree,,89994,001,2022-04-26_22h10.54.510,SPAMnetsValid,2021.1.4,Win32,59.79788315,,,,,,,,,,,,,,,,,,,,,,,,,,,,,,,,,,,,,,,,,,,,,,,,,,,,,,,,,,,,,,,,,,,,,,,,,,,,,,,,,,,,,,,,,
,,7,1.0558,7,1.0558,0,67,67,17,1,99,garden,melon,,89994,001,2022-04-26_22h10.54.510,SPAMnetsValid,2021.1.4,Win32,59.79788315,,,,,,,,,,,,,,,,,,,,,,,,,,,,,,,,,,,,,,,,,,,,,,,,,,,,,,,,,,,,,,,,,,,,,,,,,,,,,,,,,,,,,,,,,
,,5,3.0083,5,3.0083,0,68,68,87,1,114,cookie,strawberry,,89994,001,2022-04-26_22h10.54.510,SPAMnetsValid,2021.1.4,Win32,59.79788315,,,,,,,,,,,,,,,,,,,,,,,,,,,,,,,,,,,,,,,,,,,,,,,,,,,,,,,,,,,,,,,,,,,,,,,,,,,,,,,,,,,,,,,,,
,,6,4.672,6,4.672,0,69,69,35,1,147,cake,refrigerator,,89994,001,2022-04-26_22h10.54.510,SPAMnetsValid,2021.1.4,Win32,59.79788315,,,,,,,,,,,,,,,,,,,,,,,,,,,,,,,,,,,,,,,,,,,,,,,,,,,,,,,,,,,,,,,,,,,,,,,,,,,,,,,,,,,,,,,,,
,,3,1.502,3,1.502,0,70,70,85,1,115,refrigerator,tomato,,89994,001,2022-04-26_22h10.54.510,SPAMnetsValid,2021.1.4,Win32,59.79788315,,,,,,,,,,,,,,,,,,,,,,,,,,,,,,,,,,,,,,,,,,,,,,,,,,,,,,,,,,,,,,,,,,,,,,,,,,,,,,,,,,,,,,,,,
,,3,1.4393,3,1.4393,0,71,71,20,1,149,broom,tomato,,89994,001,2022-04-26_22h10.54.510,SPAMnetsValid,2021.1.4,Win32,59.79788315,,,,,,,,,,,,,,,,,,,,,,,,,,,,,,,,,,,,,,,,,,,,,,,,,,,,,,,,,,,,,,,,,,,,,,,,,,,,,,,,,,,,,,,,,
,,7,1.6947,7,1.6947,0,72,72,77,1,172,kitchen,melon,,89994,001,2022-04-26_22h10.54.510,SPAMnetsValid,2021.1.4,Win32,59.79788315,,,,,,,,,,,,,,,,,,,,,,,,,,,,,,,,,,,,,,,,,,,,,,,,,,,,,,,,,,,,,,,,,,,,,,,,,,,,,,,,,,,,,,,,,
,,8,1.6018,8,1.6018,0,73,73,52,1,110,chocolate,cookie,,89994,001,2022-04-26_22h10.54.510,SPAMnetsValid,2021.1.4,Win32,59.79788315,,,,,,,,,,,,,,,,,,,,,,,,,,,,,,,,,,,,,,,,,,,,,,,,,,,,,,,,,,,,,,,,,,,,,,,,,,,,,,,,,,,,,,,,,
,,2,1.3199,2,1.3199,0,74,74,74,1,128,melon,microwave,,89994,001,2022-04-26_22h10.54.510,SPAMnetsValid,2021.1.4,Win32,59.79788315,,,,,,,,,,,,,,,,,,,,,,,,,,,,,,,,,,,,,,,,,,,,,,,,,,,,,,,,,,,,,,,,,,,,,,,,,,,,,,,,,,,,,,,,,
,,2,1.1995,2,1.1995,0,75,75,93,1,134,carrot,flower,,89994,001,2022-04-26_22h10.54.510,SPAMnetsValid,2021.1.4,Win32,59.79788315,,,,,,,,,,,,,,,,,,,,,,,,,,,,,,,,,,,,,,,,,,,,,,,,,,,,,,,,,,,,,,,,,,,,,,,,,,,,,,,,,,,,,,,,,
,,2,2.2113,2,2.2113,0,76,76,6,1,151,microwave,onion,,89994,001,2022-04-26_22h10.54.510,SPAMnetsValid,2021.1.4,Win32,59.79788315,,,,,,,,,,,,,,,,,,,,,,,,,,,,,,,,,,,,,,,,,,,,,,,,,,,,,,,,,,,,,,,,,,,,,,,,,,,,,,,,,,,,,,,,,
,,2,1.7906,2,1.7906,0,77,77,88,1,171,cake,tomato,,89994,001,2022-04-26_22h10.54.510,SPAMnetsValid,2021.1.4,Win32,59.79788315,,,,,,,,,,,,,,,,,,,,,,,,,,,,,,,,,,,,,,,,,,,,,,,,,,,,,,,,,,,,,,,,,,,,,,,,,,,,,,,,,,,,,,,,,
,,9,2.3854,9,2.3854,0,78,78,25,1,194,cactus,cactus,CHECK,89994,001,2022-04-26_22h10.54.510,SPAMnetsValid,2021.1.4,Win32,59.79788315,,,,,,,,,,,,,,,,,,,,,,,,,,,,,,,,,,,,,,,,,,,,,,,,,,,,,,,,,,,,,,,,,,,,,,,,,,,,,,,,,,,,,,,,,
,,4,8.0698,4,8.0698,0,79,79,56,1,113,refrigerator,strawberry,,89994,001,2022-04-26_22h10.54.510,SPAMnetsValid,2021.1.4,Win32,59.79788315,,,,,,,,,,,,,,,,,,,,,,,,,,,,,,,,,,,,,,,,,,,,,,,,,,,,,,,,,,,,,,,,,,,,,,,,,,,,,,,,,,,,,,,,,
,,9,1.5953,9,1.5953,0,80,80,86,1,193,melon,melon,CHECK,89994,001,2022-04-26_22h10.54.510,SPAMnetsValid,2021.1.4,Win32,59.79788315,,,,,,,,,,,,,,,,,,,,,,,,,,,,,,,,,,,,,,,,,,,,,,,,,,,,,,,,,,,,,,,,,,,,,,,,,,,,,,,,,,,,,,,,,
,,2,1.1924,2,1.1924,0,81,81,51,1,168,cactus,flower,,89994,001,2022-04-26_22h10.54.510,SPAMnetsValid,2021.1.4,Win32,59.79788315,,,,,,,,,,,,,,,,,,,,,,,,,,,,,,,,,,,,,,,,,,,,,,,,,,,,,,,,,,,,,,,,,,,,,,,,,,,,,,,,,,,,,,,,,
,,3,1.3269,3,1.3269,0,82,82,18,1,119,strawberry,tree,,89994,001,2022-04-26_22h10.54.510,SPAMnetsValid,2021.1.4,Win32,59.79788315,,,,,,,,,,,,,,,,,,,,,,,,,,,,,,,,,,,,,,,,,,,,,,,,,,,,,,,,,,,,,,,,,,,,,,,,,,,,,,,,,,,,,,,,,
,,4,2.8206,4,2.8206,0,83,83,91,1,166,cake,yogurt,,89994,001,2022-04-26_22h10.54.510,SPAMnetsValid,2021.1.4,Win32,59.79788315,,,,,,,,,,,,,,,,,,,,,,,,,,,,,,,,,,,,,,,,,,,,,,,,,,,,,,,,,,,,,,,,,,,,,,,,,,,,,,,,,,,,,,,,,
,,7,2.2274,7,2.2274,0,84,84,44,1,116,cake,chocolate,,89994,001,2022-04-26_22h10.54.510,SPAMnetsValid,2021.1.4,Win32,59.79788315,,,,,,,,,,,,,,,,,,,,,,,,,,,,,,,,,,,,,,,,,,,,,,,,,,,,,,,,,,,,,,,,,,,,,,,,,,,,,,,,,,,,,,,,,
,,2,1.0364,2,1.0364,0,85,85,50,1,126,kitchen,tree,,89994,001,2022-04-26_22h10.54.510,SPAMnetsValid,2021.1.4,Win32,59.79788315,,,,,,,,,,,,,,,,,,,,,,,,,,,,,,,,,,,,,,,,,,,,,,,,,,,,,,,,,,,,,,,,,,,,,,,,,,,,,,,,,,,,,,,,,
,,4,2.7516,4,2.7516,0,86,86,33,1,131,cactus,garden,,89994,001,2022-04-26_22h10.54.510,SPAMnetsValid,2021.1.4,Win32,59.79788315,,,,,,,,,,,,,,,,,,,,,,,,,,,,,,,,,,,,,,,,,,,,,,,,,,,,,,,,,,,,,,,,,,,,,,,,,,,,,,,,,,,,,,,,,
,,5,2.4568,5,2.4568,0,87,87,1,1,173,kitchen,tomato,,89994,001,2022-04-26_22h10.54.510,SPAMnetsValid,2021.1.4,Win32,59.79788315,,,,,,,,,,,,,,,,,,,,,,,,,,,,,,,,,,,,,,,,,,,,,,,,,,,,,,,,,,,,,,,,,,,,,,,,,,,,,,,,,,,,,,,,,
,,7,1.5247,7,1.5247,0,88,88,28,1,154,strawberry,yogurt,,89994,001,2022-04-26_22h10.54.510,SPAMnetsValid,2021.1.4,Win32,59.79788315,,,,,,,,,,,,,,,,,,,,,,,,,,,,,,,,,,,,,,,,,,,,,,,,,,,,,,,,,,,,,,,,,,,,,,,,,,,,,,,,,,,,,,,,,
,,2,1.4369,2,1.4369,0,89,89,60,1,122,flower,garden,,89994,001,2022-04-26_22h10.54.510,SPAMnetsValid,2021.1.4,Win32,59.79788315,,,,,,,,,,,,,,,,,,,,,,,,,,,,,,,,,,,,,,,,,,,,,,,,,,,,,,,,,,,,,,,,,,,,,,,,,,,,,,,,,,,,,,,,,
,,2,1.224,2,1.224,0,90,90,30,1,125,carrot,tree,,89994,001,2022-04-26_22h10.54.510,SPAMnetsValid,2021.1.4,Win32,59.79788315,,,,,,,,,,,,,,,,,,,,,,,,,,,,,,,,,,,,,,,,,,,,,,,,,,,,,,,,,,,,,,,,,,,,,,,,,,,,,,,,,,,,,,,,,
,,5,1.8044,5,1.8044,0,91,91,48,1,186,kitchen,yogurt,,89994,001,2022-04-26_22h10.54.510,SPAMnetsValid,2021.1.4,Win32,59.79788315,,,,,,,,,,,,,,,,,,,,,,,,,,,,,,,,,,,,,,,,,,,,,,,,,,,,,,,,,,,,,,,,,,,,,,,,,,,,,,,,,,,,,,,,,
,,3,1.7633,3,1.7633,0,92,92,34,1,153,carrot,pretzel,,89994,001,2022-04-26_22h10.54.510,SPAMnetsValid,2021.1.4,Win32,59.79788315,,,,,,,,,,,,,,,,,,,,,,,,,,,,,,,,,,,,,,,,,,,,,,,,,,,,,,,,,,,,,,,,,,,,,,,,,,,,,,,,,,,,,,,,,
,,3,2.5603,3,2.5603,0,93,93,67,1,96,oven,strawberry,,89994,001,2022-04-26_22h10.54.510,SPAMnetsValid,2021.1.4,Win32,59.79788315,,,,,,,,,,,,,,,,,,,,,,,,,,,,,,,,,,,,,,,,,,,,,,,,,,,,,,,,,,,,,,,,,,,,,,,,,,,,,,,,,,,,,,,,,
,,3,1.0753,3,1.0753,0,94,94,80,1,146,pretzel,tree,,89994,001,2022-04-26_22h10.54.510,SPAMnetsValid,2021.1.4,Win32,59.79788315,,,,,,,,,,,,,,,,,,,,,,,,,,,,,,,,,,,,,,,,,,,,,,,,,,,,,,,,,,,,,,,,,,,,,,,,,,,,,,,,,,,,,,,,,
,,2,1.9187,2,1.9187,0,95,95,15,1,145,cactus,yogurt,,89994,001,2022-04-26_22h10.54.510,SPAMnetsValid,2021.1.4,Win32,59.79788315,,,,,,,,,,,,,,,,,,,,,,,,,,,,,,,,,,,,,,,,,,,,,,,,,,,,,,,,,,,,,,,,,,,,,,,,,,,,,,,,,,,,,,,,,
,,2,1.1104,2,1.1104,0,96,96,82,1,98,pretzel,strawberry,,89994,001,2022-04-26_22h10.54.510,SPAMnetsValid,2021.1.4,Win32,59.79788315,,,,,,,,,,,,,,,,,,,,,,,,,,,,,,,,,,,,,,,,,,,,,,,,,,,,,,,,,,,,,,,,,,,,,,,,,,,,,,,,,,,,,,,,,
,,,,,,,,,,,,,,,89994,001,2022-04-26_22h10.54.510,SPAMnetsValid,2021.1.4,Win32,59.79788315,0,0,0,0,1,,,,,,,,,,,,,,,,,,,,,,,,,,,,,,,,,,,,,,,,,,,,,,,,,,,,,,,,,,,,,,,,,,,,,,,,,,,,,,,,,,,,
,,,,,,,,,,,,,,,89994,001,2022-04-26_22h10.54.510,SPAMnetsValid,2021.1.4,Win32,59.79788315,,,,,,0,0,0,1,1,0,1,,,,,,,,,,,,,,,,,,,,,,,,,,,,,,,,,,,,,,,,,,,,,,,,,,,,,,,,,,,,,,,,,,,,,,,,,,,,,
,,,,2,3.8806,,,,,,21,cake,onion,,89994,001,2022-04-26_22h10.54.510,SPAMnetsValid,2021.1.4,Win32,59.79788315,,,,,,,,,,,,,2,3.8806,0,0,0,63,1,,,,,,,,,,,,,,,,,,,,,,,,,,,,,,,,,,,,,,,,,,,,,,,,,,,,,,,,,,,,,,,,,,,,,,
,,,,2,1.819,,,,,,50,carrot,rose,,89994,001,2022-04-26_22h10.54.510,SPAMnetsValid,2021.1.4,Win32,59.79788315,,,,,,,,,,,,,2,1.819,0,1,1,73,1,,,,,,,,,,,,,,,,,,,,,,,,,,,,,,,,,,,,,,,,,,,,,,,,,,,,,,,,,,,,,,,,,,,,,,
,,,,1,2.2531,,,,,,90,cactus,cake,,89994,001,2022-04-26_22h10.54.510,SPAMnetsValid,2021.1.4,Win32,59.79788315,,,,,,,,,,,,,1,2.2531,0,2,2,85,1,,,,,,,,,,,,,,,,,,,,,,,,,,,,,,,,,,,,,,,,,,,,,,,,,,,,,,,,,,,,,,,,,,,,,,
,,,,2,1.5693,,,,,,38,pretzel,refrigerator,,89994,001,2022-04-26_22h10.54.510,SPAMnetsValid,2021.1.4,Win32,59.79788315,,,,,,,,,,,,,2,1.5693,0,3,3,71,1,,,,,,,,,,,,,,,,,,,,,,,,,,,,,,,,,,,,,,,,,,,,,,,,,,,,,,,,,,,,,,,,,,,,,,
,,,,4,1.5895,,,,,,82,cake,kitchen,,89994,001,2022-04-26_22h10.54.510,SPAMnetsValid,2021.1.4,Win32,59.79788315,,,,,,,,,,,,,4,1.5895,0,4,4,96,1,,,,,,,,,,,,,,,,,,,,,,,,,,,,,,,,,,,,,,,,,,,,,,,,,,,,,,,,,,,,,,,,,,,,,,
,,,,1,2.6209,,,,,,43,chocolate,tomato,,89994,001,2022-04-26_22h10.54.510,SPAMnetsValid,2021.1.4,Win32,59.79788315,,,,,,,,,,,,,1,2.6209,0,5,5,8,1,,,,,,,,,,,,,,,,,,,,,,,,,,,,,,,,,,,,,,,,,,,,,,,,,,,,,,,,,,,,,,,,,,,,,,
,,,,8,1.6753,,,,,,79,garden,strawberry,,89994,001,2022-04-26_22h10.54.510,SPAMnetsValid,2021.1.4,Win32,59.79788315,,,,,,,,,,,,,8,1.6753,0,6,6,87,1,,,,,,,,,,,,,,,,,,,,,,,,,,,,,,,,,,,,,,,,,,,,,,,,,,,,,,,,,,,,,,,,,,,,,,
,,,,3,1.2865,,,,,,62,kitchen,rose,,89994,001,2022-04-26_22h10.54.510,SPAMnetsValid,2021.1.4,Win32,59.79788315,,,,,,,,,,,,,3,1.2865,0,7,7,57,1,,,,,,,,,,,,,,,,,,,,,,,,,,,,,,,,,,,,,,,,,,,,,,,,,,,,,,,,,,,,,,,,,,,,,,
,,,,2,3.9942,,,,,,30,cookie,pretzel,,89994,001,2022-04-26_22h10.54.510,SPAMnetsValid,2021.1.4,Win32,59.79788315,,,,,,,,,,,,,2,3.9942,0,8,8,78,1,,,,,,,,,,,,,,,,,,,,,,,,,,,,,,,,,,,,,,,,,,,,,,,,,,,,,,,,,,,,,,,,,,,,,,
,,,,1,1.6203,,,,,,41,broom,cactus,,89994,001,2022-04-26_22h10.54.510,SPAMnetsValid,2021.1.4,Win32,59.79788315,,,,,,,,,,,,,1,1.6203,0,9,9,46,1,,,,,,,,,,,,,,,,,,,,,,,,,,,,,,,,,,,,,,,,,,,,,,,,,,,,,,,,,,,,,,,,,,,,,,
,,,,3,1.5391,,,,,,34,melon,oven,,89994,001,2022-04-26_22h10.54.510,SPAMnetsValid,2021.1.4,Win32,59.79788315,,,,,,,,,,,,,3,1.5391,0,10,10,7,1,,,,,,,,,,,,,,,,,,,,,,,,,,,,,,,,,,,,,,,,,,,,,,,,,,,,,,,,,,,,,,,,,,,,,,
,,,,4,3.0548,,,,,,69,carrot,refrigerator,,89994,001,2022-04-26_22h10.54.510,SPAMnetsValid,2021.1.4,Win32,59.79788315,,,,,,,,,,,,,4,3.0548,0,11,11,75,1,,,,,,,,,,,,,,,,,,,,,,,,,,,,,,,,,,,,,,,,,,,,,,,,,,,,,,,,,,,,,,,,,,,,,,
,,,,1,1.4579,,,,,,51,onion,strawberry,,89994,001,2022-04-26_22h10.54.510,SPAMnetsValid,2021.1.4,Win32,59.79788315,,,,,,,,,,,,,1,1.4579,0,12,12,86,1,,,,,,,,,,,,,,,,,,,,,,,,,,,,,,,,,,,,,,,,,,,,,,,,,,,,,,,,,,,,,,,,,,,,,,
,,,,2,2.3603,,,,,,63,cake,cookie,,89994,001,2022-04-26_22h10.54.510,SPAMnetsValid,2021.1.4,Win32,59.79788315,,,,,,,,,,,,,2,2.3603,0,13,13,93,1,,,,,,,,,,,,,,,,,,,,,,,,,,,,,,,,,,,,,,,,,,,,,,,,,,,,,,,,,,,,,,,,,,,,,,
,,,,1,1.7232,,,,,,25,carrot,onion,,89994,001,2022-04-26_22h10.54.510,SPAMnetsValid,2021.1.4,Win32,59.79788315,,,,,,,,,,,,,1,1.7232,0,14,14,44,1,,,,,,,,,,,,,,,,,,,,,,,,,,,,,,,,,,,,,,,,,,,,,,,,,,,,,,,,,,,,,,,,,,,,,,
,,,,1,1.6863,,,,,,91,microwave,rose,,89994,001,2022-04-26_22h10.54.510,SPAMnetsValid,2021.1.4,Win32,59.79788315,,,,,,,,,,,,,1,1.6863,0,15,15,84,1,,,,,,,,,,,,,,,,,,,,,,,,,,,,,,,,,,,,,,,,,,,,,,,,,,,,,,,,,,,,,,,,,,,,,,
,,,,2,6.7404,,,,,,10,flower,onion,,89994,001,2022-04-26_22h10.54.510,SPAMnetsValid,2021.1.4,Win32,59.79788315,,,,,,,,,,,,,2,6.7404,0,16,16,45,1,,,,,,,,,,,,,,,,,,,,,,,,,,,,,,,,,,,,,,,,,,,,,,,,,,,,,,,,,,,,,,,,,,,,,,
,,,,3,1.4868,,,,,,78,cookie,rose,,89994,001,2022-04-26_22h10.54.510,SPAMnetsValid,2021.1.4,Win32,59.79788315,,,,,,,,,,,,,3,1.4868,0,17,17,56,1,,,,,,,,,,,,,,,,,,,,,,,,,,,,,,,,,,,,,,,,,,,,,,,,,,,,,,,,,,,,,,,,,,,,,,
,,,,1,1.4122,,,,,,31,cactus,pretzel,,89994,001,2022-04-26_22h10.54.510,SPAMnetsValid,2021.1.4,Win32,59.79788315,,,,,,,,,,,,,1,1.4122,0,18,18,1,1,,,,,,,,,,,,,,,,,,,,,,,,,,,,,,,,,,,,,,,,,,,,,,,,,,,,,,,,,,,,,,,,,,,,,,
,,,,9,1.7143,,,,,,192,microwave,microwave,CHECK,89994,001,2022-04-26_22h10.54.510,SPAMnetsValid,2021.1.4,Win32,59.79788315,,,,,,,,,,,,,9,1.7143,0,19,19,53,1,,,,,,,,,,,,,,,,,,,,,,,,,,,,,,,,,,,,,,,,,,,,,,,,,,,,,,,,,,,,,,,,,,,,,,
,,,,4,2.3524,,,,,,16,chocolate,flower,,89994,001,2022-04-26_22h10.54.510,SPAMnetsValid,2021.1.4,Win32,59.79788315,,,,,,,,,,,,,4,2.3524,0,20,20,22,1,,,,,,,,,,,,,,,,,,,,,,,,,,,,,,,,,,,,,,,,,,,,,,,,,,,,,,,,,,,,,,,,,,,,,,
,,,,2,2.1716,,,,,,57,flower,kitchen,,89994,001,2022-04-26_22h10.54.510,SPAMnetsValid,2021.1.4,Win32,59.79788315,,,,,,,,,,,,,2,2.1716,0,21,21,49,1,,,,,,,,,,,,,,,,,,,,,,,,,,,,,,,,,,,,,,,,,,,,,,,,,,,,,,,,,,,,,,,,,,,,,,
,,,,1,1.3484,,,,,,52,carrot,tomato,,89994,001,2022-04-26_22h10.54.510,SPAMnetsValid,2021.1.4,Win32,59.79788315,,,,,,,,,,,,,1,1.3484,0,22,22,95,1,,,,,,,,,,,,,,,,,,,,,,,,,,,,,,,,,,,,,,,,,,,,,,,,,,,,,,,,,,,,,,,,,,,,,,
,,,,2,1.1517,,,,,,39,melon,pretzel,,89994,001,2022-04-26_22h10.54.510,SPAMnetsValid,2021.1.4,Win32,59.79788315,,,,,,,,,,,,,2,1.1517,0,23,23,20,1,,,,,,,,,,,,,,,,,,,,,,,,,,,,,,,,,,,,,,,,,,,,,,,,,,,,,,,,,,,,,,,,,,,,,,
,,,,1,1.378,,,,,,73,broom,chocolate,,89994,001,2022-04-26_22h10.54.510,SPAMnetsValid,2021.1.4,Win32,59.79788315,,,,,,,,,,,,,1,1.378,0,24,24,47,1,,,,,,,,,,,,,,,,,,,,,,,,,,,,,,,,,,,,,,,,,,,,,,,,,,,,,,,,,,,,,,,,,,,,,,
,,,,6,1.6532,,,,,,7,melon,tree,,89994,001,2022-04-26_22h10.54.510,SPAMnetsValid,2021.1.4,Win32,59.79788315,,,,,,,,,,,,,6,1.6532,0,25,25,77,1,,,,,,,,,,,,,,,,,,,,,,,,,,,,,,,,,,,,,,,,,,,,,,,,,,,,,,,,,,,,,,,,,,,,,,
,,,,2,3.2043,,,,,,32,cake,microwave,,89994,001,2022-04-26_22h10.54.510,SPAMnetsValid,2021.1.4,Win32,59.79788315,,,,,,,,,,,,,2,3.2043,0,26,26,33,1,,,,,,,,,,,,,,,,,,,,,,,,,,,,,,,,,,,,,,,,,,,,,,,,,,,,,,,,,,,,,,,,,,,,,,
,,,,2,3.5682,,,,,,58,garden,oven,,89994,001,2022-04-26_22h10.54.510,SPAMnetsValid,2021.1.4,Win32,59.79788315,,,,,,,,,,,,,2,3.5682,0,27,27,37,1,,,,,,,,,,,,,,,,,,,,,,,,,,,,,,,,,,,,,,,,,,,,,,,,,,,,,,,,,,,,,,,,,,,,,,
,,,,3,2.3232,,,,,,19,microwave,pretzel,,89994,001,2022-04-26_22h10.54.510,SPAMnetsValid,2021.1.4,Win32,59.79788315,,,,,,,,,,,,,3,2.3232,0,28,28,41,1,,,,,,,,,,,,,,,,,,,,,,,,,,,,,,,,,,,,,,,,,,,,,,,,,,,,,,,,,,,,,,,,,,,,,,
,,,,1,1.887,,,,,,53,garden,pretzel,,89994,001,2022-04-26_22h10.54.510,SPAMnetsValid,2021.1.4,Win32,59.79788315,,,,,,,,,,,,,1,1.887,0,29,29,0,1,,,,,,,,,,,,,,,,,,,,,,,,,,,,,,,,,,,,,,,,,,,,,,,,,,,,,,,,,,,,,,,,,,,,,,
,,,,9,1.1023,,,,,,191,cake,cake,CHECK,89994,001,2022-04-26_22h10.54.510,SPAMnetsValid,2021.1.4,Win32,59.79788315,,,,,,,,,,,,,9,1.1023,0,30,30,10,1,,,,,,,,,,,,,,,,,,,,,,,,,,,,,,,,,,,,,,,,,,,,,,,,,,,,,,,,,,,,,,,,,,,,,,
,,,,7,3.9268,,,,,,94,kitchen,microwave,,89994,001,2022-04-26_22h10.54.510,SPAMnetsValid,2021.1.4,Win32,59.79788315,,,,,,,,,,,,,7,3.9268,0,31,31,58,1,,,,,,,,,,,,,,,,,,,,,,,,,,,,,,,,,,,,,,,,,,,,,,,,,,,,,,,,,,,,,,,,,,,,,,
,,,,3,1.9525,,,,,,65,broom,garden,,89994,001,2022-04-26_22h10.54.510,SPAMnetsValid,2021.1.4,Win32,59.79788315,,,,,,,,,,,,,3,1.9525,0,32,32,23,1,,,,,,,,,,,,,,,,,,,,,,,,,,,,,,,,,,,,,,,,,,,,,,,,,,,,,,,,,,,,,,,,,,,,,,
,,,,2,1.7865,,,,,,40,broom,cake,,89994,001,2022-04-26_22h10.54.510,SPAMnetsValid,2021.1.4,Win32,59.79788315,,,,,,,,,,,,,2,1.7865,0,33,33,32,1,,,,,,,,,,,,,,,,,,,,,,,,,,,,,,,,,,,,,,,,,,,,,,,,,,,,,,,,,,,,,,,,,,,,,,
,,,,7,1.7587,,,,,,77,refrigerator,yogurt,,89994,001,2022-04-26_22h10.54.510,SPAMnetsValid,2021.1.4,Win32,59.79788315,,,,,,,,,,,,,7,1.7587,0,34,34,42,1,,,,,,,,,,,,,,,,,,,,,,,,,,,,,,,,,,,,,,,,,,,,,,,,,,,,,,,,,,,,,,,,,,,,,,
,,,,8,1.2184,,,,,,54,chocolate,yogurt,,89994,001,2022-04-26_22h10.54.510,SPAMnetsValid,2021.1.4,Win32,59.79788315,,,,,,,,,,,,,8,1.2184,0,35,35,67,1,,,,,,,,,,,,,,,,,,,,,,,,,,,,,,,,,,,,,,,,,,,,,,,,,,,,,,,,,,,,,,,,,,,,,,
,,,,1,1.198,,,,,,83,broom,carrot,,89994,001,2022-04-26_22h10.54.510,SPAMnetsValid,2021.1.4,Win32,59.79788315,,,,,,,,,,,,,1,1.198,0,36,36,4,1,,,,,,,,,,,,,,,,,,,,,,,,,,,,,,,,,,,,,,,,,,,,,,,,,,,,,,,,,,,,,,,,,,,,,,
,,,,2,1.6023,,,,,,88,cactus,melon,,89994,001,2022-04-26_22h10.54.510,SPAMnetsValid,2021.1.4,Win32,59.79788315,,,,,,,,,,,,,2,1.6023,0,37,37,38,1,,,,,,,,,,,,,,,,,,,,,,,,,,,,,,,,,,,,,,,,,,,,,,,,,,,,,,,,,,,,,,,,,,,,,,
,,,,2,1.0544,,,,,,70,chocolate,onion,,89994,001,2022-04-26_22h10.54.510,SPAMnetsValid,2021.1.4,Win32,59.79788315,,,,,,,,,,,,,2,1.0544,0,38,38,74,1,,,,,,,,,,,,,,,,,,,,,,,,,,,,,,,,,,,,,,,,,,,,,,,,,,,,,,,,,,,,,,,,,,,,,,
,,,,2,0.7969,,,,,,4,chocolate,pretzel,,89994,001,2022-04-26_22h10.54.510,SPAMnetsValid,2021.1.4,Win32,59.79788315,,,,,,,,,,,,,2,0.7969,0,39,39,52,1,,,,,,,,,,,,,,,,,,,,,,,,,,,,,,,,,,,,,,,,,,,,,,,,,,,,,,,,,,,,,,,,,,,,,,
,,,,2,1.7587,,,,,,44,cookie,melon,,89994,001,2022-04-26_22h10.54.510,SPAMnetsValid,2021.1.4,Win32,59.79788315,,,,,,,,,,,,,2,1.7587,0,40,40,92,1,,,,,,,,,,,,,,,,,,,,,,,,,,,,,,,,,,,,,,,,,,,,,,,,,,,,,,,,,,,,,,,,,,,,,,
,,,,1,3.5648,,,,,,5,oven,tree,,89994,001,2022-04-26_22h10.54.510,SPAMnetsValid,2021.1.4,Win32,59.79788315,,,,,,,,,,,,,1,3.5648,0,41,41,70,1,,,,,,,,,,,,,,,,,,,,,,,,,,,,,,,,,,,,,,,,,,,,,,,,,,,,,,,,,,,,,,,,,,,,,,
,,,,1,1.1141,,,,,,72,broom,onion,,89994,001,2022-04-26_22h10.54.510,SPAMnetsValid,2021.1.4,Win32,59.79788315,,,,,,,,,,,,,1,1.1141,0,42,42,27,1,,,,,,,,,,,,,,,,,,,,,,,,,,,,,,,,,,,,,,,,,,,,,,,,,,,,,,,,,,,,,,,,,,,,,,
,,,,9,1.6183,,,,,,93,kitchen,oven,,89994,001,2022-04-26_22h10.54.510,SPAMnetsValid,2021.1.4,Win32,59.79788315,,,,,,,,,,,,,9,1.6183,0,43,43,82,1,,,,,,,,,,,,,,,,,,,,,,,,,,,,,,,,,,,,,,,,,,,,,,,,,,,,,,,,,,,,,,,,,,,,,,
,,,,4,5.3874,,,,,,87,carrot,yogurt,,89994,001,2022-04-26_22h10.54.510,SPAMnetsValid,2021.1.4,Win32,59.79788315,,,,,,,,,,,,,4,5.3874,0,44,44,6,1,,,,,,,,,,,,,,,,,,,,,,,,,,,,,,,,,,,,,,,,,,,,,,,,,,,,,,,,,,,,,,,,,,,,,,
,,,,2,4.1944,,,,,,28,cake,melon,,89994,001,2022-04-26_22h10.54.510,SPAMnetsValid,2021.1.4,Win32,59.79788315,,,,,,,,,,,,,2,4.1944,0,45,45,54,1,,,,,,,,,,,,,,,,,,,,,,,,,,,,,,,,,,,,,,,,,,,,,,,,,,,,,,,,,,,,,,,,,,,,,,
,,,,4,2.1941,,,,,,18,onion,refrigerator,,89994,001,2022-04-26_22h10.54.510,SPAMnetsValid,2021.1.4,Win32,59.79788315,,,,,,,,,,,,,4,2.1941,0,46,46,62,1,,,,,,,,,,,,,,,,,,,,,,,,,,,,,,,,,,,,,,,,,,,,,,,,,,,,,,,,,,,,,,,,,,,,,,
,,,,2,1.1124,,,,,,45,onion,pretzel,,89994,001,2022-04-26_22h10.54.510,SPAMnetsValid,2021.1.4,Win32,59.79788315,,,,,,,,,,,,,2,1.1124,0,47,47,69,1,,,,,,,,,,,,,,,,,,,,,,,,,,,,,,,,,,,,,,,,,,,,,,,,,,,,,,,,,,,,,,,,,,,,,,
,,,,2,2.2133,,,,,,15,onion,oven,,89994,001,2022-04-26_22h10.54.510,SPAMnetsValid,2021.1.4,Win32,59.79788315,,,,,,,,,,,,,2,2.2133,0,48,48,39,1,,,,,,,,,,,,,,,,,,,,,,,,,,,,,,,,,,,,,,,,,,,,,,,,,,,,,,,,,,,,,,,,,,,,,,
,,,,3,7.1464,,,,,,66,melon,yogurt,,89994,001,2022-04-26_22h10.54.510,SPAMnetsValid,2021.1.4,Win32,59.79788315,,,,,,,,,,,,,3,7.1464,0,49,49,48,1,,,,,,,,,,,,,,,,,,,,,,,,,,,,,,,,,,,,,,,,,,,,,,,,,,,,,,,,,,,,,,,,,,,,,,
,,,,4,2.7706,,,,,,49,flower,strawberry,,89994,001,2022-04-26_22h10.54.510,SPAMnetsValid,2021.1.4,Win32,59.79788315,,,,,,,,,,,,,4,2.7706,0,50,50,3,1,,,,,,,,,,,,,,,,,,,,,,,,,,,,,,,,,,,,,,,,,,,,,,,,,,,,,,,,,,,,,,,,,,,,,,
,,,,3,1.8689,,,,,,17,carrot,melon,,89994,001,2022-04-26_22h10.54.510,SPAMnetsValid,2021.1.4,Win32,59.79788315,,,,,,,,,,,,,3,1.8689,0,51,51,24,1,,,,,,,,,,,,,,,,,,,,,,,,,,,,,,,,,,,,,,,,,,,,,,,,,,,,,,,,,,,,,,,,,,,,,,
,,,,1,1.3241,,,,,,33,oven,yogurt,,89994,001,2022-04-26_22h10.54.510,SPAMnetsValid,2021.1.4,Win32,59.79788315,,,,,,,,,,,,,1,1.3241,0,52,52,31,1,,,,,,,,,,,,,,,,,,,,,,,,,,,,,,,,,,,,,,,,,,,,,,,,,,,,,,,,,,,,,,,,,,,,,,
,,,,8,1.6599,,,,,,9,kitchen,refrigerator,,89994,001,2022-04-26_22h10.54.510,SPAMnetsValid,2021.1.4,Win32,59.79788315,,,,,,,,,,,,,8,1.6599,0,53,53,64,1,,,,,,,,,,,,,,,,,,,,,,,,,,,,,,,,,,,,,,,,,,,,,,,,,,,,,,,,,,,,,,,,,,,,,,
,,,,1,1.4694,,,,,,74,broom,pretzel,,89994,001,2022-04-26_22h10.54.510,SPAMnetsValid,2021.1.4,Win32,59.79788315,,,,,,,,,,,,,1,1.4694,0,54,54,40,1,,,,,,,,,,,,,,,,,,,,,,,,,,,,,,,,,,,,,,,,,,,,,,,,,,,,,,,,,,,,,,,,,,,,,,
,,,,2,2.5276,,,,,,48,flower,oven,,89994,001,2022-04-26_22h10.54.510,SPAMnetsValid,2021.1.4,Win32,59.79788315,,,,,,,,,,,,,2,2.5276,0,55,55,15,1,,,,,,,,,,,,,,,,,,,,,,,,,,,,,,,,,,,,,,,,,,,,,,,,,,,,,,,,,,,,,,,,,,,,,,
,,,,1,3.9913,,,,,,61,strawberry,tomato,,89994,001,2022-04-26_22h10.54.510,SPAMnetsValid,2021.1.4,Win32,59.79788315,,,,,,,,,,,,,1,3.9913,0,56,56,80,1,,,,,,,,,,,,,,,,,,,,,,,,,,,,,,,,,,,,,,,,,,,,,,,,,,,,,,,,,,,,,,,,,,,,,,
,,,,1,0.9278,,,,,,6,garden,onion,,89994,001,2022-04-26_22h10.54.510,SPAMnetsValid,2021.1.4,Win32,59.79788315,,,,,,,,,,,,,1,0.9278,0,57,57,83,1,,,,,,,,,,,,,,,,,,,,,,,,,,,,,,,,,,,,,,,,,,,,,,,,,,,,,,,,,,,,,,,,,,,,,,
,,,,2,1.6623,,,,,,24,cookie,tomato,,89994,001,2022-04-26_22h10.54.510,SPAMnetsValid,2021.1.4,Win32,59.79788315,,,,,,,,,,,,,2,1.6623,0,58,58,68,1,,,,,,,,,,,,,,,,,,,,,,,,,,,,,,,,,,,,,,,,,,,,,,,,,,,,,,,,,,,,,,,,,,,,,,
,,,,4,3.6249,,,,,,42,garden,kitchen,,89994,001,2022-04-26_22h10.54.510,SPAMnetsValid,2021.1.4,Win32,59.79788315,,,,,,,,,,,,,4,3.6249,0,59,59,29,1,,,,,,,,,,,,,,,,,,,,,,,,,,,,,,,,,,,,,,,,,,,,,,,,,,,,,,,,,,,,,,,,,,,,,,
,,,,1,2.7622,,,,,,64,chocolate,garden,,89994,001,2022-04-26_22h10.54.510,SPAMnetsValid,2021.1.4,Win32,59.79788315,,,,,,,,,,,,,1,2.7622,0,60,60,14,1,,,,,,,,,,,,,,,,,,,,,,,,,,,,,,,,,,,,,,,,,,,,,,,,,,,,,,,,,,,,,,,,,,,,,,
,,,,5,2.284,,,,,,47,onion,tomato,,89994,001,2022-04-26_22h10.54.510,SPAMnetsValid,2021.1.4,Win32,59.79788315,,,,,,,,,,,,,5,2.284,0,61,61,51,1,,,,,,,,,,,,,,,,,,,,,,,,,,,,,,,,,,,,,,,,,,,,,,,,,,,,,,,,,,,,,,,,,,,,,,
,,,,7,3.2836,,,,,,3,cake,oven,,89994,001,2022-04-26_22h10.54.510,SPAMnetsValid,2021.1.4,Win32,59.79788315,,,,,,,,,,,,,7,3.2836,0,62,62,30,1,,,,,,,,,,,,,,,,,,,,,,,,,,,,,,,,,,,,,,,,,,,,,,,,,,,,,,,,,,,,,,,,,,,,,,
,,,,4,2.399,,,,,,55,tomato,tree,,89994,001,2022-04-26_22h10.54.510,SPAMnetsValid,2021.1.4,Win32,59.79788315,,,,,,,,,,,,,4,2.399,0,63,63,35,1,,,,,,,,,,,,,,,,,,,,,,,,,,,,,,,,,,,,,,,,,,,,,,,,,,,,,,,,,,,,,,,,,,,,,,
,,,,6,2.5155,,,,,,2,kitchen,onion,,89994,001,2022-04-26_22h10.54.510,SPAMnetsValid,2021.1.4,Win32,59.79788315,,,,,,,,,,,,,6,2.5155,0,64,64,91,1,,,,,,,,,,,,,,,,,,,,,,,,,,,,,,,,,,,,,,,,,,,,,,,,,,,,,,,,,,,,,,,,,,,,,,
,,,,2,1.7811,,,,,,35,flower,pretzel,,89994,001,2022-04-26_22h10.54.510,SPAMnetsValid,2021.1.4,Win32,59.79788315,,,,,,,,,,,,,2,1.7811,0,65,65,26,1,,,,,,,,,,,,,,,,,,,,,,,,,,,,,,,,,,,,,,,,,,,,,,,,,,,,,,,,,,,,,,,,,,,,,,
,,,,2,1.5969,,,,,,46,garden,yogurt,,89994,001,2022-04-26_22h10.54.510,SPAMnetsValid,2021.1.4,Win32,59.79788315,,,,,,,,,,,,,2,1.5969,0,66,66,65,1,,,,,,,,,,,,,,,,,,,,,,,,,,,,,,,,,,,,,,,,,,,,,,,,,,,,,,,,,,,,,,,,,,,,,,
,,,,2,0.8717,,,,,,1,rose,yogurt,,89994,001,2022-04-26_22h10.54.510,SPAMnetsValid,2021.1.4,Win32,59.79788315,,,,,,,,,,,,,2,0.8717,0,67,67,55,1,,,,,,,,,,,,,,,,,,,,,,,,,,,,,,,,,,,,,,,,,,,,,,,,,,,,,,,,,,,,,,,,,,,,,,
,,,,1,2.5864,,,,,,71,broom,rose,,89994,001,2022-04-26_22h10.54.510,SPAMnetsValid,2021.1.4,Win32,59.79788315,,,,,,,,,,,,,1,2.5864,0,68,68,61,1,,,,,,,,,,,,,,,,,,,,,,,,,,,,,,,,,,,,,,,,,,,,,,,,,,,,,,,,,,,,,,,,,,,,,,
,,,,2,1.2808,,,,,,8,broom,melon,,89994,001,2022-04-26_22h10.54.510,SPAMnetsValid,2021.1.4,Win32,59.79788315,,,,,,,,,,,,,2,1.2808,0,69,69,59,1,,,,,,,,,,,,,,,,,,,,,,,,,,,,,,,,,,,,,,,,,,,,,,,,,,,,,,,,,,,,,,,,,,,,,,
,,,,1,2.0203,,,,,,23,flower,microwave,,89994,001,2022-04-26_22h10.54.510,SPAMnetsValid,2021.1.4,Win32,59.79788315,,,,,,,,,,,,,1,2.0203,0,70,70,25,1,,,,,,,,,,,,,,,,,,,,,,,,,,,,,,,,,,,,,,,,,,,,,,,,,,,,,,,,,,,,,,,,,,,,,,
,,,,3,2.7558,,,,,,56,cactus,tree,,89994,001,2022-04-26_22h10.54.510,SPAMnetsValid,2021.1.4,Win32,59.79788315,,,,,,,,,,,,,3,2.7558,0,71,71,21,1,,,,,,,,,,,,,,,,,,,,,,,,,,,,,,,,,,,,,,,,,,,,,,,,,,,,,,,,,,,,,,,,,,,,,,
,,,,1,2.6526,,,,,,81,pretzel,yogurt,,89994,001,2022-04-26_22h10.54.510,SPAMnetsValid,2021.1.4,Win32,59.79788315,,,,,,,,,,,,,1,2.6526,0,72,72,50,1,,,,,,,,,,,,,,,,,,,,,,,,,,,,,,,,,,,,,,,,,,,,,,,,,,,,,,,,,,,,,,,,,,,,,,
,,,,2,1.2398,,,,,,68,flower,tomato,,89994,001,2022-04-26_22h10.54.510,SPAMnetsValid,2021.1.4,Win32,59.79788315,,,,,,,,,,,,,2,1.2398,0,73,73,94,1,,,,,,,,,,,,,,,,,,,,,,,,,,,,,,,,,,,,,,,,,,,,,,,,,,,,,,,,,,,,,,,,,,,,,,
,,,,6,1.9119,,,,,,36,broom,kitchen,,89994,001,2022-04-26_22h10.54.510,SPAMnetsValid,2021.1.4,Win32,59.79788315,,,,,,,,,,,,,6,1.9119,0,74,74,76,1,,,,,,,,,,,,,,,,,,,,,,,,,,,,,,,,,,,,,,,,,,,,,,,,,,,,,,,,,,,,,,,,,,,,,,
,,,,2,2.0857,,,,,,84,oven,tomato,,89994,001,2022-04-26_22h10.54.510,SPAMnetsValid,2021.1.4,Win32,59.79788315,,,,,,,,,,,,,2,2.0857,0,75,75,28,1,,,,,,,,,,,,,,,,,,,,,,,,,,,,,,,,,,,,,,,,,,,,,,,,,,,,,,,,,,,,,,,,,,,,,,
,,,,3,1.2597,,,,,,26,tomato,yogurt,,89994,001,2022-04-26_22h10.54.510,SPAMnetsValid,2021.1.4,Win32,59.79788315,,,,,,,,,,,,,3,1.2597,0,76,76,13,1,,,,,,,,,,,,,,,,,,,,,,,,,,,,,,,,,,,,,,,,,,,,,,,,,,,,,,,,,,,,,,,,,,,,,,
,,,,1,2.2065,,,,,,11,refrigerator,tree,,89994,001,2022-04-26_22h10.54.510,SPAMnetsValid,2021.1.4,Win32,59.79788315,,,,,,,,,,,,,1,2.2065,0,77,77,43,1,,,,,,,,,,,,,,,,,,,,,,,,,,,,,,,,,,,,,,,,,,,,,,,,,,,,,,,,,,,,,,,,,,,,,,
,,,,1,1.2529,,,,,,27,cactus,cookie,,89994,001,2022-04-26_22h10.54.510,SPAMnetsValid,2021.1.4,Win32,59.79788315,,,,,,,,,,,,,1,1.2529,0,78,78,17,1,,,,,,,,,,,,,,,,,,,,,,,,,,,,,,,,,,,,,,,,,,,,,,,,,,,,,,,,,,,,,,,,,,,,,,
,,,,2,1.2723,,,,,,29,chocolate,melon,,89994,001,2022-04-26_22h10.54.510,SPAMnetsValid,2021.1.4,Win32,59.79788315,,,,,,,,,,,,,2,1.2723,0,79,79,34,1,,,,,,,,,,,,,,,,,,,,,,,,,,,,,,,,,,,,,,,,,,,,,,,,,,,,,,,,,,,,,,,,,,,,,,
,,,,1,1.3317,,,,,,14,broom,cookie,,89994,001,2022-04-26_22h10.54.510,SPAMnetsValid,2021.1.4,Win32,59.79788315,,,,,,,,,,,,,1,1.3317,0,80,80,16,1,,,,,,,,,,,,,,,,,,,,,,,,,,,,,,,,,,,,,,,,,,,,,,,,,,,,,,,,,,,,,,,,,,,,,,
,,,,1,1.545,,,,,,85,cake,tree,,89994,001,2022-04-26_22h10.54.510,SPAMnetsValid,2021.1.4,Win32,59.79788315,,,,,,,,,,,,,1,1.545,0,81,81,18,1,,,,,,,,,,,,,,,,,,,,,,,,,,,,,,,,,,,,,,,,,,,,,,,,,,,,,,,,,,,,,,,,,,,,,,
,,,,2,1.9828,,,,,,13,broom,yogurt,,89994,001,2022-04-26_22h10.54.510,SPAMnetsValid,2021.1.4,Win32,59.79788315,,,,,,,,,,,,,2,1.9828,0,82,82,5,1,,,,,,,,,,,,,,,,,,,,,,,,,,,,,,,,,,,,,,,,,,,,,,,,,,,,,,,,,,,,,,,,,,,,,,
,,,,5,2.4242,,,,,,20,rose,tree,,89994,001,2022-04-26_22h10.54.510,SPAMnetsValid,2021.1.4,Win32,59.79788315,,,,,,,,,,,,,5,2.4242,0,83,83,66,1,,,,,,,,,,,,,,,,,,,,,,,,,,,,,,,,,,,,,,,,,,,,,,,,,,,,,,,,,,,,,,,,,,,,,,
,,,,4,3.2522,,,,,,12,cookie,yogurt,,89994,001,2022-04-26_22h10.54.510,SPAMnetsValid,2021.1.4,Win32,59.79788315,,,,,,,,,,,,,4,3.2522,0,84,84,36,1,,,,,,,,,,,,,,,,,,,,,,,,,,,,,,,,,,,,,,,,,,,,,,,,,,,,,,,,,,,,,,,,,,,,,,
,,,,1,2.2629,,,,,,59,rose,strawberry,,89994,001,2022-04-26_22h10.54.510,SPAMnetsValid,2021.1.4,Win32,59.79788315,,,,,,,,,,,,,1,2.2629,0,85,85,72,1,,,,,,,,,,,,,,,,,,,,,,,,,,,,,,,,,,,,,,,,,,,,,,,,,,,,,,,,,,,,,,,,,,,,,,
,,,,1,1.5074,,,,,,80,chocolate,tree,,89994,001,2022-04-26_22h10.54.510,SPAMnetsValid,2021.1.4,Win32,59.79788315,,,,,,,,,,,,,1,1.5074,0,86,86,89,1,,,,,,,,,,,,,,,,,,,,,,,,,,,,,,,,,,,,,,,,,,,,,,,,,,,,,,,,,,,,,,,,,,,,,,
,,,,2,1.4795,,,,,,95,broom,refrigerator,,89994,001,2022-04-26_22h10.54.510,SPAMnetsValid,2021.1.4,Win32,59.79788315,,,,,,,,,,,,,2,1.4795,0,87,87,90,1,,,,,,,,,,,,,,,,,,,,,,,,,,,,,,,,,,,,,,,,,,,,,,,,,,,,,,,,,,,,,,,,,,,,,,
,,,,3,1.4281,,,,,,86,oven,rose,,89994,001,2022-04-26_22h10.54.510,SPAMnetsValid,2021.1.4,Win32,59.79788315,,,,,,,,,,,,,3,1.4281,0,88,88,79,1,,,,,,,,,,,,,,,,,,,,,,,,,,,,,,,,,,,,,,,,,,,,,,,,,,,,,,,,,,,,,,,,,,,,,,
,,,,4,2.1952,,,,,,37,garden,refrigerator,,89994,001,2022-04-26_22h10.54.510,SPAMnetsValid,2021.1.4,Win32,59.79788315,,,,,,,,,,,,,4,2.1952,0,89,89,11,1,,,,,,,,,,,,,,,,,,,,,,,,,,,,,,,,,,,,,,,,,,,,,,,,,,,,,,,,,,,,,,,,,,,,,,
,,,,1,1.727,,,,,,89,chocolate,rose,,89994,001,2022-04-26_22h10.54.510,SPAMnetsValid,2021.1.4,Win32,59.79788315,,,,,,,,,,,,,1,1.727,0,90,90,60,1,,,,,,,,,,,,,,,,,,,,,,,,,,,,,,,,,,,,,,,,,,,,,,,,,,,,,,,,,,,,,,,,,,,,,,
,,,,1,1.0534,,,,,,76,garden,rose,,89994,001,2022-04-26_22h10.54.510,SPAMnetsValid,2021.1.4,Win32,59.79788315,,,,,,,,,,,,,1,1.0534,0,91,91,19,1,,,,,,,,,,,,,,,,,,,,,,,,,,,,,,,,,,,,,,,,,,,,,,,,,,,,,,,,,,,,,,,,,,,,,,
,,,,2,1.6766,,,,,,22,kitchen,strawberry,,89994,001,2022-04-26_22h10.54.510,SPAMnetsValid,2021.1.4,Win32,59.79788315,,,,,,,,,,,,,2,1.6766,0,92,92,2,1,,,,,,,,,,,,,,,,,,,,,,,,,,,,,,,,,,,,,,,,,,,,,,,,,,,,,,,,,,,,,,,,,,,,,,
,,,,1,1.6762,,,,,,60,cactus,onion,,89994,001,2022-04-26_22h10.54.510,SPAMnetsValid,2021.1.4,Win32,59.79788315,,,,,,,,,,,,,1,1.6762,0,93,93,81,1,,,,,,,,,,,,,,,,,,,,,,,,,,,,,,,,,,,,,,,,,,,,,,,,,,,,,,,,,,,,,,,,,,,,,,
,,,,1,1.3444,,,,,,75,cookie,onion,,89994,001,2022-04-26_22h10.54.510,SPAMnetsValid,2021.1.4,Win32,59.79788315,,,,,,,,,,,,,1,1.3444,0,94,94,9,1,,,,,,,,,,,,,,,,,,,,,,,,,,,,,,,,,,,,,,,,,,,,,,,,,,,,,,,,,,,,,,,,,,,,,,
,,,,3,2.8102,,,,,,67,flower,yogurt,,89994,001,2022-04-26_22h10.54.510,SPAMnetsValid,2021.1.4,Win32,59.79788315,,,,,,,,,,,,,3,2.8102,0,95,95,12,1,,,,,,,,,,,,,,,,,,,,,,,,,,,,,,,,,,,,,,,,,,,,,,,,,,,,,,,,,,,,,,,,,,,,,,
,,,,2,4.2206,,,,,,92,broom,flower,,89994,001,2022-04-26_22h10.54.510,SPAMnetsValid,2021.1.4,Win32,59.79788315,,,,,,,,,,,,,2,4.2206,0,96,96,88,1,,,,,,,,,,,,,,,,,,,,,,,,,,,,,,,,,,,,,,,,,,,,,,,,,,,,,,,,,,,,,,,,,,,,,,
,,,,,,,,,,,,,,,89994,001,2022-04-26_22h10.54.510,SPAMnetsValid,2021.1.4,Win32,59.79788315,,,,,,,,,,,,,,,,,,,,0,0,0,0,1,,,,,,,,,,,,,,,,,,,,,,,,,,,,,,,,,,,,,,,,,,,,,,,,,,,,,,,,,,,,,,,,,
,,,,,,,,,,,,,,,89994,001,2022-04-26_22h10.54.510,SPAMnetsValid,2021.1.4,Win32,59.79788315,,,,,,0,1,1,0,1,1,0,,,,,,,,,,,,,,,,,,,,,,,,,,,,,,,,,,,,,,,,,,,,,,,,,,,,,,,,,,,,,,,,,,,,,,,,,,,,,
,,,,,,,,,,,,,,,89994,001,2022-04-26_22h10.54.510,SPAMnetsValid,2021.1.4,Win32,59.79788315,,,,,,,,,,,,,,,,,,,,,,,,,3,8.1301,0,0,0,0,1,rancor,forbearance,ridicule,malice,bravery,3,,,,,,,,,,,,,,,,,,,,,,,,,,,,,,,,,,,,,,,,,,,,,,,,,,,,
,,,,,,,,,,,,,,,89994,001,2022-04-26_22h10.54.510,SPAMnetsValid,2021.1.4,Win32,59.79788315,,,,,,,,,,,,,,,,,,,,,,,,,4,2.6196,0,1,1,1,1,raucous,empty,quiet,smooth,harsh,4,,,,,,,,,,,,,,,,,,,,,,,,,,,,,,,,,,,,,,,,,,,,,,,,,,,,
,,,,,,,,,,,,,,,89994,001,2022-04-26_22h10.54.510,SPAMnetsValid,2021.1.4,Win32,59.79788315,,,,,,,,,,,,,,,,,,,,,,,,,1,4.2987,0,2,2,2,1,gargoyle,oil,medicine,carved waterspout,ugly building,3,,,,,,,,,,,,,,,,,,,,,,,,,,,,,,,,,,,,,,,,,,,,,,,,,,,,
,,,,,,,,,,,,,,,89994,001,2022-04-26_22h10.54.510,SPAMnetsValid,2021.1.4,Win32,59.79788315,,,,,,,,,,,,,,,,,,,,,,,,,2,5.2481,0,3,3,3,1,recrudesce,purify,renew activity,lack refinement,crush,2,,,,,,,,,,,,,,,,,,,,,,,,,,,,,,,,,,,,,,,,,,,,,,,,,,,,
,,,,,,,,,,,,,,,89994,001,2022-04-26_22h10.54.510,SPAMnetsValid,2021.1.4,Win32,59.79788315,,,,,,,,,,,,,,,,,,,,,,,,,4,5.295,0,4,4,4,1,specious,"plausible, but not genuine",noteworthy,class or variety,roomy,1,,,,,,,,,,,,,,,,,,,,,,,,,,,,,,,,,,,,,,,,,,,,,,,,,,,,
,,,,,,,,,,,,,,,89994,001,2022-04-26_22h10.54.510,SPAMnetsValid,2021.1.4,Win32,59.79788315,,,,,,,,,,,,,,,,,,,,,,,,,3,2.7486,0,5,5,5,1,bauble,bubble,showy plaything,idle talk,confusion,2,,,,,,,,,,,,,,,,,,,,,,,,,,,,,,,,,,,,,,,,,,,,,,,,,,,,
,,,,,,,,,,,,,,,89994,001,2022-04-26_22h10.54.510,SPAMnetsValid,2021.1.4,Win32,59.79788315,,,,,,,,,,,,,,,,,,,,,,,,,4,13.2941,0,6,6,6,1,prolific,scarce,producing abundantly,reckless,speaking profanely,2,,,,,,,,,,,,,,,,,,,,,,,,,,,,,,,,,,,,,,,,,,,,,,,,,,,,
,,,,,,,,,,,,,,,89994,001,2022-04-26_22h10.54.510,SPAMnetsValid,2021.1.4,Win32,59.79788315,,,,,,,,,,,,,,,,,,,,,,,,,3,8.4901,0,7,7,7,1,opulent,party,wealthy,happy frame of mind,semiprecious stone,2,,,,,,,,,,,,,,,,,,,,,,,,,,,,,,,,,,,,,,,,,,,,,,,,,,,,
,,,,,,,,,,,,,,,89994,001,2022-04-26_22h10.54.510,SPAMnetsValid,2021.1.4,Win32,59.79788315,,,,,,,,,,,,,,,,,,,,,,,,,1,3.7557,0,8,8,8,1,coercion,conspiracy,strategy,restraint,attraction,3,,,,,,,,,,,,,,,,,,,,,,,,,,,,,,,,,,,,,,,,,,,,,,,,,,,,
,,,,,,,,,,,,,,,89994,001,2022-04-26_22h10.54.510,SPAMnetsValid,2021.1.4,Win32,59.79788315,,,,,,,,,,,,,,,,,,,,,,,,,2,5.0533,0,9,9,9,1,hiatus,animal,calamity,dread,gap,4,,,,,,,,,,,,,,,,,,,,,,,,,,,,,,,,,,,,,,,,,,,,,,,,,,,,
,,,,,,,,,,,,,,,89994,001,2022-04-26_22h10.54.510,SPAMnetsValid,2021.1.4,Win32,59.79788315,,,,,,,,,,,,,,,,,,,,,,,,,2,6.0812,0,10,10,10,1,germane,microbe,contagious,relevant,different,3,,,,,,,,,,,,,,,,,,,,,,,,,,,,,,,,,,,,,,,,,,,,,,,,,,,,
,,,,,,,,,,,,,,,89994,001,2022-04-26_22h10.54.510,SPAMnetsValid,2021.1.4,Win32,59.79788315,,,,,,,,,,,,,,,,,,,,,,,,,2,7.7189,0,11,11,11,1,perfunctory,fundamental,formal,superficial,careful,3,,,,,,,,,,,,,,,,,,,,,,,,,,,,,,,,,,,,,,,,,,,,,,,,,,,,
,,,,,,,,,,,,,,,89994,001,2022-04-26_22h10.54.510,SPAMnetsValid,2021.1.4,Win32,59.79788315,,,,,,,,,,,,,,,,,,,,,,,,,3,7.1361,0,12,12,12,1,diverge,reveal,chant,distract the attention of,differ or turn off from,4,,,,,,,,,,,,,,,,,,,,,,,,,,,,,,,,,,,,,,,,,,,,,,,,,,,,
,,,,,,,,,,,,,,,89994,001,2022-04-26_22h10.54.510,SPAMnetsValid,2021.1.4,Win32,59.79788315,,,,,,,,,,,,,,,,,,,,,,,,,4,2.8198,0,13,13,13,1,evoke,take away,anger,connect,bring out,4,,,,,,,,,,,,,,,,,,,,,,,,,,,,,,,,,,,,,,,,,,,,,,,,,,,,
,,,,,,,,,,,,,,,89994,001,2022-04-26_22h10.54.510,SPAMnetsValid,2021.1.4,Win32,59.79788315,,,,,,,,,,,,,,,,,,,,,,,,,1,3.3198,0,14,14,14,1,pertinent,relevant,lying next to,necessary,bold,1,,,,,,,,,,,,,,,,,,,,,,,,,,,,,,,,,,,,,,,,,,,,,,,,,,,,
,,,,,,,,,,,,,,,89994,001,2022-04-26_22h10.54.510,SPAMnetsValid,2021.1.4,Win32,59.79788315,,,,,,,,,,,,,,,,,,,,,,,,,2,3.0729,0,15,15,15,1,holocaust,entirety,destruction,saintly,price,2,,,,,,,,,,,,,,,,,,,,,,,,,,,,,,,,,,,,,,,,,,,,,,,,,,,,
,,,,,,,,,,,,,,,89994,001,2022-04-26_22h10.54.510,SPAMnetsValid,2021.1.4,Win32,59.79788315,,,,,,,,,,,,,,,,,,,,,,,,,1,5.1572,0,16,16,16,1,piquant,mellow,fish,pungent,cloth,3,,,,,,,,,,,,,,,,,,,,,,,,,,,,,,,,,,,,,,,,,,,,,,,,,,,,
,,,,,,,,,,,,,,,89994,001,2022-04-26_22h10.54.510,SPAMnetsValid,2021.1.4,Win32,59.79788315,,,,,,,,,,,,,,,,,,,,,,,,,3,7.7693,0,17,17,17,1,firmament,foundation,heavens,strong,glue,2,,,,,,,,,,,,,,,,,,,,,,,,,,,,,,,,,,,,,,,,,,,,,,,,,,,,
,,,,,,,,,,,,,,,89994,001,2022-04-26_22h10.54.510,SPAMnetsValid,2021.1.4,Win32,59.79788315,,,,,,,,,,,,,,,,,,,,,,,,,,,,,,,,,,,,,,4,2.9868,0,0,0,0,1,marketable,partisan,jocular,marriageable,salable,essential,4,,,,,,,,,,,,,,,,,,,,,,,,,,,,,,,,,,,,,,
,,,,,,,,,,,,,,,89994,001,2022-04-26_22h10.54.510,SPAMnetsValid,2021.1.4,Win32,59.79788315,,,,,,,,,,,,,,,,,,,,,,,,,,,,,,,,,,,,,,1,2.5605,0,1,1,1,1,cottontail,squirrel,poplar,boa,marshy plant,rabbit,5,,,,,,,,,,,,,,,,,,,,,,,,,,,,,,,,,,,,,,
,,,,,,,,,,,,,,,89994,001,2022-04-26_22h10.54.510,SPAMnetsValid,2021.1.4,Win32,59.79788315,,,,,,,,,,,,,,,,,,,,,,,,,,,,,,,,,,,,,,4,4.4205,0,2,2,2,1,boggy,afraid,false,marshy,dense,black,3,,,,,,,,,,,,,,,,,,,,,,,,,,,,,,,,,,,,,,
,,,,,,,,,,,,,,,89994,001,2022-04-26_22h10.54.510,SPAMnetsValid,2021.1.4,Win32,59.79788315,,,,,,,,,,,,,,,,,,,,,,,,,,,,,,,,,,,,,,3,4.9702,0,3,3,3,1,gruesomeness,blackness,falseness,vindictiveness,drunkenness,ghastliness,5,,,,,,,,,,,,,,,,,,,,,,,,,,,,,,,,,,,,,,
,,,,,,,,,,,,,,,89994,001,2022-04-26_22h10.54.510,SPAMnetsValid,2021.1.4,Win32,59.79788315,,,,,,,,,,,,,,,,,,,,,,,,,,,,,,,,,,,,,,2,2.7993,0,4,4,4,1,loathing,diffidence,laziness,abhorrence,cleverness,comfort,3,,,,,,,,,,,,,,,,,,,,,,,,,,,,,,,,,,,,,,
,,,,,,,,,,,,,,,89994,001,2022-04-26_22h10.54.510,SPAMnetsValid,2021.1.4,Win32,59.79788315,,,,,,,,,,,,,,,,,,,,,,,,,,,,,,,,,,,,,,1,4.3608,0,5,5,5,1,bantam,fowl,ridicule,cripple,vegetable,ensign,1,,,,,,,,,,,,,,,,,,,,,,,,,,,,,,,,,,,,,,
,,,,,,,,,,,,,,,89994,001,2022-04-26_22h10.54.510,SPAMnetsValid,2021.1.4,Win32,59.79788315,,,,,,,,,,,,,,,,,,,,,,,,,,,,,,,,,,,,,,5,3.2147,0,6,6,6,1,evoke,wake up,surrender,reconnoiter,transcend,call forth,5,,,,,,,,,,,,,,,,,,,,,,,,,,,,,,,,,,,,,,
,,,,,,,,,,,,,,,89994,001,2022-04-26_22h10.54.510,SPAMnetsValid,2021.1.4,Win32,59.79788315,,,,,,,,,,,,,,,,,,,,,,,,,,,,,,,,,,,,,,5,5.2353,0,7,7,7,1,unobtrusive,unintelligent,epileptic,illogical,lineal,modest,5,,,,,,,,,,,,,,,,,,,,,,,,,,,,,,,,,,,,,,
,,,,,,,,,,,,,,,89994,001,2022-04-26_22h10.54.510,SPAMnetsValid,2021.1.4,Win32,59.79788315,,,,,,,,,,,,,,,,,,,,,,,,,,,,,,,,,,,,,,4,2.8314,0,8,8,8,1,terrain,ice cream,final test,tractor,area of ground,weight,4,,,,,,,,,,,,,,,,,,,,,,,,,,,,,,,,,,,,,,
,,,,,,,,,,,,,,,89994,001,2022-04-26_22h10.54.510,SPAMnetsValid,2021.1.4,Win32,59.79788315,,,,,,,,,,,,,,,,,,,,,,,,,,,,,,,,,,,,,,3,4.3389,0,9,9,9,1,capriciousness,stubbornness,courage,whimsicality,amazement,greediness,3,,,,,,,,,,,,,,,,,,,,,,,,,,,,,,,,,,,,,,
,,,,,,,,,,,,,,,89994,001,2022-04-26_22h10.54.510,SPAMnetsValid,2021.1.4,Win32,59.79788315,,,,,,,,,,,,,,,,,,,,,,,,,,,,,,,,,,,,,,1,6.0414,0,10,10,10,1,maelstrom,slander,whirlpool,enmity,armor,majolica,2,,,,,,,,,,,,,,,,,,,,,,,,,,,,,,,,,,,,,,
,,,,,,,,,,,,,,,89994,001,2022-04-26_22h10.54.510,SPAMnetsValid,2021.1.4,Win32,59.79788315,,,,,,,,,,,,,,,,,,,,,,,,,,,,,,,,,,,,,,2,2.2166,0,11,11,11,1,tentative,critical,conclusive,authentic,provisional,apprehensive,4,,,,,,,,,,,,,,,,,,,,,,,,,,,,,,,,,,,,,,
,,,,,,,,,,,,,,,89994,001,2022-04-26_22h10.54.510,SPAMnetsValid,2021.1.4,Win32,59.79788315,,,,,,,,,,,,,,,,,,,,,,,,,,,,,,,,,,,,,,1,9.6112,0,12,12,12,1,placate,rehabilitate,plagiarize,depredate,apprise,conciliate,5,,,,,,,,,,,,,,,,,,,,,,,,,,,,,,,,,,,,,,
,,,,,,,,,,,,,,,89994,001,2022-04-26_22h10.54.510,SPAMnetsValid,2021.1.4,Win32,59.79788315,,,,,,,,,,,,,,,,,,,,,,,,,,,,,,,,,,,,,,4,6.7893,0,13,13,13,1,surcease,enlightenment,cessation,inattention,censor,substitution,2,,,,,,,,,,,,,,,,,,,,,,,,,,,,,,,,,,,,,,
,,,,,,,,,,,,,,,89994,001,2022-04-26_22h10.54.510,SPAMnetsValid,2021.1.4,Win32,59.79788315,,,,,,,,,,,,,,,,,,,,,,,,,,,,,,,,,,,,,,2,7.6029,0,14,14,14,1,apathetic,wandering,impassive,hateful,prophetic,overflowing,2,,,,,,,,,,,,,,,,,,,,,,,,,,,,,,,,,,,,,,
,,,,,,,,,,,,,,,89994,001,2022-04-26_22h10.54.510,SPAMnetsValid,2021.1.4,Win32,59.79788315,,,,,,,,,,,,,,,,,,,,,,,,,,,,,,,,,,,,,,4,8.2436,0,15,15,15,1,paternoster,paternalism,patricide,malediction,benediction,prayer,5,,,,,,,,,,,,,,,,,,,,,,,,,,,,,,,,,,,,,,
,,,,,,,,,,,,,,,89994,001,2022-04-26_22h10.54.510,SPAMnetsValid,2021.1.4,Win32,59.79788315,,,,,,,,,,,,,,,,,,,,,,,,,,,,,,,,,,,,,,4,8.223,0,16,16,16,1,opalescence,opulence,senescence,bankruptcy,iridescence,assiduity,4,,,,,,,,,,,,,,,,,,,,,,,,,,,,,,,,,,,,,,
,,,,,,,,,,,,,,,89994,001,2022-04-26_22h10.54.510,SPAMnetsValid,2021.1.4,Win32,59.79788315,,,,,,,,,,,,,,,,,,,,,,,,,,,,,,,,,,,,,,2,4.0633,0,17,17,17,1,lush,stupid,luxurious,hazy,putrid,languishing,2,,,,,,,,,,,,,,,,,,,,,,,,,,,,,,,,,,,,,,
,,,,,,,,,,,,,,,89994,001,2022-04-26_22h10.54.510,SPAMnetsValid,2021.1.4,Win32,59.79788315,,,,,,,,,,,,,,,,,,,,,,,,,,,,,,,,,,,,,,3,13.2715,0,18,18,18,1,curtailment,expenditure,abandonment,abridgment,improvement,forgery,3,,,,,,,,,,,,,,,,,,,,,,,,,,,,,,,,,,,,,,
,,,,,,,,,,,,,,,89994,001,2022-04-26_22h10.54.510,SPAMnetsValid,2021.1.4,Win32,59.79788315,,,,,,,,,,,,,,,,,,,,,,,,,,,,,,,,,,,,,,3,9.3288,0,19,19,19,1,perversity,adversity,perviousness,travesty,waywardness,gentility,4,,,,,,,,,,,,,,,,,,,,,,,,,,,,,,,,,,,,,,
,,,,,,,,,,,,,,,89994,001,2022-04-26_22h10.54.510,SPAMnetsValid,2021.1.4,Win32,59.79788315,,,,,,,,,,,,,,,,,,,,,,,,,,,,,,,,,,,,,,4,12.5227,0,20,20,20,1,calumnious,complimentary,analogous,slanderous,tempestuous,magnanimous,3,,,,,,,,,,,,,,,,,,,,,,,,,,,,,,,,,,,,,,
,,,,,,,,,,,,,,,89994,001,2022-04-26_22h10.54.510,SPAMnetsValid,2021.1.4,Win32,59.79788315,,,,,,,,,,,,,,,,,,,,,,,,,,,,,,,,,,,,,,1,6.1673,0,21,21,21,1,illiberality,bigotry,imbecility,illegibility,cautery,immaturity,1,,,,,,,,,,,,,,,,,,,,,,,,,,,,,,,,,,,,,,
,,,,,,,,,,,,,,,89994,001,2022-04-26_22h10.54.510,SPAMnetsValid,2021.1.4,Win32,59.79788315,,,,,,,,,,,,,,,,,,,,,,,,,,,,,,,,,,,,,,1,3.5484,0,22,22,22,1,clabber,rejoice,gossip,curdle,crow,hobble,3,,,,,,,,,,,,,,,,,,,,,,,,,,,,,,,,,,,,,,
,,,,,,,,,,,,,,,89994,001,2022-04-26_22h10.54.510,SPAMnetsValid,2021.1.4,Win32,59.79788315,,,,,,,,,,,,,,,,,,,,,,,,,,,,,,,,,,,,,,3,4.7807,0,23,23,23,1,sedulousness,diligence,credulousness,seduction,perilousness,frankness,1,,,,,,,,,,,,,,,,,,,,,,,,,,,,,,,,,,,,,,
,,,,,,,,,,,,,,,89994,001,2022-04-26_22h10.54.510,SPAMnetsValid,2021.1.4,Win32,59.79788315,,,,,,,,,,,,,,,,,,,,,,,,,,,,,,,,,,,,,,,,,,,,,,,,,,,,"burn, vision from a far, light, stop bleeding, form patches",candle,0,0,0,0,1,,,,,,,,,,,,,,,,,,,,,,,,,,,,,,,
,,,,,,,,,,,,,,,89994,001,2022-04-26_22h10.54.510,SPAMnetsValid,2021.1.4,Win32,59.79788315,,,,,,,,,,,,,,,,,,,,,,,,,,,,,,,,,,,,,,,,,,,,,,,,,,,,light,candle,1,0,1,0,1,,,,,,,,,,,,,,,,,,,,,,,,,,,,,,,
,,,,,,,,,,,,,,,89994,001,2022-04-26_22h10.54.510,SPAMnetsValid,2021.1.4,Win32,59.79788315,,,,,,,,,,,,,,,,,,,,,,,,,,,,,,,,,,,,,,,,,,,,,,,,,,,,stop bleeding ,candle,2,0,2,0,1,,,,,,,,,,,,,,,,,,,,,,,,,,,,,,,
,,,,,,,,,,,,,,,89994,001,2022-04-26_22h10.54.510,SPAMnetsValid,2021.1.4,Win32,59.79788315,,,,,,,,,,,,,,,,,,,,,,,,,,,,,,,,,,,,,,,,,,,,,,,,,,,,fragrance,candle,3,0,3,0,1,,,,,,,,,,,,,,,,,,,,,,,,,,,,,,,
,,,,,,,,,,,,,,,89994,001,2022-04-26_22h10.54.510,SPAMnetsValid,2021.1.4,Win32,59.79788315,,,,,,,,,,,,,,,,,,,,,,,,,,,,,,,,,,,,,,,,,,,,,,,,,,,,lubricant ,candle,4,0,4,0,1,,,,,,,,,,,,,,,,,,,,,,,,,,,,,,,
,,,,,,,,,,,,,,,89994,001,2022-04-26_22h10.54.510,SPAMnetsValid,2021.1.4,Win32,59.79788315,,,,,,,,,,,,,,,,,,,,,,,,,,,,,,,,,,,,,,,,,,,,,,,,,,,,,,,,,,,0,0,0,1,1,candle,,,,,,,,,,,,,,,,,,,,,,,,,
,,,,,,,,,,,,,,,89994,001,2022-04-26_22h10.54.510,SPAMnetsValid,2021.1.4,Win32,59.79788315,,,,,,,,,,,,,,,,,,,,,,,,,,,,,,,,,,,,,,,,,,,,,,,,,,,,helmet,bucket,0,0,0,0,1,,,,,,,,,,,,,,,,,,,,,,,,,,,,,,,
,,,,,,,,,,,,,,,89994,001,2022-04-26_22h10.54.510,SPAMnetsValid,2021.1.4,Win32,59.79788315,,,,,,,,,,,,,,,,,,,,,,,,,,,,,,,,,,,,,,,,,,,,,,,,,,,,stand on,bucket,1,0,1,0,1,,,,,,,,,,,,,,,,,,,,,,,,,,,,,,,
,,,,,,,,,,,,,,,89994,001,2022-04-26_22h10.54.510,SPAMnetsValid,2021.1.4,Win32,59.79788315,,,,,,,,,,,,,,,,,,,,,,,,,,,,,,,,,,,,,,,,,,,,,,,,,,,,transport,bucket,2,0,2,0,1,,,,,,,,,,,,,,,,,,,,,,,,,,,,,,,
,,,,,,,,,,,,,,,89994,001,2022-04-26_22h10.54.510,SPAMnetsValid,2021.1.4,Win32,59.79788315,,,,,,,,,,,,,,,,,,,,,,,,,,,,,,,,,,,,,,,,,,,,,,,,,,,,scare animals away when banging on it,bucket,3,0,3,0,1,,,,,,,,,,,,,,,,,,,,,,,,,,,,,,,
,,,,,,,,,,,,,,,89994,001,2022-04-26_22h10.54.510,SPAMnetsValid,2021.1.4,Win32,59.79788315,,,,,,,,,,,,,,,,,,,,,,,,,,,,,,,,,,,,,,,,,,,,,,,,,,,,cut holes and let roots grow through it,bucket,4,0,4,0,1,,,,,,,,,,,,,,,,,,,,,,,,,,,,,,,
,,,,,,,,,,,,,,,89994,001,2022-04-26_22h10.54.510,SPAMnetsValid,2021.1.4,Win32,59.79788315,,,,,,,,,,,,,,,,,,,,,,,,,,,,,,,,,,,,,,,,,,,,,,,,,,,,fill with material and make weights/gym ,bucket,5,0,5,0,1,,,,,,,,,,,,,,,,,,,,,,,,,,,,,,,
,,,,,,,,,,,,,,,89994,001,2022-04-26_22h10.54.510,SPAMnetsValid,2021.1.4,Win32,59.79788315,,,,,,,,,,,,,,,,,,,,,,,,,,,,,,,,,,,,,,,,,,,,,,,,,,,,use as lamp shade,bucket,6,0,6,0,1,,,,,,,,,,,,,,,,,,,,,,,,,,,,,,,
,,,,,,,,,,,,,,,89994,001,2022-04-26_22h10.54.510,SPAMnetsValid,2021.1.4,Win32,59.79788315,,,,,,,,,,,,,,,,,,,,,,,,,,,,,,,,,,,,,,,,,,,,,,,,,,,,capture snakes ,bucket,7,0,7,0,1,,,,,,,,,,,,,,,,,,,,,,,,,,,,,,,
,,,,,,,,,,,,,,,89994,001,2022-04-26_22h10.54.510,SPAMnetsValid,2021.1.4,Win32,59.79788315,,,,,,,,,,,,,,,,,,,,,,,,,,,,,,,,,,,,,,,,,,,,,,,,,,,,,,,,,,,0,1,1,0,1,bucket,,,,,,,,,,,,,,,,,,,,,,,,,
,,,,,,,,,,,,,,,89994,001,2022-04-26_22h10.54.510,SPAMnetsValid,2021.1.4,Win32,59.79788315,,,,,,,,,,,,,,,,,,,,,,,,,,,,,,,,,,,,,,,,,,,,,,,,,,,,parachute,pillow,0,0,0,0,1,,,,,,,,,,,,,,,,,,,,,,,,,,,,,,,
,,,,,,,,,,,,,,,89994,001,2022-04-26_22h10.54.510,SPAMnetsValid,2021.1.4,Win32,59.79788315,,,,,,,,,,,,,,,,,,,,,,,,,,,,,,,,,,,,,,,,,,,,,,,,,,,,knee pads,pillow,1,0,1,0,1,,,,,,,,,,,,,,,,,,,,,,,,,,,,,,,
,,,,,,,,,,,,,,,89994,001,2022-04-26_22h10.54.510,SPAMnetsValid,2021.1.4,Win32,59.79788315,,,,,,,,,,,,,,,,,,,,,,,,,,,,,,,,,,,,,,,,,,,,,,,,,,,,buffer for heavy items,pillow,2,0,2,0,1,,,,,,,,,,,,,,,,,,,,,,,,,,,,,,,
,,,,,,,,,,,,,,,89994,001,2022-04-26_22h10.54.510,SPAMnetsValid,2021.1.4,Win32,59.79788315,,,,,,,,,,,,,,,,,,,,,,,,,,,,,,,,,,,,,,,,,,,,,,,,,,,,wrap around car bumper to catch bugs/stop paint chip,pillow,3,0,3,0,1,,,,,,,,,,,,,,,,,,,,,,,,,,,,,,,
,,,,,,,,,,,,,,,89994,001,2022-04-26_22h10.54.510,SPAMnetsValid,2021.1.4,Win32,59.79788315,,,,,,,,,,,,,,,,,,,,,,,,,,,,,,,,,,,,,,,,,,,,,,,,,,,,,,,,,,,0,2,2,2,1,pillow,,,,,,,,,,,,,,,,,,,,,,,,,
,,,,,,,,,,,,,,,89994,001,2022-04-26_22h10.54.510,SPAMnetsValid,2021.1.4,Win32,59.79788315,,,,,,,,,,,,,,,,,,,,,,,,,,,,,,,,,,,,,,,,,,,,,,,,,,,,,,,,,,,,,,,,,bird,Animals,0,0,0,0,1,,,,,,,,,,,,,,,,,,
,,,,,,,,,,,,,,,89994,001,2022-04-26_22h10.54.510,SPAMnetsValid,2021.1.4,Win32,59.79788315,,,,,,,,,,,,,,,,,,,,,,,,,,,,,,,,,,,,,,,,,,,,,,,,,,,,,,,,,,,,,,,,,dog,Animals,1,0,1,0,1,,,,,,,,,,,,,,,,,,
,,,,,,,,,,,,,,,89994,001,2022-04-26_22h10.54.510,SPAMnetsValid,2021.1.4,Win32,59.79788315,,,,,,,,,,,,,,,,,,,,,,,,,,,,,,,,,,,,,,,,,,,,,,,,,,,,,,,,,,,,,,,,,cat,Animals,2,0,2,0,1,,,,,,,,,,,,,,,,,,
,,,,,,,,,,,,,,,89994,001,2022-04-26_22h10.54.510,SPAMnetsValid,2021.1.4,Win32,59.79788315,,,,,,,,,,,,,,,,,,,,,,,,,,,,,,,,,,,,,,,,,,,,,,,,,,,,,,,,,,,,,,,,,lion,Animals,3,0,3,0,1,,,,,,,,,,,,,,,,,,
,,,,,,,,,,,,,,,89994,001,2022-04-26_22h10.54.510,SPAMnetsValid,2021.1.4,Win32,59.79788315,,,,,,,,,,,,,,,,,,,,,,,,,,,,,,,,,,,,,,,,,,,,,,,,,,,,,,,,,,,,,,,,,tiger,Animals,4,0,4,0,1,,,,,,,,,,,,,,,,,,
,,,,,,,,,,,,,,,89994,001,2022-04-26_22h10.54.510,SPAMnetsValid,2021.1.4,Win32,59.79788315,,,,,,,,,,,,,,,,,,,,,,,,,,,,,,,,,,,,,,,,,,,,,,,,,,,,,,,,,,,,,,,,,bear,Animals,5,0,5,0,1,,,,,,,,,,,,,,,,,,
,,,,,,,,,,,,,,,89994,001,2022-04-26_22h10.54.510,SPAMnetsValid,2021.1.4,Win32,59.79788315,,,,,,,,,,,,,,,,,,,,,,,,,,,,,,,,,,,,,,,,,,,,,,,,,,,,,,,,,,,,,,,,,cougar,Animals,6,0,6,0,1,,,,,,,,,,,,,,,,,,
,,,,,,,,,,,,,,,89994,001,2022-04-26_22h10.54.510,SPAMnetsValid,2021.1.4,Win32,59.79788315,,,,,,,,,,,,,,,,,,,,,,,,,,,,,,,,,,,,,,,,,,,,,,,,,,,,,,,,,,,,,,,,,bird,Animals,7,0,7,0,1,,,,,,,,,,,,,,,,,,
,,,,,,,,,,,,,,,89994,001,2022-04-26_22h10.54.510,SPAMnetsValid,2021.1.4,Win32,59.79788315,,,,,,,,,,,,,,,,,,,,,,,,,,,,,,,,,,,,,,,,,,,,,,,,,,,,,,,,,,,,,,,,,parrot,Animals,8,0,8,0,1,,,,,,,,,,,,,,,,,,
,,,,,,,,,,,,,,,89994,001,2022-04-26_22h10.54.510,SPAMnetsValid,2021.1.4,Win32,59.79788315,,,,,,,,,,,,,,,,,,,,,,,,,,,,,,,,,,,,,,,,,,,,,,,,,,,,,,,,,,,,,,,,,snake,Animals,9,0,9,0,1,,,,,,,,,,,,,,,,,,
,,,,,,,,,,,,,,,89994,001,2022-04-26_22h10.54.510,SPAMnetsValid,2021.1.4,Win32,59.79788315,,,,,,,,,,,,,,,,,,,,,,,,,,,,,,,,,,,,,,,,,,,,,,,,,,,,,,,,,,,,,,,,,mouse,Animals,10,0,10,0,1,,,,,,,,,,,,,,,,,,
,,,,,,,,,,,,,,,89994,001,2022-04-26_22h10.54.510,SPAMnetsValid,2021.1.4,Win32,59.79788315,,,,,,,,,,,,,,,,,,,,,,,,,,,,,,,,,,,,,,,,,,,,,,,,,,,,,,,,,,,,,,,,,deer,Animals,11,0,11,0,1,,,,,,,,,,,,,,,,,,
,,,,,,,,,,,,,,,89994,001,2022-04-26_22h10.54.510,SPAMnetsValid,2021.1.4,Win32,59.79788315,,,,,,,,,,,,,,,,,,,,,,,,,,,,,,,,,,,,,,,,,,,,,,,,,,,,,,,,,,,,,,,,,moose,Animals,12,0,12,0,1,,,,,,,,,,,,,,,,,,
,,,,,,,,,,,,,,,89994,001,2022-04-26_22h10.54.510,SPAMnetsValid,2021.1.4,Win32,59.79788315,,,,,,,,,,,,,,,,,,,,,,,,,,,,,,,,,,,,,,,,,,,,,,,,,,,,,,,,,,,,,,,,,bass,Animals,13,0,13,0,1,,,,,,,,,,,,,,,,,,
,,,,,,,,,,,,,,,89994,001,2022-04-26_22h10.54.510,SPAMnetsValid,2021.1.4,Win32,59.79788315,,,,,,,,,,,,,,,,,,,,,,,,,,,,,,,,,,,,,,,,,,,,,,,,,,,,,,,,,,,,,,,,,fish,Animals,14,0,14,0,1,,,,,,,,,,,,,,,,,,
,,,,,,,,,,,,,,,89994,001,2022-04-26_22h10.54.510,SPAMnetsValid,2021.1.4,Win32,59.79788315,,,,,,,,,,,,,,,,,,,,,,,,,,,,,,,,,,,,,,,,,,,,,,,,,,,,,,,,,,,,,,,,,shark,Animals,15,0,15,0,1,,,,,,,,,,,,,,,,,,
,,,,,,,,,,,,,,,89994,001,2022-04-26_22h10.54.510,SPAMnetsValid,2021.1.4,Win32,59.79788315,,,,,,,,,,,,,,,,,,,,,,,,,,,,,,,,,,,,,,,,,,,,,,,,,,,,,,,,,,,,,,,,,whale,Animals,16,0,16,0,1,,,,,,,,,,,,,,,,,,
,,,,,,,,,,,,,,,89994,001,2022-04-26_22h10.54.510,SPAMnetsValid,2021.1.4,Win32,59.79788315,,,,,,,,,,,,,,,,,,,,,,,,,,,,,,,,,,,,,,,,,,,,,,,,,,,,,,,,,,,,,,,,,shrimp,Animals,17,0,17,0,1,,,,,,,,,,,,,,,,,,
,,,,,,,,,,,,,,,89994,001,2022-04-26_22h10.54.510,SPAMnetsValid,2021.1.4,Win32,59.79788315,,,,,,,,,,,,,,,,,,,,,,,,,,,,,,,,,,,,,,,,,,,,,,,,,,,,,,,,,,,,,,,,,star fish,Animals,18,0,18,0,1,,,,,,,,,,,,,,,,,,
,,,,,,,,,,,,,,,89994,001,2022-04-26_22h10.54.510,SPAMnetsValid,2021.1.4,Win32,59.79788315,,,,,,,,,,,,,,,,,,,,,,,,,,,,,,,,,,,,,,,,,,,,,,,,,,,,,,,,,,,,,,,,,sea urchant,Animals,19,0,19,0,1,,,,,,,,,,,,,,,,,,
,,,,,,,,,,,,,,,89994,001,2022-04-26_22h10.54.510,SPAMnetsValid,2021.1.4,Win32,59.79788315,,,,,,,,,,,,,,,,,,,,,,,,,,,,,,,,,,,,,,,,,,,,,,,,,,,,,,,,,,,,,,,,,crab,Animals,20,0,20,0,1,,,,,,,,,,,,,,,,,,
,,,,,,,,,,,,,,,89994,001,2022-04-26_22h10.54.510,SPAMnetsValid,2021.1.4,Win32,59.79788315,,,,,,,,,,,,,,,,,,,,,,,,,,,,,,,,,,,,,,,,,,,,,,,,,,,,,,,,,,,,,,,,,dinosaur,Animals,21,0,21,0,1,,,,,,,,,,,,,,,,,,
,,,,,,,,,,,,,,,89994,001,2022-04-26_22h10.54.510,SPAMnetsValid,2021.1.4,Win32,59.79788315,,,,,,,,,,,,,,,,,,,,,,,,,,,,,,,,,,,,,,,,,,,,,,,,,,,,,,,,,,,,,,,,,duck,Animals,22,0,22,0,1,,,,,,,,,,,,,,,,,,
,,,,,,,,,,,,,,,89994,001,2022-04-26_22h10.54.510,SPAMnetsValid,2021.1.4,Win32,59.79788315,,,,,,,,,,,,,,,,,,,,,,,,,,,,,,,,,,,,,,,,,,,,,,,,,,,,,,,,,,,,,,,,,chicken,Animals,23,0,23,0,1,,,,,,,,,,,,,,,,,,
,,,,,,,,,,,,,,,89994,001,2022-04-26_22h10.54.510,SPAMnetsValid,2021.1.4,Win32,59.79788315,,,,,,,,,,,,,,,,,,,,,,,,,,,,,,,,,,,,,,,,,,,,,,,,,,,,,,,,,,,,,,,,,cow,Animals,24,0,24,0,1,,,,,,,,,,,,,,,,,,
,,,,,,,,,,,,,,,89994,001,2022-04-26_22h10.54.510,SPAMnetsValid,2021.1.4,Win32,59.79788315,,,,,,,,,,,,,,,,,,,,,,,,,,,,,,,,,,,,,,,,,,,,,,,,,,,,,,,,,,,,,,,,,humming bird,Animals,25,0,25,0,1,,,,,,,,,,,,,,,,,,
,,,,,,,,,,,,,,,89994,001,2022-04-26_22h10.54.510,SPAMnetsValid,2021.1.4,Win32,59.79788315,,,,,,,,,,,,,,,,,,,,,,,,,,,,,,,,,,,,,,,,,,,,,,,,,,,,,,,,,,,,,,,,,,,,,,,,0,0,0,0,1,Animals,,,,,,,,,,,,
,,,,,,,,,,,,,,,89994,001,2022-04-26_22h10.54.510,SPAMnetsValid,2021.1.4,Win32,59.79788315,,,,,,,,,,,,,,,,,,,,,,,,,,,,,,,,,,,,,,,,,,,,,,,,,,,,,,,,,,,,,,,,,,,,,,,,,,,,,,4,7.0021,0,0,0,0,1,"I enjoy concentrating on a fantasy or daydream and exploring all its possibilities, letting it grow and develop.",0,1,,
,,,,,,,,,,,,,,,89994,001,2022-04-26_22h10.54.510,SPAMnetsValid,2021.1.4,Win32,59.79788315,,,,,,,,,,,,,,,,,,,,,,,,,,,,,,,,,,,,,,,,,,,,,,,,,,,,,,,,,,,,,,,,,,,,,,,,,,,,,,5,2.8864,0,1,1,1,1,I think it's interesting to learn and develop new hobbies.,0,2,,
,,,,,,,,,,,,,,,89994,001,2022-04-26_22h10.54.510,SPAMnetsValid,2021.1.4,Win32,59.79788315,,,,,,,,,,,,,,,,,,,,,,,,,,,,,,,,,,,,,,,,,,,,,,,,,,,,,,,,,,,,,,,,,,,,,,,,,,,,,,5,3.9857,0,2,2,2,1,I am intrigued by the patterns I find in art and nature.,0,3,,
,,,,,,,,,,,,,,,89994,001,2022-04-26_22h10.54.510,SPAMnetsValid,2021.1.4,Win32,59.79788315,,,,,,,,,,,,,,,,,,,,,,,,,,,,,,,,,,,,,,,,,,,,,,,,,,,,,,,,,,,,,,,,,,,,,,,,,,,,,,3,6.0857,0,3,3,3,1,I believe letting students hear controversial speakers can only confuse and mislead them.,1,4,,
,,,,,,,,,,,,,,,89994,001,2022-04-26_22h10.54.510,SPAMnetsValid,2021.1.4,Win32,59.79788315,,,,,,,,,,,,,,,,,,,,,,,,,,,,,,,,,,,,,,,,,,,,,,,,,,,,,,,,,,,,,,,,,,,,,,,,,,,,,,2,4.4331,0,4,4,4,1,Poetry has little or no effect on me.,1,5,,
,,,,,,,,,,,,,,,89994,001,2022-04-26_22h10.54.510,SPAMnetsValid,2021.1.4,Win32,59.79788315,,,,,,,,,,,,,,,,,,,,,,,,,,,,,,,,,,,,,,,,,,,,,,,,,,,,,,,,,,,,,,,,,,,,,,,,,,,,,,2,5.8694,0,5,5,5,1,I would have difficulty just letting my mind wander without control or guidance.,1,6,,
,,,,,,,,,,,,,,,89994,001,2022-04-26_22h10.54.510,SPAMnetsValid,2021.1.4,Win32,59.79788315,,,,,,,,,,,,,,,,,,,,,,,,,,,,,,,,,,,,,,,,,,,,,,,,,,,,,,,,,,,,,,,,,,,,,,,,,,,,,,1,5.0148,0,6,6,6,1,I seldom notice the moods or feelings that different environments produce.,1,7,,
,,,,,,,,,,,,,,,89994,001,2022-04-26_22h10.54.510,SPAMnetsValid,2021.1.4,Win32,59.79788315,,,,,,,,,,,,,,,,,,,,,,,,,,,,,,,,,,,,,,,,,,,,,,,,,,,,,,,,,,,,,,,,,,,,,,,,,,,,,,4,2.7694,0,7,7,7,1,I experience a wide range of emotions or feelings.,0,8,,
,,,,,,,,,,,,,,,89994,001,2022-04-26_22h10.54.510,SPAMnetsValid,2021.1.4,Win32,59.79788315,,,,,,,,,,,,,,,,,,,,,,,,,,,,,,,,,,,,,,,,,,,,,,,,,,,,,,,,,,,,,,,,,,,,,,,,,,,,,,2,4.3908,0,8,8,8,1,"Sometimes when I am reading poetry or looking at a work of art, I feel a chill or wave of excitement.",0,9,,
,,,,,,,,,,,,,,,89994,001,2022-04-26_22h10.54.510,SPAMnetsValid,2021.1.4,Win32,59.79788315,,,,,,,,,,,,,,,,,,,,,,,,,,,,,,,,,,,,,,,,,,,,,,,,,,,,,,,,,,,,,,,,,,,,,,,,,,,,,,2,3.7004,0,9,9,9,1,I have little interest in speculating on the nature of the universe or the human condition.,1,10,,
,,,,,,,,,,,,,,,89994,001,2022-04-26_22h10.54.510,SPAMnetsValid,2021.1.4,Win32,59.79788315,,,,,,,,,,,,,,,,,,,,,,,,,,,,,,,,,,,,,,,,,,,,,,,,,,,,,,,,,,,,,,,,,,,,,,,,,,,,,,4,1.797,0,10,10,10,1,I have a lot of intellectual curiosity.,0,11,,
,,,,,,,,,,,,,,,89994,001,2022-04-26_22h10.54.510,SPAMnetsValid,2021.1.4,Win32,59.79788315,,,,,,,,,,,,,,,,,,,,,,,,,,,,,,,,,,,,,,,,,,,,,,,,,,,,,,,,,,,,,,,,,,,,,,,,,,,,,,5,2.3858,0,11,11,11,1,I often enjoy playing with theories or abstract ideas.,0,12,,
,,,,,,,,,,,,,,,89994,001,2022-04-26_22h10.54.510,SPAMnetsValid,2021.1.4,Win32,59.79788315,,,,,,,,,,,,,,,,,,,,,,,,,,,,,,,,,,,,,,,,,,,,,,,,,,,,,,,,,,,,,,,,,,,,,,,,,,,,,,,,,,,,,,,,return,10.3662
