key_resp_3.keys,key_resp_3.rt,slider_2.response,slider_2.rt,rjt_rating,rjt_RT,trials_24.thisRepN,trials_24.thisTrialN,trials_24.thisN,trials_24.thisIndex,trials_24.ran,rjt_order,word1,word2,attention,participant,session,date,expName,psychopyVersion,OS,frameRate,trials_4.thisRepN,trials_4.thisTrialN,trials_4.thisN,trials_4.thisIndex,trials_4.ran,trials_5.thisRepN,trials_5.thisTrialN,trials_5.thisN,trials_5.thisIndex,trials_5.ran,repOne,repTwo,slider.response,slider.rt,trials_22.thisRepN,trials_22.thisTrialN,trials_22.thisN,trials_22.thisIndex,trials_22.ran,trials_99.thisRepN,trials_99.thisTrialN,trials_99.thisN,trials_99.thisIndex,trials_99.ran,slider_extend_2.response,slider_extend_2.rt,trials_6.thisRepN,trials_6.thisTrialN,trials_6.thisN,trials_6.thisIndex,trials_6.ran,vCue2,R1,R2,R3,R4,correct,sliderVocab.response,sliderVocab.rt,trials_7.thisRepN,trials_7.thisTrialN,trials_7.thisN,trials_7.thisIndex,trials_7.ran,VocabCue,VR1,VR2,VR3,VR4,VR5,VocabCorrect,AUT_resp,AUT_label,trials.thisRepN,trials.thisTrialN,trials.thisN,trials.thisIndex,trials.ran,trials_2.thisRepN,trials_2.thisTrialN,trials_2.thisN,trials_2.thisIndex,trials_2.ran,aut_prompt,VF_response,VF_tag,trials_16.thisRepN,trials_16.thisTrialN,trials_16.thisN,trials_16.thisIndex,trials_16.ran,trials_17.thisRepN,trials_17.thisTrialN,trials_17.thisN,trials_17.thisIndex,trials_17.ran,VFcond,open_slider.response,open_slider.rt,trials_3.thisRepN,trials_3.thisTrialN,trials_3.thisN,trials_3.thisIndex,trials_3.ran,OpenQ,Rev,OPEN_ORDER,key_resp_2.keys,key_resp_2.rt
return,11.949,5,7.0636,5,7.0636,0,0,0,70,1,141,melon,tomato,,90026,001,2022-04-28_11h43.41.306,SPAMnetsValid,2021.1.4,MacIntel,60.04202942,,,,,,,,,,,,,,,,,,,,,,,,,,,,,,,,,,,,,,,,,,,,,,,,,,,,,,,,,,,,,,,,,,,,,,,,,,,,,,,,,,,,,,,,,
,,1,1.5148,1,1.5148,0,1,1,90,1,190,microwave,strawberry,,90026,001,2022-04-28_11h43.41.306,SPAMnetsValid,2021.1.4,MacIntel,60.04202942,,,,,,,,,,,,,,,,,,,,,,,,,,,,,,,,,,,,,,,,,,,,,,,,,,,,,,,,,,,,,,,,,,,,,,,,,,,,,,,,,,,,,,,,,
,,1,2.6412,1,2.6412,0,2,2,40,1,165,onion,rose,,90026,001,2022-04-28_11h43.41.306,SPAMnetsValid,2021.1.4,MacIntel,60.04202942,,,,,,,,,,,,,,,,,,,,,,,,,,,,,,,,,,,,,,,,,,,,,,,,,,,,,,,,,,,,,,,,,,,,,,,,,,,,,,,,,,,,,,,,,
,,3,1.0412,3,1.0412,0,3,3,3,1,129,cactus,refrigerator,,90026,001,2022-04-28_11h43.41.306,SPAMnetsValid,2021.1.4,MacIntel,60.04202942,,,,,,,,,,,,,,,,,,,,,,,,,,,,,,,,,,,,,,,,,,,,,,,,,,,,,,,,,,,,,,,,,,,,,,,,,,,,,,,,,,,,,,,,,
,,3,1.0923,3,1.0923,0,4,4,88,1,171,cake,tomato,,90026,001,2022-04-28_11h43.41.306,SPAMnetsValid,2021.1.4,MacIntel,60.04202942,,,,,,,,,,,,,,,,,,,,,,,,,,,,,,,,,,,,,,,,,,,,,,,,,,,,,,,,,,,,,,,,,,,,,,,,,,,,,,,,,,,,,,,,,
,,3,1.239,3,1.239,0,5,5,54,1,101,cactus,kitchen,,90026,001,2022-04-28_11h43.41.306,SPAMnetsValid,2021.1.4,MacIntel,60.04202942,,,,,,,,,,,,,,,,,,,,,,,,,,,,,,,,,,,,,,,,,,,,,,,,,,,,,,,,,,,,,,,,,,,,,,,,,,,,,,,,,,,,,,,,,
,,9,2.5063,9,2.5063,0,6,6,61,1,138,flower,rose,,90026,001,2022-04-28_11h43.41.306,SPAMnetsValid,2021.1.4,MacIntel,60.04202942,,,,,,,,,,,,,,,,,,,,,,,,,,,,,,,,,,,,,,,,,,,,,,,,,,,,,,,,,,,,,,,,,,,,,,,,,,,,,,,,,,,,,,,,,
,,2,1.1579,2,1.1579,0,7,7,79,1,103,pretzel,tomato,,90026,001,2022-04-28_11h43.41.306,SPAMnetsValid,2021.1.4,MacIntel,60.04202942,,,,,,,,,,,,,,,,,,,,,,,,,,,,,,,,,,,,,,,,,,,,,,,,,,,,,,,,,,,,,,,,,,,,,,,,,,,,,,,,,,,,,,,,,
,,3,1.5271,3,1.5271,0,8,8,94,1,133,cake,flower,,90026,001,2022-04-28_11h43.41.306,SPAMnetsValid,2021.1.4,MacIntel,60.04202942,,,,,,,,,,,,,,,,,,,,,,,,,,,,,,,,,,,,,,,,,,,,,,,,,,,,,,,,,,,,,,,,,,,,,,,,,,,,,,,,,,,,,,,,,
,,2,1.2449,2,1.2449,0,9,9,57,1,127,cactus,chocolate,,90026,001,2022-04-28_11h43.41.306,SPAMnetsValid,2021.1.4,MacIntel,60.04202942,,,,,,,,,,,,,,,,,,,,,,,,,,,,,,,,,,,,,,,,,,,,,,,,,,,,,,,,,,,,,,,,,,,,,,,,,,,,,,,,,,,,,,,,,
,,2,1.0872,2,1.0872,0,10,10,4,1,109,broom,strawberry,,90026,001,2022-04-28_11h43.41.306,SPAMnetsValid,2021.1.4,MacIntel,60.04202942,,,,,,,,,,,,,,,,,,,,,,,,,,,,,,,,,,,,,,,,,,,,,,,,,,,,,,,,,,,,,,,,,,,,,,,,,,,,,,,,,,,,,,,,,
,,2,0.9891,2,0.9891,0,11,11,6,1,151,microwave,onion,,90026,001,2022-04-28_11h43.41.306,SPAMnetsValid,2021.1.4,MacIntel,60.04202942,,,,,,,,,,,,,,,,,,,,,,,,,,,,,,,,,,,,,,,,,,,,,,,,,,,,,,,,,,,,,,,,,,,,,,,,,,,,,,,,,,,,,,,,,
,,2,1.2801,2,1.2801,0,12,12,50,1,126,kitchen,tree,,90026,001,2022-04-28_11h43.41.306,SPAMnetsValid,2021.1.4,MacIntel,60.04202942,,,,,,,,,,,,,,,,,,,,,,,,,,,,,,,,,,,,,,,,,,,,,,,,,,,,,,,,,,,,,,,,,,,,,,,,,,,,,,,,,,,,,,,,,
,,2,1.1176,2,1.1176,0,13,13,78,1,132,broom,tree,,90026,001,2022-04-28_11h43.41.306,SPAMnetsValid,2021.1.4,MacIntel,60.04202942,,,,,,,,,,,,,,,,,,,,,,,,,,,,,,,,,,,,,,,,,,,,,,,,,,,,,,,,,,,,,,,,,,,,,,,,,,,,,,,,,,,,,,,,,
,,6,1.4435,6,1.4435,0,14,14,91,1,166,cake,yogurt,,90026,001,2022-04-28_11h43.41.306,SPAMnetsValid,2021.1.4,MacIntel,60.04202942,,,,,,,,,,,,,,,,,,,,,,,,,,,,,,,,,,,,,,,,,,,,,,,,,,,,,,,,,,,,,,,,,,,,,,,,,,,,,,,,,,,,,,,,,
,,6,1.147,6,1.147,0,15,15,28,1,154,strawberry,yogurt,,90026,001,2022-04-28_11h43.41.306,SPAMnetsValid,2021.1.4,MacIntel,60.04202942,,,,,,,,,,,,,,,,,,,,,,,,,,,,,,,,,,,,,,,,,,,,,,,,,,,,,,,,,,,,,,,,,,,,,,,,,,,,,,,,,,,,,,,,,
,,4,2.1973,4,2.1973,0,16,16,73,1,135,carrot,oven,,90026,001,2022-04-28_11h43.41.306,SPAMnetsValid,2021.1.4,MacIntel,60.04202942,,,,,,,,,,,,,,,,,,,,,,,,,,,,,,,,,,,,,,,,,,,,,,,,,,,,,,,,,,,,,,,,,,,,,,,,,,,,,,,,,,,,,,,,,
,,3,20.694,3,20.694,0,17,17,59,1,164,cookie,garden,,90026,001,2022-04-28_11h43.41.306,SPAMnetsValid,2021.1.4,MacIntel,60.04202942,,,,,,,,,,,,,,,,,,,,,,,,,,,,,,,,,,,,,,,,,,,,,,,,,,,,,,,,,,,,,,,,,,,,,,,,,,,,,,,,,,,,,,,,,
,,6,3.8409,6,3.8409,0,18,18,37,1,139,carrot,strawberry,,90026,001,2022-04-28_11h43.41.306,SPAMnetsValid,2021.1.4,MacIntel,60.04202942,,,,,,,,,,,,,,,,,,,,,,,,,,,,,,,,,,,,,,,,,,,,,,,,,,,,,,,,,,,,,,,,,,,,,,,,,,,,,,,,,,,,,,,,,
,,6,1.7257,6,1.7257,0,19,19,51,1,168,cactus,flower,,90026,001,2022-04-28_11h43.41.306,SPAMnetsValid,2021.1.4,MacIntel,60.04202942,,,,,,,,,,,,,,,,,,,,,,,,,,,,,,,,,,,,,,,,,,,,,,,,,,,,,,,,,,,,,,,,,,,,,,,,,,,,,,,,,,,,,,,,,
,,4,2.2285,4,2.2285,0,20,20,43,1,185,cactus,rose,,90026,001,2022-04-28_11h43.41.306,SPAMnetsValid,2021.1.4,MacIntel,60.04202942,,,,,,,,,,,,,,,,,,,,,,,,,,,,,,,,,,,,,,,,,,,,,,,,,,,,,,,,,,,,,,,,,,,,,,,,,,,,,,,,,,,,,,,,,
,,2,1.2235,2,1.2235,0,21,21,64,1,157,refrigerator,rose,,90026,001,2022-04-28_11h43.41.306,SPAMnetsValid,2021.1.4,MacIntel,60.04202942,,,,,,,,,,,,,,,,,,,,,,,,,,,,,,,,,,,,,,,,,,,,,,,,,,,,,,,,,,,,,,,,,,,,,,,,,,,,,,,,,,,,,,,,,
,,2,1.8423,2,1.8423,0,22,22,71,1,187,cactus,microwave,,90026,001,2022-04-28_11h43.41.306,SPAMnetsValid,2021.1.4,MacIntel,60.04202942,,,,,,,,,,,,,,,,,,,,,,,,,,,,,,,,,,,,,,,,,,,,,,,,,,,,,,,,,,,,,,,,,,,,,,,,,,,,,,,,,,,,,,,,,
,,2,1.273,2,1.273,0,23,23,30,1,125,carrot,tree,,90026,001,2022-04-28_11h43.41.306,SPAMnetsValid,2021.1.4,MacIntel,60.04202942,,,,,,,,,,,,,,,,,,,,,,,,,,,,,,,,,,,,,,,,,,,,,,,,,,,,,,,,,,,,,,,,,,,,,,,,,,,,,,,,,,,,,,,,,
,,2,0.7915,2,0.7915,0,24,24,49,1,152,cactus,strawberry,,90026,001,2022-04-28_11h43.41.306,SPAMnetsValid,2021.1.4,MacIntel,60.04202942,,,,,,,,,,,,,,,,,,,,,,,,,,,,,,,,,,,,,,,,,,,,,,,,,,,,,,,,,,,,,,,,,,,,,,,,,,,,,,,,,,,,,,,,,
,,2,0.6779,2,0.6779,0,25,25,12,1,162,microwave,tomato,,90026,001,2022-04-28_11h43.41.306,SPAMnetsValid,2021.1.4,MacIntel,60.04202942,,,,,,,,,,,,,,,,,,,,,,,,,,,,,,,,,,,,,,,,,,,,,,,,,,,,,,,,,,,,,,,,,,,,,,,,,,,,,,,,,,,,,,,,,
,,2,0.579,2,0.579,0,26,26,85,1,115,refrigerator,tomato,,90026,001,2022-04-28_11h43.41.306,SPAMnetsValid,2021.1.4,MacIntel,60.04202942,,,,,,,,,,,,,,,,,,,,,,,,,,,,,,,,,,,,,,,,,,,,,,,,,,,,,,,,,,,,,,,,,,,,,,,,,,,,,,,,,,,,,,,,,
,,7,1.0283,7,1.0283,0,27,27,53,1,177,chocolate,strawberry,,90026,001,2022-04-28_11h43.41.306,SPAMnetsValid,2021.1.4,MacIntel,60.04202942,,,,,,,,,,,,,,,,,,,,,,,,,,,,,,,,,,,,,,,,,,,,,,,,,,,,,,,,,,,,,,,,,,,,,,,,,,,,,,,,,,,,,,,,,
,,2,0.8618,2,0.8618,0,28,28,55,1,143,pretzel,rose,,90026,001,2022-04-28_11h43.41.306,SPAMnetsValid,2021.1.4,MacIntel,60.04202942,,,,,,,,,,,,,,,,,,,,,,,,,,,,,,,,,,,,,,,,,,,,,,,,,,,,,,,,,,,,,,,,,,,,,,,,,,,,,,,,,,,,,,,,,
,,7,1.2958,7,1.2958,0,29,29,35,1,147,cake,refrigerator,,90026,001,2022-04-28_11h43.41.306,SPAMnetsValid,2021.1.4,MacIntel,60.04202942,,,,,,,,,,,,,,,,,,,,,,,,,,,,,,,,,,,,,,,,,,,,,,,,,,,,,,,,,,,,,,,,,,,,,,,,,,,,,,,,,,,,,,,,,
,,3,0.7688,3,0.7688,0,30,30,60,1,122,flower,garden,,90026,001,2022-04-28_11h43.41.306,SPAMnetsValid,2021.1.4,MacIntel,60.04202942,,,,,,,,,,,,,,,,,,,,,,,,,,,,,,,,,,,,,,,,,,,,,,,,,,,,,,,,,,,,,,,,,,,,,,,,,,,,,,,,,,,,,,,,,
,,7,0.7277,7,0.7277,0,31,31,46,1,123,cookie,tree,,90026,001,2022-04-28_11h43.41.306,SPAMnetsValid,2021.1.4,MacIntel,60.04202942,,,,,,,,,,,,,,,,,,,,,,,,,,,,,,,,,,,,,,,,,,,,,,,,,,,,,,,,,,,,,,,,,,,,,,,,,,,,,,,,,,,,,,,,,
,,7,1.5967,7,1.5967,0,32,32,23,1,148,flower,melon,,90026,001,2022-04-28_11h43.41.306,SPAMnetsValid,2021.1.4,MacIntel,60.04202942,,,,,,,,,,,,,,,,,,,,,,,,,,,,,,,,,,,,,,,,,,,,,,,,,,,,,,,,,,,,,,,,,,,,,,,,,,,,,,,,,,,,,,,,,
,,9,1.9396,9,1.9396,0,33,33,86,1,193,melon,melon,CHECK,90026,001,2022-04-28_11h43.41.306,SPAMnetsValid,2021.1.4,MacIntel,60.04202942,,,,,,,,,,,,,,,,,,,,,,,,,,,,,,,,,,,,,,,,,,,,,,,,,,,,,,,,,,,,,,,,,,,,,,,,,,,,,,,,,,,,,,,,,
,,2,1.4492,2,1.4492,0,34,34,75,1,178,cactus,carrot,,90026,001,2022-04-28_11h43.41.306,SPAMnetsValid,2021.1.4,MacIntel,60.04202942,,,,,,,,,,,,,,,,,,,,,,,,,,,,,,,,,,,,,,,,,,,,,,,,,,,,,,,,,,,,,,,,,,,,,,,,,,,,,,,,,,,,,,,,,
,,7,1.1,7,1.1,0,35,35,48,1,186,kitchen,yogurt,,90026,001,2022-04-28_11h43.41.306,SPAMnetsValid,2021.1.4,MacIntel,60.04202942,,,,,,,,,,,,,,,,,,,,,,,,,,,,,,,,,,,,,,,,,,,,,,,,,,,,,,,,,,,,,,,,,,,,,,,,,,,,,,,,,,,,,,,,,
,,3,0.954,3,0.954,0,36,36,80,1,146,pretzel,tree,,90026,001,2022-04-28_11h43.41.306,SPAMnetsValid,2021.1.4,MacIntel,60.04202942,,,,,,,,,,,,,,,,,,,,,,,,,,,,,,,,,,,,,,,,,,,,,,,,,,,,,,,,,,,,,,,,,,,,,,,,,,,,,,,,,,,,,,,,,
,,2,1.5742,2,1.5742,0,37,37,18,1,119,strawberry,tree,,90026,001,2022-04-28_11h43.41.306,SPAMnetsValid,2021.1.4,MacIntel,60.04202942,,,,,,,,,,,,,,,,,,,,,,,,,,,,,,,,,,,,,,,,,,,,,,,,,,,,,,,,,,,,,,,,,,,,,,,,,,,,,,,,,,,,,,,,,
,,2,1.0968,2,1.0968,0,38,38,8,1,97,chocolate,kitchen,,90026,001,2022-04-28_11h43.41.306,SPAMnetsValid,2021.1.4,MacIntel,60.04202942,,,,,,,,,,,,,,,,,,,,,,,,,,,,,,,,,,,,,,,,,,,,,,,,,,,,,,,,,,,,,,,,,,,,,,,,,,,,,,,,,,,,,,,,,
,,2,0.7172,2,0.7172,0,39,39,34,1,153,carrot,pretzel,,90026,001,2022-04-28_11h43.41.306,SPAMnetsValid,2021.1.4,MacIntel,60.04202942,,,,,,,,,,,,,,,,,,,,,,,,,,,,,,,,,,,,,,,,,,,,,,,,,,,,,,,,,,,,,,,,,,,,,,,,,,,,,,,,,,,,,,,,,
,,7,1.346,7,1.346,0,40,40,56,1,113,refrigerator,strawberry,,90026,001,2022-04-28_11h43.41.306,SPAMnetsValid,2021.1.4,MacIntel,60.04202942,,,,,,,,,,,,,,,,,,,,,,,,,,,,,,,,,,,,,,,,,,,,,,,,,,,,,,,,,,,,,,,,,,,,,,,,,,,,,,,,,,,,,,,,,
,,1,1.451,1,1.451,0,41,41,67,1,96,oven,strawberry,,90026,001,2022-04-28_11h43.41.306,SPAMnetsValid,2021.1.4,MacIntel,60.04202942,,,,,,,,,,,,,,,,,,,,,,,,,,,,,,,,,,,,,,,,,,,,,,,,,,,,,,,,,,,,,,,,,,,,,,,,,,,,,,,,,,,,,,,,,
,,7,1.984,7,1.984,0,42,42,66,1,150,microwave,refrigerator,,90026,001,2022-04-28_11h43.41.306,SPAMnetsValid,2021.1.4,MacIntel,60.04202942,,,,,,,,,,,,,,,,,,,,,,,,,,,,,,,,,,,,,,,,,,,,,,,,,,,,,,,,,,,,,,,,,,,,,,,,,,,,,,,,,,,,,,,,,
,,3,1.0307,3,1.0307,0,43,43,47,1,167,carrot,garden,,90026,001,2022-04-28_11h43.41.306,SPAMnetsValid,2021.1.4,MacIntel,60.04202942,,,,,,,,,,,,,,,,,,,,,,,,,,,,,,,,,,,,,,,,,,,,,,,,,,,,,,,,,,,,,,,,,,,,,,,,,,,,,,,,,,,,,,,,,
,,3,14.3173,3,14.3173,0,44,44,36,1,161,kitchen,pretzel,,90026,001,2022-04-28_11h43.41.306,SPAMnetsValid,2021.1.4,MacIntel,60.04202942,,,,,,,,,,,,,,,,,,,,,,,,,,,,,,,,,,,,,,,,,,,,,,,,,,,,,,,,,,,,,,,,,,,,,,,,,,,,,,,,,,,,,,,,,
,,2,1.2688,2,1.2688,0,45,45,15,1,145,cactus,yogurt,,90026,001,2022-04-28_11h43.41.306,SPAMnetsValid,2021.1.4,MacIntel,60.04202942,,,,,,,,,,,,,,,,,,,,,,,,,,,,,,,,,,,,,,,,,,,,,,,,,,,,,,,,,,,,,,,,,,,,,,,,,,,,,,,,,,,,,,,,,
,,7,1.2235,7,1.2235,0,46,46,11,1,117,melon,strawberry,,90026,001,2022-04-28_11h43.41.306,SPAMnetsValid,2021.1.4,MacIntel,60.04202942,,,,,,,,,,,,,,,,,,,,,,,,,,,,,,,,,,,,,,,,,,,,,,,,,,,,,,,,,,,,,,,,,,,,,,,,,,,,,,,,,,,,,,,,,
,,9,1.4531,9,1.4531,0,47,47,39,1,112,cake,carrot,,90026,001,2022-04-28_11h43.41.306,SPAMnetsValid,2021.1.4,MacIntel,60.04202942,,,,,,,,,,,,,,,,,,,,,,,,,,,,,,,,,,,,,,,,,,,,,,,,,,,,,,,,,,,,,,,,,,,,,,,,,,,,,,,,,,,,,,,,,
,,7,2.2554,7,2.2554,0,48,48,10,1,118,chocolate,oven,,90026,001,2022-04-28_11h43.41.306,SPAMnetsValid,2021.1.4,MacIntel,60.04202942,,,,,,,,,,,,,,,,,,,,,,,,,,,,,,,,,,,,,,,,,,,,,,,,,,,,,,,,,,,,,,,,,,,,,,,,,,,,,,,,,,,,,,,,,
,,3,1.0348,3,1.0348,0,49,49,63,1,137,microwave,tree,,90026,001,2022-04-28_11h43.41.306,SPAMnetsValid,2021.1.4,MacIntel,60.04202942,,,,,,,,,,,,,,,,,,,,,,,,,,,,,,,,,,,,,,,,,,,,,,,,,,,,,,,,,,,,,,,,,,,,,,,,,,,,,,,,,,,,,,,,,
,,4,1.8598,4,1.8598,0,50,50,84,1,130,microwave,yogurt,,90026,001,2022-04-28_11h43.41.306,SPAMnetsValid,2021.1.4,MacIntel,60.04202942,,,,,,,,,,,,,,,,,,,,,,,,,,,,,,,,,,,,,,,,,,,,,,,,,,,,,,,,,,,,,,,,,,,,,,,,,,,,,,,,,,,,,,,,,
,,6,1.1239,6,1.1239,0,51,51,87,1,114,cookie,strawberry,,90026,001,2022-04-28_11h43.41.306,SPAMnetsValid,2021.1.4,MacIntel,60.04202942,,,,,,,,,,,,,,,,,,,,,,,,,,,,,,,,,,,,,,,,,,,,,,,,,,,,,,,,,,,,,,,,,,,,,,,,,,,,,,,,,,,,,,,,,
,,4,0.9738,4,0.9738,0,52,52,33,1,131,cactus,garden,,90026,001,2022-04-28_11h43.41.306,SPAMnetsValid,2021.1.4,MacIntel,60.04202942,,,,,,,,,,,,,,,,,,,,,,,,,,,,,,,,,,,,,,,,,,,,,,,,,,,,,,,,,,,,,,,,,,,,,,,,,,,,,,,,,,,,,,,,,
,,6,1.5698,6,1.5698,0,53,53,65,1,160,cookie,kitchen,,90026,001,2022-04-28_11h43.41.306,SPAMnetsValid,2021.1.4,MacIntel,60.04202942,,,,,,,,,,,,,,,,,,,,,,,,,,,,,,,,,,,,,,,,,,,,,,,,,,,,,,,,,,,,,,,,,,,,,,,,,,,,,,,,,,,,,,,,,
,,6,2.1481,6,2.1481,0,54,54,26,1,107,rose,tomato,,90026,001,2022-04-28_11h43.41.306,SPAMnetsValid,2021.1.4,MacIntel,60.04202942,,,,,,,,,,,,,,,,,,,,,,,,,,,,,,,,,,,,,,,,,,,,,,,,,,,,,,,,,,,,,,,,,,,,,,,,,,,,,,,,,,,,,,,,,
,,4,1.5111,4,1.5111,0,55,55,58,1,144,cake,garden,,90026,001,2022-04-28_11h43.41.306,SPAMnetsValid,2021.1.4,MacIntel,60.04202942,,,,,,,,,,,,,,,,,,,,,,,,,,,,,,,,,,,,,,,,,,,,,,,,,,,,,,,,,,,,,,,,,,,,,,,,,,,,,,,,,,,,,,,,,
,,6,1.5744,6,1.5744,0,56,56,1,1,173,kitchen,tomato,,90026,001,2022-04-28_11h43.41.306,SPAMnetsValid,2021.1.4,MacIntel,60.04202942,,,,,,,,,,,,,,,,,,,,,,,,,,,,,,,,,,,,,,,,,,,,,,,,,,,,,,,,,,,,,,,,,,,,,,,,,,,,,,,,,,,,,,,,,
,,3,1.3372,3,1.3372,0,57,57,2,1,174,cake,pretzel,,90026,001,2022-04-28_11h43.41.306,SPAMnetsValid,2021.1.4,MacIntel,60.04202942,,,,,,,,,,,,,,,,,,,,,,,,,,,,,,,,,,,,,,,,,,,,,,,,,,,,,,,,,,,,,,,,,,,,,,,,,,,,,,,,,,,,,,,,,
,,7,1.6675,7,1.6675,0,58,58,7,1,188,flower,tree,,90026,001,2022-04-28_11h43.41.306,SPAMnetsValid,2021.1.4,MacIntel,60.04202942,,,,,,,,,,,,,,,,,,,,,,,,,,,,,,,,,,,,,,,,,,,,,,,,,,,,,,,,,,,,,,,,,,,,,,,,,,,,,,,,,,,,,,,,,
,,7,1.3451,7,1.3451,0,59,59,29,1,163,melon,refrigerator,,90026,001,2022-04-28_11h43.41.306,SPAMnetsValid,2021.1.4,MacIntel,60.04202942,,,,,,,,,,,,,,,,,,,,,,,,,,,,,,,,,,,,,,,,,,,,,,,,,,,,,,,,,,,,,,,,,,,,,,,,,,,,,,,,,,,,,,,,,
,,3,1.2748,3,1.2748,0,60,60,31,1,156,melon,rose,,90026,001,2022-04-28_11h43.41.306,SPAMnetsValid,2021.1.4,MacIntel,60.04202942,,,,,,,,,,,,,,,,,,,,,,,,,,,,,,,,,,,,,,,,,,,,,,,,,,,,,,,,,,,,,,,,,,,,,,,,,,,,,,,,,,,,,,,,,
,,3,1.4732,3,1.4732,0,61,61,16,1,111,carrot,microwave,,90026,001,2022-04-28_11h43.41.306,SPAMnetsValid,2021.1.4,MacIntel,60.04202942,,,,,,,,,,,,,,,,,,,,,,,,,,,,,,,,,,,,,,,,,,,,,,,,,,,,,,,,,,,,,,,,,,,,,,,,,,,,,,,,,,,,,,,,,
,,3,1.052,3,1.052,0,62,62,77,1,172,kitchen,melon,,90026,001,2022-04-28_11h43.41.306,SPAMnetsValid,2021.1.4,MacIntel,60.04202942,,,,,,,,,,,,,,,,,,,,,,,,,,,,,,,,,,,,,,,,,,,,,,,,,,,,,,,,,,,,,,,,,,,,,,,,,,,,,,,,,,,,,,,,,
,,8,1.4944,8,1.4944,0,63,63,83,1,100,garden,tomato,,90026,001,2022-04-28_11h43.41.306,SPAMnetsValid,2021.1.4,MacIntel,60.04202942,,,,,,,,,,,,,,,,,,,,,,,,,,,,,,,,,,,,,,,,,,,,,,,,,,,,,,,,,,,,,,,,,,,,,,,,,,,,,,,,,,,,,,,,,
,,8,1.6258,8,1.6258,0,64,64,69,1,124,oven,refrigerator,,90026,001,2022-04-28_11h43.41.306,SPAMnetsValid,2021.1.4,MacIntel,60.04202942,,,,,,,,,,,,,,,,,,,,,,,,,,,,,,,,,,,,,,,,,,,,,,,,,,,,,,,,,,,,,,,,,,,,,,,,,,,,,,,,,,,,,,,,,
,,6,1.1368,6,1.1368,0,65,65,5,1,108,carrot,chocolate,,90026,001,2022-04-28_11h43.41.306,SPAMnetsValid,2021.1.4,MacIntel,60.04202942,,,,,,,,,,,,,,,,,,,,,,,,,,,,,,,,,,,,,,,,,,,,,,,,,,,,,,,,,,,,,,,,,,,,,,,,,,,,,,,,,,,,,,,,,
,,7,1.9186,7,1.9186,0,66,66,38,1,155,carrot,cookie,,90026,001,2022-04-28_11h43.41.306,SPAMnetsValid,2021.1.4,MacIntel,60.04202942,,,,,,,,,,,,,,,,,,,,,,,,,,,,,,,,,,,,,,,,,,,,,,,,,,,,,,,,,,,,,,,,,,,,,,,,,,,,,,,,,,,,,,,,,
,,6,0.8607,6,0.8607,0,67,67,19,1,183,cake,rose,,90026,001,2022-04-28_11h43.41.306,SPAMnetsValid,2021.1.4,MacIntel,60.04202942,,,,,,,,,,,,,,,,,,,,,,,,,,,,,,,,,,,,,,,,,,,,,,,,,,,,,,,,,,,,,,,,,,,,,,,,,,,,,,,,,,,,,,,,,
,,2,1.9009,2,1.9009,0,68,68,24,1,169,onion,yogurt,,90026,001,2022-04-28_11h43.41.306,SPAMnetsValid,2021.1.4,MacIntel,60.04202942,,,,,,,,,,,,,,,,,,,,,,,,,,,,,,,,,,,,,,,,,,,,,,,,,,,,,,,,,,,,,,,,,,,,,,,,,,,,,,,,,,,,,,,,,
,,2,1.1556,2,1.1556,0,69,69,9,1,176,cactus,tomato,,90026,001,2022-04-28_11h43.41.306,SPAMnetsValid,2021.1.4,MacIntel,60.04202942,,,,,,,,,,,,,,,,,,,,,,,,,,,,,,,,,,,,,,,,,,,,,,,,,,,,,,,,,,,,,,,,,,,,,,,,,,,,,,,,,,,,,,,,,
,,7,1.6151,7,1.6151,0,70,70,44,1,116,cake,chocolate,,90026,001,2022-04-28_11h43.41.306,SPAMnetsValid,2021.1.4,MacIntel,60.04202942,,,,,,,,,,,,,,,,,,,,,,,,,,,,,,,,,,,,,,,,,,,,,,,,,,,,,,,,,,,,,,,,,,,,,,,,,,,,,,,,,,,,,,,,,
,,3,1.5504,3,1.5504,0,71,71,93,1,134,carrot,flower,,90026,001,2022-04-28_11h43.41.306,SPAMnetsValid,2021.1.4,MacIntel,60.04202942,,,,,,,,,,,,,,,,,,,,,,,,,,,,,,,,,,,,,,,,,,,,,,,,,,,,,,,,,,,,,,,,,,,,,,,,,,,,,,,,,,,,,,,,,
,,3,1.1873,3,1.1873,0,72,72,74,1,128,melon,microwave,,90026,001,2022-04-28_11h43.41.306,SPAMnetsValid,2021.1.4,MacIntel,60.04202942,,,,,,,,,,,,,,,,,,,,,,,,,,,,,,,,,,,,,,,,,,,,,,,,,,,,,,,,,,,,,,,,,,,,,,,,,,,,,,,,,,,,,,,,,
,,9,1.4706,9,1.4706,0,73,73,25,1,194,cactus,cactus,CHECK,90026,001,2022-04-28_11h43.41.306,SPAMnetsValid,2021.1.4,MacIntel,60.04202942,,,,,,,,,,,,,,,,,,,,,,,,,,,,,,,,,,,,,,,,,,,,,,,,,,,,,,,,,,,,,,,,,,,,,,,,,,,,,,,,,,,,,,,,,
,,2,1.2736,2,1.2736,0,74,74,13,1,105,cactus,oven,,90026,001,2022-04-28_11h43.41.306,SPAMnetsValid,2021.1.4,MacIntel,60.04202942,,,,,,,,,,,,,,,,,,,,,,,,,,,,,,,,,,,,,,,,,,,,,,,,,,,,,,,,,,,,,,,,,,,,,,,,,,,,,,,,,,,,,,,,,
,,2,1.5498,2,1.5498,0,75,75,32,1,182,flower,refrigerator,,90026,001,2022-04-28_11h43.41.306,SPAMnetsValid,2021.1.4,MacIntel,60.04202942,,,,,,,,,,,,,,,,,,,,,,,,,,,,,,,,,,,,,,,,,,,,,,,,,,,,,,,,,,,,,,,,,,,,,,,,,,,,,,,,,,,,,,,,,
,,7,1.9243,7,1.9243,0,76,76,72,1,181,carrot,kitchen,,90026,001,2022-04-28_11h43.41.306,SPAMnetsValid,2021.1.4,MacIntel,60.04202942,,,,,,,,,,,,,,,,,,,,,,,,,,,,,,,,,,,,,,,,,,,,,,,,,,,,,,,,,,,,,,,,,,,,,,,,,,,,,,,,,,,,,,,,,
,,8,1.8683,8,1.8683,0,77,77,14,1,120,microwave,oven,,90026,001,2022-04-28_11h43.41.306,SPAMnetsValid,2021.1.4,MacIntel,60.04202942,,,,,,,,,,,,,,,,,,,,,,,,,,,,,,,,,,,,,,,,,,,,,,,,,,,,,,,,,,,,,,,,,,,,,,,,,,,,,,,,,,,,,,,,,
,,2,1.1225,2,1.1225,0,78,78,62,1,189,onion,tree,,90026,001,2022-04-28_11h43.41.306,SPAMnetsValid,2021.1.4,MacIntel,60.04202942,,,,,,,,,,,,,,,,,,,,,,,,,,,,,,,,,,,,,,,,,,,,,,,,,,,,,,,,,,,,,,,,,,,,,,,,,,,,,,,,,,,,,,,,,
,,8,1.3786,8,1.3786,0,79,79,17,1,99,garden,melon,,90026,001,2022-04-28_11h43.41.306,SPAMnetsValid,2021.1.4,MacIntel,60.04202942,,,,,,,,,,,,,,,,,,,,,,,,,,,,,,,,,,,,,,,,,,,,,,,,,,,,,,,,,,,,,,,,,,,,,,,,,,,,,,,,,,,,,,,,,
,,2,1.4125,2,1.4125,0,80,80,41,1,175,melon,onion,,90026,001,2022-04-28_11h43.41.306,SPAMnetsValid,2021.1.4,MacIntel,60.04202942,,,,,,,,,,,,,,,,,,,,,,,,,,,,,,,,,,,,,,,,,,,,,,,,,,,,,,,,,,,,,,,,,,,,,,,,,,,,,,,,,,,,,,,,,
,,2,1.5506,2,1.5506,0,81,81,92,1,170,cookie,microwave,,90026,001,2022-04-28_11h43.41.306,SPAMnetsValid,2021.1.4,MacIntel,60.04202942,,,,,,,,,,,,,,,,,,,,,,,,,,,,,,,,,,,,,,,,,,,,,,,,,,,,,,,,,,,,,,,,,,,,,,,,,,,,,,,,,,,,,,,,,
,,7,1.2355,7,1.2355,0,82,82,82,1,98,pretzel,strawberry,,90026,001,2022-04-28_11h43.41.306,SPAMnetsValid,2021.1.4,MacIntel,60.04202942,,,,,,,,,,,,,,,,,,,,,,,,,,,,,,,,,,,,,,,,,,,,,,,,,,,,,,,,,,,,,,,,,,,,,,,,,,,,,,,,,,,,,,,,,
,,2,0.9212,2,0.9212,0,83,83,76,1,102,chocolate,refrigerator,,90026,001,2022-04-28_11h43.41.306,SPAMnetsValid,2021.1.4,MacIntel,60.04202942,,,,,,,,,,,,,,,,,,,,,,,,,,,,,,,,,,,,,,,,,,,,,,,,,,,,,,,,,,,,,,,,,,,,,,,,,,,,,,,,,,,,,,,,,
,,1,1.9243,1,1.9243,0,84,84,81,1,104,garden,microwave,,90026,001,2022-04-28_11h43.41.306,SPAMnetsValid,2021.1.4,MacIntel,60.04202942,,,,,,,,,,,,,,,,,,,,,,,,,,,,,,,,,,,,,,,,,,,,,,,,,,,,,,,,,,,,,,,,,,,,,,,,,,,,,,,,,,,,,,,,,
,,2,1.4075,2,1.4075,0,85,85,45,1,179,broom,oven,,90026,001,2022-04-28_11h43.41.306,SPAMnetsValid,2021.1.4,MacIntel,60.04202942,,,,,,,,,,,,,,,,,,,,,,,,,,,,,,,,,,,,,,,,,,,,,,,,,,,,,,,,,,,,,,,,,,,,,,,,,,,,,,,,,,,,,,,,,
,,8,1.458,8,1.458,0,86,86,89,1,140,cookie,refrigerator,,90026,001,2022-04-28_11h43.41.306,SPAMnetsValid,2021.1.4,MacIntel,60.04202942,,,,,,,,,,,,,,,,,,,,,,,,,,,,,,,,,,,,,,,,,,,,,,,,,,,,,,,,,,,,,,,,,,,,,,,,,,,,,,,,,,,,,,,,,
,,3,1.4103,3,1.4103,0,87,87,22,1,142,garden,tree,,90026,001,2022-04-28_11h43.41.306,SPAMnetsValid,2021.1.4,MacIntel,60.04202942,,,,,,,,,,,,,,,,,,,,,,,,,,,,,,,,,,,,,,,,,,,,,,,,,,,,,,,,,,,,,,,,,,,,,,,,,,,,,,,,,,,,,,,,,
,,3,34.816,3,34.816,0,88,88,96,1,136,chocolate,microwave,,90026,001,2022-04-28_11h43.41.306,SPAMnetsValid,2021.1.4,MacIntel,60.04202942,,,,,,,,,,,,,,,,,,,,,,,,,,,,,,,,,,,,,,,,,,,,,,,,,,,,,,,,,,,,,,,,,,,,,,,,,,,,,,,,,,,,,,,,,
,,2,0.8507,2,0.8507,0,89,89,20,1,149,broom,tomato,,90026,001,2022-04-28_11h43.41.306,SPAMnetsValid,2021.1.4,MacIntel,60.04202942,,,,,,,,,,,,,,,,,,,,,,,,,,,,,,,,,,,,,,,,,,,,,,,,,,,,,,,,,,,,,,,,,,,,,,,,,,,,,,,,,,,,,,,,,
,,7,0.9918,7,0.9918,0,90,90,27,1,158,cookie,oven,,90026,001,2022-04-28_11h43.41.306,SPAMnetsValid,2021.1.4,MacIntel,60.04202942,,,,,,,,,,,,,,,,,,,,,,,,,,,,,,,,,,,,,,,,,,,,,,,,,,,,,,,,,,,,,,,,,,,,,,,,,,,,,,,,,,,,,,,,,
,,2,1.0263,2,1.0263,0,91,91,95,1,121,broom,microwave,,90026,001,2022-04-28_11h43.41.306,SPAMnetsValid,2021.1.4,MacIntel,60.04202942,,,,,,,,,,,,,,,,,,,,,,,,,,,,,,,,,,,,,,,,,,,,,,,,,,,,,,,,,,,,,,,,,,,,,,,,,,,,,,,,,,,,,,,,,
,,2,1.3014,2,1.3014,0,92,92,68,1,180,tree,yogurt,,90026,001,2022-04-28_11h43.41.306,SPAMnetsValid,2021.1.4,MacIntel,60.04202942,,,,,,,,,,,,,,,,,,,,,,,,,,,,,,,,,,,,,,,,,,,,,,,,,,,,,,,,,,,,,,,,,,,,,,,,,,,,,,,,,,,,,,,,,
,,1,1.1142,1,1.1142,0,93,93,21,1,159,cookie,flower,,90026,001,2022-04-28_11h43.41.306,SPAMnetsValid,2021.1.4,MacIntel,60.04202942,,,,,,,,,,,,,,,,,,,,,,,,,,,,,,,,,,,,,,,,,,,,,,,,,,,,,,,,,,,,,,,,,,,,,,,,,,,,,,,,,,,,,,,,,
,,7,1.369,7,1.369,0,94,94,52,1,110,chocolate,cookie,,90026,001,2022-04-28_11h43.41.306,SPAMnetsValid,2021.1.4,MacIntel,60.04202942,,,,,,,,,,,,,,,,,,,,,,,,,,,,,,,,,,,,,,,,,,,,,,,,,,,,,,,,,,,,,,,,,,,,,,,,,,,,,,,,,,,,,,,,,
,,7,1.0025,7,1.0025,0,95,95,0,1,106,cake,strawberry,,90026,001,2022-04-28_11h43.41.306,SPAMnetsValid,2021.1.4,MacIntel,60.04202942,,,,,,,,,,,,,,,,,,,,,,,,,,,,,,,,,,,,,,,,,,,,,,,,,,,,,,,,,,,,,,,,,,,,,,,,,,,,,,,,,,,,,,,,,
,,3,1.0568,3,1.0568,0,96,96,42,1,184,oven,pretzel,,90026,001,2022-04-28_11h43.41.306,SPAMnetsValid,2021.1.4,MacIntel,60.04202942,,,,,,,,,,,,,,,,,,,,,,,,,,,,,,,,,,,,,,,,,,,,,,,,,,,,,,,,,,,,,,,,,,,,,,,,,,,,,,,,,,,,,,,,,
,,,,,,,,,,,,,,,90026,001,2022-04-28_11h43.41.306,SPAMnetsValid,2021.1.4,MacIntel,60.04202942,0,0,0,0,1,,,,,,,,,,,,,,,,,,,,,,,,,,,,,,,,,,,,,,,,,,,,,,,,,,,,,,,,,,,,,,,,,,,,,,,,,,,,,,,,,,,,
,,,,,,,,,,,,,,,90026,001,2022-04-28_11h43.41.306,SPAMnetsValid,2021.1.4,MacIntel,60.04202942,,,,,,0,0,0,1,1,0,1,,,,,,,,,,,,,,,,,,,,,,,,,,,,,,,,,,,,,,,,,,,,,,,,,,,,,,,,,,,,,,,,,,,,,,,,,,,,,
,,,,2,2.8779,,,,,,46,garden,yogurt,,90026,001,2022-04-28_11h43.41.306,SPAMnetsValid,2021.1.4,MacIntel,60.04202942,,,,,,,,,,,,,2,2.8779,0,0,0,65,1,,,,,,,,,,,,,,,,,,,,,,,,,,,,,,,,,,,,,,,,,,,,,,,,,,,,,,,,,,,,,,,,,,,,,,
,,,,2,0.9013,,,,,,76,garden,rose,,90026,001,2022-04-28_11h43.41.306,SPAMnetsValid,2021.1.4,MacIntel,60.04202942,,,,,,,,,,,,,2,0.9013,0,1,1,19,1,,,,,,,,,,,,,,,,,,,,,,,,,,,,,,,,,,,,,,,,,,,,,,,,,,,,,,,,,,,,,,,,,,,,,,
,,,,2,1.0951,,,,,,19,microwave,pretzel,,90026,001,2022-04-28_11h43.41.306,SPAMnetsValid,2021.1.4,MacIntel,60.04202942,,,,,,,,,,,,,2,1.0951,0,2,2,41,1,,,,,,,,,,,,,,,,,,,,,,,,,,,,,,,,,,,,,,,,,,,,,,,,,,,,,,,,,,,,,,,,,,,,,,
,,,,8,1.5431,,,,,,93,kitchen,oven,,90026,001,2022-04-28_11h43.41.306,SPAMnetsValid,2021.1.4,MacIntel,60.04202942,,,,,,,,,,,,,8,1.5431,0,3,3,82,1,,,,,,,,,,,,,,,,,,,,,,,,,,,,,,,,,,,,,,,,,,,,,,,,,,,,,,,,,,,,,,,,,,,,,,
,,,,7,0.9679,,,,,,54,chocolate,yogurt,,90026,001,2022-04-28_11h43.41.306,SPAMnetsValid,2021.1.4,MacIntel,60.04202942,,,,,,,,,,,,,7,0.9679,0,4,4,67,1,,,,,,,,,,,,,,,,,,,,,,,,,,,,,,,,,,,,,,,,,,,,,,,,,,,,,,,,,,,,,,,,,,,,,,
,,,,7,1.1147,,,,,,22,kitchen,strawberry,,90026,001,2022-04-28_11h43.41.306,SPAMnetsValid,2021.1.4,MacIntel,60.04202942,,,,,,,,,,,,,7,1.1147,0,5,5,2,1,,,,,,,,,,,,,,,,,,,,,,,,,,,,,,,,,,,,,,,,,,,,,,,,,,,,,,,,,,,,,,,,,,,,,,
,,,,7,1.2599,,,,,,9,kitchen,refrigerator,,90026,001,2022-04-28_11h43.41.306,SPAMnetsValid,2021.1.4,MacIntel,60.04202942,,,,,,,,,,,,,7,1.2599,0,6,6,64,1,,,,,,,,,,,,,,,,,,,,,,,,,,,,,,,,,,,,,,,,,,,,,,,,,,,,,,,,,,,,,,,,,,,,,,
,,,,8,1.7938,,,,,,63,cake,cookie,,90026,001,2022-04-28_11h43.41.306,SPAMnetsValid,2021.1.4,MacIntel,60.04202942,,,,,,,,,,,,,8,1.7938,0,7,7,93,1,,,,,,,,,,,,,,,,,,,,,,,,,,,,,,,,,,,,,,,,,,,,,,,,,,,,,,,,,,,,,,,,,,,,,,
,,,,3,1.432,,,,,,15,onion,oven,,90026,001,2022-04-28_11h43.41.306,SPAMnetsValid,2021.1.4,MacIntel,60.04202942,,,,,,,,,,,,,3,1.432,0,8,8,39,1,,,,,,,,,,,,,,,,,,,,,,,,,,,,,,,,,,,,,,,,,,,,,,,,,,,,,,,,,,,,,,,,,,,,,,
,,,,4,1.8685,,,,,,47,onion,tomato,,90026,001,2022-04-28_11h43.41.306,SPAMnetsValid,2021.1.4,MacIntel,60.04202942,,,,,,,,,,,,,4,1.8685,0,9,9,51,1,,,,,,,,,,,,,,,,,,,,,,,,,,,,,,,,,,,,,,,,,,,,,,,,,,,,,,,,,,,,,,,,,,,,,,
,,,,2,1.0132,,,,,,80,chocolate,tree,,90026,001,2022-04-28_11h43.41.306,SPAMnetsValid,2021.1.4,MacIntel,60.04202942,,,,,,,,,,,,,2,1.0132,0,10,10,89,1,,,,,,,,,,,,,,,,,,,,,,,,,,,,,,,,,,,,,,,,,,,,,,,,,,,,,,,,,,,,,,,,,,,,,,
,,,,9,1.3579,,,,,,192,microwave,microwave,CHECK,90026,001,2022-04-28_11h43.41.306,SPAMnetsValid,2021.1.4,MacIntel,60.04202942,,,,,,,,,,,,,9,1.3579,0,11,11,53,1,,,,,,,,,,,,,,,,,,,,,,,,,,,,,,,,,,,,,,,,,,,,,,,,,,,,,,,,,,,,,,,,,,,,,,
,,,,3,1.0822,,,,,,78,cookie,rose,,90026,001,2022-04-28_11h43.41.306,SPAMnetsValid,2021.1.4,MacIntel,60.04202942,,,,,,,,,,,,,3,1.0822,0,12,12,56,1,,,,,,,,,,,,,,,,,,,,,,,,,,,,,,,,,,,,,,,,,,,,,,,,,,,,,,,,,,,,,,,,,,,,,,
,,,,3,0.9291,,,,,,10,flower,onion,,90026,001,2022-04-28_11h43.41.306,SPAMnetsValid,2021.1.4,MacIntel,60.04202942,,,,,,,,,,,,,3,0.9291,0,13,13,45,1,,,,,,,,,,,,,,,,,,,,,,,,,,,,,,,,,,,,,,,,,,,,,,,,,,,,,,,,,,,,,,,,,,,,,,
,,,,1,1.8039,,,,,,88,cactus,melon,,90026,001,2022-04-28_11h43.41.306,SPAMnetsValid,2021.1.4,MacIntel,60.04202942,,,,,,,,,,,,,1,1.8039,0,14,14,38,1,,,,,,,,,,,,,,,,,,,,,,,,,,,,,,,,,,,,,,,,,,,,,,,,,,,,,,,,,,,,,,,,,,,,,,
,,,,6,1.2073,,,,,,4,chocolate,pretzel,,90026,001,2022-04-28_11h43.41.306,SPAMnetsValid,2021.1.4,MacIntel,60.04202942,,,,,,,,,,,,,6,1.2073,0,15,15,52,1,,,,,,,,,,,,,,,,,,,,,,,,,,,,,,,,,,,,,,,,,,,,,,,,,,,,,,,,,,,,,,,,,,,,,,
,,,,2,1.434,,,,,,1,rose,yogurt,,90026,001,2022-04-28_11h43.41.306,SPAMnetsValid,2021.1.4,MacIntel,60.04202942,,,,,,,,,,,,,2,1.434,0,16,16,55,1,,,,,,,,,,,,,,,,,,,,,,,,,,,,,,,,,,,,,,,,,,,,,,,,,,,,,,,,,,,,,,,,,,,,,,
,,,,2,1.2897,,,,,,86,oven,rose,,90026,001,2022-04-28_11h43.41.306,SPAMnetsValid,2021.1.4,MacIntel,60.04202942,,,,,,,,,,,,,2,1.2897,0,17,17,79,1,,,,,,,,,,,,,,,,,,,,,,,,,,,,,,,,,,,,,,,,,,,,,,,,,,,,,,,,,,,,,,,,,,,,,,
,,,,2,0.9288,,,,,,41,broom,cactus,,90026,001,2022-04-28_11h43.41.306,SPAMnetsValid,2021.1.4,MacIntel,60.04202942,,,,,,,,,,,,,2,0.9288,0,18,18,46,1,,,,,,,,,,,,,,,,,,,,,,,,,,,,,,,,,,,,,,,,,,,,,,,,,,,,,,,,,,,,,,,,,,,,,,
,,,,2,1.6654,,,,,,26,tomato,yogurt,,90026,001,2022-04-28_11h43.41.306,SPAMnetsValid,2021.1.4,MacIntel,60.04202942,,,,,,,,,,,,,2,1.6654,0,19,19,13,1,,,,,,,,,,,,,,,,,,,,,,,,,,,,,,,,,,,,,,,,,,,,,,,,,,,,,,,,,,,,,,,,,,,,,,
,,,,2,1.0942,,,,,,31,cactus,pretzel,,90026,001,2022-04-28_11h43.41.306,SPAMnetsValid,2021.1.4,MacIntel,60.04202942,,,,,,,,,,,,,2,1.0942,0,20,20,1,1,,,,,,,,,,,,,,,,,,,,,,,,,,,,,,,,,,,,,,,,,,,,,,,,,,,,,,,,,,,,,,,,,,,,,,
,,,,2,1.1309,,,,,,68,flower,tomato,,90026,001,2022-04-28_11h43.41.306,SPAMnetsValid,2021.1.4,MacIntel,60.04202942,,,,,,,,,,,,,2,1.1309,0,21,21,94,1,,,,,,,,,,,,,,,,,,,,,,,,,,,,,,,,,,,,,,,,,,,,,,,,,,,,,,,,,,,,,,,,,,,,,,
,,,,2,1.0838,,,,,,67,flower,yogurt,,90026,001,2022-04-28_11h43.41.306,SPAMnetsValid,2021.1.4,MacIntel,60.04202942,,,,,,,,,,,,,2,1.0838,0,22,22,12,1,,,,,,,,,,,,,,,,,,,,,,,,,,,,,,,,,,,,,,,,,,,,,,,,,,,,,,,,,,,,,,,,,,,,,,
,,,,2,1.1251,,,,,,45,onion,pretzel,,90026,001,2022-04-28_11h43.41.306,SPAMnetsValid,2021.1.4,MacIntel,60.04202942,,,,,,,,,,,,,2,1.1251,0,23,23,69,1,,,,,,,,,,,,,,,,,,,,,,,,,,,,,,,,,,,,,,,,,,,,,,,,,,,,,,,,,,,,,,,,,,,,,,
,,,,2,1.1218,,,,,,85,cake,tree,,90026,001,2022-04-28_11h43.41.306,SPAMnetsValid,2021.1.4,MacIntel,60.04202942,,,,,,,,,,,,,2,1.1218,0,24,24,18,1,,,,,,,,,,,,,,,,,,,,,,,,,,,,,,,,,,,,,,,,,,,,,,,,,,,,,,,,,,,,,,,,,,,,,,
,,,,6,1.6164,,,,,,18,onion,refrigerator,,90026,001,2022-04-28_11h43.41.306,SPAMnetsValid,2021.1.4,MacIntel,60.04202942,,,,,,,,,,,,,6,1.6164,0,25,25,62,1,,,,,,,,,,,,,,,,,,,,,,,,,,,,,,,,,,,,,,,,,,,,,,,,,,,,,,,,,,,,,,,,,,,,,,
,,,,6,55.5804,,,,,,28,cake,melon,,90026,001,2022-04-28_11h43.41.306,SPAMnetsValid,2021.1.4,MacIntel,60.04202942,,,,,,,,,,,,,6,55.5804,0,26,26,54,1,,,,,,,,,,,,,,,,,,,,,,,,,,,,,,,,,,,,,,,,,,,,,,,,,,,,,,,,,,,,,,,,,,,,,,
,,,,6,0.7737,,,,,,44,cookie,melon,,90026,001,2022-04-28_11h43.41.306,SPAMnetsValid,2021.1.4,MacIntel,60.04202942,,,,,,,,,,,,,6,0.7737,0,27,27,92,1,,,,,,,,,,,,,,,,,,,,,,,,,,,,,,,,,,,,,,,,,,,,,,,,,,,,,,,,,,,,,,,,,,,,,,
,,,,2,26.5267,,,,,,83,broom,carrot,,90026,001,2022-04-28_11h43.41.306,SPAMnetsValid,2021.1.4,MacIntel,60.04202942,,,,,,,,,,,,,2,26.5267,0,28,28,4,1,,,,,,,,,,,,,,,,,,,,,,,,,,,,,,,,,,,,,,,,,,,,,,,,,,,,,,,,,,,,,,,,,,,,,,
,,,,2,16.1141,,,,,,16,chocolate,flower,,90026,001,2022-04-28_11h43.41.306,SPAMnetsValid,2021.1.4,MacIntel,60.04202942,,,,,,,,,,,,,2,16.1141,0,29,29,22,1,,,,,,,,,,,,,,,,,,,,,,,,,,,,,,,,,,,,,,,,,,,,,,,,,,,,,,,,,,,,,,,,,,,,,,
,,,,2,0.7875,,,,,,8,broom,melon,,90026,001,2022-04-28_11h43.41.306,SPAMnetsValid,2021.1.4,MacIntel,60.04202942,,,,,,,,,,,,,2,0.7875,0,30,30,59,1,,,,,,,,,,,,,,,,,,,,,,,,,,,,,,,,,,,,,,,,,,,,,,,,,,,,,,,,,,,,,,,,,,,,,,
,,,,2,0.8403,,,,,,43,chocolate,tomato,,90026,001,2022-04-28_11h43.41.306,SPAMnetsValid,2021.1.4,MacIntel,60.04202942,,,,,,,,,,,,,2,0.8403,0,31,31,8,1,,,,,,,,,,,,,,,,,,,,,,,,,,,,,,,,,,,,,,,,,,,,,,,,,,,,,,,,,,,,,,,,,,,,,,
,,,,2,1.0134,,,,,,13,broom,yogurt,,90026,001,2022-04-28_11h43.41.306,SPAMnetsValid,2021.1.4,MacIntel,60.04202942,,,,,,,,,,,,,2,1.0134,0,32,32,5,1,,,,,,,,,,,,,,,,,,,,,,,,,,,,,,,,,,,,,,,,,,,,,,,,,,,,,,,,,,,,,,,,,,,,,,
,,,,7,1.7363,,,,,,30,cookie,pretzel,,90026,001,2022-04-28_11h43.41.306,SPAMnetsValid,2021.1.4,MacIntel,60.04202942,,,,,,,,,,,,,7,1.7363,0,33,33,78,1,,,,,,,,,,,,,,,,,,,,,,,,,,,,,,,,,,,,,,,,,,,,,,,,,,,,,,,,,,,,,,,,,,,,,,
,,,,2,1.0261,,,,,,62,kitchen,rose,,90026,001,2022-04-28_11h43.41.306,SPAMnetsValid,2021.1.4,MacIntel,60.04202942,,,,,,,,,,,,,2,1.0261,0,34,34,57,1,,,,,,,,,,,,,,,,,,,,,,,,,,,,,,,,,,,,,,,,,,,,,,,,,,,,,,,,,,,,,,,,,,,,,,
,,,,2,1.0229,,,,,,55,tomato,tree,,90026,001,2022-04-28_11h43.41.306,SPAMnetsValid,2021.1.4,MacIntel,60.04202942,,,,,,,,,,,,,2,1.0229,0,35,35,35,1,,,,,,,,,,,,,,,,,,,,,,,,,,,,,,,,,,,,,,,,,,,,,,,,,,,,,,,,,,,,,,,,,,,,,,
,,,,7,1.0842,,,,,,29,chocolate,melon,,90026,001,2022-04-28_11h43.41.306,SPAMnetsValid,2021.1.4,MacIntel,60.04202942,,,,,,,,,,,,,7,1.0842,0,36,36,34,1,,,,,,,,,,,,,,,,,,,,,,,,,,,,,,,,,,,,,,,,,,,,,,,,,,,,,,,,,,,,,,,,,,,,,,
,,,,7,1.0576,,,,,,39,melon,pretzel,,90026,001,2022-04-28_11h43.41.306,SPAMnetsValid,2021.1.4,MacIntel,60.04202942,,,,,,,,,,,,,7,1.0576,0,37,37,20,1,,,,,,,,,,,,,,,,,,,,,,,,,,,,,,,,,,,,,,,,,,,,,,,,,,,,,,,,,,,,,,,,,,,,,,
,,,,2,1.0059,,,,,,74,broom,pretzel,,90026,001,2022-04-28_11h43.41.306,SPAMnetsValid,2021.1.4,MacIntel,60.04202942,,,,,,,,,,,,,2,1.0059,0,38,38,40,1,,,,,,,,,,,,,,,,,,,,,,,,,,,,,,,,,,,,,,,,,,,,,,,,,,,,,,,,,,,,,,,,,,,,,,
,,,,2,1.0468,,,,,,57,flower,kitchen,,90026,001,2022-04-28_11h43.41.306,SPAMnetsValid,2021.1.4,MacIntel,60.04202942,,,,,,,,,,,,,2,1.0468,0,39,39,49,1,,,,,,,,,,,,,,,,,,,,,,,,,,,,,,,,,,,,,,,,,,,,,,,,,,,,,,,,,,,,,,,,,,,,,,
,,,,2,1.0318,,,,,,20,rose,tree,,90026,001,2022-04-28_11h43.41.306,SPAMnetsValid,2021.1.4,MacIntel,60.04202942,,,,,,,,,,,,,2,1.0318,0,40,40,66,1,,,,,,,,,,,,,,,,,,,,,,,,,,,,,,,,,,,,,,,,,,,,,,,,,,,,,,,,,,,,,,,,,,,,,,
,,,,3,1.7686,,,,,,24,cookie,tomato,,90026,001,2022-04-28_11h43.41.306,SPAMnetsValid,2021.1.4,MacIntel,60.04202942,,,,,,,,,,,,,3,1.7686,0,41,41,68,1,,,,,,,,,,,,,,,,,,,,,,,,,,,,,,,,,,,,,,,,,,,,,,,,,,,,,,,,,,,,,,,,,,,,,,
,,,,6,1.669,,,,,,25,carrot,onion,,90026,001,2022-04-28_11h43.41.306,SPAMnetsValid,2021.1.4,MacIntel,60.04202942,,,,,,,,,,,,,6,1.669,0,42,42,44,1,,,,,,,,,,,,,,,,,,,,,,,,,,,,,,,,,,,,,,,,,,,,,,,,,,,,,,,,,,,,,,,,,,,,,,
,,,,6,0.7427,,,,,,52,carrot,tomato,,90026,001,2022-04-28_11h43.41.306,SPAMnetsValid,2021.1.4,MacIntel,60.04202942,,,,,,,,,,,,,6,0.7427,0,43,43,95,1,,,,,,,,,,,,,,,,,,,,,,,,,,,,,,,,,,,,,,,,,,,,,,,,,,,,,,,,,,,,,,,,,,,,,,
,,,,6,1.4956,,,,,,6,garden,onion,,90026,001,2022-04-28_11h43.41.306,SPAMnetsValid,2021.1.4,MacIntel,60.04202942,,,,,,,,,,,,,6,1.4956,0,44,44,83,1,,,,,,,,,,,,,,,,,,,,,,,,,,,,,,,,,,,,,,,,,,,,,,,,,,,,,,,,,,,,,,,,,,,,,,
,,,,3,1.6811,,,,,,71,broom,rose,,90026,001,2022-04-28_11h43.41.306,SPAMnetsValid,2021.1.4,MacIntel,60.04202942,,,,,,,,,,,,,3,1.6811,0,45,45,61,1,,,,,,,,,,,,,,,,,,,,,,,,,,,,,,,,,,,,,,,,,,,,,,,,,,,,,,,,,,,,,,,,,,,,,,
,,,,3,0.852,,,,,,72,broom,onion,,90026,001,2022-04-28_11h43.41.306,SPAMnetsValid,2021.1.4,MacIntel,60.04202942,,,,,,,,,,,,,3,0.852,0,46,46,27,1,,,,,,,,,,,,,,,,,,,,,,,,,,,,,,,,,,,,,,,,,,,,,,,,,,,,,,,,,,,,,,,,,,,,,,
,,,,3,1.8286,,,,,,21,cake,onion,,90026,001,2022-04-28_11h43.41.306,SPAMnetsValid,2021.1.4,MacIntel,60.04202942,,,,,,,,,,,,,3,1.8286,0,47,47,63,1,,,,,,,,,,,,,,,,,,,,,,,,,,,,,,,,,,,,,,,,,,,,,,,,,,,,,,,,,,,,,,,,,,,,,,
,,,,3,1.4919,,,,,,35,flower,pretzel,,90026,001,2022-04-28_11h43.41.306,SPAMnetsValid,2021.1.4,MacIntel,60.04202942,,,,,,,,,,,,,3,1.4919,0,48,48,26,1,,,,,,,,,,,,,,,,,,,,,,,,,,,,,,,,,,,,,,,,,,,,,,,,,,,,,,,,,,,,,,,,,,,,,,
,,,,3,1.4262,,,,,,48,flower,oven,,90026,001,2022-04-28_11h43.41.306,SPAMnetsValid,2021.1.4,MacIntel,60.04202942,,,,,,,,,,,,,3,1.4262,0,49,49,15,1,,,,,,,,,,,,,,,,,,,,,,,,,,,,,,,,,,,,,,,,,,,,,,,,,,,,,,,,,,,,,,,,,,,,,,
,,,,3,21.9462,,,,,,32,cake,microwave,,90026,001,2022-04-28_11h43.41.306,SPAMnetsValid,2021.1.4,MacIntel,60.04202942,,,,,,,,,,,,,3,21.9462,0,50,50,33,1,,,,,,,,,,,,,,,,,,,,,,,,,,,,,,,,,,,,,,,,,,,,,,,,,,,,,,,,,,,,,,,,,,,,,,
,,,,7,0.9938,,,,,,17,carrot,melon,,90026,001,2022-04-28_11h43.41.306,SPAMnetsValid,2021.1.4,MacIntel,60.04202942,,,,,,,,,,,,,7,0.9938,0,51,51,24,1,,,,,,,,,,,,,,,,,,,,,,,,,,,,,,,,,,,,,,,,,,,,,,,,,,,,,,,,,,,,,,,,,,,,,,
,,,,6,1.0292,,,,,,38,pretzel,refrigerator,,90026,001,2022-04-28_11h43.41.306,SPAMnetsValid,2021.1.4,MacIntel,60.04202942,,,,,,,,,,,,,6,1.0292,0,52,52,71,1,,,,,,,,,,,,,,,,,,,,,,,,,,,,,,,,,,,,,,,,,,,,,,,,,,,,,,,,,,,,,,,,,,,,,,
,,,,3,1.1696,,,,,,59,rose,strawberry,,90026,001,2022-04-28_11h43.41.306,SPAMnetsValid,2021.1.4,MacIntel,60.04202942,,,,,,,,,,,,,3,1.1696,0,53,53,72,1,,,,,,,,,,,,,,,,,,,,,,,,,,,,,,,,,,,,,,,,,,,,,,,,,,,,,,,,,,,,,,,,,,,,,,
,,,,3,0.8805,,,,,,51,onion,strawberry,,90026,001,2022-04-28_11h43.41.306,SPAMnetsValid,2021.1.4,MacIntel,60.04202942,,,,,,,,,,,,,3,0.8805,0,54,54,86,1,,,,,,,,,,,,,,,,,,,,,,,,,,,,,,,,,,,,,,,,,,,,,,,,,,,,,,,,,,,,,,,,,,,,,,
,,,,3,0.8943,,,,,,14,broom,cookie,,90026,001,2022-04-28_11h43.41.306,SPAMnetsValid,2021.1.4,MacIntel,60.04202942,,,,,,,,,,,,,3,0.8943,0,55,55,16,1,,,,,,,,,,,,,,,,,,,,,,,,,,,,,,,,,,,,,,,,,,,,,,,,,,,,,,,,,,,,,,,,,,,,,,
,,,,3,0.8777,,,,,,50,carrot,rose,,90026,001,2022-04-28_11h43.41.306,SPAMnetsValid,2021.1.4,MacIntel,60.04202942,,,,,,,,,,,,,3,0.8777,0,56,56,73,1,,,,,,,,,,,,,,,,,,,,,,,,,,,,,,,,,,,,,,,,,,,,,,,,,,,,,,,,,,,,,,,,,,,,,,
,,,,3,1.0808,,,,,,90,cactus,cake,,90026,001,2022-04-28_11h43.41.306,SPAMnetsValid,2021.1.4,MacIntel,60.04202942,,,,,,,,,,,,,3,1.0808,0,57,57,85,1,,,,,,,,,,,,,,,,,,,,,,,,,,,,,,,,,,,,,,,,,,,,,,,,,,,,,,,,,,,,,,,,,,,,,,
,,,,3,0.8944,,,,,,84,oven,tomato,,90026,001,2022-04-28_11h43.41.306,SPAMnetsValid,2021.1.4,MacIntel,60.04202942,,,,,,,,,,,,,3,0.8944,0,58,58,28,1,,,,,,,,,,,,,,,,,,,,,,,,,,,,,,,,,,,,,,,,,,,,,,,,,,,,,,,,,,,,,,,,,,,,,,
,,,,7,1.4527,,,,,,3,cake,oven,,90026,001,2022-04-28_11h43.41.306,SPAMnetsValid,2021.1.4,MacIntel,60.04202942,,,,,,,,,,,,,7,1.4527,0,59,59,30,1,,,,,,,,,,,,,,,,,,,,,,,,,,,,,,,,,,,,,,,,,,,,,,,,,,,,,,,,,,,,,,,,,,,,,,
,,,,3,1.1654,,,,,,11,refrigerator,tree,,90026,001,2022-04-28_11h43.41.306,SPAMnetsValid,2021.1.4,MacIntel,60.04202942,,,,,,,,,,,,,3,1.1654,0,60,60,43,1,,,,,,,,,,,,,,,,,,,,,,,,,,,,,,,,,,,,,,,,,,,,,,,,,,,,,,,,,,,,,,,,,,,,,,
,,,,4,1.4139,,,,,,33,oven,yogurt,,90026,001,2022-04-28_11h43.41.306,SPAMnetsValid,2021.1.4,MacIntel,60.04202942,,,,,,,,,,,,,4,1.4139,0,61,61,31,1,,,,,,,,,,,,,,,,,,,,,,,,,,,,,,,,,,,,,,,,,,,,,,,,,,,,,,,,,,,,,,,,,,,,,,
,,,,4,1.1233,,,,,,5,oven,tree,,90026,001,2022-04-28_11h43.41.306,SPAMnetsValid,2021.1.4,MacIntel,60.04202942,,,,,,,,,,,,,4,1.1233,0,62,62,70,1,,,,,,,,,,,,,,,,,,,,,,,,,,,,,,,,,,,,,,,,,,,,,,,,,,,,,,,,,,,,,,,,,,,,,,
,,,,6,1.8219,,,,,,2,kitchen,onion,,90026,001,2022-04-28_11h43.41.306,SPAMnetsValid,2021.1.4,MacIntel,60.04202942,,,,,,,,,,,,,6,1.8219,0,63,63,91,1,,,,,,,,,,,,,,,,,,,,,,,,,,,,,,,,,,,,,,,,,,,,,,,,,,,,,,,,,,,,,,,,,,,,,,
,,,,6,2.9946,,,,,,61,strawberry,tomato,,90026,001,2022-04-28_11h43.41.306,SPAMnetsValid,2021.1.4,MacIntel,60.04202942,,,,,,,,,,,,,6,2.9946,0,64,64,80,1,,,,,,,,,,,,,,,,,,,,,,,,,,,,,,,,,,,,,,,,,,,,,,,,,,,,,,,,,,,,,,,,,,,,,,
,,,,3,1.1585,,,,,,64,chocolate,garden,,90026,001,2022-04-28_11h43.41.306,SPAMnetsValid,2021.1.4,MacIntel,60.04202942,,,,,,,,,,,,,3,1.1585,0,65,65,14,1,,,,,,,,,,,,,,,,,,,,,,,,,,,,,,,,,,,,,,,,,,,,,,,,,,,,,,,,,,,,,,,,,,,,,,
,,,,3,0.8227,,,,,,70,chocolate,onion,,90026,001,2022-04-28_11h43.41.306,SPAMnetsValid,2021.1.4,MacIntel,60.04202942,,,,,,,,,,,,,3,0.8227,0,66,66,74,1,,,,,,,,,,,,,,,,,,,,,,,,,,,,,,,,,,,,,,,,,,,,,,,,,,,,,,,,,,,,,,,,,,,,,,
,,,,3,1.0125,,,,,,53,garden,pretzel,,90026,001,2022-04-28_11h43.41.306,SPAMnetsValid,2021.1.4,MacIntel,60.04202942,,,,,,,,,,,,,3,1.0125,0,67,67,0,1,,,,,,,,,,,,,,,,,,,,,,,,,,,,,,,,,,,,,,,,,,,,,,,,,,,,,,,,,,,,,,,,,,,,,,
,,,,9,3.1525,,,,,,94,kitchen,microwave,,90026,001,2022-04-28_11h43.41.306,SPAMnetsValid,2021.1.4,MacIntel,60.04202942,,,,,,,,,,,,,9,3.1525,0,68,68,58,1,,,,,,,,,,,,,,,,,,,,,,,,,,,,,,,,,,,,,,,,,,,,,,,,,,,,,,,,,,,,,,,,,,,,,,
,,,,2,1.0774,,,,,,7,melon,tree,,90026,001,2022-04-28_11h43.41.306,SPAMnetsValid,2021.1.4,MacIntel,60.04202942,,,,,,,,,,,,,2,1.0774,0,69,69,77,1,,,,,,,,,,,,,,,,,,,,,,,,,,,,,,,,,,,,,,,,,,,,,,,,,,,,,,,,,,,,,,,,,,,,,,
,,,,6,1.111,,,,,,69,carrot,refrigerator,,90026,001,2022-04-28_11h43.41.306,SPAMnetsValid,2021.1.4,MacIntel,60.04202942,,,,,,,,,,,,,6,1.111,0,70,70,75,1,,,,,,,,,,,,,,,,,,,,,,,,,,,,,,,,,,,,,,,,,,,,,,,,,,,,,,,,,,,,,,,,,,,,,,
,,,,7,0.878,,,,,,66,melon,yogurt,,90026,001,2022-04-28_11h43.41.306,SPAMnetsValid,2021.1.4,MacIntel,60.04202942,,,,,,,,,,,,,7,0.878,0,71,71,48,1,,,,,,,,,,,,,,,,,,,,,,,,,,,,,,,,,,,,,,,,,,,,,,,,,,,,,,,,,,,,,,,,,,,,,,
,,,,7,0.6116,,,,,,12,cookie,yogurt,,90026,001,2022-04-28_11h43.41.306,SPAMnetsValid,2021.1.4,MacIntel,60.04202942,,,,,,,,,,,,,7,0.6116,0,72,72,36,1,,,,,,,,,,,,,,,,,,,,,,,,,,,,,,,,,,,,,,,,,,,,,,,,,,,,,,,,,,,,,,,,,,,,,,
,,,,1,0.873,,,,,,92,broom,flower,,90026,001,2022-04-28_11h43.41.306,SPAMnetsValid,2021.1.4,MacIntel,60.04202942,,,,,,,,,,,,,1,0.873,0,73,73,88,1,,,,,,,,,,,,,,,,,,,,,,,,,,,,,,,,,,,,,,,,,,,,,,,,,,,,,,,,,,,,,,,,,,,,,,
,,,,8,1.6249,,,,,,36,broom,kitchen,,90026,001,2022-04-28_11h43.41.306,SPAMnetsValid,2021.1.4,MacIntel,60.04202942,,,,,,,,,,,,,8,1.6249,0,74,74,76,1,,,,,,,,,,,,,,,,,,,,,,,,,,,,,,,,,,,,,,,,,,,,,,,,,,,,,,,,,,,,,,,,,,,,,,
,,,,3,1.0299,,,,,,60,cactus,onion,,90026,001,2022-04-28_11h43.41.306,SPAMnetsValid,2021.1.4,MacIntel,60.04202942,,,,,,,,,,,,,3,1.0299,0,75,75,81,1,,,,,,,,,,,,,,,,,,,,,,,,,,,,,,,,,,,,,,,,,,,,,,,,,,,,,,,,,,,,,,,,,,,,,,
,,,,3,1.0351,,,,,,40,broom,cake,,90026,001,2022-04-28_11h43.41.306,SPAMnetsValid,2021.1.4,MacIntel,60.04202942,,,,,,,,,,,,,3,1.0351,0,76,76,32,1,,,,,,,,,,,,,,,,,,,,,,,,,,,,,,,,,,,,,,,,,,,,,,,,,,,,,,,,,,,,,,,,,,,,,,
,,,,3,2.4787,,,,,,37,garden,refrigerator,,90026,001,2022-04-28_11h43.41.306,SPAMnetsValid,2021.1.4,MacIntel,60.04202942,,,,,,,,,,,,,3,2.4787,0,77,77,11,1,,,,,,,,,,,,,,,,,,,,,,,,,,,,,,,,,,,,,,,,,,,,,,,,,,,,,,,,,,,,,,,,,,,,,,
,,,,9,1.3432,,,,,,191,cake,cake,CHECK,90026,001,2022-04-28_11h43.41.306,SPAMnetsValid,2021.1.4,MacIntel,60.04202942,,,,,,,,,,,,,9,1.3432,0,78,78,10,1,,,,,,,,,,,,,,,,,,,,,,,,,,,,,,,,,,,,,,,,,,,,,,,,,,,,,,,,,,,,,,,,,,,,,,
,,,,3,0.9907,,,,,,81,pretzel,yogurt,,90026,001,2022-04-28_11h43.41.306,SPAMnetsValid,2021.1.4,MacIntel,60.04202942,,,,,,,,,,,,,3,0.9907,0,79,79,50,1,,,,,,,,,,,,,,,,,,,,,,,,,,,,,,,,,,,,,,,,,,,,,,,,,,,,,,,,,,,,,,,,,,,,,,
,,,,9,1.9664,,,,,,77,refrigerator,yogurt,,90026,001,2022-04-28_11h43.41.306,SPAMnetsValid,2021.1.4,MacIntel,60.04202942,,,,,,,,,,,,,9,1.9664,0,80,80,42,1,,,,,,,,,,,,,,,,,,,,,,,,,,,,,,,,,,,,,,,,,,,,,,,,,,,,,,,,,,,,,,,,,,,,,,
,,,,2,1.5826,,,,,,91,microwave,rose,,90026,001,2022-04-28_11h43.41.306,SPAMnetsValid,2021.1.4,MacIntel,60.04202942,,,,,,,,,,,,,2,1.5826,0,81,81,84,1,,,,,,,,,,,,,,,,,,,,,,,,,,,,,,,,,,,,,,,,,,,,,,,,,,,,,,,,,,,,,,,,,,,,,,
,,,,3,1.4019,,,,,,34,melon,oven,,90026,001,2022-04-28_11h43.41.306,SPAMnetsValid,2021.1.4,MacIntel,60.04202942,,,,,,,,,,,,,3,1.4019,0,82,82,7,1,,,,,,,,,,,,,,,,,,,,,,,,,,,,,,,,,,,,,,,,,,,,,,,,,,,,,,,,,,,,,,,,,,,,,,
,,,,3,1.1927,,,,,,75,cookie,onion,,90026,001,2022-04-28_11h43.41.306,SPAMnetsValid,2021.1.4,MacIntel,60.04202942,,,,,,,,,,,,,3,1.1927,0,83,83,9,1,,,,,,,,,,,,,,,,,,,,,,,,,,,,,,,,,,,,,,,,,,,,,,,,,,,,,,,,,,,,,,,,,,,,,,
,,,,7,2.4054,,,,,,82,cake,kitchen,,90026,001,2022-04-28_11h43.41.306,SPAMnetsValid,2021.1.4,MacIntel,60.04202942,,,,,,,,,,,,,7,2.4054,0,84,84,96,1,,,,,,,,,,,,,,,,,,,,,,,,,,,,,,,,,,,,,,,,,,,,,,,,,,,,,,,,,,,,,,,,,,,,,,
,,,,3,1.1394,,,,,,79,garden,strawberry,,90026,001,2022-04-28_11h43.41.306,SPAMnetsValid,2021.1.4,MacIntel,60.04202942,,,,,,,,,,,,,3,1.1394,0,85,85,87,1,,,,,,,,,,,,,,,,,,,,,,,,,,,,,,,,,,,,,,,,,,,,,,,,,,,,,,,,,,,,,,,,,,,,,,
,,,,3,1.4229,,,,,,42,garden,kitchen,,90026,001,2022-04-28_11h43.41.306,SPAMnetsValid,2021.1.4,MacIntel,60.04202942,,,,,,,,,,,,,3,1.4229,0,86,86,29,1,,,,,,,,,,,,,,,,,,,,,,,,,,,,,,,,,,,,,,,,,,,,,,,,,,,,,,,,,,,,,,,,,,,,,,
,,,,7,2.1173,,,,,,87,carrot,yogurt,,90026,001,2022-04-28_11h43.41.306,SPAMnetsValid,2021.1.4,MacIntel,60.04202942,,,,,,,,,,,,,7,2.1173,0,87,87,6,1,,,,,,,,,,,,,,,,,,,,,,,,,,,,,,,,,,,,,,,,,,,,,,,,,,,,,,,,,,,,,,,,,,,,,,
,,,,3,1.5119,,,,,,65,broom,garden,,90026,001,2022-04-28_11h43.41.306,SPAMnetsValid,2021.1.4,MacIntel,60.04202942,,,,,,,,,,,,,3,1.5119,0,88,88,23,1,,,,,,,,,,,,,,,,,,,,,,,,,,,,,,,,,,,,,,,,,,,,,,,,,,,,,,,,,,,,,,,,,,,,,,
,,,,2,1.3519,,,,,,27,cactus,cookie,,90026,001,2022-04-28_11h43.41.306,SPAMnetsValid,2021.1.4,MacIntel,60.04202942,,,,,,,,,,,,,2,1.3519,0,89,89,17,1,,,,,,,,,,,,,,,,,,,,,,,,,,,,,,,,,,,,,,,,,,,,,,,,,,,,,,,,,,,,,,,,,,,,,,
,,,,2,1.5664,,,,,,95,broom,refrigerator,,90026,001,2022-04-28_11h43.41.306,SPAMnetsValid,2021.1.4,MacIntel,60.04202942,,,,,,,,,,,,,2,1.5664,0,90,90,90,1,,,,,,,,,,,,,,,,,,,,,,,,,,,,,,,,,,,,,,,,,,,,,,,,,,,,,,,,,,,,,,,,,,,,,,
,,,,2,1.0139,,,,,,56,cactus,tree,,90026,001,2022-04-28_11h43.41.306,SPAMnetsValid,2021.1.4,MacIntel,60.04202942,,,,,,,,,,,,,2,1.0139,0,91,91,21,1,,,,,,,,,,,,,,,,,,,,,,,,,,,,,,,,,,,,,,,,,,,,,,,,,,,,,,,,,,,,,,,,,,,,,,
,,,,3,2.0695,,,,,,49,flower,strawberry,,90026,001,2022-04-28_11h43.41.306,SPAMnetsValid,2021.1.4,MacIntel,60.04202942,,,,,,,,,,,,,3,2.0695,0,92,92,3,1,,,,,,,,,,,,,,,,,,,,,,,,,,,,,,,,,,,,,,,,,,,,,,,,,,,,,,,,,,,,,,,,,,,,,,
,,,,3,1.1989,,,,,,23,flower,microwave,,90026,001,2022-04-28_11h43.41.306,SPAMnetsValid,2021.1.4,MacIntel,60.04202942,,,,,,,,,,,,,3,1.1989,0,93,93,25,1,,,,,,,,,,,,,,,,,,,,,,,,,,,,,,,,,,,,,,,,,,,,,,,,,,,,,,,,,,,,,,,,,,,,,,
,,,,3,29.9854,,,,,,58,garden,oven,,90026,001,2022-04-28_11h43.41.306,SPAMnetsValid,2021.1.4,MacIntel,60.04202942,,,,,,,,,,,,,3,29.9854,0,94,94,37,1,,,,,,,,,,,,,,,,,,,,,,,,,,,,,,,,,,,,,,,,,,,,,,,,,,,,,,,,,,,,,,,,,,,,,,
,,,,7,1.5536,,,,,,89,chocolate,rose,,90026,001,2022-04-28_11h43.41.306,SPAMnetsValid,2021.1.4,MacIntel,60.04202942,,,,,,,,,,,,,7,1.5536,0,95,95,60,1,,,,,,,,,,,,,,,,,,,,,,,,,,,,,,,,,,,,,,,,,,,,,,,,,,,,,,,,,,,,,,,,,,,,,,
,,,,3,1.0085,,,,,,73,broom,chocolate,,90026,001,2022-04-28_11h43.41.306,SPAMnetsValid,2021.1.4,MacIntel,60.04202942,,,,,,,,,,,,,3,1.0085,0,96,96,47,1,,,,,,,,,,,,,,,,,,,,,,,,,,,,,,,,,,,,,,,,,,,,,,,,,,,,,,,,,,,,,,,,,,,,,,
,,,,,,,,,,,,,,,90026,001,2022-04-28_11h43.41.306,SPAMnetsValid,2021.1.4,MacIntel,60.04202942,,,,,,,,,,,,,,,,,,,,0,0,0,0,1,,,,,,,,,,,,,,,,,,,,,,,,,,,,,,,,,,,,,,,,,,,,,,,,,,,,,,,,,,,,,,,,,
,,,,,,,,,,,,,,,90026,001,2022-04-28_11h43.41.306,SPAMnetsValid,2021.1.4,MacIntel,60.04202942,,,,,,0,1,1,0,1,1,0,,,,,,,,,,,,,,,,,,,,,,,,,,,,,,,,,,,,,,,,,,,,,,,,,,,,,,,,,,,,,,,,,,,,,,,,,,,,,
,,,,,,,,,,,,,,,90026,001,2022-04-28_11h43.41.306,SPAMnetsValid,2021.1.4,MacIntel,60.04202942,,,,,,,,,,,,,,,,,,,,,,,,,1,5.8354,0,0,0,0,1,rancor,forbearance,ridicule,malice,bravery,3,,,,,,,,,,,,,,,,,,,,,,,,,,,,,,,,,,,,,,,,,,,,,,,,,,,,
,,,,,,,,,,,,,,,90026,001,2022-04-28_11h43.41.306,SPAMnetsValid,2021.1.4,MacIntel,60.04202942,,,,,,,,,,,,,,,,,,,,,,,,,4,3.4274,0,1,1,1,1,raucous,empty,quiet,smooth,harsh,4,,,,,,,,,,,,,,,,,,,,,,,,,,,,,,,,,,,,,,,,,,,,,,,,,,,,
,,,,,,,,,,,,,,,90026,001,2022-04-28_11h43.41.306,SPAMnetsValid,2021.1.4,MacIntel,60.04202942,,,,,,,,,,,,,,,,,,,,,,,,,4,2.6635,0,2,2,2,1,gargoyle,oil,medicine,carved waterspout,ugly building,3,,,,,,,,,,,,,,,,,,,,,,,,,,,,,,,,,,,,,,,,,,,,,,,,,,,,
,,,,,,,,,,,,,,,90026,001,2022-04-28_11h43.41.306,SPAMnetsValid,2021.1.4,MacIntel,60.04202942,,,,,,,,,,,,,,,,,,,,,,,,,2,3.6412,0,3,3,3,1,recrudesce,purify,renew activity,lack refinement,crush,2,,,,,,,,,,,,,,,,,,,,,,,,,,,,,,,,,,,,,,,,,,,,,,,,,,,,
,,,,,,,,,,,,,,,90026,001,2022-04-28_11h43.41.306,SPAMnetsValid,2021.1.4,MacIntel,60.04202942,,,,,,,,,,,,,,,,,,,,,,,,,4,4.0627,0,4,4,4,1,specious,"plausible, but not genuine",noteworthy,class or variety,roomy,1,,,,,,,,,,,,,,,,,,,,,,,,,,,,,,,,,,,,,,,,,,,,,,,,,,,,
,,,,,,,,,,,,,,,90026,001,2022-04-28_11h43.41.306,SPAMnetsValid,2021.1.4,MacIntel,60.04202942,,,,,,,,,,,,,,,,,,,,,,,,,3,6.2926,0,5,5,5,1,bauble,bubble,showy plaything,idle talk,confusion,2,,,,,,,,,,,,,,,,,,,,,,,,,,,,,,,,,,,,,,,,,,,,,,,,,,,,
,,,,,,,,,,,,,,,90026,001,2022-04-28_11h43.41.306,SPAMnetsValid,2021.1.4,MacIntel,60.04202942,,,,,,,,,,,,,,,,,,,,,,,,,2,1.9249,0,6,6,6,1,prolific,scarce,producing abundantly,reckless,speaking profanely,2,,,,,,,,,,,,,,,,,,,,,,,,,,,,,,,,,,,,,,,,,,,,,,,,,,,,
,,,,,,,,,,,,,,,90026,001,2022-04-28_11h43.41.306,SPAMnetsValid,2021.1.4,MacIntel,60.04202942,,,,,,,,,,,,,,,,,,,,,,,,,2,2.5817,0,7,7,7,1,opulent,party,wealthy,happy frame of mind,semiprecious stone,2,,,,,,,,,,,,,,,,,,,,,,,,,,,,,,,,,,,,,,,,,,,,,,,,,,,,
,,,,,,,,,,,,,,,90026,001,2022-04-28_11h43.41.306,SPAMnetsValid,2021.1.4,MacIntel,60.04202942,,,,,,,,,,,,,,,,,,,,,,,,,4,5.5434,0,8,8,8,1,coercion,conspiracy,strategy,restraint,attraction,3,,,,,,,,,,,,,,,,,,,,,,,,,,,,,,,,,,,,,,,,,,,,,,,,,,,,
,,,,,,,,,,,,,,,90026,001,2022-04-28_11h43.41.306,SPAMnetsValid,2021.1.4,MacIntel,60.04202942,,,,,,,,,,,,,,,,,,,,,,,,,4,2.9067,0,9,9,9,1,hiatus,animal,calamity,dread,gap,4,,,,,,,,,,,,,,,,,,,,,,,,,,,,,,,,,,,,,,,,,,,,,,,,,,,,
,,,,,,,,,,,,,,,90026,001,2022-04-28_11h43.41.306,SPAMnetsValid,2021.1.4,MacIntel,60.04202942,,,,,,,,,,,,,,,,,,,,,,,,,1,51.8096,0,10,10,10,1,germane,microbe,contagious,relevant,different,3,,,,,,,,,,,,,,,,,,,,,,,,,,,,,,,,,,,,,,,,,,,,,,,,,,,,
,,,,,,,,,,,,,,,90026,001,2022-04-28_11h43.41.306,SPAMnetsValid,2021.1.4,MacIntel,60.04202942,,,,,,,,,,,,,,,,,,,,,,,,,3,24.3469,0,11,11,11,1,perfunctory,fundamental,formal,superficial,careful,3,,,,,,,,,,,,,,,,,,,,,,,,,,,,,,,,,,,,,,,,,,,,,,,,,,,,
,,,,,,,,,,,,,,,90026,001,2022-04-28_11h43.41.306,SPAMnetsValid,2021.1.4,MacIntel,60.04202942,,,,,,,,,,,,,,,,,,,,,,,,,4,3.3293,0,12,12,12,1,diverge,reveal,chant,distract the attention of,differ or turn off from,4,,,,,,,,,,,,,,,,,,,,,,,,,,,,,,,,,,,,,,,,,,,,,,,,,,,,
,,,,,,,,,,,,,,,90026,001,2022-04-28_11h43.41.306,SPAMnetsValid,2021.1.4,MacIntel,60.04202942,,,,,,,,,,,,,,,,,,,,,,,,,4,2.8098,0,13,13,13,1,evoke,take away,anger,connect,bring out,4,,,,,,,,,,,,,,,,,,,,,,,,,,,,,,,,,,,,,,,,,,,,,,,,,,,,
,,,,,,,,,,,,,,,90026,001,2022-04-28_11h43.41.306,SPAMnetsValid,2021.1.4,MacIntel,60.04202942,,,,,,,,,,,,,,,,,,,,,,,,,1,8.5964,0,14,14,14,1,pertinent,relevant,lying next to,necessary,bold,1,,,,,,,,,,,,,,,,,,,,,,,,,,,,,,,,,,,,,,,,,,,,,,,,,,,,
,,,,,,,,,,,,,,,90026,001,2022-04-28_11h43.41.306,SPAMnetsValid,2021.1.4,MacIntel,60.04202942,,,,,,,,,,,,,,,,,,,,,,,,,2,1.9264,0,15,15,15,1,holocaust,entirety,destruction,saintly,price,2,,,,,,,,,,,,,,,,,,,,,,,,,,,,,,,,,,,,,,,,,,,,,,,,,,,,
,,,,,,,,,,,,,,,90026,001,2022-04-28_11h43.41.306,SPAMnetsValid,2021.1.4,MacIntel,60.04202942,,,,,,,,,,,,,,,,,,,,,,,,,3,8.888,0,16,16,16,1,piquant,mellow,fish,pungent,cloth,3,,,,,,,,,,,,,,,,,,,,,,,,,,,,,,,,,,,,,,,,,,,,,,,,,,,,
,,,,,,,,,,,,,,,90026,001,2022-04-28_11h43.41.306,SPAMnetsValid,2021.1.4,MacIntel,60.04202942,,,,,,,,,,,,,,,,,,,,,,,,,3,3.5451,0,17,17,17,1,firmament,foundation,heavens,strong,glue,2,,,,,,,,,,,,,,,,,,,,,,,,,,,,,,,,,,,,,,,,,,,,,,,,,,,,
,,,,,,,,,,,,,,,90026,001,2022-04-28_11h43.41.306,SPAMnetsValid,2021.1.4,MacIntel,60.04202942,,,,,,,,,,,,,,,,,,,,,,,,,,,,,,,,,,,,,,4,4.2027,0,0,0,0,1,marketable,partisan,jocular,marriageable,salable,essential,4,,,,,,,,,,,,,,,,,,,,,,,,,,,,,,,,,,,,,,
,,,,,,,,,,,,,,,90026,001,2022-04-28_11h43.41.306,SPAMnetsValid,2021.1.4,MacIntel,60.04202942,,,,,,,,,,,,,,,,,,,,,,,,,,,,,,,,,,,,,,5,7.4804,0,1,1,1,1,cottontail,squirrel,poplar,boa,marshy plant,rabbit,5,,,,,,,,,,,,,,,,,,,,,,,,,,,,,,,,,,,,,,
,,,,,,,,,,,,,,,90026,001,2022-04-28_11h43.41.306,SPAMnetsValid,2021.1.4,MacIntel,60.04202942,,,,,,,,,,,,,,,,,,,,,,,,,,,,,,,,,,,,,,3,7.2775,0,2,2,2,1,boggy,afraid,false,marshy,dense,black,3,,,,,,,,,,,,,,,,,,,,,,,,,,,,,,,,,,,,,,
,,,,,,,,,,,,,,,90026,001,2022-04-28_11h43.41.306,SPAMnetsValid,2021.1.4,MacIntel,60.04202942,,,,,,,,,,,,,,,,,,,,,,,,,,,,,,,,,,,,,,5,5.4943,0,3,3,3,1,gruesomeness,blackness,falseness,vindictiveness,drunkenness,ghastliness,5,,,,,,,,,,,,,,,,,,,,,,,,,,,,,,,,,,,,,,
,,,,,,,,,,,,,,,90026,001,2022-04-28_11h43.41.306,SPAMnetsValid,2021.1.4,MacIntel,60.04202942,,,,,,,,,,,,,,,,,,,,,,,,,,,,,,,,,,,,,,3,2.4401,0,4,4,4,1,loathing,diffidence,laziness,abhorrence,cleverness,comfort,3,,,,,,,,,,,,,,,,,,,,,,,,,,,,,,,,,,,,,,
,,,,,,,,,,,,,,,90026,001,2022-04-28_11h43.41.306,SPAMnetsValid,2021.1.4,MacIntel,60.04202942,,,,,,,,,,,,,,,,,,,,,,,,,,,,,,,,,,,,,,1,10.061,0,5,5,5,1,bantam,fowl,ridicule,cripple,vegetable,ensign,1,,,,,,,,,,,,,,,,,,,,,,,,,,,,,,,,,,,,,,
,,,,,,,,,,,,,,,90026,001,2022-04-28_11h43.41.306,SPAMnetsValid,2021.1.4,MacIntel,60.04202942,,,,,,,,,,,,,,,,,,,,,,,,,,,,,,,,,,,,,,5,2.2578,0,6,6,6,1,evoke,wake up,surrender,reconnoiter,transcend,call forth,5,,,,,,,,,,,,,,,,,,,,,,,,,,,,,,,,,,,,,,
,,,,,,,,,,,,,,,90026,001,2022-04-28_11h43.41.306,SPAMnetsValid,2021.1.4,MacIntel,60.04202942,,,,,,,,,,,,,,,,,,,,,,,,,,,,,,,,,,,,,,5,3.9403,0,7,7,7,1,unobtrusive,unintelligent,epileptic,illogical,lineal,modest,5,,,,,,,,,,,,,,,,,,,,,,,,,,,,,,,,,,,,,,
,,,,,,,,,,,,,,,90026,001,2022-04-28_11h43.41.306,SPAMnetsValid,2021.1.4,MacIntel,60.04202942,,,,,,,,,,,,,,,,,,,,,,,,,,,,,,,,,,,,,,4,2.3617,0,8,8,8,1,terrain,ice cream,final test,tractor,area of ground,weight,4,,,,,,,,,,,,,,,,,,,,,,,,,,,,,,,,,,,,,,
,,,,,,,,,,,,,,,90026,001,2022-04-28_11h43.41.306,SPAMnetsValid,2021.1.4,MacIntel,60.04202942,,,,,,,,,,,,,,,,,,,,,,,,,,,,,,,,,,,,,,1,6.9789,0,9,9,9,1,capriciousness,stubbornness,courage,whimsicality,amazement,greediness,3,,,,,,,,,,,,,,,,,,,,,,,,,,,,,,,,,,,,,,
,,,,,,,,,,,,,,,90026,001,2022-04-28_11h43.41.306,SPAMnetsValid,2021.1.4,MacIntel,60.04202942,,,,,,,,,,,,,,,,,,,,,,,,,,,,,,,,,,,,,,2,7.8679,0,10,10,10,1,maelstrom,slander,whirlpool,enmity,armor,majolica,2,,,,,,,,,,,,,,,,,,,,,,,,,,,,,,,,,,,,,,
,,,,,,,,,,,,,,,90026,001,2022-04-28_11h43.41.306,SPAMnetsValid,2021.1.4,MacIntel,60.04202942,,,,,,,,,,,,,,,,,,,,,,,,,,,,,,,,,,,,,,5,3.2096,0,11,11,11,1,tentative,critical,conclusive,authentic,provisional,apprehensive,4,,,,,,,,,,,,,,,,,,,,,,,,,,,,,,,,,,,,,,
,,,,,,,,,,,,,,,90026,001,2022-04-28_11h43.41.306,SPAMnetsValid,2021.1.4,MacIntel,60.04202942,,,,,,,,,,,,,,,,,,,,,,,,,,,,,,,,,,,,,,1,8.012,0,12,12,12,1,placate,rehabilitate,plagiarize,depredate,apprise,conciliate,5,,,,,,,,,,,,,,,,,,,,,,,,,,,,,,,,,,,,,,
,,,,,,,,,,,,,,,90026,001,2022-04-28_11h43.41.306,SPAMnetsValid,2021.1.4,MacIntel,60.04202942,,,,,,,,,,,,,,,,,,,,,,,,,,,,,,,,,,,,,,2,9.3251,0,13,13,13,1,surcease,enlightenment,cessation,inattention,censor,substitution,2,,,,,,,,,,,,,,,,,,,,,,,,,,,,,,,,,,,,,,
,,,,,,,,,,,,,,,90026,001,2022-04-28_11h43.41.306,SPAMnetsValid,2021.1.4,MacIntel,60.04202942,,,,,,,,,,,,,,,,,,,,,,,,,,,,,,,,,,,,,,2,12.5203,0,14,14,14,1,apathetic,wandering,impassive,hateful,prophetic,overflowing,2,,,,,,,,,,,,,,,,,,,,,,,,,,,,,,,,,,,,,,
,,,,,,,,,,,,,,,90026,001,2022-04-28_11h43.41.306,SPAMnetsValid,2021.1.4,MacIntel,60.04202942,,,,,,,,,,,,,,,,,,,,,,,,,,,,,,,,,,,,,,5,9.5605,0,15,15,15,1,paternoster,paternalism,patricide,malediction,benediction,prayer,5,,,,,,,,,,,,,,,,,,,,,,,,,,,,,,,,,,,,,,
,,,,,,,,,,,,,,,90026,001,2022-04-28_11h43.41.306,SPAMnetsValid,2021.1.4,MacIntel,60.04202942,,,,,,,,,,,,,,,,,,,,,,,,,,,,,,,,,,,,,,4,15.2367,0,16,16,16,1,opalescence,opulence,senescence,bankruptcy,iridescence,assiduity,4,,,,,,,,,,,,,,,,,,,,,,,,,,,,,,,,,,,,,,
,,,,,,,,,,,,,,,90026,001,2022-04-28_11h43.41.306,SPAMnetsValid,2021.1.4,MacIntel,60.04202942,,,,,,,,,,,,,,,,,,,,,,,,,,,,,,,,,,,,,,2,2.2967,0,17,17,17,1,lush,stupid,luxurious,hazy,putrid,languishing,2,,,,,,,,,,,,,,,,,,,,,,,,,,,,,,,,,,,,,,
,,,,,,,,,,,,,,,90026,001,2022-04-28_11h43.41.306,SPAMnetsValid,2021.1.4,MacIntel,60.04202942,,,,,,,,,,,,,,,,,,,,,,,,,,,,,,,,,,,,,,3,60.827,0,18,18,18,1,curtailment,expenditure,abandonment,abridgment,improvement,forgery,3,,,,,,,,,,,,,,,,,,,,,,,,,,,,,,,,,,,,,,
,,,,,,,,,,,,,,,90026,001,2022-04-28_11h43.41.306,SPAMnetsValid,2021.1.4,MacIntel,60.04202942,,,,,,,,,,,,,,,,,,,,,,,,,,,,,,,,,,,,,,3,2.6724,0,19,19,19,1,perversity,adversity,perviousness,travesty,waywardness,gentility,4,,,,,,,,,,,,,,,,,,,,,,,,,,,,,,,,,,,,,,
,,,,,,,,,,,,,,,90026,001,2022-04-28_11h43.41.306,SPAMnetsValid,2021.1.4,MacIntel,60.04202942,,,,,,,,,,,,,,,,,,,,,,,,,,,,,,,,,,,,,,5,5.2274,0,20,20,20,1,calumnious,complimentary,analogous,slanderous,tempestuous,magnanimous,3,,,,,,,,,,,,,,,,,,,,,,,,,,,,,,,,,,,,,,
,,,,,,,,,,,,,,,90026,001,2022-04-28_11h43.41.306,SPAMnetsValid,2021.1.4,MacIntel,60.04202942,,,,,,,,,,,,,,,,,,,,,,,,,,,,,,,,,,,,,,1,11.5756,0,21,21,21,1,illiberality,bigotry,imbecility,illegibility,cautery,immaturity,1,,,,,,,,,,,,,,,,,,,,,,,,,,,,,,,,,,,,,,
,,,,,,,,,,,,,,,90026,001,2022-04-28_11h43.41.306,SPAMnetsValid,2021.1.4,MacIntel,60.04202942,,,,,,,,,,,,,,,,,,,,,,,,,,,,,,,,,,,,,,3,6.8932,0,22,22,22,1,clabber,rejoice,gossip,curdle,crow,hobble,3,,,,,,,,,,,,,,,,,,,,,,,,,,,,,,,,,,,,,,
,,,,,,,,,,,,,,,90026,001,2022-04-28_11h43.41.306,SPAMnetsValid,2021.1.4,MacIntel,60.04202942,,,,,,,,,,,,,,,,,,,,,,,,,,,,,,,,,,,,,,1,9.314,0,23,23,23,1,sedulousness,diligence,credulousness,seduction,perilousness,frankness,1,,,,,,,,,,,,,,,,,,,,,,,,,,,,,,,,,,,,,,
,,,,,,,,,,,,,,,90026,001,2022-04-28_11h43.41.306,SPAMnetsValid,2021.1.4,MacIntel,60.04202942,,,,,,,,,,,,,,,,,,,,,,,,,,,,,,,,,,,,,,,,,,,,,,,,,,,,build a wax object,candle,0,0,0,0,1,,,,,,,,,,,,,,,,,,,,,,,,,,,,,,,
,,,,,,,,,,,,,,,90026,001,2022-04-28_11h43.41.306,SPAMnetsValid,2021.1.4,MacIntel,60.04202942,,,,,,,,,,,,,,,,,,,,,,,,,,,,,,,,,,,,,,,,,,,,,,,,,,,,give light to a dark place,candle,1,0,1,0,1,,,,,,,,,,,,,,,,,,,,,,,,,,,,,,,
,,,,,,,,,,,,,,,90026,001,2022-04-28_11h43.41.306,SPAMnetsValid,2021.1.4,MacIntel,60.04202942,,,,,,,,,,,,,,,,,,,,,,,,,,,,,,,,,,,,,,,,,,,,,,,,,,,,fix a zipper,candle,2,0,2,0,1,,,,,,,,,,,,,,,,,,,,,,,,,,,,,,,
,,,,,,,,,,,,,,,90026,001,2022-04-28_11h43.41.306,SPAMnetsValid,2021.1.4,MacIntel,60.04202942,,,,,,,,,,,,,,,,,,,,,,,,,,,,,,,,,,,,,,,,,,,,,,,,,,,,fix a lock,candle,3,0,3,0,1,,,,,,,,,,,,,,,,,,,,,,,,,,,,,,,
,,,,,,,,,,,,,,,90026,001,2022-04-28_11h43.41.306,SPAMnetsValid,2021.1.4,MacIntel,60.04202942,,,,,,,,,,,,,,,,,,,,,,,,,,,,,,,,,,,,,,,,,,,,,,,,,,,,set wood on fire for a fire,candle,4,0,4,0,1,,,,,,,,,,,,,,,,,,,,,,,,,,,,,,,
,,,,,,,,,,,,,,,90026,001,2022-04-28_11h43.41.306,SPAMnetsValid,2021.1.4,MacIntel,60.04202942,,,,,,,,,,,,,,,,,,,,,,,,,,,,,,,,,,,,,,,,,,,,,,,,,,,,seal letters,candle,5,0,5,0,1,,,,,,,,,,,,,,,,,,,,,,,,,,,,,,,
,,,,,,,,,,,,,,,90026,001,2022-04-28_11h43.41.306,SPAMnetsValid,2021.1.4,MacIntel,60.04202942,,,,,,,,,,,,,,,,,,,,,,,,,,,,,,,,,,,,,,,,,,,,,,,,,,,,close up the end of shoelaces,candle,6,0,6,0,1,,,,,,,,,,,,,,,,,,,,,,,,,,,,,,,
,,,,,,,,,,,,,,,90026,001,2022-04-28_11h43.41.306,SPAMnetsValid,2021.1.4,MacIntel,60.04202942,,,,,,,,,,,,,,,,,,,,,,,,,,,,,,,,,,,,,,,,,,,,,,,,,,,,make a new a candle,candle,7,0,7,0,1,,,,,,,,,,,,,,,,,,,,,,,,,,,,,,,
,,,,,,,,,,,,,,,90026,001,2022-04-28_11h43.41.306,SPAMnetsValid,2021.1.4,MacIntel,60.04202942,,,,,,,,,,,,,,,,,,,,,,,,,,,,,,,,,,,,,,,,,,,,,,,,,,,,use the wax as lube for squeaky things,candle,8,0,8,0,1,,,,,,,,,,,,,,,,,,,,,,,,,,,,,,,
,,,,,,,,,,,,,,,90026,001,2022-04-28_11h43.41.306,SPAMnetsValid,2021.1.4,MacIntel,60.04202942,,,,,,,,,,,,,,,,,,,,,,,,,,,,,,,,,,,,,,,,,,,,,,,,,,,,ornaments,candle,9,0,9,0,1,,,,,,,,,,,,,,,,,,,,,,,,,,,,,,,
,,,,,,,,,,,,,,,90026,001,2022-04-28_11h43.41.306,SPAMnetsValid,2021.1.4,MacIntel,60.04202942,,,,,,,,,,,,,,,,,,,,,,,,,,,,,,,,,,,,,,,,,,,,,,,,,,,,storage when the wax is over,candle,10,0,10,0,1,,,,,,,,,,,,,,,,,,,,,,,,,,,,,,,
,,,,,,,,,,,,,,,90026,001,2022-04-28_11h43.41.306,SPAMnetsValid,2021.1.4,MacIntel,60.04202942,,,,,,,,,,,,,,,,,,,,,,,,,,,,,,,,,,,,,,,,,,,,,,,,,,,,,,,,,,,0,0,0,1,1,candle,,,,,,,,,,,,,,,,,,,,,,,,,
,,,,,,,,,,,,,,,90026,001,2022-04-28_11h43.41.306,SPAMnetsValid,2021.1.4,MacIntel,60.04202942,,,,,,,,,,,,,,,,,,,,,,,,,,,,,,,,,,,,,,,,,,,,,,,,,,,,make a water filter,bucket,0,0,0,0,1,,,,,,,,,,,,,,,,,,,,,,,,,,,,,,,
,,,,,,,,,,,,,,,90026,001,2022-04-28_11h43.41.306,SPAMnetsValid,2021.1.4,MacIntel,60.04202942,,,,,,,,,,,,,,,,,,,,,,,,,,,,,,,,,,,,,,,,,,,,,,,,,,,,use as a bucket to change a fish tank water,bucket,1,0,1,0,1,,,,,,,,,,,,,,,,,,,,,,,,,,,,,,,
,,,,,,,,,,,,,,,90026,001,2022-04-28_11h43.41.306,SPAMnetsValid,2021.1.4,MacIntel,60.04202942,,,,,,,,,,,,,,,,,,,,,,,,,,,,,,,,,,,,,,,,,,,,,,,,,,,,use as a toilet,bucket,2,0,2,0,1,,,,,,,,,,,,,,,,,,,,,,,,,,,,,,,
,,,,,,,,,,,,,,,90026,001,2022-04-28_11h43.41.306,SPAMnetsValid,2021.1.4,MacIntel,60.04202942,,,,,,,,,,,,,,,,,,,,,,,,,,,,,,,,,,,,,,,,,,,,,,,,,,,,use as a cooler,bucket,3,0,3,0,1,,,,,,,,,,,,,,,,,,,,,,,,,,,,,,,
,,,,,,,,,,,,,,,90026,001,2022-04-28_11h43.41.306,SPAMnetsValid,2021.1.4,MacIntel,60.04202942,,,,,,,,,,,,,,,,,,,,,,,,,,,,,,,,,,,,,,,,,,,,,,,,,,,,use to shoer,bucket,4,0,4,0,1,,,,,,,,,,,,,,,,,,,,,,,,,,,,,,,
,,,,,,,,,,,,,,,90026,001,2022-04-28_11h43.41.306,SPAMnetsValid,2021.1.4,MacIntel,60.04202942,,,,,,,,,,,,,,,,,,,,,,,,,,,,,,,,,,,,,,,,,,,,,,,,,,,,shower,bucket,5,0,5,0,1,,,,,,,,,,,,,,,,,,,,,,,,,,,,,,,
,,,,,,,,,,,,,,,90026,001,2022-04-28_11h43.41.306,SPAMnetsValid,2021.1.4,MacIntel,60.04202942,,,,,,,,,,,,,,,,,,,,,,,,,,,,,,,,,,,,,,,,,,,,,,,,,,,,use to make sand castles,bucket,6,0,6,0,1,,,,,,,,,,,,,,,,,,,,,,,,,,,,,,,
,,,,,,,,,,,,,,,90026,001,2022-04-28_11h43.41.306,SPAMnetsValid,2021.1.4,MacIntel,60.04202942,,,,,,,,,,,,,,,,,,,,,,,,,,,,,,,,,,,,,,,,,,,,,,,,,,,,grow tomatoes upside down,bucket,7,0,7,0,1,,,,,,,,,,,,,,,,,,,,,,,,,,,,,,,
,,,,,,,,,,,,,,,90026,001,2022-04-28_11h43.41.306,SPAMnetsValid,2021.1.4,MacIntel,60.04202942,,,,,,,,,,,,,,,,,,,,,,,,,,,,,,,,,,,,,,,,,,,,,,,,,,,,use to make a garden,bucket,8,0,8,0,1,,,,,,,,,,,,,,,,,,,,,,,,,,,,,,,
,,,,,,,,,,,,,,,90026,001,2022-04-28_11h43.41.306,SPAMnetsValid,2021.1.4,MacIntel,60.04202942,,,,,,,,,,,,,,,,,,,,,,,,,,,,,,,,,,,,,,,,,,,,,,,,,,,,,,,,,,,0,1,1,0,1,bucket,,,,,,,,,,,,,,,,,,,,,,,,,
,,,,,,,,,,,,,,,90026,001,2022-04-28_11h43.41.306,SPAMnetsValid,2021.1.4,MacIntel,60.04202942,,,,,,,,,,,,,,,,,,,,,,,,,,,,,,,,,,,,,,,,,,,,,,,,,,,,make a new pillow,pillow,0,0,0,0,1,,,,,,,,,,,,,,,,,,,,,,,,,,,,,,,
,,,,,,,,,,,,,,,90026,001,2022-04-28_11h43.41.306,SPAMnetsValid,2021.1.4,MacIntel,60.04202942,,,,,,,,,,,,,,,,,,,,,,,,,,,,,,,,,,,,,,,,,,,,,,,,,,,,use the stuffing to fix toys,pillow,1,0,1,0,1,,,,,,,,,,,,,,,,,,,,,,,,,,,,,,,
,,,,,,,,,,,,,,,90026,001,2022-04-28_11h43.41.306,SPAMnetsValid,2021.1.4,MacIntel,60.04202942,,,,,,,,,,,,,,,,,,,,,,,,,,,,,,,,,,,,,,,,,,,,,,,,,,,,use them as floor cushions,pillow,2,0,2,0,1,,,,,,,,,,,,,,,,,,,,,,,,,,,,,,,
,,,,,,,,,,,,,,,90026,001,2022-04-28_11h43.41.306,SPAMnetsValid,2021.1.4,MacIntel,60.04202942,,,,,,,,,,,,,,,,,,,,,,,,,,,,,,,,,,,,,,,,,,,,,,,,,,,,use as a pet bex,pillow,3,0,3,0,1,,,,,,,,,,,,,,,,,,,,,,,,,,,,,,,
,,,,,,,,,,,,,,,90026,001,2022-04-28_11h43.41.306,SPAMnetsValid,2021.1.4,MacIntel,60.04202942,,,,,,,,,,,,,,,,,,,,,,,,,,,,,,,,,,,,,,,,,,,,,,,,,,,,use to close air drafts in your home,pillow,4,0,4,0,1,,,,,,,,,,,,,,,,,,,,,,,,,,,,,,,
,,,,,,,,,,,,,,,90026,001,2022-04-28_11h43.41.306,SPAMnetsValid,2021.1.4,MacIntel,60.04202942,,,,,,,,,,,,,,,,,,,,,,,,,,,,,,,,,,,,,,,,,,,,,,,,,,,,use as a leg pillow,pillow,5,0,5,0,1,,,,,,,,,,,,,,,,,,,,,,,,,,,,,,,
,,,,,,,,,,,,,,,90026,001,2022-04-28_11h43.41.306,SPAMnetsValid,2021.1.4,MacIntel,60.04202942,,,,,,,,,,,,,,,,,,,,,,,,,,,,,,,,,,,,,,,,,,,,,,,,,,,,use the stuffing as a packer for gifts kind of like styrofoam,pillow,6,0,6,0,1,,,,,,,,,,,,,,,,,,,,,,,,,,,,,,,
,,,,,,,,,,,,,,,90026,001,2022-04-28_11h43.41.306,SPAMnetsValid,2021.1.4,MacIntel,60.04202942,,,,,,,,,,,,,,,,,,,,,,,,,,,,,,,,,,,,,,,,,,,,,,,,,,,,make one big japanese body pillow,pillow,7,0,7,0,1,,,,,,,,,,,,,,,,,,,,,,,,,,,,,,,
,,,,,,,,,,,,,,,90026,001,2022-04-28_11h43.41.306,SPAMnetsValid,2021.1.4,MacIntel,60.04202942,,,,,,,,,,,,,,,,,,,,,,,,,,,,,,,,,,,,,,,,,,,,,,,,,,,,,,,,,,,0,2,2,2,1,pillow,,,,,,,,,,,,,,,,,,,,,,,,,
,,,,,,,,,,,,,,,90026,001,2022-04-28_11h43.41.306,SPAMnetsValid,2021.1.4,MacIntel,60.04202942,,,,,,,,,,,,,,,,,,,,,,,,,,,,,,,,,,,,,,,,,,,,,,,,,,,,,,,,,,,,,,,,,tiger,Animals,0,0,0,0,1,,,,,,,,,,,,,,,,,,
,,,,,,,,,,,,,,,90026,001,2022-04-28_11h43.41.306,SPAMnetsValid,2021.1.4,MacIntel,60.04202942,,,,,,,,,,,,,,,,,,,,,,,,,,,,,,,,,,,,,,,,,,,,,,,,,,,,,,,,,,,,,,,,,gorilla,Animals,1,0,1,0,1,,,,,,,,,,,,,,,,,,
,,,,,,,,,,,,,,,90026,001,2022-04-28_11h43.41.306,SPAMnetsValid,2021.1.4,MacIntel,60.04202942,,,,,,,,,,,,,,,,,,,,,,,,,,,,,,,,,,,,,,,,,,,,,,,,,,,,,,,,,,,,,,,,,dog,Animals,2,0,2,0,1,,,,,,,,,,,,,,,,,,
,,,,,,,,,,,,,,,90026,001,2022-04-28_11h43.41.306,SPAMnetsValid,2021.1.4,MacIntel,60.04202942,,,,,,,,,,,,,,,,,,,,,,,,,,,,,,,,,,,,,,,,,,,,,,,,,,,,,,,,,,,,,,,,,cats,Animals,3,0,3,0,1,,,,,,,,,,,,,,,,,,
,,,,,,,,,,,,,,,90026,001,2022-04-28_11h43.41.306,SPAMnetsValid,2021.1.4,MacIntel,60.04202942,,,,,,,,,,,,,,,,,,,,,,,,,,,,,,,,,,,,,,,,,,,,,,,,,,,,,,,,,,,,,,,,,lion,Animals,4,0,4,0,1,,,,,,,,,,,,,,,,,,
,,,,,,,,,,,,,,,90026,001,2022-04-28_11h43.41.306,SPAMnetsValid,2021.1.4,MacIntel,60.04202942,,,,,,,,,,,,,,,,,,,,,,,,,,,,,,,,,,,,,,,,,,,,,,,,,,,,,,,,,,,,,,,,,fish,Animals,5,0,5,0,1,,,,,,,,,,,,,,,,,,
,,,,,,,,,,,,,,,90026,001,2022-04-28_11h43.41.306,SPAMnetsValid,2021.1.4,MacIntel,60.04202942,,,,,,,,,,,,,,,,,,,,,,,,,,,,,,,,,,,,,,,,,,,,,,,,,,,,,,,,,,,,,,,,,kangaroo,Animals,6,0,6,0,1,,,,,,,,,,,,,,,,,,
,,,,,,,,,,,,,,,90026,001,2022-04-28_11h43.41.306,SPAMnetsValid,2021.1.4,MacIntel,60.04202942,,,,,,,,,,,,,,,,,,,,,,,,,,,,,,,,,,,,,,,,,,,,,,,,,,,,,,,,,,,,,,,,,deer,Animals,7,0,7,0,1,,,,,,,,,,,,,,,,,,
,,,,,,,,,,,,,,,90026,001,2022-04-28_11h43.41.306,SPAMnetsValid,2021.1.4,MacIntel,60.04202942,,,,,,,,,,,,,,,,,,,,,,,,,,,,,,,,,,,,,,,,,,,,,,,,,,,,,,,,,,,,,,,,,buffalo,Animals,8,0,8,0,1,,,,,,,,,,,,,,,,,,
,,,,,,,,,,,,,,,90026,001,2022-04-28_11h43.41.306,SPAMnetsValid,2021.1.4,MacIntel,60.04202942,,,,,,,,,,,,,,,,,,,,,,,,,,,,,,,,,,,,,,,,,,,,,,,,,,,,,,,,,,,,,,,,,capybara,Animals,9,0,9,0,1,,,,,,,,,,,,,,,,,,
,,,,,,,,,,,,,,,90026,001,2022-04-28_11h43.41.306,SPAMnetsValid,2021.1.4,MacIntel,60.04202942,,,,,,,,,,,,,,,,,,,,,,,,,,,,,,,,,,,,,,,,,,,,,,,,,,,,,,,,,,,,,,,,,hedgehog,Animals,10,0,10,0,1,,,,,,,,,,,,,,,,,,
,,,,,,,,,,,,,,,90026,001,2022-04-28_11h43.41.306,SPAMnetsValid,2021.1.4,MacIntel,60.04202942,,,,,,,,,,,,,,,,,,,,,,,,,,,,,,,,,,,,,,,,,,,,,,,,,,,,,,,,,,,,,,,,,hamster,Animals,11,0,11,0,1,,,,,,,,,,,,,,,,,,
,,,,,,,,,,,,,,,90026,001,2022-04-28_11h43.41.306,SPAMnetsValid,2021.1.4,MacIntel,60.04202942,,,,,,,,,,,,,,,,,,,,,,,,,,,,,,,,,,,,,,,,,,,,,,,,,,,,,,,,,,,,,,,,,rat,Animals,12,0,12,0,1,,,,,,,,,,,,,,,,,,
,,,,,,,,,,,,,,,90026,001,2022-04-28_11h43.41.306,SPAMnetsValid,2021.1.4,MacIntel,60.04202942,,,,,,,,,,,,,,,,,,,,,,,,,,,,,,,,,,,,,,,,,,,,,,,,,,,,,,,,,,,,,,,,,snakes,Animals,13,0,13,0,1,,,,,,,,,,,,,,,,,,
,,,,,,,,,,,,,,,90026,001,2022-04-28_11h43.41.306,SPAMnetsValid,2021.1.4,MacIntel,60.04202942,,,,,,,,,,,,,,,,,,,,,,,,,,,,,,,,,,,,,,,,,,,,,,,,,,,,,,,,,,,,,,,,,monkeys,Animals,14,0,14,0,1,,,,,,,,,,,,,,,,,,
,,,,,,,,,,,,,,,90026,001,2022-04-28_11h43.41.306,SPAMnetsValid,2021.1.4,MacIntel,60.04202942,,,,,,,,,,,,,,,,,,,,,,,,,,,,,,,,,,,,,,,,,,,,,,,,,,,,,,,,,,,,,,,,,orangutans,Animals,15,0,15,0,1,,,,,,,,,,,,,,,,,,
,,,,,,,,,,,,,,,90026,001,2022-04-28_11h43.41.306,SPAMnetsValid,2021.1.4,MacIntel,60.04202942,,,,,,,,,,,,,,,,,,,,,,,,,,,,,,,,,,,,,,,,,,,,,,,,,,,,,,,,,,,,,,,,,doves,Animals,16,0,16,0,1,,,,,,,,,,,,,,,,,,
,,,,,,,,,,,,,,,90026,001,2022-04-28_11h43.41.306,SPAMnetsValid,2021.1.4,MacIntel,60.04202942,,,,,,,,,,,,,,,,,,,,,,,,,,,,,,,,,,,,,,,,,,,,,,,,,,,,,,,,,,,,,,,,,pigeons,Animals,17,0,17,0,1,,,,,,,,,,,,,,,,,,
,,,,,,,,,,,,,,,90026,001,2022-04-28_11h43.41.306,SPAMnetsValid,2021.1.4,MacIntel,60.04202942,,,,,,,,,,,,,,,,,,,,,,,,,,,,,,,,,,,,,,,,,,,,,,,,,,,,,,,,,,,,,,,,,robins,Animals,18,0,18,0,1,,,,,,,,,,,,,,,,,,
,,,,,,,,,,,,,,,90026,001,2022-04-28_11h43.41.306,SPAMnetsValid,2021.1.4,MacIntel,60.04202942,,,,,,,,,,,,,,,,,,,,,,,,,,,,,,,,,,,,,,,,,,,,,,,,,,,,,,,,,,,,,,,,,swans,Animals,19,0,19,0,1,,,,,,,,,,,,,,,,,,
,,,,,,,,,,,,,,,90026,001,2022-04-28_11h43.41.306,SPAMnetsValid,2021.1.4,MacIntel,60.04202942,,,,,,,,,,,,,,,,,,,,,,,,,,,,,,,,,,,,,,,,,,,,,,,,,,,,,,,,,,,,,,,,,doves,Animals,20,0,20,0,1,,,,,,,,,,,,,,,,,,
,,,,,,,,,,,,,,,90026,001,2022-04-28_11h43.41.306,SPAMnetsValid,2021.1.4,MacIntel,60.04202942,,,,,,,,,,,,,,,,,,,,,,,,,,,,,,,,,,,,,,,,,,,,,,,,,,,,,,,,,,,,,,,,,cranes,Animals,21,0,21,0,1,,,,,,,,,,,,,,,,,,
,,,,,,,,,,,,,,,90026,001,2022-04-28_11h43.41.306,SPAMnetsValid,2021.1.4,MacIntel,60.04202942,,,,,,,,,,,,,,,,,,,,,,,,,,,,,,,,,,,,,,,,,,,,,,,,,,,,,,,,,,,,,,,,,ducks,Animals,22,0,22,0,1,,,,,,,,,,,,,,,,,,
,,,,,,,,,,,,,,,90026,001,2022-04-28_11h43.41.306,SPAMnetsValid,2021.1.4,MacIntel,60.04202942,,,,,,,,,,,,,,,,,,,,,,,,,,,,,,,,,,,,,,,,,,,,,,,,,,,,,,,,,,,,,,,,,zebra,Animals,23,0,23,0,1,,,,,,,,,,,,,,,,,,
,,,,,,,,,,,,,,,90026,001,2022-04-28_11h43.41.306,SPAMnetsValid,2021.1.4,MacIntel,60.04202942,,,,,,,,,,,,,,,,,,,,,,,,,,,,,,,,,,,,,,,,,,,,,,,,,,,,,,,,,,,,,,,,,horses,Animals,24,0,24,0,1,,,,,,,,,,,,,,,,,,
,,,,,,,,,,,,,,,90026,001,2022-04-28_11h43.41.306,SPAMnetsValid,2021.1.4,MacIntel,60.04202942,,,,,,,,,,,,,,,,,,,,,,,,,,,,,,,,,,,,,,,,,,,,,,,,,,,,,,,,,,,,,,,,,ponies ,Animals,25,0,25,0,1,,,,,,,,,,,,,,,,,,
,,,,,,,,,,,,,,,90026,001,2022-04-28_11h43.41.306,SPAMnetsValid,2021.1.4,MacIntel,60.04202942,,,,,,,,,,,,,,,,,,,,,,,,,,,,,,,,,,,,,,,,,,,,,,,,,,,,,,,,,,,,,,,,,seals,Animals,26,0,26,0,1,,,,,,,,,,,,,,,,,,
,,,,,,,,,,,,,,,90026,001,2022-04-28_11h43.41.306,SPAMnetsValid,2021.1.4,MacIntel,60.04202942,,,,,,,,,,,,,,,,,,,,,,,,,,,,,,,,,,,,,,,,,,,,,,,,,,,,,,,,,,,,,,,,,penguins,Animals,27,0,27,0,1,,,,,,,,,,,,,,,,,,
,,,,,,,,,,,,,,,90026,001,2022-04-28_11h43.41.306,SPAMnetsValid,2021.1.4,MacIntel,60.04202942,,,,,,,,,,,,,,,,,,,,,,,,,,,,,,,,,,,,,,,,,,,,,,,,,,,,,,,,,,,,,,,,,sea lions,Animals,28,0,28,0,1,,,,,,,,,,,,,,,,,,
,,,,,,,,,,,,,,,90026,001,2022-04-28_11h43.41.306,SPAMnetsValid,2021.1.4,MacIntel,60.04202942,,,,,,,,,,,,,,,,,,,,,,,,,,,,,,,,,,,,,,,,,,,,,,,,,,,,,,,,,,,,,,,,,otters,Animals,29,0,29,0,1,,,,,,,,,,,,,,,,,,
,,,,,,,,,,,,,,,90026,001,2022-04-28_11h43.41.306,SPAMnetsValid,2021.1.4,MacIntel,60.04202942,,,,,,,,,,,,,,,,,,,,,,,,,,,,,,,,,,,,,,,,,,,,,,,,,,,,,,,,,,,,,,,,,cats,Animals,30,0,30,0,1,,,,,,,,,,,,,,,,,,
,,,,,,,,,,,,,,,90026,001,2022-04-28_11h43.41.306,SPAMnetsValid,2021.1.4,MacIntel,60.04202942,,,,,,,,,,,,,,,,,,,,,,,,,,,,,,,,,,,,,,,,,,,,,,,,,,,,,,,,,,,,,,,,,siberian husky,Animals,31,0,31,0,1,,,,,,,,,,,,,,,,,,
,,,,,,,,,,,,,,,90026,001,2022-04-28_11h43.41.306,SPAMnetsValid,2021.1.4,MacIntel,60.04202942,,,,,,,,,,,,,,,,,,,,,,,,,,,,,,,,,,,,,,,,,,,,,,,,,,,,,,,,,,,,,,,,,jaguar,Animals,32,0,32,0,1,,,,,,,,,,,,,,,,,,
,,,,,,,,,,,,,,,90026,001,2022-04-28_11h43.41.306,SPAMnetsValid,2021.1.4,MacIntel,60.04202942,,,,,,,,,,,,,,,,,,,,,,,,,,,,,,,,,,,,,,,,,,,,,,,,,,,,,,,,,,,,,,,,,cheetah,Animals,33,0,33,0,1,,,,,,,,,,,,,,,,,,
,,,,,,,,,,,,,,,90026,001,2022-04-28_11h43.41.306,SPAMnetsValid,2021.1.4,MacIntel,60.04202942,,,,,,,,,,,,,,,,,,,,,,,,,,,,,,,,,,,,,,,,,,,,,,,,,,,,,,,,,,,,,,,,,antelope,Animals,34,0,34,0,1,,,,,,,,,,,,,,,,,,
,,,,,,,,,,,,,,,90026,001,2022-04-28_11h43.41.306,SPAMnetsValid,2021.1.4,MacIntel,60.04202942,,,,,,,,,,,,,,,,,,,,,,,,,,,,,,,,,,,,,,,,,,,,,,,,,,,,,,,,,,,,,,,,,,,,,,,,0,0,0,0,1,Animals,,,,,,,,,,,,
,,,,,,,,,,,,,,,90026,001,2022-04-28_11h43.41.306,SPAMnetsValid,2021.1.4,MacIntel,60.04202942,,,,,,,,,,,,,,,,,,,,,,,,,,,,,,,,,,,,,,,,,,,,,,,,,,,,,,,,,,,,,,,,,,,,,,,,,,,,,,4,4.5466,0,0,0,0,1,"I enjoy concentrating on a fantasy or daydream and exploring all its possibilities, letting it grow and develop.",0,1,,
,,,,,,,,,,,,,,,90026,001,2022-04-28_11h43.41.306,SPAMnetsValid,2021.1.4,MacIntel,60.04202942,,,,,,,,,,,,,,,,,,,,,,,,,,,,,,,,,,,,,,,,,,,,,,,,,,,,,,,,,,,,,,,,,,,,,,,,,,,,,,5,77.5967,0,1,1,1,1,I think it's interesting to learn and develop new hobbies.,0,2,,
,,,,,,,,,,,,,,,90026,001,2022-04-28_11h43.41.306,SPAMnetsValid,2021.1.4,MacIntel,60.04202942,,,,,,,,,,,,,,,,,,,,,,,,,,,,,,,,,,,,,,,,,,,,,,,,,,,,,,,,,,,,,,,,,,,,,,,,,,,,,,4,1.9739,0,2,2,2,1,I am intrigued by the patterns I find in art and nature.,0,3,,
,,,,,,,,,,,,,,,90026,001,2022-04-28_11h43.41.306,SPAMnetsValid,2021.1.4,MacIntel,60.04202942,,,,,,,,,,,,,,,,,,,,,,,,,,,,,,,,,,,,,,,,,,,,,,,,,,,,,,,,,,,,,,,,,,,,,,,,,,,,,,2,3.3993,0,3,3,3,1,I believe letting students hear controversial speakers can only confuse and mislead them.,1,4,,
,,,,,,,,,,,,,,,90026,001,2022-04-28_11h43.41.306,SPAMnetsValid,2021.1.4,MacIntel,60.04202942,,,,,,,,,,,,,,,,,,,,,,,,,,,,,,,,,,,,,,,,,,,,,,,,,,,,,,,,,,,,,,,,,,,,,,,,,,,,,,3,2.0267,0,4,4,4,1,Poetry has little or no effect on me.,1,5,,
,,,,,,,,,,,,,,,90026,001,2022-04-28_11h43.41.306,SPAMnetsValid,2021.1.4,MacIntel,60.04202942,,,,,,,,,,,,,,,,,,,,,,,,,,,,,,,,,,,,,,,,,,,,,,,,,,,,,,,,,,,,,,,,,,,,,,,,,,,,,,3,3.6675,0,5,5,5,1,I would have difficulty just letting my mind wander without control or guidance.,1,6,,
,,,,,,,,,,,,,,,90026,001,2022-04-28_11h43.41.306,SPAMnetsValid,2021.1.4,MacIntel,60.04202942,,,,,,,,,,,,,,,,,,,,,,,,,,,,,,,,,,,,,,,,,,,,,,,,,,,,,,,,,,,,,,,,,,,,,,,,,,,,,,2,4.0441,0,6,6,6,1,I seldom notice the moods or feelings that different environments produce.,1,7,,
,,,,,,,,,,,,,,,90026,001,2022-04-28_11h43.41.306,SPAMnetsValid,2021.1.4,MacIntel,60.04202942,,,,,,,,,,,,,,,,,,,,,,,,,,,,,,,,,,,,,,,,,,,,,,,,,,,,,,,,,,,,,,,,,,,,,,,,,,,,,,5,1.7355,0,7,7,7,1,I experience a wide range of emotions or feelings.,0,8,,
,,,,,,,,,,,,,,,90026,001,2022-04-28_11h43.41.306,SPAMnetsValid,2021.1.4,MacIntel,60.04202942,,,,,,,,,,,,,,,,,,,,,,,,,,,,,,,,,,,,,,,,,,,,,,,,,,,,,,,,,,,,,,,,,,,,,,,,,,,,,,4,1.8013,0,8,8,8,1,"Sometimes when I am reading poetry or looking at a work of art, I feel a chill or wave of excitement.",0,9,,
,,,,,,,,,,,,,,,90026,001,2022-04-28_11h43.41.306,SPAMnetsValid,2021.1.4,MacIntel,60.04202942,,,,,,,,,,,,,,,,,,,,,,,,,,,,,,,,,,,,,,,,,,,,,,,,,,,,,,,,,,,,,,,,,,,,,,,,,,,,,,2,2.1267,0,9,9,9,1,I have little interest in speculating on the nature of the universe or the human condition.,1,10,,
,,,,,,,,,,,,,,,90026,001,2022-04-28_11h43.41.306,SPAMnetsValid,2021.1.4,MacIntel,60.04202942,,,,,,,,,,,,,,,,,,,,,,,,,,,,,,,,,,,,,,,,,,,,,,,,,,,,,,,,,,,,,,,,,,,,,,,,,,,,,,5,1.6523,0,10,10,10,1,I have a lot of intellectual curiosity.,0,11,,
,,,,,,,,,,,,,,,90026,001,2022-04-28_11h43.41.306,SPAMnetsValid,2021.1.4,MacIntel,60.04202942,,,,,,,,,,,,,,,,,,,,,,,,,,,,,,,,,,,,,,,,,,,,,,,,,,,,,,,,,,,,,,,,,,,,,,,,,,,,,,4,1.5837,0,11,11,11,1,I often enjoy playing with theories or abstract ideas.,0,12,,
,,,,,,,,,,,,,,,90026,001,2022-04-28_11h43.41.306,SPAMnetsValid,2021.1.4,MacIntel,60.04202942,,,,,,,,,,,,,,,,,,,,,,,,,,,,,,,,,,,,,,,,,,,,,,,,,,,,,,,,,,,,,,,,,,,,,,,,,,,,,,,,,,,,,,,,return,11.8492
