key_resp_3.keys,key_resp_3.rt,slider_2.response,slider_2.rt,rjt_rating,rjt_RT,trials_24.thisRepN,trials_24.thisTrialN,trials_24.thisN,trials_24.thisIndex,trials_24.ran,rjt_order,word1,word2,attention,participant,session,date,expName,psychopyVersion,OS,frameRate,trials_4.thisRepN,trials_4.thisTrialN,trials_4.thisN,trials_4.thisIndex,trials_4.ran,trials_5.thisRepN,trials_5.thisTrialN,trials_5.thisN,trials_5.thisIndex,trials_5.ran,repOne,repTwo,slider.response,slider.rt,trials_22.thisRepN,trials_22.thisTrialN,trials_22.thisN,trials_22.thisIndex,trials_22.ran,trials_99.thisRepN,trials_99.thisTrialN,trials_99.thisN,trials_99.thisIndex,trials_99.ran,slider_extend_2.response,slider_extend_2.rt,trials_6.thisRepN,trials_6.thisTrialN,trials_6.thisN,trials_6.thisIndex,trials_6.ran,vCue2,R1,R2,R3,R4,correct,sliderVocab.response,sliderVocab.rt,trials_7.thisRepN,trials_7.thisTrialN,trials_7.thisN,trials_7.thisIndex,trials_7.ran,VocabCue,VR1,VR2,VR3,VR4,VR5,VocabCorrect,AUT_resp,AUT_label,trials.thisRepN,trials.thisTrialN,trials.thisN,trials.thisIndex,trials.ran,trials_2.thisRepN,trials_2.thisTrialN,trials_2.thisN,trials_2.thisIndex,trials_2.ran,aut_prompt,VF_response,VF_tag,trials_16.thisRepN,trials_16.thisTrialN,trials_16.thisN,trials_16.thisIndex,trials_16.ran,trials_17.thisRepN,trials_17.thisTrialN,trials_17.thisN,trials_17.thisIndex,trials_17.ran,VFcond,open_slider.response,open_slider.rt,trials_3.thisRepN,trials_3.thisTrialN,trials_3.thisN,trials_3.thisIndex,trials_3.ran,OpenQ,Rev,OPEN_ORDER,key_resp_2.keys,key_resp_2.rt
return,20.309,1,26.962,1,26.962,0,0,0,80,1,146,pretzel,tree,,90054,001,2022-04-24_03h40.10.563,SPAMnetsValid,2021.1.4,MacIntel,58.82352941,,,,,,,,,,,,,,,,,,,,,,,,,,,,,,,,,,,,,,,,,,,,,,,,,,,,,,,,,,,,,,,,,,,,,,,,,,,,,,,,,,,,,,,,,
,,5,7.031,5,7.031,0,1,1,2,1,174,cake,pretzel,,90054,001,2022-04-24_03h40.10.563,SPAMnetsValid,2021.1.4,MacIntel,58.82352941,,,,,,,,,,,,,,,,,,,,,,,,,,,,,,,,,,,,,,,,,,,,,,,,,,,,,,,,,,,,,,,,,,,,,,,,,,,,,,,,,,,,,,,,,
,,1,8.969,1,8.969,0,2,2,57,1,127,cactus,chocolate,,90054,001,2022-04-24_03h40.10.563,SPAMnetsValid,2021.1.4,MacIntel,58.82352941,,,,,,,,,,,,,,,,,,,,,,,,,,,,,,,,,,,,,,,,,,,,,,,,,,,,,,,,,,,,,,,,,,,,,,,,,,,,,,,,,,,,,,,,,
,,6,6.176,6,6.176,0,3,3,75,1,178,cactus,carrot,,90054,001,2022-04-24_03h40.10.563,SPAMnetsValid,2021.1.4,MacIntel,58.82352941,,,,,,,,,,,,,,,,,,,,,,,,,,,,,,,,,,,,,,,,,,,,,,,,,,,,,,,,,,,,,,,,,,,,,,,,,,,,,,,,,,,,,,,,,
,,7,3.887,7,3.887,0,4,4,49,1,152,cactus,strawberry,,90054,001,2022-04-24_03h40.10.563,SPAMnetsValid,2021.1.4,MacIntel,58.82352941,,,,,,,,,,,,,,,,,,,,,,,,,,,,,,,,,,,,,,,,,,,,,,,,,,,,,,,,,,,,,,,,,,,,,,,,,,,,,,,,,,,,,,,,,
,,3,3.519,3,3.519,0,5,5,54,1,101,cactus,kitchen,,90054,001,2022-04-24_03h40.10.563,SPAMnetsValid,2021.1.4,MacIntel,58.82352941,,,,,,,,,,,,,,,,,,,,,,,,,,,,,,,,,,,,,,,,,,,,,,,,,,,,,,,,,,,,,,,,,,,,,,,,,,,,,,,,,,,,,,,,,
,,9,2.214,9,2.214,0,6,6,22,1,142,garden,tree,,90054,001,2022-04-24_03h40.10.563,SPAMnetsValid,2021.1.4,MacIntel,58.82352941,,,,,,,,,,,,,,,,,,,,,,,,,,,,,,,,,,,,,,,,,,,,,,,,,,,,,,,,,,,,,,,,,,,,,,,,,,,,,,,,,,,,,,,,,
,,8,8.001,8,8.001,0,7,7,27,1,158,cookie,oven,,90054,001,2022-04-24_03h40.10.563,SPAMnetsValid,2021.1.4,MacIntel,58.82352941,,,,,,,,,,,,,,,,,,,,,,,,,,,,,,,,,,,,,,,,,,,,,,,,,,,,,,,,,,,,,,,,,,,,,,,,,,,,,,,,,,,,,,,,,
,,6,5.363,6,5.363,0,8,8,93,1,134,carrot,flower,,90054,001,2022-04-24_03h40.10.563,SPAMnetsValid,2021.1.4,MacIntel,58.82352941,,,,,,,,,,,,,,,,,,,,,,,,,,,,,,,,,,,,,,,,,,,,,,,,,,,,,,,,,,,,,,,,,,,,,,,,,,,,,,,,,,,,,,,,,
,,1,2.152,1,2.152,0,9,9,63,1,137,microwave,tree,,90054,001,2022-04-24_03h40.10.563,SPAMnetsValid,2021.1.4,MacIntel,58.82352941,,,,,,,,,,,,,,,,,,,,,,,,,,,,,,,,,,,,,,,,,,,,,,,,,,,,,,,,,,,,,,,,,,,,,,,,,,,,,,,,,,,,,,,,,
,,6,2.256,6,2.256,0,10,10,85,1,115,refrigerator,tomato,,90054,001,2022-04-24_03h40.10.563,SPAMnetsValid,2021.1.4,MacIntel,58.82352941,,,,,,,,,,,,,,,,,,,,,,,,,,,,,,,,,,,,,,,,,,,,,,,,,,,,,,,,,,,,,,,,,,,,,,,,,,,,,,,,,,,,,,,,,
,,6,1.92,6,1.92,0,11,11,65,1,160,cookie,kitchen,,90054,001,2022-04-24_03h40.10.563,SPAMnetsValid,2021.1.4,MacIntel,58.82352941,,,,,,,,,,,,,,,,,,,,,,,,,,,,,,,,,,,,,,,,,,,,,,,,,,,,,,,,,,,,,,,,,,,,,,,,,,,,,,,,,,,,,,,,,
,,1,2.574,1,2.574,0,12,12,79,1,103,pretzel,tomato,,90054,001,2022-04-24_03h40.10.563,SPAMnetsValid,2021.1.4,MacIntel,58.82352941,,,,,,,,,,,,,,,,,,,,,,,,,,,,,,,,,,,,,,,,,,,,,,,,,,,,,,,,,,,,,,,,,,,,,,,,,,,,,,,,,,,,,,,,,
,,5,6.301,5,6.301,0,13,13,89,1,140,cookie,refrigerator,,90054,001,2022-04-24_03h40.10.563,SPAMnetsValid,2021.1.4,MacIntel,58.82352941,,,,,,,,,,,,,,,,,,,,,,,,,,,,,,,,,,,,,,,,,,,,,,,,,,,,,,,,,,,,,,,,,,,,,,,,,,,,,,,,,,,,,,,,,
,,4,3.064,4,3.064,0,14,14,21,1,159,cookie,flower,,90054,001,2022-04-24_03h40.10.563,SPAMnetsValid,2021.1.4,MacIntel,58.82352941,,,,,,,,,,,,,,,,,,,,,,,,,,,,,,,,,,,,,,,,,,,,,,,,,,,,,,,,,,,,,,,,,,,,,,,,,,,,,,,,,,,,,,,,,
,,7,2.557,7,2.557,0,15,15,76,1,102,chocolate,refrigerator,,90054,001,2022-04-24_03h40.10.563,SPAMnetsValid,2021.1.4,MacIntel,58.82352941,,,,,,,,,,,,,,,,,,,,,,,,,,,,,,,,,,,,,,,,,,,,,,,,,,,,,,,,,,,,,,,,,,,,,,,,,,,,,,,,,,,,,,,,,
,,1,2.387,1,2.387,0,16,16,71,1,187,cactus,microwave,,90054,001,2022-04-24_03h40.10.563,SPAMnetsValid,2021.1.4,MacIntel,58.82352941,,,,,,,,,,,,,,,,,,,,,,,,,,,,,,,,,,,,,,,,,,,,,,,,,,,,,,,,,,,,,,,,,,,,,,,,,,,,,,,,,,,,,,,,,
,,1,1.824,1,1.824,0,17,17,32,1,182,flower,refrigerator,,90054,001,2022-04-24_03h40.10.563,SPAMnetsValid,2021.1.4,MacIntel,58.82352941,,,,,,,,,,,,,,,,,,,,,,,,,,,,,,,,,,,,,,,,,,,,,,,,,,,,,,,,,,,,,,,,,,,,,,,,,,,,,,,,,,,,,,,,,
,,8,7.379,8,7.379,0,18,18,52,1,110,chocolate,cookie,,90054,001,2022-04-24_03h40.10.563,SPAMnetsValid,2021.1.4,MacIntel,58.82352941,,,,,,,,,,,,,,,,,,,,,,,,,,,,,,,,,,,,,,,,,,,,,,,,,,,,,,,,,,,,,,,,,,,,,,,,,,,,,,,,,,,,,,,,,
,,6,2.722,6,2.722,0,19,19,18,1,119,strawberry,tree,,90054,001,2022-04-24_03h40.10.563,SPAMnetsValid,2021.1.4,MacIntel,58.82352941,,,,,,,,,,,,,,,,,,,,,,,,,,,,,,,,,,,,,,,,,,,,,,,,,,,,,,,,,,,,,,,,,,,,,,,,,,,,,,,,,,,,,,,,,
,,1,2.236,1,2.236,0,20,20,45,1,179,broom,oven,,90054,001,2022-04-24_03h40.10.563,SPAMnetsValid,2021.1.4,MacIntel,58.82352941,,,,,,,,,,,,,,,,,,,,,,,,,,,,,,,,,,,,,,,,,,,,,,,,,,,,,,,,,,,,,,,,,,,,,,,,,,,,,,,,,,,,,,,,,
,,5,6.208,5,6.208,0,21,21,62,1,189,onion,tree,,90054,001,2022-04-24_03h40.10.563,SPAMnetsValid,2021.1.4,MacIntel,58.82352941,,,,,,,,,,,,,,,,,,,,,,,,,,,,,,,,,,,,,,,,,,,,,,,,,,,,,,,,,,,,,,,,,,,,,,,,,,,,,,,,,,,,,,,,,
,,5,6.09,5,6.09,0,22,22,39,1,112,cake,carrot,,90054,001,2022-04-24_03h40.10.563,SPAMnetsValid,2021.1.4,MacIntel,58.82352941,,,,,,,,,,,,,,,,,,,,,,,,,,,,,,,,,,,,,,,,,,,,,,,,,,,,,,,,,,,,,,,,,,,,,,,,,,,,,,,,,,,,,,,,,
,,7,2.076,7,2.076,0,23,23,10,1,118,chocolate,oven,,90054,001,2022-04-24_03h40.10.563,SPAMnetsValid,2021.1.4,MacIntel,58.82352941,,,,,,,,,,,,,,,,,,,,,,,,,,,,,,,,,,,,,,,,,,,,,,,,,,,,,,,,,,,,,,,,,,,,,,,,,,,,,,,,,,,,,,,,,
,,8,4.528,8,4.528,0,24,24,83,1,100,garden,tomato,,90054,001,2022-04-24_03h40.10.563,SPAMnetsValid,2021.1.4,MacIntel,58.82352941,,,,,,,,,,,,,,,,,,,,,,,,,,,,,,,,,,,,,,,,,,,,,,,,,,,,,,,,,,,,,,,,,,,,,,,,,,,,,,,,,,,,,,,,,
,,4,5.485,4,5.485,0,25,25,43,1,185,cactus,rose,,90054,001,2022-04-24_03h40.10.563,SPAMnetsValid,2021.1.4,MacIntel,58.82352941,,,,,,,,,,,,,,,,,,,,,,,,,,,,,,,,,,,,,,,,,,,,,,,,,,,,,,,,,,,,,,,,,,,,,,,,,,,,,,,,,,,,,,,,,
,,1,2.59,1,2.59,0,26,26,64,1,157,refrigerator,rose,,90054,001,2022-04-24_03h40.10.563,SPAMnetsValid,2021.1.4,MacIntel,58.82352941,,,,,,,,,,,,,,,,,,,,,,,,,,,,,,,,,,,,,,,,,,,,,,,,,,,,,,,,,,,,,,,,,,,,,,,,,,,,,,,,,,,,,,,,,
,,8,2.927,8,2.927,0,27,27,44,1,116,cake,chocolate,,90054,001,2022-04-24_03h40.10.563,SPAMnetsValid,2021.1.4,MacIntel,58.82352941,,,,,,,,,,,,,,,,,,,,,,,,,,,,,,,,,,,,,,,,,,,,,,,,,,,,,,,,,,,,,,,,,,,,,,,,,,,,,,,,,,,,,,,,,
,,1,5.475,1,5.475,0,28,28,5,1,108,carrot,chocolate,,90054,001,2022-04-24_03h40.10.563,SPAMnetsValid,2021.1.4,MacIntel,58.82352941,,,,,,,,,,,,,,,,,,,,,,,,,,,,,,,,,,,,,,,,,,,,,,,,,,,,,,,,,,,,,,,,,,,,,,,,,,,,,,,,,,,,,,,,,
,,6,3.973,6,3.973,0,29,29,92,1,170,cookie,microwave,,90054,001,2022-04-24_03h40.10.563,SPAMnetsValid,2021.1.4,MacIntel,58.82352941,,,,,,,,,,,,,,,,,,,,,,,,,,,,,,,,,,,,,,,,,,,,,,,,,,,,,,,,,,,,,,,,,,,,,,,,,,,,,,,,,,,,,,,,,
,,1,2.513,1,2.513,0,30,30,84,1,130,microwave,yogurt,,90054,001,2022-04-24_03h40.10.563,SPAMnetsValid,2021.1.4,MacIntel,58.82352941,,,,,,,,,,,,,,,,,,,,,,,,,,,,,,,,,,,,,,,,,,,,,,,,,,,,,,,,,,,,,,,,,,,,,,,,,,,,,,,,,,,,,,,,,
,,6,2.164,6,2.164,0,31,31,87,1,114,cookie,strawberry,,90054,001,2022-04-24_03h40.10.563,SPAMnetsValid,2021.1.4,MacIntel,58.82352941,,,,,,,,,,,,,,,,,,,,,,,,,,,,,,,,,,,,,,,,,,,,,,,,,,,,,,,,,,,,,,,,,,,,,,,,,,,,,,,,,,,,,,,,,
,,6,3.349,6,3.349,0,32,32,48,1,186,kitchen,yogurt,,90054,001,2022-04-24_03h40.10.563,SPAMnetsValid,2021.1.4,MacIntel,58.82352941,,,,,,,,,,,,,,,,,,,,,,,,,,,,,,,,,,,,,,,,,,,,,,,,,,,,,,,,,,,,,,,,,,,,,,,,,,,,,,,,,,,,,,,,,
,,7,3.605,7,3.605,0,33,33,70,1,141,melon,tomato,,90054,001,2022-04-24_03h40.10.563,SPAMnetsValid,2021.1.4,MacIntel,58.82352941,,,,,,,,,,,,,,,,,,,,,,,,,,,,,,,,,,,,,,,,,,,,,,,,,,,,,,,,,,,,,,,,,,,,,,,,,,,,,,,,,,,,,,,,,
,,7,2.505,7,2.505,0,34,34,69,1,124,oven,refrigerator,,90054,001,2022-04-24_03h40.10.563,SPAMnetsValid,2021.1.4,MacIntel,58.82352941,,,,,,,,,,,,,,,,,,,,,,,,,,,,,,,,,,,,,,,,,,,,,,,,,,,,,,,,,,,,,,,,,,,,,,,,,,,,,,,,,,,,,,,,,
,,5,4.114,5,4.114,0,35,35,36,1,161,kitchen,pretzel,,90054,001,2022-04-24_03h40.10.563,SPAMnetsValid,2021.1.4,MacIntel,58.82352941,,,,,,,,,,,,,,,,,,,,,,,,,,,,,,,,,,,,,,,,,,,,,,,,,,,,,,,,,,,,,,,,,,,,,,,,,,,,,,,,,,,,,,,,,
,,9,4.919,9,4.919,0,36,36,61,1,138,flower,rose,,90054,001,2022-04-24_03h40.10.563,SPAMnetsValid,2021.1.4,MacIntel,58.82352941,,,,,,,,,,,,,,,,,,,,,,,,,,,,,,,,,,,,,,,,,,,,,,,,,,,,,,,,,,,,,,,,,,,,,,,,,,,,,,,,,,,,,,,,,
,,2,2.617,2,2.617,0,37,37,55,1,143,pretzel,rose,,90054,001,2022-04-24_03h40.10.563,SPAMnetsValid,2021.1.4,MacIntel,58.82352941,,,,,,,,,,,,,,,,,,,,,,,,,,,,,,,,,,,,,,,,,,,,,,,,,,,,,,,,,,,,,,,,,,,,,,,,,,,,,,,,,,,,,,,,,
,,9,1.857,9,1.857,0,38,38,86,1,193,melon,melon,CHECK,90054,001,2022-04-24_03h40.10.563,SPAMnetsValid,2021.1.4,MacIntel,58.82352941,,,,,,,,,,,,,,,,,,,,,,,,,,,,,,,,,,,,,,,,,,,,,,,,,,,,,,,,,,,,,,,,,,,,,,,,,,,,,,,,,,,,,,,,,
,,8,4.012,8,4.012,0,39,39,17,1,99,garden,melon,,90054,001,2022-04-24_03h40.10.563,SPAMnetsValid,2021.1.4,MacIntel,58.82352941,,,,,,,,,,,,,,,,,,,,,,,,,,,,,,,,,,,,,,,,,,,,,,,,,,,,,,,,,,,,,,,,,,,,,,,,,,,,,,,,,,,,,,,,,
,,1,2.625,1,2.625,0,40,40,74,1,128,melon,microwave,,90054,001,2022-04-24_03h40.10.563,SPAMnetsValid,2021.1.4,MacIntel,58.82352941,,,,,,,,,,,,,,,,,,,,,,,,,,,,,,,,,,,,,,,,,,,,,,,,,,,,,,,,,,,,,,,,,,,,,,,,,,,,,,,,,,,,,,,,,
,,6,2.293,6,2.293,0,41,41,11,1,117,melon,strawberry,,90054,001,2022-04-24_03h40.10.563,SPAMnetsValid,2021.1.4,MacIntel,58.82352941,,,,,,,,,,,,,,,,,,,,,,,,,,,,,,,,,,,,,,,,,,,,,,,,,,,,,,,,,,,,,,,,,,,,,,,,,,,,,,,,,,,,,,,,,
,,1,3.964,1,3.964,0,42,42,73,1,135,carrot,oven,,90054,001,2022-04-24_03h40.10.563,SPAMnetsValid,2021.1.4,MacIntel,58.82352941,,,,,,,,,,,,,,,,,,,,,,,,,,,,,,,,,,,,,,,,,,,,,,,,,,,,,,,,,,,,,,,,,,,,,,,,,,,,,,,,,,,,,,,,,
,,1,2.059,1,2.059,0,43,43,12,1,162,microwave,tomato,,90054,001,2022-04-24_03h40.10.563,SPAMnetsValid,2021.1.4,MacIntel,58.82352941,,,,,,,,,,,,,,,,,,,,,,,,,,,,,,,,,,,,,,,,,,,,,,,,,,,,,,,,,,,,,,,,,,,,,,,,,,,,,,,,,,,,,,,,,
,,1,2.994,1,2.994,0,44,44,91,1,166,cake,yogurt,,90054,001,2022-04-24_03h40.10.563,SPAMnetsValid,2021.1.4,MacIntel,58.82352941,,,,,,,,,,,,,,,,,,,,,,,,,,,,,,,,,,,,,,,,,,,,,,,,,,,,,,,,,,,,,,,,,,,,,,,,,,,,,,,,,,,,,,,,,
,,6,3.996,6,3.996,0,45,45,37,1,139,carrot,strawberry,,90054,001,2022-04-24_03h40.10.563,SPAMnetsValid,2021.1.4,MacIntel,58.82352941,,,,,,,,,,,,,,,,,,,,,,,,,,,,,,,,,,,,,,,,,,,,,,,,,,,,,,,,,,,,,,,,,,,,,,,,,,,,,,,,,,,,,,,,,
,,1,2.253,1,2.253,0,46,46,24,1,169,onion,yogurt,,90054,001,2022-04-24_03h40.10.563,SPAMnetsValid,2021.1.4,MacIntel,58.82352941,,,,,,,,,,,,,,,,,,,,,,,,,,,,,,,,,,,,,,,,,,,,,,,,,,,,,,,,,,,,,,,,,,,,,,,,,,,,,,,,,,,,,,,,,
,,1,1.904,1,1.904,0,47,47,40,1,165,onion,rose,,90054,001,2022-04-24_03h40.10.563,SPAMnetsValid,2021.1.4,MacIntel,58.82352941,,,,,,,,,,,,,,,,,,,,,,,,,,,,,,,,,,,,,,,,,,,,,,,,,,,,,,,,,,,,,,,,,,,,,,,,,,,,,,,,,,,,,,,,,
,,1,1.464,1,1.464,0,48,48,6,1,151,microwave,onion,,90054,001,2022-04-24_03h40.10.563,SPAMnetsValid,2021.1.4,MacIntel,58.82352941,,,,,,,,,,,,,,,,,,,,,,,,,,,,,,,,,,,,,,,,,,,,,,,,,,,,,,,,,,,,,,,,,,,,,,,,,,,,,,,,,,,,,,,,,
,,9,2.927,9,2.927,0,49,49,25,1,194,cactus,cactus,CHECK,90054,001,2022-04-24_03h40.10.563,SPAMnetsValid,2021.1.4,MacIntel,58.82352941,,,,,,,,,,,,,,,,,,,,,,,,,,,,,,,,,,,,,,,,,,,,,,,,,,,,,,,,,,,,,,,,,,,,,,,,,,,,,,,,,,,,,,,,,
,,3,3.121,3,3.121,0,50,50,78,1,132,broom,tree,,90054,001,2022-04-24_03h40.10.563,SPAMnetsValid,2021.1.4,MacIntel,58.82352941,,,,,,,,,,,,,,,,,,,,,,,,,,,,,,,,,,,,,,,,,,,,,,,,,,,,,,,,,,,,,,,,,,,,,,,,,,,,,,,,,,,,,,,,,
,,7,2.399,7,2.399,0,51,51,56,1,113,refrigerator,strawberry,,90054,001,2022-04-24_03h40.10.563,SPAMnetsValid,2021.1.4,MacIntel,58.82352941,,,,,,,,,,,,,,,,,,,,,,,,,,,,,,,,,,,,,,,,,,,,,,,,,,,,,,,,,,,,,,,,,,,,,,,,,,,,,,,,,,,,,,,,,
,,6,3.84,6,3.84,0,52,52,30,1,125,carrot,tree,,90054,001,2022-04-24_03h40.10.563,SPAMnetsValid,2021.1.4,MacIntel,58.82352941,,,,,,,,,,,,,,,,,,,,,,,,,,,,,,,,,,,,,,,,,,,,,,,,,,,,,,,,,,,,,,,,,,,,,,,,,,,,,,,,,,,,,,,,,
,,1,1.664,1,1.664,0,53,53,34,1,153,carrot,pretzel,,90054,001,2022-04-24_03h40.10.563,SPAMnetsValid,2021.1.4,MacIntel,58.82352941,,,,,,,,,,,,,,,,,,,,,,,,,,,,,,,,,,,,,,,,,,,,,,,,,,,,,,,,,,,,,,,,,,,,,,,,,,,,,,,,,,,,,,,,,
,,1,1.991,1,1.991,0,54,54,82,1,98,pretzel,strawberry,,90054,001,2022-04-24_03h40.10.563,SPAMnetsValid,2021.1.4,MacIntel,58.82352941,,,,,,,,,,,,,,,,,,,,,,,,,,,,,,,,,,,,,,,,,,,,,,,,,,,,,,,,,,,,,,,,,,,,,,,,,,,,,,,,,,,,,,,,,
,,6,2.095,6,2.095,0,55,55,51,1,168,cactus,flower,,90054,001,2022-04-24_03h40.10.563,SPAMnetsValid,2021.1.4,MacIntel,58.82352941,,,,,,,,,,,,,,,,,,,,,,,,,,,,,,,,,,,,,,,,,,,,,,,,,,,,,,,,,,,,,,,,,,,,,,,,,,,,,,,,,,,,,,,,,
,,1,2.199,1,2.199,0,56,56,58,1,144,cake,garden,,90054,001,2022-04-24_03h40.10.563,SPAMnetsValid,2021.1.4,MacIntel,58.82352941,,,,,,,,,,,,,,,,,,,,,,,,,,,,,,,,,,,,,,,,,,,,,,,,,,,,,,,,,,,,,,,,,,,,,,,,,,,,,,,,,,,,,,,,,
,,6,2.755,6,2.755,0,57,57,53,1,177,chocolate,strawberry,,90054,001,2022-04-24_03h40.10.563,SPAMnetsValid,2021.1.4,MacIntel,58.82352941,,,,,,,,,,,,,,,,,,,,,,,,,,,,,,,,,,,,,,,,,,,,,,,,,,,,,,,,,,,,,,,,,,,,,,,,,,,,,,,,,,,,,,,,,
,,8,2.733,8,2.733,0,58,58,14,1,120,microwave,oven,,90054,001,2022-04-24_03h40.10.563,SPAMnetsValid,2021.1.4,MacIntel,58.82352941,,,,,,,,,,,,,,,,,,,,,,,,,,,,,,,,,,,,,,,,,,,,,,,,,,,,,,,,,,,,,,,,,,,,,,,,,,,,,,,,,,,,,,,,,
,,7,2.852,7,2.852,0,59,59,7,1,188,flower,tree,,90054,001,2022-04-24_03h40.10.563,SPAMnetsValid,2021.1.4,MacIntel,58.82352941,,,,,,,,,,,,,,,,,,,,,,,,,,,,,,,,,,,,,,,,,,,,,,,,,,,,,,,,,,,,,,,,,,,,,,,,,,,,,,,,,,,,,,,,,
,,2,2.109,2,2.109,0,60,60,19,1,183,cake,rose,,90054,001,2022-04-24_03h40.10.563,SPAMnetsValid,2021.1.4,MacIntel,58.82352941,,,,,,,,,,,,,,,,,,,,,,,,,,,,,,,,,,,,,,,,,,,,,,,,,,,,,,,,,,,,,,,,,,,,,,,,,,,,,,,,,,,,,,,,,
,,7,3.923,7,3.923,0,61,61,42,1,184,oven,pretzel,,90054,001,2022-04-24_03h40.10.563,SPAMnetsValid,2021.1.4,MacIntel,58.82352941,,,,,,,,,,,,,,,,,,,,,,,,,,,,,,,,,,,,,,,,,,,,,,,,,,,,,,,,,,,,,,,,,,,,,,,,,,,,,,,,,,,,,,,,,
,,7,2.8,7,2.8,0,62,62,29,1,163,melon,refrigerator,,90054,001,2022-04-24_03h40.10.563,SPAMnetsValid,2021.1.4,MacIntel,58.82352941,,,,,,,,,,,,,,,,,,,,,,,,,,,,,,,,,,,,,,,,,,,,,,,,,,,,,,,,,,,,,,,,,,,,,,,,,,,,,,,,,,,,,,,,,
,,6,2.973,6,2.973,0,63,63,94,1,133,cake,flower,,90054,001,2022-04-24_03h40.10.563,SPAMnetsValid,2021.1.4,MacIntel,58.82352941,,,,,,,,,,,,,,,,,,,,,,,,,,,,,,,,,,,,,,,,,,,,,,,,,,,,,,,,,,,,,,,,,,,,,,,,,,,,,,,,,,,,,,,,,
,,5,3.191,5,3.191,0,64,64,23,1,148,flower,melon,,90054,001,2022-04-24_03h40.10.563,SPAMnetsValid,2021.1.4,MacIntel,58.82352941,,,,,,,,,,,,,,,,,,,,,,,,,,,,,,,,,,,,,,,,,,,,,,,,,,,,,,,,,,,,,,,,,,,,,,,,,,,,,,,,,,,,,,,,,
,,6,1.895,6,1.895,0,65,65,1,1,173,kitchen,tomato,,90054,001,2022-04-24_03h40.10.563,SPAMnetsValid,2021.1.4,MacIntel,58.82352941,,,,,,,,,,,,,,,,,,,,,,,,,,,,,,,,,,,,,,,,,,,,,,,,,,,,,,,,,,,,,,,,,,,,,,,,,,,,,,,,,,,,,,,,,
,,1,1.865,1,1.865,0,66,66,20,1,149,broom,tomato,,90054,001,2022-04-24_03h40.10.563,SPAMnetsValid,2021.1.4,MacIntel,58.82352941,,,,,,,,,,,,,,,,,,,,,,,,,,,,,,,,,,,,,,,,,,,,,,,,,,,,,,,,,,,,,,,,,,,,,,,,,,,,,,,,,,,,,,,,,
,,1,5.367,1,5.367,0,67,67,31,1,156,melon,rose,,90054,001,2022-04-24_03h40.10.563,SPAMnetsValid,2021.1.4,MacIntel,58.82352941,,,,,,,,,,,,,,,,,,,,,,,,,,,,,,,,,,,,,,,,,,,,,,,,,,,,,,,,,,,,,,,,,,,,,,,,,,,,,,,,,,,,,,,,,
,,8,2.525,8,2.525,0,68,68,47,1,167,carrot,garden,,90054,001,2022-04-24_03h40.10.563,SPAMnetsValid,2021.1.4,MacIntel,58.82352941,,,,,,,,,,,,,,,,,,,,,,,,,,,,,,,,,,,,,,,,,,,,,,,,,,,,,,,,,,,,,,,,,,,,,,,,,,,,,,,,,,,,,,,,,
,,1,2.018,1,2.018,0,69,69,95,1,121,broom,microwave,,90054,001,2022-04-24_03h40.10.563,SPAMnetsValid,2021.1.4,MacIntel,58.82352941,,,,,,,,,,,,,,,,,,,,,,,,,,,,,,,,,,,,,,,,,,,,,,,,,,,,,,,,,,,,,,,,,,,,,,,,,,,,,,,,,,,,,,,,,
,,1,1.668,1,1.668,0,70,70,68,1,180,tree,yogurt,,90054,001,2022-04-24_03h40.10.563,SPAMnetsValid,2021.1.4,MacIntel,58.82352941,,,,,,,,,,,,,,,,,,,,,,,,,,,,,,,,,,,,,,,,,,,,,,,,,,,,,,,,,,,,,,,,,,,,,,,,,,,,,,,,,,,,,,,,,
,,1,7.176,1,7.176,0,71,71,88,1,171,cake,tomato,,90054,001,2022-04-24_03h40.10.563,SPAMnetsValid,2021.1.4,MacIntel,58.82352941,,,,,,,,,,,,,,,,,,,,,,,,,,,,,,,,,,,,,,,,,,,,,,,,,,,,,,,,,,,,,,,,,,,,,,,,,,,,,,,,,,,,,,,,,
,,2,3.202,2,3.202,0,72,72,26,1,107,rose,tomato,,90054,001,2022-04-24_03h40.10.563,SPAMnetsValid,2021.1.4,MacIntel,58.82352941,,,,,,,,,,,,,,,,,,,,,,,,,,,,,,,,,,,,,,,,,,,,,,,,,,,,,,,,,,,,,,,,,,,,,,,,,,,,,,,,,,,,,,,,,
,,8,2.165,8,2.165,0,73,73,60,1,122,flower,garden,,90054,001,2022-04-24_03h40.10.563,SPAMnetsValid,2021.1.4,MacIntel,58.82352941,,,,,,,,,,,,,,,,,,,,,,,,,,,,,,,,,,,,,,,,,,,,,,,,,,,,,,,,,,,,,,,,,,,,,,,,,,,,,,,,,,,,,,,,,
,,6,1.991,6,1.991,0,74,74,9,1,176,cactus,tomato,,90054,001,2022-04-24_03h40.10.563,SPAMnetsValid,2021.1.4,MacIntel,58.82352941,,,,,,,,,,,,,,,,,,,,,,,,,,,,,,,,,,,,,,,,,,,,,,,,,,,,,,,,,,,,,,,,,,,,,,,,,,,,,,,,,,,,,,,,,
,,1,2.612,1,2.612,0,75,75,96,1,136,chocolate,microwave,,90054,001,2022-04-24_03h40.10.563,SPAMnetsValid,2021.1.4,MacIntel,58.82352941,,,,,,,,,,,,,,,,,,,,,,,,,,,,,,,,,,,,,,,,,,,,,,,,,,,,,,,,,,,,,,,,,,,,,,,,,,,,,,,,,,,,,,,,,
,,1,2.034,1,2.034,0,76,76,13,1,105,cactus,oven,,90054,001,2022-04-24_03h40.10.563,SPAMnetsValid,2021.1.4,MacIntel,58.82352941,,,,,,,,,,,,,,,,,,,,,,,,,,,,,,,,,,,,,,,,,,,,,,,,,,,,,,,,,,,,,,,,,,,,,,,,,,,,,,,,,,,,,,,,,
,,1,1.548,1,1.548,0,77,77,90,1,190,microwave,strawberry,,90054,001,2022-04-24_03h40.10.563,SPAMnetsValid,2021.1.4,MacIntel,58.82352941,,,,,,,,,,,,,,,,,,,,,,,,,,,,,,,,,,,,,,,,,,,,,,,,,,,,,,,,,,,,,,,,,,,,,,,,,,,,,,,,,,,,,,,,,
,,7,2.264,7,2.264,0,78,78,33,1,131,cactus,garden,,90054,001,2022-04-24_03h40.10.563,SPAMnetsValid,2021.1.4,MacIntel,58.82352941,,,,,,,,,,,,,,,,,,,,,,,,,,,,,,,,,,,,,,,,,,,,,,,,,,,,,,,,,,,,,,,,,,,,,,,,,,,,,,,,,,,,,,,,,
,,6,2.601,6,2.601,0,79,79,0,1,106,cake,strawberry,,90054,001,2022-04-24_03h40.10.563,SPAMnetsValid,2021.1.4,MacIntel,58.82352941,,,,,,,,,,,,,,,,,,,,,,,,,,,,,,,,,,,,,,,,,,,,,,,,,,,,,,,,,,,,,,,,,,,,,,,,,,,,,,,,,,,,,,,,,
,,1,1.775,1,1.775,0,80,80,41,1,175,melon,onion,,90054,001,2022-04-24_03h40.10.563,SPAMnetsValid,2021.1.4,MacIntel,58.82352941,,,,,,,,,,,,,,,,,,,,,,,,,,,,,,,,,,,,,,,,,,,,,,,,,,,,,,,,,,,,,,,,,,,,,,,,,,,,,,,,,,,,,,,,,
,,7,2.584,7,2.584,0,81,81,35,1,147,cake,refrigerator,,90054,001,2022-04-24_03h40.10.563,SPAMnetsValid,2021.1.4,MacIntel,58.82352941,,,,,,,,,,,,,,,,,,,,,,,,,,,,,,,,,,,,,,,,,,,,,,,,,,,,,,,,,,,,,,,,,,,,,,,,,,,,,,,,,,,,,,,,,
,,1,1.699,1,1.699,0,82,82,4,1,109,broom,strawberry,,90054,001,2022-04-24_03h40.10.563,SPAMnetsValid,2021.1.4,MacIntel,58.82352941,,,,,,,,,,,,,,,,,,,,,,,,,,,,,,,,,,,,,,,,,,,,,,,,,,,,,,,,,,,,,,,,,,,,,,,,,,,,,,,,,,,,,,,,,
,,6,2.255,6,2.255,0,83,83,72,1,181,carrot,kitchen,,90054,001,2022-04-24_03h40.10.563,SPAMnetsValid,2021.1.4,MacIntel,58.82352941,,,,,,,,,,,,,,,,,,,,,,,,,,,,,,,,,,,,,,,,,,,,,,,,,,,,,,,,,,,,,,,,,,,,,,,,,,,,,,,,,,,,,,,,,
,,6,1.625,6,1.625,0,84,84,8,1,97,chocolate,kitchen,,90054,001,2022-04-24_03h40.10.563,SPAMnetsValid,2021.1.4,MacIntel,58.82352941,,,,,,,,,,,,,,,,,,,,,,,,,,,,,,,,,,,,,,,,,,,,,,,,,,,,,,,,,,,,,,,,,,,,,,,,,,,,,,,,,,,,,,,,,
,,1,2.1,1,2.1,0,85,85,67,1,96,oven,strawberry,,90054,001,2022-04-24_03h40.10.563,SPAMnetsValid,2021.1.4,MacIntel,58.82352941,,,,,,,,,,,,,,,,,,,,,,,,,,,,,,,,,,,,,,,,,,,,,,,,,,,,,,,,,,,,,,,,,,,,,,,,,,,,,,,,,,,,,,,,,
,,1,2.458,1,2.458,0,86,86,50,1,126,kitchen,tree,,90054,001,2022-04-24_03h40.10.563,SPAMnetsValid,2021.1.4,MacIntel,58.82352941,,,,,,,,,,,,,,,,,,,,,,,,,,,,,,,,,,,,,,,,,,,,,,,,,,,,,,,,,,,,,,,,,,,,,,,,,,,,,,,,,,,,,,,,,
,,5,2.808,5,2.808,0,87,87,38,1,155,carrot,cookie,,90054,001,2022-04-24_03h40.10.563,SPAMnetsValid,2021.1.4,MacIntel,58.82352941,,,,,,,,,,,,,,,,,,,,,,,,,,,,,,,,,,,,,,,,,,,,,,,,,,,,,,,,,,,,,,,,,,,,,,,,,,,,,,,,,,,,,,,,,
,,1,3.034,1,3.034,0,88,88,59,1,164,cookie,garden,,90054,001,2022-04-24_03h40.10.563,SPAMnetsValid,2021.1.4,MacIntel,58.82352941,,,,,,,,,,,,,,,,,,,,,,,,,,,,,,,,,,,,,,,,,,,,,,,,,,,,,,,,,,,,,,,,,,,,,,,,,,,,,,,,,,,,,,,,,
,,8,2.142,8,2.142,0,89,89,66,1,150,microwave,refrigerator,,90054,001,2022-04-24_03h40.10.563,SPAMnetsValid,2021.1.4,MacIntel,58.82352941,,,,,,,,,,,,,,,,,,,,,,,,,,,,,,,,,,,,,,,,,,,,,,,,,,,,,,,,,,,,,,,,,,,,,,,,,,,,,,,,,,,,,,,,,
,,8,3.374,8,3.374,0,90,90,28,1,154,strawberry,yogurt,,90054,001,2022-04-24_03h40.10.563,SPAMnetsValid,2021.1.4,MacIntel,58.82352941,,,,,,,,,,,,,,,,,,,,,,,,,,,,,,,,,,,,,,,,,,,,,,,,,,,,,,,,,,,,,,,,,,,,,,,,,,,,,,,,,,,,,,,,,
,,6,3.361,6,3.361,0,91,91,77,1,172,kitchen,melon,,90054,001,2022-04-24_03h40.10.563,SPAMnetsValid,2021.1.4,MacIntel,58.82352941,,,,,,,,,,,,,,,,,,,,,,,,,,,,,,,,,,,,,,,,,,,,,,,,,,,,,,,,,,,,,,,,,,,,,,,,,,,,,,,,,,,,,,,,,
,,1,5.641,1,5.641,0,92,92,16,1,111,carrot,microwave,,90054,001,2022-04-24_03h40.10.563,SPAMnetsValid,2021.1.4,MacIntel,58.82352941,,,,,,,,,,,,,,,,,,,,,,,,,,,,,,,,,,,,,,,,,,,,,,,,,,,,,,,,,,,,,,,,,,,,,,,,,,,,,,,,,,,,,,,,,
,,1,1.794,1,1.794,0,93,93,81,1,104,garden,microwave,,90054,001,2022-04-24_03h40.10.563,SPAMnetsValid,2021.1.4,MacIntel,58.82352941,,,,,,,,,,,,,,,,,,,,,,,,,,,,,,,,,,,,,,,,,,,,,,,,,,,,,,,,,,,,,,,,,,,,,,,,,,,,,,,,,,,,,,,,,
,,2,4.235,2,4.235,0,94,94,46,1,123,cookie,tree,,90054,001,2022-04-24_03h40.10.563,SPAMnetsValid,2021.1.4,MacIntel,58.82352941,,,,,,,,,,,,,,,,,,,,,,,,,,,,,,,,,,,,,,,,,,,,,,,,,,,,,,,,,,,,,,,,,,,,,,,,,,,,,,,,,,,,,,,,,
,,1,3.909,1,3.909,0,95,95,15,1,145,cactus,yogurt,,90054,001,2022-04-24_03h40.10.563,SPAMnetsValid,2021.1.4,MacIntel,58.82352941,,,,,,,,,,,,,,,,,,,,,,,,,,,,,,,,,,,,,,,,,,,,,,,,,,,,,,,,,,,,,,,,,,,,,,,,,,,,,,,,,,,,,,,,,
,,1,1.73,1,1.73,0,96,96,3,1,129,cactus,refrigerator,,90054,001,2022-04-24_03h40.10.563,SPAMnetsValid,2021.1.4,MacIntel,58.82352941,,,,,,,,,,,,,,,,,,,,,,,,,,,,,,,,,,,,,,,,,,,,,,,,,,,,,,,,,,,,,,,,,,,,,,,,,,,,,,,,,,,,,,,,,
,,,,,,,,,,,,,,,90054,001,2022-04-24_03h40.10.563,SPAMnetsValid,2021.1.4,MacIntel,58.82352941,0,0,0,0,1,,,,,,,,,,,,,,,,,,,,,,,,,,,,,,,,,,,,,,,,,,,,,,,,,,,,,,,,,,,,,,,,,,,,,,,,,,,,,,,,,,,,
,,,,,,,,,,,,,,,90054,001,2022-04-24_03h40.10.563,SPAMnetsValid,2021.1.4,MacIntel,58.82352941,,,,,,0,0,0,1,1,0,1,,,,,,,,,,,,,,,,,,,,,,,,,,,,,,,,,,,,,,,,,,,,,,,,,,,,,,,,,,,,,,,,,,,,,,,,,,,,,
,,,,1,11.016,,,,,,86,oven,rose,,90054,001,2022-04-24_03h40.10.563,SPAMnetsValid,2021.1.4,MacIntel,58.82352941,,,,,,,,,,,,,1,11.016,0,0,0,79,1,,,,,,,,,,,,,,,,,,,,,,,,,,,,,,,,,,,,,,,,,,,,,,,,,,,,,,,,,,,,,,,,,,,,,,
,,,,1,2.633,,,,,,84,oven,tomato,,90054,001,2022-04-24_03h40.10.563,SPAMnetsValid,2021.1.4,MacIntel,58.82352941,,,,,,,,,,,,,1,2.633,0,1,1,28,1,,,,,,,,,,,,,,,,,,,,,,,,,,,,,,,,,,,,,,,,,,,,,,,,,,,,,,,,,,,,,,,,,,,,,,
,,,,1,1.444,,,,,,8,broom,melon,,90054,001,2022-04-24_03h40.10.563,SPAMnetsValid,2021.1.4,MacIntel,58.82352941,,,,,,,,,,,,,1,1.444,0,2,2,59,1,,,,,,,,,,,,,,,,,,,,,,,,,,,,,,,,,,,,,,,,,,,,,,,,,,,,,,,,,,,,,,,,,,,,,,
,,,,1,1.399,,,,,,51,onion,strawberry,,90054,001,2022-04-24_03h40.10.563,SPAMnetsValid,2021.1.4,MacIntel,58.82352941,,,,,,,,,,,,,1,1.399,0,3,3,86,1,,,,,,,,,,,,,,,,,,,,,,,,,,,,,,,,,,,,,,,,,,,,,,,,,,,,,,,,,,,,,,,,,,,,,,
,,,,6,2.74,,,,,,44,cookie,melon,,90054,001,2022-04-24_03h40.10.563,SPAMnetsValid,2021.1.4,MacIntel,58.82352941,,,,,,,,,,,,,6,2.74,0,4,4,92,1,,,,,,,,,,,,,,,,,,,,,,,,,,,,,,,,,,,,,,,,,,,,,,,,,,,,,,,,,,,,,,,,,,,,,,
,,,,1,3.06,,,,,,48,flower,oven,,90054,001,2022-04-24_03h40.10.563,SPAMnetsValid,2021.1.4,MacIntel,58.82352941,,,,,,,,,,,,,1,3.06,0,5,5,15,1,,,,,,,,,,,,,,,,,,,,,,,,,,,,,,,,,,,,,,,,,,,,,,,,,,,,,,,,,,,,,,,,,,,,,,
,,,,1,2.169,,,,,,71,broom,rose,,90054,001,2022-04-24_03h40.10.563,SPAMnetsValid,2021.1.4,MacIntel,58.82352941,,,,,,,,,,,,,1,2.169,0,6,6,61,1,,,,,,,,,,,,,,,,,,,,,,,,,,,,,,,,,,,,,,,,,,,,,,,,,,,,,,,,,,,,,,,,,,,,,,
,,,,1,1.652,,,,,,31,cactus,pretzel,,90054,001,2022-04-24_03h40.10.563,SPAMnetsValid,2021.1.4,MacIntel,58.82352941,,,,,,,,,,,,,1,1.652,0,7,7,1,1,,,,,,,,,,,,,,,,,,,,,,,,,,,,,,,,,,,,,,,,,,,,,,,,,,,,,,,,,,,,,,,,,,,,,,
,,,,1,1.865,,,,,,43,chocolate,tomato,,90054,001,2022-04-24_03h40.10.563,SPAMnetsValid,2021.1.4,MacIntel,58.82352941,,,,,,,,,,,,,1,1.865,0,8,8,8,1,,,,,,,,,,,,,,,,,,,,,,,,,,,,,,,,,,,,,,,,,,,,,,,,,,,,,,,,,,,,,,,,,,,,,,
,,,,6,2.323,,,,,,46,garden,yogurt,,90054,001,2022-04-24_03h40.10.563,SPAMnetsValid,2021.1.4,MacIntel,58.82352941,,,,,,,,,,,,,6,2.323,0,9,9,65,1,,,,,,,,,,,,,,,,,,,,,,,,,,,,,,,,,,,,,,,,,,,,,,,,,,,,,,,,,,,,,,,,,,,,,,
,,,,9,1.795,,,,,,192,microwave,microwave,CHECK,90054,001,2022-04-24_03h40.10.563,SPAMnetsValid,2021.1.4,MacIntel,58.82352941,,,,,,,,,,,,,9,1.795,0,10,10,53,1,,,,,,,,,,,,,,,,,,,,,,,,,,,,,,,,,,,,,,,,,,,,,,,,,,,,,,,,,,,,,,,,,,,,,,
,,,,8,5.352,,,,,,59,rose,strawberry,,90054,001,2022-04-24_03h40.10.563,SPAMnetsValid,2021.1.4,MacIntel,58.82352941,,,,,,,,,,,,,8,5.352,0,11,11,72,1,,,,,,,,,,,,,,,,,,,,,,,,,,,,,,,,,,,,,,,,,,,,,,,,,,,,,,,,,,,,,,,,,,,,,,
,,,,1,2.689,,,,,,42,garden,kitchen,,90054,001,2022-04-24_03h40.10.563,SPAMnetsValid,2021.1.4,MacIntel,58.82352941,,,,,,,,,,,,,1,2.689,0,12,12,29,1,,,,,,,,,,,,,,,,,,,,,,,,,,,,,,,,,,,,,,,,,,,,,,,,,,,,,,,,,,,,,,,,,,,,,,
,,,,1,1.831,,,,,,27,cactus,cookie,,90054,001,2022-04-24_03h40.10.563,SPAMnetsValid,2021.1.4,MacIntel,58.82352941,,,,,,,,,,,,,1,1.831,0,13,13,17,1,,,,,,,,,,,,,,,,,,,,,,,,,,,,,,,,,,,,,,,,,,,,,,,,,,,,,,,,,,,,,,,,,,,,,,
,,,,8,2.886,,,,,,93,kitchen,oven,,90054,001,2022-04-24_03h40.10.563,SPAMnetsValid,2021.1.4,MacIntel,58.82352941,,,,,,,,,,,,,8,2.886,0,14,14,82,1,,,,,,,,,,,,,,,,,,,,,,,,,,,,,,,,,,,,,,,,,,,,,,,,,,,,,,,,,,,,,,,,,,,,,,
,,,,1,2.227,,,,,,23,flower,microwave,,90054,001,2022-04-24_03h40.10.563,SPAMnetsValid,2021.1.4,MacIntel,58.82352941,,,,,,,,,,,,,1,2.227,0,15,15,25,1,,,,,,,,,,,,,,,,,,,,,,,,,,,,,,,,,,,,,,,,,,,,,,,,,,,,,,,,,,,,,,,,,,,,,,
,,,,6,4.004,,,,,,18,onion,refrigerator,,90054,001,2022-04-24_03h40.10.563,SPAMnetsValid,2021.1.4,MacIntel,58.82352941,,,,,,,,,,,,,6,4.004,0,16,16,62,1,,,,,,,,,,,,,,,,,,,,,,,,,,,,,,,,,,,,,,,,,,,,,,,,,,,,,,,,,,,,,,,,,,,,,,
,,,,8,2.374,,,,,,47,onion,tomato,,90054,001,2022-04-24_03h40.10.563,SPAMnetsValid,2021.1.4,MacIntel,58.82352941,,,,,,,,,,,,,8,2.374,0,17,17,51,1,,,,,,,,,,,,,,,,,,,,,,,,,,,,,,,,,,,,,,,,,,,,,,,,,,,,,,,,,,,,,,,,,,,,,,
,,,,5,2.735,,,,,,60,cactus,onion,,90054,001,2022-04-24_03h40.10.563,SPAMnetsValid,2021.1.4,MacIntel,58.82352941,,,,,,,,,,,,,5,2.735,0,18,18,81,1,,,,,,,,,,,,,,,,,,,,,,,,,,,,,,,,,,,,,,,,,,,,,,,,,,,,,,,,,,,,,,,,,,,,,,
,,,,1,2.081,,,,,,34,melon,oven,,90054,001,2022-04-24_03h40.10.563,SPAMnetsValid,2021.1.4,MacIntel,58.82352941,,,,,,,,,,,,,1,2.081,0,19,19,7,1,,,,,,,,,,,,,,,,,,,,,,,,,,,,,,,,,,,,,,,,,,,,,,,,,,,,,,,,,,,,,,,,,,,,,,
,,,,1,1.867,,,,,,90,cactus,cake,,90054,001,2022-04-24_03h40.10.563,SPAMnetsValid,2021.1.4,MacIntel,58.82352941,,,,,,,,,,,,,1,1.867,0,20,20,85,1,,,,,,,,,,,,,,,,,,,,,,,,,,,,,,,,,,,,,,,,,,,,,,,,,,,,,,,,,,,,,,,,,,,,,,
,,,,5,4.309,,,,,,61,strawberry,tomato,,90054,001,2022-04-24_03h40.10.563,SPAMnetsValid,2021.1.4,MacIntel,58.82352941,,,,,,,,,,,,,5,4.309,0,21,21,80,1,,,,,,,,,,,,,,,,,,,,,,,,,,,,,,,,,,,,,,,,,,,,,,,,,,,,,,,,,,,,,,,,,,,,,,
,,,,1,2.633,,,,,,83,broom,carrot,,90054,001,2022-04-24_03h40.10.563,SPAMnetsValid,2021.1.4,MacIntel,58.82352941,,,,,,,,,,,,,1,2.633,0,22,22,4,1,,,,,,,,,,,,,,,,,,,,,,,,,,,,,,,,,,,,,,,,,,,,,,,,,,,,,,,,,,,,,,,,,,,,,,
,,,,1,1.98,,,,,,73,broom,chocolate,,90054,001,2022-04-24_03h40.10.563,SPAMnetsValid,2021.1.4,MacIntel,58.82352941,,,,,,,,,,,,,1,1.98,0,23,23,47,1,,,,,,,,,,,,,,,,,,,,,,,,,,,,,,,,,,,,,,,,,,,,,,,,,,,,,,,,,,,,,,,,,,,,,,
,,,,1,2.753,,,,,,91,microwave,rose,,90054,001,2022-04-24_03h40.10.563,SPAMnetsValid,2021.1.4,MacIntel,58.82352941,,,,,,,,,,,,,1,2.753,0,24,24,84,1,,,,,,,,,,,,,,,,,,,,,,,,,,,,,,,,,,,,,,,,,,,,,,,,,,,,,,,,,,,,,,,,,,,,,,
,,,,1,1.499,,,,,,95,broom,refrigerator,,90054,001,2022-04-24_03h40.10.563,SPAMnetsValid,2021.1.4,MacIntel,58.82352941,,,,,,,,,,,,,1,1.499,0,25,25,90,1,,,,,,,,,,,,,,,,,,,,,,,,,,,,,,,,,,,,,,,,,,,,,,,,,,,,,,,,,,,,,,,,,,,,,,
,,,,6,3.286,,,,,,56,cactus,tree,,90054,001,2022-04-24_03h40.10.563,SPAMnetsValid,2021.1.4,MacIntel,58.82352941,,,,,,,,,,,,,6,3.286,0,26,26,21,1,,,,,,,,,,,,,,,,,,,,,,,,,,,,,,,,,,,,,,,,,,,,,,,,,,,,,,,,,,,,,,,,,,,,,,
,,,,1,3.23,,,,,,92,broom,flower,,90054,001,2022-04-24_03h40.10.563,SPAMnetsValid,2021.1.4,MacIntel,58.82352941,,,,,,,,,,,,,1,3.23,0,27,27,88,1,,,,,,,,,,,,,,,,,,,,,,,,,,,,,,,,,,,,,,,,,,,,,,,,,,,,,,,,,,,,,,,,,,,,,,
,,,,8,2.314,,,,,,63,cake,cookie,,90054,001,2022-04-24_03h40.10.563,SPAMnetsValid,2021.1.4,MacIntel,58.82352941,,,,,,,,,,,,,8,2.314,0,28,28,93,1,,,,,,,,,,,,,,,,,,,,,,,,,,,,,,,,,,,,,,,,,,,,,,,,,,,,,,,,,,,,,,,,,,,,,,
,,,,1,3.815,,,,,,5,oven,tree,,90054,001,2022-04-24_03h40.10.563,SPAMnetsValid,2021.1.4,MacIntel,58.82352941,,,,,,,,,,,,,1,3.815,0,29,29,70,1,,,,,,,,,,,,,,,,,,,,,,,,,,,,,,,,,,,,,,,,,,,,,,,,,,,,,,,,,,,,,,,,,,,,,,
,,,,1,2.662,,,,,,11,refrigerator,tree,,90054,001,2022-04-24_03h40.10.563,SPAMnetsValid,2021.1.4,MacIntel,58.82352941,,,,,,,,,,,,,1,2.662,0,30,30,43,1,,,,,,,,,,,,,,,,,,,,,,,,,,,,,,,,,,,,,,,,,,,,,,,,,,,,,,,,,,,,,,,,,,,,,,
,,,,8,1.736,,,,,,76,garden,rose,,90054,001,2022-04-24_03h40.10.563,SPAMnetsValid,2021.1.4,MacIntel,58.82352941,,,,,,,,,,,,,8,1.736,0,31,31,19,1,,,,,,,,,,,,,,,,,,,,,,,,,,,,,,,,,,,,,,,,,,,,,,,,,,,,,,,,,,,,,,,,,,,,,,
,,,,7,4.048,,,,,,82,cake,kitchen,,90054,001,2022-04-24_03h40.10.563,SPAMnetsValid,2021.1.4,MacIntel,58.82352941,,,,,,,,,,,,,7,4.048,0,32,32,96,1,,,,,,,,,,,,,,,,,,,,,,,,,,,,,,,,,,,,,,,,,,,,,,,,,,,,,,,,,,,,,,,,,,,,,,
,,,,1,1.96,,,,,,14,broom,cookie,,90054,001,2022-04-24_03h40.10.563,SPAMnetsValid,2021.1.4,MacIntel,58.82352941,,,,,,,,,,,,,1,1.96,0,33,33,16,1,,,,,,,,,,,,,,,,,,,,,,,,,,,,,,,,,,,,,,,,,,,,,,,,,,,,,,,,,,,,,,,,,,,,,,
,,,,1,1.888,,,,,,53,garden,pretzel,,90054,001,2022-04-24_03h40.10.563,SPAMnetsValid,2021.1.4,MacIntel,58.82352941,,,,,,,,,,,,,1,1.888,0,34,34,0,1,,,,,,,,,,,,,,,,,,,,,,,,,,,,,,,,,,,,,,,,,,,,,,,,,,,,,,,,,,,,,,,,,,,,,,
,,,,8,1.838,,,,,,77,refrigerator,yogurt,,90054,001,2022-04-24_03h40.10.563,SPAMnetsValid,2021.1.4,MacIntel,58.82352941,,,,,,,,,,,,,8,1.838,0,35,35,42,1,,,,,,,,,,,,,,,,,,,,,,,,,,,,,,,,,,,,,,,,,,,,,,,,,,,,,,,,,,,,,,,,,,,,,,
,,,,4,5.359,,,,,,68,flower,tomato,,90054,001,2022-04-24_03h40.10.563,SPAMnetsValid,2021.1.4,MacIntel,58.82352941,,,,,,,,,,,,,4,5.359,0,36,36,94,1,,,,,,,,,,,,,,,,,,,,,,,,,,,,,,,,,,,,,,,,,,,,,,,,,,,,,,,,,,,,,,,,,,,,,,
,,,,1,3.062,,,,,,74,broom,pretzel,,90054,001,2022-04-24_03h40.10.563,SPAMnetsValid,2021.1.4,MacIntel,58.82352941,,,,,,,,,,,,,1,3.062,0,37,37,40,1,,,,,,,,,,,,,,,,,,,,,,,,,,,,,,,,,,,,,,,,,,,,,,,,,,,,,,,,,,,,,,,,,,,,,,
,,,,7,5.96,,,,,,6,garden,onion,,90054,001,2022-04-24_03h40.10.563,SPAMnetsValid,2021.1.4,MacIntel,58.82352941,,,,,,,,,,,,,7,5.96,0,38,38,83,1,,,,,,,,,,,,,,,,,,,,,,,,,,,,,,,,,,,,,,,,,,,,,,,,,,,,,,,,,,,,,,,,,,,,,,
,,,,1,1.578,,,,,,58,garden,oven,,90054,001,2022-04-24_03h40.10.563,SPAMnetsValid,2021.1.4,MacIntel,58.82352941,,,,,,,,,,,,,1,1.578,0,39,39,37,1,,,,,,,,,,,,,,,,,,,,,,,,,,,,,,,,,,,,,,,,,,,,,,,,,,,,,,,,,,,,,,,,,,,,,,
,,,,8,1.725,,,,,,79,garden,strawberry,,90054,001,2022-04-24_03h40.10.563,SPAMnetsValid,2021.1.4,MacIntel,58.82352941,,,,,,,,,,,,,8,1.725,0,40,40,87,1,,,,,,,,,,,,,,,,,,,,,,,,,,,,,,,,,,,,,,,,,,,,,,,,,,,,,,,,,,,,,,,,,,,,,,
,,,,9,2.464,,,,,,191,cake,cake,CHECK,90054,001,2022-04-24_03h40.10.563,SPAMnetsValid,2021.1.4,MacIntel,58.82352941,,,,,,,,,,,,,9,2.464,0,41,41,10,1,,,,,,,,,,,,,,,,,,,,,,,,,,,,,,,,,,,,,,,,,,,,,,,,,,,,,,,,,,,,,,,,,,,,,,
,,,,7,2.078,,,,,,20,rose,tree,,90054,001,2022-04-24_03h40.10.563,SPAMnetsValid,2021.1.4,MacIntel,58.82352941,,,,,,,,,,,,,7,2.078,0,42,42,66,1,,,,,,,,,,,,,,,,,,,,,,,,,,,,,,,,,,,,,,,,,,,,,,,,,,,,,,,,,,,,,,,,,,,,,,
,,,,7,2.789,,,,,,2,kitchen,onion,,90054,001,2022-04-24_03h40.10.563,SPAMnetsValid,2021.1.4,MacIntel,58.82352941,,,,,,,,,,,,,7,2.789,0,43,43,91,1,,,,,,,,,,,,,,,,,,,,,,,,,,,,,,,,,,,,,,,,,,,,,,,,,,,,,,,,,,,,,,,,,,,,,,
,,,,6,6.224,,,,,,4,chocolate,pretzel,,90054,001,2022-04-24_03h40.10.563,SPAMnetsValid,2021.1.4,MacIntel,58.82352941,,,,,,,,,,,,,6,6.224,0,44,44,52,1,,,,,,,,,,,,,,,,,,,,,,,,,,,,,,,,,,,,,,,,,,,,,,,,,,,,,,,,,,,,,,,,,,,,,,
,,,,7,2.037,,,,,,22,kitchen,strawberry,,90054,001,2022-04-24_03h40.10.563,SPAMnetsValid,2021.1.4,MacIntel,58.82352941,,,,,,,,,,,,,7,2.037,0,45,45,2,1,,,,,,,,,,,,,,,,,,,,,,,,,,,,,,,,,,,,,,,,,,,,,,,,,,,,,,,,,,,,,,,,,,,,,,
,,,,7,1.93,,,,,,28,cake,melon,,90054,001,2022-04-24_03h40.10.563,SPAMnetsValid,2021.1.4,MacIntel,58.82352941,,,,,,,,,,,,,7,1.93,0,46,46,54,1,,,,,,,,,,,,,,,,,,,,,,,,,,,,,,,,,,,,,,,,,,,,,,,,,,,,,,,,,,,,,,,,,,,,,,
,,,,6,4.399,,,,,,19,microwave,pretzel,,90054,001,2022-04-24_03h40.10.563,SPAMnetsValid,2021.1.4,MacIntel,58.82352941,,,,,,,,,,,,,6,4.399,0,47,47,41,1,,,,,,,,,,,,,,,,,,,,,,,,,,,,,,,,,,,,,,,,,,,,,,,,,,,,,,,,,,,,,,,,,,,,,,
,,,,1,2.688,,,,,,37,garden,refrigerator,,90054,001,2022-04-24_03h40.10.563,SPAMnetsValid,2021.1.4,MacIntel,58.82352941,,,,,,,,,,,,,1,2.688,0,48,48,11,1,,,,,,,,,,,,,,,,,,,,,,,,,,,,,,,,,,,,,,,,,,,,,,,,,,,,,,,,,,,,,,,,,,,,,,
,,,,1,3.321,,,,,,72,broom,onion,,90054,001,2022-04-24_03h40.10.563,SPAMnetsValid,2021.1.4,MacIntel,58.82352941,,,,,,,,,,,,,1,3.321,0,49,49,27,1,,,,,,,,,,,,,,,,,,,,,,,,,,,,,,,,,,,,,,,,,,,,,,,,,,,,,,,,,,,,,,,,,,,,,,
,,,,8,1.721,,,,,,94,kitchen,microwave,,90054,001,2022-04-24_03h40.10.563,SPAMnetsValid,2021.1.4,MacIntel,58.82352941,,,,,,,,,,,,,8,1.721,0,50,50,58,1,,,,,,,,,,,,,,,,,,,,,,,,,,,,,,,,,,,,,,,,,,,,,,,,,,,,,,,,,,,,,,,,,,,,,,
,,,,6,3.283,,,,,,69,carrot,refrigerator,,90054,001,2022-04-24_03h40.10.563,SPAMnetsValid,2021.1.4,MacIntel,58.82352941,,,,,,,,,,,,,6,3.283,0,51,51,75,1,,,,,,,,,,,,,,,,,,,,,,,,,,,,,,,,,,,,,,,,,,,,,,,,,,,,,,,,,,,,,,,,,,,,,,
,,,,1,2.482,,,,,,87,carrot,yogurt,,90054,001,2022-04-24_03h40.10.563,SPAMnetsValid,2021.1.4,MacIntel,58.82352941,,,,,,,,,,,,,1,2.482,0,52,52,6,1,,,,,,,,,,,,,,,,,,,,,,,,,,,,,,,,,,,,,,,,,,,,,,,,,,,,,,,,,,,,,,,,,,,,,,
,,,,1,3.111,,,,,,15,onion,oven,,90054,001,2022-04-24_03h40.10.563,SPAMnetsValid,2021.1.4,MacIntel,58.82352941,,,,,,,,,,,,,1,3.111,0,53,53,39,1,,,,,,,,,,,,,,,,,,,,,,,,,,,,,,,,,,,,,,,,,,,,,,,,,,,,,,,,,,,,,,,,,,,,,,
,,,,1,11.6,,,,,,16,chocolate,flower,,90054,001,2022-04-24_03h40.10.563,SPAMnetsValid,2021.1.4,MacIntel,58.82352941,,,,,,,,,,,,,1,11.6,0,54,54,22,1,,,,,,,,,,,,,,,,,,,,,,,,,,,,,,,,,,,,,,,,,,,,,,,,,,,,,,,,,,,,,,,,,,,,,,
,,,,1,2.193,,,,,,24,cookie,tomato,,90054,001,2022-04-24_03h40.10.563,SPAMnetsValid,2021.1.4,MacIntel,58.82352941,,,,,,,,,,,,,1,2.193,0,55,55,68,1,,,,,,,,,,,,,,,,,,,,,,,,,,,,,,,,,,,,,,,,,,,,,,,,,,,,,,,,,,,,,,,,,,,,,,
,,,,1,1.992,,,,,,45,onion,pretzel,,90054,001,2022-04-24_03h40.10.563,SPAMnetsValid,2021.1.4,MacIntel,58.82352941,,,,,,,,,,,,,1,1.992,0,56,56,69,1,,,,,,,,,,,,,,,,,,,,,,,,,,,,,,,,,,,,,,,,,,,,,,,,,,,,,,,,,,,,,,,,,,,,,,
,,,,8,2.519,,,,,,9,kitchen,refrigerator,,90054,001,2022-04-24_03h40.10.563,SPAMnetsValid,2021.1.4,MacIntel,58.82352941,,,,,,,,,,,,,8,2.519,0,57,57,64,1,,,,,,,,,,,,,,,,,,,,,,,,,,,,,,,,,,,,,,,,,,,,,,,,,,,,,,,,,,,,,,,,,,,,,,
,,,,1,2.563,,,,,,13,broom,yogurt,,90054,001,2022-04-24_03h40.10.563,SPAMnetsValid,2021.1.4,MacIntel,58.82352941,,,,,,,,,,,,,1,2.563,0,58,58,5,1,,,,,,,,,,,,,,,,,,,,,,,,,,,,,,,,,,,,,,,,,,,,,,,,,,,,,,,,,,,,,,,,,,,,,,
,,,,1,1.662,,,,,,17,carrot,melon,,90054,001,2022-04-24_03h40.10.563,SPAMnetsValid,2021.1.4,MacIntel,58.82352941,,,,,,,,,,,,,1,1.662,0,59,59,24,1,,,,,,,,,,,,,,,,,,,,,,,,,,,,,,,,,,,,,,,,,,,,,,,,,,,,,,,,,,,,,,,,,,,,,,
,,,,1,4.183,,,,,,38,pretzel,refrigerator,,90054,001,2022-04-24_03h40.10.563,SPAMnetsValid,2021.1.4,MacIntel,58.82352941,,,,,,,,,,,,,1,4.183,0,60,60,71,1,,,,,,,,,,,,,,,,,,,,,,,,,,,,,,,,,,,,,,,,,,,,,,,,,,,,,,,,,,,,,,,,,,,,,,
,,,,4,3.824,,,,,,32,cake,microwave,,90054,001,2022-04-24_03h40.10.563,SPAMnetsValid,2021.1.4,MacIntel,58.82352941,,,,,,,,,,,,,4,3.824,0,61,61,33,1,,,,,,,,,,,,,,,,,,,,,,,,,,,,,,,,,,,,,,,,,,,,,,,,,,,,,,,,,,,,,,,,,,,,,,
,,,,8,2.558,,,,,,49,flower,strawberry,,90054,001,2022-04-24_03h40.10.563,SPAMnetsValid,2021.1.4,MacIntel,58.82352941,,,,,,,,,,,,,8,2.558,0,62,62,3,1,,,,,,,,,,,,,,,,,,,,,,,,,,,,,,,,,,,,,,,,,,,,,,,,,,,,,,,,,,,,,,,,,,,,,,
,,,,4,2.347,,,,,,78,cookie,rose,,90054,001,2022-04-24_03h40.10.563,SPAMnetsValid,2021.1.4,MacIntel,58.82352941,,,,,,,,,,,,,4,2.347,0,63,63,56,1,,,,,,,,,,,,,,,,,,,,,,,,,,,,,,,,,,,,,,,,,,,,,,,,,,,,,,,,,,,,,,,,,,,,,,
,,,,8,3.7,,,,,,30,cookie,pretzel,,90054,001,2022-04-24_03h40.10.563,SPAMnetsValid,2021.1.4,MacIntel,58.82352941,,,,,,,,,,,,,8,3.7,0,64,64,78,1,,,,,,,,,,,,,,,,,,,,,,,,,,,,,,,,,,,,,,,,,,,,,,,,,,,,,,,,,,,,,,,,,,,,,,
,,,,3,1.864,,,,,,1,rose,yogurt,,90054,001,2022-04-24_03h40.10.563,SPAMnetsValid,2021.1.4,MacIntel,58.82352941,,,,,,,,,,,,,3,1.864,0,65,65,55,1,,,,,,,,,,,,,,,,,,,,,,,,,,,,,,,,,,,,,,,,,,,,,,,,,,,,,,,,,,,,,,,,,,,,,,
,,,,1,1.915,,,,,,36,broom,kitchen,,90054,001,2022-04-24_03h40.10.563,SPAMnetsValid,2021.1.4,MacIntel,58.82352941,,,,,,,,,,,,,1,1.915,0,66,66,76,1,,,,,,,,,,,,,,,,,,,,,,,,,,,,,,,,,,,,,,,,,,,,,,,,,,,,,,,,,,,,,,,,,,,,,,
,,,,1,1.778,,,,,,65,broom,garden,,90054,001,2022-04-24_03h40.10.563,SPAMnetsValid,2021.1.4,MacIntel,58.82352941,,,,,,,,,,,,,1,1.778,0,67,67,23,1,,,,,,,,,,,,,,,,,,,,,,,,,,,,,,,,,,,,,,,,,,,,,,,,,,,,,,,,,,,,,,,,,,,,,,
,,,,1,2.764,,,,,,62,kitchen,rose,,90054,001,2022-04-24_03h40.10.563,SPAMnetsValid,2021.1.4,MacIntel,58.82352941,,,,,,,,,,,,,1,2.764,0,68,68,57,1,,,,,,,,,,,,,,,,,,,,,,,,,,,,,,,,,,,,,,,,,,,,,,,,,,,,,,,,,,,,,,,,,,,,,,
,,,,1,2.476,,,,,,41,broom,cactus,,90054,001,2022-04-24_03h40.10.563,SPAMnetsValid,2021.1.4,MacIntel,58.82352941,,,,,,,,,,,,,1,2.476,0,69,69,46,1,,,,,,,,,,,,,,,,,,,,,,,,,,,,,,,,,,,,,,,,,,,,,,,,,,,,,,,,,,,,,,,,,,,,,,
,,,,1,1.505,,,,,,10,flower,onion,,90054,001,2022-04-24_03h40.10.563,SPAMnetsValid,2021.1.4,MacIntel,58.82352941,,,,,,,,,,,,,1,1.505,0,70,70,45,1,,,,,,,,,,,,,,,,,,,,,,,,,,,,,,,,,,,,,,,,,,,,,,,,,,,,,,,,,,,,,,,,,,,,,,
,,,,1,1.539,,,,,,21,cake,onion,,90054,001,2022-04-24_03h40.10.563,SPAMnetsValid,2021.1.4,MacIntel,58.82352941,,,,,,,,,,,,,1,1.539,0,71,71,63,1,,,,,,,,,,,,,,,,,,,,,,,,,,,,,,,,,,,,,,,,,,,,,,,,,,,,,,,,,,,,,,,,,,,,,,
,,,,6,3.961,,,,,,66,melon,yogurt,,90054,001,2022-04-24_03h40.10.563,SPAMnetsValid,2021.1.4,MacIntel,58.82352941,,,,,,,,,,,,,6,3.961,0,72,72,48,1,,,,,,,,,,,,,,,,,,,,,,,,,,,,,,,,,,,,,,,,,,,,,,,,,,,,,,,,,,,,,,,,,,,,,,
,,,,4,2.594,,,,,,7,melon,tree,,90054,001,2022-04-24_03h40.10.563,SPAMnetsValid,2021.1.4,MacIntel,58.82352941,,,,,,,,,,,,,4,2.594,0,73,73,77,1,,,,,,,,,,,,,,,,,,,,,,,,,,,,,,,,,,,,,,,,,,,,,,,,,,,,,,,,,,,,,,,,,,,,,,
,,,,1,2.162,,,,,,33,oven,yogurt,,90054,001,2022-04-24_03h40.10.563,SPAMnetsValid,2021.1.4,MacIntel,58.82352941,,,,,,,,,,,,,1,2.162,0,74,74,31,1,,,,,,,,,,,,,,,,,,,,,,,,,,,,,,,,,,,,,,,,,,,,,,,,,,,,,,,,,,,,,,,,,,,,,,
,,,,1,1.919,,,,,,81,pretzel,yogurt,,90054,001,2022-04-24_03h40.10.563,SPAMnetsValid,2021.1.4,MacIntel,58.82352941,,,,,,,,,,,,,1,1.919,0,75,75,50,1,,,,,,,,,,,,,,,,,,,,,,,,,,,,,,,,,,,,,,,,,,,,,,,,,,,,,,,,,,,,,,,,,,,,,,
,,,,2,2.447,,,,,,89,chocolate,rose,,90054,001,2022-04-24_03h40.10.563,SPAMnetsValid,2021.1.4,MacIntel,58.82352941,,,,,,,,,,,,,2,2.447,0,76,76,60,1,,,,,,,,,,,,,,,,,,,,,,,,,,,,,,,,,,,,,,,,,,,,,,,,,,,,,,,,,,,,,,,,,,,,,,
,,,,1,1.67,,,,,,40,broom,cake,,90054,001,2022-04-24_03h40.10.563,SPAMnetsValid,2021.1.4,MacIntel,58.82352941,,,,,,,,,,,,,1,1.67,0,77,77,32,1,,,,,,,,,,,,,,,,,,,,,,,,,,,,,,,,,,,,,,,,,,,,,,,,,,,,,,,,,,,,,,,,,,,,,,
,,,,7,3.432,,,,,,12,cookie,yogurt,,90054,001,2022-04-24_03h40.10.563,SPAMnetsValid,2021.1.4,MacIntel,58.82352941,,,,,,,,,,,,,7,3.432,0,78,78,36,1,,,,,,,,,,,,,,,,,,,,,,,,,,,,,,,,,,,,,,,,,,,,,,,,,,,,,,,,,,,,,,,,,,,,,,
,,,,1,4.256,,,,,,67,flower,yogurt,,90054,001,2022-04-24_03h40.10.563,SPAMnetsValid,2021.1.4,MacIntel,58.82352941,,,,,,,,,,,,,1,4.256,0,79,79,12,1,,,,,,,,,,,,,,,,,,,,,,,,,,,,,,,,,,,,,,,,,,,,,,,,,,,,,,,,,,,,,,,,,,,,,,
,,,,1,2.17,,,,,,26,tomato,yogurt,,90054,001,2022-04-24_03h40.10.563,SPAMnetsValid,2021.1.4,MacIntel,58.82352941,,,,,,,,,,,,,1,2.17,0,80,80,13,1,,,,,,,,,,,,,,,,,,,,,,,,,,,,,,,,,,,,,,,,,,,,,,,,,,,,,,,,,,,,,,,,,,,,,,
,,,,1,1.723,,,,,,75,cookie,onion,,90054,001,2022-04-24_03h40.10.563,SPAMnetsValid,2021.1.4,MacIntel,58.82352941,,,,,,,,,,,,,1,1.723,0,81,81,9,1,,,,,,,,,,,,,,,,,,,,,,,,,,,,,,,,,,,,,,,,,,,,,,,,,,,,,,,,,,,,,,,,,,,,,,
,,,,8,2.401,,,,,,25,carrot,onion,,90054,001,2022-04-24_03h40.10.563,SPAMnetsValid,2021.1.4,MacIntel,58.82352941,,,,,,,,,,,,,8,2.401,0,82,82,44,1,,,,,,,,,,,,,,,,,,,,,,,,,,,,,,,,,,,,,,,,,,,,,,,,,,,,,,,,,,,,,,,,,,,,,,
,,,,8,2.182,,,,,,52,carrot,tomato,,90054,001,2022-04-24_03h40.10.563,SPAMnetsValid,2021.1.4,MacIntel,58.82352941,,,,,,,,,,,,,8,2.182,0,83,83,95,1,,,,,,,,,,,,,,,,,,,,,,,,,,,,,,,,,,,,,,,,,,,,,,,,,,,,,,,,,,,,,,,,,,,,,,
,,,,1,3.971,,,,,,64,chocolate,garden,,90054,001,2022-04-24_03h40.10.563,SPAMnetsValid,2021.1.4,MacIntel,58.82352941,,,,,,,,,,,,,1,3.971,0,84,84,14,1,,,,,,,,,,,,,,,,,,,,,,,,,,,,,,,,,,,,,,,,,,,,,,,,,,,,,,,,,,,,,,,,,,,,,,
,,,,1,2.195,,,,,,85,cake,tree,,90054,001,2022-04-24_03h40.10.563,SPAMnetsValid,2021.1.4,MacIntel,58.82352941,,,,,,,,,,,,,1,2.195,0,85,85,18,1,,,,,,,,,,,,,,,,,,,,,,,,,,,,,,,,,,,,,,,,,,,,,,,,,,,,,,,,,,,,,,,,,,,,,,
,,,,7,2.049,,,,,,55,tomato,tree,,90054,001,2022-04-24_03h40.10.563,SPAMnetsValid,2021.1.4,MacIntel,58.82352941,,,,,,,,,,,,,7,2.049,0,86,86,35,1,,,,,,,,,,,,,,,,,,,,,,,,,,,,,,,,,,,,,,,,,,,,,,,,,,,,,,,,,,,,,,,,,,,,,,
,,,,6,2.533,,,,,,35,flower,pretzel,,90054,001,2022-04-24_03h40.10.563,SPAMnetsValid,2021.1.4,MacIntel,58.82352941,,,,,,,,,,,,,6,2.533,0,87,87,26,1,,,,,,,,,,,,,,,,,,,,,,,,,,,,,,,,,,,,,,,,,,,,,,,,,,,,,,,,,,,,,,,,,,,,,,
,,,,3,2.508,,,,,,88,cactus,melon,,90054,001,2022-04-24_03h40.10.563,SPAMnetsValid,2021.1.4,MacIntel,58.82352941,,,,,,,,,,,,,3,2.508,0,88,88,38,1,,,,,,,,,,,,,,,,,,,,,,,,,,,,,,,,,,,,,,,,,,,,,,,,,,,,,,,,,,,,,,,,,,,,,,
,,,,3,2.572,,,,,,57,flower,kitchen,,90054,001,2022-04-24_03h40.10.563,SPAMnetsValid,2021.1.4,MacIntel,58.82352941,,,,,,,,,,,,,3,2.572,0,89,89,49,1,,,,,,,,,,,,,,,,,,,,,,,,,,,,,,,,,,,,,,,,,,,,,,,,,,,,,,,,,,,,,,,,,,,,,,
,,,,1,4.484,,,,,,39,melon,pretzel,,90054,001,2022-04-24_03h40.10.563,SPAMnetsValid,2021.1.4,MacIntel,58.82352941,,,,,,,,,,,,,1,4.484,0,90,90,20,1,,,,,,,,,,,,,,,,,,,,,,,,,,,,,,,,,,,,,,,,,,,,,,,,,,,,,,,,,,,,,,,,,,,,,,
,,,,7,2.047,,,,,,54,chocolate,yogurt,,90054,001,2022-04-24_03h40.10.563,SPAMnetsValid,2021.1.4,MacIntel,58.82352941,,,,,,,,,,,,,7,2.047,0,91,91,67,1,,,,,,,,,,,,,,,,,,,,,,,,,,,,,,,,,,,,,,,,,,,,,,,,,,,,,,,,,,,,,,,,,,,,,,
,,,,3,3.854,,,,,,29,chocolate,melon,,90054,001,2022-04-24_03h40.10.563,SPAMnetsValid,2021.1.4,MacIntel,58.82352941,,,,,,,,,,,,,3,3.854,0,92,92,34,1,,,,,,,,,,,,,,,,,,,,,,,,,,,,,,,,,,,,,,,,,,,,,,,,,,,,,,,,,,,,,,,,,,,,,,
,,,,1,1.813,,,,,,70,chocolate,onion,,90054,001,2022-04-24_03h40.10.563,SPAMnetsValid,2021.1.4,MacIntel,58.82352941,,,,,,,,,,,,,1,1.813,0,93,93,74,1,,,,,,,,,,,,,,,,,,,,,,,,,,,,,,,,,,,,,,,,,,,,,,,,,,,,,,,,,,,,,,,,,,,,,,
,,,,7,3.382,,,,,,80,chocolate,tree,,90054,001,2022-04-24_03h40.10.563,SPAMnetsValid,2021.1.4,MacIntel,58.82352941,,,,,,,,,,,,,7,3.382,0,94,94,89,1,,,,,,,,,,,,,,,,,,,,,,,,,,,,,,,,,,,,,,,,,,,,,,,,,,,,,,,,,,,,,,,,,,,,,,
,,,,2,2.949,,,,,,50,carrot,rose,,90054,001,2022-04-24_03h40.10.563,SPAMnetsValid,2021.1.4,MacIntel,58.82352941,,,,,,,,,,,,,2,2.949,0,95,95,73,1,,,,,,,,,,,,,,,,,,,,,,,,,,,,,,,,,,,,,,,,,,,,,,,,,,,,,,,,,,,,,,,,,,,,,,
,,,,8,2.166,,,,,,3,cake,oven,,90054,001,2022-04-24_03h40.10.563,SPAMnetsValid,2021.1.4,MacIntel,58.82352941,,,,,,,,,,,,,8,2.166,0,96,96,30,1,,,,,,,,,,,,,,,,,,,,,,,,,,,,,,,,,,,,,,,,,,,,,,,,,,,,,,,,,,,,,,,,,,,,,,
,,,,,,,,,,,,,,,90054,001,2022-04-24_03h40.10.563,SPAMnetsValid,2021.1.4,MacIntel,58.82352941,,,,,,,,,,,,,,,,,,,,0,0,0,0,1,,,,,,,,,,,,,,,,,,,,,,,,,,,,,,,,,,,,,,,,,,,,,,,,,,,,,,,,,,,,,,,,,
,,,,,,,,,,,,,,,90054,001,2022-04-24_03h40.10.563,SPAMnetsValid,2021.1.4,MacIntel,58.82352941,,,,,,0,1,1,0,1,1,0,,,,,,,,,,,,,,,,,,,,,,,,,,,,,,,,,,,,,,,,,,,,,,,,,,,,,,,,,,,,,,,,,,,,,,,,,,,,,
,,,,,,,,,,,,,,,90054,001,2022-04-24_03h40.10.563,SPAMnetsValid,2021.1.4,MacIntel,58.82352941,,,,,,,,,,,,,,,,,,,,,,,,,2,8.878,0,0,0,0,1,rancor,forbearance,ridicule,malice,bravery,3,,,,,,,,,,,,,,,,,,,,,,,,,,,,,,,,,,,,,,,,,,,,,,,,,,,,
,,,,,,,,,,,,,,,90054,001,2022-04-24_03h40.10.563,SPAMnetsValid,2021.1.4,MacIntel,58.82352941,,,,,,,,,,,,,,,,,,,,,,,,,4,12.027,0,1,1,1,1,raucous,empty,quiet,smooth,harsh,4,,,,,,,,,,,,,,,,,,,,,,,,,,,,,,,,,,,,,,,,,,,,,,,,,,,,
,,,,,,,,,,,,,,,90054,001,2022-04-24_03h40.10.563,SPAMnetsValid,2021.1.4,MacIntel,58.82352941,,,,,,,,,,,,,,,,,,,,,,,,,4,6.159,0,2,2,2,1,gargoyle,oil,medicine,carved waterspout,ugly building,3,,,,,,,,,,,,,,,,,,,,,,,,,,,,,,,,,,,,,,,,,,,,,,,,,,,,
,,,,,,,,,,,,,,,90054,001,2022-04-24_03h40.10.563,SPAMnetsValid,2021.1.4,MacIntel,58.82352941,,,,,,,,,,,,,,,,,,,,,,,,,3,10.963,0,3,3,3,1,recrudesce,purify,renew activity,lack refinement,crush,2,,,,,,,,,,,,,,,,,,,,,,,,,,,,,,,,,,,,,,,,,,,,,,,,,,,,
,,,,,,,,,,,,,,,90054,001,2022-04-24_03h40.10.563,SPAMnetsValid,2021.1.4,MacIntel,58.82352941,,,,,,,,,,,,,,,,,,,,,,,,,4,7.151,0,4,4,4,1,specious,"plausible, but not genuine",noteworthy,class or variety,roomy,1,,,,,,,,,,,,,,,,,,,,,,,,,,,,,,,,,,,,,,,,,,,,,,,,,,,,
,,,,,,,,,,,,,,,90054,001,2022-04-24_03h40.10.563,SPAMnetsValid,2021.1.4,MacIntel,58.82352941,,,,,,,,,,,,,,,,,,,,,,,,,2,12.416,0,5,5,5,1,bauble,bubble,showy plaything,idle talk,confusion,2,,,,,,,,,,,,,,,,,,,,,,,,,,,,,,,,,,,,,,,,,,,,,,,,,,,,
,,,,,,,,,,,,,,,90054,001,2022-04-24_03h40.10.563,SPAMnetsValid,2021.1.4,MacIntel,58.82352941,,,,,,,,,,,,,,,,,,,,,,,,,4,9.115,0,6,6,6,1,prolific,scarce,producing abundantly,reckless,speaking profanely,2,,,,,,,,,,,,,,,,,,,,,,,,,,,,,,,,,,,,,,,,,,,,,,,,,,,,
,,,,,,,,,,,,,,,90054,001,2022-04-24_03h40.10.563,SPAMnetsValid,2021.1.4,MacIntel,58.82352941,,,,,,,,,,,,,,,,,,,,,,,,,3,8.074,0,7,7,7,1,opulent,party,wealthy,happy frame of mind,semiprecious stone,2,,,,,,,,,,,,,,,,,,,,,,,,,,,,,,,,,,,,,,,,,,,,,,,,,,,,
,,,,,,,,,,,,,,,90054,001,2022-04-24_03h40.10.563,SPAMnetsValid,2021.1.4,MacIntel,58.82352941,,,,,,,,,,,,,,,,,,,,,,,,,3,4.393,0,8,8,8,1,coercion,conspiracy,strategy,restraint,attraction,3,,,,,,,,,,,,,,,,,,,,,,,,,,,,,,,,,,,,,,,,,,,,,,,,,,,,
,,,,,,,,,,,,,,,90054,001,2022-04-24_03h40.10.563,SPAMnetsValid,2021.1.4,MacIntel,58.82352941,,,,,,,,,,,,,,,,,,,,,,,,,3,7.733,0,9,9,9,1,hiatus,animal,calamity,dread,gap,4,,,,,,,,,,,,,,,,,,,,,,,,,,,,,,,,,,,,,,,,,,,,,,,,,,,,
,,,,,,,,,,,,,,,90054,001,2022-04-24_03h40.10.563,SPAMnetsValid,2021.1.4,MacIntel,58.82352941,,,,,,,,,,,,,,,,,,,,,,,,,3,5.099,0,10,10,10,1,germane,microbe,contagious,relevant,different,3,,,,,,,,,,,,,,,,,,,,,,,,,,,,,,,,,,,,,,,,,,,,,,,,,,,,
,,,,,,,,,,,,,,,90054,001,2022-04-24_03h40.10.563,SPAMnetsValid,2021.1.4,MacIntel,58.82352941,,,,,,,,,,,,,,,,,,,,,,,,,1,6.17,0,11,11,11,1,perfunctory,fundamental,formal,superficial,careful,3,,,,,,,,,,,,,,,,,,,,,,,,,,,,,,,,,,,,,,,,,,,,,,,,,,,,
,,,,,,,,,,,,,,,90054,001,2022-04-24_03h40.10.563,SPAMnetsValid,2021.1.4,MacIntel,58.82352941,,,,,,,,,,,,,,,,,,,,,,,,,4,8.055,0,12,12,12,1,diverge,reveal,chant,distract the attention of,differ or turn off from,4,,,,,,,,,,,,,,,,,,,,,,,,,,,,,,,,,,,,,,,,,,,,,,,,,,,,
,,,,,,,,,,,,,,,90054,001,2022-04-24_03h40.10.563,SPAMnetsValid,2021.1.4,MacIntel,58.82352941,,,,,,,,,,,,,,,,,,,,,,,,,4,9.551,0,13,13,13,1,evoke,take away,anger,connect,bring out,4,,,,,,,,,,,,,,,,,,,,,,,,,,,,,,,,,,,,,,,,,,,,,,,,,,,,
,,,,,,,,,,,,,,,90054,001,2022-04-24_03h40.10.563,SPAMnetsValid,2021.1.4,MacIntel,58.82352941,,,,,,,,,,,,,,,,,,,,,,,,,4,3.874,0,14,14,14,1,pertinent,relevant,lying next to,necessary,bold,1,,,,,,,,,,,,,,,,,,,,,,,,,,,,,,,,,,,,,,,,,,,,,,,,,,,,
,,,,,,,,,,,,,,,90054,001,2022-04-24_03h40.10.563,SPAMnetsValid,2021.1.4,MacIntel,58.82352941,,,,,,,,,,,,,,,,,,,,,,,,,2,3.449,0,15,15,15,1,holocaust,entirety,destruction,saintly,price,2,,,,,,,,,,,,,,,,,,,,,,,,,,,,,,,,,,,,,,,,,,,,,,,,,,,,
,,,,,,,,,,,,,,,90054,001,2022-04-24_03h40.10.563,SPAMnetsValid,2021.1.4,MacIntel,58.82352941,,,,,,,,,,,,,,,,,,,,,,,,,1,7.594,0,16,16,16,1,piquant,mellow,fish,pungent,cloth,3,,,,,,,,,,,,,,,,,,,,,,,,,,,,,,,,,,,,,,,,,,,,,,,,,,,,
,,,,,,,,,,,,,,,90054,001,2022-04-24_03h40.10.563,SPAMnetsValid,2021.1.4,MacIntel,58.82352941,,,,,,,,,,,,,,,,,,,,,,,,,3,3.306,0,17,17,17,1,firmament,foundation,heavens,strong,glue,2,,,,,,,,,,,,,,,,,,,,,,,,,,,,,,,,,,,,,,,,,,,,,,,,,,,,
,,,,,,,,,,,,,,,90054,001,2022-04-24_03h40.10.563,SPAMnetsValid,2021.1.4,MacIntel,58.82352941,,,,,,,,,,,,,,,,,,,,,,,,,,,,,,,,,,,,,,4,3.496,0,0,0,0,1,marketable,partisan,jocular,marriageable,salable,essential,4,,,,,,,,,,,,,,,,,,,,,,,,,,,,,,,,,,,,,,
,,,,,,,,,,,,,,,90054,001,2022-04-24_03h40.10.563,SPAMnetsValid,2021.1.4,MacIntel,58.82352941,,,,,,,,,,,,,,,,,,,,,,,,,,,,,,,,,,,,,,4,6.239,0,1,1,1,1,cottontail,squirrel,poplar,boa,marshy plant,rabbit,5,,,,,,,,,,,,,,,,,,,,,,,,,,,,,,,,,,,,,,
,,,,,,,,,,,,,,,90054,001,2022-04-24_03h40.10.563,SPAMnetsValid,2021.1.4,MacIntel,58.82352941,,,,,,,,,,,,,,,,,,,,,,,,,,,,,,,,,,,,,,3,5.276,0,2,2,2,1,boggy,afraid,false,marshy,dense,black,3,,,,,,,,,,,,,,,,,,,,,,,,,,,,,,,,,,,,,,
,,,,,,,,,,,,,,,90054,001,2022-04-24_03h40.10.563,SPAMnetsValid,2021.1.4,MacIntel,58.82352941,,,,,,,,,,,,,,,,,,,,,,,,,,,,,,,,,,,,,,2,9.718,0,3,3,3,1,gruesomeness,blackness,falseness,vindictiveness,drunkenness,ghastliness,5,,,,,,,,,,,,,,,,,,,,,,,,,,,,,,,,,,,,,,
,,,,,,,,,,,,,,,90054,001,2022-04-24_03h40.10.563,SPAMnetsValid,2021.1.4,MacIntel,58.82352941,,,,,,,,,,,,,,,,,,,,,,,,,,,,,,,,,,,,,,2,6.142,0,4,4,4,1,loathing,diffidence,laziness,abhorrence,cleverness,comfort,3,,,,,,,,,,,,,,,,,,,,,,,,,,,,,,,,,,,,,,
,,,,,,,,,,,,,,,90054,001,2022-04-24_03h40.10.563,SPAMnetsValid,2021.1.4,MacIntel,58.82352941,,,,,,,,,,,,,,,,,,,,,,,,,,,,,,,,,,,,,,1,7.012,0,5,5,5,1,bantam,fowl,ridicule,cripple,vegetable,ensign,1,,,,,,,,,,,,,,,,,,,,,,,,,,,,,,,,,,,,,,
,,,,,,,,,,,,,,,90054,001,2022-04-24_03h40.10.563,SPAMnetsValid,2021.1.4,MacIntel,58.82352941,,,,,,,,,,,,,,,,,,,,,,,,,,,,,,,,,,,,,,5,12.955,0,6,6,6,1,evoke,wake up,surrender,reconnoiter,transcend,call forth,5,,,,,,,,,,,,,,,,,,,,,,,,,,,,,,,,,,,,,,
,,,,,,,,,,,,,,,90054,001,2022-04-24_03h40.10.563,SPAMnetsValid,2021.1.4,MacIntel,58.82352941,,,,,,,,,,,,,,,,,,,,,,,,,,,,,,,,,,,,,,3,10.751,0,7,7,7,1,unobtrusive,unintelligent,epileptic,illogical,lineal,modest,5,,,,,,,,,,,,,,,,,,,,,,,,,,,,,,,,,,,,,,
,,,,,,,,,,,,,,,90054,001,2022-04-24_03h40.10.563,SPAMnetsValid,2021.1.4,MacIntel,58.82352941,,,,,,,,,,,,,,,,,,,,,,,,,,,,,,,,,,,,,,4,5.126,0,8,8,8,1,terrain,ice cream,final test,tractor,area of ground,weight,4,,,,,,,,,,,,,,,,,,,,,,,,,,,,,,,,,,,,,,
,,,,,,,,,,,,,,,90054,001,2022-04-24_03h40.10.563,SPAMnetsValid,2021.1.4,MacIntel,58.82352941,,,,,,,,,,,,,,,,,,,,,,,,,,,,,,,,,,,,,,4,7.171,0,9,9,9,1,capriciousness,stubbornness,courage,whimsicality,amazement,greediness,3,,,,,,,,,,,,,,,,,,,,,,,,,,,,,,,,,,,,,,
,,,,,,,,,,,,,,,90054,001,2022-04-24_03h40.10.563,SPAMnetsValid,2021.1.4,MacIntel,58.82352941,,,,,,,,,,,,,,,,,,,,,,,,,,,,,,,,,,,,,,1,7.464,0,10,10,10,1,maelstrom,slander,whirlpool,enmity,armor,majolica,2,,,,,,,,,,,,,,,,,,,,,,,,,,,,,,,,,,,,,,
,,,,,,,,,,,,,,,90054,001,2022-04-24_03h40.10.563,SPAMnetsValid,2021.1.4,MacIntel,58.82352941,,,,,,,,,,,,,,,,,,,,,,,,,,,,,,,,,,,,,,5,6.447,0,11,11,11,1,tentative,critical,conclusive,authentic,provisional,apprehensive,4,,,,,,,,,,,,,,,,,,,,,,,,,,,,,,,,,,,,,,
,,,,,,,,,,,,,,,90054,001,2022-04-24_03h40.10.563,SPAMnetsValid,2021.1.4,MacIntel,58.82352941,,,,,,,,,,,,,,,,,,,,,,,,,,,,,,,,,,,,,,4,3.154,0,12,12,12,1,placate,rehabilitate,plagiarize,depredate,apprise,conciliate,5,,,,,,,,,,,,,,,,,,,,,,,,,,,,,,,,,,,,,,
,,,,,,,,,,,,,,,90054,001,2022-04-24_03h40.10.563,SPAMnetsValid,2021.1.4,MacIntel,58.82352941,,,,,,,,,,,,,,,,,,,,,,,,,,,,,,,,,,,,,,2,3.119,0,13,13,13,1,surcease,enlightenment,cessation,inattention,censor,substitution,2,,,,,,,,,,,,,,,,,,,,,,,,,,,,,,,,,,,,,,
,,,,,,,,,,,,,,,90054,001,2022-04-24_03h40.10.563,SPAMnetsValid,2021.1.4,MacIntel,58.82352941,,,,,,,,,,,,,,,,,,,,,,,,,,,,,,,,,,,,,,4,6.876,0,14,14,14,1,apathetic,wandering,impassive,hateful,prophetic,overflowing,2,,,,,,,,,,,,,,,,,,,,,,,,,,,,,,,,,,,,,,
,,,,,,,,,,,,,,,90054,001,2022-04-24_03h40.10.563,SPAMnetsValid,2021.1.4,MacIntel,58.82352941,,,,,,,,,,,,,,,,,,,,,,,,,,,,,,,,,,,,,,3,3.97,0,15,15,15,1,paternoster,paternalism,patricide,malediction,benediction,prayer,5,,,,,,,,,,,,,,,,,,,,,,,,,,,,,,,,,,,,,,
,,,,,,,,,,,,,,,90054,001,2022-04-24_03h40.10.563,SPAMnetsValid,2021.1.4,MacIntel,58.82352941,,,,,,,,,,,,,,,,,,,,,,,,,,,,,,,,,,,,,,3,6.428,0,16,16,16,1,opalescence,opulence,senescence,bankruptcy,iridescence,assiduity,4,,,,,,,,,,,,,,,,,,,,,,,,,,,,,,,,,,,,,,
,,,,,,,,,,,,,,,90054,001,2022-04-24_03h40.10.563,SPAMnetsValid,2021.1.4,MacIntel,58.82352941,,,,,,,,,,,,,,,,,,,,,,,,,,,,,,,,,,,,,,3,10.629,0,17,17,17,1,lush,stupid,luxurious,hazy,putrid,languishing,2,,,,,,,,,,,,,,,,,,,,,,,,,,,,,,,,,,,,,,
,,,,,,,,,,,,,,,90054,001,2022-04-24_03h40.10.563,SPAMnetsValid,2021.1.4,MacIntel,58.82352941,,,,,,,,,,,,,,,,,,,,,,,,,,,,,,,,,,,,,,4,5.062,0,18,18,18,1,curtailment,expenditure,abandonment,abridgment,improvement,forgery,3,,,,,,,,,,,,,,,,,,,,,,,,,,,,,,,,,,,,,,
,,,,,,,,,,,,,,,90054,001,2022-04-24_03h40.10.563,SPAMnetsValid,2021.1.4,MacIntel,58.82352941,,,,,,,,,,,,,,,,,,,,,,,,,,,,,,,,,,,,,,1,6.295,0,19,19,19,1,perversity,adversity,perviousness,travesty,waywardness,gentility,4,,,,,,,,,,,,,,,,,,,,,,,,,,,,,,,,,,,,,,
,,,,,,,,,,,,,,,90054,001,2022-04-24_03h40.10.563,SPAMnetsValid,2021.1.4,MacIntel,58.82352941,,,,,,,,,,,,,,,,,,,,,,,,,,,,,,,,,,,,,,2,7.026,0,20,20,20,1,calumnious,complimentary,analogous,slanderous,tempestuous,magnanimous,3,,,,,,,,,,,,,,,,,,,,,,,,,,,,,,,,,,,,,,
,,,,,,,,,,,,,,,90054,001,2022-04-24_03h40.10.563,SPAMnetsValid,2021.1.4,MacIntel,58.82352941,,,,,,,,,,,,,,,,,,,,,,,,,,,,,,,,,,,,,,5,13.072,0,21,21,21,1,illiberality,bigotry,imbecility,illegibility,cautery,immaturity,1,,,,,,,,,,,,,,,,,,,,,,,,,,,,,,,,,,,,,,
,,,,,,,,,,,,,,,90054,001,2022-04-24_03h40.10.563,SPAMnetsValid,2021.1.4,MacIntel,58.82352941,,,,,,,,,,,,,,,,,,,,,,,,,,,,,,,,,,,,,,2,3.465,0,22,22,22,1,clabber,rejoice,gossip,curdle,crow,hobble,3,,,,,,,,,,,,,,,,,,,,,,,,,,,,,,,,,,,,,,
,,,,,,,,,,,,,,,90054,001,2022-04-24_03h40.10.563,SPAMnetsValid,2021.1.4,MacIntel,58.82352941,,,,,,,,,,,,,,,,,,,,,,,,,,,,,,,,,,,,,,2,5.359,0,23,23,23,1,sedulousness,diligence,credulousness,seduction,perilousness,frankness,1,,,,,,,,,,,,,,,,,,,,,,,,,,,,,,,,,,,,,,
,,,,,,,,,,,,,,,90054,001,2022-04-24_03h40.10.563,SPAMnetsValid,2021.1.4,MacIntel,58.82352941,,,,,,,,,,,,,,,,,,,,,,,,,,,,,,,,,,,,,,,,,,,,,,,,,,,,storage,bucket,0,0,0,0,1,,,,,,,,,,,,,,,,,,,,,,,,,,,,,,,
,,,,,,,,,,,,,,,90054,001,2022-04-24_03h40.10.563,SPAMnetsValid,2021.1.4,MacIntel,58.82352941,,,,,,,,,,,,,,,,,,,,,,,,,,,,,,,,,,,,,,,,,,,,,,,,,,,,phone,bucket,1,0,1,0,1,,,,,,,,,,,,,,,,,,,,,,,,,,,,,,,
,,,,,,,,,,,,,,,90054,001,2022-04-24_03h40.10.563,SPAMnetsValid,2021.1.4,MacIntel,58.82352941,,,,,,,,,,,,,,,,,,,,,,,,,,,,,,,,,,,,,,,,,,,,,,,,,,,,holder,bucket,2,0,2,0,1,,,,,,,,,,,,,,,,,,,,,,,,,,,,,,,
,,,,,,,,,,,,,,,90054,001,2022-04-24_03h40.10.563,SPAMnetsValid,2021.1.4,MacIntel,58.82352941,,,,,,,,,,,,,,,,,,,,,,,,,,,,,,,,,,,,,,,,,,,,,,,,,,,,hiding,bucket,3,0,3,0,1,,,,,,,,,,,,,,,,,,,,,,,,,,,,,,,
,,,,,,,,,,,,,,,90054,001,2022-04-24_03h40.10.563,SPAMnetsValid,2021.1.4,MacIntel,58.82352941,,,,,,,,,,,,,,,,,,,,,,,,,,,,,,,,,,,,,,,,,,,,,,,,,,,,hanging,bucket,4,0,4,0,1,,,,,,,,,,,,,,,,,,,,,,,,,,,,,,,
,,,,,,,,,,,,,,,90054,001,2022-04-24_03h40.10.563,SPAMnetsValid,2021.1.4,MacIntel,58.82352941,,,,,,,,,,,,,,,,,,,,,,,,,,,,,,,,,,,,,,,,,,,,,,,,,,,,worming hand,bucket,5,0,5,0,1,,,,,,,,,,,,,,,,,,,,,,,,,,,,,,,
,,,,,,,,,,,,,,,90054,001,2022-04-24_03h40.10.563,SPAMnetsValid,2021.1.4,MacIntel,58.82352941,,,,,,,,,,,,,,,,,,,,,,,,,,,,,,,,,,,,,,,,,,,,,,,,,,,,saving,bucket,6,0,6,0,1,,,,,,,,,,,,,,,,,,,,,,,,,,,,,,,
,,,,,,,,,,,,,,,90054,001,2022-04-24_03h40.10.563,SPAMnetsValid,2021.1.4,MacIntel,58.82352941,,,,,,,,,,,,,,,,,,,,,,,,,,,,,,,,,,,,,,,,,,,,,,,,,,,,,bucket,7,0,7,0,1,,,,,,,,,,,,,,,,,,,,,,,,,,,,,,,
,,,,,,,,,,,,,,,90054,001,2022-04-24_03h40.10.563,SPAMnetsValid,2021.1.4,MacIntel,58.82352941,,,,,,,,,,,,,,,,,,,,,,,,,,,,,,,,,,,,,,,,,,,,,,,,,,,,,bucket,8,0,8,0,1,,,,,,,,,,,,,,,,,,,,,,,,,,,,,,,
,,,,,,,,,,,,,,,90054,001,2022-04-24_03h40.10.563,SPAMnetsValid,2021.1.4,MacIntel,58.82352941,,,,,,,,,,,,,,,,,,,,,,,,,,,,,,,,,,,,,,,,,,,,,,,,,,,,,,,,,,,0,0,0,0,1,bucket,,,,,,,,,,,,,,,,,,,,,,,,,
,,,,,,,,,,,,,,,90054,001,2022-04-24_03h40.10.563,SPAMnetsValid,2021.1.4,MacIntel,58.82352941,,,,,,,,,,,,,,,,,,,,,,,,,,,,,,,,,,,,,,,,,,,,,,,,,,,,laying head,pillow,0,0,0,0,1,,,,,,,,,,,,,,,,,,,,,,,,,,,,,,,
,,,,,,,,,,,,,,,90054,001,2022-04-24_03h40.10.563,SPAMnetsValid,2021.1.4,MacIntel,58.82352941,,,,,,,,,,,,,,,,,,,,,,,,,,,,,,,,,,,,,,,,,,,,,,,,,,,,cover,pillow,1,0,1,0,1,,,,,,,,,,,,,,,,,,,,,,,,,,,,,,,
,,,,,,,,,,,,,,,90054,001,2022-04-24_03h40.10.563,SPAMnetsValid,2021.1.4,MacIntel,58.82352941,,,,,,,,,,,,,,,,,,,,,,,,,,,,,,,,,,,,,,,,,,,,,,,,,,,,sitting ,pillow,2,0,2,0,1,,,,,,,,,,,,,,,,,,,,,,,,,,,,,,,
,,,,,,,,,,,,,,,90054,001,2022-04-24_03h40.10.563,SPAMnetsValid,2021.1.4,MacIntel,58.82352941,,,,,,,,,,,,,,,,,,,,,,,,,,,,,,,,,,,,,,,,,,,,,,,,,,,,clogging pipe,pillow,3,0,3,0,1,,,,,,,,,,,,,,,,,,,,,,,,,,,,,,,
,,,,,,,,,,,,,,,90054,001,2022-04-24_03h40.10.563,SPAMnetsValid,2021.1.4,MacIntel,58.82352941,,,,,,,,,,,,,,,,,,,,,,,,,,,,,,,,,,,,,,,,,,,,,,,,,,,,drying floor,pillow,4,0,4,0,1,,,,,,,,,,,,,,,,,,,,,,,,,,,,,,,
,,,,,,,,,,,,,,,90054,001,2022-04-24_03h40.10.563,SPAMnetsValid,2021.1.4,MacIntel,58.82352941,,,,,,,,,,,,,,,,,,,,,,,,,,,,,,,,,,,,,,,,,,,,,,,,,,,,,,,,,,,0,1,1,2,1,pillow,,,,,,,,,,,,,,,,,,,,,,,,,
,,,,,,,,,,,,,,,90054,001,2022-04-24_03h40.10.563,SPAMnetsValid,2021.1.4,MacIntel,58.82352941,,,,,,,,,,,,,,,,,,,,,,,,,,,,,,,,,,,,,,,,,,,,,,,,,,,,scent,candle,0,0,0,0,1,,,,,,,,,,,,,,,,,,,,,,,,,,,,,,,
,,,,,,,,,,,,,,,90054,001,2022-04-24_03h40.10.563,SPAMnetsValid,2021.1.4,MacIntel,58.82352941,,,,,,,,,,,,,,,,,,,,,,,,,,,,,,,,,,,,,,,,,,,,,,,,,,,,stamping ,candle,1,0,1,0,1,,,,,,,,,,,,,,,,,,,,,,,,,,,,,,,
,,,,,,,,,,,,,,,90054,001,2022-04-24_03h40.10.563,SPAMnetsValid,2021.1.4,MacIntel,58.82352941,,,,,,,,,,,,,,,,,,,,,,,,,,,,,,,,,,,,,,,,,,,,,,,,,,,,cleaning shoes,candle,2,0,2,0,1,,,,,,,,,,,,,,,,,,,,,,,,,,,,,,,
,,,,,,,,,,,,,,,90054,001,2022-04-24_03h40.10.563,SPAMnetsValid,2021.1.4,MacIntel,58.82352941,,,,,,,,,,,,,,,,,,,,,,,,,,,,,,,,,,,,,,,,,,,,,,,,,,,,for skateboarding,candle,3,0,3,0,1,,,,,,,,,,,,,,,,,,,,,,,,,,,,,,,
,,,,,,,,,,,,,,,90054,001,2022-04-24_03h40.10.563,SPAMnetsValid,2021.1.4,MacIntel,58.82352941,,,,,,,,,,,,,,,,,,,,,,,,,,,,,,,,,,,,,,,,,,,,,,,,,,,,,,,,,,,0,2,2,1,1,candle,,,,,,,,,,,,,,,,,,,,,,,,,
,,,,,,,,,,,,,,,90054,001,2022-04-24_03h40.10.563,SPAMnetsValid,2021.1.4,MacIntel,58.82352941,,,,,,,,,,,,,,,,,,,,,,,,,,,,,,,,,,,,,,,,,,,,,,,,,,,,,,,,,,,,,,,,,dog,Animals,0,0,0,0,1,,,,,,,,,,,,,,,,,,
,,,,,,,,,,,,,,,90054,001,2022-04-24_03h40.10.563,SPAMnetsValid,2021.1.4,MacIntel,58.82352941,,,,,,,,,,,,,,,,,,,,,,,,,,,,,,,,,,,,,,,,,,,,,,,,,,,,,,,,,,,,,,,,,cat,Animals,1,0,1,0,1,,,,,,,,,,,,,,,,,,
,,,,,,,,,,,,,,,90054,001,2022-04-24_03h40.10.563,SPAMnetsValid,2021.1.4,MacIntel,58.82352941,,,,,,,,,,,,,,,,,,,,,,,,,,,,,,,,,,,,,,,,,,,,,,,,,,,,,,,,,,,,,,,,,rat,Animals,2,0,2,0,1,,,,,,,,,,,,,,,,,,
,,,,,,,,,,,,,,,90054,001,2022-04-24_03h40.10.563,SPAMnetsValid,2021.1.4,MacIntel,58.82352941,,,,,,,,,,,,,,,,,,,,,,,,,,,,,,,,,,,,,,,,,,,,,,,,,,,,,,,,,,,,,,,,,bird,Animals,3,0,3,0,1,,,,,,,,,,,,,,,,,,
,,,,,,,,,,,,,,,90054,001,2022-04-24_03h40.10.563,SPAMnetsValid,2021.1.4,MacIntel,58.82352941,,,,,,,,,,,,,,,,,,,,,,,,,,,,,,,,,,,,,,,,,,,,,,,,,,,,,,,,,,,,,,,,,monkey,Animals,4,0,4,0,1,,,,,,,,,,,,,,,,,,
,,,,,,,,,,,,,,,90054,001,2022-04-24_03h40.10.563,SPAMnetsValid,2021.1.4,MacIntel,58.82352941,,,,,,,,,,,,,,,,,,,,,,,,,,,,,,,,,,,,,,,,,,,,,,,,,,,,,,,,,,,,,,,,,fish,Animals,5,0,5,0,1,,,,,,,,,,,,,,,,,,
,,,,,,,,,,,,,,,90054,001,2022-04-24_03h40.10.563,SPAMnetsValid,2021.1.4,MacIntel,58.82352941,,,,,,,,,,,,,,,,,,,,,,,,,,,,,,,,,,,,,,,,,,,,,,,,,,,,,,,,,,,,,,,,,rabbit,Animals,6,0,6,0,1,,,,,,,,,,,,,,,,,,
,,,,,,,,,,,,,,,90054,001,2022-04-24_03h40.10.563,SPAMnetsValid,2021.1.4,MacIntel,58.82352941,,,,,,,,,,,,,,,,,,,,,,,,,,,,,,,,,,,,,,,,,,,,,,,,,,,,,,,,,,,,,,,,,squirl,Animals,7,0,7,0,1,,,,,,,,,,,,,,,,,,
,,,,,,,,,,,,,,,90054,001,2022-04-24_03h40.10.563,SPAMnetsValid,2021.1.4,MacIntel,58.82352941,,,,,,,,,,,,,,,,,,,,,,,,,,,,,,,,,,,,,,,,,,,,,,,,,,,,,,,,,,,,,,,,,tiger,Animals,8,0,8,0,1,,,,,,,,,,,,,,,,,,
,,,,,,,,,,,,,,,90054,001,2022-04-24_03h40.10.563,SPAMnetsValid,2021.1.4,MacIntel,58.82352941,,,,,,,,,,,,,,,,,,,,,,,,,,,,,,,,,,,,,,,,,,,,,,,,,,,,,,,,,,,,,,,,,gator,Animals,9,0,9,0,1,,,,,,,,,,,,,,,,,,
,,,,,,,,,,,,,,,90054,001,2022-04-24_03h40.10.563,SPAMnetsValid,2021.1.4,MacIntel,58.82352941,,,,,,,,,,,,,,,,,,,,,,,,,,,,,,,,,,,,,,,,,,,,,,,,,,,,,,,,,,,,,,,,,girraf,Animals,10,0,10,0,1,,,,,,,,,,,,,,,,,,
,,,,,,,,,,,,,,,90054,001,2022-04-24_03h40.10.563,SPAMnetsValid,2021.1.4,MacIntel,58.82352941,,,,,,,,,,,,,,,,,,,,,,,,,,,,,,,,,,,,,,,,,,,,,,,,,,,,,,,,,,,,,,,,,lion,Animals,11,0,11,0,1,,,,,,,,,,,,,,,,,,
,,,,,,,,,,,,,,,90054,001,2022-04-24_03h40.10.563,SPAMnetsValid,2021.1.4,MacIntel,58.82352941,,,,,,,,,,,,,,,,,,,,,,,,,,,,,,,,,,,,,,,,,,,,,,,,,,,,,,,,,,,,,,,,,seal,Animals,12,0,12,0,1,,,,,,,,,,,,,,,,,,
,,,,,,,,,,,,,,,90054,001,2022-04-24_03h40.10.563,SPAMnetsValid,2021.1.4,MacIntel,58.82352941,,,,,,,,,,,,,,,,,,,,,,,,,,,,,,,,,,,,,,,,,,,,,,,,,,,,,,,,,,,,,,,,,,,,,,,,0,0,0,0,1,Animals,,,,,,,,,,,,
,,,,,,,,,,,,,,,90054,001,2022-04-24_03h40.10.563,SPAMnetsValid,2021.1.4,MacIntel,58.82352941,,,,,,,,,,,,,,,,,,,,,,,,,,,,,,,,,,,,,,,,,,,,,,,,,,,,,,,,,,,,,,,,,,,,,,,,,,,,,,5,6.213,0,0,0,0,1,"I enjoy concentrating on a fantasy or daydream and exploring all its possibilities, letting it grow and develop.",0,1,,
,,,,,,,,,,,,,,,90054,001,2022-04-24_03h40.10.563,SPAMnetsValid,2021.1.4,MacIntel,58.82352941,,,,,,,,,,,,,,,,,,,,,,,,,,,,,,,,,,,,,,,,,,,,,,,,,,,,,,,,,,,,,,,,,,,,,,,,,,,,,,5,3.285,0,1,1,1,1,I think it's interesting to learn and develop new hobbies.,0,2,,
,,,,,,,,,,,,,,,90054,001,2022-04-24_03h40.10.563,SPAMnetsValid,2021.1.4,MacIntel,58.82352941,,,,,,,,,,,,,,,,,,,,,,,,,,,,,,,,,,,,,,,,,,,,,,,,,,,,,,,,,,,,,,,,,,,,,,,,,,,,,,5,3.315,0,2,2,2,1,I am intrigued by the patterns I find in art and nature.,0,3,,
,,,,,,,,,,,,,,,90054,001,2022-04-24_03h40.10.563,SPAMnetsValid,2021.1.4,MacIntel,58.82352941,,,,,,,,,,,,,,,,,,,,,,,,,,,,,,,,,,,,,,,,,,,,,,,,,,,,,,,,,,,,,,,,,,,,,,,,,,,,,,2,5.614,0,3,3,3,1,I believe letting students hear controversial speakers can only confuse and mislead them.,1,4,,
,,,,,,,,,,,,,,,90054,001,2022-04-24_03h40.10.563,SPAMnetsValid,2021.1.4,MacIntel,58.82352941,,,,,,,,,,,,,,,,,,,,,,,,,,,,,,,,,,,,,,,,,,,,,,,,,,,,,,,,,,,,,,,,,,,,,,,,,,,,,,4,4.469,0,4,4,4,1,Poetry has little or no effect on me.,1,5,,
,,,,,,,,,,,,,,,90054,001,2022-04-24_03h40.10.563,SPAMnetsValid,2021.1.4,MacIntel,58.82352941,,,,,,,,,,,,,,,,,,,,,,,,,,,,,,,,,,,,,,,,,,,,,,,,,,,,,,,,,,,,,,,,,,,,,,,,,,,,,,3,5.032,0,5,5,5,1,I would have difficulty just letting my mind wander without control or guidance.,1,6,,
,,,,,,,,,,,,,,,90054,001,2022-04-24_03h40.10.563,SPAMnetsValid,2021.1.4,MacIntel,58.82352941,,,,,,,,,,,,,,,,,,,,,,,,,,,,,,,,,,,,,,,,,,,,,,,,,,,,,,,,,,,,,,,,,,,,,,,,,,,,,,1,4.707,0,6,6,6,1,I seldom notice the moods or feelings that different environments produce.,1,7,,
,,,,,,,,,,,,,,,90054,001,2022-04-24_03h40.10.563,SPAMnetsValid,2021.1.4,MacIntel,58.82352941,,,,,,,,,,,,,,,,,,,,,,,,,,,,,,,,,,,,,,,,,,,,,,,,,,,,,,,,,,,,,,,,,,,,,,,,,,,,,,5,187.022,0,7,7,7,1,I experience a wide range of emotions or feelings.,0,8,,
,,,,,,,,,,,,,,,90054,001,2022-04-24_03h40.10.563,SPAMnetsValid,2021.1.4,MacIntel,58.82352941,,,,,,,,,,,,,,,,,,,,,,,,,,,,,,,,,,,,,,,,,,,,,,,,,,,,,,,,,,,,,,,,,,,,,,,,,,,,,,4,7.365,0,8,8,8,1,"Sometimes when I am reading poetry or looking at a work of art, I feel a chill or wave of excitement.",0,9,,
,,,,,,,,,,,,,,,90054,001,2022-04-24_03h40.10.563,SPAMnetsValid,2021.1.4,MacIntel,58.82352941,,,,,,,,,,,,,,,,,,,,,,,,,,,,,,,,,,,,,,,,,,,,,,,,,,,,,,,,,,,,,,,,,,,,,,,,,,,,,,1,7.885,0,9,9,9,1,I have little interest in speculating on the nature of the universe or the human condition.,1,10,,
,,,,,,,,,,,,,,,90054,001,2022-04-24_03h40.10.563,SPAMnetsValid,2021.1.4,MacIntel,58.82352941,,,,,,,,,,,,,,,,,,,,,,,,,,,,,,,,,,,,,,,,,,,,,,,,,,,,,,,,,,,,,,,,,,,,,,,,,,,,,,5,2.005,0,10,10,10,1,I have a lot of intellectual curiosity.,0,11,,
,,,,,,,,,,,,,,,90054,001,2022-04-24_03h40.10.563,SPAMnetsValid,2021.1.4,MacIntel,58.82352941,,,,,,,,,,,,,,,,,,,,,,,,,,,,,,,,,,,,,,,,,,,,,,,,,,,,,,,,,,,,,,,,,,,,,,,,,,,,,,5,3.981,0,11,11,11,1,I often enjoy playing with theories or abstract ideas.,0,12,,
,,,,,,,,,,,,,,,90054,001,2022-04-24_03h40.10.563,SPAMnetsValid,2021.1.4,MacIntel,58.82352941,,,,,,,,,,,,,,,,,,,,,,,,,,,,,,,,,,,,,,,,,,,,,,,,,,,,,,,,,,,,,,,,,,,,,,,,,,,,,,,,,,,,,,,,return,198.471
