key_resp_3.keys,key_resp_3.rt,slider_2.response,slider_2.rt,rjt_rating,rjt_RT,trials_24.thisRepN,trials_24.thisTrialN,trials_24.thisN,trials_24.thisIndex,trials_24.ran,rjt_order,word1,word2,attention,participant,session,date,expName,psychopyVersion,OS,frameRate,trials_4.thisRepN,trials_4.thisTrialN,trials_4.thisN,trials_4.thisIndex,trials_4.ran,trials_5.thisRepN,trials_5.thisTrialN,trials_5.thisN,trials_5.thisIndex,trials_5.ran,repOne,repTwo,slider.response,slider.rt,trials_22.thisRepN,trials_22.thisTrialN,trials_22.thisN,trials_22.thisIndex,trials_22.ran,trials_99.thisRepN,trials_99.thisTrialN,trials_99.thisN,trials_99.thisIndex,trials_99.ran,slider_extend_2.response,slider_extend_2.rt,trials_6.thisRepN,trials_6.thisTrialN,trials_6.thisN,trials_6.thisIndex,trials_6.ran,vCue2,R1,R2,R3,R4,correct,sliderVocab.response,sliderVocab.rt,trials_7.thisRepN,trials_7.thisTrialN,trials_7.thisN,trials_7.thisIndex,trials_7.ran,VocabCue,VR1,VR2,VR3,VR4,VR5,VocabCorrect,AUT_resp,AUT_label,trials.thisRepN,trials.thisTrialN,trials.thisN,trials.thisIndex,trials.ran,trials_2.thisRepN,trials_2.thisTrialN,trials_2.thisN,trials_2.thisIndex,trials_2.ran,aut_prompt,VF_response,VF_tag,trials_16.thisRepN,trials_16.thisTrialN,trials_16.thisN,trials_16.thisIndex,trials_16.ran,trials_17.thisRepN,trials_17.thisTrialN,trials_17.thisN,trials_17.thisIndex,trials_17.ran,VFcond,open_slider.response,open_slider.rt,trials_3.thisRepN,trials_3.thisTrialN,trials_3.thisN,trials_3.thisIndex,trials_3.ran,OpenQ,Rev,OPEN_ORDER,key_resp_2.keys,key_resp_2.rt
return,3.1864,6,3.6546,6,3.6546,0,0,0,39,1,112,cake,carrot,,90050,001,2022-04-29_10h34.43.128,SPAMnetsValid,2021.1.4,Win32,60.17209218,,,,,,,,,,,,,,,,,,,,,,,,,,,,,,,,,,,,,,,,,,,,,,,,,,,,,,,,,,,,,,,,,,,,,,,,,,,,,,,,,,,,,,,,,
,,7,1.0545,7,1.0545,0,1,1,25,1,194,cactus,cactus,CHECK,90050,001,2022-04-29_10h34.43.128,SPAMnetsValid,2021.1.4,Win32,60.17209218,,,,,,,,,,,,,,,,,,,,,,,,,,,,,,,,,,,,,,,,,,,,,,,,,,,,,,,,,,,,,,,,,,,,,,,,,,,,,,,,,,,,,,,,,
,,7,0.8623,7,0.8623,0,2,2,75,1,178,cactus,carrot,,90050,001,2022-04-29_10h34.43.128,SPAMnetsValid,2021.1.4,Win32,60.17209218,,,,,,,,,,,,,,,,,,,,,,,,,,,,,,,,,,,,,,,,,,,,,,,,,,,,,,,,,,,,,,,,,,,,,,,,,,,,,,,,,,,,,,,,,
,,3,1.4923,3,1.4923,0,3,3,6,1,151,microwave,onion,,90050,001,2022-04-29_10h34.43.128,SPAMnetsValid,2021.1.4,Win32,60.17209218,,,,,,,,,,,,,,,,,,,,,,,,,,,,,,,,,,,,,,,,,,,,,,,,,,,,,,,,,,,,,,,,,,,,,,,,,,,,,,,,,,,,,,,,,
,,7,4.5323,7,4.5323,0,4,4,2,1,174,cake,pretzel,,90050,001,2022-04-29_10h34.43.128,SPAMnetsValid,2021.1.4,Win32,60.17209218,,,,,,,,,,,,,,,,,,,,,,,,,,,,,,,,,,,,,,,,,,,,,,,,,,,,,,,,,,,,,,,,,,,,,,,,,,,,,,,,,,,,,,,,,
,,6,0.7604,6,0.7604,0,5,5,7,1,188,flower,tree,,90050,001,2022-04-29_10h34.43.128,SPAMnetsValid,2021.1.4,Win32,60.17209218,,,,,,,,,,,,,,,,,,,,,,,,,,,,,,,,,,,,,,,,,,,,,,,,,,,,,,,,,,,,,,,,,,,,,,,,,,,,,,,,,,,,,,,,,
,,3,0.9359,3,0.9359,0,6,6,31,1,156,melon,rose,,90050,001,2022-04-29_10h34.43.128,SPAMnetsValid,2021.1.4,Win32,60.17209218,,,,,,,,,,,,,,,,,,,,,,,,,,,,,,,,,,,,,,,,,,,,,,,,,,,,,,,,,,,,,,,,,,,,,,,,,,,,,,,,,,,,,,,,,
,,7,0.7733,7,0.7733,0,7,7,3,1,129,cactus,refrigerator,,90050,001,2022-04-29_10h34.43.128,SPAMnetsValid,2021.1.4,Win32,60.17209218,,,,,,,,,,,,,,,,,,,,,,,,,,,,,,,,,,,,,,,,,,,,,,,,,,,,,,,,,,,,,,,,,,,,,,,,,,,,,,,,,,,,,,,,,
,,6,1.1741,6,1.1741,0,8,8,10,1,118,chocolate,oven,,90050,001,2022-04-29_10h34.43.128,SPAMnetsValid,2021.1.4,Win32,60.17209218,,,,,,,,,,,,,,,,,,,,,,,,,,,,,,,,,,,,,,,,,,,,,,,,,,,,,,,,,,,,,,,,,,,,,,,,,,,,,,,,,,,,,,,,,
,,7,0.6532,7,0.6532,0,9,9,27,1,158,cookie,oven,,90050,001,2022-04-29_10h34.43.128,SPAMnetsValid,2021.1.4,Win32,60.17209218,,,,,,,,,,,,,,,,,,,,,,,,,,,,,,,,,,,,,,,,,,,,,,,,,,,,,,,,,,,,,,,,,,,,,,,,,,,,,,,,,,,,,,,,,
,,7,0.8965,7,0.8965,0,10,10,63,1,137,microwave,tree,,90050,001,2022-04-29_10h34.43.128,SPAMnetsValid,2021.1.4,Win32,60.17209218,,,,,,,,,,,,,,,,,,,,,,,,,,,,,,,,,,,,,,,,,,,,,,,,,,,,,,,,,,,,,,,,,,,,,,,,,,,,,,,,,,,,,,,,,
,,7,0.8775,7,0.8775,0,11,11,59,1,164,cookie,garden,,90050,001,2022-04-29_10h34.43.128,SPAMnetsValid,2021.1.4,Win32,60.17209218,,,,,,,,,,,,,,,,,,,,,,,,,,,,,,,,,,,,,,,,,,,,,,,,,,,,,,,,,,,,,,,,,,,,,,,,,,,,,,,,,,,,,,,,,
,,7,0.0525,7,0.0525,0,12,12,85,1,115,refrigerator,tomato,,90050,001,2022-04-29_10h34.43.128,SPAMnetsValid,2021.1.4,Win32,60.17209218,,,,,,,,,,,,,,,,,,,,,,,,,,,,,,,,,,,,,,,,,,,,,,,,,,,,,,,,,,,,,,,,,,,,,,,,,,,,,,,,,,,,,,,,,
,,7,0.3314,7,0.3314,0,13,13,52,1,110,chocolate,cookie,,90050,001,2022-04-29_10h34.43.128,SPAMnetsValid,2021.1.4,Win32,60.17209218,,,,,,,,,,,,,,,,,,,,,,,,,,,,,,,,,,,,,,,,,,,,,,,,,,,,,,,,,,,,,,,,,,,,,,,,,,,,,,,,,,,,,,,,,
,,7,0.0986,7,0.0986,0,14,14,42,1,184,oven,pretzel,,90050,001,2022-04-29_10h34.43.128,SPAMnetsValid,2021.1.4,Win32,60.17209218,,,,,,,,,,,,,,,,,,,,,,,,,,,,,,,,,,,,,,,,,,,,,,,,,,,,,,,,,,,,,,,,,,,,,,,,,,,,,,,,,,,,,,,,,
,,7,0.0569,7,0.0569,0,15,15,37,1,139,carrot,strawberry,,90050,001,2022-04-29_10h34.43.128,SPAMnetsValid,2021.1.4,Win32,60.17209218,,,,,,,,,,,,,,,,,,,,,,,,,,,,,,,,,,,,,,,,,,,,,,,,,,,,,,,,,,,,,,,,,,,,,,,,,,,,,,,,,,,,,,,,,
,,7,0.0546,7,0.0546,0,16,16,20,1,149,broom,tomato,,90050,001,2022-04-29_10h34.43.128,SPAMnetsValid,2021.1.4,Win32,60.17209218,,,,,,,,,,,,,,,,,,,,,,,,,,,,,,,,,,,,,,,,,,,,,,,,,,,,,,,,,,,,,,,,,,,,,,,,,,,,,,,,,,,,,,,,,
,,7,0.023,7,0.023,0,17,17,92,1,170,cookie,microwave,,90050,001,2022-04-29_10h34.43.128,SPAMnetsValid,2021.1.4,Win32,60.17209218,,,,,,,,,,,,,,,,,,,,,,,,,,,,,,,,,,,,,,,,,,,,,,,,,,,,,,,,,,,,,,,,,,,,,,,,,,,,,,,,,,,,,,,,,
,,4,0.3647,4,0.3647,0,18,18,38,1,155,carrot,cookie,,90050,001,2022-04-29_10h34.43.128,SPAMnetsValid,2021.1.4,Win32,60.17209218,,,,,,,,,,,,,,,,,,,,,,,,,,,,,,,,,,,,,,,,,,,,,,,,,,,,,,,,,,,,,,,,,,,,,,,,,,,,,,,,,,,,,,,,,
,,4,0.1362,4,0.1362,0,19,19,90,1,190,microwave,strawberry,,90050,001,2022-04-29_10h34.43.128,SPAMnetsValid,2021.1.4,Win32,60.17209218,,,,,,,,,,,,,,,,,,,,,,,,,,,,,,,,,,,,,,,,,,,,,,,,,,,,,,,,,,,,,,,,,,,,,,,,,,,,,,,,,,,,,,,,,
,,4,0.1097,4,0.1097,0,20,20,54,1,101,cactus,kitchen,,90050,001,2022-04-29_10h34.43.128,SPAMnetsValid,2021.1.4,Win32,60.17209218,,,,,,,,,,,,,,,,,,,,,,,,,,,,,,,,,,,,,,,,,,,,,,,,,,,,,,,,,,,,,,,,,,,,,,,,,,,,,,,,,,,,,,,,,
,,8,0.3688,8,0.3688,0,21,21,45,1,179,broom,oven,,90050,001,2022-04-29_10h34.43.128,SPAMnetsValid,2021.1.4,Win32,60.17209218,,,,,,,,,,,,,,,,,,,,,,,,,,,,,,,,,,,,,,,,,,,,,,,,,,,,,,,,,,,,,,,,,,,,,,,,,,,,,,,,,,,,,,,,,
,,8,0.1216,8,0.1216,0,22,22,78,1,132,broom,tree,,90050,001,2022-04-29_10h34.43.128,SPAMnetsValid,2021.1.4,Win32,60.17209218,,,,,,,,,,,,,,,,,,,,,,,,,,,,,,,,,,,,,,,,,,,,,,,,,,,,,,,,,,,,,,,,,,,,,,,,,,,,,,,,,,,,,,,,,
,,8,0.102,8,0.102,0,23,23,81,1,104,garden,microwave,,90050,001,2022-04-29_10h34.43.128,SPAMnetsValid,2021.1.4,Win32,60.17209218,,,,,,,,,,,,,,,,,,,,,,,,,,,,,,,,,,,,,,,,,,,,,,,,,,,,,,,,,,,,,,,,,,,,,,,,,,,,,,,,,,,,,,,,,
,,7,0.3974,7,0.3974,0,24,24,48,1,186,kitchen,yogurt,,90050,001,2022-04-29_10h34.43.128,SPAMnetsValid,2021.1.4,Win32,60.17209218,,,,,,,,,,,,,,,,,,,,,,,,,,,,,,,,,,,,,,,,,,,,,,,,,,,,,,,,,,,,,,,,,,,,,,,,,,,,,,,,,,,,,,,,,
,,7,0.18,7,0.18,0,25,25,23,1,148,flower,melon,,90050,001,2022-04-29_10h34.43.128,SPAMnetsValid,2021.1.4,Win32,60.17209218,,,,,,,,,,,,,,,,,,,,,,,,,,,,,,,,,,,,,,,,,,,,,,,,,,,,,,,,,,,,,,,,,,,,,,,,,,,,,,,,,,,,,,,,,
,,7,0.3782,7,0.3782,0,26,26,82,1,98,pretzel,strawberry,,90050,001,2022-04-29_10h34.43.128,SPAMnetsValid,2021.1.4,Win32,60.17209218,,,,,,,,,,,,,,,,,,,,,,,,,,,,,,,,,,,,,,,,,,,,,,,,,,,,,,,,,,,,,,,,,,,,,,,,,,,,,,,,,,,,,,,,,
,,7,0.1352,7,0.1352,0,27,27,24,1,169,onion,yogurt,,90050,001,2022-04-29_10h34.43.128,SPAMnetsValid,2021.1.4,Win32,60.17209218,,,,,,,,,,,,,,,,,,,,,,,,,,,,,,,,,,,,,,,,,,,,,,,,,,,,,,,,,,,,,,,,,,,,,,,,,,,,,,,,,,,,,,,,,
,,7,0.0854,7,0.0854,0,28,28,57,1,127,cactus,chocolate,,90050,001,2022-04-29_10h34.43.128,SPAMnetsValid,2021.1.4,Win32,60.17209218,,,,,,,,,,,,,,,,,,,,,,,,,,,,,,,,,,,,,,,,,,,,,,,,,,,,,,,,,,,,,,,,,,,,,,,,,,,,,,,,,,,,,,,,,
,,7,0.0822,7,0.0822,0,29,29,61,1,138,flower,rose,,90050,001,2022-04-29_10h34.43.128,SPAMnetsValid,2021.1.4,Win32,60.17209218,,,,,,,,,,,,,,,,,,,,,,,,,,,,,,,,,,,,,,,,,,,,,,,,,,,,,,,,,,,,,,,,,,,,,,,,,,,,,,,,,,,,,,,,,
,,7,0.0939,7,0.0939,0,30,30,41,1,175,melon,onion,,90050,001,2022-04-29_10h34.43.128,SPAMnetsValid,2021.1.4,Win32,60.17209218,,,,,,,,,,,,,,,,,,,,,,,,,,,,,,,,,,,,,,,,,,,,,,,,,,,,,,,,,,,,,,,,,,,,,,,,,,,,,,,,,,,,,,,,,
,,7,0.1493,7,0.1493,0,31,31,8,1,97,chocolate,kitchen,,90050,001,2022-04-29_10h34.43.128,SPAMnetsValid,2021.1.4,Win32,60.17209218,,,,,,,,,,,,,,,,,,,,,,,,,,,,,,,,,,,,,,,,,,,,,,,,,,,,,,,,,,,,,,,,,,,,,,,,,,,,,,,,,,,,,,,,,
,,7,0.1351,7,0.1351,0,32,32,64,1,157,refrigerator,rose,,90050,001,2022-04-29_10h34.43.128,SPAMnetsValid,2021.1.4,Win32,60.17209218,,,,,,,,,,,,,,,,,,,,,,,,,,,,,,,,,,,,,,,,,,,,,,,,,,,,,,,,,,,,,,,,,,,,,,,,,,,,,,,,,,,,,,,,,
,,6,0.5169,6,0.5169,0,33,33,53,1,177,chocolate,strawberry,,90050,001,2022-04-29_10h34.43.128,SPAMnetsValid,2021.1.4,Win32,60.17209218,,,,,,,,,,,,,,,,,,,,,,,,,,,,,,,,,,,,,,,,,,,,,,,,,,,,,,,,,,,,,,,,,,,,,,,,,,,,,,,,,,,,,,,,,
,,6,0.0398,6,0.0398,0,34,34,9,1,176,cactus,tomato,,90050,001,2022-04-29_10h34.43.128,SPAMnetsValid,2021.1.4,Win32,60.17209218,,,,,,,,,,,,,,,,,,,,,,,,,,,,,,,,,,,,,,,,,,,,,,,,,,,,,,,,,,,,,,,,,,,,,,,,,,,,,,,,,,,,,,,,,
,,6,0.023,6,0.023,0,35,35,15,1,145,cactus,yogurt,,90050,001,2022-04-29_10h34.43.128,SPAMnetsValid,2021.1.4,Win32,60.17209218,,,,,,,,,,,,,,,,,,,,,,,,,,,,,,,,,,,,,,,,,,,,,,,,,,,,,,,,,,,,,,,,,,,,,,,,,,,,,,,,,,,,,,,,,
,,6,0.0546,6,0.0546,0,36,36,62,1,189,onion,tree,,90050,001,2022-04-29_10h34.43.128,SPAMnetsValid,2021.1.4,Win32,60.17209218,,,,,,,,,,,,,,,,,,,,,,,,,,,,,,,,,,,,,,,,,,,,,,,,,,,,,,,,,,,,,,,,,,,,,,,,,,,,,,,,,,,,,,,,,
,,6,0.0713,6,0.0713,0,37,37,14,1,120,microwave,oven,,90050,001,2022-04-29_10h34.43.128,SPAMnetsValid,2021.1.4,Win32,60.17209218,,,,,,,,,,,,,,,,,,,,,,,,,,,,,,,,,,,,,,,,,,,,,,,,,,,,,,,,,,,,,,,,,,,,,,,,,,,,,,,,,,,,,,,,,
,,6,0.0941,6,0.0941,0,38,38,70,1,141,melon,tomato,,90050,001,2022-04-29_10h34.43.128,SPAMnetsValid,2021.1.4,Win32,60.17209218,,,,,,,,,,,,,,,,,,,,,,,,,,,,,,,,,,,,,,,,,,,,,,,,,,,,,,,,,,,,,,,,,,,,,,,,,,,,,,,,,,,,,,,,,
,,7,0.3589,7,0.3589,0,39,39,60,1,122,flower,garden,,90050,001,2022-04-29_10h34.43.128,SPAMnetsValid,2021.1.4,Win32,60.17209218,,,,,,,,,,,,,,,,,,,,,,,,,,,,,,,,,,,,,,,,,,,,,,,,,,,,,,,,,,,,,,,,,,,,,,,,,,,,,,,,,,,,,,,,,
,,7,0.1612,7,0.1612,0,40,40,17,1,99,garden,melon,,90050,001,2022-04-29_10h34.43.128,SPAMnetsValid,2021.1.4,Win32,60.17209218,,,,,,,,,,,,,,,,,,,,,,,,,,,,,,,,,,,,,,,,,,,,,,,,,,,,,,,,,,,,,,,,,,,,,,,,,,,,,,,,,,,,,,,,,
,,7,0.293,7,0.293,0,41,41,19,1,183,cake,rose,,90050,001,2022-04-29_10h34.43.128,SPAMnetsValid,2021.1.4,Win32,60.17209218,,,,,,,,,,,,,,,,,,,,,,,,,,,,,,,,,,,,,,,,,,,,,,,,,,,,,,,,,,,,,,,,,,,,,,,,,,,,,,,,,,,,,,,,,
,,7,0.0666,7,0.0666,0,42,42,50,1,126,kitchen,tree,,90050,001,2022-04-29_10h34.43.128,SPAMnetsValid,2021.1.4,Win32,60.17209218,,,,,,,,,,,,,,,,,,,,,,,,,,,,,,,,,,,,,,,,,,,,,,,,,,,,,,,,,,,,,,,,,,,,,,,,,,,,,,,,,,,,,,,,,
,,7,0.1021,7,0.1021,0,43,43,73,1,135,carrot,oven,,90050,001,2022-04-29_10h34.43.128,SPAMnetsValid,2021.1.4,Win32,60.17209218,,,,,,,,,,,,,,,,,,,,,,,,,,,,,,,,,,,,,,,,,,,,,,,,,,,,,,,,,,,,,,,,,,,,,,,,,,,,,,,,,,,,,,,,,
,,7,0.083,7,0.083,0,44,44,11,1,117,melon,strawberry,,90050,001,2022-04-29_10h34.43.128,SPAMnetsValid,2021.1.4,Win32,60.17209218,,,,,,,,,,,,,,,,,,,,,,,,,,,,,,,,,,,,,,,,,,,,,,,,,,,,,,,,,,,,,,,,,,,,,,,,,,,,,,,,,,,,,,,,,
,,7,0.0685,7,0.0685,0,45,45,44,1,116,cake,chocolate,,90050,001,2022-04-29_10h34.43.128,SPAMnetsValid,2021.1.4,Win32,60.17209218,,,,,,,,,,,,,,,,,,,,,,,,,,,,,,,,,,,,,,,,,,,,,,,,,,,,,,,,,,,,,,,,,,,,,,,,,,,,,,,,,,,,,,,,,
,,7,0.0355,7,0.0355,0,46,46,89,1,140,cookie,refrigerator,,90050,001,2022-04-29_10h34.43.128,SPAMnetsValid,2021.1.4,Win32,60.17209218,,,,,,,,,,,,,,,,,,,,,,,,,,,,,,,,,,,,,,,,,,,,,,,,,,,,,,,,,,,,,,,,,,,,,,,,,,,,,,,,,,,,,,,,,
,,7,0.0829,7,0.0829,0,47,47,0,1,106,cake,strawberry,,90050,001,2022-04-29_10h34.43.128,SPAMnetsValid,2021.1.4,Win32,60.17209218,,,,,,,,,,,,,,,,,,,,,,,,,,,,,,,,,,,,,,,,,,,,,,,,,,,,,,,,,,,,,,,,,,,,,,,,,,,,,,,,,,,,,,,,,
,,6,0.219,6,0.219,0,48,48,30,1,125,carrot,tree,,90050,001,2022-04-29_10h34.43.128,SPAMnetsValid,2021.1.4,Win32,60.17209218,,,,,,,,,,,,,,,,,,,,,,,,,,,,,,,,,,,,,,,,,,,,,,,,,,,,,,,,,,,,,,,,,,,,,,,,,,,,,,,,,,,,,,,,,
,,6,0.429,6,0.429,0,49,49,93,1,134,carrot,flower,,90050,001,2022-04-29_10h34.43.128,SPAMnetsValid,2021.1.4,Win32,60.17209218,,,,,,,,,,,,,,,,,,,,,,,,,,,,,,,,,,,,,,,,,,,,,,,,,,,,,,,,,,,,,,,,,,,,,,,,,,,,,,,,,,,,,,,,,
,,6,0.2353,6,0.2353,0,50,50,43,1,185,cactus,rose,,90050,001,2022-04-29_10h34.43.128,SPAMnetsValid,2021.1.4,Win32,60.17209218,,,,,,,,,,,,,,,,,,,,,,,,,,,,,,,,,,,,,,,,,,,,,,,,,,,,,,,,,,,,,,,,,,,,,,,,,,,,,,,,,,,,,,,,,
,,7,0.3551,7,0.3551,0,51,51,32,1,182,flower,refrigerator,,90050,001,2022-04-29_10h34.43.128,SPAMnetsValid,2021.1.4,Win32,60.17209218,,,,,,,,,,,,,,,,,,,,,,,,,,,,,,,,,,,,,,,,,,,,,,,,,,,,,,,,,,,,,,,,,,,,,,,,,,,,,,,,,,,,,,,,,
,,7,0.1217,7,0.1217,0,52,52,33,1,131,cactus,garden,,90050,001,2022-04-29_10h34.43.128,SPAMnetsValid,2021.1.4,Win32,60.17209218,,,,,,,,,,,,,,,,,,,,,,,,,,,,,,,,,,,,,,,,,,,,,,,,,,,,,,,,,,,,,,,,,,,,,,,,,,,,,,,,,,,,,,,,,
,,7,0.069,7,0.069,0,53,53,58,1,144,cake,garden,,90050,001,2022-04-29_10h34.43.128,SPAMnetsValid,2021.1.4,Win32,60.17209218,,,,,,,,,,,,,,,,,,,,,,,,,,,,,,,,,,,,,,,,,,,,,,,,,,,,,,,,,,,,,,,,,,,,,,,,,,,,,,,,,,,,,,,,,
,,7,0.0866,7,0.0866,0,54,54,55,1,143,pretzel,rose,,90050,001,2022-04-29_10h34.43.128,SPAMnetsValid,2021.1.4,Win32,60.17209218,,,,,,,,,,,,,,,,,,,,,,,,,,,,,,,,,,,,,,,,,,,,,,,,,,,,,,,,,,,,,,,,,,,,,,,,,,,,,,,,,,,,,,,,,
,,7,0.0688,7,0.0688,0,55,55,16,1,111,carrot,microwave,,90050,001,2022-04-29_10h34.43.128,SPAMnetsValid,2021.1.4,Win32,60.17209218,,,,,,,,,,,,,,,,,,,,,,,,,,,,,,,,,,,,,,,,,,,,,,,,,,,,,,,,,,,,,,,,,,,,,,,,,,,,,,,,,,,,,,,,,
,,7,0.061,7,0.061,0,56,56,96,1,136,chocolate,microwave,,90050,001,2022-04-29_10h34.43.128,SPAMnetsValid,2021.1.4,Win32,60.17209218,,,,,,,,,,,,,,,,,,,,,,,,,,,,,,,,,,,,,,,,,,,,,,,,,,,,,,,,,,,,,,,,,,,,,,,,,,,,,,,,,,,,,,,,,
,,7,0.0277,7,0.0277,0,57,57,21,1,159,cookie,flower,,90050,001,2022-04-29_10h34.43.128,SPAMnetsValid,2021.1.4,Win32,60.17209218,,,,,,,,,,,,,,,,,,,,,,,,,,,,,,,,,,,,,,,,,,,,,,,,,,,,,,,,,,,,,,,,,,,,,,,,,,,,,,,,,,,,,,,,,
,,7,0.0608,7,0.0608,0,58,58,34,1,153,carrot,pretzel,,90050,001,2022-04-29_10h34.43.128,SPAMnetsValid,2021.1.4,Win32,60.17209218,,,,,,,,,,,,,,,,,,,,,,,,,,,,,,,,,,,,,,,,,,,,,,,,,,,,,,,,,,,,,,,,,,,,,,,,,,,,,,,,,,,,,,,,,
,,7,0.0211,7,0.0211,0,59,59,13,1,105,cactus,oven,,90050,001,2022-04-29_10h34.43.128,SPAMnetsValid,2021.1.4,Win32,60.17209218,,,,,,,,,,,,,,,,,,,,,,,,,,,,,,,,,,,,,,,,,,,,,,,,,,,,,,,,,,,,,,,,,,,,,,,,,,,,,,,,,,,,,,,,,
,,7,0.0192,7,0.0192,0,60,60,72,1,181,carrot,kitchen,,90050,001,2022-04-29_10h34.43.128,SPAMnetsValid,2021.1.4,Win32,60.17209218,,,,,,,,,,,,,,,,,,,,,,,,,,,,,,,,,,,,,,,,,,,,,,,,,,,,,,,,,,,,,,,,,,,,,,,,,,,,,,,,,,,,,,,,,
,,6,0.2213,6,0.2213,0,61,61,46,1,123,cookie,tree,,90050,001,2022-04-29_10h34.43.128,SPAMnetsValid,2021.1.4,Win32,60.17209218,,,,,,,,,,,,,,,,,,,,,,,,,,,,,,,,,,,,,,,,,,,,,,,,,,,,,,,,,,,,,,,,,,,,,,,,,,,,,,,,,,,,,,,,,
,,6,0.05,6,0.05,0,62,62,18,1,119,strawberry,tree,,90050,001,2022-04-29_10h34.43.128,SPAMnetsValid,2021.1.4,Win32,60.17209218,,,,,,,,,,,,,,,,,,,,,,,,,,,,,,,,,,,,,,,,,,,,,,,,,,,,,,,,,,,,,,,,,,,,,,,,,,,,,,,,,,,,,,,,,
,,7,0.2002,7,0.2002,0,63,63,22,1,142,garden,tree,,90050,001,2022-04-29_10h34.43.128,SPAMnetsValid,2021.1.4,Win32,60.17209218,,,,,,,,,,,,,,,,,,,,,,,,,,,,,,,,,,,,,,,,,,,,,,,,,,,,,,,,,,,,,,,,,,,,,,,,,,,,,,,,,,,,,,,,,
,,7,0.183,7,0.183,0,64,64,1,1,173,kitchen,tomato,,90050,001,2022-04-29_10h34.43.128,SPAMnetsValid,2021.1.4,Win32,60.17209218,,,,,,,,,,,,,,,,,,,,,,,,,,,,,,,,,,,,,,,,,,,,,,,,,,,,,,,,,,,,,,,,,,,,,,,,,,,,,,,,,,,,,,,,,
,,7,0.1594,7,0.1594,0,65,65,74,1,128,melon,microwave,,90050,001,2022-04-29_10h34.43.128,SPAMnetsValid,2021.1.4,Win32,60.17209218,,,,,,,,,,,,,,,,,,,,,,,,,,,,,,,,,,,,,,,,,,,,,,,,,,,,,,,,,,,,,,,,,,,,,,,,,,,,,,,,,,,,,,,,,
,,7,0.1098,7,0.1098,0,66,66,29,1,163,melon,refrigerator,,90050,001,2022-04-29_10h34.43.128,SPAMnetsValid,2021.1.4,Win32,60.17209218,,,,,,,,,,,,,,,,,,,,,,,,,,,,,,,,,,,,,,,,,,,,,,,,,,,,,,,,,,,,,,,,,,,,,,,,,,,,,,,,,,,,,,,,,
,,7,0.1354,7,0.1354,0,67,67,69,1,124,oven,refrigerator,,90050,001,2022-04-29_10h34.43.128,SPAMnetsValid,2021.1.4,Win32,60.17209218,,,,,,,,,,,,,,,,,,,,,,,,,,,,,,,,,,,,,,,,,,,,,,,,,,,,,,,,,,,,,,,,,,,,,,,,,,,,,,,,,,,,,,,,,
,,7,0.0847,7,0.0847,0,68,68,79,1,103,pretzel,tomato,,90050,001,2022-04-29_10h34.43.128,SPAMnetsValid,2021.1.4,Win32,60.17209218,,,,,,,,,,,,,,,,,,,,,,,,,,,,,,,,,,,,,,,,,,,,,,,,,,,,,,,,,,,,,,,,,,,,,,,,,,,,,,,,,,,,,,,,,
,,7,0.2106,7,0.2106,0,69,69,47,1,167,carrot,garden,,90050,001,2022-04-29_10h34.43.128,SPAMnetsValid,2021.1.4,Win32,60.17209218,,,,,,,,,,,,,,,,,,,,,,,,,,,,,,,,,,,,,,,,,,,,,,,,,,,,,,,,,,,,,,,,,,,,,,,,,,,,,,,,,,,,,,,,,
,,7,0.2022,7,0.2022,0,70,70,95,1,121,broom,microwave,,90050,001,2022-04-29_10h34.43.128,SPAMnetsValid,2021.1.4,Win32,60.17209218,,,,,,,,,,,,,,,,,,,,,,,,,,,,,,,,,,,,,,,,,,,,,,,,,,,,,,,,,,,,,,,,,,,,,,,,,,,,,,,,,,,,,,,,,
,,7,0.3496,7,0.3496,0,71,71,40,1,165,onion,rose,,90050,001,2022-04-29_10h34.43.128,SPAMnetsValid,2021.1.4,Win32,60.17209218,,,,,,,,,,,,,,,,,,,,,,,,,,,,,,,,,,,,,,,,,,,,,,,,,,,,,,,,,,,,,,,,,,,,,,,,,,,,,,,,,,,,,,,,,
,,7,0.0517,7,0.0517,0,72,72,65,1,160,cookie,kitchen,,90050,001,2022-04-29_10h34.43.128,SPAMnetsValid,2021.1.4,Win32,60.17209218,,,,,,,,,,,,,,,,,,,,,,,,,,,,,,,,,,,,,,,,,,,,,,,,,,,,,,,,,,,,,,,,,,,,,,,,,,,,,,,,,,,,,,,,,
,,7,0.0754,7,0.0754,0,73,73,87,1,114,cookie,strawberry,,90050,001,2022-04-29_10h34.43.128,SPAMnetsValid,2021.1.4,Win32,60.17209218,,,,,,,,,,,,,,,,,,,,,,,,,,,,,,,,,,,,,,,,,,,,,,,,,,,,,,,,,,,,,,,,,,,,,,,,,,,,,,,,,,,,,,,,,
,,7,0.0577,7,0.0577,0,74,74,84,1,130,microwave,yogurt,,90050,001,2022-04-29_10h34.43.128,SPAMnetsValid,2021.1.4,Win32,60.17209218,,,,,,,,,,,,,,,,,,,,,,,,,,,,,,,,,,,,,,,,,,,,,,,,,,,,,,,,,,,,,,,,,,,,,,,,,,,,,,,,,,,,,,,,,
,,7,0.2316,7,0.2316,0,75,75,49,1,152,cactus,strawberry,,90050,001,2022-04-29_10h34.43.128,SPAMnetsValid,2021.1.4,Win32,60.17209218,,,,,,,,,,,,,,,,,,,,,,,,,,,,,,,,,,,,,,,,,,,,,,,,,,,,,,,,,,,,,,,,,,,,,,,,,,,,,,,,,,,,,,,,,
,,7,0.2304,7,0.2304,0,76,76,56,1,113,refrigerator,strawberry,,90050,001,2022-04-29_10h34.43.128,SPAMnetsValid,2021.1.4,Win32,60.17209218,,,,,,,,,,,,,,,,,,,,,,,,,,,,,,,,,,,,,,,,,,,,,,,,,,,,,,,,,,,,,,,,,,,,,,,,,,,,,,,,,,,,,,,,,
,,7,0.1807,7,0.1807,0,77,77,76,1,102,chocolate,refrigerator,,90050,001,2022-04-29_10h34.43.128,SPAMnetsValid,2021.1.4,Win32,60.17209218,,,,,,,,,,,,,,,,,,,,,,,,,,,,,,,,,,,,,,,,,,,,,,,,,,,,,,,,,,,,,,,,,,,,,,,,,,,,,,,,,,,,,,,,,
,,7,0.1619,7,0.1619,0,78,78,68,1,180,tree,yogurt,,90050,001,2022-04-29_10h34.43.128,SPAMnetsValid,2021.1.4,Win32,60.17209218,,,,,,,,,,,,,,,,,,,,,,,,,,,,,,,,,,,,,,,,,,,,,,,,,,,,,,,,,,,,,,,,,,,,,,,,,,,,,,,,,,,,,,,,,
,,7,0.1453,7,0.1453,0,79,79,36,1,161,kitchen,pretzel,,90050,001,2022-04-29_10h34.43.128,SPAMnetsValid,2021.1.4,Win32,60.17209218,,,,,,,,,,,,,,,,,,,,,,,,,,,,,,,,,,,,,,,,,,,,,,,,,,,,,,,,,,,,,,,,,,,,,,,,,,,,,,,,,,,,,,,,,
,,7,0.1374,7,0.1374,0,80,80,86,1,193,melon,melon,CHECK,90050,001,2022-04-29_10h34.43.128,SPAMnetsValid,2021.1.4,Win32,60.17209218,,,,,,,,,,,,,,,,,,,,,,,,,,,,,,,,,,,,,,,,,,,,,,,,,,,,,,,,,,,,,,,,,,,,,,,,,,,,,,,,,,,,,,,,,
,,7,0.1098,7,0.1098,0,81,81,80,1,146,pretzel,tree,,90050,001,2022-04-29_10h34.43.128,SPAMnetsValid,2021.1.4,Win32,60.17209218,,,,,,,,,,,,,,,,,,,,,,,,,,,,,,,,,,,,,,,,,,,,,,,,,,,,,,,,,,,,,,,,,,,,,,,,,,,,,,,,,,,,,,,,,
,,7,0.2607,7,0.2607,0,82,82,71,1,187,cactus,microwave,,90050,001,2022-04-29_10h34.43.128,SPAMnetsValid,2021.1.4,Win32,60.17209218,,,,,,,,,,,,,,,,,,,,,,,,,,,,,,,,,,,,,,,,,,,,,,,,,,,,,,,,,,,,,,,,,,,,,,,,,,,,,,,,,,,,,,,,,
,,7,0.2616,7,0.2616,0,83,83,66,1,150,microwave,refrigerator,,90050,001,2022-04-29_10h34.43.128,SPAMnetsValid,2021.1.4,Win32,60.17209218,,,,,,,,,,,,,,,,,,,,,,,,,,,,,,,,,,,,,,,,,,,,,,,,,,,,,,,,,,,,,,,,,,,,,,,,,,,,,,,,,,,,,,,,,
,,7,0.1097,7,0.1097,0,84,84,4,1,109,broom,strawberry,,90050,001,2022-04-29_10h34.43.128,SPAMnetsValid,2021.1.4,Win32,60.17209218,,,,,,,,,,,,,,,,,,,,,,,,,,,,,,,,,,,,,,,,,,,,,,,,,,,,,,,,,,,,,,,,,,,,,,,,,,,,,,,,,,,,,,,,,
,,7,0.2357,7,0.2357,0,85,85,51,1,168,cactus,flower,,90050,001,2022-04-29_10h34.43.128,SPAMnetsValid,2021.1.4,Win32,60.17209218,,,,,,,,,,,,,,,,,,,,,,,,,,,,,,,,,,,,,,,,,,,,,,,,,,,,,,,,,,,,,,,,,,,,,,,,,,,,,,,,,,,,,,,,,
,,7,0.058,7,0.058,0,86,86,94,1,133,cake,flower,,90050,001,2022-04-29_10h34.43.128,SPAMnetsValid,2021.1.4,Win32,60.17209218,,,,,,,,,,,,,,,,,,,,,,,,,,,,,,,,,,,,,,,,,,,,,,,,,,,,,,,,,,,,,,,,,,,,,,,,,,,,,,,,,,,,,,,,,
,,7,0.036,7,0.036,0,87,87,26,1,107,rose,tomato,,90050,001,2022-04-29_10h34.43.128,SPAMnetsValid,2021.1.4,Win32,60.17209218,,,,,,,,,,,,,,,,,,,,,,,,,,,,,,,,,,,,,,,,,,,,,,,,,,,,,,,,,,,,,,,,,,,,,,,,,,,,,,,,,,,,,,,,,
,,6,0.4482,6,0.4482,0,88,88,83,1,100,garden,tomato,,90050,001,2022-04-29_10h34.43.128,SPAMnetsValid,2021.1.4,Win32,60.17209218,,,,,,,,,,,,,,,,,,,,,,,,,,,,,,,,,,,,,,,,,,,,,,,,,,,,,,,,,,,,,,,,,,,,,,,,,,,,,,,,,,,,,,,,,
,,6,0.1464,6,0.1464,0,89,89,35,1,147,cake,refrigerator,,90050,001,2022-04-29_10h34.43.128,SPAMnetsValid,2021.1.4,Win32,60.17209218,,,,,,,,,,,,,,,,,,,,,,,,,,,,,,,,,,,,,,,,,,,,,,,,,,,,,,,,,,,,,,,,,,,,,,,,,,,,,,,,,,,,,,,,,
,,6,0.1629,6,0.1629,0,90,90,67,1,96,oven,strawberry,,90050,001,2022-04-29_10h34.43.128,SPAMnetsValid,2021.1.4,Win32,60.17209218,,,,,,,,,,,,,,,,,,,,,,,,,,,,,,,,,,,,,,,,,,,,,,,,,,,,,,,,,,,,,,,,,,,,,,,,,,,,,,,,,,,,,,,,,
,,6,0.1697,6,0.1697,0,91,91,28,1,154,strawberry,yogurt,,90050,001,2022-04-29_10h34.43.128,SPAMnetsValid,2021.1.4,Win32,60.17209218,,,,,,,,,,,,,,,,,,,,,,,,,,,,,,,,,,,,,,,,,,,,,,,,,,,,,,,,,,,,,,,,,,,,,,,,,,,,,,,,,,,,,,,,,
,,6,0.1357,6,0.1357,0,92,92,91,1,166,cake,yogurt,,90050,001,2022-04-29_10h34.43.128,SPAMnetsValid,2021.1.4,Win32,60.17209218,,,,,,,,,,,,,,,,,,,,,,,,,,,,,,,,,,,,,,,,,,,,,,,,,,,,,,,,,,,,,,,,,,,,,,,,,,,,,,,,,,,,,,,,,
,,6,0.1101,6,0.1101,0,93,93,77,1,172,kitchen,melon,,90050,001,2022-04-29_10h34.43.128,SPAMnetsValid,2021.1.4,Win32,60.17209218,,,,,,,,,,,,,,,,,,,,,,,,,,,,,,,,,,,,,,,,,,,,,,,,,,,,,,,,,,,,,,,,,,,,,,,,,,,,,,,,,,,,,,,,,
,,7,0.1453,7,0.1453,0,94,94,88,1,171,cake,tomato,,90050,001,2022-04-29_10h34.43.128,SPAMnetsValid,2021.1.4,Win32,60.17209218,,,,,,,,,,,,,,,,,,,,,,,,,,,,,,,,,,,,,,,,,,,,,,,,,,,,,,,,,,,,,,,,,,,,,,,,,,,,,,,,,,,,,,,,,
,,7,0.1433,7,0.1433,0,95,95,12,1,162,microwave,tomato,,90050,001,2022-04-29_10h34.43.128,SPAMnetsValid,2021.1.4,Win32,60.17209218,,,,,,,,,,,,,,,,,,,,,,,,,,,,,,,,,,,,,,,,,,,,,,,,,,,,,,,,,,,,,,,,,,,,,,,,,,,,,,,,,,,,,,,,,
,,7,1.558,7,1.558,0,96,96,5,1,108,carrot,chocolate,,90050,001,2022-04-29_10h34.43.128,SPAMnetsValid,2021.1.4,Win32,60.17209218,,,,,,,,,,,,,,,,,,,,,,,,,,,,,,,,,,,,,,,,,,,,,,,,,,,,,,,,,,,,,,,,,,,,,,,,,,,,,,,,,,,,,,,,,
,,,,,,,,,,,,,,,90050,001,2022-04-29_10h34.43.128,SPAMnetsValid,2021.1.4,Win32,60.17209218,0,0,0,0,1,,,,,,,,,,,,,,,,,,,,,,,,,,,,,,,,,,,,,,,,,,,,,,,,,,,,,,,,,,,,,,,,,,,,,,,,,,,,,,,,,,,,
,,,,,,,,,,,,,,,90050,001,2022-04-29_10h34.43.128,SPAMnetsValid,2021.1.4,Win32,60.17209218,,,,,,0,0,0,1,1,0,1,,,,,,,,,,,,,,,,,,,,,,,,,,,,,,,,,,,,,,,,,,,,,,,,,,,,,,,,,,,,,,,,,,,,,,,,,,,,,
,,,,7,1.8158,,,,,,52,carrot,tomato,,90050,001,2022-04-29_10h34.43.128,SPAMnetsValid,2021.1.4,Win32,60.17209218,,,,,,,,,,,,,7,1.8158,0,0,0,95,1,,,,,,,,,,,,,,,,,,,,,,,,,,,,,,,,,,,,,,,,,,,,,,,,,,,,,,,,,,,,,,,,,,,,,,
,,,,7,0.2689,,,,,,21,cake,onion,,90050,001,2022-04-29_10h34.43.128,SPAMnetsValid,2021.1.4,Win32,60.17209218,,,,,,,,,,,,,7,0.2689,0,1,1,63,1,,,,,,,,,,,,,,,,,,,,,,,,,,,,,,,,,,,,,,,,,,,,,,,,,,,,,,,,,,,,,,,,,,,,,,
,,,,7,0.0686,,,,,,43,chocolate,tomato,,90050,001,2022-04-29_10h34.43.128,SPAMnetsValid,2021.1.4,Win32,60.17209218,,,,,,,,,,,,,7,0.0686,0,2,2,8,1,,,,,,,,,,,,,,,,,,,,,,,,,,,,,,,,,,,,,,,,,,,,,,,,,,,,,,,,,,,,,,,,,,,,,,
,,,,7,0.0522,,,,,,69,carrot,refrigerator,,90050,001,2022-04-29_10h34.43.128,SPAMnetsValid,2021.1.4,Win32,60.17209218,,,,,,,,,,,,,7,0.0522,0,3,3,75,1,,,,,,,,,,,,,,,,,,,,,,,,,,,,,,,,,,,,,,,,,,,,,,,,,,,,,,,,,,,,,,,,,,,,,,
,,,,7,0.0816,,,,,,40,broom,cake,,90050,001,2022-04-29_10h34.43.128,SPAMnetsValid,2021.1.4,Win32,60.17209218,,,,,,,,,,,,,7,0.0816,0,4,4,32,1,,,,,,,,,,,,,,,,,,,,,,,,,,,,,,,,,,,,,,,,,,,,,,,,,,,,,,,,,,,,,,,,,,,,,,
,,,,7,0.0381,,,,,,62,kitchen,rose,,90050,001,2022-04-29_10h34.43.128,SPAMnetsValid,2021.1.4,Win32,60.17209218,,,,,,,,,,,,,7,0.0381,0,5,5,57,1,,,,,,,,,,,,,,,,,,,,,,,,,,,,,,,,,,,,,,,,,,,,,,,,,,,,,,,,,,,,,,,,,,,,,,
,,,,7,0.168,,,,,,90,cactus,cake,,90050,001,2022-04-29_10h34.43.128,SPAMnetsValid,2021.1.4,Win32,60.17209218,,,,,,,,,,,,,7,0.168,0,6,6,85,1,,,,,,,,,,,,,,,,,,,,,,,,,,,,,,,,,,,,,,,,,,,,,,,,,,,,,,,,,,,,,,,,,,,,,,
,,,,7,0.1089,,,,,,4,chocolate,pretzel,,90050,001,2022-04-29_10h34.43.128,SPAMnetsValid,2021.1.4,Win32,60.17209218,,,,,,,,,,,,,7,0.1089,0,7,7,52,1,,,,,,,,,,,,,,,,,,,,,,,,,,,,,,,,,,,,,,,,,,,,,,,,,,,,,,,,,,,,,,,,,,,,,,
,,,,7,0.102,,,,,,56,cactus,tree,,90050,001,2022-04-29_10h34.43.128,SPAMnetsValid,2021.1.4,Win32,60.17209218,,,,,,,,,,,,,7,0.102,0,8,8,21,1,,,,,,,,,,,,,,,,,,,,,,,,,,,,,,,,,,,,,,,,,,,,,,,,,,,,,,,,,,,,,,,,,,,,,,
,,,,7,0.1162,,,,,,71,broom,rose,,90050,001,2022-04-29_10h34.43.128,SPAMnetsValid,2021.1.4,Win32,60.17209218,,,,,,,,,,,,,7,0.1162,0,9,9,61,1,,,,,,,,,,,,,,,,,,,,,,,,,,,,,,,,,,,,,,,,,,,,,,,,,,,,,,,,,,,,,,,,,,,,,,
,,,,7,0.0913,,,,,,83,broom,carrot,,90050,001,2022-04-29_10h34.43.128,SPAMnetsValid,2021.1.4,Win32,60.17209218,,,,,,,,,,,,,7,0.0913,0,10,10,4,1,,,,,,,,,,,,,,,,,,,,,,,,,,,,,,,,,,,,,,,,,,,,,,,,,,,,,,,,,,,,,,,,,,,,,,
,,,,7,0.1302,,,,,,25,carrot,onion,,90050,001,2022-04-29_10h34.43.128,SPAMnetsValid,2021.1.4,Win32,60.17209218,,,,,,,,,,,,,7,0.1302,0,11,11,44,1,,,,,,,,,,,,,,,,,,,,,,,,,,,,,,,,,,,,,,,,,,,,,,,,,,,,,,,,,,,,,,,,,,,,,,
,,,,7,0.048,,,,,,87,carrot,yogurt,,90050,001,2022-04-29_10h34.43.128,SPAMnetsValid,2021.1.4,Win32,60.17209218,,,,,,,,,,,,,7,0.048,0,12,12,6,1,,,,,,,,,,,,,,,,,,,,,,,,,,,,,,,,,,,,,,,,,,,,,,,,,,,,,,,,,,,,,,,,,,,,,,
,,,,7,0.0854,,,,,,2,kitchen,onion,,90050,001,2022-04-29_10h34.43.128,SPAMnetsValid,2021.1.4,Win32,60.17209218,,,,,,,,,,,,,7,0.0854,0,13,13,91,1,,,,,,,,,,,,,,,,,,,,,,,,,,,,,,,,,,,,,,,,,,,,,,,,,,,,,,,,,,,,,,,,,,,,,,
,,,,7,0.0762,,,,,,7,melon,tree,,90050,001,2022-04-29_10h34.43.128,SPAMnetsValid,2021.1.4,Win32,60.17209218,,,,,,,,,,,,,7,0.0762,0,14,14,77,1,,,,,,,,,,,,,,,,,,,,,,,,,,,,,,,,,,,,,,,,,,,,,,,,,,,,,,,,,,,,,,,,,,,,,,
,,,,7,0.0913,,,,,,19,microwave,pretzel,,90050,001,2022-04-29_10h34.43.128,SPAMnetsValid,2021.1.4,Win32,60.17209218,,,,,,,,,,,,,7,0.0913,0,15,15,41,1,,,,,,,,,,,,,,,,,,,,,,,,,,,,,,,,,,,,,,,,,,,,,,,,,,,,,,,,,,,,,,,,,,,,,,
,,,,7,0.0855,,,,,,39,melon,pretzel,,90050,001,2022-04-29_10h34.43.128,SPAMnetsValid,2021.1.4,Win32,60.17209218,,,,,,,,,,,,,7,0.0855,0,16,16,20,1,,,,,,,,,,,,,,,,,,,,,,,,,,,,,,,,,,,,,,,,,,,,,,,,,,,,,,,,,,,,,,,,,,,,,,
,,,,7,0.0515,,,,,,86,oven,rose,,90050,001,2022-04-29_10h34.43.128,SPAMnetsValid,2021.1.4,Win32,60.17209218,,,,,,,,,,,,,7,0.0515,0,17,17,79,1,,,,,,,,,,,,,,,,,,,,,,,,,,,,,,,,,,,,,,,,,,,,,,,,,,,,,,,,,,,,,,,,,,,,,,
,,,,7,0.1018,,,,,,72,broom,onion,,90050,001,2022-04-29_10h34.43.128,SPAMnetsValid,2021.1.4,Win32,60.17209218,,,,,,,,,,,,,7,0.1018,0,18,18,27,1,,,,,,,,,,,,,,,,,,,,,,,,,,,,,,,,,,,,,,,,,,,,,,,,,,,,,,,,,,,,,,,,,,,,,,
,,,,7,0.0691,,,,,,76,garden,rose,,90050,001,2022-04-29_10h34.43.128,SPAMnetsValid,2021.1.4,Win32,60.17209218,,,,,,,,,,,,,7,0.0691,0,19,19,19,1,,,,,,,,,,,,,,,,,,,,,,,,,,,,,,,,,,,,,,,,,,,,,,,,,,,,,,,,,,,,,,,,,,,,,,
,,,,7,0.0686,,,,,,31,cactus,pretzel,,90050,001,2022-04-29_10h34.43.128,SPAMnetsValid,2021.1.4,Win32,60.17209218,,,,,,,,,,,,,7,0.0686,0,20,20,1,1,,,,,,,,,,,,,,,,,,,,,,,,,,,,,,,,,,,,,,,,,,,,,,,,,,,,,,,,,,,,,,,,,,,,,,
,,,,7,0.0494,,,,,,74,broom,pretzel,,90050,001,2022-04-29_10h34.43.128,SPAMnetsValid,2021.1.4,Win32,60.17209218,,,,,,,,,,,,,7,0.0494,0,21,21,40,1,,,,,,,,,,,,,,,,,,,,,,,,,,,,,,,,,,,,,,,,,,,,,,,,,,,,,,,,,,,,,,,,,,,,,,
,,,,7,0.0188,,,,,,67,flower,yogurt,,90050,001,2022-04-29_10h34.43.128,SPAMnetsValid,2021.1.4,Win32,60.17209218,,,,,,,,,,,,,7,0.0188,0,22,22,12,1,,,,,,,,,,,,,,,,,,,,,,,,,,,,,,,,,,,,,,,,,,,,,,,,,,,,,,,,,,,,,,,,,,,,,,
,,,,7,0.0616,,,,,,16,chocolate,flower,,90050,001,2022-04-29_10h34.43.128,SPAMnetsValid,2021.1.4,Win32,60.17209218,,,,,,,,,,,,,7,0.0616,0,23,23,22,1,,,,,,,,,,,,,,,,,,,,,,,,,,,,,,,,,,,,,,,,,,,,,,,,,,,,,,,,,,,,,,,,,,,,,,
,,,,7,0.0401,,,,,,14,broom,cookie,,90050,001,2022-04-29_10h34.43.128,SPAMnetsValid,2021.1.4,Win32,60.17209218,,,,,,,,,,,,,7,0.0401,0,24,24,16,1,,,,,,,,,,,,,,,,,,,,,,,,,,,,,,,,,,,,,,,,,,,,,,,,,,,,,,,,,,,,,,,,,,,,,,
,,,,7,0.2386,,,,,,46,garden,yogurt,,90050,001,2022-04-29_10h34.43.128,SPAMnetsValid,2021.1.4,Win32,60.17209218,,,,,,,,,,,,,7,0.2386,0,25,25,65,1,,,,,,,,,,,,,,,,,,,,,,,,,,,,,,,,,,,,,,,,,,,,,,,,,,,,,,,,,,,,,,,,,,,,,,
,,,,7,0.3576,,,,,,38,pretzel,refrigerator,,90050,001,2022-04-29_10h34.43.128,SPAMnetsValid,2021.1.4,Win32,60.17209218,,,,,,,,,,,,,7,0.3576,0,26,26,71,1,,,,,,,,,,,,,,,,,,,,,,,,,,,,,,,,,,,,,,,,,,,,,,,,,,,,,,,,,,,,,,,,,,,,,,
,,,,7,0.132,,,,,,54,chocolate,yogurt,,90050,001,2022-04-29_10h34.43.128,SPAMnetsValid,2021.1.4,Win32,60.17209218,,,,,,,,,,,,,7,0.132,0,27,27,67,1,,,,,,,,,,,,,,,,,,,,,,,,,,,,,,,,,,,,,,,,,,,,,,,,,,,,,,,,,,,,,,,,,,,,,,
,,,,7,0.1326,,,,,,84,oven,tomato,,90050,001,2022-04-29_10h34.43.128,SPAMnetsValid,2021.1.4,Win32,60.17209218,,,,,,,,,,,,,7,0.1326,0,28,28,28,1,,,,,,,,,,,,,,,,,,,,,,,,,,,,,,,,,,,,,,,,,,,,,,,,,,,,,,,,,,,,,,,,,,,,,,
,,,,7,0.2417,,,,,,28,cake,melon,,90050,001,2022-04-29_10h34.43.128,SPAMnetsValid,2021.1.4,Win32,60.17209218,,,,,,,,,,,,,7,0.2417,0,29,29,54,1,,,,,,,,,,,,,,,,,,,,,,,,,,,,,,,,,,,,,,,,,,,,,,,,,,,,,,,,,,,,,,,,,,,,,,
,,,,7,0.0185,,,,,,191,cake,cake,CHECK,90050,001,2022-04-29_10h34.43.128,SPAMnetsValid,2021.1.4,Win32,60.17209218,,,,,,,,,,,,,7,0.0185,0,30,30,10,1,,,,,,,,,,,,,,,,,,,,,,,,,,,,,,,,,,,,,,,,,,,,,,,,,,,,,,,,,,,,,,,,,,,,,,
,,,,7,0.0729,,,,,,24,cookie,tomato,,90050,001,2022-04-29_10h34.43.128,SPAMnetsValid,2021.1.4,Win32,60.17209218,,,,,,,,,,,,,7,0.0729,0,31,31,68,1,,,,,,,,,,,,,,,,,,,,,,,,,,,,,,,,,,,,,,,,,,,,,,,,,,,,,,,,,,,,,,,,,,,,,,
,,,,7,0.0625,,,,,,27,cactus,cookie,,90050,001,2022-04-29_10h34.43.128,SPAMnetsValid,2021.1.4,Win32,60.17209218,,,,,,,,,,,,,7,0.0625,0,32,32,17,1,,,,,,,,,,,,,,,,,,,,,,,,,,,,,,,,,,,,,,,,,,,,,,,,,,,,,,,,,,,,,,,,,,,,,,
,,,,7,0.0519,,,,,,20,rose,tree,,90050,001,2022-04-29_10h34.43.128,SPAMnetsValid,2021.1.4,Win32,60.17209218,,,,,,,,,,,,,7,0.0519,0,33,33,66,1,,,,,,,,,,,,,,,,,,,,,,,,,,,,,,,,,,,,,,,,,,,,,,,,,,,,,,,,,,,,,,,,,,,,,,
,,,,7,0.0285,,,,,,15,onion,oven,,90050,001,2022-04-29_10h34.43.128,SPAMnetsValid,2021.1.4,Win32,60.17209218,,,,,,,,,,,,,7,0.0285,0,34,34,39,1,,,,,,,,,,,,,,,,,,,,,,,,,,,,,,,,,,,,,,,,,,,,,,,,,,,,,,,,,,,,,,,,,,,,,,
,,,,7,0.3666,,,,,,26,tomato,yogurt,,90050,001,2022-04-29_10h34.43.128,SPAMnetsValid,2021.1.4,Win32,60.17209218,,,,,,,,,,,,,7,0.3666,0,35,35,13,1,,,,,,,,,,,,,,,,,,,,,,,,,,,,,,,,,,,,,,,,,,,,,,,,,,,,,,,,,,,,,,,,,,,,,,
,,,,6,0.0795,,,,,,49,flower,strawberry,,90050,001,2022-04-29_10h34.43.128,SPAMnetsValid,2021.1.4,Win32,60.17209218,,,,,,,,,,,,,6,0.0795,0,36,36,3,1,,,,,,,,,,,,,,,,,,,,,,,,,,,,,,,,,,,,,,,,,,,,,,,,,,,,,,,,,,,,,,,,,,,,,,
,,,,6,0.0782,,,,,,80,chocolate,tree,,90050,001,2022-04-29_10h34.43.128,SPAMnetsValid,2021.1.4,Win32,60.17209218,,,,,,,,,,,,,6,0.0782,0,37,37,89,1,,,,,,,,,,,,,,,,,,,,,,,,,,,,,,,,,,,,,,,,,,,,,,,,,,,,,,,,,,,,,,,,,,,,,,
,,,,6,0.0923,,,,,,63,cake,cookie,,90050,001,2022-04-29_10h34.43.128,SPAMnetsValid,2021.1.4,Win32,60.17209218,,,,,,,,,,,,,6,0.0923,0,38,38,93,1,,,,,,,,,,,,,,,,,,,,,,,,,,,,,,,,,,,,,,,,,,,,,,,,,,,,,,,,,,,,,,,,,,,,,,
,,,,6,0.0362,,,,,,95,broom,refrigerator,,90050,001,2022-04-29_10h34.43.128,SPAMnetsValid,2021.1.4,Win32,60.17209218,,,,,,,,,,,,,6,0.0362,0,39,39,90,1,,,,,,,,,,,,,,,,,,,,,,,,,,,,,,,,,,,,,,,,,,,,,,,,,,,,,,,,,,,,,,,,,,,,,,
,,,,6,0.0485,,,,,,89,chocolate,rose,,90050,001,2022-04-29_10h34.43.128,SPAMnetsValid,2021.1.4,Win32,60.17209218,,,,,,,,,,,,,6,0.0485,0,40,40,60,1,,,,,,,,,,,,,,,,,,,,,,,,,,,,,,,,,,,,,,,,,,,,,,,,,,,,,,,,,,,,,,,,,,,,,,
,,,,6,0.0187,,,,,,192,microwave,microwave,CHECK,90050,001,2022-04-29_10h34.43.128,SPAMnetsValid,2021.1.4,Win32,60.17209218,,,,,,,,,,,,,6,0.0187,0,41,41,53,1,,,,,,,,,,,,,,,,,,,,,,,,,,,,,,,,,,,,,,,,,,,,,,,,,,,,,,,,,,,,,,,,,,,,,,
,,,,6,0.019,,,,,,64,chocolate,garden,,90050,001,2022-04-29_10h34.43.128,SPAMnetsValid,2021.1.4,Win32,60.17209218,,,,,,,,,,,,,6,0.019,0,42,42,14,1,,,,,,,,,,,,,,,,,,,,,,,,,,,,,,,,,,,,,,,,,,,,,,,,,,,,,,,,,,,,,,,,,,,,,,
,,,,6,0.204,,,,,,45,onion,pretzel,,90050,001,2022-04-29_10h34.43.128,SPAMnetsValid,2021.1.4,Win32,60.17209218,,,,,,,,,,,,,6,0.204,0,43,43,69,1,,,,,,,,,,,,,,,,,,,,,,,,,,,,,,,,,,,,,,,,,,,,,,,,,,,,,,,,,,,,,,,,,,,,,,
,,,,6,0.1635,,,,,,51,onion,strawberry,,90050,001,2022-04-29_10h34.43.128,SPAMnetsValid,2021.1.4,Win32,60.17209218,,,,,,,,,,,,,6,0.1635,0,44,44,86,1,,,,,,,,,,,,,,,,,,,,,,,,,,,,,,,,,,,,,,,,,,,,,,,,,,,,,,,,,,,,,,,,,,,,,,
,,,,6,0.1856,,,,,,53,garden,pretzel,,90050,001,2022-04-29_10h34.43.128,SPAMnetsValid,2021.1.4,Win32,60.17209218,,,,,,,,,,,,,6,0.1856,0,45,45,0,1,,,,,,,,,,,,,,,,,,,,,,,,,,,,,,,,,,,,,,,,,,,,,,,,,,,,,,,,,,,,,,,,,,,,,,
,,,,6,0.2194,,,,,,77,refrigerator,yogurt,,90050,001,2022-04-29_10h34.43.128,SPAMnetsValid,2021.1.4,Win32,60.17209218,,,,,,,,,,,,,6,0.2194,0,46,46,42,1,,,,,,,,,,,,,,,,,,,,,,,,,,,,,,,,,,,,,,,,,,,,,,,,,,,,,,,,,,,,,,,,,,,,,,
,,,,6,0.177,,,,,,18,onion,refrigerator,,90050,001,2022-04-29_10h34.43.128,SPAMnetsValid,2021.1.4,Win32,60.17209218,,,,,,,,,,,,,6,0.177,0,47,47,62,1,,,,,,,,,,,,,,,,,,,,,,,,,,,,,,,,,,,,,,,,,,,,,,,,,,,,,,,,,,,,,,,,,,,,,,
,,,,6,0.1854,,,,,,68,flower,tomato,,90050,001,2022-04-29_10h34.43.128,SPAMnetsValid,2021.1.4,Win32,60.17209218,,,,,,,,,,,,,6,0.1854,0,48,48,94,1,,,,,,,,,,,,,,,,,,,,,,,,,,,,,,,,,,,,,,,,,,,,,,,,,,,,,,,,,,,,,,,,,,,,,,
,,,,6,0.1812,,,,,,32,cake,microwave,,90050,001,2022-04-29_10h34.43.128,SPAMnetsValid,2021.1.4,Win32,60.17209218,,,,,,,,,,,,,6,0.1812,0,49,49,33,1,,,,,,,,,,,,,,,,,,,,,,,,,,,,,,,,,,,,,,,,,,,,,,,,,,,,,,,,,,,,,,,,,,,,,,
,,,,6,0.1646,,,,,,85,cake,tree,,90050,001,2022-04-29_10h34.43.128,SPAMnetsValid,2021.1.4,Win32,60.17209218,,,,,,,,,,,,,6,0.1646,0,50,50,18,1,,,,,,,,,,,,,,,,,,,,,,,,,,,,,,,,,,,,,,,,,,,,,,,,,,,,,,,,,,,,,,,,,,,,,,
,,,,6,0.0977,,,,,,23,flower,microwave,,90050,001,2022-04-29_10h34.43.128,SPAMnetsValid,2021.1.4,Win32,60.17209218,,,,,,,,,,,,,6,0.0977,0,51,51,25,1,,,,,,,,,,,,,,,,,,,,,,,,,,,,,,,,,,,,,,,,,,,,,,,,,,,,,,,,,,,,,,,,,,,,,,
,,,,6,0.0794,,,,,,1,rose,yogurt,,90050,001,2022-04-29_10h34.43.128,SPAMnetsValid,2021.1.4,Win32,60.17209218,,,,,,,,,,,,,6,0.0794,0,52,52,55,1,,,,,,,,,,,,,,,,,,,,,,,,,,,,,,,,,,,,,,,,,,,,,,,,,,,,,,,,,,,,,,,,,,,,,,
,,,,6,0.0692,,,,,,44,cookie,melon,,90050,001,2022-04-29_10h34.43.128,SPAMnetsValid,2021.1.4,Win32,60.17209218,,,,,,,,,,,,,6,0.0692,0,53,53,92,1,,,,,,,,,,,,,,,,,,,,,,,,,,,,,,,,,,,,,,,,,,,,,,,,,,,,,,,,,,,,,,,,,,,,,,
,,,,6,0.1353,,,,,,36,broom,kitchen,,90050,001,2022-04-29_10h34.43.128,SPAMnetsValid,2021.1.4,Win32,60.17209218,,,,,,,,,,,,,6,0.1353,0,54,54,76,1,,,,,,,,,,,,,,,,,,,,,,,,,,,,,,,,,,,,,,,,,,,,,,,,,,,,,,,,,,,,,,,,,,,,,,
,,,,6,0.1228,,,,,,12,cookie,yogurt,,90050,001,2022-04-29_10h34.43.128,SPAMnetsValid,2021.1.4,Win32,60.17209218,,,,,,,,,,,,,6,0.1228,0,55,55,36,1,,,,,,,,,,,,,,,,,,,,,,,,,,,,,,,,,,,,,,,,,,,,,,,,,,,,,,,,,,,,,,,,,,,,,,
,,,,6,0.1294,,,,,,22,kitchen,strawberry,,90050,001,2022-04-29_10h34.43.128,SPAMnetsValid,2021.1.4,Win32,60.17209218,,,,,,,,,,,,,6,0.1294,0,56,56,2,1,,,,,,,,,,,,,,,,,,,,,,,,,,,,,,,,,,,,,,,,,,,,,,,,,,,,,,,,,,,,,,,,,,,,,,
,,,,6,0.1256,,,,,,59,rose,strawberry,,90050,001,2022-04-29_10h34.43.128,SPAMnetsValid,2021.1.4,Win32,60.17209218,,,,,,,,,,,,,6,0.1256,0,57,57,72,1,,,,,,,,,,,,,,,,,,,,,,,,,,,,,,,,,,,,,,,,,,,,,,,,,,,,,,,,,,,,,,,,,,,,,,
,,,,6,0.15,,,,,,55,tomato,tree,,90050,001,2022-04-29_10h34.43.128,SPAMnetsValid,2021.1.4,Win32,60.17209218,,,,,,,,,,,,,6,0.15,0,58,58,35,1,,,,,,,,,,,,,,,,,,,,,,,,,,,,,,,,,,,,,,,,,,,,,,,,,,,,,,,,,,,,,,,,,,,,,,
,,,,6,0.1521,,,,,,73,broom,chocolate,,90050,001,2022-04-29_10h34.43.128,SPAMnetsValid,2021.1.4,Win32,60.17209218,,,,,,,,,,,,,6,0.1521,0,59,59,47,1,,,,,,,,,,,,,,,,,,,,,,,,,,,,,,,,,,,,,,,,,,,,,,,,,,,,,,,,,,,,,,,,,,,,,,
,,,,7,0.459,,,,,,30,cookie,pretzel,,90050,001,2022-04-29_10h34.43.128,SPAMnetsValid,2021.1.4,Win32,60.17209218,,,,,,,,,,,,,7,0.459,0,60,60,78,1,,,,,,,,,,,,,,,,,,,,,,,,,,,,,,,,,,,,,,,,,,,,,,,,,,,,,,,,,,,,,,,,,,,,,,
,,,,7,0.1688,,,,,,48,flower,oven,,90050,001,2022-04-29_10h34.43.128,SPAMnetsValid,2021.1.4,Win32,60.17209218,,,,,,,,,,,,,7,0.1688,0,61,61,15,1,,,,,,,,,,,,,,,,,,,,,,,,,,,,,,,,,,,,,,,,,,,,,,,,,,,,,,,,,,,,,,,,,,,,,,
,,,,7,0.1194,,,,,,93,kitchen,oven,,90050,001,2022-04-29_10h34.43.128,SPAMnetsValid,2021.1.4,Win32,60.17209218,,,,,,,,,,,,,7,0.1194,0,62,62,82,1,,,,,,,,,,,,,,,,,,,,,,,,,,,,,,,,,,,,,,,,,,,,,,,,,,,,,,,,,,,,,,,,,,,,,,
,,,,7,0.128,,,,,,11,refrigerator,tree,,90050,001,2022-04-29_10h34.43.128,SPAMnetsValid,2021.1.4,Win32,60.17209218,,,,,,,,,,,,,7,0.128,0,63,63,43,1,,,,,,,,,,,,,,,,,,,,,,,,,,,,,,,,,,,,,,,,,,,,,,,,,,,,,,,,,,,,,,,,,,,,,,
,,,,7,0.0968,,,,,,41,broom,cactus,,90050,001,2022-04-29_10h34.43.128,SPAMnetsValid,2021.1.4,Win32,60.17209218,,,,,,,,,,,,,7,0.0968,0,64,64,46,1,,,,,,,,,,,,,,,,,,,,,,,,,,,,,,,,,,,,,,,,,,,,,,,,,,,,,,,,,,,,,,,,,,,,,,
,,,,7,0.0876,,,,,,57,flower,kitchen,,90050,001,2022-04-29_10h34.43.128,SPAMnetsValid,2021.1.4,Win32,60.17209218,,,,,,,,,,,,,7,0.0876,0,65,65,49,1,,,,,,,,,,,,,,,,,,,,,,,,,,,,,,,,,,,,,,,,,,,,,,,,,,,,,,,,,,,,,,,,,,,,,,
,,,,7,0.1117,,,,,,50,carrot,rose,,90050,001,2022-04-29_10h34.43.128,SPAMnetsValid,2021.1.4,Win32,60.17209218,,,,,,,,,,,,,7,0.1117,0,66,66,73,1,,,,,,,,,,,,,,,,,,,,,,,,,,,,,,,,,,,,,,,,,,,,,,,,,,,,,,,,,,,,,,,,,,,,,,
,,,,7,0.2779,,,,,,8,broom,melon,,90050,001,2022-04-29_10h34.43.128,SPAMnetsValid,2021.1.4,Win32,60.17209218,,,,,,,,,,,,,7,0.2779,0,67,67,59,1,,,,,,,,,,,,,,,,,,,,,,,,,,,,,,,,,,,,,,,,,,,,,,,,,,,,,,,,,,,,,,,,,,,,,,
,,,,7,0.0601,,,,,,47,onion,tomato,,90050,001,2022-04-29_10h34.43.128,SPAMnetsValid,2021.1.4,Win32,60.17209218,,,,,,,,,,,,,7,0.0601,0,68,68,51,1,,,,,,,,,,,,,,,,,,,,,,,,,,,,,,,,,,,,,,,,,,,,,,,,,,,,,,,,,,,,,,,,,,,,,,
,,,,7,0.0807,,,,,,79,garden,strawberry,,90050,001,2022-04-29_10h34.43.128,SPAMnetsValid,2021.1.4,Win32,60.17209218,,,,,,,,,,,,,7,0.0807,0,69,69,87,1,,,,,,,,,,,,,,,,,,,,,,,,,,,,,,,,,,,,,,,,,,,,,,,,,,,,,,,,,,,,,,,,,,,,,,
,,,,7,0.2641,,,,,,92,broom,flower,,90050,001,2022-04-29_10h34.43.128,SPAMnetsValid,2021.1.4,Win32,60.17209218,,,,,,,,,,,,,7,0.2641,0,70,70,88,1,,,,,,,,,,,,,,,,,,,,,,,,,,,,,,,,,,,,,,,,,,,,,,,,,,,,,,,,,,,,,,,,,,,,,,
,,,,7,0.0946,,,,,,33,oven,yogurt,,90050,001,2022-04-29_10h34.43.128,SPAMnetsValid,2021.1.4,Win32,60.17209218,,,,,,,,,,,,,7,0.0946,0,71,71,31,1,,,,,,,,,,,,,,,,,,,,,,,,,,,,,,,,,,,,,,,,,,,,,,,,,,,,,,,,,,,,,,,,,,,,,,
,,,,7,0.149,,,,,,91,microwave,rose,,90050,001,2022-04-29_10h34.43.128,SPAMnetsValid,2021.1.4,Win32,60.17209218,,,,,,,,,,,,,7,0.149,0,72,72,84,1,,,,,,,,,,,,,,,,,,,,,,,,,,,,,,,,,,,,,,,,,,,,,,,,,,,,,,,,,,,,,,,,,,,,,,
,,,,7,0.2688,,,,,,88,cactus,melon,,90050,001,2022-04-29_10h34.43.128,SPAMnetsValid,2021.1.4,Win32,60.17209218,,,,,,,,,,,,,7,0.2688,0,73,73,38,1,,,,,,,,,,,,,,,,,,,,,,,,,,,,,,,,,,,,,,,,,,,,,,,,,,,,,,,,,,,,,,,,,,,,,,
,,,,7,0.0461,,,,,,81,pretzel,yogurt,,90050,001,2022-04-29_10h34.43.128,SPAMnetsValid,2021.1.4,Win32,60.17209218,,,,,,,,,,,,,7,0.0461,0,74,74,50,1,,,,,,,,,,,,,,,,,,,,,,,,,,,,,,,,,,,,,,,,,,,,,,,,,,,,,,,,,,,,,,,,,,,,,,
,,,,7,0.0555,,,,,,35,flower,pretzel,,90050,001,2022-04-29_10h34.43.128,SPAMnetsValid,2021.1.4,Win32,60.17209218,,,,,,,,,,,,,7,0.0555,0,75,75,26,1,,,,,,,,,,,,,,,,,,,,,,,,,,,,,,,,,,,,,,,,,,,,,,,,,,,,,,,,,,,,,,,,,,,,,,
,,,,7,0.0527,,,,,,34,melon,oven,,90050,001,2022-04-29_10h34.43.128,SPAMnetsValid,2021.1.4,Win32,60.17209218,,,,,,,,,,,,,7,0.0527,0,76,76,7,1,,,,,,,,,,,,,,,,,,,,,,,,,,,,,,,,,,,,,,,,,,,,,,,,,,,,,,,,,,,,,,,,,,,,,,
,,,,7,0.0595,,,,,,60,cactus,onion,,90050,001,2022-04-29_10h34.43.128,SPAMnetsValid,2021.1.4,Win32,60.17209218,,,,,,,,,,,,,7,0.0595,0,77,77,81,1,,,,,,,,,,,,,,,,,,,,,,,,,,,,,,,,,,,,,,,,,,,,,,,,,,,,,,,,,,,,,,,,,,,,,,
,,,,7,0.0606,,,,,,65,broom,garden,,90050,001,2022-04-29_10h34.43.128,SPAMnetsValid,2021.1.4,Win32,60.17209218,,,,,,,,,,,,,7,0.0606,0,78,78,23,1,,,,,,,,,,,,,,,,,,,,,,,,,,,,,,,,,,,,,,,,,,,,,,,,,,,,,,,,,,,,,,,,,,,,,,
,,,,7,0.0427,,,,,,66,melon,yogurt,,90050,001,2022-04-29_10h34.43.128,SPAMnetsValid,2021.1.4,Win32,60.17209218,,,,,,,,,,,,,7,0.0427,0,79,79,48,1,,,,,,,,,,,,,,,,,,,,,,,,,,,,,,,,,,,,,,,,,,,,,,,,,,,,,,,,,,,,,,,,,,,,,,
,,,,7,0.0397,,,,,,78,cookie,rose,,90050,001,2022-04-29_10h34.43.128,SPAMnetsValid,2021.1.4,Win32,60.17209218,,,,,,,,,,,,,7,0.0397,0,80,80,56,1,,,,,,,,,,,,,,,,,,,,,,,,,,,,,,,,,,,,,,,,,,,,,,,,,,,,,,,,,,,,,,,,,,,,,,
,,,,7,0.048,,,,,,94,kitchen,microwave,,90050,001,2022-04-29_10h34.43.128,SPAMnetsValid,2021.1.4,Win32,60.17209218,,,,,,,,,,,,,7,0.048,0,81,81,58,1,,,,,,,,,,,,,,,,,,,,,,,,,,,,,,,,,,,,,,,,,,,,,,,,,,,,,,,,,,,,,,,,,,,,,,
,,,,7,0.0686,,,,,,75,cookie,onion,,90050,001,2022-04-29_10h34.43.128,SPAMnetsValid,2021.1.4,Win32,60.17209218,,,,,,,,,,,,,7,0.0686,0,82,82,9,1,,,,,,,,,,,,,,,,,,,,,,,,,,,,,,,,,,,,,,,,,,,,,,,,,,,,,,,,,,,,,,,,,,,,,,
,,,,7,0.2536,,,,,,58,garden,oven,,90050,001,2022-04-29_10h34.43.128,SPAMnetsValid,2021.1.4,Win32,60.17209218,,,,,,,,,,,,,7,0.2536,0,83,83,37,1,,,,,,,,,,,,,,,,,,,,,,,,,,,,,,,,,,,,,,,,,,,,,,,,,,,,,,,,,,,,,,,,,,,,,,
,,,,7,0.0185,,,,,,6,garden,onion,,90050,001,2022-04-29_10h34.43.128,SPAMnetsValid,2021.1.4,Win32,60.17209218,,,,,,,,,,,,,7,0.0185,0,84,84,83,1,,,,,,,,,,,,,,,,,,,,,,,,,,,,,,,,,,,,,,,,,,,,,,,,,,,,,,,,,,,,,,,,,,,,,,
,,,,7,0.0613,,,,,,82,cake,kitchen,,90050,001,2022-04-29_10h34.43.128,SPAMnetsValid,2021.1.4,Win32,60.17209218,,,,,,,,,,,,,7,0.0613,0,85,85,96,1,,,,,,,,,,,,,,,,,,,,,,,,,,,,,,,,,,,,,,,,,,,,,,,,,,,,,,,,,,,,,,,,,,,,,,
,,,,7,0.0514,,,,,,3,cake,oven,,90050,001,2022-04-29_10h34.43.128,SPAMnetsValid,2021.1.4,Win32,60.17209218,,,,,,,,,,,,,7,0.0514,0,86,86,30,1,,,,,,,,,,,,,,,,,,,,,,,,,,,,,,,,,,,,,,,,,,,,,,,,,,,,,,,,,,,,,,,,,,,,,,
,,,,7,0.2472,,,,,,9,kitchen,refrigerator,,90050,001,2022-04-29_10h34.43.128,SPAMnetsValid,2021.1.4,Win32,60.17209218,,,,,,,,,,,,,7,0.2472,0,87,87,64,1,,,,,,,,,,,,,,,,,,,,,,,,,,,,,,,,,,,,,,,,,,,,,,,,,,,,,,,,,,,,,,,,,,,,,,
,,,,6,0.4237,,,,,,29,chocolate,melon,,90050,001,2022-04-29_10h34.43.128,SPAMnetsValid,2021.1.4,Win32,60.17209218,,,,,,,,,,,,,6,0.4237,0,88,88,34,1,,,,,,,,,,,,,,,,,,,,,,,,,,,,,,,,,,,,,,,,,,,,,,,,,,,,,,,,,,,,,,,,,,,,,,
,,,,6,0.3688,,,,,,5,oven,tree,,90050,001,2022-04-29_10h34.43.128,SPAMnetsValid,2021.1.4,Win32,60.17209218,,,,,,,,,,,,,6,0.3688,0,89,89,70,1,,,,,,,,,,,,,,,,,,,,,,,,,,,,,,,,,,,,,,,,,,,,,,,,,,,,,,,,,,,,,,,,,,,,,,
,,,,6,0.1064,,,,,,37,garden,refrigerator,,90050,001,2022-04-29_10h34.43.128,SPAMnetsValid,2021.1.4,Win32,60.17209218,,,,,,,,,,,,,6,0.1064,0,90,90,11,1,,,,,,,,,,,,,,,,,,,,,,,,,,,,,,,,,,,,,,,,,,,,,,,,,,,,,,,,,,,,,,,,,,,,,,
,,,,6,0.0946,,,,,,42,garden,kitchen,,90050,001,2022-04-29_10h34.43.128,SPAMnetsValid,2021.1.4,Win32,60.17209218,,,,,,,,,,,,,6,0.0946,0,91,91,29,1,,,,,,,,,,,,,,,,,,,,,,,,,,,,,,,,,,,,,,,,,,,,,,,,,,,,,,,,,,,,,,,,,,,,,,
,,,,6,0.1115,,,,,,13,broom,yogurt,,90050,001,2022-04-29_10h34.43.128,SPAMnetsValid,2021.1.4,Win32,60.17209218,,,,,,,,,,,,,6,0.1115,0,92,92,5,1,,,,,,,,,,,,,,,,,,,,,,,,,,,,,,,,,,,,,,,,,,,,,,,,,,,,,,,,,,,,,,,,,,,,,,
,,,,6,0.0709,,,,,,61,strawberry,tomato,,90050,001,2022-04-29_10h34.43.128,SPAMnetsValid,2021.1.4,Win32,60.17209218,,,,,,,,,,,,,6,0.0709,0,93,93,80,1,,,,,,,,,,,,,,,,,,,,,,,,,,,,,,,,,,,,,,,,,,,,,,,,,,,,,,,,,,,,,,,,,,,,,,
,,,,7,0.3711,,,,,,70,chocolate,onion,,90050,001,2022-04-29_10h34.43.128,SPAMnetsValid,2021.1.4,Win32,60.17209218,,,,,,,,,,,,,7,0.3711,0,94,94,74,1,,,,,,,,,,,,,,,,,,,,,,,,,,,,,,,,,,,,,,,,,,,,,,,,,,,,,,,,,,,,,,,,,,,,,,
,,,,7,0.0677,,,,,,10,flower,onion,,90050,001,2022-04-29_10h34.43.128,SPAMnetsValid,2021.1.4,Win32,60.17209218,,,,,,,,,,,,,7,0.0677,0,95,95,45,1,,,,,,,,,,,,,,,,,,,,,,,,,,,,,,,,,,,,,,,,,,,,,,,,,,,,,,,,,,,,,,,,,,,,,,
,,,,7,0.074,,,,,,17,carrot,melon,,90050,001,2022-04-29_10h34.43.128,SPAMnetsValid,2021.1.4,Win32,60.17209218,,,,,,,,,,,,,7,0.074,0,96,96,24,1,,,,,,,,,,,,,,,,,,,,,,,,,,,,,,,,,,,,,,,,,,,,,,,,,,,,,,,,,,,,,,,,,,,,,,
,,,,,,,,,,,,,,,90050,001,2022-04-29_10h34.43.128,SPAMnetsValid,2021.1.4,Win32,60.17209218,,,,,,,,,,,,,,,,,,,,0,0,0,0,1,,,,,,,,,,,,,,,,,,,,,,,,,,,,,,,,,,,,,,,,,,,,,,,,,,,,,,,,,,,,,,,,,
,,,,,,,,,,,,,,,90050,001,2022-04-29_10h34.43.128,SPAMnetsValid,2021.1.4,Win32,60.17209218,,,,,,0,1,1,0,1,1,0,,,,,,,,,,,,,,,,,,,,,,,,,,,,,,,,,,,,,,,,,,,,,,,,,,,,,,,,,,,,,,,,,,,,,,,,,,,,,
,,,,,,,,,,,,,,,90050,001,2022-04-29_10h34.43.128,SPAMnetsValid,2021.1.4,Win32,60.17209218,,,,,,,,,,,,,,,,,,,,,,,,,2,7.8803,0,0,0,0,1,rancor,forbearance,ridicule,malice,bravery,3,,,,,,,,,,,,,,,,,,,,,,,,,,,,,,,,,,,,,,,,,,,,,,,,,,,,
,,,,,,,,,,,,,,,90050,001,2022-04-29_10h34.43.128,SPAMnetsValid,2021.1.4,Win32,60.17209218,,,,,,,,,,,,,,,,,,,,,,,,,3,0.5518,0,1,1,1,1,raucous,empty,quiet,smooth,harsh,4,,,,,,,,,,,,,,,,,,,,,,,,,,,,,,,,,,,,,,,,,,,,,,,,,,,,
,,,,,,,,,,,,,,,90050,001,2022-04-29_10h34.43.128,SPAMnetsValid,2021.1.4,Win32,60.17209218,,,,,,,,,,,,,,,,,,,,,,,,,2,1.3647,0,2,2,2,1,gargoyle,oil,medicine,carved waterspout,ugly building,3,,,,,,,,,,,,,,,,,,,,,,,,,,,,,,,,,,,,,,,,,,,,,,,,,,,,
,,,,,,,,,,,,,,,90050,001,2022-04-29_10h34.43.128,SPAMnetsValid,2021.1.4,Win32,60.17209218,,,,,,,,,,,,,,,,,,,,,,,,,3,1.3131,0,3,3,3,1,recrudesce,purify,renew activity,lack refinement,crush,2,,,,,,,,,,,,,,,,,,,,,,,,,,,,,,,,,,,,,,,,,,,,,,,,,,,,
,,,,,,,,,,,,,,,90050,001,2022-04-29_10h34.43.128,SPAMnetsValid,2021.1.4,Win32,60.17209218,,,,,,,,,,,,,,,,,,,,,,,,,4,6.5507,0,4,4,4,1,specious,"plausible, but not genuine",noteworthy,class or variety,roomy,1,,,,,,,,,,,,,,,,,,,,,,,,,,,,,,,,,,,,,,,,,,,,,,,,,,,,
,,,,,,,,,,,,,,,90050,001,2022-04-29_10h34.43.128,SPAMnetsValid,2021.1.4,Win32,60.17209218,,,,,,,,,,,,,,,,,,,,,,,,,4,2.5352,0,5,5,5,1,bauble,bubble,showy plaything,idle talk,confusion,2,,,,,,,,,,,,,,,,,,,,,,,,,,,,,,,,,,,,,,,,,,,,,,,,,,,,
,,,,,,,,,,,,,,,90050,001,2022-04-29_10h34.43.128,SPAMnetsValid,2021.1.4,Win32,60.17209218,,,,,,,,,,,,,,,,,,,,,,,,,2,4.8439,0,6,6,6,1,prolific,scarce,producing abundantly,reckless,speaking profanely,2,,,,,,,,,,,,,,,,,,,,,,,,,,,,,,,,,,,,,,,,,,,,,,,,,,,,
,,,,,,,,,,,,,,,90050,001,2022-04-29_10h34.43.128,SPAMnetsValid,2021.1.4,Win32,60.17209218,,,,,,,,,,,,,,,,,,,,,,,,,3,1.6047,0,7,7,7,1,opulent,party,wealthy,happy frame of mind,semiprecious stone,2,,,,,,,,,,,,,,,,,,,,,,,,,,,,,,,,,,,,,,,,,,,,,,,,,,,,
,,,,,,,,,,,,,,,90050,001,2022-04-29_10h34.43.128,SPAMnetsValid,2021.1.4,Win32,60.17209218,,,,,,,,,,,,,,,,,,,,,,,,,2,0.9306,0,8,8,8,1,coercion,conspiracy,strategy,restraint,attraction,3,,,,,,,,,,,,,,,,,,,,,,,,,,,,,,,,,,,,,,,,,,,,,,,,,,,,
,,,,,,,,,,,,,,,90050,001,2022-04-29_10h34.43.128,SPAMnetsValid,2021.1.4,Win32,60.17209218,,,,,,,,,,,,,,,,,,,,,,,,,3,1.0727,0,9,9,9,1,hiatus,animal,calamity,dread,gap,4,,,,,,,,,,,,,,,,,,,,,,,,,,,,,,,,,,,,,,,,,,,,,,,,,,,,
,,,,,,,,,,,,,,,90050,001,2022-04-29_10h34.43.128,SPAMnetsValid,2021.1.4,Win32,60.17209218,,,,,,,,,,,,,,,,,,,,,,,,,4,0.8524,0,10,10,10,1,germane,microbe,contagious,relevant,different,3,,,,,,,,,,,,,,,,,,,,,,,,,,,,,,,,,,,,,,,,,,,,,,,,,,,,
,,,,,,,,,,,,,,,90050,001,2022-04-29_10h34.43.128,SPAMnetsValid,2021.1.4,Win32,60.17209218,,,,,,,,,,,,,,,,,,,,,,,,,3,0.9177,0,11,11,11,1,perfunctory,fundamental,formal,superficial,careful,3,,,,,,,,,,,,,,,,,,,,,,,,,,,,,,,,,,,,,,,,,,,,,,,,,,,,
,,,,,,,,,,,,,,,90050,001,2022-04-29_10h34.43.128,SPAMnetsValid,2021.1.4,Win32,60.17209218,,,,,,,,,,,,,,,,,,,,,,,,,2,0.7386,0,12,12,12,1,diverge,reveal,chant,distract the attention of,differ or turn off from,4,,,,,,,,,,,,,,,,,,,,,,,,,,,,,,,,,,,,,,,,,,,,,,,,,,,,
,,,,,,,,,,,,,,,90050,001,2022-04-29_10h34.43.128,SPAMnetsValid,2021.1.4,Win32,60.17209218,,,,,,,,,,,,,,,,,,,,,,,,,3,0.6119,0,13,13,13,1,evoke,take away,anger,connect,bring out,4,,,,,,,,,,,,,,,,,,,,,,,,,,,,,,,,,,,,,,,,,,,,,,,,,,,,
,,,,,,,,,,,,,,,90050,001,2022-04-29_10h34.43.128,SPAMnetsValid,2021.1.4,Win32,60.17209218,,,,,,,,,,,,,,,,,,,,,,,,,4,0.8198,0,14,14,14,1,pertinent,relevant,lying next to,necessary,bold,1,,,,,,,,,,,,,,,,,,,,,,,,,,,,,,,,,,,,,,,,,,,,,,,,,,,,
,,,,,,,,,,,,,,,90050,001,2022-04-29_10h34.43.128,SPAMnetsValid,2021.1.4,Win32,60.17209218,,,,,,,,,,,,,,,,,,,,,,,,,3,0.6064,0,15,15,15,1,holocaust,entirety,destruction,saintly,price,2,,,,,,,,,,,,,,,,,,,,,,,,,,,,,,,,,,,,,,,,,,,,,,,,,,,,
,,,,,,,,,,,,,,,90050,001,2022-04-29_10h34.43.128,SPAMnetsValid,2021.1.4,Win32,60.17209218,,,,,,,,,,,,,,,,,,,,,,,,,2,0.5492,0,16,16,16,1,piquant,mellow,fish,pungent,cloth,3,,,,,,,,,,,,,,,,,,,,,,,,,,,,,,,,,,,,,,,,,,,,,,,,,,,,
,,,,,,,,,,,,,,,90050,001,2022-04-29_10h34.43.128,SPAMnetsValid,2021.1.4,Win32,60.17209218,,,,,,,,,,,,,,,,,,,,,,,,,1,0.6727,0,17,17,17,1,firmament,foundation,heavens,strong,glue,2,,,,,,,,,,,,,,,,,,,,,,,,,,,,,,,,,,,,,,,,,,,,,,,,,,,,
,,,,,,,,,,,,,,,90050,001,2022-04-29_10h34.43.128,SPAMnetsValid,2021.1.4,Win32,60.17209218,,,,,,,,,,,,,,,,,,,,,,,,,,,,,,,,,,,,,,4,4.8606,0,0,0,0,1,marketable,partisan,jocular,marriageable,salable,essential,4,,,,,,,,,,,,,,,,,,,,,,,,,,,,,,,,,,,,,,
,,,,,,,,,,,,,,,90050,001,2022-04-29_10h34.43.128,SPAMnetsValid,2021.1.4,Win32,60.17209218,,,,,,,,,,,,,,,,,,,,,,,,,,,,,,,,,,,,,,4,10.2794,0,1,1,1,1,cottontail,squirrel,poplar,boa,marshy plant,rabbit,5,,,,,,,,,,,,,,,,,,,,,,,,,,,,,,,,,,,,,,
,,,,,,,,,,,,,,,90050,001,2022-04-29_10h34.43.128,SPAMnetsValid,2021.1.4,Win32,60.17209218,,,,,,,,,,,,,,,,,,,,,,,,,,,,,,,,,,,,,,2,2.1634,0,2,2,2,1,boggy,afraid,false,marshy,dense,black,3,,,,,,,,,,,,,,,,,,,,,,,,,,,,,,,,,,,,,,
,,,,,,,,,,,,,,,90050,001,2022-04-29_10h34.43.128,SPAMnetsValid,2021.1.4,Win32,60.17209218,,,,,,,,,,,,,,,,,,,,,,,,,,,,,,,,,,,,,,3,2.038,0,3,3,3,1,gruesomeness,blackness,falseness,vindictiveness,drunkenness,ghastliness,5,,,,,,,,,,,,,,,,,,,,,,,,,,,,,,,,,,,,,,
,,,,,,,,,,,,,,,90050,001,2022-04-29_10h34.43.128,SPAMnetsValid,2021.1.4,Win32,60.17209218,,,,,,,,,,,,,,,,,,,,,,,,,,,,,,,,,,,,,,4,0.6119,0,4,4,4,1,loathing,diffidence,laziness,abhorrence,cleverness,comfort,3,,,,,,,,,,,,,,,,,,,,,,,,,,,,,,,,,,,,,,
,,,,,,,,,,,,,,,90050,001,2022-04-29_10h34.43.128,SPAMnetsValid,2021.1.4,Win32,60.17209218,,,,,,,,,,,,,,,,,,,,,,,,,,,,,,,,,,,,,,4,1.0192,0,5,5,5,1,bantam,fowl,ridicule,cripple,vegetable,ensign,1,,,,,,,,,,,,,,,,,,,,,,,,,,,,,,,,,,,,,,
,,,,,,,,,,,,,,,90050,001,2022-04-29_10h34.43.128,SPAMnetsValid,2021.1.4,Win32,60.17209218,,,,,,,,,,,,,,,,,,,,,,,,,,,,,,,,,,,,,,5,0.8356,0,6,6,6,1,evoke,wake up,surrender,reconnoiter,transcend,call forth,5,,,,,,,,,,,,,,,,,,,,,,,,,,,,,,,,,,,,,,
,,,,,,,,,,,,,,,90050,001,2022-04-29_10h34.43.128,SPAMnetsValid,2021.1.4,Win32,60.17209218,,,,,,,,,,,,,,,,,,,,,,,,,,,,,,,,,,,,,,4,1.3501,0,7,7,7,1,unobtrusive,unintelligent,epileptic,illogical,lineal,modest,5,,,,,,,,,,,,,,,,,,,,,,,,,,,,,,,,,,,,,,
,,,,,,,,,,,,,,,90050,001,2022-04-29_10h34.43.128,SPAMnetsValid,2021.1.4,Win32,60.17209218,,,,,,,,,,,,,,,,,,,,,,,,,,,,,,,,,,,,,,3,1.7411,0,8,8,8,1,terrain,ice cream,final test,tractor,area of ground,weight,4,,,,,,,,,,,,,,,,,,,,,,,,,,,,,,,,,,,,,,
,,,,,,,,,,,,,,,90050,001,2022-04-29_10h34.43.128,SPAMnetsValid,2021.1.4,Win32,60.17209218,,,,,,,,,,,,,,,,,,,,,,,,,,,,,,,,,,,,,,2,0.6821,0,9,9,9,1,capriciousness,stubbornness,courage,whimsicality,amazement,greediness,3,,,,,,,,,,,,,,,,,,,,,,,,,,,,,,,,,,,,,,
,,,,,,,,,,,,,,,90050,001,2022-04-29_10h34.43.128,SPAMnetsValid,2021.1.4,Win32,60.17209218,,,,,,,,,,,,,,,,,,,,,,,,,,,,,,,,,,,,,,1,0.8838,0,10,10,10,1,maelstrom,slander,whirlpool,enmity,armor,majolica,2,,,,,,,,,,,,,,,,,,,,,,,,,,,,,,,,,,,,,,
,,,,,,,,,,,,,,,90050,001,2022-04-29_10h34.43.128,SPAMnetsValid,2021.1.4,Win32,60.17209218,,,,,,,,,,,,,,,,,,,,,,,,,,,,,,,,,,,,,,3,0.7719,0,11,11,11,1,tentative,critical,conclusive,authentic,provisional,apprehensive,4,,,,,,,,,,,,,,,,,,,,,,,,,,,,,,,,,,,,,,
,,,,,,,,,,,,,,,90050,001,2022-04-29_10h34.43.128,SPAMnetsValid,2021.1.4,Win32,60.17209218,,,,,,,,,,,,,,,,,,,,,,,,,,,,,,,,,,,,,,4,0.6099,0,12,12,12,1,placate,rehabilitate,plagiarize,depredate,apprise,conciliate,5,,,,,,,,,,,,,,,,,,,,,,,,,,,,,,,,,,,,,,
,,,,,,,,,,,,,,,90050,001,2022-04-29_10h34.43.128,SPAMnetsValid,2021.1.4,Win32,60.17209218,,,,,,,,,,,,,,,,,,,,,,,,,,,,,,,,,,,,,,3,0.6698,0,13,13,13,1,surcease,enlightenment,cessation,inattention,censor,substitution,2,,,,,,,,,,,,,,,,,,,,,,,,,,,,,,,,,,,,,,
,,,,,,,,,,,,,,,90050,001,2022-04-29_10h34.43.128,SPAMnetsValid,2021.1.4,Win32,60.17209218,,,,,,,,,,,,,,,,,,,,,,,,,,,,,,,,,,,,,,2,0.8666,0,14,14,14,1,apathetic,wandering,impassive,hateful,prophetic,overflowing,2,,,,,,,,,,,,,,,,,,,,,,,,,,,,,,,,,,,,,,
,,,,,,,,,,,,,,,90050,001,2022-04-29_10h34.43.128,SPAMnetsValid,2021.1.4,Win32,60.17209218,,,,,,,,,,,,,,,,,,,,,,,,,,,,,,,,,,,,,,3,0.6861,0,15,15,15,1,paternoster,paternalism,patricide,malediction,benediction,prayer,5,,,,,,,,,,,,,,,,,,,,,,,,,,,,,,,,,,,,,,
,,,,,,,,,,,,,,,90050,001,2022-04-29_10h34.43.128,SPAMnetsValid,2021.1.4,Win32,60.17209218,,,,,,,,,,,,,,,,,,,,,,,,,,,,,,,,,,,,,,,,0,16,16,16,1,opalescence,opulence,senescence,bankruptcy,iridescence,assiduity,4,,,,,,,,,,,,,,,,,,,,,,,,,,,,,,,,,,,,,,
,,,,,,,,,,,,,,,90050,001,2022-04-29_10h34.43.128,SPAMnetsValid,2021.1.4,Win32,60.17209218,,,,,,,,,,,,,,,,,,,,,,,,,,,,,,,,,,,,,,3,0.2977,0,17,17,17,1,lush,stupid,luxurious,hazy,putrid,languishing,2,,,,,,,,,,,,,,,,,,,,,,,,,,,,,,,,,,,,,,
,,,,,,,,,,,,,,,90050,001,2022-04-29_10h34.43.128,SPAMnetsValid,2021.1.4,Win32,60.17209218,,,,,,,,,,,,,,,,,,,,,,,,,,,,,,,,,,,,,,,,0,18,18,18,1,curtailment,expenditure,abandonment,abridgment,improvement,forgery,3,,,,,,,,,,,,,,,,,,,,,,,,,,,,,,,,,,,,,,
,,,,,,,,,,,,,,,90050,001,2022-04-29_10h34.43.128,SPAMnetsValid,2021.1.4,Win32,60.17209218,,,,,,,,,,,,,,,,,,,,,,,,,,,,,,,,,,,,,,4,0.0988,0,19,19,19,1,perversity,adversity,perviousness,travesty,waywardness,gentility,4,,,,,,,,,,,,,,,,,,,,,,,,,,,,,,,,,,,,,,
,,,,,,,,,,,,,,,90050,001,2022-04-29_10h34.43.128,SPAMnetsValid,2021.1.4,Win32,60.17209218,,,,,,,,,,,,,,,,,,,,,,,,,,,,,,,,,,,,,,,,0,20,20,20,1,calumnious,complimentary,analogous,slanderous,tempestuous,magnanimous,3,,,,,,,,,,,,,,,,,,,,,,,,,,,,,,,,,,,,,,
,,,,,,,,,,,,,,,90050,001,2022-04-29_10h34.43.128,SPAMnetsValid,2021.1.4,Win32,60.17209218,,,,,,,,,,,,,,,,,,,,,,,,,,,,,,,,,,,,,,,,0,21,21,21,1,illiberality,bigotry,imbecility,illegibility,cautery,immaturity,1,,,,,,,,,,,,,,,,,,,,,,,,,,,,,,,,,,,,,,
,,,,,,,,,,,,,,,90050,001,2022-04-29_10h34.43.128,SPAMnetsValid,2021.1.4,Win32,60.17209218,,,,,,,,,,,,,,,,,,,,,,,,,,,,,,,,,,,,,,4,0.3025,0,22,22,22,1,clabber,rejoice,gossip,curdle,crow,hobble,3,,,,,,,,,,,,,,,,,,,,,,,,,,,,,,,,,,,,,,
,,,,,,,,,,,,,,,90050,001,2022-04-29_10h34.43.128,SPAMnetsValid,2021.1.4,Win32,60.17209218,,,,,,,,,,,,,,,,,,,,,,,,,,,,,,,,,,,,,,3,0.9476,0,23,23,23,1,sedulousness,diligence,credulousness,seduction,perilousness,frankness,1,,,,,,,,,,,,,,,,,,,,,,,,,,,,,,,,,,,,,,
,,,,,,,,,,,,,,,90050,001,2022-04-29_10h34.43.128,SPAMnetsValid,2021.1.4,Win32,60.17209218,,,,,,,,,,,,,,,,,,,,,,,,,,,,,,,,,,,,,,,,,,,,,,,,,,,,,pillow,0,0,0,0,1,,,,,,,,,,,,,,,,,,,,,,,,,,,,,,,
,,,,,,,,,,,,,,,90050,001,2022-04-29_10h34.43.128,SPAMnetsValid,2021.1.4,Win32,60.17209218,,,,,,,,,,,,,,,,,,,,,,,,,,,,,,,,,,,,,,,,,,,,,,,,,,,,soft,pillow,1,0,1,0,1,,,,,,,,,,,,,,,,,,,,,,,,,,,,,,,
,,,,,,,,,,,,,,,90050,001,2022-04-29_10h34.43.128,SPAMnetsValid,2021.1.4,Win32,60.17209218,,,,,,,,,,,,,,,,,,,,,,,,,,,,,,,,,,,,,,,,,,,,,,,,,,,,soft,pillow,2,0,2,0,1,,,,,,,,,,,,,,,,,,,,,,,,,,,,,,,
,,,,,,,,,,,,,,,90050,001,2022-04-29_10h34.43.128,SPAMnetsValid,2021.1.4,Win32,60.17209218,,,,,,,,,,,,,,,,,,,,,,,,,,,,,,,,,,,,,,,,,,,,,,,,,,,,bed,pillow,3,0,3,0,1,,,,,,,,,,,,,,,,,,,,,,,,,,,,,,,
,,,,,,,,,,,,,,,90050,001,2022-04-29_10h34.43.128,SPAMnetsValid,2021.1.4,Win32,60.17209218,,,,,,,,,,,,,,,,,,,,,,,,,,,,,,,,,,,,,,,,,,,,,,,,,,,,laying down,pillow,4,0,4,0,1,,,,,,,,,,,,,,,,,,,,,,,,,,,,,,,
,,,,,,,,,,,,,,,90050,001,2022-04-29_10h34.43.128,SPAMnetsValid,2021.1.4,Win32,60.17209218,,,,,,,,,,,,,,,,,,,,,,,,,,,,,,,,,,,,,,,,,,,,,,,,,,,,sleep,pillow,5,0,5,0,1,,,,,,,,,,,,,,,,,,,,,,,,,,,,,,,
,,,,,,,,,,,,,,,90050,001,2022-04-29_10h34.43.128,SPAMnetsValid,2021.1.4,Win32,60.17209218,,,,,,,,,,,,,,,,,,,,,,,,,,,,,,,,,,,,,,,,,,,,,,,,,,,,,,,,,,,0,0,0,2,1,pillow,,,,,,,,,,,,,,,,,,,,,,,,,
,,,,,,,,,,,,,,,90050,001,2022-04-29_10h34.43.128,SPAMnetsValid,2021.1.4,Win32,60.17209218,,,,,,,,,,,,,,,,,,,,,,,,,,,,,,,,,,,,,,,,,,,,,,,,,,,,food,bucket,0,0,0,0,1,,,,,,,,,,,,,,,,,,,,,,,,,,,,,,,
,,,,,,,,,,,,,,,90050,001,2022-04-29_10h34.43.128,SPAMnetsValid,2021.1.4,Win32,60.17209218,,,,,,,,,,,,,,,,,,,,,,,,,,,,,,,,,,,,,,,,,,,,,,,,,,,,carry something,bucket,1,0,1,0,1,,,,,,,,,,,,,,,,,,,,,,,,,,,,,,,
,,,,,,,,,,,,,,,90050,001,2022-04-29_10h34.43.128,SPAMnetsValid,2021.1.4,Win32,60.17209218,,,,,,,,,,,,,,,,,,,,,,,,,,,,,,,,,,,,,,,,,,,,,,,,,,,,,,,,,,,0,1,1,0,1,bucket,,,,,,,,,,,,,,,,,,,,,,,,,
,,,,,,,,,,,,,,,90050,001,2022-04-29_10h34.43.128,SPAMnetsValid,2021.1.4,Win32,60.17209218,,,,,,,,,,,,,,,,,,,,,,,,,,,,,,,,,,,,,,,,,,,,,,,,,,,,smell,candle,0,0,0,0,1,,,,,,,,,,,,,,,,,,,,,,,,,,,,,,,
,,,,,,,,,,,,,,,90050,001,2022-04-29_10h34.43.128,SPAMnetsValid,2021.1.4,Win32,60.17209218,,,,,,,,,,,,,,,,,,,,,,,,,,,,,,,,,,,,,,,,,,,,,,,,,,,,looks,candle,1,0,1,0,1,,,,,,,,,,,,,,,,,,,,,,,,,,,,,,,
,,,,,,,,,,,,,,,90050,001,2022-04-29_10h34.43.128,SPAMnetsValid,2021.1.4,Win32,60.17209218,,,,,,,,,,,,,,,,,,,,,,,,,,,,,,,,,,,,,,,,,,,,,,,,,,,,,,,,,,,0,2,2,1,1,candle,,,,,,,,,,,,,,,,,,,,,,,,,
,,,,,,,,,,,,,,,90050,001,2022-04-29_10h34.43.128,SPAMnetsValid,2021.1.4,Win32,60.17209218,,,,,,,,,,,,,,,,,,,,,,,,,,,,,,,,,,,,,,,,,,,,,,,,,,,,,,,,,,,,,,,,,good,Animals,0,0,0,0,1,,,,,,,,,,,,,,,,,,
,,,,,,,,,,,,,,,90050,001,2022-04-29_10h34.43.128,SPAMnetsValid,2021.1.4,Win32,60.17209218,,,,,,,,,,,,,,,,,,,,,,,,,,,,,,,,,,,,,,,,,,,,,,,,,,,,,,,,,,,,,,,,,loyal,Animals,1,0,1,0,1,,,,,,,,,,,,,,,,,,
,,,,,,,,,,,,,,,90050,001,2022-04-29_10h34.43.128,SPAMnetsValid,2021.1.4,Win32,60.17209218,,,,,,,,,,,,,,,,,,,,,,,,,,,,,,,,,,,,,,,,,,,,,,,,,,,,,,,,,,,,,,,,,,,,,,,,0,0,0,0,1,Animals,,,,,,,,,,,,
,,,,,,,,,,,,,,,90050,001,2022-04-29_10h34.43.128,SPAMnetsValid,2021.1.4,Win32,60.17209218,,,,,,,,,,,,,,,,,,,,,,,,,,,,,,,,,,,,,,,,,,,,,,,,,,,,,,,,,,,,,,,,,,,,,,,,,,,,,,3,3.0137,0,0,0,0,1,"I enjoy concentrating on a fantasy or daydream and exploring all its possibilities, letting it grow and develop.",0,1,,
,,,,,,,,,,,,,,,90050,001,2022-04-29_10h34.43.128,SPAMnetsValid,2021.1.4,Win32,60.17209218,,,,,,,,,,,,,,,,,,,,,,,,,,,,,,,,,,,,,,,,,,,,,,,,,,,,,,,,,,,,,,,,,,,,,,,,,,,,,,4,1.8386,0,1,1,1,1,I think it's interesting to learn and develop new hobbies.,0,2,,
,,,,,,,,,,,,,,,90050,001,2022-04-29_10h34.43.128,SPAMnetsValid,2021.1.4,Win32,60.17209218,,,,,,,,,,,,,,,,,,,,,,,,,,,,,,,,,,,,,,,,,,,,,,,,,,,,,,,,,,,,,,,,,,,,,,,,,,,,,,4,1.6395,0,2,2,2,1,I am intrigued by the patterns I find in art and nature.,0,3,,
,,,,,,,,,,,,,,,90050,001,2022-04-29_10h34.43.128,SPAMnetsValid,2021.1.4,Win32,60.17209218,,,,,,,,,,,,,,,,,,,,,,,,,,,,,,,,,,,,,,,,,,,,,,,,,,,,,,,,,,,,,,,,,,,,,,,,,,,,,,4,2.7421,0,3,3,3,1,I believe letting students hear controversial speakers can only confuse and mislead them.,1,4,,
,,,,,,,,,,,,,,,90050,001,2022-04-29_10h34.43.128,SPAMnetsValid,2021.1.4,Win32,60.17209218,,,,,,,,,,,,,,,,,,,,,,,,,,,,,,,,,,,,,,,,,,,,,,,,,,,,,,,,,,,,,,,,,,,,,,,,,,,,,,2,1.0635,0,4,4,4,1,Poetry has little or no effect on me.,1,5,,
,,,,,,,,,,,,,,,90050,001,2022-04-29_10h34.43.128,SPAMnetsValid,2021.1.4,Win32,60.17209218,,,,,,,,,,,,,,,,,,,,,,,,,,,,,,,,,,,,,,,,,,,,,,,,,,,,,,,,,,,,,,,,,,,,,,,,,,,,,,3,0.9602,0,5,5,5,1,I would have difficulty just letting my mind wander without control or guidance.,1,6,,
,,,,,,,,,,,,,,,90050,001,2022-04-29_10h34.43.128,SPAMnetsValid,2021.1.4,Win32,60.17209218,,,,,,,,,,,,,,,,,,,,,,,,,,,,,,,,,,,,,,,,,,,,,,,,,,,,,,,,,,,,,,,,,,,,,,,,,,,,,,3,0.5772,0,6,6,6,1,I seldom notice the moods or feelings that different environments produce.,1,7,,
,,,,,,,,,,,,,,,90050,001,2022-04-29_10h34.43.128,SPAMnetsValid,2021.1.4,Win32,60.17209218,,,,,,,,,,,,,,,,,,,,,,,,,,,,,,,,,,,,,,,,,,,,,,,,,,,,,,,,,,,,,,,,,,,,,,,,,,,,,,3,0.3743,0,7,7,7,1,I experience a wide range of emotions or feelings.,0,8,,
,,,,,,,,,,,,,,,90050,001,2022-04-29_10h34.43.128,SPAMnetsValid,2021.1.4,Win32,60.17209218,,,,,,,,,,,,,,,,,,,,,,,,,,,,,,,,,,,,,,,,,,,,,,,,,,,,,,,,,,,,,,,,,,,,,,,,,,,,,,3,0.294,0,8,8,8,1,"Sometimes when I am reading poetry or looking at a work of art, I feel a chill or wave of excitement.",0,9,,
,,,,,,,,,,,,,,,90050,001,2022-04-29_10h34.43.128,SPAMnetsValid,2021.1.4,Win32,60.17209218,,,,,,,,,,,,,,,,,,,,,,,,,,,,,,,,,,,,,,,,,,,,,,,,,,,,,,,,,,,,,,,,,,,,,,,,,,,,,,3,0.2797,0,9,9,9,1,I have little interest in speculating on the nature of the universe or the human condition.,1,10,,
,,,,,,,,,,,,,,,90050,001,2022-04-29_10h34.43.128,SPAMnetsValid,2021.1.4,Win32,60.17209218,,,,,,,,,,,,,,,,,,,,,,,,,,,,,,,,,,,,,,,,,,,,,,,,,,,,,,,,,,,,,,,,,,,,,,,,,,,,,,3,0.2589,0,10,10,10,1,I have a lot of intellectual curiosity.,0,11,,
,,,,,,,,,,,,,,,90050,001,2022-04-29_10h34.43.128,SPAMnetsValid,2021.1.4,Win32,60.17209218,,,,,,,,,,,,,,,,,,,,,,,,,,,,,,,,,,,,,,,,,,,,,,,,,,,,,,,,,,,,,,,,,,,,,,,,,,,,,,3,0.2621,0,11,11,11,1,I often enjoy playing with theories or abstract ideas.,0,12,,
,,,,,,,,,,,,,,,90050,001,2022-04-29_10h34.43.128,SPAMnetsValid,2021.1.4,Win32,60.17209218,,,,,,,,,,,,,,,,,,,,,,,,,,,,,,,,,,,,,,,,,,,,,,,,,,,,,,,,,,,,,,,,,,,,,,,,,,,,,,,,,,,,,,,,return,0.9697
