key_resp_3.keys,key_resp_3.rt,slider.response,slider.rt,rjt_rating,rjt_RT,trials_22.thisRepN,trials_22.thisTrialN,trials_22.thisN,trials_22.thisIndex,trials_22.ran,rjt_order,word1,word2,attention,participant,session,date,expName,psychopyVersion,OS,frameRate,trials_99.thisRepN,trials_99.thisTrialN,trials_99.thisN,trials_99.thisIndex,trials_99.ran,trials_5.thisRepN,trials_5.thisTrialN,trials_5.thisN,trials_5.thisIndex,trials_5.ran,repOne,repTwo,slider_2.response,slider_2.rt,trials_24.thisRepN,trials_24.thisTrialN,trials_24.thisN,trials_24.thisIndex,trials_24.ran,trials_4.thisRepN,trials_4.thisTrialN,trials_4.thisN,trials_4.thisIndex,trials_4.ran,slider_extend_2.response,slider_extend_2.rt,trials_6.thisRepN,trials_6.thisTrialN,trials_6.thisN,trials_6.thisIndex,trials_6.ran,vCue2,R1,R2,R3,R4,correct,sliderVocab.response,sliderVocab.rt,trials_7.thisRepN,trials_7.thisTrialN,trials_7.thisN,trials_7.thisIndex,trials_7.ran,VocabCue,VR1,VR2,VR3,VR4,VR5,VocabCorrect,AUT_resp,AUT_label,trials.thisRepN,trials.thisTrialN,trials.thisN,trials.thisIndex,trials.ran,trials_2.thisRepN,trials_2.thisTrialN,trials_2.thisN,trials_2.thisIndex,trials_2.ran,aut_prompt,VF_response,VF_tag,trials_16.thisRepN,trials_16.thisTrialN,trials_16.thisN,trials_16.thisIndex,trials_16.ran,trials_17.thisRepN,trials_17.thisTrialN,trials_17.thisN,trials_17.thisIndex,trials_17.ran,VFcond,open_slider.response,open_slider.rt,trials_3.thisRepN,trials_3.thisTrialN,trials_3.thisN,trials_3.thisIndex,trials_3.ran,OpenQ,Rev,OPEN_ORDER,key_resp_2.keys,key_resp_2.rt
return,5.9311,1,8.9029,1,8.9029,0,0,0,70,1,5,oven,tree,,90068,001,2022-04-25_20h57.04.278,SPAMnetsValid,2021.1.4,Linux x86_64,60.10699044,,,,,,,,,,,,,,,,,,,,,,,,,,,,,,,,,,,,,,,,,,,,,,,,,,,,,,,,,,,,,,,,,,,,,,,,,,,,,,,,,,,,,,,,,
,,8,2.9177,8,2.9177,0,1,1,29,1,42,garden,kitchen,,90068,001,2022-04-25_20h57.04.278,SPAMnetsValid,2021.1.4,Linux x86_64,60.10699044,,,,,,,,,,,,,,,,,,,,,,,,,,,,,,,,,,,,,,,,,,,,,,,,,,,,,,,,,,,,,,,,,,,,,,,,,,,,,,,,,,,,,,,,,
,,9,2.0258,9,2.0258,0,2,2,19,1,76,garden,rose,,90068,001,2022-04-25_20h57.04.278,SPAMnetsValid,2021.1.4,Linux x86_64,60.10699044,,,,,,,,,,,,,,,,,,,,,,,,,,,,,,,,,,,,,,,,,,,,,,,,,,,,,,,,,,,,,,,,,,,,,,,,,,,,,,,,,,,,,,,,,
,,7,2.6409,7,2.6409,0,3,3,76,1,36,broom,kitchen,,90068,001,2022-04-25_20h57.04.278,SPAMnetsValid,2021.1.4,Linux x86_64,60.10699044,,,,,,,,,,,,,,,,,,,,,,,,,,,,,,,,,,,,,,,,,,,,,,,,,,,,,,,,,,,,,,,,,,,,,,,,,,,,,,,,,,,,,,,,,
,,8,2.2913,8,2.2913,0,4,4,11,1,37,garden,refrigerator,,90068,001,2022-04-25_20h57.04.278,SPAMnetsValid,2021.1.4,Linux x86_64,60.10699044,,,,,,,,,,,,,,,,,,,,,,,,,,,,,,,,,,,,,,,,,,,,,,,,,,,,,,,,,,,,,,,,,,,,,,,,,,,,,,,,,,,,,,,,,
,,8,2.0681,8,2.0681,0,5,5,60,1,89,chocolate,rose,,90068,001,2022-04-25_20h57.04.278,SPAMnetsValid,2021.1.4,Linux x86_64,60.10699044,,,,,,,,,,,,,,,,,,,,,,,,,,,,,,,,,,,,,,,,,,,,,,,,,,,,,,,,,,,,,,,,,,,,,,,,,,,,,,,,,,,,,,,,,
,,9,1.5316,9,1.5316,0,6,6,83,1,6,garden,onion,,90068,001,2022-04-25_20h57.04.278,SPAMnetsValid,2021.1.4,Linux x86_64,60.10699044,,,,,,,,,,,,,,,,,,,,,,,,,,,,,,,,,,,,,,,,,,,,,,,,,,,,,,,,,,,,,,,,,,,,,,,,,,,,,,,,,,,,,,,,,
,,3,2.0458,3,2.0458,0,7,7,46,1,41,broom,cactus,,90068,001,2022-04-25_20h57.04.278,SPAMnetsValid,2021.1.4,Linux x86_64,60.10699044,,,,,,,,,,,,,,,,,,,,,,,,,,,,,,,,,,,,,,,,,,,,,,,,,,,,,,,,,,,,,,,,,,,,,,,,,,,,,,,,,,,,,,,,,
,,2,1.5548,2,1.5548,0,8,8,15,1,48,flower,oven,,90068,001,2022-04-25_20h57.04.278,SPAMnetsValid,2021.1.4,Linux x86_64,60.10699044,,,,,,,,,,,,,,,,,,,,,,,,,,,,,,,,,,,,,,,,,,,,,,,,,,,,,,,,,,,,,,,,,,,,,,,,,,,,,,,,,,,,,,,,,
,,3,1.547,3,1.547,0,9,9,63,1,21,cake,onion,,90068,001,2022-04-25_20h57.04.278,SPAMnetsValid,2021.1.4,Linux x86_64,60.10699044,,,,,,,,,,,,,,,,,,,,,,,,,,,,,,,,,,,,,,,,,,,,,,,,,,,,,,,,,,,,,,,,,,,,,,,,,,,,,,,,,,,,,,,,,
,,7,2.1578,7,2.1578,0,10,10,39,1,15,onion,oven,,90068,001,2022-04-25_20h57.04.278,SPAMnetsValid,2021.1.4,Linux x86_64,60.10699044,,,,,,,,,,,,,,,,,,,,,,,,,,,,,,,,,,,,,,,,,,,,,,,,,,,,,,,,,,,,,,,,,,,,,,,,,,,,,,,,,,,,,,,,,
,,3,3.0544,3,3.0544,0,11,11,55,1,1,rose,yogurt,,90068,001,2022-04-25_20h57.04.278,SPAMnetsValid,2021.1.4,Linux x86_64,60.10699044,,,,,,,,,,,,,,,,,,,,,,,,,,,,,,,,,,,,,,,,,,,,,,,,,,,,,,,,,,,,,,,,,,,,,,,,,,,,,,,,,,,,,,,,,
,,3,3.0615,3,3.0615,0,12,12,14,1,64,chocolate,garden,,90068,001,2022-04-25_20h57.04.278,SPAMnetsValid,2021.1.4,Linux x86_64,60.10699044,,,,,,,,,,,,,,,,,,,,,,,,,,,,,,,,,,,,,,,,,,,,,,,,,,,,,,,,,,,,,,,,,,,,,,,,,,,,,,,,,,,,,,,,,
,,6,3.3069,6,3.3069,0,13,13,34,1,29,chocolate,melon,,90068,001,2022-04-25_20h57.04.278,SPAMnetsValid,2021.1.4,Linux x86_64,60.10699044,,,,,,,,,,,,,,,,,,,,,,,,,,,,,,,,,,,,,,,,,,,,,,,,,,,,,,,,,,,,,,,,,,,,,,,,,,,,,,,,,,,,,,,,,
,,8,2.3191,8,2.3191,0,14,14,69,1,45,onion,pretzel,,90068,001,2022-04-25_20h57.04.278,SPAMnetsValid,2021.1.4,Linux x86_64,60.10699044,,,,,,,,,,,,,,,,,,,,,,,,,,,,,,,,,,,,,,,,,,,,,,,,,,,,,,,,,,,,,,,,,,,,,,,,,,,,,,,,,,,,,,,,,
,,9,23.3834,9,23.3834,0,15,15,30,1,3,cake,oven,,90068,001,2022-04-25_20h57.04.278,SPAMnetsValid,2021.1.4,Linux x86_64,60.10699044,,,,,,,,,,,,,,,,,,,,,,,,,,,,,,,,,,,,,,,,,,,,,,,,,,,,,,,,,,,,,,,,,,,,,,,,,,,,,,,,,,,,,,,,,
,,9,1.9086,9,1.9086,0,16,16,66,1,20,rose,tree,,90068,001,2022-04-25_20h57.04.278,SPAMnetsValid,2021.1.4,Linux x86_64,60.10699044,,,,,,,,,,,,,,,,,,,,,,,,,,,,,,,,,,,,,,,,,,,,,,,,,,,,,,,,,,,,,,,,,,,,,,,,,,,,,,,,,,,,,,,,,
,,9,2.1613,9,2.1613,0,17,17,58,1,94,kitchen,microwave,,90068,001,2022-04-25_20h57.04.278,SPAMnetsValid,2021.1.4,Linux x86_64,60.10699044,,,,,,,,,,,,,,,,,,,,,,,,,,,,,,,,,,,,,,,,,,,,,,,,,,,,,,,,,,,,,,,,,,,,,,,,,,,,,,,,,,,,,,,,,
,,8,3.1469,8,3.1469,0,18,18,2,1,22,kitchen,strawberry,,90068,001,2022-04-25_20h57.04.278,SPAMnetsValid,2021.1.4,Linux x86_64,60.10699044,,,,,,,,,,,,,,,,,,,,,,,,,,,,,,,,,,,,,,,,,,,,,,,,,,,,,,,,,,,,,,,,,,,,,,,,,,,,,,,,,,,,,,,,,
,,8,2.7421,8,2.7421,0,19,19,28,1,84,oven,tomato,,90068,001,2022-04-25_20h57.04.278,SPAMnetsValid,2021.1.4,Linux x86_64,60.10699044,,,,,,,,,,,,,,,,,,,,,,,,,,,,,,,,,,,,,,,,,,,,,,,,,,,,,,,,,,,,,,,,,,,,,,,,,,,,,,,,,,,,,,,,,
,,5,4.2017,5,4.2017,0,20,20,6,1,87,carrot,yogurt,,90068,001,2022-04-25_20h57.04.278,SPAMnetsValid,2021.1.4,Linux x86_64,60.10699044,,,,,,,,,,,,,,,,,,,,,,,,,,,,,,,,,,,,,,,,,,,,,,,,,,,,,,,,,,,,,,,,,,,,,,,,,,,,,,,,,,,,,,,,,
,,9,2.2367,9,2.2367,0,21,21,10,1,191,cake,cake,CHECK,90068,001,2022-04-25_20h57.04.278,SPAMnetsValid,2021.1.4,Linux x86_64,60.10699044,,,,,,,,,,,,,,,,,,,,,,,,,,,,,,,,,,,,,,,,,,,,,,,,,,,,,,,,,,,,,,,,,,,,,,,,,,,,,,,,,,,,,,,,,
,,8,3.6341,8,3.6341,0,22,22,72,1,59,rose,strawberry,,90068,001,2022-04-25_20h57.04.278,SPAMnetsValid,2021.1.4,Linux x86_64,60.10699044,,,,,,,,,,,,,,,,,,,,,,,,,,,,,,,,,,,,,,,,,,,,,,,,,,,,,,,,,,,,,,,,,,,,,,,,,,,,,,,,,,,,,,,,,
,,2,2.4413,2,2.4413,0,23,23,84,1,91,microwave,rose,,90068,001,2022-04-25_20h57.04.278,SPAMnetsValid,2021.1.4,Linux x86_64,60.10699044,,,,,,,,,,,,,,,,,,,,,,,,,,,,,,,,,,,,,,,,,,,,,,,,,,,,,,,,,,,,,,,,,,,,,,,,,,,,,,,,,,,,,,,,,
,,1,7.5287,1,7.5287,0,24,24,59,1,8,broom,melon,,90068,001,2022-04-25_20h57.04.278,SPAMnetsValid,2021.1.4,Linux x86_64,60.10699044,,,,,,,,,,,,,,,,,,,,,,,,,,,,,,,,,,,,,,,,,,,,,,,,,,,,,,,,,,,,,,,,,,,,,,,,,,,,,,,,,,,,,,,,,
,,9,4.7801,9,4.7801,0,25,25,82,1,93,kitchen,oven,,90068,001,2022-04-25_20h57.04.278,SPAMnetsValid,2021.1.4,Linux x86_64,60.10699044,,,,,,,,,,,,,,,,,,,,,,,,,,,,,,,,,,,,,,,,,,,,,,,,,,,,,,,,,,,,,,,,,,,,,,,,,,,,,,,,,,,,,,,,,
,,3,2.0918,3,2.0918,0,26,26,37,1,58,garden,oven,,90068,001,2022-04-25_20h57.04.278,SPAMnetsValid,2021.1.4,Linux x86_64,60.10699044,,,,,,,,,,,,,,,,,,,,,,,,,,,,,,,,,,,,,,,,,,,,,,,,,,,,,,,,,,,,,,,,,,,,,,,,,,,,,,,,,,,,,,,,,
,,8,1.9136,8,1.9136,0,27,27,93,1,63,cake,cookie,,90068,001,2022-04-25_20h57.04.278,SPAMnetsValid,2021.1.4,Linux x86_64,60.10699044,,,,,,,,,,,,,,,,,,,,,,,,,,,,,,,,,,,,,,,,,,,,,,,,,,,,,,,,,,,,,,,,,,,,,,,,,,,,,,,,,,,,,,,,,
,,8,2.8,8,2.8,0,28,28,91,1,2,kitchen,onion,,90068,001,2022-04-25_20h57.04.278,SPAMnetsValid,2021.1.4,Linux x86_64,60.10699044,,,,,,,,,,,,,,,,,,,,,,,,,,,,,,,,,,,,,,,,,,,,,,,,,,,,,,,,,,,,,,,,,,,,,,,,,,,,,,,,,,,,,,,,,
,,6,1.8862,6,1.8862,0,29,29,7,1,34,melon,oven,,90068,001,2022-04-25_20h57.04.278,SPAMnetsValid,2021.1.4,Linux x86_64,60.10699044,,,,,,,,,,,,,,,,,,,,,,,,,,,,,,,,,,,,,,,,,,,,,,,,,,,,,,,,,,,,,,,,,,,,,,,,,,,,,,,,,,,,,,,,,
,,1,8.8334,1,8.8334,0,30,30,1,1,31,cactus,pretzel,,90068,001,2022-04-25_20h57.04.278,SPAMnetsValid,2021.1.4,Linux x86_64,60.10699044,,,,,,,,,,,,,,,,,,,,,,,,,,,,,,,,,,,,,,,,,,,,,,,,,,,,,,,,,,,,,,,,,,,,,,,,,,,,,,,,,,,,,,,,,
,,9,2.7091,9,2.7091,0,31,31,52,1,4,chocolate,pretzel,,90068,001,2022-04-25_20h57.04.278,SPAMnetsValid,2021.1.4,Linux x86_64,60.10699044,,,,,,,,,,,,,,,,,,,,,,,,,,,,,,,,,,,,,,,,,,,,,,,,,,,,,,,,,,,,,,,,,,,,,,,,,,,,,,,,,,,,,,,,,
,,9,2.6956,9,2.6956,0,32,32,51,1,47,onion,tomato,,90068,001,2022-04-25_20h57.04.278,SPAMnetsValid,2021.1.4,Linux x86_64,60.10699044,,,,,,,,,,,,,,,,,,,,,,,,,,,,,,,,,,,,,,,,,,,,,,,,,,,,,,,,,,,,,,,,,,,,,,,,,,,,,,,,,,,,,,,,,
,,9,2.4623,9,2.4623,0,33,33,44,1,25,carrot,onion,,90068,001,2022-04-25_20h57.04.278,SPAMnetsValid,2021.1.4,Linux x86_64,60.10699044,,,,,,,,,,,,,,,,,,,,,,,,,,,,,,,,,,,,,,,,,,,,,,,,,,,,,,,,,,,,,,,,,,,,,,,,,,,,,,,,,,,,,,,,,
,,8,1.5059,8,1.5059,0,34,34,77,1,7,melon,tree,,90068,001,2022-04-25_20h57.04.278,SPAMnetsValid,2021.1.4,Linux x86_64,60.10699044,,,,,,,,,,,,,,,,,,,,,,,,,,,,,,,,,,,,,,,,,,,,,,,,,,,,,,,,,,,,,,,,,,,,,,,,,,,,,,,,,,,,,,,,,
,,2,4.2119,2,4.2119,0,35,35,43,1,11,refrigerator,tree,,90068,001,2022-04-25_20h57.04.278,SPAMnetsValid,2021.1.4,Linux x86_64,60.10699044,,,,,,,,,,,,,,,,,,,,,,,,,,,,,,,,,,,,,,,,,,,,,,,,,,,,,,,,,,,,,,,,,,,,,,,,,,,,,,,,,,,,,,,,,
,,2,22.6483,2,22.6483,0,36,36,27,1,72,broom,onion,,90068,001,2022-04-25_20h57.04.278,SPAMnetsValid,2021.1.4,Linux x86_64,60.10699044,,,,,,,,,,,,,,,,,,,,,,,,,,,,,,,,,,,,,,,,,,,,,,,,,,,,,,,,,,,,,,,,,,,,,,,,,,,,,,,,,,,,,,,,,
,,3,1.6621,3,1.6621,0,37,37,32,1,40,broom,cake,,90068,001,2022-04-25_20h57.04.278,SPAMnetsValid,2021.1.4,Linux x86_64,60.10699044,,,,,,,,,,,,,,,,,,,,,,,,,,,,,,,,,,,,,,,,,,,,,,,,,,,,,,,,,,,,,,,,,,,,,,,,,,,,,,,,,,,,,,,,,
,,8,1.9191,8,1.9191,0,38,38,41,1,19,microwave,pretzel,,90068,001,2022-04-25_20h57.04.278,SPAMnetsValid,2021.1.4,Linux x86_64,60.10699044,,,,,,,,,,,,,,,,,,,,,,,,,,,,,,,,,,,,,,,,,,,,,,,,,,,,,,,,,,,,,,,,,,,,,,,,,,,,,,,,,,,,,,,,,
,,1,1.2622,1,1.2622,0,39,39,40,1,74,broom,pretzel,,90068,001,2022-04-25_20h57.04.278,SPAMnetsValid,2021.1.4,Linux x86_64,60.10699044,,,,,,,,,,,,,,,,,,,,,,,,,,,,,,,,,,,,,,,,,,,,,,,,,,,,,,,,,,,,,,,,,,,,,,,,,,,,,,,,,,,,,,,,,
,,7,1.6599,7,1.6599,0,40,40,36,1,12,cookie,yogurt,,90068,001,2022-04-25_20h57.04.278,SPAMnetsValid,2021.1.4,Linux x86_64,60.10699044,,,,,,,,,,,,,,,,,,,,,,,,,,,,,,,,,,,,,,,,,,,,,,,,,,,,,,,,,,,,,,,,,,,,,,,,,,,,,,,,,,,,,,,,,
,,9,1.4467,9,1.4467,0,41,41,87,1,79,garden,strawberry,,90068,001,2022-04-25_20h57.04.278,SPAMnetsValid,2021.1.4,Linux x86_64,60.10699044,,,,,,,,,,,,,,,,,,,,,,,,,,,,,,,,,,,,,,,,,,,,,,,,,,,,,,,,,,,,,,,,,,,,,,,,,,,,,,,,,,,,,,,,,
,,6,1.6661,6,1.6661,0,42,42,8,1,43,chocolate,tomato,,90068,001,2022-04-25_20h57.04.278,SPAMnetsValid,2021.1.4,Linux x86_64,60.10699044,,,,,,,,,,,,,,,,,,,,,,,,,,,,,,,,,,,,,,,,,,,,,,,,,,,,,,,,,,,,,,,,,,,,,,,,,,,,,,,,,,,,,,,,,
,,8,2.9934,8,2.9934,0,43,43,35,1,55,tomato,tree,,90068,001,2022-04-25_20h57.04.278,SPAMnetsValid,2021.1.4,Linux x86_64,60.10699044,,,,,,,,,,,,,,,,,,,,,,,,,,,,,,,,,,,,,,,,,,,,,,,,,,,,,,,,,,,,,,,,,,,,,,,,,,,,,,,,,,,,,,,,,
,,9,2.8929,9,2.8929,0,44,44,22,1,16,chocolate,flower,,90068,001,2022-04-25_20h57.04.278,SPAMnetsValid,2021.1.4,Linux x86_64,60.10699044,,,,,,,,,,,,,,,,,,,,,,,,,,,,,,,,,,,,,,,,,,,,,,,,,,,,,,,,,,,,,,,,,,,,,,,,,,,,,,,,,,,,,,,,,
,,3,2.9006,3,2.9006,0,45,45,57,1,62,kitchen,rose,,90068,001,2022-04-25_20h57.04.278,SPAMnetsValid,2021.1.4,Linux x86_64,60.10699044,,,,,,,,,,,,,,,,,,,,,,,,,,,,,,,,,,,,,,,,,,,,,,,,,,,,,,,,,,,,,,,,,,,,,,,,,,,,,,,,,,,,,,,,,
,,3,1.795,3,1.795,0,46,46,56,1,78,cookie,rose,,90068,001,2022-04-25_20h57.04.278,SPAMnetsValid,2021.1.4,Linux x86_64,60.10699044,,,,,,,,,,,,,,,,,,,,,,,,,,,,,,,,,,,,,,,,,,,,,,,,,,,,,,,,,,,,,,,,,,,,,,,,,,,,,,,,,,,,,,,,,
,,1,2.0222,1,2.0222,0,47,47,88,1,92,broom,flower,,90068,001,2022-04-25_20h57.04.278,SPAMnetsValid,2021.1.4,Linux x86_64,60.10699044,,,,,,,,,,,,,,,,,,,,,,,,,,,,,,,,,,,,,,,,,,,,,,,,,,,,,,,,,,,,,,,,,,,,,,,,,,,,,,,,,,,,,,,,,
,,2,2.2087,2,2.2087,0,48,48,23,1,65,broom,garden,,90068,001,2022-04-25_20h57.04.278,SPAMnetsValid,2021.1.4,Linux x86_64,60.10699044,,,,,,,,,,,,,,,,,,,,,,,,,,,,,,,,,,,,,,,,,,,,,,,,,,,,,,,,,,,,,,,,,,,,,,,,,,,,,,,,,,,,,,,,,
,,2,1.6108,2,1.6108,0,49,49,5,1,13,broom,yogurt,,90068,001,2022-04-25_20h57.04.278,SPAMnetsValid,2021.1.4,Linux x86_64,60.10699044,,,,,,,,,,,,,,,,,,,,,,,,,,,,,,,,,,,,,,,,,,,,,,,,,,,,,,,,,,,,,,,,,,,,,,,,,,,,,,,,,,,,,,,,,
,,8,2.1162,8,2.1162,0,50,50,94,1,68,flower,tomato,,90068,001,2022-04-25_20h57.04.278,SPAMnetsValid,2021.1.4,Linux x86_64,60.10699044,,,,,,,,,,,,,,,,,,,,,,,,,,,,,,,,,,,,,,,,,,,,,,,,,,,,,,,,,,,,,,,,,,,,,,,,,,,,,,,,,,,,,,,,,
,,9,4.8287,9,4.8287,0,51,51,96,1,82,cake,kitchen,,90068,001,2022-04-25_20h57.04.278,SPAMnetsValid,2021.1.4,Linux x86_64,60.10699044,,,,,,,,,,,,,,,,,,,,,,,,,,,,,,,,,,,,,,,,,,,,,,,,,,,,,,,,,,,,,,,,,,,,,,,,,,,,,,,,,,,,,,,,,
,,2,2.1785,2,2.1785,0,52,52,89,1,80,chocolate,tree,,90068,001,2022-04-25_20h57.04.278,SPAMnetsValid,2021.1.4,Linux x86_64,60.10699044,,,,,,,,,,,,,,,,,,,,,,,,,,,,,,,,,,,,,,,,,,,,,,,,,,,,,,,,,,,,,,,,,,,,,,,,,,,,,,,,,,,,,,,,,
,,2,2.2942,2,2.2942,0,53,53,48,1,66,melon,yogurt,,90068,001,2022-04-25_20h57.04.278,SPAMnetsValid,2021.1.4,Linux x86_64,60.10699044,,,,,,,,,,,,,,,,,,,,,,,,,,,,,,,,,,,,,,,,,,,,,,,,,,,,,,,,,,,,,,,,,,,,,,,,,,,,,,,,,,,,,,,,,
,,9,2.9586,9,2.9586,0,54,54,67,1,54,chocolate,yogurt,,90068,001,2022-04-25_20h57.04.278,SPAMnetsValid,2021.1.4,Linux x86_64,60.10699044,,,,,,,,,,,,,,,,,,,,,,,,,,,,,,,,,,,,,,,,,,,,,,,,,,,,,,,,,,,,,,,,,,,,,,,,,,,,,,,,,,,,,,,,,
,,8,2.2883,8,2.2883,0,55,55,3,1,49,flower,strawberry,,90068,001,2022-04-25_20h57.04.278,SPAMnetsValid,2021.1.4,Linux x86_64,60.10699044,,,,,,,,,,,,,,,,,,,,,,,,,,,,,,,,,,,,,,,,,,,,,,,,,,,,,,,,,,,,,,,,,,,,,,,,,,,,,,,,,,,,,,,,,
,,9,1.7305,9,1.7305,0,56,56,81,1,60,cactus,onion,,90068,001,2022-04-25_20h57.04.278,SPAMnetsValid,2021.1.4,Linux x86_64,60.10699044,,,,,,,,,,,,,,,,,,,,,,,,,,,,,,,,,,,,,,,,,,,,,,,,,,,,,,,,,,,,,,,,,,,,,,,,,,,,,,,,,,,,,,,,,
,,2,4.4699,2,4.4699,0,57,57,74,1,70,chocolate,onion,,90068,001,2022-04-25_20h57.04.278,SPAMnetsValid,2021.1.4,Linux x86_64,60.10699044,,,,,,,,,,,,,,,,,,,,,,,,,,,,,,,,,,,,,,,,,,,,,,,,,,,,,,,,,,,,,,,,,,,,,,,,,,,,,,,,,,,,,,,,,
,,3,39.2376,3,39.2376,0,58,58,18,1,85,cake,tree,,90068,001,2022-04-25_20h57.04.278,SPAMnetsValid,2021.1.4,Linux x86_64,60.10699044,,,,,,,,,,,,,,,,,,,,,,,,,,,,,,,,,,,,,,,,,,,,,,,,,,,,,,,,,,,,,,,,,,,,,,,,,,,,,,,,,,,,,,,,,
,,1,1.9435,1,1.9435,0,59,59,25,1,23,flower,microwave,,90068,001,2022-04-25_20h57.04.278,SPAMnetsValid,2021.1.4,Linux x86_64,60.10699044,,,,,,,,,,,,,,,,,,,,,,,,,,,,,,,,,,,,,,,,,,,,,,,,,,,,,,,,,,,,,,,,,,,,,,,,,,,,,,,,,,,,,,,,,
,,2,2.9821,2,2.9821,0,60,60,16,1,14,broom,cookie,,90068,001,2022-04-25_20h57.04.278,SPAMnetsValid,2021.1.4,Linux x86_64,60.10699044,,,,,,,,,,,,,,,,,,,,,,,,,,,,,,,,,,,,,,,,,,,,,,,,,,,,,,,,,,,,,,,,,,,,,,,,,,,,,,,,,,,,,,,,,
,,7,2.4645,7,2.4645,0,61,61,73,1,50,carrot,rose,,90068,001,2022-04-25_20h57.04.278,SPAMnetsValid,2021.1.4,Linux x86_64,60.10699044,,,,,,,,,,,,,,,,,,,,,,,,,,,,,,,,,,,,,,,,,,,,,,,,,,,,,,,,,,,,,,,,,,,,,,,,,,,,,,,,,,,,,,,,,
,,2,1.8023,2,1.8023,0,62,62,68,1,24,cookie,tomato,,90068,001,2022-04-25_20h57.04.278,SPAMnetsValid,2021.1.4,Linux x86_64,60.10699044,,,,,,,,,,,,,,,,,,,,,,,,,,,,,,,,,,,,,,,,,,,,,,,,,,,,,,,,,,,,,,,,,,,,,,,,,,,,,,,,,,,,,,,,,
,,1,1.7602,1,1.7602,0,63,63,92,1,44,cookie,melon,,90068,001,2022-04-25_20h57.04.278,SPAMnetsValid,2021.1.4,Linux x86_64,60.10699044,,,,,,,,,,,,,,,,,,,,,,,,,,,,,,,,,,,,,,,,,,,,,,,,,,,,,,,,,,,,,,,,,,,,,,,,,,,,,,,,,,,,,,,,,
,,8,4.341,8,4.341,0,64,64,24,1,17,carrot,melon,,90068,001,2022-04-25_20h57.04.278,SPAMnetsValid,2021.1.4,Linux x86_64,60.10699044,,,,,,,,,,,,,,,,,,,,,,,,,,,,,,,,,,,,,,,,,,,,,,,,,,,,,,,,,,,,,,,,,,,,,,,,,,,,,,,,,,,,,,,,,
,,7,1.8766,7,1.8766,0,65,65,79,1,86,oven,rose,,90068,001,2022-04-25_20h57.04.278,SPAMnetsValid,2021.1.4,Linux x86_64,60.10699044,,,,,,,,,,,,,,,,,,,,,,,,,,,,,,,,,,,,,,,,,,,,,,,,,,,,,,,,,,,,,,,,,,,,,,,,,,,,,,,,,,,,,,,,,
,,8,6.1503,8,6.1503,0,66,66,78,1,30,cookie,pretzel,,90068,001,2022-04-25_20h57.04.278,SPAMnetsValid,2021.1.4,Linux x86_64,60.10699044,,,,,,,,,,,,,,,,,,,,,,,,,,,,,,,,,,,,,,,,,,,,,,,,,,,,,,,,,,,,,,,,,,,,,,,,,,,,,,,,,,,,,,,,,
,,3,1.9841,3,1.9841,0,67,67,71,1,38,pretzel,refrigerator,,90068,001,2022-04-25_20h57.04.278,SPAMnetsValid,2021.1.4,Linux x86_64,60.10699044,,,,,,,,,,,,,,,,,,,,,,,,,,,,,,,,,,,,,,,,,,,,,,,,,,,,,,,,,,,,,,,,,,,,,,,,,,,,,,,,,,,,,,,,,
,,9,1.8709,9,1.8709,0,68,68,80,1,61,strawberry,tomato,,90068,001,2022-04-25_20h57.04.278,SPAMnetsValid,2021.1.4,Linux x86_64,60.10699044,,,,,,,,,,,,,,,,,,,,,,,,,,,,,,,,,,,,,,,,,,,,,,,,,,,,,,,,,,,,,,,,,,,,,,,,,,,,,,,,,,,,,,,,,
,,4,1.5565,4,1.5565,0,69,69,49,1,57,flower,kitchen,,90068,001,2022-04-25_20h57.04.278,SPAMnetsValid,2021.1.4,Linux x86_64,60.10699044,,,,,,,,,,,,,,,,,,,,,,,,,,,,,,,,,,,,,,,,,,,,,,,,,,,,,,,,,,,,,,,,,,,,,,,,,,,,,,,,,,,,,,,,,
,,2,1.6003,2,1.6003,0,70,70,4,1,83,broom,carrot,,90068,001,2022-04-25_20h57.04.278,SPAMnetsValid,2021.1.4,Linux x86_64,60.10699044,,,,,,,,,,,,,,,,,,,,,,,,,,,,,,,,,,,,,,,,,,,,,,,,,,,,,,,,,,,,,,,,,,,,,,,,,,,,,,,,,,,,,,,,,
,,7,3.1438,7,3.1438,0,71,71,38,1,88,cactus,melon,,90068,001,2022-04-25_20h57.04.278,SPAMnetsValid,2021.1.4,Linux x86_64,60.10699044,,,,,,,,,,,,,,,,,,,,,,,,,,,,,,,,,,,,,,,,,,,,,,,,,,,,,,,,,,,,,,,,,,,,,,,,,,,,,,,,,,,,,,,,,
,,9,4.5917,9,4.5917,0,72,72,42,1,77,refrigerator,yogurt,,90068,001,2022-04-25_20h57.04.278,SPAMnetsValid,2021.1.4,Linux x86_64,60.10699044,,,,,,,,,,,,,,,,,,,,,,,,,,,,,,,,,,,,,,,,,,,,,,,,,,,,,,,,,,,,,,,,,,,,,,,,,,,,,,,,,,,,,,,,,
,,1,2.1216,1,2.1216,0,73,73,13,1,26,tomato,yogurt,,90068,001,2022-04-25_20h57.04.278,SPAMnetsValid,2021.1.4,Linux x86_64,60.10699044,,,,,,,,,,,,,,,,,,,,,,,,,,,,,,,,,,,,,,,,,,,,,,,,,,,,,,,,,,,,,,,,,,,,,,,,,,,,,,,,,,,,,,,,,
,,2,1.7617,2,1.7617,0,74,74,61,1,71,broom,rose,,90068,001,2022-04-25_20h57.04.278,SPAMnetsValid,2021.1.4,Linux x86_64,60.10699044,,,,,,,,,,,,,,,,,,,,,,,,,,,,,,,,,,,,,,,,,,,,,,,,,,,,,,,,,,,,,,,,,,,,,,,,,,,,,,,,,,,,,,,,,
,,2,3.22,2,3.22,0,75,75,9,1,75,cookie,onion,,90068,001,2022-04-25_20h57.04.278,SPAMnetsValid,2021.1.4,Linux x86_64,60.10699044,,,,,,,,,,,,,,,,,,,,,,,,,,,,,,,,,,,,,,,,,,,,,,,,,,,,,,,,,,,,,,,,,,,,,,,,,,,,,,,,,,,,,,,,,
,,7,4.6133,7,4.6133,0,76,76,75,1,69,carrot,refrigerator,,90068,001,2022-04-25_20h57.04.278,SPAMnetsValid,2021.1.4,Linux x86_64,60.10699044,,,,,,,,,,,,,,,,,,,,,,,,,,,,,,,,,,,,,,,,,,,,,,,,,,,,,,,,,,,,,,,,,,,,,,,,,,,,,,,,,,,,,,,,,
,,9,1.4643,9,1.4643,0,77,77,53,1,192,microwave,microwave,CHECK,90068,001,2022-04-25_20h57.04.278,SPAMnetsValid,2021.1.4,Linux x86_64,60.10699044,,,,,,,,,,,,,,,,,,,,,,,,,,,,,,,,,,,,,,,,,,,,,,,,,,,,,,,,,,,,,,,,,,,,,,,,,,,,,,,,,,,,,,,,,
,,1,2,1,2,0,78,78,95,1,52,carrot,tomato,,90068,001,2022-04-25_20h57.04.278,SPAMnetsValid,2021.1.4,Linux x86_64,60.10699044,,,,,,,,,,,,,,,,,,,,,,,,,,,,,,,,,,,,,,,,,,,,,,,,,,,,,,,,,,,,,,,,,,,,,,,,,,,,,,,,,,,,,,,,,
,,2,2.6927,2,2.6927,0,79,79,20,1,39,melon,pretzel,,90068,001,2022-04-25_20h57.04.278,SPAMnetsValid,2021.1.4,Linux x86_64,60.10699044,,,,,,,,,,,,,,,,,,,,,,,,,,,,,,,,,,,,,,,,,,,,,,,,,,,,,,,,,,,,,,,,,,,,,,,,,,,,,,,,,,,,,,,,,
,,3,2.058,3,2.058,0,80,80,47,1,73,broom,chocolate,,90068,001,2022-04-25_20h57.04.278,SPAMnetsValid,2021.1.4,Linux x86_64,60.10699044,,,,,,,,,,,,,,,,,,,,,,,,,,,,,,,,,,,,,,,,,,,,,,,,,,,,,,,,,,,,,,,,,,,,,,,,,,,,,,,,,,,,,,,,,
,,6,1.7187,6,1.7187,0,81,81,21,1,56,cactus,tree,,90068,001,2022-04-25_20h57.04.278,SPAMnetsValid,2021.1.4,Linux x86_64,60.10699044,,,,,,,,,,,,,,,,,,,,,,,,,,,,,,,,,,,,,,,,,,,,,,,,,,,,,,,,,,,,,,,,,,,,,,,,,,,,,,,,,,,,,,,,,
,,4,1.8217,4,1.8217,0,82,82,86,1,51,onion,strawberry,,90068,001,2022-04-25_20h57.04.278,SPAMnetsValid,2021.1.4,Linux x86_64,60.10699044,,,,,,,,,,,,,,,,,,,,,,,,,,,,,,,,,,,,,,,,,,,,,,,,,,,,,,,,,,,,,,,,,,,,,,,,,,,,,,,,,,,,,,,,,
,,5,5.876,5,5.876,0,83,83,62,1,18,onion,refrigerator,,90068,001,2022-04-25_20h57.04.278,SPAMnetsValid,2021.1.4,Linux x86_64,60.10699044,,,,,,,,,,,,,,,,,,,,,,,,,,,,,,,,,,,,,,,,,,,,,,,,,,,,,,,,,,,,,,,,,,,,,,,,,,,,,,,,,,,,,,,,,
,,4,3.4493,4,3.4493,0,84,84,50,1,81,pretzel,yogurt,,90068,001,2022-04-25_20h57.04.278,SPAMnetsValid,2021.1.4,Linux x86_64,60.10699044,,,,,,,,,,,,,,,,,,,,,,,,,,,,,,,,,,,,,,,,,,,,,,,,,,,,,,,,,,,,,,,,,,,,,,,,,,,,,,,,,,,,,,,,,
,,3,1.857,3,1.857,0,85,85,17,1,27,cactus,cookie,,90068,001,2022-04-25_20h57.04.278,SPAMnetsValid,2021.1.4,Linux x86_64,60.10699044,,,,,,,,,,,,,,,,,,,,,,,,,,,,,,,,,,,,,,,,,,,,,,,,,,,,,,,,,,,,,,,,,,,,,,,,,,,,,,,,,,,,,,,,,
,,2,2.2506,2,2.2506,0,86,86,90,1,95,broom,refrigerator,,90068,001,2022-04-25_20h57.04.278,SPAMnetsValid,2021.1.4,Linux x86_64,60.10699044,,,,,,,,,,,,,,,,,,,,,,,,,,,,,,,,,,,,,,,,,,,,,,,,,,,,,,,,,,,,,,,,,,,,,,,,,,,,,,,,,,,,,,,,,
,,2,2.0762,2,2.0762,0,87,87,65,1,46,garden,yogurt,,90068,001,2022-04-25_20h57.04.278,SPAMnetsValid,2021.1.4,Linux x86_64,60.10699044,,,,,,,,,,,,,,,,,,,,,,,,,,,,,,,,,,,,,,,,,,,,,,,,,,,,,,,,,,,,,,,,,,,,,,,,,,,,,,,,,,,,,,,,,
,,3,2.3298,3,2.3298,0,88,88,85,1,90,cactus,cake,,90068,001,2022-04-25_20h57.04.278,SPAMnetsValid,2021.1.4,Linux x86_64,60.10699044,,,,,,,,,,,,,,,,,,,,,,,,,,,,,,,,,,,,,,,,,,,,,,,,,,,,,,,,,,,,,,,,,,,,,,,,,,,,,,,,,,,,,,,,,
,,7,2.6424,7,2.6424,0,89,89,45,1,10,flower,onion,,90068,001,2022-04-25_20h57.04.278,SPAMnetsValid,2021.1.4,Linux x86_64,60.10699044,,,,,,,,,,,,,,,,,,,,,,,,,,,,,,,,,,,,,,,,,,,,,,,,,,,,,,,,,,,,,,,,,,,,,,,,,,,,,,,,,,,,,,,,,
,,7,39.0979,7,39.0979,0,90,90,33,1,32,cake,microwave,,90068,001,2022-04-25_20h57.04.278,SPAMnetsValid,2021.1.4,Linux x86_64,60.10699044,,,,,,,,,,,,,,,,,,,,,,,,,,,,,,,,,,,,,,,,,,,,,,,,,,,,,,,,,,,,,,,,,,,,,,,,,,,,,,,,,,,,,,,,,
,,3,1.5377,3,1.5377,0,91,91,54,1,28,cake,melon,,90068,001,2022-04-25_20h57.04.278,SPAMnetsValid,2021.1.4,Linux x86_64,60.10699044,,,,,,,,,,,,,,,,,,,,,,,,,,,,,,,,,,,,,,,,,,,,,,,,,,,,,,,,,,,,,,,,,,,,,,,,,,,,,,,,,,,,,,,,,
,,9,1.891,9,1.891,0,92,92,64,1,9,kitchen,refrigerator,,90068,001,2022-04-25_20h57.04.278,SPAMnetsValid,2021.1.4,Linux x86_64,60.10699044,,,,,,,,,,,,,,,,,,,,,,,,,,,,,,,,,,,,,,,,,,,,,,,,,,,,,,,,,,,,,,,,,,,,,,,,,,,,,,,,,,,,,,,,,
,,3,2.0284,3,2.0284,0,93,93,12,1,67,flower,yogurt,,90068,001,2022-04-25_20h57.04.278,SPAMnetsValid,2021.1.4,Linux x86_64,60.10699044,,,,,,,,,,,,,,,,,,,,,,,,,,,,,,,,,,,,,,,,,,,,,,,,,,,,,,,,,,,,,,,,,,,,,,,,,,,,,,,,,,,,,,,,,
,,3,3.0577,3,3.0577,0,94,94,26,1,35,flower,pretzel,,90068,001,2022-04-25_20h57.04.278,SPAMnetsValid,2021.1.4,Linux x86_64,60.10699044,,,,,,,,,,,,,,,,,,,,,,,,,,,,,,,,,,,,,,,,,,,,,,,,,,,,,,,,,,,,,,,,,,,,,,,,,,,,,,,,,,,,,,,,,
,,2,1.72,2,1.72,0,95,95,0,1,53,garden,pretzel,,90068,001,2022-04-25_20h57.04.278,SPAMnetsValid,2021.1.4,Linux x86_64,60.10699044,,,,,,,,,,,,,,,,,,,,,,,,,,,,,,,,,,,,,,,,,,,,,,,,,,,,,,,,,,,,,,,,,,,,,,,,,,,,,,,,,,,,,,,,,
,,2,6.5485,2,6.5485,0,96,96,31,1,33,oven,yogurt,,90068,001,2022-04-25_20h57.04.278,SPAMnetsValid,2021.1.4,Linux x86_64,60.10699044,,,,,,,,,,,,,,,,,,,,,,,,,,,,,,,,,,,,,,,,,,,,,,,,,,,,,,,,,,,,,,,,,,,,,,,,,,,,,,,,,,,,,,,,,
,,,,,,,,,,,,,,,90068,001,2022-04-25_20h57.04.278,SPAMnetsValid,2021.1.4,Linux x86_64,60.10699044,0,0,0,0,1,,,,,,,,,,,,,,,,,,,,,,,,,,,,,,,,,,,,,,,,,,,,,,,,,,,,,,,,,,,,,,,,,,,,,,,,,,,,,,,,,,,,
,,,,,,,,,,,,,,,90068,001,2022-04-25_20h57.04.278,SPAMnetsValid,2021.1.4,Linux x86_64,60.10699044,,,,,,0,0,0,0,1,1,0,,,,,,,,,,,,,,,,,,,,,,,,,,,,,,,,,,,,,,,,,,,,,,,,,,,,,,,,,,,,,,,,,,,,,,,,,,,,,
,,,,2,5.3586,,,,,,121,broom,microwave,,90068,001,2022-04-25_20h57.04.278,SPAMnetsValid,2021.1.4,Linux x86_64,60.10699044,,,,,,,,,,,,,2,5.3586,0,0,0,95,1,,,,,,,,,,,,,,,,,,,,,,,,,,,,,,,,,,,,,,,,,,,,,,,,,,,,,,,,,,,,,,,,,,,,,,
,,,,2,2.0957,,,,,,132,broom,tree,,90068,001,2022-04-25_20h57.04.278,SPAMnetsValid,2021.1.4,Linux x86_64,60.10699044,,,,,,,,,,,,,2,2.0957,0,1,1,78,1,,,,,,,,,,,,,,,,,,,,,,,,,,,,,,,,,,,,,,,,,,,,,,,,,,,,,,,,,,,,,,,,,,,,,,
,,,,9,1.548,,,,,,116,cake,chocolate,,90068,001,2022-04-25_20h57.04.278,SPAMnetsValid,2021.1.4,Linux x86_64,60.10699044,,,,,,,,,,,,,9,1.548,0,2,2,44,1,,,,,,,,,,,,,,,,,,,,,,,,,,,,,,,,,,,,,,,,,,,,,,,,,,,,,,,,,,,,,,,,,,,,,,
,,,,7,1.8206,,,,,,178,cactus,carrot,,90068,001,2022-04-25_20h57.04.278,SPAMnetsValid,2021.1.4,Linux x86_64,60.10699044,,,,,,,,,,,,,7,1.8206,0,3,3,75,1,,,,,,,,,,,,,,,,,,,,,,,,,,,,,,,,,,,,,,,,,,,,,,,,,,,,,,,,,,,,,,,,,,,,,,
,,,,9,1.8304,,,,,,158,cookie,oven,,90068,001,2022-04-25_20h57.04.278,SPAMnetsValid,2021.1.4,Linux x86_64,60.10699044,,,,,,,,,,,,,9,1.8304,0,4,4,27,1,,,,,,,,,,,,,,,,,,,,,,,,,,,,,,,,,,,,,,,,,,,,,,,,,,,,,,,,,,,,,,,,,,,,,,
,,,,2,1.7765,,,,,,180,tree,yogurt,,90068,001,2022-04-25_20h57.04.278,SPAMnetsValid,2021.1.4,Linux x86_64,60.10699044,,,,,,,,,,,,,2,1.7765,0,5,5,68,1,,,,,,,,,,,,,,,,,,,,,,,,,,,,,,,,,,,,,,,,,,,,,,,,,,,,,,,,,,,,,,,,,,,,,,
,,,,9,71.7867,,,,,,122,flower,garden,,90068,001,2022-04-25_20h57.04.278,SPAMnetsValid,2021.1.4,Linux x86_64,60.10699044,,,,,,,,,,,,,9,71.7867,0,6,6,60,1,,,,,,,,,,,,,,,,,,,,,,,,,,,,,,,,,,,,,,,,,,,,,,,,,,,,,,,,,,,,,,,,,,,,,,
,,,,9,2.4144,,,,,,142,garden,tree,,90068,001,2022-04-25_20h57.04.278,SPAMnetsValid,2021.1.4,Linux x86_64,60.10699044,,,,,,,,,,,,,9,2.4144,0,7,7,22,1,,,,,,,,,,,,,,,,,,,,,,,,,,,,,,,,,,,,,,,,,,,,,,,,,,,,,,,,,,,,,,,,,,,,,,
,,,,8,1.6796,,,,,,131,cactus,garden,,90068,001,2022-04-25_20h57.04.278,SPAMnetsValid,2021.1.4,Linux x86_64,60.10699044,,,,,,,,,,,,,8,1.6796,0,8,8,33,1,,,,,,,,,,,,,,,,,,,,,,,,,,,,,,,,,,,,,,,,,,,,,,,,,,,,,,,,,,,,,,,,,,,,,,
,,,,7,1.767,,,,,,156,melon,rose,,90068,001,2022-04-25_20h57.04.278,SPAMnetsValid,2021.1.4,Linux x86_64,60.10699044,,,,,,,,,,,,,7,1.767,0,9,9,31,1,,,,,,,,,,,,,,,,,,,,,,,,,,,,,,,,,,,,,,,,,,,,,,,,,,,,,,,,,,,,,,,,,,,,,,
,,,,7,1.5814,,,,,,114,cookie,strawberry,,90068,001,2022-04-25_20h57.04.278,SPAMnetsValid,2021.1.4,Linux x86_64,60.10699044,,,,,,,,,,,,,7,1.5814,0,10,10,87,1,,,,,,,,,,,,,,,,,,,,,,,,,,,,,,,,,,,,,,,,,,,,,,,,,,,,,,,,,,,,,,,,,,,,,,
,,,,6,1.9446,,,,,,161,kitchen,pretzel,,90068,001,2022-04-25_20h57.04.278,SPAMnetsValid,2021.1.4,Linux x86_64,60.10699044,,,,,,,,,,,,,6,1.9446,0,11,11,36,1,,,,,,,,,,,,,,,,,,,,,,,,,,,,,,,,,,,,,,,,,,,,,,,,,,,,,,,,,,,,,,,,,,,,,,
,,,,3,1.9106,,,,,,189,onion,tree,,90068,001,2022-04-25_20h57.04.278,SPAMnetsValid,2021.1.4,Linux x86_64,60.10699044,,,,,,,,,,,,,3,1.9106,0,12,12,62,1,,,,,,,,,,,,,,,,,,,,,,,,,,,,,,,,,,,,,,,,,,,,,,,,,,,,,,,,,,,,,,,,,,,,,,
,,,,3,1.5601,,,,,,101,cactus,kitchen,,90068,001,2022-04-25_20h57.04.278,SPAMnetsValid,2021.1.4,Linux x86_64,60.10699044,,,,,,,,,,,,,3,1.5601,0,13,13,54,1,,,,,,,,,,,,,,,,,,,,,,,,,,,,,,,,,,,,,,,,,,,,,,,,,,,,,,,,,,,,,,,,,,,,,,
,,,,9,1.5705,,,,,,112,cake,carrot,,90068,001,2022-04-25_20h57.04.278,SPAMnetsValid,2021.1.4,Linux x86_64,60.10699044,,,,,,,,,,,,,9,1.5705,0,14,14,39,1,,,,,,,,,,,,,,,,,,,,,,,,,,,,,,,,,,,,,,,,,,,,,,,,,,,,,,,,,,,,,,,,,,,,,,
,,,,2,3.34,,,,,,130,microwave,yogurt,,90068,001,2022-04-25_20h57.04.278,SPAMnetsValid,2021.1.4,Linux x86_64,60.10699044,,,,,,,,,,,,,2,3.34,0,15,15,84,1,,,,,,,,,,,,,,,,,,,,,,,,,,,,,,,,,,,,,,,,,,,,,,,,,,,,,,,,,,,,,,,,,,,,,,
,,,,7,8.4541,,,,,,107,rose,tomato,,90068,001,2022-04-25_20h57.04.278,SPAMnetsValid,2021.1.4,Linux x86_64,60.10699044,,,,,,,,,,,,,7,8.4541,0,16,16,26,1,,,,,,,,,,,,,,,,,,,,,,,,,,,,,,,,,,,,,,,,,,,,,,,,,,,,,,,,,,,,,,,,,,,,,,
,,,,2,1.4829,,,,,,153,carrot,pretzel,,90068,001,2022-04-25_20h57.04.278,SPAMnetsValid,2021.1.4,Linux x86_64,60.10699044,,,,,,,,,,,,,2,1.4829,0,17,17,34,1,,,,,,,,,,,,,,,,,,,,,,,,,,,,,,,,,,,,,,,,,,,,,,,,,,,,,,,,,,,,,,,,,,,,,,
,,,,1,1.7982,,,,,,190,microwave,strawberry,,90068,001,2022-04-25_20h57.04.278,SPAMnetsValid,2021.1.4,Linux x86_64,60.10699044,,,,,,,,,,,,,1,1.7982,0,18,18,90,1,,,,,,,,,,,,,,,,,,,,,,,,,,,,,,,,,,,,,,,,,,,,,,,,,,,,,,,,,,,,,,,,,,,,,,
,,,,2,1.3043,,,,,,128,melon,microwave,,90068,001,2022-04-25_20h57.04.278,SPAMnetsValid,2021.1.4,Linux x86_64,60.10699044,,,,,,,,,,,,,2,1.3043,0,19,19,74,1,,,,,,,,,,,,,,,,,,,,,,,,,,,,,,,,,,,,,,,,,,,,,,,,,,,,,,,,,,,,,,,,,,,,,,
,,,,9,1.4959,,,,,,193,melon,melon,CHECK,90068,001,2022-04-25_20h57.04.278,SPAMnetsValid,2021.1.4,Linux x86_64,60.10699044,,,,,,,,,,,,,9,1.4959,0,20,20,86,1,,,,,,,,,,,,,,,,,,,,,,,,,,,,,,,,,,,,,,,,,,,,,,,,,,,,,,,,,,,,,,,,,,,,,,
,,,,2,2.2742,,,,,,151,microwave,onion,,90068,001,2022-04-25_20h57.04.278,SPAMnetsValid,2021.1.4,Linux x86_64,60.10699044,,,,,,,,,,,,,2,2.2742,0,21,21,6,1,,,,,,,,,,,,,,,,,,,,,,,,,,,,,,,,,,,,,,,,,,,,,,,,,,,,,,,,,,,,,,,,,,,,,,
,,,,6,1.7033,,,,,,119,strawberry,tree,,90068,001,2022-04-25_20h57.04.278,SPAMnetsValid,2021.1.4,Linux x86_64,60.10699044,,,,,,,,,,,,,6,1.7033,0,22,22,18,1,,,,,,,,,,,,,,,,,,,,,,,,,,,,,,,,,,,,,,,,,,,,,,,,,,,,,,,,,,,,,,,,,,,,,,
,,,,3,4.1996,,,,,,164,cookie,garden,,90068,001,2022-04-25_20h57.04.278,SPAMnetsValid,2021.1.4,Linux x86_64,60.10699044,,,,,,,,,,,,,3,4.1996,0,23,23,59,1,,,,,,,,,,,,,,,,,,,,,,,,,,,,,,,,,,,,,,,,,,,,,,,,,,,,,,,,,,,,,,,,,,,,,,
,,,,8,2.4078,,,,,,184,oven,pretzel,,90068,001,2022-04-25_20h57.04.278,SPAMnetsValid,2021.1.4,Linux x86_64,60.10699044,,,,,,,,,,,,,8,2.4078,0,24,24,42,1,,,,,,,,,,,,,,,,,,,,,,,,,,,,,,,,,,,,,,,,,,,,,,,,,,,,,,,,,,,,,,,,,,,,,,
,,,,1,2.3973,,,,,,159,cookie,flower,,90068,001,2022-04-25_20h57.04.278,SPAMnetsValid,2021.1.4,Linux x86_64,60.10699044,,,,,,,,,,,,,1,2.3973,0,25,25,21,1,,,,,,,,,,,,,,,,,,,,,,,,,,,,,,,,,,,,,,,,,,,,,,,,,,,,,,,,,,,,,,,,,,,,,,
,,,,2,57.3773,,,,,,146,pretzel,tree,,90068,001,2022-04-25_20h57.04.278,SPAMnetsValid,2021.1.4,Linux x86_64,60.10699044,,,,,,,,,,,,,2,57.3773,0,26,26,80,1,,,,,,,,,,,,,,,,,,,,,,,,,,,,,,,,,,,,,,,,,,,,,,,,,,,,,,,,,,,,,,,,,,,,,,
,,,,6,1.8369,,,,,,134,carrot,flower,,90068,001,2022-04-25_20h57.04.278,SPAMnetsValid,2021.1.4,Linux x86_64,60.10699044,,,,,,,,,,,,,6,1.8369,0,27,27,93,1,,,,,,,,,,,,,,,,,,,,,,,,,,,,,,,,,,,,,,,,,,,,,,,,,,,,,,,,,,,,,,,,,,,,,,
,,,,5,1.9308,,,,,,141,melon,tomato,,90068,001,2022-04-25_20h57.04.278,SPAMnetsValid,2021.1.4,Linux x86_64,60.10699044,,,,,,,,,,,,,5,1.9308,0,28,28,70,1,,,,,,,,,,,,,,,,,,,,,,,,,,,,,,,,,,,,,,,,,,,,,,,,,,,,,,,,,,,,,,,,,,,,,,
,,,,3,1.8545,,,,,,96,oven,strawberry,,90068,001,2022-04-25_20h57.04.278,SPAMnetsValid,2021.1.4,Linux x86_64,60.10699044,,,,,,,,,,,,,3,1.8545,0,29,29,67,1,,,,,,,,,,,,,,,,,,,,,,,,,,,,,,,,,,,,,,,,,,,,,,,,,,,,,,,,,,,,,,,,,,,,,,
,,,,1,1.5631,,,,,,135,carrot,oven,,90068,001,2022-04-25_20h57.04.278,SPAMnetsValid,2021.1.4,Linux x86_64,60.10699044,,,,,,,,,,,,,1,1.5631,0,30,30,73,1,,,,,,,,,,,,,,,,,,,,,,,,,,,,,,,,,,,,,,,,,,,,,,,,,,,,,,,,,,,,,,,,,,,,,,
,,,,1,1.9498,,,,,,149,broom,tomato,,90068,001,2022-04-25_20h57.04.278,SPAMnetsValid,2021.1.4,Linux x86_64,60.10699044,,,,,,,,,,,,,1,1.9498,0,31,31,20,1,,,,,,,,,,,,,,,,,,,,,,,,,,,,,,,,,,,,,,,,,,,,,,,,,,,,,,,,,,,,,,,,,,,,,,
,,,,8,2.6351,,,,,,106,cake,strawberry,,90068,001,2022-04-25_20h57.04.278,SPAMnetsValid,2021.1.4,Linux x86_64,60.10699044,,,,,,,,,,,,,8,2.6351,0,32,32,0,1,,,,,,,,,,,,,,,,,,,,,,,,,,,,,,,,,,,,,,,,,,,,,,,,,,,,,,,,,,,,,,,,,,,,,,
,,,,9,2.0281,,,,,,160,cookie,kitchen,,90068,001,2022-04-25_20h57.04.278,SPAMnetsValid,2021.1.4,Linux x86_64,60.10699044,,,,,,,,,,,,,9,2.0281,0,33,33,65,1,,,,,,,,,,,,,,,,,,,,,,,,,,,,,,,,,,,,,,,,,,,,,,,,,,,,,,,,,,,,,,,,,,,,,,
,,,,2,1.7792,,,,,,129,cactus,refrigerator,,90068,001,2022-04-25_20h57.04.278,SPAMnetsValid,2021.1.4,Linux x86_64,60.10699044,,,,,,,,,,,,,2,1.7792,0,34,34,3,1,,,,,,,,,,,,,,,,,,,,,,,,,,,,,,,,,,,,,,,,,,,,,,,,,,,,,,,,,,,,,,,,,,,,,,
,,,,3,1.6426,,,,,,139,carrot,strawberry,,90068,001,2022-04-25_20h57.04.278,SPAMnetsValid,2021.1.4,Linux x86_64,60.10699044,,,,,,,,,,,,,3,1.6426,0,35,35,37,1,,,,,,,,,,,,,,,,,,,,,,,,,,,,,,,,,,,,,,,,,,,,,,,,,,,,,,,,,,,,,,,,,,,,,,
,,,,2,3.3415,,,,,,127,cactus,chocolate,,90068,001,2022-04-25_20h57.04.278,SPAMnetsValid,2021.1.4,Linux x86_64,60.10699044,,,,,,,,,,,,,2,3.3415,0,36,36,57,1,,,,,,,,,,,,,,,,,,,,,,,,,,,,,,,,,,,,,,,,,,,,,,,,,,,,,,,,,,,,,,,,,,,,,,
,,,,3,2.1005,,,,,,104,garden,microwave,,90068,001,2022-04-25_20h57.04.278,SPAMnetsValid,2021.1.4,Linux x86_64,60.10699044,,,,,,,,,,,,,3,2.1005,0,37,37,81,1,,,,,,,,,,,,,,,,,,,,,,,,,,,,,,,,,,,,,,,,,,,,,,,,,,,,,,,,,,,,,,,,,,,,,,
,,,,7,2.9707,,,,,,147,cake,refrigerator,,90068,001,2022-04-25_20h57.04.278,SPAMnetsValid,2021.1.4,Linux x86_64,60.10699044,,,,,,,,,,,,,7,2.9707,0,38,38,35,1,,,,,,,,,,,,,,,,,,,,,,,,,,,,,,,,,,,,,,,,,,,,,,,,,,,,,,,,,,,,,,,,,,,,,,
,,,,9,2.0775,,,,,,167,carrot,garden,,90068,001,2022-04-25_20h57.04.278,SPAMnetsValid,2021.1.4,Linux x86_64,60.10699044,,,,,,,,,,,,,9,2.0775,0,39,39,47,1,,,,,,,,,,,,,,,,,,,,,,,,,,,,,,,,,,,,,,,,,,,,,,,,,,,,,,,,,,,,,,,,,,,,,,
,,,,2,2.6889,,,,,,123,cookie,tree,,90068,001,2022-04-25_20h57.04.278,SPAMnetsValid,2021.1.4,Linux x86_64,60.10699044,,,,,,,,,,,,,2,2.6889,0,40,40,46,1,,,,,,,,,,,,,,,,,,,,,,,,,,,,,,,,,,,,,,,,,,,,,,,,,,,,,,,,,,,,,,,,,,,,,,
,,,,2,13.954,,,,,,172,kitchen,melon,,90068,001,2022-04-25_20h57.04.278,SPAMnetsValid,2021.1.4,Linux x86_64,60.10699044,,,,,,,,,,,,,2,13.954,0,41,41,77,1,,,,,,,,,,,,,,,,,,,,,,,,,,,,,,,,,,,,,,,,,,,,,,,,,,,,,,,,,,,,,,,,,,,,,,
,,,,4,2.106,,,,,,103,pretzel,tomato,,90068,001,2022-04-25_20h57.04.278,SPAMnetsValid,2021.1.4,Linux x86_64,60.10699044,,,,,,,,,,,,,4,2.106,0,42,42,79,1,,,,,,,,,,,,,,,,,,,,,,,,,,,,,,,,,,,,,,,,,,,,,,,,,,,,,,,,,,,,,,,,,,,,,,
,,,,9,1.8651,,,,,,136,chocolate,microwave,,90068,001,2022-04-25_20h57.04.278,SPAMnetsValid,2021.1.4,Linux x86_64,60.10699044,,,,,,,,,,,,,9,1.8651,0,43,43,96,1,,,,,,,,,,,,,,,,,,,,,,,,,,,,,,,,,,,,,,,,,,,,,,,,,,,,,,,,,,,,,,,,,,,,,,
,,,,3,2.9373,,,,,,98,pretzel,strawberry,,90068,001,2022-04-25_20h57.04.278,SPAMnetsValid,2021.1.4,Linux x86_64,60.10699044,,,,,,,,,,,,,3,2.9373,0,44,44,82,1,,,,,,,,,,,,,,,,,,,,,,,,,,,,,,,,,,,,,,,,,,,,,,,,,,,,,,,,,,,,,,,,,,,,,,
,,,,8,1.5346,,,,,,110,chocolate,cookie,,90068,001,2022-04-25_20h57.04.278,SPAMnetsValid,2021.1.4,Linux x86_64,60.10699044,,,,,,,,,,,,,8,1.5346,0,45,45,52,1,,,,,,,,,,,,,,,,,,,,,,,,,,,,,,,,,,,,,,,,,,,,,,,,,,,,,,,,,,,,,,,,,,,,,,
,,,,7,2.4846,,,,,,133,cake,flower,,90068,001,2022-04-25_20h57.04.278,SPAMnetsValid,2021.1.4,Linux x86_64,60.10699044,,,,,,,,,,,,,7,2.4846,0,46,46,94,1,,,,,,,,,,,,,,,,,,,,,,,,,,,,,,,,,,,,,,,,,,,,,,,,,,,,,,,,,,,,,,,,,,,,,,
,,,,5,2.686,,,,,,173,kitchen,tomato,,90068,001,2022-04-25_20h57.04.278,SPAMnetsValid,2021.1.4,Linux x86_64,60.10699044,,,,,,,,,,,,,5,2.686,0,47,47,1,1,,,,,,,,,,,,,,,,,,,,,,,,,,,,,,,,,,,,,,,,,,,,,,,,,,,,,,,,,,,,,,,,,,,,,,
,,,,3,1.6787,,,,,,169,onion,yogurt,,90068,001,2022-04-25_20h57.04.278,SPAMnetsValid,2021.1.4,Linux x86_64,60.10699044,,,,,,,,,,,,,3,1.6787,0,48,48,24,1,,,,,,,,,,,,,,,,,,,,,,,,,,,,,,,,,,,,,,,,,,,,,,,,,,,,,,,,,,,,,,,,,,,,,,
,,,,1,1.5489,,,,,,179,broom,oven,,90068,001,2022-04-25_20h57.04.278,SPAMnetsValid,2021.1.4,Linux x86_64,60.10699044,,,,,,,,,,,,,1,1.5489,0,49,49,45,1,,,,,,,,,,,,,,,,,,,,,,,,,,,,,,,,,,,,,,,,,,,,,,,,,,,,,,,,,,,,,,,,,,,,,,
,,,,7,3.1058,,,,,,181,carrot,kitchen,,90068,001,2022-04-25_20h57.04.278,SPAMnetsValid,2021.1.4,Linux x86_64,60.10699044,,,,,,,,,,,,,7,3.1058,0,50,50,72,1,,,,,,,,,,,,,,,,,,,,,,,,,,,,,,,,,,,,,,,,,,,,,,,,,,,,,,,,,,,,,,,,,,,,,,
,,,,3,1.4788,,,,,,145,cactus,yogurt,,90068,001,2022-04-25_20h57.04.278,SPAMnetsValid,2021.1.4,Linux x86_64,60.10699044,,,,,,,,,,,,,3,1.4788,0,51,51,15,1,,,,,,,,,,,,,,,,,,,,,,,,,,,,,,,,,,,,,,,,,,,,,,,,,,,,,,,,,,,,,,,,,,,,,,
,,,,3,2.429,,,,,,148,flower,melon,,90068,001,2022-04-25_20h57.04.278,SPAMnetsValid,2021.1.4,Linux x86_64,60.10699044,,,,,,,,,,,,,3,2.429,0,52,52,23,1,,,,,,,,,,,,,,,,,,,,,,,,,,,,,,,,,,,,,,,,,,,,,,,,,,,,,,,,,,,,,,,,,,,,,,
,,,,9,2.6081,,,,,,138,flower,rose,,90068,001,2022-04-25_20h57.04.278,SPAMnetsValid,2021.1.4,Linux x86_64,60.10699044,,,,,,,,,,,,,9,2.6081,0,53,53,61,1,,,,,,,,,,,,,,,,,,,,,,,,,,,,,,,,,,,,,,,,,,,,,,,,,,,,,,,,,,,,,,,,,,,,,,
,,,,3,1.7785,,,,,,143,pretzel,rose,,90068,001,2022-04-25_20h57.04.278,SPAMnetsValid,2021.1.4,Linux x86_64,60.10699044,,,,,,,,,,,,,3,1.7785,0,54,54,55,1,,,,,,,,,,,,,,,,,,,,,,,,,,,,,,,,,,,,,,,,,,,,,,,,,,,,,,,,,,,,,,,,,,,,,,
,,,,2,1.6969,,,,,,140,cookie,refrigerator,,90068,001,2022-04-25_20h57.04.278,SPAMnetsValid,2021.1.4,Linux x86_64,60.10699044,,,,,,,,,,,,,2,1.6969,0,55,55,89,1,,,,,,,,,,,,,,,,,,,,,,,,,,,,,,,,,,,,,,,,,,,,,,,,,,,,,,,,,,,,,,,,,,,,,,
,,,,3,2.0448,,,,,,154,strawberry,yogurt,,90068,001,2022-04-25_20h57.04.278,SPAMnetsValid,2021.1.4,Linux x86_64,60.10699044,,,,,,,,,,,,,3,2.0448,0,56,56,28,1,,,,,,,,,,,,,,,,,,,,,,,,,,,,,,,,,,,,,,,,,,,,,,,,,,,,,,,,,,,,,,,,,,,,,,
,,,,2,1.7661,,,,,,144,cake,garden,,90068,001,2022-04-25_20h57.04.278,SPAMnetsValid,2021.1.4,Linux x86_64,60.10699044,,,,,,,,,,,,,2,1.7661,0,57,57,58,1,,,,,,,,,,,,,,,,,,,,,,,,,,,,,,,,,,,,,,,,,,,,,,,,,,,,,,,,,,,,,,,,,,,,,,
,,,,2,3.0429,,,,,,117,melon,strawberry,,90068,001,2022-04-25_20h57.04.278,SPAMnetsValid,2021.1.4,Linux x86_64,60.10699044,,,,,,,,,,,,,2,3.0429,0,58,58,11,1,,,,,,,,,,,,,,,,,,,,,,,,,,,,,,,,,,,,,,,,,,,,,,,,,,,,,,,,,,,,,,,,,,,,,,
,,,,2,86.826,,,,,,125,carrot,tree,,90068,001,2022-04-25_20h57.04.278,SPAMnetsValid,2021.1.4,Linux x86_64,60.10699044,,,,,,,,,,,,,2,86.826,0,59,59,30,1,,,,,,,,,,,,,,,,,,,,,,,,,,,,,,,,,,,,,,,,,,,,,,,,,,,,,,,,,,,,,,,,,,,,,,
,,,,2,2.5319,,,,,,99,garden,melon,,90068,001,2022-04-25_20h57.04.278,SPAMnetsValid,2021.1.4,Linux x86_64,60.10699044,,,,,,,,,,,,,2,2.5319,0,60,60,17,1,,,,,,,,,,,,,,,,,,,,,,,,,,,,,,,,,,,,,,,,,,,,,,,,,,,,,,,,,,,,,,,,,,,,,,
,,,,2,2.5637,,,,,,155,carrot,cookie,,90068,001,2022-04-25_20h57.04.278,SPAMnetsValid,2021.1.4,Linux x86_64,60.10699044,,,,,,,,,,,,,2,2.5637,0,61,61,38,1,,,,,,,,,,,,,,,,,,,,,,,,,,,,,,,,,,,,,,,,,,,,,,,,,,,,,,,,,,,,,,,,,,,,,,
,,,,2,3.2704,,,,,,111,carrot,microwave,,90068,001,2022-04-25_20h57.04.278,SPAMnetsValid,2021.1.4,Linux x86_64,60.10699044,,,,,,,,,,,,,2,3.2704,0,62,62,16,1,,,,,,,,,,,,,,,,,,,,,,,,,,,,,,,,,,,,,,,,,,,,,,,,,,,,,,,,,,,,,,,,,,,,,,
,,,,3,7.1185,,,,,,105,cactus,oven,,90068,001,2022-04-25_20h57.04.278,SPAMnetsValid,2021.1.4,Linux x86_64,60.10699044,,,,,,,,,,,,,3,7.1185,0,63,63,13,1,,,,,,,,,,,,,,,,,,,,,,,,,,,,,,,,,,,,,,,,,,,,,,,,,,,,,,,,,,,,,,,,,,,,,,
,,,,8,2.1717,,,,,,188,flower,tree,,90068,001,2022-04-25_20h57.04.278,SPAMnetsValid,2021.1.4,Linux x86_64,60.10699044,,,,,,,,,,,,,8,2.1717,0,64,64,7,1,,,,,,,,,,,,,,,,,,,,,,,,,,,,,,,,,,,,,,,,,,,,,,,,,,,,,,,,,,,,,,,,,,,,,,
,,,,2,3.0842,,,,,,126,kitchen,tree,,90068,001,2022-04-25_20h57.04.278,SPAMnetsValid,2021.1.4,Linux x86_64,60.10699044,,,,,,,,,,,,,2,3.0842,0,65,65,50,1,,,,,,,,,,,,,,,,,,,,,,,,,,,,,,,,,,,,,,,,,,,,,,,,,,,,,,,,,,,,,,,,,,,,,,
,,,,2,2.6062,,,,,,109,broom,strawberry,,90068,001,2022-04-25_20h57.04.278,SPAMnetsValid,2021.1.4,Linux x86_64,60.10699044,,,,,,,,,,,,,2,2.6062,0,66,66,4,1,,,,,,,,,,,,,,,,,,,,,,,,,,,,,,,,,,,,,,,,,,,,,,,,,,,,,,,,,,,,,,,,,,,,,,
,,,,2,2.9304,,,,,,176,cactus,tomato,,90068,001,2022-04-25_20h57.04.278,SPAMnetsValid,2021.1.4,Linux x86_64,60.10699044,,,,,,,,,,,,,2,2.9304,0,67,67,9,1,,,,,,,,,,,,,,,,,,,,,,,,,,,,,,,,,,,,,,,,,,,,,,,,,,,,,,,,,,,,,,,,,,,,,,
,,,,5,2.9116,,,,,,175,melon,onion,,90068,001,2022-04-25_20h57.04.278,SPAMnetsValid,2021.1.4,Linux x86_64,60.10699044,,,,,,,,,,,,,5,2.9116,0,68,68,41,1,,,,,,,,,,,,,,,,,,,,,,,,,,,,,,,,,,,,,,,,,,,,,,,,,,,,,,,,,,,,,,,,,,,,,,
,,,,2,1.9985,,,,,,171,cake,tomato,,90068,001,2022-04-25_20h57.04.278,SPAMnetsValid,2021.1.4,Linux x86_64,60.10699044,,,,,,,,,,,,,2,1.9985,0,69,69,88,1,,,,,,,,,,,,,,,,,,,,,,,,,,,,,,,,,,,,,,,,,,,,,,,,,,,,,,,,,,,,,,,,,,,,,,
,,,,2,2.1127,,,,,,97,chocolate,kitchen,,90068,001,2022-04-25_20h57.04.278,SPAMnetsValid,2021.1.4,Linux x86_64,60.10699044,,,,,,,,,,,,,2,2.1127,0,70,70,8,1,,,,,,,,,,,,,,,,,,,,,,,,,,,,,,,,,,,,,,,,,,,,,,,,,,,,,,,,,,,,,,,,,,,,,,
,,,,7,2.6496,,,,,,113,refrigerator,strawberry,,90068,001,2022-04-25_20h57.04.278,SPAMnetsValid,2021.1.4,Linux x86_64,60.10699044,,,,,,,,,,,,,7,2.6496,0,71,71,56,1,,,,,,,,,,,,,,,,,,,,,,,,,,,,,,,,,,,,,,,,,,,,,,,,,,,,,,,,,,,,,,,,,,,,,,
,,,,9,4.4108,,,,,,150,microwave,refrigerator,,90068,001,2022-04-25_20h57.04.278,SPAMnetsValid,2021.1.4,Linux x86_64,60.10699044,,,,,,,,,,,,,9,4.4108,0,72,72,66,1,,,,,,,,,,,,,,,,,,,,,,,,,,,,,,,,,,,,,,,,,,,,,,,,,,,,,,,,,,,,,,,,,,,,,,
,,,,7,2.2987,,,,,,185,cactus,rose,,90068,001,2022-04-25_20h57.04.278,SPAMnetsValid,2021.1.4,Linux x86_64,60.10699044,,,,,,,,,,,,,7,2.2987,0,73,73,43,1,,,,,,,,,,,,,,,,,,,,,,,,,,,,,,,,,,,,,,,,,,,,,,,,,,,,,,,,,,,,,,,,,,,,,,
,,,,3,1.6223,,,,,,174,cake,pretzel,,90068,001,2022-04-25_20h57.04.278,SPAMnetsValid,2021.1.4,Linux x86_64,60.10699044,,,,,,,,,,,,,3,1.6223,0,74,74,2,1,,,,,,,,,,,,,,,,,,,,,,,,,,,,,,,,,,,,,,,,,,,,,,,,,,,,,,,,,,,,,,,,,,,,,,
,,,,3,2.0144,,,,,,162,microwave,tomato,,90068,001,2022-04-25_20h57.04.278,SPAMnetsValid,2021.1.4,Linux x86_64,60.10699044,,,,,,,,,,,,,3,2.0144,0,75,75,12,1,,,,,,,,,,,,,,,,,,,,,,,,,,,,,,,,,,,,,,,,,,,,,,,,,,,,,,,,,,,,,,,,,,,,,,
,,,,9,2.4769,,,,,,177,chocolate,strawberry,,90068,001,2022-04-25_20h57.04.278,SPAMnetsValid,2021.1.4,Linux x86_64,60.10699044,,,,,,,,,,,,,9,2.4769,0,76,76,53,1,,,,,,,,,,,,,,,,,,,,,,,,,,,,,,,,,,,,,,,,,,,,,,,,,,,,,,,,,,,,,,,,,,,,,,
,,,,7,1.6687,,,,,,163,melon,refrigerator,,90068,001,2022-04-25_20h57.04.278,SPAMnetsValid,2021.1.4,Linux x86_64,60.10699044,,,,,,,,,,,,,7,1.6687,0,77,77,29,1,,,,,,,,,,,,,,,,,,,,,,,,,,,,,,,,,,,,,,,,,,,,,,,,,,,,,,,,,,,,,,,,,,,,,,
,,,,6,2.2398,,,,,,183,cake,rose,,90068,001,2022-04-25_20h57.04.278,SPAMnetsValid,2021.1.4,Linux x86_64,60.10699044,,,,,,,,,,,,,6,2.2398,0,78,78,19,1,,,,,,,,,,,,,,,,,,,,,,,,,,,,,,,,,,,,,,,,,,,,,,,,,,,,,,,,,,,,,,,,,,,,,,
,,,,9,2.412,,,,,,194,cactus,cactus,CHECK,90068,001,2022-04-25_20h57.04.278,SPAMnetsValid,2021.1.4,Linux x86_64,60.10699044,,,,,,,,,,,,,9,2.412,0,79,79,25,1,,,,,,,,,,,,,,,,,,,,,,,,,,,,,,,,,,,,,,,,,,,,,,,,,,,,,,,,,,,,,,,,,,,,,,
,,,,3,5.0702,,,,,,165,onion,rose,,90068,001,2022-04-25_20h57.04.278,SPAMnetsValid,2021.1.4,Linux x86_64,60.10699044,,,,,,,,,,,,,3,5.0702,0,80,80,40,1,,,,,,,,,,,,,,,,,,,,,,,,,,,,,,,,,,,,,,,,,,,,,,,,,,,,,,,,,,,,,,,,,,,,,,
,,,,2,2.3721,,,,,,118,chocolate,oven,,90068,001,2022-04-25_20h57.04.278,SPAMnetsValid,2021.1.4,Linux x86_64,60.10699044,,,,,,,,,,,,,2,2.3721,0,81,81,10,1,,,,,,,,,,,,,,,,,,,,,,,,,,,,,,,,,,,,,,,,,,,,,,,,,,,,,,,,,,,,,,,,,,,,,,
,,,,2,2.0004,,,,,,137,microwave,tree,,90068,001,2022-04-25_20h57.04.278,SPAMnetsValid,2021.1.4,Linux x86_64,60.10699044,,,,,,,,,,,,,2,2.0004,0,82,82,63,1,,,,,,,,,,,,,,,,,,,,,,,,,,,,,,,,,,,,,,,,,,,,,,,,,,,,,,,,,,,,,,,,,,,,,,
,,,,3,1.5665,,,,,,182,flower,refrigerator,,90068,001,2022-04-25_20h57.04.278,SPAMnetsValid,2021.1.4,Linux x86_64,60.10699044,,,,,,,,,,,,,3,1.5665,0,83,83,32,1,,,,,,,,,,,,,,,,,,,,,,,,,,,,,,,,,,,,,,,,,,,,,,,,,,,,,,,,,,,,,,,,,,,,,,
,,,,8,2.7976,,,,,,170,cookie,microwave,,90068,001,2022-04-25_20h57.04.278,SPAMnetsValid,2021.1.4,Linux x86_64,60.10699044,,,,,,,,,,,,,8,2.7976,0,84,84,92,1,,,,,,,,,,,,,,,,,,,,,,,,,,,,,,,,,,,,,,,,,,,,,,,,,,,,,,,,,,,,,,,,,,,,,,
,,,,9,1.4429,,,,,,100,garden,tomato,,90068,001,2022-04-25_20h57.04.278,SPAMnetsValid,2021.1.4,Linux x86_64,60.10699044,,,,,,,,,,,,,9,1.4429,0,85,85,83,1,,,,,,,,,,,,,,,,,,,,,,,,,,,,,,,,,,,,,,,,,,,,,,,,,,,,,,,,,,,,,,,,,,,,,,
,,,,2,1.9857,,,,,,108,carrot,chocolate,,90068,001,2022-04-25_20h57.04.278,SPAMnetsValid,2021.1.4,Linux x86_64,60.10699044,,,,,,,,,,,,,2,1.9857,0,86,86,5,1,,,,,,,,,,,,,,,,,,,,,,,,,,,,,,,,,,,,,,,,,,,,,,,,,,,,,,,,,,,,,,,,,,,,,,
,,,,9,2.2397,,,,,,120,microwave,oven,,90068,001,2022-04-25_20h57.04.278,SPAMnetsValid,2021.1.4,Linux x86_64,60.10699044,,,,,,,,,,,,,9,2.2397,0,87,87,14,1,,,,,,,,,,,,,,,,,,,,,,,,,,,,,,,,,,,,,,,,,,,,,,,,,,,,,,,,,,,,,,,,,,,,,,
,,,,9,1.5782,,,,,,124,oven,refrigerator,,90068,001,2022-04-25_20h57.04.278,SPAMnetsValid,2021.1.4,Linux x86_64,60.10699044,,,,,,,,,,,,,9,1.5782,0,88,88,69,1,,,,,,,,,,,,,,,,,,,,,,,,,,,,,,,,,,,,,,,,,,,,,,,,,,,,,,,,,,,,,,,,,,,,,,
,,,,2,1.5969,,,,,,187,cactus,microwave,,90068,001,2022-04-25_20h57.04.278,SPAMnetsValid,2021.1.4,Linux x86_64,60.10699044,,,,,,,,,,,,,2,1.5969,0,89,89,71,1,,,,,,,,,,,,,,,,,,,,,,,,,,,,,,,,,,,,,,,,,,,,,,,,,,,,,,,,,,,,,,,,,,,,,,
,,,,6,2.8241,,,,,,152,cactus,strawberry,,90068,001,2022-04-25_20h57.04.278,SPAMnetsValid,2021.1.4,Linux x86_64,60.10699044,,,,,,,,,,,,,6,2.8241,0,90,90,49,1,,,,,,,,,,,,,,,,,,,,,,,,,,,,,,,,,,,,,,,,,,,,,,,,,,,,,,,,,,,,,,,,,,,,,,
,,,,2,3.0132,,,,,,157,refrigerator,rose,,90068,001,2022-04-25_20h57.04.278,SPAMnetsValid,2021.1.4,Linux x86_64,60.10699044,,,,,,,,,,,,,2,3.0132,0,91,91,64,1,,,,,,,,,,,,,,,,,,,,,,,,,,,,,,,,,,,,,,,,,,,,,,,,,,,,,,,,,,,,,,,,,,,,,,
,,,,2,1.783,,,,,,186,kitchen,yogurt,,90068,001,2022-04-25_20h57.04.278,SPAMnetsValid,2021.1.4,Linux x86_64,60.10699044,,,,,,,,,,,,,2,1.783,0,92,92,48,1,,,,,,,,,,,,,,,,,,,,,,,,,,,,,,,,,,,,,,,,,,,,,,,,,,,,,,,,,,,,,,,,,,,,,,
,,,,2,2.0374,,,,,,166,cake,yogurt,,90068,001,2022-04-25_20h57.04.278,SPAMnetsValid,2021.1.4,Linux x86_64,60.10699044,,,,,,,,,,,,,2,2.0374,0,93,93,91,1,,,,,,,,,,,,,,,,,,,,,,,,,,,,,,,,,,,,,,,,,,,,,,,,,,,,,,,,,,,,,,,,,,,,,,
,,,,3,2.2452,,,,,,102,chocolate,refrigerator,,90068,001,2022-04-25_20h57.04.278,SPAMnetsValid,2021.1.4,Linux x86_64,60.10699044,,,,,,,,,,,,,3,2.2452,0,94,94,76,1,,,,,,,,,,,,,,,,,,,,,,,,,,,,,,,,,,,,,,,,,,,,,,,,,,,,,,,,,,,,,,,,,,,,,,
,,,,7,2.1755,,,,,,168,cactus,flower,,90068,001,2022-04-25_20h57.04.278,SPAMnetsValid,2021.1.4,Linux x86_64,60.10699044,,,,,,,,,,,,,7,2.1755,0,95,95,51,1,,,,,,,,,,,,,,,,,,,,,,,,,,,,,,,,,,,,,,,,,,,,,,,,,,,,,,,,,,,,,,,,,,,,,,
,,,,3,9.3394,,,,,,115,refrigerator,tomato,,90068,001,2022-04-25_20h57.04.278,SPAMnetsValid,2021.1.4,Linux x86_64,60.10699044,,,,,,,,,,,,,3,9.3394,0,96,96,85,1,,,,,,,,,,,,,,,,,,,,,,,,,,,,,,,,,,,,,,,,,,,,,,,,,,,,,,,,,,,,,,,,,,,,,,
,,,,,,,,,,,,,,,90068,001,2022-04-25_20h57.04.278,SPAMnetsValid,2021.1.4,Linux x86_64,60.10699044,,,,,,,,,,,,,,,,,,,,0,0,0,0,1,,,,,,,,,,,,,,,,,,,,,,,,,,,,,,,,,,,,,,,,,,,,,,,,,,,,,,,,,,,,,,,,,
,,,,,,,,,,,,,,,90068,001,2022-04-25_20h57.04.278,SPAMnetsValid,2021.1.4,Linux x86_64,60.10699044,,,,,,0,1,1,1,1,0,1,,,,,,,,,,,,,,,,,,,,,,,,,,,,,,,,,,,,,,,,,,,,,,,,,,,,,,,,,,,,,,,,,,,,,,,,,,,,,
,,,,,,,,,,,,,,,90068,001,2022-04-25_20h57.04.278,SPAMnetsValid,2021.1.4,Linux x86_64,60.10699044,,,,,,,,,,,,,,,,,,,,,,,,,,,0,0,0,0,1,rancor,forbearance,ridicule,malice,bravery,3,,,,,,,,,,,,,,,,,,,,,,,,,,,,,,,,,,,,,,,,,,,,,,,,,,,,
,,,,,,,,,,,,,,,90068,001,2022-04-25_20h57.04.278,SPAMnetsValid,2021.1.4,Linux x86_64,60.10699044,,,,,,,,,,,,,,,,,,,,,,,,,4,5.5933,0,1,1,1,1,raucous,empty,quiet,smooth,harsh,4,,,,,,,,,,,,,,,,,,,,,,,,,,,,,,,,,,,,,,,,,,,,,,,,,,,,
,,,,,,,,,,,,,,,90068,001,2022-04-25_20h57.04.278,SPAMnetsValid,2021.1.4,Linux x86_64,60.10699044,,,,,,,,,,,,,,,,,,,,,,,,,4,8.4654,0,2,2,2,1,gargoyle,oil,medicine,carved waterspout,ugly building,3,,,,,,,,,,,,,,,,,,,,,,,,,,,,,,,,,,,,,,,,,,,,,,,,,,,,
,,,,,,,,,,,,,,,90068,001,2022-04-25_20h57.04.278,SPAMnetsValid,2021.1.4,Linux x86_64,60.10699044,,,,,,,,,,,,,,,,,,,,,,,,,1,3.5563,0,3,3,3,1,recrudesce,purify,renew activity,lack refinement,crush,2,,,,,,,,,,,,,,,,,,,,,,,,,,,,,,,,,,,,,,,,,,,,,,,,,,,,
,,,,,,,,,,,,,,,90068,001,2022-04-25_20h57.04.278,SPAMnetsValid,2021.1.4,Linux x86_64,60.10699044,,,,,,,,,,,,,,,,,,,,,,,,,1,8.2834,0,4,4,4,1,specious,"plausible, but not genuine",noteworthy,class or variety,roomy,1,,,,,,,,,,,,,,,,,,,,,,,,,,,,,,,,,,,,,,,,,,,,,,,,,,,,
,,,,,,,,,,,,,,,90068,001,2022-04-25_20h57.04.278,SPAMnetsValid,2021.1.4,Linux x86_64,60.10699044,,,,,,,,,,,,,,,,,,,,,,,,,3,17.5693,0,5,5,5,1,bauble,bubble,showy plaything,idle talk,confusion,2,,,,,,,,,,,,,,,,,,,,,,,,,,,,,,,,,,,,,,,,,,,,,,,,,,,,
,,,,,,,,,,,,,,,90068,001,2022-04-25_20h57.04.278,SPAMnetsValid,2021.1.4,Linux x86_64,60.10699044,,,,,,,,,,,,,,,,,,,,,,,,,2,5.6864,0,6,6,6,1,prolific,scarce,producing abundantly,reckless,speaking profanely,2,,,,,,,,,,,,,,,,,,,,,,,,,,,,,,,,,,,,,,,,,,,,,,,,,,,,
,,,,,,,,,,,,,,,90068,001,2022-04-25_20h57.04.278,SPAMnetsValid,2021.1.4,Linux x86_64,60.10699044,,,,,,,,,,,,,,,,,,,,,,,,,2,1.6869,0,7,7,7,1,opulent,party,wealthy,happy frame of mind,semiprecious stone,2,,,,,,,,,,,,,,,,,,,,,,,,,,,,,,,,,,,,,,,,,,,,,,,,,,,,
,,,,,,,,,,,,,,,90068,001,2022-04-25_20h57.04.278,SPAMnetsValid,2021.1.4,Linux x86_64,60.10699044,,,,,,,,,,,,,,,,,,,,,,,,,1,64.1738,0,8,8,8,1,coercion,conspiracy,strategy,restraint,attraction,3,,,,,,,,,,,,,,,,,,,,,,,,,,,,,,,,,,,,,,,,,,,,,,,,,,,,
,,,,,,,,,,,,,,,90068,001,2022-04-25_20h57.04.278,SPAMnetsValid,2021.1.4,Linux x86_64,60.10699044,,,,,,,,,,,,,,,,,,,,,,,,,4,4.9174,0,9,9,9,1,hiatus,animal,calamity,dread,gap,4,,,,,,,,,,,,,,,,,,,,,,,,,,,,,,,,,,,,,,,,,,,,,,,,,,,,
,,,,,,,,,,,,,,,90068,001,2022-04-25_20h57.04.278,SPAMnetsValid,2021.1.4,Linux x86_64,60.10699044,,,,,,,,,,,,,,,,,,,,,,,,,1,8.9836,0,10,10,10,1,germane,microbe,contagious,relevant,different,3,,,,,,,,,,,,,,,,,,,,,,,,,,,,,,,,,,,,,,,,,,,,,,,,,,,,
,,,,,,,,,,,,,,,90068,001,2022-04-25_20h57.04.278,SPAMnetsValid,2021.1.4,Linux x86_64,60.10699044,,,,,,,,,,,,,,,,,,,,,,,,,2,3.62,0,11,11,11,1,perfunctory,fundamental,formal,superficial,careful,3,,,,,,,,,,,,,,,,,,,,,,,,,,,,,,,,,,,,,,,,,,,,,,,,,,,,
,,,,,,,,,,,,,,,90068,001,2022-04-25_20h57.04.278,SPAMnetsValid,2021.1.4,Linux x86_64,60.10699044,,,,,,,,,,,,,,,,,,,,,,,,,4,3.1515,0,12,12,12,1,diverge,reveal,chant,distract the attention of,differ or turn off from,4,,,,,,,,,,,,,,,,,,,,,,,,,,,,,,,,,,,,,,,,,,,,,,,,,,,,
,,,,,,,,,,,,,,,90068,001,2022-04-25_20h57.04.278,SPAMnetsValid,2021.1.4,Linux x86_64,60.10699044,,,,,,,,,,,,,,,,,,,,,,,,,4,2.7098,0,13,13,13,1,evoke,take away,anger,connect,bring out,4,,,,,,,,,,,,,,,,,,,,,,,,,,,,,,,,,,,,,,,,,,,,,,,,,,,,
,,,,,,,,,,,,,,,90068,001,2022-04-25_20h57.04.278,SPAMnetsValid,2021.1.4,Linux x86_64,60.10699044,,,,,,,,,,,,,,,,,,,,,,,,,3,3.5361,0,14,14,14,1,pertinent,relevant,lying next to,necessary,bold,1,,,,,,,,,,,,,,,,,,,,,,,,,,,,,,,,,,,,,,,,,,,,,,,,,,,,
,,,,,,,,,,,,,,,90068,001,2022-04-25_20h57.04.278,SPAMnetsValid,2021.1.4,Linux x86_64,60.10699044,,,,,,,,,,,,,,,,,,,,,,,,,2,3.3001,0,15,15,15,1,holocaust,entirety,destruction,saintly,price,2,,,,,,,,,,,,,,,,,,,,,,,,,,,,,,,,,,,,,,,,,,,,,,,,,,,,
,,,,,,,,,,,,,,,90068,001,2022-04-25_20h57.04.278,SPAMnetsValid,2021.1.4,Linux x86_64,60.10699044,,,,,,,,,,,,,,,,,,,,,,,,,1,43.1317,0,16,16,16,1,piquant,mellow,fish,pungent,cloth,3,,,,,,,,,,,,,,,,,,,,,,,,,,,,,,,,,,,,,,,,,,,,,,,,,,,,
,,,,,,,,,,,,,,,90068,001,2022-04-25_20h57.04.278,SPAMnetsValid,2021.1.4,Linux x86_64,60.10699044,,,,,,,,,,,,,,,,,,,,,,,,,3,3.1341,0,17,17,17,1,firmament,foundation,heavens,strong,glue,2,,,,,,,,,,,,,,,,,,,,,,,,,,,,,,,,,,,,,,,,,,,,,,,,,,,,
,,,,,,,,,,,,,,,90068,001,2022-04-25_20h57.04.278,SPAMnetsValid,2021.1.4,Linux x86_64,60.10699044,,,,,,,,,,,,,,,,,,,,,,,,,,,,,,,,,,,,,,2,8.4682,0,0,0,0,1,marketable,partisan,jocular,marriageable,salable,essential,4,,,,,,,,,,,,,,,,,,,,,,,,,,,,,,,,,,,,,,
,,,,,,,,,,,,,,,90068,001,2022-04-25_20h57.04.278,SPAMnetsValid,2021.1.4,Linux x86_64,60.10699044,,,,,,,,,,,,,,,,,,,,,,,,,,,,,,,,,,,,,,5,3.6522,0,1,1,1,1,cottontail,squirrel,poplar,boa,marshy plant,rabbit,5,,,,,,,,,,,,,,,,,,,,,,,,,,,,,,,,,,,,,,
,,,,,,,,,,,,,,,90068,001,2022-04-25_20h57.04.278,SPAMnetsValid,2021.1.4,Linux x86_64,60.10699044,,,,,,,,,,,,,,,,,,,,,,,,,,,,,,,,,,,,,,3,2.7273,0,2,2,2,1,boggy,afraid,false,marshy,dense,black,3,,,,,,,,,,,,,,,,,,,,,,,,,,,,,,,,,,,,,,
,,,,,,,,,,,,,,,90068,001,2022-04-25_20h57.04.278,SPAMnetsValid,2021.1.4,Linux x86_64,60.10699044,,,,,,,,,,,,,,,,,,,,,,,,,,,,,,,,,,,,,,5,17.5794,0,3,3,3,1,gruesomeness,blackness,falseness,vindictiveness,drunkenness,ghastliness,5,,,,,,,,,,,,,,,,,,,,,,,,,,,,,,,,,,,,,,
,,,,,,,,,,,,,,,90068,001,2022-04-25_20h57.04.278,SPAMnetsValid,2021.1.4,Linux x86_64,60.10699044,,,,,,,,,,,,,,,,,,,,,,,,,,,,,,,,,,,,,,3,7.3409,0,4,4,4,1,loathing,diffidence,laziness,abhorrence,cleverness,comfort,3,,,,,,,,,,,,,,,,,,,,,,,,,,,,,,,,,,,,,,
,,,,,,,,,,,,,,,90068,001,2022-04-25_20h57.04.278,SPAMnetsValid,2021.1.4,Linux x86_64,60.10699044,,,,,,,,,,,,,,,,,,,,,,,,,,,,,,,,,,,,,,1,2.7329,0,5,5,5,1,bantam,fowl,ridicule,cripple,vegetable,ensign,1,,,,,,,,,,,,,,,,,,,,,,,,,,,,,,,,,,,,,,
,,,,,,,,,,,,,,,90068,001,2022-04-25_20h57.04.278,SPAMnetsValid,2021.1.4,Linux x86_64,60.10699044,,,,,,,,,,,,,,,,,,,,,,,,,,,,,,,,,,,,,,5,7.8931,0,6,6,6,1,evoke,wake up,surrender,reconnoiter,transcend,call forth,5,,,,,,,,,,,,,,,,,,,,,,,,,,,,,,,,,,,,,,
,,,,,,,,,,,,,,,90068,001,2022-04-25_20h57.04.278,SPAMnetsValid,2021.1.4,Linux x86_64,60.10699044,,,,,,,,,,,,,,,,,,,,,,,,,,,,,,,,,,,,,,5,24.6855,0,7,7,7,1,unobtrusive,unintelligent,epileptic,illogical,lineal,modest,5,,,,,,,,,,,,,,,,,,,,,,,,,,,,,,,,,,,,,,
,,,,,,,,,,,,,,,90068,001,2022-04-25_20h57.04.278,SPAMnetsValid,2021.1.4,Linux x86_64,60.10699044,,,,,,,,,,,,,,,,,,,,,,,,,,,,,,,,,,,,,,4,2.7269,0,8,8,8,1,terrain,ice cream,final test,tractor,area of ground,weight,4,,,,,,,,,,,,,,,,,,,,,,,,,,,,,,,,,,,,,,
,,,,,,,,,,,,,,,90068,001,2022-04-25_20h57.04.278,SPAMnetsValid,2021.1.4,Linux x86_64,60.10699044,,,,,,,,,,,,,,,,,,,,,,,,,,,,,,,,,,,,,,1,2.0086,0,9,9,9,1,capriciousness,stubbornness,courage,whimsicality,amazement,greediness,3,,,,,,,,,,,,,,,,,,,,,,,,,,,,,,,,,,,,,,
,,,,,,,,,,,,,,,90068,001,2022-04-25_20h57.04.278,SPAMnetsValid,2021.1.4,Linux x86_64,60.10699044,,,,,,,,,,,,,,,,,,,,,,,,,,,,,,,,,,,,,,2,1.682,0,10,10,10,1,maelstrom,slander,whirlpool,enmity,armor,majolica,2,,,,,,,,,,,,,,,,,,,,,,,,,,,,,,,,,,,,,,
,,,,,,,,,,,,,,,90068,001,2022-04-25_20h57.04.278,SPAMnetsValid,2021.1.4,Linux x86_64,60.10699044,,,,,,,,,,,,,,,,,,,,,,,,,,,,,,,,,,,,,,5,2.6488,0,11,11,11,1,tentative,critical,conclusive,authentic,provisional,apprehensive,4,,,,,,,,,,,,,,,,,,,,,,,,,,,,,,,,,,,,,,
,,,,,,,,,,,,,,,90068,001,2022-04-25_20h57.04.278,SPAMnetsValid,2021.1.4,Linux x86_64,60.10699044,,,,,,,,,,,,,,,,,,,,,,,,,,,,,,,,,,,,,,4,5.8991,0,12,12,12,1,placate,rehabilitate,plagiarize,depredate,apprise,conciliate,5,,,,,,,,,,,,,,,,,,,,,,,,,,,,,,,,,,,,,,
,,,,,,,,,,,,,,,90068,001,2022-04-25_20h57.04.278,SPAMnetsValid,2021.1.4,Linux x86_64,60.10699044,,,,,,,,,,,,,,,,,,,,,,,,,,,,,,,,,,,,,,2,1.4759,0,13,13,13,1,surcease,enlightenment,cessation,inattention,censor,substitution,2,,,,,,,,,,,,,,,,,,,,,,,,,,,,,,,,,,,,,,
,,,,,,,,,,,,,,,90068,001,2022-04-25_20h57.04.278,SPAMnetsValid,2021.1.4,Linux x86_64,60.10699044,,,,,,,,,,,,,,,,,,,,,,,,,,,,,,,,,,,,,,2,3.8039,0,14,14,14,1,apathetic,wandering,impassive,hateful,prophetic,overflowing,2,,,,,,,,,,,,,,,,,,,,,,,,,,,,,,,,,,,,,,
,,,,,,,,,,,,,,,90068,001,2022-04-25_20h57.04.278,SPAMnetsValid,2021.1.4,Linux x86_64,60.10699044,,,,,,,,,,,,,,,,,,,,,,,,,,,,,,,,,,,,,,3,18.6864,0,15,15,15,1,paternoster,paternalism,patricide,malediction,benediction,prayer,5,,,,,,,,,,,,,,,,,,,,,,,,,,,,,,,,,,,,,,
,,,,,,,,,,,,,,,90068,001,2022-04-25_20h57.04.278,SPAMnetsValid,2021.1.4,Linux x86_64,60.10699044,,,,,,,,,,,,,,,,,,,,,,,,,,,,,,,,,,,,,,2,5.0611,0,16,16,16,1,opalescence,opulence,senescence,bankruptcy,iridescence,assiduity,4,,,,,,,,,,,,,,,,,,,,,,,,,,,,,,,,,,,,,,
,,,,,,,,,,,,,,,90068,001,2022-04-25_20h57.04.278,SPAMnetsValid,2021.1.4,Linux x86_64,60.10699044,,,,,,,,,,,,,,,,,,,,,,,,,,,,,,,,,,,,,,2,3.1038,0,17,17,17,1,lush,stupid,luxurious,hazy,putrid,languishing,2,,,,,,,,,,,,,,,,,,,,,,,,,,,,,,,,,,,,,,
,,,,,,,,,,,,,,,90068,001,2022-04-25_20h57.04.278,SPAMnetsValid,2021.1.4,Linux x86_64,60.10699044,,,,,,,,,,,,,,,,,,,,,,,,,,,,,,,,,,,,,,1,1.475,0,18,18,18,1,curtailment,expenditure,abandonment,abridgment,improvement,forgery,3,,,,,,,,,,,,,,,,,,,,,,,,,,,,,,,,,,,,,,
,,,,,,,,,,,,,,,90068,001,2022-04-25_20h57.04.278,SPAMnetsValid,2021.1.4,Linux x86_64,60.10699044,,,,,,,,,,,,,,,,,,,,,,,,,,,,,,,,,,,,,,2,11.0994,0,19,19,19,1,perversity,adversity,perviousness,travesty,waywardness,gentility,4,,,,,,,,,,,,,,,,,,,,,,,,,,,,,,,,,,,,,,
,,,,,,,,,,,,,,,90068,001,2022-04-25_20h57.04.278,SPAMnetsValid,2021.1.4,Linux x86_64,60.10699044,,,,,,,,,,,,,,,,,,,,,,,,,,,,,,,,,,,,,,2,1.5236,0,20,20,20,1,calumnious,complimentary,analogous,slanderous,tempestuous,magnanimous,3,,,,,,,,,,,,,,,,,,,,,,,,,,,,,,,,,,,,,,
,,,,,,,,,,,,,,,90068,001,2022-04-25_20h57.04.278,SPAMnetsValid,2021.1.4,Linux x86_64,60.10699044,,,,,,,,,,,,,,,,,,,,,,,,,,,,,,,,,,,,,,1,6.192,0,21,21,21,1,illiberality,bigotry,imbecility,illegibility,cautery,immaturity,1,,,,,,,,,,,,,,,,,,,,,,,,,,,,,,,,,,,,,,
,,,,,,,,,,,,,,,90068,001,2022-04-25_20h57.04.278,SPAMnetsValid,2021.1.4,Linux x86_64,60.10699044,,,,,,,,,,,,,,,,,,,,,,,,,,,,,,,,,,,,,,2,2.4043,0,22,22,22,1,clabber,rejoice,gossip,curdle,crow,hobble,3,,,,,,,,,,,,,,,,,,,,,,,,,,,,,,,,,,,,,,
,,,,,,,,,,,,,,,90068,001,2022-04-25_20h57.04.278,SPAMnetsValid,2021.1.4,Linux x86_64,60.10699044,,,,,,,,,,,,,,,,,,,,,,,,,,,,,,,,,,,,,,1,1.8364,0,23,23,23,1,sedulousness,diligence,credulousness,seduction,perilousness,frankness,1,,,,,,,,,,,,,,,,,,,,,,,,,,,,,,,,,,,,,,
,,,,,,,,,,,,,,,90068,001,2022-04-25_20h57.04.278,SPAMnetsValid,2021.1.4,Linux x86_64,60.10699044,,,,,,,,,,,,,,,,,,,,,,,,,,,,,,,,,,,,,,,,,,,,,,,,,,,,a vase,bucket,0,0,0,0,1,,,,,,,,,,,,,,,,,,,,,,,,,,,,,,,
,,,,,,,,,,,,,,,90068,001,2022-04-25_20h57.04.278,SPAMnetsValid,2021.1.4,Linux x86_64,60.10699044,,,,,,,,,,,,,,,,,,,,,,,,,,,,,,,,,,,,,,,,,,,,,,,,,,,,a hat,bucket,1,0,1,0,1,,,,,,,,,,,,,,,,,,,,,,,,,,,,,,,
,,,,,,,,,,,,,,,90068,001,2022-04-25_20h57.04.278,SPAMnetsValid,2021.1.4,Linux x86_64,60.10699044,,,,,,,,,,,,,,,,,,,,,,,,,,,,,,,,,,,,,,,,,,,,,,,,,,,,house decor,bucket,2,0,2,0,1,,,,,,,,,,,,,,,,,,,,,,,,,,,,,,,
,,,,,,,,,,,,,,,90068,001,2022-04-25_20h57.04.278,SPAMnetsValid,2021.1.4,Linux x86_64,60.10699044,,,,,,,,,,,,,,,,,,,,,,,,,,,,,,,,,,,,,,,,,,,,,,,,,,,,cereal,bucket,3,0,3,0,1,,,,,,,,,,,,,,,,,,,,,,,,,,,,,,,
,,,,,,,,,,,,,,,90068,001,2022-04-25_20h57.04.278,SPAMnetsValid,2021.1.4,Linux x86_64,60.10699044,,,,,,,,,,,,,,,,,,,,,,,,,,,,,,,,,,,,,,,,,,,,,,,,,,,,soup,bucket,4,0,4,0,1,,,,,,,,,,,,,,,,,,,,,,,,,,,,,,,
,,,,,,,,,,,,,,,90068,001,2022-04-25_20h57.04.278,SPAMnetsValid,2021.1.4,Linux x86_64,60.10699044,,,,,,,,,,,,,,,,,,,,,,,,,,,,,,,,,,,,,,,,,,,,,,,,,,,,water cup,bucket,5,0,5,0,1,,,,,,,,,,,,,,,,,,,,,,,,,,,,,,,
,,,,,,,,,,,,,,,90068,001,2022-04-25_20h57.04.278,SPAMnetsValid,2021.1.4,Linux x86_64,60.10699044,,,,,,,,,,,,,,,,,,,,,,,,,,,,,,,,,,,,,,,,,,,,,,,,,,,,popcorn holder,bucket,6,0,6,0,1,,,,,,,,,,,,,,,,,,,,,,,,,,,,,,,
,,,,,,,,,,,,,,,90068,001,2022-04-25_20h57.04.278,SPAMnetsValid,2021.1.4,Linux x86_64,60.10699044,,,,,,,,,,,,,,,,,,,,,,,,,,,,,,,,,,,,,,,,,,,,,,,,,,,,trash can,bucket,7,0,7,0,1,,,,,,,,,,,,,,,,,,,,,,,,,,,,,,,
,,,,,,,,,,,,,,,90068,001,2022-04-25_20h57.04.278,SPAMnetsValid,2021.1.4,Linux x86_64,60.10699044,,,,,,,,,,,,,,,,,,,,,,,,,,,,,,,,,,,,,,,,,,,,,,,,,,,,seat6,bucket,8,0,8,0,1,,,,,,,,,,,,,,,,,,,,,,,,,,,,,,,
,,,,,,,,,,,,,,,90068,001,2022-04-25_20h57.04.278,SPAMnetsValid,2021.1.4,Linux x86_64,60.10699044,,,,,,,,,,,,,,,,,,,,,,,,,,,,,,,,,,,,,,,,,,,,,,,,,,,,seat,bucket,9,0,9,0,1,,,,,,,,,,,,,,,,,,,,,,,,,,,,,,,
,,,,,,,,,,,,,,,90068,001,2022-04-25_20h57.04.278,SPAMnetsValid,2021.1.4,Linux x86_64,60.10699044,,,,,,,,,,,,,,,,,,,,,,,,,,,,,,,,,,,,,,,,,,,,,,,,,,,,toilet,bucket,10,0,10,0,1,,,,,,,,,,,,,,,,,,,,,,,,,,,,,,,
,,,,,,,,,,,,,,,90068,001,2022-04-25_20h57.04.278,SPAMnetsValid,2021.1.4,Linux x86_64,60.10699044,,,,,,,,,,,,,,,,,,,,,,,,,,,,,,,,,,,,,,,,,,,,,,,,,,,,planter,bucket,11,0,11,0,1,,,,,,,,,,,,,,,,,,,,,,,,,,,,,,,
,,,,,,,,,,,,,,,90068,001,2022-04-25_20h57.04.278,SPAMnetsValid,2021.1.4,Linux x86_64,60.10699044,,,,,,,,,,,,,,,,,,,,,,,,,,,,,,,,,,,,,,,,,,,,,,,,,,,,,,,,,,,0,0,0,0,1,bucket,,,,,,,,,,,,,,,,,,,,,,,,,
,,,,,,,,,,,,,,,90068,001,2022-04-25_20h57.04.278,SPAMnetsValid,2021.1.4,Linux x86_64,60.10699044,,,,,,,,,,,,,,,,,,,,,,,,,,,,,,,,,,,,,,,,,,,,,,,,,,,,cushion,pillow,0,0,0,0,1,,,,,,,,,,,,,,,,,,,,,,,,,,,,,,,
,,,,,,,,,,,,,,,90068,001,2022-04-25_20h57.04.278,SPAMnetsValid,2021.1.4,Linux x86_64,60.10699044,,,,,,,,,,,,,,,,,,,,,,,,,,,,,,,,,,,,,,,,,,,,,,,,,,,,landing pad for stunts,pillow,1,0,1,0,1,,,,,,,,,,,,,,,,,,,,,,,,,,,,,,,
,,,,,,,,,,,,,,,90068,001,2022-04-25_20h57.04.278,SPAMnetsValid,2021.1.4,Linux x86_64,60.10699044,,,,,,,,,,,,,,,,,,,,,,,,,,,,,,,,,,,,,,,,,,,,,,,,,,,,fake stomach,pillow,2,0,2,0,1,,,,,,,,,,,,,,,,,,,,,,,,,,,,,,,
,,,,,,,,,,,,,,,90068,001,2022-04-25_20h57.04.278,SPAMnetsValid,2021.1.4,Linux x86_64,60.10699044,,,,,,,,,,,,,,,,,,,,,,,,,,,,,,,,,,,,,,,,,,,,,,,,,,,,noggin,pillow,3,0,3,0,1,,,,,,,,,,,,,,,,,,,,,,,,,,,,,,,
,,,,,,,,,,,,,,,90068,001,2022-04-25_20h57.04.278,SPAMnetsValid,2021.1.4,Linux x86_64,60.10699044,,,,,,,,,,,,,,,,,,,,,,,,,,,,,,,,,,,,,,,,,,,,,,,,,,,,feathers,pillow,4,0,4,0,1,,,,,,,,,,,,,,,,,,,,,,,,,,,,,,,
,,,,,,,,,,,,,,,90068,001,2022-04-25_20h57.04.278,SPAMnetsValid,2021.1.4,Linux x86_64,60.10699044,,,,,,,,,,,,,,,,,,,,,,,,,,,,,,,,,,,,,,,,,,,,,,,,,,,,stuffing,pillow,5,0,5,0,1,,,,,,,,,,,,,,,,,,,,,,,,,,,,,,,
,,,,,,,,,,,,,,,90068,001,2022-04-25_20h57.04.278,SPAMnetsValid,2021.1.4,Linux x86_64,60.10699044,,,,,,,,,,,,,,,,,,,,,,,,,,,,,,,,,,,,,,,,,,,,,,,,,,,,,,,,,,,0,1,1,2,1,pillow,,,,,,,,,,,,,,,,,,,,,,,,,
,,,,,,,,,,,,,,,90068,001,2022-04-25_20h57.04.278,SPAMnetsValid,2021.1.4,Linux x86_64,60.10699044,,,,,,,,,,,,,,,,,,,,,,,,,,,,,,,,,,,,,,,,,,,,,,,,,,,,decor,candle,0,0,0,0,1,,,,,,,,,,,,,,,,,,,,,,,,,,,,,,,
,,,,,,,,,,,,,,,90068,001,2022-04-25_20h57.04.278,SPAMnetsValid,2021.1.4,Linux x86_64,60.10699044,,,,,,,,,,,,,,,,,,,,,,,,,,,,,,,,,,,,,,,,,,,,,,,,,,,,light source,candle,1,0,1,0,1,,,,,,,,,,,,,,,,,,,,,,,,,,,,,,,
,,,,,,,,,,,,,,,90068,001,2022-04-25_20h57.04.278,SPAMnetsValid,2021.1.4,Linux x86_64,60.10699044,,,,,,,,,,,,,,,,,,,,,,,,,,,,,,,,,,,,,,,,,,,,,,,,,,,,romantic gesture,candle,2,0,2,0,1,,,,,,,,,,,,,,,,,,,,,,,,,,,,,,,
,,,,,,,,,,,,,,,90068,001,2022-04-25_20h57.04.278,SPAMnetsValid,2021.1.4,Linux x86_64,60.10699044,,,,,,,,,,,,,,,,,,,,,,,,,,,,,,,,,,,,,,,,,,,,,,,,,,,,arsonist planting one in a fire to throw the firefighters and detectives off the trail of said arsonist,candle,3,0,3,0,1,,,,,,,,,,,,,,,,,,,,,,,,,,,,,,,
,,,,,,,,,,,,,,,90068,001,2022-04-25_20h57.04.278,SPAMnetsValid,2021.1.4,Linux x86_64,60.10699044,,,,,,,,,,,,,,,,,,,,,,,,,,,,,,,,,,,,,,,,,,,,,,,,,,,,,,,,,,,0,2,2,1,1,candle,,,,,,,,,,,,,,,,,,,,,,,,,
,,,,,,,,,,,,,,,90068,001,2022-04-25_20h57.04.278,SPAMnetsValid,2021.1.4,Linux x86_64,60.10699044,,,,,,,,,,,,,,,,,,,,,,,,,,,,,,,,,,,,,,,,,,,,,,,,,,,,,,,,,,,,,,,,,zebra,Animals,0,0,0,0,1,,,,,,,,,,,,,,,,,,
,,,,,,,,,,,,,,,90068,001,2022-04-25_20h57.04.278,SPAMnetsValid,2021.1.4,Linux x86_64,60.10699044,,,,,,,,,,,,,,,,,,,,,,,,,,,,,,,,,,,,,,,,,,,,,,,,,,,,,,,,,,,,,,,,,whale,Animals,1,0,1,0,1,,,,,,,,,,,,,,,,,,
,,,,,,,,,,,,,,,90068,001,2022-04-25_20h57.04.278,SPAMnetsValid,2021.1.4,Linux x86_64,60.10699044,,,,,,,,,,,,,,,,,,,,,,,,,,,,,,,,,,,,,,,,,,,,,,,,,,,,,,,,,,,,,,,,,dog,Animals,2,0,2,0,1,,,,,,,,,,,,,,,,,,
,,,,,,,,,,,,,,,90068,001,2022-04-25_20h57.04.278,SPAMnetsValid,2021.1.4,Linux x86_64,60.10699044,,,,,,,,,,,,,,,,,,,,,,,,,,,,,,,,,,,,,,,,,,,,,,,,,,,,,,,,,,,,,,,,,cat,Animals,3,0,3,0,1,,,,,,,,,,,,,,,,,,
,,,,,,,,,,,,,,,90068,001,2022-04-25_20h57.04.278,SPAMnetsValid,2021.1.4,Linux x86_64,60.10699044,,,,,,,,,,,,,,,,,,,,,,,,,,,,,,,,,,,,,,,,,,,,,,,,,,,,,,,,,,,,,,,,,orangutang,Animals,4,0,4,0,1,,,,,,,,,,,,,,,,,,
,,,,,,,,,,,,,,,90068,001,2022-04-25_20h57.04.278,SPAMnetsValid,2021.1.4,Linux x86_64,60.10699044,,,,,,,,,,,,,,,,,,,,,,,,,,,,,,,,,,,,,,,,,,,,,,,,,,,,,,,,,,,,,,,,,panda,Animals,5,0,5,0,1,,,,,,,,,,,,,,,,,,
,,,,,,,,,,,,,,,90068,001,2022-04-25_20h57.04.278,SPAMnetsValid,2021.1.4,Linux x86_64,60.10699044,,,,,,,,,,,,,,,,,,,,,,,,,,,,,,,,,,,,,,,,,,,,,,,,,,,,,,,,,,,,,,,,,koala,Animals,6,0,6,0,1,,,,,,,,,,,,,,,,,,
,,,,,,,,,,,,,,,90068,001,2022-04-25_20h57.04.278,SPAMnetsValid,2021.1.4,Linux x86_64,60.10699044,,,,,,,,,,,,,,,,,,,,,,,,,,,,,,,,,,,,,,,,,,,,,,,,,,,,,,,,,,,,,,,,,hangaroo,Animals,7,0,7,0,1,,,,,,,,,,,,,,,,,,
,,,,,,,,,,,,,,,90068,001,2022-04-25_20h57.04.278,SPAMnetsValid,2021.1.4,Linux x86_64,60.10699044,,,,,,,,,,,,,,,,,,,,,,,,,,,,,,,,,,,,,,,,,,,,,,,,,,,,,,,,,,,,,,,,,lion,Animals,8,0,8,0,1,,,,,,,,,,,,,,,,,,
,,,,,,,,,,,,,,,90068,001,2022-04-25_20h57.04.278,SPAMnetsValid,2021.1.4,Linux x86_64,60.10699044,,,,,,,,,,,,,,,,,,,,,,,,,,,,,,,,,,,,,,,,,,,,,,,,,,,,,,,,,,,,,,,,,tiger,Animals,9,0,9,0,1,,,,,,,,,,,,,,,,,,
,,,,,,,,,,,,,,,90068,001,2022-04-25_20h57.04.278,SPAMnetsValid,2021.1.4,Linux x86_64,60.10699044,,,,,,,,,,,,,,,,,,,,,,,,,,,,,,,,,,,,,,,,,,,,,,,,,,,,,,,,,,,,,,,,,bear ,Animals,10,0,10,0,1,,,,,,,,,,,,,,,,,,
,,,,,,,,,,,,,,,90068,001,2022-04-25_20h57.04.278,SPAMnetsValid,2021.1.4,Linux x86_64,60.10699044,,,,,,,,,,,,,,,,,,,,,,,,,,,,,,,,,,,,,,,,,,,,,,,,,,,,,,,,,,,,,,,,,oh my,Animals,11,0,11,0,1,,,,,,,,,,,,,,,,,,
,,,,,,,,,,,,,,,90068,001,2022-04-25_20h57.04.278,SPAMnetsValid,2021.1.4,Linux x86_64,60.10699044,,,,,,,,,,,,,,,,,,,,,,,,,,,,,,,,,,,,,,,,,,,,,,,,,,,,,,,,,,,,,,,,,sorry,Animals,12,0,12,0,1,,,,,,,,,,,,,,,,,,
,,,,,,,,,,,,,,,90068,001,2022-04-25_20h57.04.278,SPAMnetsValid,2021.1.4,Linux x86_64,60.10699044,,,,,,,,,,,,,,,,,,,,,,,,,,,,,,,,,,,,,,,,,,,,,,,,,,,,,,,,,,,,,,,,,bird,Animals,13,0,13,0,1,,,,,,,,,,,,,,,,,,
,,,,,,,,,,,,,,,90068,001,2022-04-25_20h57.04.278,SPAMnetsValid,2021.1.4,Linux x86_64,60.10699044,,,,,,,,,,,,,,,,,,,,,,,,,,,,,,,,,,,,,,,,,,,,,,,,,,,,,,,,,,,,,,,,,dinosuar,Animals,14,0,14,0,1,,,,,,,,,,,,,,,,,,
,,,,,,,,,,,,,,,90068,001,2022-04-25_20h57.04.278,SPAMnetsValid,2021.1.4,Linux x86_64,60.10699044,,,,,,,,,,,,,,,,,,,,,,,,,,,,,,,,,,,,,,,,,,,,,,,,,,,,,,,,,,,,,,,,,crocodilee,Animals,15,0,15,0,1,,,,,,,,,,,,,,,,,,
,,,,,,,,,,,,,,,90068,001,2022-04-25_20h57.04.278,SPAMnetsValid,2021.1.4,Linux x86_64,60.10699044,,,,,,,,,,,,,,,,,,,,,,,,,,,,,,,,,,,,,,,,,,,,,,,,,,,,,,,,,,,,,,,,,aligator,Animals,16,0,16,0,1,,,,,,,,,,,,,,,,,,
,,,,,,,,,,,,,,,90068,001,2022-04-25_20h57.04.278,SPAMnetsValid,2021.1.4,Linux x86_64,60.10699044,,,,,,,,,,,,,,,,,,,,,,,,,,,,,,,,,,,,,,,,,,,,,,,,,,,,,,,,,,,,,,,,,pteradactyl,Animals,17,0,17,0,1,,,,,,,,,,,,,,,,,,
,,,,,,,,,,,,,,,90068,001,2022-04-25_20h57.04.278,SPAMnetsValid,2021.1.4,Linux x86_64,60.10699044,,,,,,,,,,,,,,,,,,,,,,,,,,,,,,,,,,,,,,,,,,,,,,,,,,,,,,,,,,,,,,,,,trex,Animals,18,0,18,0,1,,,,,,,,,,,,,,,,,,
,,,,,,,,,,,,,,,90068,001,2022-04-25_20h57.04.278,SPAMnetsValid,2021.1.4,Linux x86_64,60.10699044,,,,,,,,,,,,,,,,,,,,,,,,,,,,,,,,,,,,,,,,,,,,,,,,,,,,,,,,,,,,,,,,,squirrel,Animals,19,0,19,0,1,,,,,,,,,,,,,,,,,,
,,,,,,,,,,,,,,,90068,001,2022-04-25_20h57.04.278,SPAMnetsValid,2021.1.4,Linux x86_64,60.10699044,,,,,,,,,,,,,,,,,,,,,,,,,,,,,,,,,,,,,,,,,,,,,,,,,,,,,,,,,,,,,,,,,deer,Animals,20,0,20,0,1,,,,,,,,,,,,,,,,,,
,,,,,,,,,,,,,,,90068,001,2022-04-25_20h57.04.278,SPAMnetsValid,2021.1.4,Linux x86_64,60.10699044,,,,,,,,,,,,,,,,,,,,,,,,,,,,,,,,,,,,,,,,,,,,,,,,,,,,,,,,,,,,,,,,,horse,Animals,21,0,21,0,1,,,,,,,,,,,,,,,,,,
,,,,,,,,,,,,,,,90068,001,2022-04-25_20h57.04.278,SPAMnetsValid,2021.1.4,Linux x86_64,60.10699044,,,,,,,,,,,,,,,,,,,,,,,,,,,,,,,,,,,,,,,,,,,,,,,,,,,,,,,,,,,,,,,,,donkey,Animals,22,0,22,0,1,,,,,,,,,,,,,,,,,,
,,,,,,,,,,,,,,,90068,001,2022-04-25_20h57.04.278,SPAMnetsValid,2021.1.4,Linux x86_64,60.10699044,,,,,,,,,,,,,,,,,,,,,,,,,,,,,,,,,,,,,,,,,,,,,,,,,,,,,,,,,,,,,,,,,cicken,Animals,23,0,23,0,1,,,,,,,,,,,,,,,,,,
,,,,,,,,,,,,,,,90068,001,2022-04-25_20h57.04.278,SPAMnetsValid,2021.1.4,Linux x86_64,60.10699044,,,,,,,,,,,,,,,,,,,,,,,,,,,,,,,,,,,,,,,,,,,,,,,,,,,,,,,,,,,,,,,,,hen,Animals,24,0,24,0,1,,,,,,,,,,,,,,,,,,
,,,,,,,,,,,,,,,90068,001,2022-04-25_20h57.04.278,SPAMnetsValid,2021.1.4,Linux x86_64,60.10699044,,,,,,,,,,,,,,,,,,,,,,,,,,,,,,,,,,,,,,,,,,,,,,,,,,,,,,,,,,,,,,,,,rooster,Animals,25,0,25,0,1,,,,,,,,,,,,,,,,,,
,,,,,,,,,,,,,,,90068,001,2022-04-25_20h57.04.278,SPAMnetsValid,2021.1.4,Linux x86_64,60.10699044,,,,,,,,,,,,,,,,,,,,,,,,,,,,,,,,,,,,,,,,,,,,,,,,,,,,,,,,,,,,,,,,,gazelle,Animals,26,0,26,0,1,,,,,,,,,,,,,,,,,,
,,,,,,,,,,,,,,,90068,001,2022-04-25_20h57.04.278,SPAMnetsValid,2021.1.4,Linux x86_64,60.10699044,,,,,,,,,,,,,,,,,,,,,,,,,,,,,,,,,,,,,,,,,,,,,,,,,,,,,,,,,,,,,,,,,shark,Animals,27,0,27,0,1,,,,,,,,,,,,,,,,,,
,,,,,,,,,,,,,,,90068,001,2022-04-25_20h57.04.278,SPAMnetsValid,2021.1.4,Linux x86_64,60.10699044,,,,,,,,,,,,,,,,,,,,,,,,,,,,,,,,,,,,,,,,,,,,,,,,,,,,,,,,,,,,,,,,,fish,Animals,28,0,28,0,1,,,,,,,,,,,,,,,,,,
,,,,,,,,,,,,,,,90068,001,2022-04-25_20h57.04.278,SPAMnetsValid,2021.1.4,Linux x86_64,60.10699044,,,,,,,,,,,,,,,,,,,,,,,,,,,,,,,,,,,,,,,,,,,,,,,,,,,,,,,,,,,,,,,,,crab,Animals,29,0,29,0,1,,,,,,,,,,,,,,,,,,
,,,,,,,,,,,,,,,90068,001,2022-04-25_20h57.04.278,SPAMnetsValid,2021.1.4,Linux x86_64,60.10699044,,,,,,,,,,,,,,,,,,,,,,,,,,,,,,,,,,,,,,,,,,,,,,,,,,,,,,,,,,,,,,,,,lobster,Animals,30,0,30,0,1,,,,,,,,,,,,,,,,,,
,,,,,,,,,,,,,,,90068,001,2022-04-25_20h57.04.278,SPAMnetsValid,2021.1.4,Linux x86_64,60.10699044,,,,,,,,,,,,,,,,,,,,,,,,,,,,,,,,,,,,,,,,,,,,,,,,,,,,,,,,,,,,,,,,,giraffe,Animals,31,0,31,0,1,,,,,,,,,,,,,,,,,,
,,,,,,,,,,,,,,,90068,001,2022-04-25_20h57.04.278,SPAMnetsValid,2021.1.4,Linux x86_64,60.10699044,,,,,,,,,,,,,,,,,,,,,,,,,,,,,,,,,,,,,,,,,,,,,,,,,,,,,,,,,,,,,,,,,gorila,Animals,32,0,32,0,1,,,,,,,,,,,,,,,,,,
,,,,,,,,,,,,,,,90068,001,2022-04-25_20h57.04.278,SPAMnetsValid,2021.1.4,Linux x86_64,60.10699044,,,,,,,,,,,,,,,,,,,,,,,,,,,,,,,,,,,,,,,,,,,,,,,,,,,,,,,,,,,,,,,,,,,,,,,,0,0,0,0,1,Animals,,,,,,,,,,,,
,,,,,,,,,,,,,,,90068,001,2022-04-25_20h57.04.278,SPAMnetsValid,2021.1.4,Linux x86_64,60.10699044,,,,,,,,,,,,,,,,,,,,,,,,,,,,,,,,,,,,,,,,,,,,,,,,,,,,,,,,,,,,,,,,,,,,,,,,,,,,,,5,4.4917,0,0,0,0,1,"I enjoy concentrating on a fantasy or daydream and exploring all its possibilities, letting it grow and develop.",0,1,,
,,,,,,,,,,,,,,,90068,001,2022-04-25_20h57.04.278,SPAMnetsValid,2021.1.4,Linux x86_64,60.10699044,,,,,,,,,,,,,,,,,,,,,,,,,,,,,,,,,,,,,,,,,,,,,,,,,,,,,,,,,,,,,,,,,,,,,,,,,,,,,,5,1.8633,0,1,1,1,1,I think it's interesting to learn and develop new hobbies.,0,2,,
,,,,,,,,,,,,,,,90068,001,2022-04-25_20h57.04.278,SPAMnetsValid,2021.1.4,Linux x86_64,60.10699044,,,,,,,,,,,,,,,,,,,,,,,,,,,,,,,,,,,,,,,,,,,,,,,,,,,,,,,,,,,,,,,,,,,,,,,,,,,,,,5,1.459,0,2,2,2,1,I am intrigued by the patterns I find in art and nature.,0,3,,
,,,,,,,,,,,,,,,90068,001,2022-04-25_20h57.04.278,SPAMnetsValid,2021.1.4,Linux x86_64,60.10699044,,,,,,,,,,,,,,,,,,,,,,,,,,,,,,,,,,,,,,,,,,,,,,,,,,,,,,,,,,,,,,,,,,,,,,,,,,,,,,2,5.0697,0,3,3,3,1,I believe letting students hear controversial speakers can only confuse and mislead them.,1,4,,
,,,,,,,,,,,,,,,90068,001,2022-04-25_20h57.04.278,SPAMnetsValid,2021.1.4,Linux x86_64,60.10699044,,,,,,,,,,,,,,,,,,,,,,,,,,,,,,,,,,,,,,,,,,,,,,,,,,,,,,,,,,,,,,,,,,,,,,,,,,,,,,2,3.5653,0,4,4,4,1,Poetry has little or no effect on me.,1,5,,
,,,,,,,,,,,,,,,90068,001,2022-04-25_20h57.04.278,SPAMnetsValid,2021.1.4,Linux x86_64,60.10699044,,,,,,,,,,,,,,,,,,,,,,,,,,,,,,,,,,,,,,,,,,,,,,,,,,,,,,,,,,,,,,,,,,,,,,,,,,,,,,2,9.9681,0,5,5,5,1,I would have difficulty just letting my mind wander without control or guidance.,1,6,,
,,,,,,,,,,,,,,,90068,001,2022-04-25_20h57.04.278,SPAMnetsValid,2021.1.4,Linux x86_64,60.10699044,,,,,,,,,,,,,,,,,,,,,,,,,,,,,,,,,,,,,,,,,,,,,,,,,,,,,,,,,,,,,,,,,,,,,,,,,,,,,,1,3.6597,0,6,6,6,1,I seldom notice the moods or feelings that different environments produce.,1,7,,
,,,,,,,,,,,,,,,90068,001,2022-04-25_20h57.04.278,SPAMnetsValid,2021.1.4,Linux x86_64,60.10699044,,,,,,,,,,,,,,,,,,,,,,,,,,,,,,,,,,,,,,,,,,,,,,,,,,,,,,,,,,,,,,,,,,,,,,,,,,,,,,5,32.3891,0,7,7,7,1,I experience a wide range of emotions or feelings.,0,8,,
,,,,,,,,,,,,,,,90068,001,2022-04-25_20h57.04.278,SPAMnetsValid,2021.1.4,Linux x86_64,60.10699044,,,,,,,,,,,,,,,,,,,,,,,,,,,,,,,,,,,,,,,,,,,,,,,,,,,,,,,,,,,,,,,,,,,,,,,,,,,,,,4,3.586,0,8,8,8,1,"Sometimes when I am reading poetry or looking at a work of art, I feel a chill or wave of excitement.",0,9,,
,,,,,,,,,,,,,,,90068,001,2022-04-25_20h57.04.278,SPAMnetsValid,2021.1.4,Linux x86_64,60.10699044,,,,,,,,,,,,,,,,,,,,,,,,,,,,,,,,,,,,,,,,,,,,,,,,,,,,,,,,,,,,,,,,,,,,,,,,,,,,,,1,6.1719,0,9,9,9,1,I have little interest in speculating on the nature of the universe or the human condition.,1,10,,
,,,,,,,,,,,,,,,90068,001,2022-04-25_20h57.04.278,SPAMnetsValid,2021.1.4,Linux x86_64,60.10699044,,,,,,,,,,,,,,,,,,,,,,,,,,,,,,,,,,,,,,,,,,,,,,,,,,,,,,,,,,,,,,,,,,,,,,,,,,,,,,5,2.522,0,10,10,10,1,I have a lot of intellectual curiosity.,0,11,,
,,,,,,,,,,,,,,,90068,001,2022-04-25_20h57.04.278,SPAMnetsValid,2021.1.4,Linux x86_64,60.10699044,,,,,,,,,,,,,,,,,,,,,,,,,,,,,,,,,,,,,,,,,,,,,,,,,,,,,,,,,,,,,,,,,,,,,,,,,,,,,,4,2.7458,0,11,11,11,1,I often enjoy playing with theories or abstract ideas.,0,12,,
,,,,,,,,,,,,,,,90068,001,2022-04-25_20h57.04.278,SPAMnetsValid,2021.1.4,Linux x86_64,60.10699044,,,,,,,,,,,,,,,,,,,,,,,,,,,,,,,,,,,,,,,,,,,,,,,,,,,,,,,,,,,,,,,,,,,,,,,,,,,,,,,,,,,,,,,,return,13.4498
