key_resp_3.keys,key_resp_3.rt,slider.response,slider.rt,rjt_rating,rjt_RT,trials_22.thisRepN,trials_22.thisTrialN,trials_22.thisN,trials_22.thisIndex,trials_22.ran,rjt_order,word1,word2,attention,participant,session,date,expName,psychopyVersion,OS,frameRate,trials_99.thisRepN,trials_99.thisTrialN,trials_99.thisN,trials_99.thisIndex,trials_99.ran,trials_5.thisRepN,trials_5.thisTrialN,trials_5.thisN,trials_5.thisIndex,trials_5.ran,repOne,repTwo,slider_2.response,slider_2.rt,trials_24.thisRepN,trials_24.thisTrialN,trials_24.thisN,trials_24.thisIndex,trials_24.ran,trials_4.thisRepN,trials_4.thisTrialN,trials_4.thisN,trials_4.thisIndex,trials_4.ran,slider_extend_2.response,slider_extend_2.rt,trials_6.thisRepN,trials_6.thisTrialN,trials_6.thisN,trials_6.thisIndex,trials_6.ran,vCue2,R1,R2,R3,R4,correct,sliderVocab.response,sliderVocab.rt,trials_7.thisRepN,trials_7.thisTrialN,trials_7.thisN,trials_7.thisIndex,trials_7.ran,VocabCue,VR1,VR2,VR3,VR4,VR5,VocabCorrect,AUT_resp,AUT_label,trials.thisRepN,trials.thisTrialN,trials.thisN,trials.thisIndex,trials.ran,trials_2.thisRepN,trials_2.thisTrialN,trials_2.thisN,trials_2.thisIndex,trials_2.ran,aut_prompt,VF_response,VF_tag,trials_16.thisRepN,trials_16.thisTrialN,trials_16.thisN,trials_16.thisIndex,trials_16.ran,trials_17.thisRepN,trials_17.thisTrialN,trials_17.thisN,trials_17.thisIndex,trials_17.ran,VFcond,open_slider.response,open_slider.rt,trials_3.thisRepN,trials_3.thisTrialN,trials_3.thisN,trials_3.thisIndex,trials_3.ran,OpenQ,Rev,OPEN_ORDER,key_resp_2.keys,key_resp_2.rt
return,9.1106,3,6.5625,3,6.5625,0,0,0,65,1,46,garden,yogurt,,90094,001,2022-04-29_14h44.42.219,SPAMnetsValid,2021.1.4,Win32,60.15761295,,,,,,,,,,,,,,,,,,,,,,,,,,,,,,,,,,,,,,,,,,,,,,,,,,,,,,,,,,,,,,,,,,,,,,,,,,,,,,,,,,,,,,,,,
,,7,5.5863,7,5.5863,0,1,1,30,1,3,cake,oven,,90094,001,2022-04-29_14h44.42.219,SPAMnetsValid,2021.1.4,Win32,60.15761295,,,,,,,,,,,,,,,,,,,,,,,,,,,,,,,,,,,,,,,,,,,,,,,,,,,,,,,,,,,,,,,,,,,,,,,,,,,,,,,,,,,,,,,,,
,,2,2.9323,2,2.9323,0,2,2,14,1,64,chocolate,garden,,90094,001,2022-04-29_14h44.42.219,SPAMnetsValid,2021.1.4,Win32,60.15761295,,,,,,,,,,,,,,,,,,,,,,,,,,,,,,,,,,,,,,,,,,,,,,,,,,,,,,,,,,,,,,,,,,,,,,,,,,,,,,,,,,,,,,,,,
,,3,2.6156,3,2.6156,0,3,3,37,1,58,garden,oven,,90094,001,2022-04-29_14h44.42.219,SPAMnetsValid,2021.1.4,Win32,60.15761295,,,,,,,,,,,,,,,,,,,,,,,,,,,,,,,,,,,,,,,,,,,,,,,,,,,,,,,,,,,,,,,,,,,,,,,,,,,,,,,,,,,,,,,,,
,,6,2.4306,6,2.4306,0,4,4,36,1,12,cookie,yogurt,,90094,001,2022-04-29_14h44.42.219,SPAMnetsValid,2021.1.4,Win32,60.15761295,,,,,,,,,,,,,,,,,,,,,,,,,,,,,,,,,,,,,,,,,,,,,,,,,,,,,,,,,,,,,,,,,,,,,,,,,,,,,,,,,,,,,,,,,
,,7,2.2899,7,2.2899,0,5,5,96,1,82,cake,kitchen,,90094,001,2022-04-29_14h44.42.219,SPAMnetsValid,2021.1.4,Win32,60.15761295,,,,,,,,,,,,,,,,,,,,,,,,,,,,,,,,,,,,,,,,,,,,,,,,,,,,,,,,,,,,,,,,,,,,,,,,,,,,,,,,,,,,,,,,,
,,7,3.0229,7,3.0229,0,6,6,94,1,68,flower,tomato,,90094,001,2022-04-29_14h44.42.219,SPAMnetsValid,2021.1.4,Win32,60.15761295,,,,,,,,,,,,,,,,,,,,,,,,,,,,,,,,,,,,,,,,,,,,,,,,,,,,,,,,,,,,,,,,,,,,,,,,,,,,,,,,,,,,,,,,,
,,2,2.2396,2,2.2396,0,7,7,23,1,65,broom,garden,,90094,001,2022-04-29_14h44.42.219,SPAMnetsValid,2021.1.4,Win32,60.15761295,,,,,,,,,,,,,,,,,,,,,,,,,,,,,,,,,,,,,,,,,,,,,,,,,,,,,,,,,,,,,,,,,,,,,,,,,,,,,,,,,,,,,,,,,
,,6,5.0557,6,5.0557,0,8,8,39,1,15,onion,oven,,90094,001,2022-04-29_14h44.42.219,SPAMnetsValid,2021.1.4,Win32,60.15761295,,,,,,,,,,,,,,,,,,,,,,,,,,,,,,,,,,,,,,,,,,,,,,,,,,,,,,,,,,,,,,,,,,,,,,,,,,,,,,,,,,,,,,,,,
,,7,1.9765,7,1.9765,0,9,9,83,1,6,garden,onion,,90094,001,2022-04-29_14h44.42.219,SPAMnetsValid,2021.1.4,Win32,60.15761295,,,,,,,,,,,,,,,,,,,,,,,,,,,,,,,,,,,,,,,,,,,,,,,,,,,,,,,,,,,,,,,,,,,,,,,,,,,,,,,,,,,,,,,,,
,,6,2.0172,6,2.0172,0,10,10,91,1,2,kitchen,onion,,90094,001,2022-04-29_14h44.42.219,SPAMnetsValid,2021.1.4,Win32,60.15761295,,,,,,,,,,,,,,,,,,,,,,,,,,,,,,,,,,,,,,,,,,,,,,,,,,,,,,,,,,,,,,,,,,,,,,,,,,,,,,,,,,,,,,,,,
,,4,2.1881,4,2.1881,0,11,11,55,1,1,rose,yogurt,,90094,001,2022-04-29_14h44.42.219,SPAMnetsValid,2021.1.4,Win32,60.15761295,,,,,,,,,,,,,,,,,,,,,,,,,,,,,,,,,,,,,,,,,,,,,,,,,,,,,,,,,,,,,,,,,,,,,,,,,,,,,,,,,,,,,,,,,
,,6,1.7894,6,1.7894,0,12,12,67,1,54,chocolate,yogurt,,90094,001,2022-04-29_14h44.42.219,SPAMnetsValid,2021.1.4,Win32,60.15761295,,,,,,,,,,,,,,,,,,,,,,,,,,,,,,,,,,,,,,,,,,,,,,,,,,,,,,,,,,,,,,,,,,,,,,,,,,,,,,,,,,,,,,,,,
,,6,1.7895,6,1.7895,0,13,13,3,1,49,flower,strawberry,,90094,001,2022-04-29_14h44.42.219,SPAMnetsValid,2021.1.4,Win32,60.15761295,,,,,,,,,,,,,,,,,,,,,,,,,,,,,,,,,,,,,,,,,,,,,,,,,,,,,,,,,,,,,,,,,,,,,,,,,,,,,,,,,,,,,,,,,
,,6,2.0234,6,2.0234,0,14,14,56,1,78,cookie,rose,,90094,001,2022-04-29_14h44.42.219,SPAMnetsValid,2021.1.4,Win32,60.15761295,,,,,,,,,,,,,,,,,,,,,,,,,,,,,,,,,,,,,,,,,,,,,,,,,,,,,,,,,,,,,,,,,,,,,,,,,,,,,,,,,,,,,,,,,
,,2,1.8226,2,1.8226,0,15,15,27,1,72,broom,onion,,90094,001,2022-04-29_14h44.42.219,SPAMnetsValid,2021.1.4,Win32,60.15761295,,,,,,,,,,,,,,,,,,,,,,,,,,,,,,,,,,,,,,,,,,,,,,,,,,,,,,,,,,,,,,,,,,,,,,,,,,,,,,,,,,,,,,,,,
,,1,4.5819,1,4.5819,0,16,16,84,1,91,microwave,rose,,90094,001,2022-04-29_14h44.42.219,SPAMnetsValid,2021.1.4,Win32,60.15761295,,,,,,,,,,,,,,,,,,,,,,,,,,,,,,,,,,,,,,,,,,,,,,,,,,,,,,,,,,,,,,,,,,,,,,,,,,,,,,,,,,,,,,,,,
,,1,2.1211,1,2.1211,0,17,17,61,1,71,broom,rose,,90094,001,2022-04-29_14h44.42.219,SPAMnetsValid,2021.1.4,Win32,60.15761295,,,,,,,,,,,,,,,,,,,,,,,,,,,,,,,,,,,,,,,,,,,,,,,,,,,,,,,,,,,,,,,,,,,,,,,,,,,,,,,,,,,,,,,,,
,,8,3.6105,8,3.6105,0,18,18,93,1,63,cake,cookie,,90094,001,2022-04-29_14h44.42.219,SPAMnetsValid,2021.1.4,Win32,60.15761295,,,,,,,,,,,,,,,,,,,,,,,,,,,,,,,,,,,,,,,,,,,,,,,,,,,,,,,,,,,,,,,,,,,,,,,,,,,,,,,,,,,,,,,,,
,,6,2.0157,6,2.0157,0,19,19,1,1,31,cactus,pretzel,,90094,001,2022-04-29_14h44.42.219,SPAMnetsValid,2021.1.4,Win32,60.15761295,,,,,,,,,,,,,,,,,,,,,,,,,,,,,,,,,,,,,,,,,,,,,,,,,,,,,,,,,,,,,,,,,,,,,,,,,,,,,,,,,,,,,,,,,
,,6,1.2067,6,1.2067,0,20,20,74,1,70,chocolate,onion,,90094,001,2022-04-29_14h44.42.219,SPAMnetsValid,2021.1.4,Win32,60.15761295,,,,,,,,,,,,,,,,,,,,,,,,,,,,,,,,,,,,,,,,,,,,,,,,,,,,,,,,,,,,,,,,,,,,,,,,,,,,,,,,,,,,,,,,,
,,9,2.4724,9,2.4724,0,21,21,10,1,191,cake,cake,CHECK,90094,001,2022-04-29_14h44.42.219,SPAMnetsValid,2021.1.4,Win32,60.15761295,,,,,,,,,,,,,,,,,,,,,,,,,,,,,,,,,,,,,,,,,,,,,,,,,,,,,,,,,,,,,,,,,,,,,,,,,,,,,,,,,,,,,,,,,
,,1,1.6895,1,1.6895,0,22,22,43,1,11,refrigerator,tree,,90094,001,2022-04-29_14h44.42.219,SPAMnetsValid,2021.1.4,Win32,60.15761295,,,,,,,,,,,,,,,,,,,,,,,,,,,,,,,,,,,,,,,,,,,,,,,,,,,,,,,,,,,,,,,,,,,,,,,,,,,,,,,,,,,,,,,,,
,,3,2.0013,3,2.0013,0,23,23,70,1,5,oven,tree,,90094,001,2022-04-29_14h44.42.219,SPAMnetsValid,2021.1.4,Win32,60.15761295,,,,,,,,,,,,,,,,,,,,,,,,,,,,,,,,,,,,,,,,,,,,,,,,,,,,,,,,,,,,,,,,,,,,,,,,,,,,,,,,,,,,,,,,,
,,8,2.0217,8,2.0217,0,24,24,21,1,56,cactus,tree,,90094,001,2022-04-29_14h44.42.219,SPAMnetsValid,2021.1.4,Win32,60.15761295,,,,,,,,,,,,,,,,,,,,,,,,,,,,,,,,,,,,,,,,,,,,,,,,,,,,,,,,,,,,,,,,,,,,,,,,,,,,,,,,,,,,,,,,,
,,8,1.507,8,1.507,0,25,25,51,1,47,onion,tomato,,90094,001,2022-04-29_14h44.42.219,SPAMnetsValid,2021.1.4,Win32,60.15761295,,,,,,,,,,,,,,,,,,,,,,,,,,,,,,,,,,,,,,,,,,,,,,,,,,,,,,,,,,,,,,,,,,,,,,,,,,,,,,,,,,,,,,,,,
,,7,1.2781,7,1.2781,0,26,26,50,1,81,pretzel,yogurt,,90094,001,2022-04-29_14h44.42.219,SPAMnetsValid,2021.1.4,Win32,60.15761295,,,,,,,,,,,,,,,,,,,,,,,,,,,,,,,,,,,,,,,,,,,,,,,,,,,,,,,,,,,,,,,,,,,,,,,,,,,,,,,,,,,,,,,,,
,,9,1.3961,9,1.3961,0,27,27,53,1,192,microwave,microwave,CHECK,90094,001,2022-04-29_14h44.42.219,SPAMnetsValid,2021.1.4,Win32,60.15761295,,,,,,,,,,,,,,,,,,,,,,,,,,,,,,,,,,,,,,,,,,,,,,,,,,,,,,,,,,,,,,,,,,,,,,,,,,,,,,,,,,,,,,,,,
,,2,2.532,2,2.532,0,28,28,0,1,53,garden,pretzel,,90094,001,2022-04-29_14h44.42.219,SPAMnetsValid,2021.1.4,Win32,60.15761295,,,,,,,,,,,,,,,,,,,,,,,,,,,,,,,,,,,,,,,,,,,,,,,,,,,,,,,,,,,,,,,,,,,,,,,,,,,,,,,,,,,,,,,,,
,,7,3.2093,7,3.2093,0,29,29,92,1,44,cookie,melon,,90094,001,2022-04-29_14h44.42.219,SPAMnetsValid,2021.1.4,Win32,60.15761295,,,,,,,,,,,,,,,,,,,,,,,,,,,,,,,,,,,,,,,,,,,,,,,,,,,,,,,,,,,,,,,,,,,,,,,,,,,,,,,,,,,,,,,,,
,,7,0.9733,7,0.9733,0,30,30,54,1,28,cake,melon,,90094,001,2022-04-29_14h44.42.219,SPAMnetsValid,2021.1.4,Win32,60.15761295,,,,,,,,,,,,,,,,,,,,,,,,,,,,,,,,,,,,,,,,,,,,,,,,,,,,,,,,,,,,,,,,,,,,,,,,,,,,,,,,,,,,,,,,,
,,6,2.1438,6,2.1438,0,31,31,34,1,29,chocolate,melon,,90094,001,2022-04-29_14h44.42.219,SPAMnetsValid,2021.1.4,Win32,60.15761295,,,,,,,,,,,,,,,,,,,,,,,,,,,,,,,,,,,,,,,,,,,,,,,,,,,,,,,,,,,,,,,,,,,,,,,,,,,,,,,,,,,,,,,,,
,,4,2.6573,4,2.6573,0,32,32,49,1,57,flower,kitchen,,90094,001,2022-04-29_14h44.42.219,SPAMnetsValid,2021.1.4,Win32,60.15761295,,,,,,,,,,,,,,,,,,,,,,,,,,,,,,,,,,,,,,,,,,,,,,,,,,,,,,,,,,,,,,,,,,,,,,,,,,,,,,,,,,,,,,,,,
,,6,1.5604,6,1.5604,0,33,33,17,1,27,cactus,cookie,,90094,001,2022-04-29_14h44.42.219,SPAMnetsValid,2021.1.4,Win32,60.15761295,,,,,,,,,,,,,,,,,,,,,,,,,,,,,,,,,,,,,,,,,,,,,,,,,,,,,,,,,,,,,,,,,,,,,,,,,,,,,,,,,,,,,,,,,
,,5,5.4572,5,5.4572,0,34,34,31,1,33,oven,yogurt,,90094,001,2022-04-29_14h44.42.219,SPAMnetsValid,2021.1.4,Win32,60.15761295,,,,,,,,,,,,,,,,,,,,,,,,,,,,,,,,,,,,,,,,,,,,,,,,,,,,,,,,,,,,,,,,,,,,,,,,,,,,,,,,,,,,,,,,,
,,2,1.5978,2,1.5978,0,35,35,18,1,85,cake,tree,,90094,001,2022-04-29_14h44.42.219,SPAMnetsValid,2021.1.4,Win32,60.15761295,,,,,,,,,,,,,,,,,,,,,,,,,,,,,,,,,,,,,,,,,,,,,,,,,,,,,,,,,,,,,,,,,,,,,,,,,,,,,,,,,,,,,,,,,
,,6,1.7904,6,1.7904,0,36,36,85,1,90,cactus,cake,,90094,001,2022-04-29_14h44.42.219,SPAMnetsValid,2021.1.4,Win32,60.15761295,,,,,,,,,,,,,,,,,,,,,,,,,,,,,,,,,,,,,,,,,,,,,,,,,,,,,,,,,,,,,,,,,,,,,,,,,,,,,,,,,,,,,,,,,
,,2,10.2891,2,10.2891,0,37,37,29,1,42,garden,kitchen,,90094,001,2022-04-29_14h44.42.219,SPAMnetsValid,2021.1.4,Win32,60.15761295,,,,,,,,,,,,,,,,,,,,,,,,,,,,,,,,,,,,,,,,,,,,,,,,,,,,,,,,,,,,,,,,,,,,,,,,,,,,,,,,,,,,,,,,,
,,7,1.8266,7,1.8266,0,38,38,42,1,77,refrigerator,yogurt,,90094,001,2022-04-29_14h44.42.219,SPAMnetsValid,2021.1.4,Win32,60.15761295,,,,,,,,,,,,,,,,,,,,,,,,,,,,,,,,,,,,,,,,,,,,,,,,,,,,,,,,,,,,,,,,,,,,,,,,,,,,,,,,,,,,,,,,,
,,6,1.6564,6,1.6564,0,39,39,35,1,55,tomato,tree,,90094,001,2022-04-29_14h44.42.219,SPAMnetsValid,2021.1.4,Win32,60.15761295,,,,,,,,,,,,,,,,,,,,,,,,,,,,,,,,,,,,,,,,,,,,,,,,,,,,,,,,,,,,,,,,,,,,,,,,,,,,,,,,,,,,,,,,,
,,6,1.3613,6,1.3613,0,40,40,38,1,88,cactus,melon,,90094,001,2022-04-29_14h44.42.219,SPAMnetsValid,2021.1.4,Win32,60.15761295,,,,,,,,,,,,,,,,,,,,,,,,,,,,,,,,,,,,,,,,,,,,,,,,,,,,,,,,,,,,,,,,,,,,,,,,,,,,,,,,,,,,,,,,,
,,5,3.906,5,3.906,0,41,41,12,1,67,flower,yogurt,,90094,001,2022-04-29_14h44.42.219,SPAMnetsValid,2021.1.4,Win32,60.15761295,,,,,,,,,,,,,,,,,,,,,,,,,,,,,,,,,,,,,,,,,,,,,,,,,,,,,,,,,,,,,,,,,,,,,,,,,,,,,,,,,,,,,,,,,
,,4,4.2567,4,4.2567,0,42,42,40,1,74,broom,pretzel,,90094,001,2022-04-29_14h44.42.219,SPAMnetsValid,2021.1.4,Win32,60.15761295,,,,,,,,,,,,,,,,,,,,,,,,,,,,,,,,,,,,,,,,,,,,,,,,,,,,,,,,,,,,,,,,,,,,,,,,,,,,,,,,,,,,,,,,,
,,6,1.6896,6,1.6896,0,43,43,45,1,10,flower,onion,,90094,001,2022-04-29_14h44.42.219,SPAMnetsValid,2021.1.4,Win32,60.15761295,,,,,,,,,,,,,,,,,,,,,,,,,,,,,,,,,,,,,,,,,,,,,,,,,,,,,,,,,,,,,,,,,,,,,,,,,,,,,,,,,,,,,,,,,
,,7,1.9394,7,1.9394,0,44,44,52,1,4,chocolate,pretzel,,90094,001,2022-04-29_14h44.42.219,SPAMnetsValid,2021.1.4,Win32,60.15761295,,,,,,,,,,,,,,,,,,,,,,,,,,,,,,,,,,,,,,,,,,,,,,,,,,,,,,,,,,,,,,,,,,,,,,,,,,,,,,,,,,,,,,,,,
,,7,1.6389,7,1.6389,0,45,45,60,1,89,chocolate,rose,,90094,001,2022-04-29_14h44.42.219,SPAMnetsValid,2021.1.4,Win32,60.15761295,,,,,,,,,,,,,,,,,,,,,,,,,,,,,,,,,,,,,,,,,,,,,,,,,,,,,,,,,,,,,,,,,,,,,,,,,,,,,,,,,,,,,,,,,
,,4,1.4661,4,1.4661,0,46,46,5,1,13,broom,yogurt,,90094,001,2022-04-29_14h44.42.219,SPAMnetsValid,2021.1.4,Win32,60.15761295,,,,,,,,,,,,,,,,,,,,,,,,,,,,,,,,,,,,,,,,,,,,,,,,,,,,,,,,,,,,,,,,,,,,,,,,,,,,,,,,,,,,,,,,,
,,6,1.6567,6,1.6567,0,47,47,6,1,87,carrot,yogurt,,90094,001,2022-04-29_14h44.42.219,SPAMnetsValid,2021.1.4,Win32,60.15761295,,,,,,,,,,,,,,,,,,,,,,,,,,,,,,,,,,,,,,,,,,,,,,,,,,,,,,,,,,,,,,,,,,,,,,,,,,,,,,,,,,,,,,,,,
,,7,2.3466,7,2.3466,0,48,48,75,1,69,carrot,refrigerator,,90094,001,2022-04-29_14h44.42.219,SPAMnetsValid,2021.1.4,Win32,60.15761295,,,,,,,,,,,,,,,,,,,,,,,,,,,,,,,,,,,,,,,,,,,,,,,,,,,,,,,,,,,,,,,,,,,,,,,,,,,,,,,,,,,,,,,,,
,,6,2.3592,6,2.3592,0,49,49,8,1,43,chocolate,tomato,,90094,001,2022-04-29_14h44.42.219,SPAMnetsValid,2021.1.4,Win32,60.15761295,,,,,,,,,,,,,,,,,,,,,,,,,,,,,,,,,,,,,,,,,,,,,,,,,,,,,,,,,,,,,,,,,,,,,,,,,,,,,,,,,,,,,,,,,
,,3,4.3765,3,4.3765,0,50,50,32,1,40,broom,cake,,90094,001,2022-04-29_14h44.42.219,SPAMnetsValid,2021.1.4,Win32,60.15761295,,,,,,,,,,,,,,,,,,,,,,,,,,,,,,,,,,,,,,,,,,,,,,,,,,,,,,,,,,,,,,,,,,,,,,,,,,,,,,,,,,,,,,,,,
,,7,2.9232,7,2.9232,0,51,51,2,1,22,kitchen,strawberry,,90094,001,2022-04-29_14h44.42.219,SPAMnetsValid,2021.1.4,Win32,60.15761295,,,,,,,,,,,,,,,,,,,,,,,,,,,,,,,,,,,,,,,,,,,,,,,,,,,,,,,,,,,,,,,,,,,,,,,,,,,,,,,,,,,,,,,,,
,,6,3.5063,6,3.5063,0,52,52,13,1,26,tomato,yogurt,,90094,001,2022-04-29_14h44.42.219,SPAMnetsValid,2021.1.4,Win32,60.15761295,,,,,,,,,,,,,,,,,,,,,,,,,,,,,,,,,,,,,,,,,,,,,,,,,,,,,,,,,,,,,,,,,,,,,,,,,,,,,,,,,,,,,,,,,
,,8,5.1387,8,5.1387,0,53,53,66,1,20,rose,tree,,90094,001,2022-04-29_14h44.42.219,SPAMnetsValid,2021.1.4,Win32,60.15761295,,,,,,,,,,,,,,,,,,,,,,,,,,,,,,,,,,,,,,,,,,,,,,,,,,,,,,,,,,,,,,,,,,,,,,,,,,,,,,,,,,,,,,,,,
,,4,2.2869,4,2.2869,0,54,54,79,1,86,oven,rose,,90094,001,2022-04-29_14h44.42.219,SPAMnetsValid,2021.1.4,Win32,60.15761295,,,,,,,,,,,,,,,,,,,,,,,,,,,,,,,,,,,,,,,,,,,,,,,,,,,,,,,,,,,,,,,,,,,,,,,,,,,,,,,,,,,,,,,,,
,,4,1.9501,4,1.9501,0,55,55,16,1,14,broom,cookie,,90094,001,2022-04-29_14h44.42.219,SPAMnetsValid,2021.1.4,Win32,60.15761295,,,,,,,,,,,,,,,,,,,,,,,,,,,,,,,,,,,,,,,,,,,,,,,,,,,,,,,,,,,,,,,,,,,,,,,,,,,,,,,,,,,,,,,,,
,,4,1.1717,4,1.1717,0,56,56,59,1,8,broom,melon,,90094,001,2022-04-29_14h44.42.219,SPAMnetsValid,2021.1.4,Win32,60.15761295,,,,,,,,,,,,,,,,,,,,,,,,,,,,,,,,,,,,,,,,,,,,,,,,,,,,,,,,,,,,,,,,,,,,,,,,,,,,,,,,,,,,,,,,,
,,8,1.6236,8,1.6236,0,57,57,82,1,93,kitchen,oven,,90094,001,2022-04-29_14h44.42.219,SPAMnetsValid,2021.1.4,Win32,60.15761295,,,,,,,,,,,,,,,,,,,,,,,,,,,,,,,,,,,,,,,,,,,,,,,,,,,,,,,,,,,,,,,,,,,,,,,,,,,,,,,,,,,,,,,,,
,,6,1.716,6,1.716,0,58,58,89,1,80,chocolate,tree,,90094,001,2022-04-29_14h44.42.219,SPAMnetsValid,2021.1.4,Win32,60.15761295,,,,,,,,,,,,,,,,,,,,,,,,,,,,,,,,,,,,,,,,,,,,,,,,,,,,,,,,,,,,,,,,,,,,,,,,,,,,,,,,,,,,,,,,,
,,8,2.9646,8,2.9646,0,59,59,58,1,94,kitchen,microwave,,90094,001,2022-04-29_14h44.42.219,SPAMnetsValid,2021.1.4,Win32,60.15761295,,,,,,,,,,,,,,,,,,,,,,,,,,,,,,,,,,,,,,,,,,,,,,,,,,,,,,,,,,,,,,,,,,,,,,,,,,,,,,,,,,,,,,,,,
,,7,1.4806,7,1.4806,0,60,60,24,1,17,carrot,melon,,90094,001,2022-04-29_14h44.42.219,SPAMnetsValid,2021.1.4,Win32,60.15761295,,,,,,,,,,,,,,,,,,,,,,,,,,,,,,,,,,,,,,,,,,,,,,,,,,,,,,,,,,,,,,,,,,,,,,,,,,,,,,,,,,,,,,,,,
,,2,2.1903,2,2.1903,0,61,61,15,1,48,flower,oven,,90094,001,2022-04-29_14h44.42.219,SPAMnetsValid,2021.1.4,Win32,60.15761295,,,,,,,,,,,,,,,,,,,,,,,,,,,,,,,,,,,,,,,,,,,,,,,,,,,,,,,,,,,,,,,,,,,,,,,,,,,,,,,,,,,,,,,,,
,,6,2.7822,6,2.7822,0,62,62,33,1,32,cake,microwave,,90094,001,2022-04-29_14h44.42.219,SPAMnetsValid,2021.1.4,Win32,60.15761295,,,,,,,,,,,,,,,,,,,,,,,,,,,,,,,,,,,,,,,,,,,,,,,,,,,,,,,,,,,,,,,,,,,,,,,,,,,,,,,,,,,,,,,,,
,,3,1.865,3,1.865,0,63,63,4,1,83,broom,carrot,,90094,001,2022-04-29_14h44.42.219,SPAMnetsValid,2021.1.4,Win32,60.15761295,,,,,,,,,,,,,,,,,,,,,,,,,,,,,,,,,,,,,,,,,,,,,,,,,,,,,,,,,,,,,,,,,,,,,,,,,,,,,,,,,,,,,,,,,
,,6,1.3597,6,1.3597,0,64,64,80,1,61,strawberry,tomato,,90094,001,2022-04-29_14h44.42.219,SPAMnetsValid,2021.1.4,Win32,60.15761295,,,,,,,,,,,,,,,,,,,,,,,,,,,,,,,,,,,,,,,,,,,,,,,,,,,,,,,,,,,,,,,,,,,,,,,,,,,,,,,,,,,,,,,,,
,,8,1.9643,8,1.9643,0,65,65,87,1,79,garden,strawberry,,90094,001,2022-04-29_14h44.42.219,SPAMnetsValid,2021.1.4,Win32,60.15761295,,,,,,,,,,,,,,,,,,,,,,,,,,,,,,,,,,,,,,,,,,,,,,,,,,,,,,,,,,,,,,,,,,,,,,,,,,,,,,,,,,,,,,,,,
,,6,1.353,6,1.353,0,66,66,73,1,50,carrot,rose,,90094,001,2022-04-29_14h44.42.219,SPAMnetsValid,2021.1.4,Win32,60.15761295,,,,,,,,,,,,,,,,,,,,,,,,,,,,,,,,,,,,,,,,,,,,,,,,,,,,,,,,,,,,,,,,,,,,,,,,,,,,,,,,,,,,,,,,,
,,6,1.3736,6,1.3736,0,67,67,63,1,21,cake,onion,,90094,001,2022-04-29_14h44.42.219,SPAMnetsValid,2021.1.4,Win32,60.15761295,,,,,,,,,,,,,,,,,,,,,,,,,,,,,,,,,,,,,,,,,,,,,,,,,,,,,,,,,,,,,,,,,,,,,,,,,,,,,,,,,,,,,,,,,
,,6,1.1057,6,1.1057,0,68,68,9,1,75,cookie,onion,,90094,001,2022-04-29_14h44.42.219,SPAMnetsValid,2021.1.4,Win32,60.15761295,,,,,,,,,,,,,,,,,,,,,,,,,,,,,,,,,,,,,,,,,,,,,,,,,,,,,,,,,,,,,,,,,,,,,,,,,,,,,,,,,,,,,,,,,
,,8,1.8397,8,1.8397,0,69,69,19,1,76,garden,rose,,90094,001,2022-04-29_14h44.42.219,SPAMnetsValid,2021.1.4,Win32,60.15761295,,,,,,,,,,,,,,,,,,,,,,,,,,,,,,,,,,,,,,,,,,,,,,,,,,,,,,,,,,,,,,,,,,,,,,,,,,,,,,,,,,,,,,,,,
,,3,6.5498,3,6.5498,0,70,70,46,1,41,broom,cactus,,90094,001,2022-04-29_14h44.42.219,SPAMnetsValid,2021.1.4,Win32,60.15761295,,,,,,,,,,,,,,,,,,,,,,,,,,,,,,,,,,,,,,,,,,,,,,,,,,,,,,,,,,,,,,,,,,,,,,,,,,,,,,,,,,,,,,,,,
,,6,2.1562,6,2.1562,0,71,71,68,1,24,cookie,tomato,,90094,001,2022-04-29_14h44.42.219,SPAMnetsValid,2021.1.4,Win32,60.15761295,,,,,,,,,,,,,,,,,,,,,,,,,,,,,,,,,,,,,,,,,,,,,,,,,,,,,,,,,,,,,,,,,,,,,,,,,,,,,,,,,,,,,,,,,
,,7,2.1222,7,2.1222,0,72,72,28,1,84,oven,tomato,,90094,001,2022-04-29_14h44.42.219,SPAMnetsValid,2021.1.4,Win32,60.15761295,,,,,,,,,,,,,,,,,,,,,,,,,,,,,,,,,,,,,,,,,,,,,,,,,,,,,,,,,,,,,,,,,,,,,,,,,,,,,,,,,,,,,,,,,
,,7,2.8661,7,2.8661,0,73,73,78,1,30,cookie,pretzel,,90094,001,2022-04-29_14h44.42.219,SPAMnetsValid,2021.1.4,Win32,60.15761295,,,,,,,,,,,,,,,,,,,,,,,,,,,,,,,,,,,,,,,,,,,,,,,,,,,,,,,,,,,,,,,,,,,,,,,,,,,,,,,,,,,,,,,,,
,,7,2.2395,7,2.2395,0,74,74,62,1,18,onion,refrigerator,,90094,001,2022-04-29_14h44.42.219,SPAMnetsValid,2021.1.4,Win32,60.15761295,,,,,,,,,,,,,,,,,,,,,,,,,,,,,,,,,,,,,,,,,,,,,,,,,,,,,,,,,,,,,,,,,,,,,,,,,,,,,,,,,,,,,,,,,
,,7,6.3872,7,6.3872,0,75,75,69,1,45,onion,pretzel,,90094,001,2022-04-29_14h44.42.219,SPAMnetsValid,2021.1.4,Win32,60.15761295,,,,,,,,,,,,,,,,,,,,,,,,,,,,,,,,,,,,,,,,,,,,,,,,,,,,,,,,,,,,,,,,,,,,,,,,,,,,,,,,,,,,,,,,,
,,7,1.082,7,1.082,0,76,76,44,1,25,carrot,onion,,90094,001,2022-04-29_14h44.42.219,SPAMnetsValid,2021.1.4,Win32,60.15761295,,,,,,,,,,,,,,,,,,,,,,,,,,,,,,,,,,,,,,,,,,,,,,,,,,,,,,,,,,,,,,,,,,,,,,,,,,,,,,,,,,,,,,,,,
,,4,2.3398,4,2.3398,0,77,77,26,1,35,flower,pretzel,,90094,001,2022-04-29_14h44.42.219,SPAMnetsValid,2021.1.4,Win32,60.15761295,,,,,,,,,,,,,,,,,,,,,,,,,,,,,,,,,,,,,,,,,,,,,,,,,,,,,,,,,,,,,,,,,,,,,,,,,,,,,,,,,,,,,,,,,
,,3,1.7562,3,1.7562,0,78,78,57,1,62,kitchen,rose,,90094,001,2022-04-29_14h44.42.219,SPAMnetsValid,2021.1.4,Win32,60.15761295,,,,,,,,,,,,,,,,,,,,,,,,,,,,,,,,,,,,,,,,,,,,,,,,,,,,,,,,,,,,,,,,,,,,,,,,,,,,,,,,,,,,,,,,,
,,7,3.4567,7,3.4567,0,79,79,81,1,60,cactus,onion,,90094,001,2022-04-29_14h44.42.219,SPAMnetsValid,2021.1.4,Win32,60.15761295,,,,,,,,,,,,,,,,,,,,,,,,,,,,,,,,,,,,,,,,,,,,,,,,,,,,,,,,,,,,,,,,,,,,,,,,,,,,,,,,,,,,,,,,,
,,6,1.2052,6,1.2052,0,80,80,20,1,39,melon,pretzel,,90094,001,2022-04-29_14h44.42.219,SPAMnetsValid,2021.1.4,Win32,60.15761295,,,,,,,,,,,,,,,,,,,,,,,,,,,,,,,,,,,,,,,,,,,,,,,,,,,,,,,,,,,,,,,,,,,,,,,,,,,,,,,,,,,,,,,,,
,,6,4.457,6,4.457,0,81,81,72,1,59,rose,strawberry,,90094,001,2022-04-29_14h44.42.219,SPAMnetsValid,2021.1.4,Win32,60.15761295,,,,,,,,,,,,,,,,,,,,,,,,,,,,,,,,,,,,,,,,,,,,,,,,,,,,,,,,,,,,,,,,,,,,,,,,,,,,,,,,,,,,,,,,,
,,4,1.2993,4,1.2993,0,82,82,86,1,51,onion,strawberry,,90094,001,2022-04-29_14h44.42.219,SPAMnetsValid,2021.1.4,Win32,60.15761295,,,,,,,,,,,,,,,,,,,,,,,,,,,,,,,,,,,,,,,,,,,,,,,,,,,,,,,,,,,,,,,,,,,,,,,,,,,,,,,,,,,,,,,,,
,,8,2.0322,8,2.0322,0,83,83,95,1,52,carrot,tomato,,90094,001,2022-04-29_14h44.42.219,SPAMnetsValid,2021.1.4,Win32,60.15761295,,,,,,,,,,,,,,,,,,,,,,,,,,,,,,,,,,,,,,,,,,,,,,,,,,,,,,,,,,,,,,,,,,,,,,,,,,,,,,,,,,,,,,,,,
,,3,2.6895,3,2.6895,0,84,84,88,1,92,broom,flower,,90094,001,2022-04-29_14h44.42.219,SPAMnetsValid,2021.1.4,Win32,60.15761295,,,,,,,,,,,,,,,,,,,,,,,,,,,,,,,,,,,,,,,,,,,,,,,,,,,,,,,,,,,,,,,,,,,,,,,,,,,,,,,,,,,,,,,,,
,,6,3.1276,6,3.1276,0,85,85,76,1,36,broom,kitchen,,90094,001,2022-04-29_14h44.42.219,SPAMnetsValid,2021.1.4,Win32,60.15761295,,,,,,,,,,,,,,,,,,,,,,,,,,,,,,,,,,,,,,,,,,,,,,,,,,,,,,,,,,,,,,,,,,,,,,,,,,,,,,,,,,,,,,,,,
,,4,1.5474,4,1.5474,0,86,86,25,1,23,flower,microwave,,90094,001,2022-04-29_14h44.42.219,SPAMnetsValid,2021.1.4,Win32,60.15761295,,,,,,,,,,,,,,,,,,,,,,,,,,,,,,,,,,,,,,,,,,,,,,,,,,,,,,,,,,,,,,,,,,,,,,,,,,,,,,,,,,,,,,,,,
,,8,1.7928,8,1.7928,0,87,87,64,1,9,kitchen,refrigerator,,90094,001,2022-04-29_14h44.42.219,SPAMnetsValid,2021.1.4,Win32,60.15761295,,,,,,,,,,,,,,,,,,,,,,,,,,,,,,,,,,,,,,,,,,,,,,,,,,,,,,,,,,,,,,,,,,,,,,,,,,,,,,,,,,,,,,,,,
,,7,1.3399,7,1.3399,0,88,88,7,1,34,melon,oven,,90094,001,2022-04-29_14h44.42.219,SPAMnetsValid,2021.1.4,Win32,60.15761295,,,,,,,,,,,,,,,,,,,,,,,,,,,,,,,,,,,,,,,,,,,,,,,,,,,,,,,,,,,,,,,,,,,,,,,,,,,,,,,,,,,,,,,,,
,,1,2.6845,1,2.6845,0,89,89,11,1,37,garden,refrigerator,,90094,001,2022-04-29_14h44.42.219,SPAMnetsValid,2021.1.4,Win32,60.15761295,,,,,,,,,,,,,,,,,,,,,,,,,,,,,,,,,,,,,,,,,,,,,,,,,,,,,,,,,,,,,,,,,,,,,,,,,,,,,,,,,,,,,,,,,
,,1,4.6437,1,4.6437,0,90,90,90,1,95,broom,refrigerator,,90094,001,2022-04-29_14h44.42.219,SPAMnetsValid,2021.1.4,Win32,60.15761295,,,,,,,,,,,,,,,,,,,,,,,,,,,,,,,,,,,,,,,,,,,,,,,,,,,,,,,,,,,,,,,,,,,,,,,,,,,,,,,,,,,,,,,,,
,,5,2.6891,5,2.6891,0,91,91,71,1,38,pretzel,refrigerator,,90094,001,2022-04-29_14h44.42.219,SPAMnetsValid,2021.1.4,Win32,60.15761295,,,,,,,,,,,,,,,,,,,,,,,,,,,,,,,,,,,,,,,,,,,,,,,,,,,,,,,,,,,,,,,,,,,,,,,,,,,,,,,,,,,,,,,,,
,,7,2.4967,7,2.4967,0,92,92,41,1,19,microwave,pretzel,,90094,001,2022-04-29_14h44.42.219,SPAMnetsValid,2021.1.4,Win32,60.15761295,,,,,,,,,,,,,,,,,,,,,,,,,,,,,,,,,,,,,,,,,,,,,,,,,,,,,,,,,,,,,,,,,,,,,,,,,,,,,,,,,,,,,,,,,
,,6,2.8558,6,2.8558,0,93,93,77,1,7,melon,tree,,90094,001,2022-04-29_14h44.42.219,SPAMnetsValid,2021.1.4,Win32,60.15761295,,,,,,,,,,,,,,,,,,,,,,,,,,,,,,,,,,,,,,,,,,,,,,,,,,,,,,,,,,,,,,,,,,,,,,,,,,,,,,,,,,,,,,,,,
,,2,1.4248,2,1.4248,0,94,94,47,1,73,broom,chocolate,,90094,001,2022-04-29_14h44.42.219,SPAMnetsValid,2021.1.4,Win32,60.15761295,,,,,,,,,,,,,,,,,,,,,,,,,,,,,,,,,,,,,,,,,,,,,,,,,,,,,,,,,,,,,,,,,,,,,,,,,,,,,,,,,,,,,,,,,
,,7,1.6224,7,1.6224,0,95,95,48,1,66,melon,yogurt,,90094,001,2022-04-29_14h44.42.219,SPAMnetsValid,2021.1.4,Win32,60.15761295,,,,,,,,,,,,,,,,,,,,,,,,,,,,,,,,,,,,,,,,,,,,,,,,,,,,,,,,,,,,,,,,,,,,,,,,,,,,,,,,,,,,,,,,,
,,7,2.5059,7,2.5059,0,96,96,22,1,16,chocolate,flower,,90094,001,2022-04-29_14h44.42.219,SPAMnetsValid,2021.1.4,Win32,60.15761295,,,,,,,,,,,,,,,,,,,,,,,,,,,,,,,,,,,,,,,,,,,,,,,,,,,,,,,,,,,,,,,,,,,,,,,,,,,,,,,,,,,,,,,,,
,,,,,,,,,,,,,,,90094,001,2022-04-29_14h44.42.219,SPAMnetsValid,2021.1.4,Win32,60.15761295,0,0,0,0,1,,,,,,,,,,,,,,,,,,,,,,,,,,,,,,,,,,,,,,,,,,,,,,,,,,,,,,,,,,,,,,,,,,,,,,,,,,,,,,,,,,,,
,,,,,,,,,,,,,,,90094,001,2022-04-29_14h44.42.219,SPAMnetsValid,2021.1.4,Win32,60.15761295,,,,,,0,0,0,0,1,1,0,,,,,,,,,,,,,,,,,,,,,,,,,,,,,,,,,,,,,,,,,,,,,,,,,,,,,,,,,,,,,,,,,,,,,,,,,,,,,
,,,,5,2.7707,,,,,,190,microwave,strawberry,,90094,001,2022-04-29_14h44.42.219,SPAMnetsValid,2021.1.4,Win32,60.15761295,,,,,,,,,,,,,5,2.7707,0,0,0,90,1,,,,,,,,,,,,,,,,,,,,,,,,,,,,,,,,,,,,,,,,,,,,,,,,,,,,,,,,,,,,,,,,,,,,,,
,,,,5,1.3035,,,,,,145,cactus,yogurt,,90094,001,2022-04-29_14h44.42.219,SPAMnetsValid,2021.1.4,Win32,60.15761295,,,,,,,,,,,,,5,1.3035,0,1,1,15,1,,,,,,,,,,,,,,,,,,,,,,,,,,,,,,,,,,,,,,,,,,,,,,,,,,,,,,,,,,,,,,,,,,,,,,
,,,,6,2.1972,,,,,,161,kitchen,pretzel,,90094,001,2022-04-29_14h44.42.219,SPAMnetsValid,2021.1.4,Win32,60.15761295,,,,,,,,,,,,,6,2.1972,0,2,2,36,1,,,,,,,,,,,,,,,,,,,,,,,,,,,,,,,,,,,,,,,,,,,,,,,,,,,,,,,,,,,,,,,,,,,,,,
,,,,6,2.1786,,,,,,125,carrot,tree,,90094,001,2022-04-29_14h44.42.219,SPAMnetsValid,2021.1.4,Win32,60.15761295,,,,,,,,,,,,,6,2.1786,0,3,3,30,1,,,,,,,,,,,,,,,,,,,,,,,,,,,,,,,,,,,,,,,,,,,,,,,,,,,,,,,,,,,,,,,,,,,,,,
,,,,8,1.3788,,,,,,170,cookie,microwave,,90094,001,2022-04-29_14h44.42.219,SPAMnetsValid,2021.1.4,Win32,60.15761295,,,,,,,,,,,,,8,1.3788,0,4,4,92,1,,,,,,,,,,,,,,,,,,,,,,,,,,,,,,,,,,,,,,,,,,,,,,,,,,,,,,,,,,,,,,,,,,,,,,
,,,,6,1.6753,,,,,,134,carrot,flower,,90094,001,2022-04-29_14h44.42.219,SPAMnetsValid,2021.1.4,Win32,60.15761295,,,,,,,,,,,,,6,1.6753,0,5,5,93,1,,,,,,,,,,,,,,,,,,,,,,,,,,,,,,,,,,,,,,,,,,,,,,,,,,,,,,,,,,,,,,,,,,,,,,
,,,,8,1.5902,,,,,,106,cake,strawberry,,90094,001,2022-04-29_14h44.42.219,SPAMnetsValid,2021.1.4,Win32,60.15761295,,,,,,,,,,,,,8,1.5902,0,6,6,0,1,,,,,,,,,,,,,,,,,,,,,,,,,,,,,,,,,,,,,,,,,,,,,,,,,,,,,,,,,,,,,,,,,,,,,,
,,,,6,1.3584,,,,,,127,cactus,chocolate,,90094,001,2022-04-29_14h44.42.219,SPAMnetsValid,2021.1.4,Win32,60.15761295,,,,,,,,,,,,,6,1.3584,0,7,7,57,1,,,,,,,,,,,,,,,,,,,,,,,,,,,,,,,,,,,,,,,,,,,,,,,,,,,,,,,,,,,,,,,,,,,,,,
,,,,4,3.0995,,,,,,123,cookie,tree,,90094,001,2022-04-29_14h44.42.219,SPAMnetsValid,2021.1.4,Win32,60.15761295,,,,,,,,,,,,,4,3.0995,0,8,8,46,1,,,,,,,,,,,,,,,,,,,,,,,,,,,,,,,,,,,,,,,,,,,,,,,,,,,,,,,,,,,,,,,,,,,,,,
,,,,7,1.6314,,,,,,135,carrot,oven,,90094,001,2022-04-29_14h44.42.219,SPAMnetsValid,2021.1.4,Win32,60.15761295,,,,,,,,,,,,,7,1.6314,0,9,9,73,1,,,,,,,,,,,,,,,,,,,,,,,,,,,,,,,,,,,,,,,,,,,,,,,,,,,,,,,,,,,,,,,,,,,,,,
,,,,8,2.0384,,,,,,110,chocolate,cookie,,90094,001,2022-04-29_14h44.42.219,SPAMnetsValid,2021.1.4,Win32,60.15761295,,,,,,,,,,,,,8,2.0384,0,10,10,52,1,,,,,,,,,,,,,,,,,,,,,,,,,,,,,,,,,,,,,,,,,,,,,,,,,,,,,,,,,,,,,,,,,,,,,,
,,,,8,1.9878,,,,,,99,garden,melon,,90094,001,2022-04-29_14h44.42.219,SPAMnetsValid,2021.1.4,Win32,60.15761295,,,,,,,,,,,,,8,1.9878,0,11,11,17,1,,,,,,,,,,,,,,,,,,,,,,,,,,,,,,,,,,,,,,,,,,,,,,,,,,,,,,,,,,,,,,,,,,,,,,
,,,,8,1.0278,,,,,,122,flower,garden,,90094,001,2022-04-29_14h44.42.219,SPAMnetsValid,2021.1.4,Win32,60.15761295,,,,,,,,,,,,,8,1.0278,0,12,12,60,1,,,,,,,,,,,,,,,,,,,,,,,,,,,,,,,,,,,,,,,,,,,,,,,,,,,,,,,,,,,,,,,,,,,,,,
,,,,7,1.4545,,,,,,115,refrigerator,tomato,,90094,001,2022-04-29_14h44.42.219,SPAMnetsValid,2021.1.4,Win32,60.15761295,,,,,,,,,,,,,7,1.4545,0,13,13,85,1,,,,,,,,,,,,,,,,,,,,,,,,,,,,,,,,,,,,,,,,,,,,,,,,,,,,,,,,,,,,,,,,,,,,,,
,,,,6,1.8281,,,,,,171,cake,tomato,,90094,001,2022-04-29_14h44.42.219,SPAMnetsValid,2021.1.4,Win32,60.15761295,,,,,,,,,,,,,6,1.8281,0,14,14,88,1,,,,,,,,,,,,,,,,,,,,,,,,,,,,,,,,,,,,,,,,,,,,,,,,,,,,,,,,,,,,,,,,,,,,,,
,,,,8,3.5591,,,,,,131,cactus,garden,,90094,001,2022-04-29_14h44.42.219,SPAMnetsValid,2021.1.4,Win32,60.15761295,,,,,,,,,,,,,8,3.5591,0,15,15,33,1,,,,,,,,,,,,,,,,,,,,,,,,,,,,,,,,,,,,,,,,,,,,,,,,,,,,,,,,,,,,,,,,,,,,,,
,,,,6,1.3658,,,,,,153,carrot,pretzel,,90094,001,2022-04-29_14h44.42.219,SPAMnetsValid,2021.1.4,Win32,60.15761295,,,,,,,,,,,,,6,1.3658,0,16,16,34,1,,,,,,,,,,,,,,,,,,,,,,,,,,,,,,,,,,,,,,,,,,,,,,,,,,,,,,,,,,,,,,,,,,,,,,
,,,,7,1.9092,,,,,,119,strawberry,tree,,90094,001,2022-04-29_14h44.42.219,SPAMnetsValid,2021.1.4,Win32,60.15761295,,,,,,,,,,,,,7,1.9092,0,17,17,18,1,,,,,,,,,,,,,,,,,,,,,,,,,,,,,,,,,,,,,,,,,,,,,,,,,,,,,,,,,,,,,,,,,,,,,,
,,,,4,2.164,,,,,,144,cake,garden,,90094,001,2022-04-29_14h44.42.219,SPAMnetsValid,2021.1.4,Win32,60.15761295,,,,,,,,,,,,,4,2.164,0,18,18,58,1,,,,,,,,,,,,,,,,,,,,,,,,,,,,,,,,,,,,,,,,,,,,,,,,,,,,,,,,,,,,,,,,,,,,,,
,,,,7,2.7154,,,,,,124,oven,refrigerator,,90094,001,2022-04-29_14h44.42.219,SPAMnetsValid,2021.1.4,Win32,60.15761295,,,,,,,,,,,,,7,2.7154,0,19,19,69,1,,,,,,,,,,,,,,,,,,,,,,,,,,,,,,,,,,,,,,,,,,,,,,,,,,,,,,,,,,,,,,,,,,,,,,
,,,,7,1.7276,,,,,,113,refrigerator,strawberry,,90094,001,2022-04-29_14h44.42.219,SPAMnetsValid,2021.1.4,Win32,60.15761295,,,,,,,,,,,,,7,1.7276,0,20,20,56,1,,,,,,,,,,,,,,,,,,,,,,,,,,,,,,,,,,,,,,,,,,,,,,,,,,,,,,,,,,,,,,,,,,,,,,
,,,,8,1.8871,,,,,,116,cake,chocolate,,90094,001,2022-04-29_14h44.42.219,SPAMnetsValid,2021.1.4,Win32,60.15761295,,,,,,,,,,,,,8,1.8871,0,21,21,44,1,,,,,,,,,,,,,,,,,,,,,,,,,,,,,,,,,,,,,,,,,,,,,,,,,,,,,,,,,,,,,,,,,,,,,,
,,,,6,7.7243,,,,,,117,melon,strawberry,,90094,001,2022-04-29_14h44.42.219,SPAMnetsValid,2021.1.4,Win32,60.15761295,,,,,,,,,,,,,6,7.7243,0,22,22,11,1,,,,,,,,,,,,,,,,,,,,,,,,,,,,,,,,,,,,,,,,,,,,,,,,,,,,,,,,,,,,,,,,,,,,,,
,,,,6,1.7104,,,,,,179,broom,oven,,90094,001,2022-04-29_14h44.42.219,SPAMnetsValid,2021.1.4,Win32,60.15761295,,,,,,,,,,,,,6,1.7104,0,23,23,45,1,,,,,,,,,,,,,,,,,,,,,,,,,,,,,,,,,,,,,,,,,,,,,,,,,,,,,,,,,,,,,,,,,,,,,,
,,,,4,1.5944,,,,,,107,rose,tomato,,90094,001,2022-04-29_14h44.42.219,SPAMnetsValid,2021.1.4,Win32,60.15761295,,,,,,,,,,,,,4,1.5944,0,24,24,26,1,,,,,,,,,,,,,,,,,,,,,,,,,,,,,,,,,,,,,,,,,,,,,,,,,,,,,,,,,,,,,,,,,,,,,,
,,,,8,1.3883,,,,,,140,cookie,refrigerator,,90094,001,2022-04-29_14h44.42.219,SPAMnetsValid,2021.1.4,Win32,60.15761295,,,,,,,,,,,,,8,1.3883,0,25,25,89,1,,,,,,,,,,,,,,,,,,,,,,,,,,,,,,,,,,,,,,,,,,,,,,,,,,,,,,,,,,,,,,,,,,,,,,
,,,,6,1.3474,,,,,,176,cactus,tomato,,90094,001,2022-04-29_14h44.42.219,SPAMnetsValid,2021.1.4,Win32,60.15761295,,,,,,,,,,,,,6,1.3474,0,26,26,9,1,,,,,,,,,,,,,,,,,,,,,,,,,,,,,,,,,,,,,,,,,,,,,,,,,,,,,,,,,,,,,,,,,,,,,,
,,,,6,1.9969,,,,,,181,carrot,kitchen,,90094,001,2022-04-29_14h44.42.219,SPAMnetsValid,2021.1.4,Win32,60.15761295,,,,,,,,,,,,,6,1.9969,0,27,27,72,1,,,,,,,,,,,,,,,,,,,,,,,,,,,,,,,,,,,,,,,,,,,,,,,,,,,,,,,,,,,,,,,,,,,,,,
,,,,6,2.4259,,,,,,173,kitchen,tomato,,90094,001,2022-04-29_14h44.42.219,SPAMnetsValid,2021.1.4,Win32,60.15761295,,,,,,,,,,,,,6,2.4259,0,28,28,1,1,,,,,,,,,,,,,,,,,,,,,,,,,,,,,,,,,,,,,,,,,,,,,,,,,,,,,,,,,,,,,,,,,,,,,,
,,,,4,1.4568,,,,,,109,broom,strawberry,,90094,001,2022-04-29_14h44.42.219,SPAMnetsValid,2021.1.4,Win32,60.15761295,,,,,,,,,,,,,4,1.4568,0,29,29,4,1,,,,,,,,,,,,,,,,,,,,,,,,,,,,,,,,,,,,,,,,,,,,,,,,,,,,,,,,,,,,,,,,,,,,,,
,,,,6,1.3414,,,,,,172,kitchen,melon,,90094,001,2022-04-29_14h44.42.219,SPAMnetsValid,2021.1.4,Win32,60.15761295,,,,,,,,,,,,,6,1.3414,0,30,30,77,1,,,,,,,,,,,,,,,,,,,,,,,,,,,,,,,,,,,,,,,,,,,,,,,,,,,,,,,,,,,,,,,,,,,,,,
,,,,4,1.3428,,,,,,146,pretzel,tree,,90094,001,2022-04-29_14h44.42.219,SPAMnetsValid,2021.1.4,Win32,60.15761295,,,,,,,,,,,,,4,1.3428,0,31,31,80,1,,,,,,,,,,,,,,,,,,,,,,,,,,,,,,,,,,,,,,,,,,,,,,,,,,,,,,,,,,,,,,,,,,,,,,
,,,,7,2.9739,,,,,,188,flower,tree,,90094,001,2022-04-29_14h44.42.219,SPAMnetsValid,2021.1.4,Win32,60.15761295,,,,,,,,,,,,,7,2.9739,0,32,32,7,1,,,,,,,,,,,,,,,,,,,,,,,,,,,,,,,,,,,,,,,,,,,,,,,,,,,,,,,,,,,,,,,,,,,,,,
,,,,3,1.7112,,,,,,126,kitchen,tree,,90094,001,2022-04-29_14h44.42.219,SPAMnetsValid,2021.1.4,Win32,60.15761295,,,,,,,,,,,,,3,1.7112,0,33,33,50,1,,,,,,,,,,,,,,,,,,,,,,,,,,,,,,,,,,,,,,,,,,,,,,,,,,,,,,,,,,,,,,,,,,,,,,
,,,,2,2.2227,,,,,,165,onion,rose,,90094,001,2022-04-29_14h44.42.219,SPAMnetsValid,2021.1.4,Win32,60.15761295,,,,,,,,,,,,,2,2.2227,0,34,34,40,1,,,,,,,,,,,,,,,,,,,,,,,,,,,,,,,,,,,,,,,,,,,,,,,,,,,,,,,,,,,,,,,,,,,,,,
,,,,2,1.3381,,,,,,180,tree,yogurt,,90094,001,2022-04-29_14h44.42.219,SPAMnetsValid,2021.1.4,Win32,60.15761295,,,,,,,,,,,,,2,1.3381,0,35,35,68,1,,,,,,,,,,,,,,,,,,,,,,,,,,,,,,,,,,,,,,,,,,,,,,,,,,,,,,,,,,,,,,,,,,,,,,
,,,,2,1.8909,,,,,,164,cookie,garden,,90094,001,2022-04-29_14h44.42.219,SPAMnetsValid,2021.1.4,Win32,60.15761295,,,,,,,,,,,,,2,1.8909,0,36,36,59,1,,,,,,,,,,,,,,,,,,,,,,,,,,,,,,,,,,,,,,,,,,,,,,,,,,,,,,,,,,,,,,,,,,,,,,
,,,,2,6.3561,,,,,,105,cactus,oven,,90094,001,2022-04-29_14h44.42.219,SPAMnetsValid,2021.1.4,Win32,60.15761295,,,,,,,,,,,,,2,6.3561,0,37,37,13,1,,,,,,,,,,,,,,,,,,,,,,,,,,,,,,,,,,,,,,,,,,,,,,,,,,,,,,,,,,,,,,,,,,,,,,
,,,,6,1.2871,,,,,,174,cake,pretzel,,90094,001,2022-04-29_14h44.42.219,SPAMnetsValid,2021.1.4,Win32,60.15761295,,,,,,,,,,,,,6,1.2871,0,38,38,2,1,,,,,,,,,,,,,,,,,,,,,,,,,,,,,,,,,,,,,,,,,,,,,,,,,,,,,,,,,,,,,,,,,,,,,,
,,,,5,3.158,,,,,,111,carrot,microwave,,90094,001,2022-04-29_14h44.42.219,SPAMnetsValid,2021.1.4,Win32,60.15761295,,,,,,,,,,,,,5,3.158,0,39,39,16,1,,,,,,,,,,,,,,,,,,,,,,,,,,,,,,,,,,,,,,,,,,,,,,,,,,,,,,,,,,,,,,,,,,,,,,
,,,,4,2.1099,,,,,,143,pretzel,rose,,90094,001,2022-04-29_14h44.42.219,SPAMnetsValid,2021.1.4,Win32,60.15761295,,,,,,,,,,,,,4,2.1099,0,40,40,55,1,,,,,,,,,,,,,,,,,,,,,,,,,,,,,,,,,,,,,,,,,,,,,,,,,,,,,,,,,,,,,,,,,,,,,,
,,,,4,1.3252,,,,,,155,carrot,cookie,,90094,001,2022-04-29_14h44.42.219,SPAMnetsValid,2021.1.4,Win32,60.15761295,,,,,,,,,,,,,4,1.3252,0,41,41,38,1,,,,,,,,,,,,,,,,,,,,,,,,,,,,,,,,,,,,,,,,,,,,,,,,,,,,,,,,,,,,,,,,,,,,,,
,,,,4,1.4898,,,,,,178,cactus,carrot,,90094,001,2022-04-29_14h44.42.219,SPAMnetsValid,2021.1.4,Win32,60.15761295,,,,,,,,,,,,,4,1.4898,0,42,42,75,1,,,,,,,,,,,,,,,,,,,,,,,,,,,,,,,,,,,,,,,,,,,,,,,,,,,,,,,,,,,,,,,,,,,,,,
,,,,6,2.2223,,,,,,103,pretzel,tomato,,90094,001,2022-04-29_14h44.42.219,SPAMnetsValid,2021.1.4,Win32,60.15761295,,,,,,,,,,,,,6,2.2223,0,43,43,79,1,,,,,,,,,,,,,,,,,,,,,,,,,,,,,,,,,,,,,,,,,,,,,,,,,,,,,,,,,,,,,,,,,,,,,,
,,,,4,1.7906,,,,,,159,cookie,flower,,90094,001,2022-04-29_14h44.42.219,SPAMnetsValid,2021.1.4,Win32,60.15761295,,,,,,,,,,,,,4,1.7906,0,44,44,21,1,,,,,,,,,,,,,,,,,,,,,,,,,,,,,,,,,,,,,,,,,,,,,,,,,,,,,,,,,,,,,,,,,,,,,,
,,,,6,3.2055,,,,,,112,cake,carrot,,90094,001,2022-04-29_14h44.42.219,SPAMnetsValid,2021.1.4,Win32,60.15761295,,,,,,,,,,,,,6,3.2055,0,45,45,39,1,,,,,,,,,,,,,,,,,,,,,,,,,,,,,,,,,,,,,,,,,,,,,,,,,,,,,,,,,,,,,,,,,,,,,,
,,,,9,1.6059,,,,,,193,melon,melon,CHECK,90094,001,2022-04-29_14h44.42.219,SPAMnetsValid,2021.1.4,Win32,60.15761295,,,,,,,,,,,,,9,1.6059,0,46,46,86,1,,,,,,,,,,,,,,,,,,,,,,,,,,,,,,,,,,,,,,,,,,,,,,,,,,,,,,,,,,,,,,,,,,,,,,
,,,,5,96.9038,,,,,,149,broom,tomato,,90094,001,2022-04-29_14h44.42.219,SPAMnetsValid,2021.1.4,Win32,60.15761295,,,,,,,,,,,,,5,96.9038,0,47,47,20,1,,,,,,,,,,,,,,,,,,,,,,,,,,,,,,,,,,,,,,,,,,,,,,,,,,,,,,,,,,,,,,,,,,,,,,
,,,,5,2.7725,,,,,,133,cake,flower,,90094,001,2022-04-29_14h44.42.219,SPAMnetsValid,2021.1.4,Win32,60.15761295,,,,,,,,,,,,,5,2.7725,0,48,48,94,1,,,,,,,,,,,,,,,,,,,,,,,,,,,,,,,,,,,,,,,,,,,,,,,,,,,,,,,,,,,,,,,,,,,,,,
,,,,5,1.8561,,,,,,101,cactus,kitchen,,90094,001,2022-04-29_14h44.42.219,SPAMnetsValid,2021.1.4,Win32,60.15761295,,,,,,,,,,,,,5,1.8561,0,49,49,54,1,,,,,,,,,,,,,,,,,,,,,,,,,,,,,,,,,,,,,,,,,,,,,,,,,,,,,,,,,,,,,,,,,,,,,,
,,,,6,3.5497,,,,,,114,cookie,strawberry,,90094,001,2022-04-29_14h44.42.219,SPAMnetsValid,2021.1.4,Win32,60.15761295,,,,,,,,,,,,,6,3.5497,0,50,50,87,1,,,,,,,,,,,,,,,,,,,,,,,,,,,,,,,,,,,,,,,,,,,,,,,,,,,,,,,,,,,,,,,,,,,,,,
,,,,7,2.1557,,,,,,167,carrot,garden,,90094,001,2022-04-29_14h44.42.219,SPAMnetsValid,2021.1.4,Win32,60.15761295,,,,,,,,,,,,,7,2.1557,0,51,51,47,1,,,,,,,,,,,,,,,,,,,,,,,,,,,,,,,,,,,,,,,,,,,,,,,,,,,,,,,,,,,,,,,,,,,,,,
,,,,7,1.1877,,,,,,154,strawberry,yogurt,,90094,001,2022-04-29_14h44.42.219,SPAMnetsValid,2021.1.4,Win32,60.15761295,,,,,,,,,,,,,7,1.1877,0,52,52,28,1,,,,,,,,,,,,,,,,,,,,,,,,,,,,,,,,,,,,,,,,,,,,,,,,,,,,,,,,,,,,,,,,,,,,,,
,,,,7,1.1931,,,,,,185,cactus,rose,,90094,001,2022-04-29_14h44.42.219,SPAMnetsValid,2021.1.4,Win32,60.15761295,,,,,,,,,,,,,7,1.1931,0,53,53,43,1,,,,,,,,,,,,,,,,,,,,,,,,,,,,,,,,,,,,,,,,,,,,,,,,,,,,,,,,,,,,,,,,,,,,,,
,,,,6,2.6888,,,,,,160,cookie,kitchen,,90094,001,2022-04-29_14h44.42.219,SPAMnetsValid,2021.1.4,Win32,60.15761295,,,,,,,,,,,,,6,2.6888,0,54,54,65,1,,,,,,,,,,,,,,,,,,,,,,,,,,,,,,,,,,,,,,,,,,,,,,,,,,,,,,,,,,,,,,,,,,,,,,
,,,,6,1.1749,,,,,,152,cactus,strawberry,,90094,001,2022-04-29_14h44.42.219,SPAMnetsValid,2021.1.4,Win32,60.15761295,,,,,,,,,,,,,6,1.1749,0,55,55,49,1,,,,,,,,,,,,,,,,,,,,,,,,,,,,,,,,,,,,,,,,,,,,,,,,,,,,,,,,,,,,,,,,,,,,,,
,,,,6,17.7849,,,,,,175,melon,onion,,90094,001,2022-04-29_14h44.42.219,SPAMnetsValid,2021.1.4,Win32,60.15761295,,,,,,,,,,,,,6,17.7849,0,56,56,41,1,,,,,,,,,,,,,,,,,,,,,,,,,,,,,,,,,,,,,,,,,,,,,,,,,,,,,,,,,,,,,,,,,,,,,,
,,,,5,3.0671,,,,,,121,broom,microwave,,90094,001,2022-04-29_14h44.42.219,SPAMnetsValid,2021.1.4,Win32,60.15761295,,,,,,,,,,,,,5,3.0671,0,57,57,95,1,,,,,,,,,,,,,,,,,,,,,,,,,,,,,,,,,,,,,,,,,,,,,,,,,,,,,,,,,,,,,,,,,,,,,,
,,,,5,1.1434,,,,,,187,cactus,microwave,,90094,001,2022-04-29_14h44.42.219,SPAMnetsValid,2021.1.4,Win32,60.15761295,,,,,,,,,,,,,5,1.1434,0,58,58,71,1,,,,,,,,,,,,,,,,,,,,,,,,,,,,,,,,,,,,,,,,,,,,,,,,,,,,,,,,,,,,,,,,,,,,,,
,,,,5,2.4901,,,,,,96,oven,strawberry,,90094,001,2022-04-29_14h44.42.219,SPAMnetsValid,2021.1.4,Win32,60.15761295,,,,,,,,,,,,,5,2.4901,0,59,59,67,1,,,,,,,,,,,,,,,,,,,,,,,,,,,,,,,,,,,,,,,,,,,,,,,,,,,,,,,,,,,,,,,,,,,,,,
,,,,8,2.6426,,,,,,158,cookie,oven,,90094,001,2022-04-29_14h44.42.219,SPAMnetsValid,2021.1.4,Win32,60.15761295,,,,,,,,,,,,,8,2.6426,0,60,60,27,1,,,,,,,,,,,,,,,,,,,,,,,,,,,,,,,,,,,,,,,,,,,,,,,,,,,,,,,,,,,,,,,,,,,,,,
,,,,6,1.3403,,,,,,183,cake,rose,,90094,001,2022-04-29_14h44.42.219,SPAMnetsValid,2021.1.4,Win32,60.15761295,,,,,,,,,,,,,6,1.3403,0,61,61,19,1,,,,,,,,,,,,,,,,,,,,,,,,,,,,,,,,,,,,,,,,,,,,,,,,,,,,,,,,,,,,,,,,,,,,,,
,,,,6,3.1614,,,,,,166,cake,yogurt,,90094,001,2022-04-29_14h44.42.219,SPAMnetsValid,2021.1.4,Win32,60.15761295,,,,,,,,,,,,,6,3.1614,0,62,62,91,1,,,,,,,,,,,,,,,,,,,,,,,,,,,,,,,,,,,,,,,,,,,,,,,,,,,,,,,,,,,,,,,,,,,,,,
,,,,3,2.3664,,,,,,137,microwave,tree,,90094,001,2022-04-29_14h44.42.219,SPAMnetsValid,2021.1.4,Win32,60.15761295,,,,,,,,,,,,,3,2.3664,0,63,63,63,1,,,,,,,,,,,,,,,,,,,,,,,,,,,,,,,,,,,,,,,,,,,,,,,,,,,,,,,,,,,,,,,,,,,,,,
,,,,3,1.1828,,,,,,104,garden,microwave,,90094,001,2022-04-29_14h44.42.219,SPAMnetsValid,2021.1.4,Win32,60.15761295,,,,,,,,,,,,,3,1.1828,0,64,64,81,1,,,,,,,,,,,,,,,,,,,,,,,,,,,,,,,,,,,,,,,,,,,,,,,,,,,,,,,,,,,,,,,,,,,,,,
,,,,6,1.3497,,,,,,150,microwave,refrigerator,,90094,001,2022-04-29_14h44.42.219,SPAMnetsValid,2021.1.4,Win32,60.15761295,,,,,,,,,,,,,6,1.3497,0,65,65,66,1,,,,,,,,,,,,,,,,,,,,,,,,,,,,,,,,,,,,,,,,,,,,,,,,,,,,,,,,,,,,,,,,,,,,,,
,,,,6,1.2925,,,,,,162,microwave,tomato,,90094,001,2022-04-29_14h44.42.219,SPAMnetsValid,2021.1.4,Win32,60.15761295,,,,,,,,,,,,,6,1.2925,0,66,66,12,1,,,,,,,,,,,,,,,,,,,,,,,,,,,,,,,,,,,,,,,,,,,,,,,,,,,,,,,,,,,,,,,,,,,,,,
,,,,4,1.7896,,,,,,130,microwave,yogurt,,90094,001,2022-04-29_14h44.42.219,SPAMnetsValid,2021.1.4,Win32,60.15761295,,,,,,,,,,,,,4,1.7896,0,67,67,84,1,,,,,,,,,,,,,,,,,,,,,,,,,,,,,,,,,,,,,,,,,,,,,,,,,,,,,,,,,,,,,,,,,,,,,,
,,,,4,3.6409,,,,,,132,broom,tree,,90094,001,2022-04-29_14h44.42.219,SPAMnetsValid,2021.1.4,Win32,60.15761295,,,,,,,,,,,,,4,3.6409,0,68,68,78,1,,,,,,,,,,,,,,,,,,,,,,,,,,,,,,,,,,,,,,,,,,,,,,,,,,,,,,,,,,,,,,,,,,,,,,
,,,,8,2.6631,,,,,,142,garden,tree,,90094,001,2022-04-29_14h44.42.219,SPAMnetsValid,2021.1.4,Win32,60.15761295,,,,,,,,,,,,,8,2.6631,0,69,69,22,1,,,,,,,,,,,,,,,,,,,,,,,,,,,,,,,,,,,,,,,,,,,,,,,,,,,,,,,,,,,,,,,,,,,,,,
,,,,6,1.6429,,,,,,163,melon,refrigerator,,90094,001,2022-04-29_14h44.42.219,SPAMnetsValid,2021.1.4,Win32,60.15761295,,,,,,,,,,,,,6,1.6429,0,70,70,29,1,,,,,,,,,,,,,,,,,,,,,,,,,,,,,,,,,,,,,,,,,,,,,,,,,,,,,,,,,,,,,,,,,,,,,,
,,,,6,1.1637,,,,,,139,carrot,strawberry,,90094,001,2022-04-29_14h44.42.219,SPAMnetsValid,2021.1.4,Win32,60.15761295,,,,,,,,,,,,,6,1.1637,0,71,71,37,1,,,,,,,,,,,,,,,,,,,,,,,,,,,,,,,,,,,,,,,,,,,,,,,,,,,,,,,,,,,,,,,,,,,,,,
,,,,8,2.9638,,,,,,184,oven,pretzel,,90094,001,2022-04-29_14h44.42.219,SPAMnetsValid,2021.1.4,Win32,60.15761295,,,,,,,,,,,,,8,2.9638,0,72,72,42,1,,,,,,,,,,,,,,,,,,,,,,,,,,,,,,,,,,,,,,,,,,,,,,,,,,,,,,,,,,,,,,,,,,,,,,
,,,,9,1.632,,,,,,194,cactus,cactus,CHECK,90094,001,2022-04-29_14h44.42.219,SPAMnetsValid,2021.1.4,Win32,60.15761295,,,,,,,,,,,,,9,1.632,0,73,73,25,1,,,,,,,,,,,,,,,,,,,,,,,,,,,,,,,,,,,,,,,,,,,,,,,,,,,,,,,,,,,,,,,,,,,,,,
,,,,7,2.6249,,,,,,147,cake,refrigerator,,90094,001,2022-04-29_14h44.42.219,SPAMnetsValid,2021.1.4,Win32,60.15761295,,,,,,,,,,,,,7,2.6249,0,74,74,35,1,,,,,,,,,,,,,,,,,,,,,,,,,,,,,,,,,,,,,,,,,,,,,,,,,,,,,,,,,,,,,,,,,,,,,,
,,,,5,1.606,,,,,,129,cactus,refrigerator,,90094,001,2022-04-29_14h44.42.219,SPAMnetsValid,2021.1.4,Win32,60.15761295,,,,,,,,,,,,,5,1.606,0,75,75,3,1,,,,,,,,,,,,,,,,,,,,,,,,,,,,,,,,,,,,,,,,,,,,,,,,,,,,,,,,,,,,,,,,,,,,,,
,,,,6,1.1913,,,,,,186,kitchen,yogurt,,90094,001,2022-04-29_14h44.42.219,SPAMnetsValid,2021.1.4,Win32,60.15761295,,,,,,,,,,,,,6,1.1913,0,76,76,48,1,,,,,,,,,,,,,,,,,,,,,,,,,,,,,,,,,,,,,,,,,,,,,,,,,,,,,,,,,,,,,,,,,,,,,,
,,,,8,1.5257,,,,,,177,chocolate,strawberry,,90094,001,2022-04-29_14h44.42.219,SPAMnetsValid,2021.1.4,Win32,60.15761295,,,,,,,,,,,,,8,1.5257,0,77,77,53,1,,,,,,,,,,,,,,,,,,,,,,,,,,,,,,,,,,,,,,,,,,,,,,,,,,,,,,,,,,,,,,,,,,,,,,
,,,,7,1.8224,,,,,,141,melon,tomato,,90094,001,2022-04-29_14h44.42.219,SPAMnetsValid,2021.1.4,Win32,60.15761295,,,,,,,,,,,,,7,1.8224,0,78,78,70,1,,,,,,,,,,,,,,,,,,,,,,,,,,,,,,,,,,,,,,,,,,,,,,,,,,,,,,,,,,,,,,,,,,,,,,
,,,,8,1.4173,,,,,,138,flower,rose,,90094,001,2022-04-29_14h44.42.219,SPAMnetsValid,2021.1.4,Win32,60.15761295,,,,,,,,,,,,,8,1.4173,0,79,79,61,1,,,,,,,,,,,,,,,,,,,,,,,,,,,,,,,,,,,,,,,,,,,,,,,,,,,,,,,,,,,,,,,,,,,,,,
,,,,7,2.7071,,,,,,108,carrot,chocolate,,90094,001,2022-04-29_14h44.42.219,SPAMnetsValid,2021.1.4,Win32,60.15761295,,,,,,,,,,,,,7,2.7071,0,80,80,5,1,,,,,,,,,,,,,,,,,,,,,,,,,,,,,,,,,,,,,,,,,,,,,,,,,,,,,,,,,,,,,,,,,,,,,,
,,,,8,3.1403,,,,,,168,cactus,flower,,90094,001,2022-04-29_14h44.42.219,SPAMnetsValid,2021.1.4,Win32,60.15761295,,,,,,,,,,,,,8,3.1403,0,81,81,51,1,,,,,,,,,,,,,,,,,,,,,,,,,,,,,,,,,,,,,,,,,,,,,,,,,,,,,,,,,,,,,,,,,,,,,,
,,,,5,2.8733,,,,,,151,microwave,onion,,90094,001,2022-04-29_14h44.42.219,SPAMnetsValid,2021.1.4,Win32,60.15761295,,,,,,,,,,,,,5,2.8733,0,82,82,6,1,,,,,,,,,,,,,,,,,,,,,,,,,,,,,,,,,,,,,,,,,,,,,,,,,,,,,,,,,,,,,,,,,,,,,,
,,,,5,1.5926,,,,,,189,onion,tree,,90094,001,2022-04-29_14h44.42.219,SPAMnetsValid,2021.1.4,Win32,60.15761295,,,,,,,,,,,,,5,1.5926,0,83,83,62,1,,,,,,,,,,,,,,,,,,,,,,,,,,,,,,,,,,,,,,,,,,,,,,,,,,,,,,,,,,,,,,,,,,,,,,
,,,,6,1.3154,,,,,,156,melon,rose,,90094,001,2022-04-29_14h44.42.219,SPAMnetsValid,2021.1.4,Win32,60.15761295,,,,,,,,,,,,,6,1.3154,0,84,84,31,1,,,,,,,,,,,,,,,,,,,,,,,,,,,,,,,,,,,,,,,,,,,,,,,,,,,,,,,,,,,,,,,,,,,,,,
,,,,7,1.3407,,,,,,100,garden,tomato,,90094,001,2022-04-29_14h44.42.219,SPAMnetsValid,2021.1.4,Win32,60.15761295,,,,,,,,,,,,,7,1.3407,0,85,85,83,1,,,,,,,,,,,,,,,,,,,,,,,,,,,,,,,,,,,,,,,,,,,,,,,,,,,,,,,,,,,,,,,,,,,,,,
,,,,6,2.1365,,,,,,148,flower,melon,,90094,001,2022-04-29_14h44.42.219,SPAMnetsValid,2021.1.4,Win32,60.15761295,,,,,,,,,,,,,6,2.1365,0,86,86,23,1,,,,,,,,,,,,,,,,,,,,,,,,,,,,,,,,,,,,,,,,,,,,,,,,,,,,,,,,,,,,,,,,,,,,,,
,,,,4,2.0752,,,,,,157,refrigerator,rose,,90094,001,2022-04-29_14h44.42.219,SPAMnetsValid,2021.1.4,Win32,60.15761295,,,,,,,,,,,,,4,2.0752,0,87,87,64,1,,,,,,,,,,,,,,,,,,,,,,,,,,,,,,,,,,,,,,,,,,,,,,,,,,,,,,,,,,,,,,,,,,,,,,
,,,,4,1.083,,,,,,169,onion,yogurt,,90094,001,2022-04-29_14h44.42.219,SPAMnetsValid,2021.1.4,Win32,60.15761295,,,,,,,,,,,,,4,1.083,0,88,88,24,1,,,,,,,,,,,,,,,,,,,,,,,,,,,,,,,,,,,,,,,,,,,,,,,,,,,,,,,,,,,,,,,,,,,,,,
,,,,7,3.0575,,,,,,136,chocolate,microwave,,90094,001,2022-04-29_14h44.42.219,SPAMnetsValid,2021.1.4,Win32,60.15761295,,,,,,,,,,,,,7,3.0575,0,89,89,96,1,,,,,,,,,,,,,,,,,,,,,,,,,,,,,,,,,,,,,,,,,,,,,,,,,,,,,,,,,,,,,,,,,,,,,,
,,,,8,1.9613,,,,,,120,microwave,oven,,90094,001,2022-04-29_14h44.42.219,SPAMnetsValid,2021.1.4,Win32,60.15761295,,,,,,,,,,,,,8,1.9613,0,90,90,14,1,,,,,,,,,,,,,,,,,,,,,,,,,,,,,,,,,,,,,,,,,,,,,,,,,,,,,,,,,,,,,,,,,,,,,,
,,,,7,2.1781,,,,,,118,chocolate,oven,,90094,001,2022-04-29_14h44.42.219,SPAMnetsValid,2021.1.4,Win32,60.15761295,,,,,,,,,,,,,7,2.1781,0,91,91,10,1,,,,,,,,,,,,,,,,,,,,,,,,,,,,,,,,,,,,,,,,,,,,,,,,,,,,,,,,,,,,,,,,,,,,,,
,,,,4,1.6438,,,,,,128,melon,microwave,,90094,001,2022-04-29_14h44.42.219,SPAMnetsValid,2021.1.4,Win32,60.15761295,,,,,,,,,,,,,4,1.6438,0,92,92,74,1,,,,,,,,,,,,,,,,,,,,,,,,,,,,,,,,,,,,,,,,,,,,,,,,,,,,,,,,,,,,,,,,,,,,,,
,,,,6,1.3808,,,,,,98,pretzel,strawberry,,90094,001,2022-04-29_14h44.42.219,SPAMnetsValid,2021.1.4,Win32,60.15761295,,,,,,,,,,,,,6,1.3808,0,93,93,82,1,,,,,,,,,,,,,,,,,,,,,,,,,,,,,,,,,,,,,,,,,,,,,,,,,,,,,,,,,,,,,,,,,,,,,,
,,,,6,3.3772,,,,,,97,chocolate,kitchen,,90094,001,2022-04-29_14h44.42.219,SPAMnetsValid,2021.1.4,Win32,60.15761295,,,,,,,,,,,,,6,3.3772,0,94,94,8,1,,,,,,,,,,,,,,,,,,,,,,,,,,,,,,,,,,,,,,,,,,,,,,,,,,,,,,,,,,,,,,,,,,,,,,
,,,,4,2.9729,,,,,,182,flower,refrigerator,,90094,001,2022-04-29_14h44.42.219,SPAMnetsValid,2021.1.4,Win32,60.15761295,,,,,,,,,,,,,4,2.9729,0,95,95,32,1,,,,,,,,,,,,,,,,,,,,,,,,,,,,,,,,,,,,,,,,,,,,,,,,,,,,,,,,,,,,,,,,,,,,,,
,,,,4,1.5096,,,,,,102,chocolate,refrigerator,,90094,001,2022-04-29_14h44.42.219,SPAMnetsValid,2021.1.4,Win32,60.15761295,,,,,,,,,,,,,4,1.5096,0,96,96,76,1,,,,,,,,,,,,,,,,,,,,,,,,,,,,,,,,,,,,,,,,,,,,,,,,,,,,,,,,,,,,,,,,,,,,,,
,,,,,,,,,,,,,,,90094,001,2022-04-29_14h44.42.219,SPAMnetsValid,2021.1.4,Win32,60.15761295,,,,,,,,,,,,,,,,,,,,0,0,0,0,1,,,,,,,,,,,,,,,,,,,,,,,,,,,,,,,,,,,,,,,,,,,,,,,,,,,,,,,,,,,,,,,,,
,,,,,,,,,,,,,,,90094,001,2022-04-29_14h44.42.219,SPAMnetsValid,2021.1.4,Win32,60.15761295,,,,,,0,1,1,1,1,0,1,,,,,,,,,,,,,,,,,,,,,,,,,,,,,,,,,,,,,,,,,,,,,,,,,,,,,,,,,,,,,,,,,,,,,,,,,,,,,
,,,,,,,,,,,,,,,90094,001,2022-04-29_14h44.42.219,SPAMnetsValid,2021.1.4,Win32,60.15761295,,,,,,,,,,,,,,,,,,,,,,,,,3,5.137,0,0,0,0,1,rancor,forbearance,ridicule,malice,bravery,3,,,,,,,,,,,,,,,,,,,,,,,,,,,,,,,,,,,,,,,,,,,,,,,,,,,,
,,,,,,,,,,,,,,,90094,001,2022-04-29_14h44.42.219,SPAMnetsValid,2021.1.4,Win32,60.15761295,,,,,,,,,,,,,,,,,,,,,,,,,4,5.0243,0,1,1,1,1,raucous,empty,quiet,smooth,harsh,4,,,,,,,,,,,,,,,,,,,,,,,,,,,,,,,,,,,,,,,,,,,,,,,,,,,,
,,,,,,,,,,,,,,,90094,001,2022-04-29_14h44.42.219,SPAMnetsValid,2021.1.4,Win32,60.15761295,,,,,,,,,,,,,,,,,,,,,,,,,3,9.5806,0,2,2,2,1,gargoyle,oil,medicine,carved waterspout,ugly building,3,,,,,,,,,,,,,,,,,,,,,,,,,,,,,,,,,,,,,,,,,,,,,,,,,,,,
,,,,,,,,,,,,,,,90094,001,2022-04-29_14h44.42.219,SPAMnetsValid,2021.1.4,Win32,60.15761295,,,,,,,,,,,,,,,,,,,,,,,,,3,7.5515,0,3,3,3,1,recrudesce,purify,renew activity,lack refinement,crush,2,,,,,,,,,,,,,,,,,,,,,,,,,,,,,,,,,,,,,,,,,,,,,,,,,,,,
,,,,,,,,,,,,,,,90094,001,2022-04-29_14h44.42.219,SPAMnetsValid,2021.1.4,Win32,60.15761295,,,,,,,,,,,,,,,,,,,,,,,,,2,9.0605,0,4,4,4,1,specious,"plausible, but not genuine",noteworthy,class or variety,roomy,1,,,,,,,,,,,,,,,,,,,,,,,,,,,,,,,,,,,,,,,,,,,,,,,,,,,,
,,,,,,,,,,,,,,,90094,001,2022-04-29_14h44.42.219,SPAMnetsValid,2021.1.4,Win32,60.15761295,,,,,,,,,,,,,,,,,,,,,,,,,3,2.6168,0,5,5,5,1,bauble,bubble,showy plaything,idle talk,confusion,2,,,,,,,,,,,,,,,,,,,,,,,,,,,,,,,,,,,,,,,,,,,,,,,,,,,,
,,,,,,,,,,,,,,,90094,001,2022-04-29_14h44.42.219,SPAMnetsValid,2021.1.4,Win32,60.15761295,,,,,,,,,,,,,,,,,,,,,,,,,2,7.9891,0,6,6,6,1,prolific,scarce,producing abundantly,reckless,speaking profanely,2,,,,,,,,,,,,,,,,,,,,,,,,,,,,,,,,,,,,,,,,,,,,,,,,,,,,
,,,,,,,,,,,,,,,90094,001,2022-04-29_14h44.42.219,SPAMnetsValid,2021.1.4,Win32,60.15761295,,,,,,,,,,,,,,,,,,,,,,,,,2,6.406,0,7,7,7,1,opulent,party,wealthy,happy frame of mind,semiprecious stone,2,,,,,,,,,,,,,,,,,,,,,,,,,,,,,,,,,,,,,,,,,,,,,,,,,,,,
,,,,,,,,,,,,,,,90094,001,2022-04-29_14h44.42.219,SPAMnetsValid,2021.1.4,Win32,60.15761295,,,,,,,,,,,,,,,,,,,,,,,,,1,5.1295,0,8,8,8,1,coercion,conspiracy,strategy,restraint,attraction,3,,,,,,,,,,,,,,,,,,,,,,,,,,,,,,,,,,,,,,,,,,,,,,,,,,,,
,,,,,,,,,,,,,,,90094,001,2022-04-29_14h44.42.219,SPAMnetsValid,2021.1.4,Win32,60.15761295,,,,,,,,,,,,,,,,,,,,,,,,,4,2.5385,0,9,9,9,1,hiatus,animal,calamity,dread,gap,4,,,,,,,,,,,,,,,,,,,,,,,,,,,,,,,,,,,,,,,,,,,,,,,,,,,,
,,,,,,,,,,,,,,,90094,001,2022-04-29_14h44.42.219,SPAMnetsValid,2021.1.4,Win32,60.15761295,,,,,,,,,,,,,,,,,,,,,,,,,4,5.7666,0,10,10,10,1,germane,microbe,contagious,relevant,different,3,,,,,,,,,,,,,,,,,,,,,,,,,,,,,,,,,,,,,,,,,,,,,,,,,,,,
,,,,,,,,,,,,,,,90094,001,2022-04-29_14h44.42.219,SPAMnetsValid,2021.1.4,Win32,60.15761295,,,,,,,,,,,,,,,,,,,,,,,,,2,6.825,0,11,11,11,1,perfunctory,fundamental,formal,superficial,careful,3,,,,,,,,,,,,,,,,,,,,,,,,,,,,,,,,,,,,,,,,,,,,,,,,,,,,
,,,,,,,,,,,,,,,90094,001,2022-04-29_14h44.42.219,SPAMnetsValid,2021.1.4,Win32,60.15761295,,,,,,,,,,,,,,,,,,,,,,,,,4,2.7129,0,12,12,12,1,diverge,reveal,chant,distract the attention of,differ or turn off from,4,,,,,,,,,,,,,,,,,,,,,,,,,,,,,,,,,,,,,,,,,,,,,,,,,,,,
,,,,,,,,,,,,,,,90094,001,2022-04-29_14h44.42.219,SPAMnetsValid,2021.1.4,Win32,60.15761295,,,,,,,,,,,,,,,,,,,,,,,,,4,2.4226,0,13,13,13,1,evoke,take away,anger,connect,bring out,4,,,,,,,,,,,,,,,,,,,,,,,,,,,,,,,,,,,,,,,,,,,,,,,,,,,,
,,,,,,,,,,,,,,,90094,001,2022-04-29_14h44.42.219,SPAMnetsValid,2021.1.4,Win32,60.15761295,,,,,,,,,,,,,,,,,,,,,,,,,1,2.4793,0,14,14,14,1,pertinent,relevant,lying next to,necessary,bold,1,,,,,,,,,,,,,,,,,,,,,,,,,,,,,,,,,,,,,,,,,,,,,,,,,,,,
,,,,,,,,,,,,,,,90094,001,2022-04-29_14h44.42.219,SPAMnetsValid,2021.1.4,Win32,60.15761295,,,,,,,,,,,,,,,,,,,,,,,,,2,2.0472,0,15,15,15,1,holocaust,entirety,destruction,saintly,price,2,,,,,,,,,,,,,,,,,,,,,,,,,,,,,,,,,,,,,,,,,,,,,,,,,,,,
,,,,,,,,,,,,,,,90094,001,2022-04-29_14h44.42.219,SPAMnetsValid,2021.1.4,Win32,60.15761295,,,,,,,,,,,,,,,,,,,,,,,,,3,6.0567,0,16,16,16,1,piquant,mellow,fish,pungent,cloth,3,,,,,,,,,,,,,,,,,,,,,,,,,,,,,,,,,,,,,,,,,,,,,,,,,,,,
,,,,,,,,,,,,,,,90094,001,2022-04-29_14h44.42.219,SPAMnetsValid,2021.1.4,Win32,60.15761295,,,,,,,,,,,,,,,,,,,,,,,,,4,6.8579,0,17,17,17,1,firmament,foundation,heavens,strong,glue,2,,,,,,,,,,,,,,,,,,,,,,,,,,,,,,,,,,,,,,,,,,,,,,,,,,,,
,,,,,,,,,,,,,,,90094,001,2022-04-29_14h44.42.219,SPAMnetsValid,2021.1.4,Win32,60.15761295,,,,,,,,,,,,,,,,,,,,,,,,,,,,,,,,,,,,,,4,3.7201,0,0,0,0,1,marketable,partisan,jocular,marriageable,salable,essential,4,,,,,,,,,,,,,,,,,,,,,,,,,,,,,,,,,,,,,,
,,,,,,,,,,,,,,,90094,001,2022-04-29_14h44.42.219,SPAMnetsValid,2021.1.4,Win32,60.15761295,,,,,,,,,,,,,,,,,,,,,,,,,,,,,,,,,,,,,,5,3.4146,0,1,1,1,1,cottontail,squirrel,poplar,boa,marshy plant,rabbit,5,,,,,,,,,,,,,,,,,,,,,,,,,,,,,,,,,,,,,,
,,,,,,,,,,,,,,,90094,001,2022-04-29_14h44.42.219,SPAMnetsValid,2021.1.4,Win32,60.15761295,,,,,,,,,,,,,,,,,,,,,,,,,,,,,,,,,,,,,,3,2.6326,0,2,2,2,1,boggy,afraid,false,marshy,dense,black,3,,,,,,,,,,,,,,,,,,,,,,,,,,,,,,,,,,,,,,
,,,,,,,,,,,,,,,90094,001,2022-04-29_14h44.42.219,SPAMnetsValid,2021.1.4,Win32,60.15761295,,,,,,,,,,,,,,,,,,,,,,,,,,,,,,,,,,,,,,5,3.2177,0,3,3,3,1,gruesomeness,blackness,falseness,vindictiveness,drunkenness,ghastliness,5,,,,,,,,,,,,,,,,,,,,,,,,,,,,,,,,,,,,,,
,,,,,,,,,,,,,,,90094,001,2022-04-29_14h44.42.219,SPAMnetsValid,2021.1.4,Win32,60.15761295,,,,,,,,,,,,,,,,,,,,,,,,,,,,,,,,,,,,,,3,17.2448,0,4,4,4,1,loathing,diffidence,laziness,abhorrence,cleverness,comfort,3,,,,,,,,,,,,,,,,,,,,,,,,,,,,,,,,,,,,,,
,,,,,,,,,,,,,,,90094,001,2022-04-29_14h44.42.219,SPAMnetsValid,2021.1.4,Win32,60.15761295,,,,,,,,,,,,,,,,,,,,,,,,,,,,,,,,,,,,,,5,8.2506,0,5,5,5,1,bantam,fowl,ridicule,cripple,vegetable,ensign,1,,,,,,,,,,,,,,,,,,,,,,,,,,,,,,,,,,,,,,
,,,,,,,,,,,,,,,90094,001,2022-04-29_14h44.42.219,SPAMnetsValid,2021.1.4,Win32,60.15761295,,,,,,,,,,,,,,,,,,,,,,,,,,,,,,,,,,,,,,5,2.2879,0,6,6,6,1,evoke,wake up,surrender,reconnoiter,transcend,call forth,5,,,,,,,,,,,,,,,,,,,,,,,,,,,,,,,,,,,,,,
,,,,,,,,,,,,,,,90094,001,2022-04-29_14h44.42.219,SPAMnetsValid,2021.1.4,Win32,60.15761295,,,,,,,,,,,,,,,,,,,,,,,,,,,,,,,,,,,,,,5,11.5584,0,7,7,7,1,unobtrusive,unintelligent,epileptic,illogical,lineal,modest,5,,,,,,,,,,,,,,,,,,,,,,,,,,,,,,,,,,,,,,
,,,,,,,,,,,,,,,90094,001,2022-04-29_14h44.42.219,SPAMnetsValid,2021.1.4,Win32,60.15761295,,,,,,,,,,,,,,,,,,,,,,,,,,,,,,,,,,,,,,4,2.3186,0,8,8,8,1,terrain,ice cream,final test,tractor,area of ground,weight,4,,,,,,,,,,,,,,,,,,,,,,,,,,,,,,,,,,,,,,
,,,,,,,,,,,,,,,90094,001,2022-04-29_14h44.42.219,SPAMnetsValid,2021.1.4,Win32,60.15761295,,,,,,,,,,,,,,,,,,,,,,,,,,,,,,,,,,,,,,5,16.2348,0,9,9,9,1,capriciousness,stubbornness,courage,whimsicality,amazement,greediness,3,,,,,,,,,,,,,,,,,,,,,,,,,,,,,,,,,,,,,,
,,,,,,,,,,,,,,,90094,001,2022-04-29_14h44.42.219,SPAMnetsValid,2021.1.4,Win32,60.15761295,,,,,,,,,,,,,,,,,,,,,,,,,,,,,,,,,,,,,,4,7.2782,0,10,10,10,1,maelstrom,slander,whirlpool,enmity,armor,majolica,2,,,,,,,,,,,,,,,,,,,,,,,,,,,,,,,,,,,,,,
,,,,,,,,,,,,,,,90094,001,2022-04-29_14h44.42.219,SPAMnetsValid,2021.1.4,Win32,60.15761295,,,,,,,,,,,,,,,,,,,,,,,,,,,,,,,,,,,,,,4,4.834,0,11,11,11,1,tentative,critical,conclusive,authentic,provisional,apprehensive,4,,,,,,,,,,,,,,,,,,,,,,,,,,,,,,,,,,,,,,
,,,,,,,,,,,,,,,90094,001,2022-04-29_14h44.42.219,SPAMnetsValid,2021.1.4,Win32,60.15761295,,,,,,,,,,,,,,,,,,,,,,,,,,,,,,,,,,,,,,1,7.8544,0,12,12,12,1,placate,rehabilitate,plagiarize,depredate,apprise,conciliate,5,,,,,,,,,,,,,,,,,,,,,,,,,,,,,,,,,,,,,,
,,,,,,,,,,,,,,,90094,001,2022-04-29_14h44.42.219,SPAMnetsValid,2021.1.4,Win32,60.15761295,,,,,,,,,,,,,,,,,,,,,,,,,,,,,,,,,,,,,,4,8.052,0,13,13,13,1,surcease,enlightenment,cessation,inattention,censor,substitution,2,,,,,,,,,,,,,,,,,,,,,,,,,,,,,,,,,,,,,,
,,,,,,,,,,,,,,,90094,001,2022-04-29_14h44.42.219,SPAMnetsValid,2021.1.4,Win32,60.15761295,,,,,,,,,,,,,,,,,,,,,,,,,,,,,,,,,,,,,,3,4.5519,0,14,14,14,1,apathetic,wandering,impassive,hateful,prophetic,overflowing,2,,,,,,,,,,,,,,,,,,,,,,,,,,,,,,,,,,,,,,
,,,,,,,,,,,,,,,90094,001,2022-04-29_14h44.42.219,SPAMnetsValid,2021.1.4,Win32,60.15761295,,,,,,,,,,,,,,,,,,,,,,,,,,,,,,,,,,,,,,2,10.2407,0,15,15,15,1,paternoster,paternalism,patricide,malediction,benediction,prayer,5,,,,,,,,,,,,,,,,,,,,,,,,,,,,,,,,,,,,,,
,,,,,,,,,,,,,,,90094,001,2022-04-29_14h44.42.219,SPAMnetsValid,2021.1.4,Win32,60.15761295,,,,,,,,,,,,,,,,,,,,,,,,,,,,,,,,,,,,,,2,7.3192,0,16,16,16,1,opalescence,opulence,senescence,bankruptcy,iridescence,assiduity,4,,,,,,,,,,,,,,,,,,,,,,,,,,,,,,,,,,,,,,
,,,,,,,,,,,,,,,90094,001,2022-04-29_14h44.42.219,SPAMnetsValid,2021.1.4,Win32,60.15761295,,,,,,,,,,,,,,,,,,,,,,,,,,,,,,,,,,,,,,2,3.2423,0,17,17,17,1,lush,stupid,luxurious,hazy,putrid,languishing,2,,,,,,,,,,,,,,,,,,,,,,,,,,,,,,,,,,,,,,
,,,,,,,,,,,,,,,90094,001,2022-04-29_14h44.42.219,SPAMnetsValid,2021.1.4,Win32,60.15761295,,,,,,,,,,,,,,,,,,,,,,,,,,,,,,,,,,,,,,3,3.5749,0,18,18,18,1,curtailment,expenditure,abandonment,abridgment,improvement,forgery,3,,,,,,,,,,,,,,,,,,,,,,,,,,,,,,,,,,,,,,
,,,,,,,,,,,,,,,90094,001,2022-04-29_14h44.42.219,SPAMnetsValid,2021.1.4,Win32,60.15761295,,,,,,,,,,,,,,,,,,,,,,,,,,,,,,,,,,,,,,2,3.6238,0,19,19,19,1,perversity,adversity,perviousness,travesty,waywardness,gentility,4,,,,,,,,,,,,,,,,,,,,,,,,,,,,,,,,,,,,,,
,,,,,,,,,,,,,,,90094,001,2022-04-29_14h44.42.219,SPAMnetsValid,2021.1.4,Win32,60.15761295,,,,,,,,,,,,,,,,,,,,,,,,,,,,,,,,,,,,,,4,7.4104,0,20,20,20,1,calumnious,complimentary,analogous,slanderous,tempestuous,magnanimous,3,,,,,,,,,,,,,,,,,,,,,,,,,,,,,,,,,,,,,,
,,,,,,,,,,,,,,,90094,001,2022-04-29_14h44.42.219,SPAMnetsValid,2021.1.4,Win32,60.15761295,,,,,,,,,,,,,,,,,,,,,,,,,,,,,,,,,,,,,,3,4.2998,0,21,21,21,1,illiberality,bigotry,imbecility,illegibility,cautery,immaturity,1,,,,,,,,,,,,,,,,,,,,,,,,,,,,,,,,,,,,,,
,,,,,,,,,,,,,,,90094,001,2022-04-29_14h44.42.219,SPAMnetsValid,2021.1.4,Win32,60.15761295,,,,,,,,,,,,,,,,,,,,,,,,,,,,,,,,,,,,,,3,5.8673,0,22,22,22,1,clabber,rejoice,gossip,curdle,crow,hobble,3,,,,,,,,,,,,,,,,,,,,,,,,,,,,,,,,,,,,,,
,,,,,,,,,,,,,,,90094,001,2022-04-29_14h44.42.219,SPAMnetsValid,2021.1.4,Win32,60.15761295,,,,,,,,,,,,,,,,,,,,,,,,,,,,,,,,,,,,,,5,5.4173,0,23,23,23,1,sedulousness,diligence,credulousness,seduction,perilousness,frankness,1,,,,,,,,,,,,,,,,,,,,,,,,,,,,,,,,,,,,,,
,,,,,,,,,,,,,,,90094,001,2022-04-29_14h44.42.219,SPAMnetsValid,2021.1.4,Win32,60.15761295,,,,,,,,,,,,,,,,,,,,,,,,,,,,,,,,,,,,,,,,,,,,,,,,,,,,carry water,bucket,0,0,0,0,1,,,,,,,,,,,,,,,,,,,,,,,,,,,,,,,
,,,,,,,,,,,,,,,90094,001,2022-04-29_14h44.42.219,SPAMnetsValid,2021.1.4,Win32,60.15761295,,,,,,,,,,,,,,,,,,,,,,,,,,,,,,,,,,,,,,,,,,,,,,,,,,,,build a sandcastle,bucket,1,0,1,0,1,,,,,,,,,,,,,,,,,,,,,,,,,,,,,,,
,,,,,,,,,,,,,,,90094,001,2022-04-29_14h44.42.219,SPAMnetsValid,2021.1.4,Win32,60.15761295,,,,,,,,,,,,,,,,,,,,,,,,,,,,,,,,,,,,,,,,,,,,,,,,,,,,play drums,bucket,2,0,2,0,1,,,,,,,,,,,,,,,,,,,,,,,,,,,,,,,
,,,,,,,,,,,,,,,90094,001,2022-04-29_14h44.42.219,SPAMnetsValid,2021.1.4,Win32,60.15761295,,,,,,,,,,,,,,,,,,,,,,,,,,,,,,,,,,,,,,,,,,,,,,,,,,,,stepping stool,bucket,3,0,3,0,1,,,,,,,,,,,,,,,,,,,,,,,,,,,,,,,
,,,,,,,,,,,,,,,90094,001,2022-04-29_14h44.42.219,SPAMnetsValid,2021.1.4,Win32,60.15761295,,,,,,,,,,,,,,,,,,,,,,,,,,,,,,,,,,,,,,,,,,,,,,,,,,,,helmet,bucket,4,0,4,0,1,,,,,,,,,,,,,,,,,,,,,,,,,,,,,,,
,,,,,,,,,,,,,,,90094,001,2022-04-29_14h44.42.219,SPAMnetsValid,2021.1.4,Win32,60.15761295,,,,,,,,,,,,,,,,,,,,,,,,,,,,,,,,,,,,,,,,,,,,,,,,,,,,makeshift basketball hoop,bucket,5,0,5,0,1,,,,,,,,,,,,,,,,,,,,,,,,,,,,,,,
,,,,,,,,,,,,,,,90094,001,2022-04-29_14h44.42.219,SPAMnetsValid,2021.1.4,Win32,60.15761295,,,,,,,,,,,,,,,,,,,,,,,,,,,,,,,,,,,,,,,,,,,,,,,,,,,,trash can,bucket,6,0,6,0,1,,,,,,,,,,,,,,,,,,,,,,,,,,,,,,,
,,,,,,,,,,,,,,,90094,001,2022-04-29_14h44.42.219,SPAMnetsValid,2021.1.4,Win32,60.15761295,,,,,,,,,,,,,,,,,,,,,,,,,,,,,,,,,,,,,,,,,,,,,,,,,,,,,,,,,,,0,0,0,0,1,bucket,,,,,,,,,,,,,,,,,,,,,,,,,
,,,,,,,,,,,,,,,90094,001,2022-04-29_14h44.42.219,SPAMnetsValid,2021.1.4,Win32,60.15761295,,,,,,,,,,,,,,,,,,,,,,,,,,,,,,,,,,,,,,,,,,,,,,,,,,,,sleep,pillow,0,0,0,0,1,,,,,,,,,,,,,,,,,,,,,,,,,,,,,,,
,,,,,,,,,,,,,,,90094,001,2022-04-29_14h44.42.219,SPAMnetsValid,2021.1.4,Win32,60.15761295,,,,,,,,,,,,,,,,,,,,,,,,,,,,,,,,,,,,,,,,,,,,,,,,,,,,pillow fight,pillow,1,0,1,0,1,,,,,,,,,,,,,,,,,,,,,,,,,,,,,,,
,,,,,,,,,,,,,,,90094,001,2022-04-29_14h44.42.219,SPAMnetsValid,2021.1.4,Win32,60.15761295,,,,,,,,,,,,,,,,,,,,,,,,,,,,,,,,,,,,,,,,,,,,,,,,,,,,elevate a hurt limb,pillow,2,0,2,0,1,,,,,,,,,,,,,,,,,,,,,,,,,,,,,,,
,,,,,,,,,,,,,,,90094,001,2022-04-29_14h44.42.219,SPAMnetsValid,2021.1.4,Win32,60.15761295,,,,,,,,,,,,,,,,,,,,,,,,,,,,,,,,,,,,,,,,,,,,,,,,,,,,pillow fort,pillow,3,0,3,0,1,,,,,,,,,,,,,,,,,,,,,,,,,,,,,,,
,,,,,,,,,,,,,,,90094,001,2022-04-29_14h44.42.219,SPAMnetsValid,2021.1.4,Win32,60.15761295,,,,,,,,,,,,,,,,,,,,,,,,,,,,,,,,,,,,,,,,,,,,,,,,,,,,silencer like in mob movies,pillow,4,0,4,0,1,,,,,,,,,,,,,,,,,,,,,,,,,,,,,,,
,,,,,,,,,,,,,,,90094,001,2022-04-29_14h44.42.219,SPAMnetsValid,2021.1.4,Win32,60.15761295,,,,,,,,,,,,,,,,,,,,,,,,,,,,,,,,,,,,,,,,,,,,,,,,,,,,,,,,,,,0,1,1,2,1,pillow,,,,,,,,,,,,,,,,,,,,,,,,,
,,,,,,,,,,,,,,,90094,001,2022-04-29_14h44.42.219,SPAMnetsValid,2021.1.4,Win32,60.15761295,,,,,,,,,,,,,,,,,,,,,,,,,,,,,,,,,,,,,,,,,,,,,,,,,,,,timer,candle,0,0,0,0,1,,,,,,,,,,,,,,,,,,,,,,,,,,,,,,,
,,,,,,,,,,,,,,,90094,001,2022-04-29_14h44.42.219,SPAMnetsValid,2021.1.4,Win32,60.15761295,,,,,,,,,,,,,,,,,,,,,,,,,,,,,,,,,,,,,,,,,,,,,,,,,,,,warmth,candle,1,0,1,0,1,,,,,,,,,,,,,,,,,,,,,,,,,,,,,,,
,,,,,,,,,,,,,,,90094,001,2022-04-29_14h44.42.219,SPAMnetsValid,2021.1.4,Win32,60.15761295,,,,,,,,,,,,,,,,,,,,,,,,,,,,,,,,,,,,,,,,,,,,,,,,,,,,"be nimble and quick, jump over the candlestick",candle,2,0,2,0,1,,,,,,,,,,,,,,,,,,,,,,,,,,,,,,,
,,,,,,,,,,,,,,,90094,001,2022-04-29_14h44.42.219,SPAMnetsValid,2021.1.4,Win32,60.15761295,,,,,,,,,,,,,,,,,,,,,,,,,,,,,,,,,,,,,,,,,,,,,,,,,,,,mood lighting,candle,3,0,3,0,1,,,,,,,,,,,,,,,,,,,,,,,,,,,,,,,
,,,,,,,,,,,,,,,90094,001,2022-04-29_14h44.42.219,SPAMnetsValid,2021.1.4,Win32,60.15761295,,,,,,,,,,,,,,,,,,,,,,,,,,,,,,,,,,,,,,,,,,,,,,,,,,,,cooking heat,candle,4,0,4,0,1,,,,,,,,,,,,,,,,,,,,,,,,,,,,,,,
,,,,,,,,,,,,,,,90094,001,2022-04-29_14h44.42.219,SPAMnetsValid,2021.1.4,Win32,60.15761295,,,,,,,,,,,,,,,,,,,,,,,,,,,,,,,,,,,,,,,,,,,,,,,,,,,,religious services,candle,5,0,5,0,1,,,,,,,,,,,,,,,,,,,,,,,,,,,,,,,
,,,,,,,,,,,,,,,90094,001,2022-04-29_14h44.42.219,SPAMnetsValid,2021.1.4,Win32,60.15761295,,,,,,,,,,,,,,,,,,,,,,,,,,,,,,,,,,,,,,,,,,,,,,,,,,,,exorcisms,candle,6,0,6,0,1,,,,,,,,,,,,,,,,,,,,,,,,,,,,,,,
,,,,,,,,,,,,,,,90094,001,2022-04-29_14h44.42.219,SPAMnetsValid,2021.1.4,Win32,60.15761295,,,,,,,,,,,,,,,,,,,,,,,,,,,,,,,,,,,,,,,,,,,,,,,,,,,,,,,,,,,0,2,2,1,1,candle,,,,,,,,,,,,,,,,,,,,,,,,,
,,,,,,,,,,,,,,,90094,001,2022-04-29_14h44.42.219,SPAMnetsValid,2021.1.4,Win32,60.15761295,,,,,,,,,,,,,,,,,,,,,,,,,,,,,,,,,,,,,,,,,,,,,,,,,,,,,,,,,,,,,,,,,dog,Animals,0,0,0,0,1,,,,,,,,,,,,,,,,,,
,,,,,,,,,,,,,,,90094,001,2022-04-29_14h44.42.219,SPAMnetsValid,2021.1.4,Win32,60.15761295,,,,,,,,,,,,,,,,,,,,,,,,,,,,,,,,,,,,,,,,,,,,,,,,,,,,,,,,,,,,,,,,,cat,Animals,1,0,1,0,1,,,,,,,,,,,,,,,,,,
,,,,,,,,,,,,,,,90094,001,2022-04-29_14h44.42.219,SPAMnetsValid,2021.1.4,Win32,60.15761295,,,,,,,,,,,,,,,,,,,,,,,,,,,,,,,,,,,,,,,,,,,,,,,,,,,,,,,,,,,,,,,,,beaver,Animals,2,0,2,0,1,,,,,,,,,,,,,,,,,,
,,,,,,,,,,,,,,,90094,001,2022-04-29_14h44.42.219,SPAMnetsValid,2021.1.4,Win32,60.15761295,,,,,,,,,,,,,,,,,,,,,,,,,,,,,,,,,,,,,,,,,,,,,,,,,,,,,,,,,,,,,,,,,moose,Animals,3,0,3,0,1,,,,,,,,,,,,,,,,,,
,,,,,,,,,,,,,,,90094,001,2022-04-29_14h44.42.219,SPAMnetsValid,2021.1.4,Win32,60.15761295,,,,,,,,,,,,,,,,,,,,,,,,,,,,,,,,,,,,,,,,,,,,,,,,,,,,,,,,,,,,,,,,,gorilla,Animals,4,0,4,0,1,,,,,,,,,,,,,,,,,,
,,,,,,,,,,,,,,,90094,001,2022-04-29_14h44.42.219,SPAMnetsValid,2021.1.4,Win32,60.15761295,,,,,,,,,,,,,,,,,,,,,,,,,,,,,,,,,,,,,,,,,,,,,,,,,,,,,,,,,,,,,,,,,tiger,Animals,5,0,5,0,1,,,,,,,,,,,,,,,,,,
,,,,,,,,,,,,,,,90094,001,2022-04-29_14h44.42.219,SPAMnetsValid,2021.1.4,Win32,60.15761295,,,,,,,,,,,,,,,,,,,,,,,,,,,,,,,,,,,,,,,,,,,,,,,,,,,,,,,,,,,,,,,,,lion,Animals,6,0,6,0,1,,,,,,,,,,,,,,,,,,
,,,,,,,,,,,,,,,90094,001,2022-04-29_14h44.42.219,SPAMnetsValid,2021.1.4,Win32,60.15761295,,,,,,,,,,,,,,,,,,,,,,,,,,,,,,,,,,,,,,,,,,,,,,,,,,,,,,,,,,,,,,,,,zebra,Animals,7,0,7,0,1,,,,,,,,,,,,,,,,,,
,,,,,,,,,,,,,,,90094,001,2022-04-29_14h44.42.219,SPAMnetsValid,2021.1.4,Win32,60.15761295,,,,,,,,,,,,,,,,,,,,,,,,,,,,,,,,,,,,,,,,,,,,,,,,,,,,,,,,,,,,,,,,,antelope,Animals,8,0,8,0,1,,,,,,,,,,,,,,,,,,
,,,,,,,,,,,,,,,90094,001,2022-04-29_14h44.42.219,SPAMnetsValid,2021.1.4,Win32,60.15761295,,,,,,,,,,,,,,,,,,,,,,,,,,,,,,,,,,,,,,,,,,,,,,,,,,,,,,,,,,,,,,,,,ibix,Animals,9,0,9,0,1,,,,,,,,,,,,,,,,,,
,,,,,,,,,,,,,,,90094,001,2022-04-29_14h44.42.219,SPAMnetsValid,2021.1.4,Win32,60.15761295,,,,,,,,,,,,,,,,,,,,,,,,,,,,,,,,,,,,,,,,,,,,,,,,,,,,,,,,,,,,,,,,,aligator,Animals,10,0,10,0,1,,,,,,,,,,,,,,,,,,
,,,,,,,,,,,,,,,90094,001,2022-04-29_14h44.42.219,SPAMnetsValid,2021.1.4,Win32,60.15761295,,,,,,,,,,,,,,,,,,,,,,,,,,,,,,,,,,,,,,,,,,,,,,,,,,,,,,,,,,,,,,,,,crocodile,Animals,11,0,11,0,1,,,,,,,,,,,,,,,,,,
,,,,,,,,,,,,,,,90094,001,2022-04-29_14h44.42.219,SPAMnetsValid,2021.1.4,Win32,60.15761295,,,,,,,,,,,,,,,,,,,,,,,,,,,,,,,,,,,,,,,,,,,,,,,,,,,,,,,,,,,,,,,,,lizard,Animals,12,0,12,0,1,,,,,,,,,,,,,,,,,,
,,,,,,,,,,,,,,,90094,001,2022-04-29_14h44.42.219,SPAMnetsValid,2021.1.4,Win32,60.15761295,,,,,,,,,,,,,,,,,,,,,,,,,,,,,,,,,,,,,,,,,,,,,,,,,,,,,,,,,,,,,,,,,snake,Animals,13,0,13,0,1,,,,,,,,,,,,,,,,,,
,,,,,,,,,,,,,,,90094,001,2022-04-29_14h44.42.219,SPAMnetsValid,2021.1.4,Win32,60.15761295,,,,,,,,,,,,,,,,,,,,,,,,,,,,,,,,,,,,,,,,,,,,,,,,,,,,,,,,,,,,,,,,,bear,Animals,14,0,14,0,1,,,,,,,,,,,,,,,,,,
,,,,,,,,,,,,,,,90094,001,2022-04-29_14h44.42.219,SPAMnetsValid,2021.1.4,Win32,60.15761295,,,,,,,,,,,,,,,,,,,,,,,,,,,,,,,,,,,,,,,,,,,,,,,,,,,,,,,,,,,,,,,,,squid,Animals,15,0,15,0,1,,,,,,,,,,,,,,,,,,
,,,,,,,,,,,,,,,90094,001,2022-04-29_14h44.42.219,SPAMnetsValid,2021.1.4,Win32,60.15761295,,,,,,,,,,,,,,,,,,,,,,,,,,,,,,,,,,,,,,,,,,,,,,,,,,,,,,,,,,,,,,,,,crab,Animals,16,0,16,0,1,,,,,,,,,,,,,,,,,,
,,,,,,,,,,,,,,,90094,001,2022-04-29_14h44.42.219,SPAMnetsValid,2021.1.4,Win32,60.15761295,,,,,,,,,,,,,,,,,,,,,,,,,,,,,,,,,,,,,,,,,,,,,,,,,,,,,,,,,,,,,,,,,lobster,Animals,17,0,17,0,1,,,,,,,,,,,,,,,,,,
,,,,,,,,,,,,,,,90094,001,2022-04-29_14h44.42.219,SPAMnetsValid,2021.1.4,Win32,60.15761295,,,,,,,,,,,,,,,,,,,,,,,,,,,,,,,,,,,,,,,,,,,,,,,,,,,,,,,,,,,,,,,,,clam,Animals,18,0,18,0,1,,,,,,,,,,,,,,,,,,
,,,,,,,,,,,,,,,90094,001,2022-04-29_14h44.42.219,SPAMnetsValid,2021.1.4,Win32,60.15761295,,,,,,,,,,,,,,,,,,,,,,,,,,,,,,,,,,,,,,,,,,,,,,,,,,,,,,,,,,,,,,,,,eel,Animals,19,0,19,0,1,,,,,,,,,,,,,,,,,,
,,,,,,,,,,,,,,,90094,001,2022-04-29_14h44.42.219,SPAMnetsValid,2021.1.4,Win32,60.15761295,,,,,,,,,,,,,,,,,,,,,,,,,,,,,,,,,,,,,,,,,,,,,,,,,,,,,,,,,,,,,,,,,pigeon,Animals,20,0,20,0,1,,,,,,,,,,,,,,,,,,
,,,,,,,,,,,,,,,90094,001,2022-04-29_14h44.42.219,SPAMnetsValid,2021.1.4,Win32,60.15761295,,,,,,,,,,,,,,,,,,,,,,,,,,,,,,,,,,,,,,,,,,,,,,,,,,,,,,,,,,,,,,,,,wolf,Animals,21,0,21,0,1,,,,,,,,,,,,,,,,,,
,,,,,,,,,,,,,,,90094,001,2022-04-29_14h44.42.219,SPAMnetsValid,2021.1.4,Win32,60.15761295,,,,,,,,,,,,,,,,,,,,,,,,,,,,,,,,,,,,,,,,,,,,,,,,,,,,,,,,,,,,,,,,,axotyl,Animals,22,0,22,0,1,,,,,,,,,,,,,,,,,,
,,,,,,,,,,,,,,,90094,001,2022-04-29_14h44.42.219,SPAMnetsValid,2021.1.4,Win32,60.15761295,,,,,,,,,,,,,,,,,,,,,,,,,,,,,,,,,,,,,,,,,,,,,,,,,,,,,,,,,,,,,,,,,chipmunk,Animals,23,0,23,0,1,,,,,,,,,,,,,,,,,,
,,,,,,,,,,,,,,,90094,001,2022-04-29_14h44.42.219,SPAMnetsValid,2021.1.4,Win32,60.15761295,,,,,,,,,,,,,,,,,,,,,,,,,,,,,,,,,,,,,,,,,,,,,,,,,,,,,,,,,,,,,,,,,squirrel,Animals,24,0,24,0,1,,,,,,,,,,,,,,,,,,
,,,,,,,,,,,,,,,90094,001,2022-04-29_14h44.42.219,SPAMnetsValid,2021.1.4,Win32,60.15761295,,,,,,,,,,,,,,,,,,,,,,,,,,,,,,,,,,,,,,,,,,,,,,,,,,,,,,,,,,,,,,,,,racoon,Animals,25,0,25,0,1,,,,,,,,,,,,,,,,,,
,,,,,,,,,,,,,,,90094,001,2022-04-29_14h44.42.219,SPAMnetsValid,2021.1.4,Win32,60.15761295,,,,,,,,,,,,,,,,,,,,,,,,,,,,,,,,,,,,,,,,,,,,,,,,,,,,,,,,,,,,,,,,,rat,Animals,26,0,26,0,1,,,,,,,,,,,,,,,,,,
,,,,,,,,,,,,,,,90094,001,2022-04-29_14h44.42.219,SPAMnetsValid,2021.1.4,Win32,60.15761295,,,,,,,,,,,,,,,,,,,,,,,,,,,,,,,,,,,,,,,,,,,,,,,,,,,,,,,,,,,,,,,,,mouse,Animals,27,0,27,0,1,,,,,,,,,,,,,,,,,,
,,,,,,,,,,,,,,,90094,001,2022-04-29_14h44.42.219,SPAMnetsValid,2021.1.4,Win32,60.15761295,,,,,,,,,,,,,,,,,,,,,,,,,,,,,,,,,,,,,,,,,,,,,,,,,,,,,,,,,,,,,,,,,cockroach,Animals,28,0,28,0,1,,,,,,,,,,,,,,,,,,
,,,,,,,,,,,,,,,90094,001,2022-04-29_14h44.42.219,SPAMnetsValid,2021.1.4,Win32,60.15761295,,,,,,,,,,,,,,,,,,,,,,,,,,,,,,,,,,,,,,,,,,,,,,,,,,,,,,,,,,,,,,,,,mantis,Animals,29,0,29,0,1,,,,,,,,,,,,,,,,,,
,,,,,,,,,,,,,,,90094,001,2022-04-29_14h44.42.219,SPAMnetsValid,2021.1.4,Win32,60.15761295,,,,,,,,,,,,,,,,,,,,,,,,,,,,,,,,,,,,,,,,,,,,,,,,,,,,,,,,,,,,,,,,,flea,Animals,30,0,30,0,1,,,,,,,,,,,,,,,,,,
,,,,,,,,,,,,,,,90094,001,2022-04-29_14h44.42.219,SPAMnetsValid,2021.1.4,Win32,60.15761295,,,,,,,,,,,,,,,,,,,,,,,,,,,,,,,,,,,,,,,,,,,,,,,,,,,,,,,,,,,,,,,,,rhino,Animals,31,0,31,0,1,,,,,,,,,,,,,,,,,,
,,,,,,,,,,,,,,,90094,001,2022-04-29_14h44.42.219,SPAMnetsValid,2021.1.4,Win32,60.15761295,,,,,,,,,,,,,,,,,,,,,,,,,,,,,,,,,,,,,,,,,,,,,,,,,,,,,,,,,,,,,,,,,hippo,Animals,32,0,32,0,1,,,,,,,,,,,,,,,,,,
,,,,,,,,,,,,,,,90094,001,2022-04-29_14h44.42.219,SPAMnetsValid,2021.1.4,Win32,60.15761295,,,,,,,,,,,,,,,,,,,,,,,,,,,,,,,,,,,,,,,,,,,,,,,,,,,,,,,,,,,,,,,,,reindeer,Animals,33,0,33,0,1,,,,,,,,,,,,,,,,,,
,,,,,,,,,,,,,,,90094,001,2022-04-29_14h44.42.219,SPAMnetsValid,2021.1.4,Win32,60.15761295,,,,,,,,,,,,,,,,,,,,,,,,,,,,,,,,,,,,,,,,,,,,,,,,,,,,,,,,,,,,,,,,,chicken,Animals,34,0,34,0,1,,,,,,,,,,,,,,,,,,
,,,,,,,,,,,,,,,90094,001,2022-04-29_14h44.42.219,SPAMnetsValid,2021.1.4,Win32,60.15761295,,,,,,,,,,,,,,,,,,,,,,,,,,,,,,,,,,,,,,,,,,,,,,,,,,,,,,,,,,,,,,,,,pig,Animals,35,0,35,0,1,,,,,,,,,,,,,,,,,,
,,,,,,,,,,,,,,,90094,001,2022-04-29_14h44.42.219,SPAMnetsValid,2021.1.4,Win32,60.15761295,,,,,,,,,,,,,,,,,,,,,,,,,,,,,,,,,,,,,,,,,,,,,,,,,,,,,,,,,,,,,,,,,,,,,,,,0,0,0,0,1,Animals,,,,,,,,,,,,
,,,,,,,,,,,,,,,90094,001,2022-04-29_14h44.42.219,SPAMnetsValid,2021.1.4,Win32,60.15761295,,,,,,,,,,,,,,,,,,,,,,,,,,,,,,,,,,,,,,,,,,,,,,,,,,,,,,,,,,,,,,,,,,,,,,,,,,,,,,4,7.6381,0,0,0,0,1,"I enjoy concentrating on a fantasy or daydream and exploring all its possibilities, letting it grow and develop.",0,1,,
,,,,,,,,,,,,,,,90094,001,2022-04-29_14h44.42.219,SPAMnetsValid,2021.1.4,Win32,60.15761295,,,,,,,,,,,,,,,,,,,,,,,,,,,,,,,,,,,,,,,,,,,,,,,,,,,,,,,,,,,,,,,,,,,,,,,,,,,,,,4,1.8725,0,1,1,1,1,I think it's interesting to learn and develop new hobbies.,0,2,,
,,,,,,,,,,,,,,,90094,001,2022-04-29_14h44.42.219,SPAMnetsValid,2021.1.4,Win32,60.15761295,,,,,,,,,,,,,,,,,,,,,,,,,,,,,,,,,,,,,,,,,,,,,,,,,,,,,,,,,,,,,,,,,,,,,,,,,,,,,,3,2.0749,0,2,2,2,1,I am intrigued by the patterns I find in art and nature.,0,3,,
,,,,,,,,,,,,,,,90094,001,2022-04-29_14h44.42.219,SPAMnetsValid,2021.1.4,Win32,60.15761295,,,,,,,,,,,,,,,,,,,,,,,,,,,,,,,,,,,,,,,,,,,,,,,,,,,,,,,,,,,,,,,,,,,,,,,,,,,,,,1,4.6005,0,3,3,3,1,I believe letting students hear controversial speakers can only confuse and mislead them.,1,4,,
,,,,,,,,,,,,,,,90094,001,2022-04-29_14h44.42.219,SPAMnetsValid,2021.1.4,Win32,60.15761295,,,,,,,,,,,,,,,,,,,,,,,,,,,,,,,,,,,,,,,,,,,,,,,,,,,,,,,,,,,,,,,,,,,,,,,,,,,,,,2,5.8887,0,4,4,4,1,Poetry has little or no effect on me.,1,5,,
,,,,,,,,,,,,,,,90094,001,2022-04-29_14h44.42.219,SPAMnetsValid,2021.1.4,Win32,60.15761295,,,,,,,,,,,,,,,,,,,,,,,,,,,,,,,,,,,,,,,,,,,,,,,,,,,,,,,,,,,,,,,,,,,,,,,,,,,,,,1,11.0242,0,5,5,5,1,I would have difficulty just letting my mind wander without control or guidance.,1,6,,
,,,,,,,,,,,,,,,90094,001,2022-04-29_14h44.42.219,SPAMnetsValid,2021.1.4,Win32,60.15761295,,,,,,,,,,,,,,,,,,,,,,,,,,,,,,,,,,,,,,,,,,,,,,,,,,,,,,,,,,,,,,,,,,,,,,,,,,,,,,2,3.8074,0,6,6,6,1,I seldom notice the moods or feelings that different environments produce.,1,7,,
,,,,,,,,,,,,,,,90094,001,2022-04-29_14h44.42.219,SPAMnetsValid,2021.1.4,Win32,60.15761295,,,,,,,,,,,,,,,,,,,,,,,,,,,,,,,,,,,,,,,,,,,,,,,,,,,,,,,,,,,,,,,,,,,,,,,,,,,,,,4,2.4833,0,7,7,7,1,I experience a wide range of emotions or feelings.,0,8,,
,,,,,,,,,,,,,,,90094,001,2022-04-29_14h44.42.219,SPAMnetsValid,2021.1.4,Win32,60.15761295,,,,,,,,,,,,,,,,,,,,,,,,,,,,,,,,,,,,,,,,,,,,,,,,,,,,,,,,,,,,,,,,,,,,,,,,,,,,,,4,3.2607,0,8,8,8,1,"Sometimes when I am reading poetry or looking at a work of art, I feel a chill or wave of excitement.",0,9,,
,,,,,,,,,,,,,,,90094,001,2022-04-29_14h44.42.219,SPAMnetsValid,2021.1.4,Win32,60.15761295,,,,,,,,,,,,,,,,,,,,,,,,,,,,,,,,,,,,,,,,,,,,,,,,,,,,,,,,,,,,,,,,,,,,,,,,,,,,,,1,8.2594,0,9,9,9,1,I have little interest in speculating on the nature of the universe or the human condition.,1,10,,
,,,,,,,,,,,,,,,90094,001,2022-04-29_14h44.42.219,SPAMnetsValid,2021.1.4,Win32,60.15761295,,,,,,,,,,,,,,,,,,,,,,,,,,,,,,,,,,,,,,,,,,,,,,,,,,,,,,,,,,,,,,,,,,,,,,,,,,,,,,2,16.8666,0,10,10,10,1,I have a lot of intellectual curiosity.,0,11,,
,,,,,,,,,,,,,,,90094,001,2022-04-29_14h44.42.219,SPAMnetsValid,2021.1.4,Win32,60.15761295,,,,,,,,,,,,,,,,,,,,,,,,,,,,,,,,,,,,,,,,,,,,,,,,,,,,,,,,,,,,,,,,,,,,,,,,,,,,,,5,5.5263,0,11,11,11,1,I often enjoy playing with theories or abstract ideas.,0,12,,
,,,,,,,,,,,,,,,90094,001,2022-04-29_14h44.42.219,SPAMnetsValid,2021.1.4,Win32,60.15761295,,,,,,,,,,,,,,,,,,,,,,,,,,,,,,,,,,,,,,,,,,,,,,,,,,,,,,,,,,,,,,,,,,,,,,,,,,,,,,,,,,,,,,,,return,2.9572
