key_resp_3.keys,key_resp_3.rt,slider.response,slider.rt,rjt_rating,rjt_RT,trials_22.thisRepN,trials_22.thisTrialN,trials_22.thisN,trials_22.thisIndex,trials_22.ran,rjt_order,word1,word2,attention,participant,session,date,expName,psychopyVersion,OS,frameRate,trials_99.thisRepN,trials_99.thisTrialN,trials_99.thisN,trials_99.thisIndex,trials_99.ran,trials_5.thisRepN,trials_5.thisTrialN,trials_5.thisN,trials_5.thisIndex,trials_5.ran,repOne,repTwo,slider_2.response,slider_2.rt,trials_24.thisRepN,trials_24.thisTrialN,trials_24.thisN,trials_24.thisIndex,trials_24.ran,trials_4.thisRepN,trials_4.thisTrialN,trials_4.thisN,trials_4.thisIndex,trials_4.ran,slider_extend_2.response,slider_extend_2.rt,trials_6.thisRepN,trials_6.thisTrialN,trials_6.thisN,trials_6.thisIndex,trials_6.ran,vCue2,R1,R2,R3,R4,correct,sliderVocab.response,sliderVocab.rt,trials_7.thisRepN,trials_7.thisTrialN,trials_7.thisN,trials_7.thisIndex,trials_7.ran,VocabCue,VR1,VR2,VR3,VR4,VR5,VocabCorrect,AUT_resp,AUT_label,trials.thisRepN,trials.thisTrialN,trials.thisN,trials.thisIndex,trials.ran,trials_2.thisRepN,trials_2.thisTrialN,trials_2.thisN,trials_2.thisIndex,trials_2.ran,aut_prompt,VF_response,VF_tag,trials_16.thisRepN,trials_16.thisTrialN,trials_16.thisN,trials_16.thisIndex,trials_16.ran,trials_17.thisRepN,trials_17.thisTrialN,trials_17.thisN,trials_17.thisIndex,trials_17.ran,VFcond,open_slider.response,open_slider.rt,trials_3.thisRepN,trials_3.thisTrialN,trials_3.thisN,trials_3.thisIndex,trials_3.ran,OpenQ,Rev,OPEN_ORDER,key_resp_2.keys,key_resp_2.rt
return,10.977,4,5.697,4,5.697,0,0,0,44,1,25,carrot,onion,,90098,001,2022-04-26_11h00.34.106,SPAMnetsValid,2021.1.4,iPad,62.5,,,,,,,,,,,,,,,,,,,,,,,,,,,,,,,,,,,,,,,,,,,,,,,,,,,,,,,,,,,,,,,,,,,,,,,,,,,,,,,,,,,,,,,,,
,,1,4.427,1,4.427,0,1,1,74,1,70,chocolate,onion,,90098,001,2022-04-26_11h00.34.106,SPAMnetsValid,2021.1.4,iPad,62.5,,,,,,,,,,,,,,,,,,,,,,,,,,,,,,,,,,,,,,,,,,,,,,,,,,,,,,,,,,,,,,,,,,,,,,,,,,,,,,,,,,,,,,,,,
,,1,2.688,1,2.688,0,2,2,50,1,81,pretzel,yogurt,,90098,001,2022-04-26_11h00.34.106,SPAMnetsValid,2021.1.4,iPad,62.5,,,,,,,,,,,,,,,,,,,,,,,,,,,,,,,,,,,,,,,,,,,,,,,,,,,,,,,,,,,,,,,,,,,,,,,,,,,,,,,,,,,,,,,,,
,,2,4.009,2,4.009,0,3,3,63,1,21,cake,onion,,90098,001,2022-04-26_11h00.34.106,SPAMnetsValid,2021.1.4,iPad,62.5,,,,,,,,,,,,,,,,,,,,,,,,,,,,,,,,,,,,,,,,,,,,,,,,,,,,,,,,,,,,,,,,,,,,,,,,,,,,,,,,,,,,,,,,,
,,7,2.308,7,2.308,0,4,4,16,1,14,broom,cookie,,90098,001,2022-04-26_11h00.34.106,SPAMnetsValid,2021.1.4,iPad,62.5,,,,,,,,,,,,,,,,,,,,,,,,,,,,,,,,,,,,,,,,,,,,,,,,,,,,,,,,,,,,,,,,,,,,,,,,,,,,,,,,,,,,,,,,,
,,7,1.556,7,1.556,0,5,5,37,1,58,garden,oven,,90098,001,2022-04-26_11h00.34.106,SPAMnetsValid,2021.1.4,iPad,62.5,,,,,,,,,,,,,,,,,,,,,,,,,,,,,,,,,,,,,,,,,,,,,,,,,,,,,,,,,,,,,,,,,,,,,,,,,,,,,,,,,,,,,,,,,
,,9,1.191,9,1.191,0,6,6,7,1,34,melon,oven,,90098,001,2022-04-26_11h00.34.106,SPAMnetsValid,2021.1.4,iPad,62.5,,,,,,,,,,,,,,,,,,,,,,,,,,,,,,,,,,,,,,,,,,,,,,,,,,,,,,,,,,,,,,,,,,,,,,,,,,,,,,,,,,,,,,,,,
,,2,2.174,2,2.174,0,7,7,58,1,94,kitchen,microwave,,90098,001,2022-04-26_11h00.34.106,SPAMnetsValid,2021.1.4,iPad,62.5,,,,,,,,,,,,,,,,,,,,,,,,,,,,,,,,,,,,,,,,,,,,,,,,,,,,,,,,,,,,,,,,,,,,,,,,,,,,,,,,,,,,,,,,,
,,7,2.211,7,2.211,0,8,8,96,1,82,cake,kitchen,,90098,001,2022-04-26_11h00.34.106,SPAMnetsValid,2021.1.4,iPad,62.5,,,,,,,,,,,,,,,,,,,,,,,,,,,,,,,,,,,,,,,,,,,,,,,,,,,,,,,,,,,,,,,,,,,,,,,,,,,,,,,,,,,,,,,,,
,,2,2.043,2,2.043,0,9,9,81,1,60,cactus,onion,,90098,001,2022-04-26_11h00.34.106,SPAMnetsValid,2021.1.4,iPad,62.5,,,,,,,,,,,,,,,,,,,,,,,,,,,,,,,,,,,,,,,,,,,,,,,,,,,,,,,,,,,,,,,,,,,,,,,,,,,,,,,,,,,,,,,,,
,,2,1.433,2,1.433,0,10,10,31,1,33,oven,yogurt,,90098,001,2022-04-26_11h00.34.106,SPAMnetsValid,2021.1.4,iPad,62.5,,,,,,,,,,,,,,,,,,,,,,,,,,,,,,,,,,,,,,,,,,,,,,,,,,,,,,,,,,,,,,,,,,,,,,,,,,,,,,,,,,,,,,,,,
,,2,2.767,2,2.767,0,11,11,61,1,71,broom,rose,,90098,001,2022-04-26_11h00.34.106,SPAMnetsValid,2021.1.4,iPad,62.5,,,,,,,,,,,,,,,,,,,,,,,,,,,,,,,,,,,,,,,,,,,,,,,,,,,,,,,,,,,,,,,,,,,,,,,,,,,,,,,,,,,,,,,,,
,,3,2.232,3,2.232,0,12,12,5,1,13,broom,yogurt,,90098,001,2022-04-26_11h00.34.106,SPAMnetsValid,2021.1.4,iPad,62.5,,,,,,,,,,,,,,,,,,,,,,,,,,,,,,,,,,,,,,,,,,,,,,,,,,,,,,,,,,,,,,,,,,,,,,,,,,,,,,,,,,,,,,,,,
,,8,2.211,8,2.211,0,13,13,70,1,5,oven,tree,,90098,001,2022-04-26_11h00.34.106,SPAMnetsValid,2021.1.4,iPad,62.5,,,,,,,,,,,,,,,,,,,,,,,,,,,,,,,,,,,,,,,,,,,,,,,,,,,,,,,,,,,,,,,,,,,,,,,,,,,,,,,,,,,,,,,,,
,,2,2.137,2,2.137,0,14,14,92,1,44,cookie,melon,,90098,001,2022-04-26_11h00.34.106,SPAMnetsValid,2021.1.4,iPad,62.5,,,,,,,,,,,,,,,,,,,,,,,,,,,,,,,,,,,,,,,,,,,,,,,,,,,,,,,,,,,,,,,,,,,,,,,,,,,,,,,,,,,,,,,,,
,,8,3.027,8,3.027,0,15,15,30,1,3,cake,oven,,90098,001,2022-04-26_11h00.34.106,SPAMnetsValid,2021.1.4,iPad,62.5,,,,,,,,,,,,,,,,,,,,,,,,,,,,,,,,,,,,,,,,,,,,,,,,,,,,,,,,,,,,,,,,,,,,,,,,,,,,,,,,,,,,,,,,,
,,7,1.248,7,1.248,0,16,16,9,1,75,cookie,onion,,90098,001,2022-04-26_11h00.34.106,SPAMnetsValid,2021.1.4,iPad,62.5,,,,,,,,,,,,,,,,,,,,,,,,,,,,,,,,,,,,,,,,,,,,,,,,,,,,,,,,,,,,,,,,,,,,,,,,,,,,,,,,,,,,,,,,,
,,3,5.58,3,5.58,0,17,17,28,1,84,oven,tomato,,90098,001,2022-04-26_11h00.34.106,SPAMnetsValid,2021.1.4,iPad,62.5,,,,,,,,,,,,,,,,,,,,,,,,,,,,,,,,,,,,,,,,,,,,,,,,,,,,,,,,,,,,,,,,,,,,,,,,,,,,,,,,,,,,,,,,,
,,3,1.51,3,1.51,0,18,18,90,1,95,broom,refrigerator,,90098,001,2022-04-26_11h00.34.106,SPAMnetsValid,2021.1.4,iPad,62.5,,,,,,,,,,,,,,,,,,,,,,,,,,,,,,,,,,,,,,,,,,,,,,,,,,,,,,,,,,,,,,,,,,,,,,,,,,,,,,,,,,,,,,,,,
,,3,0.985,3,0.985,0,19,19,86,1,51,onion,strawberry,,90098,001,2022-04-26_11h00.34.106,SPAMnetsValid,2021.1.4,iPad,62.5,,,,,,,,,,,,,,,,,,,,,,,,,,,,,,,,,,,,,,,,,,,,,,,,,,,,,,,,,,,,,,,,,,,,,,,,,,,,,,,,,,,,,,,,,
,,3,2.197,3,2.197,0,20,20,78,1,30,cookie,pretzel,,90098,001,2022-04-26_11h00.34.106,SPAMnetsValid,2021.1.4,iPad,62.5,,,,,,,,,,,,,,,,,,,,,,,,,,,,,,,,,,,,,,,,,,,,,,,,,,,,,,,,,,,,,,,,,,,,,,,,,,,,,,,,,,,,,,,,,
,,7,2.09,7,2.09,0,21,21,95,1,52,carrot,tomato,,90098,001,2022-04-26_11h00.34.106,SPAMnetsValid,2021.1.4,iPad,62.5,,,,,,,,,,,,,,,,,,,,,,,,,,,,,,,,,,,,,,,,,,,,,,,,,,,,,,,,,,,,,,,,,,,,,,,,,,,,,,,,,,,,,,,,,
,,3,2.682,3,2.682,0,22,22,38,1,88,cactus,melon,,90098,001,2022-04-26_11h00.34.106,SPAMnetsValid,2021.1.4,iPad,62.5,,,,,,,,,,,,,,,,,,,,,,,,,,,,,,,,,,,,,,,,,,,,,,,,,,,,,,,,,,,,,,,,,,,,,,,,,,,,,,,,,,,,,,,,,
,,3,1.892,3,1.892,0,23,23,34,1,29,chocolate,melon,,90098,001,2022-04-26_11h00.34.106,SPAMnetsValid,2021.1.4,iPad,62.5,,,,,,,,,,,,,,,,,,,,,,,,,,,,,,,,,,,,,,,,,,,,,,,,,,,,,,,,,,,,,,,,,,,,,,,,,,,,,,,,,,,,,,,,,
,,1,3.242,1,3.242,0,24,24,72,1,59,rose,strawberry,,90098,001,2022-04-26_11h00.34.106,SPAMnetsValid,2021.1.4,iPad,62.5,,,,,,,,,,,,,,,,,,,,,,,,,,,,,,,,,,,,,,,,,,,,,,,,,,,,,,,,,,,,,,,,,,,,,,,,,,,,,,,,,,,,,,,,,
,,1,3.118,1,3.118,0,25,25,33,1,32,cake,microwave,,90098,001,2022-04-26_11h00.34.106,SPAMnetsValid,2021.1.4,iPad,62.5,,,,,,,,,,,,,,,,,,,,,,,,,,,,,,,,,,,,,,,,,,,,,,,,,,,,,,,,,,,,,,,,,,,,,,,,,,,,,,,,,,,,,,,,,
,,7,4.901,7,4.901,0,26,26,79,1,86,oven,rose,,90098,001,2022-04-26_11h00.34.106,SPAMnetsValid,2021.1.4,iPad,62.5,,,,,,,,,,,,,,,,,,,,,,,,,,,,,,,,,,,,,,,,,,,,,,,,,,,,,,,,,,,,,,,,,,,,,,,,,,,,,,,,,,,,,,,,,
,,7,1.53,7,1.53,0,27,27,11,1,37,garden,refrigerator,,90098,001,2022-04-26_11h00.34.106,SPAMnetsValid,2021.1.4,iPad,62.5,,,,,,,,,,,,,,,,,,,,,,,,,,,,,,,,,,,,,,,,,,,,,,,,,,,,,,,,,,,,,,,,,,,,,,,,,,,,,,,,,,,,,,,,,
,,8,0.958,8,0.958,0,28,28,82,1,93,kitchen,oven,,90098,001,2022-04-26_11h00.34.106,SPAMnetsValid,2021.1.4,iPad,62.5,,,,,,,,,,,,,,,,,,,,,,,,,,,,,,,,,,,,,,,,,,,,,,,,,,,,,,,,,,,,,,,,,,,,,,,,,,,,,,,,,,,,,,,,,
,,2,1.777,2,1.777,0,29,29,14,1,64,chocolate,garden,,90098,001,2022-04-26_11h00.34.106,SPAMnetsValid,2021.1.4,iPad,62.5,,,,,,,,,,,,,,,,,,,,,,,,,,,,,,,,,,,,,,,,,,,,,,,,,,,,,,,,,,,,,,,,,,,,,,,,,,,,,,,,,,,,,,,,,
,,5,3.834,5,3.834,0,30,30,21,1,56,cactus,tree,,90098,001,2022-04-26_11h00.34.106,SPAMnetsValid,2021.1.4,iPad,62.5,,,,,,,,,,,,,,,,,,,,,,,,,,,,,,,,,,,,,,,,,,,,,,,,,,,,,,,,,,,,,,,,,,,,,,,,,,,,,,,,,,,,,,,,,
,,2,3.098,2,3.098,0,31,31,62,1,18,onion,refrigerator,,90098,001,2022-04-26_11h00.34.106,SPAMnetsValid,2021.1.4,iPad,62.5,,,,,,,,,,,,,,,,,,,,,,,,,,,,,,,,,,,,,,,,,,,,,,,,,,,,,,,,,,,,,,,,,,,,,,,,,,,,,,,,,,,,,,,,,
,,2,1.821,2,1.821,0,32,32,49,1,57,flower,kitchen,,90098,001,2022-04-26_11h00.34.106,SPAMnetsValid,2021.1.4,iPad,62.5,,,,,,,,,,,,,,,,,,,,,,,,,,,,,,,,,,,,,,,,,,,,,,,,,,,,,,,,,,,,,,,,,,,,,,,,,,,,,,,,,,,,,,,,,
,,2,1.201,2,1.201,0,33,33,1,1,31,cactus,pretzel,,90098,001,2022-04-26_11h00.34.106,SPAMnetsValid,2021.1.4,iPad,62.5,,,,,,,,,,,,,,,,,,,,,,,,,,,,,,,,,,,,,,,,,,,,,,,,,,,,,,,,,,,,,,,,,,,,,,,,,,,,,,,,,,,,,,,,,
,,3,1.965,3,1.965,0,34,34,55,1,1,rose,yogurt,,90098,001,2022-04-26_11h00.34.106,SPAMnetsValid,2021.1.4,iPad,62.5,,,,,,,,,,,,,,,,,,,,,,,,,,,,,,,,,,,,,,,,,,,,,,,,,,,,,,,,,,,,,,,,,,,,,,,,,,,,,,,,,,,,,,,,,
,,2,1.728,2,1.728,0,35,35,94,1,68,flower,tomato,,90098,001,2022-04-26_11h00.34.106,SPAMnetsValid,2021.1.4,iPad,62.5,,,,,,,,,,,,,,,,,,,,,,,,,,,,,,,,,,,,,,,,,,,,,,,,,,,,,,,,,,,,,,,,,,,,,,,,,,,,,,,,,,,,,,,,,
,,2,2.071,2,2.071,0,36,36,87,1,79,garden,strawberry,,90098,001,2022-04-26_11h00.34.106,SPAMnetsValid,2021.1.4,iPad,62.5,,,,,,,,,,,,,,,,,,,,,,,,,,,,,,,,,,,,,,,,,,,,,,,,,,,,,,,,,,,,,,,,,,,,,,,,,,,,,,,,,,,,,,,,,
,,2,1.276,2,1.276,0,37,37,25,1,23,flower,microwave,,90098,001,2022-04-26_11h00.34.106,SPAMnetsValid,2021.1.4,iPad,62.5,,,,,,,,,,,,,,,,,,,,,,,,,,,,,,,,,,,,,,,,,,,,,,,,,,,,,,,,,,,,,,,,,,,,,,,,,,,,,,,,,,,,,,,,,
,,2,2.073,2,2.073,0,38,38,76,1,36,broom,kitchen,,90098,001,2022-04-26_11h00.34.106,SPAMnetsValid,2021.1.4,iPad,62.5,,,,,,,,,,,,,,,,,,,,,,,,,,,,,,,,,,,,,,,,,,,,,,,,,,,,,,,,,,,,,,,,,,,,,,,,,,,,,,,,,,,,,,,,,
,,2,2.07,2,2.07,0,39,39,88,1,92,broom,flower,,90098,001,2022-04-26_11h00.34.106,SPAMnetsValid,2021.1.4,iPad,62.5,,,,,,,,,,,,,,,,,,,,,,,,,,,,,,,,,,,,,,,,,,,,,,,,,,,,,,,,,,,,,,,,,,,,,,,,,,,,,,,,,,,,,,,,,
,,7,1.915,7,1.915,0,40,40,66,1,20,rose,tree,,90098,001,2022-04-26_11h00.34.106,SPAMnetsValid,2021.1.4,iPad,62.5,,,,,,,,,,,,,,,,,,,,,,,,,,,,,,,,,,,,,,,,,,,,,,,,,,,,,,,,,,,,,,,,,,,,,,,,,,,,,,,,,,,,,,,,,
,,8,2.15,8,2.15,0,41,41,6,1,87,carrot,yogurt,,90098,001,2022-04-26_11h00.34.106,SPAMnetsValid,2021.1.4,iPad,62.5,,,,,,,,,,,,,,,,,,,,,,,,,,,,,,,,,,,,,,,,,,,,,,,,,,,,,,,,,,,,,,,,,,,,,,,,,,,,,,,,,,,,,,,,,
,,3,2.003,3,2.003,0,42,42,24,1,17,carrot,melon,,90098,001,2022-04-26_11h00.34.106,SPAMnetsValid,2021.1.4,iPad,62.5,,,,,,,,,,,,,,,,,,,,,,,,,,,,,,,,,,,,,,,,,,,,,,,,,,,,,,,,,,,,,,,,,,,,,,,,,,,,,,,,,,,,,,,,,
,,3,1.184,3,1.184,0,43,43,83,1,6,garden,onion,,90098,001,2022-04-26_11h00.34.106,SPAMnetsValid,2021.1.4,iPad,62.5,,,,,,,,,,,,,,,,,,,,,,,,,,,,,,,,,,,,,,,,,,,,,,,,,,,,,,,,,,,,,,,,,,,,,,,,,,,,,,,,,,,,,,,,,
,,3,6.03,3,6.03,0,44,44,69,1,45,onion,pretzel,,90098,001,2022-04-26_11h00.34.106,SPAMnetsValid,2021.1.4,iPad,62.5,,,,,,,,,,,,,,,,,,,,,,,,,,,,,,,,,,,,,,,,,,,,,,,,,,,,,,,,,,,,,,,,,,,,,,,,,,,,,,,,,,,,,,,,,
,,2,1.305,2,1.305,0,45,45,77,1,7,melon,tree,,90098,001,2022-04-26_11h00.34.106,SPAMnetsValid,2021.1.4,iPad,62.5,,,,,,,,,,,,,,,,,,,,,,,,,,,,,,,,,,,,,,,,,,,,,,,,,,,,,,,,,,,,,,,,,,,,,,,,,,,,,,,,,,,,,,,,,
,,2,4.239,2,4.239,0,46,46,48,1,66,melon,yogurt,,90098,001,2022-04-26_11h00.34.106,SPAMnetsValid,2021.1.4,iPad,62.5,,,,,,,,,,,,,,,,,,,,,,,,,,,,,,,,,,,,,,,,,,,,,,,,,,,,,,,,,,,,,,,,,,,,,,,,,,,,,,,,,,,,,,,,,
,,2,2.248,2,2.248,0,47,47,23,1,65,broom,garden,,90098,001,2022-04-26_11h00.34.106,SPAMnetsValid,2021.1.4,iPad,62.5,,,,,,,,,,,,,,,,,,,,,,,,,,,,,,,,,,,,,,,,,,,,,,,,,,,,,,,,,,,,,,,,,,,,,,,,,,,,,,,,,,,,,,,,,
,,5,3.665,5,3.665,0,48,48,4,1,83,broom,carrot,,90098,001,2022-04-26_11h00.34.106,SPAMnetsValid,2021.1.4,iPad,62.5,,,,,,,,,,,,,,,,,,,,,,,,,,,,,,,,,,,,,,,,,,,,,,,,,,,,,,,,,,,,,,,,,,,,,,,,,,,,,,,,,,,,,,,,,
,,9,2.891,9,2.891,0,49,49,39,1,15,onion,oven,,90098,001,2022-04-26_11h00.34.106,SPAMnetsValid,2021.1.4,iPad,62.5,,,,,,,,,,,,,,,,,,,,,,,,,,,,,,,,,,,,,,,,,,,,,,,,,,,,,,,,,,,,,,,,,,,,,,,,,,,,,,,,,,,,,,,,,
,,5,3.935,5,3.935,0,50,50,26,1,35,flower,pretzel,,90098,001,2022-04-26_11h00.34.106,SPAMnetsValid,2021.1.4,iPad,62.5,,,,,,,,,,,,,,,,,,,,,,,,,,,,,,,,,,,,,,,,,,,,,,,,,,,,,,,,,,,,,,,,,,,,,,,,,,,,,,,,,,,,,,,,,
,,3,3.737,3,3.737,0,51,51,52,1,4,chocolate,pretzel,,90098,001,2022-04-26_11h00.34.106,SPAMnetsValid,2021.1.4,iPad,62.5,,,,,,,,,,,,,,,,,,,,,,,,,,,,,,,,,,,,,,,,,,,,,,,,,,,,,,,,,,,,,,,,,,,,,,,,,,,,,,,,,,,,,,,,,
,,7,2.007,7,2.007,0,52,52,20,1,39,melon,pretzel,,90098,001,2022-04-26_11h00.34.106,SPAMnetsValid,2021.1.4,iPad,62.5,,,,,,,,,,,,,,,,,,,,,,,,,,,,,,,,,,,,,,,,,,,,,,,,,,,,,,,,,,,,,,,,,,,,,,,,,,,,,,,,,,,,,,,,,
,,2,1.469,2,1.469,0,53,53,47,1,73,broom,chocolate,,90098,001,2022-04-26_11h00.34.106,SPAMnetsValid,2021.1.4,iPad,62.5,,,,,,,,,,,,,,,,,,,,,,,,,,,,,,,,,,,,,,,,,,,,,,,,,,,,,,,,,,,,,,,,,,,,,,,,,,,,,,,,,,,,,,,,,
,,7,1.708,7,1.708,0,54,54,65,1,46,garden,yogurt,,90098,001,2022-04-26_11h00.34.106,SPAMnetsValid,2021.1.4,iPad,62.5,,,,,,,,,,,,,,,,,,,,,,,,,,,,,,,,,,,,,,,,,,,,,,,,,,,,,,,,,,,,,,,,,,,,,,,,,,,,,,,,,,,,,,,,,
,,2,1.848,2,1.848,0,55,55,73,1,50,carrot,rose,,90098,001,2022-04-26_11h00.34.106,SPAMnetsValid,2021.1.4,iPad,62.5,,,,,,,,,,,,,,,,,,,,,,,,,,,,,,,,,,,,,,,,,,,,,,,,,,,,,,,,,,,,,,,,,,,,,,,,,,,,,,,,,,,,,,,,,
,,7,1.93,7,1.93,0,56,56,12,1,67,flower,yogurt,,90098,001,2022-04-26_11h00.34.106,SPAMnetsValid,2021.1.4,iPad,62.5,,,,,,,,,,,,,,,,,,,,,,,,,,,,,,,,,,,,,,,,,,,,,,,,,,,,,,,,,,,,,,,,,,,,,,,,,,,,,,,,,,,,,,,,,
,,7,2.432,7,2.432,0,57,57,51,1,47,onion,tomato,,90098,001,2022-04-26_11h00.34.106,SPAMnetsValid,2021.1.4,iPad,62.5,,,,,,,,,,,,,,,,,,,,,,,,,,,,,,,,,,,,,,,,,,,,,,,,,,,,,,,,,,,,,,,,,,,,,,,,,,,,,,,,,,,,,,,,,
,,6,2.088,6,2.088,0,58,58,85,1,90,cactus,cake,,90098,001,2022-04-26_11h00.34.106,SPAMnetsValid,2021.1.4,iPad,62.5,,,,,,,,,,,,,,,,,,,,,,,,,,,,,,,,,,,,,,,,,,,,,,,,,,,,,,,,,,,,,,,,,,,,,,,,,,,,,,,,,,,,,,,,,
,,2,1.79,2,1.79,0,59,59,64,1,9,kitchen,refrigerator,,90098,001,2022-04-26_11h00.34.106,SPAMnetsValid,2021.1.4,iPad,62.5,,,,,,,,,,,,,,,,,,,,,,,,,,,,,,,,,,,,,,,,,,,,,,,,,,,,,,,,,,,,,,,,,,,,,,,,,,,,,,,,,,,,,,,,,
,,7,1.403,7,1.403,0,60,60,60,1,89,chocolate,rose,,90098,001,2022-04-26_11h00.34.106,SPAMnetsValid,2021.1.4,iPad,62.5,,,,,,,,,,,,,,,,,,,,,,,,,,,,,,,,,,,,,,,,,,,,,,,,,,,,,,,,,,,,,,,,,,,,,,,,,,,,,,,,,,,,,,,,,
,,3,80.84,3,80.84,0,61,61,3,1,49,flower,strawberry,,90098,001,2022-04-26_11h00.34.106,SPAMnetsValid,2021.1.4,iPad,62.5,,,,,,,,,,,,,,,,,,,,,,,,,,,,,,,,,,,,,,,,,,,,,,,,,,,,,,,,,,,,,,,,,,,,,,,,,,,,,,,,,,,,,,,,,
,,7,1.487,7,1.487,0,62,62,35,1,55,tomato,tree,,90098,001,2022-04-26_11h00.34.106,SPAMnetsValid,2021.1.4,iPad,62.5,,,,,,,,,,,,,,,,,,,,,,,,,,,,,,,,,,,,,,,,,,,,,,,,,,,,,,,,,,,,,,,,,,,,,,,,,,,,,,,,,,,,,,,,,
,,7,1.447,7,1.447,0,63,63,68,1,24,cookie,tomato,,90098,001,2022-04-26_11h00.34.106,SPAMnetsValid,2021.1.4,iPad,62.5,,,,,,,,,,,,,,,,,,,,,,,,,,,,,,,,,,,,,,,,,,,,,,,,,,,,,,,,,,,,,,,,,,,,,,,,,,,,,,,,,,,,,,,,,
,,9,1.504,9,1.504,0,64,64,10,1,191,cake,cake,CHECK,90098,001,2022-04-26_11h00.34.106,SPAMnetsValid,2021.1.4,iPad,62.5,,,,,,,,,,,,,,,,,,,,,,,,,,,,,,,,,,,,,,,,,,,,,,,,,,,,,,,,,,,,,,,,,,,,,,,,,,,,,,,,,,,,,,,,,
,,3,1.173,3,1.173,0,65,65,40,1,74,broom,pretzel,,90098,001,2022-04-26_11h00.34.106,SPAMnetsValid,2021.1.4,iPad,62.5,,,,,,,,,,,,,,,,,,,,,,,,,,,,,,,,,,,,,,,,,,,,,,,,,,,,,,,,,,,,,,,,,,,,,,,,,,,,,,,,,,,,,,,,,
,,2,1.265,2,1.265,0,66,66,56,1,78,cookie,rose,,90098,001,2022-04-26_11h00.34.106,SPAMnetsValid,2021.1.4,iPad,62.5,,,,,,,,,,,,,,,,,,,,,,,,,,,,,,,,,,,,,,,,,,,,,,,,,,,,,,,,,,,,,,,,,,,,,,,,,,,,,,,,,,,,,,,,,
,,8,1.156,8,1.156,0,67,67,93,1,63,cake,cookie,,90098,001,2022-04-26_11h00.34.106,SPAMnetsValid,2021.1.4,iPad,62.5,,,,,,,,,,,,,,,,,,,,,,,,,,,,,,,,,,,,,,,,,,,,,,,,,,,,,,,,,,,,,,,,,,,,,,,,,,,,,,,,,,,,,,,,,
,,3,1.868,3,1.868,0,68,68,36,1,12,cookie,yogurt,,90098,001,2022-04-26_11h00.34.106,SPAMnetsValid,2021.1.4,iPad,62.5,,,,,,,,,,,,,,,,,,,,,,,,,,,,,,,,,,,,,,,,,,,,,,,,,,,,,,,,,,,,,,,,,,,,,,,,,,,,,,,,,,,,,,,,,
,,3,1.264,3,1.264,0,69,69,57,1,62,kitchen,rose,,90098,001,2022-04-26_11h00.34.106,SPAMnetsValid,2021.1.4,iPad,62.5,,,,,,,,,,,,,,,,,,,,,,,,,,,,,,,,,,,,,,,,,,,,,,,,,,,,,,,,,,,,,,,,,,,,,,,,,,,,,,,,,,,,,,,,,
,,7,1.924,7,1.924,0,70,70,43,1,11,refrigerator,tree,,90098,001,2022-04-26_11h00.34.106,SPAMnetsValid,2021.1.4,iPad,62.5,,,,,,,,,,,,,,,,,,,,,,,,,,,,,,,,,,,,,,,,,,,,,,,,,,,,,,,,,,,,,,,,,,,,,,,,,,,,,,,,,,,,,,,,,
,,6,1.663,6,1.663,0,71,71,19,1,76,garden,rose,,90098,001,2022-04-26_11h00.34.106,SPAMnetsValid,2021.1.4,iPad,62.5,,,,,,,,,,,,,,,,,,,,,,,,,,,,,,,,,,,,,,,,,,,,,,,,,,,,,,,,,,,,,,,,,,,,,,,,,,,,,,,,,,,,,,,,,
,,2,1.481,2,1.481,0,72,72,71,1,38,pretzel,refrigerator,,90098,001,2022-04-26_11h00.34.106,SPAMnetsValid,2021.1.4,iPad,62.5,,,,,,,,,,,,,,,,,,,,,,,,,,,,,,,,,,,,,,,,,,,,,,,,,,,,,,,,,,,,,,,,,,,,,,,,,,,,,,,,,,,,,,,,,
,,8,2.542,8,2.542,0,73,73,17,1,27,cactus,cookie,,90098,001,2022-04-26_11h00.34.106,SPAMnetsValid,2021.1.4,iPad,62.5,,,,,,,,,,,,,,,,,,,,,,,,,,,,,,,,,,,,,,,,,,,,,,,,,,,,,,,,,,,,,,,,,,,,,,,,,,,,,,,,,,,,,,,,,
,,7,1.167,7,1.167,0,74,74,13,1,26,tomato,yogurt,,90098,001,2022-04-26_11h00.34.106,SPAMnetsValid,2021.1.4,iPad,62.5,,,,,,,,,,,,,,,,,,,,,,,,,,,,,,,,,,,,,,,,,,,,,,,,,,,,,,,,,,,,,,,,,,,,,,,,,,,,,,,,,,,,,,,,,
,,3,2.01,3,2.01,0,75,75,45,1,10,flower,onion,,90098,001,2022-04-26_11h00.34.106,SPAMnetsValid,2021.1.4,iPad,62.5,,,,,,,,,,,,,,,,,,,,,,,,,,,,,,,,,,,,,,,,,,,,,,,,,,,,,,,,,,,,,,,,,,,,,,,,,,,,,,,,,,,,,,,,,
,,7,1.586,7,1.586,0,76,76,32,1,40,broom,cake,,90098,001,2022-04-26_11h00.34.106,SPAMnetsValid,2021.1.4,iPad,62.5,,,,,,,,,,,,,,,,,,,,,,,,,,,,,,,,,,,,,,,,,,,,,,,,,,,,,,,,,,,,,,,,,,,,,,,,,,,,,,,,,,,,,,,,,
,,6,2.918,6,2.918,0,77,77,89,1,80,chocolate,tree,,90098,001,2022-04-26_11h00.34.106,SPAMnetsValid,2021.1.4,iPad,62.5,,,,,,,,,,,,,,,,,,,,,,,,,,,,,,,,,,,,,,,,,,,,,,,,,,,,,,,,,,,,,,,,,,,,,,,,,,,,,,,,,,,,,,,,,
,,5,1.85,5,1.85,0,78,78,29,1,42,garden,kitchen,,90098,001,2022-04-26_11h00.34.106,SPAMnetsValid,2021.1.4,iPad,62.5,,,,,,,,,,,,,,,,,,,,,,,,,,,,,,,,,,,,,,,,,,,,,,,,,,,,,,,,,,,,,,,,,,,,,,,,,,,,,,,,,,,,,,,,,
,,2,2.593,2,2.593,0,79,79,46,1,41,broom,cactus,,90098,001,2022-04-26_11h00.34.106,SPAMnetsValid,2021.1.4,iPad,62.5,,,,,,,,,,,,,,,,,,,,,,,,,,,,,,,,,,,,,,,,,,,,,,,,,,,,,,,,,,,,,,,,,,,,,,,,,,,,,,,,,,,,,,,,,
,,2,1.203,2,1.203,0,80,80,84,1,91,microwave,rose,,90098,001,2022-04-26_11h00.34.106,SPAMnetsValid,2021.1.4,iPad,62.5,,,,,,,,,,,,,,,,,,,,,,,,,,,,,,,,,,,,,,,,,,,,,,,,,,,,,,,,,,,,,,,,,,,,,,,,,,,,,,,,,,,,,,,,,
,,2,1.052,2,1.052,0,81,81,2,1,22,kitchen,strawberry,,90098,001,2022-04-26_11h00.34.106,SPAMnetsValid,2021.1.4,iPad,62.5,,,,,,,,,,,,,,,,,,,,,,,,,,,,,,,,,,,,,,,,,,,,,,,,,,,,,,,,,,,,,,,,,,,,,,,,,,,,,,,,,,,,,,,,,
,,2,1.56,2,1.56,0,82,82,75,1,69,carrot,refrigerator,,90098,001,2022-04-26_11h00.34.106,SPAMnetsValid,2021.1.4,iPad,62.5,,,,,,,,,,,,,,,,,,,,,,,,,,,,,,,,,,,,,,,,,,,,,,,,,,,,,,,,,,,,,,,,,,,,,,,,,,,,,,,,,,,,,,,,,
,,3,1.44,3,1.44,0,83,83,22,1,16,chocolate,flower,,90098,001,2022-04-26_11h00.34.106,SPAMnetsValid,2021.1.4,iPad,62.5,,,,,,,,,,,,,,,,,,,,,,,,,,,,,,,,,,,,,,,,,,,,,,,,,,,,,,,,,,,,,,,,,,,,,,,,,,,,,,,,,,,,,,,,,
,,7,1.868,7,1.868,0,84,84,67,1,54,chocolate,yogurt,,90098,001,2022-04-26_11h00.34.106,SPAMnetsValid,2021.1.4,iPad,62.5,,,,,,,,,,,,,,,,,,,,,,,,,,,,,,,,,,,,,,,,,,,,,,,,,,,,,,,,,,,,,,,,,,,,,,,,,,,,,,,,,,,,,,,,,
,,4,1.335,4,1.335,0,85,85,41,1,19,microwave,pretzel,,90098,001,2022-04-26_11h00.34.106,SPAMnetsValid,2021.1.4,iPad,62.5,,,,,,,,,,,,,,,,,,,,,,,,,,,,,,,,,,,,,,,,,,,,,,,,,,,,,,,,,,,,,,,,,,,,,,,,,,,,,,,,,,,,,,,,,
,,9,1.882,9,1.882,0,86,86,53,1,192,microwave,microwave,CHECK,90098,001,2022-04-26_11h00.34.106,SPAMnetsValid,2021.1.4,iPad,62.5,,,,,,,,,,,,,,,,,,,,,,,,,,,,,,,,,,,,,,,,,,,,,,,,,,,,,,,,,,,,,,,,,,,,,,,,,,,,,,,,,,,,,,,,,
,,7,1.292,7,1.292,0,87,87,54,1,28,cake,melon,,90098,001,2022-04-26_11h00.34.106,SPAMnetsValid,2021.1.4,iPad,62.5,,,,,,,,,,,,,,,,,,,,,,,,,,,,,,,,,,,,,,,,,,,,,,,,,,,,,,,,,,,,,,,,,,,,,,,,,,,,,,,,,,,,,,,,,
,,3,1.567,3,1.567,0,88,88,42,1,77,refrigerator,yogurt,,90098,001,2022-04-26_11h00.34.106,SPAMnetsValid,2021.1.4,iPad,62.5,,,,,,,,,,,,,,,,,,,,,,,,,,,,,,,,,,,,,,,,,,,,,,,,,,,,,,,,,,,,,,,,,,,,,,,,,,,,,,,,,,,,,,,,,
,,8,1.313,8,1.313,0,89,89,27,1,72,broom,onion,,90098,001,2022-04-26_11h00.34.106,SPAMnetsValid,2021.1.4,iPad,62.5,,,,,,,,,,,,,,,,,,,,,,,,,,,,,,,,,,,,,,,,,,,,,,,,,,,,,,,,,,,,,,,,,,,,,,,,,,,,,,,,,,,,,,,,,
,,5,2.407,5,2.407,0,90,90,18,1,85,cake,tree,,90098,001,2022-04-26_11h00.34.106,SPAMnetsValid,2021.1.4,iPad,62.5,,,,,,,,,,,,,,,,,,,,,,,,,,,,,,,,,,,,,,,,,,,,,,,,,,,,,,,,,,,,,,,,,,,,,,,,,,,,,,,,,,,,,,,,,
,,7,1.497,7,1.497,0,91,91,15,1,48,flower,oven,,90098,001,2022-04-26_11h00.34.106,SPAMnetsValid,2021.1.4,iPad,62.5,,,,,,,,,,,,,,,,,,,,,,,,,,,,,,,,,,,,,,,,,,,,,,,,,,,,,,,,,,,,,,,,,,,,,,,,,,,,,,,,,,,,,,,,,
,,8,3.471,8,3.471,0,92,92,59,1,8,broom,melon,,90098,001,2022-04-26_11h00.34.106,SPAMnetsValid,2021.1.4,iPad,62.5,,,,,,,,,,,,,,,,,,,,,,,,,,,,,,,,,,,,,,,,,,,,,,,,,,,,,,,,,,,,,,,,,,,,,,,,,,,,,,,,,,,,,,,,,
,,3,2.284,3,2.284,0,93,93,80,1,61,strawberry,tomato,,90098,001,2022-04-26_11h00.34.106,SPAMnetsValid,2021.1.4,iPad,62.5,,,,,,,,,,,,,,,,,,,,,,,,,,,,,,,,,,,,,,,,,,,,,,,,,,,,,,,,,,,,,,,,,,,,,,,,,,,,,,,,,,,,,,,,,
,,6,3.92,6,3.92,0,94,94,91,1,2,kitchen,onion,,90098,001,2022-04-26_11h00.34.106,SPAMnetsValid,2021.1.4,iPad,62.5,,,,,,,,,,,,,,,,,,,,,,,,,,,,,,,,,,,,,,,,,,,,,,,,,,,,,,,,,,,,,,,,,,,,,,,,,,,,,,,,,,,,,,,,,
,,3,1.784,3,1.784,0,95,95,8,1,43,chocolate,tomato,,90098,001,2022-04-26_11h00.34.106,SPAMnetsValid,2021.1.4,iPad,62.5,,,,,,,,,,,,,,,,,,,,,,,,,,,,,,,,,,,,,,,,,,,,,,,,,,,,,,,,,,,,,,,,,,,,,,,,,,,,,,,,,,,,,,,,,
,,2,1.445,2,1.445,0,96,96,0,1,53,garden,pretzel,,90098,001,2022-04-26_11h00.34.106,SPAMnetsValid,2021.1.4,iPad,62.5,,,,,,,,,,,,,,,,,,,,,,,,,,,,,,,,,,,,,,,,,,,,,,,,,,,,,,,,,,,,,,,,,,,,,,,,,,,,,,,,,,,,,,,,,
,,,,,,,,,,,,,,,90098,001,2022-04-26_11h00.34.106,SPAMnetsValid,2021.1.4,iPad,62.5,0,0,0,0,1,,,,,,,,,,,,,,,,,,,,,,,,,,,,,,,,,,,,,,,,,,,,,,,,,,,,,,,,,,,,,,,,,,,,,,,,,,,,,,,,,,,,
,,,,,,,,,,,,,,,90098,001,2022-04-26_11h00.34.106,SPAMnetsValid,2021.1.4,iPad,62.5,,,,,,0,0,0,0,1,1,0,,,,,,,,,,,,,,,,,,,,,,,,,,,,,,,,,,,,,,,,,,,,,,,,,,,,,,,,,,,,,,,,,,,,,,,,,,,,,
,,,,6,5.694,,,,,,139,carrot,strawberry,,90098,001,2022-04-26_11h00.34.106,SPAMnetsValid,2021.1.4,iPad,62.5,,,,,,,,,,,,,6,5.694,0,0,0,37,1,,,,,,,,,,,,,,,,,,,,,,,,,,,,,,,,,,,,,,,,,,,,,,,,,,,,,,,,,,,,,,,,,,,,,,
,,,,6,2.034,,,,,,169,onion,yogurt,,90098,001,2022-04-26_11h00.34.106,SPAMnetsValid,2021.1.4,iPad,62.5,,,,,,,,,,,,,6,2.034,0,1,1,24,1,,,,,,,,,,,,,,,,,,,,,,,,,,,,,,,,,,,,,,,,,,,,,,,,,,,,,,,,,,,,,,,,,,,,,,
,,,,6,1.087,,,,,,159,cookie,flower,,90098,001,2022-04-26_11h00.34.106,SPAMnetsValid,2021.1.4,iPad,62.5,,,,,,,,,,,,,6,1.087,0,2,2,21,1,,,,,,,,,,,,,,,,,,,,,,,,,,,,,,,,,,,,,,,,,,,,,,,,,,,,,,,,,,,,,,,,,,,,,,
,,,,4,1.232,,,,,,151,microwave,onion,,90098,001,2022-04-26_11h00.34.106,SPAMnetsValid,2021.1.4,iPad,62.5,,,,,,,,,,,,,4,1.232,0,3,3,6,1,,,,,,,,,,,,,,,,,,,,,,,,,,,,,,,,,,,,,,,,,,,,,,,,,,,,,,,,,,,,,,,,,,,,,,
,,,,6,8.515,,,,,,181,carrot,kitchen,,90098,001,2022-04-26_11h00.34.106,SPAMnetsValid,2021.1.4,iPad,62.5,,,,,,,,,,,,,6,8.515,0,4,4,72,1,,,,,,,,,,,,,,,,,,,,,,,,,,,,,,,,,,,,,,,,,,,,,,,,,,,,,,,,,,,,,,,,,,,,,,
,,,,3,1.018,,,,,,145,cactus,yogurt,,90098,001,2022-04-26_11h00.34.106,SPAMnetsValid,2021.1.4,iPad,62.5,,,,,,,,,,,,,3,1.018,0,5,5,15,1,,,,,,,,,,,,,,,,,,,,,,,,,,,,,,,,,,,,,,,,,,,,,,,,,,,,,,,,,,,,,,,,,,,,,,
,,,,7,1.793,,,,,,120,microwave,oven,,90098,001,2022-04-26_11h00.34.106,SPAMnetsValid,2021.1.4,iPad,62.5,,,,,,,,,,,,,7,1.793,0,6,6,14,1,,,,,,,,,,,,,,,,,,,,,,,,,,,,,,,,,,,,,,,,,,,,,,,,,,,,,,,,,,,,,,,,,,,,,,
,,,,3,1.217,,,,,,101,cactus,kitchen,,90098,001,2022-04-26_11h00.34.106,SPAMnetsValid,2021.1.4,iPad,62.5,,,,,,,,,,,,,3,1.217,0,7,7,54,1,,,,,,,,,,,,,,,,,,,,,,,,,,,,,,,,,,,,,,,,,,,,,,,,,,,,,,,,,,,,,,,,,,,,,,
,,,,4,1.396,,,,,,129,cactus,refrigerator,,90098,001,2022-04-26_11h00.34.106,SPAMnetsValid,2021.1.4,iPad,62.5,,,,,,,,,,,,,4,1.396,0,8,8,3,1,,,,,,,,,,,,,,,,,,,,,,,,,,,,,,,,,,,,,,,,,,,,,,,,,,,,,,,,,,,,,,,,,,,,,,
,,,,2,1.903,,,,,,123,cookie,tree,,90098,001,2022-04-26_11h00.34.106,SPAMnetsValid,2021.1.4,iPad,62.5,,,,,,,,,,,,,2,1.903,0,9,9,46,1,,,,,,,,,,,,,,,,,,,,,,,,,,,,,,,,,,,,,,,,,,,,,,,,,,,,,,,,,,,,,,,,,,,,,,
,,,,7,1.414,,,,,,147,cake,refrigerator,,90098,001,2022-04-26_11h00.34.106,SPAMnetsValid,2021.1.4,iPad,62.5,,,,,,,,,,,,,7,1.414,0,10,10,35,1,,,,,,,,,,,,,,,,,,,,,,,,,,,,,,,,,,,,,,,,,,,,,,,,,,,,,,,,,,,,,,,,,,,,,,
,,,,7,1.289,,,,,,115,refrigerator,tomato,,90098,001,2022-04-26_11h00.34.106,SPAMnetsValid,2021.1.4,iPad,62.5,,,,,,,,,,,,,7,1.289,0,11,11,85,1,,,,,,,,,,,,,,,,,,,,,,,,,,,,,,,,,,,,,,,,,,,,,,,,,,,,,,,,,,,,,,,,,,,,,,
,,,,3,2.142,,,,,,166,cake,yogurt,,90098,001,2022-04-26_11h00.34.106,SPAMnetsValid,2021.1.4,iPad,62.5,,,,,,,,,,,,,3,2.142,0,12,12,91,1,,,,,,,,,,,,,,,,,,,,,,,,,,,,,,,,,,,,,,,,,,,,,,,,,,,,,,,,,,,,,,,,,,,,,,
,,,,3,1.437,,,,,,130,microwave,yogurt,,90098,001,2022-04-26_11h00.34.106,SPAMnetsValid,2021.1.4,iPad,62.5,,,,,,,,,,,,,3,1.437,0,13,13,84,1,,,,,,,,,,,,,,,,,,,,,,,,,,,,,,,,,,,,,,,,,,,,,,,,,,,,,,,,,,,,,,,,,,,,,,
,,,,7,1.671,,,,,,186,kitchen,yogurt,,90098,001,2022-04-26_11h00.34.106,SPAMnetsValid,2021.1.4,iPad,62.5,,,,,,,,,,,,,7,1.671,0,14,14,48,1,,,,,,,,,,,,,,,,,,,,,,,,,,,,,,,,,,,,,,,,,,,,,,,,,,,,,,,,,,,,,,,,,,,,,,
,,,,8,1.968,,,,,,158,cookie,oven,,90098,001,2022-04-26_11h00.34.106,SPAMnetsValid,2021.1.4,iPad,62.5,,,,,,,,,,,,,8,1.968,0,15,15,27,1,,,,,,,,,,,,,,,,,,,,,,,,,,,,,,,,,,,,,,,,,,,,,,,,,,,,,,,,,,,,,,,,,,,,,,
,,,,2,1.082,,,,,,187,cactus,microwave,,90098,001,2022-04-26_11h00.34.106,SPAMnetsValid,2021.1.4,iPad,62.5,,,,,,,,,,,,,2,1.082,0,16,16,71,1,,,,,,,,,,,,,,,,,,,,,,,,,,,,,,,,,,,,,,,,,,,,,,,,,,,,,,,,,,,,,,,,,,,,,,
,,,,8,2.165,,,,,,149,broom,tomato,,90098,001,2022-04-26_11h00.34.106,SPAMnetsValid,2021.1.4,iPad,62.5,,,,,,,,,,,,,8,2.165,0,17,17,20,1,,,,,,,,,,,,,,,,,,,,,,,,,,,,,,,,,,,,,,,,,,,,,,,,,,,,,,,,,,,,,,,,,,,,,,
,,,,8,1.68,,,,,,99,garden,melon,,90098,001,2022-04-26_11h00.34.106,SPAMnetsValid,2021.1.4,iPad,62.5,,,,,,,,,,,,,8,1.68,0,18,18,17,1,,,,,,,,,,,,,,,,,,,,,,,,,,,,,,,,,,,,,,,,,,,,,,,,,,,,,,,,,,,,,,,,,,,,,,
,,,,6,3.629,,,,,,173,kitchen,tomato,,90098,001,2022-04-26_11h00.34.106,SPAMnetsValid,2021.1.4,iPad,62.5,,,,,,,,,,,,,6,3.629,0,19,19,1,1,,,,,,,,,,,,,,,,,,,,,,,,,,,,,,,,,,,,,,,,,,,,,,,,,,,,,,,,,,,,,,,,,,,,,,
,,,,7,6.321,,,,,,170,cookie,microwave,,90098,001,2022-04-26_11h00.34.106,SPAMnetsValid,2021.1.4,iPad,62.5,,,,,,,,,,,,,7,6.321,0,20,20,92,1,,,,,,,,,,,,,,,,,,,,,,,,,,,,,,,,,,,,,,,,,,,,,,,,,,,,,,,,,,,,,,,,,,,,,,
,,,,3,1.37,,,,,,128,melon,microwave,,90098,001,2022-04-26_11h00.34.106,SPAMnetsValid,2021.1.4,iPad,62.5,,,,,,,,,,,,,3,1.37,0,21,21,74,1,,,,,,,,,,,,,,,,,,,,,,,,,,,,,,,,,,,,,,,,,,,,,,,,,,,,,,,,,,,,,,,,,,,,,,
,,,,8,2.555,,,,,,124,oven,refrigerator,,90098,001,2022-04-26_11h00.34.106,SPAMnetsValid,2021.1.4,iPad,62.5,,,,,,,,,,,,,8,2.555,0,22,22,69,1,,,,,,,,,,,,,,,,,,,,,,,,,,,,,,,,,,,,,,,,,,,,,,,,,,,,,,,,,,,,,,,,,,,,,,
,,,,3,1.211,,,,,,109,broom,strawberry,,90098,001,2022-04-26_11h00.34.106,SPAMnetsValid,2021.1.4,iPad,62.5,,,,,,,,,,,,,3,1.211,0,23,23,4,1,,,,,,,,,,,,,,,,,,,,,,,,,,,,,,,,,,,,,,,,,,,,,,,,,,,,,,,,,,,,,,,,,,,,,,
,,,,3,2.726,,,,,,157,refrigerator,rose,,90098,001,2022-04-26_11h00.34.106,SPAMnetsValid,2021.1.4,iPad,62.5,,,,,,,,,,,,,3,2.726,0,24,24,64,1,,,,,,,,,,,,,,,,,,,,,,,,,,,,,,,,,,,,,,,,,,,,,,,,,,,,,,,,,,,,,,,,,,,,,,
,,,,8,1.41,,,,,,141,melon,tomato,,90098,001,2022-04-26_11h00.34.106,SPAMnetsValid,2021.1.4,iPad,62.5,,,,,,,,,,,,,8,1.41,0,25,25,70,1,,,,,,,,,,,,,,,,,,,,,,,,,,,,,,,,,,,,,,,,,,,,,,,,,,,,,,,,,,,,,,,,,,,,,,
,,,,3,1.903,,,,,,164,cookie,garden,,90098,001,2022-04-26_11h00.34.106,SPAMnetsValid,2021.1.4,iPad,62.5,,,,,,,,,,,,,3,1.903,0,26,26,59,1,,,,,,,,,,,,,,,,,,,,,,,,,,,,,,,,,,,,,,,,,,,,,,,,,,,,,,,,,,,,,,,,,,,,,,
,,,,3,1.935,,,,,,137,microwave,tree,,90098,001,2022-04-26_11h00.34.106,SPAMnetsValid,2021.1.4,iPad,62.5,,,,,,,,,,,,,3,1.935,0,27,27,63,1,,,,,,,,,,,,,,,,,,,,,,,,,,,,,,,,,,,,,,,,,,,,,,,,,,,,,,,,,,,,,,,,,,,,,,
,,,,8,1.999,,,,,,168,cactus,flower,,90098,001,2022-04-26_11h00.34.106,SPAMnetsValid,2021.1.4,iPad,62.5,,,,,,,,,,,,,8,1.999,0,28,28,51,1,,,,,,,,,,,,,,,,,,,,,,,,,,,,,,,,,,,,,,,,,,,,,,,,,,,,,,,,,,,,,,,,,,,,,,
,,,,8,1.608,,,,,,163,melon,refrigerator,,90098,001,2022-04-26_11h00.34.106,SPAMnetsValid,2021.1.4,iPad,62.5,,,,,,,,,,,,,8,1.608,0,29,29,29,1,,,,,,,,,,,,,,,,,,,,,,,,,,,,,,,,,,,,,,,,,,,,,,,,,,,,,,,,,,,,,,,,,,,,,,
,,,,8,1.071,,,,,,188,flower,tree,,90098,001,2022-04-26_11h00.34.106,SPAMnetsValid,2021.1.4,iPad,62.5,,,,,,,,,,,,,8,1.071,0,30,30,7,1,,,,,,,,,,,,,,,,,,,,,,,,,,,,,,,,,,,,,,,,,,,,,,,,,,,,,,,,,,,,,,,,,,,,,,
,,,,6,4.154,,,,,,103,pretzel,tomato,,90098,001,2022-04-26_11h00.34.106,SPAMnetsValid,2021.1.4,iPad,62.5,,,,,,,,,,,,,6,4.154,0,31,31,79,1,,,,,,,,,,,,,,,,,,,,,,,,,,,,,,,,,,,,,,,,,,,,,,,,,,,,,,,,,,,,,,,,,,,,,,
,,,,3,2.891,,,,,,133,cake,flower,,90098,001,2022-04-26_11h00.34.106,SPAMnetsValid,2021.1.4,iPad,62.5,,,,,,,,,,,,,3,2.891,0,32,32,94,1,,,,,,,,,,,,,,,,,,,,,,,,,,,,,,,,,,,,,,,,,,,,,,,,,,,,,,,,,,,,,,,,,,,,,,
,,,,9,1.826,,,,,,194,cactus,cactus,CHECK,90098,001,2022-04-26_11h00.34.106,SPAMnetsValid,2021.1.4,iPad,62.5,,,,,,,,,,,,,9,1.826,0,33,33,25,1,,,,,,,,,,,,,,,,,,,,,,,,,,,,,,,,,,,,,,,,,,,,,,,,,,,,,,,,,,,,,,,,,,,,,,
,,,,5,3.415,,,,,,134,carrot,flower,,90098,001,2022-04-26_11h00.34.106,SPAMnetsValid,2021.1.4,iPad,62.5,,,,,,,,,,,,,5,3.415,0,34,34,93,1,,,,,,,,,,,,,,,,,,,,,,,,,,,,,,,,,,,,,,,,,,,,,,,,,,,,,,,,,,,,,,,,,,,,,,
,,,,3,4.401,,,,,,104,garden,microwave,,90098,001,2022-04-26_11h00.34.106,SPAMnetsValid,2021.1.4,iPad,62.5,,,,,,,,,,,,,3,4.401,0,35,35,81,1,,,,,,,,,,,,,,,,,,,,,,,,,,,,,,,,,,,,,,,,,,,,,,,,,,,,,,,,,,,,,,,,,,,,,,
,,,,3,7.639,,,,,,155,carrot,cookie,,90098,001,2022-04-26_11h00.34.106,SPAMnetsValid,2021.1.4,iPad,62.5,,,,,,,,,,,,,3,7.639,0,36,36,38,1,,,,,,,,,,,,,,,,,,,,,,,,,,,,,,,,,,,,,,,,,,,,,,,,,,,,,,,,,,,,,,,,,,,,,,
,,,,3,1.47,,,,,,190,microwave,strawberry,,90098,001,2022-04-26_11h00.34.106,SPAMnetsValid,2021.1.4,iPad,62.5,,,,,,,,,,,,,3,1.47,0,37,37,90,1,,,,,,,,,,,,,,,,,,,,,,,,,,,,,,,,,,,,,,,,,,,,,,,,,,,,,,,,,,,,,,,,,,,,,,
,,,,8,1.483,,,,,,100,garden,tomato,,90098,001,2022-04-26_11h00.34.106,SPAMnetsValid,2021.1.4,iPad,62.5,,,,,,,,,,,,,8,1.483,0,38,38,83,1,,,,,,,,,,,,,,,,,,,,,,,,,,,,,,,,,,,,,,,,,,,,,,,,,,,,,,,,,,,,,,,,,,,,,,
,,,,8,1.208,,,,,,172,kitchen,melon,,90098,001,2022-04-26_11h00.34.106,SPAMnetsValid,2021.1.4,iPad,62.5,,,,,,,,,,,,,8,1.208,0,39,39,77,1,,,,,,,,,,,,,,,,,,,,,,,,,,,,,,,,,,,,,,,,,,,,,,,,,,,,,,,,,,,,,,,,,,,,,,
,,,,8,0.886,,,,,,161,kitchen,pretzel,,90098,001,2022-04-26_11h00.34.106,SPAMnetsValid,2021.1.4,iPad,62.5,,,,,,,,,,,,,8,0.886,0,40,40,36,1,,,,,,,,,,,,,,,,,,,,,,,,,,,,,,,,,,,,,,,,,,,,,,,,,,,,,,,,,,,,,,,,,,,,,,
,,,,2,1.794,,,,,,127,cactus,chocolate,,90098,001,2022-04-26_11h00.34.106,SPAMnetsValid,2021.1.4,iPad,62.5,,,,,,,,,,,,,2,1.794,0,41,41,57,1,,,,,,,,,,,,,,,,,,,,,,,,,,,,,,,,,,,,,,,,,,,,,,,,,,,,,,,,,,,,,,,,,,,,,,
,,,,8,3.508,,,,,,119,strawberry,tree,,90098,001,2022-04-26_11h00.34.106,SPAMnetsValid,2021.1.4,iPad,62.5,,,,,,,,,,,,,8,3.508,0,42,42,18,1,,,,,,,,,,,,,,,,,,,,,,,,,,,,,,,,,,,,,,,,,,,,,,,,,,,,,,,,,,,,,,,,,,,,,,
,,,,5,3.53,,,,,,171,cake,tomato,,90098,001,2022-04-26_11h00.34.106,SPAMnetsValid,2021.1.4,iPad,62.5,,,,,,,,,,,,,5,3.53,0,43,43,88,1,,,,,,,,,,,,,,,,,,,,,,,,,,,,,,,,,,,,,,,,,,,,,,,,,,,,,,,,,,,,,,,,,,,,,,
,,,,2,2.695,,,,,,146,pretzel,tree,,90098,001,2022-04-26_11h00.34.106,SPAMnetsValid,2021.1.4,iPad,62.5,,,,,,,,,,,,,2,2.695,0,44,44,80,1,,,,,,,,,,,,,,,,,,,,,,,,,,,,,,,,,,,,,,,,,,,,,,,,,,,,,,,,,,,,,,,,,,,,,,
,,,,6,2.842,,,,,,185,cactus,rose,,90098,001,2022-04-26_11h00.34.106,SPAMnetsValid,2021.1.4,iPad,62.5,,,,,,,,,,,,,6,2.842,0,45,45,43,1,,,,,,,,,,,,,,,,,,,,,,,,,,,,,,,,,,,,,,,,,,,,,,,,,,,,,,,,,,,,,,,,,,,,,,
,,,,4,3.519,,,,,,98,pretzel,strawberry,,90098,001,2022-04-26_11h00.34.106,SPAMnetsValid,2021.1.4,iPad,62.5,,,,,,,,,,,,,4,3.519,0,46,46,82,1,,,,,,,,,,,,,,,,,,,,,,,,,,,,,,,,,,,,,,,,,,,,,,,,,,,,,,,,,,,,,,,,,,,,,,
,,,,5,2.29,,,,,,189,onion,tree,,90098,001,2022-04-26_11h00.34.106,SPAMnetsValid,2021.1.4,iPad,62.5,,,,,,,,,,,,,5,2.29,0,47,47,62,1,,,,,,,,,,,,,,,,,,,,,,,,,,,,,,,,,,,,,,,,,,,,,,,,,,,,,,,,,,,,,,,,,,,,,,
,,,,6,3.656,,,,,,179,broom,oven,,90098,001,2022-04-26_11h00.34.106,SPAMnetsValid,2021.1.4,iPad,62.5,,,,,,,,,,,,,6,3.656,0,48,48,45,1,,,,,,,,,,,,,,,,,,,,,,,,,,,,,,,,,,,,,,,,,,,,,,,,,,,,,,,,,,,,,,,,,,,,,,
,,,,3,2.321,,,,,,114,cookie,strawberry,,90098,001,2022-04-26_11h00.34.106,SPAMnetsValid,2021.1.4,iPad,62.5,,,,,,,,,,,,,3,2.321,0,49,49,87,1,,,,,,,,,,,,,,,,,,,,,,,,,,,,,,,,,,,,,,,,,,,,,,,,,,,,,,,,,,,,,,,,,,,,,,
,,,,8,11.391,,,,,,97,chocolate,kitchen,,90098,001,2022-04-26_11h00.34.106,SPAMnetsValid,2021.1.4,iPad,62.5,,,,,,,,,,,,,8,11.391,0,50,50,8,1,,,,,,,,,,,,,,,,,,,,,,,,,,,,,,,,,,,,,,,,,,,,,,,,,,,,,,,,,,,,,,,,,,,,,,
,,,,7,1.807,,,,,,121,broom,microwave,,90098,001,2022-04-26_11h00.34.106,SPAMnetsValid,2021.1.4,iPad,62.5,,,,,,,,,,,,,7,1.807,0,51,51,95,1,,,,,,,,,,,,,,,,,,,,,,,,,,,,,,,,,,,,,,,,,,,,,,,,,,,,,,,,,,,,,,,,,,,,,,
,,,,7,1.805,,,,,,135,carrot,oven,,90098,001,2022-04-26_11h00.34.106,SPAMnetsValid,2021.1.4,iPad,62.5,,,,,,,,,,,,,7,1.805,0,52,52,73,1,,,,,,,,,,,,,,,,,,,,,,,,,,,,,,,,,,,,,,,,,,,,,,,,,,,,,,,,,,,,,,,,,,,,,,
,,,,3,1.552,,,,,,180,tree,yogurt,,90098,001,2022-04-26_11h00.34.106,SPAMnetsValid,2021.1.4,iPad,62.5,,,,,,,,,,,,,3,1.552,0,53,53,68,1,,,,,,,,,,,,,,,,,,,,,,,,,,,,,,,,,,,,,,,,,,,,,,,,,,,,,,,,,,,,,,,,,,,,,,
,,,,9,1.591,,,,,,177,chocolate,strawberry,,90098,001,2022-04-26_11h00.34.106,SPAMnetsValid,2021.1.4,iPad,62.5,,,,,,,,,,,,,9,1.591,0,54,54,53,1,,,,,,,,,,,,,,,,,,,,,,,,,,,,,,,,,,,,,,,,,,,,,,,,,,,,,,,,,,,,,,,,,,,,,,
,,,,7,3.687,,,,,,167,carrot,garden,,90098,001,2022-04-26_11h00.34.106,SPAMnetsValid,2021.1.4,iPad,62.5,,,,,,,,,,,,,7,3.687,0,55,55,47,1,,,,,,,,,,,,,,,,,,,,,,,,,,,,,,,,,,,,,,,,,,,,,,,,,,,,,,,,,,,,,,,,,,,,,,
,,,,3,1.822,,,,,,107,rose,tomato,,90098,001,2022-04-26_11h00.34.106,SPAMnetsValid,2021.1.4,iPad,62.5,,,,,,,,,,,,,3,1.822,0,56,56,26,1,,,,,,,,,,,,,,,,,,,,,,,,,,,,,,,,,,,,,,,,,,,,,,,,,,,,,,,,,,,,,,,,,,,,,,
,,,,2,1.356,,,,,,156,melon,rose,,90098,001,2022-04-26_11h00.34.106,SPAMnetsValid,2021.1.4,iPad,62.5,,,,,,,,,,,,,2,1.356,0,57,57,31,1,,,,,,,,,,,,,,,,,,,,,,,,,,,,,,,,,,,,,,,,,,,,,,,,,,,,,,,,,,,,,,,,,,,,,,
,,,,3,1.191,,,,,,178,cactus,carrot,,90098,001,2022-04-26_11h00.34.106,SPAMnetsValid,2021.1.4,iPad,62.5,,,,,,,,,,,,,3,1.191,0,58,58,75,1,,,,,,,,,,,,,,,,,,,,,,,,,,,,,,,,,,,,,,,,,,,,,,,,,,,,,,,,,,,,,,,,,,,,,,
,,,,4,1.66,,,,,,148,flower,melon,,90098,001,2022-04-26_11h00.34.106,SPAMnetsValid,2021.1.4,iPad,62.5,,,,,,,,,,,,,4,1.66,0,59,59,23,1,,,,,,,,,,,,,,,,,,,,,,,,,,,,,,,,,,,,,,,,,,,,,,,,,,,,,,,,,,,,,,,,,,,,,,
,,,,5,5.039,,,,,,126,kitchen,tree,,90098,001,2022-04-26_11h00.34.106,SPAMnetsValid,2021.1.4,iPad,62.5,,,,,,,,,,,,,5,5.039,0,60,60,50,1,,,,,,,,,,,,,,,,,,,,,,,,,,,,,,,,,,,,,,,,,,,,,,,,,,,,,,,,,,,,,,,,,,,,,,
,,,,6,1.861,,,,,,111,carrot,microwave,,90098,001,2022-04-26_11h00.34.106,SPAMnetsValid,2021.1.4,iPad,62.5,,,,,,,,,,,,,6,1.861,0,61,61,16,1,,,,,,,,,,,,,,,,,,,,,,,,,,,,,,,,,,,,,,,,,,,,,,,,,,,,,,,,,,,,,,,,,,,,,,
,,,,3,4.266,,,,,,176,cactus,tomato,,90098,001,2022-04-26_11h00.34.106,SPAMnetsValid,2021.1.4,iPad,62.5,,,,,,,,,,,,,3,4.266,0,62,62,9,1,,,,,,,,,,,,,,,,,,,,,,,,,,,,,,,,,,,,,,,,,,,,,,,,,,,,,,,,,,,,,,,,,,,,,,
,,,,7,1.428,,,,,,132,broom,tree,,90098,001,2022-04-26_11h00.34.106,SPAMnetsValid,2021.1.4,iPad,62.5,,,,,,,,,,,,,7,1.428,0,63,63,78,1,,,,,,,,,,,,,,,,,,,,,,,,,,,,,,,,,,,,,,,,,,,,,,,,,,,,,,,,,,,,,,,,,,,,,,
,,,,7,19.709,,,,,,125,carrot,tree,,90098,001,2022-04-26_11h00.34.106,SPAMnetsValid,2021.1.4,iPad,62.5,,,,,,,,,,,,,7,19.709,0,64,64,30,1,,,,,,,,,,,,,,,,,,,,,,,,,,,,,,,,,,,,,,,,,,,,,,,,,,,,,,,,,,,,,,,,,,,,,,
,,,,4,1.478,,,,,,165,onion,rose,,90098,001,2022-04-26_11h00.34.106,SPAMnetsValid,2021.1.4,iPad,62.5,,,,,,,,,,,,,4,1.478,0,65,65,40,1,,,,,,,,,,,,,,,,,,,,,,,,,,,,,,,,,,,,,,,,,,,,,,,,,,,,,,,,,,,,,,,,,,,,,,
,,,,7,1.333,,,,,,110,chocolate,cookie,,90098,001,2022-04-26_11h00.34.106,SPAMnetsValid,2021.1.4,iPad,62.5,,,,,,,,,,,,,7,1.333,0,66,66,52,1,,,,,,,,,,,,,,,,,,,,,,,,,,,,,,,,,,,,,,,,,,,,,,,,,,,,,,,,,,,,,,,,,,,,,,
,,,,8,1.24,,,,,,140,cookie,refrigerator,,90098,001,2022-04-26_11h00.34.106,SPAMnetsValid,2021.1.4,iPad,62.5,,,,,,,,,,,,,8,1.24,0,67,67,89,1,,,,,,,,,,,,,,,,,,,,,,,,,,,,,,,,,,,,,,,,,,,,,,,,,,,,,,,,,,,,,,,,,,,,,,
,,,,2,1.299,,,,,,143,pretzel,rose,,90098,001,2022-04-26_11h00.34.106,SPAMnetsValid,2021.1.4,iPad,62.5,,,,,,,,,,,,,2,1.299,0,68,68,55,1,,,,,,,,,,,,,,,,,,,,,,,,,,,,,,,,,,,,,,,,,,,,,,,,,,,,,,,,,,,,,,,,,,,,,,
,,,,7,1.757,,,,,,175,melon,onion,,90098,001,2022-04-26_11h00.34.106,SPAMnetsValid,2021.1.4,iPad,62.5,,,,,,,,,,,,,7,1.757,0,69,69,41,1,,,,,,,,,,,,,,,,,,,,,,,,,,,,,,,,,,,,,,,,,,,,,,,,,,,,,,,,,,,,,,,,,,,,,,
,,,,9,1.292,,,,,,150,microwave,refrigerator,,90098,001,2022-04-26_11h00.34.106,SPAMnetsValid,2021.1.4,iPad,62.5,,,,,,,,,,,,,9,1.292,0,70,70,66,1,,,,,,,,,,,,,,,,,,,,,,,,,,,,,,,,,,,,,,,,,,,,,,,,,,,,,,,,,,,,,,,,,,,,,,
,,,,8,1.251,,,,,,136,chocolate,microwave,,90098,001,2022-04-26_11h00.34.106,SPAMnetsValid,2021.1.4,iPad,62.5,,,,,,,,,,,,,8,1.251,0,71,71,96,1,,,,,,,,,,,,,,,,,,,,,,,,,,,,,,,,,,,,,,,,,,,,,,,,,,,,,,,,,,,,,,,,,,,,,,
,,,,9,1.62,,,,,,193,melon,melon,CHECK,90098,001,2022-04-26_11h00.34.106,SPAMnetsValid,2021.1.4,iPad,62.5,,,,,,,,,,,,,9,1.62,0,72,72,86,1,,,,,,,,,,,,,,,,,,,,,,,,,,,,,,,,,,,,,,,,,,,,,,,,,,,,,,,,,,,,,,,,,,,,,,
,,,,3,2.005,,,,,,182,flower,refrigerator,,90098,001,2022-04-26_11h00.34.106,SPAMnetsValid,2021.1.4,iPad,62.5,,,,,,,,,,,,,3,2.005,0,73,73,32,1,,,,,,,,,,,,,,,,,,,,,,,,,,,,,,,,,,,,,,,,,,,,,,,,,,,,,,,,,,,,,,,,,,,,,,
,,,,3,1.432,,,,,,153,carrot,pretzel,,90098,001,2022-04-26_11h00.34.106,SPAMnetsValid,2021.1.4,iPad,62.5,,,,,,,,,,,,,3,1.432,0,74,74,34,1,,,,,,,,,,,,,,,,,,,,,,,,,,,,,,,,,,,,,,,,,,,,,,,,,,,,,,,,,,,,,,,,,,,,,,
,,,,3,1.25,,,,,,96,oven,strawberry,,90098,001,2022-04-26_11h00.34.106,SPAMnetsValid,2021.1.4,iPad,62.5,,,,,,,,,,,,,3,1.25,0,75,75,67,1,,,,,,,,,,,,,,,,,,,,,,,,,,,,,,,,,,,,,,,,,,,,,,,,,,,,,,,,,,,,,,,,,,,,,,
,,,,8,3.039,,,,,,117,melon,strawberry,,90098,001,2022-04-26_11h00.34.106,SPAMnetsValid,2021.1.4,iPad,62.5,,,,,,,,,,,,,8,3.039,0,76,76,11,1,,,,,,,,,,,,,,,,,,,,,,,,,,,,,,,,,,,,,,,,,,,,,,,,,,,,,,,,,,,,,,,,,,,,,,
,,,,7,1.789,,,,,,131,cactus,garden,,90098,001,2022-04-26_11h00.34.106,SPAMnetsValid,2021.1.4,iPad,62.5,,,,,,,,,,,,,7,1.789,0,77,77,33,1,,,,,,,,,,,,,,,,,,,,,,,,,,,,,,,,,,,,,,,,,,,,,,,,,,,,,,,,,,,,,,,,,,,,,,
,,,,8,1.211,,,,,,116,cake,chocolate,,90098,001,2022-04-26_11h00.34.106,SPAMnetsValid,2021.1.4,iPad,62.5,,,,,,,,,,,,,8,1.211,0,78,78,44,1,,,,,,,,,,,,,,,,,,,,,,,,,,,,,,,,,,,,,,,,,,,,,,,,,,,,,,,,,,,,,,,,,,,,,,
,,,,9,1.097,,,,,,112,cake,carrot,,90098,001,2022-04-26_11h00.34.106,SPAMnetsValid,2021.1.4,iPad,62.5,,,,,,,,,,,,,9,1.097,0,79,79,39,1,,,,,,,,,,,,,,,,,,,,,,,,,,,,,,,,,,,,,,,,,,,,,,,,,,,,,,,,,,,,,,,,,,,,,,
,,,,9,1.4,,,,,,184,oven,pretzel,,90098,001,2022-04-26_11h00.34.106,SPAMnetsValid,2021.1.4,iPad,62.5,,,,,,,,,,,,,9,1.4,0,80,80,42,1,,,,,,,,,,,,,,,,,,,,,,,,,,,,,,,,,,,,,,,,,,,,,,,,,,,,,,,,,,,,,,,,,,,,,,
,,,,8,1.32,,,,,,162,microwave,tomato,,90098,001,2022-04-26_11h00.34.106,SPAMnetsValid,2021.1.4,iPad,62.5,,,,,,,,,,,,,8,1.32,0,81,81,12,1,,,,,,,,,,,,,,,,,,,,,,,,,,,,,,,,,,,,,,,,,,,,,,,,,,,,,,,,,,,,,,,,,,,,,,
,,,,9,2.183,,,,,,113,refrigerator,strawberry,,90098,001,2022-04-26_11h00.34.106,SPAMnetsValid,2021.1.4,iPad,62.5,,,,,,,,,,,,,9,2.183,0,82,82,56,1,,,,,,,,,,,,,,,,,,,,,,,,,,,,,,,,,,,,,,,,,,,,,,,,,,,,,,,,,,,,,,,,,,,,,,
,,,,8,1.428,,,,,,142,garden,tree,,90098,001,2022-04-26_11h00.34.106,SPAMnetsValid,2021.1.4,iPad,62.5,,,,,,,,,,,,,8,1.428,0,83,83,22,1,,,,,,,,,,,,,,,,,,,,,,,,,,,,,,,,,,,,,,,,,,,,,,,,,,,,,,,,,,,,,,,,,,,,,,
,,,,4,4.39,,,,,,183,cake,rose,,90098,001,2022-04-26_11h00.34.106,SPAMnetsValid,2021.1.4,iPad,62.5,,,,,,,,,,,,,4,4.39,0,84,84,19,1,,,,,,,,,,,,,,,,,,,,,,,,,,,,,,,,,,,,,,,,,,,,,,,,,,,,,,,,,,,,,,,,,,,,,,
,,,,8,1.594,,,,,,106,cake,strawberry,,90098,001,2022-04-26_11h00.34.106,SPAMnetsValid,2021.1.4,iPad,62.5,,,,,,,,,,,,,8,1.594,0,85,85,0,1,,,,,,,,,,,,,,,,,,,,,,,,,,,,,,,,,,,,,,,,,,,,,,,,,,,,,,,,,,,,,,,,,,,,,,
,,,,2,1.455,,,,,,105,cactus,oven,,90098,001,2022-04-26_11h00.34.106,SPAMnetsValid,2021.1.4,iPad,62.5,,,,,,,,,,,,,2,1.455,0,86,86,13,1,,,,,,,,,,,,,,,,,,,,,,,,,,,,,,,,,,,,,,,,,,,,,,,,,,,,,,,,,,,,,,,,,,,,,,
,,,,7,14.655,,,,,,122,flower,garden,,90098,001,2022-04-26_11h00.34.106,SPAMnetsValid,2021.1.4,iPad,62.5,,,,,,,,,,,,,7,14.655,0,87,87,60,1,,,,,,,,,,,,,,,,,,,,,,,,,,,,,,,,,,,,,,,,,,,,,,,,,,,,,,,,,,,,,,,,,,,,,,
,,,,7,0.657,,,,,,174,cake,pretzel,,90098,001,2022-04-26_11h00.34.106,SPAMnetsValid,2021.1.4,iPad,62.5,,,,,,,,,,,,,7,0.657,0,88,88,2,1,,,,,,,,,,,,,,,,,,,,,,,,,,,,,,,,,,,,,,,,,,,,,,,,,,,,,,,,,,,,,,,,,,,,,,
,,,,8,1.759,,,,,,138,flower,rose,,90098,001,2022-04-26_11h00.34.106,SPAMnetsValid,2021.1.4,iPad,62.5,,,,,,,,,,,,,8,1.759,0,89,89,61,1,,,,,,,,,,,,,,,,,,,,,,,,,,,,,,,,,,,,,,,,,,,,,,,,,,,,,,,,,,,,,,,,,,,,,,
,,,,3,2.118,,,,,,144,cake,garden,,90098,001,2022-04-26_11h00.34.106,SPAMnetsValid,2021.1.4,iPad,62.5,,,,,,,,,,,,,3,2.118,0,90,90,58,1,,,,,,,,,,,,,,,,,,,,,,,,,,,,,,,,,,,,,,,,,,,,,,,,,,,,,,,,,,,,,,,,,,,,,,
,,,,8,1.68,,,,,,118,chocolate,oven,,90098,001,2022-04-26_11h00.34.106,SPAMnetsValid,2021.1.4,iPad,62.5,,,,,,,,,,,,,8,1.68,0,91,91,10,1,,,,,,,,,,,,,,,,,,,,,,,,,,,,,,,,,,,,,,,,,,,,,,,,,,,,,,,,,,,,,,,,,,,,,,
,,,,7,1.532,,,,,,102,chocolate,refrigerator,,90098,001,2022-04-26_11h00.34.106,SPAMnetsValid,2021.1.4,iPad,62.5,,,,,,,,,,,,,7,1.532,0,92,92,76,1,,,,,,,,,,,,,,,,,,,,,,,,,,,,,,,,,,,,,,,,,,,,,,,,,,,,,,,,,,,,,,,,,,,,,,
,,,,9,1.689,,,,,,154,strawberry,yogurt,,90098,001,2022-04-26_11h00.34.106,SPAMnetsValid,2021.1.4,iPad,62.5,,,,,,,,,,,,,9,1.689,0,93,93,28,1,,,,,,,,,,,,,,,,,,,,,,,,,,,,,,,,,,,,,,,,,,,,,,,,,,,,,,,,,,,,,,,,,,,,,,
,,,,3,3.013,,,,,,108,carrot,chocolate,,90098,001,2022-04-26_11h00.34.106,SPAMnetsValid,2021.1.4,iPad,62.5,,,,,,,,,,,,,3,3.013,0,94,94,5,1,,,,,,,,,,,,,,,,,,,,,,,,,,,,,,,,,,,,,,,,,,,,,,,,,,,,,,,,,,,,,,,,,,,,,,
,,,,7,1.805,,,,,,160,cookie,kitchen,,90098,001,2022-04-26_11h00.34.106,SPAMnetsValid,2021.1.4,iPad,62.5,,,,,,,,,,,,,7,1.805,0,95,95,65,1,,,,,,,,,,,,,,,,,,,,,,,,,,,,,,,,,,,,,,,,,,,,,,,,,,,,,,,,,,,,,,,,,,,,,,
,,,,3,1.369,,,,,,152,cactus,strawberry,,90098,001,2022-04-26_11h00.34.106,SPAMnetsValid,2021.1.4,iPad,62.5,,,,,,,,,,,,,3,1.369,0,96,96,49,1,,,,,,,,,,,,,,,,,,,,,,,,,,,,,,,,,,,,,,,,,,,,,,,,,,,,,,,,,,,,,,,,,,,,,,
,,,,,,,,,,,,,,,90098,001,2022-04-26_11h00.34.106,SPAMnetsValid,2021.1.4,iPad,62.5,,,,,,,,,,,,,,,,,,,,0,0,0,0,1,,,,,,,,,,,,,,,,,,,,,,,,,,,,,,,,,,,,,,,,,,,,,,,,,,,,,,,,,,,,,,,,,
,,,,,,,,,,,,,,,90098,001,2022-04-26_11h00.34.106,SPAMnetsValid,2021.1.4,iPad,62.5,,,,,,0,1,1,1,1,0,1,,,,,,,,,,,,,,,,,,,,,,,,,,,,,,,,,,,,,,,,,,,,,,,,,,,,,,,,,,,,,,,,,,,,,,,,,,,,,
,,,,,,,,,,,,,,,90098,001,2022-04-26_11h00.34.106,SPAMnetsValid,2021.1.4,iPad,62.5,,,,,,,,,,,,,,,,,,,,,,,,,2,6.083,0,0,0,0,1,rancor,forbearance,ridicule,malice,bravery,3,,,,,,,,,,,,,,,,,,,,,,,,,,,,,,,,,,,,,,,,,,,,,,,,,,,,
,,,,,,,,,,,,,,,90098,001,2022-04-26_11h00.34.106,SPAMnetsValid,2021.1.4,iPad,62.5,,,,,,,,,,,,,,,,,,,,,,,,,4,3.807,0,1,1,1,1,raucous,empty,quiet,smooth,harsh,4,,,,,,,,,,,,,,,,,,,,,,,,,,,,,,,,,,,,,,,,,,,,,,,,,,,,
,,,,,,,,,,,,,,,90098,001,2022-04-26_11h00.34.106,SPAMnetsValid,2021.1.4,iPad,62.5,,,,,,,,,,,,,,,,,,,,,,,,,4,5.162,0,2,2,2,1,gargoyle,oil,medicine,carved waterspout,ugly building,3,,,,,,,,,,,,,,,,,,,,,,,,,,,,,,,,,,,,,,,,,,,,,,,,,,,,
,,,,,,,,,,,,,,,90098,001,2022-04-26_11h00.34.106,SPAMnetsValid,2021.1.4,iPad,62.5,,,,,,,,,,,,,,,,,,,,,,,,,1,5.956,0,3,3,3,1,recrudesce,purify,renew activity,lack refinement,crush,2,,,,,,,,,,,,,,,,,,,,,,,,,,,,,,,,,,,,,,,,,,,,,,,,,,,,
,,,,,,,,,,,,,,,90098,001,2022-04-26_11h00.34.106,SPAMnetsValid,2021.1.4,iPad,62.5,,,,,,,,,,,,,,,,,,,,,,,,,1,9.631,0,4,4,4,1,specious,"plausible, but not genuine",noteworthy,class or variety,roomy,1,,,,,,,,,,,,,,,,,,,,,,,,,,,,,,,,,,,,,,,,,,,,,,,,,,,,
,,,,,,,,,,,,,,,90098,001,2022-04-26_11h00.34.106,SPAMnetsValid,2021.1.4,iPad,62.5,,,,,,,,,,,,,,,,,,,,,,,,,4,6.594,0,5,5,5,1,bauble,bubble,showy plaything,idle talk,confusion,2,,,,,,,,,,,,,,,,,,,,,,,,,,,,,,,,,,,,,,,,,,,,,,,,,,,,
,,,,,,,,,,,,,,,90098,001,2022-04-26_11h00.34.106,SPAMnetsValid,2021.1.4,iPad,62.5,,,,,,,,,,,,,,,,,,,,,,,,,2,6.142,0,6,6,6,1,prolific,scarce,producing abundantly,reckless,speaking profanely,2,,,,,,,,,,,,,,,,,,,,,,,,,,,,,,,,,,,,,,,,,,,,,,,,,,,,
,,,,,,,,,,,,,,,90098,001,2022-04-26_11h00.34.106,SPAMnetsValid,2021.1.4,iPad,62.5,,,,,,,,,,,,,,,,,,,,,,,,,2,2.652,0,7,7,7,1,opulent,party,wealthy,happy frame of mind,semiprecious stone,2,,,,,,,,,,,,,,,,,,,,,,,,,,,,,,,,,,,,,,,,,,,,,,,,,,,,
,,,,,,,,,,,,,,,90098,001,2022-04-26_11h00.34.106,SPAMnetsValid,2021.1.4,iPad,62.5,,,,,,,,,,,,,,,,,,,,,,,,,2,7.975,0,8,8,8,1,coercion,conspiracy,strategy,restraint,attraction,3,,,,,,,,,,,,,,,,,,,,,,,,,,,,,,,,,,,,,,,,,,,,,,,,,,,,
,,,,,,,,,,,,,,,90098,001,2022-04-26_11h00.34.106,SPAMnetsValid,2021.1.4,iPad,62.5,,,,,,,,,,,,,,,,,,,,,,,,,4,2.485,0,9,9,9,1,hiatus,animal,calamity,dread,gap,4,,,,,,,,,,,,,,,,,,,,,,,,,,,,,,,,,,,,,,,,,,,,,,,,,,,,
,,,,,,,,,,,,,,,90098,001,2022-04-26_11h00.34.106,SPAMnetsValid,2021.1.4,iPad,62.5,,,,,,,,,,,,,,,,,,,,,,,,,3,4.635,0,10,10,10,1,germane,microbe,contagious,relevant,different,3,,,,,,,,,,,,,,,,,,,,,,,,,,,,,,,,,,,,,,,,,,,,,,,,,,,,
,,,,,,,,,,,,,,,90098,001,2022-04-26_11h00.34.106,SPAMnetsValid,2021.1.4,iPad,62.5,,,,,,,,,,,,,,,,,,,,,,,,,4,7.33,0,11,11,11,1,perfunctory,fundamental,formal,superficial,careful,3,,,,,,,,,,,,,,,,,,,,,,,,,,,,,,,,,,,,,,,,,,,,,,,,,,,,
,,,,,,,,,,,,,,,90098,001,2022-04-26_11h00.34.106,SPAMnetsValid,2021.1.4,iPad,62.5,,,,,,,,,,,,,,,,,,,,,,,,,4,6.723,0,12,12,12,1,diverge,reveal,chant,distract the attention of,differ or turn off from,4,,,,,,,,,,,,,,,,,,,,,,,,,,,,,,,,,,,,,,,,,,,,,,,,,,,,
,,,,,,,,,,,,,,,90098,001,2022-04-26_11h00.34.106,SPAMnetsValid,2021.1.4,iPad,62.5,,,,,,,,,,,,,,,,,,,,,,,,,1,2.173,0,13,13,13,1,evoke,take away,anger,connect,bring out,4,,,,,,,,,,,,,,,,,,,,,,,,,,,,,,,,,,,,,,,,,,,,,,,,,,,,
,,,,,,,,,,,,,,,90098,001,2022-04-26_11h00.34.106,SPAMnetsValid,2021.1.4,iPad,62.5,,,,,,,,,,,,,,,,,,,,,,,,,3,3.866,0,14,14,14,1,pertinent,relevant,lying next to,necessary,bold,1,,,,,,,,,,,,,,,,,,,,,,,,,,,,,,,,,,,,,,,,,,,,,,,,,,,,
,,,,,,,,,,,,,,,90098,001,2022-04-26_11h00.34.106,SPAMnetsValid,2021.1.4,iPad,62.5,,,,,,,,,,,,,,,,,,,,,,,,,2,2.041,0,15,15,15,1,holocaust,entirety,destruction,saintly,price,2,,,,,,,,,,,,,,,,,,,,,,,,,,,,,,,,,,,,,,,,,,,,,,,,,,,,
,,,,,,,,,,,,,,,90098,001,2022-04-26_11h00.34.106,SPAMnetsValid,2021.1.4,iPad,62.5,,,,,,,,,,,,,,,,,,,,,,,,,3,2.351,0,16,16,16,1,piquant,mellow,fish,pungent,cloth,3,,,,,,,,,,,,,,,,,,,,,,,,,,,,,,,,,,,,,,,,,,,,,,,,,,,,
,,,,,,,,,,,,,,,90098,001,2022-04-26_11h00.34.106,SPAMnetsValid,2021.1.4,iPad,62.5,,,,,,,,,,,,,,,,,,,,,,,,,1,2.47,0,17,17,17,1,firmament,foundation,heavens,strong,glue,2,,,,,,,,,,,,,,,,,,,,,,,,,,,,,,,,,,,,,,,,,,,,,,,,,,,,
,,,,,,,,,,,,,,,90098,001,2022-04-26_11h00.34.106,SPAMnetsValid,2021.1.4,iPad,62.5,,,,,,,,,,,,,,,,,,,,,,,,,,,,,,,,,,,,,,5,3.385,0,0,0,0,1,marketable,partisan,jocular,marriageable,salable,essential,4,,,,,,,,,,,,,,,,,,,,,,,,,,,,,,,,,,,,,,
,,,,,,,,,,,,,,,90098,001,2022-04-26_11h00.34.106,SPAMnetsValid,2021.1.4,iPad,62.5,,,,,,,,,,,,,,,,,,,,,,,,,,,,,,,,,,,,,,1,6.995,0,1,1,1,1,cottontail,squirrel,poplar,boa,marshy plant,rabbit,5,,,,,,,,,,,,,,,,,,,,,,,,,,,,,,,,,,,,,,
,,,,,,,,,,,,,,,90098,001,2022-04-26_11h00.34.106,SPAMnetsValid,2021.1.4,iPad,62.5,,,,,,,,,,,,,,,,,,,,,,,,,,,,,,,,,,,,,,4,3.266,0,2,2,2,1,boggy,afraid,false,marshy,dense,black,3,,,,,,,,,,,,,,,,,,,,,,,,,,,,,,,,,,,,,,
,,,,,,,,,,,,,,,90098,001,2022-04-26_11h00.34.106,SPAMnetsValid,2021.1.4,iPad,62.5,,,,,,,,,,,,,,,,,,,,,,,,,,,,,,,,,,,,,,2,5.483,0,3,3,3,1,gruesomeness,blackness,falseness,vindictiveness,drunkenness,ghastliness,5,,,,,,,,,,,,,,,,,,,,,,,,,,,,,,,,,,,,,,
,,,,,,,,,,,,,,,90098,001,2022-04-26_11h00.34.106,SPAMnetsValid,2021.1.4,iPad,62.5,,,,,,,,,,,,,,,,,,,,,,,,,,,,,,,,,,,,,,3,5.227,0,4,4,4,1,loathing,diffidence,laziness,abhorrence,cleverness,comfort,3,,,,,,,,,,,,,,,,,,,,,,,,,,,,,,,,,,,,,,
,,,,,,,,,,,,,,,90098,001,2022-04-26_11h00.34.106,SPAMnetsValid,2021.1.4,iPad,62.5,,,,,,,,,,,,,,,,,,,,,,,,,,,,,,,,,,,,,,2,2.453,0,5,5,5,1,bantam,fowl,ridicule,cripple,vegetable,ensign,1,,,,,,,,,,,,,,,,,,,,,,,,,,,,,,,,,,,,,,
,,,,,,,,,,,,,,,90098,001,2022-04-26_11h00.34.106,SPAMnetsValid,2021.1.4,iPad,62.5,,,,,,,,,,,,,,,,,,,,,,,,,,,,,,,,,,,,,,2,2.418,0,6,6,6,1,evoke,wake up,surrender,reconnoiter,transcend,call forth,5,,,,,,,,,,,,,,,,,,,,,,,,,,,,,,,,,,,,,,
,,,,,,,,,,,,,,,90098,001,2022-04-26_11h00.34.106,SPAMnetsValid,2021.1.4,iPad,62.5,,,,,,,,,,,,,,,,,,,,,,,,,,,,,,,,,,,,,,1,8.127,0,7,7,7,1,unobtrusive,unintelligent,epileptic,illogical,lineal,modest,5,,,,,,,,,,,,,,,,,,,,,,,,,,,,,,,,,,,,,,
,,,,,,,,,,,,,,,90098,001,2022-04-26_11h00.34.106,SPAMnetsValid,2021.1.4,iPad,62.5,,,,,,,,,,,,,,,,,,,,,,,,,,,,,,,,,,,,,,4,2.581,0,8,8,8,1,terrain,ice cream,final test,tractor,area of ground,weight,4,,,,,,,,,,,,,,,,,,,,,,,,,,,,,,,,,,,,,,
,,,,,,,,,,,,,,,90098,001,2022-04-26_11h00.34.106,SPAMnetsValid,2021.1.4,iPad,62.5,,,,,,,,,,,,,,,,,,,,,,,,,,,,,,,,,,,,,,2,4.002,0,9,9,9,1,capriciousness,stubbornness,courage,whimsicality,amazement,greediness,3,,,,,,,,,,,,,,,,,,,,,,,,,,,,,,,,,,,,,,
,,,,,,,,,,,,,,,90098,001,2022-04-26_11h00.34.106,SPAMnetsValid,2021.1.4,iPad,62.5,,,,,,,,,,,,,,,,,,,,,,,,,,,,,,,,,,,,,,1,8.147,0,10,10,10,1,maelstrom,slander,whirlpool,enmity,armor,majolica,2,,,,,,,,,,,,,,,,,,,,,,,,,,,,,,,,,,,,,,
,,,,,,,,,,,,,,,90098,001,2022-04-26_11h00.34.106,SPAMnetsValid,2021.1.4,iPad,62.5,,,,,,,,,,,,,,,,,,,,,,,,,,,,,,,,,,,,,,5,3.023,0,11,11,11,1,tentative,critical,conclusive,authentic,provisional,apprehensive,4,,,,,,,,,,,,,,,,,,,,,,,,,,,,,,,,,,,,,,
,,,,,,,,,,,,,,,90098,001,2022-04-26_11h00.34.106,SPAMnetsValid,2021.1.4,iPad,62.5,,,,,,,,,,,,,,,,,,,,,,,,,,,,,,,,,,,,,,5,5.881,0,12,12,12,1,placate,rehabilitate,plagiarize,depredate,apprise,conciliate,5,,,,,,,,,,,,,,,,,,,,,,,,,,,,,,,,,,,,,,
,,,,,,,,,,,,,,,90098,001,2022-04-26_11h00.34.106,SPAMnetsValid,2021.1.4,iPad,62.5,,,,,,,,,,,,,,,,,,,,,,,,,,,,,,,,,,,,,,5,6.376,0,13,13,13,1,surcease,enlightenment,cessation,inattention,censor,substitution,2,,,,,,,,,,,,,,,,,,,,,,,,,,,,,,,,,,,,,,
,,,,,,,,,,,,,,,90098,001,2022-04-26_11h00.34.106,SPAMnetsValid,2021.1.4,iPad,62.5,,,,,,,,,,,,,,,,,,,,,,,,,,,,,,,,,,,,,,4,5.684,0,14,14,14,1,apathetic,wandering,impassive,hateful,prophetic,overflowing,2,,,,,,,,,,,,,,,,,,,,,,,,,,,,,,,,,,,,,,
,,,,,,,,,,,,,,,90098,001,2022-04-26_11h00.34.106,SPAMnetsValid,2021.1.4,iPad,62.5,,,,,,,,,,,,,,,,,,,,,,,,,,,,,,,,,,,,,,1,11.366,0,15,15,15,1,paternoster,paternalism,patricide,malediction,benediction,prayer,5,,,,,,,,,,,,,,,,,,,,,,,,,,,,,,,,,,,,,,
,,,,,,,,,,,,,,,90098,001,2022-04-26_11h00.34.106,SPAMnetsValid,2021.1.4,iPad,62.5,,,,,,,,,,,,,,,,,,,,,,,,,,,,,,,,,,,,,,1,1.623,0,16,16,16,1,opalescence,opulence,senescence,bankruptcy,iridescence,assiduity,4,,,,,,,,,,,,,,,,,,,,,,,,,,,,,,,,,,,,,,
,,,,,,,,,,,,,,,90098,001,2022-04-26_11h00.34.106,SPAMnetsValid,2021.1.4,iPad,62.5,,,,,,,,,,,,,,,,,,,,,,,,,,,,,,,,,,,,,,2,3.223,0,17,17,17,1,lush,stupid,luxurious,hazy,putrid,languishing,2,,,,,,,,,,,,,,,,,,,,,,,,,,,,,,,,,,,,,,
,,,,,,,,,,,,,,,90098,001,2022-04-26_11h00.34.106,SPAMnetsValid,2021.1.4,iPad,62.5,,,,,,,,,,,,,,,,,,,,,,,,,,,,,,,,,,,,,,4,3.942,0,18,18,18,1,curtailment,expenditure,abandonment,abridgment,improvement,forgery,3,,,,,,,,,,,,,,,,,,,,,,,,,,,,,,,,,,,,,,
,,,,,,,,,,,,,,,90098,001,2022-04-26_11h00.34.106,SPAMnetsValid,2021.1.4,iPad,62.5,,,,,,,,,,,,,,,,,,,,,,,,,,,,,,,,,,,,,,4,10.311,0,19,19,19,1,perversity,adversity,perviousness,travesty,waywardness,gentility,4,,,,,,,,,,,,,,,,,,,,,,,,,,,,,,,,,,,,,,
,,,,,,,,,,,,,,,90098,001,2022-04-26_11h00.34.106,SPAMnetsValid,2021.1.4,iPad,62.5,,,,,,,,,,,,,,,,,,,,,,,,,,,,,,,,,,,,,,1,20.158,0,20,20,20,1,calumnious,complimentary,analogous,slanderous,tempestuous,magnanimous,3,,,,,,,,,,,,,,,,,,,,,,,,,,,,,,,,,,,,,,
,,,,,,,,,,,,,,,90098,001,2022-04-26_11h00.34.106,SPAMnetsValid,2021.1.4,iPad,62.5,,,,,,,,,,,,,,,,,,,,,,,,,,,,,,,,,,,,,,3,2.199,0,21,21,21,1,illiberality,bigotry,imbecility,illegibility,cautery,immaturity,1,,,,,,,,,,,,,,,,,,,,,,,,,,,,,,,,,,,,,,
,,,,,,,,,,,,,,,90098,001,2022-04-26_11h00.34.106,SPAMnetsValid,2021.1.4,iPad,62.5,,,,,,,,,,,,,,,,,,,,,,,,,,,,,,,,,,,,,,3,3.202,0,22,22,22,1,clabber,rejoice,gossip,curdle,crow,hobble,3,,,,,,,,,,,,,,,,,,,,,,,,,,,,,,,,,,,,,,
,,,,,,,,,,,,,,,90098,001,2022-04-26_11h00.34.106,SPAMnetsValid,2021.1.4,iPad,62.5,,,,,,,,,,,,,,,,,,,,,,,,,,,,,,,,,,,,,,1,5.858,0,23,23,23,1,sedulousness,diligence,credulousness,seduction,perilousness,frankness,1,,,,,,,,,,,,,,,,,,,,,,,,,,,,,,,,,,,,,,
,,,,,,,,,,,,,,,90098,001,2022-04-26_11h00.34.106,SPAMnetsValid,2021.1.4,iPad,62.5,,,,,,,,,,,,,,,,,,,,,,,,,,,,,,,,,,,,,,,,,,,,,,,,,,,,sleep,pillow,0,0,0,0,1,,,,,,,,,,,,,,,,,,,,,,,,,,,,,,,
,,,,,,,,,,,,,,,90098,001,2022-04-26_11h00.34.106,SPAMnetsValid,2021.1.4,iPad,62.5,,,,,,,,,,,,,,,,,,,,,,,,,,,,,,,,,,,,,,,,,,,,,,,,,,,,sleep,pillow,1,0,1,0,1,,,,,,,,,,,,,,,,,,,,,,,,,,,,,,,
,,,,,,,,,,,,,,,90098,001,2022-04-26_11h00.34.106,SPAMnetsValid,2021.1.4,iPad,62.5,,,,,,,,,,,,,,,,,,,,,,,,,,,,,,,,,,,,,,,,,,,,,,,,,,,,jump,pillow,2,0,2,0,1,,,,,,,,,,,,,,,,,,,,,,,,,,,,,,,
,,,,,,,,,,,,,,,90098,001,2022-04-26_11h00.34.106,SPAMnetsValid,2021.1.4,iPad,62.5,,,,,,,,,,,,,,,,,,,,,,,,,,,,,,,,,,,,,,,,,,,,,,,,,,,,hit,pillow,3,0,3,0,1,,,,,,,,,,,,,,,,,,,,,,,,,,,,,,,
,,,,,,,,,,,,,,,90098,001,2022-04-26_11h00.34.106,SPAMnetsValid,2021.1.4,iPad,62.5,,,,,,,,,,,,,,,,,,,,,,,,,,,,,,,,,,,,,,,,,,,,,,,,,,,,lay back on,pillow,4,0,4,0,1,,,,,,,,,,,,,,,,,,,,,,,,,,,,,,,
,,,,,,,,,,,,,,,90098,001,2022-04-26_11h00.34.106,SPAMnetsValid,2021.1.4,iPad,62.5,,,,,,,,,,,,,,,,,,,,,,,,,,,,,,,,,,,,,,,,,,,,,,,,,,,,laptop stand,pillow,5,0,5,0,1,,,,,,,,,,,,,,,,,,,,,,,,,,,,,,,
,,,,,,,,,,,,,,,90098,001,2022-04-26_11h00.34.106,SPAMnetsValid,2021.1.4,iPad,62.5,,,,,,,,,,,,,,,,,,,,,,,,,,,,,,,,,,,,,,,,,,,,,,,,,,,,cover belly when sitting,pillow,6,0,6,0,1,,,,,,,,,,,,,,,,,,,,,,,,,,,,,,,
,,,,,,,,,,,,,,,90098,001,2022-04-26_11h00.34.106,SPAMnetsValid,2021.1.4,iPad,62.5,,,,,,,,,,,,,,,,,,,,,,,,,,,,,,,,,,,,,,,,,,,,,,,,,,,,dance,pillow,7,0,7,0,1,,,,,,,,,,,,,,,,,,,,,,,,,,,,,,,
,,,,,,,,,,,,,,,90098,001,2022-04-26_11h00.34.106,SPAMnetsValid,2021.1.4,iPad,62.5,,,,,,,,,,,,,,,,,,,,,,,,,,,,,,,,,,,,,,,,,,,,,,,,,,,,,,,,,,,0,0,0,2,1,pillow,,,,,,,,,,,,,,,,,,,,,,,,,
,,,,,,,,,,,,,,,90098,001,2022-04-26_11h00.34.106,SPAMnetsValid,2021.1.4,iPad,62.5,,,,,,,,,,,,,,,,,,,,,,,,,,,,,,,,,,,,,,,,,,,,,,,,,,,,gather rocks,bucket,0,0,0,0,1,,,,,,,,,,,,,,,,,,,,,,,,,,,,,,,
,,,,,,,,,,,,,,,90098,001,2022-04-26_11h00.34.106,SPAMnetsValid,2021.1.4,iPad,62.5,,,,,,,,,,,,,,,,,,,,,,,,,,,,,,,,,,,,,,,,,,,,,,,,,,,,water,bucket,1,0,1,0,1,,,,,,,,,,,,,,,,,,,,,,,,,,,,,,,
,,,,,,,,,,,,,,,90098,001,2022-04-26_11h00.34.106,SPAMnetsValid,2021.1.4,iPad,62.5,,,,,,,,,,,,,,,,,,,,,,,,,,,,,,,,,,,,,,,,,,,,,,,,,,,,sand at the beach,bucket,2,0,2,0,1,,,,,,,,,,,,,,,,,,,,,,,,,,,,,,,
,,,,,,,,,,,,,,,90098,001,2022-04-26_11h00.34.106,SPAMnetsValid,2021.1.4,iPad,62.5,,,,,,,,,,,,,,,,,,,,,,,,,,,,,,,,,,,,,,,,,,,,,,,,,,,,sand castles,bucket,3,0,3,0,1,,,,,,,,,,,,,,,,,,,,,,,,,,,,,,,
,,,,,,,,,,,,,,,90098,001,2022-04-26_11h00.34.106,SPAMnetsValid,2021.1.4,iPad,62.5,,,,,,,,,,,,,,,,,,,,,,,,,,,,,,,,,,,,,,,,,,,,,,,,,,,,seafood buckets,bucket,4,0,4,0,1,,,,,,,,,,,,,,,,,,,,,,,,,,,,,,,
,,,,,,,,,,,,,,,90098,001,2022-04-26_11h00.34.106,SPAMnetsValid,2021.1.4,iPad,62.5,,,,,,,,,,,,,,,,,,,,,,,,,,,,,,,,,,,,,,,,,,,,,,,,,,,,can be used for house decor,bucket,5,0,5,0,1,,,,,,,,,,,,,,,,,,,,,,,,,,,,,,,
,,,,,,,,,,,,,,,90098,001,2022-04-26_11h00.34.106,SPAMnetsValid,2021.1.4,iPad,62.5,,,,,,,,,,,,,,,,,,,,,,,,,,,,,,,,,,,,,,,,,,,,,,,,,,,,plants,bucket,6,0,6,0,1,,,,,,,,,,,,,,,,,,,,,,,,,,,,,,,
,,,,,,,,,,,,,,,90098,001,2022-04-26_11h00.34.106,SPAMnetsValid,2021.1.4,iPad,62.5,,,,,,,,,,,,,,,,,,,,,,,,,,,,,,,,,,,,,,,,,,,,,,,,,,,,food,bucket,7,0,7,0,1,,,,,,,,,,,,,,,,,,,,,,,,,,,,,,,
,,,,,,,,,,,,,,,90098,001,2022-04-26_11h00.34.106,SPAMnetsValid,2021.1.4,iPad,62.5,,,,,,,,,,,,,,,,,,,,,,,,,,,,,,,,,,,,,,,,,,,,,,,,,,,,supplies,bucket,8,0,8,0,1,,,,,,,,,,,,,,,,,,,,,,,,,,,,,,,
,,,,,,,,,,,,,,,90098,001,2022-04-26_11h00.34.106,SPAMnetsValid,2021.1.4,iPad,62.5,,,,,,,,,,,,,,,,,,,,,,,,,,,,,,,,,,,,,,,,,,,,,,,,,,,,,,,,,,,0,1,1,0,1,bucket,,,,,,,,,,,,,,,,,,,,,,,,,
,,,,,,,,,,,,,,,90098,001,2022-04-26_11h00.34.106,SPAMnetsValid,2021.1.4,iPad,62.5,,,,,,,,,,,,,,,,,,,,,,,,,,,,,,,,,,,,,,,,,,,,,,,,,,,,relaxation,candle,0,0,0,0,1,,,,,,,,,,,,,,,,,,,,,,,,,,,,,,,
,,,,,,,,,,,,,,,90098,001,2022-04-26_11h00.34.106,SPAMnetsValid,2021.1.4,iPad,62.5,,,,,,,,,,,,,,,,,,,,,,,,,,,,,,,,,,,,,,,,,,,,,,,,,,,,nice room smell,candle,1,0,1,0,1,,,,,,,,,,,,,,,,,,,,,,,,,,,,,,,
,,,,,,,,,,,,,,,90098,001,2022-04-26_11h00.34.106,SPAMnetsValid,2021.1.4,iPad,62.5,,,,,,,,,,,,,,,,,,,,,,,,,,,,,,,,,,,,,,,,,,,,,,,,,,,,sexy time,candle,2,0,2,0,1,,,,,,,,,,,,,,,,,,,,,,,,,,,,,,,
,,,,,,,,,,,,,,,90098,001,2022-04-26_11h00.34.106,SPAMnetsValid,2021.1.4,iPad,62.5,,,,,,,,,,,,,,,,,,,,,,,,,,,,,,,,,,,,,,,,,,,,,,,,,,,,rituals,candle,3,0,3,0,1,,,,,,,,,,,,,,,,,,,,,,,,,,,,,,,
,,,,,,,,,,,,,,,90098,001,2022-04-26_11h00.34.106,SPAMnetsValid,2021.1.4,iPad,62.5,,,,,,,,,,,,,,,,,,,,,,,,,,,,,,,,,,,,,,,,,,,,,,,,,,,,birthdays,candle,4,0,4,0,1,,,,,,,,,,,,,,,,,,,,,,,,,,,,,,,
,,,,,,,,,,,,,,,90098,001,2022-04-26_11h00.34.106,SPAMnetsValid,2021.1.4,iPad,62.5,,,,,,,,,,,,,,,,,,,,,,,,,,,,,,,,,,,,,,,,,,,,,,,,,,,,bridal showers,candle,5,0,5,0,1,,,,,,,,,,,,,,,,,,,,,,,,,,,,,,,
,,,,,,,,,,,,,,,90098,001,2022-04-26_11h00.34.106,SPAMnetsValid,2021.1.4,iPad,62.5,,,,,,,,,,,,,,,,,,,,,,,,,,,,,,,,,,,,,,,,,,,,,,,,,,,,baby shoers,candle,6,0,6,0,1,,,,,,,,,,,,,,,,,,,,,,,,,,,,,,,
,,,,,,,,,,,,,,,90098,001,2022-04-26_11h00.34.106,SPAMnetsValid,2021.1.4,iPad,62.5,,,,,,,,,,,,,,,,,,,,,,,,,,,,,,,,,,,,,,,,,,,,,,,,,,,,showers,candle,7,0,7,0,1,,,,,,,,,,,,,,,,,,,,,,,,,,,,,,,
,,,,,,,,,,,,,,,90098,001,2022-04-26_11h00.34.106,SPAMnetsValid,2021.1.4,iPad,62.5,,,,,,,,,,,,,,,,,,,,,,,,,,,,,,,,,,,,,,,,,,,,,,,,,,,,selling,candle,8,0,8,0,1,,,,,,,,,,,,,,,,,,,,,,,,,,,,,,,
,,,,,,,,,,,,,,,90098,001,2022-04-26_11h00.34.106,SPAMnetsValid,2021.1.4,iPad,62.5,,,,,,,,,,,,,,,,,,,,,,,,,,,,,,,,,,,,,,,,,,,,,,,,,,,,therapy,candle,9,0,9,0,1,,,,,,,,,,,,,,,,,,,,,,,,,,,,,,,
,,,,,,,,,,,,,,,90098,001,2022-04-26_11h00.34.106,SPAMnetsValid,2021.1.4,iPad,62.5,,,,,,,,,,,,,,,,,,,,,,,,,,,,,,,,,,,,,,,,,,,,,,,,,,,,self care,candle,10,0,10,0,1,,,,,,,,,,,,,,,,,,,,,,,,,,,,,,,
,,,,,,,,,,,,,,,90098,001,2022-04-26_11h00.34.106,SPAMnetsValid,2021.1.4,iPad,62.5,,,,,,,,,,,,,,,,,,,,,,,,,,,,,,,,,,,,,,,,,,,,,,,,,,,,lights,candle,11,0,11,0,1,,,,,,,,,,,,,,,,,,,,,,,,,,,,,,,
,,,,,,,,,,,,,,,90098,001,2022-04-26_11h00.34.106,SPAMnetsValid,2021.1.4,iPad,62.5,,,,,,,,,,,,,,,,,,,,,,,,,,,,,,,,,,,,,,,,,,,,,,,,,,,,,,,,,,,0,2,2,1,1,candle,,,,,,,,,,,,,,,,,,,,,,,,,
,,,,,,,,,,,,,,,90098,001,2022-04-26_11h00.34.106,SPAMnetsValid,2021.1.4,iPad,62.5,,,,,,,,,,,,,,,,,,,,,,,,,,,,,,,,,,,,,,,,,,,,,,,,,,,,,,,,,,,,,,,,,dog,Animals,0,0,0,0,1,,,,,,,,,,,,,,,,,,
,,,,,,,,,,,,,,,90098,001,2022-04-26_11h00.34.106,SPAMnetsValid,2021.1.4,iPad,62.5,,,,,,,,,,,,,,,,,,,,,,,,,,,,,,,,,,,,,,,,,,,,,,,,,,,,,,,,,,,,,,,,,cat,Animals,1,0,1,0,1,,,,,,,,,,,,,,,,,,
,,,,,,,,,,,,,,,90098,001,2022-04-26_11h00.34.106,SPAMnetsValid,2021.1.4,iPad,62.5,,,,,,,,,,,,,,,,,,,,,,,,,,,,,,,,,,,,,,,,,,,,,,,,,,,,,,,,,,,,,,,,,sheep,Animals,2,0,2,0,1,,,,,,,,,,,,,,,,,,
,,,,,,,,,,,,,,,90098,001,2022-04-26_11h00.34.106,SPAMnetsValid,2021.1.4,iPad,62.5,,,,,,,,,,,,,,,,,,,,,,,,,,,,,,,,,,,,,,,,,,,,,,,,,,,,,,,,,,,,,,,,,bird,Animals,3,0,3,0,1,,,,,,,,,,,,,,,,,,
,,,,,,,,,,,,,,,90098,001,2022-04-26_11h00.34.106,SPAMnetsValid,2021.1.4,iPad,62.5,,,,,,,,,,,,,,,,,,,,,,,,,,,,,,,,,,,,,,,,,,,,,,,,,,,,,,,,,,,,,,,,,cow,Animals,4,0,4,0,1,,,,,,,,,,,,,,,,,,
,,,,,,,,,,,,,,,90098,001,2022-04-26_11h00.34.106,SPAMnetsValid,2021.1.4,iPad,62.5,,,,,,,,,,,,,,,,,,,,,,,,,,,,,,,,,,,,,,,,,,,,,,,,,,,,,,,,,,,,,,,,,horse,Animals,5,0,5,0,1,,,,,,,,,,,,,,,,,,
,,,,,,,,,,,,,,,90098,001,2022-04-26_11h00.34.106,SPAMnetsValid,2021.1.4,iPad,62.5,,,,,,,,,,,,,,,,,,,,,,,,,,,,,,,,,,,,,,,,,,,,,,,,,,,,,,,,,,,,,,,,,giraffe,Animals,6,0,6,0,1,,,,,,,,,,,,,,,,,,
,,,,,,,,,,,,,,,90098,001,2022-04-26_11h00.34.106,SPAMnetsValid,2021.1.4,iPad,62.5,,,,,,,,,,,,,,,,,,,,,,,,,,,,,,,,,,,,,,,,,,,,,,,,,,,,,,,,,,,,,,,,,octopus,Animals,7,0,7,0,1,,,,,,,,,,,,,,,,,,
,,,,,,,,,,,,,,,90098,001,2022-04-26_11h00.34.106,SPAMnetsValid,2021.1.4,iPad,62.5,,,,,,,,,,,,,,,,,,,,,,,,,,,,,,,,,,,,,,,,,,,,,,,,,,,,,,,,,,,,,,,,,fish,Animals,8,0,8,0,1,,,,,,,,,,,,,,,,,,
,,,,,,,,,,,,,,,90098,001,2022-04-26_11h00.34.106,SPAMnetsValid,2021.1.4,iPad,62.5,,,,,,,,,,,,,,,,,,,,,,,,,,,,,,,,,,,,,,,,,,,,,,,,,,,,,,,,,,,,,,,,,tuna,Animals,9,0,9,0,1,,,,,,,,,,,,,,,,,,
,,,,,,,,,,,,,,,90098,001,2022-04-26_11h00.34.106,SPAMnetsValid,2021.1.4,iPad,62.5,,,,,,,,,,,,,,,,,,,,,,,,,,,,,,,,,,,,,,,,,,,,,,,,,,,,,,,,,,,,,,,,,lion,Animals,10,0,10,0,1,,,,,,,,,,,,,,,,,,
,,,,,,,,,,,,,,,90098,001,2022-04-26_11h00.34.106,SPAMnetsValid,2021.1.4,iPad,62.5,,,,,,,,,,,,,,,,,,,,,,,,,,,,,,,,,,,,,,,,,,,,,,,,,,,,,,,,,,,,,,,,,tiger,Animals,11,0,11,0,1,,,,,,,,,,,,,,,,,,
,,,,,,,,,,,,,,,90098,001,2022-04-26_11h00.34.106,SPAMnetsValid,2021.1.4,iPad,62.5,,,,,,,,,,,,,,,,,,,,,,,,,,,,,,,,,,,,,,,,,,,,,,,,,,,,,,,,,,,,,,,,,elephant,Animals,12,0,12,0,1,,,,,,,,,,,,,,,,,,
,,,,,,,,,,,,,,,90098,001,2022-04-26_11h00.34.106,SPAMnetsValid,2021.1.4,iPad,62.5,,,,,,,,,,,,,,,,,,,,,,,,,,,,,,,,,,,,,,,,,,,,,,,,,,,,,,,,,,,,,,,,,rihno,Animals,13,0,13,0,1,,,,,,,,,,,,,,,,,,
,,,,,,,,,,,,,,,90098,001,2022-04-26_11h00.34.106,SPAMnetsValid,2021.1.4,iPad,62.5,,,,,,,,,,,,,,,,,,,,,,,,,,,,,,,,,,,,,,,,,,,,,,,,,,,,,,,,,,,,,,,,,squirel,Animals,14,0,14,0,1,,,,,,,,,,,,,,,,,,
,,,,,,,,,,,,,,,90098,001,2022-04-26_11h00.34.106,SPAMnetsValid,2021.1.4,iPad,62.5,,,,,,,,,,,,,,,,,,,,,,,,,,,,,,,,,,,,,,,,,,,,,,,,,,,,,,,,,,,,,,,,,pig,Animals,15,0,15,0,1,,,,,,,,,,,,,,,,,,
,,,,,,,,,,,,,,,90098,001,2022-04-26_11h00.34.106,SPAMnetsValid,2021.1.4,iPad,62.5,,,,,,,,,,,,,,,,,,,,,,,,,,,,,,,,,,,,,,,,,,,,,,,,,,,,,,,,,,,,,,,,,crow,Animals,16,0,16,0,1,,,,,,,,,,,,,,,,,,
,,,,,,,,,,,,,,,90098,001,2022-04-26_11h00.34.106,SPAMnetsValid,2021.1.4,iPad,62.5,,,,,,,,,,,,,,,,,,,,,,,,,,,,,,,,,,,,,,,,,,,,,,,,,,,,,,,,,,,,,,,,,camel,Animals,17,0,17,0,1,,,,,,,,,,,,,,,,,,
,,,,,,,,,,,,,,,90098,001,2022-04-26_11h00.34.106,SPAMnetsValid,2021.1.4,iPad,62.5,,,,,,,,,,,,,,,,,,,,,,,,,,,,,,,,,,,,,,,,,,,,,,,,,,,,,,,,,,,,,,,,,chicken,Animals,18,0,18,0,1,,,,,,,,,,,,,,,,,,
,,,,,,,,,,,,,,,90098,001,2022-04-26_11h00.34.106,SPAMnetsValid,2021.1.4,iPad,62.5,,,,,,,,,,,,,,,,,,,,,,,,,,,,,,,,,,,,,,,,,,,,,,,,,,,,,,,,,,,,,,,,,ant,Animals,19,0,19,0,1,,,,,,,,,,,,,,,,,,
,,,,,,,,,,,,,,,90098,001,2022-04-26_11h00.34.106,SPAMnetsValid,2021.1.4,iPad,62.5,,,,,,,,,,,,,,,,,,,,,,,,,,,,,,,,,,,,,,,,,,,,,,,,,,,,,,,,,,,,,,,,,spider,Animals,20,0,20,0,1,,,,,,,,,,,,,,,,,,
,,,,,,,,,,,,,,,90098,001,2022-04-26_11h00.34.106,SPAMnetsValid,2021.1.4,iPad,62.5,,,,,,,,,,,,,,,,,,,,,,,,,,,,,,,,,,,,,,,,,,,,,,,,,,,,,,,,,,,,,,,,,,,,,,,,0,0,0,0,1,Animals,,,,,,,,,,,,
,,,,,,,,,,,,,,,90098,001,2022-04-26_11h00.34.106,SPAMnetsValid,2021.1.4,iPad,62.5,,,,,,,,,,,,,,,,,,,,,,,,,,,,,,,,,,,,,,,,,,,,,,,,,,,,,,,,,,,,,,,,,,,,,,,,,,,,,,5,5.437,0,0,0,0,1,"I enjoy concentrating on a fantasy or daydream and exploring all its possibilities, letting it grow and develop.",0,1,,
,,,,,,,,,,,,,,,90098,001,2022-04-26_11h00.34.106,SPAMnetsValid,2021.1.4,iPad,62.5,,,,,,,,,,,,,,,,,,,,,,,,,,,,,,,,,,,,,,,,,,,,,,,,,,,,,,,,,,,,,,,,,,,,,,,,,,,,,,5,1.487,0,1,1,1,1,I think it's interesting to learn and develop new hobbies.,0,2,,
,,,,,,,,,,,,,,,90098,001,2022-04-26_11h00.34.106,SPAMnetsValid,2021.1.4,iPad,62.5,,,,,,,,,,,,,,,,,,,,,,,,,,,,,,,,,,,,,,,,,,,,,,,,,,,,,,,,,,,,,,,,,,,,,,,,,,,,,,3,3.077,0,2,2,2,1,I am intrigued by the patterns I find in art and nature.,0,3,,
,,,,,,,,,,,,,,,90098,001,2022-04-26_11h00.34.106,SPAMnetsValid,2021.1.4,iPad,62.5,,,,,,,,,,,,,,,,,,,,,,,,,,,,,,,,,,,,,,,,,,,,,,,,,,,,,,,,,,,,,,,,,,,,,,,,,,,,,,2,4.81,0,3,3,3,1,I believe letting students hear controversial speakers can only confuse and mislead them.,1,4,,
,,,,,,,,,,,,,,,90098,001,2022-04-26_11h00.34.106,SPAMnetsValid,2021.1.4,iPad,62.5,,,,,,,,,,,,,,,,,,,,,,,,,,,,,,,,,,,,,,,,,,,,,,,,,,,,,,,,,,,,,,,,,,,,,,,,,,,,,,3,1.797,0,4,4,4,1,Poetry has little or no effect on me.,1,5,,
,,,,,,,,,,,,,,,90098,001,2022-04-26_11h00.34.106,SPAMnetsValid,2021.1.4,iPad,62.5,,,,,,,,,,,,,,,,,,,,,,,,,,,,,,,,,,,,,,,,,,,,,,,,,,,,,,,,,,,,,,,,,,,,,,,,,,,,,,4,2.479,0,5,5,5,1,I would have difficulty just letting my mind wander without control or guidance.,1,6,,
,,,,,,,,,,,,,,,90098,001,2022-04-26_11h00.34.106,SPAMnetsValid,2021.1.4,iPad,62.5,,,,,,,,,,,,,,,,,,,,,,,,,,,,,,,,,,,,,,,,,,,,,,,,,,,,,,,,,,,,,,,,,,,,,,,,,,,,,,2,3.142,0,6,6,6,1,I seldom notice the moods or feelings that different environments produce.,1,7,,
,,,,,,,,,,,,,,,90098,001,2022-04-26_11h00.34.106,SPAMnetsValid,2021.1.4,iPad,62.5,,,,,,,,,,,,,,,,,,,,,,,,,,,,,,,,,,,,,,,,,,,,,,,,,,,,,,,,,,,,,,,,,,,,,,,,,,,,,,5,1.858,0,7,7,7,1,I experience a wide range of emotions or feelings.,0,8,,
,,,,,,,,,,,,,,,90098,001,2022-04-26_11h00.34.106,SPAMnetsValid,2021.1.4,iPad,62.5,,,,,,,,,,,,,,,,,,,,,,,,,,,,,,,,,,,,,,,,,,,,,,,,,,,,,,,,,,,,,,,,,,,,,,,,,,,,,,3,4.911,0,8,8,8,1,"Sometimes when I am reading poetry or looking at a work of art, I feel a chill or wave of excitement.",0,9,,
,,,,,,,,,,,,,,,90098,001,2022-04-26_11h00.34.106,SPAMnetsValid,2021.1.4,iPad,62.5,,,,,,,,,,,,,,,,,,,,,,,,,,,,,,,,,,,,,,,,,,,,,,,,,,,,,,,,,,,,,,,,,,,,,,,,,,,,,,2,3.948,0,9,9,9,1,I have little interest in speculating on the nature of the universe or the human condition.,1,10,,
,,,,,,,,,,,,,,,90098,001,2022-04-26_11h00.34.106,SPAMnetsValid,2021.1.4,iPad,62.5,,,,,,,,,,,,,,,,,,,,,,,,,,,,,,,,,,,,,,,,,,,,,,,,,,,,,,,,,,,,,,,,,,,,,,,,,,,,,,5,1.857,0,10,10,10,1,I have a lot of intellectual curiosity.,0,11,,
,,,,,,,,,,,,,,,90098,001,2022-04-26_11h00.34.106,SPAMnetsValid,2021.1.4,iPad,62.5,,,,,,,,,,,,,,,,,,,,,,,,,,,,,,,,,,,,,,,,,,,,,,,,,,,,,,,,,,,,,,,,,,,,,,,,,,,,,,4,1.927,0,11,11,11,1,I often enjoy playing with theories or abstract ideas.,0,12,,
,,,,,,,,,,,,,,,90098,001,2022-04-26_11h00.34.106,SPAMnetsValid,2021.1.4,iPad,62.5,,,,,,,,,,,,,,,,,,,,,,,,,,,,,,,,,,,,,,,,,,,,,,,,,,,,,,,,,,,,,,,,,,,,,,,,,,,,,,,,,,,,,,,,return,8.722
