key_resp_3.keys,key_resp_3.rt,slider_2.response,slider_2.rt,rjt_rating,rjt_RT,trials_24.thisRepN,trials_24.thisTrialN,trials_24.thisN,trials_24.thisIndex,trials_24.ran,rjt_order,word1,word2,attention,participant,session,date,expName,psychopyVersion,OS,frameRate,trials_4.thisRepN,trials_4.thisTrialN,trials_4.thisN,trials_4.thisIndex,trials_4.ran,trials_5.thisRepN,trials_5.thisTrialN,trials_5.thisN,trials_5.thisIndex,trials_5.ran,repOne,repTwo,slider.response,slider.rt,trials_22.thisRepN,trials_22.thisTrialN,trials_22.thisN,trials_22.thisIndex,trials_22.ran,trials_99.thisRepN,trials_99.thisTrialN,trials_99.thisN,trials_99.thisIndex,trials_99.ran,slider_extend_2.response,slider_extend_2.rt,trials_6.thisRepN,trials_6.thisTrialN,trials_6.thisN,trials_6.thisIndex,trials_6.ran,vCue2,R1,R2,R3,R4,correct,sliderVocab.response,sliderVocab.rt,trials_7.thisRepN,trials_7.thisTrialN,trials_7.thisN,trials_7.thisIndex,trials_7.ran,VocabCue,VR1,VR2,VR3,VR4,VR5,VocabCorrect,AUT_resp,AUT_label,trials.thisRepN,trials.thisTrialN,trials.thisN,trials.thisIndex,trials.ran,trials_2.thisRepN,trials_2.thisTrialN,trials_2.thisN,trials_2.thisIndex,trials_2.ran,aut_prompt,VF_response,VF_tag,trials_16.thisRepN,trials_16.thisTrialN,trials_16.thisN,trials_16.thisIndex,trials_16.ran,trials_17.thisRepN,trials_17.thisTrialN,trials_17.thisN,trials_17.thisIndex,trials_17.ran,VFcond,open_slider.response,open_slider.rt,trials_3.thisRepN,trials_3.thisTrialN,trials_3.thisN,trials_3.thisIndex,trials_3.ran,OpenQ,Rev,OPEN_ORDER,key_resp_2.keys,key_resp_2.rt
return,13.9822,2,6.5393,2,6.5393,0,0,0,67,1,96,oven,strawberry,,90095,001,2022-04-25_22h09.40.705,SPAMnetsValid,2021.1.4,MacIntel,59.84082341,,,,,,,,,,,,,,,,,,,,,,,,,,,,,,,,,,,,,,,,,,,,,,,,,,,,,,,,,,,,,,,,,,,,,,,,,,,,,,,,,,,,,,,,,
,,8,3.337,8,3.337,0,1,1,89,1,140,cookie,refrigerator,,90095,001,2022-04-25_22h09.40.705,SPAMnetsValid,2021.1.4,MacIntel,59.84082341,,,,,,,,,,,,,,,,,,,,,,,,,,,,,,,,,,,,,,,,,,,,,,,,,,,,,,,,,,,,,,,,,,,,,,,,,,,,,,,,,,,,,,,,,
,,9,3.3016,9,3.3016,0,2,2,94,1,133,cake,flower,,90095,001,2022-04-25_22h09.40.705,SPAMnetsValid,2021.1.4,MacIntel,59.84082341,,,,,,,,,,,,,,,,,,,,,,,,,,,,,,,,,,,,,,,,,,,,,,,,,,,,,,,,,,,,,,,,,,,,,,,,,,,,,,,,,,,,,,,,,
,,3,2.9518,3,2.9518,0,3,3,12,1,162,microwave,tomato,,90095,001,2022-04-25_22h09.40.705,SPAMnetsValid,2021.1.4,MacIntel,59.84082341,,,,,,,,,,,,,,,,,,,,,,,,,,,,,,,,,,,,,,,,,,,,,,,,,,,,,,,,,,,,,,,,,,,,,,,,,,,,,,,,,,,,,,,,,
,,2,2.6816,2,2.6816,0,4,4,58,1,144,cake,garden,,90095,001,2022-04-25_22h09.40.705,SPAMnetsValid,2021.1.4,MacIntel,59.84082341,,,,,,,,,,,,,,,,,,,,,,,,,,,,,,,,,,,,,,,,,,,,,,,,,,,,,,,,,,,,,,,,,,,,,,,,,,,,,,,,,,,,,,,,,
,,2,3.7919,2,3.7919,0,5,5,82,1,98,pretzel,strawberry,,90095,001,2022-04-25_22h09.40.705,SPAMnetsValid,2021.1.4,MacIntel,59.84082341,,,,,,,,,,,,,,,,,,,,,,,,,,,,,,,,,,,,,,,,,,,,,,,,,,,,,,,,,,,,,,,,,,,,,,,,,,,,,,,,,,,,,,,,,
,,1,9.2411,1,9.2411,0,6,6,54,1,101,cactus,kitchen,,90095,001,2022-04-25_22h09.40.705,SPAMnetsValid,2021.1.4,MacIntel,59.84082341,,,,,,,,,,,,,,,,,,,,,,,,,,,,,,,,,,,,,,,,,,,,,,,,,,,,,,,,,,,,,,,,,,,,,,,,,,,,,,,,,,,,,,,,,
,,1,1.6816,1,1.6816,0,7,7,57,1,127,cactus,chocolate,,90095,001,2022-04-25_22h09.40.705,SPAMnetsValid,2021.1.4,MacIntel,59.84082341,,,,,,,,,,,,,,,,,,,,,,,,,,,,,,,,,,,,,,,,,,,,,,,,,,,,,,,,,,,,,,,,,,,,,,,,,,,,,,,,,,,,,,,,,
,,1,1.5301,1,1.5301,0,8,8,68,1,180,tree,yogurt,,90095,001,2022-04-25_22h09.40.705,SPAMnetsValid,2021.1.4,MacIntel,59.84082341,,,,,,,,,,,,,,,,,,,,,,,,,,,,,,,,,,,,,,,,,,,,,,,,,,,,,,,,,,,,,,,,,,,,,,,,,,,,,,,,,,,,,,,,,
,,2,2.7666,2,2.7666,0,9,9,6,1,151,microwave,onion,,90095,001,2022-04-25_22h09.40.705,SPAMnetsValid,2021.1.4,MacIntel,59.84082341,,,,,,,,,,,,,,,,,,,,,,,,,,,,,,,,,,,,,,,,,,,,,,,,,,,,,,,,,,,,,,,,,,,,,,,,,,,,,,,,,,,,,,,,,
,,1,2.5535,1,2.5535,0,10,10,45,1,179,broom,oven,,90095,001,2022-04-25_22h09.40.705,SPAMnetsValid,2021.1.4,MacIntel,59.84082341,,,,,,,,,,,,,,,,,,,,,,,,,,,,,,,,,,,,,,,,,,,,,,,,,,,,,,,,,,,,,,,,,,,,,,,,,,,,,,,,,,,,,,,,,
,,2,3.6511,2,3.6511,0,11,11,2,1,174,cake,pretzel,,90095,001,2022-04-25_22h09.40.705,SPAMnetsValid,2021.1.4,MacIntel,59.84082341,,,,,,,,,,,,,,,,,,,,,,,,,,,,,,,,,,,,,,,,,,,,,,,,,,,,,,,,,,,,,,,,,,,,,,,,,,,,,,,,,,,,,,,,,
,,3,2.7034,3,2.7034,0,12,12,34,1,153,carrot,pretzel,,90095,001,2022-04-25_22h09.40.705,SPAMnetsValid,2021.1.4,MacIntel,59.84082341,,,,,,,,,,,,,,,,,,,,,,,,,,,,,,,,,,,,,,,,,,,,,,,,,,,,,,,,,,,,,,,,,,,,,,,,,,,,,,,,,,,,,,,,,
,,1,1.4785,1,1.4785,0,13,13,56,1,113,refrigerator,strawberry,,90095,001,2022-04-25_22h09.40.705,SPAMnetsValid,2021.1.4,MacIntel,59.84082341,,,,,,,,,,,,,,,,,,,,,,,,,,,,,,,,,,,,,,,,,,,,,,,,,,,,,,,,,,,,,,,,,,,,,,,,,,,,,,,,,,,,,,,,,
,,9,2.3813,9,2.3813,0,14,14,61,1,138,flower,rose,,90095,001,2022-04-25_22h09.40.705,SPAMnetsValid,2021.1.4,MacIntel,59.84082341,,,,,,,,,,,,,,,,,,,,,,,,,,,,,,,,,,,,,,,,,,,,,,,,,,,,,,,,,,,,,,,,,,,,,,,,,,,,,,,,,,,,,,,,,
,,8,2.066,8,2.066,0,15,15,96,1,136,chocolate,microwave,,90095,001,2022-04-25_22h09.40.705,SPAMnetsValid,2021.1.4,MacIntel,59.84082341,,,,,,,,,,,,,,,,,,,,,,,,,,,,,,,,,,,,,,,,,,,,,,,,,,,,,,,,,,,,,,,,,,,,,,,,,,,,,,,,,,,,,,,,,
,,3,1.3619,3,1.3619,0,16,16,88,1,171,cake,tomato,,90095,001,2022-04-25_22h09.40.705,SPAMnetsValid,2021.1.4,MacIntel,59.84082341,,,,,,,,,,,,,,,,,,,,,,,,,,,,,,,,,,,,,,,,,,,,,,,,,,,,,,,,,,,,,,,,,,,,,,,,,,,,,,,,,,,,,,,,,
,,9,2.833,9,2.833,0,17,17,8,1,97,chocolate,kitchen,,90095,001,2022-04-25_22h09.40.705,SPAMnetsValid,2021.1.4,MacIntel,59.84082341,,,,,,,,,,,,,,,,,,,,,,,,,,,,,,,,,,,,,,,,,,,,,,,,,,,,,,,,,,,,,,,,,,,,,,,,,,,,,,,,,,,,,,,,,
,,9,2.2054,9,2.2054,0,18,18,85,1,115,refrigerator,tomato,,90095,001,2022-04-25_22h09.40.705,SPAMnetsValid,2021.1.4,MacIntel,59.84082341,,,,,,,,,,,,,,,,,,,,,,,,,,,,,,,,,,,,,,,,,,,,,,,,,,,,,,,,,,,,,,,,,,,,,,,,,,,,,,,,,,,,,,,,,
,,9,3.383,9,3.383,0,19,19,29,1,163,melon,refrigerator,,90095,001,2022-04-25_22h09.40.705,SPAMnetsValid,2021.1.4,MacIntel,59.84082341,,,,,,,,,,,,,,,,,,,,,,,,,,,,,,,,,,,,,,,,,,,,,,,,,,,,,,,,,,,,,,,,,,,,,,,,,,,,,,,,,,,,,,,,,
,,9,1.3167,9,1.3167,0,20,20,25,1,194,cactus,cactus,CHECK,90095,001,2022-04-25_22h09.40.705,SPAMnetsValid,2021.1.4,MacIntel,59.84082341,,,,,,,,,,,,,,,,,,,,,,,,,,,,,,,,,,,,,,,,,,,,,,,,,,,,,,,,,,,,,,,,,,,,,,,,,,,,,,,,,,,,,,,,,
,,1,1.6136,1,1.6136,0,21,21,71,1,187,cactus,microwave,,90095,001,2022-04-25_22h09.40.705,SPAMnetsValid,2021.1.4,MacIntel,59.84082341,,,,,,,,,,,,,,,,,,,,,,,,,,,,,,,,,,,,,,,,,,,,,,,,,,,,,,,,,,,,,,,,,,,,,,,,,,,,,,,,,,,,,,,,,
,,9,1.3998,9,1.3998,0,22,22,77,1,172,kitchen,melon,,90095,001,2022-04-25_22h09.40.705,SPAMnetsValid,2021.1.4,MacIntel,59.84082341,,,,,,,,,,,,,,,,,,,,,,,,,,,,,,,,,,,,,,,,,,,,,,,,,,,,,,,,,,,,,,,,,,,,,,,,,,,,,,,,,,,,,,,,,
,,8,4.4566,8,4.4566,0,23,23,48,1,186,kitchen,yogurt,,90095,001,2022-04-25_22h09.40.705,SPAMnetsValid,2021.1.4,MacIntel,59.84082341,,,,,,,,,,,,,,,,,,,,,,,,,,,,,,,,,,,,,,,,,,,,,,,,,,,,,,,,,,,,,,,,,,,,,,,,,,,,,,,,,,,,,,,,,
,,8,1.3299,8,1.3299,0,24,24,36,1,161,kitchen,pretzel,,90095,001,2022-04-25_22h09.40.705,SPAMnetsValid,2021.1.4,MacIntel,59.84082341,,,,,,,,,,,,,,,,,,,,,,,,,,,,,,,,,,,,,,,,,,,,,,,,,,,,,,,,,,,,,,,,,,,,,,,,,,,,,,,,,,,,,,,,,
,,1,1.379,1,1.379,0,25,25,18,1,119,strawberry,tree,,90095,001,2022-04-25_22h09.40.705,SPAMnetsValid,2021.1.4,MacIntel,59.84082341,,,,,,,,,,,,,,,,,,,,,,,,,,,,,,,,,,,,,,,,,,,,,,,,,,,,,,,,,,,,,,,,,,,,,,,,,,,,,,,,,,,,,,,,,
,,1,1.4661,1,1.4661,0,26,26,19,1,183,cake,rose,,90095,001,2022-04-25_22h09.40.705,SPAMnetsValid,2021.1.4,MacIntel,59.84082341,,,,,,,,,,,,,,,,,,,,,,,,,,,,,,,,,,,,,,,,,,,,,,,,,,,,,,,,,,,,,,,,,,,,,,,,,,,,,,,,,,,,,,,,,
,,1,1.8978,1,1.8978,0,27,27,49,1,152,cactus,strawberry,,90095,001,2022-04-25_22h09.40.705,SPAMnetsValid,2021.1.4,MacIntel,59.84082341,,,,,,,,,,,,,,,,,,,,,,,,,,,,,,,,,,,,,,,,,,,,,,,,,,,,,,,,,,,,,,,,,,,,,,,,,,,,,,,,,,,,,,,,,
,,9,1.1673,9,1.1673,0,28,28,80,1,146,pretzel,tree,,90095,001,2022-04-25_22h09.40.705,SPAMnetsValid,2021.1.4,MacIntel,59.84082341,,,,,,,,,,,,,,,,,,,,,,,,,,,,,,,,,,,,,,,,,,,,,,,,,,,,,,,,,,,,,,,,,,,,,,,,,,,,,,,,,,,,,,,,,
,,9,1.2787,9,1.2787,0,29,29,21,1,159,cookie,flower,,90095,001,2022-04-25_22h09.40.705,SPAMnetsValid,2021.1.4,MacIntel,59.84082341,,,,,,,,,,,,,,,,,,,,,,,,,,,,,,,,,,,,,,,,,,,,,,,,,,,,,,,,,,,,,,,,,,,,,,,,,,,,,,,,,,,,,,,,,
,,1,2.2216,1,2.2216,0,30,30,95,1,121,broom,microwave,,90095,001,2022-04-25_22h09.40.705,SPAMnetsValid,2021.1.4,MacIntel,59.84082341,,,,,,,,,,,,,,,,,,,,,,,,,,,,,,,,,,,,,,,,,,,,,,,,,,,,,,,,,,,,,,,,,,,,,,,,,,,,,,,,,,,,,,,,,
,,1,1.6004,1,1.6004,0,31,31,9,1,176,cactus,tomato,,90095,001,2022-04-25_22h09.40.705,SPAMnetsValid,2021.1.4,MacIntel,59.84082341,,,,,,,,,,,,,,,,,,,,,,,,,,,,,,,,,,,,,,,,,,,,,,,,,,,,,,,,,,,,,,,,,,,,,,,,,,,,,,,,,,,,,,,,,
,,9,1.2147,9,1.2147,0,32,32,65,1,160,cookie,kitchen,,90095,001,2022-04-25_22h09.40.705,SPAMnetsValid,2021.1.4,MacIntel,59.84082341,,,,,,,,,,,,,,,,,,,,,,,,,,,,,,,,,,,,,,,,,,,,,,,,,,,,,,,,,,,,,,,,,,,,,,,,,,,,,,,,,,,,,,,,,
,,9,1.3297,9,1.3297,0,33,33,72,1,181,carrot,kitchen,,90095,001,2022-04-25_22h09.40.705,SPAMnetsValid,2021.1.4,MacIntel,59.84082341,,,,,,,,,,,,,,,,,,,,,,,,,,,,,,,,,,,,,,,,,,,,,,,,,,,,,,,,,,,,,,,,,,,,,,,,,,,,,,,,,,,,,,,,,
,,9,1.2298,9,1.2298,0,34,34,53,1,177,chocolate,strawberry,,90095,001,2022-04-25_22h09.40.705,SPAMnetsValid,2021.1.4,MacIntel,59.84082341,,,,,,,,,,,,,,,,,,,,,,,,,,,,,,,,,,,,,,,,,,,,,,,,,,,,,,,,,,,,,,,,,,,,,,,,,,,,,,,,,,,,,,,,,
,,1,1.4796,1,1.4796,0,35,35,51,1,168,cactus,flower,,90095,001,2022-04-25_22h09.40.705,SPAMnetsValid,2021.1.4,MacIntel,59.84082341,,,,,,,,,,,,,,,,,,,,,,,,,,,,,,,,,,,,,,,,,,,,,,,,,,,,,,,,,,,,,,,,,,,,,,,,,,,,,,,,,,,,,,,,,
,,9,1.6034,9,1.6034,0,36,36,64,1,157,refrigerator,rose,,90095,001,2022-04-25_22h09.40.705,SPAMnetsValid,2021.1.4,MacIntel,59.84082341,,,,,,,,,,,,,,,,,,,,,,,,,,,,,,,,,,,,,,,,,,,,,,,,,,,,,,,,,,,,,,,,,,,,,,,,,,,,,,,,,,,,,,,,,
,,1,2.6063,1,2.6063,0,37,37,78,1,132,broom,tree,,90095,001,2022-04-25_22h09.40.705,SPAMnetsValid,2021.1.4,MacIntel,59.84082341,,,,,,,,,,,,,,,,,,,,,,,,,,,,,,,,,,,,,,,,,,,,,,,,,,,,,,,,,,,,,,,,,,,,,,,,,,,,,,,,,,,,,,,,,
,,9,1.3619,9,1.3619,0,38,38,35,1,147,cake,refrigerator,,90095,001,2022-04-25_22h09.40.705,SPAMnetsValid,2021.1.4,MacIntel,59.84082341,,,,,,,,,,,,,,,,,,,,,,,,,,,,,,,,,,,,,,,,,,,,,,,,,,,,,,,,,,,,,,,,,,,,,,,,,,,,,,,,,,,,,,,,,
,,2,1.7688,2,1.7688,0,39,39,59,1,164,cookie,garden,,90095,001,2022-04-25_22h09.40.705,SPAMnetsValid,2021.1.4,MacIntel,59.84082341,,,,,,,,,,,,,,,,,,,,,,,,,,,,,,,,,,,,,,,,,,,,,,,,,,,,,,,,,,,,,,,,,,,,,,,,,,,,,,,,,,,,,,,,,
,,1,2.2814,1,2.2814,0,40,40,5,1,108,carrot,chocolate,,90095,001,2022-04-25_22h09.40.705,SPAMnetsValid,2021.1.4,MacIntel,59.84082341,,,,,,,,,,,,,,,,,,,,,,,,,,,,,,,,,,,,,,,,,,,,,,,,,,,,,,,,,,,,,,,,,,,,,,,,,,,,,,,,,,,,,,,,,
,,1,2.0148,1,2.0148,0,41,41,42,1,184,oven,pretzel,,90095,001,2022-04-25_22h09.40.705,SPAMnetsValid,2021.1.4,MacIntel,59.84082341,,,,,,,,,,,,,,,,,,,,,,,,,,,,,,,,,,,,,,,,,,,,,,,,,,,,,,,,,,,,,,,,,,,,,,,,,,,,,,,,,,,,,,,,,
,,1,2.4325,1,2.4325,0,42,42,75,1,178,cactus,carrot,,90095,001,2022-04-25_22h09.40.705,SPAMnetsValid,2021.1.4,MacIntel,59.84082341,,,,,,,,,,,,,,,,,,,,,,,,,,,,,,,,,,,,,,,,,,,,,,,,,,,,,,,,,,,,,,,,,,,,,,,,,,,,,,,,,,,,,,,,,
,,8,1.2815,8,1.2815,0,43,43,52,1,110,chocolate,cookie,,90095,001,2022-04-25_22h09.40.705,SPAMnetsValid,2021.1.4,MacIntel,59.84082341,,,,,,,,,,,,,,,,,,,,,,,,,,,,,,,,,,,,,,,,,,,,,,,,,,,,,,,,,,,,,,,,,,,,,,,,,,,,,,,,,,,,,,,,,
,,1,1.6147,1,1.6147,0,44,44,26,1,107,rose,tomato,,90095,001,2022-04-25_22h09.40.705,SPAMnetsValid,2021.1.4,MacIntel,59.84082341,,,,,,,,,,,,,,,,,,,,,,,,,,,,,,,,,,,,,,,,,,,,,,,,,,,,,,,,,,,,,,,,,,,,,,,,,,,,,,,,,,,,,,,,,
,,9,1.6134,9,1.6134,0,45,45,92,1,170,cookie,microwave,,90095,001,2022-04-25_22h09.40.705,SPAMnetsValid,2021.1.4,MacIntel,59.84082341,,,,,,,,,,,,,,,,,,,,,,,,,,,,,,,,,,,,,,,,,,,,,,,,,,,,,,,,,,,,,,,,,,,,,,,,,,,,,,,,,,,,,,,,,
,,9,3.4687,9,3.4687,0,46,46,17,1,99,garden,melon,,90095,001,2022-04-25_22h09.40.705,SPAMnetsValid,2021.1.4,MacIntel,59.84082341,,,,,,,,,,,,,,,,,,,,,,,,,,,,,,,,,,,,,,,,,,,,,,,,,,,,,,,,,,,,,,,,,,,,,,,,,,,,,,,,,,,,,,,,,
,,7,2.8851,7,2.8851,0,47,47,76,1,102,chocolate,refrigerator,,90095,001,2022-04-25_22h09.40.705,SPAMnetsValid,2021.1.4,MacIntel,59.84082341,,,,,,,,,,,,,,,,,,,,,,,,,,,,,,,,,,,,,,,,,,,,,,,,,,,,,,,,,,,,,,,,,,,,,,,,,,,,,,,,,,,,,,,,,
,,1,1.2986,1,1.2986,0,48,48,20,1,149,broom,tomato,,90095,001,2022-04-25_22h09.40.705,SPAMnetsValid,2021.1.4,MacIntel,59.84082341,,,,,,,,,,,,,,,,,,,,,,,,,,,,,,,,,,,,,,,,,,,,,,,,,,,,,,,,,,,,,,,,,,,,,,,,,,,,,,,,,,,,,,,,,
,,7,1.097,7,1.097,0,49,49,27,1,158,cookie,oven,,90095,001,2022-04-25_22h09.40.705,SPAMnetsValid,2021.1.4,MacIntel,59.84082341,,,,,,,,,,,,,,,,,,,,,,,,,,,,,,,,,,,,,,,,,,,,,,,,,,,,,,,,,,,,,,,,,,,,,,,,,,,,,,,,,,,,,,,,,
,,1,1.7538,1,1.7538,0,50,50,81,1,104,garden,microwave,,90095,001,2022-04-25_22h09.40.705,SPAMnetsValid,2021.1.4,MacIntel,59.84082341,,,,,,,,,,,,,,,,,,,,,,,,,,,,,,,,,,,,,,,,,,,,,,,,,,,,,,,,,,,,,,,,,,,,,,,,,,,,,,,,,,,,,,,,,
,,9,1.4141,9,1.4141,0,51,51,40,1,165,onion,rose,,90095,001,2022-04-25_22h09.40.705,SPAMnetsValid,2021.1.4,MacIntel,59.84082341,,,,,,,,,,,,,,,,,,,,,,,,,,,,,,,,,,,,,,,,,,,,,,,,,,,,,,,,,,,,,,,,,,,,,,,,,,,,,,,,,,,,,,,,,
,,9,1.7465,9,1.7465,0,52,52,60,1,122,flower,garden,,90095,001,2022-04-25_22h09.40.705,SPAMnetsValid,2021.1.4,MacIntel,59.84082341,,,,,,,,,,,,,,,,,,,,,,,,,,,,,,,,,,,,,,,,,,,,,,,,,,,,,,,,,,,,,,,,,,,,,,,,,,,,,,,,,,,,,,,,,
,,1,1.2781,1,1.2781,0,53,53,33,1,131,cactus,garden,,90095,001,2022-04-25_22h09.40.705,SPAMnetsValid,2021.1.4,MacIntel,59.84082341,,,,,,,,,,,,,,,,,,,,,,,,,,,,,,,,,,,,,,,,,,,,,,,,,,,,,,,,,,,,,,,,,,,,,,,,,,,,,,,,,,,,,,,,,
,,9,1.1462,9,1.1462,0,54,54,86,1,193,melon,melon,CHECK,90095,001,2022-04-25_22h09.40.705,SPAMnetsValid,2021.1.4,MacIntel,59.84082341,,,,,,,,,,,,,,,,,,,,,,,,,,,,,,,,,,,,,,,,,,,,,,,,,,,,,,,,,,,,,,,,,,,,,,,,,,,,,,,,,,,,,,,,,
,,7,1.7965,7,1.7965,0,55,55,38,1,155,carrot,cookie,,90095,001,2022-04-25_22h09.40.705,SPAMnetsValid,2021.1.4,MacIntel,59.84082341,,,,,,,,,,,,,,,,,,,,,,,,,,,,,,,,,,,,,,,,,,,,,,,,,,,,,,,,,,,,,,,,,,,,,,,,,,,,,,,,,,,,,,,,,
,,1,1.3837,1,1.3837,0,56,56,90,1,190,microwave,strawberry,,90095,001,2022-04-25_22h09.40.705,SPAMnetsValid,2021.1.4,MacIntel,59.84082341,,,,,,,,,,,,,,,,,,,,,,,,,,,,,,,,,,,,,,,,,,,,,,,,,,,,,,,,,,,,,,,,,,,,,,,,,,,,,,,,,,,,,,,,,
,,1,1.6653,1,1.6653,0,57,57,62,1,189,onion,tree,,90095,001,2022-04-25_22h09.40.705,SPAMnetsValid,2021.1.4,MacIntel,59.84082341,,,,,,,,,,,,,,,,,,,,,,,,,,,,,,,,,,,,,,,,,,,,,,,,,,,,,,,,,,,,,,,,,,,,,,,,,,,,,,,,,,,,,,,,,
,,9,1.6132,9,1.6132,0,58,58,66,1,150,microwave,refrigerator,,90095,001,2022-04-25_22h09.40.705,SPAMnetsValid,2021.1.4,MacIntel,59.84082341,,,,,,,,,,,,,,,,,,,,,,,,,,,,,,,,,,,,,,,,,,,,,,,,,,,,,,,,,,,,,,,,,,,,,,,,,,,,,,,,,,,,,,,,,
,,1,1.8318,1,1.8318,0,59,59,91,1,166,cake,yogurt,,90095,001,2022-04-25_22h09.40.705,SPAMnetsValid,2021.1.4,MacIntel,59.84082341,,,,,,,,,,,,,,,,,,,,,,,,,,,,,,,,,,,,,,,,,,,,,,,,,,,,,,,,,,,,,,,,,,,,,,,,,,,,,,,,,,,,,,,,,
,,9,1.1461,9,1.1461,0,60,60,44,1,116,cake,chocolate,,90095,001,2022-04-25_22h09.40.705,SPAMnetsValid,2021.1.4,MacIntel,59.84082341,,,,,,,,,,,,,,,,,,,,,,,,,,,,,,,,,,,,,,,,,,,,,,,,,,,,,,,,,,,,,,,,,,,,,,,,,,,,,,,,,,,,,,,,,
,,9,1.2398,9,1.2398,0,61,61,87,1,114,cookie,strawberry,,90095,001,2022-04-25_22h09.40.705,SPAMnetsValid,2021.1.4,MacIntel,59.84082341,,,,,,,,,,,,,,,,,,,,,,,,,,,,,,,,,,,,,,,,,,,,,,,,,,,,,,,,,,,,,,,,,,,,,,,,,,,,,,,,,,,,,,,,,
,,1,1.4454,1,1.4454,0,62,62,30,1,125,carrot,tree,,90095,001,2022-04-25_22h09.40.705,SPAMnetsValid,2021.1.4,MacIntel,59.84082341,,,,,,,,,,,,,,,,,,,,,,,,,,,,,,,,,,,,,,,,,,,,,,,,,,,,,,,,,,,,,,,,,,,,,,,,,,,,,,,,,,,,,,,,,
,,9,1.3351,9,1.3351,0,63,63,43,1,185,cactus,rose,,90095,001,2022-04-25_22h09.40.705,SPAMnetsValid,2021.1.4,MacIntel,59.84082341,,,,,,,,,,,,,,,,,,,,,,,,,,,,,,,,,,,,,,,,,,,,,,,,,,,,,,,,,,,,,,,,,,,,,,,,,,,,,,,,,,,,,,,,,
,,1,1.3792,1,1.3792,0,64,64,10,1,118,chocolate,oven,,90095,001,2022-04-25_22h09.40.705,SPAMnetsValid,2021.1.4,MacIntel,59.84082341,,,,,,,,,,,,,,,,,,,,,,,,,,,,,,,,,,,,,,,,,,,,,,,,,,,,,,,,,,,,,,,,,,,,,,,,,,,,,,,,,,,,,,,,,
,,9,1.2311,9,1.2311,0,65,65,11,1,117,melon,strawberry,,90095,001,2022-04-25_22h09.40.705,SPAMnetsValid,2021.1.4,MacIntel,59.84082341,,,,,,,,,,,,,,,,,,,,,,,,,,,,,,,,,,,,,,,,,,,,,,,,,,,,,,,,,,,,,,,,,,,,,,,,,,,,,,,,,,,,,,,,,
,,1,1.4673,1,1.4673,0,66,66,31,1,156,melon,rose,,90095,001,2022-04-25_22h09.40.705,SPAMnetsValid,2021.1.4,MacIntel,59.84082341,,,,,,,,,,,,,,,,,,,,,,,,,,,,,,,,,,,,,,,,,,,,,,,,,,,,,,,,,,,,,,,,,,,,,,,,,,,,,,,,,,,,,,,,,
,,9,2.483,9,2.483,0,67,67,1,1,173,kitchen,tomato,,90095,001,2022-04-25_22h09.40.705,SPAMnetsValid,2021.1.4,MacIntel,59.84082341,,,,,,,,,,,,,,,,,,,,,,,,,,,,,,,,,,,,,,,,,,,,,,,,,,,,,,,,,,,,,,,,,,,,,,,,,,,,,,,,,,,,,,,,,
,,9,1.2027,9,1.2027,0,68,68,7,1,188,flower,tree,,90095,001,2022-04-25_22h09.40.705,SPAMnetsValid,2021.1.4,MacIntel,59.84082341,,,,,,,,,,,,,,,,,,,,,,,,,,,,,,,,,,,,,,,,,,,,,,,,,,,,,,,,,,,,,,,,,,,,,,,,,,,,,,,,,,,,,,,,,
,,3,1.1133,3,1.1133,0,69,69,63,1,137,microwave,tree,,90095,001,2022-04-25_22h09.40.705,SPAMnetsValid,2021.1.4,MacIntel,59.84082341,,,,,,,,,,,,,,,,,,,,,,,,,,,,,,,,,,,,,,,,,,,,,,,,,,,,,,,,,,,,,,,,,,,,,,,,,,,,,,,,,,,,,,,,,
,,9,1.262,9,1.262,0,70,70,46,1,123,cookie,tree,,90095,001,2022-04-25_22h09.40.705,SPAMnetsValid,2021.1.4,MacIntel,59.84082341,,,,,,,,,,,,,,,,,,,,,,,,,,,,,,,,,,,,,,,,,,,,,,,,,,,,,,,,,,,,,,,,,,,,,,,,,,,,,,,,,,,,,,,,,
,,1,1.9014,1,1.9014,0,71,71,83,1,100,garden,tomato,,90095,001,2022-04-25_22h09.40.705,SPAMnetsValid,2021.1.4,MacIntel,59.84082341,,,,,,,,,,,,,,,,,,,,,,,,,,,,,,,,,,,,,,,,,,,,,,,,,,,,,,,,,,,,,,,,,,,,,,,,,,,,,,,,,,,,,,,,,
,,2,2.0289,2,2.0289,0,72,72,4,1,109,broom,strawberry,,90095,001,2022-04-25_22h09.40.705,SPAMnetsValid,2021.1.4,MacIntel,59.84082341,,,,,,,,,,,,,,,,,,,,,,,,,,,,,,,,,,,,,,,,,,,,,,,,,,,,,,,,,,,,,,,,,,,,,,,,,,,,,,,,,,,,,,,,,
,,9,1.4145,9,1.4145,0,73,73,14,1,120,microwave,oven,,90095,001,2022-04-25_22h09.40.705,SPAMnetsValid,2021.1.4,MacIntel,59.84082341,,,,,,,,,,,,,,,,,,,,,,,,,,,,,,,,,,,,,,,,,,,,,,,,,,,,,,,,,,,,,,,,,,,,,,,,,,,,,,,,,,,,,,,,,
,,1,1.6258,1,1.6258,0,74,74,15,1,145,cactus,yogurt,,90095,001,2022-04-25_22h09.40.705,SPAMnetsValid,2021.1.4,MacIntel,59.84082341,,,,,,,,,,,,,,,,,,,,,,,,,,,,,,,,,,,,,,,,,,,,,,,,,,,,,,,,,,,,,,,,,,,,,,,,,,,,,,,,,,,,,,,,,
,,6,1.9011,6,1.9011,0,75,75,74,1,128,melon,microwave,,90095,001,2022-04-25_22h09.40.705,SPAMnetsValid,2021.1.4,MacIntel,59.84082341,,,,,,,,,,,,,,,,,,,,,,,,,,,,,,,,,,,,,,,,,,,,,,,,,,,,,,,,,,,,,,,,,,,,,,,,,,,,,,,,,,,,,,,,,
,,9,1.5297,9,1.5297,0,76,76,22,1,142,garden,tree,,90095,001,2022-04-25_22h09.40.705,SPAMnetsValid,2021.1.4,MacIntel,59.84082341,,,,,,,,,,,,,,,,,,,,,,,,,,,,,,,,,,,,,,,,,,,,,,,,,,,,,,,,,,,,,,,,,,,,,,,,,,,,,,,,,,,,,,,,,
,,9,1.2826,9,1.2826,0,77,77,13,1,105,cactus,oven,,90095,001,2022-04-25_22h09.40.705,SPAMnetsValid,2021.1.4,MacIntel,59.84082341,,,,,,,,,,,,,,,,,,,,,,,,,,,,,,,,,,,,,,,,,,,,,,,,,,,,,,,,,,,,,,,,,,,,,,,,,,,,,,,,,,,,,,,,,
,,1,1.7476,1,1.7476,0,78,78,3,1,129,cactus,refrigerator,,90095,001,2022-04-25_22h09.40.705,SPAMnetsValid,2021.1.4,MacIntel,59.84082341,,,,,,,,,,,,,,,,,,,,,,,,,,,,,,,,,,,,,,,,,,,,,,,,,,,,,,,,,,,,,,,,,,,,,,,,,,,,,,,,,,,,,,,,,
,,6,3.5184,6,3.5184,0,79,79,93,1,134,carrot,flower,,90095,001,2022-04-25_22h09.40.705,SPAMnetsValid,2021.1.4,MacIntel,59.84082341,,,,,,,,,,,,,,,,,,,,,,,,,,,,,,,,,,,,,,,,,,,,,,,,,,,,,,,,,,,,,,,,,,,,,,,,,,,,,,,,,,,,,,,,,
,,1,1.9648,1,1.9648,0,80,80,50,1,126,kitchen,tree,,90095,001,2022-04-25_22h09.40.705,SPAMnetsValid,2021.1.4,MacIntel,59.84082341,,,,,,,,,,,,,,,,,,,,,,,,,,,,,,,,,,,,,,,,,,,,,,,,,,,,,,,,,,,,,,,,,,,,,,,,,,,,,,,,,,,,,,,,,
,,1,1.6982,1,1.6982,0,81,81,16,1,111,carrot,microwave,,90095,001,2022-04-25_22h09.40.705,SPAMnetsValid,2021.1.4,MacIntel,59.84082341,,,,,,,,,,,,,,,,,,,,,,,,,,,,,,,,,,,,,,,,,,,,,,,,,,,,,,,,,,,,,,,,,,,,,,,,,,,,,,,,,,,,,,,,,
,,1,1.5291,1,1.5291,0,82,82,73,1,135,carrot,oven,,90095,001,2022-04-25_22h09.40.705,SPAMnetsValid,2021.1.4,MacIntel,59.84082341,,,,,,,,,,,,,,,,,,,,,,,,,,,,,,,,,,,,,,,,,,,,,,,,,,,,,,,,,,,,,,,,,,,,,,,,,,,,,,,,,,,,,,,,,
,,1,1.1295,1,1.1295,0,83,83,24,1,169,onion,yogurt,,90095,001,2022-04-25_22h09.40.705,SPAMnetsValid,2021.1.4,MacIntel,59.84082341,,,,,,,,,,,,,,,,,,,,,,,,,,,,,,,,,,,,,,,,,,,,,,,,,,,,,,,,,,,,,,,,,,,,,,,,,,,,,,,,,,,,,,,,,
,,1,1.1991,1,1.1991,0,84,84,70,1,141,melon,tomato,,90095,001,2022-04-25_22h09.40.705,SPAMnetsValid,2021.1.4,MacIntel,59.84082341,,,,,,,,,,,,,,,,,,,,,,,,,,,,,,,,,,,,,,,,,,,,,,,,,,,,,,,,,,,,,,,,,,,,,,,,,,,,,,,,,,,,,,,,,
,,9,1.9009,9,1.9009,0,85,85,69,1,124,oven,refrigerator,,90095,001,2022-04-25_22h09.40.705,SPAMnetsValid,2021.1.4,MacIntel,59.84082341,,,,,,,,,,,,,,,,,,,,,,,,,,,,,,,,,,,,,,,,,,,,,,,,,,,,,,,,,,,,,,,,,,,,,,,,,,,,,,,,,,,,,,,,,
,,6,2.5663,6,2.5663,0,86,86,41,1,175,melon,onion,,90095,001,2022-04-25_22h09.40.705,SPAMnetsValid,2021.1.4,MacIntel,59.84082341,,,,,,,,,,,,,,,,,,,,,,,,,,,,,,,,,,,,,,,,,,,,,,,,,,,,,,,,,,,,,,,,,,,,,,,,,,,,,,,,,,,,,,,,,
,,8,0.978,8,0.978,0,87,87,47,1,167,carrot,garden,,90095,001,2022-04-25_22h09.40.705,SPAMnetsValid,2021.1.4,MacIntel,59.84082341,,,,,,,,,,,,,,,,,,,,,,,,,,,,,,,,,,,,,,,,,,,,,,,,,,,,,,,,,,,,,,,,,,,,,,,,,,,,,,,,,,,,,,,,,
,,9,0.9944,9,0.9944,0,88,88,84,1,130,microwave,yogurt,,90095,001,2022-04-25_22h09.40.705,SPAMnetsValid,2021.1.4,MacIntel,59.84082341,,,,,,,,,,,,,,,,,,,,,,,,,,,,,,,,,,,,,,,,,,,,,,,,,,,,,,,,,,,,,,,,,,,,,,,,,,,,,,,,,,,,,,,,,
,,8,0.9276,8,0.9276,0,89,89,28,1,154,strawberry,yogurt,,90095,001,2022-04-25_22h09.40.705,SPAMnetsValid,2021.1.4,MacIntel,59.84082341,,,,,,,,,,,,,,,,,,,,,,,,,,,,,,,,,,,,,,,,,,,,,,,,,,,,,,,,,,,,,,,,,,,,,,,,,,,,,,,,,,,,,,,,,
,,9,1.0847,9,1.0847,0,90,90,23,1,148,flower,melon,,90095,001,2022-04-25_22h09.40.705,SPAMnetsValid,2021.1.4,MacIntel,59.84082341,,,,,,,,,,,,,,,,,,,,,,,,,,,,,,,,,,,,,,,,,,,,,,,,,,,,,,,,,,,,,,,,,,,,,,,,,,,,,,,,,,,,,,,,,
,,8,1.1298,8,1.1298,0,91,91,55,1,143,pretzel,rose,,90095,001,2022-04-25_22h09.40.705,SPAMnetsValid,2021.1.4,MacIntel,59.84082341,,,,,,,,,,,,,,,,,,,,,,,,,,,,,,,,,,,,,,,,,,,,,,,,,,,,,,,,,,,,,,,,,,,,,,,,,,,,,,,,,,,,,,,,,
,,7,0.9632,7,0.9632,0,92,92,79,1,103,pretzel,tomato,,90095,001,2022-04-25_22h09.40.705,SPAMnetsValid,2021.1.4,MacIntel,59.84082341,,,,,,,,,,,,,,,,,,,,,,,,,,,,,,,,,,,,,,,,,,,,,,,,,,,,,,,,,,,,,,,,,,,,,,,,,,,,,,,,,,,,,,,,,
,,3,1.1159,3,1.1159,0,93,93,0,1,106,cake,strawberry,,90095,001,2022-04-25_22h09.40.705,SPAMnetsValid,2021.1.4,MacIntel,59.84082341,,,,,,,,,,,,,,,,,,,,,,,,,,,,,,,,,,,,,,,,,,,,,,,,,,,,,,,,,,,,,,,,,,,,,,,,,,,,,,,,,,,,,,,,,
,,9,1.1444,9,1.1444,0,94,94,32,1,182,flower,refrigerator,,90095,001,2022-04-25_22h09.40.705,SPAMnetsValid,2021.1.4,MacIntel,59.84082341,,,,,,,,,,,,,,,,,,,,,,,,,,,,,,,,,,,,,,,,,,,,,,,,,,,,,,,,,,,,,,,,,,,,,,,,,,,,,,,,,,,,,,,,,
,,9,1.797,9,1.797,0,95,95,39,1,112,cake,carrot,,90095,001,2022-04-25_22h09.40.705,SPAMnetsValid,2021.1.4,MacIntel,59.84082341,,,,,,,,,,,,,,,,,,,,,,,,,,,,,,,,,,,,,,,,,,,,,,,,,,,,,,,,,,,,,,,,,,,,,,,,,,,,,,,,,,,,,,,,,
,,7,3.8199,7,3.8199,0,96,96,37,1,139,carrot,strawberry,,90095,001,2022-04-25_22h09.40.705,SPAMnetsValid,2021.1.4,MacIntel,59.84082341,,,,,,,,,,,,,,,,,,,,,,,,,,,,,,,,,,,,,,,,,,,,,,,,,,,,,,,,,,,,,,,,,,,,,,,,,,,,,,,,,,,,,,,,,
,,,,,,,,,,,,,,,90095,001,2022-04-25_22h09.40.705,SPAMnetsValid,2021.1.4,MacIntel,59.84082341,0,0,0,0,1,,,,,,,,,,,,,,,,,,,,,,,,,,,,,,,,,,,,,,,,,,,,,,,,,,,,,,,,,,,,,,,,,,,,,,,,,,,,,,,,,,,,
,,,,,,,,,,,,,,,90095,001,2022-04-25_22h09.40.705,SPAMnetsValid,2021.1.4,MacIntel,59.84082341,,,,,,0,0,0,1,1,0,1,,,,,,,,,,,,,,,,,,,,,,,,,,,,,,,,,,,,,,,,,,,,,,,,,,,,,,,,,,,,,,,,,,,,,,,,,,,,,
,,,,3,10.5826,,,,,,35,flower,pretzel,,90095,001,2022-04-25_22h09.40.705,SPAMnetsValid,2021.1.4,MacIntel,59.84082341,,,,,,,,,,,,,3,10.5826,0,0,0,26,1,,,,,,,,,,,,,,,,,,,,,,,,,,,,,,,,,,,,,,,,,,,,,,,,,,,,,,,,,,,,,,,,,,,,,,
,,,,7,0.961,,,,,,86,oven,rose,,90095,001,2022-04-25_22h09.40.705,SPAMnetsValid,2021.1.4,MacIntel,59.84082341,,,,,,,,,,,,,7,0.961,0,1,1,79,1,,,,,,,,,,,,,,,,,,,,,,,,,,,,,,,,,,,,,,,,,,,,,,,,,,,,,,,,,,,,,,,,,,,,,,
,,,,3,0.9004,,,,,,23,flower,microwave,,90095,001,2022-04-25_22h09.40.705,SPAMnetsValid,2021.1.4,MacIntel,59.84082341,,,,,,,,,,,,,3,0.9004,0,2,2,25,1,,,,,,,,,,,,,,,,,,,,,,,,,,,,,,,,,,,,,,,,,,,,,,,,,,,,,,,,,,,,,,,,,,,,,,
,,,,8,0.8457,,,,,,192,microwave,microwave,CHECK,90095,001,2022-04-25_22h09.40.705,SPAMnetsValid,2021.1.4,MacIntel,59.84082341,,,,,,,,,,,,,8,0.8457,0,3,3,53,1,,,,,,,,,,,,,,,,,,,,,,,,,,,,,,,,,,,,,,,,,,,,,,,,,,,,,,,,,,,,,,,,,,,,,,
,,,,8,0.8448,,,,,,19,microwave,pretzel,,90095,001,2022-04-25_22h09.40.705,SPAMnetsValid,2021.1.4,MacIntel,59.84082341,,,,,,,,,,,,,8,0.8448,0,4,4,41,1,,,,,,,,,,,,,,,,,,,,,,,,,,,,,,,,,,,,,,,,,,,,,,,,,,,,,,,,,,,,,,,,,,,,,,
,,,,1,0.9452,,,,,,39,melon,pretzel,,90095,001,2022-04-25_22h09.40.705,SPAMnetsValid,2021.1.4,MacIntel,59.84082341,,,,,,,,,,,,,1,0.9452,0,5,5,20,1,,,,,,,,,,,,,,,,,,,,,,,,,,,,,,,,,,,,,,,,,,,,,,,,,,,,,,,,,,,,,,,,,,,,,,
,,,,8,0.8112,,,,,,27,cactus,cookie,,90095,001,2022-04-25_22h09.40.705,SPAMnetsValid,2021.1.4,MacIntel,59.84082341,,,,,,,,,,,,,8,0.8112,0,6,6,17,1,,,,,,,,,,,,,,,,,,,,,,,,,,,,,,,,,,,,,,,,,,,,,,,,,,,,,,,,,,,,,,,,,,,,,,
,,,,9,2.0989,,,,,,48,flower,oven,,90095,001,2022-04-25_22h09.40.705,SPAMnetsValid,2021.1.4,MacIntel,59.84082341,,,,,,,,,,,,,9,2.0989,0,7,7,15,1,,,,,,,,,,,,,,,,,,,,,,,,,,,,,,,,,,,,,,,,,,,,,,,,,,,,,,,,,,,,,,,,,,,,,,
,,,,6,1.2979,,,,,,11,refrigerator,tree,,90095,001,2022-04-25_22h09.40.705,SPAMnetsValid,2021.1.4,MacIntel,59.84082341,,,,,,,,,,,,,6,1.2979,0,8,8,43,1,,,,,,,,,,,,,,,,,,,,,,,,,,,,,,,,,,,,,,,,,,,,,,,,,,,,,,,,,,,,,,,,,,,,,,
,,,,2,1.8665,,,,,,77,refrigerator,yogurt,,90095,001,2022-04-25_22h09.40.705,SPAMnetsValid,2021.1.4,MacIntel,59.84082341,,,,,,,,,,,,,2,1.8665,0,9,9,42,1,,,,,,,,,,,,,,,,,,,,,,,,,,,,,,,,,,,,,,,,,,,,,,,,,,,,,,,,,,,,,,,,,,,,,,
,,,,8,3.2737,,,,,,61,strawberry,tomato,,90095,001,2022-04-25_22h09.40.705,SPAMnetsValid,2021.1.4,MacIntel,59.84082341,,,,,,,,,,,,,8,3.2737,0,10,10,80,1,,,,,,,,,,,,,,,,,,,,,,,,,,,,,,,,,,,,,,,,,,,,,,,,,,,,,,,,,,,,,,,,,,,,,,
,,,,7,1.4122,,,,,,22,kitchen,strawberry,,90095,001,2022-04-25_22h09.40.705,SPAMnetsValid,2021.1.4,MacIntel,59.84082341,,,,,,,,,,,,,7,1.4122,0,11,11,2,1,,,,,,,,,,,,,,,,,,,,,,,,,,,,,,,,,,,,,,,,,,,,,,,,,,,,,,,,,,,,,,,,,,,,,,
,,,,9,1.1127,,,,,,25,carrot,onion,,90095,001,2022-04-25_22h09.40.705,SPAMnetsValid,2021.1.4,MacIntel,59.84082341,,,,,,,,,,,,,9,1.1127,0,12,12,44,1,,,,,,,,,,,,,,,,,,,,,,,,,,,,,,,,,,,,,,,,,,,,,,,,,,,,,,,,,,,,,,,,,,,,,,
,,,,7,1.8326,,,,,,36,broom,kitchen,,90095,001,2022-04-25_22h09.40.705,SPAMnetsValid,2021.1.4,MacIntel,59.84082341,,,,,,,,,,,,,7,1.8326,0,13,13,76,1,,,,,,,,,,,,,,,,,,,,,,,,,,,,,,,,,,,,,,,,,,,,,,,,,,,,,,,,,,,,,,,,,,,,,,
,,,,2,2.9344,,,,,,55,tomato,tree,,90095,001,2022-04-25_22h09.40.705,SPAMnetsValid,2021.1.4,MacIntel,59.84082341,,,,,,,,,,,,,2,2.9344,0,14,14,35,1,,,,,,,,,,,,,,,,,,,,,,,,,,,,,,,,,,,,,,,,,,,,,,,,,,,,,,,,,,,,,,,,,,,,,,
,,,,8,1.4799,,,,,,73,broom,chocolate,,90095,001,2022-04-25_22h09.40.705,SPAMnetsValid,2021.1.4,MacIntel,59.84082341,,,,,,,,,,,,,8,1.4799,0,15,15,47,1,,,,,,,,,,,,,,,,,,,,,,,,,,,,,,,,,,,,,,,,,,,,,,,,,,,,,,,,,,,,,,,,,,,,,,
,,,,2,2.7833,,,,,,95,broom,refrigerator,,90095,001,2022-04-25_22h09.40.705,SPAMnetsValid,2021.1.4,MacIntel,59.84082341,,,,,,,,,,,,,2,2.7833,0,16,16,90,1,,,,,,,,,,,,,,,,,,,,,,,,,,,,,,,,,,,,,,,,,,,,,,,,,,,,,,,,,,,,,,,,,,,,,,
,,,,2,3.0688,,,,,,92,broom,flower,,90095,001,2022-04-25_22h09.40.705,SPAMnetsValid,2021.1.4,MacIntel,59.84082341,,,,,,,,,,,,,2,3.0688,0,17,17,88,1,,,,,,,,,,,,,,,,,,,,,,,,,,,,,,,,,,,,,,,,,,,,,,,,,,,,,,,,,,,,,,,,,,,,,,
,,,,8,2.3347,,,,,,94,kitchen,microwave,,90095,001,2022-04-25_22h09.40.705,SPAMnetsValid,2021.1.4,MacIntel,59.84082341,,,,,,,,,,,,,8,2.3347,0,18,18,58,1,,,,,,,,,,,,,,,,,,,,,,,,,,,,,,,,,,,,,,,,,,,,,,,,,,,,,,,,,,,,,,,,,,,,,,
,,,,2,1.2123,,,,,,76,garden,rose,,90095,001,2022-04-25_22h09.40.705,SPAMnetsValid,2021.1.4,MacIntel,59.84082341,,,,,,,,,,,,,2,1.2123,0,19,19,19,1,,,,,,,,,,,,,,,,,,,,,,,,,,,,,,,,,,,,,,,,,,,,,,,,,,,,,,,,,,,,,,,,,,,,,,
,,,,8,2.449,,,,,,7,melon,tree,,90095,001,2022-04-25_22h09.40.705,SPAMnetsValid,2021.1.4,MacIntel,59.84082341,,,,,,,,,,,,,8,2.449,0,20,20,77,1,,,,,,,,,,,,,,,,,,,,,,,,,,,,,,,,,,,,,,,,,,,,,,,,,,,,,,,,,,,,,,,,,,,,,,
,,,,1,1.83,,,,,,80,chocolate,tree,,90095,001,2022-04-25_22h09.40.705,SPAMnetsValid,2021.1.4,MacIntel,59.84082341,,,,,,,,,,,,,1,1.83,0,21,21,89,1,,,,,,,,,,,,,,,,,,,,,,,,,,,,,,,,,,,,,,,,,,,,,,,,,,,,,,,,,,,,,,,,,,,,,,
,,,,1,2.3484,,,,,,42,garden,kitchen,,90095,001,2022-04-25_22h09.40.705,SPAMnetsValid,2021.1.4,MacIntel,59.84082341,,,,,,,,,,,,,1,2.3484,0,22,22,29,1,,,,,,,,,,,,,,,,,,,,,,,,,,,,,,,,,,,,,,,,,,,,,,,,,,,,,,,,,,,,,,,,,,,,,,
,,,,2,4.3904,,,,,,5,oven,tree,,90095,001,2022-04-25_22h09.40.705,SPAMnetsValid,2021.1.4,MacIntel,59.84082341,,,,,,,,,,,,,2,4.3904,0,23,23,70,1,,,,,,,,,,,,,,,,,,,,,,,,,,,,,,,,,,,,,,,,,,,,,,,,,,,,,,,,,,,,,,,,,,,,,,
,,,,8,1.5297,,,,,,53,garden,pretzel,,90095,001,2022-04-25_22h09.40.705,SPAMnetsValid,2021.1.4,MacIntel,59.84082341,,,,,,,,,,,,,8,1.5297,0,24,24,0,1,,,,,,,,,,,,,,,,,,,,,,,,,,,,,,,,,,,,,,,,,,,,,,,,,,,,,,,,,,,,,,,,,,,,,,
,,,,3,2.1042,,,,,,21,cake,onion,,90095,001,2022-04-25_22h09.40.705,SPAMnetsValid,2021.1.4,MacIntel,59.84082341,,,,,,,,,,,,,3,2.1042,0,25,25,63,1,,,,,,,,,,,,,,,,,,,,,,,,,,,,,,,,,,,,,,,,,,,,,,,,,,,,,,,,,,,,,,,,,,,,,,
,,,,7,2.6516,,,,,,30,cookie,pretzel,,90095,001,2022-04-25_22h09.40.705,SPAMnetsValid,2021.1.4,MacIntel,59.84082341,,,,,,,,,,,,,7,2.6516,0,26,26,78,1,,,,,,,,,,,,,,,,,,,,,,,,,,,,,,,,,,,,,,,,,,,,,,,,,,,,,,,,,,,,,,,,,,,,,,
,,,,2,1.6471,,,,,,24,cookie,tomato,,90095,001,2022-04-25_22h09.40.705,SPAMnetsValid,2021.1.4,MacIntel,59.84082341,,,,,,,,,,,,,2,1.6471,0,27,27,68,1,,,,,,,,,,,,,,,,,,,,,,,,,,,,,,,,,,,,,,,,,,,,,,,,,,,,,,,,,,,,,,,,,,,,,,
,,,,8,1.8526,,,,,,82,cake,kitchen,,90095,001,2022-04-25_22h09.40.705,SPAMnetsValid,2021.1.4,MacIntel,59.84082341,,,,,,,,,,,,,8,1.8526,0,28,28,96,1,,,,,,,,,,,,,,,,,,,,,,,,,,,,,,,,,,,,,,,,,,,,,,,,,,,,,,,,,,,,,,,,,,,,,,
,,,,1,3.5738,,,,,,26,tomato,yogurt,,90095,001,2022-04-25_22h09.40.705,SPAMnetsValid,2021.1.4,MacIntel,59.84082341,,,,,,,,,,,,,1,3.5738,0,29,29,13,1,,,,,,,,,,,,,,,,,,,,,,,,,,,,,,,,,,,,,,,,,,,,,,,,,,,,,,,,,,,,,,,,,,,,,,
,,,,3,6.4949,,,,,,90,cactus,cake,,90095,001,2022-04-25_22h09.40.705,SPAMnetsValid,2021.1.4,MacIntel,59.84082341,,,,,,,,,,,,,3,6.4949,0,30,30,85,1,,,,,,,,,,,,,,,,,,,,,,,,,,,,,,,,,,,,,,,,,,,,,,,,,,,,,,,,,,,,,,,,,,,,,,
,,,,2,4.4885,,,,,,65,broom,garden,,90095,001,2022-04-25_22h09.40.705,SPAMnetsValid,2021.1.4,MacIntel,59.84082341,,,,,,,,,,,,,2,4.4885,0,31,31,23,1,,,,,,,,,,,,,,,,,,,,,,,,,,,,,,,,,,,,,,,,,,,,,,,,,,,,,,,,,,,,,,,,,,,,,,
,,,,9,1.5296,,,,,,191,cake,cake,CHECK,90095,001,2022-04-25_22h09.40.705,SPAMnetsValid,2021.1.4,MacIntel,59.84082341,,,,,,,,,,,,,9,1.5296,0,32,32,10,1,,,,,,,,,,,,,,,,,,,,,,,,,,,,,,,,,,,,,,,,,,,,,,,,,,,,,,,,,,,,,,,,,,,,,,
,,,,2,1.9483,,,,,,44,cookie,melon,,90095,001,2022-04-25_22h09.40.705,SPAMnetsValid,2021.1.4,MacIntel,59.84082341,,,,,,,,,,,,,2,1.9483,0,33,33,92,1,,,,,,,,,,,,,,,,,,,,,,,,,,,,,,,,,,,,,,,,,,,,,,,,,,,,,,,,,,,,,,,,,,,,,,
,,,,7,1.8993,,,,,,45,onion,pretzel,,90095,001,2022-04-25_22h09.40.705,SPAMnetsValid,2021.1.4,MacIntel,59.84082341,,,,,,,,,,,,,7,1.8993,0,34,34,69,1,,,,,,,,,,,,,,,,,,,,,,,,,,,,,,,,,,,,,,,,,,,,,,,,,,,,,,,,,,,,,,,,,,,,,,
,,,,8,1.6832,,,,,,57,flower,kitchen,,90095,001,2022-04-25_22h09.40.705,SPAMnetsValid,2021.1.4,MacIntel,59.84082341,,,,,,,,,,,,,8,1.6832,0,35,35,49,1,,,,,,,,,,,,,,,,,,,,,,,,,,,,,,,,,,,,,,,,,,,,,,,,,,,,,,,,,,,,,,,,,,,,,,
,,,,3,1.4801,,,,,,6,garden,onion,,90095,001,2022-04-25_22h09.40.705,SPAMnetsValid,2021.1.4,MacIntel,59.84082341,,,,,,,,,,,,,3,1.4801,0,36,36,83,1,,,,,,,,,,,,,,,,,,,,,,,,,,,,,,,,,,,,,,,,,,,,,,,,,,,,,,,,,,,,,,,,,,,,,,
,,,,2,37.3376,,,,,,34,melon,oven,,90095,001,2022-04-25_22h09.40.705,SPAMnetsValid,2021.1.4,MacIntel,59.84082341,,,,,,,,,,,,,2,37.3376,0,37,37,7,1,,,,,,,,,,,,,,,,,,,,,,,,,,,,,,,,,,,,,,,,,,,,,,,,,,,,,,,,,,,,,,,,,,,,,,
,,,,2,1.6404,,,,,,29,chocolate,melon,,90095,001,2022-04-25_22h09.40.705,SPAMnetsValid,2021.1.4,MacIntel,59.84082341,,,,,,,,,,,,,2,1.6404,0,38,38,34,1,,,,,,,,,,,,,,,,,,,,,,,,,,,,,,,,,,,,,,,,,,,,,,,,,,,,,,,,,,,,,,,,,,,,,,
,,,,3,7.2322,,,,,,37,garden,refrigerator,,90095,001,2022-04-25_22h09.40.705,SPAMnetsValid,2021.1.4,MacIntel,59.84082341,,,,,,,,,,,,,3,7.2322,0,39,39,11,1,,,,,,,,,,,,,,,,,,,,,,,,,,,,,,,,,,,,,,,,,,,,,,,,,,,,,,,,,,,,,,,,,,,,,,
,,,,7,2.4921,,,,,,52,carrot,tomato,,90095,001,2022-04-25_22h09.40.705,SPAMnetsValid,2021.1.4,MacIntel,59.84082341,,,,,,,,,,,,,7,2.4921,0,40,40,95,1,,,,,,,,,,,,,,,,,,,,,,,,,,,,,,,,,,,,,,,,,,,,,,,,,,,,,,,,,,,,,,,,,,,,,,
,,,,7,3.0851,,,,,,15,onion,oven,,90095,001,2022-04-25_22h09.40.705,SPAMnetsValid,2021.1.4,MacIntel,59.84082341,,,,,,,,,,,,,7,3.0851,0,41,41,39,1,,,,,,,,,,,,,,,,,,,,,,,,,,,,,,,,,,,,,,,,,,,,,,,,,,,,,,,,,,,,,,,,,,,,,,
,,,,3,1.4803,,,,,,85,cake,tree,,90095,001,2022-04-25_22h09.40.705,SPAMnetsValid,2021.1.4,MacIntel,59.84082341,,,,,,,,,,,,,3,1.4803,0,42,42,18,1,,,,,,,,,,,,,,,,,,,,,,,,,,,,,,,,,,,,,,,,,,,,,,,,,,,,,,,,,,,,,,,,,,,,,,
,,,,2,1.3967,,,,,,81,pretzel,yogurt,,90095,001,2022-04-25_22h09.40.705,SPAMnetsValid,2021.1.4,MacIntel,59.84082341,,,,,,,,,,,,,2,1.3967,0,43,43,50,1,,,,,,,,,,,,,,,,,,,,,,,,,,,,,,,,,,,,,,,,,,,,,,,,,,,,,,,,,,,,,,,,,,,,,,
,,,,2,1.6816,,,,,,12,cookie,yogurt,,90095,001,2022-04-25_22h09.40.705,SPAMnetsValid,2021.1.4,MacIntel,59.84082341,,,,,,,,,,,,,2,1.6816,0,44,44,36,1,,,,,,,,,,,,,,,,,,,,,,,,,,,,,,,,,,,,,,,,,,,,,,,,,,,,,,,,,,,,,,,,,,,,,,
,,,,2,1.7476,,,,,,43,chocolate,tomato,,90095,001,2022-04-25_22h09.40.705,SPAMnetsValid,2021.1.4,MacIntel,59.84082341,,,,,,,,,,,,,2,1.7476,0,45,45,8,1,,,,,,,,,,,,,,,,,,,,,,,,,,,,,,,,,,,,,,,,,,,,,,,,,,,,,,,,,,,,,,,,,,,,,,
,,,,3,1.3476,,,,,,75,cookie,onion,,90095,001,2022-04-25_22h09.40.705,SPAMnetsValid,2021.1.4,MacIntel,59.84082341,,,,,,,,,,,,,3,1.3476,0,46,46,9,1,,,,,,,,,,,,,,,,,,,,,,,,,,,,,,,,,,,,,,,,,,,,,,,,,,,,,,,,,,,,,,,,,,,,,,
,,,,3,1.3646,,,,,,40,broom,cake,,90095,001,2022-04-25_22h09.40.705,SPAMnetsValid,2021.1.4,MacIntel,59.84082341,,,,,,,,,,,,,3,1.3646,0,47,47,32,1,,,,,,,,,,,,,,,,,,,,,,,,,,,,,,,,,,,,,,,,,,,,,,,,,,,,,,,,,,,,,,,,,,,,,,
,,,,3,1.3166,,,,,,60,cactus,onion,,90095,001,2022-04-25_22h09.40.705,SPAMnetsValid,2021.1.4,MacIntel,59.84082341,,,,,,,,,,,,,3,1.3166,0,48,48,81,1,,,,,,,,,,,,,,,,,,,,,,,,,,,,,,,,,,,,,,,,,,,,,,,,,,,,,,,,,,,,,,,,,,,,,,
,,,,3,0.8947,,,,,,70,chocolate,onion,,90095,001,2022-04-25_22h09.40.705,SPAMnetsValid,2021.1.4,MacIntel,59.84082341,,,,,,,,,,,,,3,0.8947,0,49,49,74,1,,,,,,,,,,,,,,,,,,,,,,,,,,,,,,,,,,,,,,,,,,,,,,,,,,,,,,,,,,,,,,,,,,,,,,
,,,,3,0.9954,,,,,,74,broom,pretzel,,90095,001,2022-04-25_22h09.40.705,SPAMnetsValid,2021.1.4,MacIntel,59.84082341,,,,,,,,,,,,,3,0.9954,0,50,50,40,1,,,,,,,,,,,,,,,,,,,,,,,,,,,,,,,,,,,,,,,,,,,,,,,,,,,,,,,,,,,,,,,,,,,,,,
,,,,2,1.1131,,,,,,79,garden,strawberry,,90095,001,2022-04-25_22h09.40.705,SPAMnetsValid,2021.1.4,MacIntel,59.84082341,,,,,,,,,,,,,2,1.1131,0,51,51,87,1,,,,,,,,,,,,,,,,,,,,,,,,,,,,,,,,,,,,,,,,,,,,,,,,,,,,,,,,,,,,,,,,,,,,,,
,,,,9,1.6641,,,,,,54,chocolate,yogurt,,90095,001,2022-04-25_22h09.40.705,SPAMnetsValid,2021.1.4,MacIntel,59.84082341,,,,,,,,,,,,,9,1.6641,0,52,52,67,1,,,,,,,,,,,,,,,,,,,,,,,,,,,,,,,,,,,,,,,,,,,,,,,,,,,,,,,,,,,,,,,,,,,,,,
,,,,2,1.8152,,,,,,59,rose,strawberry,,90095,001,2022-04-25_22h09.40.705,SPAMnetsValid,2021.1.4,MacIntel,59.84082341,,,,,,,,,,,,,2,1.8152,0,53,53,72,1,,,,,,,,,,,,,,,,,,,,,,,,,,,,,,,,,,,,,,,,,,,,,,,,,,,,,,,,,,,,,,,,,,,,,,
,,,,9,1.3646,,,,,,9,kitchen,refrigerator,,90095,001,2022-04-25_22h09.40.705,SPAMnetsValid,2021.1.4,MacIntel,59.84082341,,,,,,,,,,,,,9,1.3646,0,54,54,64,1,,,,,,,,,,,,,,,,,,,,,,,,,,,,,,,,,,,,,,,,,,,,,,,,,,,,,,,,,,,,,,,,,,,,,,
,,,,7,7.1042,,,,,,4,chocolate,pretzel,,90095,001,2022-04-25_22h09.40.705,SPAMnetsValid,2021.1.4,MacIntel,59.84082341,,,,,,,,,,,,,7,7.1042,0,55,55,52,1,,,,,,,,,,,,,,,,,,,,,,,,,,,,,,,,,,,,,,,,,,,,,,,,,,,,,,,,,,,,,,,,,,,,,,
,,,,3,2.3996,,,,,,8,broom,melon,,90095,001,2022-04-25_22h09.40.705,SPAMnetsValid,2021.1.4,MacIntel,59.84082341,,,,,,,,,,,,,3,2.3996,0,56,56,59,1,,,,,,,,,,,,,,,,,,,,,,,,,,,,,,,,,,,,,,,,,,,,,,,,,,,,,,,,,,,,,,,,,,,,,,
,,,,2,10.2897,,,,,,78,cookie,rose,,90095,001,2022-04-25_22h09.40.705,SPAMnetsValid,2021.1.4,MacIntel,59.84082341,,,,,,,,,,,,,2,10.2897,0,57,57,56,1,,,,,,,,,,,,,,,,,,,,,,,,,,,,,,,,,,,,,,,,,,,,,,,,,,,,,,,,,,,,,,,,,,,,,,
,,,,2,0.9577,,,,,,91,microwave,rose,,90095,001,2022-04-25_22h09.40.705,SPAMnetsValid,2021.1.4,MacIntel,59.84082341,,,,,,,,,,,,,2,0.9577,0,58,58,84,1,,,,,,,,,,,,,,,,,,,,,,,,,,,,,,,,,,,,,,,,,,,,,,,,,,,,,,,,,,,,,,,,,,,,,,
,,,,7,2.0109,,,,,,17,carrot,melon,,90095,001,2022-04-25_22h09.40.705,SPAMnetsValid,2021.1.4,MacIntel,59.84082341,,,,,,,,,,,,,7,2.0109,0,59,59,24,1,,,,,,,,,,,,,,,,,,,,,,,,,,,,,,,,,,,,,,,,,,,,,,,,,,,,,,,,,,,,,,,,,,,,,,
,,,,7,8.1142,,,,,,32,cake,microwave,,90095,001,2022-04-25_22h09.40.705,SPAMnetsValid,2021.1.4,MacIntel,59.84082341,,,,,,,,,,,,,7,8.1142,0,60,60,33,1,,,,,,,,,,,,,,,,,,,,,,,,,,,,,,,,,,,,,,,,,,,,,,,,,,,,,,,,,,,,,,,,,,,,,,
,,,,3,1.5854,,,,,,47,onion,tomato,,90095,001,2022-04-25_22h09.40.705,SPAMnetsValid,2021.1.4,MacIntel,59.84082341,,,,,,,,,,,,,3,1.5854,0,61,61,51,1,,,,,,,,,,,,,,,,,,,,,,,,,,,,,,,,,,,,,,,,,,,,,,,,,,,,,,,,,,,,,,,,,,,,,,
,,,,3,1.0782,,,,,,38,pretzel,refrigerator,,90095,001,2022-04-25_22h09.40.705,SPAMnetsValid,2021.1.4,MacIntel,59.84082341,,,,,,,,,,,,,3,1.0782,0,62,62,71,1,,,,,,,,,,,,,,,,,,,,,,,,,,,,,,,,,,,,,,,,,,,,,,,,,,,,,,,,,,,,,,,,,,,,,,
,,,,3,0.9319,,,,,,64,chocolate,garden,,90095,001,2022-04-25_22h09.40.705,SPAMnetsValid,2021.1.4,MacIntel,59.84082341,,,,,,,,,,,,,3,0.9319,0,63,63,14,1,,,,,,,,,,,,,,,,,,,,,,,,,,,,,,,,,,,,,,,,,,,,,,,,,,,,,,,,,,,,,,,,,,,,,,
,,,,3,2.1164,,,,,,84,oven,tomato,,90095,001,2022-04-25_22h09.40.705,SPAMnetsValid,2021.1.4,MacIntel,59.84082341,,,,,,,,,,,,,3,2.1164,0,64,64,28,1,,,,,,,,,,,,,,,,,,,,,,,,,,,,,,,,,,,,,,,,,,,,,,,,,,,,,,,,,,,,,,,,,,,,,,
,,,,3,2.1679,,,,,,69,carrot,refrigerator,,90095,001,2022-04-25_22h09.40.705,SPAMnetsValid,2021.1.4,MacIntel,59.84082341,,,,,,,,,,,,,3,2.1679,0,65,65,75,1,,,,,,,,,,,,,,,,,,,,,,,,,,,,,,,,,,,,,,,,,,,,,,,,,,,,,,,,,,,,,,,,,,,,,,
,,,,2,1.2299,,,,,,41,broom,cactus,,90095,001,2022-04-25_22h09.40.705,SPAMnetsValid,2021.1.4,MacIntel,59.84082341,,,,,,,,,,,,,2,1.2299,0,66,66,46,1,,,,,,,,,,,,,,,,,,,,,,,,,,,,,,,,,,,,,,,,,,,,,,,,,,,,,,,,,,,,,,,,,,,,,,
,,,,8,2.1999,,,,,,93,kitchen,oven,,90095,001,2022-04-25_22h09.40.705,SPAMnetsValid,2021.1.4,MacIntel,59.84082341,,,,,,,,,,,,,8,2.1999,0,67,67,82,1,,,,,,,,,,,,,,,,,,,,,,,,,,,,,,,,,,,,,,,,,,,,,,,,,,,,,,,,,,,,,,,,,,,,,,
,,,,2,10.6197,,,,,,33,oven,yogurt,,90095,001,2022-04-25_22h09.40.705,SPAMnetsValid,2021.1.4,MacIntel,59.84082341,,,,,,,,,,,,,2,10.6197,0,68,68,31,1,,,,,,,,,,,,,,,,,,,,,,,,,,,,,,,,,,,,,,,,,,,,,,,,,,,,,,,,,,,,,,,,,,,,,,
,,,,2,1.196,,,,,,46,garden,yogurt,,90095,001,2022-04-25_22h09.40.705,SPAMnetsValid,2021.1.4,MacIntel,59.84082341,,,,,,,,,,,,,2,1.196,0,69,69,65,1,,,,,,,,,,,,,,,,,,,,,,,,,,,,,,,,,,,,,,,,,,,,,,,,,,,,,,,,,,,,,,,,,,,,,,
,,,,2,1.0679,,,,,,50,carrot,rose,,90095,001,2022-04-25_22h09.40.705,SPAMnetsValid,2021.1.4,MacIntel,59.84082341,,,,,,,,,,,,,2,1.0679,0,70,70,73,1,,,,,,,,,,,,,,,,,,,,,,,,,,,,,,,,,,,,,,,,,,,,,,,,,,,,,,,,,,,,,,,,,,,,,,
,,,,2,0.9709,,,,,,14,broom,cookie,,90095,001,2022-04-25_22h09.40.705,SPAMnetsValid,2021.1.4,MacIntel,59.84082341,,,,,,,,,,,,,2,0.9709,0,71,71,16,1,,,,,,,,,,,,,,,,,,,,,,,,,,,,,,,,,,,,,,,,,,,,,,,,,,,,,,,,,,,,,,,,,,,,,,
,,,,2,0.6673,,,,,,66,melon,yogurt,,90095,001,2022-04-25_22h09.40.705,SPAMnetsValid,2021.1.4,MacIntel,59.84082341,,,,,,,,,,,,,2,0.6673,0,72,72,48,1,,,,,,,,,,,,,,,,,,,,,,,,,,,,,,,,,,,,,,,,,,,,,,,,,,,,,,,,,,,,,,,,,,,,,,
,,,,2,0.6615,,,,,,68,flower,tomato,,90095,001,2022-04-25_22h09.40.705,SPAMnetsValid,2021.1.4,MacIntel,59.84082341,,,,,,,,,,,,,2,0.6615,0,73,73,94,1,,,,,,,,,,,,,,,,,,,,,,,,,,,,,,,,,,,,,,,,,,,,,,,,,,,,,,,,,,,,,,,,,,,,,,
,,,,3,2.151,,,,,,89,chocolate,rose,,90095,001,2022-04-25_22h09.40.705,SPAMnetsValid,2021.1.4,MacIntel,59.84082341,,,,,,,,,,,,,3,2.151,0,74,74,60,1,,,,,,,,,,,,,,,,,,,,,,,,,,,,,,,,,,,,,,,,,,,,,,,,,,,,,,,,,,,,,,,,,,,,,,
,,,,3,1.5641,,,,,,56,cactus,tree,,90095,001,2022-04-25_22h09.40.705,SPAMnetsValid,2021.1.4,MacIntel,59.84082341,,,,,,,,,,,,,3,1.5641,0,75,75,21,1,,,,,,,,,,,,,,,,,,,,,,,,,,,,,,,,,,,,,,,,,,,,,,,,,,,,,,,,,,,,,,,,,,,,,,
,,,,3,0.9804,,,,,,51,onion,strawberry,,90095,001,2022-04-25_22h09.40.705,SPAMnetsValid,2021.1.4,MacIntel,59.84082341,,,,,,,,,,,,,3,0.9804,0,76,76,86,1,,,,,,,,,,,,,,,,,,,,,,,,,,,,,,,,,,,,,,,,,,,,,,,,,,,,,,,,,,,,,,,,,,,,,,
,,,,3,0.7625,,,,,,1,rose,yogurt,,90095,001,2022-04-25_22h09.40.705,SPAMnetsValid,2021.1.4,MacIntel,59.84082341,,,,,,,,,,,,,3,0.7625,0,77,77,55,1,,,,,,,,,,,,,,,,,,,,,,,,,,,,,,,,,,,,,,,,,,,,,,,,,,,,,,,,,,,,,,,,,,,,,,
,,,,2,1.0623,,,,,,2,kitchen,onion,,90095,001,2022-04-25_22h09.40.705,SPAMnetsValid,2021.1.4,MacIntel,59.84082341,,,,,,,,,,,,,2,1.0623,0,78,78,91,1,,,,,,,,,,,,,,,,,,,,,,,,,,,,,,,,,,,,,,,,,,,,,,,,,,,,,,,,,,,,,,,,,,,,,,
,,,,2,0.7809,,,,,,62,kitchen,rose,,90095,001,2022-04-25_22h09.40.705,SPAMnetsValid,2021.1.4,MacIntel,59.84082341,,,,,,,,,,,,,2,0.7809,0,79,79,57,1,,,,,,,,,,,,,,,,,,,,,,,,,,,,,,,,,,,,,,,,,,,,,,,,,,,,,,,,,,,,,,,,,,,,,,
,,,,2,0.6944,,,,,,71,broom,rose,,90095,001,2022-04-25_22h09.40.705,SPAMnetsValid,2021.1.4,MacIntel,59.84082341,,,,,,,,,,,,,2,0.6944,0,80,80,61,1,,,,,,,,,,,,,,,,,,,,,,,,,,,,,,,,,,,,,,,,,,,,,,,,,,,,,,,,,,,,,,,,,,,,,,
,,,,2,1.1114,,,,,,49,flower,strawberry,,90095,001,2022-04-25_22h09.40.705,SPAMnetsValid,2021.1.4,MacIntel,59.84082341,,,,,,,,,,,,,2,1.1114,0,81,81,3,1,,,,,,,,,,,,,,,,,,,,,,,,,,,,,,,,,,,,,,,,,,,,,,,,,,,,,,,,,,,,,,,,,,,,,,
,,,,3,1.1525,,,,,,28,cake,melon,,90095,001,2022-04-25_22h09.40.705,SPAMnetsValid,2021.1.4,MacIntel,59.84082341,,,,,,,,,,,,,3,1.1525,0,82,82,54,1,,,,,,,,,,,,,,,,,,,,,,,,,,,,,,,,,,,,,,,,,,,,,,,,,,,,,,,,,,,,,,,,,,,,,,
,,,,2,2.1386,,,,,,88,cactus,melon,,90095,001,2022-04-25_22h09.40.705,SPAMnetsValid,2021.1.4,MacIntel,59.84082341,,,,,,,,,,,,,2,2.1386,0,83,83,38,1,,,,,,,,,,,,,,,,,,,,,,,,,,,,,,,,,,,,,,,,,,,,,,,,,,,,,,,,,,,,,,,,,,,,,,
,,,,8,1.916,,,,,,63,cake,cookie,,90095,001,2022-04-25_22h09.40.705,SPAMnetsValid,2021.1.4,MacIntel,59.84082341,,,,,,,,,,,,,8,1.916,0,84,84,93,1,,,,,,,,,,,,,,,,,,,,,,,,,,,,,,,,,,,,,,,,,,,,,,,,,,,,,,,,,,,,,,,,,,,,,,
,,,,8,2.5656,,,,,,18,onion,refrigerator,,90095,001,2022-04-25_22h09.40.705,SPAMnetsValid,2021.1.4,MacIntel,59.84082341,,,,,,,,,,,,,8,2.5656,0,85,85,62,1,,,,,,,,,,,,,,,,,,,,,,,,,,,,,,,,,,,,,,,,,,,,,,,,,,,,,,,,,,,,,,,,,,,,,,
,,,,2,1.6138,,,,,,58,garden,oven,,90095,001,2022-04-25_22h09.40.705,SPAMnetsValid,2021.1.4,MacIntel,59.84082341,,,,,,,,,,,,,2,1.6138,0,86,86,37,1,,,,,,,,,,,,,,,,,,,,,,,,,,,,,,,,,,,,,,,,,,,,,,,,,,,,,,,,,,,,,,,,,,,,,,
,,,,2,1.6805,,,,,,13,broom,yogurt,,90095,001,2022-04-25_22h09.40.705,SPAMnetsValid,2021.1.4,MacIntel,59.84082341,,,,,,,,,,,,,2,1.6805,0,87,87,5,1,,,,,,,,,,,,,,,,,,,,,,,,,,,,,,,,,,,,,,,,,,,,,,,,,,,,,,,,,,,,,,,,,,,,,,
,,,,1,1.9806,,,,,,20,rose,tree,,90095,001,2022-04-25_22h09.40.705,SPAMnetsValid,2021.1.4,MacIntel,59.84082341,,,,,,,,,,,,,1,1.9806,0,88,88,66,1,,,,,,,,,,,,,,,,,,,,,,,,,,,,,,,,,,,,,,,,,,,,,,,,,,,,,,,,,,,,,,,,,,,,,,
,,,,8,2.2502,,,,,,67,flower,yogurt,,90095,001,2022-04-25_22h09.40.705,SPAMnetsValid,2021.1.4,MacIntel,59.84082341,,,,,,,,,,,,,8,2.2502,0,89,89,12,1,,,,,,,,,,,,,,,,,,,,,,,,,,,,,,,,,,,,,,,,,,,,,,,,,,,,,,,,,,,,,,,,,,,,,,
,,,,2,1.6814,,,,,,83,broom,carrot,,90095,001,2022-04-25_22h09.40.705,SPAMnetsValid,2021.1.4,MacIntel,59.84082341,,,,,,,,,,,,,2,1.6814,0,90,90,4,1,,,,,,,,,,,,,,,,,,,,,,,,,,,,,,,,,,,,,,,,,,,,,,,,,,,,,,,,,,,,,,,,,,,,,,
,,,,1,1.3873,,,,,,31,cactus,pretzel,,90095,001,2022-04-25_22h09.40.705,SPAMnetsValid,2021.1.4,MacIntel,59.84082341,,,,,,,,,,,,,1,1.3873,0,91,91,1,1,,,,,,,,,,,,,,,,,,,,,,,,,,,,,,,,,,,,,,,,,,,,,,,,,,,,,,,,,,,,,,,,,,,,,,
,,,,2,1.3185,,,,,,87,carrot,yogurt,,90095,001,2022-04-25_22h09.40.705,SPAMnetsValid,2021.1.4,MacIntel,59.84082341,,,,,,,,,,,,,2,1.3185,0,92,92,6,1,,,,,,,,,,,,,,,,,,,,,,,,,,,,,,,,,,,,,,,,,,,,,,,,,,,,,,,,,,,,,,,,,,,,,,
,,,,9,2.0537,,,,,,3,cake,oven,,90095,001,2022-04-25_22h09.40.705,SPAMnetsValid,2021.1.4,MacIntel,59.84082341,,,,,,,,,,,,,9,2.0537,0,93,93,30,1,,,,,,,,,,,,,,,,,,,,,,,,,,,,,,,,,,,,,,,,,,,,,,,,,,,,,,,,,,,,,,,,,,,,,,
,,,,2,1.9144,,,,,,10,flower,onion,,90095,001,2022-04-25_22h09.40.705,SPAMnetsValid,2021.1.4,MacIntel,59.84082341,,,,,,,,,,,,,2,1.9144,0,94,94,45,1,,,,,,,,,,,,,,,,,,,,,,,,,,,,,,,,,,,,,,,,,,,,,,,,,,,,,,,,,,,,,,,,,,,,,,
,,,,2,1.3639,,,,,,72,broom,onion,,90095,001,2022-04-25_22h09.40.705,SPAMnetsValid,2021.1.4,MacIntel,59.84082341,,,,,,,,,,,,,2,1.3639,0,95,95,27,1,,,,,,,,,,,,,,,,,,,,,,,,,,,,,,,,,,,,,,,,,,,,,,,,,,,,,,,,,,,,,,,,,,,,,,
,,,,2,3.6885,,,,,,16,chocolate,flower,,90095,001,2022-04-25_22h09.40.705,SPAMnetsValid,2021.1.4,MacIntel,59.84082341,,,,,,,,,,,,,2,3.6885,0,96,96,22,1,,,,,,,,,,,,,,,,,,,,,,,,,,,,,,,,,,,,,,,,,,,,,,,,,,,,,,,,,,,,,,,,,,,,,,
,,,,,,,,,,,,,,,90095,001,2022-04-25_22h09.40.705,SPAMnetsValid,2021.1.4,MacIntel,59.84082341,,,,,,,,,,,,,,,,,,,,0,0,0,0,1,,,,,,,,,,,,,,,,,,,,,,,,,,,,,,,,,,,,,,,,,,,,,,,,,,,,,,,,,,,,,,,,,
,,,,,,,,,,,,,,,90095,001,2022-04-25_22h09.40.705,SPAMnetsValid,2021.1.4,MacIntel,59.84082341,,,,,,0,1,1,0,1,1,0,,,,,,,,,,,,,,,,,,,,,,,,,,,,,,,,,,,,,,,,,,,,,,,,,,,,,,,,,,,,,,,,,,,,,,,,,,,,,
,,,,,,,,,,,,,,,90095,001,2022-04-25_22h09.40.705,SPAMnetsValid,2021.1.4,MacIntel,59.84082341,,,,,,,,,,,,,,,,,,,,,,,,,3,3.5004,0,0,0,0,1,rancor,forbearance,ridicule,malice,bravery,3,,,,,,,,,,,,,,,,,,,,,,,,,,,,,,,,,,,,,,,,,,,,,,,,,,,,
,,,,,,,,,,,,,,,90095,001,2022-04-25_22h09.40.705,SPAMnetsValid,2021.1.4,MacIntel,59.84082341,,,,,,,,,,,,,,,,,,,,,,,,,2,2.6093,0,1,1,1,1,raucous,empty,quiet,smooth,harsh,4,,,,,,,,,,,,,,,,,,,,,,,,,,,,,,,,,,,,,,,,,,,,,,,,,,,,
,,,,,,,,,,,,,,,90095,001,2022-04-25_22h09.40.705,SPAMnetsValid,2021.1.4,MacIntel,59.84082341,,,,,,,,,,,,,,,,,,,,,,,,,2,4.8751,0,2,2,2,1,gargoyle,oil,medicine,carved waterspout,ugly building,3,,,,,,,,,,,,,,,,,,,,,,,,,,,,,,,,,,,,,,,,,,,,,,,,,,,,
,,,,,,,,,,,,,,,90095,001,2022-04-25_22h09.40.705,SPAMnetsValid,2021.1.4,MacIntel,59.84082341,,,,,,,,,,,,,,,,,,,,,,,,,2,4.8239,0,3,3,3,1,recrudesce,purify,renew activity,lack refinement,crush,2,,,,,,,,,,,,,,,,,,,,,,,,,,,,,,,,,,,,,,,,,,,,,,,,,,,,
,,,,,,,,,,,,,,,90095,001,2022-04-25_22h09.40.705,SPAMnetsValid,2021.1.4,MacIntel,59.84082341,,,,,,,,,,,,,,,,,,,,,,,,,1,6.3777,0,4,4,4,1,specious,"plausible, but not genuine",noteworthy,class or variety,roomy,1,,,,,,,,,,,,,,,,,,,,,,,,,,,,,,,,,,,,,,,,,,,,,,,,,,,,
,,,,,,,,,,,,,,,90095,001,2022-04-25_22h09.40.705,SPAMnetsValid,2021.1.4,MacIntel,59.84082341,,,,,,,,,,,,,,,,,,,,,,,,,1,1.5814,0,5,5,5,1,bauble,bubble,showy plaything,idle talk,confusion,2,,,,,,,,,,,,,,,,,,,,,,,,,,,,,,,,,,,,,,,,,,,,,,,,,,,,
,,,,,,,,,,,,,,,90095,001,2022-04-25_22h09.40.705,SPAMnetsValid,2021.1.4,MacIntel,59.84082341,,,,,,,,,,,,,,,,,,,,,,,,,2,5.3935,0,6,6,6,1,prolific,scarce,producing abundantly,reckless,speaking profanely,2,,,,,,,,,,,,,,,,,,,,,,,,,,,,,,,,,,,,,,,,,,,,,,,,,,,,
,,,,,,,,,,,,,,,90095,001,2022-04-25_22h09.40.705,SPAMnetsValid,2021.1.4,MacIntel,59.84082341,,,,,,,,,,,,,,,,,,,,,,,,,2,2.0469,0,7,7,7,1,opulent,party,wealthy,happy frame of mind,semiprecious stone,2,,,,,,,,,,,,,,,,,,,,,,,,,,,,,,,,,,,,,,,,,,,,,,,,,,,,
,,,,,,,,,,,,,,,90095,001,2022-04-25_22h09.40.705,SPAMnetsValid,2021.1.4,MacIntel,59.84082341,,,,,,,,,,,,,,,,,,,,,,,,,4,2.1113,0,8,8,8,1,coercion,conspiracy,strategy,restraint,attraction,3,,,,,,,,,,,,,,,,,,,,,,,,,,,,,,,,,,,,,,,,,,,,,,,,,,,,
,,,,,,,,,,,,,,,90095,001,2022-04-25_22h09.40.705,SPAMnetsValid,2021.1.4,MacIntel,59.84082341,,,,,,,,,,,,,,,,,,,,,,,,,1,1.5301,0,9,9,9,1,hiatus,animal,calamity,dread,gap,4,,,,,,,,,,,,,,,,,,,,,,,,,,,,,,,,,,,,,,,,,,,,,,,,,,,,
,,,,,,,,,,,,,,,90095,001,2022-04-25_22h09.40.705,SPAMnetsValid,2021.1.4,MacIntel,59.84082341,,,,,,,,,,,,,,,,,,,,,,,,,2,2.0688,0,10,10,10,1,germane,microbe,contagious,relevant,different,3,,,,,,,,,,,,,,,,,,,,,,,,,,,,,,,,,,,,,,,,,,,,,,,,,,,,
,,,,,,,,,,,,,,,90095,001,2022-04-25_22h09.40.705,SPAMnetsValid,2021.1.4,MacIntel,59.84082341,,,,,,,,,,,,,,,,,,,,,,,,,3,4.3231,0,11,11,11,1,perfunctory,fundamental,formal,superficial,careful,3,,,,,,,,,,,,,,,,,,,,,,,,,,,,,,,,,,,,,,,,,,,,,,,,,,,,
,,,,,,,,,,,,,,,90095,001,2022-04-25_22h09.40.705,SPAMnetsValid,2021.1.4,MacIntel,59.84082341,,,,,,,,,,,,,,,,,,,,,,,,,4,4.3725,0,12,12,12,1,diverge,reveal,chant,distract the attention of,differ or turn off from,4,,,,,,,,,,,,,,,,,,,,,,,,,,,,,,,,,,,,,,,,,,,,,,,,,,,,
,,,,,,,,,,,,,,,90095,001,2022-04-25_22h09.40.705,SPAMnetsValid,2021.1.4,MacIntel,59.84082341,,,,,,,,,,,,,,,,,,,,,,,,,3,1.5353,0,13,13,13,1,evoke,take away,anger,connect,bring out,4,,,,,,,,,,,,,,,,,,,,,,,,,,,,,,,,,,,,,,,,,,,,,,,,,,,,
,,,,,,,,,,,,,,,90095,001,2022-04-25_22h09.40.705,SPAMnetsValid,2021.1.4,MacIntel,59.84082341,,,,,,,,,,,,,,,,,,,,,,,,,2,1.8859,0,14,14,14,1,pertinent,relevant,lying next to,necessary,bold,1,,,,,,,,,,,,,,,,,,,,,,,,,,,,,,,,,,,,,,,,,,,,,,,,,,,,
,,,,,,,,,,,,,,,90095,001,2022-04-25_22h09.40.705,SPAMnetsValid,2021.1.4,MacIntel,59.84082341,,,,,,,,,,,,,,,,,,,,,,,,,2,5.945,0,15,15,15,1,holocaust,entirety,destruction,saintly,price,2,,,,,,,,,,,,,,,,,,,,,,,,,,,,,,,,,,,,,,,,,,,,,,,,,,,,
,,,,,,,,,,,,,,,90095,001,2022-04-25_22h09.40.705,SPAMnetsValid,2021.1.4,MacIntel,59.84082341,,,,,,,,,,,,,,,,,,,,,,,,,,,0,16,16,16,1,piquant,mellow,fish,pungent,cloth,3,,,,,,,,,,,,,,,,,,,,,,,,,,,,,,,,,,,,,,,,,,,,,,,,,,,,
,,,,,,,,,,,,,,,90095,001,2022-04-25_22h09.40.705,SPAMnetsValid,2021.1.4,MacIntel,59.84082341,,,,,,,,,,,,,,,,,,,,,,,,,,,0,17,17,17,1,firmament,foundation,heavens,strong,glue,2,,,,,,,,,,,,,,,,,,,,,,,,,,,,,,,,,,,,,,,,,,,,,,,,,,,,
,,,,,,,,,,,,,,,90095,001,2022-04-25_22h09.40.705,SPAMnetsValid,2021.1.4,MacIntel,59.84082341,,,,,,,,,,,,,,,,,,,,,,,,,,,,,,,,,,,,,,3,2.1811,0,0,0,0,1,marketable,partisan,jocular,marriageable,salable,essential,4,,,,,,,,,,,,,,,,,,,,,,,,,,,,,,,,,,,,,,
,,,,,,,,,,,,,,,90095,001,2022-04-25_22h09.40.705,SPAMnetsValid,2021.1.4,MacIntel,59.84082341,,,,,,,,,,,,,,,,,,,,,,,,,,,,,,,,,,,,,,4,0.9806,0,1,1,1,1,cottontail,squirrel,poplar,boa,marshy plant,rabbit,5,,,,,,,,,,,,,,,,,,,,,,,,,,,,,,,,,,,,,,
,,,,,,,,,,,,,,,90095,001,2022-04-25_22h09.40.705,SPAMnetsValid,2021.1.4,MacIntel,59.84082341,,,,,,,,,,,,,,,,,,,,,,,,,,,,,,,,,,,,,,4,0.8452,0,2,2,2,1,boggy,afraid,false,marshy,dense,black,3,,,,,,,,,,,,,,,,,,,,,,,,,,,,,,,,,,,,,,
,,,,,,,,,,,,,,,90095,001,2022-04-25_22h09.40.705,SPAMnetsValid,2021.1.4,MacIntel,59.84082341,,,,,,,,,,,,,,,,,,,,,,,,,,,,,,,,,,,,,,3,7.7937,0,3,3,3,1,gruesomeness,blackness,falseness,vindictiveness,drunkenness,ghastliness,5,,,,,,,,,,,,,,,,,,,,,,,,,,,,,,,,,,,,,,
,,,,,,,,,,,,,,,90095,001,2022-04-25_22h09.40.705,SPAMnetsValid,2021.1.4,MacIntel,59.84082341,,,,,,,,,,,,,,,,,,,,,,,,,,,,,,,,,,,,,,2,6.513,0,4,4,4,1,loathing,diffidence,laziness,abhorrence,cleverness,comfort,3,,,,,,,,,,,,,,,,,,,,,,,,,,,,,,,,,,,,,,
,,,,,,,,,,,,,,,90095,001,2022-04-25_22h09.40.705,SPAMnetsValid,2021.1.4,MacIntel,59.84082341,,,,,,,,,,,,,,,,,,,,,,,,,,,,,,,,,,,,,,5,5.4918,0,5,5,5,1,bantam,fowl,ridicule,cripple,vegetable,ensign,1,,,,,,,,,,,,,,,,,,,,,,,,,,,,,,,,,,,,,,
,,,,,,,,,,,,,,,90095,001,2022-04-25_22h09.40.705,SPAMnetsValid,2021.1.4,MacIntel,59.84082341,,,,,,,,,,,,,,,,,,,,,,,,,,,,,,,,,,,,,,4,3.1695,0,6,6,6,1,evoke,wake up,surrender,reconnoiter,transcend,call forth,5,,,,,,,,,,,,,,,,,,,,,,,,,,,,,,,,,,,,,,
,,,,,,,,,,,,,,,90095,001,2022-04-25_22h09.40.705,SPAMnetsValid,2021.1.4,MacIntel,59.84082341,,,,,,,,,,,,,,,,,,,,,,,,,,,,,,,,,,,,,,3,4.8071,0,7,7,7,1,unobtrusive,unintelligent,epileptic,illogical,lineal,modest,5,,,,,,,,,,,,,,,,,,,,,,,,,,,,,,,,,,,,,,
,,,,,,,,,,,,,,,90095,001,2022-04-25_22h09.40.705,SPAMnetsValid,2021.1.4,MacIntel,59.84082341,,,,,,,,,,,,,,,,,,,,,,,,,,,,,,,,,,,,,,4,2.6242,0,8,8,8,1,terrain,ice cream,final test,tractor,area of ground,weight,4,,,,,,,,,,,,,,,,,,,,,,,,,,,,,,,,,,,,,,
,,,,,,,,,,,,,,,90095,001,2022-04-25_22h09.40.705,SPAMnetsValid,2021.1.4,MacIntel,59.84082341,,,,,,,,,,,,,,,,,,,,,,,,,,,,,,,,,,,,,,1,2.2688,0,9,9,9,1,capriciousness,stubbornness,courage,whimsicality,amazement,greediness,3,,,,,,,,,,,,,,,,,,,,,,,,,,,,,,,,,,,,,,
,,,,,,,,,,,,,,,90095,001,2022-04-25_22h09.40.705,SPAMnetsValid,2021.1.4,MacIntel,59.84082341,,,,,,,,,,,,,,,,,,,,,,,,,,,,,,,,,,,,,,5,3.035,0,10,10,10,1,maelstrom,slander,whirlpool,enmity,armor,majolica,2,,,,,,,,,,,,,,,,,,,,,,,,,,,,,,,,,,,,,,
,,,,,,,,,,,,,,,90095,001,2022-04-25_22h09.40.705,SPAMnetsValid,2021.1.4,MacIntel,59.84082341,,,,,,,,,,,,,,,,,,,,,,,,,,,,,,,,,,,,,,1,4.0031,0,11,11,11,1,tentative,critical,conclusive,authentic,provisional,apprehensive,4,,,,,,,,,,,,,,,,,,,,,,,,,,,,,,,,,,,,,,
,,,,,,,,,,,,,,,90095,001,2022-04-25_22h09.40.705,SPAMnetsValid,2021.1.4,MacIntel,59.84082341,,,,,,,,,,,,,,,,,,,,,,,,,,,,,,,,,,,,,,3,2.1666,0,12,12,12,1,placate,rehabilitate,plagiarize,depredate,apprise,conciliate,5,,,,,,,,,,,,,,,,,,,,,,,,,,,,,,,,,,,,,,
,,,,,,,,,,,,,,,90095,001,2022-04-25_22h09.40.705,SPAMnetsValid,2021.1.4,MacIntel,59.84082341,,,,,,,,,,,,,,,,,,,,,,,,,,,,,,,,,,,,,,4,2.6167,0,13,13,13,1,surcease,enlightenment,cessation,inattention,censor,substitution,2,,,,,,,,,,,,,,,,,,,,,,,,,,,,,,,,,,,,,,
,,,,,,,,,,,,,,,90095,001,2022-04-25_22h09.40.705,SPAMnetsValid,2021.1.4,MacIntel,59.84082341,,,,,,,,,,,,,,,,,,,,,,,,,,,,,,,,,,,,,,3,2.5667,0,14,14,14,1,apathetic,wandering,impassive,hateful,prophetic,overflowing,2,,,,,,,,,,,,,,,,,,,,,,,,,,,,,,,,,,,,,,
,,,,,,,,,,,,,,,90095,001,2022-04-25_22h09.40.705,SPAMnetsValid,2021.1.4,MacIntel,59.84082341,,,,,,,,,,,,,,,,,,,,,,,,,,,,,,,,,,,,,,4,1.9684,0,15,15,15,1,paternoster,paternalism,patricide,malediction,benediction,prayer,5,,,,,,,,,,,,,,,,,,,,,,,,,,,,,,,,,,,,,,
,,,,,,,,,,,,,,,90095,001,2022-04-25_22h09.40.705,SPAMnetsValid,2021.1.4,MacIntel,59.84082341,,,,,,,,,,,,,,,,,,,,,,,,,,,,,,,,,,,,,,1,2.6867,0,16,16,16,1,opalescence,opulence,senescence,bankruptcy,iridescence,assiduity,4,,,,,,,,,,,,,,,,,,,,,,,,,,,,,,,,,,,,,,
,,,,,,,,,,,,,,,90095,001,2022-04-25_22h09.40.705,SPAMnetsValid,2021.1.4,MacIntel,59.84082341,,,,,,,,,,,,,,,,,,,,,,,,,,,,,,,,,,,,,,4,2.1851,0,17,17,17,1,lush,stupid,luxurious,hazy,putrid,languishing,2,,,,,,,,,,,,,,,,,,,,,,,,,,,,,,,,,,,,,,
,,,,,,,,,,,,,,,90095,001,2022-04-25_22h09.40.705,SPAMnetsValid,2021.1.4,MacIntel,59.84082341,,,,,,,,,,,,,,,,,,,,,,,,,,,,,,,,,,,,,,5,2.9078,0,18,18,18,1,curtailment,expenditure,abandonment,abridgment,improvement,forgery,3,,,,,,,,,,,,,,,,,,,,,,,,,,,,,,,,,,,,,,
,,,,,,,,,,,,,,,90095,001,2022-04-25_22h09.40.705,SPAMnetsValid,2021.1.4,MacIntel,59.84082341,,,,,,,,,,,,,,,,,,,,,,,,,,,,,,,,,,,,,,2,7.8427,0,19,19,19,1,perversity,adversity,perviousness,travesty,waywardness,gentility,4,,,,,,,,,,,,,,,,,,,,,,,,,,,,,,,,,,,,,,
,,,,,,,,,,,,,,,90095,001,2022-04-25_22h09.40.705,SPAMnetsValid,2021.1.4,MacIntel,59.84082341,,,,,,,,,,,,,,,,,,,,,,,,,,,,,,,,,,,,,,2,2.2058,0,20,20,20,1,calumnious,complimentary,analogous,slanderous,tempestuous,magnanimous,3,,,,,,,,,,,,,,,,,,,,,,,,,,,,,,,,,,,,,,
,,,,,,,,,,,,,,,90095,001,2022-04-25_22h09.40.705,SPAMnetsValid,2021.1.4,MacIntel,59.84082341,,,,,,,,,,,,,,,,,,,,,,,,,,,,,,,,,,,,,,1,1.6309,0,21,21,21,1,illiberality,bigotry,imbecility,illegibility,cautery,immaturity,1,,,,,,,,,,,,,,,,,,,,,,,,,,,,,,,,,,,,,,
,,,,,,,,,,,,,,,90095,001,2022-04-25_22h09.40.705,SPAMnetsValid,2021.1.4,MacIntel,59.84082341,,,,,,,,,,,,,,,,,,,,,,,,,,,,,,,,,,,,,,1,21.1525,0,22,22,22,1,clabber,rejoice,gossip,curdle,crow,hobble,3,,,,,,,,,,,,,,,,,,,,,,,,,,,,,,,,,,,,,,
,,,,,,,,,,,,,,,90095,001,2022-04-25_22h09.40.705,SPAMnetsValid,2021.1.4,MacIntel,59.84082341,,,,,,,,,,,,,,,,,,,,,,,,,,,,,,,,,,,,,,1,3.6544,0,23,23,23,1,sedulousness,diligence,credulousness,seduction,perilousness,frankness,1,,,,,,,,,,,,,,,,,,,,,,,,,,,,,,,,,,,,,,
,,,,,,,,,,,,,,,90095,001,2022-04-25_22h09.40.705,SPAMnetsValid,2021.1.4,MacIntel,59.84082341,,,,,,,,,,,,,,,,,,,,,,,,,,,,,,,,,,,,,,,,,,,,,,,,,,,,caake,candle,0,0,0,0,1,,,,,,,,,,,,,,,,,,,,,,,,,,,,,,,
,,,,,,,,,,,,,,,90095,001,2022-04-25_22h09.40.705,SPAMnetsValid,2021.1.4,MacIntel,59.84082341,,,,,,,,,,,,,,,,,,,,,,,,,,,,,,,,,,,,,,,,,,,,,,,,,,,,cake,candle,1,0,1,0,1,,,,,,,,,,,,,,,,,,,,,,,,,,,,,,,
,,,,,,,,,,,,,,,90095,001,2022-04-25_22h09.40.705,SPAMnetsValid,2021.1.4,MacIntel,59.84082341,,,,,,,,,,,,,,,,,,,,,,,,,,,,,,,,,,,,,,,,,,,,,,,,,,,,,candle,2,0,2,0,1,,,,,,,,,,,,,,,,,,,,,,,,,,,,,,,
,,,,,,,,,,,,,,,90095,001,2022-04-25_22h09.40.705,SPAMnetsValid,2021.1.4,MacIntel,59.84082341,,,,,,,,,,,,,,,,,,,,,,,,,,,,,,,,,,,,,,,,,,,,,,,,,,,,light,candle,3,0,3,0,1,,,,,,,,,,,,,,,,,,,,,,,,,,,,,,,
,,,,,,,,,,,,,,,90095,001,2022-04-25_22h09.40.705,SPAMnetsValid,2021.1.4,MacIntel,59.84082341,,,,,,,,,,,,,,,,,,,,,,,,,,,,,,,,,,,,,,,,,,,,,,,,,,,,romance,candle,4,0,4,0,1,,,,,,,,,,,,,,,,,,,,,,,,,,,,,,,
,,,,,,,,,,,,,,,90095,001,2022-04-25_22h09.40.705,SPAMnetsValid,2021.1.4,MacIntel,59.84082341,,,,,,,,,,,,,,,,,,,,,,,,,,,,,,,,,,,,,,,,,,,,,,,,,,,,warmth,candle,5,0,5,0,1,,,,,,,,,,,,,,,,,,,,,,,,,,,,,,,
,,,,,,,,,,,,,,,90095,001,2022-04-25_22h09.40.705,SPAMnetsValid,2021.1.4,MacIntel,59.84082341,,,,,,,,,,,,,,,,,,,,,,,,,,,,,,,,,,,,,,,,,,,,,,,,,,,,hannukah,candle,6,0,6,0,1,,,,,,,,,,,,,,,,,,,,,,,,,,,,,,,
,,,,,,,,,,,,,,,90095,001,2022-04-25_22h09.40.705,SPAMnetsValid,2021.1.4,MacIntel,59.84082341,,,,,,,,,,,,,,,,,,,,,,,,,,,,,,,,,,,,,,,,,,,,,,,,,,,,math,candle,7,0,7,0,1,,,,,,,,,,,,,,,,,,,,,,,,,,,,,,,
,,,,,,,,,,,,,,,90095,001,2022-04-25_22h09.40.705,SPAMnetsValid,2021.1.4,MacIntel,59.84082341,,,,,,,,,,,,,,,,,,,,,,,,,,,,,,,,,,,,,,,,,,,,,,,,,,,,celebration,candle,8,0,8,0,1,,,,,,,,,,,,,,,,,,,,,,,,,,,,,,,
,,,,,,,,,,,,,,,90095,001,2022-04-25_22h09.40.705,SPAMnetsValid,2021.1.4,MacIntel,59.84082341,,,,,,,,,,,,,,,,,,,,,,,,,,,,,,,,,,,,,,,,,,,,,,,,,,,,,,,,,,,0,0,0,1,1,candle,,,,,,,,,,,,,,,,,,,,,,,,,
,,,,,,,,,,,,,,,90095,001,2022-04-25_22h09.40.705,SPAMnetsValid,2021.1.4,MacIntel,59.84082341,,,,,,,,,,,,,,,,,,,,,,,,,,,,,,,,,,,,,,,,,,,,,,,,,,,,basketball,bucket,0,0,0,0,1,,,,,,,,,,,,,,,,,,,,,,,,,,,,,,,
,,,,,,,,,,,,,,,90095,001,2022-04-25_22h09.40.705,SPAMnetsValid,2021.1.4,MacIntel,59.84082341,,,,,,,,,,,,,,,,,,,,,,,,,,,,,,,,,,,,,,,,,,,,,,,,,,,,water,bucket,1,0,1,0,1,,,,,,,,,,,,,,,,,,,,,,,,,,,,,,,
,,,,,,,,,,,,,,,90095,001,2022-04-25_22h09.40.705,SPAMnetsValid,2021.1.4,MacIntel,59.84082341,,,,,,,,,,,,,,,,,,,,,,,,,,,,,,,,,,,,,,,,,,,,,,,,,,,,ice bucket challenge,bucket,2,0,2,0,1,,,,,,,,,,,,,,,,,,,,,,,,,,,,,,,
,,,,,,,,,,,,,,,90095,001,2022-04-25_22h09.40.705,SPAMnetsValid,2021.1.4,MacIntel,59.84082341,,,,,,,,,,,,,,,,,,,,,,,,,,,,,,,,,,,,,,,,,,,,,,,,,,,,elavator,bucket,3,0,3,0,1,,,,,,,,,,,,,,,,,,,,,,,,,,,,,,,
,,,,,,,,,,,,,,,90095,001,2022-04-25_22h09.40.705,SPAMnetsValid,2021.1.4,MacIntel,59.84082341,,,,,,,,,,,,,,,,,,,,,,,,,,,,,,,,,,,,,,,,,,,,,,,,,,,,storing things ,bucket,4,0,4,0,1,,,,,,,,,,,,,,,,,,,,,,,,,,,,,,,
,,,,,,,,,,,,,,,90095,001,2022-04-25_22h09.40.705,SPAMnetsValid,2021.1.4,MacIntel,59.84082341,,,,,,,,,,,,,,,,,,,,,,,,,,,,,,,,,,,,,,,,,,,,,,,,,,,,,,,,,,,0,1,1,0,1,bucket,,,,,,,,,,,,,,,,,,,,,,,,,
,,,,,,,,,,,,,,,90095,001,2022-04-25_22h09.40.705,SPAMnetsValid,2021.1.4,MacIntel,59.84082341,,,,,,,,,,,,,,,,,,,,,,,,,,,,,,,,,,,,,,,,,,,,,,,,,,,,sleep,pillow,0,0,0,0,1,,,,,,,,,,,,,,,,,,,,,,,,,,,,,,,
,,,,,,,,,,,,,,,90095,001,2022-04-25_22h09.40.705,SPAMnetsValid,2021.1.4,MacIntel,59.84082341,,,,,,,,,,,,,,,,,,,,,,,,,,,,,,,,,,,,,,,,,,,,,,,,,,,,pillow fight,pillow,1,0,1,0,1,,,,,,,,,,,,,,,,,,,,,,,,,,,,,,,
,,,,,,,,,,,,,,,90095,001,2022-04-25_22h09.40.705,SPAMnetsValid,2021.1.4,MacIntel,59.84082341,,,,,,,,,,,,,,,,,,,,,,,,,,,,,,,,,,,,,,,,,,,,,,,,,,,,fort ,pillow,2,0,2,0,1,,,,,,,,,,,,,,,,,,,,,,,,,,,,,,,
,,,,,,,,,,,,,,,90095,001,2022-04-25_22h09.40.705,SPAMnetsValid,2021.1.4,MacIntel,59.84082341,,,,,,,,,,,,,,,,,,,,,,,,,,,,,,,,,,,,,,,,,,,,,,,,,,,,sleepovers ,pillow,3,0,3,0,1,,,,,,,,,,,,,,,,,,,,,,,,,,,,,,,
,,,,,,,,,,,,,,,90095,001,2022-04-25_22h09.40.705,SPAMnetsValid,2021.1.4,MacIntel,59.84082341,,,,,,,,,,,,,,,,,,,,,,,,,,,,,,,,,,,,,,,,,,,,,,,,,,,,bed ,pillow,4,0,4,0,1,,,,,,,,,,,,,,,,,,,,,,,,,,,,,,,
,,,,,,,,,,,,,,,90095,001,2022-04-25_22h09.40.705,SPAMnetsValid,2021.1.4,MacIntel,59.84082341,,,,,,,,,,,,,,,,,,,,,,,,,,,,,,,,,,,,,,,,,,,,,,,,,,,,pillow company,pillow,5,0,5,0,1,,,,,,,,,,,,,,,,,,,,,,,,,,,,,,,
,,,,,,,,,,,,,,,90095,001,2022-04-25_22h09.40.705,SPAMnetsValid,2021.1.4,MacIntel,59.84082341,,,,,,,,,,,,,,,,,,,,,,,,,,,,,,,,,,,,,,,,,,,,,,,,,,,,put on a desk chair ,pillow,6,0,6,0,1,,,,,,,,,,,,,,,,,,,,,,,,,,,,,,,
,,,,,,,,,,,,,,,90095,001,2022-04-25_22h09.40.705,SPAMnetsValid,2021.1.4,MacIntel,59.84082341,,,,,,,,,,,,,,,,,,,,,,,,,,,,,,,,,,,,,,,,,,,,,,,,,,,,comfortbality,pillow,7,0,7,0,1,,,,,,,,,,,,,,,,,,,,,,,,,,,,,,,
,,,,,,,,,,,,,,,90095,001,2022-04-25_22h09.40.705,SPAMnetsValid,2021.1.4,MacIntel,59.84082341,,,,,,,,,,,,,,,,,,,,,,,,,,,,,,,,,,,,,,,,,,,,,,,,,,,,,,,,,,,0,2,2,2,1,pillow,,,,,,,,,,,,,,,,,,,,,,,,,
,,,,,,,,,,,,,,,90095,001,2022-04-25_22h09.40.705,SPAMnetsValid,2021.1.4,MacIntel,59.84082341,,,,,,,,,,,,,,,,,,,,,,,,,,,,,,,,,,,,,,,,,,,,,,,,,,,,,,,,,,,,,,,,,cat,Animals,0,0,0,0,1,,,,,,,,,,,,,,,,,,
,,,,,,,,,,,,,,,90095,001,2022-04-25_22h09.40.705,SPAMnetsValid,2021.1.4,MacIntel,59.84082341,,,,,,,,,,,,,,,,,,,,,,,,,,,,,,,,,,,,,,,,,,,,,,,,,,,,,,,,,,,,,,,,,dog,Animals,1,0,1,0,1,,,,,,,,,,,,,,,,,,
,,,,,,,,,,,,,,,90095,001,2022-04-25_22h09.40.705,SPAMnetsValid,2021.1.4,MacIntel,59.84082341,,,,,,,,,,,,,,,,,,,,,,,,,,,,,,,,,,,,,,,,,,,,,,,,,,,,,,,,,,,,,,,,,deer,Animals,2,0,2,0,1,,,,,,,,,,,,,,,,,,
,,,,,,,,,,,,,,,90095,001,2022-04-25_22h09.40.705,SPAMnetsValid,2021.1.4,MacIntel,59.84082341,,,,,,,,,,,,,,,,,,,,,,,,,,,,,,,,,,,,,,,,,,,,,,,,,,,,,,,,,,,,,,,,,koala bear,Animals,3,0,3,0,1,,,,,,,,,,,,,,,,,,
,,,,,,,,,,,,,,,90095,001,2022-04-25_22h09.40.705,SPAMnetsValid,2021.1.4,MacIntel,59.84082341,,,,,,,,,,,,,,,,,,,,,,,,,,,,,,,,,,,,,,,,,,,,,,,,,,,,,,,,,,,,,,,,,kangaroo,Animals,4,0,4,0,1,,,,,,,,,,,,,,,,,,
,,,,,,,,,,,,,,,90095,001,2022-04-25_22h09.40.705,SPAMnetsValid,2021.1.4,MacIntel,59.84082341,,,,,,,,,,,,,,,,,,,,,,,,,,,,,,,,,,,,,,,,,,,,,,,,,,,,,,,,,,,,,,,,,lion,Animals,5,0,5,0,1,,,,,,,,,,,,,,,,,,
,,,,,,,,,,,,,,,90095,001,2022-04-25_22h09.40.705,SPAMnetsValid,2021.1.4,MacIntel,59.84082341,,,,,,,,,,,,,,,,,,,,,,,,,,,,,,,,,,,,,,,,,,,,,,,,,,,,,,,,,,,,,,,,,rhino,Animals,6,0,6,0,1,,,,,,,,,,,,,,,,,,
,,,,,,,,,,,,,,,90095,001,2022-04-25_22h09.40.705,SPAMnetsValid,2021.1.4,MacIntel,59.84082341,,,,,,,,,,,,,,,,,,,,,,,,,,,,,,,,,,,,,,,,,,,,,,,,,,,,,,,,,,,,,,,,,zebra,Animals,7,0,7,0,1,,,,,,,,,,,,,,,,,,
,,,,,,,,,,,,,,,90095,001,2022-04-25_22h09.40.705,SPAMnetsValid,2021.1.4,MacIntel,59.84082341,,,,,,,,,,,,,,,,,,,,,,,,,,,,,,,,,,,,,,,,,,,,,,,,,,,,,,,,,,,,,,,,,elephant,Animals,8,0,8,0,1,,,,,,,,,,,,,,,,,,
,,,,,,,,,,,,,,,90095,001,2022-04-25_22h09.40.705,SPAMnetsValid,2021.1.4,MacIntel,59.84082341,,,,,,,,,,,,,,,,,,,,,,,,,,,,,,,,,,,,,,,,,,,,,,,,,,,,,,,,,,,,,,,,,birds,Animals,9,0,9,0,1,,,,,,,,,,,,,,,,,,
,,,,,,,,,,,,,,,90095,001,2022-04-25_22h09.40.705,SPAMnetsValid,2021.1.4,MacIntel,59.84082341,,,,,,,,,,,,,,,,,,,,,,,,,,,,,,,,,,,,,,,,,,,,,,,,,,,,,,,,,,,,,,,,,fox,Animals,10,0,10,0,1,,,,,,,,,,,,,,,,,,
,,,,,,,,,,,,,,,90095,001,2022-04-25_22h09.40.705,SPAMnetsValid,2021.1.4,MacIntel,59.84082341,,,,,,,,,,,,,,,,,,,,,,,,,,,,,,,,,,,,,,,,,,,,,,,,,,,,,,,,,,,,,,,,,red fox,Animals,11,0,11,0,1,,,,,,,,,,,,,,,,,,
,,,,,,,,,,,,,,,90095,001,2022-04-25_22h09.40.705,SPAMnetsValid,2021.1.4,MacIntel,59.84082341,,,,,,,,,,,,,,,,,,,,,,,,,,,,,,,,,,,,,,,,,,,,,,,,,,,,,,,,,,,,,,,,,wolf,Animals,12,0,12,0,1,,,,,,,,,,,,,,,,,,
,,,,,,,,,,,,,,,90095,001,2022-04-25_22h09.40.705,SPAMnetsValid,2021.1.4,MacIntel,59.84082341,,,,,,,,,,,,,,,,,,,,,,,,,,,,,,,,,,,,,,,,,,,,,,,,,,,,,,,,,,,,,,,,,camel,Animals,13,0,13,0,1,,,,,,,,,,,,,,,,,,
,,,,,,,,,,,,,,,90095,001,2022-04-25_22h09.40.705,SPAMnetsValid,2021.1.4,MacIntel,59.84082341,,,,,,,,,,,,,,,,,,,,,,,,,,,,,,,,,,,,,,,,,,,,,,,,,,,,,,,,,,,,,,,,,horse,Animals,14,0,14,0,1,,,,,,,,,,,,,,,,,,
,,,,,,,,,,,,,,,90095,001,2022-04-25_22h09.40.705,SPAMnetsValid,2021.1.4,MacIntel,59.84082341,,,,,,,,,,,,,,,,,,,,,,,,,,,,,,,,,,,,,,,,,,,,,,,,,,,,,,,,,,,,,,,,,unicorn ,Animals,15,0,15,0,1,,,,,,,,,,,,,,,,,,
,,,,,,,,,,,,,,,90095,001,2022-04-25_22h09.40.705,SPAMnetsValid,2021.1.4,MacIntel,59.84082341,,,,,,,,,,,,,,,,,,,,,,,,,,,,,,,,,,,,,,,,,,,,,,,,,,,,,,,,,,,,,,,,,duck,Animals,16,0,16,0,1,,,,,,,,,,,,,,,,,,
,,,,,,,,,,,,,,,90095,001,2022-04-25_22h09.40.705,SPAMnetsValid,2021.1.4,MacIntel,59.84082341,,,,,,,,,,,,,,,,,,,,,,,,,,,,,,,,,,,,,,,,,,,,,,,,,,,,,,,,,,,,,,,,,snake,Animals,17,0,17,0,1,,,,,,,,,,,,,,,,,,
,,,,,,,,,,,,,,,90095,001,2022-04-25_22h09.40.705,SPAMnetsValid,2021.1.4,MacIntel,59.84082341,,,,,,,,,,,,,,,,,,,,,,,,,,,,,,,,,,,,,,,,,,,,,,,,,,,,,,,,,,,,,,,,,aligator,Animals,18,0,18,0,1,,,,,,,,,,,,,,,,,,
,,,,,,,,,,,,,,,90095,001,2022-04-25_22h09.40.705,SPAMnetsValid,2021.1.4,MacIntel,59.84082341,,,,,,,,,,,,,,,,,,,,,,,,,,,,,,,,,,,,,,,,,,,,,,,,,,,,,,,,,,,,,,,,,,,,,,,,0,0,0,0,1,Animals,,,,,,,,,,,,
,,,,,,,,,,,,,,,90095,001,2022-04-25_22h09.40.705,SPAMnetsValid,2021.1.4,MacIntel,59.84082341,,,,,,,,,,,,,,,,,,,,,,,,,,,,,,,,,,,,,,,,,,,,,,,,,,,,,,,,,,,,,,,,,,,,,,,,,,,,,,5,4.9761,0,0,0,0,1,"I enjoy concentrating on a fantasy or daydream and exploring all its possibilities, letting it grow and develop.",0,1,,
,,,,,,,,,,,,,,,90095,001,2022-04-25_22h09.40.705,SPAMnetsValid,2021.1.4,MacIntel,59.84082341,,,,,,,,,,,,,,,,,,,,,,,,,,,,,,,,,,,,,,,,,,,,,,,,,,,,,,,,,,,,,,,,,,,,,,,,,,,,,,4,2.0174,0,1,1,1,1,I think it's interesting to learn and develop new hobbies.,0,2,,
,,,,,,,,,,,,,,,90095,001,2022-04-25_22h09.40.705,SPAMnetsValid,2021.1.4,MacIntel,59.84082341,,,,,,,,,,,,,,,,,,,,,,,,,,,,,,,,,,,,,,,,,,,,,,,,,,,,,,,,,,,,,,,,,,,,,,,,,,,,,,4,1.7811,0,2,2,2,1,I am intrigued by the patterns I find in art and nature.,0,3,,
,,,,,,,,,,,,,,,90095,001,2022-04-25_22h09.40.705,SPAMnetsValid,2021.1.4,MacIntel,59.84082341,,,,,,,,,,,,,,,,,,,,,,,,,,,,,,,,,,,,,,,,,,,,,,,,,,,,,,,,,,,,,,,,,,,,,,,,,,,,,,2,4.1403,0,3,3,3,1,I believe letting students hear controversial speakers can only confuse and mislead them.,1,4,,
,,,,,,,,,,,,,,,90095,001,2022-04-25_22h09.40.705,SPAMnetsValid,2021.1.4,MacIntel,59.84082341,,,,,,,,,,,,,,,,,,,,,,,,,,,,,,,,,,,,,,,,,,,,,,,,,,,,,,,,,,,,,,,,,,,,,,,,,,,,,,2,2.6474,0,4,4,4,1,Poetry has little or no effect on me.,1,5,,
,,,,,,,,,,,,,,,90095,001,2022-04-25_22h09.40.705,SPAMnetsValid,2021.1.4,MacIntel,59.84082341,,,,,,,,,,,,,,,,,,,,,,,,,,,,,,,,,,,,,,,,,,,,,,,,,,,,,,,,,,,,,,,,,,,,,,,,,,,,,,2,3.4035,0,5,5,5,1,I would have difficulty just letting my mind wander without control or guidance.,1,6,,
,,,,,,,,,,,,,,,90095,001,2022-04-25_22h09.40.705,SPAMnetsValid,2021.1.4,MacIntel,59.84082341,,,,,,,,,,,,,,,,,,,,,,,,,,,,,,,,,,,,,,,,,,,,,,,,,,,,,,,,,,,,,,,,,,,,,,,,,,,,,,3,4.7068,0,6,6,6,1,I seldom notice the moods or feelings that different environments produce.,1,7,,
,,,,,,,,,,,,,,,90095,001,2022-04-25_22h09.40.705,SPAMnetsValid,2021.1.4,MacIntel,59.84082341,,,,,,,,,,,,,,,,,,,,,,,,,,,,,,,,,,,,,,,,,,,,,,,,,,,,,,,,,,,,,,,,,,,,,,,,,,,,,,4,2.4814,0,7,7,7,1,I experience a wide range of emotions or feelings.,0,8,,
,,,,,,,,,,,,,,,90095,001,2022-04-25_22h09.40.705,SPAMnetsValid,2021.1.4,MacIntel,59.84082341,,,,,,,,,,,,,,,,,,,,,,,,,,,,,,,,,,,,,,,,,,,,,,,,,,,,,,,,,,,,,,,,,,,,,,,,,,,,,,1,5.2982,0,8,8,8,1,"Sometimes when I am reading poetry or looking at a work of art, I feel a chill or wave of excitement.",0,9,,
,,,,,,,,,,,,,,,90095,001,2022-04-25_22h09.40.705,SPAMnetsValid,2021.1.4,MacIntel,59.84082341,,,,,,,,,,,,,,,,,,,,,,,,,,,,,,,,,,,,,,,,,,,,,,,,,,,,,,,,,,,,,,,,,,,,,,,,,,,,,,3,3.2373,0,9,9,9,1,I have little interest in speculating on the nature of the universe or the human condition.,1,10,,
,,,,,,,,,,,,,,,90095,001,2022-04-25_22h09.40.705,SPAMnetsValid,2021.1.4,MacIntel,59.84082341,,,,,,,,,,,,,,,,,,,,,,,,,,,,,,,,,,,,,,,,,,,,,,,,,,,,,,,,,,,,,,,,,,,,,,,,,,,,,,4,2.6493,0,10,10,10,1,I have a lot of intellectual curiosity.,0,11,,
,,,,,,,,,,,,,,,90095,001,2022-04-25_22h09.40.705,SPAMnetsValid,2021.1.4,MacIntel,59.84082341,,,,,,,,,,,,,,,,,,,,,,,,,,,,,,,,,,,,,,,,,,,,,,,,,,,,,,,,,,,,,,,,,,,,,,,,,,,,,,2,3.4864,0,11,11,11,1,I often enjoy playing with theories or abstract ideas.,0,12,,
,,,,,,,,,,,,,,,90095,001,2022-04-25_22h09.40.705,SPAMnetsValid,2021.1.4,MacIntel,59.84082341,,,,,,,,,,,,,,,,,,,,,,,,,,,,,,,,,,,,,,,,,,,,,,,,,,,,,,,,,,,,,,,,,,,,,,,,,,,,,,,,,,,,,,,,return,12.7733
