key_resp_3.keys,key_resp_3.rt,slider.response,slider.rt,rjt_rating,rjt_RT,trials_22.thisRepN,trials_22.thisTrialN,trials_22.thisN,trials_22.thisIndex,trials_22.ran,rjt_order,word1,word2,attention,participant,session,date,expName,psychopyVersion,OS,frameRate,trials_99.thisRepN,trials_99.thisTrialN,trials_99.thisN,trials_99.thisIndex,trials_99.ran,trials_5.thisRepN,trials_5.thisTrialN,trials_5.thisN,trials_5.thisIndex,trials_5.ran,repOne,repTwo,slider_2.response,slider_2.rt,trials_24.thisRepN,trials_24.thisTrialN,trials_24.thisN,trials_24.thisIndex,trials_24.ran,trials_4.thisRepN,trials_4.thisTrialN,trials_4.thisN,trials_4.thisIndex,trials_4.ran,slider_extend_2.response,slider_extend_2.rt,trials_6.thisRepN,trials_6.thisTrialN,trials_6.thisN,trials_6.thisIndex,trials_6.ran,vCue2,R1,R2,R3,R4,correct,sliderVocab.response,sliderVocab.rt,trials_7.thisRepN,trials_7.thisTrialN,trials_7.thisN,trials_7.thisIndex,trials_7.ran,VocabCue,VR1,VR2,VR3,VR4,VR5,VocabCorrect,AUT_resp,AUT_label,trials.thisRepN,trials.thisTrialN,trials.thisN,trials.thisIndex,trials.ran,trials_2.thisRepN,trials_2.thisTrialN,trials_2.thisN,trials_2.thisIndex,trials_2.ran,aut_prompt,trials_17.thisRepN,trials_17.thisTrialN,trials_17.thisN,trials_17.thisIndex,trials_17.ran,VFcond,open_slider.response,open_slider.rt,trials_3.thisRepN,trials_3.thisTrialN,trials_3.thisN,trials_3.thisIndex,trials_3.ran,OpenQ,Rev,OPEN_ORDER,key_resp_2.keys,key_resp_2.rt
return,15.368,1,6.646,1,6.646,0,0,0,25,1,23,flower,microwave,,90116,001,2022-04-29_12h14.29.447,SPAMnetsValid,2021.1.4,MacIntel,66.66666667,,,,,,,,,,,,,,,,,,,,,,,,,,,,,,,,,,,,,,,,,,,,,,,,,,,,,,,,,,,,,,,,,,,,,,,,,,,,,,,,,,
,,1,5.303,1,5.303,0,1,1,89,1,80,chocolate,tree,,90116,001,2022-04-29_12h14.29.447,SPAMnetsValid,2021.1.4,MacIntel,66.66666667,,,,,,,,,,,,,,,,,,,,,,,,,,,,,,,,,,,,,,,,,,,,,,,,,,,,,,,,,,,,,,,,,,,,,,,,,,,,,,,,,,
,,1,14.148,1,14.148,0,2,2,41,1,19,microwave,pretzel,,90116,001,2022-04-29_12h14.29.447,SPAMnetsValid,2021.1.4,MacIntel,66.66666667,,,,,,,,,,,,,,,,,,,,,,,,,,,,,,,,,,,,,,,,,,,,,,,,,,,,,,,,,,,,,,,,,,,,,,,,,,,,,,,,,,
,,1,2.114,1,2.114,0,3,3,22,1,16,chocolate,flower,,90116,001,2022-04-29_12h14.29.447,SPAMnetsValid,2021.1.4,MacIntel,66.66666667,,,,,,,,,,,,,,,,,,,,,,,,,,,,,,,,,,,,,,,,,,,,,,,,,,,,,,,,,,,,,,,,,,,,,,,,,,,,,,,,,,
,,1,3.081,1,3.081,0,4,4,60,1,89,chocolate,rose,,90116,001,2022-04-29_12h14.29.447,SPAMnetsValid,2021.1.4,MacIntel,66.66666667,,,,,,,,,,,,,,,,,,,,,,,,,,,,,,,,,,,,,,,,,,,,,,,,,,,,,,,,,,,,,,,,,,,,,,,,,,,,,,,,,,
,,5,5.907,5,5.907,0,5,5,78,1,30,cookie,pretzel,,90116,001,2022-04-29_12h14.29.447,SPAMnetsValid,2021.1.4,MacIntel,66.66666667,,,,,,,,,,,,,,,,,,,,,,,,,,,,,,,,,,,,,,,,,,,,,,,,,,,,,,,,,,,,,,,,,,,,,,,,,,,,,,,,,,
,,5,18.581,5,18.581,0,6,6,42,1,77,refrigerator,yogurt,,90116,001,2022-04-29_12h14.29.447,SPAMnetsValid,2021.1.4,MacIntel,66.66666667,,,,,,,,,,,,,,,,,,,,,,,,,,,,,,,,,,,,,,,,,,,,,,,,,,,,,,,,,,,,,,,,,,,,,,,,,,,,,,,,,,
,,1,3.824,1,3.824,0,7,7,14,1,64,chocolate,garden,,90116,001,2022-04-29_12h14.29.447,SPAMnetsValid,2021.1.4,MacIntel,66.66666667,,,,,,,,,,,,,,,,,,,,,,,,,,,,,,,,,,,,,,,,,,,,,,,,,,,,,,,,,,,,,,,,,,,,,,,,,,,,,,,,,,
,,5,2.14,5,2.14,0,8,8,2,1,22,kitchen,strawberry,,90116,001,2022-04-29_12h14.29.447,SPAMnetsValid,2021.1.4,MacIntel,66.66666667,,,,,,,,,,,,,,,,,,,,,,,,,,,,,,,,,,,,,,,,,,,,,,,,,,,,,,,,,,,,,,,,,,,,,,,,,,,,,,,,,,
,,1,5.142,1,5.142,0,9,9,92,1,44,cookie,melon,,90116,001,2022-04-29_12h14.29.447,SPAMnetsValid,2021.1.4,MacIntel,66.66666667,,,,,,,,,,,,,,,,,,,,,,,,,,,,,,,,,,,,,,,,,,,,,,,,,,,,,,,,,,,,,,,,,,,,,,,,,,,,,,,,,,
,,1,3.276,1,3.276,0,10,10,50,1,81,pretzel,yogurt,,90116,001,2022-04-29_12h14.29.447,SPAMnetsValid,2021.1.4,MacIntel,66.66666667,,,,,,,,,,,,,,,,,,,,,,,,,,,,,,,,,,,,,,,,,,,,,,,,,,,,,,,,,,,,,,,,,,,,,,,,,,,,,,,,,,
,,1,1.662,1,1.662,0,11,11,40,1,74,broom,pretzel,,90116,001,2022-04-29_12h14.29.447,SPAMnetsValid,2021.1.4,MacIntel,66.66666667,,,,,,,,,,,,,,,,,,,,,,,,,,,,,,,,,,,,,,,,,,,,,,,,,,,,,,,,,,,,,,,,,,,,,,,,,,,,,,,,,,
,,5,3.675,5,3.675,0,12,12,96,1,82,cake,kitchen,,90116,001,2022-04-29_12h14.29.447,SPAMnetsValid,2021.1.4,MacIntel,66.66666667,,,,,,,,,,,,,,,,,,,,,,,,,,,,,,,,,,,,,,,,,,,,,,,,,,,,,,,,,,,,,,,,,,,,,,,,,,,,,,,,,,
,,1,2.059,1,2.059,0,13,13,43,1,11,refrigerator,tree,,90116,001,2022-04-29_12h14.29.447,SPAMnetsValid,2021.1.4,MacIntel,66.66666667,,,,,,,,,,,,,,,,,,,,,,,,,,,,,,,,,,,,,,,,,,,,,,,,,,,,,,,,,,,,,,,,,,,,,,,,,,,,,,,,,,
,,1,1.698,1,1.698,0,14,14,29,1,42,garden,kitchen,,90116,001,2022-04-29_12h14.29.447,SPAMnetsValid,2021.1.4,MacIntel,66.66666667,,,,,,,,,,,,,,,,,,,,,,,,,,,,,,,,,,,,,,,,,,,,,,,,,,,,,,,,,,,,,,,,,,,,,,,,,,,,,,,,,,
,,1,1.647,1,1.647,0,15,15,5,1,13,broom,yogurt,,90116,001,2022-04-29_12h14.29.447,SPAMnetsValid,2021.1.4,MacIntel,66.66666667,,,,,,,,,,,,,,,,,,,,,,,,,,,,,,,,,,,,,,,,,,,,,,,,,,,,,,,,,,,,,,,,,,,,,,,,,,,,,,,,,,
,,5,1.863,5,1.863,0,16,16,93,1,63,cake,cookie,,90116,001,2022-04-29_12h14.29.447,SPAMnetsValid,2021.1.4,MacIntel,66.66666667,,,,,,,,,,,,,,,,,,,,,,,,,,,,,,,,,,,,,,,,,,,,,,,,,,,,,,,,,,,,,,,,,,,,,,,,,,,,,,,,,,
,,5,1.61,5,1.61,0,17,17,68,1,24,cookie,tomato,,90116,001,2022-04-29_12h14.29.447,SPAMnetsValid,2021.1.4,MacIntel,66.66666667,,,,,,,,,,,,,,,,,,,,,,,,,,,,,,,,,,,,,,,,,,,,,,,,,,,,,,,,,,,,,,,,,,,,,,,,,,,,,,,,,,
,,5,1.226,5,1.226,0,18,18,24,1,17,carrot,melon,,90116,001,2022-04-29_12h14.29.447,SPAMnetsValid,2021.1.4,MacIntel,66.66666667,,,,,,,,,,,,,,,,,,,,,,,,,,,,,,,,,,,,,,,,,,,,,,,,,,,,,,,,,,,,,,,,,,,,,,,,,,,,,,,,,,
,,5,3.721,5,3.721,0,19,19,34,1,29,chocolate,melon,,90116,001,2022-04-29_12h14.29.447,SPAMnetsValid,2021.1.4,MacIntel,66.66666667,,,,,,,,,,,,,,,,,,,,,,,,,,,,,,,,,,,,,,,,,,,,,,,,,,,,,,,,,,,,,,,,,,,,,,,,,,,,,,,,,,
,,1,1.697,1,1.697,0,20,20,84,1,91,microwave,rose,,90116,001,2022-04-29_12h14.29.447,SPAMnetsValid,2021.1.4,MacIntel,66.66666667,,,,,,,,,,,,,,,,,,,,,,,,,,,,,,,,,,,,,,,,,,,,,,,,,,,,,,,,,,,,,,,,,,,,,,,,,,,,,,,,,,
,,5,2.33,5,2.33,0,21,21,82,1,93,kitchen,oven,,90116,001,2022-04-29_12h14.29.447,SPAMnetsValid,2021.1.4,MacIntel,66.66666667,,,,,,,,,,,,,,,,,,,,,,,,,,,,,,,,,,,,,,,,,,,,,,,,,,,,,,,,,,,,,,,,,,,,,,,,,,,,,,,,,,
,,5,0.776,5,0.776,0,22,22,20,1,39,melon,pretzel,,90116,001,2022-04-29_12h14.29.447,SPAMnetsValid,2021.1.4,MacIntel,66.66666667,,,,,,,,,,,,,,,,,,,,,,,,,,,,,,,,,,,,,,,,,,,,,,,,,,,,,,,,,,,,,,,,,,,,,,,,,,,,,,,,,,
,,5,1.391,5,1.391,0,23,23,36,1,12,cookie,yogurt,,90116,001,2022-04-29_12h14.29.447,SPAMnetsValid,2021.1.4,MacIntel,66.66666667,,,,,,,,,,,,,,,,,,,,,,,,,,,,,,,,,,,,,,,,,,,,,,,,,,,,,,,,,,,,,,,,,,,,,,,,,,,,,,,,,,
,,5,1.645,5,1.645,0,24,24,19,1,76,garden,rose,,90116,001,2022-04-29_12h14.29.447,SPAMnetsValid,2021.1.4,MacIntel,66.66666667,,,,,,,,,,,,,,,,,,,,,,,,,,,,,,,,,,,,,,,,,,,,,,,,,,,,,,,,,,,,,,,,,,,,,,,,,,,,,,,,,,
,,5,1.629,5,1.629,0,25,25,35,1,55,tomato,tree,,90116,001,2022-04-29_12h14.29.447,SPAMnetsValid,2021.1.4,MacIntel,66.66666667,,,,,,,,,,,,,,,,,,,,,,,,,,,,,,,,,,,,,,,,,,,,,,,,,,,,,,,,,,,,,,,,,,,,,,,,,,,,,,,,,,
,,1,1.675,1,1.675,0,26,26,88,1,92,broom,flower,,90116,001,2022-04-29_12h14.29.447,SPAMnetsValid,2021.1.4,MacIntel,66.66666667,,,,,,,,,,,,,,,,,,,,,,,,,,,,,,,,,,,,,,,,,,,,,,,,,,,,,,,,,,,,,,,,,,,,,,,,,,,,,,,,,,
,,5,2.026,5,2.026,0,27,27,51,1,47,onion,tomato,,90116,001,2022-04-29_12h14.29.447,SPAMnetsValid,2021.1.4,MacIntel,66.66666667,,,,,,,,,,,,,,,,,,,,,,,,,,,,,,,,,,,,,,,,,,,,,,,,,,,,,,,,,,,,,,,,,,,,,,,,,,,,,,,,,,
,,5,2.996,5,2.996,0,28,28,52,1,4,chocolate,pretzel,,90116,001,2022-04-29_12h14.29.447,SPAMnetsValid,2021.1.4,MacIntel,66.66666667,,,,,,,,,,,,,,,,,,,,,,,,,,,,,,,,,,,,,,,,,,,,,,,,,,,,,,,,,,,,,,,,,,,,,,,,,,,,,,,,,,
,,1,1.781,1,1.781,0,29,29,46,1,41,broom,cactus,,90116,001,2022-04-29_12h14.29.447,SPAMnetsValid,2021.1.4,MacIntel,66.66666667,,,,,,,,,,,,,,,,,,,,,,,,,,,,,,,,,,,,,,,,,,,,,,,,,,,,,,,,,,,,,,,,,,,,,,,,,,,,,,,,,,
,,5,1.749,5,1.749,0,30,30,65,1,46,garden,yogurt,,90116,001,2022-04-29_12h14.29.447,SPAMnetsValid,2021.1.4,MacIntel,66.66666667,,,,,,,,,,,,,,,,,,,,,,,,,,,,,,,,,,,,,,,,,,,,,,,,,,,,,,,,,,,,,,,,,,,,,,,,,,,,,,,,,,
,,1,1.466,1,1.466,0,31,31,47,1,73,broom,chocolate,,90116,001,2022-04-29_12h14.29.447,SPAMnetsValid,2021.1.4,MacIntel,66.66666667,,,,,,,,,,,,,,,,,,,,,,,,,,,,,,,,,,,,,,,,,,,,,,,,,,,,,,,,,,,,,,,,,,,,,,,,,,,,,,,,,,
,,1,5.642,1,5.642,0,32,32,8,1,43,chocolate,tomato,,90116,001,2022-04-29_12h14.29.447,SPAMnetsValid,2021.1.4,MacIntel,66.66666667,,,,,,,,,,,,,,,,,,,,,,,,,,,,,,,,,,,,,,,,,,,,,,,,,,,,,,,,,,,,,,,,,,,,,,,,,,,,,,,,,,
,,5,1.496,5,1.496,0,33,33,49,1,57,flower,kitchen,,90116,001,2022-04-29_12h14.29.447,SPAMnetsValid,2021.1.4,MacIntel,66.66666667,,,,,,,,,,,,,,,,,,,,,,,,,,,,,,,,,,,,,,,,,,,,,,,,,,,,,,,,,,,,,,,,,,,,,,,,,,,,,,,,,,
,,5,7.343,5,7.343,0,34,34,86,1,51,onion,strawberry,,90116,001,2022-04-29_12h14.29.447,SPAMnetsValid,2021.1.4,MacIntel,66.66666667,,,,,,,,,,,,,,,,,,,,,,,,,,,,,,,,,,,,,,,,,,,,,,,,,,,,,,,,,,,,,,,,,,,,,,,,,,,,,,,,,,
,,5,2.173,5,2.173,0,35,35,54,1,28,cake,melon,,90116,001,2022-04-29_12h14.29.447,SPAMnetsValid,2021.1.4,MacIntel,66.66666667,,,,,,,,,,,,,,,,,,,,,,,,,,,,,,,,,,,,,,,,,,,,,,,,,,,,,,,,,,,,,,,,,,,,,,,,,,,,,,,,,,
,,1,1.966,1,1.966,0,36,36,16,1,14,broom,cookie,,90116,001,2022-04-29_12h14.29.447,SPAMnetsValid,2021.1.4,MacIntel,66.66666667,,,,,,,,,,,,,,,,,,,,,,,,,,,,,,,,,,,,,,,,,,,,,,,,,,,,,,,,,,,,,,,,,,,,,,,,,,,,,,,,,,
,,1,1.824,1,1.824,0,37,37,27,1,72,broom,onion,,90116,001,2022-04-29_12h14.29.447,SPAMnetsValid,2021.1.4,MacIntel,66.66666667,,,,,,,,,,,,,,,,,,,,,,,,,,,,,,,,,,,,,,,,,,,,,,,,,,,,,,,,,,,,,,,,,,,,,,,,,,,,,,,,,,
,,5,1.842,5,1.842,0,38,38,71,1,38,pretzel,refrigerator,,90116,001,2022-04-29_12h14.29.447,SPAMnetsValid,2021.1.4,MacIntel,66.66666667,,,,,,,,,,,,,,,,,,,,,,,,,,,,,,,,,,,,,,,,,,,,,,,,,,,,,,,,,,,,,,,,,,,,,,,,,,,,,,,,,,
,,1,2.287,1,2.287,0,39,39,23,1,65,broom,garden,,90116,001,2022-04-29_12h14.29.447,SPAMnetsValid,2021.1.4,MacIntel,66.66666667,,,,,,,,,,,,,,,,,,,,,,,,,,,,,,,,,,,,,,,,,,,,,,,,,,,,,,,,,,,,,,,,,,,,,,,,,,,,,,,,,,
,,1,3.105,1,3.105,0,40,40,17,1,27,cactus,cookie,,90116,001,2022-04-29_12h14.29.447,SPAMnetsValid,2021.1.4,MacIntel,66.66666667,,,,,,,,,,,,,,,,,,,,,,,,,,,,,,,,,,,,,,,,,,,,,,,,,,,,,,,,,,,,,,,,,,,,,,,,,,,,,,,,,,
,,5,1.297,5,1.297,0,41,41,64,1,9,kitchen,refrigerator,,90116,001,2022-04-29_12h14.29.447,SPAMnetsValid,2021.1.4,MacIntel,66.66666667,,,,,,,,,,,,,,,,,,,,,,,,,,,,,,,,,,,,,,,,,,,,,,,,,,,,,,,,,,,,,,,,,,,,,,,,,,,,,,,,,,
,,5,2.399,5,2.399,0,42,42,67,1,54,chocolate,yogurt,,90116,001,2022-04-29_12h14.29.447,SPAMnetsValid,2021.1.4,MacIntel,66.66666667,,,,,,,,,,,,,,,,,,,,,,,,,,,,,,,,,,,,,,,,,,,,,,,,,,,,,,,,,,,,,,,,,,,,,,,,,,,,,,,,,,
,,5,1.23,5,1.23,0,43,43,91,1,2,kitchen,onion,,90116,001,2022-04-29_12h14.29.447,SPAMnetsValid,2021.1.4,MacIntel,66.66666667,,,,,,,,,,,,,,,,,,,,,,,,,,,,,,,,,,,,,,,,,,,,,,,,,,,,,,,,,,,,,,,,,,,,,,,,,,,,,,,,,,
,,9,3.393,9,3.393,0,44,44,10,1,191,cake,cake,CHECK,90116,001,2022-04-29_12h14.29.447,SPAMnetsValid,2021.1.4,MacIntel,66.66666667,,,,,,,,,,,,,,,,,,,,,,,,,,,,,,,,,,,,,,,,,,,,,,,,,,,,,,,,,,,,,,,,,,,,,,,,,,,,,,,,,,
,,5,5.993,5,5.993,0,45,45,39,1,15,onion,oven,,90116,001,2022-04-29_12h14.29.447,SPAMnetsValid,2021.1.4,MacIntel,66.66666667,,,,,,,,,,,,,,,,,,,,,,,,,,,,,,,,,,,,,,,,,,,,,,,,,,,,,,,,,,,,,,,,,,,,,,,,,,,,,,,,,,
,,1,1.745,1,1.745,0,46,46,26,1,35,flower,pretzel,,90116,001,2022-04-29_12h14.29.447,SPAMnetsValid,2021.1.4,MacIntel,66.66666667,,,,,,,,,,,,,,,,,,,,,,,,,,,,,,,,,,,,,,,,,,,,,,,,,,,,,,,,,,,,,,,,,,,,,,,,,,,,,,,,,,
,,1,1.393,1,1.393,0,47,47,12,1,67,flower,yogurt,,90116,001,2022-04-29_12h14.29.447,SPAMnetsValid,2021.1.4,MacIntel,66.66666667,,,,,,,,,,,,,,,,,,,,,,,,,,,,,,,,,,,,,,,,,,,,,,,,,,,,,,,,,,,,,,,,,,,,,,,,,,,,,,,,,,
,,5,3.553,5,3.553,0,48,48,44,1,25,carrot,onion,,90116,001,2022-04-29_12h14.29.447,SPAMnetsValid,2021.1.4,MacIntel,66.66666667,,,,,,,,,,,,,,,,,,,,,,,,,,,,,,,,,,,,,,,,,,,,,,,,,,,,,,,,,,,,,,,,,,,,,,,,,,,,,,,,,,
,,1,1.426,1,1.426,0,49,49,61,1,71,broom,rose,,90116,001,2022-04-29_12h14.29.447,SPAMnetsValid,2021.1.4,MacIntel,66.66666667,,,,,,,,,,,,,,,,,,,,,,,,,,,,,,,,,,,,,,,,,,,,,,,,,,,,,,,,,,,,,,,,,,,,,,,,,,,,,,,,,,
,,5,2.814,5,2.814,0,50,50,94,1,68,flower,tomato,,90116,001,2022-04-29_12h14.29.447,SPAMnetsValid,2021.1.4,MacIntel,66.66666667,,,,,,,,,,,,,,,,,,,,,,,,,,,,,,,,,,,,,,,,,,,,,,,,,,,,,,,,,,,,,,,,,,,,,,,,,,,,,,,,,,
,,5,6.645,5,6.645,0,51,51,6,1,87,carrot,yogurt,,90116,001,2022-04-29_12h14.29.447,SPAMnetsValid,2021.1.4,MacIntel,66.66666667,,,,,,,,,,,,,,,,,,,,,,,,,,,,,,,,,,,,,,,,,,,,,,,,,,,,,,,,,,,,,,,,,,,,,,,,,,,,,,,,,,
,,1,1.812,1,1.812,0,52,52,81,1,60,cactus,onion,,90116,001,2022-04-29_12h14.29.447,SPAMnetsValid,2021.1.4,MacIntel,66.66666667,,,,,,,,,,,,,,,,,,,,,,,,,,,,,,,,,,,,,,,,,,,,,,,,,,,,,,,,,,,,,,,,,,,,,,,,,,,,,,,,,,
,,1,3.222,1,3.222,0,53,53,66,1,20,rose,tree,,90116,001,2022-04-29_12h14.29.447,SPAMnetsValid,2021.1.4,MacIntel,66.66666667,,,,,,,,,,,,,,,,,,,,,,,,,,,,,,,,,,,,,,,,,,,,,,,,,,,,,,,,,,,,,,,,,,,,,,,,,,,,,,,,,,
,,1,2.365,1,2.365,0,54,54,73,1,50,carrot,rose,,90116,001,2022-04-29_12h14.29.447,SPAMnetsValid,2021.1.4,MacIntel,66.66666667,,,,,,,,,,,,,,,,,,,,,,,,,,,,,,,,,,,,,,,,,,,,,,,,,,,,,,,,,,,,,,,,,,,,,,,,,,,,,,,,,,
,,1,1.015,1,1.015,0,55,55,7,1,34,melon,oven,,90116,001,2022-04-29_12h14.29.447,SPAMnetsValid,2021.1.4,MacIntel,66.66666667,,,,,,,,,,,,,,,,,,,,,,,,,,,,,,,,,,,,,,,,,,,,,,,,,,,,,,,,,,,,,,,,,,,,,,,,,,,,,,,,,,
,,1,1.481,1,1.481,0,56,56,58,1,94,kitchen,microwave,,90116,001,2022-04-29_12h14.29.447,SPAMnetsValid,2021.1.4,MacIntel,66.66666667,,,,,,,,,,,,,,,,,,,,,,,,,,,,,,,,,,,,,,,,,,,,,,,,,,,,,,,,,,,,,,,,,,,,,,,,,,,,,,,,,,
,,1,2.458,1,2.458,0,57,57,69,1,45,onion,pretzel,,90116,001,2022-04-29_12h14.29.447,SPAMnetsValid,2021.1.4,MacIntel,66.66666667,,,,,,,,,,,,,,,,,,,,,,,,,,,,,,,,,,,,,,,,,,,,,,,,,,,,,,,,,,,,,,,,,,,,,,,,,,,,,,,,,,
,,1,1.676,1,1.676,0,58,58,72,1,59,rose,strawberry,,90116,001,2022-04-29_12h14.29.447,SPAMnetsValid,2021.1.4,MacIntel,66.66666667,,,,,,,,,,,,,,,,,,,,,,,,,,,,,,,,,,,,,,,,,,,,,,,,,,,,,,,,,,,,,,,,,,,,,,,,,,,,,,,,,,
,,1,2.063,1,2.063,0,59,59,28,1,84,oven,tomato,,90116,001,2022-04-29_12h14.29.447,SPAMnetsValid,2021.1.4,MacIntel,66.66666667,,,,,,,,,,,,,,,,,,,,,,,,,,,,,,,,,,,,,,,,,,,,,,,,,,,,,,,,,,,,,,,,,,,,,,,,,,,,,,,,,,
,,1,1.544,1,1.544,0,60,60,11,1,37,garden,refrigerator,,90116,001,2022-04-29_12h14.29.447,SPAMnetsValid,2021.1.4,MacIntel,66.66666667,,,,,,,,,,,,,,,,,,,,,,,,,,,,,,,,,,,,,,,,,,,,,,,,,,,,,,,,,,,,,,,,,,,,,,,,,,,,,,,,,,
,,1,1.625,1,1.625,0,61,61,15,1,48,flower,oven,,90116,001,2022-04-29_12h14.29.447,SPAMnetsValid,2021.1.4,MacIntel,66.66666667,,,,,,,,,,,,,,,,,,,,,,,,,,,,,,,,,,,,,,,,,,,,,,,,,,,,,,,,,,,,,,,,,,,,,,,,,,,,,,,,,,
,,1,1.581,1,1.581,0,62,62,76,1,36,broom,kitchen,,90116,001,2022-04-29_12h14.29.447,SPAMnetsValid,2021.1.4,MacIntel,66.66666667,,,,,,,,,,,,,,,,,,,,,,,,,,,,,,,,,,,,,,,,,,,,,,,,,,,,,,,,,,,,,,,,,,,,,,,,,,,,,,,,,,
,,1,1.278,1,1.278,0,63,63,38,1,88,cactus,melon,,90116,001,2022-04-29_12h14.29.447,SPAMnetsValid,2021.1.4,MacIntel,66.66666667,,,,,,,,,,,,,,,,,,,,,,,,,,,,,,,,,,,,,,,,,,,,,,,,,,,,,,,,,,,,,,,,,,,,,,,,,,,,,,,,,,
,,1,1.481,1,1.481,0,64,64,56,1,78,cookie,rose,,90116,001,2022-04-29_12h14.29.447,SPAMnetsValid,2021.1.4,MacIntel,66.66666667,,,,,,,,,,,,,,,,,,,,,,,,,,,,,,,,,,,,,,,,,,,,,,,,,,,,,,,,,,,,,,,,,,,,,,,,,,,,,,,,,,
,,5,3.878,5,3.878,0,65,65,85,1,90,cactus,cake,,90116,001,2022-04-29_12h14.29.447,SPAMnetsValid,2021.1.4,MacIntel,66.66666667,,,,,,,,,,,,,,,,,,,,,,,,,,,,,,,,,,,,,,,,,,,,,,,,,,,,,,,,,,,,,,,,,,,,,,,,,,,,,,,,,,
,,1,1.741,1,1.741,0,66,66,87,1,79,garden,strawberry,,90116,001,2022-04-29_12h14.29.447,SPAMnetsValid,2021.1.4,MacIntel,66.66666667,,,,,,,,,,,,,,,,,,,,,,,,,,,,,,,,,,,,,,,,,,,,,,,,,,,,,,,,,,,,,,,,,,,,,,,,,,,,,,,,,,
,,1,0.014,1,0.014,0,67,67,63,1,21,cake,onion,,90116,001,2022-04-29_12h14.29.447,SPAMnetsValid,2021.1.4,MacIntel,66.66666667,,,,,,,,,,,,,,,,,,,,,,,,,,,,,,,,,,,,,,,,,,,,,,,,,,,,,,,,,,,,,,,,,,,,,,,,,,,,,,,,,,
,,1,0.029,1,0.029,0,68,68,4,1,83,broom,carrot,,90116,001,2022-04-29_12h14.29.447,SPAMnetsValid,2021.1.4,MacIntel,66.66666667,,,,,,,,,,,,,,,,,,,,,,,,,,,,,,,,,,,,,,,,,,,,,,,,,,,,,,,,,,,,,,,,,,,,,,,,,,,,,,,,,,
,,1,0.031,1,0.031,0,69,69,90,1,95,broom,refrigerator,,90116,001,2022-04-29_12h14.29.447,SPAMnetsValid,2021.1.4,MacIntel,66.66666667,,,,,,,,,,,,,,,,,,,,,,,,,,,,,,,,,,,,,,,,,,,,,,,,,,,,,,,,,,,,,,,,,,,,,,,,,,,,,,,,,,
,,1,1.5,1,1.5,0,70,70,18,1,85,cake,tree,,90116,001,2022-04-29_12h14.29.447,SPAMnetsValid,2021.1.4,MacIntel,66.66666667,,,,,,,,,,,,,,,,,,,,,,,,,,,,,,,,,,,,,,,,,,,,,,,,,,,,,,,,,,,,,,,,,,,,,,,,,,,,,,,,,,
,,1,0.258,1,0.258,0,71,71,37,1,58,garden,oven,,90116,001,2022-04-29_12h14.29.447,SPAMnetsValid,2021.1.4,MacIntel,66.66666667,,,,,,,,,,,,,,,,,,,,,,,,,,,,,,,,,,,,,,,,,,,,,,,,,,,,,,,,,,,,,,,,,,,,,,,,,,,,,,,,,,
,,9,1.843,9,1.843,0,72,72,53,1,192,microwave,microwave,CHECK,90116,001,2022-04-29_12h14.29.447,SPAMnetsValid,2021.1.4,MacIntel,66.66666667,,,,,,,,,,,,,,,,,,,,,,,,,,,,,,,,,,,,,,,,,,,,,,,,,,,,,,,,,,,,,,,,,,,,,,,,,,,,,,,,,,
,,1,2.576,1,2.576,0,73,73,3,1,49,flower,strawberry,,90116,001,2022-04-29_12h14.29.447,SPAMnetsValid,2021.1.4,MacIntel,66.66666667,,,,,,,,,,,,,,,,,,,,,,,,,,,,,,,,,,,,,,,,,,,,,,,,,,,,,,,,,,,,,,,,,,,,,,,,,,,,,,,,,,
,,1,1.187,1,1.187,0,74,74,55,1,1,rose,yogurt,,90116,001,2022-04-29_12h14.29.447,SPAMnetsValid,2021.1.4,MacIntel,66.66666667,,,,,,,,,,,,,,,,,,,,,,,,,,,,,,,,,,,,,,,,,,,,,,,,,,,,,,,,,,,,,,,,,,,,,,,,,,,,,,,,,,
,,1,2.56,1,2.56,0,75,75,62,1,18,onion,refrigerator,,90116,001,2022-04-29_12h14.29.447,SPAMnetsValid,2021.1.4,MacIntel,66.66666667,,,,,,,,,,,,,,,,,,,,,,,,,,,,,,,,,,,,,,,,,,,,,,,,,,,,,,,,,,,,,,,,,,,,,,,,,,,,,,,,,,
,,1,1.178,1,1.178,0,76,76,45,1,10,flower,onion,,90116,001,2022-04-29_12h14.29.447,SPAMnetsValid,2021.1.4,MacIntel,66.66666667,,,,,,,,,,,,,,,,,,,,,,,,,,,,,,,,,,,,,,,,,,,,,,,,,,,,,,,,,,,,,,,,,,,,,,,,,,,,,,,,,,
,,1,1.363,1,1.363,0,77,77,30,1,3,cake,oven,,90116,001,2022-04-29_12h14.29.447,SPAMnetsValid,2021.1.4,MacIntel,66.66666667,,,,,,,,,,,,,,,,,,,,,,,,,,,,,,,,,,,,,,,,,,,,,,,,,,,,,,,,,,,,,,,,,,,,,,,,,,,,,,,,,,
,,1,1.16,1,1.16,0,78,78,13,1,26,tomato,yogurt,,90116,001,2022-04-29_12h14.29.447,SPAMnetsValid,2021.1.4,MacIntel,66.66666667,,,,,,,,,,,,,,,,,,,,,,,,,,,,,,,,,,,,,,,,,,,,,,,,,,,,,,,,,,,,,,,,,,,,,,,,,,,,,,,,,,
,,1,1.183,1,1.183,0,79,79,33,1,32,cake,microwave,,90116,001,2022-04-29_12h14.29.447,SPAMnetsValid,2021.1.4,MacIntel,66.66666667,,,,,,,,,,,,,,,,,,,,,,,,,,,,,,,,,,,,,,,,,,,,,,,,,,,,,,,,,,,,,,,,,,,,,,,,,,,,,,,,,,
,,1,1.029,1,1.029,0,80,80,59,1,8,broom,melon,,90116,001,2022-04-29_12h14.29.447,SPAMnetsValid,2021.1.4,MacIntel,66.66666667,,,,,,,,,,,,,,,,,,,,,,,,,,,,,,,,,,,,,,,,,,,,,,,,,,,,,,,,,,,,,,,,,,,,,,,,,,,,,,,,,,
,,1,1.375,1,1.375,0,81,81,79,1,86,oven,rose,,90116,001,2022-04-29_12h14.29.447,SPAMnetsValid,2021.1.4,MacIntel,66.66666667,,,,,,,,,,,,,,,,,,,,,,,,,,,,,,,,,,,,,,,,,,,,,,,,,,,,,,,,,,,,,,,,,,,,,,,,,,,,,,,,,,
,,1,0.978,1,0.978,0,82,82,80,1,61,strawberry,tomato,,90116,001,2022-04-29_12h14.29.447,SPAMnetsValid,2021.1.4,MacIntel,66.66666667,,,,,,,,,,,,,,,,,,,,,,,,,,,,,,,,,,,,,,,,,,,,,,,,,,,,,,,,,,,,,,,,,,,,,,,,,,,,,,,,,,
,,1,0.864,1,0.864,0,83,83,75,1,69,carrot,refrigerator,,90116,001,2022-04-29_12h14.29.447,SPAMnetsValid,2021.1.4,MacIntel,66.66666667,,,,,,,,,,,,,,,,,,,,,,,,,,,,,,,,,,,,,,,,,,,,,,,,,,,,,,,,,,,,,,,,,,,,,,,,,,,,,,,,,,
,,1,0.808,1,0.808,0,84,84,70,1,5,oven,tree,,90116,001,2022-04-29_12h14.29.447,SPAMnetsValid,2021.1.4,MacIntel,66.66666667,,,,,,,,,,,,,,,,,,,,,,,,,,,,,,,,,,,,,,,,,,,,,,,,,,,,,,,,,,,,,,,,,,,,,,,,,,,,,,,,,,
,,1,0.809,1,0.809,0,85,85,9,1,75,cookie,onion,,90116,001,2022-04-29_12h14.29.447,SPAMnetsValid,2021.1.4,MacIntel,66.66666667,,,,,,,,,,,,,,,,,,,,,,,,,,,,,,,,,,,,,,,,,,,,,,,,,,,,,,,,,,,,,,,,,,,,,,,,,,,,,,,,,,
,,1,0.825,1,0.825,0,86,86,31,1,33,oven,yogurt,,90116,001,2022-04-29_12h14.29.447,SPAMnetsValid,2021.1.4,MacIntel,66.66666667,,,,,,,,,,,,,,,,,,,,,,,,,,,,,,,,,,,,,,,,,,,,,,,,,,,,,,,,,,,,,,,,,,,,,,,,,,,,,,,,,,
,,1,0.826,1,0.826,0,87,87,83,1,6,garden,onion,,90116,001,2022-04-29_12h14.29.447,SPAMnetsValid,2021.1.4,MacIntel,66.66666667,,,,,,,,,,,,,,,,,,,,,,,,,,,,,,,,,,,,,,,,,,,,,,,,,,,,,,,,,,,,,,,,,,,,,,,,,,,,,,,,,,
,,1,0.826,1,0.826,0,88,88,21,1,56,cactus,tree,,90116,001,2022-04-29_12h14.29.447,SPAMnetsValid,2021.1.4,MacIntel,66.66666667,,,,,,,,,,,,,,,,,,,,,,,,,,,,,,,,,,,,,,,,,,,,,,,,,,,,,,,,,,,,,,,,,,,,,,,,,,,,,,,,,,
,,1,0.929,1,0.929,0,89,89,57,1,62,kitchen,rose,,90116,001,2022-04-29_12h14.29.447,SPAMnetsValid,2021.1.4,MacIntel,66.66666667,,,,,,,,,,,,,,,,,,,,,,,,,,,,,,,,,,,,,,,,,,,,,,,,,,,,,,,,,,,,,,,,,,,,,,,,,,,,,,,,,,
,,1,0.866,1,0.866,0,90,90,1,1,31,cactus,pretzel,,90116,001,2022-04-29_12h14.29.447,SPAMnetsValid,2021.1.4,MacIntel,66.66666667,,,,,,,,,,,,,,,,,,,,,,,,,,,,,,,,,,,,,,,,,,,,,,,,,,,,,,,,,,,,,,,,,,,,,,,,,,,,,,,,,,
,,1,0.842,1,0.842,0,91,91,48,1,66,melon,yogurt,,90116,001,2022-04-29_12h14.29.447,SPAMnetsValid,2021.1.4,MacIntel,66.66666667,,,,,,,,,,,,,,,,,,,,,,,,,,,,,,,,,,,,,,,,,,,,,,,,,,,,,,,,,,,,,,,,,,,,,,,,,,,,,,,,,,
,,1,0.98,1,0.98,0,92,92,32,1,40,broom,cake,,90116,001,2022-04-29_12h14.29.447,SPAMnetsValid,2021.1.4,MacIntel,66.66666667,,,,,,,,,,,,,,,,,,,,,,,,,,,,,,,,,,,,,,,,,,,,,,,,,,,,,,,,,,,,,,,,,,,,,,,,,,,,,,,,,,
,,1,0.844,1,0.844,0,93,93,95,1,52,carrot,tomato,,90116,001,2022-04-29_12h14.29.447,SPAMnetsValid,2021.1.4,MacIntel,66.66666667,,,,,,,,,,,,,,,,,,,,,,,,,,,,,,,,,,,,,,,,,,,,,,,,,,,,,,,,,,,,,,,,,,,,,,,,,,,,,,,,,,
,,1,0.907,1,0.907,0,94,94,74,1,70,chocolate,onion,,90116,001,2022-04-29_12h14.29.447,SPAMnetsValid,2021.1.4,MacIntel,66.66666667,,,,,,,,,,,,,,,,,,,,,,,,,,,,,,,,,,,,,,,,,,,,,,,,,,,,,,,,,,,,,,,,,,,,,,,,,,,,,,,,,,
,,1,0.793,1,0.793,0,95,95,0,1,53,garden,pretzel,,90116,001,2022-04-29_12h14.29.447,SPAMnetsValid,2021.1.4,MacIntel,66.66666667,,,,,,,,,,,,,,,,,,,,,,,,,,,,,,,,,,,,,,,,,,,,,,,,,,,,,,,,,,,,,,,,,,,,,,,,,,,,,,,,,,
,,1,0.748,1,0.748,0,96,96,77,1,7,melon,tree,,90116,001,2022-04-29_12h14.29.447,SPAMnetsValid,2021.1.4,MacIntel,66.66666667,,,,,,,,,,,,,,,,,,,,,,,,,,,,,,,,,,,,,,,,,,,,,,,,,,,,,,,,,,,,,,,,,,,,,,,,,,,,,,,,,,
,,,,,,,,,,,,,,,90116,001,2022-04-29_12h14.29.447,SPAMnetsValid,2021.1.4,MacIntel,66.66666667,0,0,0,0,1,,,,,,,,,,,,,,,,,,,,,,,,,,,,,,,,,,,,,,,,,,,,,,,,,,,,,,,,,,,,,,,,,,,,,,,,,,,,,
,,,,,,,,,,,,,,,90116,001,2022-04-29_12h14.29.447,SPAMnetsValid,2021.1.4,MacIntel,66.66666667,,,,,,0,0,0,0,1,1,0,,,,,,,,,,,,,,,,,,,,,,,,,,,,,,,,,,,,,,,,,,,,,,,,,,,,,,,,,,,,,,,,,,,,,,
,,,,1,10.439,,,,,,161,kitchen,pretzel,,90116,001,2022-04-29_12h14.29.447,SPAMnetsValid,2021.1.4,MacIntel,66.66666667,,,,,,,,,,,,,1,10.439,0,0,0,36,1,,,,,,,,,,,,,,,,,,,,,,,,,,,,,,,,,,,,,,,,,,,,,,,,,,,,,,,,,,,,,,,
,,,,1,0.848,,,,,,114,cookie,strawberry,,90116,001,2022-04-29_12h14.29.447,SPAMnetsValid,2021.1.4,MacIntel,66.66666667,,,,,,,,,,,,,1,0.848,0,1,1,87,1,,,,,,,,,,,,,,,,,,,,,,,,,,,,,,,,,,,,,,,,,,,,,,,,,,,,,,,,,,,,,,,
,,,,1,0.76,,,,,,121,broom,microwave,,90116,001,2022-04-29_12h14.29.447,SPAMnetsValid,2021.1.4,MacIntel,66.66666667,,,,,,,,,,,,,1,0.76,0,2,2,95,1,,,,,,,,,,,,,,,,,,,,,,,,,,,,,,,,,,,,,,,,,,,,,,,,,,,,,,,,,,,,,,,
,,,,1,0.598,,,,,,146,pretzel,tree,,90116,001,2022-04-29_12h14.29.447,SPAMnetsValid,2021.1.4,MacIntel,66.66666667,,,,,,,,,,,,,1,0.598,0,3,3,80,1,,,,,,,,,,,,,,,,,,,,,,,,,,,,,,,,,,,,,,,,,,,,,,,,,,,,,,,,,,,,,,,
,,,,1,0.574,,,,,,113,refrigerator,strawberry,,90116,001,2022-04-29_12h14.29.447,SPAMnetsValid,2021.1.4,MacIntel,66.66666667,,,,,,,,,,,,,1,0.574,0,4,4,56,1,,,,,,,,,,,,,,,,,,,,,,,,,,,,,,,,,,,,,,,,,,,,,,,,,,,,,,,,,,,,,,,
,,,,1,0.475,,,,,,116,cake,chocolate,,90116,001,2022-04-29_12h14.29.447,SPAMnetsValid,2021.1.4,MacIntel,66.66666667,,,,,,,,,,,,,1,0.475,0,5,5,44,1,,,,,,,,,,,,,,,,,,,,,,,,,,,,,,,,,,,,,,,,,,,,,,,,,,,,,,,,,,,,,,,
,,,,1,0.459,,,,,,122,flower,garden,,90116,001,2022-04-29_12h14.29.447,SPAMnetsValid,2021.1.4,MacIntel,66.66666667,,,,,,,,,,,,,1,0.459,0,6,6,60,1,,,,,,,,,,,,,,,,,,,,,,,,,,,,,,,,,,,,,,,,,,,,,,,,,,,,,,,,,,,,,,,
,,,,1,0.375,,,,,,134,carrot,flower,,90116,001,2022-04-29_12h14.29.447,SPAMnetsValid,2021.1.4,MacIntel,66.66666667,,,,,,,,,,,,,1,0.375,0,7,7,93,1,,,,,,,,,,,,,,,,,,,,,,,,,,,,,,,,,,,,,,,,,,,,,,,,,,,,,,,,,,,,,,,
,,,,1,0.329,,,,,,125,carrot,tree,,90116,001,2022-04-29_12h14.29.447,SPAMnetsValid,2021.1.4,MacIntel,66.66666667,,,,,,,,,,,,,1,0.329,0,8,8,30,1,,,,,,,,,,,,,,,,,,,,,,,,,,,,,,,,,,,,,,,,,,,,,,,,,,,,,,,,,,,,,,,
,,,,1,0.345,,,,,,165,onion,rose,,90116,001,2022-04-29_12h14.29.447,SPAMnetsValid,2021.1.4,MacIntel,66.66666667,,,,,,,,,,,,,1,0.345,0,9,9,40,1,,,,,,,,,,,,,,,,,,,,,,,,,,,,,,,,,,,,,,,,,,,,,,,,,,,,,,,,,,,,,,,
,,,,1,1.26,,,,,,130,microwave,yogurt,,90116,001,2022-04-29_12h14.29.447,SPAMnetsValid,2021.1.4,MacIntel,66.66666667,,,,,,,,,,,,,1,1.26,0,10,10,84,1,,,,,,,,,,,,,,,,,,,,,,,,,,,,,,,,,,,,,,,,,,,,,,,,,,,,,,,,,,,,,,,
,,,,1,0.664,,,,,,136,chocolate,microwave,,90116,001,2022-04-29_12h14.29.447,SPAMnetsValid,2021.1.4,MacIntel,66.66666667,,,,,,,,,,,,,1,0.664,0,11,11,96,1,,,,,,,,,,,,,,,,,,,,,,,,,,,,,,,,,,,,,,,,,,,,,,,,,,,,,,,,,,,,,,,
,,,,1,0.443,,,,,,166,cake,yogurt,,90116,001,2022-04-29_12h14.29.447,SPAMnetsValid,2021.1.4,MacIntel,66.66666667,,,,,,,,,,,,,1,0.443,0,12,12,91,1,,,,,,,,,,,,,,,,,,,,,,,,,,,,,,,,,,,,,,,,,,,,,,,,,,,,,,,,,,,,,,,
,,,,1,0.406,,,,,,145,cactus,yogurt,,90116,001,2022-04-29_12h14.29.447,SPAMnetsValid,2021.1.4,MacIntel,66.66666667,,,,,,,,,,,,,1,0.406,0,13,13,15,1,,,,,,,,,,,,,,,,,,,,,,,,,,,,,,,,,,,,,,,,,,,,,,,,,,,,,,,,,,,,,,,
,,,,1,1.709,,,,,,188,flower,tree,,90116,001,2022-04-29_12h14.29.447,SPAMnetsValid,2021.1.4,MacIntel,66.66666667,,,,,,,,,,,,,1,1.709,0,14,14,7,1,,,,,,,,,,,,,,,,,,,,,,,,,,,,,,,,,,,,,,,,,,,,,,,,,,,,,,,,,,,,,,,
,,,,1,1.092,,,,,,107,rose,tomato,,90116,001,2022-04-29_12h14.29.447,SPAMnetsValid,2021.1.4,MacIntel,66.66666667,,,,,,,,,,,,,1,1.092,0,15,15,26,1,,,,,,,,,,,,,,,,,,,,,,,,,,,,,,,,,,,,,,,,,,,,,,,,,,,,,,,,,,,,,,,
,,,,1,0.981,,,,,,147,cake,refrigerator,,90116,001,2022-04-29_12h14.29.447,SPAMnetsValid,2021.1.4,MacIntel,66.66666667,,,,,,,,,,,,,1,0.981,0,16,16,35,1,,,,,,,,,,,,,,,,,,,,,,,,,,,,,,,,,,,,,,,,,,,,,,,,,,,,,,,,,,,,,,,
,,,,1,0.798,,,,,,123,cookie,tree,,90116,001,2022-04-29_12h14.29.447,SPAMnetsValid,2021.1.4,MacIntel,66.66666667,,,,,,,,,,,,,1,0.798,0,17,17,46,1,,,,,,,,,,,,,,,,,,,,,,,,,,,,,,,,,,,,,,,,,,,,,,,,,,,,,,,,,,,,,,,
,,,,1,0.748,,,,,,151,microwave,onion,,90116,001,2022-04-29_12h14.29.447,SPAMnetsValid,2021.1.4,MacIntel,66.66666667,,,,,,,,,,,,,1,0.748,0,18,18,6,1,,,,,,,,,,,,,,,,,,,,,,,,,,,,,,,,,,,,,,,,,,,,,,,,,,,,,,,,,,,,,,,
,,,,1,0.758,,,,,,144,cake,garden,,90116,001,2022-04-29_12h14.29.447,SPAMnetsValid,2021.1.4,MacIntel,66.66666667,,,,,,,,,,,,,1,0.758,0,19,19,58,1,,,,,,,,,,,,,,,,,,,,,,,,,,,,,,,,,,,,,,,,,,,,,,,,,,,,,,,,,,,,,,,
,,,,1,0.805,,,,,,176,cactus,tomato,,90116,001,2022-04-29_12h14.29.447,SPAMnetsValid,2021.1.4,MacIntel,66.66666667,,,,,,,,,,,,,1,0.805,0,20,20,9,1,,,,,,,,,,,,,,,,,,,,,,,,,,,,,,,,,,,,,,,,,,,,,,,,,,,,,,,,,,,,,,,
,,,,1,0.81,,,,,,180,tree,yogurt,,90116,001,2022-04-29_12h14.29.447,SPAMnetsValid,2021.1.4,MacIntel,66.66666667,,,,,,,,,,,,,1,0.81,0,21,21,68,1,,,,,,,,,,,,,,,,,,,,,,,,,,,,,,,,,,,,,,,,,,,,,,,,,,,,,,,,,,,,,,,
,,,,1,0.775,,,,,,119,strawberry,tree,,90116,001,2022-04-29_12h14.29.447,SPAMnetsValid,2021.1.4,MacIntel,66.66666667,,,,,,,,,,,,,1,0.775,0,22,22,18,1,,,,,,,,,,,,,,,,,,,,,,,,,,,,,,,,,,,,,,,,,,,,,,,,,,,,,,,,,,,,,,,
,,,,1,0.758,,,,,,137,microwave,tree,,90116,001,2022-04-29_12h14.29.447,SPAMnetsValid,2021.1.4,MacIntel,66.66666667,,,,,,,,,,,,,1,0.758,0,23,23,63,1,,,,,,,,,,,,,,,,,,,,,,,,,,,,,,,,,,,,,,,,,,,,,,,,,,,,,,,,,,,,,,,
,,,,1,0.727,,,,,,112,cake,carrot,,90116,001,2022-04-29_12h14.29.447,SPAMnetsValid,2021.1.4,MacIntel,66.66666667,,,,,,,,,,,,,1,0.727,0,24,24,39,1,,,,,,,,,,,,,,,,,,,,,,,,,,,,,,,,,,,,,,,,,,,,,,,,,,,,,,,,,,,,,,,
,,,,1,0.809,,,,,,179,broom,oven,,90116,001,2022-04-29_12h14.29.447,SPAMnetsValid,2021.1.4,MacIntel,66.66666667,,,,,,,,,,,,,1,0.809,0,25,25,45,1,,,,,,,,,,,,,,,,,,,,,,,,,,,,,,,,,,,,,,,,,,,,,,,,,,,,,,,,,,,,,,,
,,,,1,0.809,,,,,,105,cactus,oven,,90116,001,2022-04-29_12h14.29.447,SPAMnetsValid,2021.1.4,MacIntel,66.66666667,,,,,,,,,,,,,1,0.809,0,26,26,13,1,,,,,,,,,,,,,,,,,,,,,,,,,,,,,,,,,,,,,,,,,,,,,,,,,,,,,,,,,,,,,,,
,,,,1,0.771,,,,,,168,cactus,flower,,90116,001,2022-04-29_12h14.29.447,SPAMnetsValid,2021.1.4,MacIntel,66.66666667,,,,,,,,,,,,,1,0.771,0,27,27,51,1,,,,,,,,,,,,,,,,,,,,,,,,,,,,,,,,,,,,,,,,,,,,,,,,,,,,,,,,,,,,,,,
,,,,1,1.16,,,,,,102,chocolate,refrigerator,,90116,001,2022-04-29_12h14.29.447,SPAMnetsValid,2021.1.4,MacIntel,66.66666667,,,,,,,,,,,,,1,1.16,0,28,28,76,1,,,,,,,,,,,,,,,,,,,,,,,,,,,,,,,,,,,,,,,,,,,,,,,,,,,,,,,,,,,,,,,
,,,,1,0.794,,,,,,181,carrot,kitchen,,90116,001,2022-04-29_12h14.29.447,SPAMnetsValid,2021.1.4,MacIntel,66.66666667,,,,,,,,,,,,,1,0.794,0,29,29,72,1,,,,,,,,,,,,,,,,,,,,,,,,,,,,,,,,,,,,,,,,,,,,,,,,,,,,,,,,,,,,,,,
,,,,1,1.026,,,,,,118,chocolate,oven,,90116,001,2022-04-29_12h14.29.447,SPAMnetsValid,2021.1.4,MacIntel,66.66666667,,,,,,,,,,,,,1,1.026,0,30,30,10,1,,,,,,,,,,,,,,,,,,,,,,,,,,,,,,,,,,,,,,,,,,,,,,,,,,,,,,,,,,,,,,,
,,,,1,0.742,,,,,,110,chocolate,cookie,,90116,001,2022-04-29_12h14.29.447,SPAMnetsValid,2021.1.4,MacIntel,66.66666667,,,,,,,,,,,,,1,0.742,0,31,31,52,1,,,,,,,,,,,,,,,,,,,,,,,,,,,,,,,,,,,,,,,,,,,,,,,,,,,,,,,,,,,,,,,
,,,,1,0.822,,,,,,103,pretzel,tomato,,90116,001,2022-04-29_12h14.29.447,SPAMnetsValid,2021.1.4,MacIntel,66.66666667,,,,,,,,,,,,,1,0.822,0,32,32,79,1,,,,,,,,,,,,,,,,,,,,,,,,,,,,,,,,,,,,,,,,,,,,,,,,,,,,,,,,,,,,,,,
,,,,1,0.816,,,,,,175,melon,onion,,90116,001,2022-04-29_12h14.29.447,SPAMnetsValid,2021.1.4,MacIntel,66.66666667,,,,,,,,,,,,,1,0.816,0,33,33,41,1,,,,,,,,,,,,,,,,,,,,,,,,,,,,,,,,,,,,,,,,,,,,,,,,,,,,,,,,,,,,,,,
,,,,1,1.097,,,,,,141,melon,tomato,,90116,001,2022-04-29_12h14.29.447,SPAMnetsValid,2021.1.4,MacIntel,66.66666667,,,,,,,,,,,,,1,1.097,0,34,34,70,1,,,,,,,,,,,,,,,,,,,,,,,,,,,,,,,,,,,,,,,,,,,,,,,,,,,,,,,,,,,,,,,
,,,,1,0.925,,,,,,190,microwave,strawberry,,90116,001,2022-04-29_12h14.29.447,SPAMnetsValid,2021.1.4,MacIntel,66.66666667,,,,,,,,,,,,,1,0.925,0,35,35,90,1,,,,,,,,,,,,,,,,,,,,,,,,,,,,,,,,,,,,,,,,,,,,,,,,,,,,,,,,,,,,,,,
,,,,1,0.763,,,,,,182,flower,refrigerator,,90116,001,2022-04-29_12h14.29.447,SPAMnetsValid,2021.1.4,MacIntel,66.66666667,,,,,,,,,,,,,1,0.763,0,36,36,32,1,,,,,,,,,,,,,,,,,,,,,,,,,,,,,,,,,,,,,,,,,,,,,,,,,,,,,,,,,,,,,,,
,,,,1,0.73,,,,,,152,cactus,strawberry,,90116,001,2022-04-29_12h14.29.447,SPAMnetsValid,2021.1.4,MacIntel,66.66666667,,,,,,,,,,,,,1,0.73,0,37,37,49,1,,,,,,,,,,,,,,,,,,,,,,,,,,,,,,,,,,,,,,,,,,,,,,,,,,,,,,,,,,,,,,,
,,,,1,0.777,,,,,,171,cake,tomato,,90116,001,2022-04-29_12h14.29.447,SPAMnetsValid,2021.1.4,MacIntel,66.66666667,,,,,,,,,,,,,1,0.777,0,38,38,88,1,,,,,,,,,,,,,,,,,,,,,,,,,,,,,,,,,,,,,,,,,,,,,,,,,,,,,,,,,,,,,,,
,,,,1,1.459,,,,,,185,cactus,rose,,90116,001,2022-04-29_12h14.29.447,SPAMnetsValid,2021.1.4,MacIntel,66.66666667,,,,,,,,,,,,,1,1.459,0,39,39,43,1,,,,,,,,,,,,,,,,,,,,,,,,,,,,,,,,,,,,,,,,,,,,,,,,,,,,,,,,,,,,,,,
,,,,1,1.06,,,,,,96,oven,strawberry,,90116,001,2022-04-29_12h14.29.447,SPAMnetsValid,2021.1.4,MacIntel,66.66666667,,,,,,,,,,,,,1,1.06,0,40,40,67,1,,,,,,,,,,,,,,,,,,,,,,,,,,,,,,,,,,,,,,,,,,,,,,,,,,,,,,,,,,,,,,,
,,,,5,3.508,,,,,,178,cactus,carrot,,90116,001,2022-04-29_12h14.29.447,SPAMnetsValid,2021.1.4,MacIntel,66.66666667,,,,,,,,,,,,,5,3.508,0,41,41,75,1,,,,,,,,,,,,,,,,,,,,,,,,,,,,,,,,,,,,,,,,,,,,,,,,,,,,,,,,,,,,,,,
,,,,5,1.872,,,,,,128,melon,microwave,,90116,001,2022-04-29_12h14.29.447,SPAMnetsValid,2021.1.4,MacIntel,66.66666667,,,,,,,,,,,,,5,1.872,0,42,42,74,1,,,,,,,,,,,,,,,,,,,,,,,,,,,,,,,,,,,,,,,,,,,,,,,,,,,,,,,,,,,,,,,
,,,,1,1.429,,,,,,174,cake,pretzel,,90116,001,2022-04-29_12h14.29.447,SPAMnetsValid,2021.1.4,MacIntel,66.66666667,,,,,,,,,,,,,1,1.429,0,43,43,2,1,,,,,,,,,,,,,,,,,,,,,,,,,,,,,,,,,,,,,,,,,,,,,,,,,,,,,,,,,,,,,,,
,,,,1,1.042,,,,,,106,cake,strawberry,,90116,001,2022-04-29_12h14.29.447,SPAMnetsValid,2021.1.4,MacIntel,66.66666667,,,,,,,,,,,,,1,1.042,0,44,44,0,1,,,,,,,,,,,,,,,,,,,,,,,,,,,,,,,,,,,,,,,,,,,,,,,,,,,,,,,,,,,,,,,
,,,,1,1.372,,,,,,111,carrot,microwave,,90116,001,2022-04-29_12h14.29.447,SPAMnetsValid,2021.1.4,MacIntel,66.66666667,,,,,,,,,,,,,1,1.372,0,45,45,16,1,,,,,,,,,,,,,,,,,,,,,,,,,,,,,,,,,,,,,,,,,,,,,,,,,,,,,,,,,,,,,,,
,,,,1,0.843,,,,,,142,garden,tree,,90116,001,2022-04-29_12h14.29.447,SPAMnetsValid,2021.1.4,MacIntel,66.66666667,,,,,,,,,,,,,1,0.843,0,46,46,22,1,,,,,,,,,,,,,,,,,,,,,,,,,,,,,,,,,,,,,,,,,,,,,,,,,,,,,,,,,,,,,,,
,,,,1,1.142,,,,,,163,melon,refrigerator,,90116,001,2022-04-29_12h14.29.447,SPAMnetsValid,2021.1.4,MacIntel,66.66666667,,,,,,,,,,,,,1,1.142,0,47,47,29,1,,,,,,,,,,,,,,,,,,,,,,,,,,,,,,,,,,,,,,,,,,,,,,,,,,,,,,,,,,,,,,,
,,,,1,1.226,,,,,,100,garden,tomato,,90116,001,2022-04-29_12h14.29.447,SPAMnetsValid,2021.1.4,MacIntel,66.66666667,,,,,,,,,,,,,1,1.226,0,48,48,83,1,,,,,,,,,,,,,,,,,,,,,,,,,,,,,,,,,,,,,,,,,,,,,,,,,,,,,,,,,,,,,,,
,,,,1,1.676,,,,,,150,microwave,refrigerator,,90116,001,2022-04-29_12h14.29.447,SPAMnetsValid,2021.1.4,MacIntel,66.66666667,,,,,,,,,,,,,1,1.676,0,49,49,66,1,,,,,,,,,,,,,,,,,,,,,,,,,,,,,,,,,,,,,,,,,,,,,,,,,,,,,,,,,,,,,,,
,,,,1,0.862,,,,,,97,chocolate,kitchen,,90116,001,2022-04-29_12h14.29.447,SPAMnetsValid,2021.1.4,MacIntel,66.66666667,,,,,,,,,,,,,1,0.862,0,50,50,8,1,,,,,,,,,,,,,,,,,,,,,,,,,,,,,,,,,,,,,,,,,,,,,,,,,,,,,,,,,,,,,,,
,,,,1,1.098,,,,,,154,strawberry,yogurt,,90116,001,2022-04-29_12h14.29.447,SPAMnetsValid,2021.1.4,MacIntel,66.66666667,,,,,,,,,,,,,1,1.098,0,51,51,28,1,,,,,,,,,,,,,,,,,,,,,,,,,,,,,,,,,,,,,,,,,,,,,,,,,,,,,,,,,,,,,,,
,,,,1,1.143,,,,,,162,microwave,tomato,,90116,001,2022-04-29_12h14.29.447,SPAMnetsValid,2021.1.4,MacIntel,66.66666667,,,,,,,,,,,,,1,1.143,0,52,52,12,1,,,,,,,,,,,,,,,,,,,,,,,,,,,,,,,,,,,,,,,,,,,,,,,,,,,,,,,,,,,,,,,
,,,,1,0.998,,,,,,167,carrot,garden,,90116,001,2022-04-29_12h14.29.447,SPAMnetsValid,2021.1.4,MacIntel,66.66666667,,,,,,,,,,,,,1,0.998,0,53,53,47,1,,,,,,,,,,,,,,,,,,,,,,,,,,,,,,,,,,,,,,,,,,,,,,,,,,,,,,,,,,,,,,,
,,,,1,0.794,,,,,,189,onion,tree,,90116,001,2022-04-29_12h14.29.447,SPAMnetsValid,2021.1.4,MacIntel,66.66666667,,,,,,,,,,,,,1,0.794,0,54,54,62,1,,,,,,,,,,,,,,,,,,,,,,,,,,,,,,,,,,,,,,,,,,,,,,,,,,,,,,,,,,,,,,,
,,,,1,0.749,,,,,,159,cookie,flower,,90116,001,2022-04-29_12h14.29.447,SPAMnetsValid,2021.1.4,MacIntel,66.66666667,,,,,,,,,,,,,1,0.749,0,55,55,21,1,,,,,,,,,,,,,,,,,,,,,,,,,,,,,,,,,,,,,,,,,,,,,,,,,,,,,,,,,,,,,,,
,,,,1,0.828,,,,,,170,cookie,microwave,,90116,001,2022-04-29_12h14.29.447,SPAMnetsValid,2021.1.4,MacIntel,66.66666667,,,,,,,,,,,,,1,0.828,0,56,56,92,1,,,,,,,,,,,,,,,,,,,,,,,,,,,,,,,,,,,,,,,,,,,,,,,,,,,,,,,,,,,,,,,
,,,,1,0.693,,,,,,169,onion,yogurt,,90116,001,2022-04-29_12h14.29.447,SPAMnetsValid,2021.1.4,MacIntel,66.66666667,,,,,,,,,,,,,1,0.693,0,57,57,24,1,,,,,,,,,,,,,,,,,,,,,,,,,,,,,,,,,,,,,,,,,,,,,,,,,,,,,,,,,,,,,,,
,,,,1,0.66,,,,,,172,kitchen,melon,,90116,001,2022-04-29_12h14.29.447,SPAMnetsValid,2021.1.4,MacIntel,66.66666667,,,,,,,,,,,,,1,0.66,0,58,58,77,1,,,,,,,,,,,,,,,,,,,,,,,,,,,,,,,,,,,,,,,,,,,,,,,,,,,,,,,,,,,,,,,
,,,,1,0.593,,,,,,104,garden,microwave,,90116,001,2022-04-29_12h14.29.447,SPAMnetsValid,2021.1.4,MacIntel,66.66666667,,,,,,,,,,,,,1,0.593,0,59,59,81,1,,,,,,,,,,,,,,,,,,,,,,,,,,,,,,,,,,,,,,,,,,,,,,,,,,,,,,,,,,,,,,,
,,,,1,0.584,,,,,,139,carrot,strawberry,,90116,001,2022-04-29_12h14.29.447,SPAMnetsValid,2021.1.4,MacIntel,66.66666667,,,,,,,,,,,,,1,0.584,0,60,60,37,1,,,,,,,,,,,,,,,,,,,,,,,,,,,,,,,,,,,,,,,,,,,,,,,,,,,,,,,,,,,,,,,
,,,,1,0.546,,,,,,160,cookie,kitchen,,90116,001,2022-04-29_12h14.29.447,SPAMnetsValid,2021.1.4,MacIntel,66.66666667,,,,,,,,,,,,,1,0.546,0,61,61,65,1,,,,,,,,,,,,,,,,,,,,,,,,,,,,,,,,,,,,,,,,,,,,,,,,,,,,,,,,,,,,,,,
,,,,1,0.894,,,,,,187,cactus,microwave,,90116,001,2022-04-29_12h14.29.447,SPAMnetsValid,2021.1.4,MacIntel,66.66666667,,,,,,,,,,,,,1,0.894,0,62,62,71,1,,,,,,,,,,,,,,,,,,,,,,,,,,,,,,,,,,,,,,,,,,,,,,,,,,,,,,,,,,,,,,,
,,,,1,0.882,,,,,,183,cake,rose,,90116,001,2022-04-29_12h14.29.447,SPAMnetsValid,2021.1.4,MacIntel,66.66666667,,,,,,,,,,,,,1,0.882,0,63,63,19,1,,,,,,,,,,,,,,,,,,,,,,,,,,,,,,,,,,,,,,,,,,,,,,,,,,,,,,,,,,,,,,,
,,,,1,0.938,,,,,,140,cookie,refrigerator,,90116,001,2022-04-29_12h14.29.447,SPAMnetsValid,2021.1.4,MacIntel,66.66666667,,,,,,,,,,,,,1,0.938,0,64,64,89,1,,,,,,,,,,,,,,,,,,,,,,,,,,,,,,,,,,,,,,,,,,,,,,,,,,,,,,,,,,,,,,,
,,,,1,0.928,,,,,,115,refrigerator,tomato,,90116,001,2022-04-29_12h14.29.447,SPAMnetsValid,2021.1.4,MacIntel,66.66666667,,,,,,,,,,,,,1,0.928,0,65,65,85,1,,,,,,,,,,,,,,,,,,,,,,,,,,,,,,,,,,,,,,,,,,,,,,,,,,,,,,,,,,,,,,,
,,,,1,0.849,,,,,,153,carrot,pretzel,,90116,001,2022-04-29_12h14.29.447,SPAMnetsValid,2021.1.4,MacIntel,66.66666667,,,,,,,,,,,,,1,0.849,0,66,66,34,1,,,,,,,,,,,,,,,,,,,,,,,,,,,,,,,,,,,,,,,,,,,,,,,,,,,,,,,,,,,,,,,
,,,,1,0.972,,,,,,143,pretzel,rose,,90116,001,2022-04-29_12h14.29.447,SPAMnetsValid,2021.1.4,MacIntel,66.66666667,,,,,,,,,,,,,1,0.972,0,67,67,55,1,,,,,,,,,,,,,,,,,,,,,,,,,,,,,,,,,,,,,,,,,,,,,,,,,,,,,,,,,,,,,,,
,,,,5,1.809,,,,,,155,carrot,cookie,,90116,001,2022-04-29_12h14.29.447,SPAMnetsValid,2021.1.4,MacIntel,66.66666667,,,,,,,,,,,,,5,1.809,0,68,68,38,1,,,,,,,,,,,,,,,,,,,,,,,,,,,,,,,,,,,,,,,,,,,,,,,,,,,,,,,,,,,,,,,
,,,,1,1.408,,,,,,164,cookie,garden,,90116,001,2022-04-29_12h14.29.447,SPAMnetsValid,2021.1.4,MacIntel,66.66666667,,,,,,,,,,,,,1,1.408,0,69,69,59,1,,,,,,,,,,,,,,,,,,,,,,,,,,,,,,,,,,,,,,,,,,,,,,,,,,,,,,,,,,,,,,,
,,,,1,0.889,,,,,,99,garden,melon,,90116,001,2022-04-29_12h14.29.447,SPAMnetsValid,2021.1.4,MacIntel,66.66666667,,,,,,,,,,,,,1,0.889,0,70,70,17,1,,,,,,,,,,,,,,,,,,,,,,,,,,,,,,,,,,,,,,,,,,,,,,,,,,,,,,,,,,,,,,,
,,,,1,0.948,,,,,,133,cake,flower,,90116,001,2022-04-29_12h14.29.447,SPAMnetsValid,2021.1.4,MacIntel,66.66666667,,,,,,,,,,,,,1,0.948,0,71,71,94,1,,,,,,,,,,,,,,,,,,,,,,,,,,,,,,,,,,,,,,,,,,,,,,,,,,,,,,,,,,,,,,,
,,,,1,1.158,,,,,,129,cactus,refrigerator,,90116,001,2022-04-29_12h14.29.447,SPAMnetsValid,2021.1.4,MacIntel,66.66666667,,,,,,,,,,,,,1,1.158,0,72,72,3,1,,,,,,,,,,,,,,,,,,,,,,,,,,,,,,,,,,,,,,,,,,,,,,,,,,,,,,,,,,,,,,,
,,,,1,0.864,,,,,,98,pretzel,strawberry,,90116,001,2022-04-29_12h14.29.447,SPAMnetsValid,2021.1.4,MacIntel,66.66666667,,,,,,,,,,,,,1,0.864,0,73,73,82,1,,,,,,,,,,,,,,,,,,,,,,,,,,,,,,,,,,,,,,,,,,,,,,,,,,,,,,,,,,,,,,,
,,,,1,0.862,,,,,,186,kitchen,yogurt,,90116,001,2022-04-29_12h14.29.447,SPAMnetsValid,2021.1.4,MacIntel,66.66666667,,,,,,,,,,,,,1,0.862,0,74,74,48,1,,,,,,,,,,,,,,,,,,,,,,,,,,,,,,,,,,,,,,,,,,,,,,,,,,,,,,,,,,,,,,,
,,,,9,2.197,,,,,,194,cactus,cactus,CHECK,90116,001,2022-04-29_12h14.29.447,SPAMnetsValid,2021.1.4,MacIntel,66.66666667,,,,,,,,,,,,,9,2.197,0,75,75,25,1,,,,,,,,,,,,,,,,,,,,,,,,,,,,,,,,,,,,,,,,,,,,,,,,,,,,,,,,,,,,,,,
,,,,1,1.378,,,,,,117,melon,strawberry,,90116,001,2022-04-29_12h14.29.447,SPAMnetsValid,2021.1.4,MacIntel,66.66666667,,,,,,,,,,,,,1,1.378,0,76,76,11,1,,,,,,,,,,,,,,,,,,,,,,,,,,,,,,,,,,,,,,,,,,,,,,,,,,,,,,,,,,,,,,,
,,,,1,0.721,,,,,,109,broom,strawberry,,90116,001,2022-04-29_12h14.29.447,SPAMnetsValid,2021.1.4,MacIntel,66.66666667,,,,,,,,,,,,,1,0.721,0,77,77,4,1,,,,,,,,,,,,,,,,,,,,,,,,,,,,,,,,,,,,,,,,,,,,,,,,,,,,,,,,,,,,,,,
,,,,5,1.672,,,,,,108,carrot,chocolate,,90116,001,2022-04-29_12h14.29.447,SPAMnetsValid,2021.1.4,MacIntel,66.66666667,,,,,,,,,,,,,5,1.672,0,78,78,5,1,,,,,,,,,,,,,,,,,,,,,,,,,,,,,,,,,,,,,,,,,,,,,,,,,,,,,,,,,,,,,,,
,,,,1,1.193,,,,,,149,broom,tomato,,90116,001,2022-04-29_12h14.29.447,SPAMnetsValid,2021.1.4,MacIntel,66.66666667,,,,,,,,,,,,,1,1.193,0,79,79,20,1,,,,,,,,,,,,,,,,,,,,,,,,,,,,,,,,,,,,,,,,,,,,,,,,,,,,,,,,,,,,,,,
,,,,1,0.726,,,,,,124,oven,refrigerator,,90116,001,2022-04-29_12h14.29.447,SPAMnetsValid,2021.1.4,MacIntel,66.66666667,,,,,,,,,,,,,1,0.726,0,80,80,69,1,,,,,,,,,,,,,,,,,,,,,,,,,,,,,,,,,,,,,,,,,,,,,,,,,,,,,,,,,,,,,,,
,,,,1,0.445,,,,,,184,oven,pretzel,,90116,001,2022-04-29_12h14.29.447,SPAMnetsValid,2021.1.4,MacIntel,66.66666667,,,,,,,,,,,,,1,0.445,0,81,81,42,1,,,,,,,,,,,,,,,,,,,,,,,,,,,,,,,,,,,,,,,,,,,,,,,,,,,,,,,,,,,,,,,
,,,,9,1.828,,,,,,193,melon,melon,CHECK,90116,001,2022-04-29_12h14.29.447,SPAMnetsValid,2021.1.4,MacIntel,66.66666667,,,,,,,,,,,,,9,1.828,0,82,82,86,1,,,,,,,,,,,,,,,,,,,,,,,,,,,,,,,,,,,,,,,,,,,,,,,,,,,,,,,,,,,,,,,
,,,,1,2.533,,,,,,120,microwave,oven,,90116,001,2022-04-29_12h14.29.447,SPAMnetsValid,2021.1.4,MacIntel,66.66666667,,,,,,,,,,,,,1,2.533,0,83,83,14,1,,,,,,,,,,,,,,,,,,,,,,,,,,,,,,,,,,,,,,,,,,,,,,,,,,,,,,,,,,,,,,,
,,,,1,0.809,,,,,,132,broom,tree,,90116,001,2022-04-29_12h14.29.447,SPAMnetsValid,2021.1.4,MacIntel,66.66666667,,,,,,,,,,,,,1,0.809,0,84,84,78,1,,,,,,,,,,,,,,,,,,,,,,,,,,,,,,,,,,,,,,,,,,,,,,,,,,,,,,,,,,,,,,,
,,,,1,0.893,,,,,,138,flower,rose,,90116,001,2022-04-29_12h14.29.447,SPAMnetsValid,2021.1.4,MacIntel,66.66666667,,,,,,,,,,,,,1,0.893,0,85,85,61,1,,,,,,,,,,,,,,,,,,,,,,,,,,,,,,,,,,,,,,,,,,,,,,,,,,,,,,,,,,,,,,,
,,,,1,0.965,,,,,,156,melon,rose,,90116,001,2022-04-29_12h14.29.447,SPAMnetsValid,2021.1.4,MacIntel,66.66666667,,,,,,,,,,,,,1,0.965,0,86,86,31,1,,,,,,,,,,,,,,,,,,,,,,,,,,,,,,,,,,,,,,,,,,,,,,,,,,,,,,,,,,,,,,,
,,,,1,0.871,,,,,,177,chocolate,strawberry,,90116,001,2022-04-29_12h14.29.447,SPAMnetsValid,2021.1.4,MacIntel,66.66666667,,,,,,,,,,,,,1,0.871,0,87,87,53,1,,,,,,,,,,,,,,,,,,,,,,,,,,,,,,,,,,,,,,,,,,,,,,,,,,,,,,,,,,,,,,,
,,,,2,5.691,,,,,,101,cactus,kitchen,,90116,001,2022-04-29_12h14.29.447,SPAMnetsValid,2021.1.4,MacIntel,66.66666667,,,,,,,,,,,,,2,5.691,0,88,88,54,1,,,,,,,,,,,,,,,,,,,,,,,,,,,,,,,,,,,,,,,,,,,,,,,,,,,,,,,,,,,,,,,
,,,,1,1.027,,,,,,126,kitchen,tree,,90116,001,2022-04-29_12h14.29.447,SPAMnetsValid,2021.1.4,MacIntel,66.66666667,,,,,,,,,,,,,1,1.027,0,89,89,50,1,,,,,,,,,,,,,,,,,,,,,,,,,,,,,,,,,,,,,,,,,,,,,,,,,,,,,,,,,,,,,,,
,,,,1,1.311,,,,,,157,refrigerator,rose,,90116,001,2022-04-29_12h14.29.447,SPAMnetsValid,2021.1.4,MacIntel,66.66666667,,,,,,,,,,,,,1,1.311,0,90,90,64,1,,,,,,,,,,,,,,,,,,,,,,,,,,,,,,,,,,,,,,,,,,,,,,,,,,,,,,,,,,,,,,,
,,,,1,1.348,,,,,,127,cactus,chocolate,,90116,001,2022-04-29_12h14.29.447,SPAMnetsValid,2021.1.4,MacIntel,66.66666667,,,,,,,,,,,,,1,1.348,0,91,91,57,1,,,,,,,,,,,,,,,,,,,,,,,,,,,,,,,,,,,,,,,,,,,,,,,,,,,,,,,,,,,,,,,
,,,,5,2.027,,,,,,131,cactus,garden,,90116,001,2022-04-29_12h14.29.447,SPAMnetsValid,2021.1.4,MacIntel,66.66666667,,,,,,,,,,,,,5,2.027,0,92,92,33,1,,,,,,,,,,,,,,,,,,,,,,,,,,,,,,,,,,,,,,,,,,,,,,,,,,,,,,,,,,,,,,,
,,,,1,1.655,,,,,,135,carrot,oven,,90116,001,2022-04-29_12h14.29.447,SPAMnetsValid,2021.1.4,MacIntel,66.66666667,,,,,,,,,,,,,1,1.655,0,93,93,73,1,,,,,,,,,,,,,,,,,,,,,,,,,,,,,,,,,,,,,,,,,,,,,,,,,,,,,,,,,,,,,,,
,,,,1,2.028,,,,,,148,flower,melon,,90116,001,2022-04-29_12h14.29.447,SPAMnetsValid,2021.1.4,MacIntel,66.66666667,,,,,,,,,,,,,1,2.028,0,94,94,23,1,,,,,,,,,,,,,,,,,,,,,,,,,,,,,,,,,,,,,,,,,,,,,,,,,,,,,,,,,,,,,,,
,,,,1,0.944,,,,,,173,kitchen,tomato,,90116,001,2022-04-29_12h14.29.447,SPAMnetsValid,2021.1.4,MacIntel,66.66666667,,,,,,,,,,,,,1,0.944,0,95,95,1,1,,,,,,,,,,,,,,,,,,,,,,,,,,,,,,,,,,,,,,,,,,,,,,,,,,,,,,,,,,,,,,,
,,,,1,1.398,,,,,,158,cookie,oven,,90116,001,2022-04-29_12h14.29.447,SPAMnetsValid,2021.1.4,MacIntel,66.66666667,,,,,,,,,,,,,1,1.398,0,96,96,27,1,,,,,,,,,,,,,,,,,,,,,,,,,,,,,,,,,,,,,,,,,,,,,,,,,,,,,,,,,,,,,,,
,,,,,,,,,,,,,,,90116,001,2022-04-29_12h14.29.447,SPAMnetsValid,2021.1.4,MacIntel,66.66666667,,,,,,,,,,,,,,,,,,,,0,0,0,0,1,,,,,,,,,,,,,,,,,,,,,,,,,,,,,,,,,,,,,,,,,,,,,,,,,,,,,,,,,,
,,,,,,,,,,,,,,,90116,001,2022-04-29_12h14.29.447,SPAMnetsValid,2021.1.4,MacIntel,66.66666667,,,,,,0,1,1,1,1,0,1,,,,,,,,,,,,,,,,,,,,,,,,,,,,,,,,,,,,,,,,,,,,,,,,,,,,,,,,,,,,,,,,,,,,,,
,,,,,,,,,,,,,,,90116,001,2022-04-29_12h14.29.447,SPAMnetsValid,2021.1.4,MacIntel,66.66666667,,,,,,,,,,,,,,,,,,,,,,,,,3,39.436,0,0,0,0,1,rancor,forbearance,ridicule,malice,bravery,3,,,,,,,,,,,,,,,,,,,,,,,,,,,,,,,,,,,,,,,,,,,,,
,,,,,,,,,,,,,,,90116,001,2022-04-29_12h14.29.447,SPAMnetsValid,2021.1.4,MacIntel,66.66666667,,,,,,,,,,,,,,,,,,,,,,,,,4,15.706,0,1,1,1,1,raucous,empty,quiet,smooth,harsh,4,,,,,,,,,,,,,,,,,,,,,,,,,,,,,,,,,,,,,,,,,,,,,
,,,,,,,,,,,,,,,90116,001,2022-04-29_12h14.29.447,SPAMnetsValid,2021.1.4,MacIntel,66.66666667,,,,,,,,,,,,,,,,,,,,,,,,,3,29.811,0,2,2,2,1,gargoyle,oil,medicine,carved waterspout,ugly building,3,,,,,,,,,,,,,,,,,,,,,,,,,,,,,,,,,,,,,,,,,,,,,
,,,,,,,,,,,,,,,90116,001,2022-04-29_12h14.29.447,SPAMnetsValid,2021.1.4,MacIntel,66.66666667,,,,,,,,,,,,,,,,,,,,,,,,,2,20.515,0,3,3,3,1,recrudesce,purify,renew activity,lack refinement,crush,2,,,,,,,,,,,,,,,,,,,,,,,,,,,,,,,,,,,,,,,,,,,,,
,,,,,,,,,,,,,,,90116,001,2022-04-29_12h14.29.447,SPAMnetsValid,2021.1.4,MacIntel,66.66666667,,,,,,,,,,,,,,,,,,,,,,,,,3,8.126,0,4,4,4,1,specious,"plausible, but not genuine",noteworthy,class or variety,roomy,1,,,,,,,,,,,,,,,,,,,,,,,,,,,,,,,,,,,,,,,,,,,,,
,,,,,,,,,,,,,,,90116,001,2022-04-29_12h14.29.447,SPAMnetsValid,2021.1.4,MacIntel,66.66666667,,,,,,,,,,,,,,,,,,,,,,,,,2,24.69,0,5,5,5,1,bauble,bubble,showy plaything,idle talk,confusion,2,,,,,,,,,,,,,,,,,,,,,,,,,,,,,,,,,,,,,,,,,,,,,
,,,,,,,,,,,,,,,90116,001,2022-04-29_12h14.29.447,SPAMnetsValid,2021.1.4,MacIntel,66.66666667,,,,,,,,,,,,,,,,,,,,,,,,,3,3.392,0,6,6,6,1,prolific,scarce,producing abundantly,reckless,speaking profanely,2,,,,,,,,,,,,,,,,,,,,,,,,,,,,,,,,,,,,,,,,,,,,,
,,,,,,,,,,,,,,,90116,001,2022-04-29_12h14.29.447,SPAMnetsValid,2021.1.4,MacIntel,66.66666667,,,,,,,,,,,,,,,,,,,,,,,,,2,17.576,0,7,7,7,1,opulent,party,wealthy,happy frame of mind,semiprecious stone,2,,,,,,,,,,,,,,,,,,,,,,,,,,,,,,,,,,,,,,,,,,,,,
,,,,,,,,,,,,,,,90116,001,2022-04-29_12h14.29.447,SPAMnetsValid,2021.1.4,MacIntel,66.66666667,,,,,,,,,,,,,,,,,,,,,,,,,2,16.259,0,8,8,8,1,coercion,conspiracy,strategy,restraint,attraction,3,,,,,,,,,,,,,,,,,,,,,,,,,,,,,,,,,,,,,,,,,,,,,
,,,,,,,,,,,,,,,90116,001,2022-04-29_12h14.29.447,SPAMnetsValid,2021.1.4,MacIntel,66.66666667,,,,,,,,,,,,,,,,,,,,,,,,,2,4.909,0,9,9,9,1,hiatus,animal,calamity,dread,gap,4,,,,,,,,,,,,,,,,,,,,,,,,,,,,,,,,,,,,,,,,,,,,,
,,,,,,,,,,,,,,,90116,001,2022-04-29_12h14.29.447,SPAMnetsValid,2021.1.4,MacIntel,66.66666667,,,,,,,,,,,,,,,,,,,,,,,,,2,6.38,0,10,10,10,1,germane,microbe,contagious,relevant,different,3,,,,,,,,,,,,,,,,,,,,,,,,,,,,,,,,,,,,,,,,,,,,,
,,,,,,,,,,,,,,,90116,001,2022-04-29_12h14.29.447,SPAMnetsValid,2021.1.4,MacIntel,66.66666667,,,,,,,,,,,,,,,,,,,,,,,,,4,14.549,0,11,11,11,1,perfunctory,fundamental,formal,superficial,careful,3,,,,,,,,,,,,,,,,,,,,,,,,,,,,,,,,,,,,,,,,,,,,,
,,,,,,,,,,,,,,,90116,001,2022-04-29_12h14.29.447,SPAMnetsValid,2021.1.4,MacIntel,66.66666667,,,,,,,,,,,,,,,,,,,,,,,,,4,4.162,0,12,12,12,1,diverge,reveal,chant,distract the attention of,differ or turn off from,4,,,,,,,,,,,,,,,,,,,,,,,,,,,,,,,,,,,,,,,,,,,,,
,,,,,,,,,,,,,,,90116,001,2022-04-29_12h14.29.447,SPAMnetsValid,2021.1.4,MacIntel,66.66666667,,,,,,,,,,,,,,,,,,,,,,,,,4,3.525,0,13,13,13,1,evoke,take away,anger,connect,bring out,4,,,,,,,,,,,,,,,,,,,,,,,,,,,,,,,,,,,,,,,,,,,,,
,,,,,,,,,,,,,,,90116,001,2022-04-29_12h14.29.447,SPAMnetsValid,2021.1.4,MacIntel,66.66666667,,,,,,,,,,,,,,,,,,,,,,,,,1,4.724,0,14,14,14,1,pertinent,relevant,lying next to,necessary,bold,1,,,,,,,,,,,,,,,,,,,,,,,,,,,,,,,,,,,,,,,,,,,,,
,,,,,,,,,,,,,,,90116,001,2022-04-29_12h14.29.447,SPAMnetsValid,2021.1.4,MacIntel,66.66666667,,,,,,,,,,,,,,,,,,,,,,,,,2,6.344,0,15,15,15,1,holocaust,entirety,destruction,saintly,price,2,,,,,,,,,,,,,,,,,,,,,,,,,,,,,,,,,,,,,,,,,,,,,
,,,,,,,,,,,,,,,90116,001,2022-04-29_12h14.29.447,SPAMnetsValid,2021.1.4,MacIntel,66.66666667,,,,,,,,,,,,,,,,,,,,,,,,,3,16.077,0,16,16,16,1,piquant,mellow,fish,pungent,cloth,3,,,,,,,,,,,,,,,,,,,,,,,,,,,,,,,,,,,,,,,,,,,,,
,,,,,,,,,,,,,,,90116,001,2022-04-29_12h14.29.447,SPAMnetsValid,2021.1.4,MacIntel,66.66666667,,,,,,,,,,,,,,,,,,,,,,,,,3,2.381,0,17,17,17,1,firmament,foundation,heavens,strong,glue,2,,,,,,,,,,,,,,,,,,,,,,,,,,,,,,,,,,,,,,,,,,,,,
,,,,,,,,,,,,,,,90116,001,2022-04-29_12h14.29.447,SPAMnetsValid,2021.1.4,MacIntel,66.66666667,,,,,,,,,,,,,,,,,,,,,,,,,,,,,,,,,,,,,,5,6.987,0,0,0,0,1,marketable,partisan,jocular,marriageable,salable,essential,4,,,,,,,,,,,,,,,,,,,,,,,,,,,,,,,
,,,,,,,,,,,,,,,90116,001,2022-04-29_12h14.29.447,SPAMnetsValid,2021.1.4,MacIntel,66.66666667,,,,,,,,,,,,,,,,,,,,,,,,,,,,,,,,,,,,,,5,18.908,0,1,1,1,1,cottontail,squirrel,poplar,boa,marshy plant,rabbit,5,,,,,,,,,,,,,,,,,,,,,,,,,,,,,,,
,,,,,,,,,,,,,,,90116,001,2022-04-29_12h14.29.447,SPAMnetsValid,2021.1.4,MacIntel,66.66666667,,,,,,,,,,,,,,,,,,,,,,,,,,,,,,,,,,,,,,3,12.032,0,2,2,2,1,boggy,afraid,false,marshy,dense,black,3,,,,,,,,,,,,,,,,,,,,,,,,,,,,,,,
,,,,,,,,,,,,,,,90116,001,2022-04-29_12h14.29.447,SPAMnetsValid,2021.1.4,MacIntel,66.66666667,,,,,,,,,,,,,,,,,,,,,,,,,,,,,,,,,,,,,,3,9.842,0,3,3,3,1,gruesomeness,blackness,falseness,vindictiveness,drunkenness,ghastliness,5,,,,,,,,,,,,,,,,,,,,,,,,,,,,,,,
,,,,,,,,,,,,,,,90116,001,2022-04-29_12h14.29.447,SPAMnetsValid,2021.1.4,MacIntel,66.66666667,,,,,,,,,,,,,,,,,,,,,,,,,,,,,,,,,,,,,,4,4.896,0,4,4,4,1,loathing,diffidence,laziness,abhorrence,cleverness,comfort,3,,,,,,,,,,,,,,,,,,,,,,,,,,,,,,,
,,,,,,,,,,,,,,,90116,001,2022-04-29_12h14.29.447,SPAMnetsValid,2021.1.4,MacIntel,66.66666667,,,,,,,,,,,,,,,,,,,,,,,,,,,,,,,,,,,,,,3,21.508,0,5,5,5,1,bantam,fowl,ridicule,cripple,vegetable,ensign,1,,,,,,,,,,,,,,,,,,,,,,,,,,,,,,,
,,,,,,,,,,,,,,,90116,001,2022-04-29_12h14.29.447,SPAMnetsValid,2021.1.4,MacIntel,66.66666667,,,,,,,,,,,,,,,,,,,,,,,,,,,,,,,,,,,,,,5,2.598,0,6,6,6,1,evoke,wake up,surrender,reconnoiter,transcend,call forth,5,,,,,,,,,,,,,,,,,,,,,,,,,,,,,,,
,,,,,,,,,,,,,,,90116,001,2022-04-29_12h14.29.447,SPAMnetsValid,2021.1.4,MacIntel,66.66666667,,,,,,,,,,,,,,,,,,,,,,,,,,,,,,,,,,,,,,4,9.961,0,7,7,7,1,unobtrusive,unintelligent,epileptic,illogical,lineal,modest,5,,,,,,,,,,,,,,,,,,,,,,,,,,,,,,,
,,,,,,,,,,,,,,,90116,001,2022-04-29_12h14.29.447,SPAMnetsValid,2021.1.4,MacIntel,66.66666667,,,,,,,,,,,,,,,,,,,,,,,,,,,,,,,,,,,,,,4,2.058,0,8,8,8,1,terrain,ice cream,final test,tractor,area of ground,weight,4,,,,,,,,,,,,,,,,,,,,,,,,,,,,,,,
,,,,,,,,,,,,,,,90116,001,2022-04-29_12h14.29.447,SPAMnetsValid,2021.1.4,MacIntel,66.66666667,,,,,,,,,,,,,,,,,,,,,,,,,,,,,,,,,,,,,,1,8.16,0,9,9,9,1,capriciousness,stubbornness,courage,whimsicality,amazement,greediness,3,,,,,,,,,,,,,,,,,,,,,,,,,,,,,,,
,,,,,,,,,,,,,,,90116,001,2022-04-29_12h14.29.447,SPAMnetsValid,2021.1.4,MacIntel,66.66666667,,,,,,,,,,,,,,,,,,,,,,,,,,,,,,,,,,,,,,2,3.808,0,10,10,10,1,maelstrom,slander,whirlpool,enmity,armor,majolica,2,,,,,,,,,,,,,,,,,,,,,,,,,,,,,,,
,,,,,,,,,,,,,,,90116,001,2022-04-29_12h14.29.447,SPAMnetsValid,2021.1.4,MacIntel,66.66666667,,,,,,,,,,,,,,,,,,,,,,,,,,,,,,,,,,,,,,5,5.928,0,11,11,11,1,tentative,critical,conclusive,authentic,provisional,apprehensive,4,,,,,,,,,,,,,,,,,,,,,,,,,,,,,,,
,,,,,,,,,,,,,,,90116,001,2022-04-29_12h14.29.447,SPAMnetsValid,2021.1.4,MacIntel,66.66666667,,,,,,,,,,,,,,,,,,,,,,,,,,,,,,,,,,,,,,1,14.307,0,12,12,12,1,placate,rehabilitate,plagiarize,depredate,apprise,conciliate,5,,,,,,,,,,,,,,,,,,,,,,,,,,,,,,,
,,,,,,,,,,,,,,,90116,001,2022-04-29_12h14.29.447,SPAMnetsValid,2021.1.4,MacIntel,66.66666667,,,,,,,,,,,,,,,,,,,,,,,,,,,,,,,,,,,,,,4,3.211,0,13,13,13,1,surcease,enlightenment,cessation,inattention,censor,substitution,2,,,,,,,,,,,,,,,,,,,,,,,,,,,,,,,
,,,,,,,,,,,,,,,90116,001,2022-04-29_12h14.29.447,SPAMnetsValid,2021.1.4,MacIntel,66.66666667,,,,,,,,,,,,,,,,,,,,,,,,,,,,,,,,,,,,,,2,3.192,0,14,14,14,1,apathetic,wandering,impassive,hateful,prophetic,overflowing,2,,,,,,,,,,,,,,,,,,,,,,,,,,,,,,,
,,,,,,,,,,,,,,,90116,001,2022-04-29_12h14.29.447,SPAMnetsValid,2021.1.4,MacIntel,66.66666667,,,,,,,,,,,,,,,,,,,,,,,,,,,,,,,,,,,,,,4,19.994,0,15,15,15,1,paternoster,paternalism,patricide,malediction,benediction,prayer,5,,,,,,,,,,,,,,,,,,,,,,,,,,,,,,,
,,,,,,,,,,,,,,,90116,001,2022-04-29_12h14.29.447,SPAMnetsValid,2021.1.4,MacIntel,66.66666667,,,,,,,,,,,,,,,,,,,,,,,,,,,,,,,,,,,,,,1,21.193,0,16,16,16,1,opalescence,opulence,senescence,bankruptcy,iridescence,assiduity,4,,,,,,,,,,,,,,,,,,,,,,,,,,,,,,,
,,,,,,,,,,,,,,,90116,001,2022-04-29_12h14.29.447,SPAMnetsValid,2021.1.4,MacIntel,66.66666667,,,,,,,,,,,,,,,,,,,,,,,,,,,,,,,,,,,,,,2,4.098,0,17,17,17,1,lush,stupid,luxurious,hazy,putrid,languishing,2,,,,,,,,,,,,,,,,,,,,,,,,,,,,,,,
,,,,,,,,,,,,,,,90116,001,2022-04-29_12h14.29.447,SPAMnetsValid,2021.1.4,MacIntel,66.66666667,,,,,,,,,,,,,,,,,,,,,,,,,,,,,,,,,,,,,,3,4.96,0,18,18,18,1,curtailment,expenditure,abandonment,abridgment,improvement,forgery,3,,,,,,,,,,,,,,,,,,,,,,,,,,,,,,,
,,,,,,,,,,,,,,,90116,001,2022-04-29_12h14.29.447,SPAMnetsValid,2021.1.4,MacIntel,66.66666667,,,,,,,,,,,,,,,,,,,,,,,,,,,,,,,,,,,,,,4,10.995,0,19,19,19,1,perversity,adversity,perviousness,travesty,waywardness,gentility,4,,,,,,,,,,,,,,,,,,,,,,,,,,,,,,,
,,,,,,,,,,,,,,,90116,001,2022-04-29_12h14.29.447,SPAMnetsValid,2021.1.4,MacIntel,66.66666667,,,,,,,,,,,,,,,,,,,,,,,,,,,,,,,,,,,,,,3,3.026,0,20,20,20,1,calumnious,complimentary,analogous,slanderous,tempestuous,magnanimous,3,,,,,,,,,,,,,,,,,,,,,,,,,,,,,,,
,,,,,,,,,,,,,,,90116,001,2022-04-29_12h14.29.447,SPAMnetsValid,2021.1.4,MacIntel,66.66666667,,,,,,,,,,,,,,,,,,,,,,,,,,,,,,,,,,,,,,3,5.211,0,21,21,21,1,illiberality,bigotry,imbecility,illegibility,cautery,immaturity,1,,,,,,,,,,,,,,,,,,,,,,,,,,,,,,,
,,,,,,,,,,,,,,,90116,001,2022-04-29_12h14.29.447,SPAMnetsValid,2021.1.4,MacIntel,66.66666667,,,,,,,,,,,,,,,,,,,,,,,,,,,,,,,,,,,,,,3,2.509,0,22,22,22,1,clabber,rejoice,gossip,curdle,crow,hobble,3,,,,,,,,,,,,,,,,,,,,,,,,,,,,,,,
,,,,,,,,,,,,,,,90116,001,2022-04-29_12h14.29.447,SPAMnetsValid,2021.1.4,MacIntel,66.66666667,,,,,,,,,,,,,,,,,,,,,,,,,,,,,,,,,,,,,,4,2.577,0,23,23,23,1,sedulousness,diligence,credulousness,seduction,perilousness,frankness,1,,,,,,,,,,,,,,,,,,,,,,,,,,,,,,,
,,,,,,,,,,,,,,,90116,001,2022-04-29_12h14.29.447,SPAMnetsValid,2021.1.4,MacIntel,66.66666667,,,,,,,,,,,,,,,,,,,,,,,,,,,,,,,,,,,,,,,,,,,,,,,,,,,,collect water at community water pump in rural poor areas,bucket,0,0,0,0,1,,,,,,,,,,,,,,,,,,,,,,,,
,,,,,,,,,,,,,,,90116,001,2022-04-29_12h14.29.447,SPAMnetsValid,2021.1.4,MacIntel,66.66666667,,,,,,,,,,,,,,,,,,,,,,,,,,,,,,,,,,,,,,,,,,,,,,,,,,,,hunting,bucket,1,0,1,0,1,,,,,,,,,,,,,,,,,,,,,,,,
,,,,,,,,,,,,,,,90116,001,2022-04-29_12h14.29.447,SPAMnetsValid,2021.1.4,MacIntel,66.66666667,,,,,,,,,,,,,,,,,,,,,,,,,,,,,,,,,,,,,,,,,,,,,,,,,,,,outside shower,bucket,2,0,2,0,1,,,,,,,,,,,,,,,,,,,,,,,,
,,,,,,,,,,,,,,,90116,001,2022-04-29_12h14.29.447,SPAMnetsValid,2021.1.4,MacIntel,66.66666667,,,,,,,,,,,,,,,,,,,,,,,,,,,,,,,,,,,,,,,,,,,,,,,,,,,,wash plates ,bucket,3,0,3,0,1,,,,,,,,,,,,,,,,,,,,,,,,
,,,,,,,,,,,,,,,90116,001,2022-04-29_12h14.29.447,SPAMnetsValid,2021.1.4,MacIntel,66.66666667,,,,,,,,,,,,,,,,,,,,,,,,,,,,,,,,,,,,,,,,,,,,,,,,,,,,store vegetables,bucket,4,0,4,0,1,,,,,,,,,,,,,,,,,,,,,,,,
,,,,,,,,,,,,,,,90116,001,2022-04-29_12h14.29.447,SPAMnetsValid,2021.1.4,MacIntel,66.66666667,,,,,,,,,,,,,,,,,,,,,,,,,,,,,,,,,,,,,,,,,,,,,,,,,,,,store toys,bucket,5,0,5,0,1,,,,,,,,,,,,,,,,,,,,,,,,
,,,,,,,,,,,,,,,90116,001,2022-04-29_12h14.29.447,SPAMnetsValid,2021.1.4,MacIntel,66.66666667,,,,,,,,,,,,,,,,,,,,,,,,,,,,,,,,,,,,,,,,,,,,,,,,,,,,store food,bucket,6,0,6,0,1,,,,,,,,,,,,,,,,,,,,,,,,
,,,,,,,,,,,,,,,90116,001,2022-04-29_12h14.29.447,SPAMnetsValid,2021.1.4,MacIntel,66.66666667,,,,,,,,,,,,,,,,,,,,,,,,,,,,,,,,,,,,,,,,,,,,,,,,,,,,store drinks,bucket,7,0,7,0,1,,,,,,,,,,,,,,,,,,,,,,,,
,,,,,,,,,,,,,,,90116,001,2022-04-29_12h14.29.447,SPAMnetsValid,2021.1.4,MacIntel,66.66666667,,,,,,,,,,,,,,,,,,,,,,,,,,,,,,,,,,,,,,,,,,,,,,,,,,,,getv water from lake,bucket,8,0,8,0,1,,,,,,,,,,,,,,,,,,,,,,,,
,,,,,,,,,,,,,,,90116,001,2022-04-29_12h14.29.447,SPAMnetsValid,2021.1.4,MacIntel,66.66666667,,,,,,,,,,,,,,,,,,,,,,,,,,,,,,,,,,,,,,,,,,,,,,,,,,,,fishing,bucket,9,0,9,0,1,,,,,,,,,,,,,,,,,,,,,,,,
,,,,,,,,,,,,,,,90116,001,2022-04-29_12h14.29.447,SPAMnetsValid,2021.1.4,MacIntel,66.66666667,,,,,,,,,,,,,,,,,,,,,,,,,,,,,,,,,,,,,,,,,,,,,,,,,,,,weapon,bucket,10,0,10,0,1,,,,,,,,,,,,,,,,,,,,,,,,
,,,,,,,,,,,,,,,90116,001,2022-04-29_12h14.29.447,SPAMnetsValid,2021.1.4,MacIntel,66.66666667,,,,,,,,,,,,,,,,,,,,,,,,,,,,,,,,,,,,,,,,,,,,,,,,,,,,dog a bath,bucket,11,0,11,0,1,,,,,,,,,,,,,,,,,,,,,,,,
,,,,,,,,,,,,,,,90116,001,2022-04-29_12h14.29.447,SPAMnetsValid,2021.1.4,MacIntel,66.66666667,,,,,,,,,,,,,,,,,,,,,,,,,,,,,,,,,,,,,,,,,,,,,,,,,,,,wash my hair,bucket,12,0,12,0,1,,,,,,,,,,,,,,,,,,,,,,,,
,,,,,,,,,,,,,,,90116,001,2022-04-29_12h14.29.447,SPAMnetsValid,2021.1.4,MacIntel,66.66666667,,,,,,,,,,,,,,,,,,,,,,,,,,,,,,,,,,,,,,,,,,,,,,,,,,,,store socks,bucket,13,0,13,0,1,,,,,,,,,,,,,,,,,,,,,,,,
,,,,,,,,,,,,,,,90116,001,2022-04-29_12h14.29.447,SPAMnetsValid,2021.1.4,MacIntel,66.66666667,,,,,,,,,,,,,,,,,,,,,,,,,,,,,,,,,,,,,,,,,,,,,,,,,,,,,,,,,,,0,0,0,0,1,bucket,,,,,,,,,,,,,,,,,,
,,,,,,,,,,,,,,,90116,001,2022-04-29_12h14.29.447,SPAMnetsValid,2021.1.4,MacIntel,66.66666667,,,,,,,,,,,,,,,,,,,,,,,,,,,,,,,,,,,,,,,,,,,,,,,,,,,,light it,candle,0,0,0,0,1,,,,,,,,,,,,,,,,,,,,,,,,
,,,,,,,,,,,,,,,90116,001,2022-04-29_12h14.29.447,SPAMnetsValid,2021.1.4,MacIntel,66.66666667,,,,,,,,,,,,,,,,,,,,,,,,,,,,,,,,,,,,,,,,,,,,,,,,,,,,weapon,candle,1,0,1,0,1,,,,,,,,,,,,,,,,,,,,,,,,
,,,,,,,,,,,,,,,90116,001,2022-04-29_12h14.29.447,SPAMnetsValid,2021.1.4,MacIntel,66.66666667,,,,,,,,,,,,,,,,,,,,,,,,,,,,,,,,,,,,,,,,,,,,,,,,,,,,smash it,candle,2,0,2,0,1,,,,,,,,,,,,,,,,,,,,,,,,
,,,,,,,,,,,,,,,90116,001,2022-04-29_12h14.29.447,SPAMnetsValid,2021.1.4,MacIntel,66.66666667,,,,,,,,,,,,,,,,,,,,,,,,,,,,,,,,,,,,,,,,,,,,,,,,,,,,store,candle,3,0,3,0,1,,,,,,,,,,,,,,,,,,,,,,,,
,,,,,,,,,,,,,,,90116,001,2022-04-29_12h14.29.447,SPAMnetsValid,2021.1.4,MacIntel,66.66666667,,,,,,,,,,,,,,,,,,,,,,,,,,,,,,,,,,,,,,,,,,,,,,,,,,,,collect,candle,4,0,4,0,1,,,,,,,,,,,,,,,,,,,,,,,,
,,,,,,,,,,,,,,,90116,001,2022-04-29_12h14.29.447,SPAMnetsValid,2021.1.4,MacIntel,66.66666667,,,,,,,,,,,,,,,,,,,,,,,,,,,,,,,,,,,,,,,,,,,,,,,,,,,,use as decoration,candle,5,0,5,0,1,,,,,,,,,,,,,,,,,,,,,,,,
,,,,,,,,,,,,,,,90116,001,2022-04-29_12h14.29.447,SPAMnetsValid,2021.1.4,MacIntel,66.66666667,,,,,,,,,,,,,,,,,,,,,,,,,,,,,,,,,,,,,,,,,,,,,,,,,,,,,candle,6,0,6,0,1,,,,,,,,,,,,,,,,,,,,,,,,
,,,,,,,,,,,,,,,90116,001,2022-04-29_12h14.29.447,SPAMnetsValid,2021.1.4,MacIntel,66.66666667,,,,,,,,,,,,,,,,,,,,,,,,,,,,,,,,,,,,,,,,,,,,,,,,,,,, use to light other canldes,candle,7,0,7,0,1,,,,,,,,,,,,,,,,,,,,,,,,
,,,,,,,,,,,,,,,90116,001,2022-04-29_12h14.29.447,SPAMnetsValid,2021.1.4,MacIntel,66.66666667,,,,,,,,,,,,,,,,,,,,,,,,,,,,,,,,,,,,,,,,,,,,,,,,,,,,uise to light a fire,candle,8,0,8,0,1,,,,,,,,,,,,,,,,,,,,,,,,
,,,,,,,,,,,,,,,90116,001,2022-04-29_12h14.29.447,SPAMnetsValid,2021.1.4,MacIntel,66.66666667,,,,,,,,,,,,,,,,,,,,,,,,,,,,,,,,,,,,,,,,,,,,,,,,,,,,use to warm my hands,candle,9,0,9,0,1,,,,,,,,,,,,,,,,,,,,,,,,
,,,,,,,,,,,,,,,90116,001,2022-04-29_12h14.29.447,SPAMnetsValid,2021.1.4,MacIntel,66.66666667,,,,,,,,,,,,,,,,,,,,,,,,,,,,,,,,,,,,,,,,,,,,,,,,,,,,use to get rid of house odor,candle,10,0,10,0,1,,,,,,,,,,,,,,,,,,,,,,,,
,,,,,,,,,,,,,,,90116,001,2022-04-29_12h14.29.447,SPAMnetsValid,2021.1.4,MacIntel,66.66666667,,,,,,,,,,,,,,,,,,,,,,,,,,,,,,,,,,,,,,,,,,,,,,,,,,,,light up hiuse,candle,11,0,11,0,1,,,,,,,,,,,,,,,,,,,,,,,,
,,,,,,,,,,,,,,,90116,001,2022-04-29_12h14.29.447,SPAMnetsValid,2021.1.4,MacIntel,66.66666667,,,,,,,,,,,,,,,,,,,,,,,,,,,,,,,,,,,,,,,,,,,,,,,,,,,,,,,,,,,0,1,1,1,1,candle,,,,,,,,,,,,,,,,,,
,,,,,,,,,,,,,,,90116,001,2022-04-29_12h14.29.447,SPAMnetsValid,2021.1.4,MacIntel,66.66666667,,,,,,,,,,,,,,,,,,,,,,,,,,,,,,,,,,,,,,,,,,,,,,,,,,,,sleep on,pillow,0,0,0,0,1,,,,,,,,,,,,,,,,,,,,,,,,
,,,,,,,,,,,,,,,90116,001,2022-04-29_12h14.29.447,SPAMnetsValid,2021.1.4,MacIntel,66.66666667,,,,,,,,,,,,,,,,,,,,,,,,,,,,,,,,,,,,,,,,,,,,,,,,,,,,wash,pillow,1,0,1,0,1,,,,,,,,,,,,,,,,,,,,,,,,
,,,,,,,,,,,,,,,90116,001,2022-04-29_12h14.29.447,SPAMnetsValid,2021.1.4,MacIntel,66.66666667,,,,,,,,,,,,,,,,,,,,,,,,,,,,,,,,,,,,,,,,,,,,,,,,,,,,play pillow fight,pillow,2,0,2,0,1,,,,,,,,,,,,,,,,,,,,,,,,
,,,,,,,,,,,,,,,90116,001,2022-04-29_12h14.29.447,SPAMnetsValid,2021.1.4,MacIntel,66.66666667,,,,,,,,,,,,,,,,,,,,,,,,,,,,,,,,,,,,,,,,,,,,,,,,,,,,built a fort,pillow,3,0,3,0,1,,,,,,,,,,,,,,,,,,,,,,,,
,,,,,,,,,,,,,,,90116,001,2022-04-29_12h14.29.447,SPAMnetsValid,2021.1.4,MacIntel,66.66666667,,,,,,,,,,,,,,,,,,,,,,,,,,,,,,,,,,,,,,,,,,,,,,,,,,,,sleepovers,pillow,4,0,4,0,1,,,,,,,,,,,,,,,,,,,,,,,,
,,,,,,,,,,,,,,,90116,001,2022-04-29_12h14.29.447,SPAMnetsValid,2021.1.4,MacIntel,66.66666667,,,,,,,,,,,,,,,,,,,,,,,,,,,,,,,,,,,,,,,,,,,,,,,,,,,,camping,pillow,5,0,5,0,1,,,,,,,,,,,,,,,,,,,,,,,,
,,,,,,,,,,,,,,,90116,001,2022-04-29_12h14.29.447,SPAMnetsValid,2021.1.4,MacIntel,66.66666667,,,,,,,,,,,,,,,,,,,,,,,,,,,,,,,,,,,,,,,,,,,,,,,,,,,,sleep in sofa,pillow,6,0,6,0,1,,,,,,,,,,,,,,,,,,,,,,,,
,,,,,,,,,,,,,,,90116,001,2022-04-29_12h14.29.447,SPAMnetsValid,2021.1.4,MacIntel,66.66666667,,,,,,,,,,,,,,,,,,,,,,,,,,,,,,,,,,,,,,,,,,,,,,,,,,,,sleep outsdie in hammock,pillow,7,0,7,0,1,,,,,,,,,,,,,,,,,,,,,,,,
,,,,,,,,,,,,,,,90116,001,2022-04-29_12h14.29.447,SPAMnetsValid,2021.1.4,MacIntel,66.66666667,,,,,,,,,,,,,,,,,,,,,,,,,,,,,,,,,,,,,,,,,,,,,,,,,,,,collect ,pillow,8,0,8,0,1,,,,,,,,,,,,,,,,,,,,,,,,
,,,,,,,,,,,,,,,90116,001,2022-04-29_12h14.29.447,SPAMnetsValid,2021.1.4,MacIntel,66.66666667,,,,,,,,,,,,,,,,,,,,,,,,,,,,,,,,,,,,,,,,,,,,,,,,,,,,use as cushion,pillow,9,0,9,0,1,,,,,,,,,,,,,,,,,,,,,,,,
,,,,,,,,,,,,,,,90116,001,2022-04-29_12h14.29.447,SPAMnetsValid,2021.1.4,MacIntel,66.66666667,,,,,,,,,,,,,,,,,,,,,,,,,,,,,,,,,,,,,,,,,,,,,,,,,,,,use for pet,pillow,10,0,10,0,1,,,,,,,,,,,,,,,,,,,,,,,,
,,,,,,,,,,,,,,,90116,001,2022-04-29_12h14.29.447,SPAMnetsValid,2021.1.4,MacIntel,66.66666667,,,,,,,,,,,,,,,,,,,,,,,,,,,,,,,,,,,,,,,,,,,,,,,,,,,,put in a crib,pillow,11,0,11,0,1,,,,,,,,,,,,,,,,,,,,,,,,
,,,,,,,,,,,,,,,90116,001,2022-04-29_12h14.29.447,SPAMnetsValid,2021.1.4,MacIntel,66.66666667,,,,,,,,,,,,,,,,,,,,,,,,,,,,,,,,,,,,,,,,,,,,,,,,,,,,use to elevate feet ,pillow,12,0,12,0,1,,,,,,,,,,,,,,,,,,,,,,,,
,,,,,,,,,,,,,,,90116,001,2022-04-29_12h14.29.447,SPAMnetsValid,2021.1.4,MacIntel,66.66666667,,,,,,,,,,,,,,,,,,,,,,,,,,,,,,,,,,,,,,,,,,,,,,,,,,,,use to elevate head,pillow,13,0,13,0,1,,,,,,,,,,,,,,,,,,,,,,,,
,,,,,,,,,,,,,,,90116,001,2022-04-29_12h14.29.447,SPAMnetsValid,2021.1.4,MacIntel,66.66666667,,,,,,,,,,,,,,,,,,,,,,,,,,,,,,,,,,,,,,,,,,,,,,,,,,,,use to decorate,pillow,14,0,14,0,1,,,,,,,,,,,,,,,,,,,,,,,,
,,,,,,,,,,,,,,,90116,001,2022-04-29_12h14.29.447,SPAMnetsValid,2021.1.4,MacIntel,66.66666667,,,,,,,,,,,,,,,,,,,,,,,,,,,,,,,,,,,,,,,,,,,,,,,,,,,,bedding decoration,pillow,15,0,15,0,1,,,,,,,,,,,,,,,,,,,,,,,,
,,,,,,,,,,,,,,,90116,001,2022-04-29_12h14.29.447,SPAMnetsValid,2021.1.4,MacIntel,66.66666667,,,,,,,,,,,,,,,,,,,,,,,,,,,,,,,,,,,,,,,,,,,,,,,,,,,,livingroom decoration,pillow,16,0,16,0,1,,,,,,,,,,,,,,,,,,,,,,,,
,,,,,,,,,,,,,,,90116,001,2022-04-29_12h14.29.447,SPAMnetsValid,2021.1.4,MacIntel,66.66666667,,,,,,,,,,,,,,,,,,,,,,,,,,,,,,,,,,,,,,,,,,,,,,,,,,,,outside ,pillow,17,0,17,0,1,,,,,,,,,,,,,,,,,,,,,,,,
,,,,,,,,,,,,,,,90116,001,2022-04-29_12h14.29.447,SPAMnetsValid,2021.1.4,MacIntel,66.66666667,,,,,,,,,,,,,,,,,,,,,,,,,,,,,,,,,,,,,,,,,,,,,,,,,,,,,,,,,,,0,2,2,2,1,pillow,,,,,,,,,,,,,,,,,,
,,,,,,,,,,,,,,,90116,001,2022-04-29_12h14.29.447,SPAMnetsValid,2021.1.4,MacIntel,66.66666667,,,,,,,,,,,,,,,,,,,,,,,,,,,,,,,,,,,,,,,,,,,,,,,,,,,,,,,,,,,,,,,,,0,0,0,0,1,Animals,,,,,,,,,,,,
,,,,,,,,,,,,,,,90116,001,2022-04-29_12h14.29.447,SPAMnetsValid,2021.1.4,MacIntel,66.66666667,,,,,,,,,,,,,,,,,,,,,,,,,,,,,,,,,,,,,,,,,,,,,,,,,,,,,,,,,,,,,,,,,,,,,,,3,6.291,0,0,0,0,1,"I enjoy concentrating on a fantasy or daydream and exploring all its possibilities, letting it grow and develop.",0,1,,
,,,,,,,,,,,,,,,90116,001,2022-04-29_12h14.29.447,SPAMnetsValid,2021.1.4,MacIntel,66.66666667,,,,,,,,,,,,,,,,,,,,,,,,,,,,,,,,,,,,,,,,,,,,,,,,,,,,,,,,,,,,,,,,,,,,,,,4,3.477,0,1,1,1,1,I think it's interesting to learn and develop new hobbies.,0,2,,
,,,,,,,,,,,,,,,90116,001,2022-04-29_12h14.29.447,SPAMnetsValid,2021.1.4,MacIntel,66.66666667,,,,,,,,,,,,,,,,,,,,,,,,,,,,,,,,,,,,,,,,,,,,,,,,,,,,,,,,,,,,,,,,,,,,,,,4,2.462,0,2,2,2,1,I am intrigued by the patterns I find in art and nature.,0,3,,
,,,,,,,,,,,,,,,90116,001,2022-04-29_12h14.29.447,SPAMnetsValid,2021.1.4,MacIntel,66.66666667,,,,,,,,,,,,,,,,,,,,,,,,,,,,,,,,,,,,,,,,,,,,,,,,,,,,,,,,,,,,,,,,,,,,,,,3,4.179,0,3,3,3,1,I believe letting students hear controversial speakers can only confuse and mislead them.,1,4,,
,,,,,,,,,,,,,,,90116,001,2022-04-29_12h14.29.447,SPAMnetsValid,2021.1.4,MacIntel,66.66666667,,,,,,,,,,,,,,,,,,,,,,,,,,,,,,,,,,,,,,,,,,,,,,,,,,,,,,,,,,,,,,,,,,,,,,,4,2.93,0,4,4,4,1,Poetry has little or no effect on me.,1,5,,
,,,,,,,,,,,,,,,90116,001,2022-04-29_12h14.29.447,SPAMnetsValid,2021.1.4,MacIntel,66.66666667,,,,,,,,,,,,,,,,,,,,,,,,,,,,,,,,,,,,,,,,,,,,,,,,,,,,,,,,,,,,,,,,,,,,,,,3,2.957,0,5,5,5,1,I would have difficulty just letting my mind wander without control or guidance.,1,6,,
,,,,,,,,,,,,,,,90116,001,2022-04-29_12h14.29.447,SPAMnetsValid,2021.1.4,MacIntel,66.66666667,,,,,,,,,,,,,,,,,,,,,,,,,,,,,,,,,,,,,,,,,,,,,,,,,,,,,,,,,,,,,,,,,,,,,,,3,3.895,0,6,6,6,1,I seldom notice the moods or feelings that different environments produce.,1,7,,
,,,,,,,,,,,,,,,90116,001,2022-04-29_12h14.29.447,SPAMnetsValid,2021.1.4,MacIntel,66.66666667,,,,,,,,,,,,,,,,,,,,,,,,,,,,,,,,,,,,,,,,,,,,,,,,,,,,,,,,,,,,,,,,,,,,,,,3,2.411,0,7,7,7,1,I experience a wide range of emotions or feelings.,0,8,,
,,,,,,,,,,,,,,,90116,001,2022-04-29_12h14.29.447,SPAMnetsValid,2021.1.4,MacIntel,66.66666667,,,,,,,,,,,,,,,,,,,,,,,,,,,,,,,,,,,,,,,,,,,,,,,,,,,,,,,,,,,,,,,,,,,,,,,4,2.594,0,8,8,8,1,"Sometimes when I am reading poetry or looking at a work of art, I feel a chill or wave of excitement.",0,9,,
,,,,,,,,,,,,,,,90116,001,2022-04-29_12h14.29.447,SPAMnetsValid,2021.1.4,MacIntel,66.66666667,,,,,,,,,,,,,,,,,,,,,,,,,,,,,,,,,,,,,,,,,,,,,,,,,,,,,,,,,,,,,,,,,,,,,,,3,3.608,0,9,9,9,1,I have little interest in speculating on the nature of the universe or the human condition.,1,10,,
,,,,,,,,,,,,,,,90116,001,2022-04-29_12h14.29.447,SPAMnetsValid,2021.1.4,MacIntel,66.66666667,,,,,,,,,,,,,,,,,,,,,,,,,,,,,,,,,,,,,,,,,,,,,,,,,,,,,,,,,,,,,,,,,,,,,,,3,1.458,0,10,10,10,1,I have a lot of intellectual curiosity.,0,11,,
,,,,,,,,,,,,,,,90116,001,2022-04-29_12h14.29.447,SPAMnetsValid,2021.1.4,MacIntel,66.66666667,,,,,,,,,,,,,,,,,,,,,,,,,,,,,,,,,,,,,,,,,,,,,,,,,,,,,,,,,,,,,,,,,,,,,,,3,3.944,0,11,11,11,1,I often enjoy playing with theories or abstract ideas.,0,12,,
,,,,,,,,,,,,,,,90116,001,2022-04-29_12h14.29.447,SPAMnetsValid,2021.1.4,MacIntel,66.66666667,,,,,,,,,,,,,,,,,,,,,,,,,,,,,,,,,,,,,,,,,,,,,,,,,,,,,,,,,,,,,,,,,,,,,,,,,,,,,,,,,return,37.15
