key_resp_3.keys,key_resp_3.rt,slider_2.response,slider_2.rt,rjt_rating,rjt_RT,trials_24.thisRepN,trials_24.thisTrialN,trials_24.thisN,trials_24.thisIndex,trials_24.ran,rjt_order,word1,word2,attention,participant,session,date,expName,psychopyVersion,OS,frameRate,trials_4.thisRepN,trials_4.thisTrialN,trials_4.thisN,trials_4.thisIndex,trials_4.ran,trials_5.thisRepN,trials_5.thisTrialN,trials_5.thisN,trials_5.thisIndex,trials_5.ran,repOne,repTwo,slider.response,slider.rt,trials_22.thisRepN,trials_22.thisTrialN,trials_22.thisN,trials_22.thisIndex,trials_22.ran,trials_99.thisRepN,trials_99.thisTrialN,trials_99.thisN,trials_99.thisIndex,trials_99.ran,slider_extend_2.response,slider_extend_2.rt,trials_6.thisRepN,trials_6.thisTrialN,trials_6.thisN,trials_6.thisIndex,trials_6.ran,vCue2,R1,R2,R3,R4,correct,sliderVocab.response,sliderVocab.rt,trials_7.thisRepN,trials_7.thisTrialN,trials_7.thisN,trials_7.thisIndex,trials_7.ran,VocabCue,VR1,VR2,VR3,VR4,VR5,VocabCorrect,AUT_resp,AUT_label,trials.thisRepN,trials.thisTrialN,trials.thisN,trials.thisIndex,trials.ran,trials_2.thisRepN,trials_2.thisTrialN,trials_2.thisN,trials_2.thisIndex,trials_2.ran,aut_prompt,VF_response,VF_tag,trials_16.thisRepN,trials_16.thisTrialN,trials_16.thisN,trials_16.thisIndex,trials_16.ran,trials_17.thisRepN,trials_17.thisTrialN,trials_17.thisN,trials_17.thisIndex,trials_17.ran,VFcond,open_slider.response,open_slider.rt,trials_3.thisRepN,trials_3.thisTrialN,trials_3.thisN,trials_3.thisIndex,trials_3.ran,OpenQ,Rev,OPEN_ORDER,key_resp_2.keys,key_resp_2.rt
return,60.6993,6,15.0955,6,15.0955,0,0,0,96,1,136,chocolate,microwave,,90115,001,2022-04-21_21h24.57.184,SPAMnetsValid,2021.1.4,Win32,40.04485023,,,,,,,,,,,,,,,,,,,,,,,,,,,,,,,,,,,,,,,,,,,,,,,,,,,,,,,,,,,,,,,,,,,,,,,,,,,,,,,,,,,,,,,,,
,,8,3.7334,8,3.7334,0,1,1,33,1,131,cactus,garden,,90115,001,2022-04-21_21h24.57.184,SPAMnetsValid,2021.1.4,Win32,40.04485023,,,,,,,,,,,,,,,,,,,,,,,,,,,,,,,,,,,,,,,,,,,,,,,,,,,,,,,,,,,,,,,,,,,,,,,,,,,,,,,,,,,,,,,,,
,,2,4.6301,2,4.6301,0,2,2,6,1,151,microwave,onion,,90115,001,2022-04-21_21h24.57.184,SPAMnetsValid,2021.1.4,Win32,40.04485023,,,,,,,,,,,,,,,,,,,,,,,,,,,,,,,,,,,,,,,,,,,,,,,,,,,,,,,,,,,,,,,,,,,,,,,,,,,,,,,,,,,,,,,,,
,,9,2.5728,9,2.5728,0,3,3,83,1,100,garden,tomato,,90115,001,2022-04-21_21h24.57.184,SPAMnetsValid,2021.1.4,Win32,40.04485023,,,,,,,,,,,,,,,,,,,,,,,,,,,,,,,,,,,,,,,,,,,,,,,,,,,,,,,,,,,,,,,,,,,,,,,,,,,,,,,,,,,,,,,,,
,,1,3.4806,1,3.4806,0,4,4,38,1,155,carrot,cookie,,90115,001,2022-04-21_21h24.57.184,SPAMnetsValid,2021.1.4,Win32,40.04485023,,,,,,,,,,,,,,,,,,,,,,,,,,,,,,,,,,,,,,,,,,,,,,,,,,,,,,,,,,,,,,,,,,,,,,,,,,,,,,,,,,,,,,,,,
,,1,2.1648,1,2.1648,0,5,5,90,1,190,microwave,strawberry,,90115,001,2022-04-21_21h24.57.184,SPAMnetsValid,2021.1.4,Win32,40.04485023,,,,,,,,,,,,,,,,,,,,,,,,,,,,,,,,,,,,,,,,,,,,,,,,,,,,,,,,,,,,,,,,,,,,,,,,,,,,,,,,,,,,,,,,,
,,9,3.1387,9,3.1387,0,6,6,52,1,110,chocolate,cookie,,90115,001,2022-04-21_21h24.57.184,SPAMnetsValid,2021.1.4,Win32,40.04485023,,,,,,,,,,,,,,,,,,,,,,,,,,,,,,,,,,,,,,,,,,,,,,,,,,,,,,,,,,,,,,,,,,,,,,,,,,,,,,,,,,,,,,,,,
,,1,4.9238,1,4.9238,0,7,7,9,1,176,cactus,tomato,,90115,001,2022-04-21_21h24.57.184,SPAMnetsValid,2021.1.4,Win32,40.04485023,,,,,,,,,,,,,,,,,,,,,,,,,,,,,,,,,,,,,,,,,,,,,,,,,,,,,,,,,,,,,,,,,,,,,,,,,,,,,,,,,,,,,,,,,
,,9,2.6688,9,2.6688,0,8,8,61,1,138,flower,rose,,90115,001,2022-04-21_21h24.57.184,SPAMnetsValid,2021.1.4,Win32,40.04485023,,,,,,,,,,,,,,,,,,,,,,,,,,,,,,,,,,,,,,,,,,,,,,,,,,,,,,,,,,,,,,,,,,,,,,,,,,,,,,,,,,,,,,,,,
,,1,2.5054,1,2.5054,0,9,9,49,1,152,cactus,strawberry,,90115,001,2022-04-21_21h24.57.184,SPAMnetsValid,2021.1.4,Win32,40.04485023,,,,,,,,,,,,,,,,,,,,,,,,,,,,,,,,,,,,,,,,,,,,,,,,,,,,,,,,,,,,,,,,,,,,,,,,,,,,,,,,,,,,,,,,,
,,6,2.6578,6,2.6578,0,10,10,35,1,147,cake,refrigerator,,90115,001,2022-04-21_21h24.57.184,SPAMnetsValid,2021.1.4,Win32,40.04485023,,,,,,,,,,,,,,,,,,,,,,,,,,,,,,,,,,,,,,,,,,,,,,,,,,,,,,,,,,,,,,,,,,,,,,,,,,,,,,,,,,,,,,,,,
,,3,2.8039,3,2.8039,0,11,11,2,1,174,cake,pretzel,,90115,001,2022-04-21_21h24.57.184,SPAMnetsValid,2021.1.4,Win32,40.04485023,,,,,,,,,,,,,,,,,,,,,,,,,,,,,,,,,,,,,,,,,,,,,,,,,,,,,,,,,,,,,,,,,,,,,,,,,,,,,,,,,,,,,,,,,
,,1,2.8278,1,2.8278,0,12,12,50,1,126,kitchen,tree,,90115,001,2022-04-21_21h24.57.184,SPAMnetsValid,2021.1.4,Win32,40.04485023,,,,,,,,,,,,,,,,,,,,,,,,,,,,,,,,,,,,,,,,,,,,,,,,,,,,,,,,,,,,,,,,,,,,,,,,,,,,,,,,,,,,,,,,,
,,1,2.227,1,2.227,0,13,13,32,1,182,flower,refrigerator,,90115,001,2022-04-21_21h24.57.184,SPAMnetsValid,2021.1.4,Win32,40.04485023,,,,,,,,,,,,,,,,,,,,,,,,,,,,,,,,,,,,,,,,,,,,,,,,,,,,,,,,,,,,,,,,,,,,,,,,,,,,,,,,,,,,,,,,,
,,4,2.8173,4,2.8173,0,14,14,89,1,140,cookie,refrigerator,,90115,001,2022-04-21_21h24.57.184,SPAMnetsValid,2021.1.4,Win32,40.04485023,,,,,,,,,,,,,,,,,,,,,,,,,,,,,,,,,,,,,,,,,,,,,,,,,,,,,,,,,,,,,,,,,,,,,,,,,,,,,,,,,,,,,,,,,
,,5,6.7951,5,6.7951,0,15,15,5,1,108,carrot,chocolate,,90115,001,2022-04-21_21h24.57.184,SPAMnetsValid,2021.1.4,Win32,40.04485023,,,,,,,,,,,,,,,,,,,,,,,,,,,,,,,,,,,,,,,,,,,,,,,,,,,,,,,,,,,,,,,,,,,,,,,,,,,,,,,,,,,,,,,,,
,,1,2.5186,1,2.5186,0,16,16,94,1,133,cake,flower,,90115,001,2022-04-21_21h24.57.184,SPAMnetsValid,2021.1.4,Win32,40.04485023,,,,,,,,,,,,,,,,,,,,,,,,,,,,,,,,,,,,,,,,,,,,,,,,,,,,,,,,,,,,,,,,,,,,,,,,,,,,,,,,,,,,,,,,,
,,1,1.9277,1,1.9277,0,17,17,63,1,137,microwave,tree,,90115,001,2022-04-21_21h24.57.184,SPAMnetsValid,2021.1.4,Win32,40.04485023,,,,,,,,,,,,,,,,,,,,,,,,,,,,,,,,,,,,,,,,,,,,,,,,,,,,,,,,,,,,,,,,,,,,,,,,,,,,,,,,,,,,,,,,,
,,1,2.0544,1,2.0544,0,18,18,84,1,130,microwave,yogurt,,90115,001,2022-04-21_21h24.57.184,SPAMnetsValid,2021.1.4,Win32,40.04485023,,,,,,,,,,,,,,,,,,,,,,,,,,,,,,,,,,,,,,,,,,,,,,,,,,,,,,,,,,,,,,,,,,,,,,,,,,,,,,,,,,,,,,,,,
,,5,3.6941,5,3.6941,0,19,19,8,1,97,chocolate,kitchen,,90115,001,2022-04-21_21h24.57.184,SPAMnetsValid,2021.1.4,Win32,40.04485023,,,,,,,,,,,,,,,,,,,,,,,,,,,,,,,,,,,,,,,,,,,,,,,,,,,,,,,,,,,,,,,,,,,,,,,,,,,,,,,,,,,,,,,,,
,,2,3.0068,2,3.0068,0,20,20,91,1,166,cake,yogurt,,90115,001,2022-04-21_21h24.57.184,SPAMnetsValid,2021.1.4,Win32,40.04485023,,,,,,,,,,,,,,,,,,,,,,,,,,,,,,,,,,,,,,,,,,,,,,,,,,,,,,,,,,,,,,,,,,,,,,,,,,,,,,,,,,,,,,,,,
,,1,1.6794,1,1.6794,0,21,21,68,1,180,tree,yogurt,,90115,001,2022-04-21_21h24.57.184,SPAMnetsValid,2021.1.4,Win32,40.04485023,,,,,,,,,,,,,,,,,,,,,,,,,,,,,,,,,,,,,,,,,,,,,,,,,,,,,,,,,,,,,,,,,,,,,,,,,,,,,,,,,,,,,,,,,
,,8,3.8994,8,3.8994,0,22,22,95,1,121,broom,microwave,,90115,001,2022-04-21_21h24.57.184,SPAMnetsValid,2021.1.4,Win32,40.04485023,,,,,,,,,,,,,,,,,,,,,,,,,,,,,,,,,,,,,,,,,,,,,,,,,,,,,,,,,,,,,,,,,,,,,,,,,,,,,,,,,,,,,,,,,
,,1,2.6136,1,2.6136,0,23,23,13,1,105,cactus,oven,,90115,001,2022-04-21_21h24.57.184,SPAMnetsValid,2021.1.4,Win32,40.04485023,,,,,,,,,,,,,,,,,,,,,,,,,,,,,,,,,,,,,,,,,,,,,,,,,,,,,,,,,,,,,,,,,,,,,,,,,,,,,,,,,,,,,,,,,
,,1,2.3764,1,2.3764,0,24,24,75,1,178,cactus,carrot,,90115,001,2022-04-21_21h24.57.184,SPAMnetsValid,2021.1.4,Win32,40.04485023,,,,,,,,,,,,,,,,,,,,,,,,,,,,,,,,,,,,,,,,,,,,,,,,,,,,,,,,,,,,,,,,,,,,,,,,,,,,,,,,,,,,,,,,,
,,9,2.8075,9,2.8075,0,25,25,45,1,179,broom,oven,,90115,001,2022-04-21_21h24.57.184,SPAMnetsValid,2021.1.4,Win32,40.04485023,,,,,,,,,,,,,,,,,,,,,,,,,,,,,,,,,,,,,,,,,,,,,,,,,,,,,,,,,,,,,,,,,,,,,,,,,,,,,,,,,,,,,,,,,
,,1,2.1471,1,2.1471,0,26,26,71,1,187,cactus,microwave,,90115,001,2022-04-21_21h24.57.184,SPAMnetsValid,2021.1.4,Win32,40.04485023,,,,,,,,,,,,,,,,,,,,,,,,,,,,,,,,,,,,,,,,,,,,,,,,,,,,,,,,,,,,,,,,,,,,,,,,,,,,,,,,,,,,,,,,,
,,5,3.0507,5,3.0507,0,27,27,82,1,98,pretzel,strawberry,,90115,001,2022-04-21_21h24.57.184,SPAMnetsValid,2021.1.4,Win32,40.04485023,,,,,,,,,,,,,,,,,,,,,,,,,,,,,,,,,,,,,,,,,,,,,,,,,,,,,,,,,,,,,,,,,,,,,,,,,,,,,,,,,,,,,,,,,
,,9,2.5756,9,2.5756,0,28,28,44,1,116,cake,chocolate,,90115,001,2022-04-21_21h24.57.184,SPAMnetsValid,2021.1.4,Win32,40.04485023,,,,,,,,,,,,,,,,,,,,,,,,,,,,,,,,,,,,,,,,,,,,,,,,,,,,,,,,,,,,,,,,,,,,,,,,,,,,,,,,,,,,,,,,,
,,1,2.2893,1,2.2893,0,29,29,57,1,127,cactus,chocolate,,90115,001,2022-04-21_21h24.57.184,SPAMnetsValid,2021.1.4,Win32,40.04485023,,,,,,,,,,,,,,,,,,,,,,,,,,,,,,,,,,,,,,,,,,,,,,,,,,,,,,,,,,,,,,,,,,,,,,,,,,,,,,,,,,,,,,,,,
,,9,3.6588,9,3.6588,0,30,30,27,1,158,cookie,oven,,90115,001,2022-04-21_21h24.57.184,SPAMnetsValid,2021.1.4,Win32,40.04485023,,,,,,,,,,,,,,,,,,,,,,,,,,,,,,,,,,,,,,,,,,,,,,,,,,,,,,,,,,,,,,,,,,,,,,,,,,,,,,,,,,,,,,,,,
,,9,1.4514,9,1.4514,0,31,31,10,1,118,chocolate,oven,,90115,001,2022-04-21_21h24.57.184,SPAMnetsValid,2021.1.4,Win32,40.04485023,,,,,,,,,,,,,,,,,,,,,,,,,,,,,,,,,,,,,,,,,,,,,,,,,,,,,,,,,,,,,,,,,,,,,,,,,,,,,,,,,,,,,,,,,
,,9,1.693,9,1.693,0,32,32,11,1,117,melon,strawberry,,90115,001,2022-04-21_21h24.57.184,SPAMnetsValid,2021.1.4,Win32,40.04485023,,,,,,,,,,,,,,,,,,,,,,,,,,,,,,,,,,,,,,,,,,,,,,,,,,,,,,,,,,,,,,,,,,,,,,,,,,,,,,,,,,,,,,,,,
,,9,1.5891,9,1.5891,0,33,33,48,1,186,kitchen,yogurt,,90115,001,2022-04-21_21h24.57.184,SPAMnetsValid,2021.1.4,Win32,40.04485023,,,,,,,,,,,,,,,,,,,,,,,,,,,,,,,,,,,,,,,,,,,,,,,,,,,,,,,,,,,,,,,,,,,,,,,,,,,,,,,,,,,,,,,,,
,,9,1.3184,9,1.3184,0,34,34,53,1,177,chocolate,strawberry,,90115,001,2022-04-21_21h24.57.184,SPAMnetsValid,2021.1.4,Win32,40.04485023,,,,,,,,,,,,,,,,,,,,,,,,,,,,,,,,,,,,,,,,,,,,,,,,,,,,,,,,,,,,,,,,,,,,,,,,,,,,,,,,,,,,,,,,,
,,3,3.3898,3,3.3898,0,35,35,37,1,139,carrot,strawberry,,90115,001,2022-04-21_21h24.57.184,SPAMnetsValid,2021.1.4,Win32,40.04485023,,,,,,,,,,,,,,,,,,,,,,,,,,,,,,,,,,,,,,,,,,,,,,,,,,,,,,,,,,,,,,,,,,,,,,,,,,,,,,,,,,,,,,,,,
,,3,1.4303,3,1.4303,0,36,36,41,1,175,melon,onion,,90115,001,2022-04-21_21h24.57.184,SPAMnetsValid,2021.1.4,Win32,40.04485023,,,,,,,,,,,,,,,,,,,,,,,,,,,,,,,,,,,,,,,,,,,,,,,,,,,,,,,,,,,,,,,,,,,,,,,,,,,,,,,,,,,,,,,,,
,,9,2.8636,9,2.8636,0,37,37,65,1,160,cookie,kitchen,,90115,001,2022-04-21_21h24.57.184,SPAMnetsValid,2021.1.4,Win32,40.04485023,,,,,,,,,,,,,,,,,,,,,,,,,,,,,,,,,,,,,,,,,,,,,,,,,,,,,,,,,,,,,,,,,,,,,,,,,,,,,,,,,,,,,,,,,
,,1,2.4974,1,2.4974,0,38,38,78,1,132,broom,tree,,90115,001,2022-04-21_21h24.57.184,SPAMnetsValid,2021.1.4,Win32,40.04485023,,,,,,,,,,,,,,,,,,,,,,,,,,,,,,,,,,,,,,,,,,,,,,,,,,,,,,,,,,,,,,,,,,,,,,,,,,,,,,,,,,,,,,,,,
,,7,2.9393,7,2.9393,0,39,39,72,1,181,carrot,kitchen,,90115,001,2022-04-21_21h24.57.184,SPAMnetsValid,2021.1.4,Win32,40.04485023,,,,,,,,,,,,,,,,,,,,,,,,,,,,,,,,,,,,,,,,,,,,,,,,,,,,,,,,,,,,,,,,,,,,,,,,,,,,,,,,,,,,,,,,,
,,1,4.3945,1,4.3945,0,40,40,88,1,171,cake,tomato,,90115,001,2022-04-21_21h24.57.184,SPAMnetsValid,2021.1.4,Win32,40.04485023,,,,,,,,,,,,,,,,,,,,,,,,,,,,,,,,,,,,,,,,,,,,,,,,,,,,,,,,,,,,,,,,,,,,,,,,,,,,,,,,,,,,,,,,,
,,5,3.1749,5,3.1749,0,41,41,70,1,141,melon,tomato,,90115,001,2022-04-21_21h24.57.184,SPAMnetsValid,2021.1.4,Win32,40.04485023,,,,,,,,,,,,,,,,,,,,,,,,,,,,,,,,,,,,,,,,,,,,,,,,,,,,,,,,,,,,,,,,,,,,,,,,,,,,,,,,,,,,,,,,,
,,1,3.7068,1,3.7068,0,42,42,4,1,109,broom,strawberry,,90115,001,2022-04-21_21h24.57.184,SPAMnetsValid,2021.1.4,Win32,40.04485023,,,,,,,,,,,,,,,,,,,,,,,,,,,,,,,,,,,,,,,,,,,,,,,,,,,,,,,,,,,,,,,,,,,,,,,,,,,,,,,,,,,,,,,,,
,,5,3.8751,5,3.8751,0,43,43,34,1,153,carrot,pretzel,,90115,001,2022-04-21_21h24.57.184,SPAMnetsValid,2021.1.4,Win32,40.04485023,,,,,,,,,,,,,,,,,,,,,,,,,,,,,,,,,,,,,,,,,,,,,,,,,,,,,,,,,,,,,,,,,,,,,,,,,,,,,,,,,,,,,,,,,
,,9,4.6017,9,4.6017,0,44,44,86,1,193,melon,melon,CHECK,90115,001,2022-04-21_21h24.57.184,SPAMnetsValid,2021.1.4,Win32,40.04485023,,,,,,,,,,,,,,,,,,,,,,,,,,,,,,,,,,,,,,,,,,,,,,,,,,,,,,,,,,,,,,,,,,,,,,,,,,,,,,,,,,,,,,,,,
,,1,2.098,1,2.098,0,45,45,23,1,148,flower,melon,,90115,001,2022-04-21_21h24.57.184,SPAMnetsValid,2021.1.4,Win32,40.04485023,,,,,,,,,,,,,,,,,,,,,,,,,,,,,,,,,,,,,,,,,,,,,,,,,,,,,,,,,,,,,,,,,,,,,,,,,,,,,,,,,,,,,,,,,
,,9,2.5563,9,2.5563,0,46,46,85,1,115,refrigerator,tomato,,90115,001,2022-04-21_21h24.57.184,SPAMnetsValid,2021.1.4,Win32,40.04485023,,,,,,,,,,,,,,,,,,,,,,,,,,,,,,,,,,,,,,,,,,,,,,,,,,,,,,,,,,,,,,,,,,,,,,,,,,,,,,,,,,,,,,,,,
,,9,1.2873,9,1.2873,0,47,47,87,1,114,cookie,strawberry,,90115,001,2022-04-21_21h24.57.184,SPAMnetsValid,2021.1.4,Win32,40.04485023,,,,,,,,,,,,,,,,,,,,,,,,,,,,,,,,,,,,,,,,,,,,,,,,,,,,,,,,,,,,,,,,,,,,,,,,,,,,,,,,,,,,,,,,,
,,1,2.4178,1,2.4178,0,48,48,30,1,125,carrot,tree,,90115,001,2022-04-21_21h24.57.184,SPAMnetsValid,2021.1.4,Win32,40.04485023,,,,,,,,,,,,,,,,,,,,,,,,,,,,,,,,,,,,,,,,,,,,,,,,,,,,,,,,,,,,,,,,,,,,,,,,,,,,,,,,,,,,,,,,,
,,1,1.9824,1,1.9824,0,49,49,31,1,156,melon,rose,,90115,001,2022-04-21_21h24.57.184,SPAMnetsValid,2021.1.4,Win32,40.04485023,,,,,,,,,,,,,,,,,,,,,,,,,,,,,,,,,,,,,,,,,,,,,,,,,,,,,,,,,,,,,,,,,,,,,,,,,,,,,,,,,,,,,,,,,
,,1,1.9869,1,1.9869,0,50,50,74,1,128,melon,microwave,,90115,001,2022-04-21_21h24.57.184,SPAMnetsValid,2021.1.4,Win32,40.04485023,,,,,,,,,,,,,,,,,,,,,,,,,,,,,,,,,,,,,,,,,,,,,,,,,,,,,,,,,,,,,,,,,,,,,,,,,,,,,,,,,,,,,,,,,
,,4,3.1656,4,3.1656,0,51,51,12,1,162,microwave,tomato,,90115,001,2022-04-21_21h24.57.184,SPAMnetsValid,2021.1.4,Win32,40.04485023,,,,,,,,,,,,,,,,,,,,,,,,,,,,,,,,,,,,,,,,,,,,,,,,,,,,,,,,,,,,,,,,,,,,,,,,,,,,,,,,,,,,,,,,,
,,9,3.3438,9,3.3438,0,52,52,17,1,99,garden,melon,,90115,001,2022-04-21_21h24.57.184,SPAMnetsValid,2021.1.4,Win32,40.04485023,,,,,,,,,,,,,,,,,,,,,,,,,,,,,,,,,,,,,,,,,,,,,,,,,,,,,,,,,,,,,,,,,,,,,,,,,,,,,,,,,,,,,,,,,
,,9,2.1671,9,2.1671,0,53,53,56,1,113,refrigerator,strawberry,,90115,001,2022-04-21_21h24.57.184,SPAMnetsValid,2021.1.4,Win32,40.04485023,,,,,,,,,,,,,,,,,,,,,,,,,,,,,,,,,,,,,,,,,,,,,,,,,,,,,,,,,,,,,,,,,,,,,,,,,,,,,,,,,,,,,,,,,
,,2,4.5523,2,4.5523,0,54,54,92,1,170,cookie,microwave,,90115,001,2022-04-21_21h24.57.184,SPAMnetsValid,2021.1.4,Win32,40.04485023,,,,,,,,,,,,,,,,,,,,,,,,,,,,,,,,,,,,,,,,,,,,,,,,,,,,,,,,,,,,,,,,,,,,,,,,,,,,,,,,,,,,,,,,,
,,1,1.7814,1,1.7814,0,55,55,18,1,119,strawberry,tree,,90115,001,2022-04-21_21h24.57.184,SPAMnetsValid,2021.1.4,Win32,40.04485023,,,,,,,,,,,,,,,,,,,,,,,,,,,,,,,,,,,,,,,,,,,,,,,,,,,,,,,,,,,,,,,,,,,,,,,,,,,,,,,,,,,,,,,,,
,,1,2.4665,1,2.4665,0,56,56,58,1,144,cake,garden,,90115,001,2022-04-21_21h24.57.184,SPAMnetsValid,2021.1.4,Win32,40.04485023,,,,,,,,,,,,,,,,,,,,,,,,,,,,,,,,,,,,,,,,,,,,,,,,,,,,,,,,,,,,,,,,,,,,,,,,,,,,,,,,,,,,,,,,,
,,1,1.4599,1,1.4599,0,57,57,59,1,164,cookie,garden,,90115,001,2022-04-21_21h24.57.184,SPAMnetsValid,2021.1.4,Win32,40.04485023,,,,,,,,,,,,,,,,,,,,,,,,,,,,,,,,,,,,,,,,,,,,,,,,,,,,,,,,,,,,,,,,,,,,,,,,,,,,,,,,,,,,,,,,,
,,9,3.1245,9,3.1245,0,58,58,66,1,150,microwave,refrigerator,,90115,001,2022-04-21_21h24.57.184,SPAMnetsValid,2021.1.4,Win32,40.04485023,,,,,,,,,,,,,,,,,,,,,,,,,,,,,,,,,,,,,,,,,,,,,,,,,,,,,,,,,,,,,,,,,,,,,,,,,,,,,,,,,,,,,,,,,
,,2,3.3556,2,3.3556,0,59,59,64,1,157,refrigerator,rose,,90115,001,2022-04-21_21h24.57.184,SPAMnetsValid,2021.1.4,Win32,40.04485023,,,,,,,,,,,,,,,,,,,,,,,,,,,,,,,,,,,,,,,,,,,,,,,,,,,,,,,,,,,,,,,,,,,,,,,,,,,,,,,,,,,,,,,,,
,,9,2.3995,9,2.3995,0,60,60,60,1,122,flower,garden,,90115,001,2022-04-21_21h24.57.184,SPAMnetsValid,2021.1.4,Win32,40.04485023,,,,,,,,,,,,,,,,,,,,,,,,,,,,,,,,,,,,,,,,,,,,,,,,,,,,,,,,,,,,,,,,,,,,,,,,,,,,,,,,,,,,,,,,,
,,1,2.3301,1,2.3301,0,61,61,20,1,149,broom,tomato,,90115,001,2022-04-21_21h24.57.184,SPAMnetsValid,2021.1.4,Win32,40.04485023,,,,,,,,,,,,,,,,,,,,,,,,,,,,,,,,,,,,,,,,,,,,,,,,,,,,,,,,,,,,,,,,,,,,,,,,,,,,,,,,,,,,,,,,,
,,9,2.4847,9,2.4847,0,62,62,7,1,188,flower,tree,,90115,001,2022-04-21_21h24.57.184,SPAMnetsValid,2021.1.4,Win32,40.04485023,,,,,,,,,,,,,,,,,,,,,,,,,,,,,,,,,,,,,,,,,,,,,,,,,,,,,,,,,,,,,,,,,,,,,,,,,,,,,,,,,,,,,,,,,
,,9,1.5642,9,1.5642,0,63,63,51,1,168,cactus,flower,,90115,001,2022-04-21_21h24.57.184,SPAMnetsValid,2021.1.4,Win32,40.04485023,,,,,,,,,,,,,,,,,,,,,,,,,,,,,,,,,,,,,,,,,,,,,,,,,,,,,,,,,,,,,,,,,,,,,,,,,,,,,,,,,,,,,,,,,
,,1,2.0882,1,2.0882,0,64,64,80,1,146,pretzel,tree,,90115,001,2022-04-21_21h24.57.184,SPAMnetsValid,2021.1.4,Win32,40.04485023,,,,,,,,,,,,,,,,,,,,,,,,,,,,,,,,,,,,,,,,,,,,,,,,,,,,,,,,,,,,,,,,,,,,,,,,,,,,,,,,,,,,,,,,,
,,1,2.7993,1,2.7993,0,65,65,16,1,111,carrot,microwave,,90115,001,2022-04-21_21h24.57.184,SPAMnetsValid,2021.1.4,Win32,40.04485023,,,,,,,,,,,,,,,,,,,,,,,,,,,,,,,,,,,,,,,,,,,,,,,,,,,,,,,,,,,,,,,,,,,,,,,,,,,,,,,,,,,,,,,,,
,,1,1.4981,1,1.4981,0,66,66,24,1,169,onion,yogurt,,90115,001,2022-04-21_21h24.57.184,SPAMnetsValid,2021.1.4,Win32,40.04485023,,,,,,,,,,,,,,,,,,,,,,,,,,,,,,,,,,,,,,,,,,,,,,,,,,,,,,,,,,,,,,,,,,,,,,,,,,,,,,,,,,,,,,,,,
,,1,1.5687,1,1.5687,0,67,67,19,1,183,cake,rose,,90115,001,2022-04-21_21h24.57.184,SPAMnetsValid,2021.1.4,Win32,40.04485023,,,,,,,,,,,,,,,,,,,,,,,,,,,,,,,,,,,,,,,,,,,,,,,,,,,,,,,,,,,,,,,,,,,,,,,,,,,,,,,,,,,,,,,,,
,,9,2.99,9,2.99,0,68,68,39,1,112,cake,carrot,,90115,001,2022-04-21_21h24.57.184,SPAMnetsValid,2021.1.4,Win32,40.04485023,,,,,,,,,,,,,,,,,,,,,,,,,,,,,,,,,,,,,,,,,,,,,,,,,,,,,,,,,,,,,,,,,,,,,,,,,,,,,,,,,,,,,,,,,
,,1,1.9322,1,1.9322,0,69,69,15,1,145,cactus,yogurt,,90115,001,2022-04-21_21h24.57.184,SPAMnetsValid,2021.1.4,Win32,40.04485023,,,,,,,,,,,,,,,,,,,,,,,,,,,,,,,,,,,,,,,,,,,,,,,,,,,,,,,,,,,,,,,,,,,,,,,,,,,,,,,,,,,,,,,,,
,,9,3.6166,9,3.6166,0,70,70,14,1,120,microwave,oven,,90115,001,2022-04-21_21h24.57.184,SPAMnetsValid,2021.1.4,Win32,40.04485023,,,,,,,,,,,,,,,,,,,,,,,,,,,,,,,,,,,,,,,,,,,,,,,,,,,,,,,,,,,,,,,,,,,,,,,,,,,,,,,,,,,,,,,,,
,,1,3.3747,1,3.3747,0,71,71,81,1,104,garden,microwave,,90115,001,2022-04-21_21h24.57.184,SPAMnetsValid,2021.1.4,Win32,40.04485023,,,,,,,,,,,,,,,,,,,,,,,,,,,,,,,,,,,,,,,,,,,,,,,,,,,,,,,,,,,,,,,,,,,,,,,,,,,,,,,,,,,,,,,,,
,,7,4.0519,7,4.0519,0,72,72,1,1,173,kitchen,tomato,,90115,001,2022-04-21_21h24.57.184,SPAMnetsValid,2021.1.4,Win32,40.04485023,,,,,,,,,,,,,,,,,,,,,,,,,,,,,,,,,,,,,,,,,,,,,,,,,,,,,,,,,,,,,,,,,,,,,,,,,,,,,,,,,,,,,,,,,
,,1,2.4078,1,2.4078,0,73,73,26,1,107,rose,tomato,,90115,001,2022-04-21_21h24.57.184,SPAMnetsValid,2021.1.4,Win32,40.04485023,,,,,,,,,,,,,,,,,,,,,,,,,,,,,,,,,,,,,,,,,,,,,,,,,,,,,,,,,,,,,,,,,,,,,,,,,,,,,,,,,,,,,,,,,
,,9,2.7622,9,2.7622,0,74,74,25,1,194,cactus,cactus,CHECK,90115,001,2022-04-21_21h24.57.184,SPAMnetsValid,2021.1.4,Win32,40.04485023,,,,,,,,,,,,,,,,,,,,,,,,,,,,,,,,,,,,,,,,,,,,,,,,,,,,,,,,,,,,,,,,,,,,,,,,,,,,,,,,,,,,,,,,,
,,1,1.9865,1,1.9865,0,75,75,43,1,185,cactus,rose,,90115,001,2022-04-21_21h24.57.184,SPAMnetsValid,2021.1.4,Win32,40.04485023,,,,,,,,,,,,,,,,,,,,,,,,,,,,,,,,,,,,,,,,,,,,,,,,,,,,,,,,,,,,,,,,,,,,,,,,,,,,,,,,,,,,,,,,,
,,9,2.4364,9,2.4364,0,76,76,22,1,142,garden,tree,,90115,001,2022-04-21_21h24.57.184,SPAMnetsValid,2021.1.4,Win32,40.04485023,,,,,,,,,,,,,,,,,,,,,,,,,,,,,,,,,,,,,,,,,,,,,,,,,,,,,,,,,,,,,,,,,,,,,,,,,,,,,,,,,,,,,,,,,
,,1,2.4766,1,2.4766,0,77,77,40,1,165,onion,rose,,90115,001,2022-04-21_21h24.57.184,SPAMnetsValid,2021.1.4,Win32,40.04485023,,,,,,,,,,,,,,,,,,,,,,,,,,,,,,,,,,,,,,,,,,,,,,,,,,,,,,,,,,,,,,,,,,,,,,,,,,,,,,,,,,,,,,,,,
,,1,1.9773,1,1.9773,0,78,78,3,1,129,cactus,refrigerator,,90115,001,2022-04-21_21h24.57.184,SPAMnetsValid,2021.1.4,Win32,40.04485023,,,,,,,,,,,,,,,,,,,,,,,,,,,,,,,,,,,,,,,,,,,,,,,,,,,,,,,,,,,,,,,,,,,,,,,,,,,,,,,,,,,,,,,,,
,,1,1.6073,1,1.6073,0,79,79,55,1,143,pretzel,rose,,90115,001,2022-04-21_21h24.57.184,SPAMnetsValid,2021.1.4,Win32,40.04485023,,,,,,,,,,,,,,,,,,,,,,,,,,,,,,,,,,,,,,,,,,,,,,,,,,,,,,,,,,,,,,,,,,,,,,,,,,,,,,,,,,,,,,,,,
,,1,1.3631,1,1.3631,0,80,80,46,1,123,cookie,tree,,90115,001,2022-04-21_21h24.57.184,SPAMnetsValid,2021.1.4,Win32,40.04485023,,,,,,,,,,,,,,,,,,,,,,,,,,,,,,,,,,,,,,,,,,,,,,,,,,,,,,,,,,,,,,,,,,,,,,,,,,,,,,,,,,,,,,,,,
,,9,3.3274,9,3.3274,0,81,81,47,1,167,carrot,garden,,90115,001,2022-04-21_21h24.57.184,SPAMnetsValid,2021.1.4,Win32,40.04485023,,,,,,,,,,,,,,,,,,,,,,,,,,,,,,,,,,,,,,,,,,,,,,,,,,,,,,,,,,,,,,,,,,,,,,,,,,,,,,,,,,,,,,,,,
,,1,1.9712,1,1.9712,0,82,82,54,1,101,cactus,kitchen,,90115,001,2022-04-21_21h24.57.184,SPAMnetsValid,2021.1.4,Win32,40.04485023,,,,,,,,,,,,,,,,,,,,,,,,,,,,,,,,,,,,,,,,,,,,,,,,,,,,,,,,,,,,,,,,,,,,,,,,,,,,,,,,,,,,,,,,,
,,8,2.439,8,2.439,0,83,83,29,1,163,melon,refrigerator,,90115,001,2022-04-21_21h24.57.184,SPAMnetsValid,2021.1.4,Win32,40.04485023,,,,,,,,,,,,,,,,,,,,,,,,,,,,,,,,,,,,,,,,,,,,,,,,,,,,,,,,,,,,,,,,,,,,,,,,,,,,,,,,,,,,,,,,,
,,9,2.3857,9,2.3857,0,84,84,69,1,124,oven,refrigerator,,90115,001,2022-04-21_21h24.57.184,SPAMnetsValid,2021.1.4,Win32,40.04485023,,,,,,,,,,,,,,,,,,,,,,,,,,,,,,,,,,,,,,,,,,,,,,,,,,,,,,,,,,,,,,,,,,,,,,,,,,,,,,,,,,,,,,,,,
,,9,2.4662,9,2.4662,0,85,85,28,1,154,strawberry,yogurt,,90115,001,2022-04-21_21h24.57.184,SPAMnetsValid,2021.1.4,Win32,40.04485023,,,,,,,,,,,,,,,,,,,,,,,,,,,,,,,,,,,,,,,,,,,,,,,,,,,,,,,,,,,,,,,,,,,,,,,,,,,,,,,,,,,,,,,,,
,,1,2.1668,1,2.1668,0,86,86,67,1,96,oven,strawberry,,90115,001,2022-04-21_21h24.57.184,SPAMnetsValid,2021.1.4,Win32,40.04485023,,,,,,,,,,,,,,,,,,,,,,,,,,,,,,,,,,,,,,,,,,,,,,,,,,,,,,,,,,,,,,,,,,,,,,,,,,,,,,,,,,,,,,,,,
,,9,2.9514,9,2.9514,0,87,87,0,1,106,cake,strawberry,,90115,001,2022-04-21_21h24.57.184,SPAMnetsValid,2021.1.4,Win32,40.04485023,,,,,,,,,,,,,,,,,,,,,,,,,,,,,,,,,,,,,,,,,,,,,,,,,,,,,,,,,,,,,,,,,,,,,,,,,,,,,,,,,,,,,,,,,
,,8,2.4029,8,2.4029,0,88,88,77,1,172,kitchen,melon,,90115,001,2022-04-21_21h24.57.184,SPAMnetsValid,2021.1.4,Win32,40.04485023,,,,,,,,,,,,,,,,,,,,,,,,,,,,,,,,,,,,,,,,,,,,,,,,,,,,,,,,,,,,,,,,,,,,,,,,,,,,,,,,,,,,,,,,,
,,1,2.209,1,2.209,0,89,89,21,1,159,cookie,flower,,90115,001,2022-04-21_21h24.57.184,SPAMnetsValid,2021.1.4,Win32,40.04485023,,,,,,,,,,,,,,,,,,,,,,,,,,,,,,,,,,,,,,,,,,,,,,,,,,,,,,,,,,,,,,,,,,,,,,,,,,,,,,,,,,,,,,,,,
,,1,1.6352,1,1.6352,0,90,90,93,1,134,carrot,flower,,90115,001,2022-04-21_21h24.57.184,SPAMnetsValid,2021.1.4,Win32,40.04485023,,,,,,,,,,,,,,,,,,,,,,,,,,,,,,,,,,,,,,,,,,,,,,,,,,,,,,,,,,,,,,,,,,,,,,,,,,,,,,,,,,,,,,,,,
,,1,1.389,1,1.389,0,91,91,62,1,189,onion,tree,,90115,001,2022-04-21_21h24.57.184,SPAMnetsValid,2021.1.4,Win32,40.04485023,,,,,,,,,,,,,,,,,,,,,,,,,,,,,,,,,,,,,,,,,,,,,,,,,,,,,,,,,,,,,,,,,,,,,,,,,,,,,,,,,,,,,,,,,
,,4,3.1663,4,3.1663,0,92,92,79,1,103,pretzel,tomato,,90115,001,2022-04-21_21h24.57.184,SPAMnetsValid,2021.1.4,Win32,40.04485023,,,,,,,,,,,,,,,,,,,,,,,,,,,,,,,,,,,,,,,,,,,,,,,,,,,,,,,,,,,,,,,,,,,,,,,,,,,,,,,,,,,,,,,,,
,,7,2.7431,7,2.7431,0,93,93,42,1,184,oven,pretzel,,90115,001,2022-04-21_21h24.57.184,SPAMnetsValid,2021.1.4,Win32,40.04485023,,,,,,,,,,,,,,,,,,,,,,,,,,,,,,,,,,,,,,,,,,,,,,,,,,,,,,,,,,,,,,,,,,,,,,,,,,,,,,,,,,,,,,,,,
,,5,2.2427,5,2.2427,0,94,94,73,1,135,carrot,oven,,90115,001,2022-04-21_21h24.57.184,SPAMnetsValid,2021.1.4,Win32,40.04485023,,,,,,,,,,,,,,,,,,,,,,,,,,,,,,,,,,,,,,,,,,,,,,,,,,,,,,,,,,,,,,,,,,,,,,,,,,,,,,,,,,,,,,,,,
,,8,2.615,8,2.615,0,95,95,76,1,102,chocolate,refrigerator,,90115,001,2022-04-21_21h24.57.184,SPAMnetsValid,2021.1.4,Win32,40.04485023,,,,,,,,,,,,,,,,,,,,,,,,,,,,,,,,,,,,,,,,,,,,,,,,,,,,,,,,,,,,,,,,,,,,,,,,,,,,,,,,,,,,,,,,,
,,8,2.8034,8,2.8034,0,96,96,36,1,161,kitchen,pretzel,,90115,001,2022-04-21_21h24.57.184,SPAMnetsValid,2021.1.4,Win32,40.04485023,,,,,,,,,,,,,,,,,,,,,,,,,,,,,,,,,,,,,,,,,,,,,,,,,,,,,,,,,,,,,,,,,,,,,,,,,,,,,,,,,,,,,,,,,
,,,,,,,,,,,,,,,90115,001,2022-04-21_21h24.57.184,SPAMnetsValid,2021.1.4,Win32,40.04485023,0,0,0,0,1,,,,,,,,,,,,,,,,,,,,,,,,,,,,,,,,,,,,,,,,,,,,,,,,,,,,,,,,,,,,,,,,,,,,,,,,,,,,,,,,,,,,
,,,,,,,,,,,,,,,90115,001,2022-04-21_21h24.57.184,SPAMnetsValid,2021.1.4,Win32,40.04485023,,,,,,0,0,0,1,1,0,1,,,,,,,,,,,,,,,,,,,,,,,,,,,,,,,,,,,,,,,,,,,,,,,,,,,,,,,,,,,,,,,,,,,,,,,,,,,,,
,,,,9,6.397,,,,,,6,garden,onion,,90115,001,2022-04-21_21h24.57.184,SPAMnetsValid,2021.1.4,Win32,40.04485023,,,,,,,,,,,,,9,6.397,0,0,0,83,1,,,,,,,,,,,,,,,,,,,,,,,,,,,,,,,,,,,,,,,,,,,,,,,,,,,,,,,,,,,,,,,,,,,,,,
,,,,1,7.1046,,,,,,56,cactus,tree,,90115,001,2022-04-21_21h24.57.184,SPAMnetsValid,2021.1.4,Win32,40.04485023,,,,,,,,,,,,,1,7.1046,0,1,1,21,1,,,,,,,,,,,,,,,,,,,,,,,,,,,,,,,,,,,,,,,,,,,,,,,,,,,,,,,,,,,,,,,,,,,,,,
,,,,1,1.4029,,,,,,88,cactus,melon,,90115,001,2022-04-21_21h24.57.184,SPAMnetsValid,2021.1.4,Win32,40.04485023,,,,,,,,,,,,,1,1.4029,0,2,2,38,1,,,,,,,,,,,,,,,,,,,,,,,,,,,,,,,,,,,,,,,,,,,,,,,,,,,,,,,,,,,,,,,,,,,,,,
,,,,8,3.4384,,,,,,3,cake,oven,,90115,001,2022-04-21_21h24.57.184,SPAMnetsValid,2021.1.4,Win32,40.04485023,,,,,,,,,,,,,8,3.4384,0,3,3,30,1,,,,,,,,,,,,,,,,,,,,,,,,,,,,,,,,,,,,,,,,,,,,,,,,,,,,,,,,,,,,,,,,,,,,,,
,,,,9,1.5528,,,,,,9,kitchen,refrigerator,,90115,001,2022-04-21_21h24.57.184,SPAMnetsValid,2021.1.4,Win32,40.04485023,,,,,,,,,,,,,9,1.5528,0,4,4,64,1,,,,,,,,,,,,,,,,,,,,,,,,,,,,,,,,,,,,,,,,,,,,,,,,,,,,,,,,,,,,,,,,,,,,,,
,,,,1,2.4226,,,,,,29,chocolate,melon,,90115,001,2022-04-21_21h24.57.184,SPAMnetsValid,2021.1.4,Win32,40.04485023,,,,,,,,,,,,,1,2.4226,0,5,5,34,1,,,,,,,,,,,,,,,,,,,,,,,,,,,,,,,,,,,,,,,,,,,,,,,,,,,,,,,,,,,,,,,,,,,,,,
,,,,1,1.0938,,,,,,91,microwave,rose,,90115,001,2022-04-21_21h24.57.184,SPAMnetsValid,2021.1.4,Win32,40.04485023,,,,,,,,,,,,,1,1.0938,0,6,6,84,1,,,,,,,,,,,,,,,,,,,,,,,,,,,,,,,,,,,,,,,,,,,,,,,,,,,,,,,,,,,,,,,,,,,,,,
,,,,6,2.7222,,,,,,2,kitchen,onion,,90115,001,2022-04-21_21h24.57.184,SPAMnetsValid,2021.1.4,Win32,40.04485023,,,,,,,,,,,,,6,2.7222,0,7,7,91,1,,,,,,,,,,,,,,,,,,,,,,,,,,,,,,,,,,,,,,,,,,,,,,,,,,,,,,,,,,,,,,,,,,,,,,
,,,,1,1.788,,,,,,14,broom,cookie,,90115,001,2022-04-21_21h24.57.184,SPAMnetsValid,2021.1.4,Win32,40.04485023,,,,,,,,,,,,,1,1.788,0,8,8,16,1,,,,,,,,,,,,,,,,,,,,,,,,,,,,,,,,,,,,,,,,,,,,,,,,,,,,,,,,,,,,,,,,,,,,,,
,,,,1,2.6799,,,,,,15,onion,oven,,90115,001,2022-04-21_21h24.57.184,SPAMnetsValid,2021.1.4,Win32,40.04485023,,,,,,,,,,,,,1,2.6799,0,9,9,39,1,,,,,,,,,,,,,,,,,,,,,,,,,,,,,,,,,,,,,,,,,,,,,,,,,,,,,,,,,,,,,,,,,,,,,,
,,,,1,1.3403,,,,,,84,oven,tomato,,90115,001,2022-04-21_21h24.57.184,SPAMnetsValid,2021.1.4,Win32,40.04485023,,,,,,,,,,,,,1,1.3403,0,10,10,28,1,,,,,,,,,,,,,,,,,,,,,,,,,,,,,,,,,,,,,,,,,,,,,,,,,,,,,,,,,,,,,,,,,,,,,,
,,,,9,2.777,,,,,,17,carrot,melon,,90115,001,2022-04-21_21h24.57.184,SPAMnetsValid,2021.1.4,Win32,40.04485023,,,,,,,,,,,,,9,2.777,0,11,11,24,1,,,,,,,,,,,,,,,,,,,,,,,,,,,,,,,,,,,,,,,,,,,,,,,,,,,,,,,,,,,,,,,,,,,,,,
,,,,1,2.2378,,,,,,21,cake,onion,,90115,001,2022-04-21_21h24.57.184,SPAMnetsValid,2021.1.4,Win32,40.04485023,,,,,,,,,,,,,1,2.2378,0,12,12,63,1,,,,,,,,,,,,,,,,,,,,,,,,,,,,,,,,,,,,,,,,,,,,,,,,,,,,,,,,,,,,,,,,,,,,,,
,,,,1,3.7501,,,,,,26,tomato,yogurt,,90115,001,2022-04-21_21h24.57.184,SPAMnetsValid,2021.1.4,Win32,40.04485023,,,,,,,,,,,,,1,3.7501,0,13,13,13,1,,,,,,,,,,,,,,,,,,,,,,,,,,,,,,,,,,,,,,,,,,,,,,,,,,,,,,,,,,,,,,,,,,,,,,
,,,,1,2.6513,,,,,,16,chocolate,flower,,90115,001,2022-04-21_21h24.57.184,SPAMnetsValid,2021.1.4,Win32,40.04485023,,,,,,,,,,,,,1,2.6513,0,14,14,22,1,,,,,,,,,,,,,,,,,,,,,,,,,,,,,,,,,,,,,,,,,,,,,,,,,,,,,,,,,,,,,,,,,,,,,,
,,,,1,1.4662,,,,,,78,cookie,rose,,90115,001,2022-04-21_21h24.57.184,SPAMnetsValid,2021.1.4,Win32,40.04485023,,,,,,,,,,,,,1,1.4662,0,15,15,56,1,,,,,,,,,,,,,,,,,,,,,,,,,,,,,,,,,,,,,,,,,,,,,,,,,,,,,,,,,,,,,,,,,,,,,,
,,,,1,1.214,,,,,,40,broom,cake,,90115,001,2022-04-21_21h24.57.184,SPAMnetsValid,2021.1.4,Win32,40.04485023,,,,,,,,,,,,,1,1.214,0,16,16,32,1,,,,,,,,,,,,,,,,,,,,,,,,,,,,,,,,,,,,,,,,,,,,,,,,,,,,,,,,,,,,,,,,,,,,,,
,,,,1,1.1737,,,,,,62,kitchen,rose,,90115,001,2022-04-21_21h24.57.184,SPAMnetsValid,2021.1.4,Win32,40.04485023,,,,,,,,,,,,,1,1.1737,0,17,17,57,1,,,,,,,,,,,,,,,,,,,,,,,,,,,,,,,,,,,,,,,,,,,,,,,,,,,,,,,,,,,,,,,,,,,,,,
,,,,1,2.0897,,,,,,38,pretzel,refrigerator,,90115,001,2022-04-21_21h24.57.184,SPAMnetsValid,2021.1.4,Win32,40.04485023,,,,,,,,,,,,,1,2.0897,0,18,18,71,1,,,,,,,,,,,,,,,,,,,,,,,,,,,,,,,,,,,,,,,,,,,,,,,,,,,,,,,,,,,,,,,,,,,,,,
,,,,1,1.6895,,,,,,58,garden,oven,,90115,001,2022-04-21_21h24.57.184,SPAMnetsValid,2021.1.4,Win32,40.04485023,,,,,,,,,,,,,1,1.6895,0,19,19,37,1,,,,,,,,,,,,,,,,,,,,,,,,,,,,,,,,,,,,,,,,,,,,,,,,,,,,,,,,,,,,,,,,,,,,,,
,,,,1,1.7044,,,,,,27,cactus,cookie,,90115,001,2022-04-21_21h24.57.184,SPAMnetsValid,2021.1.4,Win32,40.04485023,,,,,,,,,,,,,1,1.7044,0,20,20,17,1,,,,,,,,,,,,,,,,,,,,,,,,,,,,,,,,,,,,,,,,,,,,,,,,,,,,,,,,,,,,,,,,,,,,,,
,,,,8,2.3549,,,,,,66,melon,yogurt,,90115,001,2022-04-21_21h24.57.184,SPAMnetsValid,2021.1.4,Win32,40.04485023,,,,,,,,,,,,,8,2.3549,0,21,21,48,1,,,,,,,,,,,,,,,,,,,,,,,,,,,,,,,,,,,,,,,,,,,,,,,,,,,,,,,,,,,,,,,,,,,,,,
,,,,6,2.4377,,,,,,87,carrot,yogurt,,90115,001,2022-04-21_21h24.57.184,SPAMnetsValid,2021.1.4,Win32,40.04485023,,,,,,,,,,,,,6,2.4377,0,22,22,6,1,,,,,,,,,,,,,,,,,,,,,,,,,,,,,,,,,,,,,,,,,,,,,,,,,,,,,,,,,,,,,,,,,,,,,,
,,,,1,2.3314,,,,,,90,cactus,cake,,90115,001,2022-04-21_21h24.57.184,SPAMnetsValid,2021.1.4,Win32,40.04485023,,,,,,,,,,,,,1,2.3314,0,23,23,85,1,,,,,,,,,,,,,,,,,,,,,,,,,,,,,,,,,,,,,,,,,,,,,,,,,,,,,,,,,,,,,,,,,,,,,,
,,,,6,2.2222,,,,,,69,carrot,refrigerator,,90115,001,2022-04-21_21h24.57.184,SPAMnetsValid,2021.1.4,Win32,40.04485023,,,,,,,,,,,,,6,2.2222,0,24,24,75,1,,,,,,,,,,,,,,,,,,,,,,,,,,,,,,,,,,,,,,,,,,,,,,,,,,,,,,,,,,,,,,,,,,,,,,
,,,,7,2.8545,,,,,,20,rose,tree,,90115,001,2022-04-21_21h24.57.184,SPAMnetsValid,2021.1.4,Win32,40.04485023,,,,,,,,,,,,,7,2.8545,0,25,25,66,1,,,,,,,,,,,,,,,,,,,,,,,,,,,,,,,,,,,,,,,,,,,,,,,,,,,,,,,,,,,,,,,,,,,,,,
,,,,1,2.0529,,,,,,43,chocolate,tomato,,90115,001,2022-04-21_21h24.57.184,SPAMnetsValid,2021.1.4,Win32,40.04485023,,,,,,,,,,,,,1,2.0529,0,26,26,8,1,,,,,,,,,,,,,,,,,,,,,,,,,,,,,,,,,,,,,,,,,,,,,,,,,,,,,,,,,,,,,,,,,,,,,,
,,,,9,2.2378,,,,,,191,cake,cake,CHECK,90115,001,2022-04-21_21h24.57.184,SPAMnetsValid,2021.1.4,Win32,40.04485023,,,,,,,,,,,,,9,2.2378,0,27,27,10,1,,,,,,,,,,,,,,,,,,,,,,,,,,,,,,,,,,,,,,,,,,,,,,,,,,,,,,,,,,,,,,,,,,,,,,
,,,,2,2.2699,,,,,,5,oven,tree,,90115,001,2022-04-21_21h24.57.184,SPAMnetsValid,2021.1.4,Win32,40.04485023,,,,,,,,,,,,,2,2.2699,0,28,28,70,1,,,,,,,,,,,,,,,,,,,,,,,,,,,,,,,,,,,,,,,,,,,,,,,,,,,,,,,,,,,,,,,,,,,,,,
,,,,9,2.3399,,,,,,79,garden,strawberry,,90115,001,2022-04-21_21h24.57.184,SPAMnetsValid,2021.1.4,Win32,40.04485023,,,,,,,,,,,,,9,2.3399,0,29,29,87,1,,,,,,,,,,,,,,,,,,,,,,,,,,,,,,,,,,,,,,,,,,,,,,,,,,,,,,,,,,,,,,,,,,,,,,
,,,,9,1.884,,,,,,44,cookie,melon,,90115,001,2022-04-21_21h24.57.184,SPAMnetsValid,2021.1.4,Win32,40.04485023,,,,,,,,,,,,,9,1.884,0,30,30,92,1,,,,,,,,,,,,,,,,,,,,,,,,,,,,,,,,,,,,,,,,,,,,,,,,,,,,,,,,,,,,,,,,,,,,,,
,,,,1,4.6495,,,,,,32,cake,microwave,,90115,001,2022-04-21_21h24.57.184,SPAMnetsValid,2021.1.4,Win32,40.04485023,,,,,,,,,,,,,1,4.6495,0,31,31,33,1,,,,,,,,,,,,,,,,,,,,,,,,,,,,,,,,,,,,,,,,,,,,,,,,,,,,,,,,,,,,,,,,,,,,,,
,,,,9,3.077,,,,,,77,refrigerator,yogurt,,90115,001,2022-04-21_21h24.57.184,SPAMnetsValid,2021.1.4,Win32,40.04485023,,,,,,,,,,,,,9,3.077,0,32,32,42,1,,,,,,,,,,,,,,,,,,,,,,,,,,,,,,,,,,,,,,,,,,,,,,,,,,,,,,,,,,,,,,,,,,,,,,
,,,,9,1.9496,,,,,,61,strawberry,tomato,,90115,001,2022-04-21_21h24.57.184,SPAMnetsValid,2021.1.4,Win32,40.04485023,,,,,,,,,,,,,9,1.9496,0,33,33,80,1,,,,,,,,,,,,,,,,,,,,,,,,,,,,,,,,,,,,,,,,,,,,,,,,,,,,,,,,,,,,,,,,,,,,,,
,,,,9,1.2856,,,,,,12,cookie,yogurt,,90115,001,2022-04-21_21h24.57.184,SPAMnetsValid,2021.1.4,Win32,40.04485023,,,,,,,,,,,,,9,1.2856,0,34,34,36,1,,,,,,,,,,,,,,,,,,,,,,,,,,,,,,,,,,,,,,,,,,,,,,,,,,,,,,,,,,,,,,,,,,,,,,
,,,,9,1.7802,,,,,,93,kitchen,oven,,90115,001,2022-04-21_21h24.57.184,SPAMnetsValid,2021.1.4,Win32,40.04485023,,,,,,,,,,,,,9,1.7802,0,35,35,82,1,,,,,,,,,,,,,,,,,,,,,,,,,,,,,,,,,,,,,,,,,,,,,,,,,,,,,,,,,,,,,,,,,,,,,,
,,,,1,2.6264,,,,,,85,cake,tree,,90115,001,2022-04-21_21h24.57.184,SPAMnetsValid,2021.1.4,Win32,40.04485023,,,,,,,,,,,,,1,2.6264,0,36,36,18,1,,,,,,,,,,,,,,,,,,,,,,,,,,,,,,,,,,,,,,,,,,,,,,,,,,,,,,,,,,,,,,,,,,,,,,
,,,,6,2.6529,,,,,,18,onion,refrigerator,,90115,001,2022-04-21_21h24.57.184,SPAMnetsValid,2021.1.4,Win32,40.04485023,,,,,,,,,,,,,6,2.6529,0,37,37,62,1,,,,,,,,,,,,,,,,,,,,,,,,,,,,,,,,,,,,,,,,,,,,,,,,,,,,,,,,,,,,,,,,,,,,,,
,,,,1,2.2275,,,,,,35,flower,pretzel,,90115,001,2022-04-21_21h24.57.184,SPAMnetsValid,2021.1.4,Win32,40.04485023,,,,,,,,,,,,,1,2.2275,0,38,38,26,1,,,,,,,,,,,,,,,,,,,,,,,,,,,,,,,,,,,,,,,,,,,,,,,,,,,,,,,,,,,,,,,,,,,,,,
,,,,1,1.3532,,,,,,13,broom,yogurt,,90115,001,2022-04-21_21h24.57.184,SPAMnetsValid,2021.1.4,Win32,40.04485023,,,,,,,,,,,,,1,1.3532,0,39,39,5,1,,,,,,,,,,,,,,,,,,,,,,,,,,,,,,,,,,,,,,,,,,,,,,,,,,,,,,,,,,,,,,,,,,,,,,
,,,,1,1.3552,,,,,,41,broom,cactus,,90115,001,2022-04-21_21h24.57.184,SPAMnetsValid,2021.1.4,Win32,40.04485023,,,,,,,,,,,,,1,1.3552,0,40,40,46,1,,,,,,,,,,,,,,,,,,,,,,,,,,,,,,,,,,,,,,,,,,,,,,,,,,,,,,,,,,,,,,,,,,,,,,
,,,,8,2.7169,,,,,,82,cake,kitchen,,90115,001,2022-04-21_21h24.57.184,SPAMnetsValid,2021.1.4,Win32,40.04485023,,,,,,,,,,,,,8,2.7169,0,41,41,96,1,,,,,,,,,,,,,,,,,,,,,,,,,,,,,,,,,,,,,,,,,,,,,,,,,,,,,,,,,,,,,,,,,,,,,,
,,,,7,3.6027,,,,,,36,broom,kitchen,,90115,001,2022-04-21_21h24.57.184,SPAMnetsValid,2021.1.4,Win32,40.04485023,,,,,,,,,,,,,7,3.6027,0,42,42,76,1,,,,,,,,,,,,,,,,,,,,,,,,,,,,,,,,,,,,,,,,,,,,,,,,,,,,,,,,,,,,,,,,,,,,,,
,,,,5,3.6993,,,,,,25,carrot,onion,,90115,001,2022-04-21_21h24.57.184,SPAMnetsValid,2021.1.4,Win32,40.04485023,,,,,,,,,,,,,5,3.6993,0,43,43,44,1,,,,,,,,,,,,,,,,,,,,,,,,,,,,,,,,,,,,,,,,,,,,,,,,,,,,,,,,,,,,,,,,,,,,,,
,,,,1,2.424,,,,,,67,flower,yogurt,,90115,001,2022-04-21_21h24.57.184,SPAMnetsValid,2021.1.4,Win32,40.04485023,,,,,,,,,,,,,1,2.424,0,44,44,12,1,,,,,,,,,,,,,,,,,,,,,,,,,,,,,,,,,,,,,,,,,,,,,,,,,,,,,,,,,,,,,,,,,,,,,,
,,,,1,2.0211,,,,,,1,rose,yogurt,,90115,001,2022-04-21_21h24.57.184,SPAMnetsValid,2021.1.4,Win32,40.04485023,,,,,,,,,,,,,1,2.0211,0,45,45,55,1,,,,,,,,,,,,,,,,,,,,,,,,,,,,,,,,,,,,,,,,,,,,,,,,,,,,,,,,,,,,,,,,,,,,,,
,,,,1,1.5235,,,,,,74,broom,pretzel,,90115,001,2022-04-21_21h24.57.184,SPAMnetsValid,2021.1.4,Win32,40.04485023,,,,,,,,,,,,,1,1.5235,0,46,46,40,1,,,,,,,,,,,,,,,,,,,,,,,,,,,,,,,,,,,,,,,,,,,,,,,,,,,,,,,,,,,,,,,,,,,,,,
,,,,9,2.5199,,,,,,4,chocolate,pretzel,,90115,001,2022-04-21_21h24.57.184,SPAMnetsValid,2021.1.4,Win32,40.04485023,,,,,,,,,,,,,9,2.5199,0,47,47,52,1,,,,,,,,,,,,,,,,,,,,,,,,,,,,,,,,,,,,,,,,,,,,,,,,,,,,,,,,,,,,,,,,,,,,,,
,,,,4,3.6193,,,,,,65,broom,garden,,90115,001,2022-04-21_21h24.57.184,SPAMnetsValid,2021.1.4,Win32,40.04485023,,,,,,,,,,,,,4,3.6193,0,48,48,23,1,,,,,,,,,,,,,,,,,,,,,,,,,,,,,,,,,,,,,,,,,,,,,,,,,,,,,,,,,,,,,,,,,,,,,,
,,,,1,1.9454,,,,,,50,carrot,rose,,90115,001,2022-04-21_21h24.57.184,SPAMnetsValid,2021.1.4,Win32,40.04485023,,,,,,,,,,,,,1,1.9454,0,49,49,73,1,,,,,,,,,,,,,,,,,,,,,,,,,,,,,,,,,,,,,,,,,,,,,,,,,,,,,,,,,,,,,,,,,,,,,,
,,,,1,1.5731,,,,,,80,chocolate,tree,,90115,001,2022-04-21_21h24.57.184,SPAMnetsValid,2021.1.4,Win32,40.04485023,,,,,,,,,,,,,1,1.5731,0,50,50,89,1,,,,,,,,,,,,,,,,,,,,,,,,,,,,,,,,,,,,,,,,,,,,,,,,,,,,,,,,,,,,,,,,,,,,,,
,,,,1,1.4372,,,,,,34,melon,oven,,90115,001,2022-04-21_21h24.57.184,SPAMnetsValid,2021.1.4,Win32,40.04485023,,,,,,,,,,,,,1,1.4372,0,51,51,7,1,,,,,,,,,,,,,,,,,,,,,,,,,,,,,,,,,,,,,,,,,,,,,,,,,,,,,,,,,,,,,,,,,,,,,,
,,,,1,1.4045,,,,,,51,onion,strawberry,,90115,001,2022-04-21_21h24.57.184,SPAMnetsValid,2021.1.4,Win32,40.04485023,,,,,,,,,,,,,1,1.4045,0,52,52,86,1,,,,,,,,,,,,,,,,,,,,,,,,,,,,,,,,,,,,,,,,,,,,,,,,,,,,,,,,,,,,,,,,,,,,,,
,,,,1,2.5108,,,,,,83,broom,carrot,,90115,001,2022-04-21_21h24.57.184,SPAMnetsValid,2021.1.4,Win32,40.04485023,,,,,,,,,,,,,1,2.5108,0,53,53,4,1,,,,,,,,,,,,,,,,,,,,,,,,,,,,,,,,,,,,,,,,,,,,,,,,,,,,,,,,,,,,,,,,,,,,,,
,,,,1,1.391,,,,,,48,flower,oven,,90115,001,2022-04-21_21h24.57.184,SPAMnetsValid,2021.1.4,Win32,40.04485023,,,,,,,,,,,,,1,1.391,0,54,54,15,1,,,,,,,,,,,,,,,,,,,,,,,,,,,,,,,,,,,,,,,,,,,,,,,,,,,,,,,,,,,,,,,,,,,,,,
,,,,1,1.4028,,,,,,70,chocolate,onion,,90115,001,2022-04-21_21h24.57.184,SPAMnetsValid,2021.1.4,Win32,40.04485023,,,,,,,,,,,,,1,1.4028,0,55,55,74,1,,,,,,,,,,,,,,,,,,,,,,,,,,,,,,,,,,,,,,,,,,,,,,,,,,,,,,,,,,,,,,,,,,,,,,
,,,,1,1.5614,,,,,,86,oven,rose,,90115,001,2022-04-21_21h24.57.184,SPAMnetsValid,2021.1.4,Win32,40.04485023,,,,,,,,,,,,,1,1.5614,0,56,56,79,1,,,,,,,,,,,,,,,,,,,,,,,,,,,,,,,,,,,,,,,,,,,,,,,,,,,,,,,,,,,,,,,,,,,,,,
,,,,1,1.2361,,,,,,60,cactus,onion,,90115,001,2022-04-21_21h24.57.184,SPAMnetsValid,2021.1.4,Win32,40.04485023,,,,,,,,,,,,,1,1.2361,0,57,57,81,1,,,,,,,,,,,,,,,,,,,,,,,,,,,,,,,,,,,,,,,,,,,,,,,,,,,,,,,,,,,,,,,,,,,,,,
,,,,9,3.1217,,,,,,63,cake,cookie,,90115,001,2022-04-21_21h24.57.184,SPAMnetsValid,2021.1.4,Win32,40.04485023,,,,,,,,,,,,,9,3.1217,0,58,58,93,1,,,,,,,,,,,,,,,,,,,,,,,,,,,,,,,,,,,,,,,,,,,,,,,,,,,,,,,,,,,,,,,,,,,,,,
,,,,9,1.632,,,,,,52,carrot,tomato,,90115,001,2022-04-21_21h24.57.184,SPAMnetsValid,2021.1.4,Win32,40.04485023,,,,,,,,,,,,,9,1.632,0,59,59,95,1,,,,,,,,,,,,,,,,,,,,,,,,,,,,,,,,,,,,,,,,,,,,,,,,,,,,,,,,,,,,,,,,,,,,,,
,,,,1,2.7621,,,,,,55,tomato,tree,,90115,001,2022-04-21_21h24.57.184,SPAMnetsValid,2021.1.4,Win32,40.04485023,,,,,,,,,,,,,1,2.7621,0,60,60,35,1,,,,,,,,,,,,,,,,,,,,,,,,,,,,,,,,,,,,,,,,,,,,,,,,,,,,,,,,,,,,,,,,,,,,,,
,,,,1,2.4706,,,,,,75,cookie,onion,,90115,001,2022-04-21_21h24.57.184,SPAMnetsValid,2021.1.4,Win32,40.04485023,,,,,,,,,,,,,1,2.4706,0,61,61,9,1,,,,,,,,,,,,,,,,,,,,,,,,,,,,,,,,,,,,,,,,,,,,,,,,,,,,,,,,,,,,,,,,,,,,,,
,,,,9,2.7756,,,,,,30,cookie,pretzel,,90115,001,2022-04-21_21h24.57.184,SPAMnetsValid,2021.1.4,Win32,40.04485023,,,,,,,,,,,,,9,2.7756,0,62,62,78,1,,,,,,,,,,,,,,,,,,,,,,,,,,,,,,,,,,,,,,,,,,,,,,,,,,,,,,,,,,,,,,,,,,,,,,
,,,,2,1.9595,,,,,,10,flower,onion,,90115,001,2022-04-21_21h24.57.184,SPAMnetsValid,2021.1.4,Win32,40.04485023,,,,,,,,,,,,,2,1.9595,0,63,63,45,1,,,,,,,,,,,,,,,,,,,,,,,,,,,,,,,,,,,,,,,,,,,,,,,,,,,,,,,,,,,,,,,,,,,,,,
,,,,1,1.6105,,,,,,8,broom,melon,,90115,001,2022-04-21_21h24.57.184,SPAMnetsValid,2021.1.4,Win32,40.04485023,,,,,,,,,,,,,1,1.6105,0,64,64,59,1,,,,,,,,,,,,,,,,,,,,,,,,,,,,,,,,,,,,,,,,,,,,,,,,,,,,,,,,,,,,,,,,,,,,,,
,,,,1,2.1521,,,,,,37,garden,refrigerator,,90115,001,2022-04-21_21h24.57.184,SPAMnetsValid,2021.1.4,Win32,40.04485023,,,,,,,,,,,,,1,2.1521,0,65,65,11,1,,,,,,,,,,,,,,,,,,,,,,,,,,,,,,,,,,,,,,,,,,,,,,,,,,,,,,,,,,,,,,,,,,,,,,
,,,,1,1.4162,,,,,,49,flower,strawberry,,90115,001,2022-04-21_21h24.57.184,SPAMnetsValid,2021.1.4,Win32,40.04485023,,,,,,,,,,,,,1,1.4162,0,66,66,3,1,,,,,,,,,,,,,,,,,,,,,,,,,,,,,,,,,,,,,,,,,,,,,,,,,,,,,,,,,,,,,,,,,,,,,,
,,,,9,2.0975,,,,,,192,microwave,microwave,CHECK,90115,001,2022-04-21_21h24.57.184,SPAMnetsValid,2021.1.4,Win32,40.04485023,,,,,,,,,,,,,9,2.0975,0,67,67,53,1,,,,,,,,,,,,,,,,,,,,,,,,,,,,,,,,,,,,,,,,,,,,,,,,,,,,,,,,,,,,,,,,,,,,,,
,,,,1,1.7311,,,,,,28,cake,melon,,90115,001,2022-04-21_21h24.57.184,SPAMnetsValid,2021.1.4,Win32,40.04485023,,,,,,,,,,,,,1,1.7311,0,68,68,54,1,,,,,,,,,,,,,,,,,,,,,,,,,,,,,,,,,,,,,,,,,,,,,,,,,,,,,,,,,,,,,,,,,,,,,,
,,,,9,3.7617,,,,,,95,broom,refrigerator,,90115,001,2022-04-21_21h24.57.184,SPAMnetsValid,2021.1.4,Win32,40.04485023,,,,,,,,,,,,,9,3.7617,0,69,69,90,1,,,,,,,,,,,,,,,,,,,,,,,,,,,,,,,,,,,,,,,,,,,,,,,,,,,,,,,,,,,,,,,,,,,,,,
,,,,1,2.0187,,,,,,45,onion,pretzel,,90115,001,2022-04-21_21h24.57.184,SPAMnetsValid,2021.1.4,Win32,40.04485023,,,,,,,,,,,,,1,2.0187,0,70,70,69,1,,,,,,,,,,,,,,,,,,,,,,,,,,,,,,,,,,,,,,,,,,,,,,,,,,,,,,,,,,,,,,,,,,,,,,
,,,,1,3.9762,,,,,,22,kitchen,strawberry,,90115,001,2022-04-21_21h24.57.184,SPAMnetsValid,2021.1.4,Win32,40.04485023,,,,,,,,,,,,,1,3.9762,0,71,71,2,1,,,,,,,,,,,,,,,,,,,,,,,,,,,,,,,,,,,,,,,,,,,,,,,,,,,,,,,,,,,,,,,,,,,,,,
,,,,8,1.8173,,,,,,54,chocolate,yogurt,,90115,001,2022-04-21_21h24.57.184,SPAMnetsValid,2021.1.4,Win32,40.04485023,,,,,,,,,,,,,8,1.8173,0,72,72,67,1,,,,,,,,,,,,,,,,,,,,,,,,,,,,,,,,,,,,,,,,,,,,,,,,,,,,,,,,,,,,,,,,,,,,,,
,,,,1,2.0982,,,,,,7,melon,tree,,90115,001,2022-04-21_21h24.57.184,SPAMnetsValid,2021.1.4,Win32,40.04485023,,,,,,,,,,,,,1,2.0982,0,73,73,77,1,,,,,,,,,,,,,,,,,,,,,,,,,,,,,,,,,,,,,,,,,,,,,,,,,,,,,,,,,,,,,,,,,,,,,,
,,,,8,2.3107,,,,,,47,onion,tomato,,90115,001,2022-04-21_21h24.57.184,SPAMnetsValid,2021.1.4,Win32,40.04485023,,,,,,,,,,,,,8,2.3107,0,74,74,51,1,,,,,,,,,,,,,,,,,,,,,,,,,,,,,,,,,,,,,,,,,,,,,,,,,,,,,,,,,,,,,,,,,,,,,,
,,,,9,2.5336,,,,,,76,garden,rose,,90115,001,2022-04-21_21h24.57.184,SPAMnetsValid,2021.1.4,Win32,40.04485023,,,,,,,,,,,,,9,2.5336,0,75,75,19,1,,,,,,,,,,,,,,,,,,,,,,,,,,,,,,,,,,,,,,,,,,,,,,,,,,,,,,,,,,,,,,,,,,,,,,
,,,,1,2.4724,,,,,,42,garden,kitchen,,90115,001,2022-04-21_21h24.57.184,SPAMnetsValid,2021.1.4,Win32,40.04485023,,,,,,,,,,,,,1,2.4724,0,76,76,29,1,,,,,,,,,,,,,,,,,,,,,,,,,,,,,,,,,,,,,,,,,,,,,,,,,,,,,,,,,,,,,,,,,,,,,,
,,,,1,2.7011,,,,,,53,garden,pretzel,,90115,001,2022-04-21_21h24.57.184,SPAMnetsValid,2021.1.4,Win32,40.04485023,,,,,,,,,,,,,1,2.7011,0,77,77,0,1,,,,,,,,,,,,,,,,,,,,,,,,,,,,,,,,,,,,,,,,,,,,,,,,,,,,,,,,,,,,,,,,,,,,,,
,,,,1,2.9535,,,,,,71,broom,rose,,90115,001,2022-04-21_21h24.57.184,SPAMnetsValid,2021.1.4,Win32,40.04485023,,,,,,,,,,,,,1,2.9535,0,78,78,61,1,,,,,,,,,,,,,,,,,,,,,,,,,,,,,,,,,,,,,,,,,,,,,,,,,,,,,,,,,,,,,,,,,,,,,,
,,,,1,3.5872,,,,,,24,cookie,tomato,,90115,001,2022-04-21_21h24.57.184,SPAMnetsValid,2021.1.4,Win32,40.04485023,,,,,,,,,,,,,1,3.5872,0,79,79,68,1,,,,,,,,,,,,,,,,,,,,,,,,,,,,,,,,,,,,,,,,,,,,,,,,,,,,,,,,,,,,,,,,,,,,,,
,,,,1,1.5182,,,,,,92,broom,flower,,90115,001,2022-04-21_21h24.57.184,SPAMnetsValid,2021.1.4,Win32,40.04485023,,,,,,,,,,,,,1,1.5182,0,80,80,88,1,,,,,,,,,,,,,,,,,,,,,,,,,,,,,,,,,,,,,,,,,,,,,,,,,,,,,,,,,,,,,,,,,,,,,,
,,,,6,3.0835,,,,,,59,rose,strawberry,,90115,001,2022-04-21_21h24.57.184,SPAMnetsValid,2021.1.4,Win32,40.04485023,,,,,,,,,,,,,6,3.0835,0,81,81,72,1,,,,,,,,,,,,,,,,,,,,,,,,,,,,,,,,,,,,,,,,,,,,,,,,,,,,,,,,,,,,,,,,,,,,,,
,,,,1,2.0372,,,,,,23,flower,microwave,,90115,001,2022-04-21_21h24.57.184,SPAMnetsValid,2021.1.4,Win32,40.04485023,,,,,,,,,,,,,1,2.0372,0,82,82,25,1,,,,,,,,,,,,,,,,,,,,,,,,,,,,,,,,,,,,,,,,,,,,,,,,,,,,,,,,,,,,,,,,,,,,,,
,,,,2,2.1619,,,,,,81,pretzel,yogurt,,90115,001,2022-04-21_21h24.57.184,SPAMnetsValid,2021.1.4,Win32,40.04485023,,,,,,,,,,,,,2,2.1619,0,83,83,50,1,,,,,,,,,,,,,,,,,,,,,,,,,,,,,,,,,,,,,,,,,,,,,,,,,,,,,,,,,,,,,,,,,,,,,,
,,,,1,1.4424,,,,,,31,cactus,pretzel,,90115,001,2022-04-21_21h24.57.184,SPAMnetsValid,2021.1.4,Win32,40.04485023,,,,,,,,,,,,,1,1.4424,0,84,84,1,1,,,,,,,,,,,,,,,,,,,,,,,,,,,,,,,,,,,,,,,,,,,,,,,,,,,,,,,,,,,,,,,,,,,,,,
,,,,1,1.4531,,,,,,46,garden,yogurt,,90115,001,2022-04-21_21h24.57.184,SPAMnetsValid,2021.1.4,Win32,40.04485023,,,,,,,,,,,,,1,1.4531,0,85,85,65,1,,,,,,,,,,,,,,,,,,,,,,,,,,,,,,,,,,,,,,,,,,,,,,,,,,,,,,,,,,,,,,,,,,,,,,
,,,,1,1.1932,,,,,,11,refrigerator,tree,,90115,001,2022-04-21_21h24.57.184,SPAMnetsValid,2021.1.4,Win32,40.04485023,,,,,,,,,,,,,1,1.1932,0,86,86,43,1,,,,,,,,,,,,,,,,,,,,,,,,,,,,,,,,,,,,,,,,,,,,,,,,,,,,,,,,,,,,,,,,,,,,,,
,,,,1,1.476,,,,,,64,chocolate,garden,,90115,001,2022-04-21_21h24.57.184,SPAMnetsValid,2021.1.4,Win32,40.04485023,,,,,,,,,,,,,1,1.476,0,87,87,14,1,,,,,,,,,,,,,,,,,,,,,,,,,,,,,,,,,,,,,,,,,,,,,,,,,,,,,,,,,,,,,,,,,,,,,,
,,,,1,1.2414,,,,,,68,flower,tomato,,90115,001,2022-04-21_21h24.57.184,SPAMnetsValid,2021.1.4,Win32,40.04485023,,,,,,,,,,,,,1,1.2414,0,88,88,94,1,,,,,,,,,,,,,,,,,,,,,,,,,,,,,,,,,,,,,,,,,,,,,,,,,,,,,,,,,,,,,,,,,,,,,,
,,,,1,1.7445,,,,,,73,broom,chocolate,,90115,001,2022-04-21_21h24.57.184,SPAMnetsValid,2021.1.4,Win32,40.04485023,,,,,,,,,,,,,1,1.7445,0,89,89,47,1,,,,,,,,,,,,,,,,,,,,,,,,,,,,,,,,,,,,,,,,,,,,,,,,,,,,,,,,,,,,,,,,,,,,,,
,,,,9,2.4057,,,,,,94,kitchen,microwave,,90115,001,2022-04-21_21h24.57.184,SPAMnetsValid,2021.1.4,Win32,40.04485023,,,,,,,,,,,,,9,2.4057,0,90,90,58,1,,,,,,,,,,,,,,,,,,,,,,,,,,,,,,,,,,,,,,,,,,,,,,,,,,,,,,,,,,,,,,,,,,,,,,
,,,,1,2.7689,,,,,,89,chocolate,rose,,90115,001,2022-04-21_21h24.57.184,SPAMnetsValid,2021.1.4,Win32,40.04485023,,,,,,,,,,,,,1,2.7689,0,91,91,60,1,,,,,,,,,,,,,,,,,,,,,,,,,,,,,,,,,,,,,,,,,,,,,,,,,,,,,,,,,,,,,,,,,,,,,,
,,,,4,2.2565,,,,,,39,melon,pretzel,,90115,001,2022-04-21_21h24.57.184,SPAMnetsValid,2021.1.4,Win32,40.04485023,,,,,,,,,,,,,4,2.2565,0,92,92,20,1,,,,,,,,,,,,,,,,,,,,,,,,,,,,,,,,,,,,,,,,,,,,,,,,,,,,,,,,,,,,,,,,,,,,,,
,,,,1,2.282,,,,,,19,microwave,pretzel,,90115,001,2022-04-21_21h24.57.184,SPAMnetsValid,2021.1.4,Win32,40.04485023,,,,,,,,,,,,,1,2.282,0,93,93,41,1,,,,,,,,,,,,,,,,,,,,,,,,,,,,,,,,,,,,,,,,,,,,,,,,,,,,,,,,,,,,,,,,,,,,,,
,,,,1,1.5981,,,,,,33,oven,yogurt,,90115,001,2022-04-21_21h24.57.184,SPAMnetsValid,2021.1.4,Win32,40.04485023,,,,,,,,,,,,,1,1.5981,0,94,94,31,1,,,,,,,,,,,,,,,,,,,,,,,,,,,,,,,,,,,,,,,,,,,,,,,,,,,,,,,,,,,,,,,,,,,,,,
,,,,1,1.8026,,,,,,72,broom,onion,,90115,001,2022-04-21_21h24.57.184,SPAMnetsValid,2021.1.4,Win32,40.04485023,,,,,,,,,,,,,1,1.8026,0,95,95,27,1,,,,,,,,,,,,,,,,,,,,,,,,,,,,,,,,,,,,,,,,,,,,,,,,,,,,,,,,,,,,,,,,,,,,,,
,,,,1,1.8053,,,,,,57,flower,kitchen,,90115,001,2022-04-21_21h24.57.184,SPAMnetsValid,2021.1.4,Win32,40.04485023,,,,,,,,,,,,,1,1.8053,0,96,96,49,1,,,,,,,,,,,,,,,,,,,,,,,,,,,,,,,,,,,,,,,,,,,,,,,,,,,,,,,,,,,,,,,,,,,,,,
,,,,,,,,,,,,,,,90115,001,2022-04-21_21h24.57.184,SPAMnetsValid,2021.1.4,Win32,40.04485023,,,,,,,,,,,,,,,,,,,,0,0,0,0,1,,,,,,,,,,,,,,,,,,,,,,,,,,,,,,,,,,,,,,,,,,,,,,,,,,,,,,,,,,,,,,,,,
,,,,,,,,,,,,,,,90115,001,2022-04-21_21h24.57.184,SPAMnetsValid,2021.1.4,Win32,40.04485023,,,,,,0,1,1,0,1,1,0,,,,,,,,,,,,,,,,,,,,,,,,,,,,,,,,,,,,,,,,,,,,,,,,,,,,,,,,,,,,,,,,,,,,,,,,,,,,,
,,,,,,,,,,,,,,,90115,001,2022-04-21_21h24.57.184,SPAMnetsValid,2021.1.4,Win32,40.04485023,,,,,,,,,,,,,,,,,,,,,,,,,2,13.6679,0,0,0,0,1,rancor,forbearance,ridicule,malice,bravery,3,,,,,,,,,,,,,,,,,,,,,,,,,,,,,,,,,,,,,,,,,,,,,,,,,,,,
,,,,,,,,,,,,,,,90115,001,2022-04-21_21h24.57.184,SPAMnetsValid,2021.1.4,Win32,40.04485023,,,,,,,,,,,,,,,,,,,,,,,,,4,6.9923,0,1,1,1,1,raucous,empty,quiet,smooth,harsh,4,,,,,,,,,,,,,,,,,,,,,,,,,,,,,,,,,,,,,,,,,,,,,,,,,,,,
,,,,,,,,,,,,,,,90115,001,2022-04-21_21h24.57.184,SPAMnetsValid,2021.1.4,Win32,40.04485023,,,,,,,,,,,,,,,,,,,,,,,,,4,9.9573,0,2,2,2,1,gargoyle,oil,medicine,carved waterspout,ugly building,3,,,,,,,,,,,,,,,,,,,,,,,,,,,,,,,,,,,,,,,,,,,,,,,,,,,,
,,,,,,,,,,,,,,,90115,001,2022-04-21_21h24.57.184,SPAMnetsValid,2021.1.4,Win32,40.04485023,,,,,,,,,,,,,,,,,,,,,,,,,3,7.6018,0,3,3,3,1,recrudesce,purify,renew activity,lack refinement,crush,2,,,,,,,,,,,,,,,,,,,,,,,,,,,,,,,,,,,,,,,,,,,,,,,,,,,,
,,,,,,,,,,,,,,,90115,001,2022-04-21_21h24.57.184,SPAMnetsValid,2021.1.4,Win32,40.04485023,,,,,,,,,,,,,,,,,,,,,,,,,3,5.4885,0,4,4,4,1,specious,"plausible, but not genuine",noteworthy,class or variety,roomy,1,,,,,,,,,,,,,,,,,,,,,,,,,,,,,,,,,,,,,,,,,,,,,,,,,,,,
,,,,,,,,,,,,,,,90115,001,2022-04-21_21h24.57.184,SPAMnetsValid,2021.1.4,Win32,40.04485023,,,,,,,,,,,,,,,,,,,,,,,,,3,3.525,0,5,5,5,1,bauble,bubble,showy plaything,idle talk,confusion,2,,,,,,,,,,,,,,,,,,,,,,,,,,,,,,,,,,,,,,,,,,,,,,,,,,,,
,,,,,,,,,,,,,,,90115,001,2022-04-21_21h24.57.184,SPAMnetsValid,2021.1.4,Win32,40.04485023,,,,,,,,,,,,,,,,,,,,,,,,,4,13.5049,0,6,6,6,1,prolific,scarce,producing abundantly,reckless,speaking profanely,2,,,,,,,,,,,,,,,,,,,,,,,,,,,,,,,,,,,,,,,,,,,,,,,,,,,,
,,,,,,,,,,,,,,,90115,001,2022-04-21_21h24.57.184,SPAMnetsValid,2021.1.4,Win32,40.04485023,,,,,,,,,,,,,,,,,,,,,,,,,2,9.3714,0,7,7,7,1,opulent,party,wealthy,happy frame of mind,semiprecious stone,2,,,,,,,,,,,,,,,,,,,,,,,,,,,,,,,,,,,,,,,,,,,,,,,,,,,,
,,,,,,,,,,,,,,,90115,001,2022-04-21_21h24.57.184,SPAMnetsValid,2021.1.4,Win32,40.04485023,,,,,,,,,,,,,,,,,,,,,,,,,2,6.9437,0,8,8,8,1,coercion,conspiracy,strategy,restraint,attraction,3,,,,,,,,,,,,,,,,,,,,,,,,,,,,,,,,,,,,,,,,,,,,,,,,,,,,
,,,,,,,,,,,,,,,90115,001,2022-04-21_21h24.57.184,SPAMnetsValid,2021.1.4,Win32,40.04485023,,,,,,,,,,,,,,,,,,,,,,,,,4,5.9689,0,9,9,9,1,hiatus,animal,calamity,dread,gap,4,,,,,,,,,,,,,,,,,,,,,,,,,,,,,,,,,,,,,,,,,,,,,,,,,,,,
,,,,,,,,,,,,,,,90115,001,2022-04-21_21h24.57.184,SPAMnetsValid,2021.1.4,Win32,40.04485023,,,,,,,,,,,,,,,,,,,,,,,,,2,12.9199,0,10,10,10,1,germane,microbe,contagious,relevant,different,3,,,,,,,,,,,,,,,,,,,,,,,,,,,,,,,,,,,,,,,,,,,,,,,,,,,,
,,,,,,,,,,,,,,,90115,001,2022-04-21_21h24.57.184,SPAMnetsValid,2021.1.4,Win32,40.04485023,,,,,,,,,,,,,,,,,,,,,,,,,3,9.1237,0,11,11,11,1,perfunctory,fundamental,formal,superficial,careful,3,,,,,,,,,,,,,,,,,,,,,,,,,,,,,,,,,,,,,,,,,,,,,,,,,,,,
,,,,,,,,,,,,,,,90115,001,2022-04-21_21h24.57.184,SPAMnetsValid,2021.1.4,Win32,40.04485023,,,,,,,,,,,,,,,,,,,,,,,,,4,6.8107,0,12,12,12,1,diverge,reveal,chant,distract the attention of,differ or turn off from,4,,,,,,,,,,,,,,,,,,,,,,,,,,,,,,,,,,,,,,,,,,,,,,,,,,,,
,,,,,,,,,,,,,,,90115,001,2022-04-21_21h24.57.184,SPAMnetsValid,2021.1.4,Win32,40.04485023,,,,,,,,,,,,,,,,,,,,,,,,,4,7.2576,0,13,13,13,1,evoke,take away,anger,connect,bring out,4,,,,,,,,,,,,,,,,,,,,,,,,,,,,,,,,,,,,,,,,,,,,,,,,,,,,
,,,,,,,,,,,,,,,90115,001,2022-04-21_21h24.57.184,SPAMnetsValid,2021.1.4,Win32,40.04485023,,,,,,,,,,,,,,,,,,,,,,,,,3,4.5608,0,14,14,14,1,pertinent,relevant,lying next to,necessary,bold,1,,,,,,,,,,,,,,,,,,,,,,,,,,,,,,,,,,,,,,,,,,,,,,,,,,,,
,,,,,,,,,,,,,,,90115,001,2022-04-21_21h24.57.184,SPAMnetsValid,2021.1.4,Win32,40.04485023,,,,,,,,,,,,,,,,,,,,,,,,,2,12.7687,0,15,15,15,1,holocaust,entirety,destruction,saintly,price,2,,,,,,,,,,,,,,,,,,,,,,,,,,,,,,,,,,,,,,,,,,,,,,,,,,,,
,,,,,,,,,,,,,,,90115,001,2022-04-21_21h24.57.184,SPAMnetsValid,2021.1.4,Win32,40.04485023,,,,,,,,,,,,,,,,,,,,,,,,,1,5.6259,0,16,16,16,1,piquant,mellow,fish,pungent,cloth,3,,,,,,,,,,,,,,,,,,,,,,,,,,,,,,,,,,,,,,,,,,,,,,,,,,,,
,,,,,,,,,,,,,,,90115,001,2022-04-21_21h24.57.184,SPAMnetsValid,2021.1.4,Win32,40.04485023,,,,,,,,,,,,,,,,,,,,,,,,,3,4.9782,0,17,17,17,1,firmament,foundation,heavens,strong,glue,2,,,,,,,,,,,,,,,,,,,,,,,,,,,,,,,,,,,,,,,,,,,,,,,,,,,,
,,,,,,,,,,,,,,,90115,001,2022-04-21_21h24.57.184,SPAMnetsValid,2021.1.4,Win32,40.04485023,,,,,,,,,,,,,,,,,,,,,,,,,,,,,,,,,,,,,,3,10.8427,0,0,0,0,1,marketable,partisan,jocular,marriageable,salable,essential,4,,,,,,,,,,,,,,,,,,,,,,,,,,,,,,,,,,,,,,
,,,,,,,,,,,,,,,90115,001,2022-04-21_21h24.57.184,SPAMnetsValid,2021.1.4,Win32,40.04485023,,,,,,,,,,,,,,,,,,,,,,,,,,,,,,,,,,,,,,5,6.616,0,1,1,1,1,cottontail,squirrel,poplar,boa,marshy plant,rabbit,5,,,,,,,,,,,,,,,,,,,,,,,,,,,,,,,,,,,,,,
,,,,,,,,,,,,,,,90115,001,2022-04-21_21h24.57.184,SPAMnetsValid,2021.1.4,Win32,40.04485023,,,,,,,,,,,,,,,,,,,,,,,,,,,,,,,,,,,,,,3,3.8032,0,2,2,2,1,boggy,afraid,false,marshy,dense,black,3,,,,,,,,,,,,,,,,,,,,,,,,,,,,,,,,,,,,,,
,,,,,,,,,,,,,,,90115,001,2022-04-21_21h24.57.184,SPAMnetsValid,2021.1.4,Win32,40.04485023,,,,,,,,,,,,,,,,,,,,,,,,,,,,,,,,,,,,,,5,8.1479,0,3,3,3,1,gruesomeness,blackness,falseness,vindictiveness,drunkenness,ghastliness,5,,,,,,,,,,,,,,,,,,,,,,,,,,,,,,,,,,,,,,
,,,,,,,,,,,,,,,90115,001,2022-04-21_21h24.57.184,SPAMnetsValid,2021.1.4,Win32,40.04485023,,,,,,,,,,,,,,,,,,,,,,,,,,,,,,,,,,,,,,3,5.414,0,4,4,4,1,loathing,diffidence,laziness,abhorrence,cleverness,comfort,3,,,,,,,,,,,,,,,,,,,,,,,,,,,,,,,,,,,,,,
,,,,,,,,,,,,,,,90115,001,2022-04-21_21h24.57.184,SPAMnetsValid,2021.1.4,Win32,40.04485023,,,,,,,,,,,,,,,,,,,,,,,,,,,,,,,,,,,,,,2,5.5749,0,5,5,5,1,bantam,fowl,ridicule,cripple,vegetable,ensign,1,,,,,,,,,,,,,,,,,,,,,,,,,,,,,,,,,,,,,,
,,,,,,,,,,,,,,,90115,001,2022-04-21_21h24.57.184,SPAMnetsValid,2021.1.4,Win32,40.04485023,,,,,,,,,,,,,,,,,,,,,,,,,,,,,,,,,,,,,,5,11.0446,0,6,6,6,1,evoke,wake up,surrender,reconnoiter,transcend,call forth,5,,,,,,,,,,,,,,,,,,,,,,,,,,,,,,,,,,,,,,
,,,,,,,,,,,,,,,90115,001,2022-04-21_21h24.57.184,SPAMnetsValid,2021.1.4,Win32,40.04485023,,,,,,,,,,,,,,,,,,,,,,,,,,,,,,,,,,,,,,5,7.2007,0,7,7,7,1,unobtrusive,unintelligent,epileptic,illogical,lineal,modest,5,,,,,,,,,,,,,,,,,,,,,,,,,,,,,,,,,,,,,,
,,,,,,,,,,,,,,,90115,001,2022-04-21_21h24.57.184,SPAMnetsValid,2021.1.4,Win32,40.04485023,,,,,,,,,,,,,,,,,,,,,,,,,,,,,,,,,,,,,,4,3.273,0,8,8,8,1,terrain,ice cream,final test,tractor,area of ground,weight,4,,,,,,,,,,,,,,,,,,,,,,,,,,,,,,,,,,,,,,
,,,,,,,,,,,,,,,90115,001,2022-04-21_21h24.57.184,SPAMnetsValid,2021.1.4,Win32,40.04485023,,,,,,,,,,,,,,,,,,,,,,,,,,,,,,,,,,,,,,1,8.774,0,9,9,9,1,capriciousness,stubbornness,courage,whimsicality,amazement,greediness,3,,,,,,,,,,,,,,,,,,,,,,,,,,,,,,,,,,,,,,
,,,,,,,,,,,,,,,90115,001,2022-04-21_21h24.57.184,SPAMnetsValid,2021.1.4,Win32,40.04485023,,,,,,,,,,,,,,,,,,,,,,,,,,,,,,,,,,,,,,1,4.2791,0,10,10,10,1,maelstrom,slander,whirlpool,enmity,armor,majolica,2,,,,,,,,,,,,,,,,,,,,,,,,,,,,,,,,,,,,,,
,,,,,,,,,,,,,,,90115,001,2022-04-21_21h24.57.184,SPAMnetsValid,2021.1.4,Win32,40.04485023,,,,,,,,,,,,,,,,,,,,,,,,,,,,,,,,,,,,,,1,7.7239,0,11,11,11,1,tentative,critical,conclusive,authentic,provisional,apprehensive,4,,,,,,,,,,,,,,,,,,,,,,,,,,,,,,,,,,,,,,
,,,,,,,,,,,,,,,90115,001,2022-04-21_21h24.57.184,SPAMnetsValid,2021.1.4,Win32,40.04485023,,,,,,,,,,,,,,,,,,,,,,,,,,,,,,,,,,,,,,4,12.7921,0,12,12,12,1,placate,rehabilitate,plagiarize,depredate,apprise,conciliate,5,,,,,,,,,,,,,,,,,,,,,,,,,,,,,,,,,,,,,,
,,,,,,,,,,,,,,,90115,001,2022-04-21_21h24.57.184,SPAMnetsValid,2021.1.4,Win32,40.04485023,,,,,,,,,,,,,,,,,,,,,,,,,,,,,,,,,,,,,,4,5.2234,0,13,13,13,1,surcease,enlightenment,cessation,inattention,censor,substitution,2,,,,,,,,,,,,,,,,,,,,,,,,,,,,,,,,,,,,,,
,,,,,,,,,,,,,,,90115,001,2022-04-21_21h24.57.184,SPAMnetsValid,2021.1.4,Win32,40.04485023,,,,,,,,,,,,,,,,,,,,,,,,,,,,,,,,,,,,,,4,9.3904,0,14,14,14,1,apathetic,wandering,impassive,hateful,prophetic,overflowing,2,,,,,,,,,,,,,,,,,,,,,,,,,,,,,,,,,,,,,,
,,,,,,,,,,,,,,,90115,001,2022-04-21_21h24.57.184,SPAMnetsValid,2021.1.4,Win32,40.04485023,,,,,,,,,,,,,,,,,,,,,,,,,,,,,,,,,,,,,,2,9.1368,0,15,15,15,1,paternoster,paternalism,patricide,malediction,benediction,prayer,5,,,,,,,,,,,,,,,,,,,,,,,,,,,,,,,,,,,,,,
,,,,,,,,,,,,,,,90115,001,2022-04-21_21h24.57.184,SPAMnetsValid,2021.1.4,Win32,40.04485023,,,,,,,,,,,,,,,,,,,,,,,,,,,,,,,,,,,,,,1,13.2135,0,16,16,16,1,opalescence,opulence,senescence,bankruptcy,iridescence,assiduity,4,,,,,,,,,,,,,,,,,,,,,,,,,,,,,,,,,,,,,,
,,,,,,,,,,,,,,,90115,001,2022-04-21_21h24.57.184,SPAMnetsValid,2021.1.4,Win32,40.04485023,,,,,,,,,,,,,,,,,,,,,,,,,,,,,,,,,,,,,,2,6.8466,0,17,17,17,1,lush,stupid,luxurious,hazy,putrid,languishing,2,,,,,,,,,,,,,,,,,,,,,,,,,,,,,,,,,,,,,,
,,,,,,,,,,,,,,,90115,001,2022-04-21_21h24.57.184,SPAMnetsValid,2021.1.4,Win32,40.04485023,,,,,,,,,,,,,,,,,,,,,,,,,,,,,,,,,,,,,,3,10.5476,0,18,18,18,1,curtailment,expenditure,abandonment,abridgment,improvement,forgery,3,,,,,,,,,,,,,,,,,,,,,,,,,,,,,,,,,,,,,,
,,,,,,,,,,,,,,,90115,001,2022-04-21_21h24.57.184,SPAMnetsValid,2021.1.4,Win32,40.04485023,,,,,,,,,,,,,,,,,,,,,,,,,,,,,,,,,,,,,,2,6.3224,0,19,19,19,1,perversity,adversity,perviousness,travesty,waywardness,gentility,4,,,,,,,,,,,,,,,,,,,,,,,,,,,,,,,,,,,,,,
,,,,,,,,,,,,,,,90115,001,2022-04-21_21h24.57.184,SPAMnetsValid,2021.1.4,Win32,40.04485023,,,,,,,,,,,,,,,,,,,,,,,,,,,,,,,,,,,,,,1,13.3056,0,20,20,20,1,calumnious,complimentary,analogous,slanderous,tempestuous,magnanimous,3,,,,,,,,,,,,,,,,,,,,,,,,,,,,,,,,,,,,,,
,,,,,,,,,,,,,,,90115,001,2022-04-21_21h24.57.184,SPAMnetsValid,2021.1.4,Win32,40.04485023,,,,,,,,,,,,,,,,,,,,,,,,,,,,,,,,,,,,,,2,25.1246,0,21,21,21,1,illiberality,bigotry,imbecility,illegibility,cautery,immaturity,1,,,,,,,,,,,,,,,,,,,,,,,,,,,,,,,,,,,,,,
,,,,,,,,,,,,,,,90115,001,2022-04-21_21h24.57.184,SPAMnetsValid,2021.1.4,Win32,40.04485023,,,,,,,,,,,,,,,,,,,,,,,,,,,,,,,,,,,,,,2,8.2174,0,22,22,22,1,clabber,rejoice,gossip,curdle,crow,hobble,3,,,,,,,,,,,,,,,,,,,,,,,,,,,,,,,,,,,,,,
,,,,,,,,,,,,,,,90115,001,2022-04-21_21h24.57.184,SPAMnetsValid,2021.1.4,Win32,40.04485023,,,,,,,,,,,,,,,,,,,,,,,,,,,,,,,,,,,,,,3,7.8073,0,23,23,23,1,sedulousness,diligence,credulousness,seduction,perilousness,frankness,1,,,,,,,,,,,,,,,,,,,,,,,,,,,,,,,,,,,,,,
,,,,,,,,,,,,,,,90115,001,2022-04-21_21h24.57.184,SPAMnetsValid,2021.1.4,Win32,40.04485023,,,,,,,,,,,,,,,,,,,,,,,,,,,,,,,,,,,,,,,,,,,,,,,,,,,,tools,bucket,0,0,0,0,1,,,,,,,,,,,,,,,,,,,,,,,,,,,,,,,
,,,,,,,,,,,,,,,90115,001,2022-04-21_21h24.57.184,SPAMnetsValid,2021.1.4,Win32,40.04485023,,,,,,,,,,,,,,,,,,,,,,,,,,,,,,,,,,,,,,,,,,,,,,,,,,,,water,bucket,1,0,1,0,1,,,,,,,,,,,,,,,,,,,,,,,,,,,,,,,
,,,,,,,,,,,,,,,90115,001,2022-04-21_21h24.57.184,SPAMnetsValid,2021.1.4,Win32,40.04485023,,,,,,,,,,,,,,,,,,,,,,,,,,,,,,,,,,,,,,,,,,,,,,,,,,,,gravel,bucket,2,0,2,0,1,,,,,,,,,,,,,,,,,,,,,,,,,,,,,,,
,,,,,,,,,,,,,,,90115,001,2022-04-21_21h24.57.184,SPAMnetsValid,2021.1.4,Win32,40.04485023,,,,,,,,,,,,,,,,,,,,,,,,,,,,,,,,,,,,,,,,,,,,,,,,,,,,sand,bucket,3,0,3,0,1,,,,,,,,,,,,,,,,,,,,,,,,,,,,,,,
,,,,,,,,,,,,,,,90115,001,2022-04-21_21h24.57.184,SPAMnetsValid,2021.1.4,Win32,40.04485023,,,,,,,,,,,,,,,,,,,,,,,,,,,,,,,,,,,,,,,,,,,,,,,,,,,,dirt,bucket,4,0,4,0,1,,,,,,,,,,,,,,,,,,,,,,,,,,,,,,,
,,,,,,,,,,,,,,,90115,001,2022-04-21_21h24.57.184,SPAMnetsValid,2021.1.4,Win32,40.04485023,,,,,,,,,,,,,,,,,,,,,,,,,,,,,,,,,,,,,,,,,,,,,,,,,,,,towels,bucket,5,0,5,0,1,,,,,,,,,,,,,,,,,,,,,,,,,,,,,,,
,,,,,,,,,,,,,,,90115,001,2022-04-21_21h24.57.184,SPAMnetsValid,2021.1.4,Win32,40.04485023,,,,,,,,,,,,,,,,,,,,,,,,,,,,,,,,,,,,,,,,,,,,,,,,,,,,clips,bucket,6,0,6,0,1,,,,,,,,,,,,,,,,,,,,,,,,,,,,,,,
,,,,,,,,,,,,,,,90115,001,2022-04-21_21h24.57.184,SPAMnetsValid,2021.1.4,Win32,40.04485023,,,,,,,,,,,,,,,,,,,,,,,,,,,,,,,,,,,,,,,,,,,,,,,,,,,,rocks,bucket,7,0,7,0,1,,,,,,,,,,,,,,,,,,,,,,,,,,,,,,,
,,,,,,,,,,,,,,,90115,001,2022-04-21_21h24.57.184,SPAMnetsValid,2021.1.4,Win32,40.04485023,,,,,,,,,,,,,,,,,,,,,,,,,,,,,,,,,,,,,,,,,,,,,,,,,,,,shoes,bucket,8,0,8,0,1,,,,,,,,,,,,,,,,,,,,,,,,,,,,,,,
,,,,,,,,,,,,,,,90115,001,2022-04-21_21h24.57.184,SPAMnetsValid,2021.1.4,Win32,40.04485023,,,,,,,,,,,,,,,,,,,,,,,,,,,,,,,,,,,,,,,,,,,,,,,,,,,,water bottles,bucket,9,0,9,0,1,,,,,,,,,,,,,,,,,,,,,,,,,,,,,,,
,,,,,,,,,,,,,,,90115,001,2022-04-21_21h24.57.184,SPAMnetsValid,2021.1.4,Win32,40.04485023,,,,,,,,,,,,,,,,,,,,,,,,,,,,,,,,,,,,,,,,,,,,,,,,,,,,decoration,bucket,10,0,10,0,1,,,,,,,,,,,,,,,,,,,,,,,,,,,,,,,
,,,,,,,,,,,,,,,90115,001,2022-04-21_21h24.57.184,SPAMnetsValid,2021.1.4,Win32,40.04485023,,,,,,,,,,,,,,,,,,,,,,,,,,,,,,,,,,,,,,,,,,,,,,,,,,,,plant holder,bucket,11,0,11,0,1,,,,,,,,,,,,,,,,,,,,,,,,,,,,,,,
,,,,,,,,,,,,,,,90115,001,2022-04-21_21h24.57.184,SPAMnetsValid,2021.1.4,Win32,40.04485023,,,,,,,,,,,,,,,,,,,,,,,,,,,,,,,,,,,,,,,,,,,,,,,,,,,,post holder filld with cement,bucket,12,0,12,0,1,,,,,,,,,,,,,,,,,,,,,,,,,,,,,,,
,,,,,,,,,,,,,,,90115,001,2022-04-21_21h24.57.184,SPAMnetsValid,2021.1.4,Win32,40.04485023,,,,,,,,,,,,,,,,,,,,,,,,,,,,,,,,,,,,,,,,,,,,,,,,,,,,ice,bucket,13,0,13,0,1,,,,,,,,,,,,,,,,,,,,,,,,,,,,,,,
,,,,,,,,,,,,,,,90115,001,2022-04-21_21h24.57.184,SPAMnetsValid,2021.1.4,Win32,40.04485023,,,,,,,,,,,,,,,,,,,,,,,,,,,,,,,,,,,,,,,,,,,,,,,,,,,,cans,bucket,14,0,14,0,1,,,,,,,,,,,,,,,,,,,,,,,,,,,,,,,
,,,,,,,,,,,,,,,90115,001,2022-04-21_21h24.57.184,SPAMnetsValid,2021.1.4,Win32,40.04485023,,,,,,,,,,,,,,,,,,,,,,,,,,,,,,,,,,,,,,,,,,,,,,,,,,,,glass,bucket,15,0,15,0,1,,,,,,,,,,,,,,,,,,,,,,,,,,,,,,,
,,,,,,,,,,,,,,,90115,001,2022-04-21_21h24.57.184,SPAMnetsValid,2021.1.4,Win32,40.04485023,,,,,,,,,,,,,,,,,,,,,,,,,,,,,,,,,,,,,,,,,,,,,,,,,,,,beer ,bucket,16,0,16,0,1,,,,,,,,,,,,,,,,,,,,,,,,,,,,,,,
,,,,,,,,,,,,,,,90115,001,2022-04-21_21h24.57.184,SPAMnetsValid,2021.1.4,Win32,40.04485023,,,,,,,,,,,,,,,,,,,,,,,,,,,,,,,,,,,,,,,,,,,,,,,,,,,,hold extension cords,bucket,17,0,17,0,1,,,,,,,,,,,,,,,,,,,,,,,,,,,,,,,
,,,,,,,,,,,,,,,90115,001,2022-04-21_21h24.57.184,SPAMnetsValid,2021.1.4,Win32,40.04485023,,,,,,,,,,,,,,,,,,,,,,,,,,,,,,,,,,,,,,,,,,,,,,,,,,,,wrap a hose around it,bucket,18,0,18,0,1,,,,,,,,,,,,,,,,,,,,,,,,,,,,,,,
,,,,,,,,,,,,,,,90115,001,2022-04-21_21h24.57.184,SPAMnetsValid,2021.1.4,Win32,40.04485023,,,,,,,,,,,,,,,,,,,,,,,,,,,,,,,,,,,,,,,,,,,,,,,,,,,,,,,,,,,0,0,0,0,1,bucket,,,,,,,,,,,,,,,,,,,,,,,,,
,,,,,,,,,,,,,,,90115,001,2022-04-21_21h24.57.184,SPAMnetsValid,2021.1.4,Win32,40.04485023,,,,,,,,,,,,,,,,,,,,,,,,,,,,,,,,,,,,,,,,,,,,,,,,,,,,sitting on,pillow,0,0,0,0,1,,,,,,,,,,,,,,,,,,,,,,,,,,,,,,,
,,,,,,,,,,,,,,,90115,001,2022-04-21_21h24.57.184,SPAMnetsValid,2021.1.4,Win32,40.04485023,,,,,,,,,,,,,,,,,,,,,,,,,,,,,,,,,,,,,,,,,,,,,,,,,,,,kneeling on,pillow,1,0,1,0,1,,,,,,,,,,,,,,,,,,,,,,,,,,,,,,,
,,,,,,,,,,,,,,,90115,001,2022-04-21_21h24.57.184,SPAMnetsValid,2021.1.4,Win32,40.04485023,,,,,,,,,,,,,,,,,,,,,,,,,,,,,,,,,,,,,,,,,,,,,,,,,,,,pillow fighting,pillow,2,0,2,0,1,,,,,,,,,,,,,,,,,,,,,,,,,,,,,,,
,,,,,,,,,,,,,,,90115,001,2022-04-21_21h24.57.184,SPAMnetsValid,2021.1.4,Win32,40.04485023,,,,,,,,,,,,,,,,,,,,,,,,,,,,,,,,,,,,,,,,,,,,,,,,,,,,decorations,pillow,3,0,3,0,1,,,,,,,,,,,,,,,,,,,,,,,,,,,,,,,
,,,,,,,,,,,,,,,90115,001,2022-04-21_21h24.57.184,SPAMnetsValid,2021.1.4,Win32,40.04485023,,,,,,,,,,,,,,,,,,,,,,,,,,,,,,,,,,,,,,,,,,,,,,,,,,,,stacked to make a bed,pillow,4,0,4,0,1,,,,,,,,,,,,,,,,,,,,,,,,,,,,,,,
,,,,,,,,,,,,,,,90115,001,2022-04-21_21h24.57.184,SPAMnetsValid,2021.1.4,Win32,40.04485023,,,,,,,,,,,,,,,,,,,,,,,,,,,,,,,,,,,,,,,,,,,,,,,,,,,,sewed together for a long body pillow,pillow,5,0,5,0,1,,,,,,,,,,,,,,,,,,,,,,,,,,,,,,,
,,,,,,,,,,,,,,,90115,001,2022-04-21_21h24.57.184,SPAMnetsValid,2021.1.4,Win32,40.04485023,,,,,,,,,,,,,,,,,,,,,,,,,,,,,,,,,,,,,,,,,,,,,,,,,,,,"taken apart, sewn together, used as a quilt",pillow,6,0,6,0,1,,,,,,,,,,,,,,,,,,,,,,,,,,,,,,,
,,,,,,,,,,,,,,,90115,001,2022-04-21_21h24.57.184,SPAMnetsValid,2021.1.4,Win32,40.04485023,,,,,,,,,,,,,,,,,,,,,,,,,,,,,,,,,,,,,,,,,,,,,,,,,,,,lap top cushion,pillow,7,0,7,0,1,,,,,,,,,,,,,,,,,,,,,,,,,,,,,,,
,,,,,,,,,,,,,,,90115,001,2022-04-21_21h24.57.184,SPAMnetsValid,2021.1.4,Win32,40.04485023,,,,,,,,,,,,,,,,,,,,,,,,,,,,,,,,,,,,,,,,,,,,,,,,,,,,"taken apart, sewn together as a curtain",pillow,8,0,8,0,1,,,,,,,,,,,,,,,,,,,,,,,,,,,,,,,
,,,,,,,,,,,,,,,90115,001,2022-04-21_21h24.57.184,SPAMnetsValid,2021.1.4,Win32,40.04485023,,,,,,,,,,,,,,,,,,,,,,,,,,,,,,,,,,,,,,,,,,,,,,,,,,,,taken apart sewn together as a curtain,pillow,9,0,9,0,1,,,,,,,,,,,,,,,,,,,,,,,,,,,,,,,
,,,,,,,,,,,,,,,90115,001,2022-04-21_21h24.57.184,SPAMnetsValid,2021.1.4,Win32,40.04485023,,,,,,,,,,,,,,,,,,,,,,,,,,,,,,,,,,,,,,,,,,,,,,,,,,,,,,,,,,,0,1,1,2,1,pillow,,,,,,,,,,,,,,,,,,,,,,,,,
,,,,,,,,,,,,,,,90115,001,2022-04-21_21h24.57.184,SPAMnetsValid,2021.1.4,Win32,40.04485023,,,,,,,,,,,,,,,,,,,,,,,,,,,,,,,,,,,,,,,,,,,,,,,,,,,,used for a light in a blackout,candle,0,0,0,0,1,,,,,,,,,,,,,,,,,,,,,,,,,,,,,,,
,,,,,,,,,,,,,,,90115,001,2022-04-21_21h24.57.184,SPAMnetsValid,2021.1.4,Win32,40.04485023,,,,,,,,,,,,,,,,,,,,,,,,,,,,,,,,,,,,,,,,,,,,,,,,,,,,melted down and mixed with others for new candles,candle,1,0,1,0,1,,,,,,,,,,,,,,,,,,,,,,,,,,,,,,,
,,,,,,,,,,,,,,,90115,001,2022-04-21_21h24.57.184,SPAMnetsValid,2021.1.4,Win32,40.04485023,,,,,,,,,,,,,,,,,,,,,,,,,,,,,,,,,,,,,,,,,,,,,,,,,,,,decorations,candle,2,0,2,0,1,,,,,,,,,,,,,,,,,,,,,,,,,,,,,,,
,,,,,,,,,,,,,,,90115,001,2022-04-21_21h24.57.184,SPAMnetsValid,2021.1.4,Win32,40.04485023,,,,,,,,,,,,,,,,,,,,,,,,,,,,,,,,,,,,,,,,,,,,,,,,,,,,hollowed out and used as napkin holders,candle,3,0,3,0,1,,,,,,,,,,,,,,,,,,,,,,,,,,,,,,,
,,,,,,,,,,,,,,,90115,001,2022-04-21_21h24.57.184,SPAMnetsValid,2021.1.4,Win32,40.04485023,,,,,,,,,,,,,,,,,,,,,,,,,,,,,,,,,,,,,,,,,,,,,,,,,,,,melted onto a canvas as art,candle,4,0,4,0,1,,,,,,,,,,,,,,,,,,,,,,,,,,,,,,,
,,,,,,,,,,,,,,,90115,001,2022-04-21_21h24.57.184,SPAMnetsValid,2021.1.4,Win32,40.04485023,,,,,,,,,,,,,,,,,,,,,,,,,,,,,,,,,,,,,,,,,,,,,,,,,,,,melted down to seal an envelope,candle,5,0,5,0,1,,,,,,,,,,,,,,,,,,,,,,,,,,,,,,,
,,,,,,,,,,,,,,,90115,001,2022-04-21_21h24.57.184,SPAMnetsValid,2021.1.4,Win32,40.04485023,,,,,,,,,,,,,,,,,,,,,,,,,,,,,,,,,,,,,,,,,,,,,,,,,,,,door stop,candle,6,0,6,0,1,,,,,,,,,,,,,,,,,,,,,,,,,,,,,,,
,,,,,,,,,,,,,,,90115,001,2022-04-21_21h24.57.184,SPAMnetsValid,2021.1.4,Win32,40.04485023,,,,,,,,,,,,,,,,,,,,,,,,,,,,,,,,,,,,,,,,,,,,,,,,,,,,weights for working out,candle,7,0,7,0,1,,,,,,,,,,,,,,,,,,,,,,,,,,,,,,,
,,,,,,,,,,,,,,,90115,001,2022-04-21_21h24.57.184,SPAMnetsValid,2021.1.4,Win32,40.04485023,,,,,,,,,,,,,,,,,,,,,,,,,,,,,,,,,,,,,,,,,,,,,,,,,,,,,,,,,,,0,2,2,1,1,candle,,,,,,,,,,,,,,,,,,,,,,,,,
,,,,,,,,,,,,,,,90115,001,2022-04-21_21h24.57.184,SPAMnetsValid,2021.1.4,Win32,40.04485023,,,,,,,,,,,,,,,,,,,,,,,,,,,,,,,,,,,,,,,,,,,,,,,,,,,,,,,,,,,,,,,,,bear,Animals,0,0,0,0,1,,,,,,,,,,,,,,,,,,
,,,,,,,,,,,,,,,90115,001,2022-04-21_21h24.57.184,SPAMnetsValid,2021.1.4,Win32,40.04485023,,,,,,,,,,,,,,,,,,,,,,,,,,,,,,,,,,,,,,,,,,,,,,,,,,,,,,,,,,,,,,,,,tiger,Animals,1,0,1,0,1,,,,,,,,,,,,,,,,,,
,,,,,,,,,,,,,,,90115,001,2022-04-21_21h24.57.184,SPAMnetsValid,2021.1.4,Win32,40.04485023,,,,,,,,,,,,,,,,,,,,,,,,,,,,,,,,,,,,,,,,,,,,,,,,,,,,,,,,,,,,,,,,,cheetah,Animals,2,0,2,0,1,,,,,,,,,,,,,,,,,,
,,,,,,,,,,,,,,,90115,001,2022-04-21_21h24.57.184,SPAMnetsValid,2021.1.4,Win32,40.04485023,,,,,,,,,,,,,,,,,,,,,,,,,,,,,,,,,,,,,,,,,,,,,,,,,,,,,,,,,,,,,,,,,giraffe,Animals,3,0,3,0,1,,,,,,,,,,,,,,,,,,
,,,,,,,,,,,,,,,90115,001,2022-04-21_21h24.57.184,SPAMnetsValid,2021.1.4,Win32,40.04485023,,,,,,,,,,,,,,,,,,,,,,,,,,,,,,,,,,,,,,,,,,,,,,,,,,,,,,,,,,,,,,,,,dog,Animals,4,0,4,0,1,,,,,,,,,,,,,,,,,,
,,,,,,,,,,,,,,,90115,001,2022-04-21_21h24.57.184,SPAMnetsValid,2021.1.4,Win32,40.04485023,,,,,,,,,,,,,,,,,,,,,,,,,,,,,,,,,,,,,,,,,,,,,,,,,,,,,,,,,,,,,,,,,cat,Animals,5,0,5,0,1,,,,,,,,,,,,,,,,,,
,,,,,,,,,,,,,,,90115,001,2022-04-21_21h24.57.184,SPAMnetsValid,2021.1.4,Win32,40.04485023,,,,,,,,,,,,,,,,,,,,,,,,,,,,,,,,,,,,,,,,,,,,,,,,,,,,,,,,,,,,,,,,,lizard,Animals,6,0,6,0,1,,,,,,,,,,,,,,,,,,
,,,,,,,,,,,,,,,90115,001,2022-04-21_21h24.57.184,SPAMnetsValid,2021.1.4,Win32,40.04485023,,,,,,,,,,,,,,,,,,,,,,,,,,,,,,,,,,,,,,,,,,,,,,,,,,,,,,,,,,,,,,,,,koala,Animals,7,0,7,0,1,,,,,,,,,,,,,,,,,,
,,,,,,,,,,,,,,,90115,001,2022-04-21_21h24.57.184,SPAMnetsValid,2021.1.4,Win32,40.04485023,,,,,,,,,,,,,,,,,,,,,,,,,,,,,,,,,,,,,,,,,,,,,,,,,,,,,,,,,,,,,,,,,mouse,Animals,8,0,8,0,1,,,,,,,,,,,,,,,,,,
,,,,,,,,,,,,,,,90115,001,2022-04-21_21h24.57.184,SPAMnetsValid,2021.1.4,Win32,40.04485023,,,,,,,,,,,,,,,,,,,,,,,,,,,,,,,,,,,,,,,,,,,,,,,,,,,,,,,,,,,,,,,,,seal,Animals,9,0,9,0,1,,,,,,,,,,,,,,,,,,
,,,,,,,,,,,,,,,90115,001,2022-04-21_21h24.57.184,SPAMnetsValid,2021.1.4,Win32,40.04485023,,,,,,,,,,,,,,,,,,,,,,,,,,,,,,,,,,,,,,,,,,,,,,,,,,,,,,,,,,,,,,,,,flamingo,Animals,10,0,10,0,1,,,,,,,,,,,,,,,,,,
,,,,,,,,,,,,,,,90115,001,2022-04-21_21h24.57.184,SPAMnetsValid,2021.1.4,Win32,40.04485023,,,,,,,,,,,,,,,,,,,,,,,,,,,,,,,,,,,,,,,,,,,,,,,,,,,,,,,,,,,,,,,,,duck,Animals,11,0,11,0,1,,,,,,,,,,,,,,,,,,
,,,,,,,,,,,,,,,90115,001,2022-04-21_21h24.57.184,SPAMnetsValid,2021.1.4,Win32,40.04485023,,,,,,,,,,,,,,,,,,,,,,,,,,,,,,,,,,,,,,,,,,,,,,,,,,,,,,,,,,,,,,,,,rabbit,Animals,12,0,12,0,1,,,,,,,,,,,,,,,,,,
,,,,,,,,,,,,,,,90115,001,2022-04-21_21h24.57.184,SPAMnetsValid,2021.1.4,Win32,40.04485023,,,,,,,,,,,,,,,,,,,,,,,,,,,,,,,,,,,,,,,,,,,,,,,,,,,,,,,,,,,,,,,,,goose,Animals,13,0,13,0,1,,,,,,,,,,,,,,,,,,
,,,,,,,,,,,,,,,90115,001,2022-04-21_21h24.57.184,SPAMnetsValid,2021.1.4,Win32,40.04485023,,,,,,,,,,,,,,,,,,,,,,,,,,,,,,,,,,,,,,,,,,,,,,,,,,,,,,,,,,,,,,,,,chimp,Animals,14,0,14,0,1,,,,,,,,,,,,,,,,,,
,,,,,,,,,,,,,,,90115,001,2022-04-21_21h24.57.184,SPAMnetsValid,2021.1.4,Win32,40.04485023,,,,,,,,,,,,,,,,,,,,,,,,,,,,,,,,,,,,,,,,,,,,,,,,,,,,,,,,,,,,,,,,,skunk,Animals,15,0,15,0,1,,,,,,,,,,,,,,,,,,
,,,,,,,,,,,,,,,90115,001,2022-04-21_21h24.57.184,SPAMnetsValid,2021.1.4,Win32,40.04485023,,,,,,,,,,,,,,,,,,,,,,,,,,,,,,,,,,,,,,,,,,,,,,,,,,,,,,,,,,,,,,,,,ostridge,Animals,16,0,16,0,1,,,,,,,,,,,,,,,,,,
,,,,,,,,,,,,,,,90115,001,2022-04-21_21h24.57.184,SPAMnetsValid,2021.1.4,Win32,40.04485023,,,,,,,,,,,,,,,,,,,,,,,,,,,,,,,,,,,,,,,,,,,,,,,,,,,,,,,,,,,,,,,,,elk,Animals,17,0,17,0,1,,,,,,,,,,,,,,,,,,
,,,,,,,,,,,,,,,90115,001,2022-04-21_21h24.57.184,SPAMnetsValid,2021.1.4,Win32,40.04485023,,,,,,,,,,,,,,,,,,,,,,,,,,,,,,,,,,,,,,,,,,,,,,,,,,,,,,,,,,,,,,,,,dear,Animals,18,0,18,0,1,,,,,,,,,,,,,,,,,,
,,,,,,,,,,,,,,,90115,001,2022-04-21_21h24.57.184,SPAMnetsValid,2021.1.4,Win32,40.04485023,,,,,,,,,,,,,,,,,,,,,,,,,,,,,,,,,,,,,,,,,,,,,,,,,,,,,,,,,,,,,,,,,ferret,Animals,19,0,19,0,1,,,,,,,,,,,,,,,,,,
,,,,,,,,,,,,,,,90115,001,2022-04-21_21h24.57.184,SPAMnetsValid,2021.1.4,Win32,40.04485023,,,,,,,,,,,,,,,,,,,,,,,,,,,,,,,,,,,,,,,,,,,,,,,,,,,,,,,,,,,,,,,,,alligator,Animals,20,0,20,0,1,,,,,,,,,,,,,,,,,,
,,,,,,,,,,,,,,,90115,001,2022-04-21_21h24.57.184,SPAMnetsValid,2021.1.4,Win32,40.04485023,,,,,,,,,,,,,,,,,,,,,,,,,,,,,,,,,,,,,,,,,,,,,,,,,,,,,,,,,,,,,,,,,snake,Animals,21,0,21,0,1,,,,,,,,,,,,,,,,,,
,,,,,,,,,,,,,,,90115,001,2022-04-21_21h24.57.184,SPAMnetsValid,2021.1.4,Win32,40.04485023,,,,,,,,,,,,,,,,,,,,,,,,,,,,,,,,,,,,,,,,,,,,,,,,,,,,,,,,,,,,,,,,,fish,Animals,22,0,22,0,1,,,,,,,,,,,,,,,,,,
,,,,,,,,,,,,,,,90115,001,2022-04-21_21h24.57.184,SPAMnetsValid,2021.1.4,Win32,40.04485023,,,,,,,,,,,,,,,,,,,,,,,,,,,,,,,,,,,,,,,,,,,,,,,,,,,,,,,,,,,,,,,,,,,,,,,,0,0,0,0,1,Animals,,,,,,,,,,,,
,,,,,,,,,,,,,,,90115,001,2022-04-21_21h24.57.184,SPAMnetsValid,2021.1.4,Win32,40.04485023,,,,,,,,,,,,,,,,,,,,,,,,,,,,,,,,,,,,,,,,,,,,,,,,,,,,,,,,,,,,,,,,,,,,,,,,,,,,,,4,9.5423,0,0,0,0,1,"I enjoy concentrating on a fantasy or daydream and exploring all its possibilities, letting it grow and develop.",0,1,,
,,,,,,,,,,,,,,,90115,001,2022-04-21_21h24.57.184,SPAMnetsValid,2021.1.4,Win32,40.04485023,,,,,,,,,,,,,,,,,,,,,,,,,,,,,,,,,,,,,,,,,,,,,,,,,,,,,,,,,,,,,,,,,,,,,,,,,,,,,,4,3.07,0,1,1,1,1,I think it's interesting to learn and develop new hobbies.,0,2,,
,,,,,,,,,,,,,,,90115,001,2022-04-21_21h24.57.184,SPAMnetsValid,2021.1.4,Win32,40.04485023,,,,,,,,,,,,,,,,,,,,,,,,,,,,,,,,,,,,,,,,,,,,,,,,,,,,,,,,,,,,,,,,,,,,,,,,,,,,,,2,4.4638,0,2,2,2,1,I am intrigued by the patterns I find in art and nature.,0,3,,
,,,,,,,,,,,,,,,90115,001,2022-04-21_21h24.57.184,SPAMnetsValid,2021.1.4,Win32,40.04485023,,,,,,,,,,,,,,,,,,,,,,,,,,,,,,,,,,,,,,,,,,,,,,,,,,,,,,,,,,,,,,,,,,,,,,,,,,,,,,4,4.9606,0,3,3,3,1,I believe letting students hear controversial speakers can only confuse and mislead them.,1,4,,
,,,,,,,,,,,,,,,90115,001,2022-04-21_21h24.57.184,SPAMnetsValid,2021.1.4,Win32,40.04485023,,,,,,,,,,,,,,,,,,,,,,,,,,,,,,,,,,,,,,,,,,,,,,,,,,,,,,,,,,,,,,,,,,,,,,,,,,,,,,4,2.6907,0,4,4,4,1,Poetry has little or no effect on me.,1,5,,
,,,,,,,,,,,,,,,90115,001,2022-04-21_21h24.57.184,SPAMnetsValid,2021.1.4,Win32,40.04485023,,,,,,,,,,,,,,,,,,,,,,,,,,,,,,,,,,,,,,,,,,,,,,,,,,,,,,,,,,,,,,,,,,,,,,,,,,,,,,1,5.2181,0,5,5,5,1,I would have difficulty just letting my mind wander without control or guidance.,1,6,,
,,,,,,,,,,,,,,,90115,001,2022-04-21_21h24.57.184,SPAMnetsValid,2021.1.4,Win32,40.04485023,,,,,,,,,,,,,,,,,,,,,,,,,,,,,,,,,,,,,,,,,,,,,,,,,,,,,,,,,,,,,,,,,,,,,,,,,,,,,,1,5.109,0,6,6,6,1,I seldom notice the moods or feelings that different environments produce.,1,7,,
,,,,,,,,,,,,,,,90115,001,2022-04-21_21h24.57.184,SPAMnetsValid,2021.1.4,Win32,40.04485023,,,,,,,,,,,,,,,,,,,,,,,,,,,,,,,,,,,,,,,,,,,,,,,,,,,,,,,,,,,,,,,,,,,,,,,,,,,,,,4,3.7519,0,7,7,7,1,I experience a wide range of emotions or feelings.,0,8,,
,,,,,,,,,,,,,,,90115,001,2022-04-21_21h24.57.184,SPAMnetsValid,2021.1.4,Win32,40.04485023,,,,,,,,,,,,,,,,,,,,,,,,,,,,,,,,,,,,,,,,,,,,,,,,,,,,,,,,,,,,,,,,,,,,,,,,,,,,,,3,8.0223,0,8,8,8,1,"Sometimes when I am reading poetry or looking at a work of art, I feel a chill or wave of excitement.",0,9,,
,,,,,,,,,,,,,,,90115,001,2022-04-21_21h24.57.184,SPAMnetsValid,2021.1.4,Win32,40.04485023,,,,,,,,,,,,,,,,,,,,,,,,,,,,,,,,,,,,,,,,,,,,,,,,,,,,,,,,,,,,,,,,,,,,,,,,,,,,,,2,7.1586,0,9,9,9,1,I have little interest in speculating on the nature of the universe or the human condition.,1,10,,
,,,,,,,,,,,,,,,90115,001,2022-04-21_21h24.57.184,SPAMnetsValid,2021.1.4,Win32,40.04485023,,,,,,,,,,,,,,,,,,,,,,,,,,,,,,,,,,,,,,,,,,,,,,,,,,,,,,,,,,,,,,,,,,,,,,,,,,,,,,4,2.8092,0,10,10,10,1,I have a lot of intellectual curiosity.,0,11,,
,,,,,,,,,,,,,,,90115,001,2022-04-21_21h24.57.184,SPAMnetsValid,2021.1.4,Win32,40.04485023,,,,,,,,,,,,,,,,,,,,,,,,,,,,,,,,,,,,,,,,,,,,,,,,,,,,,,,,,,,,,,,,,,,,,,,,,,,,,,4,4.2065,0,11,11,11,1,I often enjoy playing with theories or abstract ideas.,0,12,,
,,,,,,,,,,,,,,,90115,001,2022-04-21_21h24.57.184,SPAMnetsValid,2021.1.4,Win32,40.04485023,,,,,,,,,,,,,,,,,,,,,,,,,,,,,,,,,,,,,,,,,,,,,,,,,,,,,,,,,,,,,,,,,,,,,,,,,,,,,,,,,,,,,,,,return,16.2604
