key_resp_3.keys,key_resp_3.rt,slider.response,slider.rt,rjt_rating,rjt_RT,trials_22.thisRepN,trials_22.thisTrialN,trials_22.thisN,trials_22.thisIndex,trials_22.ran,rjt_order,word1,word2,attention,participant,session,date,expName,psychopyVersion,OS,frameRate,trials_99.thisRepN,trials_99.thisTrialN,trials_99.thisN,trials_99.thisIndex,trials_99.ran,trials_5.thisRepN,trials_5.thisTrialN,trials_5.thisN,trials_5.thisIndex,trials_5.ran,repOne,repTwo,slider_2.response,slider_2.rt,trials_24.thisRepN,trials_24.thisTrialN,trials_24.thisN,trials_24.thisIndex,trials_24.ran,trials_4.thisRepN,trials_4.thisTrialN,trials_4.thisN,trials_4.thisIndex,trials_4.ran,slider_extend_2.response,slider_extend_2.rt,trials_6.thisRepN,trials_6.thisTrialN,trials_6.thisN,trials_6.thisIndex,trials_6.ran,vCue2,R1,R2,R3,R4,correct,sliderVocab.response,sliderVocab.rt,trials_7.thisRepN,trials_7.thisTrialN,trials_7.thisN,trials_7.thisIndex,trials_7.ran,VocabCue,VR1,VR2,VR3,VR4,VR5,VocabCorrect,AUT_resp,AUT_label,trials.thisRepN,trials.thisTrialN,trials.thisN,trials.thisIndex,trials.ran,trials_2.thisRepN,trials_2.thisTrialN,trials_2.thisN,trials_2.thisIndex,trials_2.ran,aut_prompt,VF_response,VF_tag,trials_16.thisRepN,trials_16.thisTrialN,trials_16.thisN,trials_16.thisIndex,trials_16.ran,trials_17.thisRepN,trials_17.thisTrialN,trials_17.thisN,trials_17.thisIndex,trials_17.ran,VFcond,open_slider.response,open_slider.rt,trials_3.thisRepN,trials_3.thisTrialN,trials_3.thisN,trials_3.thisIndex,trials_3.ran,OpenQ,Rev,OPEN_ORDER,key_resp_2.keys,key_resp_2.rt
return,4.223,3,3.314,3,3.314,0,0,0,32,1,40,broom,cake,,90120,001,2022-04-25_12h02.21.825,SPAMnetsValid,2021.1.4,MacIntel,58.82352941,,,,,,,,,,,,,,,,,,,,,,,,,,,,,,,,,,,,,,,,,,,,,,,,,,,,,,,,,,,,,,,,,,,,,,,,,,,,,,,,,,,,,,,,,
,,6,2.362,6,2.362,0,1,1,63,1,21,cake,onion,,90120,001,2022-04-25_12h02.21.825,SPAMnetsValid,2021.1.4,MacIntel,58.82352941,,,,,,,,,,,,,,,,,,,,,,,,,,,,,,,,,,,,,,,,,,,,,,,,,,,,,,,,,,,,,,,,,,,,,,,,,,,,,,,,,,,,,,,,,
,,6,5.146,6,5.146,0,2,2,73,1,50,carrot,rose,,90120,001,2022-04-25_12h02.21.825,SPAMnetsValid,2021.1.4,MacIntel,58.82352941,,,,,,,,,,,,,,,,,,,,,,,,,,,,,,,,,,,,,,,,,,,,,,,,,,,,,,,,,,,,,,,,,,,,,,,,,,,,,,,,,,,,,,,,,
,,8,1.542,8,1.542,0,3,3,93,1,63,cake,cookie,,90120,001,2022-04-25_12h02.21.825,SPAMnetsValid,2021.1.4,MacIntel,58.82352941,,,,,,,,,,,,,,,,,,,,,,,,,,,,,,,,,,,,,,,,,,,,,,,,,,,,,,,,,,,,,,,,,,,,,,,,,,,,,,,,,,,,,,,,,
,,2,1.508,2,1.508,0,4,4,18,1,85,cake,tree,,90120,001,2022-04-25_12h02.21.825,SPAMnetsValid,2021.1.4,MacIntel,58.82352941,,,,,,,,,,,,,,,,,,,,,,,,,,,,,,,,,,,,,,,,,,,,,,,,,,,,,,,,,,,,,,,,,,,,,,,,,,,,,,,,,,,,,,,,,
,,8,1.8,8,1.8,0,5,5,87,1,79,garden,strawberry,,90120,001,2022-04-25_12h02.21.825,SPAMnetsValid,2021.1.4,MacIntel,58.82352941,,,,,,,,,,,,,,,,,,,,,,,,,,,,,,,,,,,,,,,,,,,,,,,,,,,,,,,,,,,,,,,,,,,,,,,,,,,,,,,,,,,,,,,,,
,,9,1.857,9,1.857,0,6,6,2,1,22,kitchen,strawberry,,90120,001,2022-04-25_12h02.21.825,SPAMnetsValid,2021.1.4,MacIntel,58.82352941,,,,,,,,,,,,,,,,,,,,,,,,,,,,,,,,,,,,,,,,,,,,,,,,,,,,,,,,,,,,,,,,,,,,,,,,,,,,,,,,,,,,,,,,,
,,3,2.092,3,2.092,0,7,7,1,1,31,cactus,pretzel,,90120,001,2022-04-25_12h02.21.825,SPAMnetsValid,2021.1.4,MacIntel,58.82352941,,,,,,,,,,,,,,,,,,,,,,,,,,,,,,,,,,,,,,,,,,,,,,,,,,,,,,,,,,,,,,,,,,,,,,,,,,,,,,,,,,,,,,,,,
,,3,1.732,3,1.732,0,8,8,65,1,46,garden,yogurt,,90120,001,2022-04-25_12h02.21.825,SPAMnetsValid,2021.1.4,MacIntel,58.82352941,,,,,,,,,,,,,,,,,,,,,,,,,,,,,,,,,,,,,,,,,,,,,,,,,,,,,,,,,,,,,,,,,,,,,,,,,,,,,,,,,,,,,,,,,
,,9,1.777,9,1.777,0,9,9,82,1,93,kitchen,oven,,90120,001,2022-04-25_12h02.21.825,SPAMnetsValid,2021.1.4,MacIntel,58.82352941,,,,,,,,,,,,,,,,,,,,,,,,,,,,,,,,,,,,,,,,,,,,,,,,,,,,,,,,,,,,,,,,,,,,,,,,,,,,,,,,,,,,,,,,,
,,9,1.711,9,1.711,0,10,10,66,1,20,rose,tree,,90120,001,2022-04-25_12h02.21.825,SPAMnetsValid,2021.1.4,MacIntel,58.82352941,,,,,,,,,,,,,,,,,,,,,,,,,,,,,,,,,,,,,,,,,,,,,,,,,,,,,,,,,,,,,,,,,,,,,,,,,,,,,,,,,,,,,,,,,
,,9,1.142,9,1.142,0,11,11,51,1,47,onion,tomato,,90120,001,2022-04-25_12h02.21.825,SPAMnetsValid,2021.1.4,MacIntel,58.82352941,,,,,,,,,,,,,,,,,,,,,,,,,,,,,,,,,,,,,,,,,,,,,,,,,,,,,,,,,,,,,,,,,,,,,,,,,,,,,,,,,,,,,,,,,
,,4,2.053,4,2.053,0,12,12,89,1,80,chocolate,tree,,90120,001,2022-04-25_12h02.21.825,SPAMnetsValid,2021.1.4,MacIntel,58.82352941,,,,,,,,,,,,,,,,,,,,,,,,,,,,,,,,,,,,,,,,,,,,,,,,,,,,,,,,,,,,,,,,,,,,,,,,,,,,,,,,,,,,,,,,,
,,7,1.572,7,1.572,0,13,13,75,1,69,carrot,refrigerator,,90120,001,2022-04-25_12h02.21.825,SPAMnetsValid,2021.1.4,MacIntel,58.82352941,,,,,,,,,,,,,,,,,,,,,,,,,,,,,,,,,,,,,,,,,,,,,,,,,,,,,,,,,,,,,,,,,,,,,,,,,,,,,,,,,,,,,,,,,
,,7,1.394,7,1.394,0,14,14,58,1,94,kitchen,microwave,,90120,001,2022-04-25_12h02.21.825,SPAMnetsValid,2021.1.4,MacIntel,58.82352941,,,,,,,,,,,,,,,,,,,,,,,,,,,,,,,,,,,,,,,,,,,,,,,,,,,,,,,,,,,,,,,,,,,,,,,,,,,,,,,,,,,,,,,,,
,,1,1.914,1,1.914,0,15,15,17,1,27,cactus,cookie,,90120,001,2022-04-25_12h02.21.825,SPAMnetsValid,2021.1.4,MacIntel,58.82352941,,,,,,,,,,,,,,,,,,,,,,,,,,,,,,,,,,,,,,,,,,,,,,,,,,,,,,,,,,,,,,,,,,,,,,,,,,,,,,,,,,,,,,,,,
,,3,1.711,3,1.711,0,16,16,45,1,10,flower,onion,,90120,001,2022-04-25_12h02.21.825,SPAMnetsValid,2021.1.4,MacIntel,58.82352941,,,,,,,,,,,,,,,,,,,,,,,,,,,,,,,,,,,,,,,,,,,,,,,,,,,,,,,,,,,,,,,,,,,,,,,,,,,,,,,,,,,,,,,,,
,,9,1.126,9,1.126,0,17,17,72,1,59,rose,strawberry,,90120,001,2022-04-25_12h02.21.825,SPAMnetsValid,2021.1.4,MacIntel,58.82352941,,,,,,,,,,,,,,,,,,,,,,,,,,,,,,,,,,,,,,,,,,,,,,,,,,,,,,,,,,,,,,,,,,,,,,,,,,,,,,,,,,,,,,,,,
,,4,2.042,4,2.042,0,18,18,46,1,41,broom,cactus,,90120,001,2022-04-25_12h02.21.825,SPAMnetsValid,2021.1.4,MacIntel,58.82352941,,,,,,,,,,,,,,,,,,,,,,,,,,,,,,,,,,,,,,,,,,,,,,,,,,,,,,,,,,,,,,,,,,,,,,,,,,,,,,,,,,,,,,,,,
,,8,1.349,8,1.349,0,19,19,67,1,54,chocolate,yogurt,,90120,001,2022-04-25_12h02.21.825,SPAMnetsValid,2021.1.4,MacIntel,58.82352941,,,,,,,,,,,,,,,,,,,,,,,,,,,,,,,,,,,,,,,,,,,,,,,,,,,,,,,,,,,,,,,,,,,,,,,,,,,,,,,,,,,,,,,,,
,,7,1.358,7,1.358,0,20,20,9,1,75,cookie,onion,,90120,001,2022-04-25_12h02.21.825,SPAMnetsValid,2021.1.4,MacIntel,58.82352941,,,,,,,,,,,,,,,,,,,,,,,,,,,,,,,,,,,,,,,,,,,,,,,,,,,,,,,,,,,,,,,,,,,,,,,,,,,,,,,,,,,,,,,,,
,,2,1.719,2,1.719,0,21,21,25,1,23,flower,microwave,,90120,001,2022-04-25_12h02.21.825,SPAMnetsValid,2021.1.4,MacIntel,58.82352941,,,,,,,,,,,,,,,,,,,,,,,,,,,,,,,,,,,,,,,,,,,,,,,,,,,,,,,,,,,,,,,,,,,,,,,,,,,,,,,,,,,,,,,,,
,,2,2.115,2,2.115,0,22,22,14,1,64,chocolate,garden,,90120,001,2022-04-25_12h02.21.825,SPAMnetsValid,2021.1.4,MacIntel,58.82352941,,,,,,,,,,,,,,,,,,,,,,,,,,,,,,,,,,,,,,,,,,,,,,,,,,,,,,,,,,,,,,,,,,,,,,,,,,,,,,,,,,,,,,,,,
,,1,1.459,1,1.459,0,23,23,81,1,60,cactus,onion,,90120,001,2022-04-25_12h02.21.825,SPAMnetsValid,2021.1.4,MacIntel,58.82352941,,,,,,,,,,,,,,,,,,,,,,,,,,,,,,,,,,,,,,,,,,,,,,,,,,,,,,,,,,,,,,,,,,,,,,,,,,,,,,,,,,,,,,,,,
,,9,1.372,9,1.372,0,24,24,53,1,192,microwave,microwave,CHECK,90120,001,2022-04-25_12h02.21.825,SPAMnetsValid,2021.1.4,MacIntel,58.82352941,,,,,,,,,,,,,,,,,,,,,,,,,,,,,,,,,,,,,,,,,,,,,,,,,,,,,,,,,,,,,,,,,,,,,,,,,,,,,,,,,,,,,,,,,
,,9,1.716,9,1.716,0,25,25,42,1,77,refrigerator,yogurt,,90120,001,2022-04-25_12h02.21.825,SPAMnetsValid,2021.1.4,MacIntel,58.82352941,,,,,,,,,,,,,,,,,,,,,,,,,,,,,,,,,,,,,,,,,,,,,,,,,,,,,,,,,,,,,,,,,,,,,,,,,,,,,,,,,,,,,,,,,
,,9,1.353,9,1.353,0,26,26,10,1,191,cake,cake,CHECK,90120,001,2022-04-25_12h02.21.825,SPAMnetsValid,2021.1.4,MacIntel,58.82352941,,,,,,,,,,,,,,,,,,,,,,,,,,,,,,,,,,,,,,,,,,,,,,,,,,,,,,,,,,,,,,,,,,,,,,,,,,,,,,,,,,,,,,,,,
,,6,1.474,6,1.474,0,27,27,8,1,43,chocolate,tomato,,90120,001,2022-04-25_12h02.21.825,SPAMnetsValid,2021.1.4,MacIntel,58.82352941,,,,,,,,,,,,,,,,,,,,,,,,,,,,,,,,,,,,,,,,,,,,,,,,,,,,,,,,,,,,,,,,,,,,,,,,,,,,,,,,,,,,,,,,,
,,6,3.023,6,3.023,0,28,28,29,1,42,garden,kitchen,,90120,001,2022-04-25_12h02.21.825,SPAMnetsValid,2021.1.4,MacIntel,58.82352941,,,,,,,,,,,,,,,,,,,,,,,,,,,,,,,,,,,,,,,,,,,,,,,,,,,,,,,,,,,,,,,,,,,,,,,,,,,,,,,,,,,,,,,,,
,,7,1.061,7,1.061,0,29,29,55,1,1,rose,yogurt,,90120,001,2022-04-25_12h02.21.825,SPAMnetsValid,2021.1.4,MacIntel,58.82352941,,,,,,,,,,,,,,,,,,,,,,,,,,,,,,,,,,,,,,,,,,,,,,,,,,,,,,,,,,,,,,,,,,,,,,,,,,,,,,,,,,,,,,,,,
,,6,2.026,6,2.026,0,30,30,50,1,81,pretzel,yogurt,,90120,001,2022-04-25_12h02.21.825,SPAMnetsValid,2021.1.4,MacIntel,58.82352941,,,,,,,,,,,,,,,,,,,,,,,,,,,,,,,,,,,,,,,,,,,,,,,,,,,,,,,,,,,,,,,,,,,,,,,,,,,,,,,,,,,,,,,,,
,,3,1.849,3,1.849,0,31,31,7,1,34,melon,oven,,90120,001,2022-04-25_12h02.21.825,SPAMnetsValid,2021.1.4,MacIntel,58.82352941,,,,,,,,,,,,,,,,,,,,,,,,,,,,,,,,,,,,,,,,,,,,,,,,,,,,,,,,,,,,,,,,,,,,,,,,,,,,,,,,,,,,,,,,,
,,3,1.666,3,1.666,0,32,32,37,1,58,garden,oven,,90120,001,2022-04-25_12h02.21.825,SPAMnetsValid,2021.1.4,MacIntel,58.82352941,,,,,,,,,,,,,,,,,,,,,,,,,,,,,,,,,,,,,,,,,,,,,,,,,,,,,,,,,,,,,,,,,,,,,,,,,,,,,,,,,,,,,,,,,
,,9,1.272,9,1.272,0,33,33,80,1,61,strawberry,tomato,,90120,001,2022-04-25_12h02.21.825,SPAMnetsValid,2021.1.4,MacIntel,58.82352941,,,,,,,,,,,,,,,,,,,,,,,,,,,,,,,,,,,,,,,,,,,,,,,,,,,,,,,,,,,,,,,,,,,,,,,,,,,,,,,,,,,,,,,,,
,,7,1.133,7,1.133,0,34,34,19,1,76,garden,rose,,90120,001,2022-04-25_12h02.21.825,SPAMnetsValid,2021.1.4,MacIntel,58.82352941,,,,,,,,,,,,,,,,,,,,,,,,,,,,,,,,,,,,,,,,,,,,,,,,,,,,,,,,,,,,,,,,,,,,,,,,,,,,,,,,,,,,,,,,,
,,7,2.132,7,2.132,0,35,35,13,1,26,tomato,yogurt,,90120,001,2022-04-25_12h02.21.825,SPAMnetsValid,2021.1.4,MacIntel,58.82352941,,,,,,,,,,,,,,,,,,,,,,,,,,,,,,,,,,,,,,,,,,,,,,,,,,,,,,,,,,,,,,,,,,,,,,,,,,,,,,,,,,,,,,,,,
,,7,0.51,7,0.51,0,36,36,57,1,62,kitchen,rose,,90120,001,2022-04-25_12h02.21.825,SPAMnetsValid,2021.1.4,MacIntel,58.82352941,,,,,,,,,,,,,,,,,,,,,,,,,,,,,,,,,,,,,,,,,,,,,,,,,,,,,,,,,,,,,,,,,,,,,,,,,,,,,,,,,,,,,,,,,
,,7,0.836,7,0.836,0,37,37,95,1,52,carrot,tomato,,90120,001,2022-04-25_12h02.21.825,SPAMnetsValid,2021.1.4,MacIntel,58.82352941,,,,,,,,,,,,,,,,,,,,,,,,,,,,,,,,,,,,,,,,,,,,,,,,,,,,,,,,,,,,,,,,,,,,,,,,,,,,,,,,,,,,,,,,,
,,4,1.279,4,1.279,0,38,38,26,1,35,flower,pretzel,,90120,001,2022-04-25_12h02.21.825,SPAMnetsValid,2021.1.4,MacIntel,58.82352941,,,,,,,,,,,,,,,,,,,,,,,,,,,,,,,,,,,,,,,,,,,,,,,,,,,,,,,,,,,,,,,,,,,,,,,,,,,,,,,,,,,,,,,,,
,,3,1.322,3,1.322,0,39,39,28,1,84,oven,tomato,,90120,001,2022-04-25_12h02.21.825,SPAMnetsValid,2021.1.4,MacIntel,58.82352941,,,,,,,,,,,,,,,,,,,,,,,,,,,,,,,,,,,,,,,,,,,,,,,,,,,,,,,,,,,,,,,,,,,,,,,,,,,,,,,,,,,,,,,,,
,,7,1.25,7,1.25,0,40,40,15,1,48,flower,oven,,90120,001,2022-04-25_12h02.21.825,SPAMnetsValid,2021.1.4,MacIntel,58.82352941,,,,,,,,,,,,,,,,,,,,,,,,,,,,,,,,,,,,,,,,,,,,,,,,,,,,,,,,,,,,,,,,,,,,,,,,,,,,,,,,,,,,,,,,,
,,3,1.443,3,1.443,0,41,41,59,1,8,broom,melon,,90120,001,2022-04-25_12h02.21.825,SPAMnetsValid,2021.1.4,MacIntel,58.82352941,,,,,,,,,,,,,,,,,,,,,,,,,,,,,,,,,,,,,,,,,,,,,,,,,,,,,,,,,,,,,,,,,,,,,,,,,,,,,,,,,,,,,,,,,
,,7,2.612,7,2.612,0,42,42,3,1,49,flower,strawberry,,90120,001,2022-04-25_12h02.21.825,SPAMnetsValid,2021.1.4,MacIntel,58.82352941,,,,,,,,,,,,,,,,,,,,,,,,,,,,,,,,,,,,,,,,,,,,,,,,,,,,,,,,,,,,,,,,,,,,,,,,,,,,,,,,,,,,,,,,,
,,7,1.456,7,1.456,0,43,43,34,1,29,chocolate,melon,,90120,001,2022-04-25_12h02.21.825,SPAMnetsValid,2021.1.4,MacIntel,58.82352941,,,,,,,,,,,,,,,,,,,,,,,,,,,,,,,,,,,,,,,,,,,,,,,,,,,,,,,,,,,,,,,,,,,,,,,,,,,,,,,,,,,,,,,,,
,,7,2.245,7,2.245,0,44,44,71,1,38,pretzel,refrigerator,,90120,001,2022-04-25_12h02.21.825,SPAMnetsValid,2021.1.4,MacIntel,58.82352941,,,,,,,,,,,,,,,,,,,,,,,,,,,,,,,,,,,,,,,,,,,,,,,,,,,,,,,,,,,,,,,,,,,,,,,,,,,,,,,,,,,,,,,,,
,,3,1.694,3,1.694,0,45,45,84,1,91,microwave,rose,,90120,001,2022-04-25_12h02.21.825,SPAMnetsValid,2021.1.4,MacIntel,58.82352941,,,,,,,,,,,,,,,,,,,,,,,,,,,,,,,,,,,,,,,,,,,,,,,,,,,,,,,,,,,,,,,,,,,,,,,,,,,,,,,,,,,,,,,,,
,,3,1.301,3,1.301,0,46,46,22,1,16,chocolate,flower,,90120,001,2022-04-25_12h02.21.825,SPAMnetsValid,2021.1.4,MacIntel,58.82352941,,,,,,,,,,,,,,,,,,,,,,,,,,,,,,,,,,,,,,,,,,,,,,,,,,,,,,,,,,,,,,,,,,,,,,,,,,,,,,,,,,,,,,,,,
,,3,1.345,3,1.345,0,47,47,5,1,13,broom,yogurt,,90120,001,2022-04-25_12h02.21.825,SPAMnetsValid,2021.1.4,MacIntel,58.82352941,,,,,,,,,,,,,,,,,,,,,,,,,,,,,,,,,,,,,,,,,,,,,,,,,,,,,,,,,,,,,,,,,,,,,,,,,,,,,,,,,,,,,,,,,
,,8,1.137,8,1.137,0,48,48,78,1,30,cookie,pretzel,,90120,001,2022-04-25_12h02.21.825,SPAMnetsValid,2021.1.4,MacIntel,58.82352941,,,,,,,,,,,,,,,,,,,,,,,,,,,,,,,,,,,,,,,,,,,,,,,,,,,,,,,,,,,,,,,,,,,,,,,,,,,,,,,,,,,,,,,,,
,,3,1.098,3,1.098,0,49,49,0,1,53,garden,pretzel,,90120,001,2022-04-25_12h02.21.825,SPAMnetsValid,2021.1.4,MacIntel,58.82352941,,,,,,,,,,,,,,,,,,,,,,,,,,,,,,,,,,,,,,,,,,,,,,,,,,,,,,,,,,,,,,,,,,,,,,,,,,,,,,,,,,,,,,,,,
,,7,1.157,7,1.157,0,50,50,69,1,45,onion,pretzel,,90120,001,2022-04-25_12h02.21.825,SPAMnetsValid,2021.1.4,MacIntel,58.82352941,,,,,,,,,,,,,,,,,,,,,,,,,,,,,,,,,,,,,,,,,,,,,,,,,,,,,,,,,,,,,,,,,,,,,,,,,,,,,,,,,,,,,,,,,
,,8,1.047,8,1.047,0,51,51,20,1,39,melon,pretzel,,90120,001,2022-04-25_12h02.21.825,SPAMnetsValid,2021.1.4,MacIntel,58.82352941,,,,,,,,,,,,,,,,,,,,,,,,,,,,,,,,,,,,,,,,,,,,,,,,,,,,,,,,,,,,,,,,,,,,,,,,,,,,,,,,,,,,,,,,,
,,3,1.456,3,1.456,0,52,52,56,1,78,cookie,rose,,90120,001,2022-04-25_12h02.21.825,SPAMnetsValid,2021.1.4,MacIntel,58.82352941,,,,,,,,,,,,,,,,,,,,,,,,,,,,,,,,,,,,,,,,,,,,,,,,,,,,,,,,,,,,,,,,,,,,,,,,,,,,,,,,,,,,,,,,,
,,3,1.954,3,1.954,0,53,53,47,1,73,broom,chocolate,,90120,001,2022-04-25_12h02.21.825,SPAMnetsValid,2021.1.4,MacIntel,58.82352941,,,,,,,,,,,,,,,,,,,,,,,,,,,,,,,,,,,,,,,,,,,,,,,,,,,,,,,,,,,,,,,,,,,,,,,,,,,,,,,,,,,,,,,,,
,,9,1.538,9,1.538,0,54,54,33,1,32,cake,microwave,,90120,001,2022-04-25_12h02.21.825,SPAMnetsValid,2021.1.4,MacIntel,58.82352941,,,,,,,,,,,,,,,,,,,,,,,,,,,,,,,,,,,,,,,,,,,,,,,,,,,,,,,,,,,,,,,,,,,,,,,,,,,,,,,,,,,,,,,,,
,,4,1.569,4,1.569,0,55,55,61,1,71,broom,rose,,90120,001,2022-04-25_12h02.21.825,SPAMnetsValid,2021.1.4,MacIntel,58.82352941,,,,,,,,,,,,,,,,,,,,,,,,,,,,,,,,,,,,,,,,,,,,,,,,,,,,,,,,,,,,,,,,,,,,,,,,,,,,,,,,,,,,,,,,,
,,8,1.209,8,1.209,0,56,56,74,1,70,chocolate,onion,,90120,001,2022-04-25_12h02.21.825,SPAMnetsValid,2021.1.4,MacIntel,58.82352941,,,,,,,,,,,,,,,,,,,,,,,,,,,,,,,,,,,,,,,,,,,,,,,,,,,,,,,,,,,,,,,,,,,,,,,,,,,,,,,,,,,,,,,,,
,,7,1.111,7,1.111,0,57,57,91,1,2,kitchen,onion,,90120,001,2022-04-25_12h02.21.825,SPAMnetsValid,2021.1.4,MacIntel,58.82352941,,,,,,,,,,,,,,,,,,,,,,,,,,,,,,,,,,,,,,,,,,,,,,,,,,,,,,,,,,,,,,,,,,,,,,,,,,,,,,,,,,,,,,,,,
,,7,1.542,7,1.542,0,58,58,49,1,57,flower,kitchen,,90120,001,2022-04-25_12h02.21.825,SPAMnetsValid,2021.1.4,MacIntel,58.82352941,,,,,,,,,,,,,,,,,,,,,,,,,,,,,,,,,,,,,,,,,,,,,,,,,,,,,,,,,,,,,,,,,,,,,,,,,,,,,,,,,,,,,,,,,
,,7,1.123,7,1.123,0,59,59,68,1,24,cookie,tomato,,90120,001,2022-04-25_12h02.21.825,SPAMnetsValid,2021.1.4,MacIntel,58.82352941,,,,,,,,,,,,,,,,,,,,,,,,,,,,,,,,,,,,,,,,,,,,,,,,,,,,,,,,,,,,,,,,,,,,,,,,,,,,,,,,,,,,,,,,,
,,2,2.58,2,2.58,0,60,60,90,1,95,broom,refrigerator,,90120,001,2022-04-25_12h02.21.825,SPAMnetsValid,2021.1.4,MacIntel,58.82352941,,,,,,,,,,,,,,,,,,,,,,,,,,,,,,,,,,,,,,,,,,,,,,,,,,,,,,,,,,,,,,,,,,,,,,,,,,,,,,,,,,,,,,,,,
,,2,1.41,2,1.41,0,61,61,88,1,92,broom,flower,,90120,001,2022-04-25_12h02.21.825,SPAMnetsValid,2021.1.4,MacIntel,58.82352941,,,,,,,,,,,,,,,,,,,,,,,,,,,,,,,,,,,,,,,,,,,,,,,,,,,,,,,,,,,,,,,,,,,,,,,,,,,,,,,,,,,,,,,,,
,,6,1.579,6,1.579,0,62,62,77,1,7,melon,tree,,90120,001,2022-04-25_12h02.21.825,SPAMnetsValid,2021.1.4,MacIntel,58.82352941,,,,,,,,,,,,,,,,,,,,,,,,,,,,,,,,,,,,,,,,,,,,,,,,,,,,,,,,,,,,,,,,,,,,,,,,,,,,,,,,,,,,,,,,,
,,7,2.046,7,2.046,0,63,63,83,1,6,garden,onion,,90120,001,2022-04-25_12h02.21.825,SPAMnetsValid,2021.1.4,MacIntel,58.82352941,,,,,,,,,,,,,,,,,,,,,,,,,,,,,,,,,,,,,,,,,,,,,,,,,,,,,,,,,,,,,,,,,,,,,,,,,,,,,,,,,,,,,,,,,
,,7,1.608,7,1.608,0,64,64,23,1,65,broom,garden,,90120,001,2022-04-25_12h02.21.825,SPAMnetsValid,2021.1.4,MacIntel,58.82352941,,,,,,,,,,,,,,,,,,,,,,,,,,,,,,,,,,,,,,,,,,,,,,,,,,,,,,,,,,,,,,,,,,,,,,,,,,,,,,,,,,,,,,,,,
,,7,1.893,7,1.893,0,65,65,40,1,74,broom,pretzel,,90120,001,2022-04-25_12h02.21.825,SPAMnetsValid,2021.1.4,MacIntel,58.82352941,,,,,,,,,,,,,,,,,,,,,,,,,,,,,,,,,,,,,,,,,,,,,,,,,,,,,,,,,,,,,,,,,,,,,,,,,,,,,,,,,,,,,,,,,
,,6,1.26,6,1.26,0,66,66,38,1,88,cactus,melon,,90120,001,2022-04-25_12h02.21.825,SPAMnetsValid,2021.1.4,MacIntel,58.82352941,,,,,,,,,,,,,,,,,,,,,,,,,,,,,,,,,,,,,,,,,,,,,,,,,,,,,,,,,,,,,,,,,,,,,,,,,,,,,,,,,,,,,,,,,
,,7,1.249,7,1.249,0,67,67,48,1,66,melon,yogurt,,90120,001,2022-04-25_12h02.21.825,SPAMnetsValid,2021.1.4,MacIntel,58.82352941,,,,,,,,,,,,,,,,,,,,,,,,,,,,,,,,,,,,,,,,,,,,,,,,,,,,,,,,,,,,,,,,,,,,,,,,,,,,,,,,,,,,,,,,,
,,7,1.174,7,1.174,0,68,68,60,1,89,chocolate,rose,,90120,001,2022-04-25_12h02.21.825,SPAMnetsValid,2021.1.4,MacIntel,58.82352941,,,,,,,,,,,,,,,,,,,,,,,,,,,,,,,,,,,,,,,,,,,,,,,,,,,,,,,,,,,,,,,,,,,,,,,,,,,,,,,,,,,,,,,,,
,,7,2.512,7,2.512,0,69,69,76,1,36,broom,kitchen,,90120,001,2022-04-25_12h02.21.825,SPAMnetsValid,2021.1.4,MacIntel,58.82352941,,,,,,,,,,,,,,,,,,,,,,,,,,,,,,,,,,,,,,,,,,,,,,,,,,,,,,,,,,,,,,,,,,,,,,,,,,,,,,,,,,,,,,,,,
,,3,2.461,3,2.461,0,70,70,12,1,67,flower,yogurt,,90120,001,2022-04-25_12h02.21.825,SPAMnetsValid,2021.1.4,MacIntel,58.82352941,,,,,,,,,,,,,,,,,,,,,,,,,,,,,,,,,,,,,,,,,,,,,,,,,,,,,,,,,,,,,,,,,,,,,,,,,,,,,,,,,,,,,,,,,
,,3,1.376,3,1.376,0,71,71,79,1,86,oven,rose,,90120,001,2022-04-25_12h02.21.825,SPAMnetsValid,2021.1.4,MacIntel,58.82352941,,,,,,,,,,,,,,,,,,,,,,,,,,,,,,,,,,,,,,,,,,,,,,,,,,,,,,,,,,,,,,,,,,,,,,,,,,,,,,,,,,,,,,,,,
,,3,1.281,3,1.281,0,72,72,4,1,83,broom,carrot,,90120,001,2022-04-25_12h02.21.825,SPAMnetsValid,2021.1.4,MacIntel,58.82352941,,,,,,,,,,,,,,,,,,,,,,,,,,,,,,,,,,,,,,,,,,,,,,,,,,,,,,,,,,,,,,,,,,,,,,,,,,,,,,,,,,,,,,,,,
,,7,2.45,7,2.45,0,73,73,35,1,55,tomato,tree,,90120,001,2022-04-25_12h02.21.825,SPAMnetsValid,2021.1.4,MacIntel,58.82352941,,,,,,,,,,,,,,,,,,,,,,,,,,,,,,,,,,,,,,,,,,,,,,,,,,,,,,,,,,,,,,,,,,,,,,,,,,,,,,,,,,,,,,,,,
,,7,2.404,7,2.404,0,74,74,36,1,12,cookie,yogurt,,90120,001,2022-04-25_12h02.21.825,SPAMnetsValid,2021.1.4,MacIntel,58.82352941,,,,,,,,,,,,,,,,,,,,,,,,,,,,,,,,,,,,,,,,,,,,,,,,,,,,,,,,,,,,,,,,,,,,,,,,,,,,,,,,,,,,,,,,,
,,7,1.578,7,1.578,0,75,75,44,1,25,carrot,onion,,90120,001,2022-04-25_12h02.21.825,SPAMnetsValid,2021.1.4,MacIntel,58.82352941,,,,,,,,,,,,,,,,,,,,,,,,,,,,,,,,,,,,,,,,,,,,,,,,,,,,,,,,,,,,,,,,,,,,,,,,,,,,,,,,,,,,,,,,,
,,3,1.419,3,1.419,0,76,76,62,1,18,onion,refrigerator,,90120,001,2022-04-25_12h02.21.825,SPAMnetsValid,2021.1.4,MacIntel,58.82352941,,,,,,,,,,,,,,,,,,,,,,,,,,,,,,,,,,,,,,,,,,,,,,,,,,,,,,,,,,,,,,,,,,,,,,,,,,,,,,,,,,,,,,,,,
,,8,1.177,8,1.177,0,77,77,30,1,3,cake,oven,,90120,001,2022-04-25_12h02.21.825,SPAMnetsValid,2021.1.4,MacIntel,58.82352941,,,,,,,,,,,,,,,,,,,,,,,,,,,,,,,,,,,,,,,,,,,,,,,,,,,,,,,,,,,,,,,,,,,,,,,,,,,,,,,,,,,,,,,,,
,,7,1.041,7,1.041,0,78,78,92,1,44,cookie,melon,,90120,001,2022-04-25_12h02.21.825,SPAMnetsValid,2021.1.4,MacIntel,58.82352941,,,,,,,,,,,,,,,,,,,,,,,,,,,,,,,,,,,,,,,,,,,,,,,,,,,,,,,,,,,,,,,,,,,,,,,,,,,,,,,,,,,,,,,,,
,,8,1.103,8,1.103,0,79,79,16,1,14,broom,cookie,,90120,001,2022-04-25_12h02.21.825,SPAMnetsValid,2021.1.4,MacIntel,58.82352941,,,,,,,,,,,,,,,,,,,,,,,,,,,,,,,,,,,,,,,,,,,,,,,,,,,,,,,,,,,,,,,,,,,,,,,,,,,,,,,,,,,,,,,,,
,,8,1.407,8,1.407,0,80,80,70,1,5,oven,tree,,90120,001,2022-04-25_12h02.21.825,SPAMnetsValid,2021.1.4,MacIntel,58.82352941,,,,,,,,,,,,,,,,,,,,,,,,,,,,,,,,,,,,,,,,,,,,,,,,,,,,,,,,,,,,,,,,,,,,,,,,,,,,,,,,,,,,,,,,,
,,7,0.968,7,0.968,0,81,81,52,1,4,chocolate,pretzel,,90120,001,2022-04-25_12h02.21.825,SPAMnetsValid,2021.1.4,MacIntel,58.82352941,,,,,,,,,,,,,,,,,,,,,,,,,,,,,,,,,,,,,,,,,,,,,,,,,,,,,,,,,,,,,,,,,,,,,,,,,,,,,,,,,,,,,,,,,
,,7,0.79,7,0.79,0,82,82,31,1,33,oven,yogurt,,90120,001,2022-04-25_12h02.21.825,SPAMnetsValid,2021.1.4,MacIntel,58.82352941,,,,,,,,,,,,,,,,,,,,,,,,,,,,,,,,,,,,,,,,,,,,,,,,,,,,,,,,,,,,,,,,,,,,,,,,,,,,,,,,,,,,,,,,,
,,2,2.225,2,2.225,0,83,83,85,1,90,cactus,cake,,90120,001,2022-04-25_12h02.21.825,SPAMnetsValid,2021.1.4,MacIntel,58.82352941,,,,,,,,,,,,,,,,,,,,,,,,,,,,,,,,,,,,,,,,,,,,,,,,,,,,,,,,,,,,,,,,,,,,,,,,,,,,,,,,,,,,,,,,,
,,3,2.401,3,2.401,0,84,84,43,1,11,refrigerator,tree,,90120,001,2022-04-25_12h02.21.825,SPAMnetsValid,2021.1.4,MacIntel,58.82352941,,,,,,,,,,,,,,,,,,,,,,,,,,,,,,,,,,,,,,,,,,,,,,,,,,,,,,,,,,,,,,,,,,,,,,,,,,,,,,,,,,,,,,,,,
,,9,1.3,9,1.3,0,85,85,64,1,9,kitchen,refrigerator,,90120,001,2022-04-25_12h02.21.825,SPAMnetsValid,2021.1.4,MacIntel,58.82352941,,,,,,,,,,,,,,,,,,,,,,,,,,,,,,,,,,,,,,,,,,,,,,,,,,,,,,,,,,,,,,,,,,,,,,,,,,,,,,,,,,,,,,,,,
,,9,1.844,9,1.844,0,86,86,96,1,82,cake,kitchen,,90120,001,2022-04-25_12h02.21.825,SPAMnetsValid,2021.1.4,MacIntel,58.82352941,,,,,,,,,,,,,,,,,,,,,,,,,,,,,,,,,,,,,,,,,,,,,,,,,,,,,,,,,,,,,,,,,,,,,,,,,,,,,,,,,,,,,,,,,
,,8,1.117,8,1.117,0,87,87,41,1,19,microwave,pretzel,,90120,001,2022-04-25_12h02.21.825,SPAMnetsValid,2021.1.4,MacIntel,58.82352941,,,,,,,,,,,,,,,,,,,,,,,,,,,,,,,,,,,,,,,,,,,,,,,,,,,,,,,,,,,,,,,,,,,,,,,,,,,,,,,,,,,,,,,,,
,,8,0.618,8,0.618,0,88,88,86,1,51,onion,strawberry,,90120,001,2022-04-25_12h02.21.825,SPAMnetsValid,2021.1.4,MacIntel,58.82352941,,,,,,,,,,,,,,,,,,,,,,,,,,,,,,,,,,,,,,,,,,,,,,,,,,,,,,,,,,,,,,,,,,,,,,,,,,,,,,,,,,,,,,,,,
,,8,0.569,8,0.569,0,89,89,6,1,87,carrot,yogurt,,90120,001,2022-04-25_12h02.21.825,SPAMnetsValid,2021.1.4,MacIntel,58.82352941,,,,,,,,,,,,,,,,,,,,,,,,,,,,,,,,,,,,,,,,,,,,,,,,,,,,,,,,,,,,,,,,,,,,,,,,,,,,,,,,,,,,,,,,,
,,3,1.115,3,1.115,0,90,90,94,1,68,flower,tomato,,90120,001,2022-04-25_12h02.21.825,SPAMnetsValid,2021.1.4,MacIntel,58.82352941,,,,,,,,,,,,,,,,,,,,,,,,,,,,,,,,,,,,,,,,,,,,,,,,,,,,,,,,,,,,,,,,,,,,,,,,,,,,,,,,,,,,,,,,,
,,8,0.909,8,0.909,0,91,91,21,1,56,cactus,tree,,90120,001,2022-04-25_12h02.21.825,SPAMnetsValid,2021.1.4,MacIntel,58.82352941,,,,,,,,,,,,,,,,,,,,,,,,,,,,,,,,,,,,,,,,,,,,,,,,,,,,,,,,,,,,,,,,,,,,,,,,,,,,,,,,,,,,,,,,,
,,2,2.801,2,2.801,0,92,92,27,1,72,broom,onion,,90120,001,2022-04-25_12h02.21.825,SPAMnetsValid,2021.1.4,MacIntel,58.82352941,,,,,,,,,,,,,,,,,,,,,,,,,,,,,,,,,,,,,,,,,,,,,,,,,,,,,,,,,,,,,,,,,,,,,,,,,,,,,,,,,,,,,,,,,
,,8,2.502,8,2.502,0,93,93,54,1,28,cake,melon,,90120,001,2022-04-25_12h02.21.825,SPAMnetsValid,2021.1.4,MacIntel,58.82352941,,,,,,,,,,,,,,,,,,,,,,,,,,,,,,,,,,,,,,,,,,,,,,,,,,,,,,,,,,,,,,,,,,,,,,,,,,,,,,,,,,,,,,,,,
,,7,1.569,7,1.569,0,94,94,24,1,17,carrot,melon,,90120,001,2022-04-25_12h02.21.825,SPAMnetsValid,2021.1.4,MacIntel,58.82352941,,,,,,,,,,,,,,,,,,,,,,,,,,,,,,,,,,,,,,,,,,,,,,,,,,,,,,,,,,,,,,,,,,,,,,,,,,,,,,,,,,,,,,,,,
,,2,2.077,2,2.077,0,95,95,39,1,15,onion,oven,,90120,001,2022-04-25_12h02.21.825,SPAMnetsValid,2021.1.4,MacIntel,58.82352941,,,,,,,,,,,,,,,,,,,,,,,,,,,,,,,,,,,,,,,,,,,,,,,,,,,,,,,,,,,,,,,,,,,,,,,,,,,,,,,,,,,,,,,,,
,,8,2.701,8,2.701,0,96,96,11,1,37,garden,refrigerator,,90120,001,2022-04-25_12h02.21.825,SPAMnetsValid,2021.1.4,MacIntel,58.82352941,,,,,,,,,,,,,,,,,,,,,,,,,,,,,,,,,,,,,,,,,,,,,,,,,,,,,,,,,,,,,,,,,,,,,,,,,,,,,,,,,,,,,,,,,
,,,,,,,,,,,,,,,90120,001,2022-04-25_12h02.21.825,SPAMnetsValid,2021.1.4,MacIntel,58.82352941,0,0,0,0,1,,,,,,,,,,,,,,,,,,,,,,,,,,,,,,,,,,,,,,,,,,,,,,,,,,,,,,,,,,,,,,,,,,,,,,,,,,,,,,,,,,,,
,,,,,,,,,,,,,,,90120,001,2022-04-25_12h02.21.825,SPAMnetsValid,2021.1.4,MacIntel,58.82352941,,,,,,0,0,0,0,1,1,0,,,,,,,,,,,,,,,,,,,,,,,,,,,,,,,,,,,,,,,,,,,,,,,,,,,,,,,,,,,,,,,,,,,,,,,,,,,,,
,,,,8,1.806,,,,,,172,kitchen,melon,,90120,001,2022-04-25_12h02.21.825,SPAMnetsValid,2021.1.4,MacIntel,58.82352941,,,,,,,,,,,,,8,1.806,0,0,0,77,1,,,,,,,,,,,,,,,,,,,,,,,,,,,,,,,,,,,,,,,,,,,,,,,,,,,,,,,,,,,,,,,,,,,,,,
,,,,2,1.657,,,,,,178,cactus,carrot,,90120,001,2022-04-25_12h02.21.825,SPAMnetsValid,2021.1.4,MacIntel,58.82352941,,,,,,,,,,,,,2,1.657,0,1,1,75,1,,,,,,,,,,,,,,,,,,,,,,,,,,,,,,,,,,,,,,,,,,,,,,,,,,,,,,,,,,,,,,,,,,,,,,
,,,,8,1.146,,,,,,111,carrot,microwave,,90120,001,2022-04-25_12h02.21.825,SPAMnetsValid,2021.1.4,MacIntel,58.82352941,,,,,,,,,,,,,8,1.146,0,2,2,16,1,,,,,,,,,,,,,,,,,,,,,,,,,,,,,,,,,,,,,,,,,,,,,,,,,,,,,,,,,,,,,,,,,,,,,,
,,,,7,0.946,,,,,,156,melon,rose,,90120,001,2022-04-25_12h02.21.825,SPAMnetsValid,2021.1.4,MacIntel,58.82352941,,,,,,,,,,,,,7,0.946,0,3,3,31,1,,,,,,,,,,,,,,,,,,,,,,,,,,,,,,,,,,,,,,,,,,,,,,,,,,,,,,,,,,,,,,,,,,,,,,
,,,,8,0.822,,,,,,155,carrot,cookie,,90120,001,2022-04-25_12h02.21.825,SPAMnetsValid,2021.1.4,MacIntel,58.82352941,,,,,,,,,,,,,8,0.822,0,4,4,38,1,,,,,,,,,,,,,,,,,,,,,,,,,,,,,,,,,,,,,,,,,,,,,,,,,,,,,,,,,,,,,,,,,,,,,,
,,,,7,0.754,,,,,,100,garden,tomato,,90120,001,2022-04-25_12h02.21.825,SPAMnetsValid,2021.1.4,MacIntel,58.82352941,,,,,,,,,,,,,7,0.754,0,5,5,83,1,,,,,,,,,,,,,,,,,,,,,,,,,,,,,,,,,,,,,,,,,,,,,,,,,,,,,,,,,,,,,,,,,,,,,,
,,,,7,0.664,,,,,,132,broom,tree,,90120,001,2022-04-25_12h02.21.825,SPAMnetsValid,2021.1.4,MacIntel,58.82352941,,,,,,,,,,,,,7,0.664,0,6,6,78,1,,,,,,,,,,,,,,,,,,,,,,,,,,,,,,,,,,,,,,,,,,,,,,,,,,,,,,,,,,,,,,,,,,,,,,
,,,,2,1.065,,,,,,176,cactus,tomato,,90120,001,2022-04-25_12h02.21.825,SPAMnetsValid,2021.1.4,MacIntel,58.82352941,,,,,,,,,,,,,2,1.065,0,7,7,9,1,,,,,,,,,,,,,,,,,,,,,,,,,,,,,,,,,,,,,,,,,,,,,,,,,,,,,,,,,,,,,,,,,,,,,,
,,,,8,1.437,,,,,,97,chocolate,kitchen,,90120,001,2022-04-25_12h02.21.825,SPAMnetsValid,2021.1.4,MacIntel,58.82352941,,,,,,,,,,,,,8,1.437,0,8,8,8,1,,,,,,,,,,,,,,,,,,,,,,,,,,,,,,,,,,,,,,,,,,,,,,,,,,,,,,,,,,,,,,,,,,,,,,
,,,,8,0.796,,,,,,171,cake,tomato,,90120,001,2022-04-25_12h02.21.825,SPAMnetsValid,2021.1.4,MacIntel,58.82352941,,,,,,,,,,,,,8,0.796,0,9,9,88,1,,,,,,,,,,,,,,,,,,,,,,,,,,,,,,,,,,,,,,,,,,,,,,,,,,,,,,,,,,,,,,,,,,,,,,
,,,,2,1.835,,,,,,104,garden,microwave,,90120,001,2022-04-25_12h02.21.825,SPAMnetsValid,2021.1.4,MacIntel,58.82352941,,,,,,,,,,,,,2,1.835,0,10,10,81,1,,,,,,,,,,,,,,,,,,,,,,,,,,,,,,,,,,,,,,,,,,,,,,,,,,,,,,,,,,,,,,,,,,,,,,
,,,,2,2.001,,,,,,180,tree,yogurt,,90120,001,2022-04-25_12h02.21.825,SPAMnetsValid,2021.1.4,MacIntel,58.82352941,,,,,,,,,,,,,2,2.001,0,11,11,68,1,,,,,,,,,,,,,,,,,,,,,,,,,,,,,,,,,,,,,,,,,,,,,,,,,,,,,,,,,,,,,,,,,,,,,,
,,,,7,1.326,,,,,,108,carrot,chocolate,,90120,001,2022-04-25_12h02.21.825,SPAMnetsValid,2021.1.4,MacIntel,58.82352941,,,,,,,,,,,,,7,1.326,0,12,12,5,1,,,,,,,,,,,,,,,,,,,,,,,,,,,,,,,,,,,,,,,,,,,,,,,,,,,,,,,,,,,,,,,,,,,,,,
,,,,2,1.458,,,,,,127,cactus,chocolate,,90120,001,2022-04-25_12h02.21.825,SPAMnetsValid,2021.1.4,MacIntel,58.82352941,,,,,,,,,,,,,2,1.458,0,13,13,57,1,,,,,,,,,,,,,,,,,,,,,,,,,,,,,,,,,,,,,,,,,,,,,,,,,,,,,,,,,,,,,,,,,,,,,,
,,,,8,1.023,,,,,,168,cactus,flower,,90120,001,2022-04-25_12h02.21.825,SPAMnetsValid,2021.1.4,MacIntel,58.82352941,,,,,,,,,,,,,8,1.023,0,14,14,51,1,,,,,,,,,,,,,,,,,,,,,,,,,,,,,,,,,,,,,,,,,,,,,,,,,,,,,,,,,,,,,,,,,,,,,,
,,,,8,1.175,,,,,,118,chocolate,oven,,90120,001,2022-04-25_12h02.21.825,SPAMnetsValid,2021.1.4,MacIntel,58.82352941,,,,,,,,,,,,,8,1.175,0,15,15,10,1,,,,,,,,,,,,,,,,,,,,,,,,,,,,,,,,,,,,,,,,,,,,,,,,,,,,,,,,,,,,,,,,,,,,,,
,,,,8,1.094,,,,,,167,carrot,garden,,90120,001,2022-04-25_12h02.21.825,SPAMnetsValid,2021.1.4,MacIntel,58.82352941,,,,,,,,,,,,,8,1.094,0,16,16,47,1,,,,,,,,,,,,,,,,,,,,,,,,,,,,,,,,,,,,,,,,,,,,,,,,,,,,,,,,,,,,,,,,,,,,,,
,,,,8,0.892,,,,,,188,flower,tree,,90120,001,2022-04-25_12h02.21.825,SPAMnetsValid,2021.1.4,MacIntel,58.82352941,,,,,,,,,,,,,8,0.892,0,17,17,7,1,,,,,,,,,,,,,,,,,,,,,,,,,,,,,,,,,,,,,,,,,,,,,,,,,,,,,,,,,,,,,,,,,,,,,,
,,,,8,1.011,,,,,,158,cookie,oven,,90120,001,2022-04-25_12h02.21.825,SPAMnetsValid,2021.1.4,MacIntel,58.82352941,,,,,,,,,,,,,8,1.011,0,18,18,27,1,,,,,,,,,,,,,,,,,,,,,,,,,,,,,,,,,,,,,,,,,,,,,,,,,,,,,,,,,,,,,,,,,,,,,,
,,,,8,0.779,,,,,,122,flower,garden,,90120,001,2022-04-25_12h02.21.825,SPAMnetsValid,2021.1.4,MacIntel,58.82352941,,,,,,,,,,,,,8,0.779,0,19,19,60,1,,,,,,,,,,,,,,,,,,,,,,,,,,,,,,,,,,,,,,,,,,,,,,,,,,,,,,,,,,,,,,,,,,,,,,
,,,,8,0.576,,,,,,141,melon,tomato,,90120,001,2022-04-25_12h02.21.825,SPAMnetsValid,2021.1.4,MacIntel,58.82352941,,,,,,,,,,,,,8,0.576,0,20,20,70,1,,,,,,,,,,,,,,,,,,,,,,,,,,,,,,,,,,,,,,,,,,,,,,,,,,,,,,,,,,,,,,,,,,,,,,
,,,,8,0.577,,,,,,173,kitchen,tomato,,90120,001,2022-04-25_12h02.21.825,SPAMnetsValid,2021.1.4,MacIntel,58.82352941,,,,,,,,,,,,,8,0.577,0,21,21,1,1,,,,,,,,,,,,,,,,,,,,,,,,,,,,,,,,,,,,,,,,,,,,,,,,,,,,,,,,,,,,,,,,,,,,,,
,,,,8,0.844,,,,,,114,cookie,strawberry,,90120,001,2022-04-25_12h02.21.825,SPAMnetsValid,2021.1.4,MacIntel,58.82352941,,,,,,,,,,,,,8,0.844,0,22,22,87,1,,,,,,,,,,,,,,,,,,,,,,,,,,,,,,,,,,,,,,,,,,,,,,,,,,,,,,,,,,,,,,,,,,,,,,
,,,,8,0.677,,,,,,128,melon,microwave,,90120,001,2022-04-25_12h02.21.825,SPAMnetsValid,2021.1.4,MacIntel,58.82352941,,,,,,,,,,,,,8,0.677,0,23,23,74,1,,,,,,,,,,,,,,,,,,,,,,,,,,,,,,,,,,,,,,,,,,,,,,,,,,,,,,,,,,,,,,,,,,,,,,
,,,,8,1.106,,,,,,115,refrigerator,tomato,,90120,001,2022-04-25_12h02.21.825,SPAMnetsValid,2021.1.4,MacIntel,58.82352941,,,,,,,,,,,,,8,1.106,0,24,24,85,1,,,,,,,,,,,,,,,,,,,,,,,,,,,,,,,,,,,,,,,,,,,,,,,,,,,,,,,,,,,,,,,,,,,,,,
,,,,3,1.537,,,,,,149,broom,tomato,,90120,001,2022-04-25_12h02.21.825,SPAMnetsValid,2021.1.4,MacIntel,58.82352941,,,,,,,,,,,,,3,1.537,0,25,25,20,1,,,,,,,,,,,,,,,,,,,,,,,,,,,,,,,,,,,,,,,,,,,,,,,,,,,,,,,,,,,,,,,,,,,,,,
,,,,2,2.258,,,,,,164,cookie,garden,,90120,001,2022-04-25_12h02.21.825,SPAMnetsValid,2021.1.4,MacIntel,58.82352941,,,,,,,,,,,,,2,2.258,0,26,26,59,1,,,,,,,,,,,,,,,,,,,,,,,,,,,,,,,,,,,,,,,,,,,,,,,,,,,,,,,,,,,,,,,,,,,,,,
,,,,8,1.191,,,,,,157,refrigerator,rose,,90120,001,2022-04-25_12h02.21.825,SPAMnetsValid,2021.1.4,MacIntel,58.82352941,,,,,,,,,,,,,8,1.191,0,27,27,64,1,,,,,,,,,,,,,,,,,,,,,,,,,,,,,,,,,,,,,,,,,,,,,,,,,,,,,,,,,,,,,,,,,,,,,,
,,,,8,0.842,,,,,,152,cactus,strawberry,,90120,001,2022-04-25_12h02.21.825,SPAMnetsValid,2021.1.4,MacIntel,58.82352941,,,,,,,,,,,,,8,0.842,0,28,28,49,1,,,,,,,,,,,,,,,,,,,,,,,,,,,,,,,,,,,,,,,,,,,,,,,,,,,,,,,,,,,,,,,,,,,,,,
,,,,8,0.846,,,,,,194,cactus,cactus,CHECK,90120,001,2022-04-25_12h02.21.825,SPAMnetsValid,2021.1.4,MacIntel,58.82352941,,,,,,,,,,,,,8,0.846,0,29,29,25,1,,,,,,,,,,,,,,,,,,,,,,,,,,,,,,,,,,,,,,,,,,,,,,,,,,,,,,,,,,,,,,,,,,,,,,
,,,,1,2.452,,,,,,137,microwave,tree,,90120,001,2022-04-25_12h02.21.825,SPAMnetsValid,2021.1.4,MacIntel,58.82352941,,,,,,,,,,,,,1,2.452,0,30,30,63,1,,,,,,,,,,,,,,,,,,,,,,,,,,,,,,,,,,,,,,,,,,,,,,,,,,,,,,,,,,,,,,,,,,,,,,
,,,,6,2.546,,,,,,162,microwave,tomato,,90120,001,2022-04-25_12h02.21.825,SPAMnetsValid,2021.1.4,MacIntel,58.82352941,,,,,,,,,,,,,6,2.546,0,31,31,12,1,,,,,,,,,,,,,,,,,,,,,,,,,,,,,,,,,,,,,,,,,,,,,,,,,,,,,,,,,,,,,,,,,,,,,,
,,,,3,2.15,,,,,,144,cake,garden,,90120,001,2022-04-25_12h02.21.825,SPAMnetsValid,2021.1.4,MacIntel,58.82352941,,,,,,,,,,,,,3,2.15,0,32,32,58,1,,,,,,,,,,,,,,,,,,,,,,,,,,,,,,,,,,,,,,,,,,,,,,,,,,,,,,,,,,,,,,,,,,,,,,
,,,,6,1.174,,,,,,174,cake,pretzel,,90120,001,2022-04-25_12h02.21.825,SPAMnetsValid,2021.1.4,MacIntel,58.82352941,,,,,,,,,,,,,6,1.174,0,33,33,2,1,,,,,,,,,,,,,,,,,,,,,,,,,,,,,,,,,,,,,,,,,,,,,,,,,,,,,,,,,,,,,,,,,,,,,,
,,,,7,1.108,,,,,,148,flower,melon,,90120,001,2022-04-25_12h02.21.825,SPAMnetsValid,2021.1.4,MacIntel,58.82352941,,,,,,,,,,,,,7,1.108,0,34,34,23,1,,,,,,,,,,,,,,,,,,,,,,,,,,,,,,,,,,,,,,,,,,,,,,,,,,,,,,,,,,,,,,,,,,,,,,
,,,,7,0.613,,,,,,123,cookie,tree,,90120,001,2022-04-25_12h02.21.825,SPAMnetsValid,2021.1.4,MacIntel,58.82352941,,,,,,,,,,,,,7,0.613,0,35,35,46,1,,,,,,,,,,,,,,,,,,,,,,,,,,,,,,,,,,,,,,,,,,,,,,,,,,,,,,,,,,,,,,,,,,,,,,
,,,,7,0.447,,,,,,102,chocolate,refrigerator,,90120,001,2022-04-25_12h02.21.825,SPAMnetsValid,2021.1.4,MacIntel,58.82352941,,,,,,,,,,,,,7,0.447,0,36,36,76,1,,,,,,,,,,,,,,,,,,,,,,,,,,,,,,,,,,,,,,,,,,,,,,,,,,,,,,,,,,,,,,,,,,,,,,
,,,,7,0.458,,,,,,187,cactus,microwave,,90120,001,2022-04-25_12h02.21.825,SPAMnetsValid,2021.1.4,MacIntel,58.82352941,,,,,,,,,,,,,7,0.458,0,37,37,71,1,,,,,,,,,,,,,,,,,,,,,,,,,,,,,,,,,,,,,,,,,,,,,,,,,,,,,,,,,,,,,,,,,,,,,,
,,,,7,4.062,,,,,,183,cake,rose,,90120,001,2022-04-25_12h02.21.825,SPAMnetsValid,2021.1.4,MacIntel,58.82352941,,,,,,,,,,,,,7,4.062,0,38,38,19,1,,,,,,,,,,,,,,,,,,,,,,,,,,,,,,,,,,,,,,,,,,,,,,,,,,,,,,,,,,,,,,,,,,,,,,
,,,,7,0.9,,,,,,134,carrot,flower,,90120,001,2022-04-25_12h02.21.825,SPAMnetsValid,2021.1.4,MacIntel,58.82352941,,,,,,,,,,,,,7,0.9,0,39,39,93,1,,,,,,,,,,,,,,,,,,,,,,,,,,,,,,,,,,,,,,,,,,,,,,,,,,,,,,,,,,,,,,,,,,,,,,
,,,,7,0.826,,,,,,107,rose,tomato,,90120,001,2022-04-25_12h02.21.825,SPAMnetsValid,2021.1.4,MacIntel,58.82352941,,,,,,,,,,,,,7,0.826,0,40,40,26,1,,,,,,,,,,,,,,,,,,,,,,,,,,,,,,,,,,,,,,,,,,,,,,,,,,,,,,,,,,,,,,,,,,,,,,
,,,,7,0.609,,,,,,186,kitchen,yogurt,,90120,001,2022-04-25_12h02.21.825,SPAMnetsValid,2021.1.4,MacIntel,58.82352941,,,,,,,,,,,,,7,0.609,0,41,41,48,1,,,,,,,,,,,,,,,,,,,,,,,,,,,,,,,,,,,,,,,,,,,,,,,,,,,,,,,,,,,,,,,,,,,,,,
,,,,7,0.544,,,,,,113,refrigerator,strawberry,,90120,001,2022-04-25_12h02.21.825,SPAMnetsValid,2021.1.4,MacIntel,58.82352941,,,,,,,,,,,,,7,0.544,0,42,42,56,1,,,,,,,,,,,,,,,,,,,,,,,,,,,,,,,,,,,,,,,,,,,,,,,,,,,,,,,,,,,,,,,,,,,,,,
,,,,7,0.639,,,,,,103,pretzel,tomato,,90120,001,2022-04-25_12h02.21.825,SPAMnetsValid,2021.1.4,MacIntel,58.82352941,,,,,,,,,,,,,7,0.639,0,43,43,79,1,,,,,,,,,,,,,,,,,,,,,,,,,,,,,,,,,,,,,,,,,,,,,,,,,,,,,,,,,,,,,,,,,,,,,,
,,,,7,0.682,,,,,,150,microwave,refrigerator,,90120,001,2022-04-25_12h02.21.825,SPAMnetsValid,2021.1.4,MacIntel,58.82352941,,,,,,,,,,,,,7,0.682,0,44,44,66,1,,,,,,,,,,,,,,,,,,,,,,,,,,,,,,,,,,,,,,,,,,,,,,,,,,,,,,,,,,,,,,,,,,,,,,
,,,,7,0.685,,,,,,161,kitchen,pretzel,,90120,001,2022-04-25_12h02.21.825,SPAMnetsValid,2021.1.4,MacIntel,58.82352941,,,,,,,,,,,,,7,0.685,0,45,45,36,1,,,,,,,,,,,,,,,,,,,,,,,,,,,,,,,,,,,,,,,,,,,,,,,,,,,,,,,,,,,,,,,,,,,,,,
,,,,7,0.69,,,,,,130,microwave,yogurt,,90120,001,2022-04-25_12h02.21.825,SPAMnetsValid,2021.1.4,MacIntel,58.82352941,,,,,,,,,,,,,7,0.69,0,46,46,84,1,,,,,,,,,,,,,,,,,,,,,,,,,,,,,,,,,,,,,,,,,,,,,,,,,,,,,,,,,,,,,,,,,,,,,,
,,,,7,1.101,,,,,,151,microwave,onion,,90120,001,2022-04-25_12h02.21.825,SPAMnetsValid,2021.1.4,MacIntel,58.82352941,,,,,,,,,,,,,7,1.101,0,47,47,6,1,,,,,,,,,,,,,,,,,,,,,,,,,,,,,,,,,,,,,,,,,,,,,,,,,,,,,,,,,,,,,,,,,,,,,,
,,,,7,0.853,,,,,,133,cake,flower,,90120,001,2022-04-25_12h02.21.825,SPAMnetsValid,2021.1.4,MacIntel,58.82352941,,,,,,,,,,,,,7,0.853,0,48,48,94,1,,,,,,,,,,,,,,,,,,,,,,,,,,,,,,,,,,,,,,,,,,,,,,,,,,,,,,,,,,,,,,,,,,,,,,
,,,,7,0.498,,,,,,169,onion,yogurt,,90120,001,2022-04-25_12h02.21.825,SPAMnetsValid,2021.1.4,MacIntel,58.82352941,,,,,,,,,,,,,7,0.498,0,49,49,24,1,,,,,,,,,,,,,,,,,,,,,,,,,,,,,,,,,,,,,,,,,,,,,,,,,,,,,,,,,,,,,,,,,,,,,,
,,,,3,2.051,,,,,,146,pretzel,tree,,90120,001,2022-04-25_12h02.21.825,SPAMnetsValid,2021.1.4,MacIntel,58.82352941,,,,,,,,,,,,,3,2.051,0,50,50,80,1,,,,,,,,,,,,,,,,,,,,,,,,,,,,,,,,,,,,,,,,,,,,,,,,,,,,,,,,,,,,,,,,,,,,,,
,,,,2,2.261,,,,,,190,microwave,strawberry,,90120,001,2022-04-25_12h02.21.825,SPAMnetsValid,2021.1.4,MacIntel,58.82352941,,,,,,,,,,,,,2,2.261,0,51,51,90,1,,,,,,,,,,,,,,,,,,,,,,,,,,,,,,,,,,,,,,,,,,,,,,,,,,,,,,,,,,,,,,,,,,,,,,
,,,,8,2.201,,,,,,99,garden,melon,,90120,001,2022-04-25_12h02.21.825,SPAMnetsValid,2021.1.4,MacIntel,58.82352941,,,,,,,,,,,,,8,2.201,0,52,52,17,1,,,,,,,,,,,,,,,,,,,,,,,,,,,,,,,,,,,,,,,,,,,,,,,,,,,,,,,,,,,,,,,,,,,,,,
,,,,8,1.164,,,,,,125,carrot,tree,,90120,001,2022-04-25_12h02.21.825,SPAMnetsValid,2021.1.4,MacIntel,58.82352941,,,,,,,,,,,,,8,1.164,0,53,53,30,1,,,,,,,,,,,,,,,,,,,,,,,,,,,,,,,,,,,,,,,,,,,,,,,,,,,,,,,,,,,,,,,,,,,,,,
,,,,7,0.945,,,,,,189,onion,tree,,90120,001,2022-04-25_12h02.21.825,SPAMnetsValid,2021.1.4,MacIntel,58.82352941,,,,,,,,,,,,,7,0.945,0,54,54,62,1,,,,,,,,,,,,,,,,,,,,,,,,,,,,,,,,,,,,,,,,,,,,,,,,,,,,,,,,,,,,,,,,,,,,,,
,,,,3,1.942,,,,,,145,cactus,yogurt,,90120,001,2022-04-25_12h02.21.825,SPAMnetsValid,2021.1.4,MacIntel,58.82352941,,,,,,,,,,,,,3,1.942,0,55,55,15,1,,,,,,,,,,,,,,,,,,,,,,,,,,,,,,,,,,,,,,,,,,,,,,,,,,,,,,,,,,,,,,,,,,,,,,
,,,,4,1.313,,,,,,153,carrot,pretzel,,90120,001,2022-04-25_12h02.21.825,SPAMnetsValid,2021.1.4,MacIntel,58.82352941,,,,,,,,,,,,,4,1.313,0,56,56,34,1,,,,,,,,,,,,,,,,,,,,,,,,,,,,,,,,,,,,,,,,,,,,,,,,,,,,,,,,,,,,,,,,,,,,,,
,,,,6,1.63,,,,,,139,carrot,strawberry,,90120,001,2022-04-25_12h02.21.825,SPAMnetsValid,2021.1.4,MacIntel,58.82352941,,,,,,,,,,,,,6,1.63,0,57,57,37,1,,,,,,,,,,,,,,,,,,,,,,,,,,,,,,,,,,,,,,,,,,,,,,,,,,,,,,,,,,,,,,,,,,,,,,
,,,,3,1.811,,,,,,179,broom,oven,,90120,001,2022-04-25_12h02.21.825,SPAMnetsValid,2021.1.4,MacIntel,58.82352941,,,,,,,,,,,,,3,1.811,0,58,58,45,1,,,,,,,,,,,,,,,,,,,,,,,,,,,,,,,,,,,,,,,,,,,,,,,,,,,,,,,,,,,,,,,,,,,,,,
,,,,2,2.02,,,,,,129,cactus,refrigerator,,90120,001,2022-04-25_12h02.21.825,SPAMnetsValid,2021.1.4,MacIntel,58.82352941,,,,,,,,,,,,,2,2.02,0,59,59,3,1,,,,,,,,,,,,,,,,,,,,,,,,,,,,,,,,,,,,,,,,,,,,,,,,,,,,,,,,,,,,,,,,,,,,,,
,,,,8,1.451,,,,,,159,cookie,flower,,90120,001,2022-04-25_12h02.21.825,SPAMnetsValid,2021.1.4,MacIntel,58.82352941,,,,,,,,,,,,,8,1.451,0,60,60,21,1,,,,,,,,,,,,,,,,,,,,,,,,,,,,,,,,,,,,,,,,,,,,,,,,,,,,,,,,,,,,,,,,,,,,,,
,,,,3,1.931,,,,,,105,cactus,oven,,90120,001,2022-04-25_12h02.21.825,SPAMnetsValid,2021.1.4,MacIntel,58.82352941,,,,,,,,,,,,,3,1.931,0,61,61,13,1,,,,,,,,,,,,,,,,,,,,,,,,,,,,,,,,,,,,,,,,,,,,,,,,,,,,,,,,,,,,,,,,,,,,,,
,,,,7,1.662,,,,,,142,garden,tree,,90120,001,2022-04-25_12h02.21.825,SPAMnetsValid,2021.1.4,MacIntel,58.82352941,,,,,,,,,,,,,7,1.662,0,62,62,22,1,,,,,,,,,,,,,,,,,,,,,,,,,,,,,,,,,,,,,,,,,,,,,,,,,,,,,,,,,,,,,,,,,,,,,,
,,,,7,0.745,,,,,,124,oven,refrigerator,,90120,001,2022-04-25_12h02.21.825,SPAMnetsValid,2021.1.4,MacIntel,58.82352941,,,,,,,,,,,,,7,0.745,0,63,63,69,1,,,,,,,,,,,,,,,,,,,,,,,,,,,,,,,,,,,,,,,,,,,,,,,,,,,,,,,,,,,,,,,,,,,,,,
,,,,7,0.635,,,,,,163,melon,refrigerator,,90120,001,2022-04-25_12h02.21.825,SPAMnetsValid,2021.1.4,MacIntel,58.82352941,,,,,,,,,,,,,7,0.635,0,64,64,29,1,,,,,,,,,,,,,,,,,,,,,,,,,,,,,,,,,,,,,,,,,,,,,,,,,,,,,,,,,,,,,,,,,,,,,,
,,,,8,1.032,,,,,,119,strawberry,tree,,90120,001,2022-04-25_12h02.21.825,SPAMnetsValid,2021.1.4,MacIntel,58.82352941,,,,,,,,,,,,,8,1.032,0,65,65,18,1,,,,,,,,,,,,,,,,,,,,,,,,,,,,,,,,,,,,,,,,,,,,,,,,,,,,,,,,,,,,,,,,,,,,,,
,,,,8,0.678,,,,,,181,carrot,kitchen,,90120,001,2022-04-25_12h02.21.825,SPAMnetsValid,2021.1.4,MacIntel,58.82352941,,,,,,,,,,,,,8,0.678,0,66,66,72,1,,,,,,,,,,,,,,,,,,,,,,,,,,,,,,,,,,,,,,,,,,,,,,,,,,,,,,,,,,,,,,,,,,,,,,
,,,,8,0.473,,,,,,96,oven,strawberry,,90120,001,2022-04-25_12h02.21.825,SPAMnetsValid,2021.1.4,MacIntel,58.82352941,,,,,,,,,,,,,8,0.473,0,67,67,67,1,,,,,,,,,,,,,,,,,,,,,,,,,,,,,,,,,,,,,,,,,,,,,,,,,,,,,,,,,,,,,,,,,,,,,,
,,,,8,0.393,,,,,,165,onion,rose,,90120,001,2022-04-25_12h02.21.825,SPAMnetsValid,2021.1.4,MacIntel,58.82352941,,,,,,,,,,,,,8,0.393,0,68,68,40,1,,,,,,,,,,,,,,,,,,,,,,,,,,,,,,,,,,,,,,,,,,,,,,,,,,,,,,,,,,,,,,,,,,,,,,
,,,,8,0.344,,,,,,185,cactus,rose,,90120,001,2022-04-25_12h02.21.825,SPAMnetsValid,2021.1.4,MacIntel,58.82352941,,,,,,,,,,,,,8,0.344,0,69,69,43,1,,,,,,,,,,,,,,,,,,,,,,,,,,,,,,,,,,,,,,,,,,,,,,,,,,,,,,,,,,,,,,,,,,,,,,
,,,,8,0.329,,,,,,175,melon,onion,,90120,001,2022-04-25_12h02.21.825,SPAMnetsValid,2021.1.4,MacIntel,58.82352941,,,,,,,,,,,,,8,0.329,0,70,70,41,1,,,,,,,,,,,,,,,,,,,,,,,,,,,,,,,,,,,,,,,,,,,,,,,,,,,,,,,,,,,,,,,,,,,,,,
,,,,7,2.03,,,,,,147,cake,refrigerator,,90120,001,2022-04-25_12h02.21.825,SPAMnetsValid,2021.1.4,MacIntel,58.82352941,,,,,,,,,,,,,7,2.03,0,71,71,35,1,,,,,,,,,,,,,,,,,,,,,,,,,,,,,,,,,,,,,,,,,,,,,,,,,,,,,,,,,,,,,,,,,,,,,,
,,,,8,1.49,,,,,,138,flower,rose,,90120,001,2022-04-25_12h02.21.825,SPAMnetsValid,2021.1.4,MacIntel,58.82352941,,,,,,,,,,,,,8,1.49,0,72,72,61,1,,,,,,,,,,,,,,,,,,,,,,,,,,,,,,,,,,,,,,,,,,,,,,,,,,,,,,,,,,,,,,,,,,,,,,
,,,,8,2.334,,,,,,170,cookie,microwave,,90120,001,2022-04-25_12h02.21.825,SPAMnetsValid,2021.1.4,MacIntel,58.82352941,,,,,,,,,,,,,8,2.334,0,73,73,92,1,,,,,,,,,,,,,,,,,,,,,,,,,,,,,,,,,,,,,,,,,,,,,,,,,,,,,,,,,,,,,,,,,,,,,,
,,,,5,2.678,,,,,,131,cactus,garden,,90120,001,2022-04-25_12h02.21.825,SPAMnetsValid,2021.1.4,MacIntel,58.82352941,,,,,,,,,,,,,5,2.678,0,74,74,33,1,,,,,,,,,,,,,,,,,,,,,,,,,,,,,,,,,,,,,,,,,,,,,,,,,,,,,,,,,,,,,,,,,,,,,,
,,,,3,3.376,,,,,,126,kitchen,tree,,90120,001,2022-04-25_12h02.21.825,SPAMnetsValid,2021.1.4,MacIntel,58.82352941,,,,,,,,,,,,,3,3.376,0,75,75,50,1,,,,,,,,,,,,,,,,,,,,,,,,,,,,,,,,,,,,,,,,,,,,,,,,,,,,,,,,,,,,,,,,,,,,,,
,,,,3,0.67,,,,,,143,pretzel,rose,,90120,001,2022-04-25_12h02.21.825,SPAMnetsValid,2021.1.4,MacIntel,58.82352941,,,,,,,,,,,,,3,0.67,0,76,76,55,1,,,,,,,,,,,,,,,,,,,,,,,,,,,,,,,,,,,,,,,,,,,,,,,,,,,,,,,,,,,,,,,,,,,,,,
,,,,8,1.978,,,,,,120,microwave,oven,,90120,001,2022-04-25_12h02.21.825,SPAMnetsValid,2021.1.4,MacIntel,58.82352941,,,,,,,,,,,,,8,1.978,0,77,77,14,1,,,,,,,,,,,,,,,,,,,,,,,,,,,,,,,,,,,,,,,,,,,,,,,,,,,,,,,,,,,,,,,,,,,,,,
,,,,8,0.901,,,,,,136,chocolate,microwave,,90120,001,2022-04-25_12h02.21.825,SPAMnetsValid,2021.1.4,MacIntel,58.82352941,,,,,,,,,,,,,8,0.901,0,78,78,96,1,,,,,,,,,,,,,,,,,,,,,,,,,,,,,,,,,,,,,,,,,,,,,,,,,,,,,,,,,,,,,,,,,,,,,,
,,,,8,0.595,,,,,,101,cactus,kitchen,,90120,001,2022-04-25_12h02.21.825,SPAMnetsValid,2021.1.4,MacIntel,58.82352941,,,,,,,,,,,,,8,0.595,0,79,79,54,1,,,,,,,,,,,,,,,,,,,,,,,,,,,,,,,,,,,,,,,,,,,,,,,,,,,,,,,,,,,,,,,,,,,,,,
,,,,8,0.991,,,,,,193,melon,melon,CHECK,90120,001,2022-04-25_12h02.21.825,SPAMnetsValid,2021.1.4,MacIntel,58.82352941,,,,,,,,,,,,,8,0.991,0,80,80,86,1,,,,,,,,,,,,,,,,,,,,,,,,,,,,,,,,,,,,,,,,,,,,,,,,,,,,,,,,,,,,,,,,,,,,,,
,,,,7,1.76,,,,,,117,melon,strawberry,,90120,001,2022-04-25_12h02.21.825,SPAMnetsValid,2021.1.4,MacIntel,58.82352941,,,,,,,,,,,,,7,1.76,0,81,81,11,1,,,,,,,,,,,,,,,,,,,,,,,,,,,,,,,,,,,,,,,,,,,,,,,,,,,,,,,,,,,,,,,,,,,,,,
,,,,7,0.602,,,,,,135,carrot,oven,,90120,001,2022-04-25_12h02.21.825,SPAMnetsValid,2021.1.4,MacIntel,58.82352941,,,,,,,,,,,,,7,0.602,0,82,82,73,1,,,,,,,,,,,,,,,,,,,,,,,,,,,,,,,,,,,,,,,,,,,,,,,,,,,,,,,,,,,,,,,,,,,,,,
,,,,7,1.148,,,,,,184,oven,pretzel,,90120,001,2022-04-25_12h02.21.825,SPAMnetsValid,2021.1.4,MacIntel,58.82352941,,,,,,,,,,,,,7,1.148,0,83,83,42,1,,,,,,,,,,,,,,,,,,,,,,,,,,,,,,,,,,,,,,,,,,,,,,,,,,,,,,,,,,,,,,,,,,,,,,
,,,,7,0.519,,,,,,121,broom,microwave,,90120,001,2022-04-25_12h02.21.825,SPAMnetsValid,2021.1.4,MacIntel,58.82352941,,,,,,,,,,,,,7,0.519,0,84,84,95,1,,,,,,,,,,,,,,,,,,,,,,,,,,,,,,,,,,,,,,,,,,,,,,,,,,,,,,,,,,,,,,,,,,,,,,
,,,,7,0.599,,,,,,110,chocolate,cookie,,90120,001,2022-04-25_12h02.21.825,SPAMnetsValid,2021.1.4,MacIntel,58.82352941,,,,,,,,,,,,,7,0.599,0,85,85,52,1,,,,,,,,,,,,,,,,,,,,,,,,,,,,,,,,,,,,,,,,,,,,,,,,,,,,,,,,,,,,,,,,,,,,,,
,,,,7,0.468,,,,,,98,pretzel,strawberry,,90120,001,2022-04-25_12h02.21.825,SPAMnetsValid,2021.1.4,MacIntel,58.82352941,,,,,,,,,,,,,7,0.468,0,86,86,82,1,,,,,,,,,,,,,,,,,,,,,,,,,,,,,,,,,,,,,,,,,,,,,,,,,,,,,,,,,,,,,,,,,,,,,,
,,,,3,1.846,,,,,,182,flower,refrigerator,,90120,001,2022-04-25_12h02.21.825,SPAMnetsValid,2021.1.4,MacIntel,58.82352941,,,,,,,,,,,,,3,1.846,0,87,87,32,1,,,,,,,,,,,,,,,,,,,,,,,,,,,,,,,,,,,,,,,,,,,,,,,,,,,,,,,,,,,,,,,,,,,,,,
,,,,3,0.892,,,,,,112,cake,carrot,,90120,001,2022-04-25_12h02.21.825,SPAMnetsValid,2021.1.4,MacIntel,58.82352941,,,,,,,,,,,,,3,0.892,0,88,88,39,1,,,,,,,,,,,,,,,,,,,,,,,,,,,,,,,,,,,,,,,,,,,,,,,,,,,,,,,,,,,,,,,,,,,,,,
,,,,3,0.835,,,,,,109,broom,strawberry,,90120,001,2022-04-25_12h02.21.825,SPAMnetsValid,2021.1.4,MacIntel,58.82352941,,,,,,,,,,,,,3,0.835,0,89,89,4,1,,,,,,,,,,,,,,,,,,,,,,,,,,,,,,,,,,,,,,,,,,,,,,,,,,,,,,,,,,,,,,,,,,,,,,
,,,,3,0.594,,,,,,160,cookie,kitchen,,90120,001,2022-04-25_12h02.21.825,SPAMnetsValid,2021.1.4,MacIntel,58.82352941,,,,,,,,,,,,,3,0.594,0,90,90,65,1,,,,,,,,,,,,,,,,,,,,,,,,,,,,,,,,,,,,,,,,,,,,,,,,,,,,,,,,,,,,,,,,,,,,,,
,,,,7,1.362,,,,,,106,cake,strawberry,,90120,001,2022-04-25_12h02.21.825,SPAMnetsValid,2021.1.4,MacIntel,58.82352941,,,,,,,,,,,,,7,1.362,0,91,91,0,1,,,,,,,,,,,,,,,,,,,,,,,,,,,,,,,,,,,,,,,,,,,,,,,,,,,,,,,,,,,,,,,,,,,,,,
,,,,7,0.543,,,,,,140,cookie,refrigerator,,90120,001,2022-04-25_12h02.21.825,SPAMnetsValid,2021.1.4,MacIntel,58.82352941,,,,,,,,,,,,,7,0.543,0,92,92,89,1,,,,,,,,,,,,,,,,,,,,,,,,,,,,,,,,,,,,,,,,,,,,,,,,,,,,,,,,,,,,,,,,,,,,,,
,,,,7,0.398,,,,,,116,cake,chocolate,,90120,001,2022-04-25_12h02.21.825,SPAMnetsValid,2021.1.4,MacIntel,58.82352941,,,,,,,,,,,,,7,0.398,0,93,93,44,1,,,,,,,,,,,,,,,,,,,,,,,,,,,,,,,,,,,,,,,,,,,,,,,,,,,,,,,,,,,,,,,,,,,,,,
,,,,7,0.394,,,,,,166,cake,yogurt,,90120,001,2022-04-25_12h02.21.825,SPAMnetsValid,2021.1.4,MacIntel,58.82352941,,,,,,,,,,,,,7,0.394,0,94,94,91,1,,,,,,,,,,,,,,,,,,,,,,,,,,,,,,,,,,,,,,,,,,,,,,,,,,,,,,,,,,,,,,,,,,,,,,
,,,,7,0.695,,,,,,177,chocolate,strawberry,,90120,001,2022-04-25_12h02.21.825,SPAMnetsValid,2021.1.4,MacIntel,58.82352941,,,,,,,,,,,,,7,0.695,0,95,95,53,1,,,,,,,,,,,,,,,,,,,,,,,,,,,,,,,,,,,,,,,,,,,,,,,,,,,,,,,,,,,,,,,,,,,,,,
,,,,7,0.577,,,,,,154,strawberry,yogurt,,90120,001,2022-04-25_12h02.21.825,SPAMnetsValid,2021.1.4,MacIntel,58.82352941,,,,,,,,,,,,,7,0.577,0,96,96,28,1,,,,,,,,,,,,,,,,,,,,,,,,,,,,,,,,,,,,,,,,,,,,,,,,,,,,,,,,,,,,,,,,,,,,,,
,,,,,,,,,,,,,,,90120,001,2022-04-25_12h02.21.825,SPAMnetsValid,2021.1.4,MacIntel,58.82352941,,,,,,,,,,,,,,,,,,,,0,0,0,0,1,,,,,,,,,,,,,,,,,,,,,,,,,,,,,,,,,,,,,,,,,,,,,,,,,,,,,,,,,,,,,,,,,
,,,,,,,,,,,,,,,90120,001,2022-04-25_12h02.21.825,SPAMnetsValid,2021.1.4,MacIntel,58.82352941,,,,,,0,1,1,1,1,0,1,,,,,,,,,,,,,,,,,,,,,,,,,,,,,,,,,,,,,,,,,,,,,,,,,,,,,,,,,,,,,,,,,,,,,,,,,,,,,
,,,,,,,,,,,,,,,90120,001,2022-04-25_12h02.21.825,SPAMnetsValid,2021.1.4,MacIntel,58.82352941,,,,,,,,,,,,,,,,,,,,,,,,,3,4.387,0,0,0,0,1,rancor,forbearance,ridicule,malice,bravery,3,,,,,,,,,,,,,,,,,,,,,,,,,,,,,,,,,,,,,,,,,,,,,,,,,,,,
,,,,,,,,,,,,,,,90120,001,2022-04-25_12h02.21.825,SPAMnetsValid,2021.1.4,MacIntel,58.82352941,,,,,,,,,,,,,,,,,,,,,,,,,4,4.472,0,1,1,1,1,raucous,empty,quiet,smooth,harsh,4,,,,,,,,,,,,,,,,,,,,,,,,,,,,,,,,,,,,,,,,,,,,,,,,,,,,
,,,,,,,,,,,,,,,90120,001,2022-04-25_12h02.21.825,SPAMnetsValid,2021.1.4,MacIntel,58.82352941,,,,,,,,,,,,,,,,,,,,,,,,,3,1.561,0,2,2,2,1,gargoyle,oil,medicine,carved waterspout,ugly building,3,,,,,,,,,,,,,,,,,,,,,,,,,,,,,,,,,,,,,,,,,,,,,,,,,,,,
,,,,,,,,,,,,,,,90120,001,2022-04-25_12h02.21.825,SPAMnetsValid,2021.1.4,MacIntel,58.82352941,,,,,,,,,,,,,,,,,,,,,,,,,2,2.018,0,3,3,3,1,recrudesce,purify,renew activity,lack refinement,crush,2,,,,,,,,,,,,,,,,,,,,,,,,,,,,,,,,,,,,,,,,,,,,,,,,,,,,
,,,,,,,,,,,,,,,90120,001,2022-04-25_12h02.21.825,SPAMnetsValid,2021.1.4,MacIntel,58.82352941,,,,,,,,,,,,,,,,,,,,,,,,,1,3.356,0,4,4,4,1,specious,"plausible, but not genuine",noteworthy,class or variety,roomy,1,,,,,,,,,,,,,,,,,,,,,,,,,,,,,,,,,,,,,,,,,,,,,,,,,,,,
,,,,,,,,,,,,,,,90120,001,2022-04-25_12h02.21.825,SPAMnetsValid,2021.1.4,MacIntel,58.82352941,,,,,,,,,,,,,,,,,,,,,,,,,2,3.078,0,5,5,5,1,bauble,bubble,showy plaything,idle talk,confusion,2,,,,,,,,,,,,,,,,,,,,,,,,,,,,,,,,,,,,,,,,,,,,,,,,,,,,
,,,,,,,,,,,,,,,90120,001,2022-04-25_12h02.21.825,SPAMnetsValid,2021.1.4,MacIntel,58.82352941,,,,,,,,,,,,,,,,,,,,,,,,,4,7.05,0,6,6,6,1,prolific,scarce,producing abundantly,reckless,speaking profanely,2,,,,,,,,,,,,,,,,,,,,,,,,,,,,,,,,,,,,,,,,,,,,,,,,,,,,
,,,,,,,,,,,,,,,90120,001,2022-04-25_12h02.21.825,SPAMnetsValid,2021.1.4,MacIntel,58.82352941,,,,,,,,,,,,,,,,,,,,,,,,,2,2.174,0,7,7,7,1,opulent,party,wealthy,happy frame of mind,semiprecious stone,2,,,,,,,,,,,,,,,,,,,,,,,,,,,,,,,,,,,,,,,,,,,,,,,,,,,,
,,,,,,,,,,,,,,,90120,001,2022-04-25_12h02.21.825,SPAMnetsValid,2021.1.4,MacIntel,58.82352941,,,,,,,,,,,,,,,,,,,,,,,,,3,1.572,0,8,8,8,1,coercion,conspiracy,strategy,restraint,attraction,3,,,,,,,,,,,,,,,,,,,,,,,,,,,,,,,,,,,,,,,,,,,,,,,,,,,,
,,,,,,,,,,,,,,,90120,001,2022-04-25_12h02.21.825,SPAMnetsValid,2021.1.4,MacIntel,58.82352941,,,,,,,,,,,,,,,,,,,,,,,,,1,1.786,0,9,9,9,1,hiatus,animal,calamity,dread,gap,4,,,,,,,,,,,,,,,,,,,,,,,,,,,,,,,,,,,,,,,,,,,,,,,,,,,,
,,,,,,,,,,,,,,,90120,001,2022-04-25_12h02.21.825,SPAMnetsValid,2021.1.4,MacIntel,58.82352941,,,,,,,,,,,,,,,,,,,,,,,,,2,4.459,0,10,10,10,1,germane,microbe,contagious,relevant,different,3,,,,,,,,,,,,,,,,,,,,,,,,,,,,,,,,,,,,,,,,,,,,,,,,,,,,
,,,,,,,,,,,,,,,90120,001,2022-04-25_12h02.21.825,SPAMnetsValid,2021.1.4,MacIntel,58.82352941,,,,,,,,,,,,,,,,,,,,,,,,,1,2.134,0,11,11,11,1,perfunctory,fundamental,formal,superficial,careful,3,,,,,,,,,,,,,,,,,,,,,,,,,,,,,,,,,,,,,,,,,,,,,,,,,,,,
,,,,,,,,,,,,,,,90120,001,2022-04-25_12h02.21.825,SPAMnetsValid,2021.1.4,MacIntel,58.82352941,,,,,,,,,,,,,,,,,,,,,,,,,4,3.13,0,12,12,12,1,diverge,reveal,chant,distract the attention of,differ or turn off from,4,,,,,,,,,,,,,,,,,,,,,,,,,,,,,,,,,,,,,,,,,,,,,,,,,,,,
,,,,,,,,,,,,,,,90120,001,2022-04-25_12h02.21.825,SPAMnetsValid,2021.1.4,MacIntel,58.82352941,,,,,,,,,,,,,,,,,,,,,,,,,4,2.987,0,13,13,13,1,evoke,take away,anger,connect,bring out,4,,,,,,,,,,,,,,,,,,,,,,,,,,,,,,,,,,,,,,,,,,,,,,,,,,,,
,,,,,,,,,,,,,,,90120,001,2022-04-25_12h02.21.825,SPAMnetsValid,2021.1.4,MacIntel,58.82352941,,,,,,,,,,,,,,,,,,,,,,,,,2,2.678,0,14,14,14,1,pertinent,relevant,lying next to,necessary,bold,1,,,,,,,,,,,,,,,,,,,,,,,,,,,,,,,,,,,,,,,,,,,,,,,,,,,,
,,,,,,,,,,,,,,,90120,001,2022-04-25_12h02.21.825,SPAMnetsValid,2021.1.4,MacIntel,58.82352941,,,,,,,,,,,,,,,,,,,,,,,,,2,3.046,0,15,15,15,1,holocaust,entirety,destruction,saintly,price,2,,,,,,,,,,,,,,,,,,,,,,,,,,,,,,,,,,,,,,,,,,,,,,,,,,,,
,,,,,,,,,,,,,,,90120,001,2022-04-25_12h02.21.825,SPAMnetsValid,2021.1.4,MacIntel,58.82352941,,,,,,,,,,,,,,,,,,,,,,,,,3,5.612,0,16,16,16,1,piquant,mellow,fish,pungent,cloth,3,,,,,,,,,,,,,,,,,,,,,,,,,,,,,,,,,,,,,,,,,,,,,,,,,,,,
,,,,,,,,,,,,,,,90120,001,2022-04-25_12h02.21.825,SPAMnetsValid,2021.1.4,MacIntel,58.82352941,,,,,,,,,,,,,,,,,,,,,,,,,1,2.607,0,17,17,17,1,firmament,foundation,heavens,strong,glue,2,,,,,,,,,,,,,,,,,,,,,,,,,,,,,,,,,,,,,,,,,,,,,,,,,,,,
,,,,,,,,,,,,,,,90120,001,2022-04-25_12h02.21.825,SPAMnetsValid,2021.1.4,MacIntel,58.82352941,,,,,,,,,,,,,,,,,,,,,,,,,,,,,,,,,,,,,,4,4.883,0,0,0,0,1,marketable,partisan,jocular,marriageable,salable,essential,4,,,,,,,,,,,,,,,,,,,,,,,,,,,,,,,,,,,,,,
,,,,,,,,,,,,,,,90120,001,2022-04-25_12h02.21.825,SPAMnetsValid,2021.1.4,MacIntel,58.82352941,,,,,,,,,,,,,,,,,,,,,,,,,,,,,,,,,,,,,,4,6.181,0,1,1,1,1,cottontail,squirrel,poplar,boa,marshy plant,rabbit,5,,,,,,,,,,,,,,,,,,,,,,,,,,,,,,,,,,,,,,
,,,,,,,,,,,,,,,90120,001,2022-04-25_12h02.21.825,SPAMnetsValid,2021.1.4,MacIntel,58.82352941,,,,,,,,,,,,,,,,,,,,,,,,,,,,,,,,,,,,,,3,5.292,0,2,2,2,1,boggy,afraid,false,marshy,dense,black,3,,,,,,,,,,,,,,,,,,,,,,,,,,,,,,,,,,,,,,
,,,,,,,,,,,,,,,90120,001,2022-04-25_12h02.21.825,SPAMnetsValid,2021.1.4,MacIntel,58.82352941,,,,,,,,,,,,,,,,,,,,,,,,,,,,,,,,,,,,,,3,7.701,0,3,3,3,1,gruesomeness,blackness,falseness,vindictiveness,drunkenness,ghastliness,5,,,,,,,,,,,,,,,,,,,,,,,,,,,,,,,,,,,,,,
,,,,,,,,,,,,,,,90120,001,2022-04-25_12h02.21.825,SPAMnetsValid,2021.1.4,MacIntel,58.82352941,,,,,,,,,,,,,,,,,,,,,,,,,,,,,,,,,,,,,,1,6.149,0,4,4,4,1,loathing,diffidence,laziness,abhorrence,cleverness,comfort,3,,,,,,,,,,,,,,,,,,,,,,,,,,,,,,,,,,,,,,
,,,,,,,,,,,,,,,90120,001,2022-04-25_12h02.21.825,SPAMnetsValid,2021.1.4,MacIntel,58.82352941,,,,,,,,,,,,,,,,,,,,,,,,,,,,,,,,,,,,,,3,8.176,0,5,5,5,1,bantam,fowl,ridicule,cripple,vegetable,ensign,1,,,,,,,,,,,,,,,,,,,,,,,,,,,,,,,,,,,,,,
,,,,,,,,,,,,,,,90120,001,2022-04-25_12h02.21.825,SPAMnetsValid,2021.1.4,MacIntel,58.82352941,,,,,,,,,,,,,,,,,,,,,,,,,,,,,,,,,,,,,,2,7.211,0,6,6,6,1,evoke,wake up,surrender,reconnoiter,transcend,call forth,5,,,,,,,,,,,,,,,,,,,,,,,,,,,,,,,,,,,,,,
,,,,,,,,,,,,,,,90120,001,2022-04-25_12h02.21.825,SPAMnetsValid,2021.1.4,MacIntel,58.82352941,,,,,,,,,,,,,,,,,,,,,,,,,,,,,,,,,,,,,,3,5.612,0,7,7,7,1,unobtrusive,unintelligent,epileptic,illogical,lineal,modest,5,,,,,,,,,,,,,,,,,,,,,,,,,,,,,,,,,,,,,,
,,,,,,,,,,,,,,,90120,001,2022-04-25_12h02.21.825,SPAMnetsValid,2021.1.4,MacIntel,58.82352941,,,,,,,,,,,,,,,,,,,,,,,,,,,,,,,,,,,,,,4,2.78,0,8,8,8,1,terrain,ice cream,final test,tractor,area of ground,weight,4,,,,,,,,,,,,,,,,,,,,,,,,,,,,,,,,,,,,,,
,,,,,,,,,,,,,,,90120,001,2022-04-25_12h02.21.825,SPAMnetsValid,2021.1.4,MacIntel,58.82352941,,,,,,,,,,,,,,,,,,,,,,,,,,,,,,,,,,,,,,3,5.275,0,9,9,9,1,capriciousness,stubbornness,courage,whimsicality,amazement,greediness,3,,,,,,,,,,,,,,,,,,,,,,,,,,,,,,,,,,,,,,
,,,,,,,,,,,,,,,90120,001,2022-04-25_12h02.21.825,SPAMnetsValid,2021.1.4,MacIntel,58.82352941,,,,,,,,,,,,,,,,,,,,,,,,,,,,,,,,,,,,,,2,2.538,0,10,10,10,1,maelstrom,slander,whirlpool,enmity,armor,majolica,2,,,,,,,,,,,,,,,,,,,,,,,,,,,,,,,,,,,,,,
,,,,,,,,,,,,,,,90120,001,2022-04-25_12h02.21.825,SPAMnetsValid,2021.1.4,MacIntel,58.82352941,,,,,,,,,,,,,,,,,,,,,,,,,,,,,,,,,,,,,,1,2.925,0,11,11,11,1,tentative,critical,conclusive,authentic,provisional,apprehensive,4,,,,,,,,,,,,,,,,,,,,,,,,,,,,,,,,,,,,,,
,,,,,,,,,,,,,,,90120,001,2022-04-25_12h02.21.825,SPAMnetsValid,2021.1.4,MacIntel,58.82352941,,,,,,,,,,,,,,,,,,,,,,,,,,,,,,,,,,,,,,2,4.46,0,12,12,12,1,placate,rehabilitate,plagiarize,depredate,apprise,conciliate,5,,,,,,,,,,,,,,,,,,,,,,,,,,,,,,,,,,,,,,
,,,,,,,,,,,,,,,90120,001,2022-04-25_12h02.21.825,SPAMnetsValid,2021.1.4,MacIntel,58.82352941,,,,,,,,,,,,,,,,,,,,,,,,,,,,,,,,,,,,,,2,3.562,0,13,13,13,1,surcease,enlightenment,cessation,inattention,censor,substitution,2,,,,,,,,,,,,,,,,,,,,,,,,,,,,,,,,,,,,,,
,,,,,,,,,,,,,,,90120,001,2022-04-25_12h02.21.825,SPAMnetsValid,2021.1.4,MacIntel,58.82352941,,,,,,,,,,,,,,,,,,,,,,,,,,,,,,,,,,,,,,2,10.867,0,14,14,14,1,apathetic,wandering,impassive,hateful,prophetic,overflowing,2,,,,,,,,,,,,,,,,,,,,,,,,,,,,,,,,,,,,,,
,,,,,,,,,,,,,,,90120,001,2022-04-25_12h02.21.825,SPAMnetsValid,2021.1.4,MacIntel,58.82352941,,,,,,,,,,,,,,,,,,,,,,,,,,,,,,,,,,,,,,1,6.033,0,15,15,15,1,paternoster,paternalism,patricide,malediction,benediction,prayer,5,,,,,,,,,,,,,,,,,,,,,,,,,,,,,,,,,,,,,,
,,,,,,,,,,,,,,,90120,001,2022-04-25_12h02.21.825,SPAMnetsValid,2021.1.4,MacIntel,58.82352941,,,,,,,,,,,,,,,,,,,,,,,,,,,,,,,,,,,,,,1,4.66,0,16,16,16,1,opalescence,opulence,senescence,bankruptcy,iridescence,assiduity,4,,,,,,,,,,,,,,,,,,,,,,,,,,,,,,,,,,,,,,
,,,,,,,,,,,,,,,90120,001,2022-04-25_12h02.21.825,SPAMnetsValid,2021.1.4,MacIntel,58.82352941,,,,,,,,,,,,,,,,,,,,,,,,,,,,,,,,,,,,,,2,4.997,0,17,17,17,1,lush,stupid,luxurious,hazy,putrid,languishing,2,,,,,,,,,,,,,,,,,,,,,,,,,,,,,,,,,,,,,,
,,,,,,,,,,,,,,,90120,001,2022-04-25_12h02.21.825,SPAMnetsValid,2021.1.4,MacIntel,58.82352941,,,,,,,,,,,,,,,,,,,,,,,,,,,,,,,,,,,,,,3,6.073,0,18,18,18,1,curtailment,expenditure,abandonment,abridgment,improvement,forgery,3,,,,,,,,,,,,,,,,,,,,,,,,,,,,,,,,,,,,,,
,,,,,,,,,,,,,,,90120,001,2022-04-25_12h02.21.825,SPAMnetsValid,2021.1.4,MacIntel,58.82352941,,,,,,,,,,,,,,,,,,,,,,,,,,,,,,,,,,,,,,2,3.83,0,19,19,19,1,perversity,adversity,perviousness,travesty,waywardness,gentility,4,,,,,,,,,,,,,,,,,,,,,,,,,,,,,,,,,,,,,,
,,,,,,,,,,,,,,,90120,001,2022-04-25_12h02.21.825,SPAMnetsValid,2021.1.4,MacIntel,58.82352941,,,,,,,,,,,,,,,,,,,,,,,,,,,,,,,,,,,,,,4,3.115,0,20,20,20,1,calumnious,complimentary,analogous,slanderous,tempestuous,magnanimous,3,,,,,,,,,,,,,,,,,,,,,,,,,,,,,,,,,,,,,,
,,,,,,,,,,,,,,,90120,001,2022-04-25_12h02.21.825,SPAMnetsValid,2021.1.4,MacIntel,58.82352941,,,,,,,,,,,,,,,,,,,,,,,,,,,,,,,,,,,,,,5,6.125,0,21,21,21,1,illiberality,bigotry,imbecility,illegibility,cautery,immaturity,1,,,,,,,,,,,,,,,,,,,,,,,,,,,,,,,,,,,,,,
,,,,,,,,,,,,,,,90120,001,2022-04-25_12h02.21.825,SPAMnetsValid,2021.1.4,MacIntel,58.82352941,,,,,,,,,,,,,,,,,,,,,,,,,,,,,,,,,,,,,,2,1.832,0,22,22,22,1,clabber,rejoice,gossip,curdle,crow,hobble,3,,,,,,,,,,,,,,,,,,,,,,,,,,,,,,,,,,,,,,
,,,,,,,,,,,,,,,90120,001,2022-04-25_12h02.21.825,SPAMnetsValid,2021.1.4,MacIntel,58.82352941,,,,,,,,,,,,,,,,,,,,,,,,,,,,,,,,,,,,,,2,3.05,0,23,23,23,1,sedulousness,diligence,credulousness,seduction,perilousness,frankness,1,,,,,,,,,,,,,,,,,,,,,,,,,,,,,,,,,,,,,,
,,,,,,,,,,,,,,,90120,001,2022-04-25_12h02.21.825,SPAMnetsValid,2021.1.4,MacIntel,58.82352941,,,,,,,,,,,,,,,,,,,,,,,,,,,,,,,,,,,,,,,,,,,,,,,,,,,,fill with water,bucket,0,0,0,0,1,,,,,,,,,,,,,,,,,,,,,,,,,,,,,,,
,,,,,,,,,,,,,,,90120,001,2022-04-25_12h02.21.825,SPAMnetsValid,2021.1.4,MacIntel,58.82352941,,,,,,,,,,,,,,,,,,,,,,,,,,,,,,,,,,,,,,,,,,,,,,,,,,,,fill with dirt,bucket,1,0,1,0,1,,,,,,,,,,,,,,,,,,,,,,,,,,,,,,,
,,,,,,,,,,,,,,,90120,001,2022-04-25_12h02.21.825,SPAMnetsValid,2021.1.4,MacIntel,58.82352941,,,,,,,,,,,,,,,,,,,,,,,,,,,,,,,,,,,,,,,,,,,,,,,,,,,,row a boat,bucket,2,0,2,0,1,,,,,,,,,,,,,,,,,,,,,,,,,,,,,,,
,,,,,,,,,,,,,,,90120,001,2022-04-25_12h02.21.825,SPAMnetsValid,2021.1.4,MacIntel,58.82352941,,,,,,,,,,,,,,,,,,,,,,,,,,,,,,,,,,,,,,,,,,,,,,,,,,,,save a boat,bucket,3,0,3,0,1,,,,,,,,,,,,,,,,,,,,,,,,,,,,,,,
,,,,,,,,,,,,,,,90120,001,2022-04-25_12h02.21.825,SPAMnetsValid,2021.1.4,MacIntel,58.82352941,,,,,,,,,,,,,,,,,,,,,,,,,,,,,,,,,,,,,,,,,,,,,,,,,,,,collect change,bucket,4,0,4,0,1,,,,,,,,,,,,,,,,,,,,,,,,,,,,,,,
,,,,,,,,,,,,,,,90120,001,2022-04-25_12h02.21.825,SPAMnetsValid,2021.1.4,MacIntel,58.82352941,,,,,,,,,,,,,,,,,,,,,,,,,,,,,,,,,,,,,,,,,,,,,,,,,,,,stop spilling,bucket,5,0,5,0,1,,,,,,,,,,,,,,,,,,,,,,,,,,,,,,,
,,,,,,,,,,,,,,,90120,001,2022-04-25_12h02.21.825,SPAMnetsValid,2021.1.4,MacIntel,58.82352941,,,,,,,,,,,,,,,,,,,,,,,,,,,,,,,,,,,,,,,,,,,,,,,,,,,,put things in,bucket,6,0,6,0,1,,,,,,,,,,,,,,,,,,,,,,,,,,,,,,,
,,,,,,,,,,,,,,,90120,001,2022-04-25_12h02.21.825,SPAMnetsValid,2021.1.4,MacIntel,58.82352941,,,,,,,,,,,,,,,,,,,,,,,,,,,,,,,,,,,,,,,,,,,,,,,,,,,,trash,bucket,7,0,7,0,1,,,,,,,,,,,,,,,,,,,,,,,,,,,,,,,
,,,,,,,,,,,,,,,90120,001,2022-04-25_12h02.21.825,SPAMnetsValid,2021.1.4,MacIntel,58.82352941,,,,,,,,,,,,,,,,,,,,,,,,,,,,,,,,,,,,,,,,,,,,,,,,,,,,stool,bucket,8,0,8,0,1,,,,,,,,,,,,,,,,,,,,,,,,,,,,,,,
,,,,,,,,,,,,,,,90120,001,2022-04-25_12h02.21.825,SPAMnetsValid,2021.1.4,MacIntel,58.82352941,,,,,,,,,,,,,,,,,,,,,,,,,,,,,,,,,,,,,,,,,,,,,,,,,,,,storage,bucket,9,0,9,0,1,,,,,,,,,,,,,,,,,,,,,,,,,,,,,,,
,,,,,,,,,,,,,,,90120,001,2022-04-25_12h02.21.825,SPAMnetsValid,2021.1.4,MacIntel,58.82352941,,,,,,,,,,,,,,,,,,,,,,,,,,,,,,,,,,,,,,,,,,,,,,,,,,,,feed animals,bucket,10,0,10,0,1,,,,,,,,,,,,,,,,,,,,,,,,,,,,,,,
,,,,,,,,,,,,,,,90120,001,2022-04-25_12h02.21.825,SPAMnetsValid,2021.1.4,MacIntel,58.82352941,,,,,,,,,,,,,,,,,,,,,,,,,,,,,,,,,,,,,,,,,,,,,,,,,,,,hat,bucket,11,0,11,0,1,,,,,,,,,,,,,,,,,,,,,,,,,,,,,,,
,,,,,,,,,,,,,,,90120,001,2022-04-25_12h02.21.825,SPAMnetsValid,2021.1.4,MacIntel,58.82352941,,,,,,,,,,,,,,,,,,,,,,,,,,,,,,,,,,,,,,,,,,,,,,,,,,,,helmet,bucket,12,0,12,0,1,,,,,,,,,,,,,,,,,,,,,,,,,,,,,,,
,,,,,,,,,,,,,,,90120,001,2022-04-25_12h02.21.825,SPAMnetsValid,2021.1.4,MacIntel,58.82352941,,,,,,,,,,,,,,,,,,,,,,,,,,,,,,,,,,,,,,,,,,,,,,,,,,,,,,,,,,,0,0,0,0,1,bucket,,,,,,,,,,,,,,,,,,,,,,,,,
,,,,,,,,,,,,,,,90120,001,2022-04-25_12h02.21.825,SPAMnetsValid,2021.1.4,MacIntel,58.82352941,,,,,,,,,,,,,,,,,,,,,,,,,,,,,,,,,,,,,,,,,,,,,,,,,,,,sleep ,pillow,0,0,0,0,1,,,,,,,,,,,,,,,,,,,,,,,,,,,,,,,
,,,,,,,,,,,,,,,90120,001,2022-04-25_12h02.21.825,SPAMnetsValid,2021.1.4,MacIntel,58.82352941,,,,,,,,,,,,,,,,,,,,,,,,,,,,,,,,,,,,,,,,,,,,,,,,,,,,fight,pillow,1,0,1,0,1,,,,,,,,,,,,,,,,,,,,,,,,,,,,,,,
,,,,,,,,,,,,,,,90120,001,2022-04-25_12h02.21.825,SPAMnetsValid,2021.1.4,MacIntel,58.82352941,,,,,,,,,,,,,,,,,,,,,,,,,,,,,,,,,,,,,,,,,,,,,,,,,,,,protection,pillow,2,0,2,0,1,,,,,,,,,,,,,,,,,,,,,,,,,,,,,,,
,,,,,,,,,,,,,,,90120,001,2022-04-25_12h02.21.825,SPAMnetsValid,2021.1.4,MacIntel,58.82352941,,,,,,,,,,,,,,,,,,,,,,,,,,,,,,,,,,,,,,,,,,,,,,,,,,,,weapon,pillow,3,0,3,0,1,,,,,,,,,,,,,,,,,,,,,,,,,,,,,,,
,,,,,,,,,,,,,,,90120,001,2022-04-25_12h02.21.825,SPAMnetsValid,2021.1.4,MacIntel,58.82352941,,,,,,,,,,,,,,,,,,,,,,,,,,,,,,,,,,,,,,,,,,,,,,,,,,,,back support,pillow,4,0,4,0,1,,,,,,,,,,,,,,,,,,,,,,,,,,,,,,,
,,,,,,,,,,,,,,,90120,001,2022-04-25_12h02.21.825,SPAMnetsValid,2021.1.4,MacIntel,58.82352941,,,,,,,,,,,,,,,,,,,,,,,,,,,,,,,,,,,,,,,,,,,,,,,,,,,,seat,pillow,5,0,5,0,1,,,,,,,,,,,,,,,,,,,,,,,,,,,,,,,
,,,,,,,,,,,,,,,90120,001,2022-04-25_12h02.21.825,SPAMnetsValid,2021.1.4,MacIntel,58.82352941,,,,,,,,,,,,,,,,,,,,,,,,,,,,,,,,,,,,,,,,,,,,,,,,,,,,helmet,pillow,6,0,6,0,1,,,,,,,,,,,,,,,,,,,,,,,,,,,,,,,
,,,,,,,,,,,,,,,90120,001,2022-04-25_12h02.21.825,SPAMnetsValid,2021.1.4,MacIntel,58.82352941,,,,,,,,,,,,,,,,,,,,,,,,,,,,,,,,,,,,,,,,,,,,,,,,,,,,fake belly,pillow,7,0,7,0,1,,,,,,,,,,,,,,,,,,,,,,,,,,,,,,,
,,,,,,,,,,,,,,,90120,001,2022-04-25_12h02.21.825,SPAMnetsValid,2021.1.4,MacIntel,58.82352941,,,,,,,,,,,,,,,,,,,,,,,,,,,,,,,,,,,,,,,,,,,,,,,,,,,,cushion,pillow,8,0,8,0,1,,,,,,,,,,,,,,,,,,,,,,,,,,,,,,,
,,,,,,,,,,,,,,,90120,001,2022-04-25_12h02.21.825,SPAMnetsValid,2021.1.4,MacIntel,58.82352941,,,,,,,,,,,,,,,,,,,,,,,,,,,,,,,,,,,,,,,,,,,,,,,,,,,,support,pillow,9,0,9,0,1,,,,,,,,,,,,,,,,,,,,,,,,,,,,,,,
,,,,,,,,,,,,,,,90120,001,2022-04-25_12h02.21.825,SPAMnetsValid,2021.1.4,MacIntel,58.82352941,,,,,,,,,,,,,,,,,,,,,,,,,,,,,,,,,,,,,,,,,,,,,,,,,,,,,,,,,,,0,1,1,2,1,pillow,,,,,,,,,,,,,,,,,,,,,,,,,
,,,,,,,,,,,,,,,90120,001,2022-04-25_12h02.21.825,SPAMnetsValid,2021.1.4,MacIntel,58.82352941,,,,,,,,,,,,,,,,,,,,,,,,,,,,,,,,,,,,,,,,,,,,,,,,,,,,light,candle,0,0,0,0,1,,,,,,,,,,,,,,,,,,,,,,,,,,,,,,,
,,,,,,,,,,,,,,,90120,001,2022-04-25_12h02.21.825,SPAMnetsValid,2021.1.4,MacIntel,58.82352941,,,,,,,,,,,,,,,,,,,,,,,,,,,,,,,,,,,,,,,,,,,,,,,,,,,,wax,candle,1,0,1,0,1,,,,,,,,,,,,,,,,,,,,,,,,,,,,,,,
,,,,,,,,,,,,,,,90120,001,2022-04-25_12h02.21.825,SPAMnetsValid,2021.1.4,MacIntel,58.82352941,,,,,,,,,,,,,,,,,,,,,,,,,,,,,,,,,,,,,,,,,,,,,,,,,,,,romance,candle,2,0,2,0,1,,,,,,,,,,,,,,,,,,,,,,,,,,,,,,,
,,,,,,,,,,,,,,,90120,001,2022-04-25_12h02.21.825,SPAMnetsValid,2021.1.4,MacIntel,58.82352941,,,,,,,,,,,,,,,,,,,,,,,,,,,,,,,,,,,,,,,,,,,,,,,,,,,,picnic,candle,3,0,3,0,1,,,,,,,,,,,,,,,,,,,,,,,,,,,,,,,
,,,,,,,,,,,,,,,90120,001,2022-04-25_12h02.21.825,SPAMnetsValid,2021.1.4,MacIntel,58.82352941,,,,,,,,,,,,,,,,,,,,,,,,,,,,,,,,,,,,,,,,,,,,,,,,,,,,,,,,,,,0,2,2,1,1,candle,,,,,,,,,,,,,,,,,,,,,,,,,
,,,,,,,,,,,,,,,90120,001,2022-04-25_12h02.21.825,SPAMnetsValid,2021.1.4,MacIntel,58.82352941,,,,,,,,,,,,,,,,,,,,,,,,,,,,,,,,,,,,,,,,,,,,,,,,,,,,,,,,,,,,,,,,,cat,Animals,0,0,0,0,1,,,,,,,,,,,,,,,,,,
,,,,,,,,,,,,,,,90120,001,2022-04-25_12h02.21.825,SPAMnetsValid,2021.1.4,MacIntel,58.82352941,,,,,,,,,,,,,,,,,,,,,,,,,,,,,,,,,,,,,,,,,,,,,,,,,,,,,,,,,,,,,,,,,dog,Animals,1,0,1,0,1,,,,,,,,,,,,,,,,,,
,,,,,,,,,,,,,,,90120,001,2022-04-25_12h02.21.825,SPAMnetsValid,2021.1.4,MacIntel,58.82352941,,,,,,,,,,,,,,,,,,,,,,,,,,,,,,,,,,,,,,,,,,,,,,,,,,,,,,,,,,,,,,,,,monkey,Animals,2,0,2,0,1,,,,,,,,,,,,,,,,,,
,,,,,,,,,,,,,,,90120,001,2022-04-25_12h02.21.825,SPAMnetsValid,2021.1.4,MacIntel,58.82352941,,,,,,,,,,,,,,,,,,,,,,,,,,,,,,,,,,,,,,,,,,,,,,,,,,,,,,,,,,,,,,,,,turtle,Animals,3,0,3,0,1,,,,,,,,,,,,,,,,,,
,,,,,,,,,,,,,,,90120,001,2022-04-25_12h02.21.825,SPAMnetsValid,2021.1.4,MacIntel,58.82352941,,,,,,,,,,,,,,,,,,,,,,,,,,,,,,,,,,,,,,,,,,,,,,,,,,,,,,,,,,,,,,,,,mouse,Animals,4,0,4,0,1,,,,,,,,,,,,,,,,,,
,,,,,,,,,,,,,,,90120,001,2022-04-25_12h02.21.825,SPAMnetsValid,2021.1.4,MacIntel,58.82352941,,,,,,,,,,,,,,,,,,,,,,,,,,,,,,,,,,,,,,,,,,,,,,,,,,,,,,,,,,,,,,,,,rat,Animals,5,0,5,0,1,,,,,,,,,,,,,,,,,,
,,,,,,,,,,,,,,,90120,001,2022-04-25_12h02.21.825,SPAMnetsValid,2021.1.4,MacIntel,58.82352941,,,,,,,,,,,,,,,,,,,,,,,,,,,,,,,,,,,,,,,,,,,,,,,,,,,,,,,,,,,,,,,,,kitten,Animals,6,0,6,0,1,,,,,,,,,,,,,,,,,,
,,,,,,,,,,,,,,,90120,001,2022-04-25_12h02.21.825,SPAMnetsValid,2021.1.4,MacIntel,58.82352941,,,,,,,,,,,,,,,,,,,,,,,,,,,,,,,,,,,,,,,,,,,,,,,,,,,,,,,,,,,,,,,,,puppy,Animals,7,0,7,0,1,,,,,,,,,,,,,,,,,,
,,,,,,,,,,,,,,,90120,001,2022-04-25_12h02.21.825,SPAMnetsValid,2021.1.4,MacIntel,58.82352941,,,,,,,,,,,,,,,,,,,,,,,,,,,,,,,,,,,,,,,,,,,,,,,,,,,,,,,,,,,,,,,,,tourtuga,Animals,8,0,8,0,1,,,,,,,,,,,,,,,,,,
,,,,,,,,,,,,,,,90120,001,2022-04-25_12h02.21.825,SPAMnetsValid,2021.1.4,MacIntel,58.82352941,,,,,,,,,,,,,,,,,,,,,,,,,,,,,,,,,,,,,,,,,,,,,,,,,,,,,,,,,,,,,,,,,ant,Animals,9,0,9,0,1,,,,,,,,,,,,,,,,,,
,,,,,,,,,,,,,,,90120,001,2022-04-25_12h02.21.825,SPAMnetsValid,2021.1.4,MacIntel,58.82352941,,,,,,,,,,,,,,,,,,,,,,,,,,,,,,,,,,,,,,,,,,,,,,,,,,,,,,,,,,,,,,,,,bugs,Animals,10,0,10,0,1,,,,,,,,,,,,,,,,,,
,,,,,,,,,,,,,,,90120,001,2022-04-25_12h02.21.825,SPAMnetsValid,2021.1.4,MacIntel,58.82352941,,,,,,,,,,,,,,,,,,,,,,,,,,,,,,,,,,,,,,,,,,,,,,,,,,,,,,,,,,,,,,,,,whale,Animals,11,0,11,0,1,,,,,,,,,,,,,,,,,,
,,,,,,,,,,,,,,,90120,001,2022-04-25_12h02.21.825,SPAMnetsValid,2021.1.4,MacIntel,58.82352941,,,,,,,,,,,,,,,,,,,,,,,,,,,,,,,,,,,,,,,,,,,,,,,,,,,,,,,,,,,,,,,,,shark,Animals,12,0,12,0,1,,,,,,,,,,,,,,,,,,
,,,,,,,,,,,,,,,90120,001,2022-04-25_12h02.21.825,SPAMnetsValid,2021.1.4,MacIntel,58.82352941,,,,,,,,,,,,,,,,,,,,,,,,,,,,,,,,,,,,,,,,,,,,,,,,,,,,,,,,,,,,,,,,,dophin,Animals,13,0,13,0,1,,,,,,,,,,,,,,,,,,
,,,,,,,,,,,,,,,90120,001,2022-04-25_12h02.21.825,SPAMnetsValid,2021.1.4,MacIntel,58.82352941,,,,,,,,,,,,,,,,,,,,,,,,,,,,,,,,,,,,,,,,,,,,,,,,,,,,,,,,,,,,,,,,,snake,Animals,14,0,14,0,1,,,,,,,,,,,,,,,,,,
,,,,,,,,,,,,,,,90120,001,2022-04-25_12h02.21.825,SPAMnetsValid,2021.1.4,MacIntel,58.82352941,,,,,,,,,,,,,,,,,,,,,,,,,,,,,,,,,,,,,,,,,,,,,,,,,,,,,,,,,,,,,,,,,lizard,Animals,15,0,15,0,1,,,,,,,,,,,,,,,,,,
,,,,,,,,,,,,,,,90120,001,2022-04-25_12h02.21.825,SPAMnetsValid,2021.1.4,MacIntel,58.82352941,,,,,,,,,,,,,,,,,,,,,,,,,,,,,,,,,,,,,,,,,,,,,,,,,,,,,,,,,,,,,,,,,frog,Animals,16,0,16,0,1,,,,,,,,,,,,,,,,,,
,,,,,,,,,,,,,,,90120,001,2022-04-25_12h02.21.825,SPAMnetsValid,2021.1.4,MacIntel,58.82352941,,,,,,,,,,,,,,,,,,,,,,,,,,,,,,,,,,,,,,,,,,,,,,,,,,,,,,,,,,,,,,,,,,Animals,17,0,17,0,1,,,,,,,,,,,,,,,,,,
,,,,,,,,,,,,,,,90120,001,2022-04-25_12h02.21.825,SPAMnetsValid,2021.1.4,MacIntel,58.82352941,,,,,,,,,,,,,,,,,,,,,,,,,,,,,,,,,,,,,,,,,,,,,,,,,,,,,,,,,,,,,,,,,reptile,Animals,18,0,18,0,1,,,,,,,,,,,,,,,,,,
,,,,,,,,,,,,,,,90120,001,2022-04-25_12h02.21.825,SPAMnetsValid,2021.1.4,MacIntel,58.82352941,,,,,,,,,,,,,,,,,,,,,,,,,,,,,,,,,,,,,,,,,,,,,,,,,,,,,,,,,,,,,,,,,fish,Animals,19,0,19,0,1,,,,,,,,,,,,,,,,,,
,,,,,,,,,,,,,,,90120,001,2022-04-25_12h02.21.825,SPAMnetsValid,2021.1.4,MacIntel,58.82352941,,,,,,,,,,,,,,,,,,,,,,,,,,,,,,,,,,,,,,,,,,,,,,,,,,,,,,,,,,,,,,,,,marlin,Animals,20,0,20,0,1,,,,,,,,,,,,,,,,,,
,,,,,,,,,,,,,,,90120,001,2022-04-25_12h02.21.825,SPAMnetsValid,2021.1.4,MacIntel,58.82352941,,,,,,,,,,,,,,,,,,,,,,,,,,,,,,,,,,,,,,,,,,,,,,,,,,,,,,,,,,,,,,,,,sword fish,Animals,21,0,21,0,1,,,,,,,,,,,,,,,,,,
,,,,,,,,,,,,,,,90120,001,2022-04-25_12h02.21.825,SPAMnetsValid,2021.1.4,MacIntel,58.82352941,,,,,,,,,,,,,,,,,,,,,,,,,,,,,,,,,,,,,,,,,,,,,,,,,,,,,,,,,,,,,,,,,alligator,Animals,22,0,22,0,1,,,,,,,,,,,,,,,,,,
,,,,,,,,,,,,,,,90120,001,2022-04-25_12h02.21.825,SPAMnetsValid,2021.1.4,MacIntel,58.82352941,,,,,,,,,,,,,,,,,,,,,,,,,,,,,,,,,,,,,,,,,,,,,,,,,,,,,,,,,,,,,,,,,croc,Animals,23,0,23,0,1,,,,,,,,,,,,,,,,,,
,,,,,,,,,,,,,,,90120,001,2022-04-25_12h02.21.825,SPAMnetsValid,2021.1.4,MacIntel,58.82352941,,,,,,,,,,,,,,,,,,,,,,,,,,,,,,,,,,,,,,,,,,,,,,,,,,,,,,,,,,,,,,,,,bird,Animals,24,0,24,0,1,,,,,,,,,,,,,,,,,,
,,,,,,,,,,,,,,,90120,001,2022-04-25_12h02.21.825,SPAMnetsValid,2021.1.4,MacIntel,58.82352941,,,,,,,,,,,,,,,,,,,,,,,,,,,,,,,,,,,,,,,,,,,,,,,,,,,,,,,,,,,,,,,,,seagull,Animals,25,0,25,0,1,,,,,,,,,,,,,,,,,,
,,,,,,,,,,,,,,,90120,001,2022-04-25_12h02.21.825,SPAMnetsValid,2021.1.4,MacIntel,58.82352941,,,,,,,,,,,,,,,,,,,,,,,,,,,,,,,,,,,,,,,,,,,,,,,,,,,,,,,,,,,,,,,,,eagle,Animals,26,0,26,0,1,,,,,,,,,,,,,,,,,,
,,,,,,,,,,,,,,,90120,001,2022-04-25_12h02.21.825,SPAMnetsValid,2021.1.4,MacIntel,58.82352941,,,,,,,,,,,,,,,,,,,,,,,,,,,,,,,,,,,,,,,,,,,,,,,,,,,,,,,,,,,,,,,,,cardnal,Animals,27,0,27,0,1,,,,,,,,,,,,,,,,,,
,,,,,,,,,,,,,,,90120,001,2022-04-25_12h02.21.825,SPAMnetsValid,2021.1.4,MacIntel,58.82352941,,,,,,,,,,,,,,,,,,,,,,,,,,,,,,,,,,,,,,,,,,,,,,,,,,,,,,,,,,,,,,,,,deer,Animals,28,0,28,0,1,,,,,,,,,,,,,,,,,,
,,,,,,,,,,,,,,,90120,001,2022-04-25_12h02.21.825,SPAMnetsValid,2021.1.4,MacIntel,58.82352941,,,,,,,,,,,,,,,,,,,,,,,,,,,,,,,,,,,,,,,,,,,,,,,,,,,,,,,,,,,,,,,,,buck,Animals,29,0,29,0,1,,,,,,,,,,,,,,,,,,
,,,,,,,,,,,,,,,90120,001,2022-04-25_12h02.21.825,SPAMnetsValid,2021.1.4,MacIntel,58.82352941,,,,,,,,,,,,,,,,,,,,,,,,,,,,,,,,,,,,,,,,,,,,,,,,,,,,,,,,,,,,,,,,,turkey,Animals,30,0,30,0,1,,,,,,,,,,,,,,,,,,
,,,,,,,,,,,,,,,90120,001,2022-04-25_12h02.21.825,SPAMnetsValid,2021.1.4,MacIntel,58.82352941,,,,,,,,,,,,,,,,,,,,,,,,,,,,,,,,,,,,,,,,,,,,,,,,,,,,,,,,,,,,,,,,,lion,Animals,31,0,31,0,1,,,,,,,,,,,,,,,,,,
,,,,,,,,,,,,,,,90120,001,2022-04-25_12h02.21.825,SPAMnetsValid,2021.1.4,MacIntel,58.82352941,,,,,,,,,,,,,,,,,,,,,,,,,,,,,,,,,,,,,,,,,,,,,,,,,,,,,,,,,,,,,,,,,cheeta,Animals,32,0,32,0,1,,,,,,,,,,,,,,,,,,
,,,,,,,,,,,,,,,90120,001,2022-04-25_12h02.21.825,SPAMnetsValid,2021.1.4,MacIntel,58.82352941,,,,,,,,,,,,,,,,,,,,,,,,,,,,,,,,,,,,,,,,,,,,,,,,,,,,,,,,,,,,,,,,,sloth,Animals,33,0,33,0,1,,,,,,,,,,,,,,,,,,
,,,,,,,,,,,,,,,90120,001,2022-04-25_12h02.21.825,SPAMnetsValid,2021.1.4,MacIntel,58.82352941,,,,,,,,,,,,,,,,,,,,,,,,,,,,,,,,,,,,,,,,,,,,,,,,,,,,,,,,,,,,,,,,,gorilla,Animals,34,0,34,0,1,,,,,,,,,,,,,,,,,,
,,,,,,,,,,,,,,,90120,001,2022-04-25_12h02.21.825,SPAMnetsValid,2021.1.4,MacIntel,58.82352941,,,,,,,,,,,,,,,,,,,,,,,,,,,,,,,,,,,,,,,,,,,,,,,,,,,,,,,,,,,,,,,,,,,,,,,,0,0,0,0,1,Animals,,,,,,,,,,,,
,,,,,,,,,,,,,,,90120,001,2022-04-25_12h02.21.825,SPAMnetsValid,2021.1.4,MacIntel,58.82352941,,,,,,,,,,,,,,,,,,,,,,,,,,,,,,,,,,,,,,,,,,,,,,,,,,,,,,,,,,,,,,,,,,,,,,,,,,,,,,5,8.024,0,0,0,0,1,"I enjoy concentrating on a fantasy or daydream and exploring all its possibilities, letting it grow and develop.",0,1,,
,,,,,,,,,,,,,,,90120,001,2022-04-25_12h02.21.825,SPAMnetsValid,2021.1.4,MacIntel,58.82352941,,,,,,,,,,,,,,,,,,,,,,,,,,,,,,,,,,,,,,,,,,,,,,,,,,,,,,,,,,,,,,,,,,,,,,,,,,,,,,5,0.904,0,1,1,1,1,I think it's interesting to learn and develop new hobbies.,0,2,,
,,,,,,,,,,,,,,,90120,001,2022-04-25_12h02.21.825,SPAMnetsValid,2021.1.4,MacIntel,58.82352941,,,,,,,,,,,,,,,,,,,,,,,,,,,,,,,,,,,,,,,,,,,,,,,,,,,,,,,,,,,,,,,,,,,,,,,,,,,,,,5,1,0,2,2,2,1,I am intrigued by the patterns I find in art and nature.,0,3,,
,,,,,,,,,,,,,,,90120,001,2022-04-25_12h02.21.825,SPAMnetsValid,2021.1.4,MacIntel,58.82352941,,,,,,,,,,,,,,,,,,,,,,,,,,,,,,,,,,,,,,,,,,,,,,,,,,,,,,,,,,,,,,,,,,,,,,,,,,,,,,5,0.74,0,3,3,3,1,I believe letting students hear controversial speakers can only confuse and mislead them.,1,4,,
,,,,,,,,,,,,,,,90120,001,2022-04-25_12h02.21.825,SPAMnetsValid,2021.1.4,MacIntel,58.82352941,,,,,,,,,,,,,,,,,,,,,,,,,,,,,,,,,,,,,,,,,,,,,,,,,,,,,,,,,,,,,,,,,,,,,,,,,,,,,,3,2.902,0,4,4,4,1,Poetry has little or no effect on me.,1,5,,
,,,,,,,,,,,,,,,90120,001,2022-04-25_12h02.21.825,SPAMnetsValid,2021.1.4,MacIntel,58.82352941,,,,,,,,,,,,,,,,,,,,,,,,,,,,,,,,,,,,,,,,,,,,,,,,,,,,,,,,,,,,,,,,,,,,,,,,,,,,,,3,3.039,0,5,5,5,1,I would have difficulty just letting my mind wander without control or guidance.,1,6,,
,,,,,,,,,,,,,,,90120,001,2022-04-25_12h02.21.825,SPAMnetsValid,2021.1.4,MacIntel,58.82352941,,,,,,,,,,,,,,,,,,,,,,,,,,,,,,,,,,,,,,,,,,,,,,,,,,,,,,,,,,,,,,,,,,,,,,,,,,,,,,3,0.634,0,6,6,6,1,I seldom notice the moods or feelings that different environments produce.,1,7,,
,,,,,,,,,,,,,,,90120,001,2022-04-25_12h02.21.825,SPAMnetsValid,2021.1.4,MacIntel,58.82352941,,,,,,,,,,,,,,,,,,,,,,,,,,,,,,,,,,,,,,,,,,,,,,,,,,,,,,,,,,,,,,,,,,,,,,,,,,,,,,3,0.594,0,7,7,7,1,I experience a wide range of emotions or feelings.,0,8,,
,,,,,,,,,,,,,,,90120,001,2022-04-25_12h02.21.825,SPAMnetsValid,2021.1.4,MacIntel,58.82352941,,,,,,,,,,,,,,,,,,,,,,,,,,,,,,,,,,,,,,,,,,,,,,,,,,,,,,,,,,,,,,,,,,,,,,,,,,,,,,3,0.51,0,8,8,8,1,"Sometimes when I am reading poetry or looking at a work of art, I feel a chill or wave of excitement.",0,9,,
,,,,,,,,,,,,,,,90120,001,2022-04-25_12h02.21.825,SPAMnetsValid,2021.1.4,MacIntel,58.82352941,,,,,,,,,,,,,,,,,,,,,,,,,,,,,,,,,,,,,,,,,,,,,,,,,,,,,,,,,,,,,,,,,,,,,,,,,,,,,,3,0.545,0,9,9,9,1,I have little interest in speculating on the nature of the universe or the human condition.,1,10,,
,,,,,,,,,,,,,,,90120,001,2022-04-25_12h02.21.825,SPAMnetsValid,2021.1.4,MacIntel,58.82352941,,,,,,,,,,,,,,,,,,,,,,,,,,,,,,,,,,,,,,,,,,,,,,,,,,,,,,,,,,,,,,,,,,,,,,,,,,,,,,3,0.57,0,10,10,10,1,I have a lot of intellectual curiosity.,0,11,,
,,,,,,,,,,,,,,,90120,001,2022-04-25_12h02.21.825,SPAMnetsValid,2021.1.4,MacIntel,58.82352941,,,,,,,,,,,,,,,,,,,,,,,,,,,,,,,,,,,,,,,,,,,,,,,,,,,,,,,,,,,,,,,,,,,,,,,,,,,,,,4,1.977,0,11,11,11,1,I often enjoy playing with theories or abstract ideas.,0,12,,
,,,,,,,,,,,,,,,90120,001,2022-04-25_12h02.21.825,SPAMnetsValid,2021.1.4,MacIntel,58.82352941,,,,,,,,,,,,,,,,,,,,,,,,,,,,,,,,,,,,,,,,,,,,,,,,,,,,,,,,,,,,,,,,,,,,,,,,,,,,,,,,,,,,,,,,return,20.891
