key_resp_3.keys,key_resp_3.rt,slider_2.response,slider_2.rt,rjt_rating,rjt_RT,trials_24.thisRepN,trials_24.thisTrialN,trials_24.thisN,trials_24.thisIndex,trials_24.ran,rjt_order,word1,word2,attention,participant,session,date,expName,psychopyVersion,OS,frameRate,trials_4.thisRepN,trials_4.thisTrialN,trials_4.thisN,trials_4.thisIndex,trials_4.ran,trials_5.thisRepN,trials_5.thisTrialN,trials_5.thisN,trials_5.thisIndex,trials_5.ran,repOne,repTwo,slider.response,slider.rt,trials_22.thisRepN,trials_22.thisTrialN,trials_22.thisN,trials_22.thisIndex,trials_22.ran,trials_99.thisRepN,trials_99.thisTrialN,trials_99.thisN,trials_99.thisIndex,trials_99.ran,slider_extend_2.response,slider_extend_2.rt,trials_6.thisRepN,trials_6.thisTrialN,trials_6.thisN,trials_6.thisIndex,trials_6.ran,vCue2,R1,R2,R3,R4,correct,sliderVocab.response,sliderVocab.rt,trials_7.thisRepN,trials_7.thisTrialN,trials_7.thisN,trials_7.thisIndex,trials_7.ran,VocabCue,VR1,VR2,VR3,VR4,VR5,VocabCorrect,AUT_resp,AUT_label,trials.thisRepN,trials.thisTrialN,trials.thisN,trials.thisIndex,trials.ran,trials_2.thisRepN,trials_2.thisTrialN,trials_2.thisN,trials_2.thisIndex,trials_2.ran,aut_prompt,VF_response,VF_tag,trials_16.thisRepN,trials_16.thisTrialN,trials_16.thisN,trials_16.thisIndex,trials_16.ran,trials_17.thisRepN,trials_17.thisTrialN,trials_17.thisN,trials_17.thisIndex,trials_17.ran,VFcond,open_slider.response,open_slider.rt,trials_3.thisRepN,trials_3.thisTrialN,trials_3.thisN,trials_3.thisIndex,trials_3.ran,OpenQ,Rev,OPEN_ORDER,key_resp_2.keys,key_resp_2.rt
return,10.8895,7,5.5714,7,5.5714,0,0,0,85,1,115,refrigerator,tomato,,90139,001,2022-04-21_16h39.46.351,SPAMnetsValid,2021.1.4,Win32,60.7681089,,,,,,,,,,,,,,,,,,,,,,,,,,,,,,,,,,,,,,,,,,,,,,,,,,,,,,,,,,,,,,,,,,,,,,,,,,,,,,,,,,,,,,,,,
,,5,8.2154,5,8.2154,0,1,1,89,1,140,cookie,refrigerator,,90139,001,2022-04-21_16h39.46.351,SPAMnetsValid,2021.1.4,Win32,60.7681089,,,,,,,,,,,,,,,,,,,,,,,,,,,,,,,,,,,,,,,,,,,,,,,,,,,,,,,,,,,,,,,,,,,,,,,,,,,,,,,,,,,,,,,,,
,,2,2.4531,2,2.4531,0,2,2,68,1,180,tree,yogurt,,90139,001,2022-04-21_16h39.46.351,SPAMnetsValid,2021.1.4,Win32,60.7681089,,,,,,,,,,,,,,,,,,,,,,,,,,,,,,,,,,,,,,,,,,,,,,,,,,,,,,,,,,,,,,,,,,,,,,,,,,,,,,,,,,,,,,,,,
,,3,3.4429,3,3.4429,0,3,3,62,1,189,onion,tree,,90139,001,2022-04-21_16h39.46.351,SPAMnetsValid,2021.1.4,Win32,60.7681089,,,,,,,,,,,,,,,,,,,,,,,,,,,,,,,,,,,,,,,,,,,,,,,,,,,,,,,,,,,,,,,,,,,,,,,,,,,,,,,,,,,,,,,,,
,,1,3.3881,1,3.3881,0,4,4,64,1,157,refrigerator,rose,,90139,001,2022-04-21_16h39.46.351,SPAMnetsValid,2021.1.4,Win32,60.7681089,,,,,,,,,,,,,,,,,,,,,,,,,,,,,,,,,,,,,,,,,,,,,,,,,,,,,,,,,,,,,,,,,,,,,,,,,,,,,,,,,,,,,,,,,
,,4,2.6081,4,2.6081,0,5,5,78,1,132,broom,tree,,90139,001,2022-04-21_16h39.46.351,SPAMnetsValid,2021.1.4,Win32,60.7681089,,,,,,,,,,,,,,,,,,,,,,,,,,,,,,,,,,,,,,,,,,,,,,,,,,,,,,,,,,,,,,,,,,,,,,,,,,,,,,,,,,,,,,,,,
,,8,2.7769,8,2.7769,0,6,6,1,1,173,kitchen,tomato,,90139,001,2022-04-21_16h39.46.351,SPAMnetsValid,2021.1.4,Win32,60.7681089,,,,,,,,,,,,,,,,,,,,,,,,,,,,,,,,,,,,,,,,,,,,,,,,,,,,,,,,,,,,,,,,,,,,,,,,,,,,,,,,,,,,,,,,,
,,9,1.8622,9,1.8622,0,7,7,47,1,167,carrot,garden,,90139,001,2022-04-21_16h39.46.351,SPAMnetsValid,2021.1.4,Win32,60.7681089,,,,,,,,,,,,,,,,,,,,,,,,,,,,,,,,,,,,,,,,,,,,,,,,,,,,,,,,,,,,,,,,,,,,,,,,,,,,,,,,,,,,,,,,,
,,6,2.8173,6,2.8173,0,8,8,42,1,184,oven,pretzel,,90139,001,2022-04-21_16h39.46.351,SPAMnetsValid,2021.1.4,Win32,60.7681089,,,,,,,,,,,,,,,,,,,,,,,,,,,,,,,,,,,,,,,,,,,,,,,,,,,,,,,,,,,,,,,,,,,,,,,,,,,,,,,,,,,,,,,,,
,,1,2.223,1,2.223,0,9,9,49,1,152,cactus,strawberry,,90139,001,2022-04-21_16h39.46.351,SPAMnetsValid,2021.1.4,Win32,60.7681089,,,,,,,,,,,,,,,,,,,,,,,,,,,,,,,,,,,,,,,,,,,,,,,,,,,,,,,,,,,,,,,,,,,,,,,,,,,,,,,,,,,,,,,,,
,,1,1.9524,1,1.9524,0,10,10,13,1,105,cactus,oven,,90139,001,2022-04-21_16h39.46.351,SPAMnetsValid,2021.1.4,Win32,60.7681089,,,,,,,,,,,,,,,,,,,,,,,,,,,,,,,,,,,,,,,,,,,,,,,,,,,,,,,,,,,,,,,,,,,,,,,,,,,,,,,,,,,,,,,,,
,,7,2.3422,7,2.3422,0,11,11,44,1,116,cake,chocolate,,90139,001,2022-04-21_16h39.46.351,SPAMnetsValid,2021.1.4,Win32,60.7681089,,,,,,,,,,,,,,,,,,,,,,,,,,,,,,,,,,,,,,,,,,,,,,,,,,,,,,,,,,,,,,,,,,,,,,,,,,,,,,,,,,,,,,,,,
,,3,2.4981,3,2.4981,0,12,12,9,1,176,cactus,tomato,,90139,001,2022-04-21_16h39.46.351,SPAMnetsValid,2021.1.4,Win32,60.7681089,,,,,,,,,,,,,,,,,,,,,,,,,,,,,,,,,,,,,,,,,,,,,,,,,,,,,,,,,,,,,,,,,,,,,,,,,,,,,,,,,,,,,,,,,
,,4,3.6009,4,3.6009,0,13,13,91,1,166,cake,yogurt,,90139,001,2022-04-21_16h39.46.351,SPAMnetsValid,2021.1.4,Win32,60.7681089,,,,,,,,,,,,,,,,,,,,,,,,,,,,,,,,,,,,,,,,,,,,,,,,,,,,,,,,,,,,,,,,,,,,,,,,,,,,,,,,,,,,,,,,,
,,1,1.9579,1,1.9579,0,14,14,4,1,109,broom,strawberry,,90139,001,2022-04-21_16h39.46.351,SPAMnetsValid,2021.1.4,Win32,60.7681089,,,,,,,,,,,,,,,,,,,,,,,,,,,,,,,,,,,,,,,,,,,,,,,,,,,,,,,,,,,,,,,,,,,,,,,,,,,,,,,,,,,,,,,,,
,,3,2.4512,3,2.4512,0,15,15,18,1,119,strawberry,tree,,90139,001,2022-04-21_16h39.46.351,SPAMnetsValid,2021.1.4,Win32,60.7681089,,,,,,,,,,,,,,,,,,,,,,,,,,,,,,,,,,,,,,,,,,,,,,,,,,,,,,,,,,,,,,,,,,,,,,,,,,,,,,,,,,,,,,,,,
,,2,2.3517,2,2.3517,0,16,16,38,1,155,carrot,cookie,,90139,001,2022-04-21_16h39.46.351,SPAMnetsValid,2021.1.4,Win32,60.7681089,,,,,,,,,,,,,,,,,,,,,,,,,,,,,,,,,,,,,,,,,,,,,,,,,,,,,,,,,,,,,,,,,,,,,,,,,,,,,,,,,,,,,,,,,
,,1,2.9882,1,2.9882,0,17,17,15,1,145,cactus,yogurt,,90139,001,2022-04-21_16h39.46.351,SPAMnetsValid,2021.1.4,Win32,60.7681089,,,,,,,,,,,,,,,,,,,,,,,,,,,,,,,,,,,,,,,,,,,,,,,,,,,,,,,,,,,,,,,,,,,,,,,,,,,,,,,,,,,,,,,,,
,,1,2.3152,1,2.3152,0,18,18,16,1,111,carrot,microwave,,90139,001,2022-04-21_16h39.46.351,SPAMnetsValid,2021.1.4,Win32,60.7681089,,,,,,,,,,,,,,,,,,,,,,,,,,,,,,,,,,,,,,,,,,,,,,,,,,,,,,,,,,,,,,,,,,,,,,,,,,,,,,,,,,,,,,,,,
,,2,2.3181,2,2.3181,0,19,19,55,1,143,pretzel,rose,,90139,001,2022-04-21_16h39.46.351,SPAMnetsValid,2021.1.4,Win32,60.7681089,,,,,,,,,,,,,,,,,,,,,,,,,,,,,,,,,,,,,,,,,,,,,,,,,,,,,,,,,,,,,,,,,,,,,,,,,,,,,,,,,,,,,,,,,
,,6,2.5772,6,2.5772,0,20,20,8,1,97,chocolate,kitchen,,90139,001,2022-04-21_16h39.46.351,SPAMnetsValid,2021.1.4,Win32,60.7681089,,,,,,,,,,,,,,,,,,,,,,,,,,,,,,,,,,,,,,,,,,,,,,,,,,,,,,,,,,,,,,,,,,,,,,,,,,,,,,,,,,,,,,,,,
,,4,2.6196,4,2.6196,0,21,21,11,1,117,melon,strawberry,,90139,001,2022-04-21_16h39.46.351,SPAMnetsValid,2021.1.4,Win32,60.7681089,,,,,,,,,,,,,,,,,,,,,,,,,,,,,,,,,,,,,,,,,,,,,,,,,,,,,,,,,,,,,,,,,,,,,,,,,,,,,,,,,,,,,,,,,
,,1,3.6464,1,3.6464,0,22,22,59,1,164,cookie,garden,,90139,001,2022-04-21_16h39.46.351,SPAMnetsValid,2021.1.4,Win32,60.7681089,,,,,,,,,,,,,,,,,,,,,,,,,,,,,,,,,,,,,,,,,,,,,,,,,,,,,,,,,,,,,,,,,,,,,,,,,,,,,,,,,,,,,,,,,
,,2,2.5589,2,2.5589,0,23,23,2,1,174,cake,pretzel,,90139,001,2022-04-21_16h39.46.351,SPAMnetsValid,2021.1.4,Win32,60.7681089,,,,,,,,,,,,,,,,,,,,,,,,,,,,,,,,,,,,,,,,,,,,,,,,,,,,,,,,,,,,,,,,,,,,,,,,,,,,,,,,,,,,,,,,,
,,7,1.9163,7,1.9163,0,24,24,52,1,110,chocolate,cookie,,90139,001,2022-04-21_16h39.46.351,SPAMnetsValid,2021.1.4,Win32,60.7681089,,,,,,,,,,,,,,,,,,,,,,,,,,,,,,,,,,,,,,,,,,,,,,,,,,,,,,,,,,,,,,,,,,,,,,,,,,,,,,,,,,,,,,,,,
,,3,1.9458,3,1.9458,0,25,25,32,1,182,flower,refrigerator,,90139,001,2022-04-21_16h39.46.351,SPAMnetsValid,2021.1.4,Win32,60.7681089,,,,,,,,,,,,,,,,,,,,,,,,,,,,,,,,,,,,,,,,,,,,,,,,,,,,,,,,,,,,,,,,,,,,,,,,,,,,,,,,,,,,,,,,,
,,4,3.0819,4,3.0819,0,26,26,34,1,153,carrot,pretzel,,90139,001,2022-04-21_16h39.46.351,SPAMnetsValid,2021.1.4,Win32,60.7681089,,,,,,,,,,,,,,,,,,,,,,,,,,,,,,,,,,,,,,,,,,,,,,,,,,,,,,,,,,,,,,,,,,,,,,,,,,,,,,,,,,,,,,,,,
,,7,2.1023,7,2.1023,0,27,27,35,1,147,cake,refrigerator,,90139,001,2022-04-21_16h39.46.351,SPAMnetsValid,2021.1.4,Win32,60.7681089,,,,,,,,,,,,,,,,,,,,,,,,,,,,,,,,,,,,,,,,,,,,,,,,,,,,,,,,,,,,,,,,,,,,,,,,,,,,,,,,,,,,,,,,,
,,9,1.8365,9,1.8365,0,28,28,66,1,150,microwave,refrigerator,,90139,001,2022-04-21_16h39.46.351,SPAMnetsValid,2021.1.4,Win32,60.7681089,,,,,,,,,,,,,,,,,,,,,,,,,,,,,,,,,,,,,,,,,,,,,,,,,,,,,,,,,,,,,,,,,,,,,,,,,,,,,,,,,,,,,,,,,
,,9,1.6354,9,1.6354,0,29,29,69,1,124,oven,refrigerator,,90139,001,2022-04-21_16h39.46.351,SPAMnetsValid,2021.1.4,Win32,60.7681089,,,,,,,,,,,,,,,,,,,,,,,,,,,,,,,,,,,,,,,,,,,,,,,,,,,,,,,,,,,,,,,,,,,,,,,,,,,,,,,,,,,,,,,,,
,,6,2.219,6,2.219,0,30,30,36,1,161,kitchen,pretzel,,90139,001,2022-04-21_16h39.46.351,SPAMnetsValid,2021.1.4,Win32,60.7681089,,,,,,,,,,,,,,,,,,,,,,,,,,,,,,,,,,,,,,,,,,,,,,,,,,,,,,,,,,,,,,,,,,,,,,,,,,,,,,,,,,,,,,,,,
,,9,3.3191,9,3.3191,0,31,31,61,1,138,flower,rose,,90139,001,2022-04-21_16h39.46.351,SPAMnetsValid,2021.1.4,Win32,60.7681089,,,,,,,,,,,,,,,,,,,,,,,,,,,,,,,,,,,,,,,,,,,,,,,,,,,,,,,,,,,,,,,,,,,,,,,,,,,,,,,,,,,,,,,,,
,,4,2.2186,4,2.2186,0,32,32,5,1,108,carrot,chocolate,,90139,001,2022-04-21_16h39.46.351,SPAMnetsValid,2021.1.4,Win32,60.7681089,,,,,,,,,,,,,,,,,,,,,,,,,,,,,,,,,,,,,,,,,,,,,,,,,,,,,,,,,,,,,,,,,,,,,,,,,,,,,,,,,,,,,,,,,
,,1,2.0216,1,2.0216,0,33,33,63,1,137,microwave,tree,,90139,001,2022-04-21_16h39.46.351,SPAMnetsValid,2021.1.4,Win32,60.7681089,,,,,,,,,,,,,,,,,,,,,,,,,,,,,,,,,,,,,,,,,,,,,,,,,,,,,,,,,,,,,,,,,,,,,,,,,,,,,,,,,,,,,,,,,
,,3,7.6163,3,7.6163,0,34,34,46,1,123,cookie,tree,,90139,001,2022-04-21_16h39.46.351,SPAMnetsValid,2021.1.4,Win32,60.7681089,,,,,,,,,,,,,,,,,,,,,,,,,,,,,,,,,,,,,,,,,,,,,,,,,,,,,,,,,,,,,,,,,,,,,,,,,,,,,,,,,,,,,,,,,
,,8,1.8686,8,1.8686,0,35,35,60,1,122,flower,garden,,90139,001,2022-04-21_16h39.46.351,SPAMnetsValid,2021.1.4,Win32,60.7681089,,,,,,,,,,,,,,,,,,,,,,,,,,,,,,,,,,,,,,,,,,,,,,,,,,,,,,,,,,,,,,,,,,,,,,,,,,,,,,,,,,,,,,,,,
,,2,2.1487,2,2.1487,0,36,36,71,1,187,cactus,microwave,,90139,001,2022-04-21_16h39.46.351,SPAMnetsValid,2021.1.4,Win32,60.7681089,,,,,,,,,,,,,,,,,,,,,,,,,,,,,,,,,,,,,,,,,,,,,,,,,,,,,,,,,,,,,,,,,,,,,,,,,,,,,,,,,,,,,,,,,
,,7,9.4981,7,9.4981,0,37,37,27,1,158,cookie,oven,,90139,001,2022-04-21_16h39.46.351,SPAMnetsValid,2021.1.4,Win32,60.7681089,,,,,,,,,,,,,,,,,,,,,,,,,,,,,,,,,,,,,,,,,,,,,,,,,,,,,,,,,,,,,,,,,,,,,,,,,,,,,,,,,,,,,,,,,
,,2,2.0658,2,2.0658,0,38,38,21,1,159,cookie,flower,,90139,001,2022-04-21_16h39.46.351,SPAMnetsValid,2021.1.4,Win32,60.7681089,,,,,,,,,,,,,,,,,,,,,,,,,,,,,,,,,,,,,,,,,,,,,,,,,,,,,,,,,,,,,,,,,,,,,,,,,,,,,,,,,,,,,,,,,
,,1,1.9276,1,1.9276,0,39,39,19,1,183,cake,rose,,90139,001,2022-04-21_16h39.46.351,SPAMnetsValid,2021.1.4,Win32,60.7681089,,,,,,,,,,,,,,,,,,,,,,,,,,,,,,,,,,,,,,,,,,,,,,,,,,,,,,,,,,,,,,,,,,,,,,,,,,,,,,,,,,,,,,,,,
,,4,2.6567,4,2.6567,0,40,40,73,1,135,carrot,oven,,90139,001,2022-04-21_16h39.46.351,SPAMnetsValid,2021.1.4,Win32,60.7681089,,,,,,,,,,,,,,,,,,,,,,,,,,,,,,,,,,,,,,,,,,,,,,,,,,,,,,,,,,,,,,,,,,,,,,,,,,,,,,,,,,,,,,,,,
,,8,3.6335,8,3.6335,0,41,41,7,1,188,flower,tree,,90139,001,2022-04-21_16h39.46.351,SPAMnetsValid,2021.1.4,Win32,60.7681089,,,,,,,,,,,,,,,,,,,,,,,,,,,,,,,,,,,,,,,,,,,,,,,,,,,,,,,,,,,,,,,,,,,,,,,,,,,,,,,,,,,,,,,,,
,,2,2.3315,2,2.3315,0,42,42,94,1,133,cake,flower,,90139,001,2022-04-21_16h39.46.351,SPAMnetsValid,2021.1.4,Win32,60.7681089,,,,,,,,,,,,,,,,,,,,,,,,,,,,,,,,,,,,,,,,,,,,,,,,,,,,,,,,,,,,,,,,,,,,,,,,,,,,,,,,,,,,,,,,,
,,6,2.1853,6,2.1853,0,43,43,26,1,107,rose,tomato,,90139,001,2022-04-21_16h39.46.351,SPAMnetsValid,2021.1.4,Win32,60.7681089,,,,,,,,,,,,,,,,,,,,,,,,,,,,,,,,,,,,,,,,,,,,,,,,,,,,,,,,,,,,,,,,,,,,,,,,,,,,,,,,,,,,,,,,,
,,4,1.8705,4,1.8705,0,44,44,82,1,98,pretzel,strawberry,,90139,001,2022-04-21_16h39.46.351,SPAMnetsValid,2021.1.4,Win32,60.7681089,,,,,,,,,,,,,,,,,,,,,,,,,,,,,,,,,,,,,,,,,,,,,,,,,,,,,,,,,,,,,,,,,,,,,,,,,,,,,,,,,,,,,,,,,
,,3,11.94,3,11.94,0,45,45,12,1,162,microwave,tomato,,90139,001,2022-04-21_16h39.46.351,SPAMnetsValid,2021.1.4,Win32,60.7681089,,,,,,,,,,,,,,,,,,,,,,,,,,,,,,,,,,,,,,,,,,,,,,,,,,,,,,,,,,,,,,,,,,,,,,,,,,,,,,,,,,,,,,,,,
,,6,1.6354,6,1.6354,0,46,46,29,1,163,melon,refrigerator,,90139,001,2022-04-21_16h39.46.351,SPAMnetsValid,2021.1.4,Win32,60.7681089,,,,,,,,,,,,,,,,,,,,,,,,,,,,,,,,,,,,,,,,,,,,,,,,,,,,,,,,,,,,,,,,,,,,,,,,,,,,,,,,,,,,,,,,,
,,7,2.173,7,2.173,0,47,47,28,1,154,strawberry,yogurt,,90139,001,2022-04-21_16h39.46.351,SPAMnetsValid,2021.1.4,Win32,60.7681089,,,,,,,,,,,,,,,,,,,,,,,,,,,,,,,,,,,,,,,,,,,,,,,,,,,,,,,,,,,,,,,,,,,,,,,,,,,,,,,,,,,,,,,,,
,,7,1.9816,7,1.9816,0,48,48,93,1,134,carrot,flower,,90139,001,2022-04-21_16h39.46.351,SPAMnetsValid,2021.1.4,Win32,60.7681089,,,,,,,,,,,,,,,,,,,,,,,,,,,,,,,,,,,,,,,,,,,,,,,,,,,,,,,,,,,,,,,,,,,,,,,,,,,,,,,,,,,,,,,,,
,,6,2.0663,6,2.0663,0,49,49,10,1,118,chocolate,oven,,90139,001,2022-04-21_16h39.46.351,SPAMnetsValid,2021.1.4,Win32,60.7681089,,,,,,,,,,,,,,,,,,,,,,,,,,,,,,,,,,,,,,,,,,,,,,,,,,,,,,,,,,,,,,,,,,,,,,,,,,,,,,,,,,,,,,,,,
,,1,1.741,1,1.741,0,50,50,45,1,179,broom,oven,,90139,001,2022-04-21_16h39.46.351,SPAMnetsValid,2021.1.4,Win32,60.7681089,,,,,,,,,,,,,,,,,,,,,,,,,,,,,,,,,,,,,,,,,,,,,,,,,,,,,,,,,,,,,,,,,,,,,,,,,,,,,,,,,,,,,,,,,
,,5,6.9439,5,6.9439,0,51,51,37,1,139,carrot,strawberry,,90139,001,2022-04-21_16h39.46.351,SPAMnetsValid,2021.1.4,Win32,60.7681089,,,,,,,,,,,,,,,,,,,,,,,,,,,,,,,,,,,,,,,,,,,,,,,,,,,,,,,,,,,,,,,,,,,,,,,,,,,,,,,,,,,,,,,,,
,,4,3.4167,4,3.4167,0,52,52,53,1,177,chocolate,strawberry,,90139,001,2022-04-21_16h39.46.351,SPAMnetsValid,2021.1.4,Win32,60.7681089,,,,,,,,,,,,,,,,,,,,,,,,,,,,,,,,,,,,,,,,,,,,,,,,,,,,,,,,,,,,,,,,,,,,,,,,,,,,,,,,,,,,,,,,,
,,4,1.9584,4,1.9584,0,53,53,87,1,114,cookie,strawberry,,90139,001,2022-04-21_16h39.46.351,SPAMnetsValid,2021.1.4,Win32,60.7681089,,,,,,,,,,,,,,,,,,,,,,,,,,,,,,,,,,,,,,,,,,,,,,,,,,,,,,,,,,,,,,,,,,,,,,,,,,,,,,,,,,,,,,,,,
,,5,3.8056,5,3.8056,0,54,54,31,1,156,melon,rose,,90139,001,2022-04-21_16h39.46.351,SPAMnetsValid,2021.1.4,Win32,60.7681089,,,,,,,,,,,,,,,,,,,,,,,,,,,,,,,,,,,,,,,,,,,,,,,,,,,,,,,,,,,,,,,,,,,,,,,,,,,,,,,,,,,,,,,,,
,,2,1.7726,2,1.7726,0,55,55,79,1,103,pretzel,tomato,,90139,001,2022-04-21_16h39.46.351,SPAMnetsValid,2021.1.4,Win32,60.7681089,,,,,,,,,,,,,,,,,,,,,,,,,,,,,,,,,,,,,,,,,,,,,,,,,,,,,,,,,,,,,,,,,,,,,,,,,,,,,,,,,,,,,,,,,
,,7,1.8514,7,1.8514,0,56,56,17,1,99,garden,melon,,90139,001,2022-04-21_16h39.46.351,SPAMnetsValid,2021.1.4,Win32,60.7681089,,,,,,,,,,,,,,,,,,,,,,,,,,,,,,,,,,,,,,,,,,,,,,,,,,,,,,,,,,,,,,,,,,,,,,,,,,,,,,,,,,,,,,,,,
,,5,3.3531,5,3.3531,0,57,57,77,1,172,kitchen,melon,,90139,001,2022-04-21_16h39.46.351,SPAMnetsValid,2021.1.4,Win32,60.7681089,,,,,,,,,,,,,,,,,,,,,,,,,,,,,,,,,,,,,,,,,,,,,,,,,,,,,,,,,,,,,,,,,,,,,,,,,,,,,,,,,,,,,,,,,
,,6,3.6279,6,3.6279,0,58,58,65,1,160,cookie,kitchen,,90139,001,2022-04-21_16h39.46.351,SPAMnetsValid,2021.1.4,Win32,60.7681089,,,,,,,,,,,,,,,,,,,,,,,,,,,,,,,,,,,,,,,,,,,,,,,,,,,,,,,,,,,,,,,,,,,,,,,,,,,,,,,,,,,,,,,,,
,,4,2.1187,4,2.1187,0,59,59,72,1,181,carrot,kitchen,,90139,001,2022-04-21_16h39.46.351,SPAMnetsValid,2021.1.4,Win32,60.7681089,,,,,,,,,,,,,,,,,,,,,,,,,,,,,,,,,,,,,,,,,,,,,,,,,,,,,,,,,,,,,,,,,,,,,,,,,,,,,,,,,,,,,,,,,
,,8,1.7956,8,1.7956,0,60,60,83,1,100,garden,tomato,,90139,001,2022-04-21_16h39.46.351,SPAMnetsValid,2021.1.4,Win32,60.7681089,,,,,,,,,,,,,,,,,,,,,,,,,,,,,,,,,,,,,,,,,,,,,,,,,,,,,,,,,,,,,,,,,,,,,,,,,,,,,,,,,,,,,,,,,
,,6,2.7448,6,2.7448,0,61,61,92,1,170,cookie,microwave,,90139,001,2022-04-21_16h39.46.351,SPAMnetsValid,2021.1.4,Win32,60.7681089,,,,,,,,,,,,,,,,,,,,,,,,,,,,,,,,,,,,,,,,,,,,,,,,,,,,,,,,,,,,,,,,,,,,,,,,,,,,,,,,,,,,,,,,,
,,1,1.8187,1,1.8187,0,62,62,3,1,129,cactus,refrigerator,,90139,001,2022-04-21_16h39.46.351,SPAMnetsValid,2021.1.4,Win32,60.7681089,,,,,,,,,,,,,,,,,,,,,,,,,,,,,,,,,,,,,,,,,,,,,,,,,,,,,,,,,,,,,,,,,,,,,,,,,,,,,,,,,,,,,,,,,
,,1,2.1079,1,2.1079,0,63,63,6,1,151,microwave,onion,,90139,001,2022-04-21_16h39.46.351,SPAMnetsValid,2021.1.4,Win32,60.7681089,,,,,,,,,,,,,,,,,,,,,,,,,,,,,,,,,,,,,,,,,,,,,,,,,,,,,,,,,,,,,,,,,,,,,,,,,,,,,,,,,,,,,,,,,
,,1,2.6858,1,2.6858,0,64,64,54,1,101,cactus,kitchen,,90139,001,2022-04-21_16h39.46.351,SPAMnetsValid,2021.1.4,Win32,60.7681089,,,,,,,,,,,,,,,,,,,,,,,,,,,,,,,,,,,,,,,,,,,,,,,,,,,,,,,,,,,,,,,,,,,,,,,,,,,,,,,,,,,,,,,,,
,,7,2.424,7,2.424,0,65,65,43,1,185,cactus,rose,,90139,001,2022-04-21_16h39.46.351,SPAMnetsValid,2021.1.4,Win32,60.7681089,,,,,,,,,,,,,,,,,,,,,,,,,,,,,,,,,,,,,,,,,,,,,,,,,,,,,,,,,,,,,,,,,,,,,,,,,,,,,,,,,,,,,,,,,
,,1,2.3851,1,2.3851,0,66,66,57,1,127,cactus,chocolate,,90139,001,2022-04-21_16h39.46.351,SPAMnetsValid,2021.1.4,Win32,60.7681089,,,,,,,,,,,,,,,,,,,,,,,,,,,,,,,,,,,,,,,,,,,,,,,,,,,,,,,,,,,,,,,,,,,,,,,,,,,,,,,,,,,,,,,,,
,,7,2.2783,7,2.2783,0,67,67,51,1,168,cactus,flower,,90139,001,2022-04-21_16h39.46.351,SPAMnetsValid,2021.1.4,Win32,60.7681089,,,,,,,,,,,,,,,,,,,,,,,,,,,,,,,,,,,,,,,,,,,,,,,,,,,,,,,,,,,,,,,,,,,,,,,,,,,,,,,,,,,,,,,,,
,,3,2.0035,3,2.0035,0,68,68,90,1,190,microwave,strawberry,,90139,001,2022-04-21_16h39.46.351,SPAMnetsValid,2021.1.4,Win32,60.7681089,,,,,,,,,,,,,,,,,,,,,,,,,,,,,,,,,,,,,,,,,,,,,,,,,,,,,,,,,,,,,,,,,,,,,,,,,,,,,,,,,,,,,,,,,
,,3,1.9198,3,1.9198,0,69,69,88,1,171,cake,tomato,,90139,001,2022-04-21_16h39.46.351,SPAMnetsValid,2021.1.4,Win32,60.7681089,,,,,,,,,,,,,,,,,,,,,,,,,,,,,,,,,,,,,,,,,,,,,,,,,,,,,,,,,,,,,,,,,,,,,,,,,,,,,,,,,,,,,,,,,
,,4,1.9194,4,1.9194,0,70,70,23,1,148,flower,melon,,90139,001,2022-04-21_16h39.46.351,SPAMnetsValid,2021.1.4,Win32,60.7681089,,,,,,,,,,,,,,,,,,,,,,,,,,,,,,,,,,,,,,,,,,,,,,,,,,,,,,,,,,,,,,,,,,,,,,,,,,,,,,,,,,,,,,,,,
,,1,1.9186,1,1.9186,0,71,71,95,1,121,broom,microwave,,90139,001,2022-04-21_16h39.46.351,SPAMnetsValid,2021.1.4,Win32,60.7681089,,,,,,,,,,,,,,,,,,,,,,,,,,,,,,,,,,,,,,,,,,,,,,,,,,,,,,,,,,,,,,,,,,,,,,,,,,,,,,,,,,,,,,,,,
,,4,2.5213,4,2.5213,0,72,72,0,1,106,cake,strawberry,,90139,001,2022-04-21_16h39.46.351,SPAMnetsValid,2021.1.4,Win32,60.7681089,,,,,,,,,,,,,,,,,,,,,,,,,,,,,,,,,,,,,,,,,,,,,,,,,,,,,,,,,,,,,,,,,,,,,,,,,,,,,,,,,,,,,,,,,
,,5,2.2352,5,2.2352,0,73,73,96,1,136,chocolate,microwave,,90139,001,2022-04-21_16h39.46.351,SPAMnetsValid,2021.1.4,Win32,60.7681089,,,,,,,,,,,,,,,,,,,,,,,,,,,,,,,,,,,,,,,,,,,,,,,,,,,,,,,,,,,,,,,,,,,,,,,,,,,,,,,,,,,,,,,,,
,,1,1.8052,1,1.8052,0,74,74,20,1,149,broom,tomato,,90139,001,2022-04-21_16h39.46.351,SPAMnetsValid,2021.1.4,Win32,60.7681089,,,,,,,,,,,,,,,,,,,,,,,,,,,,,,,,,,,,,,,,,,,,,,,,,,,,,,,,,,,,,,,,,,,,,,,,,,,,,,,,,,,,,,,,,
,,9,2.085,9,2.085,0,75,75,86,1,193,melon,melon,CHECK,90139,001,2022-04-21_16h39.46.351,SPAMnetsValid,2021.1.4,Win32,60.7681089,,,,,,,,,,,,,,,,,,,,,,,,,,,,,,,,,,,,,,,,,,,,,,,,,,,,,,,,,,,,,,,,,,,,,,,,,,,,,,,,,,,,,,,,,
,,7,2.0563,7,2.0563,0,76,76,30,1,125,carrot,tree,,90139,001,2022-04-21_16h39.46.351,SPAMnetsValid,2021.1.4,Win32,60.7681089,,,,,,,,,,,,,,,,,,,,,,,,,,,,,,,,,,,,,,,,,,,,,,,,,,,,,,,,,,,,,,,,,,,,,,,,,,,,,,,,,,,,,,,,,
,,4,1.6187,4,1.6187,0,77,77,74,1,128,melon,microwave,,90139,001,2022-04-21_16h39.46.351,SPAMnetsValid,2021.1.4,Win32,60.7681089,,,,,,,,,,,,,,,,,,,,,,,,,,,,,,,,,,,,,,,,,,,,,,,,,,,,,,,,,,,,,,,,,,,,,,,,,,,,,,,,,,,,,,,,,
,,8,2.1051,8,2.1051,0,78,78,22,1,142,garden,tree,,90139,001,2022-04-21_16h39.46.351,SPAMnetsValid,2021.1.4,Win32,60.7681089,,,,,,,,,,,,,,,,,,,,,,,,,,,,,,,,,,,,,,,,,,,,,,,,,,,,,,,,,,,,,,,,,,,,,,,,,,,,,,,,,,,,,,,,,
,,2,2.1029,2,2.1029,0,79,79,84,1,130,microwave,yogurt,,90139,001,2022-04-21_16h39.46.351,SPAMnetsValid,2021.1.4,Win32,60.7681089,,,,,,,,,,,,,,,,,,,,,,,,,,,,,,,,,,,,,,,,,,,,,,,,,,,,,,,,,,,,,,,,,,,,,,,,,,,,,,,,,,,,,,,,,
,,8,1.9981,8,1.9981,0,80,80,33,1,131,cactus,garden,,90139,001,2022-04-21_16h39.46.351,SPAMnetsValid,2021.1.4,Win32,60.7681089,,,,,,,,,,,,,,,,,,,,,,,,,,,,,,,,,,,,,,,,,,,,,,,,,,,,,,,,,,,,,,,,,,,,,,,,,,,,,,,,,,,,,,,,,
,,7,1.8564,7,1.8564,0,81,81,56,1,113,refrigerator,strawberry,,90139,001,2022-04-21_16h39.46.351,SPAMnetsValid,2021.1.4,Win32,60.7681089,,,,,,,,,,,,,,,,,,,,,,,,,,,,,,,,,,,,,,,,,,,,,,,,,,,,,,,,,,,,,,,,,,,,,,,,,,,,,,,,,,,,,,,,,
,,8,1.7923,8,1.7923,0,82,82,41,1,175,melon,onion,,90139,001,2022-04-21_16h39.46.351,SPAMnetsValid,2021.1.4,Win32,60.7681089,,,,,,,,,,,,,,,,,,,,,,,,,,,,,,,,,,,,,,,,,,,,,,,,,,,,,,,,,,,,,,,,,,,,,,,,,,,,,,,,,,,,,,,,,
,,2,1.7695,2,1.7695,0,83,83,80,1,146,pretzel,tree,,90139,001,2022-04-21_16h39.46.351,SPAMnetsValid,2021.1.4,Win32,60.7681089,,,,,,,,,,,,,,,,,,,,,,,,,,,,,,,,,,,,,,,,,,,,,,,,,,,,,,,,,,,,,,,,,,,,,,,,,,,,,,,,,,,,,,,,,
,,1,2.0156,1,2.0156,0,84,84,58,1,144,cake,garden,,90139,001,2022-04-21_16h39.46.351,SPAMnetsValid,2021.1.4,Win32,60.7681089,,,,,,,,,,,,,,,,,,,,,,,,,,,,,,,,,,,,,,,,,,,,,,,,,,,,,,,,,,,,,,,,,,,,,,,,,,,,,,,,,,,,,,,,,
,,7,1.9258,7,1.9258,0,85,85,75,1,178,cactus,carrot,,90139,001,2022-04-21_16h39.46.351,SPAMnetsValid,2021.1.4,Win32,60.7681089,,,,,,,,,,,,,,,,,,,,,,,,,,,,,,,,,,,,,,,,,,,,,,,,,,,,,,,,,,,,,,,,,,,,,,,,,,,,,,,,,,,,,,,,,
,,2,3.6218,2,3.6218,0,86,86,50,1,126,kitchen,tree,,90139,001,2022-04-21_16h39.46.351,SPAMnetsValid,2021.1.4,Win32,60.7681089,,,,,,,,,,,,,,,,,,,,,,,,,,,,,,,,,,,,,,,,,,,,,,,,,,,,,,,,,,,,,,,,,,,,,,,,,,,,,,,,,,,,,,,,,
,,1,1.5921,1,1.5921,0,87,87,81,1,104,garden,microwave,,90139,001,2022-04-21_16h39.46.351,SPAMnetsValid,2021.1.4,Win32,60.7681089,,,,,,,,,,,,,,,,,,,,,,,,,,,,,,,,,,,,,,,,,,,,,,,,,,,,,,,,,,,,,,,,,,,,,,,,,,,,,,,,,,,,,,,,,
,,5,2.5652,5,2.5652,0,88,88,48,1,186,kitchen,yogurt,,90139,001,2022-04-21_16h39.46.351,SPAMnetsValid,2021.1.4,Win32,60.7681089,,,,,,,,,,,,,,,,,,,,,,,,,,,,,,,,,,,,,,,,,,,,,,,,,,,,,,,,,,,,,,,,,,,,,,,,,,,,,,,,,,,,,,,,,
,,8,2.3356,8,2.3356,0,89,89,39,1,112,cake,carrot,,90139,001,2022-04-21_16h39.46.351,SPAMnetsValid,2021.1.4,Win32,60.7681089,,,,,,,,,,,,,,,,,,,,,,,,,,,,,,,,,,,,,,,,,,,,,,,,,,,,,,,,,,,,,,,,,,,,,,,,,,,,,,,,,,,,,,,,,
,,1,1.7493,1,1.7493,0,90,90,67,1,96,oven,strawberry,,90139,001,2022-04-21_16h39.46.351,SPAMnetsValid,2021.1.4,Win32,60.7681089,,,,,,,,,,,,,,,,,,,,,,,,,,,,,,,,,,,,,,,,,,,,,,,,,,,,,,,,,,,,,,,,,,,,,,,,,,,,,,,,,,,,,,,,,
,,9,1.8192,9,1.8192,0,91,91,25,1,194,cactus,cactus,CHECK,90139,001,2022-04-21_16h39.46.351,SPAMnetsValid,2021.1.4,Win32,60.7681089,,,,,,,,,,,,,,,,,,,,,,,,,,,,,,,,,,,,,,,,,,,,,,,,,,,,,,,,,,,,,,,,,,,,,,,,,,,,,,,,,,,,,,,,,
,,7,2.0279,7,2.0279,0,92,92,70,1,141,melon,tomato,,90139,001,2022-04-21_16h39.46.351,SPAMnetsValid,2021.1.4,Win32,60.7681089,,,,,,,,,,,,,,,,,,,,,,,,,,,,,,,,,,,,,,,,,,,,,,,,,,,,,,,,,,,,,,,,,,,,,,,,,,,,,,,,,,,,,,,,,
,,6,2.0873,6,2.0873,0,93,93,76,1,102,chocolate,refrigerator,,90139,001,2022-04-21_16h39.46.351,SPAMnetsValid,2021.1.4,Win32,60.7681089,,,,,,,,,,,,,,,,,,,,,,,,,,,,,,,,,,,,,,,,,,,,,,,,,,,,,,,,,,,,,,,,,,,,,,,,,,,,,,,,,,,,,,,,,
,,5,1.8583,5,1.8583,0,94,94,24,1,169,onion,yogurt,,90139,001,2022-04-21_16h39.46.351,SPAMnetsValid,2021.1.4,Win32,60.7681089,,,,,,,,,,,,,,,,,,,,,,,,,,,,,,,,,,,,,,,,,,,,,,,,,,,,,,,,,,,,,,,,,,,,,,,,,,,,,,,,,,,,,,,,,
,,7,2.2715,7,2.2715,0,95,95,40,1,165,onion,rose,,90139,001,2022-04-21_16h39.46.351,SPAMnetsValid,2021.1.4,Win32,60.7681089,,,,,,,,,,,,,,,,,,,,,,,,,,,,,,,,,,,,,,,,,,,,,,,,,,,,,,,,,,,,,,,,,,,,,,,,,,,,,,,,,,,,,,,,,
,,9,2.9112,9,2.9112,0,96,96,14,1,120,microwave,oven,,90139,001,2022-04-21_16h39.46.351,SPAMnetsValid,2021.1.4,Win32,60.7681089,,,,,,,,,,,,,,,,,,,,,,,,,,,,,,,,,,,,,,,,,,,,,,,,,,,,,,,,,,,,,,,,,,,,,,,,,,,,,,,,,,,,,,,,,
,,,,,,,,,,,,,,,90139,001,2022-04-21_16h39.46.351,SPAMnetsValid,2021.1.4,Win32,60.7681089,0,0,0,0,1,,,,,,,,,,,,,,,,,,,,,,,,,,,,,,,,,,,,,,,,,,,,,,,,,,,,,,,,,,,,,,,,,,,,,,,,,,,,,,,,,,,,
,,,,,,,,,,,,,,,90139,001,2022-04-21_16h39.46.351,SPAMnetsValid,2021.1.4,Win32,60.7681089,,,,,,0,0,0,1,1,0,1,,,,,,,,,,,,,,,,,,,,,,,,,,,,,,,,,,,,,,,,,,,,,,,,,,,,,,,,,,,,,,,,,,,,,,,,,,,,,
,,,,5,6.9412,,,,,,30,cookie,pretzel,,90139,001,2022-04-21_16h39.46.351,SPAMnetsValid,2021.1.4,Win32,60.7681089,,,,,,,,,,,,,5,6.9412,0,0,0,78,1,,,,,,,,,,,,,,,,,,,,,,,,,,,,,,,,,,,,,,,,,,,,,,,,,,,,,,,,,,,,,,,,,,,,,,
,,,,2,3.7,,,,,,48,flower,oven,,90139,001,2022-04-21_16h39.46.351,SPAMnetsValid,2021.1.4,Win32,60.7681089,,,,,,,,,,,,,2,3.7,0,1,1,15,1,,,,,,,,,,,,,,,,,,,,,,,,,,,,,,,,,,,,,,,,,,,,,,,,,,,,,,,,,,,,,,,,,,,,,,
,,,,4,1.8494,,,,,,43,chocolate,tomato,,90139,001,2022-04-21_16h39.46.351,SPAMnetsValid,2021.1.4,Win32,60.7681089,,,,,,,,,,,,,4,1.8494,0,2,2,8,1,,,,,,,,,,,,,,,,,,,,,,,,,,,,,,,,,,,,,,,,,,,,,,,,,,,,,,,,,,,,,,,,,,,,,,
,,,,2,1.4218,,,,,,81,pretzel,yogurt,,90139,001,2022-04-21_16h39.46.351,SPAMnetsValid,2021.1.4,Win32,60.7681089,,,,,,,,,,,,,2,1.4218,0,3,3,50,1,,,,,,,,,,,,,,,,,,,,,,,,,,,,,,,,,,,,,,,,,,,,,,,,,,,,,,,,,,,,,,,,,,,,,,
,,,,7,2.2481,,,,,,47,onion,tomato,,90139,001,2022-04-21_16h39.46.351,SPAMnetsValid,2021.1.4,Win32,60.7681089,,,,,,,,,,,,,7,2.2481,0,4,4,51,1,,,,,,,,,,,,,,,,,,,,,,,,,,,,,,,,,,,,,,,,,,,,,,,,,,,,,,,,,,,,,,,,,,,,,,
,,,,3,1.8339,,,,,,78,cookie,rose,,90139,001,2022-04-21_16h39.46.351,SPAMnetsValid,2021.1.4,Win32,60.7681089,,,,,,,,,,,,,3,1.8339,0,5,5,56,1,,,,,,,,,,,,,,,,,,,,,,,,,,,,,,,,,,,,,,,,,,,,,,,,,,,,,,,,,,,,,,,,,,,,,,
,,,,1,2.8871,,,,,,54,chocolate,yogurt,,90139,001,2022-04-21_16h39.46.351,SPAMnetsValid,2021.1.4,Win32,60.7681089,,,,,,,,,,,,,1,2.8871,0,6,6,67,1,,,,,,,,,,,,,,,,,,,,,,,,,,,,,,,,,,,,,,,,,,,,,,,,,,,,,,,,,,,,,,,,,,,,,,
,,,,8,2.4524,,,,,,52,carrot,tomato,,90139,001,2022-04-21_16h39.46.351,SPAMnetsValid,2021.1.4,Win32,60.7681089,,,,,,,,,,,,,8,2.4524,0,7,7,95,1,,,,,,,,,,,,,,,,,,,,,,,,,,,,,,,,,,,,,,,,,,,,,,,,,,,,,,,,,,,,,,,,,,,,,,
,,,,7,2.0386,,,,,,77,refrigerator,yogurt,,90139,001,2022-04-21_16h39.46.351,SPAMnetsValid,2021.1.4,Win32,60.7681089,,,,,,,,,,,,,7,2.0386,0,8,8,42,1,,,,,,,,,,,,,,,,,,,,,,,,,,,,,,,,,,,,,,,,,,,,,,,,,,,,,,,,,,,,,,,,,,,,,,
,,,,2,2.3668,,,,,,12,cookie,yogurt,,90139,001,2022-04-21_16h39.46.351,SPAMnetsValid,2021.1.4,Win32,60.7681089,,,,,,,,,,,,,2,2.3668,0,9,9,36,1,,,,,,,,,,,,,,,,,,,,,,,,,,,,,,,,,,,,,,,,,,,,,,,,,,,,,,,,,,,,,,,,,,,,,,
,,,,2,3.453,,,,,,57,flower,kitchen,,90139,001,2022-04-21_16h39.46.351,SPAMnetsValid,2021.1.4,Win32,60.7681089,,,,,,,,,,,,,2,3.453,0,10,10,49,1,,,,,,,,,,,,,,,,,,,,,,,,,,,,,,,,,,,,,,,,,,,,,,,,,,,,,,,,,,,,,,,,,,,,,,
,,,,3,2.1579,,,,,,37,garden,refrigerator,,90139,001,2022-04-21_16h39.46.351,SPAMnetsValid,2021.1.4,Win32,60.7681089,,,,,,,,,,,,,3,2.1579,0,11,11,11,1,,,,,,,,,,,,,,,,,,,,,,,,,,,,,,,,,,,,,,,,,,,,,,,,,,,,,,,,,,,,,,,,,,,,,,
,,,,7,1.5205,,,,,,88,cactus,melon,,90139,001,2022-04-21_16h39.46.351,SPAMnetsValid,2021.1.4,Win32,60.7681089,,,,,,,,,,,,,7,1.5205,0,12,12,38,1,,,,,,,,,,,,,,,,,,,,,,,,,,,,,,,,,,,,,,,,,,,,,,,,,,,,,,,,,,,,,,,,,,,,,,
,,,,1,1.5364,,,,,,40,broom,cake,,90139,001,2022-04-21_16h39.46.351,SPAMnetsValid,2021.1.4,Win32,60.7681089,,,,,,,,,,,,,1,1.5364,0,13,13,32,1,,,,,,,,,,,,,,,,,,,,,,,,,,,,,,,,,,,,,,,,,,,,,,,,,,,,,,,,,,,,,,,,,,,,,,
,,,,2,1.7159,,,,,,92,broom,flower,,90139,001,2022-04-21_16h39.46.351,SPAMnetsValid,2021.1.4,Win32,60.7681089,,,,,,,,,,,,,2,1.7159,0,14,14,88,1,,,,,,,,,,,,,,,,,,,,,,,,,,,,,,,,,,,,,,,,,,,,,,,,,,,,,,,,,,,,,,,,,,,,,,
,,,,2,1.9537,,,,,,67,flower,yogurt,,90139,001,2022-04-21_16h39.46.351,SPAMnetsValid,2021.1.4,Win32,60.7681089,,,,,,,,,,,,,2,1.9537,0,15,15,12,1,,,,,,,,,,,,,,,,,,,,,,,,,,,,,,,,,,,,,,,,,,,,,,,,,,,,,,,,,,,,,,,,,,,,,,
,,,,2,2.7313,,,,,,35,flower,pretzel,,90139,001,2022-04-21_16h39.46.351,SPAMnetsValid,2021.1.4,Win32,60.7681089,,,,,,,,,,,,,2,2.7313,0,16,16,26,1,,,,,,,,,,,,,,,,,,,,,,,,,,,,,,,,,,,,,,,,,,,,,,,,,,,,,,,,,,,,,,,,,,,,,,
,,,,2,2.3024,,,,,,70,chocolate,onion,,90139,001,2022-04-21_16h39.46.351,SPAMnetsValid,2021.1.4,Win32,60.7681089,,,,,,,,,,,,,2,2.3024,0,17,17,74,1,,,,,,,,,,,,,,,,,,,,,,,,,,,,,,,,,,,,,,,,,,,,,,,,,,,,,,,,,,,,,,,,,,,,,,
,,,,5,2.0846,,,,,,32,cake,microwave,,90139,001,2022-04-21_16h39.46.351,SPAMnetsValid,2021.1.4,Win32,60.7681089,,,,,,,,,,,,,5,2.0846,0,18,18,33,1,,,,,,,,,,,,,,,,,,,,,,,,,,,,,,,,,,,,,,,,,,,,,,,,,,,,,,,,,,,,,,,,,,,,,,
,,,,1,1.7824,,,,,,11,refrigerator,tree,,90139,001,2022-04-21_16h39.46.351,SPAMnetsValid,2021.1.4,Win32,60.7681089,,,,,,,,,,,,,1,1.7824,0,19,19,43,1,,,,,,,,,,,,,,,,,,,,,,,,,,,,,,,,,,,,,,,,,,,,,,,,,,,,,,,,,,,,,,,,,,,,,,
,,,,1,2.9524,,,,,,46,garden,yogurt,,90139,001,2022-04-21_16h39.46.351,SPAMnetsValid,2021.1.4,Win32,60.7681089,,,,,,,,,,,,,1,2.9524,0,20,20,65,1,,,,,,,,,,,,,,,,,,,,,,,,,,,,,,,,,,,,,,,,,,,,,,,,,,,,,,,,,,,,,,,,,,,,,,
,,,,1,3.7001,,,,,,31,cactus,pretzel,,90139,001,2022-04-21_16h39.46.351,SPAMnetsValid,2021.1.4,Win32,60.7681089,,,,,,,,,,,,,1,3.7001,0,21,21,1,1,,,,,,,,,,,,,,,,,,,,,,,,,,,,,,,,,,,,,,,,,,,,,,,,,,,,,,,,,,,,,,,,,,,,,,
,,,,9,1.7852,,,,,,93,kitchen,oven,,90139,001,2022-04-21_16h39.46.351,SPAMnetsValid,2021.1.4,Win32,60.7681089,,,,,,,,,,,,,9,1.7852,0,22,22,82,1,,,,,,,,,,,,,,,,,,,,,,,,,,,,,,,,,,,,,,,,,,,,,,,,,,,,,,,,,,,,,,,,,,,,,,
,,,,1,3.9848,,,,,,41,broom,cactus,,90139,001,2022-04-21_16h39.46.351,SPAMnetsValid,2021.1.4,Win32,60.7681089,,,,,,,,,,,,,1,3.9848,0,23,23,46,1,,,,,,,,,,,,,,,,,,,,,,,,,,,,,,,,,,,,,,,,,,,,,,,,,,,,,,,,,,,,,,,,,,,,,,
,,,,6,1.9526,,,,,,18,onion,refrigerator,,90139,001,2022-04-21_16h39.46.351,SPAMnetsValid,2021.1.4,Win32,60.7681089,,,,,,,,,,,,,6,1.9526,0,24,24,62,1,,,,,,,,,,,,,,,,,,,,,,,,,,,,,,,,,,,,,,,,,,,,,,,,,,,,,,,,,,,,,,,,,,,,,,
,,,,1,2.8922,,,,,,65,broom,garden,,90139,001,2022-04-21_16h39.46.351,SPAMnetsValid,2021.1.4,Win32,60.7681089,,,,,,,,,,,,,1,2.8922,0,25,25,23,1,,,,,,,,,,,,,,,,,,,,,,,,,,,,,,,,,,,,,,,,,,,,,,,,,,,,,,,,,,,,,,,,,,,,,,
,,,,9,1.7847,,,,,,191,cake,cake,CHECK,90139,001,2022-04-21_16h39.46.351,SPAMnetsValid,2021.1.4,Win32,60.7681089,,,,,,,,,,,,,9,1.7847,0,26,26,10,1,,,,,,,,,,,,,,,,,,,,,,,,,,,,,,,,,,,,,,,,,,,,,,,,,,,,,,,,,,,,,,,,,,,,,,
,,,,4,2.3053,,,,,,29,chocolate,melon,,90139,001,2022-04-21_16h39.46.351,SPAMnetsValid,2021.1.4,Win32,60.7681089,,,,,,,,,,,,,4,2.3053,0,27,27,34,1,,,,,,,,,,,,,,,,,,,,,,,,,,,,,,,,,,,,,,,,,,,,,,,,,,,,,,,,,,,,,,,,,,,,,,
,,,,4,4.8834,,,,,,24,cookie,tomato,,90139,001,2022-04-21_16h39.46.351,SPAMnetsValid,2021.1.4,Win32,60.7681089,,,,,,,,,,,,,4,4.8834,0,28,28,68,1,,,,,,,,,,,,,,,,,,,,,,,,,,,,,,,,,,,,,,,,,,,,,,,,,,,,,,,,,,,,,,,,,,,,,,
,,,,3,1.8883,,,,,,58,garden,oven,,90139,001,2022-04-21_16h39.46.351,SPAMnetsValid,2021.1.4,Win32,60.7681089,,,,,,,,,,,,,3,1.8883,0,29,29,37,1,,,,,,,,,,,,,,,,,,,,,,,,,,,,,,,,,,,,,,,,,,,,,,,,,,,,,,,,,,,,,,,,,,,,,,
,,,,1,1.7487,,,,,,90,cactus,cake,,90139,001,2022-04-21_16h39.46.351,SPAMnetsValid,2021.1.4,Win32,60.7681089,,,,,,,,,,,,,1,1.7487,0,30,30,85,1,,,,,,,,,,,,,,,,,,,,,,,,,,,,,,,,,,,,,,,,,,,,,,,,,,,,,,,,,,,,,,,,,,,,,,
,,,,1,1.4203,,,,,,5,oven,tree,,90139,001,2022-04-21_16h39.46.351,SPAMnetsValid,2021.1.4,Win32,60.7681089,,,,,,,,,,,,,1,1.4203,0,31,31,70,1,,,,,,,,,,,,,,,,,,,,,,,,,,,,,,,,,,,,,,,,,,,,,,,,,,,,,,,,,,,,,,,,,,,,,,
,,,,4,3.0814,,,,,,42,garden,kitchen,,90139,001,2022-04-21_16h39.46.351,SPAMnetsValid,2021.1.4,Win32,60.7681089,,,,,,,,,,,,,4,3.0814,0,32,32,29,1,,,,,,,,,,,,,,,,,,,,,,,,,,,,,,,,,,,,,,,,,,,,,,,,,,,,,,,,,,,,,,,,,,,,,,
,,,,2,2.0482,,,,,,16,chocolate,flower,,90139,001,2022-04-21_16h39.46.351,SPAMnetsValid,2021.1.4,Win32,60.7681089,,,,,,,,,,,,,2,2.0482,0,33,33,22,1,,,,,,,,,,,,,,,,,,,,,,,,,,,,,,,,,,,,,,,,,,,,,,,,,,,,,,,,,,,,,,,,,,,,,,
,,,,4,2.4242,,,,,,49,flower,strawberry,,90139,001,2022-04-21_16h39.46.351,SPAMnetsValid,2021.1.4,Win32,60.7681089,,,,,,,,,,,,,4,2.4242,0,34,34,3,1,,,,,,,,,,,,,,,,,,,,,,,,,,,,,,,,,,,,,,,,,,,,,,,,,,,,,,,,,,,,,,,,,,,,,,
,,,,1,2.4491,,,,,,72,broom,onion,,90139,001,2022-04-21_16h39.46.351,SPAMnetsValid,2021.1.4,Win32,60.7681089,,,,,,,,,,,,,1,2.4491,0,35,35,27,1,,,,,,,,,,,,,,,,,,,,,,,,,,,,,,,,,,,,,,,,,,,,,,,,,,,,,,,,,,,,,,,,,,,,,,
,,,,1,1.3677,,,,,,27,cactus,cookie,,90139,001,2022-04-21_16h39.46.351,SPAMnetsValid,2021.1.4,Win32,60.7681089,,,,,,,,,,,,,1,1.3677,0,36,36,17,1,,,,,,,,,,,,,,,,,,,,,,,,,,,,,,,,,,,,,,,,,,,,,,,,,,,,,,,,,,,,,,,,,,,,,,
,,,,7,1.9713,,,,,,63,cake,cookie,,90139,001,2022-04-21_16h39.46.351,SPAMnetsValid,2021.1.4,Win32,60.7681089,,,,,,,,,,,,,7,1.9713,0,37,37,93,1,,,,,,,,,,,,,,,,,,,,,,,,,,,,,,,,,,,,,,,,,,,,,,,,,,,,,,,,,,,,,,,,,,,,,,
,,,,4,3.7507,,,,,,34,melon,oven,,90139,001,2022-04-21_16h39.46.351,SPAMnetsValid,2021.1.4,Win32,60.7681089,,,,,,,,,,,,,4,3.7507,0,38,38,7,1,,,,,,,,,,,,,,,,,,,,,,,,,,,,,,,,,,,,,,,,,,,,,,,,,,,,,,,,,,,,,,,,,,,,,,
,,,,1,1.7321,,,,,,14,broom,cookie,,90139,001,2022-04-21_16h39.46.351,SPAMnetsValid,2021.1.4,Win32,60.7681089,,,,,,,,,,,,,1,1.7321,0,39,39,16,1,,,,,,,,,,,,,,,,,,,,,,,,,,,,,,,,,,,,,,,,,,,,,,,,,,,,,,,,,,,,,,,,,,,,,,
,,,,3,1.9358,,,,,,21,cake,onion,,90139,001,2022-04-21_16h39.46.351,SPAMnetsValid,2021.1.4,Win32,60.7681089,,,,,,,,,,,,,3,1.9358,0,40,40,63,1,,,,,,,,,,,,,,,,,,,,,,,,,,,,,,,,,,,,,,,,,,,,,,,,,,,,,,,,,,,,,,,,,,,,,,
,,,,1,1.7322,,,,,,73,broom,chocolate,,90139,001,2022-04-21_16h39.46.351,SPAMnetsValid,2021.1.4,Win32,60.7681089,,,,,,,,,,,,,1,1.7322,0,41,41,47,1,,,,,,,,,,,,,,,,,,,,,,,,,,,,,,,,,,,,,,,,,,,,,,,,,,,,,,,,,,,,,,,,,,,,,,
,,,,4,3.0018,,,,,,19,microwave,pretzel,,90139,001,2022-04-21_16h39.46.351,SPAMnetsValid,2021.1.4,Win32,60.7681089,,,,,,,,,,,,,4,3.0018,0,42,42,41,1,,,,,,,,,,,,,,,,,,,,,,,,,,,,,,,,,,,,,,,,,,,,,,,,,,,,,,,,,,,,,,,,,,,,,,
,,,,8,1.932,,,,,,60,cactus,onion,,90139,001,2022-04-21_16h39.46.351,SPAMnetsValid,2021.1.4,Win32,60.7681089,,,,,,,,,,,,,8,1.932,0,43,43,81,1,,,,,,,,,,,,,,,,,,,,,,,,,,,,,,,,,,,,,,,,,,,,,,,,,,,,,,,,,,,,,,,,,,,,,,
,,,,4,1.7234,,,,,,33,oven,yogurt,,90139,001,2022-04-21_16h39.46.351,SPAMnetsValid,2021.1.4,Win32,60.7681089,,,,,,,,,,,,,4,1.7234,0,44,44,31,1,,,,,,,,,,,,,,,,,,,,,,,,,,,,,,,,,,,,,,,,,,,,,,,,,,,,,,,,,,,,,,,,,,,,,,
,,,,8,2.7195,,,,,,17,carrot,melon,,90139,001,2022-04-21_16h39.46.351,SPAMnetsValid,2021.1.4,Win32,60.7681089,,,,,,,,,,,,,8,2.7195,0,45,45,24,1,,,,,,,,,,,,,,,,,,,,,,,,,,,,,,,,,,,,,,,,,,,,,,,,,,,,,,,,,,,,,,,,,,,,,,
,,,,4,2.6181,,,,,,39,melon,pretzel,,90139,001,2022-04-21_16h39.46.351,SPAMnetsValid,2021.1.4,Win32,60.7681089,,,,,,,,,,,,,4,2.6181,0,46,46,20,1,,,,,,,,,,,,,,,,,,,,,,,,,,,,,,,,,,,,,,,,,,,,,,,,,,,,,,,,,,,,,,,,,,,,,,
,,,,4,11.0995,,,,,,87,carrot,yogurt,,90139,001,2022-04-21_16h39.46.351,SPAMnetsValid,2021.1.4,Win32,60.7681089,,,,,,,,,,,,,4,11.0995,0,47,47,6,1,,,,,,,,,,,,,,,,,,,,,,,,,,,,,,,,,,,,,,,,,,,,,,,,,,,,,,,,,,,,,,,,,,,,,,
,,,,8,2.0741,,,,,,94,kitchen,microwave,,90139,001,2022-04-21_16h39.46.351,SPAMnetsValid,2021.1.4,Win32,60.7681089,,,,,,,,,,,,,8,2.0741,0,48,48,58,1,,,,,,,,,,,,,,,,,,,,,,,,,,,,,,,,,,,,,,,,,,,,,,,,,,,,,,,,,,,,,,,,,,,,,,
,,,,4,3.7305,,,,,,44,cookie,melon,,90139,001,2022-04-21_16h39.46.351,SPAMnetsValid,2021.1.4,Win32,60.7681089,,,,,,,,,,,,,4,3.7305,0,49,49,92,1,,,,,,,,,,,,,,,,,,,,,,,,,,,,,,,,,,,,,,,,,,,,,,,,,,,,,,,,,,,,,,,,,,,,,,
,,,,6,1.7176,,,,,,36,broom,kitchen,,90139,001,2022-04-21_16h39.46.351,SPAMnetsValid,2021.1.4,Win32,60.7681089,,,,,,,,,,,,,6,1.7176,0,50,50,76,1,,,,,,,,,,,,,,,,,,,,,,,,,,,,,,,,,,,,,,,,,,,,,,,,,,,,,,,,,,,,,,,,,,,,,,
,,,,2,4.9245,,,,,,1,rose,yogurt,,90139,001,2022-04-21_16h39.46.351,SPAMnetsValid,2021.1.4,Win32,60.7681089,,,,,,,,,,,,,2,4.9245,0,51,51,55,1,,,,,,,,,,,,,,,,,,,,,,,,,,,,,,,,,,,,,,,,,,,,,,,,,,,,,,,,,,,,,,,,,,,,,,
,,,,6,1.9263,,,,,,69,carrot,refrigerator,,90139,001,2022-04-21_16h39.46.351,SPAMnetsValid,2021.1.4,Win32,60.7681089,,,,,,,,,,,,,6,1.9263,0,52,52,75,1,,,,,,,,,,,,,,,,,,,,,,,,,,,,,,,,,,,,,,,,,,,,,,,,,,,,,,,,,,,,,,,,,,,,,,
,,,,7,1.9328,,,,,,56,cactus,tree,,90139,001,2022-04-21_16h39.46.351,SPAMnetsValid,2021.1.4,Win32,60.7681089,,,,,,,,,,,,,7,1.9328,0,53,53,21,1,,,,,,,,,,,,,,,,,,,,,,,,,,,,,,,,,,,,,,,,,,,,,,,,,,,,,,,,,,,,,,,,,,,,,,
,,,,7,3.4199,,,,,,61,strawberry,tomato,,90139,001,2022-04-21_16h39.46.351,SPAMnetsValid,2021.1.4,Win32,60.7681089,,,,,,,,,,,,,7,3.4199,0,54,54,80,1,,,,,,,,,,,,,,,,,,,,,,,,,,,,,,,,,,,,,,,,,,,,,,,,,,,,,,,,,,,,,,,,,,,,,,
,,,,3,1.736,,,,,,28,cake,melon,,90139,001,2022-04-21_16h39.46.351,SPAMnetsValid,2021.1.4,Win32,60.7681089,,,,,,,,,,,,,3,1.736,0,55,55,54,1,,,,,,,,,,,,,,,,,,,,,,,,,,,,,,,,,,,,,,,,,,,,,,,,,,,,,,,,,,,,,,,,,,,,,,
,,,,1,2.921,,,,,,91,microwave,rose,,90139,001,2022-04-21_16h39.46.351,SPAMnetsValid,2021.1.4,Win32,60.7681089,,,,,,,,,,,,,1,2.921,0,56,56,84,1,,,,,,,,,,,,,,,,,,,,,,,,,,,,,,,,,,,,,,,,,,,,,,,,,,,,,,,,,,,,,,,,,,,,,,
,,,,2,2.2843,,,,,,26,tomato,yogurt,,90139,001,2022-04-21_16h39.46.351,SPAMnetsValid,2021.1.4,Win32,60.7681089,,,,,,,,,,,,,2,2.2843,0,57,57,13,1,,,,,,,,,,,,,,,,,,,,,,,,,,,,,,,,,,,,,,,,,,,,,,,,,,,,,,,,,,,,,,,,,,,,,,
,,,,8,2.269,,,,,,6,garden,onion,,90139,001,2022-04-21_16h39.46.351,SPAMnetsValid,2021.1.4,Win32,60.7681089,,,,,,,,,,,,,8,2.269,0,58,58,83,1,,,,,,,,,,,,,,,,,,,,,,,,,,,,,,,,,,,,,,,,,,,,,,,,,,,,,,,,,,,,,,,,,,,,,,
,,,,7,2.9369,,,,,,82,cake,kitchen,,90139,001,2022-04-21_16h39.46.351,SPAMnetsValid,2021.1.4,Win32,60.7681089,,,,,,,,,,,,,7,2.9369,0,59,59,96,1,,,,,,,,,,,,,,,,,,,,,,,,,,,,,,,,,,,,,,,,,,,,,,,,,,,,,,,,,,,,,,,,,,,,,,
,,,,8,3.2076,,,,,,50,carrot,rose,,90139,001,2022-04-21_16h39.46.351,SPAMnetsValid,2021.1.4,Win32,60.7681089,,,,,,,,,,,,,8,3.2076,0,60,60,73,1,,,,,,,,,,,,,,,,,,,,,,,,,,,,,,,,,,,,,,,,,,,,,,,,,,,,,,,,,,,,,,,,,,,,,,
,,,,9,2.452,,,,,,25,carrot,onion,,90139,001,2022-04-21_16h39.46.351,SPAMnetsValid,2021.1.4,Win32,60.7681089,,,,,,,,,,,,,9,2.452,0,61,61,44,1,,,,,,,,,,,,,,,,,,,,,,,,,,,,,,,,,,,,,,,,,,,,,,,,,,,,,,,,,,,,,,,,,,,,,,
,,,,2,2.2048,,,,,,62,kitchen,rose,,90139,001,2022-04-21_16h39.46.351,SPAMnetsValid,2021.1.4,Win32,60.7681089,,,,,,,,,,,,,2,2.2048,0,62,62,57,1,,,,,,,,,,,,,,,,,,,,,,,,,,,,,,,,,,,,,,,,,,,,,,,,,,,,,,,,,,,,,,,,,,,,,,
,,,,3,4.2319,,,,,,89,chocolate,rose,,90139,001,2022-04-21_16h39.46.351,SPAMnetsValid,2021.1.4,Win32,60.7681089,,,,,,,,,,,,,3,4.2319,0,63,63,60,1,,,,,,,,,,,,,,,,,,,,,,,,,,,,,,,,,,,,,,,,,,,,,,,,,,,,,,,,,,,,,,,,,,,,,,
,,,,8,1.9018,,,,,,9,kitchen,refrigerator,,90139,001,2022-04-21_16h39.46.351,SPAMnetsValid,2021.1.4,Win32,60.7681089,,,,,,,,,,,,,8,1.9018,0,64,64,64,1,,,,,,,,,,,,,,,,,,,,,,,,,,,,,,,,,,,,,,,,,,,,,,,,,,,,,,,,,,,,,,,,,,,,,,
,,,,7,2.7688,,,,,,68,flower,tomato,,90139,001,2022-04-21_16h39.46.351,SPAMnetsValid,2021.1.4,Win32,60.7681089,,,,,,,,,,,,,7,2.7688,0,65,65,94,1,,,,,,,,,,,,,,,,,,,,,,,,,,,,,,,,,,,,,,,,,,,,,,,,,,,,,,,,,,,,,,,,,,,,,,
,,,,7,2.4321,,,,,,10,flower,onion,,90139,001,2022-04-21_16h39.46.351,SPAMnetsValid,2021.1.4,Win32,60.7681089,,,,,,,,,,,,,7,2.4321,0,66,66,45,1,,,,,,,,,,,,,,,,,,,,,,,,,,,,,,,,,,,,,,,,,,,,,,,,,,,,,,,,,,,,,,,,,,,,,,
,,,,3,1.7321,,,,,,66,melon,yogurt,,90139,001,2022-04-21_16h39.46.351,SPAMnetsValid,2021.1.4,Win32,60.7681089,,,,,,,,,,,,,3,1.7321,0,67,67,48,1,,,,,,,,,,,,,,,,,,,,,,,,,,,,,,,,,,,,,,,,,,,,,,,,,,,,,,,,,,,,,,,,,,,,,,
,,,,1,1.4017,,,,,,71,broom,rose,,90139,001,2022-04-21_16h39.46.351,SPAMnetsValid,2021.1.4,Win32,60.7681089,,,,,,,,,,,,,1,1.4017,0,68,68,61,1,,,,,,,,,,,,,,,,,,,,,,,,,,,,,,,,,,,,,,,,,,,,,,,,,,,,,,,,,,,,,,,,,,,,,,
,,,,2,1.5549,,,,,,84,oven,tomato,,90139,001,2022-04-21_16h39.46.351,SPAMnetsValid,2021.1.4,Win32,60.7681089,,,,,,,,,,,,,2,1.5549,0,69,69,28,1,,,,,,,,,,,,,,,,,,,,,,,,,,,,,,,,,,,,,,,,,,,,,,,,,,,,,,,,,,,,,,,,,,,,,,
,,,,1,2.1452,,,,,,53,garden,pretzel,,90139,001,2022-04-21_16h39.46.351,SPAMnetsValid,2021.1.4,Win32,60.7681089,,,,,,,,,,,,,1,2.1452,0,70,70,0,1,,,,,,,,,,,,,,,,,,,,,,,,,,,,,,,,,,,,,,,,,,,,,,,,,,,,,,,,,,,,,,,,,,,,,,
,,,,1,1.2044,,,,,,83,broom,carrot,,90139,001,2022-04-21_16h39.46.351,SPAMnetsValid,2021.1.4,Win32,60.7681089,,,,,,,,,,,,,1,1.2044,0,71,71,4,1,,,,,,,,,,,,,,,,,,,,,,,,,,,,,,,,,,,,,,,,,,,,,,,,,,,,,,,,,,,,,,,,,,,,,,
,,,,1,1.7955,,,,,,80,chocolate,tree,,90139,001,2022-04-21_16h39.46.351,SPAMnetsValid,2021.1.4,Win32,60.7681089,,,,,,,,,,,,,1,1.7955,0,72,72,89,1,,,,,,,,,,,,,,,,,,,,,,,,,,,,,,,,,,,,,,,,,,,,,,,,,,,,,,,,,,,,,,,,,,,,,,
,,,,4,1.7726,,,,,,45,onion,pretzel,,90139,001,2022-04-21_16h39.46.351,SPAMnetsValid,2021.1.4,Win32,60.7681089,,,,,,,,,,,,,4,1.7726,0,73,73,69,1,,,,,,,,,,,,,,,,,,,,,,,,,,,,,,,,,,,,,,,,,,,,,,,,,,,,,,,,,,,,,,,,,,,,,,
,,,,4,1.1658,,,,,,51,onion,strawberry,,90139,001,2022-04-21_16h39.46.351,SPAMnetsValid,2021.1.4,Win32,60.7681089,,,,,,,,,,,,,4,1.1658,0,74,74,86,1,,,,,,,,,,,,,,,,,,,,,,,,,,,,,,,,,,,,,,,,,,,,,,,,,,,,,,,,,,,,,,,,,,,,,,
,,,,1,1.6175,,,,,,8,broom,melon,,90139,001,2022-04-21_16h39.46.351,SPAMnetsValid,2021.1.4,Win32,60.7681089,,,,,,,,,,,,,1,1.6175,0,75,75,59,1,,,,,,,,,,,,,,,,,,,,,,,,,,,,,,,,,,,,,,,,,,,,,,,,,,,,,,,,,,,,,,,,,,,,,,
,,,,8,2.2141,,,,,,79,garden,strawberry,,90139,001,2022-04-21_16h39.46.351,SPAMnetsValid,2021.1.4,Win32,60.7681089,,,,,,,,,,,,,8,2.2141,0,76,76,87,1,,,,,,,,,,,,,,,,,,,,,,,,,,,,,,,,,,,,,,,,,,,,,,,,,,,,,,,,,,,,,,,,,,,,,,
,,,,9,1.5864,,,,,,76,garden,rose,,90139,001,2022-04-21_16h39.46.351,SPAMnetsValid,2021.1.4,Win32,60.7681089,,,,,,,,,,,,,9,1.5864,0,77,77,19,1,,,,,,,,,,,,,,,,,,,,,,,,,,,,,,,,,,,,,,,,,,,,,,,,,,,,,,,,,,,,,,,,,,,,,,
,,,,1,1.868,,,,,,23,flower,microwave,,90139,001,2022-04-21_16h39.46.351,SPAMnetsValid,2021.1.4,Win32,60.7681089,,,,,,,,,,,,,1,1.868,0,78,78,25,1,,,,,,,,,,,,,,,,,,,,,,,,,,,,,,,,,,,,,,,,,,,,,,,,,,,,,,,,,,,,,,,,,,,,,,
,,,,3,1.9166,,,,,,75,cookie,onion,,90139,001,2022-04-21_16h39.46.351,SPAMnetsValid,2021.1.4,Win32,60.7681089,,,,,,,,,,,,,3,1.9166,0,79,79,9,1,,,,,,,,,,,,,,,,,,,,,,,,,,,,,,,,,,,,,,,,,,,,,,,,,,,,,,,,,,,,,,,,,,,,,,
,,,,5,2.663,,,,,,7,melon,tree,,90139,001,2022-04-21_16h39.46.351,SPAMnetsValid,2021.1.4,Win32,60.7681089,,,,,,,,,,,,,5,2.663,0,80,80,77,1,,,,,,,,,,,,,,,,,,,,,,,,,,,,,,,,,,,,,,,,,,,,,,,,,,,,,,,,,,,,,,,,,,,,,,
,,,,5,1.4818,,,,,,22,kitchen,strawberry,,90139,001,2022-04-21_16h39.46.351,SPAMnetsValid,2021.1.4,Win32,60.7681089,,,,,,,,,,,,,5,1.4818,0,81,81,2,1,,,,,,,,,,,,,,,,,,,,,,,,,,,,,,,,,,,,,,,,,,,,,,,,,,,,,,,,,,,,,,,,,,,,,,
,,,,8,1.8021,,,,,,20,rose,tree,,90139,001,2022-04-21_16h39.46.351,SPAMnetsValid,2021.1.4,Win32,60.7681089,,,,,,,,,,,,,8,1.8021,0,82,82,66,1,,,,,,,,,,,,,,,,,,,,,,,,,,,,,,,,,,,,,,,,,,,,,,,,,,,,,,,,,,,,,,,,,,,,,,
,,,,8,2.1518,,,,,,55,tomato,tree,,90139,001,2022-04-21_16h39.46.351,SPAMnetsValid,2021.1.4,Win32,60.7681089,,,,,,,,,,,,,8,2.1518,0,83,83,35,1,,,,,,,,,,,,,,,,,,,,,,,,,,,,,,,,,,,,,,,,,,,,,,,,,,,,,,,,,,,,,,,,,,,,,,
,,,,3,1.7509,,,,,,15,onion,oven,,90139,001,2022-04-21_16h39.46.351,SPAMnetsValid,2021.1.4,Win32,60.7681089,,,,,,,,,,,,,3,1.7509,0,84,84,39,1,,,,,,,,,,,,,,,,,,,,,,,,,,,,,,,,,,,,,,,,,,,,,,,,,,,,,,,,,,,,,,,,,,,,,,
,,,,1,1.7027,,,,,,95,broom,refrigerator,,90139,001,2022-04-21_16h39.46.351,SPAMnetsValid,2021.1.4,Win32,60.7681089,,,,,,,,,,,,,1,1.7027,0,85,85,90,1,,,,,,,,,,,,,,,,,,,,,,,,,,,,,,,,,,,,,,,,,,,,,,,,,,,,,,,,,,,,,,,,,,,,,,
,,,,4,2.7568,,,,,,4,chocolate,pretzel,,90139,001,2022-04-21_16h39.46.351,SPAMnetsValid,2021.1.4,Win32,60.7681089,,,,,,,,,,,,,4,2.7568,0,86,86,52,1,,,,,,,,,,,,,,,,,,,,,,,,,,,,,,,,,,,,,,,,,,,,,,,,,,,,,,,,,,,,,,,,,,,,,,
,,,,7,1.754,,,,,,3,cake,oven,,90139,001,2022-04-21_16h39.46.351,SPAMnetsValid,2021.1.4,Win32,60.7681089,,,,,,,,,,,,,7,1.754,0,87,87,30,1,,,,,,,,,,,,,,,,,,,,,,,,,,,,,,,,,,,,,,,,,,,,,,,,,,,,,,,,,,,,,,,,,,,,,,
,,,,2,2.8485,,,,,,64,chocolate,garden,,90139,001,2022-04-21_16h39.46.351,SPAMnetsValid,2021.1.4,Win32,60.7681089,,,,,,,,,,,,,2,2.8485,0,88,88,14,1,,,,,,,,,,,,,,,,,,,,,,,,,,,,,,,,,,,,,,,,,,,,,,,,,,,,,,,,,,,,,,,,,,,,,,
,,,,1,1.8323,,,,,,74,broom,pretzel,,90139,001,2022-04-21_16h39.46.351,SPAMnetsValid,2021.1.4,Win32,60.7681089,,,,,,,,,,,,,1,1.8323,0,89,89,40,1,,,,,,,,,,,,,,,,,,,,,,,,,,,,,,,,,,,,,,,,,,,,,,,,,,,,,,,,,,,,,,,,,,,,,,
,,,,2,1.7656,,,,,,86,oven,rose,,90139,001,2022-04-21_16h39.46.351,SPAMnetsValid,2021.1.4,Win32,60.7681089,,,,,,,,,,,,,2,1.7656,0,90,90,79,1,,,,,,,,,,,,,,,,,,,,,,,,,,,,,,,,,,,,,,,,,,,,,,,,,,,,,,,,,,,,,,,,,,,,,,
,,,,9,1.6382,,,,,,192,microwave,microwave,CHECK,90139,001,2022-04-21_16h39.46.351,SPAMnetsValid,2021.1.4,Win32,60.7681089,,,,,,,,,,,,,9,1.6382,0,91,91,53,1,,,,,,,,,,,,,,,,,,,,,,,,,,,,,,,,,,,,,,,,,,,,,,,,,,,,,,,,,,,,,,,,,,,,,,
,,,,7,1.8489,,,,,,59,rose,strawberry,,90139,001,2022-04-21_16h39.46.351,SPAMnetsValid,2021.1.4,Win32,60.7681089,,,,,,,,,,,,,7,1.8489,0,92,92,72,1,,,,,,,,,,,,,,,,,,,,,,,,,,,,,,,,,,,,,,,,,,,,,,,,,,,,,,,,,,,,,,,,,,,,,,
,,,,3,1.8559,,,,,,38,pretzel,refrigerator,,90139,001,2022-04-21_16h39.46.351,SPAMnetsValid,2021.1.4,Win32,60.7681089,,,,,,,,,,,,,3,1.8559,0,93,93,71,1,,,,,,,,,,,,,,,,,,,,,,,,,,,,,,,,,,,,,,,,,,,,,,,,,,,,,,,,,,,,,,,,,,,,,,
,,,,6,2.6246,,,,,,2,kitchen,onion,,90139,001,2022-04-21_16h39.46.351,SPAMnetsValid,2021.1.4,Win32,60.7681089,,,,,,,,,,,,,6,2.6246,0,94,94,91,1,,,,,,,,,,,,,,,,,,,,,,,,,,,,,,,,,,,,,,,,,,,,,,,,,,,,,,,,,,,,,,,,,,,,,,
,,,,2,1.5897,,,,,,85,cake,tree,,90139,001,2022-04-21_16h39.46.351,SPAMnetsValid,2021.1.4,Win32,60.7681089,,,,,,,,,,,,,2,1.5897,0,95,95,18,1,,,,,,,,,,,,,,,,,,,,,,,,,,,,,,,,,,,,,,,,,,,,,,,,,,,,,,,,,,,,,,,,,,,,,,
,,,,2,5.2705,,,,,,13,broom,yogurt,,90139,001,2022-04-21_16h39.46.351,SPAMnetsValid,2021.1.4,Win32,60.7681089,,,,,,,,,,,,,2,5.2705,0,96,96,5,1,,,,,,,,,,,,,,,,,,,,,,,,,,,,,,,,,,,,,,,,,,,,,,,,,,,,,,,,,,,,,,,,,,,,,,
,,,,,,,,,,,,,,,90139,001,2022-04-21_16h39.46.351,SPAMnetsValid,2021.1.4,Win32,60.7681089,,,,,,,,,,,,,,,,,,,,0,0,0,0,1,,,,,,,,,,,,,,,,,,,,,,,,,,,,,,,,,,,,,,,,,,,,,,,,,,,,,,,,,,,,,,,,,
,,,,,,,,,,,,,,,90139,001,2022-04-21_16h39.46.351,SPAMnetsValid,2021.1.4,Win32,60.7681089,,,,,,0,1,1,0,1,1,0,,,,,,,,,,,,,,,,,,,,,,,,,,,,,,,,,,,,,,,,,,,,,,,,,,,,,,,,,,,,,,,,,,,,,,,,,,,,,
,,,,,,,,,,,,,,,90139,001,2022-04-21_16h39.46.351,SPAMnetsValid,2021.1.4,Win32,60.7681089,,,,,,,,,,,,,,,,,,,,,,,,,3,8.3182,0,0,0,0,1,rancor,forbearance,ridicule,malice,bravery,3,,,,,,,,,,,,,,,,,,,,,,,,,,,,,,,,,,,,,,,,,,,,,,,,,,,,
,,,,,,,,,,,,,,,90139,001,2022-04-21_16h39.46.351,SPAMnetsValid,2021.1.4,Win32,60.7681089,,,,,,,,,,,,,,,,,,,,,,,,,1,5.0248,0,1,1,1,1,raucous,empty,quiet,smooth,harsh,4,,,,,,,,,,,,,,,,,,,,,,,,,,,,,,,,,,,,,,,,,,,,,,,,,,,,
,,,,,,,,,,,,,,,90139,001,2022-04-21_16h39.46.351,SPAMnetsValid,2021.1.4,Win32,60.7681089,,,,,,,,,,,,,,,,,,,,,,,,,4,4.8912,0,2,2,2,1,gargoyle,oil,medicine,carved waterspout,ugly building,3,,,,,,,,,,,,,,,,,,,,,,,,,,,,,,,,,,,,,,,,,,,,,,,,,,,,
,,,,,,,,,,,,,,,90139,001,2022-04-21_16h39.46.351,SPAMnetsValid,2021.1.4,Win32,60.7681089,,,,,,,,,,,,,,,,,,,,,,,,,4,35.7357,0,3,3,3,1,recrudesce,purify,renew activity,lack refinement,crush,2,,,,,,,,,,,,,,,,,,,,,,,,,,,,,,,,,,,,,,,,,,,,,,,,,,,,
,,,,,,,,,,,,,,,90139,001,2022-04-21_16h39.46.351,SPAMnetsValid,2021.1.4,Win32,60.7681089,,,,,,,,,,,,,,,,,,,,,,,,,2,10.8581,0,4,4,4,1,specious,"plausible, but not genuine",noteworthy,class or variety,roomy,1,,,,,,,,,,,,,,,,,,,,,,,,,,,,,,,,,,,,,,,,,,,,,,,,,,,,
,,,,,,,,,,,,,,,90139,001,2022-04-21_16h39.46.351,SPAMnetsValid,2021.1.4,Win32,60.7681089,,,,,,,,,,,,,,,,,,,,,,,,,2,16.489,0,5,5,5,1,bauble,bubble,showy plaything,idle talk,confusion,2,,,,,,,,,,,,,,,,,,,,,,,,,,,,,,,,,,,,,,,,,,,,,,,,,,,,
,,,,,,,,,,,,,,,90139,001,2022-04-21_16h39.46.351,SPAMnetsValid,2021.1.4,Win32,60.7681089,,,,,,,,,,,,,,,,,,,,,,,,,2,4.0319,0,6,6,6,1,prolific,scarce,producing abundantly,reckless,speaking profanely,2,,,,,,,,,,,,,,,,,,,,,,,,,,,,,,,,,,,,,,,,,,,,,,,,,,,,
,,,,,,,,,,,,,,,90139,001,2022-04-21_16h39.46.351,SPAMnetsValid,2021.1.4,Win32,60.7681089,,,,,,,,,,,,,,,,,,,,,,,,,2,2.2073,0,7,7,7,1,opulent,party,wealthy,happy frame of mind,semiprecious stone,2,,,,,,,,,,,,,,,,,,,,,,,,,,,,,,,,,,,,,,,,,,,,,,,,,,,,
,,,,,,,,,,,,,,,90139,001,2022-04-21_16h39.46.351,SPAMnetsValid,2021.1.4,Win32,60.7681089,,,,,,,,,,,,,,,,,,,,,,,,,4,4.2417,0,8,8,8,1,coercion,conspiracy,strategy,restraint,attraction,3,,,,,,,,,,,,,,,,,,,,,,,,,,,,,,,,,,,,,,,,,,,,,,,,,,,,
,,,,,,,,,,,,,,,90139,001,2022-04-21_16h39.46.351,SPAMnetsValid,2021.1.4,Win32,60.7681089,,,,,,,,,,,,,,,,,,,,,,,,,4,2.7779,0,9,9,9,1,hiatus,animal,calamity,dread,gap,4,,,,,,,,,,,,,,,,,,,,,,,,,,,,,,,,,,,,,,,,,,,,,,,,,,,,
,,,,,,,,,,,,,,,90139,001,2022-04-21_16h39.46.351,SPAMnetsValid,2021.1.4,Win32,60.7681089,,,,,,,,,,,,,,,,,,,,,,,,,3,17.6,0,10,10,10,1,germane,microbe,contagious,relevant,different,3,,,,,,,,,,,,,,,,,,,,,,,,,,,,,,,,,,,,,,,,,,,,,,,,,,,,
,,,,,,,,,,,,,,,90139,001,2022-04-21_16h39.46.351,SPAMnetsValid,2021.1.4,Win32,60.7681089,,,,,,,,,,,,,,,,,,,,,,,,,3,4.6752,0,11,11,11,1,perfunctory,fundamental,formal,superficial,careful,3,,,,,,,,,,,,,,,,,,,,,,,,,,,,,,,,,,,,,,,,,,,,,,,,,,,,
,,,,,,,,,,,,,,,90139,001,2022-04-21_16h39.46.351,SPAMnetsValid,2021.1.4,Win32,60.7681089,,,,,,,,,,,,,,,,,,,,,,,,,4,5.0582,0,12,12,12,1,diverge,reveal,chant,distract the attention of,differ or turn off from,4,,,,,,,,,,,,,,,,,,,,,,,,,,,,,,,,,,,,,,,,,,,,,,,,,,,,
,,,,,,,,,,,,,,,90139,001,2022-04-21_16h39.46.351,SPAMnetsValid,2021.1.4,Win32,60.7681089,,,,,,,,,,,,,,,,,,,,,,,,,4,2.4712,0,13,13,13,1,evoke,take away,anger,connect,bring out,4,,,,,,,,,,,,,,,,,,,,,,,,,,,,,,,,,,,,,,,,,,,,,,,,,,,,
,,,,,,,,,,,,,,,90139,001,2022-04-21_16h39.46.351,SPAMnetsValid,2021.1.4,Win32,60.7681089,,,,,,,,,,,,,,,,,,,,,,,,,1,3.2379,0,14,14,14,1,pertinent,relevant,lying next to,necessary,bold,1,,,,,,,,,,,,,,,,,,,,,,,,,,,,,,,,,,,,,,,,,,,,,,,,,,,,
,,,,,,,,,,,,,,,90139,001,2022-04-21_16h39.46.351,SPAMnetsValid,2021.1.4,Win32,60.7681089,,,,,,,,,,,,,,,,,,,,,,,,,2,2.3638,0,15,15,15,1,holocaust,entirety,destruction,saintly,price,2,,,,,,,,,,,,,,,,,,,,,,,,,,,,,,,,,,,,,,,,,,,,,,,,,,,,
,,,,,,,,,,,,,,,90139,001,2022-04-21_16h39.46.351,SPAMnetsValid,2021.1.4,Win32,60.7681089,,,,,,,,,,,,,,,,,,,,,,,,,1,4.2728,0,16,16,16,1,piquant,mellow,fish,pungent,cloth,3,,,,,,,,,,,,,,,,,,,,,,,,,,,,,,,,,,,,,,,,,,,,,,,,,,,,
,,,,,,,,,,,,,,,90139,001,2022-04-21_16h39.46.351,SPAMnetsValid,2021.1.4,Win32,60.7681089,,,,,,,,,,,,,,,,,,,,,,,,,4,6.1068,0,17,17,17,1,firmament,foundation,heavens,strong,glue,2,,,,,,,,,,,,,,,,,,,,,,,,,,,,,,,,,,,,,,,,,,,,,,,,,,,,
,,,,,,,,,,,,,,,90139,001,2022-04-21_16h39.46.351,SPAMnetsValid,2021.1.4,Win32,60.7681089,,,,,,,,,,,,,,,,,,,,,,,,,,,,,,,,,,,,,,4,6.3757,0,0,0,0,1,marketable,partisan,jocular,marriageable,salable,essential,4,,,,,,,,,,,,,,,,,,,,,,,,,,,,,,,,,,,,,,
,,,,,,,,,,,,,,,90139,001,2022-04-21_16h39.46.351,SPAMnetsValid,2021.1.4,Win32,60.7681089,,,,,,,,,,,,,,,,,,,,,,,,,,,,,,,,,,,,,,4,3.6421,0,1,1,1,1,cottontail,squirrel,poplar,boa,marshy plant,rabbit,5,,,,,,,,,,,,,,,,,,,,,,,,,,,,,,,,,,,,,,
,,,,,,,,,,,,,,,90139,001,2022-04-21_16h39.46.351,SPAMnetsValid,2021.1.4,Win32,60.7681089,,,,,,,,,,,,,,,,,,,,,,,,,,,,,,,,,,,,,,3,2.4229,0,2,2,2,1,boggy,afraid,false,marshy,dense,black,3,,,,,,,,,,,,,,,,,,,,,,,,,,,,,,,,,,,,,,
,,,,,,,,,,,,,,,90139,001,2022-04-21_16h39.46.351,SPAMnetsValid,2021.1.4,Win32,60.7681089,,,,,,,,,,,,,,,,,,,,,,,,,,,,,,,,,,,,,,5,4.5501,0,3,3,3,1,gruesomeness,blackness,falseness,vindictiveness,drunkenness,ghastliness,5,,,,,,,,,,,,,,,,,,,,,,,,,,,,,,,,,,,,,,
,,,,,,,,,,,,,,,90139,001,2022-04-21_16h39.46.351,SPAMnetsValid,2021.1.4,Win32,60.7681089,,,,,,,,,,,,,,,,,,,,,,,,,,,,,,,,,,,,,,3,3.3099,0,4,4,4,1,loathing,diffidence,laziness,abhorrence,cleverness,comfort,3,,,,,,,,,,,,,,,,,,,,,,,,,,,,,,,,,,,,,,
,,,,,,,,,,,,,,,90139,001,2022-04-21_16h39.46.351,SPAMnetsValid,2021.1.4,Win32,60.7681089,,,,,,,,,,,,,,,,,,,,,,,,,,,,,,,,,,,,,,2,3.8482,0,5,5,5,1,bantam,fowl,ridicule,cripple,vegetable,ensign,1,,,,,,,,,,,,,,,,,,,,,,,,,,,,,,,,,,,,,,
,,,,,,,,,,,,,,,90139,001,2022-04-21_16h39.46.351,SPAMnetsValid,2021.1.4,Win32,60.7681089,,,,,,,,,,,,,,,,,,,,,,,,,,,,,,,,,,,,,,5,2.8592,0,6,6,6,1,evoke,wake up,surrender,reconnoiter,transcend,call forth,5,,,,,,,,,,,,,,,,,,,,,,,,,,,,,,,,,,,,,,
,,,,,,,,,,,,,,,90139,001,2022-04-21_16h39.46.351,SPAMnetsValid,2021.1.4,Win32,60.7681089,,,,,,,,,,,,,,,,,,,,,,,,,,,,,,,,,,,,,,5,9.8328,0,7,7,7,1,unobtrusive,unintelligent,epileptic,illogical,lineal,modest,5,,,,,,,,,,,,,,,,,,,,,,,,,,,,,,,,,,,,,,
,,,,,,,,,,,,,,,90139,001,2022-04-21_16h39.46.351,SPAMnetsValid,2021.1.4,Win32,60.7681089,,,,,,,,,,,,,,,,,,,,,,,,,,,,,,,,,,,,,,4,2.7887,0,8,8,8,1,terrain,ice cream,final test,tractor,area of ground,weight,4,,,,,,,,,,,,,,,,,,,,,,,,,,,,,,,,,,,,,,
,,,,,,,,,,,,,,,90139,001,2022-04-21_16h39.46.351,SPAMnetsValid,2021.1.4,Win32,60.7681089,,,,,,,,,,,,,,,,,,,,,,,,,,,,,,,,,,,,,,5,9.7738,0,9,9,9,1,capriciousness,stubbornness,courage,whimsicality,amazement,greediness,3,,,,,,,,,,,,,,,,,,,,,,,,,,,,,,,,,,,,,,
,,,,,,,,,,,,,,,90139,001,2022-04-21_16h39.46.351,SPAMnetsValid,2021.1.4,Win32,60.7681089,,,,,,,,,,,,,,,,,,,,,,,,,,,,,,,,,,,,,,4,5.0584,0,10,10,10,1,maelstrom,slander,whirlpool,enmity,armor,majolica,2,,,,,,,,,,,,,,,,,,,,,,,,,,,,,,,,,,,,,,
,,,,,,,,,,,,,,,90139,001,2022-04-21_16h39.46.351,SPAMnetsValid,2021.1.4,Win32,60.7681089,,,,,,,,,,,,,,,,,,,,,,,,,,,,,,,,,,,,,,5,7.492,0,11,11,11,1,tentative,critical,conclusive,authentic,provisional,apprehensive,4,,,,,,,,,,,,,,,,,,,,,,,,,,,,,,,,,,,,,,
,,,,,,,,,,,,,,,90139,001,2022-04-21_16h39.46.351,SPAMnetsValid,2021.1.4,Win32,60.7681089,,,,,,,,,,,,,,,,,,,,,,,,,,,,,,,,,,,,,,5,5.475,0,12,12,12,1,placate,rehabilitate,plagiarize,depredate,apprise,conciliate,5,,,,,,,,,,,,,,,,,,,,,,,,,,,,,,,,,,,,,,
,,,,,,,,,,,,,,,90139,001,2022-04-21_16h39.46.351,SPAMnetsValid,2021.1.4,Win32,60.7681089,,,,,,,,,,,,,,,,,,,,,,,,,,,,,,,,,,,,,,2,9.4414,0,13,13,13,1,surcease,enlightenment,cessation,inattention,censor,substitution,2,,,,,,,,,,,,,,,,,,,,,,,,,,,,,,,,,,,,,,
,,,,,,,,,,,,,,,90139,001,2022-04-21_16h39.46.351,SPAMnetsValid,2021.1.4,Win32,60.7681089,,,,,,,,,,,,,,,,,,,,,,,,,,,,,,,,,,,,,,3,2.7455,0,14,14,14,1,apathetic,wandering,impassive,hateful,prophetic,overflowing,2,,,,,,,,,,,,,,,,,,,,,,,,,,,,,,,,,,,,,,
,,,,,,,,,,,,,,,90139,001,2022-04-21_16h39.46.351,SPAMnetsValid,2021.1.4,Win32,60.7681089,,,,,,,,,,,,,,,,,,,,,,,,,,,,,,,,,,,,,,3,4.861,0,15,15,15,1,paternoster,paternalism,patricide,malediction,benediction,prayer,5,,,,,,,,,,,,,,,,,,,,,,,,,,,,,,,,,,,,,,
,,,,,,,,,,,,,,,90139,001,2022-04-21_16h39.46.351,SPAMnetsValid,2021.1.4,Win32,60.7681089,,,,,,,,,,,,,,,,,,,,,,,,,,,,,,,,,,,,,,5,7.7095,0,16,16,16,1,opalescence,opulence,senescence,bankruptcy,iridescence,assiduity,4,,,,,,,,,,,,,,,,,,,,,,,,,,,,,,,,,,,,,,
,,,,,,,,,,,,,,,90139,001,2022-04-21_16h39.46.351,SPAMnetsValid,2021.1.4,Win32,60.7681089,,,,,,,,,,,,,,,,,,,,,,,,,,,,,,,,,,,,,,2,4.2919,0,17,17,17,1,lush,stupid,luxurious,hazy,putrid,languishing,2,,,,,,,,,,,,,,,,,,,,,,,,,,,,,,,,,,,,,,
,,,,,,,,,,,,,,,90139,001,2022-04-21_16h39.46.351,SPAMnetsValid,2021.1.4,Win32,60.7681089,,,,,,,,,,,,,,,,,,,,,,,,,,,,,,,,,,,,,,3,5.4575,0,18,18,18,1,curtailment,expenditure,abandonment,abridgment,improvement,forgery,3,,,,,,,,,,,,,,,,,,,,,,,,,,,,,,,,,,,,,,
,,,,,,,,,,,,,,,90139,001,2022-04-21_16h39.46.351,SPAMnetsValid,2021.1.4,Win32,60.7681089,,,,,,,,,,,,,,,,,,,,,,,,,,,,,,,,,,,,,,5,7.3166,0,19,19,19,1,perversity,adversity,perviousness,travesty,waywardness,gentility,4,,,,,,,,,,,,,,,,,,,,,,,,,,,,,,,,,,,,,,
,,,,,,,,,,,,,,,90139,001,2022-04-21_16h39.46.351,SPAMnetsValid,2021.1.4,Win32,60.7681089,,,,,,,,,,,,,,,,,,,,,,,,,,,,,,,,,,,,,,3,5.5056,0,20,20,20,1,calumnious,complimentary,analogous,slanderous,tempestuous,magnanimous,3,,,,,,,,,,,,,,,,,,,,,,,,,,,,,,,,,,,,,,
,,,,,,,,,,,,,,,90139,001,2022-04-21_16h39.46.351,SPAMnetsValid,2021.1.4,Win32,60.7681089,,,,,,,,,,,,,,,,,,,,,,,,,,,,,,,,,,,,,,3,4.4499,0,21,21,21,1,illiberality,bigotry,imbecility,illegibility,cautery,immaturity,1,,,,,,,,,,,,,,,,,,,,,,,,,,,,,,,,,,,,,,
,,,,,,,,,,,,,,,90139,001,2022-04-21_16h39.46.351,SPAMnetsValid,2021.1.4,Win32,60.7681089,,,,,,,,,,,,,,,,,,,,,,,,,,,,,,,,,,,,,,2,3.5462,0,22,22,22,1,clabber,rejoice,gossip,curdle,crow,hobble,3,,,,,,,,,,,,,,,,,,,,,,,,,,,,,,,,,,,,,,
,,,,,,,,,,,,,,,90139,001,2022-04-21_16h39.46.351,SPAMnetsValid,2021.1.4,Win32,60.7681089,,,,,,,,,,,,,,,,,,,,,,,,,,,,,,,,,,,,,,1,6.7747,0,23,23,23,1,sedulousness,diligence,credulousness,seduction,perilousness,frankness,1,,,,,,,,,,,,,,,,,,,,,,,,,,,,,,,,,,,,,,
,,,,,,,,,,,,,,,90139,001,2022-04-21_16h39.46.351,SPAMnetsValid,2021.1.4,Win32,60.7681089,,,,,,,,,,,,,,,,,,,,,,,,,,,,,,,,,,,,,,,,,,,,,,,,,,,,"burn, light, smell, fragrance, birthday candle, f",candle,0,0,0,0,1,,,,,,,,,,,,,,,,,,,,,,,,,,,,,,,
,,,,,,,,,,,,,,,90139,001,2022-04-21_16h39.46.351,SPAMnetsValid,2021.1.4,Win32,60.7681089,,,,,,,,,,,,,,,,,,,,,,,,,,,,,,,,,,,,,,,,,,,,,,,,,,,,firebreathing,candle,1,0,1,0,1,,,,,,,,,,,,,,,,,,,,,,,,,,,,,,,
,,,,,,,,,,,,,,,90139,001,2022-04-21_16h39.46.351,SPAMnetsValid,2021.1.4,Win32,60.7681089,,,,,,,,,,,,,,,,,,,,,,,,,,,,,,,,,,,,,,,,,,,,,,,,,,,,decoration,candle,2,0,2,0,1,,,,,,,,,,,,,,,,,,,,,,,,,,,,,,,
,,,,,,,,,,,,,,,90139,001,2022-04-21_16h39.46.351,SPAMnetsValid,2021.1.4,Win32,60.7681089,,,,,,,,,,,,,,,,,,,,,,,,,,,,,,,,,,,,,,,,,,,,,,,,,,,,light fire to something,candle,3,0,3,0,1,,,,,,,,,,,,,,,,,,,,,,,,,,,,,,,
,,,,,,,,,,,,,,,90139,001,2022-04-21_16h39.46.351,SPAMnetsValid,2021.1.4,Win32,60.7681089,,,,,,,,,,,,,,,,,,,,,,,,,,,,,,,,,,,,,,,,,,,,,,,,,,,,getting high,candle,4,0,4,0,1,,,,,,,,,,,,,,,,,,,,,,,,,,,,,,,
,,,,,,,,,,,,,,,90139,001,2022-04-21_16h39.46.351,SPAMnetsValid,2021.1.4,Win32,60.7681089,,,,,,,,,,,,,,,,,,,,,,,,,,,,,,,,,,,,,,,,,,,,,,,,,,,,cauterize a wound,candle,5,0,5,0,1,,,,,,,,,,,,,,,,,,,,,,,,,,,,,,,
,,,,,,,,,,,,,,,90139,001,2022-04-21_16h39.46.351,SPAMnetsValid,2021.1.4,Win32,60.7681089,,,,,,,,,,,,,,,,,,,,,,,,,,,,,,,,,,,,,,,,,,,,,,,,,,,,eat the wax,candle,6,0,6,0,1,,,,,,,,,,,,,,,,,,,,,,,,,,,,,,,
,,,,,,,,,,,,,,,90139,001,2022-04-21_16h39.46.351,SPAMnetsValid,2021.1.4,Win32,60.7681089,,,,,,,,,,,,,,,,,,,,,,,,,,,,,,,,,,,,,,,,,,,,,,,,,,,,,,,,,,,0,0,0,1,1,candle,,,,,,,,,,,,,,,,,,,,,,,,,
,,,,,,,,,,,,,,,90139,001,2022-04-21_16h39.46.351,SPAMnetsValid,2021.1.4,Win32,60.7681089,,,,,,,,,,,,,,,,,,,,,,,,,,,,,,,,,,,,,,,,,,,,,,,,,,,,pee in the bucket,bucket,0,0,0,0,1,,,,,,,,,,,,,,,,,,,,,,,,,,,,,,,
,,,,,,,,,,,,,,,90139,001,2022-04-21_16h39.46.351,SPAMnetsValid,2021.1.4,Win32,60.7681089,,,,,,,,,,,,,,,,,,,,,,,,,,,,,,,,,,,,,,,,,,,,,,,,,,,,remove water,bucket,1,0,1,0,1,,,,,,,,,,,,,,,,,,,,,,,,,,,,,,,
,,,,,,,,,,,,,,,90139,001,2022-04-21_16h39.46.351,SPAMnetsValid,2021.1.4,Win32,60.7681089,,,,,,,,,,,,,,,,,,,,,,,,,,,,,,,,,,,,,,,,,,,,,,,,,,,,clean a floor,bucket,2,0,2,0,1,,,,,,,,,,,,,,,,,,,,,,,,,,,,,,,
,,,,,,,,,,,,,,,90139,001,2022-04-21_16h39.46.351,SPAMnetsValid,2021.1.4,Win32,60.7681089,,,,,,,,,,,,,,,,,,,,,,,,,,,,,,,,,,,,,,,,,,,,,,,,,,,,build a sandcastle,bucket,3,0,3,0,1,,,,,,,,,,,,,,,,,,,,,,,,,,,,,,,
,,,,,,,,,,,,,,,90139,001,2022-04-21_16h39.46.351,SPAMnetsValid,2021.1.4,Win32,60.7681089,,,,,,,,,,,,,,,,,,,,,,,,,,,,,,,,,,,,,,,,,,,,,,,,,,,,water plants,bucket,4,0,4,0,1,,,,,,,,,,,,,,,,,,,,,,,,,,,,,,,
,,,,,,,,,,,,,,,90139,001,2022-04-21_16h39.46.351,SPAMnetsValid,2021.1.4,Win32,60.7681089,,,,,,,,,,,,,,,,,,,,,,,,,,,,,,,,,,,,,,,,,,,,,,,,,,,,drink,bucket,5,0,5,0,1,,,,,,,,,,,,,,,,,,,,,,,,,,,,,,,
,,,,,,,,,,,,,,,90139,001,2022-04-21_16h39.46.351,SPAMnetsValid,2021.1.4,Win32,60.7681089,,,,,,,,,,,,,,,,,,,,,,,,,,,,,,,,,,,,,,,,,,,,,,,,,,,,brim,bucket,6,0,6,0,1,,,,,,,,,,,,,,,,,,,,,,,,,,,,,,,
,,,,,,,,,,,,,,,90139,001,2022-04-21_16h39.46.351,SPAMnetsValid,2021.1.4,Win32,60.7681089,,,,,,,,,,,,,,,,,,,,,,,,,,,,,,,,,,,,,,,,,,,,,,,,,,,,stand in a bucket,bucket,7,0,7,0,1,,,,,,,,,,,,,,,,,,,,,,,,,,,,,,,
,,,,,,,,,,,,,,,90139,001,2022-04-21_16h39.46.351,SPAMnetsValid,2021.1.4,Win32,60.7681089,,,,,,,,,,,,,,,,,,,,,,,,,,,,,,,,,,,,,,,,,,,,,,,,,,,,shoes,bucket,8,0,8,0,1,,,,,,,,,,,,,,,,,,,,,,,,,,,,,,,
,,,,,,,,,,,,,,,90139,001,2022-04-21_16h39.46.351,SPAMnetsValid,2021.1.4,Win32,60.7681089,,,,,,,,,,,,,,,,,,,,,,,,,,,,,,,,,,,,,,,,,,,,,,,,,,,,eat a meal,bucket,9,0,9,0,1,,,,,,,,,,,,,,,,,,,,,,,,,,,,,,,
,,,,,,,,,,,,,,,90139,001,2022-04-21_16h39.46.351,SPAMnetsValid,2021.1.4,Win32,60.7681089,,,,,,,,,,,,,,,,,,,,,,,,,,,,,,,,,,,,,,,,,,,,,,,,,,,,,,,,,,,0,1,1,0,1,bucket,,,,,,,,,,,,,,,,,,,,,,,,,
,,,,,,,,,,,,,,,90139,001,2022-04-21_16h39.46.351,SPAMnetsValid,2021.1.4,Win32,60.7681089,,,,,,,,,,,,,,,,,,,,,,,,,,,,,,,,,,,,,,,,,,,,,,,,,,,,sleep,pillow,0,0,0,0,1,,,,,,,,,,,,,,,,,,,,,,,,,,,,,,,
,,,,,,,,,,,,,,,90139,001,2022-04-21_16h39.46.351,SPAMnetsValid,2021.1.4,Win32,60.7681089,,,,,,,,,,,,,,,,,,,,,,,,,,,,,,,,,,,,,,,,,,,,,,,,,,,,suffocate,pillow,1,0,1,0,1,,,,,,,,,,,,,,,,,,,,,,,,,,,,,,,
,,,,,,,,,,,,,,,90139,001,2022-04-21_16h39.46.351,SPAMnetsValid,2021.1.4,Win32,60.7681089,,,,,,,,,,,,,,,,,,,,,,,,,,,,,,,,,,,,,,,,,,,,,,,,,,,,clothes,pillow,2,0,2,0,1,,,,,,,,,,,,,,,,,,,,,,,,,,,,,,,
,,,,,,,,,,,,,,,90139,001,2022-04-21_16h39.46.351,SPAMnetsValid,2021.1.4,Win32,60.7681089,,,,,,,,,,,,,,,,,,,,,,,,,,,,,,,,,,,,,,,,,,,,,,,,,,,,body pillow anime,pillow,3,0,3,0,1,,,,,,,,,,,,,,,,,,,,,,,,,,,,,,,
,,,,,,,,,,,,,,,90139,001,2022-04-21_16h39.46.351,SPAMnetsValid,2021.1.4,Win32,60.7681089,,,,,,,,,,,,,,,,,,,,,,,,,,,,,,,,,,,,,,,,,,,,,,,,,,,,pee in the pillow,pillow,4,0,4,0,1,,,,,,,,,,,,,,,,,,,,,,,,,,,,,,,
,,,,,,,,,,,,,,,90139,001,2022-04-21_16h39.46.351,SPAMnetsValid,2021.1.4,Win32,60.7681089,,,,,,,,,,,,,,,,,,,,,,,,,,,,,,,,,,,,,,,,,,,,,,,,,,,,parachute,pillow,5,0,5,0,1,,,,,,,,,,,,,,,,,,,,,,,,,,,,,,,
,,,,,,,,,,,,,,,90139,001,2022-04-21_16h39.46.351,SPAMnetsValid,2021.1.4,Win32,60.7681089,,,,,,,,,,,,,,,,,,,,,,,,,,,,,,,,,,,,,,,,,,,,,,,,,,,,weapon,pillow,6,0,6,0,1,,,,,,,,,,,,,,,,,,,,,,,,,,,,,,,
,,,,,,,,,,,,,,,90139,001,2022-04-21_16h39.46.351,SPAMnetsValid,2021.1.4,Win32,60.7681089,,,,,,,,,,,,,,,,,,,,,,,,,,,,,,,,,,,,,,,,,,,,,,,,,,,,socks,pillow,7,0,7,0,1,,,,,,,,,,,,,,,,,,,,,,,,,,,,,,,
,,,,,,,,,,,,,,,90139,001,2022-04-21_16h39.46.351,SPAMnetsValid,2021.1.4,Win32,60.7681089,,,,,,,,,,,,,,,,,,,,,,,,,,,,,,,,,,,,,,,,,,,,,,,,,,,,gauze pads,pillow,8,0,8,0,1,,,,,,,,,,,,,,,,,,,,,,,,,,,,,,,
,,,,,,,,,,,,,,,90139,001,2022-04-21_16h39.46.351,SPAMnetsValid,2021.1.4,Win32,60.7681089,,,,,,,,,,,,,,,,,,,,,,,,,,,,,,,,,,,,,,,,,,,,,,,,,,,,halloween,pillow,9,0,9,0,1,,,,,,,,,,,,,,,,,,,,,,,,,,,,,,,
,,,,,,,,,,,,,,,90139,001,2022-04-21_16h39.46.351,SPAMnetsValid,2021.1.4,Win32,60.7681089,,,,,,,,,,,,,,,,,,,,,,,,,,,,,,,,,,,,,,,,,,,,,,,,,,,,durag,pillow,10,0,10,0,1,,,,,,,,,,,,,,,,,,,,,,,,,,,,,,,
,,,,,,,,,,,,,,,90139,001,2022-04-21_16h39.46.351,SPAMnetsValid,2021.1.4,Win32,60.7681089,,,,,,,,,,,,,,,,,,,,,,,,,,,,,,,,,,,,,,,,,,,,,,,,,,,,mask,pillow,11,0,11,0,1,,,,,,,,,,,,,,,,,,,,,,,,,,,,,,,
,,,,,,,,,,,,,,,90139,001,2022-04-21_16h39.46.351,SPAMnetsValid,2021.1.4,Win32,60.7681089,,,,,,,,,,,,,,,,,,,,,,,,,,,,,,,,,,,,,,,,,,,,,,,,,,,,,,,,,,,0,2,2,2,1,pillow,,,,,,,,,,,,,,,,,,,,,,,,,
,,,,,,,,,,,,,,,90139,001,2022-04-21_16h39.46.351,SPAMnetsValid,2021.1.4,Win32,60.7681089,,,,,,,,,,,,,,,,,,,,,,,,,,,,,,,,,,,,,,,,,,,,,,,,,,,,,,,,,,,,,,,,,bird,Animals,0,0,0,0,1,,,,,,,,,,,,,,,,,,
,,,,,,,,,,,,,,,90139,001,2022-04-21_16h39.46.351,SPAMnetsValid,2021.1.4,Win32,60.7681089,,,,,,,,,,,,,,,,,,,,,,,,,,,,,,,,,,,,,,,,,,,,,,,,,,,,,,,,,,,,,,,,,dog,Animals,1,0,1,0,1,,,,,,,,,,,,,,,,,,
,,,,,,,,,,,,,,,90139,001,2022-04-21_16h39.46.351,SPAMnetsValid,2021.1.4,Win32,60.7681089,,,,,,,,,,,,,,,,,,,,,,,,,,,,,,,,,,,,,,,,,,,,,,,,,,,,,,,,,,,,,,,,,rabbit,Animals,2,0,2,0,1,,,,,,,,,,,,,,,,,,
,,,,,,,,,,,,,,,90139,001,2022-04-21_16h39.46.351,SPAMnetsValid,2021.1.4,Win32,60.7681089,,,,,,,,,,,,,,,,,,,,,,,,,,,,,,,,,,,,,,,,,,,,,,,,,,,,,,,,,,,,,,,,,tomias striatus,Animals,3,0,3,0,1,,,,,,,,,,,,,,,,,,
,,,,,,,,,,,,,,,90139,001,2022-04-21_16h39.46.351,SPAMnetsValid,2021.1.4,Win32,60.7681089,,,,,,,,,,,,,,,,,,,,,,,,,,,,,,,,,,,,,,,,,,,,,,,,,,,,,,,,,,,,,,,,,sordaria femicola,Animals,4,0,4,0,1,,,,,,,,,,,,,,,,,,
,,,,,,,,,,,,,,,90139,001,2022-04-21_16h39.46.351,SPAMnetsValid,2021.1.4,Win32,60.7681089,,,,,,,,,,,,,,,,,,,,,,,,,,,,,,,,,,,,,,,,,,,,,,,,,,,,,,,,,,,,,,,,,fungi,Animals,5,0,5,0,1,,,,,,,,,,,,,,,,,,
,,,,,,,,,,,,,,,90139,001,2022-04-21_16h39.46.351,SPAMnetsValid,2021.1.4,Win32,60.7681089,,,,,,,,,,,,,,,,,,,,,,,,,,,,,,,,,,,,,,,,,,,,,,,,,,,,,,,,,,,,,,,,,dueterstome,Animals,6,0,6,0,1,,,,,,,,,,,,,,,,,,
,,,,,,,,,,,,,,,90139,001,2022-04-21_16h39.46.351,SPAMnetsValid,2021.1.4,Win32,60.7681089,,,,,,,,,,,,,,,,,,,,,,,,,,,,,,,,,,,,,,,,,,,,,,,,,,,,,,,,,,,,,,,,,star fish,Animals,7,0,7,0,1,,,,,,,,,,,,,,,,,,
,,,,,,,,,,,,,,,90139,001,2022-04-21_16h39.46.351,SPAMnetsValid,2021.1.4,Win32,60.7681089,,,,,,,,,,,,,,,,,,,,,,,,,,,,,,,,,,,,,,,,,,,,,,,,,,,,,,,,,,,,,,,,,worm,Animals,8,0,8,0,1,,,,,,,,,,,,,,,,,,
,,,,,,,,,,,,,,,90139,001,2022-04-21_16h39.46.351,SPAMnetsValid,2021.1.4,Win32,60.7681089,,,,,,,,,,,,,,,,,,,,,,,,,,,,,,,,,,,,,,,,,,,,,,,,,,,,,,,,,,,,,,,,,cat,Animals,9,0,9,0,1,,,,,,,,,,,,,,,,,,
,,,,,,,,,,,,,,,90139,001,2022-04-21_16h39.46.351,SPAMnetsValid,2021.1.4,Win32,60.7681089,,,,,,,,,,,,,,,,,,,,,,,,,,,,,,,,,,,,,,,,,,,,,,,,,,,,,,,,,,,,,,,,,fish,Animals,10,0,10,0,1,,,,,,,,,,,,,,,,,,
,,,,,,,,,,,,,,,90139,001,2022-04-21_16h39.46.351,SPAMnetsValid,2021.1.4,Win32,60.7681089,,,,,,,,,,,,,,,,,,,,,,,,,,,,,,,,,,,,,,,,,,,,,,,,,,,,,,,,,,,,,,,,,dolphin,Animals,11,0,11,0,1,,,,,,,,,,,,,,,,,,
,,,,,,,,,,,,,,,90139,001,2022-04-21_16h39.46.351,SPAMnetsValid,2021.1.4,Win32,60.7681089,,,,,,,,,,,,,,,,,,,,,,,,,,,,,,,,,,,,,,,,,,,,,,,,,,,,,,,,,,,,,,,,,fly,Animals,12,0,12,0,1,,,,,,,,,,,,,,,,,,
,,,,,,,,,,,,,,,90139,001,2022-04-21_16h39.46.351,SPAMnetsValid,2021.1.4,Win32,60.7681089,,,,,,,,,,,,,,,,,,,,,,,,,,,,,,,,,,,,,,,,,,,,,,,,,,,,,,,,,,,,,,,,,whale,Animals,13,0,13,0,1,,,,,,,,,,,,,,,,,,
,,,,,,,,,,,,,,,90139,001,2022-04-21_16h39.46.351,SPAMnetsValid,2021.1.4,Win32,60.7681089,,,,,,,,,,,,,,,,,,,,,,,,,,,,,,,,,,,,,,,,,,,,,,,,,,,,,,,,,,,,,,,,,chimp,Animals,14,0,14,0,1,,,,,,,,,,,,,,,,,,
,,,,,,,,,,,,,,,90139,001,2022-04-21_16h39.46.351,SPAMnetsValid,2021.1.4,Win32,60.7681089,,,,,,,,,,,,,,,,,,,,,,,,,,,,,,,,,,,,,,,,,,,,,,,,,,,,,,,,,,,,,,,,,human,Animals,15,0,15,0,1,,,,,,,,,,,,,,,,,,
,,,,,,,,,,,,,,,90139,001,2022-04-21_16h39.46.351,SPAMnetsValid,2021.1.4,Win32,60.7681089,,,,,,,,,,,,,,,,,,,,,,,,,,,,,,,,,,,,,,,,,,,,,,,,,,,,,,,,,,,,,,,,,panda,Animals,16,0,16,0,1,,,,,,,,,,,,,,,,,,
,,,,,,,,,,,,,,,90139,001,2022-04-21_16h39.46.351,SPAMnetsValid,2021.1.4,Win32,60.7681089,,,,,,,,,,,,,,,,,,,,,,,,,,,,,,,,,,,,,,,,,,,,,,,,,,,,,,,,,,,,,,,,,squirre,Animals,17,0,17,0,1,,,,,,,,,,,,,,,,,,
,,,,,,,,,,,,,,,90139,001,2022-04-21_16h39.46.351,SPAMnetsValid,2021.1.4,Win32,60.7681089,,,,,,,,,,,,,,,,,,,,,,,,,,,,,,,,,,,,,,,,,,,,,,,,,,,,,,,,,,,,,,,,,caterpillar,Animals,18,0,18,0,1,,,,,,,,,,,,,,,,,,
,,,,,,,,,,,,,,,90139,001,2022-04-21_16h39.46.351,SPAMnetsValid,2021.1.4,Win32,60.7681089,,,,,,,,,,,,,,,,,,,,,,,,,,,,,,,,,,,,,,,,,,,,,,,,,,,,,,,,,,,,,,,,,bobcat,Animals,19,0,19,0,1,,,,,,,,,,,,,,,,,,
,,,,,,,,,,,,,,,90139,001,2022-04-21_16h39.46.351,SPAMnetsValid,2021.1.4,Win32,60.7681089,,,,,,,,,,,,,,,,,,,,,,,,,,,,,,,,,,,,,,,,,,,,,,,,,,,,,,,,,,,,,,,,,mountain lion,Animals,20,0,20,0,1,,,,,,,,,,,,,,,,,,
,,,,,,,,,,,,,,,90139,001,2022-04-21_16h39.46.351,SPAMnetsValid,2021.1.4,Win32,60.7681089,,,,,,,,,,,,,,,,,,,,,,,,,,,,,,,,,,,,,,,,,,,,,,,,,,,,,,,,,,,,,,,,,nittany lion,Animals,21,0,21,0,1,,,,,,,,,,,,,,,,,,
,,,,,,,,,,,,,,,90139,001,2022-04-21_16h39.46.351,SPAMnetsValid,2021.1.4,Win32,60.7681089,,,,,,,,,,,,,,,,,,,,,,,,,,,,,,,,,,,,,,,,,,,,,,,,,,,,,,,,,,,,,,,,,lion,Animals,22,0,22,0,1,,,,,,,,,,,,,,,,,,
,,,,,,,,,,,,,,,90139,001,2022-04-21_16h39.46.351,SPAMnetsValid,2021.1.4,Win32,60.7681089,,,,,,,,,,,,,,,,,,,,,,,,,,,,,,,,,,,,,,,,,,,,,,,,,,,,,,,,,,,,,,,,,cheetah,Animals,23,0,23,0,1,,,,,,,,,,,,,,,,,,
,,,,,,,,,,,,,,,90139,001,2022-04-21_16h39.46.351,SPAMnetsValid,2021.1.4,Win32,60.7681089,,,,,,,,,,,,,,,,,,,,,,,,,,,,,,,,,,,,,,,,,,,,,,,,,,,,,,,,,,,,,,,,,salmon,Animals,24,0,24,0,1,,,,,,,,,,,,,,,,,,
,,,,,,,,,,,,,,,90139,001,2022-04-21_16h39.46.351,SPAMnetsValid,2021.1.4,Win32,60.7681089,,,,,,,,,,,,,,,,,,,,,,,,,,,,,,,,,,,,,,,,,,,,,,,,,,,,,,,,,,,,,,,,,tuna,Animals,25,0,25,0,1,,,,,,,,,,,,,,,,,,
,,,,,,,,,,,,,,,90139,001,2022-04-21_16h39.46.351,SPAMnetsValid,2021.1.4,Win32,60.7681089,,,,,,,,,,,,,,,,,,,,,,,,,,,,,,,,,,,,,,,,,,,,,,,,,,,,,,,,,,,,,,,,,pigeon,Animals,26,0,26,0,1,,,,,,,,,,,,,,,,,,
,,,,,,,,,,,,,,,90139,001,2022-04-21_16h39.46.351,SPAMnetsValid,2021.1.4,Win32,60.7681089,,,,,,,,,,,,,,,,,,,,,,,,,,,,,,,,,,,,,,,,,,,,,,,,,,,,,,,,,,,,,,,,,cardinal,Animals,27,0,27,0,1,,,,,,,,,,,,,,,,,,
,,,,,,,,,,,,,,,90139,001,2022-04-21_16h39.46.351,SPAMnetsValid,2021.1.4,Win32,60.7681089,,,,,,,,,,,,,,,,,,,,,,,,,,,,,,,,,,,,,,,,,,,,,,,,,,,,,,,,,,,,,,,,,blue jay,Animals,28,0,28,0,1,,,,,,,,,,,,,,,,,,
,,,,,,,,,,,,,,,90139,001,2022-04-21_16h39.46.351,SPAMnetsValid,2021.1.4,Win32,60.7681089,,,,,,,,,,,,,,,,,,,,,,,,,,,,,,,,,,,,,,,,,,,,,,,,,,,,,,,,,,,,,,,,,,,,,,,,0,0,0,0,1,Animals,,,,,,,,,,,,
,,,,,,,,,,,,,,,90139,001,2022-04-21_16h39.46.351,SPAMnetsValid,2021.1.4,Win32,60.7681089,,,,,,,,,,,,,,,,,,,,,,,,,,,,,,,,,,,,,,,,,,,,,,,,,,,,,,,,,,,,,,,,,,,,,,,,,,,,,,4,5.4483,0,0,0,0,1,"I enjoy concentrating on a fantasy or daydream and exploring all its possibilities, letting it grow and develop.",0,1,,
,,,,,,,,,,,,,,,90139,001,2022-04-21_16h39.46.351,SPAMnetsValid,2021.1.4,Win32,60.7681089,,,,,,,,,,,,,,,,,,,,,,,,,,,,,,,,,,,,,,,,,,,,,,,,,,,,,,,,,,,,,,,,,,,,,,,,,,,,,,5,3.7669,0,1,1,1,1,I think it's interesting to learn and develop new hobbies.,0,2,,
,,,,,,,,,,,,,,,90139,001,2022-04-21_16h39.46.351,SPAMnetsValid,2021.1.4,Win32,60.7681089,,,,,,,,,,,,,,,,,,,,,,,,,,,,,,,,,,,,,,,,,,,,,,,,,,,,,,,,,,,,,,,,,,,,,,,,,,,,,,2,2.743,0,2,2,2,1,I am intrigued by the patterns I find in art and nature.,0,3,,
,,,,,,,,,,,,,,,90139,001,2022-04-21_16h39.46.351,SPAMnetsValid,2021.1.4,Win32,60.7681089,,,,,,,,,,,,,,,,,,,,,,,,,,,,,,,,,,,,,,,,,,,,,,,,,,,,,,,,,,,,,,,,,,,,,,,,,,,,,,1,8.9742,0,3,3,3,1,I believe letting students hear controversial speakers can only confuse and mislead them.,1,4,,
,,,,,,,,,,,,,,,90139,001,2022-04-21_16h39.46.351,SPAMnetsValid,2021.1.4,Win32,60.7681089,,,,,,,,,,,,,,,,,,,,,,,,,,,,,,,,,,,,,,,,,,,,,,,,,,,,,,,,,,,,,,,,,,,,,,,,,,,,,,5,3.155,0,4,4,4,1,Poetry has little or no effect on me.,1,5,,
,,,,,,,,,,,,,,,90139,001,2022-04-21_16h39.46.351,SPAMnetsValid,2021.1.4,Win32,60.7681089,,,,,,,,,,,,,,,,,,,,,,,,,,,,,,,,,,,,,,,,,,,,,,,,,,,,,,,,,,,,,,,,,,,,,,,,,,,,,,2,4.6307,0,5,5,5,1,I would have difficulty just letting my mind wander without control or guidance.,1,6,,
,,,,,,,,,,,,,,,90139,001,2022-04-21_16h39.46.351,SPAMnetsValid,2021.1.4,Win32,60.7681089,,,,,,,,,,,,,,,,,,,,,,,,,,,,,,,,,,,,,,,,,,,,,,,,,,,,,,,,,,,,,,,,,,,,,,,,,,,,,,1,4.4081,0,6,6,6,1,I seldom notice the moods or feelings that different environments produce.,1,7,,
,,,,,,,,,,,,,,,90139,001,2022-04-21_16h39.46.351,SPAMnetsValid,2021.1.4,Win32,60.7681089,,,,,,,,,,,,,,,,,,,,,,,,,,,,,,,,,,,,,,,,,,,,,,,,,,,,,,,,,,,,,,,,,,,,,,,,,,,,,,5,2.4411,0,7,7,7,1,I experience a wide range of emotions or feelings.,0,8,,
,,,,,,,,,,,,,,,90139,001,2022-04-21_16h39.46.351,SPAMnetsValid,2021.1.4,Win32,60.7681089,,,,,,,,,,,,,,,,,,,,,,,,,,,,,,,,,,,,,,,,,,,,,,,,,,,,,,,,,,,,,,,,,,,,,,,,,,,,,,3,4.1103,0,8,8,8,1,"Sometimes when I am reading poetry or looking at a work of art, I feel a chill or wave of excitement.",0,9,,
,,,,,,,,,,,,,,,90139,001,2022-04-21_16h39.46.351,SPAMnetsValid,2021.1.4,Win32,60.7681089,,,,,,,,,,,,,,,,,,,,,,,,,,,,,,,,,,,,,,,,,,,,,,,,,,,,,,,,,,,,,,,,,,,,,,,,,,,,,,2,4.2923,0,9,9,9,1,I have little interest in speculating on the nature of the universe or the human condition.,1,10,,
,,,,,,,,,,,,,,,90139,001,2022-04-21_16h39.46.351,SPAMnetsValid,2021.1.4,Win32,60.7681089,,,,,,,,,,,,,,,,,,,,,,,,,,,,,,,,,,,,,,,,,,,,,,,,,,,,,,,,,,,,,,,,,,,,,,,,,,,,,,5,3.361,0,10,10,10,1,I have a lot of intellectual curiosity.,0,11,,
,,,,,,,,,,,,,,,90139,001,2022-04-21_16h39.46.351,SPAMnetsValid,2021.1.4,Win32,60.7681089,,,,,,,,,,,,,,,,,,,,,,,,,,,,,,,,,,,,,,,,,,,,,,,,,,,,,,,,,,,,,,,,,,,,,,,,,,,,,,4,3.3394,0,11,11,11,1,I often enjoy playing with theories or abstract ideas.,0,12,,
,,,,,,,,,,,,,,,90139,001,2022-04-21_16h39.46.351,SPAMnetsValid,2021.1.4,Win32,60.7681089,,,,,,,,,,,,,,,,,,,,,,,,,,,,,,,,,,,,,,,,,,,,,,,,,,,,,,,,,,,,,,,,,,,,,,,,,,,,,,,,,,,,,,,,return,10.8649
