key_resp_3.keys,key_resp_3.rt,slider_2.response,slider_2.rt,rjt_rating,rjt_RT,trials_24.thisRepN,trials_24.thisTrialN,trials_24.thisN,trials_24.thisIndex,trials_24.ran,rjt_order,word1,word2,attention,participant,session,date,expName,psychopyVersion,OS,frameRate,trials_4.thisRepN,trials_4.thisTrialN,trials_4.thisN,trials_4.thisIndex,trials_4.ran,trials_5.thisRepN,trials_5.thisTrialN,trials_5.thisN,trials_5.thisIndex,trials_5.ran,repOne,repTwo,slider.response,slider.rt,trials_22.thisRepN,trials_22.thisTrialN,trials_22.thisN,trials_22.thisIndex,trials_22.ran,trials_99.thisRepN,trials_99.thisTrialN,trials_99.thisN,trials_99.thisIndex,trials_99.ran,slider_extend_2.response,slider_extend_2.rt,trials_6.thisRepN,trials_6.thisTrialN,trials_6.thisN,trials_6.thisIndex,trials_6.ran,vCue2,R1,R2,R3,R4,correct,sliderVocab.response,sliderVocab.rt,trials_7.thisRepN,trials_7.thisTrialN,trials_7.thisN,trials_7.thisIndex,trials_7.ran,VocabCue,VR1,VR2,VR3,VR4,VR5,VocabCorrect,AUT_resp,AUT_label,trials.thisRepN,trials.thisTrialN,trials.thisN,trials.thisIndex,trials.ran,trials_2.thisRepN,trials_2.thisTrialN,trials_2.thisN,trials_2.thisIndex,trials_2.ran,aut_prompt,VF_response,VF_tag,trials_16.thisRepN,trials_16.thisTrialN,trials_16.thisN,trials_16.thisIndex,trials_16.ran,trials_17.thisRepN,trials_17.thisTrialN,trials_17.thisN,trials_17.thisIndex,trials_17.ran,VFcond,open_slider.response,open_slider.rt,trials_3.thisRepN,trials_3.thisTrialN,trials_3.thisN,trials_3.thisIndex,trials_3.ran,OpenQ,Rev,OPEN_ORDER,key_resp_2.keys,key_resp_2.rt
return,20.0198,2,4.2324,2,4.2324,0,0,0,57,1,127,cactus,chocolate,,90150,001,2022-04-29_14h23.51.996,SPAMnetsValid,2021.1.4,Linux x86_64,60.06366749,,,,,,,,,,,,,,,,,,,,,,,,,,,,,,,,,,,,,,,,,,,,,,,,,,,,,,,,,,,,,,,,,,,,,,,,,,,,,,,,,,,,,,,,,
,,1,2.0779,1,2.0779,0,1,1,51,1,168,cactus,flower,,90150,001,2022-04-29_14h23.51.996,SPAMnetsValid,2021.1.4,Linux x86_64,60.06366749,,,,,,,,,,,,,,,,,,,,,,,,,,,,,,,,,,,,,,,,,,,,,,,,,,,,,,,,,,,,,,,,,,,,,,,,,,,,,,,,,,,,,,,,,
,,1,2.1165,1,2.1165,0,2,2,30,1,125,carrot,tree,,90150,001,2022-04-29_14h23.51.996,SPAMnetsValid,2021.1.4,Linux x86_64,60.06366749,,,,,,,,,,,,,,,,,,,,,,,,,,,,,,,,,,,,,,,,,,,,,,,,,,,,,,,,,,,,,,,,,,,,,,,,,,,,,,,,,,,,,,,,,
,,1,1.0063,1,1.0063,0,3,3,26,1,107,rose,tomato,,90150,001,2022-04-29_14h23.51.996,SPAMnetsValid,2021.1.4,Linux x86_64,60.06366749,,,,,,,,,,,,,,,,,,,,,,,,,,,,,,,,,,,,,,,,,,,,,,,,,,,,,,,,,,,,,,,,,,,,,,,,,,,,,,,,,,,,,,,,,
,,1,0.8539,1,0.8539,0,4,4,73,1,135,carrot,oven,,90150,001,2022-04-29_14h23.51.996,SPAMnetsValid,2021.1.4,Linux x86_64,60.06366749,,,,,,,,,,,,,,,,,,,,,,,,,,,,,,,,,,,,,,,,,,,,,,,,,,,,,,,,,,,,,,,,,,,,,,,,,,,,,,,,,,,,,,,,,
,,1,0.8762,1,0.8762,0,5,5,42,1,184,oven,pretzel,,90150,001,2022-04-29_14h23.51.996,SPAMnetsValid,2021.1.4,Linux x86_64,60.06366749,,,,,,,,,,,,,,,,,,,,,,,,,,,,,,,,,,,,,,,,,,,,,,,,,,,,,,,,,,,,,,,,,,,,,,,,,,,,,,,,,,,,,,,,,
,,1,0.7394,1,0.7394,0,6,6,24,1,169,onion,yogurt,,90150,001,2022-04-29_14h23.51.996,SPAMnetsValid,2021.1.4,Linux x86_64,60.06366749,,,,,,,,,,,,,,,,,,,,,,,,,,,,,,,,,,,,,,,,,,,,,,,,,,,,,,,,,,,,,,,,,,,,,,,,,,,,,,,,,,,,,,,,,
,,1,0.907,1,0.907,0,7,7,50,1,126,kitchen,tree,,90150,001,2022-04-29_14h23.51.996,SPAMnetsValid,2021.1.4,Linux x86_64,60.06366749,,,,,,,,,,,,,,,,,,,,,,,,,,,,,,,,,,,,,,,,,,,,,,,,,,,,,,,,,,,,,,,,,,,,,,,,,,,,,,,,,,,,,,,,,
,,1,0.6606,1,0.6606,0,8,8,23,1,148,flower,melon,,90150,001,2022-04-29_14h23.51.996,SPAMnetsValid,2021.1.4,Linux x86_64,60.06366749,,,,,,,,,,,,,,,,,,,,,,,,,,,,,,,,,,,,,,,,,,,,,,,,,,,,,,,,,,,,,,,,,,,,,,,,,,,,,,,,,,,,,,,,,
,,1,3.174,1,3.174,0,9,9,75,1,178,cactus,carrot,,90150,001,2022-04-29_14h23.51.996,SPAMnetsValid,2021.1.4,Linux x86_64,60.06366749,,,,,,,,,,,,,,,,,,,,,,,,,,,,,,,,,,,,,,,,,,,,,,,,,,,,,,,,,,,,,,,,,,,,,,,,,,,,,,,,,,,,,,,,,
,,1,0.805,1,0.805,0,10,10,13,1,105,cactus,oven,,90150,001,2022-04-29_14h23.51.996,SPAMnetsValid,2021.1.4,Linux x86_64,60.06366749,,,,,,,,,,,,,,,,,,,,,,,,,,,,,,,,,,,,,,,,,,,,,,,,,,,,,,,,,,,,,,,,,,,,,,,,,,,,,,,,,,,,,,,,,
,,1,0.513,1,0.513,0,11,11,61,1,138,flower,rose,,90150,001,2022-04-29_14h23.51.996,SPAMnetsValid,2021.1.4,Linux x86_64,60.06366749,,,,,,,,,,,,,,,,,,,,,,,,,,,,,,,,,,,,,,,,,,,,,,,,,,,,,,,,,,,,,,,,,,,,,,,,,,,,,,,,,,,,,,,,,
,,1,0.4561,1,0.4561,0,12,12,91,1,166,cake,yogurt,,90150,001,2022-04-29_14h23.51.996,SPAMnetsValid,2021.1.4,Linux x86_64,60.06366749,,,,,,,,,,,,,,,,,,,,,,,,,,,,,,,,,,,,,,,,,,,,,,,,,,,,,,,,,,,,,,,,,,,,,,,,,,,,,,,,,,,,,,,,,
,,1,0.4572,1,0.4572,0,13,13,62,1,189,onion,tree,,90150,001,2022-04-29_14h23.51.996,SPAMnetsValid,2021.1.4,Linux x86_64,60.06366749,,,,,,,,,,,,,,,,,,,,,,,,,,,,,,,,,,,,,,,,,,,,,,,,,,,,,,,,,,,,,,,,,,,,,,,,,,,,,,,,,,,,,,,,,
,,1,0.4801,1,0.4801,0,14,14,89,1,140,cookie,refrigerator,,90150,001,2022-04-29_14h23.51.996,SPAMnetsValid,2021.1.4,Linux x86_64,60.06366749,,,,,,,,,,,,,,,,,,,,,,,,,,,,,,,,,,,,,,,,,,,,,,,,,,,,,,,,,,,,,,,,,,,,,,,,,,,,,,,,,,,,,,,,,
,,1,0.4495,1,0.4495,0,15,15,22,1,142,garden,tree,,90150,001,2022-04-29_14h23.51.996,SPAMnetsValid,2021.1.4,Linux x86_64,60.06366749,,,,,,,,,,,,,,,,,,,,,,,,,,,,,,,,,,,,,,,,,,,,,,,,,,,,,,,,,,,,,,,,,,,,,,,,,,,,,,,,,,,,,,,,,
,,1,0.4405,1,0.4405,0,16,16,4,1,109,broom,strawberry,,90150,001,2022-04-29_14h23.51.996,SPAMnetsValid,2021.1.4,Linux x86_64,60.06366749,,,,,,,,,,,,,,,,,,,,,,,,,,,,,,,,,,,,,,,,,,,,,,,,,,,,,,,,,,,,,,,,,,,,,,,,,,,,,,,,,,,,,,,,,
,,1,0.3908,1,0.3908,0,17,17,27,1,158,cookie,oven,,90150,001,2022-04-29_14h23.51.996,SPAMnetsValid,2021.1.4,Linux x86_64,60.06366749,,,,,,,,,,,,,,,,,,,,,,,,,,,,,,,,,,,,,,,,,,,,,,,,,,,,,,,,,,,,,,,,,,,,,,,,,,,,,,,,,,,,,,,,,
,,1,0.4427,1,0.4427,0,18,18,69,1,124,oven,refrigerator,,90150,001,2022-04-29_14h23.51.996,SPAMnetsValid,2021.1.4,Linux x86_64,60.06366749,,,,,,,,,,,,,,,,,,,,,,,,,,,,,,,,,,,,,,,,,,,,,,,,,,,,,,,,,,,,,,,,,,,,,,,,,,,,,,,,,,,,,,,,,
,,1,0.4442,1,0.4442,0,19,19,54,1,101,cactus,kitchen,,90150,001,2022-04-29_14h23.51.996,SPAMnetsValid,2021.1.4,Linux x86_64,60.06366749,,,,,,,,,,,,,,,,,,,,,,,,,,,,,,,,,,,,,,,,,,,,,,,,,,,,,,,,,,,,,,,,,,,,,,,,,,,,,,,,,,,,,,,,,
,,1,0.3963,1,0.3963,0,20,20,17,1,99,garden,melon,,90150,001,2022-04-29_14h23.51.996,SPAMnetsValid,2021.1.4,Linux x86_64,60.06366749,,,,,,,,,,,,,,,,,,,,,,,,,,,,,,,,,,,,,,,,,,,,,,,,,,,,,,,,,,,,,,,,,,,,,,,,,,,,,,,,,,,,,,,,,
,,1,0.2754,1,0.2754,0,21,21,63,1,137,microwave,tree,,90150,001,2022-04-29_14h23.51.996,SPAMnetsValid,2021.1.4,Linux x86_64,60.06366749,,,,,,,,,,,,,,,,,,,,,,,,,,,,,,,,,,,,,,,,,,,,,,,,,,,,,,,,,,,,,,,,,,,,,,,,,,,,,,,,,,,,,,,,,
,,1,0.242,1,0.242,0,22,22,76,1,102,chocolate,refrigerator,,90150,001,2022-04-29_14h23.51.996,SPAMnetsValid,2021.1.4,Linux x86_64,60.06366749,,,,,,,,,,,,,,,,,,,,,,,,,,,,,,,,,,,,,,,,,,,,,,,,,,,,,,,,,,,,,,,,,,,,,,,,,,,,,,,,,,,,,,,,,
,,1,0.2383,1,0.2383,0,23,23,16,1,111,carrot,microwave,,90150,001,2022-04-29_14h23.51.996,SPAMnetsValid,2021.1.4,Linux x86_64,60.06366749,,,,,,,,,,,,,,,,,,,,,,,,,,,,,,,,,,,,,,,,,,,,,,,,,,,,,,,,,,,,,,,,,,,,,,,,,,,,,,,,,,,,,,,,,
,,1,0.2236,1,0.2236,0,24,24,58,1,144,cake,garden,,90150,001,2022-04-29_14h23.51.996,SPAMnetsValid,2021.1.4,Linux x86_64,60.06366749,,,,,,,,,,,,,,,,,,,,,,,,,,,,,,,,,,,,,,,,,,,,,,,,,,,,,,,,,,,,,,,,,,,,,,,,,,,,,,,,,,,,,,,,,
,,1,0.238,1,0.238,0,25,25,20,1,149,broom,tomato,,90150,001,2022-04-29_14h23.51.996,SPAMnetsValid,2021.1.4,Linux x86_64,60.06366749,,,,,,,,,,,,,,,,,,,,,,,,,,,,,,,,,,,,,,,,,,,,,,,,,,,,,,,,,,,,,,,,,,,,,,,,,,,,,,,,,,,,,,,,,
,,1,0.2382,1,0.2382,0,26,26,39,1,112,cake,carrot,,90150,001,2022-04-29_14h23.51.996,SPAMnetsValid,2021.1.4,Linux x86_64,60.06366749,,,,,,,,,,,,,,,,,,,,,,,,,,,,,,,,,,,,,,,,,,,,,,,,,,,,,,,,,,,,,,,,,,,,,,,,,,,,,,,,,,,,,,,,,
,,1,0.2381,1,0.2381,0,27,27,15,1,145,cactus,yogurt,,90150,001,2022-04-29_14h23.51.996,SPAMnetsValid,2021.1.4,Linux x86_64,60.06366749,,,,,,,,,,,,,,,,,,,,,,,,,,,,,,,,,,,,,,,,,,,,,,,,,,,,,,,,,,,,,,,,,,,,,,,,,,,,,,,,,,,,,,,,,
,,1,0.1742,1,0.1742,0,28,28,32,1,182,flower,refrigerator,,90150,001,2022-04-29_14h23.51.996,SPAMnetsValid,2021.1.4,Linux x86_64,60.06366749,,,,,,,,,,,,,,,,,,,,,,,,,,,,,,,,,,,,,,,,,,,,,,,,,,,,,,,,,,,,,,,,,,,,,,,,,,,,,,,,,,,,,,,,,
,,1,0.1403,1,0.1403,0,29,29,65,1,160,cookie,kitchen,,90150,001,2022-04-29_14h23.51.996,SPAMnetsValid,2021.1.4,Linux x86_64,60.06366749,,,,,,,,,,,,,,,,,,,,,,,,,,,,,,,,,,,,,,,,,,,,,,,,,,,,,,,,,,,,,,,,,,,,,,,,,,,,,,,,,,,,,,,,,
,,1,0.2258,1,0.2258,0,30,30,67,1,96,oven,strawberry,,90150,001,2022-04-29_14h23.51.996,SPAMnetsValid,2021.1.4,Linux x86_64,60.06366749,,,,,,,,,,,,,,,,,,,,,,,,,,,,,,,,,,,,,,,,,,,,,,,,,,,,,,,,,,,,,,,,,,,,,,,,,,,,,,,,,,,,,,,,,
,,1,0.1792,1,0.1792,0,31,31,0,1,106,cake,strawberry,,90150,001,2022-04-29_14h23.51.996,SPAMnetsValid,2021.1.4,Linux x86_64,60.06366749,,,,,,,,,,,,,,,,,,,,,,,,,,,,,,,,,,,,,,,,,,,,,,,,,,,,,,,,,,,,,,,,,,,,,,,,,,,,,,,,,,,,,,,,,
,,1,0.1586,1,0.1586,0,32,32,43,1,185,cactus,rose,,90150,001,2022-04-29_14h23.51.996,SPAMnetsValid,2021.1.4,Linux x86_64,60.06366749,,,,,,,,,,,,,,,,,,,,,,,,,,,,,,,,,,,,,,,,,,,,,,,,,,,,,,,,,,,,,,,,,,,,,,,,,,,,,,,,,,,,,,,,,
,,1,0.2036,1,0.2036,0,33,33,45,1,179,broom,oven,,90150,001,2022-04-29_14h23.51.996,SPAMnetsValid,2021.1.4,Linux x86_64,60.06366749,,,,,,,,,,,,,,,,,,,,,,,,,,,,,,,,,,,,,,,,,,,,,,,,,,,,,,,,,,,,,,,,,,,,,,,,,,,,,,,,,,,,,,,,,
,,1,0.159,1,0.159,0,34,34,37,1,139,carrot,strawberry,,90150,001,2022-04-29_14h23.51.996,SPAMnetsValid,2021.1.4,Linux x86_64,60.06366749,,,,,,,,,,,,,,,,,,,,,,,,,,,,,,,,,,,,,,,,,,,,,,,,,,,,,,,,,,,,,,,,,,,,,,,,,,,,,,,,,,,,,,,,,
,,1,0.1761,1,0.1761,0,35,35,3,1,129,cactus,refrigerator,,90150,001,2022-04-29_14h23.51.996,SPAMnetsValid,2021.1.4,Linux x86_64,60.06366749,,,,,,,,,,,,,,,,,,,,,,,,,,,,,,,,,,,,,,,,,,,,,,,,,,,,,,,,,,,,,,,,,,,,,,,,,,,,,,,,,,,,,,,,,
,,1,0.218,1,0.218,0,36,36,72,1,181,carrot,kitchen,,90150,001,2022-04-29_14h23.51.996,SPAMnetsValid,2021.1.4,Linux x86_64,60.06366749,,,,,,,,,,,,,,,,,,,,,,,,,,,,,,,,,,,,,,,,,,,,,,,,,,,,,,,,,,,,,,,,,,,,,,,,,,,,,,,,,,,,,,,,,
,,1,0.1739,1,0.1739,0,37,37,92,1,170,cookie,microwave,,90150,001,2022-04-29_14h23.51.996,SPAMnetsValid,2021.1.4,Linux x86_64,60.06366749,,,,,,,,,,,,,,,,,,,,,,,,,,,,,,,,,,,,,,,,,,,,,,,,,,,,,,,,,,,,,,,,,,,,,,,,,,,,,,,,,,,,,,,,,
,,1,0.1905,1,0.1905,0,38,38,85,1,115,refrigerator,tomato,,90150,001,2022-04-29_14h23.51.996,SPAMnetsValid,2021.1.4,Linux x86_64,60.06366749,,,,,,,,,,,,,,,,,,,,,,,,,,,,,,,,,,,,,,,,,,,,,,,,,,,,,,,,,,,,,,,,,,,,,,,,,,,,,,,,,,,,,,,,,
,,1,0.2061,1,0.2061,0,39,39,46,1,123,cookie,tree,,90150,001,2022-04-29_14h23.51.996,SPAMnetsValid,2021.1.4,Linux x86_64,60.06366749,,,,,,,,,,,,,,,,,,,,,,,,,,,,,,,,,,,,,,,,,,,,,,,,,,,,,,,,,,,,,,,,,,,,,,,,,,,,,,,,,,,,,,,,,
,,1,0.1107,1,0.1107,0,40,40,38,1,155,carrot,cookie,,90150,001,2022-04-29_14h23.51.996,SPAMnetsValid,2021.1.4,Linux x86_64,60.06366749,,,,,,,,,,,,,,,,,,,,,,,,,,,,,,,,,,,,,,,,,,,,,,,,,,,,,,,,,,,,,,,,,,,,,,,,,,,,,,,,,,,,,,,,,
,,1,3.3551,1,3.3551,0,41,41,60,1,122,flower,garden,,90150,001,2022-04-29_14h23.51.996,SPAMnetsValid,2021.1.4,Linux x86_64,60.06366749,,,,,,,,,,,,,,,,,,,,,,,,,,,,,,,,,,,,,,,,,,,,,,,,,,,,,,,,,,,,,,,,,,,,,,,,,,,,,,,,,,,,,,,,,
,,1,0.9066,1,0.9066,0,42,42,21,1,159,cookie,flower,,90150,001,2022-04-29_14h23.51.996,SPAMnetsValid,2021.1.4,Linux x86_64,60.06366749,,,,,,,,,,,,,,,,,,,,,,,,,,,,,,,,,,,,,,,,,,,,,,,,,,,,,,,,,,,,,,,,,,,,,,,,,,,,,,,,,,,,,,,,,
,,1,0.4215,1,0.4215,0,43,43,64,1,157,refrigerator,rose,,90150,001,2022-04-29_14h23.51.996,SPAMnetsValid,2021.1.4,Linux x86_64,60.06366749,,,,,,,,,,,,,,,,,,,,,,,,,,,,,,,,,,,,,,,,,,,,,,,,,,,,,,,,,,,,,,,,,,,,,,,,,,,,,,,,,,,,,,,,,
,,1,0.1764,1,0.1764,0,44,44,9,1,176,cactus,tomato,,90150,001,2022-04-29_14h23.51.996,SPAMnetsValid,2021.1.4,Linux x86_64,60.06366749,,,,,,,,,,,,,,,,,,,,,,,,,,,,,,,,,,,,,,,,,,,,,,,,,,,,,,,,,,,,,,,,,,,,,,,,,,,,,,,,,,,,,,,,,
,,1,0.1747,1,0.1747,0,45,45,36,1,161,kitchen,pretzel,,90150,001,2022-04-29_14h23.51.996,SPAMnetsValid,2021.1.4,Linux x86_64,60.06366749,,,,,,,,,,,,,,,,,,,,,,,,,,,,,,,,,,,,,,,,,,,,,,,,,,,,,,,,,,,,,,,,,,,,,,,,,,,,,,,,,,,,,,,,,
,,1,0.1249,1,0.1249,0,46,46,96,1,136,chocolate,microwave,,90150,001,2022-04-29_14h23.51.996,SPAMnetsValid,2021.1.4,Linux x86_64,60.06366749,,,,,,,,,,,,,,,,,,,,,,,,,,,,,,,,,,,,,,,,,,,,,,,,,,,,,,,,,,,,,,,,,,,,,,,,,,,,,,,,,,,,,,,,,
,,1,0.0678,1,0.0678,0,47,47,56,1,113,refrigerator,strawberry,,90150,001,2022-04-29_14h23.51.996,SPAMnetsValid,2021.1.4,Linux x86_64,60.06366749,,,,,,,,,,,,,,,,,,,,,,,,,,,,,,,,,,,,,,,,,,,,,,,,,,,,,,,,,,,,,,,,,,,,,,,,,,,,,,,,,,,,,,,,,
,,1,0.1158,1,0.1158,0,48,48,1,1,173,kitchen,tomato,,90150,001,2022-04-29_14h23.51.996,SPAMnetsValid,2021.1.4,Linux x86_64,60.06366749,,,,,,,,,,,,,,,,,,,,,,,,,,,,,,,,,,,,,,,,,,,,,,,,,,,,,,,,,,,,,,,,,,,,,,,,,,,,,,,,,,,,,,,,,
,,1,0.0754,1,0.0754,0,49,49,49,1,152,cactus,strawberry,,90150,001,2022-04-29_14h23.51.996,SPAMnetsValid,2021.1.4,Linux x86_64,60.06366749,,,,,,,,,,,,,,,,,,,,,,,,,,,,,,,,,,,,,,,,,,,,,,,,,,,,,,,,,,,,,,,,,,,,,,,,,,,,,,,,,,,,,,,,,
,,1,0.0425,1,0.0425,0,50,50,95,1,121,broom,microwave,,90150,001,2022-04-29_14h23.51.996,SPAMnetsValid,2021.1.4,Linux x86_64,60.06366749,,,,,,,,,,,,,,,,,,,,,,,,,,,,,,,,,,,,,,,,,,,,,,,,,,,,,,,,,,,,,,,,,,,,,,,,,,,,,,,,,,,,,,,,,
,,1,0.2385,1,0.2385,0,51,51,12,1,162,microwave,tomato,,90150,001,2022-04-29_14h23.51.996,SPAMnetsValid,2021.1.4,Linux x86_64,60.06366749,,,,,,,,,,,,,,,,,,,,,,,,,,,,,,,,,,,,,,,,,,,,,,,,,,,,,,,,,,,,,,,,,,,,,,,,,,,,,,,,,,,,,,,,,
,,1,0.1942,1,0.1942,0,52,52,59,1,164,cookie,garden,,90150,001,2022-04-29_14h23.51.996,SPAMnetsValid,2021.1.4,Linux x86_64,60.06366749,,,,,,,,,,,,,,,,,,,,,,,,,,,,,,,,,,,,,,,,,,,,,,,,,,,,,,,,,,,,,,,,,,,,,,,,,,,,,,,,,,,,,,,,,
,,1,0.1292,1,0.1292,0,53,53,68,1,180,tree,yogurt,,90150,001,2022-04-29_14h23.51.996,SPAMnetsValid,2021.1.4,Linux x86_64,60.06366749,,,,,,,,,,,,,,,,,,,,,,,,,,,,,,,,,,,,,,,,,,,,,,,,,,,,,,,,,,,,,,,,,,,,,,,,,,,,,,,,,,,,,,,,,
,,1,0.098,1,0.098,0,54,54,66,1,150,microwave,refrigerator,,90150,001,2022-04-29_14h23.51.996,SPAMnetsValid,2021.1.4,Linux x86_64,60.06366749,,,,,,,,,,,,,,,,,,,,,,,,,,,,,,,,,,,,,,,,,,,,,,,,,,,,,,,,,,,,,,,,,,,,,,,,,,,,,,,,,,,,,,,,,
,,1,0.0748,1,0.0748,0,55,55,93,1,134,carrot,flower,,90150,001,2022-04-29_14h23.51.996,SPAMnetsValid,2021.1.4,Linux x86_64,60.06366749,,,,,,,,,,,,,,,,,,,,,,,,,,,,,,,,,,,,,,,,,,,,,,,,,,,,,,,,,,,,,,,,,,,,,,,,,,,,,,,,,,,,,,,,,
,,1,0.0917,1,0.0917,0,56,56,10,1,118,chocolate,oven,,90150,001,2022-04-29_14h23.51.996,SPAMnetsValid,2021.1.4,Linux x86_64,60.06366749,,,,,,,,,,,,,,,,,,,,,,,,,,,,,,,,,,,,,,,,,,,,,,,,,,,,,,,,,,,,,,,,,,,,,,,,,,,,,,,,,,,,,,,,,
,,1,0.0931,1,0.0931,0,57,57,87,1,114,cookie,strawberry,,90150,001,2022-04-29_14h23.51.996,SPAMnetsValid,2021.1.4,Linux x86_64,60.06366749,,,,,,,,,,,,,,,,,,,,,,,,,,,,,,,,,,,,,,,,,,,,,,,,,,,,,,,,,,,,,,,,,,,,,,,,,,,,,,,,,,,,,,,,,
,,1,0.0628,1,0.0628,0,58,58,84,1,130,microwave,yogurt,,90150,001,2022-04-29_14h23.51.996,SPAMnetsValid,2021.1.4,Linux x86_64,60.06366749,,,,,,,,,,,,,,,,,,,,,,,,,,,,,,,,,,,,,,,,,,,,,,,,,,,,,,,,,,,,,,,,,,,,,,,,,,,,,,,,,,,,,,,,,
,,1,0.0641,1,0.0641,0,59,59,7,1,188,flower,tree,,90150,001,2022-04-29_14h23.51.996,SPAMnetsValid,2021.1.4,Linux x86_64,60.06366749,,,,,,,,,,,,,,,,,,,,,,,,,,,,,,,,,,,,,,,,,,,,,,,,,,,,,,,,,,,,,,,,,,,,,,,,,,,,,,,,,,,,,,,,,
,,1,0.1127,1,0.1127,0,60,60,40,1,165,onion,rose,,90150,001,2022-04-29_14h23.51.996,SPAMnetsValid,2021.1.4,Linux x86_64,60.06366749,,,,,,,,,,,,,,,,,,,,,,,,,,,,,,,,,,,,,,,,,,,,,,,,,,,,,,,,,,,,,,,,,,,,,,,,,,,,,,,,,,,,,,,,,
,,1,0.0805,1,0.0805,0,61,61,79,1,103,pretzel,tomato,,90150,001,2022-04-29_14h23.51.996,SPAMnetsValid,2021.1.4,Linux x86_64,60.06366749,,,,,,,,,,,,,,,,,,,,,,,,,,,,,,,,,,,,,,,,,,,,,,,,,,,,,,,,,,,,,,,,,,,,,,,,,,,,,,,,,,,,,,,,,
,,1,0.1023,1,0.1023,0,62,62,8,1,97,chocolate,kitchen,,90150,001,2022-04-29_14h23.51.996,SPAMnetsValid,2021.1.4,Linux x86_64,60.06366749,,,,,,,,,,,,,,,,,,,,,,,,,,,,,,,,,,,,,,,,,,,,,,,,,,,,,,,,,,,,,,,,,,,,,,,,,,,,,,,,,,,,,,,,,
,,1,0.076,1,0.076,0,63,63,71,1,187,cactus,microwave,,90150,001,2022-04-29_14h23.51.996,SPAMnetsValid,2021.1.4,Linux x86_64,60.06366749,,,,,,,,,,,,,,,,,,,,,,,,,,,,,,,,,,,,,,,,,,,,,,,,,,,,,,,,,,,,,,,,,,,,,,,,,,,,,,,,,,,,,,,,,
,,1,0.0924,1,0.0924,0,64,64,74,1,128,melon,microwave,,90150,001,2022-04-29_14h23.51.996,SPAMnetsValid,2021.1.4,Linux x86_64,60.06366749,,,,,,,,,,,,,,,,,,,,,,,,,,,,,,,,,,,,,,,,,,,,,,,,,,,,,,,,,,,,,,,,,,,,,,,,,,,,,,,,,,,,,,,,,
,,1,0.1223,1,0.1223,0,65,65,70,1,141,melon,tomato,,90150,001,2022-04-29_14h23.51.996,SPAMnetsValid,2021.1.4,Linux x86_64,60.06366749,,,,,,,,,,,,,,,,,,,,,,,,,,,,,,,,,,,,,,,,,,,,,,,,,,,,,,,,,,,,,,,,,,,,,,,,,,,,,,,,,,,,,,,,,
,,1,0.0731,1,0.0731,0,66,66,41,1,175,melon,onion,,90150,001,2022-04-29_14h23.51.996,SPAMnetsValid,2021.1.4,Linux x86_64,60.06366749,,,,,,,,,,,,,,,,,,,,,,,,,,,,,,,,,,,,,,,,,,,,,,,,,,,,,,,,,,,,,,,,,,,,,,,,,,,,,,,,,,,,,,,,,
,,1,0.0535,1,0.0535,0,67,67,25,1,194,cactus,cactus,CHECK,90150,001,2022-04-29_14h23.51.996,SPAMnetsValid,2021.1.4,Linux x86_64,60.06366749,,,,,,,,,,,,,,,,,,,,,,,,,,,,,,,,,,,,,,,,,,,,,,,,,,,,,,,,,,,,,,,,,,,,,,,,,,,,,,,,,,,,,,,,,
,,1,0.0913,1,0.0913,0,68,68,5,1,108,carrot,chocolate,,90150,001,2022-04-29_14h23.51.996,SPAMnetsValid,2021.1.4,Linux x86_64,60.06366749,,,,,,,,,,,,,,,,,,,,,,,,,,,,,,,,,,,,,,,,,,,,,,,,,,,,,,,,,,,,,,,,,,,,,,,,,,,,,,,,,,,,,,,,,
,,1,0.0539,1,0.0539,0,69,69,28,1,154,strawberry,yogurt,,90150,001,2022-04-29_14h23.51.996,SPAMnetsValid,2021.1.4,Linux x86_64,60.06366749,,,,,,,,,,,,,,,,,,,,,,,,,,,,,,,,,,,,,,,,,,,,,,,,,,,,,,,,,,,,,,,,,,,,,,,,,,,,,,,,,,,,,,,,,
,,1,0.1166,1,0.1166,0,70,70,35,1,147,cake,refrigerator,,90150,001,2022-04-29_14h23.51.996,SPAMnetsValid,2021.1.4,Linux x86_64,60.06366749,,,,,,,,,,,,,,,,,,,,,,,,,,,,,,,,,,,,,,,,,,,,,,,,,,,,,,,,,,,,,,,,,,,,,,,,,,,,,,,,,,,,,,,,,
,,1,0.0634,1,0.0634,0,71,71,18,1,119,strawberry,tree,,90150,001,2022-04-29_14h23.51.996,SPAMnetsValid,2021.1.4,Linux x86_64,60.06366749,,,,,,,,,,,,,,,,,,,,,,,,,,,,,,,,,,,,,,,,,,,,,,,,,,,,,,,,,,,,,,,,,,,,,,,,,,,,,,,,,,,,,,,,,
,,1,0.0944,1,0.0944,0,72,72,2,1,174,cake,pretzel,,90150,001,2022-04-29_14h23.51.996,SPAMnetsValid,2021.1.4,Linux x86_64,60.06366749,,,,,,,,,,,,,,,,,,,,,,,,,,,,,,,,,,,,,,,,,,,,,,,,,,,,,,,,,,,,,,,,,,,,,,,,,,,,,,,,,,,,,,,,,
,,1,0.091,1,0.091,0,73,73,80,1,146,pretzel,tree,,90150,001,2022-04-29_14h23.51.996,SPAMnetsValid,2021.1.4,Linux x86_64,60.06366749,,,,,,,,,,,,,,,,,,,,,,,,,,,,,,,,,,,,,,,,,,,,,,,,,,,,,,,,,,,,,,,,,,,,,,,,,,,,,,,,,,,,,,,,,
,,1,0.1046,1,0.1046,0,74,74,81,1,104,garden,microwave,,90150,001,2022-04-29_14h23.51.996,SPAMnetsValid,2021.1.4,Linux x86_64,60.06366749,,,,,,,,,,,,,,,,,,,,,,,,,,,,,,,,,,,,,,,,,,,,,,,,,,,,,,,,,,,,,,,,,,,,,,,,,,,,,,,,,,,,,,,,,
,,1,0.0622,1,0.0622,0,75,75,82,1,98,pretzel,strawberry,,90150,001,2022-04-29_14h23.51.996,SPAMnetsValid,2021.1.4,Linux x86_64,60.06366749,,,,,,,,,,,,,,,,,,,,,,,,,,,,,,,,,,,,,,,,,,,,,,,,,,,,,,,,,,,,,,,,,,,,,,,,,,,,,,,,,,,,,,,,,
,,1,0.0887,1,0.0887,0,76,76,29,1,163,melon,refrigerator,,90150,001,2022-04-29_14h23.51.996,SPAMnetsValid,2021.1.4,Linux x86_64,60.06366749,,,,,,,,,,,,,,,,,,,,,,,,,,,,,,,,,,,,,,,,,,,,,,,,,,,,,,,,,,,,,,,,,,,,,,,,,,,,,,,,,,,,,,,,,
,,1,0.0558,1,0.0558,0,77,77,53,1,177,chocolate,strawberry,,90150,001,2022-04-29_14h23.51.996,SPAMnetsValid,2021.1.4,Linux x86_64,60.06366749,,,,,,,,,,,,,,,,,,,,,,,,,,,,,,,,,,,,,,,,,,,,,,,,,,,,,,,,,,,,,,,,,,,,,,,,,,,,,,,,,,,,,,,,,
,,1,0.0742,1,0.0742,0,78,78,78,1,132,broom,tree,,90150,001,2022-04-29_14h23.51.996,SPAMnetsValid,2021.1.4,Linux x86_64,60.06366749,,,,,,,,,,,,,,,,,,,,,,,,,,,,,,,,,,,,,,,,,,,,,,,,,,,,,,,,,,,,,,,,,,,,,,,,,,,,,,,,,,,,,,,,,
,,1,0.1237,1,0.1237,0,79,79,90,1,190,microwave,strawberry,,90150,001,2022-04-29_14h23.51.996,SPAMnetsValid,2021.1.4,Linux x86_64,60.06366749,,,,,,,,,,,,,,,,,,,,,,,,,,,,,,,,,,,,,,,,,,,,,,,,,,,,,,,,,,,,,,,,,,,,,,,,,,,,,,,,,,,,,,,,,
,,1,0.0906,1,0.0906,0,80,80,34,1,153,carrot,pretzel,,90150,001,2022-04-29_14h23.51.996,SPAMnetsValid,2021.1.4,Linux x86_64,60.06366749,,,,,,,,,,,,,,,,,,,,,,,,,,,,,,,,,,,,,,,,,,,,,,,,,,,,,,,,,,,,,,,,,,,,,,,,,,,,,,,,,,,,,,,,,
,,1,0.1055,1,0.1055,0,81,81,47,1,167,carrot,garden,,90150,001,2022-04-29_14h23.51.996,SPAMnetsValid,2021.1.4,Linux x86_64,60.06366749,,,,,,,,,,,,,,,,,,,,,,,,,,,,,,,,,,,,,,,,,,,,,,,,,,,,,,,,,,,,,,,,,,,,,,,,,,,,,,,,,,,,,,,,,
,,1,0.0589,1,0.0589,0,82,82,14,1,120,microwave,oven,,90150,001,2022-04-29_14h23.51.996,SPAMnetsValid,2021.1.4,Linux x86_64,60.06366749,,,,,,,,,,,,,,,,,,,,,,,,,,,,,,,,,,,,,,,,,,,,,,,,,,,,,,,,,,,,,,,,,,,,,,,,,,,,,,,,,,,,,,,,,
,,1,0.1033,1,0.1033,0,83,83,86,1,193,melon,melon,CHECK,90150,001,2022-04-29_14h23.51.996,SPAMnetsValid,2021.1.4,Linux x86_64,60.06366749,,,,,,,,,,,,,,,,,,,,,,,,,,,,,,,,,,,,,,,,,,,,,,,,,,,,,,,,,,,,,,,,,,,,,,,,,,,,,,,,,,,,,,,,,
,,1,0.117,1,0.117,0,84,84,88,1,171,cake,tomato,,90150,001,2022-04-29_14h23.51.996,SPAMnetsValid,2021.1.4,Linux x86_64,60.06366749,,,,,,,,,,,,,,,,,,,,,,,,,,,,,,,,,,,,,,,,,,,,,,,,,,,,,,,,,,,,,,,,,,,,,,,,,,,,,,,,,,,,,,,,,
,,1,0.1133,1,0.1133,0,85,85,52,1,110,chocolate,cookie,,90150,001,2022-04-29_14h23.51.996,SPAMnetsValid,2021.1.4,Linux x86_64,60.06366749,,,,,,,,,,,,,,,,,,,,,,,,,,,,,,,,,,,,,,,,,,,,,,,,,,,,,,,,,,,,,,,,,,,,,,,,,,,,,,,,,,,,,,,,,
,,1,0.1063,1,0.1063,0,86,86,11,1,117,melon,strawberry,,90150,001,2022-04-29_14h23.51.996,SPAMnetsValid,2021.1.4,Linux x86_64,60.06366749,,,,,,,,,,,,,,,,,,,,,,,,,,,,,,,,,,,,,,,,,,,,,,,,,,,,,,,,,,,,,,,,,,,,,,,,,,,,,,,,,,,,,,,,,
,,1,0.1038,1,0.1038,0,87,87,6,1,151,microwave,onion,,90150,001,2022-04-29_14h23.51.996,SPAMnetsValid,2021.1.4,Linux x86_64,60.06366749,,,,,,,,,,,,,,,,,,,,,,,,,,,,,,,,,,,,,,,,,,,,,,,,,,,,,,,,,,,,,,,,,,,,,,,,,,,,,,,,,,,,,,,,,
,,1,0.1107,1,0.1107,0,88,88,19,1,183,cake,rose,,90150,001,2022-04-29_14h23.51.996,SPAMnetsValid,2021.1.4,Linux x86_64,60.06366749,,,,,,,,,,,,,,,,,,,,,,,,,,,,,,,,,,,,,,,,,,,,,,,,,,,,,,,,,,,,,,,,,,,,,,,,,,,,,,,,,,,,,,,,,
,,1,0.0835,1,0.0835,0,89,89,44,1,116,cake,chocolate,,90150,001,2022-04-29_14h23.51.996,SPAMnetsValid,2021.1.4,Linux x86_64,60.06366749,,,,,,,,,,,,,,,,,,,,,,,,,,,,,,,,,,,,,,,,,,,,,,,,,,,,,,,,,,,,,,,,,,,,,,,,,,,,,,,,,,,,,,,,,
,,1,0.0586,1,0.0586,0,90,90,33,1,131,cactus,garden,,90150,001,2022-04-29_14h23.51.996,SPAMnetsValid,2021.1.4,Linux x86_64,60.06366749,,,,,,,,,,,,,,,,,,,,,,,,,,,,,,,,,,,,,,,,,,,,,,,,,,,,,,,,,,,,,,,,,,,,,,,,,,,,,,,,,,,,,,,,,
,,1,0.0888,1,0.0888,0,91,91,83,1,100,garden,tomato,,90150,001,2022-04-29_14h23.51.996,SPAMnetsValid,2021.1.4,Linux x86_64,60.06366749,,,,,,,,,,,,,,,,,,,,,,,,,,,,,,,,,,,,,,,,,,,,,,,,,,,,,,,,,,,,,,,,,,,,,,,,,,,,,,,,,,,,,,,,,
,,1,0.0853,1,0.0853,0,92,92,94,1,133,cake,flower,,90150,001,2022-04-29_14h23.51.996,SPAMnetsValid,2021.1.4,Linux x86_64,60.06366749,,,,,,,,,,,,,,,,,,,,,,,,,,,,,,,,,,,,,,,,,,,,,,,,,,,,,,,,,,,,,,,,,,,,,,,,,,,,,,,,,,,,,,,,,
,,1,0.0846,1,0.0846,0,93,93,31,1,156,melon,rose,,90150,001,2022-04-29_14h23.51.996,SPAMnetsValid,2021.1.4,Linux x86_64,60.06366749,,,,,,,,,,,,,,,,,,,,,,,,,,,,,,,,,,,,,,,,,,,,,,,,,,,,,,,,,,,,,,,,,,,,,,,,,,,,,,,,,,,,,,,,,
,,1,0.0546,1,0.0546,0,94,94,77,1,172,kitchen,melon,,90150,001,2022-04-29_14h23.51.996,SPAMnetsValid,2021.1.4,Linux x86_64,60.06366749,,,,,,,,,,,,,,,,,,,,,,,,,,,,,,,,,,,,,,,,,,,,,,,,,,,,,,,,,,,,,,,,,,,,,,,,,,,,,,,,,,,,,,,,,
,,1,0.0872,1,0.0872,0,95,95,48,1,186,kitchen,yogurt,,90150,001,2022-04-29_14h23.51.996,SPAMnetsValid,2021.1.4,Linux x86_64,60.06366749,,,,,,,,,,,,,,,,,,,,,,,,,,,,,,,,,,,,,,,,,,,,,,,,,,,,,,,,,,,,,,,,,,,,,,,,,,,,,,,,,,,,,,,,,
,,1,0.0864,1,0.0864,0,96,96,55,1,143,pretzel,rose,,90150,001,2022-04-29_14h23.51.996,SPAMnetsValid,2021.1.4,Linux x86_64,60.06366749,,,,,,,,,,,,,,,,,,,,,,,,,,,,,,,,,,,,,,,,,,,,,,,,,,,,,,,,,,,,,,,,,,,,,,,,,,,,,,,,,,,,,,,,,
,,,,,,,,,,,,,,,90150,001,2022-04-29_14h23.51.996,SPAMnetsValid,2021.1.4,Linux x86_64,60.06366749,0,0,0,0,1,,,,,,,,,,,,,,,,,,,,,,,,,,,,,,,,,,,,,,,,,,,,,,,,,,,,,,,,,,,,,,,,,,,,,,,,,,,,,,,,,,,,
,,,,,,,,,,,,,,,90150,001,2022-04-29_14h23.51.996,SPAMnetsValid,2021.1.4,Linux x86_64,60.06366749,,,,,,0,0,0,1,1,0,1,,,,,,,,,,,,,,,,,,,,,,,,,,,,,,,,,,,,,,,,,,,,,,,,,,,,,,,,,,,,,,,,,,,,,,,,,,,,,
,,,,1,2.9585,,,,,,43,chocolate,tomato,,90150,001,2022-04-29_14h23.51.996,SPAMnetsValid,2021.1.4,Linux x86_64,60.06366749,,,,,,,,,,,,,1,2.9585,0,0,0,8,1,,,,,,,,,,,,,,,,,,,,,,,,,,,,,,,,,,,,,,,,,,,,,,,,,,,,,,,,,,,,,,,,,,,,,,
,,,,1,0.6536,,,,,,44,cookie,melon,,90150,001,2022-04-29_14h23.51.996,SPAMnetsValid,2021.1.4,Linux x86_64,60.06366749,,,,,,,,,,,,,1,0.6536,0,1,1,92,1,,,,,,,,,,,,,,,,,,,,,,,,,,,,,,,,,,,,,,,,,,,,,,,,,,,,,,,,,,,,,,,,,,,,,,
,,,,1,0.457,,,,,,40,broom,cake,,90150,001,2022-04-29_14h23.51.996,SPAMnetsValid,2021.1.4,Linux x86_64,60.06366749,,,,,,,,,,,,,1,0.457,0,2,2,32,1,,,,,,,,,,,,,,,,,,,,,,,,,,,,,,,,,,,,,,,,,,,,,,,,,,,,,,,,,,,,,,,,,,,,,,
,,,,1,0.1074,,,,,,95,broom,refrigerator,,90150,001,2022-04-29_14h23.51.996,SPAMnetsValid,2021.1.4,Linux x86_64,60.06366749,,,,,,,,,,,,,1,0.1074,0,3,3,90,1,,,,,,,,,,,,,,,,,,,,,,,,,,,,,,,,,,,,,,,,,,,,,,,,,,,,,,,,,,,,,,,,,,,,,,
,,,,1,0.0583,,,,,,22,kitchen,strawberry,,90150,001,2022-04-29_14h23.51.996,SPAMnetsValid,2021.1.4,Linux x86_64,60.06366749,,,,,,,,,,,,,1,0.0583,0,4,4,2,1,,,,,,,,,,,,,,,,,,,,,,,,,,,,,,,,,,,,,,,,,,,,,,,,,,,,,,,,,,,,,,,,,,,,,,
,,,,1,0.0636,,,,,,83,broom,carrot,,90150,001,2022-04-29_14h23.51.996,SPAMnetsValid,2021.1.4,Linux x86_64,60.06366749,,,,,,,,,,,,,1,0.0636,0,5,5,4,1,,,,,,,,,,,,,,,,,,,,,,,,,,,,,,,,,,,,,,,,,,,,,,,,,,,,,,,,,,,,,,,,,,,,,,
,,,,1,0.0778,,,,,,57,flower,kitchen,,90150,001,2022-04-29_14h23.51.996,SPAMnetsValid,2021.1.4,Linux x86_64,60.06366749,,,,,,,,,,,,,1,0.0778,0,6,6,49,1,,,,,,,,,,,,,,,,,,,,,,,,,,,,,,,,,,,,,,,,,,,,,,,,,,,,,,,,,,,,,,,,,,,,,,
,,,,1,0.0441,,,,,,91,microwave,rose,,90150,001,2022-04-29_14h23.51.996,SPAMnetsValid,2021.1.4,Linux x86_64,60.06366749,,,,,,,,,,,,,1,0.0441,0,7,7,84,1,,,,,,,,,,,,,,,,,,,,,,,,,,,,,,,,,,,,,,,,,,,,,,,,,,,,,,,,,,,,,,,,,,,,,,
,,,,1,0.0486,,,,,,61,strawberry,tomato,,90150,001,2022-04-29_14h23.51.996,SPAMnetsValid,2021.1.4,Linux x86_64,60.06366749,,,,,,,,,,,,,1,0.0486,0,8,8,80,1,,,,,,,,,,,,,,,,,,,,,,,,,,,,,,,,,,,,,,,,,,,,,,,,,,,,,,,,,,,,,,,,,,,,,,
,,,,1,0.0675,,,,,,85,cake,tree,,90150,001,2022-04-29_14h23.51.996,SPAMnetsValid,2021.1.4,Linux x86_64,60.06366749,,,,,,,,,,,,,1,0.0675,0,9,9,18,1,,,,,,,,,,,,,,,,,,,,,,,,,,,,,,,,,,,,,,,,,,,,,,,,,,,,,,,,,,,,,,,,,,,,,,
,,,,1,0.0935,,,,,,47,onion,tomato,,90150,001,2022-04-29_14h23.51.996,SPAMnetsValid,2021.1.4,Linux x86_64,60.06366749,,,,,,,,,,,,,1,0.0935,0,10,10,51,1,,,,,,,,,,,,,,,,,,,,,,,,,,,,,,,,,,,,,,,,,,,,,,,,,,,,,,,,,,,,,,,,,,,,,,
,,,,1,0.072,,,,,,89,chocolate,rose,,90150,001,2022-04-29_14h23.51.996,SPAMnetsValid,2021.1.4,Linux x86_64,60.06366749,,,,,,,,,,,,,1,0.072,0,11,11,60,1,,,,,,,,,,,,,,,,,,,,,,,,,,,,,,,,,,,,,,,,,,,,,,,,,,,,,,,,,,,,,,,,,,,,,,
,,,,1,0.1007,,,,,,46,garden,yogurt,,90150,001,2022-04-29_14h23.51.996,SPAMnetsValid,2021.1.4,Linux x86_64,60.06366749,,,,,,,,,,,,,1,0.1007,0,12,12,65,1,,,,,,,,,,,,,,,,,,,,,,,,,,,,,,,,,,,,,,,,,,,,,,,,,,,,,,,,,,,,,,,,,,,,,,
,,,,1,0.092,,,,,,80,chocolate,tree,,90150,001,2022-04-29_14h23.51.996,SPAMnetsValid,2021.1.4,Linux x86_64,60.06366749,,,,,,,,,,,,,1,0.092,0,13,13,89,1,,,,,,,,,,,,,,,,,,,,,,,,,,,,,,,,,,,,,,,,,,,,,,,,,,,,,,,,,,,,,,,,,,,,,,
,,,,1,0.0683,,,,,,84,oven,tomato,,90150,001,2022-04-29_14h23.51.996,SPAMnetsValid,2021.1.4,Linux x86_64,60.06366749,,,,,,,,,,,,,1,0.0683,0,14,14,28,1,,,,,,,,,,,,,,,,,,,,,,,,,,,,,,,,,,,,,,,,,,,,,,,,,,,,,,,,,,,,,,,,,,,,,,
,,,,1,0.0983,,,,,,35,flower,pretzel,,90150,001,2022-04-29_14h23.51.996,SPAMnetsValid,2021.1.4,Linux x86_64,60.06366749,,,,,,,,,,,,,1,0.0983,0,15,15,26,1,,,,,,,,,,,,,,,,,,,,,,,,,,,,,,,,,,,,,,,,,,,,,,,,,,,,,,,,,,,,,,,,,,,,,,
,,,,1,0.0955,,,,,,41,broom,cactus,,90150,001,2022-04-29_14h23.51.996,SPAMnetsValid,2021.1.4,Linux x86_64,60.06366749,,,,,,,,,,,,,1,0.0955,0,16,16,46,1,,,,,,,,,,,,,,,,,,,,,,,,,,,,,,,,,,,,,,,,,,,,,,,,,,,,,,,,,,,,,,,,,,,,,,
,,,,1,0.0902,,,,,,3,cake,oven,,90150,001,2022-04-29_14h23.51.996,SPAMnetsValid,2021.1.4,Linux x86_64,60.06366749,,,,,,,,,,,,,1,0.0902,0,17,17,30,1,,,,,,,,,,,,,,,,,,,,,,,,,,,,,,,,,,,,,,,,,,,,,,,,,,,,,,,,,,,,,,,,,,,,,,
,,,,1,0.1084,,,,,,55,tomato,tree,,90150,001,2022-04-29_14h23.51.996,SPAMnetsValid,2021.1.4,Linux x86_64,60.06366749,,,,,,,,,,,,,1,0.1084,0,18,18,35,1,,,,,,,,,,,,,,,,,,,,,,,,,,,,,,,,,,,,,,,,,,,,,,,,,,,,,,,,,,,,,,,,,,,,,,
,,,,1,0.4894,,,,,,62,kitchen,rose,,90150,001,2022-04-29_14h23.51.996,SPAMnetsValid,2021.1.4,Linux x86_64,60.06366749,,,,,,,,,,,,,1,0.4894,0,19,19,57,1,,,,,,,,,,,,,,,,,,,,,,,,,,,,,,,,,,,,,,,,,,,,,,,,,,,,,,,,,,,,,,,,,,,,,,
,,,,1,0.0238,,,,,,86,oven,rose,,90150,001,2022-04-29_14h23.51.996,SPAMnetsValid,2021.1.4,Linux x86_64,60.06366749,,,,,,,,,,,,,1,0.0238,0,20,20,79,1,,,,,,,,,,,,,,,,,,,,,,,,,,,,,,,,,,,,,,,,,,,,,,,,,,,,,,,,,,,,,,,,,,,,,,
,,,,1,0.0569,,,,,,54,chocolate,yogurt,,90150,001,2022-04-29_14h23.51.996,SPAMnetsValid,2021.1.4,Linux x86_64,60.06366749,,,,,,,,,,,,,1,0.0569,0,21,21,67,1,,,,,,,,,,,,,,,,,,,,,,,,,,,,,,,,,,,,,,,,,,,,,,,,,,,,,,,,,,,,,,,,,,,,,,
,,,,1,0.0996,,,,,,74,broom,pretzel,,90150,001,2022-04-29_14h23.51.996,SPAMnetsValid,2021.1.4,Linux x86_64,60.06366749,,,,,,,,,,,,,1,0.0996,0,22,22,40,1,,,,,,,,,,,,,,,,,,,,,,,,,,,,,,,,,,,,,,,,,,,,,,,,,,,,,,,,,,,,,,,,,,,,,,
,,,,1,0.2075,,,,,,23,flower,microwave,,90150,001,2022-04-29_14h23.51.996,SPAMnetsValid,2021.1.4,Linux x86_64,60.06366749,,,,,,,,,,,,,1,0.2075,0,23,23,25,1,,,,,,,,,,,,,,,,,,,,,,,,,,,,,,,,,,,,,,,,,,,,,,,,,,,,,,,,,,,,,,,,,,,,,,
,,,,1,0.0638,,,,,,7,melon,tree,,90150,001,2022-04-29_14h23.51.996,SPAMnetsValid,2021.1.4,Linux x86_64,60.06366749,,,,,,,,,,,,,1,0.0638,0,24,24,77,1,,,,,,,,,,,,,,,,,,,,,,,,,,,,,,,,,,,,,,,,,,,,,,,,,,,,,,,,,,,,,,,,,,,,,,
,,,,1,0.0794,,,,,,30,cookie,pretzel,,90150,001,2022-04-29_14h23.51.996,SPAMnetsValid,2021.1.4,Linux x86_64,60.06366749,,,,,,,,,,,,,1,0.0794,0,25,25,78,1,,,,,,,,,,,,,,,,,,,,,,,,,,,,,,,,,,,,,,,,,,,,,,,,,,,,,,,,,,,,,,,,,,,,,,
,,,,1,0.0581,,,,,,16,chocolate,flower,,90150,001,2022-04-29_14h23.51.996,SPAMnetsValid,2021.1.4,Linux x86_64,60.06366749,,,,,,,,,,,,,1,0.0581,0,26,26,22,1,,,,,,,,,,,,,,,,,,,,,,,,,,,,,,,,,,,,,,,,,,,,,,,,,,,,,,,,,,,,,,,,,,,,,,
,,,,1,0.1095,,,,,,15,onion,oven,,90150,001,2022-04-29_14h23.51.996,SPAMnetsValid,2021.1.4,Linux x86_64,60.06366749,,,,,,,,,,,,,1,0.1095,0,27,27,39,1,,,,,,,,,,,,,,,,,,,,,,,,,,,,,,,,,,,,,,,,,,,,,,,,,,,,,,,,,,,,,,,,,,,,,,
,,,,1,0.0761,,,,,,2,kitchen,onion,,90150,001,2022-04-29_14h23.51.996,SPAMnetsValid,2021.1.4,Linux x86_64,60.06366749,,,,,,,,,,,,,1,0.0761,0,28,28,91,1,,,,,,,,,,,,,,,,,,,,,,,,,,,,,,,,,,,,,,,,,,,,,,,,,,,,,,,,,,,,,,,,,,,,,,
,,,,1,0.1085,,,,,,68,flower,tomato,,90150,001,2022-04-29_14h23.51.996,SPAMnetsValid,2021.1.4,Linux x86_64,60.06366749,,,,,,,,,,,,,1,0.1085,0,29,29,94,1,,,,,,,,,,,,,,,,,,,,,,,,,,,,,,,,,,,,,,,,,,,,,,,,,,,,,,,,,,,,,,,,,,,,,,
,,,,1,0.0576,,,,,,37,garden,refrigerator,,90150,001,2022-04-29_14h23.51.996,SPAMnetsValid,2021.1.4,Linux x86_64,60.06366749,,,,,,,,,,,,,1,0.0576,0,30,30,11,1,,,,,,,,,,,,,,,,,,,,,,,,,,,,,,,,,,,,,,,,,,,,,,,,,,,,,,,,,,,,,,,,,,,,,,
,,,,1,0.1045,,,,,,28,cake,melon,,90150,001,2022-04-29_14h23.51.996,SPAMnetsValid,2021.1.4,Linux x86_64,60.06366749,,,,,,,,,,,,,1,0.1045,0,31,31,54,1,,,,,,,,,,,,,,,,,,,,,,,,,,,,,,,,,,,,,,,,,,,,,,,,,,,,,,,,,,,,,,,,,,,,,,
,,,,1,0.1144,,,,,,21,cake,onion,,90150,001,2022-04-29_14h23.51.996,SPAMnetsValid,2021.1.4,Linux x86_64,60.06366749,,,,,,,,,,,,,1,0.1144,0,32,32,63,1,,,,,,,,,,,,,,,,,,,,,,,,,,,,,,,,,,,,,,,,,,,,,,,,,,,,,,,,,,,,,,,,,,,,,,
,,,,1,0.0863,,,,,,53,garden,pretzel,,90150,001,2022-04-29_14h23.51.996,SPAMnetsValid,2021.1.4,Linux x86_64,60.06366749,,,,,,,,,,,,,1,0.0863,0,33,33,0,1,,,,,,,,,,,,,,,,,,,,,,,,,,,,,,,,,,,,,,,,,,,,,,,,,,,,,,,,,,,,,,,,,,,,,,
,,,,1,0.0719,,,,,,65,broom,garden,,90150,001,2022-04-29_14h23.51.996,SPAMnetsValid,2021.1.4,Linux x86_64,60.06366749,,,,,,,,,,,,,1,0.0719,0,34,34,23,1,,,,,,,,,,,,,,,,,,,,,,,,,,,,,,,,,,,,,,,,,,,,,,,,,,,,,,,,,,,,,,,,,,,,,,
,,,,1,0.0913,,,,,,25,carrot,onion,,90150,001,2022-04-29_14h23.51.996,SPAMnetsValid,2021.1.4,Linux x86_64,60.06366749,,,,,,,,,,,,,1,0.0913,0,35,35,44,1,,,,,,,,,,,,,,,,,,,,,,,,,,,,,,,,,,,,,,,,,,,,,,,,,,,,,,,,,,,,,,,,,,,,,,
,,,,1,0.109,,,,,,73,broom,chocolate,,90150,001,2022-04-29_14h23.51.996,SPAMnetsValid,2021.1.4,Linux x86_64,60.06366749,,,,,,,,,,,,,1,0.109,0,36,36,47,1,,,,,,,,,,,,,,,,,,,,,,,,,,,,,,,,,,,,,,,,,,,,,,,,,,,,,,,,,,,,,,,,,,,,,,
,,,,1,0.0694,,,,,,17,carrot,melon,,90150,001,2022-04-29_14h23.51.996,SPAMnetsValid,2021.1.4,Linux x86_64,60.06366749,,,,,,,,,,,,,1,0.0694,0,37,37,24,1,,,,,,,,,,,,,,,,,,,,,,,,,,,,,,,,,,,,,,,,,,,,,,,,,,,,,,,,,,,,,,,,,,,,,,
,,,,1,0.1105,,,,,,70,chocolate,onion,,90150,001,2022-04-29_14h23.51.996,SPAMnetsValid,2021.1.4,Linux x86_64,60.06366749,,,,,,,,,,,,,1,0.1105,0,38,38,74,1,,,,,,,,,,,,,,,,,,,,,,,,,,,,,,,,,,,,,,,,,,,,,,,,,,,,,,,,,,,,,,,,,,,,,,
,,,,1,0.0989,,,,,,58,garden,oven,,90150,001,2022-04-29_14h23.51.996,SPAMnetsValid,2021.1.4,Linux x86_64,60.06366749,,,,,,,,,,,,,1,0.0989,0,39,39,37,1,,,,,,,,,,,,,,,,,,,,,,,,,,,,,,,,,,,,,,,,,,,,,,,,,,,,,,,,,,,,,,,,,,,,,,
,,,,1,0.0868,,,,,,6,garden,onion,,90150,001,2022-04-29_14h23.51.996,SPAMnetsValid,2021.1.4,Linux x86_64,60.06366749,,,,,,,,,,,,,1,0.0868,0,40,40,83,1,,,,,,,,,,,,,,,,,,,,,,,,,,,,,,,,,,,,,,,,,,,,,,,,,,,,,,,,,,,,,,,,,,,,,,
,,,,1,0.0723,,,,,,29,chocolate,melon,,90150,001,2022-04-29_14h23.51.996,SPAMnetsValid,2021.1.4,Linux x86_64,60.06366749,,,,,,,,,,,,,1,0.0723,0,41,41,34,1,,,,,,,,,,,,,,,,,,,,,,,,,,,,,,,,,,,,,,,,,,,,,,,,,,,,,,,,,,,,,,,,,,,,,,
,,,,1,0.1285,,,,,,18,onion,refrigerator,,90150,001,2022-04-29_14h23.51.996,SPAMnetsValid,2021.1.4,Linux x86_64,60.06366749,,,,,,,,,,,,,1,0.1285,0,42,42,62,1,,,,,,,,,,,,,,,,,,,,,,,,,,,,,,,,,,,,,,,,,,,,,,,,,,,,,,,,,,,,,,,,,,,,,,
,,,,1,0.1246,,,,,,82,cake,kitchen,,90150,001,2022-04-29_14h23.51.996,SPAMnetsValid,2021.1.4,Linux x86_64,60.06366749,,,,,,,,,,,,,1,0.1246,0,43,43,96,1,,,,,,,,,,,,,,,,,,,,,,,,,,,,,,,,,,,,,,,,,,,,,,,,,,,,,,,,,,,,,,,,,,,,,,
,,,,1,0.1238,,,,,,192,microwave,microwave,CHECK,90150,001,2022-04-29_14h23.51.996,SPAMnetsValid,2021.1.4,Linux x86_64,60.06366749,,,,,,,,,,,,,1,0.1238,0,44,44,53,1,,,,,,,,,,,,,,,,,,,,,,,,,,,,,,,,,,,,,,,,,,,,,,,,,,,,,,,,,,,,,,,,,,,,,,
,,,,1,0.102,,,,,,49,flower,strawberry,,90150,001,2022-04-29_14h23.51.996,SPAMnetsValid,2021.1.4,Linux x86_64,60.06366749,,,,,,,,,,,,,1,0.102,0,45,45,3,1,,,,,,,,,,,,,,,,,,,,,,,,,,,,,,,,,,,,,,,,,,,,,,,,,,,,,,,,,,,,,,,,,,,,,,
,,,,1,0.3273,,,,,,56,cactus,tree,,90150,001,2022-04-29_14h23.51.996,SPAMnetsValid,2021.1.4,Linux x86_64,60.06366749,,,,,,,,,,,,,1,0.3273,0,46,46,21,1,,,,,,,,,,,,,,,,,,,,,,,,,,,,,,,,,,,,,,,,,,,,,,,,,,,,,,,,,,,,,,,,,,,,,,
,,,,1,0.0855,,,,,,93,kitchen,oven,,90150,001,2022-04-29_14h23.51.996,SPAMnetsValid,2021.1.4,Linux x86_64,60.06366749,,,,,,,,,,,,,1,0.0855,0,47,47,82,1,,,,,,,,,,,,,,,,,,,,,,,,,,,,,,,,,,,,,,,,,,,,,,,,,,,,,,,,,,,,,,,,,,,,,,
,,,,1,0.0916,,,,,,14,broom,cookie,,90150,001,2022-04-29_14h23.51.996,SPAMnetsValid,2021.1.4,Linux x86_64,60.06366749,,,,,,,,,,,,,1,0.0916,0,48,48,16,1,,,,,,,,,,,,,,,,,,,,,,,,,,,,,,,,,,,,,,,,,,,,,,,,,,,,,,,,,,,,,,,,,,,,,,
,,,,1,0.1263,,,,,,76,garden,rose,,90150,001,2022-04-29_14h23.51.996,SPAMnetsValid,2021.1.4,Linux x86_64,60.06366749,,,,,,,,,,,,,1,0.1263,0,49,49,19,1,,,,,,,,,,,,,,,,,,,,,,,,,,,,,,,,,,,,,,,,,,,,,,,,,,,,,,,,,,,,,,,,,,,,,,
,,,,1,0.1081,,,,,,75,cookie,onion,,90150,001,2022-04-29_14h23.51.996,SPAMnetsValid,2021.1.4,Linux x86_64,60.06366749,,,,,,,,,,,,,1,0.1081,0,50,50,9,1,,,,,,,,,,,,,,,,,,,,,,,,,,,,,,,,,,,,,,,,,,,,,,,,,,,,,,,,,,,,,,,,,,,,,,
,,,,1,0.1187,,,,,,45,onion,pretzel,,90150,001,2022-04-29_14h23.51.996,SPAMnetsValid,2021.1.4,Linux x86_64,60.06366749,,,,,,,,,,,,,1,0.1187,0,51,51,69,1,,,,,,,,,,,,,,,,,,,,,,,,,,,,,,,,,,,,,,,,,,,,,,,,,,,,,,,,,,,,,,,,,,,,,,
,,,,1,0.1263,,,,,,48,flower,oven,,90150,001,2022-04-29_14h23.51.996,SPAMnetsValid,2021.1.4,Linux x86_64,60.06366749,,,,,,,,,,,,,1,0.1263,0,52,52,15,1,,,,,,,,,,,,,,,,,,,,,,,,,,,,,,,,,,,,,,,,,,,,,,,,,,,,,,,,,,,,,,,,,,,,,,
,,,,1,0.1064,,,,,,79,garden,strawberry,,90150,001,2022-04-29_14h23.51.996,SPAMnetsValid,2021.1.4,Linux x86_64,60.06366749,,,,,,,,,,,,,1,0.1064,0,53,53,87,1,,,,,,,,,,,,,,,,,,,,,,,,,,,,,,,,,,,,,,,,,,,,,,,,,,,,,,,,,,,,,,,,,,,,,,
,,,,1,0.16,,,,,,71,broom,rose,,90150,001,2022-04-29_14h23.51.996,SPAMnetsValid,2021.1.4,Linux x86_64,60.06366749,,,,,,,,,,,,,1,0.16,0,54,54,61,1,,,,,,,,,,,,,,,,,,,,,,,,,,,,,,,,,,,,,,,,,,,,,,,,,,,,,,,,,,,,,,,,,,,,,,
,,,,1,0.3368,,,,,,1,rose,yogurt,,90150,001,2022-04-29_14h23.51.996,SPAMnetsValid,2021.1.4,Linux x86_64,60.06366749,,,,,,,,,,,,,1,0.3368,0,55,55,55,1,,,,,,,,,,,,,,,,,,,,,,,,,,,,,,,,,,,,,,,,,,,,,,,,,,,,,,,,,,,,,,,,,,,,,,
,,,,1,0.2066,,,,,,90,cactus,cake,,90150,001,2022-04-29_14h23.51.996,SPAMnetsValid,2021.1.4,Linux x86_64,60.06366749,,,,,,,,,,,,,1,0.2066,0,56,56,85,1,,,,,,,,,,,,,,,,,,,,,,,,,,,,,,,,,,,,,,,,,,,,,,,,,,,,,,,,,,,,,,,,,,,,,,
,,,,1,0.0454,,,,,,24,cookie,tomato,,90150,001,2022-04-29_14h23.51.996,SPAMnetsValid,2021.1.4,Linux x86_64,60.06366749,,,,,,,,,,,,,1,0.0454,0,57,57,68,1,,,,,,,,,,,,,,,,,,,,,,,,,,,,,,,,,,,,,,,,,,,,,,,,,,,,,,,,,,,,,,,,,,,,,,
,,,,1,0.0378,,,,,,42,garden,kitchen,,90150,001,2022-04-29_14h23.51.996,SPAMnetsValid,2021.1.4,Linux x86_64,60.06366749,,,,,,,,,,,,,1,0.0378,0,58,58,29,1,,,,,,,,,,,,,,,,,,,,,,,,,,,,,,,,,,,,,,,,,,,,,,,,,,,,,,,,,,,,,,,,,,,,,,
,,,,1,0.1052,,,,,,63,cake,cookie,,90150,001,2022-04-29_14h23.51.996,SPAMnetsValid,2021.1.4,Linux x86_64,60.06366749,,,,,,,,,,,,,1,0.1052,0,59,59,93,1,,,,,,,,,,,,,,,,,,,,,,,,,,,,,,,,,,,,,,,,,,,,,,,,,,,,,,,,,,,,,,,,,,,,,,
,,,,1,0.0951,,,,,,27,cactus,cookie,,90150,001,2022-04-29_14h23.51.996,SPAMnetsValid,2021.1.4,Linux x86_64,60.06366749,,,,,,,,,,,,,1,0.0951,0,60,60,17,1,,,,,,,,,,,,,,,,,,,,,,,,,,,,,,,,,,,,,,,,,,,,,,,,,,,,,,,,,,,,,,,,,,,,,,
,,,,1,0.1136,,,,,,10,flower,onion,,90150,001,2022-04-29_14h23.51.996,SPAMnetsValid,2021.1.4,Linux x86_64,60.06366749,,,,,,,,,,,,,1,0.1136,0,61,61,45,1,,,,,,,,,,,,,,,,,,,,,,,,,,,,,,,,,,,,,,,,,,,,,,,,,,,,,,,,,,,,,,,,,,,,,,
,,,,1,0.1403,,,,,,88,cactus,melon,,90150,001,2022-04-29_14h23.51.996,SPAMnetsValid,2021.1.4,Linux x86_64,60.06366749,,,,,,,,,,,,,1,0.1403,0,62,62,38,1,,,,,,,,,,,,,,,,,,,,,,,,,,,,,,,,,,,,,,,,,,,,,,,,,,,,,,,,,,,,,,,,,,,,,,
,,,,1,0.0945,,,,,,33,oven,yogurt,,90150,001,2022-04-29_14h23.51.996,SPAMnetsValid,2021.1.4,Linux x86_64,60.06366749,,,,,,,,,,,,,1,0.0945,0,63,63,31,1,,,,,,,,,,,,,,,,,,,,,,,,,,,,,,,,,,,,,,,,,,,,,,,,,,,,,,,,,,,,,,,,,,,,,,
,,,,1,0.0911,,,,,,66,melon,yogurt,,90150,001,2022-04-29_14h23.51.996,SPAMnetsValid,2021.1.4,Linux x86_64,60.06366749,,,,,,,,,,,,,1,0.0911,0,64,64,48,1,,,,,,,,,,,,,,,,,,,,,,,,,,,,,,,,,,,,,,,,,,,,,,,,,,,,,,,,,,,,,,,,,,,,,,
,,,,1,0.1254,,,,,,38,pretzel,refrigerator,,90150,001,2022-04-29_14h23.51.996,SPAMnetsValid,2021.1.4,Linux x86_64,60.06366749,,,,,,,,,,,,,1,0.1254,0,65,65,71,1,,,,,,,,,,,,,,,,,,,,,,,,,,,,,,,,,,,,,,,,,,,,,,,,,,,,,,,,,,,,,,,,,,,,,,
,,,,1,0.0732,,,,,,13,broom,yogurt,,90150,001,2022-04-29_14h23.51.996,SPAMnetsValid,2021.1.4,Linux x86_64,60.06366749,,,,,,,,,,,,,1,0.0732,0,66,66,5,1,,,,,,,,,,,,,,,,,,,,,,,,,,,,,,,,,,,,,,,,,,,,,,,,,,,,,,,,,,,,,,,,,,,,,,
,,,,1,0.1259,,,,,,4,chocolate,pretzel,,90150,001,2022-04-29_14h23.51.996,SPAMnetsValid,2021.1.4,Linux x86_64,60.06366749,,,,,,,,,,,,,1,0.1259,0,67,67,52,1,,,,,,,,,,,,,,,,,,,,,,,,,,,,,,,,,,,,,,,,,,,,,,,,,,,,,,,,,,,,,,,,,,,,,,
,,,,1,0.1053,,,,,,64,chocolate,garden,,90150,001,2022-04-29_14h23.51.996,SPAMnetsValid,2021.1.4,Linux x86_64,60.06366749,,,,,,,,,,,,,1,0.1053,0,68,68,14,1,,,,,,,,,,,,,,,,,,,,,,,,,,,,,,,,,,,,,,,,,,,,,,,,,,,,,,,,,,,,,,,,,,,,,,
,,,,1,0.0879,,,,,,26,tomato,yogurt,,90150,001,2022-04-29_14h23.51.996,SPAMnetsValid,2021.1.4,Linux x86_64,60.06366749,,,,,,,,,,,,,1,0.0879,0,69,69,13,1,,,,,,,,,,,,,,,,,,,,,,,,,,,,,,,,,,,,,,,,,,,,,,,,,,,,,,,,,,,,,,,,,,,,,,
,,,,1,0.1445,,,,,,72,broom,onion,,90150,001,2022-04-29_14h23.51.996,SPAMnetsValid,2021.1.4,Linux x86_64,60.06366749,,,,,,,,,,,,,1,0.1445,0,70,70,27,1,,,,,,,,,,,,,,,,,,,,,,,,,,,,,,,,,,,,,,,,,,,,,,,,,,,,,,,,,,,,,,,,,,,,,,
,,,,1,0.1285,,,,,,8,broom,melon,,90150,001,2022-04-29_14h23.51.996,SPAMnetsValid,2021.1.4,Linux x86_64,60.06366749,,,,,,,,,,,,,1,0.1285,0,71,71,59,1,,,,,,,,,,,,,,,,,,,,,,,,,,,,,,,,,,,,,,,,,,,,,,,,,,,,,,,,,,,,,,,,,,,,,,
,,,,1,0.1489,,,,,,39,melon,pretzel,,90150,001,2022-04-29_14h23.51.996,SPAMnetsValid,2021.1.4,Linux x86_64,60.06366749,,,,,,,,,,,,,1,0.1489,0,72,72,20,1,,,,,,,,,,,,,,,,,,,,,,,,,,,,,,,,,,,,,,,,,,,,,,,,,,,,,,,,,,,,,,,,,,,,,,
,,,,1,0.1304,,,,,,9,kitchen,refrigerator,,90150,001,2022-04-29_14h23.51.996,SPAMnetsValid,2021.1.4,Linux x86_64,60.06366749,,,,,,,,,,,,,1,0.1304,0,73,73,64,1,,,,,,,,,,,,,,,,,,,,,,,,,,,,,,,,,,,,,,,,,,,,,,,,,,,,,,,,,,,,,,,,,,,,,,
,,,,1,0.1498,,,,,,5,oven,tree,,90150,001,2022-04-29_14h23.51.996,SPAMnetsValid,2021.1.4,Linux x86_64,60.06366749,,,,,,,,,,,,,1,0.1498,0,74,74,70,1,,,,,,,,,,,,,,,,,,,,,,,,,,,,,,,,,,,,,,,,,,,,,,,,,,,,,,,,,,,,,,,,,,,,,,
,,,,1,0.1443,,,,,,60,cactus,onion,,90150,001,2022-04-29_14h23.51.996,SPAMnetsValid,2021.1.4,Linux x86_64,60.06366749,,,,,,,,,,,,,1,0.1443,0,75,75,81,1,,,,,,,,,,,,,,,,,,,,,,,,,,,,,,,,,,,,,,,,,,,,,,,,,,,,,,,,,,,,,,,,,,,,,,
,,,,1,0.1083,,,,,,12,cookie,yogurt,,90150,001,2022-04-29_14h23.51.996,SPAMnetsValid,2021.1.4,Linux x86_64,60.06366749,,,,,,,,,,,,,1,0.1083,0,76,76,36,1,,,,,,,,,,,,,,,,,,,,,,,,,,,,,,,,,,,,,,,,,,,,,,,,,,,,,,,,,,,,,,,,,,,,,,
,,,,1,0.1334,,,,,,31,cactus,pretzel,,90150,001,2022-04-29_14h23.51.996,SPAMnetsValid,2021.1.4,Linux x86_64,60.06366749,,,,,,,,,,,,,1,0.1334,0,77,77,1,1,,,,,,,,,,,,,,,,,,,,,,,,,,,,,,,,,,,,,,,,,,,,,,,,,,,,,,,,,,,,,,,,,,,,,,
,,,,1,0.0939,,,,,,36,broom,kitchen,,90150,001,2022-04-29_14h23.51.996,SPAMnetsValid,2021.1.4,Linux x86_64,60.06366749,,,,,,,,,,,,,1,0.0939,0,78,78,76,1,,,,,,,,,,,,,,,,,,,,,,,,,,,,,,,,,,,,,,,,,,,,,,,,,,,,,,,,,,,,,,,,,,,,,,
,,,,1,0.1286,,,,,,50,carrot,rose,,90150,001,2022-04-29_14h23.51.996,SPAMnetsValid,2021.1.4,Linux x86_64,60.06366749,,,,,,,,,,,,,1,0.1286,0,79,79,73,1,,,,,,,,,,,,,,,,,,,,,,,,,,,,,,,,,,,,,,,,,,,,,,,,,,,,,,,,,,,,,,,,,,,,,,
,,,,1,0.0728,,,,,,32,cake,microwave,,90150,001,2022-04-29_14h23.51.996,SPAMnetsValid,2021.1.4,Linux x86_64,60.06366749,,,,,,,,,,,,,1,0.0728,0,80,80,33,1,,,,,,,,,,,,,,,,,,,,,,,,,,,,,,,,,,,,,,,,,,,,,,,,,,,,,,,,,,,,,,,,,,,,,,
,,,,1,0.1271,,,,,,67,flower,yogurt,,90150,001,2022-04-29_14h23.51.996,SPAMnetsValid,2021.1.4,Linux x86_64,60.06366749,,,,,,,,,,,,,1,0.1271,0,81,81,12,1,,,,,,,,,,,,,,,,,,,,,,,,,,,,,,,,,,,,,,,,,,,,,,,,,,,,,,,,,,,,,,,,,,,,,,
,,,,1,0.0879,,,,,,77,refrigerator,yogurt,,90150,001,2022-04-29_14h23.51.996,SPAMnetsValid,2021.1.4,Linux x86_64,60.06366749,,,,,,,,,,,,,1,0.0879,0,82,82,42,1,,,,,,,,,,,,,,,,,,,,,,,,,,,,,,,,,,,,,,,,,,,,,,,,,,,,,,,,,,,,,,,,,,,,,,
,,,,1,0.0668,,,,,,11,refrigerator,tree,,90150,001,2022-04-29_14h23.51.996,SPAMnetsValid,2021.1.4,Linux x86_64,60.06366749,,,,,,,,,,,,,1,0.0668,0,83,83,43,1,,,,,,,,,,,,,,,,,,,,,,,,,,,,,,,,,,,,,,,,,,,,,,,,,,,,,,,,,,,,,,,,,,,,,,
,,,,1,0.0982,,,,,,51,onion,strawberry,,90150,001,2022-04-29_14h23.51.996,SPAMnetsValid,2021.1.4,Linux x86_64,60.06366749,,,,,,,,,,,,,1,0.0982,0,84,84,86,1,,,,,,,,,,,,,,,,,,,,,,,,,,,,,,,,,,,,,,,,,,,,,,,,,,,,,,,,,,,,,,,,,,,,,,
,,,,1,0.1114,,,,,,59,rose,strawberry,,90150,001,2022-04-29_14h23.51.996,SPAMnetsValid,2021.1.4,Linux x86_64,60.06366749,,,,,,,,,,,,,1,0.1114,0,85,85,72,1,,,,,,,,,,,,,,,,,,,,,,,,,,,,,,,,,,,,,,,,,,,,,,,,,,,,,,,,,,,,,,,,,,,,,,
,,,,1,0.106,,,,,,191,cake,cake,CHECK,90150,001,2022-04-29_14h23.51.996,SPAMnetsValid,2021.1.4,Linux x86_64,60.06366749,,,,,,,,,,,,,1,0.106,0,86,86,10,1,,,,,,,,,,,,,,,,,,,,,,,,,,,,,,,,,,,,,,,,,,,,,,,,,,,,,,,,,,,,,,,,,,,,,,
,,,,1,0.0676,,,,,,34,melon,oven,,90150,001,2022-04-29_14h23.51.996,SPAMnetsValid,2021.1.4,Linux x86_64,60.06366749,,,,,,,,,,,,,1,0.0676,0,87,87,7,1,,,,,,,,,,,,,,,,,,,,,,,,,,,,,,,,,,,,,,,,,,,,,,,,,,,,,,,,,,,,,,,,,,,,,,
,,,,1,0.112,,,,,,94,kitchen,microwave,,90150,001,2022-04-29_14h23.51.996,SPAMnetsValid,2021.1.4,Linux x86_64,60.06366749,,,,,,,,,,,,,1,0.112,0,88,88,58,1,,,,,,,,,,,,,,,,,,,,,,,,,,,,,,,,,,,,,,,,,,,,,,,,,,,,,,,,,,,,,,,,,,,,,,
,,,,1,0.0735,,,,,,87,carrot,yogurt,,90150,001,2022-04-29_14h23.51.996,SPAMnetsValid,2021.1.4,Linux x86_64,60.06366749,,,,,,,,,,,,,1,0.0735,0,89,89,6,1,,,,,,,,,,,,,,,,,,,,,,,,,,,,,,,,,,,,,,,,,,,,,,,,,,,,,,,,,,,,,,,,,,,,,,
,,,,1,0.1101,,,,,,81,pretzel,yogurt,,90150,001,2022-04-29_14h23.51.996,SPAMnetsValid,2021.1.4,Linux x86_64,60.06366749,,,,,,,,,,,,,1,0.1101,0,90,90,50,1,,,,,,,,,,,,,,,,,,,,,,,,,,,,,,,,,,,,,,,,,,,,,,,,,,,,,,,,,,,,,,,,,,,,,,
,,,,1,0.1168,,,,,,69,carrot,refrigerator,,90150,001,2022-04-29_14h23.51.996,SPAMnetsValid,2021.1.4,Linux x86_64,60.06366749,,,,,,,,,,,,,1,0.1168,0,91,91,75,1,,,,,,,,,,,,,,,,,,,,,,,,,,,,,,,,,,,,,,,,,,,,,,,,,,,,,,,,,,,,,,,,,,,,,,
,,,,1,0.1107,,,,,,78,cookie,rose,,90150,001,2022-04-29_14h23.51.996,SPAMnetsValid,2021.1.4,Linux x86_64,60.06366749,,,,,,,,,,,,,1,0.1107,0,92,92,56,1,,,,,,,,,,,,,,,,,,,,,,,,,,,,,,,,,,,,,,,,,,,,,,,,,,,,,,,,,,,,,,,,,,,,,,
,,,,1,0.0577,,,,,,52,carrot,tomato,,90150,001,2022-04-29_14h23.51.996,SPAMnetsValid,2021.1.4,Linux x86_64,60.06366749,,,,,,,,,,,,,1,0.0577,0,93,93,95,1,,,,,,,,,,,,,,,,,,,,,,,,,,,,,,,,,,,,,,,,,,,,,,,,,,,,,,,,,,,,,,,,,,,,,,
,,,,1,0.1099,,,,,,19,microwave,pretzel,,90150,001,2022-04-29_14h23.51.996,SPAMnetsValid,2021.1.4,Linux x86_64,60.06366749,,,,,,,,,,,,,1,0.1099,0,94,94,41,1,,,,,,,,,,,,,,,,,,,,,,,,,,,,,,,,,,,,,,,,,,,,,,,,,,,,,,,,,,,,,,,,,,,,,,
,,,,1,0.0615,,,,,,20,rose,tree,,90150,001,2022-04-29_14h23.51.996,SPAMnetsValid,2021.1.4,Linux x86_64,60.06366749,,,,,,,,,,,,,1,0.0615,0,95,95,66,1,,,,,,,,,,,,,,,,,,,,,,,,,,,,,,,,,,,,,,,,,,,,,,,,,,,,,,,,,,,,,,,,,,,,,,
,,,,1,0.073,,,,,,92,broom,flower,,90150,001,2022-04-29_14h23.51.996,SPAMnetsValid,2021.1.4,Linux x86_64,60.06366749,,,,,,,,,,,,,1,0.073,0,96,96,88,1,,,,,,,,,,,,,,,,,,,,,,,,,,,,,,,,,,,,,,,,,,,,,,,,,,,,,,,,,,,,,,,,,,,,,,
,,,,,,,,,,,,,,,90150,001,2022-04-29_14h23.51.996,SPAMnetsValid,2021.1.4,Linux x86_64,60.06366749,,,,,,,,,,,,,,,,,,,,0,0,0,0,1,,,,,,,,,,,,,,,,,,,,,,,,,,,,,,,,,,,,,,,,,,,,,,,,,,,,,,,,,,,,,,,,,
,,,,,,,,,,,,,,,90150,001,2022-04-29_14h23.51.996,SPAMnetsValid,2021.1.4,Linux x86_64,60.06366749,,,,,,0,1,1,0,1,1,0,,,,,,,,,,,,,,,,,,,,,,,,,,,,,,,,,,,,,,,,,,,,,,,,,,,,,,,,,,,,,,,,,,,,,,,,,,,,,
,,,,,,,,,,,,,,,90150,001,2022-04-29_14h23.51.996,SPAMnetsValid,2021.1.4,Linux x86_64,60.06366749,,,,,,,,,,,,,,,,,,,,,,,,,3,35.0217,0,0,0,0,1,rancor,forbearance,ridicule,malice,bravery,3,,,,,,,,,,,,,,,,,,,,,,,,,,,,,,,,,,,,,,,,,,,,,,,,,,,,
,,,,,,,,,,,,,,,90150,001,2022-04-29_14h23.51.996,SPAMnetsValid,2021.1.4,Linux x86_64,60.06366749,,,,,,,,,,,,,,,,,,,,,,,,,4,3.5252,0,1,1,1,1,raucous,empty,quiet,smooth,harsh,4,,,,,,,,,,,,,,,,,,,,,,,,,,,,,,,,,,,,,,,,,,,,,,,,,,,,
,,,,,,,,,,,,,,,90150,001,2022-04-29_14h23.51.996,SPAMnetsValid,2021.1.4,Linux x86_64,60.06366749,,,,,,,,,,,,,,,,,,,,,,,,,3,6.0727,0,2,2,2,1,gargoyle,oil,medicine,carved waterspout,ugly building,3,,,,,,,,,,,,,,,,,,,,,,,,,,,,,,,,,,,,,,,,,,,,,,,,,,,,
,,,,,,,,,,,,,,,90150,001,2022-04-29_14h23.51.996,SPAMnetsValid,2021.1.4,Linux x86_64,60.06366749,,,,,,,,,,,,,,,,,,,,,,,,,3,8.5826,0,3,3,3,1,recrudesce,purify,renew activity,lack refinement,crush,2,,,,,,,,,,,,,,,,,,,,,,,,,,,,,,,,,,,,,,,,,,,,,,,,,,,,
,,,,,,,,,,,,,,,90150,001,2022-04-29_14h23.51.996,SPAMnetsValid,2021.1.4,Linux x86_64,60.06366749,,,,,,,,,,,,,,,,,,,,,,,,,1,6.9008,0,4,4,4,1,specious,"plausible, but not genuine",noteworthy,class or variety,roomy,1,,,,,,,,,,,,,,,,,,,,,,,,,,,,,,,,,,,,,,,,,,,,,,,,,,,,
,,,,,,,,,,,,,,,90150,001,2022-04-29_14h23.51.996,SPAMnetsValid,2021.1.4,Linux x86_64,60.06366749,,,,,,,,,,,,,,,,,,,,,,,,,2,5.3803,0,5,5,5,1,bauble,bubble,showy plaything,idle talk,confusion,2,,,,,,,,,,,,,,,,,,,,,,,,,,,,,,,,,,,,,,,,,,,,,,,,,,,,
,,,,,,,,,,,,,,,90150,001,2022-04-29_14h23.51.996,SPAMnetsValid,2021.1.4,Linux x86_64,60.06366749,,,,,,,,,,,,,,,,,,,,,,,,,2,7.2925,0,6,6,6,1,prolific,scarce,producing abundantly,reckless,speaking profanely,2,,,,,,,,,,,,,,,,,,,,,,,,,,,,,,,,,,,,,,,,,,,,,,,,,,,,
,,,,,,,,,,,,,,,90150,001,2022-04-29_14h23.51.996,SPAMnetsValid,2021.1.4,Linux x86_64,60.06366749,,,,,,,,,,,,,,,,,,,,,,,,,3,6.1897,0,7,7,7,1,opulent,party,wealthy,happy frame of mind,semiprecious stone,2,,,,,,,,,,,,,,,,,,,,,,,,,,,,,,,,,,,,,,,,,,,,,,,,,,,,
,,,,,,,,,,,,,,,90150,001,2022-04-29_14h23.51.996,SPAMnetsValid,2021.1.4,Linux x86_64,60.06366749,,,,,,,,,,,,,,,,,,,,,,,,,1,3.7448,0,8,8,8,1,coercion,conspiracy,strategy,restraint,attraction,3,,,,,,,,,,,,,,,,,,,,,,,,,,,,,,,,,,,,,,,,,,,,,,,,,,,,
,,,,,,,,,,,,,,,90150,001,2022-04-29_14h23.51.996,SPAMnetsValid,2021.1.4,Linux x86_64,60.06366749,,,,,,,,,,,,,,,,,,,,,,,,,4,4.3981,0,9,9,9,1,hiatus,animal,calamity,dread,gap,4,,,,,,,,,,,,,,,,,,,,,,,,,,,,,,,,,,,,,,,,,,,,,,,,,,,,
,,,,,,,,,,,,,,,90150,001,2022-04-29_14h23.51.996,SPAMnetsValid,2021.1.4,Linux x86_64,60.06366749,,,,,,,,,,,,,,,,,,,,,,,,,1,17.2883,0,10,10,10,1,germane,microbe,contagious,relevant,different,3,,,,,,,,,,,,,,,,,,,,,,,,,,,,,,,,,,,,,,,,,,,,,,,,,,,,
,,,,,,,,,,,,,,,90150,001,2022-04-29_14h23.51.996,SPAMnetsValid,2021.1.4,Linux x86_64,60.06366749,,,,,,,,,,,,,,,,,,,,,,,,,2,5.8907,0,11,11,11,1,perfunctory,fundamental,formal,superficial,careful,3,,,,,,,,,,,,,,,,,,,,,,,,,,,,,,,,,,,,,,,,,,,,,,,,,,,,
,,,,,,,,,,,,,,,90150,001,2022-04-29_14h23.51.996,SPAMnetsValid,2021.1.4,Linux x86_64,60.06366749,,,,,,,,,,,,,,,,,,,,,,,,,4,21.3036,0,12,12,12,1,diverge,reveal,chant,distract the attention of,differ or turn off from,4,,,,,,,,,,,,,,,,,,,,,,,,,,,,,,,,,,,,,,,,,,,,,,,,,,,,
,,,,,,,,,,,,,,,90150,001,2022-04-29_14h23.51.996,SPAMnetsValid,2021.1.4,Linux x86_64,60.06366749,,,,,,,,,,,,,,,,,,,,,,,,,4,4.1788,0,13,13,13,1,evoke,take away,anger,connect,bring out,4,,,,,,,,,,,,,,,,,,,,,,,,,,,,,,,,,,,,,,,,,,,,,,,,,,,,
,,,,,,,,,,,,,,,90150,001,2022-04-29_14h23.51.996,SPAMnetsValid,2021.1.4,Linux x86_64,60.06366749,,,,,,,,,,,,,,,,,,,,,,,,,1,4.8176,0,14,14,14,1,pertinent,relevant,lying next to,necessary,bold,1,,,,,,,,,,,,,,,,,,,,,,,,,,,,,,,,,,,,,,,,,,,,,,,,,,,,
,,,,,,,,,,,,,,,90150,001,2022-04-29_14h23.51.996,SPAMnetsValid,2021.1.4,Linux x86_64,60.06366749,,,,,,,,,,,,,,,,,,,,,,,,,2,3.3858,0,15,15,15,1,holocaust,entirety,destruction,saintly,price,2,,,,,,,,,,,,,,,,,,,,,,,,,,,,,,,,,,,,,,,,,,,,,,,,,,,,
,,,,,,,,,,,,,,,90150,001,2022-04-29_14h23.51.996,SPAMnetsValid,2021.1.4,Linux x86_64,60.06366749,,,,,,,,,,,,,,,,,,,,,,,,,1,7.3042,0,16,16,16,1,piquant,mellow,fish,pungent,cloth,3,,,,,,,,,,,,,,,,,,,,,,,,,,,,,,,,,,,,,,,,,,,,,,,,,,,,
,,,,,,,,,,,,,,,90150,001,2022-04-29_14h23.51.996,SPAMnetsValid,2021.1.4,Linux x86_64,60.06366749,,,,,,,,,,,,,,,,,,,,,,,,,1,11.3629,0,17,17,17,1,firmament,foundation,heavens,strong,glue,2,,,,,,,,,,,,,,,,,,,,,,,,,,,,,,,,,,,,,,,,,,,,,,,,,,,,
,,,,,,,,,,,,,,,90150,001,2022-04-29_14h23.51.996,SPAMnetsValid,2021.1.4,Linux x86_64,60.06366749,,,,,,,,,,,,,,,,,,,,,,,,,,,,,,,,,,,,,,4,9.1097,0,0,0,0,1,marketable,partisan,jocular,marriageable,salable,essential,4,,,,,,,,,,,,,,,,,,,,,,,,,,,,,,,,,,,,,,
,,,,,,,,,,,,,,,90150,001,2022-04-29_14h23.51.996,SPAMnetsValid,2021.1.4,Linux x86_64,60.06366749,,,,,,,,,,,,,,,,,,,,,,,,,,,,,,,,,,,,,,5,4.2203,0,1,1,1,1,cottontail,squirrel,poplar,boa,marshy plant,rabbit,5,,,,,,,,,,,,,,,,,,,,,,,,,,,,,,,,,,,,,,
,,,,,,,,,,,,,,,90150,001,2022-04-29_14h23.51.996,SPAMnetsValid,2021.1.4,Linux x86_64,60.06366749,,,,,,,,,,,,,,,,,,,,,,,,,,,,,,,,,,,,,,4,9.7886,0,2,2,2,1,boggy,afraid,false,marshy,dense,black,3,,,,,,,,,,,,,,,,,,,,,,,,,,,,,,,,,,,,,,
,,,,,,,,,,,,,,,90150,001,2022-04-29_14h23.51.996,SPAMnetsValid,2021.1.4,Linux x86_64,60.06366749,,,,,,,,,,,,,,,,,,,,,,,,,,,,,,,,,,,,,,5,15.6679,0,3,3,3,1,gruesomeness,blackness,falseness,vindictiveness,drunkenness,ghastliness,5,,,,,,,,,,,,,,,,,,,,,,,,,,,,,,,,,,,,,,
,,,,,,,,,,,,,,,90150,001,2022-04-29_14h23.51.996,SPAMnetsValid,2021.1.4,Linux x86_64,60.06366749,,,,,,,,,,,,,,,,,,,,,,,,,,,,,,,,,,,,,,3,7.0331,0,4,4,4,1,loathing,diffidence,laziness,abhorrence,cleverness,comfort,3,,,,,,,,,,,,,,,,,,,,,,,,,,,,,,,,,,,,,,
,,,,,,,,,,,,,,,90150,001,2022-04-29_14h23.51.996,SPAMnetsValid,2021.1.4,Linux x86_64,60.06366749,,,,,,,,,,,,,,,,,,,,,,,,,,,,,,,,,,,,,,2,8.8131,0,5,5,5,1,bantam,fowl,ridicule,cripple,vegetable,ensign,1,,,,,,,,,,,,,,,,,,,,,,,,,,,,,,,,,,,,,,
,,,,,,,,,,,,,,,90150,001,2022-04-29_14h23.51.996,SPAMnetsValid,2021.1.4,Linux x86_64,60.06366749,,,,,,,,,,,,,,,,,,,,,,,,,,,,,,,,,,,,,,5,5.8319,0,6,6,6,1,evoke,wake up,surrender,reconnoiter,transcend,call forth,5,,,,,,,,,,,,,,,,,,,,,,,,,,,,,,,,,,,,,,
,,,,,,,,,,,,,,,90150,001,2022-04-29_14h23.51.996,SPAMnetsValid,2021.1.4,Linux x86_64,60.06366749,,,,,,,,,,,,,,,,,,,,,,,,,,,,,,,,,,,,,,4,16.6136,0,7,7,7,1,unobtrusive,unintelligent,epileptic,illogical,lineal,modest,5,,,,,,,,,,,,,,,,,,,,,,,,,,,,,,,,,,,,,,
,,,,,,,,,,,,,,,90150,001,2022-04-29_14h23.51.996,SPAMnetsValid,2021.1.4,Linux x86_64,60.06366749,,,,,,,,,,,,,,,,,,,,,,,,,,,,,,,,,,,,,,4,4.7143,0,8,8,8,1,terrain,ice cream,final test,tractor,area of ground,weight,4,,,,,,,,,,,,,,,,,,,,,,,,,,,,,,,,,,,,,,
,,,,,,,,,,,,,,,90150,001,2022-04-29_14h23.51.996,SPAMnetsValid,2021.1.4,Linux x86_64,60.06366749,,,,,,,,,,,,,,,,,,,,,,,,,,,,,,,,,,,,,,3,8.5018,0,9,9,9,1,capriciousness,stubbornness,courage,whimsicality,amazement,greediness,3,,,,,,,,,,,,,,,,,,,,,,,,,,,,,,,,,,,,,,
,,,,,,,,,,,,,,,90150,001,2022-04-29_14h23.51.996,SPAMnetsValid,2021.1.4,Linux x86_64,60.06366749,,,,,,,,,,,,,,,,,,,,,,,,,,,,,,,,,,,,,,2,5.786,0,10,10,10,1,maelstrom,slander,whirlpool,enmity,armor,majolica,2,,,,,,,,,,,,,,,,,,,,,,,,,,,,,,,,,,,,,,
,,,,,,,,,,,,,,,90150,001,2022-04-29_14h23.51.996,SPAMnetsValid,2021.1.4,Linux x86_64,60.06366749,,,,,,,,,,,,,,,,,,,,,,,,,,,,,,,,,,,,,,1,12.4074,0,11,11,11,1,tentative,critical,conclusive,authentic,provisional,apprehensive,4,,,,,,,,,,,,,,,,,,,,,,,,,,,,,,,,,,,,,,
,,,,,,,,,,,,,,,90150,001,2022-04-29_14h23.51.996,SPAMnetsValid,2021.1.4,Linux x86_64,60.06366749,,,,,,,,,,,,,,,,,,,,,,,,,,,,,,,,,,,,,,1,16.1142,0,12,12,12,1,placate,rehabilitate,plagiarize,depredate,apprise,conciliate,5,,,,,,,,,,,,,,,,,,,,,,,,,,,,,,,,,,,,,,
,,,,,,,,,,,,,,,90150,001,2022-04-29_14h23.51.996,SPAMnetsValid,2021.1.4,Linux x86_64,60.06366749,,,,,,,,,,,,,,,,,,,,,,,,,,,,,,,,,,,,,,2,4.968,0,13,13,13,1,surcease,enlightenment,cessation,inattention,censor,substitution,2,,,,,,,,,,,,,,,,,,,,,,,,,,,,,,,,,,,,,,
,,,,,,,,,,,,,,,90150,001,2022-04-29_14h23.51.996,SPAMnetsValid,2021.1.4,Linux x86_64,60.06366749,,,,,,,,,,,,,,,,,,,,,,,,,,,,,,,,,,,,,,2,6.2511,0,14,14,14,1,apathetic,wandering,impassive,hateful,prophetic,overflowing,2,,,,,,,,,,,,,,,,,,,,,,,,,,,,,,,,,,,,,,
,,,,,,,,,,,,,,,90150,001,2022-04-29_14h23.51.996,SPAMnetsValid,2021.1.4,Linux x86_64,60.06366749,,,,,,,,,,,,,,,,,,,,,,,,,,,,,,,,,,,,,,1,9.1428,0,15,15,15,1,paternoster,paternalism,patricide,malediction,benediction,prayer,5,,,,,,,,,,,,,,,,,,,,,,,,,,,,,,,,,,,,,,
,,,,,,,,,,,,,,,90150,001,2022-04-29_14h23.51.996,SPAMnetsValid,2021.1.4,Linux x86_64,60.06366749,,,,,,,,,,,,,,,,,,,,,,,,,,,,,,,,,,,,,,5,30.711,0,16,16,16,1,opalescence,opulence,senescence,bankruptcy,iridescence,assiduity,4,,,,,,,,,,,,,,,,,,,,,,,,,,,,,,,,,,,,,,
,,,,,,,,,,,,,,,90150,001,2022-04-29_14h23.51.996,SPAMnetsValid,2021.1.4,Linux x86_64,60.06366749,,,,,,,,,,,,,,,,,,,,,,,,,,,,,,,,,,,,,,2,3.1573,0,17,17,17,1,lush,stupid,luxurious,hazy,putrid,languishing,2,,,,,,,,,,,,,,,,,,,,,,,,,,,,,,,,,,,,,,
,,,,,,,,,,,,,,,90150,001,2022-04-29_14h23.51.996,SPAMnetsValid,2021.1.4,Linux x86_64,60.06366749,,,,,,,,,,,,,,,,,,,,,,,,,,,,,,,,,,,,,,3,8.6521,0,18,18,18,1,curtailment,expenditure,abandonment,abridgment,improvement,forgery,3,,,,,,,,,,,,,,,,,,,,,,,,,,,,,,,,,,,,,,
,,,,,,,,,,,,,,,90150,001,2022-04-29_14h23.51.996,SPAMnetsValid,2021.1.4,Linux x86_64,60.06366749,,,,,,,,,,,,,,,,,,,,,,,,,,,,,,,,,,,,,,2,9.2477,0,19,19,19,1,perversity,adversity,perviousness,travesty,waywardness,gentility,4,,,,,,,,,,,,,,,,,,,,,,,,,,,,,,,,,,,,,,
,,,,,,,,,,,,,,,90150,001,2022-04-29_14h23.51.996,SPAMnetsValid,2021.1.4,Linux x86_64,60.06366749,,,,,,,,,,,,,,,,,,,,,,,,,,,,,,,,,,,,,,3,9.1198,0,20,20,20,1,calumnious,complimentary,analogous,slanderous,tempestuous,magnanimous,3,,,,,,,,,,,,,,,,,,,,,,,,,,,,,,,,,,,,,,
,,,,,,,,,,,,,,,90150,001,2022-04-29_14h23.51.996,SPAMnetsValid,2021.1.4,Linux x86_64,60.06366749,,,,,,,,,,,,,,,,,,,,,,,,,,,,,,,,,,,,,,1,8.7651,0,21,21,21,1,illiberality,bigotry,imbecility,illegibility,cautery,immaturity,1,,,,,,,,,,,,,,,,,,,,,,,,,,,,,,,,,,,,,,
,,,,,,,,,,,,,,,90150,001,2022-04-29_14h23.51.996,SPAMnetsValid,2021.1.4,Linux x86_64,60.06366749,,,,,,,,,,,,,,,,,,,,,,,,,,,,,,,,,,,,,,2,5.4226,0,22,22,22,1,clabber,rejoice,gossip,curdle,crow,hobble,3,,,,,,,,,,,,,,,,,,,,,,,,,,,,,,,,,,,,,,
,,,,,,,,,,,,,,,90150,001,2022-04-29_14h23.51.996,SPAMnetsValid,2021.1.4,Linux x86_64,60.06366749,,,,,,,,,,,,,,,,,,,,,,,,,,,,,,,,,,,,,,3,18.5922,0,23,23,23,1,sedulousness,diligence,credulousness,seduction,perilousness,frankness,1,,,,,,,,,,,,,,,,,,,,,,,,,,,,,,,,,,,,,,
,,,,,,,,,,,,,,,90150,001,2022-04-29_14h23.51.996,SPAMnetsValid,2021.1.4,Linux x86_64,60.06366749,,,,,,,,,,,,,,,,,,,,,,,,,,,,,,,,,,,,,,,,,,,,,,,,,,,,"light, heat",candle,0,0,0,0,1,,,,,,,,,,,,,,,,,,,,,,,,,,,,,,,
,,,,,,,,,,,,,,,90150,001,2022-04-29_14h23.51.996,SPAMnetsValid,2021.1.4,Linux x86_64,60.06366749,,,,,,,,,,,,,,,,,,,,,,,,,,,,,,,,,,,,,,,,,,,,,,,,,,,,,candle,1,0,1,0,1,,,,,,,,,,,,,,,,,,,,,,,,,,,,,,,
,,,,,,,,,,,,,,,90150,001,2022-04-29_14h23.51.996,SPAMnetsValid,2021.1.4,Linux x86_64,60.06366749,,,,,,,,,,,,,,,,,,,,,,,,,,,,,,,,,,,,,,,,,,,,,,,,,,,,light and heat ,candle,2,0,2,0,1,,,,,,,,,,,,,,,,,,,,,,,,,,,,,,,
,,,,,,,,,,,,,,,90150,001,2022-04-29_14h23.51.996,SPAMnetsValid,2021.1.4,Linux x86_64,60.06366749,,,,,,,,,,,,,,,,,,,,,,,,,,,,,,,,,,,,,,,,,,,,,,,,,,,,wax,candle,3,0,3,0,1,,,,,,,,,,,,,,,,,,,,,,,,,,,,,,,
,,,,,,,,,,,,,,,90150,001,2022-04-29_14h23.51.996,SPAMnetsValid,2021.1.4,Linux x86_64,60.06366749,,,,,,,,,,,,,,,,,,,,,,,,,,,,,,,,,,,,,,,,,,,,,,,,,,,,,candle,4,0,4,0,1,,,,,,,,,,,,,,,,,,,,,,,,,,,,,,,
,,,,,,,,,,,,,,,90150,001,2022-04-29_14h23.51.996,SPAMnetsValid,2021.1.4,Linux x86_64,60.06366749,,,,,,,,,,,,,,,,,,,,,,,,,,,,,,,,,,,,,,,,,,,,,,,,,,,,,candle,5,0,5,0,1,,,,,,,,,,,,,,,,,,,,,,,,,,,,,,,
,,,,,,,,,,,,,,,90150,001,2022-04-29_14h23.51.996,SPAMnetsValid,2021.1.4,Linux x86_64,60.06366749,,,,,,,,,,,,,,,,,,,,,,,,,,,,,,,,,,,,,,,,,,,,,,,,,,,,,candle,6,0,6,0,1,,,,,,,,,,,,,,,,,,,,,,,,,,,,,,,
,,,,,,,,,,,,,,,90150,001,2022-04-29_14h23.51.996,SPAMnetsValid,2021.1.4,Linux x86_64,60.06366749,,,,,,,,,,,,,,,,,,,,,,,,,,,,,,,,,,,,,,,,,,,,,,,,,,,,,candle,7,0,7,0,1,,,,,,,,,,,,,,,,,,,,,,,,,,,,,,,
,,,,,,,,,,,,,,,90150,001,2022-04-29_14h23.51.996,SPAMnetsValid,2021.1.4,Linux x86_64,60.06366749,,,,,,,,,,,,,,,,,,,,,,,,,,,,,,,,,,,,,,,,,,,,,,,,,,,,,candle,8,0,8,0,1,,,,,,,,,,,,,,,,,,,,,,,,,,,,,,,
,,,,,,,,,,,,,,,90150,001,2022-04-29_14h23.51.996,SPAMnetsValid,2021.1.4,Linux x86_64,60.06366749,,,,,,,,,,,,,,,,,,,,,,,,,,,,,,,,,,,,,,,,,,,,,,,,,,,,,candle,9,0,9,0,1,,,,,,,,,,,,,,,,,,,,,,,,,,,,,,,
,,,,,,,,,,,,,,,90150,001,2022-04-29_14h23.51.996,SPAMnetsValid,2021.1.4,Linux x86_64,60.06366749,,,,,,,,,,,,,,,,,,,,,,,,,,,,,,,,,,,,,,,,,,,,,,,,,,,,,candle,10,0,10,0,1,,,,,,,,,,,,,,,,,,,,,,,,,,,,,,,
,,,,,,,,,,,,,,,90150,001,2022-04-29_14h23.51.996,SPAMnetsValid,2021.1.4,Linux x86_64,60.06366749,,,,,,,,,,,,,,,,,,,,,,,,,,,,,,,,,,,,,,,,,,,,,,,,,,,,,candle,11,0,11,0,1,,,,,,,,,,,,,,,,,,,,,,,,,,,,,,,
,,,,,,,,,,,,,,,90150,001,2022-04-29_14h23.51.996,SPAMnetsValid,2021.1.4,Linux x86_64,60.06366749,,,,,,,,,,,,,,,,,,,,,,,,,,,,,,,,,,,,,,,,,,,,,,,,,,,,,candle,12,0,12,0,1,,,,,,,,,,,,,,,,,,,,,,,,,,,,,,,
,,,,,,,,,,,,,,,90150,001,2022-04-29_14h23.51.996,SPAMnetsValid,2021.1.4,Linux x86_64,60.06366749,,,,,,,,,,,,,,,,,,,,,,,,,,,,,,,,,,,,,,,,,,,,,,,,,,,,,candle,13,0,13,0,1,,,,,,,,,,,,,,,,,,,,,,,,,,,,,,,
,,,,,,,,,,,,,,,90150,001,2022-04-29_14h23.51.996,SPAMnetsValid,2021.1.4,Linux x86_64,60.06366749,,,,,,,,,,,,,,,,,,,,,,,,,,,,,,,,,,,,,,,,,,,,,,,,,,,,   rituals,candle,14,0,14,0,1,,,,,,,,,,,,,,,,,,,,,,,,,,,,,,,
,,,,,,,,,,,,,,,90150,001,2022-04-29_14h23.51.996,SPAMnetsValid,2021.1.4,Linux x86_64,60.06366749,,,,,,,,,,,,,,,,,,,,,,,,,,,,,,,,,,,,,,,,,,,,,,,,,,,,romantic evening ,candle,15,0,15,0,1,,,,,,,,,,,,,,,,,,,,,,,,,,,,,,,
,,,,,,,,,,,,,,,90150,001,2022-04-29_14h23.51.996,SPAMnetsValid,2021.1.4,Linux x86_64,60.06366749,,,,,,,,,,,,,,,,,,,,,,,,,,,,,,,,,,,,,,,,,,,,,,,,,,,,air freshener ,candle,16,0,16,0,1,,,,,,,,,,,,,,,,,,,,,,,,,,,,,,,
,,,,,,,,,,,,,,,90150,001,2022-04-29_14h23.51.996,SPAMnetsValid,2021.1.4,Linux x86_64,60.06366749,,,,,,,,,,,,,,,,,,,,,,,,,,,,,,,,,,,,,,,,,,,,,,,,,,,,marker,candle,17,0,17,0,1,,,,,,,,,,,,,,,,,,,,,,,,,,,,,,,
,,,,,,,,,,,,,,,90150,001,2022-04-29_14h23.51.996,SPAMnetsValid,2021.1.4,Linux x86_64,60.06366749,,,,,,,,,,,,,,,,,,,,,,,,,,,,,,,,,,,,,,,,,,,,,,,,,,,,,,,,,,,0,0,0,1,1,candle,,,,,,,,,,,,,,,,,,,,,,,,,
,,,,,,,,,,,,,,,90150,001,2022-04-29_14h23.51.996,SPAMnetsValid,2021.1.4,Linux x86_64,60.06366749,,,,,,,,,,,,,,,,,,,,,,,,,,,,,,,,,,,,,,,,,,,,,,,,,,,,toy,pillow,0,0,0,0,1,,,,,,,,,,,,,,,,,,,,,,,,,,,,,,,
,,,,,,,,,,,,,,,90150,001,2022-04-29_14h23.51.996,SPAMnetsValid,2021.1.4,Linux x86_64,60.06366749,,,,,,,,,,,,,,,,,,,,,,,,,,,,,,,,,,,,,,,,,,,,,,,,,,,,storage,pillow,1,0,1,0,1,,,,,,,,,,,,,,,,,,,,,,,,,,,,,,,
,,,,,,,,,,,,,,,90150,001,2022-04-29_14h23.51.996,SPAMnetsValid,2021.1.4,Linux x86_64,60.06366749,,,,,,,,,,,,,,,,,,,,,,,,,,,,,,,,,,,,,,,,,,,,,,,,,,,,cushion,pillow,2,0,2,0,1,,,,,,,,,,,,,,,,,,,,,,,,,,,,,,,
,,,,,,,,,,,,,,,90150,001,2022-04-29_14h23.51.996,SPAMnetsValid,2021.1.4,Linux x86_64,60.06366749,,,,,,,,,,,,,,,,,,,,,,,,,,,,,,,,,,,,,,,,,,,,,,,,,,,,fort material ,pillow,3,0,3,0,1,,,,,,,,,,,,,,,,,,,,,,,,,,,,,,,
,,,,,,,,,,,,,,,90150,001,2022-04-29_14h23.51.996,SPAMnetsValid,2021.1.4,Linux x86_64,60.06366749,,,,,,,,,,,,,,,,,,,,,,,,,,,,,,,,,,,,,,,,,,,,,,,,,,,,insolation,pillow,4,0,4,0,1,,,,,,,,,,,,,,,,,,,,,,,,,,,,,,,
,,,,,,,,,,,,,,,90150,001,2022-04-29_14h23.51.996,SPAMnetsValid,2021.1.4,Linux x86_64,60.06366749,,,,,,,,,,,,,,,,,,,,,,,,,,,,,,,,,,,,,,,,,,,,,,,,,,,,clothing,pillow,5,0,5,0,1,,,,,,,,,,,,,,,,,,,,,,,,,,,,,,,
,,,,,,,,,,,,,,,90150,001,2022-04-29_14h23.51.996,SPAMnetsValid,2021.1.4,Linux x86_64,60.06366749,,,,,,,,,,,,,,,,,,,,,,,,,,,,,,,,,,,,,,,,,,,,,,,,,,,,pet bed,pillow,6,0,6,0,1,,,,,,,,,,,,,,,,,,,,,,,,,,,,,,,
,,,,,,,,,,,,,,,90150,001,2022-04-29_14h23.51.996,SPAMnetsValid,2021.1.4,Linux x86_64,60.06366749,,,,,,,,,,,,,,,,,,,,,,,,,,,,,,,,,,,,,,,,,,,,,,,,,,,,support for injured limb,pillow,7,0,7,0,1,,,,,,,,,,,,,,,,,,,,,,,,,,,,,,,
,,,,,,,,,,,,,,,90150,001,2022-04-29_14h23.51.996,SPAMnetsValid,2021.1.4,Linux x86_64,60.06366749,,,,,,,,,,,,,,,,,,,,,,,,,,,,,,,,,,,,,,,,,,,,,,,,,,,,baby cushion,pillow,8,0,8,0,1,,,,,,,,,,,,,,,,,,,,,,,,,,,,,,,
,,,,,,,,,,,,,,,90150,001,2022-04-29_14h23.51.996,SPAMnetsValid,2021.1.4,Linux x86_64,60.06366749,,,,,,,,,,,,,,,,,,,,,,,,,,,,,,,,,,,,,,,,,,,,,,,,,,,,,,,,,,,0,1,1,2,1,pillow,,,,,,,,,,,,,,,,,,,,,,,,,
,,,,,,,,,,,,,,,90150,001,2022-04-29_14h23.51.996,SPAMnetsValid,2021.1.4,Linux x86_64,60.06366749,,,,,,,,,,,,,,,,,,,,,,,,,,,,,,,,,,,,,,,,,,,,,,,,,,,,hat,bucket,0,0,0,0,1,,,,,,,,,,,,,,,,,,,,,,,,,,,,,,,
,,,,,,,,,,,,,,,90150,001,2022-04-29_14h23.51.996,SPAMnetsValid,2021.1.4,Linux x86_64,60.06366749,,,,,,,,,,,,,,,,,,,,,,,,,,,,,,,,,,,,,,,,,,,,,,,,,,,,shoe,bucket,1,0,1,0,1,,,,,,,,,,,,,,,,,,,,,,,,,,,,,,,
,,,,,,,,,,,,,,,90150,001,2022-04-29_14h23.51.996,SPAMnetsValid,2021.1.4,Linux x86_64,60.06366749,,,,,,,,,,,,,,,,,,,,,,,,,,,,,,,,,,,,,,,,,,,,,,,,,,,,bra,bucket,2,0,2,0,1,,,,,,,,,,,,,,,,,,,,,,,,,,,,,,,
,,,,,,,,,,,,,,,90150,001,2022-04-29_14h23.51.996,SPAMnetsValid,2021.1.4,Linux x86_64,60.06366749,,,,,,,,,,,,,,,,,,,,,,,,,,,,,,,,,,,,,,,,,,,,,,,,,,,,hurmet crab shell,bucket,3,0,3,0,1,,,,,,,,,,,,,,,,,,,,,,,,,,,,,,,
,,,,,,,,,,,,,,,90150,001,2022-04-29_14h23.51.996,SPAMnetsValid,2021.1.4,Linux x86_64,60.06366749,,,,,,,,,,,,,,,,,,,,,,,,,,,,,,,,,,,,,,,,,,,,,,,,,,,,bowl,bucket,4,0,4,0,1,,,,,,,,,,,,,,,,,,,,,,,,,,,,,,,
,,,,,,,,,,,,,,,90150,001,2022-04-29_14h23.51.996,SPAMnetsValid,2021.1.4,Linux x86_64,60.06366749,,,,,,,,,,,,,,,,,,,,,,,,,,,,,,,,,,,,,,,,,,,,,,,,,,,,cup,bucket,5,0,5,0,1,,,,,,,,,,,,,,,,,,,,,,,,,,,,,,,
,,,,,,,,,,,,,,,90150,001,2022-04-29_14h23.51.996,SPAMnetsValid,2021.1.4,Linux x86_64,60.06366749,,,,,,,,,,,,,,,,,,,,,,,,,,,,,,,,,,,,,,,,,,,,,,,,,,,,storage,bucket,6,0,6,0,1,,,,,,,,,,,,,,,,,,,,,,,,,,,,,,,
,,,,,,,,,,,,,,,90150,001,2022-04-29_14h23.51.996,SPAMnetsValid,2021.1.4,Linux x86_64,60.06366749,,,,,,,,,,,,,,,,,,,,,,,,,,,,,,,,,,,,,,,,,,,,,,,,,,,,fitration device ,bucket,7,0,7,0,1,,,,,,,,,,,,,,,,,,,,,,,,,,,,,,,
,,,,,,,,,,,,,,,90150,001,2022-04-29_14h23.51.996,SPAMnetsValid,2021.1.4,Linux x86_64,60.06366749,,,,,,,,,,,,,,,,,,,,,,,,,,,,,,,,,,,,,,,,,,,,,,,,,,,,sink,bucket,8,0,8,0,1,,,,,,,,,,,,,,,,,,,,,,,,,,,,,,,
,,,,,,,,,,,,,,,90150,001,2022-04-29_14h23.51.996,SPAMnetsValid,2021.1.4,Linux x86_64,60.06366749,,,,,,,,,,,,,,,,,,,,,,,,,,,,,,,,,,,,,,,,,,,,,,,,,,,,toy,bucket,9,0,9,0,1,,,,,,,,,,,,,,,,,,,,,,,,,,,,,,,
,,,,,,,,,,,,,,,90150,001,2022-04-29_14h23.51.996,SPAMnetsValid,2021.1.4,Linux x86_64,60.06366749,,,,,,,,,,,,,,,,,,,,,,,,,,,,,,,,,,,,,,,,,,,,,,,,,,,,pet toy ,bucket,10,0,10,0,1,,,,,,,,,,,,,,,,,,,,,,,,,,,,,,,
,,,,,,,,,,,,,,,90150,001,2022-04-29_14h23.51.996,SPAMnetsValid,2021.1.4,Linux x86_64,60.06366749,,,,,,,,,,,,,,,,,,,,,,,,,,,,,,,,,,,,,,,,,,,,,,,,,,,,instrament ,bucket,11,0,11,0,1,,,,,,,,,,,,,,,,,,,,,,,,,,,,,,,
,,,,,,,,,,,,,,,90150,001,2022-04-29_14h23.51.996,SPAMnetsValid,2021.1.4,Linux x86_64,60.06366749,,,,,,,,,,,,,,,,,,,,,,,,,,,,,,,,,,,,,,,,,,,,,,,,,,,,seat,bucket,12,0,12,0,1,,,,,,,,,,,,,,,,,,,,,,,,,,,,,,,
,,,,,,,,,,,,,,,90150,001,2022-04-29_14h23.51.996,SPAMnetsValid,2021.1.4,Linux x86_64,60.06366749,,,,,,,,,,,,,,,,,,,,,,,,,,,,,,,,,,,,,,,,,,,,,,,,,,,,birdhouse ,bucket,13,0,13,0,1,,,,,,,,,,,,,,,,,,,,,,,,,,,,,,,
,,,,,,,,,,,,,,,90150,001,2022-04-29_14h23.51.996,SPAMnetsValid,2021.1.4,Linux x86_64,60.06366749,,,,,,,,,,,,,,,,,,,,,,,,,,,,,,,,,,,,,,,,,,,,,,,,,,,,dog house ,bucket,14,0,14,0,1,,,,,,,,,,,,,,,,,,,,,,,,,,,,,,,
,,,,,,,,,,,,,,,90150,001,2022-04-29_14h23.51.996,SPAMnetsValid,2021.1.4,Linux x86_64,60.06366749,,,,,,,,,,,,,,,,,,,,,,,,,,,,,,,,,,,,,,,,,,,,,,,,,,,,coffee table,bucket,15,0,15,0,1,,,,,,,,,,,,,,,,,,,,,,,,,,,,,,,
,,,,,,,,,,,,,,,90150,001,2022-04-29_14h23.51.996,SPAMnetsValid,2021.1.4,Linux x86_64,60.06366749,,,,,,,,,,,,,,,,,,,,,,,,,,,,,,,,,,,,,,,,,,,,,,,,,,,,,,,,,,,0,2,2,0,1,bucket,,,,,,,,,,,,,,,,,,,,,,,,,
,,,,,,,,,,,,,,,90150,001,2022-04-29_14h23.51.996,SPAMnetsValid,2021.1.4,Linux x86_64,60.06366749,,,,,,,,,,,,,,,,,,,,,,,,,,,,,,,,,,,,,,,,,,,,,,,,,,,,,,,,,,,,,,,,,dog,Animals,0,0,0,0,1,,,,,,,,,,,,,,,,,,
,,,,,,,,,,,,,,,90150,001,2022-04-29_14h23.51.996,SPAMnetsValid,2021.1.4,Linux x86_64,60.06366749,,,,,,,,,,,,,,,,,,,,,,,,,,,,,,,,,,,,,,,,,,,,,,,,,,,,,,,,,,,,,,,,,cat,Animals,1,0,1,0,1,,,,,,,,,,,,,,,,,,
,,,,,,,,,,,,,,,90150,001,2022-04-29_14h23.51.996,SPAMnetsValid,2021.1.4,Linux x86_64,60.06366749,,,,,,,,,,,,,,,,,,,,,,,,,,,,,,,,,,,,,,,,,,,,,,,,,,,,,,,,,,,,,,,,,fish,Animals,2,0,2,0,1,,,,,,,,,,,,,,,,,,
,,,,,,,,,,,,,,,90150,001,2022-04-29_14h23.51.996,SPAMnetsValid,2021.1.4,Linux x86_64,60.06366749,,,,,,,,,,,,,,,,,,,,,,,,,,,,,,,,,,,,,,,,,,,,,,,,,,,,,,,,,,,,,,,,,lion,Animals,3,0,3,0,1,,,,,,,,,,,,,,,,,,
,,,,,,,,,,,,,,,90150,001,2022-04-29_14h23.51.996,SPAMnetsValid,2021.1.4,Linux x86_64,60.06366749,,,,,,,,,,,,,,,,,,,,,,,,,,,,,,,,,,,,,,,,,,,,,,,,,,,,,,,,,,,,,,,,,tiger,Animals,4,0,4,0,1,,,,,,,,,,,,,,,,,,
,,,,,,,,,,,,,,,90150,001,2022-04-29_14h23.51.996,SPAMnetsValid,2021.1.4,Linux x86_64,60.06366749,,,,,,,,,,,,,,,,,,,,,,,,,,,,,,,,,,,,,,,,,,,,,,,,,,,,,,,,,,,,,,,,,bear,Animals,5,0,5,0,1,,,,,,,,,,,,,,,,,,
,,,,,,,,,,,,,,,90150,001,2022-04-29_14h23.51.996,SPAMnetsValid,2021.1.4,Linux x86_64,60.06366749,,,,,,,,,,,,,,,,,,,,,,,,,,,,,,,,,,,,,,,,,,,,,,,,,,,,,,,,,,,,,,,,,bird,Animals,6,0,6,0,1,,,,,,,,,,,,,,,,,,
,,,,,,,,,,,,,,,90150,001,2022-04-29_14h23.51.996,SPAMnetsValid,2021.1.4,Linux x86_64,60.06366749,,,,,,,,,,,,,,,,,,,,,,,,,,,,,,,,,,,,,,,,,,,,,,,,,,,,,,,,,,,,,,,,,snail,Animals,7,0,7,0,1,,,,,,,,,,,,,,,,,,
,,,,,,,,,,,,,,,90150,001,2022-04-29_14h23.51.996,SPAMnetsValid,2021.1.4,Linux x86_64,60.06366749,,,,,,,,,,,,,,,,,,,,,,,,,,,,,,,,,,,,,,,,,,,,,,,,,,,,,,,,,,,,,,,,,pig,Animals,8,0,8,0,1,,,,,,,,,,,,,,,,,,
,,,,,,,,,,,,,,,90150,001,2022-04-29_14h23.51.996,SPAMnetsValid,2021.1.4,Linux x86_64,60.06366749,,,,,,,,,,,,,,,,,,,,,,,,,,,,,,,,,,,,,,,,,,,,,,,,,,,,,,,,,,,,,,,,,duck,Animals,9,0,9,0,1,,,,,,,,,,,,,,,,,,
,,,,,,,,,,,,,,,90150,001,2022-04-29_14h23.51.996,SPAMnetsValid,2021.1.4,Linux x86_64,60.06366749,,,,,,,,,,,,,,,,,,,,,,,,,,,,,,,,,,,,,,,,,,,,,,,,,,,,,,,,,,,,,,,,,goose,Animals,10,0,10,0,1,,,,,,,,,,,,,,,,,,
,,,,,,,,,,,,,,,90150,001,2022-04-29_14h23.51.996,SPAMnetsValid,2021.1.4,Linux x86_64,60.06366749,,,,,,,,,,,,,,,,,,,,,,,,,,,,,,,,,,,,,,,,,,,,,,,,,,,,,,,,,,,,,,,,,moose,Animals,11,0,11,0,1,,,,,,,,,,,,,,,,,,
,,,,,,,,,,,,,,,90150,001,2022-04-29_14h23.51.996,SPAMnetsValid,2021.1.4,Linux x86_64,60.06366749,,,,,,,,,,,,,,,,,,,,,,,,,,,,,,,,,,,,,,,,,,,,,,,,,,,,,,,,,,,,,,,,,deer,Animals,12,0,12,0,1,,,,,,,,,,,,,,,,,,
,,,,,,,,,,,,,,,90150,001,2022-04-29_14h23.51.996,SPAMnetsValid,2021.1.4,Linux x86_64,60.06366749,,,,,,,,,,,,,,,,,,,,,,,,,,,,,,,,,,,,,,,,,,,,,,,,,,,,,,,,,,,,,,,,,elk,Animals,13,0,13,0,1,,,,,,,,,,,,,,,,,,
,,,,,,,,,,,,,,,90150,001,2022-04-29_14h23.51.996,SPAMnetsValid,2021.1.4,Linux x86_64,60.06366749,,,,,,,,,,,,,,,,,,,,,,,,,,,,,,,,,,,,,,,,,,,,,,,,,,,,,,,,,,,,,,,,,hamster,Animals,14,0,14,0,1,,,,,,,,,,,,,,,,,,
,,,,,,,,,,,,,,,90150,001,2022-04-29_14h23.51.996,SPAMnetsValid,2021.1.4,Linux x86_64,60.06366749,,,,,,,,,,,,,,,,,,,,,,,,,,,,,,,,,,,,,,,,,,,,,,,,,,,,,,,,,,,,,,,,,rat,Animals,15,0,15,0,1,,,,,,,,,,,,,,,,,,
,,,,,,,,,,,,,,,90150,001,2022-04-29_14h23.51.996,SPAMnetsValid,2021.1.4,Linux x86_64,60.06366749,,,,,,,,,,,,,,,,,,,,,,,,,,,,,,,,,,,,,,,,,,,,,,,,,,,,,,,,,,,,,,,,,ferret,Animals,16,0,16,0,1,,,,,,,,,,,,,,,,,,
,,,,,,,,,,,,,,,90150,001,2022-04-29_14h23.51.996,SPAMnetsValid,2021.1.4,Linux x86_64,60.06366749,,,,,,,,,,,,,,,,,,,,,,,,,,,,,,,,,,,,,,,,,,,,,,,,,,,,,,,,,,,,,,,,,chinchilla,Animals,17,0,17,0,1,,,,,,,,,,,,,,,,,,
,,,,,,,,,,,,,,,90150,001,2022-04-29_14h23.51.996,SPAMnetsValid,2021.1.4,Linux x86_64,60.06366749,,,,,,,,,,,,,,,,,,,,,,,,,,,,,,,,,,,,,,,,,,,,,,,,,,,,,,,,,,,,,,,,,goat,Animals,18,0,18,0,1,,,,,,,,,,,,,,,,,,
,,,,,,,,,,,,,,,90150,001,2022-04-29_14h23.51.996,SPAMnetsValid,2021.1.4,Linux x86_64,60.06366749,,,,,,,,,,,,,,,,,,,,,,,,,,,,,,,,,,,,,,,,,,,,,,,,,,,,,,,,,,,,,,,,,chicken,Animals,19,0,19,0,1,,,,,,,,,,,,,,,,,,
,,,,,,,,,,,,,,,90150,001,2022-04-29_14h23.51.996,SPAMnetsValid,2021.1.4,Linux x86_64,60.06366749,,,,,,,,,,,,,,,,,,,,,,,,,,,,,,,,,,,,,,,,,,,,,,,,,,,,,,,,,,,,,,,,,shark,Animals,20,0,20,0,1,,,,,,,,,,,,,,,,,,
,,,,,,,,,,,,,,,90150,001,2022-04-29_14h23.51.996,SPAMnetsValid,2021.1.4,Linux x86_64,60.06366749,,,,,,,,,,,,,,,,,,,,,,,,,,,,,,,,,,,,,,,,,,,,,,,,,,,,,,,,,,,,,,,,,whale,Animals,21,0,21,0,1,,,,,,,,,,,,,,,,,,
,,,,,,,,,,,,,,,90150,001,2022-04-29_14h23.51.996,SPAMnetsValid,2021.1.4,Linux x86_64,60.06366749,,,,,,,,,,,,,,,,,,,,,,,,,,,,,,,,,,,,,,,,,,,,,,,,,,,,,,,,,,,,,,,,,squid,Animals,22,0,22,0,1,,,,,,,,,,,,,,,,,,
,,,,,,,,,,,,,,,90150,001,2022-04-29_14h23.51.996,SPAMnetsValid,2021.1.4,Linux x86_64,60.06366749,,,,,,,,,,,,,,,,,,,,,,,,,,,,,,,,,,,,,,,,,,,,,,,,,,,,,,,,,,,,,,,,,worm,Animals,23,0,23,0,1,,,,,,,,,,,,,,,,,,
,,,,,,,,,,,,,,,90150,001,2022-04-29_14h23.51.996,SPAMnetsValid,2021.1.4,Linux x86_64,60.06366749,,,,,,,,,,,,,,,,,,,,,,,,,,,,,,,,,,,,,,,,,,,,,,,,,,,,,,,,,,,,,,,,,hippo,Animals,24,0,24,0,1,,,,,,,,,,,,,,,,,,
,,,,,,,,,,,,,,,90150,001,2022-04-29_14h23.51.996,SPAMnetsValid,2021.1.4,Linux x86_64,60.06366749,,,,,,,,,,,,,,,,,,,,,,,,,,,,,,,,,,,,,,,,,,,,,,,,,,,,,,,,,,,,,,,,,elephant,Animals,25,0,25,0,1,,,,,,,,,,,,,,,,,,
,,,,,,,,,,,,,,,90150,001,2022-04-29_14h23.51.996,SPAMnetsValid,2021.1.4,Linux x86_64,60.06366749,,,,,,,,,,,,,,,,,,,,,,,,,,,,,,,,,,,,,,,,,,,,,,,,,,,,,,,,,,,,,,,,,geraff,Animals,26,0,26,0,1,,,,,,,,,,,,,,,,,,
,,,,,,,,,,,,,,,90150,001,2022-04-29_14h23.51.996,SPAMnetsValid,2021.1.4,Linux x86_64,60.06366749,,,,,,,,,,,,,,,,,,,,,,,,,,,,,,,,,,,,,,,,,,,,,,,,,,,,,,,,,,,,,,,,,zibra,Animals,27,0,27,0,1,,,,,,,,,,,,,,,,,,
,,,,,,,,,,,,,,,90150,001,2022-04-29_14h23.51.996,SPAMnetsValid,2021.1.4,Linux x86_64,60.06366749,,,,,,,,,,,,,,,,,,,,,,,,,,,,,,,,,,,,,,,,,,,,,,,,,,,,,,,,,,,,,,,,,camel,Animals,28,0,28,0,1,,,,,,,,,,,,,,,,,,
,,,,,,,,,,,,,,,90150,001,2022-04-29_14h23.51.996,SPAMnetsValid,2021.1.4,Linux x86_64,60.06366749,,,,,,,,,,,,,,,,,,,,,,,,,,,,,,,,,,,,,,,,,,,,,,,,,,,,,,,,,,,,,,,,,,,,,,,,0,0,0,0,1,Animals,,,,,,,,,,,,
,,,,,,,,,,,,,,,90150,001,2022-04-29_14h23.51.996,SPAMnetsValid,2021.1.4,Linux x86_64,60.06366749,,,,,,,,,,,,,,,,,,,,,,,,,,,,,,,,,,,,,,,,,,,,,,,,,,,,,,,,,,,,,,,,,,,,,,,,,,,,,,4,8.5134,0,0,0,0,1,"I enjoy concentrating on a fantasy or daydream and exploring all its possibilities, letting it grow and develop.",0,1,,
,,,,,,,,,,,,,,,90150,001,2022-04-29_14h23.51.996,SPAMnetsValid,2021.1.4,Linux x86_64,60.06366749,,,,,,,,,,,,,,,,,,,,,,,,,,,,,,,,,,,,,,,,,,,,,,,,,,,,,,,,,,,,,,,,,,,,,,,,,,,,,,4,4.9261,0,1,1,1,1,I think it's interesting to learn and develop new hobbies.,0,2,,
,,,,,,,,,,,,,,,90150,001,2022-04-29_14h23.51.996,SPAMnetsValid,2021.1.4,Linux x86_64,60.06366749,,,,,,,,,,,,,,,,,,,,,,,,,,,,,,,,,,,,,,,,,,,,,,,,,,,,,,,,,,,,,,,,,,,,,,,,,,,,,,5,3.131,0,2,2,2,1,I am intrigued by the patterns I find in art and nature.,0,3,,
,,,,,,,,,,,,,,,90150,001,2022-04-29_14h23.51.996,SPAMnetsValid,2021.1.4,Linux x86_64,60.06366749,,,,,,,,,,,,,,,,,,,,,,,,,,,,,,,,,,,,,,,,,,,,,,,,,,,,,,,,,,,,,,,,,,,,,,,,,,,,,,2,6.3653,0,3,3,3,1,I believe letting students hear controversial speakers can only confuse and mislead them.,1,4,,
,,,,,,,,,,,,,,,90150,001,2022-04-29_14h23.51.996,SPAMnetsValid,2021.1.4,Linux x86_64,60.06366749,,,,,,,,,,,,,,,,,,,,,,,,,,,,,,,,,,,,,,,,,,,,,,,,,,,,,,,,,,,,,,,,,,,,,,,,,,,,,,1,2.6392,0,4,4,4,1,Poetry has little or no effect on me.,1,5,,
,,,,,,,,,,,,,,,90150,001,2022-04-29_14h23.51.996,SPAMnetsValid,2021.1.4,Linux x86_64,60.06366749,,,,,,,,,,,,,,,,,,,,,,,,,,,,,,,,,,,,,,,,,,,,,,,,,,,,,,,,,,,,,,,,,,,,,,,,,,,,,,2,7.5261,0,5,5,5,1,I would have difficulty just letting my mind wander without control or guidance.,1,6,,
,,,,,,,,,,,,,,,90150,001,2022-04-29_14h23.51.996,SPAMnetsValid,2021.1.4,Linux x86_64,60.06366749,,,,,,,,,,,,,,,,,,,,,,,,,,,,,,,,,,,,,,,,,,,,,,,,,,,,,,,,,,,,,,,,,,,,,,,,,,,,,,3,6.4848,0,6,6,6,1,I seldom notice the moods or feelings that different environments produce.,1,7,,
,,,,,,,,,,,,,,,90150,001,2022-04-29_14h23.51.996,SPAMnetsValid,2021.1.4,Linux x86_64,60.06366749,,,,,,,,,,,,,,,,,,,,,,,,,,,,,,,,,,,,,,,,,,,,,,,,,,,,,,,,,,,,,,,,,,,,,,,,,,,,,,5,2.7676,0,7,7,7,1,I experience a wide range of emotions or feelings.,0,8,,
,,,,,,,,,,,,,,,90150,001,2022-04-29_14h23.51.996,SPAMnetsValid,2021.1.4,Linux x86_64,60.06366749,,,,,,,,,,,,,,,,,,,,,,,,,,,,,,,,,,,,,,,,,,,,,,,,,,,,,,,,,,,,,,,,,,,,,,,,,,,,,,5,5.3258,0,8,8,8,1,"Sometimes when I am reading poetry or looking at a work of art, I feel a chill or wave of excitement.",0,9,,
,,,,,,,,,,,,,,,90150,001,2022-04-29_14h23.51.996,SPAMnetsValid,2021.1.4,Linux x86_64,60.06366749,,,,,,,,,,,,,,,,,,,,,,,,,,,,,,,,,,,,,,,,,,,,,,,,,,,,,,,,,,,,,,,,,,,,,,,,,,,,,,2,5.9867,0,9,9,9,1,I have little interest in speculating on the nature of the universe or the human condition.,1,10,,
,,,,,,,,,,,,,,,90150,001,2022-04-29_14h23.51.996,SPAMnetsValid,2021.1.4,Linux x86_64,60.06366749,,,,,,,,,,,,,,,,,,,,,,,,,,,,,,,,,,,,,,,,,,,,,,,,,,,,,,,,,,,,,,,,,,,,,,,,,,,,,,4,2.8713,0,10,10,10,1,I have a lot of intellectual curiosity.,0,11,,
,,,,,,,,,,,,,,,90150,001,2022-04-29_14h23.51.996,SPAMnetsValid,2021.1.4,Linux x86_64,60.06366749,,,,,,,,,,,,,,,,,,,,,,,,,,,,,,,,,,,,,,,,,,,,,,,,,,,,,,,,,,,,,,,,,,,,,,,,,,,,,,4,3.7433,0,11,11,11,1,I often enjoy playing with theories or abstract ideas.,0,12,,
,,,,,,,,,,,,,,,90150,001,2022-04-29_14h23.51.996,SPAMnetsValid,2021.1.4,Linux x86_64,60.06366749,,,,,,,,,,,,,,,,,,,,,,,,,,,,,,,,,,,,,,,,,,,,,,,,,,,,,,,,,,,,,,,,,,,,,,,,,,,,,,,,,,,,,,,,return,16.3703
