key_resp_3.keys,key_resp_3.rt,slider.response,slider.rt,rjt_rating,rjt_RT,trials_22.thisRepN,trials_22.thisTrialN,trials_22.thisN,trials_22.thisIndex,trials_22.ran,rjt_order,word1,word2,attention,participant,session,date,expName,psychopyVersion,OS,frameRate,trials_99.thisRepN,trials_99.thisTrialN,trials_99.thisN,trials_99.thisIndex,trials_99.ran,trials_5.thisRepN,trials_5.thisTrialN,trials_5.thisN,trials_5.thisIndex,trials_5.ran,repOne,repTwo,slider_2.response,slider_2.rt,trials_24.thisRepN,trials_24.thisTrialN,trials_24.thisN,trials_24.thisIndex,trials_24.ran,trials_4.thisRepN,trials_4.thisTrialN,trials_4.thisN,trials_4.thisIndex,trials_4.ran,slider_extend_2.response,slider_extend_2.rt,trials_6.thisRepN,trials_6.thisTrialN,trials_6.thisN,trials_6.thisIndex,trials_6.ran,vCue2,R1,R2,R3,R4,correct,sliderVocab.response,sliderVocab.rt,trials_7.thisRepN,trials_7.thisTrialN,trials_7.thisN,trials_7.thisIndex,trials_7.ran,VocabCue,VR1,VR2,VR3,VR4,VR5,VocabCorrect,AUT_resp,AUT_label,trials.thisRepN,trials.thisTrialN,trials.thisN,trials.thisIndex,trials.ran,trials_2.thisRepN,trials_2.thisTrialN,trials_2.thisN,trials_2.thisIndex,trials_2.ran,aut_prompt,VF_response,VF_tag,trials_16.thisRepN,trials_16.thisTrialN,trials_16.thisN,trials_16.thisIndex,trials_16.ran,trials_17.thisRepN,trials_17.thisTrialN,trials_17.thisN,trials_17.thisIndex,trials_17.ran,VFcond,open_slider.response,open_slider.rt,trials_3.thisRepN,trials_3.thisTrialN,trials_3.thisN,trials_3.thisIndex,trials_3.ran,OpenQ,Rev,OPEN_ORDER,key_resp_2.keys,key_resp_2.rt
return,10.326,7,2.939,7,2.939,0,0,0,2,1,22,kitchen,strawberry,,90180,001,2022-04-20_23h10.09.888,SPAMnetsValid,2021.1.4,MacIntel,58.82352941,,,,,,,,,,,,,,,,,,,,,,,,,,,,,,,,,,,,,,,,,,,,,,,,,,,,,,,,,,,,,,,,,,,,,,,,,,,,,,,,,,,,,,,,,
,,1,2.811,1,2.811,0,1,1,16,1,14,broom,cookie,,90180,001,2022-04-20_23h10.09.888,SPAMnetsValid,2021.1.4,MacIntel,58.82352941,,,,,,,,,,,,,,,,,,,,,,,,,,,,,,,,,,,,,,,,,,,,,,,,,,,,,,,,,,,,,,,,,,,,,,,,,,,,,,,,,,,,,,,,,
,,6,2.957,6,2.957,0,2,2,33,1,32,cake,microwave,,90180,001,2022-04-20_23h10.09.888,SPAMnetsValid,2021.1.4,MacIntel,58.82352941,,,,,,,,,,,,,,,,,,,,,,,,,,,,,,,,,,,,,,,,,,,,,,,,,,,,,,,,,,,,,,,,,,,,,,,,,,,,,,,,,,,,,,,,,
,,2,1.504,2,1.504,0,3,3,45,1,10,flower,onion,,90180,001,2022-04-20_23h10.09.888,SPAMnetsValid,2021.1.4,MacIntel,58.82352941,,,,,,,,,,,,,,,,,,,,,,,,,,,,,,,,,,,,,,,,,,,,,,,,,,,,,,,,,,,,,,,,,,,,,,,,,,,,,,,,,,,,,,,,,
,,7,2.241,7,2.241,0,4,4,60,1,89,chocolate,rose,,90180,001,2022-04-20_23h10.09.888,SPAMnetsValid,2021.1.4,MacIntel,58.82352941,,,,,,,,,,,,,,,,,,,,,,,,,,,,,,,,,,,,,,,,,,,,,,,,,,,,,,,,,,,,,,,,,,,,,,,,,,,,,,,,,,,,,,,,,
,,1,1.895,1,1.895,0,5,5,0,1,53,garden,pretzel,,90180,001,2022-04-20_23h10.09.888,SPAMnetsValid,2021.1.4,MacIntel,58.82352941,,,,,,,,,,,,,,,,,,,,,,,,,,,,,,,,,,,,,,,,,,,,,,,,,,,,,,,,,,,,,,,,,,,,,,,,,,,,,,,,,,,,,,,,,
,,4,2.063,4,2.063,0,6,6,68,1,24,cookie,tomato,,90180,001,2022-04-20_23h10.09.888,SPAMnetsValid,2021.1.4,MacIntel,58.82352941,,,,,,,,,,,,,,,,,,,,,,,,,,,,,,,,,,,,,,,,,,,,,,,,,,,,,,,,,,,,,,,,,,,,,,,,,,,,,,,,,,,,,,,,,
,,1,2.071,1,2.071,0,7,7,46,1,41,broom,cactus,,90180,001,2022-04-20_23h10.09.888,SPAMnetsValid,2021.1.4,MacIntel,58.82352941,,,,,,,,,,,,,,,,,,,,,,,,,,,,,,,,,,,,,,,,,,,,,,,,,,,,,,,,,,,,,,,,,,,,,,,,,,,,,,,,,,,,,,,,,
,,8,1.571,8,1.571,0,8,8,86,1,51,onion,strawberry,,90180,001,2022-04-20_23h10.09.888,SPAMnetsValid,2021.1.4,MacIntel,58.82352941,,,,,,,,,,,,,,,,,,,,,,,,,,,,,,,,,,,,,,,,,,,,,,,,,,,,,,,,,,,,,,,,,,,,,,,,,,,,,,,,,,,,,,,,,
,,1,1.425,1,1.425,0,9,9,43,1,11,refrigerator,tree,,90180,001,2022-04-20_23h10.09.888,SPAMnetsValid,2021.1.4,MacIntel,58.82352941,,,,,,,,,,,,,,,,,,,,,,,,,,,,,,,,,,,,,,,,,,,,,,,,,,,,,,,,,,,,,,,,,,,,,,,,,,,,,,,,,,,,,,,,,
,,2,1.591,2,1.591,0,10,10,26,1,35,flower,pretzel,,90180,001,2022-04-20_23h10.09.888,SPAMnetsValid,2021.1.4,MacIntel,58.82352941,,,,,,,,,,,,,,,,,,,,,,,,,,,,,,,,,,,,,,,,,,,,,,,,,,,,,,,,,,,,,,,,,,,,,,,,,,,,,,,,,,,,,,,,,
,,9,1.778,9,1.778,0,11,11,76,1,36,broom,kitchen,,90180,001,2022-04-20_23h10.09.888,SPAMnetsValid,2021.1.4,MacIntel,58.82352941,,,,,,,,,,,,,,,,,,,,,,,,,,,,,,,,,,,,,,,,,,,,,,,,,,,,,,,,,,,,,,,,,,,,,,,,,,,,,,,,,,,,,,,,,
,,6,2.004,6,2.004,0,12,12,41,1,19,microwave,pretzel,,90180,001,2022-04-20_23h10.09.888,SPAMnetsValid,2021.1.4,MacIntel,58.82352941,,,,,,,,,,,,,,,,,,,,,,,,,,,,,,,,,,,,,,,,,,,,,,,,,,,,,,,,,,,,,,,,,,,,,,,,,,,,,,,,,,,,,,,,,
,,2,1.625,2,1.625,0,13,13,56,1,78,cookie,rose,,90180,001,2022-04-20_23h10.09.888,SPAMnetsValid,2021.1.4,MacIntel,58.82352941,,,,,,,,,,,,,,,,,,,,,,,,,,,,,,,,,,,,,,,,,,,,,,,,,,,,,,,,,,,,,,,,,,,,,,,,,,,,,,,,,,,,,,,,,
,,8,2.466,8,2.466,0,14,14,24,1,17,carrot,melon,,90180,001,2022-04-20_23h10.09.888,SPAMnetsValid,2021.1.4,MacIntel,58.82352941,,,,,,,,,,,,,,,,,,,,,,,,,,,,,,,,,,,,,,,,,,,,,,,,,,,,,,,,,,,,,,,,,,,,,,,,,,,,,,,,,,,,,,,,,
,,9,1.748,9,1.748,0,15,15,19,1,76,garden,rose,,90180,001,2022-04-20_23h10.09.888,SPAMnetsValid,2021.1.4,MacIntel,58.82352941,,,,,,,,,,,,,,,,,,,,,,,,,,,,,,,,,,,,,,,,,,,,,,,,,,,,,,,,,,,,,,,,,,,,,,,,,,,,,,,,,,,,,,,,,
,,7,1.881,7,1.881,0,16,16,77,1,7,melon,tree,,90180,001,2022-04-20_23h10.09.888,SPAMnetsValid,2021.1.4,MacIntel,58.82352941,,,,,,,,,,,,,,,,,,,,,,,,,,,,,,,,,,,,,,,,,,,,,,,,,,,,,,,,,,,,,,,,,,,,,,,,,,,,,,,,,,,,,,,,,
,,7,1.921,7,1.921,0,17,17,66,1,20,rose,tree,,90180,001,2022-04-20_23h10.09.888,SPAMnetsValid,2021.1.4,MacIntel,58.82352941,,,,,,,,,,,,,,,,,,,,,,,,,,,,,,,,,,,,,,,,,,,,,,,,,,,,,,,,,,,,,,,,,,,,,,,,,,,,,,,,,,,,,,,,,
,,8,1.628,8,1.628,0,18,18,3,1,49,flower,strawberry,,90180,001,2022-04-20_23h10.09.888,SPAMnetsValid,2021.1.4,MacIntel,58.82352941,,,,,,,,,,,,,,,,,,,,,,,,,,,,,,,,,,,,,,,,,,,,,,,,,,,,,,,,,,,,,,,,,,,,,,,,,,,,,,,,,,,,,,,,,
,,7,1.72,7,1.72,0,19,19,72,1,59,rose,strawberry,,90180,001,2022-04-20_23h10.09.888,SPAMnetsValid,2021.1.4,MacIntel,58.82352941,,,,,,,,,,,,,,,,,,,,,,,,,,,,,,,,,,,,,,,,,,,,,,,,,,,,,,,,,,,,,,,,,,,,,,,,,,,,,,,,,,,,,,,,,
,,8,1.349,8,1.349,0,20,20,94,1,68,flower,tomato,,90180,001,2022-04-20_23h10.09.888,SPAMnetsValid,2021.1.4,MacIntel,58.82352941,,,,,,,,,,,,,,,,,,,,,,,,,,,,,,,,,,,,,,,,,,,,,,,,,,,,,,,,,,,,,,,,,,,,,,,,,,,,,,,,,,,,,,,,,
,,7,1.446,7,1.446,0,21,21,73,1,50,carrot,rose,,90180,001,2022-04-20_23h10.09.888,SPAMnetsValid,2021.1.4,MacIntel,58.82352941,,,,,,,,,,,,,,,,,,,,,,,,,,,,,,,,,,,,,,,,,,,,,,,,,,,,,,,,,,,,,,,,,,,,,,,,,,,,,,,,,,,,,,,,,
,,1,1.679,1,1.679,0,22,22,88,1,92,broom,flower,,90180,001,2022-04-20_23h10.09.888,SPAMnetsValid,2021.1.4,MacIntel,58.82352941,,,,,,,,,,,,,,,,,,,,,,,,,,,,,,,,,,,,,,,,,,,,,,,,,,,,,,,,,,,,,,,,,,,,,,,,,,,,,,,,,,,,,,,,,
,,1,1.413,1,1.413,0,23,23,11,1,37,garden,refrigerator,,90180,001,2022-04-20_23h10.09.888,SPAMnetsValid,2021.1.4,MacIntel,58.82352941,,,,,,,,,,,,,,,,,,,,,,,,,,,,,,,,,,,,,,,,,,,,,,,,,,,,,,,,,,,,,,,,,,,,,,,,,,,,,,,,,,,,,,,,,
,,1,1.439,1,1.439,0,24,24,65,1,46,garden,yogurt,,90180,001,2022-04-20_23h10.09.888,SPAMnetsValid,2021.1.4,MacIntel,58.82352941,,,,,,,,,,,,,,,,,,,,,,,,,,,,,,,,,,,,,,,,,,,,,,,,,,,,,,,,,,,,,,,,,,,,,,,,,,,,,,,,,,,,,,,,,
,,3,5.499,3,5.499,0,25,25,17,1,27,cactus,cookie,,90180,001,2022-04-20_23h10.09.888,SPAMnetsValid,2021.1.4,MacIntel,58.82352941,,,,,,,,,,,,,,,,,,,,,,,,,,,,,,,,,,,,,,,,,,,,,,,,,,,,,,,,,,,,,,,,,,,,,,,,,,,,,,,,,,,,,,,,,
,,9,1.446,9,1.446,0,26,26,42,1,77,refrigerator,yogurt,,90180,001,2022-04-20_23h10.09.888,SPAMnetsValid,2021.1.4,MacIntel,58.82352941,,,,,,,,,,,,,,,,,,,,,,,,,,,,,,,,,,,,,,,,,,,,,,,,,,,,,,,,,,,,,,,,,,,,,,,,,,,,,,,,,,,,,,,,,
,,2,1.666,2,1.666,0,27,27,47,1,73,broom,chocolate,,90180,001,2022-04-20_23h10.09.888,SPAMnetsValid,2021.1.4,MacIntel,58.82352941,,,,,,,,,,,,,,,,,,,,,,,,,,,,,,,,,,,,,,,,,,,,,,,,,,,,,,,,,,,,,,,,,,,,,,,,,,,,,,,,,,,,,,,,,
,,8,1.889,8,1.889,0,28,28,9,1,75,cookie,onion,,90180,001,2022-04-20_23h10.09.888,SPAMnetsValid,2021.1.4,MacIntel,58.82352941,,,,,,,,,,,,,,,,,,,,,,,,,,,,,,,,,,,,,,,,,,,,,,,,,,,,,,,,,,,,,,,,,,,,,,,,,,,,,,,,,,,,,,,,,
,,7,1.912,7,1.912,0,29,29,20,1,39,melon,pretzel,,90180,001,2022-04-20_23h10.09.888,SPAMnetsValid,2021.1.4,MacIntel,58.82352941,,,,,,,,,,,,,,,,,,,,,,,,,,,,,,,,,,,,,,,,,,,,,,,,,,,,,,,,,,,,,,,,,,,,,,,,,,,,,,,,,,,,,,,,,
,,2,2.205,2,2.205,0,30,30,29,1,42,garden,kitchen,,90180,001,2022-04-20_23h10.09.888,SPAMnetsValid,2021.1.4,MacIntel,58.82352941,,,,,,,,,,,,,,,,,,,,,,,,,,,,,,,,,,,,,,,,,,,,,,,,,,,,,,,,,,,,,,,,,,,,,,,,,,,,,,,,,,,,,,,,,
,,3,1.804,3,1.804,0,31,31,70,1,5,oven,tree,,90180,001,2022-04-20_23h10.09.888,SPAMnetsValid,2021.1.4,MacIntel,58.82352941,,,,,,,,,,,,,,,,,,,,,,,,,,,,,,,,,,,,,,,,,,,,,,,,,,,,,,,,,,,,,,,,,,,,,,,,,,,,,,,,,,,,,,,,,
,,1,2.596,1,2.596,0,32,32,89,1,80,chocolate,tree,,90180,001,2022-04-20_23h10.09.888,SPAMnetsValid,2021.1.4,MacIntel,58.82352941,,,,,,,,,,,,,,,,,,,,,,,,,,,,,,,,,,,,,,,,,,,,,,,,,,,,,,,,,,,,,,,,,,,,,,,,,,,,,,,,,,,,,,,,,
,,9,1.221,9,1.221,0,33,33,53,1,192,microwave,microwave,CHECK,90180,001,2022-04-20_23h10.09.888,SPAMnetsValid,2021.1.4,MacIntel,58.82352941,,,,,,,,,,,,,,,,,,,,,,,,,,,,,,,,,,,,,,,,,,,,,,,,,,,,,,,,,,,,,,,,,,,,,,,,,,,,,,,,,,,,,,,,,
,,1,1.738,1,1.738,0,34,34,59,1,8,broom,melon,,90180,001,2022-04-20_23h10.09.888,SPAMnetsValid,2021.1.4,MacIntel,58.82352941,,,,,,,,,,,,,,,,,,,,,,,,,,,,,,,,,,,,,,,,,,,,,,,,,,,,,,,,,,,,,,,,,,,,,,,,,,,,,,,,,,,,,,,,,
,,7,2.688,7,2.688,0,35,35,21,1,56,cactus,tree,,90180,001,2022-04-20_23h10.09.888,SPAMnetsValid,2021.1.4,MacIntel,58.82352941,,,,,,,,,,,,,,,,,,,,,,,,,,,,,,,,,,,,,,,,,,,,,,,,,,,,,,,,,,,,,,,,,,,,,,,,,,,,,,,,,,,,,,,,,
,,1,1.538,1,1.538,0,36,36,37,1,58,garden,oven,,90180,001,2022-04-20_23h10.09.888,SPAMnetsValid,2021.1.4,MacIntel,58.82352941,,,,,,,,,,,,,,,,,,,,,,,,,,,,,,,,,,,,,,,,,,,,,,,,,,,,,,,,,,,,,,,,,,,,,,,,,,,,,,,,,,,,,,,,,
,,8,1.548,8,1.548,0,37,37,13,1,26,tomato,yogurt,,90180,001,2022-04-20_23h10.09.888,SPAMnetsValid,2021.1.4,MacIntel,58.82352941,,,,,,,,,,,,,,,,,,,,,,,,,,,,,,,,,,,,,,,,,,,,,,,,,,,,,,,,,,,,,,,,,,,,,,,,,,,,,,,,,,,,,,,,,
,,1,2.638,1,2.638,0,38,38,85,1,90,cactus,cake,,90180,001,2022-04-20_23h10.09.888,SPAMnetsValid,2021.1.4,MacIntel,58.82352941,,,,,,,,,,,,,,,,,,,,,,,,,,,,,,,,,,,,,,,,,,,,,,,,,,,,,,,,,,,,,,,,,,,,,,,,,,,,,,,,,,,,,,,,,
,,8,1.385,8,1.385,0,39,39,44,1,25,carrot,onion,,90180,001,2022-04-20_23h10.09.888,SPAMnetsValid,2021.1.4,MacIntel,58.82352941,,,,,,,,,,,,,,,,,,,,,,,,,,,,,,,,,,,,,,,,,,,,,,,,,,,,,,,,,,,,,,,,,,,,,,,,,,,,,,,,,,,,,,,,,
,,2,2.279,2,2.279,0,40,40,79,1,86,oven,rose,,90180,001,2022-04-20_23h10.09.888,SPAMnetsValid,2021.1.4,MacIntel,58.82352941,,,,,,,,,,,,,,,,,,,,,,,,,,,,,,,,,,,,,,,,,,,,,,,,,,,,,,,,,,,,,,,,,,,,,,,,,,,,,,,,,,,,,,,,,
,,8,1.598,8,1.598,0,41,41,90,1,95,broom,refrigerator,,90180,001,2022-04-20_23h10.09.888,SPAMnetsValid,2021.1.4,MacIntel,58.82352941,,,,,,,,,,,,,,,,,,,,,,,,,,,,,,,,,,,,,,,,,,,,,,,,,,,,,,,,,,,,,,,,,,,,,,,,,,,,,,,,,,,,,,,,,
,,7,1.329,7,1.329,0,42,42,63,1,21,cake,onion,,90180,001,2022-04-20_23h10.09.888,SPAMnetsValid,2021.1.4,MacIntel,58.82352941,,,,,,,,,,,,,,,,,,,,,,,,,,,,,,,,,,,,,,,,,,,,,,,,,,,,,,,,,,,,,,,,,,,,,,,,,,,,,,,,,,,,,,,,,
,,7,1.161,7,1.161,0,43,43,69,1,45,onion,pretzel,,90180,001,2022-04-20_23h10.09.888,SPAMnetsValid,2021.1.4,MacIntel,58.82352941,,,,,,,,,,,,,,,,,,,,,,,,,,,,,,,,,,,,,,,,,,,,,,,,,,,,,,,,,,,,,,,,,,,,,,,,,,,,,,,,,,,,,,,,,
,,2,2.465,2,2.465,0,44,44,39,1,15,onion,oven,,90180,001,2022-04-20_23h10.09.888,SPAMnetsValid,2021.1.4,MacIntel,58.82352941,,,,,,,,,,,,,,,,,,,,,,,,,,,,,,,,,,,,,,,,,,,,,,,,,,,,,,,,,,,,,,,,,,,,,,,,,,,,,,,,,,,,,,,,,
,,2,1.472,2,1.472,0,45,45,4,1,83,broom,carrot,,90180,001,2022-04-20_23h10.09.888,SPAMnetsValid,2021.1.4,MacIntel,58.82352941,,,,,,,,,,,,,,,,,,,,,,,,,,,,,,,,,,,,,,,,,,,,,,,,,,,,,,,,,,,,,,,,,,,,,,,,,,,,,,,,,,,,,,,,,
,,7,2.214,7,2.214,0,46,46,74,1,70,chocolate,onion,,90180,001,2022-04-20_23h10.09.888,SPAMnetsValid,2021.1.4,MacIntel,58.82352941,,,,,,,,,,,,,,,,,,,,,,,,,,,,,,,,,,,,,,,,,,,,,,,,,,,,,,,,,,,,,,,,,,,,,,,,,,,,,,,,,,,,,,,,,
,,2,4.822,2,4.822,0,47,47,49,1,57,flower,kitchen,,90180,001,2022-04-20_23h10.09.888,SPAMnetsValid,2021.1.4,MacIntel,58.82352941,,,,,,,,,,,,,,,,,,,,,,,,,,,,,,,,,,,,,,,,,,,,,,,,,,,,,,,,,,,,,,,,,,,,,,,,,,,,,,,,,,,,,,,,,
,,7,1.489,7,1.489,0,48,48,95,1,52,carrot,tomato,,90180,001,2022-04-20_23h10.09.888,SPAMnetsValid,2021.1.4,MacIntel,58.82352941,,,,,,,,,,,,,,,,,,,,,,,,,,,,,,,,,,,,,,,,,,,,,,,,,,,,,,,,,,,,,,,,,,,,,,,,,,,,,,,,,,,,,,,,,
,,7,0.89,7,0.89,0,49,49,36,1,12,cookie,yogurt,,90180,001,2022-04-20_23h10.09.888,SPAMnetsValid,2021.1.4,MacIntel,58.82352941,,,,,,,,,,,,,,,,,,,,,,,,,,,,,,,,,,,,,,,,,,,,,,,,,,,,,,,,,,,,,,,,,,,,,,,,,,,,,,,,,,,,,,,,,
,,7,1.281,7,1.281,0,50,50,80,1,61,strawberry,tomato,,90180,001,2022-04-20_23h10.09.888,SPAMnetsValid,2021.1.4,MacIntel,58.82352941,,,,,,,,,,,,,,,,,,,,,,,,,,,,,,,,,,,,,,,,,,,,,,,,,,,,,,,,,,,,,,,,,,,,,,,,,,,,,,,,,,,,,,,,,
,,1,1.945,1,1.945,0,51,51,27,1,72,broom,onion,,90180,001,2022-04-20_23h10.09.888,SPAMnetsValid,2021.1.4,MacIntel,58.82352941,,,,,,,,,,,,,,,,,,,,,,,,,,,,,,,,,,,,,,,,,,,,,,,,,,,,,,,,,,,,,,,,,,,,,,,,,,,,,,,,,,,,,,,,,
,,6,1.587,6,1.587,0,52,52,71,1,38,pretzel,refrigerator,,90180,001,2022-04-20_23h10.09.888,SPAMnetsValid,2021.1.4,MacIntel,58.82352941,,,,,,,,,,,,,,,,,,,,,,,,,,,,,,,,,,,,,,,,,,,,,,,,,,,,,,,,,,,,,,,,,,,,,,,,,,,,,,,,,,,,,,,,,
,,9,2.337,9,2.337,0,53,53,87,1,79,garden,strawberry,,90180,001,2022-04-20_23h10.09.888,SPAMnetsValid,2021.1.4,MacIntel,58.82352941,,,,,,,,,,,,,,,,,,,,,,,,,,,,,,,,,,,,,,,,,,,,,,,,,,,,,,,,,,,,,,,,,,,,,,,,,,,,,,,,,,,,,,,,,
,,8,2.261,8,2.261,0,54,54,75,1,69,carrot,refrigerator,,90180,001,2022-04-20_23h10.09.888,SPAMnetsValid,2021.1.4,MacIntel,58.82352941,,,,,,,,,,,,,,,,,,,,,,,,,,,,,,,,,,,,,,,,,,,,,,,,,,,,,,,,,,,,,,,,,,,,,,,,,,,,,,,,,,,,,,,,,
,,9,3.89,9,3.89,0,55,55,30,1,3,cake,oven,,90180,001,2022-04-20_23h10.09.888,SPAMnetsValid,2021.1.4,MacIntel,58.82352941,,,,,,,,,,,,,,,,,,,,,,,,,,,,,,,,,,,,,,,,,,,,,,,,,,,,,,,,,,,,,,,,,,,,,,,,,,,,,,,,,,,,,,,,,
,,1,1.77,1,1.77,0,56,56,57,1,62,kitchen,rose,,90180,001,2022-04-20_23h10.09.888,SPAMnetsValid,2021.1.4,MacIntel,58.82352941,,,,,,,,,,,,,,,,,,,,,,,,,,,,,,,,,,,,,,,,,,,,,,,,,,,,,,,,,,,,,,,,,,,,,,,,,,,,,,,,,,,,,,,,,
,,1,1.448,1,1.448,0,57,57,61,1,71,broom,rose,,90180,001,2022-04-20_23h10.09.888,SPAMnetsValid,2021.1.4,MacIntel,58.82352941,,,,,,,,,,,,,,,,,,,,,,,,,,,,,,,,,,,,,,,,,,,,,,,,,,,,,,,,,,,,,,,,,,,,,,,,,,,,,,,,,,,,,,,,,
,,7,1.416,7,1.416,0,58,58,50,1,81,pretzel,yogurt,,90180,001,2022-04-20_23h10.09.888,SPAMnetsValid,2021.1.4,MacIntel,58.82352941,,,,,,,,,,,,,,,,,,,,,,,,,,,,,,,,,,,,,,,,,,,,,,,,,,,,,,,,,,,,,,,,,,,,,,,,,,,,,,,,,,,,,,,,,
,,3,1.765,3,1.765,0,59,59,31,1,33,oven,yogurt,,90180,001,2022-04-20_23h10.09.888,SPAMnetsValid,2021.1.4,MacIntel,58.82352941,,,,,,,,,,,,,,,,,,,,,,,,,,,,,,,,,,,,,,,,,,,,,,,,,,,,,,,,,,,,,,,,,,,,,,,,,,,,,,,,,,,,,,,,,
,,4,2.597,4,2.597,0,60,60,35,1,55,tomato,tree,,90180,001,2022-04-20_23h10.09.888,SPAMnetsValid,2021.1.4,MacIntel,58.82352941,,,,,,,,,,,,,,,,,,,,,,,,,,,,,,,,,,,,,,,,,,,,,,,,,,,,,,,,,,,,,,,,,,,,,,,,,,,,,,,,,,,,,,,,,
,,9,2.52,9,2.52,0,61,61,83,1,6,garden,onion,,90180,001,2022-04-20_23h10.09.888,SPAMnetsValid,2021.1.4,MacIntel,58.82352941,,,,,,,,,,,,,,,,,,,,,,,,,,,,,,,,,,,,,,,,,,,,,,,,,,,,,,,,,,,,,,,,,,,,,,,,,,,,,,,,,,,,,,,,,
,,2,1.786,2,1.786,0,62,62,12,1,67,flower,yogurt,,90180,001,2022-04-20_23h10.09.888,SPAMnetsValid,2021.1.4,MacIntel,58.82352941,,,,,,,,,,,,,,,,,,,,,,,,,,,,,,,,,,,,,,,,,,,,,,,,,,,,,,,,,,,,,,,,,,,,,,,,,,,,,,,,,,,,,,,,,
,,7,1.246,7,1.246,0,63,63,84,1,91,microwave,rose,,90180,001,2022-04-20_23h10.09.888,SPAMnetsValid,2021.1.4,MacIntel,58.82352941,,,,,,,,,,,,,,,,,,,,,,,,,,,,,,,,,,,,,,,,,,,,,,,,,,,,,,,,,,,,,,,,,,,,,,,,,,,,,,,,,,,,,,,,,
,,9,6.681,9,6.681,0,64,64,64,1,9,kitchen,refrigerator,,90180,001,2022-04-20_23h10.09.888,SPAMnetsValid,2021.1.4,MacIntel,58.82352941,,,,,,,,,,,,,,,,,,,,,,,,,,,,,,,,,,,,,,,,,,,,,,,,,,,,,,,,,,,,,,,,,,,,,,,,,,,,,,,,,,,,,,,,,
,,1,2.454,1,2.454,0,65,65,22,1,16,chocolate,flower,,90180,001,2022-04-20_23h10.09.888,SPAMnetsValid,2021.1.4,MacIntel,58.82352941,,,,,,,,,,,,,,,,,,,,,,,,,,,,,,,,,,,,,,,,,,,,,,,,,,,,,,,,,,,,,,,,,,,,,,,,,,,,,,,,,,,,,,,,,
,,3,2,3,2,0,66,66,38,1,88,cactus,melon,,90180,001,2022-04-20_23h10.09.888,SPAMnetsValid,2021.1.4,MacIntel,58.82352941,,,,,,,,,,,,,,,,,,,,,,,,,,,,,,,,,,,,,,,,,,,,,,,,,,,,,,,,,,,,,,,,,,,,,,,,,,,,,,,,,,,,,,,,,
,,3,3.827,3,3.827,0,67,67,15,1,48,flower,oven,,90180,001,2022-04-20_23h10.09.888,SPAMnetsValid,2021.1.4,MacIntel,58.82352941,,,,,,,,,,,,,,,,,,,,,,,,,,,,,,,,,,,,,,,,,,,,,,,,,,,,,,,,,,,,,,,,,,,,,,,,,,,,,,,,,,,,,,,,,
,,8,1.39,8,1.39,0,68,68,6,1,87,carrot,yogurt,,90180,001,2022-04-20_23h10.09.888,SPAMnetsValid,2021.1.4,MacIntel,58.82352941,,,,,,,,,,,,,,,,,,,,,,,,,,,,,,,,,,,,,,,,,,,,,,,,,,,,,,,,,,,,,,,,,,,,,,,,,,,,,,,,,,,,,,,,,
,,7,1.443,7,1.443,0,69,69,54,1,28,cake,melon,,90180,001,2022-04-20_23h10.09.888,SPAMnetsValid,2021.1.4,MacIntel,58.82352941,,,,,,,,,,,,,,,,,,,,,,,,,,,,,,,,,,,,,,,,,,,,,,,,,,,,,,,,,,,,,,,,,,,,,,,,,,,,,,,,,,,,,,,,,
,,7,1.395,7,1.395,0,70,70,91,1,2,kitchen,onion,,90180,001,2022-04-20_23h10.09.888,SPAMnetsValid,2021.1.4,MacIntel,58.82352941,,,,,,,,,,,,,,,,,,,,,,,,,,,,,,,,,,,,,,,,,,,,,,,,,,,,,,,,,,,,,,,,,,,,,,,,,,,,,,,,,,,,,,,,,
,,1,1.714,1,1.714,0,71,71,25,1,23,flower,microwave,,90180,001,2022-04-20_23h10.09.888,SPAMnetsValid,2021.1.4,MacIntel,58.82352941,,,,,,,,,,,,,,,,,,,,,,,,,,,,,,,,,,,,,,,,,,,,,,,,,,,,,,,,,,,,,,,,,,,,,,,,,,,,,,,,,,,,,,,,,
,,1,1.379,1,1.379,0,72,72,23,1,65,broom,garden,,90180,001,2022-04-20_23h10.09.888,SPAMnetsValid,2021.1.4,MacIntel,58.82352941,,,,,,,,,,,,,,,,,,,,,,,,,,,,,,,,,,,,,,,,,,,,,,,,,,,,,,,,,,,,,,,,,,,,,,,,,,,,,,,,,,,,,,,,,
,,9,1.727,9,1.727,0,73,73,82,1,93,kitchen,oven,,90180,001,2022-04-20_23h10.09.888,SPAMnetsValid,2021.1.4,MacIntel,58.82352941,,,,,,,,,,,,,,,,,,,,,,,,,,,,,,,,,,,,,,,,,,,,,,,,,,,,,,,,,,,,,,,,,,,,,,,,,,,,,,,,,,,,,,,,,
,,7,1.637,7,1.637,0,74,74,34,1,29,chocolate,melon,,90180,001,2022-04-20_23h10.09.888,SPAMnetsValid,2021.1.4,MacIntel,58.82352941,,,,,,,,,,,,,,,,,,,,,,,,,,,,,,,,,,,,,,,,,,,,,,,,,,,,,,,,,,,,,,,,,,,,,,,,,,,,,,,,,,,,,,,,,
,,1,1.679,1,1.679,0,75,75,40,1,74,broom,pretzel,,90180,001,2022-04-20_23h10.09.888,SPAMnetsValid,2021.1.4,MacIntel,58.82352941,,,,,,,,,,,,,,,,,,,,,,,,,,,,,,,,,,,,,,,,,,,,,,,,,,,,,,,,,,,,,,,,,,,,,,,,,,,,,,,,,,,,,,,,,
,,1,2.578,1,2.578,0,76,76,1,1,31,cactus,pretzel,,90180,001,2022-04-20_23h10.09.888,SPAMnetsValid,2021.1.4,MacIntel,58.82352941,,,,,,,,,,,,,,,,,,,,,,,,,,,,,,,,,,,,,,,,,,,,,,,,,,,,,,,,,,,,,,,,,,,,,,,,,,,,,,,,,,,,,,,,,
,,7,1.815,7,1.815,0,77,77,67,1,54,chocolate,yogurt,,90180,001,2022-04-20_23h10.09.888,SPAMnetsValid,2021.1.4,MacIntel,58.82352941,,,,,,,,,,,,,,,,,,,,,,,,,,,,,,,,,,,,,,,,,,,,,,,,,,,,,,,,,,,,,,,,,,,,,,,,,,,,,,,,,,,,,,,,,
,,7,1.305,7,1.305,0,78,78,51,1,47,onion,tomato,,90180,001,2022-04-20_23h10.09.888,SPAMnetsValid,2021.1.4,MacIntel,58.82352941,,,,,,,,,,,,,,,,,,,,,,,,,,,,,,,,,,,,,,,,,,,,,,,,,,,,,,,,,,,,,,,,,,,,,,,,,,,,,,,,,,,,,,,,,
,,1,1.422,1,1.422,0,79,79,5,1,13,broom,yogurt,,90180,001,2022-04-20_23h10.09.888,SPAMnetsValid,2021.1.4,MacIntel,58.82352941,,,,,,,,,,,,,,,,,,,,,,,,,,,,,,,,,,,,,,,,,,,,,,,,,,,,,,,,,,,,,,,,,,,,,,,,,,,,,,,,,,,,,,,,,
,,1,1.43,1,1.43,0,80,80,81,1,60,cactus,onion,,90180,001,2022-04-20_23h10.09.888,SPAMnetsValid,2021.1.4,MacIntel,58.82352941,,,,,,,,,,,,,,,,,,,,,,,,,,,,,,,,,,,,,,,,,,,,,,,,,,,,,,,,,,,,,,,,,,,,,,,,,,,,,,,,,,,,,,,,,
,,7,1.421,7,1.421,0,81,81,78,1,30,cookie,pretzel,,90180,001,2022-04-20_23h10.09.888,SPAMnetsValid,2021.1.4,MacIntel,58.82352941,,,,,,,,,,,,,,,,,,,,,,,,,,,,,,,,,,,,,,,,,,,,,,,,,,,,,,,,,,,,,,,,,,,,,,,,,,,,,,,,,,,,,,,,,
,,9,1.857,9,1.857,0,82,82,52,1,4,chocolate,pretzel,,90180,001,2022-04-20_23h10.09.888,SPAMnetsValid,2021.1.4,MacIntel,58.82352941,,,,,,,,,,,,,,,,,,,,,,,,,,,,,,,,,,,,,,,,,,,,,,,,,,,,,,,,,,,,,,,,,,,,,,,,,,,,,,,,,,,,,,,,,
,,9,1.104,9,1.104,0,83,83,10,1,191,cake,cake,CHECK,90180,001,2022-04-20_23h10.09.888,SPAMnetsValid,2021.1.4,MacIntel,58.82352941,,,,,,,,,,,,,,,,,,,,,,,,,,,,,,,,,,,,,,,,,,,,,,,,,,,,,,,,,,,,,,,,,,,,,,,,,,,,,,,,,,,,,,,,,
,,1,2.729,1,2.729,0,84,84,7,1,34,melon,oven,,90180,001,2022-04-20_23h10.09.888,SPAMnetsValid,2021.1.4,MacIntel,58.82352941,,,,,,,,,,,,,,,,,,,,,,,,,,,,,,,,,,,,,,,,,,,,,,,,,,,,,,,,,,,,,,,,,,,,,,,,,,,,,,,,,,,,,,,,,
,,3,3.289,3,3.289,0,85,85,28,1,84,oven,tomato,,90180,001,2022-04-20_23h10.09.888,SPAMnetsValid,2021.1.4,MacIntel,58.82352941,,,,,,,,,,,,,,,,,,,,,,,,,,,,,,,,,,,,,,,,,,,,,,,,,,,,,,,,,,,,,,,,,,,,,,,,,,,,,,,,,,,,,,,,,
,,1,1.654,1,1.654,0,86,86,55,1,1,rose,yogurt,,90180,001,2022-04-20_23h10.09.888,SPAMnetsValid,2021.1.4,MacIntel,58.82352941,,,,,,,,,,,,,,,,,,,,,,,,,,,,,,,,,,,,,,,,,,,,,,,,,,,,,,,,,,,,,,,,,,,,,,,,,,,,,,,,,,,,,,,,,
,,7,1.53,7,1.53,0,87,87,8,1,43,chocolate,tomato,,90180,001,2022-04-20_23h10.09.888,SPAMnetsValid,2021.1.4,MacIntel,58.82352941,,,,,,,,,,,,,,,,,,,,,,,,,,,,,,,,,,,,,,,,,,,,,,,,,,,,,,,,,,,,,,,,,,,,,,,,,,,,,,,,,,,,,,,,,
,,9,1.49,9,1.49,0,88,88,96,1,82,cake,kitchen,,90180,001,2022-04-20_23h10.09.888,SPAMnetsValid,2021.1.4,MacIntel,58.82352941,,,,,,,,,,,,,,,,,,,,,,,,,,,,,,,,,,,,,,,,,,,,,,,,,,,,,,,,,,,,,,,,,,,,,,,,,,,,,,,,,,,,,,,,,
,,3,3.02,3,3.02,0,89,89,14,1,64,chocolate,garden,,90180,001,2022-04-20_23h10.09.888,SPAMnetsValid,2021.1.4,MacIntel,58.82352941,,,,,,,,,,,,,,,,,,,,,,,,,,,,,,,,,,,,,,,,,,,,,,,,,,,,,,,,,,,,,,,,,,,,,,,,,,,,,,,,,,,,,,,,,
,,7,1.348,7,1.348,0,90,90,48,1,66,melon,yogurt,,90180,001,2022-04-20_23h10.09.888,SPAMnetsValid,2021.1.4,MacIntel,58.82352941,,,,,,,,,,,,,,,,,,,,,,,,,,,,,,,,,,,,,,,,,,,,,,,,,,,,,,,,,,,,,,,,,,,,,,,,,,,,,,,,,,,,,,,,,
,,1,1.324,1,1.324,0,91,91,32,1,40,broom,cake,,90180,001,2022-04-20_23h10.09.888,SPAMnetsValid,2021.1.4,MacIntel,58.82352941,,,,,,,,,,,,,,,,,,,,,,,,,,,,,,,,,,,,,,,,,,,,,,,,,,,,,,,,,,,,,,,,,,,,,,,,,,,,,,,,,,,,,,,,,
,,9,1.697,9,1.697,0,92,92,58,1,94,kitchen,microwave,,90180,001,2022-04-20_23h10.09.888,SPAMnetsValid,2021.1.4,MacIntel,58.82352941,,,,,,,,,,,,,,,,,,,,,,,,,,,,,,,,,,,,,,,,,,,,,,,,,,,,,,,,,,,,,,,,,,,,,,,,,,,,,,,,,,,,,,,,,
,,9,2.911,9,2.911,0,93,93,93,1,63,cake,cookie,,90180,001,2022-04-20_23h10.09.888,SPAMnetsValid,2021.1.4,MacIntel,58.82352941,,,,,,,,,,,,,,,,,,,,,,,,,,,,,,,,,,,,,,,,,,,,,,,,,,,,,,,,,,,,,,,,,,,,,,,,,,,,,,,,,,,,,,,,,
,,7,2.778,7,2.778,0,94,94,62,1,18,onion,refrigerator,,90180,001,2022-04-20_23h10.09.888,SPAMnetsValid,2021.1.4,MacIntel,58.82352941,,,,,,,,,,,,,,,,,,,,,,,,,,,,,,,,,,,,,,,,,,,,,,,,,,,,,,,,,,,,,,,,,,,,,,,,,,,,,,,,,,,,,,,,,
,,6,1.671,6,1.671,0,95,95,92,1,44,cookie,melon,,90180,001,2022-04-20_23h10.09.888,SPAMnetsValid,2021.1.4,MacIntel,58.82352941,,,,,,,,,,,,,,,,,,,,,,,,,,,,,,,,,,,,,,,,,,,,,,,,,,,,,,,,,,,,,,,,,,,,,,,,,,,,,,,,,,,,,,,,,
,,1,1.567,1,1.567,0,96,96,18,1,85,cake,tree,,90180,001,2022-04-20_23h10.09.888,SPAMnetsValid,2021.1.4,MacIntel,58.82352941,,,,,,,,,,,,,,,,,,,,,,,,,,,,,,,,,,,,,,,,,,,,,,,,,,,,,,,,,,,,,,,,,,,,,,,,,,,,,,,,,,,,,,,,,
,,,,,,,,,,,,,,,90180,001,2022-04-20_23h10.09.888,SPAMnetsValid,2021.1.4,MacIntel,58.82352941,0,0,0,0,1,,,,,,,,,,,,,,,,,,,,,,,,,,,,,,,,,,,,,,,,,,,,,,,,,,,,,,,,,,,,,,,,,,,,,,,,,,,,,,,,,,,,
,,,,,,,,,,,,,,,90180,001,2022-04-20_23h10.09.888,SPAMnetsValid,2021.1.4,MacIntel,58.82352941,,,,,,0,0,0,0,1,1,0,,,,,,,,,,,,,,,,,,,,,,,,,,,,,,,,,,,,,,,,,,,,,,,,,,,,,,,,,,,,,,,,,,,,,,,,,,,,,
,,,,9,1.936,,,,,,106,cake,strawberry,,90180,001,2022-04-20_23h10.09.888,SPAMnetsValid,2021.1.4,MacIntel,58.82352941,,,,,,,,,,,,,9,1.936,0,0,0,0,1,,,,,,,,,,,,,,,,,,,,,,,,,,,,,,,,,,,,,,,,,,,,,,,,,,,,,,,,,,,,,,,,,,,,,,
,,,,8,1.42,,,,,,115,refrigerator,tomato,,90180,001,2022-04-20_23h10.09.888,SPAMnetsValid,2021.1.4,MacIntel,58.82352941,,,,,,,,,,,,,8,1.42,0,1,1,85,1,,,,,,,,,,,,,,,,,,,,,,,,,,,,,,,,,,,,,,,,,,,,,,,,,,,,,,,,,,,,,,,,,,,,,,
,,,,8,1.619,,,,,,131,cactus,garden,,90180,001,2022-04-20_23h10.09.888,SPAMnetsValid,2021.1.4,MacIntel,58.82352941,,,,,,,,,,,,,8,1.619,0,2,2,33,1,,,,,,,,,,,,,,,,,,,,,,,,,,,,,,,,,,,,,,,,,,,,,,,,,,,,,,,,,,,,,,,,,,,,,,
,,,,7,1.487,,,,,,169,onion,yogurt,,90180,001,2022-04-20_23h10.09.888,SPAMnetsValid,2021.1.4,MacIntel,58.82352941,,,,,,,,,,,,,7,1.487,0,3,3,24,1,,,,,,,,,,,,,,,,,,,,,,,,,,,,,,,,,,,,,,,,,,,,,,,,,,,,,,,,,,,,,,,,,,,,,,
,,,,7,1.64,,,,,,174,cake,pretzel,,90180,001,2022-04-20_23h10.09.888,SPAMnetsValid,2021.1.4,MacIntel,58.82352941,,,,,,,,,,,,,7,1.64,0,4,4,2,1,,,,,,,,,,,,,,,,,,,,,,,,,,,,,,,,,,,,,,,,,,,,,,,,,,,,,,,,,,,,,,,,,,,,,,
,,,,7,1.023,,,,,,141,melon,tomato,,90180,001,2022-04-20_23h10.09.888,SPAMnetsValid,2021.1.4,MacIntel,58.82352941,,,,,,,,,,,,,7,1.023,0,5,5,70,1,,,,,,,,,,,,,,,,,,,,,,,,,,,,,,,,,,,,,,,,,,,,,,,,,,,,,,,,,,,,,,,,,,,,,,
,,,,1,1.652,,,,,,157,refrigerator,rose,,90180,001,2022-04-20_23h10.09.888,SPAMnetsValid,2021.1.4,MacIntel,58.82352941,,,,,,,,,,,,,1,1.652,0,6,6,64,1,,,,,,,,,,,,,,,,,,,,,,,,,,,,,,,,,,,,,,,,,,,,,,,,,,,,,,,,,,,,,,,,,,,,,,
,,,,1,1.127,,,,,,145,cactus,yogurt,,90180,001,2022-04-20_23h10.09.888,SPAMnetsValid,2021.1.4,MacIntel,58.82352941,,,,,,,,,,,,,1,1.127,0,7,7,15,1,,,,,,,,,,,,,,,,,,,,,,,,,,,,,,,,,,,,,,,,,,,,,,,,,,,,,,,,,,,,,,,,,,,,,,
,,,,1,1.256,,,,,,121,broom,microwave,,90180,001,2022-04-20_23h10.09.888,SPAMnetsValid,2021.1.4,MacIntel,58.82352941,,,,,,,,,,,,,1,1.256,0,8,8,95,1,,,,,,,,,,,,,,,,,,,,,,,,,,,,,,,,,,,,,,,,,,,,,,,,,,,,,,,,,,,,,,,,,,,,,,
,,,,1,1.129,,,,,,104,garden,microwave,,90180,001,2022-04-20_23h10.09.888,SPAMnetsValid,2021.1.4,MacIntel,58.82352941,,,,,,,,,,,,,1,1.129,0,9,9,81,1,,,,,,,,,,,,,,,,,,,,,,,,,,,,,,,,,,,,,,,,,,,,,,,,,,,,,,,,,,,,,,,,,,,,,,
,,,,7,1.663,,,,,,175,melon,onion,,90180,001,2022-04-20_23h10.09.888,SPAMnetsValid,2021.1.4,MacIntel,58.82352941,,,,,,,,,,,,,7,1.663,0,10,10,41,1,,,,,,,,,,,,,,,,,,,,,,,,,,,,,,,,,,,,,,,,,,,,,,,,,,,,,,,,,,,,,,,,,,,,,,
,,,,6,7.043,,,,,,111,carrot,microwave,,90180,001,2022-04-20_23h10.09.888,SPAMnetsValid,2021.1.4,MacIntel,58.82352941,,,,,,,,,,,,,6,7.043,0,11,11,16,1,,,,,,,,,,,,,,,,,,,,,,,,,,,,,,,,,,,,,,,,,,,,,,,,,,,,,,,,,,,,,,,,,,,,,,
,,,,9,2.065,,,,,,167,carrot,garden,,90180,001,2022-04-20_23h10.09.888,SPAMnetsValid,2021.1.4,MacIntel,58.82352941,,,,,,,,,,,,,9,2.065,0,12,12,47,1,,,,,,,,,,,,,,,,,,,,,,,,,,,,,,,,,,,,,,,,,,,,,,,,,,,,,,,,,,,,,,,,,,,,,,
,,,,9,1.438,,,,,,172,kitchen,melon,,90180,001,2022-04-20_23h10.09.888,SPAMnetsValid,2021.1.4,MacIntel,58.82352941,,,,,,,,,,,,,9,1.438,0,13,13,77,1,,,,,,,,,,,,,,,,,,,,,,,,,,,,,,,,,,,,,,,,,,,,,,,,,,,,,,,,,,,,,,,,,,,,,,
,,,,9,0.971,,,,,,193,melon,melon,CHECK,90180,001,2022-04-20_23h10.09.888,SPAMnetsValid,2021.1.4,MacIntel,58.82352941,,,,,,,,,,,,,9,0.971,0,14,14,86,1,,,,,,,,,,,,,,,,,,,,,,,,,,,,,,,,,,,,,,,,,,,,,,,,,,,,,,,,,,,,,,,,,,,,,,
,,,,1,2.311,,,,,,179,broom,oven,,90180,001,2022-04-20_23h10.09.888,SPAMnetsValid,2021.1.4,MacIntel,58.82352941,,,,,,,,,,,,,1,2.311,0,15,15,45,1,,,,,,,,,,,,,,,,,,,,,,,,,,,,,,,,,,,,,,,,,,,,,,,,,,,,,,,,,,,,,,,,,,,,,,
,,,,2,3.69,,,,,,123,cookie,tree,,90180,001,2022-04-20_23h10.09.888,SPAMnetsValid,2021.1.4,MacIntel,58.82352941,,,,,,,,,,,,,2,3.69,0,16,16,46,1,,,,,,,,,,,,,,,,,,,,,,,,,,,,,,,,,,,,,,,,,,,,,,,,,,,,,,,,,,,,,,,,,,,,,,
,,,,8,2.496,,,,,,170,cookie,microwave,,90180,001,2022-04-20_23h10.09.888,SPAMnetsValid,2021.1.4,MacIntel,58.82352941,,,,,,,,,,,,,8,2.496,0,17,17,92,1,,,,,,,,,,,,,,,,,,,,,,,,,,,,,,,,,,,,,,,,,,,,,,,,,,,,,,,,,,,,,,,,,,,,,,
,,,,6,2.532,,,,,,125,carrot,tree,,90180,001,2022-04-20_23h10.09.888,SPAMnetsValid,2021.1.4,MacIntel,58.82352941,,,,,,,,,,,,,6,2.532,0,18,18,30,1,,,,,,,,,,,,,,,,,,,,,,,,,,,,,,,,,,,,,,,,,,,,,,,,,,,,,,,,,,,,,,,,,,,,,,
,,,,9,3.588,,,,,,138,flower,rose,,90180,001,2022-04-20_23h10.09.888,SPAMnetsValid,2021.1.4,MacIntel,58.82352941,,,,,,,,,,,,,9,3.588,0,19,19,61,1,,,,,,,,,,,,,,,,,,,,,,,,,,,,,,,,,,,,,,,,,,,,,,,,,,,,,,,,,,,,,,,,,,,,,,
,,,,4,3.644,,,,,,190,microwave,strawberry,,90180,001,2022-04-20_23h10.09.888,SPAMnetsValid,2021.1.4,MacIntel,58.82352941,,,,,,,,,,,,,4,3.644,0,20,20,90,1,,,,,,,,,,,,,,,,,,,,,,,,,,,,,,,,,,,,,,,,,,,,,,,,,,,,,,,,,,,,,,,,,,,,,,
,,,,8,2.903,,,,,,160,cookie,kitchen,,90180,001,2022-04-20_23h10.09.888,SPAMnetsValid,2021.1.4,MacIntel,58.82352941,,,,,,,,,,,,,8,2.903,0,21,21,65,1,,,,,,,,,,,,,,,,,,,,,,,,,,,,,,,,,,,,,,,,,,,,,,,,,,,,,,,,,,,,,,,,,,,,,,
,,,,7,2.072,,,,,,124,oven,refrigerator,,90180,001,2022-04-20_23h10.09.888,SPAMnetsValid,2021.1.4,MacIntel,58.82352941,,,,,,,,,,,,,7,2.072,0,22,22,69,1,,,,,,,,,,,,,,,,,,,,,,,,,,,,,,,,,,,,,,,,,,,,,,,,,,,,,,,,,,,,,,,,,,,,,,
,,,,7,1.454,,,,,,150,microwave,refrigerator,,90180,001,2022-04-20_23h10.09.888,SPAMnetsValid,2021.1.4,MacIntel,58.82352941,,,,,,,,,,,,,7,1.454,0,23,23,66,1,,,,,,,,,,,,,,,,,,,,,,,,,,,,,,,,,,,,,,,,,,,,,,,,,,,,,,,,,,,,,,,,,,,,,,
,,,,9,1.547,,,,,,100,garden,tomato,,90180,001,2022-04-20_23h10.09.888,SPAMnetsValid,2021.1.4,MacIntel,58.82352941,,,,,,,,,,,,,9,1.547,0,24,24,83,1,,,,,,,,,,,,,,,,,,,,,,,,,,,,,,,,,,,,,,,,,,,,,,,,,,,,,,,,,,,,,,,,,,,,,,
,,,,8,1.661,,,,,,168,cactus,flower,,90180,001,2022-04-20_23h10.09.888,SPAMnetsValid,2021.1.4,MacIntel,58.82352941,,,,,,,,,,,,,8,1.661,0,25,25,51,1,,,,,,,,,,,,,,,,,,,,,,,,,,,,,,,,,,,,,,,,,,,,,,,,,,,,,,,,,,,,,,,,,,,,,,
,,,,1,1.446,,,,,,105,cactus,oven,,90180,001,2022-04-20_23h10.09.888,SPAMnetsValid,2021.1.4,MacIntel,58.82352941,,,,,,,,,,,,,1,1.446,0,26,26,13,1,,,,,,,,,,,,,,,,,,,,,,,,,,,,,,,,,,,,,,,,,,,,,,,,,,,,,,,,,,,,,,,,,,,,,,
,,,,5,1.613,,,,,,103,pretzel,tomato,,90180,001,2022-04-20_23h10.09.888,SPAMnetsValid,2021.1.4,MacIntel,58.82352941,,,,,,,,,,,,,5,1.613,0,27,27,79,1,,,,,,,,,,,,,,,,,,,,,,,,,,,,,,,,,,,,,,,,,,,,,,,,,,,,,,,,,,,,,,,,,,,,,,
,,,,8,2.995,,,,,,139,carrot,strawberry,,90180,001,2022-04-20_23h10.09.888,SPAMnetsValid,2021.1.4,MacIntel,58.82352941,,,,,,,,,,,,,8,2.995,0,28,28,37,1,,,,,,,,,,,,,,,,,,,,,,,,,,,,,,,,,,,,,,,,,,,,,,,,,,,,,,,,,,,,,,,,,,,,,,
,,,,6,2.623,,,,,,119,strawberry,tree,,90180,001,2022-04-20_23h10.09.888,SPAMnetsValid,2021.1.4,MacIntel,58.82352941,,,,,,,,,,,,,6,2.623,0,29,29,18,1,,,,,,,,,,,,,,,,,,,,,,,,,,,,,,,,,,,,,,,,,,,,,,,,,,,,,,,,,,,,,,,,,,,,,,
,,,,6,1.534,,,,,,188,flower,tree,,90180,001,2022-04-20_23h10.09.888,SPAMnetsValid,2021.1.4,MacIntel,58.82352941,,,,,,,,,,,,,6,1.534,0,30,30,7,1,,,,,,,,,,,,,,,,,,,,,,,,,,,,,,,,,,,,,,,,,,,,,,,,,,,,,,,,,,,,,,,,,,,,,,
,,,,2,3.453,,,,,,118,chocolate,oven,,90180,001,2022-04-20_23h10.09.888,SPAMnetsValid,2021.1.4,MacIntel,58.82352941,,,,,,,,,,,,,2,3.453,0,31,31,10,1,,,,,,,,,,,,,,,,,,,,,,,,,,,,,,,,,,,,,,,,,,,,,,,,,,,,,,,,,,,,,,,,,,,,,,
,,,,8,2.272,,,,,,186,kitchen,yogurt,,90180,001,2022-04-20_23h10.09.888,SPAMnetsValid,2021.1.4,MacIntel,58.82352941,,,,,,,,,,,,,8,2.272,0,32,32,48,1,,,,,,,,,,,,,,,,,,,,,,,,,,,,,,,,,,,,,,,,,,,,,,,,,,,,,,,,,,,,,,,,,,,,,,
,,,,6,2.599,,,,,,144,cake,garden,,90180,001,2022-04-20_23h10.09.888,SPAMnetsValid,2021.1.4,MacIntel,58.82352941,,,,,,,,,,,,,6,2.599,0,33,33,58,1,,,,,,,,,,,,,,,,,,,,,,,,,,,,,,,,,,,,,,,,,,,,,,,,,,,,,,,,,,,,,,,,,,,,,,
,,,,6,3.178,,,,,,102,chocolate,refrigerator,,90180,001,2022-04-20_23h10.09.888,SPAMnetsValid,2021.1.4,MacIntel,58.82352941,,,,,,,,,,,,,6,3.178,0,34,34,76,1,,,,,,,,,,,,,,,,,,,,,,,,,,,,,,,,,,,,,,,,,,,,,,,,,,,,,,,,,,,,,,,,,,,,,,
,,,,2,1.946,,,,,,152,cactus,strawberry,,90180,001,2022-04-20_23h10.09.888,SPAMnetsValid,2021.1.4,MacIntel,58.82352941,,,,,,,,,,,,,2,1.946,0,35,35,49,1,,,,,,,,,,,,,,,,,,,,,,,,,,,,,,,,,,,,,,,,,,,,,,,,,,,,,,,,,,,,,,,,,,,,,,
,,,,2,1.613,,,,,,128,melon,microwave,,90180,001,2022-04-20_23h10.09.888,SPAMnetsValid,2021.1.4,MacIntel,58.82352941,,,,,,,,,,,,,2,1.613,0,36,36,74,1,,,,,,,,,,,,,,,,,,,,,,,,,,,,,,,,,,,,,,,,,,,,,,,,,,,,,,,,,,,,,,,,,,,,,,
,,,,9,2.227,,,,,,112,cake,carrot,,90180,001,2022-04-20_23h10.09.888,SPAMnetsValid,2021.1.4,MacIntel,58.82352941,,,,,,,,,,,,,9,2.227,0,37,37,39,1,,,,,,,,,,,,,,,,,,,,,,,,,,,,,,,,,,,,,,,,,,,,,,,,,,,,,,,,,,,,,,,,,,,,,,
,,,,8,2.187,,,,,,185,cactus,rose,,90180,001,2022-04-20_23h10.09.888,SPAMnetsValid,2021.1.4,MacIntel,58.82352941,,,,,,,,,,,,,8,2.187,0,38,38,43,1,,,,,,,,,,,,,,,,,,,,,,,,,,,,,,,,,,,,,,,,,,,,,,,,,,,,,,,,,,,,,,,,,,,,,,
,,,,1,1.961,,,,,,135,carrot,oven,,90180,001,2022-04-20_23h10.09.888,SPAMnetsValid,2021.1.4,MacIntel,58.82352941,,,,,,,,,,,,,1,1.961,0,39,39,73,1,,,,,,,,,,,,,,,,,,,,,,,,,,,,,,,,,,,,,,,,,,,,,,,,,,,,,,,,,,,,,,,,,,,,,,
,,,,2,1.874,,,,,,189,onion,tree,,90180,001,2022-04-20_23h10.09.888,SPAMnetsValid,2021.1.4,MacIntel,58.82352941,,,,,,,,,,,,,2,1.874,0,40,40,62,1,,,,,,,,,,,,,,,,,,,,,,,,,,,,,,,,,,,,,,,,,,,,,,,,,,,,,,,,,,,,,,,,,,,,,,
,,,,7,1.737,,,,,,117,melon,strawberry,,90180,001,2022-04-20_23h10.09.888,SPAMnetsValid,2021.1.4,MacIntel,58.82352941,,,,,,,,,,,,,7,1.737,0,41,41,11,1,,,,,,,,,,,,,,,,,,,,,,,,,,,,,,,,,,,,,,,,,,,,,,,,,,,,,,,,,,,,,,,,,,,,,,
,,,,1,1.903,,,,,,176,cactus,tomato,,90180,001,2022-04-20_23h10.09.888,SPAMnetsValid,2021.1.4,MacIntel,58.82352941,,,,,,,,,,,,,1,1.903,0,42,42,9,1,,,,,,,,,,,,,,,,,,,,,,,,,,,,,,,,,,,,,,,,,,,,,,,,,,,,,,,,,,,,,,,,,,,,,,
,,,,1,1.554,,,,,,159,cookie,flower,,90180,001,2022-04-20_23h10.09.888,SPAMnetsValid,2021.1.4,MacIntel,58.82352941,,,,,,,,,,,,,1,1.554,0,43,43,21,1,,,,,,,,,,,,,,,,,,,,,,,,,,,,,,,,,,,,,,,,,,,,,,,,,,,,,,,,,,,,,,,,,,,,,,
,,,,8,2.011,,,,,,113,refrigerator,strawberry,,90180,001,2022-04-20_23h10.09.888,SPAMnetsValid,2021.1.4,MacIntel,58.82352941,,,,,,,,,,,,,8,2.011,0,44,44,56,1,,,,,,,,,,,,,,,,,,,,,,,,,,,,,,,,,,,,,,,,,,,,,,,,,,,,,,,,,,,,,,,,,,,,,,
,,,,9,1.814,,,,,,120,microwave,oven,,90180,001,2022-04-20_23h10.09.888,SPAMnetsValid,2021.1.4,MacIntel,58.82352941,,,,,,,,,,,,,9,1.814,0,45,45,14,1,,,,,,,,,,,,,,,,,,,,,,,,,,,,,,,,,,,,,,,,,,,,,,,,,,,,,,,,,,,,,,,,,,,,,,
,,,,8,1.437,,,,,,173,kitchen,tomato,,90180,001,2022-04-20_23h10.09.888,SPAMnetsValid,2021.1.4,MacIntel,58.82352941,,,,,,,,,,,,,8,1.437,0,46,46,1,1,,,,,,,,,,,,,,,,,,,,,,,,,,,,,,,,,,,,,,,,,,,,,,,,,,,,,,,,,,,,,,,,,,,,,,
,,,,8,1.48,,,,,,107,rose,tomato,,90180,001,2022-04-20_23h10.09.888,SPAMnetsValid,2021.1.4,MacIntel,58.82352941,,,,,,,,,,,,,8,1.48,0,47,47,26,1,,,,,,,,,,,,,,,,,,,,,,,,,,,,,,,,,,,,,,,,,,,,,,,,,,,,,,,,,,,,,,,,,,,,,,
,,,,8,1.057,,,,,,166,cake,yogurt,,90180,001,2022-04-20_23h10.09.888,SPAMnetsValid,2021.1.4,MacIntel,58.82352941,,,,,,,,,,,,,8,1.057,0,48,48,91,1,,,,,,,,,,,,,,,,,,,,,,,,,,,,,,,,,,,,,,,,,,,,,,,,,,,,,,,,,,,,,,,,,,,,,,
,,,,3,1.696,,,,,,143,pretzel,rose,,90180,001,2022-04-20_23h10.09.888,SPAMnetsValid,2021.1.4,MacIntel,58.82352941,,,,,,,,,,,,,3,1.696,0,49,49,55,1,,,,,,,,,,,,,,,,,,,,,,,,,,,,,,,,,,,,,,,,,,,,,,,,,,,,,,,,,,,,,,,,,,,,,,
,,,,7,2.323,,,,,,184,oven,pretzel,,90180,001,2022-04-20_23h10.09.888,SPAMnetsValid,2021.1.4,MacIntel,58.82352941,,,,,,,,,,,,,7,2.323,0,50,50,42,1,,,,,,,,,,,,,,,,,,,,,,,,,,,,,,,,,,,,,,,,,,,,,,,,,,,,,,,,,,,,,,,,,,,,,,
,,,,3,2.032,,,,,,165,onion,rose,,90180,001,2022-04-20_23h10.09.888,SPAMnetsValid,2021.1.4,MacIntel,58.82352941,,,,,,,,,,,,,3,2.032,0,51,51,40,1,,,,,,,,,,,,,,,,,,,,,,,,,,,,,,,,,,,,,,,,,,,,,,,,,,,,,,,,,,,,,,,,,,,,,,
,,,,1,1.523,,,,,,137,microwave,tree,,90180,001,2022-04-20_23h10.09.888,SPAMnetsValid,2021.1.4,MacIntel,58.82352941,,,,,,,,,,,,,1,1.523,0,52,52,63,1,,,,,,,,,,,,,,,,,,,,,,,,,,,,,,,,,,,,,,,,,,,,,,,,,,,,,,,,,,,,,,,,,,,,,,
,,,,1,1.356,,,,,,126,kitchen,tree,,90180,001,2022-04-20_23h10.09.888,SPAMnetsValid,2021.1.4,MacIntel,58.82352941,,,,,,,,,,,,,1,1.356,0,53,53,50,1,,,,,,,,,,,,,,,,,,,,,,,,,,,,,,,,,,,,,,,,,,,,,,,,,,,,,,,,,,,,,,,,,,,,,,
,,,,1,1.129,,,,,,149,broom,tomato,,90180,001,2022-04-20_23h10.09.888,SPAMnetsValid,2021.1.4,MacIntel,58.82352941,,,,,,,,,,,,,1,1.129,0,54,54,20,1,,,,,,,,,,,,,,,,,,,,,,,,,,,,,,,,,,,,,,,,,,,,,,,,,,,,,,,,,,,,,,,,,,,,,,
,,,,7,1.49,,,,,,108,carrot,chocolate,,90180,001,2022-04-20_23h10.09.888,SPAMnetsValid,2021.1.4,MacIntel,58.82352941,,,,,,,,,,,,,7,1.49,0,55,55,5,1,,,,,,,,,,,,,,,,,,,,,,,,,,,,,,,,,,,,,,,,,,,,,,,,,,,,,,,,,,,,,,,,,,,,,,
,,,,1,1.621,,,,,,164,cookie,garden,,90180,001,2022-04-20_23h10.09.888,SPAMnetsValid,2021.1.4,MacIntel,58.82352941,,,,,,,,,,,,,1,1.621,0,56,56,59,1,,,,,,,,,,,,,,,,,,,,,,,,,,,,,,,,,,,,,,,,,,,,,,,,,,,,,,,,,,,,,,,,,,,,,,
,,,,8,1.488,,,,,,161,kitchen,pretzel,,90180,001,2022-04-20_23h10.09.888,SPAMnetsValid,2021.1.4,MacIntel,58.82352941,,,,,,,,,,,,,8,1.488,0,57,57,36,1,,,,,,,,,,,,,,,,,,,,,,,,,,,,,,,,,,,,,,,,,,,,,,,,,,,,,,,,,,,,,,,,,,,,,,
,,,,8,1.277,,,,,,97,chocolate,kitchen,,90180,001,2022-04-20_23h10.09.888,SPAMnetsValid,2021.1.4,MacIntel,58.82352941,,,,,,,,,,,,,8,1.277,0,58,58,8,1,,,,,,,,,,,,,,,,,,,,,,,,,,,,,,,,,,,,,,,,,,,,,,,,,,,,,,,,,,,,,,,,,,,,,,
,,,,8,1.302,,,,,,114,cookie,strawberry,,90180,001,2022-04-20_23h10.09.888,SPAMnetsValid,2021.1.4,MacIntel,58.82352941,,,,,,,,,,,,,8,1.302,0,59,59,87,1,,,,,,,,,,,,,,,,,,,,,,,,,,,,,,,,,,,,,,,,,,,,,,,,,,,,,,,,,,,,,,,,,,,,,,
,,,,2,1.945,,,,,,127,cactus,chocolate,,90180,001,2022-04-20_23h10.09.888,SPAMnetsValid,2021.1.4,MacIntel,58.82352941,,,,,,,,,,,,,2,1.945,0,60,60,57,1,,,,,,,,,,,,,,,,,,,,,,,,,,,,,,,,,,,,,,,,,,,,,,,,,,,,,,,,,,,,,,,,,,,,,,
,,,,1,1.405,,,,,,101,cactus,kitchen,,90180,001,2022-04-20_23h10.09.888,SPAMnetsValid,2021.1.4,MacIntel,58.82352941,,,,,,,,,,,,,1,1.405,0,61,61,54,1,,,,,,,,,,,,,,,,,,,,,,,,,,,,,,,,,,,,,,,,,,,,,,,,,,,,,,,,,,,,,,,,,,,,,,
,,,,1,2.515,,,,,,109,broom,strawberry,,90180,001,2022-04-20_23h10.09.888,SPAMnetsValid,2021.1.4,MacIntel,58.82352941,,,,,,,,,,,,,1,2.515,0,62,62,4,1,,,,,,,,,,,,,,,,,,,,,,,,,,,,,,,,,,,,,,,,,,,,,,,,,,,,,,,,,,,,,,,,,,,,,,
,,,,6,3.34,,,,,,132,broom,tree,,90180,001,2022-04-20_23h10.09.888,SPAMnetsValid,2021.1.4,MacIntel,58.82352941,,,,,,,,,,,,,6,3.34,0,63,63,78,1,,,,,,,,,,,,,,,,,,,,,,,,,,,,,,,,,,,,,,,,,,,,,,,,,,,,,,,,,,,,,,,,,,,,,,
,,,,9,1.593,,,,,,177,chocolate,strawberry,,90180,001,2022-04-20_23h10.09.888,SPAMnetsValid,2021.1.4,MacIntel,58.82352941,,,,,,,,,,,,,9,1.593,0,64,64,53,1,,,,,,,,,,,,,,,,,,,,,,,,,,,,,,,,,,,,,,,,,,,,,,,,,,,,,,,,,,,,,,,,,,,,,,
,,,,9,0.955,,,,,,110,chocolate,cookie,,90180,001,2022-04-20_23h10.09.888,SPAMnetsValid,2021.1.4,MacIntel,58.82352941,,,,,,,,,,,,,9,0.955,0,65,65,52,1,,,,,,,,,,,,,,,,,,,,,,,,,,,,,,,,,,,,,,,,,,,,,,,,,,,,,,,,,,,,,,,,,,,,,,
,,,,7,2.558,,,,,,155,carrot,cookie,,90180,001,2022-04-20_23h10.09.888,SPAMnetsValid,2021.1.4,MacIntel,58.82352941,,,,,,,,,,,,,7,2.558,0,66,66,38,1,,,,,,,,,,,,,,,,,,,,,,,,,,,,,,,,,,,,,,,,,,,,,,,,,,,,,,,,,,,,,,,,,,,,,,
,,,,7,1.604,,,,,,140,cookie,refrigerator,,90180,001,2022-04-20_23h10.09.888,SPAMnetsValid,2021.1.4,MacIntel,58.82352941,,,,,,,,,,,,,7,1.604,0,67,67,89,1,,,,,,,,,,,,,,,,,,,,,,,,,,,,,,,,,,,,,,,,,,,,,,,,,,,,,,,,,,,,,,,,,,,,,,
,,,,4,4.973,,,,,,162,microwave,tomato,,90180,001,2022-04-20_23h10.09.888,SPAMnetsValid,2021.1.4,MacIntel,58.82352941,,,,,,,,,,,,,4,4.973,0,68,68,12,1,,,,,,,,,,,,,,,,,,,,,,,,,,,,,,,,,,,,,,,,,,,,,,,,,,,,,,,,,,,,,,,,,,,,,,
,,,,4,1.653,,,,,,171,cake,tomato,,90180,001,2022-04-20_23h10.09.888,SPAMnetsValid,2021.1.4,MacIntel,58.82352941,,,,,,,,,,,,,4,1.653,0,69,69,88,1,,,,,,,,,,,,,,,,,,,,,,,,,,,,,,,,,,,,,,,,,,,,,,,,,,,,,,,,,,,,,,,,,,,,,,
,,,,4,1.487,,,,,,130,microwave,yogurt,,90180,001,2022-04-20_23h10.09.888,SPAMnetsValid,2021.1.4,MacIntel,58.82352941,,,,,,,,,,,,,4,1.487,0,70,70,84,1,,,,,,,,,,,,,,,,,,,,,,,,,,,,,,,,,,,,,,,,,,,,,,,,,,,,,,,,,,,,,,,,,,,,,,
,,,,2,1.576,,,,,,146,pretzel,tree,,90180,001,2022-04-20_23h10.09.888,SPAMnetsValid,2021.1.4,MacIntel,58.82352941,,,,,,,,,,,,,2,1.576,0,71,71,80,1,,,,,,,,,,,,,,,,,,,,,,,,,,,,,,,,,,,,,,,,,,,,,,,,,,,,,,,,,,,,,,,,,,,,,,
,,,,9,1.678,,,,,,154,strawberry,yogurt,,90180,001,2022-04-20_23h10.09.888,SPAMnetsValid,2021.1.4,MacIntel,58.82352941,,,,,,,,,,,,,9,1.678,0,72,72,28,1,,,,,,,,,,,,,,,,,,,,,,,,,,,,,,,,,,,,,,,,,,,,,,,,,,,,,,,,,,,,,,,,,,,,,,
,,,,4,3.038,,,,,,133,cake,flower,,90180,001,2022-04-20_23h10.09.888,SPAMnetsValid,2021.1.4,MacIntel,58.82352941,,,,,,,,,,,,,4,3.038,0,73,73,94,1,,,,,,,,,,,,,,,,,,,,,,,,,,,,,,,,,,,,,,,,,,,,,,,,,,,,,,,,,,,,,,,,,,,,,,
,,,,7,2.194,,,,,,142,garden,tree,,90180,001,2022-04-20_23h10.09.888,SPAMnetsValid,2021.1.4,MacIntel,58.82352941,,,,,,,,,,,,,7,2.194,0,74,74,22,1,,,,,,,,,,,,,,,,,,,,,,,,,,,,,,,,,,,,,,,,,,,,,,,,,,,,,,,,,,,,,,,,,,,,,,
,,,,9,1.392,,,,,,194,cactus,cactus,CHECK,90180,001,2022-04-20_23h10.09.888,SPAMnetsValid,2021.1.4,MacIntel,58.82352941,,,,,,,,,,,,,9,1.392,0,75,75,25,1,,,,,,,,,,,,,,,,,,,,,,,,,,,,,,,,,,,,,,,,,,,,,,,,,,,,,,,,,,,,,,,,,,,,,,
,,,,1,1.573,,,,,,187,cactus,microwave,,90180,001,2022-04-20_23h10.09.888,SPAMnetsValid,2021.1.4,MacIntel,58.82352941,,,,,,,,,,,,,1,1.573,0,76,76,71,1,,,,,,,,,,,,,,,,,,,,,,,,,,,,,,,,,,,,,,,,,,,,,,,,,,,,,,,,,,,,,,,,,,,,,,
,,,,2,6.238,,,,,,99,garden,melon,,90180,001,2022-04-20_23h10.09.888,SPAMnetsValid,2021.1.4,MacIntel,58.82352941,,,,,,,,,,,,,2,6.238,0,77,77,17,1,,,,,,,,,,,,,,,,,,,,,,,,,,,,,,,,,,,,,,,,,,,,,,,,,,,,,,,,,,,,,,,,,,,,,,
,,,,4,1.783,,,,,,134,carrot,flower,,90180,001,2022-04-20_23h10.09.888,SPAMnetsValid,2021.1.4,MacIntel,58.82352941,,,,,,,,,,,,,4,1.783,0,78,78,93,1,,,,,,,,,,,,,,,,,,,,,,,,,,,,,,,,,,,,,,,,,,,,,,,,,,,,,,,,,,,,,,,,,,,,,,
,,,,8,1.48,,,,,,163,melon,refrigerator,,90180,001,2022-04-20_23h10.09.888,SPAMnetsValid,2021.1.4,MacIntel,58.82352941,,,,,,,,,,,,,8,1.48,0,79,79,29,1,,,,,,,,,,,,,,,,,,,,,,,,,,,,,,,,,,,,,,,,,,,,,,,,,,,,,,,,,,,,,,,,,,,,,,
,,,,7,1.429,,,,,,98,pretzel,strawberry,,90180,001,2022-04-20_23h10.09.888,SPAMnetsValid,2021.1.4,MacIntel,58.82352941,,,,,,,,,,,,,7,1.429,0,80,80,82,1,,,,,,,,,,,,,,,,,,,,,,,,,,,,,,,,,,,,,,,,,,,,,,,,,,,,,,,,,,,,,,,,,,,,,,
,,,,3,8.229,,,,,,183,cake,rose,,90180,001,2022-04-20_23h10.09.888,SPAMnetsValid,2021.1.4,MacIntel,58.82352941,,,,,,,,,,,,,3,8.229,0,81,81,19,1,,,,,,,,,,,,,,,,,,,,,,,,,,,,,,,,,,,,,,,,,,,,,,,,,,,,,,,,,,,,,,,,,,,,,,
,,,,9,1.524,,,,,,147,cake,refrigerator,,90180,001,2022-04-20_23h10.09.888,SPAMnetsValid,2021.1.4,MacIntel,58.82352941,,,,,,,,,,,,,9,1.524,0,82,82,35,1,,,,,,,,,,,,,,,,,,,,,,,,,,,,,,,,,,,,,,,,,,,,,,,,,,,,,,,,,,,,,,,,,,,,,,
,,,,9,1.398,,,,,,122,flower,garden,,90180,001,2022-04-20_23h10.09.888,SPAMnetsValid,2021.1.4,MacIntel,58.82352941,,,,,,,,,,,,,9,1.398,0,83,83,60,1,,,,,,,,,,,,,,,,,,,,,,,,,,,,,,,,,,,,,,,,,,,,,,,,,,,,,,,,,,,,,,,,,,,,,,
,,,,9,1.375,,,,,,158,cookie,oven,,90180,001,2022-04-20_23h10.09.888,SPAMnetsValid,2021.1.4,MacIntel,58.82352941,,,,,,,,,,,,,9,1.375,0,84,84,27,1,,,,,,,,,,,,,,,,,,,,,,,,,,,,,,,,,,,,,,,,,,,,,,,,,,,,,,,,,,,,,,,,,,,,,,
,,,,1,1.57,,,,,,129,cactus,refrigerator,,90180,001,2022-04-20_23h10.09.888,SPAMnetsValid,2021.1.4,MacIntel,58.82352941,,,,,,,,,,,,,1,1.57,0,85,85,3,1,,,,,,,,,,,,,,,,,,,,,,,,,,,,,,,,,,,,,,,,,,,,,,,,,,,,,,,,,,,,,,,,,,,,,,
,,,,9,1.444,,,,,,116,cake,chocolate,,90180,001,2022-04-20_23h10.09.888,SPAMnetsValid,2021.1.4,MacIntel,58.82352941,,,,,,,,,,,,,9,1.444,0,86,86,44,1,,,,,,,,,,,,,,,,,,,,,,,,,,,,,,,,,,,,,,,,,,,,,,,,,,,,,,,,,,,,,,,,,,,,,,
,,,,7,1.321,,,,,,153,carrot,pretzel,,90180,001,2022-04-20_23h10.09.888,SPAMnetsValid,2021.1.4,MacIntel,58.82352941,,,,,,,,,,,,,7,1.321,0,87,87,34,1,,,,,,,,,,,,,,,,,,,,,,,,,,,,,,,,,,,,,,,,,,,,,,,,,,,,,,,,,,,,,,,,,,,,,,
,,,,8,1.779,,,,,,181,carrot,kitchen,,90180,001,2022-04-20_23h10.09.888,SPAMnetsValid,2021.1.4,MacIntel,58.82352941,,,,,,,,,,,,,8,1.779,0,88,88,72,1,,,,,,,,,,,,,,,,,,,,,,,,,,,,,,,,,,,,,,,,,,,,,,,,,,,,,,,,,,,,,,,,,,,,,,
,,,,2,2.465,,,,,,178,cactus,carrot,,90180,001,2022-04-20_23h10.09.888,SPAMnetsValid,2021.1.4,MacIntel,58.82352941,,,,,,,,,,,,,2,2.465,0,89,89,75,1,,,,,,,,,,,,,,,,,,,,,,,,,,,,,,,,,,,,,,,,,,,,,,,,,,,,,,,,,,,,,,,,,,,,,,
,,,,4,5.005,,,,,,156,melon,rose,,90180,001,2022-04-20_23h10.09.888,SPAMnetsValid,2021.1.4,MacIntel,58.82352941,,,,,,,,,,,,,4,5.005,0,90,90,31,1,,,,,,,,,,,,,,,,,,,,,,,,,,,,,,,,,,,,,,,,,,,,,,,,,,,,,,,,,,,,,,,,,,,,,,
,,,,2,1.244,,,,,,180,tree,yogurt,,90180,001,2022-04-20_23h10.09.888,SPAMnetsValid,2021.1.4,MacIntel,58.82352941,,,,,,,,,,,,,2,1.244,0,91,91,68,1,,,,,,,,,,,,,,,,,,,,,,,,,,,,,,,,,,,,,,,,,,,,,,,,,,,,,,,,,,,,,,,,,,,,,,
,,,,2,1.553,,,,,,96,oven,strawberry,,90180,001,2022-04-20_23h10.09.888,SPAMnetsValid,2021.1.4,MacIntel,58.82352941,,,,,,,,,,,,,2,1.553,0,92,92,67,1,,,,,,,,,,,,,,,,,,,,,,,,,,,,,,,,,,,,,,,,,,,,,,,,,,,,,,,,,,,,,,,,,,,,,,
,,,,2,1.095,,,,,,151,microwave,onion,,90180,001,2022-04-20_23h10.09.888,SPAMnetsValid,2021.1.4,MacIntel,58.82352941,,,,,,,,,,,,,2,1.095,0,93,93,6,1,,,,,,,,,,,,,,,,,,,,,,,,,,,,,,,,,,,,,,,,,,,,,,,,,,,,,,,,,,,,,,,,,,,,,,
,,,,2,4.153,,,,,,148,flower,melon,,90180,001,2022-04-20_23h10.09.888,SPAMnetsValid,2021.1.4,MacIntel,58.82352941,,,,,,,,,,,,,2,4.153,0,94,94,23,1,,,,,,,,,,,,,,,,,,,,,,,,,,,,,,,,,,,,,,,,,,,,,,,,,,,,,,,,,,,,,,,,,,,,,,
,,,,1,1.606,,,,,,182,flower,refrigerator,,90180,001,2022-04-20_23h10.09.888,SPAMnetsValid,2021.1.4,MacIntel,58.82352941,,,,,,,,,,,,,1,1.606,0,95,95,32,1,,,,,,,,,,,,,,,,,,,,,,,,,,,,,,,,,,,,,,,,,,,,,,,,,,,,,,,,,,,,,,,,,,,,,,
,,,,7,1.677,,,,,,136,chocolate,microwave,,90180,001,2022-04-20_23h10.09.888,SPAMnetsValid,2021.1.4,MacIntel,58.82352941,,,,,,,,,,,,,7,1.677,0,96,96,96,1,,,,,,,,,,,,,,,,,,,,,,,,,,,,,,,,,,,,,,,,,,,,,,,,,,,,,,,,,,,,,,,,,,,,,,
,,,,,,,,,,,,,,,90180,001,2022-04-20_23h10.09.888,SPAMnetsValid,2021.1.4,MacIntel,58.82352941,,,,,,,,,,,,,,,,,,,,0,0,0,0,1,,,,,,,,,,,,,,,,,,,,,,,,,,,,,,,,,,,,,,,,,,,,,,,,,,,,,,,,,,,,,,,,,
,,,,,,,,,,,,,,,90180,001,2022-04-20_23h10.09.888,SPAMnetsValid,2021.1.4,MacIntel,58.82352941,,,,,,0,1,1,1,1,0,1,,,,,,,,,,,,,,,,,,,,,,,,,,,,,,,,,,,,,,,,,,,,,,,,,,,,,,,,,,,,,,,,,,,,,,,,,,,,,
,,,,,,,,,,,,,,,90180,001,2022-04-20_23h10.09.888,SPAMnetsValid,2021.1.4,MacIntel,58.82352941,,,,,,,,,,,,,,,,,,,,,,,,,3,4.8,0,0,0,0,1,rancor,forbearance,ridicule,malice,bravery,3,,,,,,,,,,,,,,,,,,,,,,,,,,,,,,,,,,,,,,,,,,,,,,,,,,,,
,,,,,,,,,,,,,,,90180,001,2022-04-20_23h10.09.888,SPAMnetsValid,2021.1.4,MacIntel,58.82352941,,,,,,,,,,,,,,,,,,,,,,,,,4,3.544,0,1,1,1,1,raucous,empty,quiet,smooth,harsh,4,,,,,,,,,,,,,,,,,,,,,,,,,,,,,,,,,,,,,,,,,,,,,,,,,,,,
,,,,,,,,,,,,,,,90180,001,2022-04-20_23h10.09.888,SPAMnetsValid,2021.1.4,MacIntel,58.82352941,,,,,,,,,,,,,,,,,,,,,,,,,4,3.745,0,2,2,2,1,gargoyle,oil,medicine,carved waterspout,ugly building,3,,,,,,,,,,,,,,,,,,,,,,,,,,,,,,,,,,,,,,,,,,,,,,,,,,,,
,,,,,,,,,,,,,,,90180,001,2022-04-20_23h10.09.888,SPAMnetsValid,2021.1.4,MacIntel,58.82352941,,,,,,,,,,,,,,,,,,,,,,,,,2,4.739,0,3,3,3,1,recrudesce,purify,renew activity,lack refinement,crush,2,,,,,,,,,,,,,,,,,,,,,,,,,,,,,,,,,,,,,,,,,,,,,,,,,,,,
,,,,,,,,,,,,,,,90180,001,2022-04-20_23h10.09.888,SPAMnetsValid,2021.1.4,MacIntel,58.82352941,,,,,,,,,,,,,,,,,,,,,,,,,3,5.379,0,4,4,4,1,specious,"plausible, but not genuine",noteworthy,class or variety,roomy,1,,,,,,,,,,,,,,,,,,,,,,,,,,,,,,,,,,,,,,,,,,,,,,,,,,,,
,,,,,,,,,,,,,,,90180,001,2022-04-20_23h10.09.888,SPAMnetsValid,2021.1.4,MacIntel,58.82352941,,,,,,,,,,,,,,,,,,,,,,,,,3,2.648,0,5,5,5,1,bauble,bubble,showy plaything,idle talk,confusion,2,,,,,,,,,,,,,,,,,,,,,,,,,,,,,,,,,,,,,,,,,,,,,,,,,,,,
,,,,,,,,,,,,,,,90180,001,2022-04-20_23h10.09.888,SPAMnetsValid,2021.1.4,MacIntel,58.82352941,,,,,,,,,,,,,,,,,,,,,,,,,2,5.022,0,6,6,6,1,prolific,scarce,producing abundantly,reckless,speaking profanely,2,,,,,,,,,,,,,,,,,,,,,,,,,,,,,,,,,,,,,,,,,,,,,,,,,,,,
,,,,,,,,,,,,,,,90180,001,2022-04-20_23h10.09.888,SPAMnetsValid,2021.1.4,MacIntel,58.82352941,,,,,,,,,,,,,,,,,,,,,,,,,3,2.946,0,7,7,7,1,opulent,party,wealthy,happy frame of mind,semiprecious stone,2,,,,,,,,,,,,,,,,,,,,,,,,,,,,,,,,,,,,,,,,,,,,,,,,,,,,
,,,,,,,,,,,,,,,90180,001,2022-04-20_23h10.09.888,SPAMnetsValid,2021.1.4,MacIntel,58.82352941,,,,,,,,,,,,,,,,,,,,,,,,,4,8.129,0,8,8,8,1,coercion,conspiracy,strategy,restraint,attraction,3,,,,,,,,,,,,,,,,,,,,,,,,,,,,,,,,,,,,,,,,,,,,,,,,,,,,
,,,,,,,,,,,,,,,90180,001,2022-04-20_23h10.09.888,SPAMnetsValid,2021.1.4,MacIntel,58.82352941,,,,,,,,,,,,,,,,,,,,,,,,,4,1.783,0,9,9,9,1,hiatus,animal,calamity,dread,gap,4,,,,,,,,,,,,,,,,,,,,,,,,,,,,,,,,,,,,,,,,,,,,,,,,,,,,
,,,,,,,,,,,,,,,90180,001,2022-04-20_23h10.09.888,SPAMnetsValid,2021.1.4,MacIntel,58.82352941,,,,,,,,,,,,,,,,,,,,,,,,,3,5.507,0,10,10,10,1,germane,microbe,contagious,relevant,different,3,,,,,,,,,,,,,,,,,,,,,,,,,,,,,,,,,,,,,,,,,,,,,,,,,,,,
,,,,,,,,,,,,,,,90180,001,2022-04-20_23h10.09.888,SPAMnetsValid,2021.1.4,MacIntel,58.82352941,,,,,,,,,,,,,,,,,,,,,,,,,1,3.782,0,11,11,11,1,perfunctory,fundamental,formal,superficial,careful,3,,,,,,,,,,,,,,,,,,,,,,,,,,,,,,,,,,,,,,,,,,,,,,,,,,,,
,,,,,,,,,,,,,,,90180,001,2022-04-20_23h10.09.888,SPAMnetsValid,2021.1.4,MacIntel,58.82352941,,,,,,,,,,,,,,,,,,,,,,,,,1,2.188,0,12,12,12,1,diverge,reveal,chant,distract the attention of,differ or turn off from,4,,,,,,,,,,,,,,,,,,,,,,,,,,,,,,,,,,,,,,,,,,,,,,,,,,,,
,,,,,,,,,,,,,,,90180,001,2022-04-20_23h10.09.888,SPAMnetsValid,2021.1.4,MacIntel,58.82352941,,,,,,,,,,,,,,,,,,,,,,,,,1,1.443,0,13,13,13,1,evoke,take away,anger,connect,bring out,4,,,,,,,,,,,,,,,,,,,,,,,,,,,,,,,,,,,,,,,,,,,,,,,,,,,,
,,,,,,,,,,,,,,,90180,001,2022-04-20_23h10.09.888,SPAMnetsValid,2021.1.4,MacIntel,58.82352941,,,,,,,,,,,,,,,,,,,,,,,,,1,1.947,0,14,14,14,1,pertinent,relevant,lying next to,necessary,bold,1,,,,,,,,,,,,,,,,,,,,,,,,,,,,,,,,,,,,,,,,,,,,,,,,,,,,
,,,,,,,,,,,,,,,90180,001,2022-04-20_23h10.09.888,SPAMnetsValid,2021.1.4,MacIntel,58.82352941,,,,,,,,,,,,,,,,,,,,,,,,,2,2.745,0,15,15,15,1,holocaust,entirety,destruction,saintly,price,2,,,,,,,,,,,,,,,,,,,,,,,,,,,,,,,,,,,,,,,,,,,,,,,,,,,,
,,,,,,,,,,,,,,,90180,001,2022-04-20_23h10.09.888,SPAMnetsValid,2021.1.4,MacIntel,58.82352941,,,,,,,,,,,,,,,,,,,,,,,,,3,2.713,0,16,16,16,1,piquant,mellow,fish,pungent,cloth,3,,,,,,,,,,,,,,,,,,,,,,,,,,,,,,,,,,,,,,,,,,,,,,,,,,,,
,,,,,,,,,,,,,,,90180,001,2022-04-20_23h10.09.888,SPAMnetsValid,2021.1.4,MacIntel,58.82352941,,,,,,,,,,,,,,,,,,,,,,,,,3,7.143,0,17,17,17,1,firmament,foundation,heavens,strong,glue,2,,,,,,,,,,,,,,,,,,,,,,,,,,,,,,,,,,,,,,,,,,,,,,,,,,,,
,,,,,,,,,,,,,,,90180,001,2022-04-20_23h10.09.888,SPAMnetsValid,2021.1.4,MacIntel,58.82352941,,,,,,,,,,,,,,,,,,,,,,,,,,,,,,,,,,,,,,4,4.101,0,0,0,0,1,marketable,partisan,jocular,marriageable,salable,essential,4,,,,,,,,,,,,,,,,,,,,,,,,,,,,,,,,,,,,,,
,,,,,,,,,,,,,,,90180,001,2022-04-20_23h10.09.888,SPAMnetsValid,2021.1.4,MacIntel,58.82352941,,,,,,,,,,,,,,,,,,,,,,,,,,,,,,,,,,,,,,5,3.288,0,1,1,1,1,cottontail,squirrel,poplar,boa,marshy plant,rabbit,5,,,,,,,,,,,,,,,,,,,,,,,,,,,,,,,,,,,,,,
,,,,,,,,,,,,,,,90180,001,2022-04-20_23h10.09.888,SPAMnetsValid,2021.1.4,MacIntel,58.82352941,,,,,,,,,,,,,,,,,,,,,,,,,,,,,,,,,,,,,,3,2.47,0,2,2,2,1,boggy,afraid,false,marshy,dense,black,3,,,,,,,,,,,,,,,,,,,,,,,,,,,,,,,,,,,,,,
,,,,,,,,,,,,,,,90180,001,2022-04-20_23h10.09.888,SPAMnetsValid,2021.1.4,MacIntel,58.82352941,,,,,,,,,,,,,,,,,,,,,,,,,,,,,,,,,,,,,,5,3.231,0,3,3,3,1,gruesomeness,blackness,falseness,vindictiveness,drunkenness,ghastliness,5,,,,,,,,,,,,,,,,,,,,,,,,,,,,,,,,,,,,,,
,,,,,,,,,,,,,,,90180,001,2022-04-20_23h10.09.888,SPAMnetsValid,2021.1.4,MacIntel,58.82352941,,,,,,,,,,,,,,,,,,,,,,,,,,,,,,,,,,,,,,3,4.59,0,4,4,4,1,loathing,diffidence,laziness,abhorrence,cleverness,comfort,3,,,,,,,,,,,,,,,,,,,,,,,,,,,,,,,,,,,,,,
,,,,,,,,,,,,,,,90180,001,2022-04-20_23h10.09.888,SPAMnetsValid,2021.1.4,MacIntel,58.82352941,,,,,,,,,,,,,,,,,,,,,,,,,,,,,,,,,,,,,,5,3.745,0,5,5,5,1,bantam,fowl,ridicule,cripple,vegetable,ensign,1,,,,,,,,,,,,,,,,,,,,,,,,,,,,,,,,,,,,,,
,,,,,,,,,,,,,,,90180,001,2022-04-20_23h10.09.888,SPAMnetsValid,2021.1.4,MacIntel,58.82352941,,,,,,,,,,,,,,,,,,,,,,,,,,,,,,,,,,,,,,3,3.879,0,6,6,6,1,evoke,wake up,surrender,reconnoiter,transcend,call forth,5,,,,,,,,,,,,,,,,,,,,,,,,,,,,,,,,,,,,,,
,,,,,,,,,,,,,,,90180,001,2022-04-20_23h10.09.888,SPAMnetsValid,2021.1.4,MacIntel,58.82352941,,,,,,,,,,,,,,,,,,,,,,,,,,,,,,,,,,,,,,1,10.047,0,7,7,7,1,unobtrusive,unintelligent,epileptic,illogical,lineal,modest,5,,,,,,,,,,,,,,,,,,,,,,,,,,,,,,,,,,,,,,
,,,,,,,,,,,,,,,90180,001,2022-04-20_23h10.09.888,SPAMnetsValid,2021.1.4,MacIntel,58.82352941,,,,,,,,,,,,,,,,,,,,,,,,,,,,,,,,,,,,,,4,2.621,0,8,8,8,1,terrain,ice cream,final test,tractor,area of ground,weight,4,,,,,,,,,,,,,,,,,,,,,,,,,,,,,,,,,,,,,,
,,,,,,,,,,,,,,,90180,001,2022-04-20_23h10.09.888,SPAMnetsValid,2021.1.4,MacIntel,58.82352941,,,,,,,,,,,,,,,,,,,,,,,,,,,,,,,,,,,,,,3,4.156,0,9,9,9,1,capriciousness,stubbornness,courage,whimsicality,amazement,greediness,3,,,,,,,,,,,,,,,,,,,,,,,,,,,,,,,,,,,,,,
,,,,,,,,,,,,,,,90180,001,2022-04-20_23h10.09.888,SPAMnetsValid,2021.1.4,MacIntel,58.82352941,,,,,,,,,,,,,,,,,,,,,,,,,,,,,,,,,,,,,,1,5.428,0,10,10,10,1,maelstrom,slander,whirlpool,enmity,armor,majolica,2,,,,,,,,,,,,,,,,,,,,,,,,,,,,,,,,,,,,,,
,,,,,,,,,,,,,,,90180,001,2022-04-20_23h10.09.888,SPAMnetsValid,2021.1.4,MacIntel,58.82352941,,,,,,,,,,,,,,,,,,,,,,,,,,,,,,,,,,,,,,2,7.463,0,11,11,11,1,tentative,critical,conclusive,authentic,provisional,apprehensive,4,,,,,,,,,,,,,,,,,,,,,,,,,,,,,,,,,,,,,,
,,,,,,,,,,,,,,,90180,001,2022-04-20_23h10.09.888,SPAMnetsValid,2021.1.4,MacIntel,58.82352941,,,,,,,,,,,,,,,,,,,,,,,,,,,,,,,,,,,,,,3,3.904,0,12,12,12,1,placate,rehabilitate,plagiarize,depredate,apprise,conciliate,5,,,,,,,,,,,,,,,,,,,,,,,,,,,,,,,,,,,,,,
,,,,,,,,,,,,,,,90180,001,2022-04-20_23h10.09.888,SPAMnetsValid,2021.1.4,MacIntel,58.82352941,,,,,,,,,,,,,,,,,,,,,,,,,,,,,,,,,,,,,,5,3.28,0,13,13,13,1,surcease,enlightenment,cessation,inattention,censor,substitution,2,,,,,,,,,,,,,,,,,,,,,,,,,,,,,,,,,,,,,,
,,,,,,,,,,,,,,,90180,001,2022-04-20_23h10.09.888,SPAMnetsValid,2021.1.4,MacIntel,58.82352941,,,,,,,,,,,,,,,,,,,,,,,,,,,,,,,,,,,,,,2,5.004,0,14,14,14,1,apathetic,wandering,impassive,hateful,prophetic,overflowing,2,,,,,,,,,,,,,,,,,,,,,,,,,,,,,,,,,,,,,,
,,,,,,,,,,,,,,,90180,001,2022-04-20_23h10.09.888,SPAMnetsValid,2021.1.4,MacIntel,58.82352941,,,,,,,,,,,,,,,,,,,,,,,,,,,,,,,,,,,,,,4,4.213,0,15,15,15,1,paternoster,paternalism,patricide,malediction,benediction,prayer,5,,,,,,,,,,,,,,,,,,,,,,,,,,,,,,,,,,,,,,
,,,,,,,,,,,,,,,90180,001,2022-04-20_23h10.09.888,SPAMnetsValid,2021.1.4,MacIntel,58.82352941,,,,,,,,,,,,,,,,,,,,,,,,,,,,,,,,,,,,,,1,4.191,0,16,16,16,1,opalescence,opulence,senescence,bankruptcy,iridescence,assiduity,4,,,,,,,,,,,,,,,,,,,,,,,,,,,,,,,,,,,,,,
,,,,,,,,,,,,,,,90180,001,2022-04-20_23h10.09.888,SPAMnetsValid,2021.1.4,MacIntel,58.82352941,,,,,,,,,,,,,,,,,,,,,,,,,,,,,,,,,,,,,,2,2.432,0,17,17,17,1,lush,stupid,luxurious,hazy,putrid,languishing,2,,,,,,,,,,,,,,,,,,,,,,,,,,,,,,,,,,,,,,
,,,,,,,,,,,,,,,90180,001,2022-04-20_23h10.09.888,SPAMnetsValid,2021.1.4,MacIntel,58.82352941,,,,,,,,,,,,,,,,,,,,,,,,,,,,,,,,,,,,,,4,4.712,0,18,18,18,1,curtailment,expenditure,abandonment,abridgment,improvement,forgery,3,,,,,,,,,,,,,,,,,,,,,,,,,,,,,,,,,,,,,,
,,,,,,,,,,,,,,,90180,001,2022-04-20_23h10.09.888,SPAMnetsValid,2021.1.4,MacIntel,58.82352941,,,,,,,,,,,,,,,,,,,,,,,,,,,,,,,,,,,,,,5,2.022,0,19,19,19,1,perversity,adversity,perviousness,travesty,waywardness,gentility,4,,,,,,,,,,,,,,,,,,,,,,,,,,,,,,,,,,,,,,
,,,,,,,,,,,,,,,90180,001,2022-04-20_23h10.09.888,SPAMnetsValid,2021.1.4,MacIntel,58.82352941,,,,,,,,,,,,,,,,,,,,,,,,,,,,,,,,,,,,,,3,6.324,0,20,20,20,1,calumnious,complimentary,analogous,slanderous,tempestuous,magnanimous,3,,,,,,,,,,,,,,,,,,,,,,,,,,,,,,,,,,,,,,
,,,,,,,,,,,,,,,90180,001,2022-04-20_23h10.09.888,SPAMnetsValid,2021.1.4,MacIntel,58.82352941,,,,,,,,,,,,,,,,,,,,,,,,,,,,,,,,,,,,,,1,5.739,0,21,21,21,1,illiberality,bigotry,imbecility,illegibility,cautery,immaturity,1,,,,,,,,,,,,,,,,,,,,,,,,,,,,,,,,,,,,,,
,,,,,,,,,,,,,,,90180,001,2022-04-20_23h10.09.888,SPAMnetsValid,2021.1.4,MacIntel,58.82352941,,,,,,,,,,,,,,,,,,,,,,,,,,,,,,,,,,,,,,2,2.816,0,22,22,22,1,clabber,rejoice,gossip,curdle,crow,hobble,3,,,,,,,,,,,,,,,,,,,,,,,,,,,,,,,,,,,,,,
,,,,,,,,,,,,,,,90180,001,2022-04-20_23h10.09.888,SPAMnetsValid,2021.1.4,MacIntel,58.82352941,,,,,,,,,,,,,,,,,,,,,,,,,,,,,,,,,,,,,,4,3.982,0,23,23,23,1,sedulousness,diligence,credulousness,seduction,perilousness,frankness,1,,,,,,,,,,,,,,,,,,,,,,,,,,,,,,,,,,,,,,
,,,,,,,,,,,,,,,90180,001,2022-04-20_23h10.09.888,SPAMnetsValid,2021.1.4,MacIntel,58.82352941,,,,,,,,,,,,,,,,,,,,,,,,,,,,,,,,,,,,,,,,,,,,,,,,,,,,weight,pillow,0,0,0,0,1,,,,,,,,,,,,,,,,,,,,,,,,,,,,,,,
,,,,,,,,,,,,,,,90180,001,2022-04-20_23h10.09.888,SPAMnetsValid,2021.1.4,MacIntel,58.82352941,,,,,,,,,,,,,,,,,,,,,,,,,,,,,,,,,,,,,,,,,,,,,,,,,,,,step stool,pillow,1,0,1,0,1,,,,,,,,,,,,,,,,,,,,,,,,,,,,,,,
,,,,,,,,,,,,,,,90180,001,2022-04-20_23h10.09.888,SPAMnetsValid,2021.1.4,MacIntel,58.82352941,,,,,,,,,,,,,,,,,,,,,,,,,,,,,,,,,,,,,,,,,,,,,,,,,,,,blanket,pillow,2,0,2,0,1,,,,,,,,,,,,,,,,,,,,,,,,,,,,,,,
,,,,,,,,,,,,,,,90180,001,2022-04-20_23h10.09.888,SPAMnetsValid,2021.1.4,MacIntel,58.82352941,,,,,,,,,,,,,,,,,,,,,,,,,,,,,,,,,,,,,,,,,,,,,,,,,,,,weapon,pillow,3,0,3,0,1,,,,,,,,,,,,,,,,,,,,,,,,,,,,,,,
,,,,,,,,,,,,,,,90180,001,2022-04-20_23h10.09.888,SPAMnetsValid,2021.1.4,MacIntel,58.82352941,,,,,,,,,,,,,,,,,,,,,,,,,,,,,,,,,,,,,,,,,,,,,,,,,,,,stand,pillow,4,0,4,0,1,,,,,,,,,,,,,,,,,,,,,,,,,,,,,,,
,,,,,,,,,,,,,,,90180,001,2022-04-20_23h10.09.888,SPAMnetsValid,2021.1.4,MacIntel,58.82352941,,,,,,,,,,,,,,,,,,,,,,,,,,,,,,,,,,,,,,,,,,,,,,,,,,,,curtain,pillow,5,0,5,0,1,,,,,,,,,,,,,,,,,,,,,,,,,,,,,,,
,,,,,,,,,,,,,,,90180,001,2022-04-20_23h10.09.888,SPAMnetsValid,2021.1.4,MacIntel,58.82352941,,,,,,,,,,,,,,,,,,,,,,,,,,,,,,,,,,,,,,,,,,,,,,,,,,,,cushion,pillow,6,0,6,0,1,,,,,,,,,,,,,,,,,,,,,,,,,,,,,,,
,,,,,,,,,,,,,,,90180,001,2022-04-20_23h10.09.888,SPAMnetsValid,2021.1.4,MacIntel,58.82352941,,,,,,,,,,,,,,,,,,,,,,,,,,,,,,,,,,,,,,,,,,,,,,,,,,,,lap desk,pillow,7,0,7,0,1,,,,,,,,,,,,,,,,,,,,,,,,,,,,,,,
,,,,,,,,,,,,,,,90180,001,2022-04-20_23h10.09.888,SPAMnetsValid,2021.1.4,MacIntel,58.82352941,,,,,,,,,,,,,,,,,,,,,,,,,,,,,,,,,,,,,,,,,,,,,,,,,,,,,,,,,,,0,0,0,2,1,pillow,,,,,,,,,,,,,,,,,,,,,,,,,
,,,,,,,,,,,,,,,90180,001,2022-04-20_23h10.09.888,SPAMnetsValid,2021.1.4,MacIntel,58.82352941,,,,,,,,,,,,,,,,,,,,,,,,,,,,,,,,,,,,,,,,,,,,,,,,,,,,heater,candle,0,0,0,0,1,,,,,,,,,,,,,,,,,,,,,,,,,,,,,,,
,,,,,,,,,,,,,,,90180,001,2022-04-20_23h10.09.888,SPAMnetsValid,2021.1.4,MacIntel,58.82352941,,,,,,,,,,,,,,,,,,,,,,,,,,,,,,,,,,,,,,,,,,,,,,,,,,,,light,candle,1,0,1,0,1,,,,,,,,,,,,,,,,,,,,,,,,,,,,,,,
,,,,,,,,,,,,,,,90180,001,2022-04-20_23h10.09.888,SPAMnetsValid,2021.1.4,MacIntel,58.82352941,,,,,,,,,,,,,,,,,,,,,,,,,,,,,,,,,,,,,,,,,,,,,,,,,,,,cooking,candle,2,0,2,0,1,,,,,,,,,,,,,,,,,,,,,,,,,,,,,,,
,,,,,,,,,,,,,,,90180,001,2022-04-20_23h10.09.888,SPAMnetsValid,2021.1.4,MacIntel,58.82352941,,,,,,,,,,,,,,,,,,,,,,,,,,,,,,,,,,,,,,,,,,,,,,,,,,,,burning,candle,3,0,3,0,1,,,,,,,,,,,,,,,,,,,,,,,,,,,,,,,
,,,,,,,,,,,,,,,90180,001,2022-04-20_23h10.09.888,SPAMnetsValid,2021.1.4,MacIntel,58.82352941,,,,,,,,,,,,,,,,,,,,,,,,,,,,,,,,,,,,,,,,,,,,,,,,,,,,hair dryer,candle,4,0,4,0,1,,,,,,,,,,,,,,,,,,,,,,,,,,,,,,,
,,,,,,,,,,,,,,,90180,001,2022-04-20_23h10.09.888,SPAMnetsValid,2021.1.4,MacIntel,58.82352941,,,,,,,,,,,,,,,,,,,,,,,,,,,,,,,,,,,,,,,,,,,,,,,,,,,,clothes dryer,candle,5,0,5,0,1,,,,,,,,,,,,,,,,,,,,,,,,,,,,,,,
,,,,,,,,,,,,,,,90180,001,2022-04-20_23h10.09.888,SPAMnetsValid,2021.1.4,MacIntel,58.82352941,,,,,,,,,,,,,,,,,,,,,,,,,,,,,,,,,,,,,,,,,,,,,,,,,,,,heat up food,candle,6,0,6,0,1,,,,,,,,,,,,,,,,,,,,,,,,,,,,,,,
,,,,,,,,,,,,,,,90180,001,2022-04-20_23h10.09.888,SPAMnetsValid,2021.1.4,MacIntel,58.82352941,,,,,,,,,,,,,,,,,,,,,,,,,,,,,,,,,,,,,,,,,,,,,,,,,,,,boil water,candle,7,0,7,0,1,,,,,,,,,,,,,,,,,,,,,,,,,,,,,,,
,,,,,,,,,,,,,,,90180,001,2022-04-20_23h10.09.888,SPAMnetsValid,2021.1.4,MacIntel,58.82352941,,,,,,,,,,,,,,,,,,,,,,,,,,,,,,,,,,,,,,,,,,,,,,,,,,,,mend something ,candle,8,0,8,0,1,,,,,,,,,,,,,,,,,,,,,,,,,,,,,,,
,,,,,,,,,,,,,,,90180,001,2022-04-20_23h10.09.888,SPAMnetsValid,2021.1.4,MacIntel,58.82352941,,,,,,,,,,,,,,,,,,,,,,,,,,,,,,,,,,,,,,,,,,,,,,,,,,,,,,,,,,,0,1,1,1,1,candle,,,,,,,,,,,,,,,,,,,,,,,,,
,,,,,,,,,,,,,,,90180,001,2022-04-20_23h10.09.888,SPAMnetsValid,2021.1.4,MacIntel,58.82352941,,,,,,,,,,,,,,,,,,,,,,,,,,,,,,,,,,,,,,,,,,,,,,,,,,,,shoe,bucket,0,0,0,0,1,,,,,,,,,,,,,,,,,,,,,,,,,,,,,,,
,,,,,,,,,,,,,,,90180,001,2022-04-20_23h10.09.888,SPAMnetsValid,2021.1.4,MacIntel,58.82352941,,,,,,,,,,,,,,,,,,,,,,,,,,,,,,,,,,,,,,,,,,,,,,,,,,,,as a backpack,bucket,1,0,1,0,1,,,,,,,,,,,,,,,,,,,,,,,,,,,,,,,
,,,,,,,,,,,,,,,90180,001,2022-04-20_23h10.09.888,SPAMnetsValid,2021.1.4,MacIntel,58.82352941,,,,,,,,,,,,,,,,,,,,,,,,,,,,,,,,,,,,,,,,,,,,,,,,,,,,hat,bucket,2,0,2,0,1,,,,,,,,,,,,,,,,,,,,,,,,,,,,,,,
,,,,,,,,,,,,,,,90180,001,2022-04-20_23h10.09.888,SPAMnetsValid,2021.1.4,MacIntel,58.82352941,,,,,,,,,,,,,,,,,,,,,,,,,,,,,,,,,,,,,,,,,,,,,,,,,,,,cup,bucket,3,0,3,0,1,,,,,,,,,,,,,,,,,,,,,,,,,,,,,,,
,,,,,,,,,,,,,,,90180,001,2022-04-20_23h10.09.888,SPAMnetsValid,2021.1.4,MacIntel,58.82352941,,,,,,,,,,,,,,,,,,,,,,,,,,,,,,,,,,,,,,,,,,,,,,,,,,,,closet,bucket,4,0,4,0,1,,,,,,,,,,,,,,,,,,,,,,,,,,,,,,,
,,,,,,,,,,,,,,,90180,001,2022-04-20_23h10.09.888,SPAMnetsValid,2021.1.4,MacIntel,58.82352941,,,,,,,,,,,,,,,,,,,,,,,,,,,,,,,,,,,,,,,,,,,,,,,,,,,,pot,bucket,5,0,5,0,1,,,,,,,,,,,,,,,,,,,,,,,,,,,,,,,
,,,,,,,,,,,,,,,90180,001,2022-04-20_23h10.09.888,SPAMnetsValid,2021.1.4,MacIntel,58.82352941,,,,,,,,,,,,,,,,,,,,,,,,,,,,,,,,,,,,,,,,,,,,,,,,,,,,pillow,bucket,6,0,6,0,1,,,,,,,,,,,,,,,,,,,,,,,,,,,,,,,
,,,,,,,,,,,,,,,90180,001,2022-04-20_23h10.09.888,SPAMnetsValid,2021.1.4,MacIntel,58.82352941,,,,,,,,,,,,,,,,,,,,,,,,,,,,,,,,,,,,,,,,,,,,,,,,,,,,,,,,,,,0,2,2,0,1,bucket,,,,,,,,,,,,,,,,,,,,,,,,,
,,,,,,,,,,,,,,,90180,001,2022-04-20_23h10.09.888,SPAMnetsValid,2021.1.4,MacIntel,58.82352941,,,,,,,,,,,,,,,,,,,,,,,,,,,,,,,,,,,,,,,,,,,,,,,,,,,,,,,,,,,,,,,,,giraffee,Animals,0,0,0,0,1,,,,,,,,,,,,,,,,,,
,,,,,,,,,,,,,,,90180,001,2022-04-20_23h10.09.888,SPAMnetsValid,2021.1.4,MacIntel,58.82352941,,,,,,,,,,,,,,,,,,,,,,,,,,,,,,,,,,,,,,,,,,,,,,,,,,,,,,,,,,,,,,,,,elephant,Animals,1,0,1,0,1,,,,,,,,,,,,,,,,,,
,,,,,,,,,,,,,,,90180,001,2022-04-20_23h10.09.888,SPAMnetsValid,2021.1.4,MacIntel,58.82352941,,,,,,,,,,,,,,,,,,,,,,,,,,,,,,,,,,,,,,,,,,,,,,,,,,,,,,,,,,,,,,,,,cat,Animals,2,0,2,0,1,,,,,,,,,,,,,,,,,,
,,,,,,,,,,,,,,,90180,001,2022-04-20_23h10.09.888,SPAMnetsValid,2021.1.4,MacIntel,58.82352941,,,,,,,,,,,,,,,,,,,,,,,,,,,,,,,,,,,,,,,,,,,,,,,,,,,,,,,,,,,,,,,,,dog,Animals,3,0,3,0,1,,,,,,,,,,,,,,,,,,
,,,,,,,,,,,,,,,90180,001,2022-04-20_23h10.09.888,SPAMnetsValid,2021.1.4,MacIntel,58.82352941,,,,,,,,,,,,,,,,,,,,,,,,,,,,,,,,,,,,,,,,,,,,,,,,,,,,,,,,,,,,,,,,,lizard,Animals,4,0,4,0,1,,,,,,,,,,,,,,,,,,
,,,,,,,,,,,,,,,90180,001,2022-04-20_23h10.09.888,SPAMnetsValid,2021.1.4,MacIntel,58.82352941,,,,,,,,,,,,,,,,,,,,,,,,,,,,,,,,,,,,,,,,,,,,,,,,,,,,,,,,,,,,,,,,,lion,Animals,5,0,5,0,1,,,,,,,,,,,,,,,,,,
,,,,,,,,,,,,,,,90180,001,2022-04-20_23h10.09.888,SPAMnetsValid,2021.1.4,MacIntel,58.82352941,,,,,,,,,,,,,,,,,,,,,,,,,,,,,,,,,,,,,,,,,,,,,,,,,,,,,,,,,,,,,,,,,zebra,Animals,6,0,6,0,1,,,,,,,,,,,,,,,,,,
,,,,,,,,,,,,,,,90180,001,2022-04-20_23h10.09.888,SPAMnetsValid,2021.1.4,MacIntel,58.82352941,,,,,,,,,,,,,,,,,,,,,,,,,,,,,,,,,,,,,,,,,,,,,,,,,,,,,,,,,,,,,,,,,antelope,Animals,7,0,7,0,1,,,,,,,,,,,,,,,,,,
,,,,,,,,,,,,,,,90180,001,2022-04-20_23h10.09.888,SPAMnetsValid,2021.1.4,MacIntel,58.82352941,,,,,,,,,,,,,,,,,,,,,,,,,,,,,,,,,,,,,,,,,,,,,,,,,,,,,,,,,,,,,,,,,caribu,Animals,8,0,8,0,1,,,,,,,,,,,,,,,,,,
,,,,,,,,,,,,,,,90180,001,2022-04-20_23h10.09.888,SPAMnetsValid,2021.1.4,MacIntel,58.82352941,,,,,,,,,,,,,,,,,,,,,,,,,,,,,,,,,,,,,,,,,,,,,,,,,,,,,,,,,,,,,,,,,hyena,Animals,9,0,9,0,1,,,,,,,,,,,,,,,,,,
,,,,,,,,,,,,,,,90180,001,2022-04-20_23h10.09.888,SPAMnetsValid,2021.1.4,MacIntel,58.82352941,,,,,,,,,,,,,,,,,,,,,,,,,,,,,,,,,,,,,,,,,,,,,,,,,,,,,,,,,,,,,,,,,bird,Animals,10,0,10,0,1,,,,,,,,,,,,,,,,,,
,,,,,,,,,,,,,,,90180,001,2022-04-20_23h10.09.888,SPAMnetsValid,2021.1.4,MacIntel,58.82352941,,,,,,,,,,,,,,,,,,,,,,,,,,,,,,,,,,,,,,,,,,,,,,,,,,,,,,,,,,,,,,,,,worm,Animals,11,0,11,0,1,,,,,,,,,,,,,,,,,,
,,,,,,,,,,,,,,,90180,001,2022-04-20_23h10.09.888,SPAMnetsValid,2021.1.4,MacIntel,58.82352941,,,,,,,,,,,,,,,,,,,,,,,,,,,,,,,,,,,,,,,,,,,,,,,,,,,,,,,,,,,,,,,,,fish,Animals,12,0,12,0,1,,,,,,,,,,,,,,,,,,
,,,,,,,,,,,,,,,90180,001,2022-04-20_23h10.09.888,SPAMnetsValid,2021.1.4,MacIntel,58.82352941,,,,,,,,,,,,,,,,,,,,,,,,,,,,,,,,,,,,,,,,,,,,,,,,,,,,,,,,,,,,,,,,,dolphin,Animals,13,0,13,0,1,,,,,,,,,,,,,,,,,,
,,,,,,,,,,,,,,,90180,001,2022-04-20_23h10.09.888,SPAMnetsValid,2021.1.4,MacIntel,58.82352941,,,,,,,,,,,,,,,,,,,,,,,,,,,,,,,,,,,,,,,,,,,,,,,,,,,,,,,,,,,,,,,,,whate,Animals,14,0,14,0,1,,,,,,,,,,,,,,,,,,
,,,,,,,,,,,,,,,90180,001,2022-04-20_23h10.09.888,SPAMnetsValid,2021.1.4,MacIntel,58.82352941,,,,,,,,,,,,,,,,,,,,,,,,,,,,,,,,,,,,,,,,,,,,,,,,,,,,,,,,,,,,,,,,,whale,Animals,15,0,15,0,1,,,,,,,,,,,,,,,,,,
,,,,,,,,,,,,,,,90180,001,2022-04-20_23h10.09.888,SPAMnetsValid,2021.1.4,MacIntel,58.82352941,,,,,,,,,,,,,,,,,,,,,,,,,,,,,,,,,,,,,,,,,,,,,,,,,,,,,,,,,,,,,,,,,shark,Animals,16,0,16,0,1,,,,,,,,,,,,,,,,,,
,,,,,,,,,,,,,,,90180,001,2022-04-20_23h10.09.888,SPAMnetsValid,2021.1.4,MacIntel,58.82352941,,,,,,,,,,,,,,,,,,,,,,,,,,,,,,,,,,,,,,,,,,,,,,,,,,,,,,,,,,,,,,,,,pig,Animals,17,0,17,0,1,,,,,,,,,,,,,,,,,,
,,,,,,,,,,,,,,,90180,001,2022-04-20_23h10.09.888,SPAMnetsValid,2021.1.4,MacIntel,58.82352941,,,,,,,,,,,,,,,,,,,,,,,,,,,,,,,,,,,,,,,,,,,,,,,,,,,,,,,,,,,,,,,,,cow,Animals,18,0,18,0,1,,,,,,,,,,,,,,,,,,
,,,,,,,,,,,,,,,90180,001,2022-04-20_23h10.09.888,SPAMnetsValid,2021.1.4,MacIntel,58.82352941,,,,,,,,,,,,,,,,,,,,,,,,,,,,,,,,,,,,,,,,,,,,,,,,,,,,,,,,,,,,,,,,,duck,Animals,19,0,19,0,1,,,,,,,,,,,,,,,,,,
,,,,,,,,,,,,,,,90180,001,2022-04-20_23h10.09.888,SPAMnetsValid,2021.1.4,MacIntel,58.82352941,,,,,,,,,,,,,,,,,,,,,,,,,,,,,,,,,,,,,,,,,,,,,,,,,,,,,,,,,,,,,,,,,warthog,Animals,20,0,20,0,1,,,,,,,,,,,,,,,,,,
,,,,,,,,,,,,,,,90180,001,2022-04-20_23h10.09.888,SPAMnetsValid,2021.1.4,MacIntel,58.82352941,,,,,,,,,,,,,,,,,,,,,,,,,,,,,,,,,,,,,,,,,,,,,,,,,,,,,,,,,,,,,,,,,sheep,Animals,21,0,21,0,1,,,,,,,,,,,,,,,,,,
,,,,,,,,,,,,,,,90180,001,2022-04-20_23h10.09.888,SPAMnetsValid,2021.1.4,MacIntel,58.82352941,,,,,,,,,,,,,,,,,,,,,,,,,,,,,,,,,,,,,,,,,,,,,,,,,,,,,,,,,,,,,,,,,chicken,Animals,22,0,22,0,1,,,,,,,,,,,,,,,,,,
,,,,,,,,,,,,,,,90180,001,2022-04-20_23h10.09.888,SPAMnetsValid,2021.1.4,MacIntel,58.82352941,,,,,,,,,,,,,,,,,,,,,,,,,,,,,,,,,,,,,,,,,,,,,,,,,,,,,,,,,,,,,,,,,rabbit,Animals,23,0,23,0,1,,,,,,,,,,,,,,,,,,
,,,,,,,,,,,,,,,90180,001,2022-04-20_23h10.09.888,SPAMnetsValid,2021.1.4,MacIntel,58.82352941,,,,,,,,,,,,,,,,,,,,,,,,,,,,,,,,,,,,,,,,,,,,,,,,,,,,,,,,,,,,,,,,,spider,Animals,24,0,24,0,1,,,,,,,,,,,,,,,,,,
,,,,,,,,,,,,,,,90180,001,2022-04-20_23h10.09.888,SPAMnetsValid,2021.1.4,MacIntel,58.82352941,,,,,,,,,,,,,,,,,,,,,,,,,,,,,,,,,,,,,,,,,,,,,,,,,,,,,,,,,,,,,,,,,monkey,Animals,25,0,25,0,1,,,,,,,,,,,,,,,,,,
,,,,,,,,,,,,,,,90180,001,2022-04-20_23h10.09.888,SPAMnetsValid,2021.1.4,MacIntel,58.82352941,,,,,,,,,,,,,,,,,,,,,,,,,,,,,,,,,,,,,,,,,,,,,,,,,,,,,,,,,,,,,,,,,,,,,,,,0,0,0,0,1,Animals,,,,,,,,,,,,
,,,,,,,,,,,,,,,90180,001,2022-04-20_23h10.09.888,SPAMnetsValid,2021.1.4,MacIntel,58.82352941,,,,,,,,,,,,,,,,,,,,,,,,,,,,,,,,,,,,,,,,,,,,,,,,,,,,,,,,,,,,,,,,,,,,,,,,,,,,,,5,3.582,0,0,0,0,1,"I enjoy concentrating on a fantasy or daydream and exploring all its possibilities, letting it grow and develop.",0,1,,
,,,,,,,,,,,,,,,90180,001,2022-04-20_23h10.09.888,SPAMnetsValid,2021.1.4,MacIntel,58.82352941,,,,,,,,,,,,,,,,,,,,,,,,,,,,,,,,,,,,,,,,,,,,,,,,,,,,,,,,,,,,,,,,,,,,,,,,,,,,,,4,2.016,0,1,1,1,1,I think it's interesting to learn and develop new hobbies.,0,2,,
,,,,,,,,,,,,,,,90180,001,2022-04-20_23h10.09.888,SPAMnetsValid,2021.1.4,MacIntel,58.82352941,,,,,,,,,,,,,,,,,,,,,,,,,,,,,,,,,,,,,,,,,,,,,,,,,,,,,,,,,,,,,,,,,,,,,,,,,,,,,,4,1.938,0,2,2,2,1,I am intrigued by the patterns I find in art and nature.,0,3,,
,,,,,,,,,,,,,,,90180,001,2022-04-20_23h10.09.888,SPAMnetsValid,2021.1.4,MacIntel,58.82352941,,,,,,,,,,,,,,,,,,,,,,,,,,,,,,,,,,,,,,,,,,,,,,,,,,,,,,,,,,,,,,,,,,,,,,,,,,,,,,4,2.962,0,3,3,3,1,I believe letting students hear controversial speakers can only confuse and mislead them.,1,4,,
,,,,,,,,,,,,,,,90180,001,2022-04-20_23h10.09.888,SPAMnetsValid,2021.1.4,MacIntel,58.82352941,,,,,,,,,,,,,,,,,,,,,,,,,,,,,,,,,,,,,,,,,,,,,,,,,,,,,,,,,,,,,,,,,,,,,,,,,,,,,,5,2.072,0,4,4,4,1,Poetry has little or no effect on me.,1,5,,
,,,,,,,,,,,,,,,90180,001,2022-04-20_23h10.09.888,SPAMnetsValid,2021.1.4,MacIntel,58.82352941,,,,,,,,,,,,,,,,,,,,,,,,,,,,,,,,,,,,,,,,,,,,,,,,,,,,,,,,,,,,,,,,,,,,,,,,,,,,,,1,8.907,0,5,5,5,1,I would have difficulty just letting my mind wander without control or guidance.,1,6,,
,,,,,,,,,,,,,,,90180,001,2022-04-20_23h10.09.888,SPAMnetsValid,2021.1.4,MacIntel,58.82352941,,,,,,,,,,,,,,,,,,,,,,,,,,,,,,,,,,,,,,,,,,,,,,,,,,,,,,,,,,,,,,,,,,,,,,,,,,,,,,4,3.072,0,6,6,6,1,I seldom notice the moods or feelings that different environments produce.,1,7,,
,,,,,,,,,,,,,,,90180,001,2022-04-20_23h10.09.888,SPAMnetsValid,2021.1.4,MacIntel,58.82352941,,,,,,,,,,,,,,,,,,,,,,,,,,,,,,,,,,,,,,,,,,,,,,,,,,,,,,,,,,,,,,,,,,,,,,,,,,,,,,5,1.571,0,7,7,7,1,I experience a wide range of emotions or feelings.,0,8,,
,,,,,,,,,,,,,,,90180,001,2022-04-20_23h10.09.888,SPAMnetsValid,2021.1.4,MacIntel,58.82352941,,,,,,,,,,,,,,,,,,,,,,,,,,,,,,,,,,,,,,,,,,,,,,,,,,,,,,,,,,,,,,,,,,,,,,,,,,,,,,1,3.328,0,8,8,8,1,"Sometimes when I am reading poetry or looking at a work of art, I feel a chill or wave of excitement.",0,9,,
,,,,,,,,,,,,,,,90180,001,2022-04-20_23h10.09.888,SPAMnetsValid,2021.1.4,MacIntel,58.82352941,,,,,,,,,,,,,,,,,,,,,,,,,,,,,,,,,,,,,,,,,,,,,,,,,,,,,,,,,,,,,,,,,,,,,,,,,,,,,,2,3.155,0,9,9,9,1,I have little interest in speculating on the nature of the universe or the human condition.,1,10,,
,,,,,,,,,,,,,,,90180,001,2022-04-20_23h10.09.888,SPAMnetsValid,2021.1.4,MacIntel,58.82352941,,,,,,,,,,,,,,,,,,,,,,,,,,,,,,,,,,,,,,,,,,,,,,,,,,,,,,,,,,,,,,,,,,,,,,,,,,,,,,5,2.239,0,10,10,10,1,I have a lot of intellectual curiosity.,0,11,,
,,,,,,,,,,,,,,,90180,001,2022-04-20_23h10.09.888,SPAMnetsValid,2021.1.4,MacIntel,58.82352941,,,,,,,,,,,,,,,,,,,,,,,,,,,,,,,,,,,,,,,,,,,,,,,,,,,,,,,,,,,,,,,,,,,,,,,,,,,,,,5,1.806,0,11,11,11,1,I often enjoy playing with theories or abstract ideas.,0,12,,
,,,,,,,,,,,,,,,90180,001,2022-04-20_23h10.09.888,SPAMnetsValid,2021.1.4,MacIntel,58.82352941,,,,,,,,,,,,,,,,,,,,,,,,,,,,,,,,,,,,,,,,,,,,,,,,,,,,,,,,,,,,,,,,,,,,,,,,,,,,,,,,,,,,,,,,return,5.441
