key_resp_3.keys,key_resp_3.rt,slider.response,slider.rt,rjt_rating,rjt_RT,trials_22.thisRepN,trials_22.thisTrialN,trials_22.thisN,trials_22.thisIndex,trials_22.ran,rjt_order,word1,word2,attention,participant,session,date,expName,psychopyVersion,OS,frameRate,trials_99.thisRepN,trials_99.thisTrialN,trials_99.thisN,trials_99.thisIndex,trials_99.ran,trials_5.thisRepN,trials_5.thisTrialN,trials_5.thisN,trials_5.thisIndex,trials_5.ran,repOne,repTwo,slider_2.response,slider_2.rt,trials_24.thisRepN,trials_24.thisTrialN,trials_24.thisN,trials_24.thisIndex,trials_24.ran,trials_4.thisRepN,trials_4.thisTrialN,trials_4.thisN,trials_4.thisIndex,trials_4.ran,slider_extend_2.response,slider_extend_2.rt,trials_6.thisRepN,trials_6.thisTrialN,trials_6.thisN,trials_6.thisIndex,trials_6.ran,vCue2,R1,R2,R3,R4,correct,sliderVocab.response,sliderVocab.rt,trials_7.thisRepN,trials_7.thisTrialN,trials_7.thisN,trials_7.thisIndex,trials_7.ran,VocabCue,VR1,VR2,VR3,VR4,VR5,VocabCorrect,AUT_resp,AUT_label,trials.thisRepN,trials.thisTrialN,trials.thisN,trials.thisIndex,trials.ran,trials_2.thisRepN,trials_2.thisTrialN,trials_2.thisN,trials_2.thisIndex,trials_2.ran,aut_prompt,VF_response,VF_tag,trials_16.thisRepN,trials_16.thisTrialN,trials_16.thisN,trials_16.thisIndex,trials_16.ran,trials_17.thisRepN,trials_17.thisTrialN,trials_17.thisN,trials_17.thisIndex,trials_17.ran,VFcond,open_slider.response,open_slider.rt,trials_3.thisRepN,trials_3.thisTrialN,trials_3.thisN,trials_3.thisIndex,trials_3.ran,OpenQ,Rev,OPEN_ORDER,key_resp_2.keys,key_resp_2.rt
return,1.9516,3,20.5644,3,20.5644,0,0,0,34,1,29,chocolate,melon,,90189,001,2022-04-25_20h29.32.632,SPAMnetsValid,2021.1.4,Win32,30.0120048,,,,,,,,,,,,,,,,,,,,,,,,,,,,,,,,,,,,,,,,,,,,,,,,,,,,,,,,,,,,,,,,,,,,,,,,,,,,,,,,,,,,,,,,,
,,4,9.9019,4,9.9019,0,1,1,72,1,59,rose,strawberry,,90189,001,2022-04-25_20h29.32.632,SPAMnetsValid,2021.1.4,Win32,30.0120048,,,,,,,,,,,,,,,,,,,,,,,,,,,,,,,,,,,,,,,,,,,,,,,,,,,,,,,,,,,,,,,,,,,,,,,,,,,,,,,,,,,,,,,,,
,,2,2.6589,2,2.6589,0,2,2,6,1,87,carrot,yogurt,,90189,001,2022-04-25_20h29.32.632,SPAMnetsValid,2021.1.4,Win32,30.0120048,,,,,,,,,,,,,,,,,,,,,,,,,,,,,,,,,,,,,,,,,,,,,,,,,,,,,,,,,,,,,,,,,,,,,,,,,,,,,,,,,,,,,,,,,
,,7,2.9653,7,2.9653,0,3,3,78,1,30,cookie,pretzel,,90189,001,2022-04-25_20h29.32.632,SPAMnetsValid,2021.1.4,Win32,30.0120048,,,,,,,,,,,,,,,,,,,,,,,,,,,,,,,,,,,,,,,,,,,,,,,,,,,,,,,,,,,,,,,,,,,,,,,,,,,,,,,,,,,,,,,,,
,,2,2.3668,2,2.3668,0,4,4,63,1,21,cake,onion,,90189,001,2022-04-25_20h29.32.632,SPAMnetsValid,2021.1.4,Win32,30.0120048,,,,,,,,,,,,,,,,,,,,,,,,,,,,,,,,,,,,,,,,,,,,,,,,,,,,,,,,,,,,,,,,,,,,,,,,,,,,,,,,,,,,,,,,,
,,3,1.9943,3,1.9943,0,5,5,55,1,1,rose,yogurt,,90189,001,2022-04-25_20h29.32.632,SPAMnetsValid,2021.1.4,Win32,30.0120048,,,,,,,,,,,,,,,,,,,,,,,,,,,,,,,,,,,,,,,,,,,,,,,,,,,,,,,,,,,,,,,,,,,,,,,,,,,,,,,,,,,,,,,,,
,,2,2.764,2,2.764,0,6,6,73,1,50,carrot,rose,,90189,001,2022-04-25_20h29.32.632,SPAMnetsValid,2021.1.4,Win32,30.0120048,,,,,,,,,,,,,,,,,,,,,,,,,,,,,,,,,,,,,,,,,,,,,,,,,,,,,,,,,,,,,,,,,,,,,,,,,,,,,,,,,,,,,,,,,
,,2,1.4979,2,1.4979,0,7,7,14,1,64,chocolate,garden,,90189,001,2022-04-25_20h29.32.632,SPAMnetsValid,2021.1.4,Win32,30.0120048,,,,,,,,,,,,,,,,,,,,,,,,,,,,,,,,,,,,,,,,,,,,,,,,,,,,,,,,,,,,,,,,,,,,,,,,,,,,,,,,,,,,,,,,,
,,2,1.5321,2,1.5321,0,8,8,28,1,84,oven,tomato,,90189,001,2022-04-25_20h29.32.632,SPAMnetsValid,2021.1.4,Win32,30.0120048,,,,,,,,,,,,,,,,,,,,,,,,,,,,,,,,,,,,,,,,,,,,,,,,,,,,,,,,,,,,,,,,,,,,,,,,,,,,,,,,,,,,,,,,,
,,9,1.8104,9,1.8104,0,9,9,64,1,9,kitchen,refrigerator,,90189,001,2022-04-25_20h29.32.632,SPAMnetsValid,2021.1.4,Win32,30.0120048,,,,,,,,,,,,,,,,,,,,,,,,,,,,,,,,,,,,,,,,,,,,,,,,,,,,,,,,,,,,,,,,,,,,,,,,,,,,,,,,,,,,,,,,,
,,2,1.4133,2,1.4133,0,10,10,13,1,26,tomato,yogurt,,90189,001,2022-04-25_20h29.32.632,SPAMnetsValid,2021.1.4,Win32,30.0120048,,,,,,,,,,,,,,,,,,,,,,,,,,,,,,,,,,,,,,,,,,,,,,,,,,,,,,,,,,,,,,,,,,,,,,,,,,,,,,,,,,,,,,,,,
,,6,2.8816,6,2.8816,0,11,11,45,1,10,flower,onion,,90189,001,2022-04-25_20h29.32.632,SPAMnetsValid,2021.1.4,Win32,30.0120048,,,,,,,,,,,,,,,,,,,,,,,,,,,,,,,,,,,,,,,,,,,,,,,,,,,,,,,,,,,,,,,,,,,,,,,,,,,,,,,,,,,,,,,,,
,,1,1.5141,1,1.5141,0,12,12,32,1,40,broom,cake,,90189,001,2022-04-25_20h29.32.632,SPAMnetsValid,2021.1.4,Win32,30.0120048,,,,,,,,,,,,,,,,,,,,,,,,,,,,,,,,,,,,,,,,,,,,,,,,,,,,,,,,,,,,,,,,,,,,,,,,,,,,,,,,,,,,,,,,,
,,1,1.743,1,1.743,0,13,13,86,1,51,onion,strawberry,,90189,001,2022-04-25_20h29.32.632,SPAMnetsValid,2021.1.4,Win32,30.0120048,,,,,,,,,,,,,,,,,,,,,,,,,,,,,,,,,,,,,,,,,,,,,,,,,,,,,,,,,,,,,,,,,,,,,,,,,,,,,,,,,,,,,,,,,
,,1,1.2024,1,1.2024,0,14,14,2,1,22,kitchen,strawberry,,90189,001,2022-04-25_20h29.32.632,SPAMnetsValid,2021.1.4,Win32,30.0120048,,,,,,,,,,,,,,,,,,,,,,,,,,,,,,,,,,,,,,,,,,,,,,,,,,,,,,,,,,,,,,,,,,,,,,,,,,,,,,,,,,,,,,,,,
,,1,1.3964,1,1.3964,0,15,15,49,1,57,flower,kitchen,,90189,001,2022-04-25_20h29.32.632,SPAMnetsValid,2021.1.4,Win32,30.0120048,,,,,,,,,,,,,,,,,,,,,,,,,,,,,,,,,,,,,,,,,,,,,,,,,,,,,,,,,,,,,,,,,,,,,,,,,,,,,,,,,,,,,,,,,
,,1,1.094,1,1.094,0,16,16,65,1,46,garden,yogurt,,90189,001,2022-04-25_20h29.32.632,SPAMnetsValid,2021.1.4,Win32,30.0120048,,,,,,,,,,,,,,,,,,,,,,,,,,,,,,,,,,,,,,,,,,,,,,,,,,,,,,,,,,,,,,,,,,,,,,,,,,,,,,,,,,,,,,,,,
,,9,2.1459,9,2.1459,0,17,17,24,1,17,carrot,melon,,90189,001,2022-04-25_20h29.32.632,SPAMnetsValid,2021.1.4,Win32,30.0120048,,,,,,,,,,,,,,,,,,,,,,,,,,,,,,,,,,,,,,,,,,,,,,,,,,,,,,,,,,,,,,,,,,,,,,,,,,,,,,,,,,,,,,,,,
,,1,1.442,1,1.442,0,18,18,5,1,13,broom,yogurt,,90189,001,2022-04-25_20h29.32.632,SPAMnetsValid,2021.1.4,Win32,30.0120048,,,,,,,,,,,,,,,,,,,,,,,,,,,,,,,,,,,,,,,,,,,,,,,,,,,,,,,,,,,,,,,,,,,,,,,,,,,,,,,,,,,,,,,,,
,,1,1.1075,1,1.1075,0,19,19,4,1,83,broom,carrot,,90189,001,2022-04-25_20h29.32.632,SPAMnetsValid,2021.1.4,Win32,30.0120048,,,,,,,,,,,,,,,,,,,,,,,,,,,,,,,,,,,,,,,,,,,,,,,,,,,,,,,,,,,,,,,,,,,,,,,,,,,,,,,,,,,,,,,,,
,,1,1.1295,1,1.1295,0,20,20,91,1,2,kitchen,onion,,90189,001,2022-04-25_20h29.32.632,SPAMnetsValid,2021.1.4,Win32,30.0120048,,,,,,,,,,,,,,,,,,,,,,,,,,,,,,,,,,,,,,,,,,,,,,,,,,,,,,,,,,,,,,,,,,,,,,,,,,,,,,,,,,,,,,,,,
,,6,2.3805,6,2.3805,0,21,21,76,1,36,broom,kitchen,,90189,001,2022-04-25_20h29.32.632,SPAMnetsValid,2021.1.4,Win32,30.0120048,,,,,,,,,,,,,,,,,,,,,,,,,,,,,,,,,,,,,,,,,,,,,,,,,,,,,,,,,,,,,,,,,,,,,,,,,,,,,,,,,,,,,,,,,
,,6,1.1323,6,1.1323,0,22,22,62,1,18,onion,refrigerator,,90189,001,2022-04-25_20h29.32.632,SPAMnetsValid,2021.1.4,Win32,30.0120048,,,,,,,,,,,,,,,,,,,,,,,,,,,,,,,,,,,,,,,,,,,,,,,,,,,,,,,,,,,,,,,,,,,,,,,,,,,,,,,,,,,,,,,,,
,,6,1.2837,6,1.2837,0,23,23,15,1,48,flower,oven,,90189,001,2022-04-25_20h29.32.632,SPAMnetsValid,2021.1.4,Win32,30.0120048,,,,,,,,,,,,,,,,,,,,,,,,,,,,,,,,,,,,,,,,,,,,,,,,,,,,,,,,,,,,,,,,,,,,,,,,,,,,,,,,,,,,,,,,,
,,2,2.2811,2,2.2811,0,24,24,74,1,70,chocolate,onion,,90189,001,2022-04-25_20h29.32.632,SPAMnetsValid,2021.1.4,Win32,30.0120048,,,,,,,,,,,,,,,,,,,,,,,,,,,,,,,,,,,,,,,,,,,,,,,,,,,,,,,,,,,,,,,,,,,,,,,,,,,,,,,,,,,,,,,,,
,,2,1.5336,2,1.5336,0,25,25,47,1,73,broom,chocolate,,90189,001,2022-04-25_20h29.32.632,SPAMnetsValid,2021.1.4,Win32,30.0120048,,,,,,,,,,,,,,,,,,,,,,,,,,,,,,,,,,,,,,,,,,,,,,,,,,,,,,,,,,,,,,,,,,,,,,,,,,,,,,,,,,,,,,,,,
,,7,2.0145,7,2.0145,0,26,26,36,1,12,cookie,yogurt,,90189,001,2022-04-25_20h29.32.632,SPAMnetsValid,2021.1.4,Win32,30.0120048,,,,,,,,,,,,,,,,,,,,,,,,,,,,,,,,,,,,,,,,,,,,,,,,,,,,,,,,,,,,,,,,,,,,,,,,,,,,,,,,,,,,,,,,,
,,9,2.6045,9,2.6045,0,27,27,19,1,76,garden,rose,,90189,001,2022-04-25_20h29.32.632,SPAMnetsValid,2021.1.4,Win32,30.0120048,,,,,,,,,,,,,,,,,,,,,,,,,,,,,,,,,,,,,,,,,,,,,,,,,,,,,,,,,,,,,,,,,,,,,,,,,,,,,,,,,,,,,,,,,
,,1,3.7968,1,3.7968,0,28,28,79,1,86,oven,rose,,90189,001,2022-04-25_20h29.32.632,SPAMnetsValid,2021.1.4,Win32,30.0120048,,,,,,,,,,,,,,,,,,,,,,,,,,,,,,,,,,,,,,,,,,,,,,,,,,,,,,,,,,,,,,,,,,,,,,,,,,,,,,,,,,,,,,,,,
,,6,3.2794,6,3.2794,0,29,29,38,1,88,cactus,melon,,90189,001,2022-04-25_20h29.32.632,SPAMnetsValid,2021.1.4,Win32,30.0120048,,,,,,,,,,,,,,,,,,,,,,,,,,,,,,,,,,,,,,,,,,,,,,,,,,,,,,,,,,,,,,,,,,,,,,,,,,,,,,,,,,,,,,,,,
,,9,2.0141,9,2.0141,0,30,30,53,1,192,microwave,microwave,CHECK,90189,001,2022-04-25_20h29.32.632,SPAMnetsValid,2021.1.4,Win32,30.0120048,,,,,,,,,,,,,,,,,,,,,,,,,,,,,,,,,,,,,,,,,,,,,,,,,,,,,,,,,,,,,,,,,,,,,,,,,,,,,,,,,,,,,,,,,
,,1,1.4796,1,1.4796,0,31,31,22,1,16,chocolate,flower,,90189,001,2022-04-25_20h29.32.632,SPAMnetsValid,2021.1.4,Win32,30.0120048,,,,,,,,,,,,,,,,,,,,,,,,,,,,,,,,,,,,,,,,,,,,,,,,,,,,,,,,,,,,,,,,,,,,,,,,,,,,,,,,,,,,,,,,,
,,4,3.2977,4,3.2977,0,32,32,41,1,19,microwave,pretzel,,90189,001,2022-04-25_20h29.32.632,SPAMnetsValid,2021.1.4,Win32,30.0120048,,,,,,,,,,,,,,,,,,,,,,,,,,,,,,,,,,,,,,,,,,,,,,,,,,,,,,,,,,,,,,,,,,,,,,,,,,,,,,,,,,,,,,,,,
,,4,2.5626,4,2.5626,0,33,33,80,1,61,strawberry,tomato,,90189,001,2022-04-25_20h29.32.632,SPAMnetsValid,2021.1.4,Win32,30.0120048,,,,,,,,,,,,,,,,,,,,,,,,,,,,,,,,,,,,,,,,,,,,,,,,,,,,,,,,,,,,,,,,,,,,,,,,,,,,,,,,,,,,,,,,,
,,1,2.1816,1,2.1816,0,34,34,61,1,71,broom,rose,,90189,001,2022-04-25_20h29.32.632,SPAMnetsValid,2021.1.4,Win32,30.0120048,,,,,,,,,,,,,,,,,,,,,,,,,,,,,,,,,,,,,,,,,,,,,,,,,,,,,,,,,,,,,,,,,,,,,,,,,,,,,,,,,,,,,,,,,
,,6,1.596,6,1.596,0,35,35,48,1,66,melon,yogurt,,90189,001,2022-04-25_20h29.32.632,SPAMnetsValid,2021.1.4,Win32,30.0120048,,,,,,,,,,,,,,,,,,,,,,,,,,,,,,,,,,,,,,,,,,,,,,,,,,,,,,,,,,,,,,,,,,,,,,,,,,,,,,,,,,,,,,,,,
,,6,1.733,6,1.733,0,36,36,42,1,77,refrigerator,yogurt,,90189,001,2022-04-25_20h29.32.632,SPAMnetsValid,2021.1.4,Win32,30.0120048,,,,,,,,,,,,,,,,,,,,,,,,,,,,,,,,,,,,,,,,,,,,,,,,,,,,,,,,,,,,,,,,,,,,,,,,,,,,,,,,,,,,,,,,,
,,2,2.417,2,2.417,0,37,37,40,1,74,broom,pretzel,,90189,001,2022-04-25_20h29.32.632,SPAMnetsValid,2021.1.4,Win32,30.0120048,,,,,,,,,,,,,,,,,,,,,,,,,,,,,,,,,,,,,,,,,,,,,,,,,,,,,,,,,,,,,,,,,,,,,,,,,,,,,,,,,,,,,,,,,
,,2,1.3632,2,1.3632,0,38,38,7,1,34,melon,oven,,90189,001,2022-04-25_20h29.32.632,SPAMnetsValid,2021.1.4,Win32,30.0120048,,,,,,,,,,,,,,,,,,,,,,,,,,,,,,,,,,,,,,,,,,,,,,,,,,,,,,,,,,,,,,,,,,,,,,,,,,,,,,,,,,,,,,,,,
,,2,1.2949,2,1.2949,0,39,39,39,1,15,onion,oven,,90189,001,2022-04-25_20h29.32.632,SPAMnetsValid,2021.1.4,Win32,30.0120048,,,,,,,,,,,,,,,,,,,,,,,,,,,,,,,,,,,,,,,,,,,,,,,,,,,,,,,,,,,,,,,,,,,,,,,,,,,,,,,,,,,,,,,,,
,,2,1.1965,2,1.1965,0,40,40,84,1,91,microwave,rose,,90189,001,2022-04-25_20h29.32.632,SPAMnetsValid,2021.1.4,Win32,30.0120048,,,,,,,,,,,,,,,,,,,,,,,,,,,,,,,,,,,,,,,,,,,,,,,,,,,,,,,,,,,,,,,,,,,,,,,,,,,,,,,,,,,,,,,,,
,,2,1.5711,2,1.5711,0,41,41,83,1,6,garden,onion,,90189,001,2022-04-25_20h29.32.632,SPAMnetsValid,2021.1.4,Win32,30.0120048,,,,,,,,,,,,,,,,,,,,,,,,,,,,,,,,,,,,,,,,,,,,,,,,,,,,,,,,,,,,,,,,,,,,,,,,,,,,,,,,,,,,,,,,,
,,8,2.012,8,2.012,0,42,42,10,1,191,cake,cake,CHECK,90189,001,2022-04-25_20h29.32.632,SPAMnetsValid,2021.1.4,Win32,30.0120048,,,,,,,,,,,,,,,,,,,,,,,,,,,,,,,,,,,,,,,,,,,,,,,,,,,,,,,,,,,,,,,,,,,,,,,,,,,,,,,,,,,,,,,,,
,,8,1.1293,8,1.1293,0,43,43,52,1,4,chocolate,pretzel,,90189,001,2022-04-25_20h29.32.632,SPAMnetsValid,2021.1.4,Win32,30.0120048,,,,,,,,,,,,,,,,,,,,,,,,,,,,,,,,,,,,,,,,,,,,,,,,,,,,,,,,,,,,,,,,,,,,,,,,,,,,,,,,,,,,,,,,,
,,7,1.1298,7,1.1298,0,44,44,35,1,55,tomato,tree,,90189,001,2022-04-25_20h29.32.632,SPAMnetsValid,2021.1.4,Win32,30.0120048,,,,,,,,,,,,,,,,,,,,,,,,,,,,,,,,,,,,,,,,,,,,,,,,,,,,,,,,,,,,,,,,,,,,,,,,,,,,,,,,,,,,,,,,,
,,7,2.2951,7,2.2951,0,45,45,93,1,63,cake,cookie,,90189,001,2022-04-25_20h29.32.632,SPAMnetsValid,2021.1.4,Win32,30.0120048,,,,,,,,,,,,,,,,,,,,,,,,,,,,,,,,,,,,,,,,,,,,,,,,,,,,,,,,,,,,,,,,,,,,,,,,,,,,,,,,,,,,,,,,,
,,2,3.646,2,3.646,0,46,46,56,1,78,cookie,rose,,90189,001,2022-04-25_20h29.32.632,SPAMnetsValid,2021.1.4,Win32,30.0120048,,,,,,,,,,,,,,,,,,,,,,,,,,,,,,,,,,,,,,,,,,,,,,,,,,,,,,,,,,,,,,,,,,,,,,,,,,,,,,,,,,,,,,,,,
,,6,2.3292,6,2.3292,0,47,47,77,1,7,melon,tree,,90189,001,2022-04-25_20h29.32.632,SPAMnetsValid,2021.1.4,Win32,30.0120048,,,,,,,,,,,,,,,,,,,,,,,,,,,,,,,,,,,,,,,,,,,,,,,,,,,,,,,,,,,,,,,,,,,,,,,,,,,,,,,,,,,,,,,,,
,,6,1.6969,6,1.6969,0,48,48,95,1,52,carrot,tomato,,90189,001,2022-04-25_20h29.32.632,SPAMnetsValid,2021.1.4,Win32,30.0120048,,,,,,,,,,,,,,,,,,,,,,,,,,,,,,,,,,,,,,,,,,,,,,,,,,,,,,,,,,,,,,,,,,,,,,,,,,,,,,,,,,,,,,,,,
,,8,2.4438,8,2.4438,0,49,49,21,1,56,cactus,tree,,90189,001,2022-04-25_20h29.32.632,SPAMnetsValid,2021.1.4,Win32,30.0120048,,,,,,,,,,,,,,,,,,,,,,,,,,,,,,,,,,,,,,,,,,,,,,,,,,,,,,,,,,,,,,,,,,,,,,,,,,,,,,,,,,,,,,,,,
,,1,2.2802,1,2.2802,0,50,50,27,1,72,broom,onion,,90189,001,2022-04-25_20h29.32.632,SPAMnetsValid,2021.1.4,Win32,30.0120048,,,,,,,,,,,,,,,,,,,,,,,,,,,,,,,,,,,,,,,,,,,,,,,,,,,,,,,,,,,,,,,,,,,,,,,,,,,,,,,,,,,,,,,,,
,,7,2.8191,7,2.8191,0,51,51,96,1,82,cake,kitchen,,90189,001,2022-04-25_20h29.32.632,SPAMnetsValid,2021.1.4,Win32,30.0120048,,,,,,,,,,,,,,,,,,,,,,,,,,,,,,,,,,,,,,,,,,,,,,,,,,,,,,,,,,,,,,,,,,,,,,,,,,,,,,,,,,,,,,,,,
,,6,1.5486,6,1.5486,0,52,52,57,1,62,kitchen,rose,,90189,001,2022-04-25_20h29.32.632,SPAMnetsValid,2021.1.4,Win32,30.0120048,,,,,,,,,,,,,,,,,,,,,,,,,,,,,,,,,,,,,,,,,,,,,,,,,,,,,,,,,,,,,,,,,,,,,,,,,,,,,,,,,,,,,,,,,
,,1,1.6938,1,1.6938,0,53,53,31,1,33,oven,yogurt,,90189,001,2022-04-25_20h29.32.632,SPAMnetsValid,2021.1.4,Win32,30.0120048,,,,,,,,,,,,,,,,,,,,,,,,,,,,,,,,,,,,,,,,,,,,,,,,,,,,,,,,,,,,,,,,,,,,,,,,,,,,,,,,,,,,,,,,,
,,2,2.7675,2,2.7675,0,54,54,8,1,43,chocolate,tomato,,90189,001,2022-04-25_20h29.32.632,SPAMnetsValid,2021.1.4,Win32,30.0120048,,,,,,,,,,,,,,,,,,,,,,,,,,,,,,,,,,,,,,,,,,,,,,,,,,,,,,,,,,,,,,,,,,,,,,,,,,,,,,,,,,,,,,,,,
,,9,2.0116,9,2.0116,0,55,55,82,1,93,kitchen,oven,,90189,001,2022-04-25_20h29.32.632,SPAMnetsValid,2021.1.4,Win32,30.0120048,,,,,,,,,,,,,,,,,,,,,,,,,,,,,,,,,,,,,,,,,,,,,,,,,,,,,,,,,,,,,,,,,,,,,,,,,,,,,,,,,,,,,,,,,
,,9,2.359,9,2.359,0,56,56,51,1,47,onion,tomato,,90189,001,2022-04-25_20h29.32.632,SPAMnetsValid,2021.1.4,Win32,30.0120048,,,,,,,,,,,,,,,,,,,,,,,,,,,,,,,,,,,,,,,,,,,,,,,,,,,,,,,,,,,,,,,,,,,,,,,,,,,,,,,,,,,,,,,,,
,,2,8.1489,2,8.1489,0,57,57,90,1,95,broom,refrigerator,,90189,001,2022-04-25_20h29.32.632,SPAMnetsValid,2021.1.4,Win32,30.0120048,,,,,,,,,,,,,,,,,,,,,,,,,,,,,,,,,,,,,,,,,,,,,,,,,,,,,,,,,,,,,,,,,,,,,,,,,,,,,,,,,,,,,,,,,
,,9,2.8804,9,2.8804,0,58,58,44,1,25,carrot,onion,,90189,001,2022-04-25_20h29.32.632,SPAMnetsValid,2021.1.4,Win32,30.0120048,,,,,,,,,,,,,,,,,,,,,,,,,,,,,,,,,,,,,,,,,,,,,,,,,,,,,,,,,,,,,,,,,,,,,,,,,,,,,,,,,,,,,,,,,
,,7,1.3876,7,1.3876,0,59,59,75,1,69,carrot,refrigerator,,90189,001,2022-04-25_20h29.32.632,SPAMnetsValid,2021.1.4,Win32,30.0120048,,,,,,,,,,,,,,,,,,,,,,,,,,,,,,,,,,,,,,,,,,,,,,,,,,,,,,,,,,,,,,,,,,,,,,,,,,,,,,,,,,,,,,,,,
,,7,1.0815,7,1.0815,0,60,60,0,1,53,garden,pretzel,,90189,001,2022-04-25_20h29.32.632,SPAMnetsValid,2021.1.4,Win32,30.0120048,,,,,,,,,,,,,,,,,,,,,,,,,,,,,,,,,,,,,,,,,,,,,,,,,,,,,,,,,,,,,,,,,,,,,,,,,,,,,,,,,,,,,,,,,
,,7,1.4973,7,1.4973,0,61,61,3,1,49,flower,strawberry,,90189,001,2022-04-25_20h29.32.632,SPAMnetsValid,2021.1.4,Win32,30.0120048,,,,,,,,,,,,,,,,,,,,,,,,,,,,,,,,,,,,,,,,,,,,,,,,,,,,,,,,,,,,,,,,,,,,,,,,,,,,,,,,,,,,,,,,,
,,2,2.8256,2,2.8256,0,62,62,12,1,67,flower,yogurt,,90189,001,2022-04-25_20h29.32.632,SPAMnetsValid,2021.1.4,Win32,30.0120048,,,,,,,,,,,,,,,,,,,,,,,,,,,,,,,,,,,,,,,,,,,,,,,,,,,,,,,,,,,,,,,,,,,,,,,,,,,,,,,,,,,,,,,,,
,,7,1.7488,7,1.7488,0,63,63,50,1,81,pretzel,yogurt,,90189,001,2022-04-25_20h29.32.632,SPAMnetsValid,2021.1.4,Win32,30.0120048,,,,,,,,,,,,,,,,,,,,,,,,,,,,,,,,,,,,,,,,,,,,,,,,,,,,,,,,,,,,,,,,,,,,,,,,,,,,,,,,,,,,,,,,,
,,2,1.4988,2,1.4988,0,64,64,46,1,41,broom,cactus,,90189,001,2022-04-25_20h29.32.632,SPAMnetsValid,2021.1.4,Win32,30.0120048,,,,,,,,,,,,,,,,,,,,,,,,,,,,,,,,,,,,,,,,,,,,,,,,,,,,,,,,,,,,,,,,,,,,,,,,,,,,,,,,,,,,,,,,,
,,2,1.6127,2,1.6127,0,65,65,29,1,42,garden,kitchen,,90189,001,2022-04-25_20h29.32.632,SPAMnetsValid,2021.1.4,Win32,30.0120048,,,,,,,,,,,,,,,,,,,,,,,,,,,,,,,,,,,,,,,,,,,,,,,,,,,,,,,,,,,,,,,,,,,,,,,,,,,,,,,,,,,,,,,,,
,,7,1.7457,7,1.7457,0,66,66,66,1,20,rose,tree,,90189,001,2022-04-25_20h29.32.632,SPAMnetsValid,2021.1.4,Win32,30.0120048,,,,,,,,,,,,,,,,,,,,,,,,,,,,,,,,,,,,,,,,,,,,,,,,,,,,,,,,,,,,,,,,,,,,,,,,,,,,,,,,,,,,,,,,,
,,7,1.063,7,1.063,0,67,67,69,1,45,onion,pretzel,,90189,001,2022-04-25_20h29.32.632,SPAMnetsValid,2021.1.4,Win32,30.0120048,,,,,,,,,,,,,,,,,,,,,,,,,,,,,,,,,,,,,,,,,,,,,,,,,,,,,,,,,,,,,,,,,,,,,,,,,,,,,,,,,,,,,,,,,
,,2,1.8801,2,1.8801,0,68,68,59,1,8,broom,melon,,90189,001,2022-04-25_20h29.32.632,SPAMnetsValid,2021.1.4,Win32,30.0120048,,,,,,,,,,,,,,,,,,,,,,,,,,,,,,,,,,,,,,,,,,,,,,,,,,,,,,,,,,,,,,,,,,,,,,,,,,,,,,,,,,,,,,,,,
,,7,2.0781,7,2.0781,0,69,69,30,1,3,cake,oven,,90189,001,2022-04-25_20h29.32.632,SPAMnetsValid,2021.1.4,Win32,30.0120048,,,,,,,,,,,,,,,,,,,,,,,,,,,,,,,,,,,,,,,,,,,,,,,,,,,,,,,,,,,,,,,,,,,,,,,,,,,,,,,,,,,,,,,,,
,,7,4.0634,7,4.0634,0,70,70,81,1,60,cactus,onion,,90189,001,2022-04-25_20h29.32.632,SPAMnetsValid,2021.1.4,Win32,30.0120048,,,,,,,,,,,,,,,,,,,,,,,,,,,,,,,,,,,,,,,,,,,,,,,,,,,,,,,,,,,,,,,,,,,,,,,,,,,,,,,,,,,,,,,,,
,,1,1.9292,1,1.9292,0,71,71,88,1,92,broom,flower,,90189,001,2022-04-25_20h29.32.632,SPAMnetsValid,2021.1.4,Win32,30.0120048,,,,,,,,,,,,,,,,,,,,,,,,,,,,,,,,,,,,,,,,,,,,,,,,,,,,,,,,,,,,,,,,,,,,,,,,,,,,,,,,,,,,,,,,,
,,2,2.4129,2,2.4129,0,72,72,89,1,80,chocolate,tree,,90189,001,2022-04-25_20h29.32.632,SPAMnetsValid,2021.1.4,Win32,30.0120048,,,,,,,,,,,,,,,,,,,,,,,,,,,,,,,,,,,,,,,,,,,,,,,,,,,,,,,,,,,,,,,,,,,,,,,,,,,,,,,,,,,,,,,,,
,,1,1.1121,1,1.1121,0,73,73,18,1,85,cake,tree,,90189,001,2022-04-25_20h29.32.632,SPAMnetsValid,2021.1.4,Win32,30.0120048,,,,,,,,,,,,,,,,,,,,,,,,,,,,,,,,,,,,,,,,,,,,,,,,,,,,,,,,,,,,,,,,,,,,,,,,,,,,,,,,,,,,,,,,,
,,1,1.4162,1,1.4162,0,74,74,85,1,90,cactus,cake,,90189,001,2022-04-25_20h29.32.632,SPAMnetsValid,2021.1.4,Win32,30.0120048,,,,,,,,,,,,,,,,,,,,,,,,,,,,,,,,,,,,,,,,,,,,,,,,,,,,,,,,,,,,,,,,,,,,,,,,,,,,,,,,,,,,,,,,,
,,7,1.5797,7,1.5797,0,75,75,92,1,44,cookie,melon,,90189,001,2022-04-25_20h29.32.632,SPAMnetsValid,2021.1.4,Win32,30.0120048,,,,,,,,,,,,,,,,,,,,,,,,,,,,,,,,,,,,,,,,,,,,,,,,,,,,,,,,,,,,,,,,,,,,,,,,,,,,,,,,,,,,,,,,,
,,6,1.413,6,1.413,0,76,76,16,1,14,broom,cookie,,90189,001,2022-04-25_20h29.32.632,SPAMnetsValid,2021.1.4,Win32,30.0120048,,,,,,,,,,,,,,,,,,,,,,,,,,,,,,,,,,,,,,,,,,,,,,,,,,,,,,,,,,,,,,,,,,,,,,,,,,,,,,,,,,,,,,,,,
,,6,1.7321,6,1.7321,0,77,77,87,1,79,garden,strawberry,,90189,001,2022-04-25_20h29.32.632,SPAMnetsValid,2021.1.4,Win32,30.0120048,,,,,,,,,,,,,,,,,,,,,,,,,,,,,,,,,,,,,,,,,,,,,,,,,,,,,,,,,,,,,,,,,,,,,,,,,,,,,,,,,,,,,,,,,
,,8,2.4309,8,2.4309,0,78,78,58,1,94,kitchen,microwave,,90189,001,2022-04-25_20h29.32.632,SPAMnetsValid,2021.1.4,Win32,30.0120048,,,,,,,,,,,,,,,,,,,,,,,,,,,,,,,,,,,,,,,,,,,,,,,,,,,,,,,,,,,,,,,,,,,,,,,,,,,,,,,,,,,,,,,,,
,,1,2.4674,1,2.4674,0,79,79,37,1,58,garden,oven,,90189,001,2022-04-25_20h29.32.632,SPAMnetsValid,2021.1.4,Win32,30.0120048,,,,,,,,,,,,,,,,,,,,,,,,,,,,,,,,,,,,,,,,,,,,,,,,,,,,,,,,,,,,,,,,,,,,,,,,,,,,,,,,,,,,,,,,,
,,1,1.4357,1,1.4357,0,80,80,43,1,11,refrigerator,tree,,90189,001,2022-04-25_20h29.32.632,SPAMnetsValid,2021.1.4,Win32,30.0120048,,,,,,,,,,,,,,,,,,,,,,,,,,,,,,,,,,,,,,,,,,,,,,,,,,,,,,,,,,,,,,,,,,,,,,,,,,,,,,,,,,,,,,,,,
,,6,1.8986,6,1.8986,0,81,81,94,1,68,flower,tomato,,90189,001,2022-04-25_20h29.32.632,SPAMnetsValid,2021.1.4,Win32,30.0120048,,,,,,,,,,,,,,,,,,,,,,,,,,,,,,,,,,,,,,,,,,,,,,,,,,,,,,,,,,,,,,,,,,,,,,,,,,,,,,,,,,,,,,,,,
,,1,1.4674,1,1.4674,0,82,82,1,1,31,cactus,pretzel,,90189,001,2022-04-25_20h29.32.632,SPAMnetsValid,2021.1.4,Win32,30.0120048,,,,,,,,,,,,,,,,,,,,,,,,,,,,,,,,,,,,,,,,,,,,,,,,,,,,,,,,,,,,,,,,,,,,,,,,,,,,,,,,,,,,,,,,,
,,1,1.7629,1,1.7629,0,83,83,23,1,65,broom,garden,,90189,001,2022-04-25_20h29.32.632,SPAMnetsValid,2021.1.4,Win32,30.0120048,,,,,,,,,,,,,,,,,,,,,,,,,,,,,,,,,,,,,,,,,,,,,,,,,,,,,,,,,,,,,,,,,,,,,,,,,,,,,,,,,,,,,,,,,
,,2,2.4484,2,2.4484,0,84,84,60,1,89,chocolate,rose,,90189,001,2022-04-25_20h29.32.632,SPAMnetsValid,2021.1.4,Win32,30.0120048,,,,,,,,,,,,,,,,,,,,,,,,,,,,,,,,,,,,,,,,,,,,,,,,,,,,,,,,,,,,,,,,,,,,,,,,,,,,,,,,,,,,,,,,,
,,6,2.0807,6,2.0807,0,85,85,9,1,75,cookie,onion,,90189,001,2022-04-25_20h29.32.632,SPAMnetsValid,2021.1.4,Win32,30.0120048,,,,,,,,,,,,,,,,,,,,,,,,,,,,,,,,,,,,,,,,,,,,,,,,,,,,,,,,,,,,,,,,,,,,,,,,,,,,,,,,,,,,,,,,,
,,1,1.5952,1,1.5952,0,86,86,70,1,5,oven,tree,,90189,001,2022-04-25_20h29.32.632,SPAMnetsValid,2021.1.4,Win32,30.0120048,,,,,,,,,,,,,,,,,,,,,,,,,,,,,,,,,,,,,,,,,,,,,,,,,,,,,,,,,,,,,,,,,,,,,,,,,,,,,,,,,,,,,,,,,
,,4,3.8147,4,3.8147,0,87,87,71,1,38,pretzel,refrigerator,,90189,001,2022-04-25_20h29.32.632,SPAMnetsValid,2021.1.4,Win32,30.0120048,,,,,,,,,,,,,,,,,,,,,,,,,,,,,,,,,,,,,,,,,,,,,,,,,,,,,,,,,,,,,,,,,,,,,,,,,,,,,,,,,,,,,,,,,
,,2,1.2629,2,1.2629,0,88,88,17,1,27,cactus,cookie,,90189,001,2022-04-25_20h29.32.632,SPAMnetsValid,2021.1.4,Win32,30.0120048,,,,,,,,,,,,,,,,,,,,,,,,,,,,,,,,,,,,,,,,,,,,,,,,,,,,,,,,,,,,,,,,,,,,,,,,,,,,,,,,,,,,,,,,,
,,7,1.8295,7,1.8295,0,89,89,54,1,28,cake,melon,,90189,001,2022-04-25_20h29.32.632,SPAMnetsValid,2021.1.4,Win32,30.0120048,,,,,,,,,,,,,,,,,,,,,,,,,,,,,,,,,,,,,,,,,,,,,,,,,,,,,,,,,,,,,,,,,,,,,,,,,,,,,,,,,,,,,,,,,
,,7,1.7295,7,1.7295,0,90,90,68,1,24,cookie,tomato,,90189,001,2022-04-25_20h29.32.632,SPAMnetsValid,2021.1.4,Win32,30.0120048,,,,,,,,,,,,,,,,,,,,,,,,,,,,,,,,,,,,,,,,,,,,,,,,,,,,,,,,,,,,,,,,,,,,,,,,,,,,,,,,,,,,,,,,,
,,3,2.0497,3,2.0497,0,91,91,26,1,35,flower,pretzel,,90189,001,2022-04-25_20h29.32.632,SPAMnetsValid,2021.1.4,Win32,30.0120048,,,,,,,,,,,,,,,,,,,,,,,,,,,,,,,,,,,,,,,,,,,,,,,,,,,,,,,,,,,,,,,,,,,,,,,,,,,,,,,,,,,,,,,,,
,,6,2.2636,6,2.2636,0,92,92,20,1,39,melon,pretzel,,90189,001,2022-04-25_20h29.32.632,SPAMnetsValid,2021.1.4,Win32,30.0120048,,,,,,,,,,,,,,,,,,,,,,,,,,,,,,,,,,,,,,,,,,,,,,,,,,,,,,,,,,,,,,,,,,,,,,,,,,,,,,,,,,,,,,,,,
,,1,1.9283,1,1.9283,0,93,93,11,1,37,garden,refrigerator,,90189,001,2022-04-25_20h29.32.632,SPAMnetsValid,2021.1.4,Win32,30.0120048,,,,,,,,,,,,,,,,,,,,,,,,,,,,,,,,,,,,,,,,,,,,,,,,,,,,,,,,,,,,,,,,,,,,,,,,,,,,,,,,,,,,,,,,,
,,2,1.8312,2,1.8312,0,94,94,33,1,32,cake,microwave,,90189,001,2022-04-25_20h29.32.632,SPAMnetsValid,2021.1.4,Win32,30.0120048,,,,,,,,,,,,,,,,,,,,,,,,,,,,,,,,,,,,,,,,,,,,,,,,,,,,,,,,,,,,,,,,,,,,,,,,,,,,,,,,,,,,,,,,,
,,1,1.9606,1,1.9606,0,95,95,25,1,23,flower,microwave,,90189,001,2022-04-25_20h29.32.632,SPAMnetsValid,2021.1.4,Win32,30.0120048,,,,,,,,,,,,,,,,,,,,,,,,,,,,,,,,,,,,,,,,,,,,,,,,,,,,,,,,,,,,,,,,,,,,,,,,,,,,,,,,,,,,,,,,,
,,1,1.1141,1,1.1141,0,96,96,67,1,54,chocolate,yogurt,,90189,001,2022-04-25_20h29.32.632,SPAMnetsValid,2021.1.4,Win32,30.0120048,,,,,,,,,,,,,,,,,,,,,,,,,,,,,,,,,,,,,,,,,,,,,,,,,,,,,,,,,,,,,,,,,,,,,,,,,,,,,,,,,,,,,,,,,
,,,,,,,,,,,,,,,90189,001,2022-04-25_20h29.32.632,SPAMnetsValid,2021.1.4,Win32,30.0120048,0,0,0,0,1,,,,,,,,,,,,,,,,,,,,,,,,,,,,,,,,,,,,,,,,,,,,,,,,,,,,,,,,,,,,,,,,,,,,,,,,,,,,,,,,,,,,
,,,,,,,,,,,,,,,90189,001,2022-04-25_20h29.32.632,SPAMnetsValid,2021.1.4,Win32,30.0120048,,,,,,0,0,0,0,1,1,0,,,,,,,,,,,,,,,,,,,,,,,,,,,,,,,,,,,,,,,,,,,,,,,,,,,,,,,,,,,,,,,,,,,,,,,,,,,,,
,,,,1,2.6208,,,,,,121,broom,microwave,,90189,001,2022-04-25_20h29.32.632,SPAMnetsValid,2021.1.4,Win32,30.0120048,,,,,,,,,,,,,1,2.6208,0,0,0,95,1,,,,,,,,,,,,,,,,,,,,,,,,,,,,,,,,,,,,,,,,,,,,,,,,,,,,,,,,,,,,,,,,,,,,,,
,,,,1,1.4835,,,,,,136,chocolate,microwave,,90189,001,2022-04-25_20h29.32.632,SPAMnetsValid,2021.1.4,Win32,30.0120048,,,,,,,,,,,,,1,1.4835,0,1,1,96,1,,,,,,,,,,,,,,,,,,,,,,,,,,,,,,,,,,,,,,,,,,,,,,,,,,,,,,,,,,,,,,,,,,,,,,
,,,,3,1.9471,,,,,,163,melon,refrigerator,,90189,001,2022-04-25_20h29.32.632,SPAMnetsValid,2021.1.4,Win32,30.0120048,,,,,,,,,,,,,3,1.9471,0,2,2,29,1,,,,,,,,,,,,,,,,,,,,,,,,,,,,,,,,,,,,,,,,,,,,,,,,,,,,,,,,,,,,,,,,,,,,,,
,,,,7,2.1313,,,,,,131,cactus,garden,,90189,001,2022-04-25_20h29.32.632,SPAMnetsValid,2021.1.4,Win32,30.0120048,,,,,,,,,,,,,7,2.1313,0,3,3,33,1,,,,,,,,,,,,,,,,,,,,,,,,,,,,,,,,,,,,,,,,,,,,,,,,,,,,,,,,,,,,,,,,,,,,,,
,,,,1,2.3154,,,,,,182,flower,refrigerator,,90189,001,2022-04-25_20h29.32.632,SPAMnetsValid,2021.1.4,Win32,30.0120048,,,,,,,,,,,,,1,2.3154,0,4,4,32,1,,,,,,,,,,,,,,,,,,,,,,,,,,,,,,,,,,,,,,,,,,,,,,,,,,,,,,,,,,,,,,,,,,,,,,
,,,,4,1.7982,,,,,,169,onion,yogurt,,90189,001,2022-04-25_20h29.32.632,SPAMnetsValid,2021.1.4,Win32,30.0120048,,,,,,,,,,,,,4,1.7982,0,5,5,24,1,,,,,,,,,,,,,,,,,,,,,,,,,,,,,,,,,,,,,,,,,,,,,,,,,,,,,,,,,,,,,,,,,,,,,,
,,,,1,1.9306,,,,,,156,melon,rose,,90189,001,2022-04-25_20h29.32.632,SPAMnetsValid,2021.1.4,Win32,30.0120048,,,,,,,,,,,,,1,1.9306,0,6,6,31,1,,,,,,,,,,,,,,,,,,,,,,,,,,,,,,,,,,,,,,,,,,,,,,,,,,,,,,,,,,,,,,,,,,,,,,
,,,,3,1.6975,,,,,,151,microwave,onion,,90189,001,2022-04-25_20h29.32.632,SPAMnetsValid,2021.1.4,Win32,30.0120048,,,,,,,,,,,,,3,1.6975,0,7,7,6,1,,,,,,,,,,,,,,,,,,,,,,,,,,,,,,,,,,,,,,,,,,,,,,,,,,,,,,,,,,,,,,,,,,,,,,
,,,,1,3.1128,,,,,,162,microwave,tomato,,90189,001,2022-04-25_20h29.32.632,SPAMnetsValid,2021.1.4,Win32,30.0120048,,,,,,,,,,,,,1,3.1128,0,8,8,12,1,,,,,,,,,,,,,,,,,,,,,,,,,,,,,,,,,,,,,,,,,,,,,,,,,,,,,,,,,,,,,,,,,,,,,,
,,,,1,1.3127,,,,,,137,microwave,tree,,90189,001,2022-04-25_20h29.32.632,SPAMnetsValid,2021.1.4,Win32,30.0120048,,,,,,,,,,,,,1,1.3127,0,9,9,63,1,,,,,,,,,,,,,,,,,,,,,,,,,,,,,,,,,,,,,,,,,,,,,,,,,,,,,,,,,,,,,,,,,,,,,,
,,,,1,1.2125,,,,,,146,pretzel,tree,,90189,001,2022-04-25_20h29.32.632,SPAMnetsValid,2021.1.4,Win32,30.0120048,,,,,,,,,,,,,1,1.2125,0,10,10,80,1,,,,,,,,,,,,,,,,,,,,,,,,,,,,,,,,,,,,,,,,,,,,,,,,,,,,,,,,,,,,,,,,,,,,,,
,,,,1,1.1629,,,,,,101,cactus,kitchen,,90189,001,2022-04-25_20h29.32.632,SPAMnetsValid,2021.1.4,Win32,30.0120048,,,,,,,,,,,,,1,1.1629,0,11,11,54,1,,,,,,,,,,,,,,,,,,,,,,,,,,,,,,,,,,,,,,,,,,,,,,,,,,,,,,,,,,,,,,,,,,,,,,
,,,,9,2.1291,,,,,,181,carrot,kitchen,,90189,001,2022-04-25_20h29.32.632,SPAMnetsValid,2021.1.4,Win32,30.0120048,,,,,,,,,,,,,9,2.1291,0,12,12,72,1,,,,,,,,,,,,,,,,,,,,,,,,,,,,,,,,,,,,,,,,,,,,,,,,,,,,,,,,,,,,,,,,,,,,,,
,,,,1,1.7962,,,,,,127,cactus,chocolate,,90189,001,2022-04-25_20h29.32.632,SPAMnetsValid,2021.1.4,Win32,30.0120048,,,,,,,,,,,,,1,1.7962,0,13,13,57,1,,,,,,,,,,,,,,,,,,,,,,,,,,,,,,,,,,,,,,,,,,,,,,,,,,,,,,,,,,,,,,,,,,,,,,
,,,,9,2.0793,,,,,,150,microwave,refrigerator,,90189,001,2022-04-25_20h29.32.632,SPAMnetsValid,2021.1.4,Win32,30.0120048,,,,,,,,,,,,,9,2.0793,0,14,14,66,1,,,,,,,,,,,,,,,,,,,,,,,,,,,,,,,,,,,,,,,,,,,,,,,,,,,,,,,,,,,,,,,,,,,,,,
,,,,1,1.7132,,,,,,125,carrot,tree,,90189,001,2022-04-25_20h29.32.632,SPAMnetsValid,2021.1.4,Win32,30.0120048,,,,,,,,,,,,,1,1.7132,0,15,15,30,1,,,,,,,,,,,,,,,,,,,,,,,,,,,,,,,,,,,,,,,,,,,,,,,,,,,,,,,,,,,,,,,,,,,,,,
,,,,1,1.6457,,,,,,135,carrot,oven,,90189,001,2022-04-25_20h29.32.632,SPAMnetsValid,2021.1.4,Win32,30.0120048,,,,,,,,,,,,,1,1.6457,0,16,16,73,1,,,,,,,,,,,,,,,,,,,,,,,,,,,,,,,,,,,,,,,,,,,,,,,,,,,,,,,,,,,,,,,,,,,,,,
,,,,1,1.0951,,,,,,179,broom,oven,,90189,001,2022-04-25_20h29.32.632,SPAMnetsValid,2021.1.4,Win32,30.0120048,,,,,,,,,,,,,1,1.0951,0,17,17,45,1,,,,,,,,,,,,,,,,,,,,,,,,,,,,,,,,,,,,,,,,,,,,,,,,,,,,,,,,,,,,,,,,,,,,,,
,,,,3,2.0129,,,,,,173,kitchen,tomato,,90189,001,2022-04-25_20h29.32.632,SPAMnetsValid,2021.1.4,Win32,30.0120048,,,,,,,,,,,,,3,2.0129,0,18,18,1,1,,,,,,,,,,,,,,,,,,,,,,,,,,,,,,,,,,,,,,,,,,,,,,,,,,,,,,,,,,,,,,,,,,,,,,
,,,,1,1.1666,,,,,,185,cactus,rose,,90189,001,2022-04-25_20h29.32.632,SPAMnetsValid,2021.1.4,Win32,30.0120048,,,,,,,,,,,,,1,1.1666,0,19,19,43,1,,,,,,,,,,,,,,,,,,,,,,,,,,,,,,,,,,,,,,,,,,,,,,,,,,,,,,,,,,,,,,,,,,,,,,
,,,,1,2.1532,,,,,,102,chocolate,refrigerator,,90189,001,2022-04-25_20h29.32.632,SPAMnetsValid,2021.1.4,Win32,30.0120048,,,,,,,,,,,,,1,2.1532,0,20,20,76,1,,,,,,,,,,,,,,,,,,,,,,,,,,,,,,,,,,,,,,,,,,,,,,,,,,,,,,,,,,,,,,,,,,,,,,
,,,,1,1.4294,,,,,,159,cookie,flower,,90189,001,2022-04-25_20h29.32.632,SPAMnetsValid,2021.1.4,Win32,30.0120048,,,,,,,,,,,,,1,1.4294,0,21,21,21,1,,,,,,,,,,,,,,,,,,,,,,,,,,,,,,,,,,,,,,,,,,,,,,,,,,,,,,,,,,,,,,,,,,,,,,
,,,,1,1.0474,,,,,,153,carrot,pretzel,,90189,001,2022-04-25_20h29.32.632,SPAMnetsValid,2021.1.4,Win32,30.0120048,,,,,,,,,,,,,1,1.0474,0,22,22,34,1,,,,,,,,,,,,,,,,,,,,,,,,,,,,,,,,,,,,,,,,,,,,,,,,,,,,,,,,,,,,,,,,,,,,,,
,,,,4,1.9128,,,,,,141,melon,tomato,,90189,001,2022-04-25_20h29.32.632,SPAMnetsValid,2021.1.4,Win32,30.0120048,,,,,,,,,,,,,4,1.9128,0,23,23,70,1,,,,,,,,,,,,,,,,,,,,,,,,,,,,,,,,,,,,,,,,,,,,,,,,,,,,,,,,,,,,,,,,,,,,,,
,,,,3,2.1304,,,,,,107,rose,tomato,,90189,001,2022-04-25_20h29.32.632,SPAMnetsValid,2021.1.4,Win32,30.0120048,,,,,,,,,,,,,3,2.1304,0,24,24,26,1,,,,,,,,,,,,,,,,,,,,,,,,,,,,,,,,,,,,,,,,,,,,,,,,,,,,,,,,,,,,,,,,,,,,,,
,,,,3,1.2293,,,,,,97,chocolate,kitchen,,90189,001,2022-04-25_20h29.32.632,SPAMnetsValid,2021.1.4,Win32,30.0120048,,,,,,,,,,,,,3,1.2293,0,25,25,8,1,,,,,,,,,,,,,,,,,,,,,,,,,,,,,,,,,,,,,,,,,,,,,,,,,,,,,,,,,,,,,,,,,,,,,,
,,,,3,3.5476,,,,,,147,cake,refrigerator,,90189,001,2022-04-25_20h29.32.632,SPAMnetsValid,2021.1.4,Win32,30.0120048,,,,,,,,,,,,,3,3.5476,0,26,26,35,1,,,,,,,,,,,,,,,,,,,,,,,,,,,,,,,,,,,,,,,,,,,,,,,,,,,,,,,,,,,,,,,,,,,,,,
,,,,6,4.0174,,,,,,165,onion,rose,,90189,001,2022-04-25_20h29.32.632,SPAMnetsValid,2021.1.4,Win32,30.0120048,,,,,,,,,,,,,6,4.0174,0,27,27,40,1,,,,,,,,,,,,,,,,,,,,,,,,,,,,,,,,,,,,,,,,,,,,,,,,,,,,,,,,,,,,,,,,,,,,,,
,,,,6,1.0645,,,,,,152,cactus,strawberry,,90189,001,2022-04-25_20h29.32.632,SPAMnetsValid,2021.1.4,Win32,30.0120048,,,,,,,,,,,,,6,1.0645,0,28,28,49,1,,,,,,,,,,,,,,,,,,,,,,,,,,,,,,,,,,,,,,,,,,,,,,,,,,,,,,,,,,,,,,,,,,,,,,
,,,,1,2.8501,,,,,,130,microwave,yogurt,,90189,001,2022-04-25_20h29.32.632,SPAMnetsValid,2021.1.4,Win32,30.0120048,,,,,,,,,,,,,1,2.8501,0,29,29,84,1,,,,,,,,,,,,,,,,,,,,,,,,,,,,,,,,,,,,,,,,,,,,,,,,,,,,,,,,,,,,,,,,,,,,,,
,,,,8,2.6784,,,,,,154,strawberry,yogurt,,90189,001,2022-04-25_20h29.32.632,SPAMnetsValid,2021.1.4,Win32,30.0120048,,,,,,,,,,,,,8,2.6784,0,30,30,28,1,,,,,,,,,,,,,,,,,,,,,,,,,,,,,,,,,,,,,,,,,,,,,,,,,,,,,,,,,,,,,,,,,,,,,,
,,,,6,2.8134,,,,,,166,cake,yogurt,,90189,001,2022-04-25_20h29.32.632,SPAMnetsValid,2021.1.4,Win32,30.0120048,,,,,,,,,,,,,6,2.8134,0,31,31,91,1,,,,,,,,,,,,,,,,,,,,,,,,,,,,,,,,,,,,,,,,,,,,,,,,,,,,,,,,,,,,,,,,,,,,,,
,,,,6,1.8464,,,,,,114,cookie,strawberry,,90189,001,2022-04-25_20h29.32.632,SPAMnetsValid,2021.1.4,Win32,30.0120048,,,,,,,,,,,,,6,1.8464,0,32,32,87,1,,,,,,,,,,,,,,,,,,,,,,,,,,,,,,,,,,,,,,,,,,,,,,,,,,,,,,,,,,,,,,,,,,,,,,
,,,,9,3.0082,,,,,,112,cake,carrot,,90189,001,2022-04-25_20h29.32.632,SPAMnetsValid,2021.1.4,Win32,30.0120048,,,,,,,,,,,,,9,3.0082,0,33,33,39,1,,,,,,,,,,,,,,,,,,,,,,,,,,,,,,,,,,,,,,,,,,,,,,,,,,,,,,,,,,,,,,,,,,,,,,
,,,,6,1.9198,,,,,,140,cookie,refrigerator,,90189,001,2022-04-25_20h29.32.632,SPAMnetsValid,2021.1.4,Win32,30.0120048,,,,,,,,,,,,,6,1.9198,0,34,34,89,1,,,,,,,,,,,,,,,,,,,,,,,,,,,,,,,,,,,,,,,,,,,,,,,,,,,,,,,,,,,,,,,,,,,,,,
,,,,9,1.7308,,,,,,116,cake,chocolate,,90189,001,2022-04-25_20h29.32.632,SPAMnetsValid,2021.1.4,Win32,30.0120048,,,,,,,,,,,,,9,1.7308,0,35,35,44,1,,,,,,,,,,,,,,,,,,,,,,,,,,,,,,,,,,,,,,,,,,,,,,,,,,,,,,,,,,,,,,,,,,,,,,
,,,,3,4.2792,,,,,,189,onion,tree,,90189,001,2022-04-25_20h29.32.632,SPAMnetsValid,2021.1.4,Win32,30.0120048,,,,,,,,,,,,,3,4.2792,0,36,36,62,1,,,,,,,,,,,,,,,,,,,,,,,,,,,,,,,,,,,,,,,,,,,,,,,,,,,,,,,,,,,,,,,,,,,,,,
,,,,1,1.3275,,,,,,132,broom,tree,,90189,001,2022-04-25_20h29.32.632,SPAMnetsValid,2021.1.4,Win32,30.0120048,,,,,,,,,,,,,1,1.3275,0,37,37,78,1,,,,,,,,,,,,,,,,,,,,,,,,,,,,,,,,,,,,,,,,,,,,,,,,,,,,,,,,,,,,,,,,,,,,,,
,,,,2,3.4303,,,,,,134,carrot,flower,,90189,001,2022-04-25_20h29.32.632,SPAMnetsValid,2021.1.4,Win32,30.0120048,,,,,,,,,,,,,2,3.4303,0,38,38,93,1,,,,,,,,,,,,,,,,,,,,,,,,,,,,,,,,,,,,,,,,,,,,,,,,,,,,,,,,,,,,,,,,,,,,,,
,,,,9,3.9472,,,,,,138,flower,rose,,90189,001,2022-04-25_20h29.32.632,SPAMnetsValid,2021.1.4,Win32,30.0120048,,,,,,,,,,,,,9,3.9472,0,39,39,61,1,,,,,,,,,,,,,,,,,,,,,,,,,,,,,,,,,,,,,,,,,,,,,,,,,,,,,,,,,,,,,,,,,,,,,,
,,,,6,2.3113,,,,,,98,pretzel,strawberry,,90189,001,2022-04-25_20h29.32.632,SPAMnetsValid,2021.1.4,Win32,30.0120048,,,,,,,,,,,,,6,2.3113,0,40,40,82,1,,,,,,,,,,,,,,,,,,,,,,,,,,,,,,,,,,,,,,,,,,,,,,,,,,,,,,,,,,,,,,,,,,,,,,
,,,,2,1.5171,,,,,,186,kitchen,yogurt,,90189,001,2022-04-25_20h29.32.632,SPAMnetsValid,2021.1.4,Win32,30.0120048,,,,,,,,,,,,,2,1.5171,0,41,41,48,1,,,,,,,,,,,,,,,,,,,,,,,,,,,,,,,,,,,,,,,,,,,,,,,,,,,,,,,,,,,,,,,,,,,,,,
,,,,7,5.2958,,,,,,148,flower,melon,,90189,001,2022-04-25_20h29.32.632,SPAMnetsValid,2021.1.4,Win32,30.0120048,,,,,,,,,,,,,7,5.2958,0,42,42,23,1,,,,,,,,,,,,,,,,,,,,,,,,,,,,,,,,,,,,,,,,,,,,,,,,,,,,,,,,,,,,,,,,,,,,,,
,,,,3,2.3141,,,,,,172,kitchen,melon,,90189,001,2022-04-25_20h29.32.632,SPAMnetsValid,2021.1.4,Win32,30.0120048,,,,,,,,,,,,,3,2.3141,0,43,43,77,1,,,,,,,,,,,,,,,,,,,,,,,,,,,,,,,,,,,,,,,,,,,,,,,,,,,,,,,,,,,,,,,,,,,,,,
,,,,3,1.6474,,,,,,113,refrigerator,strawberry,,90189,001,2022-04-25_20h29.32.632,SPAMnetsValid,2021.1.4,Win32,30.0120048,,,,,,,,,,,,,3,1.6474,0,44,44,56,1,,,,,,,,,,,,,,,,,,,,,,,,,,,,,,,,,,,,,,,,,,,,,,,,,,,,,,,,,,,,,,,,,,,,,,
,,,,3,1.5669,,,,,,111,carrot,microwave,,90189,001,2022-04-25_20h29.32.632,SPAMnetsValid,2021.1.4,Win32,30.0120048,,,,,,,,,,,,,3,1.5669,0,45,45,16,1,,,,,,,,,,,,,,,,,,,,,,,,,,,,,,,,,,,,,,,,,,,,,,,,,,,,,,,,,,,,,,,,,,,,,,
,,,,9,2.6365,,,,,,158,cookie,oven,,90189,001,2022-04-25_20h29.32.632,SPAMnetsValid,2021.1.4,Win32,30.0120048,,,,,,,,,,,,,9,2.6365,0,46,46,27,1,,,,,,,,,,,,,,,,,,,,,,,,,,,,,,,,,,,,,,,,,,,,,,,,,,,,,,,,,,,,,,,,,,,,,,
,,,,9,1.301,,,,,,100,garden,tomato,,90189,001,2022-04-25_20h29.32.632,SPAMnetsValid,2021.1.4,Win32,30.0120048,,,,,,,,,,,,,9,1.301,0,47,47,83,1,,,,,,,,,,,,,,,,,,,,,,,,,,,,,,,,,,,,,,,,,,,,,,,,,,,,,,,,,,,,,,,,,,,,,,
,,,,9,1.147,,,,,,115,refrigerator,tomato,,90189,001,2022-04-25_20h29.32.632,SPAMnetsValid,2021.1.4,Win32,30.0120048,,,,,,,,,,,,,9,1.147,0,48,48,85,1,,,,,,,,,,,,,,,,,,,,,,,,,,,,,,,,,,,,,,,,,,,,,,,,,,,,,,,,,,,,,,,,,,,,,,
,,,,9,1.2968,,,,,,188,flower,tree,,90189,001,2022-04-25_20h29.32.632,SPAMnetsValid,2021.1.4,Win32,30.0120048,,,,,,,,,,,,,9,1.2968,0,49,49,7,1,,,,,,,,,,,,,,,,,,,,,,,,,,,,,,,,,,,,,,,,,,,,,,,,,,,,,,,,,,,,,,,,,,,,,,
,,,,1,2.4965,,,,,,149,broom,tomato,,90189,001,2022-04-25_20h29.32.632,SPAMnetsValid,2021.1.4,Win32,30.0120048,,,,,,,,,,,,,1,2.4965,0,50,50,20,1,,,,,,,,,,,,,,,,,,,,,,,,,,,,,,,,,,,,,,,,,,,,,,,,,,,,,,,,,,,,,,,,,,,,,,
,,,,9,1.8662,,,,,,124,oven,refrigerator,,90189,001,2022-04-25_20h29.32.632,SPAMnetsValid,2021.1.4,Win32,30.0120048,,,,,,,,,,,,,9,1.8662,0,51,51,69,1,,,,,,,,,,,,,,,,,,,,,,,,,,,,,,,,,,,,,,,,,,,,,,,,,,,,,,,,,,,,,,,,,,,,,,
,,,,9,2.1493,,,,,,142,garden,tree,,90189,001,2022-04-25_20h29.32.632,SPAMnetsValid,2021.1.4,Win32,30.0120048,,,,,,,,,,,,,9,2.1493,0,52,52,22,1,,,,,,,,,,,,,,,,,,,,,,,,,,,,,,,,,,,,,,,,,,,,,,,,,,,,,,,,,,,,,,,,,,,,,,
,,,,1,1.9011,,,,,,123,cookie,tree,,90189,001,2022-04-25_20h29.32.632,SPAMnetsValid,2021.1.4,Win32,30.0120048,,,,,,,,,,,,,1,1.9011,0,53,53,46,1,,,,,,,,,,,,,,,,,,,,,,,,,,,,,,,,,,,,,,,,,,,,,,,,,,,,,,,,,,,,,,,,,,,,,,
,,,,1,1.5804,,,,,,144,cake,garden,,90189,001,2022-04-25_20h29.32.632,SPAMnetsValid,2021.1.4,Win32,30.0120048,,,,,,,,,,,,,1,1.5804,0,54,54,58,1,,,,,,,,,,,,,,,,,,,,,,,,,,,,,,,,,,,,,,,,,,,,,,,,,,,,,,,,,,,,,,,,,,,,,,
,,,,1,1.6449,,,,,,170,cookie,microwave,,90189,001,2022-04-25_20h29.32.632,SPAMnetsValid,2021.1.4,Win32,30.0120048,,,,,,,,,,,,,1,1.6449,0,55,55,92,1,,,,,,,,,,,,,,,,,,,,,,,,,,,,,,,,,,,,,,,,,,,,,,,,,,,,,,,,,,,,,,,,,,,,,,
,,,,9,1.7625,,,,,,139,carrot,strawberry,,90189,001,2022-04-25_20h29.32.632,SPAMnetsValid,2021.1.4,Win32,30.0120048,,,,,,,,,,,,,9,1.7625,0,56,56,37,1,,,,,,,,,,,,,,,,,,,,,,,,,,,,,,,,,,,,,,,,,,,,,,,,,,,,,,,,,,,,,,,,,,,,,,
,,,,1,1.4449,,,,,,176,cactus,tomato,,90189,001,2022-04-25_20h29.32.632,SPAMnetsValid,2021.1.4,Win32,30.0120048,,,,,,,,,,,,,1,1.4449,0,57,57,9,1,,,,,,,,,,,,,,,,,,,,,,,,,,,,,,,,,,,,,,,,,,,,,,,,,,,,,,,,,,,,,,,,,,,,,,
,,,,9,1.3281,,,,,,106,cake,strawberry,,90189,001,2022-04-25_20h29.32.632,SPAMnetsValid,2021.1.4,Win32,30.0120048,,,,,,,,,,,,,9,1.3281,0,58,58,0,1,,,,,,,,,,,,,,,,,,,,,,,,,,,,,,,,,,,,,,,,,,,,,,,,,,,,,,,,,,,,,,,,,,,,,,
,,,,9,2.1308,,,,,,193,melon,melon,CHECK,90189,001,2022-04-25_20h29.32.632,SPAMnetsValid,2021.1.4,Win32,30.0120048,,,,,,,,,,,,,9,2.1308,0,59,59,86,1,,,,,,,,,,,,,,,,,,,,,,,,,,,,,,,,,,,,,,,,,,,,,,,,,,,,,,,,,,,,,,,,,,,,,,
,,,,1,1.6122,,,,,,190,microwave,strawberry,,90189,001,2022-04-25_20h29.32.632,SPAMnetsValid,2021.1.4,Win32,30.0120048,,,,,,,,,,,,,1,1.6122,0,60,60,90,1,,,,,,,,,,,,,,,,,,,,,,,,,,,,,,,,,,,,,,,,,,,,,,,,,,,,,,,,,,,,,,,,,,,,,,
,,,,9,1.6679,,,,,,108,carrot,chocolate,,90189,001,2022-04-25_20h29.32.632,SPAMnetsValid,2021.1.4,Win32,30.0120048,,,,,,,,,,,,,9,1.6679,0,61,61,5,1,,,,,,,,,,,,,,,,,,,,,,,,,,,,,,,,,,,,,,,,,,,,,,,,,,,,,,,,,,,,,,,,,,,,,,
,,,,8,2.0818,,,,,,178,cactus,carrot,,90189,001,2022-04-25_20h29.32.632,SPAMnetsValid,2021.1.4,Win32,30.0120048,,,,,,,,,,,,,8,2.0818,0,62,62,75,1,,,,,,,,,,,,,,,,,,,,,,,,,,,,,,,,,,,,,,,,,,,,,,,,,,,,,,,,,,,,,,,,,,,,,,
,,,,8,1.5771,,,,,,120,microwave,oven,,90189,001,2022-04-25_20h29.32.632,SPAMnetsValid,2021.1.4,Win32,30.0120048,,,,,,,,,,,,,8,1.5771,0,63,63,14,1,,,,,,,,,,,,,,,,,,,,,,,,,,,,,,,,,,,,,,,,,,,,,,,,,,,,,,,,,,,,,,,,,,,,,,
,,,,8,1.5819,,,,,,117,melon,strawberry,,90189,001,2022-04-25_20h29.32.632,SPAMnetsValid,2021.1.4,Win32,30.0120048,,,,,,,,,,,,,8,1.5819,0,64,64,11,1,,,,,,,,,,,,,,,,,,,,,,,,,,,,,,,,,,,,,,,,,,,,,,,,,,,,,,,,,,,,,,,,,,,,,,
,,,,1,2.0137,,,,,,161,kitchen,pretzel,,90189,001,2022-04-25_20h29.32.632,SPAMnetsValid,2021.1.4,Win32,30.0120048,,,,,,,,,,,,,1,2.0137,0,65,65,36,1,,,,,,,,,,,,,,,,,,,,,,,,,,,,,,,,,,,,,,,,,,,,,,,,,,,,,,,,,,,,,,,,,,,,,,
,,,,1,1.7123,,,,,,171,cake,tomato,,90189,001,2022-04-25_20h29.32.632,SPAMnetsValid,2021.1.4,Win32,30.0120048,,,,,,,,,,,,,1,1.7123,0,66,66,88,1,,,,,,,,,,,,,,,,,,,,,,,,,,,,,,,,,,,,,,,,,,,,,,,,,,,,,,,,,,,,,,,,,,,,,,
,,,,9,1.8169,,,,,,122,flower,garden,,90189,001,2022-04-25_20h29.32.632,SPAMnetsValid,2021.1.4,Win32,30.0120048,,,,,,,,,,,,,9,1.8169,0,67,67,60,1,,,,,,,,,,,,,,,,,,,,,,,,,,,,,,,,,,,,,,,,,,,,,,,,,,,,,,,,,,,,,,,,,,,,,,
,,,,3,1.8789,,,,,,145,cactus,yogurt,,90189,001,2022-04-25_20h29.32.632,SPAMnetsValid,2021.1.4,Win32,30.0120048,,,,,,,,,,,,,3,1.8789,0,68,68,15,1,,,,,,,,,,,,,,,,,,,,,,,,,,,,,,,,,,,,,,,,,,,,,,,,,,,,,,,,,,,,,,,,,,,,,,
,,,,9,1.7464,,,,,,174,cake,pretzel,,90189,001,2022-04-25_20h29.32.632,SPAMnetsValid,2021.1.4,Win32,30.0120048,,,,,,,,,,,,,9,1.7464,0,69,69,2,1,,,,,,,,,,,,,,,,,,,,,,,,,,,,,,,,,,,,,,,,,,,,,,,,,,,,,,,,,,,,,,,,,,,,,,
,,,,6,1.5286,,,,,,175,melon,onion,,90189,001,2022-04-25_20h29.32.632,SPAMnetsValid,2021.1.4,Win32,30.0120048,,,,,,,,,,,,,6,1.5286,0,70,70,41,1,,,,,,,,,,,,,,,,,,,,,,,,,,,,,,,,,,,,,,,,,,,,,,,,,,,,,,,,,,,,,,,,,,,,,,
,,,,1,2.68,,,,,,187,cactus,microwave,,90189,001,2022-04-25_20h29.32.632,SPAMnetsValid,2021.1.4,Win32,30.0120048,,,,,,,,,,,,,1,2.68,0,71,71,71,1,,,,,,,,,,,,,,,,,,,,,,,,,,,,,,,,,,,,,,,,,,,,,,,,,,,,,,,,,,,,,,,,,,,,,,
,,,,1,1.9962,,,,,,183,cake,rose,,90189,001,2022-04-25_20h29.32.632,SPAMnetsValid,2021.1.4,Win32,30.0120048,,,,,,,,,,,,,1,1.9962,0,72,72,19,1,,,,,,,,,,,,,,,,,,,,,,,,,,,,,,,,,,,,,,,,,,,,,,,,,,,,,,,,,,,,,,,,,,,,,,
,,,,1,1.5789,,,,,,143,pretzel,rose,,90189,001,2022-04-25_20h29.32.632,SPAMnetsValid,2021.1.4,Win32,30.0120048,,,,,,,,,,,,,1,1.5789,0,73,73,55,1,,,,,,,,,,,,,,,,,,,,,,,,,,,,,,,,,,,,,,,,,,,,,,,,,,,,,,,,,,,,,,,,,,,,,,
,,,,9,1.8791,,,,,,155,carrot,cookie,,90189,001,2022-04-25_20h29.32.632,SPAMnetsValid,2021.1.4,Win32,30.0120048,,,,,,,,,,,,,9,1.8791,0,74,74,38,1,,,,,,,,,,,,,,,,,,,,,,,,,,,,,,,,,,,,,,,,,,,,,,,,,,,,,,,,,,,,,,,,,,,,,,
,,,,1,1.6238,,,,,,126,kitchen,tree,,90189,001,2022-04-25_20h29.32.632,SPAMnetsValid,2021.1.4,Win32,30.0120048,,,,,,,,,,,,,1,1.6238,0,75,75,50,1,,,,,,,,,,,,,,,,,,,,,,,,,,,,,,,,,,,,,,,,,,,,,,,,,,,,,,,,,,,,,,,,,,,,,,
,,,,2,1.5769,,,,,,118,chocolate,oven,,90189,001,2022-04-25_20h29.32.632,SPAMnetsValid,2021.1.4,Win32,30.0120048,,,,,,,,,,,,,2,1.5769,0,76,76,10,1,,,,,,,,,,,,,,,,,,,,,,,,,,,,,,,,,,,,,,,,,,,,,,,,,,,,,,,,,,,,,,,,,,,,,,
,,,,1,3.1287,,,,,,109,broom,strawberry,,90189,001,2022-04-25_20h29.32.632,SPAMnetsValid,2021.1.4,Win32,30.0120048,,,,,,,,,,,,,1,3.1287,0,77,77,4,1,,,,,,,,,,,,,,,,,,,,,,,,,,,,,,,,,,,,,,,,,,,,,,,,,,,,,,,,,,,,,,,,,,,,,,
,,,,1,1.5973,,,,,,157,refrigerator,rose,,90189,001,2022-04-25_20h29.32.632,SPAMnetsValid,2021.1.4,Win32,30.0120048,,,,,,,,,,,,,1,1.5973,0,78,78,64,1,,,,,,,,,,,,,,,,,,,,,,,,,,,,,,,,,,,,,,,,,,,,,,,,,,,,,,,,,,,,,,,,,,,,,,
,,,,1,1.5358,,,,,,160,cookie,kitchen,,90189,001,2022-04-25_20h29.32.632,SPAMnetsValid,2021.1.4,Win32,30.0120048,,,,,,,,,,,,,1,1.5358,0,79,79,65,1,,,,,,,,,,,,,,,,,,,,,,,,,,,,,,,,,,,,,,,,,,,,,,,,,,,,,,,,,,,,,,,,,,,,,,
,,,,9,2.7365,,,,,,177,chocolate,strawberry,,90189,001,2022-04-25_20h29.32.632,SPAMnetsValid,2021.1.4,Win32,30.0120048,,,,,,,,,,,,,9,2.7365,0,80,80,53,1,,,,,,,,,,,,,,,,,,,,,,,,,,,,,,,,,,,,,,,,,,,,,,,,,,,,,,,,,,,,,,,,,,,,,,
,,,,9,1.3457,,,,,,194,cactus,cactus,CHECK,90189,001,2022-04-25_20h29.32.632,SPAMnetsValid,2021.1.4,Win32,30.0120048,,,,,,,,,,,,,9,1.3457,0,81,81,25,1,,,,,,,,,,,,,,,,,,,,,,,,,,,,,,,,,,,,,,,,,,,,,,,,,,,,,,,,,,,,,,,,,,,,,,
,,,,1,2.0632,,,,,,180,tree,yogurt,,90189,001,2022-04-25_20h29.32.632,SPAMnetsValid,2021.1.4,Win32,30.0120048,,,,,,,,,,,,,1,2.0632,0,82,82,68,1,,,,,,,,,,,,,,,,,,,,,,,,,,,,,,,,,,,,,,,,,,,,,,,,,,,,,,,,,,,,,,,,,,,,,,
,,,,3,2.4126,,,,,,184,oven,pretzel,,90189,001,2022-04-25_20h29.32.632,SPAMnetsValid,2021.1.4,Win32,30.0120048,,,,,,,,,,,,,3,2.4126,0,83,83,42,1,,,,,,,,,,,,,,,,,,,,,,,,,,,,,,,,,,,,,,,,,,,,,,,,,,,,,,,,,,,,,,,,,,,,,,
,,,,9,2.0637,,,,,,168,cactus,flower,,90189,001,2022-04-25_20h29.32.632,SPAMnetsValid,2021.1.4,Win32,30.0120048,,,,,,,,,,,,,9,2.0637,0,84,84,51,1,,,,,,,,,,,,,,,,,,,,,,,,,,,,,,,,,,,,,,,,,,,,,,,,,,,,,,,,,,,,,,,,,,,,,,
,,,,9,2.2623,,,,,,110,chocolate,cookie,,90189,001,2022-04-25_20h29.32.632,SPAMnetsValid,2021.1.4,Win32,30.0120048,,,,,,,,,,,,,9,2.2623,0,85,85,52,1,,,,,,,,,,,,,,,,,,,,,,,,,,,,,,,,,,,,,,,,,,,,,,,,,,,,,,,,,,,,,,,,,,,,,,
,,,,1,1.5794,,,,,,104,garden,microwave,,90189,001,2022-04-25_20h29.32.632,SPAMnetsValid,2021.1.4,Win32,30.0120048,,,,,,,,,,,,,1,1.5794,0,86,86,81,1,,,,,,,,,,,,,,,,,,,,,,,,,,,,,,,,,,,,,,,,,,,,,,,,,,,,,,,,,,,,,,,,,,,,,,
,,,,9,2.1971,,,,,,99,garden,melon,,90189,001,2022-04-25_20h29.32.632,SPAMnetsValid,2021.1.4,Win32,30.0120048,,,,,,,,,,,,,9,2.1971,0,87,87,17,1,,,,,,,,,,,,,,,,,,,,,,,,,,,,,,,,,,,,,,,,,,,,,,,,,,,,,,,,,,,,,,,,,,,,,,
,,,,2,2.5628,,,,,,105,cactus,oven,,90189,001,2022-04-25_20h29.32.632,SPAMnetsValid,2021.1.4,Win32,30.0120048,,,,,,,,,,,,,2,2.5628,0,88,88,13,1,,,,,,,,,,,,,,,,,,,,,,,,,,,,,,,,,,,,,,,,,,,,,,,,,,,,,,,,,,,,,,,,,,,,,,
,,,,8,6.2996,,,,,,167,carrot,garden,,90189,001,2022-04-25_20h29.32.632,SPAMnetsValid,2021.1.4,Win32,30.0120048,,,,,,,,,,,,,8,6.2996,0,89,89,47,1,,,,,,,,,,,,,,,,,,,,,,,,,,,,,,,,,,,,,,,,,,,,,,,,,,,,,,,,,,,,,,,,,,,,,,
,,,,1,1.563,,,,,,164,cookie,garden,,90189,001,2022-04-25_20h29.32.632,SPAMnetsValid,2021.1.4,Win32,30.0120048,,,,,,,,,,,,,1,1.563,0,90,90,59,1,,,,,,,,,,,,,,,,,,,,,,,,,,,,,,,,,,,,,,,,,,,,,,,,,,,,,,,,,,,,,,,,,,,,,,
,,,,1,1.946,,,,,,119,strawberry,tree,,90189,001,2022-04-25_20h29.32.632,SPAMnetsValid,2021.1.4,Win32,30.0120048,,,,,,,,,,,,,1,1.946,0,91,91,18,1,,,,,,,,,,,,,,,,,,,,,,,,,,,,,,,,,,,,,,,,,,,,,,,,,,,,,,,,,,,,,,,,,,,,,,
,,,,1,2.4886,,,,,,133,cake,flower,,90189,001,2022-04-25_20h29.32.632,SPAMnetsValid,2021.1.4,Win32,30.0120048,,,,,,,,,,,,,1,2.4886,0,92,92,94,1,,,,,,,,,,,,,,,,,,,,,,,,,,,,,,,,,,,,,,,,,,,,,,,,,,,,,,,,,,,,,,,,,,,,,,
,,,,6,1.6628,,,,,,103,pretzel,tomato,,90189,001,2022-04-25_20h29.32.632,SPAMnetsValid,2021.1.4,Win32,30.0120048,,,,,,,,,,,,,6,1.6628,0,93,93,79,1,,,,,,,,,,,,,,,,,,,,,,,,,,,,,,,,,,,,,,,,,,,,,,,,,,,,,,,,,,,,,,,,,,,,,,
,,,,2,1.7452,,,,,,129,cactus,refrigerator,,90189,001,2022-04-25_20h29.32.632,SPAMnetsValid,2021.1.4,Win32,30.0120048,,,,,,,,,,,,,2,1.7452,0,94,94,3,1,,,,,,,,,,,,,,,,,,,,,,,,,,,,,,,,,,,,,,,,,,,,,,,,,,,,,,,,,,,,,,,,,,,,,,
,,,,2,1.9605,,,,,,96,oven,strawberry,,90189,001,2022-04-25_20h29.32.632,SPAMnetsValid,2021.1.4,Win32,30.0120048,,,,,,,,,,,,,2,1.9605,0,95,95,67,1,,,,,,,,,,,,,,,,,,,,,,,,,,,,,,,,,,,,,,,,,,,,,,,,,,,,,,,,,,,,,,,,,,,,,,
,,,,2,1.3958,,,,,,128,melon,microwave,,90189,001,2022-04-25_20h29.32.632,SPAMnetsValid,2021.1.4,Win32,30.0120048,,,,,,,,,,,,,2,1.3958,0,96,96,74,1,,,,,,,,,,,,,,,,,,,,,,,,,,,,,,,,,,,,,,,,,,,,,,,,,,,,,,,,,,,,,,,,,,,,,,
,,,,,,,,,,,,,,,90189,001,2022-04-25_20h29.32.632,SPAMnetsValid,2021.1.4,Win32,30.0120048,,,,,,,,,,,,,,,,,,,,0,0,0,0,1,,,,,,,,,,,,,,,,,,,,,,,,,,,,,,,,,,,,,,,,,,,,,,,,,,,,,,,,,,,,,,,,,
,,,,,,,,,,,,,,,90189,001,2022-04-25_20h29.32.632,SPAMnetsValid,2021.1.4,Win32,30.0120048,,,,,,0,1,1,1,1,0,1,,,,,,,,,,,,,,,,,,,,,,,,,,,,,,,,,,,,,,,,,,,,,,,,,,,,,,,,,,,,,,,,,,,,,,,,,,,,,
,,,,,,,,,,,,,,,90189,001,2022-04-25_20h29.32.632,SPAMnetsValid,2021.1.4,Win32,30.0120048,,,,,,,,,,,,,,,,,,,,,,,,,4,8.1924,0,0,0,0,1,rancor,forbearance,ridicule,malice,bravery,3,,,,,,,,,,,,,,,,,,,,,,,,,,,,,,,,,,,,,,,,,,,,,,,,,,,,
,,,,,,,,,,,,,,,90189,001,2022-04-25_20h29.32.632,SPAMnetsValid,2021.1.4,Win32,30.0120048,,,,,,,,,,,,,,,,,,,,,,,,,4,3.8732,0,1,1,1,1,raucous,empty,quiet,smooth,harsh,4,,,,,,,,,,,,,,,,,,,,,,,,,,,,,,,,,,,,,,,,,,,,,,,,,,,,
,,,,,,,,,,,,,,,90189,001,2022-04-25_20h29.32.632,SPAMnetsValid,2021.1.4,Win32,30.0120048,,,,,,,,,,,,,,,,,,,,,,,,,4,3.4683,0,2,2,2,1,gargoyle,oil,medicine,carved waterspout,ugly building,3,,,,,,,,,,,,,,,,,,,,,,,,,,,,,,,,,,,,,,,,,,,,,,,,,,,,
,,,,,,,,,,,,,,,90189,001,2022-04-25_20h29.32.632,SPAMnetsValid,2021.1.4,Win32,30.0120048,,,,,,,,,,,,,,,,,,,,,,,,,3,4.7005,0,3,3,3,1,recrudesce,purify,renew activity,lack refinement,crush,2,,,,,,,,,,,,,,,,,,,,,,,,,,,,,,,,,,,,,,,,,,,,,,,,,,,,
,,,,,,,,,,,,,,,90189,001,2022-04-25_20h29.32.632,SPAMnetsValid,2021.1.4,Win32,30.0120048,,,,,,,,,,,,,,,,,,,,,,,,,4,2.9072,0,4,4,4,1,specious,"plausible, but not genuine",noteworthy,class or variety,roomy,1,,,,,,,,,,,,,,,,,,,,,,,,,,,,,,,,,,,,,,,,,,,,,,,,,,,,
,,,,,,,,,,,,,,,90189,001,2022-04-25_20h29.32.632,SPAMnetsValid,2021.1.4,Win32,30.0120048,,,,,,,,,,,,,,,,,,,,,,,,,3,1.7121,0,5,5,5,1,bauble,bubble,showy plaything,idle talk,confusion,2,,,,,,,,,,,,,,,,,,,,,,,,,,,,,,,,,,,,,,,,,,,,,,,,,,,,
,,,,,,,,,,,,,,,90189,001,2022-04-25_20h29.32.632,SPAMnetsValid,2021.1.4,Win32,30.0120048,,,,,,,,,,,,,,,,,,,,,,,,,2,1.7468,0,6,6,6,1,prolific,scarce,producing abundantly,reckless,speaking profanely,2,,,,,,,,,,,,,,,,,,,,,,,,,,,,,,,,,,,,,,,,,,,,,,,,,,,,
,,,,,,,,,,,,,,,90189,001,2022-04-25_20h29.32.632,SPAMnetsValid,2021.1.4,Win32,30.0120048,,,,,,,,,,,,,,,,,,,,,,,,,3,2.8144,0,7,7,7,1,opulent,party,wealthy,happy frame of mind,semiprecious stone,2,,,,,,,,,,,,,,,,,,,,,,,,,,,,,,,,,,,,,,,,,,,,,,,,,,,,
,,,,,,,,,,,,,,,90189,001,2022-04-25_20h29.32.632,SPAMnetsValid,2021.1.4,Win32,30.0120048,,,,,,,,,,,,,,,,,,,,,,,,,2,5.0173,0,8,8,8,1,coercion,conspiracy,strategy,restraint,attraction,3,,,,,,,,,,,,,,,,,,,,,,,,,,,,,,,,,,,,,,,,,,,,,,,,,,,,
,,,,,,,,,,,,,,,90189,001,2022-04-25_20h29.32.632,SPAMnetsValid,2021.1.4,Win32,30.0120048,,,,,,,,,,,,,,,,,,,,,,,,,4,1.9645,0,9,9,9,1,hiatus,animal,calamity,dread,gap,4,,,,,,,,,,,,,,,,,,,,,,,,,,,,,,,,,,,,,,,,,,,,,,,,,,,,
,,,,,,,,,,,,,,,90189,001,2022-04-25_20h29.32.632,SPAMnetsValid,2021.1.4,Win32,30.0120048,,,,,,,,,,,,,,,,,,,,,,,,,1,8.3039,0,10,10,10,1,germane,microbe,contagious,relevant,different,3,,,,,,,,,,,,,,,,,,,,,,,,,,,,,,,,,,,,,,,,,,,,,,,,,,,,
,,,,,,,,,,,,,,,90189,001,2022-04-25_20h29.32.632,SPAMnetsValid,2021.1.4,Win32,30.0120048,,,,,,,,,,,,,,,,,,,,,,,,,3,2.1786,0,11,11,11,1,perfunctory,fundamental,formal,superficial,careful,3,,,,,,,,,,,,,,,,,,,,,,,,,,,,,,,,,,,,,,,,,,,,,,,,,,,,
,,,,,,,,,,,,,,,90189,001,2022-04-25_20h29.32.632,SPAMnetsValid,2021.1.4,Win32,30.0120048,,,,,,,,,,,,,,,,,,,,,,,,,3,5.9121,0,12,12,12,1,diverge,reveal,chant,distract the attention of,differ or turn off from,4,,,,,,,,,,,,,,,,,,,,,,,,,,,,,,,,,,,,,,,,,,,,,,,,,,,,
,,,,,,,,,,,,,,,90189,001,2022-04-25_20h29.32.632,SPAMnetsValid,2021.1.4,Win32,30.0120048,,,,,,,,,,,,,,,,,,,,,,,,,4,1.6339,0,13,13,13,1,evoke,take away,anger,connect,bring out,4,,,,,,,,,,,,,,,,,,,,,,,,,,,,,,,,,,,,,,,,,,,,,,,,,,,,
,,,,,,,,,,,,,,,90189,001,2022-04-25_20h29.32.632,SPAMnetsValid,2021.1.4,Win32,30.0120048,,,,,,,,,,,,,,,,,,,,,,,,,3,2.9046,0,14,14,14,1,pertinent,relevant,lying next to,necessary,bold,1,,,,,,,,,,,,,,,,,,,,,,,,,,,,,,,,,,,,,,,,,,,,,,,,,,,,
,,,,,,,,,,,,,,,90189,001,2022-04-25_20h29.32.632,SPAMnetsValid,2021.1.4,Win32,30.0120048,,,,,,,,,,,,,,,,,,,,,,,,,2,1.8051,0,15,15,15,1,holocaust,entirety,destruction,saintly,price,2,,,,,,,,,,,,,,,,,,,,,,,,,,,,,,,,,,,,,,,,,,,,,,,,,,,,
,,,,,,,,,,,,,,,90189,001,2022-04-25_20h29.32.632,SPAMnetsValid,2021.1.4,Win32,30.0120048,,,,,,,,,,,,,,,,,,,,,,,,,2,3.1995,0,16,16,16,1,piquant,mellow,fish,pungent,cloth,3,,,,,,,,,,,,,,,,,,,,,,,,,,,,,,,,,,,,,,,,,,,,,,,,,,,,
,,,,,,,,,,,,,,,90189,001,2022-04-25_20h29.32.632,SPAMnetsValid,2021.1.4,Win32,30.0120048,,,,,,,,,,,,,,,,,,,,,,,,,3,4.6644,0,17,17,17,1,firmament,foundation,heavens,strong,glue,2,,,,,,,,,,,,,,,,,,,,,,,,,,,,,,,,,,,,,,,,,,,,,,,,,,,,
,,,,,,,,,,,,,,,90189,001,2022-04-25_20h29.32.632,SPAMnetsValid,2021.1.4,Win32,30.0120048,,,,,,,,,,,,,,,,,,,,,,,,,,,,,,,,,,,,,,4,9.4034,0,0,0,0,1,marketable,partisan,jocular,marriageable,salable,essential,4,,,,,,,,,,,,,,,,,,,,,,,,,,,,,,,,,,,,,,
,,,,,,,,,,,,,,,90189,001,2022-04-25_20h29.32.632,SPAMnetsValid,2021.1.4,Win32,30.0120048,,,,,,,,,,,,,,,,,,,,,,,,,,,,,,,,,,,,,,5,3.7676,0,1,1,1,1,cottontail,squirrel,poplar,boa,marshy plant,rabbit,5,,,,,,,,,,,,,,,,,,,,,,,,,,,,,,,,,,,,,,
,,,,,,,,,,,,,,,90189,001,2022-04-25_20h29.32.632,SPAMnetsValid,2021.1.4,Win32,30.0120048,,,,,,,,,,,,,,,,,,,,,,,,,,,,,,,,,,,,,,3,1.4656,0,2,2,2,1,boggy,afraid,false,marshy,dense,black,3,,,,,,,,,,,,,,,,,,,,,,,,,,,,,,,,,,,,,,
,,,,,,,,,,,,,,,90189,001,2022-04-25_20h29.32.632,SPAMnetsValid,2021.1.4,Win32,30.0120048,,,,,,,,,,,,,,,,,,,,,,,,,,,,,,,,,,,,,,1,3.65,0,3,3,3,1,gruesomeness,blackness,falseness,vindictiveness,drunkenness,ghastliness,5,,,,,,,,,,,,,,,,,,,,,,,,,,,,,,,,,,,,,,
,,,,,,,,,,,,,,,90189,001,2022-04-25_20h29.32.632,SPAMnetsValid,2021.1.4,Win32,30.0120048,,,,,,,,,,,,,,,,,,,,,,,,,,,,,,,,,,,,,,2,2.4645,0,4,4,4,1,loathing,diffidence,laziness,abhorrence,cleverness,comfort,3,,,,,,,,,,,,,,,,,,,,,,,,,,,,,,,,,,,,,,
,,,,,,,,,,,,,,,90189,001,2022-04-25_20h29.32.632,SPAMnetsValid,2021.1.4,Win32,30.0120048,,,,,,,,,,,,,,,,,,,,,,,,,,,,,,,,,,,,,,1,3.2513,0,5,5,5,1,bantam,fowl,ridicule,cripple,vegetable,ensign,1,,,,,,,,,,,,,,,,,,,,,,,,,,,,,,,,,,,,,,
,,,,,,,,,,,,,,,90189,001,2022-04-25_20h29.32.632,SPAMnetsValid,2021.1.4,Win32,30.0120048,,,,,,,,,,,,,,,,,,,,,,,,,,,,,,,,,,,,,,5,1.3397,0,6,6,6,1,evoke,wake up,surrender,reconnoiter,transcend,call forth,5,,,,,,,,,,,,,,,,,,,,,,,,,,,,,,,,,,,,,,
,,,,,,,,,,,,,,,90189,001,2022-04-25_20h29.32.632,SPAMnetsValid,2021.1.4,Win32,30.0120048,,,,,,,,,,,,,,,,,,,,,,,,,,,,,,,,,,,,,,5,2.2439,0,7,7,7,1,unobtrusive,unintelligent,epileptic,illogical,lineal,modest,5,,,,,,,,,,,,,,,,,,,,,,,,,,,,,,,,,,,,,,
,,,,,,,,,,,,,,,90189,001,2022-04-25_20h29.32.632,SPAMnetsValid,2021.1.4,Win32,30.0120048,,,,,,,,,,,,,,,,,,,,,,,,,,,,,,,,,,,,,,4,1.7135,0,8,8,8,1,terrain,ice cream,final test,tractor,area of ground,weight,4,,,,,,,,,,,,,,,,,,,,,,,,,,,,,,,,,,,,,,
,,,,,,,,,,,,,,,90189,001,2022-04-25_20h29.32.632,SPAMnetsValid,2021.1.4,Win32,30.0120048,,,,,,,,,,,,,,,,,,,,,,,,,,,,,,,,,,,,,,5,5.2466,0,9,9,9,1,capriciousness,stubbornness,courage,whimsicality,amazement,greediness,3,,,,,,,,,,,,,,,,,,,,,,,,,,,,,,,,,,,,,,
,,,,,,,,,,,,,,,90189,001,2022-04-25_20h29.32.632,SPAMnetsValid,2021.1.4,Win32,30.0120048,,,,,,,,,,,,,,,,,,,,,,,,,,,,,,,,,,,,,,2,2.7319,0,10,10,10,1,maelstrom,slander,whirlpool,enmity,armor,majolica,2,,,,,,,,,,,,,,,,,,,,,,,,,,,,,,,,,,,,,,
,,,,,,,,,,,,,,,90189,001,2022-04-25_20h29.32.632,SPAMnetsValid,2021.1.4,Win32,30.0120048,,,,,,,,,,,,,,,,,,,,,,,,,,,,,,,,,,,,,,2,6.9321,0,11,11,11,1,tentative,critical,conclusive,authentic,provisional,apprehensive,4,,,,,,,,,,,,,,,,,,,,,,,,,,,,,,,,,,,,,,
,,,,,,,,,,,,,,,90189,001,2022-04-25_20h29.32.632,SPAMnetsValid,2021.1.4,Win32,30.0120048,,,,,,,,,,,,,,,,,,,,,,,,,,,,,,,,,,,,,,1,3.6644,0,12,12,12,1,placate,rehabilitate,plagiarize,depredate,apprise,conciliate,5,,,,,,,,,,,,,,,,,,,,,,,,,,,,,,,,,,,,,,
,,,,,,,,,,,,,,,90189,001,2022-04-25_20h29.32.632,SPAMnetsValid,2021.1.4,Win32,30.0120048,,,,,,,,,,,,,,,,,,,,,,,,,,,,,,,,,,,,,,4,1.0994,0,13,13,13,1,surcease,enlightenment,cessation,inattention,censor,substitution,2,,,,,,,,,,,,,,,,,,,,,,,,,,,,,,,,,,,,,,
,,,,,,,,,,,,,,,90189,001,2022-04-25_20h29.32.632,SPAMnetsValid,2021.1.4,Win32,30.0120048,,,,,,,,,,,,,,,,,,,,,,,,,,,,,,,,,,,,,,3,3.0634,0,14,14,14,1,apathetic,wandering,impassive,hateful,prophetic,overflowing,2,,,,,,,,,,,,,,,,,,,,,,,,,,,,,,,,,,,,,,
,,,,,,,,,,,,,,,90189,001,2022-04-25_20h29.32.632,SPAMnetsValid,2021.1.4,Win32,30.0120048,,,,,,,,,,,,,,,,,,,,,,,,,,,,,,,,,,,,,,4,1.8553,0,15,15,15,1,paternoster,paternalism,patricide,malediction,benediction,prayer,5,,,,,,,,,,,,,,,,,,,,,,,,,,,,,,,,,,,,,,
,,,,,,,,,,,,,,,90189,001,2022-04-25_20h29.32.632,SPAMnetsValid,2021.1.4,Win32,30.0120048,,,,,,,,,,,,,,,,,,,,,,,,,,,,,,,,,,,,,,1,1.6149,0,16,16,16,1,opalescence,opulence,senescence,bankruptcy,iridescence,assiduity,4,,,,,,,,,,,,,,,,,,,,,,,,,,,,,,,,,,,,,,
,,,,,,,,,,,,,,,90189,001,2022-04-25_20h29.32.632,SPAMnetsValid,2021.1.4,Win32,30.0120048,,,,,,,,,,,,,,,,,,,,,,,,,,,,,,,,,,,,,,2,1.4672,0,17,17,17,1,lush,stupid,luxurious,hazy,putrid,languishing,2,,,,,,,,,,,,,,,,,,,,,,,,,,,,,,,,,,,,,,
,,,,,,,,,,,,,,,90189,001,2022-04-25_20h29.32.632,SPAMnetsValid,2021.1.4,Win32,30.0120048,,,,,,,,,,,,,,,,,,,,,,,,,,,,,,,,,,,,,,5,1.5849,0,18,18,18,1,curtailment,expenditure,abandonment,abridgment,improvement,forgery,3,,,,,,,,,,,,,,,,,,,,,,,,,,,,,,,,,,,,,,
,,,,,,,,,,,,,,,90189,001,2022-04-25_20h29.32.632,SPAMnetsValid,2021.1.4,Win32,30.0120048,,,,,,,,,,,,,,,,,,,,,,,,,,,,,,,,,,,,,,2,2.4796,0,19,19,19,1,perversity,adversity,perviousness,travesty,waywardness,gentility,4,,,,,,,,,,,,,,,,,,,,,,,,,,,,,,,,,,,,,,
,,,,,,,,,,,,,,,90189,001,2022-04-25_20h29.32.632,SPAMnetsValid,2021.1.4,Win32,30.0120048,,,,,,,,,,,,,,,,,,,,,,,,,,,,,,,,,,,,,,5,3.0789,0,20,20,20,1,calumnious,complimentary,analogous,slanderous,tempestuous,magnanimous,3,,,,,,,,,,,,,,,,,,,,,,,,,,,,,,,,,,,,,,
,,,,,,,,,,,,,,,90189,001,2022-04-25_20h29.32.632,SPAMnetsValid,2021.1.4,Win32,30.0120048,,,,,,,,,,,,,,,,,,,,,,,,,,,,,,,,,,,,,,5,1.6826,0,21,21,21,1,illiberality,bigotry,imbecility,illegibility,cautery,immaturity,1,,,,,,,,,,,,,,,,,,,,,,,,,,,,,,,,,,,,,,
,,,,,,,,,,,,,,,90189,001,2022-04-25_20h29.32.632,SPAMnetsValid,2021.1.4,Win32,30.0120048,,,,,,,,,,,,,,,,,,,,,,,,,,,,,,,,,,,,,,2,2.4656,0,22,22,22,1,clabber,rejoice,gossip,curdle,crow,hobble,3,,,,,,,,,,,,,,,,,,,,,,,,,,,,,,,,,,,,,,
,,,,,,,,,,,,,,,90189,001,2022-04-25_20h29.32.632,SPAMnetsValid,2021.1.4,Win32,30.0120048,,,,,,,,,,,,,,,,,,,,,,,,,,,,,,,,,,,,,,4,2.5976,0,23,23,23,1,sedulousness,diligence,credulousness,seduction,perilousness,frankness,1,,,,,,,,,,,,,,,,,,,,,,,,,,,,,,,,,,,,,,
,,,,,,,,,,,,,,,90189,001,2022-04-25_20h29.32.632,SPAMnetsValid,2021.1.4,Win32,30.0120048,,,,,,,,,,,,,,,,,,,,,,,,,,,,,,,,,,,,,,,,,,,,,,,,,,,,"waxing, creating crayons, burning",candle,0,0,0,0,1,,,,,,,,,,,,,,,,,,,,,,,,,,,,,,,
,,,,,,,,,,,,,,,90189,001,2022-04-25_20h29.32.632,SPAMnetsValid,2021.1.4,Win32,30.0120048,,,,,,,,,,,,,,,,,,,,,,,,,,,,,,,,,,,,,,,,,,,,,,,,,,,,,candle,1,0,1,0,1,,,,,,,,,,,,,,,,,,,,,,,,,,,,,,,
,,,,,,,,,,,,,,,90189,001,2022-04-25_20h29.32.632,SPAMnetsValid,2021.1.4,Win32,30.0120048,,,,,,,,,,,,,,,,,,,,,,,,,,,,,,,,,,,,,,,,,,,,,,,,,,,,creating a postage stamp,candle,2,0,2,0,1,,,,,,,,,,,,,,,,,,,,,,,,,,,,,,,
,,,,,,,,,,,,,,,90189,001,2022-04-25_20h29.32.632,SPAMnetsValid,2021.1.4,Win32,30.0120048,,,,,,,,,,,,,,,,,,,,,,,,,,,,,,,,,,,,,,,,,,,,,,,,,,,,adhesive when burnt,candle,3,0,3,0,1,,,,,,,,,,,,,,,,,,,,,,,,,,,,,,,
,,,,,,,,,,,,,,,90189,001,2022-04-25_20h29.32.632,SPAMnetsValid,2021.1.4,Win32,30.0120048,,,,,,,,,,,,,,,,,,,,,,,,,,,,,,,,,,,,,,,,,,,,,,,,,,,,,,,,,,,0,0,0,1,1,candle,,,,,,,,,,,,,,,,,,,,,,,,,
,,,,,,,,,,,,,,,90189,001,2022-04-25_20h29.32.632,SPAMnetsValid,2021.1.4,Win32,30.0120048,,,,,,,,,,,,,,,,,,,,,,,,,,,,,,,,,,,,,,,,,,,,,,,,,,,,feather for clothing,pillow,0,0,0,0,1,,,,,,,,,,,,,,,,,,,,,,,,,,,,,,,
,,,,,,,,,,,,,,,90189,001,2022-04-25_20h29.32.632,SPAMnetsValid,2021.1.4,Win32,30.0120048,,,,,,,,,,,,,,,,,,,,,,,,,,,,,,,,,,,,,,,,,,,,,,,,,,,,cloth for clothing,pillow,1,0,1,0,1,,,,,,,,,,,,,,,,,,,,,,,,,,,,,,,
,,,,,,,,,,,,,,,90189,001,2022-04-25_20h29.32.632,SPAMnetsValid,2021.1.4,Win32,30.0120048,,,,,,,,,,,,,,,,,,,,,,,,,,,,,,,,,,,,,,,,,,,,,,,,,,,,as a blanket,pillow,2,0,2,0,1,,,,,,,,,,,,,,,,,,,,,,,,,,,,,,,
,,,,,,,,,,,,,,,90189,001,2022-04-25_20h29.32.632,SPAMnetsValid,2021.1.4,Win32,30.0120048,,,,,,,,,,,,,,,,,,,,,,,,,,,,,,,,,,,,,,,,,,,,,,,,,,,,as fire kindle,pillow,3,0,3,0,1,,,,,,,,,,,,,,,,,,,,,,,,,,,,,,,
,,,,,,,,,,,,,,,90189,001,2022-04-25_20h29.32.632,SPAMnetsValid,2021.1.4,Win32,30.0120048,,,,,,,,,,,,,,,,,,,,,,,,,,,,,,,,,,,,,,,,,,,,,,,,,,,,as insulation ,pillow,4,0,4,0,1,,,,,,,,,,,,,,,,,,,,,,,,,,,,,,,
,,,,,,,,,,,,,,,90189,001,2022-04-25_20h29.32.632,SPAMnetsValid,2021.1.4,Win32,30.0120048,,,,,,,,,,,,,,,,,,,,,,,,,,,,,,,,,,,,,,,,,,,,,,,,,,,,pillow hollowed out can be used as a bag,pillow,5,0,5,0,1,,,,,,,,,,,,,,,,,,,,,,,,,,,,,,,
,,,,,,,,,,,,,,,90189,001,2022-04-25_20h29.32.632,SPAMnetsValid,2021.1.4,Win32,30.0120048,,,,,,,,,,,,,,,,,,,,,,,,,,,,,,,,,,,,,,,,,,,,,,,,,,,,bedding for a pet,pillow,6,0,6,0,1,,,,,,,,,,,,,,,,,,,,,,,,,,,,,,,
,,,,,,,,,,,,,,,90189,001,2022-04-25_20h29.32.632,SPAMnetsValid,2021.1.4,Win32,30.0120048,,,,,,,,,,,,,,,,,,,,,,,,,,,,,,,,,,,,,,,,,,,,,,,,,,,,cloth can be used to as sith,pillow,7,0,7,0,1,,,,,,,,,,,,,,,,,,,,,,,,,,,,,,,
,,,,,,,,,,,,,,,90189,001,2022-04-25_20h29.32.632,SPAMnetsValid,2021.1.4,Win32,30.0120048,,,,,,,,,,,,,,,,,,,,,,,,,,,,,,,,,,,,,,,,,,,,,,,,,,,,collect water,pillow,8,0,8,0,1,,,,,,,,,,,,,,,,,,,,,,,,,,,,,,,
,,,,,,,,,,,,,,,90189,001,2022-04-25_20h29.32.632,SPAMnetsValid,2021.1.4,Win32,30.0120048,,,,,,,,,,,,,,,,,,,,,,,,,,,,,,,,,,,,,,,,,,,,,,,,,,,,as a mesh type of bag for delicates,pillow,9,0,9,0,1,,,,,,,,,,,,,,,,,,,,,,,,,,,,,,,
,,,,,,,,,,,,,,,90189,001,2022-04-25_20h29.32.632,SPAMnetsValid,2021.1.4,Win32,30.0120048,,,,,,,,,,,,,,,,,,,,,,,,,,,,,,,,,,,,,,,,,,,,,,,,,,,,,,,,,,,0,1,1,2,1,pillow,,,,,,,,,,,,,,,,,,,,,,,,,
,,,,,,,,,,,,,,,90189,001,2022-04-25_20h29.32.632,SPAMnetsValid,2021.1.4,Win32,30.0120048,,,,,,,,,,,,,,,,,,,,,,,,,,,,,,,,,,,,,,,,,,,,,,,,,,,,collection of liquids,bucket,0,0,0,0,1,,,,,,,,,,,,,,,,,,,,,,,,,,,,,,,
,,,,,,,,,,,,,,,90189,001,2022-04-25_20h29.32.632,SPAMnetsValid,2021.1.4,Win32,30.0120048,,,,,,,,,,,,,,,,,,,,,,,,,,,,,,,,,,,,,,,,,,,,,,,,,,,,containment of food,bucket,1,0,1,0,1,,,,,,,,,,,,,,,,,,,,,,,,,,,,,,,
,,,,,,,,,,,,,,,90189,001,2022-04-25_20h29.32.632,SPAMnetsValid,2021.1.4,Win32,30.0120048,,,,,,,,,,,,,,,,,,,,,,,,,,,,,,,,,,,,,,,,,,,,,,,,,,,,used for boiling liquids,bucket,2,0,2,0,1,,,,,,,,,,,,,,,,,,,,,,,,,,,,,,,
,,,,,,,,,,,,,,,90189,001,2022-04-25_20h29.32.632,SPAMnetsValid,2021.1.4,Win32,30.0120048,,,,,,,,,,,,,,,,,,,,,,,,,,,,,,,,,,,,,,,,,,,,,,,,,,,,metal of bucket can be melted into other uses for metal,bucket,3,0,3,0,1,,,,,,,,,,,,,,,,,,,,,,,,,,,,,,,
,,,,,,,,,,,,,,,90189,001,2022-04-25_20h29.32.632,SPAMnetsValid,2021.1.4,Win32,30.0120048,,,,,,,,,,,,,,,,,,,,,,,,,,,,,,,,,,,,,,,,,,,,,,,,,,,,plastic bucket can be broken and used to cut things,bucket,4,0,4,0,1,,,,,,,,,,,,,,,,,,,,,,,,,,,,,,,
,,,,,,,,,,,,,,,90189,001,2022-04-25_20h29.32.632,SPAMnetsValid,2021.1.4,Win32,30.0120048,,,,,,,,,,,,,,,,,,,,,,,,,,,,,,,,,,,,,,,,,,,,,,,,,,,,used as a weight,bucket,5,0,5,0,1,,,,,,,,,,,,,,,,,,,,,,,,,,,,,,,
,,,,,,,,,,,,,,,90189,001,2022-04-25_20h29.32.632,SPAMnetsValid,2021.1.4,Win32,30.0120048,,,,,,,,,,,,,,,,,,,,,,,,,,,,,,,,,,,,,,,,,,,,,,,,,,,,,,,,,,,0,2,2,0,1,bucket,,,,,,,,,,,,,,,,,,,,,,,,,
,,,,,,,,,,,,,,,90189,001,2022-04-25_20h29.32.632,SPAMnetsValid,2021.1.4,Win32,30.0120048,,,,,,,,,,,,,,,,,,,,,,,,,,,,,,,,,,,,,,,,,,,,,,,,,,,,,,,,,,,,,,,,,,Animals,0,0,0,0,1,,,,,,,,,,,,,,,,,,
,,,,,,,,,,,,,,,90189,001,2022-04-25_20h29.32.632,SPAMnetsValid,2021.1.4,Win32,30.0120048,,,,,,,,,,,,,,,,,,,,,,,,,,,,,,,,,,,,,,,,,,,,,,,,,,,,,,,,,,,,,,,,,zebra,Animals,1,0,1,0,1,,,,,,,,,,,,,,,,,,
,,,,,,,,,,,,,,,90189,001,2022-04-25_20h29.32.632,SPAMnetsValid,2021.1.4,Win32,30.0120048,,,,,,,,,,,,,,,,,,,,,,,,,,,,,,,,,,,,,,,,,,,,,,,,,,,,,,,,,,,,,,,,,camel,Animals,2,0,2,0,1,,,,,,,,,,,,,,,,,,
,,,,,,,,,,,,,,,90189,001,2022-04-25_20h29.32.632,SPAMnetsValid,2021.1.4,Win32,30.0120048,,,,,,,,,,,,,,,,,,,,,,,,,,,,,,,,,,,,,,,,,,,,,,,,,,,,,,,,,,,,,,,,,cat,Animals,3,0,3,0,1,,,,,,,,,,,,,,,,,,
,,,,,,,,,,,,,,,90189,001,2022-04-25_20h29.32.632,SPAMnetsValid,2021.1.4,Win32,30.0120048,,,,,,,,,,,,,,,,,,,,,,,,,,,,,,,,,,,,,,,,,,,,,,,,,,,,,,,,,,,,,,,,,dog,Animals,4,0,4,0,1,,,,,,,,,,,,,,,,,,
,,,,,,,,,,,,,,,90189,001,2022-04-25_20h29.32.632,SPAMnetsValid,2021.1.4,Win32,30.0120048,,,,,,,,,,,,,,,,,,,,,,,,,,,,,,,,,,,,,,,,,,,,,,,,,,,,,,,,,,,,,,,,,horse,Animals,5,0,5,0,1,,,,,,,,,,,,,,,,,,
,,,,,,,,,,,,,,,90189,001,2022-04-25_20h29.32.632,SPAMnetsValid,2021.1.4,Win32,30.0120048,,,,,,,,,,,,,,,,,,,,,,,,,,,,,,,,,,,,,,,,,,,,,,,,,,,,,,,,,,,,,,,,,boar,Animals,6,0,6,0,1,,,,,,,,,,,,,,,,,,
,,,,,,,,,,,,,,,90189,001,2022-04-25_20h29.32.632,SPAMnetsValid,2021.1.4,Win32,30.0120048,,,,,,,,,,,,,,,,,,,,,,,,,,,,,,,,,,,,,,,,,,,,,,,,,,,,,,,,,,,,,,,,,pig,Animals,7,0,7,0,1,,,,,,,,,,,,,,,,,,
,,,,,,,,,,,,,,,90189,001,2022-04-25_20h29.32.632,SPAMnetsValid,2021.1.4,Win32,30.0120048,,,,,,,,,,,,,,,,,,,,,,,,,,,,,,,,,,,,,,,,,,,,,,,,,,,,,,,,,,,,,,,,,bat,Animals,8,0,8,0,1,,,,,,,,,,,,,,,,,,
,,,,,,,,,,,,,,,90189,001,2022-04-25_20h29.32.632,SPAMnetsValid,2021.1.4,Win32,30.0120048,,,,,,,,,,,,,,,,,,,,,,,,,,,,,,,,,,,,,,,,,,,,,,,,,,,,,,,,,,,,,,,,,bear,Animals,9,0,9,0,1,,,,,,,,,,,,,,,,,,
,,,,,,,,,,,,,,,90189,001,2022-04-25_20h29.32.632,SPAMnetsValid,2021.1.4,Win32,30.0120048,,,,,,,,,,,,,,,,,,,,,,,,,,,,,,,,,,,,,,,,,,,,,,,,,,,,,,,,,,,,,,,,,lion,Animals,10,0,10,0,1,,,,,,,,,,,,,,,,,,
,,,,,,,,,,,,,,,90189,001,2022-04-25_20h29.32.632,SPAMnetsValid,2021.1.4,Win32,30.0120048,,,,,,,,,,,,,,,,,,,,,,,,,,,,,,,,,,,,,,,,,,,,,,,,,,,,,,,,,,,,,,,,,penguin ,Animals,11,0,11,0,1,,,,,,,,,,,,,,,,,,
,,,,,,,,,,,,,,,90189,001,2022-04-25_20h29.32.632,SPAMnetsValid,2021.1.4,Win32,30.0120048,,,,,,,,,,,,,,,,,,,,,,,,,,,,,,,,,,,,,,,,,,,,,,,,,,,,,,,,,,,,,,,,,hippo,Animals,12,0,12,0,1,,,,,,,,,,,,,,,,,,
,,,,,,,,,,,,,,,90189,001,2022-04-25_20h29.32.632,SPAMnetsValid,2021.1.4,Win32,30.0120048,,,,,,,,,,,,,,,,,,,,,,,,,,,,,,,,,,,,,,,,,,,,,,,,,,,,,,,,,,,,,,,,,bird,Animals,13,0,13,0,1,,,,,,,,,,,,,,,,,,
,,,,,,,,,,,,,,,90189,001,2022-04-25_20h29.32.632,SPAMnetsValid,2021.1.4,Win32,30.0120048,,,,,,,,,,,,,,,,,,,,,,,,,,,,,,,,,,,,,,,,,,,,,,,,,,,,,,,,,,,,,,,,,whale,Animals,14,0,14,0,1,,,,,,,,,,,,,,,,,,
,,,,,,,,,,,,,,,90189,001,2022-04-25_20h29.32.632,SPAMnetsValid,2021.1.4,Win32,30.0120048,,,,,,,,,,,,,,,,,,,,,,,,,,,,,,,,,,,,,,,,,,,,,,,,,,,,,,,,,,,,,,,,,fish,Animals,15,0,15,0,1,,,,,,,,,,,,,,,,,,
,,,,,,,,,,,,,,,90189,001,2022-04-25_20h29.32.632,SPAMnetsValid,2021.1.4,Win32,30.0120048,,,,,,,,,,,,,,,,,,,,,,,,,,,,,,,,,,,,,,,,,,,,,,,,,,,,,,,,,,,,,,,,,lizard,Animals,16,0,16,0,1,,,,,,,,,,,,,,,,,,
,,,,,,,,,,,,,,,90189,001,2022-04-25_20h29.32.632,SPAMnetsValid,2021.1.4,Win32,30.0120048,,,,,,,,,,,,,,,,,,,,,,,,,,,,,,,,,,,,,,,,,,,,,,,,,,,,,,,,,,,,,,,,,fox,Animals,17,0,17,0,1,,,,,,,,,,,,,,,,,,
,,,,,,,,,,,,,,,90189,001,2022-04-25_20h29.32.632,SPAMnetsValid,2021.1.4,Win32,30.0120048,,,,,,,,,,,,,,,,,,,,,,,,,,,,,,,,,,,,,,,,,,,,,,,,,,,,,,,,,,,,,,,,,lepord,Animals,18,0,18,0,1,,,,,,,,,,,,,,,,,,
,,,,,,,,,,,,,,,90189,001,2022-04-25_20h29.32.632,SPAMnetsValid,2021.1.4,Win32,30.0120048,,,,,,,,,,,,,,,,,,,,,,,,,,,,,,,,,,,,,,,,,,,,,,,,,,,,,,,,,,,,,,,,,coyote,Animals,19,0,19,0,1,,,,,,,,,,,,,,,,,,
,,,,,,,,,,,,,,,90189,001,2022-04-25_20h29.32.632,SPAMnetsValid,2021.1.4,Win32,30.0120048,,,,,,,,,,,,,,,,,,,,,,,,,,,,,,,,,,,,,,,,,,,,,,,,,,,,,,,,,,,,,,,,,possom,Animals,20,0,20,0,1,,,,,,,,,,,,,,,,,,
,,,,,,,,,,,,,,,90189,001,2022-04-25_20h29.32.632,SPAMnetsValid,2021.1.4,Win32,30.0120048,,,,,,,,,,,,,,,,,,,,,,,,,,,,,,,,,,,,,,,,,,,,,,,,,,,,,,,,,,,,,,,,,rat,Animals,21,0,21,0,1,,,,,,,,,,,,,,,,,,
,,,,,,,,,,,,,,,90189,001,2022-04-25_20h29.32.632,SPAMnetsValid,2021.1.4,Win32,30.0120048,,,,,,,,,,,,,,,,,,,,,,,,,,,,,,,,,,,,,,,,,,,,,,,,,,,,,,,,,,,,,,,,,mouse,Animals,22,0,22,0,1,,,,,,,,,,,,,,,,,,
,,,,,,,,,,,,,,,90189,001,2022-04-25_20h29.32.632,SPAMnetsValid,2021.1.4,Win32,30.0120048,,,,,,,,,,,,,,,,,,,,,,,,,,,,,,,,,,,,,,,,,,,,,,,,,,,,,,,,,,,,,,,,,hamster,Animals,23,0,23,0,1,,,,,,,,,,,,,,,,,,
,,,,,,,,,,,,,,,90189,001,2022-04-25_20h29.32.632,SPAMnetsValid,2021.1.4,Win32,30.0120048,,,,,,,,,,,,,,,,,,,,,,,,,,,,,,,,,,,,,,,,,,,,,,,,,,,,,,,,,,,,,,,,,gerbil,Animals,24,0,24,0,1,,,,,,,,,,,,,,,,,,
,,,,,,,,,,,,,,,90189,001,2022-04-25_20h29.32.632,SPAMnetsValid,2021.1.4,Win32,30.0120048,,,,,,,,,,,,,,,,,,,,,,,,,,,,,,,,,,,,,,,,,,,,,,,,,,,,,,,,,,,,,,,,,groundhog,Animals,25,0,25,0,1,,,,,,,,,,,,,,,,,,
,,,,,,,,,,,,,,,90189,001,2022-04-25_20h29.32.632,SPAMnetsValid,2021.1.4,Win32,30.0120048,,,,,,,,,,,,,,,,,,,,,,,,,,,,,,,,,,,,,,,,,,,,,,,,,,,,,,,,,,,,,,,,,otter,Animals,26,0,26,0,1,,,,,,,,,,,,,,,,,,
,,,,,,,,,,,,,,,90189,001,2022-04-25_20h29.32.632,SPAMnetsValid,2021.1.4,Win32,30.0120048,,,,,,,,,,,,,,,,,,,,,,,,,,,,,,,,,,,,,,,,,,,,,,,,,,,,,,,,,,,,,,,,,alligator,Animals,27,0,27,0,1,,,,,,,,,,,,,,,,,,
,,,,,,,,,,,,,,,90189,001,2022-04-25_20h29.32.632,SPAMnetsValid,2021.1.4,Win32,30.0120048,,,,,,,,,,,,,,,,,,,,,,,,,,,,,,,,,,,,,,,,,,,,,,,,,,,,,,,,,,,,,,,,,,,,,,,,0,0,0,0,1,Animals,,,,,,,,,,,,
,,,,,,,,,,,,,,,90189,001,2022-04-25_20h29.32.632,SPAMnetsValid,2021.1.4,Win32,30.0120048,,,,,,,,,,,,,,,,,,,,,,,,,,,,,,,,,,,,,,,,,,,,,,,,,,,,,,,,,,,,,,,,,,,,,,,,,,,,,,5,6.8654,0,0,0,0,1,"I enjoy concentrating on a fantasy or daydream and exploring all its possibilities, letting it grow and develop.",0,1,,
,,,,,,,,,,,,,,,90189,001,2022-04-25_20h29.32.632,SPAMnetsValid,2021.1.4,Win32,30.0120048,,,,,,,,,,,,,,,,,,,,,,,,,,,,,,,,,,,,,,,,,,,,,,,,,,,,,,,,,,,,,,,,,,,,,,,,,,,,,,4,1.9466,0,1,1,1,1,I think it's interesting to learn and develop new hobbies.,0,2,,
,,,,,,,,,,,,,,,90189,001,2022-04-25_20h29.32.632,SPAMnetsValid,2021.1.4,Win32,30.0120048,,,,,,,,,,,,,,,,,,,,,,,,,,,,,,,,,,,,,,,,,,,,,,,,,,,,,,,,,,,,,,,,,,,,,,,,,,,,,,4,1.3988,0,2,2,2,1,I am intrigued by the patterns I find in art and nature.,0,3,,
,,,,,,,,,,,,,,,90189,001,2022-04-25_20h29.32.632,SPAMnetsValid,2021.1.4,Win32,30.0120048,,,,,,,,,,,,,,,,,,,,,,,,,,,,,,,,,,,,,,,,,,,,,,,,,,,,,,,,,,,,,,,,,,,,,,,,,,,,,,2,4.6613,0,3,3,3,1,I believe letting students hear controversial speakers can only confuse and mislead them.,1,4,,
,,,,,,,,,,,,,,,90189,001,2022-04-25_20h29.32.632,SPAMnetsValid,2021.1.4,Win32,30.0120048,,,,,,,,,,,,,,,,,,,,,,,,,,,,,,,,,,,,,,,,,,,,,,,,,,,,,,,,,,,,,,,,,,,,,,,,,,,,,,2,4.0797,0,4,4,4,1,Poetry has little or no effect on me.,1,5,,
,,,,,,,,,,,,,,,90189,001,2022-04-25_20h29.32.632,SPAMnetsValid,2021.1.4,Win32,30.0120048,,,,,,,,,,,,,,,,,,,,,,,,,,,,,,,,,,,,,,,,,,,,,,,,,,,,,,,,,,,,,,,,,,,,,,,,,,,,,,2,4.7681,0,5,5,5,1,I would have difficulty just letting my mind wander without control or guidance.,1,6,,
,,,,,,,,,,,,,,,90189,001,2022-04-25_20h29.32.632,SPAMnetsValid,2021.1.4,Win32,30.0120048,,,,,,,,,,,,,,,,,,,,,,,,,,,,,,,,,,,,,,,,,,,,,,,,,,,,,,,,,,,,,,,,,,,,,,,,,,,,,,5,3.9808,0,6,6,6,1,I seldom notice the moods or feelings that different environments produce.,1,7,,
,,,,,,,,,,,,,,,90189,001,2022-04-25_20h29.32.632,SPAMnetsValid,2021.1.4,Win32,30.0120048,,,,,,,,,,,,,,,,,,,,,,,,,,,,,,,,,,,,,,,,,,,,,,,,,,,,,,,,,,,,,,,,,,,,,,,,,,,,,,5,2.9835,0,7,7,7,1,I experience a wide range of emotions or feelings.,0,8,,
,,,,,,,,,,,,,,,90189,001,2022-04-25_20h29.32.632,SPAMnetsValid,2021.1.4,Win32,30.0120048,,,,,,,,,,,,,,,,,,,,,,,,,,,,,,,,,,,,,,,,,,,,,,,,,,,,,,,,,,,,,,,,,,,,,,,,,,,,,,4,4.4334,0,8,8,8,1,"Sometimes when I am reading poetry or looking at a work of art, I feel a chill or wave of excitement.",0,9,,
,,,,,,,,,,,,,,,90189,001,2022-04-25_20h29.32.632,SPAMnetsValid,2021.1.4,Win32,30.0120048,,,,,,,,,,,,,,,,,,,,,,,,,,,,,,,,,,,,,,,,,,,,,,,,,,,,,,,,,,,,,,,,,,,,,,,,,,,,,,1,4.3632,0,9,9,9,1,I have little interest in speculating on the nature of the universe or the human condition.,1,10,,
,,,,,,,,,,,,,,,90189,001,2022-04-25_20h29.32.632,SPAMnetsValid,2021.1.4,Win32,30.0120048,,,,,,,,,,,,,,,,,,,,,,,,,,,,,,,,,,,,,,,,,,,,,,,,,,,,,,,,,,,,,,,,,,,,,,,,,,,,,,5,2.1156,0,10,10,10,1,I have a lot of intellectual curiosity.,0,11,,
,,,,,,,,,,,,,,,90189,001,2022-04-25_20h29.32.632,SPAMnetsValid,2021.1.4,Win32,30.0120048,,,,,,,,,,,,,,,,,,,,,,,,,,,,,,,,,,,,,,,,,,,,,,,,,,,,,,,,,,,,,,,,,,,,,,,,,,,,,,5,1.3969,0,11,11,11,1,I often enjoy playing with theories or abstract ideas.,0,12,,
,,,,,,,,,,,,,,,90189,001,2022-04-25_20h29.32.632,SPAMnetsValid,2021.1.4,Win32,30.0120048,,,,,,,,,,,,,,,,,,,,,,,,,,,,,,,,,,,,,,,,,,,,,,,,,,,,,,,,,,,,,,,,,,,,,,,,,,,,,,,,,,,,,,,,return,4.2851
