key_resp_3.keys,key_resp_3.rt,slider.response,slider.rt,rjt_rating,rjt_RT,trials_22.thisRepN,trials_22.thisTrialN,trials_22.thisN,trials_22.thisIndex,trials_22.ran,rjt_order,word1,word2,attention,participant,session,date,expName,psychopyVersion,OS,frameRate,trials_99.thisRepN,trials_99.thisTrialN,trials_99.thisN,trials_99.thisIndex,trials_99.ran,trials_5.thisRepN,trials_5.thisTrialN,trials_5.thisN,trials_5.thisIndex,trials_5.ran,repOne,repTwo,slider_2.response,slider_2.rt,trials_24.thisRepN,trials_24.thisTrialN,trials_24.thisN,trials_24.thisIndex,trials_24.ran,trials_4.thisRepN,trials_4.thisTrialN,trials_4.thisN,trials_4.thisIndex,trials_4.ran,slider_extend_2.response,slider_extend_2.rt,trials_6.thisRepN,trials_6.thisTrialN,trials_6.thisN,trials_6.thisIndex,trials_6.ran,vCue2,R1,R2,R3,R4,correct,sliderVocab.response,sliderVocab.rt,trials_7.thisRepN,trials_7.thisTrialN,trials_7.thisN,trials_7.thisIndex,trials_7.ran,VocabCue,VR1,VR2,VR3,VR4,VR5,VocabCorrect,AUT_resp,AUT_label,trials.thisRepN,trials.thisTrialN,trials.thisN,trials.thisIndex,trials.ran,trials_2.thisRepN,trials_2.thisTrialN,trials_2.thisN,trials_2.thisIndex,trials_2.ran,aut_prompt,VF_response,VF_tag,trials_16.thisRepN,trials_16.thisTrialN,trials_16.thisN,trials_16.thisIndex,trials_16.ran,trials_17.thisRepN,trials_17.thisTrialN,trials_17.thisN,trials_17.thisIndex,trials_17.ran,VFcond,open_slider.response,open_slider.rt,trials_3.thisRepN,trials_3.thisTrialN,trials_3.thisN,trials_3.thisIndex,trials_3.ran,OpenQ,Rev,OPEN_ORDER,key_resp_2.keys,key_resp_2.rt
return,15.90975,3,6.154785,3,6.154785,0,0,0,4,1,83,broom,carrot,,90193,001,2022-04-28_19h36.05.417,SPAMnetsValid,2021.1.4,MacIntel,59.99880002,,,,,,,,,,,,,,,,,,,,,,,,,,,,,,,,,,,,,,,,,,,,,,,,,,,,,,,,,,,,,,,,,,,,,,,,,,,,,,,,,,,,,,,,,
,,5,6.32227,5,6.32227,0,1,1,16,1,14,broom,cookie,,90193,001,2022-04-28_19h36.05.417,SPAMnetsValid,2021.1.4,MacIntel,59.99880002,,,,,,,,,,,,,,,,,,,,,,,,,,,,,,,,,,,,,,,,,,,,,,,,,,,,,,,,,,,,,,,,,,,,,,,,,,,,,,,,,,,,,,,,,
,,6,3.05854,6,3.05854,0,2,2,69,1,45,onion,pretzel,,90193,001,2022-04-28_19h36.05.417,SPAMnetsValid,2021.1.4,MacIntel,59.99880002,,,,,,,,,,,,,,,,,,,,,,,,,,,,,,,,,,,,,,,,,,,,,,,,,,,,,,,,,,,,,,,,,,,,,,,,,,,,,,,,,,,,,,,,,
,,6,4.793925,6,4.793925,0,3,3,24,1,17,carrot,melon,,90193,001,2022-04-28_19h36.05.417,SPAMnetsValid,2021.1.4,MacIntel,59.99880002,,,,,,,,,,,,,,,,,,,,,,,,,,,,,,,,,,,,,,,,,,,,,,,,,,,,,,,,,,,,,,,,,,,,,,,,,,,,,,,,,,,,,,,,,
,,2,6.360635,2,6.360635,0,4,4,90,1,95,broom,refrigerator,,90193,001,2022-04-28_19h36.05.417,SPAMnetsValid,2021.1.4,MacIntel,59.99880002,,,,,,,,,,,,,,,,,,,,,,,,,,,,,,,,,,,,,,,,,,,,,,,,,,,,,,,,,,,,,,,,,,,,,,,,,,,,,,,,,,,,,,,,,
,,1,2.393335,1,2.393335,0,5,5,25,1,23,flower,microwave,,90193,001,2022-04-28_19h36.05.417,SPAMnetsValid,2021.1.4,MacIntel,59.99880002,,,,,,,,,,,,,,,,,,,,,,,,,,,,,,,,,,,,,,,,,,,,,,,,,,,,,,,,,,,,,,,,,,,,,,,,,,,,,,,,,,,,,,,,,
,,6,4.023705,6,4.023705,0,6,6,20,1,39,melon,pretzel,,90193,001,2022-04-28_19h36.05.417,SPAMnetsValid,2021.1.4,MacIntel,59.99880002,,,,,,,,,,,,,,,,,,,,,,,,,,,,,,,,,,,,,,,,,,,,,,,,,,,,,,,,,,,,,,,,,,,,,,,,,,,,,,,,,,,,,,,,,
,,2,3.309795,2,3.309795,0,7,7,12,1,67,flower,yogurt,,90193,001,2022-04-28_19h36.05.417,SPAMnetsValid,2021.1.4,MacIntel,59.99880002,,,,,,,,,,,,,,,,,,,,,,,,,,,,,,,,,,,,,,,,,,,,,,,,,,,,,,,,,,,,,,,,,,,,,,,,,,,,,,,,,,,,,,,,,
,,1,2.07341,1,2.07341,0,8,8,11,1,37,garden,refrigerator,,90193,001,2022-04-28_19h36.05.417,SPAMnetsValid,2021.1.4,MacIntel,59.99880002,,,,,,,,,,,,,,,,,,,,,,,,,,,,,,,,,,,,,,,,,,,,,,,,,,,,,,,,,,,,,,,,,,,,,,,,,,,,,,,,,,,,,,,,,
,,7,4.02937,7,4.02937,0,9,9,48,1,66,melon,yogurt,,90193,001,2022-04-28_19h36.05.417,SPAMnetsValid,2021.1.4,MacIntel,59.99880002,,,,,,,,,,,,,,,,,,,,,,,,,,,,,,,,,,,,,,,,,,,,,,,,,,,,,,,,,,,,,,,,,,,,,,,,,,,,,,,,,,,,,,,,,
,,6,2.023775,6,2.023775,0,10,10,68,1,24,cookie,tomato,,90193,001,2022-04-28_19h36.05.417,SPAMnetsValid,2021.1.4,MacIntel,59.99880002,,,,,,,,,,,,,,,,,,,,,,,,,,,,,,,,,,,,,,,,,,,,,,,,,,,,,,,,,,,,,,,,,,,,,,,,,,,,,,,,,,,,,,,,,
,,7,2.179555,7,2.179555,0,11,11,96,1,82,cake,kitchen,,90193,001,2022-04-28_19h36.05.417,SPAMnetsValid,2021.1.4,MacIntel,59.99880002,,,,,,,,,,,,,,,,,,,,,,,,,,,,,,,,,,,,,,,,,,,,,,,,,,,,,,,,,,,,,,,,,,,,,,,,,,,,,,,,,,,,,,,,,
,,1,3.179265,1,3.179265,0,12,12,71,1,38,pretzel,refrigerator,,90193,001,2022-04-28_19h36.05.417,SPAMnetsValid,2021.1.4,MacIntel,59.99880002,,,,,,,,,,,,,,,,,,,,,,,,,,,,,,,,,,,,,,,,,,,,,,,,,,,,,,,,,,,,,,,,,,,,,,,,,,,,,,,,,,,,,,,,,
,,3,2.85778,3,2.85778,0,13,13,39,1,15,onion,oven,,90193,001,2022-04-28_19h36.05.417,SPAMnetsValid,2021.1.4,MacIntel,59.99880002,,,,,,,,,,,,,,,,,,,,,,,,,,,,,,,,,,,,,,,,,,,,,,,,,,,,,,,,,,,,,,,,,,,,,,,,,,,,,,,,,,,,,,,,,
,,7,1.907545,7,1.907545,0,14,14,95,1,52,carrot,tomato,,90193,001,2022-04-28_19h36.05.417,SPAMnetsValid,2021.1.4,MacIntel,59.99880002,,,,,,,,,,,,,,,,,,,,,,,,,,,,,,,,,,,,,,,,,,,,,,,,,,,,,,,,,,,,,,,,,,,,,,,,,,,,,,,,,,,,,,,,,
,,6,2.89216,6,2.89216,0,15,15,36,1,12,cookie,yogurt,,90193,001,2022-04-28_19h36.05.417,SPAMnetsValid,2021.1.4,MacIntel,59.99880002,,,,,,,,,,,,,,,,,,,,,,,,,,,,,,,,,,,,,,,,,,,,,,,,,,,,,,,,,,,,,,,,,,,,,,,,,,,,,,,,,,,,,,,,,
,,6,2.65679,6,2.65679,0,16,16,63,1,21,cake,onion,,90193,001,2022-04-28_19h36.05.417,SPAMnetsValid,2021.1.4,MacIntel,59.99880002,,,,,,,,,,,,,,,,,,,,,,,,,,,,,,,,,,,,,,,,,,,,,,,,,,,,,,,,,,,,,,,,,,,,,,,,,,,,,,,,,,,,,,,,,
,,9,2.078735,9,2.078735,0,17,17,53,1,192,microwave,microwave,CHECK,90193,001,2022-04-28_19h36.05.417,SPAMnetsValid,2021.1.4,MacIntel,59.99880002,,,,,,,,,,,,,,,,,,,,,,,,,,,,,,,,,,,,,,,,,,,,,,,,,,,,,,,,,,,,,,,,,,,,,,,,,,,,,,,,,,,,,,,,,
,,3,6.28933,3,6.28933,0,18,18,72,1,59,rose,strawberry,,90193,001,2022-04-28_19h36.05.417,SPAMnetsValid,2021.1.4,MacIntel,59.99880002,,,,,,,,,,,,,,,,,,,,,,,,,,,,,,,,,,,,,,,,,,,,,,,,,,,,,,,,,,,,,,,,,,,,,,,,,,,,,,,,,,,,,,,,,
,,6,2.388485,6,2.388485,0,19,19,28,1,84,oven,tomato,,90193,001,2022-04-28_19h36.05.417,SPAMnetsValid,2021.1.4,MacIntel,59.99880002,,,,,,,,,,,,,,,,,,,,,,,,,,,,,,,,,,,,,,,,,,,,,,,,,,,,,,,,,,,,,,,,,,,,,,,,,,,,,,,,,,,,,,,,,
,,9,4.80649,9,4.80649,0,20,20,19,1,76,garden,rose,,90193,001,2022-04-28_19h36.05.417,SPAMnetsValid,2021.1.4,MacIntel,59.99880002,,,,,,,,,,,,,,,,,,,,,,,,,,,,,,,,,,,,,,,,,,,,,,,,,,,,,,,,,,,,,,,,,,,,,,,,,,,,,,,,,,,,,,,,,
,,7,5.32464,7,5.32464,0,21,21,91,1,2,kitchen,onion,,90193,001,2022-04-28_19h36.05.417,SPAMnetsValid,2021.1.4,MacIntel,59.99880002,,,,,,,,,,,,,,,,,,,,,,,,,,,,,,,,,,,,,,,,,,,,,,,,,,,,,,,,,,,,,,,,,,,,,,,,,,,,,,,,,,,,,,,,,
,,3,2.72331,3,2.72331,0,22,22,47,1,73,broom,chocolate,,90193,001,2022-04-28_19h36.05.417,SPAMnetsValid,2021.1.4,MacIntel,59.99880002,,,,,,,,,,,,,,,,,,,,,,,,,,,,,,,,,,,,,,,,,,,,,,,,,,,,,,,,,,,,,,,,,,,,,,,,,,,,,,,,,,,,,,,,,
,,6,3.9437,6,3.9437,0,23,23,67,1,54,chocolate,yogurt,,90193,001,2022-04-28_19h36.05.417,SPAMnetsValid,2021.1.4,MacIntel,59.99880002,,,,,,,,,,,,,,,,,,,,,,,,,,,,,,,,,,,,,,,,,,,,,,,,,,,,,,,,,,,,,,,,,,,,,,,,,,,,,,,,,,,,,,,,,
,,8,3.197825,8,3.197825,0,24,24,2,1,22,kitchen,strawberry,,90193,001,2022-04-28_19h36.05.417,SPAMnetsValid,2021.1.4,MacIntel,59.99880002,,,,,,,,,,,,,,,,,,,,,,,,,,,,,,,,,,,,,,,,,,,,,,,,,,,,,,,,,,,,,,,,,,,,,,,,,,,,,,,,,,,,,,,,,
,,6,4.078645,6,4.078645,0,25,25,9,1,75,cookie,onion,,90193,001,2022-04-28_19h36.05.417,SPAMnetsValid,2021.1.4,MacIntel,59.99880002,,,,,,,,,,,,,,,,,,,,,,,,,,,,,,,,,,,,,,,,,,,,,,,,,,,,,,,,,,,,,,,,,,,,,,,,,,,,,,,,,,,,,,,,,
,,4,5.00801,4,5.00801,0,26,26,32,1,40,broom,cake,,90193,001,2022-04-28_19h36.05.417,SPAMnetsValid,2021.1.4,MacIntel,59.99880002,,,,,,,,,,,,,,,,,,,,,,,,,,,,,,,,,,,,,,,,,,,,,,,,,,,,,,,,,,,,,,,,,,,,,,,,,,,,,,,,,,,,,,,,,
,,1,2.933095,1,2.933095,0,27,27,31,1,33,oven,yogurt,,90193,001,2022-04-28_19h36.05.417,SPAMnetsValid,2021.1.4,MacIntel,59.99880002,,,,,,,,,,,,,,,,,,,,,,,,,,,,,,,,,,,,,,,,,,,,,,,,,,,,,,,,,,,,,,,,,,,,,,,,,,,,,,,,,,,,,,,,,
,,1,3.389205,1,3.389205,0,28,28,14,1,64,chocolate,garden,,90193,001,2022-04-28_19h36.05.417,SPAMnetsValid,2021.1.4,MacIntel,59.99880002,,,,,,,,,,,,,,,,,,,,,,,,,,,,,,,,,,,,,,,,,,,,,,,,,,,,,,,,,,,,,,,,,,,,,,,,,,,,,,,,,,,,,,,,,
,,7,4.3427,7,4.3427,0,29,29,83,1,6,garden,onion,,90193,001,2022-04-28_19h36.05.417,SPAMnetsValid,2021.1.4,MacIntel,59.99880002,,,,,,,,,,,,,,,,,,,,,,,,,,,,,,,,,,,,,,,,,,,,,,,,,,,,,,,,,,,,,,,,,,,,,,,,,,,,,,,,,,,,,,,,,
,,8,3.68985,8,3.68985,0,30,30,52,1,4,chocolate,pretzel,,90193,001,2022-04-28_19h36.05.417,SPAMnetsValid,2021.1.4,MacIntel,59.99880002,,,,,,,,,,,,,,,,,,,,,,,,,,,,,,,,,,,,,,,,,,,,,,,,,,,,,,,,,,,,,,,,,,,,,,,,,,,,,,,,,,,,,,,,,
,,6,1.91326,6,1.91326,0,31,31,92,1,44,cookie,melon,,90193,001,2022-04-28_19h36.05.417,SPAMnetsValid,2021.1.4,MacIntel,59.99880002,,,,,,,,,,,,,,,,,,,,,,,,,,,,,,,,,,,,,,,,,,,,,,,,,,,,,,,,,,,,,,,,,,,,,,,,,,,,,,,,,,,,,,,,,
,,1,7.494165,1,7.494165,0,32,32,33,1,32,cake,microwave,,90193,001,2022-04-28_19h36.05.417,SPAMnetsValid,2021.1.4,MacIntel,59.99880002,,,,,,,,,,,,,,,,,,,,,,,,,,,,,,,,,,,,,,,,,,,,,,,,,,,,,,,,,,,,,,,,,,,,,,,,,,,,,,,,,,,,,,,,,
,,4,3.106735,4,3.106735,0,33,33,73,1,50,carrot,rose,,90193,001,2022-04-28_19h36.05.417,SPAMnetsValid,2021.1.4,MacIntel,59.99880002,,,,,,,,,,,,,,,,,,,,,,,,,,,,,,,,,,,,,,,,,,,,,,,,,,,,,,,,,,,,,,,,,,,,,,,,,,,,,,,,,,,,,,,,,
,,3,1.676575,3,1.676575,0,34,34,94,1,68,flower,tomato,,90193,001,2022-04-28_19h36.05.417,SPAMnetsValid,2021.1.4,MacIntel,59.99880002,,,,,,,,,,,,,,,,,,,,,,,,,,,,,,,,,,,,,,,,,,,,,,,,,,,,,,,,,,,,,,,,,,,,,,,,,,,,,,,,,,,,,,,,,
,,9,3.04028,9,3.04028,0,35,35,82,1,93,kitchen,oven,,90193,001,2022-04-28_19h36.05.417,SPAMnetsValid,2021.1.4,MacIntel,59.99880002,,,,,,,,,,,,,,,,,,,,,,,,,,,,,,,,,,,,,,,,,,,,,,,,,,,,,,,,,,,,,,,,,,,,,,,,,,,,,,,,,,,,,,,,,
,,9,1.9766,9,1.9766,0,36,36,30,1,3,cake,oven,,90193,001,2022-04-28_19h36.05.417,SPAMnetsValid,2021.1.4,MacIntel,59.99880002,,,,,,,,,,,,,,,,,,,,,,,,,,,,,,,,,,,,,,,,,,,,,,,,,,,,,,,,,,,,,,,,,,,,,,,,,,,,,,,,,,,,,,,,,
,,1,2.610215,1,2.610215,0,37,37,56,1,78,cookie,rose,,90193,001,2022-04-28_19h36.05.417,SPAMnetsValid,2021.1.4,MacIntel,59.99880002,,,,,,,,,,,,,,,,,,,,,,,,,,,,,,,,,,,,,,,,,,,,,,,,,,,,,,,,,,,,,,,,,,,,,,,,,,,,,,,,,,,,,,,,,
,,1,3.63988,1,3.63988,0,38,38,37,1,58,garden,oven,,90193,001,2022-04-28_19h36.05.417,SPAMnetsValid,2021.1.4,MacIntel,59.99880002,,,,,,,,,,,,,,,,,,,,,,,,,,,,,,,,,,,,,,,,,,,,,,,,,,,,,,,,,,,,,,,,,,,,,,,,,,,,,,,,,,,,,,,,,
,,6,4.30712,6,4.30712,0,39,39,75,1,69,carrot,refrigerator,,90193,001,2022-04-28_19h36.05.417,SPAMnetsValid,2021.1.4,MacIntel,59.99880002,,,,,,,,,,,,,,,,,,,,,,,,,,,,,,,,,,,,,,,,,,,,,,,,,,,,,,,,,,,,,,,,,,,,,,,,,,,,,,,,,,,,,,,,,
,,6,4.74099,6,4.74099,0,40,40,34,1,29,chocolate,melon,,90193,001,2022-04-28_19h36.05.417,SPAMnetsValid,2021.1.4,MacIntel,59.99880002,,,,,,,,,,,,,,,,,,,,,,,,,,,,,,,,,,,,,,,,,,,,,,,,,,,,,,,,,,,,,,,,,,,,,,,,,,,,,,,,,,,,,,,,,
,,1,2.18256,1,2.18256,0,41,41,84,1,91,microwave,rose,,90193,001,2022-04-28_19h36.05.417,SPAMnetsValid,2021.1.4,MacIntel,59.99880002,,,,,,,,,,,,,,,,,,,,,,,,,,,,,,,,,,,,,,,,,,,,,,,,,,,,,,,,,,,,,,,,,,,,,,,,,,,,,,,,,,,,,,,,,
,,1,2.26132,1,2.26132,0,42,42,55,1,1,rose,yogurt,,90193,001,2022-04-28_19h36.05.417,SPAMnetsValid,2021.1.4,MacIntel,59.99880002,,,,,,,,,,,,,,,,,,,,,,,,,,,,,,,,,,,,,,,,,,,,,,,,,,,,,,,,,,,,,,,,,,,,,,,,,,,,,,,,,,,,,,,,,
,,1,2.408015,1,2.408015,0,43,43,29,1,42,garden,kitchen,,90193,001,2022-04-28_19h36.05.417,SPAMnetsValid,2021.1.4,MacIntel,59.99880002,,,,,,,,,,,,,,,,,,,,,,,,,,,,,,,,,,,,,,,,,,,,,,,,,,,,,,,,,,,,,,,,,,,,,,,,,,,,,,,,,,,,,,,,,
,,1,2.473845,1,2.473845,0,44,44,23,1,65,broom,garden,,90193,001,2022-04-28_19h36.05.417,SPAMnetsValid,2021.1.4,MacIntel,59.99880002,,,,,,,,,,,,,,,,,,,,,,,,,,,,,,,,,,,,,,,,,,,,,,,,,,,,,,,,,,,,,,,,,,,,,,,,,,,,,,,,,,,,,,,,,
,,6,3.75631,6,3.75631,0,45,45,13,1,26,tomato,yogurt,,90193,001,2022-04-28_19h36.05.417,SPAMnetsValid,2021.1.4,MacIntel,59.99880002,,,,,,,,,,,,,,,,,,,,,,,,,,,,,,,,,,,,,,,,,,,,,,,,,,,,,,,,,,,,,,,,,,,,,,,,,,,,,,,,,,,,,,,,,
,,1,2.44118,1,2.44118,0,46,46,89,1,80,chocolate,tree,,90193,001,2022-04-28_19h36.05.417,SPAMnetsValid,2021.1.4,MacIntel,59.99880002,,,,,,,,,,,,,,,,,,,,,,,,,,,,,,,,,,,,,,,,,,,,,,,,,,,,,,,,,,,,,,,,,,,,,,,,,,,,,,,,,,,,,,,,,
,,1,1.82262,1,1.82262,0,47,47,70,1,5,oven,tree,,90193,001,2022-04-28_19h36.05.417,SPAMnetsValid,2021.1.4,MacIntel,59.99880002,,,,,,,,,,,,,,,,,,,,,,,,,,,,,,,,,,,,,,,,,,,,,,,,,,,,,,,,,,,,,,,,,,,,,,,,,,,,,,,,,,,,,,,,,
,,6,3.97332,6,3.97332,0,48,48,3,1,49,flower,strawberry,,90193,001,2022-04-28_19h36.05.417,SPAMnetsValid,2021.1.4,MacIntel,59.99880002,,,,,,,,,,,,,,,,,,,,,,,,,,,,,,,,,,,,,,,,,,,,,,,,,,,,,,,,,,,,,,,,,,,,,,,,,,,,,,,,,,,,,,,,,
,,4,2.64137,4,2.64137,0,49,49,49,1,57,flower,kitchen,,90193,001,2022-04-28_19h36.05.417,SPAMnetsValid,2021.1.4,MacIntel,59.99880002,,,,,,,,,,,,,,,,,,,,,,,,,,,,,,,,,,,,,,,,,,,,,,,,,,,,,,,,,,,,,,,,,,,,,,,,,,,,,,,,,,,,,,,,,
,,3,2.591655,3,2.591655,0,50,50,81,1,60,cactus,onion,,90193,001,2022-04-28_19h36.05.417,SPAMnetsValid,2021.1.4,MacIntel,59.99880002,,,,,,,,,,,,,,,,,,,,,,,,,,,,,,,,,,,,,,,,,,,,,,,,,,,,,,,,,,,,,,,,,,,,,,,,,,,,,,,,,,,,,,,,,
,,3,1.772305,3,1.772305,0,51,51,7,1,34,melon,oven,,90193,001,2022-04-28_19h36.05.417,SPAMnetsValid,2021.1.4,MacIntel,59.99880002,,,,,,,,,,,,,,,,,,,,,,,,,,,,,,,,,,,,,,,,,,,,,,,,,,,,,,,,,,,,,,,,,,,,,,,,,,,,,,,,,,,,,,,,,
,,4,2.142265,4,2.142265,0,52,52,59,1,8,broom,melon,,90193,001,2022-04-28_19h36.05.417,SPAMnetsValid,2021.1.4,MacIntel,59.99880002,,,,,,,,,,,,,,,,,,,,,,,,,,,,,,,,,,,,,,,,,,,,,,,,,,,,,,,,,,,,,,,,,,,,,,,,,,,,,,,,,,,,,,,,,
,,9,1.691835,9,1.691835,0,53,53,10,1,191,cake,cake,CHECK,90193,001,2022-04-28_19h36.05.417,SPAMnetsValid,2021.1.4,MacIntel,59.99880002,,,,,,,,,,,,,,,,,,,,,,,,,,,,,,,,,,,,,,,,,,,,,,,,,,,,,,,,,,,,,,,,,,,,,,,,,,,,,,,,,,,,,,,,,
,,4,5.18951,4,5.18951,0,54,54,6,1,87,carrot,yogurt,,90193,001,2022-04-28_19h36.05.417,SPAMnetsValid,2021.1.4,MacIntel,59.99880002,,,,,,,,,,,,,,,,,,,,,,,,,,,,,,,,,,,,,,,,,,,,,,,,,,,,,,,,,,,,,,,,,,,,,,,,,,,,,,,,,,,,,,,,,
,,1,2.706,1,2.706,0,55,55,1,1,31,cactus,pretzel,,90193,001,2022-04-28_19h36.05.417,SPAMnetsValid,2021.1.4,MacIntel,59.99880002,,,,,,,,,,,,,,,,,,,,,,,,,,,,,,,,,,,,,,,,,,,,,,,,,,,,,,,,,,,,,,,,,,,,,,,,,,,,,,,,,,,,,,,,,
,,6,3.779005,6,3.779005,0,56,56,66,1,20,rose,tree,,90193,001,2022-04-28_19h36.05.417,SPAMnetsValid,2021.1.4,MacIntel,59.99880002,,,,,,,,,,,,,,,,,,,,,,,,,,,,,,,,,,,,,,,,,,,,,,,,,,,,,,,,,,,,,,,,,,,,,,,,,,,,,,,,,,,,,,,,,
,,7,2.3742,7,2.3742,0,57,57,51,1,47,onion,tomato,,90193,001,2022-04-28_19h36.05.417,SPAMnetsValid,2021.1.4,MacIntel,59.99880002,,,,,,,,,,,,,,,,,,,,,,,,,,,,,,,,,,,,,,,,,,,,,,,,,,,,,,,,,,,,,,,,,,,,,,,,,,,,,,,,,,,,,,,,,
,,1,1.73001,1,1.73001,0,58,58,18,1,85,cake,tree,,90193,001,2022-04-28_19h36.05.417,SPAMnetsValid,2021.1.4,MacIntel,59.99880002,,,,,,,,,,,,,,,,,,,,,,,,,,,,,,,,,,,,,,,,,,,,,,,,,,,,,,,,,,,,,,,,,,,,,,,,,,,,,,,,,,,,,,,,,
,,7,4.259145,7,4.259145,0,59,59,60,1,89,chocolate,rose,,90193,001,2022-04-28_19h36.05.417,SPAMnetsValid,2021.1.4,MacIntel,59.99880002,,,,,,,,,,,,,,,,,,,,,,,,,,,,,,,,,,,,,,,,,,,,,,,,,,,,,,,,,,,,,,,,,,,,,,,,,,,,,,,,,,,,,,,,,
,,7,1.981445,7,1.981445,0,60,60,87,1,79,garden,strawberry,,90193,001,2022-04-28_19h36.05.417,SPAMnetsValid,2021.1.4,MacIntel,59.99880002,,,,,,,,,,,,,,,,,,,,,,,,,,,,,,,,,,,,,,,,,,,,,,,,,,,,,,,,,,,,,,,,,,,,,,,,,,,,,,,,,,,,,,,,,
,,4,2.758295,4,2.758295,0,61,61,57,1,62,kitchen,rose,,90193,001,2022-04-28_19h36.05.417,SPAMnetsValid,2021.1.4,MacIntel,59.99880002,,,,,,,,,,,,,,,,,,,,,,,,,,,,,,,,,,,,,,,,,,,,,,,,,,,,,,,,,,,,,,,,,,,,,,,,,,,,,,,,,,,,,,,,,
,,8,1.805235,8,1.805235,0,62,62,64,1,9,kitchen,refrigerator,,90193,001,2022-04-28_19h36.05.417,SPAMnetsValid,2021.1.4,MacIntel,59.99880002,,,,,,,,,,,,,,,,,,,,,,,,,,,,,,,,,,,,,,,,,,,,,,,,,,,,,,,,,,,,,,,,,,,,,,,,,,,,,,,,,,,,,,,,,
,,1,6.611805,1,6.611805,0,63,63,85,1,90,cactus,cake,,90193,001,2022-04-28_19h36.05.417,SPAMnetsValid,2021.1.4,MacIntel,59.99880002,,,,,,,,,,,,,,,,,,,,,,,,,,,,,,,,,,,,,,,,,,,,,,,,,,,,,,,,,,,,,,,,,,,,,,,,,,,,,,,,,,,,,,,,,
,,1,4.41703,1,4.41703,0,64,64,88,1,92,broom,flower,,90193,001,2022-04-28_19h36.05.417,SPAMnetsValid,2021.1.4,MacIntel,59.99880002,,,,,,,,,,,,,,,,,,,,,,,,,,,,,,,,,,,,,,,,,,,,,,,,,,,,,,,,,,,,,,,,,,,,,,,,,,,,,,,,,,,,,,,,,
,,6,4.43946,6,4.43946,0,65,65,78,1,30,cookie,pretzel,,90193,001,2022-04-28_19h36.05.417,SPAMnetsValid,2021.1.4,MacIntel,59.99880002,,,,,,,,,,,,,,,,,,,,,,,,,,,,,,,,,,,,,,,,,,,,,,,,,,,,,,,,,,,,,,,,,,,,,,,,,,,,,,,,,,,,,,,,,
,,1,1.906305,1,1.906305,0,66,66,46,1,41,broom,cactus,,90193,001,2022-04-28_19h36.05.417,SPAMnetsValid,2021.1.4,MacIntel,59.99880002,,,,,,,,,,,,,,,,,,,,,,,,,,,,,,,,,,,,,,,,,,,,,,,,,,,,,,,,,,,,,,,,,,,,,,,,,,,,,,,,,,,,,,,,,
,,3,4.89674,3,4.89674,0,67,67,74,1,70,chocolate,onion,,90193,001,2022-04-28_19h36.05.417,SPAMnetsValid,2021.1.4,MacIntel,59.99880002,,,,,,,,,,,,,,,,,,,,,,,,,,,,,,,,,,,,,,,,,,,,,,,,,,,,,,,,,,,,,,,,,,,,,,,,,,,,,,,,,,,,,,,,,
,,3,2.678635,3,2.678635,0,68,68,38,1,88,cactus,melon,,90193,001,2022-04-28_19h36.05.417,SPAMnetsValid,2021.1.4,MacIntel,59.99880002,,,,,,,,,,,,,,,,,,,,,,,,,,,,,,,,,,,,,,,,,,,,,,,,,,,,,,,,,,,,,,,,,,,,,,,,,,,,,,,,,,,,,,,,,
,,1,1.82467,1,1.82467,0,69,69,61,1,71,broom,rose,,90193,001,2022-04-28_19h36.05.417,SPAMnetsValid,2021.1.4,MacIntel,59.99880002,,,,,,,,,,,,,,,,,,,,,,,,,,,,,,,,,,,,,,,,,,,,,,,,,,,,,,,,,,,,,,,,,,,,,,,,,,,,,,,,,,,,,,,,,
,,7,2.97677,7,2.97677,0,70,70,21,1,56,cactus,tree,,90193,001,2022-04-28_19h36.05.417,SPAMnetsValid,2021.1.4,MacIntel,59.99880002,,,,,,,,,,,,,,,,,,,,,,,,,,,,,,,,,,,,,,,,,,,,,,,,,,,,,,,,,,,,,,,,,,,,,,,,,,,,,,,,,,,,,,,,,
,,4,2.74027,4,2.74027,0,71,71,35,1,55,tomato,tree,,90193,001,2022-04-28_19h36.05.417,SPAMnetsValid,2021.1.4,MacIntel,59.99880002,,,,,,,,,,,,,,,,,,,,,,,,,,,,,,,,,,,,,,,,,,,,,,,,,,,,,,,,,,,,,,,,,,,,,,,,,,,,,,,,,,,,,,,,,
,,7,2.3253,7,2.3253,0,72,72,44,1,25,carrot,onion,,90193,001,2022-04-28_19h36.05.417,SPAMnetsValid,2021.1.4,MacIntel,59.99880002,,,,,,,,,,,,,,,,,,,,,,,,,,,,,,,,,,,,,,,,,,,,,,,,,,,,,,,,,,,,,,,,,,,,,,,,,,,,,,,,,,,,,,,,,
,,2,4.146075,2,4.146075,0,73,73,17,1,27,cactus,cookie,,90193,001,2022-04-28_19h36.05.417,SPAMnetsValid,2021.1.4,MacIntel,59.99880002,,,,,,,,,,,,,,,,,,,,,,,,,,,,,,,,,,,,,,,,,,,,,,,,,,,,,,,,,,,,,,,,,,,,,,,,,,,,,,,,,,,,,,,,,
,,4,4.591575,4,4.591575,0,74,74,50,1,81,pretzel,yogurt,,90193,001,2022-04-28_19h36.05.417,SPAMnetsValid,2021.1.4,MacIntel,59.99880002,,,,,,,,,,,,,,,,,,,,,,,,,,,,,,,,,,,,,,,,,,,,,,,,,,,,,,,,,,,,,,,,,,,,,,,,,,,,,,,,,,,,,,,,,
,,1,2.04545,1,2.04545,0,75,75,43,1,11,refrigerator,tree,,90193,001,2022-04-28_19h36.05.417,SPAMnetsValid,2021.1.4,MacIntel,59.99880002,,,,,,,,,,,,,,,,,,,,,,,,,,,,,,,,,,,,,,,,,,,,,,,,,,,,,,,,,,,,,,,,,,,,,,,,,,,,,,,,,,,,,,,,,
,,1,3.4555,1,3.4555,0,76,76,15,1,48,flower,oven,,90193,001,2022-04-28_19h36.05.417,SPAMnetsValid,2021.1.4,MacIntel,59.99880002,,,,,,,,,,,,,,,,,,,,,,,,,,,,,,,,,,,,,,,,,,,,,,,,,,,,,,,,,,,,,,,,,,,,,,,,,,,,,,,,,,,,,,,,,
,,7,1.80558,7,1.80558,0,77,77,22,1,16,chocolate,flower,,90193,001,2022-04-28_19h36.05.417,SPAMnetsValid,2021.1.4,MacIntel,59.99880002,,,,,,,,,,,,,,,,,,,,,,,,,,,,,,,,,,,,,,,,,,,,,,,,,,,,,,,,,,,,,,,,,,,,,,,,,,,,,,,,,,,,,,,,,
,,7,3.639775,7,3.639775,0,78,78,41,1,19,microwave,pretzel,,90193,001,2022-04-28_19h36.05.417,SPAMnetsValid,2021.1.4,MacIntel,59.99880002,,,,,,,,,,,,,,,,,,,,,,,,,,,,,,,,,,,,,,,,,,,,,,,,,,,,,,,,,,,,,,,,,,,,,,,,,,,,,,,,,,,,,,,,,
,,8,2.361985,8,2.361985,0,79,79,58,1,94,kitchen,microwave,,90193,001,2022-04-28_19h36.05.417,SPAMnetsValid,2021.1.4,MacIntel,59.99880002,,,,,,,,,,,,,,,,,,,,,,,,,,,,,,,,,,,,,,,,,,,,,,,,,,,,,,,,,,,,,,,,,,,,,,,,,,,,,,,,,,,,,,,,,
,,3,2.189535,3,2.189535,0,80,80,86,1,51,onion,strawberry,,90193,001,2022-04-28_19h36.05.417,SPAMnetsValid,2021.1.4,MacIntel,59.99880002,,,,,,,,,,,,,,,,,,,,,,,,,,,,,,,,,,,,,,,,,,,,,,,,,,,,,,,,,,,,,,,,,,,,,,,,,,,,,,,,,,,,,,,,,
,,8,2.137875,8,2.137875,0,81,81,42,1,77,refrigerator,yogurt,,90193,001,2022-04-28_19h36.05.417,SPAMnetsValid,2021.1.4,MacIntel,59.99880002,,,,,,,,,,,,,,,,,,,,,,,,,,,,,,,,,,,,,,,,,,,,,,,,,,,,,,,,,,,,,,,,,,,,,,,,,,,,,,,,,,,,,,,,,
,,2,4.70785,2,4.70785,0,82,82,26,1,35,flower,pretzel,,90193,001,2022-04-28_19h36.05.417,SPAMnetsValid,2021.1.4,MacIntel,59.99880002,,,,,,,,,,,,,,,,,,,,,,,,,,,,,,,,,,,,,,,,,,,,,,,,,,,,,,,,,,,,,,,,,,,,,,,,,,,,,,,,,,,,,,,,,
,,2,2.422885,2,2.422885,0,83,83,76,1,36,broom,kitchen,,90193,001,2022-04-28_19h36.05.417,SPAMnetsValid,2021.1.4,MacIntel,59.99880002,,,,,,,,,,,,,,,,,,,,,,,,,,,,,,,,,,,,,,,,,,,,,,,,,,,,,,,,,,,,,,,,,,,,,,,,,,,,,,,,,,,,,,,,,
,,2,1.905655,2,1.905655,0,84,84,27,1,72,broom,onion,,90193,001,2022-04-28_19h36.05.417,SPAMnetsValid,2021.1.4,MacIntel,59.99880002,,,,,,,,,,,,,,,,,,,,,,,,,,,,,,,,,,,,,,,,,,,,,,,,,,,,,,,,,,,,,,,,,,,,,,,,,,,,,,,,,,,,,,,,,
,,7,2.79125,7,2.79125,0,85,85,80,1,61,strawberry,tomato,,90193,001,2022-04-28_19h36.05.417,SPAMnetsValid,2021.1.4,MacIntel,59.99880002,,,,,,,,,,,,,,,,,,,,,,,,,,,,,,,,,,,,,,,,,,,,,,,,,,,,,,,,,,,,,,,,,,,,,,,,,,,,,,,,,,,,,,,,,
,,2,2.039335,2,2.039335,0,86,86,0,1,53,garden,pretzel,,90193,001,2022-04-28_19h36.05.417,SPAMnetsValid,2021.1.4,MacIntel,59.99880002,,,,,,,,,,,,,,,,,,,,,,,,,,,,,,,,,,,,,,,,,,,,,,,,,,,,,,,,,,,,,,,,,,,,,,,,,,,,,,,,,,,,,,,,,
,,1,1.565335,1,1.565335,0,87,87,65,1,46,garden,yogurt,,90193,001,2022-04-28_19h36.05.417,SPAMnetsValid,2021.1.4,MacIntel,59.99880002,,,,,,,,,,,,,,,,,,,,,,,,,,,,,,,,,,,,,,,,,,,,,,,,,,,,,,,,,,,,,,,,,,,,,,,,,,,,,,,,,,,,,,,,,
,,4,3.22665,4,3.22665,0,88,88,77,1,7,melon,tree,,90193,001,2022-04-28_19h36.05.417,SPAMnetsValid,2021.1.4,MacIntel,59.99880002,,,,,,,,,,,,,,,,,,,,,,,,,,,,,,,,,,,,,,,,,,,,,,,,,,,,,,,,,,,,,,,,,,,,,,,,,,,,,,,,,,,,,,,,,
,,3,2.06254,3,2.06254,0,89,89,45,1,10,flower,onion,,90193,001,2022-04-28_19h36.05.417,SPAMnetsValid,2021.1.4,MacIntel,59.99880002,,,,,,,,,,,,,,,,,,,,,,,,,,,,,,,,,,,,,,,,,,,,,,,,,,,,,,,,,,,,,,,,,,,,,,,,,,,,,,,,,,,,,,,,,
,,4,2.84683,4,2.84683,0,90,90,54,1,28,cake,melon,,90193,001,2022-04-28_19h36.05.417,SPAMnetsValid,2021.1.4,MacIntel,59.99880002,,,,,,,,,,,,,,,,,,,,,,,,,,,,,,,,,,,,,,,,,,,,,,,,,,,,,,,,,,,,,,,,,,,,,,,,,,,,,,,,,,,,,,,,,
,,6,2.79649,6,2.79649,0,91,91,40,1,74,broom,pretzel,,90193,001,2022-04-28_19h36.05.417,SPAMnetsValid,2021.1.4,MacIntel,59.99880002,,,,,,,,,,,,,,,,,,,,,,,,,,,,,,,,,,,,,,,,,,,,,,,,,,,,,,,,,,,,,,,,,,,,,,,,,,,,,,,,,,,,,,,,,
,,2,2.47389,2,2.47389,0,92,92,79,1,86,oven,rose,,90193,001,2022-04-28_19h36.05.417,SPAMnetsValid,2021.1.4,MacIntel,59.99880002,,,,,,,,,,,,,,,,,,,,,,,,,,,,,,,,,,,,,,,,,,,,,,,,,,,,,,,,,,,,,,,,,,,,,,,,,,,,,,,,,,,,,,,,,
,,7,2.622765,7,2.622765,0,93,93,62,1,18,onion,refrigerator,,90193,001,2022-04-28_19h36.05.417,SPAMnetsValid,2021.1.4,MacIntel,59.99880002,,,,,,,,,,,,,,,,,,,,,,,,,,,,,,,,,,,,,,,,,,,,,,,,,,,,,,,,,,,,,,,,,,,,,,,,,,,,,,,,,,,,,,,,,
,,8,2.627155,8,2.627155,0,94,94,93,1,63,cake,cookie,,90193,001,2022-04-28_19h36.05.417,SPAMnetsValid,2021.1.4,MacIntel,59.99880002,,,,,,,,,,,,,,,,,,,,,,,,,,,,,,,,,,,,,,,,,,,,,,,,,,,,,,,,,,,,,,,,,,,,,,,,,,,,,,,,,,,,,,,,,
,,2,3.53076,2,3.53076,0,95,95,5,1,13,broom,yogurt,,90193,001,2022-04-28_19h36.05.417,SPAMnetsValid,2021.1.4,MacIntel,59.99880002,,,,,,,,,,,,,,,,,,,,,,,,,,,,,,,,,,,,,,,,,,,,,,,,,,,,,,,,,,,,,,,,,,,,,,,,,,,,,,,,,,,,,,,,,
,,3,13.640735,3,13.640735,0,96,96,8,1,43,chocolate,tomato,,90193,001,2022-04-28_19h36.05.417,SPAMnetsValid,2021.1.4,MacIntel,59.99880002,,,,,,,,,,,,,,,,,,,,,,,,,,,,,,,,,,,,,,,,,,,,,,,,,,,,,,,,,,,,,,,,,,,,,,,,,,,,,,,,,,,,,,,,,
,,,,,,,,,,,,,,,90193,001,2022-04-28_19h36.05.417,SPAMnetsValid,2021.1.4,MacIntel,59.99880002,0,0,0,0,1,,,,,,,,,,,,,,,,,,,,,,,,,,,,,,,,,,,,,,,,,,,,,,,,,,,,,,,,,,,,,,,,,,,,,,,,,,,,,,,,,,,,
,,,,,,,,,,,,,,,90193,001,2022-04-28_19h36.05.417,SPAMnetsValid,2021.1.4,MacIntel,59.99880002,,,,,,0,0,0,0,1,1,0,,,,,,,,,,,,,,,,,,,,,,,,,,,,,,,,,,,,,,,,,,,,,,,,,,,,,,,,,,,,,,,,,,,,,,,,,,,,,
,,,,3,5.17815,,,,,,141,melon,tomato,,90193,001,2022-04-28_19h36.05.417,SPAMnetsValid,2021.1.4,MacIntel,59.99880002,,,,,,,,,,,,,3,5.17815,0,0,0,70,1,,,,,,,,,,,,,,,,,,,,,,,,,,,,,,,,,,,,,,,,,,,,,,,,,,,,,,,,,,,,,,,,,,,,,,
,,,,2,2.55562,,,,,,111,carrot,microwave,,90193,001,2022-04-28_19h36.05.417,SPAMnetsValid,2021.1.4,MacIntel,59.99880002,,,,,,,,,,,,,2,2.55562,0,1,1,16,1,,,,,,,,,,,,,,,,,,,,,,,,,,,,,,,,,,,,,,,,,,,,,,,,,,,,,,,,,,,,,,,,,,,,,,
,,,,6,1.557895,,,,,,160,cookie,kitchen,,90193,001,2022-04-28_19h36.05.417,SPAMnetsValid,2021.1.4,MacIntel,59.99880002,,,,,,,,,,,,,6,1.557895,0,2,2,65,1,,,,,,,,,,,,,,,,,,,,,,,,,,,,,,,,,,,,,,,,,,,,,,,,,,,,,,,,,,,,,,,,,,,,,,
,,,,7,1.295305,,,,,,161,kitchen,pretzel,,90193,001,2022-04-28_19h36.05.417,SPAMnetsValid,2021.1.4,MacIntel,59.99880002,,,,,,,,,,,,,7,1.295305,0,3,3,36,1,,,,,,,,,,,,,,,,,,,,,,,,,,,,,,,,,,,,,,,,,,,,,,,,,,,,,,,,,,,,,,,,,,,,,,
,,,,7,1.7396,,,,,,188,flower,tree,,90193,001,2022-04-28_19h36.05.417,SPAMnetsValid,2021.1.4,MacIntel,59.99880002,,,,,,,,,,,,,7,1.7396,0,4,4,7,1,,,,,,,,,,,,,,,,,,,,,,,,,,,,,,,,,,,,,,,,,,,,,,,,,,,,,,,,,,,,,,,,,,,,,,
,,,,3,2.25822,,,,,,175,melon,onion,,90193,001,2022-04-28_19h36.05.417,SPAMnetsValid,2021.1.4,MacIntel,59.99880002,,,,,,,,,,,,,3,2.25822,0,5,5,41,1,,,,,,,,,,,,,,,,,,,,,,,,,,,,,,,,,,,,,,,,,,,,,,,,,,,,,,,,,,,,,,,,,,,,,,
,,,,2,1.564775,,,,,,149,broom,tomato,,90193,001,2022-04-28_19h36.05.417,SPAMnetsValid,2021.1.4,MacIntel,59.99880002,,,,,,,,,,,,,2,1.564775,0,6,6,20,1,,,,,,,,,,,,,,,,,,,,,,,,,,,,,,,,,,,,,,,,,,,,,,,,,,,,,,,,,,,,,,,,,,,,,,
,,,,3,1.973135,,,,,,174,cake,pretzel,,90193,001,2022-04-28_19h36.05.417,SPAMnetsValid,2021.1.4,MacIntel,59.99880002,,,,,,,,,,,,,3,1.973135,0,7,7,2,1,,,,,,,,,,,,,,,,,,,,,,,,,,,,,,,,,,,,,,,,,,,,,,,,,,,,,,,,,,,,,,,,,,,,,,
,,,,4,2.774265,,,,,,168,cactus,flower,,90193,001,2022-04-28_19h36.05.417,SPAMnetsValid,2021.1.4,MacIntel,59.99880002,,,,,,,,,,,,,4,2.774265,0,8,8,51,1,,,,,,,,,,,,,,,,,,,,,,,,,,,,,,,,,,,,,,,,,,,,,,,,,,,,,,,,,,,,,,,,,,,,,,
,,,,6,2.21207,,,,,,102,chocolate,refrigerator,,90193,001,2022-04-28_19h36.05.417,SPAMnetsValid,2021.1.4,MacIntel,59.99880002,,,,,,,,,,,,,6,2.21207,0,9,9,76,1,,,,,,,,,,,,,,,,,,,,,,,,,,,,,,,,,,,,,,,,,,,,,,,,,,,,,,,,,,,,,,,,,,,,,,
,,,,6,2.41473,,,,,,131,cactus,garden,,90193,001,2022-04-28_19h36.05.417,SPAMnetsValid,2021.1.4,MacIntel,59.99880002,,,,,,,,,,,,,6,2.41473,0,10,10,33,1,,,,,,,,,,,,,,,,,,,,,,,,,,,,,,,,,,,,,,,,,,,,,,,,,,,,,,,,,,,,,,,,,,,,,,
,,,,3,2.341065,,,,,,146,pretzel,tree,,90193,001,2022-04-28_19h36.05.417,SPAMnetsValid,2021.1.4,MacIntel,59.99880002,,,,,,,,,,,,,3,2.341065,0,11,11,80,1,,,,,,,,,,,,,,,,,,,,,,,,,,,,,,,,,,,,,,,,,,,,,,,,,,,,,,,,,,,,,,,,,,,,,,
,,,,2,1.740155,,,,,,143,pretzel,rose,,90193,001,2022-04-28_19h36.05.417,SPAMnetsValid,2021.1.4,MacIntel,59.99880002,,,,,,,,,,,,,2,1.740155,0,12,12,55,1,,,,,,,,,,,,,,,,,,,,,,,,,,,,,,,,,,,,,,,,,,,,,,,,,,,,,,,,,,,,,,,,,,,,,,
,,,,2,2.173585,,,,,,151,microwave,onion,,90193,001,2022-04-28_19h36.05.417,SPAMnetsValid,2021.1.4,MacIntel,59.99880002,,,,,,,,,,,,,2,2.173585,0,13,13,6,1,,,,,,,,,,,,,,,,,,,,,,,,,,,,,,,,,,,,,,,,,,,,,,,,,,,,,,,,,,,,,,,,,,,,,,
,,,,4,6.66172,,,,,,183,cake,rose,,90193,001,2022-04-28_19h36.05.417,SPAMnetsValid,2021.1.4,MacIntel,59.99880002,,,,,,,,,,,,,4,6.66172,0,14,14,19,1,,,,,,,,,,,,,,,,,,,,,,,,,,,,,,,,,,,,,,,,,,,,,,,,,,,,,,,,,,,,,,,,,,,,,,
,,,,1,2.9577,,,,,,126,kitchen,tree,,90193,001,2022-04-28_19h36.05.417,SPAMnetsValid,2021.1.4,MacIntel,59.99880002,,,,,,,,,,,,,1,2.9577,0,15,15,50,1,,,,,,,,,,,,,,,,,,,,,,,,,,,,,,,,,,,,,,,,,,,,,,,,,,,,,,,,,,,,,,,,,,,,,,
,,,,2,2.754055,,,,,,129,cactus,refrigerator,,90193,001,2022-04-28_19h36.05.417,SPAMnetsValid,2021.1.4,MacIntel,59.99880002,,,,,,,,,,,,,2,2.754055,0,16,16,3,1,,,,,,,,,,,,,,,,,,,,,,,,,,,,,,,,,,,,,,,,,,,,,,,,,,,,,,,,,,,,,,,,,,,,,,
,,,,2,1.47968,,,,,,121,broom,microwave,,90193,001,2022-04-28_19h36.05.417,SPAMnetsValid,2021.1.4,MacIntel,59.99880002,,,,,,,,,,,,,2,1.47968,0,17,17,95,1,,,,,,,,,,,,,,,,,,,,,,,,,,,,,,,,,,,,,,,,,,,,,,,,,,,,,,,,,,,,,,,,,,,,,,
,,,,6,2.009195,,,,,,115,refrigerator,tomato,,90193,001,2022-04-28_19h36.05.417,SPAMnetsValid,2021.1.4,MacIntel,59.99880002,,,,,,,,,,,,,6,2.009195,0,18,18,85,1,,,,,,,,,,,,,,,,,,,,,,,,,,,,,,,,,,,,,,,,,,,,,,,,,,,,,,,,,,,,,,,,,,,,,,
,,,,6,2.172495,,,,,,113,refrigerator,strawberry,,90193,001,2022-04-28_19h36.05.417,SPAMnetsValid,2021.1.4,MacIntel,59.99880002,,,,,,,,,,,,,6,2.172495,0,19,19,56,1,,,,,,,,,,,,,,,,,,,,,,,,,,,,,,,,,,,,,,,,,,,,,,,,,,,,,,,,,,,,,,,,,,,,,,
,,,,6,1.87253,,,,,,97,chocolate,kitchen,,90193,001,2022-04-28_19h36.05.417,SPAMnetsValid,2021.1.4,MacIntel,59.99880002,,,,,,,,,,,,,6,1.87253,0,20,20,8,1,,,,,,,,,,,,,,,,,,,,,,,,,,,,,,,,,,,,,,,,,,,,,,,,,,,,,,,,,,,,,,,,,,,,,,
,,,,3,1.39216,,,,,,101,cactus,kitchen,,90193,001,2022-04-28_19h36.05.417,SPAMnetsValid,2021.1.4,MacIntel,59.99880002,,,,,,,,,,,,,3,1.39216,0,21,21,54,1,,,,,,,,,,,,,,,,,,,,,,,,,,,,,,,,,,,,,,,,,,,,,,,,,,,,,,,,,,,,,,,,,,,,,,
,,,,9,1.773115,,,,,,194,cactus,cactus,CHECK,90193,001,2022-04-28_19h36.05.417,SPAMnetsValid,2021.1.4,MacIntel,59.99880002,,,,,,,,,,,,,9,1.773115,0,22,22,25,1,,,,,,,,,,,,,,,,,,,,,,,,,,,,,,,,,,,,,,,,,,,,,,,,,,,,,,,,,,,,,,,,,,,,,,
,,,,3,5.657685,,,,,,123,cookie,tree,,90193,001,2022-04-28_19h36.05.417,SPAMnetsValid,2021.1.4,MacIntel,59.99880002,,,,,,,,,,,,,3,5.657685,0,23,23,46,1,,,,,,,,,,,,,,,,,,,,,,,,,,,,,,,,,,,,,,,,,,,,,,,,,,,,,,,,,,,,,,,,,,,,,,
,,,,7,1.749315,,,,,,167,carrot,garden,,90193,001,2022-04-28_19h36.05.417,SPAMnetsValid,2021.1.4,MacIntel,59.99880002,,,,,,,,,,,,,7,1.749315,0,24,24,47,1,,,,,,,,,,,,,,,,,,,,,,,,,,,,,,,,,,,,,,,,,,,,,,,,,,,,,,,,,,,,,,,,,,,,,,
,,,,6,1.62768,,,,,,163,melon,refrigerator,,90193,001,2022-04-28_19h36.05.417,SPAMnetsValid,2021.1.4,MacIntel,59.99880002,,,,,,,,,,,,,6,1.62768,0,25,25,29,1,,,,,,,,,,,,,,,,,,,,,,,,,,,,,,,,,,,,,,,,,,,,,,,,,,,,,,,,,,,,,,,,,,,,,,
,,,,2,1.612445,,,,,,104,garden,microwave,,90193,001,2022-04-28_19h36.05.417,SPAMnetsValid,2021.1.4,MacIntel,59.99880002,,,,,,,,,,,,,2,1.612445,0,26,26,81,1,,,,,,,,,,,,,,,,,,,,,,,,,,,,,,,,,,,,,,,,,,,,,,,,,,,,,,,,,,,,,,,,,,,,,,
,,,,1,2.963835,,,,,,133,cake,flower,,90193,001,2022-04-28_19h36.05.417,SPAMnetsValid,2021.1.4,MacIntel,59.99880002,,,,,,,,,,,,,1,2.963835,0,27,27,94,1,,,,,,,,,,,,,,,,,,,,,,,,,,,,,,,,,,,,,,,,,,,,,,,,,,,,,,,,,,,,,,,,,,,,,,
,,,,8,2.774165,,,,,,122,flower,garden,,90193,001,2022-04-28_19h36.05.417,SPAMnetsValid,2021.1.4,MacIntel,59.99880002,,,,,,,,,,,,,8,2.774165,0,28,28,60,1,,,,,,,,,,,,,,,,,,,,,,,,,,,,,,,,,,,,,,,,,,,,,,,,,,,,,,,,,,,,,,,,,,,,,,
,,,,6,1.372285,,,,,,172,kitchen,melon,,90193,001,2022-04-28_19h36.05.417,SPAMnetsValid,2021.1.4,MacIntel,59.99880002,,,,,,,,,,,,,6,1.372285,0,29,29,77,1,,,,,,,,,,,,,,,,,,,,,,,,,,,,,,,,,,,,,,,,,,,,,,,,,,,,,,,,,,,,,,,,,,,,,,
,,,,3,1.90707,,,,,,134,carrot,flower,,90193,001,2022-04-28_19h36.05.417,SPAMnetsValid,2021.1.4,MacIntel,59.99880002,,,,,,,,,,,,,3,1.90707,0,30,30,93,1,,,,,,,,,,,,,,,,,,,,,,,,,,,,,,,,,,,,,,,,,,,,,,,,,,,,,,,,,,,,,,,,,,,,,,
,,,,8,2.63717,,,,,,124,oven,refrigerator,,90193,001,2022-04-28_19h36.05.417,SPAMnetsValid,2021.1.4,MacIntel,59.99880002,,,,,,,,,,,,,8,2.63717,0,31,31,69,1,,,,,,,,,,,,,,,,,,,,,,,,,,,,,,,,,,,,,,,,,,,,,,,,,,,,,,,,,,,,,,,,,,,,,,
,,,,7,2.04268,,,,,,142,garden,tree,,90193,001,2022-04-28_19h36.05.417,SPAMnetsValid,2021.1.4,MacIntel,59.99880002,,,,,,,,,,,,,7,2.04268,0,32,32,22,1,,,,,,,,,,,,,,,,,,,,,,,,,,,,,,,,,,,,,,,,,,,,,,,,,,,,,,,,,,,,,,,,,,,,,,
,,,,2,2.708125,,,,,,130,microwave,yogurt,,90193,001,2022-04-28_19h36.05.417,SPAMnetsValid,2021.1.4,MacIntel,59.99880002,,,,,,,,,,,,,2,2.708125,0,33,33,84,1,,,,,,,,,,,,,,,,,,,,,,,,,,,,,,,,,,,,,,,,,,,,,,,,,,,,,,,,,,,,,,,,,,,,,,
,,,,3,2.224925,,,,,,136,chocolate,microwave,,90193,001,2022-04-28_19h36.05.417,SPAMnetsValid,2021.1.4,MacIntel,59.99880002,,,,,,,,,,,,,3,2.224925,0,34,34,96,1,,,,,,,,,,,,,,,,,,,,,,,,,,,,,,,,,,,,,,,,,,,,,,,,,,,,,,,,,,,,,,,,,,,,,,
,,,,2,4.42686,,,,,,182,flower,refrigerator,,90193,001,2022-04-28_19h36.05.417,SPAMnetsValid,2021.1.4,MacIntel,59.99880002,,,,,,,,,,,,,2,4.42686,0,35,35,32,1,,,,,,,,,,,,,,,,,,,,,,,,,,,,,,,,,,,,,,,,,,,,,,,,,,,,,,,,,,,,,,,,,,,,,,
,,,,6,3.2432,,,,,,114,cookie,strawberry,,90193,001,2022-04-28_19h36.05.417,SPAMnetsValid,2021.1.4,MacIntel,59.99880002,,,,,,,,,,,,,6,3.2432,0,36,36,87,1,,,,,,,,,,,,,,,,,,,,,,,,,,,,,,,,,,,,,,,,,,,,,,,,,,,,,,,,,,,,,,,,,,,,,,
,,,,6,1.759185,,,,,,147,cake,refrigerator,,90193,001,2022-04-28_19h36.05.417,SPAMnetsValid,2021.1.4,MacIntel,59.99880002,,,,,,,,,,,,,6,1.759185,0,37,37,35,1,,,,,,,,,,,,,,,,,,,,,,,,,,,,,,,,,,,,,,,,,,,,,,,,,,,,,,,,,,,,,,,,,,,,,,
,,,,3,2.77888,,,,,,178,cactus,carrot,,90193,001,2022-04-28_19h36.05.417,SPAMnetsValid,2021.1.4,MacIntel,59.99880002,,,,,,,,,,,,,3,2.77888,0,38,38,75,1,,,,,,,,,,,,,,,,,,,,,,,,,,,,,,,,,,,,,,,,,,,,,,,,,,,,,,,,,,,,,,,,,,,,,,
,,,,7,2.19079,,,,,,106,cake,strawberry,,90193,001,2022-04-28_19h36.05.417,SPAMnetsValid,2021.1.4,MacIntel,59.99880002,,,,,,,,,,,,,7,2.19079,0,39,39,0,1,,,,,,,,,,,,,,,,,,,,,,,,,,,,,,,,,,,,,,,,,,,,,,,,,,,,,,,,,,,,,,,,,,,,,,
,,,,8,1.78039,,,,,,138,flower,rose,,90193,001,2022-04-28_19h36.05.417,SPAMnetsValid,2021.1.4,MacIntel,59.99880002,,,,,,,,,,,,,8,1.78039,0,40,40,61,1,,,,,,,,,,,,,,,,,,,,,,,,,,,,,,,,,,,,,,,,,,,,,,,,,,,,,,,,,,,,,,,,,,,,,,
,,,,6,3.05585,,,,,,152,cactus,strawberry,,90193,001,2022-04-28_19h36.05.417,SPAMnetsValid,2021.1.4,MacIntel,59.99880002,,,,,,,,,,,,,6,3.05585,0,41,41,49,1,,,,,,,,,,,,,,,,,,,,,,,,,,,,,,,,,,,,,,,,,,,,,,,,,,,,,,,,,,,,,,,,,,,,,,
,,,,1,1.95799,,,,,,137,microwave,tree,,90193,001,2022-04-28_19h36.05.417,SPAMnetsValid,2021.1.4,MacIntel,59.99880002,,,,,,,,,,,,,1,1.95799,0,42,42,63,1,,,,,,,,,,,,,,,,,,,,,,,,,,,,,,,,,,,,,,,,,,,,,,,,,,,,,,,,,,,,,,,,,,,,,,
,,,,7,1.82803,,,,,,186,kitchen,yogurt,,90193,001,2022-04-28_19h36.05.417,SPAMnetsValid,2021.1.4,MacIntel,59.99880002,,,,,,,,,,,,,7,1.82803,0,43,43,48,1,,,,,,,,,,,,,,,,,,,,,,,,,,,,,,,,,,,,,,,,,,,,,,,,,,,,,,,,,,,,,,,,,,,,,,
,,,,4,1.606475,,,,,,176,cactus,tomato,,90193,001,2022-04-28_19h36.05.417,SPAMnetsValid,2021.1.4,MacIntel,59.99880002,,,,,,,,,,,,,4,1.606475,0,44,44,9,1,,,,,,,,,,,,,,,,,,,,,,,,,,,,,,,,,,,,,,,,,,,,,,,,,,,,,,,,,,,,,,,,,,,,,,
,,,,7,4.423605,,,,,,184,oven,pretzel,,90193,001,2022-04-28_19h36.05.417,SPAMnetsValid,2021.1.4,MacIntel,59.99880002,,,,,,,,,,,,,7,4.423605,0,45,45,42,1,,,,,,,,,,,,,,,,,,,,,,,,,,,,,,,,,,,,,,,,,,,,,,,,,,,,,,,,,,,,,,,,,,,,,,
,,,,1,2.637585,,,,,,103,pretzel,tomato,,90193,001,2022-04-28_19h36.05.417,SPAMnetsValid,2021.1.4,MacIntel,59.99880002,,,,,,,,,,,,,1,2.637585,0,46,46,79,1,,,,,,,,,,,,,,,,,,,,,,,,,,,,,,,,,,,,,,,,,,,,,,,,,,,,,,,,,,,,,,,,,,,,,,
,,,,3,2.00958,,,,,,125,carrot,tree,,90193,001,2022-04-28_19h36.05.417,SPAMnetsValid,2021.1.4,MacIntel,59.99880002,,,,,,,,,,,,,3,2.00958,0,47,47,30,1,,,,,,,,,,,,,,,,,,,,,,,,,,,,,,,,,,,,,,,,,,,,,,,,,,,,,,,,,,,,,,,,,,,,,,
,,,,7,1.741615,,,,,,181,carrot,kitchen,,90193,001,2022-04-28_19h36.05.417,SPAMnetsValid,2021.1.4,MacIntel,59.99880002,,,,,,,,,,,,,7,1.741615,0,48,48,72,1,,,,,,,,,,,,,,,,,,,,,,,,,,,,,,,,,,,,,,,,,,,,,,,,,,,,,,,,,,,,,,,,,,,,,,
,,,,4,3.10585,,,,,,171,cake,tomato,,90193,001,2022-04-28_19h36.05.417,SPAMnetsValid,2021.1.4,MacIntel,59.99880002,,,,,,,,,,,,,4,3.10585,0,49,49,88,1,,,,,,,,,,,,,,,,,,,,,,,,,,,,,,,,,,,,,,,,,,,,,,,,,,,,,,,,,,,,,,,,,,,,,,
,,,,3,1.873795,,,,,,108,carrot,chocolate,,90193,001,2022-04-28_19h36.05.417,SPAMnetsValid,2021.1.4,MacIntel,59.99880002,,,,,,,,,,,,,3,1.873795,0,50,50,5,1,,,,,,,,,,,,,,,,,,,,,,,,,,,,,,,,,,,,,,,,,,,,,,,,,,,,,,,,,,,,,,,,,,,,,,
,,,,1,3.04159,,,,,,127,cactus,chocolate,,90193,001,2022-04-28_19h36.05.417,SPAMnetsValid,2021.1.4,MacIntel,59.99880002,,,,,,,,,,,,,1,3.04159,0,51,51,57,1,,,,,,,,,,,,,,,,,,,,,,,,,,,,,,,,,,,,,,,,,,,,,,,,,,,,,,,,,,,,,,,,,,,,,,
,,,,6,4.34861,,,,,,118,chocolate,oven,,90193,001,2022-04-28_19h36.05.417,SPAMnetsValid,2021.1.4,MacIntel,59.99880002,,,,,,,,,,,,,6,4.34861,0,52,52,10,1,,,,,,,,,,,,,,,,,,,,,,,,,,,,,,,,,,,,,,,,,,,,,,,,,,,,,,,,,,,,,,,,,,,,,,
,,,,3,2.70762,,,,,,189,onion,tree,,90193,001,2022-04-28_19h36.05.417,SPAMnetsValid,2021.1.4,MacIntel,59.99880002,,,,,,,,,,,,,3,2.70762,0,53,53,62,1,,,,,,,,,,,,,,,,,,,,,,,,,,,,,,,,,,,,,,,,,,,,,,,,,,,,,,,,,,,,,,,,,,,,,,
,,,,1,1.871855,,,,,,132,broom,tree,,90193,001,2022-04-28_19h36.05.417,SPAMnetsValid,2021.1.4,MacIntel,59.99880002,,,,,,,,,,,,,1,1.871855,0,54,54,78,1,,,,,,,,,,,,,,,,,,,,,,,,,,,,,,,,,,,,,,,,,,,,,,,,,,,,,,,,,,,,,,,,,,,,,,
,,,,4,2.489625,,,,,,162,microwave,tomato,,90193,001,2022-04-28_19h36.05.417,SPAMnetsValid,2021.1.4,MacIntel,59.99880002,,,,,,,,,,,,,4,2.489625,0,55,55,12,1,,,,,,,,,,,,,,,,,,,,,,,,,,,,,,,,,,,,,,,,,,,,,,,,,,,,,,,,,,,,,,,,,,,,,,
,,,,7,2.559085,,,,,,116,cake,chocolate,,90193,001,2022-04-28_19h36.05.417,SPAMnetsValid,2021.1.4,MacIntel,59.99880002,,,,,,,,,,,,,7,2.559085,0,56,56,44,1,,,,,,,,,,,,,,,,,,,,,,,,,,,,,,,,,,,,,,,,,,,,,,,,,,,,,,,,,,,,,,,,,,,,,,
,,,,4,4.04792,,,,,,107,rose,tomato,,90193,001,2022-04-28_19h36.05.417,SPAMnetsValid,2021.1.4,MacIntel,59.99880002,,,,,,,,,,,,,4,4.04792,0,57,57,26,1,,,,,,,,,,,,,,,,,,,,,,,,,,,,,,,,,,,,,,,,,,,,,,,,,,,,,,,,,,,,,,,,,,,,,,
,,,,4,1.60633,,,,,,148,flower,melon,,90193,001,2022-04-28_19h36.05.417,SPAMnetsValid,2021.1.4,MacIntel,59.99880002,,,,,,,,,,,,,4,1.60633,0,58,58,23,1,,,,,,,,,,,,,,,,,,,,,,,,,,,,,,,,,,,,,,,,,,,,,,,,,,,,,,,,,,,,,,,,,,,,,,
,,,,4,1.922875,,,,,,119,strawberry,tree,,90193,001,2022-04-28_19h36.05.417,SPAMnetsValid,2021.1.4,MacIntel,59.99880002,,,,,,,,,,,,,4,1.922875,0,59,59,18,1,,,,,,,,,,,,,,,,,,,,,,,,,,,,,,,,,,,,,,,,,,,,,,,,,,,,,,,,,,,,,,,,,,,,,,
,,,,1,3.82434,,,,,,159,cookie,flower,,90193,001,2022-04-28_19h36.05.417,SPAMnetsValid,2021.1.4,MacIntel,59.99880002,,,,,,,,,,,,,1,3.82434,0,60,60,21,1,,,,,,,,,,,,,,,,,,,,,,,,,,,,,,,,,,,,,,,,,,,,,,,,,,,,,,,,,,,,,,,,,,,,,,
,,,,6,3.439115,,,,,,139,carrot,strawberry,,90193,001,2022-04-28_19h36.05.417,SPAMnetsValid,2021.1.4,MacIntel,59.99880002,,,,,,,,,,,,,6,3.439115,0,61,61,37,1,,,,,,,,,,,,,,,,,,,,,,,,,,,,,,,,,,,,,,,,,,,,,,,,,,,,,,,,,,,,,,,,,,,,,,
,,,,6,1.157255,,,,,,153,carrot,pretzel,,90193,001,2022-04-28_19h36.05.417,SPAMnetsValid,2021.1.4,MacIntel,59.99880002,,,,,,,,,,,,,6,1.157255,0,62,62,34,1,,,,,,,,,,,,,,,,,,,,,,,,,,,,,,,,,,,,,,,,,,,,,,,,,,,,,,,,,,,,,,,,,,,,,,
,,,,9,1.24028,,,,,,193,melon,melon,CHECK,90193,001,2022-04-28_19h36.05.417,SPAMnetsValid,2021.1.4,MacIntel,59.99880002,,,,,,,,,,,,,9,1.24028,0,63,63,86,1,,,,,,,,,,,,,,,,,,,,,,,,,,,,,,,,,,,,,,,,,,,,,,,,,,,,,,,,,,,,,,,,,,,,,,
,,,,8,1.640605,,,,,,173,kitchen,tomato,,90193,001,2022-04-28_19h36.05.417,SPAMnetsValid,2021.1.4,MacIntel,59.99880002,,,,,,,,,,,,,8,1.640605,0,64,64,1,1,,,,,,,,,,,,,,,,,,,,,,,,,,,,,,,,,,,,,,,,,,,,,,,,,,,,,,,,,,,,,,,,,,,,,,
,,,,2,1.908525,,,,,,157,refrigerator,rose,,90193,001,2022-04-28_19h36.05.417,SPAMnetsValid,2021.1.4,MacIntel,59.99880002,,,,,,,,,,,,,2,1.908525,0,65,65,64,1,,,,,,,,,,,,,,,,,,,,,,,,,,,,,,,,,,,,,,,,,,,,,,,,,,,,,,,,,,,,,,,,,,,,,,
,,,,8,2.02872,,,,,,158,cookie,oven,,90193,001,2022-04-28_19h36.05.417,SPAMnetsValid,2021.1.4,MacIntel,59.99880002,,,,,,,,,,,,,8,2.02872,0,66,66,27,1,,,,,,,,,,,,,,,,,,,,,,,,,,,,,,,,,,,,,,,,,,,,,,,,,,,,,,,,,,,,,,,,,,,,,,
,,,,1,1.57348,,,,,,187,cactus,microwave,,90193,001,2022-04-28_19h36.05.417,SPAMnetsValid,2021.1.4,MacIntel,59.99880002,,,,,,,,,,,,,1,1.57348,0,67,67,71,1,,,,,,,,,,,,,,,,,,,,,,,,,,,,,,,,,,,,,,,,,,,,,,,,,,,,,,,,,,,,,,,,,,,,,,
,,,,2,1.905695,,,,,,156,melon,rose,,90193,001,2022-04-28_19h36.05.417,SPAMnetsValid,2021.1.4,MacIntel,59.99880002,,,,,,,,,,,,,2,1.905695,0,68,68,31,1,,,,,,,,,,,,,,,,,,,,,,,,,,,,,,,,,,,,,,,,,,,,,,,,,,,,,,,,,,,,,,,,,,,,,,
,,,,2,2.406005,,,,,,112,cake,carrot,,90193,001,2022-04-28_19h36.05.417,SPAMnetsValid,2021.1.4,MacIntel,59.99880002,,,,,,,,,,,,,2,2.406005,0,69,69,39,1,,,,,,,,,,,,,,,,,,,,,,,,,,,,,,,,,,,,,,,,,,,,,,,,,,,,,,,,,,,,,,,,,,,,,,
,,,,1,4.282045,,,,,,145,cactus,yogurt,,90193,001,2022-04-28_19h36.05.417,SPAMnetsValid,2021.1.4,MacIntel,59.99880002,,,,,,,,,,,,,1,4.282045,0,70,70,15,1,,,,,,,,,,,,,,,,,,,,,,,,,,,,,,,,,,,,,,,,,,,,,,,,,,,,,,,,,,,,,,,,,,,,,,
,,,,6,4.09576,,,,,,185,cactus,rose,,90193,001,2022-04-28_19h36.05.417,SPAMnetsValid,2021.1.4,MacIntel,59.99880002,,,,,,,,,,,,,6,4.09576,0,71,71,43,1,,,,,,,,,,,,,,,,,,,,,,,,,,,,,,,,,,,,,,,,,,,,,,,,,,,,,,,,,,,,,,,,,,,,,,
,,,,4,2.72378,,,,,,155,carrot,cookie,,90193,001,2022-04-28_19h36.05.417,SPAMnetsValid,2021.1.4,MacIntel,59.99880002,,,,,,,,,,,,,4,2.72378,0,72,72,38,1,,,,,,,,,,,,,,,,,,,,,,,,,,,,,,,,,,,,,,,,,,,,,,,,,,,,,,,,,,,,,,,,,,,,,,
,,,,8,1.715055,,,,,,150,microwave,refrigerator,,90193,001,2022-04-28_19h36.05.417,SPAMnetsValid,2021.1.4,MacIntel,59.99880002,,,,,,,,,,,,,8,1.715055,0,73,73,66,1,,,,,,,,,,,,,,,,,,,,,,,,,,,,,,,,,,,,,,,,,,,,,,,,,,,,,,,,,,,,,,,,,,,,,,
,,,,4,7.27405,,,,,,135,carrot,oven,,90193,001,2022-04-28_19h36.05.417,SPAMnetsValid,2021.1.4,MacIntel,59.99880002,,,,,,,,,,,,,4,7.27405,0,74,74,73,1,,,,,,,,,,,,,,,,,,,,,,,,,,,,,,,,,,,,,,,,,,,,,,,,,,,,,,,,,,,,,,,,,,,,,,
,,,,3,1.424315,,,,,,179,broom,oven,,90193,001,2022-04-28_19h36.05.417,SPAMnetsValid,2021.1.4,MacIntel,59.99880002,,,,,,,,,,,,,3,1.424315,0,75,75,45,1,,,,,,,,,,,,,,,,,,,,,,,,,,,,,,,,,,,,,,,,,,,,,,,,,,,,,,,,,,,,,,,,,,,,,,
,,,,8,2.040235,,,,,,110,chocolate,cookie,,90193,001,2022-04-28_19h36.05.417,SPAMnetsValid,2021.1.4,MacIntel,59.99880002,,,,,,,,,,,,,8,2.040235,0,76,76,52,1,,,,,,,,,,,,,,,,,,,,,,,,,,,,,,,,,,,,,,,,,,,,,,,,,,,,,,,,,,,,,,,,,,,,,,
,,,,2,2.542205,,,,,,170,cookie,microwave,,90193,001,2022-04-28_19h36.05.417,SPAMnetsValid,2021.1.4,MacIntel,59.99880002,,,,,,,,,,,,,2,2.542205,0,77,77,92,1,,,,,,,,,,,,,,,,,,,,,,,,,,,,,,,,,,,,,,,,,,,,,,,,,,,,,,,,,,,,,,,,,,,,,,
,,,,1,1.659405,,,,,,105,cactus,oven,,90193,001,2022-04-28_19h36.05.417,SPAMnetsValid,2021.1.4,MacIntel,59.99880002,,,,,,,,,,,,,1,1.659405,0,78,78,13,1,,,,,,,,,,,,,,,,,,,,,,,,,,,,,,,,,,,,,,,,,,,,,,,,,,,,,,,,,,,,,,,,,,,,,,
,,,,4,1.95775,,,,,,99,garden,melon,,90193,001,2022-04-28_19h36.05.417,SPAMnetsValid,2021.1.4,MacIntel,59.99880002,,,,,,,,,,,,,4,1.95775,0,79,79,17,1,,,,,,,,,,,,,,,,,,,,,,,,,,,,,,,,,,,,,,,,,,,,,,,,,,,,,,,,,,,,,,,,,,,,,,
,,,,7,1.73004,,,,,,154,strawberry,yogurt,,90193,001,2022-04-28_19h36.05.417,SPAMnetsValid,2021.1.4,MacIntel,59.99880002,,,,,,,,,,,,,7,1.73004,0,80,80,28,1,,,,,,,,,,,,,,,,,,,,,,,,,,,,,,,,,,,,,,,,,,,,,,,,,,,,,,,,,,,,,,,,,,,,,,
,,,,1,1.61937,,,,,,169,onion,yogurt,,90193,001,2022-04-28_19h36.05.417,SPAMnetsValid,2021.1.4,MacIntel,59.99880002,,,,,,,,,,,,,1,1.61937,0,81,81,24,1,,,,,,,,,,,,,,,,,,,,,,,,,,,,,,,,,,,,,,,,,,,,,,,,,,,,,,,,,,,,,,,,,,,,,,
,,,,6,1.822535,,,,,,117,melon,strawberry,,90193,001,2022-04-28_19h36.05.417,SPAMnetsValid,2021.1.4,MacIntel,59.99880002,,,,,,,,,,,,,6,1.822535,0,82,82,11,1,,,,,,,,,,,,,,,,,,,,,,,,,,,,,,,,,,,,,,,,,,,,,,,,,,,,,,,,,,,,,,,,,,,,,,
,,,,8,1.557195,,,,,,120,microwave,oven,,90193,001,2022-04-28_19h36.05.417,SPAMnetsValid,2021.1.4,MacIntel,59.99880002,,,,,,,,,,,,,8,1.557195,0,83,83,14,1,,,,,,,,,,,,,,,,,,,,,,,,,,,,,,,,,,,,,,,,,,,,,,,,,,,,,,,,,,,,,,,,,,,,,,
,,,,1,1.5064,,,,,,180,tree,yogurt,,90193,001,2022-04-28_19h36.05.417,SPAMnetsValid,2021.1.4,MacIntel,59.99880002,,,,,,,,,,,,,1,1.5064,0,84,84,68,1,,,,,,,,,,,,,,,,,,,,,,,,,,,,,,,,,,,,,,,,,,,,,,,,,,,,,,,,,,,,,,,,,,,,,,
,,,,8,2.14142,,,,,,177,chocolate,strawberry,,90193,001,2022-04-28_19h36.05.417,SPAMnetsValid,2021.1.4,MacIntel,59.99880002,,,,,,,,,,,,,8,2.14142,0,85,85,53,1,,,,,,,,,,,,,,,,,,,,,,,,,,,,,,,,,,,,,,,,,,,,,,,,,,,,,,,,,,,,,,,,,,,,,,
,,,,4,2.94094,,,,,,98,pretzel,strawberry,,90193,001,2022-04-28_19h36.05.417,SPAMnetsValid,2021.1.4,MacIntel,59.99880002,,,,,,,,,,,,,4,2.94094,0,86,86,82,1,,,,,,,,,,,,,,,,,,,,,,,,,,,,,,,,,,,,,,,,,,,,,,,,,,,,,,,,,,,,,,,,,,,,,,
,,,,2,2.21139,,,,,,190,microwave,strawberry,,90193,001,2022-04-28_19h36.05.417,SPAMnetsValid,2021.1.4,MacIntel,59.99880002,,,,,,,,,,,,,2,2.21139,0,87,87,90,1,,,,,,,,,,,,,,,,,,,,,,,,,,,,,,,,,,,,,,,,,,,,,,,,,,,,,,,,,,,,,,,,,,,,,,
,,,,7,1.857025,,,,,,100,garden,tomato,,90193,001,2022-04-28_19h36.05.417,SPAMnetsValid,2021.1.4,MacIntel,59.99880002,,,,,,,,,,,,,7,1.857025,0,88,88,83,1,,,,,,,,,,,,,,,,,,,,,,,,,,,,,,,,,,,,,,,,,,,,,,,,,,,,,,,,,,,,,,,,,,,,,,
,,,,6,1.673155,,,,,,96,oven,strawberry,,90193,001,2022-04-28_19h36.05.417,SPAMnetsValid,2021.1.4,MacIntel,59.99880002,,,,,,,,,,,,,6,1.673155,0,89,89,67,1,,,,,,,,,,,,,,,,,,,,,,,,,,,,,,,,,,,,,,,,,,,,,,,,,,,,,,,,,,,,,,,,,,,,,,
,,,,3,3.988535,,,,,,140,cookie,refrigerator,,90193,001,2022-04-28_19h36.05.417,SPAMnetsValid,2021.1.4,MacIntel,59.99880002,,,,,,,,,,,,,3,3.988535,0,90,90,89,1,,,,,,,,,,,,,,,,,,,,,,,,,,,,,,,,,,,,,,,,,,,,,,,,,,,,,,,,,,,,,,,,,,,,,,
,,,,2,2.47486,,,,,,128,melon,microwave,,90193,001,2022-04-28_19h36.05.417,SPAMnetsValid,2021.1.4,MacIntel,59.99880002,,,,,,,,,,,,,2,2.47486,0,91,91,74,1,,,,,,,,,,,,,,,,,,,,,,,,,,,,,,,,,,,,,,,,,,,,,,,,,,,,,,,,,,,,,,,,,,,,,,
,,,,4,2.627235,,,,,,165,onion,rose,,90193,001,2022-04-28_19h36.05.417,SPAMnetsValid,2021.1.4,MacIntel,59.99880002,,,,,,,,,,,,,4,2.627235,0,92,92,40,1,,,,,,,,,,,,,,,,,,,,,,,,,,,,,,,,,,,,,,,,,,,,,,,,,,,,,,,,,,,,,,,,,,,,,,
,,,,6,1.574295,,,,,,166,cake,yogurt,,90193,001,2022-04-28_19h36.05.417,SPAMnetsValid,2021.1.4,MacIntel,59.99880002,,,,,,,,,,,,,6,1.574295,0,93,93,91,1,,,,,,,,,,,,,,,,,,,,,,,,,,,,,,,,,,,,,,,,,,,,,,,,,,,,,,,,,,,,,,,,,,,,,,
,,,,1,1.29582,,,,,,109,broom,strawberry,,90193,001,2022-04-28_19h36.05.417,SPAMnetsValid,2021.1.4,MacIntel,59.99880002,,,,,,,,,,,,,1,1.29582,0,94,94,4,1,,,,,,,,,,,,,,,,,,,,,,,,,,,,,,,,,,,,,,,,,,,,,,,,,,,,,,,,,,,,,,,,,,,,,,
,,,,2,1.999665,,,,,,144,cake,garden,,90193,001,2022-04-28_19h36.05.417,SPAMnetsValid,2021.1.4,MacIntel,59.99880002,,,,,,,,,,,,,2,1.999665,0,95,95,58,1,,,,,,,,,,,,,,,,,,,,,,,,,,,,,,,,,,,,,,,,,,,,,,,,,,,,,,,,,,,,,,,,,,,,,,
,,,,2,1.139345,,,,,,164,cookie,garden,,90193,001,2022-04-28_19h36.05.417,SPAMnetsValid,2021.1.4,MacIntel,59.99880002,,,,,,,,,,,,,2,1.139345,0,96,96,59,1,,,,,,,,,,,,,,,,,,,,,,,,,,,,,,,,,,,,,,,,,,,,,,,,,,,,,,,,,,,,,,,,,,,,,,
,,,,,,,,,,,,,,,90193,001,2022-04-28_19h36.05.417,SPAMnetsValid,2021.1.4,MacIntel,59.99880002,,,,,,,,,,,,,,,,,,,,0,0,0,0,1,,,,,,,,,,,,,,,,,,,,,,,,,,,,,,,,,,,,,,,,,,,,,,,,,,,,,,,,,,,,,,,,,
,,,,,,,,,,,,,,,90193,001,2022-04-28_19h36.05.417,SPAMnetsValid,2021.1.4,MacIntel,59.99880002,,,,,,0,1,1,1,1,0,1,,,,,,,,,,,,,,,,,,,,,,,,,,,,,,,,,,,,,,,,,,,,,,,,,,,,,,,,,,,,,,,,,,,,,,,,,,,,,
,,,,,,,,,,,,,,,90193,001,2022-04-28_19h36.05.417,SPAMnetsValid,2021.1.4,MacIntel,59.99880002,,,,,,,,,,,,,,,,,,,,,,,,,4,14.98826,0,0,0,0,1,rancor,forbearance,ridicule,malice,bravery,3,,,,,,,,,,,,,,,,,,,,,,,,,,,,,,,,,,,,,,,,,,,,,,,,,,,,
,,,,,,,,,,,,,,,90193,001,2022-04-28_19h36.05.417,SPAMnetsValid,2021.1.4,MacIntel,59.99880002,,,,,,,,,,,,,,,,,,,,,,,,,1,6.04631,0,1,1,1,1,raucous,empty,quiet,smooth,harsh,4,,,,,,,,,,,,,,,,,,,,,,,,,,,,,,,,,,,,,,,,,,,,,,,,,,,,
,,,,,,,,,,,,,,,90193,001,2022-04-28_19h36.05.417,SPAMnetsValid,2021.1.4,MacIntel,59.99880002,,,,,,,,,,,,,,,,,,,,,,,,,3,5.09174,0,2,2,2,1,gargoyle,oil,medicine,carved waterspout,ugly building,3,,,,,,,,,,,,,,,,,,,,,,,,,,,,,,,,,,,,,,,,,,,,,,,,,,,,
,,,,,,,,,,,,,,,90193,001,2022-04-28_19h36.05.417,SPAMnetsValid,2021.1.4,MacIntel,59.99880002,,,,,,,,,,,,,,,,,,,,,,,,,3,8.64281,0,3,3,3,1,recrudesce,purify,renew activity,lack refinement,crush,2,,,,,,,,,,,,,,,,,,,,,,,,,,,,,,,,,,,,,,,,,,,,,,,,,,,,
,,,,,,,,,,,,,,,90193,001,2022-04-28_19h36.05.417,SPAMnetsValid,2021.1.4,MacIntel,59.99880002,,,,,,,,,,,,,,,,,,,,,,,,,3,6.774145,0,4,4,4,1,specious,"plausible, but not genuine",noteworthy,class or variety,roomy,1,,,,,,,,,,,,,,,,,,,,,,,,,,,,,,,,,,,,,,,,,,,,,,,,,,,,
,,,,,,,,,,,,,,,90193,001,2022-04-28_19h36.05.417,SPAMnetsValid,2021.1.4,MacIntel,59.99880002,,,,,,,,,,,,,,,,,,,,,,,,,4,9.341725,0,5,5,5,1,bauble,bubble,showy plaything,idle talk,confusion,2,,,,,,,,,,,,,,,,,,,,,,,,,,,,,,,,,,,,,,,,,,,,,,,,,,,,
,,,,,,,,,,,,,,,90193,001,2022-04-28_19h36.05.417,SPAMnetsValid,2021.1.4,MacIntel,59.99880002,,,,,,,,,,,,,,,,,,,,,,,,,3,8.830095,0,6,6,6,1,prolific,scarce,producing abundantly,reckless,speaking profanely,2,,,,,,,,,,,,,,,,,,,,,,,,,,,,,,,,,,,,,,,,,,,,,,,,,,,,
,,,,,,,,,,,,,,,90193,001,2022-04-28_19h36.05.417,SPAMnetsValid,2021.1.4,MacIntel,59.99880002,,,,,,,,,,,,,,,,,,,,,,,,,2,9.923655,0,7,7,7,1,opulent,party,wealthy,happy frame of mind,semiprecious stone,2,,,,,,,,,,,,,,,,,,,,,,,,,,,,,,,,,,,,,,,,,,,,,,,,,,,,
,,,,,,,,,,,,,,,90193,001,2022-04-28_19h36.05.417,SPAMnetsValid,2021.1.4,MacIntel,59.99880002,,,,,,,,,,,,,,,,,,,,,,,,,1,5.407395,0,8,8,8,1,coercion,conspiracy,strategy,restraint,attraction,3,,,,,,,,,,,,,,,,,,,,,,,,,,,,,,,,,,,,,,,,,,,,,,,,,,,,
,,,,,,,,,,,,,,,90193,001,2022-04-28_19h36.05.417,SPAMnetsValid,2021.1.4,MacIntel,59.99880002,,,,,,,,,,,,,,,,,,,,,,,,,4,6.04159,0,9,9,9,1,hiatus,animal,calamity,dread,gap,4,,,,,,,,,,,,,,,,,,,,,,,,,,,,,,,,,,,,,,,,,,,,,,,,,,,,
,,,,,,,,,,,,,,,90193,001,2022-04-28_19h36.05.417,SPAMnetsValid,2021.1.4,MacIntel,59.99880002,,,,,,,,,,,,,,,,,,,,,,,,,4,11.07517,0,10,10,10,1,germane,microbe,contagious,relevant,different,3,,,,,,,,,,,,,,,,,,,,,,,,,,,,,,,,,,,,,,,,,,,,,,,,,,,,
,,,,,,,,,,,,,,,90193,001,2022-04-28_19h36.05.417,SPAMnetsValid,2021.1.4,MacIntel,59.99880002,,,,,,,,,,,,,,,,,,,,,,,,,1,12.492455,0,11,11,11,1,perfunctory,fundamental,formal,superficial,careful,3,,,,,,,,,,,,,,,,,,,,,,,,,,,,,,,,,,,,,,,,,,,,,,,,,,,,
,,,,,,,,,,,,,,,90193,001,2022-04-28_19h36.05.417,SPAMnetsValid,2021.1.4,MacIntel,59.99880002,,,,,,,,,,,,,,,,,,,,,,,,,4,5.382955,0,12,12,12,1,diverge,reveal,chant,distract the attention of,differ or turn off from,4,,,,,,,,,,,,,,,,,,,,,,,,,,,,,,,,,,,,,,,,,,,,,,,,,,,,
,,,,,,,,,,,,,,,90193,001,2022-04-28_19h36.05.417,SPAMnetsValid,2021.1.4,MacIntel,59.99880002,,,,,,,,,,,,,,,,,,,,,,,,,4,4.22756,0,13,13,13,1,evoke,take away,anger,connect,bring out,4,,,,,,,,,,,,,,,,,,,,,,,,,,,,,,,,,,,,,,,,,,,,,,,,,,,,
,,,,,,,,,,,,,,,90193,001,2022-04-28_19h36.05.417,SPAMnetsValid,2021.1.4,MacIntel,59.99880002,,,,,,,,,,,,,,,,,,,,,,,,,1,13.11292,0,14,14,14,1,pertinent,relevant,lying next to,necessary,bold,1,,,,,,,,,,,,,,,,,,,,,,,,,,,,,,,,,,,,,,,,,,,,,,,,,,,,
,,,,,,,,,,,,,,,90193,001,2022-04-28_19h36.05.417,SPAMnetsValid,2021.1.4,MacIntel,59.99880002,,,,,,,,,,,,,,,,,,,,,,,,,2,9.410355,0,15,15,15,1,holocaust,entirety,destruction,saintly,price,2,,,,,,,,,,,,,,,,,,,,,,,,,,,,,,,,,,,,,,,,,,,,,,,,,,,,
,,,,,,,,,,,,,,,90193,001,2022-04-28_19h36.05.417,SPAMnetsValid,2021.1.4,MacIntel,59.99880002,,,,,,,,,,,,,,,,,,,,,,,,,1,6.14155,0,16,16,16,1,piquant,mellow,fish,pungent,cloth,3,,,,,,,,,,,,,,,,,,,,,,,,,,,,,,,,,,,,,,,,,,,,,,,,,,,,
,,,,,,,,,,,,,,,90193,001,2022-04-28_19h36.05.417,SPAMnetsValid,2021.1.4,MacIntel,59.99880002,,,,,,,,,,,,,,,,,,,,,,,,,3,6.44527,0,17,17,17,1,firmament,foundation,heavens,strong,glue,2,,,,,,,,,,,,,,,,,,,,,,,,,,,,,,,,,,,,,,,,,,,,,,,,,,,,
,,,,,,,,,,,,,,,90193,001,2022-04-28_19h36.05.417,SPAMnetsValid,2021.1.4,MacIntel,59.99880002,,,,,,,,,,,,,,,,,,,,,,,,,,,,,,,,,,,,,,4,6.922475,0,0,0,0,1,marketable,partisan,jocular,marriageable,salable,essential,4,,,,,,,,,,,,,,,,,,,,,,,,,,,,,,,,,,,,,,
,,,,,,,,,,,,,,,90193,001,2022-04-28_19h36.05.417,SPAMnetsValid,2021.1.4,MacIntel,59.99880002,,,,,,,,,,,,,,,,,,,,,,,,,,,,,,,,,,,,,,5,7.379175,0,1,1,1,1,cottontail,squirrel,poplar,boa,marshy plant,rabbit,5,,,,,,,,,,,,,,,,,,,,,,,,,,,,,,,,,,,,,,
,,,,,,,,,,,,,,,90193,001,2022-04-28_19h36.05.417,SPAMnetsValid,2021.1.4,MacIntel,59.99880002,,,,,,,,,,,,,,,,,,,,,,,,,,,,,,,,,,,,,,3,3.45792,0,2,2,2,1,boggy,afraid,false,marshy,dense,black,3,,,,,,,,,,,,,,,,,,,,,,,,,,,,,,,,,,,,,,
,,,,,,,,,,,,,,,90193,001,2022-04-28_19h36.05.417,SPAMnetsValid,2021.1.4,MacIntel,59.99880002,,,,,,,,,,,,,,,,,,,,,,,,,,,,,,,,,,,,,,5,12.53108,0,3,3,3,1,gruesomeness,blackness,falseness,vindictiveness,drunkenness,ghastliness,5,,,,,,,,,,,,,,,,,,,,,,,,,,,,,,,,,,,,,,
,,,,,,,,,,,,,,,90193,001,2022-04-28_19h36.05.417,SPAMnetsValid,2021.1.4,MacIntel,59.99880002,,,,,,,,,,,,,,,,,,,,,,,,,,,,,,,,,,,,,,3,8.7251,0,4,4,4,1,loathing,diffidence,laziness,abhorrence,cleverness,comfort,3,,,,,,,,,,,,,,,,,,,,,,,,,,,,,,,,,,,,,,
,,,,,,,,,,,,,,,90193,001,2022-04-28_19h36.05.417,SPAMnetsValid,2021.1.4,MacIntel,59.99880002,,,,,,,,,,,,,,,,,,,,,,,,,,,,,,,,,,,,,,1,22.70986,0,5,5,5,1,bantam,fowl,ridicule,cripple,vegetable,ensign,1,,,,,,,,,,,,,,,,,,,,,,,,,,,,,,,,,,,,,,
,,,,,,,,,,,,,,,90193,001,2022-04-28_19h36.05.417,SPAMnetsValid,2021.1.4,MacIntel,59.99880002,,,,,,,,,,,,,,,,,,,,,,,,,,,,,,,,,,,,,,5,2.69045,0,6,6,6,1,evoke,wake up,surrender,reconnoiter,transcend,call forth,5,,,,,,,,,,,,,,,,,,,,,,,,,,,,,,,,,,,,,,
,,,,,,,,,,,,,,,90193,001,2022-04-28_19h36.05.417,SPAMnetsValid,2021.1.4,MacIntel,59.99880002,,,,,,,,,,,,,,,,,,,,,,,,,,,,,,,,,,,,,,5,13.31483,0,7,7,7,1,unobtrusive,unintelligent,epileptic,illogical,lineal,modest,5,,,,,,,,,,,,,,,,,,,,,,,,,,,,,,,,,,,,,,
,,,,,,,,,,,,,,,90193,001,2022-04-28_19h36.05.417,SPAMnetsValid,2021.1.4,MacIntel,59.99880002,,,,,,,,,,,,,,,,,,,,,,,,,,,,,,,,,,,,,,4,5.37453,0,8,8,8,1,terrain,ice cream,final test,tractor,area of ground,weight,4,,,,,,,,,,,,,,,,,,,,,,,,,,,,,,,,,,,,,,
,,,,,,,,,,,,,,,90193,001,2022-04-28_19h36.05.417,SPAMnetsValid,2021.1.4,MacIntel,59.99880002,,,,,,,,,,,,,,,,,,,,,,,,,,,,,,,,,,,,,,1,7.60035,0,9,9,9,1,capriciousness,stubbornness,courage,whimsicality,amazement,greediness,3,,,,,,,,,,,,,,,,,,,,,,,,,,,,,,,,,,,,,,
,,,,,,,,,,,,,,,90193,001,2022-04-28_19h36.05.417,SPAMnetsValid,2021.1.4,MacIntel,59.99880002,,,,,,,,,,,,,,,,,,,,,,,,,,,,,,,,,,,,,,1,4.045595,0,10,10,10,1,maelstrom,slander,whirlpool,enmity,armor,majolica,2,,,,,,,,,,,,,,,,,,,,,,,,,,,,,,,,,,,,,,
,,,,,,,,,,,,,,,90193,001,2022-04-28_19h36.05.417,SPAMnetsValid,2021.1.4,MacIntel,59.99880002,,,,,,,,,,,,,,,,,,,,,,,,,,,,,,,,,,,,,,4,10.923815,0,11,11,11,1,tentative,critical,conclusive,authentic,provisional,apprehensive,4,,,,,,,,,,,,,,,,,,,,,,,,,,,,,,,,,,,,,,
,,,,,,,,,,,,,,,90193,001,2022-04-28_19h36.05.417,SPAMnetsValid,2021.1.4,MacIntel,59.99880002,,,,,,,,,,,,,,,,,,,,,,,,,,,,,,,,,,,,,,4,22.18133,0,12,12,12,1,placate,rehabilitate,plagiarize,depredate,apprise,conciliate,5,,,,,,,,,,,,,,,,,,,,,,,,,,,,,,,,,,,,,,
,,,,,,,,,,,,,,,90193,001,2022-04-28_19h36.05.417,SPAMnetsValid,2021.1.4,MacIntel,59.99880002,,,,,,,,,,,,,,,,,,,,,,,,,,,,,,,,,,,,,,2,22.143205,0,13,13,13,1,surcease,enlightenment,cessation,inattention,censor,substitution,2,,,,,,,,,,,,,,,,,,,,,,,,,,,,,,,,,,,,,,
,,,,,,,,,,,,,,,90193,001,2022-04-28_19h36.05.417,SPAMnetsValid,2021.1.4,MacIntel,59.99880002,,,,,,,,,,,,,,,,,,,,,,,,,,,,,,,,,,,,,,4,7.497025,0,14,14,14,1,apathetic,wandering,impassive,hateful,prophetic,overflowing,2,,,,,,,,,,,,,,,,,,,,,,,,,,,,,,,,,,,,,,
,,,,,,,,,,,,,,,90193,001,2022-04-28_19h36.05.417,SPAMnetsValid,2021.1.4,MacIntel,59.99880002,,,,,,,,,,,,,,,,,,,,,,,,,,,,,,,,,,,,,,5,18.90994,0,15,15,15,1,paternoster,paternalism,patricide,malediction,benediction,prayer,5,,,,,,,,,,,,,,,,,,,,,,,,,,,,,,,,,,,,,,
,,,,,,,,,,,,,,,90193,001,2022-04-28_19h36.05.417,SPAMnetsValid,2021.1.4,MacIntel,59.99880002,,,,,,,,,,,,,,,,,,,,,,,,,,,,,,,,,,,,,,4,12.09237,0,16,16,16,1,opalescence,opulence,senescence,bankruptcy,iridescence,assiduity,4,,,,,,,,,,,,,,,,,,,,,,,,,,,,,,,,,,,,,,
,,,,,,,,,,,,,,,90193,001,2022-04-28_19h36.05.417,SPAMnetsValid,2021.1.4,MacIntel,59.99880002,,,,,,,,,,,,,,,,,,,,,,,,,,,,,,,,,,,,,,2,2.492325,0,17,17,17,1,lush,stupid,luxurious,hazy,putrid,languishing,2,,,,,,,,,,,,,,,,,,,,,,,,,,,,,,,,,,,,,,
,,,,,,,,,,,,,,,90193,001,2022-04-28_19h36.05.417,SPAMnetsValid,2021.1.4,MacIntel,59.99880002,,,,,,,,,,,,,,,,,,,,,,,,,,,,,,,,,,,,,,3,6.24179,0,18,18,18,1,curtailment,expenditure,abandonment,abridgment,improvement,forgery,3,,,,,,,,,,,,,,,,,,,,,,,,,,,,,,,,,,,,,,
,,,,,,,,,,,,,,,90193,001,2022-04-28_19h36.05.417,SPAMnetsValid,2021.1.4,MacIntel,59.99880002,,,,,,,,,,,,,,,,,,,,,,,,,,,,,,,,,,,,,,2,8.807795,0,19,19,19,1,perversity,adversity,perviousness,travesty,waywardness,gentility,4,,,,,,,,,,,,,,,,,,,,,,,,,,,,,,,,,,,,,,
,,,,,,,,,,,,,,,90193,001,2022-04-28_19h36.05.417,SPAMnetsValid,2021.1.4,MacIntel,59.99880002,,,,,,,,,,,,,,,,,,,,,,,,,,,,,,,,,,,,,,5,11.21203,0,20,20,20,1,calumnious,complimentary,analogous,slanderous,tempestuous,magnanimous,3,,,,,,,,,,,,,,,,,,,,,,,,,,,,,,,,,,,,,,
,,,,,,,,,,,,,,,90193,001,2022-04-28_19h36.05.417,SPAMnetsValid,2021.1.4,MacIntel,59.99880002,,,,,,,,,,,,,,,,,,,,,,,,,,,,,,,,,,,,,,4,22.51011,0,21,21,21,1,illiberality,bigotry,imbecility,illegibility,cautery,immaturity,1,,,,,,,,,,,,,,,,,,,,,,,,,,,,,,,,,,,,,,
,,,,,,,,,,,,,,,90193,001,2022-04-28_19h36.05.417,SPAMnetsValid,2021.1.4,MacIntel,59.99880002,,,,,,,,,,,,,,,,,,,,,,,,,,,,,,,,,,,,,,3,11.041285,0,22,22,22,1,clabber,rejoice,gossip,curdle,crow,hobble,3,,,,,,,,,,,,,,,,,,,,,,,,,,,,,,,,,,,,,,
,,,,,,,,,,,,,,,90193,001,2022-04-28_19h36.05.417,SPAMnetsValid,2021.1.4,MacIntel,59.99880002,,,,,,,,,,,,,,,,,,,,,,,,,,,,,,,,,,,,,,4,16.79225,0,23,23,23,1,sedulousness,diligence,credulousness,seduction,perilousness,frankness,1,,,,,,,,,,,,,,,,,,,,,,,,,,,,,,,,,,,,,,
,,,,,,,,,,,,,,,90193,001,2022-04-28_19h36.05.417,SPAMnetsValid,2021.1.4,MacIntel,59.99880002,,,,,,,,,,,,,,,,,,,,,,,,,,,,,,,,,,,,,,,,,,,,,,,,,,,,"hat, shoes, weapon",bucket,0,0,0,0,1,,,,,,,,,,,,,,,,,,,,,,,,,,,,,,,
,,,,,,,,,,,,,,,90193,001,2022-04-28_19h36.05.417,SPAMnetsValid,2021.1.4,MacIntel,59.99880002,,,,,,,,,,,,,,,,,,,,,,,,,,,,,,,,,,,,,,,,,,,,,,,,,,,,hat,bucket,1,0,1,0,1,,,,,,,,,,,,,,,,,,,,,,,,,,,,,,,
,,,,,,,,,,,,,,,90193,001,2022-04-28_19h36.05.417,SPAMnetsValid,2021.1.4,MacIntel,59.99880002,,,,,,,,,,,,,,,,,,,,,,,,,,,,,,,,,,,,,,,,,,,,,,,,,,,,shoes,bucket,2,0,2,0,1,,,,,,,,,,,,,,,,,,,,,,,,,,,,,,,
,,,,,,,,,,,,,,,90193,001,2022-04-28_19h36.05.417,SPAMnetsValid,2021.1.4,MacIntel,59.99880002,,,,,,,,,,,,,,,,,,,,,,,,,,,,,,,,,,,,,,,,,,,,,,,,,,,,weapon,bucket,3,0,3,0,1,,,,,,,,,,,,,,,,,,,,,,,,,,,,,,,
,,,,,,,,,,,,,,,90193,001,2022-04-28_19h36.05.417,SPAMnetsValid,2021.1.4,MacIntel,59.99880002,,,,,,,,,,,,,,,,,,,,,,,,,,,,,,,,,,,,,,,,,,,,,,,,,,,,leaks,bucket,4,0,4,0,1,,,,,,,,,,,,,,,,,,,,,,,,,,,,,,,
,,,,,,,,,,,,,,,90193,001,2022-04-28_19h36.05.417,SPAMnetsValid,2021.1.4,MacIntel,59.99880002,,,,,,,,,,,,,,,,,,,,,,,,,,,,,,,,,,,,,,,,,,,,,,,,,,,,jewelry,bucket,5,0,5,0,1,,,,,,,,,,,,,,,,,,,,,,,,,,,,,,,
,,,,,,,,,,,,,,,90193,001,2022-04-28_19h36.05.417,SPAMnetsValid,2021.1.4,MacIntel,59.99880002,,,,,,,,,,,,,,,,,,,,,,,,,,,,,,,,,,,,,,,,,,,,,,,,,,,,present,bucket,6,0,6,0,1,,,,,,,,,,,,,,,,,,,,,,,,,,,,,,,
,,,,,,,,,,,,,,,90193,001,2022-04-28_19h36.05.417,SPAMnetsValid,2021.1.4,MacIntel,59.99880002,,,,,,,,,,,,,,,,,,,,,,,,,,,,,,,,,,,,,,,,,,,,,,,,,,,,speaker,bucket,7,0,7,0,1,,,,,,,,,,,,,,,,,,,,,,,,,,,,,,,
,,,,,,,,,,,,,,,90193,001,2022-04-28_19h36.05.417,SPAMnetsValid,2021.1.4,MacIntel,59.99880002,,,,,,,,,,,,,,,,,,,,,,,,,,,,,,,,,,,,,,,,,,,,,,,,,,,,soccer ball,bucket,8,0,8,0,1,,,,,,,,,,,,,,,,,,,,,,,,,,,,,,,
,,,,,,,,,,,,,,,90193,001,2022-04-28_19h36.05.417,SPAMnetsValid,2021.1.4,MacIntel,59.99880002,,,,,,,,,,,,,,,,,,,,,,,,,,,,,,,,,,,,,,,,,,,,,,,,,,,,cooking,bucket,9,0,9,0,1,,,,,,,,,,,,,,,,,,,,,,,,,,,,,,,
,,,,,,,,,,,,,,,90193,001,2022-04-28_19h36.05.417,SPAMnetsValid,2021.1.4,MacIntel,59.99880002,,,,,,,,,,,,,,,,,,,,,,,,,,,,,,,,,,,,,,,,,,,,,,,,,,,,washing hands,bucket,10,0,10,0,1,,,,,,,,,,,,,,,,,,,,,,,,,,,,,,,
,,,,,,,,,,,,,,,90193,001,2022-04-28_19h36.05.417,SPAMnetsValid,2021.1.4,MacIntel,59.99880002,,,,,,,,,,,,,,,,,,,,,,,,,,,,,,,,,,,,,,,,,,,,,,,,,,,,,,,,,,,0,0,0,0,1,bucket,,,,,,,,,,,,,,,,,,,,,,,,,
,,,,,,,,,,,,,,,90193,001,2022-04-28_19h36.05.417,SPAMnetsValid,2021.1.4,MacIntel,59.99880002,,,,,,,,,,,,,,,,,,,,,,,,,,,,,,,,,,,,,,,,,,,,,,,,,,,,fake baby,pillow,0,0,0,0,1,,,,,,,,,,,,,,,,,,,,,,,,,,,,,,,
,,,,,,,,,,,,,,,90193,001,2022-04-28_19h36.05.417,SPAMnetsValid,2021.1.4,MacIntel,59.99880002,,,,,,,,,,,,,,,,,,,,,,,,,,,,,,,,,,,,,,,,,,,,,,,,,,,,soundproofing,pillow,1,0,1,0,1,,,,,,,,,,,,,,,,,,,,,,,,,,,,,,,
,,,,,,,,,,,,,,,90193,001,2022-04-28_19h36.05.417,SPAMnetsValid,2021.1.4,MacIntel,59.99880002,,,,,,,,,,,,,,,,,,,,,,,,,,,,,,,,,,,,,,,,,,,,,,,,,,,,towel,pillow,2,0,2,0,1,,,,,,,,,,,,,,,,,,,,,,,,,,,,,,,
,,,,,,,,,,,,,,,90193,001,2022-04-28_19h36.05.417,SPAMnetsValid,2021.1.4,MacIntel,59.99880002,,,,,,,,,,,,,,,,,,,,,,,,,,,,,,,,,,,,,,,,,,,,,,,,,,,,purse,pillow,3,0,3,0,1,,,,,,,,,,,,,,,,,,,,,,,,,,,,,,,
,,,,,,,,,,,,,,,90193,001,2022-04-28_19h36.05.417,SPAMnetsValid,2021.1.4,MacIntel,59.99880002,,,,,,,,,,,,,,,,,,,,,,,,,,,,,,,,,,,,,,,,,,,,,,,,,,,,volleyball,pillow,4,0,4,0,1,,,,,,,,,,,,,,,,,,,,,,,,,,,,,,,
,,,,,,,,,,,,,,,90193,001,2022-04-28_19h36.05.417,SPAMnetsValid,2021.1.4,MacIntel,59.99880002,,,,,,,,,,,,,,,,,,,,,,,,,,,,,,,,,,,,,,,,,,,,,,,,,,,,shirt,pillow,5,0,5,0,1,,,,,,,,,,,,,,,,,,,,,,,,,,,,,,,
,,,,,,,,,,,,,,,90193,001,2022-04-28_19h36.05.417,SPAMnetsValid,2021.1.4,MacIntel,59.99880002,,,,,,,,,,,,,,,,,,,,,,,,,,,,,,,,,,,,,,,,,,,,,,,,,,,,diaper,pillow,6,0,6,0,1,,,,,,,,,,,,,,,,,,,,,,,,,,,,,,,
,,,,,,,,,,,,,,,90193,001,2022-04-28_19h36.05.417,SPAMnetsValid,2021.1.4,MacIntel,59.99880002,,,,,,,,,,,,,,,,,,,,,,,,,,,,,,,,,,,,,,,,,,,,,,,,,,,,food,pillow,7,0,7,0,1,,,,,,,,,,,,,,,,,,,,,,,,,,,,,,,
,,,,,,,,,,,,,,,90193,001,2022-04-28_19h36.05.417,SPAMnetsValid,2021.1.4,MacIntel,59.99880002,,,,,,,,,,,,,,,,,,,,,,,,,,,,,,,,,,,,,,,,,,,,,,,,,,,,,,,,,,,0,1,1,2,1,pillow,,,,,,,,,,,,,,,,,,,,,,,,,
,,,,,,,,,,,,,,,90193,001,2022-04-28_19h36.05.417,SPAMnetsValid,2021.1.4,MacIntel,59.99880002,,,,,,,,,,,,,,,,,,,,,,,,,,,,,,,,,,,,,,,,,,,,,,,,,,,,weapon,candle,0,0,0,0,1,,,,,,,,,,,,,,,,,,,,,,,,,,,,,,,
,,,,,,,,,,,,,,,90193,001,2022-04-28_19h36.05.417,SPAMnetsValid,2021.1.4,MacIntel,59.99880002,,,,,,,,,,,,,,,,,,,,,,,,,,,,,,,,,,,,,,,,,,,,,,,,,,,,cereal bowl,candle,1,0,1,0,1,,,,,,,,,,,,,,,,,,,,,,,,,,,,,,,
,,,,,,,,,,,,,,,90193,001,2022-04-28_19h36.05.417,SPAMnetsValid,2021.1.4,MacIntel,59.99880002,,,,,,,,,,,,,,,,,,,,,,,,,,,,,,,,,,,,,,,,,,,,,,,,,,,,ashtray,candle,2,0,2,0,1,,,,,,,,,,,,,,,,,,,,,,,,,,,,,,,
,,,,,,,,,,,,,,,90193,001,2022-04-28_19h36.05.417,SPAMnetsValid,2021.1.4,MacIntel,59.99880002,,,,,,,,,,,,,,,,,,,,,,,,,,,,,,,,,,,,,,,,,,,,,,,,,,,,sword,candle,3,0,3,0,1,,,,,,,,,,,,,,,,,,,,,,,,,,,,,,,
,,,,,,,,,,,,,,,90193,001,2022-04-28_19h36.05.417,SPAMnetsValid,2021.1.4,MacIntel,59.99880002,,,,,,,,,,,,,,,,,,,,,,,,,,,,,,,,,,,,,,,,,,,,,,,,,,,,juggling,candle,4,0,4,0,1,,,,,,,,,,,,,,,,,,,,,,,,,,,,,,,
,,,,,,,,,,,,,,,90193,001,2022-04-28_19h36.05.417,SPAMnetsValid,2021.1.4,MacIntel,59.99880002,,,,,,,,,,,,,,,,,,,,,,,,,,,,,,,,,,,,,,,,,,,,,,,,,,,,bonfires but just around a candle,candle,5,0,5,0,1,,,,,,,,,,,,,,,,,,,,,,,,,,,,,,,
,,,,,,,,,,,,,,,90193,001,2022-04-28_19h36.05.417,SPAMnetsValid,2021.1.4,MacIntel,59.99880002,,,,,,,,,,,,,,,,,,,,,,,,,,,,,,,,,,,,,,,,,,,,,,,,,,,,fake magic,candle,6,0,6,0,1,,,,,,,,,,,,,,,,,,,,,,,,,,,,,,,
,,,,,,,,,,,,,,,90193,001,2022-04-28_19h36.05.417,SPAMnetsValid,2021.1.4,MacIntel,59.99880002,,,,,,,,,,,,,,,,,,,,,,,,,,,,,,,,,,,,,,,,,,,,,,,,,,,,,,,,,,,0,2,2,1,1,candle,,,,,,,,,,,,,,,,,,,,,,,,,
,,,,,,,,,,,,,,,90193,001,2022-04-28_19h36.05.417,SPAMnetsValid,2021.1.4,MacIntel,59.99880002,,,,,,,,,,,,,,,,,,,,,,,,,,,,,,,,,,,,,,,,,,,,,,,,,,,,,,,,,,,,,,,,,bear,Animals,0,0,0,0,1,,,,,,,,,,,,,,,,,,
,,,,,,,,,,,,,,,90193,001,2022-04-28_19h36.05.417,SPAMnetsValid,2021.1.4,MacIntel,59.99880002,,,,,,,,,,,,,,,,,,,,,,,,,,,,,,,,,,,,,,,,,,,,,,,,,,,,,,,,,,,,,,,,,lion,Animals,1,0,1,0,1,,,,,,,,,,,,,,,,,,
,,,,,,,,,,,,,,,90193,001,2022-04-28_19h36.05.417,SPAMnetsValid,2021.1.4,MacIntel,59.99880002,,,,,,,,,,,,,,,,,,,,,,,,,,,,,,,,,,,,,,,,,,,,,,,,,,,,,,,,,,,,,,,,,tiger,Animals,2,0,2,0,1,,,,,,,,,,,,,,,,,,
,,,,,,,,,,,,,,,90193,001,2022-04-28_19h36.05.417,SPAMnetsValid,2021.1.4,MacIntel,59.99880002,,,,,,,,,,,,,,,,,,,,,,,,,,,,,,,,,,,,,,,,,,,,,,,,,,,,,,,,,,,,,,,,,dog,Animals,3,0,3,0,1,,,,,,,,,,,,,,,,,,
,,,,,,,,,,,,,,,90193,001,2022-04-28_19h36.05.417,SPAMnetsValid,2021.1.4,MacIntel,59.99880002,,,,,,,,,,,,,,,,,,,,,,,,,,,,,,,,,,,,,,,,,,,,,,,,,,,,,,,,,,,,,,,,,cat,Animals,4,0,4,0,1,,,,,,,,,,,,,,,,,,
,,,,,,,,,,,,,,,90193,001,2022-04-28_19h36.05.417,SPAMnetsValid,2021.1.4,MacIntel,59.99880002,,,,,,,,,,,,,,,,,,,,,,,,,,,,,,,,,,,,,,,,,,,,,,,,,,,,,,,,,,,,,,,,,rat,Animals,5,0,5,0,1,,,,,,,,,,,,,,,,,,
,,,,,,,,,,,,,,,90193,001,2022-04-28_19h36.05.417,SPAMnetsValid,2021.1.4,MacIntel,59.99880002,,,,,,,,,,,,,,,,,,,,,,,,,,,,,,,,,,,,,,,,,,,,,,,,,,,,,,,,,,,,,,,,,snake,Animals,6,0,6,0,1,,,,,,,,,,,,,,,,,,
,,,,,,,,,,,,,,,90193,001,2022-04-28_19h36.05.417,SPAMnetsValid,2021.1.4,MacIntel,59.99880002,,,,,,,,,,,,,,,,,,,,,,,,,,,,,,,,,,,,,,,,,,,,,,,,,,,,,,,,,,,,,,,,,kangaroo,Animals,7,0,7,0,1,,,,,,,,,,,,,,,,,,
,,,,,,,,,,,,,,,90193,001,2022-04-28_19h36.05.417,SPAMnetsValid,2021.1.4,MacIntel,59.99880002,,,,,,,,,,,,,,,,,,,,,,,,,,,,,,,,,,,,,,,,,,,,,,,,,,,,,,,,,,,,,,,,,mouse,Animals,8,0,8,0,1,,,,,,,,,,,,,,,,,,
,,,,,,,,,,,,,,,90193,001,2022-04-28_19h36.05.417,SPAMnetsValid,2021.1.4,MacIntel,59.99880002,,,,,,,,,,,,,,,,,,,,,,,,,,,,,,,,,,,,,,,,,,,,,,,,,,,,,,,,,,,,,,,,,ferrett,Animals,9,0,9,0,1,,,,,,,,,,,,,,,,,,
,,,,,,,,,,,,,,,90193,001,2022-04-28_19h36.05.417,SPAMnetsValid,2021.1.4,MacIntel,59.99880002,,,,,,,,,,,,,,,,,,,,,,,,,,,,,,,,,,,,,,,,,,,,,,,,,,,,,,,,,,,,,,,,,hippo,Animals,10,0,10,0,1,,,,,,,,,,,,,,,,,,
,,,,,,,,,,,,,,,90193,001,2022-04-28_19h36.05.417,SPAMnetsValid,2021.1.4,MacIntel,59.99880002,,,,,,,,,,,,,,,,,,,,,,,,,,,,,,,,,,,,,,,,,,,,,,,,,,,,,,,,,,,,,,,,,elephant,Animals,11,0,11,0,1,,,,,,,,,,,,,,,,,,
,,,,,,,,,,,,,,,90193,001,2022-04-28_19h36.05.417,SPAMnetsValid,2021.1.4,MacIntel,59.99880002,,,,,,,,,,,,,,,,,,,,,,,,,,,,,,,,,,,,,,,,,,,,,,,,,,,,,,,,,,,,,,,,,zebra,Animals,12,0,12,0,1,,,,,,,,,,,,,,,,,,
,,,,,,,,,,,,,,,90193,001,2022-04-28_19h36.05.417,SPAMnetsValid,2021.1.4,MacIntel,59.99880002,,,,,,,,,,,,,,,,,,,,,,,,,,,,,,,,,,,,,,,,,,,,,,,,,,,,,,,,,,,,,,,,,rhino,Animals,13,0,13,0,1,,,,,,,,,,,,,,,,,,
,,,,,,,,,,,,,,,90193,001,2022-04-28_19h36.05.417,SPAMnetsValid,2021.1.4,MacIntel,59.99880002,,,,,,,,,,,,,,,,,,,,,,,,,,,,,,,,,,,,,,,,,,,,,,,,,,,,,,,,,,,,,,,,,fish,Animals,14,0,14,0,1,,,,,,,,,,,,,,,,,,
,,,,,,,,,,,,,,,90193,001,2022-04-28_19h36.05.417,SPAMnetsValid,2021.1.4,MacIntel,59.99880002,,,,,,,,,,,,,,,,,,,,,,,,,,,,,,,,,,,,,,,,,,,,,,,,,,,,,,,,,,,,,,,,,shark,Animals,15,0,15,0,1,,,,,,,,,,,,,,,,,,
,,,,,,,,,,,,,,,90193,001,2022-04-28_19h36.05.417,SPAMnetsValid,2021.1.4,MacIntel,59.99880002,,,,,,,,,,,,,,,,,,,,,,,,,,,,,,,,,,,,,,,,,,,,,,,,,,,,,,,,,,,,,,,,,girraffe,Animals,16,0,16,0,1,,,,,,,,,,,,,,,,,,
,,,,,,,,,,,,,,,90193,001,2022-04-28_19h36.05.417,SPAMnetsValid,2021.1.4,MacIntel,59.99880002,,,,,,,,,,,,,,,,,,,,,,,,,,,,,,,,,,,,,,,,,,,,,,,,,,,,,,,,,,,,,,,,,goat,Animals,17,0,17,0,1,,,,,,,,,,,,,,,,,,
,,,,,,,,,,,,,,,90193,001,2022-04-28_19h36.05.417,SPAMnetsValid,2021.1.4,MacIntel,59.99880002,,,,,,,,,,,,,,,,,,,,,,,,,,,,,,,,,,,,,,,,,,,,,,,,,,,,,,,,,,,,,,,,,sheep,Animals,18,0,18,0,1,,,,,,,,,,,,,,,,,,
,,,,,,,,,,,,,,,90193,001,2022-04-28_19h36.05.417,SPAMnetsValid,2021.1.4,MacIntel,59.99880002,,,,,,,,,,,,,,,,,,,,,,,,,,,,,,,,,,,,,,,,,,,,,,,,,,,,,,,,,,,,,,,,,cow,Animals,19,0,19,0,1,,,,,,,,,,,,,,,,,,
,,,,,,,,,,,,,,,90193,001,2022-04-28_19h36.05.417,SPAMnetsValid,2021.1.4,MacIntel,59.99880002,,,,,,,,,,,,,,,,,,,,,,,,,,,,,,,,,,,,,,,,,,,,,,,,,,,,,,,,,,,,,,,,,horse,Animals,20,0,20,0,1,,,,,,,,,,,,,,,,,,
,,,,,,,,,,,,,,,90193,001,2022-04-28_19h36.05.417,SPAMnetsValid,2021.1.4,MacIntel,59.99880002,,,,,,,,,,,,,,,,,,,,,,,,,,,,,,,,,,,,,,,,,,,,,,,,,,,,,,,,,,,,,,,,,lizard,Animals,21,0,21,0,1,,,,,,,,,,,,,,,,,,
,,,,,,,,,,,,,,,90193,001,2022-04-28_19h36.05.417,SPAMnetsValid,2021.1.4,MacIntel,59.99880002,,,,,,,,,,,,,,,,,,,,,,,,,,,,,,,,,,,,,,,,,,,,,,,,,,,,,,,,,,,,,,,,,chinchilla,Animals,22,0,22,0,1,,,,,,,,,,,,,,,,,,
,,,,,,,,,,,,,,,90193,001,2022-04-28_19h36.05.417,SPAMnetsValid,2021.1.4,MacIntel,59.99880002,,,,,,,,,,,,,,,,,,,,,,,,,,,,,,,,,,,,,,,,,,,,,,,,,,,,,,,,,,,,,,,,,jaguar,Animals,23,0,23,0,1,,,,,,,,,,,,,,,,,,
,,,,,,,,,,,,,,,90193,001,2022-04-28_19h36.05.417,SPAMnetsValid,2021.1.4,MacIntel,59.99880002,,,,,,,,,,,,,,,,,,,,,,,,,,,,,,,,,,,,,,,,,,,,,,,,,,,,,,,,,,,,,,,,,chicken,Animals,24,0,24,0,1,,,,,,,,,,,,,,,,,,
,,,,,,,,,,,,,,,90193,001,2022-04-28_19h36.05.417,SPAMnetsValid,2021.1.4,MacIntel,59.99880002,,,,,,,,,,,,,,,,,,,,,,,,,,,,,,,,,,,,,,,,,,,,,,,,,,,,,,,,,,,,,,,,,,,,,,,,0,0,0,0,1,Animals,,,,,,,,,,,,
,,,,,,,,,,,,,,,90193,001,2022-04-28_19h36.05.417,SPAMnetsValid,2021.1.4,MacIntel,59.99880002,,,,,,,,,,,,,,,,,,,,,,,,,,,,,,,,,,,,,,,,,,,,,,,,,,,,,,,,,,,,,,,,,,,,,,,,,,,,,,5,7.287045,0,0,0,0,1,"I enjoy concentrating on a fantasy or daydream and exploring all its possibilities, letting it grow and develop.",0,1,,
,,,,,,,,,,,,,,,90193,001,2022-04-28_19h36.05.417,SPAMnetsValid,2021.1.4,MacIntel,59.99880002,,,,,,,,,,,,,,,,,,,,,,,,,,,,,,,,,,,,,,,,,,,,,,,,,,,,,,,,,,,,,,,,,,,,,,,,,,,,,,4,5.10827,0,1,1,1,1,I think it's interesting to learn and develop new hobbies.,0,2,,
,,,,,,,,,,,,,,,90193,001,2022-04-28_19h36.05.417,SPAMnetsValid,2021.1.4,MacIntel,59.99880002,,,,,,,,,,,,,,,,,,,,,,,,,,,,,,,,,,,,,,,,,,,,,,,,,,,,,,,,,,,,,,,,,,,,,,,,,,,,,,4,3.22393,0,2,2,2,1,I am intrigued by the patterns I find in art and nature.,0,3,,
,,,,,,,,,,,,,,,90193,001,2022-04-28_19h36.05.417,SPAMnetsValid,2021.1.4,MacIntel,59.99880002,,,,,,,,,,,,,,,,,,,,,,,,,,,,,,,,,,,,,,,,,,,,,,,,,,,,,,,,,,,,,,,,,,,,,,,,,,,,,,2,9.056175,0,3,3,3,1,I believe letting students hear controversial speakers can only confuse and mislead them.,1,4,,
,,,,,,,,,,,,,,,90193,001,2022-04-28_19h36.05.417,SPAMnetsValid,2021.1.4,MacIntel,59.99880002,,,,,,,,,,,,,,,,,,,,,,,,,,,,,,,,,,,,,,,,,,,,,,,,,,,,,,,,,,,,,,,,,,,,,,,,,,,,,,3,3.40647,0,4,4,4,1,Poetry has little or no effect on me.,1,5,,
,,,,,,,,,,,,,,,90193,001,2022-04-28_19h36.05.417,SPAMnetsValid,2021.1.4,MacIntel,59.99880002,,,,,,,,,,,,,,,,,,,,,,,,,,,,,,,,,,,,,,,,,,,,,,,,,,,,,,,,,,,,,,,,,,,,,,,,,,,,,,2,6.558805,0,5,5,5,1,I would have difficulty just letting my mind wander without control or guidance.,1,6,,
,,,,,,,,,,,,,,,90193,001,2022-04-28_19h36.05.417,SPAMnetsValid,2021.1.4,MacIntel,59.99880002,,,,,,,,,,,,,,,,,,,,,,,,,,,,,,,,,,,,,,,,,,,,,,,,,,,,,,,,,,,,,,,,,,,,,,,,,,,,,,2,7.87527,0,6,6,6,1,I seldom notice the moods or feelings that different environments produce.,1,7,,
,,,,,,,,,,,,,,,90193,001,2022-04-28_19h36.05.417,SPAMnetsValid,2021.1.4,MacIntel,59.99880002,,,,,,,,,,,,,,,,,,,,,,,,,,,,,,,,,,,,,,,,,,,,,,,,,,,,,,,,,,,,,,,,,,,,,,,,,,,,,,4,19.7584,0,7,7,7,1,I experience a wide range of emotions or feelings.,0,8,,
,,,,,,,,,,,,,,,90193,001,2022-04-28_19h36.05.417,SPAMnetsValid,2021.1.4,MacIntel,59.99880002,,,,,,,,,,,,,,,,,,,,,,,,,,,,,,,,,,,,,,,,,,,,,,,,,,,,,,,,,,,,,,,,,,,,,,,,,,,,,,2,7.689315,0,8,8,8,1,"Sometimes when I am reading poetry or looking at a work of art, I feel a chill or wave of excitement.",0,9,,
,,,,,,,,,,,,,,,90193,001,2022-04-28_19h36.05.417,SPAMnetsValid,2021.1.4,MacIntel,59.99880002,,,,,,,,,,,,,,,,,,,,,,,,,,,,,,,,,,,,,,,,,,,,,,,,,,,,,,,,,,,,,,,,,,,,,,,,,,,,,,2,4.75737,0,9,9,9,1,I have little interest in speculating on the nature of the universe or the human condition.,1,10,,
,,,,,,,,,,,,,,,90193,001,2022-04-28_19h36.05.417,SPAMnetsValid,2021.1.4,MacIntel,59.99880002,,,,,,,,,,,,,,,,,,,,,,,,,,,,,,,,,,,,,,,,,,,,,,,,,,,,,,,,,,,,,,,,,,,,,,,,,,,,,,4,2.692295,0,10,10,10,1,I have a lot of intellectual curiosity.,0,11,,
,,,,,,,,,,,,,,,90193,001,2022-04-28_19h36.05.417,SPAMnetsValid,2021.1.4,MacIntel,59.99880002,,,,,,,,,,,,,,,,,,,,,,,,,,,,,,,,,,,,,,,,,,,,,,,,,,,,,,,,,,,,,,,,,,,,,,,,,,,,,,4,2.05706,0,11,11,11,1,I often enjoy playing with theories or abstract ideas.,0,12,,
,,,,,,,,,,,,,,,90193,001,2022-04-28_19h36.05.417,SPAMnetsValid,2021.1.4,MacIntel,59.99880002,,,,,,,,,,,,,,,,,,,,,,,,,,,,,,,,,,,,,,,,,,,,,,,,,,,,,,,,,,,,,,,,,,,,,,,,,,,,,,,,,,,,,,,,return,32.610175
