key_resp_3.keys,key_resp_3.rt,slider_2.response,slider_2.rt,rjt_rating,rjt_RT,trials_24.thisRepN,trials_24.thisTrialN,trials_24.thisN,trials_24.thisIndex,trials_24.ran,rjt_order,word1,word2,attention,participant,session,date,expName,psychopyVersion,OS,frameRate,trials_4.thisRepN,trials_4.thisTrialN,trials_4.thisN,trials_4.thisIndex,trials_4.ran,trials_5.thisRepN,trials_5.thisTrialN,trials_5.thisN,trials_5.thisIndex,trials_5.ran,repOne,repTwo,slider.response,slider.rt,trials_22.thisRepN,trials_22.thisTrialN,trials_22.thisN,trials_22.thisIndex,trials_22.ran,trials_99.thisRepN,trials_99.thisTrialN,trials_99.thisN,trials_99.thisIndex,trials_99.ran,slider_extend_2.response,slider_extend_2.rt,trials_6.thisRepN,trials_6.thisTrialN,trials_6.thisN,trials_6.thisIndex,trials_6.ran,vCue2,R1,R2,R3,R4,correct,sliderVocab.response,sliderVocab.rt,trials_7.thisRepN,trials_7.thisTrialN,trials_7.thisN,trials_7.thisIndex,trials_7.ran,VocabCue,VR1,VR2,VR3,VR4,VR5,VocabCorrect,AUT_resp,AUT_label,trials.thisRepN,trials.thisTrialN,trials.thisN,trials.thisIndex,trials.ran,trials_2.thisRepN,trials_2.thisTrialN,trials_2.thisN,trials_2.thisIndex,trials_2.ran,aut_prompt,VF_response,VF_tag,trials_16.thisRepN,trials_16.thisTrialN,trials_16.thisN,trials_16.thisIndex,trials_16.ran,trials_17.thisRepN,trials_17.thisTrialN,trials_17.thisN,trials_17.thisIndex,trials_17.ran,VFcond,open_slider.response,open_slider.rt,trials_3.thisRepN,trials_3.thisTrialN,trials_3.thisN,trials_3.thisIndex,trials_3.ran,OpenQ,Rev,OPEN_ORDER,key_resp_2.keys,key_resp_2.rt
return,246.7219,3,12.7606,3,12.7606,0,0,0,64,1,157,refrigerator,rose,,90211,001,2022-04-29_15h26.32.251,SPAMnetsValid,2021.1.4,Win32,59.76214666,,,,,,,,,,,,,,,,,,,,,,,,,,,,,,,,,,,,,,,,,,,,,,,,,,,,,,,,,,,,,,,,,,,,,,,,,,,,,,,,,,,,,,,,,
,,1,2.2759,1,2.2759,0,1,1,15,1,145,cactus,yogurt,,90211,001,2022-04-29_15h26.32.251,SPAMnetsValid,2021.1.4,Win32,59.76214666,,,,,,,,,,,,,,,,,,,,,,,,,,,,,,,,,,,,,,,,,,,,,,,,,,,,,,,,,,,,,,,,,,,,,,,,,,,,,,,,,,,,,,,,,
,,6,1.6216,6,1.6216,0,2,2,44,1,116,cake,chocolate,,90211,001,2022-04-29_15h26.32.251,SPAMnetsValid,2021.1.4,Win32,59.76214666,,,,,,,,,,,,,,,,,,,,,,,,,,,,,,,,,,,,,,,,,,,,,,,,,,,,,,,,,,,,,,,,,,,,,,,,,,,,,,,,,,,,,,,,,
,,2,1.9117,2,1.9117,0,3,3,17,1,99,garden,melon,,90211,001,2022-04-29_15h26.32.251,SPAMnetsValid,2021.1.4,Win32,59.76214666,,,,,,,,,,,,,,,,,,,,,,,,,,,,,,,,,,,,,,,,,,,,,,,,,,,,,,,,,,,,,,,,,,,,,,,,,,,,,,,,,,,,,,,,,
,,3,3.7214,3,3.7214,0,4,4,24,1,169,onion,yogurt,,90211,001,2022-04-29_15h26.32.251,SPAMnetsValid,2021.1.4,Win32,59.76214666,,,,,,,,,,,,,,,,,,,,,,,,,,,,,,,,,,,,,,,,,,,,,,,,,,,,,,,,,,,,,,,,,,,,,,,,,,,,,,,,,,,,,,,,,
,,8,13.2302,8,13.2302,0,5,5,49,1,152,cactus,strawberry,,90211,001,2022-04-29_15h26.32.251,SPAMnetsValid,2021.1.4,Win32,59.76214666,,,,,,,,,,,,,,,,,,,,,,,,,,,,,,,,,,,,,,,,,,,,,,,,,,,,,,,,,,,,,,,,,,,,,,,,,,,,,,,,,,,,,,,,,
,,2,0.9051,2,0.9051,0,6,6,18,1,119,strawberry,tree,,90211,001,2022-04-29_15h26.32.251,SPAMnetsValid,2021.1.4,Win32,59.76214666,,,,,,,,,,,,,,,,,,,,,,,,,,,,,,,,,,,,,,,,,,,,,,,,,,,,,,,,,,,,,,,,,,,,,,,,,,,,,,,,,,,,,,,,,
,,4,1.3103,4,1.3103,0,7,7,37,1,139,carrot,strawberry,,90211,001,2022-04-29_15h26.32.251,SPAMnetsValid,2021.1.4,Win32,59.76214666,,,,,,,,,,,,,,,,,,,,,,,,,,,,,,,,,,,,,,,,,,,,,,,,,,,,,,,,,,,,,,,,,,,,,,,,,,,,,,,,,,,,,,,,,
,,4,0.5987,4,0.5987,0,8,8,88,1,171,cake,tomato,,90211,001,2022-04-29_15h26.32.251,SPAMnetsValid,2021.1.4,Win32,59.76214666,,,,,,,,,,,,,,,,,,,,,,,,,,,,,,,,,,,,,,,,,,,,,,,,,,,,,,,,,,,,,,,,,,,,,,,,,,,,,,,,,,,,,,,,,
,,6,1.4367,6,1.4367,0,9,9,30,1,125,carrot,tree,,90211,001,2022-04-29_15h26.32.251,SPAMnetsValid,2021.1.4,Win32,59.76214666,,,,,,,,,,,,,,,,,,,,,,,,,,,,,,,,,,,,,,,,,,,,,,,,,,,,,,,,,,,,,,,,,,,,,,,,,,,,,,,,,,,,,,,,,
,,4,0.7482,4,0.7482,0,10,10,26,1,107,rose,tomato,,90211,001,2022-04-29_15h26.32.251,SPAMnetsValid,2021.1.4,Win32,59.76214666,,,,,,,,,,,,,,,,,,,,,,,,,,,,,,,,,,,,,,,,,,,,,,,,,,,,,,,,,,,,,,,,,,,,,,,,,,,,,,,,,,,,,,,,,
,,3,1.7251,3,1.7251,0,11,11,93,1,134,carrot,flower,,90211,001,2022-04-29_15h26.32.251,SPAMnetsValid,2021.1.4,Win32,59.76214666,,,,,,,,,,,,,,,,,,,,,,,,,,,,,,,,,,,,,,,,,,,,,,,,,,,,,,,,,,,,,,,,,,,,,,,,,,,,,,,,,,,,,,,,,
,,8,4.0768,8,4.0768,0,12,12,75,1,178,cactus,carrot,,90211,001,2022-04-29_15h26.32.251,SPAMnetsValid,2021.1.4,Win32,59.76214666,,,,,,,,,,,,,,,,,,,,,,,,,,,,,,,,,,,,,,,,,,,,,,,,,,,,,,,,,,,,,,,,,,,,,,,,,,,,,,,,,,,,,,,,,
,,4,1.6171,4,1.6171,0,13,13,73,1,135,carrot,oven,,90211,001,2022-04-29_15h26.32.251,SPAMnetsValid,2021.1.4,Win32,59.76214666,,,,,,,,,,,,,,,,,,,,,,,,,,,,,,,,,,,,,,,,,,,,,,,,,,,,,,,,,,,,,,,,,,,,,,,,,,,,,,,,,,,,,,,,,
,,2,1.433,2,1.433,0,14,14,77,1,172,kitchen,melon,,90211,001,2022-04-29_15h26.32.251,SPAMnetsValid,2021.1.4,Win32,59.76214666,,,,,,,,,,,,,,,,,,,,,,,,,,,,,,,,,,,,,,,,,,,,,,,,,,,,,,,,,,,,,,,,,,,,,,,,,,,,,,,,,,,,,,,,,
,,1,1.5553,1,1.5553,0,15,15,62,1,189,onion,tree,,90211,001,2022-04-29_15h26.32.251,SPAMnetsValid,2021.1.4,Win32,59.76214666,,,,,,,,,,,,,,,,,,,,,,,,,,,,,,,,,,,,,,,,,,,,,,,,,,,,,,,,,,,,,,,,,,,,,,,,,,,,,,,,,,,,,,,,,
,,2,1.5526,2,1.5526,0,16,16,76,1,102,chocolate,refrigerator,,90211,001,2022-04-29_15h26.32.251,SPAMnetsValid,2021.1.4,Win32,59.76214666,,,,,,,,,,,,,,,,,,,,,,,,,,,,,,,,,,,,,,,,,,,,,,,,,,,,,,,,,,,,,,,,,,,,,,,,,,,,,,,,,,,,,,,,,
,,2,2.1725,2,2.1725,0,17,17,94,1,133,cake,flower,,90211,001,2022-04-29_15h26.32.251,SPAMnetsValid,2021.1.4,Win32,59.76214666,,,,,,,,,,,,,,,,,,,,,,,,,,,,,,,,,,,,,,,,,,,,,,,,,,,,,,,,,,,,,,,,,,,,,,,,,,,,,,,,,,,,,,,,,
,,2,1.2736,2,1.2736,0,18,18,50,1,126,kitchen,tree,,90211,001,2022-04-29_15h26.32.251,SPAMnetsValid,2021.1.4,Win32,59.76214666,,,,,,,,,,,,,,,,,,,,,,,,,,,,,,,,,,,,,,,,,,,,,,,,,,,,,,,,,,,,,,,,,,,,,,,,,,,,,,,,,,,,,,,,,
,,3,4.0217,3,4.0217,0,19,19,36,1,161,kitchen,pretzel,,90211,001,2022-04-29_15h26.32.251,SPAMnetsValid,2021.1.4,Win32,59.76214666,,,,,,,,,,,,,,,,,,,,,,,,,,,,,,,,,,,,,,,,,,,,,,,,,,,,,,,,,,,,,,,,,,,,,,,,,,,,,,,,,,,,,,,,,
,,7,9.986,7,9.986,0,20,20,11,1,117,melon,strawberry,,90211,001,2022-04-29_15h26.32.251,SPAMnetsValid,2021.1.4,Win32,59.76214666,,,,,,,,,,,,,,,,,,,,,,,,,,,,,,,,,,,,,,,,,,,,,,,,,,,,,,,,,,,,,,,,,,,,,,,,,,,,,,,,,,,,,,,,,
,,8,1.7792,8,1.7792,0,21,21,66,1,150,microwave,refrigerator,,90211,001,2022-04-29_15h26.32.251,SPAMnetsValid,2021.1.4,Win32,59.76214666,,,,,,,,,,,,,,,,,,,,,,,,,,,,,,,,,,,,,,,,,,,,,,,,,,,,,,,,,,,,,,,,,,,,,,,,,,,,,,,,,,,,,,,,,
,,2,2.2421,2,2.2421,0,22,22,43,1,185,cactus,rose,,90211,001,2022-04-29_15h26.32.251,SPAMnetsValid,2021.1.4,Win32,59.76214666,,,,,,,,,,,,,,,,,,,,,,,,,,,,,,,,,,,,,,,,,,,,,,,,,,,,,,,,,,,,,,,,,,,,,,,,,,,,,,,,,,,,,,,,,
,,2,4.9182,2,4.9182,0,23,23,2,1,174,cake,pretzel,,90211,001,2022-04-29_15h26.32.251,SPAMnetsValid,2021.1.4,Win32,59.76214666,,,,,,,,,,,,,,,,,,,,,,,,,,,,,,,,,,,,,,,,,,,,,,,,,,,,,,,,,,,,,,,,,,,,,,,,,,,,,,,,,,,,,,,,,
,,1,1.4421,1,1.4421,0,24,24,79,1,103,pretzel,tomato,,90211,001,2022-04-29_15h26.32.251,SPAMnetsValid,2021.1.4,Win32,59.76214666,,,,,,,,,,,,,,,,,,,,,,,,,,,,,,,,,,,,,,,,,,,,,,,,,,,,,,,,,,,,,,,,,,,,,,,,,,,,,,,,,,,,,,,,,
,,8,1.6555,8,1.6555,0,25,25,60,1,122,flower,garden,,90211,001,2022-04-29_15h26.32.251,SPAMnetsValid,2021.1.4,Win32,59.76214666,,,,,,,,,,,,,,,,,,,,,,,,,,,,,,,,,,,,,,,,,,,,,,,,,,,,,,,,,,,,,,,,,,,,,,,,,,,,,,,,,,,,,,,,,
,,2,2.0498,2,2.0498,0,26,26,57,1,127,cactus,chocolate,,90211,001,2022-04-29_15h26.32.251,SPAMnetsValid,2021.1.4,Win32,59.76214666,,,,,,,,,,,,,,,,,,,,,,,,,,,,,,,,,,,,,,,,,,,,,,,,,,,,,,,,,,,,,,,,,,,,,,,,,,,,,,,,,,,,,,,,,
,,6,4.6522,6,4.6522,0,27,27,5,1,108,carrot,chocolate,,90211,001,2022-04-29_15h26.32.251,SPAMnetsValid,2021.1.4,Win32,59.76214666,,,,,,,,,,,,,,,,,,,,,,,,,,,,,,,,,,,,,,,,,,,,,,,,,,,,,,,,,,,,,,,,,,,,,,,,,,,,,,,,,,,,,,,,,
,,4,6.8243,4,6.8243,0,28,28,72,1,181,carrot,kitchen,,90211,001,2022-04-29_15h26.32.251,SPAMnetsValid,2021.1.4,Win32,59.76214666,,,,,,,,,,,,,,,,,,,,,,,,,,,,,,,,,,,,,,,,,,,,,,,,,,,,,,,,,,,,,,,,,,,,,,,,,,,,,,,,,,,,,,,,,
,,2,2.0034,2,2.0034,0,29,29,7,1,188,flower,tree,,90211,001,2022-04-29_15h26.32.251,SPAMnetsValid,2021.1.4,Win32,59.76214666,,,,,,,,,,,,,,,,,,,,,,,,,,,,,,,,,,,,,,,,,,,,,,,,,,,,,,,,,,,,,,,,,,,,,,,,,,,,,,,,,,,,,,,,,
,,3,0.9887,3,0.9887,0,30,30,3,1,129,cactus,refrigerator,,90211,001,2022-04-29_15h26.32.251,SPAMnetsValid,2021.1.4,Win32,59.76214666,,,,,,,,,,,,,,,,,,,,,,,,,,,,,,,,,,,,,,,,,,,,,,,,,,,,,,,,,,,,,,,,,,,,,,,,,,,,,,,,,,,,,,,,,
,,2,2.1477,2,2.1477,0,31,31,28,1,154,strawberry,yogurt,,90211,001,2022-04-29_15h26.32.251,SPAMnetsValid,2021.1.4,Win32,59.76214666,,,,,,,,,,,,,,,,,,,,,,,,,,,,,,,,,,,,,,,,,,,,,,,,,,,,,,,,,,,,,,,,,,,,,,,,,,,,,,,,,,,,,,,,,
,,2,3.523,2,3.523,0,32,32,68,1,180,tree,yogurt,,90211,001,2022-04-29_15h26.32.251,SPAMnetsValid,2021.1.4,Win32,59.76214666,,,,,,,,,,,,,,,,,,,,,,,,,,,,,,,,,,,,,,,,,,,,,,,,,,,,,,,,,,,,,,,,,,,,,,,,,,,,,,,,,,,,,,,,,
,,3,1.3324,3,1.3324,0,33,33,54,1,101,cactus,kitchen,,90211,001,2022-04-29_15h26.32.251,SPAMnetsValid,2021.1.4,Win32,59.76214666,,,,,,,,,,,,,,,,,,,,,,,,,,,,,,,,,,,,,,,,,,,,,,,,,,,,,,,,,,,,,,,,,,,,,,,,,,,,,,,,,,,,,,,,,
,,9,2.3722,9,2.3722,0,34,34,51,1,168,cactus,flower,,90211,001,2022-04-29_15h26.32.251,SPAMnetsValid,2021.1.4,Win32,59.76214666,,,,,,,,,,,,,,,,,,,,,,,,,,,,,,,,,,,,,,,,,,,,,,,,,,,,,,,,,,,,,,,,,,,,,,,,,,,,,,,,,,,,,,,,,
,,2,2.1645,2,2.1645,0,35,35,19,1,183,cake,rose,,90211,001,2022-04-29_15h26.32.251,SPAMnetsValid,2021.1.4,Win32,59.76214666,,,,,,,,,,,,,,,,,,,,,,,,,,,,,,,,,,,,,,,,,,,,,,,,,,,,,,,,,,,,,,,,,,,,,,,,,,,,,,,,,,,,,,,,,
,,2,1.4976,2,1.4976,0,36,36,41,1,175,melon,onion,,90211,001,2022-04-29_15h26.32.251,SPAMnetsValid,2021.1.4,Win32,59.76214666,,,,,,,,,,,,,,,,,,,,,,,,,,,,,,,,,,,,,,,,,,,,,,,,,,,,,,,,,,,,,,,,,,,,,,,,,,,,,,,,,,,,,,,,,
,,2,1.0817,2,1.0817,0,37,37,81,1,104,garden,microwave,,90211,001,2022-04-29_15h26.32.251,SPAMnetsValid,2021.1.4,Win32,59.76214666,,,,,,,,,,,,,,,,,,,,,,,,,,,,,,,,,,,,,,,,,,,,,,,,,,,,,,,,,,,,,,,,,,,,,,,,,,,,,,,,,,,,,,,,,
,,3,0.869,3,0.869,0,38,38,82,1,98,pretzel,strawberry,,90211,001,2022-04-29_15h26.32.251,SPAMnetsValid,2021.1.4,Win32,59.76214666,,,,,,,,,,,,,,,,,,,,,,,,,,,,,,,,,,,,,,,,,,,,,,,,,,,,,,,,,,,,,,,,,,,,,,,,,,,,,,,,,,,,,,,,,
,,7,0.8373,7,0.8373,0,39,39,59,1,164,cookie,garden,,90211,001,2022-04-29_15h26.32.251,SPAMnetsValid,2021.1.4,Win32,59.76214666,,,,,,,,,,,,,,,,,,,,,,,,,,,,,,,,,,,,,,,,,,,,,,,,,,,,,,,,,,,,,,,,,,,,,,,,,,,,,,,,,,,,,,,,,
,,3,0.6586,3,0.6586,0,40,40,86,1,193,melon,melon,CHECK,90211,001,2022-04-29_15h26.32.251,SPAMnetsValid,2021.1.4,Win32,59.76214666,,,,,,,,,,,,,,,,,,,,,,,,,,,,,,,,,,,,,,,,,,,,,,,,,,,,,,,,,,,,,,,,,,,,,,,,,,,,,,,,,,,,,,,,,
,,3,0.525,3,0.525,0,41,41,87,1,114,cookie,strawberry,,90211,001,2022-04-29_15h26.32.251,SPAMnetsValid,2021.1.4,Win32,59.76214666,,,,,,,,,,,,,,,,,,,,,,,,,,,,,,,,,,,,,,,,,,,,,,,,,,,,,,,,,,,,,,,,,,,,,,,,,,,,,,,,,,,,,,,,,
,,6,1.0566,6,1.0566,0,42,42,12,1,162,microwave,tomato,,90211,001,2022-04-29_15h26.32.251,SPAMnetsValid,2021.1.4,Win32,59.76214666,,,,,,,,,,,,,,,,,,,,,,,,,,,,,,,,,,,,,,,,,,,,,,,,,,,,,,,,,,,,,,,,,,,,,,,,,,,,,,,,,,,,,,,,,
,,3,0.6321,3,0.6321,0,43,43,90,1,190,microwave,strawberry,,90211,001,2022-04-29_15h26.32.251,SPAMnetsValid,2021.1.4,Win32,59.76214666,,,,,,,,,,,,,,,,,,,,,,,,,,,,,,,,,,,,,,,,,,,,,,,,,,,,,,,,,,,,,,,,,,,,,,,,,,,,,,,,,,,,,,,,,
,,2,0.7197,2,0.7197,0,44,44,69,1,124,oven,refrigerator,,90211,001,2022-04-29_15h26.32.251,SPAMnetsValid,2021.1.4,Win32,59.76214666,,,,,,,,,,,,,,,,,,,,,,,,,,,,,,,,,,,,,,,,,,,,,,,,,,,,,,,,,,,,,,,,,,,,,,,,,,,,,,,,,,,,,,,,,
,,1,1.3209,1,1.3209,0,45,45,10,1,118,chocolate,oven,,90211,001,2022-04-29_15h26.32.251,SPAMnetsValid,2021.1.4,Win32,59.76214666,,,,,,,,,,,,,,,,,,,,,,,,,,,,,,,,,,,,,,,,,,,,,,,,,,,,,,,,,,,,,,,,,,,,,,,,,,,,,,,,,,,,,,,,,
,,3,1.3169,3,1.3169,0,46,46,92,1,170,cookie,microwave,,90211,001,2022-04-29_15h26.32.251,SPAMnetsValid,2021.1.4,Win32,59.76214666,,,,,,,,,,,,,,,,,,,,,,,,,,,,,,,,,,,,,,,,,,,,,,,,,,,,,,,,,,,,,,,,,,,,,,,,,,,,,,,,,,,,,,,,,
,,9,2.2489,9,2.2489,0,47,47,25,1,194,cactus,cactus,CHECK,90211,001,2022-04-29_15h26.32.251,SPAMnetsValid,2021.1.4,Win32,59.76214666,,,,,,,,,,,,,,,,,,,,,,,,,,,,,,,,,,,,,,,,,,,,,,,,,,,,,,,,,,,,,,,,,,,,,,,,,,,,,,,,,,,,,,,,,
,,2,7.2515,2,7.2515,0,48,48,0,1,106,cake,strawberry,,90211,001,2022-04-29_15h26.32.251,SPAMnetsValid,2021.1.4,Win32,59.76214666,,,,,,,,,,,,,,,,,,,,,,,,,,,,,,,,,,,,,,,,,,,,,,,,,,,,,,,,,,,,,,,,,,,,,,,,,,,,,,,,,,,,,,,,,
,,3,2.1066,3,2.1066,0,49,49,45,1,179,broom,oven,,90211,001,2022-04-29_15h26.32.251,SPAMnetsValid,2021.1.4,Win32,59.76214666,,,,,,,,,,,,,,,,,,,,,,,,,,,,,,,,,,,,,,,,,,,,,,,,,,,,,,,,,,,,,,,,,,,,,,,,,,,,,,,,,,,,,,,,,
,,7,9.739,7,9.739,0,50,50,38,1,155,carrot,cookie,,90211,001,2022-04-29_15h26.32.251,SPAMnetsValid,2021.1.4,Win32,59.76214666,,,,,,,,,,,,,,,,,,,,,,,,,,,,,,,,,,,,,,,,,,,,,,,,,,,,,,,,,,,,,,,,,,,,,,,,,,,,,,,,,,,,,,,,,
,,2,1.8555,2,1.8555,0,51,51,31,1,156,melon,rose,,90211,001,2022-04-29_15h26.32.251,SPAMnetsValid,2021.1.4,Win32,59.76214666,,,,,,,,,,,,,,,,,,,,,,,,,,,,,,,,,,,,,,,,,,,,,,,,,,,,,,,,,,,,,,,,,,,,,,,,,,,,,,,,,,,,,,,,,
,,2,21.7242,2,21.7242,0,52,52,1,1,173,kitchen,tomato,,90211,001,2022-04-29_15h26.32.251,SPAMnetsValid,2021.1.4,Win32,59.76214666,,,,,,,,,,,,,,,,,,,,,,,,,,,,,,,,,,,,,,,,,,,,,,,,,,,,,,,,,,,,,,,,,,,,,,,,,,,,,,,,,,,,,,,,,
,,2,1.4683,2,1.4683,0,53,53,8,1,97,chocolate,kitchen,,90211,001,2022-04-29_15h26.32.251,SPAMnetsValid,2021.1.4,Win32,59.76214666,,,,,,,,,,,,,,,,,,,,,,,,,,,,,,,,,,,,,,,,,,,,,,,,,,,,,,,,,,,,,,,,,,,,,,,,,,,,,,,,,,,,,,,,,
,,2,1.1722,2,1.1722,0,54,54,56,1,113,refrigerator,strawberry,,90211,001,2022-04-29_15h26.32.251,SPAMnetsValid,2021.1.4,Win32,59.76214666,,,,,,,,,,,,,,,,,,,,,,,,,,,,,,,,,,,,,,,,,,,,,,,,,,,,,,,,,,,,,,,,,,,,,,,,,,,,,,,,,,,,,,,,,
,,1,9.4887,1,9.4887,0,55,55,52,1,110,chocolate,cookie,,90211,001,2022-04-29_15h26.32.251,SPAMnetsValid,2021.1.4,Win32,59.76214666,,,,,,,,,,,,,,,,,,,,,,,,,,,,,,,,,,,,,,,,,,,,,,,,,,,,,,,,,,,,,,,,,,,,,,,,,,,,,,,,,,,,,,,,,
,,2,0.6545,2,0.6545,0,56,56,70,1,141,melon,tomato,,90211,001,2022-04-29_15h26.32.251,SPAMnetsValid,2021.1.4,Win32,59.76214666,,,,,,,,,,,,,,,,,,,,,,,,,,,,,,,,,,,,,,,,,,,,,,,,,,,,,,,,,,,,,,,,,,,,,,,,,,,,,,,,,,,,,,,,,
,,8,1.0174,8,1.0174,0,57,57,27,1,158,cookie,oven,,90211,001,2022-04-29_15h26.32.251,SPAMnetsValid,2021.1.4,Win32,59.76214666,,,,,,,,,,,,,,,,,,,,,,,,,,,,,,,,,,,,,,,,,,,,,,,,,,,,,,,,,,,,,,,,,,,,,,,,,,,,,,,,,,,,,,,,,
,,7,0.5725,7,0.5725,0,58,58,84,1,130,microwave,yogurt,,90211,001,2022-04-29_15h26.32.251,SPAMnetsValid,2021.1.4,Win32,59.76214666,,,,,,,,,,,,,,,,,,,,,,,,,,,,,,,,,,,,,,,,,,,,,,,,,,,,,,,,,,,,,,,,,,,,,,,,,,,,,,,,,,,,,,,,,
,,3,1.1482,3,1.1482,0,59,59,55,1,143,pretzel,rose,,90211,001,2022-04-29_15h26.32.251,SPAMnetsValid,2021.1.4,Win32,59.76214666,,,,,,,,,,,,,,,,,,,,,,,,,,,,,,,,,,,,,,,,,,,,,,,,,,,,,,,,,,,,,,,,,,,,,,,,,,,,,,,,,,,,,,,,,
,,3,1.1992,3,1.1992,0,60,60,35,1,147,cake,refrigerator,,90211,001,2022-04-29_15h26.32.251,SPAMnetsValid,2021.1.4,Win32,59.76214666,,,,,,,,,,,,,,,,,,,,,,,,,,,,,,,,,,,,,,,,,,,,,,,,,,,,,,,,,,,,,,,,,,,,,,,,,,,,,,,,,,,,,,,,,
,,7,1.2177,7,1.2177,0,61,61,83,1,100,garden,tomato,,90211,001,2022-04-29_15h26.32.251,SPAMnetsValid,2021.1.4,Win32,59.76214666,,,,,,,,,,,,,,,,,,,,,,,,,,,,,,,,,,,,,,,,,,,,,,,,,,,,,,,,,,,,,,,,,,,,,,,,,,,,,,,,,,,,,,,,,
,,7,1.444,7,1.444,0,62,62,91,1,166,cake,yogurt,,90211,001,2022-04-29_15h26.32.251,SPAMnetsValid,2021.1.4,Win32,59.76214666,,,,,,,,,,,,,,,,,,,,,,,,,,,,,,,,,,,,,,,,,,,,,,,,,,,,,,,,,,,,,,,,,,,,,,,,,,,,,,,,,,,,,,,,,
,,4,1.5912,4,1.5912,0,63,63,22,1,142,garden,tree,,90211,001,2022-04-29_15h26.32.251,SPAMnetsValid,2021.1.4,Win32,59.76214666,,,,,,,,,,,,,,,,,,,,,,,,,,,,,,,,,,,,,,,,,,,,,,,,,,,,,,,,,,,,,,,,,,,,,,,,,,,,,,,,,,,,,,,,,
,,3,0.6332,3,0.6332,0,64,64,14,1,120,microwave,oven,,90211,001,2022-04-29_15h26.32.251,SPAMnetsValid,2021.1.4,Win32,59.76214666,,,,,,,,,,,,,,,,,,,,,,,,,,,,,,,,,,,,,,,,,,,,,,,,,,,,,,,,,,,,,,,,,,,,,,,,,,,,,,,,,,,,,,,,,
,,6,1.171,6,1.171,0,65,65,46,1,123,cookie,tree,,90211,001,2022-04-29_15h26.32.251,SPAMnetsValid,2021.1.4,Win32,59.76214666,,,,,,,,,,,,,,,,,,,,,,,,,,,,,,,,,,,,,,,,,,,,,,,,,,,,,,,,,,,,,,,,,,,,,,,,,,,,,,,,,,,,,,,,,
,,2,1.3804,2,1.3804,0,66,66,78,1,132,broom,tree,,90211,001,2022-04-29_15h26.32.251,SPAMnetsValid,2021.1.4,Win32,59.76214666,,,,,,,,,,,,,,,,,,,,,,,,,,,,,,,,,,,,,,,,,,,,,,,,,,,,,,,,,,,,,,,,,,,,,,,,,,,,,,,,,,,,,,,,,
,,3,2.0021,3,2.0021,0,67,67,85,1,115,refrigerator,tomato,,90211,001,2022-04-29_15h26.32.251,SPAMnetsValid,2021.1.4,Win32,59.76214666,,,,,,,,,,,,,,,,,,,,,,,,,,,,,,,,,,,,,,,,,,,,,,,,,,,,,,,,,,,,,,,,,,,,,,,,,,,,,,,,,,,,,,,,,
,,2,1.8156,2,1.8156,0,68,68,13,1,105,cactus,oven,,90211,001,2022-04-29_15h26.32.251,SPAMnetsValid,2021.1.4,Win32,59.76214666,,,,,,,,,,,,,,,,,,,,,,,,,,,,,,,,,,,,,,,,,,,,,,,,,,,,,,,,,,,,,,,,,,,,,,,,,,,,,,,,,,,,,,,,,
,,2,1.268,2,1.268,0,69,69,4,1,109,broom,strawberry,,90211,001,2022-04-29_15h26.32.251,SPAMnetsValid,2021.1.4,Win32,59.76214666,,,,,,,,,,,,,,,,,,,,,,,,,,,,,,,,,,,,,,,,,,,,,,,,,,,,,,,,,,,,,,,,,,,,,,,,,,,,,,,,,,,,,,,,,
,,2,1.4221,2,1.4221,0,70,70,20,1,149,broom,tomato,,90211,001,2022-04-29_15h26.32.251,SPAMnetsValid,2021.1.4,Win32,59.76214666,,,,,,,,,,,,,,,,,,,,,,,,,,,,,,,,,,,,,,,,,,,,,,,,,,,,,,,,,,,,,,,,,,,,,,,,,,,,,,,,,,,,,,,,,
,,3,1.3218,3,1.3218,0,71,71,16,1,111,carrot,microwave,,90211,001,2022-04-29_15h26.32.251,SPAMnetsValid,2021.1.4,Win32,59.76214666,,,,,,,,,,,,,,,,,,,,,,,,,,,,,,,,,,,,,,,,,,,,,,,,,,,,,,,,,,,,,,,,,,,,,,,,,,,,,,,,,,,,,,,,,
,,4,2.3255,4,2.3255,0,72,72,48,1,186,kitchen,yogurt,,90211,001,2022-04-29_15h26.32.251,SPAMnetsValid,2021.1.4,Win32,59.76214666,,,,,,,,,,,,,,,,,,,,,,,,,,,,,,,,,,,,,,,,,,,,,,,,,,,,,,,,,,,,,,,,,,,,,,,,,,,,,,,,,,,,,,,,,
,,1,1.7427,1,1.7427,0,73,73,42,1,184,oven,pretzel,,90211,001,2022-04-29_15h26.32.251,SPAMnetsValid,2021.1.4,Win32,59.76214666,,,,,,,,,,,,,,,,,,,,,,,,,,,,,,,,,,,,,,,,,,,,,,,,,,,,,,,,,,,,,,,,,,,,,,,,,,,,,,,,,,,,,,,,,
,,9,2.0545,9,2.0545,0,74,74,61,1,138,flower,rose,,90211,001,2022-04-29_15h26.32.251,SPAMnetsValid,2021.1.4,Win32,59.76214666,,,,,,,,,,,,,,,,,,,,,,,,,,,,,,,,,,,,,,,,,,,,,,,,,,,,,,,,,,,,,,,,,,,,,,,,,,,,,,,,,,,,,,,,,
,,7,1.3922,7,1.3922,0,75,75,40,1,165,onion,rose,,90211,001,2022-04-29_15h26.32.251,SPAMnetsValid,2021.1.4,Win32,59.76214666,,,,,,,,,,,,,,,,,,,,,,,,,,,,,,,,,,,,,,,,,,,,,,,,,,,,,,,,,,,,,,,,,,,,,,,,,,,,,,,,,,,,,,,,,
,,2,1.5198,2,1.5198,0,76,76,32,1,182,flower,refrigerator,,90211,001,2022-04-29_15h26.32.251,SPAMnetsValid,2021.1.4,Win32,59.76214666,,,,,,,,,,,,,,,,,,,,,,,,,,,,,,,,,,,,,,,,,,,,,,,,,,,,,,,,,,,,,,,,,,,,,,,,,,,,,,,,,,,,,,,,,
,,8,2.0119,8,2.0119,0,77,77,33,1,131,cactus,garden,,90211,001,2022-04-29_15h26.32.251,SPAMnetsValid,2021.1.4,Win32,59.76214666,,,,,,,,,,,,,,,,,,,,,,,,,,,,,,,,,,,,,,,,,,,,,,,,,,,,,,,,,,,,,,,,,,,,,,,,,,,,,,,,,,,,,,,,,
,,2,9.2291,2,9.2291,0,78,78,74,1,128,melon,microwave,,90211,001,2022-04-29_15h26.32.251,SPAMnetsValid,2021.1.4,Win32,59.76214666,,,,,,,,,,,,,,,,,,,,,,,,,,,,,,,,,,,,,,,,,,,,,,,,,,,,,,,,,,,,,,,,,,,,,,,,,,,,,,,,,,,,,,,,,
,,6,2.2652,6,2.2652,0,79,79,39,1,112,cake,carrot,,90211,001,2022-04-29_15h26.32.251,SPAMnetsValid,2021.1.4,Win32,59.76214666,,,,,,,,,,,,,,,,,,,,,,,,,,,,,,,,,,,,,,,,,,,,,,,,,,,,,,,,,,,,,,,,,,,,,,,,,,,,,,,,,,,,,,,,,
,,1,1.7712,1,1.7712,0,80,80,63,1,137,microwave,tree,,90211,001,2022-04-29_15h26.32.251,SPAMnetsValid,2021.1.4,Win32,59.76214666,,,,,,,,,,,,,,,,,,,,,,,,,,,,,,,,,,,,,,,,,,,,,,,,,,,,,,,,,,,,,,,,,,,,,,,,,,,,,,,,,,,,,,,,,
,,1,2.3084,1,2.3084,0,81,81,21,1,159,cookie,flower,,90211,001,2022-04-29_15h26.32.251,SPAMnetsValid,2021.1.4,Win32,59.76214666,,,,,,,,,,,,,,,,,,,,,,,,,,,,,,,,,,,,,,,,,,,,,,,,,,,,,,,,,,,,,,,,,,,,,,,,,,,,,,,,,,,,,,,,,
,,8,1.7476,8,1.7476,0,82,82,47,1,167,carrot,garden,,90211,001,2022-04-29_15h26.32.251,SPAMnetsValid,2021.1.4,Win32,59.76214666,,,,,,,,,,,,,,,,,,,,,,,,,,,,,,,,,,,,,,,,,,,,,,,,,,,,,,,,,,,,,,,,,,,,,,,,,,,,,,,,,,,,,,,,,
,,1,1.5582,1,1.5582,0,83,83,34,1,153,carrot,pretzel,,90211,001,2022-04-29_15h26.32.251,SPAMnetsValid,2021.1.4,Win32,59.76214666,,,,,,,,,,,,,,,,,,,,,,,,,,,,,,,,,,,,,,,,,,,,,,,,,,,,,,,,,,,,,,,,,,,,,,,,,,,,,,,,,,,,,,,,,
,,1,3.3797,1,3.3797,0,84,84,80,1,146,pretzel,tree,,90211,001,2022-04-29_15h26.32.251,SPAMnetsValid,2021.1.4,Win32,59.76214666,,,,,,,,,,,,,,,,,,,,,,,,,,,,,,,,,,,,,,,,,,,,,,,,,,,,,,,,,,,,,,,,,,,,,,,,,,,,,,,,,,,,,,,,,
,,2,1.1051,2,1.1051,0,85,85,71,1,187,cactus,microwave,,90211,001,2022-04-29_15h26.32.251,SPAMnetsValid,2021.1.4,Win32,59.76214666,,,,,,,,,,,,,,,,,,,,,,,,,,,,,,,,,,,,,,,,,,,,,,,,,,,,,,,,,,,,,,,,,,,,,,,,,,,,,,,,,,,,,,,,,
,,2,0.7966,2,0.7966,0,86,86,89,1,140,cookie,refrigerator,,90211,001,2022-04-29_15h26.32.251,SPAMnetsValid,2021.1.4,Win32,59.76214666,,,,,,,,,,,,,,,,,,,,,,,,,,,,,,,,,,,,,,,,,,,,,,,,,,,,,,,,,,,,,,,,,,,,,,,,,,,,,,,,,,,,,,,,,
,,3,1.4905,3,1.4905,0,87,87,58,1,144,cake,garden,,90211,001,2022-04-29_15h26.32.251,SPAMnetsValid,2021.1.4,Win32,59.76214666,,,,,,,,,,,,,,,,,,,,,,,,,,,,,,,,,,,,,,,,,,,,,,,,,,,,,,,,,,,,,,,,,,,,,,,,,,,,,,,,,,,,,,,,,
,,1,1.4307,1,1.4307,0,88,88,95,1,121,broom,microwave,,90211,001,2022-04-29_15h26.32.251,SPAMnetsValid,2021.1.4,Win32,59.76214666,,,,,,,,,,,,,,,,,,,,,,,,,,,,,,,,,,,,,,,,,,,,,,,,,,,,,,,,,,,,,,,,,,,,,,,,,,,,,,,,,,,,,,,,,
,,5,5.3861,5,5.3861,0,89,89,65,1,160,cookie,kitchen,,90211,001,2022-04-29_15h26.32.251,SPAMnetsValid,2021.1.4,Win32,59.76214666,,,,,,,,,,,,,,,,,,,,,,,,,,,,,,,,,,,,,,,,,,,,,,,,,,,,,,,,,,,,,,,,,,,,,,,,,,,,,,,,,,,,,,,,,
,,5,2.7186,5,2.7186,0,90,90,23,1,148,flower,melon,,90211,001,2022-04-29_15h26.32.251,SPAMnetsValid,2021.1.4,Win32,59.76214666,,,,,,,,,,,,,,,,,,,,,,,,,,,,,,,,,,,,,,,,,,,,,,,,,,,,,,,,,,,,,,,,,,,,,,,,,,,,,,,,,,,,,,,,,
,,9,1.948,9,1.948,0,91,91,53,1,177,chocolate,strawberry,,90211,001,2022-04-29_15h26.32.251,SPAMnetsValid,2021.1.4,Win32,59.76214666,,,,,,,,,,,,,,,,,,,,,,,,,,,,,,,,,,,,,,,,,,,,,,,,,,,,,,,,,,,,,,,,,,,,,,,,,,,,,,,,,,,,,,,,,
,,2,1.5325,2,1.5325,0,92,92,96,1,136,chocolate,microwave,,90211,001,2022-04-29_15h26.32.251,SPAMnetsValid,2021.1.4,Win32,59.76214666,,,,,,,,,,,,,,,,,,,,,,,,,,,,,,,,,,,,,,,,,,,,,,,,,,,,,,,,,,,,,,,,,,,,,,,,,,,,,,,,,,,,,,,,,
,,2,1.3031,2,1.3031,0,93,93,67,1,96,oven,strawberry,,90211,001,2022-04-29_15h26.32.251,SPAMnetsValid,2021.1.4,Win32,59.76214666,,,,,,,,,,,,,,,,,,,,,,,,,,,,,,,,,,,,,,,,,,,,,,,,,,,,,,,,,,,,,,,,,,,,,,,,,,,,,,,,,,,,,,,,,
,,3,1.4571,3,1.4571,0,94,94,6,1,151,microwave,onion,,90211,001,2022-04-29_15h26.32.251,SPAMnetsValid,2021.1.4,Win32,59.76214666,,,,,,,,,,,,,,,,,,,,,,,,,,,,,,,,,,,,,,,,,,,,,,,,,,,,,,,,,,,,,,,,,,,,,,,,,,,,,,,,,,,,,,,,,
,,1,2.51,1,2.51,0,95,95,9,1,176,cactus,tomato,,90211,001,2022-04-29_15h26.32.251,SPAMnetsValid,2021.1.4,Win32,59.76214666,,,,,,,,,,,,,,,,,,,,,,,,,,,,,,,,,,,,,,,,,,,,,,,,,,,,,,,,,,,,,,,,,,,,,,,,,,,,,,,,,,,,,,,,,
,,5,2.5528,5,2.5528,0,96,96,29,1,163,melon,refrigerator,,90211,001,2022-04-29_15h26.32.251,SPAMnetsValid,2021.1.4,Win32,59.76214666,,,,,,,,,,,,,,,,,,,,,,,,,,,,,,,,,,,,,,,,,,,,,,,,,,,,,,,,,,,,,,,,,,,,,,,,,,,,,,,,,,,,,,,,,
,,,,,,,,,,,,,,,90211,001,2022-04-29_15h26.32.251,SPAMnetsValid,2021.1.4,Win32,59.76214666,0,0,0,0,1,,,,,,,,,,,,,,,,,,,,,,,,,,,,,,,,,,,,,,,,,,,,,,,,,,,,,,,,,,,,,,,,,,,,,,,,,,,,,,,,,,,,
,,,,,,,,,,,,,,,90211,001,2022-04-29_15h26.32.251,SPAMnetsValid,2021.1.4,Win32,59.76214666,,,,,,0,0,0,1,1,0,1,,,,,,,,,,,,,,,,,,,,,,,,,,,,,,,,,,,,,,,,,,,,,,,,,,,,,,,,,,,,,,,,,,,,,,,,,,,,,
,,,,5,3.8146,,,,,,77,refrigerator,yogurt,,90211,001,2022-04-29_15h26.32.251,SPAMnetsValid,2021.1.4,Win32,59.76214666,,,,,,,,,,,,,5,3.8146,0,0,0,42,1,,,,,,,,,,,,,,,,,,,,,,,,,,,,,,,,,,,,,,,,,,,,,,,,,,,,,,,,,,,,,,,,,,,,,,
,,,,4,79.5729,,,,,,15,onion,oven,,90211,001,2022-04-29_15h26.32.251,SPAMnetsValid,2021.1.4,Win32,59.76214666,,,,,,,,,,,,,4,79.5729,0,1,1,39,1,,,,,,,,,,,,,,,,,,,,,,,,,,,,,,,,,,,,,,,,,,,,,,,,,,,,,,,,,,,,,,,,,,,,,,
,,,,3,894.4731,,,,,,44,cookie,melon,,90211,001,2022-04-29_15h26.32.251,SPAMnetsValid,2021.1.4,Win32,59.76214666,,,,,,,,,,,,,3,894.4731,0,2,2,92,1,,,,,,,,,,,,,,,,,,,,,,,,,,,,,,,,,,,,,,,,,,,,,,,,,,,,,,,,,,,,,,,,,,,,,,
,,,,3,1.1971,,,,,,85,cake,tree,,90211,001,2022-04-29_15h26.32.251,SPAMnetsValid,2021.1.4,Win32,59.76214666,,,,,,,,,,,,,3,1.1971,0,3,3,18,1,,,,,,,,,,,,,,,,,,,,,,,,,,,,,,,,,,,,,,,,,,,,,,,,,,,,,,,,,,,,,,,,,,,,,,
,,,,2,1.0008,,,,,,33,oven,yogurt,,90211,001,2022-04-29_15h26.32.251,SPAMnetsValid,2021.1.4,Win32,59.76214666,,,,,,,,,,,,,2,1.0008,0,4,4,31,1,,,,,,,,,,,,,,,,,,,,,,,,,,,,,,,,,,,,,,,,,,,,,,,,,,,,,,,,,,,,,,,,,,,,,,
,,,,6,2.0066,,,,,,90,cactus,cake,,90211,001,2022-04-29_15h26.32.251,SPAMnetsValid,2021.1.4,Win32,59.76214666,,,,,,,,,,,,,6,2.0066,0,5,5,85,1,,,,,,,,,,,,,,,,,,,,,,,,,,,,,,,,,,,,,,,,,,,,,,,,,,,,,,,,,,,,,,,,,,,,,,
,,,,8,1.7908,,,,,,3,cake,oven,,90211,001,2022-04-29_15h26.32.251,SPAMnetsValid,2021.1.4,Win32,59.76214666,,,,,,,,,,,,,8,1.7908,0,6,6,30,1,,,,,,,,,,,,,,,,,,,,,,,,,,,,,,,,,,,,,,,,,,,,,,,,,,,,,,,,,,,,,,,,,,,,,,
,,,,6,2.1558,,,,,,7,melon,tree,,90211,001,2022-04-29_15h26.32.251,SPAMnetsValid,2021.1.4,Win32,59.76214666,,,,,,,,,,,,,6,2.1558,0,7,7,77,1,,,,,,,,,,,,,,,,,,,,,,,,,,,,,,,,,,,,,,,,,,,,,,,,,,,,,,,,,,,,,,,,,,,,,,
,,,,8,2.3487,,,,,,93,kitchen,oven,,90211,001,2022-04-29_15h26.32.251,SPAMnetsValid,2021.1.4,Win32,59.76214666,,,,,,,,,,,,,8,2.3487,0,8,8,82,1,,,,,,,,,,,,,,,,,,,,,,,,,,,,,,,,,,,,,,,,,,,,,,,,,,,,,,,,,,,,,,,,,,,,,,
,,,,1,3.6767,,,,,,64,chocolate,garden,,90211,001,2022-04-29_15h26.32.251,SPAMnetsValid,2021.1.4,Win32,59.76214666,,,,,,,,,,,,,1,3.6767,0,9,9,14,1,,,,,,,,,,,,,,,,,,,,,,,,,,,,,,,,,,,,,,,,,,,,,,,,,,,,,,,,,,,,,,,,,,,,,,
,,,,5,2.6342,,,,,,25,carrot,onion,,90211,001,2022-04-29_15h26.32.251,SPAMnetsValid,2021.1.4,Win32,59.76214666,,,,,,,,,,,,,5,2.6342,0,10,10,44,1,,,,,,,,,,,,,,,,,,,,,,,,,,,,,,,,,,,,,,,,,,,,,,,,,,,,,,,,,,,,,,,,,,,,,,
,,,,4,1.9539,,,,,,88,cactus,melon,,90211,001,2022-04-29_15h26.32.251,SPAMnetsValid,2021.1.4,Win32,59.76214666,,,,,,,,,,,,,4,1.9539,0,11,11,38,1,,,,,,,,,,,,,,,,,,,,,,,,,,,,,,,,,,,,,,,,,,,,,,,,,,,,,,,,,,,,,,,,,,,,,,
,,,,4,2.336,,,,,,75,cookie,onion,,90211,001,2022-04-29_15h26.32.251,SPAMnetsValid,2021.1.4,Win32,59.76214666,,,,,,,,,,,,,4,2.336,0,12,12,9,1,,,,,,,,,,,,,,,,,,,,,,,,,,,,,,,,,,,,,,,,,,,,,,,,,,,,,,,,,,,,,,,,,,,,,,
,,,,4,1.7768,,,,,,50,carrot,rose,,90211,001,2022-04-29_15h26.32.251,SPAMnetsValid,2021.1.4,Win32,59.76214666,,,,,,,,,,,,,4,1.7768,0,13,13,73,1,,,,,,,,,,,,,,,,,,,,,,,,,,,,,,,,,,,,,,,,,,,,,,,,,,,,,,,,,,,,,,,,,,,,,,
,,,,3,3.4334,,,,,,81,pretzel,yogurt,,90211,001,2022-04-29_15h26.32.251,SPAMnetsValid,2021.1.4,Win32,59.76214666,,,,,,,,,,,,,3,3.4334,0,14,14,50,1,,,,,,,,,,,,,,,,,,,,,,,,,,,,,,,,,,,,,,,,,,,,,,,,,,,,,,,,,,,,,,,,,,,,,,
,,,,2,1.7025,,,,,,39,melon,pretzel,,90211,001,2022-04-29_15h26.32.251,SPAMnetsValid,2021.1.4,Win32,59.76214666,,,,,,,,,,,,,2,1.7025,0,15,15,20,1,,,,,,,,,,,,,,,,,,,,,,,,,,,,,,,,,,,,,,,,,,,,,,,,,,,,,,,,,,,,,,,,,,,,,,
,,,,3,2.6193,,,,,,1,rose,yogurt,,90211,001,2022-04-29_15h26.32.251,SPAMnetsValid,2021.1.4,Win32,59.76214666,,,,,,,,,,,,,3,2.6193,0,16,16,55,1,,,,,,,,,,,,,,,,,,,,,,,,,,,,,,,,,,,,,,,,,,,,,,,,,,,,,,,,,,,,,,,,,,,,,,
,,,,2,2.271,,,,,,65,broom,garden,,90211,001,2022-04-29_15h26.32.251,SPAMnetsValid,2021.1.4,Win32,59.76214666,,,,,,,,,,,,,2,2.271,0,17,17,23,1,,,,,,,,,,,,,,,,,,,,,,,,,,,,,,,,,,,,,,,,,,,,,,,,,,,,,,,,,,,,,,,,,,,,,,
,,,,3,1.8747,,,,,,46,garden,yogurt,,90211,001,2022-04-29_15h26.32.251,SPAMnetsValid,2021.1.4,Win32,59.76214666,,,,,,,,,,,,,3,1.8747,0,18,18,65,1,,,,,,,,,,,,,,,,,,,,,,,,,,,,,,,,,,,,,,,,,,,,,,,,,,,,,,,,,,,,,,,,,,,,,,
,,,,2,5.1363,,,,,,41,broom,cactus,,90211,001,2022-04-29_15h26.32.251,SPAMnetsValid,2021.1.4,Win32,59.76214666,,,,,,,,,,,,,2,5.1363,0,19,19,46,1,,,,,,,,,,,,,,,,,,,,,,,,,,,,,,,,,,,,,,,,,,,,,,,,,,,,,,,,,,,,,,,,,,,,,,
,,,,9,1.4166,,,,,,191,cake,cake,CHECK,90211,001,2022-04-29_15h26.32.251,SPAMnetsValid,2021.1.4,Win32,59.76214666,,,,,,,,,,,,,9,1.4166,0,20,20,10,1,,,,,,,,,,,,,,,,,,,,,,,,,,,,,,,,,,,,,,,,,,,,,,,,,,,,,,,,,,,,,,,,,,,,,,
,,,,6,1.8888,,,,,,56,cactus,tree,,90211,001,2022-04-29_15h26.32.251,SPAMnetsValid,2021.1.4,Win32,59.76214666,,,,,,,,,,,,,6,1.8888,0,21,21,21,1,,,,,,,,,,,,,,,,,,,,,,,,,,,,,,,,,,,,,,,,,,,,,,,,,,,,,,,,,,,,,,,,,,,,,,
,,,,1,1.9324,,,,,,23,flower,microwave,,90211,001,2022-04-29_15h26.32.251,SPAMnetsValid,2021.1.4,Win32,59.76214666,,,,,,,,,,,,,1,1.9324,0,22,22,25,1,,,,,,,,,,,,,,,,,,,,,,,,,,,,,,,,,,,,,,,,,,,,,,,,,,,,,,,,,,,,,,,,,,,,,,
,,,,4,2.638,,,,,,36,broom,kitchen,,90211,001,2022-04-29_15h26.32.251,SPAMnetsValid,2021.1.4,Win32,59.76214666,,,,,,,,,,,,,4,2.638,0,23,23,76,1,,,,,,,,,,,,,,,,,,,,,,,,,,,,,,,,,,,,,,,,,,,,,,,,,,,,,,,,,,,,,,,,,,,,,,
,,,,6,1.7761,,,,,,18,onion,refrigerator,,90211,001,2022-04-29_15h26.32.251,SPAMnetsValid,2021.1.4,Win32,59.76214666,,,,,,,,,,,,,6,1.7761,0,24,24,62,1,,,,,,,,,,,,,,,,,,,,,,,,,,,,,,,,,,,,,,,,,,,,,,,,,,,,,,,,,,,,,,,,,,,,,,
,,,,2,3.6293,,,,,,72,broom,onion,,90211,001,2022-04-29_15h26.32.251,SPAMnetsValid,2021.1.4,Win32,59.76214666,,,,,,,,,,,,,2,3.6293,0,25,25,27,1,,,,,,,,,,,,,,,,,,,,,,,,,,,,,,,,,,,,,,,,,,,,,,,,,,,,,,,,,,,,,,,,,,,,,,
,,,,2,6.0396,,,,,,43,chocolate,tomato,,90211,001,2022-04-29_15h26.32.251,SPAMnetsValid,2021.1.4,Win32,59.76214666,,,,,,,,,,,,,2,6.0396,0,26,26,8,1,,,,,,,,,,,,,,,,,,,,,,,,,,,,,,,,,,,,,,,,,,,,,,,,,,,,,,,,,,,,,,,,,,,,,,
,,,,2,1.0535,,,,,,95,broom,refrigerator,,90211,001,2022-04-29_15h26.32.251,SPAMnetsValid,2021.1.4,Win32,59.76214666,,,,,,,,,,,,,2,1.0535,0,27,27,90,1,,,,,,,,,,,,,,,,,,,,,,,,,,,,,,,,,,,,,,,,,,,,,,,,,,,,,,,,,,,,,,,,,,,,,,
,,,,3,1.7187,,,,,,40,broom,cake,,90211,001,2022-04-29_15h26.32.251,SPAMnetsValid,2021.1.4,Win32,59.76214666,,,,,,,,,,,,,3,1.7187,0,28,28,32,1,,,,,,,,,,,,,,,,,,,,,,,,,,,,,,,,,,,,,,,,,,,,,,,,,,,,,,,,,,,,,,,,,,,,,,
,,,,3,1.2792,,,,,,32,cake,microwave,,90211,001,2022-04-29_15h26.32.251,SPAMnetsValid,2021.1.4,Win32,59.76214666,,,,,,,,,,,,,3,1.2792,0,29,29,33,1,,,,,,,,,,,,,,,,,,,,,,,,,,,,,,,,,,,,,,,,,,,,,,,,,,,,,,,,,,,,,,,,,,,,,,
,,,,2,1.1754,,,,,,27,cactus,cookie,,90211,001,2022-04-29_15h26.32.251,SPAMnetsValid,2021.1.4,Win32,59.76214666,,,,,,,,,,,,,2,1.1754,0,30,30,17,1,,,,,,,,,,,,,,,,,,,,,,,,,,,,,,,,,,,,,,,,,,,,,,,,,,,,,,,,,,,,,,,,,,,,,,
,,,,3,1.8818,,,,,,51,onion,strawberry,,90211,001,2022-04-29_15h26.32.251,SPAMnetsValid,2021.1.4,Win32,59.76214666,,,,,,,,,,,,,3,1.8818,0,31,31,86,1,,,,,,,,,,,,,,,,,,,,,,,,,,,,,,,,,,,,,,,,,,,,,,,,,,,,,,,,,,,,,,,,,,,,,,
,,,,3,2.0649,,,,,,86,oven,rose,,90211,001,2022-04-29_15h26.32.251,SPAMnetsValid,2021.1.4,Win32,59.76214666,,,,,,,,,,,,,3,2.0649,0,32,32,79,1,,,,,,,,,,,,,,,,,,,,,,,,,,,,,,,,,,,,,,,,,,,,,,,,,,,,,,,,,,,,,,,,,,,,,,
,,,,2,1.372,,,,,,91,microwave,rose,,90211,001,2022-04-29_15h26.32.251,SPAMnetsValid,2021.1.4,Win32,59.76214666,,,,,,,,,,,,,2,1.372,0,33,33,84,1,,,,,,,,,,,,,,,,,,,,,,,,,,,,,,,,,,,,,,,,,,,,,,,,,,,,,,,,,,,,,,,,,,,,,,
,,,,5,2.7032,,,,,,10,flower,onion,,90211,001,2022-04-29_15h26.32.251,SPAMnetsValid,2021.1.4,Win32,59.76214666,,,,,,,,,,,,,5,2.7032,0,34,34,45,1,,,,,,,,,,,,,,,,,,,,,,,,,,,,,,,,,,,,,,,,,,,,,,,,,,,,,,,,,,,,,,,,,,,,,,
,,,,8,2.0373,,,,,,47,onion,tomato,,90211,001,2022-04-29_15h26.32.251,SPAMnetsValid,2021.1.4,Win32,59.76214666,,,,,,,,,,,,,8,2.0373,0,35,35,51,1,,,,,,,,,,,,,,,,,,,,,,,,,,,,,,,,,,,,,,,,,,,,,,,,,,,,,,,,,,,,,,,,,,,,,,
,,,,3,1.7023,,,,,,62,kitchen,rose,,90211,001,2022-04-29_15h26.32.251,SPAMnetsValid,2021.1.4,Win32,59.76214666,,,,,,,,,,,,,3,1.7023,0,36,36,57,1,,,,,,,,,,,,,,,,,,,,,,,,,,,,,,,,,,,,,,,,,,,,,,,,,,,,,,,,,,,,,,,,,,,,,,
,,,,2,1.9821,,,,,,68,flower,tomato,,90211,001,2022-04-29_15h26.32.251,SPAMnetsValid,2021.1.4,Win32,59.76214666,,,,,,,,,,,,,2,1.9821,0,37,37,94,1,,,,,,,,,,,,,,,,,,,,,,,,,,,,,,,,,,,,,,,,,,,,,,,,,,,,,,,,,,,,,,,,,,,,,,
,,,,3,0.6248,,,,,,12,cookie,yogurt,,90211,001,2022-04-29_15h26.32.251,SPAMnetsValid,2021.1.4,Win32,59.76214666,,,,,,,,,,,,,3,0.6248,0,38,38,36,1,,,,,,,,,,,,,,,,,,,,,,,,,,,,,,,,,,,,,,,,,,,,,,,,,,,,,,,,,,,,,,,,,,,,,,
,,,,3,1.2927,,,,,,38,pretzel,refrigerator,,90211,001,2022-04-29_15h26.32.251,SPAMnetsValid,2021.1.4,Win32,59.76214666,,,,,,,,,,,,,3,1.2927,0,39,39,71,1,,,,,,,,,,,,,,,,,,,,,,,,,,,,,,,,,,,,,,,,,,,,,,,,,,,,,,,,,,,,,,,,,,,,,,
,,,,8,1.3879,,,,,,6,garden,onion,,90211,001,2022-04-29_15h26.32.251,SPAMnetsValid,2021.1.4,Win32,59.76214666,,,,,,,,,,,,,8,1.3879,0,40,40,83,1,,,,,,,,,,,,,,,,,,,,,,,,,,,,,,,,,,,,,,,,,,,,,,,,,,,,,,,,,,,,,,,,,,,,,,
,,,,7,1.4005,,,,,,58,garden,oven,,90211,001,2022-04-29_15h26.32.251,SPAMnetsValid,2021.1.4,Win32,59.76214666,,,,,,,,,,,,,7,1.4005,0,41,41,37,1,,,,,,,,,,,,,,,,,,,,,,,,,,,,,,,,,,,,,,,,,,,,,,,,,,,,,,,,,,,,,,,,,,,,,,
,,,,2,1.7663,,,,,,11,refrigerator,tree,,90211,001,2022-04-29_15h26.32.251,SPAMnetsValid,2021.1.4,Win32,59.76214666,,,,,,,,,,,,,2,1.7663,0,42,42,43,1,,,,,,,,,,,,,,,,,,,,,,,,,,,,,,,,,,,,,,,,,,,,,,,,,,,,,,,,,,,,,,,,,,,,,,
,,,,3,1.4884,,,,,,78,cookie,rose,,90211,001,2022-04-29_15h26.32.251,SPAMnetsValid,2021.1.4,Win32,59.76214666,,,,,,,,,,,,,3,1.4884,0,43,43,56,1,,,,,,,,,,,,,,,,,,,,,,,,,,,,,,,,,,,,,,,,,,,,,,,,,,,,,,,,,,,,,,,,,,,,,,
,,,,1,1.561,,,,,,13,broom,yogurt,,90211,001,2022-04-29_15h26.32.251,SPAMnetsValid,2021.1.4,Win32,59.76214666,,,,,,,,,,,,,1,1.561,0,44,44,5,1,,,,,,,,,,,,,,,,,,,,,,,,,,,,,,,,,,,,,,,,,,,,,,,,,,,,,,,,,,,,,,,,,,,,,,
,,,,2,1.9388,,,,,,29,chocolate,melon,,90211,001,2022-04-29_15h26.32.251,SPAMnetsValid,2021.1.4,Win32,59.76214666,,,,,,,,,,,,,2,1.9388,0,45,45,34,1,,,,,,,,,,,,,,,,,,,,,,,,,,,,,,,,,,,,,,,,,,,,,,,,,,,,,,,,,,,,,,,,,,,,,,
,,,,4,1.8218,,,,,,53,garden,pretzel,,90211,001,2022-04-29_15h26.32.251,SPAMnetsValid,2021.1.4,Win32,59.76214666,,,,,,,,,,,,,4,1.8218,0,46,46,0,1,,,,,,,,,,,,,,,,,,,,,,,,,,,,,,,,,,,,,,,,,,,,,,,,,,,,,,,,,,,,,,,,,,,,,,
,,,,5,4.054,,,,,,60,cactus,onion,,90211,001,2022-04-29_15h26.32.251,SPAMnetsValid,2021.1.4,Win32,59.76214666,,,,,,,,,,,,,5,4.054,0,47,47,81,1,,,,,,,,,,,,,,,,,,,,,,,,,,,,,,,,,,,,,,,,,,,,,,,,,,,,,,,,,,,,,,,,,,,,,,
,,,,4,83.7265,,,,,,19,microwave,pretzel,,90211,001,2022-04-29_15h26.32.251,SPAMnetsValid,2021.1.4,Win32,59.76214666,,,,,,,,,,,,,4,83.7265,0,48,48,41,1,,,,,,,,,,,,,,,,,,,,,,,,,,,,,,,,,,,,,,,,,,,,,,,,,,,,,,,,,,,,,,,,,,,,,,
,,,,8,1.8007,,,,,,59,rose,strawberry,,90211,001,2022-04-29_15h26.32.251,SPAMnetsValid,2021.1.4,Win32,59.76214666,,,,,,,,,,,,,8,1.8007,0,49,49,72,1,,,,,,,,,,,,,,,,,,,,,,,,,,,,,,,,,,,,,,,,,,,,,,,,,,,,,,,,,,,,,,,,,,,,,,
,,,,7,21.8747,,,,,,74,broom,pretzel,,90211,001,2022-04-29_15h26.32.251,SPAMnetsValid,2021.1.4,Win32,59.76214666,,,,,,,,,,,,,7,21.8747,0,50,50,40,1,,,,,,,,,,,,,,,,,,,,,,,,,,,,,,,,,,,,,,,,,,,,,,,,,,,,,,,,,,,,,,,,,,,,,,
,,,,9,1.1819,,,,,,192,microwave,microwave,CHECK,90211,001,2022-04-29_15h26.32.251,SPAMnetsValid,2021.1.4,Win32,59.76214666,,,,,,,,,,,,,9,1.1819,0,51,51,53,1,,,,,,,,,,,,,,,,,,,,,,,,,,,,,,,,,,,,,,,,,,,,,,,,,,,,,,,,,,,,,,,,,,,,,,
,,,,8,1.0662,,,,,,63,cake,cookie,,90211,001,2022-04-29_15h26.32.251,SPAMnetsValid,2021.1.4,Win32,59.76214666,,,,,,,,,,,,,8,1.0662,0,52,52,93,1,,,,,,,,,,,,,,,,,,,,,,,,,,,,,,,,,,,,,,,,,,,,,,,,,,,,,,,,,,,,,,,,,,,,,,
,,,,7,1.1777,,,,,,57,flower,kitchen,,90211,001,2022-04-29_15h26.32.251,SPAMnetsValid,2021.1.4,Win32,59.76214666,,,,,,,,,,,,,7,1.1777,0,53,53,49,1,,,,,,,,,,,,,,,,,,,,,,,,,,,,,,,,,,,,,,,,,,,,,,,,,,,,,,,,,,,,,,,,,,,,,,
,,,,8,1.0747,,,,,,20,rose,tree,,90211,001,2022-04-29_15h26.32.251,SPAMnetsValid,2021.1.4,Win32,59.76214666,,,,,,,,,,,,,8,1.0747,0,54,54,66,1,,,,,,,,,,,,,,,,,,,,,,,,,,,,,,,,,,,,,,,,,,,,,,,,,,,,,,,,,,,,,,,,,,,,,,
,,,,3,1.5627,,,,,,84,oven,tomato,,90211,001,2022-04-29_15h26.32.251,SPAMnetsValid,2021.1.4,Win32,59.76214666,,,,,,,,,,,,,3,1.5627,0,55,55,28,1,,,,,,,,,,,,,,,,,,,,,,,,,,,,,,,,,,,,,,,,,,,,,,,,,,,,,,,,,,,,,,,,,,,,,,
,,,,2,0.8663,,,,,,82,cake,kitchen,,90211,001,2022-04-29_15h26.32.251,SPAMnetsValid,2021.1.4,Win32,59.76214666,,,,,,,,,,,,,2,0.8663,0,56,56,96,1,,,,,,,,,,,,,,,,,,,,,,,,,,,,,,,,,,,,,,,,,,,,,,,,,,,,,,,,,,,,,,,,,,,,,,
,,,,3,1.0769,,,,,,48,flower,oven,,90211,001,2022-04-29_15h26.32.251,SPAMnetsValid,2021.1.4,Win32,59.76214666,,,,,,,,,,,,,3,1.0769,0,57,57,15,1,,,,,,,,,,,,,,,,,,,,,,,,,,,,,,,,,,,,,,,,,,,,,,,,,,,,,,,,,,,,,,,,,,,,,,
,,,,8,1.4577,,,,,,8,broom,melon,,90211,001,2022-04-29_15h26.32.251,SPAMnetsValid,2021.1.4,Win32,59.76214666,,,,,,,,,,,,,8,1.4577,0,58,58,59,1,,,,,,,,,,,,,,,,,,,,,,,,,,,,,,,,,,,,,,,,,,,,,,,,,,,,,,,,,,,,,,,,,,,,,,
,,,,6,1.7334,,,,,,5,oven,tree,,90211,001,2022-04-29_15h26.32.251,SPAMnetsValid,2021.1.4,Win32,59.76214666,,,,,,,,,,,,,6,1.7334,0,59,59,70,1,,,,,,,,,,,,,,,,,,,,,,,,,,,,,,,,,,,,,,,,,,,,,,,,,,,,,,,,,,,,,,,,,,,,,,
,,,,3,1.0815,,,,,,54,chocolate,yogurt,,90211,001,2022-04-29_15h26.32.251,SPAMnetsValid,2021.1.4,Win32,59.76214666,,,,,,,,,,,,,3,1.0815,0,60,60,67,1,,,,,,,,,,,,,,,,,,,,,,,,,,,,,,,,,,,,,,,,,,,,,,,,,,,,,,,,,,,,,,,,,,,,,,
,,,,3,1.9354,,,,,,31,cactus,pretzel,,90211,001,2022-04-29_15h26.32.251,SPAMnetsValid,2021.1.4,Win32,59.76214666,,,,,,,,,,,,,3,1.9354,0,61,61,1,1,,,,,,,,,,,,,,,,,,,,,,,,,,,,,,,,,,,,,,,,,,,,,,,,,,,,,,,,,,,,,,,,,,,,,,
,,,,3,1.6887,,,,,,73,broom,chocolate,,90211,001,2022-04-29_15h26.32.251,SPAMnetsValid,2021.1.4,Win32,59.76214666,,,,,,,,,,,,,3,1.6887,0,62,62,47,1,,,,,,,,,,,,,,,,,,,,,,,,,,,,,,,,,,,,,,,,,,,,,,,,,,,,,,,,,,,,,,,,,,,,,,
,,,,2,1.2941,,,,,,16,chocolate,flower,,90211,001,2022-04-29_15h26.32.251,SPAMnetsValid,2021.1.4,Win32,59.76214666,,,,,,,,,,,,,2,1.2941,0,63,63,22,1,,,,,,,,,,,,,,,,,,,,,,,,,,,,,,,,,,,,,,,,,,,,,,,,,,,,,,,,,,,,,,,,,,,,,,
,,,,3,1.753,,,,,,45,onion,pretzel,,90211,001,2022-04-29_15h26.32.251,SPAMnetsValid,2021.1.4,Win32,59.76214666,,,,,,,,,,,,,3,1.753,0,64,64,69,1,,,,,,,,,,,,,,,,,,,,,,,,,,,,,,,,,,,,,,,,,,,,,,,,,,,,,,,,,,,,,,,,,,,,,,
,,,,4,1.9552,,,,,,83,broom,carrot,,90211,001,2022-04-29_15h26.32.251,SPAMnetsValid,2021.1.4,Win32,59.76214666,,,,,,,,,,,,,4,1.9552,0,65,65,4,1,,,,,,,,,,,,,,,,,,,,,,,,,,,,,,,,,,,,,,,,,,,,,,,,,,,,,,,,,,,,,,,,,,,,,,
,,,,3,1.3088,,,,,,37,garden,refrigerator,,90211,001,2022-04-29_15h26.32.251,SPAMnetsValid,2021.1.4,Win32,59.76214666,,,,,,,,,,,,,3,1.3088,0,66,66,11,1,,,,,,,,,,,,,,,,,,,,,,,,,,,,,,,,,,,,,,,,,,,,,,,,,,,,,,,,,,,,,,,,,,,,,,
,,,,6,1.7593,,,,,,21,cake,onion,,90211,001,2022-04-29_15h26.32.251,SPAMnetsValid,2021.1.4,Win32,59.76214666,,,,,,,,,,,,,6,1.7593,0,67,67,63,1,,,,,,,,,,,,,,,,,,,,,,,,,,,,,,,,,,,,,,,,,,,,,,,,,,,,,,,,,,,,,,,,,,,,,,
,,,,4,0.5787,,,,,,22,kitchen,strawberry,,90211,001,2022-04-29_15h26.32.251,SPAMnetsValid,2021.1.4,Win32,59.76214666,,,,,,,,,,,,,4,0.5787,0,68,68,2,1,,,,,,,,,,,,,,,,,,,,,,,,,,,,,,,,,,,,,,,,,,,,,,,,,,,,,,,,,,,,,,,,,,,,,,
,,,,4,0.6576,,,,,,34,melon,oven,,90211,001,2022-04-29_15h26.32.251,SPAMnetsValid,2021.1.4,Win32,59.76214666,,,,,,,,,,,,,4,0.6576,0,69,69,7,1,,,,,,,,,,,,,,,,,,,,,,,,,,,,,,,,,,,,,,,,,,,,,,,,,,,,,,,,,,,,,,,,,,,,,,
,,,,6,0.5533,,,,,,55,tomato,tree,,90211,001,2022-04-29_15h26.32.251,SPAMnetsValid,2021.1.4,Win32,59.76214666,,,,,,,,,,,,,6,0.5533,0,70,70,35,1,,,,,,,,,,,,,,,,,,,,,,,,,,,,,,,,,,,,,,,,,,,,,,,,,,,,,,,,,,,,,,,,,,,,,,
,,,,3,0.6246,,,,,,71,broom,rose,,90211,001,2022-04-29_15h26.32.251,SPAMnetsValid,2021.1.4,Win32,59.76214666,,,,,,,,,,,,,3,0.6246,0,71,71,61,1,,,,,,,,,,,,,,,,,,,,,,,,,,,,,,,,,,,,,,,,,,,,,,,,,,,,,,,,,,,,,,,,,,,,,,
,,,,7,0.5658,,,,,,76,garden,rose,,90211,001,2022-04-29_15h26.32.251,SPAMnetsValid,2021.1.4,Win32,59.76214666,,,,,,,,,,,,,7,0.5658,0,72,72,19,1,,,,,,,,,,,,,,,,,,,,,,,,,,,,,,,,,,,,,,,,,,,,,,,,,,,,,,,,,,,,,,,,,,,,,,
,,,,4,0.7711,,,,,,24,cookie,tomato,,90211,001,2022-04-29_15h26.32.251,SPAMnetsValid,2021.1.4,Win32,59.76214666,,,,,,,,,,,,,4,0.7711,0,73,73,68,1,,,,,,,,,,,,,,,,,,,,,,,,,,,,,,,,,,,,,,,,,,,,,,,,,,,,,,,,,,,,,,,,,,,,,,
,,,,5,1.622,,,,,,26,tomato,yogurt,,90211,001,2022-04-29_15h26.32.251,SPAMnetsValid,2021.1.4,Win32,59.76214666,,,,,,,,,,,,,5,1.622,0,74,74,13,1,,,,,,,,,,,,,,,,,,,,,,,,,,,,,,,,,,,,,,,,,,,,,,,,,,,,,,,,,,,,,,,,,,,,,,
,,,,7,1.8446,,,,,,14,broom,cookie,,90211,001,2022-04-29_15h26.32.251,SPAMnetsValid,2021.1.4,Win32,59.76214666,,,,,,,,,,,,,7,1.8446,0,75,75,16,1,,,,,,,,,,,,,,,,,,,,,,,,,,,,,,,,,,,,,,,,,,,,,,,,,,,,,,,,,,,,,,,,,,,,,,
,,,,3,0.7247,,,,,,28,cake,melon,,90211,001,2022-04-29_15h26.32.251,SPAMnetsValid,2021.1.4,Win32,59.76214666,,,,,,,,,,,,,3,0.7247,0,76,76,54,1,,,,,,,,,,,,,,,,,,,,,,,,,,,,,,,,,,,,,,,,,,,,,,,,,,,,,,,,,,,,,,,,,,,,,,
,,,,3,0.9383,,,,,,52,carrot,tomato,,90211,001,2022-04-29_15h26.32.251,SPAMnetsValid,2021.1.4,Win32,59.76214666,,,,,,,,,,,,,3,0.9383,0,77,77,95,1,,,,,,,,,,,,,,,,,,,,,,,,,,,,,,,,,,,,,,,,,,,,,,,,,,,,,,,,,,,,,,,,,,,,,,
,,,,4,1.0761,,,,,,94,kitchen,microwave,,90211,001,2022-04-29_15h26.32.251,SPAMnetsValid,2021.1.4,Win32,59.76214666,,,,,,,,,,,,,4,1.0761,0,78,78,58,1,,,,,,,,,,,,,,,,,,,,,,,,,,,,,,,,,,,,,,,,,,,,,,,,,,,,,,,,,,,,,,,,,,,,,,
,,,,3,0.8339,,,,,,49,flower,strawberry,,90211,001,2022-04-29_15h26.32.251,SPAMnetsValid,2021.1.4,Win32,59.76214666,,,,,,,,,,,,,3,0.8339,0,79,79,3,1,,,,,,,,,,,,,,,,,,,,,,,,,,,,,,,,,,,,,,,,,,,,,,,,,,,,,,,,,,,,,,,,,,,,,,
,,,,6,1.0585,,,,,,35,flower,pretzel,,90211,001,2022-04-29_15h26.32.251,SPAMnetsValid,2021.1.4,Win32,59.76214666,,,,,,,,,,,,,6,1.0585,0,80,80,26,1,,,,,,,,,,,,,,,,,,,,,,,,,,,,,,,,,,,,,,,,,,,,,,,,,,,,,,,,,,,,,,,,,,,,,,
,,,,7,0.7448,,,,,,2,kitchen,onion,,90211,001,2022-04-29_15h26.32.251,SPAMnetsValid,2021.1.4,Win32,59.76214666,,,,,,,,,,,,,7,0.7448,0,81,81,91,1,,,,,,,,,,,,,,,,,,,,,,,,,,,,,,,,,,,,,,,,,,,,,,,,,,,,,,,,,,,,,,,,,,,,,,
,,,,8,1.4768,,,,,,67,flower,yogurt,,90211,001,2022-04-29_15h26.32.251,SPAMnetsValid,2021.1.4,Win32,59.76214666,,,,,,,,,,,,,8,1.4768,0,82,82,12,1,,,,,,,,,,,,,,,,,,,,,,,,,,,,,,,,,,,,,,,,,,,,,,,,,,,,,,,,,,,,,,,,,,,,,,
,,,,8,1.7682,,,,,,89,chocolate,rose,,90211,001,2022-04-29_15h26.32.251,SPAMnetsValid,2021.1.4,Win32,59.76214666,,,,,,,,,,,,,8,1.7682,0,83,83,60,1,,,,,,,,,,,,,,,,,,,,,,,,,,,,,,,,,,,,,,,,,,,,,,,,,,,,,,,,,,,,,,,,,,,,,,
,,,,7,2.2597,,,,,,69,carrot,refrigerator,,90211,001,2022-04-29_15h26.32.251,SPAMnetsValid,2021.1.4,Win32,59.76214666,,,,,,,,,,,,,7,2.2597,0,84,84,75,1,,,,,,,,,,,,,,,,,,,,,,,,,,,,,,,,,,,,,,,,,,,,,,,,,,,,,,,,,,,,,,,,,,,,,,
,,,,8,0.7183,,,,,,70,chocolate,onion,,90211,001,2022-04-29_15h26.32.251,SPAMnetsValid,2021.1.4,Win32,59.76214666,,,,,,,,,,,,,8,0.7183,0,85,85,74,1,,,,,,,,,,,,,,,,,,,,,,,,,,,,,,,,,,,,,,,,,,,,,,,,,,,,,,,,,,,,,,,,,,,,,,
,,,,6,0.8341,,,,,,61,strawberry,tomato,,90211,001,2022-04-29_15h26.32.251,SPAMnetsValid,2021.1.4,Win32,59.76214666,,,,,,,,,,,,,6,0.8341,0,86,86,80,1,,,,,,,,,,,,,,,,,,,,,,,,,,,,,,,,,,,,,,,,,,,,,,,,,,,,,,,,,,,,,,,,,,,,,,
,,,,8,0.8666,,,,,,66,melon,yogurt,,90211,001,2022-04-29_15h26.32.251,SPAMnetsValid,2021.1.4,Win32,59.76214666,,,,,,,,,,,,,8,0.8666,0,87,87,48,1,,,,,,,,,,,,,,,,,,,,,,,,,,,,,,,,,,,,,,,,,,,,,,,,,,,,,,,,,,,,,,,,,,,,,,
,,,,3,0.9782,,,,,,30,cookie,pretzel,,90211,001,2022-04-29_15h26.32.251,SPAMnetsValid,2021.1.4,Win32,59.76214666,,,,,,,,,,,,,3,0.9782,0,88,88,78,1,,,,,,,,,,,,,,,,,,,,,,,,,,,,,,,,,,,,,,,,,,,,,,,,,,,,,,,,,,,,,,,,,,,,,,
,,,,2,0.9546,,,,,,80,chocolate,tree,,90211,001,2022-04-29_15h26.32.251,SPAMnetsValid,2021.1.4,Win32,59.76214666,,,,,,,,,,,,,2,0.9546,0,89,89,89,1,,,,,,,,,,,,,,,,,,,,,,,,,,,,,,,,,,,,,,,,,,,,,,,,,,,,,,,,,,,,,,,,,,,,,,
,,,,3,0.5543,,,,,,87,carrot,yogurt,,90211,001,2022-04-29_15h26.32.251,SPAMnetsValid,2021.1.4,Win32,59.76214666,,,,,,,,,,,,,3,0.5543,0,90,90,6,1,,,,,,,,,,,,,,,,,,,,,,,,,,,,,,,,,,,,,,,,,,,,,,,,,,,,,,,,,,,,,,,,,,,,,,
,,,,6,0.965,,,,,,17,carrot,melon,,90211,001,2022-04-29_15h26.32.251,SPAMnetsValid,2021.1.4,Win32,59.76214666,,,,,,,,,,,,,6,0.965,0,91,91,24,1,,,,,,,,,,,,,,,,,,,,,,,,,,,,,,,,,,,,,,,,,,,,,,,,,,,,,,,,,,,,,,,,,,,,,,
,,,,7,0.7353,,,,,,4,chocolate,pretzel,,90211,001,2022-04-29_15h26.32.251,SPAMnetsValid,2021.1.4,Win32,59.76214666,,,,,,,,,,,,,7,0.7353,0,92,92,52,1,,,,,,,,,,,,,,,,,,,,,,,,,,,,,,,,,,,,,,,,,,,,,,,,,,,,,,,,,,,,,,,,,,,,,,
,,,,8,0.6717,,,,,,92,broom,flower,,90211,001,2022-04-29_15h26.32.251,SPAMnetsValid,2021.1.4,Win32,59.76214666,,,,,,,,,,,,,8,0.6717,0,93,93,88,1,,,,,,,,,,,,,,,,,,,,,,,,,,,,,,,,,,,,,,,,,,,,,,,,,,,,,,,,,,,,,,,,,,,,,,
,,,,4,0.8372,,,,,,79,garden,strawberry,,90211,001,2022-04-29_15h26.32.251,SPAMnetsValid,2021.1.4,Win32,59.76214666,,,,,,,,,,,,,4,0.8372,0,94,94,87,1,,,,,,,,,,,,,,,,,,,,,,,,,,,,,,,,,,,,,,,,,,,,,,,,,,,,,,,,,,,,,,,,,,,,,,
,,,,3,1.4192,,,,,,9,kitchen,refrigerator,,90211,001,2022-04-29_15h26.32.251,SPAMnetsValid,2021.1.4,Win32,59.76214666,,,,,,,,,,,,,3,1.4192,0,95,95,64,1,,,,,,,,,,,,,,,,,,,,,,,,,,,,,,,,,,,,,,,,,,,,,,,,,,,,,,,,,,,,,,,,,,,,,,
,,,,6,15.0413,,,,,,42,garden,kitchen,,90211,001,2022-04-29_15h26.32.251,SPAMnetsValid,2021.1.4,Win32,59.76214666,,,,,,,,,,,,,6,15.0413,0,96,96,29,1,,,,,,,,,,,,,,,,,,,,,,,,,,,,,,,,,,,,,,,,,,,,,,,,,,,,,,,,,,,,,,,,,,,,,,
,,,,,,,,,,,,,,,90211,001,2022-04-29_15h26.32.251,SPAMnetsValid,2021.1.4,Win32,59.76214666,,,,,,,,,,,,,,,,,,,,0,0,0,0,1,,,,,,,,,,,,,,,,,,,,,,,,,,,,,,,,,,,,,,,,,,,,,,,,,,,,,,,,,,,,,,,,,
,,,,,,,,,,,,,,,90211,001,2022-04-29_15h26.32.251,SPAMnetsValid,2021.1.4,Win32,59.76214666,,,,,,0,1,1,0,1,1,0,,,,,,,,,,,,,,,,,,,,,,,,,,,,,,,,,,,,,,,,,,,,,,,,,,,,,,,,,,,,,,,,,,,,,,,,,,,,,
,,,,,,,,,,,,,,,90211,001,2022-04-29_15h26.32.251,SPAMnetsValid,2021.1.4,Win32,59.76214666,,,,,,,,,,,,,,,,,,,,,,,,,2,8.2908,0,0,0,0,1,rancor,forbearance,ridicule,malice,bravery,3,,,,,,,,,,,,,,,,,,,,,,,,,,,,,,,,,,,,,,,,,,,,,,,,,,,,
,,,,,,,,,,,,,,,90211,001,2022-04-29_15h26.32.251,SPAMnetsValid,2021.1.4,Win32,59.76214666,,,,,,,,,,,,,,,,,,,,,,,,,4,5.0961,0,1,1,1,1,raucous,empty,quiet,smooth,harsh,4,,,,,,,,,,,,,,,,,,,,,,,,,,,,,,,,,,,,,,,,,,,,,,,,,,,,
,,,,,,,,,,,,,,,90211,001,2022-04-29_15h26.32.251,SPAMnetsValid,2021.1.4,Win32,59.76214666,,,,,,,,,,,,,,,,,,,,,,,,,4,5.2781,0,2,2,2,1,gargoyle,oil,medicine,carved waterspout,ugly building,3,,,,,,,,,,,,,,,,,,,,,,,,,,,,,,,,,,,,,,,,,,,,,,,,,,,,
,,,,,,,,,,,,,,,90211,001,2022-04-29_15h26.32.251,SPAMnetsValid,2021.1.4,Win32,59.76214666,,,,,,,,,,,,,,,,,,,,,,,,,1,8.4914,0,3,3,3,1,recrudesce,purify,renew activity,lack refinement,crush,2,,,,,,,,,,,,,,,,,,,,,,,,,,,,,,,,,,,,,,,,,,,,,,,,,,,,
,,,,,,,,,,,,,,,90211,001,2022-04-29_15h26.32.251,SPAMnetsValid,2021.1.4,Win32,59.76214666,,,,,,,,,,,,,,,,,,,,,,,,,,,0,4,4,4,1,specious,"plausible, but not genuine",noteworthy,class or variety,roomy,1,,,,,,,,,,,,,,,,,,,,,,,,,,,,,,,,,,,,,,,,,,,,,,,,,,,,
,,,,,,,,,,,,,,,90211,001,2022-04-29_15h26.32.251,SPAMnetsValid,2021.1.4,Win32,59.76214666,,,,,,,,,,,,,,,,,,,,,,,,,2,0.1124,0,5,5,5,1,bauble,bubble,showy plaything,idle talk,confusion,2,,,,,,,,,,,,,,,,,,,,,,,,,,,,,,,,,,,,,,,,,,,,,,,,,,,,
,,,,,,,,,,,,,,,90211,001,2022-04-29_15h26.32.251,SPAMnetsValid,2021.1.4,Win32,59.76214666,,,,,,,,,,,,,,,,,,,,,,,,,,,0,6,6,6,1,prolific,scarce,producing abundantly,reckless,speaking profanely,2,,,,,,,,,,,,,,,,,,,,,,,,,,,,,,,,,,,,,,,,,,,,,,,,,,,,
,,,,,,,,,,,,,,,90211,001,2022-04-29_15h26.32.251,SPAMnetsValid,2021.1.4,Win32,59.76214666,,,,,,,,,,,,,,,,,,,,,,,,,2,5.134,0,7,7,7,1,opulent,party,wealthy,happy frame of mind,semiprecious stone,2,,,,,,,,,,,,,,,,,,,,,,,,,,,,,,,,,,,,,,,,,,,,,,,,,,,,
,,,,,,,,,,,,,,,90211,001,2022-04-29_15h26.32.251,SPAMnetsValid,2021.1.4,Win32,59.76214666,,,,,,,,,,,,,,,,,,,,,,,,,1,2.8919,0,8,8,8,1,coercion,conspiracy,strategy,restraint,attraction,3,,,,,,,,,,,,,,,,,,,,,,,,,,,,,,,,,,,,,,,,,,,,,,,,,,,,
,,,,,,,,,,,,,,,90211,001,2022-04-29_15h26.32.251,SPAMnetsValid,2021.1.4,Win32,59.76214666,,,,,,,,,,,,,,,,,,,,,,,,,4,2.8409,0,9,9,9,1,hiatus,animal,calamity,dread,gap,4,,,,,,,,,,,,,,,,,,,,,,,,,,,,,,,,,,,,,,,,,,,,,,,,,,,,
,,,,,,,,,,,,,,,90211,001,2022-04-29_15h26.32.251,SPAMnetsValid,2021.1.4,Win32,59.76214666,,,,,,,,,,,,,,,,,,,,,,,,,3,4.0679,0,10,10,10,1,germane,microbe,contagious,relevant,different,3,,,,,,,,,,,,,,,,,,,,,,,,,,,,,,,,,,,,,,,,,,,,,,,,,,,,
,,,,,,,,,,,,,,,90211,001,2022-04-29_15h26.32.251,SPAMnetsValid,2021.1.4,Win32,59.76214666,,,,,,,,,,,,,,,,,,,,,,,,,3,3.8025,0,11,11,11,1,perfunctory,fundamental,formal,superficial,careful,3,,,,,,,,,,,,,,,,,,,,,,,,,,,,,,,,,,,,,,,,,,,,,,,,,,,,
,,,,,,,,,,,,,,,90211,001,2022-04-29_15h26.32.251,SPAMnetsValid,2021.1.4,Win32,59.76214666,,,,,,,,,,,,,,,,,,,,,,,,,4,6.312,0,12,12,12,1,diverge,reveal,chant,distract the attention of,differ or turn off from,4,,,,,,,,,,,,,,,,,,,,,,,,,,,,,,,,,,,,,,,,,,,,,,,,,,,,
,,,,,,,,,,,,,,,90211,001,2022-04-29_15h26.32.251,SPAMnetsValid,2021.1.4,Win32,59.76214666,,,,,,,,,,,,,,,,,,,,,,,,,4,2.9805,0,13,13,13,1,evoke,take away,anger,connect,bring out,4,,,,,,,,,,,,,,,,,,,,,,,,,,,,,,,,,,,,,,,,,,,,,,,,,,,,
,,,,,,,,,,,,,,,90211,001,2022-04-29_15h26.32.251,SPAMnetsValid,2021.1.4,Win32,59.76214666,,,,,,,,,,,,,,,,,,,,,,,,,1,5.6241,0,14,14,14,1,pertinent,relevant,lying next to,necessary,bold,1,,,,,,,,,,,,,,,,,,,,,,,,,,,,,,,,,,,,,,,,,,,,,,,,,,,,
,,,,,,,,,,,,,,,90211,001,2022-04-29_15h26.32.251,SPAMnetsValid,2021.1.4,Win32,59.76214666,,,,,,,,,,,,,,,,,,,,,,,,,2,11.747,0,15,15,15,1,holocaust,entirety,destruction,saintly,price,2,,,,,,,,,,,,,,,,,,,,,,,,,,,,,,,,,,,,,,,,,,,,,,,,,,,,
,,,,,,,,,,,,,,,90211,001,2022-04-29_15h26.32.251,SPAMnetsValid,2021.1.4,Win32,59.76214666,,,,,,,,,,,,,,,,,,,,,,,,,,,0,16,16,16,1,piquant,mellow,fish,pungent,cloth,3,,,,,,,,,,,,,,,,,,,,,,,,,,,,,,,,,,,,,,,,,,,,,,,,,,,,
,,,,,,,,,,,,,,,90211,001,2022-04-29_15h26.32.251,SPAMnetsValid,2021.1.4,Win32,59.76214666,,,,,,,,,,,,,,,,,,,,,,,,,1,4.125,0,17,17,17,1,firmament,foundation,heavens,strong,glue,2,,,,,,,,,,,,,,,,,,,,,,,,,,,,,,,,,,,,,,,,,,,,,,,,,,,,
,,,,,,,,,,,,,,,90211,001,2022-04-29_15h26.32.251,SPAMnetsValid,2021.1.4,Win32,59.76214666,,,,,,,,,,,,,,,,,,,,,,,,,,,,,,,,,,,,,,4,3.3262,0,0,0,0,1,marketable,partisan,jocular,marriageable,salable,essential,4,,,,,,,,,,,,,,,,,,,,,,,,,,,,,,,,,,,,,,
,,,,,,,,,,,,,,,90211,001,2022-04-29_15h26.32.251,SPAMnetsValid,2021.1.4,Win32,59.76214666,,,,,,,,,,,,,,,,,,,,,,,,,,,,,,,,,,,,,,2,14.2164,0,1,1,1,1,cottontail,squirrel,poplar,boa,marshy plant,rabbit,5,,,,,,,,,,,,,,,,,,,,,,,,,,,,,,,,,,,,,,
,,,,,,,,,,,,,,,90211,001,2022-04-29_15h26.32.251,SPAMnetsValid,2021.1.4,Win32,59.76214666,,,,,,,,,,,,,,,,,,,,,,,,,,,,,,,,,,,,,,3,1.9719,0,2,2,2,1,boggy,afraid,false,marshy,dense,black,3,,,,,,,,,,,,,,,,,,,,,,,,,,,,,,,,,,,,,,
,,,,,,,,,,,,,,,90211,001,2022-04-29_15h26.32.251,SPAMnetsValid,2021.1.4,Win32,59.76214666,,,,,,,,,,,,,,,,,,,,,,,,,,,,,,,,,,,,,,3,10.5922,0,3,3,3,1,gruesomeness,blackness,falseness,vindictiveness,drunkenness,ghastliness,5,,,,,,,,,,,,,,,,,,,,,,,,,,,,,,,,,,,,,,
,,,,,,,,,,,,,,,90211,001,2022-04-29_15h26.32.251,SPAMnetsValid,2021.1.4,Win32,59.76214666,,,,,,,,,,,,,,,,,,,,,,,,,,,,,,,,,,,,,,3,4.4676,0,4,4,4,1,loathing,diffidence,laziness,abhorrence,cleverness,comfort,3,,,,,,,,,,,,,,,,,,,,,,,,,,,,,,,,,,,,,,
,,,,,,,,,,,,,,,90211,001,2022-04-29_15h26.32.251,SPAMnetsValid,2021.1.4,Win32,59.76214666,,,,,,,,,,,,,,,,,,,,,,,,,,,,,,,,,,,,,,1,5.5098,0,5,5,5,1,bantam,fowl,ridicule,cripple,vegetable,ensign,1,,,,,,,,,,,,,,,,,,,,,,,,,,,,,,,,,,,,,,
,,,,,,,,,,,,,,,90211,001,2022-04-29_15h26.32.251,SPAMnetsValid,2021.1.4,Win32,59.76214666,,,,,,,,,,,,,,,,,,,,,,,,,,,,,,,,,,,,,,5,3.0178,0,6,6,6,1,evoke,wake up,surrender,reconnoiter,transcend,call forth,5,,,,,,,,,,,,,,,,,,,,,,,,,,,,,,,,,,,,,,
,,,,,,,,,,,,,,,90211,001,2022-04-29_15h26.32.251,SPAMnetsValid,2021.1.4,Win32,59.76214666,,,,,,,,,,,,,,,,,,,,,,,,,,,,,,,,,,,,,,4,8.9236,0,7,7,7,1,unobtrusive,unintelligent,epileptic,illogical,lineal,modest,5,,,,,,,,,,,,,,,,,,,,,,,,,,,,,,,,,,,,,,
,,,,,,,,,,,,,,,90211,001,2022-04-29_15h26.32.251,SPAMnetsValid,2021.1.4,Win32,59.76214666,,,,,,,,,,,,,,,,,,,,,,,,,,,,,,,,,,,,,,4,3.1399,0,8,8,8,1,terrain,ice cream,final test,tractor,area of ground,weight,4,,,,,,,,,,,,,,,,,,,,,,,,,,,,,,,,,,,,,,
,,,,,,,,,,,,,,,90211,001,2022-04-29_15h26.32.251,SPAMnetsValid,2021.1.4,Win32,59.76214666,,,,,,,,,,,,,,,,,,,,,,,,,,,,,,,,,,,,,,5,8.9849,0,9,9,9,1,capriciousness,stubbornness,courage,whimsicality,amazement,greediness,3,,,,,,,,,,,,,,,,,,,,,,,,,,,,,,,,,,,,,,
,,,,,,,,,,,,,,,90211,001,2022-04-29_15h26.32.251,SPAMnetsValid,2021.1.4,Win32,59.76214666,,,,,,,,,,,,,,,,,,,,,,,,,,,,,,,,,,,,,,2,3.5899,0,10,10,10,1,maelstrom,slander,whirlpool,enmity,armor,majolica,2,,,,,,,,,,,,,,,,,,,,,,,,,,,,,,,,,,,,,,
,,,,,,,,,,,,,,,90211,001,2022-04-29_15h26.32.251,SPAMnetsValid,2021.1.4,Win32,59.76214666,,,,,,,,,,,,,,,,,,,,,,,,,,,,,,,,,,,,,,4,10.9538,0,11,11,11,1,tentative,critical,conclusive,authentic,provisional,apprehensive,4,,,,,,,,,,,,,,,,,,,,,,,,,,,,,,,,,,,,,,
,,,,,,,,,,,,,,,90211,001,2022-04-29_15h26.32.251,SPAMnetsValid,2021.1.4,Win32,59.76214666,,,,,,,,,,,,,,,,,,,,,,,,,,,,,,,,,,,,,,4,5.8431,0,12,12,12,1,placate,rehabilitate,plagiarize,depredate,apprise,conciliate,5,,,,,,,,,,,,,,,,,,,,,,,,,,,,,,,,,,,,,,
,,,,,,,,,,,,,,,90211,001,2022-04-29_15h26.32.251,SPAMnetsValid,2021.1.4,Win32,59.76214666,,,,,,,,,,,,,,,,,,,,,,,,,,,,,,,,,,,,,,2,2.826,0,13,13,13,1,surcease,enlightenment,cessation,inattention,censor,substitution,2,,,,,,,,,,,,,,,,,,,,,,,,,,,,,,,,,,,,,,
,,,,,,,,,,,,,,,90211,001,2022-04-29_15h26.32.251,SPAMnetsValid,2021.1.4,Win32,59.76214666,,,,,,,,,,,,,,,,,,,,,,,,,,,,,,,,,,,,,,3,7.3146,0,14,14,14,1,apathetic,wandering,impassive,hateful,prophetic,overflowing,2,,,,,,,,,,,,,,,,,,,,,,,,,,,,,,,,,,,,,,
,,,,,,,,,,,,,,,90211,001,2022-04-29_15h26.32.251,SPAMnetsValid,2021.1.4,Win32,59.76214666,,,,,,,,,,,,,,,,,,,,,,,,,,,,,,,,,,,,,,3,5.1786,0,15,15,15,1,paternoster,paternalism,patricide,malediction,benediction,prayer,5,,,,,,,,,,,,,,,,,,,,,,,,,,,,,,,,,,,,,,
,,,,,,,,,,,,,,,90211,001,2022-04-29_15h26.32.251,SPAMnetsValid,2021.1.4,Win32,59.76214666,,,,,,,,,,,,,,,,,,,,,,,,,,,,,,,,,,,,,,4,2.8239,0,16,16,16,1,opalescence,opulence,senescence,bankruptcy,iridescence,assiduity,4,,,,,,,,,,,,,,,,,,,,,,,,,,,,,,,,,,,,,,
,,,,,,,,,,,,,,,90211,001,2022-04-29_15h26.32.251,SPAMnetsValid,2021.1.4,Win32,59.76214666,,,,,,,,,,,,,,,,,,,,,,,,,,,,,,,,,,,,,,2,4.4765,0,17,17,17,1,lush,stupid,luxurious,hazy,putrid,languishing,2,,,,,,,,,,,,,,,,,,,,,,,,,,,,,,,,,,,,,,
,,,,,,,,,,,,,,,90211,001,2022-04-29_15h26.32.251,SPAMnetsValid,2021.1.4,Win32,59.76214666,,,,,,,,,,,,,,,,,,,,,,,,,,,,,,,,,,,,,,4,19.2115,0,18,18,18,1,curtailment,expenditure,abandonment,abridgment,improvement,forgery,3,,,,,,,,,,,,,,,,,,,,,,,,,,,,,,,,,,,,,,
,,,,,,,,,,,,,,,90211,001,2022-04-29_15h26.32.251,SPAMnetsValid,2021.1.4,Win32,59.76214666,,,,,,,,,,,,,,,,,,,,,,,,,,,,,,,,,,,,,,4,1.5766,0,19,19,19,1,perversity,adversity,perviousness,travesty,waywardness,gentility,4,,,,,,,,,,,,,,,,,,,,,,,,,,,,,,,,,,,,,,
,,,,,,,,,,,,,,,90211,001,2022-04-29_15h26.32.251,SPAMnetsValid,2021.1.4,Win32,59.76214666,,,,,,,,,,,,,,,,,,,,,,,,,,,,,,,,,,,,,,3,1.0142,0,20,20,20,1,calumnious,complimentary,analogous,slanderous,tempestuous,magnanimous,3,,,,,,,,,,,,,,,,,,,,,,,,,,,,,,,,,,,,,,
,,,,,,,,,,,,,,,90211,001,2022-04-29_15h26.32.251,SPAMnetsValid,2021.1.4,Win32,59.76214666,,,,,,,,,,,,,,,,,,,,,,,,,,,,,,,,,,,,,,4,0.6483,0,21,21,21,1,illiberality,bigotry,imbecility,illegibility,cautery,immaturity,1,,,,,,,,,,,,,,,,,,,,,,,,,,,,,,,,,,,,,,
,,,,,,,,,,,,,,,90211,001,2022-04-29_15h26.32.251,SPAMnetsValid,2021.1.4,Win32,59.76214666,,,,,,,,,,,,,,,,,,,,,,,,,,,,,,,,,,,,,,5,0.8243,0,22,22,22,1,clabber,rejoice,gossip,curdle,crow,hobble,3,,,,,,,,,,,,,,,,,,,,,,,,,,,,,,,,,,,,,,
,,,,,,,,,,,,,,,90211,001,2022-04-29_15h26.32.251,SPAMnetsValid,2021.1.4,Win32,59.76214666,,,,,,,,,,,,,,,,,,,,,,,,,,,,,,,,,,,,,,4,0.9941,0,23,23,23,1,sedulousness,diligence,credulousness,seduction,perilousness,frankness,1,,,,,,,,,,,,,,,,,,,,,,,,,,,,,,,,,,,,,,
,,,,,,,,,,,,,,,90211,001,2022-04-29_15h26.32.251,SPAMnetsValid,2021.1.4,Win32,59.76214666,,,,,,,,,,,,,,,,,,,,,,,,,,,,,,,,,,,,,,,,,,,,,,,,,,,,use it as a step stool,bucket,0,0,0,0,1,,,,,,,,,,,,,,,,,,,,,,,,,,,,,,,
,,,,,,,,,,,,,,,90211,001,2022-04-29_15h26.32.251,SPAMnetsValid,2021.1.4,Win32,59.76214666,,,,,,,,,,,,,,,,,,,,,,,,,,,,,,,,,,,,,,,,,,,,,,,,,,,,hat,bucket,1,0,1,0,1,,,,,,,,,,,,,,,,,,,,,,,,,,,,,,,
,,,,,,,,,,,,,,,90211,001,2022-04-29_15h26.32.251,SPAMnetsValid,2021.1.4,Win32,59.76214666,,,,,,,,,,,,,,,,,,,,,,,,,,,,,,,,,,,,,,,,,,,,,,,,,,,,really large cookie cutter,bucket,2,0,2,0,1,,,,,,,,,,,,,,,,,,,,,,,,,,,,,,,
,,,,,,,,,,,,,,,90211,001,2022-04-29_15h26.32.251,SPAMnetsValid,2021.1.4,Win32,59.76214666,,,,,,,,,,,,,,,,,,,,,,,,,,,,,,,,,,,,,,,,,,,,,,,,,,,,,bucket,3,0,3,0,1,,,,,,,,,,,,,,,,,,,,,,,,,,,,,,,
,,,,,,,,,,,,,,,90211,001,2022-04-29_15h26.32.251,SPAMnetsValid,2021.1.4,Win32,59.76214666,,,,,,,,,,,,,,,,,,,,,,,,,,,,,,,,,,,,,,,,,,,,,,,,,,,,,bucket,4,0,4,0,1,,,,,,,,,,,,,,,,,,,,,,,,,,,,,,,
,,,,,,,,,,,,,,,90211,001,2022-04-29_15h26.32.251,SPAMnetsValid,2021.1.4,Win32,59.76214666,,,,,,,,,,,,,,,,,,,,,,,,,,,,,,,,,,,,,,,,,,,,,,,,,,,,drums,bucket,5,0,5,0,1,,,,,,,,,,,,,,,,,,,,,,,,,,,,,,,
,,,,,,,,,,,,,,,90211,001,2022-04-29_15h26.32.251,SPAMnetsValid,2021.1.4,Win32,59.76214666,,,,,,,,,,,,,,,,,,,,,,,,,,,,,,,,,,,,,,,,,,,,,,,,,,,,a,bucket,6,0,6,0,1,,,,,,,,,,,,,,,,,,,,,,,,,,,,,,,
,,,,,,,,,,,,,,,90211,001,2022-04-29_15h26.32.251,SPAMnetsValid,2021.1.4,Win32,59.76214666,,,,,,,,,,,,,,,,,,,,,,,,,,,,,,,,,,,,,,,,,,,,,,,,,,,,,,,,,,,0,0,0,0,1,bucket,,,,,,,,,,,,,,,,,,,,,,,,,
,,,,,,,,,,,,,,,90211,001,2022-04-29_15h26.32.251,SPAMnetsValid,2021.1.4,Win32,59.76214666,,,,,,,,,,,,,,,,,,,,,,,,,,,,,,,,,,,,,,,,,,,,,,,,,,,,use a bunch to boil water,candle,0,0,0,0,1,,,,,,,,,,,,,,,,,,,,,,,,,,,,,,,
,,,,,,,,,,,,,,,90211,001,2022-04-29_15h26.32.251,SPAMnetsValid,2021.1.4,Win32,59.76214666,,,,,,,,,,,,,,,,,,,,,,,,,,,,,,,,,,,,,,,,,,,,,,,,,,,,melt a bunch to make a wax castle,candle,1,0,1,0,1,,,,,,,,,,,,,,,,,,,,,,,,,,,,,,,
,,,,,,,,,,,,,,,90211,001,2022-04-29_15h26.32.251,SPAMnetsValid,2021.1.4,Win32,59.76214666,,,,,,,,,,,,,,,,,,,,,,,,,,,,,,,,,,,,,,,,,,,,,,,,,,,,,,,,,,,0,1,1,1,1,candle,,,,,,,,,,,,,,,,,,,,,,,,,
,,,,,,,,,,,,,,,90211,001,2022-04-29_15h26.32.251,SPAMnetsValid,2021.1.4,Win32,59.76214666,,,,,,,,,,,,,,,,,,,,,,,,,,,,,,,,,,,,,,,,,,,,,,,,,,,,put a bunch on the ground and then jump out of an airplane onto them,pillow,0,0,0,0,1,,,,,,,,,,,,,,,,,,,,,,,,,,,,,,,
,,,,,,,,,,,,,,,90211,001,2022-04-29_15h26.32.251,SPAMnetsValid,2021.1.4,Win32,59.76214666,,,,,,,,,,,,,,,,,,,,,,,,,,,,,,,,,,,,,,,,,,,,,,,,,,,,,,,,,,,0,2,2,2,1,pillow,,,,,,,,,,,,,,,,,,,,,,,,,
,,,,,,,,,,,,,,,90211,001,2022-04-29_15h26.32.251,SPAMnetsValid,2021.1.4,Win32,59.76214666,,,,,,,,,,,,,,,,,,,,,,,,,,,,,,,,,,,,,,,,,,,,,,,,,,,,,,,,,,,,,,,,,dog,Animals,0,0,0,0,1,,,,,,,,,,,,,,,,,,
,,,,,,,,,,,,,,,90211,001,2022-04-29_15h26.32.251,SPAMnetsValid,2021.1.4,Win32,59.76214666,,,,,,,,,,,,,,,,,,,,,,,,,,,,,,,,,,,,,,,,,,,,,,,,,,,,,,,,,,,,,,,,,cat,Animals,1,0,1,0,1,,,,,,,,,,,,,,,,,,
,,,,,,,,,,,,,,,90211,001,2022-04-29_15h26.32.251,SPAMnetsValid,2021.1.4,Win32,59.76214666,,,,,,,,,,,,,,,,,,,,,,,,,,,,,,,,,,,,,,,,,,,,,,,,,,,,,,,,,,,,,,,,,elephant,Animals,2,0,2,0,1,,,,,,,,,,,,,,,,,,
,,,,,,,,,,,,,,,90211,001,2022-04-29_15h26.32.251,SPAMnetsValid,2021.1.4,Win32,59.76214666,,,,,,,,,,,,,,,,,,,,,,,,,,,,,,,,,,,,,,,,,,,,,,,,,,,,,,,,,,,,,,,,,zebra,Animals,3,0,3,0,1,,,,,,,,,,,,,,,,,,
,,,,,,,,,,,,,,,90211,001,2022-04-29_15h26.32.251,SPAMnetsValid,2021.1.4,Win32,59.76214666,,,,,,,,,,,,,,,,,,,,,,,,,,,,,,,,,,,,,,,,,,,,,,,,,,,,,,,,,,,,,,,,,tiger,Animals,4,0,4,0,1,,,,,,,,,,,,,,,,,,
,,,,,,,,,,,,,,,90211,001,2022-04-29_15h26.32.251,SPAMnetsValid,2021.1.4,Win32,59.76214666,,,,,,,,,,,,,,,,,,,,,,,,,,,,,,,,,,,,,,,,,,,,,,,,,,,,,,,,,,,,,,,,,lion,Animals,5,0,5,0,1,,,,,,,,,,,,,,,,,,
,,,,,,,,,,,,,,,90211,001,2022-04-29_15h26.32.251,SPAMnetsValid,2021.1.4,Win32,59.76214666,,,,,,,,,,,,,,,,,,,,,,,,,,,,,,,,,,,,,,,,,,,,,,,,,,,,,,,,,,,,,,,,,frog,Animals,6,0,6,0,1,,,,,,,,,,,,,,,,,,
,,,,,,,,,,,,,,,90211,001,2022-04-29_15h26.32.251,SPAMnetsValid,2021.1.4,Win32,59.76214666,,,,,,,,,,,,,,,,,,,,,,,,,,,,,,,,,,,,,,,,,,,,,,,,,,,,,,,,,,,,,,,,,shark,Animals,7,0,7,0,1,,,,,,,,,,,,,,,,,,
,,,,,,,,,,,,,,,90211,001,2022-04-29_15h26.32.251,SPAMnetsValid,2021.1.4,Win32,59.76214666,,,,,,,,,,,,,,,,,,,,,,,,,,,,,,,,,,,,,,,,,,,,,,,,,,,,,,,,,,,,,,,,,dolphin,Animals,8,0,8,0,1,,,,,,,,,,,,,,,,,,
,,,,,,,,,,,,,,,90211,001,2022-04-29_15h26.32.251,SPAMnetsValid,2021.1.4,Win32,59.76214666,,,,,,,,,,,,,,,,,,,,,,,,,,,,,,,,,,,,,,,,,,,,,,,,,,,,,,,,,,,,,,,,,jaguar,Animals,9,0,9,0,1,,,,,,,,,,,,,,,,,,
,,,,,,,,,,,,,,,90211,001,2022-04-29_15h26.32.251,SPAMnetsValid,2021.1.4,Win32,59.76214666,,,,,,,,,,,,,,,,,,,,,,,,,,,,,,,,,,,,,,,,,,,,,,,,,,,,,,,,,,,,,,,,,rhino,Animals,10,0,10,0,1,,,,,,,,,,,,,,,,,,
,,,,,,,,,,,,,,,90211,001,2022-04-29_15h26.32.251,SPAMnetsValid,2021.1.4,Win32,59.76214666,,,,,,,,,,,,,,,,,,,,,,,,,,,,,,,,,,,,,,,,,,,,,,,,,,,,,,,,,,,,,,,,,whale,Animals,11,0,11,0,1,,,,,,,,,,,,,,,,,,
,,,,,,,,,,,,,,,90211,001,2022-04-29_15h26.32.251,SPAMnetsValid,2021.1.4,Win32,59.76214666,,,,,,,,,,,,,,,,,,,,,,,,,,,,,,,,,,,,,,,,,,,,,,,,,,,,,,,,,,,,,,,,,,,,,,,,0,0,0,0,1,Animals,,,,,,,,,,,,
,,,,,,,,,,,,,,,90211,001,2022-04-29_15h26.32.251,SPAMnetsValid,2021.1.4,Win32,59.76214666,,,,,,,,,,,,,,,,,,,,,,,,,,,,,,,,,,,,,,,,,,,,,,,,,,,,,,,,,,,,,,,,,,,,,,,,,,,,,,5,4.3572,0,0,0,0,1,"I enjoy concentrating on a fantasy or daydream and exploring all its possibilities, letting it grow and develop.",0,1,,
,,,,,,,,,,,,,,,90211,001,2022-04-29_15h26.32.251,SPAMnetsValid,2021.1.4,Win32,59.76214666,,,,,,,,,,,,,,,,,,,,,,,,,,,,,,,,,,,,,,,,,,,,,,,,,,,,,,,,,,,,,,,,,,,,,,,,,,,,,,4,3.8488,0,1,1,1,1,I think it's interesting to learn and develop new hobbies.,0,2,,
,,,,,,,,,,,,,,,90211,001,2022-04-29_15h26.32.251,SPAMnetsValid,2021.1.4,Win32,59.76214666,,,,,,,,,,,,,,,,,,,,,,,,,,,,,,,,,,,,,,,,,,,,,,,,,,,,,,,,,,,,,,,,,,,,,,,,,,,,,,4,2.1901,0,2,2,2,1,I am intrigued by the patterns I find in art and nature.,0,3,,
,,,,,,,,,,,,,,,90211,001,2022-04-29_15h26.32.251,SPAMnetsValid,2021.1.4,Win32,59.76214666,,,,,,,,,,,,,,,,,,,,,,,,,,,,,,,,,,,,,,,,,,,,,,,,,,,,,,,,,,,,,,,,,,,,,,,,,,,,,,1,4.0842,0,3,3,3,1,I believe letting students hear controversial speakers can only confuse and mislead them.,1,4,,
,,,,,,,,,,,,,,,90211,001,2022-04-29_15h26.32.251,SPAMnetsValid,2021.1.4,Win32,59.76214666,,,,,,,,,,,,,,,,,,,,,,,,,,,,,,,,,,,,,,,,,,,,,,,,,,,,,,,,,,,,,,,,,,,,,,,,,,,,,,2,2.56,0,4,4,4,1,Poetry has little or no effect on me.,1,5,,
,,,,,,,,,,,,,,,90211,001,2022-04-29_15h26.32.251,SPAMnetsValid,2021.1.4,Win32,59.76214666,,,,,,,,,,,,,,,,,,,,,,,,,,,,,,,,,,,,,,,,,,,,,,,,,,,,,,,,,,,,,,,,,,,,,,,,,,,,,,1,5.785,0,5,5,5,1,I would have difficulty just letting my mind wander without control or guidance.,1,6,,
,,,,,,,,,,,,,,,90211,001,2022-04-29_15h26.32.251,SPAMnetsValid,2021.1.4,Win32,59.76214666,,,,,,,,,,,,,,,,,,,,,,,,,,,,,,,,,,,,,,,,,,,,,,,,,,,,,,,,,,,,,,,,,,,,,,,,,,,,,,1,4.9942,0,6,6,6,1,I seldom notice the moods or feelings that different environments produce.,1,7,,
,,,,,,,,,,,,,,,90211,001,2022-04-29_15h26.32.251,SPAMnetsValid,2021.1.4,Win32,59.76214666,,,,,,,,,,,,,,,,,,,,,,,,,,,,,,,,,,,,,,,,,,,,,,,,,,,,,,,,,,,,,,,,,,,,,,,,,,,,,,5,2.7653,0,7,7,7,1,I experience a wide range of emotions or feelings.,0,8,,
,,,,,,,,,,,,,,,90211,001,2022-04-29_15h26.32.251,SPAMnetsValid,2021.1.4,Win32,59.76214666,,,,,,,,,,,,,,,,,,,,,,,,,,,,,,,,,,,,,,,,,,,,,,,,,,,,,,,,,,,,,,,,,,,,,,,,,,,,,,5,3.1727,0,8,8,8,1,"Sometimes when I am reading poetry or looking at a work of art, I feel a chill or wave of excitement.",0,9,,
,,,,,,,,,,,,,,,90211,001,2022-04-29_15h26.32.251,SPAMnetsValid,2021.1.4,Win32,59.76214666,,,,,,,,,,,,,,,,,,,,,,,,,,,,,,,,,,,,,,,,,,,,,,,,,,,,,,,,,,,,,,,,,,,,,,,,,,,,,,2,3.9257,0,9,9,9,1,I have little interest in speculating on the nature of the universe or the human condition.,1,10,,
,,,,,,,,,,,,,,,90211,001,2022-04-29_15h26.32.251,SPAMnetsValid,2021.1.4,Win32,59.76214666,,,,,,,,,,,,,,,,,,,,,,,,,,,,,,,,,,,,,,,,,,,,,,,,,,,,,,,,,,,,,,,,,,,,,,,,,,,,,,5,2.2697,0,10,10,10,1,I have a lot of intellectual curiosity.,0,11,,
,,,,,,,,,,,,,,,90211,001,2022-04-29_15h26.32.251,SPAMnetsValid,2021.1.4,Win32,59.76214666,,,,,,,,,,,,,,,,,,,,,,,,,,,,,,,,,,,,,,,,,,,,,,,,,,,,,,,,,,,,,,,,,,,,,,,,,,,,,,5,2.1646,0,11,11,11,1,I often enjoy playing with theories or abstract ideas.,0,12,,
,,,,,,,,,,,,,,,90211,001,2022-04-29_15h26.32.251,SPAMnetsValid,2021.1.4,Win32,59.76214666,,,,,,,,,,,,,,,,,,,,,,,,,,,,,,,,,,,,,,,,,,,,,,,,,,,,,,,,,,,,,,,,,,,,,,,,,,,,,,,,,,,,,,,,return,15.9744
