key_resp_3.keys,key_resp_3.rt,slider.response,slider.rt,rjt_rating,rjt_RT,trials_22.thisRepN,trials_22.thisTrialN,trials_22.thisN,trials_22.thisIndex,trials_22.ran,rjt_order,word1,word2,attention,participant,session,date,expName,psychopyVersion,OS,frameRate,trials_99.thisRepN,trials_99.thisTrialN,trials_99.thisN,trials_99.thisIndex,trials_99.ran,trials_5.thisRepN,trials_5.thisTrialN,trials_5.thisN,trials_5.thisIndex,trials_5.ran,repOne,repTwo,slider_2.response,slider_2.rt,trials_24.thisRepN,trials_24.thisTrialN,trials_24.thisN,trials_24.thisIndex,trials_24.ran,trials_4.thisRepN,trials_4.thisTrialN,trials_4.thisN,trials_4.thisIndex,trials_4.ran,slider_extend_2.response,slider_extend_2.rt,trials_6.thisRepN,trials_6.thisTrialN,trials_6.thisN,trials_6.thisIndex,trials_6.ran,vCue2,R1,R2,R3,R4,correct,sliderVocab.response,sliderVocab.rt,trials_7.thisRepN,trials_7.thisTrialN,trials_7.thisN,trials_7.thisIndex,trials_7.ran,VocabCue,VR1,VR2,VR3,VR4,VR5,VocabCorrect,AUT_resp,AUT_label,trials.thisRepN,trials.thisTrialN,trials.thisN,trials.thisIndex,trials.ran,trials_2.thisRepN,trials_2.thisTrialN,trials_2.thisN,trials_2.thisIndex,trials_2.ran,aut_prompt,VF_response,VF_tag,trials_16.thisRepN,trials_16.thisTrialN,trials_16.thisN,trials_16.thisIndex,trials_16.ran,trials_17.thisRepN,trials_17.thisTrialN,trials_17.thisN,trials_17.thisIndex,trials_17.ran,VFcond,open_slider.response,open_slider.rt,trials_3.thisRepN,trials_3.thisTrialN,trials_3.thisN,trials_3.thisIndex,trials_3.ran,OpenQ,Rev,OPEN_ORDER,key_resp_2.keys,key_resp_2.rt
return,17.5976,3,9.003,3,9.003,0,0,0,7,1,34,melon,oven,,90226,001,2022-04-20_15h26.39.905,SPAMnetsValid,2021.1.4,Win32,60.05645307,,,,,,,,,,,,,,,,,,,,,,,,,,,,,,,,,,,,,,,,,,,,,,,,,,,,,,,,,,,,,,,,,,,,,,,,,,,,,,,,,,,,,,,,,
,,6,3.0423,6,3.0423,0,1,1,54,1,28,cake,melon,,90226,001,2022-04-20_15h26.39.905,SPAMnetsValid,2021.1.4,Win32,60.05645307,,,,,,,,,,,,,,,,,,,,,,,,,,,,,,,,,,,,,,,,,,,,,,,,,,,,,,,,,,,,,,,,,,,,,,,,,,,,,,,,,,,,,,,,,
,,9,2.0659,9,2.0659,0,2,2,10,1,191,cake,cake,CHECK,90226,001,2022-04-20_15h26.39.905,SPAMnetsValid,2021.1.4,Win32,60.05645307,,,,,,,,,,,,,,,,,,,,,,,,,,,,,,,,,,,,,,,,,,,,,,,,,,,,,,,,,,,,,,,,,,,,,,,,,,,,,,,,,,,,,,,,,
,,3,2.0163,3,2.0163,0,3,3,26,1,35,flower,pretzel,,90226,001,2022-04-20_15h26.39.905,SPAMnetsValid,2021.1.4,Win32,60.05645307,,,,,,,,,,,,,,,,,,,,,,,,,,,,,,,,,,,,,,,,,,,,,,,,,,,,,,,,,,,,,,,,,,,,,,,,,,,,,,,,,,,,,,,,,
,,8,2.2137,8,2.2137,0,4,4,67,1,54,chocolate,yogurt,,90226,001,2022-04-20_15h26.39.905,SPAMnetsValid,2021.1.4,Win32,60.05645307,,,,,,,,,,,,,,,,,,,,,,,,,,,,,,,,,,,,,,,,,,,,,,,,,,,,,,,,,,,,,,,,,,,,,,,,,,,,,,,,,,,,,,,,,
,,1,1.5754,1,1.5754,0,5,5,9,1,75,cookie,onion,,90226,001,2022-04-20_15h26.39.905,SPAMnetsValid,2021.1.4,Win32,60.05645307,,,,,,,,,,,,,,,,,,,,,,,,,,,,,,,,,,,,,,,,,,,,,,,,,,,,,,,,,,,,,,,,,,,,,,,,,,,,,,,,,,,,,,,,,
,,9,2.4759,9,2.4759,0,6,6,96,1,82,cake,kitchen,,90226,001,2022-04-20_15h26.39.905,SPAMnetsValid,2021.1.4,Win32,60.05645307,,,,,,,,,,,,,,,,,,,,,,,,,,,,,,,,,,,,,,,,,,,,,,,,,,,,,,,,,,,,,,,,,,,,,,,,,,,,,,,,,,,,,,,,,
,,8,4.914,8,4.914,0,7,7,52,1,4,chocolate,pretzel,,90226,001,2022-04-20_15h26.39.905,SPAMnetsValid,2021.1.4,Win32,60.05645307,,,,,,,,,,,,,,,,,,,,,,,,,,,,,,,,,,,,,,,,,,,,,,,,,,,,,,,,,,,,,,,,,,,,,,,,,,,,,,,,,,,,,,,,,
,,6,4.2281,6,4.2281,0,8,8,34,1,29,chocolate,melon,,90226,001,2022-04-20_15h26.39.905,SPAMnetsValid,2021.1.4,Win32,60.05645307,,,,,,,,,,,,,,,,,,,,,,,,,,,,,,,,,,,,,,,,,,,,,,,,,,,,,,,,,,,,,,,,,,,,,,,,,,,,,,,,,,,,,,,,,
,,2,1.9238,2,1.9238,0,9,9,88,1,92,broom,flower,,90226,001,2022-04-20_15h26.39.905,SPAMnetsValid,2021.1.4,Win32,60.05645307,,,,,,,,,,,,,,,,,,,,,,,,,,,,,,,,,,,,,,,,,,,,,,,,,,,,,,,,,,,,,,,,,,,,,,,,,,,,,,,,,,,,,,,,,
,,6,3.2607,6,3.2607,0,10,10,35,1,55,tomato,tree,,90226,001,2022-04-20_15h26.39.905,SPAMnetsValid,2021.1.4,Win32,60.05645307,,,,,,,,,,,,,,,,,,,,,,,,,,,,,,,,,,,,,,,,,,,,,,,,,,,,,,,,,,,,,,,,,,,,,,,,,,,,,,,,,,,,,,,,,
,,2,1.9758,2,1.9758,0,11,11,84,1,91,microwave,rose,,90226,001,2022-04-20_15h26.39.905,SPAMnetsValid,2021.1.4,Win32,60.05645307,,,,,,,,,,,,,,,,,,,,,,,,,,,,,,,,,,,,,,,,,,,,,,,,,,,,,,,,,,,,,,,,,,,,,,,,,,,,,,,,,,,,,,,,,
,,3,1.9198,3,1.9198,0,12,12,37,1,58,garden,oven,,90226,001,2022-04-20_15h26.39.905,SPAMnetsValid,2021.1.4,Win32,60.05645307,,,,,,,,,,,,,,,,,,,,,,,,,,,,,,,,,,,,,,,,,,,,,,,,,,,,,,,,,,,,,,,,,,,,,,,,,,,,,,,,,,,,,,,,,
,,3,1.7281,3,1.7281,0,13,13,15,1,48,flower,oven,,90226,001,2022-04-20_15h26.39.905,SPAMnetsValid,2021.1.4,Win32,60.05645307,,,,,,,,,,,,,,,,,,,,,,,,,,,,,,,,,,,,,,,,,,,,,,,,,,,,,,,,,,,,,,,,,,,,,,,,,,,,,,,,,,,,,,,,,
,,7,3.7424,7,3.7424,0,14,14,33,1,32,cake,microwave,,90226,001,2022-04-20_15h26.39.905,SPAMnetsValid,2021.1.4,Win32,60.05645307,,,,,,,,,,,,,,,,,,,,,,,,,,,,,,,,,,,,,,,,,,,,,,,,,,,,,,,,,,,,,,,,,,,,,,,,,,,,,,,,,,,,,,,,,
,,1,1.5618,1,1.5618,0,15,15,63,1,21,cake,onion,,90226,001,2022-04-20_15h26.39.905,SPAMnetsValid,2021.1.4,Win32,60.05645307,,,,,,,,,,,,,,,,,,,,,,,,,,,,,,,,,,,,,,,,,,,,,,,,,,,,,,,,,,,,,,,,,,,,,,,,,,,,,,,,,,,,,,,,,
,,7,3.2931,7,3.2931,0,16,16,39,1,15,onion,oven,,90226,001,2022-04-20_15h26.39.905,SPAMnetsValid,2021.1.4,Win32,60.05645307,,,,,,,,,,,,,,,,,,,,,,,,,,,,,,,,,,,,,,,,,,,,,,,,,,,,,,,,,,,,,,,,,,,,,,,,,,,,,,,,,,,,,,,,,
,,1,1.9666,1,1.9666,0,17,17,74,1,70,chocolate,onion,,90226,001,2022-04-20_15h26.39.905,SPAMnetsValid,2021.1.4,Win32,60.05645307,,,,,,,,,,,,,,,,,,,,,,,,,,,,,,,,,,,,,,,,,,,,,,,,,,,,,,,,,,,,,,,,,,,,,,,,,,,,,,,,,,,,,,,,,
,,6,2.2254,6,2.2254,0,18,18,73,1,50,carrot,rose,,90226,001,2022-04-20_15h26.39.905,SPAMnetsValid,2021.1.4,Win32,60.05645307,,,,,,,,,,,,,,,,,,,,,,,,,,,,,,,,,,,,,,,,,,,,,,,,,,,,,,,,,,,,,,,,,,,,,,,,,,,,,,,,,,,,,,,,,
,,3,1.7748,3,1.7748,0,19,19,12,1,67,flower,yogurt,,90226,001,2022-04-20_15h26.39.905,SPAMnetsValid,2021.1.4,Win32,60.05645307,,,,,,,,,,,,,,,,,,,,,,,,,,,,,,,,,,,,,,,,,,,,,,,,,,,,,,,,,,,,,,,,,,,,,,,,,,,,,,,,,,,,,,,,,
,,2,1.6914,2,1.6914,0,20,20,61,1,71,broom,rose,,90226,001,2022-04-20_15h26.39.905,SPAMnetsValid,2021.1.4,Win32,60.05645307,,,,,,,,,,,,,,,,,,,,,,,,,,,,,,,,,,,,,,,,,,,,,,,,,,,,,,,,,,,,,,,,,,,,,,,,,,,,,,,,,,,,,,,,,
,,6,3.4705,6,3.4705,0,21,21,71,1,38,pretzel,refrigerator,,90226,001,2022-04-20_15h26.39.905,SPAMnetsValid,2021.1.4,Win32,60.05645307,,,,,,,,,,,,,,,,,,,,,,,,,,,,,,,,,,,,,,,,,,,,,,,,,,,,,,,,,,,,,,,,,,,,,,,,,,,,,,,,,,,,,,,,,
,,7,2.159,7,2.159,0,22,22,91,1,2,kitchen,onion,,90226,001,2022-04-20_15h26.39.905,SPAMnetsValid,2021.1.4,Win32,60.05645307,,,,,,,,,,,,,,,,,,,,,,,,,,,,,,,,,,,,,,,,,,,,,,,,,,,,,,,,,,,,,,,,,,,,,,,,,,,,,,,,,,,,,,,,,
,,8,1.9413,8,1.9413,0,23,23,19,1,76,garden,rose,,90226,001,2022-04-20_15h26.39.905,SPAMnetsValid,2021.1.4,Win32,60.05645307,,,,,,,,,,,,,,,,,,,,,,,,,,,,,,,,,,,,,,,,,,,,,,,,,,,,,,,,,,,,,,,,,,,,,,,,,,,,,,,,,,,,,,,,,
,,2,3.2593,2,3.2593,0,24,24,69,1,45,onion,pretzel,,90226,001,2022-04-20_15h26.39.905,SPAMnetsValid,2021.1.4,Win32,60.05645307,,,,,,,,,,,,,,,,,,,,,,,,,,,,,,,,,,,,,,,,,,,,,,,,,,,,,,,,,,,,,,,,,,,,,,,,,,,,,,,,,,,,,,,,,
,,3,1.6595,3,1.6595,0,25,25,59,1,8,broom,melon,,90226,001,2022-04-20_15h26.39.905,SPAMnetsValid,2021.1.4,Win32,60.05645307,,,,,,,,,,,,,,,,,,,,,,,,,,,,,,,,,,,,,,,,,,,,,,,,,,,,,,,,,,,,,,,,,,,,,,,,,,,,,,,,,,,,,,,,,
,,2,1.7794,2,1.7794,0,26,26,23,1,65,broom,garden,,90226,001,2022-04-20_15h26.39.905,SPAMnetsValid,2021.1.4,Win32,60.05645307,,,,,,,,,,,,,,,,,,,,,,,,,,,,,,,,,,,,,,,,,,,,,,,,,,,,,,,,,,,,,,,,,,,,,,,,,,,,,,,,,,,,,,,,,
,,3,1.6754,3,1.6754,0,27,27,8,1,43,chocolate,tomato,,90226,001,2022-04-20_15h26.39.905,SPAMnetsValid,2021.1.4,Win32,60.05645307,,,,,,,,,,,,,,,,,,,,,,,,,,,,,,,,,,,,,,,,,,,,,,,,,,,,,,,,,,,,,,,,,,,,,,,,,,,,,,,,,,,,,,,,,
,,7,1.7584,7,1.7584,0,28,28,51,1,47,onion,tomato,,90226,001,2022-04-20_15h26.39.905,SPAMnetsValid,2021.1.4,Win32,60.05645307,,,,,,,,,,,,,,,,,,,,,,,,,,,,,,,,,,,,,,,,,,,,,,,,,,,,,,,,,,,,,,,,,,,,,,,,,,,,,,,,,,,,,,,,,
,,3,1.7424,3,1.7424,0,29,29,40,1,74,broom,pretzel,,90226,001,2022-04-20_15h26.39.905,SPAMnetsValid,2021.1.4,Win32,60.05645307,,,,,,,,,,,,,,,,,,,,,,,,,,,,,,,,,,,,,,,,,,,,,,,,,,,,,,,,,,,,,,,,,,,,,,,,,,,,,,,,,,,,,,,,,
,,7,1.7258,7,1.7258,0,30,30,2,1,22,kitchen,strawberry,,90226,001,2022-04-20_15h26.39.905,SPAMnetsValid,2021.1.4,Win32,60.05645307,,,,,,,,,,,,,,,,,,,,,,,,,,,,,,,,,,,,,,,,,,,,,,,,,,,,,,,,,,,,,,,,,,,,,,,,,,,,,,,,,,,,,,,,,
,,2,1.7827,2,1.7827,0,31,31,1,1,31,cactus,pretzel,,90226,001,2022-04-20_15h26.39.905,SPAMnetsValid,2021.1.4,Win32,60.05645307,,,,,,,,,,,,,,,,,,,,,,,,,,,,,,,,,,,,,,,,,,,,,,,,,,,,,,,,,,,,,,,,,,,,,,,,,,,,,,,,,,,,,,,,,
,,2,1.7292,2,1.7292,0,32,32,31,1,33,oven,yogurt,,90226,001,2022-04-20_15h26.39.905,SPAMnetsValid,2021.1.4,Win32,60.05645307,,,,,,,,,,,,,,,,,,,,,,,,,,,,,,,,,,,,,,,,,,,,,,,,,,,,,,,,,,,,,,,,,,,,,,,,,,,,,,,,,,,,,,,,,
,,3,1.708,3,1.708,0,33,33,56,1,78,cookie,rose,,90226,001,2022-04-20_15h26.39.905,SPAMnetsValid,2021.1.4,Win32,60.05645307,,,,,,,,,,,,,,,,,,,,,,,,,,,,,,,,,,,,,,,,,,,,,,,,,,,,,,,,,,,,,,,,,,,,,,,,,,,,,,,,,,,,,,,,,
,,8,2.2106,8,2.2106,0,34,34,58,1,94,kitchen,microwave,,90226,001,2022-04-20_15h26.39.905,SPAMnetsValid,2021.1.4,Win32,60.05645307,,,,,,,,,,,,,,,,,,,,,,,,,,,,,,,,,,,,,,,,,,,,,,,,,,,,,,,,,,,,,,,,,,,,,,,,,,,,,,,,,,,,,,,,,
,,6,2.893,6,2.893,0,35,35,66,1,20,rose,tree,,90226,001,2022-04-20_15h26.39.905,SPAMnetsValid,2021.1.4,Win32,60.05645307,,,,,,,,,,,,,,,,,,,,,,,,,,,,,,,,,,,,,,,,,,,,,,,,,,,,,,,,,,,,,,,,,,,,,,,,,,,,,,,,,,,,,,,,,
,,2,1.8618,2,1.8618,0,36,36,68,1,24,cookie,tomato,,90226,001,2022-04-20_15h26.39.905,SPAMnetsValid,2021.1.4,Win32,60.05645307,,,,,,,,,,,,,,,,,,,,,,,,,,,,,,,,,,,,,,,,,,,,,,,,,,,,,,,,,,,,,,,,,,,,,,,,,,,,,,,,,,,,,,,,,
,,2,1.9411,2,1.9411,0,37,37,81,1,60,cactus,onion,,90226,001,2022-04-20_15h26.39.905,SPAMnetsValid,2021.1.4,Win32,60.05645307,,,,,,,,,,,,,,,,,,,,,,,,,,,,,,,,,,,,,,,,,,,,,,,,,,,,,,,,,,,,,,,,,,,,,,,,,,,,,,,,,,,,,,,,,
,,2,1.6945,2,1.6945,0,38,38,65,1,46,garden,yogurt,,90226,001,2022-04-20_15h26.39.905,SPAMnetsValid,2021.1.4,Win32,60.05645307,,,,,,,,,,,,,,,,,,,,,,,,,,,,,,,,,,,,,,,,,,,,,,,,,,,,,,,,,,,,,,,,,,,,,,,,,,,,,,,,,,,,,,,,,
,,3,1.9583,3,1.9583,0,39,39,85,1,90,cactus,cake,,90226,001,2022-04-20_15h26.39.905,SPAMnetsValid,2021.1.4,Win32,60.05645307,,,,,,,,,,,,,,,,,,,,,,,,,,,,,,,,,,,,,,,,,,,,,,,,,,,,,,,,,,,,,,,,,,,,,,,,,,,,,,,,,,,,,,,,,
,,9,3.1416,9,3.1416,0,40,40,53,1,192,microwave,microwave,CHECK,90226,001,2022-04-20_15h26.39.905,SPAMnetsValid,2021.1.4,Win32,60.05645307,,,,,,,,,,,,,,,,,,,,,,,,,,,,,,,,,,,,,,,,,,,,,,,,,,,,,,,,,,,,,,,,,,,,,,,,,,,,,,,,,,,,,,,,,
,,8,4.8263,8,4.8263,0,41,41,82,1,93,kitchen,oven,,90226,001,2022-04-20_15h26.39.905,SPAMnetsValid,2021.1.4,Win32,60.05645307,,,,,,,,,,,,,,,,,,,,,,,,,,,,,,,,,,,,,,,,,,,,,,,,,,,,,,,,,,,,,,,,,,,,,,,,,,,,,,,,,,,,,,,,,
,,8,2.6416,8,2.6416,0,42,42,30,1,3,cake,oven,,90226,001,2022-04-20_15h26.39.905,SPAMnetsValid,2021.1.4,Win32,60.05645307,,,,,,,,,,,,,,,,,,,,,,,,,,,,,,,,,,,,,,,,,,,,,,,,,,,,,,,,,,,,,,,,,,,,,,,,,,,,,,,,,,,,,,,,,
,,8,2.458,8,2.458,0,43,43,62,1,18,onion,refrigerator,,90226,001,2022-04-20_15h26.39.905,SPAMnetsValid,2021.1.4,Win32,60.05645307,,,,,,,,,,,,,,,,,,,,,,,,,,,,,,,,,,,,,,,,,,,,,,,,,,,,,,,,,,,,,,,,,,,,,,,,,,,,,,,,,,,,,,,,,
,,3,2.1655,3,2.1655,0,44,44,4,1,83,broom,carrot,,90226,001,2022-04-20_15h26.39.905,SPAMnetsValid,2021.1.4,Win32,60.05645307,,,,,,,,,,,,,,,,,,,,,,,,,,,,,,,,,,,,,,,,,,,,,,,,,,,,,,,,,,,,,,,,,,,,,,,,,,,,,,,,,,,,,,,,,
,,3,2.2095,3,2.2095,0,45,45,36,1,12,cookie,yogurt,,90226,001,2022-04-20_15h26.39.905,SPAMnetsValid,2021.1.4,Win32,60.05645307,,,,,,,,,,,,,,,,,,,,,,,,,,,,,,,,,,,,,,,,,,,,,,,,,,,,,,,,,,,,,,,,,,,,,,,,,,,,,,,,,,,,,,,,,
,,2,1.6652,2,1.6652,0,46,46,29,1,42,garden,kitchen,,90226,001,2022-04-20_15h26.39.905,SPAMnetsValid,2021.1.4,Win32,60.05645307,,,,,,,,,,,,,,,,,,,,,,,,,,,,,,,,,,,,,,,,,,,,,,,,,,,,,,,,,,,,,,,,,,,,,,,,,,,,,,,,,,,,,,,,,
,,6,2.9431,6,2.9431,0,47,47,22,1,16,chocolate,flower,,90226,001,2022-04-20_15h26.39.905,SPAMnetsValid,2021.1.4,Win32,60.05645307,,,,,,,,,,,,,,,,,,,,,,,,,,,,,,,,,,,,,,,,,,,,,,,,,,,,,,,,,,,,,,,,,,,,,,,,,,,,,,,,,,,,,,,,,
,,4,2.8512,4,2.8512,0,48,48,48,1,66,melon,yogurt,,90226,001,2022-04-20_15h26.39.905,SPAMnetsValid,2021.1.4,Win32,60.05645307,,,,,,,,,,,,,,,,,,,,,,,,,,,,,,,,,,,,,,,,,,,,,,,,,,,,,,,,,,,,,,,,,,,,,,,,,,,,,,,,,,,,,,,,,
,,3,2.717,3,2.717,0,49,49,41,1,19,microwave,pretzel,,90226,001,2022-04-20_15h26.39.905,SPAMnetsValid,2021.1.4,Win32,60.05645307,,,,,,,,,,,,,,,,,,,,,,,,,,,,,,,,,,,,,,,,,,,,,,,,,,,,,,,,,,,,,,,,,,,,,,,,,,,,,,,,,,,,,,,,,
,,8,2.2435,8,2.2435,0,50,50,42,1,77,refrigerator,yogurt,,90226,001,2022-04-20_15h26.39.905,SPAMnetsValid,2021.1.4,Win32,60.05645307,,,,,,,,,,,,,,,,,,,,,,,,,,,,,,,,,,,,,,,,,,,,,,,,,,,,,,,,,,,,,,,,,,,,,,,,,,,,,,,,,,,,,,,,,
,,6,2.0589,6,2.0589,0,51,51,21,1,56,cactus,tree,,90226,001,2022-04-20_15h26.39.905,SPAMnetsValid,2021.1.4,Win32,60.05645307,,,,,,,,,,,,,,,,,,,,,,,,,,,,,,,,,,,,,,,,,,,,,,,,,,,,,,,,,,,,,,,,,,,,,,,,,,,,,,,,,,,,,,,,,
,,3,3.4936,3,3.4936,0,52,52,72,1,59,rose,strawberry,,90226,001,2022-04-20_15h26.39.905,SPAMnetsValid,2021.1.4,Win32,60.05645307,,,,,,,,,,,,,,,,,,,,,,,,,,,,,,,,,,,,,,,,,,,,,,,,,,,,,,,,,,,,,,,,,,,,,,,,,,,,,,,,,,,,,,,,,
,,6,4.5598,6,4.5598,0,53,53,78,1,30,cookie,pretzel,,90226,001,2022-04-20_15h26.39.905,SPAMnetsValid,2021.1.4,Win32,60.05645307,,,,,,,,,,,,,,,,,,,,,,,,,,,,,,,,,,,,,,,,,,,,,,,,,,,,,,,,,,,,,,,,,,,,,,,,,,,,,,,,,,,,,,,,,
,,8,3.0816,8,3.0816,0,54,54,64,1,9,kitchen,refrigerator,,90226,001,2022-04-20_15h26.39.905,SPAMnetsValid,2021.1.4,Win32,60.05645307,,,,,,,,,,,,,,,,,,,,,,,,,,,,,,,,,,,,,,,,,,,,,,,,,,,,,,,,,,,,,,,,,,,,,,,,,,,,,,,,,,,,,,,,,
,,3,2.1323,3,2.1323,0,55,55,77,1,7,melon,tree,,90226,001,2022-04-20_15h26.39.905,SPAMnetsValid,2021.1.4,Win32,60.05645307,,,,,,,,,,,,,,,,,,,,,,,,,,,,,,,,,,,,,,,,,,,,,,,,,,,,,,,,,,,,,,,,,,,,,,,,,,,,,,,,,,,,,,,,,
,,3,1.6076,3,1.6076,0,56,56,55,1,1,rose,yogurt,,90226,001,2022-04-20_15h26.39.905,SPAMnetsValid,2021.1.4,Win32,60.05645307,,,,,,,,,,,,,,,,,,,,,,,,,,,,,,,,,,,,,,,,,,,,,,,,,,,,,,,,,,,,,,,,,,,,,,,,,,,,,,,,,,,,,,,,,
,,4,2.3926,4,2.3926,0,57,57,46,1,41,broom,cactus,,90226,001,2022-04-20_15h26.39.905,SPAMnetsValid,2021.1.4,Win32,60.05645307,,,,,,,,,,,,,,,,,,,,,,,,,,,,,,,,,,,,,,,,,,,,,,,,,,,,,,,,,,,,,,,,,,,,,,,,,,,,,,,,,,,,,,,,,
,,3,1.7244,3,1.7244,0,58,58,92,1,44,cookie,melon,,90226,001,2022-04-20_15h26.39.905,SPAMnetsValid,2021.1.4,Win32,60.05645307,,,,,,,,,,,,,,,,,,,,,,,,,,,,,,,,,,,,,,,,,,,,,,,,,,,,,,,,,,,,,,,,,,,,,,,,,,,,,,,,,,,,,,,,,
,,6,4.6628,6,4.6628,0,59,59,76,1,36,broom,kitchen,,90226,001,2022-04-20_15h26.39.905,SPAMnetsValid,2021.1.4,Win32,60.05645307,,,,,,,,,,,,,,,,,,,,,,,,,,,,,,,,,,,,,,,,,,,,,,,,,,,,,,,,,,,,,,,,,,,,,,,,,,,,,,,,,,,,,,,,,
,,7,3.0596,7,3.0596,0,60,60,75,1,69,carrot,refrigerator,,90226,001,2022-04-20_15h26.39.905,SPAMnetsValid,2021.1.4,Win32,60.05645307,,,,,,,,,,,,,,,,,,,,,,,,,,,,,,,,,,,,,,,,,,,,,,,,,,,,,,,,,,,,,,,,,,,,,,,,,,,,,,,,,,,,,,,,,
,,3,2.0479,3,2.0479,0,61,61,13,1,26,tomato,yogurt,,90226,001,2022-04-20_15h26.39.905,SPAMnetsValid,2021.1.4,Win32,60.05645307,,,,,,,,,,,,,,,,,,,,,,,,,,,,,,,,,,,,,,,,,,,,,,,,,,,,,,,,,,,,,,,,,,,,,,,,,,,,,,,,,,,,,,,,,
,,3,1.693,3,1.693,0,62,62,18,1,85,cake,tree,,90226,001,2022-04-20_15h26.39.905,SPAMnetsValid,2021.1.4,Win32,60.05645307,,,,,,,,,,,,,,,,,,,,,,,,,,,,,,,,,,,,,,,,,,,,,,,,,,,,,,,,,,,,,,,,,,,,,,,,,,,,,,,,,,,,,,,,,
,,2,3.6662,2,3.6662,0,63,63,57,1,62,kitchen,rose,,90226,001,2022-04-20_15h26.39.905,SPAMnetsValid,2021.1.4,Win32,60.05645307,,,,,,,,,,,,,,,,,,,,,,,,,,,,,,,,,,,,,,,,,,,,,,,,,,,,,,,,,,,,,,,,,,,,,,,,,,,,,,,,,,,,,,,,,
,,7,1.9192,7,1.9192,0,64,64,87,1,79,garden,strawberry,,90226,001,2022-04-20_15h26.39.905,SPAMnetsValid,2021.1.4,Win32,60.05645307,,,,,,,,,,,,,,,,,,,,,,,,,,,,,,,,,,,,,,,,,,,,,,,,,,,,,,,,,,,,,,,,,,,,,,,,,,,,,,,,,,,,,,,,,
,,3,2.064,3,2.064,0,65,65,11,1,37,garden,refrigerator,,90226,001,2022-04-20_15h26.39.905,SPAMnetsValid,2021.1.4,Win32,60.05645307,,,,,,,,,,,,,,,,,,,,,,,,,,,,,,,,,,,,,,,,,,,,,,,,,,,,,,,,,,,,,,,,,,,,,,,,,,,,,,,,,,,,,,,,,
,,7,1.9636,7,1.9636,0,66,66,94,1,68,flower,tomato,,90226,001,2022-04-20_15h26.39.905,SPAMnetsValid,2021.1.4,Win32,60.05645307,,,,,,,,,,,,,,,,,,,,,,,,,,,,,,,,,,,,,,,,,,,,,,,,,,,,,,,,,,,,,,,,,,,,,,,,,,,,,,,,,,,,,,,,,
,,2,1.8297,2,1.8297,0,67,67,50,1,81,pretzel,yogurt,,90226,001,2022-04-20_15h26.39.905,SPAMnetsValid,2021.1.4,Win32,60.05645307,,,,,,,,,,,,,,,,,,,,,,,,,,,,,,,,,,,,,,,,,,,,,,,,,,,,,,,,,,,,,,,,,,,,,,,,,,,,,,,,,,,,,,,,,
,,2,3.5597,2,3.5597,0,68,68,6,1,87,carrot,yogurt,,90226,001,2022-04-20_15h26.39.905,SPAMnetsValid,2021.1.4,Win32,60.05645307,,,,,,,,,,,,,,,,,,,,,,,,,,,,,,,,,,,,,,,,,,,,,,,,,,,,,,,,,,,,,,,,,,,,,,,,,,,,,,,,,,,,,,,,,
,,2,1.7585,2,1.7585,0,69,69,0,1,53,garden,pretzel,,90226,001,2022-04-20_15h26.39.905,SPAMnetsValid,2021.1.4,Win32,60.05645307,,,,,,,,,,,,,,,,,,,,,,,,,,,,,,,,,,,,,,,,,,,,,,,,,,,,,,,,,,,,,,,,,,,,,,,,,,,,,,,,,,,,,,,,,
,,2,1.6119,2,1.6119,0,70,70,5,1,13,broom,yogurt,,90226,001,2022-04-20_15h26.39.905,SPAMnetsValid,2021.1.4,Win32,60.05645307,,,,,,,,,,,,,,,,,,,,,,,,,,,,,,,,,,,,,,,,,,,,,,,,,,,,,,,,,,,,,,,,,,,,,,,,,,,,,,,,,,,,,,,,,
,,1,1.7915,1,1.7915,0,71,71,17,1,27,cactus,cookie,,90226,001,2022-04-20_15h26.39.905,SPAMnetsValid,2021.1.4,Win32,60.05645307,,,,,,,,,,,,,,,,,,,,,,,,,,,,,,,,,,,,,,,,,,,,,,,,,,,,,,,,,,,,,,,,,,,,,,,,,,,,,,,,,,,,,,,,,
,,2,3.3587,2,3.3587,0,72,72,28,1,84,oven,tomato,,90226,001,2022-04-20_15h26.39.905,SPAMnetsValid,2021.1.4,Win32,60.05645307,,,,,,,,,,,,,,,,,,,,,,,,,,,,,,,,,,,,,,,,,,,,,,,,,,,,,,,,,,,,,,,,,,,,,,,,,,,,,,,,,,,,,,,,,
,,2,1.7258,2,1.7258,0,73,73,38,1,88,cactus,melon,,90226,001,2022-04-20_15h26.39.905,SPAMnetsValid,2021.1.4,Win32,60.05645307,,,,,,,,,,,,,,,,,,,,,,,,,,,,,,,,,,,,,,,,,,,,,,,,,,,,,,,,,,,,,,,,,,,,,,,,,,,,,,,,,,,,,,,,,
,,6,1.6585,6,1.6585,0,74,74,49,1,57,flower,kitchen,,90226,001,2022-04-20_15h26.39.905,SPAMnetsValid,2021.1.4,Win32,60.05645307,,,,,,,,,,,,,,,,,,,,,,,,,,,,,,,,,,,,,,,,,,,,,,,,,,,,,,,,,,,,,,,,,,,,,,,,,,,,,,,,,,,,,,,,,
,,3,2.8264,3,2.8264,0,75,75,25,1,23,flower,microwave,,90226,001,2022-04-20_15h26.39.905,SPAMnetsValid,2021.1.4,Win32,60.05645307,,,,,,,,,,,,,,,,,,,,,,,,,,,,,,,,,,,,,,,,,,,,,,,,,,,,,,,,,,,,,,,,,,,,,,,,,,,,,,,,,,,,,,,,,
,,4,4.4215,4,4.4215,0,76,76,45,1,10,flower,onion,,90226,001,2022-04-20_15h26.39.905,SPAMnetsValid,2021.1.4,Win32,60.05645307,,,,,,,,,,,,,,,,,,,,,,,,,,,,,,,,,,,,,,,,,,,,,,,,,,,,,,,,,,,,,,,,,,,,,,,,,,,,,,,,,,,,,,,,,
,,2,1.6669,2,1.6669,0,77,77,16,1,14,broom,cookie,,90226,001,2022-04-20_15h26.39.905,SPAMnetsValid,2021.1.4,Win32,60.05645307,,,,,,,,,,,,,,,,,,,,,,,,,,,,,,,,,,,,,,,,,,,,,,,,,,,,,,,,,,,,,,,,,,,,,,,,,,,,,,,,,,,,,,,,,
,,7,1.9101,7,1.9101,0,78,78,44,1,25,carrot,onion,,90226,001,2022-04-20_15h26.39.905,SPAMnetsValid,2021.1.4,Win32,60.05645307,,,,,,,,,,,,,,,,,,,,,,,,,,,,,,,,,,,,,,,,,,,,,,,,,,,,,,,,,,,,,,,,,,,,,,,,,,,,,,,,,,,,,,,,,
,,2,2.0401,2,2.0401,0,79,79,20,1,39,melon,pretzel,,90226,001,2022-04-20_15h26.39.905,SPAMnetsValid,2021.1.4,Win32,60.05645307,,,,,,,,,,,,,,,,,,,,,,,,,,,,,,,,,,,,,,,,,,,,,,,,,,,,,,,,,,,,,,,,,,,,,,,,,,,,,,,,,,,,,,,,,
,,3,3.617,3,3.617,0,80,80,79,1,86,oven,rose,,90226,001,2022-04-20_15h26.39.905,SPAMnetsValid,2021.1.4,Win32,60.05645307,,,,,,,,,,,,,,,,,,,,,,,,,,,,,,,,,,,,,,,,,,,,,,,,,,,,,,,,,,,,,,,,,,,,,,,,,,,,,,,,,,,,,,,,,
,,4,4.8612,4,4.8612,0,81,81,3,1,49,flower,strawberry,,90226,001,2022-04-20_15h26.39.905,SPAMnetsValid,2021.1.4,Win32,60.05645307,,,,,,,,,,,,,,,,,,,,,,,,,,,,,,,,,,,,,,,,,,,,,,,,,,,,,,,,,,,,,,,,,,,,,,,,,,,,,,,,,,,,,,,,,
,,7,2.7226,7,2.7226,0,82,82,95,1,52,carrot,tomato,,90226,001,2022-04-20_15h26.39.905,SPAMnetsValid,2021.1.4,Win32,60.05645307,,,,,,,,,,,,,,,,,,,,,,,,,,,,,,,,,,,,,,,,,,,,,,,,,,,,,,,,,,,,,,,,,,,,,,,,,,,,,,,,,,,,,,,,,
,,2,1.7,2,1.7,0,83,83,27,1,72,broom,onion,,90226,001,2022-04-20_15h26.39.905,SPAMnetsValid,2021.1.4,Win32,60.05645307,,,,,,,,,,,,,,,,,,,,,,,,,,,,,,,,,,,,,,,,,,,,,,,,,,,,,,,,,,,,,,,,,,,,,,,,,,,,,,,,,,,,,,,,,
,,3,2.1074,3,2.1074,0,84,84,86,1,51,onion,strawberry,,90226,001,2022-04-20_15h26.39.905,SPAMnetsValid,2021.1.4,Win32,60.05645307,,,,,,,,,,,,,,,,,,,,,,,,,,,,,,,,,,,,,,,,,,,,,,,,,,,,,,,,,,,,,,,,,,,,,,,,,,,,,,,,,,,,,,,,,
,,3,2.9674,3,2.9674,0,85,85,14,1,64,chocolate,garden,,90226,001,2022-04-20_15h26.39.905,SPAMnetsValid,2021.1.4,Win32,60.05645307,,,,,,,,,,,,,,,,,,,,,,,,,,,,,,,,,,,,,,,,,,,,,,,,,,,,,,,,,,,,,,,,,,,,,,,,,,,,,,,,,,,,,,,,,
,,3,1.698,3,1.698,0,86,86,60,1,89,chocolate,rose,,90226,001,2022-04-20_15h26.39.905,SPAMnetsValid,2021.1.4,Win32,60.05645307,,,,,,,,,,,,,,,,,,,,,,,,,,,,,,,,,,,,,,,,,,,,,,,,,,,,,,,,,,,,,,,,,,,,,,,,,,,,,,,,,,,,,,,,,
,,3,6.7833,3,6.7833,0,87,87,32,1,40,broom,cake,,90226,001,2022-04-20_15h26.39.905,SPAMnetsValid,2021.1.4,Win32,60.05645307,,,,,,,,,,,,,,,,,,,,,,,,,,,,,,,,,,,,,,,,,,,,,,,,,,,,,,,,,,,,,,,,,,,,,,,,,,,,,,,,,,,,,,,,,
,,3,1.529,3,1.529,0,88,88,89,1,80,chocolate,tree,,90226,001,2022-04-20_15h26.39.905,SPAMnetsValid,2021.1.4,Win32,60.05645307,,,,,,,,,,,,,,,,,,,,,,,,,,,,,,,,,,,,,,,,,,,,,,,,,,,,,,,,,,,,,,,,,,,,,,,,,,,,,,,,,,,,,,,,,
,,3,2.2917,3,2.2917,0,89,89,24,1,17,carrot,melon,,90226,001,2022-04-20_15h26.39.905,SPAMnetsValid,2021.1.4,Win32,60.05645307,,,,,,,,,,,,,,,,,,,,,,,,,,,,,,,,,,,,,,,,,,,,,,,,,,,,,,,,,,,,,,,,,,,,,,,,,,,,,,,,,,,,,,,,,
,,3,1.6326,3,1.6326,0,90,90,70,1,5,oven,tree,,90226,001,2022-04-20_15h26.39.905,SPAMnetsValid,2021.1.4,Win32,60.05645307,,,,,,,,,,,,,,,,,,,,,,,,,,,,,,,,,,,,,,,,,,,,,,,,,,,,,,,,,,,,,,,,,,,,,,,,,,,,,,,,,,,,,,,,,
,,3,3.999,3,3.999,0,91,91,80,1,61,strawberry,tomato,,90226,001,2022-04-20_15h26.39.905,SPAMnetsValid,2021.1.4,Win32,60.05645307,,,,,,,,,,,,,,,,,,,,,,,,,,,,,,,,,,,,,,,,,,,,,,,,,,,,,,,,,,,,,,,,,,,,,,,,,,,,,,,,,,,,,,,,,
,,2,5.4542,2,5.4542,0,92,92,43,1,11,refrigerator,tree,,90226,001,2022-04-20_15h26.39.905,SPAMnetsValid,2021.1.4,Win32,60.05645307,,,,,,,,,,,,,,,,,,,,,,,,,,,,,,,,,,,,,,,,,,,,,,,,,,,,,,,,,,,,,,,,,,,,,,,,,,,,,,,,,,,,,,,,,
,,2,1.9586,2,1.9586,0,93,93,47,1,73,broom,chocolate,,90226,001,2022-04-20_15h26.39.905,SPAMnetsValid,2021.1.4,Win32,60.05645307,,,,,,,,,,,,,,,,,,,,,,,,,,,,,,,,,,,,,,,,,,,,,,,,,,,,,,,,,,,,,,,,,,,,,,,,,,,,,,,,,,,,,,,,,
,,7,2.0978,7,2.0978,0,94,94,93,1,63,cake,cookie,,90226,001,2022-04-20_15h26.39.905,SPAMnetsValid,2021.1.4,Win32,60.05645307,,,,,,,,,,,,,,,,,,,,,,,,,,,,,,,,,,,,,,,,,,,,,,,,,,,,,,,,,,,,,,,,,,,,,,,,,,,,,,,,,,,,,,,,,
,,7,3.4178,7,3.4178,0,95,95,83,1,6,garden,onion,,90226,001,2022-04-20_15h26.39.905,SPAMnetsValid,2021.1.4,Win32,60.05645307,,,,,,,,,,,,,,,,,,,,,,,,,,,,,,,,,,,,,,,,,,,,,,,,,,,,,,,,,,,,,,,,,,,,,,,,,,,,,,,,,,,,,,,,,
,,2,6.4614,2,6.4614,0,96,96,90,1,95,broom,refrigerator,,90226,001,2022-04-20_15h26.39.905,SPAMnetsValid,2021.1.4,Win32,60.05645307,,,,,,,,,,,,,,,,,,,,,,,,,,,,,,,,,,,,,,,,,,,,,,,,,,,,,,,,,,,,,,,,,,,,,,,,,,,,,,,,,,,,,,,,,
,,,,,,,,,,,,,,,90226,001,2022-04-20_15h26.39.905,SPAMnetsValid,2021.1.4,Win32,60.05645307,0,0,0,0,1,,,,,,,,,,,,,,,,,,,,,,,,,,,,,,,,,,,,,,,,,,,,,,,,,,,,,,,,,,,,,,,,,,,,,,,,,,,,,,,,,,,,
,,,,,,,,,,,,,,,90226,001,2022-04-20_15h26.39.905,SPAMnetsValid,2021.1.4,Win32,60.05645307,,,,,,0,0,0,0,1,1,0,,,,,,,,,,,,,,,,,,,,,,,,,,,,,,,,,,,,,,,,,,,,,,,,,,,,,,,,,,,,,,,,,,,,,,,,,,,,,
,,,,6,2.1366,,,,,,183,cake,rose,,90226,001,2022-04-20_15h26.39.905,SPAMnetsValid,2021.1.4,Win32,60.05645307,,,,,,,,,,,,,6,2.1366,0,0,0,19,1,,,,,,,,,,,,,,,,,,,,,,,,,,,,,,,,,,,,,,,,,,,,,,,,,,,,,,,,,,,,,,,,,,,,,,
,,,,3,2.1195,,,,,,190,microwave,strawberry,,90226,001,2022-04-20_15h26.39.905,SPAMnetsValid,2021.1.4,Win32,60.05645307,,,,,,,,,,,,,3,2.1195,0,1,1,90,1,,,,,,,,,,,,,,,,,,,,,,,,,,,,,,,,,,,,,,,,,,,,,,,,,,,,,,,,,,,,,,,,,,,,,,
,,,,3,16.063,,,,,,119,strawberry,tree,,90226,001,2022-04-20_15h26.39.905,SPAMnetsValid,2021.1.4,Win32,60.05645307,,,,,,,,,,,,,3,16.063,0,2,2,18,1,,,,,,,,,,,,,,,,,,,,,,,,,,,,,,,,,,,,,,,,,,,,,,,,,,,,,,,,,,,,,,,,,,,,,,
,,,,2,1.7981,,,,,,169,onion,yogurt,,90226,001,2022-04-20_15h26.39.905,SPAMnetsValid,2021.1.4,Win32,60.05645307,,,,,,,,,,,,,2,1.7981,0,3,3,24,1,,,,,,,,,,,,,,,,,,,,,,,,,,,,,,,,,,,,,,,,,,,,,,,,,,,,,,,,,,,,,,,,,,,,,,
,,,,2,1.8578,,,,,,123,cookie,tree,,90226,001,2022-04-20_15h26.39.905,SPAMnetsValid,2021.1.4,Win32,60.05645307,,,,,,,,,,,,,2,1.8578,0,4,4,46,1,,,,,,,,,,,,,,,,,,,,,,,,,,,,,,,,,,,,,,,,,,,,,,,,,,,,,,,,,,,,,,,,,,,,,,
,,,,2,1.7143,,,,,,132,broom,tree,,90226,001,2022-04-20_15h26.39.905,SPAMnetsValid,2021.1.4,Win32,60.05645307,,,,,,,,,,,,,2,1.7143,0,5,5,78,1,,,,,,,,,,,,,,,,,,,,,,,,,,,,,,,,,,,,,,,,,,,,,,,,,,,,,,,,,,,,,,,,,,,,,,
,,,,7,1.829,,,,,,154,strawberry,yogurt,,90226,001,2022-04-20_15h26.39.905,SPAMnetsValid,2021.1.4,Win32,60.05645307,,,,,,,,,,,,,7,1.829,0,6,6,28,1,,,,,,,,,,,,,,,,,,,,,,,,,,,,,,,,,,,,,,,,,,,,,,,,,,,,,,,,,,,,,,,,,,,,,,
,,,,6,2.1126,,,,,,102,chocolate,refrigerator,,90226,001,2022-04-20_15h26.39.905,SPAMnetsValid,2021.1.4,Win32,60.05645307,,,,,,,,,,,,,6,2.1126,0,7,7,76,1,,,,,,,,,,,,,,,,,,,,,,,,,,,,,,,,,,,,,,,,,,,,,,,,,,,,,,,,,,,,,,,,,,,,,,
,,,,2,4.2063,,,,,,179,broom,oven,,90226,001,2022-04-20_15h26.39.905,SPAMnetsValid,2021.1.4,Win32,60.05645307,,,,,,,,,,,,,2,4.2063,0,8,8,45,1,,,,,,,,,,,,,,,,,,,,,,,,,,,,,,,,,,,,,,,,,,,,,,,,,,,,,,,,,,,,,,,,,,,,,,
,,,,7,1.6413,,,,,,160,cookie,kitchen,,90226,001,2022-04-20_15h26.39.905,SPAMnetsValid,2021.1.4,Win32,60.05645307,,,,,,,,,,,,,7,1.6413,0,9,9,65,1,,,,,,,,,,,,,,,,,,,,,,,,,,,,,,,,,,,,,,,,,,,,,,,,,,,,,,,,,,,,,,,,,,,,,,
,,,,4,2.7888,,,,,,107,rose,tomato,,90226,001,2022-04-20_15h26.39.905,SPAMnetsValid,2021.1.4,Win32,60.05645307,,,,,,,,,,,,,4,2.7888,0,10,10,26,1,,,,,,,,,,,,,,,,,,,,,,,,,,,,,,,,,,,,,,,,,,,,,,,,,,,,,,,,,,,,,,,,,,,,,,
,,,,7,2.1948,,,,,,113,refrigerator,strawberry,,90226,001,2022-04-20_15h26.39.905,SPAMnetsValid,2021.1.4,Win32,60.05645307,,,,,,,,,,,,,7,2.1948,0,11,11,56,1,,,,,,,,,,,,,,,,,,,,,,,,,,,,,,,,,,,,,,,,,,,,,,,,,,,,,,,,,,,,,,,,,,,,,,
,,,,2,1.9795,,,,,,126,kitchen,tree,,90226,001,2022-04-20_15h26.39.905,SPAMnetsValid,2021.1.4,Win32,60.05645307,,,,,,,,,,,,,2,1.9795,0,12,12,50,1,,,,,,,,,,,,,,,,,,,,,,,,,,,,,,,,,,,,,,,,,,,,,,,,,,,,,,,,,,,,,,,,,,,,,,
,,,,7,3.0899,,,,,,167,carrot,garden,,90226,001,2022-04-20_15h26.39.905,SPAMnetsValid,2021.1.4,Win32,60.05645307,,,,,,,,,,,,,7,3.0899,0,13,13,47,1,,,,,,,,,,,,,,,,,,,,,,,,,,,,,,,,,,,,,,,,,,,,,,,,,,,,,,,,,,,,,,,,,,,,,,
,,,,6,3.0725,,,,,,168,cactus,flower,,90226,001,2022-04-20_15h26.39.905,SPAMnetsValid,2021.1.4,Win32,60.05645307,,,,,,,,,,,,,6,3.0725,0,14,14,51,1,,,,,,,,,,,,,,,,,,,,,,,,,,,,,,,,,,,,,,,,,,,,,,,,,,,,,,,,,,,,,,,,,,,,,,
,,,,6,5.3398,,,,,,136,chocolate,microwave,,90226,001,2022-04-20_15h26.39.905,SPAMnetsValid,2021.1.4,Win32,60.05645307,,,,,,,,,,,,,6,5.3398,0,15,15,96,1,,,,,,,,,,,,,,,,,,,,,,,,,,,,,,,,,,,,,,,,,,,,,,,,,,,,,,,,,,,,,,,,,,,,,,
,,,,2,3.8721,,,,,,164,cookie,garden,,90226,001,2022-04-20_15h26.39.905,SPAMnetsValid,2021.1.4,Win32,60.05645307,,,,,,,,,,,,,2,3.8721,0,16,16,59,1,,,,,,,,,,,,,,,,,,,,,,,,,,,,,,,,,,,,,,,,,,,,,,,,,,,,,,,,,,,,,,,,,,,,,,
,,,,3,3.4126,,,,,,161,kitchen,pretzel,,90226,001,2022-04-20_15h26.39.905,SPAMnetsValid,2021.1.4,Win32,60.05645307,,,,,,,,,,,,,3,3.4126,0,17,17,36,1,,,,,,,,,,,,,,,,,,,,,,,,,,,,,,,,,,,,,,,,,,,,,,,,,,,,,,,,,,,,,,,,,,,,,,
,,,,8,3.1747,,,,,,122,flower,garden,,90226,001,2022-04-20_15h26.39.905,SPAMnetsValid,2021.1.4,Win32,60.05645307,,,,,,,,,,,,,8,3.1747,0,18,18,60,1,,,,,,,,,,,,,,,,,,,,,,,,,,,,,,,,,,,,,,,,,,,,,,,,,,,,,,,,,,,,,,,,,,,,,,
,,,,7,1.7775,,,,,,106,cake,strawberry,,90226,001,2022-04-20_15h26.39.905,SPAMnetsValid,2021.1.4,Win32,60.05645307,,,,,,,,,,,,,7,1.7775,0,19,19,0,1,,,,,,,,,,,,,,,,,,,,,,,,,,,,,,,,,,,,,,,,,,,,,,,,,,,,,,,,,,,,,,,,,,,,,,
,,,,4,2.4764,,,,,,176,cactus,tomato,,90226,001,2022-04-20_15h26.39.905,SPAMnetsValid,2021.1.4,Win32,60.05645307,,,,,,,,,,,,,4,2.4764,0,20,20,9,1,,,,,,,,,,,,,,,,,,,,,,,,,,,,,,,,,,,,,,,,,,,,,,,,,,,,,,,,,,,,,,,,,,,,,,
,,,,2,1.6208,,,,,,105,cactus,oven,,90226,001,2022-04-20_15h26.39.905,SPAMnetsValid,2021.1.4,Win32,60.05645307,,,,,,,,,,,,,2,1.6208,0,21,21,13,1,,,,,,,,,,,,,,,,,,,,,,,,,,,,,,,,,,,,,,,,,,,,,,,,,,,,,,,,,,,,,,,,,,,,,,
,,,,3,1.6223,,,,,,130,microwave,yogurt,,90226,001,2022-04-20_15h26.39.905,SPAMnetsValid,2021.1.4,Win32,60.05645307,,,,,,,,,,,,,3,1.6223,0,22,22,84,1,,,,,,,,,,,,,,,,,,,,,,,,,,,,,,,,,,,,,,,,,,,,,,,,,,,,,,,,,,,,,,,,,,,,,,
,,,,7,2.5054,,,,,,112,cake,carrot,,90226,001,2022-04-20_15h26.39.905,SPAMnetsValid,2021.1.4,Win32,60.05645307,,,,,,,,,,,,,7,2.5054,0,23,23,39,1,,,,,,,,,,,,,,,,,,,,,,,,,,,,,,,,,,,,,,,,,,,,,,,,,,,,,,,,,,,,,,,,,,,,,,
,,,,3,2.8227,,,,,,153,carrot,pretzel,,90226,001,2022-04-20_15h26.39.905,SPAMnetsValid,2021.1.4,Win32,60.05645307,,,,,,,,,,,,,3,2.8227,0,24,24,34,1,,,,,,,,,,,,,,,,,,,,,,,,,,,,,,,,,,,,,,,,,,,,,,,,,,,,,,,,,,,,,,,,,,,,,,
,,,,7,1.677,,,,,,188,flower,tree,,90226,001,2022-04-20_15h26.39.905,SPAMnetsValid,2021.1.4,Win32,60.05645307,,,,,,,,,,,,,7,1.677,0,25,25,7,1,,,,,,,,,,,,,,,,,,,,,,,,,,,,,,,,,,,,,,,,,,,,,,,,,,,,,,,,,,,,,,,,,,,,,,
,,,,3,1.7255,,,,,,115,refrigerator,tomato,,90226,001,2022-04-20_15h26.39.905,SPAMnetsValid,2021.1.4,Win32,60.05645307,,,,,,,,,,,,,3,1.7255,0,26,26,85,1,,,,,,,,,,,,,,,,,,,,,,,,,,,,,,,,,,,,,,,,,,,,,,,,,,,,,,,,,,,,,,,,,,,,,,
,,,,6,2.1274,,,,,,163,melon,refrigerator,,90226,001,2022-04-20_15h26.39.905,SPAMnetsValid,2021.1.4,Win32,60.05645307,,,,,,,,,,,,,6,2.1274,0,27,27,29,1,,,,,,,,,,,,,,,,,,,,,,,,,,,,,,,,,,,,,,,,,,,,,,,,,,,,,,,,,,,,,,,,,,,,,,
,,,,2,1.6275,,,,,,125,carrot,tree,,90226,001,2022-04-20_15h26.39.905,SPAMnetsValid,2021.1.4,Win32,60.05645307,,,,,,,,,,,,,2,1.6275,0,28,28,30,1,,,,,,,,,,,,,,,,,,,,,,,,,,,,,,,,,,,,,,,,,,,,,,,,,,,,,,,,,,,,,,,,,,,,,,
,,,,3,1.8384,,,,,,98,pretzel,strawberry,,90226,001,2022-04-20_15h26.39.905,SPAMnetsValid,2021.1.4,Win32,60.05645307,,,,,,,,,,,,,3,1.8384,0,29,29,82,1,,,,,,,,,,,,,,,,,,,,,,,,,,,,,,,,,,,,,,,,,,,,,,,,,,,,,,,,,,,,,,,,,,,,,,
,,,,3,1.5781,,,,,,186,kitchen,yogurt,,90226,001,2022-04-20_15h26.39.905,SPAMnetsValid,2021.1.4,Win32,60.05645307,,,,,,,,,,,,,3,1.5781,0,30,30,48,1,,,,,,,,,,,,,,,,,,,,,,,,,,,,,,,,,,,,,,,,,,,,,,,,,,,,,,,,,,,,,,,,,,,,,,
,,,,2,3.4261,,,,,,146,pretzel,tree,,90226,001,2022-04-20_15h26.39.905,SPAMnetsValid,2021.1.4,Win32,60.05645307,,,,,,,,,,,,,2,3.4261,0,31,31,80,1,,,,,,,,,,,,,,,,,,,,,,,,,,,,,,,,,,,,,,,,,,,,,,,,,,,,,,,,,,,,,,,,,,,,,,
,,,,3,7.4992,,,,,,101,cactus,kitchen,,90226,001,2022-04-20_15h26.39.905,SPAMnetsValid,2021.1.4,Win32,60.05645307,,,,,,,,,,,,,3,7.4992,0,32,32,54,1,,,,,,,,,,,,,,,,,,,,,,,,,,,,,,,,,,,,,,,,,,,,,,,,,,,,,,,,,,,,,,,,,,,,,,
,,,,3,1.6408,,,,,,159,cookie,flower,,90226,001,2022-04-20_15h26.39.905,SPAMnetsValid,2021.1.4,Win32,60.05645307,,,,,,,,,,,,,3,1.6408,0,33,33,21,1,,,,,,,,,,,,,,,,,,,,,,,,,,,,,,,,,,,,,,,,,,,,,,,,,,,,,,,,,,,,,,,,,,,,,,
,,,,2,1.7912,,,,,,137,microwave,tree,,90226,001,2022-04-20_15h26.39.905,SPAMnetsValid,2021.1.4,Win32,60.05645307,,,,,,,,,,,,,2,1.7912,0,34,34,63,1,,,,,,,,,,,,,,,,,,,,,,,,,,,,,,,,,,,,,,,,,,,,,,,,,,,,,,,,,,,,,,,,,,,,,,
,,,,6,2.1408,,,,,,170,cookie,microwave,,90226,001,2022-04-20_15h26.39.905,SPAMnetsValid,2021.1.4,Win32,60.05645307,,,,,,,,,,,,,6,2.1408,0,35,35,92,1,,,,,,,,,,,,,,,,,,,,,,,,,,,,,,,,,,,,,,,,,,,,,,,,,,,,,,,,,,,,,,,,,,,,,,
,,,,2,2.3755,,,,,,108,carrot,chocolate,,90226,001,2022-04-20_15h26.39.905,SPAMnetsValid,2021.1.4,Win32,60.05645307,,,,,,,,,,,,,2,2.3755,0,36,36,5,1,,,,,,,,,,,,,,,,,,,,,,,,,,,,,,,,,,,,,,,,,,,,,,,,,,,,,,,,,,,,,,,,,,,,,,
,,,,2,1.7591,,,,,,128,melon,microwave,,90226,001,2022-04-20_15h26.39.905,SPAMnetsValid,2021.1.4,Win32,60.05645307,,,,,,,,,,,,,2,1.7591,0,37,37,74,1,,,,,,,,,,,,,,,,,,,,,,,,,,,,,,,,,,,,,,,,,,,,,,,,,,,,,,,,,,,,,,,,,,,,,,
,,,,6,1.7633,,,,,,97,chocolate,kitchen,,90226,001,2022-04-20_15h26.39.905,SPAMnetsValid,2021.1.4,Win32,60.05645307,,,,,,,,,,,,,6,1.7633,0,38,38,8,1,,,,,,,,,,,,,,,,,,,,,,,,,,,,,,,,,,,,,,,,,,,,,,,,,,,,,,,,,,,,,,,,,,,,,,
,,,,2,2.5082,,,,,,181,carrot,kitchen,,90226,001,2022-04-20_15h26.39.905,SPAMnetsValid,2021.1.4,Win32,60.05645307,,,,,,,,,,,,,2,2.5082,0,39,39,72,1,,,,,,,,,,,,,,,,,,,,,,,,,,,,,,,,,,,,,,,,,,,,,,,,,,,,,,,,,,,,,,,,,,,,,,
,,,,7,1.6837,,,,,,116,cake,chocolate,,90226,001,2022-04-20_15h26.39.905,SPAMnetsValid,2021.1.4,Win32,60.05645307,,,,,,,,,,,,,7,1.6837,0,40,40,44,1,,,,,,,,,,,,,,,,,,,,,,,,,,,,,,,,,,,,,,,,,,,,,,,,,,,,,,,,,,,,,,,,,,,,,,
,,,,8,2.0248,,,,,,124,oven,refrigerator,,90226,001,2022-04-20_15h26.39.905,SPAMnetsValid,2021.1.4,Win32,60.05645307,,,,,,,,,,,,,8,2.0248,0,41,41,69,1,,,,,,,,,,,,,,,,,,,,,,,,,,,,,,,,,,,,,,,,,,,,,,,,,,,,,,,,,,,,,,,,,,,,,,
,,,,3,6.596,,,,,,109,broom,strawberry,,90226,001,2022-04-20_15h26.39.905,SPAMnetsValid,2021.1.4,Win32,60.05645307,,,,,,,,,,,,,3,6.596,0,42,42,4,1,,,,,,,,,,,,,,,,,,,,,,,,,,,,,,,,,,,,,,,,,,,,,,,,,,,,,,,,,,,,,,,,,,,,,,
,,,,7,1.8761,,,,,,110,chocolate,cookie,,90226,001,2022-04-20_15h26.39.905,SPAMnetsValid,2021.1.4,Win32,60.05645307,,,,,,,,,,,,,7,1.8761,0,43,43,52,1,,,,,,,,,,,,,,,,,,,,,,,,,,,,,,,,,,,,,,,,,,,,,,,,,,,,,,,,,,,,,,,,,,,,,,
,,,,4,3.35,,,,,,118,chocolate,oven,,90226,001,2022-04-20_15h26.39.905,SPAMnetsValid,2021.1.4,Win32,60.05645307,,,,,,,,,,,,,4,3.35,0,44,44,10,1,,,,,,,,,,,,,,,,,,,,,,,,,,,,,,,,,,,,,,,,,,,,,,,,,,,,,,,,,,,,,,,,,,,,,,
,,,,2,9.6843,,,,,,156,melon,rose,,90226,001,2022-04-20_15h26.39.905,SPAMnetsValid,2021.1.4,Win32,60.05645307,,,,,,,,,,,,,2,9.6843,0,45,45,31,1,,,,,,,,,,,,,,,,,,,,,,,,,,,,,,,,,,,,,,,,,,,,,,,,,,,,,,,,,,,,,,,,,,,,,,
,,,,3,1.559,,,,,,140,cookie,refrigerator,,90226,001,2022-04-20_15h26.39.905,SPAMnetsValid,2021.1.4,Win32,60.05645307,,,,,,,,,,,,,3,1.559,0,46,46,89,1,,,,,,,,,,,,,,,,,,,,,,,,,,,,,,,,,,,,,,,,,,,,,,,,,,,,,,,,,,,,,,,,,,,,,,
,,,,7,1.7603,,,,,,117,melon,strawberry,,90226,001,2022-04-20_15h26.39.905,SPAMnetsValid,2021.1.4,Win32,60.05645307,,,,,,,,,,,,,7,1.7603,0,47,47,11,1,,,,,,,,,,,,,,,,,,,,,,,,,,,,,,,,,,,,,,,,,,,,,,,,,,,,,,,,,,,,,,,,,,,,,,
,,,,3,10.2537,,,,,,103,pretzel,tomato,,90226,001,2022-04-20_15h26.39.905,SPAMnetsValid,2021.1.4,Win32,60.05645307,,,,,,,,,,,,,3,10.2537,0,48,48,79,1,,,,,,,,,,,,,,,,,,,,,,,,,,,,,,,,,,,,,,,,,,,,,,,,,,,,,,,,,,,,,,,,,,,,,,
,,,,3,1.8809,,,,,,111,carrot,microwave,,90226,001,2022-04-20_15h26.39.905,SPAMnetsValid,2021.1.4,Win32,60.05645307,,,,,,,,,,,,,3,1.8809,0,49,49,16,1,,,,,,,,,,,,,,,,,,,,,,,,,,,,,,,,,,,,,,,,,,,,,,,,,,,,,,,,,,,,,,,,,,,,,,
,,,,3,1.6425,,,,,,145,cactus,yogurt,,90226,001,2022-04-20_15h26.39.905,SPAMnetsValid,2021.1.4,Win32,60.05645307,,,,,,,,,,,,,3,1.6425,0,50,50,15,1,,,,,,,,,,,,,,,,,,,,,,,,,,,,,,,,,,,,,,,,,,,,,,,,,,,,,,,,,,,,,,,,,,,,,,
,,,,3,2.0957,,,,,,165,onion,rose,,90226,001,2022-04-20_15h26.39.905,SPAMnetsValid,2021.1.4,Win32,60.05645307,,,,,,,,,,,,,3,2.0957,0,51,51,40,1,,,,,,,,,,,,,,,,,,,,,,,,,,,,,,,,,,,,,,,,,,,,,,,,,,,,,,,,,,,,,,,,,,,,,,
,,,,9,2.949,,,,,,193,melon,melon,CHECK,90226,001,2022-04-20_15h26.39.905,SPAMnetsValid,2021.1.4,Win32,60.05645307,,,,,,,,,,,,,9,2.949,0,52,52,86,1,,,,,,,,,,,,,,,,,,,,,,,,,,,,,,,,,,,,,,,,,,,,,,,,,,,,,,,,,,,,,,,,,,,,,,
,,,,4,2.7946,,,,,,148,flower,melon,,90226,001,2022-04-20_15h26.39.905,SPAMnetsValid,2021.1.4,Win32,60.05645307,,,,,,,,,,,,,4,2.7946,0,53,53,23,1,,,,,,,,,,,,,,,,,,,,,,,,,,,,,,,,,,,,,,,,,,,,,,,,,,,,,,,,,,,,,,,,,,,,,,
,,,,3,1.5763,,,,,,189,onion,tree,,90226,001,2022-04-20_15h26.39.905,SPAMnetsValid,2021.1.4,Win32,60.05645307,,,,,,,,,,,,,3,1.5763,0,54,54,62,1,,,,,,,,,,,,,,,,,,,,,,,,,,,,,,,,,,,,,,,,,,,,,,,,,,,,,,,,,,,,,,,,,,,,,,
,,,,2,2.3415,,,,,,178,cactus,carrot,,90226,001,2022-04-20_15h26.39.905,SPAMnetsValid,2021.1.4,Win32,60.05645307,,,,,,,,,,,,,2,2.3415,0,55,55,75,1,,,,,,,,,,,,,,,,,,,,,,,,,,,,,,,,,,,,,,,,,,,,,,,,,,,,,,,,,,,,,,,,,,,,,,
,,,,3,3.1992,,,,,,174,cake,pretzel,,90226,001,2022-04-20_15h26.39.905,SPAMnetsValid,2021.1.4,Win32,60.05645307,,,,,,,,,,,,,3,3.1992,0,56,56,2,1,,,,,,,,,,,,,,,,,,,,,,,,,,,,,,,,,,,,,,,,,,,,,,,,,,,,,,,,,,,,,,,,,,,,,,
,,,,3,1.9966,,,,,,149,broom,tomato,,90226,001,2022-04-20_15h26.39.905,SPAMnetsValid,2021.1.4,Win32,60.05645307,,,,,,,,,,,,,3,1.9966,0,57,57,20,1,,,,,,,,,,,,,,,,,,,,,,,,,,,,,,,,,,,,,,,,,,,,,,,,,,,,,,,,,,,,,,,,,,,,,,
,,,,3,3.8778,,,,,,152,cactus,strawberry,,90226,001,2022-04-20_15h26.39.905,SPAMnetsValid,2021.1.4,Win32,60.05645307,,,,,,,,,,,,,3,3.8778,0,58,58,49,1,,,,,,,,,,,,,,,,,,,,,,,,,,,,,,,,,,,,,,,,,,,,,,,,,,,,,,,,,,,,,,,,,,,,,,
,,,,7,1.6794,,,,,,120,microwave,oven,,90226,001,2022-04-20_15h26.39.905,SPAMnetsValid,2021.1.4,Win32,60.05645307,,,,,,,,,,,,,7,1.6794,0,59,59,14,1,,,,,,,,,,,,,,,,,,,,,,,,,,,,,,,,,,,,,,,,,,,,,,,,,,,,,,,,,,,,,,,,,,,,,,
,,,,3,2.3274,,,,,,151,microwave,onion,,90226,001,2022-04-20_15h26.39.905,SPAMnetsValid,2021.1.4,Win32,60.05645307,,,,,,,,,,,,,3,2.3274,0,60,60,6,1,,,,,,,,,,,,,,,,,,,,,,,,,,,,,,,,,,,,,,,,,,,,,,,,,,,,,,,,,,,,,,,,,,,,,,
,,,,2,1.5661,,,,,,162,microwave,tomato,,90226,001,2022-04-20_15h26.39.905,SPAMnetsValid,2021.1.4,Win32,60.05645307,,,,,,,,,,,,,2,1.5661,0,61,61,12,1,,,,,,,,,,,,,,,,,,,,,,,,,,,,,,,,,,,,,,,,,,,,,,,,,,,,,,,,,,,,,,,,,,,,,,
,,,,2,1.6424,,,,,,96,oven,strawberry,,90226,001,2022-04-20_15h26.39.905,SPAMnetsValid,2021.1.4,Win32,60.05645307,,,,,,,,,,,,,2,1.6424,0,62,62,67,1,,,,,,,,,,,,,,,,,,,,,,,,,,,,,,,,,,,,,,,,,,,,,,,,,,,,,,,,,,,,,,,,,,,,,,
,,,,3,1.6125,,,,,,144,cake,garden,,90226,001,2022-04-20_15h26.39.905,SPAMnetsValid,2021.1.4,Win32,60.05645307,,,,,,,,,,,,,3,1.6125,0,63,63,58,1,,,,,,,,,,,,,,,,,,,,,,,,,,,,,,,,,,,,,,,,,,,,,,,,,,,,,,,,,,,,,,,,,,,,,,
,,,,2,1.7094,,,,,,187,cactus,microwave,,90226,001,2022-04-20_15h26.39.905,SPAMnetsValid,2021.1.4,Win32,60.05645307,,,,,,,,,,,,,2,1.7094,0,64,64,71,1,,,,,,,,,,,,,,,,,,,,,,,,,,,,,,,,,,,,,,,,,,,,,,,,,,,,,,,,,,,,,,,,,,,,,,
,,,,2,2.4995,,,,,,185,cactus,rose,,90226,001,2022-04-20_15h26.39.905,SPAMnetsValid,2021.1.4,Win32,60.05645307,,,,,,,,,,,,,2,2.4995,0,65,65,43,1,,,,,,,,,,,,,,,,,,,,,,,,,,,,,,,,,,,,,,,,,,,,,,,,,,,,,,,,,,,,,,,,,,,,,,
,,,,3,2.2096,,,,,,133,cake,flower,,90226,001,2022-04-20_15h26.39.905,SPAMnetsValid,2021.1.4,Win32,60.05645307,,,,,,,,,,,,,3,2.2096,0,66,66,94,1,,,,,,,,,,,,,,,,,,,,,,,,,,,,,,,,,,,,,,,,,,,,,,,,,,,,,,,,,,,,,,,,,,,,,,
,,,,9,1.4645,,,,,,194,cactus,cactus,CHECK,90226,001,2022-04-20_15h26.39.905,SPAMnetsValid,2021.1.4,Win32,60.05645307,,,,,,,,,,,,,9,1.4645,0,67,67,25,1,,,,,,,,,,,,,,,,,,,,,,,,,,,,,,,,,,,,,,,,,,,,,,,,,,,,,,,,,,,,,,,,,,,,,,
,,,,3,3.2927,,,,,,171,cake,tomato,,90226,001,2022-04-20_15h26.39.905,SPAMnetsValid,2021.1.4,Win32,60.05645307,,,,,,,,,,,,,3,3.2927,0,68,68,88,1,,,,,,,,,,,,,,,,,,,,,,,,,,,,,,,,,,,,,,,,,,,,,,,,,,,,,,,,,,,,,,,,,,,,,,
,,,,2,2.0595,,,,,,127,cactus,chocolate,,90226,001,2022-04-20_15h26.39.905,SPAMnetsValid,2021.1.4,Win32,60.05645307,,,,,,,,,,,,,2,2.0595,0,69,69,57,1,,,,,,,,,,,,,,,,,,,,,,,,,,,,,,,,,,,,,,,,,,,,,,,,,,,,,,,,,,,,,,,,,,,,,,
,,,,2,2.2775,,,,,,180,tree,yogurt,,90226,001,2022-04-20_15h26.39.905,SPAMnetsValid,2021.1.4,Win32,60.05645307,,,,,,,,,,,,,2,2.2775,0,70,70,68,1,,,,,,,,,,,,,,,,,,,,,,,,,,,,,,,,,,,,,,,,,,,,,,,,,,,,,,,,,,,,,,,,,,,,,,
,,,,7,1.6789,,,,,,142,garden,tree,,90226,001,2022-04-20_15h26.39.905,SPAMnetsValid,2021.1.4,Win32,60.05645307,,,,,,,,,,,,,7,1.6789,0,71,71,22,1,,,,,,,,,,,,,,,,,,,,,,,,,,,,,,,,,,,,,,,,,,,,,,,,,,,,,,,,,,,,,,,,,,,,,,
,,,,8,2.7421,,,,,,138,flower,rose,,90226,001,2022-04-20_15h26.39.905,SPAMnetsValid,2021.1.4,Win32,60.05645307,,,,,,,,,,,,,8,2.7421,0,72,72,61,1,,,,,,,,,,,,,,,,,,,,,,,,,,,,,,,,,,,,,,,,,,,,,,,,,,,,,,,,,,,,,,,,,,,,,,
,,,,3,1.9272,,,,,,134,carrot,flower,,90226,001,2022-04-20_15h26.39.905,SPAMnetsValid,2021.1.4,Win32,60.05645307,,,,,,,,,,,,,3,1.9272,0,73,73,93,1,,,,,,,,,,,,,,,,,,,,,,,,,,,,,,,,,,,,,,,,,,,,,,,,,,,,,,,,,,,,,,,,,,,,,,
,,,,6,2.2609,,,,,,184,oven,pretzel,,90226,001,2022-04-20_15h26.39.905,SPAMnetsValid,2021.1.4,Win32,60.05645307,,,,,,,,,,,,,6,2.2609,0,74,74,42,1,,,,,,,,,,,,,,,,,,,,,,,,,,,,,,,,,,,,,,,,,,,,,,,,,,,,,,,,,,,,,,,,,,,,,,
,,,,6,2.0334,,,,,,147,cake,refrigerator,,90226,001,2022-04-20_15h26.39.905,SPAMnetsValid,2021.1.4,Win32,60.05645307,,,,,,,,,,,,,6,2.0334,0,75,75,35,1,,,,,,,,,,,,,,,,,,,,,,,,,,,,,,,,,,,,,,,,,,,,,,,,,,,,,,,,,,,,,,,,,,,,,,
,,,,3,1.4579,,,,,,121,broom,microwave,,90226,001,2022-04-20_15h26.39.905,SPAMnetsValid,2021.1.4,Win32,60.05645307,,,,,,,,,,,,,3,1.4579,0,76,76,95,1,,,,,,,,,,,,,,,,,,,,,,,,,,,,,,,,,,,,,,,,,,,,,,,,,,,,,,,,,,,,,,,,,,,,,,
,,,,7,2.0256,,,,,,158,cookie,oven,,90226,001,2022-04-20_15h26.39.905,SPAMnetsValid,2021.1.4,Win32,60.05645307,,,,,,,,,,,,,7,2.0256,0,77,77,27,1,,,,,,,,,,,,,,,,,,,,,,,,,,,,,,,,,,,,,,,,,,,,,,,,,,,,,,,,,,,,,,,,,,,,,,
,,,,2,2.1421,,,,,,104,garden,microwave,,90226,001,2022-04-20_15h26.39.905,SPAMnetsValid,2021.1.4,Win32,60.05645307,,,,,,,,,,,,,2,2.1421,0,78,78,81,1,,,,,,,,,,,,,,,,,,,,,,,,,,,,,,,,,,,,,,,,,,,,,,,,,,,,,,,,,,,,,,,,,,,,,,
,,,,6,1.893,,,,,,114,cookie,strawberry,,90226,001,2022-04-20_15h26.39.905,SPAMnetsValid,2021.1.4,Win32,60.05645307,,,,,,,,,,,,,6,1.893,0,79,79,87,1,,,,,,,,,,,,,,,,,,,,,,,,,,,,,,,,,,,,,,,,,,,,,,,,,,,,,,,,,,,,,,,,,,,,,,
,,,,2,1.4752,,,,,,175,melon,onion,,90226,001,2022-04-20_15h26.39.905,SPAMnetsValid,2021.1.4,Win32,60.05645307,,,,,,,,,,,,,2,1.4752,0,80,80,41,1,,,,,,,,,,,,,,,,,,,,,,,,,,,,,,,,,,,,,,,,,,,,,,,,,,,,,,,,,,,,,,,,,,,,,,
,,,,7,2.1946,,,,,,150,microwave,refrigerator,,90226,001,2022-04-20_15h26.39.905,SPAMnetsValid,2021.1.4,Win32,60.05645307,,,,,,,,,,,,,7,2.1946,0,81,81,66,1,,,,,,,,,,,,,,,,,,,,,,,,,,,,,,,,,,,,,,,,,,,,,,,,,,,,,,,,,,,,,,,,,,,,,,
,,,,3,2.7793,,,,,,139,carrot,strawberry,,90226,001,2022-04-20_15h26.39.905,SPAMnetsValid,2021.1.4,Win32,60.05645307,,,,,,,,,,,,,3,2.7793,0,82,82,37,1,,,,,,,,,,,,,,,,,,,,,,,,,,,,,,,,,,,,,,,,,,,,,,,,,,,,,,,,,,,,,,,,,,,,,,
,,,,7,1.9814,,,,,,182,flower,refrigerator,,90226,001,2022-04-20_15h26.39.905,SPAMnetsValid,2021.1.4,Win32,60.05645307,,,,,,,,,,,,,7,1.9814,0,83,83,32,1,,,,,,,,,,,,,,,,,,,,,,,,,,,,,,,,,,,,,,,,,,,,,,,,,,,,,,,,,,,,,,,,,,,,,,
,,,,2,1.6089,,,,,,143,pretzel,rose,,90226,001,2022-04-20_15h26.39.905,SPAMnetsValid,2021.1.4,Win32,60.05645307,,,,,,,,,,,,,2,1.6089,0,84,84,55,1,,,,,,,,,,,,,,,,,,,,,,,,,,,,,,,,,,,,,,,,,,,,,,,,,,,,,,,,,,,,,,,,,,,,,,
,,,,7,1.9936,,,,,,177,chocolate,strawberry,,90226,001,2022-04-20_15h26.39.905,SPAMnetsValid,2021.1.4,Win32,60.05645307,,,,,,,,,,,,,7,1.9936,0,85,85,53,1,,,,,,,,,,,,,,,,,,,,,,,,,,,,,,,,,,,,,,,,,,,,,,,,,,,,,,,,,,,,,,,,,,,,,,
,,,,3,1.7312,,,,,,135,carrot,oven,,90226,001,2022-04-20_15h26.39.905,SPAMnetsValid,2021.1.4,Win32,60.05645307,,,,,,,,,,,,,3,1.7312,0,86,86,73,1,,,,,,,,,,,,,,,,,,,,,,,,,,,,,,,,,,,,,,,,,,,,,,,,,,,,,,,,,,,,,,,,,,,,,,
,,,,3,1.6838,,,,,,141,melon,tomato,,90226,001,2022-04-20_15h26.39.905,SPAMnetsValid,2021.1.4,Win32,60.05645307,,,,,,,,,,,,,3,1.6838,0,87,87,70,1,,,,,,,,,,,,,,,,,,,,,,,,,,,,,,,,,,,,,,,,,,,,,,,,,,,,,,,,,,,,,,,,,,,,,,
,,,,3,1.6801,,,,,,129,cactus,refrigerator,,90226,001,2022-04-20_15h26.39.905,SPAMnetsValid,2021.1.4,Win32,60.05645307,,,,,,,,,,,,,3,1.6801,0,88,88,3,1,,,,,,,,,,,,,,,,,,,,,,,,,,,,,,,,,,,,,,,,,,,,,,,,,,,,,,,,,,,,,,,,,,,,,,
,,,,6,5.1667,,,,,,131,cactus,garden,,90226,001,2022-04-20_15h26.39.905,SPAMnetsValid,2021.1.4,Win32,60.05645307,,,,,,,,,,,,,6,5.1667,0,89,89,33,1,,,,,,,,,,,,,,,,,,,,,,,,,,,,,,,,,,,,,,,,,,,,,,,,,,,,,,,,,,,,,,,,,,,,,,
,,,,3,2.5473,,,,,,172,kitchen,melon,,90226,001,2022-04-20_15h26.39.905,SPAMnetsValid,2021.1.4,Win32,60.05645307,,,,,,,,,,,,,3,2.5473,0,90,90,77,1,,,,,,,,,,,,,,,,,,,,,,,,,,,,,,,,,,,,,,,,,,,,,,,,,,,,,,,,,,,,,,,,,,,,,,
,,,,6,1.4257,,,,,,173,kitchen,tomato,,90226,001,2022-04-20_15h26.39.905,SPAMnetsValid,2021.1.4,Win32,60.05645307,,,,,,,,,,,,,6,1.4257,0,91,91,1,1,,,,,,,,,,,,,,,,,,,,,,,,,,,,,,,,,,,,,,,,,,,,,,,,,,,,,,,,,,,,,,,,,,,,,,
,,,,6,3.5516,,,,,,99,garden,melon,,90226,001,2022-04-20_15h26.39.905,SPAMnetsValid,2021.1.4,Win32,60.05645307,,,,,,,,,,,,,6,3.5516,0,92,92,17,1,,,,,,,,,,,,,,,,,,,,,,,,,,,,,,,,,,,,,,,,,,,,,,,,,,,,,,,,,,,,,,,,,,,,,,
,,,,3,1.5313,,,,,,166,cake,yogurt,,90226,001,2022-04-20_15h26.39.905,SPAMnetsValid,2021.1.4,Win32,60.05645307,,,,,,,,,,,,,3,1.5313,0,93,93,91,1,,,,,,,,,,,,,,,,,,,,,,,,,,,,,,,,,,,,,,,,,,,,,,,,,,,,,,,,,,,,,,,,,,,,,,
,,,,7,1.7599,,,,,,100,garden,tomato,,90226,001,2022-04-20_15h26.39.905,SPAMnetsValid,2021.1.4,Win32,60.05645307,,,,,,,,,,,,,7,1.7599,0,94,94,83,1,,,,,,,,,,,,,,,,,,,,,,,,,,,,,,,,,,,,,,,,,,,,,,,,,,,,,,,,,,,,,,,,,,,,,,
,,,,3,3.5439,,,,,,155,carrot,cookie,,90226,001,2022-04-20_15h26.39.905,SPAMnetsValid,2021.1.4,Win32,60.05645307,,,,,,,,,,,,,3,3.5439,0,95,95,38,1,,,,,,,,,,,,,,,,,,,,,,,,,,,,,,,,,,,,,,,,,,,,,,,,,,,,,,,,,,,,,,,,,,,,,,
,,,,6,1.6998,,,,,,157,refrigerator,rose,,90226,001,2022-04-20_15h26.39.905,SPAMnetsValid,2021.1.4,Win32,60.05645307,,,,,,,,,,,,,6,1.6998,0,96,96,64,1,,,,,,,,,,,,,,,,,,,,,,,,,,,,,,,,,,,,,,,,,,,,,,,,,,,,,,,,,,,,,,,,,,,,,,
,,,,,,,,,,,,,,,90226,001,2022-04-20_15h26.39.905,SPAMnetsValid,2021.1.4,Win32,60.05645307,,,,,,,,,,,,,,,,,,,,0,0,0,0,1,,,,,,,,,,,,,,,,,,,,,,,,,,,,,,,,,,,,,,,,,,,,,,,,,,,,,,,,,,,,,,,,,
,,,,,,,,,,,,,,,90226,001,2022-04-20_15h26.39.905,SPAMnetsValid,2021.1.4,Win32,60.05645307,,,,,,0,1,1,1,1,0,1,,,,,,,,,,,,,,,,,,,,,,,,,,,,,,,,,,,,,,,,,,,,,,,,,,,,,,,,,,,,,,,,,,,,,,,,,,,,,
,,,,,,,,,,,,,,,90226,001,2022-04-20_15h26.39.905,SPAMnetsValid,2021.1.4,Win32,60.05645307,,,,,,,,,,,,,,,,,,,,,,,,,2,10.3471,0,0,0,0,1,rancor,forbearance,ridicule,malice,bravery,3,,,,,,,,,,,,,,,,,,,,,,,,,,,,,,,,,,,,,,,,,,,,,,,,,,,,
,,,,,,,,,,,,,,,90226,001,2022-04-20_15h26.39.905,SPAMnetsValid,2021.1.4,Win32,60.05645307,,,,,,,,,,,,,,,,,,,,,,,,,4,3.3126,0,1,1,1,1,raucous,empty,quiet,smooth,harsh,4,,,,,,,,,,,,,,,,,,,,,,,,,,,,,,,,,,,,,,,,,,,,,,,,,,,,
,,,,,,,,,,,,,,,90226,001,2022-04-20_15h26.39.905,SPAMnetsValid,2021.1.4,Win32,60.05645307,,,,,,,,,,,,,,,,,,,,,,,,,4,3.1195,0,2,2,2,1,gargoyle,oil,medicine,carved waterspout,ugly building,3,,,,,,,,,,,,,,,,,,,,,,,,,,,,,,,,,,,,,,,,,,,,,,,,,,,,
,,,,,,,,,,,,,,,90226,001,2022-04-20_15h26.39.905,SPAMnetsValid,2021.1.4,Win32,60.05645307,,,,,,,,,,,,,,,,,,,,,,,,,3,6.2307,0,3,3,3,1,recrudesce,purify,renew activity,lack refinement,crush,2,,,,,,,,,,,,,,,,,,,,,,,,,,,,,,,,,,,,,,,,,,,,,,,,,,,,
,,,,,,,,,,,,,,,90226,001,2022-04-20_15h26.39.905,SPAMnetsValid,2021.1.4,Win32,60.05645307,,,,,,,,,,,,,,,,,,,,,,,,,4,4.3807,0,4,4,4,1,specious,"plausible, but not genuine",noteworthy,class or variety,roomy,1,,,,,,,,,,,,,,,,,,,,,,,,,,,,,,,,,,,,,,,,,,,,,,,,,,,,
,,,,,,,,,,,,,,,90226,001,2022-04-20_15h26.39.905,SPAMnetsValid,2021.1.4,Win32,60.05645307,,,,,,,,,,,,,,,,,,,,,,,,,3,6.4153,0,5,5,5,1,bauble,bubble,showy plaything,idle talk,confusion,2,,,,,,,,,,,,,,,,,,,,,,,,,,,,,,,,,,,,,,,,,,,,,,,,,,,,
,,,,,,,,,,,,,,,90226,001,2022-04-20_15h26.39.905,SPAMnetsValid,2021.1.4,Win32,60.05645307,,,,,,,,,,,,,,,,,,,,,,,,,2,2.8015,0,6,6,6,1,prolific,scarce,producing abundantly,reckless,speaking profanely,2,,,,,,,,,,,,,,,,,,,,,,,,,,,,,,,,,,,,,,,,,,,,,,,,,,,,
,,,,,,,,,,,,,,,90226,001,2022-04-20_15h26.39.905,SPAMnetsValid,2021.1.4,Win32,60.05645307,,,,,,,,,,,,,,,,,,,,,,,,,2,1.7098,0,7,7,7,1,opulent,party,wealthy,happy frame of mind,semiprecious stone,2,,,,,,,,,,,,,,,,,,,,,,,,,,,,,,,,,,,,,,,,,,,,,,,,,,,,
,,,,,,,,,,,,,,,90226,001,2022-04-20_15h26.39.905,SPAMnetsValid,2021.1.4,Win32,60.05645307,,,,,,,,,,,,,,,,,,,,,,,,,4,5.7036,0,8,8,8,1,coercion,conspiracy,strategy,restraint,attraction,3,,,,,,,,,,,,,,,,,,,,,,,,,,,,,,,,,,,,,,,,,,,,,,,,,,,,
,,,,,,,,,,,,,,,90226,001,2022-04-20_15h26.39.905,SPAMnetsValid,2021.1.4,Win32,60.05645307,,,,,,,,,,,,,,,,,,,,,,,,,4,2.6564,0,9,9,9,1,hiatus,animal,calamity,dread,gap,4,,,,,,,,,,,,,,,,,,,,,,,,,,,,,,,,,,,,,,,,,,,,,,,,,,,,
,,,,,,,,,,,,,,,90226,001,2022-04-20_15h26.39.905,SPAMnetsValid,2021.1.4,Win32,60.05645307,,,,,,,,,,,,,,,,,,,,,,,,,2,4.4633,0,10,10,10,1,germane,microbe,contagious,relevant,different,3,,,,,,,,,,,,,,,,,,,,,,,,,,,,,,,,,,,,,,,,,,,,,,,,,,,,
,,,,,,,,,,,,,,,90226,001,2022-04-20_15h26.39.905,SPAMnetsValid,2021.1.4,Win32,60.05645307,,,,,,,,,,,,,,,,,,,,,,,,,1,9.5236,0,11,11,11,1,perfunctory,fundamental,formal,superficial,careful,3,,,,,,,,,,,,,,,,,,,,,,,,,,,,,,,,,,,,,,,,,,,,,,,,,,,,
,,,,,,,,,,,,,,,90226,001,2022-04-20_15h26.39.905,SPAMnetsValid,2021.1.4,Win32,60.05645307,,,,,,,,,,,,,,,,,,,,,,,,,4,2.9135,0,12,12,12,1,diverge,reveal,chant,distract the attention of,differ or turn off from,4,,,,,,,,,,,,,,,,,,,,,,,,,,,,,,,,,,,,,,,,,,,,,,,,,,,,
,,,,,,,,,,,,,,,90226,001,2022-04-20_15h26.39.905,SPAMnetsValid,2021.1.4,Win32,60.05645307,,,,,,,,,,,,,,,,,,,,,,,,,4,2.4501,0,13,13,13,1,evoke,take away,anger,connect,bring out,4,,,,,,,,,,,,,,,,,,,,,,,,,,,,,,,,,,,,,,,,,,,,,,,,,,,,
,,,,,,,,,,,,,,,90226,001,2022-04-20_15h26.39.905,SPAMnetsValid,2021.1.4,Win32,60.05645307,,,,,,,,,,,,,,,,,,,,,,,,,1,5.5611,0,14,14,14,1,pertinent,relevant,lying next to,necessary,bold,1,,,,,,,,,,,,,,,,,,,,,,,,,,,,,,,,,,,,,,,,,,,,,,,,,,,,
,,,,,,,,,,,,,,,90226,001,2022-04-20_15h26.39.905,SPAMnetsValid,2021.1.4,Win32,60.05645307,,,,,,,,,,,,,,,,,,,,,,,,,2,2.9181,0,15,15,15,1,holocaust,entirety,destruction,saintly,price,2,,,,,,,,,,,,,,,,,,,,,,,,,,,,,,,,,,,,,,,,,,,,,,,,,,,,
,,,,,,,,,,,,,,,90226,001,2022-04-20_15h26.39.905,SPAMnetsValid,2021.1.4,Win32,60.05645307,,,,,,,,,,,,,,,,,,,,,,,,,1,5.745,0,16,16,16,1,piquant,mellow,fish,pungent,cloth,3,,,,,,,,,,,,,,,,,,,,,,,,,,,,,,,,,,,,,,,,,,,,,,,,,,,,
,,,,,,,,,,,,,,,90226,001,2022-04-20_15h26.39.905,SPAMnetsValid,2021.1.4,Win32,60.05645307,,,,,,,,,,,,,,,,,,,,,,,,,1,3.8945,0,17,17,17,1,firmament,foundation,heavens,strong,glue,2,,,,,,,,,,,,,,,,,,,,,,,,,,,,,,,,,,,,,,,,,,,,,,,,,,,,
,,,,,,,,,,,,,,,90226,001,2022-04-20_15h26.39.905,SPAMnetsValid,2021.1.4,Win32,60.05645307,,,,,,,,,,,,,,,,,,,,,,,,,,,,,,,,,,,,,,4,5.8202,0,0,0,0,1,marketable,partisan,jocular,marriageable,salable,essential,4,,,,,,,,,,,,,,,,,,,,,,,,,,,,,,,,,,,,,,
,,,,,,,,,,,,,,,90226,001,2022-04-20_15h26.39.905,SPAMnetsValid,2021.1.4,Win32,60.05645307,,,,,,,,,,,,,,,,,,,,,,,,,,,,,,,,,,,,,,4,4.894,0,1,1,1,1,cottontail,squirrel,poplar,boa,marshy plant,rabbit,5,,,,,,,,,,,,,,,,,,,,,,,,,,,,,,,,,,,,,,
,,,,,,,,,,,,,,,90226,001,2022-04-20_15h26.39.905,SPAMnetsValid,2021.1.4,Win32,60.05645307,,,,,,,,,,,,,,,,,,,,,,,,,,,,,,,,,,,,,,4,5.3469,0,2,2,2,1,boggy,afraid,false,marshy,dense,black,3,,,,,,,,,,,,,,,,,,,,,,,,,,,,,,,,,,,,,,
,,,,,,,,,,,,,,,90226,001,2022-04-20_15h26.39.905,SPAMnetsValid,2021.1.4,Win32,60.05645307,,,,,,,,,,,,,,,,,,,,,,,,,,,,,,,,,,,,,,5,3.7302,0,3,3,3,1,gruesomeness,blackness,falseness,vindictiveness,drunkenness,ghastliness,5,,,,,,,,,,,,,,,,,,,,,,,,,,,,,,,,,,,,,,
,,,,,,,,,,,,,,,90226,001,2022-04-20_15h26.39.905,SPAMnetsValid,2021.1.4,Win32,60.05645307,,,,,,,,,,,,,,,,,,,,,,,,,,,,,,,,,,,,,,3,3.611,0,4,4,4,1,loathing,diffidence,laziness,abhorrence,cleverness,comfort,3,,,,,,,,,,,,,,,,,,,,,,,,,,,,,,,,,,,,,,
,,,,,,,,,,,,,,,90226,001,2022-04-20_15h26.39.905,SPAMnetsValid,2021.1.4,Win32,60.05645307,,,,,,,,,,,,,,,,,,,,,,,,,,,,,,,,,,,,,,2,3.4284,0,5,5,5,1,bantam,fowl,ridicule,cripple,vegetable,ensign,1,,,,,,,,,,,,,,,,,,,,,,,,,,,,,,,,,,,,,,
,,,,,,,,,,,,,,,90226,001,2022-04-20_15h26.39.905,SPAMnetsValid,2021.1.4,Win32,60.05645307,,,,,,,,,,,,,,,,,,,,,,,,,,,,,,,,,,,,,,5,2.2685,0,6,6,6,1,evoke,wake up,surrender,reconnoiter,transcend,call forth,5,,,,,,,,,,,,,,,,,,,,,,,,,,,,,,,,,,,,,,
,,,,,,,,,,,,,,,90226,001,2022-04-20_15h26.39.905,SPAMnetsValid,2021.1.4,Win32,60.05645307,,,,,,,,,,,,,,,,,,,,,,,,,,,,,,,,,,,,,,2,12.3338,0,7,7,7,1,unobtrusive,unintelligent,epileptic,illogical,lineal,modest,5,,,,,,,,,,,,,,,,,,,,,,,,,,,,,,,,,,,,,,
,,,,,,,,,,,,,,,90226,001,2022-04-20_15h26.39.905,SPAMnetsValid,2021.1.4,Win32,60.05645307,,,,,,,,,,,,,,,,,,,,,,,,,,,,,,,,,,,,,,4,3.3991,0,8,8,8,1,terrain,ice cream,final test,tractor,area of ground,weight,4,,,,,,,,,,,,,,,,,,,,,,,,,,,,,,,,,,,,,,
,,,,,,,,,,,,,,,90226,001,2022-04-20_15h26.39.905,SPAMnetsValid,2021.1.4,Win32,60.05645307,,,,,,,,,,,,,,,,,,,,,,,,,,,,,,,,,,,,,,3,5.4834,0,9,9,9,1,capriciousness,stubbornness,courage,whimsicality,amazement,greediness,3,,,,,,,,,,,,,,,,,,,,,,,,,,,,,,,,,,,,,,
,,,,,,,,,,,,,,,90226,001,2022-04-20_15h26.39.905,SPAMnetsValid,2021.1.4,Win32,60.05645307,,,,,,,,,,,,,,,,,,,,,,,,,,,,,,,,,,,,,,2,11.8302,0,10,10,10,1,maelstrom,slander,whirlpool,enmity,armor,majolica,2,,,,,,,,,,,,,,,,,,,,,,,,,,,,,,,,,,,,,,
,,,,,,,,,,,,,,,90226,001,2022-04-20_15h26.39.905,SPAMnetsValid,2021.1.4,Win32,60.05645307,,,,,,,,,,,,,,,,,,,,,,,,,,,,,,,,,,,,,,4,8.12,0,11,11,11,1,tentative,critical,conclusive,authentic,provisional,apprehensive,4,,,,,,,,,,,,,,,,,,,,,,,,,,,,,,,,,,,,,,
,,,,,,,,,,,,,,,90226,001,2022-04-20_15h26.39.905,SPAMnetsValid,2021.1.4,Win32,60.05645307,,,,,,,,,,,,,,,,,,,,,,,,,,,,,,,,,,,,,,5,7.4316,0,12,12,12,1,placate,rehabilitate,plagiarize,depredate,apprise,conciliate,5,,,,,,,,,,,,,,,,,,,,,,,,,,,,,,,,,,,,,,
,,,,,,,,,,,,,,,90226,001,2022-04-20_15h26.39.905,SPAMnetsValid,2021.1.4,Win32,60.05645307,,,,,,,,,,,,,,,,,,,,,,,,,,,,,,,,,,,,,,1,5.8041,0,13,13,13,1,surcease,enlightenment,cessation,inattention,censor,substitution,2,,,,,,,,,,,,,,,,,,,,,,,,,,,,,,,,,,,,,,
,,,,,,,,,,,,,,,90226,001,2022-04-20_15h26.39.905,SPAMnetsValid,2021.1.4,Win32,60.05645307,,,,,,,,,,,,,,,,,,,,,,,,,,,,,,,,,,,,,,2,5.0301,0,14,14,14,1,apathetic,wandering,impassive,hateful,prophetic,overflowing,2,,,,,,,,,,,,,,,,,,,,,,,,,,,,,,,,,,,,,,
,,,,,,,,,,,,,,,90226,001,2022-04-20_15h26.39.905,SPAMnetsValid,2021.1.4,Win32,60.05645307,,,,,,,,,,,,,,,,,,,,,,,,,,,,,,,,,,,,,,1,38.4866,0,15,15,15,1,paternoster,paternalism,patricide,malediction,benediction,prayer,5,,,,,,,,,,,,,,,,,,,,,,,,,,,,,,,,,,,,,,
,,,,,,,,,,,,,,,90226,001,2022-04-20_15h26.39.905,SPAMnetsValid,2021.1.4,Win32,60.05645307,,,,,,,,,,,,,,,,,,,,,,,,,,,,,,,,,,,,,,2,3.7365,0,16,16,16,1,opalescence,opulence,senescence,bankruptcy,iridescence,assiduity,4,,,,,,,,,,,,,,,,,,,,,,,,,,,,,,,,,,,,,,
,,,,,,,,,,,,,,,90226,001,2022-04-20_15h26.39.905,SPAMnetsValid,2021.1.4,Win32,60.05645307,,,,,,,,,,,,,,,,,,,,,,,,,,,,,,,,,,,,,,2,2.8436,0,17,17,17,1,lush,stupid,luxurious,hazy,putrid,languishing,2,,,,,,,,,,,,,,,,,,,,,,,,,,,,,,,,,,,,,,
,,,,,,,,,,,,,,,90226,001,2022-04-20_15h26.39.905,SPAMnetsValid,2021.1.4,Win32,60.05645307,,,,,,,,,,,,,,,,,,,,,,,,,,,,,,,,,,,,,,1,5.5716,0,18,18,18,1,curtailment,expenditure,abandonment,abridgment,improvement,forgery,3,,,,,,,,,,,,,,,,,,,,,,,,,,,,,,,,,,,,,,
,,,,,,,,,,,,,,,90226,001,2022-04-20_15h26.39.905,SPAMnetsValid,2021.1.4,Win32,60.05645307,,,,,,,,,,,,,,,,,,,,,,,,,,,,,,,,,,,,,,2,3.9006,0,19,19,19,1,perversity,adversity,perviousness,travesty,waywardness,gentility,4,,,,,,,,,,,,,,,,,,,,,,,,,,,,,,,,,,,,,,
,,,,,,,,,,,,,,,90226,001,2022-04-20_15h26.39.905,SPAMnetsValid,2021.1.4,Win32,60.05645307,,,,,,,,,,,,,,,,,,,,,,,,,,,,,,,,,,,,,,1,8.8854,0,20,20,20,1,calumnious,complimentary,analogous,slanderous,tempestuous,magnanimous,3,,,,,,,,,,,,,,,,,,,,,,,,,,,,,,,,,,,,,,
,,,,,,,,,,,,,,,90226,001,2022-04-20_15h26.39.905,SPAMnetsValid,2021.1.4,Win32,60.05645307,,,,,,,,,,,,,,,,,,,,,,,,,,,,,,,,,,,,,,4,6.2541,0,21,21,21,1,illiberality,bigotry,imbecility,illegibility,cautery,immaturity,1,,,,,,,,,,,,,,,,,,,,,,,,,,,,,,,,,,,,,,
,,,,,,,,,,,,,,,90226,001,2022-04-20_15h26.39.905,SPAMnetsValid,2021.1.4,Win32,60.05645307,,,,,,,,,,,,,,,,,,,,,,,,,,,,,,,,,,,,,,1,3.5664,0,22,22,22,1,clabber,rejoice,gossip,curdle,crow,hobble,3,,,,,,,,,,,,,,,,,,,,,,,,,,,,,,,,,,,,,,
,,,,,,,,,,,,,,,90226,001,2022-04-20_15h26.39.905,SPAMnetsValid,2021.1.4,Win32,60.05645307,,,,,,,,,,,,,,,,,,,,,,,,,,,,,,,,,,,,,,3,4.1953,0,23,23,23,1,sedulousness,diligence,credulousness,seduction,perilousness,frankness,1,,,,,,,,,,,,,,,,,,,,,,,,,,,,,,,,,,,,,,
,,,,,,,,,,,,,,,90226,001,2022-04-20_15h26.39.905,SPAMnetsValid,2021.1.4,Win32,60.05645307,,,,,,,,,,,,,,,,,,,,,,,,,,,,,,,,,,,,,,,,,,,,,,,,,,,,hat,bucket,0,0,0,0,1,,,,,,,,,,,,,,,,,,,,,,,,,,,,,,,
,,,,,,,,,,,,,,,90226,001,2022-04-20_15h26.39.905,SPAMnetsValid,2021.1.4,Win32,60.05645307,,,,,,,,,,,,,,,,,,,,,,,,,,,,,,,,,,,,,,,,,,,,,,,,,,,,carry something,bucket,1,0,1,0,1,,,,,,,,,,,,,,,,,,,,,,,,,,,,,,,
,,,,,,,,,,,,,,,90226,001,2022-04-20_15h26.39.905,SPAMnetsValid,2021.1.4,Win32,60.05645307,,,,,,,,,,,,,,,,,,,,,,,,,,,,,,,,,,,,,,,,,,,,,,,,,,,,handel,bucket,2,0,2,0,1,,,,,,,,,,,,,,,,,,,,,,,,,,,,,,,
,,,,,,,,,,,,,,,90226,001,2022-04-20_15h26.39.905,SPAMnetsValid,2021.1.4,Win32,60.05645307,,,,,,,,,,,,,,,,,,,,,,,,,,,,,,,,,,,,,,,,,,,,,,,,,,,,handle,bucket,3,0,3,0,1,,,,,,,,,,,,,,,,,,,,,,,,,,,,,,,
,,,,,,,,,,,,,,,90226,001,2022-04-20_15h26.39.905,SPAMnetsValid,2021.1.4,Win32,60.05645307,,,,,,,,,,,,,,,,,,,,,,,,,,,,,,,,,,,,,,,,,,,,,,,,,,,,weapon,bucket,4,0,4,0,1,,,,,,,,,,,,,,,,,,,,,,,,,,,,,,,
,,,,,,,,,,,,,,,90226,001,2022-04-20_15h26.39.905,SPAMnetsValid,2021.1.4,Win32,60.05645307,,,,,,,,,,,,,,,,,,,,,,,,,,,,,,,,,,,,,,,,,,,,,,,,,,,,put out a fire,bucket,5,0,5,0,1,,,,,,,,,,,,,,,,,,,,,,,,,,,,,,,
,,,,,,,,,,,,,,,90226,001,2022-04-20_15h26.39.905,SPAMnetsValid,2021.1.4,Win32,60.05645307,,,,,,,,,,,,,,,,,,,,,,,,,,,,,,,,,,,,,,,,,,,,,,,,,,,,vase,bucket,6,0,6,0,1,,,,,,,,,,,,,,,,,,,,,,,,,,,,,,,
,,,,,,,,,,,,,,,90226,001,2022-04-20_15h26.39.905,SPAMnetsValid,2021.1.4,Win32,60.05645307,,,,,,,,,,,,,,,,,,,,,,,,,,,,,,,,,,,,,,,,,,,,,,,,,,,,decoration,bucket,7,0,7,0,1,,,,,,,,,,,,,,,,,,,,,,,,,,,,,,,
,,,,,,,,,,,,,,,90226,001,2022-04-20_15h26.39.905,SPAMnetsValid,2021.1.4,Win32,60.05645307,,,,,,,,,,,,,,,,,,,,,,,,,,,,,,,,,,,,,,,,,,,,,,,,,,,,shopping,bucket,8,0,8,0,1,,,,,,,,,,,,,,,,,,,,,,,,,,,,,,,
,,,,,,,,,,,,,,,90226,001,2022-04-20_15h26.39.905,SPAMnetsValid,2021.1.4,Win32,60.05645307,,,,,,,,,,,,,,,,,,,,,,,,,,,,,,,,,,,,,,,,,,,,,,,,,,,,basket,bucket,9,0,9,0,1,,,,,,,,,,,,,,,,,,,,,,,,,,,,,,,
,,,,,,,,,,,,,,,90226,001,2022-04-20_15h26.39.905,SPAMnetsValid,2021.1.4,Win32,60.05645307,,,,,,,,,,,,,,,,,,,,,,,,,,,,,,,,,,,,,,,,,,,,,,,,,,,,costume,bucket,10,0,10,0,1,,,,,,,,,,,,,,,,,,,,,,,,,,,,,,,
,,,,,,,,,,,,,,,90226,001,2022-04-20_15h26.39.905,SPAMnetsValid,2021.1.4,Win32,60.05645307,,,,,,,,,,,,,,,,,,,,,,,,,,,,,,,,,,,,,,,,,,,,,,,,,,,,use metal as jewlery,bucket,11,0,11,0,1,,,,,,,,,,,,,,,,,,,,,,,,,,,,,,,
,,,,,,,,,,,,,,,90226,001,2022-04-20_15h26.39.905,SPAMnetsValid,2021.1.4,Win32,60.05645307,,,,,,,,,,,,,,,,,,,,,,,,,,,,,,,,,,,,,,,,,,,,,,,,,,,,plant,bucket,12,0,12,0,1,,,,,,,,,,,,,,,,,,,,,,,,,,,,,,,
,,,,,,,,,,,,,,,90226,001,2022-04-20_15h26.39.905,SPAMnetsValid,2021.1.4,Win32,60.05645307,,,,,,,,,,,,,,,,,,,,,,,,,,,,,,,,,,,,,,,,,,,,,,,,,,,,garden,bucket,13,0,13,0,1,,,,,,,,,,,,,,,,,,,,,,,,,,,,,,,
,,,,,,,,,,,,,,,90226,001,2022-04-20_15h26.39.905,SPAMnetsValid,2021.1.4,Win32,60.05645307,,,,,,,,,,,,,,,,,,,,,,,,,,,,,,,,,,,,,,,,,,,,,,,,,,,,seat,bucket,14,0,14,0,1,,,,,,,,,,,,,,,,,,,,,,,,,,,,,,,
,,,,,,,,,,,,,,,90226,001,2022-04-20_15h26.39.905,SPAMnetsValid,2021.1.4,Win32,60.05645307,,,,,,,,,,,,,,,,,,,,,,,,,,,,,,,,,,,,,,,,,,,,,,,,,,,,stool,bucket,15,0,15,0,1,,,,,,,,,,,,,,,,,,,,,,,,,,,,,,,
,,,,,,,,,,,,,,,90226,001,2022-04-20_15h26.39.905,SPAMnetsValid,2021.1.4,Win32,60.05645307,,,,,,,,,,,,,,,,,,,,,,,,,,,,,,,,,,,,,,,,,,,,,,,,,,,,,,,,,,,0,0,0,0,1,bucket,,,,,,,,,,,,,,,,,,,,,,,,,
,,,,,,,,,,,,,,,90226,001,2022-04-20_15h26.39.905,SPAMnetsValid,2021.1.4,Win32,60.05645307,,,,,,,,,,,,,,,,,,,,,,,,,,,,,,,,,,,,,,,,,,,,,,,,,,,,light ,candle,0,0,0,0,1,,,,,,,,,,,,,,,,,,,,,,,,,,,,,,,
,,,,,,,,,,,,,,,90226,001,2022-04-20_15h26.39.905,SPAMnetsValid,2021.1.4,Win32,60.05645307,,,,,,,,,,,,,,,,,,,,,,,,,,,,,,,,,,,,,,,,,,,,,,,,,,,,heat,candle,1,0,1,0,1,,,,,,,,,,,,,,,,,,,,,,,,,,,,,,,
,,,,,,,,,,,,,,,90226,001,2022-04-20_15h26.39.905,SPAMnetsValid,2021.1.4,Win32,60.05645307,,,,,,,,,,,,,,,,,,,,,,,,,,,,,,,,,,,,,,,,,,,,,,,,,,,,fire,candle,2,0,2,0,1,,,,,,,,,,,,,,,,,,,,,,,,,,,,,,,
,,,,,,,,,,,,,,,90226,001,2022-04-20_15h26.39.905,SPAMnetsValid,2021.1.4,Win32,60.05645307,,,,,,,,,,,,,,,,,,,,,,,,,,,,,,,,,,,,,,,,,,,,,,,,,,,,wax,candle,3,0,3,0,1,,,,,,,,,,,,,,,,,,,,,,,,,,,,,,,
,,,,,,,,,,,,,,,90226,001,2022-04-20_15h26.39.905,SPAMnetsValid,2021.1.4,Win32,60.05645307,,,,,,,,,,,,,,,,,,,,,,,,,,,,,,,,,,,,,,,,,,,,,,,,,,,,seal letter,candle,4,0,4,0,1,,,,,,,,,,,,,,,,,,,,,,,,,,,,,,,
,,,,,,,,,,,,,,,90226,001,2022-04-20_15h26.39.905,SPAMnetsValid,2021.1.4,Win32,60.05645307,,,,,,,,,,,,,,,,,,,,,,,,,,,,,,,,,,,,,,,,,,,,,,,,,,,,set a fire,candle,5,0,5,0,1,,,,,,,,,,,,,,,,,,,,,,,,,,,,,,,
,,,,,,,,,,,,,,,90226,001,2022-04-20_15h26.39.905,SPAMnetsValid,2021.1.4,Win32,60.05645307,,,,,,,,,,,,,,,,,,,,,,,,,,,,,,,,,,,,,,,,,,,,,,,,,,,,color,candle,6,0,6,0,1,,,,,,,,,,,,,,,,,,,,,,,,,,,,,,,
,,,,,,,,,,,,,,,90226,001,2022-04-20_15h26.39.905,SPAMnetsValid,2021.1.4,Win32,60.05645307,,,,,,,,,,,,,,,,,,,,,,,,,,,,,,,,,,,,,,,,,,,,,,,,,,,,decoration,candle,7,0,7,0,1,,,,,,,,,,,,,,,,,,,,,,,,,,,,,,,
,,,,,,,,,,,,,,,90226,001,2022-04-20_15h26.39.905,SPAMnetsValid,2021.1.4,Win32,60.05645307,,,,,,,,,,,,,,,,,,,,,,,,,,,,,,,,,,,,,,,,,,,,,,,,,,,,lead the way,candle,8,0,8,0,1,,,,,,,,,,,,,,,,,,,,,,,,,,,,,,,
,,,,,,,,,,,,,,,90226,001,2022-04-20_15h26.39.905,SPAMnetsValid,2021.1.4,Win32,60.05645307,,,,,,,,,,,,,,,,,,,,,,,,,,,,,,,,,,,,,,,,,,,,,,,,,,,,art,candle,9,0,9,0,1,,,,,,,,,,,,,,,,,,,,,,,,,,,,,,,
,,,,,,,,,,,,,,,90226,001,2022-04-20_15h26.39.905,SPAMnetsValid,2021.1.4,Win32,60.05645307,,,,,,,,,,,,,,,,,,,,,,,,,,,,,,,,,,,,,,,,,,,,,,,,,,,,weapon,candle,10,0,10,0,1,,,,,,,,,,,,,,,,,,,,,,,,,,,,,,,
,,,,,,,,,,,,,,,90226,001,2022-04-20_15h26.39.905,SPAMnetsValid,2021.1.4,Win32,60.05645307,,,,,,,,,,,,,,,,,,,,,,,,,,,,,,,,,,,,,,,,,,,,,,,,,,,,smell,candle,11,0,11,0,1,,,,,,,,,,,,,,,,,,,,,,,,,,,,,,,
,,,,,,,,,,,,,,,90226,001,2022-04-20_15h26.39.905,SPAMnetsValid,2021.1.4,Win32,60.05645307,,,,,,,,,,,,,,,,,,,,,,,,,,,,,,,,,,,,,,,,,,,,,,,,,,,,costume,candle,12,0,12,0,1,,,,,,,,,,,,,,,,,,,,,,,,,,,,,,,
,,,,,,,,,,,,,,,90226,001,2022-04-20_15h26.39.905,SPAMnetsValid,2021.1.4,Win32,60.05645307,,,,,,,,,,,,,,,,,,,,,,,,,,,,,,,,,,,,,,,,,,,,,,,,,,,,religious reasons,candle,13,0,13,0,1,,,,,,,,,,,,,,,,,,,,,,,,,,,,,,,
,,,,,,,,,,,,,,,90226,001,2022-04-20_15h26.39.905,SPAMnetsValid,2021.1.4,Win32,60.05645307,,,,,,,,,,,,,,,,,,,,,,,,,,,,,,,,,,,,,,,,,,,,,,,,,,,,light fireworks,candle,14,0,14,0,1,,,,,,,,,,,,,,,,,,,,,,,,,,,,,,,
,,,,,,,,,,,,,,,90226,001,2022-04-20_15h26.39.905,SPAMnetsValid,2021.1.4,Win32,60.05645307,,,,,,,,,,,,,,,,,,,,,,,,,,,,,,,,,,,,,,,,,,,,,,,,,,,,save money,candle,15,0,15,0,1,,,,,,,,,,,,,,,,,,,,,,,,,,,,,,,
,,,,,,,,,,,,,,,90226,001,2022-04-20_15h26.39.905,SPAMnetsValid,2021.1.4,Win32,60.05645307,,,,,,,,,,,,,,,,,,,,,,,,,,,,,,,,,,,,,,,,,,,,,,,,,,,,cook,candle,16,0,16,0,1,,,,,,,,,,,,,,,,,,,,,,,,,,,,,,,
,,,,,,,,,,,,,,,90226,001,2022-04-20_15h26.39.905,SPAMnetsValid,2021.1.4,Win32,60.05645307,,,,,,,,,,,,,,,,,,,,,,,,,,,,,,,,,,,,,,,,,,,,,,,,,,,,stick things together,candle,17,0,17,0,1,,,,,,,,,,,,,,,,,,,,,,,,,,,,,,,
,,,,,,,,,,,,,,,90226,001,2022-04-20_15h26.39.905,SPAMnetsValid,2021.1.4,Win32,60.05645307,,,,,,,,,,,,,,,,,,,,,,,,,,,,,,,,,,,,,,,,,,,,,,,,,,,,,,,,,,,0,1,1,1,1,candle,,,,,,,,,,,,,,,,,,,,,,,,,
,,,,,,,,,,,,,,,90226,001,2022-04-20_15h26.39.905,SPAMnetsValid,2021.1.4,Win32,60.05645307,,,,,,,,,,,,,,,,,,,,,,,,,,,,,,,,,,,,,,,,,,,,,,,,,,,,sleep ,pillow,0,0,0,0,1,,,,,,,,,,,,,,,,,,,,,,,,,,,,,,,
,,,,,,,,,,,,,,,90226,001,2022-04-20_15h26.39.905,SPAMnetsValid,2021.1.4,Win32,60.05645307,,,,,,,,,,,,,,,,,,,,,,,,,,,,,,,,,,,,,,,,,,,,,,,,,,,,cushion head,pillow,1,0,1,0,1,,,,,,,,,,,,,,,,,,,,,,,,,,,,,,,
,,,,,,,,,,,,,,,90226,001,2022-04-20_15h26.39.905,SPAMnetsValid,2021.1.4,Win32,60.05645307,,,,,,,,,,,,,,,,,,,,,,,,,,,,,,,,,,,,,,,,,,,,,,,,,,,,cushion feet ,pillow,2,0,2,0,1,,,,,,,,,,,,,,,,,,,,,,,,,,,,,,,
,,,,,,,,,,,,,,,90226,001,2022-04-20_15h26.39.905,SPAMnetsValid,2021.1.4,Win32,60.05645307,,,,,,,,,,,,,,,,,,,,,,,,,,,,,,,,,,,,,,,,,,,,,,,,,,,,weapon,pillow,3,0,3,0,1,,,,,,,,,,,,,,,,,,,,,,,,,,,,,,,
,,,,,,,,,,,,,,,90226,001,2022-04-20_15h26.39.905,SPAMnetsValid,2021.1.4,Win32,60.05645307,,,,,,,,,,,,,,,,,,,,,,,,,,,,,,,,,,,,,,,,,,,,,,,,,,,,prop something up,pillow,4,0,4,0,1,,,,,,,,,,,,,,,,,,,,,,,,,,,,,,,
,,,,,,,,,,,,,,,90226,001,2022-04-20_15h26.39.905,SPAMnetsValid,2021.1.4,Win32,60.05645307,,,,,,,,,,,,,,,,,,,,,,,,,,,,,,,,,,,,,,,,,,,,,,,,,,,,hug it,pillow,5,0,5,0,1,,,,,,,,,,,,,,,,,,,,,,,,,,,,,,,
,,,,,,,,,,,,,,,90226,001,2022-04-20_15h26.39.905,SPAMnetsValid,2021.1.4,Win32,60.05645307,,,,,,,,,,,,,,,,,,,,,,,,,,,,,,,,,,,,,,,,,,,,,,,,,,,,use cover as bag,pillow,6,0,6,0,1,,,,,,,,,,,,,,,,,,,,,,,,,,,,,,,
,,,,,,,,,,,,,,,90226,001,2022-04-20_15h26.39.905,SPAMnetsValid,2021.1.4,Win32,60.05645307,,,,,,,,,,,,,,,,,,,,,,,,,,,,,,,,,,,,,,,,,,,,,,,,,,,,halloween bag,pillow,7,0,7,0,1,,,,,,,,,,,,,,,,,,,,,,,,,,,,,,,
,,,,,,,,,,,,,,,90226,001,2022-04-20_15h26.39.905,SPAMnetsValid,2021.1.4,Win32,60.05645307,,,,,,,,,,,,,,,,,,,,,,,,,,,,,,,,,,,,,,,,,,,,,,,,,,,,carry stuff,pillow,8,0,8,0,1,,,,,,,,,,,,,,,,,,,,,,,,,,,,,,,
,,,,,,,,,,,,,,,90226,001,2022-04-20_15h26.39.905,SPAMnetsValid,2021.1.4,Win32,60.05645307,,,,,,,,,,,,,,,,,,,,,,,,,,,,,,,,,,,,,,,,,,,,,,,,,,,,use feathers for fire,pillow,9,0,9,0,1,,,,,,,,,,,,,,,,,,,,,,,,,,,,,,,
,,,,,,,,,,,,,,,90226,001,2022-04-20_15h26.39.905,SPAMnetsValid,2021.1.4,Win32,60.05645307,,,,,,,,,,,,,,,,,,,,,,,,,,,,,,,,,,,,,,,,,,,,,,,,,,,,use feathers to keep warm,pillow,10,0,10,0,1,,,,,,,,,,,,,,,,,,,,,,,,,,,,,,,
,,,,,,,,,,,,,,,90226,001,2022-04-20_15h26.39.905,SPAMnetsValid,2021.1.4,Win32,60.05645307,,,,,,,,,,,,,,,,,,,,,,,,,,,,,,,,,,,,,,,,,,,,,,,,,,,,use cloth for costume,pillow,11,0,11,0,1,,,,,,,,,,,,,,,,,,,,,,,,,,,,,,,
,,,,,,,,,,,,,,,90226,001,2022-04-20_15h26.39.905,SPAMnetsValid,2021.1.4,Win32,60.05645307,,,,,,,,,,,,,,,,,,,,,,,,,,,,,,,,,,,,,,,,,,,,,,,,,,,,make a shirt,pillow,12,0,12,0,1,,,,,,,,,,,,,,,,,,,,,,,,,,,,,,,
,,,,,,,,,,,,,,,90226,001,2022-04-20_15h26.39.905,SPAMnetsValid,2021.1.4,Win32,60.05645307,,,,,,,,,,,,,,,,,,,,,,,,,,,,,,,,,,,,,,,,,,,,,,,,,,,,sit on it,pillow,13,0,13,0,1,,,,,,,,,,,,,,,,,,,,,,,,,,,,,,,
,,,,,,,,,,,,,,,90226,001,2022-04-20_15h26.39.905,SPAMnetsValid,2021.1.4,Win32,60.05645307,,,,,,,,,,,,,,,,,,,,,,,,,,,,,,,,,,,,,,,,,,,,,,,,,,,,make turnaquit,pillow,14,0,14,0,1,,,,,,,,,,,,,,,,,,,,,,,,,,,,,,,
,,,,,,,,,,,,,,,90226,001,2022-04-20_15h26.39.905,SPAMnetsValid,2021.1.4,Win32,60.05645307,,,,,,,,,,,,,,,,,,,,,,,,,,,,,,,,,,,,,,,,,,,,,,,,,,,,use to style hair,pillow,15,0,15,0,1,,,,,,,,,,,,,,,,,,,,,,,,,,,,,,,
,,,,,,,,,,,,,,,90226,001,2022-04-20_15h26.39.905,SPAMnetsValid,2021.1.4,Win32,60.05645307,,,,,,,,,,,,,,,,,,,,,,,,,,,,,,,,,,,,,,,,,,,,,,,,,,,,,,,,,,,0,2,2,2,1,pillow,,,,,,,,,,,,,,,,,,,,,,,,,
,,,,,,,,,,,,,,,90226,001,2022-04-20_15h26.39.905,SPAMnetsValid,2021.1.4,Win32,60.05645307,,,,,,,,,,,,,,,,,,,,,,,,,,,,,,,,,,,,,,,,,,,,,,,,,,,,,,,,,,,,,,,,,lion,Animals,0,0,0,0,1,,,,,,,,,,,,,,,,,,
,,,,,,,,,,,,,,,90226,001,2022-04-20_15h26.39.905,SPAMnetsValid,2021.1.4,Win32,60.05645307,,,,,,,,,,,,,,,,,,,,,,,,,,,,,,,,,,,,,,,,,,,,,,,,,,,,,,,,,,,,,,,,,tiger,Animals,1,0,1,0,1,,,,,,,,,,,,,,,,,,
,,,,,,,,,,,,,,,90226,001,2022-04-20_15h26.39.905,SPAMnetsValid,2021.1.4,Win32,60.05645307,,,,,,,,,,,,,,,,,,,,,,,,,,,,,,,,,,,,,,,,,,,,,,,,,,,,,,,,,,,,,,,,,cheetah,Animals,2,0,2,0,1,,,,,,,,,,,,,,,,,,
,,,,,,,,,,,,,,,90226,001,2022-04-20_15h26.39.905,SPAMnetsValid,2021.1.4,Win32,60.05645307,,,,,,,,,,,,,,,,,,,,,,,,,,,,,,,,,,,,,,,,,,,,,,,,,,,,,,,,,,,,,,,,,cat,Animals,3,0,3,0,1,,,,,,,,,,,,,,,,,,
,,,,,,,,,,,,,,,90226,001,2022-04-20_15h26.39.905,SPAMnetsValid,2021.1.4,Win32,60.05645307,,,,,,,,,,,,,,,,,,,,,,,,,,,,,,,,,,,,,,,,,,,,,,,,,,,,,,,,,,,,,,,,,mouse,Animals,4,0,4,0,1,,,,,,,,,,,,,,,,,,
,,,,,,,,,,,,,,,90226,001,2022-04-20_15h26.39.905,SPAMnetsValid,2021.1.4,Win32,60.05645307,,,,,,,,,,,,,,,,,,,,,,,,,,,,,,,,,,,,,,,,,,,,,,,,,,,,,,,,,,,,,,,,,elephant,Animals,5,0,5,0,1,,,,,,,,,,,,,,,,,,
,,,,,,,,,,,,,,,90226,001,2022-04-20_15h26.39.905,SPAMnetsValid,2021.1.4,Win32,60.05645307,,,,,,,,,,,,,,,,,,,,,,,,,,,,,,,,,,,,,,,,,,,,,,,,,,,,,,,,,,,,,,,,,dog,Animals,6,0,6,0,1,,,,,,,,,,,,,,,,,,
,,,,,,,,,,,,,,,90226,001,2022-04-20_15h26.39.905,SPAMnetsValid,2021.1.4,Win32,60.05645307,,,,,,,,,,,,,,,,,,,,,,,,,,,,,,,,,,,,,,,,,,,,,,,,,,,,,,,,,,,,,,,,,squirrel,Animals,7,0,7,0,1,,,,,,,,,,,,,,,,,,
,,,,,,,,,,,,,,,90226,001,2022-04-20_15h26.39.905,SPAMnetsValid,2021.1.4,Win32,60.05645307,,,,,,,,,,,,,,,,,,,,,,,,,,,,,,,,,,,,,,,,,,,,,,,,,,,,,,,,,,,,,,,,,chipmunk,Animals,8,0,8,0,1,,,,,,,,,,,,,,,,,,
,,,,,,,,,,,,,,,90226,001,2022-04-20_15h26.39.905,SPAMnetsValid,2021.1.4,Win32,60.05645307,,,,,,,,,,,,,,,,,,,,,,,,,,,,,,,,,,,,,,,,,,,,,,,,,,,,,,,,,,,,,,,,,hamster,Animals,9,0,9,0,1,,,,,,,,,,,,,,,,,,
,,,,,,,,,,,,,,,90226,001,2022-04-20_15h26.39.905,SPAMnetsValid,2021.1.4,Win32,60.05645307,,,,,,,,,,,,,,,,,,,,,,,,,,,,,,,,,,,,,,,,,,,,,,,,,,,,,,,,,,,,,,,,,guinea big,Animals,10,0,10,0,1,,,,,,,,,,,,,,,,,,
,,,,,,,,,,,,,,,90226,001,2022-04-20_15h26.39.905,SPAMnetsValid,2021.1.4,Win32,60.05645307,,,,,,,,,,,,,,,,,,,,,,,,,,,,,,,,,,,,,,,,,,,,,,,,,,,,,,,,,,,,,,,,,pig,Animals,11,0,11,0,1,,,,,,,,,,,,,,,,,,
,,,,,,,,,,,,,,,90226,001,2022-04-20_15h26.39.905,SPAMnetsValid,2021.1.4,Win32,60.05645307,,,,,,,,,,,,,,,,,,,,,,,,,,,,,,,,,,,,,,,,,,,,,,,,,,,,,,,,,,,,,,,,,cow,Animals,12,0,12,0,1,,,,,,,,,,,,,,,,,,
,,,,,,,,,,,,,,,90226,001,2022-04-20_15h26.39.905,SPAMnetsValid,2021.1.4,Win32,60.05645307,,,,,,,,,,,,,,,,,,,,,,,,,,,,,,,,,,,,,,,,,,,,,,,,,,,,,,,,,,,,,,,,,chicken,Animals,13,0,13,0,1,,,,,,,,,,,,,,,,,,
,,,,,,,,,,,,,,,90226,001,2022-04-20_15h26.39.905,SPAMnetsValid,2021.1.4,Win32,60.05645307,,,,,,,,,,,,,,,,,,,,,,,,,,,,,,,,,,,,,,,,,,,,,,,,,,,,,,,,,,,,,,,,,peacock,Animals,14,0,14,0,1,,,,,,,,,,,,,,,,,,
,,,,,,,,,,,,,,,90226,001,2022-04-20_15h26.39.905,SPAMnetsValid,2021.1.4,Win32,60.05645307,,,,,,,,,,,,,,,,,,,,,,,,,,,,,,,,,,,,,,,,,,,,,,,,,,,,,,,,,,,,,,,,,polar bear,Animals,15,0,15,0,1,,,,,,,,,,,,,,,,,,
,,,,,,,,,,,,,,,90226,001,2022-04-20_15h26.39.905,SPAMnetsValid,2021.1.4,Win32,60.05645307,,,,,,,,,,,,,,,,,,,,,,,,,,,,,,,,,,,,,,,,,,,,,,,,,,,,,,,,,,,,,,,,,coyota,Animals,16,0,16,0,1,,,,,,,,,,,,,,,,,,
,,,,,,,,,,,,,,,90226,001,2022-04-20_15h26.39.905,SPAMnetsValid,2021.1.4,Win32,60.05645307,,,,,,,,,,,,,,,,,,,,,,,,,,,,,,,,,,,,,,,,,,,,,,,,,,,,,,,,,,,,,,,,,black bear,Animals,17,0,17,0,1,,,,,,,,,,,,,,,,,,
,,,,,,,,,,,,,,,90226,001,2022-04-20_15h26.39.905,SPAMnetsValid,2021.1.4,Win32,60.05645307,,,,,,,,,,,,,,,,,,,,,,,,,,,,,,,,,,,,,,,,,,,,,,,,,,,,,,,,,,,,,,,,,polar bear,Animals,18,0,18,0,1,,,,,,,,,,,,,,,,,,
,,,,,,,,,,,,,,,90226,001,2022-04-20_15h26.39.905,SPAMnetsValid,2021.1.4,Win32,60.05645307,,,,,,,,,,,,,,,,,,,,,,,,,,,,,,,,,,,,,,,,,,,,,,,,,,,,,,,,,,,,,,,,,brown bear,Animals,19,0,19,0,1,,,,,,,,,,,,,,,,,,
,,,,,,,,,,,,,,,90226,001,2022-04-20_15h26.39.905,SPAMnetsValid,2021.1.4,Win32,60.05645307,,,,,,,,,,,,,,,,,,,,,,,,,,,,,,,,,,,,,,,,,,,,,,,,,,,,,,,,,,,,,,,,,platypus,Animals,20,0,20,0,1,,,,,,,,,,,,,,,,,,
,,,,,,,,,,,,,,,90226,001,2022-04-20_15h26.39.905,SPAMnetsValid,2021.1.4,Win32,60.05645307,,,,,,,,,,,,,,,,,,,,,,,,,,,,,,,,,,,,,,,,,,,,,,,,,,,,,,,,,,,,,,,,,bird,Animals,21,0,21,0,1,,,,,,,,,,,,,,,,,,
,,,,,,,,,,,,,,,90226,001,2022-04-20_15h26.39.905,SPAMnetsValid,2021.1.4,Win32,60.05645307,,,,,,,,,,,,,,,,,,,,,,,,,,,,,,,,,,,,,,,,,,,,,,,,,,,,,,,,,,,,,,,,,bluebird,Animals,22,0,22,0,1,,,,,,,,,,,,,,,,,,
,,,,,,,,,,,,,,,90226,001,2022-04-20_15h26.39.905,SPAMnetsValid,2021.1.4,Win32,60.05645307,,,,,,,,,,,,,,,,,,,,,,,,,,,,,,,,,,,,,,,,,,,,,,,,,,,,,,,,,,,,,,,,,mockingjay,Animals,23,0,23,0,1,,,,,,,,,,,,,,,,,,
,,,,,,,,,,,,,,,90226,001,2022-04-20_15h26.39.905,SPAMnetsValid,2021.1.4,Win32,60.05645307,,,,,,,,,,,,,,,,,,,,,,,,,,,,,,,,,,,,,,,,,,,,,,,,,,,,,,,,,,,,,,,,,eagle,Animals,24,0,24,0,1,,,,,,,,,,,,,,,,,,
,,,,,,,,,,,,,,,90226,001,2022-04-20_15h26.39.905,SPAMnetsValid,2021.1.4,Win32,60.05645307,,,,,,,,,,,,,,,,,,,,,,,,,,,,,,,,,,,,,,,,,,,,,,,,,,,,,,,,,,,,,,,,,lizard,Animals,25,0,25,0,1,,,,,,,,,,,,,,,,,,
,,,,,,,,,,,,,,,90226,001,2022-04-20_15h26.39.905,SPAMnetsValid,2021.1.4,Win32,60.05645307,,,,,,,,,,,,,,,,,,,,,,,,,,,,,,,,,,,,,,,,,,,,,,,,,,,,,,,,,,,,,,,,,ostrich,Animals,26,0,26,0,1,,,,,,,,,,,,,,,,,,
,,,,,,,,,,,,,,,90226,001,2022-04-20_15h26.39.905,SPAMnetsValid,2021.1.4,Win32,60.05645307,,,,,,,,,,,,,,,,,,,,,,,,,,,,,,,,,,,,,,,,,,,,,,,,,,,,,,,,,,,,,,,,,snake,Animals,27,0,27,0,1,,,,,,,,,,,,,,,,,,
,,,,,,,,,,,,,,,90226,001,2022-04-20_15h26.39.905,SPAMnetsValid,2021.1.4,Win32,60.05645307,,,,,,,,,,,,,,,,,,,,,,,,,,,,,,,,,,,,,,,,,,,,,,,,,,,,,,,,,,,,,,,,,cobra,Animals,28,0,28,0,1,,,,,,,,,,,,,,,,,,
,,,,,,,,,,,,,,,90226,001,2022-04-20_15h26.39.905,SPAMnetsValid,2021.1.4,Win32,60.05645307,,,,,,,,,,,,,,,,,,,,,,,,,,,,,,,,,,,,,,,,,,,,,,,,,,,,,,,,,,,,,,,,,butterfly,Animals,29,0,29,0,1,,,,,,,,,,,,,,,,,,
,,,,,,,,,,,,,,,90226,001,2022-04-20_15h26.39.905,SPAMnetsValid,2021.1.4,Win32,60.05645307,,,,,,,,,,,,,,,,,,,,,,,,,,,,,,,,,,,,,,,,,,,,,,,,,,,,,,,,,,,,,,,,,fish,Animals,30,0,30,0,1,,,,,,,,,,,,,,,,,,
,,,,,,,,,,,,,,,90226,001,2022-04-20_15h26.39.905,SPAMnetsValid,2021.1.4,Win32,60.05645307,,,,,,,,,,,,,,,,,,,,,,,,,,,,,,,,,,,,,,,,,,,,,,,,,,,,,,,,,,,,,,,,,,,,,,,,0,0,0,0,1,Animals,,,,,,,,,,,,
,,,,,,,,,,,,,,,90226,001,2022-04-20_15h26.39.905,SPAMnetsValid,2021.1.4,Win32,60.05645307,,,,,,,,,,,,,,,,,,,,,,,,,,,,,,,,,,,,,,,,,,,,,,,,,,,,,,,,,,,,,,,,,,,,,,,,,,,,,,5,7.0473,0,0,0,0,1,"I enjoy concentrating on a fantasy or daydream and exploring all its possibilities, letting it grow and develop.",0,1,,
,,,,,,,,,,,,,,,90226,001,2022-04-20_15h26.39.905,SPAMnetsValid,2021.1.4,Win32,60.05645307,,,,,,,,,,,,,,,,,,,,,,,,,,,,,,,,,,,,,,,,,,,,,,,,,,,,,,,,,,,,,,,,,,,,,,,,,,,,,,5,2.4446,0,1,1,1,1,I think it's interesting to learn and develop new hobbies.,0,2,,
,,,,,,,,,,,,,,,90226,001,2022-04-20_15h26.39.905,SPAMnetsValid,2021.1.4,Win32,60.05645307,,,,,,,,,,,,,,,,,,,,,,,,,,,,,,,,,,,,,,,,,,,,,,,,,,,,,,,,,,,,,,,,,,,,,,,,,,,,,,2,3.0465,0,2,2,2,1,I am intrigued by the patterns I find in art and nature.,0,3,,
,,,,,,,,,,,,,,,90226,001,2022-04-20_15h26.39.905,SPAMnetsValid,2021.1.4,Win32,60.05645307,,,,,,,,,,,,,,,,,,,,,,,,,,,,,,,,,,,,,,,,,,,,,,,,,,,,,,,,,,,,,,,,,,,,,,,,,,,,,,1,10.0323,0,3,3,3,1,I believe letting students hear controversial speakers can only confuse and mislead them.,1,4,,
,,,,,,,,,,,,,,,90226,001,2022-04-20_15h26.39.905,SPAMnetsValid,2021.1.4,Win32,60.05645307,,,,,,,,,,,,,,,,,,,,,,,,,,,,,,,,,,,,,,,,,,,,,,,,,,,,,,,,,,,,,,,,,,,,,,,,,,,,,,4,4.6196,0,4,4,4,1,Poetry has little or no effect on me.,1,5,,
,,,,,,,,,,,,,,,90226,001,2022-04-20_15h26.39.905,SPAMnetsValid,2021.1.4,Win32,60.05645307,,,,,,,,,,,,,,,,,,,,,,,,,,,,,,,,,,,,,,,,,,,,,,,,,,,,,,,,,,,,,,,,,,,,,,,,,,,,,,2,7.0643,0,5,5,5,1,I would have difficulty just letting my mind wander without control or guidance.,1,6,,
,,,,,,,,,,,,,,,90226,001,2022-04-20_15h26.39.905,SPAMnetsValid,2021.1.4,Win32,60.05645307,,,,,,,,,,,,,,,,,,,,,,,,,,,,,,,,,,,,,,,,,,,,,,,,,,,,,,,,,,,,,,,,,,,,,,,,,,,,,,2,6.6204,0,6,6,6,1,I seldom notice the moods or feelings that different environments produce.,1,7,,
,,,,,,,,,,,,,,,90226,001,2022-04-20_15h26.39.905,SPAMnetsValid,2021.1.4,Win32,60.05645307,,,,,,,,,,,,,,,,,,,,,,,,,,,,,,,,,,,,,,,,,,,,,,,,,,,,,,,,,,,,,,,,,,,,,,,,,,,,,,4,2.7997,0,7,7,7,1,I experience a wide range of emotions or feelings.,0,8,,
,,,,,,,,,,,,,,,90226,001,2022-04-20_15h26.39.905,SPAMnetsValid,2021.1.4,Win32,60.05645307,,,,,,,,,,,,,,,,,,,,,,,,,,,,,,,,,,,,,,,,,,,,,,,,,,,,,,,,,,,,,,,,,,,,,,,,,,,,,,2,6.3337,0,8,8,8,1,"Sometimes when I am reading poetry or looking at a work of art, I feel a chill or wave of excitement.",0,9,,
,,,,,,,,,,,,,,,90226,001,2022-04-20_15h26.39.905,SPAMnetsValid,2021.1.4,Win32,60.05645307,,,,,,,,,,,,,,,,,,,,,,,,,,,,,,,,,,,,,,,,,,,,,,,,,,,,,,,,,,,,,,,,,,,,,,,,,,,,,,4,8.044,0,9,9,9,1,I have little interest in speculating on the nature of the universe or the human condition.,1,10,,
,,,,,,,,,,,,,,,90226,001,2022-04-20_15h26.39.905,SPAMnetsValid,2021.1.4,Win32,60.05645307,,,,,,,,,,,,,,,,,,,,,,,,,,,,,,,,,,,,,,,,,,,,,,,,,,,,,,,,,,,,,,,,,,,,,,,,,,,,,,4,2.4256,0,10,10,10,1,I have a lot of intellectual curiosity.,0,11,,
,,,,,,,,,,,,,,,90226,001,2022-04-20_15h26.39.905,SPAMnetsValid,2021.1.4,Win32,60.05645307,,,,,,,,,,,,,,,,,,,,,,,,,,,,,,,,,,,,,,,,,,,,,,,,,,,,,,,,,,,,,,,,,,,,,,,,,,,,,,2,3.5472,0,11,11,11,1,I often enjoy playing with theories or abstract ideas.,0,12,,
,,,,,,,,,,,,,,,90226,001,2022-04-20_15h26.39.905,SPAMnetsValid,2021.1.4,Win32,60.05645307,,,,,,,,,,,,,,,,,,,,,,,,,,,,,,,,,,,,,,,,,,,,,,,,,,,,,,,,,,,,,,,,,,,,,,,,,,,,,,,,,,,,,,,,return,7.5936
