key_resp_3.keys,key_resp_3.rt,slider_2.response,slider_2.rt,rjt_rating,rjt_RT,trials_24.thisRepN,trials_24.thisTrialN,trials_24.thisN,trials_24.thisIndex,trials_24.ran,rjt_order,word1,word2,attention,participant,session,date,expName,psychopyVersion,OS,frameRate,trials_4.thisRepN,trials_4.thisTrialN,trials_4.thisN,trials_4.thisIndex,trials_4.ran,trials_5.thisRepN,trials_5.thisTrialN,trials_5.thisN,trials_5.thisIndex,trials_5.ran,repOne,repTwo,slider.response,slider.rt,trials_22.thisRepN,trials_22.thisTrialN,trials_22.thisN,trials_22.thisIndex,trials_22.ran,trials_99.thisRepN,trials_99.thisTrialN,trials_99.thisN,trials_99.thisIndex,trials_99.ran,slider_extend_2.response,slider_extend_2.rt,trials_6.thisRepN,trials_6.thisTrialN,trials_6.thisN,trials_6.thisIndex,trials_6.ran,vCue2,R1,R2,R3,R4,correct,sliderVocab.response,sliderVocab.rt,trials_7.thisRepN,trials_7.thisTrialN,trials_7.thisN,trials_7.thisIndex,trials_7.ran,VocabCue,VR1,VR2,VR3,VR4,VR5,VocabCorrect,AUT_resp,AUT_label,trials.thisRepN,trials.thisTrialN,trials.thisN,trials.thisIndex,trials.ran,trials_2.thisRepN,trials_2.thisTrialN,trials_2.thisN,trials_2.thisIndex,trials_2.ran,aut_prompt,VF_response,VF_tag,trials_16.thisRepN,trials_16.thisTrialN,trials_16.thisN,trials_16.thisIndex,trials_16.ran,trials_17.thisRepN,trials_17.thisTrialN,trials_17.thisN,trials_17.thisIndex,trials_17.ran,VFcond,open_slider.response,open_slider.rt,trials_3.thisRepN,trials_3.thisTrialN,trials_3.thisN,trials_3.thisIndex,trials_3.ran,OpenQ,Rev,OPEN_ORDER,key_resp_2.keys,key_resp_2.rt
return,22.2369,3,18.2098,3,18.2098,0,0,0,76,1,102,chocolate,refrigerator,,90229,001,2022-04-29_13h06.13.355,SPAMnetsValid,2021.1.4,Win32,61.54224875,,,,,,,,,,,,,,,,,,,,,,,,,,,,,,,,,,,,,,,,,,,,,,,,,,,,,,,,,,,,,,,,,,,,,,,,,,,,,,,,,,,,,,,,,
,,6,6.8964,6,6.8964,0,1,1,87,1,114,cookie,strawberry,,90229,001,2022-04-29_13h06.13.355,SPAMnetsValid,2021.1.4,Win32,61.54224875,,,,,,,,,,,,,,,,,,,,,,,,,,,,,,,,,,,,,,,,,,,,,,,,,,,,,,,,,,,,,,,,,,,,,,,,,,,,,,,,,,,,,,,,,
,,6,3.7911,6,3.7911,0,2,2,26,1,107,rose,tomato,,90229,001,2022-04-29_13h06.13.355,SPAMnetsValid,2021.1.4,Win32,61.54224875,,,,,,,,,,,,,,,,,,,,,,,,,,,,,,,,,,,,,,,,,,,,,,,,,,,,,,,,,,,,,,,,,,,,,,,,,,,,,,,,,,,,,,,,,
,,6,1.7477,6,1.7477,0,3,3,65,1,160,cookie,kitchen,,90229,001,2022-04-29_13h06.13.355,SPAMnetsValid,2021.1.4,Win32,61.54224875,,,,,,,,,,,,,,,,,,,,,,,,,,,,,,,,,,,,,,,,,,,,,,,,,,,,,,,,,,,,,,,,,,,,,,,,,,,,,,,,,,,,,,,,,
,,8,2.4254,8,2.4254,0,4,4,39,1,112,cake,carrot,,90229,001,2022-04-29_13h06.13.355,SPAMnetsValid,2021.1.4,Win32,61.54224875,,,,,,,,,,,,,,,,,,,,,,,,,,,,,,,,,,,,,,,,,,,,,,,,,,,,,,,,,,,,,,,,,,,,,,,,,,,,,,,,,,,,,,,,,
,,6,2.0872,6,2.0872,0,5,5,0,1,106,cake,strawberry,,90229,001,2022-04-29_13h06.13.355,SPAMnetsValid,2021.1.4,Win32,61.54224875,,,,,,,,,,,,,,,,,,,,,,,,,,,,,,,,,,,,,,,,,,,,,,,,,,,,,,,,,,,,,,,,,,,,,,,,,,,,,,,,,,,,,,,,,
,,8,3.081,8,3.081,0,6,6,22,1,142,garden,tree,,90229,001,2022-04-29_13h06.13.355,SPAMnetsValid,2021.1.4,Win32,61.54224875,,,,,,,,,,,,,,,,,,,,,,,,,,,,,,,,,,,,,,,,,,,,,,,,,,,,,,,,,,,,,,,,,,,,,,,,,,,,,,,,,,,,,,,,,
,,3,4.3549,3,4.3549,0,7,7,59,1,164,cookie,garden,,90229,001,2022-04-29_13h06.13.355,SPAMnetsValid,2021.1.4,Win32,61.54224875,,,,,,,,,,,,,,,,,,,,,,,,,,,,,,,,,,,,,,,,,,,,,,,,,,,,,,,,,,,,,,,,,,,,,,,,,,,,,,,,,,,,,,,,,
,,5,7.781,5,7.781,0,8,8,45,1,179,broom,oven,,90229,001,2022-04-29_13h06.13.355,SPAMnetsValid,2021.1.4,Win32,61.54224875,,,,,,,,,,,,,,,,,,,,,,,,,,,,,,,,,,,,,,,,,,,,,,,,,,,,,,,,,,,,,,,,,,,,,,,,,,,,,,,,,,,,,,,,,
,,6,1.9375,6,1.9375,0,9,9,93,1,134,carrot,flower,,90229,001,2022-04-29_13h06.13.355,SPAMnetsValid,2021.1.4,Win32,61.54224875,,,,,,,,,,,,,,,,,,,,,,,,,,,,,,,,,,,,,,,,,,,,,,,,,,,,,,,,,,,,,,,,,,,,,,,,,,,,,,,,,,,,,,,,,
,,5,2.1442,5,2.1442,0,10,10,27,1,158,cookie,oven,,90229,001,2022-04-29_13h06.13.355,SPAMnetsValid,2021.1.4,Win32,61.54224875,,,,,,,,,,,,,,,,,,,,,,,,,,,,,,,,,,,,,,,,,,,,,,,,,,,,,,,,,,,,,,,,,,,,,,,,,,,,,,,,,,,,,,,,,
,,2,2.8037,2,2.8037,0,11,11,71,1,187,cactus,microwave,,90229,001,2022-04-29_13h06.13.355,SPAMnetsValid,2021.1.4,Win32,61.54224875,,,,,,,,,,,,,,,,,,,,,,,,,,,,,,,,,,,,,,,,,,,,,,,,,,,,,,,,,,,,,,,,,,,,,,,,,,,,,,,,,,,,,,,,,
,,6,4.9006,6,4.9006,0,12,12,35,1,147,cake,refrigerator,,90229,001,2022-04-29_13h06.13.355,SPAMnetsValid,2021.1.4,Win32,61.54224875,,,,,,,,,,,,,,,,,,,,,,,,,,,,,,,,,,,,,,,,,,,,,,,,,,,,,,,,,,,,,,,,,,,,,,,,,,,,,,,,,,,,,,,,,
,,4,5.7511,4,5.7511,0,13,13,63,1,137,microwave,tree,,90229,001,2022-04-29_13h06.13.355,SPAMnetsValid,2021.1.4,Win32,61.54224875,,,,,,,,,,,,,,,,,,,,,,,,,,,,,,,,,,,,,,,,,,,,,,,,,,,,,,,,,,,,,,,,,,,,,,,,,,,,,,,,,,,,,,,,,
,,6,1.6711,6,1.6711,0,14,14,74,1,128,melon,microwave,,90229,001,2022-04-29_13h06.13.355,SPAMnetsValid,2021.1.4,Win32,61.54224875,,,,,,,,,,,,,,,,,,,,,,,,,,,,,,,,,,,,,,,,,,,,,,,,,,,,,,,,,,,,,,,,,,,,,,,,,,,,,,,,,,,,,,,,,
,,6,1.3547,6,1.3547,0,15,15,79,1,103,pretzel,tomato,,90229,001,2022-04-29_13h06.13.355,SPAMnetsValid,2021.1.4,Win32,61.54224875,,,,,,,,,,,,,,,,,,,,,,,,,,,,,,,,,,,,,,,,,,,,,,,,,,,,,,,,,,,,,,,,,,,,,,,,,,,,,,,,,,,,,,,,,
,,6,1.6928,6,1.6928,0,16,16,61,1,138,flower,rose,,90229,001,2022-04-29_13h06.13.355,SPAMnetsValid,2021.1.4,Win32,61.54224875,,,,,,,,,,,,,,,,,,,,,,,,,,,,,,,,,,,,,,,,,,,,,,,,,,,,,,,,,,,,,,,,,,,,,,,,,,,,,,,,,,,,,,,,,
,,2,1.7666,2,1.7666,0,17,17,64,1,157,refrigerator,rose,,90229,001,2022-04-29_13h06.13.355,SPAMnetsValid,2021.1.4,Win32,61.54224875,,,,,,,,,,,,,,,,,,,,,,,,,,,,,,,,,,,,,,,,,,,,,,,,,,,,,,,,,,,,,,,,,,,,,,,,,,,,,,,,,,,,,,,,,
,,6,1.6375,6,1.6375,0,18,18,51,1,168,cactus,flower,,90229,001,2022-04-29_13h06.13.355,SPAMnetsValid,2021.1.4,Win32,61.54224875,,,,,,,,,,,,,,,,,,,,,,,,,,,,,,,,,,,,,,,,,,,,,,,,,,,,,,,,,,,,,,,,,,,,,,,,,,,,,,,,,,,,,,,,,
,,3,1.5896,3,1.5896,0,19,19,78,1,132,broom,tree,,90229,001,2022-04-29_13h06.13.355,SPAMnetsValid,2021.1.4,Win32,61.54224875,,,,,,,,,,,,,,,,,,,,,,,,,,,,,,,,,,,,,,,,,,,,,,,,,,,,,,,,,,,,,,,,,,,,,,,,,,,,,,,,,,,,,,,,,
,,2,2.1192,2,2.1192,0,20,20,80,1,146,pretzel,tree,,90229,001,2022-04-29_13h06.13.355,SPAMnetsValid,2021.1.4,Win32,61.54224875,,,,,,,,,,,,,,,,,,,,,,,,,,,,,,,,,,,,,,,,,,,,,,,,,,,,,,,,,,,,,,,,,,,,,,,,,,,,,,,,,,,,,,,,,
,,7,10.9473,7,10.9473,0,21,21,33,1,131,cactus,garden,,90229,001,2022-04-29_13h06.13.355,SPAMnetsValid,2021.1.4,Win32,61.54224875,,,,,,,,,,,,,,,,,,,,,,,,,,,,,,,,,,,,,,,,,,,,,,,,,,,,,,,,,,,,,,,,,,,,,,,,,,,,,,,,,,,,,,,,,
,,6,1.8384,6,1.8384,0,22,22,91,1,166,cake,yogurt,,90229,001,2022-04-29_13h06.13.355,SPAMnetsValid,2021.1.4,Win32,61.54224875,,,,,,,,,,,,,,,,,,,,,,,,,,,,,,,,,,,,,,,,,,,,,,,,,,,,,,,,,,,,,,,,,,,,,,,,,,,,,,,,,,,,,,,,,
,,2,1.6875,2,1.6875,0,23,23,58,1,144,cake,garden,,90229,001,2022-04-29_13h06.13.355,SPAMnetsValid,2021.1.4,Win32,61.54224875,,,,,,,,,,,,,,,,,,,,,,,,,,,,,,,,,,,,,,,,,,,,,,,,,,,,,,,,,,,,,,,,,,,,,,,,,,,,,,,,,,,,,,,,,
,,1,1.6867,1,1.6867,0,24,24,68,1,180,tree,yogurt,,90229,001,2022-04-29_13h06.13.355,SPAMnetsValid,2021.1.4,Win32,61.54224875,,,,,,,,,,,,,,,,,,,,,,,,,,,,,,,,,,,,,,,,,,,,,,,,,,,,,,,,,,,,,,,,,,,,,,,,,,,,,,,,,,,,,,,,,
,,6,3.0195,6,3.0195,0,25,25,30,1,125,carrot,tree,,90229,001,2022-04-29_13h06.13.355,SPAMnetsValid,2021.1.4,Win32,61.54224875,,,,,,,,,,,,,,,,,,,,,,,,,,,,,,,,,,,,,,,,,,,,,,,,,,,,,,,,,,,,,,,,,,,,,,,,,,,,,,,,,,,,,,,,,
,,9,1.6868,9,1.6868,0,26,26,25,1,194,cactus,cactus,CHECK,90229,001,2022-04-29_13h06.13.355,SPAMnetsValid,2021.1.4,Win32,61.54224875,,,,,,,,,,,,,,,,,,,,,,,,,,,,,,,,,,,,,,,,,,,,,,,,,,,,,,,,,,,,,,,,,,,,,,,,,,,,,,,,,,,,,,,,,
,,2,2.4029,2,2.4029,0,27,27,13,1,105,cactus,oven,,90229,001,2022-04-29_13h06.13.355,SPAMnetsValid,2021.1.4,Win32,61.54224875,,,,,,,,,,,,,,,,,,,,,,,,,,,,,,,,,,,,,,,,,,,,,,,,,,,,,,,,,,,,,,,,,,,,,,,,,,,,,,,,,,,,,,,,,
,,4,1.6873,4,1.6873,0,28,28,49,1,152,cactus,strawberry,,90229,001,2022-04-29_13h06.13.355,SPAMnetsValid,2021.1.4,Win32,61.54224875,,,,,,,,,,,,,,,,,,,,,,,,,,,,,,,,,,,,,,,,,,,,,,,,,,,,,,,,,,,,,,,,,,,,,,,,,,,,,,,,,,,,,,,,,
,,4,1.5256,4,1.5256,0,29,29,94,1,133,cake,flower,,90229,001,2022-04-29_13h06.13.355,SPAMnetsValid,2021.1.4,Win32,61.54224875,,,,,,,,,,,,,,,,,,,,,,,,,,,,,,,,,,,,,,,,,,,,,,,,,,,,,,,,,,,,,,,,,,,,,,,,,,,,,,,,,,,,,,,,,
,,4,3.2812,4,3.2812,0,30,30,90,1,190,microwave,strawberry,,90229,001,2022-04-29_13h06.13.355,SPAMnetsValid,2021.1.4,Win32,61.54224875,,,,,,,,,,,,,,,,,,,,,,,,,,,,,,,,,,,,,,,,,,,,,,,,,,,,,,,,,,,,,,,,,,,,,,,,,,,,,,,,,,,,,,,,,
,,6,5.6032,6,5.6032,0,31,31,2,1,174,cake,pretzel,,90229,001,2022-04-29_13h06.13.355,SPAMnetsValid,2021.1.4,Win32,61.54224875,,,,,,,,,,,,,,,,,,,,,,,,,,,,,,,,,,,,,,,,,,,,,,,,,,,,,,,,,,,,,,,,,,,,,,,,,,,,,,,,,,,,,,,,,
,,2,87.6327,2,87.6327,0,32,32,16,1,111,carrot,microwave,,90229,001,2022-04-29_13h06.13.355,SPAMnetsValid,2021.1.4,Win32,61.54224875,,,,,,,,,,,,,,,,,,,,,,,,,,,,,,,,,,,,,,,,,,,,,,,,,,,,,,,,,,,,,,,,,,,,,,,,,,,,,,,,,,,,,,,,,
,,2,1.687,2,1.687,0,33,33,4,1,109,broom,strawberry,,90229,001,2022-04-29_13h06.13.355,SPAMnetsValid,2021.1.4,Win32,61.54224875,,,,,,,,,,,,,,,,,,,,,,,,,,,,,,,,,,,,,,,,,,,,,,,,,,,,,,,,,,,,,,,,,,,,,,,,,,,,,,,,,,,,,,,,,
,,6,1.7705,6,1.7705,0,34,34,29,1,163,melon,refrigerator,,90229,001,2022-04-29_13h06.13.355,SPAMnetsValid,2021.1.4,Win32,61.54224875,,,,,,,,,,,,,,,,,,,,,,,,,,,,,,,,,,,,,,,,,,,,,,,,,,,,,,,,,,,,,,,,,,,,,,,,,,,,,,,,,,,,,,,,,
,,4,1.8745,4,1.8745,0,35,35,24,1,169,onion,yogurt,,90229,001,2022-04-29_13h06.13.355,SPAMnetsValid,2021.1.4,Win32,61.54224875,,,,,,,,,,,,,,,,,,,,,,,,,,,,,,,,,,,,,,,,,,,,,,,,,,,,,,,,,,,,,,,,,,,,,,,,,,,,,,,,,,,,,,,,,
,,6,1.7435,6,1.7435,0,36,36,8,1,97,chocolate,kitchen,,90229,001,2022-04-29_13h06.13.355,SPAMnetsValid,2021.1.4,Win32,61.54224875,,,,,,,,,,,,,,,,,,,,,,,,,,,,,,,,,,,,,,,,,,,,,,,,,,,,,,,,,,,,,,,,,,,,,,,,,,,,,,,,,,,,,,,,,
,,6,3.3923,6,3.3923,0,37,37,31,1,156,melon,rose,,90229,001,2022-04-29_13h06.13.355,SPAMnetsValid,2021.1.4,Win32,61.54224875,,,,,,,,,,,,,,,,,,,,,,,,,,,,,,,,,,,,,,,,,,,,,,,,,,,,,,,,,,,,,,,,,,,,,,,,,,,,,,,,,,,,,,,,,
,,8,2.0888,8,2.0888,0,38,38,14,1,120,microwave,oven,,90229,001,2022-04-29_13h06.13.355,SPAMnetsValid,2021.1.4,Win32,61.54224875,,,,,,,,,,,,,,,,,,,,,,,,,,,,,,,,,,,,,,,,,,,,,,,,,,,,,,,,,,,,,,,,,,,,,,,,,,,,,,,,,,,,,,,,,
,,2,1.5718,2,1.5718,0,39,39,81,1,104,garden,microwave,,90229,001,2022-04-29_13h06.13.355,SPAMnetsValid,2021.1.4,Win32,61.54224875,,,,,,,,,,,,,,,,,,,,,,,,,,,,,,,,,,,,,,,,,,,,,,,,,,,,,,,,,,,,,,,,,,,,,,,,,,,,,,,,,,,,,,,,,
,,3,3.5717,3,3.5717,0,40,40,12,1,162,microwave,tomato,,90229,001,2022-04-29_13h06.13.355,SPAMnetsValid,2021.1.4,Win32,61.54224875,,,,,,,,,,,,,,,,,,,,,,,,,,,,,,,,,,,,,,,,,,,,,,,,,,,,,,,,,,,,,,,,,,,,,,,,,,,,,,,,,,,,,,,,,
,,2,1.5759,2,1.5759,0,41,41,20,1,149,broom,tomato,,90229,001,2022-04-29_13h06.13.355,SPAMnetsValid,2021.1.4,Win32,61.54224875,,,,,,,,,,,,,,,,,,,,,,,,,,,,,,,,,,,,,,,,,,,,,,,,,,,,,,,,,,,,,,,,,,,,,,,,,,,,,,,,,,,,,,,,,
,,7,2.8251,7,2.8251,0,42,42,43,1,185,cactus,rose,,90229,001,2022-04-29_13h06.13.355,SPAMnetsValid,2021.1.4,Win32,61.54224875,,,,,,,,,,,,,,,,,,,,,,,,,,,,,,,,,,,,,,,,,,,,,,,,,,,,,,,,,,,,,,,,,,,,,,,,,,,,,,,,,,,,,,,,,
,,8,2.8292,8,2.8292,0,43,43,69,1,124,oven,refrigerator,,90229,001,2022-04-29_13h06.13.355,SPAMnetsValid,2021.1.4,Win32,61.54224875,,,,,,,,,,,,,,,,,,,,,,,,,,,,,,,,,,,,,,,,,,,,,,,,,,,,,,,,,,,,,,,,,,,,,,,,,,,,,,,,,,,,,,,,,
,,6,2.5566,6,2.5566,0,44,44,5,1,108,carrot,chocolate,,90229,001,2022-04-29_13h06.13.355,SPAMnetsValid,2021.1.4,Win32,61.54224875,,,,,,,,,,,,,,,,,,,,,,,,,,,,,,,,,,,,,,,,,,,,,,,,,,,,,,,,,,,,,,,,,,,,,,,,,,,,,,,,,,,,,,,,,
,,8,2.409,8,2.409,0,45,45,53,1,177,chocolate,strawberry,,90229,001,2022-04-29_13h06.13.355,SPAMnetsValid,2021.1.4,Win32,61.54224875,,,,,,,,,,,,,,,,,,,,,,,,,,,,,,,,,,,,,,,,,,,,,,,,,,,,,,,,,,,,,,,,,,,,,,,,,,,,,,,,,,,,,,,,,
,,8,2.6509,8,2.6509,0,46,46,66,1,150,microwave,refrigerator,,90229,001,2022-04-29_13h06.13.355,SPAMnetsValid,2021.1.4,Win32,61.54224875,,,,,,,,,,,,,,,,,,,,,,,,,,,,,,,,,,,,,,,,,,,,,,,,,,,,,,,,,,,,,,,,,,,,,,,,,,,,,,,,,,,,,,,,,
,,6,1.8935,6,1.8935,0,47,47,38,1,155,carrot,cookie,,90229,001,2022-04-29_13h06.13.355,SPAMnetsValid,2021.1.4,Win32,61.54224875,,,,,,,,,,,,,,,,,,,,,,,,,,,,,,,,,,,,,,,,,,,,,,,,,,,,,,,,,,,,,,,,,,,,,,,,,,,,,,,,,,,,,,,,,
,,8,1.8559,8,1.8559,0,48,48,60,1,122,flower,garden,,90229,001,2022-04-29_13h06.13.355,SPAMnetsValid,2021.1.4,Win32,61.54224875,,,,,,,,,,,,,,,,,,,,,,,,,,,,,,,,,,,,,,,,,,,,,,,,,,,,,,,,,,,,,,,,,,,,,,,,,,,,,,,,,,,,,,,,,
,,2,5.2946,2,5.2946,0,49,49,3,1,129,cactus,refrigerator,,90229,001,2022-04-29_13h06.13.355,SPAMnetsValid,2021.1.4,Win32,61.54224875,,,,,,,,,,,,,,,,,,,,,,,,,,,,,,,,,,,,,,,,,,,,,,,,,,,,,,,,,,,,,,,,,,,,,,,,,,,,,,,,,,,,,,,,,
,,6,1.8299,6,1.8299,0,50,50,96,1,136,chocolate,microwave,,90229,001,2022-04-29_13h06.13.355,SPAMnetsValid,2021.1.4,Win32,61.54224875,,,,,,,,,,,,,,,,,,,,,,,,,,,,,,,,,,,,,,,,,,,,,,,,,,,,,,,,,,,,,,,,,,,,,,,,,,,,,,,,,,,,,,,,,
,,6,1.608,6,1.608,0,51,51,85,1,115,refrigerator,tomato,,90229,001,2022-04-29_13h06.13.355,SPAMnetsValid,2021.1.4,Win32,61.54224875,,,,,,,,,,,,,,,,,,,,,,,,,,,,,,,,,,,,,,,,,,,,,,,,,,,,,,,,,,,,,,,,,,,,,,,,,,,,,,,,,,,,,,,,,
,,6,1.5735,6,1.5735,0,52,52,11,1,117,melon,strawberry,,90229,001,2022-04-29_13h06.13.355,SPAMnetsValid,2021.1.4,Win32,61.54224875,,,,,,,,,,,,,,,,,,,,,,,,,,,,,,,,,,,,,,,,,,,,,,,,,,,,,,,,,,,,,,,,,,,,,,,,,,,,,,,,,,,,,,,,,
,,2,2.0983,2,2.0983,0,53,53,77,1,172,kitchen,melon,,90229,001,2022-04-29_13h06.13.355,SPAMnetsValid,2021.1.4,Win32,61.54224875,,,,,,,,,,,,,,,,,,,,,,,,,,,,,,,,,,,,,,,,,,,,,,,,,,,,,,,,,,,,,,,,,,,,,,,,,,,,,,,,,,,,,,,,,
,,2,1.8226,2,1.8226,0,54,54,50,1,126,kitchen,tree,,90229,001,2022-04-29_13h06.13.355,SPAMnetsValid,2021.1.4,Win32,61.54224875,,,,,,,,,,,,,,,,,,,,,,,,,,,,,,,,,,,,,,,,,,,,,,,,,,,,,,,,,,,,,,,,,,,,,,,,,,,,,,,,,,,,,,,,,
,,2,2.0823,2,2.0823,0,55,55,46,1,123,cookie,tree,,90229,001,2022-04-29_13h06.13.355,SPAMnetsValid,2021.1.4,Win32,61.54224875,,,,,,,,,,,,,,,,,,,,,,,,,,,,,,,,,,,,,,,,,,,,,,,,,,,,,,,,,,,,,,,,,,,,,,,,,,,,,,,,,,,,,,,,,
,,6,2.3226,6,2.3226,0,56,56,56,1,113,refrigerator,strawberry,,90229,001,2022-04-29_13h06.13.355,SPAMnetsValid,2021.1.4,Win32,61.54224875,,,,,,,,,,,,,,,,,,,,,,,,,,,,,,,,,,,,,,,,,,,,,,,,,,,,,,,,,,,,,,,,,,,,,,,,,,,,,,,,,,,,,,,,,
,,3,2.6265,3,2.6265,0,57,57,67,1,96,oven,strawberry,,90229,001,2022-04-29_13h06.13.355,SPAMnetsValid,2021.1.4,Win32,61.54224875,,,,,,,,,,,,,,,,,,,,,,,,,,,,,,,,,,,,,,,,,,,,,,,,,,,,,,,,,,,,,,,,,,,,,,,,,,,,,,,,,,,,,,,,,
,,8,2.0555,8,2.0555,0,58,58,83,1,100,garden,tomato,,90229,001,2022-04-29_13h06.13.355,SPAMnetsValid,2021.1.4,Win32,61.54224875,,,,,,,,,,,,,,,,,,,,,,,,,,,,,,,,,,,,,,,,,,,,,,,,,,,,,,,,,,,,,,,,,,,,,,,,,,,,,,,,,,,,,,,,,
,,8,1.5899,8,1.5899,0,59,59,47,1,167,carrot,garden,,90229,001,2022-04-29_13h06.13.355,SPAMnetsValid,2021.1.4,Win32,61.54224875,,,,,,,,,,,,,,,,,,,,,,,,,,,,,,,,,,,,,,,,,,,,,,,,,,,,,,,,,,,,,,,,,,,,,,,,,,,,,,,,,,,,,,,,,
,,8,2.0578,8,2.0578,0,60,60,44,1,116,cake,chocolate,,90229,001,2022-04-29_13h06.13.355,SPAMnetsValid,2021.1.4,Win32,61.54224875,,,,,,,,,,,,,,,,,,,,,,,,,,,,,,,,,,,,,,,,,,,,,,,,,,,,,,,,,,,,,,,,,,,,,,,,,,,,,,,,,,,,,,,,,
,,7,4.3915,7,4.3915,0,61,61,41,1,175,melon,onion,,90229,001,2022-04-29_13h06.13.355,SPAMnetsValid,2021.1.4,Win32,61.54224875,,,,,,,,,,,,,,,,,,,,,,,,,,,,,,,,,,,,,,,,,,,,,,,,,,,,,,,,,,,,,,,,,,,,,,,,,,,,,,,,,,,,,,,,,
,,6,4.5086,6,4.5086,0,62,62,42,1,184,oven,pretzel,,90229,001,2022-04-29_13h06.13.355,SPAMnetsValid,2021.1.4,Win32,61.54224875,,,,,,,,,,,,,,,,,,,,,,,,,,,,,,,,,,,,,,,,,,,,,,,,,,,,,,,,,,,,,,,,,,,,,,,,,,,,,,,,,,,,,,,,,
,,8,1.8489,8,1.8489,0,63,63,9,1,176,cactus,tomato,,90229,001,2022-04-29_13h06.13.355,SPAMnetsValid,2021.1.4,Win32,61.54224875,,,,,,,,,,,,,,,,,,,,,,,,,,,,,,,,,,,,,,,,,,,,,,,,,,,,,,,,,,,,,,,,,,,,,,,,,,,,,,,,,,,,,,,,,
,,6,1.8157,6,1.8157,0,64,64,62,1,189,onion,tree,,90229,001,2022-04-29_13h06.13.355,SPAMnetsValid,2021.1.4,Win32,61.54224875,,,,,,,,,,,,,,,,,,,,,,,,,,,,,,,,,,,,,,,,,,,,,,,,,,,,,,,,,,,,,,,,,,,,,,,,,,,,,,,,,,,,,,,,,
,,8,3.274,8,3.274,0,65,65,52,1,110,chocolate,cookie,,90229,001,2022-04-29_13h06.13.355,SPAMnetsValid,2021.1.4,Win32,61.54224875,,,,,,,,,,,,,,,,,,,,,,,,,,,,,,,,,,,,,,,,,,,,,,,,,,,,,,,,,,,,,,,,,,,,,,,,,,,,,,,,,,,,,,,,,
,,7,4.3359,7,4.3359,0,66,66,92,1,170,cookie,microwave,,90229,001,2022-04-29_13h06.13.355,SPAMnetsValid,2021.1.4,Win32,61.54224875,,,,,,,,,,,,,,,,,,,,,,,,,,,,,,,,,,,,,,,,,,,,,,,,,,,,,,,,,,,,,,,,,,,,,,,,,,,,,,,,,,,,,,,,,
,,7,2.3148,7,2.3148,0,67,67,75,1,178,cactus,carrot,,90229,001,2022-04-29_13h06.13.355,SPAMnetsValid,2021.1.4,Win32,61.54224875,,,,,,,,,,,,,,,,,,,,,,,,,,,,,,,,,,,,,,,,,,,,,,,,,,,,,,,,,,,,,,,,,,,,,,,,,,,,,,,,,,,,,,,,,
,,2,2.4594,2,2.4594,0,68,68,73,1,135,carrot,oven,,90229,001,2022-04-29_13h06.13.355,SPAMnetsValid,2021.1.4,Win32,61.54224875,,,,,,,,,,,,,,,,,,,,,,,,,,,,,,,,,,,,,,,,,,,,,,,,,,,,,,,,,,,,,,,,,,,,,,,,,,,,,,,,,,,,,,,,,
,,6,1.4919,6,1.4919,0,69,69,88,1,171,cake,tomato,,90229,001,2022-04-29_13h06.13.355,SPAMnetsValid,2021.1.4,Win32,61.54224875,,,,,,,,,,,,,,,,,,,,,,,,,,,,,,,,,,,,,,,,,,,,,,,,,,,,,,,,,,,,,,,,,,,,,,,,,,,,,,,,,,,,,,,,,
,,1,4.2892,1,4.2892,0,70,70,54,1,101,cactus,kitchen,,90229,001,2022-04-29_13h06.13.355,SPAMnetsValid,2021.1.4,Win32,61.54224875,,,,,,,,,,,,,,,,,,,,,,,,,,,,,,,,,,,,,,,,,,,,,,,,,,,,,,,,,,,,,,,,,,,,,,,,,,,,,,,,,,,,,,,,,
,,7,60.0119,7,60.0119,0,71,71,37,1,139,carrot,strawberry,,90229,001,2022-04-29_13h06.13.355,SPAMnetsValid,2021.1.4,Win32,61.54224875,,,,,,,,,,,,,,,,,,,,,,,,,,,,,,,,,,,,,,,,,,,,,,,,,,,,,,,,,,,,,,,,,,,,,,,,,,,,,,,,,,,,,,,,,
,,6,3.1,6,3.1,0,72,72,19,1,183,cake,rose,,90229,001,2022-04-29_13h06.13.355,SPAMnetsValid,2021.1.4,Win32,61.54224875,,,,,,,,,,,,,,,,,,,,,,,,,,,,,,,,,,,,,,,,,,,,,,,,,,,,,,,,,,,,,,,,,,,,,,,,,,,,,,,,,,,,,,,,,
,,6,1.2838,6,1.2838,0,73,73,40,1,165,onion,rose,,90229,001,2022-04-29_13h06.13.355,SPAMnetsValid,2021.1.4,Win32,61.54224875,,,,,,,,,,,,,,,,,,,,,,,,,,,,,,,,,,,,,,,,,,,,,,,,,,,,,,,,,,,,,,,,,,,,,,,,,,,,,,,,,,,,,,,,,
,,6,1.4477,6,1.4477,0,74,74,48,1,186,kitchen,yogurt,,90229,001,2022-04-29_13h06.13.355,SPAMnetsValid,2021.1.4,Win32,61.54224875,,,,,,,,,,,,,,,,,,,,,,,,,,,,,,,,,,,,,,,,,,,,,,,,,,,,,,,,,,,,,,,,,,,,,,,,,,,,,,,,,,,,,,,,,
,,7,1.479,7,1.479,0,75,75,28,1,154,strawberry,yogurt,,90229,001,2022-04-29_13h06.13.355,SPAMnetsValid,2021.1.4,Win32,61.54224875,,,,,,,,,,,,,,,,,,,,,,,,,,,,,,,,,,,,,,,,,,,,,,,,,,,,,,,,,,,,,,,,,,,,,,,,,,,,,,,,,,,,,,,,,
,,3,1.719,3,1.719,0,76,76,84,1,130,microwave,yogurt,,90229,001,2022-04-29_13h06.13.355,SPAMnetsValid,2021.1.4,Win32,61.54224875,,,,,,,,,,,,,,,,,,,,,,,,,,,,,,,,,,,,,,,,,,,,,,,,,,,,,,,,,,,,,,,,,,,,,,,,,,,,,,,,,,,,,,,,,
,,3,2.211,3,2.211,0,77,77,32,1,182,flower,refrigerator,,90229,001,2022-04-29_13h06.13.355,SPAMnetsValid,2021.1.4,Win32,61.54224875,,,,,,,,,,,,,,,,,,,,,,,,,,,,,,,,,,,,,,,,,,,,,,,,,,,,,,,,,,,,,,,,,,,,,,,,,,,,,,,,,,,,,,,,,
,,2,1.5583,2,1.5583,0,78,78,55,1,143,pretzel,rose,,90229,001,2022-04-29_13h06.13.355,SPAMnetsValid,2021.1.4,Win32,61.54224875,,,,,,,,,,,,,,,,,,,,,,,,,,,,,,,,,,,,,,,,,,,,,,,,,,,,,,,,,,,,,,,,,,,,,,,,,,,,,,,,,,,,,,,,,
,,9,1.7845,9,1.7845,0,79,79,86,1,193,melon,melon,CHECK,90229,001,2022-04-29_13h06.13.355,SPAMnetsValid,2021.1.4,Win32,61.54224875,,,,,,,,,,,,,,,,,,,,,,,,,,,,,,,,,,,,,,,,,,,,,,,,,,,,,,,,,,,,,,,,,,,,,,,,,,,,,,,,,,,,,,,,,
,,6,1.6452,6,1.6452,0,80,80,89,1,140,cookie,refrigerator,,90229,001,2022-04-29_13h06.13.355,SPAMnetsValid,2021.1.4,Win32,61.54224875,,,,,,,,,,,,,,,,,,,,,,,,,,,,,,,,,,,,,,,,,,,,,,,,,,,,,,,,,,,,,,,,,,,,,,,,,,,,,,,,,,,,,,,,,
,,6,1.3336,6,1.3336,0,81,81,23,1,148,flower,melon,,90229,001,2022-04-29_13h06.13.355,SPAMnetsValid,2021.1.4,Win32,61.54224875,,,,,,,,,,,,,,,,,,,,,,,,,,,,,,,,,,,,,,,,,,,,,,,,,,,,,,,,,,,,,,,,,,,,,,,,,,,,,,,,,,,,,,,,,
,,4,1.6252,4,1.6252,0,82,82,21,1,159,cookie,flower,,90229,001,2022-04-29_13h06.13.355,SPAMnetsValid,2021.1.4,Win32,61.54224875,,,,,,,,,,,,,,,,,,,,,,,,,,,,,,,,,,,,,,,,,,,,,,,,,,,,,,,,,,,,,,,,,,,,,,,,,,,,,,,,,,,,,,,,,
,,6,6.909,6,6.909,0,83,83,34,1,153,carrot,pretzel,,90229,001,2022-04-29_13h06.13.355,SPAMnetsValid,2021.1.4,Win32,61.54224875,,,,,,,,,,,,,,,,,,,,,,,,,,,,,,,,,,,,,,,,,,,,,,,,,,,,,,,,,,,,,,,,,,,,,,,,,,,,,,,,,,,,,,,,,
,,2,1.7643,2,1.7643,0,84,84,95,1,121,broom,microwave,,90229,001,2022-04-29_13h06.13.355,SPAMnetsValid,2021.1.4,Win32,61.54224875,,,,,,,,,,,,,,,,,,,,,,,,,,,,,,,,,,,,,,,,,,,,,,,,,,,,,,,,,,,,,,,,,,,,,,,,,,,,,,,,,,,,,,,,,
,,3,2.1192,3,2.1192,0,85,85,6,1,151,microwave,onion,,90229,001,2022-04-29_13h06.13.355,SPAMnetsValid,2021.1.4,Win32,61.54224875,,,,,,,,,,,,,,,,,,,,,,,,,,,,,,,,,,,,,,,,,,,,,,,,,,,,,,,,,,,,,,,,,,,,,,,,,,,,,,,,,,,,,,,,,
,,6,2.0095,6,2.0095,0,86,86,18,1,119,strawberry,tree,,90229,001,2022-04-29_13h06.13.355,SPAMnetsValid,2021.1.4,Win32,61.54224875,,,,,,,,,,,,,,,,,,,,,,,,,,,,,,,,,,,,,,,,,,,,,,,,,,,,,,,,,,,,,,,,,,,,,,,,,,,,,,,,,,,,,,,,,
,,3,1.4974,3,1.4974,0,87,87,57,1,127,cactus,chocolate,,90229,001,2022-04-29_13h06.13.355,SPAMnetsValid,2021.1.4,Win32,61.54224875,,,,,,,,,,,,,,,,,,,,,,,,,,,,,,,,,,,,,,,,,,,,,,,,,,,,,,,,,,,,,,,,,,,,,,,,,,,,,,,,,,,,,,,,,
,,7,6.9724,7,6.9724,0,88,88,17,1,99,garden,melon,,90229,001,2022-04-29_13h06.13.355,SPAMnetsValid,2021.1.4,Win32,61.54224875,,,,,,,,,,,,,,,,,,,,,,,,,,,,,,,,,,,,,,,,,,,,,,,,,,,,,,,,,,,,,,,,,,,,,,,,,,,,,,,,,,,,,,,,,
,,6,8.8522,6,8.8522,0,89,89,1,1,173,kitchen,tomato,,90229,001,2022-04-29_13h06.13.355,SPAMnetsValid,2021.1.4,Win32,61.54224875,,,,,,,,,,,,,,,,,,,,,,,,,,,,,,,,,,,,,,,,,,,,,,,,,,,,,,,,,,,,,,,,,,,,,,,,,,,,,,,,,,,,,,,,,
,,6,1.8744,6,1.8744,0,90,90,70,1,141,melon,tomato,,90229,001,2022-04-29_13h06.13.355,SPAMnetsValid,2021.1.4,Win32,61.54224875,,,,,,,,,,,,,,,,,,,,,,,,,,,,,,,,,,,,,,,,,,,,,,,,,,,,,,,,,,,,,,,,,,,,,,,,,,,,,,,,,,,,,,,,,
,,3,2.508,3,2.508,0,91,91,82,1,98,pretzel,strawberry,,90229,001,2022-04-29_13h06.13.355,SPAMnetsValid,2021.1.4,Win32,61.54224875,,,,,,,,,,,,,,,,,,,,,,,,,,,,,,,,,,,,,,,,,,,,,,,,,,,,,,,,,,,,,,,,,,,,,,,,,,,,,,,,,,,,,,,,,
,,7,1.6458,7,1.6458,0,92,92,7,1,188,flower,tree,,90229,001,2022-04-29_13h06.13.355,SPAMnetsValid,2021.1.4,Win32,61.54224875,,,,,,,,,,,,,,,,,,,,,,,,,,,,,,,,,,,,,,,,,,,,,,,,,,,,,,,,,,,,,,,,,,,,,,,,,,,,,,,,,,,,,,,,,
,,6,1.739,6,1.739,0,93,93,72,1,181,carrot,kitchen,,90229,001,2022-04-29_13h06.13.355,SPAMnetsValid,2021.1.4,Win32,61.54224875,,,,,,,,,,,,,,,,,,,,,,,,,,,,,,,,,,,,,,,,,,,,,,,,,,,,,,,,,,,,,,,,,,,,,,,,,,,,,,,,,,,,,,,,,
,,1,1.4319,1,1.4319,0,94,94,15,1,145,cactus,yogurt,,90229,001,2022-04-29_13h06.13.355,SPAMnetsValid,2021.1.4,Win32,61.54224875,,,,,,,,,,,,,,,,,,,,,,,,,,,,,,,,,,,,,,,,,,,,,,,,,,,,,,,,,,,,,,,,,,,,,,,,,,,,,,,,,,,,,,,,,
,,6,3.2509,6,3.2509,0,95,95,10,1,118,chocolate,oven,,90229,001,2022-04-29_13h06.13.355,SPAMnetsValid,2021.1.4,Win32,61.54224875,,,,,,,,,,,,,,,,,,,,,,,,,,,,,,,,,,,,,,,,,,,,,,,,,,,,,,,,,,,,,,,,,,,,,,,,,,,,,,,,,,,,,,,,,
,,6,1.4967,6,1.4967,0,96,96,36,1,161,kitchen,pretzel,,90229,001,2022-04-29_13h06.13.355,SPAMnetsValid,2021.1.4,Win32,61.54224875,,,,,,,,,,,,,,,,,,,,,,,,,,,,,,,,,,,,,,,,,,,,,,,,,,,,,,,,,,,,,,,,,,,,,,,,,,,,,,,,,,,,,,,,,
,,,,,,,,,,,,,,,90229,001,2022-04-29_13h06.13.355,SPAMnetsValid,2021.1.4,Win32,61.54224875,0,0,0,0,1,,,,,,,,,,,,,,,,,,,,,,,,,,,,,,,,,,,,,,,,,,,,,,,,,,,,,,,,,,,,,,,,,,,,,,,,,,,,,,,,,,,,
,,,,,,,,,,,,,,,90229,001,2022-04-29_13h06.13.355,SPAMnetsValid,2021.1.4,Win32,61.54224875,,,,,,0,0,0,1,1,0,1,,,,,,,,,,,,,,,,,,,,,,,,,,,,,,,,,,,,,,,,,,,,,,,,,,,,,,,,,,,,,,,,,,,,,,,,,,,,,
,,,,2,31.4964,,,,,,23,flower,microwave,,90229,001,2022-04-29_13h06.13.355,SPAMnetsValid,2021.1.4,Win32,61.54224875,,,,,,,,,,,,,2,31.4964,0,0,0,25,1,,,,,,,,,,,,,,,,,,,,,,,,,,,,,,,,,,,,,,,,,,,,,,,,,,,,,,,,,,,,,,,,,,,,,,
,,,,2,1.013,,,,,,40,broom,cake,,90229,001,2022-04-29_13h06.13.355,SPAMnetsValid,2021.1.4,Win32,61.54224875,,,,,,,,,,,,,2,1.013,0,1,1,32,1,,,,,,,,,,,,,,,,,,,,,,,,,,,,,,,,,,,,,,,,,,,,,,,,,,,,,,,,,,,,,,,,,,,,,,
,,,,3,2.0566,,,,,,64,chocolate,garden,,90229,001,2022-04-29_13h06.13.355,SPAMnetsValid,2021.1.4,Win32,61.54224875,,,,,,,,,,,,,3,2.0566,0,2,2,14,1,,,,,,,,,,,,,,,,,,,,,,,,,,,,,,,,,,,,,,,,,,,,,,,,,,,,,,,,,,,,,,,,,,,,,,
,,,,6,1.5427,,,,,,30,cookie,pretzel,,90229,001,2022-04-29_13h06.13.355,SPAMnetsValid,2021.1.4,Win32,61.54224875,,,,,,,,,,,,,6,1.5427,0,3,3,78,1,,,,,,,,,,,,,,,,,,,,,,,,,,,,,,,,,,,,,,,,,,,,,,,,,,,,,,,,,,,,,,,,,,,,,,
,,,,3,1.332,,,,,,67,flower,yogurt,,90229,001,2022-04-29_13h06.13.355,SPAMnetsValid,2021.1.4,Win32,61.54224875,,,,,,,,,,,,,3,1.332,0,4,4,12,1,,,,,,,,,,,,,,,,,,,,,,,,,,,,,,,,,,,,,,,,,,,,,,,,,,,,,,,,,,,,,,,,,,,,,,
,,,,8,1.4576,,,,,,3,cake,oven,,90229,001,2022-04-29_13h06.13.355,SPAMnetsValid,2021.1.4,Win32,61.54224875,,,,,,,,,,,,,8,1.4576,0,5,5,30,1,,,,,,,,,,,,,,,,,,,,,,,,,,,,,,,,,,,,,,,,,,,,,,,,,,,,,,,,,,,,,,,,,,,,,,
,,,,4,2.3551,,,,,,1,rose,yogurt,,90229,001,2022-04-29_13h06.13.355,SPAMnetsValid,2021.1.4,Win32,61.54224875,,,,,,,,,,,,,4,2.3551,0,6,6,55,1,,,,,,,,,,,,,,,,,,,,,,,,,,,,,,,,,,,,,,,,,,,,,,,,,,,,,,,,,,,,,,,,,,,,,,
,,,,6,1.922,,,,,,36,broom,kitchen,,90229,001,2022-04-29_13h06.13.355,SPAMnetsValid,2021.1.4,Win32,61.54224875,,,,,,,,,,,,,6,1.922,0,7,7,76,1,,,,,,,,,,,,,,,,,,,,,,,,,,,,,,,,,,,,,,,,,,,,,,,,,,,,,,,,,,,,,,,,,,,,,,
,,,,6,1.3475,,,,,,61,strawberry,tomato,,90229,001,2022-04-29_13h06.13.355,SPAMnetsValid,2021.1.4,Win32,61.54224875,,,,,,,,,,,,,6,1.3475,0,8,8,80,1,,,,,,,,,,,,,,,,,,,,,,,,,,,,,,,,,,,,,,,,,,,,,,,,,,,,,,,,,,,,,,,,,,,,,,
,,,,6,1.8071,,,,,,32,cake,microwave,,90229,001,2022-04-29_13h06.13.355,SPAMnetsValid,2021.1.4,Win32,61.54224875,,,,,,,,,,,,,6,1.8071,0,9,9,33,1,,,,,,,,,,,,,,,,,,,,,,,,,,,,,,,,,,,,,,,,,,,,,,,,,,,,,,,,,,,,,,,,,,,,,,
,,,,2,4.1055,,,,,,48,flower,oven,,90229,001,2022-04-29_13h06.13.355,SPAMnetsValid,2021.1.4,Win32,61.54224875,,,,,,,,,,,,,2,4.1055,0,10,10,15,1,,,,,,,,,,,,,,,,,,,,,,,,,,,,,,,,,,,,,,,,,,,,,,,,,,,,,,,,,,,,,,,,,,,,,,
,,,,2,1.5895,,,,,,46,garden,yogurt,,90229,001,2022-04-29_13h06.13.355,SPAMnetsValid,2021.1.4,Win32,61.54224875,,,,,,,,,,,,,2,1.5895,0,11,11,65,1,,,,,,,,,,,,,,,,,,,,,,,,,,,,,,,,,,,,,,,,,,,,,,,,,,,,,,,,,,,,,,,,,,,,,,
,,,,7,2.0553,,,,,,77,refrigerator,yogurt,,90229,001,2022-04-29_13h06.13.355,SPAMnetsValid,2021.1.4,Win32,61.54224875,,,,,,,,,,,,,7,2.0553,0,12,12,42,1,,,,,,,,,,,,,,,,,,,,,,,,,,,,,,,,,,,,,,,,,,,,,,,,,,,,,,,,,,,,,,,,,,,,,,
,,,,2,2.0069,,,,,,8,broom,melon,,90229,001,2022-04-29_13h06.13.355,SPAMnetsValid,2021.1.4,Win32,61.54224875,,,,,,,,,,,,,2,2.0069,0,13,13,59,1,,,,,,,,,,,,,,,,,,,,,,,,,,,,,,,,,,,,,,,,,,,,,,,,,,,,,,,,,,,,,,,,,,,,,,
,,,,4,2.0232,,,,,,75,cookie,onion,,90229,001,2022-04-29_13h06.13.355,SPAMnetsValid,2021.1.4,Win32,61.54224875,,,,,,,,,,,,,4,2.0232,0,14,14,9,1,,,,,,,,,,,,,,,,,,,,,,,,,,,,,,,,,,,,,,,,,,,,,,,,,,,,,,,,,,,,,,,,,,,,,,
,,,,2,2.0476,,,,,,34,melon,oven,,90229,001,2022-04-29_13h06.13.355,SPAMnetsValid,2021.1.4,Win32,61.54224875,,,,,,,,,,,,,2,2.0476,0,15,15,7,1,,,,,,,,,,,,,,,,,,,,,,,,,,,,,,,,,,,,,,,,,,,,,,,,,,,,,,,,,,,,,,,,,,,,,,
,,,,6,97.0644,,,,,,51,onion,strawberry,,90229,001,2022-04-29_13h06.13.355,SPAMnetsValid,2021.1.4,Win32,61.54224875,,,,,,,,,,,,,6,97.0644,0,16,16,86,1,,,,,,,,,,,,,,,,,,,,,,,,,,,,,,,,,,,,,,,,,,,,,,,,,,,,,,,,,,,,,,,,,,,,,,
,,,,7,1.2413,,,,,,20,rose,tree,,90229,001,2022-04-29_13h06.13.355,SPAMnetsValid,2021.1.4,Win32,61.54224875,,,,,,,,,,,,,7,1.2413,0,17,17,66,1,,,,,,,,,,,,,,,,,,,,,,,,,,,,,,,,,,,,,,,,,,,,,,,,,,,,,,,,,,,,,,,,,,,,,,
,,,,4,1.5243,,,,,,29,chocolate,melon,,90229,001,2022-04-29_13h06.13.355,SPAMnetsValid,2021.1.4,Win32,61.54224875,,,,,,,,,,,,,4,1.5243,0,18,18,34,1,,,,,,,,,,,,,,,,,,,,,,,,,,,,,,,,,,,,,,,,,,,,,,,,,,,,,,,,,,,,,,,,,,,,,,
,,,,4,1.3429,,,,,,10,flower,onion,,90229,001,2022-04-29_13h06.13.355,SPAMnetsValid,2021.1.4,Win32,61.54224875,,,,,,,,,,,,,4,1.3429,0,19,19,45,1,,,,,,,,,,,,,,,,,,,,,,,,,,,,,,,,,,,,,,,,,,,,,,,,,,,,,,,,,,,,,,,,,,,,,,
,,,,6,0.4988,,,,,,89,chocolate,rose,,90229,001,2022-04-29_13h06.13.355,SPAMnetsValid,2021.1.4,Win32,61.54224875,,,,,,,,,,,,,6,0.4988,0,20,20,60,1,,,,,,,,,,,,,,,,,,,,,,,,,,,,,,,,,,,,,,,,,,,,,,,,,,,,,,,,,,,,,,,,,,,,,,
,,,,3,0.4779,,,,,,191,cake,cake,CHECK,90229,001,2022-04-29_13h06.13.355,SPAMnetsValid,2021.1.4,Win32,61.54224875,,,,,,,,,,,,,3,0.4779,0,21,21,10,1,,,,,,,,,,,,,,,,,,,,,,,,,,,,,,,,,,,,,,,,,,,,,,,,,,,,,,,,,,,,,,,,,,,,,,
,,,,8,0.4428,,,,,,91,microwave,rose,,90229,001,2022-04-29_13h06.13.355,SPAMnetsValid,2021.1.4,Win32,61.54224875,,,,,,,,,,,,,8,0.4428,0,22,22,84,1,,,,,,,,,,,,,,,,,,,,,,,,,,,,,,,,,,,,,,,,,,,,,,,,,,,,,,,,,,,,,,,,,,,,,,
,,,,7,0.4412,,,,,,192,microwave,microwave,CHECK,90229,001,2022-04-29_13h06.13.355,SPAMnetsValid,2021.1.4,Win32,61.54224875,,,,,,,,,,,,,7,0.4412,0,23,23,53,1,,,,,,,,,,,,,,,,,,,,,,,,,,,,,,,,,,,,,,,,,,,,,,,,,,,,,,,,,,,,,,,,,,,,,,
,,,,3,0.438,,,,,,54,chocolate,yogurt,,90229,001,2022-04-29_13h06.13.355,SPAMnetsValid,2021.1.4,Win32,61.54224875,,,,,,,,,,,,,3,0.438,0,24,24,67,1,,,,,,,,,,,,,,,,,,,,,,,,,,,,,,,,,,,,,,,,,,,,,,,,,,,,,,,,,,,,,,,,,,,,,,
,,,,3,1.7042,,,,,,16,chocolate,flower,,90229,001,2022-04-29_13h06.13.355,SPAMnetsValid,2021.1.4,Win32,61.54224875,,,,,,,,,,,,,3,1.7042,0,25,25,22,1,,,,,,,,,,,,,,,,,,,,,,,,,,,,,,,,,,,,,,,,,,,,,,,,,,,,,,,,,,,,,,,,,,,,,,
,,,,7,0.5574,,,,,,52,carrot,tomato,,90229,001,2022-04-29_13h06.13.355,SPAMnetsValid,2021.1.4,Win32,61.54224875,,,,,,,,,,,,,7,0.5574,0,26,26,95,1,,,,,,,,,,,,,,,,,,,,,,,,,,,,,,,,,,,,,,,,,,,,,,,,,,,,,,,,,,,,,,,,,,,,,,
,,,,3,0.4297,,,,,,88,cactus,melon,,90229,001,2022-04-29_13h06.13.355,SPAMnetsValid,2021.1.4,Win32,61.54224875,,,,,,,,,,,,,3,0.4297,0,27,27,38,1,,,,,,,,,,,,,,,,,,,,,,,,,,,,,,,,,,,,,,,,,,,,,,,,,,,,,,,,,,,,,,,,,,,,,,
,,,,7,0.4314,,,,,,11,refrigerator,tree,,90229,001,2022-04-29_13h06.13.355,SPAMnetsValid,2021.1.4,Win32,61.54224875,,,,,,,,,,,,,7,0.4314,0,28,28,43,1,,,,,,,,,,,,,,,,,,,,,,,,,,,,,,,,,,,,,,,,,,,,,,,,,,,,,,,,,,,,,,,,,,,,,,
,,,,3,0.5245,,,,,,6,garden,onion,,90229,001,2022-04-29_13h06.13.355,SPAMnetsValid,2021.1.4,Win32,61.54224875,,,,,,,,,,,,,3,0.5245,0,29,29,83,1,,,,,,,,,,,,,,,,,,,,,,,,,,,,,,,,,,,,,,,,,,,,,,,,,,,,,,,,,,,,,,,,,,,,,,
,,,,4,0.43,,,,,,73,broom,chocolate,,90229,001,2022-04-29_13h06.13.355,SPAMnetsValid,2021.1.4,Win32,61.54224875,,,,,,,,,,,,,4,0.43,0,30,30,47,1,,,,,,,,,,,,,,,,,,,,,,,,,,,,,,,,,,,,,,,,,,,,,,,,,,,,,,,,,,,,,,,,,,,,,,
,,,,6,0.5495,,,,,,56,cactus,tree,,90229,001,2022-04-29_13h06.13.355,SPAMnetsValid,2021.1.4,Win32,61.54224875,,,,,,,,,,,,,6,0.5495,0,31,31,21,1,,,,,,,,,,,,,,,,,,,,,,,,,,,,,,,,,,,,,,,,,,,,,,,,,,,,,,,,,,,,,,,,,,,,,,
,,,,2,1.4265,,,,,,37,garden,refrigerator,,90229,001,2022-04-29_13h06.13.355,SPAMnetsValid,2021.1.4,Win32,61.54224875,,,,,,,,,,,,,2,1.4265,0,32,32,11,1,,,,,,,,,,,,,,,,,,,,,,,,,,,,,,,,,,,,,,,,,,,,,,,,,,,,,,,,,,,,,,,,,,,,,,
,,,,7,2.0768,,,,,,38,pretzel,refrigerator,,90229,001,2022-04-29_13h06.13.355,SPAMnetsValid,2021.1.4,Win32,61.54224875,,,,,,,,,,,,,7,2.0768,0,33,33,71,1,,,,,,,,,,,,,,,,,,,,,,,,,,,,,,,,,,,,,,,,,,,,,,,,,,,,,,,,,,,,,,,,,,,,,,
,,,,4,1.5214,,,,,,87,carrot,yogurt,,90229,001,2022-04-29_13h06.13.355,SPAMnetsValid,2021.1.4,Win32,61.54224875,,,,,,,,,,,,,4,1.5214,0,34,34,6,1,,,,,,,,,,,,,,,,,,,,,,,,,,,,,,,,,,,,,,,,,,,,,,,,,,,,,,,,,,,,,,,,,,,,,,
,,,,2,0.4237,,,,,,27,cactus,cookie,,90229,001,2022-04-29_13h06.13.355,SPAMnetsValid,2021.1.4,Win32,61.54224875,,,,,,,,,,,,,2,0.4237,0,35,35,17,1,,,,,,,,,,,,,,,,,,,,,,,,,,,,,,,,,,,,,,,,,,,,,,,,,,,,,,,,,,,,,,,,,,,,,,
,,,,7,0.3729,,,,,,57,flower,kitchen,,90229,001,2022-04-29_13h06.13.355,SPAMnetsValid,2021.1.4,Win32,61.54224875,,,,,,,,,,,,,7,0.3729,0,36,36,49,1,,,,,,,,,,,,,,,,,,,,,,,,,,,,,,,,,,,,,,,,,,,,,,,,,,,,,,,,,,,,,,,,,,,,,,
,,,,3,0.3798,,,,,,83,broom,carrot,,90229,001,2022-04-29_13h06.13.355,SPAMnetsValid,2021.1.4,Win32,61.54224875,,,,,,,,,,,,,3,0.3798,0,37,37,4,1,,,,,,,,,,,,,,,,,,,,,,,,,,,,,,,,,,,,,,,,,,,,,,,,,,,,,,,,,,,,,,,,,,,,,,
,,,,7,0.4958,,,,,,84,oven,tomato,,90229,001,2022-04-29_13h06.13.355,SPAMnetsValid,2021.1.4,Win32,61.54224875,,,,,,,,,,,,,7,0.4958,0,38,38,28,1,,,,,,,,,,,,,,,,,,,,,,,,,,,,,,,,,,,,,,,,,,,,,,,,,,,,,,,,,,,,,,,,,,,,,,
,,,,3,0.3988,,,,,,55,tomato,tree,,90229,001,2022-04-29_13h06.13.355,SPAMnetsValid,2021.1.4,Win32,61.54224875,,,,,,,,,,,,,3,0.3988,0,39,39,35,1,,,,,,,,,,,,,,,,,,,,,,,,,,,,,,,,,,,,,,,,,,,,,,,,,,,,,,,,,,,,,,,,,,,,,,
,,,,2,0.5113,,,,,,70,chocolate,onion,,90229,001,2022-04-29_13h06.13.355,SPAMnetsValid,2021.1.4,Win32,61.54224875,,,,,,,,,,,,,2,0.5113,0,40,40,74,1,,,,,,,,,,,,,,,,,,,,,,,,,,,,,,,,,,,,,,,,,,,,,,,,,,,,,,,,,,,,,,,,,,,,,,
,,,,8,0.512,,,,,,21,cake,onion,,90229,001,2022-04-29_13h06.13.355,SPAMnetsValid,2021.1.4,Win32,61.54224875,,,,,,,,,,,,,8,0.512,0,41,41,63,1,,,,,,,,,,,,,,,,,,,,,,,,,,,,,,,,,,,,,,,,,,,,,,,,,,,,,,,,,,,,,,,,,,,,,,
,,,,2,0.6778,,,,,,86,oven,rose,,90229,001,2022-04-29_13h06.13.355,SPAMnetsValid,2021.1.4,Win32,61.54224875,,,,,,,,,,,,,2,0.6778,0,42,42,79,1,,,,,,,,,,,,,,,,,,,,,,,,,,,,,,,,,,,,,,,,,,,,,,,,,,,,,,,,,,,,,,,,,,,,,,
,,,,4,0.3793,,,,,,7,melon,tree,,90229,001,2022-04-29_13h06.13.355,SPAMnetsValid,2021.1.4,Win32,61.54224875,,,,,,,,,,,,,4,0.3793,0,43,43,77,1,,,,,,,,,,,,,,,,,,,,,,,,,,,,,,,,,,,,,,,,,,,,,,,,,,,,,,,,,,,,,,,,,,,,,,
,,,,7,0.44,,,,,,35,flower,pretzel,,90229,001,2022-04-29_13h06.13.355,SPAMnetsValid,2021.1.4,Win32,61.54224875,,,,,,,,,,,,,7,0.44,0,44,44,26,1,,,,,,,,,,,,,,,,,,,,,,,,,,,,,,,,,,,,,,,,,,,,,,,,,,,,,,,,,,,,,,,,,,,,,,
,,,,2,0.6483,,,,,,62,kitchen,rose,,90229,001,2022-04-29_13h06.13.355,SPAMnetsValid,2021.1.4,Win32,61.54224875,,,,,,,,,,,,,2,0.6483,0,45,45,57,1,,,,,,,,,,,,,,,,,,,,,,,,,,,,,,,,,,,,,,,,,,,,,,,,,,,,,,,,,,,,,,,,,,,,,,
,,,,7,1.0239,,,,,,59,rose,strawberry,,90229,001,2022-04-29_13h06.13.355,SPAMnetsValid,2021.1.4,Win32,61.54224875,,,,,,,,,,,,,7,1.0239,0,46,46,72,1,,,,,,,,,,,,,,,,,,,,,,,,,,,,,,,,,,,,,,,,,,,,,,,,,,,,,,,,,,,,,,,,,,,,,,
,,,,2,1.5727,,,,,,90,cactus,cake,,90229,001,2022-04-29_13h06.13.355,SPAMnetsValid,2021.1.4,Win32,61.54224875,,,,,,,,,,,,,2,1.5727,0,47,47,85,1,,,,,,,,,,,,,,,,,,,,,,,,,,,,,,,,,,,,,,,,,,,,,,,,,,,,,,,,,,,,,,,,,,,,,,
,,,,2,1.7229,,,,,,85,cake,tree,,90229,001,2022-04-29_13h06.13.355,SPAMnetsValid,2021.1.4,Win32,61.54224875,,,,,,,,,,,,,2,1.7229,0,48,48,18,1,,,,,,,,,,,,,,,,,,,,,,,,,,,,,,,,,,,,,,,,,,,,,,,,,,,,,,,,,,,,,,,,,,,,,,
,,,,2,1.3137,,,,,,72,broom,onion,,90229,001,2022-04-29_13h06.13.355,SPAMnetsValid,2021.1.4,Win32,61.54224875,,,,,,,,,,,,,2,1.3137,0,49,49,27,1,,,,,,,,,,,,,,,,,,,,,,,,,,,,,,,,,,,,,,,,,,,,,,,,,,,,,,,,,,,,,,,,,,,,,,
,,,,3,2.8623,,,,,,43,chocolate,tomato,,90229,001,2022-04-29_13h06.13.355,SPAMnetsValid,2021.1.4,Win32,61.54224875,,,,,,,,,,,,,3,2.8623,0,50,50,8,1,,,,,,,,,,,,,,,,,,,,,,,,,,,,,,,,,,,,,,,,,,,,,,,,,,,,,,,,,,,,,,,,,,,,,,
,,,,8,1.8409,,,,,,50,carrot,rose,,90229,001,2022-04-29_13h06.13.355,SPAMnetsValid,2021.1.4,Win32,61.54224875,,,,,,,,,,,,,8,1.8409,0,51,51,73,1,,,,,,,,,,,,,,,,,,,,,,,,,,,,,,,,,,,,,,,,,,,,,,,,,,,,,,,,,,,,,,,,,,,,,,
,,,,6,2.2661,,,,,,69,carrot,refrigerator,,90229,001,2022-04-29_13h06.13.355,SPAMnetsValid,2021.1.4,Win32,61.54224875,,,,,,,,,,,,,6,2.2661,0,52,52,75,1,,,,,,,,,,,,,,,,,,,,,,,,,,,,,,,,,,,,,,,,,,,,,,,,,,,,,,,,,,,,,,,,,,,,,,
,,,,3,3.0312,,,,,,42,garden,kitchen,,90229,001,2022-04-29_13h06.13.355,SPAMnetsValid,2021.1.4,Win32,61.54224875,,,,,,,,,,,,,3,3.0312,0,53,53,29,1,,,,,,,,,,,,,,,,,,,,,,,,,,,,,,,,,,,,,,,,,,,,,,,,,,,,,,,,,,,,,,,,,,,,,,
,,,,7,2.6554,,,,,,17,carrot,melon,,90229,001,2022-04-29_13h06.13.355,SPAMnetsValid,2021.1.4,Win32,61.54224875,,,,,,,,,,,,,7,2.6554,0,54,54,24,1,,,,,,,,,,,,,,,,,,,,,,,,,,,,,,,,,,,,,,,,,,,,,,,,,,,,,,,,,,,,,,,,,,,,,,
,,,,1,1.674,,,,,,41,broom,cactus,,90229,001,2022-04-29_13h06.13.355,SPAMnetsValid,2021.1.4,Win32,61.54224875,,,,,,,,,,,,,1,1.674,0,55,55,46,1,,,,,,,,,,,,,,,,,,,,,,,,,,,,,,,,,,,,,,,,,,,,,,,,,,,,,,,,,,,,,,,,,,,,,,
,,,,7,2.159,,,,,,93,kitchen,oven,,90229,001,2022-04-29_13h06.13.355,SPAMnetsValid,2021.1.4,Win32,61.54224875,,,,,,,,,,,,,7,2.159,0,56,56,82,1,,,,,,,,,,,,,,,,,,,,,,,,,,,,,,,,,,,,,,,,,,,,,,,,,,,,,,,,,,,,,,,,,,,,,,
,,,,4,1.8402,,,,,,18,onion,refrigerator,,90229,001,2022-04-29_13h06.13.355,SPAMnetsValid,2021.1.4,Win32,61.54224875,,,,,,,,,,,,,4,1.8402,0,57,57,62,1,,,,,,,,,,,,,,,,,,,,,,,,,,,,,,,,,,,,,,,,,,,,,,,,,,,,,,,,,,,,,,,,,,,,,,
,,,,3,1.4136,,,,,,12,cookie,yogurt,,90229,001,2022-04-29_13h06.13.355,SPAMnetsValid,2021.1.4,Win32,61.54224875,,,,,,,,,,,,,3,1.4136,0,58,58,36,1,,,,,,,,,,,,,,,,,,,,,,,,,,,,,,,,,,,,,,,,,,,,,,,,,,,,,,,,,,,,,,,,,,,,,,
,,,,6,1.3894,,,,,,39,melon,pretzel,,90229,001,2022-04-29_13h06.13.355,SPAMnetsValid,2021.1.4,Win32,61.54224875,,,,,,,,,,,,,6,1.3894,0,59,59,20,1,,,,,,,,,,,,,,,,,,,,,,,,,,,,,,,,,,,,,,,,,,,,,,,,,,,,,,,,,,,,,,,,,,,,,,
,,,,4,1.2553,,,,,,2,kitchen,onion,,90229,001,2022-04-29_13h06.13.355,SPAMnetsValid,2021.1.4,Win32,61.54224875,,,,,,,,,,,,,4,1.2553,0,60,60,91,1,,,,,,,,,,,,,,,,,,,,,,,,,,,,,,,,,,,,,,,,,,,,,,,,,,,,,,,,,,,,,,,,,,,,,,
,,,,7,1.3827,,,,,,76,garden,rose,,90229,001,2022-04-29_13h06.13.355,SPAMnetsValid,2021.1.4,Win32,61.54224875,,,,,,,,,,,,,7,1.3827,0,61,61,19,1,,,,,,,,,,,,,,,,,,,,,,,,,,,,,,,,,,,,,,,,,,,,,,,,,,,,,,,,,,,,,,,,,,,,,,
,,,,2,0.9896,,,,,,15,onion,oven,,90229,001,2022-04-29_13h06.13.355,SPAMnetsValid,2021.1.4,Win32,61.54224875,,,,,,,,,,,,,2,0.9896,0,62,62,39,1,,,,,,,,,,,,,,,,,,,,,,,,,,,,,,,,,,,,,,,,,,,,,,,,,,,,,,,,,,,,,,,,,,,,,,
,,,,7,2.0627,,,,,,58,garden,oven,,90229,001,2022-04-29_13h06.13.355,SPAMnetsValid,2021.1.4,Win32,61.54224875,,,,,,,,,,,,,7,2.0627,0,63,63,37,1,,,,,,,,,,,,,,,,,,,,,,,,,,,,,,,,,,,,,,,,,,,,,,,,,,,,,,,,,,,,,,,,,,,,,,
,,,,6,1.0282,,,,,,25,carrot,onion,,90229,001,2022-04-29_13h06.13.355,SPAMnetsValid,2021.1.4,Win32,61.54224875,,,,,,,,,,,,,6,1.0282,0,64,64,44,1,,,,,,,,,,,,,,,,,,,,,,,,,,,,,,,,,,,,,,,,,,,,,,,,,,,,,,,,,,,,,,,,,,,,,,
,,,,3,1.3892,,,,,,44,cookie,melon,,90229,001,2022-04-29_13h06.13.355,SPAMnetsValid,2021.1.4,Win32,61.54224875,,,,,,,,,,,,,3,1.3892,0,65,65,92,1,,,,,,,,,,,,,,,,,,,,,,,,,,,,,,,,,,,,,,,,,,,,,,,,,,,,,,,,,,,,,,,,,,,,,,
,,,,8,1.4839,,,,,,9,kitchen,refrigerator,,90229,001,2022-04-29_13h06.13.355,SPAMnetsValid,2021.1.4,Win32,61.54224875,,,,,,,,,,,,,8,1.4839,0,66,66,64,1,,,,,,,,,,,,,,,,,,,,,,,,,,,,,,,,,,,,,,,,,,,,,,,,,,,,,,,,,,,,,,,,,,,,,,
,,,,2,1.4488,,,,,,65,broom,garden,,90229,001,2022-04-29_13h06.13.355,SPAMnetsValid,2021.1.4,Win32,61.54224875,,,,,,,,,,,,,2,1.4488,0,67,67,23,1,,,,,,,,,,,,,,,,,,,,,,,,,,,,,,,,,,,,,,,,,,,,,,,,,,,,,,,,,,,,,,,,,,,,,,
,,,,6,5.2721,,,,,,68,flower,tomato,,90229,001,2022-04-29_13h06.13.355,SPAMnetsValid,2021.1.4,Win32,61.54224875,,,,,,,,,,,,,6,5.2721,0,68,68,94,1,,,,,,,,,,,,,,,,,,,,,,,,,,,,,,,,,,,,,,,,,,,,,,,,,,,,,,,,,,,,,,,,,,,,,,
,,,,7,0.4252,,,,,,19,microwave,pretzel,,90229,001,2022-04-29_13h06.13.355,SPAMnetsValid,2021.1.4,Win32,61.54224875,,,,,,,,,,,,,7,0.4252,0,69,69,41,1,,,,,,,,,,,,,,,,,,,,,,,,,,,,,,,,,,,,,,,,,,,,,,,,,,,,,,,,,,,,,,,,,,,,,,
,,,,3,0.458,,,,,,49,flower,strawberry,,90229,001,2022-04-29_13h06.13.355,SPAMnetsValid,2021.1.4,Win32,61.54224875,,,,,,,,,,,,,3,0.458,0,70,70,3,1,,,,,,,,,,,,,,,,,,,,,,,,,,,,,,,,,,,,,,,,,,,,,,,,,,,,,,,,,,,,,,,,,,,,,,
,,,,8,0.5103,,,,,,28,cake,melon,,90229,001,2022-04-29_13h06.13.355,SPAMnetsValid,2021.1.4,Win32,61.54224875,,,,,,,,,,,,,8,0.5103,0,71,71,54,1,,,,,,,,,,,,,,,,,,,,,,,,,,,,,,,,,,,,,,,,,,,,,,,,,,,,,,,,,,,,,,,,,,,,,,
,,,,4,0.4739,,,,,,66,melon,yogurt,,90229,001,2022-04-29_13h06.13.355,SPAMnetsValid,2021.1.4,Win32,61.54224875,,,,,,,,,,,,,4,0.4739,0,72,72,48,1,,,,,,,,,,,,,,,,,,,,,,,,,,,,,,,,,,,,,,,,,,,,,,,,,,,,,,,,,,,,,,,,,,,,,,
,,,,6,0.3079,,,,,,95,broom,refrigerator,,90229,001,2022-04-29_13h06.13.355,SPAMnetsValid,2021.1.4,Win32,61.54224875,,,,,,,,,,,,,6,0.3079,0,73,73,90,1,,,,,,,,,,,,,,,,,,,,,,,,,,,,,,,,,,,,,,,,,,,,,,,,,,,,,,,,,,,,,,,,,,,,,,
,,,,3,0.2737,,,,,,82,cake,kitchen,,90229,001,2022-04-29_13h06.13.355,SPAMnetsValid,2021.1.4,Win32,61.54224875,,,,,,,,,,,,,3,0.2737,0,74,74,96,1,,,,,,,,,,,,,,,,,,,,,,,,,,,,,,,,,,,,,,,,,,,,,,,,,,,,,,,,,,,,,,,,,,,,,,
,,,,7,0.3496,,,,,,53,garden,pretzel,,90229,001,2022-04-29_13h06.13.355,SPAMnetsValid,2021.1.4,Win32,61.54224875,,,,,,,,,,,,,7,0.3496,0,75,75,0,1,,,,,,,,,,,,,,,,,,,,,,,,,,,,,,,,,,,,,,,,,,,,,,,,,,,,,,,,,,,,,,,,,,,,,,
,,,,4,0.2937,,,,,,92,broom,flower,,90229,001,2022-04-29_13h06.13.355,SPAMnetsValid,2021.1.4,Win32,61.54224875,,,,,,,,,,,,,4,0.2937,0,76,76,88,1,,,,,,,,,,,,,,,,,,,,,,,,,,,,,,,,,,,,,,,,,,,,,,,,,,,,,,,,,,,,,,,,,,,,,,
,,,,7,0.3653,,,,,,63,cake,cookie,,90229,001,2022-04-29_13h06.13.355,SPAMnetsValid,2021.1.4,Win32,61.54224875,,,,,,,,,,,,,7,0.3653,0,77,77,93,1,,,,,,,,,,,,,,,,,,,,,,,,,,,,,,,,,,,,,,,,,,,,,,,,,,,,,,,,,,,,,,,,,,,,,,
,,,,3,0.3231,,,,,,33,oven,yogurt,,90229,001,2022-04-29_13h06.13.355,SPAMnetsValid,2021.1.4,Win32,61.54224875,,,,,,,,,,,,,3,0.3231,0,78,78,31,1,,,,,,,,,,,,,,,,,,,,,,,,,,,,,,,,,,,,,,,,,,,,,,,,,,,,,,,,,,,,,,,,,,,,,,
,,,,2,0.6858,,,,,,94,kitchen,microwave,,90229,001,2022-04-29_13h06.13.355,SPAMnetsValid,2021.1.4,Win32,61.54224875,,,,,,,,,,,,,2,0.6858,0,79,79,58,1,,,,,,,,,,,,,,,,,,,,,,,,,,,,,,,,,,,,,,,,,,,,,,,,,,,,,,,,,,,,,,,,,,,,,,
,,,,7,0.5267,,,,,,60,cactus,onion,,90229,001,2022-04-29_13h06.13.355,SPAMnetsValid,2021.1.4,Win32,61.54224875,,,,,,,,,,,,,7,0.5267,0,80,80,81,1,,,,,,,,,,,,,,,,,,,,,,,,,,,,,,,,,,,,,,,,,,,,,,,,,,,,,,,,,,,,,,,,,,,,,,
,,,,3,0.4592,,,,,,5,oven,tree,,90229,001,2022-04-29_13h06.13.355,SPAMnetsValid,2021.1.4,Win32,61.54224875,,,,,,,,,,,,,3,0.4592,0,81,81,70,1,,,,,,,,,,,,,,,,,,,,,,,,,,,,,,,,,,,,,,,,,,,,,,,,,,,,,,,,,,,,,,,,,,,,,,
,,,,6,0.4228,,,,,,71,broom,rose,,90229,001,2022-04-29_13h06.13.355,SPAMnetsValid,2021.1.4,Win32,61.54224875,,,,,,,,,,,,,6,0.4228,0,82,82,61,1,,,,,,,,,,,,,,,,,,,,,,,,,,,,,,,,,,,,,,,,,,,,,,,,,,,,,,,,,,,,,,,,,,,,,,
,,,,3,0.3125,,,,,,74,broom,pretzel,,90229,001,2022-04-29_13h06.13.355,SPAMnetsValid,2021.1.4,Win32,61.54224875,,,,,,,,,,,,,3,0.3125,0,83,83,40,1,,,,,,,,,,,,,,,,,,,,,,,,,,,,,,,,,,,,,,,,,,,,,,,,,,,,,,,,,,,,,,,,,,,,,,
,,,,6,0.473,,,,,,22,kitchen,strawberry,,90229,001,2022-04-29_13h06.13.355,SPAMnetsValid,2021.1.4,Win32,61.54224875,,,,,,,,,,,,,6,0.473,0,84,84,2,1,,,,,,,,,,,,,,,,,,,,,,,,,,,,,,,,,,,,,,,,,,,,,,,,,,,,,,,,,,,,,,,,,,,,,,
,,,,3,0.3285,,,,,,31,cactus,pretzel,,90229,001,2022-04-29_13h06.13.355,SPAMnetsValid,2021.1.4,Win32,61.54224875,,,,,,,,,,,,,3,0.3285,0,85,85,1,1,,,,,,,,,,,,,,,,,,,,,,,,,,,,,,,,,,,,,,,,,,,,,,,,,,,,,,,,,,,,,,,,,,,,,,
,,,,7,0.5585,,,,,,80,chocolate,tree,,90229,001,2022-04-29_13h06.13.355,SPAMnetsValid,2021.1.4,Win32,61.54224875,,,,,,,,,,,,,7,0.5585,0,86,86,89,1,,,,,,,,,,,,,,,,,,,,,,,,,,,,,,,,,,,,,,,,,,,,,,,,,,,,,,,,,,,,,,,,,,,,,,
,,,,3,0.345,,,,,,47,onion,tomato,,90229,001,2022-04-29_13h06.13.355,SPAMnetsValid,2021.1.4,Win32,61.54224875,,,,,,,,,,,,,3,0.345,0,87,87,51,1,,,,,,,,,,,,,,,,,,,,,,,,,,,,,,,,,,,,,,,,,,,,,,,,,,,,,,,,,,,,,,,,,,,,,,
,,,,6,0.3241,,,,,,81,pretzel,yogurt,,90229,001,2022-04-29_13h06.13.355,SPAMnetsValid,2021.1.4,Win32,61.54224875,,,,,,,,,,,,,6,0.3241,0,88,88,50,1,,,,,,,,,,,,,,,,,,,,,,,,,,,,,,,,,,,,,,,,,,,,,,,,,,,,,,,,,,,,,,,,,,,,,,
,,,,3,0.3138,,,,,,13,broom,yogurt,,90229,001,2022-04-29_13h06.13.355,SPAMnetsValid,2021.1.4,Win32,61.54224875,,,,,,,,,,,,,3,0.3138,0,89,89,5,1,,,,,,,,,,,,,,,,,,,,,,,,,,,,,,,,,,,,,,,,,,,,,,,,,,,,,,,,,,,,,,,,,,,,,,
,,,,7,0.3454,,,,,,24,cookie,tomato,,90229,001,2022-04-29_13h06.13.355,SPAMnetsValid,2021.1.4,Win32,61.54224875,,,,,,,,,,,,,7,0.3454,0,90,90,68,1,,,,,,,,,,,,,,,,,,,,,,,,,,,,,,,,,,,,,,,,,,,,,,,,,,,,,,,,,,,,,,,,,,,,,,
,,,,2,0.3017,,,,,,78,cookie,rose,,90229,001,2022-04-29_13h06.13.355,SPAMnetsValid,2021.1.4,Win32,61.54224875,,,,,,,,,,,,,2,0.3017,0,91,91,56,1,,,,,,,,,,,,,,,,,,,,,,,,,,,,,,,,,,,,,,,,,,,,,,,,,,,,,,,,,,,,,,,,,,,,,,
,,,,7,0.3741,,,,,,14,broom,cookie,,90229,001,2022-04-29_13h06.13.355,SPAMnetsValid,2021.1.4,Win32,61.54224875,,,,,,,,,,,,,7,0.3741,0,92,92,16,1,,,,,,,,,,,,,,,,,,,,,,,,,,,,,,,,,,,,,,,,,,,,,,,,,,,,,,,,,,,,,,,,,,,,,,
,,,,4,0.3743,,,,,,26,tomato,yogurt,,90229,001,2022-04-29_13h06.13.355,SPAMnetsValid,2021.1.4,Win32,61.54224875,,,,,,,,,,,,,4,0.3743,0,93,93,13,1,,,,,,,,,,,,,,,,,,,,,,,,,,,,,,,,,,,,,,,,,,,,,,,,,,,,,,,,,,,,,,,,,,,,,,
,,,,5,0.4032,,,,,,45,onion,pretzel,,90229,001,2022-04-29_13h06.13.355,SPAMnetsValid,2021.1.4,Win32,61.54224875,,,,,,,,,,,,,5,0.4032,0,94,94,69,1,,,,,,,,,,,,,,,,,,,,,,,,,,,,,,,,,,,,,,,,,,,,,,,,,,,,,,,,,,,,,,,,,,,,,,
,,,,1,0.4937,,,,,,79,garden,strawberry,,90229,001,2022-04-29_13h06.13.355,SPAMnetsValid,2021.1.4,Win32,61.54224875,,,,,,,,,,,,,1,0.4937,0,95,95,87,1,,,,,,,,,,,,,,,,,,,,,,,,,,,,,,,,,,,,,,,,,,,,,,,,,,,,,,,,,,,,,,,,,,,,,,
,,,,8,11.7496,,,,,,4,chocolate,pretzel,,90229,001,2022-04-29_13h06.13.355,SPAMnetsValid,2021.1.4,Win32,61.54224875,,,,,,,,,,,,,8,11.7496,0,96,96,52,1,,,,,,,,,,,,,,,,,,,,,,,,,,,,,,,,,,,,,,,,,,,,,,,,,,,,,,,,,,,,,,,,,,,,,,
,,,,,,,,,,,,,,,90229,001,2022-04-29_13h06.13.355,SPAMnetsValid,2021.1.4,Win32,61.54224875,,,,,,,,,,,,,,,,,,,,0,0,0,0,1,,,,,,,,,,,,,,,,,,,,,,,,,,,,,,,,,,,,,,,,,,,,,,,,,,,,,,,,,,,,,,,,,
,,,,,,,,,,,,,,,90229,001,2022-04-29_13h06.13.355,SPAMnetsValid,2021.1.4,Win32,61.54224875,,,,,,0,1,1,0,1,1,0,,,,,,,,,,,,,,,,,,,,,,,,,,,,,,,,,,,,,,,,,,,,,,,,,,,,,,,,,,,,,,,,,,,,,,,,,,,,,
,,,,,,,,,,,,,,,90229,001,2022-04-29_13h06.13.355,SPAMnetsValid,2021.1.4,Win32,61.54224875,,,,,,,,,,,,,,,,,,,,,,,,,3,5.2844,0,0,0,0,1,rancor,forbearance,ridicule,malice,bravery,3,,,,,,,,,,,,,,,,,,,,,,,,,,,,,,,,,,,,,,,,,,,,,,,,,,,,
,,,,,,,,,,,,,,,90229,001,2022-04-29_13h06.13.355,SPAMnetsValid,2021.1.4,Win32,61.54224875,,,,,,,,,,,,,,,,,,,,,,,,,4,5.0037,0,1,1,1,1,raucous,empty,quiet,smooth,harsh,4,,,,,,,,,,,,,,,,,,,,,,,,,,,,,,,,,,,,,,,,,,,,,,,,,,,,
,,,,,,,,,,,,,,,90229,001,2022-04-29_13h06.13.355,SPAMnetsValid,2021.1.4,Win32,61.54224875,,,,,,,,,,,,,,,,,,,,,,,,,1,6.857,0,2,2,2,1,gargoyle,oil,medicine,carved waterspout,ugly building,3,,,,,,,,,,,,,,,,,,,,,,,,,,,,,,,,,,,,,,,,,,,,,,,,,,,,
,,,,,,,,,,,,,,,90229,001,2022-04-29_13h06.13.355,SPAMnetsValid,2021.1.4,Win32,61.54224875,,,,,,,,,,,,,,,,,,,,,,,,,2,9.1491,0,3,3,3,1,recrudesce,purify,renew activity,lack refinement,crush,2,,,,,,,,,,,,,,,,,,,,,,,,,,,,,,,,,,,,,,,,,,,,,,,,,,,,
,,,,,,,,,,,,,,,90229,001,2022-04-29_13h06.13.355,SPAMnetsValid,2021.1.4,Win32,61.54224875,,,,,,,,,,,,,,,,,,,,,,,,,3,10.32,0,4,4,4,1,specious,"plausible, but not genuine",noteworthy,class or variety,roomy,1,,,,,,,,,,,,,,,,,,,,,,,,,,,,,,,,,,,,,,,,,,,,,,,,,,,,
,,,,,,,,,,,,,,,90229,001,2022-04-29_13h06.13.355,SPAMnetsValid,2021.1.4,Win32,61.54224875,,,,,,,,,,,,,,,,,,,,,,,,,3,6.0483,0,5,5,5,1,bauble,bubble,showy plaything,idle talk,confusion,2,,,,,,,,,,,,,,,,,,,,,,,,,,,,,,,,,,,,,,,,,,,,,,,,,,,,
,,,,,,,,,,,,,,,90229,001,2022-04-29_13h06.13.355,SPAMnetsValid,2021.1.4,Win32,61.54224875,,,,,,,,,,,,,,,,,,,,,,,,,4,2.9438,0,6,6,6,1,prolific,scarce,producing abundantly,reckless,speaking profanely,2,,,,,,,,,,,,,,,,,,,,,,,,,,,,,,,,,,,,,,,,,,,,,,,,,,,,
,,,,,,,,,,,,,,,90229,001,2022-04-29_13h06.13.355,SPAMnetsValid,2021.1.4,Win32,61.54224875,,,,,,,,,,,,,,,,,,,,,,,,,2,1.5952,0,7,7,7,1,opulent,party,wealthy,happy frame of mind,semiprecious stone,2,,,,,,,,,,,,,,,,,,,,,,,,,,,,,,,,,,,,,,,,,,,,,,,,,,,,
,,,,,,,,,,,,,,,90229,001,2022-04-29_13h06.13.355,SPAMnetsValid,2021.1.4,Win32,61.54224875,,,,,,,,,,,,,,,,,,,,,,,,,1,6.7709,0,8,8,8,1,coercion,conspiracy,strategy,restraint,attraction,3,,,,,,,,,,,,,,,,,,,,,,,,,,,,,,,,,,,,,,,,,,,,,,,,,,,,
,,,,,,,,,,,,,,,90229,001,2022-04-29_13h06.13.355,SPAMnetsValid,2021.1.4,Win32,61.54224875,,,,,,,,,,,,,,,,,,,,,,,,,2,4.2764,0,9,9,9,1,hiatus,animal,calamity,dread,gap,4,,,,,,,,,,,,,,,,,,,,,,,,,,,,,,,,,,,,,,,,,,,,,,,,,,,,
,,,,,,,,,,,,,,,90229,001,2022-04-29_13h06.13.355,SPAMnetsValid,2021.1.4,Win32,61.54224875,,,,,,,,,,,,,,,,,,,,,,,,,1,380.7484,0,10,10,10,1,germane,microbe,contagious,relevant,different,3,,,,,,,,,,,,,,,,,,,,,,,,,,,,,,,,,,,,,,,,,,,,,,,,,,,,
,,,,,,,,,,,,,,,90229,001,2022-04-29_13h06.13.355,SPAMnetsValid,2021.1.4,Win32,61.54224875,,,,,,,,,,,,,,,,,,,,,,,,,2,1.5306,0,11,11,11,1,perfunctory,fundamental,formal,superficial,careful,3,,,,,,,,,,,,,,,,,,,,,,,,,,,,,,,,,,,,,,,,,,,,,,,,,,,,
,,,,,,,,,,,,,,,90229,001,2022-04-29_13h06.13.355,SPAMnetsValid,2021.1.4,Win32,61.54224875,,,,,,,,,,,,,,,,,,,,,,,,,1,0.7562,0,12,12,12,1,diverge,reveal,chant,distract the attention of,differ or turn off from,4,,,,,,,,,,,,,,,,,,,,,,,,,,,,,,,,,,,,,,,,,,,,,,,,,,,,
,,,,,,,,,,,,,,,90229,001,2022-04-29_13h06.13.355,SPAMnetsValid,2021.1.4,Win32,61.54224875,,,,,,,,,,,,,,,,,,,,,,,,,3,0.7773,0,13,13,13,1,evoke,take away,anger,connect,bring out,4,,,,,,,,,,,,,,,,,,,,,,,,,,,,,,,,,,,,,,,,,,,,,,,,,,,,
,,,,,,,,,,,,,,,90229,001,2022-04-29_13h06.13.355,SPAMnetsValid,2021.1.4,Win32,61.54224875,,,,,,,,,,,,,,,,,,,,,,,,,2,0.7004,0,14,14,14,1,pertinent,relevant,lying next to,necessary,bold,1,,,,,,,,,,,,,,,,,,,,,,,,,,,,,,,,,,,,,,,,,,,,,,,,,,,,
,,,,,,,,,,,,,,,90229,001,2022-04-29_13h06.13.355,SPAMnetsValid,2021.1.4,Win32,61.54224875,,,,,,,,,,,,,,,,,,,,,,,,,3,0.9088,0,15,15,15,1,holocaust,entirety,destruction,saintly,price,2,,,,,,,,,,,,,,,,,,,,,,,,,,,,,,,,,,,,,,,,,,,,,,,,,,,,
,,,,,,,,,,,,,,,90229,001,2022-04-29_13h06.13.355,SPAMnetsValid,2021.1.4,Win32,61.54224875,,,,,,,,,,,,,,,,,,,,,,,,,2,0.7189,0,16,16,16,1,piquant,mellow,fish,pungent,cloth,3,,,,,,,,,,,,,,,,,,,,,,,,,,,,,,,,,,,,,,,,,,,,,,,,,,,,
,,,,,,,,,,,,,,,90229,001,2022-04-29_13h06.13.355,SPAMnetsValid,2021.1.4,Win32,61.54224875,,,,,,,,,,,,,,,,,,,,,,,,,1,0.4945,0,17,17,17,1,firmament,foundation,heavens,strong,glue,2,,,,,,,,,,,,,,,,,,,,,,,,,,,,,,,,,,,,,,,,,,,,,,,,,,,,
,,,,,,,,,,,,,,,90229,001,2022-04-29_13h06.13.355,SPAMnetsValid,2021.1.4,Win32,61.54224875,,,,,,,,,,,,,,,,,,,,,,,,,,,,,,,,,,,,,,4,0.9266,0,0,0,0,1,marketable,partisan,jocular,marriageable,salable,essential,4,,,,,,,,,,,,,,,,,,,,,,,,,,,,,,,,,,,,,,
,,,,,,,,,,,,,,,90229,001,2022-04-29_13h06.13.355,SPAMnetsValid,2021.1.4,Win32,61.54224875,,,,,,,,,,,,,,,,,,,,,,,,,,,,,,,,,,,,,,2,0.4299,0,1,1,1,1,cottontail,squirrel,poplar,boa,marshy plant,rabbit,5,,,,,,,,,,,,,,,,,,,,,,,,,,,,,,,,,,,,,,
,,,,,,,,,,,,,,,90229,001,2022-04-29_13h06.13.355,SPAMnetsValid,2021.1.4,Win32,61.54224875,,,,,,,,,,,,,,,,,,,,,,,,,,,,,,,,,,,,,,3,0.4667,0,2,2,2,1,boggy,afraid,false,marshy,dense,black,3,,,,,,,,,,,,,,,,,,,,,,,,,,,,,,,,,,,,,,
,,,,,,,,,,,,,,,90229,001,2022-04-29_13h06.13.355,SPAMnetsValid,2021.1.4,Win32,61.54224875,,,,,,,,,,,,,,,,,,,,,,,,,,,,,,,,,,,,,,2,0.3238,0,3,3,3,1,gruesomeness,blackness,falseness,vindictiveness,drunkenness,ghastliness,5,,,,,,,,,,,,,,,,,,,,,,,,,,,,,,,,,,,,,,
,,,,,,,,,,,,,,,90229,001,2022-04-29_13h06.13.355,SPAMnetsValid,2021.1.4,Win32,61.54224875,,,,,,,,,,,,,,,,,,,,,,,,,,,,,,,,,,,,,,4,0.3873,0,4,4,4,1,loathing,diffidence,laziness,abhorrence,cleverness,comfort,3,,,,,,,,,,,,,,,,,,,,,,,,,,,,,,,,,,,,,,
,,,,,,,,,,,,,,,90229,001,2022-04-29_13h06.13.355,SPAMnetsValid,2021.1.4,Win32,61.54224875,,,,,,,,,,,,,,,,,,,,,,,,,,,,,,,,,,,,,,3,0.3796,0,5,5,5,1,bantam,fowl,ridicule,cripple,vegetable,ensign,1,,,,,,,,,,,,,,,,,,,,,,,,,,,,,,,,,,,,,,
,,,,,,,,,,,,,,,90229,001,2022-04-29_13h06.13.355,SPAMnetsValid,2021.1.4,Win32,61.54224875,,,,,,,,,,,,,,,,,,,,,,,,,,,,,,,,,,,,,,1,0.3416,0,6,6,6,1,evoke,wake up,surrender,reconnoiter,transcend,call forth,5,,,,,,,,,,,,,,,,,,,,,,,,,,,,,,,,,,,,,,
,,,,,,,,,,,,,,,90229,001,2022-04-29_13h06.13.355,SPAMnetsValid,2021.1.4,Win32,61.54224875,,,,,,,,,,,,,,,,,,,,,,,,,,,,,,,,,,,,,,2,0.3919,0,7,7,7,1,unobtrusive,unintelligent,epileptic,illogical,lineal,modest,5,,,,,,,,,,,,,,,,,,,,,,,,,,,,,,,,,,,,,,
,,,,,,,,,,,,,,,90229,001,2022-04-29_13h06.13.355,SPAMnetsValid,2021.1.4,Win32,61.54224875,,,,,,,,,,,,,,,,,,,,,,,,,,,,,,,,,,,,,,3,0.3269,0,8,8,8,1,terrain,ice cream,final test,tractor,area of ground,weight,4,,,,,,,,,,,,,,,,,,,,,,,,,,,,,,,,,,,,,,
,,,,,,,,,,,,,,,90229,001,2022-04-29_13h06.13.355,SPAMnetsValid,2021.1.4,Win32,61.54224875,,,,,,,,,,,,,,,,,,,,,,,,,,,,,,,,,,,,,,4,0.3278,0,9,9,9,1,capriciousness,stubbornness,courage,whimsicality,amazement,greediness,3,,,,,,,,,,,,,,,,,,,,,,,,,,,,,,,,,,,,,,
,,,,,,,,,,,,,,,90229,001,2022-04-29_13h06.13.355,SPAMnetsValid,2021.1.4,Win32,61.54224875,,,,,,,,,,,,,,,,,,,,,,,,,,,,,,,,,,,,,,5,0.7746,0,10,10,10,1,maelstrom,slander,whirlpool,enmity,armor,majolica,2,,,,,,,,,,,,,,,,,,,,,,,,,,,,,,,,,,,,,,
,,,,,,,,,,,,,,,90229,001,2022-04-29_13h06.13.355,SPAMnetsValid,2021.1.4,Win32,61.54224875,,,,,,,,,,,,,,,,,,,,,,,,,,,,,,,,,,,,,,5,3.7959,0,11,11,11,1,tentative,critical,conclusive,authentic,provisional,apprehensive,4,,,,,,,,,,,,,,,,,,,,,,,,,,,,,,,,,,,,,,
,,,,,,,,,,,,,,,90229,001,2022-04-29_13h06.13.355,SPAMnetsValid,2021.1.4,Win32,61.54224875,,,,,,,,,,,,,,,,,,,,,,,,,,,,,,,,,,,,,,2,1.6569,0,12,12,12,1,placate,rehabilitate,plagiarize,depredate,apprise,conciliate,5,,,,,,,,,,,,,,,,,,,,,,,,,,,,,,,,,,,,,,
,,,,,,,,,,,,,,,90229,001,2022-04-29_13h06.13.355,SPAMnetsValid,2021.1.4,Win32,61.54224875,,,,,,,,,,,,,,,,,,,,,,,,,,,,,,,,,,,,,,2,1.5794,0,13,13,13,1,surcease,enlightenment,cessation,inattention,censor,substitution,2,,,,,,,,,,,,,,,,,,,,,,,,,,,,,,,,,,,,,,
,,,,,,,,,,,,,,,90229,001,2022-04-29_13h06.13.355,SPAMnetsValid,2021.1.4,Win32,61.54224875,,,,,,,,,,,,,,,,,,,,,,,,,,,,,,,,,,,,,,5,3.7554,0,14,14,14,1,apathetic,wandering,impassive,hateful,prophetic,overflowing,2,,,,,,,,,,,,,,,,,,,,,,,,,,,,,,,,,,,,,,
,,,,,,,,,,,,,,,90229,001,2022-04-29_13h06.13.355,SPAMnetsValid,2021.1.4,Win32,61.54224875,,,,,,,,,,,,,,,,,,,,,,,,,,,,,,,,,,,,,,,,0,15,15,15,1,paternoster,paternalism,patricide,malediction,benediction,prayer,5,,,,,,,,,,,,,,,,,,,,,,,,,,,,,,,,,,,,,,
,,,,,,,,,,,,,,,90229,001,2022-04-29_13h06.13.355,SPAMnetsValid,2021.1.4,Win32,61.54224875,,,,,,,,,,,,,,,,,,,,,,,,,,,,,,,,,,,,,,,,,,,,,,,,,,,,"lighting a room, cooking food, making finger puppets, birthday cake celebration, sterilizing a knife",candle,0,0,0,0,1,,,,,,,,,,,,,,,,,,,,,,,,,,,,,,,
,,,,,,,,,,,,,,,90229,001,2022-04-29_13h06.13.355,SPAMnetsValid,2021.1.4,Win32,61.54224875,,,,,,,,,,,,,,,,,,,,,,,,,,,,,,,,,,,,,,,,,,,,,,,,,,,,making shadow puppets,candle,1,0,1,0,1,,,,,,,,,,,,,,,,,,,,,,,,,,,,,,,
,,,,,,,,,,,,,,,90229,001,2022-04-29_13h06.13.355,SPAMnetsValid,2021.1.4,Win32,61.54224875,,,,,,,,,,,,,,,,,,,,,,,,,,,,,,,,,,,,,,,,,,,,,,,,,,,,birthday candles,candle,2,0,2,0,1,,,,,,,,,,,,,,,,,,,,,,,,,,,,,,,
,,,,,,,,,,,,,,,90229,001,2022-04-29_13h06.13.355,SPAMnetsValid,2021.1.4,Win32,61.54224875,,,,,,,,,,,,,,,,,,,,,,,,,,,,,,,,,,,,,,,,,,,,,,,,,,,,sterilizing a knife,candle,3,0,3,0,1,,,,,,,,,,,,,,,,,,,,,,,,,,,,,,,
,,,,,,,,,,,,,,,90229,001,2022-04-29_13h06.13.355,SPAMnetsValid,2021.1.4,Win32,61.54224875,,,,,,,,,,,,,,,,,,,,,,,,,,,,,,,,,,,,,,,,,,,,,,,,,,,,cooking food,candle,4,0,4,0,1,,,,,,,,,,,,,,,,,,,,,,,,,,,,,,,
,,,,,,,,,,,,,,,90229,001,2022-04-29_13h06.13.355,SPAMnetsValid,2021.1.4,Win32,61.54224875,,,,,,,,,,,,,,,,,,,,,,,,,,,,,,,,,,,,,,,,,,,,,,,,,,,,,,,,,,,0,0,0,1,1,candle,,,,,,,,,,,,,,,,,,,,,,,,,
,,,,,,,,,,,,,,,90229,001,2022-04-29_13h06.13.355,SPAMnetsValid,2021.1.4,Win32,61.54224875,,,,,,,,,,,,,,,,,,,,,,,,,,,,,,,,,,,,,,,,,,,,,,,,,,,,carrying supplies,bucket,0,0,0,0,1,,,,,,,,,,,,,,,,,,,,,,,,,,,,,,,
,,,,,,,,,,,,,,,90229,001,2022-04-29_13h06.13.355,SPAMnetsValid,2021.1.4,Win32,61.54224875,,,,,,,,,,,,,,,,,,,,,,,,,,,,,,,,,,,,,,,,,,,,,,,,,,,,wearing it as a hat,bucket,1,0,1,0,1,,,,,,,,,,,,,,,,,,,,,,,,,,,,,,,
,,,,,,,,,,,,,,,90229,001,2022-04-29_13h06.13.355,SPAMnetsValid,2021.1.4,Win32,61.54224875,,,,,,,,,,,,,,,,,,,,,,,,,,,,,,,,,,,,,,,,,,,,,,,,,,,,sand castles,bucket,2,0,2,0,1,,,,,,,,,,,,,,,,,,,,,,,,,,,,,,,
,,,,,,,,,,,,,,,90229,001,2022-04-29_13h06.13.355,SPAMnetsValid,2021.1.4,Win32,61.54224875,,,,,,,,,,,,,,,,,,,,,,,,,,,,,,,,,,,,,,,,,,,,,,,,,,,,transporting water,bucket,3,0,3,0,1,,,,,,,,,,,,,,,,,,,,,,,,,,,,,,,
,,,,,,,,,,,,,,,90229,001,2022-04-29_13h06.13.355,SPAMnetsValid,2021.1.4,Win32,61.54224875,,,,,,,,,,,,,,,,,,,,,,,,,,,,,,,,,,,,,,,,,,,,,,,,,,,,,,,,,,,0,1,1,0,1,bucket,,,,,,,,,,,,,,,,,,,,,,,,,
,,,,,,,,,,,,,,,90229,001,2022-04-29_13h06.13.355,SPAMnetsValid,2021.1.4,Win32,61.54224875,,,,,,,,,,,,,,,,,,,,,,,,,,,,,,,,,,,,,,,,,,,,,,,,,,,,sleeping on it,pillow,0,0,0,0,1,,,,,,,,,,,,,,,,,,,,,,,,,,,,,,,
,,,,,,,,,,,,,,,90229,001,2022-04-29_13h06.13.355,SPAMnetsValid,2021.1.4,Win32,61.54224875,,,,,,,,,,,,,,,,,,,,,,,,,,,,,,,,,,,,,,,,,,,,,,,,,,,,pillow fights,pillow,1,0,1,0,1,,,,,,,,,,,,,,,,,,,,,,,,,,,,,,,
,,,,,,,,,,,,,,,90229,001,2022-04-29_13h06.13.355,SPAMnetsValid,2021.1.4,Win32,61.54224875,,,,,,,,,,,,,,,,,,,,,,,,,,,,,,,,,,,,,,,,,,,,,,,,,,,,making a fort,pillow,2,0,2,0,1,,,,,,,,,,,,,,,,,,,,,,,,,,,,,,,
,,,,,,,,,,,,,,,90229,001,2022-04-29_13h06.13.355,SPAMnetsValid,2021.1.4,Win32,61.54224875,,,,,,,,,,,,,,,,,,,,,,,,,,,,,,,,,,,,,,,,,,,,,,,,,,,,bracing a fall,pillow,3,0,3,0,1,,,,,,,,,,,,,,,,,,,,,,,,,,,,,,,
,,,,,,,,,,,,,,,90229,001,2022-04-29_13h06.13.355,SPAMnetsValid,2021.1.4,Win32,61.54224875,,,,,,,,,,,,,,,,,,,,,,,,,,,,,,,,,,,,,,,,,,,,,,,,,,,,hiding,pillow,4,0,4,0,1,,,,,,,,,,,,,,,,,,,,,,,,,,,,,,,
,,,,,,,,,,,,,,,90229,001,2022-04-29_13h06.13.355,SPAMnetsValid,2021.1.4,Win32,61.54224875,,,,,,,,,,,,,,,,,,,,,,,,,,,,,,,,,,,,,,,,,,,,,,,,,,,,,,,,,,,0,2,2,2,1,pillow,,,,,,,,,,,,,,,,,,,,,,,,,
,,,,,,,,,,,,,,,90229,001,2022-04-29_13h06.13.355,SPAMnetsValid,2021.1.4,Win32,61.54224875,,,,,,,,,,,,,,,,,,,,,,,,,,,,,,,,,,,,,,,,,,,,,,,,,,,,,,,,,,,,,,,,,cow,Animals,0,0,0,0,1,,,,,,,,,,,,,,,,,,
,,,,,,,,,,,,,,,90229,001,2022-04-29_13h06.13.355,SPAMnetsValid,2021.1.4,Win32,61.54224875,,,,,,,,,,,,,,,,,,,,,,,,,,,,,,,,,,,,,,,,,,,,,,,,,,,,,,,,,,,,,,,,,pig,Animals,1,0,1,0,1,,,,,,,,,,,,,,,,,,
,,,,,,,,,,,,,,,90229,001,2022-04-29_13h06.13.355,SPAMnetsValid,2021.1.4,Win32,61.54224875,,,,,,,,,,,,,,,,,,,,,,,,,,,,,,,,,,,,,,,,,,,,,,,,,,,,,,,,,,,,,,,,,dog,Animals,2,0,2,0,1,,,,,,,,,,,,,,,,,,
,,,,,,,,,,,,,,,90229,001,2022-04-29_13h06.13.355,SPAMnetsValid,2021.1.4,Win32,61.54224875,,,,,,,,,,,,,,,,,,,,,,,,,,,,,,,,,,,,,,,,,,,,,,,,,,,,,,,,,,,,,,,,,cat,Animals,3,0,3,0,1,,,,,,,,,,,,,,,,,,
,,,,,,,,,,,,,,,90229,001,2022-04-29_13h06.13.355,SPAMnetsValid,2021.1.4,Win32,61.54224875,,,,,,,,,,,,,,,,,,,,,,,,,,,,,,,,,,,,,,,,,,,,,,,,,,,,,,,,,,,,,,,,,bee,Animals,4,0,4,0,1,,,,,,,,,,,,,,,,,,
,,,,,,,,,,,,,,,90229,001,2022-04-29_13h06.13.355,SPAMnetsValid,2021.1.4,Win32,61.54224875,,,,,,,,,,,,,,,,,,,,,,,,,,,,,,,,,,,,,,,,,,,,,,,,,,,,,,,,,,,,,,,,,bug,Animals,5,0,5,0,1,,,,,,,,,,,,,,,,,,
,,,,,,,,,,,,,,,90229,001,2022-04-29_13h06.13.355,SPAMnetsValid,2021.1.4,Win32,61.54224875,,,,,,,,,,,,,,,,,,,,,,,,,,,,,,,,,,,,,,,,,,,,,,,,,,,,,,,,,,,,,,,,,horse,Animals,6,0,6,0,1,,,,,,,,,,,,,,,,,,
,,,,,,,,,,,,,,,90229,001,2022-04-29_13h06.13.355,SPAMnetsValid,2021.1.4,Win32,61.54224875,,,,,,,,,,,,,,,,,,,,,,,,,,,,,,,,,,,,,,,,,,,,,,,,,,,,,,,,,,,,,,,,,zebra,Animals,7,0,7,0,1,,,,,,,,,,,,,,,,,,
,,,,,,,,,,,,,,,90229,001,2022-04-29_13h06.13.355,SPAMnetsValid,2021.1.4,Win32,61.54224875,,,,,,,,,,,,,,,,,,,,,,,,,,,,,,,,,,,,,,,,,,,,,,,,,,,,,,,,,,,,,,,,,dinosaur,Animals,8,0,8,0,1,,,,,,,,,,,,,,,,,,
,,,,,,,,,,,,,,,90229,001,2022-04-29_13h06.13.355,SPAMnetsValid,2021.1.4,Win32,61.54224875,,,,,,,,,,,,,,,,,,,,,,,,,,,,,,,,,,,,,,,,,,,,,,,,,,,,,,,,,,,,,,,,,cheetah,Animals,9,0,9,0,1,,,,,,,,,,,,,,,,,,
,,,,,,,,,,,,,,,90229,001,2022-04-29_13h06.13.355,SPAMnetsValid,2021.1.4,Win32,61.54224875,,,,,,,,,,,,,,,,,,,,,,,,,,,,,,,,,,,,,,,,,,,,,,,,,,,,,,,,,,,,,,,,,leopard,Animals,10,0,10,0,1,,,,,,,,,,,,,,,,,,
,,,,,,,,,,,,,,,90229,001,2022-04-29_13h06.13.355,SPAMnetsValid,2021.1.4,Win32,61.54224875,,,,,,,,,,,,,,,,,,,,,,,,,,,,,,,,,,,,,,,,,,,,,,,,,,,,,,,,,,,,,,,,,jaguar,Animals,11,0,11,0,1,,,,,,,,,,,,,,,,,,
,,,,,,,,,,,,,,,90229,001,2022-04-29_13h06.13.355,SPAMnetsValid,2021.1.4,Win32,61.54224875,,,,,,,,,,,,,,,,,,,,,,,,,,,,,,,,,,,,,,,,,,,,,,,,,,,,,,,,,,,,,,,,,hawk,Animals,12,0,12,0,1,,,,,,,,,,,,,,,,,,
,,,,,,,,,,,,,,,90229,001,2022-04-29_13h06.13.355,SPAMnetsValid,2021.1.4,Win32,61.54224875,,,,,,,,,,,,,,,,,,,,,,,,,,,,,,,,,,,,,,,,,,,,,,,,,,,,,,,,,,,,,,,,,raven,Animals,13,0,13,0,1,,,,,,,,,,,,,,,,,,
,,,,,,,,,,,,,,,90229,001,2022-04-29_13h06.13.355,SPAMnetsValid,2021.1.4,Win32,61.54224875,,,,,,,,,,,,,,,,,,,,,,,,,,,,,,,,,,,,,,,,,,,,,,,,,,,,,,,,,,,,,,,,,tiger,Animals,14,0,14,0,1,,,,,,,,,,,,,,,,,,
,,,,,,,,,,,,,,,90229,001,2022-04-29_13h06.13.355,SPAMnetsValid,2021.1.4,Win32,61.54224875,,,,,,,,,,,,,,,,,,,,,,,,,,,,,,,,,,,,,,,,,,,,,,,,,,,,,,,,,,,,,,,,,lion,Animals,15,0,15,0,1,,,,,,,,,,,,,,,,,,
,,,,,,,,,,,,,,,90229,001,2022-04-29_13h06.13.355,SPAMnetsValid,2021.1.4,Win32,61.54224875,,,,,,,,,,,,,,,,,,,,,,,,,,,,,,,,,,,,,,,,,,,,,,,,,,,,,,,,,,,,,,,,,eagle,Animals,16,0,16,0,1,,,,,,,,,,,,,,,,,,
,,,,,,,,,,,,,,,90229,001,2022-04-29_13h06.13.355,SPAMnetsValid,2021.1.4,Win32,61.54224875,,,,,,,,,,,,,,,,,,,,,,,,,,,,,,,,,,,,,,,,,,,,,,,,,,,,,,,,,,,,,,,,,panther,Animals,17,0,17,0,1,,,,,,,,,,,,,,,,,,
,,,,,,,,,,,,,,,90229,001,2022-04-29_13h06.13.355,SPAMnetsValid,2021.1.4,Win32,61.54224875,,,,,,,,,,,,,,,,,,,,,,,,,,,,,,,,,,,,,,,,,,,,,,,,,,,,,,,,,,,,,,,,,cougar,Animals,18,0,18,0,1,,,,,,,,,,,,,,,,,,
,,,,,,,,,,,,,,,90229,001,2022-04-29_13h06.13.355,SPAMnetsValid,2021.1.4,Win32,61.54224875,,,,,,,,,,,,,,,,,,,,,,,,,,,,,,,,,,,,,,,,,,,,,,,,,,,,,,,,,,,,,,,,,fish,Animals,19,0,19,0,1,,,,,,,,,,,,,,,,,,
,,,,,,,,,,,,,,,90229,001,2022-04-29_13h06.13.355,SPAMnetsValid,2021.1.4,Win32,61.54224875,,,,,,,,,,,,,,,,,,,,,,,,,,,,,,,,,,,,,,,,,,,,,,,,,,,,,,,,,,,,,,,,,whale,Animals,20,0,20,0,1,,,,,,,,,,,,,,,,,,
,,,,,,,,,,,,,,,90229,001,2022-04-29_13h06.13.355,SPAMnetsValid,2021.1.4,Win32,61.54224875,,,,,,,,,,,,,,,,,,,,,,,,,,,,,,,,,,,,,,,,,,,,,,,,,,,,,,,,,,,,,,,,,dolphin,Animals,21,0,21,0,1,,,,,,,,,,,,,,,,,,
,,,,,,,,,,,,,,,90229,001,2022-04-29_13h06.13.355,SPAMnetsValid,2021.1.4,Win32,61.54224875,,,,,,,,,,,,,,,,,,,,,,,,,,,,,,,,,,,,,,,,,,,,,,,,,,,,,,,,,,,,,,,,,ant,Animals,22,0,22,0,1,,,,,,,,,,,,,,,,,,
,,,,,,,,,,,,,,,90229,001,2022-04-29_13h06.13.355,SPAMnetsValid,2021.1.4,Win32,61.54224875,,,,,,,,,,,,,,,,,,,,,,,,,,,,,,,,,,,,,,,,,,,,,,,,,,,,,,,,,,,,,,,,,mosquito,Animals,23,0,23,0,1,,,,,,,,,,,,,,,,,,
,,,,,,,,,,,,,,,90229,001,2022-04-29_13h06.13.355,SPAMnetsValid,2021.1.4,Win32,61.54224875,,,,,,,,,,,,,,,,,,,,,,,,,,,,,,,,,,,,,,,,,,,,,,,,,,,,,,,,,,,,,,,,,monkey,Animals,24,0,24,0,1,,,,,,,,,,,,,,,,,,
,,,,,,,,,,,,,,,90229,001,2022-04-29_13h06.13.355,SPAMnetsValid,2021.1.4,Win32,61.54224875,,,,,,,,,,,,,,,,,,,,,,,,,,,,,,,,,,,,,,,,,,,,,,,,,,,,,,,,,,,,,,,,,ape,Animals,25,0,25,0,1,,,,,,,,,,,,,,,,,,
,,,,,,,,,,,,,,,90229,001,2022-04-29_13h06.13.355,SPAMnetsValid,2021.1.4,Win32,61.54224875,,,,,,,,,,,,,,,,,,,,,,,,,,,,,,,,,,,,,,,,,,,,,,,,,,,,,,,,,,,,,,,,,gorilla,Animals,26,0,26,0,1,,,,,,,,,,,,,,,,,,
,,,,,,,,,,,,,,,90229,001,2022-04-29_13h06.13.355,SPAMnetsValid,2021.1.4,Win32,61.54224875,,,,,,,,,,,,,,,,,,,,,,,,,,,,,,,,,,,,,,,,,,,,,,,,,,,,,,,,,,,,,,,,,chimpanzee,Animals,27,0,27,0,1,,,,,,,,,,,,,,,,,,
,,,,,,,,,,,,,,,90229,001,2022-04-29_13h06.13.355,SPAMnetsValid,2021.1.4,Win32,61.54224875,,,,,,,,,,,,,,,,,,,,,,,,,,,,,,,,,,,,,,,,,,,,,,,,,,,,,,,,,,,,,,,,,wolf,Animals,28,0,28,0,1,,,,,,,,,,,,,,,,,,
,,,,,,,,,,,,,,,90229,001,2022-04-29_13h06.13.355,SPAMnetsValid,2021.1.4,Win32,61.54224875,,,,,,,,,,,,,,,,,,,,,,,,,,,,,,,,,,,,,,,,,,,,,,,,,,,,,,,,,,,,,,,,,coyote,Animals,29,0,29,0,1,,,,,,,,,,,,,,,,,,
,,,,,,,,,,,,,,,90229,001,2022-04-29_13h06.13.355,SPAMnetsValid,2021.1.4,Win32,61.54224875,,,,,,,,,,,,,,,,,,,,,,,,,,,,,,,,,,,,,,,,,,,,,,,,,,,,,,,,,,,,,,,,,fox,Animals,30,0,30,0,1,,,,,,,,,,,,,,,,,,
,,,,,,,,,,,,,,,90229,001,2022-04-29_13h06.13.355,SPAMnetsValid,2021.1.4,Win32,61.54224875,,,,,,,,,,,,,,,,,,,,,,,,,,,,,,,,,,,,,,,,,,,,,,,,,,,,,,,,,,,,,,,,,ox,Animals,31,0,31,0,1,,,,,,,,,,,,,,,,,,
,,,,,,,,,,,,,,,90229,001,2022-04-29_13h06.13.355,SPAMnetsValid,2021.1.4,Win32,61.54224875,,,,,,,,,,,,,,,,,,,,,,,,,,,,,,,,,,,,,,,,,,,,,,,,,,,,,,,,,,,,,,,,,deer,Animals,32,0,32,0,1,,,,,,,,,,,,,,,,,,
,,,,,,,,,,,,,,,90229,001,2022-04-29_13h06.13.355,SPAMnetsValid,2021.1.4,Win32,61.54224875,,,,,,,,,,,,,,,,,,,,,,,,,,,,,,,,,,,,,,,,,,,,,,,,,,,,,,,,,,,,,,,,,rabbit,Animals,33,0,33,0,1,,,,,,,,,,,,,,,,,,
,,,,,,,,,,,,,,,90229,001,2022-04-29_13h06.13.355,SPAMnetsValid,2021.1.4,Win32,61.54224875,,,,,,,,,,,,,,,,,,,,,,,,,,,,,,,,,,,,,,,,,,,,,,,,,,,,,,,,,,,,,,,,,,,,,,,,0,0,0,0,1,Animals,,,,,,,,,,,,
,,,,,,,,,,,,,,,90229,001,2022-04-29_13h06.13.355,SPAMnetsValid,2021.1.4,Win32,61.54224875,,,,,,,,,,,,,,,,,,,,,,,,,,,,,,,,,,,,,,,,,,,,,,,,,,,,,,,,,,,,,,,,,,,,,,,,,,,,,,5,5.7224,0,0,0,0,1,"I enjoy concentrating on a fantasy or daydream and exploring all its possibilities, letting it grow and develop.",0,1,,
,,,,,,,,,,,,,,,90229,001,2022-04-29_13h06.13.355,SPAMnetsValid,2021.1.4,Win32,61.54224875,,,,,,,,,,,,,,,,,,,,,,,,,,,,,,,,,,,,,,,,,,,,,,,,,,,,,,,,,,,,,,,,,,,,,,,,,,,,,,5,2.3187,0,1,1,1,1,I think it's interesting to learn and develop new hobbies.,0,2,,
,,,,,,,,,,,,,,,90229,001,2022-04-29_13h06.13.355,SPAMnetsValid,2021.1.4,Win32,61.54224875,,,,,,,,,,,,,,,,,,,,,,,,,,,,,,,,,,,,,,,,,,,,,,,,,,,,,,,,,,,,,,,,,,,,,,,,,,,,,,5,3.2502,0,2,2,2,1,I am intrigued by the patterns I find in art and nature.,0,3,,
,,,,,,,,,,,,,,,90229,001,2022-04-29_13h06.13.355,SPAMnetsValid,2021.1.4,Win32,61.54224875,,,,,,,,,,,,,,,,,,,,,,,,,,,,,,,,,,,,,,,,,,,,,,,,,,,,,,,,,,,,,,,,,,,,,,,,,,,,,,4,8.3878,0,3,3,3,1,I believe letting students hear controversial speakers can only confuse and mislead them.,1,4,,
,,,,,,,,,,,,,,,90229,001,2022-04-29_13h06.13.355,SPAMnetsValid,2021.1.4,Win32,61.54224875,,,,,,,,,,,,,,,,,,,,,,,,,,,,,,,,,,,,,,,,,,,,,,,,,,,,,,,,,,,,,,,,,,,,,,,,,,,,,,4,2.629,0,4,4,4,1,Poetry has little or no effect on me.,1,5,,
,,,,,,,,,,,,,,,90229,001,2022-04-29_13h06.13.355,SPAMnetsValid,2021.1.4,Win32,61.54224875,,,,,,,,,,,,,,,,,,,,,,,,,,,,,,,,,,,,,,,,,,,,,,,,,,,,,,,,,,,,,,,,,,,,,,,,,,,,,,2,4.5177,0,5,5,5,1,I would have difficulty just letting my mind wander without control or guidance.,1,6,,
,,,,,,,,,,,,,,,90229,001,2022-04-29_13h06.13.355,SPAMnetsValid,2021.1.4,Win32,61.54224875,,,,,,,,,,,,,,,,,,,,,,,,,,,,,,,,,,,,,,,,,,,,,,,,,,,,,,,,,,,,,,,,,,,,,,,,,,,,,,2,5.878,0,6,6,6,1,I seldom notice the moods or feelings that different environments produce.,1,7,,
,,,,,,,,,,,,,,,90229,001,2022-04-29_13h06.13.355,SPAMnetsValid,2021.1.4,Win32,61.54224875,,,,,,,,,,,,,,,,,,,,,,,,,,,,,,,,,,,,,,,,,,,,,,,,,,,,,,,,,,,,,,,,,,,,,,,,,,,,,,4,1.9903,0,7,7,7,1,I experience a wide range of emotions or feelings.,0,8,,
,,,,,,,,,,,,,,,90229,001,2022-04-29_13h06.13.355,SPAMnetsValid,2021.1.4,Win32,61.54224875,,,,,,,,,,,,,,,,,,,,,,,,,,,,,,,,,,,,,,,,,,,,,,,,,,,,,,,,,,,,,,,,,,,,,,,,,,,,,,4,4.7543,0,8,8,8,1,"Sometimes when I am reading poetry or looking at a work of art, I feel a chill or wave of excitement.",0,9,,
,,,,,,,,,,,,,,,90229,001,2022-04-29_13h06.13.355,SPAMnetsValid,2021.1.4,Win32,61.54224875,,,,,,,,,,,,,,,,,,,,,,,,,,,,,,,,,,,,,,,,,,,,,,,,,,,,,,,,,,,,,,,,,,,,,,,,,,,,,,2,2.9909,0,9,9,9,1,I have little interest in speculating on the nature of the universe or the human condition.,1,10,,
,,,,,,,,,,,,,,,90229,001,2022-04-29_13h06.13.355,SPAMnetsValid,2021.1.4,Win32,61.54224875,,,,,,,,,,,,,,,,,,,,,,,,,,,,,,,,,,,,,,,,,,,,,,,,,,,,,,,,,,,,,,,,,,,,,,,,,,,,,,4,2.1073,0,10,10,10,1,I have a lot of intellectual curiosity.,0,11,,
,,,,,,,,,,,,,,,90229,001,2022-04-29_13h06.13.355,SPAMnetsValid,2021.1.4,Win32,61.54224875,,,,,,,,,,,,,,,,,,,,,,,,,,,,,,,,,,,,,,,,,,,,,,,,,,,,,,,,,,,,,,,,,,,,,,,,,,,,,,4,2.0795,0,11,11,11,1,I often enjoy playing with theories or abstract ideas.,0,12,,
,,,,,,,,,,,,,,,90229,001,2022-04-29_13h06.13.355,SPAMnetsValid,2021.1.4,Win32,61.54224875,,,,,,,,,,,,,,,,,,,,,,,,,,,,,,,,,,,,,,,,,,,,,,,,,,,,,,,,,,,,,,,,,,,,,,,,,,,,,,,,,,,,,,,,return,9.5258
