key_resp_3.keys,key_resp_3.rt,slider_2.response,slider_2.rt,rjt_rating,rjt_RT,trials_24.thisRepN,trials_24.thisTrialN,trials_24.thisN,trials_24.thisIndex,trials_24.ran,rjt_order,word1,word2,attention,participant,session,date,expName,psychopyVersion,OS,frameRate,trials_4.thisRepN,trials_4.thisTrialN,trials_4.thisN,trials_4.thisIndex,trials_4.ran,trials_5.thisRepN,trials_5.thisTrialN,trials_5.thisN,trials_5.thisIndex,trials_5.ran,repOne,repTwo,slider.response,slider.rt,trials_22.thisRepN,trials_22.thisTrialN,trials_22.thisN,trials_22.thisIndex,trials_22.ran,trials_99.thisRepN,trials_99.thisTrialN,trials_99.thisN,trials_99.thisIndex,trials_99.ran,slider_extend_2.response,slider_extend_2.rt,trials_6.thisRepN,trials_6.thisTrialN,trials_6.thisN,trials_6.thisIndex,trials_6.ran,vCue2,R1,R2,R3,R4,correct,sliderVocab.response,sliderVocab.rt,trials_7.thisRepN,trials_7.thisTrialN,trials_7.thisN,trials_7.thisIndex,trials_7.ran,VocabCue,VR1,VR2,VR3,VR4,VR5,VocabCorrect,AUT_resp,AUT_label,trials.thisRepN,trials.thisTrialN,trials.thisN,trials.thisIndex,trials.ran,trials_2.thisRepN,trials_2.thisTrialN,trials_2.thisN,trials_2.thisIndex,trials_2.ran,aut_prompt,VF_response,VF_tag,trials_16.thisRepN,trials_16.thisTrialN,trials_16.thisN,trials_16.thisIndex,trials_16.ran,trials_17.thisRepN,trials_17.thisTrialN,trials_17.thisN,trials_17.thisIndex,trials_17.ran,VFcond,open_slider.response,open_slider.rt,trials_3.thisRepN,trials_3.thisTrialN,trials_3.thisN,trials_3.thisIndex,trials_3.ran,OpenQ,Rev,OPEN_ORDER,key_resp_2.keys,key_resp_2.rt
return,3.014,7,2.536,7,2.536,0,0,0,41,1,175,melon,onion,,90236,001,2022-04-29_15h06.04.343,SPAMnetsValid,2021.1.4,MacIntel,60.0240096,,,,,,,,,,,,,,,,,,,,,,,,,,,,,,,,,,,,,,,,,,,,,,,,,,,,,,,,,,,,,,,,,,,,,,,,,,,,,,,,,,,,,,,,,
,,4,3.184,4,3.184,0,1,1,12,1,162,microwave,tomato,,90236,001,2022-04-29_15h06.04.343,SPAMnetsValid,2021.1.4,MacIntel,60.0240096,,,,,,,,,,,,,,,,,,,,,,,,,,,,,,,,,,,,,,,,,,,,,,,,,,,,,,,,,,,,,,,,,,,,,,,,,,,,,,,,,,,,,,,,,
,,9,1.561,9,1.561,0,2,2,29,1,163,melon,refrigerator,,90236,001,2022-04-29_15h06.04.343,SPAMnetsValid,2021.1.4,MacIntel,60.0240096,,,,,,,,,,,,,,,,,,,,,,,,,,,,,,,,,,,,,,,,,,,,,,,,,,,,,,,,,,,,,,,,,,,,,,,,,,,,,,,,,,,,,,,,,
,,9,1.488,9,1.488,0,3,3,25,1,194,cactus,cactus,CHECK,90236,001,2022-04-29_15h06.04.343,SPAMnetsValid,2021.1.4,MacIntel,60.0240096,,,,,,,,,,,,,,,,,,,,,,,,,,,,,,,,,,,,,,,,,,,,,,,,,,,,,,,,,,,,,,,,,,,,,,,,,,,,,,,,,,,,,,,,,
,,1,1.538,1,1.538,0,4,4,71,1,187,cactus,microwave,,90236,001,2022-04-29_15h06.04.343,SPAMnetsValid,2021.1.4,MacIntel,60.0240096,,,,,,,,,,,,,,,,,,,,,,,,,,,,,,,,,,,,,,,,,,,,,,,,,,,,,,,,,,,,,,,,,,,,,,,,,,,,,,,,,,,,,,,,,
,,2,1.695,2,1.695,0,5,5,90,1,190,microwave,strawberry,,90236,001,2022-04-29_15h06.04.343,SPAMnetsValid,2021.1.4,MacIntel,60.0240096,,,,,,,,,,,,,,,,,,,,,,,,,,,,,,,,,,,,,,,,,,,,,,,,,,,,,,,,,,,,,,,,,,,,,,,,,,,,,,,,,,,,,,,,,
,,3,1.444,3,1.444,0,6,6,94,1,133,cake,flower,,90236,001,2022-04-29_15h06.04.343,SPAMnetsValid,2021.1.4,MacIntel,60.0240096,,,,,,,,,,,,,,,,,,,,,,,,,,,,,,,,,,,,,,,,,,,,,,,,,,,,,,,,,,,,,,,,,,,,,,,,,,,,,,,,,,,,,,,,,
,,2,1.525,2,1.525,0,7,7,10,1,118,chocolate,oven,,90236,001,2022-04-29_15h06.04.343,SPAMnetsValid,2021.1.4,MacIntel,60.0240096,,,,,,,,,,,,,,,,,,,,,,,,,,,,,,,,,,,,,,,,,,,,,,,,,,,,,,,,,,,,,,,,,,,,,,,,,,,,,,,,,,,,,,,,,
,,3,1.499,3,1.499,0,8,8,58,1,144,cake,garden,,90236,001,2022-04-29_15h06.04.343,SPAMnetsValid,2021.1.4,MacIntel,60.0240096,,,,,,,,,,,,,,,,,,,,,,,,,,,,,,,,,,,,,,,,,,,,,,,,,,,,,,,,,,,,,,,,,,,,,,,,,,,,,,,,,,,,,,,,,
,,7,1.488,7,1.488,0,9,9,40,1,165,onion,rose,,90236,001,2022-04-29_15h06.04.343,SPAMnetsValid,2021.1.4,MacIntel,60.0240096,,,,,,,,,,,,,,,,,,,,,,,,,,,,,,,,,,,,,,,,,,,,,,,,,,,,,,,,,,,,,,,,,,,,,,,,,,,,,,,,,,,,,,,,,
,,8,1.112,8,1.112,0,10,10,26,1,107,rose,tomato,,90236,001,2022-04-29_15h06.04.343,SPAMnetsValid,2021.1.4,MacIntel,60.0240096,,,,,,,,,,,,,,,,,,,,,,,,,,,,,,,,,,,,,,,,,,,,,,,,,,,,,,,,,,,,,,,,,,,,,,,,,,,,,,,,,,,,,,,,,
,,8,2.324,8,2.324,0,11,11,43,1,185,cactus,rose,,90236,001,2022-04-29_15h06.04.343,SPAMnetsValid,2021.1.4,MacIntel,60.0240096,,,,,,,,,,,,,,,,,,,,,,,,,,,,,,,,,,,,,,,,,,,,,,,,,,,,,,,,,,,,,,,,,,,,,,,,,,,,,,,,,,,,,,,,,
,,2,1.189,2,1.189,0,12,12,46,1,123,cookie,tree,,90236,001,2022-04-29_15h06.04.343,SPAMnetsValid,2021.1.4,MacIntel,60.0240096,,,,,,,,,,,,,,,,,,,,,,,,,,,,,,,,,,,,,,,,,,,,,,,,,,,,,,,,,,,,,,,,,,,,,,,,,,,,,,,,,,,,,,,,,
,,9,1.739,9,1.739,0,13,13,7,1,188,flower,tree,,90236,001,2022-04-29_15h06.04.343,SPAMnetsValid,2021.1.4,MacIntel,60.0240096,,,,,,,,,,,,,,,,,,,,,,,,,,,,,,,,,,,,,,,,,,,,,,,,,,,,,,,,,,,,,,,,,,,,,,,,,,,,,,,,,,,,,,,,,
,,2,1.114,2,1.114,0,14,14,88,1,171,cake,tomato,,90236,001,2022-04-29_15h06.04.343,SPAMnetsValid,2021.1.4,MacIntel,60.0240096,,,,,,,,,,,,,,,,,,,,,,,,,,,,,,,,,,,,,,,,,,,,,,,,,,,,,,,,,,,,,,,,,,,,,,,,,,,,,,,,,,,,,,,,,
,,9,1.138,9,1.138,0,15,15,22,1,142,garden,tree,,90236,001,2022-04-29_15h06.04.343,SPAMnetsValid,2021.1.4,MacIntel,60.0240096,,,,,,,,,,,,,,,,,,,,,,,,,,,,,,,,,,,,,,,,,,,,,,,,,,,,,,,,,,,,,,,,,,,,,,,,,,,,,,,,,,,,,,,,,
,,3,2.228,3,2.228,0,16,16,82,1,98,pretzel,strawberry,,90236,001,2022-04-29_15h06.04.343,SPAMnetsValid,2021.1.4,MacIntel,60.0240096,,,,,,,,,,,,,,,,,,,,,,,,,,,,,,,,,,,,,,,,,,,,,,,,,,,,,,,,,,,,,,,,,,,,,,,,,,,,,,,,,,,,,,,,,
,,3,1.088,3,1.088,0,17,17,2,1,174,cake,pretzel,,90236,001,2022-04-29_15h06.04.343,SPAMnetsValid,2021.1.4,MacIntel,60.0240096,,,,,,,,,,,,,,,,,,,,,,,,,,,,,,,,,,,,,,,,,,,,,,,,,,,,,,,,,,,,,,,,,,,,,,,,,,,,,,,,,,,,,,,,,
,,8,1.155,8,1.155,0,18,18,91,1,166,cake,yogurt,,90236,001,2022-04-29_15h06.04.343,SPAMnetsValid,2021.1.4,MacIntel,60.0240096,,,,,,,,,,,,,,,,,,,,,,,,,,,,,,,,,,,,,,,,,,,,,,,,,,,,,,,,,,,,,,,,,,,,,,,,,,,,,,,,,,,,,,,,,
,,2,1.371,2,1.371,0,19,19,36,1,161,kitchen,pretzel,,90236,001,2022-04-29_15h06.04.343,SPAMnetsValid,2021.1.4,MacIntel,60.0240096,,,,,,,,,,,,,,,,,,,,,,,,,,,,,,,,,,,,,,,,,,,,,,,,,,,,,,,,,,,,,,,,,,,,,,,,,,,,,,,,,,,,,,,,,
,,8,1.607,8,1.607,0,20,20,48,1,186,kitchen,yogurt,,90236,001,2022-04-29_15h06.04.343,SPAMnetsValid,2021.1.4,MacIntel,60.0240096,,,,,,,,,,,,,,,,,,,,,,,,,,,,,,,,,,,,,,,,,,,,,,,,,,,,,,,,,,,,,,,,,,,,,,,,,,,,,,,,,,,,,,,,,
,,3,1.539,3,1.539,0,21,21,84,1,130,microwave,yogurt,,90236,001,2022-04-29_15h06.04.343,SPAMnetsValid,2021.1.4,MacIntel,60.0240096,,,,,,,,,,,,,,,,,,,,,,,,,,,,,,,,,,,,,,,,,,,,,,,,,,,,,,,,,,,,,,,,,,,,,,,,,,,,,,,,,,,,,,,,,
,,9,1.155,9,1.155,0,22,22,14,1,120,microwave,oven,,90236,001,2022-04-29_15h06.04.343,SPAMnetsValid,2021.1.4,MacIntel,60.0240096,,,,,,,,,,,,,,,,,,,,,,,,,,,,,,,,,,,,,,,,,,,,,,,,,,,,,,,,,,,,,,,,,,,,,,,,,,,,,,,,,,,,,,,,,
,,8,1.376,8,1.376,0,23,23,47,1,167,carrot,garden,,90236,001,2022-04-29_15h06.04.343,SPAMnetsValid,2021.1.4,MacIntel,60.0240096,,,,,,,,,,,,,,,,,,,,,,,,,,,,,,,,,,,,,,,,,,,,,,,,,,,,,,,,,,,,,,,,,,,,,,,,,,,,,,,,,,,,,,,,,
,,2,1.055,2,1.055,0,24,24,5,1,108,carrot,chocolate,,90236,001,2022-04-29_15h06.04.343,SPAMnetsValid,2021.1.4,MacIntel,60.0240096,,,,,,,,,,,,,,,,,,,,,,,,,,,,,,,,,,,,,,,,,,,,,,,,,,,,,,,,,,,,,,,,,,,,,,,,,,,,,,,,,,,,,,,,,
,,8,2.074,8,2.074,0,25,25,85,1,115,refrigerator,tomato,,90236,001,2022-04-29_15h06.04.343,SPAMnetsValid,2021.1.4,MacIntel,60.0240096,,,,,,,,,,,,,,,,,,,,,,,,,,,,,,,,,,,,,,,,,,,,,,,,,,,,,,,,,,,,,,,,,,,,,,,,,,,,,,,,,,,,,,,,,
,,8,1.548,8,1.548,0,26,26,51,1,168,cactus,flower,,90236,001,2022-04-29_15h06.04.343,SPAMnetsValid,2021.1.4,MacIntel,60.0240096,,,,,,,,,,,,,,,,,,,,,,,,,,,,,,,,,,,,,,,,,,,,,,,,,,,,,,,,,,,,,,,,,,,,,,,,,,,,,,,,,,,,,,,,,
,,3,1.121,3,1.121,0,27,27,9,1,176,cactus,tomato,,90236,001,2022-04-29_15h06.04.343,SPAMnetsValid,2021.1.4,MacIntel,60.0240096,,,,,,,,,,,,,,,,,,,,,,,,,,,,,,,,,,,,,,,,,,,,,,,,,,,,,,,,,,,,,,,,,,,,,,,,,,,,,,,,,,,,,,,,,
,,2,1.048,2,1.048,0,28,28,42,1,184,oven,pretzel,,90236,001,2022-04-29_15h06.04.343,SPAMnetsValid,2021.1.4,MacIntel,60.0240096,,,,,,,,,,,,,,,,,,,,,,,,,,,,,,,,,,,,,,,,,,,,,,,,,,,,,,,,,,,,,,,,,,,,,,,,,,,,,,,,,,,,,,,,,
,,9,1.546,9,1.546,0,29,29,86,1,193,melon,melon,CHECK,90236,001,2022-04-29_15h06.04.343,SPAMnetsValid,2021.1.4,MacIntel,60.0240096,,,,,,,,,,,,,,,,,,,,,,,,,,,,,,,,,,,,,,,,,,,,,,,,,,,,,,,,,,,,,,,,,,,,,,,,,,,,,,,,,,,,,,,,,
,,7,0.974,7,0.974,0,30,30,23,1,148,flower,melon,,90236,001,2022-04-29_15h06.04.343,SPAMnetsValid,2021.1.4,MacIntel,60.0240096,,,,,,,,,,,,,,,,,,,,,,,,,,,,,,,,,,,,,,,,,,,,,,,,,,,,,,,,,,,,,,,,,,,,,,,,,,,,,,,,,,,,,,,,,
,,3,1.006,3,1.006,0,31,31,16,1,111,carrot,microwave,,90236,001,2022-04-29_15h06.04.343,SPAMnetsValid,2021.1.4,MacIntel,60.0240096,,,,,,,,,,,,,,,,,,,,,,,,,,,,,,,,,,,,,,,,,,,,,,,,,,,,,,,,,,,,,,,,,,,,,,,,,,,,,,,,,,,,,,,,,
,,1,1.271,1,1.271,0,32,32,89,1,140,cookie,refrigerator,,90236,001,2022-04-29_15h06.04.343,SPAMnetsValid,2021.1.4,MacIntel,60.0240096,,,,,,,,,,,,,,,,,,,,,,,,,,,,,,,,,,,,,,,,,,,,,,,,,,,,,,,,,,,,,,,,,,,,,,,,,,,,,,,,,,,,,,,,,
,,9,1.473,9,1.473,0,33,33,27,1,158,cookie,oven,,90236,001,2022-04-29_15h06.04.343,SPAMnetsValid,2021.1.4,MacIntel,60.0240096,,,,,,,,,,,,,,,,,,,,,,,,,,,,,,,,,,,,,,,,,,,,,,,,,,,,,,,,,,,,,,,,,,,,,,,,,,,,,,,,,,,,,,,,,
,,3,1.542,3,1.542,0,34,34,95,1,121,broom,microwave,,90236,001,2022-04-29_15h06.04.343,SPAMnetsValid,2021.1.4,MacIntel,60.0240096,,,,,,,,,,,,,,,,,,,,,,,,,,,,,,,,,,,,,,,,,,,,,,,,,,,,,,,,,,,,,,,,,,,,,,,,,,,,,,,,,,,,,,,,,
,,2,0.831,2,0.831,0,35,35,4,1,109,broom,strawberry,,90236,001,2022-04-29_15h06.04.343,SPAMnetsValid,2021.1.4,MacIntel,60.0240096,,,,,,,,,,,,,,,,,,,,,,,,,,,,,,,,,,,,,,,,,,,,,,,,,,,,,,,,,,,,,,,,,,,,,,,,,,,,,,,,,,,,,,,,,
,,9,1.185,9,1.185,0,36,36,66,1,150,microwave,refrigerator,,90236,001,2022-04-29_15h06.04.343,SPAMnetsValid,2021.1.4,MacIntel,60.0240096,,,,,,,,,,,,,,,,,,,,,,,,,,,,,,,,,,,,,,,,,,,,,,,,,,,,,,,,,,,,,,,,,,,,,,,,,,,,,,,,,,,,,,,,,
,,2,0.938,2,0.938,0,37,37,64,1,157,refrigerator,rose,,90236,001,2022-04-29_15h06.04.343,SPAMnetsValid,2021.1.4,MacIntel,60.0240096,,,,,,,,,,,,,,,,,,,,,,,,,,,,,,,,,,,,,,,,,,,,,,,,,,,,,,,,,,,,,,,,,,,,,,,,,,,,,,,,,,,,,,,,,
,,8,1.204,8,1.204,0,38,38,56,1,113,refrigerator,strawberry,,90236,001,2022-04-29_15h06.04.343,SPAMnetsValid,2021.1.4,MacIntel,60.0240096,,,,,,,,,,,,,,,,,,,,,,,,,,,,,,,,,,,,,,,,,,,,,,,,,,,,,,,,,,,,,,,,,,,,,,,,,,,,,,,,,,,,,,,,,
,,3,1.181,3,1.181,0,39,39,19,1,183,cake,rose,,90236,001,2022-04-29_15h06.04.343,SPAMnetsValid,2021.1.4,MacIntel,60.0240096,,,,,,,,,,,,,,,,,,,,,,,,,,,,,,,,,,,,,,,,,,,,,,,,,,,,,,,,,,,,,,,,,,,,,,,,,,,,,,,,,,,,,,,,,
,,3,2.98,3,2.98,0,40,40,30,1,125,carrot,tree,,90236,001,2022-04-29_15h06.04.343,SPAMnetsValid,2021.1.4,MacIntel,60.0240096,,,,,,,,,,,,,,,,,,,,,,,,,,,,,,,,,,,,,,,,,,,,,,,,,,,,,,,,,,,,,,,,,,,,,,,,,,,,,,,,,,,,,,,,,
,,2,1.4,2,1.4,0,41,41,57,1,127,cactus,chocolate,,90236,001,2022-04-29_15h06.04.343,SPAMnetsValid,2021.1.4,MacIntel,60.0240096,,,,,,,,,,,,,,,,,,,,,,,,,,,,,,,,,,,,,,,,,,,,,,,,,,,,,,,,,,,,,,,,,,,,,,,,,,,,,,,,,,,,,,,,,
,,7,1.449,7,1.449,0,42,42,72,1,181,carrot,kitchen,,90236,001,2022-04-29_15h06.04.343,SPAMnetsValid,2021.1.4,MacIntel,60.0240096,,,,,,,,,,,,,,,,,,,,,,,,,,,,,,,,,,,,,,,,,,,,,,,,,,,,,,,,,,,,,,,,,,,,,,,,,,,,,,,,,,,,,,,,,
,,8,2.088,8,2.088,0,43,43,39,1,112,cake,carrot,,90236,001,2022-04-29_15h06.04.343,SPAMnetsValid,2021.1.4,MacIntel,60.0240096,,,,,,,,,,,,,,,,,,,,,,,,,,,,,,,,,,,,,,,,,,,,,,,,,,,,,,,,,,,,,,,,,,,,,,,,,,,,,,,,,,,,,,,,,
,,3,0.99,3,0.99,0,44,44,73,1,135,carrot,oven,,90236,001,2022-04-29_15h06.04.343,SPAMnetsValid,2021.1.4,MacIntel,60.0240096,,,,,,,,,,,,,,,,,,,,,,,,,,,,,,,,,,,,,,,,,,,,,,,,,,,,,,,,,,,,,,,,,,,,,,,,,,,,,,,,,,,,,,,,,
,,7,1.155,7,1.155,0,45,45,77,1,172,kitchen,melon,,90236,001,2022-04-29_15h06.04.343,SPAMnetsValid,2021.1.4,MacIntel,60.0240096,,,,,,,,,,,,,,,,,,,,,,,,,,,,,,,,,,,,,,,,,,,,,,,,,,,,,,,,,,,,,,,,,,,,,,,,,,,,,,,,,,,,,,,,,
,,1,0.957,1,0.957,0,46,46,63,1,137,microwave,tree,,90236,001,2022-04-29_15h06.04.343,SPAMnetsValid,2021.1.4,MacIntel,60.0240096,,,,,,,,,,,,,,,,,,,,,,,,,,,,,,,,,,,,,,,,,,,,,,,,,,,,,,,,,,,,,,,,,,,,,,,,,,,,,,,,,,,,,,,,,
,,3,0.963,3,0.963,0,47,47,45,1,179,broom,oven,,90236,001,2022-04-29_15h06.04.343,SPAMnetsValid,2021.1.4,MacIntel,60.0240096,,,,,,,,,,,,,,,,,,,,,,,,,,,,,,,,,,,,,,,,,,,,,,,,,,,,,,,,,,,,,,,,,,,,,,,,,,,,,,,,,,,,,,,,,
,,9,1.549,9,1.549,0,48,48,11,1,117,melon,strawberry,,90236,001,2022-04-29_15h06.04.343,SPAMnetsValid,2021.1.4,MacIntel,60.0240096,,,,,,,,,,,,,,,,,,,,,,,,,,,,,,,,,,,,,,,,,,,,,,,,,,,,,,,,,,,,,,,,,,,,,,,,,,,,,,,,,,,,,,,,,
,,9,1.243,9,1.243,0,49,49,28,1,154,strawberry,yogurt,,90236,001,2022-04-29_15h06.04.343,SPAMnetsValid,2021.1.4,MacIntel,60.0240096,,,,,,,,,,,,,,,,,,,,,,,,,,,,,,,,,,,,,,,,,,,,,,,,,,,,,,,,,,,,,,,,,,,,,,,,,,,,,,,,,,,,,,,,,
,,3,1.989,3,1.989,0,50,50,6,1,151,microwave,onion,,90236,001,2022-04-29_15h06.04.343,SPAMnetsValid,2021.1.4,MacIntel,60.0240096,,,,,,,,,,,,,,,,,,,,,,,,,,,,,,,,,,,,,,,,,,,,,,,,,,,,,,,,,,,,,,,,,,,,,,,,,,,,,,,,,,,,,,,,,
,,8,1.428,8,1.428,0,51,51,52,1,110,chocolate,cookie,,90236,001,2022-04-29_15h06.04.343,SPAMnetsValid,2021.1.4,MacIntel,60.0240096,,,,,,,,,,,,,,,,,,,,,,,,,,,,,,,,,,,,,,,,,,,,,,,,,,,,,,,,,,,,,,,,,,,,,,,,,,,,,,,,,,,,,,,,,
,,3,1.689,3,1.689,0,52,52,38,1,155,carrot,cookie,,90236,001,2022-04-29_15h06.04.343,SPAMnetsValid,2021.1.4,MacIntel,60.0240096,,,,,,,,,,,,,,,,,,,,,,,,,,,,,,,,,,,,,,,,,,,,,,,,,,,,,,,,,,,,,,,,,,,,,,,,,,,,,,,,,,,,,,,,,
,,3,0.954,3,0.954,0,53,53,78,1,132,broom,tree,,90236,001,2022-04-29_15h06.04.343,SPAMnetsValid,2021.1.4,MacIntel,60.0240096,,,,,,,,,,,,,,,,,,,,,,,,,,,,,,,,,,,,,,,,,,,,,,,,,,,,,,,,,,,,,,,,,,,,,,,,,,,,,,,,,,,,,,,,,
,,2,1.138,2,1.138,0,54,54,55,1,143,pretzel,rose,,90236,001,2022-04-29_15h06.04.343,SPAMnetsValid,2021.1.4,MacIntel,60.0240096,,,,,,,,,,,,,,,,,,,,,,,,,,,,,,,,,,,,,,,,,,,,,,,,,,,,,,,,,,,,,,,,,,,,,,,,,,,,,,,,,,,,,,,,,
,,7,1.009,7,1.009,0,55,55,37,1,139,carrot,strawberry,,90236,001,2022-04-29_15h06.04.343,SPAMnetsValid,2021.1.4,MacIntel,60.0240096,,,,,,,,,,,,,,,,,,,,,,,,,,,,,,,,,,,,,,,,,,,,,,,,,,,,,,,,,,,,,,,,,,,,,,,,,,,,,,,,,,,,,,,,,
,,2,1.076,2,1.076,0,56,56,34,1,153,carrot,pretzel,,90236,001,2022-04-29_15h06.04.343,SPAMnetsValid,2021.1.4,MacIntel,60.0240096,,,,,,,,,,,,,,,,,,,,,,,,,,,,,,,,,,,,,,,,,,,,,,,,,,,,,,,,,,,,,,,,,,,,,,,,,,,,,,,,,,,,,,,,,
,,4,1.499,4,1.499,0,57,57,15,1,145,cactus,yogurt,,90236,001,2022-04-29_15h06.04.343,SPAMnetsValid,2021.1.4,MacIntel,60.0240096,,,,,,,,,,,,,,,,,,,,,,,,,,,,,,,,,,,,,,,,,,,,,,,,,,,,,,,,,,,,,,,,,,,,,,,,,,,,,,,,,,,,,,,,,
,,2,1.663,2,1.663,0,58,58,67,1,96,oven,strawberry,,90236,001,2022-04-29_15h06.04.343,SPAMnetsValid,2021.1.4,MacIntel,60.0240096,,,,,,,,,,,,,,,,,,,,,,,,,,,,,,,,,,,,,,,,,,,,,,,,,,,,,,,,,,,,,,,,,,,,,,,,,,,,,,,,,,,,,,,,,
,,7,1.054,7,1.054,0,59,59,31,1,156,melon,rose,,90236,001,2022-04-29_15h06.04.343,SPAMnetsValid,2021.1.4,MacIntel,60.0240096,,,,,,,,,,,,,,,,,,,,,,,,,,,,,,,,,,,,,,,,,,,,,,,,,,,,,,,,,,,,,,,,,,,,,,,,,,,,,,,,,,,,,,,,,
,,2,1.072,2,1.072,0,60,60,50,1,126,kitchen,tree,,90236,001,2022-04-29_15h06.04.343,SPAMnetsValid,2021.1.4,MacIntel,60.0240096,,,,,,,,,,,,,,,,,,,,,,,,,,,,,,,,,,,,,,,,,,,,,,,,,,,,,,,,,,,,,,,,,,,,,,,,,,,,,,,,,,,,,,,,,
,,8,1.238,8,1.238,0,61,61,44,1,116,cake,chocolate,,90236,001,2022-04-29_15h06.04.343,SPAMnetsValid,2021.1.4,MacIntel,60.0240096,,,,,,,,,,,,,,,,,,,,,,,,,,,,,,,,,,,,,,,,,,,,,,,,,,,,,,,,,,,,,,,,,,,,,,,,,,,,,,,,,,,,,,,,,
,,7,1.625,7,1.625,0,62,62,62,1,189,onion,tree,,90236,001,2022-04-29_15h06.04.343,SPAMnetsValid,2021.1.4,MacIntel,60.0240096,,,,,,,,,,,,,,,,,,,,,,,,,,,,,,,,,,,,,,,,,,,,,,,,,,,,,,,,,,,,,,,,,,,,,,,,,,,,,,,,,,,,,,,,,
,,2,1.162,2,1.162,0,63,63,21,1,159,cookie,flower,,90236,001,2022-04-29_15h06.04.343,SPAMnetsValid,2021.1.4,MacIntel,60.0240096,,,,,,,,,,,,,,,,,,,,,,,,,,,,,,,,,,,,,,,,,,,,,,,,,,,,,,,,,,,,,,,,,,,,,,,,,,,,,,,,,,,,,,,,,
,,3,0.907,3,0.907,0,64,64,49,1,152,cactus,strawberry,,90236,001,2022-04-29_15h06.04.343,SPAMnetsValid,2021.1.4,MacIntel,60.0240096,,,,,,,,,,,,,,,,,,,,,,,,,,,,,,,,,,,,,,,,,,,,,,,,,,,,,,,,,,,,,,,,,,,,,,,,,,,,,,,,,,,,,,,,,
,,8,1.09,8,1.09,0,65,65,76,1,102,chocolate,refrigerator,,90236,001,2022-04-29_15h06.04.343,SPAMnetsValid,2021.1.4,MacIntel,60.0240096,,,,,,,,,,,,,,,,,,,,,,,,,,,,,,,,,,,,,,,,,,,,,,,,,,,,,,,,,,,,,,,,,,,,,,,,,,,,,,,,,,,,,,,,,
,,3,0.888,3,0.888,0,66,66,20,1,149,broom,tomato,,90236,001,2022-04-29_15h06.04.343,SPAMnetsValid,2021.1.4,MacIntel,60.0240096,,,,,,,,,,,,,,,,,,,,,,,,,,,,,,,,,,,,,,,,,,,,,,,,,,,,,,,,,,,,,,,,,,,,,,,,,,,,,,,,,,,,,,,,,
,,1,1.761,1,1.761,0,67,67,81,1,104,garden,microwave,,90236,001,2022-04-29_15h06.04.343,SPAMnetsValid,2021.1.4,MacIntel,60.0240096,,,,,,,,,,,,,,,,,,,,,,,,,,,,,,,,,,,,,,,,,,,,,,,,,,,,,,,,,,,,,,,,,,,,,,,,,,,,,,,,,,,,,,,,,
,,4,0.912,4,0.912,0,68,68,79,1,103,pretzel,tomato,,90236,001,2022-04-29_15h06.04.343,SPAMnetsValid,2021.1.4,MacIntel,60.0240096,,,,,,,,,,,,,,,,,,,,,,,,,,,,,,,,,,,,,,,,,,,,,,,,,,,,,,,,,,,,,,,,,,,,,,,,,,,,,,,,,,,,,,,,,
,,3,1.261,3,1.261,0,69,69,24,1,169,onion,yogurt,,90236,001,2022-04-29_15h06.04.343,SPAMnetsValid,2021.1.4,MacIntel,60.0240096,,,,,,,,,,,,,,,,,,,,,,,,,,,,,,,,,,,,,,,,,,,,,,,,,,,,,,,,,,,,,,,,,,,,,,,,,,,,,,,,,,,,,,,,,
,,1,1.072,1,1.072,0,70,70,75,1,178,cactus,carrot,,90236,001,2022-04-29_15h06.04.343,SPAMnetsValid,2021.1.4,MacIntel,60.0240096,,,,,,,,,,,,,,,,,,,,,,,,,,,,,,,,,,,,,,,,,,,,,,,,,,,,,,,,,,,,,,,,,,,,,,,,,,,,,,,,,,,,,,,,,
,,6,1.698,6,1.698,0,71,71,32,1,182,flower,refrigerator,,90236,001,2022-04-29_15h06.04.343,SPAMnetsValid,2021.1.4,MacIntel,60.0240096,,,,,,,,,,,,,,,,,,,,,,,,,,,,,,,,,,,,,,,,,,,,,,,,,,,,,,,,,,,,,,,,,,,,,,,,,,,,,,,,,,,,,,,,,
,,6,1.124,6,1.124,0,72,72,3,1,129,cactus,refrigerator,,90236,001,2022-04-29_15h06.04.343,SPAMnetsValid,2021.1.4,MacIntel,60.0240096,,,,,,,,,,,,,,,,,,,,,,,,,,,,,,,,,,,,,,,,,,,,,,,,,,,,,,,,,,,,,,,,,,,,,,,,,,,,,,,,,,,,,,,,,
,,9,1.438,9,1.438,0,73,73,60,1,122,flower,garden,,90236,001,2022-04-29_15h06.04.343,SPAMnetsValid,2021.1.4,MacIntel,60.0240096,,,,,,,,,,,,,,,,,,,,,,,,,,,,,,,,,,,,,,,,,,,,,,,,,,,,,,,,,,,,,,,,,,,,,,,,,,,,,,,,,,,,,,,,,
,,7,1.271,7,1.271,0,74,74,92,1,170,cookie,microwave,,90236,001,2022-04-29_15h06.04.343,SPAMnetsValid,2021.1.4,MacIntel,60.0240096,,,,,,,,,,,,,,,,,,,,,,,,,,,,,,,,,,,,,,,,,,,,,,,,,,,,,,,,,,,,,,,,,,,,,,,,,,,,,,,,,,,,,,,,,
,,3,0.959,3,0.959,0,75,75,70,1,141,melon,tomato,,90236,001,2022-04-29_15h06.04.343,SPAMnetsValid,2021.1.4,MacIntel,60.0240096,,,,,,,,,,,,,,,,,,,,,,,,,,,,,,,,,,,,,,,,,,,,,,,,,,,,,,,,,,,,,,,,,,,,,,,,,,,,,,,,,,,,,,,,,
,,7,0.495,7,0.495,0,76,76,65,1,160,cookie,kitchen,,90236,001,2022-04-29_15h06.04.343,SPAMnetsValid,2021.1.4,MacIntel,60.0240096,,,,,,,,,,,,,,,,,,,,,,,,,,,,,,,,,,,,,,,,,,,,,,,,,,,,,,,,,,,,,,,,,,,,,,,,,,,,,,,,,,,,,,,,,
,,2,0.655,2,0.655,0,77,77,33,1,131,cactus,garden,,90236,001,2022-04-29_15h06.04.343,SPAMnetsValid,2021.1.4,MacIntel,60.0240096,,,,,,,,,,,,,,,,,,,,,,,,,,,,,,,,,,,,,,,,,,,,,,,,,,,,,,,,,,,,,,,,,,,,,,,,,,,,,,,,,,,,,,,,,
,,7,0.423,7,0.423,0,78,78,96,1,136,chocolate,microwave,,90236,001,2022-04-29_15h06.04.343,SPAMnetsValid,2021.1.4,MacIntel,60.0240096,,,,,,,,,,,,,,,,,,,,,,,,,,,,,,,,,,,,,,,,,,,,,,,,,,,,,,,,,,,,,,,,,,,,,,,,,,,,,,,,,,,,,,,,,
,,3,0.394,3,0.394,0,79,79,13,1,105,cactus,oven,,90236,001,2022-04-29_15h06.04.343,SPAMnetsValid,2021.1.4,MacIntel,60.0240096,,,,,,,,,,,,,,,,,,,,,,,,,,,,,,,,,,,,,,,,,,,,,,,,,,,,,,,,,,,,,,,,,,,,,,,,,,,,,,,,,,,,,,,,,
,,7,0.381,7,0.381,0,80,80,74,1,128,melon,microwave,,90236,001,2022-04-29_15h06.04.343,SPAMnetsValid,2021.1.4,MacIntel,60.0240096,,,,,,,,,,,,,,,,,,,,,,,,,,,,,,,,,,,,,,,,,,,,,,,,,,,,,,,,,,,,,,,,,,,,,,,,,,,,,,,,,,,,,,,,,
,,3,0.404,3,0.404,0,81,81,35,1,147,cake,refrigerator,,90236,001,2022-04-29_15h06.04.343,SPAMnetsValid,2021.1.4,MacIntel,60.0240096,,,,,,,,,,,,,,,,,,,,,,,,,,,,,,,,,,,,,,,,,,,,,,,,,,,,,,,,,,,,,,,,,,,,,,,,,,,,,,,,,,,,,,,,,
,,8,0.361,8,0.361,0,82,82,8,1,97,chocolate,kitchen,,90236,001,2022-04-29_15h06.04.343,SPAMnetsValid,2021.1.4,MacIntel,60.0240096,,,,,,,,,,,,,,,,,,,,,,,,,,,,,,,,,,,,,,,,,,,,,,,,,,,,,,,,,,,,,,,,,,,,,,,,,,,,,,,,,,,,,,,,,
,,2,0.288,2,0.288,0,83,83,69,1,124,oven,refrigerator,,90236,001,2022-04-29_15h06.04.343,SPAMnetsValid,2021.1.4,MacIntel,60.0240096,,,,,,,,,,,,,,,,,,,,,,,,,,,,,,,,,,,,,,,,,,,,,,,,,,,,,,,,,,,,,,,,,,,,,,,,,,,,,,,,,,,,,,,,,
,,6,0.297,6,0.297,0,84,84,87,1,114,cookie,strawberry,,90236,001,2022-04-29_15h06.04.343,SPAMnetsValid,2021.1.4,MacIntel,60.0240096,,,,,,,,,,,,,,,,,,,,,,,,,,,,,,,,,,,,,,,,,,,,,,,,,,,,,,,,,,,,,,,,,,,,,,,,,,,,,,,,,,,,,,,,,
,,3,0.343,3,0.343,0,85,85,53,1,177,chocolate,strawberry,,90236,001,2022-04-29_15h06.04.343,SPAMnetsValid,2021.1.4,MacIntel,60.0240096,,,,,,,,,,,,,,,,,,,,,,,,,,,,,,,,,,,,,,,,,,,,,,,,,,,,,,,,,,,,,,,,,,,,,,,,,,,,,,,,,,,,,,,,,
,,9,0.421,9,0.421,0,86,86,68,1,180,tree,yogurt,,90236,001,2022-04-29_15h06.04.343,SPAMnetsValid,2021.1.4,MacIntel,60.0240096,,,,,,,,,,,,,,,,,,,,,,,,,,,,,,,,,,,,,,,,,,,,,,,,,,,,,,,,,,,,,,,,,,,,,,,,,,,,,,,,,,,,,,,,,
,,4,0.489,4,0.489,0,87,87,83,1,100,garden,tomato,,90236,001,2022-04-29_15h06.04.343,SPAMnetsValid,2021.1.4,MacIntel,60.0240096,,,,,,,,,,,,,,,,,,,,,,,,,,,,,,,,,,,,,,,,,,,,,,,,,,,,,,,,,,,,,,,,,,,,,,,,,,,,,,,,,,,,,,,,,
,,3,0.524,3,0.524,0,88,88,1,1,173,kitchen,tomato,,90236,001,2022-04-29_15h06.04.343,SPAMnetsValid,2021.1.4,MacIntel,60.0240096,,,,,,,,,,,,,,,,,,,,,,,,,,,,,,,,,,,,,,,,,,,,,,,,,,,,,,,,,,,,,,,,,,,,,,,,,,,,,,,,,,,,,,,,,
,,8,0.488,8,0.488,0,89,89,93,1,134,carrot,flower,,90236,001,2022-04-29_15h06.04.343,SPAMnetsValid,2021.1.4,MacIntel,60.0240096,,,,,,,,,,,,,,,,,,,,,,,,,,,,,,,,,,,,,,,,,,,,,,,,,,,,,,,,,,,,,,,,,,,,,,,,,,,,,,,,,,,,,,,,,
,,4,0.833,4,0.833,0,90,90,0,1,106,cake,strawberry,,90236,001,2022-04-29_15h06.04.343,SPAMnetsValid,2021.1.4,MacIntel,60.0240096,,,,,,,,,,,,,,,,,,,,,,,,,,,,,,,,,,,,,,,,,,,,,,,,,,,,,,,,,,,,,,,,,,,,,,,,,,,,,,,,,,,,,,,,,
,,2,1.489,2,1.489,0,91,91,59,1,164,cookie,garden,,90236,001,2022-04-29_15h06.04.343,SPAMnetsValid,2021.1.4,MacIntel,60.0240096,,,,,,,,,,,,,,,,,,,,,,,,,,,,,,,,,,,,,,,,,,,,,,,,,,,,,,,,,,,,,,,,,,,,,,,,,,,,,,,,,,,,,,,,,
,,3,1.142,3,1.142,0,92,92,54,1,101,cactus,kitchen,,90236,001,2022-04-29_15h06.04.343,SPAMnetsValid,2021.1.4,MacIntel,60.0240096,,,,,,,,,,,,,,,,,,,,,,,,,,,,,,,,,,,,,,,,,,,,,,,,,,,,,,,,,,,,,,,,,,,,,,,,,,,,,,,,,,,,,,,,,
,,2,1.13,2,1.13,0,93,93,80,1,146,pretzel,tree,,90236,001,2022-04-29_15h06.04.343,SPAMnetsValid,2021.1.4,MacIntel,60.0240096,,,,,,,,,,,,,,,,,,,,,,,,,,,,,,,,,,,,,,,,,,,,,,,,,,,,,,,,,,,,,,,,,,,,,,,,,,,,,,,,,,,,,,,,,
,,9,1.711,9,1.711,0,94,94,61,1,138,flower,rose,,90236,001,2022-04-29_15h06.04.343,SPAMnetsValid,2021.1.4,MacIntel,60.0240096,,,,,,,,,,,,,,,,,,,,,,,,,,,,,,,,,,,,,,,,,,,,,,,,,,,,,,,,,,,,,,,,,,,,,,,,,,,,,,,,,,,,,,,,,
,,6,1.148,6,1.148,0,95,95,18,1,119,strawberry,tree,,90236,001,2022-04-29_15h06.04.343,SPAMnetsValid,2021.1.4,MacIntel,60.0240096,,,,,,,,,,,,,,,,,,,,,,,,,,,,,,,,,,,,,,,,,,,,,,,,,,,,,,,,,,,,,,,,,,,,,,,,,,,,,,,,,,,,,,,,,
,,7,1.054,7,1.054,0,96,96,17,1,99,garden,melon,,90236,001,2022-04-29_15h06.04.343,SPAMnetsValid,2021.1.4,MacIntel,60.0240096,,,,,,,,,,,,,,,,,,,,,,,,,,,,,,,,,,,,,,,,,,,,,,,,,,,,,,,,,,,,,,,,,,,,,,,,,,,,,,,,,,,,,,,,,
,,,,,,,,,,,,,,,90236,001,2022-04-29_15h06.04.343,SPAMnetsValid,2021.1.4,MacIntel,60.0240096,0,0,0,0,1,,,,,,,,,,,,,,,,,,,,,,,,,,,,,,,,,,,,,,,,,,,,,,,,,,,,,,,,,,,,,,,,,,,,,,,,,,,,,,,,,,,,
,,,,,,,,,,,,,,,90236,001,2022-04-29_15h06.04.343,SPAMnetsValid,2021.1.4,MacIntel,60.0240096,,,,,,0,0,0,1,1,0,1,,,,,,,,,,,,,,,,,,,,,,,,,,,,,,,,,,,,,,,,,,,,,,,,,,,,,,,,,,,,,,,,,,,,,,,,,,,,,
,,,,3,3.792,,,,,,3,cake,oven,,90236,001,2022-04-29_15h06.04.343,SPAMnetsValid,2021.1.4,MacIntel,60.0240096,,,,,,,,,,,,,3,3.792,0,0,0,30,1,,,,,,,,,,,,,,,,,,,,,,,,,,,,,,,,,,,,,,,,,,,,,,,,,,,,,,,,,,,,,,,,,,,,,,
,,,,6,0.339,,,,,,68,flower,tomato,,90236,001,2022-04-29_15h06.04.343,SPAMnetsValid,2021.1.4,MacIntel,60.0240096,,,,,,,,,,,,,6,0.339,0,1,1,94,1,,,,,,,,,,,,,,,,,,,,,,,,,,,,,,,,,,,,,,,,,,,,,,,,,,,,,,,,,,,,,,,,,,,,,,
,,,,3,1.088,,,,,,12,cookie,yogurt,,90236,001,2022-04-29_15h06.04.343,SPAMnetsValid,2021.1.4,MacIntel,60.0240096,,,,,,,,,,,,,3,1.088,0,2,2,36,1,,,,,,,,,,,,,,,,,,,,,,,,,,,,,,,,,,,,,,,,,,,,,,,,,,,,,,,,,,,,,,,,,,,,,,
,,,,7,0.329,,,,,,8,broom,melon,,90236,001,2022-04-29_15h06.04.343,SPAMnetsValid,2021.1.4,MacIntel,60.0240096,,,,,,,,,,,,,7,0.329,0,3,3,59,1,,,,,,,,,,,,,,,,,,,,,,,,,,,,,,,,,,,,,,,,,,,,,,,,,,,,,,,,,,,,,,,,,,,,,,
,,,,1,0.343,,,,,,86,oven,rose,,90236,001,2022-04-29_15h06.04.343,SPAMnetsValid,2021.1.4,MacIntel,60.0240096,,,,,,,,,,,,,1,0.343,0,4,4,79,1,,,,,,,,,,,,,,,,,,,,,,,,,,,,,,,,,,,,,,,,,,,,,,,,,,,,,,,,,,,,,,,,,,,,,,
,,,,1,1.765,,,,,,42,garden,kitchen,,90236,001,2022-04-29_15h06.04.343,SPAMnetsValid,2021.1.4,MacIntel,60.0240096,,,,,,,,,,,,,1,1.765,0,5,5,29,1,,,,,,,,,,,,,,,,,,,,,,,,,,,,,,,,,,,,,,,,,,,,,,,,,,,,,,,,,,,,,,,,,,,,,,
,,,,9,1.404,,,,,,192,microwave,microwave,CHECK,90236,001,2022-04-29_15h06.04.343,SPAMnetsValid,2021.1.4,MacIntel,60.0240096,,,,,,,,,,,,,9,1.404,0,6,6,53,1,,,,,,,,,,,,,,,,,,,,,,,,,,,,,,,,,,,,,,,,,,,,,,,,,,,,,,,,,,,,,,,,,,,,,,
,,,,2,0.874,,,,,,46,garden,yogurt,,90236,001,2022-04-29_15h06.04.343,SPAMnetsValid,2021.1.4,MacIntel,60.0240096,,,,,,,,,,,,,2,0.874,0,7,7,65,1,,,,,,,,,,,,,,,,,,,,,,,,,,,,,,,,,,,,,,,,,,,,,,,,,,,,,,,,,,,,,,,,,,,,,,
,,,,3,0.905,,,,,,85,cake,tree,,90236,001,2022-04-29_15h06.04.343,SPAMnetsValid,2021.1.4,MacIntel,60.0240096,,,,,,,,,,,,,3,0.905,0,8,8,18,1,,,,,,,,,,,,,,,,,,,,,,,,,,,,,,,,,,,,,,,,,,,,,,,,,,,,,,,,,,,,,,,,,,,,,,
,,,,7,1.005,,,,,,2,kitchen,onion,,90236,001,2022-04-29_15h06.04.343,SPAMnetsValid,2021.1.4,MacIntel,60.0240096,,,,,,,,,,,,,7,1.005,0,9,9,91,1,,,,,,,,,,,,,,,,,,,,,,,,,,,,,,,,,,,,,,,,,,,,,,,,,,,,,,,,,,,,,,,,,,,,,,
,,,,7,1.099,,,,,,6,garden,onion,,90236,001,2022-04-29_15h06.04.343,SPAMnetsValid,2021.1.4,MacIntel,60.0240096,,,,,,,,,,,,,7,1.099,0,10,10,83,1,,,,,,,,,,,,,,,,,,,,,,,,,,,,,,,,,,,,,,,,,,,,,,,,,,,,,,,,,,,,,,,,,,,,,,
,,,,3,1.248,,,,,,62,kitchen,rose,,90236,001,2022-04-29_15h06.04.343,SPAMnetsValid,2021.1.4,MacIntel,60.0240096,,,,,,,,,,,,,3,1.248,0,11,11,57,1,,,,,,,,,,,,,,,,,,,,,,,,,,,,,,,,,,,,,,,,,,,,,,,,,,,,,,,,,,,,,,,,,,,,,,
,,,,7,1.022,,,,,,10,flower,onion,,90236,001,2022-04-29_15h06.04.343,SPAMnetsValid,2021.1.4,MacIntel,60.0240096,,,,,,,,,,,,,7,1.022,0,12,12,45,1,,,,,,,,,,,,,,,,,,,,,,,,,,,,,,,,,,,,,,,,,,,,,,,,,,,,,,,,,,,,,,,,,,,,,,
,,,,2,0.974,,,,,,66,melon,yogurt,,90236,001,2022-04-29_15h06.04.343,SPAMnetsValid,2021.1.4,MacIntel,60.0240096,,,,,,,,,,,,,2,0.974,0,13,13,48,1,,,,,,,,,,,,,,,,,,,,,,,,,,,,,,,,,,,,,,,,,,,,,,,,,,,,,,,,,,,,,,,,,,,,,,
,,,,3,1.449,,,,,,83,broom,carrot,,90236,001,2022-04-29_15h06.04.343,SPAMnetsValid,2021.1.4,MacIntel,60.0240096,,,,,,,,,,,,,3,1.449,0,14,14,4,1,,,,,,,,,,,,,,,,,,,,,,,,,,,,,,,,,,,,,,,,,,,,,,,,,,,,,,,,,,,,,,,,,,,,,,
,,,,9,1.021,,,,,,94,kitchen,microwave,,90236,001,2022-04-29_15h06.04.343,SPAMnetsValid,2021.1.4,MacIntel,60.0240096,,,,,,,,,,,,,9,1.021,0,15,15,58,1,,,,,,,,,,,,,,,,,,,,,,,,,,,,,,,,,,,,,,,,,,,,,,,,,,,,,,,,,,,,,,,,,,,,,,
,,,,2,0.871,,,,,,95,broom,refrigerator,,90236,001,2022-04-29_15h06.04.343,SPAMnetsValid,2021.1.4,MacIntel,60.0240096,,,,,,,,,,,,,2,0.871,0,16,16,90,1,,,,,,,,,,,,,,,,,,,,,,,,,,,,,,,,,,,,,,,,,,,,,,,,,,,,,,,,,,,,,,,,,,,,,,
,,,,3,0.999,,,,,,69,carrot,refrigerator,,90236,001,2022-04-29_15h06.04.343,SPAMnetsValid,2021.1.4,MacIntel,60.0240096,,,,,,,,,,,,,3,0.999,0,17,17,75,1,,,,,,,,,,,,,,,,,,,,,,,,,,,,,,,,,,,,,,,,,,,,,,,,,,,,,,,,,,,,,,,,,,,,,,
,,,,3,0.905,,,,,,13,broom,yogurt,,90236,001,2022-04-29_15h06.04.343,SPAMnetsValid,2021.1.4,MacIntel,60.0240096,,,,,,,,,,,,,3,0.905,0,18,18,5,1,,,,,,,,,,,,,,,,,,,,,,,,,,,,,,,,,,,,,,,,,,,,,,,,,,,,,,,,,,,,,,,,,,,,,,
,,,,6,1.18,,,,,,56,cactus,tree,,90236,001,2022-04-29_15h06.04.343,SPAMnetsValid,2021.1.4,MacIntel,60.0240096,,,,,,,,,,,,,6,1.18,0,19,19,21,1,,,,,,,,,,,,,,,,,,,,,,,,,,,,,,,,,,,,,,,,,,,,,,,,,,,,,,,,,,,,,,,,,,,,,,
,,,,8,0.96,,,,,,7,melon,tree,,90236,001,2022-04-29_15h06.04.343,SPAMnetsValid,2021.1.4,MacIntel,60.0240096,,,,,,,,,,,,,8,0.96,0,20,20,77,1,,,,,,,,,,,,,,,,,,,,,,,,,,,,,,,,,,,,,,,,,,,,,,,,,,,,,,,,,,,,,,,,,,,,,,
,,,,3,0.86,,,,,,90,cactus,cake,,90236,001,2022-04-29_15h06.04.343,SPAMnetsValid,2021.1.4,MacIntel,60.0240096,,,,,,,,,,,,,3,0.86,0,21,21,85,1,,,,,,,,,,,,,,,,,,,,,,,,,,,,,,,,,,,,,,,,,,,,,,,,,,,,,,,,,,,,,,,,,,,,,,
,,,,4,1.354,,,,,,33,oven,yogurt,,90236,001,2022-04-29_15h06.04.343,SPAMnetsValid,2021.1.4,MacIntel,60.0240096,,,,,,,,,,,,,4,1.354,0,22,22,31,1,,,,,,,,,,,,,,,,,,,,,,,,,,,,,,,,,,,,,,,,,,,,,,,,,,,,,,,,,,,,,,,,,,,,,,
,,,,2,1.621,,,,,,70,chocolate,onion,,90236,001,2022-04-29_15h06.04.343,SPAMnetsValid,2021.1.4,MacIntel,60.0240096,,,,,,,,,,,,,2,1.621,0,23,23,74,1,,,,,,,,,,,,,,,,,,,,,,,,,,,,,,,,,,,,,,,,,,,,,,,,,,,,,,,,,,,,,,,,,,,,,,
,,,,2,4.439,,,,,,32,cake,microwave,,90236,001,2022-04-29_15h06.04.343,SPAMnetsValid,2021.1.4,MacIntel,60.0240096,,,,,,,,,,,,,2,4.439,0,24,24,33,1,,,,,,,,,,,,,,,,,,,,,,,,,,,,,,,,,,,,,,,,,,,,,,,,,,,,,,,,,,,,,,,,,,,,,,
,,,,3,0.904,,,,,,27,cactus,cookie,,90236,001,2022-04-29_15h06.04.343,SPAMnetsValid,2021.1.4,MacIntel,60.0240096,,,,,,,,,,,,,3,0.904,0,25,25,17,1,,,,,,,,,,,,,,,,,,,,,,,,,,,,,,,,,,,,,,,,,,,,,,,,,,,,,,,,,,,,,,,,,,,,,,
,,,,7,1.455,,,,,,52,carrot,tomato,,90236,001,2022-04-29_15h06.04.343,SPAMnetsValid,2021.1.4,MacIntel,60.0240096,,,,,,,,,,,,,7,1.455,0,26,26,95,1,,,,,,,,,,,,,,,,,,,,,,,,,,,,,,,,,,,,,,,,,,,,,,,,,,,,,,,,,,,,,,,,,,,,,,
,,,,8,1.123,,,,,,51,onion,strawberry,,90236,001,2022-04-29_15h06.04.343,SPAMnetsValid,2021.1.4,MacIntel,60.0240096,,,,,,,,,,,,,8,1.123,0,27,27,86,1,,,,,,,,,,,,,,,,,,,,,,,,,,,,,,,,,,,,,,,,,,,,,,,,,,,,,,,,,,,,,,,,,,,,,,
,,,,8,1.622,,,,,,63,cake,cookie,,90236,001,2022-04-29_15h06.04.343,SPAMnetsValid,2021.1.4,MacIntel,60.0240096,,,,,,,,,,,,,8,1.622,0,28,28,93,1,,,,,,,,,,,,,,,,,,,,,,,,,,,,,,,,,,,,,,,,,,,,,,,,,,,,,,,,,,,,,,,,,,,,,,
,,,,2,1.029,,,,,,53,garden,pretzel,,90236,001,2022-04-29_15h06.04.343,SPAMnetsValid,2021.1.4,MacIntel,60.0240096,,,,,,,,,,,,,2,1.029,0,29,29,0,1,,,,,,,,,,,,,,,,,,,,,,,,,,,,,,,,,,,,,,,,,,,,,,,,,,,,,,,,,,,,,,,,,,,,,,
,,,,6,1.28,,,,,,88,cactus,melon,,90236,001,2022-04-29_15h06.04.343,SPAMnetsValid,2021.1.4,MacIntel,60.0240096,,,,,,,,,,,,,6,1.28,0,30,30,38,1,,,,,,,,,,,,,,,,,,,,,,,,,,,,,,,,,,,,,,,,,,,,,,,,,,,,,,,,,,,,,,,,,,,,,,
,,,,2,0.847,,,,,,91,microwave,rose,,90236,001,2022-04-29_15h06.04.343,SPAMnetsValid,2021.1.4,MacIntel,60.0240096,,,,,,,,,,,,,2,0.847,0,31,31,84,1,,,,,,,,,,,,,,,,,,,,,,,,,,,,,,,,,,,,,,,,,,,,,,,,,,,,,,,,,,,,,,,,,,,,,,
,,,,3,1.022,,,,,,1,rose,yogurt,,90236,001,2022-04-29_15h06.04.343,SPAMnetsValid,2021.1.4,MacIntel,60.0240096,,,,,,,,,,,,,3,1.022,0,32,32,55,1,,,,,,,,,,,,,,,,,,,,,,,,,,,,,,,,,,,,,,,,,,,,,,,,,,,,,,,,,,,,,,,,,,,,,,
,,,,7,1.055,,,,,,25,carrot,onion,,90236,001,2022-04-29_15h06.04.343,SPAMnetsValid,2021.1.4,MacIntel,60.0240096,,,,,,,,,,,,,7,1.055,0,33,33,44,1,,,,,,,,,,,,,,,,,,,,,,,,,,,,,,,,,,,,,,,,,,,,,,,,,,,,,,,,,,,,,,,,,,,,,,
,,,,3,1.571,,,,,,50,carrot,rose,,90236,001,2022-04-29_15h06.04.343,SPAMnetsValid,2021.1.4,MacIntel,60.0240096,,,,,,,,,,,,,3,1.571,0,34,34,73,1,,,,,,,,,,,,,,,,,,,,,,,,,,,,,,,,,,,,,,,,,,,,,,,,,,,,,,,,,,,,,,,,,,,,,,
,,,,7,1.027,,,,,,49,flower,strawberry,,90236,001,2022-04-29_15h06.04.343,SPAMnetsValid,2021.1.4,MacIntel,60.0240096,,,,,,,,,,,,,7,1.027,0,35,35,3,1,,,,,,,,,,,,,,,,,,,,,,,,,,,,,,,,,,,,,,,,,,,,,,,,,,,,,,,,,,,,,,,,,,,,,,
,,,,2,0.83,,,,,,21,cake,onion,,90236,001,2022-04-29_15h06.04.343,SPAMnetsValid,2021.1.4,MacIntel,60.0240096,,,,,,,,,,,,,2,0.83,0,36,36,63,1,,,,,,,,,,,,,,,,,,,,,,,,,,,,,,,,,,,,,,,,,,,,,,,,,,,,,,,,,,,,,,,,,,,,,,
,,,,3,0.99,,,,,,5,oven,tree,,90236,001,2022-04-29_15h06.04.343,SPAMnetsValid,2021.1.4,MacIntel,60.0240096,,,,,,,,,,,,,3,0.99,0,37,37,70,1,,,,,,,,,,,,,,,,,,,,,,,,,,,,,,,,,,,,,,,,,,,,,,,,,,,,,,,,,,,,,,,,,,,,,,
,,,,2,1.529,,,,,,74,broom,pretzel,,90236,001,2022-04-29_15h06.04.343,SPAMnetsValid,2021.1.4,MacIntel,60.0240096,,,,,,,,,,,,,2,1.529,0,38,38,40,1,,,,,,,,,,,,,,,,,,,,,,,,,,,,,,,,,,,,,,,,,,,,,,,,,,,,,,,,,,,,,,,,,,,,,,
,,,,1,1.126,,,,,,48,flower,oven,,90236,001,2022-04-29_15h06.04.343,SPAMnetsValid,2021.1.4,MacIntel,60.0240096,,,,,,,,,,,,,1,1.126,0,39,39,15,1,,,,,,,,,,,,,,,,,,,,,,,,,,,,,,,,,,,,,,,,,,,,,,,,,,,,,,,,,,,,,,,,,,,,,,
,,,,1,2.504,,,,,,58,garden,oven,,90236,001,2022-04-29_15h06.04.343,SPAMnetsValid,2021.1.4,MacIntel,60.0240096,,,,,,,,,,,,,1,2.504,0,40,40,37,1,,,,,,,,,,,,,,,,,,,,,,,,,,,,,,,,,,,,,,,,,,,,,,,,,,,,,,,,,,,,,,,,,,,,,,
,,,,2,0.938,,,,,,84,oven,tomato,,90236,001,2022-04-29_15h06.04.343,SPAMnetsValid,2021.1.4,MacIntel,60.0240096,,,,,,,,,,,,,2,0.938,0,41,41,28,1,,,,,,,,,,,,,,,,,,,,,,,,,,,,,,,,,,,,,,,,,,,,,,,,,,,,,,,,,,,,,,,,,,,,,,
,,,,2,1.254,,,,,,39,melon,pretzel,,90236,001,2022-04-29_15h06.04.343,SPAMnetsValid,2021.1.4,MacIntel,60.0240096,,,,,,,,,,,,,2,1.254,0,42,42,20,1,,,,,,,,,,,,,,,,,,,,,,,,,,,,,,,,,,,,,,,,,,,,,,,,,,,,,,,,,,,,,,,,,,,,,,
,,,,7,1.805,,,,,,36,broom,kitchen,,90236,001,2022-04-29_15h06.04.343,SPAMnetsValid,2021.1.4,MacIntel,60.0240096,,,,,,,,,,,,,7,1.805,0,43,43,76,1,,,,,,,,,,,,,,,,,,,,,,,,,,,,,,,,,,,,,,,,,,,,,,,,,,,,,,,,,,,,,,,,,,,,,,
,,,,8,2.325,,,,,,30,cookie,pretzel,,90236,001,2022-04-29_15h06.04.343,SPAMnetsValid,2021.1.4,MacIntel,60.0240096,,,,,,,,,,,,,8,2.325,0,44,44,78,1,,,,,,,,,,,,,,,,,,,,,,,,,,,,,,,,,,,,,,,,,,,,,,,,,,,,,,,,,,,,,,,,,,,,,,
,,,,2,0.829,,,,,,40,broom,cake,,90236,001,2022-04-29_15h06.04.343,SPAMnetsValid,2021.1.4,MacIntel,60.0240096,,,,,,,,,,,,,2,0.829,0,45,45,32,1,,,,,,,,,,,,,,,,,,,,,,,,,,,,,,,,,,,,,,,,,,,,,,,,,,,,,,,,,,,,,,,,,,,,,,
,,,,2,0.755,,,,,,15,onion,oven,,90236,001,2022-04-29_15h06.04.343,SPAMnetsValid,2021.1.4,MacIntel,60.0240096,,,,,,,,,,,,,2,0.755,0,46,46,39,1,,,,,,,,,,,,,,,,,,,,,,,,,,,,,,,,,,,,,,,,,,,,,,,,,,,,,,,,,,,,,,,,,,,,,,
,,,,3,5.106,,,,,,34,melon,oven,,90236,001,2022-04-29_15h06.04.343,SPAMnetsValid,2021.1.4,MacIntel,60.0240096,,,,,,,,,,,,,3,5.106,0,47,47,7,1,,,,,,,,,,,,,,,,,,,,,,,,,,,,,,,,,,,,,,,,,,,,,,,,,,,,,,,,,,,,,,,,,,,,,,
,,,,3,1.01,,,,,,26,tomato,yogurt,,90236,001,2022-04-29_15h06.04.343,SPAMnetsValid,2021.1.4,MacIntel,60.0240096,,,,,,,,,,,,,3,1.01,0,48,48,13,1,,,,,,,,,,,,,,,,,,,,,,,,,,,,,,,,,,,,,,,,,,,,,,,,,,,,,,,,,,,,,,,,,,,,,,
,,,,3,0.915,,,,,,45,onion,pretzel,,90236,001,2022-04-29_15h06.04.343,SPAMnetsValid,2021.1.4,MacIntel,60.0240096,,,,,,,,,,,,,3,0.915,0,49,49,69,1,,,,,,,,,,,,,,,,,,,,,,,,,,,,,,,,,,,,,,,,,,,,,,,,,,,,,,,,,,,,,,,,,,,,,,
,,,,3,1.372,,,,,,23,flower,microwave,,90236,001,2022-04-29_15h06.04.343,SPAMnetsValid,2021.1.4,MacIntel,60.0240096,,,,,,,,,,,,,3,1.372,0,50,50,25,1,,,,,,,,,,,,,,,,,,,,,,,,,,,,,,,,,,,,,,,,,,,,,,,,,,,,,,,,,,,,,,,,,,,,,,
,,,,8,1.996,,,,,,54,chocolate,yogurt,,90236,001,2022-04-29_15h06.04.343,SPAMnetsValid,2021.1.4,MacIntel,60.0240096,,,,,,,,,,,,,8,1.996,0,51,51,67,1,,,,,,,,,,,,,,,,,,,,,,,,,,,,,,,,,,,,,,,,,,,,,,,,,,,,,,,,,,,,,,,,,,,,,,
,,,,8,11.374,,,,,,20,rose,tree,,90236,001,2022-04-29_15h06.04.343,SPAMnetsValid,2021.1.4,MacIntel,60.0240096,,,,,,,,,,,,,8,11.374,0,52,52,66,1,,,,,,,,,,,,,,,,,,,,,,,,,,,,,,,,,,,,,,,,,,,,,,,,,,,,,,,,,,,,,,,,,,,,,,
,,,,2,1.095,,,,,,57,flower,kitchen,,90236,001,2022-04-29_15h06.04.343,SPAMnetsValid,2021.1.4,MacIntel,60.0240096,,,,,,,,,,,,,2,1.095,0,53,53,49,1,,,,,,,,,,,,,,,,,,,,,,,,,,,,,,,,,,,,,,,,,,,,,,,,,,,,,,,,,,,,,,,,,,,,,,
,,,,2,2.355,,,,,,80,chocolate,tree,,90236,001,2022-04-29_15h06.04.343,SPAMnetsValid,2021.1.4,MacIntel,60.0240096,,,,,,,,,,,,,2,2.355,0,54,54,89,1,,,,,,,,,,,,,,,,,,,,,,,,,,,,,,,,,,,,,,,,,,,,,,,,,,,,,,,,,,,,,,,,,,,,,,
,,,,6,2.98,,,,,,17,carrot,melon,,90236,001,2022-04-29_15h06.04.343,SPAMnetsValid,2021.1.4,MacIntel,60.0240096,,,,,,,,,,,,,6,2.98,0,55,55,24,1,,,,,,,,,,,,,,,,,,,,,,,,,,,,,,,,,,,,,,,,,,,,,,,,,,,,,,,,,,,,,,,,,,,,,,
,,,,2,1.141,,,,,,14,broom,cookie,,90236,001,2022-04-29_15h06.04.343,SPAMnetsValid,2021.1.4,MacIntel,60.0240096,,,,,,,,,,,,,2,1.141,0,56,56,16,1,,,,,,,,,,,,,,,,,,,,,,,,,,,,,,,,,,,,,,,,,,,,,,,,,,,,,,,,,,,,,,,,,,,,,,
,,,,7,2.965,,,,,,61,strawberry,tomato,,90236,001,2022-04-29_15h06.04.343,SPAMnetsValid,2021.1.4,MacIntel,60.0240096,,,,,,,,,,,,,7,2.965,0,57,57,80,1,,,,,,,,,,,,,,,,,,,,,,,,,,,,,,,,,,,,,,,,,,,,,,,,,,,,,,,,,,,,,,,,,,,,,,
,,,,7,9.864,,,,,,82,cake,kitchen,,90236,001,2022-04-29_15h06.04.343,SPAMnetsValid,2021.1.4,MacIntel,60.0240096,,,,,,,,,,,,,7,9.864,0,58,58,96,1,,,,,,,,,,,,,,,,,,,,,,,,,,,,,,,,,,,,,,,,,,,,,,,,,,,,,,,,,,,,,,,,,,,,,,
,,,,3,1.125,,,,,,87,carrot,yogurt,,90236,001,2022-04-29_15h06.04.343,SPAMnetsValid,2021.1.4,MacIntel,60.0240096,,,,,,,,,,,,,3,1.125,0,59,59,6,1,,,,,,,,,,,,,,,,,,,,,,,,,,,,,,,,,,,,,,,,,,,,,,,,,,,,,,,,,,,,,,,,,,,,,,
,,,,2,3.51,,,,,,31,cactus,pretzel,,90236,001,2022-04-29_15h06.04.343,SPAMnetsValid,2021.1.4,MacIntel,60.0240096,,,,,,,,,,,,,2,3.51,0,60,60,1,1,,,,,,,,,,,,,,,,,,,,,,,,,,,,,,,,,,,,,,,,,,,,,,,,,,,,,,,,,,,,,,,,,,,,,,
,,,,2,0.888,,,,,,41,broom,cactus,,90236,001,2022-04-29_15h06.04.343,SPAMnetsValid,2021.1.4,MacIntel,60.0240096,,,,,,,,,,,,,2,0.888,0,61,61,46,1,,,,,,,,,,,,,,,,,,,,,,,,,,,,,,,,,,,,,,,,,,,,,,,,,,,,,,,,,,,,,,,,,,,,,,
,,,,3,1.09,,,,,,75,cookie,onion,,90236,001,2022-04-29_15h06.04.343,SPAMnetsValid,2021.1.4,MacIntel,60.0240096,,,,,,,,,,,,,3,1.09,0,62,62,9,1,,,,,,,,,,,,,,,,,,,,,,,,,,,,,,,,,,,,,,,,,,,,,,,,,,,,,,,,,,,,,,,,,,,,,,
,,,,3,1.772,,,,,,55,tomato,tree,,90236,001,2022-04-29_15h06.04.343,SPAMnetsValid,2021.1.4,MacIntel,60.0240096,,,,,,,,,,,,,3,1.772,0,63,63,35,1,,,,,,,,,,,,,,,,,,,,,,,,,,,,,,,,,,,,,,,,,,,,,,,,,,,,,,,,,,,,,,,,,,,,,,
,,,,5,1.955,,,,,,16,chocolate,flower,,90236,001,2022-04-29_15h06.04.343,SPAMnetsValid,2021.1.4,MacIntel,60.0240096,,,,,,,,,,,,,5,1.955,0,64,64,22,1,,,,,,,,,,,,,,,,,,,,,,,,,,,,,,,,,,,,,,,,,,,,,,,,,,,,,,,,,,,,,,,,,,,,,,
,,,,7,2.25,,,,,,77,refrigerator,yogurt,,90236,001,2022-04-29_15h06.04.343,SPAMnetsValid,2021.1.4,MacIntel,60.0240096,,,,,,,,,,,,,7,2.25,0,65,65,42,1,,,,,,,,,,,,,,,,,,,,,,,,,,,,,,,,,,,,,,,,,,,,,,,,,,,,,,,,,,,,,,,,,,,,,,
,,,,2,0.856,,,,,,19,microwave,pretzel,,90236,001,2022-04-29_15h06.04.343,SPAMnetsValid,2021.1.4,MacIntel,60.0240096,,,,,,,,,,,,,2,0.856,0,66,66,41,1,,,,,,,,,,,,,,,,,,,,,,,,,,,,,,,,,,,,,,,,,,,,,,,,,,,,,,,,,,,,,,,,,,,,,,
,,,,2,0.904,,,,,,65,broom,garden,,90236,001,2022-04-29_15h06.04.343,SPAMnetsValid,2021.1.4,MacIntel,60.0240096,,,,,,,,,,,,,2,0.904,0,67,67,23,1,,,,,,,,,,,,,,,,,,,,,,,,,,,,,,,,,,,,,,,,,,,,,,,,,,,,,,,,,,,,,,,,,,,,,,
,,,,2,0.997,,,,,,78,cookie,rose,,90236,001,2022-04-29_15h06.04.343,SPAMnetsValid,2021.1.4,MacIntel,60.0240096,,,,,,,,,,,,,2,0.997,0,68,68,56,1,,,,,,,,,,,,,,,,,,,,,,,,,,,,,,,,,,,,,,,,,,,,,,,,,,,,,,,,,,,,,,,,,,,,,,
,,,,2,0.706,,,,,,24,cookie,tomato,,90236,001,2022-04-29_15h06.04.343,SPAMnetsValid,2021.1.4,MacIntel,60.0240096,,,,,,,,,,,,,2,0.706,0,69,69,68,1,,,,,,,,,,,,,,,,,,,,,,,,,,,,,,,,,,,,,,,,,,,,,,,,,,,,,,,,,,,,,,,,,,,,,,
,,,,7,0.944,,,,,,59,rose,strawberry,,90236,001,2022-04-29_15h06.04.343,SPAMnetsValid,2021.1.4,MacIntel,60.0240096,,,,,,,,,,,,,7,0.944,0,70,70,72,1,,,,,,,,,,,,,,,,,,,,,,,,,,,,,,,,,,,,,,,,,,,,,,,,,,,,,,,,,,,,,,,,,,,,,,
,,,,8,1.229,,,,,,22,kitchen,strawberry,,90236,001,2022-04-29_15h06.04.343,SPAMnetsValid,2021.1.4,MacIntel,60.0240096,,,,,,,,,,,,,8,1.229,0,71,71,2,1,,,,,,,,,,,,,,,,,,,,,,,,,,,,,,,,,,,,,,,,,,,,,,,,,,,,,,,,,,,,,,,,,,,,,,
,,,,1,2.023,,,,,,37,garden,refrigerator,,90236,001,2022-04-29_15h06.04.343,SPAMnetsValid,2021.1.4,MacIntel,60.0240096,,,,,,,,,,,,,1,2.023,0,72,72,11,1,,,,,,,,,,,,,,,,,,,,,,,,,,,,,,,,,,,,,,,,,,,,,,,,,,,,,,,,,,,,,,,,,,,,,,
,,,,4,2.022,,,,,,29,chocolate,melon,,90236,001,2022-04-29_15h06.04.343,SPAMnetsValid,2021.1.4,MacIntel,60.0240096,,,,,,,,,,,,,4,2.022,0,73,73,34,1,,,,,,,,,,,,,,,,,,,,,,,,,,,,,,,,,,,,,,,,,,,,,,,,,,,,,,,,,,,,,,,,,,,,,,
,,,,2,2.472,,,,,,92,broom,flower,,90236,001,2022-04-29_15h06.04.343,SPAMnetsValid,2021.1.4,MacIntel,60.0240096,,,,,,,,,,,,,2,2.472,0,74,74,88,1,,,,,,,,,,,,,,,,,,,,,,,,,,,,,,,,,,,,,,,,,,,,,,,,,,,,,,,,,,,,,,,,,,,,,,
,,,,2,1.125,,,,,,44,cookie,melon,,90236,001,2022-04-29_15h06.04.343,SPAMnetsValid,2021.1.4,MacIntel,60.0240096,,,,,,,,,,,,,2,1.125,0,75,75,92,1,,,,,,,,,,,,,,,,,,,,,,,,,,,,,,,,,,,,,,,,,,,,,,,,,,,,,,,,,,,,,,,,,,,,,,
,,,,9,1.188,,,,,,191,cake,cake,CHECK,90236,001,2022-04-29_15h06.04.343,SPAMnetsValid,2021.1.4,MacIntel,60.0240096,,,,,,,,,,,,,9,1.188,0,76,76,10,1,,,,,,,,,,,,,,,,,,,,,,,,,,,,,,,,,,,,,,,,,,,,,,,,,,,,,,,,,,,,,,,,,,,,,,
,,,,3,0.999,,,,,,35,flower,pretzel,,90236,001,2022-04-29_15h06.04.343,SPAMnetsValid,2021.1.4,MacIntel,60.0240096,,,,,,,,,,,,,3,0.999,0,77,77,26,1,,,,,,,,,,,,,,,,,,,,,,,,,,,,,,,,,,,,,,,,,,,,,,,,,,,,,,,,,,,,,,,,,,,,,,
,,,,3,0.993,,,,,,28,cake,melon,,90236,001,2022-04-29_15h06.04.343,SPAMnetsValid,2021.1.4,MacIntel,60.0240096,,,,,,,,,,,,,3,0.993,0,78,78,54,1,,,,,,,,,,,,,,,,,,,,,,,,,,,,,,,,,,,,,,,,,,,,,,,,,,,,,,,,,,,,,,,,,,,,,,
,,,,2,1.692,,,,,,43,chocolate,tomato,,90236,001,2022-04-29_15h06.04.343,SPAMnetsValid,2021.1.4,MacIntel,60.0240096,,,,,,,,,,,,,2,1.692,0,79,79,8,1,,,,,,,,,,,,,,,,,,,,,,,,,,,,,,,,,,,,,,,,,,,,,,,,,,,,,,,,,,,,,,,,,,,,,,
,,,,8,1.854,,,,,,76,garden,rose,,90236,001,2022-04-29_15h06.04.343,SPAMnetsValid,2021.1.4,MacIntel,60.0240096,,,,,,,,,,,,,8,1.854,0,80,80,19,1,,,,,,,,,,,,,,,,,,,,,,,,,,,,,,,,,,,,,,,,,,,,,,,,,,,,,,,,,,,,,,,,,,,,,,
,,,,2,0.946,,,,,,81,pretzel,yogurt,,90236,001,2022-04-29_15h06.04.343,SPAMnetsValid,2021.1.4,MacIntel,60.0240096,,,,,,,,,,,,,2,0.946,0,81,81,50,1,,,,,,,,,,,,,,,,,,,,,,,,,,,,,,,,,,,,,,,,,,,,,,,,,,,,,,,,,,,,,,,,,,,,,,
,,,,7,4.507,,,,,,79,garden,strawberry,,90236,001,2022-04-29_15h06.04.343,SPAMnetsValid,2021.1.4,MacIntel,60.0240096,,,,,,,,,,,,,7,4.507,0,82,82,87,1,,,,,,,,,,,,,,,,,,,,,,,,,,,,,,,,,,,,,,,,,,,,,,,,,,,,,,,,,,,,,,,,,,,,,,
,,,,9,2.401,,,,,,93,kitchen,oven,,90236,001,2022-04-29_15h06.04.343,SPAMnetsValid,2021.1.4,MacIntel,60.0240096,,,,,,,,,,,,,9,2.401,0,83,83,82,1,,,,,,,,,,,,,,,,,,,,,,,,,,,,,,,,,,,,,,,,,,,,,,,,,,,,,,,,,,,,,,,,,,,,,,
,,,,2,1.075,,,,,,60,cactus,onion,,90236,001,2022-04-29_15h06.04.343,SPAMnetsValid,2021.1.4,MacIntel,60.0240096,,,,,,,,,,,,,2,1.075,0,84,84,81,1,,,,,,,,,,,,,,,,,,,,,,,,,,,,,,,,,,,,,,,,,,,,,,,,,,,,,,,,,,,,,,,,,,,,,,
,,,,2,1.588,,,,,,71,broom,rose,,90236,001,2022-04-29_15h06.04.343,SPAMnetsValid,2021.1.4,MacIntel,60.0240096,,,,,,,,,,,,,2,1.588,0,85,85,61,1,,,,,,,,,,,,,,,,,,,,,,,,,,,,,,,,,,,,,,,,,,,,,,,,,,,,,,,,,,,,,,,,,,,,,,
,,,,3,1.105,,,,,,67,flower,yogurt,,90236,001,2022-04-29_15h06.04.343,SPAMnetsValid,2021.1.4,MacIntel,60.0240096,,,,,,,,,,,,,3,1.105,0,86,86,12,1,,,,,,,,,,,,,,,,,,,,,,,,,,,,,,,,,,,,,,,,,,,,,,,,,,,,,,,,,,,,,,,,,,,,,,
,,,,1,1.048,,,,,,72,broom,onion,,90236,001,2022-04-29_15h06.04.343,SPAMnetsValid,2021.1.4,MacIntel,60.0240096,,,,,,,,,,,,,1,1.048,0,87,87,27,1,,,,,,,,,,,,,,,,,,,,,,,,,,,,,,,,,,,,,,,,,,,,,,,,,,,,,,,,,,,,,,,,,,,,,,
,,,,2,0.998,,,,,,38,pretzel,refrigerator,,90236,001,2022-04-29_15h06.04.343,SPAMnetsValid,2021.1.4,MacIntel,60.0240096,,,,,,,,,,,,,2,0.998,0,88,88,71,1,,,,,,,,,,,,,,,,,,,,,,,,,,,,,,,,,,,,,,,,,,,,,,,,,,,,,,,,,,,,,,,,,,,,,,
,,,,3,1.217,,,,,,11,refrigerator,tree,,90236,001,2022-04-29_15h06.04.343,SPAMnetsValid,2021.1.4,MacIntel,60.0240096,,,,,,,,,,,,,3,1.217,0,89,89,43,1,,,,,,,,,,,,,,,,,,,,,,,,,,,,,,,,,,,,,,,,,,,,,,,,,,,,,,,,,,,,,,,,,,,,,,
,,,,2,0.923,,,,,,47,onion,tomato,,90236,001,2022-04-29_15h06.04.343,SPAMnetsValid,2021.1.4,MacIntel,60.0240096,,,,,,,,,,,,,2,0.923,0,90,90,51,1,,,,,,,,,,,,,,,,,,,,,,,,,,,,,,,,,,,,,,,,,,,,,,,,,,,,,,,,,,,,,,,,,,,,,,
,,,,2,0.961,,,,,,73,broom,chocolate,,90236,001,2022-04-29_15h06.04.343,SPAMnetsValid,2021.1.4,MacIntel,60.0240096,,,,,,,,,,,,,2,0.961,0,91,91,47,1,,,,,,,,,,,,,,,,,,,,,,,,,,,,,,,,,,,,,,,,,,,,,,,,,,,,,,,,,,,,,,,,,,,,,,
,,,,2,0.974,,,,,,64,chocolate,garden,,90236,001,2022-04-29_15h06.04.343,SPAMnetsValid,2021.1.4,MacIntel,60.0240096,,,,,,,,,,,,,2,0.974,0,92,92,14,1,,,,,,,,,,,,,,,,,,,,,,,,,,,,,,,,,,,,,,,,,,,,,,,,,,,,,,,,,,,,,,,,,,,,,,
,,,,8,1.371,,,,,,18,onion,refrigerator,,90236,001,2022-04-29_15h06.04.343,SPAMnetsValid,2021.1.4,MacIntel,60.0240096,,,,,,,,,,,,,8,1.371,0,93,93,62,1,,,,,,,,,,,,,,,,,,,,,,,,,,,,,,,,,,,,,,,,,,,,,,,,,,,,,,,,,,,,,,,,,,,,,,
,,,,2,0.87,,,,,,89,chocolate,rose,,90236,001,2022-04-29_15h06.04.343,SPAMnetsValid,2021.1.4,MacIntel,60.0240096,,,,,,,,,,,,,2,0.87,0,94,94,60,1,,,,,,,,,,,,,,,,,,,,,,,,,,,,,,,,,,,,,,,,,,,,,,,,,,,,,,,,,,,,,,,,,,,,,,
,,,,1,1.054,,,,,,4,chocolate,pretzel,,90236,001,2022-04-29_15h06.04.343,SPAMnetsValid,2021.1.4,MacIntel,60.0240096,,,,,,,,,,,,,1,1.054,0,95,95,52,1,,,,,,,,,,,,,,,,,,,,,,,,,,,,,,,,,,,,,,,,,,,,,,,,,,,,,,,,,,,,,,,,,,,,,,
,,,,9,2.878,,,,,,9,kitchen,refrigerator,,90236,001,2022-04-29_15h06.04.343,SPAMnetsValid,2021.1.4,MacIntel,60.0240096,,,,,,,,,,,,,9,2.878,0,96,96,64,1,,,,,,,,,,,,,,,,,,,,,,,,,,,,,,,,,,,,,,,,,,,,,,,,,,,,,,,,,,,,,,,,,,,,,,
,,,,,,,,,,,,,,,90236,001,2022-04-29_15h06.04.343,SPAMnetsValid,2021.1.4,MacIntel,60.0240096,,,,,,,,,,,,,,,,,,,,0,0,0,0,1,,,,,,,,,,,,,,,,,,,,,,,,,,,,,,,,,,,,,,,,,,,,,,,,,,,,,,,,,,,,,,,,,
,,,,,,,,,,,,,,,90236,001,2022-04-29_15h06.04.343,SPAMnetsValid,2021.1.4,MacIntel,60.0240096,,,,,,0,1,1,0,1,1,0,,,,,,,,,,,,,,,,,,,,,,,,,,,,,,,,,,,,,,,,,,,,,,,,,,,,,,,,,,,,,,,,,,,,,,,,,,,,,
,,,,,,,,,,,,,,,90236,001,2022-04-29_15h06.04.343,SPAMnetsValid,2021.1.4,MacIntel,60.0240096,,,,,,,,,,,,,,,,,,,,,,,,,3,2.701,0,0,0,0,1,rancor,forbearance,ridicule,malice,bravery,3,,,,,,,,,,,,,,,,,,,,,,,,,,,,,,,,,,,,,,,,,,,,,,,,,,,,
,,,,,,,,,,,,,,,90236,001,2022-04-29_15h06.04.343,SPAMnetsValid,2021.1.4,MacIntel,60.0240096,,,,,,,,,,,,,,,,,,,,,,,,,1,2.81,0,1,1,1,1,raucous,empty,quiet,smooth,harsh,4,,,,,,,,,,,,,,,,,,,,,,,,,,,,,,,,,,,,,,,,,,,,,,,,,,,,
,,,,,,,,,,,,,,,90236,001,2022-04-29_15h06.04.343,SPAMnetsValid,2021.1.4,MacIntel,60.0240096,,,,,,,,,,,,,,,,,,,,,,,,,4,2.645,0,2,2,2,1,gargoyle,oil,medicine,carved waterspout,ugly building,3,,,,,,,,,,,,,,,,,,,,,,,,,,,,,,,,,,,,,,,,,,,,,,,,,,,,
,,,,,,,,,,,,,,,90236,001,2022-04-29_15h06.04.343,SPAMnetsValid,2021.1.4,MacIntel,60.0240096,,,,,,,,,,,,,,,,,,,,,,,,,4,2.316,0,3,3,3,1,recrudesce,purify,renew activity,lack refinement,crush,2,,,,,,,,,,,,,,,,,,,,,,,,,,,,,,,,,,,,,,,,,,,,,,,,,,,,
,,,,,,,,,,,,,,,90236,001,2022-04-29_15h06.04.343,SPAMnetsValid,2021.1.4,MacIntel,60.0240096,,,,,,,,,,,,,,,,,,,,,,,,,3,2.907,0,4,4,4,1,specious,"plausible, but not genuine",noteworthy,class or variety,roomy,1,,,,,,,,,,,,,,,,,,,,,,,,,,,,,,,,,,,,,,,,,,,,,,,,,,,,
,,,,,,,,,,,,,,,90236,001,2022-04-29_15h06.04.343,SPAMnetsValid,2021.1.4,MacIntel,60.0240096,,,,,,,,,,,,,,,,,,,,,,,,,1,2.439,0,5,5,5,1,bauble,bubble,showy plaything,idle talk,confusion,2,,,,,,,,,,,,,,,,,,,,,,,,,,,,,,,,,,,,,,,,,,,,,,,,,,,,
,,,,,,,,,,,,,,,90236,001,2022-04-29_15h06.04.343,SPAMnetsValid,2021.1.4,MacIntel,60.0240096,,,,,,,,,,,,,,,,,,,,,,,,,4,3.51,0,6,6,6,1,prolific,scarce,producing abundantly,reckless,speaking profanely,2,,,,,,,,,,,,,,,,,,,,,,,,,,,,,,,,,,,,,,,,,,,,,,,,,,,,
,,,,,,,,,,,,,,,90236,001,2022-04-29_15h06.04.343,SPAMnetsValid,2021.1.4,MacIntel,60.0240096,,,,,,,,,,,,,,,,,,,,,,,,,2,1.812,0,7,7,7,1,opulent,party,wealthy,happy frame of mind,semiprecious stone,2,,,,,,,,,,,,,,,,,,,,,,,,,,,,,,,,,,,,,,,,,,,,,,,,,,,,
,,,,,,,,,,,,,,,90236,001,2022-04-29_15h06.04.343,SPAMnetsValid,2021.1.4,MacIntel,60.0240096,,,,,,,,,,,,,,,,,,,,,,,,,2,2.405,0,8,8,8,1,coercion,conspiracy,strategy,restraint,attraction,3,,,,,,,,,,,,,,,,,,,,,,,,,,,,,,,,,,,,,,,,,,,,,,,,,,,,
,,,,,,,,,,,,,,,90236,001,2022-04-29_15h06.04.343,SPAMnetsValid,2021.1.4,MacIntel,60.0240096,,,,,,,,,,,,,,,,,,,,,,,,,4,2.856,0,9,9,9,1,hiatus,animal,calamity,dread,gap,4,,,,,,,,,,,,,,,,,,,,,,,,,,,,,,,,,,,,,,,,,,,,,,,,,,,,
,,,,,,,,,,,,,,,90236,001,2022-04-29_15h06.04.343,SPAMnetsValid,2021.1.4,MacIntel,60.0240096,,,,,,,,,,,,,,,,,,,,,,,,,2,1.375,0,10,10,10,1,germane,microbe,contagious,relevant,different,3,,,,,,,,,,,,,,,,,,,,,,,,,,,,,,,,,,,,,,,,,,,,,,,,,,,,
,,,,,,,,,,,,,,,90236,001,2022-04-29_15h06.04.343,SPAMnetsValid,2021.1.4,MacIntel,60.0240096,,,,,,,,,,,,,,,,,,,,,,,,,3,3.917,0,11,11,11,1,perfunctory,fundamental,formal,superficial,careful,3,,,,,,,,,,,,,,,,,,,,,,,,,,,,,,,,,,,,,,,,,,,,,,,,,,,,
,,,,,,,,,,,,,,,90236,001,2022-04-29_15h06.04.343,SPAMnetsValid,2021.1.4,MacIntel,60.0240096,,,,,,,,,,,,,,,,,,,,,,,,,4,3.382,0,12,12,12,1,diverge,reveal,chant,distract the attention of,differ or turn off from,4,,,,,,,,,,,,,,,,,,,,,,,,,,,,,,,,,,,,,,,,,,,,,,,,,,,,
,,,,,,,,,,,,,,,90236,001,2022-04-29_15h06.04.343,SPAMnetsValid,2021.1.4,MacIntel,60.0240096,,,,,,,,,,,,,,,,,,,,,,,,,4,2.208,0,13,13,13,1,evoke,take away,anger,connect,bring out,4,,,,,,,,,,,,,,,,,,,,,,,,,,,,,,,,,,,,,,,,,,,,,,,,,,,,
,,,,,,,,,,,,,,,90236,001,2022-04-29_15h06.04.343,SPAMnetsValid,2021.1.4,MacIntel,60.0240096,,,,,,,,,,,,,,,,,,,,,,,,,3,1.378,0,14,14,14,1,pertinent,relevant,lying next to,necessary,bold,1,,,,,,,,,,,,,,,,,,,,,,,,,,,,,,,,,,,,,,,,,,,,,,,,,,,,
,,,,,,,,,,,,,,,90236,001,2022-04-29_15h06.04.343,SPAMnetsValid,2021.1.4,MacIntel,60.0240096,,,,,,,,,,,,,,,,,,,,,,,,,2,1.991,0,15,15,15,1,holocaust,entirety,destruction,saintly,price,2,,,,,,,,,,,,,,,,,,,,,,,,,,,,,,,,,,,,,,,,,,,,,,,,,,,,
,,,,,,,,,,,,,,,90236,001,2022-04-29_15h06.04.343,SPAMnetsValid,2021.1.4,MacIntel,60.0240096,,,,,,,,,,,,,,,,,,,,,,,,,3,2.072,0,16,16,16,1,piquant,mellow,fish,pungent,cloth,3,,,,,,,,,,,,,,,,,,,,,,,,,,,,,,,,,,,,,,,,,,,,,,,,,,,,
,,,,,,,,,,,,,,,90236,001,2022-04-29_15h06.04.343,SPAMnetsValid,2021.1.4,MacIntel,60.0240096,,,,,,,,,,,,,,,,,,,,,,,,,3,2.006,0,17,17,17,1,firmament,foundation,heavens,strong,glue,2,,,,,,,,,,,,,,,,,,,,,,,,,,,,,,,,,,,,,,,,,,,,,,,,,,,,
,,,,,,,,,,,,,,,90236,001,2022-04-29_15h06.04.343,SPAMnetsValid,2021.1.4,MacIntel,60.0240096,,,,,,,,,,,,,,,,,,,,,,,,,,,,,,,,,,,,,,1,3.548,0,0,0,0,1,marketable,partisan,jocular,marriageable,salable,essential,4,,,,,,,,,,,,,,,,,,,,,,,,,,,,,,,,,,,,,,
,,,,,,,,,,,,,,,90236,001,2022-04-29_15h06.04.343,SPAMnetsValid,2021.1.4,MacIntel,60.0240096,,,,,,,,,,,,,,,,,,,,,,,,,,,,,,,,,,,,,,1,1.573,0,1,1,1,1,cottontail,squirrel,poplar,boa,marshy plant,rabbit,5,,,,,,,,,,,,,,,,,,,,,,,,,,,,,,,,,,,,,,
,,,,,,,,,,,,,,,90236,001,2022-04-29_15h06.04.343,SPAMnetsValid,2021.1.4,MacIntel,60.0240096,,,,,,,,,,,,,,,,,,,,,,,,,,,,,,,,,,,,,,3,2.473,0,2,2,2,1,boggy,afraid,false,marshy,dense,black,3,,,,,,,,,,,,,,,,,,,,,,,,,,,,,,,,,,,,,,
,,,,,,,,,,,,,,,90236,001,2022-04-29_15h06.04.343,SPAMnetsValid,2021.1.4,MacIntel,60.0240096,,,,,,,,,,,,,,,,,,,,,,,,,,,,,,,,,,,,,,3,4.448,0,3,3,3,1,gruesomeness,blackness,falseness,vindictiveness,drunkenness,ghastliness,5,,,,,,,,,,,,,,,,,,,,,,,,,,,,,,,,,,,,,,
,,,,,,,,,,,,,,,90236,001,2022-04-29_15h06.04.343,SPAMnetsValid,2021.1.4,MacIntel,60.0240096,,,,,,,,,,,,,,,,,,,,,,,,,,,,,,,,,,,,,,2,2.745,0,4,4,4,1,loathing,diffidence,laziness,abhorrence,cleverness,comfort,3,,,,,,,,,,,,,,,,,,,,,,,,,,,,,,,,,,,,,,
,,,,,,,,,,,,,,,90236,001,2022-04-29_15h06.04.343,SPAMnetsValid,2021.1.4,MacIntel,60.0240096,,,,,,,,,,,,,,,,,,,,,,,,,,,,,,,,,,,,,,5,2.998,0,5,5,5,1,bantam,fowl,ridicule,cripple,vegetable,ensign,1,,,,,,,,,,,,,,,,,,,,,,,,,,,,,,,,,,,,,,
,,,,,,,,,,,,,,,90236,001,2022-04-29_15h06.04.343,SPAMnetsValid,2021.1.4,MacIntel,60.0240096,,,,,,,,,,,,,,,,,,,,,,,,,,,,,,,,,,,,,,5,1.871,0,6,6,6,1,evoke,wake up,surrender,reconnoiter,transcend,call forth,5,,,,,,,,,,,,,,,,,,,,,,,,,,,,,,,,,,,,,,
,,,,,,,,,,,,,,,90236,001,2022-04-29_15h06.04.343,SPAMnetsValid,2021.1.4,MacIntel,60.0240096,,,,,,,,,,,,,,,,,,,,,,,,,,,,,,,,,,,,,,4,3.491,0,7,7,7,1,unobtrusive,unintelligent,epileptic,illogical,lineal,modest,5,,,,,,,,,,,,,,,,,,,,,,,,,,,,,,,,,,,,,,
,,,,,,,,,,,,,,,90236,001,2022-04-29_15h06.04.343,SPAMnetsValid,2021.1.4,MacIntel,60.0240096,,,,,,,,,,,,,,,,,,,,,,,,,,,,,,,,,,,,,,3,1.462,0,8,8,8,1,terrain,ice cream,final test,tractor,area of ground,weight,4,,,,,,,,,,,,,,,,,,,,,,,,,,,,,,,,,,,,,,
,,,,,,,,,,,,,,,90236,001,2022-04-29_15h06.04.343,SPAMnetsValid,2021.1.4,MacIntel,60.0240096,,,,,,,,,,,,,,,,,,,,,,,,,,,,,,,,,,,,,,1,2.347,0,9,9,9,1,capriciousness,stubbornness,courage,whimsicality,amazement,greediness,3,,,,,,,,,,,,,,,,,,,,,,,,,,,,,,,,,,,,,,
,,,,,,,,,,,,,,,90236,001,2022-04-29_15h06.04.343,SPAMnetsValid,2021.1.4,MacIntel,60.0240096,,,,,,,,,,,,,,,,,,,,,,,,,,,,,,,,,,,,,,5,1.676,0,10,10,10,1,maelstrom,slander,whirlpool,enmity,armor,majolica,2,,,,,,,,,,,,,,,,,,,,,,,,,,,,,,,,,,,,,,
,,,,,,,,,,,,,,,90236,001,2022-04-29_15h06.04.343,SPAMnetsValid,2021.1.4,MacIntel,60.0240096,,,,,,,,,,,,,,,,,,,,,,,,,,,,,,,,,,,,,,1,4.754,0,11,11,11,1,tentative,critical,conclusive,authentic,provisional,apprehensive,4,,,,,,,,,,,,,,,,,,,,,,,,,,,,,,,,,,,,,,
,,,,,,,,,,,,,,,90236,001,2022-04-29_15h06.04.343,SPAMnetsValid,2021.1.4,MacIntel,60.0240096,,,,,,,,,,,,,,,,,,,,,,,,,,,,,,,,,,,,,,3,4.523,0,12,12,12,1,placate,rehabilitate,plagiarize,depredate,apprise,conciliate,5,,,,,,,,,,,,,,,,,,,,,,,,,,,,,,,,,,,,,,
,,,,,,,,,,,,,,,90236,001,2022-04-29_15h06.04.343,SPAMnetsValid,2021.1.4,MacIntel,60.0240096,,,,,,,,,,,,,,,,,,,,,,,,,,,,,,,,,,,,,,1,2.116,0,13,13,13,1,surcease,enlightenment,cessation,inattention,censor,substitution,2,,,,,,,,,,,,,,,,,,,,,,,,,,,,,,,,,,,,,,
,,,,,,,,,,,,,,,90236,001,2022-04-29_15h06.04.343,SPAMnetsValid,2021.1.4,MacIntel,60.0240096,,,,,,,,,,,,,,,,,,,,,,,,,,,,,,,,,,,,,,2,1.722,0,14,14,14,1,apathetic,wandering,impassive,hateful,prophetic,overflowing,2,,,,,,,,,,,,,,,,,,,,,,,,,,,,,,,,,,,,,,
,,,,,,,,,,,,,,,90236,001,2022-04-29_15h06.04.343,SPAMnetsValid,2021.1.4,MacIntel,60.0240096,,,,,,,,,,,,,,,,,,,,,,,,,,,,,,,,,,,,,,3,3.204,0,15,15,15,1,paternoster,paternalism,patricide,malediction,benediction,prayer,5,,,,,,,,,,,,,,,,,,,,,,,,,,,,,,,,,,,,,,
,,,,,,,,,,,,,,,90236,001,2022-04-29_15h06.04.343,SPAMnetsValid,2021.1.4,MacIntel,60.0240096,,,,,,,,,,,,,,,,,,,,,,,,,,,,,,,,,,,,,,1,1.527,0,16,16,16,1,opalescence,opulence,senescence,bankruptcy,iridescence,assiduity,4,,,,,,,,,,,,,,,,,,,,,,,,,,,,,,,,,,,,,,
,,,,,,,,,,,,,,,90236,001,2022-04-29_15h06.04.343,SPAMnetsValid,2021.1.4,MacIntel,60.0240096,,,,,,,,,,,,,,,,,,,,,,,,,,,,,,,,,,,,,,5,3.69,0,17,17,17,1,lush,stupid,luxurious,hazy,putrid,languishing,2,,,,,,,,,,,,,,,,,,,,,,,,,,,,,,,,,,,,,,
,,,,,,,,,,,,,,,90236,001,2022-04-29_15h06.04.343,SPAMnetsValid,2021.1.4,MacIntel,60.0240096,,,,,,,,,,,,,,,,,,,,,,,,,,,,,,,,,,,,,,3,1.346,0,18,18,18,1,curtailment,expenditure,abandonment,abridgment,improvement,forgery,3,,,,,,,,,,,,,,,,,,,,,,,,,,,,,,,,,,,,,,
,,,,,,,,,,,,,,,90236,001,2022-04-29_15h06.04.343,SPAMnetsValid,2021.1.4,MacIntel,60.0240096,,,,,,,,,,,,,,,,,,,,,,,,,,,,,,,,,,,,,,2,1.441,0,19,19,19,1,perversity,adversity,perviousness,travesty,waywardness,gentility,4,,,,,,,,,,,,,,,,,,,,,,,,,,,,,,,,,,,,,,
,,,,,,,,,,,,,,,90236,001,2022-04-29_15h06.04.343,SPAMnetsValid,2021.1.4,MacIntel,60.0240096,,,,,,,,,,,,,,,,,,,,,,,,,,,,,,,,,,,,,,5,2.408,0,20,20,20,1,calumnious,complimentary,analogous,slanderous,tempestuous,magnanimous,3,,,,,,,,,,,,,,,,,,,,,,,,,,,,,,,,,,,,,,
,,,,,,,,,,,,,,,90236,001,2022-04-29_15h06.04.343,SPAMnetsValid,2021.1.4,MacIntel,60.0240096,,,,,,,,,,,,,,,,,,,,,,,,,,,,,,,,,,,,,,3,2.061,0,21,21,21,1,illiberality,bigotry,imbecility,illegibility,cautery,immaturity,1,,,,,,,,,,,,,,,,,,,,,,,,,,,,,,,,,,,,,,
,,,,,,,,,,,,,,,90236,001,2022-04-29_15h06.04.343,SPAMnetsValid,2021.1.4,MacIntel,60.0240096,,,,,,,,,,,,,,,,,,,,,,,,,,,,,,,,,,,,,,2,2.174,0,22,22,22,1,clabber,rejoice,gossip,curdle,crow,hobble,3,,,,,,,,,,,,,,,,,,,,,,,,,,,,,,,,,,,,,,
,,,,,,,,,,,,,,,90236,001,2022-04-29_15h06.04.343,SPAMnetsValid,2021.1.4,MacIntel,60.0240096,,,,,,,,,,,,,,,,,,,,,,,,,,,,,,,,,,,,,,3,1.864,0,23,23,23,1,sedulousness,diligence,credulousness,seduction,perilousness,frankness,1,,,,,,,,,,,,,,,,,,,,,,,,,,,,,,,,,,,,,,
,,,,,,,,,,,,,,,90236,001,2022-04-29_15h06.04.343,SPAMnetsValid,2021.1.4,MacIntel,60.0240096,,,,,,,,,,,,,,,,,,,,,,,,,,,,,,,,,,,,,,,,,,,,,,,,,,,,helmet,bucket,0,0,0,0,1,,,,,,,,,,,,,,,,,,,,,,,,,,,,,,,
,,,,,,,,,,,,,,,90236,001,2022-04-29_15h06.04.343,SPAMnetsValid,2021.1.4,MacIntel,60.0240096,,,,,,,,,,,,,,,,,,,,,,,,,,,,,,,,,,,,,,,,,,,,,,,,,,,,step ladder,bucket,1,0,1,0,1,,,,,,,,,,,,,,,,,,,,,,,,,,,,,,,
,,,,,,,,,,,,,,,90236,001,2022-04-29_15h06.04.343,SPAMnetsValid,2021.1.4,MacIntel,60.0240096,,,,,,,,,,,,,,,,,,,,,,,,,,,,,,,,,,,,,,,,,,,,,,,,,,,,blunt weapon,bucket,2,0,2,0,1,,,,,,,,,,,,,,,,,,,,,,,,,,,,,,,
,,,,,,,,,,,,,,,90236,001,2022-04-29_15h06.04.343,SPAMnetsValid,2021.1.4,MacIntel,60.0240096,,,,,,,,,,,,,,,,,,,,,,,,,,,,,,,,,,,,,,,,,,,,,,,,,,,,trip,bucket,3,0,3,0,1,,,,,,,,,,,,,,,,,,,,,,,,,,,,,,,
,,,,,,,,,,,,,,,90236,001,2022-04-29_15h06.04.343,SPAMnetsValid,2021.1.4,MacIntel,60.0240096,,,,,,,,,,,,,,,,,,,,,,,,,,,,,,,,,,,,,,,,,,,,,,,,,,,,hammer,bucket,4,0,4,0,1,,,,,,,,,,,,,,,,,,,,,,,,,,,,,,,
,,,,,,,,,,,,,,,90236,001,2022-04-29_15h06.04.343,SPAMnetsValid,2021.1.4,MacIntel,60.0240096,,,,,,,,,,,,,,,,,,,,,,,,,,,,,,,,,,,,,,,,,,,,,,,,,,,,draw,bucket,5,0,5,0,1,,,,,,,,,,,,,,,,,,,,,,,,,,,,,,,
,,,,,,,,,,,,,,,90236,001,2022-04-29_15h06.04.343,SPAMnetsValid,2021.1.4,MacIntel,60.0240096,,,,,,,,,,,,,,,,,,,,,,,,,,,,,,,,,,,,,,,,,,,,,,,,,,,,propeller,bucket,6,0,6,0,1,,,,,,,,,,,,,,,,,,,,,,,,,,,,,,,
,,,,,,,,,,,,,,,90236,001,2022-04-29_15h06.04.343,SPAMnetsValid,2021.1.4,MacIntel,60.0240096,,,,,,,,,,,,,,,,,,,,,,,,,,,,,,,,,,,,,,,,,,,,,,,,,,,,transport animls,bucket,7,0,7,0,1,,,,,,,,,,,,,,,,,,,,,,,,,,,,,,,
,,,,,,,,,,,,,,,90236,001,2022-04-29_15h06.04.343,SPAMnetsValid,2021.1.4,MacIntel,60.0240096,,,,,,,,,,,,,,,,,,,,,,,,,,,,,,,,,,,,,,,,,,,,,,,,,,,,animals,bucket,8,0,8,0,1,,,,,,,,,,,,,,,,,,,,,,,,,,,,,,,
,,,,,,,,,,,,,,,90236,001,2022-04-29_15h06.04.343,SPAMnetsValid,2021.1.4,MacIntel,60.0240096,,,,,,,,,,,,,,,,,,,,,,,,,,,,,,,,,,,,,,,,,,,,,,,,,,,,melt into materials,bucket,9,0,9,0,1,,,,,,,,,,,,,,,,,,,,,,,,,,,,,,,
,,,,,,,,,,,,,,,90236,001,2022-04-29_15h06.04.343,SPAMnetsValid,2021.1.4,MacIntel,60.0240096,,,,,,,,,,,,,,,,,,,,,,,,,,,,,,,,,,,,,,,,,,,,,,,,,,,,,,,,,,,0,0,0,0,1,bucket,,,,,,,,,,,,,,,,,,,,,,,,,
,,,,,,,,,,,,,,,90236,001,2022-04-29_15h06.04.343,SPAMnetsValid,2021.1.4,MacIntel,60.0240096,,,,,,,,,,,,,,,,,,,,,,,,,,,,,,,,,,,,,,,,,,,,,,,,,,,,weapon,pillow,0,0,0,0,1,,,,,,,,,,,,,,,,,,,,,,,,,,,,,,,
,,,,,,,,,,,,,,,90236,001,2022-04-29_15h06.04.343,SPAMnetsValid,2021.1.4,MacIntel,60.0240096,,,,,,,,,,,,,,,,,,,,,,,,,,,,,,,,,,,,,,,,,,,,,,,,,,,,cushion a fall,pillow,1,0,1,0,1,,,,,,,,,,,,,,,,,,,,,,,,,,,,,,,
,,,,,,,,,,,,,,,90236,001,2022-04-29_15h06.04.343,SPAMnetsValid,2021.1.4,MacIntel,60.0240096,,,,,,,,,,,,,,,,,,,,,,,,,,,,,,,,,,,,,,,,,,,,,,,,,,,,armor,pillow,2,0,2,0,1,,,,,,,,,,,,,,,,,,,,,,,,,,,,,,,
,,,,,,,,,,,,,,,90236,001,2022-04-29_15h06.04.343,SPAMnetsValid,2021.1.4,MacIntel,60.0240096,,,,,,,,,,,,,,,,,,,,,,,,,,,,,,,,,,,,,,,,,,,,,,,,,,,,insulation,pillow,3,0,3,0,1,,,,,,,,,,,,,,,,,,,,,,,,,,,,,,,
,,,,,,,,,,,,,,,90236,001,2022-04-29_15h06.04.343,SPAMnetsValid,2021.1.4,MacIntel,60.0240096,,,,,,,,,,,,,,,,,,,,,,,,,,,,,,,,,,,,,,,,,,,,,,,,,,,,soundproofing,pillow,4,0,4,0,1,,,,,,,,,,,,,,,,,,,,,,,,,,,,,,,
,,,,,,,,,,,,,,,90236,001,2022-04-29_15h06.04.343,SPAMnetsValid,2021.1.4,MacIntel,60.0240096,,,,,,,,,,,,,,,,,,,,,,,,,,,,,,,,,,,,,,,,,,,,,,,,,,,,soak up liquids,pillow,5,0,5,0,1,,,,,,,,,,,,,,,,,,,,,,,,,,,,,,,
,,,,,,,,,,,,,,,90236,001,2022-04-29_15h06.04.343,SPAMnetsValid,2021.1.4,MacIntel,60.0240096,,,,,,,,,,,,,,,,,,,,,,,,,,,,,,,,,,,,,,,,,,,,,,,,,,,,height adjustment,pillow,6,0,6,0,1,,,,,,,,,,,,,,,,,,,,,,,,,,,,,,,
,,,,,,,,,,,,,,,90236,001,2022-04-29_15h06.04.343,SPAMnetsValid,2021.1.4,MacIntel,60.0240096,,,,,,,,,,,,,,,,,,,,,,,,,,,,,,,,,,,,,,,,,,,,,,,,,,,,,,,,,,,0,1,1,2,1,pillow,,,,,,,,,,,,,,,,,,,,,,,,,
,,,,,,,,,,,,,,,90236,001,2022-04-29_15h06.04.343,SPAMnetsValid,2021.1.4,MacIntel,60.0240096,,,,,,,,,,,,,,,,,,,,,,,,,,,,,,,,,,,,,,,,,,,,,,,,,,,,weapon,candle,0,0,0,0,1,,,,,,,,,,,,,,,,,,,,,,,,,,,,,,,
,,,,,,,,,,,,,,,90236,001,2022-04-29_15h06.04.343,SPAMnetsValid,2021.1.4,MacIntel,60.0240096,,,,,,,,,,,,,,,,,,,,,,,,,,,,,,,,,,,,,,,,,,,,,,,,,,,,melt into hot wax for use as weapon,candle,1,0,1,0,1,,,,,,,,,,,,,,,,,,,,,,,,,,,,,,,
,,,,,,,,,,,,,,,90236,001,2022-04-29_15h06.04.343,SPAMnetsValid,2021.1.4,MacIntel,60.0240096,,,,,,,,,,,,,,,,,,,,,,,,,,,,,,,,,,,,,,,,,,,,,,,,,,,,arson,candle,2,0,2,0,1,,,,,,,,,,,,,,,,,,,,,,,,,,,,,,,
,,,,,,,,,,,,,,,90236,001,2022-04-29_15h06.04.343,SPAMnetsValid,2021.1.4,MacIntel,60.0240096,,,,,,,,,,,,,,,,,,,,,,,,,,,,,,,,,,,,,,,,,,,,,,,,,,,,mold into tool,candle,3,0,3,0,1,,,,,,,,,,,,,,,,,,,,,,,,,,,,,,,
,,,,,,,,,,,,,,,90236,001,2022-04-29_15h06.04.343,SPAMnetsValid,2021.1.4,MacIntel,60.0240096,,,,,,,,,,,,,,,,,,,,,,,,,,,,,,,,,,,,,,,,,,,,,,,,,,,,deconstruct for materials,candle,4,0,4,0,1,,,,,,,,,,,,,,,,,,,,,,,,,,,,,,,
,,,,,,,,,,,,,,,90236,001,2022-04-29_15h06.04.343,SPAMnetsValid,2021.1.4,MacIntel,60.0240096,,,,,,,,,,,,,,,,,,,,,,,,,,,,,,,,,,,,,,,,,,,,,,,,,,,,,,,,,,,0,2,2,1,1,candle,,,,,,,,,,,,,,,,,,,,,,,,,
,,,,,,,,,,,,,,,90236,001,2022-04-29_15h06.04.343,SPAMnetsValid,2021.1.4,MacIntel,60.0240096,,,,,,,,,,,,,,,,,,,,,,,,,,,,,,,,,,,,,,,,,,,,,,,,,,,,,,,,,,,,,,,,,dog,Animals,0,0,0,0,1,,,,,,,,,,,,,,,,,,
,,,,,,,,,,,,,,,90236,001,2022-04-29_15h06.04.343,SPAMnetsValid,2021.1.4,MacIntel,60.0240096,,,,,,,,,,,,,,,,,,,,,,,,,,,,,,,,,,,,,,,,,,,,,,,,,,,,,,,,,,,,,,,,,cat,Animals,1,0,1,0,1,,,,,,,,,,,,,,,,,,
,,,,,,,,,,,,,,,90236,001,2022-04-29_15h06.04.343,SPAMnetsValid,2021.1.4,MacIntel,60.0240096,,,,,,,,,,,,,,,,,,,,,,,,,,,,,,,,,,,,,,,,,,,,,,,,,,,,,,,,,,,,,,,,,rhino,Animals,2,0,2,0,1,,,,,,,,,,,,,,,,,,
,,,,,,,,,,,,,,,90236,001,2022-04-29_15h06.04.343,SPAMnetsValid,2021.1.4,MacIntel,60.0240096,,,,,,,,,,,,,,,,,,,,,,,,,,,,,,,,,,,,,,,,,,,,,,,,,,,,,,,,,,,,,,,,,elephant,Animals,3,0,3,0,1,,,,,,,,,,,,,,,,,,
,,,,,,,,,,,,,,,90236,001,2022-04-29_15h06.04.343,SPAMnetsValid,2021.1.4,MacIntel,60.0240096,,,,,,,,,,,,,,,,,,,,,,,,,,,,,,,,,,,,,,,,,,,,,,,,,,,,,,,,,,,,,,,,,giraffe,Animals,4,0,4,0,1,,,,,,,,,,,,,,,,,,
,,,,,,,,,,,,,,,90236,001,2022-04-29_15h06.04.343,SPAMnetsValid,2021.1.4,MacIntel,60.0240096,,,,,,,,,,,,,,,,,,,,,,,,,,,,,,,,,,,,,,,,,,,,,,,,,,,,,,,,,,,,,,,,,jaguar,Animals,5,0,5,0,1,,,,,,,,,,,,,,,,,,
,,,,,,,,,,,,,,,90236,001,2022-04-29_15h06.04.343,SPAMnetsValid,2021.1.4,MacIntel,60.0240096,,,,,,,,,,,,,,,,,,,,,,,,,,,,,,,,,,,,,,,,,,,,,,,,,,,,,,,,,,,,,,,,,cheeta,Animals,6,0,6,0,1,,,,,,,,,,,,,,,,,,
,,,,,,,,,,,,,,,90236,001,2022-04-29_15h06.04.343,SPAMnetsValid,2021.1.4,MacIntel,60.0240096,,,,,,,,,,,,,,,,,,,,,,,,,,,,,,,,,,,,,,,,,,,,,,,,,,,,,,,,,,,,,,,,,dinosaur,Animals,7,0,7,0,1,,,,,,,,,,,,,,,,,,
,,,,,,,,,,,,,,,90236,001,2022-04-29_15h06.04.343,SPAMnetsValid,2021.1.4,MacIntel,60.0240096,,,,,,,,,,,,,,,,,,,,,,,,,,,,,,,,,,,,,,,,,,,,,,,,,,,,,,,,,,,,,,,,,hippo,Animals,8,0,8,0,1,,,,,,,,,,,,,,,,,,
,,,,,,,,,,,,,,,90236,001,2022-04-29_15h06.04.343,SPAMnetsValid,2021.1.4,MacIntel,60.0240096,,,,,,,,,,,,,,,,,,,,,,,,,,,,,,,,,,,,,,,,,,,,,,,,,,,,,,,,,,,,,,,,,mouse,Animals,9,0,9,0,1,,,,,,,,,,,,,,,,,,
,,,,,,,,,,,,,,,90236,001,2022-04-29_15h06.04.343,SPAMnetsValid,2021.1.4,MacIntel,60.0240096,,,,,,,,,,,,,,,,,,,,,,,,,,,,,,,,,,,,,,,,,,,,,,,,,,,,,,,,,,,,,,,,,rat,Animals,10,0,10,0,1,,,,,,,,,,,,,,,,,,
,,,,,,,,,,,,,,,90236,001,2022-04-29_15h06.04.343,SPAMnetsValid,2021.1.4,MacIntel,60.0240096,,,,,,,,,,,,,,,,,,,,,,,,,,,,,,,,,,,,,,,,,,,,,,,,,,,,,,,,,,,,,,,,,hamster,Animals,11,0,11,0,1,,,,,,,,,,,,,,,,,,
,,,,,,,,,,,,,,,90236,001,2022-04-29_15h06.04.343,SPAMnetsValid,2021.1.4,MacIntel,60.0240096,,,,,,,,,,,,,,,,,,,,,,,,,,,,,,,,,,,,,,,,,,,,,,,,,,,,,,,,,,,,,,,,,lobster,Animals,12,0,12,0,1,,,,,,,,,,,,,,,,,,
,,,,,,,,,,,,,,,90236,001,2022-04-29_15h06.04.343,SPAMnetsValid,2021.1.4,MacIntel,60.0240096,,,,,,,,,,,,,,,,,,,,,,,,,,,,,,,,,,,,,,,,,,,,,,,,,,,,,,,,,,,,,,,,,crab,Animals,13,0,13,0,1,,,,,,,,,,,,,,,,,,
,,,,,,,,,,,,,,,90236,001,2022-04-29_15h06.04.343,SPAMnetsValid,2021.1.4,MacIntel,60.0240096,,,,,,,,,,,,,,,,,,,,,,,,,,,,,,,,,,,,,,,,,,,,,,,,,,,,,,,,,,,,,,,,,fish,Animals,14,0,14,0,1,,,,,,,,,,,,,,,,,,
,,,,,,,,,,,,,,,90236,001,2022-04-29_15h06.04.343,SPAMnetsValid,2021.1.4,MacIntel,60.0240096,,,,,,,,,,,,,,,,,,,,,,,,,,,,,,,,,,,,,,,,,,,,,,,,,,,,,,,,,,,,,,,,,dolphin,Animals,15,0,15,0,1,,,,,,,,,,,,,,,,,,
,,,,,,,,,,,,,,,90236,001,2022-04-29_15h06.04.343,SPAMnetsValid,2021.1.4,MacIntel,60.0240096,,,,,,,,,,,,,,,,,,,,,,,,,,,,,,,,,,,,,,,,,,,,,,,,,,,,,,,,,,,,,,,,,shark,Animals,16,0,16,0,1,,,,,,,,,,,,,,,,,,
,,,,,,,,,,,,,,,90236,001,2022-04-29_15h06.04.343,SPAMnetsValid,2021.1.4,MacIntel,60.0240096,,,,,,,,,,,,,,,,,,,,,,,,,,,,,,,,,,,,,,,,,,,,,,,,,,,,,,,,,,,,,,,,,squid,Animals,17,0,17,0,1,,,,,,,,,,,,,,,,,,
,,,,,,,,,,,,,,,90236,001,2022-04-29_15h06.04.343,SPAMnetsValid,2021.1.4,MacIntel,60.0240096,,,,,,,,,,,,,,,,,,,,,,,,,,,,,,,,,,,,,,,,,,,,,,,,,,,,,,,,,,,,,,,,,octopus,Animals,18,0,18,0,1,,,,,,,,,,,,,,,,,,
,,,,,,,,,,,,,,,90236,001,2022-04-29_15h06.04.343,SPAMnetsValid,2021.1.4,MacIntel,60.0240096,,,,,,,,,,,,,,,,,,,,,,,,,,,,,,,,,,,,,,,,,,,,,,,,,,,,,,,,,,,,,,,,,squirrel,Animals,19,0,19,0,1,,,,,,,,,,,,,,,,,,
,,,,,,,,,,,,,,,90236,001,2022-04-29_15h06.04.343,SPAMnetsValid,2021.1.4,MacIntel,60.0240096,,,,,,,,,,,,,,,,,,,,,,,,,,,,,,,,,,,,,,,,,,,,,,,,,,,,,,,,,,,,,,,,,sea ponge,Animals,20,0,20,0,1,,,,,,,,,,,,,,,,,,
,,,,,,,,,,,,,,,90236,001,2022-04-29_15h06.04.343,SPAMnetsValid,2021.1.4,MacIntel,60.0240096,,,,,,,,,,,,,,,,,,,,,,,,,,,,,,,,,,,,,,,,,,,,,,,,,,,,,,,,,,,,,,,,,sponge,Animals,21,0,21,0,1,,,,,,,,,,,,,,,,,,
,,,,,,,,,,,,,,,90236,001,2022-04-29_15h06.04.343,SPAMnetsValid,2021.1.4,MacIntel,60.0240096,,,,,,,,,,,,,,,,,,,,,,,,,,,,,,,,,,,,,,,,,,,,,,,,,,,,,,,,,,,,,,,,,starfish,Animals,22,0,22,0,1,,,,,,,,,,,,,,,,,,
,,,,,,,,,,,,,,,90236,001,2022-04-29_15h06.04.343,SPAMnetsValid,2021.1.4,MacIntel,60.0240096,,,,,,,,,,,,,,,,,,,,,,,,,,,,,,,,,,,,,,,,,,,,,,,,,,,,,,,,,,,,,,,,,raccoon,Animals,23,0,23,0,1,,,,,,,,,,,,,,,,,,
,,,,,,,,,,,,,,,90236,001,2022-04-29_15h06.04.343,SPAMnetsValid,2021.1.4,MacIntel,60.0240096,,,,,,,,,,,,,,,,,,,,,,,,,,,,,,,,,,,,,,,,,,,,,,,,,,,,,,,,,,,,,,,,,bear,Animals,24,0,24,0,1,,,,,,,,,,,,,,,,,,
,,,,,,,,,,,,,,,90236,001,2022-04-29_15h06.04.343,SPAMnetsValid,2021.1.4,MacIntel,60.0240096,,,,,,,,,,,,,,,,,,,,,,,,,,,,,,,,,,,,,,,,,,,,,,,,,,,,,,,,,,,,,,,,,panda,Animals,25,0,25,0,1,,,,,,,,,,,,,,,,,,
,,,,,,,,,,,,,,,90236,001,2022-04-29_15h06.04.343,SPAMnetsValid,2021.1.4,MacIntel,60.0240096,,,,,,,,,,,,,,,,,,,,,,,,,,,,,,,,,,,,,,,,,,,,,,,,,,,,,,,,,,,,,,,,,koala,Animals,26,0,26,0,1,,,,,,,,,,,,,,,,,,
,,,,,,,,,,,,,,,90236,001,2022-04-29_15h06.04.343,SPAMnetsValid,2021.1.4,MacIntel,60.0240096,,,,,,,,,,,,,,,,,,,,,,,,,,,,,,,,,,,,,,,,,,,,,,,,,,,,,,,,,,,,,,,,,monitor lizard,Animals,27,0,27,0,1,,,,,,,,,,,,,,,,,,
,,,,,,,,,,,,,,,90236,001,2022-04-29_15h06.04.343,SPAMnetsValid,2021.1.4,MacIntel,60.0240096,,,,,,,,,,,,,,,,,,,,,,,,,,,,,,,,,,,,,,,,,,,,,,,,,,,,,,,,,,,,,,,,,komodo dragon,Animals,28,0,28,0,1,,,,,,,,,,,,,,,,,,
,,,,,,,,,,,,,,,90236,001,2022-04-29_15h06.04.343,SPAMnetsValid,2021.1.4,MacIntel,60.0240096,,,,,,,,,,,,,,,,,,,,,,,,,,,,,,,,,,,,,,,,,,,,,,,,,,,,,,,,,,,,,,,,,leopard,Animals,29,0,29,0,1,,,,,,,,,,,,,,,,,,
,,,,,,,,,,,,,,,90236,001,2022-04-29_15h06.04.343,SPAMnetsValid,2021.1.4,MacIntel,60.0240096,,,,,,,,,,,,,,,,,,,,,,,,,,,,,,,,,,,,,,,,,,,,,,,,,,,,,,,,,,,,,,,,,chameleon,Animals,30,0,30,0,1,,,,,,,,,,,,,,,,,,
,,,,,,,,,,,,,,,90236,001,2022-04-29_15h06.04.343,SPAMnetsValid,2021.1.4,MacIntel,60.0240096,,,,,,,,,,,,,,,,,,,,,,,,,,,,,,,,,,,,,,,,,,,,,,,,,,,,,,,,,,,,,,,,,lion,Animals,31,0,31,0,1,,,,,,,,,,,,,,,,,,
,,,,,,,,,,,,,,,90236,001,2022-04-29_15h06.04.343,SPAMnetsValid,2021.1.4,MacIntel,60.0240096,,,,,,,,,,,,,,,,,,,,,,,,,,,,,,,,,,,,,,,,,,,,,,,,,,,,,,,,,,,,,,,,,tiger,Animals,32,0,32,0,1,,,,,,,,,,,,,,,,,,
,,,,,,,,,,,,,,,90236,001,2022-04-29_15h06.04.343,SPAMnetsValid,2021.1.4,MacIntel,60.0240096,,,,,,,,,,,,,,,,,,,,,,,,,,,,,,,,,,,,,,,,,,,,,,,,,,,,,,,,,,,,,,,,,gorilla,Animals,33,0,33,0,1,,,,,,,,,,,,,,,,,,
,,,,,,,,,,,,,,,90236,001,2022-04-29_15h06.04.343,SPAMnetsValid,2021.1.4,MacIntel,60.0240096,,,,,,,,,,,,,,,,,,,,,,,,,,,,,,,,,,,,,,,,,,,,,,,,,,,,,,,,,,,,,,,,,monkey,Animals,34,0,34,0,1,,,,,,,,,,,,,,,,,,
,,,,,,,,,,,,,,,90236,001,2022-04-29_15h06.04.343,SPAMnetsValid,2021.1.4,MacIntel,60.0240096,,,,,,,,,,,,,,,,,,,,,,,,,,,,,,,,,,,,,,,,,,,,,,,,,,,,,,,,,,,,,,,,,frog,Animals,35,0,35,0,1,,,,,,,,,,,,,,,,,,
,,,,,,,,,,,,,,,90236,001,2022-04-29_15h06.04.343,SPAMnetsValid,2021.1.4,MacIntel,60.0240096,,,,,,,,,,,,,,,,,,,,,,,,,,,,,,,,,,,,,,,,,,,,,,,,,,,,,,,,,,,,,,,,,clam,Animals,36,0,36,0,1,,,,,,,,,,,,,,,,,,
,,,,,,,,,,,,,,,90236,001,2022-04-29_15h06.04.343,SPAMnetsValid,2021.1.4,MacIntel,60.0240096,,,,,,,,,,,,,,,,,,,,,,,,,,,,,,,,,,,,,,,,,,,,,,,,,,,,,,,,,,,,,,,,,oyster,Animals,37,0,37,0,1,,,,,,,,,,,,,,,,,,
,,,,,,,,,,,,,,,90236,001,2022-04-29_15h06.04.343,SPAMnetsValid,2021.1.4,MacIntel,60.0240096,,,,,,,,,,,,,,,,,,,,,,,,,,,,,,,,,,,,,,,,,,,,,,,,,,,,,,,,,,,,,,,,,crawfish,Animals,38,0,38,0,1,,,,,,,,,,,,,,,,,,
,,,,,,,,,,,,,,,90236,001,2022-04-29_15h06.04.343,SPAMnetsValid,2021.1.4,MacIntel,60.0240096,,,,,,,,,,,,,,,,,,,,,,,,,,,,,,,,,,,,,,,,,,,,,,,,,,,,,,,,,,,,,,,,,,,,,,,,0,0,0,0,1,Animals,,,,,,,,,,,,
,,,,,,,,,,,,,,,90236,001,2022-04-29_15h06.04.343,SPAMnetsValid,2021.1.4,MacIntel,60.0240096,,,,,,,,,,,,,,,,,,,,,,,,,,,,,,,,,,,,,,,,,,,,,,,,,,,,,,,,,,,,,,,,,,,,,,,,,,,,,,4,3.422,0,0,0,0,1,"I enjoy concentrating on a fantasy or daydream and exploring all its possibilities, letting it grow and develop.",0,1,,
,,,,,,,,,,,,,,,90236,001,2022-04-29_15h06.04.343,SPAMnetsValid,2021.1.4,MacIntel,60.0240096,,,,,,,,,,,,,,,,,,,,,,,,,,,,,,,,,,,,,,,,,,,,,,,,,,,,,,,,,,,,,,,,,,,,,,,,,,,,,,3,2.581,0,1,1,1,1,I think it's interesting to learn and develop new hobbies.,0,2,,
,,,,,,,,,,,,,,,90236,001,2022-04-29_15h06.04.343,SPAMnetsValid,2021.1.4,MacIntel,60.0240096,,,,,,,,,,,,,,,,,,,,,,,,,,,,,,,,,,,,,,,,,,,,,,,,,,,,,,,,,,,,,,,,,,,,,,,,,,,,,,5,1.923,0,2,2,2,1,I am intrigued by the patterns I find in art and nature.,0,3,,
,,,,,,,,,,,,,,,90236,001,2022-04-29_15h06.04.343,SPAMnetsValid,2021.1.4,MacIntel,60.0240096,,,,,,,,,,,,,,,,,,,,,,,,,,,,,,,,,,,,,,,,,,,,,,,,,,,,,,,,,,,,,,,,,,,,,,,,,,,,,,3,3.381,0,3,3,3,1,I believe letting students hear controversial speakers can only confuse and mislead them.,1,4,,
,,,,,,,,,,,,,,,90236,001,2022-04-29_15h06.04.343,SPAMnetsValid,2021.1.4,MacIntel,60.0240096,,,,,,,,,,,,,,,,,,,,,,,,,,,,,,,,,,,,,,,,,,,,,,,,,,,,,,,,,,,,,,,,,,,,,,,,,,,,,,1,2.542,0,4,4,4,1,Poetry has little or no effect on me.,1,5,,
,,,,,,,,,,,,,,,90236,001,2022-04-29_15h06.04.343,SPAMnetsValid,2021.1.4,MacIntel,60.0240096,,,,,,,,,,,,,,,,,,,,,,,,,,,,,,,,,,,,,,,,,,,,,,,,,,,,,,,,,,,,,,,,,,,,,,,,,,,,,,1,5.265,0,5,5,5,1,I would have difficulty just letting my mind wander without control or guidance.,1,6,,
,,,,,,,,,,,,,,,90236,001,2022-04-29_15h06.04.343,SPAMnetsValid,2021.1.4,MacIntel,60.0240096,,,,,,,,,,,,,,,,,,,,,,,,,,,,,,,,,,,,,,,,,,,,,,,,,,,,,,,,,,,,,,,,,,,,,,,,,,,,,,5,5.945,0,6,6,6,1,I seldom notice the moods or feelings that different environments produce.,1,7,,
,,,,,,,,,,,,,,,90236,001,2022-04-29_15h06.04.343,SPAMnetsValid,2021.1.4,MacIntel,60.0240096,,,,,,,,,,,,,,,,,,,,,,,,,,,,,,,,,,,,,,,,,,,,,,,,,,,,,,,,,,,,,,,,,,,,,,,,,,,,,,5,1.107,0,7,7,7,1,I experience a wide range of emotions or feelings.,0,8,,
,,,,,,,,,,,,,,,90236,001,2022-04-29_15h06.04.343,SPAMnetsValid,2021.1.4,MacIntel,60.0240096,,,,,,,,,,,,,,,,,,,,,,,,,,,,,,,,,,,,,,,,,,,,,,,,,,,,,,,,,,,,,,,,,,,,,,,,,,,,,,5,17.985,0,8,8,8,1,"Sometimes when I am reading poetry or looking at a work of art, I feel a chill or wave of excitement.",0,9,,
,,,,,,,,,,,,,,,90236,001,2022-04-29_15h06.04.343,SPAMnetsValid,2021.1.4,MacIntel,60.0240096,,,,,,,,,,,,,,,,,,,,,,,,,,,,,,,,,,,,,,,,,,,,,,,,,,,,,,,,,,,,,,,,,,,,,,,,,,,,,,2,2.742,0,9,9,9,1,I have little interest in speculating on the nature of the universe or the human condition.,1,10,,
,,,,,,,,,,,,,,,90236,001,2022-04-29_15h06.04.343,SPAMnetsValid,2021.1.4,MacIntel,60.0240096,,,,,,,,,,,,,,,,,,,,,,,,,,,,,,,,,,,,,,,,,,,,,,,,,,,,,,,,,,,,,,,,,,,,,,,,,,,,,,4,7.814,0,10,10,10,1,I have a lot of intellectual curiosity.,0,11,,
,,,,,,,,,,,,,,,90236,001,2022-04-29_15h06.04.343,SPAMnetsValid,2021.1.4,MacIntel,60.0240096,,,,,,,,,,,,,,,,,,,,,,,,,,,,,,,,,,,,,,,,,,,,,,,,,,,,,,,,,,,,,,,,,,,,,,,,,,,,,,5,1.626,0,11,11,11,1,I often enjoy playing with theories or abstract ideas.,0,12,,
,,,,,,,,,,,,,,,90236,001,2022-04-29_15h06.04.343,SPAMnetsValid,2021.1.4,MacIntel,60.0240096,,,,,,,,,,,,,,,,,,,,,,,,,,,,,,,,,,,,,,,,,,,,,,,,,,,,,,,,,,,,,,,,,,,,,,,,,,,,,,,,,,,,,,,,return,3.407
