key_resp_3.keys,key_resp_3.rt,slider.response,slider.rt,rjt_rating,rjt_RT,trials_22.thisRepN,trials_22.thisTrialN,trials_22.thisN,trials_22.thisIndex,trials_22.ran,rjt_order,word1,word2,attention,participant,session,date,expName,psychopyVersion,OS,frameRate,trials_99.thisRepN,trials_99.thisTrialN,trials_99.thisN,trials_99.thisIndex,trials_99.ran,trials_5.thisRepN,trials_5.thisTrialN,trials_5.thisN,trials_5.thisIndex,trials_5.ran,repOne,repTwo,slider_2.response,slider_2.rt,trials_24.thisRepN,trials_24.thisTrialN,trials_24.thisN,trials_24.thisIndex,trials_24.ran,trials_4.thisRepN,trials_4.thisTrialN,trials_4.thisN,trials_4.thisIndex,trials_4.ran,slider_extend_2.response,slider_extend_2.rt,trials_6.thisRepN,trials_6.thisTrialN,trials_6.thisN,trials_6.thisIndex,trials_6.ran,vCue2,R1,R2,R3,R4,correct,sliderVocab.response,sliderVocab.rt,trials_7.thisRepN,trials_7.thisTrialN,trials_7.thisN,trials_7.thisIndex,trials_7.ran,VocabCue,VR1,VR2,VR3,VR4,VR5,VocabCorrect,AUT_resp,AUT_label,trials.thisRepN,trials.thisTrialN,trials.thisN,trials.thisIndex,trials.ran,trials_2.thisRepN,trials_2.thisTrialN,trials_2.thisN,trials_2.thisIndex,trials_2.ran,aut_prompt,VF_response,VF_tag,trials_16.thisRepN,trials_16.thisTrialN,trials_16.thisN,trials_16.thisIndex,trials_16.ran,trials_17.thisRepN,trials_17.thisTrialN,trials_17.thisN,trials_17.thisIndex,trials_17.ran,VFcond,open_slider.response,open_slider.rt,trials_3.thisRepN,trials_3.thisTrialN,trials_3.thisN,trials_3.thisIndex,trials_3.ran,OpenQ,Rev,OPEN_ORDER,key_resp_2.keys,key_resp_2.rt
return,30.6195,3,4.8083,3,4.8083,0,0,0,75,1,69,carrot,refrigerator,,90240,001,2022-04-28_13h09.03.020,SPAMnetsValid,2021.1.4,Win32,60.0132029,,,,,,,,,,,,,,,,,,,,,,,,,,,,,,,,,,,,,,,,,,,,,,,,,,,,,,,,,,,,,,,,,,,,,,,,,,,,,,,,,,,,,,,,,
,,2,3.5464,2,3.5464,0,1,1,12,1,67,flower,yogurt,,90240,001,2022-04-28_13h09.03.020,SPAMnetsValid,2021.1.4,Win32,60.0132029,,,,,,,,,,,,,,,,,,,,,,,,,,,,,,,,,,,,,,,,,,,,,,,,,,,,,,,,,,,,,,,,,,,,,,,,,,,,,,,,,,,,,,,,,
,,6,5.4637,6,5.4637,0,2,2,68,1,24,cookie,tomato,,90240,001,2022-04-28_13h09.03.020,SPAMnetsValid,2021.1.4,Win32,60.0132029,,,,,,,,,,,,,,,,,,,,,,,,,,,,,,,,,,,,,,,,,,,,,,,,,,,,,,,,,,,,,,,,,,,,,,,,,,,,,,,,,,,,,,,,,
,,6,4.8677,6,4.8677,0,3,3,20,1,39,melon,pretzel,,90240,001,2022-04-28_13h09.03.020,SPAMnetsValid,2021.1.4,Win32,60.0132029,,,,,,,,,,,,,,,,,,,,,,,,,,,,,,,,,,,,,,,,,,,,,,,,,,,,,,,,,,,,,,,,,,,,,,,,,,,,,,,,,,,,,,,,,
,,5,6.0172,5,6.0172,0,4,4,2,1,22,kitchen,strawberry,,90240,001,2022-04-28_13h09.03.020,SPAMnetsValid,2021.1.4,Win32,60.0132029,,,,,,,,,,,,,,,,,,,,,,,,,,,,,,,,,,,,,,,,,,,,,,,,,,,,,,,,,,,,,,,,,,,,,,,,,,,,,,,,,,,,,,,,,
,,4,3.8029,4,3.8029,0,5,5,41,1,19,microwave,pretzel,,90240,001,2022-04-28_13h09.03.020,SPAMnetsValid,2021.1.4,Win32,60.0132029,,,,,,,,,,,,,,,,,,,,,,,,,,,,,,,,,,,,,,,,,,,,,,,,,,,,,,,,,,,,,,,,,,,,,,,,,,,,,,,,,,,,,,,,,
,,7,2.3973,7,2.3973,0,6,6,67,1,54,chocolate,yogurt,,90240,001,2022-04-28_13h09.03.020,SPAMnetsValid,2021.1.4,Win32,60.0132029,,,,,,,,,,,,,,,,,,,,,,,,,,,,,,,,,,,,,,,,,,,,,,,,,,,,,,,,,,,,,,,,,,,,,,,,,,,,,,,,,,,,,,,,,
,,2,2.6343,2,2.6343,0,7,7,47,1,73,broom,chocolate,,90240,001,2022-04-28_13h09.03.020,SPAMnetsValid,2021.1.4,Win32,60.0132029,,,,,,,,,,,,,,,,,,,,,,,,,,,,,,,,,,,,,,,,,,,,,,,,,,,,,,,,,,,,,,,,,,,,,,,,,,,,,,,,,,,,,,,,,
,,2,2.2132,2,2.2132,0,8,8,59,1,8,broom,melon,,90240,001,2022-04-28_13h09.03.020,SPAMnetsValid,2021.1.4,Win32,60.0132029,,,,,,,,,,,,,,,,,,,,,,,,,,,,,,,,,,,,,,,,,,,,,,,,,,,,,,,,,,,,,,,,,,,,,,,,,,,,,,,,,,,,,,,,,
,,4,2.4588,4,2.4588,0,9,9,11,1,37,garden,refrigerator,,90240,001,2022-04-28_13h09.03.020,SPAMnetsValid,2021.1.4,Win32,60.0132029,,,,,,,,,,,,,,,,,,,,,,,,,,,,,,,,,,,,,,,,,,,,,,,,,,,,,,,,,,,,,,,,,,,,,,,,,,,,,,,,,,,,,,,,,
,,7,4.8514,7,4.8514,0,10,10,64,1,9,kitchen,refrigerator,,90240,001,2022-04-28_13h09.03.020,SPAMnetsValid,2021.1.4,Win32,60.0132029,,,,,,,,,,,,,,,,,,,,,,,,,,,,,,,,,,,,,,,,,,,,,,,,,,,,,,,,,,,,,,,,,,,,,,,,,,,,,,,,,,,,,,,,,
,,3,3.3322,3,3.3322,0,11,11,18,1,85,cake,tree,,90240,001,2022-04-28_13h09.03.020,SPAMnetsValid,2021.1.4,Win32,60.0132029,,,,,,,,,,,,,,,,,,,,,,,,,,,,,,,,,,,,,,,,,,,,,,,,,,,,,,,,,,,,,,,,,,,,,,,,,,,,,,,,,,,,,,,,,
,,3,2.3182,3,2.3182,0,12,12,88,1,92,broom,flower,,90240,001,2022-04-28_13h09.03.020,SPAMnetsValid,2021.1.4,Win32,60.0132029,,,,,,,,,,,,,,,,,,,,,,,,,,,,,,,,,,,,,,,,,,,,,,,,,,,,,,,,,,,,,,,,,,,,,,,,,,,,,,,,,,,,,,,,,
,,4,1.8979,4,1.8979,0,13,13,63,1,21,cake,onion,,90240,001,2022-04-28_13h09.03.020,SPAMnetsValid,2021.1.4,Win32,60.0132029,,,,,,,,,,,,,,,,,,,,,,,,,,,,,,,,,,,,,,,,,,,,,,,,,,,,,,,,,,,,,,,,,,,,,,,,,,,,,,,,,,,,,,,,,
,,5,3.4969,5,3.4969,0,14,14,96,1,82,cake,kitchen,,90240,001,2022-04-28_13h09.03.020,SPAMnetsValid,2021.1.4,Win32,60.0132029,,,,,,,,,,,,,,,,,,,,,,,,,,,,,,,,,,,,,,,,,,,,,,,,,,,,,,,,,,,,,,,,,,,,,,,,,,,,,,,,,,,,,,,,,
,,4,3.4154,4,3.4154,0,15,15,69,1,45,onion,pretzel,,90240,001,2022-04-28_13h09.03.020,SPAMnetsValid,2021.1.4,Win32,60.0132029,,,,,,,,,,,,,,,,,,,,,,,,,,,,,,,,,,,,,,,,,,,,,,,,,,,,,,,,,,,,,,,,,,,,,,,,,,,,,,,,,,,,,,,,,
,,5,2.7408,5,2.7408,0,16,16,34,1,29,chocolate,melon,,90240,001,2022-04-28_13h09.03.020,SPAMnetsValid,2021.1.4,Win32,60.0132029,,,,,,,,,,,,,,,,,,,,,,,,,,,,,,,,,,,,,,,,,,,,,,,,,,,,,,,,,,,,,,,,,,,,,,,,,,,,,,,,,,,,,,,,,
,,4,1.7182,4,1.7182,0,17,17,9,1,75,cookie,onion,,90240,001,2022-04-28_13h09.03.020,SPAMnetsValid,2021.1.4,Win32,60.0132029,,,,,,,,,,,,,,,,,,,,,,,,,,,,,,,,,,,,,,,,,,,,,,,,,,,,,,,,,,,,,,,,,,,,,,,,,,,,,,,,,,,,,,,,,
,,4,2.7014,4,2.7014,0,18,18,37,1,58,garden,oven,,90240,001,2022-04-28_13h09.03.020,SPAMnetsValid,2021.1.4,Win32,60.0132029,,,,,,,,,,,,,,,,,,,,,,,,,,,,,,,,,,,,,,,,,,,,,,,,,,,,,,,,,,,,,,,,,,,,,,,,,,,,,,,,,,,,,,,,,
,,5,2.1079,5,2.1079,0,19,19,36,1,12,cookie,yogurt,,90240,001,2022-04-28_13h09.03.020,SPAMnetsValid,2021.1.4,Win32,60.0132029,,,,,,,,,,,,,,,,,,,,,,,,,,,,,,,,,,,,,,,,,,,,,,,,,,,,,,,,,,,,,,,,,,,,,,,,,,,,,,,,,,,,,,,,,
,,6,4.201,6,4.201,0,20,20,90,1,95,broom,refrigerator,,90240,001,2022-04-28_13h09.03.020,SPAMnetsValid,2021.1.4,Win32,60.0132029,,,,,,,,,,,,,,,,,,,,,,,,,,,,,,,,,,,,,,,,,,,,,,,,,,,,,,,,,,,,,,,,,,,,,,,,,,,,,,,,,,,,,,,,,
,,6,6.9009,6,6.9009,0,21,21,49,1,57,flower,kitchen,,90240,001,2022-04-28_13h09.03.020,SPAMnetsValid,2021.1.4,Win32,60.0132029,,,,,,,,,,,,,,,,,,,,,,,,,,,,,,,,,,,,,,,,,,,,,,,,,,,,,,,,,,,,,,,,,,,,,,,,,,,,,,,,,,,,,,,,,
,,9,1.8763,9,1.8763,0,22,22,10,1,191,cake,cake,CHECK,90240,001,2022-04-28_13h09.03.020,SPAMnetsValid,2021.1.4,Win32,60.0132029,,,,,,,,,,,,,,,,,,,,,,,,,,,,,,,,,,,,,,,,,,,,,,,,,,,,,,,,,,,,,,,,,,,,,,,,,,,,,,,,,,,,,,,,,
,,3,3.0176,3,3.0176,0,23,23,40,1,74,broom,pretzel,,90240,001,2022-04-28_13h09.03.020,SPAMnetsValid,2021.1.4,Win32,60.0132029,,,,,,,,,,,,,,,,,,,,,,,,,,,,,,,,,,,,,,,,,,,,,,,,,,,,,,,,,,,,,,,,,,,,,,,,,,,,,,,,,,,,,,,,,
,,5,3.6119,5,3.6119,0,24,24,46,1,41,broom,cactus,,90240,001,2022-04-28_13h09.03.020,SPAMnetsValid,2021.1.4,Win32,60.0132029,,,,,,,,,,,,,,,,,,,,,,,,,,,,,,,,,,,,,,,,,,,,,,,,,,,,,,,,,,,,,,,,,,,,,,,,,,,,,,,,,,,,,,,,,
,,4,2.8689,4,2.8689,0,25,25,8,1,43,chocolate,tomato,,90240,001,2022-04-28_13h09.03.020,SPAMnetsValid,2021.1.4,Win32,60.0132029,,,,,,,,,,,,,,,,,,,,,,,,,,,,,,,,,,,,,,,,,,,,,,,,,,,,,,,,,,,,,,,,,,,,,,,,,,,,,,,,,,,,,,,,,
,,3,1.8408,3,1.8408,0,26,26,70,1,5,oven,tree,,90240,001,2022-04-28_13h09.03.020,SPAMnetsValid,2021.1.4,Win32,60.0132029,,,,,,,,,,,,,,,,,,,,,,,,,,,,,,,,,,,,,,,,,,,,,,,,,,,,,,,,,,,,,,,,,,,,,,,,,,,,,,,,,,,,,,,,,
,,6,2.4853,6,2.4853,0,27,27,80,1,61,strawberry,tomato,,90240,001,2022-04-28_13h09.03.020,SPAMnetsValid,2021.1.4,Win32,60.0132029,,,,,,,,,,,,,,,,,,,,,,,,,,,,,,,,,,,,,,,,,,,,,,,,,,,,,,,,,,,,,,,,,,,,,,,,,,,,,,,,,,,,,,,,,
,,4,2.2966,4,2.2966,0,28,28,23,1,65,broom,garden,,90240,001,2022-04-28_13h09.03.020,SPAMnetsValid,2021.1.4,Win32,60.0132029,,,,,,,,,,,,,,,,,,,,,,,,,,,,,,,,,,,,,,,,,,,,,,,,,,,,,,,,,,,,,,,,,,,,,,,,,,,,,,,,,,,,,,,,,
,,6,2.6023,6,2.6023,0,29,29,62,1,18,onion,refrigerator,,90240,001,2022-04-28_13h09.03.020,SPAMnetsValid,2021.1.4,Win32,60.0132029,,,,,,,,,,,,,,,,,,,,,,,,,,,,,,,,,,,,,,,,,,,,,,,,,,,,,,,,,,,,,,,,,,,,,,,,,,,,,,,,,,,,,,,,,
,,2,3.4915,2,3.4915,0,30,30,43,1,11,refrigerator,tree,,90240,001,2022-04-28_13h09.03.020,SPAMnetsValid,2021.1.4,Win32,60.0132029,,,,,,,,,,,,,,,,,,,,,,,,,,,,,,,,,,,,,,,,,,,,,,,,,,,,,,,,,,,,,,,,,,,,,,,,,,,,,,,,,,,,,,,,,
,,4,2.4341,4,2.4341,0,31,31,35,1,55,tomato,tree,,90240,001,2022-04-28_13h09.03.020,SPAMnetsValid,2021.1.4,Win32,60.0132029,,,,,,,,,,,,,,,,,,,,,,,,,,,,,,,,,,,,,,,,,,,,,,,,,,,,,,,,,,,,,,,,,,,,,,,,,,,,,,,,,,,,,,,,,
,,2,1.946,2,1.946,0,32,32,74,1,70,chocolate,onion,,90240,001,2022-04-28_13h09.03.020,SPAMnetsValid,2021.1.4,Win32,60.0132029,,,,,,,,,,,,,,,,,,,,,,,,,,,,,,,,,,,,,,,,,,,,,,,,,,,,,,,,,,,,,,,,,,,,,,,,,,,,,,,,,,,,,,,,,
,,4,2.0381,4,2.0381,0,33,33,28,1,84,oven,tomato,,90240,001,2022-04-28_13h09.03.020,SPAMnetsValid,2021.1.4,Win32,60.0132029,,,,,,,,,,,,,,,,,,,,,,,,,,,,,,,,,,,,,,,,,,,,,,,,,,,,,,,,,,,,,,,,,,,,,,,,,,,,,,,,,,,,,,,,,
,,4,1.8082,4,1.8082,0,34,34,39,1,15,onion,oven,,90240,001,2022-04-28_13h09.03.020,SPAMnetsValid,2021.1.4,Win32,60.0132029,,,,,,,,,,,,,,,,,,,,,,,,,,,,,,,,,,,,,,,,,,,,,,,,,,,,,,,,,,,,,,,,,,,,,,,,,,,,,,,,,,,,,,,,,
,,2,4.4518,2,4.4518,0,35,35,65,1,46,garden,yogurt,,90240,001,2022-04-28_13h09.03.020,SPAMnetsValid,2021.1.4,Win32,60.0132029,,,,,,,,,,,,,,,,,,,,,,,,,,,,,,,,,,,,,,,,,,,,,,,,,,,,,,,,,,,,,,,,,,,,,,,,,,,,,,,,,,,,,,,,,
,,2,2.2094,2,2.2094,0,36,36,50,1,81,pretzel,yogurt,,90240,001,2022-04-28_13h09.03.020,SPAMnetsValid,2021.1.4,Win32,60.0132029,,,,,,,,,,,,,,,,,,,,,,,,,,,,,,,,,,,,,,,,,,,,,,,,,,,,,,,,,,,,,,,,,,,,,,,,,,,,,,,,,,,,,,,,,
,,1,7.0512,1,7.0512,0,37,37,85,1,90,cactus,cake,,90240,001,2022-04-28_13h09.03.020,SPAMnetsValid,2021.1.4,Win32,60.0132029,,,,,,,,,,,,,,,,,,,,,,,,,,,,,,,,,,,,,,,,,,,,,,,,,,,,,,,,,,,,,,,,,,,,,,,,,,,,,,,,,,,,,,,,,
,,8,3.1678,8,3.1678,0,38,38,58,1,94,kitchen,microwave,,90240,001,2022-04-28_13h09.03.020,SPAMnetsValid,2021.1.4,Win32,60.0132029,,,,,,,,,,,,,,,,,,,,,,,,,,,,,,,,,,,,,,,,,,,,,,,,,,,,,,,,,,,,,,,,,,,,,,,,,,,,,,,,,,,,,,,,,
,,2,2.8977,2,2.8977,0,39,39,5,1,13,broom,yogurt,,90240,001,2022-04-28_13h09.03.020,SPAMnetsValid,2021.1.4,Win32,60.0132029,,,,,,,,,,,,,,,,,,,,,,,,,,,,,,,,,,,,,,,,,,,,,,,,,,,,,,,,,,,,,,,,,,,,,,,,,,,,,,,,,,,,,,,,,
,,6,1.9459,6,1.9459,0,40,40,29,1,42,garden,kitchen,,90240,001,2022-04-28_13h09.03.020,SPAMnetsValid,2021.1.4,Win32,60.0132029,,,,,,,,,,,,,,,,,,,,,,,,,,,,,,,,,,,,,,,,,,,,,,,,,,,,,,,,,,,,,,,,,,,,,,,,,,,,,,,,,,,,,,,,,
,,5,3.2721,5,3.2721,0,41,41,51,1,47,onion,tomato,,90240,001,2022-04-28_13h09.03.020,SPAMnetsValid,2021.1.4,Win32,60.0132029,,,,,,,,,,,,,,,,,,,,,,,,,,,,,,,,,,,,,,,,,,,,,,,,,,,,,,,,,,,,,,,,,,,,,,,,,,,,,,,,,,,,,,,,,
,,2,3.2468,2,3.2468,0,42,42,14,1,64,chocolate,garden,,90240,001,2022-04-28_13h09.03.020,SPAMnetsValid,2021.1.4,Win32,60.0132029,,,,,,,,,,,,,,,,,,,,,,,,,,,,,,,,,,,,,,,,,,,,,,,,,,,,,,,,,,,,,,,,,,,,,,,,,,,,,,,,,,,,,,,,,
,,6,2.7844,6,2.7844,0,43,43,15,1,48,flower,oven,,90240,001,2022-04-28_13h09.03.020,SPAMnetsValid,2021.1.4,Win32,60.0132029,,,,,,,,,,,,,,,,,,,,,,,,,,,,,,,,,,,,,,,,,,,,,,,,,,,,,,,,,,,,,,,,,,,,,,,,,,,,,,,,,,,,,,,,,
,,3,2.1535,3,2.1535,0,44,44,33,1,32,cake,microwave,,90240,001,2022-04-28_13h09.03.020,SPAMnetsValid,2021.1.4,Win32,60.0132029,,,,,,,,,,,,,,,,,,,,,,,,,,,,,,,,,,,,,,,,,,,,,,,,,,,,,,,,,,,,,,,,,,,,,,,,,,,,,,,,,,,,,,,,,
,,1,2.0841,1,2.0841,0,45,45,1,1,31,cactus,pretzel,,90240,001,2022-04-28_13h09.03.020,SPAMnetsValid,2021.1.4,Win32,60.0132029,,,,,,,,,,,,,,,,,,,,,,,,,,,,,,,,,,,,,,,,,,,,,,,,,,,,,,,,,,,,,,,,,,,,,,,,,,,,,,,,,,,,,,,,,
,,1,2.4048,1,2.4048,0,46,46,27,1,72,broom,onion,,90240,001,2022-04-28_13h09.03.020,SPAMnetsValid,2021.1.4,Win32,60.0132029,,,,,,,,,,,,,,,,,,,,,,,,,,,,,,,,,,,,,,,,,,,,,,,,,,,,,,,,,,,,,,,,,,,,,,,,,,,,,,,,,,,,,,,,,
,,8,2.4158,8,2.4158,0,47,47,44,1,25,carrot,onion,,90240,001,2022-04-28_13h09.03.020,SPAMnetsValid,2021.1.4,Win32,60.0132029,,,,,,,,,,,,,,,,,,,,,,,,,,,,,,,,,,,,,,,,,,,,,,,,,,,,,,,,,,,,,,,,,,,,,,,,,,,,,,,,,,,,,,,,,
,,4,2.8738,4,2.8738,0,48,48,81,1,60,cactus,onion,,90240,001,2022-04-28_13h09.03.020,SPAMnetsValid,2021.1.4,Win32,60.0132029,,,,,,,,,,,,,,,,,,,,,,,,,,,,,,,,,,,,,,,,,,,,,,,,,,,,,,,,,,,,,,,,,,,,,,,,,,,,,,,,,,,,,,,,,
,,3,4.8981,3,4.8981,0,49,49,0,1,53,garden,pretzel,,90240,001,2022-04-28_13h09.03.020,SPAMnetsValid,2021.1.4,Win32,60.0132029,,,,,,,,,,,,,,,,,,,,,,,,,,,,,,,,,,,,,,,,,,,,,,,,,,,,,,,,,,,,,,,,,,,,,,,,,,,,,,,,,,,,,,,,,
,,3,2.4649,3,2.4649,0,50,50,71,1,38,pretzel,refrigerator,,90240,001,2022-04-28_13h09.03.020,SPAMnetsValid,2021.1.4,Win32,60.0132029,,,,,,,,,,,,,,,,,,,,,,,,,,,,,,,,,,,,,,,,,,,,,,,,,,,,,,,,,,,,,,,,,,,,,,,,,,,,,,,,,,,,,,,,,
,,7,2.7846,7,2.7846,0,51,51,83,1,6,garden,onion,,90240,001,2022-04-28_13h09.03.020,SPAMnetsValid,2021.1.4,Win32,60.0132029,,,,,,,,,,,,,,,,,,,,,,,,,,,,,,,,,,,,,,,,,,,,,,,,,,,,,,,,,,,,,,,,,,,,,,,,,,,,,,,,,,,,,,,,,
,,5,1.9302,5,1.9302,0,52,52,92,1,44,cookie,melon,,90240,001,2022-04-28_13h09.03.020,SPAMnetsValid,2021.1.4,Win32,60.0132029,,,,,,,,,,,,,,,,,,,,,,,,,,,,,,,,,,,,,,,,,,,,,,,,,,,,,,,,,,,,,,,,,,,,,,,,,,,,,,,,,,,,,,,,,
,,6,1.8269,6,1.8269,0,53,53,48,1,66,melon,yogurt,,90240,001,2022-04-28_13h09.03.020,SPAMnetsValid,2021.1.4,Win32,60.0132029,,,,,,,,,,,,,,,,,,,,,,,,,,,,,,,,,,,,,,,,,,,,,,,,,,,,,,,,,,,,,,,,,,,,,,,,,,,,,,,,,,,,,,,,,
,,3,7.3967,3,7.3967,0,54,54,60,1,89,chocolate,rose,,90240,001,2022-04-28_13h09.03.020,SPAMnetsValid,2021.1.4,Win32,60.0132029,,,,,,,,,,,,,,,,,,,,,,,,,,,,,,,,,,,,,,,,,,,,,,,,,,,,,,,,,,,,,,,,,,,,,,,,,,,,,,,,,,,,,,,,,
,,9,1.4179,9,1.4179,0,55,55,53,1,192,microwave,microwave,CHECK,90240,001,2022-04-28_13h09.03.020,SPAMnetsValid,2021.1.4,Win32,60.0132029,,,,,,,,,,,,,,,,,,,,,,,,,,,,,,,,,,,,,,,,,,,,,,,,,,,,,,,,,,,,,,,,,,,,,,,,,,,,,,,,,,,,,,,,,
,,1,3.1207,1,3.1207,0,56,56,79,1,86,oven,rose,,90240,001,2022-04-28_13h09.03.020,SPAMnetsValid,2021.1.4,Win32,60.0132029,,,,,,,,,,,,,,,,,,,,,,,,,,,,,,,,,,,,,,,,,,,,,,,,,,,,,,,,,,,,,,,,,,,,,,,,,,,,,,,,,,,,,,,,,
,,5,2.678,5,2.678,0,57,57,55,1,1,rose,yogurt,,90240,001,2022-04-28_13h09.03.020,SPAMnetsValid,2021.1.4,Win32,60.0132029,,,,,,,,,,,,,,,,,,,,,,,,,,,,,,,,,,,,,,,,,,,,,,,,,,,,,,,,,,,,,,,,,,,,,,,,,,,,,,,,,,,,,,,,,
,,8,1.8289,8,1.8289,0,58,58,95,1,52,carrot,tomato,,90240,001,2022-04-28_13h09.03.020,SPAMnetsValid,2021.1.4,Win32,60.0132029,,,,,,,,,,,,,,,,,,,,,,,,,,,,,,,,,,,,,,,,,,,,,,,,,,,,,,,,,,,,,,,,,,,,,,,,,,,,,,,,,,,,,,,,,
,,3,2.0743,3,2.0743,0,59,59,57,1,62,kitchen,rose,,90240,001,2022-04-28_13h09.03.020,SPAMnetsValid,2021.1.4,Win32,60.0132029,,,,,,,,,,,,,,,,,,,,,,,,,,,,,,,,,,,,,,,,,,,,,,,,,,,,,,,,,,,,,,,,,,,,,,,,,,,,,,,,,,,,,,,,,
,,3,3.1678,3,3.1678,0,60,60,72,1,59,rose,strawberry,,90240,001,2022-04-28_13h09.03.020,SPAMnetsValid,2021.1.4,Win32,60.0132029,,,,,,,,,,,,,,,,,,,,,,,,,,,,,,,,,,,,,,,,,,,,,,,,,,,,,,,,,,,,,,,,,,,,,,,,,,,,,,,,,,,,,,,,,
,,4,3.5305,4,3.5305,0,61,61,77,1,7,melon,tree,,90240,001,2022-04-28_13h09.03.020,SPAMnetsValid,2021.1.4,Win32,60.0132029,,,,,,,,,,,,,,,,,,,,,,,,,,,,,,,,,,,,,,,,,,,,,,,,,,,,,,,,,,,,,,,,,,,,,,,,,,,,,,,,,,,,,,,,,
,,1,1.568,1,1.568,0,62,62,84,1,91,microwave,rose,,90240,001,2022-04-28_13h09.03.020,SPAMnetsValid,2021.1.4,Win32,60.0132029,,,,,,,,,,,,,,,,,,,,,,,,,,,,,,,,,,,,,,,,,,,,,,,,,,,,,,,,,,,,,,,,,,,,,,,,,,,,,,,,,,,,,,,,,
,,8,3.9075,8,3.9075,0,63,63,76,1,36,broom,kitchen,,90240,001,2022-04-28_13h09.03.020,SPAMnetsValid,2021.1.4,Win32,60.0132029,,,,,,,,,,,,,,,,,,,,,,,,,,,,,,,,,,,,,,,,,,,,,,,,,,,,,,,,,,,,,,,,,,,,,,,,,,,,,,,,,,,,,,,,,
,,7,5.5265,7,5.5265,0,64,64,91,1,2,kitchen,onion,,90240,001,2022-04-28_13h09.03.020,SPAMnetsValid,2021.1.4,Win32,60.0132029,,,,,,,,,,,,,,,,,,,,,,,,,,,,,,,,,,,,,,,,,,,,,,,,,,,,,,,,,,,,,,,,,,,,,,,,,,,,,,,,,,,,,,,,,
,,8,2.2215,8,2.2215,0,65,65,19,1,76,garden,rose,,90240,001,2022-04-28_13h09.03.020,SPAMnetsValid,2021.1.4,Win32,60.0132029,,,,,,,,,,,,,,,,,,,,,,,,,,,,,,,,,,,,,,,,,,,,,,,,,,,,,,,,,,,,,,,,,,,,,,,,,,,,,,,,,,,,,,,,,
,,2,2.1371,2,2.1371,0,66,66,31,1,33,oven,yogurt,,90240,001,2022-04-28_13h09.03.020,SPAMnetsValid,2021.1.4,Win32,60.0132029,,,,,,,,,,,,,,,,,,,,,,,,,,,,,,,,,,,,,,,,,,,,,,,,,,,,,,,,,,,,,,,,,,,,,,,,,,,,,,,,,,,,,,,,,
,,2,2.8695,2,2.8695,0,67,67,32,1,40,broom,cake,,90240,001,2022-04-28_13h09.03.020,SPAMnetsValid,2021.1.4,Win32,60.0132029,,,,,,,,,,,,,,,,,,,,,,,,,,,,,,,,,,,,,,,,,,,,,,,,,,,,,,,,,,,,,,,,,,,,,,,,,,,,,,,,,,,,,,,,,
,,3,1.8845,3,1.8845,0,68,68,6,1,87,carrot,yogurt,,90240,001,2022-04-28_13h09.03.020,SPAMnetsValid,2021.1.4,Win32,60.0132029,,,,,,,,,,,,,,,,,,,,,,,,,,,,,,,,,,,,,,,,,,,,,,,,,,,,,,,,,,,,,,,,,,,,,,,,,,,,,,,,,,,,,,,,,
,,1,1.7846,1,1.7846,0,69,69,16,1,14,broom,cookie,,90240,001,2022-04-28_13h09.03.020,SPAMnetsValid,2021.1.4,Win32,60.0132029,,,,,,,,,,,,,,,,,,,,,,,,,,,,,,,,,,,,,,,,,,,,,,,,,,,,,,,,,,,,,,,,,,,,,,,,,,,,,,,,,,,,,,,,,
,,3,4.0095,3,4.0095,0,70,70,54,1,28,cake,melon,,90240,001,2022-04-28_13h09.03.020,SPAMnetsValid,2021.1.4,Win32,60.0132029,,,,,,,,,,,,,,,,,,,,,,,,,,,,,,,,,,,,,,,,,,,,,,,,,,,,,,,,,,,,,,,,,,,,,,,,,,,,,,,,,,,,,,,,,
,,5,2.6711,5,2.6711,0,71,71,3,1,49,flower,strawberry,,90240,001,2022-04-28_13h09.03.020,SPAMnetsValid,2021.1.4,Win32,60.0132029,,,,,,,,,,,,,,,,,,,,,,,,,,,,,,,,,,,,,,,,,,,,,,,,,,,,,,,,,,,,,,,,,,,,,,,,,,,,,,,,,,,,,,,,,
,,3,2.5634,3,2.5634,0,72,72,7,1,34,melon,oven,,90240,001,2022-04-28_13h09.03.020,SPAMnetsValid,2021.1.4,Win32,60.0132029,,,,,,,,,,,,,,,,,,,,,,,,,,,,,,,,,,,,,,,,,,,,,,,,,,,,,,,,,,,,,,,,,,,,,,,,,,,,,,,,,,,,,,,,,
,,2,1.9602,2,1.9602,0,73,73,61,1,71,broom,rose,,90240,001,2022-04-28_13h09.03.020,SPAMnetsValid,2021.1.4,Win32,60.0132029,,,,,,,,,,,,,,,,,,,,,,,,,,,,,,,,,,,,,,,,,,,,,,,,,,,,,,,,,,,,,,,,,,,,,,,,,,,,,,,,,,,,,,,,,
,,3,5.9674,3,5.9674,0,74,74,94,1,68,flower,tomato,,90240,001,2022-04-28_13h09.03.020,SPAMnetsValid,2021.1.4,Win32,60.0132029,,,,,,,,,,,,,,,,,,,,,,,,,,,,,,,,,,,,,,,,,,,,,,,,,,,,,,,,,,,,,,,,,,,,,,,,,,,,,,,,,,,,,,,,,
,,8,2.0182,8,2.0182,0,75,75,21,1,56,cactus,tree,,90240,001,2022-04-28_13h09.03.020,SPAMnetsValid,2021.1.4,Win32,60.0132029,,,,,,,,,,,,,,,,,,,,,,,,,,,,,,,,,,,,,,,,,,,,,,,,,,,,,,,,,,,,,,,,,,,,,,,,,,,,,,,,,,,,,,,,,
,,2,2.6534,2,2.6534,0,76,76,73,1,50,carrot,rose,,90240,001,2022-04-28_13h09.03.020,SPAMnetsValid,2021.1.4,Win32,60.0132029,,,,,,,,,,,,,,,,,,,,,,,,,,,,,,,,,,,,,,,,,,,,,,,,,,,,,,,,,,,,,,,,,,,,,,,,,,,,,,,,,,,,,,,,,
,,8,1.6613,8,1.6613,0,77,77,30,1,3,cake,oven,,90240,001,2022-04-28_13h09.03.020,SPAMnetsValid,2021.1.4,Win32,60.0132029,,,,,,,,,,,,,,,,,,,,,,,,,,,,,,,,,,,,,,,,,,,,,,,,,,,,,,,,,,,,,,,,,,,,,,,,,,,,,,,,,,,,,,,,,
,,8,1.3174,8,1.3174,0,78,78,82,1,93,kitchen,oven,,90240,001,2022-04-28_13h09.03.020,SPAMnetsValid,2021.1.4,Win32,60.0132029,,,,,,,,,,,,,,,,,,,,,,,,,,,,,,,,,,,,,,,,,,,,,,,,,,,,,,,,,,,,,,,,,,,,,,,,,,,,,,,,,,,,,,,,,
,,1,2.0094,1,2.0094,0,79,79,17,1,27,cactus,cookie,,90240,001,2022-04-28_13h09.03.020,SPAMnetsValid,2021.1.4,Win32,60.0132029,,,,,,,,,,,,,,,,,,,,,,,,,,,,,,,,,,,,,,,,,,,,,,,,,,,,,,,,,,,,,,,,,,,,,,,,,,,,,,,,,,,,,,,,,
,,7,2.6276,7,2.6276,0,80,80,52,1,4,chocolate,pretzel,,90240,001,2022-04-28_13h09.03.020,SPAMnetsValid,2021.1.4,Win32,60.0132029,,,,,,,,,,,,,,,,,,,,,,,,,,,,,,,,,,,,,,,,,,,,,,,,,,,,,,,,,,,,,,,,,,,,,,,,,,,,,,,,,,,,,,,,,
,,4,3.2009,4,3.2009,0,81,81,26,1,35,flower,pretzel,,90240,001,2022-04-28_13h09.03.020,SPAMnetsValid,2021.1.4,Win32,60.0132029,,,,,,,,,,,,,,,,,,,,,,,,,,,,,,,,,,,,,,,,,,,,,,,,,,,,,,,,,,,,,,,,,,,,,,,,,,,,,,,,,,,,,,,,,
,,2,3.8361,2,3.8361,0,82,82,22,1,16,chocolate,flower,,90240,001,2022-04-28_13h09.03.020,SPAMnetsValid,2021.1.4,Win32,60.0132029,,,,,,,,,,,,,,,,,,,,,,,,,,,,,,,,,,,,,,,,,,,,,,,,,,,,,,,,,,,,,,,,,,,,,,,,,,,,,,,,,,,,,,,,,
,,8,1.8393,8,1.8393,0,83,83,42,1,77,refrigerator,yogurt,,90240,001,2022-04-28_13h09.03.020,SPAMnetsValid,2021.1.4,Win32,60.0132029,,,,,,,,,,,,,,,,,,,,,,,,,,,,,,,,,,,,,,,,,,,,,,,,,,,,,,,,,,,,,,,,,,,,,,,,,,,,,,,,,,,,,,,,,
,,3,2.3515,3,2.3515,0,84,84,78,1,30,cookie,pretzel,,90240,001,2022-04-28_13h09.03.020,SPAMnetsValid,2021.1.4,Win32,60.0132029,,,,,,,,,,,,,,,,,,,,,,,,,,,,,,,,,,,,,,,,,,,,,,,,,,,,,,,,,,,,,,,,,,,,,,,,,,,,,,,,,,,,,,,,,
,,6,2.4647,6,2.4647,0,85,85,24,1,17,carrot,melon,,90240,001,2022-04-28_13h09.03.020,SPAMnetsValid,2021.1.4,Win32,60.0132029,,,,,,,,,,,,,,,,,,,,,,,,,,,,,,,,,,,,,,,,,,,,,,,,,,,,,,,,,,,,,,,,,,,,,,,,,,,,,,,,,,,,,,,,,
,,5,2.18,5,2.18,0,86,86,13,1,26,tomato,yogurt,,90240,001,2022-04-28_13h09.03.020,SPAMnetsValid,2021.1.4,Win32,60.0132029,,,,,,,,,,,,,,,,,,,,,,,,,,,,,,,,,,,,,,,,,,,,,,,,,,,,,,,,,,,,,,,,,,,,,,,,,,,,,,,,,,,,,,,,,
,,5,2.2132,5,2.2132,0,87,87,86,1,51,onion,strawberry,,90240,001,2022-04-28_13h09.03.020,SPAMnetsValid,2021.1.4,Win32,60.0132029,,,,,,,,,,,,,,,,,,,,,,,,,,,,,,,,,,,,,,,,,,,,,,,,,,,,,,,,,,,,,,,,,,,,,,,,,,,,,,,,,,,,,,,,,
,,6,2.864,6,2.864,0,88,88,38,1,88,cactus,melon,,90240,001,2022-04-28_13h09.03.020,SPAMnetsValid,2021.1.4,Win32,60.0132029,,,,,,,,,,,,,,,,,,,,,,,,,,,,,,,,,,,,,,,,,,,,,,,,,,,,,,,,,,,,,,,,,,,,,,,,,,,,,,,,,,,,,,,,,
,,7,2.0128,7,2.0128,0,89,89,87,1,79,garden,strawberry,,90240,001,2022-04-28_13h09.03.020,SPAMnetsValid,2021.1.4,Win32,60.0132029,,,,,,,,,,,,,,,,,,,,,,,,,,,,,,,,,,,,,,,,,,,,,,,,,,,,,,,,,,,,,,,,,,,,,,,,,,,,,,,,,,,,,,,,,
,,1,1.6787,1,1.6787,0,90,90,4,1,83,broom,carrot,,90240,001,2022-04-28_13h09.03.020,SPAMnetsValid,2021.1.4,Win32,60.0132029,,,,,,,,,,,,,,,,,,,,,,,,,,,,,,,,,,,,,,,,,,,,,,,,,,,,,,,,,,,,,,,,,,,,,,,,,,,,,,,,,,,,,,,,,
,,3,4.6324,3,4.6324,0,91,91,56,1,78,cookie,rose,,90240,001,2022-04-28_13h09.03.020,SPAMnetsValid,2021.1.4,Win32,60.0132029,,,,,,,,,,,,,,,,,,,,,,,,,,,,,,,,,,,,,,,,,,,,,,,,,,,,,,,,,,,,,,,,,,,,,,,,,,,,,,,,,,,,,,,,,
,,1,1.8416,1,1.8416,0,92,92,89,1,80,chocolate,tree,,90240,001,2022-04-28_13h09.03.020,SPAMnetsValid,2021.1.4,Win32,60.0132029,,,,,,,,,,,,,,,,,,,,,,,,,,,,,,,,,,,,,,,,,,,,,,,,,,,,,,,,,,,,,,,,,,,,,,,,,,,,,,,,,,,,,,,,,
,,8,2.1957,8,2.1957,0,93,93,93,1,63,cake,cookie,,90240,001,2022-04-28_13h09.03.020,SPAMnetsValid,2021.1.4,Win32,60.0132029,,,,,,,,,,,,,,,,,,,,,,,,,,,,,,,,,,,,,,,,,,,,,,,,,,,,,,,,,,,,,,,,,,,,,,,,,,,,,,,,,,,,,,,,,
,,7,6.0314,7,6.0314,0,94,94,66,1,20,rose,tree,,90240,001,2022-04-28_13h09.03.020,SPAMnetsValid,2021.1.4,Win32,60.0132029,,,,,,,,,,,,,,,,,,,,,,,,,,,,,,,,,,,,,,,,,,,,,,,,,,,,,,,,,,,,,,,,,,,,,,,,,,,,,,,,,,,,,,,,,
,,4,3.1306,4,3.1306,0,95,95,45,1,10,flower,onion,,90240,001,2022-04-28_13h09.03.020,SPAMnetsValid,2021.1.4,Win32,60.0132029,,,,,,,,,,,,,,,,,,,,,,,,,,,,,,,,,,,,,,,,,,,,,,,,,,,,,,,,,,,,,,,,,,,,,,,,,,,,,,,,,,,,,,,,,
,,3,8.3009,3,8.3009,0,96,96,25,1,23,flower,microwave,,90240,001,2022-04-28_13h09.03.020,SPAMnetsValid,2021.1.4,Win32,60.0132029,,,,,,,,,,,,,,,,,,,,,,,,,,,,,,,,,,,,,,,,,,,,,,,,,,,,,,,,,,,,,,,,,,,,,,,,,,,,,,,,,,,,,,,,,
,,,,,,,,,,,,,,,90240,001,2022-04-28_13h09.03.020,SPAMnetsValid,2021.1.4,Win32,60.0132029,0,0,0,0,1,,,,,,,,,,,,,,,,,,,,,,,,,,,,,,,,,,,,,,,,,,,,,,,,,,,,,,,,,,,,,,,,,,,,,,,,,,,,,,,,,,,,
,,,,,,,,,,,,,,,90240,001,2022-04-28_13h09.03.020,SPAMnetsValid,2021.1.4,Win32,60.0132029,,,,,,0,0,0,0,1,1,0,,,,,,,,,,,,,,,,,,,,,,,,,,,,,,,,,,,,,,,,,,,,,,,,,,,,,,,,,,,,,,,,,,,,,,,,,,,,,
,,,,7,4.4939,,,,,,117,melon,strawberry,,90240,001,2022-04-28_13h09.03.020,SPAMnetsValid,2021.1.4,Win32,60.0132029,,,,,,,,,,,,,7,4.4939,0,0,0,11,1,,,,,,,,,,,,,,,,,,,,,,,,,,,,,,,,,,,,,,,,,,,,,,,,,,,,,,,,,,,,,,,,,,,,,,
,,,,1,1.5417,,,,,,187,cactus,microwave,,90240,001,2022-04-28_13h09.03.020,SPAMnetsValid,2021.1.4,Win32,60.0132029,,,,,,,,,,,,,1,1.5417,0,1,1,71,1,,,,,,,,,,,,,,,,,,,,,,,,,,,,,,,,,,,,,,,,,,,,,,,,,,,,,,,,,,,,,,,,,,,,,,
,,,,6,2.9621,,,,,,97,chocolate,kitchen,,90240,001,2022-04-28_13h09.03.020,SPAMnetsValid,2021.1.4,Win32,60.0132029,,,,,,,,,,,,,6,2.9621,0,2,2,8,1,,,,,,,,,,,,,,,,,,,,,,,,,,,,,,,,,,,,,,,,,,,,,,,,,,,,,,,,,,,,,,,,,,,,,,
,,,,6,2.3944,,,,,,131,cactus,garden,,90240,001,2022-04-28_13h09.03.020,SPAMnetsValid,2021.1.4,Win32,60.0132029,,,,,,,,,,,,,6,2.3944,0,3,3,33,1,,,,,,,,,,,,,,,,,,,,,,,,,,,,,,,,,,,,,,,,,,,,,,,,,,,,,,,,,,,,,,,,,,,,,,
,,,,2,2.2512,,,,,,145,cactus,yogurt,,90240,001,2022-04-28_13h09.03.020,SPAMnetsValid,2021.1.4,Win32,60.0132029,,,,,,,,,,,,,2,2.2512,0,4,4,15,1,,,,,,,,,,,,,,,,,,,,,,,,,,,,,,,,,,,,,,,,,,,,,,,,,,,,,,,,,,,,,,,,,,,,,,
,,,,4,3.3483,,,,,,152,cactus,strawberry,,90240,001,2022-04-28_13h09.03.020,SPAMnetsValid,2021.1.4,Win32,60.0132029,,,,,,,,,,,,,4,3.3483,0,5,5,49,1,,,,,,,,,,,,,,,,,,,,,,,,,,,,,,,,,,,,,,,,,,,,,,,,,,,,,,,,,,,,,,,,,,,,,,
,,,,7,3.9179,,,,,,166,cake,yogurt,,90240,001,2022-04-28_13h09.03.020,SPAMnetsValid,2021.1.4,Win32,60.0132029,,,,,,,,,,,,,7,3.9179,0,6,6,91,1,,,,,,,,,,,,,,,,,,,,,,,,,,,,,,,,,,,,,,,,,,,,,,,,,,,,,,,,,,,,,,,,,,,,,,
,,,,7,1.8355,,,,,,102,chocolate,refrigerator,,90240,001,2022-04-28_13h09.03.020,SPAMnetsValid,2021.1.4,Win32,60.0132029,,,,,,,,,,,,,7,1.8355,0,7,7,76,1,,,,,,,,,,,,,,,,,,,,,,,,,,,,,,,,,,,,,,,,,,,,,,,,,,,,,,,,,,,,,,,,,,,,,,
,,,,8,1.9018,,,,,,120,microwave,oven,,90240,001,2022-04-28_13h09.03.020,SPAMnetsValid,2021.1.4,Win32,60.0132029,,,,,,,,,,,,,8,1.9018,0,8,8,14,1,,,,,,,,,,,,,,,,,,,,,,,,,,,,,,,,,,,,,,,,,,,,,,,,,,,,,,,,,,,,,,,,,,,,,,
,,,,6,6.8348,,,,,,133,cake,flower,,90240,001,2022-04-28_13h09.03.020,SPAMnetsValid,2021.1.4,Win32,60.0132029,,,,,,,,,,,,,6,6.8348,0,9,9,94,1,,,,,,,,,,,,,,,,,,,,,,,,,,,,,,,,,,,,,,,,,,,,,,,,,,,,,,,,,,,,,,,,,,,,,,
,,,,6,2.3743,,,,,,106,cake,strawberry,,90240,001,2022-04-28_13h09.03.020,SPAMnetsValid,2021.1.4,Win32,60.0132029,,,,,,,,,,,,,6,2.3743,0,10,10,0,1,,,,,,,,,,,,,,,,,,,,,,,,,,,,,,,,,,,,,,,,,,,,,,,,,,,,,,,,,,,,,,,,,,,,,,
,,,,7,1.9537,,,,,,167,carrot,garden,,90240,001,2022-04-28_13h09.03.020,SPAMnetsValid,2021.1.4,Win32,60.0132029,,,,,,,,,,,,,7,1.9537,0,11,11,47,1,,,,,,,,,,,,,,,,,,,,,,,,,,,,,,,,,,,,,,,,,,,,,,,,,,,,,,,,,,,,,,,,,,,,,,
,,,,7,5.4513,,,,,,100,garden,tomato,,90240,001,2022-04-28_13h09.03.020,SPAMnetsValid,2021.1.4,Win32,60.0132029,,,,,,,,,,,,,7,5.4513,0,12,12,83,1,,,,,,,,,,,,,,,,,,,,,,,,,,,,,,,,,,,,,,,,,,,,,,,,,,,,,,,,,,,,,,,,,,,,,,
,,,,4,2.535,,,,,,174,cake,pretzel,,90240,001,2022-04-28_13h09.03.020,SPAMnetsValid,2021.1.4,Win32,60.0132029,,,,,,,,,,,,,4,2.535,0,13,13,2,1,,,,,,,,,,,,,,,,,,,,,,,,,,,,,,,,,,,,,,,,,,,,,,,,,,,,,,,,,,,,,,,,,,,,,,
,,,,6,2.5345,,,,,,125,carrot,tree,,90240,001,2022-04-28_13h09.03.020,SPAMnetsValid,2021.1.4,Win32,60.0132029,,,,,,,,,,,,,6,2.5345,0,14,14,30,1,,,,,,,,,,,,,,,,,,,,,,,,,,,,,,,,,,,,,,,,,,,,,,,,,,,,,,,,,,,,,,,,,,,,,,
,,,,8,1.7158,,,,,,150,microwave,refrigerator,,90240,001,2022-04-28_13h09.03.020,SPAMnetsValid,2021.1.4,Win32,60.0132029,,,,,,,,,,,,,8,1.7158,0,15,15,66,1,,,,,,,,,,,,,,,,,,,,,,,,,,,,,,,,,,,,,,,,,,,,,,,,,,,,,,,,,,,,,,,,,,,,,,
,,,,3,2.1679,,,,,,101,cactus,kitchen,,90240,001,2022-04-28_13h09.03.020,SPAMnetsValid,2021.1.4,Win32,60.0132029,,,,,,,,,,,,,3,2.1679,0,16,16,54,1,,,,,,,,,,,,,,,,,,,,,,,,,,,,,,,,,,,,,,,,,,,,,,,,,,,,,,,,,,,,,,,,,,,,,,
,,,,6,2.286,,,,,,177,chocolate,strawberry,,90240,001,2022-04-28_13h09.03.020,SPAMnetsValid,2021.1.4,Win32,60.0132029,,,,,,,,,,,,,6,2.286,0,17,17,53,1,,,,,,,,,,,,,,,,,,,,,,,,,,,,,,,,,,,,,,,,,,,,,,,,,,,,,,,,,,,,,,,,,,,,,,
,,,,6,2.2582,,,,,,140,cookie,refrigerator,,90240,001,2022-04-28_13h09.03.020,SPAMnetsValid,2021.1.4,Win32,60.0132029,,,,,,,,,,,,,6,2.2582,0,18,18,89,1,,,,,,,,,,,,,,,,,,,,,,,,,,,,,,,,,,,,,,,,,,,,,,,,,,,,,,,,,,,,,,,,,,,,,,
,,,,3,2.005,,,,,,164,cookie,garden,,90240,001,2022-04-28_13h09.03.020,SPAMnetsValid,2021.1.4,Win32,60.0132029,,,,,,,,,,,,,3,2.005,0,19,19,59,1,,,,,,,,,,,,,,,,,,,,,,,,,,,,,,,,,,,,,,,,,,,,,,,,,,,,,,,,,,,,,,,,,,,,,,
,,,,6,3.8884,,,,,,107,rose,tomato,,90240,001,2022-04-28_13h09.03.020,SPAMnetsValid,2021.1.4,Win32,60.0132029,,,,,,,,,,,,,6,3.8884,0,20,20,26,1,,,,,,,,,,,,,,,,,,,,,,,,,,,,,,,,,,,,,,,,,,,,,,,,,,,,,,,,,,,,,,,,,,,,,,
,,,,1,3.4847,,,,,,104,garden,microwave,,90240,001,2022-04-28_13h09.03.020,SPAMnetsValid,2021.1.4,Win32,60.0132029,,,,,,,,,,,,,1,3.4847,0,21,21,81,1,,,,,,,,,,,,,,,,,,,,,,,,,,,,,,,,,,,,,,,,,,,,,,,,,,,,,,,,,,,,,,,,,,,,,,
,,,,5,3.7915,,,,,,182,flower,refrigerator,,90240,001,2022-04-28_13h09.03.020,SPAMnetsValid,2021.1.4,Win32,60.0132029,,,,,,,,,,,,,5,3.7915,0,22,22,32,1,,,,,,,,,,,,,,,,,,,,,,,,,,,,,,,,,,,,,,,,,,,,,,,,,,,,,,,,,,,,,,,,,,,,,,
,,,,6,2.2514,,,,,,184,oven,pretzel,,90240,001,2022-04-28_13h09.03.020,SPAMnetsValid,2021.1.4,Win32,60.0132029,,,,,,,,,,,,,6,2.2514,0,23,23,42,1,,,,,,,,,,,,,,,,,,,,,,,,,,,,,,,,,,,,,,,,,,,,,,,,,,,,,,,,,,,,,,,,,,,,,,
,,,,7,3.864,,,,,,141,melon,tomato,,90240,001,2022-04-28_13h09.03.020,SPAMnetsValid,2021.1.4,Win32,60.0132029,,,,,,,,,,,,,7,3.864,0,24,24,70,1,,,,,,,,,,,,,,,,,,,,,,,,,,,,,,,,,,,,,,,,,,,,,,,,,,,,,,,,,,,,,,,,,,,,,,
,,,,6,1.8851,,,,,,163,melon,refrigerator,,90240,001,2022-04-28_13h09.03.020,SPAMnetsValid,2021.1.4,Win32,60.0132029,,,,,,,,,,,,,6,1.8851,0,25,25,29,1,,,,,,,,,,,,,,,,,,,,,,,,,,,,,,,,,,,,,,,,,,,,,,,,,,,,,,,,,,,,,,,,,,,,,,
,,,,6,2.1144,,,,,,134,carrot,flower,,90240,001,2022-04-28_13h09.03.020,SPAMnetsValid,2021.1.4,Win32,60.0132029,,,,,,,,,,,,,6,2.1144,0,26,26,93,1,,,,,,,,,,,,,,,,,,,,,,,,,,,,,,,,,,,,,,,,,,,,,,,,,,,,,,,,,,,,,,,,,,,,,,
,,,,1,2.0491,,,,,,137,microwave,tree,,90240,001,2022-04-28_13h09.03.020,SPAMnetsValid,2021.1.4,Win32,60.0132029,,,,,,,,,,,,,1,2.0491,0,27,27,63,1,,,,,,,,,,,,,,,,,,,,,,,,,,,,,,,,,,,,,,,,,,,,,,,,,,,,,,,,,,,,,,,,,,,,,,
,,,,4,2.195,,,,,,119,strawberry,tree,,90240,001,2022-04-28_13h09.03.020,SPAMnetsValid,2021.1.4,Win32,60.0132029,,,,,,,,,,,,,4,2.195,0,28,28,18,1,,,,,,,,,,,,,,,,,,,,,,,,,,,,,,,,,,,,,,,,,,,,,,,,,,,,,,,,,,,,,,,,,,,,,,
,,,,3,3.1201,,,,,,103,pretzel,tomato,,90240,001,2022-04-28_13h09.03.020,SPAMnetsValid,2021.1.4,Win32,60.0132029,,,,,,,,,,,,,3,3.1201,0,29,29,79,1,,,,,,,,,,,,,,,,,,,,,,,,,,,,,,,,,,,,,,,,,,,,,,,,,,,,,,,,,,,,,,,,,,,,,,
,,,,7,2.4472,,,,,,121,broom,microwave,,90240,001,2022-04-28_13h09.03.020,SPAMnetsValid,2021.1.4,Win32,60.0132029,,,,,,,,,,,,,7,2.4472,0,30,30,95,1,,,,,,,,,,,,,,,,,,,,,,,,,,,,,,,,,,,,,,,,,,,,,,,,,,,,,,,,,,,,,,,,,,,,,,
,,,,6,6.8395,,,,,,181,carrot,kitchen,,90240,001,2022-04-28_13h09.03.020,SPAMnetsValid,2021.1.4,Win32,60.0132029,,,,,,,,,,,,,6,6.8395,0,31,31,72,1,,,,,,,,,,,,,,,,,,,,,,,,,,,,,,,,,,,,,,,,,,,,,,,,,,,,,,,,,,,,,,,,,,,,,,
,,,,6,2.0212,,,,,,168,cactus,flower,,90240,001,2022-04-28_13h09.03.020,SPAMnetsValid,2021.1.4,Win32,60.0132029,,,,,,,,,,,,,6,2.0212,0,32,32,51,1,,,,,,,,,,,,,,,,,,,,,,,,,,,,,,,,,,,,,,,,,,,,,,,,,,,,,,,,,,,,,,,,,,,,,,
,,,,6,3.0187,,,,,,114,cookie,strawberry,,90240,001,2022-04-28_13h09.03.020,SPAMnetsValid,2021.1.4,Win32,60.0132029,,,,,,,,,,,,,6,3.0187,0,33,33,87,1,,,,,,,,,,,,,,,,,,,,,,,,,,,,,,,,,,,,,,,,,,,,,,,,,,,,,,,,,,,,,,,,,,,,,,
,,,,6,1.6283,,,,,,175,melon,onion,,90240,001,2022-04-28_13h09.03.020,SPAMnetsValid,2021.1.4,Win32,60.0132029,,,,,,,,,,,,,6,1.6283,0,34,34,41,1,,,,,,,,,,,,,,,,,,,,,,,,,,,,,,,,,,,,,,,,,,,,,,,,,,,,,,,,,,,,,,,,,,,,,,
,,,,3,3.4047,,,,,,135,carrot,oven,,90240,001,2022-04-28_13h09.03.020,SPAMnetsValid,2021.1.4,Win32,60.0132029,,,,,,,,,,,,,3,3.4047,0,35,35,73,1,,,,,,,,,,,,,,,,,,,,,,,,,,,,,,,,,,,,,,,,,,,,,,,,,,,,,,,,,,,,,,,,,,,,,,
,,,,3,3.14,,,,,,112,cake,carrot,,90240,001,2022-04-28_13h09.03.020,SPAMnetsValid,2021.1.4,Win32,60.0132029,,,,,,,,,,,,,3,3.14,0,36,36,39,1,,,,,,,,,,,,,,,,,,,,,,,,,,,,,,,,,,,,,,,,,,,,,,,,,,,,,,,,,,,,,,,,,,,,,,
,,,,3,3.264,,,,,,190,microwave,strawberry,,90240,001,2022-04-28_13h09.03.020,SPAMnetsValid,2021.1.4,Win32,60.0132029,,,,,,,,,,,,,3,3.264,0,37,37,90,1,,,,,,,,,,,,,,,,,,,,,,,,,,,,,,,,,,,,,,,,,,,,,,,,,,,,,,,,,,,,,,,,,,,,,,
,,,,4,4.5173,,,,,,183,cake,rose,,90240,001,2022-04-28_13h09.03.020,SPAMnetsValid,2021.1.4,Win32,60.0132029,,,,,,,,,,,,,4,4.5173,0,38,38,19,1,,,,,,,,,,,,,,,,,,,,,,,,,,,,,,,,,,,,,,,,,,,,,,,,,,,,,,,,,,,,,,,,,,,,,,
,,,,9,1.3921,,,,,,193,melon,melon,CHECK,90240,001,2022-04-28_13h09.03.020,SPAMnetsValid,2021.1.4,Win32,60.0132029,,,,,,,,,,,,,9,1.3921,0,39,39,86,1,,,,,,,,,,,,,,,,,,,,,,,,,,,,,,,,,,,,,,,,,,,,,,,,,,,,,,,,,,,,,,,,,,,,,,
,,,,7,2.3308,,,,,,170,cookie,microwave,,90240,001,2022-04-28_13h09.03.020,SPAMnetsValid,2021.1.4,Win32,60.0132029,,,,,,,,,,,,,7,2.3308,0,40,40,92,1,,,,,,,,,,,,,,,,,,,,,,,,,,,,,,,,,,,,,,,,,,,,,,,,,,,,,,,,,,,,,,,,,,,,,,
,,,,4,2.3145,,,,,,96,oven,strawberry,,90240,001,2022-04-28_13h09.03.020,SPAMnetsValid,2021.1.4,Win32,60.0132029,,,,,,,,,,,,,4,2.3145,0,41,41,67,1,,,,,,,,,,,,,,,,,,,,,,,,,,,,,,,,,,,,,,,,,,,,,,,,,,,,,,,,,,,,,,,,,,,,,,
,,,,2,1.6013,,,,,,180,tree,yogurt,,90240,001,2022-04-28_13h09.03.020,SPAMnetsValid,2021.1.4,Win32,60.0132029,,,,,,,,,,,,,2,1.6013,0,42,42,68,1,,,,,,,,,,,,,,,,,,,,,,,,,,,,,,,,,,,,,,,,,,,,,,,,,,,,,,,,,,,,,,,,,,,,,,
,,,,7,29.0677,,,,,,173,kitchen,tomato,,90240,001,2022-04-28_13h09.03.020,SPAMnetsValid,2021.1.4,Win32,60.0132029,,,,,,,,,,,,,7,29.0677,0,43,43,1,1,,,,,,,,,,,,,,,,,,,,,,,,,,,,,,,,,,,,,,,,,,,,,,,,,,,,,,,,,,,,,,,,,,,,,,
,,,,7,2.7396,,,,,,147,cake,refrigerator,,90240,001,2022-04-28_13h09.03.020,SPAMnetsValid,2021.1.4,Win32,60.0132029,,,,,,,,,,,,,7,2.7396,0,44,44,35,1,,,,,,,,,,,,,,,,,,,,,,,,,,,,,,,,,,,,,,,,,,,,,,,,,,,,,,,,,,,,,,,,,,,,,,
,,,,8,2.035,,,,,,122,flower,garden,,90240,001,2022-04-28_13h09.03.020,SPAMnetsValid,2021.1.4,Win32,60.0132029,,,,,,,,,,,,,8,2.035,0,45,45,60,1,,,,,,,,,,,,,,,,,,,,,,,,,,,,,,,,,,,,,,,,,,,,,,,,,,,,,,,,,,,,,,,,,,,,,,
,,,,5,3.2191,,,,,,165,onion,rose,,90240,001,2022-04-28_13h09.03.020,SPAMnetsValid,2021.1.4,Win32,60.0132029,,,,,,,,,,,,,5,3.2191,0,46,46,40,1,,,,,,,,,,,,,,,,,,,,,,,,,,,,,,,,,,,,,,,,,,,,,,,,,,,,,,,,,,,,,,,,,,,,,,
,,,,3,2.1319,,,,,,171,cake,tomato,,90240,001,2022-04-28_13h09.03.020,SPAMnetsValid,2021.1.4,Win32,60.0132029,,,,,,,,,,,,,3,2.1319,0,47,47,88,1,,,,,,,,,,,,,,,,,,,,,,,,,,,,,,,,,,,,,,,,,,,,,,,,,,,,,,,,,,,,,,,,,,,,,,
,,,,3,1.7678,,,,,,153,carrot,pretzel,,90240,001,2022-04-28_13h09.03.020,SPAMnetsValid,2021.1.4,Win32,60.0132029,,,,,,,,,,,,,3,1.7678,0,48,48,34,1,,,,,,,,,,,,,,,,,,,,,,,,,,,,,,,,,,,,,,,,,,,,,,,,,,,,,,,,,,,,,,,,,,,,,,
,,,,7,2.3725,,,,,,139,carrot,strawberry,,90240,001,2022-04-28_13h09.03.020,SPAMnetsValid,2021.1.4,Win32,60.0132029,,,,,,,,,,,,,7,2.3725,0,49,49,37,1,,,,,,,,,,,,,,,,,,,,,,,,,,,,,,,,,,,,,,,,,,,,,,,,,,,,,,,,,,,,,,,,,,,,,,
,,,,7,1.6159,,,,,,186,kitchen,yogurt,,90240,001,2022-04-28_13h09.03.020,SPAMnetsValid,2021.1.4,Win32,60.0132029,,,,,,,,,,,,,7,1.6159,0,50,50,48,1,,,,,,,,,,,,,,,,,,,,,,,,,,,,,,,,,,,,,,,,,,,,,,,,,,,,,,,,,,,,,,,,,,,,,,
,,,,7,2.2898,,,,,,160,cookie,kitchen,,90240,001,2022-04-28_13h09.03.020,SPAMnetsValid,2021.1.4,Win32,60.0132029,,,,,,,,,,,,,7,2.2898,0,51,51,65,1,,,,,,,,,,,,,,,,,,,,,,,,,,,,,,,,,,,,,,,,,,,,,,,,,,,,,,,,,,,,,,,,,,,,,,
,,,,3,2.5709,,,,,,111,carrot,microwave,,90240,001,2022-04-28_13h09.03.020,SPAMnetsValid,2021.1.4,Win32,60.0132029,,,,,,,,,,,,,3,2.5709,0,52,52,16,1,,,,,,,,,,,,,,,,,,,,,,,,,,,,,,,,,,,,,,,,,,,,,,,,,,,,,,,,,,,,,,,,,,,,,,
,,,,8,2.6793,,,,,,158,cookie,oven,,90240,001,2022-04-28_13h09.03.020,SPAMnetsValid,2021.1.4,Win32,60.0132029,,,,,,,,,,,,,8,2.6793,0,53,53,27,1,,,,,,,,,,,,,,,,,,,,,,,,,,,,,,,,,,,,,,,,,,,,,,,,,,,,,,,,,,,,,,,,,,,,,,
,,,,1,1.4875,,,,,,132,broom,tree,,90240,001,2022-04-28_13h09.03.020,SPAMnetsValid,2021.1.4,Win32,60.0132029,,,,,,,,,,,,,1,1.4875,0,54,54,78,1,,,,,,,,,,,,,,,,,,,,,,,,,,,,,,,,,,,,,,,,,,,,,,,,,,,,,,,,,,,,,,,,,,,,,,
,,,,7,3.1673,,,,,,179,broom,oven,,90240,001,2022-04-28_13h09.03.020,SPAMnetsValid,2021.1.4,Win32,60.0132029,,,,,,,,,,,,,7,3.1673,0,55,55,45,1,,,,,,,,,,,,,,,,,,,,,,,,,,,,,,,,,,,,,,,,,,,,,,,,,,,,,,,,,,,,,,,,,,,,,,
,,,,7,6.8679,,,,,,159,cookie,flower,,90240,001,2022-04-28_13h09.03.020,SPAMnetsValid,2021.1.4,Win32,60.0132029,,,,,,,,,,,,,7,6.8679,0,56,56,21,1,,,,,,,,,,,,,,,,,,,,,,,,,,,,,,,,,,,,,,,,,,,,,,,,,,,,,,,,,,,,,,,,,,,,,,
,,,,6,1.6283,,,,,,136,chocolate,microwave,,90240,001,2022-04-28_13h09.03.020,SPAMnetsValid,2021.1.4,Win32,60.0132029,,,,,,,,,,,,,6,1.6283,0,57,57,96,1,,,,,,,,,,,,,,,,,,,,,,,,,,,,,,,,,,,,,,,,,,,,,,,,,,,,,,,,,,,,,,,,,,,,,,
,,,,7,2.3403,,,,,,185,cactus,rose,,90240,001,2022-04-28_13h09.03.020,SPAMnetsValid,2021.1.4,Win32,60.0132029,,,,,,,,,,,,,7,2.3403,0,58,58,43,1,,,,,,,,,,,,,,,,,,,,,,,,,,,,,,,,,,,,,,,,,,,,,,,,,,,,,,,,,,,,,,,,,,,,,,
,,,,1,1.6512,,,,,,126,kitchen,tree,,90240,001,2022-04-28_13h09.03.020,SPAMnetsValid,2021.1.4,Win32,60.0132029,,,,,,,,,,,,,1,1.6512,0,59,59,50,1,,,,,,,,,,,,,,,,,,,,,,,,,,,,,,,,,,,,,,,,,,,,,,,,,,,,,,,,,,,,,,,,,,,,,,
,,,,1,3.1523,,,,,,129,cactus,refrigerator,,90240,001,2022-04-28_13h09.03.020,SPAMnetsValid,2021.1.4,Win32,60.0132029,,,,,,,,,,,,,1,3.1523,0,60,60,3,1,,,,,,,,,,,,,,,,,,,,,,,,,,,,,,,,,,,,,,,,,,,,,,,,,,,,,,,,,,,,,,,,,,,,,,
,,,,6,1.7156,,,,,,176,cactus,tomato,,90240,001,2022-04-28_13h09.03.020,SPAMnetsValid,2021.1.4,Win32,60.0132029,,,,,,,,,,,,,6,1.7156,0,61,61,9,1,,,,,,,,,,,,,,,,,,,,,,,,,,,,,,,,,,,,,,,,,,,,,,,,,,,,,,,,,,,,,,,,,,,,,,
,,,,8,1.7959,,,,,,142,garden,tree,,90240,001,2022-04-28_13h09.03.020,SPAMnetsValid,2021.1.4,Win32,60.0132029,,,,,,,,,,,,,8,1.7959,0,62,62,22,1,,,,,,,,,,,,,,,,,,,,,,,,,,,,,,,,,,,,,,,,,,,,,,,,,,,,,,,,,,,,,,,,,,,,,,
,,,,5,2.4419,,,,,,151,microwave,onion,,90240,001,2022-04-28_13h09.03.020,SPAMnetsValid,2021.1.4,Win32,60.0132029,,,,,,,,,,,,,5,2.4419,0,63,63,6,1,,,,,,,,,,,,,,,,,,,,,,,,,,,,,,,,,,,,,,,,,,,,,,,,,,,,,,,,,,,,,,,,,,,,,,
,,,,5,3.3508,,,,,,189,onion,tree,,90240,001,2022-04-28_13h09.03.020,SPAMnetsValid,2021.1.4,Win32,60.0132029,,,,,,,,,,,,,5,3.3508,0,64,64,62,1,,,,,,,,,,,,,,,,,,,,,,,,,,,,,,,,,,,,,,,,,,,,,,,,,,,,,,,,,,,,,,,,,,,,,,
,,,,3,1.8989,,,,,,157,refrigerator,rose,,90240,001,2022-04-28_13h09.03.020,SPAMnetsValid,2021.1.4,Win32,60.0132029,,,,,,,,,,,,,3,1.8989,0,65,65,64,1,,,,,,,,,,,,,,,,,,,,,,,,,,,,,,,,,,,,,,,,,,,,,,,,,,,,,,,,,,,,,,,,,,,,,,
,,,,7,2.0507,,,,,,99,garden,melon,,90240,001,2022-04-28_13h09.03.020,SPAMnetsValid,2021.1.4,Win32,60.0132029,,,,,,,,,,,,,7,2.0507,0,66,66,17,1,,,,,,,,,,,,,,,,,,,,,,,,,,,,,,,,,,,,,,,,,,,,,,,,,,,,,,,,,,,,,,,,,,,,,,
,,,,3,1.7395,,,,,,149,broom,tomato,,90240,001,2022-04-28_13h09.03.020,SPAMnetsValid,2021.1.4,Win32,60.0132029,,,,,,,,,,,,,3,1.7395,0,67,67,20,1,,,,,,,,,,,,,,,,,,,,,,,,,,,,,,,,,,,,,,,,,,,,,,,,,,,,,,,,,,,,,,,,,,,,,,
,,,,2,3.4204,,,,,,146,pretzel,tree,,90240,001,2022-04-28_13h09.03.020,SPAMnetsValid,2021.1.4,Win32,60.0132029,,,,,,,,,,,,,2,3.4204,0,68,68,80,1,,,,,,,,,,,,,,,,,,,,,,,,,,,,,,,,,,,,,,,,,,,,,,,,,,,,,,,,,,,,,,,,,,,,,,
,,,,1,2.7642,,,,,,123,cookie,tree,,90240,001,2022-04-28_13h09.03.020,SPAMnetsValid,2021.1.4,Win32,60.0132029,,,,,,,,,,,,,1,2.7642,0,69,69,46,1,,,,,,,,,,,,,,,,,,,,,,,,,,,,,,,,,,,,,,,,,,,,,,,,,,,,,,,,,,,,,,,,,,,,,,
,,,,8,5.2527,,,,,,138,flower,rose,,90240,001,2022-04-28_13h09.03.020,SPAMnetsValid,2021.1.4,Win32,60.0132029,,,,,,,,,,,,,8,5.2527,0,70,70,61,1,,,,,,,,,,,,,,,,,,,,,,,,,,,,,,,,,,,,,,,,,,,,,,,,,,,,,,,,,,,,,,,,,,,,,,
,,,,7,3.131,,,,,,156,melon,rose,,90240,001,2022-04-28_13h09.03.020,SPAMnetsValid,2021.1.4,Win32,60.0132029,,,,,,,,,,,,,7,3.131,0,71,71,31,1,,,,,,,,,,,,,,,,,,,,,,,,,,,,,,,,,,,,,,,,,,,,,,,,,,,,,,,,,,,,,,,,,,,,,,
,,,,2,2.5724,,,,,,130,microwave,yogurt,,90240,001,2022-04-28_13h09.03.020,SPAMnetsValid,2021.1.4,Win32,60.0132029,,,,,,,,,,,,,2,2.5724,0,72,72,84,1,,,,,,,,,,,,,,,,,,,,,,,,,,,,,,,,,,,,,,,,,,,,,,,,,,,,,,,,,,,,,,,,,,,,,,
,,,,2,1.6282,,,,,,169,onion,yogurt,,90240,001,2022-04-28_13h09.03.020,SPAMnetsValid,2021.1.4,Win32,60.0132029,,,,,,,,,,,,,2,1.6282,0,73,73,24,1,,,,,,,,,,,,,,,,,,,,,,,,,,,,,,,,,,,,,,,,,,,,,,,,,,,,,,,,,,,,,,,,,,,,,,
,,,,6,1.5897,,,,,,172,kitchen,melon,,90240,001,2022-04-28_13h09.03.020,SPAMnetsValid,2021.1.4,Win32,60.0132029,,,,,,,,,,,,,6,1.5897,0,74,74,77,1,,,,,,,,,,,,,,,,,,,,,,,,,,,,,,,,,,,,,,,,,,,,,,,,,,,,,,,,,,,,,,,,,,,,,,
,,,,7,2.2371,,,,,,178,cactus,carrot,,90240,001,2022-04-28_13h09.03.020,SPAMnetsValid,2021.1.4,Win32,60.0132029,,,,,,,,,,,,,7,2.2371,0,75,75,75,1,,,,,,,,,,,,,,,,,,,,,,,,,,,,,,,,,,,,,,,,,,,,,,,,,,,,,,,,,,,,,,,,,,,,,,
,,,,8,1.9477,,,,,,124,oven,refrigerator,,90240,001,2022-04-28_13h09.03.020,SPAMnetsValid,2021.1.4,Win32,60.0132029,,,,,,,,,,,,,8,1.9477,0,76,76,69,1,,,,,,,,,,,,,,,,,,,,,,,,,,,,,,,,,,,,,,,,,,,,,,,,,,,,,,,,,,,,,,,,,,,,,,
,,,,7,1.7928,,,,,,118,chocolate,oven,,90240,001,2022-04-28_13h09.03.020,SPAMnetsValid,2021.1.4,Win32,60.0132029,,,,,,,,,,,,,7,1.7928,0,77,77,10,1,,,,,,,,,,,,,,,,,,,,,,,,,,,,,,,,,,,,,,,,,,,,,,,,,,,,,,,,,,,,,,,,,,,,,,
,,,,7,5.3018,,,,,,115,refrigerator,tomato,,90240,001,2022-04-28_13h09.03.020,SPAMnetsValid,2021.1.4,Win32,60.0132029,,,,,,,,,,,,,7,5.3018,0,78,78,85,1,,,,,,,,,,,,,,,,,,,,,,,,,,,,,,,,,,,,,,,,,,,,,,,,,,,,,,,,,,,,,,,,,,,,,,
,,,,2,1.8405,,,,,,105,cactus,oven,,90240,001,2022-04-28_13h09.03.020,SPAMnetsValid,2021.1.4,Win32,60.0132029,,,,,,,,,,,,,2,1.8405,0,79,79,13,1,,,,,,,,,,,,,,,,,,,,,,,,,,,,,,,,,,,,,,,,,,,,,,,,,,,,,,,,,,,,,,,,,,,,,,
,,,,5,2.5379,,,,,,155,carrot,cookie,,90240,001,2022-04-28_13h09.03.020,SPAMnetsValid,2021.1.4,Win32,60.0132029,,,,,,,,,,,,,5,2.5379,0,80,80,38,1,,,,,,,,,,,,,,,,,,,,,,,,,,,,,,,,,,,,,,,,,,,,,,,,,,,,,,,,,,,,,,,,,,,,,,
,,,,3,2.405,,,,,,128,melon,microwave,,90240,001,2022-04-28_13h09.03.020,SPAMnetsValid,2021.1.4,Win32,60.0132029,,,,,,,,,,,,,3,2.405,0,81,81,74,1,,,,,,,,,,,,,,,,,,,,,,,,,,,,,,,,,,,,,,,,,,,,,,,,,,,,,,,,,,,,,,,,,,,,,,
,,,,2,2.3865,,,,,,109,broom,strawberry,,90240,001,2022-04-28_13h09.03.020,SPAMnetsValid,2021.1.4,Win32,60.0132029,,,,,,,,,,,,,2,2.3865,0,82,82,4,1,,,,,,,,,,,,,,,,,,,,,,,,,,,,,,,,,,,,,,,,,,,,,,,,,,,,,,,,,,,,,,,,,,,,,,
,,,,3,2.5313,,,,,,143,pretzel,rose,,90240,001,2022-04-28_13h09.03.020,SPAMnetsValid,2021.1.4,Win32,60.0132029,,,,,,,,,,,,,3,2.5313,0,83,83,55,1,,,,,,,,,,,,,,,,,,,,,,,,,,,,,,,,,,,,,,,,,,,,,,,,,,,,,,,,,,,,,,,,,,,,,,
,,,,9,1.583,,,,,,194,cactus,cactus,CHECK,90240,001,2022-04-28_13h09.03.020,SPAMnetsValid,2021.1.4,Win32,60.0132029,,,,,,,,,,,,,9,1.583,0,84,84,25,1,,,,,,,,,,,,,,,,,,,,,,,,,,,,,,,,,,,,,,,,,,,,,,,,,,,,,,,,,,,,,,,,,,,,,,
,,,,2,2.8854,,,,,,162,microwave,tomato,,90240,001,2022-04-28_13h09.03.020,SPAMnetsValid,2021.1.4,Win32,60.0132029,,,,,,,,,,,,,2,2.8854,0,85,85,12,1,,,,,,,,,,,,,,,,,,,,,,,,,,,,,,,,,,,,,,,,,,,,,,,,,,,,,,,,,,,,,,,,,,,,,,
,,,,8,4.6346,,,,,,116,cake,chocolate,,90240,001,2022-04-28_13h09.03.020,SPAMnetsValid,2021.1.4,Win32,60.0132029,,,,,,,,,,,,,8,4.6346,0,86,86,44,1,,,,,,,,,,,,,,,,,,,,,,,,,,,,,,,,,,,,,,,,,,,,,,,,,,,,,,,,,,,,,,,,,,,,,,
,,,,4,3.1142,,,,,,108,carrot,chocolate,,90240,001,2022-04-28_13h09.03.020,SPAMnetsValid,2021.1.4,Win32,60.0132029,,,,,,,,,,,,,4,3.1142,0,87,87,5,1,,,,,,,,,,,,,,,,,,,,,,,,,,,,,,,,,,,,,,,,,,,,,,,,,,,,,,,,,,,,,,,,,,,,,,
,,,,6,2.5505,,,,,,161,kitchen,pretzel,,90240,001,2022-04-28_13h09.03.020,SPAMnetsValid,2021.1.4,Win32,60.0132029,,,,,,,,,,,,,6,2.5505,0,88,88,36,1,,,,,,,,,,,,,,,,,,,,,,,,,,,,,,,,,,,,,,,,,,,,,,,,,,,,,,,,,,,,,,,,,,,,,,
,,,,6,2.1767,,,,,,188,flower,tree,,90240,001,2022-04-28_13h09.03.020,SPAMnetsValid,2021.1.4,Win32,60.0132029,,,,,,,,,,,,,6,2.1767,0,89,89,7,1,,,,,,,,,,,,,,,,,,,,,,,,,,,,,,,,,,,,,,,,,,,,,,,,,,,,,,,,,,,,,,,,,,,,,,
,,,,3,4.0525,,,,,,98,pretzel,strawberry,,90240,001,2022-04-28_13h09.03.020,SPAMnetsValid,2021.1.4,Win32,60.0132029,,,,,,,,,,,,,3,4.0525,0,90,90,82,1,,,,,,,,,,,,,,,,,,,,,,,,,,,,,,,,,,,,,,,,,,,,,,,,,,,,,,,,,,,,,,,,,,,,,,
,,,,5,2.6687,,,,,,148,flower,melon,,90240,001,2022-04-28_13h09.03.020,SPAMnetsValid,2021.1.4,Win32,60.0132029,,,,,,,,,,,,,5,2.6687,0,91,91,23,1,,,,,,,,,,,,,,,,,,,,,,,,,,,,,,,,,,,,,,,,,,,,,,,,,,,,,,,,,,,,,,,,,,,,,,
,,,,2,2.4747,,,,,,144,cake,garden,,90240,001,2022-04-28_13h09.03.020,SPAMnetsValid,2021.1.4,Win32,60.0132029,,,,,,,,,,,,,2,2.4747,0,92,92,58,1,,,,,,,,,,,,,,,,,,,,,,,,,,,,,,,,,,,,,,,,,,,,,,,,,,,,,,,,,,,,,,,,,,,,,,
,,,,7,1.8916,,,,,,113,refrigerator,strawberry,,90240,001,2022-04-28_13h09.03.020,SPAMnetsValid,2021.1.4,Win32,60.0132029,,,,,,,,,,,,,7,1.8916,0,93,93,56,1,,,,,,,,,,,,,,,,,,,,,,,,,,,,,,,,,,,,,,,,,,,,,,,,,,,,,,,,,,,,,,,,,,,,,,
,,,,8,1.7222,,,,,,110,chocolate,cookie,,90240,001,2022-04-28_13h09.03.020,SPAMnetsValid,2021.1.4,Win32,60.0132029,,,,,,,,,,,,,8,1.7222,0,94,94,52,1,,,,,,,,,,,,,,,,,,,,,,,,,,,,,,,,,,,,,,,,,,,,,,,,,,,,,,,,,,,,,,,,,,,,,,
,,,,2,3.9121,,,,,,127,cactus,chocolate,,90240,001,2022-04-28_13h09.03.020,SPAMnetsValid,2021.1.4,Win32,60.0132029,,,,,,,,,,,,,2,3.9121,0,95,95,57,1,,,,,,,,,,,,,,,,,,,,,,,,,,,,,,,,,,,,,,,,,,,,,,,,,,,,,,,,,,,,,,,,,,,,,,
,,,,8,1.6196,,,,,,154,strawberry,yogurt,,90240,001,2022-04-28_13h09.03.020,SPAMnetsValid,2021.1.4,Win32,60.0132029,,,,,,,,,,,,,8,1.6196,0,96,96,28,1,,,,,,,,,,,,,,,,,,,,,,,,,,,,,,,,,,,,,,,,,,,,,,,,,,,,,,,,,,,,,,,,,,,,,,
,,,,,,,,,,,,,,,90240,001,2022-04-28_13h09.03.020,SPAMnetsValid,2021.1.4,Win32,60.0132029,,,,,,,,,,,,,,,,,,,,0,0,0,0,1,,,,,,,,,,,,,,,,,,,,,,,,,,,,,,,,,,,,,,,,,,,,,,,,,,,,,,,,,,,,,,,,,
,,,,,,,,,,,,,,,90240,001,2022-04-28_13h09.03.020,SPAMnetsValid,2021.1.4,Win32,60.0132029,,,,,,0,1,1,1,1,0,1,,,,,,,,,,,,,,,,,,,,,,,,,,,,,,,,,,,,,,,,,,,,,,,,,,,,,,,,,,,,,,,,,,,,,,,,,,,,,
,,,,,,,,,,,,,,,90240,001,2022-04-28_13h09.03.020,SPAMnetsValid,2021.1.4,Win32,60.0132029,,,,,,,,,,,,,,,,,,,,,,,,,3,13.7386,0,0,0,0,1,rancor,forbearance,ridicule,malice,bravery,3,,,,,,,,,,,,,,,,,,,,,,,,,,,,,,,,,,,,,,,,,,,,,,,,,,,,
,,,,,,,,,,,,,,,90240,001,2022-04-28_13h09.03.020,SPAMnetsValid,2021.1.4,Win32,60.0132029,,,,,,,,,,,,,,,,,,,,,,,,,4,8.3221,0,1,1,1,1,raucous,empty,quiet,smooth,harsh,4,,,,,,,,,,,,,,,,,,,,,,,,,,,,,,,,,,,,,,,,,,,,,,,,,,,,
,,,,,,,,,,,,,,,90240,001,2022-04-28_13h09.03.020,SPAMnetsValid,2021.1.4,Win32,60.0132029,,,,,,,,,,,,,,,,,,,,,,,,,3,5.6803,0,2,2,2,1,gargoyle,oil,medicine,carved waterspout,ugly building,3,,,,,,,,,,,,,,,,,,,,,,,,,,,,,,,,,,,,,,,,,,,,,,,,,,,,
,,,,,,,,,,,,,,,90240,001,2022-04-28_13h09.03.020,SPAMnetsValid,2021.1.4,Win32,60.0132029,,,,,,,,,,,,,,,,,,,,,,,,,4,14.4798,0,3,3,3,1,recrudesce,purify,renew activity,lack refinement,crush,2,,,,,,,,,,,,,,,,,,,,,,,,,,,,,,,,,,,,,,,,,,,,,,,,,,,,
,,,,,,,,,,,,,,,90240,001,2022-04-28_13h09.03.020,SPAMnetsValid,2021.1.4,Win32,60.0132029,,,,,,,,,,,,,,,,,,,,,,,,,4,8.2044,0,4,4,4,1,specious,"plausible, but not genuine",noteworthy,class or variety,roomy,1,,,,,,,,,,,,,,,,,,,,,,,,,,,,,,,,,,,,,,,,,,,,,,,,,,,,
,,,,,,,,,,,,,,,90240,001,2022-04-28_13h09.03.020,SPAMnetsValid,2021.1.4,Win32,60.0132029,,,,,,,,,,,,,,,,,,,,,,,,,2,6.9485,0,5,5,5,1,bauble,bubble,showy plaything,idle talk,confusion,2,,,,,,,,,,,,,,,,,,,,,,,,,,,,,,,,,,,,,,,,,,,,,,,,,,,,
,,,,,,,,,,,,,,,90240,001,2022-04-28_13h09.03.020,SPAMnetsValid,2021.1.4,Win32,60.0132029,,,,,,,,,,,,,,,,,,,,,,,,,2,16.8638,0,6,6,6,1,prolific,scarce,producing abundantly,reckless,speaking profanely,2,,,,,,,,,,,,,,,,,,,,,,,,,,,,,,,,,,,,,,,,,,,,,,,,,,,,
,,,,,,,,,,,,,,,90240,001,2022-04-28_13h09.03.020,SPAMnetsValid,2021.1.4,Win32,60.0132029,,,,,,,,,,,,,,,,,,,,,,,,,2,12.1925,0,7,7,7,1,opulent,party,wealthy,happy frame of mind,semiprecious stone,2,,,,,,,,,,,,,,,,,,,,,,,,,,,,,,,,,,,,,,,,,,,,,,,,,,,,
,,,,,,,,,,,,,,,90240,001,2022-04-28_13h09.03.020,SPAMnetsValid,2021.1.4,Win32,60.0132029,,,,,,,,,,,,,,,,,,,,,,,,,2,11.8837,0,8,8,8,1,coercion,conspiracy,strategy,restraint,attraction,3,,,,,,,,,,,,,,,,,,,,,,,,,,,,,,,,,,,,,,,,,,,,,,,,,,,,
,,,,,,,,,,,,,,,90240,001,2022-04-28_13h09.03.020,SPAMnetsValid,2021.1.4,Win32,60.0132029,,,,,,,,,,,,,,,,,,,,,,,,,4,3.7425,0,9,9,9,1,hiatus,animal,calamity,dread,gap,4,,,,,,,,,,,,,,,,,,,,,,,,,,,,,,,,,,,,,,,,,,,,,,,,,,,,
,,,,,,,,,,,,,,,90240,001,2022-04-28_13h09.03.020,SPAMnetsValid,2021.1.4,Win32,60.0132029,,,,,,,,,,,,,,,,,,,,,,,,,4,9.9071,0,10,10,10,1,germane,microbe,contagious,relevant,different,3,,,,,,,,,,,,,,,,,,,,,,,,,,,,,,,,,,,,,,,,,,,,,,,,,,,,
,,,,,,,,,,,,,,,90240,001,2022-04-28_13h09.03.020,SPAMnetsValid,2021.1.4,Win32,60.0132029,,,,,,,,,,,,,,,,,,,,,,,,,3,17.7397,0,11,11,11,1,perfunctory,fundamental,formal,superficial,careful,3,,,,,,,,,,,,,,,,,,,,,,,,,,,,,,,,,,,,,,,,,,,,,,,,,,,,
,,,,,,,,,,,,,,,90240,001,2022-04-28_13h09.03.020,SPAMnetsValid,2021.1.4,Win32,60.0132029,,,,,,,,,,,,,,,,,,,,,,,,,4,4.4875,0,12,12,12,1,diverge,reveal,chant,distract the attention of,differ or turn off from,4,,,,,,,,,,,,,,,,,,,,,,,,,,,,,,,,,,,,,,,,,,,,,,,,,,,,
,,,,,,,,,,,,,,,90240,001,2022-04-28_13h09.03.020,SPAMnetsValid,2021.1.4,Win32,60.0132029,,,,,,,,,,,,,,,,,,,,,,,,,4,4.0534,0,13,13,13,1,evoke,take away,anger,connect,bring out,4,,,,,,,,,,,,,,,,,,,,,,,,,,,,,,,,,,,,,,,,,,,,,,,,,,,,
,,,,,,,,,,,,,,,90240,001,2022-04-28_13h09.03.020,SPAMnetsValid,2021.1.4,Win32,60.0132029,,,,,,,,,,,,,,,,,,,,,,,,,1,4.3483,0,14,14,14,1,pertinent,relevant,lying next to,necessary,bold,1,,,,,,,,,,,,,,,,,,,,,,,,,,,,,,,,,,,,,,,,,,,,,,,,,,,,
,,,,,,,,,,,,,,,90240,001,2022-04-28_13h09.03.020,SPAMnetsValid,2021.1.4,Win32,60.0132029,,,,,,,,,,,,,,,,,,,,,,,,,2,6.1766,0,15,15,15,1,holocaust,entirety,destruction,saintly,price,2,,,,,,,,,,,,,,,,,,,,,,,,,,,,,,,,,,,,,,,,,,,,,,,,,,,,
,,,,,,,,,,,,,,,90240,001,2022-04-28_13h09.03.020,SPAMnetsValid,2021.1.4,Win32,60.0132029,,,,,,,,,,,,,,,,,,,,,,,,,1,12.3172,0,16,16,16,1,piquant,mellow,fish,pungent,cloth,3,,,,,,,,,,,,,,,,,,,,,,,,,,,,,,,,,,,,,,,,,,,,,,,,,,,,
,,,,,,,,,,,,,,,90240,001,2022-04-28_13h09.03.020,SPAMnetsValid,2021.1.4,Win32,60.0132029,,,,,,,,,,,,,,,,,,,,,,,,,4,10.0047,0,17,17,17,1,firmament,foundation,heavens,strong,glue,2,,,,,,,,,,,,,,,,,,,,,,,,,,,,,,,,,,,,,,,,,,,,,,,,,,,,
,,,,,,,,,,,,,,,90240,001,2022-04-28_13h09.03.020,SPAMnetsValid,2021.1.4,Win32,60.0132029,,,,,,,,,,,,,,,,,,,,,,,,,,,,,,,,,,,,,,4,17.4405,0,0,0,0,1,marketable,partisan,jocular,marriageable,salable,essential,4,,,,,,,,,,,,,,,,,,,,,,,,,,,,,,,,,,,,,,
,,,,,,,,,,,,,,,90240,001,2022-04-28_13h09.03.020,SPAMnetsValid,2021.1.4,Win32,60.0132029,,,,,,,,,,,,,,,,,,,,,,,,,,,,,,,,,,,,,,4,5.6607,0,1,1,1,1,cottontail,squirrel,poplar,boa,marshy plant,rabbit,5,,,,,,,,,,,,,,,,,,,,,,,,,,,,,,,,,,,,,,
,,,,,,,,,,,,,,,90240,001,2022-04-28_13h09.03.020,SPAMnetsValid,2021.1.4,Win32,60.0132029,,,,,,,,,,,,,,,,,,,,,,,,,,,,,,,,,,,,,,3,4.0444,0,2,2,2,1,boggy,afraid,false,marshy,dense,black,3,,,,,,,,,,,,,,,,,,,,,,,,,,,,,,,,,,,,,,
,,,,,,,,,,,,,,,90240,001,2022-04-28_13h09.03.020,SPAMnetsValid,2021.1.4,Win32,60.0132029,,,,,,,,,,,,,,,,,,,,,,,,,,,,,,,,,,,,,,5,10.8048,0,3,3,3,1,gruesomeness,blackness,falseness,vindictiveness,drunkenness,ghastliness,5,,,,,,,,,,,,,,,,,,,,,,,,,,,,,,,,,,,,,,
,,,,,,,,,,,,,,,90240,001,2022-04-28_13h09.03.020,SPAMnetsValid,2021.1.4,Win32,60.0132029,,,,,,,,,,,,,,,,,,,,,,,,,,,,,,,,,,,,,,3,12.3907,0,4,4,4,1,loathing,diffidence,laziness,abhorrence,cleverness,comfort,3,,,,,,,,,,,,,,,,,,,,,,,,,,,,,,,,,,,,,,
,,,,,,,,,,,,,,,90240,001,2022-04-28_13h09.03.020,SPAMnetsValid,2021.1.4,Win32,60.0132029,,,,,,,,,,,,,,,,,,,,,,,,,,,,,,,,,,,,,,1,15.7389,0,5,5,5,1,bantam,fowl,ridicule,cripple,vegetable,ensign,1,,,,,,,,,,,,,,,,,,,,,,,,,,,,,,,,,,,,,,
,,,,,,,,,,,,,,,90240,001,2022-04-28_13h09.03.020,SPAMnetsValid,2021.1.4,Win32,60.0132029,,,,,,,,,,,,,,,,,,,,,,,,,,,,,,,,,,,,,,5,5.2276,0,6,6,6,1,evoke,wake up,surrender,reconnoiter,transcend,call forth,5,,,,,,,,,,,,,,,,,,,,,,,,,,,,,,,,,,,,,,
,,,,,,,,,,,,,,,90240,001,2022-04-28_13h09.03.020,SPAMnetsValid,2021.1.4,Win32,60.0132029,,,,,,,,,,,,,,,,,,,,,,,,,,,,,,,,,,,,,,5,20.6611,0,7,7,7,1,unobtrusive,unintelligent,epileptic,illogical,lineal,modest,5,,,,,,,,,,,,,,,,,,,,,,,,,,,,,,,,,,,,,,
,,,,,,,,,,,,,,,90240,001,2022-04-28_13h09.03.020,SPAMnetsValid,2021.1.4,Win32,60.0132029,,,,,,,,,,,,,,,,,,,,,,,,,,,,,,,,,,,,,,4,4.7138,0,8,8,8,1,terrain,ice cream,final test,tractor,area of ground,weight,4,,,,,,,,,,,,,,,,,,,,,,,,,,,,,,,,,,,,,,
,,,,,,,,,,,,,,,90240,001,2022-04-28_13h09.03.020,SPAMnetsValid,2021.1.4,Win32,60.0132029,,,,,,,,,,,,,,,,,,,,,,,,,,,,,,,,,,,,,,5,14.3918,0,9,9,9,1,capriciousness,stubbornness,courage,whimsicality,amazement,greediness,3,,,,,,,,,,,,,,,,,,,,,,,,,,,,,,,,,,,,,,
,,,,,,,,,,,,,,,90240,001,2022-04-28_13h09.03.020,SPAMnetsValid,2021.1.4,Win32,60.0132029,,,,,,,,,,,,,,,,,,,,,,,,,,,,,,,,,,,,,,2,4.3567,0,10,10,10,1,maelstrom,slander,whirlpool,enmity,armor,majolica,2,,,,,,,,,,,,,,,,,,,,,,,,,,,,,,,,,,,,,,
,,,,,,,,,,,,,,,90240,001,2022-04-28_13h09.03.020,SPAMnetsValid,2021.1.4,Win32,60.0132029,,,,,,,,,,,,,,,,,,,,,,,,,,,,,,,,,,,,,,4,18.2064,0,11,11,11,1,tentative,critical,conclusive,authentic,provisional,apprehensive,4,,,,,,,,,,,,,,,,,,,,,,,,,,,,,,,,,,,,,,
,,,,,,,,,,,,,,,90240,001,2022-04-28_13h09.03.020,SPAMnetsValid,2021.1.4,Win32,60.0132029,,,,,,,,,,,,,,,,,,,,,,,,,,,,,,,,,,,,,,3,18.4034,0,12,12,12,1,placate,rehabilitate,plagiarize,depredate,apprise,conciliate,5,,,,,,,,,,,,,,,,,,,,,,,,,,,,,,,,,,,,,,
,,,,,,,,,,,,,,,90240,001,2022-04-28_13h09.03.020,SPAMnetsValid,2021.1.4,Win32,60.0132029,,,,,,,,,,,,,,,,,,,,,,,,,,,,,,,,,,,,,,3,19.704,0,13,13,13,1,surcease,enlightenment,cessation,inattention,censor,substitution,2,,,,,,,,,,,,,,,,,,,,,,,,,,,,,,,,,,,,,,
,,,,,,,,,,,,,,,90240,001,2022-04-28_13h09.03.020,SPAMnetsValid,2021.1.4,Win32,60.0132029,,,,,,,,,,,,,,,,,,,,,,,,,,,,,,,,,,,,,,5,8.2326,0,14,14,14,1,apathetic,wandering,impassive,hateful,prophetic,overflowing,2,,,,,,,,,,,,,,,,,,,,,,,,,,,,,,,,,,,,,,
,,,,,,,,,,,,,,,90240,001,2022-04-28_13h09.03.020,SPAMnetsValid,2021.1.4,Win32,60.0132029,,,,,,,,,,,,,,,,,,,,,,,,,,,,,,,,,,,,,,5,28.256,0,15,15,15,1,paternoster,paternalism,patricide,malediction,benediction,prayer,5,,,,,,,,,,,,,,,,,,,,,,,,,,,,,,,,,,,,,,
,,,,,,,,,,,,,,,90240,001,2022-04-28_13h09.03.020,SPAMnetsValid,2021.1.4,Win32,60.0132029,,,,,,,,,,,,,,,,,,,,,,,,,,,,,,,,,,,,,,3,25.9463,0,16,16,16,1,opalescence,opulence,senescence,bankruptcy,iridescence,assiduity,4,,,,,,,,,,,,,,,,,,,,,,,,,,,,,,,,,,,,,,
,,,,,,,,,,,,,,,90240,001,2022-04-28_13h09.03.020,SPAMnetsValid,2021.1.4,Win32,60.0132029,,,,,,,,,,,,,,,,,,,,,,,,,,,,,,,,,,,,,,2,6.3797,0,17,17,17,1,lush,stupid,luxurious,hazy,putrid,languishing,2,,,,,,,,,,,,,,,,,,,,,,,,,,,,,,,,,,,,,,
,,,,,,,,,,,,,,,90240,001,2022-04-28_13h09.03.020,SPAMnetsValid,2021.1.4,Win32,60.0132029,,,,,,,,,,,,,,,,,,,,,,,,,,,,,,,,,,,,,,1,16.0867,0,18,18,18,1,curtailment,expenditure,abandonment,abridgment,improvement,forgery,3,,,,,,,,,,,,,,,,,,,,,,,,,,,,,,,,,,,,,,
,,,,,,,,,,,,,,,90240,001,2022-04-28_13h09.03.020,SPAMnetsValid,2021.1.4,Win32,60.0132029,,,,,,,,,,,,,,,,,,,,,,,,,,,,,,,,,,,,,,5,4.2031,0,19,19,19,1,perversity,adversity,perviousness,travesty,waywardness,gentility,4,,,,,,,,,,,,,,,,,,,,,,,,,,,,,,,,,,,,,,
,,,,,,,,,,,,,,,90240,001,2022-04-28_13h09.03.020,SPAMnetsValid,2021.1.4,Win32,60.0132029,,,,,,,,,,,,,,,,,,,,,,,,,,,,,,,,,,,,,,,,,,,,,,,,,,,,fort,pillow,0,0,0,0,1,,,,,,,,,,,,,,,,,,,,,,,,,,,,,,,
,,,,,,,,,,,,,,,90240,001,2022-04-28_13h09.03.020,SPAMnetsValid,2021.1.4,Win32,60.0132029,,,,,,,,,,,,,,,,,,,,,,,,,,,,,,,,,,,,,,,,,,,,,,,,,,,,sleep,pillow,1,0,1,0,1,,,,,,,,,,,,,,,,,,,,,,,,,,,,,,,
,,,,,,,,,,,,,,,90240,001,2022-04-28_13h09.03.020,SPAMnetsValid,2021.1.4,Win32,60.0132029,,,,,,,,,,,,,,,,,,,,,,,,,,,,,,,,,,,,,,,,,,,,,,,,,,,,noise canceler,pillow,2,0,2,0,1,,,,,,,,,,,,,,,,,,,,,,,,,,,,,,,
,,,,,,,,,,,,,,,90240,001,2022-04-28_13h09.03.020,SPAMnetsValid,2021.1.4,Win32,60.0132029,,,,,,,,,,,,,,,,,,,,,,,,,,,,,,,,,,,,,,,,,,,,,,,,,,,,seat,pillow,3,0,3,0,1,,,,,,,,,,,,,,,,,,,,,,,,,,,,,,,
,,,,,,,,,,,,,,,90240,001,2022-04-28_13h09.03.020,SPAMnetsValid,2021.1.4,Win32,60.0132029,,,,,,,,,,,,,,,,,,,,,,,,,,,,,,,,,,,,,,,,,,,,,,,,,,,,wall,pillow,4,0,4,0,1,,,,,,,,,,,,,,,,,,,,,,,,,,,,,,,
,,,,,,,,,,,,,,,90240,001,2022-04-28_13h09.03.020,SPAMnetsValid,2021.1.4,Win32,60.0132029,,,,,,,,,,,,,,,,,,,,,,,,,,,,,,,,,,,,,,,,,,,,,,,,,,,,cousion,pillow,5,0,5,0,1,,,,,,,,,,,,,,,,,,,,,,,,,,,,,,,
,,,,,,,,,,,,,,,90240,001,2022-04-28_13h09.03.020,SPAMnetsValid,2021.1.4,Win32,60.0132029,,,,,,,,,,,,,,,,,,,,,,,,,,,,,,,,,,,,,,,,,,,,,,,,,,,,throwable,pillow,6,0,6,0,1,,,,,,,,,,,,,,,,,,,,,,,,,,,,,,,
,,,,,,,,,,,,,,,90240,001,2022-04-28_13h09.03.020,SPAMnetsValid,2021.1.4,Win32,60.0132029,,,,,,,,,,,,,,,,,,,,,,,,,,,,,,,,,,,,,,,,,,,,,,,,,,,,mini model,pillow,7,0,7,0,1,,,,,,,,,,,,,,,,,,,,,,,,,,,,,,,
,,,,,,,,,,,,,,,90240,001,2022-04-28_13h09.03.020,SPAMnetsValid,2021.1.4,Win32,60.0132029,,,,,,,,,,,,,,,,,,,,,,,,,,,,,,,,,,,,,,,,,,,,,,,,,,,,padding,pillow,8,0,8,0,1,,,,,,,,,,,,,,,,,,,,,,,,,,,,,,,
,,,,,,,,,,,,,,,90240,001,2022-04-28_13h09.03.020,SPAMnetsValid,2021.1.4,Win32,60.0132029,,,,,,,,,,,,,,,,,,,,,,,,,,,,,,,,,,,,,,,,,,,,,,,,,,,,armor,pillow,9,0,9,0,1,,,,,,,,,,,,,,,,,,,,,,,,,,,,,,,
,,,,,,,,,,,,,,,90240,001,2022-04-28_13h09.03.020,SPAMnetsValid,2021.1.4,Win32,60.0132029,,,,,,,,,,,,,,,,,,,,,,,,,,,,,,,,,,,,,,,,,,,,,,,,,,,,helmet,pillow,10,0,10,0,1,,,,,,,,,,,,,,,,,,,,,,,,,,,,,,,
,,,,,,,,,,,,,,,90240,001,2022-04-28_13h09.03.020,SPAMnetsValid,2021.1.4,Win32,60.0132029,,,,,,,,,,,,,,,,,,,,,,,,,,,,,,,,,,,,,,,,,,,,,,,,,,,,confort,pillow,11,0,11,0,1,,,,,,,,,,,,,,,,,,,,,,,,,,,,,,,
,,,,,,,,,,,,,,,90240,001,2022-04-28_13h09.03.020,SPAMnetsValid,2021.1.4,Win32,60.0132029,,,,,,,,,,,,,,,,,,,,,,,,,,,,,,,,,,,,,,,,,,,,,,,,,,,,,,,,,,,0,0,0,2,1,pillow,,,,,,,,,,,,,,,,,,,,,,,,,
,,,,,,,,,,,,,,,90240,001,2022-04-28_13h09.03.020,SPAMnetsValid,2021.1.4,Win32,60.0132029,,,,,,,,,,,,,,,,,,,,,,,,,,,,,,,,,,,,,,,,,,,,,,,,,,,,seat,bucket,0,0,0,0,1,,,,,,,,,,,,,,,,,,,,,,,,,,,,,,,
,,,,,,,,,,,,,,,90240,001,2022-04-28_13h09.03.020,SPAMnetsValid,2021.1.4,Win32,60.0132029,,,,,,,,,,,,,,,,,,,,,,,,,,,,,,,,,,,,,,,,,,,,,,,,,,,,instrument,bucket,1,0,1,0,1,,,,,,,,,,,,,,,,,,,,,,,,,,,,,,,
,,,,,,,,,,,,,,,90240,001,2022-04-28_13h09.03.020,SPAMnetsValid,2021.1.4,Win32,60.0132029,,,,,,,,,,,,,,,,,,,,,,,,,,,,,,,,,,,,,,,,,,,,,,,,,,,,bag,bucket,2,0,2,0,1,,,,,,,,,,,,,,,,,,,,,,,,,,,,,,,
,,,,,,,,,,,,,,,90240,001,2022-04-28_13h09.03.020,SPAMnetsValid,2021.1.4,Win32,60.0132029,,,,,,,,,,,,,,,,,,,,,,,,,,,,,,,,,,,,,,,,,,,,,,,,,,,,helmet,bucket,3,0,3,0,1,,,,,,,,,,,,,,,,,,,,,,,,,,,,,,,
,,,,,,,,,,,,,,,90240,001,2022-04-28_13h09.03.020,SPAMnetsValid,2021.1.4,Win32,60.0132029,,,,,,,,,,,,,,,,,,,,,,,,,,,,,,,,,,,,,,,,,,,,,,,,,,,,poke hole to make a sifter,bucket,4,0,4,0,1,,,,,,,,,,,,,,,,,,,,,,,,,,,,,,,
,,,,,,,,,,,,,,,90240,001,2022-04-28_13h09.03.020,SPAMnetsValid,2021.1.4,Win32,60.0132029,,,,,,,,,,,,,,,,,,,,,,,,,,,,,,,,,,,,,,,,,,,,,,,,,,,,pendulum mass,bucket,5,0,5,0,1,,,,,,,,,,,,,,,,,,,,,,,,,,,,,,,
,,,,,,,,,,,,,,,90240,001,2022-04-28_13h09.03.020,SPAMnetsValid,2021.1.4,Win32,60.0132029,,,,,,,,,,,,,,,,,,,,,,,,,,,,,,,,,,,,,,,,,,,,,,,,,,,,step stool,bucket,6,0,6,0,1,,,,,,,,,,,,,,,,,,,,,,,,,,,,,,,
,,,,,,,,,,,,,,,90240,001,2022-04-28_13h09.03.020,SPAMnetsValid,2021.1.4,Win32,60.0132029,,,,,,,,,,,,,,,,,,,,,,,,,,,,,,,,,,,,,,,,,,,,,,,,,,,,lamp shade,bucket,7,0,7,0,1,,,,,,,,,,,,,,,,,,,,,,,,,,,,,,,
,,,,,,,,,,,,,,,90240,001,2022-04-28_13h09.03.020,SPAMnetsValid,2021.1.4,Win32,60.0132029,,,,,,,,,,,,,,,,,,,,,,,,,,,,,,,,,,,,,,,,,,,,,,,,,,,,flower pot,bucket,8,0,8,0,1,,,,,,,,,,,,,,,,,,,,,,,,,,,,,,,
,,,,,,,,,,,,,,,90240,001,2022-04-28_13h09.03.020,SPAMnetsValid,2021.1.4,Win32,60.0132029,,,,,,,,,,,,,,,,,,,,,,,,,,,,,,,,,,,,,,,,,,,,,,,,,,,,item stand,bucket,9,0,9,0,1,,,,,,,,,,,,,,,,,,,,,,,,,,,,,,,
,,,,,,,,,,,,,,,90240,001,2022-04-28_13h09.03.020,SPAMnetsValid,2021.1.4,Win32,60.0132029,,,,,,,,,,,,,,,,,,,,,,,,,,,,,,,,,,,,,,,,,,,,,,,,,,,,,,,,,,,0,1,1,0,1,bucket,,,,,,,,,,,,,,,,,,,,,,,,,
,,,,,,,,,,,,,,,90240,001,2022-04-28_13h09.03.020,SPAMnetsValid,2021.1.4,Win32,60.0132029,,,,,,,,,,,,,,,,,,,,,,,,,,,,,,,,,,,,,,,,,,,,,,,,,,,,sculpture,candle,0,0,0,0,1,,,,,,,,,,,,,,,,,,,,,,,,,,,,,,,
,,,,,,,,,,,,,,,90240,001,2022-04-28_13h09.03.020,SPAMnetsValid,2021.1.4,Win32,60.0132029,,,,,,,,,,,,,,,,,,,,,,,,,,,,,,,,,,,,,,,,,,,,,,,,,,,,light,candle,1,0,1,0,1,,,,,,,,,,,,,,,,,,,,,,,,,,,,,,,
,,,,,,,,,,,,,,,90240,001,2022-04-28_13h09.03.020,SPAMnetsValid,2021.1.4,Win32,60.0132029,,,,,,,,,,,,,,,,,,,,,,,,,,,,,,,,,,,,,,,,,,,,,,,,,,,,stamp,candle,2,0,2,0,1,,,,,,,,,,,,,,,,,,,,,,,,,,,,,,,
,,,,,,,,,,,,,,,90240,001,2022-04-28_13h09.03.020,SPAMnetsValid,2021.1.4,Win32,60.0132029,,,,,,,,,,,,,,,,,,,,,,,,,,,,,,,,,,,,,,,,,,,,,,,,,,,,carving,candle,3,0,3,0,1,,,,,,,,,,,,,,,,,,,,,,,,,,,,,,,
,,,,,,,,,,,,,,,90240,001,2022-04-28_13h09.03.020,SPAMnetsValid,2021.1.4,Win32,60.0132029,,,,,,,,,,,,,,,,,,,,,,,,,,,,,,,,,,,,,,,,,,,,,,,,,,,,stick it to a wall,candle,4,0,4,0,1,,,,,,,,,,,,,,,,,,,,,,,,,,,,,,,
,,,,,,,,,,,,,,,90240,001,2022-04-28_13h09.03.020,SPAMnetsValid,2021.1.4,Win32,60.0132029,,,,,,,,,,,,,,,,,,,,,,,,,,,,,,,,,,,,,,,,,,,,,,,,,,,,heat source,candle,5,0,5,0,1,,,,,,,,,,,,,,,,,,,,,,,,,,,,,,,
,,,,,,,,,,,,,,,90240,001,2022-04-28_13h09.03.020,SPAMnetsValid,2021.1.4,Win32,60.0132029,,,,,,,,,,,,,,,,,,,,,,,,,,,,,,,,,,,,,,,,,,,,,,,,,,,,mold/form for casting,candle,6,0,6,0,1,,,,,,,,,,,,,,,,,,,,,,,,,,,,,,,
,,,,,,,,,,,,,,,90240,001,2022-04-28_13h09.03.020,SPAMnetsValid,2021.1.4,Win32,60.0132029,,,,,,,,,,,,,,,,,,,,,,,,,,,,,,,,,,,,,,,,,,,,,,,,,,,,castable,candle,7,0,7,0,1,,,,,,,,,,,,,,,,,,,,,,,,,,,,,,,
,,,,,,,,,,,,,,,90240,001,2022-04-28_13h09.03.020,SPAMnetsValid,2021.1.4,Win32,60.0132029,,,,,,,,,,,,,,,,,,,,,,,,,,,,,,,,,,,,,,,,,,,,,,,,,,,,,,,,,,,0,2,2,1,1,candle,,,,,,,,,,,,,,,,,,,,,,,,,
,,,,,,,,,,,,,,,90240,001,2022-04-28_13h09.03.020,SPAMnetsValid,2021.1.4,Win32,60.0132029,,,,,,,,,,,,,,,,,,,,,,,,,,,,,,,,,,,,,,,,,,,,,,,,,,,,,,,,,,,,,,,,,wold,Animals,0,0,0,0,1,,,,,,,,,,,,,,,,,,
,,,,,,,,,,,,,,,90240,001,2022-04-28_13h09.03.020,SPAMnetsValid,2021.1.4,Win32,60.0132029,,,,,,,,,,,,,,,,,,,,,,,,,,,,,,,,,,,,,,,,,,,,,,,,,,,,,,,,,,,,,,,,,wolf,Animals,1,0,1,0,1,,,,,,,,,,,,,,,,,,
,,,,,,,,,,,,,,,90240,001,2022-04-28_13h09.03.020,SPAMnetsValid,2021.1.4,Win32,60.0132029,,,,,,,,,,,,,,,,,,,,,,,,,,,,,,,,,,,,,,,,,,,,,,,,,,,,,,,,,,,,,,,,,cat,Animals,2,0,2,0,1,,,,,,,,,,,,,,,,,,
,,,,,,,,,,,,,,,90240,001,2022-04-28_13h09.03.020,SPAMnetsValid,2021.1.4,Win32,60.0132029,,,,,,,,,,,,,,,,,,,,,,,,,,,,,,,,,,,,,,,,,,,,,,,,,,,,,,,,,,,,,,,,,dog,Animals,3,0,3,0,1,,,,,,,,,,,,,,,,,,
,,,,,,,,,,,,,,,90240,001,2022-04-28_13h09.03.020,SPAMnetsValid,2021.1.4,Win32,60.0132029,,,,,,,,,,,,,,,,,,,,,,,,,,,,,,,,,,,,,,,,,,,,,,,,,,,,,,,,,,,,,,,,,owl,Animals,4,0,4,0,1,,,,,,,,,,,,,,,,,,
,,,,,,,,,,,,,,,90240,001,2022-04-28_13h09.03.020,SPAMnetsValid,2021.1.4,Win32,60.0132029,,,,,,,,,,,,,,,,,,,,,,,,,,,,,,,,,,,,,,,,,,,,,,,,,,,,,,,,,,,,,,,,,whale,Animals,5,0,5,0,1,,,,,,,,,,,,,,,,,,
,,,,,,,,,,,,,,,90240,001,2022-04-28_13h09.03.020,SPAMnetsValid,2021.1.4,Win32,60.0132029,,,,,,,,,,,,,,,,,,,,,,,,,,,,,,,,,,,,,,,,,,,,,,,,,,,,,,,,,,,,,,,,,flamingo,Animals,6,0,6,0,1,,,,,,,,,,,,,,,,,,
,,,,,,,,,,,,,,,90240,001,2022-04-28_13h09.03.020,SPAMnetsValid,2021.1.4,Win32,60.0132029,,,,,,,,,,,,,,,,,,,,,,,,,,,,,,,,,,,,,,,,,,,,,,,,,,,,,,,,,,,,,,,,,deer,Animals,7,0,7,0,1,,,,,,,,,,,,,,,,,,
,,,,,,,,,,,,,,,90240,001,2022-04-28_13h09.03.020,SPAMnetsValid,2021.1.4,Win32,60.0132029,,,,,,,,,,,,,,,,,,,,,,,,,,,,,,,,,,,,,,,,,,,,,,,,,,,,,,,,,,,,,,,,,black bear,Animals,8,0,8,0,1,,,,,,,,,,,,,,,,,,
,,,,,,,,,,,,,,,90240,001,2022-04-28_13h09.03.020,SPAMnetsValid,2021.1.4,Win32,60.0132029,,,,,,,,,,,,,,,,,,,,,,,,,,,,,,,,,,,,,,,,,,,,,,,,,,,,,,,,,,,,,,,,,dolphin,Animals,9,0,9,0,1,,,,,,,,,,,,,,,,,,
,,,,,,,,,,,,,,,90240,001,2022-04-28_13h09.03.020,SPAMnetsValid,2021.1.4,Win32,60.0132029,,,,,,,,,,,,,,,,,,,,,,,,,,,,,,,,,,,,,,,,,,,,,,,,,,,,,,,,,,,,,,,,,octopus,Animals,10,0,10,0,1,,,,,,,,,,,,,,,,,,
,,,,,,,,,,,,,,,90240,001,2022-04-28_13h09.03.020,SPAMnetsValid,2021.1.4,Win32,60.0132029,,,,,,,,,,,,,,,,,,,,,,,,,,,,,,,,,,,,,,,,,,,,,,,,,,,,,,,,,,,,,,,,,fish,Animals,11,0,11,0,1,,,,,,,,,,,,,,,,,,
,,,,,,,,,,,,,,,90240,001,2022-04-28_13h09.03.020,SPAMnetsValid,2021.1.4,Win32,60.0132029,,,,,,,,,,,,,,,,,,,,,,,,,,,,,,,,,,,,,,,,,,,,,,,,,,,,,,,,,,,,,,,,,giraffe,Animals,12,0,12,0,1,,,,,,,,,,,,,,,,,,
,,,,,,,,,,,,,,,90240,001,2022-04-28_13h09.03.020,SPAMnetsValid,2021.1.4,Win32,60.0132029,,,,,,,,,,,,,,,,,,,,,,,,,,,,,,,,,,,,,,,,,,,,,,,,,,,,,,,,,,,,,,,,,rhino,Animals,13,0,13,0,1,,,,,,,,,,,,,,,,,,
,,,,,,,,,,,,,,,90240,001,2022-04-28_13h09.03.020,SPAMnetsValid,2021.1.4,Win32,60.0132029,,,,,,,,,,,,,,,,,,,,,,,,,,,,,,,,,,,,,,,,,,,,,,,,,,,,,,,,,,,,,,,,,zebra,Animals,14,0,14,0,1,,,,,,,,,,,,,,,,,,
,,,,,,,,,,,,,,,90240,001,2022-04-28_13h09.03.020,SPAMnetsValid,2021.1.4,Win32,60.0132029,,,,,,,,,,,,,,,,,,,,,,,,,,,,,,,,,,,,,,,,,,,,,,,,,,,,,,,,,,,,,,,,,hippo,Animals,15,0,15,0,1,,,,,,,,,,,,,,,,,,
,,,,,,,,,,,,,,,90240,001,2022-04-28_13h09.03.020,SPAMnetsValid,2021.1.4,Win32,60.0132029,,,,,,,,,,,,,,,,,,,,,,,,,,,,,,,,,,,,,,,,,,,,,,,,,,,,,,,,,,,,,,,,,gazel,Animals,16,0,16,0,1,,,,,,,,,,,,,,,,,,
,,,,,,,,,,,,,,,90240,001,2022-04-28_13h09.03.020,SPAMnetsValid,2021.1.4,Win32,60.0132029,,,,,,,,,,,,,,,,,,,,,,,,,,,,,,,,,,,,,,,,,,,,,,,,,,,,,,,,,,,,,,,,,cheeta,Animals,17,0,17,0,1,,,,,,,,,,,,,,,,,,
,,,,,,,,,,,,,,,90240,001,2022-04-28_13h09.03.020,SPAMnetsValid,2021.1.4,Win32,60.0132029,,,,,,,,,,,,,,,,,,,,,,,,,,,,,,,,,,,,,,,,,,,,,,,,,,,,,,,,,,,,,,,,,lion,Animals,18,0,18,0,1,,,,,,,,,,,,,,,,,,
,,,,,,,,,,,,,,,90240,001,2022-04-28_13h09.03.020,SPAMnetsValid,2021.1.4,Win32,60.0132029,,,,,,,,,,,,,,,,,,,,,,,,,,,,,,,,,,,,,,,,,,,,,,,,,,,,,,,,,,,,,,,,,lepard,Animals,19,0,19,0,1,,,,,,,,,,,,,,,,,,
,,,,,,,,,,,,,,,90240,001,2022-04-28_13h09.03.020,SPAMnetsValid,2021.1.4,Win32,60.0132029,,,,,,,,,,,,,,,,,,,,,,,,,,,,,,,,,,,,,,,,,,,,,,,,,,,,,,,,,,,,,,,,,turtle,Animals,20,0,20,0,1,,,,,,,,,,,,,,,,,,
,,,,,,,,,,,,,,,90240,001,2022-04-28_13h09.03.020,SPAMnetsValid,2021.1.4,Win32,60.0132029,,,,,,,,,,,,,,,,,,,,,,,,,,,,,,,,,,,,,,,,,,,,,,,,,,,,,,,,,,,,,,,,,snake,Animals,21,0,21,0,1,,,,,,,,,,,,,,,,,,
,,,,,,,,,,,,,,,90240,001,2022-04-28_13h09.03.020,SPAMnetsValid,2021.1.4,Win32,60.0132029,,,,,,,,,,,,,,,,,,,,,,,,,,,,,,,,,,,,,,,,,,,,,,,,,,,,,,,,,,,,,,,,,lizard,Animals,22,0,22,0,1,,,,,,,,,,,,,,,,,,
,,,,,,,,,,,,,,,90240,001,2022-04-28_13h09.03.020,SPAMnetsValid,2021.1.4,Win32,60.0132029,,,,,,,,,,,,,,,,,,,,,,,,,,,,,,,,,,,,,,,,,,,,,,,,,,,,,,,,,,,,,,,,,squid,Animals,23,0,23,0,1,,,,,,,,,,,,,,,,,,
,,,,,,,,,,,,,,,90240,001,2022-04-28_13h09.03.020,SPAMnetsValid,2021.1.4,Win32,60.0132029,,,,,,,,,,,,,,,,,,,,,,,,,,,,,,,,,,,,,,,,,,,,,,,,,,,,,,,,,,,,,,,,,sea star,Animals,24,0,24,0,1,,,,,,,,,,,,,,,,,,
,,,,,,,,,,,,,,,90240,001,2022-04-28_13h09.03.020,SPAMnetsValid,2021.1.4,Win32,60.0132029,,,,,,,,,,,,,,,,,,,,,,,,,,,,,,,,,,,,,,,,,,,,,,,,,,,,,,,,,,,,,,,,,,,,,,,,0,0,0,0,1,Animals,,,,,,,,,,,,
,,,,,,,,,,,,,,,90240,001,2022-04-28_13h09.03.020,SPAMnetsValid,2021.1.4,Win32,60.0132029,,,,,,,,,,,,,,,,,,,,,,,,,,,,,,,,,,,,,,,,,,,,,,,,,,,,,,,,,,,,,,,,,,,,,,,,,,,,,,4,10.485,0,0,0,0,1,"I enjoy concentrating on a fantasy or daydream and exploring all its possibilities, letting it grow and develop.",0,1,,
,,,,,,,,,,,,,,,90240,001,2022-04-28_13h09.03.020,SPAMnetsValid,2021.1.4,Win32,60.0132029,,,,,,,,,,,,,,,,,,,,,,,,,,,,,,,,,,,,,,,,,,,,,,,,,,,,,,,,,,,,,,,,,,,,,,,,,,,,,,4,4.7713,0,1,1,1,1,I think it's interesting to learn and develop new hobbies.,0,2,,
,,,,,,,,,,,,,,,90240,001,2022-04-28_13h09.03.020,SPAMnetsValid,2021.1.4,Win32,60.0132029,,,,,,,,,,,,,,,,,,,,,,,,,,,,,,,,,,,,,,,,,,,,,,,,,,,,,,,,,,,,,,,,,,,,,,,,,,,,,,5,11.4712,0,2,2,2,1,I am intrigued by the patterns I find in art and nature.,0,3,,
,,,,,,,,,,,,,,,90240,001,2022-04-28_13h09.03.020,SPAMnetsValid,2021.1.4,Win32,60.0132029,,,,,,,,,,,,,,,,,,,,,,,,,,,,,,,,,,,,,,,,,,,,,,,,,,,,,,,,,,,,,,,,,,,,,,,,,,,,,,2,14.3265,0,3,3,3,1,I believe letting students hear controversial speakers can only confuse and mislead them.,1,4,,
,,,,,,,,,,,,,,,90240,001,2022-04-28_13h09.03.020,SPAMnetsValid,2021.1.4,Win32,60.0132029,,,,,,,,,,,,,,,,,,,,,,,,,,,,,,,,,,,,,,,,,,,,,,,,,,,,,,,,,,,,,,,,,,,,,,,,,,,,,,2,13.737,0,4,4,4,1,Poetry has little or no effect on me.,1,5,,
,,,,,,,,,,,,,,,90240,001,2022-04-28_13h09.03.020,SPAMnetsValid,2021.1.4,Win32,60.0132029,,,,,,,,,,,,,,,,,,,,,,,,,,,,,,,,,,,,,,,,,,,,,,,,,,,,,,,,,,,,,,,,,,,,,,,,,,,,,,1,9.5547,0,5,5,5,1,I would have difficulty just letting my mind wander without control or guidance.,1,6,,
,,,,,,,,,,,,,,,90240,001,2022-04-28_13h09.03.020,SPAMnetsValid,2021.1.4,Win32,60.0132029,,,,,,,,,,,,,,,,,,,,,,,,,,,,,,,,,,,,,,,,,,,,,,,,,,,,,,,,,,,,,,,,,,,,,,,,,,,,,,2,12.6646,0,6,6,6,1,I seldom notice the moods or feelings that different environments produce.,1,7,,
,,,,,,,,,,,,,,,90240,001,2022-04-28_13h09.03.020,SPAMnetsValid,2021.1.4,Win32,60.0132029,,,,,,,,,,,,,,,,,,,,,,,,,,,,,,,,,,,,,,,,,,,,,,,,,,,,,,,,,,,,,,,,,,,,,,,,,,,,,,3,3.9285,0,7,7,7,1,I experience a wide range of emotions or feelings.,0,8,,
,,,,,,,,,,,,,,,90240,001,2022-04-28_13h09.03.020,SPAMnetsValid,2021.1.4,Win32,60.0132029,,,,,,,,,,,,,,,,,,,,,,,,,,,,,,,,,,,,,,,,,,,,,,,,,,,,,,,,,,,,,,,,,,,,,,,,,,,,,,4,8.1922,0,8,8,8,1,"Sometimes when I am reading poetry or looking at a work of art, I feel a chill or wave of excitement.",0,9,,
,,,,,,,,,,,,,,,90240,001,2022-04-28_13h09.03.020,SPAMnetsValid,2021.1.4,Win32,60.0132029,,,,,,,,,,,,,,,,,,,,,,,,,,,,,,,,,,,,,,,,,,,,,,,,,,,,,,,,,,,,,,,,,,,,,,,,,,,,,,2,9.5714,0,9,9,9,1,I have little interest in speculating on the nature of the universe or the human condition.,1,10,,
,,,,,,,,,,,,,,,90240,001,2022-04-28_13h09.03.020,SPAMnetsValid,2021.1.4,Win32,60.0132029,,,,,,,,,,,,,,,,,,,,,,,,,,,,,,,,,,,,,,,,,,,,,,,,,,,,,,,,,,,,,,,,,,,,,,,,,,,,,,4,3.9264,0,10,10,10,1,I have a lot of intellectual curiosity.,0,11,,
,,,,,,,,,,,,,,,90240,001,2022-04-28_13h09.03.020,SPAMnetsValid,2021.1.4,Win32,60.0132029,,,,,,,,,,,,,,,,,,,,,,,,,,,,,,,,,,,,,,,,,,,,,,,,,,,,,,,,,,,,,,,,,,,,,,,,,,,,,,4,4.1627,0,11,11,11,1,I often enjoy playing with theories or abstract ideas.,0,12,,
,,,,,,,,,,,,,,,90240,001,2022-04-28_13h09.03.020,SPAMnetsValid,2021.1.4,Win32,60.0132029,,,,,,,,,,,,,,,,,,,,,,,,,,,,,,,,,,,,,,,,,,,,,,,,,,,,,,,,,,,,,,,,,,,,,,,,,,,,,,,,,,,,,,,,return,22.4253
