key_resp_3.keys,key_resp_3.rt,slider_2.response,slider_2.rt,rjt_rating,rjt_RT,trials_24.thisRepN,trials_24.thisTrialN,trials_24.thisN,trials_24.thisIndex,trials_24.ran,rjt_order,word1,word2,attention,participant,session,date,expName,psychopyVersion,OS,frameRate,trials_4.thisRepN,trials_4.thisTrialN,trials_4.thisN,trials_4.thisIndex,trials_4.ran,trials_5.thisRepN,trials_5.thisTrialN,trials_5.thisN,trials_5.thisIndex,trials_5.ran,repOne,repTwo,slider.response,slider.rt,trials_22.thisRepN,trials_22.thisTrialN,trials_22.thisN,trials_22.thisIndex,trials_22.ran,trials_99.thisRepN,trials_99.thisTrialN,trials_99.thisN,trials_99.thisIndex,trials_99.ran,slider_extend_2.response,slider_extend_2.rt,trials_6.thisRepN,trials_6.thisTrialN,trials_6.thisN,trials_6.thisIndex,trials_6.ran,vCue2,R1,R2,R3,R4,correct,sliderVocab.response,sliderVocab.rt,trials_7.thisRepN,trials_7.thisTrialN,trials_7.thisN,trials_7.thisIndex,trials_7.ran,VocabCue,VR1,VR2,VR3,VR4,VR5,VocabCorrect,AUT_resp,AUT_label,trials.thisRepN,trials.thisTrialN,trials.thisN,trials.thisIndex,trials.ran,trials_2.thisRepN,trials_2.thisTrialN,trials_2.thisN,trials_2.thisIndex,trials_2.ran,aut_prompt,VF_response,VF_tag,trials_16.thisRepN,trials_16.thisTrialN,trials_16.thisN,trials_16.thisIndex,trials_16.ran,trials_17.thisRepN,trials_17.thisTrialN,trials_17.thisN,trials_17.thisIndex,trials_17.ran,VFcond,open_slider.response,open_slider.rt,trials_3.thisRepN,trials_3.thisTrialN,trials_3.thisN,trials_3.thisIndex,trials_3.ran,OpenQ,Rev,OPEN_ORDER,key_resp_2.keys,key_resp_2.rt
return,0.1307,5,2.9171,5,2.9171,0,0,0,36,1,161,kitchen,pretzel,,90269,001,2022-04-24_18h03.36.641,SPAMnetsValid,2021.1.4,Win32,60.00960154,,,,,,,,,,,,,,,,,,,,,,,,,,,,,,,,,,,,,,,,,,,,,,,,,,,,,,,,,,,,,,,,,,,,,,,,,,,,,,,,,,,,,,,,,
,,5,0.3943,5,0.3943,0,1,1,23,1,148,flower,melon,,90269,001,2022-04-24_18h03.36.641,SPAMnetsValid,2021.1.4,Win32,60.00960154,,,,,,,,,,,,,,,,,,,,,,,,,,,,,,,,,,,,,,,,,,,,,,,,,,,,,,,,,,,,,,,,,,,,,,,,,,,,,,,,,,,,,,,,,
,,5,0.7169,5,0.7169,0,2,2,66,1,150,microwave,refrigerator,,90269,001,2022-04-24_18h03.36.641,SPAMnetsValid,2021.1.4,Win32,60.00960154,,,,,,,,,,,,,,,,,,,,,,,,,,,,,,,,,,,,,,,,,,,,,,,,,,,,,,,,,,,,,,,,,,,,,,,,,,,,,,,,,,,,,,,,,
,,5,0.1143,5,0.1143,0,3,3,62,1,189,onion,tree,,90269,001,2022-04-24_18h03.36.641,SPAMnetsValid,2021.1.4,Win32,60.00960154,,,,,,,,,,,,,,,,,,,,,,,,,,,,,,,,,,,,,,,,,,,,,,,,,,,,,,,,,,,,,,,,,,,,,,,,,,,,,,,,,,,,,,,,,
,,5,0.1168,5,0.1168,0,4,4,78,1,132,broom,tree,,90269,001,2022-04-24_18h03.36.641,SPAMnetsValid,2021.1.4,Win32,60.00960154,,,,,,,,,,,,,,,,,,,,,,,,,,,,,,,,,,,,,,,,,,,,,,,,,,,,,,,,,,,,,,,,,,,,,,,,,,,,,,,,,,,,,,,,,
,,5,0.2616,5,0.2616,0,5,5,1,1,173,kitchen,tomato,,90269,001,2022-04-24_18h03.36.641,SPAMnetsValid,2021.1.4,Win32,60.00960154,,,,,,,,,,,,,,,,,,,,,,,,,,,,,,,,,,,,,,,,,,,,,,,,,,,,,,,,,,,,,,,,,,,,,,,,,,,,,,,,,,,,,,,,,
,,5,0.1165,5,0.1165,0,6,6,41,1,175,melon,onion,,90269,001,2022-04-24_18h03.36.641,SPAMnetsValid,2021.1.4,Win32,60.00960154,,,,,,,,,,,,,,,,,,,,,,,,,,,,,,,,,,,,,,,,,,,,,,,,,,,,,,,,,,,,,,,,,,,,,,,,,,,,,,,,,,,,,,,,,
,,5,0.1237,5,0.1237,0,7,7,94,1,133,cake,flower,,90269,001,2022-04-24_18h03.36.641,SPAMnetsValid,2021.1.4,Win32,60.00960154,,,,,,,,,,,,,,,,,,,,,,,,,,,,,,,,,,,,,,,,,,,,,,,,,,,,,,,,,,,,,,,,,,,,,,,,,,,,,,,,,,,,,,,,,
,,5,0.1085,5,0.1085,0,8,8,39,1,112,cake,carrot,,90269,001,2022-04-24_18h03.36.641,SPAMnetsValid,2021.1.4,Win32,60.00960154,,,,,,,,,,,,,,,,,,,,,,,,,,,,,,,,,,,,,,,,,,,,,,,,,,,,,,,,,,,,,,,,,,,,,,,,,,,,,,,,,,,,,,,,,
,,5,0.0964,5,0.0964,0,9,9,63,1,137,microwave,tree,,90269,001,2022-04-24_18h03.36.641,SPAMnetsValid,2021.1.4,Win32,60.00960154,,,,,,,,,,,,,,,,,,,,,,,,,,,,,,,,,,,,,,,,,,,,,,,,,,,,,,,,,,,,,,,,,,,,,,,,,,,,,,,,,,,,,,,,,
,,5,0.0991,5,0.0991,0,10,10,18,1,119,strawberry,tree,,90269,001,2022-04-24_18h03.36.641,SPAMnetsValid,2021.1.4,Win32,60.00960154,,,,,,,,,,,,,,,,,,,,,,,,,,,,,,,,,,,,,,,,,,,,,,,,,,,,,,,,,,,,,,,,,,,,,,,,,,,,,,,,,,,,,,,,,
,,5,0.107,5,0.107,0,11,11,54,1,101,cactus,kitchen,,90269,001,2022-04-24_18h03.36.641,SPAMnetsValid,2021.1.4,Win32,60.00960154,,,,,,,,,,,,,,,,,,,,,,,,,,,,,,,,,,,,,,,,,,,,,,,,,,,,,,,,,,,,,,,,,,,,,,,,,,,,,,,,,,,,,,,,,
,,5,0.105,5,0.105,0,12,12,76,1,102,chocolate,refrigerator,,90269,001,2022-04-24_18h03.36.641,SPAMnetsValid,2021.1.4,Win32,60.00960154,,,,,,,,,,,,,,,,,,,,,,,,,,,,,,,,,,,,,,,,,,,,,,,,,,,,,,,,,,,,,,,,,,,,,,,,,,,,,,,,,,,,,,,,,
,,5,0.1016,5,0.1016,0,13,13,38,1,155,carrot,cookie,,90269,001,2022-04-24_18h03.36.641,SPAMnetsValid,2021.1.4,Win32,60.00960154,,,,,,,,,,,,,,,,,,,,,,,,,,,,,,,,,,,,,,,,,,,,,,,,,,,,,,,,,,,,,,,,,,,,,,,,,,,,,,,,,,,,,,,,,
,,5,0.1245,5,0.1245,0,14,14,53,1,177,chocolate,strawberry,,90269,001,2022-04-24_18h03.36.641,SPAMnetsValid,2021.1.4,Win32,60.00960154,,,,,,,,,,,,,,,,,,,,,,,,,,,,,,,,,,,,,,,,,,,,,,,,,,,,,,,,,,,,,,,,,,,,,,,,,,,,,,,,,,,,,,,,,
,,5,0.0991,5,0.0991,0,15,15,93,1,134,carrot,flower,,90269,001,2022-04-24_18h03.36.641,SPAMnetsValid,2021.1.4,Win32,60.00960154,,,,,,,,,,,,,,,,,,,,,,,,,,,,,,,,,,,,,,,,,,,,,,,,,,,,,,,,,,,,,,,,,,,,,,,,,,,,,,,,,,,,,,,,,
,,5,0.1001,5,0.1001,0,16,16,55,1,143,pretzel,rose,,90269,001,2022-04-24_18h03.36.641,SPAMnetsValid,2021.1.4,Win32,60.00960154,,,,,,,,,,,,,,,,,,,,,,,,,,,,,,,,,,,,,,,,,,,,,,,,,,,,,,,,,,,,,,,,,,,,,,,,,,,,,,,,,,,,,,,,,
,,5,0.0808,5,0.0808,0,17,17,40,1,165,onion,rose,,90269,001,2022-04-24_18h03.36.641,SPAMnetsValid,2021.1.4,Win32,60.00960154,,,,,,,,,,,,,,,,,,,,,,,,,,,,,,,,,,,,,,,,,,,,,,,,,,,,,,,,,,,,,,,,,,,,,,,,,,,,,,,,,,,,,,,,,
,,5,0.0826,5,0.0826,0,18,18,9,1,176,cactus,tomato,,90269,001,2022-04-24_18h03.36.641,SPAMnetsValid,2021.1.4,Win32,60.00960154,,,,,,,,,,,,,,,,,,,,,,,,,,,,,,,,,,,,,,,,,,,,,,,,,,,,,,,,,,,,,,,,,,,,,,,,,,,,,,,,,,,,,,,,,
,,5,0.0826,5,0.0826,0,19,19,24,1,169,onion,yogurt,,90269,001,2022-04-24_18h03.36.641,SPAMnetsValid,2021.1.4,Win32,60.00960154,,,,,,,,,,,,,,,,,,,,,,,,,,,,,,,,,,,,,,,,,,,,,,,,,,,,,,,,,,,,,,,,,,,,,,,,,,,,,,,,,,,,,,,,,
,,5,0.0825,5,0.0825,0,20,20,57,1,127,cactus,chocolate,,90269,001,2022-04-24_18h03.36.641,SPAMnetsValid,2021.1.4,Win32,60.00960154,,,,,,,,,,,,,,,,,,,,,,,,,,,,,,,,,,,,,,,,,,,,,,,,,,,,,,,,,,,,,,,,,,,,,,,,,,,,,,,,,,,,,,,,,
,,5,0.0801,5,0.0801,0,21,21,70,1,141,melon,tomato,,90269,001,2022-04-24_18h03.36.641,SPAMnetsValid,2021.1.4,Win32,60.00960154,,,,,,,,,,,,,,,,,,,,,,,,,,,,,,,,,,,,,,,,,,,,,,,,,,,,,,,,,,,,,,,,,,,,,,,,,,,,,,,,,,,,,,,,,
,,5,0.0664,5,0.0664,0,22,22,52,1,110,chocolate,cookie,,90269,001,2022-04-24_18h03.36.641,SPAMnetsValid,2021.1.4,Win32,60.00960154,,,,,,,,,,,,,,,,,,,,,,,,,,,,,,,,,,,,,,,,,,,,,,,,,,,,,,,,,,,,,,,,,,,,,,,,,,,,,,,,,,,,,,,,,
,,5,0.0737,5,0.0737,0,23,23,96,1,136,chocolate,microwave,,90269,001,2022-04-24_18h03.36.641,SPAMnetsValid,2021.1.4,Win32,60.00960154,,,,,,,,,,,,,,,,,,,,,,,,,,,,,,,,,,,,,,,,,,,,,,,,,,,,,,,,,,,,,,,,,,,,,,,,,,,,,,,,,,,,,,,,,
,,5,0.0582,5,0.0582,0,24,24,92,1,170,cookie,microwave,,90269,001,2022-04-24_18h03.36.641,SPAMnetsValid,2021.1.4,Win32,60.00960154,,,,,,,,,,,,,,,,,,,,,,,,,,,,,,,,,,,,,,,,,,,,,,,,,,,,,,,,,,,,,,,,,,,,,,,,,,,,,,,,,,,,,,,,,
,,5,0.0445,5,0.0445,0,25,25,68,1,180,tree,yogurt,,90269,001,2022-04-24_18h03.36.641,SPAMnetsValid,2021.1.4,Win32,60.00960154,,,,,,,,,,,,,,,,,,,,,,,,,,,,,,,,,,,,,,,,,,,,,,,,,,,,,,,,,,,,,,,,,,,,,,,,,,,,,,,,,,,,,,,,,
,,5,0.0495,5,0.0495,0,26,26,33,1,131,cactus,garden,,90269,001,2022-04-24_18h03.36.641,SPAMnetsValid,2021.1.4,Win32,60.00960154,,,,,,,,,,,,,,,,,,,,,,,,,,,,,,,,,,,,,,,,,,,,,,,,,,,,,,,,,,,,,,,,,,,,,,,,,,,,,,,,,,,,,,,,,
,,5,0.0377,5,0.0377,0,27,27,82,1,98,pretzel,strawberry,,90269,001,2022-04-24_18h03.36.641,SPAMnetsValid,2021.1.4,Win32,60.00960154,,,,,,,,,,,,,,,,,,,,,,,,,,,,,,,,,,,,,,,,,,,,,,,,,,,,,,,,,,,,,,,,,,,,,,,,,,,,,,,,,,,,,,,,,
,,5,0.0392,5,0.0392,0,28,28,20,1,149,broom,tomato,,90269,001,2022-04-24_18h03.36.641,SPAMnetsValid,2021.1.4,Win32,60.00960154,,,,,,,,,,,,,,,,,,,,,,,,,,,,,,,,,,,,,,,,,,,,,,,,,,,,,,,,,,,,,,,,,,,,,,,,,,,,,,,,,,,,,,,,,
,,5,0.025,5,0.025,0,29,29,34,1,153,carrot,pretzel,,90269,001,2022-04-24_18h03.36.641,SPAMnetsValid,2021.1.4,Win32,60.00960154,,,,,,,,,,,,,,,,,,,,,,,,,,,,,,,,,,,,,,,,,,,,,,,,,,,,,,,,,,,,,,,,,,,,,,,,,,,,,,,,,,,,,,,,,
,,5,0.1571,5,0.1571,0,30,30,29,1,163,melon,refrigerator,,90269,001,2022-04-24_18h03.36.641,SPAMnetsValid,2021.1.4,Win32,60.00960154,,,,,,,,,,,,,,,,,,,,,,,,,,,,,,,,,,,,,,,,,,,,,,,,,,,,,,,,,,,,,,,,,,,,,,,,,,,,,,,,,,,,,,,,,
,,5,0.1822,5,0.1822,0,31,31,84,1,130,microwave,yogurt,,90269,001,2022-04-24_18h03.36.641,SPAMnetsValid,2021.1.4,Win32,60.00960154,,,,,,,,,,,,,,,,,,,,,,,,,,,,,,,,,,,,,,,,,,,,,,,,,,,,,,,,,,,,,,,,,,,,,,,,,,,,,,,,,,,,,,,,,
,,5,0.0817,5,0.0817,0,32,32,3,1,129,cactus,refrigerator,,90269,001,2022-04-24_18h03.36.641,SPAMnetsValid,2021.1.4,Win32,60.00960154,,,,,,,,,,,,,,,,,,,,,,,,,,,,,,,,,,,,,,,,,,,,,,,,,,,,,,,,,,,,,,,,,,,,,,,,,,,,,,,,,,,,,,,,,
,,5,0.0713,5,0.0713,0,33,33,11,1,117,melon,strawberry,,90269,001,2022-04-24_18h03.36.641,SPAMnetsValid,2021.1.4,Win32,60.00960154,,,,,,,,,,,,,,,,,,,,,,,,,,,,,,,,,,,,,,,,,,,,,,,,,,,,,,,,,,,,,,,,,,,,,,,,,,,,,,,,,,,,,,,,,
,,5,0.0626,5,0.0626,0,34,34,15,1,145,cactus,yogurt,,90269,001,2022-04-24_18h03.36.641,SPAMnetsValid,2021.1.4,Win32,60.00960154,,,,,,,,,,,,,,,,,,,,,,,,,,,,,,,,,,,,,,,,,,,,,,,,,,,,,,,,,,,,,,,,,,,,,,,,,,,,,,,,,,,,,,,,,
,,5,0.074,5,0.074,0,35,35,21,1,159,cookie,flower,,90269,001,2022-04-24_18h03.36.641,SPAMnetsValid,2021.1.4,Win32,60.00960154,,,,,,,,,,,,,,,,,,,,,,,,,,,,,,,,,,,,,,,,,,,,,,,,,,,,,,,,,,,,,,,,,,,,,,,,,,,,,,,,,,,,,,,,,
,,5,0.0907,5,0.0907,0,36,36,56,1,113,refrigerator,strawberry,,90269,001,2022-04-24_18h03.36.641,SPAMnetsValid,2021.1.4,Win32,60.00960154,,,,,,,,,,,,,,,,,,,,,,,,,,,,,,,,,,,,,,,,,,,,,,,,,,,,,,,,,,,,,,,,,,,,,,,,,,,,,,,,,,,,,,,,,
,,5,0.0908,5,0.0908,0,37,37,5,1,108,carrot,chocolate,,90269,001,2022-04-24_18h03.36.641,SPAMnetsValid,2021.1.4,Win32,60.00960154,,,,,,,,,,,,,,,,,,,,,,,,,,,,,,,,,,,,,,,,,,,,,,,,,,,,,,,,,,,,,,,,,,,,,,,,,,,,,,,,,,,,,,,,,
,,5,0.0966,5,0.0966,0,38,38,48,1,186,kitchen,yogurt,,90269,001,2022-04-24_18h03.36.641,SPAMnetsValid,2021.1.4,Win32,60.00960154,,,,,,,,,,,,,,,,,,,,,,,,,,,,,,,,,,,,,,,,,,,,,,,,,,,,,,,,,,,,,,,,,,,,,,,,,,,,,,,,,,,,,,,,,
,,5,0.1107,5,0.1107,0,39,39,32,1,182,flower,refrigerator,,90269,001,2022-04-24_18h03.36.641,SPAMnetsValid,2021.1.4,Win32,60.00960154,,,,,,,,,,,,,,,,,,,,,,,,,,,,,,,,,,,,,,,,,,,,,,,,,,,,,,,,,,,,,,,,,,,,,,,,,,,,,,,,,,,,,,,,,
,,5,0.1242,5,0.1242,0,40,40,27,1,158,cookie,oven,,90269,001,2022-04-24_18h03.36.641,SPAMnetsValid,2021.1.4,Win32,60.00960154,,,,,,,,,,,,,,,,,,,,,,,,,,,,,,,,,,,,,,,,,,,,,,,,,,,,,,,,,,,,,,,,,,,,,,,,,,,,,,,,,,,,,,,,,
,,5,0.0245,5,0.0245,0,41,41,69,1,124,oven,refrigerator,,90269,001,2022-04-24_18h03.36.641,SPAMnetsValid,2021.1.4,Win32,60.00960154,,,,,,,,,,,,,,,,,,,,,,,,,,,,,,,,,,,,,,,,,,,,,,,,,,,,,,,,,,,,,,,,,,,,,,,,,,,,,,,,,,,,,,,,,
,,5,0.034,5,0.034,0,42,42,7,1,188,flower,tree,,90269,001,2022-04-24_18h03.36.641,SPAMnetsValid,2021.1.4,Win32,60.00960154,,,,,,,,,,,,,,,,,,,,,,,,,,,,,,,,,,,,,,,,,,,,,,,,,,,,,,,,,,,,,,,,,,,,,,,,,,,,,,,,,,,,,,,,,
,,5,0.0297,5,0.0297,0,43,43,77,1,172,kitchen,melon,,90269,001,2022-04-24_18h03.36.641,SPAMnetsValid,2021.1.4,Win32,60.00960154,,,,,,,,,,,,,,,,,,,,,,,,,,,,,,,,,,,,,,,,,,,,,,,,,,,,,,,,,,,,,,,,,,,,,,,,,,,,,,,,,,,,,,,,,
,,5,0.0467,5,0.0467,0,44,44,2,1,174,cake,pretzel,,90269,001,2022-04-24_18h03.36.641,SPAMnetsValid,2021.1.4,Win32,60.00960154,,,,,,,,,,,,,,,,,,,,,,,,,,,,,,,,,,,,,,,,,,,,,,,,,,,,,,,,,,,,,,,,,,,,,,,,,,,,,,,,,,,,,,,,,
,,5,0.1737,5,0.1737,0,45,45,28,1,154,strawberry,yogurt,,90269,001,2022-04-24_18h03.36.641,SPAMnetsValid,2021.1.4,Win32,60.00960154,,,,,,,,,,,,,,,,,,,,,,,,,,,,,,,,,,,,,,,,,,,,,,,,,,,,,,,,,,,,,,,,,,,,,,,,,,,,,,,,,,,,,,,,,
,,5,0.6152,5,0.6152,0,46,46,50,1,126,kitchen,tree,,90269,001,2022-04-24_18h03.36.641,SPAMnetsValid,2021.1.4,Win32,60.00960154,,,,,,,,,,,,,,,,,,,,,,,,,,,,,,,,,,,,,,,,,,,,,,,,,,,,,,,,,,,,,,,,,,,,,,,,,,,,,,,,,,,,,,,,,
,,5,0.1327,5,0.1327,0,47,47,45,1,179,broom,oven,,90269,001,2022-04-24_18h03.36.641,SPAMnetsValid,2021.1.4,Win32,60.00960154,,,,,,,,,,,,,,,,,,,,,,,,,,,,,,,,,,,,,,,,,,,,,,,,,,,,,,,,,,,,,,,,,,,,,,,,,,,,,,,,,,,,,,,,,
,,5,0.1038,5,0.1038,0,48,48,79,1,103,pretzel,tomato,,90269,001,2022-04-24_18h03.36.641,SPAMnetsValid,2021.1.4,Win32,60.00960154,,,,,,,,,,,,,,,,,,,,,,,,,,,,,,,,,,,,,,,,,,,,,,,,,,,,,,,,,,,,,,,,,,,,,,,,,,,,,,,,,,,,,,,,,
,,5,0.1059,5,0.1059,0,49,49,89,1,140,cookie,refrigerator,,90269,001,2022-04-24_18h03.36.641,SPAMnetsValid,2021.1.4,Win32,60.00960154,,,,,,,,,,,,,,,,,,,,,,,,,,,,,,,,,,,,,,,,,,,,,,,,,,,,,,,,,,,,,,,,,,,,,,,,,,,,,,,,,,,,,,,,,
,,5,0.0905,5,0.0905,0,50,50,65,1,160,cookie,kitchen,,90269,001,2022-04-24_18h03.36.641,SPAMnetsValid,2021.1.4,Win32,60.00960154,,,,,,,,,,,,,,,,,,,,,,,,,,,,,,,,,,,,,,,,,,,,,,,,,,,,,,,,,,,,,,,,,,,,,,,,,,,,,,,,,,,,,,,,,
,,5,0.0498,5,0.0498,0,51,51,37,1,139,carrot,strawberry,,90269,001,2022-04-24_18h03.36.641,SPAMnetsValid,2021.1.4,Win32,60.00960154,,,,,,,,,,,,,,,,,,,,,,,,,,,,,,,,,,,,,,,,,,,,,,,,,,,,,,,,,,,,,,,,,,,,,,,,,,,,,,,,,,,,,,,,,
,,5,0.0409,5,0.0409,0,52,52,83,1,100,garden,tomato,,90269,001,2022-04-24_18h03.36.641,SPAMnetsValid,2021.1.4,Win32,60.00960154,,,,,,,,,,,,,,,,,,,,,,,,,,,,,,,,,,,,,,,,,,,,,,,,,,,,,,,,,,,,,,,,,,,,,,,,,,,,,,,,,,,,,,,,,
,,5,0.0493,5,0.0493,0,53,53,67,1,96,oven,strawberry,,90269,001,2022-04-24_18h03.36.641,SPAMnetsValid,2021.1.4,Win32,60.00960154,,,,,,,,,,,,,,,,,,,,,,,,,,,,,,,,,,,,,,,,,,,,,,,,,,,,,,,,,,,,,,,,,,,,,,,,,,,,,,,,,,,,,,,,,
,,5,0.0248,5,0.0248,0,54,54,86,1,193,melon,melon,CHECK,90269,001,2022-04-24_18h03.36.641,SPAMnetsValid,2021.1.4,Win32,60.00960154,,,,,,,,,,,,,,,,,,,,,,,,,,,,,,,,,,,,,,,,,,,,,,,,,,,,,,,,,,,,,,,,,,,,,,,,,,,,,,,,,,,,,,,,,
,,5,0.0257,5,0.0257,0,55,55,26,1,107,rose,tomato,,90269,001,2022-04-24_18h03.36.641,SPAMnetsValid,2021.1.4,Win32,60.00960154,,,,,,,,,,,,,,,,,,,,,,,,,,,,,,,,,,,,,,,,,,,,,,,,,,,,,,,,,,,,,,,,,,,,,,,,,,,,,,,,,,,,,,,,,
,,5,0.1535,5,0.1535,0,56,56,43,1,185,cactus,rose,,90269,001,2022-04-24_18h03.36.641,SPAMnetsValid,2021.1.4,Win32,60.00960154,,,,,,,,,,,,,,,,,,,,,,,,,,,,,,,,,,,,,,,,,,,,,,,,,,,,,,,,,,,,,,,,,,,,,,,,,,,,,,,,,,,,,,,,,
,,5,0.2933,5,0.2933,0,57,57,61,1,138,flower,rose,,90269,001,2022-04-24_18h03.36.641,SPAMnetsValid,2021.1.4,Win32,60.00960154,,,,,,,,,,,,,,,,,,,,,,,,,,,,,,,,,,,,,,,,,,,,,,,,,,,,,,,,,,,,,,,,,,,,,,,,,,,,,,,,,,,,,,,,,
,,5,0.1242,5,0.1242,0,58,58,0,1,106,cake,strawberry,,90269,001,2022-04-24_18h03.36.641,SPAMnetsValid,2021.1.4,Win32,60.00960154,,,,,,,,,,,,,,,,,,,,,,,,,,,,,,,,,,,,,,,,,,,,,,,,,,,,,,,,,,,,,,,,,,,,,,,,,,,,,,,,,,,,,,,,,
,,5,0.1001,5,0.1001,0,59,59,80,1,146,pretzel,tree,,90269,001,2022-04-24_18h03.36.641,SPAMnetsValid,2021.1.4,Win32,60.00960154,,,,,,,,,,,,,,,,,,,,,,,,,,,,,,,,,,,,,,,,,,,,,,,,,,,,,,,,,,,,,,,,,,,,,,,,,,,,,,,,,,,,,,,,,
,,5,0.0826,5,0.0826,0,60,60,74,1,128,melon,microwave,,90269,001,2022-04-24_18h03.36.641,SPAMnetsValid,2021.1.4,Win32,60.00960154,,,,,,,,,,,,,,,,,,,,,,,,,,,,,,,,,,,,,,,,,,,,,,,,,,,,,,,,,,,,,,,,,,,,,,,,,,,,,,,,,,,,,,,,,
,,5,0.0709,5,0.0709,0,61,61,72,1,181,carrot,kitchen,,90269,001,2022-04-24_18h03.36.641,SPAMnetsValid,2021.1.4,Win32,60.00960154,,,,,,,,,,,,,,,,,,,,,,,,,,,,,,,,,,,,,,,,,,,,,,,,,,,,,,,,,,,,,,,,,,,,,,,,,,,,,,,,,,,,,,,,,
,,5,0.0738,5,0.0738,0,62,62,51,1,168,cactus,flower,,90269,001,2022-04-24_18h03.36.641,SPAMnetsValid,2021.1.4,Win32,60.00960154,,,,,,,,,,,,,,,,,,,,,,,,,,,,,,,,,,,,,,,,,,,,,,,,,,,,,,,,,,,,,,,,,,,,,,,,,,,,,,,,,,,,,,,,,
,,5,0.0489,5,0.0489,0,63,63,58,1,144,cake,garden,,90269,001,2022-04-24_18h03.36.641,SPAMnetsValid,2021.1.4,Win32,60.00960154,,,,,,,,,,,,,,,,,,,,,,,,,,,,,,,,,,,,,,,,,,,,,,,,,,,,,,,,,,,,,,,,,,,,,,,,,,,,,,,,,,,,,,,,,
,,5,0.1819,5,0.1819,0,64,64,90,1,190,microwave,strawberry,,90269,001,2022-04-24_18h03.36.641,SPAMnetsValid,2021.1.4,Win32,60.00960154,,,,,,,,,,,,,,,,,,,,,,,,,,,,,,,,,,,,,,,,,,,,,,,,,,,,,,,,,,,,,,,,,,,,,,,,,,,,,,,,,,,,,,,,,
,,5,0.2993,5,0.2993,0,65,65,19,1,183,cake,rose,,90269,001,2022-04-24_18h03.36.641,SPAMnetsValid,2021.1.4,Win32,60.00960154,,,,,,,,,,,,,,,,,,,,,,,,,,,,,,,,,,,,,,,,,,,,,,,,,,,,,,,,,,,,,,,,,,,,,,,,,,,,,,,,,,,,,,,,,
,,5,0.1239,5,0.1239,0,66,66,49,1,152,cactus,strawberry,,90269,001,2022-04-24_18h03.36.641,SPAMnetsValid,2021.1.4,Win32,60.00960154,,,,,,,,,,,,,,,,,,,,,,,,,,,,,,,,,,,,,,,,,,,,,,,,,,,,,,,,,,,,,,,,,,,,,,,,,,,,,,,,,,,,,,,,,
,,5,0.1414,5,0.1414,0,67,67,95,1,121,broom,microwave,,90269,001,2022-04-24_18h03.36.641,SPAMnetsValid,2021.1.4,Win32,60.00960154,,,,,,,,,,,,,,,,,,,,,,,,,,,,,,,,,,,,,,,,,,,,,,,,,,,,,,,,,,,,,,,,,,,,,,,,,,,,,,,,,,,,,,,,,
,,5,0.1159,5,0.1159,0,68,68,17,1,99,garden,melon,,90269,001,2022-04-24_18h03.36.641,SPAMnetsValid,2021.1.4,Win32,60.00960154,,,,,,,,,,,,,,,,,,,,,,,,,,,,,,,,,,,,,,,,,,,,,,,,,,,,,,,,,,,,,,,,,,,,,,,,,,,,,,,,,,,,,,,,,
,,5,0.0999,5,0.0999,0,69,69,71,1,187,cactus,microwave,,90269,001,2022-04-24_18h03.36.641,SPAMnetsValid,2021.1.4,Win32,60.00960154,,,,,,,,,,,,,,,,,,,,,,,,,,,,,,,,,,,,,,,,,,,,,,,,,,,,,,,,,,,,,,,,,,,,,,,,,,,,,,,,,,,,,,,,,
,,5,0.0735,5,0.0735,0,70,70,12,1,162,microwave,tomato,,90269,001,2022-04-24_18h03.36.641,SPAMnetsValid,2021.1.4,Win32,60.00960154,,,,,,,,,,,,,,,,,,,,,,,,,,,,,,,,,,,,,,,,,,,,,,,,,,,,,,,,,,,,,,,,,,,,,,,,,,,,,,,,,,,,,,,,,
,,5,0.067,5,0.067,0,71,71,14,1,120,microwave,oven,,90269,001,2022-04-24_18h03.36.641,SPAMnetsValid,2021.1.4,Win32,60.00960154,,,,,,,,,,,,,,,,,,,,,,,,,,,,,,,,,,,,,,,,,,,,,,,,,,,,,,,,,,,,,,,,,,,,,,,,,,,,,,,,,,,,,,,,,
,,5,0.0733,5,0.0733,0,72,72,44,1,116,cake,chocolate,,90269,001,2022-04-24_18h03.36.641,SPAMnetsValid,2021.1.4,Win32,60.00960154,,,,,,,,,,,,,,,,,,,,,,,,,,,,,,,,,,,,,,,,,,,,,,,,,,,,,,,,,,,,,,,,,,,,,,,,,,,,,,,,,,,,,,,,,
,,5,0.0581,5,0.0581,0,73,73,64,1,157,refrigerator,rose,,90269,001,2022-04-24_18h03.36.641,SPAMnetsValid,2021.1.4,Win32,60.00960154,,,,,,,,,,,,,,,,,,,,,,,,,,,,,,,,,,,,,,,,,,,,,,,,,,,,,,,,,,,,,,,,,,,,,,,,,,,,,,,,,,,,,,,,,
,,5,0.0251,5,0.0251,0,74,74,87,1,114,cookie,strawberry,,90269,001,2022-04-24_18h03.36.641,SPAMnetsValid,2021.1.4,Win32,60.00960154,,,,,,,,,,,,,,,,,,,,,,,,,,,,,,,,,,,,,,,,,,,,,,,,,,,,,,,,,,,,,,,,,,,,,,,,,,,,,,,,,,,,,,,,,
,,5,0.0301,5,0.0301,0,75,75,22,1,142,garden,tree,,90269,001,2022-04-24_18h03.36.641,SPAMnetsValid,2021.1.4,Win32,60.00960154,,,,,,,,,,,,,,,,,,,,,,,,,,,,,,,,,,,,,,,,,,,,,,,,,,,,,,,,,,,,,,,,,,,,,,,,,,,,,,,,,,,,,,,,,
,,5,0.0235,5,0.0235,0,76,76,81,1,104,garden,microwave,,90269,001,2022-04-24_18h03.36.641,SPAMnetsValid,2021.1.4,Win32,60.00960154,,,,,,,,,,,,,,,,,,,,,,,,,,,,,,,,,,,,,,,,,,,,,,,,,,,,,,,,,,,,,,,,,,,,,,,,,,,,,,,,,,,,,,,,,
,,5,0.0303,5,0.0303,0,77,77,42,1,184,oven,pretzel,,90269,001,2022-04-24_18h03.36.641,SPAMnetsValid,2021.1.4,Win32,60.00960154,,,,,,,,,,,,,,,,,,,,,,,,,,,,,,,,,,,,,,,,,,,,,,,,,,,,,,,,,,,,,,,,,,,,,,,,,,,,,,,,,,,,,,,,,
,,5,0.0169,5,0.0169,0,78,78,16,1,111,carrot,microwave,,90269,001,2022-04-24_18h03.36.641,SPAMnetsValid,2021.1.4,Win32,60.00960154,,,,,,,,,,,,,,,,,,,,,,,,,,,,,,,,,,,,,,,,,,,,,,,,,,,,,,,,,,,,,,,,,,,,,,,,,,,,,,,,,,,,,,,,,
,,5,0.1733,5,0.1733,0,79,79,4,1,109,broom,strawberry,,90269,001,2022-04-24_18h03.36.641,SPAMnetsValid,2021.1.4,Win32,60.00960154,,,,,,,,,,,,,,,,,,,,,,,,,,,,,,,,,,,,,,,,,,,,,,,,,,,,,,,,,,,,,,,,,,,,,,,,,,,,,,,,,,,,,,,,,
,,5,0.1458,5,0.1458,0,80,80,6,1,151,microwave,onion,,90269,001,2022-04-24_18h03.36.641,SPAMnetsValid,2021.1.4,Win32,60.00960154,,,,,,,,,,,,,,,,,,,,,,,,,,,,,,,,,,,,,,,,,,,,,,,,,,,,,,,,,,,,,,,,,,,,,,,,,,,,,,,,,,,,,,,,,
,,5,0.1406,5,0.1406,0,81,81,31,1,156,melon,rose,,90269,001,2022-04-24_18h03.36.641,SPAMnetsValid,2021.1.4,Win32,60.00960154,,,,,,,,,,,,,,,,,,,,,,,,,,,,,,,,,,,,,,,,,,,,,,,,,,,,,,,,,,,,,,,,,,,,,,,,,,,,,,,,,,,,,,,,,
,,5,0.1108,5,0.1108,0,82,82,25,1,194,cactus,cactus,CHECK,90269,001,2022-04-24_18h03.36.641,SPAMnetsValid,2021.1.4,Win32,60.00960154,,,,,,,,,,,,,,,,,,,,,,,,,,,,,,,,,,,,,,,,,,,,,,,,,,,,,,,,,,,,,,,,,,,,,,,,,,,,,,,,,,,,,,,,,
,,5,0.1066,5,0.1066,0,83,83,91,1,166,cake,yogurt,,90269,001,2022-04-24_18h03.36.641,SPAMnetsValid,2021.1.4,Win32,60.00960154,,,,,,,,,,,,,,,,,,,,,,,,,,,,,,,,,,,,,,,,,,,,,,,,,,,,,,,,,,,,,,,,,,,,,,,,,,,,,,,,,,,,,,,,,
,,5,0.0933,5,0.0933,0,84,84,88,1,171,cake,tomato,,90269,001,2022-04-24_18h03.36.641,SPAMnetsValid,2021.1.4,Win32,60.00960154,,,,,,,,,,,,,,,,,,,,,,,,,,,,,,,,,,,,,,,,,,,,,,,,,,,,,,,,,,,,,,,,,,,,,,,,,,,,,,,,,,,,,,,,,
,,5,0.0651,5,0.0651,0,85,85,46,1,123,cookie,tree,,90269,001,2022-04-24_18h03.36.641,SPAMnetsValid,2021.1.4,Win32,60.00960154,,,,,,,,,,,,,,,,,,,,,,,,,,,,,,,,,,,,,,,,,,,,,,,,,,,,,,,,,,,,,,,,,,,,,,,,,,,,,,,,,,,,,,,,,
,,5,0.048,5,0.048,0,86,86,85,1,115,refrigerator,tomato,,90269,001,2022-04-24_18h03.36.641,SPAMnetsValid,2021.1.4,Win32,60.00960154,,,,,,,,,,,,,,,,,,,,,,,,,,,,,,,,,,,,,,,,,,,,,,,,,,,,,,,,,,,,,,,,,,,,,,,,,,,,,,,,,,,,,,,,,
,,5,0.0404,5,0.0404,0,87,87,60,1,122,flower,garden,,90269,001,2022-04-24_18h03.36.641,SPAMnetsValid,2021.1.4,Win32,60.00960154,,,,,,,,,,,,,,,,,,,,,,,,,,,,,,,,,,,,,,,,,,,,,,,,,,,,,,,,,,,,,,,,,,,,,,,,,,,,,,,,,,,,,,,,,
,,5,0.0225,5,0.0225,0,88,88,10,1,118,chocolate,oven,,90269,001,2022-04-24_18h03.36.641,SPAMnetsValid,2021.1.4,Win32,60.00960154,,,,,,,,,,,,,,,,,,,,,,,,,,,,,,,,,,,,,,,,,,,,,,,,,,,,,,,,,,,,,,,,,,,,,,,,,,,,,,,,,,,,,,,,,
,,5,0.0242,5,0.0242,0,89,89,13,1,105,cactus,oven,,90269,001,2022-04-24_18h03.36.641,SPAMnetsValid,2021.1.4,Win32,60.00960154,,,,,,,,,,,,,,,,,,,,,,,,,,,,,,,,,,,,,,,,,,,,,,,,,,,,,,,,,,,,,,,,,,,,,,,,,,,,,,,,,,,,,,,,,
,,5,0.159,5,0.159,0,90,90,73,1,135,carrot,oven,,90269,001,2022-04-24_18h03.36.641,SPAMnetsValid,2021.1.4,Win32,60.00960154,,,,,,,,,,,,,,,,,,,,,,,,,,,,,,,,,,,,,,,,,,,,,,,,,,,,,,,,,,,,,,,,,,,,,,,,,,,,,,,,,,,,,,,,,
,,5,0.1485,5,0.1485,0,91,91,30,1,125,carrot,tree,,90269,001,2022-04-24_18h03.36.641,SPAMnetsValid,2021.1.4,Win32,60.00960154,,,,,,,,,,,,,,,,,,,,,,,,,,,,,,,,,,,,,,,,,,,,,,,,,,,,,,,,,,,,,,,,,,,,,,,,,,,,,,,,,,,,,,,,,
,,5,0.1253,5,0.1253,0,92,92,8,1,97,chocolate,kitchen,,90269,001,2022-04-24_18h03.36.641,SPAMnetsValid,2021.1.4,Win32,60.00960154,,,,,,,,,,,,,,,,,,,,,,,,,,,,,,,,,,,,,,,,,,,,,,,,,,,,,,,,,,,,,,,,,,,,,,,,,,,,,,,,,,,,,,,,,
,,5,0.1159,5,0.1159,0,93,93,35,1,147,cake,refrigerator,,90269,001,2022-04-24_18h03.36.641,SPAMnetsValid,2021.1.4,Win32,60.00960154,,,,,,,,,,,,,,,,,,,,,,,,,,,,,,,,,,,,,,,,,,,,,,,,,,,,,,,,,,,,,,,,,,,,,,,,,,,,,,,,,,,,,,,,,
,,5,0.0745,5,0.0745,0,94,94,75,1,178,cactus,carrot,,90269,001,2022-04-24_18h03.36.641,SPAMnetsValid,2021.1.4,Win32,60.00960154,,,,,,,,,,,,,,,,,,,,,,,,,,,,,,,,,,,,,,,,,,,,,,,,,,,,,,,,,,,,,,,,,,,,,,,,,,,,,,,,,,,,,,,,,
,,5,0.2077,5,0.2077,0,95,95,59,1,164,cookie,garden,,90269,001,2022-04-24_18h03.36.641,SPAMnetsValid,2021.1.4,Win32,60.00960154,,,,,,,,,,,,,,,,,,,,,,,,,,,,,,,,,,,,,,,,,,,,,,,,,,,,,,,,,,,,,,,,,,,,,,,,,,,,,,,,,,,,,,,,,
,,5,0.3468,5,0.3468,0,96,96,47,1,167,carrot,garden,,90269,001,2022-04-24_18h03.36.641,SPAMnetsValid,2021.1.4,Win32,60.00960154,,,,,,,,,,,,,,,,,,,,,,,,,,,,,,,,,,,,,,,,,,,,,,,,,,,,,,,,,,,,,,,,,,,,,,,,,,,,,,,,,,,,,,,,,
,,,,,,,,,,,,,,,90269,001,2022-04-24_18h03.36.641,SPAMnetsValid,2021.1.4,Win32,60.00960154,0,0,0,0,1,,,,,,,,,,,,,,,,,,,,,,,,,,,,,,,,,,,,,,,,,,,,,,,,,,,,,,,,,,,,,,,,,,,,,,,,,,,,,,,,,,,,
,,,,,,,,,,,,,,,90269,001,2022-04-24_18h03.36.641,SPAMnetsValid,2021.1.4,Win32,60.00960154,,,,,,0,0,0,1,1,0,1,,,,,,,,,,,,,,,,,,,,,,,,,,,,,,,,,,,,,,,,,,,,,,,,,,,,,,,,,,,,,,,,,,,,,,,,,,,,,
,,,,5,1.308,,,,,,69,carrot,refrigerator,,90269,001,2022-04-24_18h03.36.641,SPAMnetsValid,2021.1.4,Win32,60.00960154,,,,,,,,,,,,,5,1.308,0,0,0,75,1,,,,,,,,,,,,,,,,,,,,,,,,,,,,,,,,,,,,,,,,,,,,,,,,,,,,,,,,,,,,,,,,,,,,,,
,,,,5,0.0916,,,,,,25,carrot,onion,,90269,001,2022-04-24_18h03.36.641,SPAMnetsValid,2021.1.4,Win32,60.00960154,,,,,,,,,,,,,5,0.0916,0,1,1,44,1,,,,,,,,,,,,,,,,,,,,,,,,,,,,,,,,,,,,,,,,,,,,,,,,,,,,,,,,,,,,,,,,,,,,,,
,,,,5,0.0478,,,,,,32,cake,microwave,,90269,001,2022-04-24_18h03.36.641,SPAMnetsValid,2021.1.4,Win32,60.00960154,,,,,,,,,,,,,5,0.0478,0,2,2,33,1,,,,,,,,,,,,,,,,,,,,,,,,,,,,,,,,,,,,,,,,,,,,,,,,,,,,,,,,,,,,,,,,,,,,,,
,,,,5,0.0322,,,,,,61,strawberry,tomato,,90269,001,2022-04-24_18h03.36.641,SPAMnetsValid,2021.1.4,Win32,60.00960154,,,,,,,,,,,,,5,0.0322,0,3,3,80,1,,,,,,,,,,,,,,,,,,,,,,,,,,,,,,,,,,,,,,,,,,,,,,,,,,,,,,,,,,,,,,,,,,,,,,
,,,,5,0.0254,,,,,,66,melon,yogurt,,90269,001,2022-04-24_18h03.36.641,SPAMnetsValid,2021.1.4,Win32,60.00960154,,,,,,,,,,,,,5,0.0254,0,4,4,48,1,,,,,,,,,,,,,,,,,,,,,,,,,,,,,,,,,,,,,,,,,,,,,,,,,,,,,,,,,,,,,,,,,,,,,,
,,,,5,0.0233,,,,,,31,cactus,pretzel,,90269,001,2022-04-24_18h03.36.641,SPAMnetsValid,2021.1.4,Win32,60.00960154,,,,,,,,,,,,,5,0.0233,0,5,5,1,1,,,,,,,,,,,,,,,,,,,,,,,,,,,,,,,,,,,,,,,,,,,,,,,,,,,,,,,,,,,,,,,,,,,,,,
,,,,5,0.0246,,,,,,192,microwave,microwave,CHECK,90269,001,2022-04-24_18h03.36.641,SPAMnetsValid,2021.1.4,Win32,60.00960154,,,,,,,,,,,,,5,0.0246,0,6,6,53,1,,,,,,,,,,,,,,,,,,,,,,,,,,,,,,,,,,,,,,,,,,,,,,,,,,,,,,,,,,,,,,,,,,,,,,
,,,,5,0.1574,,,,,,65,broom,garden,,90269,001,2022-04-24_18h03.36.641,SPAMnetsValid,2021.1.4,Win32,60.00960154,,,,,,,,,,,,,5,0.1574,0,7,7,23,1,,,,,,,,,,,,,,,,,,,,,,,,,,,,,,,,,,,,,,,,,,,,,,,,,,,,,,,,,,,,,,,,,,,,,,
,,,,5,0.1493,,,,,,75,cookie,onion,,90269,001,2022-04-24_18h03.36.641,SPAMnetsValid,2021.1.4,Win32,60.00960154,,,,,,,,,,,,,5,0.1493,0,8,8,9,1,,,,,,,,,,,,,,,,,,,,,,,,,,,,,,,,,,,,,,,,,,,,,,,,,,,,,,,,,,,,,,,,,,,,,,
,,,,5,0.1242,,,,,,51,onion,strawberry,,90269,001,2022-04-24_18h03.36.641,SPAMnetsValid,2021.1.4,Win32,60.00960154,,,,,,,,,,,,,5,0.1242,0,9,9,86,1,,,,,,,,,,,,,,,,,,,,,,,,,,,,,,,,,,,,,,,,,,,,,,,,,,,,,,,,,,,,,,,,,,,,,,
,,,,5,0.0566,,,,,,43,chocolate,tomato,,90269,001,2022-04-24_18h03.36.641,SPAMnetsValid,2021.1.4,Win32,60.00960154,,,,,,,,,,,,,5,0.0566,0,10,10,8,1,,,,,,,,,,,,,,,,,,,,,,,,,,,,,,,,,,,,,,,,,,,,,,,,,,,,,,,,,,,,,,,,,,,,,,
,,,,5,0.1993,,,,,,4,chocolate,pretzel,,90269,001,2022-04-24_18h03.36.641,SPAMnetsValid,2021.1.4,Win32,60.00960154,,,,,,,,,,,,,5,0.1993,0,11,11,52,1,,,,,,,,,,,,,,,,,,,,,,,,,,,,,,,,,,,,,,,,,,,,,,,,,,,,,,,,,,,,,,,,,,,,,,
,,,,5,0.0256,,,,,,72,broom,onion,,90269,001,2022-04-24_18h03.36.641,SPAMnetsValid,2021.1.4,Win32,60.00960154,,,,,,,,,,,,,5,0.0256,0,12,12,27,1,,,,,,,,,,,,,,,,,,,,,,,,,,,,,,,,,,,,,,,,,,,,,,,,,,,,,,,,,,,,,,,,,,,,,,
,,,,5,0.174,,,,,,12,cookie,yogurt,,90269,001,2022-04-24_18h03.36.641,SPAMnetsValid,2021.1.4,Win32,60.00960154,,,,,,,,,,,,,5,0.174,0,13,13,36,1,,,,,,,,,,,,,,,,,,,,,,,,,,,,,,,,,,,,,,,,,,,,,,,,,,,,,,,,,,,,,,,,,,,,,,
,,,,5,0.3004,,,,,,2,kitchen,onion,,90269,001,2022-04-24_18h03.36.641,SPAMnetsValid,2021.1.4,Win32,60.00960154,,,,,,,,,,,,,5,0.3004,0,14,14,91,1,,,,,,,,,,,,,,,,,,,,,,,,,,,,,,,,,,,,,,,,,,,,,,,,,,,,,,,,,,,,,,,,,,,,,,
,,,,5,0.2688,,,,,,63,cake,cookie,,90269,001,2022-04-24_18h03.36.641,SPAMnetsValid,2021.1.4,Win32,60.00960154,,,,,,,,,,,,,5,0.2688,0,15,15,93,1,,,,,,,,,,,,,,,,,,,,,,,,,,,,,,,,,,,,,,,,,,,,,,,,,,,,,,,,,,,,,,,,,,,,,,
,,,,5,0.1297,,,,,,10,flower,onion,,90269,001,2022-04-24_18h03.36.641,SPAMnetsValid,2021.1.4,Win32,60.00960154,,,,,,,,,,,,,5,0.1297,0,16,16,45,1,,,,,,,,,,,,,,,,,,,,,,,,,,,,,,,,,,,,,,,,,,,,,,,,,,,,,,,,,,,,,,,,,,,,,,
,,,,5,0.2972,,,,,,57,flower,kitchen,,90269,001,2022-04-24_18h03.36.641,SPAMnetsValid,2021.1.4,Win32,60.00960154,,,,,,,,,,,,,5,0.2972,0,17,17,49,1,,,,,,,,,,,,,,,,,,,,,,,,,,,,,,,,,,,,,,,,,,,,,,,,,,,,,,,,,,,,,,,,,,,,,,
,,,,5,0.1174,,,,,,1,rose,yogurt,,90269,001,2022-04-24_18h03.36.641,SPAMnetsValid,2021.1.4,Win32,60.00960154,,,,,,,,,,,,,5,0.1174,0,18,18,55,1,,,,,,,,,,,,,,,,,,,,,,,,,,,,,,,,,,,,,,,,,,,,,,,,,,,,,,,,,,,,,,,,,,,,,,
,,,,5,0.0782,,,,,,89,chocolate,rose,,90269,001,2022-04-24_18h03.36.641,SPAMnetsValid,2021.1.4,Win32,60.00960154,,,,,,,,,,,,,5,0.0782,0,19,19,60,1,,,,,,,,,,,,,,,,,,,,,,,,,,,,,,,,,,,,,,,,,,,,,,,,,,,,,,,,,,,,,,,,,,,,,,
,,,,5,0.0649,,,,,,88,cactus,melon,,90269,001,2022-04-24_18h03.36.641,SPAMnetsValid,2021.1.4,Win32,60.00960154,,,,,,,,,,,,,5,0.0649,0,20,20,38,1,,,,,,,,,,,,,,,,,,,,,,,,,,,,,,,,,,,,,,,,,,,,,,,,,,,,,,,,,,,,,,,,,,,,,,
,,,,5,0.022,,,,,,6,garden,onion,,90269,001,2022-04-24_18h03.36.641,SPAMnetsValid,2021.1.4,Win32,60.00960154,,,,,,,,,,,,,5,0.022,0,21,21,83,1,,,,,,,,,,,,,,,,,,,,,,,,,,,,,,,,,,,,,,,,,,,,,,,,,,,,,,,,,,,,,,,,,,,,,,
,,,,5,0.158,,,,,,37,garden,refrigerator,,90269,001,2022-04-24_18h03.36.641,SPAMnetsValid,2021.1.4,Win32,60.00960154,,,,,,,,,,,,,5,0.158,0,22,22,11,1,,,,,,,,,,,,,,,,,,,,,,,,,,,,,,,,,,,,,,,,,,,,,,,,,,,,,,,,,,,,,,,,,,,,,,
,,,,5,0.122,,,,,,35,flower,pretzel,,90269,001,2022-04-24_18h03.36.641,SPAMnetsValid,2021.1.4,Win32,60.00960154,,,,,,,,,,,,,5,0.122,0,23,23,26,1,,,,,,,,,,,,,,,,,,,,,,,,,,,,,,,,,,,,,,,,,,,,,,,,,,,,,,,,,,,,,,,,,,,,,,
,,,,5,0.1226,,,,,,8,broom,melon,,90269,001,2022-04-24_18h03.36.641,SPAMnetsValid,2021.1.4,Win32,60.00960154,,,,,,,,,,,,,5,0.1226,0,24,24,59,1,,,,,,,,,,,,,,,,,,,,,,,,,,,,,,,,,,,,,,,,,,,,,,,,,,,,,,,,,,,,,,,,,,,,,,
,,,,5,0.0763,,,,,,41,broom,cactus,,90269,001,2022-04-24_18h03.36.641,SPAMnetsValid,2021.1.4,Win32,60.00960154,,,,,,,,,,,,,5,0.0763,0,25,25,46,1,,,,,,,,,,,,,,,,,,,,,,,,,,,,,,,,,,,,,,,,,,,,,,,,,,,,,,,,,,,,,,,,,,,,,,
,,,,5,0.0416,,,,,,15,onion,oven,,90269,001,2022-04-24_18h03.36.641,SPAMnetsValid,2021.1.4,Win32,60.00960154,,,,,,,,,,,,,5,0.0416,0,26,26,39,1,,,,,,,,,,,,,,,,,,,,,,,,,,,,,,,,,,,,,,,,,,,,,,,,,,,,,,,,,,,,,,,,,,,,,,
,,,,5,0.0464,,,,,,29,chocolate,melon,,90269,001,2022-04-24_18h03.36.641,SPAMnetsValid,2021.1.4,Win32,60.00960154,,,,,,,,,,,,,5,0.0464,0,27,27,34,1,,,,,,,,,,,,,,,,,,,,,,,,,,,,,,,,,,,,,,,,,,,,,,,,,,,,,,,,,,,,,,,,,,,,,,
,,,,5,0.1641,,,,,,45,onion,pretzel,,90269,001,2022-04-24_18h03.36.641,SPAMnetsValid,2021.1.4,Win32,60.00960154,,,,,,,,,,,,,5,0.1641,0,28,28,69,1,,,,,,,,,,,,,,,,,,,,,,,,,,,,,,,,,,,,,,,,,,,,,,,,,,,,,,,,,,,,,,,,,,,,,,
,,,,5,0.1281,,,,,,78,cookie,rose,,90269,001,2022-04-24_18h03.36.641,SPAMnetsValid,2021.1.4,Win32,60.00960154,,,,,,,,,,,,,5,0.1281,0,29,29,56,1,,,,,,,,,,,,,,,,,,,,,,,,,,,,,,,,,,,,,,,,,,,,,,,,,,,,,,,,,,,,,,,,,,,,,,
,,,,5,0.1074,,,,,,53,garden,pretzel,,90269,001,2022-04-24_18h03.36.641,SPAMnetsValid,2021.1.4,Win32,60.00960154,,,,,,,,,,,,,5,0.1074,0,30,30,0,1,,,,,,,,,,,,,,,,,,,,,,,,,,,,,,,,,,,,,,,,,,,,,,,,,,,,,,,,,,,,,,,,,,,,,,
,,,,5,0.0791,,,,,,73,broom,chocolate,,90269,001,2022-04-24_18h03.36.641,SPAMnetsValid,2021.1.4,Win32,60.00960154,,,,,,,,,,,,,5,0.0791,0,31,31,47,1,,,,,,,,,,,,,,,,,,,,,,,,,,,,,,,,,,,,,,,,,,,,,,,,,,,,,,,,,,,,,,,,,,,,,,
,,,,5,0.0622,,,,,,71,broom,rose,,90269,001,2022-04-24_18h03.36.641,SPAMnetsValid,2021.1.4,Win32,60.00960154,,,,,,,,,,,,,5,0.0622,0,32,32,61,1,,,,,,,,,,,,,,,,,,,,,,,,,,,,,,,,,,,,,,,,,,,,,,,,,,,,,,,,,,,,,,,,,,,,,,
,,,,5,0.0329,,,,,,21,cake,onion,,90269,001,2022-04-24_18h03.36.641,SPAMnetsValid,2021.1.4,Win32,60.00960154,,,,,,,,,,,,,5,0.0329,0,33,33,63,1,,,,,,,,,,,,,,,,,,,,,,,,,,,,,,,,,,,,,,,,,,,,,,,,,,,,,,,,,,,,,,,,,,,,,,
,,,,5,0.1721,,,,,,5,oven,tree,,90269,001,2022-04-24_18h03.36.641,SPAMnetsValid,2021.1.4,Win32,60.00960154,,,,,,,,,,,,,5,0.1721,0,34,34,70,1,,,,,,,,,,,,,,,,,,,,,,,,,,,,,,,,,,,,,,,,,,,,,,,,,,,,,,,,,,,,,,,,,,,,,,
,,,,5,0.1468,,,,,,56,cactus,tree,,90269,001,2022-04-24_18h03.36.641,SPAMnetsValid,2021.1.4,Win32,60.00960154,,,,,,,,,,,,,5,0.1468,0,35,35,21,1,,,,,,,,,,,,,,,,,,,,,,,,,,,,,,,,,,,,,,,,,,,,,,,,,,,,,,,,,,,,,,,,,,,,,,
,,,,5,0.1127,,,,,,59,rose,strawberry,,90269,001,2022-04-24_18h03.36.641,SPAMnetsValid,2021.1.4,Win32,60.00960154,,,,,,,,,,,,,5,0.1127,0,36,36,72,1,,,,,,,,,,,,,,,,,,,,,,,,,,,,,,,,,,,,,,,,,,,,,,,,,,,,,,,,,,,,,,,,,,,,,,
,,,,5,0.0603,,,,,,7,melon,tree,,90269,001,2022-04-24_18h03.36.641,SPAMnetsValid,2021.1.4,Win32,60.00960154,,,,,,,,,,,,,5,0.0603,0,37,37,77,1,,,,,,,,,,,,,,,,,,,,,,,,,,,,,,,,,,,,,,,,,,,,,,,,,,,,,,,,,,,,,,,,,,,,,,
,,,,5,0.1717,,,,,,74,broom,pretzel,,90269,001,2022-04-24_18h03.36.641,SPAMnetsValid,2021.1.4,Win32,60.00960154,,,,,,,,,,,,,5,0.1717,0,38,38,40,1,,,,,,,,,,,,,,,,,,,,,,,,,,,,,,,,,,,,,,,,,,,,,,,,,,,,,,,,,,,,,,,,,,,,,,
,,,,5,0.1451,,,,,,34,melon,oven,,90269,001,2022-04-24_18h03.36.641,SPAMnetsValid,2021.1.4,Win32,60.00960154,,,,,,,,,,,,,5,0.1451,0,39,39,7,1,,,,,,,,,,,,,,,,,,,,,,,,,,,,,,,,,,,,,,,,,,,,,,,,,,,,,,,,,,,,,,,,,,,,,,
,,,,5,0.1296,,,,,,67,flower,yogurt,,90269,001,2022-04-24_18h03.36.641,SPAMnetsValid,2021.1.4,Win32,60.00960154,,,,,,,,,,,,,5,0.1296,0,40,40,12,1,,,,,,,,,,,,,,,,,,,,,,,,,,,,,,,,,,,,,,,,,,,,,,,,,,,,,,,,,,,,,,,,,,,,,,
,,,,5,0.1058,,,,,,50,carrot,rose,,90269,001,2022-04-24_18h03.36.641,SPAMnetsValid,2021.1.4,Win32,60.00960154,,,,,,,,,,,,,5,0.1058,0,41,41,73,1,,,,,,,,,,,,,,,,,,,,,,,,,,,,,,,,,,,,,,,,,,,,,,,,,,,,,,,,,,,,,,,,,,,,,,
,,,,5,0.0767,,,,,,19,microwave,pretzel,,90269,001,2022-04-24_18h03.36.641,SPAMnetsValid,2021.1.4,Win32,60.00960154,,,,,,,,,,,,,5,0.0767,0,42,42,41,1,,,,,,,,,,,,,,,,,,,,,,,,,,,,,,,,,,,,,,,,,,,,,,,,,,,,,,,,,,,,,,,,,,,,,,
,,,,5,0.0592,,,,,,24,cookie,tomato,,90269,001,2022-04-24_18h03.36.641,SPAMnetsValid,2021.1.4,Win32,60.00960154,,,,,,,,,,,,,5,0.0592,0,43,43,68,1,,,,,,,,,,,,,,,,,,,,,,,,,,,,,,,,,,,,,,,,,,,,,,,,,,,,,,,,,,,,,,,,,,,,,,
,,,,5,0.0559,,,,,,49,flower,strawberry,,90269,001,2022-04-24_18h03.36.641,SPAMnetsValid,2021.1.4,Win32,60.00960154,,,,,,,,,,,,,5,0.0559,0,44,44,3,1,,,,,,,,,,,,,,,,,,,,,,,,,,,,,,,,,,,,,,,,,,,,,,,,,,,,,,,,,,,,,,,,,,,,,,
,,,,5,0.1883,,,,,,33,oven,yogurt,,90269,001,2022-04-24_18h03.36.641,SPAMnetsValid,2021.1.4,Win32,60.00960154,,,,,,,,,,,,,5,0.1883,0,45,45,31,1,,,,,,,,,,,,,,,,,,,,,,,,,,,,,,,,,,,,,,,,,,,,,,,,,,,,,,,,,,,,,,,,,,,,,,
,,,,5,0.3301,,,,,,91,microwave,rose,,90269,001,2022-04-24_18h03.36.641,SPAMnetsValid,2021.1.4,Win32,60.00960154,,,,,,,,,,,,,5,0.3301,0,46,46,84,1,,,,,,,,,,,,,,,,,,,,,,,,,,,,,,,,,,,,,,,,,,,,,,,,,,,,,,,,,,,,,,,,,,,,,,
,,,,5,0.1269,,,,,,92,broom,flower,,90269,001,2022-04-24_18h03.36.641,SPAMnetsValid,2021.1.4,Win32,60.00960154,,,,,,,,,,,,,5,0.1269,0,47,47,88,1,,,,,,,,,,,,,,,,,,,,,,,,,,,,,,,,,,,,,,,,,,,,,,,,,,,,,,,,,,,,,,,,,,,,,,
,,,,5,0.1254,,,,,,14,broom,cookie,,90269,001,2022-04-24_18h03.36.641,SPAMnetsValid,2021.1.4,Win32,60.00960154,,,,,,,,,,,,,5,0.1254,0,48,48,16,1,,,,,,,,,,,,,,,,,,,,,,,,,,,,,,,,,,,,,,,,,,,,,,,,,,,,,,,,,,,,,,,,,,,,,,
,,,,5,0.0909,,,,,,85,cake,tree,,90269,001,2022-04-24_18h03.36.641,SPAMnetsValid,2021.1.4,Win32,60.00960154,,,,,,,,,,,,,5,0.0909,0,49,49,18,1,,,,,,,,,,,,,,,,,,,,,,,,,,,,,,,,,,,,,,,,,,,,,,,,,,,,,,,,,,,,,,,,,,,,,,
,,,,5,0.0742,,,,,,16,chocolate,flower,,90269,001,2022-04-24_18h03.36.641,SPAMnetsValid,2021.1.4,Win32,60.00960154,,,,,,,,,,,,,5,0.0742,0,50,50,22,1,,,,,,,,,,,,,,,,,,,,,,,,,,,,,,,,,,,,,,,,,,,,,,,,,,,,,,,,,,,,,,,,,,,,,,
,,,,5,0.0554,,,,,,54,chocolate,yogurt,,90269,001,2022-04-24_18h03.36.641,SPAMnetsValid,2021.1.4,Win32,60.00960154,,,,,,,,,,,,,5,0.0554,0,51,51,67,1,,,,,,,,,,,,,,,,,,,,,,,,,,,,,,,,,,,,,,,,,,,,,,,,,,,,,,,,,,,,,,,,,,,,,,
,,,,5,0.0149,,,,,,48,flower,oven,,90269,001,2022-04-24_18h03.36.641,SPAMnetsValid,2021.1.4,Win32,60.00960154,,,,,,,,,,,,,5,0.0149,0,52,52,15,1,,,,,,,,,,,,,,,,,,,,,,,,,,,,,,,,,,,,,,,,,,,,,,,,,,,,,,,,,,,,,,,,,,,,,,
,,,,5,0.1719,,,,,,39,melon,pretzel,,90269,001,2022-04-24_18h03.36.641,SPAMnetsValid,2021.1.4,Win32,60.00960154,,,,,,,,,,,,,5,0.1719,0,53,53,20,1,,,,,,,,,,,,,,,,,,,,,,,,,,,,,,,,,,,,,,,,,,,,,,,,,,,,,,,,,,,,,,,,,,,,,,
,,,,5,0.1261,,,,,,191,cake,cake,CHECK,90269,001,2022-04-24_18h03.36.641,SPAMnetsValid,2021.1.4,Win32,60.00960154,,,,,,,,,,,,,5,0.1261,0,54,54,10,1,,,,,,,,,,,,,,,,,,,,,,,,,,,,,,,,,,,,,,,,,,,,,,,,,,,,,,,,,,,,,,,,,,,,,,
,,,,5,0.096,,,,,,28,cake,melon,,90269,001,2022-04-24_18h03.36.641,SPAMnetsValid,2021.1.4,Win32,60.00960154,,,,,,,,,,,,,5,0.096,0,55,55,54,1,,,,,,,,,,,,,,,,,,,,,,,,,,,,,,,,,,,,,,,,,,,,,,,,,,,,,,,,,,,,,,,,,,,,,,
,,,,5,0.0836,,,,,,40,broom,cake,,90269,001,2022-04-24_18h03.36.641,SPAMnetsValid,2021.1.4,Win32,60.00960154,,,,,,,,,,,,,5,0.0836,0,56,56,32,1,,,,,,,,,,,,,,,,,,,,,,,,,,,,,,,,,,,,,,,,,,,,,,,,,,,,,,,,,,,,,,,,,,,,,,
,,,,5,0.0637,,,,,,58,garden,oven,,90269,001,2022-04-24_18h03.36.641,SPAMnetsValid,2021.1.4,Win32,60.00960154,,,,,,,,,,,,,5,0.0637,0,57,57,37,1,,,,,,,,,,,,,,,,,,,,,,,,,,,,,,,,,,,,,,,,,,,,,,,,,,,,,,,,,,,,,,,,,,,,,,
,,,,5,0.0479,,,,,,3,cake,oven,,90269,001,2022-04-24_18h03.36.641,SPAMnetsValid,2021.1.4,Win32,60.00960154,,,,,,,,,,,,,5,0.0479,0,58,58,30,1,,,,,,,,,,,,,,,,,,,,,,,,,,,,,,,,,,,,,,,,,,,,,,,,,,,,,,,,,,,,,,,,,,,,,,
,,,,5,0.1717,,,,,,20,rose,tree,,90269,001,2022-04-24_18h03.36.641,SPAMnetsValid,2021.1.4,Win32,60.00960154,,,,,,,,,,,,,5,0.1717,0,59,59,66,1,,,,,,,,,,,,,,,,,,,,,,,,,,,,,,,,,,,,,,,,,,,,,,,,,,,,,,,,,,,,,,,,,,,,,,
,,,,5,0.3441,,,,,,18,onion,refrigerator,,90269,001,2022-04-24_18h03.36.641,SPAMnetsValid,2021.1.4,Win32,60.00960154,,,,,,,,,,,,,5,0.3441,0,60,60,62,1,,,,,,,,,,,,,,,,,,,,,,,,,,,,,,,,,,,,,,,,,,,,,,,,,,,,,,,,,,,,,,,,,,,,,,
,,,,5,0.0827,,,,,,17,carrot,melon,,90269,001,2022-04-24_18h03.36.641,SPAMnetsValid,2021.1.4,Win32,60.00960154,,,,,,,,,,,,,5,0.0827,0,61,61,24,1,,,,,,,,,,,,,,,,,,,,,,,,,,,,,,,,,,,,,,,,,,,,,,,,,,,,,,,,,,,,,,,,,,,,,,
,,,,5,0.0431,,,,,,86,oven,rose,,90269,001,2022-04-24_18h03.36.641,SPAMnetsValid,2021.1.4,Win32,60.00960154,,,,,,,,,,,,,5,0.0431,0,62,62,79,1,,,,,,,,,,,,,,,,,,,,,,,,,,,,,,,,,,,,,,,,,,,,,,,,,,,,,,,,,,,,,,,,,,,,,,
,,,,5,0.0411,,,,,,84,oven,tomato,,90269,001,2022-04-24_18h03.36.641,SPAMnetsValid,2021.1.4,Win32,60.00960154,,,,,,,,,,,,,5,0.0411,0,63,63,28,1,,,,,,,,,,,,,,,,,,,,,,,,,,,,,,,,,,,,,,,,,,,,,,,,,,,,,,,,,,,,,,,,,,,,,,
,,,,5,0.033,,,,,,62,kitchen,rose,,90269,001,2022-04-24_18h03.36.641,SPAMnetsValid,2021.1.4,Win32,60.00960154,,,,,,,,,,,,,5,0.033,0,64,64,57,1,,,,,,,,,,,,,,,,,,,,,,,,,,,,,,,,,,,,,,,,,,,,,,,,,,,,,,,,,,,,,,,,,,,,,,
,,,,5,0.0227,,,,,,93,kitchen,oven,,90269,001,2022-04-24_18h03.36.641,SPAMnetsValid,2021.1.4,Win32,60.00960154,,,,,,,,,,,,,5,0.0227,0,65,65,82,1,,,,,,,,,,,,,,,,,,,,,,,,,,,,,,,,,,,,,,,,,,,,,,,,,,,,,,,,,,,,,,,,,,,,,,
,,,,5,0.1991,,,,,,38,pretzel,refrigerator,,90269,001,2022-04-24_18h03.36.641,SPAMnetsValid,2021.1.4,Win32,60.00960154,,,,,,,,,,,,,5,0.1991,0,66,66,71,1,,,,,,,,,,,,,,,,,,,,,,,,,,,,,,,,,,,,,,,,,,,,,,,,,,,,,,,,,,,,,,,,,,,,,,
,,,,5,0.1554,,,,,,30,cookie,pretzel,,90269,001,2022-04-24_18h03.36.641,SPAMnetsValid,2021.1.4,Win32,60.00960154,,,,,,,,,,,,,5,0.1554,0,67,67,78,1,,,,,,,,,,,,,,,,,,,,,,,,,,,,,,,,,,,,,,,,,,,,,,,,,,,,,,,,,,,,,,,,,,,,,,
,,,,5,0.1271,,,,,,23,flower,microwave,,90269,001,2022-04-24_18h03.36.641,SPAMnetsValid,2021.1.4,Win32,60.00960154,,,,,,,,,,,,,5,0.1271,0,68,68,25,1,,,,,,,,,,,,,,,,,,,,,,,,,,,,,,,,,,,,,,,,,,,,,,,,,,,,,,,,,,,,,,,,,,,,,,
,,,,5,0.0958,,,,,,82,cake,kitchen,,90269,001,2022-04-24_18h03.36.641,SPAMnetsValid,2021.1.4,Win32,60.00960154,,,,,,,,,,,,,5,0.0958,0,69,69,96,1,,,,,,,,,,,,,,,,,,,,,,,,,,,,,,,,,,,,,,,,,,,,,,,,,,,,,,,,,,,,,,,,,,,,,,
,,,,5,0.0609,,,,,,94,kitchen,microwave,,90269,001,2022-04-24_18h03.36.641,SPAMnetsValid,2021.1.4,Win32,60.00960154,,,,,,,,,,,,,5,0.0609,0,70,70,58,1,,,,,,,,,,,,,,,,,,,,,,,,,,,,,,,,,,,,,,,,,,,,,,,,,,,,,,,,,,,,,,,,,,,,,,
,,,,5,0.1881,,,,,,76,garden,rose,,90269,001,2022-04-24_18h03.36.641,SPAMnetsValid,2021.1.4,Win32,60.00960154,,,,,,,,,,,,,5,0.1881,0,71,71,19,1,,,,,,,,,,,,,,,,,,,,,,,,,,,,,,,,,,,,,,,,,,,,,,,,,,,,,,,,,,,,,,,,,,,,,,
,,,,5,0.1771,,,,,,95,broom,refrigerator,,90269,001,2022-04-24_18h03.36.641,SPAMnetsValid,2021.1.4,Win32,60.00960154,,,,,,,,,,,,,5,0.1771,0,72,72,90,1,,,,,,,,,,,,,,,,,,,,,,,,,,,,,,,,,,,,,,,,,,,,,,,,,,,,,,,,,,,,,,,,,,,,,,
,,,,5,0.125,,,,,,81,pretzel,yogurt,,90269,001,2022-04-24_18h03.36.641,SPAMnetsValid,2021.1.4,Win32,60.00960154,,,,,,,,,,,,,5,0.125,0,73,73,50,1,,,,,,,,,,,,,,,,,,,,,,,,,,,,,,,,,,,,,,,,,,,,,,,,,,,,,,,,,,,,,,,,,,,,,,
,,,,5,0.1244,,,,,,42,garden,kitchen,,90269,001,2022-04-24_18h03.36.641,SPAMnetsValid,2021.1.4,Win32,60.00960154,,,,,,,,,,,,,5,0.1244,0,74,74,29,1,,,,,,,,,,,,,,,,,,,,,,,,,,,,,,,,,,,,,,,,,,,,,,,,,,,,,,,,,,,,,,,,,,,,,,
,,,,5,0.0895,,,,,,52,carrot,tomato,,90269,001,2022-04-24_18h03.36.641,SPAMnetsValid,2021.1.4,Win32,60.00960154,,,,,,,,,,,,,5,0.0895,0,75,75,95,1,,,,,,,,,,,,,,,,,,,,,,,,,,,,,,,,,,,,,,,,,,,,,,,,,,,,,,,,,,,,,,,,,,,,,,
,,,,5,0.0723,,,,,,36,broom,kitchen,,90269,001,2022-04-24_18h03.36.641,SPAMnetsValid,2021.1.4,Win32,60.00960154,,,,,,,,,,,,,5,0.0723,0,76,76,76,1,,,,,,,,,,,,,,,,,,,,,,,,,,,,,,,,,,,,,,,,,,,,,,,,,,,,,,,,,,,,,,,,,,,,,,
,,,,5,0.0392,,,,,,55,tomato,tree,,90269,001,2022-04-24_18h03.36.641,SPAMnetsValid,2021.1.4,Win32,60.00960154,,,,,,,,,,,,,5,0.0392,0,77,77,35,1,,,,,,,,,,,,,,,,,,,,,,,,,,,,,,,,,,,,,,,,,,,,,,,,,,,,,,,,,,,,,,,,,,,,,,
,,,,5,0.0109,,,,,,11,refrigerator,tree,,90269,001,2022-04-24_18h03.36.641,SPAMnetsValid,2021.1.4,Win32,60.00960154,,,,,,,,,,,,,5,0.0109,0,78,78,43,1,,,,,,,,,,,,,,,,,,,,,,,,,,,,,,,,,,,,,,,,,,,,,,,,,,,,,,,,,,,,,,,,,,,,,,
,,,,5,0.1653,,,,,,26,tomato,yogurt,,90269,001,2022-04-24_18h03.36.641,SPAMnetsValid,2021.1.4,Win32,60.00960154,,,,,,,,,,,,,5,0.1653,0,79,79,13,1,,,,,,,,,,,,,,,,,,,,,,,,,,,,,,,,,,,,,,,,,,,,,,,,,,,,,,,,,,,,,,,,,,,,,,
,,,,5,0.1386,,,,,,64,chocolate,garden,,90269,001,2022-04-24_18h03.36.641,SPAMnetsValid,2021.1.4,Win32,60.00960154,,,,,,,,,,,,,5,0.1386,0,80,80,14,1,,,,,,,,,,,,,,,,,,,,,,,,,,,,,,,,,,,,,,,,,,,,,,,,,,,,,,,,,,,,,,,,,,,,,,
,,,,5,0.0929,,,,,,83,broom,carrot,,90269,001,2022-04-24_18h03.36.641,SPAMnetsValid,2021.1.4,Win32,60.00960154,,,,,,,,,,,,,5,0.0929,0,81,81,4,1,,,,,,,,,,,,,,,,,,,,,,,,,,,,,,,,,,,,,,,,,,,,,,,,,,,,,,,,,,,,,,,,,,,,,,
,,,,5,0.0464,,,,,,70,chocolate,onion,,90269,001,2022-04-24_18h03.36.641,SPAMnetsValid,2021.1.4,Win32,60.00960154,,,,,,,,,,,,,5,0.0464,0,82,82,74,1,,,,,,,,,,,,,,,,,,,,,,,,,,,,,,,,,,,,,,,,,,,,,,,,,,,,,,,,,,,,,,,,,,,,,,
,,,,5,0.1884,,,,,,46,garden,yogurt,,90269,001,2022-04-24_18h03.36.641,SPAMnetsValid,2021.1.4,Win32,60.00960154,,,,,,,,,,,,,5,0.1884,0,83,83,65,1,,,,,,,,,,,,,,,,,,,,,,,,,,,,,,,,,,,,,,,,,,,,,,,,,,,,,,,,,,,,,,,,,,,,,,
,,,,5,0.1751,,,,,,9,kitchen,refrigerator,,90269,001,2022-04-24_18h03.36.641,SPAMnetsValid,2021.1.4,Win32,60.00960154,,,,,,,,,,,,,5,0.1751,0,84,84,64,1,,,,,,,,,,,,,,,,,,,,,,,,,,,,,,,,,,,,,,,,,,,,,,,,,,,,,,,,,,,,,,,,,,,,,,
,,,,5,0.1479,,,,,,87,carrot,yogurt,,90269,001,2022-04-24_18h03.36.641,SPAMnetsValid,2021.1.4,Win32,60.00960154,,,,,,,,,,,,,5,0.1479,0,85,85,6,1,,,,,,,,,,,,,,,,,,,,,,,,,,,,,,,,,,,,,,,,,,,,,,,,,,,,,,,,,,,,,,,,,,,,,,
,,,,5,0.1081,,,,,,68,flower,tomato,,90269,001,2022-04-24_18h03.36.641,SPAMnetsValid,2021.1.4,Win32,60.00960154,,,,,,,,,,,,,5,0.1081,0,86,86,94,1,,,,,,,,,,,,,,,,,,,,,,,,,,,,,,,,,,,,,,,,,,,,,,,,,,,,,,,,,,,,,,,,,,,,,,
,,,,5,0.0826,,,,,,22,kitchen,strawberry,,90269,001,2022-04-24_18h03.36.641,SPAMnetsValid,2021.1.4,Win32,60.00960154,,,,,,,,,,,,,5,0.0826,0,87,87,2,1,,,,,,,,,,,,,,,,,,,,,,,,,,,,,,,,,,,,,,,,,,,,,,,,,,,,,,,,,,,,,,,,,,,,,,
,,,,5,0.1961,,,,,,77,refrigerator,yogurt,,90269,001,2022-04-24_18h03.36.641,SPAMnetsValid,2021.1.4,Win32,60.00960154,,,,,,,,,,,,,5,0.1961,0,88,88,42,1,,,,,,,,,,,,,,,,,,,,,,,,,,,,,,,,,,,,,,,,,,,,,,,,,,,,,,,,,,,,,,,,,,,,,,
,,,,5,0.1329,,,,,,80,chocolate,tree,,90269,001,2022-04-24_18h03.36.641,SPAMnetsValid,2021.1.4,Win32,60.00960154,,,,,,,,,,,,,5,0.1329,0,89,89,89,1,,,,,,,,,,,,,,,,,,,,,,,,,,,,,,,,,,,,,,,,,,,,,,,,,,,,,,,,,,,,,,,,,,,,,,
,,,,5,0.0973,,,,,,27,cactus,cookie,,90269,001,2022-04-24_18h03.36.641,SPAMnetsValid,2021.1.4,Win32,60.00960154,,,,,,,,,,,,,5,0.0973,0,90,90,17,1,,,,,,,,,,,,,,,,,,,,,,,,,,,,,,,,,,,,,,,,,,,,,,,,,,,,,,,,,,,,,,,,,,,,,,
,,,,5,0.0666,,,,,,47,onion,tomato,,90269,001,2022-04-24_18h03.36.641,SPAMnetsValid,2021.1.4,Win32,60.00960154,,,,,,,,,,,,,5,0.0666,0,91,91,51,1,,,,,,,,,,,,,,,,,,,,,,,,,,,,,,,,,,,,,,,,,,,,,,,,,,,,,,,,,,,,,,,,,,,,,,
,,,,5,0.0443,,,,,,90,cactus,cake,,90269,001,2022-04-24_18h03.36.641,SPAMnetsValid,2021.1.4,Win32,60.00960154,,,,,,,,,,,,,5,0.0443,0,92,92,85,1,,,,,,,,,,,,,,,,,,,,,,,,,,,,,,,,,,,,,,,,,,,,,,,,,,,,,,,,,,,,,,,,,,,,,,
,,,,5,0.1663,,,,,,60,cactus,onion,,90269,001,2022-04-24_18h03.36.641,SPAMnetsValid,2021.1.4,Win32,60.00960154,,,,,,,,,,,,,5,0.1663,0,93,93,81,1,,,,,,,,,,,,,,,,,,,,,,,,,,,,,,,,,,,,,,,,,,,,,,,,,,,,,,,,,,,,,,,,,,,,,,
,,,,5,0.1384,,,,,,44,cookie,melon,,90269,001,2022-04-24_18h03.36.641,SPAMnetsValid,2021.1.4,Win32,60.00960154,,,,,,,,,,,,,5,0.1384,0,94,94,92,1,,,,,,,,,,,,,,,,,,,,,,,,,,,,,,,,,,,,,,,,,,,,,,,,,,,,,,,,,,,,,,,,,,,,,,
,,,,5,0.1055,,,,,,13,broom,yogurt,,90269,001,2022-04-24_18h03.36.641,SPAMnetsValid,2021.1.4,Win32,60.00960154,,,,,,,,,,,,,5,0.1055,0,95,95,5,1,,,,,,,,,,,,,,,,,,,,,,,,,,,,,,,,,,,,,,,,,,,,,,,,,,,,,,,,,,,,,,,,,,,,,,
,,,,5,0.0317,,,,,,79,garden,strawberry,,90269,001,2022-04-24_18h03.36.641,SPAMnetsValid,2021.1.4,Win32,60.00960154,,,,,,,,,,,,,5,0.0317,0,96,96,87,1,,,,,,,,,,,,,,,,,,,,,,,,,,,,,,,,,,,,,,,,,,,,,,,,,,,,,,,,,,,,,,,,,,,,,,
,,,,,,,,,,,,,,,90269,001,2022-04-24_18h03.36.641,SPAMnetsValid,2021.1.4,Win32,60.00960154,,,,,,,,,,,,,,,,,,,,0,0,0,0,1,,,,,,,,,,,,,,,,,,,,,,,,,,,,,,,,,,,,,,,,,,,,,,,,,,,,,,,,,,,,,,,,,
,,,,,,,,,,,,,,,90269,001,2022-04-24_18h03.36.641,SPAMnetsValid,2021.1.4,Win32,60.00960154,,,,,,0,1,1,0,1,1,0,,,,,,,,,,,,,,,,,,,,,,,,,,,,,,,,,,,,,,,,,,,,,,,,,,,,,,,,,,,,,,,,,,,,,,,,,,,,,
,,,,,,,,,,,,,,,90269,001,2022-04-24_18h03.36.641,SPAMnetsValid,2021.1.4,Win32,60.00960154,,,,,,,,,,,,,,,,,,,,,,,,,,,0,0,0,0,1,rancor,forbearance,ridicule,malice,bravery,3,,,,,,,,,,,,,,,,,,,,,,,,,,,,,,,,,,,,,,,,,,,,,,,,,,,,
,,,,,,,,,,,,,,,90269,001,2022-04-24_18h03.36.641,SPAMnetsValid,2021.1.4,Win32,60.00960154,,,,,,,,,,,,,,,,,,,,,,,,,,,0,1,1,1,1,raucous,empty,quiet,smooth,harsh,4,,,,,,,,,,,,,,,,,,,,,,,,,,,,,,,,,,,,,,,,,,,,,,,,,,,,
,,,,,,,,,,,,,,,90269,001,2022-04-24_18h03.36.641,SPAMnetsValid,2021.1.4,Win32,60.00960154,,,,,,,,,,,,,,,,,,,,,,,,,,,0,2,2,2,1,gargoyle,oil,medicine,carved waterspout,ugly building,3,,,,,,,,,,,,,,,,,,,,,,,,,,,,,,,,,,,,,,,,,,,,,,,,,,,,
,,,,,,,,,,,,,,,90269,001,2022-04-24_18h03.36.641,SPAMnetsValid,2021.1.4,Win32,60.00960154,,,,,,,,,,,,,,,,,,,,,,,,,,,0,3,3,3,1,recrudesce,purify,renew activity,lack refinement,crush,2,,,,,,,,,,,,,,,,,,,,,,,,,,,,,,,,,,,,,,,,,,,,,,,,,,,,
,,,,,,,,,,,,,,,90269,001,2022-04-24_18h03.36.641,SPAMnetsValid,2021.1.4,Win32,60.00960154,,,,,,,,,,,,,,,,,,,,,,,,,,,0,4,4,4,1,specious,"plausible, but not genuine",noteworthy,class or variety,roomy,1,,,,,,,,,,,,,,,,,,,,,,,,,,,,,,,,,,,,,,,,,,,,,,,,,,,,
,,,,,,,,,,,,,,,90269,001,2022-04-24_18h03.36.641,SPAMnetsValid,2021.1.4,Win32,60.00960154,,,,,,,,,,,,,,,,,,,,,,,,,,,0,5,5,5,1,bauble,bubble,showy plaything,idle talk,confusion,2,,,,,,,,,,,,,,,,,,,,,,,,,,,,,,,,,,,,,,,,,,,,,,,,,,,,
,,,,,,,,,,,,,,,90269,001,2022-04-24_18h03.36.641,SPAMnetsValid,2021.1.4,Win32,60.00960154,,,,,,,,,,,,,,,,,,,,,,,,,,,0,6,6,6,1,prolific,scarce,producing abundantly,reckless,speaking profanely,2,,,,,,,,,,,,,,,,,,,,,,,,,,,,,,,,,,,,,,,,,,,,,,,,,,,,
,,,,,,,,,,,,,,,90269,001,2022-04-24_18h03.36.641,SPAMnetsValid,2021.1.4,Win32,60.00960154,,,,,,,,,,,,,,,,,,,,,,,,,,,0,7,7,7,1,opulent,party,wealthy,happy frame of mind,semiprecious stone,2,,,,,,,,,,,,,,,,,,,,,,,,,,,,,,,,,,,,,,,,,,,,,,,,,,,,
,,,,,,,,,,,,,,,90269,001,2022-04-24_18h03.36.641,SPAMnetsValid,2021.1.4,Win32,60.00960154,,,,,,,,,,,,,,,,,,,,,,,,,,,0,8,8,8,1,coercion,conspiracy,strategy,restraint,attraction,3,,,,,,,,,,,,,,,,,,,,,,,,,,,,,,,,,,,,,,,,,,,,,,,,,,,,
,,,,,,,,,,,,,,,90269,001,2022-04-24_18h03.36.641,SPAMnetsValid,2021.1.4,Win32,60.00960154,,,,,,,,,,,,,,,,,,,,,,,,,,,0,9,9,9,1,hiatus,animal,calamity,dread,gap,4,,,,,,,,,,,,,,,,,,,,,,,,,,,,,,,,,,,,,,,,,,,,,,,,,,,,
,,,,,,,,,,,,,,,90269,001,2022-04-24_18h03.36.641,SPAMnetsValid,2021.1.4,Win32,60.00960154,,,,,,,,,,,,,,,,,,,,,,,,,,,0,10,10,10,1,germane,microbe,contagious,relevant,different,3,,,,,,,,,,,,,,,,,,,,,,,,,,,,,,,,,,,,,,,,,,,,,,,,,,,,
,,,,,,,,,,,,,,,90269,001,2022-04-24_18h03.36.641,SPAMnetsValid,2021.1.4,Win32,60.00960154,,,,,,,,,,,,,,,,,,,,,,,,,,,0,11,11,11,1,perfunctory,fundamental,formal,superficial,careful,3,,,,,,,,,,,,,,,,,,,,,,,,,,,,,,,,,,,,,,,,,,,,,,,,,,,,
,,,,,,,,,,,,,,,90269,001,2022-04-24_18h03.36.641,SPAMnetsValid,2021.1.4,Win32,60.00960154,,,,,,,,,,,,,,,,,,,,,,,,,,,0,12,12,12,1,diverge,reveal,chant,distract the attention of,differ or turn off from,4,,,,,,,,,,,,,,,,,,,,,,,,,,,,,,,,,,,,,,,,,,,,,,,,,,,,
,,,,,,,,,,,,,,,90269,001,2022-04-24_18h03.36.641,SPAMnetsValid,2021.1.4,Win32,60.00960154,,,,,,,,,,,,,,,,,,,,,,,,,,,0,13,13,13,1,evoke,take away,anger,connect,bring out,4,,,,,,,,,,,,,,,,,,,,,,,,,,,,,,,,,,,,,,,,,,,,,,,,,,,,
,,,,,,,,,,,,,,,90269,001,2022-04-24_18h03.36.641,SPAMnetsValid,2021.1.4,Win32,60.00960154,,,,,,,,,,,,,,,,,,,,,,,,,,,0,14,14,14,1,pertinent,relevant,lying next to,necessary,bold,1,,,,,,,,,,,,,,,,,,,,,,,,,,,,,,,,,,,,,,,,,,,,,,,,,,,,
,,,,,,,,,,,,,,,90269,001,2022-04-24_18h03.36.641,SPAMnetsValid,2021.1.4,Win32,60.00960154,,,,,,,,,,,,,,,,,,,,,,,,,,,0,15,15,15,1,holocaust,entirety,destruction,saintly,price,2,,,,,,,,,,,,,,,,,,,,,,,,,,,,,,,,,,,,,,,,,,,,,,,,,,,,
,,,,,,,,,,,,,,,90269,001,2022-04-24_18h03.36.641,SPAMnetsValid,2021.1.4,Win32,60.00960154,,,,,,,,,,,,,,,,,,,,,,,,,,,0,16,16,16,1,piquant,mellow,fish,pungent,cloth,3,,,,,,,,,,,,,,,,,,,,,,,,,,,,,,,,,,,,,,,,,,,,,,,,,,,,
,,,,,,,,,,,,,,,90269,001,2022-04-24_18h03.36.641,SPAMnetsValid,2021.1.4,Win32,60.00960154,,,,,,,,,,,,,,,,,,,,,,,,,,,0,17,17,17,1,firmament,foundation,heavens,strong,glue,2,,,,,,,,,,,,,,,,,,,,,,,,,,,,,,,,,,,,,,,,,,,,,,,,,,,,
,,,,,,,,,,,,,,,90269,001,2022-04-24_18h03.36.641,SPAMnetsValid,2021.1.4,Win32,60.00960154,,,,,,,,,,,,,,,,,,,,,,,,,,,,,,,,,,,,,,,,0,0,0,0,1,marketable,partisan,jocular,marriageable,salable,essential,4,,,,,,,,,,,,,,,,,,,,,,,,,,,,,,,,,,,,,,
,,,,,,,,,,,,,,,90269,001,2022-04-24_18h03.36.641,SPAMnetsValid,2021.1.4,Win32,60.00960154,,,,,,,,,,,,,,,,,,,,,,,,,,,,,,,,,,,,,,,,0,1,1,1,1,cottontail,squirrel,poplar,boa,marshy plant,rabbit,5,,,,,,,,,,,,,,,,,,,,,,,,,,,,,,,,,,,,,,
,,,,,,,,,,,,,,,90269,001,2022-04-24_18h03.36.641,SPAMnetsValid,2021.1.4,Win32,60.00960154,,,,,,,,,,,,,,,,,,,,,,,,,,,,,,,,,,,,,,,,0,2,2,2,1,boggy,afraid,false,marshy,dense,black,3,,,,,,,,,,,,,,,,,,,,,,,,,,,,,,,,,,,,,,
,,,,,,,,,,,,,,,90269,001,2022-04-24_18h03.36.641,SPAMnetsValid,2021.1.4,Win32,60.00960154,,,,,,,,,,,,,,,,,,,,,,,,,,,,,,,,,,,,,,,,0,3,3,3,1,gruesomeness,blackness,falseness,vindictiveness,drunkenness,ghastliness,5,,,,,,,,,,,,,,,,,,,,,,,,,,,,,,,,,,,,,,
,,,,,,,,,,,,,,,90269,001,2022-04-24_18h03.36.641,SPAMnetsValid,2021.1.4,Win32,60.00960154,,,,,,,,,,,,,,,,,,,,,,,,,,,,,,,,,,,,,,,,0,4,4,4,1,loathing,diffidence,laziness,abhorrence,cleverness,comfort,3,,,,,,,,,,,,,,,,,,,,,,,,,,,,,,,,,,,,,,
,,,,,,,,,,,,,,,90269,001,2022-04-24_18h03.36.641,SPAMnetsValid,2021.1.4,Win32,60.00960154,,,,,,,,,,,,,,,,,,,,,,,,,,,,,,,,,,,,,,,,0,5,5,5,1,bantam,fowl,ridicule,cripple,vegetable,ensign,1,,,,,,,,,,,,,,,,,,,,,,,,,,,,,,,,,,,,,,
,,,,,,,,,,,,,,,90269,001,2022-04-24_18h03.36.641,SPAMnetsValid,2021.1.4,Win32,60.00960154,,,,,,,,,,,,,,,,,,,,,,,,,,,,,,,,,,,,,,,,0,6,6,6,1,evoke,wake up,surrender,reconnoiter,transcend,call forth,5,,,,,,,,,,,,,,,,,,,,,,,,,,,,,,,,,,,,,,
,,,,,,,,,,,,,,,90269,001,2022-04-24_18h03.36.641,SPAMnetsValid,2021.1.4,Win32,60.00960154,,,,,,,,,,,,,,,,,,,,,,,,,,,,,,,,,,,,,,,,0,7,7,7,1,unobtrusive,unintelligent,epileptic,illogical,lineal,modest,5,,,,,,,,,,,,,,,,,,,,,,,,,,,,,,,,,,,,,,
,,,,,,,,,,,,,,,90269,001,2022-04-24_18h03.36.641,SPAMnetsValid,2021.1.4,Win32,60.00960154,,,,,,,,,,,,,,,,,,,,,,,,,,,,,,,,,,,,,,,,0,8,8,8,1,terrain,ice cream,final test,tractor,area of ground,weight,4,,,,,,,,,,,,,,,,,,,,,,,,,,,,,,,,,,,,,,
,,,,,,,,,,,,,,,90269,001,2022-04-24_18h03.36.641,SPAMnetsValid,2021.1.4,Win32,60.00960154,,,,,,,,,,,,,,,,,,,,,,,,,,,,,,,,,,,,,,,,0,9,9,9,1,capriciousness,stubbornness,courage,whimsicality,amazement,greediness,3,,,,,,,,,,,,,,,,,,,,,,,,,,,,,,,,,,,,,,
,,,,,,,,,,,,,,,90269,001,2022-04-24_18h03.36.641,SPAMnetsValid,2021.1.4,Win32,60.00960154,,,,,,,,,,,,,,,,,,,,,,,,,,,,,,,,,,,,,,,,0,10,10,10,1,maelstrom,slander,whirlpool,enmity,armor,majolica,2,,,,,,,,,,,,,,,,,,,,,,,,,,,,,,,,,,,,,,
,,,,,,,,,,,,,,,90269,001,2022-04-24_18h03.36.641,SPAMnetsValid,2021.1.4,Win32,60.00960154,,,,,,,,,,,,,,,,,,,,,,,,,,,,,,,,,,,,,,,,0,11,11,11,1,tentative,critical,conclusive,authentic,provisional,apprehensive,4,,,,,,,,,,,,,,,,,,,,,,,,,,,,,,,,,,,,,,
,,,,,,,,,,,,,,,90269,001,2022-04-24_18h03.36.641,SPAMnetsValid,2021.1.4,Win32,60.00960154,,,,,,,,,,,,,,,,,,,,,,,,,,,,,,,,,,,,,,,,0,12,12,12,1,placate,rehabilitate,plagiarize,depredate,apprise,conciliate,5,,,,,,,,,,,,,,,,,,,,,,,,,,,,,,,,,,,,,,
,,,,,,,,,,,,,,,90269,001,2022-04-24_18h03.36.641,SPAMnetsValid,2021.1.4,Win32,60.00960154,,,,,,,,,,,,,,,,,,,,,,,,,,,,,,,,,,,,,,,,0,13,13,13,1,surcease,enlightenment,cessation,inattention,censor,substitution,2,,,,,,,,,,,,,,,,,,,,,,,,,,,,,,,,,,,,,,
,,,,,,,,,,,,,,,90269,001,2022-04-24_18h03.36.641,SPAMnetsValid,2021.1.4,Win32,60.00960154,,,,,,,,,,,,,,,,,,,,,,,,,,,,,,,,,,,,,,,,0,14,14,14,1,apathetic,wandering,impassive,hateful,prophetic,overflowing,2,,,,,,,,,,,,,,,,,,,,,,,,,,,,,,,,,,,,,,
,,,,,,,,,,,,,,,90269,001,2022-04-24_18h03.36.641,SPAMnetsValid,2021.1.4,Win32,60.00960154,,,,,,,,,,,,,,,,,,,,,,,,,,,,,,,,,,,,,,,,0,15,15,15,1,paternoster,paternalism,patricide,malediction,benediction,prayer,5,,,,,,,,,,,,,,,,,,,,,,,,,,,,,,,,,,,,,,
,,,,,,,,,,,,,,,90269,001,2022-04-24_18h03.36.641,SPAMnetsValid,2021.1.4,Win32,60.00960154,,,,,,,,,,,,,,,,,,,,,,,,,,,,,,,,,,,,,,,,0,16,16,16,1,opalescence,opulence,senescence,bankruptcy,iridescence,assiduity,4,,,,,,,,,,,,,,,,,,,,,,,,,,,,,,,,,,,,,,
,,,,,,,,,,,,,,,90269,001,2022-04-24_18h03.36.641,SPAMnetsValid,2021.1.4,Win32,60.00960154,,,,,,,,,,,,,,,,,,,,,,,,,,,,,,,,,,,,,,,,0,17,17,17,1,lush,stupid,luxurious,hazy,putrid,languishing,2,,,,,,,,,,,,,,,,,,,,,,,,,,,,,,,,,,,,,,
,,,,,,,,,,,,,,,90269,001,2022-04-24_18h03.36.641,SPAMnetsValid,2021.1.4,Win32,60.00960154,,,,,,,,,,,,,,,,,,,,,,,,,,,,,,,,,,,,,,,,0,18,18,18,1,curtailment,expenditure,abandonment,abridgment,improvement,forgery,3,,,,,,,,,,,,,,,,,,,,,,,,,,,,,,,,,,,,,,
,,,,,,,,,,,,,,,90269,001,2022-04-24_18h03.36.641,SPAMnetsValid,2021.1.4,Win32,60.00960154,,,,,,,,,,,,,,,,,,,,,,,,,,,,,,,,,,,,,,,,0,19,19,19,1,perversity,adversity,perviousness,travesty,waywardness,gentility,4,,,,,,,,,,,,,,,,,,,,,,,,,,,,,,,,,,,,,,
,,,,,,,,,,,,,,,90269,001,2022-04-24_18h03.36.641,SPAMnetsValid,2021.1.4,Win32,60.00960154,,,,,,,,,,,,,,,,,,,,,,,,,,,,,,,,,,,,,,,,0,20,20,20,1,calumnious,complimentary,analogous,slanderous,tempestuous,magnanimous,3,,,,,,,,,,,,,,,,,,,,,,,,,,,,,,,,,,,,,,
,,,,,,,,,,,,,,,90269,001,2022-04-24_18h03.36.641,SPAMnetsValid,2021.1.4,Win32,60.00960154,,,,,,,,,,,,,,,,,,,,,,,,,,,,,,,,,,,,,,,,0,21,21,21,1,illiberality,bigotry,imbecility,illegibility,cautery,immaturity,1,,,,,,,,,,,,,,,,,,,,,,,,,,,,,,,,,,,,,,
,,,,,,,,,,,,,,,90269,001,2022-04-24_18h03.36.641,SPAMnetsValid,2021.1.4,Win32,60.00960154,,,,,,,,,,,,,,,,,,,,,,,,,,,,,,,,,,,,,,,,0,22,22,22,1,clabber,rejoice,gossip,curdle,crow,hobble,3,,,,,,,,,,,,,,,,,,,,,,,,,,,,,,,,,,,,,,
,,,,,,,,,,,,,,,90269,001,2022-04-24_18h03.36.641,SPAMnetsValid,2021.1.4,Win32,60.00960154,,,,,,,,,,,,,,,,,,,,,,,,,,,,,,,,,,,,,,,,0,23,23,23,1,sedulousness,diligence,credulousness,seduction,perilousness,frankness,1,,,,,,,,,,,,,,,,,,,,,,,,,,,,,,,,,,,,,,
,,,,,,,,,,,,,,,90269,001,2022-04-24_18h03.36.641,SPAMnetsValid,2021.1.4,Win32,60.00960154,,,,,,,,,,,,,,,,,,,,,,,,,,,,,,,,,,,,,,,,,,,,,,,,,,,,,pillow,0,0,0,0,1,,,,,,,,,,,,,,,,,,,,,,,,,,,,,,,
,,,,,,,,,,,,,,,90269,001,2022-04-24_18h03.36.641,SPAMnetsValid,2021.1.4,Win32,60.00960154,,,,,,,,,,,,,,,,,,,,,,,,,,,,,,,,,,,,,,,,,,,,,,,,,,,,,pillow,1,0,1,0,1,,,,,,,,,,,,,,,,,,,,,,,,,,,,,,,
,,,,,,,,,,,,,,,90269,001,2022-04-24_18h03.36.641,SPAMnetsValid,2021.1.4,Win32,60.00960154,,,,,,,,,,,,,,,,,,,,,,,,,,,,,,,,,,,,,,,,,,,,,,,,,,,,,pillow,2,0,2,0,1,,,,,,,,,,,,,,,,,,,,,,,,,,,,,,,
,,,,,,,,,,,,,,,90269,001,2022-04-24_18h03.36.641,SPAMnetsValid,2021.1.4,Win32,60.00960154,,,,,,,,,,,,,,,,,,,,,,,,,,,,,,,,,,,,,,,,,,,,,,,,,,,,,pillow,3,0,3,0,1,,,,,,,,,,,,,,,,,,,,,,,,,,,,,,,
,,,,,,,,,,,,,,,90269,001,2022-04-24_18h03.36.641,SPAMnetsValid,2021.1.4,Win32,60.00960154,,,,,,,,,,,,,,,,,,,,,,,,,,,,,,,,,,,,,,,,,,,,,,,,,,,,,pillow,4,0,4,0,1,,,,,,,,,,,,,,,,,,,,,,,,,,,,,,,
,,,,,,,,,,,,,,,90269,001,2022-04-24_18h03.36.641,SPAMnetsValid,2021.1.4,Win32,60.00960154,,,,,,,,,,,,,,,,,,,,,,,,,,,,,,,,,,,,,,,,,,,,,,,,,,,,,pillow,5,0,5,0,1,,,,,,,,,,,,,,,,,,,,,,,,,,,,,,,
,,,,,,,,,,,,,,,90269,001,2022-04-24_18h03.36.641,SPAMnetsValid,2021.1.4,Win32,60.00960154,,,,,,,,,,,,,,,,,,,,,,,,,,,,,,,,,,,,,,,,,,,,,,,,,,,,f,pillow,6,0,6,0,1,,,,,,,,,,,,,,,,,,,,,,,,,,,,,,,
,,,,,,,,,,,,,,,90269,001,2022-04-24_18h03.36.641,SPAMnetsValid,2021.1.4,Win32,60.00960154,,,,,,,,,,,,,,,,,,,,,,,,,,,,,,,,,,,,,,,,,,,,,,,,,,,,f,pillow,7,0,7,0,1,,,,,,,,,,,,,,,,,,,,,,,,,,,,,,,
,,,,,,,,,,,,,,,90269,001,2022-04-24_18h03.36.641,SPAMnetsValid,2021.1.4,Win32,60.00960154,,,,,,,,,,,,,,,,,,,,,,,,,,,,,,,,,,,,,,,,,,,,,,,,,,,,f,pillow,8,0,8,0,1,,,,,,,,,,,,,,,,,,,,,,,,,,,,,,,
,,,,,,,,,,,,,,,90269,001,2022-04-24_18h03.36.641,SPAMnetsValid,2021.1.4,Win32,60.00960154,,,,,,,,,,,,,,,,,,,,,,,,,,,,,,,,,,,,,,,,,,,,,,,,,,,,f,pillow,9,0,9,0,1,,,,,,,,,,,,,,,,,,,,,,,,,,,,,,,
,,,,,,,,,,,,,,,90269,001,2022-04-24_18h03.36.641,SPAMnetsValid,2021.1.4,Win32,60.00960154,,,,,,,,,,,,,,,,,,,,,,,,,,,,,,,,,,,,,,,,,,,,,,,,,,,,f,pillow,10,0,10,0,1,,,,,,,,,,,,,,,,,,,,,,,,,,,,,,,
,,,,,,,,,,,,,,,90269,001,2022-04-24_18h03.36.641,SPAMnetsValid,2021.1.4,Win32,60.00960154,,,,,,,,,,,,,,,,,,,,,,,,,,,,,,,,,,,,,,,,,,,,,,,,,,,,f,pillow,11,0,11,0,1,,,,,,,,,,,,,,,,,,,,,,,,,,,,,,,
,,,,,,,,,,,,,,,90269,001,2022-04-24_18h03.36.641,SPAMnetsValid,2021.1.4,Win32,60.00960154,,,,,,,,,,,,,,,,,,,,,,,,,,,,,,,,,,,,,,,,,,,,,,,,,,,,f,pillow,12,0,12,0,1,,,,,,,,,,,,,,,,,,,,,,,,,,,,,,,
,,,,,,,,,,,,,,,90269,001,2022-04-24_18h03.36.641,SPAMnetsValid,2021.1.4,Win32,60.00960154,,,,,,,,,,,,,,,,,,,,,,,,,,,,,,,,,,,,,,,,,,,,,,,,,,,,f,pillow,13,0,13,0,1,,,,,,,,,,,,,,,,,,,,,,,,,,,,,,,
,,,,,,,,,,,,,,,90269,001,2022-04-24_18h03.36.641,SPAMnetsValid,2021.1.4,Win32,60.00960154,,,,,,,,,,,,,,,,,,,,,,,,,,,,,,,,,,,,,,,,,,,,,,,,,,,,f,pillow,14,0,14,0,1,,,,,,,,,,,,,,,,,,,,,,,,,,,,,,,
,,,,,,,,,,,,,,,90269,001,2022-04-24_18h03.36.641,SPAMnetsValid,2021.1.4,Win32,60.00960154,,,,,,,,,,,,,,,,,,,,,,,,,,,,,,,,,,,,,,,,,,,,,,,,,,,,f,pillow,15,0,15,0,1,,,,,,,,,,,,,,,,,,,,,,,,,,,,,,,
,,,,,,,,,,,,,,,90269,001,2022-04-24_18h03.36.641,SPAMnetsValid,2021.1.4,Win32,60.00960154,,,,,,,,,,,,,,,,,,,,,,,,,,,,,,,,,,,,,,,,,,,,,,,,,,,,f,pillow,16,0,16,0,1,,,,,,,,,,,,,,,,,,,,,,,,,,,,,,,
,,,,,,,,,,,,,,,90269,001,2022-04-24_18h03.36.641,SPAMnetsValid,2021.1.4,Win32,60.00960154,,,,,,,,,,,,,,,,,,,,,,,,,,,,,,,,,,,,,,,,,,,,,,,,,,,,f,pillow,17,0,17,0,1,,,,,,,,,,,,,,,,,,,,,,,,,,,,,,,
,,,,,,,,,,,,,,,90269,001,2022-04-24_18h03.36.641,SPAMnetsValid,2021.1.4,Win32,60.00960154,,,,,,,,,,,,,,,,,,,,,,,,,,,,,,,,,,,,,,,,,,,,,,,,,,,,f,pillow,18,0,18,0,1,,,,,,,,,,,,,,,,,,,,,,,,,,,,,,,
,,,,,,,,,,,,,,,90269,001,2022-04-24_18h03.36.641,SPAMnetsValid,2021.1.4,Win32,60.00960154,,,,,,,,,,,,,,,,,,,,,,,,,,,,,,,,,,,,,,,,,,,,,,,,,,,,f,pillow,19,0,19,0,1,,,,,,,,,,,,,,,,,,,,,,,,,,,,,,,
,,,,,,,,,,,,,,,90269,001,2022-04-24_18h03.36.641,SPAMnetsValid,2021.1.4,Win32,60.00960154,,,,,,,,,,,,,,,,,,,,,,,,,,,,,,,,,,,,,,,,,,,,,,,,,,,,f,pillow,20,0,20,0,1,,,,,,,,,,,,,,,,,,,,,,,,,,,,,,,
,,,,,,,,,,,,,,,90269,001,2022-04-24_18h03.36.641,SPAMnetsValid,2021.1.4,Win32,60.00960154,,,,,,,,,,,,,,,,,,,,,,,,,,,,,,,,,,,,,,,,,,,,,,,,,,,,f,pillow,21,0,21,0,1,,,,,,,,,,,,,,,,,,,,,,,,,,,,,,,
,,,,,,,,,,,,,,,90269,001,2022-04-24_18h03.36.641,SPAMnetsValid,2021.1.4,Win32,60.00960154,,,,,,,,,,,,,,,,,,,,,,,,,,,,,,,,,,,,,,,,,,,,,,,,,,,,f,pillow,22,0,22,0,1,,,,,,,,,,,,,,,,,,,,,,,,,,,,,,,
,,,,,,,,,,,,,,,90269,001,2022-04-24_18h03.36.641,SPAMnetsValid,2021.1.4,Win32,60.00960154,,,,,,,,,,,,,,,,,,,,,,,,,,,,,,,,,,,,,,,,,,,,,,,,,,,,f,pillow,23,0,23,0,1,,,,,,,,,,,,,,,,,,,,,,,,,,,,,,,
,,,,,,,,,,,,,,,90269,001,2022-04-24_18h03.36.641,SPAMnetsValid,2021.1.4,Win32,60.00960154,,,,,,,,,,,,,,,,,,,,,,,,,,,,,,,,,,,,,,,,,,,,,,,,,,,,f,pillow,24,0,24,0,1,,,,,,,,,,,,,,,,,,,,,,,,,,,,,,,
,,,,,,,,,,,,,,,90269,001,2022-04-24_18h03.36.641,SPAMnetsValid,2021.1.4,Win32,60.00960154,,,,,,,,,,,,,,,,,,,,,,,,,,,,,,,,,,,,,,,,,,,,,,,,,,,,f,pillow,25,0,25,0,1,,,,,,,,,,,,,,,,,,,,,,,,,,,,,,,
,,,,,,,,,,,,,,,90269,001,2022-04-24_18h03.36.641,SPAMnetsValid,2021.1.4,Win32,60.00960154,,,,,,,,,,,,,,,,,,,,,,,,,,,,,,,,,,,,,,,,,,,,,,,,,,,,,pillow,26,0,26,0,1,,,,,,,,,,,,,,,,,,,,,,,,,,,,,,,
,,,,,,,,,,,,,,,90269,001,2022-04-24_18h03.36.641,SPAMnetsValid,2021.1.4,Win32,60.00960154,,,,,,,,,,,,,,,,,,,,,,,,,,,,,,,,,,,,,,,,,,,,,,,,,,,,f,pillow,27,0,27,0,1,,,,,,,,,,,,,,,,,,,,,,,,,,,,,,,
,,,,,,,,,,,,,,,90269,001,2022-04-24_18h03.36.641,SPAMnetsValid,2021.1.4,Win32,60.00960154,,,,,,,,,,,,,,,,,,,,,,,,,,,,,,,,,,,,,,,,,,,,,,,,,,,,f,pillow,28,0,28,0,1,,,,,,,,,,,,,,,,,,,,,,,,,,,,,,,
,,,,,,,,,,,,,,,90269,001,2022-04-24_18h03.36.641,SPAMnetsValid,2021.1.4,Win32,60.00960154,,,,,,,,,,,,,,,,,,,,,,,,,,,,,,,,,,,,,,,,,,,,,,,,,,,,f,pillow,29,0,29,0,1,,,,,,,,,,,,,,,,,,,,,,,,,,,,,,,
,,,,,,,,,,,,,,,90269,001,2022-04-24_18h03.36.641,SPAMnetsValid,2021.1.4,Win32,60.00960154,,,,,,,,,,,,,,,,,,,,,,,,,,,,,,,,,,,,,,,,,,,,,,,,,,,,,pillow,30,0,30,0,1,,,,,,,,,,,,,,,,,,,,,,,,,,,,,,,
,,,,,,,,,,,,,,,90269,001,2022-04-24_18h03.36.641,SPAMnetsValid,2021.1.4,Win32,60.00960154,,,,,,,,,,,,,,,,,,,,,,,,,,,,,,,,,,,,,,,,,,,,,,,,,,,,,pillow,31,0,31,0,1,,,,,,,,,,,,,,,,,,,,,,,,,,,,,,,
,,,,,,,,,,,,,,,90269,001,2022-04-24_18h03.36.641,SPAMnetsValid,2021.1.4,Win32,60.00960154,,,,,,,,,,,,,,,,,,,,,,,,,,,,,,,,,,,,,,,,,,,,,,,,,,,,,pillow,32,0,32,0,1,,,,,,,,,,,,,,,,,,,,,,,,,,,,,,,
,,,,,,,,,,,,,,,90269,001,2022-04-24_18h03.36.641,SPAMnetsValid,2021.1.4,Win32,60.00960154,,,,,,,,,,,,,,,,,,,,,,,,,,,,,,,,,,,,,,,,,,,,,,,,,,,,f,pillow,33,0,33,0,1,,,,,,,,,,,,,,,,,,,,,,,,,,,,,,,
,,,,,,,,,,,,,,,90269,001,2022-04-24_18h03.36.641,SPAMnetsValid,2021.1.4,Win32,60.00960154,,,,,,,,,,,,,,,,,,,,,,,,,,,,,,,,,,,,,,,,,,,,,,,,,,,,,pillow,34,0,34,0,1,,,,,,,,,,,,,,,,,,,,,,,,,,,,,,,
,,,,,,,,,,,,,,,90269,001,2022-04-24_18h03.36.641,SPAMnetsValid,2021.1.4,Win32,60.00960154,,,,,,,,,,,,,,,,,,,,,,,,,,,,,,,,,,,,,,,,,,,,,,,,,,,,,pillow,35,0,35,0,1,,,,,,,,,,,,,,,,,,,,,,,,,,,,,,,
,,,,,,,,,,,,,,,90269,001,2022-04-24_18h03.36.641,SPAMnetsValid,2021.1.4,Win32,60.00960154,,,,,,,,,,,,,,,,,,,,,,,,,,,,,,,,,,,,,,,,,,,,,,,,,,,,f,pillow,36,0,36,0,1,,,,,,,,,,,,,,,,,,,,,,,,,,,,,,,
,,,,,,,,,,,,,,,90269,001,2022-04-24_18h03.36.641,SPAMnetsValid,2021.1.4,Win32,60.00960154,,,,,,,,,,,,,,,,,,,,,,,,,,,,,,,,,,,,,,,,,,,,,,,,,,,,f,pillow,37,0,37,0,1,,,,,,,,,,,,,,,,,,,,,,,,,,,,,,,
,,,,,,,,,,,,,,,90269,001,2022-04-24_18h03.36.641,SPAMnetsValid,2021.1.4,Win32,60.00960154,,,,,,,,,,,,,,,,,,,,,,,,,,,,,,,,,,,,,,,,,,,,,,,,,,,,f,pillow,38,0,38,0,1,,,,,,,,,,,,,,,,,,,,,,,,,,,,,,,
,,,,,,,,,,,,,,,90269,001,2022-04-24_18h03.36.641,SPAMnetsValid,2021.1.4,Win32,60.00960154,,,,,,,,,,,,,,,,,,,,,,,,,,,,,,,,,,,,,,,,,,,,,,,,,,,,f,pillow,39,0,39,0,1,,,,,,,,,,,,,,,,,,,,,,,,,,,,,,,
,,,,,,,,,,,,,,,90269,001,2022-04-24_18h03.36.641,SPAMnetsValid,2021.1.4,Win32,60.00960154,,,,,,,,,,,,,,,,,,,,,,,,,,,,,,,,,,,,,,,,,,,,,,,,,,,,f,pillow,40,0,40,0,1,,,,,,,,,,,,,,,,,,,,,,,,,,,,,,,
,,,,,,,,,,,,,,,90269,001,2022-04-24_18h03.36.641,SPAMnetsValid,2021.1.4,Win32,60.00960154,,,,,,,,,,,,,,,,,,,,,,,,,,,,,,,,,,,,,,,,,,,,,,,,,,,,f,pillow,41,0,41,0,1,,,,,,,,,,,,,,,,,,,,,,,,,,,,,,,
,,,,,,,,,,,,,,,90269,001,2022-04-24_18h03.36.641,SPAMnetsValid,2021.1.4,Win32,60.00960154,,,,,,,,,,,,,,,,,,,,,,,,,,,,,,,,,,,,,,,,,,,,,,,,,,,,f,pillow,42,0,42,0,1,,,,,,,,,,,,,,,,,,,,,,,,,,,,,,,
,,,,,,,,,,,,,,,90269,001,2022-04-24_18h03.36.641,SPAMnetsValid,2021.1.4,Win32,60.00960154,,,,,,,,,,,,,,,,,,,,,,,,,,,,,,,,,,,,,,,,,,,,,,,,,,,,,pillow,43,0,43,0,1,,,,,,,,,,,,,,,,,,,,,,,,,,,,,,,
,,,,,,,,,,,,,,,90269,001,2022-04-24_18h03.36.641,SPAMnetsValid,2021.1.4,Win32,60.00960154,,,,,,,,,,,,,,,,,,,,,,,,,,,,,,,,,,,,,,,,,,,,,,,,,,,,,pillow,44,0,44,0,1,,,,,,,,,,,,,,,,,,,,,,,,,,,,,,,
,,,,,,,,,,,,,,,90269,001,2022-04-24_18h03.36.641,SPAMnetsValid,2021.1.4,Win32,60.00960154,,,,,,,,,,,,,,,,,,,,,,,,,,,,,,,,,,,,,,,,,,,,,,,,,,,,f,pillow,45,0,45,0,1,,,,,,,,,,,,,,,,,,,,,,,,,,,,,,,
,,,,,,,,,,,,,,,90269,001,2022-04-24_18h03.36.641,SPAMnetsValid,2021.1.4,Win32,60.00960154,,,,,,,,,,,,,,,,,,,,,,,,,,,,,,,,,,,,,,,,,,,,,,,,,,,,f,pillow,46,0,46,0,1,,,,,,,,,,,,,,,,,,,,,,,,,,,,,,,
,,,,,,,,,,,,,,,90269,001,2022-04-24_18h03.36.641,SPAMnetsValid,2021.1.4,Win32,60.00960154,,,,,,,,,,,,,,,,,,,,,,,,,,,,,,,,,,,,,,,,,,,,,,,,,,,,f,pillow,47,0,47,0,1,,,,,,,,,,,,,,,,,,,,,,,,,,,,,,,
,,,,,,,,,,,,,,,90269,001,2022-04-24_18h03.36.641,SPAMnetsValid,2021.1.4,Win32,60.00960154,,,,,,,,,,,,,,,,,,,,,,,,,,,,,,,,,,,,,,,,,,,,,,,,,,,,f,pillow,48,0,48,0,1,,,,,,,,,,,,,,,,,,,,,,,,,,,,,,,
,,,,,,,,,,,,,,,90269,001,2022-04-24_18h03.36.641,SPAMnetsValid,2021.1.4,Win32,60.00960154,,,,,,,,,,,,,,,,,,,,,,,,,,,,,,,,,,,,,,,,,,,,,,,,,,,,f,pillow,49,0,49,0,1,,,,,,,,,,,,,,,,,,,,,,,,,,,,,,,
,,,,,,,,,,,,,,,90269,001,2022-04-24_18h03.36.641,SPAMnetsValid,2021.1.4,Win32,60.00960154,,,,,,,,,,,,,,,,,,,,,,,,,,,,,,,,,,,,,,,,,,,,,,,,,,,,f,pillow,50,0,50,0,1,,,,,,,,,,,,,,,,,,,,,,,,,,,,,,,
,,,,,,,,,,,,,,,90269,001,2022-04-24_18h03.36.641,SPAMnetsValid,2021.1.4,Win32,60.00960154,,,,,,,,,,,,,,,,,,,,,,,,,,,,,,,,,,,,,,,,,,,,,,,,,,,,f,pillow,51,0,51,0,1,,,,,,,,,,,,,,,,,,,,,,,,,,,,,,,
,,,,,,,,,,,,,,,90269,001,2022-04-24_18h03.36.641,SPAMnetsValid,2021.1.4,Win32,60.00960154,,,,,,,,,,,,,,,,,,,,,,,,,,,,,,,,,,,,,,,,,,,,,,,,,,,,f,pillow,52,0,52,0,1,,,,,,,,,,,,,,,,,,,,,,,,,,,,,,,
,,,,,,,,,,,,,,,90269,001,2022-04-24_18h03.36.641,SPAMnetsValid,2021.1.4,Win32,60.00960154,,,,,,,,,,,,,,,,,,,,,,,,,,,,,,,,,,,,,,,,,,,,,,,,,,,,f,pillow,53,0,53,0,1,,,,,,,,,,,,,,,,,,,,,,,,,,,,,,,
,,,,,,,,,,,,,,,90269,001,2022-04-24_18h03.36.641,SPAMnetsValid,2021.1.4,Win32,60.00960154,,,,,,,,,,,,,,,,,,,,,,,,,,,,,,,,,,,,,,,,,,,,,,,,,,,,f,pillow,54,0,54,0,1,,,,,,,,,,,,,,,,,,,,,,,,,,,,,,,
,,,,,,,,,,,,,,,90269,001,2022-04-24_18h03.36.641,SPAMnetsValid,2021.1.4,Win32,60.00960154,,,,,,,,,,,,,,,,,,,,,,,,,,,,,,,,,,,,,,,,,,,,,,,,,,,,f,pillow,55,0,55,0,1,,,,,,,,,,,,,,,,,,,,,,,,,,,,,,,
,,,,,,,,,,,,,,,90269,001,2022-04-24_18h03.36.641,SPAMnetsValid,2021.1.4,Win32,60.00960154,,,,,,,,,,,,,,,,,,,,,,,,,,,,,,,,,,,,,,,,,,,,,,,,,,,,f,pillow,56,0,56,0,1,,,,,,,,,,,,,,,,,,,,,,,,,,,,,,,
,,,,,,,,,,,,,,,90269,001,2022-04-24_18h03.36.641,SPAMnetsValid,2021.1.4,Win32,60.00960154,,,,,,,,,,,,,,,,,,,,,,,,,,,,,,,,,,,,,,,,,,,,,,,,,,,,f,pillow,57,0,57,0,1,,,,,,,,,,,,,,,,,,,,,,,,,,,,,,,
,,,,,,,,,,,,,,,90269,001,2022-04-24_18h03.36.641,SPAMnetsValid,2021.1.4,Win32,60.00960154,,,,,,,,,,,,,,,,,,,,,,,,,,,,,,,,,,,,,,,,,,,,,,,,,,,,f,pillow,58,0,58,0,1,,,,,,,,,,,,,,,,,,,,,,,,,,,,,,,
,,,,,,,,,,,,,,,90269,001,2022-04-24_18h03.36.641,SPAMnetsValid,2021.1.4,Win32,60.00960154,,,,,,,,,,,,,,,,,,,,,,,,,,,,,,,,,,,,,,,,,,,,,,,,,,,,f,pillow,59,0,59,0,1,,,,,,,,,,,,,,,,,,,,,,,,,,,,,,,
,,,,,,,,,,,,,,,90269,001,2022-04-24_18h03.36.641,SPAMnetsValid,2021.1.4,Win32,60.00960154,,,,,,,,,,,,,,,,,,,,,,,,,,,,,,,,,,,,,,,,,,,,,,,,,,,,f,pillow,60,0,60,0,1,,,,,,,,,,,,,,,,,,,,,,,,,,,,,,,
,,,,,,,,,,,,,,,90269,001,2022-04-24_18h03.36.641,SPAMnetsValid,2021.1.4,Win32,60.00960154,,,,,,,,,,,,,,,,,,,,,,,,,,,,,,,,,,,,,,,,,,,,,,,,,,,,f,pillow,61,0,61,0,1,,,,,,,,,,,,,,,,,,,,,,,,,,,,,,,
,,,,,,,,,,,,,,,90269,001,2022-04-24_18h03.36.641,SPAMnetsValid,2021.1.4,Win32,60.00960154,,,,,,,,,,,,,,,,,,,,,,,,,,,,,,,,,,,,,,,,,,,,,,,,,,,,,pillow,62,0,62,0,1,,,,,,,,,,,,,,,,,,,,,,,,,,,,,,,
,,,,,,,,,,,,,,,90269,001,2022-04-24_18h03.36.641,SPAMnetsValid,2021.1.4,Win32,60.00960154,,,,,,,,,,,,,,,,,,,,,,,,,,,,,,,,,,,,,,,,,,,,,,,,,,,,,pillow,63,0,63,0,1,,,,,,,,,,,,,,,,,,,,,,,,,,,,,,,
,,,,,,,,,,,,,,,90269,001,2022-04-24_18h03.36.641,SPAMnetsValid,2021.1.4,Win32,60.00960154,,,,,,,,,,,,,,,,,,,,,,,,,,,,,,,,,,,,,,,,,,,,,,,,,,,,fffffffffffff,pillow,64,0,64,0,1,,,,,,,,,,,,,,,,,,,,,,,,,,,,,,,
,,,,,,,,,,,,,,,90269,001,2022-04-24_18h03.36.641,SPAMnetsValid,2021.1.4,Win32,60.00960154,,,,,,,,,,,,,,,,,,,,,,,,,,,,,,,,,,,,,,,,,,,,,,,,,,,,,pillow,65,0,65,0,1,,,,,,,,,,,,,,,,,,,,,,,,,,,,,,,
,,,,,,,,,,,,,,,90269,001,2022-04-24_18h03.36.641,SPAMnetsValid,2021.1.4,Win32,60.00960154,,,,,,,,,,,,,,,,,,,,,,,,,,,,,,,,,,,,,,,,,,,,,,,,,,,,fffffffff,pillow,66,0,66,0,1,,,,,,,,,,,,,,,,,,,,,,,,,,,,,,,
,,,,,,,,,,,,,,,90269,001,2022-04-24_18h03.36.641,SPAMnetsValid,2021.1.4,Win32,60.00960154,,,,,,,,,,,,,,,,,,,,,,,,,,,,,,,,,,,,,,,,,,,,,,,,,,,,fffffffff,pillow,67,0,67,0,1,,,,,,,,,,,,,,,,,,,,,,,,,,,,,,,
,,,,,,,,,,,,,,,90269,001,2022-04-24_18h03.36.641,SPAMnetsValid,2021.1.4,Win32,60.00960154,,,,,,,,,,,,,,,,,,,,,,,,,,,,,,,,,,,,,,,,,,,,,,,,,,,,fffffff,pillow,68,0,68,0,1,,,,,,,,,,,,,,,,,,,,,,,,,,,,,,,
,,,,,,,,,,,,,,,90269,001,2022-04-24_18h03.36.641,SPAMnetsValid,2021.1.4,Win32,60.00960154,,,,,,,,,,,,,,,,,,,,,,,,,,,,,,,,,,,,,,,,,,,,,,,,,,,,ffffff,pillow,69,0,69,0,1,,,,,,,,,,,,,,,,,,,,,,,,,,,,,,,
,,,,,,,,,,,,,,,90269,001,2022-04-24_18h03.36.641,SPAMnetsValid,2021.1.4,Win32,60.00960154,,,,,,,,,,,,,,,,,,,,,,,,,,,,,,,,,,,,,,,,,,,,,,,,,,,,ffffff,pillow,70,0,70,0,1,,,,,,,,,,,,,,,,,,,,,,,,,,,,,,,
,,,,,,,,,,,,,,,90269,001,2022-04-24_18h03.36.641,SPAMnetsValid,2021.1.4,Win32,60.00960154,,,,,,,,,,,,,,,,,,,,,,,,,,,,,,,,,,,,,,,,,,,,,,,,,,,,ff,pillow,71,0,71,0,1,,,,,,,,,,,,,,,,,,,,,,,,,,,,,,,
,,,,,,,,,,,,,,,90269,001,2022-04-24_18h03.36.641,SPAMnetsValid,2021.1.4,Win32,60.00960154,,,,,,,,,,,,,,,,,,,,,,,,,,,,,,,,,,,,,,,,,,,,,,,,,,,,f,pillow,72,0,72,0,1,,,,,,,,,,,,,,,,,,,,,,,,,,,,,,,
,,,,,,,,,,,,,,,90269,001,2022-04-24_18h03.36.641,SPAMnetsValid,2021.1.4,Win32,60.00960154,,,,,,,,,,,,,,,,,,,,,,,,,,,,,,,,,,,,,,,,,,,,,,,,,,,,f,pillow,73,0,73,0,1,,,,,,,,,,,,,,,,,,,,,,,,,,,,,,,
,,,,,,,,,,,,,,,90269,001,2022-04-24_18h03.36.641,SPAMnetsValid,2021.1.4,Win32,60.00960154,,,,,,,,,,,,,,,,,,,,,,,,,,,,,,,,,,,,,,,,,,,,,,,,,,,,f,pillow,74,0,74,0,1,,,,,,,,,,,,,,,,,,,,,,,,,,,,,,,
,,,,,,,,,,,,,,,90269,001,2022-04-24_18h03.36.641,SPAMnetsValid,2021.1.4,Win32,60.00960154,,,,,,,,,,,,,,,,,,,,,,,,,,,,,,,,,,,,,,,,,,,,,,,,,,,,f,pillow,75,0,75,0,1,,,,,,,,,,,,,,,,,,,,,,,,,,,,,,,
,,,,,,,,,,,,,,,90269,001,2022-04-24_18h03.36.641,SPAMnetsValid,2021.1.4,Win32,60.00960154,,,,,,,,,,,,,,,,,,,,,,,,,,,,,,,,,,,,,,,,,,,,,,,,,,,,f,pillow,76,0,76,0,1,,,,,,,,,,,,,,,,,,,,,,,,,,,,,,,
,,,,,,,,,,,,,,,90269,001,2022-04-24_18h03.36.641,SPAMnetsValid,2021.1.4,Win32,60.00960154,,,,,,,,,,,,,,,,,,,,,,,,,,,,,,,,,,,,,,,,,,,,,,,,,,,,f,pillow,77,0,77,0,1,,,,,,,,,,,,,,,,,,,,,,,,,,,,,,,
,,,,,,,,,,,,,,,90269,001,2022-04-24_18h03.36.641,SPAMnetsValid,2021.1.4,Win32,60.00960154,,,,,,,,,,,,,,,,,,,,,,,,,,,,,,,,,,,,,,,,,,,,,,,,,,,,f,pillow,78,0,78,0,1,,,,,,,,,,,,,,,,,,,,,,,,,,,,,,,
,,,,,,,,,,,,,,,90269,001,2022-04-24_18h03.36.641,SPAMnetsValid,2021.1.4,Win32,60.00960154,,,,,,,,,,,,,,,,,,,,,,,,,,,,,,,,,,,,,,,,,,,,,,,,,,,,f,pillow,79,0,79,0,1,,,,,,,,,,,,,,,,,,,,,,,,,,,,,,,
,,,,,,,,,,,,,,,90269,001,2022-04-24_18h03.36.641,SPAMnetsValid,2021.1.4,Win32,60.00960154,,,,,,,,,,,,,,,,,,,,,,,,,,,,,,,,,,,,,,,,,,,,,,,,,,,,,pillow,80,0,80,0,1,,,,,,,,,,,,,,,,,,,,,,,,,,,,,,,
,,,,,,,,,,,,,,,90269,001,2022-04-24_18h03.36.641,SPAMnetsValid,2021.1.4,Win32,60.00960154,,,,,,,,,,,,,,,,,,,,,,,,,,,,,,,,,,,,,,,,,,,,,,,,,,,,,pillow,81,0,81,0,1,,,,,,,,,,,,,,,,,,,,,,,,,,,,,,,
,,,,,,,,,,,,,,,90269,001,2022-04-24_18h03.36.641,SPAMnetsValid,2021.1.4,Win32,60.00960154,,,,,,,,,,,,,,,,,,,,,,,,,,,,,,,,,,,,,,,,,,,,,,,,,,,,,pillow,82,0,82,0,1,,,,,,,,,,,,,,,,,,,,,,,,,,,,,,,
,,,,,,,,,,,,,,,90269,001,2022-04-24_18h03.36.641,SPAMnetsValid,2021.1.4,Win32,60.00960154,,,,,,,,,,,,,,,,,,,,,,,,,,,,,,,,,,,,,,,,,,,,,,,,,,,,f,pillow,83,0,83,0,1,,,,,,,,,,,,,,,,,,,,,,,,,,,,,,,
,,,,,,,,,,,,,,,90269,001,2022-04-24_18h03.36.641,SPAMnetsValid,2021.1.4,Win32,60.00960154,,,,,,,,,,,,,,,,,,,,,,,,,,,,,,,,,,,,,,,,,,,,,,,,,,,,,pillow,84,0,84,0,1,,,,,,,,,,,,,,,,,,,,,,,,,,,,,,,
,,,,,,,,,,,,,,,90269,001,2022-04-24_18h03.36.641,SPAMnetsValid,2021.1.4,Win32,60.00960154,,,,,,,,,,,,,,,,,,,,,,,,,,,,,,,,,,,,,,,,,,,,,,,,,,,,f,pillow,85,0,85,0,1,,,,,,,,,,,,,,,,,,,,,,,,,,,,,,,
,,,,,,,,,,,,,,,90269,001,2022-04-24_18h03.36.641,SPAMnetsValid,2021.1.4,Win32,60.00960154,,,,,,,,,,,,,,,,,,,,,,,,,,,,,,,,,,,,,,,,,,,,,,,,,,,,f,pillow,86,0,86,0,1,,,,,,,,,,,,,,,,,,,,,,,,,,,,,,,
,,,,,,,,,,,,,,,90269,001,2022-04-24_18h03.36.641,SPAMnetsValid,2021.1.4,Win32,60.00960154,,,,,,,,,,,,,,,,,,,,,,,,,,,,,,,,,,,,,,,,,,,,,,,,,,,,f,pillow,87,0,87,0,1,,,,,,,,,,,,,,,,,,,,,,,,,,,,,,,
,,,,,,,,,,,,,,,90269,001,2022-04-24_18h03.36.641,SPAMnetsValid,2021.1.4,Win32,60.00960154,,,,,,,,,,,,,,,,,,,,,,,,,,,,,,,,,,,,,,,,,,,,,,,,,,,,f,pillow,88,0,88,0,1,,,,,,,,,,,,,,,,,,,,,,,,,,,,,,,
,,,,,,,,,,,,,,,90269,001,2022-04-24_18h03.36.641,SPAMnetsValid,2021.1.4,Win32,60.00960154,,,,,,,,,,,,,,,,,,,,,,,,,,,,,,,,,,,,,,,,,,,,,,,,,,,,f,pillow,89,0,89,0,1,,,,,,,,,,,,,,,,,,,,,,,,,,,,,,,
,,,,,,,,,,,,,,,90269,001,2022-04-24_18h03.36.641,SPAMnetsValid,2021.1.4,Win32,60.00960154,,,,,,,,,,,,,,,,,,,,,,,,,,,,,,,,,,,,,,,,,,,,,,,,,,,,fff,pillow,90,0,90,0,1,,,,,,,,,,,,,,,,,,,,,,,,,,,,,,,
,,,,,,,,,,,,,,,90269,001,2022-04-24_18h03.36.641,SPAMnetsValid,2021.1.4,Win32,60.00960154,,,,,,,,,,,,,,,,,,,,,,,,,,,,,,,,,,,,,,,,,,,,,,,,,,,,f,pillow,91,0,91,0,1,,,,,,,,,,,,,,,,,,,,,,,,,,,,,,,
,,,,,,,,,,,,,,,90269,001,2022-04-24_18h03.36.641,SPAMnetsValid,2021.1.4,Win32,60.00960154,,,,,,,,,,,,,,,,,,,,,,,,,,,,,,,,,,,,,,,,,,,,,,,,,,,,f,pillow,92,0,92,0,1,,,,,,,,,,,,,,,,,,,,,,,,,,,,,,,
,,,,,,,,,,,,,,,90269,001,2022-04-24_18h03.36.641,SPAMnetsValid,2021.1.4,Win32,60.00960154,,,,,,,,,,,,,,,,,,,,,,,,,,,,,,,,,,,,,,,,,,,,,,,,,,,,,pillow,93,0,93,0,1,,,,,,,,,,,,,,,,,,,,,,,,,,,,,,,
,,,,,,,,,,,,,,,90269,001,2022-04-24_18h03.36.641,SPAMnetsValid,2021.1.4,Win32,60.00960154,,,,,,,,,,,,,,,,,,,,,,,,,,,,,,,,,,,,,,,,,,,,,,,,,,,,f,pillow,94,0,94,0,1,,,,,,,,,,,,,,,,,,,,,,,,,,,,,,,
,,,,,,,,,,,,,,,90269,001,2022-04-24_18h03.36.641,SPAMnetsValid,2021.1.4,Win32,60.00960154,,,,,,,,,,,,,,,,,,,,,,,,,,,,,,,,,,,,,,,,,,,,,,,,,,,,f,pillow,95,0,95,0,1,,,,,,,,,,,,,,,,,,,,,,,,,,,,,,,
,,,,,,,,,,,,,,,90269,001,2022-04-24_18h03.36.641,SPAMnetsValid,2021.1.4,Win32,60.00960154,,,,,,,,,,,,,,,,,,,,,,,,,,,,,,,,,,,,,,,,,,,,,,,,,,,,f,pillow,96,0,96,0,1,,,,,,,,,,,,,,,,,,,,,,,,,,,,,,,
,,,,,,,,,,,,,,,90269,001,2022-04-24_18h03.36.641,SPAMnetsValid,2021.1.4,Win32,60.00960154,,,,,,,,,,,,,,,,,,,,,,,,,,,,,,,,,,,,,,,,,,,,,,,,,,,,f,pillow,97,0,97,0,1,,,,,,,,,,,,,,,,,,,,,,,,,,,,,,,
,,,,,,,,,,,,,,,90269,001,2022-04-24_18h03.36.641,SPAMnetsValid,2021.1.4,Win32,60.00960154,,,,,,,,,,,,,,,,,,,,,,,,,,,,,,,,,,,,,,,,,,,,,,,,,,,,,pillow,98,0,98,0,1,,,,,,,,,,,,,,,,,,,,,,,,,,,,,,,
,,,,,,,,,,,,,,,90269,001,2022-04-24_18h03.36.641,SPAMnetsValid,2021.1.4,Win32,60.00960154,,,,,,,,,,,,,,,,,,,,,,,,,,,,,,,,,,,,,,,,,,,,,,,,,,,,,,,,,,,0,0,0,2,1,pillow,,,,,,,,,,,,,,,,,,,,,,,,,
,,,,,,,,,,,,,,,90269,001,2022-04-24_18h03.36.641,SPAMnetsValid,2021.1.4,Win32,60.00960154,,,,,,,,,,,,,,,,,,,,,,,,,,,,,,,,,,,,,,,,,,,,,,,,,,,,,bucket,0,0,0,0,1,,,,,,,,,,,,,,,,,,,,,,,,,,,,,,,
,,,,,,,,,,,,,,,90269,001,2022-04-24_18h03.36.641,SPAMnetsValid,2021.1.4,Win32,60.00960154,,,,,,,,,,,,,,,,,,,,,,,,,,,,,,,,,,,,,,,,,,,,,,,,,,,,,bucket,1,0,1,0,1,,,,,,,,,,,,,,,,,,,,,,,,,,,,,,,
,,,,,,,,,,,,,,,90269,001,2022-04-24_18h03.36.641,SPAMnetsValid,2021.1.4,Win32,60.00960154,,,,,,,,,,,,,,,,,,,,,,,,,,,,,,,,,,,,,,,,,,,,,,,,,,,,,bucket,2,0,2,0,1,,,,,,,,,,,,,,,,,,,,,,,,,,,,,,,
,,,,,,,,,,,,,,,90269,001,2022-04-24_18h03.36.641,SPAMnetsValid,2021.1.4,Win32,60.00960154,,,,,,,,,,,,,,,,,,,,,,,,,,,,,,,,,,,,,,,,,,,,,,,,,,,,f,bucket,3,0,3,0,1,,,,,,,,,,,,,,,,,,,,,,,,,,,,,,,
,,,,,,,,,,,,,,,90269,001,2022-04-24_18h03.36.641,SPAMnetsValid,2021.1.4,Win32,60.00960154,,,,,,,,,,,,,,,,,,,,,,,,,,,,,,,,,,,,,,,,,,,,,,,,,,,,f,bucket,4,0,4,0,1,,,,,,,,,,,,,,,,,,,,,,,,,,,,,,,
,,,,,,,,,,,,,,,90269,001,2022-04-24_18h03.36.641,SPAMnetsValid,2021.1.4,Win32,60.00960154,,,,,,,,,,,,,,,,,,,,,,,,,,,,,,,,,,,,,,,,,,,,,,,,,,,,f,bucket,5,0,5,0,1,,,,,,,,,,,,,,,,,,,,,,,,,,,,,,,
,,,,,,,,,,,,,,,90269,001,2022-04-24_18h03.36.641,SPAMnetsValid,2021.1.4,Win32,60.00960154,,,,,,,,,,,,,,,,,,,,,,,,,,,,,,,,,,,,,,,,,,,,,,,,,,,,f,bucket,6,0,6,0,1,,,,,,,,,,,,,,,,,,,,,,,,,,,,,,,
,,,,,,,,,,,,,,,90269,001,2022-04-24_18h03.36.641,SPAMnetsValid,2021.1.4,Win32,60.00960154,,,,,,,,,,,,,,,,,,,,,,,,,,,,,,,,,,,,,,,,,,,,,,,,,,,,,bucket,7,0,7,0,1,,,,,,,,,,,,,,,,,,,,,,,,,,,,,,,
,,,,,,,,,,,,,,,90269,001,2022-04-24_18h03.36.641,SPAMnetsValid,2021.1.4,Win32,60.00960154,,,,,,,,,,,,,,,,,,,,,,,,,,,,,,,,,,,,,,,,,,,,,,,,,,,,f,bucket,8,0,8,0,1,,,,,,,,,,,,,,,,,,,,,,,,,,,,,,,
,,,,,,,,,,,,,,,90269,001,2022-04-24_18h03.36.641,SPAMnetsValid,2021.1.4,Win32,60.00960154,,,,,,,,,,,,,,,,,,,,,,,,,,,,,,,,,,,,,,,,,,,,,,,,,,,,,bucket,9,0,9,0,1,,,,,,,,,,,,,,,,,,,,,,,,,,,,,,,
,,,,,,,,,,,,,,,90269,001,2022-04-24_18h03.36.641,SPAMnetsValid,2021.1.4,Win32,60.00960154,,,,,,,,,,,,,,,,,,,,,,,,,,,,,,,,,,,,,,,,,,,,,,,,,,,,,bucket,10,0,10,0,1,,,,,,,,,,,,,,,,,,,,,,,,,,,,,,,
,,,,,,,,,,,,,,,90269,001,2022-04-24_18h03.36.641,SPAMnetsValid,2021.1.4,Win32,60.00960154,,,,,,,,,,,,,,,,,,,,,,,,,,,,,,,,,,,,,,,,,,,,,,,,,,,,,bucket,11,0,11,0,1,,,,,,,,,,,,,,,,,,,,,,,,,,,,,,,
,,,,,,,,,,,,,,,90269,001,2022-04-24_18h03.36.641,SPAMnetsValid,2021.1.4,Win32,60.00960154,,,,,,,,,,,,,,,,,,,,,,,,,,,,,,,,,,,,,,,,,,,,,,,,,,,,,bucket,12,0,12,0,1,,,,,,,,,,,,,,,,,,,,,,,,,,,,,,,
,,,,,,,,,,,,,,,90269,001,2022-04-24_18h03.36.641,SPAMnetsValid,2021.1.4,Win32,60.00960154,,,,,,,,,,,,,,,,,,,,,,,,,,,,,,,,,,,,,,,,,,,,,,,,,,,,,bucket,13,0,13,0,1,,,,,,,,,,,,,,,,,,,,,,,,,,,,,,,
,,,,,,,,,,,,,,,90269,001,2022-04-24_18h03.36.641,SPAMnetsValid,2021.1.4,Win32,60.00960154,,,,,,,,,,,,,,,,,,,,,,,,,,,,,,,,,,,,,,,,,,,,,,,,,,,,f,bucket,14,0,14,0,1,,,,,,,,,,,,,,,,,,,,,,,,,,,,,,,
,,,,,,,,,,,,,,,90269,001,2022-04-24_18h03.36.641,SPAMnetsValid,2021.1.4,Win32,60.00960154,,,,,,,,,,,,,,,,,,,,,,,,,,,,,,,,,,,,,,,,,,,,,,,,,,,,fffffffffffffffffffaacvvvvvvvvvvvvvvvvvvvvvvvvvvvvvvvvvvvvvvvv,bucket,15,0,15,0,1,,,,,,,,,,,,,,,,,,,,,,,,,,,,,,,
,,,,,,,,,,,,,,,90269,001,2022-04-24_18h03.36.641,SPAMnetsValid,2021.1.4,Win32,60.00960154,,,,,,,,,,,,,,,,,,,,,,,,,,,,,,,,,,,,,,,,,,,,,,,,,,,,,bucket,16,0,16,0,1,,,,,,,,,,,,,,,,,,,,,,,,,,,,,,,
,,,,,,,,,,,,,,,90269,001,2022-04-24_18h03.36.641,SPAMnetsValid,2021.1.4,Win32,60.00960154,,,,,,,,,,,,,,,,,,,,,,,,,,,,,,,,,,,,,,,,,,,,,,,,,,,,v,bucket,17,0,17,0,1,,,,,,,,,,,,,,,,,,,,,,,,,,,,,,,
,,,,,,,,,,,,,,,90269,001,2022-04-24_18h03.36.641,SPAMnetsValid,2021.1.4,Win32,60.00960154,,,,,,,,,,,,,,,,,,,,,,,,,,,,,,,,,,,,,,,,,,,,,,,,,,,,v,bucket,18,0,18,0,1,,,,,,,,,,,,,,,,,,,,,,,,,,,,,,,
,,,,,,,,,,,,,,,90269,001,2022-04-24_18h03.36.641,SPAMnetsValid,2021.1.4,Win32,60.00960154,,,,,,,,,,,,,,,,,,,,,,,,,,,,,,,,,,,,,,,,,,,,,,,,,,,,v,bucket,19,0,19,0,1,,,,,,,,,,,,,,,,,,,,,,,,,,,,,,,
,,,,,,,,,,,,,,,90269,001,2022-04-24_18h03.36.641,SPAMnetsValid,2021.1.4,Win32,60.00960154,,,,,,,,,,,,,,,,,,,,,,,,,,,,,,,,,,,,,,,,,,,,,,,,,,,,v,bucket,20,0,20,0,1,,,,,,,,,,,,,,,,,,,,,,,,,,,,,,,
,,,,,,,,,,,,,,,90269,001,2022-04-24_18h03.36.641,SPAMnetsValid,2021.1.4,Win32,60.00960154,,,,,,,,,,,,,,,,,,,,,,,,,,,,,,,,,,,,,,,,,,,,,,,,,,,,v,bucket,21,0,21,0,1,,,,,,,,,,,,,,,,,,,,,,,,,,,,,,,
,,,,,,,,,,,,,,,90269,001,2022-04-24_18h03.36.641,SPAMnetsValid,2021.1.4,Win32,60.00960154,,,,,,,,,,,,,,,,,,,,,,,,,,,,,,,,,,,,,,,,,,,,,,,,,,,,,bucket,22,0,22,0,1,,,,,,,,,,,,,,,,,,,,,,,,,,,,,,,
,,,,,,,,,,,,,,,90269,001,2022-04-24_18h03.36.641,SPAMnetsValid,2021.1.4,Win32,60.00960154,,,,,,,,,,,,,,,,,,,,,,,,,,,,,,,,,,,,,,,,,,,,,,,,,,,,,bucket,23,0,23,0,1,,,,,,,,,,,,,,,,,,,,,,,,,,,,,,,
,,,,,,,,,,,,,,,90269,001,2022-04-24_18h03.36.641,SPAMnetsValid,2021.1.4,Win32,60.00960154,,,,,,,,,,,,,,,,,,,,,,,,,,,,,,,,,,,,,,,,,,,,,,,,,,,,v,bucket,24,0,24,0,1,,,,,,,,,,,,,,,,,,,,,,,,,,,,,,,
,,,,,,,,,,,,,,,90269,001,2022-04-24_18h03.36.641,SPAMnetsValid,2021.1.4,Win32,60.00960154,,,,,,,,,,,,,,,,,,,,,,,,,,,,,,,,,,,,,,,,,,,,,,,,,,,,,bucket,25,0,25,0,1,,,,,,,,,,,,,,,,,,,,,,,,,,,,,,,
,,,,,,,,,,,,,,,90269,001,2022-04-24_18h03.36.641,SPAMnetsValid,2021.1.4,Win32,60.00960154,,,,,,,,,,,,,,,,,,,,,,,,,,,,,,,,,,,,,,,,,,,,,,,,,,,,,bucket,26,0,26,0,1,,,,,,,,,,,,,,,,,,,,,,,,,,,,,,,
,,,,,,,,,,,,,,,90269,001,2022-04-24_18h03.36.641,SPAMnetsValid,2021.1.4,Win32,60.00960154,,,,,,,,,,,,,,,,,,,,,,,,,,,,,,,,,,,,,,,,,,,,,,,,,,,,,bucket,27,0,27,0,1,,,,,,,,,,,,,,,,,,,,,,,,,,,,,,,
,,,,,,,,,,,,,,,90269,001,2022-04-24_18h03.36.641,SPAMnetsValid,2021.1.4,Win32,60.00960154,,,,,,,,,,,,,,,,,,,,,,,,,,,,,,,,,,,,,,,,,,,,,,,,,,,,v,bucket,28,0,28,0,1,,,,,,,,,,,,,,,,,,,,,,,,,,,,,,,
,,,,,,,,,,,,,,,90269,001,2022-04-24_18h03.36.641,SPAMnetsValid,2021.1.4,Win32,60.00960154,,,,,,,,,,,,,,,,,,,,,,,,,,,,,,,,,,,,,,,,,,,,,,,,,,,,,bucket,29,0,29,0,1,,,,,,,,,,,,,,,,,,,,,,,,,,,,,,,
,,,,,,,,,,,,,,,90269,001,2022-04-24_18h03.36.641,SPAMnetsValid,2021.1.4,Win32,60.00960154,,,,,,,,,,,,,,,,,,,,,,,,,,,,,,,,,,,,,,,,,,,,,,,,,,,,v,bucket,30,0,30,0,1,,,,,,,,,,,,,,,,,,,,,,,,,,,,,,,
,,,,,,,,,,,,,,,90269,001,2022-04-24_18h03.36.641,SPAMnetsValid,2021.1.4,Win32,60.00960154,,,,,,,,,,,,,,,,,,,,,,,,,,,,,,,,,,,,,,,,,,,,,,,,,,,,v,bucket,31,0,31,0,1,,,,,,,,,,,,,,,,,,,,,,,,,,,,,,,
,,,,,,,,,,,,,,,90269,001,2022-04-24_18h03.36.641,SPAMnetsValid,2021.1.4,Win32,60.00960154,,,,,,,,,,,,,,,,,,,,,,,,,,,,,,,,,,,,,,,,,,,,,,,,,,,,v,bucket,32,0,32,0,1,,,,,,,,,,,,,,,,,,,,,,,,,,,,,,,
,,,,,,,,,,,,,,,90269,001,2022-04-24_18h03.36.641,SPAMnetsValid,2021.1.4,Win32,60.00960154,,,,,,,,,,,,,,,,,,,,,,,,,,,,,,,,,,,,,,,,,,,,,,,,,,,,v,bucket,33,0,33,0,1,,,,,,,,,,,,,,,,,,,,,,,,,,,,,,,
,,,,,,,,,,,,,,,90269,001,2022-04-24_18h03.36.641,SPAMnetsValid,2021.1.4,Win32,60.00960154,,,,,,,,,,,,,,,,,,,,,,,,,,,,,,,,,,,,,,,,,,,,,,,,,,,,v,bucket,34,0,34,0,1,,,,,,,,,,,,,,,,,,,,,,,,,,,,,,,
,,,,,,,,,,,,,,,90269,001,2022-04-24_18h03.36.641,SPAMnetsValid,2021.1.4,Win32,60.00960154,,,,,,,,,,,,,,,,,,,,,,,,,,,,,,,,,,,,,,,,,,,,,,,,,,,,,bucket,35,0,35,0,1,,,,,,,,,,,,,,,,,,,,,,,,,,,,,,,
,,,,,,,,,,,,,,,90269,001,2022-04-24_18h03.36.641,SPAMnetsValid,2021.1.4,Win32,60.00960154,,,,,,,,,,,,,,,,,,,,,,,,,,,,,,,,,,,,,,,,,,,,,,,,,,,,,bucket,36,0,36,0,1,,,,,,,,,,,,,,,,,,,,,,,,,,,,,,,
,,,,,,,,,,,,,,,90269,001,2022-04-24_18h03.36.641,SPAMnetsValid,2021.1.4,Win32,60.00960154,,,,,,,,,,,,,,,,,,,,,,,,,,,,,,,,,,,,,,,,,,,,,,,,,,,,v,bucket,37,0,37,0,1,,,,,,,,,,,,,,,,,,,,,,,,,,,,,,,
,,,,,,,,,,,,,,,90269,001,2022-04-24_18h03.36.641,SPAMnetsValid,2021.1.4,Win32,60.00960154,,,,,,,,,,,,,,,,,,,,,,,,,,,,,,,,,,,,,,,,,,,,,,,,,,,,v,bucket,38,0,38,0,1,,,,,,,,,,,,,,,,,,,,,,,,,,,,,,,
,,,,,,,,,,,,,,,90269,001,2022-04-24_18h03.36.641,SPAMnetsValid,2021.1.4,Win32,60.00960154,,,,,,,,,,,,,,,,,,,,,,,,,,,,,,,,,,,,,,,,,,,,,,,,,,,,v,bucket,39,0,39,0,1,,,,,,,,,,,,,,,,,,,,,,,,,,,,,,,
,,,,,,,,,,,,,,,90269,001,2022-04-24_18h03.36.641,SPAMnetsValid,2021.1.4,Win32,60.00960154,,,,,,,,,,,,,,,,,,,,,,,,,,,,,,,,,,,,,,,,,,,,,,,,,,,,v,bucket,40,0,40,0,1,,,,,,,,,,,,,,,,,,,,,,,,,,,,,,,
,,,,,,,,,,,,,,,90269,001,2022-04-24_18h03.36.641,SPAMnetsValid,2021.1.4,Win32,60.00960154,,,,,,,,,,,,,,,,,,,,,,,,,,,,,,,,,,,,,,,,,,,,,,,,,,,,v,bucket,41,0,41,0,1,,,,,,,,,,,,,,,,,,,,,,,,,,,,,,,
,,,,,,,,,,,,,,,90269,001,2022-04-24_18h03.36.641,SPAMnetsValid,2021.1.4,Win32,60.00960154,,,,,,,,,,,,,,,,,,,,,,,,,,,,,,,,,,,,,,,,,,,,,,,,,,,,v,bucket,42,0,42,0,1,,,,,,,,,,,,,,,,,,,,,,,,,,,,,,,
,,,,,,,,,,,,,,,90269,001,2022-04-24_18h03.36.641,SPAMnetsValid,2021.1.4,Win32,60.00960154,,,,,,,,,,,,,,,,,,,,,,,,,,,,,,,,,,,,,,,,,,,,,,,,,,,,v,bucket,43,0,43,0,1,,,,,,,,,,,,,,,,,,,,,,,,,,,,,,,
,,,,,,,,,,,,,,,90269,001,2022-04-24_18h03.36.641,SPAMnetsValid,2021.1.4,Win32,60.00960154,,,,,,,,,,,,,,,,,,,,,,,,,,,,,,,,,,,,,,,,,,,,,,,,,,,,v,bucket,44,0,44,0,1,,,,,,,,,,,,,,,,,,,,,,,,,,,,,,,
,,,,,,,,,,,,,,,90269,001,2022-04-24_18h03.36.641,SPAMnetsValid,2021.1.4,Win32,60.00960154,,,,,,,,,,,,,,,,,,,,,,,,,,,,,,,,,,,,,,,,,,,,,,,,,,,,v,bucket,45,0,45,0,1,,,,,,,,,,,,,,,,,,,,,,,,,,,,,,,
,,,,,,,,,,,,,,,90269,001,2022-04-24_18h03.36.641,SPAMnetsValid,2021.1.4,Win32,60.00960154,,,,,,,,,,,,,,,,,,,,,,,,,,,,,,,,,,,,,,,,,,,,,,,,,,,,v,bucket,46,0,46,0,1,,,,,,,,,,,,,,,,,,,,,,,,,,,,,,,
,,,,,,,,,,,,,,,90269,001,2022-04-24_18h03.36.641,SPAMnetsValid,2021.1.4,Win32,60.00960154,,,,,,,,,,,,,,,,,,,,,,,,,,,,,,,,,,,,,,,,,,,,,,,,,,,,v,bucket,47,0,47,0,1,,,,,,,,,,,,,,,,,,,,,,,,,,,,,,,
,,,,,,,,,,,,,,,90269,001,2022-04-24_18h03.36.641,SPAMnetsValid,2021.1.4,Win32,60.00960154,,,,,,,,,,,,,,,,,,,,,,,,,,,,,,,,,,,,,,,,,,,,,,,,,,,,v,bucket,48,0,48,0,1,,,,,,,,,,,,,,,,,,,,,,,,,,,,,,,
,,,,,,,,,,,,,,,90269,001,2022-04-24_18h03.36.641,SPAMnetsValid,2021.1.4,Win32,60.00960154,,,,,,,,,,,,,,,,,,,,,,,,,,,,,,,,,,,,,,,,,,,,,,,,,,,,v,bucket,49,0,49,0,1,,,,,,,,,,,,,,,,,,,,,,,,,,,,,,,
,,,,,,,,,,,,,,,90269,001,2022-04-24_18h03.36.641,SPAMnetsValid,2021.1.4,Win32,60.00960154,,,,,,,,,,,,,,,,,,,,,,,,,,,,,,,,,,,,,,,,,,,,,,,,,,,,v,bucket,50,0,50,0,1,,,,,,,,,,,,,,,,,,,,,,,,,,,,,,,
,,,,,,,,,,,,,,,90269,001,2022-04-24_18h03.36.641,SPAMnetsValid,2021.1.4,Win32,60.00960154,,,,,,,,,,,,,,,,,,,,,,,,,,,,,,,,,,,,,,,,,,,,,,,,,,,,v,bucket,51,0,51,0,1,,,,,,,,,,,,,,,,,,,,,,,,,,,,,,,
,,,,,,,,,,,,,,,90269,001,2022-04-24_18h03.36.641,SPAMnetsValid,2021.1.4,Win32,60.00960154,,,,,,,,,,,,,,,,,,,,,,,,,,,,,,,,,,,,,,,,,,,,,,,,,,,,,bucket,52,0,52,0,1,,,,,,,,,,,,,,,,,,,,,,,,,,,,,,,
,,,,,,,,,,,,,,,90269,001,2022-04-24_18h03.36.641,SPAMnetsValid,2021.1.4,Win32,60.00960154,,,,,,,,,,,,,,,,,,,,,,,,,,,,,,,,,,,,,,,,,,,,,,,,,,,,v,bucket,53,0,53,0,1,,,,,,,,,,,,,,,,,,,,,,,,,,,,,,,
,,,,,,,,,,,,,,,90269,001,2022-04-24_18h03.36.641,SPAMnetsValid,2021.1.4,Win32,60.00960154,,,,,,,,,,,,,,,,,,,,,,,,,,,,,,,,,,,,,,,,,,,,,,,,,,,,v,bucket,54,0,54,0,1,,,,,,,,,,,,,,,,,,,,,,,,,,,,,,,
,,,,,,,,,,,,,,,90269,001,2022-04-24_18h03.36.641,SPAMnetsValid,2021.1.4,Win32,60.00960154,,,,,,,,,,,,,,,,,,,,,,,,,,,,,,,,,,,,,,,,,,,,,,,,,,,,v,bucket,55,0,55,0,1,,,,,,,,,,,,,,,,,,,,,,,,,,,,,,,
,,,,,,,,,,,,,,,90269,001,2022-04-24_18h03.36.641,SPAMnetsValid,2021.1.4,Win32,60.00960154,,,,,,,,,,,,,,,,,,,,,,,,,,,,,,,,,,,,,,,,,,,,,,,,,,,,v,bucket,56,0,56,0,1,,,,,,,,,,,,,,,,,,,,,,,,,,,,,,,
,,,,,,,,,,,,,,,90269,001,2022-04-24_18h03.36.641,SPAMnetsValid,2021.1.4,Win32,60.00960154,,,,,,,,,,,,,,,,,,,,,,,,,,,,,,,,,,,,,,,,,,,,,,,,,,,,v,bucket,57,0,57,0,1,,,,,,,,,,,,,,,,,,,,,,,,,,,,,,,
,,,,,,,,,,,,,,,90269,001,2022-04-24_18h03.36.641,SPAMnetsValid,2021.1.4,Win32,60.00960154,,,,,,,,,,,,,,,,,,,,,,,,,,,,,,,,,,,,,,,,,,,,,,,,,,,,v,bucket,58,0,58,0,1,,,,,,,,,,,,,,,,,,,,,,,,,,,,,,,
,,,,,,,,,,,,,,,90269,001,2022-04-24_18h03.36.641,SPAMnetsValid,2021.1.4,Win32,60.00960154,,,,,,,,,,,,,,,,,,,,,,,,,,,,,,,,,,,,,,,,,,,,,,,,,,,,v,bucket,59,0,59,0,1,,,,,,,,,,,,,,,,,,,,,,,,,,,,,,,
,,,,,,,,,,,,,,,90269,001,2022-04-24_18h03.36.641,SPAMnetsValid,2021.1.4,Win32,60.00960154,,,,,,,,,,,,,,,,,,,,,,,,,,,,,,,,,,,,,,,,,,,,,,,,,,,,v,bucket,60,0,60,0,1,,,,,,,,,,,,,,,,,,,,,,,,,,,,,,,
,,,,,,,,,,,,,,,90269,001,2022-04-24_18h03.36.641,SPAMnetsValid,2021.1.4,Win32,60.00960154,,,,,,,,,,,,,,,,,,,,,,,,,,,,,,,,,,,,,,,,,,,,,,,,,,,,v,bucket,61,0,61,0,1,,,,,,,,,,,,,,,,,,,,,,,,,,,,,,,
,,,,,,,,,,,,,,,90269,001,2022-04-24_18h03.36.641,SPAMnetsValid,2021.1.4,Win32,60.00960154,,,,,,,,,,,,,,,,,,,,,,,,,,,,,,,,,,,,,,,,,,,,,,,,,,,,,bucket,62,0,62,0,1,,,,,,,,,,,,,,,,,,,,,,,,,,,,,,,
,,,,,,,,,,,,,,,90269,001,2022-04-24_18h03.36.641,SPAMnetsValid,2021.1.4,Win32,60.00960154,,,,,,,,,,,,,,,,,,,,,,,,,,,,,,,,,,,,,,,,,,,,,,,,,,,,v,bucket,63,0,63,0,1,,,,,,,,,,,,,,,,,,,,,,,,,,,,,,,
,,,,,,,,,,,,,,,90269,001,2022-04-24_18h03.36.641,SPAMnetsValid,2021.1.4,Win32,60.00960154,,,,,,,,,,,,,,,,,,,,,,,,,,,,,,,,,,,,,,,,,,,,,,,,,,,,v,bucket,64,0,64,0,1,,,,,,,,,,,,,,,,,,,,,,,,,,,,,,,
,,,,,,,,,,,,,,,90269,001,2022-04-24_18h03.36.641,SPAMnetsValid,2021.1.4,Win32,60.00960154,,,,,,,,,,,,,,,,,,,,,,,,,,,,,,,,,,,,,,,,,,,,,,,,,,,,,bucket,65,0,65,0,1,,,,,,,,,,,,,,,,,,,,,,,,,,,,,,,
,,,,,,,,,,,,,,,90269,001,2022-04-24_18h03.36.641,SPAMnetsValid,2021.1.4,Win32,60.00960154,,,,,,,,,,,,,,,,,,,,,,,,,,,,,,,,,,,,,,,,,,,,,,,,,,,,v,bucket,66,0,66,0,1,,,,,,,,,,,,,,,,,,,,,,,,,,,,,,,
,,,,,,,,,,,,,,,90269,001,2022-04-24_18h03.36.641,SPAMnetsValid,2021.1.4,Win32,60.00960154,,,,,,,,,,,,,,,,,,,,,,,,,,,,,,,,,,,,,,,,,,,,,,,,,,,,v,bucket,67,0,67,0,1,,,,,,,,,,,,,,,,,,,,,,,,,,,,,,,
,,,,,,,,,,,,,,,90269,001,2022-04-24_18h03.36.641,SPAMnetsValid,2021.1.4,Win32,60.00960154,,,,,,,,,,,,,,,,,,,,,,,,,,,,,,,,,,,,,,,,,,,,,,,,,,,,v,bucket,68,0,68,0,1,,,,,,,,,,,,,,,,,,,,,,,,,,,,,,,
,,,,,,,,,,,,,,,90269,001,2022-04-24_18h03.36.641,SPAMnetsValid,2021.1.4,Win32,60.00960154,,,,,,,,,,,,,,,,,,,,,,,,,,,,,,,,,,,,,,,,,,,,,,,,,,,,v,bucket,69,0,69,0,1,,,,,,,,,,,,,,,,,,,,,,,,,,,,,,,
,,,,,,,,,,,,,,,90269,001,2022-04-24_18h03.36.641,SPAMnetsValid,2021.1.4,Win32,60.00960154,,,,,,,,,,,,,,,,,,,,,,,,,,,,,,,,,,,,,,,,,,,,,,,,,,,,v,bucket,70,0,70,0,1,,,,,,,,,,,,,,,,,,,,,,,,,,,,,,,
,,,,,,,,,,,,,,,90269,001,2022-04-24_18h03.36.641,SPAMnetsValid,2021.1.4,Win32,60.00960154,,,,,,,,,,,,,,,,,,,,,,,,,,,,,,,,,,,,,,,,,,,,,,,,,,,,v,bucket,71,0,71,0,1,,,,,,,,,,,,,,,,,,,,,,,,,,,,,,,
,,,,,,,,,,,,,,,90269,001,2022-04-24_18h03.36.641,SPAMnetsValid,2021.1.4,Win32,60.00960154,,,,,,,,,,,,,,,,,,,,,,,,,,,,,,,,,,,,,,,,,,,,,,,,,,,,v,bucket,72,0,72,0,1,,,,,,,,,,,,,,,,,,,,,,,,,,,,,,,
,,,,,,,,,,,,,,,90269,001,2022-04-24_18h03.36.641,SPAMnetsValid,2021.1.4,Win32,60.00960154,,,,,,,,,,,,,,,,,,,,,,,,,,,,,,,,,,,,,,,,,,,,,,,,,,,,v,bucket,73,0,73,0,1,,,,,,,,,,,,,,,,,,,,,,,,,,,,,,,
,,,,,,,,,,,,,,,90269,001,2022-04-24_18h03.36.641,SPAMnetsValid,2021.1.4,Win32,60.00960154,,,,,,,,,,,,,,,,,,,,,,,,,,,,,,,,,,,,,,,,,,,,,,,,,,,,v,bucket,74,0,74,0,1,,,,,,,,,,,,,,,,,,,,,,,,,,,,,,,
,,,,,,,,,,,,,,,90269,001,2022-04-24_18h03.36.641,SPAMnetsValid,2021.1.4,Win32,60.00960154,,,,,,,,,,,,,,,,,,,,,,,,,,,,,,,,,,,,,,,,,,,,,,,,,,,,v,bucket,75,0,75,0,1,,,,,,,,,,,,,,,,,,,,,,,,,,,,,,,
,,,,,,,,,,,,,,,90269,001,2022-04-24_18h03.36.641,SPAMnetsValid,2021.1.4,Win32,60.00960154,,,,,,,,,,,,,,,,,,,,,,,,,,,,,,,,,,,,,,,,,,,,,,,,,,,,v,bucket,76,0,76,0,1,,,,,,,,,,,,,,,,,,,,,,,,,,,,,,,
,,,,,,,,,,,,,,,90269,001,2022-04-24_18h03.36.641,SPAMnetsValid,2021.1.4,Win32,60.00960154,,,,,,,,,,,,,,,,,,,,,,,,,,,,,,,,,,,,,,,,,,,,,,,,,,,,v,bucket,77,0,77,0,1,,,,,,,,,,,,,,,,,,,,,,,,,,,,,,,
,,,,,,,,,,,,,,,90269,001,2022-04-24_18h03.36.641,SPAMnetsValid,2021.1.4,Win32,60.00960154,,,,,,,,,,,,,,,,,,,,,,,,,,,,,,,,,,,,,,,,,,,,,,,,,,,,v,bucket,78,0,78,0,1,,,,,,,,,,,,,,,,,,,,,,,,,,,,,,,
,,,,,,,,,,,,,,,90269,001,2022-04-24_18h03.36.641,SPAMnetsValid,2021.1.4,Win32,60.00960154,,,,,,,,,,,,,,,,,,,,,,,,,,,,,,,,,,,,,,,,,,,,,,,,,,,,v,bucket,79,0,79,0,1,,,,,,,,,,,,,,,,,,,,,,,,,,,,,,,
,,,,,,,,,,,,,,,90269,001,2022-04-24_18h03.36.641,SPAMnetsValid,2021.1.4,Win32,60.00960154,,,,,,,,,,,,,,,,,,,,,,,,,,,,,,,,,,,,,,,,,,,,,,,,,,,,v,bucket,80,0,80,0,1,,,,,,,,,,,,,,,,,,,,,,,,,,,,,,,
,,,,,,,,,,,,,,,90269,001,2022-04-24_18h03.36.641,SPAMnetsValid,2021.1.4,Win32,60.00960154,,,,,,,,,,,,,,,,,,,,,,,,,,,,,,,,,,,,,,,,,,,,,,,,,,,,v,bucket,81,0,81,0,1,,,,,,,,,,,,,,,,,,,,,,,,,,,,,,,
,,,,,,,,,,,,,,,90269,001,2022-04-24_18h03.36.641,SPAMnetsValid,2021.1.4,Win32,60.00960154,,,,,,,,,,,,,,,,,,,,,,,,,,,,,,,,,,,,,,,,,,,,,,,,,,,,v,bucket,82,0,82,0,1,,,,,,,,,,,,,,,,,,,,,,,,,,,,,,,
,,,,,,,,,,,,,,,90269,001,2022-04-24_18h03.36.641,SPAMnetsValid,2021.1.4,Win32,60.00960154,,,,,,,,,,,,,,,,,,,,,,,,,,,,,,,,,,,,,,,,,,,,,,,,,,,,v,bucket,83,0,83,0,1,,,,,,,,,,,,,,,,,,,,,,,,,,,,,,,
,,,,,,,,,,,,,,,90269,001,2022-04-24_18h03.36.641,SPAMnetsValid,2021.1.4,Win32,60.00960154,,,,,,,,,,,,,,,,,,,,,,,,,,,,,,,,,,,,,,,,,,,,,,,,,,,,v,bucket,84,0,84,0,1,,,,,,,,,,,,,,,,,,,,,,,,,,,,,,,
,,,,,,,,,,,,,,,90269,001,2022-04-24_18h03.36.641,SPAMnetsValid,2021.1.4,Win32,60.00960154,,,,,,,,,,,,,,,,,,,,,,,,,,,,,,,,,,,,,,,,,,,,,,,,,,,,v,bucket,85,0,85,0,1,,,,,,,,,,,,,,,,,,,,,,,,,,,,,,,
,,,,,,,,,,,,,,,90269,001,2022-04-24_18h03.36.641,SPAMnetsValid,2021.1.4,Win32,60.00960154,,,,,,,,,,,,,,,,,,,,,,,,,,,,,,,,,,,,,,,,,,,,,,,,,,,,v,bucket,86,0,86,0,1,,,,,,,,,,,,,,,,,,,,,,,,,,,,,,,
,,,,,,,,,,,,,,,90269,001,2022-04-24_18h03.36.641,SPAMnetsValid,2021.1.4,Win32,60.00960154,,,,,,,,,,,,,,,,,,,,,,,,,,,,,,,,,,,,,,,,,,,,,,,,,,,,v,bucket,87,0,87,0,1,,,,,,,,,,,,,,,,,,,,,,,,,,,,,,,
,,,,,,,,,,,,,,,90269,001,2022-04-24_18h03.36.641,SPAMnetsValid,2021.1.4,Win32,60.00960154,,,,,,,,,,,,,,,,,,,,,,,,,,,,,,,,,,,,,,,,,,,,,,,,,,,,v,bucket,88,0,88,0,1,,,,,,,,,,,,,,,,,,,,,,,,,,,,,,,
,,,,,,,,,,,,,,,90269,001,2022-04-24_18h03.36.641,SPAMnetsValid,2021.1.4,Win32,60.00960154,,,,,,,,,,,,,,,,,,,,,,,,,,,,,,,,,,,,,,,,,,,,,,,,,,,,v,bucket,89,0,89,0,1,,,,,,,,,,,,,,,,,,,,,,,,,,,,,,,
,,,,,,,,,,,,,,,90269,001,2022-04-24_18h03.36.641,SPAMnetsValid,2021.1.4,Win32,60.00960154,,,,,,,,,,,,,,,,,,,,,,,,,,,,,,,,,,,,,,,,,,,,,,,,,,,,v,bucket,90,0,90,0,1,,,,,,,,,,,,,,,,,,,,,,,,,,,,,,,
,,,,,,,,,,,,,,,90269,001,2022-04-24_18h03.36.641,SPAMnetsValid,2021.1.4,Win32,60.00960154,,,,,,,,,,,,,,,,,,,,,,,,,,,,,,,,,,,,,,,,,,,,,,,,,,,,,bucket,91,0,91,0,1,,,,,,,,,,,,,,,,,,,,,,,,,,,,,,,
,,,,,,,,,,,,,,,90269,001,2022-04-24_18h03.36.641,SPAMnetsValid,2021.1.4,Win32,60.00960154,,,,,,,,,,,,,,,,,,,,,,,,,,,,,,,,,,,,,,,,,,,,,,,,,,,,,bucket,92,0,92,0,1,,,,,,,,,,,,,,,,,,,,,,,,,,,,,,,
,,,,,,,,,,,,,,,90269,001,2022-04-24_18h03.36.641,SPAMnetsValid,2021.1.4,Win32,60.00960154,,,,,,,,,,,,,,,,,,,,,,,,,,,,,,,,,,,,,,,,,,,,,,,,,,,,v,bucket,93,0,93,0,1,,,,,,,,,,,,,,,,,,,,,,,,,,,,,,,
,,,,,,,,,,,,,,,90269,001,2022-04-24_18h03.36.641,SPAMnetsValid,2021.1.4,Win32,60.00960154,,,,,,,,,,,,,,,,,,,,,,,,,,,,,,,,,,,,,,,,,,,,,,,,,,,,,bucket,94,0,94,0,1,,,,,,,,,,,,,,,,,,,,,,,,,,,,,,,
,,,,,,,,,,,,,,,90269,001,2022-04-24_18h03.36.641,SPAMnetsValid,2021.1.4,Win32,60.00960154,,,,,,,,,,,,,,,,,,,,,,,,,,,,,,,,,,,,,,,,,,,,,,,,,,,,,bucket,95,0,95,0,1,,,,,,,,,,,,,,,,,,,,,,,,,,,,,,,
,,,,,,,,,,,,,,,90269,001,2022-04-24_18h03.36.641,SPAMnetsValid,2021.1.4,Win32,60.00960154,,,,,,,,,,,,,,,,,,,,,,,,,,,,,,,,,,,,,,,,,,,,,,,,,,,,,bucket,96,0,96,0,1,,,,,,,,,,,,,,,,,,,,,,,,,,,,,,,
,,,,,,,,,,,,,,,90269,001,2022-04-24_18h03.36.641,SPAMnetsValid,2021.1.4,Win32,60.00960154,,,,,,,,,,,,,,,,,,,,,,,,,,,,,,,,,,,,,,,,,,,,,,,,,,,,,bucket,97,0,97,0,1,,,,,,,,,,,,,,,,,,,,,,,,,,,,,,,
,,,,,,,,,,,,,,,90269,001,2022-04-24_18h03.36.641,SPAMnetsValid,2021.1.4,Win32,60.00960154,,,,,,,,,,,,,,,,,,,,,,,,,,,,,,,,,,,,,,,,,,,,,,,,,,,,,bucket,98,0,98,0,1,,,,,,,,,,,,,,,,,,,,,,,,,,,,,,,
,,,,,,,,,,,,,,,90269,001,2022-04-24_18h03.36.641,SPAMnetsValid,2021.1.4,Win32,60.00960154,,,,,,,,,,,,,,,,,,,,,,,,,,,,,,,,,,,,,,,,,,,,,,,,,,,,,,,,,,,0,1,1,0,1,bucket,,,,,,,,,,,,,,,,,,,,,,,,,
,,,,,,,,,,,,,,,90269,001,2022-04-24_18h03.36.641,SPAMnetsValid,2021.1.4,Win32,60.00960154,,,,,,,,,,,,,,,,,,,,,,,,,,,,,,,,,,,,,,,,,,,,,,,,,,,,,candle,0,0,0,0,1,,,,,,,,,,,,,,,,,,,,,,,,,,,,,,,
,,,,,,,,,,,,,,,90269,001,2022-04-24_18h03.36.641,SPAMnetsValid,2021.1.4,Win32,60.00960154,,,,,,,,,,,,,,,,,,,,,,,,,,,,,,,,,,,,,,,,,,,,,,,,,,,,,candle,1,0,1,0,1,,,,,,,,,,,,,,,,,,,,,,,,,,,,,,,
,,,,,,,,,,,,,,,90269,001,2022-04-24_18h03.36.641,SPAMnetsValid,2021.1.4,Win32,60.00960154,,,,,,,,,,,,,,,,,,,,,,,,,,,,,,,,,,,,,,,,,,,,,,,,,,,,,candle,2,0,2,0,1,,,,,,,,,,,,,,,,,,,,,,,,,,,,,,,
,,,,,,,,,,,,,,,90269,001,2022-04-24_18h03.36.641,SPAMnetsValid,2021.1.4,Win32,60.00960154,,,,,,,,,,,,,,,,,,,,,,,,,,,,,,,,,,,,,,,,,,,,,,,,,,,,,candle,3,0,3,0,1,,,,,,,,,,,,,,,,,,,,,,,,,,,,,,,
,,,,,,,,,,,,,,,90269,001,2022-04-24_18h03.36.641,SPAMnetsValid,2021.1.4,Win32,60.00960154,,,,,,,,,,,,,,,,,,,,,,,,,,,,,,,,,,,,,,,,,,,,,,,,,,,,,candle,4,0,4,0,1,,,,,,,,,,,,,,,,,,,,,,,,,,,,,,,
,,,,,,,,,,,,,,,90269,001,2022-04-24_18h03.36.641,SPAMnetsValid,2021.1.4,Win32,60.00960154,,,,,,,,,,,,,,,,,,,,,,,,,,,,,,,,,,,,,,,,,,,,,,,,,,,,,candle,5,0,5,0,1,,,,,,,,,,,,,,,,,,,,,,,,,,,,,,,
,,,,,,,,,,,,,,,90269,001,2022-04-24_18h03.36.641,SPAMnetsValid,2021.1.4,Win32,60.00960154,,,,,,,,,,,,,,,,,,,,,,,,,,,,,,,,,,,,,,,,,,,,,,,,,,,,,candle,6,0,6,0,1,,,,,,,,,,,,,,,,,,,,,,,,,,,,,,,
,,,,,,,,,,,,,,,90269,001,2022-04-24_18h03.36.641,SPAMnetsValid,2021.1.4,Win32,60.00960154,,,,,,,,,,,,,,,,,,,,,,,,,,,,,,,,,,,,,,,,,,,,,,,,,,,,,candle,7,0,7,0,1,,,,,,,,,,,,,,,,,,,,,,,,,,,,,,,
,,,,,,,,,,,,,,,90269,001,2022-04-24_18h03.36.641,SPAMnetsValid,2021.1.4,Win32,60.00960154,,,,,,,,,,,,,,,,,,,,,,,,,,,,,,,,,,,,,,,,,,,,,,,,,,,,,candle,8,0,8,0,1,,,,,,,,,,,,,,,,,,,,,,,,,,,,,,,
,,,,,,,,,,,,,,,90269,001,2022-04-24_18h03.36.641,SPAMnetsValid,2021.1.4,Win32,60.00960154,,,,,,,,,,,,,,,,,,,,,,,,,,,,,,,,,,,,,,,,,,,,,,,,,,,,,candle,9,0,9,0,1,,,,,,,,,,,,,,,,,,,,,,,,,,,,,,,
,,,,,,,,,,,,,,,90269,001,2022-04-24_18h03.36.641,SPAMnetsValid,2021.1.4,Win32,60.00960154,,,,,,,,,,,,,,,,,,,,,,,,,,,,,,,,,,,,,,,,,,,,,,,,,,,,,candle,10,0,10,0,1,,,,,,,,,,,,,,,,,,,,,,,,,,,,,,,
,,,,,,,,,,,,,,,90269,001,2022-04-24_18h03.36.641,SPAMnetsValid,2021.1.4,Win32,60.00960154,,,,,,,,,,,,,,,,,,,,,,,,,,,,,,,,,,,,,,,,,,,,,,,,,,,,,candle,11,0,11,0,1,,,,,,,,,,,,,,,,,,,,,,,,,,,,,,,
,,,,,,,,,,,,,,,90269,001,2022-04-24_18h03.36.641,SPAMnetsValid,2021.1.4,Win32,60.00960154,,,,,,,,,,,,,,,,,,,,,,,,,,,,,,,,,,,,,,,,,,,,,,,,,,,,,candle,12,0,12,0,1,,,,,,,,,,,,,,,,,,,,,,,,,,,,,,,
,,,,,,,,,,,,,,,90269,001,2022-04-24_18h03.36.641,SPAMnetsValid,2021.1.4,Win32,60.00960154,,,,,,,,,,,,,,,,,,,,,,,,,,,,,,,,,,,,,,,,,,,,,,,,,,,,,candle,13,0,13,0,1,,,,,,,,,,,,,,,,,,,,,,,,,,,,,,,
,,,,,,,,,,,,,,,90269,001,2022-04-24_18h03.36.641,SPAMnetsValid,2021.1.4,Win32,60.00960154,,,,,,,,,,,,,,,,,,,,,,,,,,,,,,,,,,,,,,,,,,,,,,,,,,,,,candle,14,0,14,0,1,,,,,,,,,,,,,,,,,,,,,,,,,,,,,,,
,,,,,,,,,,,,,,,90269,001,2022-04-24_18h03.36.641,SPAMnetsValid,2021.1.4,Win32,60.00960154,,,,,,,,,,,,,,,,,,,,,,,,,,,,,,,,,,,,,,,,,,,,,,,,,,,,,candle,15,0,15,0,1,,,,,,,,,,,,,,,,,,,,,,,,,,,,,,,
,,,,,,,,,,,,,,,90269,001,2022-04-24_18h03.36.641,SPAMnetsValid,2021.1.4,Win32,60.00960154,,,,,,,,,,,,,,,,,,,,,,,,,,,,,,,,,,,,,,,,,,,,,,,,,,,,,candle,16,0,16,0,1,,,,,,,,,,,,,,,,,,,,,,,,,,,,,,,
,,,,,,,,,,,,,,,90269,001,2022-04-24_18h03.36.641,SPAMnetsValid,2021.1.4,Win32,60.00960154,,,,,,,,,,,,,,,,,,,,,,,,,,,,,,,,,,,,,,,,,,,,,,,,,,,,,candle,17,0,17,0,1,,,,,,,,,,,,,,,,,,,,,,,,,,,,,,,
,,,,,,,,,,,,,,,90269,001,2022-04-24_18h03.36.641,SPAMnetsValid,2021.1.4,Win32,60.00960154,,,,,,,,,,,,,,,,,,,,,,,,,,,,,,,,,,,,,,,,,,,,,,,,,,,,,candle,18,0,18,0,1,,,,,,,,,,,,,,,,,,,,,,,,,,,,,,,
,,,,,,,,,,,,,,,90269,001,2022-04-24_18h03.36.641,SPAMnetsValid,2021.1.4,Win32,60.00960154,,,,,,,,,,,,,,,,,,,,,,,,,,,,,,,,,,,,,,,,,,,,,,,,,,,,,candle,19,0,19,0,1,,,,,,,,,,,,,,,,,,,,,,,,,,,,,,,
,,,,,,,,,,,,,,,90269,001,2022-04-24_18h03.36.641,SPAMnetsValid,2021.1.4,Win32,60.00960154,,,,,,,,,,,,,,,,,,,,,,,,,,,,,,,,,,,,,,,,,,,,,,,,,,,,,candle,20,0,20,0,1,,,,,,,,,,,,,,,,,,,,,,,,,,,,,,,
,,,,,,,,,,,,,,,90269,001,2022-04-24_18h03.36.641,SPAMnetsValid,2021.1.4,Win32,60.00960154,,,,,,,,,,,,,,,,,,,,,,,,,,,,,,,,,,,,,,,,,,,,,,,,,,,,,candle,21,0,21,0,1,,,,,,,,,,,,,,,,,,,,,,,,,,,,,,,
,,,,,,,,,,,,,,,90269,001,2022-04-24_18h03.36.641,SPAMnetsValid,2021.1.4,Win32,60.00960154,,,,,,,,,,,,,,,,,,,,,,,,,,,,,,,,,,,,,,,,,,,,,,,,,,,,,candle,22,0,22,0,1,,,,,,,,,,,,,,,,,,,,,,,,,,,,,,,
,,,,,,,,,,,,,,,90269,001,2022-04-24_18h03.36.641,SPAMnetsValid,2021.1.4,Win32,60.00960154,,,,,,,,,,,,,,,,,,,,,,,,,,,,,,,,,,,,,,,,,,,,,,,,,,,,,candle,23,0,23,0,1,,,,,,,,,,,,,,,,,,,,,,,,,,,,,,,
,,,,,,,,,,,,,,,90269,001,2022-04-24_18h03.36.641,SPAMnetsValid,2021.1.4,Win32,60.00960154,,,,,,,,,,,,,,,,,,,,,,,,,,,,,,,,,,,,,,,,,,,,,,,,,,,,,candle,24,0,24,0,1,,,,,,,,,,,,,,,,,,,,,,,,,,,,,,,
,,,,,,,,,,,,,,,90269,001,2022-04-24_18h03.36.641,SPAMnetsValid,2021.1.4,Win32,60.00960154,,,,,,,,,,,,,,,,,,,,,,,,,,,,,,,,,,,,,,,,,,,,,,,,,,,,,candle,25,0,25,0,1,,,,,,,,,,,,,,,,,,,,,,,,,,,,,,,
,,,,,,,,,,,,,,,90269,001,2022-04-24_18h03.36.641,SPAMnetsValid,2021.1.4,Win32,60.00960154,,,,,,,,,,,,,,,,,,,,,,,,,,,,,,,,,,,,,,,,,,,,,,,,,,,,,candle,26,0,26,0,1,,,,,,,,,,,,,,,,,,,,,,,,,,,,,,,
,,,,,,,,,,,,,,,90269,001,2022-04-24_18h03.36.641,SPAMnetsValid,2021.1.4,Win32,60.00960154,,,,,,,,,,,,,,,,,,,,,,,,,,,,,,,,,,,,,,,,,,,,,,,,,,,,,candle,27,0,27,0,1,,,,,,,,,,,,,,,,,,,,,,,,,,,,,,,
,,,,,,,,,,,,,,,90269,001,2022-04-24_18h03.36.641,SPAMnetsValid,2021.1.4,Win32,60.00960154,,,,,,,,,,,,,,,,,,,,,,,,,,,,,,,,,,,,,,,,,,,,,,,,,,,,,candle,28,0,28,0,1,,,,,,,,,,,,,,,,,,,,,,,,,,,,,,,
,,,,,,,,,,,,,,,90269,001,2022-04-24_18h03.36.641,SPAMnetsValid,2021.1.4,Win32,60.00960154,,,,,,,,,,,,,,,,,,,,,,,,,,,,,,,,,,,,,,,,,,,,,,,,,,,,,candle,29,0,29,0,1,,,,,,,,,,,,,,,,,,,,,,,,,,,,,,,
,,,,,,,,,,,,,,,90269,001,2022-04-24_18h03.36.641,SPAMnetsValid,2021.1.4,Win32,60.00960154,,,,,,,,,,,,,,,,,,,,,,,,,,,,,,,,,,,,,,,,,,,,,,,,,,,,,candle,30,0,30,0,1,,,,,,,,,,,,,,,,,,,,,,,,,,,,,,,
,,,,,,,,,,,,,,,90269,001,2022-04-24_18h03.36.641,SPAMnetsValid,2021.1.4,Win32,60.00960154,,,,,,,,,,,,,,,,,,,,,,,,,,,,,,,,,,,,,,,,,,,,,,,,,,,,,candle,31,0,31,0,1,,,,,,,,,,,,,,,,,,,,,,,,,,,,,,,
,,,,,,,,,,,,,,,90269,001,2022-04-24_18h03.36.641,SPAMnetsValid,2021.1.4,Win32,60.00960154,,,,,,,,,,,,,,,,,,,,,,,,,,,,,,,,,,,,,,,,,,,,,,,,,,,,,candle,32,0,32,0,1,,,,,,,,,,,,,,,,,,,,,,,,,,,,,,,
,,,,,,,,,,,,,,,90269,001,2022-04-24_18h03.36.641,SPAMnetsValid,2021.1.4,Win32,60.00960154,,,,,,,,,,,,,,,,,,,,,,,,,,,,,,,,,,,,,,,,,,,,,,,,,,,,,candle,33,0,33,0,1,,,,,,,,,,,,,,,,,,,,,,,,,,,,,,,
,,,,,,,,,,,,,,,90269,001,2022-04-24_18h03.36.641,SPAMnetsValid,2021.1.4,Win32,60.00960154,,,,,,,,,,,,,,,,,,,,,,,,,,,,,,,,,,,,,,,,,,,,,,,,,,,,,candle,34,0,34,0,1,,,,,,,,,,,,,,,,,,,,,,,,,,,,,,,
,,,,,,,,,,,,,,,90269,001,2022-04-24_18h03.36.641,SPAMnetsValid,2021.1.4,Win32,60.00960154,,,,,,,,,,,,,,,,,,,,,,,,,,,,,,,,,,,,,,,,,,,,,,,,,,,,,candle,35,0,35,0,1,,,,,,,,,,,,,,,,,,,,,,,,,,,,,,,
,,,,,,,,,,,,,,,90269,001,2022-04-24_18h03.36.641,SPAMnetsValid,2021.1.4,Win32,60.00960154,,,,,,,,,,,,,,,,,,,,,,,,,,,,,,,,,,,,,,,,,,,,,,,,,,,,,candle,36,0,36,0,1,,,,,,,,,,,,,,,,,,,,,,,,,,,,,,,
,,,,,,,,,,,,,,,90269,001,2022-04-24_18h03.36.641,SPAMnetsValid,2021.1.4,Win32,60.00960154,,,,,,,,,,,,,,,,,,,,,,,,,,,,,,,,,,,,,,,,,,,,,,,,,,,,,candle,37,0,37,0,1,,,,,,,,,,,,,,,,,,,,,,,,,,,,,,,
