key_resp_3.keys,key_resp_3.rt,slider_2.response,slider_2.rt,rjt_rating,rjt_RT,trials_24.thisRepN,trials_24.thisTrialN,trials_24.thisN,trials_24.thisIndex,trials_24.ran,rjt_order,word1,word2,attention,participant,session,date,expName,psychopyVersion,OS,frameRate,trials_4.thisRepN,trials_4.thisTrialN,trials_4.thisN,trials_4.thisIndex,trials_4.ran,trials_5.thisRepN,trials_5.thisTrialN,trials_5.thisN,trials_5.thisIndex,trials_5.ran,repOne,repTwo,slider.response,slider.rt,trials_22.thisRepN,trials_22.thisTrialN,trials_22.thisN,trials_22.thisIndex,trials_22.ran,trials_99.thisRepN,trials_99.thisTrialN,trials_99.thisN,trials_99.thisIndex,trials_99.ran,slider_extend_2.response,slider_extend_2.rt,trials_6.thisRepN,trials_6.thisTrialN,trials_6.thisN,trials_6.thisIndex,trials_6.ran,vCue2,R1,R2,R3,R4,correct,sliderVocab.response,sliderVocab.rt,trials_7.thisRepN,trials_7.thisTrialN,trials_7.thisN,trials_7.thisIndex,trials_7.ran,VocabCue,VR1,VR2,VR3,VR4,VR5,VocabCorrect,AUT_resp,AUT_label,trials.thisRepN,trials.thisTrialN,trials.thisN,trials.thisIndex,trials.ran,trials_2.thisRepN,trials_2.thisTrialN,trials_2.thisN,trials_2.thisIndex,trials_2.ran,aut_prompt,VF_response,VF_tag,trials_16.thisRepN,trials_16.thisTrialN,trials_16.thisN,trials_16.thisIndex,trials_16.ran,trials_17.thisRepN,trials_17.thisTrialN,trials_17.thisN,trials_17.thisIndex,trials_17.ran,VFcond,open_slider.response,open_slider.rt,trials_3.thisRepN,trials_3.thisTrialN,trials_3.thisN,trials_3.thisIndex,trials_3.ran,OpenQ,Rev,OPEN_ORDER,key_resp_2.keys,key_resp_2.rt
return,9.6343,6,6.7233,6,6.7233,0,0,0,18,1,119,strawberry,tree,,90279,001,2022-04-24_21h32.57.076,SPAMnetsValid,2021.1.4,Win32,59.96641881,,,,,,,,,,,,,,,,,,,,,,,,,,,,,,,,,,,,,,,,,,,,,,,,,,,,,,,,,,,,,,,,,,,,,,,,,,,,,,,,,,,,,,,,,
,,2,2.2252,2,2.2252,0,1,1,88,1,171,cake,tomato,,90279,001,2022-04-24_21h32.57.076,SPAMnetsValid,2021.1.4,Win32,59.96641881,,,,,,,,,,,,,,,,,,,,,,,,,,,,,,,,,,,,,,,,,,,,,,,,,,,,,,,,,,,,,,,,,,,,,,,,,,,,,,,,,,,,,,,,,
,,3,2.7051,3,2.7051,0,2,2,31,1,156,melon,rose,,90279,001,2022-04-24_21h32.57.076,SPAMnetsValid,2021.1.4,Win32,59.96641881,,,,,,,,,,,,,,,,,,,,,,,,,,,,,,,,,,,,,,,,,,,,,,,,,,,,,,,,,,,,,,,,,,,,,,,,,,,,,,,,,,,,,,,,,
,,2,2.7203,2,2.7203,0,3,3,43,1,185,cactus,rose,,90279,001,2022-04-24_21h32.57.076,SPAMnetsValid,2021.1.4,Win32,59.96641881,,,,,,,,,,,,,,,,,,,,,,,,,,,,,,,,,,,,,,,,,,,,,,,,,,,,,,,,,,,,,,,,,,,,,,,,,,,,,,,,,,,,,,,,,
,,8,1.9175,8,1.9175,0,4,4,48,1,186,kitchen,yogurt,,90279,001,2022-04-24_21h32.57.076,SPAMnetsValid,2021.1.4,Win32,59.96641881,,,,,,,,,,,,,,,,,,,,,,,,,,,,,,,,,,,,,,,,,,,,,,,,,,,,,,,,,,,,,,,,,,,,,,,,,,,,,,,,,,,,,,,,,
,,3,2.004,3,2.004,0,5,5,90,1,190,microwave,strawberry,,90279,001,2022-04-24_21h32.57.076,SPAMnetsValid,2021.1.4,Win32,59.96641881,,,,,,,,,,,,,,,,,,,,,,,,,,,,,,,,,,,,,,,,,,,,,,,,,,,,,,,,,,,,,,,,,,,,,,,,,,,,,,,,,,,,,,,,,
,,3,1.8499,3,1.8499,0,6,6,75,1,178,cactus,carrot,,90279,001,2022-04-24_21h32.57.076,SPAMnetsValid,2021.1.4,Win32,59.96641881,,,,,,,,,,,,,,,,,,,,,,,,,,,,,,,,,,,,,,,,,,,,,,,,,,,,,,,,,,,,,,,,,,,,,,,,,,,,,,,,,,,,,,,,,
,,8,3.0733,8,3.0733,0,7,7,44,1,116,cake,chocolate,,90279,001,2022-04-24_21h32.57.076,SPAMnetsValid,2021.1.4,Win32,59.96641881,,,,,,,,,,,,,,,,,,,,,,,,,,,,,,,,,,,,,,,,,,,,,,,,,,,,,,,,,,,,,,,,,,,,,,,,,,,,,,,,,,,,,,,,,
,,5,4.2089,5,4.2089,0,8,8,78,1,132,broom,tree,,90279,001,2022-04-24_21h32.57.076,SPAMnetsValid,2021.1.4,Win32,59.96641881,,,,,,,,,,,,,,,,,,,,,,,,,,,,,,,,,,,,,,,,,,,,,,,,,,,,,,,,,,,,,,,,,,,,,,,,,,,,,,,,,,,,,,,,,
,,2,2.1836,2,2.1836,0,9,9,96,1,136,chocolate,microwave,,90279,001,2022-04-24_21h32.57.076,SPAMnetsValid,2021.1.4,Win32,59.96641881,,,,,,,,,,,,,,,,,,,,,,,,,,,,,,,,,,,,,,,,,,,,,,,,,,,,,,,,,,,,,,,,,,,,,,,,,,,,,,,,,,,,,,,,,
,,5,6.1642,5,6.1642,0,10,10,62,1,189,onion,tree,,90279,001,2022-04-24_21h32.57.076,SPAMnetsValid,2021.1.4,Win32,59.96641881,,,,,,,,,,,,,,,,,,,,,,,,,,,,,,,,,,,,,,,,,,,,,,,,,,,,,,,,,,,,,,,,,,,,,,,,,,,,,,,,,,,,,,,,,
,,7,1.9333,7,1.9333,0,11,11,1,1,173,kitchen,tomato,,90279,001,2022-04-24_21h32.57.076,SPAMnetsValid,2021.1.4,Win32,59.96641881,,,,,,,,,,,,,,,,,,,,,,,,,,,,,,,,,,,,,,,,,,,,,,,,,,,,,,,,,,,,,,,,,,,,,,,,,,,,,,,,,,,,,,,,,
,,9,1.7671,9,1.7671,0,12,12,61,1,138,flower,rose,,90279,001,2022-04-24_21h32.57.076,SPAMnetsValid,2021.1.4,Win32,59.96641881,,,,,,,,,,,,,,,,,,,,,,,,,,,,,,,,,,,,,,,,,,,,,,,,,,,,,,,,,,,,,,,,,,,,,,,,,,,,,,,,,,,,,,,,,
,,2,3.5569,2,3.5569,0,13,13,24,1,169,onion,yogurt,,90279,001,2022-04-24_21h32.57.076,SPAMnetsValid,2021.1.4,Win32,59.96641881,,,,,,,,,,,,,,,,,,,,,,,,,,,,,,,,,,,,,,,,,,,,,,,,,,,,,,,,,,,,,,,,,,,,,,,,,,,,,,,,,,,,,,,,,
,,2,3.3378,2,3.3378,0,14,14,93,1,134,carrot,flower,,90279,001,2022-04-24_21h32.57.076,SPAMnetsValid,2021.1.4,Win32,59.96641881,,,,,,,,,,,,,,,,,,,,,,,,,,,,,,,,,,,,,,,,,,,,,,,,,,,,,,,,,,,,,,,,,,,,,,,,,,,,,,,,,,,,,,,,,
,,8,2.366,8,2.366,0,15,15,3,1,129,cactus,refrigerator,,90279,001,2022-04-24_21h32.57.076,SPAMnetsValid,2021.1.4,Win32,59.96641881,,,,,,,,,,,,,,,,,,,,,,,,,,,,,,,,,,,,,,,,,,,,,,,,,,,,,,,,,,,,,,,,,,,,,,,,,,,,,,,,,,,,,,,,,
,,7,2.2894,7,2.2894,0,16,16,92,1,170,cookie,microwave,,90279,001,2022-04-24_21h32.57.076,SPAMnetsValid,2021.1.4,Win32,59.96641881,,,,,,,,,,,,,,,,,,,,,,,,,,,,,,,,,,,,,,,,,,,,,,,,,,,,,,,,,,,,,,,,,,,,,,,,,,,,,,,,,,,,,,,,,
,,9,1.6364,9,1.6364,0,17,17,14,1,120,microwave,oven,,90279,001,2022-04-24_21h32.57.076,SPAMnetsValid,2021.1.4,Win32,59.96641881,,,,,,,,,,,,,,,,,,,,,,,,,,,,,,,,,,,,,,,,,,,,,,,,,,,,,,,,,,,,,,,,,,,,,,,,,,,,,,,,,,,,,,,,,
,,1,2.8337,1,2.8337,0,18,18,80,1,146,pretzel,tree,,90279,001,2022-04-24_21h32.57.076,SPAMnetsValid,2021.1.4,Win32,59.96641881,,,,,,,,,,,,,,,,,,,,,,,,,,,,,,,,,,,,,,,,,,,,,,,,,,,,,,,,,,,,,,,,,,,,,,,,,,,,,,,,,,,,,,,,,
,,6,3.2006,6,3.2006,0,19,19,11,1,117,melon,strawberry,,90279,001,2022-04-24_21h32.57.076,SPAMnetsValid,2021.1.4,Win32,59.96641881,,,,,,,,,,,,,,,,,,,,,,,,,,,,,,,,,,,,,,,,,,,,,,,,,,,,,,,,,,,,,,,,,,,,,,,,,,,,,,,,,,,,,,,,,
,,1,2.05,1,2.05,0,20,20,50,1,126,kitchen,tree,,90279,001,2022-04-24_21h32.57.076,SPAMnetsValid,2021.1.4,Win32,59.96641881,,,,,,,,,,,,,,,,,,,,,,,,,,,,,,,,,,,,,,,,,,,,,,,,,,,,,,,,,,,,,,,,,,,,,,,,,,,,,,,,,,,,,,,,,
,,3,2.0329,3,2.0329,0,21,21,16,1,111,carrot,microwave,,90279,001,2022-04-24_21h32.57.076,SPAMnetsValid,2021.1.4,Win32,59.96641881,,,,,,,,,,,,,,,,,,,,,,,,,,,,,,,,,,,,,,,,,,,,,,,,,,,,,,,,,,,,,,,,,,,,,,,,,,,,,,,,,,,,,,,,,
,,5,4.1583,5,4.1583,0,22,22,10,1,118,chocolate,oven,,90279,001,2022-04-24_21h32.57.076,SPAMnetsValid,2021.1.4,Win32,59.96641881,,,,,,,,,,,,,,,,,,,,,,,,,,,,,,,,,,,,,,,,,,,,,,,,,,,,,,,,,,,,,,,,,,,,,,,,,,,,,,,,,,,,,,,,,
,,9,2.0998,9,2.0998,0,23,23,83,1,100,garden,tomato,,90279,001,2022-04-24_21h32.57.076,SPAMnetsValid,2021.1.4,Win32,59.96641881,,,,,,,,,,,,,,,,,,,,,,,,,,,,,,,,,,,,,,,,,,,,,,,,,,,,,,,,,,,,,,,,,,,,,,,,,,,,,,,,,,,,,,,,,
,,6,2.3924,6,2.3924,0,24,24,84,1,130,microwave,yogurt,,90279,001,2022-04-24_21h32.57.076,SPAMnetsValid,2021.1.4,Win32,59.96641881,,,,,,,,,,,,,,,,,,,,,,,,,,,,,,,,,,,,,,,,,,,,,,,,,,,,,,,,,,,,,,,,,,,,,,,,,,,,,,,,,,,,,,,,,
,,8,2.6672,8,2.6672,0,25,25,8,1,97,chocolate,kitchen,,90279,001,2022-04-24_21h32.57.076,SPAMnetsValid,2021.1.4,Win32,59.96641881,,,,,,,,,,,,,,,,,,,,,,,,,,,,,,,,,,,,,,,,,,,,,,,,,,,,,,,,,,,,,,,,,,,,,,,,,,,,,,,,,,,,,,,,,
,,1,2.377,1,2.377,0,26,26,55,1,143,pretzel,rose,,90279,001,2022-04-24_21h32.57.076,SPAMnetsValid,2021.1.4,Win32,59.96641881,,,,,,,,,,,,,,,,,,,,,,,,,,,,,,,,,,,,,,,,,,,,,,,,,,,,,,,,,,,,,,,,,,,,,,,,,,,,,,,,,,,,,,,,,
,,9,1.8758,9,1.8758,0,27,27,56,1,113,refrigerator,strawberry,,90279,001,2022-04-24_21h32.57.076,SPAMnetsValid,2021.1.4,Win32,59.96641881,,,,,,,,,,,,,,,,,,,,,,,,,,,,,,,,,,,,,,,,,,,,,,,,,,,,,,,,,,,,,,,,,,,,,,,,,,,,,,,,,,,,,,,,,
,,4,5.1705,4,5.1705,0,28,28,25,1,194,cactus,cactus,CHECK,90279,001,2022-04-24_21h32.57.076,SPAMnetsValid,2021.1.4,Win32,59.96641881,,,,,,,,,,,,,,,,,,,,,,,,,,,,,,,,,,,,,,,,,,,,,,,,,,,,,,,,,,,,,,,,,,,,,,,,,,,,,,,,,,,,,,,,,
,,8,2.142,8,2.142,0,29,29,72,1,181,carrot,kitchen,,90279,001,2022-04-24_21h32.57.076,SPAMnetsValid,2021.1.4,Win32,59.96641881,,,,,,,,,,,,,,,,,,,,,,,,,,,,,,,,,,,,,,,,,,,,,,,,,,,,,,,,,,,,,,,,,,,,,,,,,,,,,,,,,,,,,,,,,
,,6,2.7159,6,2.7159,0,30,30,69,1,124,oven,refrigerator,,90279,001,2022-04-24_21h32.57.076,SPAMnetsValid,2021.1.4,Win32,59.96641881,,,,,,,,,,,,,,,,,,,,,,,,,,,,,,,,,,,,,,,,,,,,,,,,,,,,,,,,,,,,,,,,,,,,,,,,,,,,,,,,,,,,,,,,,
,,5,3.0503,5,3.0503,0,31,31,33,1,131,cactus,garden,,90279,001,2022-04-24_21h32.57.076,SPAMnetsValid,2021.1.4,Win32,59.96641881,,,,,,,,,,,,,,,,,,,,,,,,,,,,,,,,,,,,,,,,,,,,,,,,,,,,,,,,,,,,,,,,,,,,,,,,,,,,,,,,,,,,,,,,,
,,5,1.7715,5,1.7715,0,32,32,70,1,141,melon,tomato,,90279,001,2022-04-24_21h32.57.076,SPAMnetsValid,2021.1.4,Win32,59.96641881,,,,,,,,,,,,,,,,,,,,,,,,,,,,,,,,,,,,,,,,,,,,,,,,,,,,,,,,,,,,,,,,,,,,,,,,,,,,,,,,,,,,,,,,,
,,5,1.1804,5,1.1804,0,33,33,34,1,153,carrot,pretzel,,90279,001,2022-04-24_21h32.57.076,SPAMnetsValid,2021.1.4,Win32,59.96641881,,,,,,,,,,,,,,,,,,,,,,,,,,,,,,,,,,,,,,,,,,,,,,,,,,,,,,,,,,,,,,,,,,,,,,,,,,,,,,,,,,,,,,,,,
,,3,3.4884,3,3.4884,0,34,34,67,1,96,oven,strawberry,,90279,001,2022-04-24_21h32.57.076,SPAMnetsValid,2021.1.4,Win32,59.96641881,,,,,,,,,,,,,,,,,,,,,,,,,,,,,,,,,,,,,,,,,,,,,,,,,,,,,,,,,,,,,,,,,,,,,,,,,,,,,,,,,,,,,,,,,
,,3,2.7362,3,2.7362,0,35,35,12,1,162,microwave,tomato,,90279,001,2022-04-24_21h32.57.076,SPAMnetsValid,2021.1.4,Win32,59.96641881,,,,,,,,,,,,,,,,,,,,,,,,,,,,,,,,,,,,,,,,,,,,,,,,,,,,,,,,,,,,,,,,,,,,,,,,,,,,,,,,,,,,,,,,,
,,6,2.2976,6,2.2976,0,36,36,89,1,140,cookie,refrigerator,,90279,001,2022-04-24_21h32.57.076,SPAMnetsValid,2021.1.4,Win32,59.96641881,,,,,,,,,,,,,,,,,,,,,,,,,,,,,,,,,,,,,,,,,,,,,,,,,,,,,,,,,,,,,,,,,,,,,,,,,,,,,,,,,,,,,,,,,
,,1,2.5868,1,2.5868,0,37,37,20,1,149,broom,tomato,,90279,001,2022-04-24_21h32.57.076,SPAMnetsValid,2021.1.4,Win32,59.96641881,,,,,,,,,,,,,,,,,,,,,,,,,,,,,,,,,,,,,,,,,,,,,,,,,,,,,,,,,,,,,,,,,,,,,,,,,,,,,,,,,,,,,,,,,
,,9,2.1833,9,2.1833,0,38,38,86,1,193,melon,melon,CHECK,90279,001,2022-04-24_21h32.57.076,SPAMnetsValid,2021.1.4,Win32,59.96641881,,,,,,,,,,,,,,,,,,,,,,,,,,,,,,,,,,,,,,,,,,,,,,,,,,,,,,,,,,,,,,,,,,,,,,,,,,,,,,,,,,,,,,,,,
,,7,1.4033,7,1.4033,0,39,39,29,1,163,melon,refrigerator,,90279,001,2022-04-24_21h32.57.076,SPAMnetsValid,2021.1.4,Win32,59.96641881,,,,,,,,,,,,,,,,,,,,,,,,,,,,,,,,,,,,,,,,,,,,,,,,,,,,,,,,,,,,,,,,,,,,,,,,,,,,,,,,,,,,,,,,,
,,1,4.6876,1,4.6876,0,40,40,81,1,104,garden,microwave,,90279,001,2022-04-24_21h32.57.076,SPAMnetsValid,2021.1.4,Win32,59.96641881,,,,,,,,,,,,,,,,,,,,,,,,,,,,,,,,,,,,,,,,,,,,,,,,,,,,,,,,,,,,,,,,,,,,,,,,,,,,,,,,,,,,,,,,,
,,1,1.3151,1,1.3151,0,41,41,4,1,109,broom,strawberry,,90279,001,2022-04-24_21h32.57.076,SPAMnetsValid,2021.1.4,Win32,59.96641881,,,,,,,,,,,,,,,,,,,,,,,,,,,,,,,,,,,,,,,,,,,,,,,,,,,,,,,,,,,,,,,,,,,,,,,,,,,,,,,,,,,,,,,,,
,,1,2.8177,1,2.8177,0,42,42,13,1,105,cactus,oven,,90279,001,2022-04-24_21h32.57.076,SPAMnetsValid,2021.1.4,Win32,59.96641881,,,,,,,,,,,,,,,,,,,,,,,,,,,,,,,,,,,,,,,,,,,,,,,,,,,,,,,,,,,,,,,,,,,,,,,,,,,,,,,,,,,,,,,,,
,,8,2.259,8,2.259,0,43,43,42,1,184,oven,pretzel,,90279,001,2022-04-24_21h32.57.076,SPAMnetsValid,2021.1.4,Win32,59.96641881,,,,,,,,,,,,,,,,,,,,,,,,,,,,,,,,,,,,,,,,,,,,,,,,,,,,,,,,,,,,,,,,,,,,,,,,,,,,,,,,,,,,,,,,,
,,7,1.9854,7,1.9854,0,44,44,85,1,115,refrigerator,tomato,,90279,001,2022-04-24_21h32.57.076,SPAMnetsValid,2021.1.4,Win32,59.96641881,,,,,,,,,,,,,,,,,,,,,,,,,,,,,,,,,,,,,,,,,,,,,,,,,,,,,,,,,,,,,,,,,,,,,,,,,,,,,,,,,,,,,,,,,
,,9,1.8963,9,1.8963,0,45,45,47,1,167,carrot,garden,,90279,001,2022-04-24_21h32.57.076,SPAMnetsValid,2021.1.4,Win32,59.96641881,,,,,,,,,,,,,,,,,,,,,,,,,,,,,,,,,,,,,,,,,,,,,,,,,,,,,,,,,,,,,,,,,,,,,,,,,,,,,,,,,,,,,,,,,
,,5,2.3496,5,2.3496,0,46,46,9,1,176,cactus,tomato,,90279,001,2022-04-24_21h32.57.076,SPAMnetsValid,2021.1.4,Win32,59.96641881,,,,,,,,,,,,,,,,,,,,,,,,,,,,,,,,,,,,,,,,,,,,,,,,,,,,,,,,,,,,,,,,,,,,,,,,,,,,,,,,,,,,,,,,,
,,9,2.0012,9,2.0012,0,47,47,28,1,154,strawberry,yogurt,,90279,001,2022-04-24_21h32.57.076,SPAMnetsValid,2021.1.4,Win32,59.96641881,,,,,,,,,,,,,,,,,,,,,,,,,,,,,,,,,,,,,,,,,,,,,,,,,,,,,,,,,,,,,,,,,,,,,,,,,,,,,,,,,,,,,,,,,
,,4,1.8174,4,1.8174,0,48,48,79,1,103,pretzel,tomato,,90279,001,2022-04-24_21h32.57.076,SPAMnetsValid,2021.1.4,Win32,59.96641881,,,,,,,,,,,,,,,,,,,,,,,,,,,,,,,,,,,,,,,,,,,,,,,,,,,,,,,,,,,,,,,,,,,,,,,,,,,,,,,,,,,,,,,,,
,,1,3.036,1,3.036,0,49,49,6,1,151,microwave,onion,,90279,001,2022-04-24_21h32.57.076,SPAMnetsValid,2021.1.4,Win32,59.96641881,,,,,,,,,,,,,,,,,,,,,,,,,,,,,,,,,,,,,,,,,,,,,,,,,,,,,,,,,,,,,,,,,,,,,,,,,,,,,,,,,,,,,,,,,
,,3,3.1216,3,3.1216,0,50,50,37,1,139,carrot,strawberry,,90279,001,2022-04-24_21h32.57.076,SPAMnetsValid,2021.1.4,Win32,59.96641881,,,,,,,,,,,,,,,,,,,,,,,,,,,,,,,,,,,,,,,,,,,,,,,,,,,,,,,,,,,,,,,,,,,,,,,,,,,,,,,,,,,,,,,,,
,,7,1.6928,7,1.6928,0,51,51,76,1,102,chocolate,refrigerator,,90279,001,2022-04-24_21h32.57.076,SPAMnetsValid,2021.1.4,Win32,59.96641881,,,,,,,,,,,,,,,,,,,,,,,,,,,,,,,,,,,,,,,,,,,,,,,,,,,,,,,,,,,,,,,,,,,,,,,,,,,,,,,,,,,,,,,,,
,,1,2.6116,1,2.6116,0,52,52,71,1,187,cactus,microwave,,90279,001,2022-04-24_21h32.57.076,SPAMnetsValid,2021.1.4,Win32,59.96641881,,,,,,,,,,,,,,,,,,,,,,,,,,,,,,,,,,,,,,,,,,,,,,,,,,,,,,,,,,,,,,,,,,,,,,,,,,,,,,,,,,,,,,,,,
,,1,1.0383,1,1.0383,0,53,53,73,1,135,carrot,oven,,90279,001,2022-04-24_21h32.57.076,SPAMnetsValid,2021.1.4,Win32,59.96641881,,,,,,,,,,,,,,,,,,,,,,,,,,,,,,,,,,,,,,,,,,,,,,,,,,,,,,,,,,,,,,,,,,,,,,,,,,,,,,,,,,,,,,,,,
,,5,3.0536,5,3.0536,0,54,54,19,1,183,cake,rose,,90279,001,2022-04-24_21h32.57.076,SPAMnetsValid,2021.1.4,Win32,59.96641881,,,,,,,,,,,,,,,,,,,,,,,,,,,,,,,,,,,,,,,,,,,,,,,,,,,,,,,,,,,,,,,,,,,,,,,,,,,,,,,,,,,,,,,,,
,,1,1.3691,1,1.3691,0,55,55,95,1,121,broom,microwave,,90279,001,2022-04-24_21h32.57.076,SPAMnetsValid,2021.1.4,Win32,59.96641881,,,,,,,,,,,,,,,,,,,,,,,,,,,,,,,,,,,,,,,,,,,,,,,,,,,,,,,,,,,,,,,,,,,,,,,,,,,,,,,,,,,,,,,,,
,,8,2.0045,8,2.0045,0,56,56,17,1,99,garden,melon,,90279,001,2022-04-24_21h32.57.076,SPAMnetsValid,2021.1.4,Win32,59.96641881,,,,,,,,,,,,,,,,,,,,,,,,,,,,,,,,,,,,,,,,,,,,,,,,,,,,,,,,,,,,,,,,,,,,,,,,,,,,,,,,,,,,,,,,,
,,2,2.2996,2,2.2996,0,57,57,38,1,155,carrot,cookie,,90279,001,2022-04-24_21h32.57.076,SPAMnetsValid,2021.1.4,Win32,59.96641881,,,,,,,,,,,,,,,,,,,,,,,,,,,,,,,,,,,,,,,,,,,,,,,,,,,,,,,,,,,,,,,,,,,,,,,,,,,,,,,,,,,,,,,,,
,,8,12.8429,8,12.8429,0,58,58,35,1,147,cake,refrigerator,,90279,001,2022-04-24_21h32.57.076,SPAMnetsValid,2021.1.4,Win32,59.96641881,,,,,,,,,,,,,,,,,,,,,,,,,,,,,,,,,,,,,,,,,,,,,,,,,,,,,,,,,,,,,,,,,,,,,,,,,,,,,,,,,,,,,,,,,
,,1,1.7375,1,1.7375,0,59,59,58,1,144,cake,garden,,90279,001,2022-04-24_21h32.57.076,SPAMnetsValid,2021.1.4,Win32,59.96641881,,,,,,,,,,,,,,,,,,,,,,,,,,,,,,,,,,,,,,,,,,,,,,,,,,,,,,,,,,,,,,,,,,,,,,,,,,,,,,,,,,,,,,,,,
,,1,2.3717,1,2.3717,0,60,60,21,1,159,cookie,flower,,90279,001,2022-04-24_21h32.57.076,SPAMnetsValid,2021.1.4,Win32,59.96641881,,,,,,,,,,,,,,,,,,,,,,,,,,,,,,,,,,,,,,,,,,,,,,,,,,,,,,,,,,,,,,,,,,,,,,,,,,,,,,,,,,,,,,,,,
,,8,1.9982,8,1.9982,0,61,61,39,1,112,cake,carrot,,90279,001,2022-04-24_21h32.57.076,SPAMnetsValid,2021.1.4,Win32,59.96641881,,,,,,,,,,,,,,,,,,,,,,,,,,,,,,,,,,,,,,,,,,,,,,,,,,,,,,,,,,,,,,,,,,,,,,,,,,,,,,,,,,,,,,,,,
,,1,1.7174,1,1.7174,0,62,62,41,1,175,melon,onion,,90279,001,2022-04-24_21h32.57.076,SPAMnetsValid,2021.1.4,Win32,59.96641881,,,,,,,,,,,,,,,,,,,,,,,,,,,,,,,,,,,,,,,,,,,,,,,,,,,,,,,,,,,,,,,,,,,,,,,,,,,,,,,,,,,,,,,,,
,,1,0.9095,1,0.9095,0,63,63,40,1,165,onion,rose,,90279,001,2022-04-24_21h32.57.076,SPAMnetsValid,2021.1.4,Win32,59.96641881,,,,,,,,,,,,,,,,,,,,,,,,,,,,,,,,,,,,,,,,,,,,,,,,,,,,,,,,,,,,,,,,,,,,,,,,,,,,,,,,,,,,,,,,,
,,1,0.9041,1,0.9041,0,64,64,45,1,179,broom,oven,,90279,001,2022-04-24_21h32.57.076,SPAMnetsValid,2021.1.4,Win32,59.96641881,,,,,,,,,,,,,,,,,,,,,,,,,,,,,,,,,,,,,,,,,,,,,,,,,,,,,,,,,,,,,,,,,,,,,,,,,,,,,,,,,,,,,,,,,
,,9,2.374,9,2.374,0,65,65,60,1,122,flower,garden,,90279,001,2022-04-24_21h32.57.076,SPAMnetsValid,2021.1.4,Win32,59.96641881,,,,,,,,,,,,,,,,,,,,,,,,,,,,,,,,,,,,,,,,,,,,,,,,,,,,,,,,,,,,,,,,,,,,,,,,,,,,,,,,,,,,,,,,,
,,1,3.3867,1,3.3867,0,66,66,57,1,127,cactus,chocolate,,90279,001,2022-04-24_21h32.57.076,SPAMnetsValid,2021.1.4,Win32,59.96641881,,,,,,,,,,,,,,,,,,,,,,,,,,,,,,,,,,,,,,,,,,,,,,,,,,,,,,,,,,,,,,,,,,,,,,,,,,,,,,,,,,,,,,,,,
,,7,1.6024,7,1.6024,0,67,67,7,1,188,flower,tree,,90279,001,2022-04-24_21h32.57.076,SPAMnetsValid,2021.1.4,Win32,59.96641881,,,,,,,,,,,,,,,,,,,,,,,,,,,,,,,,,,,,,,,,,,,,,,,,,,,,,,,,,,,,,,,,,,,,,,,,,,,,,,,,,,,,,,,,,
,,7,2.2369,7,2.2369,0,68,68,65,1,160,cookie,kitchen,,90279,001,2022-04-24_21h32.57.076,SPAMnetsValid,2021.1.4,Win32,59.96641881,,,,,,,,,,,,,,,,,,,,,,,,,,,,,,,,,,,,,,,,,,,,,,,,,,,,,,,,,,,,,,,,,,,,,,,,,,,,,,,,,,,,,,,,,
,,1,1.7369,1,1.7369,0,69,69,63,1,137,microwave,tree,,90279,001,2022-04-24_21h32.57.076,SPAMnetsValid,2021.1.4,Win32,59.96641881,,,,,,,,,,,,,,,,,,,,,,,,,,,,,,,,,,,,,,,,,,,,,,,,,,,,,,,,,,,,,,,,,,,,,,,,,,,,,,,,,,,,,,,,,
,,1,8.5877,1,8.5877,0,70,70,5,1,108,carrot,chocolate,,90279,001,2022-04-24_21h32.57.076,SPAMnetsValid,2021.1.4,Win32,59.96641881,,,,,,,,,,,,,,,,,,,,,,,,,,,,,,,,,,,,,,,,,,,,,,,,,,,,,,,,,,,,,,,,,,,,,,,,,,,,,,,,,,,,,,,,,
,,6,1.7483,6,1.7483,0,71,71,23,1,148,flower,melon,,90279,001,2022-04-24_21h32.57.076,SPAMnetsValid,2021.1.4,Win32,59.96641881,,,,,,,,,,,,,,,,,,,,,,,,,,,,,,,,,,,,,,,,,,,,,,,,,,,,,,,,,,,,,,,,,,,,,,,,,,,,,,,,,,,,,,,,,
,,8,1.8211,8,1.8211,0,72,72,53,1,177,chocolate,strawberry,,90279,001,2022-04-24_21h32.57.076,SPAMnetsValid,2021.1.4,Win32,59.96641881,,,,,,,,,,,,,,,,,,,,,,,,,,,,,,,,,,,,,,,,,,,,,,,,,,,,,,,,,,,,,,,,,,,,,,,,,,,,,,,,,,,,,,,,,
,,2,2.5539,2,2.5539,0,73,73,68,1,180,tree,yogurt,,90279,001,2022-04-24_21h32.57.076,SPAMnetsValid,2021.1.4,Win32,59.96641881,,,,,,,,,,,,,,,,,,,,,,,,,,,,,,,,,,,,,,,,,,,,,,,,,,,,,,,,,,,,,,,,,,,,,,,,,,,,,,,,,,,,,,,,,
,,1,3.0309,1,3.0309,0,74,74,59,1,164,cookie,garden,,90279,001,2022-04-24_21h32.57.076,SPAMnetsValid,2021.1.4,Win32,59.96641881,,,,,,,,,,,,,,,,,,,,,,,,,,,,,,,,,,,,,,,,,,,,,,,,,,,,,,,,,,,,,,,,,,,,,,,,,,,,,,,,,,,,,,,,,
,,7,2.1738,7,2.1738,0,75,75,0,1,106,cake,strawberry,,90279,001,2022-04-24_21h32.57.076,SPAMnetsValid,2021.1.4,Win32,59.96641881,,,,,,,,,,,,,,,,,,,,,,,,,,,,,,,,,,,,,,,,,,,,,,,,,,,,,,,,,,,,,,,,,,,,,,,,,,,,,,,,,,,,,,,,,
,,1,2.2412,1,2.2412,0,76,76,46,1,123,cookie,tree,,90279,001,2022-04-24_21h32.57.076,SPAMnetsValid,2021.1.4,Win32,59.96641881,,,,,,,,,,,,,,,,,,,,,,,,,,,,,,,,,,,,,,,,,,,,,,,,,,,,,,,,,,,,,,,,,,,,,,,,,,,,,,,,,,,,,,,,,
,,2,5.0445,2,5.0445,0,77,77,2,1,174,cake,pretzel,,90279,001,2022-04-24_21h32.57.076,SPAMnetsValid,2021.1.4,Win32,59.96641881,,,,,,,,,,,,,,,,,,,,,,,,,,,,,,,,,,,,,,,,,,,,,,,,,,,,,,,,,,,,,,,,,,,,,,,,,,,,,,,,,,,,,,,,,
,,2,2.6046,2,2.6046,0,78,78,51,1,168,cactus,flower,,90279,001,2022-04-24_21h32.57.076,SPAMnetsValid,2021.1.4,Win32,59.96641881,,,,,,,,,,,,,,,,,,,,,,,,,,,,,,,,,,,,,,,,,,,,,,,,,,,,,,,,,,,,,,,,,,,,,,,,,,,,,,,,,,,,,,,,,
,,5,2.5717,5,2.5717,0,79,79,27,1,158,cookie,oven,,90279,001,2022-04-24_21h32.57.076,SPAMnetsValid,2021.1.4,Win32,59.96641881,,,,,,,,,,,,,,,,,,,,,,,,,,,,,,,,,,,,,,,,,,,,,,,,,,,,,,,,,,,,,,,,,,,,,,,,,,,,,,,,,,,,,,,,,
,,1,2.0504,1,2.0504,0,80,80,64,1,157,refrigerator,rose,,90279,001,2022-04-24_21h32.57.076,SPAMnetsValid,2021.1.4,Win32,59.96641881,,,,,,,,,,,,,,,,,,,,,,,,,,,,,,,,,,,,,,,,,,,,,,,,,,,,,,,,,,,,,,,,,,,,,,,,,,,,,,,,,,,,,,,,,
,,8,2.0041,8,2.0041,0,81,81,22,1,142,garden,tree,,90279,001,2022-04-24_21h32.57.076,SPAMnetsValid,2021.1.4,Win32,59.96641881,,,,,,,,,,,,,,,,,,,,,,,,,,,,,,,,,,,,,,,,,,,,,,,,,,,,,,,,,,,,,,,,,,,,,,,,,,,,,,,,,,,,,,,,,
,,7,2.6237,7,2.6237,0,82,82,77,1,172,kitchen,melon,,90279,001,2022-04-24_21h32.57.076,SPAMnetsValid,2021.1.4,Win32,59.96641881,,,,,,,,,,,,,,,,,,,,,,,,,,,,,,,,,,,,,,,,,,,,,,,,,,,,,,,,,,,,,,,,,,,,,,,,,,,,,,,,,,,,,,,,,
,,3,3.0734,3,3.0734,0,83,83,74,1,128,melon,microwave,,90279,001,2022-04-24_21h32.57.076,SPAMnetsValid,2021.1.4,Win32,59.96641881,,,,,,,,,,,,,,,,,,,,,,,,,,,,,,,,,,,,,,,,,,,,,,,,,,,,,,,,,,,,,,,,,,,,,,,,,,,,,,,,,,,,,,,,,
,,3,1.9015,3,1.9015,0,84,84,30,1,125,carrot,tree,,90279,001,2022-04-24_21h32.57.076,SPAMnetsValid,2021.1.4,Win32,59.96641881,,,,,,,,,,,,,,,,,,,,,,,,,,,,,,,,,,,,,,,,,,,,,,,,,,,,,,,,,,,,,,,,,,,,,,,,,,,,,,,,,,,,,,,,,
,,9,1.6521,9,1.6521,0,85,85,52,1,110,chocolate,cookie,,90279,001,2022-04-24_21h32.57.076,SPAMnetsValid,2021.1.4,Win32,59.96641881,,,,,,,,,,,,,,,,,,,,,,,,,,,,,,,,,,,,,,,,,,,,,,,,,,,,,,,,,,,,,,,,,,,,,,,,,,,,,,,,,,,,,,,,,
,,5,2.4702,5,2.4702,0,86,86,87,1,114,cookie,strawberry,,90279,001,2022-04-24_21h32.57.076,SPAMnetsValid,2021.1.4,Win32,59.96641881,,,,,,,,,,,,,,,,,,,,,,,,,,,,,,,,,,,,,,,,,,,,,,,,,,,,,,,,,,,,,,,,,,,,,,,,,,,,,,,,,,,,,,,,,
,,1,1.936,1,1.936,0,87,87,32,1,182,flower,refrigerator,,90279,001,2022-04-24_21h32.57.076,SPAMnetsValid,2021.1.4,Win32,59.96641881,,,,,,,,,,,,,,,,,,,,,,,,,,,,,,,,,,,,,,,,,,,,,,,,,,,,,,,,,,,,,,,,,,,,,,,,,,,,,,,,,,,,,,,,,
,,1,1.4758,1,1.4758,0,88,88,82,1,98,pretzel,strawberry,,90279,001,2022-04-24_21h32.57.076,SPAMnetsValid,2021.1.4,Win32,59.96641881,,,,,,,,,,,,,,,,,,,,,,,,,,,,,,,,,,,,,,,,,,,,,,,,,,,,,,,,,,,,,,,,,,,,,,,,,,,,,,,,,,,,,,,,,
,,8,1.971,8,1.971,0,89,89,66,1,150,microwave,refrigerator,,90279,001,2022-04-24_21h32.57.076,SPAMnetsValid,2021.1.4,Win32,59.96641881,,,,,,,,,,,,,,,,,,,,,,,,,,,,,,,,,,,,,,,,,,,,,,,,,,,,,,,,,,,,,,,,,,,,,,,,,,,,,,,,,,,,,,,,,
,,7,2.4617,7,2.4617,0,90,90,36,1,161,kitchen,pretzel,,90279,001,2022-04-24_21h32.57.076,SPAMnetsValid,2021.1.4,Win32,59.96641881,,,,,,,,,,,,,,,,,,,,,,,,,,,,,,,,,,,,,,,,,,,,,,,,,,,,,,,,,,,,,,,,,,,,,,,,,,,,,,,,,,,,,,,,,
,,1,1.9661,1,1.9661,0,91,91,15,1,145,cactus,yogurt,,90279,001,2022-04-24_21h32.57.076,SPAMnetsValid,2021.1.4,Win32,59.96641881,,,,,,,,,,,,,,,,,,,,,,,,,,,,,,,,,,,,,,,,,,,,,,,,,,,,,,,,,,,,,,,,,,,,,,,,,,,,,,,,,,,,,,,,,
,,1,1.6679,1,1.6679,0,92,92,26,1,107,rose,tomato,,90279,001,2022-04-24_21h32.57.076,SPAMnetsValid,2021.1.4,Win32,59.96641881,,,,,,,,,,,,,,,,,,,,,,,,,,,,,,,,,,,,,,,,,,,,,,,,,,,,,,,,,,,,,,,,,,,,,,,,,,,,,,,,,,,,,,,,,
,,7,2.217,7,2.217,0,93,93,91,1,166,cake,yogurt,,90279,001,2022-04-24_21h32.57.076,SPAMnetsValid,2021.1.4,Win32,59.96641881,,,,,,,,,,,,,,,,,,,,,,,,,,,,,,,,,,,,,,,,,,,,,,,,,,,,,,,,,,,,,,,,,,,,,,,,,,,,,,,,,,,,,,,,,
,,1,3.0213,1,3.0213,0,94,94,49,1,152,cactus,strawberry,,90279,001,2022-04-24_21h32.57.076,SPAMnetsValid,2021.1.4,Win32,59.96641881,,,,,,,,,,,,,,,,,,,,,,,,,,,,,,,,,,,,,,,,,,,,,,,,,,,,,,,,,,,,,,,,,,,,,,,,,,,,,,,,,,,,,,,,,
,,1,1.1416,1,1.1416,0,95,95,94,1,133,cake,flower,,90279,001,2022-04-24_21h32.57.076,SPAMnetsValid,2021.1.4,Win32,59.96641881,,,,,,,,,,,,,,,,,,,,,,,,,,,,,,,,,,,,,,,,,,,,,,,,,,,,,,,,,,,,,,,,,,,,,,,,,,,,,,,,,,,,,,,,,
,,1,1.0253,1,1.0253,0,96,96,54,1,101,cactus,kitchen,,90279,001,2022-04-24_21h32.57.076,SPAMnetsValid,2021.1.4,Win32,59.96641881,,,,,,,,,,,,,,,,,,,,,,,,,,,,,,,,,,,,,,,,,,,,,,,,,,,,,,,,,,,,,,,,,,,,,,,,,,,,,,,,,,,,,,,,,
,,,,,,,,,,,,,,,90279,001,2022-04-24_21h32.57.076,SPAMnetsValid,2021.1.4,Win32,59.96641881,0,0,0,0,1,,,,,,,,,,,,,,,,,,,,,,,,,,,,,,,,,,,,,,,,,,,,,,,,,,,,,,,,,,,,,,,,,,,,,,,,,,,,,,,,,,,,
,,,,,,,,,,,,,,,90279,001,2022-04-24_21h32.57.076,SPAMnetsValid,2021.1.4,Win32,59.96641881,,,,,,0,0,0,1,1,0,1,,,,,,,,,,,,,,,,,,,,,,,,,,,,,,,,,,,,,,,,,,,,,,,,,,,,,,,,,,,,,,,,,,,,,,,,,,,,,
,,,,2,7.5341,,,,,,81,pretzel,yogurt,,90279,001,2022-04-24_21h32.57.076,SPAMnetsValid,2021.1.4,Win32,59.96641881,,,,,,,,,,,,,2,7.5341,0,0,0,50,1,,,,,,,,,,,,,,,,,,,,,,,,,,,,,,,,,,,,,,,,,,,,,,,,,,,,,,,,,,,,,,,,,,,,,,
,,,,1,2.0751,,,,,,5,oven,tree,,90279,001,2022-04-24_21h32.57.076,SPAMnetsValid,2021.1.4,Win32,59.96641881,,,,,,,,,,,,,1,2.0751,0,1,1,70,1,,,,,,,,,,,,,,,,,,,,,,,,,,,,,,,,,,,,,,,,,,,,,,,,,,,,,,,,,,,,,,,,,,,,,,
,,,,8,1.7327,,,,,,94,kitchen,microwave,,90279,001,2022-04-24_21h32.57.076,SPAMnetsValid,2021.1.4,Win32,59.96641881,,,,,,,,,,,,,8,1.7327,0,2,2,58,1,,,,,,,,,,,,,,,,,,,,,,,,,,,,,,,,,,,,,,,,,,,,,,,,,,,,,,,,,,,,,,,,,,,,,,
,,,,3,1.6841,,,,,,29,chocolate,melon,,90279,001,2022-04-24_21h32.57.076,SPAMnetsValid,2021.1.4,Win32,59.96641881,,,,,,,,,,,,,3,1.6841,0,3,3,34,1,,,,,,,,,,,,,,,,,,,,,,,,,,,,,,,,,,,,,,,,,,,,,,,,,,,,,,,,,,,,,,,,,,,,,,
,,,,4,1.3331,,,,,,1,rose,yogurt,,90279,001,2022-04-24_21h32.57.076,SPAMnetsValid,2021.1.4,Win32,59.96641881,,,,,,,,,,,,,4,1.3331,0,4,4,55,1,,,,,,,,,,,,,,,,,,,,,,,,,,,,,,,,,,,,,,,,,,,,,,,,,,,,,,,,,,,,,,,,,,,,,,
,,,,1,1.6492,,,,,,70,chocolate,onion,,90279,001,2022-04-24_21h32.57.076,SPAMnetsValid,2021.1.4,Win32,59.96641881,,,,,,,,,,,,,1,1.6492,0,5,5,74,1,,,,,,,,,,,,,,,,,,,,,,,,,,,,,,,,,,,,,,,,,,,,,,,,,,,,,,,,,,,,,,,,,,,,,,
,,,,1,0.9493,,,,,,78,cookie,rose,,90279,001,2022-04-24_21h32.57.076,SPAMnetsValid,2021.1.4,Win32,59.96641881,,,,,,,,,,,,,1,0.9493,0,6,6,56,1,,,,,,,,,,,,,,,,,,,,,,,,,,,,,,,,,,,,,,,,,,,,,,,,,,,,,,,,,,,,,,,,,,,,,,
,,,,1,0.8032,,,,,,11,refrigerator,tree,,90279,001,2022-04-24_21h32.57.076,SPAMnetsValid,2021.1.4,Win32,59.96641881,,,,,,,,,,,,,1,0.8032,0,7,7,43,1,,,,,,,,,,,,,,,,,,,,,,,,,,,,,,,,,,,,,,,,,,,,,,,,,,,,,,,,,,,,,,,,,,,,,,
,,,,1,1.0587,,,,,,58,garden,oven,,90279,001,2022-04-24_21h32.57.076,SPAMnetsValid,2021.1.4,Win32,59.96641881,,,,,,,,,,,,,1,1.0587,0,8,8,37,1,,,,,,,,,,,,,,,,,,,,,,,,,,,,,,,,,,,,,,,,,,,,,,,,,,,,,,,,,,,,,,,,,,,,,,
,,,,1,1.5584,,,,,,37,garden,refrigerator,,90279,001,2022-04-24_21h32.57.076,SPAMnetsValid,2021.1.4,Win32,59.96641881,,,,,,,,,,,,,1,1.5584,0,9,9,11,1,,,,,,,,,,,,,,,,,,,,,,,,,,,,,,,,,,,,,,,,,,,,,,,,,,,,,,,,,,,,,,,,,,,,,,
,,,,9,1.691,,,,,,76,garden,rose,,90279,001,2022-04-24_21h32.57.076,SPAMnetsValid,2021.1.4,Win32,59.96641881,,,,,,,,,,,,,9,1.691,0,10,10,19,1,,,,,,,,,,,,,,,,,,,,,,,,,,,,,,,,,,,,,,,,,,,,,,,,,,,,,,,,,,,,,,,,,,,,,,
,,,,1,2.6245,,,,,,59,rose,strawberry,,90279,001,2022-04-24_21h32.57.076,SPAMnetsValid,2021.1.4,Win32,59.96641881,,,,,,,,,,,,,1,2.6245,0,11,11,72,1,,,,,,,,,,,,,,,,,,,,,,,,,,,,,,,,,,,,,,,,,,,,,,,,,,,,,,,,,,,,,,,,,,,,,,
,,,,9,3.1727,,,,,,77,refrigerator,yogurt,,90279,001,2022-04-24_21h32.57.076,SPAMnetsValid,2021.1.4,Win32,59.96641881,,,,,,,,,,,,,9,3.1727,0,12,12,42,1,,,,,,,,,,,,,,,,,,,,,,,,,,,,,,,,,,,,,,,,,,,,,,,,,,,,,,,,,,,,,,,,,,,,,,
,,,,2,3.529,,,,,,73,broom,chocolate,,90279,001,2022-04-24_21h32.57.076,SPAMnetsValid,2021.1.4,Win32,59.96641881,,,,,,,,,,,,,2,3.529,0,13,13,47,1,,,,,,,,,,,,,,,,,,,,,,,,,,,,,,,,,,,,,,,,,,,,,,,,,,,,,,,,,,,,,,,,,,,,,,
,,,,2,0.6832,,,,,,72,broom,onion,,90279,001,2022-04-24_21h32.57.076,SPAMnetsValid,2021.1.4,Win32,59.96641881,,,,,,,,,,,,,2,0.6832,0,14,14,27,1,,,,,,,,,,,,,,,,,,,,,,,,,,,,,,,,,,,,,,,,,,,,,,,,,,,,,,,,,,,,,,,,,,,,,,
,,,,1,1.7623,,,,,,67,flower,yogurt,,90279,001,2022-04-24_21h32.57.076,SPAMnetsValid,2021.1.4,Win32,59.96641881,,,,,,,,,,,,,1,1.7623,0,15,15,12,1,,,,,,,,,,,,,,,,,,,,,,,,,,,,,,,,,,,,,,,,,,,,,,,,,,,,,,,,,,,,,,,,,,,,,,
,,,,1,1.6377,,,,,,13,broom,yogurt,,90279,001,2022-04-24_21h32.57.076,SPAMnetsValid,2021.1.4,Win32,59.96641881,,,,,,,,,,,,,1,1.6377,0,16,16,5,1,,,,,,,,,,,,,,,,,,,,,,,,,,,,,,,,,,,,,,,,,,,,,,,,,,,,,,,,,,,,,,,,,,,,,,
,,,,1,1.0481,,,,,,27,cactus,cookie,,90279,001,2022-04-24_21h32.57.076,SPAMnetsValid,2021.1.4,Win32,59.96641881,,,,,,,,,,,,,1,1.0481,0,17,17,17,1,,,,,,,,,,,,,,,,,,,,,,,,,,,,,,,,,,,,,,,,,,,,,,,,,,,,,,,,,,,,,,,,,,,,,,
,,,,1,2.0884,,,,,,31,cactus,pretzel,,90279,001,2022-04-24_21h32.57.076,SPAMnetsValid,2021.1.4,Win32,59.96641881,,,,,,,,,,,,,1,2.0884,0,18,18,1,1,,,,,,,,,,,,,,,,,,,,,,,,,,,,,,,,,,,,,,,,,,,,,,,,,,,,,,,,,,,,,,,,,,,,,,
,,,,9,1.6703,,,,,,191,cake,cake,CHECK,90279,001,2022-04-24_21h32.57.076,SPAMnetsValid,2021.1.4,Win32,59.96641881,,,,,,,,,,,,,9,1.6703,0,19,19,10,1,,,,,,,,,,,,,,,,,,,,,,,,,,,,,,,,,,,,,,,,,,,,,,,,,,,,,,,,,,,,,,,,,,,,,,
,,,,5,3.9178,,,,,,6,garden,onion,,90279,001,2022-04-24_21h32.57.076,SPAMnetsValid,2021.1.4,Win32,59.96641881,,,,,,,,,,,,,5,3.9178,0,20,20,83,1,,,,,,,,,,,,,,,,,,,,,,,,,,,,,,,,,,,,,,,,,,,,,,,,,,,,,,,,,,,,,,,,,,,,,,
,,,,1,2.7379,,,,,,24,cookie,tomato,,90279,001,2022-04-24_21h32.57.076,SPAMnetsValid,2021.1.4,Win32,59.96641881,,,,,,,,,,,,,1,2.7379,0,21,21,68,1,,,,,,,,,,,,,,,,,,,,,,,,,,,,,,,,,,,,,,,,,,,,,,,,,,,,,,,,,,,,,,,,,,,,,,
,,,,7,1.8417,,,,,,18,onion,refrigerator,,90279,001,2022-04-24_21h32.57.076,SPAMnetsValid,2021.1.4,Win32,59.96641881,,,,,,,,,,,,,7,1.8417,0,22,22,62,1,,,,,,,,,,,,,,,,,,,,,,,,,,,,,,,,,,,,,,,,,,,,,,,,,,,,,,,,,,,,,,,,,,,,,,
,,,,3,2.3673,,,,,,17,carrot,melon,,90279,001,2022-04-24_21h32.57.076,SPAMnetsValid,2021.1.4,Win32,59.96641881,,,,,,,,,,,,,3,2.3673,0,23,23,24,1,,,,,,,,,,,,,,,,,,,,,,,,,,,,,,,,,,,,,,,,,,,,,,,,,,,,,,,,,,,,,,,,,,,,,,
,,,,6,1.968,,,,,,69,carrot,refrigerator,,90279,001,2022-04-24_21h32.57.076,SPAMnetsValid,2021.1.4,Win32,59.96641881,,,,,,,,,,,,,6,1.968,0,24,24,75,1,,,,,,,,,,,,,,,,,,,,,,,,,,,,,,,,,,,,,,,,,,,,,,,,,,,,,,,,,,,,,,,,,,,,,,
,,,,5,3.5209,,,,,,68,flower,tomato,,90279,001,2022-04-24_21h32.57.076,SPAMnetsValid,2021.1.4,Win32,59.96641881,,,,,,,,,,,,,5,3.5209,0,25,25,94,1,,,,,,,,,,,,,,,,,,,,,,,,,,,,,,,,,,,,,,,,,,,,,,,,,,,,,,,,,,,,,,,,,,,,,,
,,,,2,1.9836,,,,,,34,melon,oven,,90279,001,2022-04-24_21h32.57.076,SPAMnetsValid,2021.1.4,Win32,59.96641881,,,,,,,,,,,,,2,1.9836,0,26,26,7,1,,,,,,,,,,,,,,,,,,,,,,,,,,,,,,,,,,,,,,,,,,,,,,,,,,,,,,,,,,,,,,,,,,,,,,
,,,,8,1.8753,,,,,,22,kitchen,strawberry,,90279,001,2022-04-24_21h32.57.076,SPAMnetsValid,2021.1.4,Win32,59.96641881,,,,,,,,,,,,,8,1.8753,0,27,27,2,1,,,,,,,,,,,,,,,,,,,,,,,,,,,,,,,,,,,,,,,,,,,,,,,,,,,,,,,,,,,,,,,,,,,,,,
,,,,5,3.0324,,,,,,95,broom,refrigerator,,90279,001,2022-04-24_21h32.57.076,SPAMnetsValid,2021.1.4,Win32,59.96641881,,,,,,,,,,,,,5,3.0324,0,28,28,90,1,,,,,,,,,,,,,,,,,,,,,,,,,,,,,,,,,,,,,,,,,,,,,,,,,,,,,,,,,,,,,,,,,,,,,,
,,,,3,1.6886,,,,,,28,cake,melon,,90279,001,2022-04-24_21h32.57.076,SPAMnetsValid,2021.1.4,Win32,59.96641881,,,,,,,,,,,,,3,1.6886,0,29,29,54,1,,,,,,,,,,,,,,,,,,,,,,,,,,,,,,,,,,,,,,,,,,,,,,,,,,,,,,,,,,,,,,,,,,,,,,
,,,,1,4.3901,,,,,,92,broom,flower,,90279,001,2022-04-24_21h32.57.076,SPAMnetsValid,2021.1.4,Win32,59.96641881,,,,,,,,,,,,,1,4.3901,0,30,30,88,1,,,,,,,,,,,,,,,,,,,,,,,,,,,,,,,,,,,,,,,,,,,,,,,,,,,,,,,,,,,,,,,,,,,,,,
,,,,1,1.0878,,,,,,43,chocolate,tomato,,90279,001,2022-04-24_21h32.57.076,SPAMnetsValid,2021.1.4,Win32,59.96641881,,,,,,,,,,,,,1,1.0878,0,31,31,8,1,,,,,,,,,,,,,,,,,,,,,,,,,,,,,,,,,,,,,,,,,,,,,,,,,,,,,,,,,,,,,,,,,,,,,,
,,,,1,1.1031,,,,,,33,oven,yogurt,,90279,001,2022-04-24_21h32.57.076,SPAMnetsValid,2021.1.4,Win32,59.96641881,,,,,,,,,,,,,1,1.1031,0,32,32,31,1,,,,,,,,,,,,,,,,,,,,,,,,,,,,,,,,,,,,,,,,,,,,,,,,,,,,,,,,,,,,,,,,,,,,,,
,,,,5,3.9398,,,,,,80,chocolate,tree,,90279,001,2022-04-24_21h32.57.076,SPAMnetsValid,2021.1.4,Win32,59.96641881,,,,,,,,,,,,,5,3.9398,0,33,33,89,1,,,,,,,,,,,,,,,,,,,,,,,,,,,,,,,,,,,,,,,,,,,,,,,,,,,,,,,,,,,,,,,,,,,,,,
,,,,4,3.6174,,,,,,15,onion,oven,,90279,001,2022-04-24_21h32.57.076,SPAMnetsValid,2021.1.4,Win32,59.96641881,,,,,,,,,,,,,4,3.6174,0,34,34,39,1,,,,,,,,,,,,,,,,,,,,,,,,,,,,,,,,,,,,,,,,,,,,,,,,,,,,,,,,,,,,,,,,,,,,,,
,,,,1,1.5322,,,,,,75,cookie,onion,,90279,001,2022-04-24_21h32.57.076,SPAMnetsValid,2021.1.4,Win32,59.96641881,,,,,,,,,,,,,1,1.5322,0,35,35,9,1,,,,,,,,,,,,,,,,,,,,,,,,,,,,,,,,,,,,,,,,,,,,,,,,,,,,,,,,,,,,,,,,,,,,,,
,,,,1,0.8128,,,,,,61,strawberry,tomato,,90279,001,2022-04-24_21h32.57.076,SPAMnetsValid,2021.1.4,Win32,59.96641881,,,,,,,,,,,,,1,0.8128,0,36,36,80,1,,,,,,,,,,,,,,,,,,,,,,,,,,,,,,,,,,,,,,,,,,,,,,,,,,,,,,,,,,,,,,,,,,,,,,
,,,,6,2.2009,,,,,,19,microwave,pretzel,,90279,001,2022-04-24_21h32.57.076,SPAMnetsValid,2021.1.4,Win32,59.96641881,,,,,,,,,,,,,6,2.2009,0,37,37,41,1,,,,,,,,,,,,,,,,,,,,,,,,,,,,,,,,,,,,,,,,,,,,,,,,,,,,,,,,,,,,,,,,,,,,,,
,,,,9,1.9172,,,,,,3,cake,oven,,90279,001,2022-04-24_21h32.57.076,SPAMnetsValid,2021.1.4,Win32,59.96641881,,,,,,,,,,,,,9,1.9172,0,38,38,30,1,,,,,,,,,,,,,,,,,,,,,,,,,,,,,,,,,,,,,,,,,,,,,,,,,,,,,,,,,,,,,,,,,,,,,,
,,,,1,2.6423,,,,,,53,garden,pretzel,,90279,001,2022-04-24_21h32.57.076,SPAMnetsValid,2021.1.4,Win32,59.96641881,,,,,,,,,,,,,1,2.6423,0,39,39,0,1,,,,,,,,,,,,,,,,,,,,,,,,,,,,,,,,,,,,,,,,,,,,,,,,,,,,,,,,,,,,,,,,,,,,,,
,,,,1,0.8579,,,,,,64,chocolate,garden,,90279,001,2022-04-24_21h32.57.076,SPAMnetsValid,2021.1.4,Win32,59.96641881,,,,,,,,,,,,,1,0.8579,0,40,40,14,1,,,,,,,,,,,,,,,,,,,,,,,,,,,,,,,,,,,,,,,,,,,,,,,,,,,,,,,,,,,,,,,,,,,,,,
,,,,4,1.703,,,,,,25,carrot,onion,,90279,001,2022-04-24_21h32.57.076,SPAMnetsValid,2021.1.4,Win32,59.96641881,,,,,,,,,,,,,4,1.703,0,41,41,44,1,,,,,,,,,,,,,,,,,,,,,,,,,,,,,,,,,,,,,,,,,,,,,,,,,,,,,,,,,,,,,,,,,,,,,,
,,,,8,2.7727,,,,,,82,cake,kitchen,,90279,001,2022-04-24_21h32.57.076,SPAMnetsValid,2021.1.4,Win32,59.96641881,,,,,,,,,,,,,8,2.7727,0,42,42,96,1,,,,,,,,,,,,,,,,,,,,,,,,,,,,,,,,,,,,,,,,,,,,,,,,,,,,,,,,,,,,,,,,,,,,,,
,,,,5,2.0521,,,,,,38,pretzel,refrigerator,,90279,001,2022-04-24_21h32.57.076,SPAMnetsValid,2021.1.4,Win32,59.96641881,,,,,,,,,,,,,5,2.0521,0,43,43,71,1,,,,,,,,,,,,,,,,,,,,,,,,,,,,,,,,,,,,,,,,,,,,,,,,,,,,,,,,,,,,,,,,,,,,,,
,,,,4,1.8325,,,,,,46,garden,yogurt,,90279,001,2022-04-24_21h32.57.076,SPAMnetsValid,2021.1.4,Win32,59.96641881,,,,,,,,,,,,,4,1.8325,0,44,44,65,1,,,,,,,,,,,,,,,,,,,,,,,,,,,,,,,,,,,,,,,,,,,,,,,,,,,,,,,,,,,,,,,,,,,,,,
,,,,1,1.9213,,,,,,23,flower,microwave,,90279,001,2022-04-24_21h32.57.076,SPAMnetsValid,2021.1.4,Win32,59.96641881,,,,,,,,,,,,,1,1.9213,0,45,45,25,1,,,,,,,,,,,,,,,,,,,,,,,,,,,,,,,,,,,,,,,,,,,,,,,,,,,,,,,,,,,,,,,,,,,,,,
,,,,1,1.0151,,,,,,16,chocolate,flower,,90279,001,2022-04-24_21h32.57.076,SPAMnetsValid,2021.1.4,Win32,59.96641881,,,,,,,,,,,,,1,1.0151,0,46,46,22,1,,,,,,,,,,,,,,,,,,,,,,,,,,,,,,,,,,,,,,,,,,,,,,,,,,,,,,,,,,,,,,,,,,,,,,
,,,,3,3.0829,,,,,,62,kitchen,rose,,90279,001,2022-04-24_21h32.57.076,SPAMnetsValid,2021.1.4,Win32,59.96641881,,,,,,,,,,,,,3,3.0829,0,47,47,57,1,,,,,,,,,,,,,,,,,,,,,,,,,,,,,,,,,,,,,,,,,,,,,,,,,,,,,,,,,,,,,,,,,,,,,,
,,,,1,1.3869,,,,,,41,broom,cactus,,90279,001,2022-04-24_21h32.57.076,SPAMnetsValid,2021.1.4,Win32,59.96641881,,,,,,,,,,,,,1,1.3869,0,48,48,46,1,,,,,,,,,,,,,,,,,,,,,,,,,,,,,,,,,,,,,,,,,,,,,,,,,,,,,,,,,,,,,,,,,,,,,,
,,,,5,6.3799,,,,,,89,chocolate,rose,,90279,001,2022-04-24_21h32.57.076,SPAMnetsValid,2021.1.4,Win32,59.96641881,,,,,,,,,,,,,5,6.3799,0,49,49,60,1,,,,,,,,,,,,,,,,,,,,,,,,,,,,,,,,,,,,,,,,,,,,,,,,,,,,,,,,,,,,,,,,,,,,,,
,,,,1,2.3718,,,,,,85,cake,tree,,90279,001,2022-04-24_21h32.57.076,SPAMnetsValid,2021.1.4,Win32,59.96641881,,,,,,,,,,,,,1,2.3718,0,50,50,18,1,,,,,,,,,,,,,,,,,,,,,,,,,,,,,,,,,,,,,,,,,,,,,,,,,,,,,,,,,,,,,,,,,,,,,,
,,,,1,1.4331,,,,,,56,cactus,tree,,90279,001,2022-04-24_21h32.57.076,SPAMnetsValid,2021.1.4,Win32,59.96641881,,,,,,,,,,,,,1,1.4331,0,51,51,21,1,,,,,,,,,,,,,,,,,,,,,,,,,,,,,,,,,,,,,,,,,,,,,,,,,,,,,,,,,,,,,,,,,,,,,,
,,,,1,1.7175,,,,,,71,broom,rose,,90279,001,2022-04-24_21h32.57.076,SPAMnetsValid,2021.1.4,Win32,59.96641881,,,,,,,,,,,,,1,1.7175,0,52,52,61,1,,,,,,,,,,,,,,,,,,,,,,,,,,,,,,,,,,,,,,,,,,,,,,,,,,,,,,,,,,,,,,,,,,,,,,
,,,,2,1.7861,,,,,,49,flower,strawberry,,90279,001,2022-04-24_21h32.57.076,SPAMnetsValid,2021.1.4,Win32,59.96641881,,,,,,,,,,,,,2,1.7861,0,53,53,3,1,,,,,,,,,,,,,,,,,,,,,,,,,,,,,,,,,,,,,,,,,,,,,,,,,,,,,,,,,,,,,,,,,,,,,,
,,,,1,1.6861,,,,,,86,oven,rose,,90279,001,2022-04-24_21h32.57.076,SPAMnetsValid,2021.1.4,Win32,59.96641881,,,,,,,,,,,,,1,1.6861,0,54,54,79,1,,,,,,,,,,,,,,,,,,,,,,,,,,,,,,,,,,,,,,,,,,,,,,,,,,,,,,,,,,,,,,,,,,,,,,
,,,,5,1.9348,,,,,,47,onion,tomato,,90279,001,2022-04-24_21h32.57.076,SPAMnetsValid,2021.1.4,Win32,59.96641881,,,,,,,,,,,,,5,1.9348,0,55,55,51,1,,,,,,,,,,,,,,,,,,,,,,,,,,,,,,,,,,,,,,,,,,,,,,,,,,,,,,,,,,,,,,,,,,,,,,
,,,,2,3.363,,,,,,14,broom,cookie,,90279,001,2022-04-24_21h32.57.076,SPAMnetsValid,2021.1.4,Win32,59.96641881,,,,,,,,,,,,,2,3.363,0,56,56,16,1,,,,,,,,,,,,,,,,,,,,,,,,,,,,,,,,,,,,,,,,,,,,,,,,,,,,,,,,,,,,,,,,,,,,,,
,,,,8,3.1023,,,,,,2,kitchen,onion,,90279,001,2022-04-24_21h32.57.076,SPAMnetsValid,2021.1.4,Win32,59.96641881,,,,,,,,,,,,,8,3.1023,0,57,57,91,1,,,,,,,,,,,,,,,,,,,,,,,,,,,,,,,,,,,,,,,,,,,,,,,,,,,,,,,,,,,,,,,,,,,,,,
,,,,2,3.2241,,,,,,60,cactus,onion,,90279,001,2022-04-24_21h32.57.076,SPAMnetsValid,2021.1.4,Win32,59.96641881,,,,,,,,,,,,,2,3.2241,0,58,58,81,1,,,,,,,,,,,,,,,,,,,,,,,,,,,,,,,,,,,,,,,,,,,,,,,,,,,,,,,,,,,,,,,,,,,,,,
,,,,5,2.371,,,,,,88,cactus,melon,,90279,001,2022-04-24_21h32.57.076,SPAMnetsValid,2021.1.4,Win32,59.96641881,,,,,,,,,,,,,5,2.371,0,59,59,38,1,,,,,,,,,,,,,,,,,,,,,,,,,,,,,,,,,,,,,,,,,,,,,,,,,,,,,,,,,,,,,,,,,,,,,,
,,,,5,2.4439,,,,,,52,carrot,tomato,,90279,001,2022-04-24_21h32.57.076,SPAMnetsValid,2021.1.4,Win32,59.96641881,,,,,,,,,,,,,5,2.4439,0,60,60,95,1,,,,,,,,,,,,,,,,,,,,,,,,,,,,,,,,,,,,,,,,,,,,,,,,,,,,,,,,,,,,,,,,,,,,,,
,,,,2,2.6134,,,,,,7,melon,tree,,90279,001,2022-04-24_21h32.57.076,SPAMnetsValid,2021.1.4,Win32,59.96641881,,,,,,,,,,,,,2,2.6134,0,61,61,77,1,,,,,,,,,,,,,,,,,,,,,,,,,,,,,,,,,,,,,,,,,,,,,,,,,,,,,,,,,,,,,,,,,,,,,,
,,,,8,2.4072,,,,,,57,flower,kitchen,,90279,001,2022-04-24_21h32.57.076,SPAMnetsValid,2021.1.4,Win32,59.96641881,,,,,,,,,,,,,8,2.4072,0,62,62,49,1,,,,,,,,,,,,,,,,,,,,,,,,,,,,,,,,,,,,,,,,,,,,,,,,,,,,,,,,,,,,,,,,,,,,,,
,,,,2,3.2517,,,,,,48,flower,oven,,90279,001,2022-04-24_21h32.57.076,SPAMnetsValid,2021.1.4,Win32,59.96641881,,,,,,,,,,,,,2,3.2517,0,63,63,15,1,,,,,,,,,,,,,,,,,,,,,,,,,,,,,,,,,,,,,,,,,,,,,,,,,,,,,,,,,,,,,,,,,,,,,,
,,,,5,2.3434,,,,,,51,onion,strawberry,,90279,001,2022-04-24_21h32.57.076,SPAMnetsValid,2021.1.4,Win32,59.96641881,,,,,,,,,,,,,5,2.3434,0,64,64,86,1,,,,,,,,,,,,,,,,,,,,,,,,,,,,,,,,,,,,,,,,,,,,,,,,,,,,,,,,,,,,,,,,,,,,,,
,,,,1,1.9708,,,,,,10,flower,onion,,90279,001,2022-04-24_21h32.57.076,SPAMnetsValid,2021.1.4,Win32,59.96641881,,,,,,,,,,,,,1,1.9708,0,65,65,45,1,,,,,,,,,,,,,,,,,,,,,,,,,,,,,,,,,,,,,,,,,,,,,,,,,,,,,,,,,,,,,,,,,,,,,,
,,,,9,1.5866,,,,,,63,cake,cookie,,90279,001,2022-04-24_21h32.57.076,SPAMnetsValid,2021.1.4,Win32,59.96641881,,,,,,,,,,,,,9,1.5866,0,66,66,93,1,,,,,,,,,,,,,,,,,,,,,,,,,,,,,,,,,,,,,,,,,,,,,,,,,,,,,,,,,,,,,,,,,,,,,,
,,,,5,1.9164,,,,,,84,oven,tomato,,90279,001,2022-04-24_21h32.57.076,SPAMnetsValid,2021.1.4,Win32,59.96641881,,,,,,,,,,,,,5,1.9164,0,67,67,28,1,,,,,,,,,,,,,,,,,,,,,,,,,,,,,,,,,,,,,,,,,,,,,,,,,,,,,,,,,,,,,,,,,,,,,,
,,,,2,3.1255,,,,,,32,cake,microwave,,90279,001,2022-04-24_21h32.57.076,SPAMnetsValid,2021.1.4,Win32,59.96641881,,,,,,,,,,,,,2,3.1255,0,68,68,33,1,,,,,,,,,,,,,,,,,,,,,,,,,,,,,,,,,,,,,,,,,,,,,,,,,,,,,,,,,,,,,,,,,,,,,,
,,,,9,2.7886,,,,,,79,garden,strawberry,,90279,001,2022-04-24_21h32.57.076,SPAMnetsValid,2021.1.4,Win32,59.96641881,,,,,,,,,,,,,9,2.7886,0,69,69,87,1,,,,,,,,,,,,,,,,,,,,,,,,,,,,,,,,,,,,,,,,,,,,,,,,,,,,,,,,,,,,,,,,,,,,,,
,,,,1,3.1371,,,,,,42,garden,kitchen,,90279,001,2022-04-24_21h32.57.076,SPAMnetsValid,2021.1.4,Win32,59.96641881,,,,,,,,,,,,,1,3.1371,0,70,70,29,1,,,,,,,,,,,,,,,,,,,,,,,,,,,,,,,,,,,,,,,,,,,,,,,,,,,,,,,,,,,,,,,,,,,,,,
,,,,7,2.2188,,,,,,12,cookie,yogurt,,90279,001,2022-04-24_21h32.57.076,SPAMnetsValid,2021.1.4,Win32,59.96641881,,,,,,,,,,,,,7,2.2188,0,71,71,36,1,,,,,,,,,,,,,,,,,,,,,,,,,,,,,,,,,,,,,,,,,,,,,,,,,,,,,,,,,,,,,,,,,,,,,,
,,,,1,7.595,,,,,,74,broom,pretzel,,90279,001,2022-04-24_21h32.57.076,SPAMnetsValid,2021.1.4,Win32,59.96641881,,,,,,,,,,,,,1,7.595,0,72,72,40,1,,,,,,,,,,,,,,,,,,,,,,,,,,,,,,,,,,,,,,,,,,,,,,,,,,,,,,,,,,,,,,,,,,,,,,
,,,,5,2.2037,,,,,,55,tomato,tree,,90279,001,2022-04-24_21h32.57.076,SPAMnetsValid,2021.1.4,Win32,59.96641881,,,,,,,,,,,,,5,2.2037,0,73,73,35,1,,,,,,,,,,,,,,,,,,,,,,,,,,,,,,,,,,,,,,,,,,,,,,,,,,,,,,,,,,,,,,,,,,,,,,
,,,,8,1.915,,,,,,4,chocolate,pretzel,,90279,001,2022-04-24_21h32.57.076,SPAMnetsValid,2021.1.4,Win32,59.96641881,,,,,,,,,,,,,8,1.915,0,74,74,52,1,,,,,,,,,,,,,,,,,,,,,,,,,,,,,,,,,,,,,,,,,,,,,,,,,,,,,,,,,,,,,,,,,,,,,,
,,,,1,1.199,,,,,,83,broom,carrot,,90279,001,2022-04-24_21h32.57.076,SPAMnetsValid,2021.1.4,Win32,59.96641881,,,,,,,,,,,,,1,1.199,0,75,75,4,1,,,,,,,,,,,,,,,,,,,,,,,,,,,,,,,,,,,,,,,,,,,,,,,,,,,,,,,,,,,,,,,,,,,,,,
,,,,9,1.6506,,,,,,36,broom,kitchen,,90279,001,2022-04-24_21h32.57.076,SPAMnetsValid,2021.1.4,Win32,59.96641881,,,,,,,,,,,,,9,1.6506,0,76,76,76,1,,,,,,,,,,,,,,,,,,,,,,,,,,,,,,,,,,,,,,,,,,,,,,,,,,,,,,,,,,,,,,,,,,,,,,
,,,,2,1.653,,,,,,50,carrot,rose,,90279,001,2022-04-24_21h32.57.076,SPAMnetsValid,2021.1.4,Win32,59.96641881,,,,,,,,,,,,,2,1.653,0,77,77,73,1,,,,,,,,,,,,,,,,,,,,,,,,,,,,,,,,,,,,,,,,,,,,,,,,,,,,,,,,,,,,,,,,,,,,,,
,,,,9,2.8096,,,,,,93,kitchen,oven,,90279,001,2022-04-24_21h32.57.076,SPAMnetsValid,2021.1.4,Win32,59.96641881,,,,,,,,,,,,,9,2.8096,0,78,78,82,1,,,,,,,,,,,,,,,,,,,,,,,,,,,,,,,,,,,,,,,,,,,,,,,,,,,,,,,,,,,,,,,,,,,,,,
,,,,1,2.2594,,,,,,35,flower,pretzel,,90279,001,2022-04-24_21h32.57.076,SPAMnetsValid,2021.1.4,Win32,59.96641881,,,,,,,,,,,,,1,2.2594,0,79,79,26,1,,,,,,,,,,,,,,,,,,,,,,,,,,,,,,,,,,,,,,,,,,,,,,,,,,,,,,,,,,,,,,,,,,,,,,
,,,,5,2.4954,,,,,,44,cookie,melon,,90279,001,2022-04-24_21h32.57.076,SPAMnetsValid,2021.1.4,Win32,59.96641881,,,,,,,,,,,,,5,2.4954,0,80,80,92,1,,,,,,,,,,,,,,,,,,,,,,,,,,,,,,,,,,,,,,,,,,,,,,,,,,,,,,,,,,,,,,,,,,,,,,
,,,,7,2.3876,,,,,,87,carrot,yogurt,,90279,001,2022-04-24_21h32.57.076,SPAMnetsValid,2021.1.4,Win32,59.96641881,,,,,,,,,,,,,7,2.3876,0,81,81,6,1,,,,,,,,,,,,,,,,,,,,,,,,,,,,,,,,,,,,,,,,,,,,,,,,,,,,,,,,,,,,,,,,,,,,,,
,,,,1,2.3503,,,,,,90,cactus,cake,,90279,001,2022-04-24_21h32.57.076,SPAMnetsValid,2021.1.4,Win32,59.96641881,,,,,,,,,,,,,1,2.3503,0,82,82,85,1,,,,,,,,,,,,,,,,,,,,,,,,,,,,,,,,,,,,,,,,,,,,,,,,,,,,,,,,,,,,,,,,,,,,,,
,,,,1,1.4664,,,,,,8,broom,melon,,90279,001,2022-04-24_21h32.57.076,SPAMnetsValid,2021.1.4,Win32,59.96641881,,,,,,,,,,,,,1,1.4664,0,83,83,59,1,,,,,,,,,,,,,,,,,,,,,,,,,,,,,,,,,,,,,,,,,,,,,,,,,,,,,,,,,,,,,,,,,,,,,,
,,,,3,2.819,,,,,,26,tomato,yogurt,,90279,001,2022-04-24_21h32.57.076,SPAMnetsValid,2021.1.4,Win32,59.96641881,,,,,,,,,,,,,3,2.819,0,84,84,13,1,,,,,,,,,,,,,,,,,,,,,,,,,,,,,,,,,,,,,,,,,,,,,,,,,,,,,,,,,,,,,,,,,,,,,,
,,,,3,16.0245,,,,,,45,onion,pretzel,,90279,001,2022-04-24_21h32.57.076,SPAMnetsValid,2021.1.4,Win32,59.96641881,,,,,,,,,,,,,3,16.0245,0,85,85,69,1,,,,,,,,,,,,,,,,,,,,,,,,,,,,,,,,,,,,,,,,,,,,,,,,,,,,,,,,,,,,,,,,,,,,,,
,,,,5,3.1344,,,,,,65,broom,garden,,90279,001,2022-04-24_21h32.57.076,SPAMnetsValid,2021.1.4,Win32,59.96641881,,,,,,,,,,,,,5,3.1344,0,86,86,23,1,,,,,,,,,,,,,,,,,,,,,,,,,,,,,,,,,,,,,,,,,,,,,,,,,,,,,,,,,,,,,,,,,,,,,,
,,,,1,1.4846,,,,,,21,cake,onion,,90279,001,2022-04-24_21h32.57.076,SPAMnetsValid,2021.1.4,Win32,59.96641881,,,,,,,,,,,,,1,1.4846,0,87,87,63,1,,,,,,,,,,,,,,,,,,,,,,,,,,,,,,,,,,,,,,,,,,,,,,,,,,,,,,,,,,,,,,,,,,,,,,
,,,,7,6.6224,,,,,,66,melon,yogurt,,90279,001,2022-04-24_21h32.57.076,SPAMnetsValid,2021.1.4,Win32,59.96641881,,,,,,,,,,,,,7,6.6224,0,88,88,48,1,,,,,,,,,,,,,,,,,,,,,,,,,,,,,,,,,,,,,,,,,,,,,,,,,,,,,,,,,,,,,,,,,,,,,,
,,,,4,3.6026,,,,,,39,melon,pretzel,,90279,001,2022-04-24_21h32.57.076,SPAMnetsValid,2021.1.4,Win32,59.96641881,,,,,,,,,,,,,4,3.6026,0,89,89,20,1,,,,,,,,,,,,,,,,,,,,,,,,,,,,,,,,,,,,,,,,,,,,,,,,,,,,,,,,,,,,,,,,,,,,,,
,,,,8,2.115,,,,,,54,chocolate,yogurt,,90279,001,2022-04-24_21h32.57.076,SPAMnetsValid,2021.1.4,Win32,59.96641881,,,,,,,,,,,,,8,2.115,0,90,90,67,1,,,,,,,,,,,,,,,,,,,,,,,,,,,,,,,,,,,,,,,,,,,,,,,,,,,,,,,,,,,,,,,,,,,,,,
,,,,6,2.7717,,,,,,30,cookie,pretzel,,90279,001,2022-04-24_21h32.57.076,SPAMnetsValid,2021.1.4,Win32,59.96641881,,,,,,,,,,,,,6,2.7717,0,91,91,78,1,,,,,,,,,,,,,,,,,,,,,,,,,,,,,,,,,,,,,,,,,,,,,,,,,,,,,,,,,,,,,,,,,,,,,,
,,,,1,2.5498,,,,,,91,microwave,rose,,90279,001,2022-04-24_21h32.57.076,SPAMnetsValid,2021.1.4,Win32,59.96641881,,,,,,,,,,,,,1,2.5498,0,92,92,84,1,,,,,,,,,,,,,,,,,,,,,,,,,,,,,,,,,,,,,,,,,,,,,,,,,,,,,,,,,,,,,,,,,,,,,,
,,,,3,1.9322,,,,,,20,rose,tree,,90279,001,2022-04-24_21h32.57.076,SPAMnetsValid,2021.1.4,Win32,59.96641881,,,,,,,,,,,,,3,1.9322,0,93,93,66,1,,,,,,,,,,,,,,,,,,,,,,,,,,,,,,,,,,,,,,,,,,,,,,,,,,,,,,,,,,,,,,,,,,,,,,
,,,,9,1.7192,,,,,,192,microwave,microwave,CHECK,90279,001,2022-04-24_21h32.57.076,SPAMnetsValid,2021.1.4,Win32,59.96641881,,,,,,,,,,,,,9,1.7192,0,94,94,53,1,,,,,,,,,,,,,,,,,,,,,,,,,,,,,,,,,,,,,,,,,,,,,,,,,,,,,,,,,,,,,,,,,,,,,,
,,,,9,1.8369,,,,,,9,kitchen,refrigerator,,90279,001,2022-04-24_21h32.57.076,SPAMnetsValid,2021.1.4,Win32,59.96641881,,,,,,,,,,,,,9,1.8369,0,95,95,64,1,,,,,,,,,,,,,,,,,,,,,,,,,,,,,,,,,,,,,,,,,,,,,,,,,,,,,,,,,,,,,,,,,,,,,,
,,,,3,7.1909,,,,,,40,broom,cake,,90279,001,2022-04-24_21h32.57.076,SPAMnetsValid,2021.1.4,Win32,59.96641881,,,,,,,,,,,,,3,7.1909,0,96,96,32,1,,,,,,,,,,,,,,,,,,,,,,,,,,,,,,,,,,,,,,,,,,,,,,,,,,,,,,,,,,,,,,,,,,,,,,
,,,,,,,,,,,,,,,90279,001,2022-04-24_21h32.57.076,SPAMnetsValid,2021.1.4,Win32,59.96641881,,,,,,,,,,,,,,,,,,,,0,0,0,0,1,,,,,,,,,,,,,,,,,,,,,,,,,,,,,,,,,,,,,,,,,,,,,,,,,,,,,,,,,,,,,,,,,
,,,,,,,,,,,,,,,90279,001,2022-04-24_21h32.57.076,SPAMnetsValid,2021.1.4,Win32,59.96641881,,,,,,0,1,1,0,1,1,0,,,,,,,,,,,,,,,,,,,,,,,,,,,,,,,,,,,,,,,,,,,,,,,,,,,,,,,,,,,,,,,,,,,,,,,,,,,,,
,,,,,,,,,,,,,,,90279,001,2022-04-24_21h32.57.076,SPAMnetsValid,2021.1.4,Win32,59.96641881,,,,,,,,,,,,,,,,,,,,,,,,,3,8.4098,0,0,0,0,1,rancor,forbearance,ridicule,malice,bravery,3,,,,,,,,,,,,,,,,,,,,,,,,,,,,,,,,,,,,,,,,,,,,,,,,,,,,
,,,,,,,,,,,,,,,90279,001,2022-04-24_21h32.57.076,SPAMnetsValid,2021.1.4,Win32,59.96641881,,,,,,,,,,,,,,,,,,,,,,,,,4,20.6976,0,1,1,1,1,raucous,empty,quiet,smooth,harsh,4,,,,,,,,,,,,,,,,,,,,,,,,,,,,,,,,,,,,,,,,,,,,,,,,,,,,
,,,,,,,,,,,,,,,90279,001,2022-04-24_21h32.57.076,SPAMnetsValid,2021.1.4,Win32,59.96641881,,,,,,,,,,,,,,,,,,,,,,,,,3,9.0397,0,2,2,2,1,gargoyle,oil,medicine,carved waterspout,ugly building,3,,,,,,,,,,,,,,,,,,,,,,,,,,,,,,,,,,,,,,,,,,,,,,,,,,,,
,,,,,,,,,,,,,,,90279,001,2022-04-24_21h32.57.076,SPAMnetsValid,2021.1.4,Win32,59.96641881,,,,,,,,,,,,,,,,,,,,,,,,,2,16.6435,0,3,3,3,1,recrudesce,purify,renew activity,lack refinement,crush,2,,,,,,,,,,,,,,,,,,,,,,,,,,,,,,,,,,,,,,,,,,,,,,,,,,,,
,,,,,,,,,,,,,,,90279,001,2022-04-24_21h32.57.076,SPAMnetsValid,2021.1.4,Win32,59.96641881,,,,,,,,,,,,,,,,,,,,,,,,,2,9.8704,0,4,4,4,1,specious,"plausible, but not genuine",noteworthy,class or variety,roomy,1,,,,,,,,,,,,,,,,,,,,,,,,,,,,,,,,,,,,,,,,,,,,,,,,,,,,
,,,,,,,,,,,,,,,90279,001,2022-04-24_21h32.57.076,SPAMnetsValid,2021.1.4,Win32,59.96641881,,,,,,,,,,,,,,,,,,,,,,,,,3,2.9079,0,5,5,5,1,bauble,bubble,showy plaything,idle talk,confusion,2,,,,,,,,,,,,,,,,,,,,,,,,,,,,,,,,,,,,,,,,,,,,,,,,,,,,
,,,,,,,,,,,,,,,90279,001,2022-04-24_21h32.57.076,SPAMnetsValid,2021.1.4,Win32,59.96641881,,,,,,,,,,,,,,,,,,,,,,,,,4,11.3388,0,6,6,6,1,prolific,scarce,producing abundantly,reckless,speaking profanely,2,,,,,,,,,,,,,,,,,,,,,,,,,,,,,,,,,,,,,,,,,,,,,,,,,,,,
,,,,,,,,,,,,,,,90279,001,2022-04-24_21h32.57.076,SPAMnetsValid,2021.1.4,Win32,59.96641881,,,,,,,,,,,,,,,,,,,,,,,,,2,3.2857,0,7,7,7,1,opulent,party,wealthy,happy frame of mind,semiprecious stone,2,,,,,,,,,,,,,,,,,,,,,,,,,,,,,,,,,,,,,,,,,,,,,,,,,,,,
,,,,,,,,,,,,,,,90279,001,2022-04-24_21h32.57.076,SPAMnetsValid,2021.1.4,Win32,59.96641881,,,,,,,,,,,,,,,,,,,,,,,,,1,2.4144,0,8,8,8,1,coercion,conspiracy,strategy,restraint,attraction,3,,,,,,,,,,,,,,,,,,,,,,,,,,,,,,,,,,,,,,,,,,,,,,,,,,,,
,,,,,,,,,,,,,,,90279,001,2022-04-24_21h32.57.076,SPAMnetsValid,2021.1.4,Win32,59.96641881,,,,,,,,,,,,,,,,,,,,,,,,,4,2.7172,0,9,9,9,1,hiatus,animal,calamity,dread,gap,4,,,,,,,,,,,,,,,,,,,,,,,,,,,,,,,,,,,,,,,,,,,,,,,,,,,,
,,,,,,,,,,,,,,,90279,001,2022-04-24_21h32.57.076,SPAMnetsValid,2021.1.4,Win32,59.96641881,,,,,,,,,,,,,,,,,,,,,,,,,2,5.9537,0,10,10,10,1,germane,microbe,contagious,relevant,different,3,,,,,,,,,,,,,,,,,,,,,,,,,,,,,,,,,,,,,,,,,,,,,,,,,,,,
,,,,,,,,,,,,,,,90279,001,2022-04-24_21h32.57.076,SPAMnetsValid,2021.1.4,Win32,59.96641881,,,,,,,,,,,,,,,,,,,,,,,,,2,4.953,0,11,11,11,1,perfunctory,fundamental,formal,superficial,careful,3,,,,,,,,,,,,,,,,,,,,,,,,,,,,,,,,,,,,,,,,,,,,,,,,,,,,
,,,,,,,,,,,,,,,90279,001,2022-04-24_21h32.57.076,SPAMnetsValid,2021.1.4,Win32,59.96641881,,,,,,,,,,,,,,,,,,,,,,,,,4,2.6365,0,12,12,12,1,diverge,reveal,chant,distract the attention of,differ or turn off from,4,,,,,,,,,,,,,,,,,,,,,,,,,,,,,,,,,,,,,,,,,,,,,,,,,,,,
,,,,,,,,,,,,,,,90279,001,2022-04-24_21h32.57.076,SPAMnetsValid,2021.1.4,Win32,59.96641881,,,,,,,,,,,,,,,,,,,,,,,,,4,2.2862,0,13,13,13,1,evoke,take away,anger,connect,bring out,4,,,,,,,,,,,,,,,,,,,,,,,,,,,,,,,,,,,,,,,,,,,,,,,,,,,,
,,,,,,,,,,,,,,,90279,001,2022-04-24_21h32.57.076,SPAMnetsValid,2021.1.4,Win32,59.96641881,,,,,,,,,,,,,,,,,,,,,,,,,4,7.8065,0,14,14,14,1,pertinent,relevant,lying next to,necessary,bold,1,,,,,,,,,,,,,,,,,,,,,,,,,,,,,,,,,,,,,,,,,,,,,,,,,,,,
,,,,,,,,,,,,,,,90279,001,2022-04-24_21h32.57.076,SPAMnetsValid,2021.1.4,Win32,59.96641881,,,,,,,,,,,,,,,,,,,,,,,,,2,2.1626,0,15,15,15,1,holocaust,entirety,destruction,saintly,price,2,,,,,,,,,,,,,,,,,,,,,,,,,,,,,,,,,,,,,,,,,,,,,,,,,,,,
,,,,,,,,,,,,,,,90279,001,2022-04-24_21h32.57.076,SPAMnetsValid,2021.1.4,Win32,59.96641881,,,,,,,,,,,,,,,,,,,,,,,,,1,5.8042,0,16,16,16,1,piquant,mellow,fish,pungent,cloth,3,,,,,,,,,,,,,,,,,,,,,,,,,,,,,,,,,,,,,,,,,,,,,,,,,,,,
,,,,,,,,,,,,,,,90279,001,2022-04-24_21h32.57.076,SPAMnetsValid,2021.1.4,Win32,59.96641881,,,,,,,,,,,,,,,,,,,,,,,,,2,13.103,0,17,17,17,1,firmament,foundation,heavens,strong,glue,2,,,,,,,,,,,,,,,,,,,,,,,,,,,,,,,,,,,,,,,,,,,,,,,,,,,,
,,,,,,,,,,,,,,,90279,001,2022-04-24_21h32.57.076,SPAMnetsValid,2021.1.4,Win32,59.96641881,,,,,,,,,,,,,,,,,,,,,,,,,,,,,,,,,,,,,,4,10.2872,0,0,0,0,1,marketable,partisan,jocular,marriageable,salable,essential,4,,,,,,,,,,,,,,,,,,,,,,,,,,,,,,,,,,,,,,
,,,,,,,,,,,,,,,90279,001,2022-04-24_21h32.57.076,SPAMnetsValid,2021.1.4,Win32,59.96641881,,,,,,,,,,,,,,,,,,,,,,,,,,,,,,,,,,,,,,4,8.8656,0,1,1,1,1,cottontail,squirrel,poplar,boa,marshy plant,rabbit,5,,,,,,,,,,,,,,,,,,,,,,,,,,,,,,,,,,,,,,
,,,,,,,,,,,,,,,90279,001,2022-04-24_21h32.57.076,SPAMnetsValid,2021.1.4,Win32,59.96641881,,,,,,,,,,,,,,,,,,,,,,,,,,,,,,,,,,,,,,3,3.8249,0,2,2,2,1,boggy,afraid,false,marshy,dense,black,3,,,,,,,,,,,,,,,,,,,,,,,,,,,,,,,,,,,,,,
,,,,,,,,,,,,,,,90279,001,2022-04-24_21h32.57.076,SPAMnetsValid,2021.1.4,Win32,59.96641881,,,,,,,,,,,,,,,,,,,,,,,,,,,,,,,,,,,,,,3,9.2647,0,3,3,3,1,gruesomeness,blackness,falseness,vindictiveness,drunkenness,ghastliness,5,,,,,,,,,,,,,,,,,,,,,,,,,,,,,,,,,,,,,,
,,,,,,,,,,,,,,,90279,001,2022-04-24_21h32.57.076,SPAMnetsValid,2021.1.4,Win32,59.96641881,,,,,,,,,,,,,,,,,,,,,,,,,,,,,,,,,,,,,,3,4.6503,0,4,4,4,1,loathing,diffidence,laziness,abhorrence,cleverness,comfort,3,,,,,,,,,,,,,,,,,,,,,,,,,,,,,,,,,,,,,,
,,,,,,,,,,,,,,,90279,001,2022-04-24_21h32.57.076,SPAMnetsValid,2021.1.4,Win32,59.96641881,,,,,,,,,,,,,,,,,,,,,,,,,,,,,,,,,,,,,,2,8.8465,0,5,5,5,1,bantam,fowl,ridicule,cripple,vegetable,ensign,1,,,,,,,,,,,,,,,,,,,,,,,,,,,,,,,,,,,,,,
,,,,,,,,,,,,,,,90279,001,2022-04-24_21h32.57.076,SPAMnetsValid,2021.1.4,Win32,59.96641881,,,,,,,,,,,,,,,,,,,,,,,,,,,,,,,,,,,,,,5,2.0951,0,6,6,6,1,evoke,wake up,surrender,reconnoiter,transcend,call forth,5,,,,,,,,,,,,,,,,,,,,,,,,,,,,,,,,,,,,,,
,,,,,,,,,,,,,,,90279,001,2022-04-24_21h32.57.076,SPAMnetsValid,2021.1.4,Win32,59.96641881,,,,,,,,,,,,,,,,,,,,,,,,,,,,,,,,,,,,,,3,11.3535,0,7,7,7,1,unobtrusive,unintelligent,epileptic,illogical,lineal,modest,5,,,,,,,,,,,,,,,,,,,,,,,,,,,,,,,,,,,,,,
,,,,,,,,,,,,,,,90279,001,2022-04-24_21h32.57.076,SPAMnetsValid,2021.1.4,Win32,59.96641881,,,,,,,,,,,,,,,,,,,,,,,,,,,,,,,,,,,,,,4,2.3304,0,8,8,8,1,terrain,ice cream,final test,tractor,area of ground,weight,4,,,,,,,,,,,,,,,,,,,,,,,,,,,,,,,,,,,,,,
,,,,,,,,,,,,,,,90279,001,2022-04-24_21h32.57.076,SPAMnetsValid,2021.1.4,Win32,59.96641881,,,,,,,,,,,,,,,,,,,,,,,,,,,,,,,,,,,,,,3,13.4533,0,9,9,9,1,capriciousness,stubbornness,courage,whimsicality,amazement,greediness,3,,,,,,,,,,,,,,,,,,,,,,,,,,,,,,,,,,,,,,
,,,,,,,,,,,,,,,90279,001,2022-04-24_21h32.57.076,SPAMnetsValid,2021.1.4,Win32,59.96641881,,,,,,,,,,,,,,,,,,,,,,,,,,,,,,,,,,,,,,1,4.5477,0,10,10,10,1,maelstrom,slander,whirlpool,enmity,armor,majolica,2,,,,,,,,,,,,,,,,,,,,,,,,,,,,,,,,,,,,,,
,,,,,,,,,,,,,,,90279,001,2022-04-24_21h32.57.076,SPAMnetsValid,2021.1.4,Win32,59.96641881,,,,,,,,,,,,,,,,,,,,,,,,,,,,,,,,,,,,,,1,6.4526,0,11,11,11,1,tentative,critical,conclusive,authentic,provisional,apprehensive,4,,,,,,,,,,,,,,,,,,,,,,,,,,,,,,,,,,,,,,
,,,,,,,,,,,,,,,90279,001,2022-04-24_21h32.57.076,SPAMnetsValid,2021.1.4,Win32,59.96641881,,,,,,,,,,,,,,,,,,,,,,,,,,,,,,,,,,,,,,3,37.153,0,12,12,12,1,placate,rehabilitate,plagiarize,depredate,apprise,conciliate,5,,,,,,,,,,,,,,,,,,,,,,,,,,,,,,,,,,,,,,
,,,,,,,,,,,,,,,90279,001,2022-04-24_21h32.57.076,SPAMnetsValid,2021.1.4,Win32,59.96641881,,,,,,,,,,,,,,,,,,,,,,,,,,,,,,,,,,,,,,4,2.7865,0,13,13,13,1,surcease,enlightenment,cessation,inattention,censor,substitution,2,,,,,,,,,,,,,,,,,,,,,,,,,,,,,,,,,,,,,,
,,,,,,,,,,,,,,,90279,001,2022-04-24_21h32.57.076,SPAMnetsValid,2021.1.4,Win32,59.96641881,,,,,,,,,,,,,,,,,,,,,,,,,,,,,,,,,,,,,,2,9.6408,0,14,14,14,1,apathetic,wandering,impassive,hateful,prophetic,overflowing,2,,,,,,,,,,,,,,,,,,,,,,,,,,,,,,,,,,,,,,
,,,,,,,,,,,,,,,90279,001,2022-04-24_21h32.57.076,SPAMnetsValid,2021.1.4,Win32,59.96641881,,,,,,,,,,,,,,,,,,,,,,,,,,,,,,,,,,,,,,1,5.3055,0,15,15,15,1,paternoster,paternalism,patricide,malediction,benediction,prayer,5,,,,,,,,,,,,,,,,,,,,,,,,,,,,,,,,,,,,,,
,,,,,,,,,,,,,,,90279,001,2022-04-24_21h32.57.076,SPAMnetsValid,2021.1.4,Win32,59.96641881,,,,,,,,,,,,,,,,,,,,,,,,,,,,,,,,,,,,,,2,9.6898,0,16,16,16,1,opalescence,opulence,senescence,bankruptcy,iridescence,assiduity,4,,,,,,,,,,,,,,,,,,,,,,,,,,,,,,,,,,,,,,
,,,,,,,,,,,,,,,90279,001,2022-04-24_21h32.57.076,SPAMnetsValid,2021.1.4,Win32,59.96641881,,,,,,,,,,,,,,,,,,,,,,,,,,,,,,,,,,,,,,2,5.8383,0,17,17,17,1,lush,stupid,luxurious,hazy,putrid,languishing,2,,,,,,,,,,,,,,,,,,,,,,,,,,,,,,,,,,,,,,
,,,,,,,,,,,,,,,90279,001,2022-04-24_21h32.57.076,SPAMnetsValid,2021.1.4,Win32,59.96641881,,,,,,,,,,,,,,,,,,,,,,,,,,,,,,,,,,,,,,1,23.6272,0,18,18,18,1,curtailment,expenditure,abandonment,abridgment,improvement,forgery,3,,,,,,,,,,,,,,,,,,,,,,,,,,,,,,,,,,,,,,
,,,,,,,,,,,,,,,90279,001,2022-04-24_21h32.57.076,SPAMnetsValid,2021.1.4,Win32,59.96641881,,,,,,,,,,,,,,,,,,,,,,,,,,,,,,,,,,,,,,3,8.5996,0,19,19,19,1,perversity,adversity,perviousness,travesty,waywardness,gentility,4,,,,,,,,,,,,,,,,,,,,,,,,,,,,,,,,,,,,,,
,,,,,,,,,,,,,,,90279,001,2022-04-24_21h32.57.076,SPAMnetsValid,2021.1.4,Win32,59.96641881,,,,,,,,,,,,,,,,,,,,,,,,,,,,,,,,,,,,,,2,8.2243,0,20,20,20,1,calumnious,complimentary,analogous,slanderous,tempestuous,magnanimous,3,,,,,,,,,,,,,,,,,,,,,,,,,,,,,,,,,,,,,,
,,,,,,,,,,,,,,,90279,001,2022-04-24_21h32.57.076,SPAMnetsValid,2021.1.4,Win32,59.96641881,,,,,,,,,,,,,,,,,,,,,,,,,,,,,,,,,,,,,,1,20.3612,0,21,21,21,1,illiberality,bigotry,imbecility,illegibility,cautery,immaturity,1,,,,,,,,,,,,,,,,,,,,,,,,,,,,,,,,,,,,,,
,,,,,,,,,,,,,,,90279,001,2022-04-24_21h32.57.076,SPAMnetsValid,2021.1.4,Win32,59.96641881,,,,,,,,,,,,,,,,,,,,,,,,,,,,,,,,,,,,,,2,4.619,0,22,22,22,1,clabber,rejoice,gossip,curdle,crow,hobble,3,,,,,,,,,,,,,,,,,,,,,,,,,,,,,,,,,,,,,,
,,,,,,,,,,,,,,,90279,001,2022-04-24_21h32.57.076,SPAMnetsValid,2021.1.4,Win32,59.96641881,,,,,,,,,,,,,,,,,,,,,,,,,,,,,,,,,,,,,,2,21.5685,0,23,23,23,1,sedulousness,diligence,credulousness,seduction,perilousness,frankness,1,,,,,,,,,,,,,,,,,,,,,,,,,,,,,,,,,,,,,,
,,,,,,,,,,,,,,,90279,001,2022-04-24_21h32.57.076,SPAMnetsValid,2021.1.4,Win32,59.96641881,,,,,,,,,,,,,,,,,,,,,,,,,,,,,,,,,,,,,,,,,,,,,,,,,,,,heat,candle,0,0,0,0,1,,,,,,,,,,,,,,,,,,,,,,,,,,,,,,,
,,,,,,,,,,,,,,,90279,001,2022-04-24_21h32.57.076,SPAMnetsValid,2021.1.4,Win32,59.96641881,,,,,,,,,,,,,,,,,,,,,,,,,,,,,,,,,,,,,,,,,,,,,,,,,,,,smell,candle,1,0,1,0,1,,,,,,,,,,,,,,,,,,,,,,,,,,,,,,,
,,,,,,,,,,,,,,,90279,001,2022-04-24_21h32.57.076,SPAMnetsValid,2021.1.4,Win32,59.96641881,,,,,,,,,,,,,,,,,,,,,,,,,,,,,,,,,,,,,,,,,,,,,,,,,,,,light,candle,2,0,2,0,1,,,,,,,,,,,,,,,,,,,,,,,,,,,,,,,
,,,,,,,,,,,,,,,90279,001,2022-04-24_21h32.57.076,SPAMnetsValid,2021.1.4,Win32,59.96641881,,,,,,,,,,,,,,,,,,,,,,,,,,,,,,,,,,,,,,,,,,,,,,,,,,,,cooking,candle,3,0,3,0,1,,,,,,,,,,,,,,,,,,,,,,,,,,,,,,,
,,,,,,,,,,,,,,,90279,001,2022-04-24_21h32.57.076,SPAMnetsValid,2021.1.4,Win32,59.96641881,,,,,,,,,,,,,,,,,,,,,,,,,,,,,,,,,,,,,,,,,,,,,,,,,,,,self defense,candle,4,0,4,0,1,,,,,,,,,,,,,,,,,,,,,,,,,,,,,,,
,,,,,,,,,,,,,,,90279,001,2022-04-24_21h32.57.076,SPAMnetsValid,2021.1.4,Win32,59.96641881,,,,,,,,,,,,,,,,,,,,,,,,,,,,,,,,,,,,,,,,,,,,,,,,,,,,vigil,candle,5,0,5,0,1,,,,,,,,,,,,,,,,,,,,,,,,,,,,,,,
,,,,,,,,,,,,,,,90279,001,2022-04-24_21h32.57.076,SPAMnetsValid,2021.1.4,Win32,59.96641881,,,,,,,,,,,,,,,,,,,,,,,,,,,,,,,,,,,,,,,,,,,,,,,,,,,,memorial,candle,6,0,6,0,1,,,,,,,,,,,,,,,,,,,,,,,,,,,,,,,
,,,,,,,,,,,,,,,90279,001,2022-04-24_21h32.57.076,SPAMnetsValid,2021.1.4,Win32,59.96641881,,,,,,,,,,,,,,,,,,,,,,,,,,,,,,,,,,,,,,,,,,,,,,,,,,,,prayer,candle,7,0,7,0,1,,,,,,,,,,,,,,,,,,,,,,,,,,,,,,,
,,,,,,,,,,,,,,,90279,001,2022-04-24_21h32.57.076,SPAMnetsValid,2021.1.4,Win32,59.96641881,,,,,,,,,,,,,,,,,,,,,,,,,,,,,,,,,,,,,,,,,,,,,,,,,,,,,candle,8,0,8,0,1,,,,,,,,,,,,,,,,,,,,,,,,,,,,,,,
,,,,,,,,,,,,,,,90279,001,2022-04-24_21h32.57.076,SPAMnetsValid,2021.1.4,Win32,59.96641881,,,,,,,,,,,,,,,,,,,,,,,,,,,,,,,,,,,,,,,,,,,,,,,,,,,,,candle,9,0,9,0,1,,,,,,,,,,,,,,,,,,,,,,,,,,,,,,,
,,,,,,,,,,,,,,,90279,001,2022-04-24_21h32.57.076,SPAMnetsValid,2021.1.4,Win32,59.96641881,,,,,,,,,,,,,,,,,,,,,,,,,,,,,,,,,,,,,,,,,,,,,,,,,,,,,candle,10,0,10,0,1,,,,,,,,,,,,,,,,,,,,,,,,,,,,,,,
,,,,,,,,,,,,,,,90279,001,2022-04-24_21h32.57.076,SPAMnetsValid,2021.1.4,Win32,59.96641881,,,,,,,,,,,,,,,,,,,,,,,,,,,,,,,,,,,,,,,,,,,,,,,,,,,,,,,,,,,0,0,0,1,1,candle,,,,,,,,,,,,,,,,,,,,,,,,,
,,,,,,,,,,,,,,,90279,001,2022-04-24_21h32.57.076,SPAMnetsValid,2021.1.4,Win32,59.96641881,,,,,,,,,,,,,,,,,,,,,,,,,,,,,,,,,,,,,,,,,,,,,,,,,,,,sleep,pillow,0,0,0,0,1,,,,,,,,,,,,,,,,,,,,,,,,,,,,,,,
,,,,,,,,,,,,,,,90279,001,2022-04-24_21h32.57.076,SPAMnetsValid,2021.1.4,Win32,59.96641881,,,,,,,,,,,,,,,,,,,,,,,,,,,,,,,,,,,,,,,,,,,,,,,,,,,,comfort,pillow,1,0,1,0,1,,,,,,,,,,,,,,,,,,,,,,,,,,,,,,,
,,,,,,,,,,,,,,,90279,001,2022-04-24_21h32.57.076,SPAMnetsValid,2021.1.4,Win32,59.96641881,,,,,,,,,,,,,,,,,,,,,,,,,,,,,,,,,,,,,,,,,,,,,,,,,,,,pillow fight,pillow,2,0,2,0,1,,,,,,,,,,,,,,,,,,,,,,,,,,,,,,,
,,,,,,,,,,,,,,,90279,001,2022-04-24_21h32.57.076,SPAMnetsValid,2021.1.4,Win32,59.96641881,,,,,,,,,,,,,,,,,,,,,,,,,,,,,,,,,,,,,,,,,,,,,,,,,,,,laying down,pillow,3,0,3,0,1,,,,,,,,,,,,,,,,,,,,,,,,,,,,,,,
,,,,,,,,,,,,,,,90279,001,2022-04-24_21h32.57.076,SPAMnetsValid,2021.1.4,Win32,59.96641881,,,,,,,,,,,,,,,,,,,,,,,,,,,,,,,,,,,,,,,,,,,,,,,,,,,,,,,,,,,0,1,1,2,1,pillow,,,,,,,,,,,,,,,,,,,,,,,,,
,,,,,,,,,,,,,,,90279,001,2022-04-24_21h32.57.076,SPAMnetsValid,2021.1.4,Win32,59.96641881,,,,,,,,,,,,,,,,,,,,,,,,,,,,,,,,,,,,,,,,,,,,,,,,,,,,carrying water,bucket,0,0,0,0,1,,,,,,,,,,,,,,,,,,,,,,,,,,,,,,,
,,,,,,,,,,,,,,,90279,001,2022-04-24_21h32.57.076,SPAMnetsValid,2021.1.4,Win32,59.96641881,,,,,,,,,,,,,,,,,,,,,,,,,,,,,,,,,,,,,,,,,,,,,,,,,,,,holding sand,bucket,1,0,1,0,1,,,,,,,,,,,,,,,,,,,,,,,,,,,,,,,
,,,,,,,,,,,,,,,90279,001,2022-04-24_21h32.57.076,SPAMnetsValid,2021.1.4,Win32,59.96641881,,,,,,,,,,,,,,,,,,,,,,,,,,,,,,,,,,,,,,,,,,,,,,,,,,,,sitting down,bucket,2,0,2,0,1,,,,,,,,,,,,,,,,,,,,,,,,,,,,,,,
,,,,,,,,,,,,,,,90279,001,2022-04-24_21h32.57.076,SPAMnetsValid,2021.1.4,Win32,59.96641881,,,,,,,,,,,,,,,,,,,,,,,,,,,,,,,,,,,,,,,,,,,,,,,,,,,,basball bucket,bucket,3,0,3,0,1,,,,,,,,,,,,,,,,,,,,,,,,,,,,,,,
,,,,,,,,,,,,,,,90279,001,2022-04-24_21h32.57.076,SPAMnetsValid,2021.1.4,Win32,59.96641881,,,,,,,,,,,,,,,,,,,,,,,,,,,,,,,,,,,,,,,,,,,,,,,,,,,,painting,bucket,4,0,4,0,1,,,,,,,,,,,,,,,,,,,,,,,,,,,,,,,
,,,,,,,,,,,,,,,90279,001,2022-04-24_21h32.57.076,SPAMnetsValid,2021.1.4,Win32,59.96641881,,,,,,,,,,,,,,,,,,,,,,,,,,,,,,,,,,,,,,,,,,,,,,,,,,,,cow milking,bucket,5,0,5,0,1,,,,,,,,,,,,,,,,,,,,,,,,,,,,,,,
,,,,,,,,,,,,,,,90279,001,2022-04-24_21h32.57.076,SPAMnetsValid,2021.1.4,Win32,59.96641881,,,,,,,,,,,,,,,,,,,,,,,,,,,,,,,,,,,,,,,,,,,,,,,,,,,,,,,,,,,0,2,2,0,1,bucket,,,,,,,,,,,,,,,,,,,,,,,,,
,,,,,,,,,,,,,,,90279,001,2022-04-24_21h32.57.076,SPAMnetsValid,2021.1.4,Win32,59.96641881,,,,,,,,,,,,,,,,,,,,,,,,,,,,,,,,,,,,,,,,,,,,,,,,,,,,,,,,,,,,,,,,,lion,Animals,0,0,0,0,1,,,,,,,,,,,,,,,,,,
,,,,,,,,,,,,,,,90279,001,2022-04-24_21h32.57.076,SPAMnetsValid,2021.1.4,Win32,59.96641881,,,,,,,,,,,,,,,,,,,,,,,,,,,,,,,,,,,,,,,,,,,,,,,,,,,,,,,,,,,,,,,,,zebra,Animals,1,0,1,0,1,,,,,,,,,,,,,,,,,,
,,,,,,,,,,,,,,,90279,001,2022-04-24_21h32.57.076,SPAMnetsValid,2021.1.4,Win32,59.96641881,,,,,,,,,,,,,,,,,,,,,,,,,,,,,,,,,,,,,,,,,,,,,,,,,,,,,,,,,,,,,,,,,giraffe,Animals,2,0,2,0,1,,,,,,,,,,,,,,,,,,
,,,,,,,,,,,,,,,90279,001,2022-04-24_21h32.57.076,SPAMnetsValid,2021.1.4,Win32,59.96641881,,,,,,,,,,,,,,,,,,,,,,,,,,,,,,,,,,,,,,,,,,,,,,,,,,,,,,,,,,,,,,,,,wolf,Animals,3,0,3,0,1,,,,,,,,,,,,,,,,,,
,,,,,,,,,,,,,,,90279,001,2022-04-24_21h32.57.076,SPAMnetsValid,2021.1.4,Win32,59.96641881,,,,,,,,,,,,,,,,,,,,,,,,,,,,,,,,,,,,,,,,,,,,,,,,,,,,,,,,,,,,,,,,,hippo,Animals,4,0,4,0,1,,,,,,,,,,,,,,,,,,
,,,,,,,,,,,,,,,90279,001,2022-04-24_21h32.57.076,SPAMnetsValid,2021.1.4,Win32,59.96641881,,,,,,,,,,,,,,,,,,,,,,,,,,,,,,,,,,,,,,,,,,,,,,,,,,,,,,,,,,,,,,,,,pands,Animals,5,0,5,0,1,,,,,,,,,,,,,,,,,,
,,,,,,,,,,,,,,,90279,001,2022-04-24_21h32.57.076,SPAMnetsValid,2021.1.4,Win32,59.96641881,,,,,,,,,,,,,,,,,,,,,,,,,,,,,,,,,,,,,,,,,,,,,,,,,,,,,,,,,,,,,,,,,panda,Animals,6,0,6,0,1,,,,,,,,,,,,,,,,,,
,,,,,,,,,,,,,,,90279,001,2022-04-24_21h32.57.076,SPAMnetsValid,2021.1.4,Win32,59.96641881,,,,,,,,,,,,,,,,,,,,,,,,,,,,,,,,,,,,,,,,,,,,,,,,,,,,,,,,,,,,,,,,,bear,Animals,7,0,7,0,1,,,,,,,,,,,,,,,,,,
,,,,,,,,,,,,,,,90279,001,2022-04-24_21h32.57.076,SPAMnetsValid,2021.1.4,Win32,59.96641881,,,,,,,,,,,,,,,,,,,,,,,,,,,,,,,,,,,,,,,,,,,,,,,,,,,,,,,,,,,,,,,,,whale,Animals,8,0,8,0,1,,,,,,,,,,,,,,,,,,
,,,,,,,,,,,,,,,90279,001,2022-04-24_21h32.57.076,SPAMnetsValid,2021.1.4,Win32,59.96641881,,,,,,,,,,,,,,,,,,,,,,,,,,,,,,,,,,,,,,,,,,,,,,,,,,,,,,,,,,,,,,,,,shark,Animals,9,0,9,0,1,,,,,,,,,,,,,,,,,,
,,,,,,,,,,,,,,,90279,001,2022-04-24_21h32.57.076,SPAMnetsValid,2021.1.4,Win32,59.96641881,,,,,,,,,,,,,,,,,,,,,,,,,,,,,,,,,,,,,,,,,,,,,,,,,,,,,,,,,,,,,,,,,fish,Animals,10,0,10,0,1,,,,,,,,,,,,,,,,,,
,,,,,,,,,,,,,,,90279,001,2022-04-24_21h32.57.076,SPAMnetsValid,2021.1.4,Win32,59.96641881,,,,,,,,,,,,,,,,,,,,,,,,,,,,,,,,,,,,,,,,,,,,,,,,,,,,,,,,,,,,,,,,,squirrel,Animals,11,0,11,0,1,,,,,,,,,,,,,,,,,,
,,,,,,,,,,,,,,,90279,001,2022-04-24_21h32.57.076,SPAMnetsValid,2021.1.4,Win32,59.96641881,,,,,,,,,,,,,,,,,,,,,,,,,,,,,,,,,,,,,,,,,,,,,,,,,,,,,,,,,,,,,,,,,rabbit,Animals,12,0,12,0,1,,,,,,,,,,,,,,,,,,
,,,,,,,,,,,,,,,90279,001,2022-04-24_21h32.57.076,SPAMnetsValid,2021.1.4,Win32,59.96641881,,,,,,,,,,,,,,,,,,,,,,,,,,,,,,,,,,,,,,,,,,,,,,,,,,,,,,,,,,,,,,,,,bird,Animals,13,0,13,0,1,,,,,,,,,,,,,,,,,,
,,,,,,,,,,,,,,,90279,001,2022-04-24_21h32.57.076,SPAMnetsValid,2021.1.4,Win32,59.96641881,,,,,,,,,,,,,,,,,,,,,,,,,,,,,,,,,,,,,,,,,,,,,,,,,,,,,,,,,,,,,,,,,snake,Animals,14,0,14,0,1,,,,,,,,,,,,,,,,,,
,,,,,,,,,,,,,,,90279,001,2022-04-24_21h32.57.076,SPAMnetsValid,2021.1.4,Win32,59.96641881,,,,,,,,,,,,,,,,,,,,,,,,,,,,,,,,,,,,,,,,,,,,,,,,,,,,,,,,,,,,,,,,,rat,Animals,15,0,15,0,1,,,,,,,,,,,,,,,,,,
,,,,,,,,,,,,,,,90279,001,2022-04-24_21h32.57.076,SPAMnetsValid,2021.1.4,Win32,59.96641881,,,,,,,,,,,,,,,,,,,,,,,,,,,,,,,,,,,,,,,,,,,,,,,,,,,,,,,,,,,,,,,,,tiger,Animals,16,0,16,0,1,,,,,,,,,,,,,,,,,,
,,,,,,,,,,,,,,,90279,001,2022-04-24_21h32.57.076,SPAMnetsValid,2021.1.4,Win32,59.96641881,,,,,,,,,,,,,,,,,,,,,,,,,,,,,,,,,,,,,,,,,,,,,,,,,,,,,,,,,,,,,,,,,cat,Animals,17,0,17,0,1,,,,,,,,,,,,,,,,,,
,,,,,,,,,,,,,,,90279,001,2022-04-24_21h32.57.076,SPAMnetsValid,2021.1.4,Win32,59.96641881,,,,,,,,,,,,,,,,,,,,,,,,,,,,,,,,,,,,,,,,,,,,,,,,,,,,,,,,,,,,,,,,,dog,Animals,18,0,18,0,1,,,,,,,,,,,,,,,,,,
,,,,,,,,,,,,,,,90279,001,2022-04-24_21h32.57.076,SPAMnetsValid,2021.1.4,Win32,59.96641881,,,,,,,,,,,,,,,,,,,,,,,,,,,,,,,,,,,,,,,,,,,,,,,,,,,,,,,,,,,,,,,,,dolphin,Animals,19,0,19,0,1,,,,,,,,,,,,,,,,,,
,,,,,,,,,,,,,,,90279,001,2022-04-24_21h32.57.076,SPAMnetsValid,2021.1.4,Win32,59.96641881,,,,,,,,,,,,,,,,,,,,,,,,,,,,,,,,,,,,,,,,,,,,,,,,,,,,,,,,,,,,,,,,,,,,,,,,0,0,0,0,1,Animals,,,,,,,,,,,,
,,,,,,,,,,,,,,,90279,001,2022-04-24_21h32.57.076,SPAMnetsValid,2021.1.4,Win32,59.96641881,,,,,,,,,,,,,,,,,,,,,,,,,,,,,,,,,,,,,,,,,,,,,,,,,,,,,,,,,,,,,,,,,,,,,,,,,,,,,,2,7.4892,0,0,0,0,1,"I enjoy concentrating on a fantasy or daydream and exploring all its possibilities, letting it grow and develop.",0,1,,
,,,,,,,,,,,,,,,90279,001,2022-04-24_21h32.57.076,SPAMnetsValid,2021.1.4,Win32,59.96641881,,,,,,,,,,,,,,,,,,,,,,,,,,,,,,,,,,,,,,,,,,,,,,,,,,,,,,,,,,,,,,,,,,,,,,,,,,,,,,4,5.7444,0,1,1,1,1,I think it's interesting to learn and develop new hobbies.,0,2,,
,,,,,,,,,,,,,,,90279,001,2022-04-24_21h32.57.076,SPAMnetsValid,2021.1.4,Win32,59.96641881,,,,,,,,,,,,,,,,,,,,,,,,,,,,,,,,,,,,,,,,,,,,,,,,,,,,,,,,,,,,,,,,,,,,,,,,,,,,,,4,2.8658,0,2,2,2,1,I am intrigued by the patterns I find in art and nature.,0,3,,
,,,,,,,,,,,,,,,90279,001,2022-04-24_21h32.57.076,SPAMnetsValid,2021.1.4,Win32,59.96641881,,,,,,,,,,,,,,,,,,,,,,,,,,,,,,,,,,,,,,,,,,,,,,,,,,,,,,,,,,,,,,,,,,,,,,,,,,,,,,1,4.6635,0,3,3,3,1,I believe letting students hear controversial speakers can only confuse and mislead them.,1,4,,
,,,,,,,,,,,,,,,90279,001,2022-04-24_21h32.57.076,SPAMnetsValid,2021.1.4,Win32,59.96641881,,,,,,,,,,,,,,,,,,,,,,,,,,,,,,,,,,,,,,,,,,,,,,,,,,,,,,,,,,,,,,,,,,,,,,,,,,,,,,4,2.6142,0,4,4,4,1,Poetry has little or no effect on me.,1,5,,
,,,,,,,,,,,,,,,90279,001,2022-04-24_21h32.57.076,SPAMnetsValid,2021.1.4,Win32,59.96641881,,,,,,,,,,,,,,,,,,,,,,,,,,,,,,,,,,,,,,,,,,,,,,,,,,,,,,,,,,,,,,,,,,,,,,,,,,,,,,1,5.2281,0,5,5,5,1,I would have difficulty just letting my mind wander without control or guidance.,1,6,,
,,,,,,,,,,,,,,,90279,001,2022-04-24_21h32.57.076,SPAMnetsValid,2021.1.4,Win32,59.96641881,,,,,,,,,,,,,,,,,,,,,,,,,,,,,,,,,,,,,,,,,,,,,,,,,,,,,,,,,,,,,,,,,,,,,,,,,,,,,,4,6.7588,0,6,6,6,1,I seldom notice the moods or feelings that different environments produce.,1,7,,
,,,,,,,,,,,,,,,90279,001,2022-04-24_21h32.57.076,SPAMnetsValid,2021.1.4,Win32,59.96641881,,,,,,,,,,,,,,,,,,,,,,,,,,,,,,,,,,,,,,,,,,,,,,,,,,,,,,,,,,,,,,,,,,,,,,,,,,,,,,3,2.2555,0,7,7,7,1,I experience a wide range of emotions or feelings.,0,8,,
,,,,,,,,,,,,,,,90279,001,2022-04-24_21h32.57.076,SPAMnetsValid,2021.1.4,Win32,59.96641881,,,,,,,,,,,,,,,,,,,,,,,,,,,,,,,,,,,,,,,,,,,,,,,,,,,,,,,,,,,,,,,,,,,,,,,,,,,,,,1,3.0111,0,8,8,8,1,"Sometimes when I am reading poetry or looking at a work of art, I feel a chill or wave of excitement.",0,9,,
,,,,,,,,,,,,,,,90279,001,2022-04-24_21h32.57.076,SPAMnetsValid,2021.1.4,Win32,59.96641881,,,,,,,,,,,,,,,,,,,,,,,,,,,,,,,,,,,,,,,,,,,,,,,,,,,,,,,,,,,,,,,,,,,,,,,,,,,,,,2,3.844,0,9,9,9,1,I have little interest in speculating on the nature of the universe or the human condition.,1,10,,
,,,,,,,,,,,,,,,90279,001,2022-04-24_21h32.57.076,SPAMnetsValid,2021.1.4,Win32,59.96641881,,,,,,,,,,,,,,,,,,,,,,,,,,,,,,,,,,,,,,,,,,,,,,,,,,,,,,,,,,,,,,,,,,,,,,,,,,,,,,4,2.2226,0,10,10,10,1,I have a lot of intellectual curiosity.,0,11,,
,,,,,,,,,,,,,,,90279,001,2022-04-24_21h32.57.076,SPAMnetsValid,2021.1.4,Win32,59.96641881,,,,,,,,,,,,,,,,,,,,,,,,,,,,,,,,,,,,,,,,,,,,,,,,,,,,,,,,,,,,,,,,,,,,,,,,,,,,,,4,13.265,0,11,11,11,1,I often enjoy playing with theories or abstract ideas.,0,12,,
,,,,,,,,,,,,,,,90279,001,2022-04-24_21h32.57.076,SPAMnetsValid,2021.1.4,Win32,59.96641881,,,,,,,,,,,,,,,,,,,,,,,,,,,,,,,,,,,,,,,,,,,,,,,,,,,,,,,,,,,,,,,,,,,,,,,,,,,,,,,,,,,,,,,,return,1.2099
