key_resp_3.keys,key_resp_3.rt,slider.response,slider.rt,rjt_rating,rjt_RT,trials_22.thisRepN,trials_22.thisTrialN,trials_22.thisN,trials_22.thisIndex,trials_22.ran,rjt_order,word1,word2,attention,participant,session,date,expName,psychopyVersion,OS,frameRate,trials_99.thisRepN,trials_99.thisTrialN,trials_99.thisN,trials_99.thisIndex,trials_99.ran,trials_5.thisRepN,trials_5.thisTrialN,trials_5.thisN,trials_5.thisIndex,trials_5.ran,repOne,repTwo,slider_2.response,slider_2.rt,trials_24.thisRepN,trials_24.thisTrialN,trials_24.thisN,trials_24.thisIndex,trials_24.ran,trials_4.thisRepN,trials_4.thisTrialN,trials_4.thisN,trials_4.thisIndex,trials_4.ran,slider_extend_2.response,slider_extend_2.rt,trials_6.thisRepN,trials_6.thisTrialN,trials_6.thisN,trials_6.thisIndex,trials_6.ran,vCue2,R1,R2,R3,R4,correct,sliderVocab.response,sliderVocab.rt,trials_7.thisRepN,trials_7.thisTrialN,trials_7.thisN,trials_7.thisIndex,trials_7.ran,VocabCue,VR1,VR2,VR3,VR4,VR5,VocabCorrect,AUT_resp,AUT_label,trials.thisRepN,trials.thisTrialN,trials.thisN,trials.thisIndex,trials.ran,trials_2.thisRepN,trials_2.thisTrialN,trials_2.thisN,trials_2.thisIndex,trials_2.ran,aut_prompt,VF_response,VF_tag,trials_16.thisRepN,trials_16.thisTrialN,trials_16.thisN,trials_16.thisIndex,trials_16.ran,trials_17.thisRepN,trials_17.thisTrialN,trials_17.thisN,trials_17.thisIndex,trials_17.ran,VFcond,open_slider.response,open_slider.rt,trials_3.thisRepN,trials_3.thisTrialN,trials_3.thisN,trials_3.thisIndex,trials_3.ran,OpenQ,Rev,OPEN_ORDER,key_resp_2.keys,key_resp_2.rt
return,12.102,8,7.592,8,7.592,0,0,0,23,1,65,broom,garden,,90302,001,2022-04-28_13h08.16.890,SPAMnetsValid,2021.1.4,MacIntel,29.41176471,,,,,,,,,,,,,,,,,,,,,,,,,,,,,,,,,,,,,,,,,,,,,,,,,,,,,,,,,,,,,,,,,,,,,,,,,,,,,,,,,,,,,,,,,
,,1,3.852,1,3.852,0,1,1,55,1,1,rose,yogurt,,90302,001,2022-04-28_13h08.16.890,SPAMnetsValid,2021.1.4,MacIntel,29.41176471,,,,,,,,,,,,,,,,,,,,,,,,,,,,,,,,,,,,,,,,,,,,,,,,,,,,,,,,,,,,,,,,,,,,,,,,,,,,,,,,,,,,,,,,,
,,1,2.102,1,2.102,0,2,2,56,1,78,cookie,rose,,90302,001,2022-04-28_13h08.16.890,SPAMnetsValid,2021.1.4,MacIntel,29.41176471,,,,,,,,,,,,,,,,,,,,,,,,,,,,,,,,,,,,,,,,,,,,,,,,,,,,,,,,,,,,,,,,,,,,,,,,,,,,,,,,,,,,,,,,,
,,9,1.739,9,1.739,0,3,3,42,1,77,refrigerator,yogurt,,90302,001,2022-04-28_13h08.16.890,SPAMnetsValid,2021.1.4,MacIntel,29.41176471,,,,,,,,,,,,,,,,,,,,,,,,,,,,,,,,,,,,,,,,,,,,,,,,,,,,,,,,,,,,,,,,,,,,,,,,,,,,,,,,,,,,,,,,,
,,1,1.688,1,1.688,0,4,4,79,1,86,oven,rose,,90302,001,2022-04-28_13h08.16.890,SPAMnetsValid,2021.1.4,MacIntel,29.41176471,,,,,,,,,,,,,,,,,,,,,,,,,,,,,,,,,,,,,,,,,,,,,,,,,,,,,,,,,,,,,,,,,,,,,,,,,,,,,,,,,,,,,,,,,
,,1,2.403,1,2.403,0,5,5,25,1,23,flower,microwave,,90302,001,2022-04-28_13h08.16.890,SPAMnetsValid,2021.1.4,MacIntel,29.41176471,,,,,,,,,,,,,,,,,,,,,,,,,,,,,,,,,,,,,,,,,,,,,,,,,,,,,,,,,,,,,,,,,,,,,,,,,,,,,,,,,,,,,,,,,
,,9,2.021,9,2.021,0,6,6,24,1,17,carrot,melon,,90302,001,2022-04-28_13h08.16.890,SPAMnetsValid,2021.1.4,MacIntel,29.41176471,,,,,,,,,,,,,,,,,,,,,,,,,,,,,,,,,,,,,,,,,,,,,,,,,,,,,,,,,,,,,,,,,,,,,,,,,,,,,,,,,,,,,,,,,
,,1,2.84,1,2.84,0,7,7,34,1,29,chocolate,melon,,90302,001,2022-04-28_13h08.16.890,SPAMnetsValid,2021.1.4,MacIntel,29.41176471,,,,,,,,,,,,,,,,,,,,,,,,,,,,,,,,,,,,,,,,,,,,,,,,,,,,,,,,,,,,,,,,,,,,,,,,,,,,,,,,,,,,,,,,,
,,8,2.438,8,2.438,0,8,8,94,1,68,flower,tomato,,90302,001,2022-04-28_13h08.16.890,SPAMnetsValid,2021.1.4,MacIntel,29.41176471,,,,,,,,,,,,,,,,,,,,,,,,,,,,,,,,,,,,,,,,,,,,,,,,,,,,,,,,,,,,,,,,,,,,,,,,,,,,,,,,,,,,,,,,,
,,9,1.422,9,1.422,0,9,9,93,1,63,cake,cookie,,90302,001,2022-04-28_13h08.16.890,SPAMnetsValid,2021.1.4,MacIntel,29.41176471,,,,,,,,,,,,,,,,,,,,,,,,,,,,,,,,,,,,,,,,,,,,,,,,,,,,,,,,,,,,,,,,,,,,,,,,,,,,,,,,,,,,,,,,,
,,1,2.02,1,2.02,0,10,10,26,1,35,flower,pretzel,,90302,001,2022-04-28_13h08.16.890,SPAMnetsValid,2021.1.4,MacIntel,29.41176471,,,,,,,,,,,,,,,,,,,,,,,,,,,,,,,,,,,,,,,,,,,,,,,,,,,,,,,,,,,,,,,,,,,,,,,,,,,,,,,,,,,,,,,,,
,,1,1.836,1,1.836,0,11,11,0,1,53,garden,pretzel,,90302,001,2022-04-28_13h08.16.890,SPAMnetsValid,2021.1.4,MacIntel,29.41176471,,,,,,,,,,,,,,,,,,,,,,,,,,,,,,,,,,,,,,,,,,,,,,,,,,,,,,,,,,,,,,,,,,,,,,,,,,,,,,,,,,,,,,,,,
,,6,2.469,6,2.469,0,12,12,90,1,95,broom,refrigerator,,90302,001,2022-04-28_13h08.16.890,SPAMnetsValid,2021.1.4,MacIntel,29.41176471,,,,,,,,,,,,,,,,,,,,,,,,,,,,,,,,,,,,,,,,,,,,,,,,,,,,,,,,,,,,,,,,,,,,,,,,,,,,,,,,,,,,,,,,,
,,7,2.52,7,2.52,0,13,13,32,1,40,broom,cake,,90302,001,2022-04-28_13h08.16.890,SPAMnetsValid,2021.1.4,MacIntel,29.41176471,,,,,,,,,,,,,,,,,,,,,,,,,,,,,,,,,,,,,,,,,,,,,,,,,,,,,,,,,,,,,,,,,,,,,,,,,,,,,,,,,,,,,,,,,
,,9,1.453,9,1.453,0,14,14,87,1,79,garden,strawberry,,90302,001,2022-04-28_13h08.16.890,SPAMnetsValid,2021.1.4,MacIntel,29.41176471,,,,,,,,,,,,,,,,,,,,,,,,,,,,,,,,,,,,,,,,,,,,,,,,,,,,,,,,,,,,,,,,,,,,,,,,,,,,,,,,,,,,,,,,,
,,1,2.072,1,2.072,0,15,15,20,1,39,melon,pretzel,,90302,001,2022-04-28_13h08.16.890,SPAMnetsValid,2021.1.4,MacIntel,29.41176471,,,,,,,,,,,,,,,,,,,,,,,,,,,,,,,,,,,,,,,,,,,,,,,,,,,,,,,,,,,,,,,,,,,,,,,,,,,,,,,,,,,,,,,,,
,,9,1.985,9,1.985,0,16,16,38,1,88,cactus,melon,,90302,001,2022-04-28_13h08.16.890,SPAMnetsValid,2021.1.4,MacIntel,29.41176471,,,,,,,,,,,,,,,,,,,,,,,,,,,,,,,,,,,,,,,,,,,,,,,,,,,,,,,,,,,,,,,,,,,,,,,,,,,,,,,,,,,,,,,,,
,,9,1.552,9,1.552,0,17,17,58,1,94,kitchen,microwave,,90302,001,2022-04-28_13h08.16.890,SPAMnetsValid,2021.1.4,MacIntel,29.41176471,,,,,,,,,,,,,,,,,,,,,,,,,,,,,,,,,,,,,,,,,,,,,,,,,,,,,,,,,,,,,,,,,,,,,,,,,,,,,,,,,,,,,,,,,
,,2,2.619,2,2.619,0,18,18,85,1,90,cactus,cake,,90302,001,2022-04-28_13h08.16.890,SPAMnetsValid,2021.1.4,MacIntel,29.41176471,,,,,,,,,,,,,,,,,,,,,,,,,,,,,,,,,,,,,,,,,,,,,,,,,,,,,,,,,,,,,,,,,,,,,,,,,,,,,,,,,,,,,,,,,
,,9,1.684,9,1.684,0,19,19,30,1,3,cake,oven,,90302,001,2022-04-28_13h08.16.890,SPAMnetsValid,2021.1.4,MacIntel,29.41176471,,,,,,,,,,,,,,,,,,,,,,,,,,,,,,,,,,,,,,,,,,,,,,,,,,,,,,,,,,,,,,,,,,,,,,,,,,,,,,,,,,,,,,,,,
,,9,2.269,9,2.269,0,20,20,80,1,61,strawberry,tomato,,90302,001,2022-04-28_13h08.16.890,SPAMnetsValid,2021.1.4,MacIntel,29.41176471,,,,,,,,,,,,,,,,,,,,,,,,,,,,,,,,,,,,,,,,,,,,,,,,,,,,,,,,,,,,,,,,,,,,,,,,,,,,,,,,,,,,,,,,,
,,1,3.818,1,3.818,0,21,21,47,1,73,broom,chocolate,,90302,001,2022-04-28_13h08.16.890,SPAMnetsValid,2021.1.4,MacIntel,29.41176471,,,,,,,,,,,,,,,,,,,,,,,,,,,,,,,,,,,,,,,,,,,,,,,,,,,,,,,,,,,,,,,,,,,,,,,,,,,,,,,,,,,,,,,,,
,,9,1.402,9,1.402,0,22,22,9,1,75,cookie,onion,,90302,001,2022-04-28_13h08.16.890,SPAMnetsValid,2021.1.4,MacIntel,29.41176471,,,,,,,,,,,,,,,,,,,,,,,,,,,,,,,,,,,,,,,,,,,,,,,,,,,,,,,,,,,,,,,,,,,,,,,,,,,,,,,,,,,,,,,,,
,,9,1.269,9,1.269,0,23,23,33,1,32,cake,microwave,,90302,001,2022-04-28_13h08.16.890,SPAMnetsValid,2021.1.4,MacIntel,29.41176471,,,,,,,,,,,,,,,,,,,,,,,,,,,,,,,,,,,,,,,,,,,,,,,,,,,,,,,,,,,,,,,,,,,,,,,,,,,,,,,,,,,,,,,,,
,,1,6.087,1,6.087,0,24,24,92,1,44,cookie,melon,,90302,001,2022-04-28_13h08.16.890,SPAMnetsValid,2021.1.4,MacIntel,29.41176471,,,,,,,,,,,,,,,,,,,,,,,,,,,,,,,,,,,,,,,,,,,,,,,,,,,,,,,,,,,,,,,,,,,,,,,,,,,,,,,,,,,,,,,,,
,,7,2.119,7,2.119,0,25,25,86,1,51,onion,strawberry,,90302,001,2022-04-28_13h08.16.890,SPAMnetsValid,2021.1.4,MacIntel,29.41176471,,,,,,,,,,,,,,,,,,,,,,,,,,,,,,,,,,,,,,,,,,,,,,,,,,,,,,,,,,,,,,,,,,,,,,,,,,,,,,,,,,,,,,,,,
,,1,1.67,1,1.67,0,26,26,37,1,58,garden,oven,,90302,001,2022-04-28_13h08.16.890,SPAMnetsValid,2021.1.4,MacIntel,29.41176471,,,,,,,,,,,,,,,,,,,,,,,,,,,,,,,,,,,,,,,,,,,,,,,,,,,,,,,,,,,,,,,,,,,,,,,,,,,,,,,,,,,,,,,,,
,,2,1.852,2,1.852,0,27,27,49,1,57,flower,kitchen,,90302,001,2022-04-28_13h08.16.890,SPAMnetsValid,2021.1.4,MacIntel,29.41176471,,,,,,,,,,,,,,,,,,,,,,,,,,,,,,,,,,,,,,,,,,,,,,,,,,,,,,,,,,,,,,,,,,,,,,,,,,,,,,,,,,,,,,,,,
,,3,3.522,3,3.522,0,28,28,71,1,38,pretzel,refrigerator,,90302,001,2022-04-28_13h08.16.890,SPAMnetsValid,2021.1.4,MacIntel,29.41176471,,,,,,,,,,,,,,,,,,,,,,,,,,,,,,,,,,,,,,,,,,,,,,,,,,,,,,,,,,,,,,,,,,,,,,,,,,,,,,,,,,,,,,,,,
,,1,2.003,1,2.003,0,29,29,59,1,8,broom,melon,,90302,001,2022-04-28_13h08.16.890,SPAMnetsValid,2021.1.4,MacIntel,29.41176471,,,,,,,,,,,,,,,,,,,,,,,,,,,,,,,,,,,,,,,,,,,,,,,,,,,,,,,,,,,,,,,,,,,,,,,,,,,,,,,,,,,,,,,,,
,,8,2.286,8,2.286,0,30,30,6,1,87,carrot,yogurt,,90302,001,2022-04-28_13h08.16.890,SPAMnetsValid,2021.1.4,MacIntel,29.41176471,,,,,,,,,,,,,,,,,,,,,,,,,,,,,,,,,,,,,,,,,,,,,,,,,,,,,,,,,,,,,,,,,,,,,,,,,,,,,,,,,,,,,,,,,
,,5,4.769,5,4.769,0,31,31,40,1,74,broom,pretzel,,90302,001,2022-04-28_13h08.16.890,SPAMnetsValid,2021.1.4,MacIntel,29.41176471,,,,,,,,,,,,,,,,,,,,,,,,,,,,,,,,,,,,,,,,,,,,,,,,,,,,,,,,,,,,,,,,,,,,,,,,,,,,,,,,,,,,,,,,,
,,8,2.903,8,2.903,0,32,32,81,1,60,cactus,onion,,90302,001,2022-04-28_13h08.16.890,SPAMnetsValid,2021.1.4,MacIntel,29.41176471,,,,,,,,,,,,,,,,,,,,,,,,,,,,,,,,,,,,,,,,,,,,,,,,,,,,,,,,,,,,,,,,,,,,,,,,,,,,,,,,,,,,,,,,,
,,4,3.72,4,3.72,0,33,33,68,1,24,cookie,tomato,,90302,001,2022-04-28_13h08.16.890,SPAMnetsValid,2021.1.4,MacIntel,29.41176471,,,,,,,,,,,,,,,,,,,,,,,,,,,,,,,,,,,,,,,,,,,,,,,,,,,,,,,,,,,,,,,,,,,,,,,,,,,,,,,,,,,,,,,,,
,,4,1.168,4,1.168,0,34,34,14,1,64,chocolate,garden,,90302,001,2022-04-28_13h08.16.890,SPAMnetsValid,2021.1.4,MacIntel,29.41176471,,,,,,,,,,,,,,,,,,,,,,,,,,,,,,,,,,,,,,,,,,,,,,,,,,,,,,,,,,,,,,,,,,,,,,,,,,,,,,,,,,,,,,,,,
,,4,0.986,4,0.986,0,35,35,74,1,70,chocolate,onion,,90302,001,2022-04-28_13h08.16.890,SPAMnetsValid,2021.1.4,MacIntel,29.41176471,,,,,,,,,,,,,,,,,,,,,,,,,,,,,,,,,,,,,,,,,,,,,,,,,,,,,,,,,,,,,,,,,,,,,,,,,,,,,,,,,,,,,,,,,
,,8,2.303,8,2.303,0,36,36,50,1,81,pretzel,yogurt,,90302,001,2022-04-28_13h08.16.890,SPAMnetsValid,2021.1.4,MacIntel,29.41176471,,,,,,,,,,,,,,,,,,,,,,,,,,,,,,,,,,,,,,,,,,,,,,,,,,,,,,,,,,,,,,,,,,,,,,,,,,,,,,,,,,,,,,,,,
,,1,2.669,1,2.669,0,37,37,4,1,83,broom,carrot,,90302,001,2022-04-28_13h08.16.890,SPAMnetsValid,2021.1.4,MacIntel,29.41176471,,,,,,,,,,,,,,,,,,,,,,,,,,,,,,,,,,,,,,,,,,,,,,,,,,,,,,,,,,,,,,,,,,,,,,,,,,,,,,,,,,,,,,,,,
,,9,1.636,9,1.636,0,38,38,53,1,192,microwave,microwave,CHECK,90302,001,2022-04-28_13h08.16.890,SPAMnetsValid,2021.1.4,MacIntel,29.41176471,,,,,,,,,,,,,,,,,,,,,,,,,,,,,,,,,,,,,,,,,,,,,,,,,,,,,,,,,,,,,,,,,,,,,,,,,,,,,,,,,,,,,,,,,
,,9,2.052,9,2.052,0,39,39,28,1,84,oven,tomato,,90302,001,2022-04-28_13h08.16.890,SPAMnetsValid,2021.1.4,MacIntel,29.41176471,,,,,,,,,,,,,,,,,,,,,,,,,,,,,,,,,,,,,,,,,,,,,,,,,,,,,,,,,,,,,,,,,,,,,,,,,,,,,,,,,,,,,,,,,
,,1,1.947,1,1.947,0,40,40,8,1,43,chocolate,tomato,,90302,001,2022-04-28_13h08.16.890,SPAMnetsValid,2021.1.4,MacIntel,29.41176471,,,,,,,,,,,,,,,,,,,,,,,,,,,,,,,,,,,,,,,,,,,,,,,,,,,,,,,,,,,,,,,,,,,,,,,,,,,,,,,,,,,,,,,,,
,,2,1.42,2,1.42,0,41,41,15,1,48,flower,oven,,90302,001,2022-04-28_13h08.16.890,SPAMnetsValid,2021.1.4,MacIntel,29.41176471,,,,,,,,,,,,,,,,,,,,,,,,,,,,,,,,,,,,,,,,,,,,,,,,,,,,,,,,,,,,,,,,,,,,,,,,,,,,,,,,,,,,,,,,,
,,2,0.886,2,0.886,0,42,42,95,1,52,carrot,tomato,,90302,001,2022-04-28_13h08.16.890,SPAMnetsValid,2021.1.4,MacIntel,29.41176471,,,,,,,,,,,,,,,,,,,,,,,,,,,,,,,,,,,,,,,,,,,,,,,,,,,,,,,,,,,,,,,,,,,,,,,,,,,,,,,,,,,,,,,,,
,,2,0.952,2,0.952,0,43,43,21,1,56,cactus,tree,,90302,001,2022-04-28_13h08.16.890,SPAMnetsValid,2021.1.4,MacIntel,29.41176471,,,,,,,,,,,,,,,,,,,,,,,,,,,,,,,,,,,,,,,,,,,,,,,,,,,,,,,,,,,,,,,,,,,,,,,,,,,,,,,,,,,,,,,,,
,,2,1.002,2,1.002,0,44,44,7,1,34,melon,oven,,90302,001,2022-04-28_13h08.16.890,SPAMnetsValid,2021.1.4,MacIntel,29.41176471,,,,,,,,,,,,,,,,,,,,,,,,,,,,,,,,,,,,,,,,,,,,,,,,,,,,,,,,,,,,,,,,,,,,,,,,,,,,,,,,,,,,,,,,,
,,2,0.938,2,0.938,0,45,45,77,1,7,melon,tree,,90302,001,2022-04-28_13h08.16.890,SPAMnetsValid,2021.1.4,MacIntel,29.41176471,,,,,,,,,,,,,,,,,,,,,,,,,,,,,,,,,,,,,,,,,,,,,,,,,,,,,,,,,,,,,,,,,,,,,,,,,,,,,,,,,,,,,,,,,
,,1,2.802,1,2.802,0,46,46,18,1,85,cake,tree,,90302,001,2022-04-28_13h08.16.890,SPAMnetsValid,2021.1.4,MacIntel,29.41176471,,,,,,,,,,,,,,,,,,,,,,,,,,,,,,,,,,,,,,,,,,,,,,,,,,,,,,,,,,,,,,,,,,,,,,,,,,,,,,,,,,,,,,,,,
,,1,0.82,1,0.82,0,47,47,66,1,20,rose,tree,,90302,001,2022-04-28_13h08.16.890,SPAMnetsValid,2021.1.4,MacIntel,29.41176471,,,,,,,,,,,,,,,,,,,,,,,,,,,,,,,,,,,,,,,,,,,,,,,,,,,,,,,,,,,,,,,,,,,,,,,,,,,,,,,,,,,,,,,,,
,,8,2.485,8,2.485,0,48,48,78,1,30,cookie,pretzel,,90302,001,2022-04-28_13h08.16.890,SPAMnetsValid,2021.1.4,MacIntel,29.41176471,,,,,,,,,,,,,,,,,,,,,,,,,,,,,,,,,,,,,,,,,,,,,,,,,,,,,,,,,,,,,,,,,,,,,,,,,,,,,,,,,,,,,,,,,
,,1,2.169,1,2.169,0,49,49,70,1,5,oven,tree,,90302,001,2022-04-28_13h08.16.890,SPAMnetsValid,2021.1.4,MacIntel,29.41176471,,,,,,,,,,,,,,,,,,,,,,,,,,,,,,,,,,,,,,,,,,,,,,,,,,,,,,,,,,,,,,,,,,,,,,,,,,,,,,,,,,,,,,,,,
,,9,1.42,9,1.42,0,50,50,82,1,93,kitchen,oven,,90302,001,2022-04-28_13h08.16.890,SPAMnetsValid,2021.1.4,MacIntel,29.41176471,,,,,,,,,,,,,,,,,,,,,,,,,,,,,,,,,,,,,,,,,,,,,,,,,,,,,,,,,,,,,,,,,,,,,,,,,,,,,,,,,,,,,,,,,
,,9,1.519,9,1.519,0,51,51,72,1,59,rose,strawberry,,90302,001,2022-04-28_13h08.16.890,SPAMnetsValid,2021.1.4,MacIntel,29.41176471,,,,,,,,,,,,,,,,,,,,,,,,,,,,,,,,,,,,,,,,,,,,,,,,,,,,,,,,,,,,,,,,,,,,,,,,,,,,,,,,,,,,,,,,,
,,1,2.587,1,2.587,0,52,52,13,1,26,tomato,yogurt,,90302,001,2022-04-28_13h08.16.890,SPAMnetsValid,2021.1.4,MacIntel,29.41176471,,,,,,,,,,,,,,,,,,,,,,,,,,,,,,,,,,,,,,,,,,,,,,,,,,,,,,,,,,,,,,,,,,,,,,,,,,,,,,,,,,,,,,,,,
,,9,4.92,9,4.92,0,53,53,76,1,36,broom,kitchen,,90302,001,2022-04-28_13h08.16.890,SPAMnetsValid,2021.1.4,MacIntel,29.41176471,,,,,,,,,,,,,,,,,,,,,,,,,,,,,,,,,,,,,,,,,,,,,,,,,,,,,,,,,,,,,,,,,,,,,,,,,,,,,,,,,,,,,,,,,
,,1,1.67,1,1.67,0,54,54,11,1,37,garden,refrigerator,,90302,001,2022-04-28_13h08.16.890,SPAMnetsValid,2021.1.4,MacIntel,29.41176471,,,,,,,,,,,,,,,,,,,,,,,,,,,,,,,,,,,,,,,,,,,,,,,,,,,,,,,,,,,,,,,,,,,,,,,,,,,,,,,,,,,,,,,,,
,,2,1.002,2,1.002,0,55,55,91,1,2,kitchen,onion,,90302,001,2022-04-28_13h08.16.890,SPAMnetsValid,2021.1.4,MacIntel,29.41176471,,,,,,,,,,,,,,,,,,,,,,,,,,,,,,,,,,,,,,,,,,,,,,,,,,,,,,,,,,,,,,,,,,,,,,,,,,,,,,,,,,,,,,,,,
,,1,1.771,1,1.771,0,56,56,35,1,55,tomato,tree,,90302,001,2022-04-28_13h08.16.890,SPAMnetsValid,2021.1.4,MacIntel,29.41176471,,,,,,,,,,,,,,,,,,,,,,,,,,,,,,,,,,,,,,,,,,,,,,,,,,,,,,,,,,,,,,,,,,,,,,,,,,,,,,,,,,,,,,,,,
,,1,2.635,1,2.635,0,57,57,17,1,27,cactus,cookie,,90302,001,2022-04-28_13h08.16.890,SPAMnetsValid,2021.1.4,MacIntel,29.41176471,,,,,,,,,,,,,,,,,,,,,,,,,,,,,,,,,,,,,,,,,,,,,,,,,,,,,,,,,,,,,,,,,,,,,,,,,,,,,,,,,,,,,,,,,
,,6,1.803,6,1.803,0,58,58,39,1,15,onion,oven,,90302,001,2022-04-28_13h08.16.890,SPAMnetsValid,2021.1.4,MacIntel,29.41176471,,,,,,,,,,,,,,,,,,,,,,,,,,,,,,,,,,,,,,,,,,,,,,,,,,,,,,,,,,,,,,,,,,,,,,,,,,,,,,,,,,,,,,,,,
,,1,1.319,1,1.319,0,59,59,60,1,89,chocolate,rose,,90302,001,2022-04-28_13h08.16.890,SPAMnetsValid,2021.1.4,MacIntel,29.41176471,,,,,,,,,,,,,,,,,,,,,,,,,,,,,,,,,,,,,,,,,,,,,,,,,,,,,,,,,,,,,,,,,,,,,,,,,,,,,,,,,,,,,,,,,
,,1,0.986,1,0.986,0,60,60,63,1,21,cake,onion,,90302,001,2022-04-28_13h08.16.890,SPAMnetsValid,2021.1.4,MacIntel,29.41176471,,,,,,,,,,,,,,,,,,,,,,,,,,,,,,,,,,,,,,,,,,,,,,,,,,,,,,,,,,,,,,,,,,,,,,,,,,,,,,,,,,,,,,,,,
,,7,1.886,7,1.886,0,61,61,41,1,19,microwave,pretzel,,90302,001,2022-04-28_13h08.16.890,SPAMnetsValid,2021.1.4,MacIntel,29.41176471,,,,,,,,,,,,,,,,,,,,,,,,,,,,,,,,,,,,,,,,,,,,,,,,,,,,,,,,,,,,,,,,,,,,,,,,,,,,,,,,,,,,,,,,,
,,1,1.62,1,1.62,0,62,62,22,1,16,chocolate,flower,,90302,001,2022-04-28_13h08.16.890,SPAMnetsValid,2021.1.4,MacIntel,29.41176471,,,,,,,,,,,,,,,,,,,,,,,,,,,,,,,,,,,,,,,,,,,,,,,,,,,,,,,,,,,,,,,,,,,,,,,,,,,,,,,,,,,,,,,,,
,,8,21.686,8,21.686,0,63,63,29,1,42,garden,kitchen,,90302,001,2022-04-28_13h08.16.890,SPAMnetsValid,2021.1.4,MacIntel,29.41176471,,,,,,,,,,,,,,,,,,,,,,,,,,,,,,,,,,,,,,,,,,,,,,,,,,,,,,,,,,,,,,,,,,,,,,,,,,,,,,,,,,,,,,,,,
,,7,1.586,7,1.586,0,64,64,54,1,28,cake,melon,,90302,001,2022-04-28_13h08.16.890,SPAMnetsValid,2021.1.4,MacIntel,29.41176471,,,,,,,,,,,,,,,,,,,,,,,,,,,,,,,,,,,,,,,,,,,,,,,,,,,,,,,,,,,,,,,,,,,,,,,,,,,,,,,,,,,,,,,,,
,,9,1.587,9,1.587,0,65,65,19,1,76,garden,rose,,90302,001,2022-04-28_13h08.16.890,SPAMnetsValid,2021.1.4,MacIntel,29.41176471,,,,,,,,,,,,,,,,,,,,,,,,,,,,,,,,,,,,,,,,,,,,,,,,,,,,,,,,,,,,,,,,,,,,,,,,,,,,,,,,,,,,,,,,,
,,1,2.486,1,2.486,0,66,66,84,1,91,microwave,rose,,90302,001,2022-04-28_13h08.16.890,SPAMnetsValid,2021.1.4,MacIntel,29.41176471,,,,,,,,,,,,,,,,,,,,,,,,,,,,,,,,,,,,,,,,,,,,,,,,,,,,,,,,,,,,,,,,,,,,,,,,,,,,,,,,,,,,,,,,,
,,9,1.405,9,1.405,0,67,67,36,1,12,cookie,yogurt,,90302,001,2022-04-28_13h08.16.890,SPAMnetsValid,2021.1.4,MacIntel,29.41176471,,,,,,,,,,,,,,,,,,,,,,,,,,,,,,,,,,,,,,,,,,,,,,,,,,,,,,,,,,,,,,,,,,,,,,,,,,,,,,,,,,,,,,,,,
,,9,1.053,9,1.053,0,68,68,96,1,82,cake,kitchen,,90302,001,2022-04-28_13h08.16.890,SPAMnetsValid,2021.1.4,MacIntel,29.41176471,,,,,,,,,,,,,,,,,,,,,,,,,,,,,,,,,,,,,,,,,,,,,,,,,,,,,,,,,,,,,,,,,,,,,,,,,,,,,,,,,,,,,,,,,
,,1,1.421,1,1.421,0,69,69,5,1,13,broom,yogurt,,90302,001,2022-04-28_13h08.16.890,SPAMnetsValid,2021.1.4,MacIntel,29.41176471,,,,,,,,,,,,,,,,,,,,,,,,,,,,,,,,,,,,,,,,,,,,,,,,,,,,,,,,,,,,,,,,,,,,,,,,,,,,,,,,,,,,,,,,,
,,2,1.904,2,1.904,0,70,70,61,1,71,broom,rose,,90302,001,2022-04-28_13h08.16.890,SPAMnetsValid,2021.1.4,MacIntel,29.41176471,,,,,,,,,,,,,,,,,,,,,,,,,,,,,,,,,,,,,,,,,,,,,,,,,,,,,,,,,,,,,,,,,,,,,,,,,,,,,,,,,,,,,,,,,
,,9,2.004,9,2.004,0,71,71,67,1,54,chocolate,yogurt,,90302,001,2022-04-28_13h08.16.890,SPAMnetsValid,2021.1.4,MacIntel,29.41176471,,,,,,,,,,,,,,,,,,,,,,,,,,,,,,,,,,,,,,,,,,,,,,,,,,,,,,,,,,,,,,,,,,,,,,,,,,,,,,,,,,,,,,,,,
,,1,1.469,1,1.469,0,72,72,31,1,33,oven,yogurt,,90302,001,2022-04-28_13h08.16.890,SPAMnetsValid,2021.1.4,MacIntel,29.41176471,,,,,,,,,,,,,,,,,,,,,,,,,,,,,,,,,,,,,,,,,,,,,,,,,,,,,,,,,,,,,,,,,,,,,,,,,,,,,,,,,,,,,,,,,
,,1,13.321,1,13.321,0,73,73,89,1,80,chocolate,tree,,90302,001,2022-04-28_13h08.16.890,SPAMnetsValid,2021.1.4,MacIntel,29.41176471,,,,,,,,,,,,,,,,,,,,,,,,,,,,,,,,,,,,,,,,,,,,,,,,,,,,,,,,,,,,,,,,,,,,,,,,,,,,,,,,,,,,,,,,,
,,9,1.485,9,1.485,0,74,74,52,1,4,chocolate,pretzel,,90302,001,2022-04-28_13h08.16.890,SPAMnetsValid,2021.1.4,MacIntel,29.41176471,,,,,,,,,,,,,,,,,,,,,,,,,,,,,,,,,,,,,,,,,,,,,,,,,,,,,,,,,,,,,,,,,,,,,,,,,,,,,,,,,,,,,,,,,
,,1,11.387,1,11.387,0,75,75,51,1,47,onion,tomato,,90302,001,2022-04-28_13h08.16.890,SPAMnetsValid,2021.1.4,MacIntel,29.41176471,,,,,,,,,,,,,,,,,,,,,,,,,,,,,,,,,,,,,,,,,,,,,,,,,,,,,,,,,,,,,,,,,,,,,,,,,,,,,,,,,,,,,,,,,
,,1,1.085,1,1.085,0,76,76,12,1,67,flower,yogurt,,90302,001,2022-04-28_13h08.16.890,SPAMnetsValid,2021.1.4,MacIntel,29.41176471,,,,,,,,,,,,,,,,,,,,,,,,,,,,,,,,,,,,,,,,,,,,,,,,,,,,,,,,,,,,,,,,,,,,,,,,,,,,,,,,,,,,,,,,,
,,9,1.985,9,1.985,0,77,77,62,1,18,onion,refrigerator,,90302,001,2022-04-28_13h08.16.890,SPAMnetsValid,2021.1.4,MacIntel,29.41176471,,,,,,,,,,,,,,,,,,,,,,,,,,,,,,,,,,,,,,,,,,,,,,,,,,,,,,,,,,,,,,,,,,,,,,,,,,,,,,,,,,,,,,,,,
,,1,1.339,1,1.339,0,78,78,16,1,14,broom,cookie,,90302,001,2022-04-28_13h08.16.890,SPAMnetsValid,2021.1.4,MacIntel,29.41176471,,,,,,,,,,,,,,,,,,,,,,,,,,,,,,,,,,,,,,,,,,,,,,,,,,,,,,,,,,,,,,,,,,,,,,,,,,,,,,,,,,,,,,,,,
,,1,1.603,1,1.603,0,79,79,45,1,10,flower,onion,,90302,001,2022-04-28_13h08.16.890,SPAMnetsValid,2021.1.4,MacIntel,29.41176471,,,,,,,,,,,,,,,,,,,,,,,,,,,,,,,,,,,,,,,,,,,,,,,,,,,,,,,,,,,,,,,,,,,,,,,,,,,,,,,,,,,,,,,,,
,,7,3.271,7,3.271,0,80,80,3,1,49,flower,strawberry,,90302,001,2022-04-28_13h08.16.890,SPAMnetsValid,2021.1.4,MacIntel,29.41176471,,,,,,,,,,,,,,,,,,,,,,,,,,,,,,,,,,,,,,,,,,,,,,,,,,,,,,,,,,,,,,,,,,,,,,,,,,,,,,,,,,,,,,,,,
,,5,2.806,5,2.806,0,81,81,44,1,25,carrot,onion,,90302,001,2022-04-28_13h08.16.890,SPAMnetsValid,2021.1.4,MacIntel,29.41176471,,,,,,,,,,,,,,,,,,,,,,,,,,,,,,,,,,,,,,,,,,,,,,,,,,,,,,,,,,,,,,,,,,,,,,,,,,,,,,,,,,,,,,,,,
,,9,1.506,9,1.506,0,82,82,2,1,22,kitchen,strawberry,,90302,001,2022-04-28_13h08.16.890,SPAMnetsValid,2021.1.4,MacIntel,29.41176471,,,,,,,,,,,,,,,,,,,,,,,,,,,,,,,,,,,,,,,,,,,,,,,,,,,,,,,,,,,,,,,,,,,,,,,,,,,,,,,,,,,,,,,,,
,,8,2.885,8,2.885,0,83,83,69,1,45,onion,pretzel,,90302,001,2022-04-28_13h08.16.890,SPAMnetsValid,2021.1.4,MacIntel,29.41176471,,,,,,,,,,,,,,,,,,,,,,,,,,,,,,,,,,,,,,,,,,,,,,,,,,,,,,,,,,,,,,,,,,,,,,,,,,,,,,,,,,,,,,,,,
,,3,2.336,3,2.336,0,84,84,57,1,62,kitchen,rose,,90302,001,2022-04-28_13h08.16.890,SPAMnetsValid,2021.1.4,MacIntel,29.41176471,,,,,,,,,,,,,,,,,,,,,,,,,,,,,,,,,,,,,,,,,,,,,,,,,,,,,,,,,,,,,,,,,,,,,,,,,,,,,,,,,,,,,,,,,
,,9,1.386,9,1.386,0,85,85,64,1,9,kitchen,refrigerator,,90302,001,2022-04-28_13h08.16.890,SPAMnetsValid,2021.1.4,MacIntel,29.41176471,,,,,,,,,,,,,,,,,,,,,,,,,,,,,,,,,,,,,,,,,,,,,,,,,,,,,,,,,,,,,,,,,,,,,,,,,,,,,,,,,,,,,,,,,
,,1,2.186,1,2.186,0,86,86,1,1,31,cactus,pretzel,,90302,001,2022-04-28_13h08.16.890,SPAMnetsValid,2021.1.4,MacIntel,29.41176471,,,,,,,,,,,,,,,,,,,,,,,,,,,,,,,,,,,,,,,,,,,,,,,,,,,,,,,,,,,,,,,,,,,,,,,,,,,,,,,,,,,,,,,,,
,,1,0.785,1,0.785,0,87,87,73,1,50,carrot,rose,,90302,001,2022-04-28_13h08.16.890,SPAMnetsValid,2021.1.4,MacIntel,29.41176471,,,,,,,,,,,,,,,,,,,,,,,,,,,,,,,,,,,,,,,,,,,,,,,,,,,,,,,,,,,,,,,,,,,,,,,,,,,,,,,,,,,,,,,,,
,,9,1.686,9,1.686,0,88,88,83,1,6,garden,onion,,90302,001,2022-04-28_13h08.16.890,SPAMnetsValid,2021.1.4,MacIntel,29.41176471,,,,,,,,,,,,,,,,,,,,,,,,,,,,,,,,,,,,,,,,,,,,,,,,,,,,,,,,,,,,,,,,,,,,,,,,,,,,,,,,,,,,,,,,,
,,1,1.719,1,1.719,0,89,89,43,1,11,refrigerator,tree,,90302,001,2022-04-28_13h08.16.890,SPAMnetsValid,2021.1.4,MacIntel,29.41176471,,,,,,,,,,,,,,,,,,,,,,,,,,,,,,,,,,,,,,,,,,,,,,,,,,,,,,,,,,,,,,,,,,,,,,,,,,,,,,,,,,,,,,,,,
,,9,1.485,9,1.485,0,90,90,10,1,191,cake,cake,CHECK,90302,001,2022-04-28_13h08.16.890,SPAMnetsValid,2021.1.4,MacIntel,29.41176471,,,,,,,,,,,,,,,,,,,,,,,,,,,,,,,,,,,,,,,,,,,,,,,,,,,,,,,,,,,,,,,,,,,,,,,,,,,,,,,,,,,,,,,,,
,,7,1.436,7,1.436,0,91,91,48,1,66,melon,yogurt,,90302,001,2022-04-28_13h08.16.890,SPAMnetsValid,2021.1.4,MacIntel,29.41176471,,,,,,,,,,,,,,,,,,,,,,,,,,,,,,,,,,,,,,,,,,,,,,,,,,,,,,,,,,,,,,,,,,,,,,,,,,,,,,,,,,,,,,,,,
,,2,2.537,2,2.537,0,92,92,88,1,92,broom,flower,,90302,001,2022-04-28_13h08.16.890,SPAMnetsValid,2021.1.4,MacIntel,29.41176471,,,,,,,,,,,,,,,,,,,,,,,,,,,,,,,,,,,,,,,,,,,,,,,,,,,,,,,,,,,,,,,,,,,,,,,,,,,,,,,,,,,,,,,,,
,,2,1.136,2,1.136,0,93,93,27,1,72,broom,onion,,90302,001,2022-04-28_13h08.16.890,SPAMnetsValid,2021.1.4,MacIntel,29.41176471,,,,,,,,,,,,,,,,,,,,,,,,,,,,,,,,,,,,,,,,,,,,,,,,,,,,,,,,,,,,,,,,,,,,,,,,,,,,,,,,,,,,,,,,,
,,9,4.569,9,4.569,0,94,94,75,1,69,carrot,refrigerator,,90302,001,2022-04-28_13h08.16.890,SPAMnetsValid,2021.1.4,MacIntel,29.41176471,,,,,,,,,,,,,,,,,,,,,,,,,,,,,,,,,,,,,,,,,,,,,,,,,,,,,,,,,,,,,,,,,,,,,,,,,,,,,,,,,,,,,,,,,
,,7,5.986,7,5.986,0,95,95,46,1,41,broom,cactus,,90302,001,2022-04-28_13h08.16.890,SPAMnetsValid,2021.1.4,MacIntel,29.41176471,,,,,,,,,,,,,,,,,,,,,,,,,,,,,,,,,,,,,,,,,,,,,,,,,,,,,,,,,,,,,,,,,,,,,,,,,,,,,,,,,,,,,,,,,
,,7,7.153,7,7.153,0,96,96,65,1,46,garden,yogurt,,90302,001,2022-04-28_13h08.16.890,SPAMnetsValid,2021.1.4,MacIntel,29.41176471,,,,,,,,,,,,,,,,,,,,,,,,,,,,,,,,,,,,,,,,,,,,,,,,,,,,,,,,,,,,,,,,,,,,,,,,,,,,,,,,,,,,,,,,,
,,,,,,,,,,,,,,,90302,001,2022-04-28_13h08.16.890,SPAMnetsValid,2021.1.4,MacIntel,29.41176471,0,0,0,0,1,,,,,,,,,,,,,,,,,,,,,,,,,,,,,,,,,,,,,,,,,,,,,,,,,,,,,,,,,,,,,,,,,,,,,,,,,,,,,,,,,,,,
,,,,,,,,,,,,,,,90302,001,2022-04-28_13h08.16.890,SPAMnetsValid,2021.1.4,MacIntel,29.41176471,,,,,,0,0,0,0,1,1,0,,,,,,,,,,,,,,,,,,,,,,,,,,,,,,,,,,,,,,,,,,,,,,,,,,,,,,,,,,,,,,,,,,,,,,,,,,,,,
,,,,1,6.677,,,,,,129,cactus,refrigerator,,90302,001,2022-04-28_13h08.16.890,SPAMnetsValid,2021.1.4,MacIntel,29.41176471,,,,,,,,,,,,,1,6.677,0,0,0,3,1,,,,,,,,,,,,,,,,,,,,,,,,,,,,,,,,,,,,,,,,,,,,,,,,,,,,,,,,,,,,,,,,,,,,,,
,,,,1,2.034,,,,,,169,onion,yogurt,,90302,001,2022-04-28_13h08.16.890,SPAMnetsValid,2021.1.4,MacIntel,29.41176471,,,,,,,,,,,,,1,2.034,0,1,1,24,1,,,,,,,,,,,,,,,,,,,,,,,,,,,,,,,,,,,,,,,,,,,,,,,,,,,,,,,,,,,,,,,,,,,,,,
,,,,2,1.268,,,,,,144,cake,garden,,90302,001,2022-04-28_13h08.16.890,SPAMnetsValid,2021.1.4,MacIntel,29.41176471,,,,,,,,,,,,,2,1.268,0,2,2,58,1,,,,,,,,,,,,,,,,,,,,,,,,,,,,,,,,,,,,,,,,,,,,,,,,,,,,,,,,,,,,,,,,,,,,,,
,,,,8,2.319,,,,,,119,strawberry,tree,,90302,001,2022-04-28_13h08.16.890,SPAMnetsValid,2021.1.4,MacIntel,29.41176471,,,,,,,,,,,,,8,2.319,0,3,3,18,1,,,,,,,,,,,,,,,,,,,,,,,,,,,,,,,,,,,,,,,,,,,,,,,,,,,,,,,,,,,,,,,,,,,,,,
,,,,7,2.387,,,,,,172,kitchen,melon,,90302,001,2022-04-28_13h08.16.890,SPAMnetsValid,2021.1.4,MacIntel,29.41176471,,,,,,,,,,,,,7,2.387,0,4,4,77,1,,,,,,,,,,,,,,,,,,,,,,,,,,,,,,,,,,,,,,,,,,,,,,,,,,,,,,,,,,,,,,,,,,,,,,
,,,,9,1.885,,,,,,118,chocolate,oven,,90302,001,2022-04-28_13h08.16.890,SPAMnetsValid,2021.1.4,MacIntel,29.41176471,,,,,,,,,,,,,9,1.885,0,5,5,10,1,,,,,,,,,,,,,,,,,,,,,,,,,,,,,,,,,,,,,,,,,,,,,,,,,,,,,,,,,,,,,,,,,,,,,,
,,,,9,0.969,,,,,,99,garden,melon,,90302,001,2022-04-28_13h08.16.890,SPAMnetsValid,2021.1.4,MacIntel,29.41176471,,,,,,,,,,,,,9,0.969,0,6,6,17,1,,,,,,,,,,,,,,,,,,,,,,,,,,,,,,,,,,,,,,,,,,,,,,,,,,,,,,,,,,,,,,,,,,,,,,
,,,,9,0.852,,,,,,138,flower,rose,,90302,001,2022-04-28_13h08.16.890,SPAMnetsValid,2021.1.4,MacIntel,29.41176471,,,,,,,,,,,,,9,0.852,0,7,7,61,1,,,,,,,,,,,,,,,,,,,,,,,,,,,,,,,,,,,,,,,,,,,,,,,,,,,,,,,,,,,,,,,,,,,,,,
,,,,1,2.136,,,,,,109,broom,strawberry,,90302,001,2022-04-28_13h08.16.890,SPAMnetsValid,2021.1.4,MacIntel,29.41176471,,,,,,,,,,,,,1,2.136,0,8,8,4,1,,,,,,,,,,,,,,,,,,,,,,,,,,,,,,,,,,,,,,,,,,,,,,,,,,,,,,,,,,,,,,,,,,,,,,
,,,,9,1.919,,,,,,112,cake,carrot,,90302,001,2022-04-28_13h08.16.890,SPAMnetsValid,2021.1.4,MacIntel,29.41176471,,,,,,,,,,,,,9,1.919,0,9,9,39,1,,,,,,,,,,,,,,,,,,,,,,,,,,,,,,,,,,,,,,,,,,,,,,,,,,,,,,,,,,,,,,,,,,,,,,
,,,,1,1.319,,,,,,143,pretzel,rose,,90302,001,2022-04-28_13h08.16.890,SPAMnetsValid,2021.1.4,MacIntel,29.41176471,,,,,,,,,,,,,1,1.319,0,10,10,55,1,,,,,,,,,,,,,,,,,,,,,,,,,,,,,,,,,,,,,,,,,,,,,,,,,,,,,,,,,,,,,,,,,,,,,,
,,,,7,1.205,,,,,,173,kitchen,tomato,,90302,001,2022-04-28_13h08.16.890,SPAMnetsValid,2021.1.4,MacIntel,29.41176471,,,,,,,,,,,,,7,1.205,0,11,11,1,1,,,,,,,,,,,,,,,,,,,,,,,,,,,,,,,,,,,,,,,,,,,,,,,,,,,,,,,,,,,,,,,,,,,,,,
,,,,7,1.002,,,,,,97,chocolate,kitchen,,90302,001,2022-04-28_13h08.16.890,SPAMnetsValid,2021.1.4,MacIntel,29.41176471,,,,,,,,,,,,,7,1.002,0,12,12,8,1,,,,,,,,,,,,,,,,,,,,,,,,,,,,,,,,,,,,,,,,,,,,,,,,,,,,,,,,,,,,,,,,,,,,,,
,,,,2,2.621,,,,,,179,broom,oven,,90302,001,2022-04-28_13h08.16.890,SPAMnetsValid,2021.1.4,MacIntel,29.41176471,,,,,,,,,,,,,2,2.621,0,13,13,45,1,,,,,,,,,,,,,,,,,,,,,,,,,,,,,,,,,,,,,,,,,,,,,,,,,,,,,,,,,,,,,,,,,,,,,,
,,,,2,1.718,,,,,,190,microwave,strawberry,,90302,001,2022-04-28_13h08.16.890,SPAMnetsValid,2021.1.4,MacIntel,29.41176471,,,,,,,,,,,,,2,1.718,0,14,14,90,1,,,,,,,,,,,,,,,,,,,,,,,,,,,,,,,,,,,,,,,,,,,,,,,,,,,,,,,,,,,,,,,,,,,,,,
,,,,2,1.036,,,,,,152,cactus,strawberry,,90302,001,2022-04-28_13h08.16.890,SPAMnetsValid,2021.1.4,MacIntel,29.41176471,,,,,,,,,,,,,2,1.036,0,15,15,49,1,,,,,,,,,,,,,,,,,,,,,,,,,,,,,,,,,,,,,,,,,,,,,,,,,,,,,,,,,,,,,,,,,,,,,,
,,,,6,3.686,,,,,,183,cake,rose,,90302,001,2022-04-28_13h08.16.890,SPAMnetsValid,2021.1.4,MacIntel,29.41176471,,,,,,,,,,,,,6,3.686,0,16,16,19,1,,,,,,,,,,,,,,,,,,,,,,,,,,,,,,,,,,,,,,,,,,,,,,,,,,,,,,,,,,,,,,,,,,,,,,
,,,,7,1.353,,,,,,120,microwave,oven,,90302,001,2022-04-28_13h08.16.890,SPAMnetsValid,2021.1.4,MacIntel,29.41176471,,,,,,,,,,,,,7,1.353,0,17,17,14,1,,,,,,,,,,,,,,,,,,,,,,,,,,,,,,,,,,,,,,,,,,,,,,,,,,,,,,,,,,,,,,,,,,,,,,
,,,,9,1.805,,,,,,193,melon,melon,CHECK,90302,001,2022-04-28_13h08.16.890,SPAMnetsValid,2021.1.4,MacIntel,29.41176471,,,,,,,,,,,,,9,1.805,0,18,18,86,1,,,,,,,,,,,,,,,,,,,,,,,,,,,,,,,,,,,,,,,,,,,,,,,,,,,,,,,,,,,,,,,,,,,,,,
,,,,9,0.936,,,,,,158,cookie,oven,,90302,001,2022-04-28_13h08.16.890,SPAMnetsValid,2021.1.4,MacIntel,29.41176471,,,,,,,,,,,,,9,0.936,0,19,19,27,1,,,,,,,,,,,,,,,,,,,,,,,,,,,,,,,,,,,,,,,,,,,,,,,,,,,,,,,,,,,,,,,,,,,,,,
,,,,9,1.003,,,,,,116,cake,chocolate,,90302,001,2022-04-28_13h08.16.890,SPAMnetsValid,2021.1.4,MacIntel,29.41176471,,,,,,,,,,,,,9,1.003,0,20,20,44,1,,,,,,,,,,,,,,,,,,,,,,,,,,,,,,,,,,,,,,,,,,,,,,,,,,,,,,,,,,,,,,,,,,,,,,
,,,,1,1.535,,,,,,180,tree,yogurt,,90302,001,2022-04-28_13h08.16.890,SPAMnetsValid,2021.1.4,MacIntel,29.41176471,,,,,,,,,,,,,1,1.535,0,21,21,68,1,,,,,,,,,,,,,,,,,,,,,,,,,,,,,,,,,,,,,,,,,,,,,,,,,,,,,,,,,,,,,,,,,,,,,,
,,,,9,2.036,,,,,,139,carrot,strawberry,,90302,001,2022-04-28_13h08.16.890,SPAMnetsValid,2021.1.4,MacIntel,29.41176471,,,,,,,,,,,,,9,2.036,0,22,22,37,1,,,,,,,,,,,,,,,,,,,,,,,,,,,,,,,,,,,,,,,,,,,,,,,,,,,,,,,,,,,,,,,,,,,,,,
,,,,1,2.486,,,,,,171,cake,tomato,,90302,001,2022-04-28_13h08.16.890,SPAMnetsValid,2021.1.4,MacIntel,29.41176471,,,,,,,,,,,,,1,2.486,0,23,23,88,1,,,,,,,,,,,,,,,,,,,,,,,,,,,,,,,,,,,,,,,,,,,,,,,,,,,,,,,,,,,,,,,,,,,,,,
,,,,3,4.387,,,,,,166,cake,yogurt,,90302,001,2022-04-28_13h08.16.890,SPAMnetsValid,2021.1.4,MacIntel,29.41176471,,,,,,,,,,,,,3,4.387,0,24,24,91,1,,,,,,,,,,,,,,,,,,,,,,,,,,,,,,,,,,,,,,,,,,,,,,,,,,,,,,,,,,,,,,,,,,,,,,
,,,,1,6.802,,,,,,126,kitchen,tree,,90302,001,2022-04-28_13h08.16.890,SPAMnetsValid,2021.1.4,MacIntel,29.41176471,,,,,,,,,,,,,1,6.802,0,25,25,50,1,,,,,,,,,,,,,,,,,,,,,,,,,,,,,,,,,,,,,,,,,,,,,,,,,,,,,,,,,,,,,,,,,,,,,,
,,,,9,2.586,,,,,,156,melon,rose,,90302,001,2022-04-28_13h08.16.890,SPAMnetsValid,2021.1.4,MacIntel,29.41176471,,,,,,,,,,,,,9,2.586,0,26,26,31,1,,,,,,,,,,,,,,,,,,,,,,,,,,,,,,,,,,,,,,,,,,,,,,,,,,,,,,,,,,,,,,,,,,,,,,
,,,,9,1.986,,,,,,100,garden,tomato,,90302,001,2022-04-28_13h08.16.890,SPAMnetsValid,2021.1.4,MacIntel,29.41176471,,,,,,,,,,,,,9,1.986,0,27,27,83,1,,,,,,,,,,,,,,,,,,,,,,,,,,,,,,,,,,,,,,,,,,,,,,,,,,,,,,,,,,,,,,,,,,,,,,
,,,,1,1.54,,,,,,145,cactus,yogurt,,90302,001,2022-04-28_13h08.16.890,SPAMnetsValid,2021.1.4,MacIntel,29.41176471,,,,,,,,,,,,,1,1.54,0,28,28,15,1,,,,,,,,,,,,,,,,,,,,,,,,,,,,,,,,,,,,,,,,,,,,,,,,,,,,,,,,,,,,,,,,,,,,,,
,,,,2,4.018,,,,,,125,carrot,tree,,90302,001,2022-04-28_13h08.16.890,SPAMnetsValid,2021.1.4,MacIntel,29.41176471,,,,,,,,,,,,,2,4.018,0,29,29,30,1,,,,,,,,,,,,,,,,,,,,,,,,,,,,,,,,,,,,,,,,,,,,,,,,,,,,,,,,,,,,,,,,,,,,,,
,,,,1,1.605,,,,,,187,cactus,microwave,,90302,001,2022-04-28_13h08.16.890,SPAMnetsValid,2021.1.4,MacIntel,29.41176471,,,,,,,,,,,,,1,1.605,0,30,30,71,1,,,,,,,,,,,,,,,,,,,,,,,,,,,,,,,,,,,,,,,,,,,,,,,,,,,,,,,,,,,,,,,,,,,,,,
,,,,1,1.685,,,,,,121,broom,microwave,,90302,001,2022-04-28_13h08.16.890,SPAMnetsValid,2021.1.4,MacIntel,29.41176471,,,,,,,,,,,,,1,1.685,0,31,31,95,1,,,,,,,,,,,,,,,,,,,,,,,,,,,,,,,,,,,,,,,,,,,,,,,,,,,,,,,,,,,,,,,,,,,,,,
,,,,1,0.935,,,,,,127,cactus,chocolate,,90302,001,2022-04-28_13h08.16.890,SPAMnetsValid,2021.1.4,MacIntel,29.41176471,,,,,,,,,,,,,1,0.935,0,32,32,57,1,,,,,,,,,,,,,,,,,,,,,,,,,,,,,,,,,,,,,,,,,,,,,,,,,,,,,,,,,,,,,,,,,,,,,,
,,,,9,4.452,,,,,,147,cake,refrigerator,,90302,001,2022-04-28_13h08.16.890,SPAMnetsValid,2021.1.4,MacIntel,29.41176471,,,,,,,,,,,,,9,4.452,0,33,33,35,1,,,,,,,,,,,,,,,,,,,,,,,,,,,,,,,,,,,,,,,,,,,,,,,,,,,,,,,,,,,,,,,,,,,,,,
,,,,8,2.685,,,,,,141,melon,tomato,,90302,001,2022-04-28_13h08.16.890,SPAMnetsValid,2021.1.4,MacIntel,29.41176471,,,,,,,,,,,,,8,2.685,0,34,34,70,1,,,,,,,,,,,,,,,,,,,,,,,,,,,,,,,,,,,,,,,,,,,,,,,,,,,,,,,,,,,,,,,,,,,,,,
,,,,1,1.552,,,,,,107,rose,tomato,,90302,001,2022-04-28_13h08.16.890,SPAMnetsValid,2021.1.4,MacIntel,29.41176471,,,,,,,,,,,,,1,1.552,0,35,35,26,1,,,,,,,,,,,,,,,,,,,,,,,,,,,,,,,,,,,,,,,,,,,,,,,,,,,,,,,,,,,,,,,,,,,,,,
,,,,6,1.72,,,,,,114,cookie,strawberry,,90302,001,2022-04-28_13h08.16.890,SPAMnetsValid,2021.1.4,MacIntel,29.41176471,,,,,,,,,,,,,6,1.72,0,36,36,87,1,,,,,,,,,,,,,,,,,,,,,,,,,,,,,,,,,,,,,,,,,,,,,,,,,,,,,,,,,,,,,,,,,,,,,,
,,,,1,1.386,,,,,,185,cactus,rose,,90302,001,2022-04-28_13h08.16.890,SPAMnetsValid,2021.1.4,MacIntel,29.41176471,,,,,,,,,,,,,1,1.386,0,37,37,43,1,,,,,,,,,,,,,,,,,,,,,,,,,,,,,,,,,,,,,,,,,,,,,,,,,,,,,,,,,,,,,,,,,,,,,,
,,,,1,0.869,,,,,,188,flower,tree,,90302,001,2022-04-28_13h08.16.890,SPAMnetsValid,2021.1.4,MacIntel,29.41176471,,,,,,,,,,,,,1,0.869,0,38,38,7,1,,,,,,,,,,,,,,,,,,,,,,,,,,,,,,,,,,,,,,,,,,,,,,,,,,,,,,,,,,,,,,,,,,,,,,
,,,,9,1.803,,,,,,113,refrigerator,strawberry,,90302,001,2022-04-28_13h08.16.890,SPAMnetsValid,2021.1.4,MacIntel,29.41176471,,,,,,,,,,,,,9,1.803,0,39,39,56,1,,,,,,,,,,,,,,,,,,,,,,,,,,,,,,,,,,,,,,,,,,,,,,,,,,,,,,,,,,,,,,,,,,,,,,
,,,,1,2.021,,,,,,134,carrot,flower,,90302,001,2022-04-28_13h08.16.890,SPAMnetsValid,2021.1.4,MacIntel,29.41176471,,,,,,,,,,,,,1,2.021,0,40,40,93,1,,,,,,,,,,,,,,,,,,,,,,,,,,,,,,,,,,,,,,,,,,,,,,,,,,,,,,,,,,,,,,,,,,,,,,
,,,,1,1.636,,,,,,111,carrot,microwave,,90302,001,2022-04-28_13h08.16.890,SPAMnetsValid,2021.1.4,MacIntel,29.41176471,,,,,,,,,,,,,1,1.636,0,41,41,16,1,,,,,,,,,,,,,,,,,,,,,,,,,,,,,,,,,,,,,,,,,,,,,,,,,,,,,,,,,,,,,,,,,,,,,,
,,,,9,1.769,,,,,,170,cookie,microwave,,90302,001,2022-04-28_13h08.16.890,SPAMnetsValid,2021.1.4,MacIntel,29.41176471,,,,,,,,,,,,,9,1.769,0,42,42,92,1,,,,,,,,,,,,,,,,,,,,,,,,,,,,,,,,,,,,,,,,,,,,,,,,,,,,,,,,,,,,,,,,,,,,,,
,,,,1,1.469,,,,,,159,cookie,flower,,90302,001,2022-04-28_13h08.16.890,SPAMnetsValid,2021.1.4,MacIntel,29.41176471,,,,,,,,,,,,,1,1.469,0,43,43,21,1,,,,,,,,,,,,,,,,,,,,,,,,,,,,,,,,,,,,,,,,,,,,,,,,,,,,,,,,,,,,,,,,,,,,,,
,,,,1,1.169,,,,,,128,melon,microwave,,90302,001,2022-04-28_13h08.16.890,SPAMnetsValid,2021.1.4,MacIntel,29.41176471,,,,,,,,,,,,,1,1.169,0,44,44,74,1,,,,,,,,,,,,,,,,,,,,,,,,,,,,,,,,,,,,,,,,,,,,,,,,,,,,,,,,,,,,,,,,,,,,,,
,,,,1,0.902,,,,,,165,onion,rose,,90302,001,2022-04-28_13h08.16.890,SPAMnetsValid,2021.1.4,MacIntel,29.41176471,,,,,,,,,,,,,1,0.902,0,45,45,40,1,,,,,,,,,,,,,,,,,,,,,,,,,,,,,,,,,,,,,,,,,,,,,,,,,,,,,,,,,,,,,,,,,,,,,,
,,,,1,1.602,,,,,,142,garden,tree,,90302,001,2022-04-28_13h08.16.890,SPAMnetsValid,2021.1.4,MacIntel,29.41176471,,,,,,,,,,,,,1,1.602,0,46,46,22,1,,,,,,,,,,,,,,,,,,,,,,,,,,,,,,,,,,,,,,,,,,,,,,,,,,,,,,,,,,,,,,,,,,,,,,
,,,,1,0.853,,,,,,132,broom,tree,,90302,001,2022-04-28_13h08.16.890,SPAMnetsValid,2021.1.4,MacIntel,29.41176471,,,,,,,,,,,,,1,0.853,0,47,47,78,1,,,,,,,,,,,,,,,,,,,,,,,,,,,,,,,,,,,,,,,,,,,,,,,,,,,,,,,,,,,,,,,,,,,,,,
,,,,9,1.486,,,,,,102,chocolate,refrigerator,,90302,001,2022-04-28_13h08.16.890,SPAMnetsValid,2021.1.4,MacIntel,29.41176471,,,,,,,,,,,,,9,1.486,0,48,48,76,1,,,,,,,,,,,,,,,,,,,,,,,,,,,,,,,,,,,,,,,,,,,,,,,,,,,,,,,,,,,,,,,,,,,,,,
,,,,9,0.871,,,,,,110,chocolate,cookie,,90302,001,2022-04-28_13h08.16.890,SPAMnetsValid,2021.1.4,MacIntel,29.41176471,,,,,,,,,,,,,9,0.871,0,49,49,52,1,,,,,,,,,,,,,,,,,,,,,,,,,,,,,,,,,,,,,,,,,,,,,,,,,,,,,,,,,,,,,,,,,,,,,,
,,,,9,1.202,,,,,,106,cake,strawberry,,90302,001,2022-04-28_13h08.16.890,SPAMnetsValid,2021.1.4,MacIntel,29.41176471,,,,,,,,,,,,,9,1.202,0,50,50,0,1,,,,,,,,,,,,,,,,,,,,,,,,,,,,,,,,,,,,,,,,,,,,,,,,,,,,,,,,,,,,,,,,,,,,,,
,,,,1,1.519,,,,,,149,broom,tomato,,90302,001,2022-04-28_13h08.16.890,SPAMnetsValid,2021.1.4,MacIntel,29.41176471,,,,,,,,,,,,,1,1.519,0,51,51,20,1,,,,,,,,,,,,,,,,,,,,,,,,,,,,,,,,,,,,,,,,,,,,,,,,,,,,,,,,,,,,,,,,,,,,,,
,,,,8,1.786,,,,,,181,carrot,kitchen,,90302,001,2022-04-28_13h08.16.890,SPAMnetsValid,2021.1.4,MacIntel,29.41176471,,,,,,,,,,,,,8,1.786,0,52,52,72,1,,,,,,,,,,,,,,,,,,,,,,,,,,,,,,,,,,,,,,,,,,,,,,,,,,,,,,,,,,,,,,,,,,,,,,
,,,,8,1.403,,,,,,160,cookie,kitchen,,90302,001,2022-04-28_13h08.16.890,SPAMnetsValid,2021.1.4,MacIntel,29.41176471,,,,,,,,,,,,,8,1.403,0,53,53,65,1,,,,,,,,,,,,,,,,,,,,,,,,,,,,,,,,,,,,,,,,,,,,,,,,,,,,,,,,,,,,,,,,,,,,,,
,,,,2,2.919,,,,,,98,pretzel,strawberry,,90302,001,2022-04-28_13h08.16.890,SPAMnetsValid,2021.1.4,MacIntel,29.41176471,,,,,,,,,,,,,2,2.919,0,54,54,82,1,,,,,,,,,,,,,,,,,,,,,,,,,,,,,,,,,,,,,,,,,,,,,,,,,,,,,,,,,,,,,,,,,,,,,,
,,,,1,1.686,,,,,,153,carrot,pretzel,,90302,001,2022-04-28_13h08.16.890,SPAMnetsValid,2021.1.4,MacIntel,29.41176471,,,,,,,,,,,,,1,1.686,0,55,55,34,1,,,,,,,,,,,,,,,,,,,,,,,,,,,,,,,,,,,,,,,,,,,,,,,,,,,,,,,,,,,,,,,,,,,,,,
,,,,1,0.886,,,,,,103,pretzel,tomato,,90302,001,2022-04-28_13h08.16.890,SPAMnetsValid,2021.1.4,MacIntel,29.41176471,,,,,,,,,,,,,1,0.886,0,56,56,79,1,,,,,,,,,,,,,,,,,,,,,,,,,,,,,,,,,,,,,,,,,,,,,,,,,,,,,,,,,,,,,,,,,,,,,,
,,,,9,1.335,,,,,,150,microwave,refrigerator,,90302,001,2022-04-28_13h08.16.890,SPAMnetsValid,2021.1.4,MacIntel,29.41176471,,,,,,,,,,,,,9,1.335,0,57,57,66,1,,,,,,,,,,,,,,,,,,,,,,,,,,,,,,,,,,,,,,,,,,,,,,,,,,,,,,,,,,,,,,,,,,,,,,
,,,,1,1.735,,,,,,146,pretzel,tree,,90302,001,2022-04-28_13h08.16.890,SPAMnetsValid,2021.1.4,MacIntel,29.41176471,,,,,,,,,,,,,1,1.735,0,58,58,80,1,,,,,,,,,,,,,,,,,,,,,,,,,,,,,,,,,,,,,,,,,,,,,,,,,,,,,,,,,,,,,,,,,,,,,,
,,,,1,3.103,,,,,,123,cookie,tree,,90302,001,2022-04-28_13h08.16.890,SPAMnetsValid,2021.1.4,MacIntel,29.41176471,,,,,,,,,,,,,1,3.103,0,59,59,46,1,,,,,,,,,,,,,,,,,,,,,,,,,,,,,,,,,,,,,,,,,,,,,,,,,,,,,,,,,,,,,,,,,,,,,,
,,,,1,0.919,,,,,,137,microwave,tree,,90302,001,2022-04-28_13h08.16.890,SPAMnetsValid,2021.1.4,MacIntel,29.41176471,,,,,,,,,,,,,1,0.919,0,60,60,63,1,,,,,,,,,,,,,,,,,,,,,,,,,,,,,,,,,,,,,,,,,,,,,,,,,,,,,,,,,,,,,,,,,,,,,,
,,,,9,1.702,,,,,,154,strawberry,yogurt,,90302,001,2022-04-28_13h08.16.890,SPAMnetsValid,2021.1.4,MacIntel,29.41176471,,,,,,,,,,,,,9,1.702,0,61,61,28,1,,,,,,,,,,,,,,,,,,,,,,,,,,,,,,,,,,,,,,,,,,,,,,,,,,,,,,,,,,,,,,,,,,,,,,
,,,,9,2.269,,,,,,161,kitchen,pretzel,,90302,001,2022-04-28_13h08.16.890,SPAMnetsValid,2021.1.4,MacIntel,29.41176471,,,,,,,,,,,,,9,2.269,0,62,62,36,1,,,,,,,,,,,,,,,,,,,,,,,,,,,,,,,,,,,,,,,,,,,,,,,,,,,,,,,,,,,,,,,,,,,,,,
,,,,1,1.653,,,,,,189,onion,tree,,90302,001,2022-04-28_13h08.16.890,SPAMnetsValid,2021.1.4,MacIntel,29.41176471,,,,,,,,,,,,,1,1.653,0,63,63,62,1,,,,,,,,,,,,,,,,,,,,,,,,,,,,,,,,,,,,,,,,,,,,,,,,,,,,,,,,,,,,,,,,,,,,,,
,,,,1,1.102,,,,,,105,cactus,oven,,90302,001,2022-04-28_13h08.16.890,SPAMnetsValid,2021.1.4,MacIntel,29.41176471,,,,,,,,,,,,,1,1.102,0,64,64,13,1,,,,,,,,,,,,,,,,,,,,,,,,,,,,,,,,,,,,,,,,,,,,,,,,,,,,,,,,,,,,,,,,,,,,,,
,,,,9,1.835,,,,,,96,oven,strawberry,,90302,001,2022-04-28_13h08.16.890,SPAMnetsValid,2021.1.4,MacIntel,29.41176471,,,,,,,,,,,,,9,1.835,0,65,65,67,1,,,,,,,,,,,,,,,,,,,,,,,,,,,,,,,,,,,,,,,,,,,,,,,,,,,,,,,,,,,,,,,,,,,,,,
,,,,9,1.386,,,,,,184,oven,pretzel,,90302,001,2022-04-28_13h08.16.890,SPAMnetsValid,2021.1.4,MacIntel,29.41176471,,,,,,,,,,,,,9,1.386,0,66,66,42,1,,,,,,,,,,,,,,,,,,,,,,,,,,,,,,,,,,,,,,,,,,,,,,,,,,,,,,,,,,,,,,,,,,,,,,
,,,,1,1.436,,,,,,182,flower,refrigerator,,90302,001,2022-04-28_13h08.16.890,SPAMnetsValid,2021.1.4,MacIntel,29.41176471,,,,,,,,,,,,,1,1.436,0,67,67,32,1,,,,,,,,,,,,,,,,,,,,,,,,,,,,,,,,,,,,,,,,,,,,,,,,,,,,,,,,,,,,,,,,,,,,,,
,,,,7,2.985,,,,,,140,cookie,refrigerator,,90302,001,2022-04-28_13h08.16.890,SPAMnetsValid,2021.1.4,MacIntel,29.41176471,,,,,,,,,,,,,7,2.985,0,68,68,89,1,,,,,,,,,,,,,,,,,,,,,,,,,,,,,,,,,,,,,,,,,,,,,,,,,,,,,,,,,,,,,,,,,,,,,,
,,,,1,2.155,,,,,,174,cake,pretzel,,90302,001,2022-04-28_13h08.16.890,SPAMnetsValid,2021.1.4,MacIntel,29.41176471,,,,,,,,,,,,,1,2.155,0,69,69,2,1,,,,,,,,,,,,,,,,,,,,,,,,,,,,,,,,,,,,,,,,,,,,,,,,,,,,,,,,,,,,,,,,,,,,,,
,,,,9,2.419,,,,,,122,flower,garden,,90302,001,2022-04-28_13h08.16.890,SPAMnetsValid,2021.1.4,MacIntel,29.41176471,,,,,,,,,,,,,9,2.419,0,70,70,60,1,,,,,,,,,,,,,,,,,,,,,,,,,,,,,,,,,,,,,,,,,,,,,,,,,,,,,,,,,,,,,,,,,,,,,,
,,,,9,1.985,,,,,,151,microwave,onion,,90302,001,2022-04-28_13h08.16.890,SPAMnetsValid,2021.1.4,MacIntel,29.41176471,,,,,,,,,,,,,9,1.985,0,71,71,6,1,,,,,,,,,,,,,,,,,,,,,,,,,,,,,,,,,,,,,,,,,,,,,,,,,,,,,,,,,,,,,,,,,,,,,,
,,,,9,1.036,,,,,,194,cactus,cactus,CHECK,90302,001,2022-04-28_13h08.16.890,SPAMnetsValid,2021.1.4,MacIntel,29.41176471,,,,,,,,,,,,,9,1.036,0,72,72,25,1,,,,,,,,,,,,,,,,,,,,,,,,,,,,,,,,,,,,,,,,,,,,,,,,,,,,,,,,,,,,,,,,,,,,,,
,,,,7,1.352,,,,,,148,flower,melon,,90302,001,2022-04-28_13h08.16.890,SPAMnetsValid,2021.1.4,MacIntel,29.41176471,,,,,,,,,,,,,7,1.352,0,73,73,23,1,,,,,,,,,,,,,,,,,,,,,,,,,,,,,,,,,,,,,,,,,,,,,,,,,,,,,,,,,,,,,,,,,,,,,,
,,,,2,2.336,,,,,,157,refrigerator,rose,,90302,001,2022-04-28_13h08.16.890,SPAMnetsValid,2021.1.4,MacIntel,29.41176471,,,,,,,,,,,,,2,2.336,0,74,74,64,1,,,,,,,,,,,,,,,,,,,,,,,,,,,,,,,,,,,,,,,,,,,,,,,,,,,,,,,,,,,,,,,,,,,,,,
,,,,3,1.32,,,,,,104,garden,microwave,,90302,001,2022-04-28_13h08.16.890,SPAMnetsValid,2021.1.4,MacIntel,29.41176471,,,,,,,,,,,,,3,1.32,0,75,75,81,1,,,,,,,,,,,,,,,,,,,,,,,,,,,,,,,,,,,,,,,,,,,,,,,,,,,,,,,,,,,,,,,,,,,,,,
,,,,1,7.922,,,,,,176,cactus,tomato,,90302,001,2022-04-28_13h08.16.890,SPAMnetsValid,2021.1.4,MacIntel,29.41176471,,,,,,,,,,,,,1,7.922,0,76,76,9,1,,,,,,,,,,,,,,,,,,,,,,,,,,,,,,,,,,,,,,,,,,,,,,,,,,,,,,,,,,,,,,,,,,,,,,
,,,,1,0.919,,,,,,163,melon,refrigerator,,90302,001,2022-04-28_13h08.16.890,SPAMnetsValid,2021.1.4,MacIntel,29.41176471,,,,,,,,,,,,,1,0.919,0,77,77,29,1,,,,,,,,,,,,,,,,,,,,,,,,,,,,,,,,,,,,,,,,,,,,,,,,,,,,,,,,,,,,,,,,,,,,,,
,,,,9,1.82,,,,,,117,melon,strawberry,,90302,001,2022-04-28_13h08.16.890,SPAMnetsValid,2021.1.4,MacIntel,29.41176471,,,,,,,,,,,,,9,1.82,0,78,78,11,1,,,,,,,,,,,,,,,,,,,,,,,,,,,,,,,,,,,,,,,,,,,,,,,,,,,,,,,,,,,,,,,,,,,,,,
,,,,2,1.619,,,,,,178,cactus,carrot,,90302,001,2022-04-28_13h08.16.890,SPAMnetsValid,2021.1.4,MacIntel,29.41176471,,,,,,,,,,,,,2,1.619,0,79,79,75,1,,,,,,,,,,,,,,,,,,,,,,,,,,,,,,,,,,,,,,,,,,,,,,,,,,,,,,,,,,,,,,,,,,,,,,
,,,,9,1.718,,,,,,167,carrot,garden,,90302,001,2022-04-28_13h08.16.890,SPAMnetsValid,2021.1.4,MacIntel,29.41176471,,,,,,,,,,,,,9,1.718,0,80,80,47,1,,,,,,,,,,,,,,,,,,,,,,,,,,,,,,,,,,,,,,,,,,,,,,,,,,,,,,,,,,,,,,,,,,,,,,
,,,,9,1.469,,,,,,168,cactus,flower,,90302,001,2022-04-28_13h08.16.890,SPAMnetsValid,2021.1.4,MacIntel,29.41176471,,,,,,,,,,,,,9,1.469,0,81,81,51,1,,,,,,,,,,,,,,,,,,,,,,,,,,,,,,,,,,,,,,,,,,,,,,,,,,,,,,,,,,,,,,,,,,,,,,
,,,,9,1.019,,,,,,177,chocolate,strawberry,,90302,001,2022-04-28_13h08.16.890,SPAMnetsValid,2021.1.4,MacIntel,29.41176471,,,,,,,,,,,,,9,1.019,0,82,82,53,1,,,,,,,,,,,,,,,,,,,,,,,,,,,,,,,,,,,,,,,,,,,,,,,,,,,,,,,,,,,,,,,,,,,,,,
,,,,8,3.868,,,,,,136,chocolate,microwave,,90302,001,2022-04-28_13h08.16.890,SPAMnetsValid,2021.1.4,MacIntel,29.41176471,,,,,,,,,,,,,8,3.868,0,83,83,96,1,,,,,,,,,,,,,,,,,,,,,,,,,,,,,,,,,,,,,,,,,,,,,,,,,,,,,,,,,,,,,,,,,,,,,,
,,,,1,1.622,,,,,,130,microwave,yogurt,,90302,001,2022-04-28_13h08.16.890,SPAMnetsValid,2021.1.4,MacIntel,29.41176471,,,,,,,,,,,,,1,1.622,0,84,84,84,1,,,,,,,,,,,,,,,,,,,,,,,,,,,,,,,,,,,,,,,,,,,,,,,,,,,,,,,,,,,,,,,,,,,,,,
,,,,9,2.338,,,,,,186,kitchen,yogurt,,90302,001,2022-04-28_13h08.16.890,SPAMnetsValid,2021.1.4,MacIntel,29.41176471,,,,,,,,,,,,,9,2.338,0,85,85,48,1,,,,,,,,,,,,,,,,,,,,,,,,,,,,,,,,,,,,,,,,,,,,,,,,,,,,,,,,,,,,,,,,,,,,,,
,,,,9,2.186,,,,,,135,carrot,oven,,90302,001,2022-04-28_13h08.16.890,SPAMnetsValid,2021.1.4,MacIntel,29.41176471,,,,,,,,,,,,,9,2.186,0,86,86,73,1,,,,,,,,,,,,,,,,,,,,,,,,,,,,,,,,,,,,,,,,,,,,,,,,,,,,,,,,,,,,,,,,,,,,,,
,,,,9,1.204,,,,,,124,oven,refrigerator,,90302,001,2022-04-28_13h08.16.890,SPAMnetsValid,2021.1.4,MacIntel,29.41176471,,,,,,,,,,,,,9,1.204,0,87,87,69,1,,,,,,,,,,,,,,,,,,,,,,,,,,,,,,,,,,,,,,,,,,,,,,,,,,,,,,,,,,,,,,,,,,,,,,
,,,,6,1.618,,,,,,162,microwave,tomato,,90302,001,2022-04-28_13h08.16.890,SPAMnetsValid,2021.1.4,MacIntel,29.41176471,,,,,,,,,,,,,6,1.618,0,88,88,12,1,,,,,,,,,,,,,,,,,,,,,,,,,,,,,,,,,,,,,,,,,,,,,,,,,,,,,,,,,,,,,,,,,,,,,,
,,,,6,1.187,,,,,,115,refrigerator,tomato,,90302,001,2022-04-28_13h08.16.890,SPAMnetsValid,2021.1.4,MacIntel,29.41176471,,,,,,,,,,,,,6,1.187,0,89,89,85,1,,,,,,,,,,,,,,,,,,,,,,,,,,,,,,,,,,,,,,,,,,,,,,,,,,,,,,,,,,,,,,,,,,,,,,
,,,,8,1.921,,,,,,131,cactus,garden,,90302,001,2022-04-28_13h08.16.890,SPAMnetsValid,2021.1.4,MacIntel,29.41176471,,,,,,,,,,,,,8,1.921,0,90,90,33,1,,,,,,,,,,,,,,,,,,,,,,,,,,,,,,,,,,,,,,,,,,,,,,,,,,,,,,,,,,,,,,,,,,,,,,
,,,,9,1.453,,,,,,155,carrot,cookie,,90302,001,2022-04-28_13h08.16.890,SPAMnetsValid,2021.1.4,MacIntel,29.41176471,,,,,,,,,,,,,9,1.453,0,91,91,38,1,,,,,,,,,,,,,,,,,,,,,,,,,,,,,,,,,,,,,,,,,,,,,,,,,,,,,,,,,,,,,,,,,,,,,,
,,,,1,1.869,,,,,,164,cookie,garden,,90302,001,2022-04-28_13h08.16.890,SPAMnetsValid,2021.1.4,MacIntel,29.41176471,,,,,,,,,,,,,1,1.869,0,92,92,59,1,,,,,,,,,,,,,,,,,,,,,,,,,,,,,,,,,,,,,,,,,,,,,,,,,,,,,,,,,,,,,,,,,,,,,,
,,,,8,3.587,,,,,,108,carrot,chocolate,,90302,001,2022-04-28_13h08.16.890,SPAMnetsValid,2021.1.4,MacIntel,29.41176471,,,,,,,,,,,,,8,3.587,0,93,93,5,1,,,,,,,,,,,,,,,,,,,,,,,,,,,,,,,,,,,,,,,,,,,,,,,,,,,,,,,,,,,,,,,,,,,,,,
,,,,1,1.954,,,,,,133,cake,flower,,90302,001,2022-04-28_13h08.16.890,SPAMnetsValid,2021.1.4,MacIntel,29.41176471,,,,,,,,,,,,,1,1.954,0,94,94,94,1,,,,,,,,,,,,,,,,,,,,,,,,,,,,,,,,,,,,,,,,,,,,,,,,,,,,,,,,,,,,,,,,,,,,,,
,,,,1,1.353,,,,,,101,cactus,kitchen,,90302,001,2022-04-28_13h08.16.890,SPAMnetsValid,2021.1.4,MacIntel,29.41176471,,,,,,,,,,,,,1,1.353,0,95,95,54,1,,,,,,,,,,,,,,,,,,,,,,,,,,,,,,,,,,,,,,,,,,,,,,,,,,,,,,,,,,,,,,,,,,,,,,
,,,,1,1.019,,,,,,175,melon,onion,,90302,001,2022-04-28_13h08.16.890,SPAMnetsValid,2021.1.4,MacIntel,29.41176471,,,,,,,,,,,,,1,1.019,0,96,96,41,1,,,,,,,,,,,,,,,,,,,,,,,,,,,,,,,,,,,,,,,,,,,,,,,,,,,,,,,,,,,,,,,,,,,,,,
,,,,,,,,,,,,,,,90302,001,2022-04-28_13h08.16.890,SPAMnetsValid,2021.1.4,MacIntel,29.41176471,,,,,,,,,,,,,,,,,,,,0,0,0,0,1,,,,,,,,,,,,,,,,,,,,,,,,,,,,,,,,,,,,,,,,,,,,,,,,,,,,,,,,,,,,,,,,,
,,,,,,,,,,,,,,,90302,001,2022-04-28_13h08.16.890,SPAMnetsValid,2021.1.4,MacIntel,29.41176471,,,,,,0,1,1,1,1,0,1,,,,,,,,,,,,,,,,,,,,,,,,,,,,,,,,,,,,,,,,,,,,,,,,,,,,,,,,,,,,,,,,,,,,,,,,,,,,,
,,,,,,,,,,,,,,,90302,001,2022-04-28_13h08.16.890,SPAMnetsValid,2021.1.4,MacIntel,29.41176471,,,,,,,,,,,,,,,,,,,,,,,,,3,3.858,0,0,0,0,1,rancor,forbearance,ridicule,malice,bravery,3,,,,,,,,,,,,,,,,,,,,,,,,,,,,,,,,,,,,,,,,,,,,,,,,,,,,
,,,,,,,,,,,,,,,90302,001,2022-04-28_13h08.16.890,SPAMnetsValid,2021.1.4,MacIntel,29.41176471,,,,,,,,,,,,,,,,,,,,,,,,,4,5.419,0,1,1,1,1,raucous,empty,quiet,smooth,harsh,4,,,,,,,,,,,,,,,,,,,,,,,,,,,,,,,,,,,,,,,,,,,,,,,,,,,,
,,,,,,,,,,,,,,,90302,001,2022-04-28_13h08.16.890,SPAMnetsValid,2021.1.4,MacIntel,29.41176471,,,,,,,,,,,,,,,,,,,,,,,,,4,4.201,0,2,2,2,1,gargoyle,oil,medicine,carved waterspout,ugly building,3,,,,,,,,,,,,,,,,,,,,,,,,,,,,,,,,,,,,,,,,,,,,,,,,,,,,
,,,,,,,,,,,,,,,90302,001,2022-04-28_13h08.16.890,SPAMnetsValid,2021.1.4,MacIntel,29.41176471,,,,,,,,,,,,,,,,,,,,,,,,,4,3.403,0,3,3,3,1,recrudesce,purify,renew activity,lack refinement,crush,2,,,,,,,,,,,,,,,,,,,,,,,,,,,,,,,,,,,,,,,,,,,,,,,,,,,,
,,,,,,,,,,,,,,,90302,001,2022-04-28_13h08.16.890,SPAMnetsValid,2021.1.4,MacIntel,29.41176471,,,,,,,,,,,,,,,,,,,,,,,,,4,3.769,0,4,4,4,1,specious,"plausible, but not genuine",noteworthy,class or variety,roomy,1,,,,,,,,,,,,,,,,,,,,,,,,,,,,,,,,,,,,,,,,,,,,,,,,,,,,
,,,,,,,,,,,,,,,90302,001,2022-04-28_13h08.16.890,SPAMnetsValid,2021.1.4,MacIntel,29.41176471,,,,,,,,,,,,,,,,,,,,,,,,,3,2.257,0,5,5,5,1,bauble,bubble,showy plaything,idle talk,confusion,2,,,,,,,,,,,,,,,,,,,,,,,,,,,,,,,,,,,,,,,,,,,,,,,,,,,,
,,,,,,,,,,,,,,,90302,001,2022-04-28_13h08.16.890,SPAMnetsValid,2021.1.4,MacIntel,29.41176471,,,,,,,,,,,,,,,,,,,,,,,,,4,3.736,0,6,6,6,1,prolific,scarce,producing abundantly,reckless,speaking profanely,2,,,,,,,,,,,,,,,,,,,,,,,,,,,,,,,,,,,,,,,,,,,,,,,,,,,,
,,,,,,,,,,,,,,,90302,001,2022-04-28_13h08.16.890,SPAMnetsValid,2021.1.4,MacIntel,29.41176471,,,,,,,,,,,,,,,,,,,,,,,,,2,3.385,0,7,7,7,1,opulent,party,wealthy,happy frame of mind,semiprecious stone,2,,,,,,,,,,,,,,,,,,,,,,,,,,,,,,,,,,,,,,,,,,,,,,,,,,,,
,,,,,,,,,,,,,,,90302,001,2022-04-28_13h08.16.890,SPAMnetsValid,2021.1.4,MacIntel,29.41176471,,,,,,,,,,,,,,,,,,,,,,,,,1,6.035,0,8,8,8,1,coercion,conspiracy,strategy,restraint,attraction,3,,,,,,,,,,,,,,,,,,,,,,,,,,,,,,,,,,,,,,,,,,,,,,,,,,,,
,,,,,,,,,,,,,,,90302,001,2022-04-28_13h08.16.890,SPAMnetsValid,2021.1.4,MacIntel,29.41176471,,,,,,,,,,,,,,,,,,,,,,,,,4,2.153,0,9,9,9,1,hiatus,animal,calamity,dread,gap,4,,,,,,,,,,,,,,,,,,,,,,,,,,,,,,,,,,,,,,,,,,,,,,,,,,,,
,,,,,,,,,,,,,,,90302,001,2022-04-28_13h08.16.890,SPAMnetsValid,2021.1.4,MacIntel,29.41176471,,,,,,,,,,,,,,,,,,,,,,,,,3,3.705,0,10,10,10,1,germane,microbe,contagious,relevant,different,3,,,,,,,,,,,,,,,,,,,,,,,,,,,,,,,,,,,,,,,,,,,,,,,,,,,,
,,,,,,,,,,,,,,,90302,001,2022-04-28_13h08.16.890,SPAMnetsValid,2021.1.4,MacIntel,29.41176471,,,,,,,,,,,,,,,,,,,,,,,,,3,1.753,0,11,11,11,1,perfunctory,fundamental,formal,superficial,careful,3,,,,,,,,,,,,,,,,,,,,,,,,,,,,,,,,,,,,,,,,,,,,,,,,,,,,
,,,,,,,,,,,,,,,90302,001,2022-04-28_13h08.16.890,SPAMnetsValid,2021.1.4,MacIntel,29.41176471,,,,,,,,,,,,,,,,,,,,,,,,,1,3.418,0,12,12,12,1,diverge,reveal,chant,distract the attention of,differ or turn off from,4,,,,,,,,,,,,,,,,,,,,,,,,,,,,,,,,,,,,,,,,,,,,,,,,,,,,
,,,,,,,,,,,,,,,90302,001,2022-04-28_13h08.16.890,SPAMnetsValid,2021.1.4,MacIntel,29.41176471,,,,,,,,,,,,,,,,,,,,,,,,,4,2.336,0,13,13,13,1,evoke,take away,anger,connect,bring out,4,,,,,,,,,,,,,,,,,,,,,,,,,,,,,,,,,,,,,,,,,,,,,,,,,,,,
,,,,,,,,,,,,,,,90302,001,2022-04-28_13h08.16.890,SPAMnetsValid,2021.1.4,MacIntel,29.41176471,,,,,,,,,,,,,,,,,,,,,,,,,4,3.653,0,14,14,14,1,pertinent,relevant,lying next to,necessary,bold,1,,,,,,,,,,,,,,,,,,,,,,,,,,,,,,,,,,,,,,,,,,,,,,,,,,,,
,,,,,,,,,,,,,,,90302,001,2022-04-28_13h08.16.890,SPAMnetsValid,2021.1.4,MacIntel,29.41176471,,,,,,,,,,,,,,,,,,,,,,,,,2,4.536,0,15,15,15,1,holocaust,entirety,destruction,saintly,price,2,,,,,,,,,,,,,,,,,,,,,,,,,,,,,,,,,,,,,,,,,,,,,,,,,,,,
,,,,,,,,,,,,,,,90302,001,2022-04-28_13h08.16.890,SPAMnetsValid,2021.1.4,MacIntel,29.41176471,,,,,,,,,,,,,,,,,,,,,,,,,3,4.353,0,16,16,16,1,piquant,mellow,fish,pungent,cloth,3,,,,,,,,,,,,,,,,,,,,,,,,,,,,,,,,,,,,,,,,,,,,,,,,,,,,
,,,,,,,,,,,,,,,90302,001,2022-04-28_13h08.16.890,SPAMnetsValid,2021.1.4,MacIntel,29.41176471,,,,,,,,,,,,,,,,,,,,,,,,,1,3.887,0,17,17,17,1,firmament,foundation,heavens,strong,glue,2,,,,,,,,,,,,,,,,,,,,,,,,,,,,,,,,,,,,,,,,,,,,,,,,,,,,
,,,,,,,,,,,,,,,90302,001,2022-04-28_13h08.16.890,SPAMnetsValid,2021.1.4,MacIntel,29.41176471,,,,,,,,,,,,,,,,,,,,,,,,,,,,,,,,,,,,,,3,5.758,0,0,0,0,1,marketable,partisan,jocular,marriageable,salable,essential,4,,,,,,,,,,,,,,,,,,,,,,,,,,,,,,,,,,,,,,
,,,,,,,,,,,,,,,90302,001,2022-04-28_13h08.16.890,SPAMnetsValid,2021.1.4,MacIntel,29.41176471,,,,,,,,,,,,,,,,,,,,,,,,,,,,,,,,,,,,,,5,2.969,0,1,1,1,1,cottontail,squirrel,poplar,boa,marshy plant,rabbit,5,,,,,,,,,,,,,,,,,,,,,,,,,,,,,,,,,,,,,,
,,,,,,,,,,,,,,,90302,001,2022-04-28_13h08.16.890,SPAMnetsValid,2021.1.4,MacIntel,29.41176471,,,,,,,,,,,,,,,,,,,,,,,,,,,,,,,,,,,,,,5,4.085,0,2,2,2,1,boggy,afraid,false,marshy,dense,black,3,,,,,,,,,,,,,,,,,,,,,,,,,,,,,,,,,,,,,,
,,,,,,,,,,,,,,,90302,001,2022-04-28_13h08.16.890,SPAMnetsValid,2021.1.4,MacIntel,29.41176471,,,,,,,,,,,,,,,,,,,,,,,,,,,,,,,,,,,,,,5,5.039,0,3,3,3,1,gruesomeness,blackness,falseness,vindictiveness,drunkenness,ghastliness,5,,,,,,,,,,,,,,,,,,,,,,,,,,,,,,,,,,,,,,
,,,,,,,,,,,,,,,90302,001,2022-04-28_13h08.16.890,SPAMnetsValid,2021.1.4,MacIntel,29.41176471,,,,,,,,,,,,,,,,,,,,,,,,,,,,,,,,,,,,,,1,5.353,0,4,4,4,1,loathing,diffidence,laziness,abhorrence,cleverness,comfort,3,,,,,,,,,,,,,,,,,,,,,,,,,,,,,,,,,,,,,,
,,,,,,,,,,,,,,,90302,001,2022-04-28_13h08.16.890,SPAMnetsValid,2021.1.4,MacIntel,29.41176471,,,,,,,,,,,,,,,,,,,,,,,,,,,,,,,,,,,,,,1,1.855,0,5,5,5,1,bantam,fowl,ridicule,cripple,vegetable,ensign,1,,,,,,,,,,,,,,,,,,,,,,,,,,,,,,,,,,,,,,
,,,,,,,,,,,,,,,90302,001,2022-04-28_13h08.16.890,SPAMnetsValid,2021.1.4,MacIntel,29.41176471,,,,,,,,,,,,,,,,,,,,,,,,,,,,,,,,,,,,,,5,3.304,0,6,6,6,1,evoke,wake up,surrender,reconnoiter,transcend,call forth,5,,,,,,,,,,,,,,,,,,,,,,,,,,,,,,,,,,,,,,
,,,,,,,,,,,,,,,90302,001,2022-04-28_13h08.16.890,SPAMnetsValid,2021.1.4,MacIntel,29.41176471,,,,,,,,,,,,,,,,,,,,,,,,,,,,,,,,,,,,,,1,3.57,0,7,7,7,1,unobtrusive,unintelligent,epileptic,illogical,lineal,modest,5,,,,,,,,,,,,,,,,,,,,,,,,,,,,,,,,,,,,,,
,,,,,,,,,,,,,,,90302,001,2022-04-28_13h08.16.890,SPAMnetsValid,2021.1.4,MacIntel,29.41176471,,,,,,,,,,,,,,,,,,,,,,,,,,,,,,,,,,,,,,4,2.953,0,8,8,8,1,terrain,ice cream,final test,tractor,area of ground,weight,4,,,,,,,,,,,,,,,,,,,,,,,,,,,,,,,,,,,,,,
,,,,,,,,,,,,,,,90302,001,2022-04-28_13h08.16.890,SPAMnetsValid,2021.1.4,MacIntel,29.41176471,,,,,,,,,,,,,,,,,,,,,,,,,,,,,,,,,,,,,,1,4.053,0,9,9,9,1,capriciousness,stubbornness,courage,whimsicality,amazement,greediness,3,,,,,,,,,,,,,,,,,,,,,,,,,,,,,,,,,,,,,,
,,,,,,,,,,,,,,,90302,001,2022-04-28_13h08.16.890,SPAMnetsValid,2021.1.4,MacIntel,29.41176471,,,,,,,,,,,,,,,,,,,,,,,,,,,,,,,,,,,,,,4,4.718,0,10,10,10,1,maelstrom,slander,whirlpool,enmity,armor,majolica,2,,,,,,,,,,,,,,,,,,,,,,,,,,,,,,,,,,,,,,
,,,,,,,,,,,,,,,90302,001,2022-04-28_13h08.16.890,SPAMnetsValid,2021.1.4,MacIntel,29.41176471,,,,,,,,,,,,,,,,,,,,,,,,,,,,,,,,,,,,,,4,7.553,0,11,11,11,1,tentative,critical,conclusive,authentic,provisional,apprehensive,4,,,,,,,,,,,,,,,,,,,,,,,,,,,,,,,,,,,,,,
,,,,,,,,,,,,,,,90302,001,2022-04-28_13h08.16.890,SPAMnetsValid,2021.1.4,MacIntel,29.41176471,,,,,,,,,,,,,,,,,,,,,,,,,,,,,,,,,,,,,,4,6.868,0,12,12,12,1,placate,rehabilitate,plagiarize,depredate,apprise,conciliate,5,,,,,,,,,,,,,,,,,,,,,,,,,,,,,,,,,,,,,,
,,,,,,,,,,,,,,,90302,001,2022-04-28_13h08.16.890,SPAMnetsValid,2021.1.4,MacIntel,29.41176471,,,,,,,,,,,,,,,,,,,,,,,,,,,,,,,,,,,,,,4,1.552,0,13,13,13,1,surcease,enlightenment,cessation,inattention,censor,substitution,2,,,,,,,,,,,,,,,,,,,,,,,,,,,,,,,,,,,,,,
,,,,,,,,,,,,,,,90302,001,2022-04-28_13h08.16.890,SPAMnetsValid,2021.1.4,MacIntel,29.41176471,,,,,,,,,,,,,,,,,,,,,,,,,,,,,,,,,,,,,,4,2.952,0,14,14,14,1,apathetic,wandering,impassive,hateful,prophetic,overflowing,2,,,,,,,,,,,,,,,,,,,,,,,,,,,,,,,,,,,,,,
,,,,,,,,,,,,,,,90302,001,2022-04-28_13h08.16.890,SPAMnetsValid,2021.1.4,MacIntel,29.41176471,,,,,,,,,,,,,,,,,,,,,,,,,,,,,,,,,,,,,,4,1.307,0,15,15,15,1,paternoster,paternalism,patricide,malediction,benediction,prayer,5,,,,,,,,,,,,,,,,,,,,,,,,,,,,,,,,,,,,,,
,,,,,,,,,,,,,,,90302,001,2022-04-28_13h08.16.890,SPAMnetsValid,2021.1.4,MacIntel,29.41176471,,,,,,,,,,,,,,,,,,,,,,,,,,,,,,,,,,,,,,1,1.371,0,16,16,16,1,opalescence,opulence,senescence,bankruptcy,iridescence,assiduity,4,,,,,,,,,,,,,,,,,,,,,,,,,,,,,,,,,,,,,,
,,,,,,,,,,,,,,,90302,001,2022-04-28_13h08.16.890,SPAMnetsValid,2021.1.4,MacIntel,29.41176471,,,,,,,,,,,,,,,,,,,,,,,,,,,,,,,,,,,,,,2,4.07,0,17,17,17,1,lush,stupid,luxurious,hazy,putrid,languishing,2,,,,,,,,,,,,,,,,,,,,,,,,,,,,,,,,,,,,,,
,,,,,,,,,,,,,,,90302,001,2022-04-28_13h08.16.890,SPAMnetsValid,2021.1.4,MacIntel,29.41176471,,,,,,,,,,,,,,,,,,,,,,,,,,,,,,,,,,,,,,4,3.769,0,18,18,18,1,curtailment,expenditure,abandonment,abridgment,improvement,forgery,3,,,,,,,,,,,,,,,,,,,,,,,,,,,,,,,,,,,,,,
,,,,,,,,,,,,,,,90302,001,2022-04-28_13h08.16.890,SPAMnetsValid,2021.1.4,MacIntel,29.41176471,,,,,,,,,,,,,,,,,,,,,,,,,,,,,,,,,,,,,,2,2.571,0,19,19,19,1,perversity,adversity,perviousness,travesty,waywardness,gentility,4,,,,,,,,,,,,,,,,,,,,,,,,,,,,,,,,,,,,,,
,,,,,,,,,,,,,,,90302,001,2022-04-28_13h08.16.890,SPAMnetsValid,2021.1.4,MacIntel,29.41176471,,,,,,,,,,,,,,,,,,,,,,,,,,,,,,,,,,,,,,4,4.786,0,20,20,20,1,calumnious,complimentary,analogous,slanderous,tempestuous,magnanimous,3,,,,,,,,,,,,,,,,,,,,,,,,,,,,,,,,,,,,,,
,,,,,,,,,,,,,,,90302,001,2022-04-28_13h08.16.890,SPAMnetsValid,2021.1.4,MacIntel,29.41176471,,,,,,,,,,,,,,,,,,,,,,,,,,,,,,,,,,,,,,5,5.67,0,21,21,21,1,illiberality,bigotry,imbecility,illegibility,cautery,immaturity,1,,,,,,,,,,,,,,,,,,,,,,,,,,,,,,,,,,,,,,
,,,,,,,,,,,,,,,90302,001,2022-04-28_13h08.16.890,SPAMnetsValid,2021.1.4,MacIntel,29.41176471,,,,,,,,,,,,,,,,,,,,,,,,,,,,,,,,,,,,,,2,6.286,0,22,22,22,1,clabber,rejoice,gossip,curdle,crow,hobble,3,,,,,,,,,,,,,,,,,,,,,,,,,,,,,,,,,,,,,,
,,,,,,,,,,,,,,,90302,001,2022-04-28_13h08.16.890,SPAMnetsValid,2021.1.4,MacIntel,29.41176471,,,,,,,,,,,,,,,,,,,,,,,,,,,,,,,,,,,,,,3,3.935,0,23,23,23,1,sedulousness,diligence,credulousness,seduction,perilousness,frankness,1,,,,,,,,,,,,,,,,,,,,,,,,,,,,,,,,,,,,,,
,,,,,,,,,,,,,,,90302,001,2022-04-28_13h08.16.890,SPAMnetsValid,2021.1.4,MacIntel,29.41176471,,,,,,,,,,,,,,,,,,,,,,,,,,,,,,,,,,,,,,,,,,,,,,,,,,,,sleep,pillow,0,0,0,0,1,,,,,,,,,,,,,,,,,,,,,,,,,,,,,,,
,,,,,,,,,,,,,,,90302,001,2022-04-28_13h08.16.890,SPAMnetsValid,2021.1.4,MacIntel,29.41176471,,,,,,,,,,,,,,,,,,,,,,,,,,,,,,,,,,,,,,,,,,,,,,,,,,,,fight,pillow,1,0,1,0,1,,,,,,,,,,,,,,,,,,,,,,,,,,,,,,,
,,,,,,,,,,,,,,,90302,001,2022-04-28_13h08.16.890,SPAMnetsValid,2021.1.4,MacIntel,29.41176471,,,,,,,,,,,,,,,,,,,,,,,,,,,,,,,,,,,,,,,,,,,,,,,,,,,,dream ,pillow,2,0,2,0,1,,,,,,,,,,,,,,,,,,,,,,,,,,,,,,,
,,,,,,,,,,,,,,,90302,001,2022-04-28_13h08.16.890,SPAMnetsValid,2021.1.4,MacIntel,29.41176471,,,,,,,,,,,,,,,,,,,,,,,,,,,,,,,,,,,,,,,,,,,,,,,,,,,,sit on ,pillow,3,0,3,0,1,,,,,,,,,,,,,,,,,,,,,,,,,,,,,,,
,,,,,,,,,,,,,,,90302,001,2022-04-28_13h08.16.890,SPAMnetsValid,2021.1.4,MacIntel,29.41176471,,,,,,,,,,,,,,,,,,,,,,,,,,,,,,,,,,,,,,,,,,,,,,,,,,,,share,pillow,4,0,4,0,1,,,,,,,,,,,,,,,,,,,,,,,,,,,,,,,
,,,,,,,,,,,,,,,90302,001,2022-04-28_13h08.16.890,SPAMnetsValid,2021.1.4,MacIntel,29.41176471,,,,,,,,,,,,,,,,,,,,,,,,,,,,,,,,,,,,,,,,,,,,,,,,,,,,dream ,pillow,5,0,5,0,1,,,,,,,,,,,,,,,,,,,,,,,,,,,,,,,
,,,,,,,,,,,,,,,90302,001,2022-04-28_13h08.16.890,SPAMnetsValid,2021.1.4,MacIntel,29.41176471,,,,,,,,,,,,,,,,,,,,,,,,,,,,,,,,,,,,,,,,,,,,,,,,,,,,move,pillow,6,0,6,0,1,,,,,,,,,,,,,,,,,,,,,,,,,,,,,,,
,,,,,,,,,,,,,,,90302,001,2022-04-28_13h08.16.890,SPAMnetsValid,2021.1.4,MacIntel,29.41176471,,,,,,,,,,,,,,,,,,,,,,,,,,,,,,,,,,,,,,,,,,,,,,,,,,,,cushion,pillow,7,0,7,0,1,,,,,,,,,,,,,,,,,,,,,,,,,,,,,,,
,,,,,,,,,,,,,,,90302,001,2022-04-28_13h08.16.890,SPAMnetsValid,2021.1.4,MacIntel,29.41176471,,,,,,,,,,,,,,,,,,,,,,,,,,,,,,,,,,,,,,,,,,,,,,,,,,,,space filler,pillow,8,0,8,0,1,,,,,,,,,,,,,,,,,,,,,,,,,,,,,,,
,,,,,,,,,,,,,,,90302,001,2022-04-28_13h08.16.890,SPAMnetsValid,2021.1.4,MacIntel,29.41176471,,,,,,,,,,,,,,,,,,,,,,,,,,,,,,,,,,,,,,,,,,,,,,,,,,,,resting ,pillow,9,0,9,0,1,,,,,,,,,,,,,,,,,,,,,,,,,,,,,,,
,,,,,,,,,,,,,,,90302,001,2022-04-28_13h08.16.890,SPAMnetsValid,2021.1.4,MacIntel,29.41176471,,,,,,,,,,,,,,,,,,,,,,,,,,,,,,,,,,,,,,,,,,,,,,,,,,,,placement,pillow,10,0,10,0,1,,,,,,,,,,,,,,,,,,,,,,,,,,,,,,,
,,,,,,,,,,,,,,,90302,001,2022-04-28_13h08.16.890,SPAMnetsValid,2021.1.4,MacIntel,29.41176471,,,,,,,,,,,,,,,,,,,,,,,,,,,,,,,,,,,,,,,,,,,,,,,,,,,,shoe rack,pillow,11,0,11,0,1,,,,,,,,,,,,,,,,,,,,,,,,,,,,,,,
,,,,,,,,,,,,,,,90302,001,2022-04-28_13h08.16.890,SPAMnetsValid,2021.1.4,MacIntel,29.41176471,,,,,,,,,,,,,,,,,,,,,,,,,,,,,,,,,,,,,,,,,,,,,,,,,,,,padding ,pillow,12,0,12,0,1,,,,,,,,,,,,,,,,,,,,,,,,,,,,,,,
,,,,,,,,,,,,,,,90302,001,2022-04-28_13h08.16.890,SPAMnetsValid,2021.1.4,MacIntel,29.41176471,,,,,,,,,,,,,,,,,,,,,,,,,,,,,,,,,,,,,,,,,,,,,,,,,,,,armour,pillow,13,0,13,0,1,,,,,,,,,,,,,,,,,,,,,,,,,,,,,,,
,,,,,,,,,,,,,,,90302,001,2022-04-28_13h08.16.890,SPAMnetsValid,2021.1.4,MacIntel,29.41176471,,,,,,,,,,,,,,,,,,,,,,,,,,,,,,,,,,,,,,,,,,,,,,,,,,,,table ,pillow,14,0,14,0,1,,,,,,,,,,,,,,,,,,,,,,,,,,,,,,,
,,,,,,,,,,,,,,,90302,001,2022-04-28_13h08.16.890,SPAMnetsValid,2021.1.4,MacIntel,29.41176471,,,,,,,,,,,,,,,,,,,,,,,,,,,,,,,,,,,,,,,,,,,,,,,,,,,,leg rest,pillow,15,0,15,0,1,,,,,,,,,,,,,,,,,,,,,,,,,,,,,,,
,,,,,,,,,,,,,,,90302,001,2022-04-28_13h08.16.890,SPAMnetsValid,2021.1.4,MacIntel,29.41176471,,,,,,,,,,,,,,,,,,,,,,,,,,,,,,,,,,,,,,,,,,,,,,,,,,,,foot rest,pillow,16,0,16,0,1,,,,,,,,,,,,,,,,,,,,,,,,,,,,,,,
,,,,,,,,,,,,,,,90302,001,2022-04-28_13h08.16.890,SPAMnetsValid,2021.1.4,MacIntel,29.41176471,,,,,,,,,,,,,,,,,,,,,,,,,,,,,,,,,,,,,,,,,,,,,,,,,,,,elevator ,pillow,17,0,17,0,1,,,,,,,,,,,,,,,,,,,,,,,,,,,,,,,
,,,,,,,,,,,,,,,90302,001,2022-04-28_13h08.16.890,SPAMnetsValid,2021.1.4,MacIntel,29.41176471,,,,,,,,,,,,,,,,,,,,,,,,,,,,,,,,,,,,,,,,,,,,,,,,,,,,back support,pillow,18,0,18,0,1,,,,,,,,,,,,,,,,,,,,,,,,,,,,,,,
,,,,,,,,,,,,,,,90302,001,2022-04-28_13h08.16.890,SPAMnetsValid,2021.1.4,MacIntel,29.41176471,,,,,,,,,,,,,,,,,,,,,,,,,,,,,,,,,,,,,,,,,,,,,,,,,,,,support,pillow,19,0,19,0,1,,,,,,,,,,,,,,,,,,,,,,,,,,,,,,,
,,,,,,,,,,,,,,,90302,001,2022-04-28_13h08.16.890,SPAMnetsValid,2021.1.4,MacIntel,29.41176471,,,,,,,,,,,,,,,,,,,,,,,,,,,,,,,,,,,,,,,,,,,,,,,,,,,,padding,pillow,20,0,20,0,1,,,,,,,,,,,,,,,,,,,,,,,,,,,,,,,
,,,,,,,,,,,,,,,90302,001,2022-04-28_13h08.16.890,SPAMnetsValid,2021.1.4,MacIntel,29.41176471,,,,,,,,,,,,,,,,,,,,,,,,,,,,,,,,,,,,,,,,,,,,,,,,,,,,,,,,,,,0,0,0,2,1,pillow,,,,,,,,,,,,,,,,,,,,,,,,,
,,,,,,,,,,,,,,,90302,001,2022-04-28_13h08.16.890,SPAMnetsValid,2021.1.4,MacIntel,29.41176471,,,,,,,,,,,,,,,,,,,,,,,,,,,,,,,,,,,,,,,,,,,,,,,,,,,,hat,bucket,0,0,0,0,1,,,,,,,,,,,,,,,,,,,,,,,,,,,,,,,
,,,,,,,,,,,,,,,90302,001,2022-04-28_13h08.16.890,SPAMnetsValid,2021.1.4,MacIntel,29.41176471,,,,,,,,,,,,,,,,,,,,,,,,,,,,,,,,,,,,,,,,,,,,,,,,,,,,mop,bucket,1,0,1,0,1,,,,,,,,,,,,,,,,,,,,,,,,,,,,,,,
,,,,,,,,,,,,,,,90302,001,2022-04-28_13h08.16.890,SPAMnetsValid,2021.1.4,MacIntel,29.41176471,,,,,,,,,,,,,,,,,,,,,,,,,,,,,,,,,,,,,,,,,,,,,,,,,,,,drinks,bucket,2,0,2,0,1,,,,,,,,,,,,,,,,,,,,,,,,,,,,,,,
,,,,,,,,,,,,,,,90302,001,2022-04-28_13h08.16.890,SPAMnetsValid,2021.1.4,MacIntel,29.41176471,,,,,,,,,,,,,,,,,,,,,,,,,,,,,,,,,,,,,,,,,,,,,,,,,,,,water pail,bucket,3,0,3,0,1,,,,,,,,,,,,,,,,,,,,,,,,,,,,,,,
,,,,,,,,,,,,,,,90302,001,2022-04-28_13h08.16.890,SPAMnetsValid,2021.1.4,MacIntel,29.41176471,,,,,,,,,,,,,,,,,,,,,,,,,,,,,,,,,,,,,,,,,,,,,,,,,,,,water ,bucket,4,0,4,0,1,,,,,,,,,,,,,,,,,,,,,,,,,,,,,,,
,,,,,,,,,,,,,,,90302,001,2022-04-28_13h08.16.890,SPAMnetsValid,2021.1.4,MacIntel,29.41176471,,,,,,,,,,,,,,,,,,,,,,,,,,,,,,,,,,,,,,,,,,,,,,,,,,,,transport,bucket,5,0,5,0,1,,,,,,,,,,,,,,,,,,,,,,,,,,,,,,,
,,,,,,,,,,,,,,,90302,001,2022-04-28_13h08.16.890,SPAMnetsValid,2021.1.4,MacIntel,29.41176471,,,,,,,,,,,,,,,,,,,,,,,,,,,,,,,,,,,,,,,,,,,,,,,,,,,,trash can ,bucket,6,0,6,0,1,,,,,,,,,,,,,,,,,,,,,,,,,,,,,,,
,,,,,,,,,,,,,,,90302,001,2022-04-28_13h08.16.890,SPAMnetsValid,2021.1.4,MacIntel,29.41176471,,,,,,,,,,,,,,,,,,,,,,,,,,,,,,,,,,,,,,,,,,,,,,,,,,,,clothing basket,bucket,7,0,7,0,1,,,,,,,,,,,,,,,,,,,,,,,,,,,,,,,
,,,,,,,,,,,,,,,90302,001,2022-04-28_13h08.16.890,SPAMnetsValid,2021.1.4,MacIntel,29.41176471,,,,,,,,,,,,,,,,,,,,,,,,,,,,,,,,,,,,,,,,,,,,,,,,,,,,trash ,bucket,8,0,8,0,1,,,,,,,,,,,,,,,,,,,,,,,,,,,,,,,
,,,,,,,,,,,,,,,90302,001,2022-04-28_13h08.16.890,SPAMnetsValid,2021.1.4,MacIntel,29.41176471,,,,,,,,,,,,,,,,,,,,,,,,,,,,,,,,,,,,,,,,,,,,,,,,,,,,laundry bin ,bucket,9,0,9,0,1,,,,,,,,,,,,,,,,,,,,,,,,,,,,,,,
,,,,,,,,,,,,,,,90302,001,2022-04-28_13h08.16.890,SPAMnetsValid,2021.1.4,MacIntel,29.41176471,,,,,,,,,,,,,,,,,,,,,,,,,,,,,,,,,,,,,,,,,,,,,,,,,,,,carrier ,bucket,10,0,10,0,1,,,,,,,,,,,,,,,,,,,,,,,,,,,,,,,
,,,,,,,,,,,,,,,90302,001,2022-04-28_13h08.16.890,SPAMnetsValid,2021.1.4,MacIntel,29.41176471,,,,,,,,,,,,,,,,,,,,,,,,,,,,,,,,,,,,,,,,,,,,,,,,,,,,storage ,bucket,11,0,11,0,1,,,,,,,,,,,,,,,,,,,,,,,,,,,,,,,
,,,,,,,,,,,,,,,90302,001,2022-04-28_13h08.16.890,SPAMnetsValid,2021.1.4,MacIntel,29.41176471,,,,,,,,,,,,,,,,,,,,,,,,,,,,,,,,,,,,,,,,,,,,,,,,,,,,cooler ,bucket,12,0,12,0,1,,,,,,,,,,,,,,,,,,,,,,,,,,,,,,,
,,,,,,,,,,,,,,,90302,001,2022-04-28_13h08.16.890,SPAMnetsValid,2021.1.4,MacIntel,29.41176471,,,,,,,,,,,,,,,,,,,,,,,,,,,,,,,,,,,,,,,,,,,,,,,,,,,,basket ,bucket,13,0,13,0,1,,,,,,,,,,,,,,,,,,,,,,,,,,,,,,,
,,,,,,,,,,,,,,,90302,001,2022-04-28_13h08.16.890,SPAMnetsValid,2021.1.4,MacIntel,29.41176471,,,,,,,,,,,,,,,,,,,,,,,,,,,,,,,,,,,,,,,,,,,,,,,,,,,,container ,bucket,14,0,14,0,1,,,,,,,,,,,,,,,,,,,,,,,,,,,,,,,
,,,,,,,,,,,,,,,90302,001,2022-04-28_13h08.16.890,SPAMnetsValid,2021.1.4,MacIntel,29.41176471,,,,,,,,,,,,,,,,,,,,,,,,,,,,,,,,,,,,,,,,,,,,,,,,,,,,soap,bucket,15,0,15,0,1,,,,,,,,,,,,,,,,,,,,,,,,,,,,,,,
,,,,,,,,,,,,,,,90302,001,2022-04-28_13h08.16.890,SPAMnetsValid,2021.1.4,MacIntel,29.41176471,,,,,,,,,,,,,,,,,,,,,,,,,,,,,,,,,,,,,,,,,,,,,,,,,,,,water,bucket,16,0,16,0,1,,,,,,,,,,,,,,,,,,,,,,,,,,,,,,,
,,,,,,,,,,,,,,,90302,001,2022-04-28_13h08.16.890,SPAMnetsValid,2021.1.4,MacIntel,29.41176471,,,,,,,,,,,,,,,,,,,,,,,,,,,,,,,,,,,,,,,,,,,,,,,,,,,,coin containers,bucket,17,0,17,0,1,,,,,,,,,,,,,,,,,,,,,,,,,,,,,,,
,,,,,,,,,,,,,,,90302,001,2022-04-28_13h08.16.890,SPAMnetsValid,2021.1.4,MacIntel,29.41176471,,,,,,,,,,,,,,,,,,,,,,,,,,,,,,,,,,,,,,,,,,,,,,,,,,,,drinks,bucket,18,0,18,0,1,,,,,,,,,,,,,,,,,,,,,,,,,,,,,,,
,,,,,,,,,,,,,,,90302,001,2022-04-28_13h08.16.890,SPAMnetsValid,2021.1.4,MacIntel,29.41176471,,,,,,,,,,,,,,,,,,,,,,,,,,,,,,,,,,,,,,,,,,,,,,,,,,,,,,,,,,,0,1,1,0,1,bucket,,,,,,,,,,,,,,,,,,,,,,,,,
,,,,,,,,,,,,,,,90302,001,2022-04-28_13h08.16.890,SPAMnetsValid,2021.1.4,MacIntel,29.41176471,,,,,,,,,,,,,,,,,,,,,,,,,,,,,,,,,,,,,,,,,,,,,,,,,,,,light,candle,0,0,0,0,1,,,,,,,,,,,,,,,,,,,,,,,,,,,,,,,
,,,,,,,,,,,,,,,90302,001,2022-04-28_13h08.16.890,SPAMnetsValid,2021.1.4,MacIntel,29.41176471,,,,,,,,,,,,,,,,,,,,,,,,,,,,,,,,,,,,,,,,,,,,,,,,,,,,wax burner,candle,1,0,1,0,1,,,,,,,,,,,,,,,,,,,,,,,,,,,,,,,
,,,,,,,,,,,,,,,90302,001,2022-04-28_13h08.16.890,SPAMnetsValid,2021.1.4,MacIntel,29.41176471,,,,,,,,,,,,,,,,,,,,,,,,,,,,,,,,,,,,,,,,,,,,,,,,,,,,scent,candle,2,0,2,0,1,,,,,,,,,,,,,,,,,,,,,,,,,,,,,,,
,,,,,,,,,,,,,,,90302,001,2022-04-28_13h08.16.890,SPAMnetsValid,2021.1.4,MacIntel,29.41176471,,,,,,,,,,,,,,,,,,,,,,,,,,,,,,,,,,,,,,,,,,,,,,,,,,,,decor ,candle,3,0,3,0,1,,,,,,,,,,,,,,,,,,,,,,,,,,,,,,,
,,,,,,,,,,,,,,,90302,001,2022-04-28_13h08.16.890,SPAMnetsValid,2021.1.4,MacIntel,29.41176471,,,,,,,,,,,,,,,,,,,,,,,,,,,,,,,,,,,,,,,,,,,,,,,,,,,,melting,candle,4,0,4,0,1,,,,,,,,,,,,,,,,,,,,,,,,,,,,,,,
,,,,,,,,,,,,,,,90302,001,2022-04-28_13h08.16.890,SPAMnetsValid,2021.1.4,MacIntel,29.41176471,,,,,,,,,,,,,,,,,,,,,,,,,,,,,,,,,,,,,,,,,,,,,,,,,,,,religious celebration,candle,5,0,5,0,1,,,,,,,,,,,,,,,,,,,,,,,,,,,,,,,
,,,,,,,,,,,,,,,90302,001,2022-04-28_13h08.16.890,SPAMnetsValid,2021.1.4,MacIntel,29.41176471,,,,,,,,,,,,,,,,,,,,,,,,,,,,,,,,,,,,,,,,,,,,,,,,,,,,wax stamp,candle,6,0,6,0,1,,,,,,,,,,,,,,,,,,,,,,,,,,,,,,,
,,,,,,,,,,,,,,,90302,001,2022-04-28_13h08.16.890,SPAMnetsValid,2021.1.4,MacIntel,29.41176471,,,,,,,,,,,,,,,,,,,,,,,,,,,,,,,,,,,,,,,,,,,,,,,,,,,,burner,candle,7,0,7,0,1,,,,,,,,,,,,,,,,,,,,,,,,,,,,,,,
,,,,,,,,,,,,,,,90302,001,2022-04-28_13h08.16.890,SPAMnetsValid,2021.1.4,MacIntel,29.41176471,,,,,,,,,,,,,,,,,,,,,,,,,,,,,,,,,,,,,,,,,,,,,,,,,,,,,,,,,,,0,2,2,1,1,candle,,,,,,,,,,,,,,,,,,,,,,,,,
,,,,,,,,,,,,,,,90302,001,2022-04-28_13h08.16.890,SPAMnetsValid,2021.1.4,MacIntel,29.41176471,,,,,,,,,,,,,,,,,,,,,,,,,,,,,,,,,,,,,,,,,,,,,,,,,,,,,,,,,,,,,,,,,lion,Animals,0,0,0,0,1,,,,,,,,,,,,,,,,,,
,,,,,,,,,,,,,,,90302,001,2022-04-28_13h08.16.890,SPAMnetsValid,2021.1.4,MacIntel,29.41176471,,,,,,,,,,,,,,,,,,,,,,,,,,,,,,,,,,,,,,,,,,,,,,,,,,,,,,,,,,,,,,,,,tiger,Animals,1,0,1,0,1,,,,,,,,,,,,,,,,,,
,,,,,,,,,,,,,,,90302,001,2022-04-28_13h08.16.890,SPAMnetsValid,2021.1.4,MacIntel,29.41176471,,,,,,,,,,,,,,,,,,,,,,,,,,,,,,,,,,,,,,,,,,,,,,,,,,,,,,,,,,,,,,,,,fish,Animals,2,0,2,0,1,,,,,,,,,,,,,,,,,,
,,,,,,,,,,,,,,,90302,001,2022-04-28_13h08.16.890,SPAMnetsValid,2021.1.4,MacIntel,29.41176471,,,,,,,,,,,,,,,,,,,,,,,,,,,,,,,,,,,,,,,,,,,,,,,,,,,,,,,,,,,,,,,,,dog,Animals,3,0,3,0,1,,,,,,,,,,,,,,,,,,
,,,,,,,,,,,,,,,90302,001,2022-04-28_13h08.16.890,SPAMnetsValid,2021.1.4,MacIntel,29.41176471,,,,,,,,,,,,,,,,,,,,,,,,,,,,,,,,,,,,,,,,,,,,,,,,,,,,,,,,,,,,,,,,,cat ,Animals,4,0,4,0,1,,,,,,,,,,,,,,,,,,
,,,,,,,,,,,,,,,90302,001,2022-04-28_13h08.16.890,SPAMnetsValid,2021.1.4,MacIntel,29.41176471,,,,,,,,,,,,,,,,,,,,,,,,,,,,,,,,,,,,,,,,,,,,,,,,,,,,,,,,,,,,,,,,,bird,Animals,5,0,5,0,1,,,,,,,,,,,,,,,,,,
,,,,,,,,,,,,,,,90302,001,2022-04-28_13h08.16.890,SPAMnetsValid,2021.1.4,MacIntel,29.41176471,,,,,,,,,,,,,,,,,,,,,,,,,,,,,,,,,,,,,,,,,,,,,,,,,,,,,,,,,,,,,,,,,parrot ,Animals,6,0,6,0,1,,,,,,,,,,,,,,,,,,
,,,,,,,,,,,,,,,90302,001,2022-04-28_13h08.16.890,SPAMnetsValid,2021.1.4,MacIntel,29.41176471,,,,,,,,,,,,,,,,,,,,,,,,,,,,,,,,,,,,,,,,,,,,,,,,,,,,,,,,,,,,,,,,,pareekeet,Animals,7,0,7,0,1,,,,,,,,,,,,,,,,,,
,,,,,,,,,,,,,,,90302,001,2022-04-28_13h08.16.890,SPAMnetsValid,2021.1.4,MacIntel,29.41176471,,,,,,,,,,,,,,,,,,,,,,,,,,,,,,,,,,,,,,,,,,,,,,,,,,,,,,,,,,,,,,,,,octopus ,Animals,8,0,8,0,1,,,,,,,,,,,,,,,,,,
,,,,,,,,,,,,,,,90302,001,2022-04-28_13h08.16.890,SPAMnetsValid,2021.1.4,MacIntel,29.41176471,,,,,,,,,,,,,,,,,,,,,,,,,,,,,,,,,,,,,,,,,,,,,,,,,,,,,,,,,,,,,,,,,snail ,Animals,9,0,9,0,1,,,,,,,,,,,,,,,,,,
,,,,,,,,,,,,,,,90302,001,2022-04-28_13h08.16.890,SPAMnetsValid,2021.1.4,MacIntel,29.41176471,,,,,,,,,,,,,,,,,,,,,,,,,,,,,,,,,,,,,,,,,,,,,,,,,,,,,,,,,,,,,,,,,squid,Animals,10,0,10,0,1,,,,,,,,,,,,,,,,,,
,,,,,,,,,,,,,,,90302,001,2022-04-28_13h08.16.890,SPAMnetsValid,2021.1.4,MacIntel,29.41176471,,,,,,,,,,,,,,,,,,,,,,,,,,,,,,,,,,,,,,,,,,,,,,,,,,,,,,,,,,,,,,,,,pufferfish,Animals,11,0,11,0,1,,,,,,,,,,,,,,,,,,
,,,,,,,,,,,,,,,90302,001,2022-04-28_13h08.16.890,SPAMnetsValid,2021.1.4,MacIntel,29.41176471,,,,,,,,,,,,,,,,,,,,,,,,,,,,,,,,,,,,,,,,,,,,,,,,,,,,,,,,,,,,,,,,,elephant ,Animals,12,0,12,0,1,,,,,,,,,,,,,,,,,,
,,,,,,,,,,,,,,,90302,001,2022-04-28_13h08.16.890,SPAMnetsValid,2021.1.4,MacIntel,29.41176471,,,,,,,,,,,,,,,,,,,,,,,,,,,,,,,,,,,,,,,,,,,,,,,,,,,,,,,,,,,,,,,,,lion,Animals,13,0,13,0,1,,,,,,,,,,,,,,,,,,
,,,,,,,,,,,,,,,90302,001,2022-04-28_13h08.16.890,SPAMnetsValid,2021.1.4,MacIntel,29.41176471,,,,,,,,,,,,,,,,,,,,,,,,,,,,,,,,,,,,,,,,,,,,,,,,,,,,,,,,,,,,,,,,,chimps,Animals,14,0,14,0,1,,,,,,,,,,,,,,,,,,
,,,,,,,,,,,,,,,90302,001,2022-04-28_13h08.16.890,SPAMnetsValid,2021.1.4,MacIntel,29.41176471,,,,,,,,,,,,,,,,,,,,,,,,,,,,,,,,,,,,,,,,,,,,,,,,,,,,,,,,,,,,,,,,, bunny,Animals,15,0,15,0,1,,,,,,,,,,,,,,,,,,
,,,,,,,,,,,,,,,90302,001,2022-04-28_13h08.16.890,SPAMnetsValid,2021.1.4,MacIntel,29.41176471,,,,,,,,,,,,,,,,,,,,,,,,,,,,,,,,,,,,,,,,,,,,,,,,,,,,,,,,,,,,,,,,,rabbit,Animals,16,0,16,0,1,,,,,,,,,,,,,,,,,,
,,,,,,,,,,,,,,,90302,001,2022-04-28_13h08.16.890,SPAMnetsValid,2021.1.4,MacIntel,29.41176471,,,,,,,,,,,,,,,,,,,,,,,,,,,,,,,,,,,,,,,,,,,,,,,,,,,,,,,,,,,,,,,,,alcapi,Animals,17,0,17,0,1,,,,,,,,,,,,,,,,,,
,,,,,,,,,,,,,,,90302,001,2022-04-28_13h08.16.890,SPAMnetsValid,2021.1.4,MacIntel,29.41176471,,,,,,,,,,,,,,,,,,,,,,,,,,,,,,,,,,,,,,,,,,,,,,,,,,,,,,,,,,,,,,,,,swan ,Animals,18,0,18,0,1,,,,,,,,,,,,,,,,,,
,,,,,,,,,,,,,,,90302,001,2022-04-28_13h08.16.890,SPAMnetsValid,2021.1.4,MacIntel,29.41176471,,,,,,,,,,,,,,,,,,,,,,,,,,,,,,,,,,,,,,,,,,,,,,,,,,,,,,,,,,,,,,,,,flamingos,Animals,19,0,19,0,1,,,,,,,,,,,,,,,,,,
,,,,,,,,,,,,,,,90302,001,2022-04-28_13h08.16.890,SPAMnetsValid,2021.1.4,MacIntel,29.41176471,,,,,,,,,,,,,,,,,,,,,,,,,,,,,,,,,,,,,,,,,,,,,,,,,,,,,,,,,,,,,,,,,doves,Animals,20,0,20,0,1,,,,,,,,,,,,,,,,,,
,,,,,,,,,,,,,,,90302,001,2022-04-28_13h08.16.890,SPAMnetsValid,2021.1.4,MacIntel,29.41176471,,,,,,,,,,,,,,,,,,,,,,,,,,,,,,,,,,,,,,,,,,,,,,,,,,,,,,,,,,,,,,,,,aligators,Animals,21,0,21,0,1,,,,,,,,,,,,,,,,,,
,,,,,,,,,,,,,,,90302,001,2022-04-28_13h08.16.890,SPAMnetsValid,2021.1.4,MacIntel,29.41176471,,,,,,,,,,,,,,,,,,,,,,,,,,,,,,,,,,,,,,,,,,,,,,,,,,,,,,,,,,,,,,,,,hippos,Animals,22,0,22,0,1,,,,,,,,,,,,,,,,,,
,,,,,,,,,,,,,,,90302,001,2022-04-28_13h08.16.890,SPAMnetsValid,2021.1.4,MacIntel,29.41176471,,,,,,,,,,,,,,,,,,,,,,,,,,,,,,,,,,,,,,,,,,,,,,,,,,,,,,,,,,,,,,,,,dodo bird,Animals,23,0,23,0,1,,,,,,,,,,,,,,,,,,
,,,,,,,,,,,,,,,90302,001,2022-04-28_13h08.16.890,SPAMnetsValid,2021.1.4,MacIntel,29.41176471,,,,,,,,,,,,,,,,,,,,,,,,,,,,,,,,,,,,,,,,,,,,,,,,,,,,,,,,,,,,,,,,,orangatang ,Animals,24,0,24,0,1,,,,,,,,,,,,,,,,,,
,,,,,,,,,,,,,,,90302,001,2022-04-28_13h08.16.890,SPAMnetsValid,2021.1.4,MacIntel,29.41176471,,,,,,,,,,,,,,,,,,,,,,,,,,,,,,,,,,,,,,,,,,,,,,,,,,,,,,,,,,,,,,,,,tiger,Animals,25,0,25,0,1,,,,,,,,,,,,,,,,,,
,,,,,,,,,,,,,,,90302,001,2022-04-28_13h08.16.890,SPAMnetsValid,2021.1.4,MacIntel,29.41176471,,,,,,,,,,,,,,,,,,,,,,,,,,,,,,,,,,,,,,,,,,,,,,,,,,,,,,,,,,,,,,,,,warthog,Animals,26,0,26,0,1,,,,,,,,,,,,,,,,,,
,,,,,,,,,,,,,,,90302,001,2022-04-28_13h08.16.890,SPAMnetsValid,2021.1.4,MacIntel,29.41176471,,,,,,,,,,,,,,,,,,,,,,,,,,,,,,,,,,,,,,,,,,,,,,,,,,,,,,,,,,,,,,,,,meerkat,Animals,27,0,27,0,1,,,,,,,,,,,,,,,,,,
,,,,,,,,,,,,,,,90302,001,2022-04-28_13h08.16.890,SPAMnetsValid,2021.1.4,MacIntel,29.41176471,,,,,,,,,,,,,,,,,,,,,,,,,,,,,,,,,,,,,,,,,,,,,,,,,,,,,,,,,,,,,,,,,gorilla,Animals,28,0,28,0,1,,,,,,,,,,,,,,,,,,
,,,,,,,,,,,,,,,90302,001,2022-04-28_13h08.16.890,SPAMnetsValid,2021.1.4,MacIntel,29.41176471,,,,,,,,,,,,,,,,,,,,,,,,,,,,,,,,,,,,,,,,,,,,,,,,,,,,,,,,,,,,,,,,,,,,,,,,0,0,0,0,1,Animals,,,,,,,,,,,,
,,,,,,,,,,,,,,,90302,001,2022-04-28_13h08.16.890,SPAMnetsValid,2021.1.4,MacIntel,29.41176471,,,,,,,,,,,,,,,,,,,,,,,,,,,,,,,,,,,,,,,,,,,,,,,,,,,,,,,,,,,,,,,,,,,,,,,,,,,,,,5,5.51,0,0,0,0,1,"I enjoy concentrating on a fantasy or daydream and exploring all its possibilities, letting it grow and develop.",0,1,,
,,,,,,,,,,,,,,,90302,001,2022-04-28_13h08.16.890,SPAMnetsValid,2021.1.4,MacIntel,29.41176471,,,,,,,,,,,,,,,,,,,,,,,,,,,,,,,,,,,,,,,,,,,,,,,,,,,,,,,,,,,,,,,,,,,,,,,,,,,,,,5,1.939,0,1,1,1,1,I think it's interesting to learn and develop new hobbies.,0,2,,
,,,,,,,,,,,,,,,90302,001,2022-04-28_13h08.16.890,SPAMnetsValid,2021.1.4,MacIntel,29.41176471,,,,,,,,,,,,,,,,,,,,,,,,,,,,,,,,,,,,,,,,,,,,,,,,,,,,,,,,,,,,,,,,,,,,,,,,,,,,,,5,1.32,0,2,2,2,1,I am intrigued by the patterns I find in art and nature.,0,3,,
,,,,,,,,,,,,,,,90302,001,2022-04-28_13h08.16.890,SPAMnetsValid,2021.1.4,MacIntel,29.41176471,,,,,,,,,,,,,,,,,,,,,,,,,,,,,,,,,,,,,,,,,,,,,,,,,,,,,,,,,,,,,,,,,,,,,,,,,,,,,,1,5.188,0,3,3,3,1,I believe letting students hear controversial speakers can only confuse and mislead them.,1,4,,
,,,,,,,,,,,,,,,90302,001,2022-04-28_13h08.16.890,SPAMnetsValid,2021.1.4,MacIntel,29.41176471,,,,,,,,,,,,,,,,,,,,,,,,,,,,,,,,,,,,,,,,,,,,,,,,,,,,,,,,,,,,,,,,,,,,,,,,,,,,,,1,2.737,0,4,4,4,1,Poetry has little or no effect on me.,1,5,,
,,,,,,,,,,,,,,,90302,001,2022-04-28_13h08.16.890,SPAMnetsValid,2021.1.4,MacIntel,29.41176471,,,,,,,,,,,,,,,,,,,,,,,,,,,,,,,,,,,,,,,,,,,,,,,,,,,,,,,,,,,,,,,,,,,,,,,,,,,,,,1,7.885,0,5,5,5,1,I would have difficulty just letting my mind wander without control or guidance.,1,6,,
,,,,,,,,,,,,,,,90302,001,2022-04-28_13h08.16.890,SPAMnetsValid,2021.1.4,MacIntel,29.41176471,,,,,,,,,,,,,,,,,,,,,,,,,,,,,,,,,,,,,,,,,,,,,,,,,,,,,,,,,,,,,,,,,,,,,,,,,,,,,,5,2.854,0,6,6,6,1,I seldom notice the moods or feelings that different environments produce.,1,7,,
,,,,,,,,,,,,,,,90302,001,2022-04-28_13h08.16.890,SPAMnetsValid,2021.1.4,MacIntel,29.41176471,,,,,,,,,,,,,,,,,,,,,,,,,,,,,,,,,,,,,,,,,,,,,,,,,,,,,,,,,,,,,,,,,,,,,,,,,,,,,,5,1.552,0,7,7,7,1,I experience a wide range of emotions or feelings.,0,8,,
,,,,,,,,,,,,,,,90302,001,2022-04-28_13h08.16.890,SPAMnetsValid,2021.1.4,MacIntel,29.41176471,,,,,,,,,,,,,,,,,,,,,,,,,,,,,,,,,,,,,,,,,,,,,,,,,,,,,,,,,,,,,,,,,,,,,,,,,,,,,,5,4.988,0,8,8,8,1,"Sometimes when I am reading poetry or looking at a work of art, I feel a chill or wave of excitement.",0,9,,
,,,,,,,,,,,,,,,90302,001,2022-04-28_13h08.16.890,SPAMnetsValid,2021.1.4,MacIntel,29.41176471,,,,,,,,,,,,,,,,,,,,,,,,,,,,,,,,,,,,,,,,,,,,,,,,,,,,,,,,,,,,,,,,,,,,,,,,,,,,,,1,4.12,0,9,9,9,1,I have little interest in speculating on the nature of the universe or the human condition.,1,10,,
,,,,,,,,,,,,,,,90302,001,2022-04-28_13h08.16.890,SPAMnetsValid,2021.1.4,MacIntel,29.41176471,,,,,,,,,,,,,,,,,,,,,,,,,,,,,,,,,,,,,,,,,,,,,,,,,,,,,,,,,,,,,,,,,,,,,,,,,,,,,,5,1.818,0,10,10,10,1,I have a lot of intellectual curiosity.,0,11,,
,,,,,,,,,,,,,,,90302,001,2022-04-28_13h08.16.890,SPAMnetsValid,2021.1.4,MacIntel,29.41176471,,,,,,,,,,,,,,,,,,,,,,,,,,,,,,,,,,,,,,,,,,,,,,,,,,,,,,,,,,,,,,,,,,,,,,,,,,,,,,5,1.537,0,11,11,11,1,I often enjoy playing with theories or abstract ideas.,0,12,,
,,,,,,,,,,,,,,,90302,001,2022-04-28_13h08.16.890,SPAMnetsValid,2021.1.4,MacIntel,29.41176471,,,,,,,,,,,,,,,,,,,,,,,,,,,,,,,,,,,,,,,,,,,,,,,,,,,,,,,,,,,,,,,,,,,,,,,,,,,,,,,,,,,,,,,,return,6.539
