key_resp_3.keys,key_resp_3.rt,slider.response,slider.rt,rjt_rating,rjt_RT,trials_22.thisRepN,trials_22.thisTrialN,trials_22.thisN,trials_22.thisIndex,trials_22.ran,rjt_order,word1,word2,attention,participant,session,date,expName,psychopyVersion,OS,frameRate,trials_99.thisRepN,trials_99.thisTrialN,trials_99.thisN,trials_99.thisIndex,trials_99.ran,trials_5.thisRepN,trials_5.thisTrialN,trials_5.thisN,trials_5.thisIndex,trials_5.ran,repOne,repTwo,slider_2.response,slider_2.rt,trials_24.thisRepN,trials_24.thisTrialN,trials_24.thisN,trials_24.thisIndex,trials_24.ran,trials_4.thisRepN,trials_4.thisTrialN,trials_4.thisN,trials_4.thisIndex,trials_4.ran,slider_extend_2.response,slider_extend_2.rt,trials_6.thisRepN,trials_6.thisTrialN,trials_6.thisN,trials_6.thisIndex,trials_6.ran,vCue2,R1,R2,R3,R4,correct,sliderVocab.response,sliderVocab.rt,trials_7.thisRepN,trials_7.thisTrialN,trials_7.thisN,trials_7.thisIndex,trials_7.ran,VocabCue,VR1,VR2,VR3,VR4,VR5,VocabCorrect,AUT_resp,AUT_label,trials.thisRepN,trials.thisTrialN,trials.thisN,trials.thisIndex,trials.ran,trials_2.thisRepN,trials_2.thisTrialN,trials_2.thisN,trials_2.thisIndex,trials_2.ran,aut_prompt,VF_response,VF_tag,trials_16.thisRepN,trials_16.thisTrialN,trials_16.thisN,trials_16.thisIndex,trials_16.ran,trials_17.thisRepN,trials_17.thisTrialN,trials_17.thisN,trials_17.thisIndex,trials_17.ran,VFcond,open_slider.response,open_slider.rt,trials_3.thisRepN,trials_3.thisTrialN,trials_3.thisN,trials_3.thisIndex,trials_3.ran,OpenQ,Rev,OPEN_ORDER,key_resp_2.keys,key_resp_2.rt
return,0.166,1,2.1202,1,2.1202,0,0,0,47,1,73,broom,chocolate,,90317,001,2022-04-29_14h02.27.153,SPAMnetsValid,2021.1.4,Win32,59.94125757,,,,,,,,,,,,,,,,,,,,,,,,,,,,,,,,,,,,,,,,,,,,,,,,,,,,,,,,,,,,,,,,,,,,,,,,,,,,,,,,,,,,,,,,,
,,1,1.0399,1,1.0399,0,1,1,11,1,37,garden,refrigerator,,90317,001,2022-04-29_14h02.27.153,SPAMnetsValid,2021.1.4,Win32,59.94125757,,,,,,,,,,,,,,,,,,,,,,,,,,,,,,,,,,,,,,,,,,,,,,,,,,,,,,,,,,,,,,,,,,,,,,,,,,,,,,,,,,,,,,,,,
,,1,1.6904,1,1.6904,0,2,2,55,1,1,rose,yogurt,,90317,001,2022-04-29_14h02.27.153,SPAMnetsValid,2021.1.4,Win32,59.94125757,,,,,,,,,,,,,,,,,,,,,,,,,,,,,,,,,,,,,,,,,,,,,,,,,,,,,,,,,,,,,,,,,,,,,,,,,,,,,,,,,,,,,,,,,
,,1,1.5207,1,1.5207,0,3,3,42,1,77,refrigerator,yogurt,,90317,001,2022-04-29_14h02.27.153,SPAMnetsValid,2021.1.4,Win32,59.94125757,,,,,,,,,,,,,,,,,,,,,,,,,,,,,,,,,,,,,,,,,,,,,,,,,,,,,,,,,,,,,,,,,,,,,,,,,,,,,,,,,,,,,,,,,
,,8,1.2335,8,1.2335,0,4,4,95,1,52,carrot,tomato,,90317,001,2022-04-29_14h02.27.153,SPAMnetsValid,2021.1.4,Win32,59.94125757,,,,,,,,,,,,,,,,,,,,,,,,,,,,,,,,,,,,,,,,,,,,,,,,,,,,,,,,,,,,,,,,,,,,,,,,,,,,,,,,,,,,,,,,,
,,2,1.6289,2,1.6289,0,5,5,86,1,51,onion,strawberry,,90317,001,2022-04-29_14h02.27.153,SPAMnetsValid,2021.1.4,Win32,59.94125757,,,,,,,,,,,,,,,,,,,,,,,,,,,,,,,,,,,,,,,,,,,,,,,,,,,,,,,,,,,,,,,,,,,,,,,,,,,,,,,,,,,,,,,,,
,,1,0.9988,1,0.9988,0,6,6,13,1,26,tomato,yogurt,,90317,001,2022-04-29_14h02.27.153,SPAMnetsValid,2021.1.4,Win32,59.94125757,,,,,,,,,,,,,,,,,,,,,,,,,,,,,,,,,,,,,,,,,,,,,,,,,,,,,,,,,,,,,,,,,,,,,,,,,,,,,,,,,,,,,,,,,
,,1,1.1234,1,1.1234,0,7,7,38,1,88,cactus,melon,,90317,001,2022-04-29_14h02.27.153,SPAMnetsValid,2021.1.4,Win32,59.94125757,,,,,,,,,,,,,,,,,,,,,,,,,,,,,,,,,,,,,,,,,,,,,,,,,,,,,,,,,,,,,,,,,,,,,,,,,,,,,,,,,,,,,,,,,
,,1,1.7156,1,1.7156,0,8,8,73,1,50,carrot,rose,,90317,001,2022-04-29_14h02.27.153,SPAMnetsValid,2021.1.4,Win32,59.94125757,,,,,,,,,,,,,,,,,,,,,,,,,,,,,,,,,,,,,,,,,,,,,,,,,,,,,,,,,,,,,,,,,,,,,,,,,,,,,,,,,,,,,,,,,
,,1,1.0563,1,1.0563,0,9,9,24,1,17,carrot,melon,,90317,001,2022-04-29_14h02.27.153,SPAMnetsValid,2021.1.4,Win32,59.94125757,,,,,,,,,,,,,,,,,,,,,,,,,,,,,,,,,,,,,,,,,,,,,,,,,,,,,,,,,,,,,,,,,,,,,,,,,,,,,,,,,,,,,,,,,
,,1,1.9137,1,1.9137,0,10,10,65,1,46,garden,yogurt,,90317,001,2022-04-29_14h02.27.153,SPAMnetsValid,2021.1.4,Win32,59.94125757,,,,,,,,,,,,,,,,,,,,,,,,,,,,,,,,,,,,,,,,,,,,,,,,,,,,,,,,,,,,,,,,,,,,,,,,,,,,,,,,,,,,,,,,,
,,1,1.3417,1,1.3417,0,11,11,54,1,28,cake,melon,,90317,001,2022-04-29_14h02.27.153,SPAMnetsValid,2021.1.4,Win32,59.94125757,,,,,,,,,,,,,,,,,,,,,,,,,,,,,,,,,,,,,,,,,,,,,,,,,,,,,,,,,,,,,,,,,,,,,,,,,,,,,,,,,,,,,,,,,
,,1,1.1068,1,1.1068,0,12,12,67,1,54,chocolate,yogurt,,90317,001,2022-04-29_14h02.27.153,SPAMnetsValid,2021.1.4,Win32,59.94125757,,,,,,,,,,,,,,,,,,,,,,,,,,,,,,,,,,,,,,,,,,,,,,,,,,,,,,,,,,,,,,,,,,,,,,,,,,,,,,,,,,,,,,,,,
,,1,1.1401,1,1.1401,0,13,13,9,1,75,cookie,onion,,90317,001,2022-04-29_14h02.27.153,SPAMnetsValid,2021.1.4,Win32,59.94125757,,,,,,,,,,,,,,,,,,,,,,,,,,,,,,,,,,,,,,,,,,,,,,,,,,,,,,,,,,,,,,,,,,,,,,,,,,,,,,,,,,,,,,,,,
,,1,0.9563,1,0.9563,0,14,14,46,1,41,broom,cactus,,90317,001,2022-04-29_14h02.27.153,SPAMnetsValid,2021.1.4,Win32,59.94125757,,,,,,,,,,,,,,,,,,,,,,,,,,,,,,,,,,,,,,,,,,,,,,,,,,,,,,,,,,,,,,,,,,,,,,,,,,,,,,,,,,,,,,,,,
,,1,1.1251,1,1.1251,0,15,15,33,1,32,cake,microwave,,90317,001,2022-04-29_14h02.27.153,SPAMnetsValid,2021.1.4,Win32,59.94125757,,,,,,,,,,,,,,,,,,,,,,,,,,,,,,,,,,,,,,,,,,,,,,,,,,,,,,,,,,,,,,,,,,,,,,,,,,,,,,,,,,,,,,,,,
,,7,1.6438,7,1.6438,0,16,16,51,1,47,onion,tomato,,90317,001,2022-04-29_14h02.27.153,SPAMnetsValid,2021.1.4,Win32,59.94125757,,,,,,,,,,,,,,,,,,,,,,,,,,,,,,,,,,,,,,,,,,,,,,,,,,,,,,,,,,,,,,,,,,,,,,,,,,,,,,,,,,,,,,,,,
,,1,1.7803,1,1.7803,0,17,17,79,1,86,oven,rose,,90317,001,2022-04-29_14h02.27.153,SPAMnetsValid,2021.1.4,Win32,59.94125757,,,,,,,,,,,,,,,,,,,,,,,,,,,,,,,,,,,,,,,,,,,,,,,,,,,,,,,,,,,,,,,,,,,,,,,,,,,,,,,,,,,,,,,,,
,,1,1.1902,1,1.1902,0,18,18,56,1,78,cookie,rose,,90317,001,2022-04-29_14h02.27.153,SPAMnetsValid,2021.1.4,Win32,59.94125757,,,,,,,,,,,,,,,,,,,,,,,,,,,,,,,,,,,,,,,,,,,,,,,,,,,,,,,,,,,,,,,,,,,,,,,,,,,,,,,,,,,,,,,,,
,,5,2.0345,5,2.0345,0,19,19,96,1,82,cake,kitchen,,90317,001,2022-04-29_14h02.27.153,SPAMnetsValid,2021.1.4,Win32,59.94125757,,,,,,,,,,,,,,,,,,,,,,,,,,,,,,,,,,,,,,,,,,,,,,,,,,,,,,,,,,,,,,,,,,,,,,,,,,,,,,,,,,,,,,,,,
,,1,0.9326,1,0.9326,0,20,20,6,1,87,carrot,yogurt,,90317,001,2022-04-29_14h02.27.153,SPAMnetsValid,2021.1.4,Win32,59.94125757,,,,,,,,,,,,,,,,,,,,,,,,,,,,,,,,,,,,,,,,,,,,,,,,,,,,,,,,,,,,,,,,,,,,,,,,,,,,,,,,,,,,,,,,,
,,1,1.1953,1,1.1953,0,21,21,89,1,80,chocolate,tree,,90317,001,2022-04-29_14h02.27.153,SPAMnetsValid,2021.1.4,Win32,59.94125757,,,,,,,,,,,,,,,,,,,,,,,,,,,,,,,,,,,,,,,,,,,,,,,,,,,,,,,,,,,,,,,,,,,,,,,,,,,,,,,,,,,,,,,,,
,,1,0.9602,1,0.9602,0,22,22,45,1,10,flower,onion,,90317,001,2022-04-29_14h02.27.153,SPAMnetsValid,2021.1.4,Win32,59.94125757,,,,,,,,,,,,,,,,,,,,,,,,,,,,,,,,,,,,,,,,,,,,,,,,,,,,,,,,,,,,,,,,,,,,,,,,,,,,,,,,,,,,,,,,,
,,1,1.2069,1,1.2069,0,23,23,70,1,5,oven,tree,,90317,001,2022-04-29_14h02.27.153,SPAMnetsValid,2021.1.4,Win32,59.94125757,,,,,,,,,,,,,,,,,,,,,,,,,,,,,,,,,,,,,,,,,,,,,,,,,,,,,,,,,,,,,,,,,,,,,,,,,,,,,,,,,,,,,,,,,
,,1,1.2828,1,1.2828,0,24,24,34,1,29,chocolate,melon,,90317,001,2022-04-29_14h02.27.153,SPAMnetsValid,2021.1.4,Win32,59.94125757,,,,,,,,,,,,,,,,,,,,,,,,,,,,,,,,,,,,,,,,,,,,,,,,,,,,,,,,,,,,,,,,,,,,,,,,,,,,,,,,,,,,,,,,,
,,5,2.8691,5,2.8691,0,25,25,3,1,49,flower,strawberry,,90317,001,2022-04-29_14h02.27.153,SPAMnetsValid,2021.1.4,Win32,59.94125757,,,,,,,,,,,,,,,,,,,,,,,,,,,,,,,,,,,,,,,,,,,,,,,,,,,,,,,,,,,,,,,,,,,,,,,,,,,,,,,,,,,,,,,,,
,,1,0.8726,1,0.8726,0,26,26,16,1,14,broom,cookie,,90317,001,2022-04-29_14h02.27.153,SPAMnetsValid,2021.1.4,Win32,59.94125757,,,,,,,,,,,,,,,,,,,,,,,,,,,,,,,,,,,,,,,,,,,,,,,,,,,,,,,,,,,,,,,,,,,,,,,,,,,,,,,,,,,,,,,,,
,,8,3.1178,8,3.1178,0,27,27,58,1,94,kitchen,microwave,,90317,001,2022-04-29_14h02.27.153,SPAMnetsValid,2021.1.4,Win32,59.94125757,,,,,,,,,,,,,,,,,,,,,,,,,,,,,,,,,,,,,,,,,,,,,,,,,,,,,,,,,,,,,,,,,,,,,,,,,,,,,,,,,,,,,,,,,
,,8,1.7158,8,1.7158,0,28,28,83,1,6,garden,onion,,90317,001,2022-04-29_14h02.27.153,SPAMnetsValid,2021.1.4,Win32,59.94125757,,,,,,,,,,,,,,,,,,,,,,,,,,,,,,,,,,,,,,,,,,,,,,,,,,,,,,,,,,,,,,,,,,,,,,,,,,,,,,,,,,,,,,,,,
,,1,1.1154,1,1.1154,0,29,29,88,1,92,broom,flower,,90317,001,2022-04-29_14h02.27.153,SPAMnetsValid,2021.1.4,Win32,59.94125757,,,,,,,,,,,,,,,,,,,,,,,,,,,,,,,,,,,,,,,,,,,,,,,,,,,,,,,,,,,,,,,,,,,,,,,,,,,,,,,,,,,,,,,,,
,,1,1.2408,1,1.2408,0,30,30,60,1,89,chocolate,rose,,90317,001,2022-04-29_14h02.27.153,SPAMnetsValid,2021.1.4,Win32,59.94125757,,,,,,,,,,,,,,,,,,,,,,,,,,,,,,,,,,,,,,,,,,,,,,,,,,,,,,,,,,,,,,,,,,,,,,,,,,,,,,,,,,,,,,,,,
,,1,1.1867,1,1.1867,0,31,31,8,1,43,chocolate,tomato,,90317,001,2022-04-29_14h02.27.153,SPAMnetsValid,2021.1.4,Win32,59.94125757,,,,,,,,,,,,,,,,,,,,,,,,,,,,,,,,,,,,,,,,,,,,,,,,,,,,,,,,,,,,,,,,,,,,,,,,,,,,,,,,,,,,,,,,,
,,7,1.8089,7,1.8089,0,32,32,87,1,79,garden,strawberry,,90317,001,2022-04-29_14h02.27.153,SPAMnetsValid,2021.1.4,Win32,59.94125757,,,,,,,,,,,,,,,,,,,,,,,,,,,,,,,,,,,,,,,,,,,,,,,,,,,,,,,,,,,,,,,,,,,,,,,,,,,,,,,,,,,,,,,,,
,,1,1.108,1,1.108,0,33,33,18,1,85,cake,tree,,90317,001,2022-04-29_14h02.27.153,SPAMnetsValid,2021.1.4,Win32,59.94125757,,,,,,,,,,,,,,,,,,,,,,,,,,,,,,,,,,,,,,,,,,,,,,,,,,,,,,,,,,,,,,,,,,,,,,,,,,,,,,,,,,,,,,,,,
,,2,1.374,2,1.374,0,34,34,75,1,69,carrot,refrigerator,,90317,001,2022-04-29_14h02.27.153,SPAMnetsValid,2021.1.4,Win32,59.94125757,,,,,,,,,,,,,,,,,,,,,,,,,,,,,,,,,,,,,,,,,,,,,,,,,,,,,,,,,,,,,,,,,,,,,,,,,,,,,,,,,,,,,,,,,
,,1,0.9732,1,0.9732,0,35,35,66,1,20,rose,tree,,90317,001,2022-04-29_14h02.27.153,SPAMnetsValid,2021.1.4,Win32,59.94125757,,,,,,,,,,,,,,,,,,,,,,,,,,,,,,,,,,,,,,,,,,,,,,,,,,,,,,,,,,,,,,,,,,,,,,,,,,,,,,,,,,,,,,,,,
,,1,2.0387,1,2.0387,0,36,36,41,1,19,microwave,pretzel,,90317,001,2022-04-29_14h02.27.153,SPAMnetsValid,2021.1.4,Win32,59.94125757,,,,,,,,,,,,,,,,,,,,,,,,,,,,,,,,,,,,,,,,,,,,,,,,,,,,,,,,,,,,,,,,,,,,,,,,,,,,,,,,,,,,,,,,,
,,1,1.1908,1,1.1908,0,37,37,84,1,91,microwave,rose,,90317,001,2022-04-29_14h02.27.153,SPAMnetsValid,2021.1.4,Win32,59.94125757,,,,,,,,,,,,,,,,,,,,,,,,,,,,,,,,,,,,,,,,,,,,,,,,,,,,,,,,,,,,,,,,,,,,,,,,,,,,,,,,,,,,,,,,,
,,1,1.1914,1,1.1914,0,38,38,31,1,33,oven,yogurt,,90317,001,2022-04-29_14h02.27.153,SPAMnetsValid,2021.1.4,Win32,59.94125757,,,,,,,,,,,,,,,,,,,,,,,,,,,,,,,,,,,,,,,,,,,,,,,,,,,,,,,,,,,,,,,,,,,,,,,,,,,,,,,,,,,,,,,,,
,,1,1.1889,1,1.1889,0,39,39,17,1,27,cactus,cookie,,90317,001,2022-04-29_14h02.27.153,SPAMnetsValid,2021.1.4,Win32,59.94125757,,,,,,,,,,,,,,,,,,,,,,,,,,,,,,,,,,,,,,,,,,,,,,,,,,,,,,,,,,,,,,,,,,,,,,,,,,,,,,,,,,,,,,,,,
,,1,1.2247,1,1.2247,0,40,40,25,1,23,flower,microwave,,90317,001,2022-04-29_14h02.27.153,SPAMnetsValid,2021.1.4,Win32,59.94125757,,,,,,,,,,,,,,,,,,,,,,,,,,,,,,,,,,,,,,,,,,,,,,,,,,,,,,,,,,,,,,,,,,,,,,,,,,,,,,,,,,,,,,,,,
,,1,1.5629,1,1.5629,0,41,41,23,1,65,broom,garden,,90317,001,2022-04-29_14h02.27.153,SPAMnetsValid,2021.1.4,Win32,59.94125757,,,,,,,,,,,,,,,,,,,,,,,,,,,,,,,,,,,,,,,,,,,,,,,,,,,,,,,,,,,,,,,,,,,,,,,,,,,,,,,,,,,,,,,,,
,,1,1.105,1,1.105,0,42,42,32,1,40,broom,cake,,90317,001,2022-04-29_14h02.27.153,SPAMnetsValid,2021.1.4,Win32,59.94125757,,,,,,,,,,,,,,,,,,,,,,,,,,,,,,,,,,,,,,,,,,,,,,,,,,,,,,,,,,,,,,,,,,,,,,,,,,,,,,,,,,,,,,,,,
,,6,2.1065,6,2.1065,0,43,43,29,1,42,garden,kitchen,,90317,001,2022-04-29_14h02.27.153,SPAMnetsValid,2021.1.4,Win32,59.94125757,,,,,,,,,,,,,,,,,,,,,,,,,,,,,,,,,,,,,,,,,,,,,,,,,,,,,,,,,,,,,,,,,,,,,,,,,,,,,,,,,,,,,,,,,
,,5,1.2255,5,1.2255,0,44,44,72,1,59,rose,strawberry,,90317,001,2022-04-29_14h02.27.153,SPAMnetsValid,2021.1.4,Win32,59.94125757,,,,,,,,,,,,,,,,,,,,,,,,,,,,,,,,,,,,,,,,,,,,,,,,,,,,,,,,,,,,,,,,,,,,,,,,,,,,,,,,,,,,,,,,,
,,1,1.1571,1,1.1571,0,45,45,4,1,83,broom,carrot,,90317,001,2022-04-29_14h02.27.153,SPAMnetsValid,2021.1.4,Win32,59.94125757,,,,,,,,,,,,,,,,,,,,,,,,,,,,,,,,,,,,,,,,,,,,,,,,,,,,,,,,,,,,,,,,,,,,,,,,,,,,,,,,,,,,,,,,,
,,7,2.6068,7,2.6068,0,46,46,93,1,63,cake,cookie,,90317,001,2022-04-29_14h02.27.153,SPAMnetsValid,2021.1.4,Win32,59.94125757,,,,,,,,,,,,,,,,,,,,,,,,,,,,,,,,,,,,,,,,,,,,,,,,,,,,,,,,,,,,,,,,,,,,,,,,,,,,,,,,,,,,,,,,,
,,1,1.0889,1,1.0889,0,47,47,61,1,71,broom,rose,,90317,001,2022-04-29_14h02.27.153,SPAMnetsValid,2021.1.4,Win32,59.94125757,,,,,,,,,,,,,,,,,,,,,,,,,,,,,,,,,,,,,,,,,,,,,,,,,,,,,,,,,,,,,,,,,,,,,,,,,,,,,,,,,,,,,,,,,
,,1,1.4651,1,1.4651,0,48,48,90,1,95,broom,refrigerator,,90317,001,2022-04-29_14h02.27.153,SPAMnetsValid,2021.1.4,Win32,59.94125757,,,,,,,,,,,,,,,,,,,,,,,,,,,,,,,,,,,,,,,,,,,,,,,,,,,,,,,,,,,,,,,,,,,,,,,,,,,,,,,,,,,,,,,,,
,,4,1.9718,4,1.9718,0,49,49,35,1,55,tomato,tree,,90317,001,2022-04-29_14h02.27.153,SPAMnetsValid,2021.1.4,Win32,59.94125757,,,,,,,,,,,,,,,,,,,,,,,,,,,,,,,,,,,,,,,,,,,,,,,,,,,,,,,,,,,,,,,,,,,,,,,,,,,,,,,,,,,,,,,,,
,,2,2.6138,2,2.6138,0,50,50,62,1,18,onion,refrigerator,,90317,001,2022-04-29_14h02.27.153,SPAMnetsValid,2021.1.4,Win32,59.94125757,,,,,,,,,,,,,,,,,,,,,,,,,,,,,,,,,,,,,,,,,,,,,,,,,,,,,,,,,,,,,,,,,,,,,,,,,,,,,,,,,,,,,,,,,
,,5,1.7723,5,1.7723,0,51,51,91,1,2,kitchen,onion,,90317,001,2022-04-29_14h02.27.153,SPAMnetsValid,2021.1.4,Win32,59.94125757,,,,,,,,,,,,,,,,,,,,,,,,,,,,,,,,,,,,,,,,,,,,,,,,,,,,,,,,,,,,,,,,,,,,,,,,,,,,,,,,,,,,,,,,,
,,9,1.0779,9,1.0779,0,52,52,10,1,191,cake,cake,CHECK,90317,001,2022-04-29_14h02.27.153,SPAMnetsValid,2021.1.4,Win32,59.94125757,,,,,,,,,,,,,,,,,,,,,,,,,,,,,,,,,,,,,,,,,,,,,,,,,,,,,,,,,,,,,,,,,,,,,,,,,,,,,,,,,,,,,,,,,
,,6,1.7898,6,1.7898,0,53,53,78,1,30,cookie,pretzel,,90317,001,2022-04-29_14h02.27.153,SPAMnetsValid,2021.1.4,Win32,59.94125757,,,,,,,,,,,,,,,,,,,,,,,,,,,,,,,,,,,,,,,,,,,,,,,,,,,,,,,,,,,,,,,,,,,,,,,,,,,,,,,,,,,,,,,,,
,,1,0.9733,1,0.9733,0,54,54,59,1,8,broom,melon,,90317,001,2022-04-29_14h02.27.153,SPAMnetsValid,2021.1.4,Win32,59.94125757,,,,,,,,,,,,,,,,,,,,,,,,,,,,,,,,,,,,,,,,,,,,,,,,,,,,,,,,,,,,,,,,,,,,,,,,,,,,,,,,,,,,,,,,,
,,1,1.1192,1,1.1192,0,55,55,7,1,34,melon,oven,,90317,001,2022-04-29_14h02.27.153,SPAMnetsValid,2021.1.4,Win32,59.94125757,,,,,,,,,,,,,,,,,,,,,,,,,,,,,,,,,,,,,,,,,,,,,,,,,,,,,,,,,,,,,,,,,,,,,,,,,,,,,,,,,,,,,,,,,
,,1,1.11,1,1.11,0,56,56,0,1,53,garden,pretzel,,90317,001,2022-04-29_14h02.27.153,SPAMnetsValid,2021.1.4,Win32,59.94125757,,,,,,,,,,,,,,,,,,,,,,,,,,,,,,,,,,,,,,,,,,,,,,,,,,,,,,,,,,,,,,,,,,,,,,,,,,,,,,,,,,,,,,,,,
,,1,1.523,1,1.523,0,57,57,77,1,7,melon,tree,,90317,001,2022-04-29_14h02.27.153,SPAMnetsValid,2021.1.4,Win32,59.94125757,,,,,,,,,,,,,,,,,,,,,,,,,,,,,,,,,,,,,,,,,,,,,,,,,,,,,,,,,,,,,,,,,,,,,,,,,,,,,,,,,,,,,,,,,
,,1,1.3157,1,1.3157,0,58,58,57,1,62,kitchen,rose,,90317,001,2022-04-29_14h02.27.153,SPAMnetsValid,2021.1.4,Win32,59.94125757,,,,,,,,,,,,,,,,,,,,,,,,,,,,,,,,,,,,,,,,,,,,,,,,,,,,,,,,,,,,,,,,,,,,,,,,,,,,,,,,,,,,,,,,,
,,9,1.1004,9,1.1004,0,59,59,53,1,192,microwave,microwave,CHECK,90317,001,2022-04-29_14h02.27.153,SPAMnetsValid,2021.1.4,Win32,59.94125757,,,,,,,,,,,,,,,,,,,,,,,,,,,,,,,,,,,,,,,,,,,,,,,,,,,,,,,,,,,,,,,,,,,,,,,,,,,,,,,,,,,,,,,,,
,,1,1.2497,1,1.2497,0,60,60,12,1,67,flower,yogurt,,90317,001,2022-04-29_14h02.27.153,SPAMnetsValid,2021.1.4,Win32,59.94125757,,,,,,,,,,,,,,,,,,,,,,,,,,,,,,,,,,,,,,,,,,,,,,,,,,,,,,,,,,,,,,,,,,,,,,,,,,,,,,,,,,,,,,,,,
,,1,1.09,1,1.09,0,61,61,69,1,45,onion,pretzel,,90317,001,2022-04-29_14h02.27.153,SPAMnetsValid,2021.1.4,Win32,59.94125757,,,,,,,,,,,,,,,,,,,,,,,,,,,,,,,,,,,,,,,,,,,,,,,,,,,,,,,,,,,,,,,,,,,,,,,,,,,,,,,,,,,,,,,,,
,,1,1.082,1,1.082,0,62,62,28,1,84,oven,tomato,,90317,001,2022-04-29_14h02.27.153,SPAMnetsValid,2021.1.4,Win32,59.94125757,,,,,,,,,,,,,,,,,,,,,,,,,,,,,,,,,,,,,,,,,,,,,,,,,,,,,,,,,,,,,,,,,,,,,,,,,,,,,,,,,,,,,,,,,
,,1,1.1202,1,1.1202,0,63,63,81,1,60,cactus,onion,,90317,001,2022-04-29_14h02.27.153,SPAMnetsValid,2021.1.4,Win32,59.94125757,,,,,,,,,,,,,,,,,,,,,,,,,,,,,,,,,,,,,,,,,,,,,,,,,,,,,,,,,,,,,,,,,,,,,,,,,,,,,,,,,,,,,,,,,
,,5,2.4933,5,2.4933,0,64,64,44,1,25,carrot,onion,,90317,001,2022-04-29_14h02.27.153,SPAMnetsValid,2021.1.4,Win32,59.94125757,,,,,,,,,,,,,,,,,,,,,,,,,,,,,,,,,,,,,,,,,,,,,,,,,,,,,,,,,,,,,,,,,,,,,,,,,,,,,,,,,,,,,,,,,
,,1,1.0256,1,1.0256,0,65,65,63,1,21,cake,onion,,90317,001,2022-04-29_14h02.27.153,SPAMnetsValid,2021.1.4,Win32,59.94125757,,,,,,,,,,,,,,,,,,,,,,,,,,,,,,,,,,,,,,,,,,,,,,,,,,,,,,,,,,,,,,,,,,,,,,,,,,,,,,,,,,,,,,,,,
,,8,1.5921,8,1.5921,0,66,66,64,1,9,kitchen,refrigerator,,90317,001,2022-04-29_14h02.27.153,SPAMnetsValid,2021.1.4,Win32,59.94125757,,,,,,,,,,,,,,,,,,,,,,,,,,,,,,,,,,,,,,,,,,,,,,,,,,,,,,,,,,,,,,,,,,,,,,,,,,,,,,,,,,,,,,,,,
,,1,1.8779,1,1.8779,0,67,67,71,1,38,pretzel,refrigerator,,90317,001,2022-04-29_14h02.27.153,SPAMnetsValid,2021.1.4,Win32,59.94125757,,,,,,,,,,,,,,,,,,,,,,,,,,,,,,,,,,,,,,,,,,,,,,,,,,,,,,,,,,,,,,,,,,,,,,,,,,,,,,,,,,,,,,,,,
,,1,1.1379,1,1.1379,0,68,68,37,1,58,garden,oven,,90317,001,2022-04-29_14h02.27.153,SPAMnetsValid,2021.1.4,Win32,59.94125757,,,,,,,,,,,,,,,,,,,,,,,,,,,,,,,,,,,,,,,,,,,,,,,,,,,,,,,,,,,,,,,,,,,,,,,,,,,,,,,,,,,,,,,,,
,,1,1.3163,1,1.3163,0,69,69,40,1,74,broom,pretzel,,90317,001,2022-04-29_14h02.27.153,SPAMnetsValid,2021.1.4,Win32,59.94125757,,,,,,,,,,,,,,,,,,,,,,,,,,,,,,,,,,,,,,,,,,,,,,,,,,,,,,,,,,,,,,,,,,,,,,,,,,,,,,,,,,,,,,,,,
,,7,1.5286,7,1.5286,0,70,70,30,1,3,cake,oven,,90317,001,2022-04-29_14h02.27.153,SPAMnetsValid,2021.1.4,Win32,59.94125757,,,,,,,,,,,,,,,,,,,,,,,,,,,,,,,,,,,,,,,,,,,,,,,,,,,,,,,,,,,,,,,,,,,,,,,,,,,,,,,,,,,,,,,,,
,,1,2.1455,1,2.1455,0,71,71,76,1,36,broom,kitchen,,90317,001,2022-04-29_14h02.27.153,SPAMnetsValid,2021.1.4,Win32,59.94125757,,,,,,,,,,,,,,,,,,,,,,,,,,,,,,,,,,,,,,,,,,,,,,,,,,,,,,,,,,,,,,,,,,,,,,,,,,,,,,,,,,,,,,,,,
,,1,1.1537,1,1.1537,0,72,72,26,1,35,flower,pretzel,,90317,001,2022-04-29_14h02.27.153,SPAMnetsValid,2021.1.4,Win32,59.94125757,,,,,,,,,,,,,,,,,,,,,,,,,,,,,,,,,,,,,,,,,,,,,,,,,,,,,,,,,,,,,,,,,,,,,,,,,,,,,,,,,,,,,,,,,
,,1,1.1981,1,1.1981,0,73,73,39,1,15,onion,oven,,90317,001,2022-04-29_14h02.27.153,SPAMnetsValid,2021.1.4,Win32,59.94125757,,,,,,,,,,,,,,,,,,,,,,,,,,,,,,,,,,,,,,,,,,,,,,,,,,,,,,,,,,,,,,,,,,,,,,,,,,,,,,,,,,,,,,,,,
,,1,1.0251,1,1.0251,0,74,74,15,1,48,flower,oven,,90317,001,2022-04-29_14h02.27.153,SPAMnetsValid,2021.1.4,Win32,59.94125757,,,,,,,,,,,,,,,,,,,,,,,,,,,,,,,,,,,,,,,,,,,,,,,,,,,,,,,,,,,,,,,,,,,,,,,,,,,,,,,,,,,,,,,,,
,,1,1.0949,1,1.0949,0,75,75,74,1,70,chocolate,onion,,90317,001,2022-04-29_14h02.27.153,SPAMnetsValid,2021.1.4,Win32,59.94125757,,,,,,,,,,,,,,,,,,,,,,,,,,,,,,,,,,,,,,,,,,,,,,,,,,,,,,,,,,,,,,,,,,,,,,,,,,,,,,,,,,,,,,,,,
,,1,0.9069,1,0.9069,0,76,76,49,1,57,flower,kitchen,,90317,001,2022-04-29_14h02.27.153,SPAMnetsValid,2021.1.4,Win32,59.94125757,,,,,,,,,,,,,,,,,,,,,,,,,,,,,,,,,,,,,,,,,,,,,,,,,,,,,,,,,,,,,,,,,,,,,,,,,,,,,,,,,,,,,,,,,
,,1,1.1884,1,1.1884,0,77,77,2,1,22,kitchen,strawberry,,90317,001,2022-04-29_14h02.27.153,SPAMnetsValid,2021.1.4,Win32,59.94125757,,,,,,,,,,,,,,,,,,,,,,,,,,,,,,,,,,,,,,,,,,,,,,,,,,,,,,,,,,,,,,,,,,,,,,,,,,,,,,,,,,,,,,,,,
,,1,1.0036,1,1.0036,0,78,78,22,1,16,chocolate,flower,,90317,001,2022-04-29_14h02.27.153,SPAMnetsValid,2021.1.4,Win32,59.94125757,,,,,,,,,,,,,,,,,,,,,,,,,,,,,,,,,,,,,,,,,,,,,,,,,,,,,,,,,,,,,,,,,,,,,,,,,,,,,,,,,,,,,,,,,
,,1,1.1279,1,1.1279,0,79,79,5,1,13,broom,yogurt,,90317,001,2022-04-29_14h02.27.153,SPAMnetsValid,2021.1.4,Win32,59.94125757,,,,,,,,,,,,,,,,,,,,,,,,,,,,,,,,,,,,,,,,,,,,,,,,,,,,,,,,,,,,,,,,,,,,,,,,,,,,,,,,,,,,,,,,,
,,1,1.0304,1,1.0304,0,80,80,68,1,24,cookie,tomato,,90317,001,2022-04-29_14h02.27.153,SPAMnetsValid,2021.1.4,Win32,59.94125757,,,,,,,,,,,,,,,,,,,,,,,,,,,,,,,,,,,,,,,,,,,,,,,,,,,,,,,,,,,,,,,,,,,,,,,,,,,,,,,,,,,,,,,,,
,,1,1.1131,1,1.1131,0,81,81,27,1,72,broom,onion,,90317,001,2022-04-29_14h02.27.153,SPAMnetsValid,2021.1.4,Win32,59.94125757,,,,,,,,,,,,,,,,,,,,,,,,,,,,,,,,,,,,,,,,,,,,,,,,,,,,,,,,,,,,,,,,,,,,,,,,,,,,,,,,,,,,,,,,,
,,1,1.0232,1,1.0232,0,82,82,43,1,11,refrigerator,tree,,90317,001,2022-04-29_14h02.27.153,SPAMnetsValid,2021.1.4,Win32,59.94125757,,,,,,,,,,,,,,,,,,,,,,,,,,,,,,,,,,,,,,,,,,,,,,,,,,,,,,,,,,,,,,,,,,,,,,,,,,,,,,,,,,,,,,,,,
,,1,1.1237,1,1.1237,0,83,83,50,1,81,pretzel,yogurt,,90317,001,2022-04-29_14h02.27.153,SPAMnetsValid,2021.1.4,Win32,59.94125757,,,,,,,,,,,,,,,,,,,,,,,,,,,,,,,,,,,,,,,,,,,,,,,,,,,,,,,,,,,,,,,,,,,,,,,,,,,,,,,,,,,,,,,,,
,,1,0.9744,1,0.9744,0,84,84,80,1,61,strawberry,tomato,,90317,001,2022-04-29_14h02.27.153,SPAMnetsValid,2021.1.4,Win32,59.94125757,,,,,,,,,,,,,,,,,,,,,,,,,,,,,,,,,,,,,,,,,,,,,,,,,,,,,,,,,,,,,,,,,,,,,,,,,,,,,,,,,,,,,,,,,
,,1,1.445,1,1.445,0,85,85,19,1,76,garden,rose,,90317,001,2022-04-29_14h02.27.153,SPAMnetsValid,2021.1.4,Win32,59.94125757,,,,,,,,,,,,,,,,,,,,,,,,,,,,,,,,,,,,,,,,,,,,,,,,,,,,,,,,,,,,,,,,,,,,,,,,,,,,,,,,,,,,,,,,,
,,3,3.8736,3,3.8736,0,86,86,36,1,12,cookie,yogurt,,90317,001,2022-04-29_14h02.27.153,SPAMnetsValid,2021.1.4,Win32,59.94125757,,,,,,,,,,,,,,,,,,,,,,,,,,,,,,,,,,,,,,,,,,,,,,,,,,,,,,,,,,,,,,,,,,,,,,,,,,,,,,,,,,,,,,,,,
,,4,1.9748,4,1.9748,0,87,87,21,1,56,cactus,tree,,90317,001,2022-04-29_14h02.27.153,SPAMnetsValid,2021.1.4,Win32,59.94125757,,,,,,,,,,,,,,,,,,,,,,,,,,,,,,,,,,,,,,,,,,,,,,,,,,,,,,,,,,,,,,,,,,,,,,,,,,,,,,,,,,,,,,,,,
,,1,1.3,1,1.3,0,88,88,14,1,64,chocolate,garden,,90317,001,2022-04-29_14h02.27.153,SPAMnetsValid,2021.1.4,Win32,59.94125757,,,,,,,,,,,,,,,,,,,,,,,,,,,,,,,,,,,,,,,,,,,,,,,,,,,,,,,,,,,,,,,,,,,,,,,,,,,,,,,,,,,,,,,,,
,,1,0.9618,1,0.9618,0,89,89,52,1,4,chocolate,pretzel,,90317,001,2022-04-29_14h02.27.153,SPAMnetsValid,2021.1.4,Win32,59.94125757,,,,,,,,,,,,,,,,,,,,,,,,,,,,,,,,,,,,,,,,,,,,,,,,,,,,,,,,,,,,,,,,,,,,,,,,,,,,,,,,,,,,,,,,,
,,1,0.9763,1,0.9763,0,90,90,1,1,31,cactus,pretzel,,90317,001,2022-04-29_14h02.27.153,SPAMnetsValid,2021.1.4,Win32,59.94125757,,,,,,,,,,,,,,,,,,,,,,,,,,,,,,,,,,,,,,,,,,,,,,,,,,,,,,,,,,,,,,,,,,,,,,,,,,,,,,,,,,,,,,,,,
,,8,1.8547,8,1.8547,0,91,91,82,1,93,kitchen,oven,,90317,001,2022-04-29_14h02.27.153,SPAMnetsValid,2021.1.4,Win32,59.94125757,,,,,,,,,,,,,,,,,,,,,,,,,,,,,,,,,,,,,,,,,,,,,,,,,,,,,,,,,,,,,,,,,,,,,,,,,,,,,,,,,,,,,,,,,
,,1,0.9133,1,0.9133,0,92,92,48,1,66,melon,yogurt,,90317,001,2022-04-29_14h02.27.153,SPAMnetsValid,2021.1.4,Win32,59.94125757,,,,,,,,,,,,,,,,,,,,,,,,,,,,,,,,,,,,,,,,,,,,,,,,,,,,,,,,,,,,,,,,,,,,,,,,,,,,,,,,,,,,,,,,,
,,1,1.1417,1,1.1417,0,93,93,20,1,39,melon,pretzel,,90317,001,2022-04-29_14h02.27.153,SPAMnetsValid,2021.1.4,Win32,59.94125757,,,,,,,,,,,,,,,,,,,,,,,,,,,,,,,,,,,,,,,,,,,,,,,,,,,,,,,,,,,,,,,,,,,,,,,,,,,,,,,,,,,,,,,,,
,,7,1.6306,7,1.6306,0,94,94,94,1,68,flower,tomato,,90317,001,2022-04-29_14h02.27.153,SPAMnetsValid,2021.1.4,Win32,59.94125757,,,,,,,,,,,,,,,,,,,,,,,,,,,,,,,,,,,,,,,,,,,,,,,,,,,,,,,,,,,,,,,,,,,,,,,,,,,,,,,,,,,,,,,,,
,,1,0.9575,1,0.9575,0,95,95,92,1,44,cookie,melon,,90317,001,2022-04-29_14h02.27.153,SPAMnetsValid,2021.1.4,Win32,59.94125757,,,,,,,,,,,,,,,,,,,,,,,,,,,,,,,,,,,,,,,,,,,,,,,,,,,,,,,,,,,,,,,,,,,,,,,,,,,,,,,,,,,,,,,,,
,,1,1.2234,1,1.2234,0,96,96,85,1,90,cactus,cake,,90317,001,2022-04-29_14h02.27.153,SPAMnetsValid,2021.1.4,Win32,59.94125757,,,,,,,,,,,,,,,,,,,,,,,,,,,,,,,,,,,,,,,,,,,,,,,,,,,,,,,,,,,,,,,,,,,,,,,,,,,,,,,,,,,,,,,,,
,,,,,,,,,,,,,,,90317,001,2022-04-29_14h02.27.153,SPAMnetsValid,2021.1.4,Win32,59.94125757,0,0,0,0,1,,,,,,,,,,,,,,,,,,,,,,,,,,,,,,,,,,,,,,,,,,,,,,,,,,,,,,,,,,,,,,,,,,,,,,,,,,,,,,,,,,,,
,,,,,,,,,,,,,,,90317,001,2022-04-29_14h02.27.153,SPAMnetsValid,2021.1.4,Win32,59.94125757,,,,,,0,0,0,0,1,1,0,,,,,,,,,,,,,,,,,,,,,,,,,,,,,,,,,,,,,,,,,,,,,,,,,,,,,,,,,,,,,,,,,,,,,,,,,,,,,
,,,,1,2.4513,,,,,,130,microwave,yogurt,,90317,001,2022-04-29_14h02.27.153,SPAMnetsValid,2021.1.4,Win32,59.94125757,,,,,,,,,,,,,1,2.4513,0,0,0,84,1,,,,,,,,,,,,,,,,,,,,,,,,,,,,,,,,,,,,,,,,,,,,,,,,,,,,,,,,,,,,,,,,,,,,,,
,,,,7,1.3873,,,,,,124,oven,refrigerator,,90317,001,2022-04-29_14h02.27.153,SPAMnetsValid,2021.1.4,Win32,59.94125757,,,,,,,,,,,,,7,1.3873,0,1,1,69,1,,,,,,,,,,,,,,,,,,,,,,,,,,,,,,,,,,,,,,,,,,,,,,,,,,,,,,,,,,,,,,,,,,,,,,
,,,,1,0.9568,,,,,,106,cake,strawberry,,90317,001,2022-04-29_14h02.27.153,SPAMnetsValid,2021.1.4,Win32,59.94125757,,,,,,,,,,,,,1,0.9568,0,2,2,0,1,,,,,,,,,,,,,,,,,,,,,,,,,,,,,,,,,,,,,,,,,,,,,,,,,,,,,,,,,,,,,,,,,,,,,,
,,,,3,1.5179,,,,,,189,onion,tree,,90317,001,2022-04-29_14h02.27.153,SPAMnetsValid,2021.1.4,Win32,59.94125757,,,,,,,,,,,,,3,1.5179,0,3,3,62,1,,,,,,,,,,,,,,,,,,,,,,,,,,,,,,,,,,,,,,,,,,,,,,,,,,,,,,,,,,,,,,,,,,,,,,
,,,,1,1.0395,,,,,,184,oven,pretzel,,90317,001,2022-04-29_14h02.27.153,SPAMnetsValid,2021.1.4,Win32,59.94125757,,,,,,,,,,,,,1,1.0395,0,4,4,42,1,,,,,,,,,,,,,,,,,,,,,,,,,,,,,,,,,,,,,,,,,,,,,,,,,,,,,,,,,,,,,,,,,,,,,,
,,,,2,2.2274,,,,,,187,cactus,microwave,,90317,001,2022-04-29_14h02.27.153,SPAMnetsValid,2021.1.4,Win32,59.94125757,,,,,,,,,,,,,2,2.2274,0,5,5,71,1,,,,,,,,,,,,,,,,,,,,,,,,,,,,,,,,,,,,,,,,,,,,,,,,,,,,,,,,,,,,,,,,,,,,,,
,,,,1,0.9899,,,,,,135,carrot,oven,,90317,001,2022-04-29_14h02.27.153,SPAMnetsValid,2021.1.4,Win32,59.94125757,,,,,,,,,,,,,1,0.9899,0,6,6,73,1,,,,,,,,,,,,,,,,,,,,,,,,,,,,,,,,,,,,,,,,,,,,,,,,,,,,,,,,,,,,,,,,,,,,,,
,,,,9,2.1822,,,,,,138,flower,rose,,90317,001,2022-04-29_14h02.27.153,SPAMnetsValid,2021.1.4,Win32,59.94125757,,,,,,,,,,,,,9,2.1822,0,7,7,61,1,,,,,,,,,,,,,,,,,,,,,,,,,,,,,,,,,,,,,,,,,,,,,,,,,,,,,,,,,,,,,,,,,,,,,,
,,,,7,4.0663,,,,,,120,microwave,oven,,90317,001,2022-04-29_14h02.27.153,SPAMnetsValid,2021.1.4,Win32,59.94125757,,,,,,,,,,,,,7,4.0663,0,8,8,14,1,,,,,,,,,,,,,,,,,,,,,,,,,,,,,,,,,,,,,,,,,,,,,,,,,,,,,,,,,,,,,,,,,,,,,,
,,,,1,1.1933,,,,,,99,garden,melon,,90317,001,2022-04-29_14h02.27.153,SPAMnetsValid,2021.1.4,Win32,59.94125757,,,,,,,,,,,,,1,1.1933,0,9,9,17,1,,,,,,,,,,,,,,,,,,,,,,,,,,,,,,,,,,,,,,,,,,,,,,,,,,,,,,,,,,,,,,,,,,,,,,
,,,,1,1.6889,,,,,,104,garden,microwave,,90317,001,2022-04-29_14h02.27.153,SPAMnetsValid,2021.1.4,Win32,59.94125757,,,,,,,,,,,,,1,1.6889,0,10,10,81,1,,,,,,,,,,,,,,,,,,,,,,,,,,,,,,,,,,,,,,,,,,,,,,,,,,,,,,,,,,,,,,,,,,,,,,
,,,,1,1.9541,,,,,,145,cactus,yogurt,,90317,001,2022-04-29_14h02.27.153,SPAMnetsValid,2021.1.4,Win32,59.94125757,,,,,,,,,,,,,1,1.9541,0,11,11,15,1,,,,,,,,,,,,,,,,,,,,,,,,,,,,,,,,,,,,,,,,,,,,,,,,,,,,,,,,,,,,,,,,,,,,,,
,,,,1,1.6561,,,,,,185,cactus,rose,,90317,001,2022-04-29_14h02.27.153,SPAMnetsValid,2021.1.4,Win32,59.94125757,,,,,,,,,,,,,1,1.6561,0,12,12,43,1,,,,,,,,,,,,,,,,,,,,,,,,,,,,,,,,,,,,,,,,,,,,,,,,,,,,,,,,,,,,,,,,,,,,,,
,,,,1,1.2549,,,,,,144,cake,garden,,90317,001,2022-04-29_14h02.27.153,SPAMnetsValid,2021.1.4,Win32,59.94125757,,,,,,,,,,,,,1,1.2549,0,13,13,58,1,,,,,,,,,,,,,,,,,,,,,,,,,,,,,,,,,,,,,,,,,,,,,,,,,,,,,,,,,,,,,,,,,,,,,,
,,,,1,1.2066,,,,,,152,cactus,strawberry,,90317,001,2022-04-29_14h02.27.153,SPAMnetsValid,2021.1.4,Win32,59.94125757,,,,,,,,,,,,,1,1.2066,0,14,14,49,1,,,,,,,,,,,,,,,,,,,,,,,,,,,,,,,,,,,,,,,,,,,,,,,,,,,,,,,,,,,,,,,,,,,,,,
,,,,1,1.1095,,,,,,136,chocolate,microwave,,90317,001,2022-04-29_14h02.27.153,SPAMnetsValid,2021.1.4,Win32,59.94125757,,,,,,,,,,,,,1,1.1095,0,15,15,96,1,,,,,,,,,,,,,,,,,,,,,,,,,,,,,,,,,,,,,,,,,,,,,,,,,,,,,,,,,,,,,,,,,,,,,,
,,,,5,1.5245,,,,,,174,cake,pretzel,,90317,001,2022-04-29_14h02.27.153,SPAMnetsValid,2021.1.4,Win32,59.94125757,,,,,,,,,,,,,5,1.5245,0,16,16,2,1,,,,,,,,,,,,,,,,,,,,,,,,,,,,,,,,,,,,,,,,,,,,,,,,,,,,,,,,,,,,,,,,,,,,,,
,,,,3,2.225,,,,,,115,refrigerator,tomato,,90317,001,2022-04-29_14h02.27.153,SPAMnetsValid,2021.1.4,Win32,59.94125757,,,,,,,,,,,,,3,2.225,0,17,17,85,1,,,,,,,,,,,,,,,,,,,,,,,,,,,,,,,,,,,,,,,,,,,,,,,,,,,,,,,,,,,,,,,,,,,,,,
,,,,1,1.5741,,,,,,96,oven,strawberry,,90317,001,2022-04-29_14h02.27.153,SPAMnetsValid,2021.1.4,Win32,59.94125757,,,,,,,,,,,,,1,1.5741,0,18,18,67,1,,,,,,,,,,,,,,,,,,,,,,,,,,,,,,,,,,,,,,,,,,,,,,,,,,,,,,,,,,,,,,,,,,,,,,
,,,,1,1.2522,,,,,,126,kitchen,tree,,90317,001,2022-04-29_14h02.27.153,SPAMnetsValid,2021.1.4,Win32,59.94125757,,,,,,,,,,,,,1,1.2522,0,19,19,50,1,,,,,,,,,,,,,,,,,,,,,,,,,,,,,,,,,,,,,,,,,,,,,,,,,,,,,,,,,,,,,,,,,,,,,,
,,,,7,1.574,,,,,,188,flower,tree,,90317,001,2022-04-29_14h02.27.153,SPAMnetsValid,2021.1.4,Win32,59.94125757,,,,,,,,,,,,,7,1.574,0,20,20,7,1,,,,,,,,,,,,,,,,,,,,,,,,,,,,,,,,,,,,,,,,,,,,,,,,,,,,,,,,,,,,,,,,,,,,,,
,,,,1,1.4131,,,,,,157,refrigerator,rose,,90317,001,2022-04-29_14h02.27.153,SPAMnetsValid,2021.1.4,Win32,59.94125757,,,,,,,,,,,,,1,1.4131,0,21,21,64,1,,,,,,,,,,,,,,,,,,,,,,,,,,,,,,,,,,,,,,,,,,,,,,,,,,,,,,,,,,,,,,,,,,,,,,
,,,,1,1.2903,,,,,,164,cookie,garden,,90317,001,2022-04-29_14h02.27.153,SPAMnetsValid,2021.1.4,Win32,59.94125757,,,,,,,,,,,,,1,1.2903,0,22,22,59,1,,,,,,,,,,,,,,,,,,,,,,,,,,,,,,,,,,,,,,,,,,,,,,,,,,,,,,,,,,,,,,,,,,,,,,
,,,,1,1.3371,,,,,,101,cactus,kitchen,,90317,001,2022-04-29_14h02.27.153,SPAMnetsValid,2021.1.4,Win32,59.94125757,,,,,,,,,,,,,1,1.3371,0,23,23,54,1,,,,,,,,,,,,,,,,,,,,,,,,,,,,,,,,,,,,,,,,,,,,,,,,,,,,,,,,,,,,,,,,,,,,,,
,,,,6,2.1342,,,,,,142,garden,tree,,90317,001,2022-04-29_14h02.27.153,SPAMnetsValid,2021.1.4,Win32,59.94125757,,,,,,,,,,,,,6,2.1342,0,24,24,22,1,,,,,,,,,,,,,,,,,,,,,,,,,,,,,,,,,,,,,,,,,,,,,,,,,,,,,,,,,,,,,,,,,,,,,,
,,,,1,0.9527,,,,,,132,broom,tree,,90317,001,2022-04-29_14h02.27.153,SPAMnetsValid,2021.1.4,Win32,59.94125757,,,,,,,,,,,,,1,0.9527,0,25,25,78,1,,,,,,,,,,,,,,,,,,,,,,,,,,,,,,,,,,,,,,,,,,,,,,,,,,,,,,,,,,,,,,,,,,,,,,
,,,,1,1.7967,,,,,,166,cake,yogurt,,90317,001,2022-04-29_14h02.27.153,SPAMnetsValid,2021.1.4,Win32,59.94125757,,,,,,,,,,,,,1,1.7967,0,26,26,91,1,,,,,,,,,,,,,,,,,,,,,,,,,,,,,,,,,,,,,,,,,,,,,,,,,,,,,,,,,,,,,,,,,,,,,,
,,,,3,1.5659,,,,,,102,chocolate,refrigerator,,90317,001,2022-04-29_14h02.27.153,SPAMnetsValid,2021.1.4,Win32,59.94125757,,,,,,,,,,,,,3,1.5659,0,27,27,76,1,,,,,,,,,,,,,,,,,,,,,,,,,,,,,,,,,,,,,,,,,,,,,,,,,,,,,,,,,,,,,,,,,,,,,,
,,,,2,2.3096,,,,,,107,rose,tomato,,90317,001,2022-04-29_14h02.27.153,SPAMnetsValid,2021.1.4,Win32,59.94125757,,,,,,,,,,,,,2,2.3096,0,28,28,26,1,,,,,,,,,,,,,,,,,,,,,,,,,,,,,,,,,,,,,,,,,,,,,,,,,,,,,,,,,,,,,,,,,,,,,,
,,,,1,1.5237,,,,,,161,kitchen,pretzel,,90317,001,2022-04-29_14h02.27.153,SPAMnetsValid,2021.1.4,Win32,59.94125757,,,,,,,,,,,,,1,1.5237,0,29,29,36,1,,,,,,,,,,,,,,,,,,,,,,,,,,,,,,,,,,,,,,,,,,,,,,,,,,,,,,,,,,,,,,,,,,,,,,
,,,,1,1.0127,,,,,,127,cactus,chocolate,,90317,001,2022-04-29_14h02.27.153,SPAMnetsValid,2021.1.4,Win32,59.94125757,,,,,,,,,,,,,1,1.0127,0,30,30,57,1,,,,,,,,,,,,,,,,,,,,,,,,,,,,,,,,,,,,,,,,,,,,,,,,,,,,,,,,,,,,,,,,,,,,,,
,,,,1,1.1033,,,,,,97,chocolate,kitchen,,90317,001,2022-04-29_14h02.27.153,SPAMnetsValid,2021.1.4,Win32,59.94125757,,,,,,,,,,,,,1,1.1033,0,31,31,8,1,,,,,,,,,,,,,,,,,,,,,,,,,,,,,,,,,,,,,,,,,,,,,,,,,,,,,,,,,,,,,,,,,,,,,,
,,,,1,1.3932,,,,,,163,melon,refrigerator,,90317,001,2022-04-29_14h02.27.153,SPAMnetsValid,2021.1.4,Win32,59.94125757,,,,,,,,,,,,,1,1.3932,0,32,32,29,1,,,,,,,,,,,,,,,,,,,,,,,,,,,,,,,,,,,,,,,,,,,,,,,,,,,,,,,,,,,,,,,,,,,,,,
,,,,1,1.843,,,,,,108,carrot,chocolate,,90317,001,2022-04-29_14h02.27.153,SPAMnetsValid,2021.1.4,Win32,59.94125757,,,,,,,,,,,,,1,1.843,0,33,33,5,1,,,,,,,,,,,,,,,,,,,,,,,,,,,,,,,,,,,,,,,,,,,,,,,,,,,,,,,,,,,,,,,,,,,,,,
,,,,1,1.8132,,,,,,121,broom,microwave,,90317,001,2022-04-29_14h02.27.153,SPAMnetsValid,2021.1.4,Win32,59.94125757,,,,,,,,,,,,,1,1.8132,0,34,34,95,1,,,,,,,,,,,,,,,,,,,,,,,,,,,,,,,,,,,,,,,,,,,,,,,,,,,,,,,,,,,,,,,,,,,,,,
,,,,1,1.0579,,,,,,109,broom,strawberry,,90317,001,2022-04-29_14h02.27.153,SPAMnetsValid,2021.1.4,Win32,59.94125757,,,,,,,,,,,,,1,1.0579,0,35,35,4,1,,,,,,,,,,,,,,,,,,,,,,,,,,,,,,,,,,,,,,,,,,,,,,,,,,,,,,,,,,,,,,,,,,,,,,
,,,,3,3.0679,,,,,,160,cookie,kitchen,,90317,001,2022-04-29_14h02.27.153,SPAMnetsValid,2021.1.4,Win32,59.94125757,,,,,,,,,,,,,3,3.0679,0,36,36,65,1,,,,,,,,,,,,,,,,,,,,,,,,,,,,,,,,,,,,,,,,,,,,,,,,,,,,,,,,,,,,,,,,,,,,,,
,,,,2,2.146,,,,,,141,melon,tomato,,90317,001,2022-04-29_14h02.27.153,SPAMnetsValid,2021.1.4,Win32,59.94125757,,,,,,,,,,,,,2,2.146,0,37,37,70,1,,,,,,,,,,,,,,,,,,,,,,,,,,,,,,,,,,,,,,,,,,,,,,,,,,,,,,,,,,,,,,,,,,,,,,
,,,,1,1.7091,,,,,,156,melon,rose,,90317,001,2022-04-29_14h02.27.153,SPAMnetsValid,2021.1.4,Win32,59.94125757,,,,,,,,,,,,,1,1.7091,0,38,38,31,1,,,,,,,,,,,,,,,,,,,,,,,,,,,,,,,,,,,,,,,,,,,,,,,,,,,,,,,,,,,,,,,,,,,,,,
,,,,9,2.1606,,,,,,100,garden,tomato,,90317,001,2022-04-29_14h02.27.153,SPAMnetsValid,2021.1.4,Win32,59.94125757,,,,,,,,,,,,,9,2.1606,0,39,39,83,1,,,,,,,,,,,,,,,,,,,,,,,,,,,,,,,,,,,,,,,,,,,,,,,,,,,,,,,,,,,,,,,,,,,,,,
,,,,1,1.3215,,,,,,148,flower,melon,,90317,001,2022-04-29_14h02.27.153,SPAMnetsValid,2021.1.4,Win32,59.94125757,,,,,,,,,,,,,1,1.3215,0,40,40,23,1,,,,,,,,,,,,,,,,,,,,,,,,,,,,,,,,,,,,,,,,,,,,,,,,,,,,,,,,,,,,,,,,,,,,,,
,,,,7,1.661,,,,,,150,microwave,refrigerator,,90317,001,2022-04-29_14h02.27.153,SPAMnetsValid,2021.1.4,Win32,59.94125757,,,,,,,,,,,,,7,1.661,0,41,41,66,1,,,,,,,,,,,,,,,,,,,,,,,,,,,,,,,,,,,,,,,,,,,,,,,,,,,,,,,,,,,,,,,,,,,,,,
,,,,1,0.9978,,,,,,103,pretzel,tomato,,90317,001,2022-04-29_14h02.27.153,SPAMnetsValid,2021.1.4,Win32,59.94125757,,,,,,,,,,,,,1,0.9978,0,42,42,79,1,,,,,,,,,,,,,,,,,,,,,,,,,,,,,,,,,,,,,,,,,,,,,,,,,,,,,,,,,,,,,,,,,,,,,,
,,,,7,1.842,,,,,,116,cake,chocolate,,90317,001,2022-04-29_14h02.27.153,SPAMnetsValid,2021.1.4,Win32,59.94125757,,,,,,,,,,,,,7,1.842,0,43,43,44,1,,,,,,,,,,,,,,,,,,,,,,,,,,,,,,,,,,,,,,,,,,,,,,,,,,,,,,,,,,,,,,,,,,,,,,
,,,,6,1.5976,,,,,,173,kitchen,tomato,,90317,001,2022-04-29_14h02.27.153,SPAMnetsValid,2021.1.4,Win32,59.94125757,,,,,,,,,,,,,6,1.5976,0,44,44,1,1,,,,,,,,,,,,,,,,,,,,,,,,,,,,,,,,,,,,,,,,,,,,,,,,,,,,,,,,,,,,,,,,,,,,,,
,,,,1,1.1076,,,,,,112,cake,carrot,,90317,001,2022-04-29_14h02.27.153,SPAMnetsValid,2021.1.4,Win32,59.94125757,,,,,,,,,,,,,1,1.1076,0,45,45,39,1,,,,,,,,,,,,,,,,,,,,,,,,,,,,,,,,,,,,,,,,,,,,,,,,,,,,,,,,,,,,,,,,,,,,,,
,,,,2,2.1086,,,,,,181,carrot,kitchen,,90317,001,2022-04-29_14h02.27.153,SPAMnetsValid,2021.1.4,Win32,59.94125757,,,,,,,,,,,,,2,2.1086,0,46,46,72,1,,,,,,,,,,,,,,,,,,,,,,,,,,,,,,,,,,,,,,,,,,,,,,,,,,,,,,,,,,,,,,,,,,,,,,
,,,,3,1.2906,,,,,,139,carrot,strawberry,,90317,001,2022-04-29_14h02.27.153,SPAMnetsValid,2021.1.4,Win32,59.94125757,,,,,,,,,,,,,3,1.2906,0,47,47,37,1,,,,,,,,,,,,,,,,,,,,,,,,,,,,,,,,,,,,,,,,,,,,,,,,,,,,,,,,,,,,,,,,,,,,,,
,,,,1,1.0566,,,,,,143,pretzel,rose,,90317,001,2022-04-29_14h02.27.153,SPAMnetsValid,2021.1.4,Win32,59.94125757,,,,,,,,,,,,,1,1.0566,0,48,48,55,1,,,,,,,,,,,,,,,,,,,,,,,,,,,,,,,,,,,,,,,,,,,,,,,,,,,,,,,,,,,,,,,,,,,,,,
,,,,1,1.1491,,,,,,180,tree,yogurt,,90317,001,2022-04-29_14h02.27.153,SPAMnetsValid,2021.1.4,Win32,59.94125757,,,,,,,,,,,,,1,1.1491,0,49,49,68,1,,,,,,,,,,,,,,,,,,,,,,,,,,,,,,,,,,,,,,,,,,,,,,,,,,,,,,,,,,,,,,,,,,,,,,
,,,,1,1.1732,,,,,,165,onion,rose,,90317,001,2022-04-29_14h02.27.153,SPAMnetsValid,2021.1.4,Win32,59.94125757,,,,,,,,,,,,,1,1.1732,0,50,50,40,1,,,,,,,,,,,,,,,,,,,,,,,,,,,,,,,,,,,,,,,,,,,,,,,,,,,,,,,,,,,,,,,,,,,,,,
,,,,1,1.1922,,,,,,182,flower,refrigerator,,90317,001,2022-04-29_14h02.27.153,SPAMnetsValid,2021.1.4,Win32,59.94125757,,,,,,,,,,,,,1,1.1922,0,51,51,32,1,,,,,,,,,,,,,,,,,,,,,,,,,,,,,,,,,,,,,,,,,,,,,,,,,,,,,,,,,,,,,,,,,,,,,,
,,,,1,1.133,,,,,,178,cactus,carrot,,90317,001,2022-04-29_14h02.27.153,SPAMnetsValid,2021.1.4,Win32,59.94125757,,,,,,,,,,,,,1,1.133,0,52,52,75,1,,,,,,,,,,,,,,,,,,,,,,,,,,,,,,,,,,,,,,,,,,,,,,,,,,,,,,,,,,,,,,,,,,,,,,
,,,,1,1.2927,,,,,,129,cactus,refrigerator,,90317,001,2022-04-29_14h02.27.153,SPAMnetsValid,2021.1.4,Win32,59.94125757,,,,,,,,,,,,,1,1.2927,0,53,53,3,1,,,,,,,,,,,,,,,,,,,,,,,,,,,,,,,,,,,,,,,,,,,,,,,,,,,,,,,,,,,,,,,,,,,,,,
,,,,1,1.19,,,,,,149,broom,tomato,,90317,001,2022-04-29_14h02.27.153,SPAMnetsValid,2021.1.4,Win32,59.94125757,,,,,,,,,,,,,1,1.19,0,54,54,20,1,,,,,,,,,,,,,,,,,,,,,,,,,,,,,,,,,,,,,,,,,,,,,,,,,,,,,,,,,,,,,,,,,,,,,,
,,,,1,1.508,,,,,,172,kitchen,melon,,90317,001,2022-04-29_14h02.27.153,SPAMnetsValid,2021.1.4,Win32,59.94125757,,,,,,,,,,,,,1,1.508,0,55,55,77,1,,,,,,,,,,,,,,,,,,,,,,,,,,,,,,,,,,,,,,,,,,,,,,,,,,,,,,,,,,,,,,,,,,,,,,
,,,,2,1.8914,,,,,,105,cactus,oven,,90317,001,2022-04-29_14h02.27.153,SPAMnetsValid,2021.1.4,Win32,59.94125757,,,,,,,,,,,,,2,1.8914,0,56,56,13,1,,,,,,,,,,,,,,,,,,,,,,,,,,,,,,,,,,,,,,,,,,,,,,,,,,,,,,,,,,,,,,,,,,,,,,
,,,,1,1.9057,,,,,,128,melon,microwave,,90317,001,2022-04-29_14h02.27.153,SPAMnetsValid,2021.1.4,Win32,59.94125757,,,,,,,,,,,,,1,1.9057,0,57,57,74,1,,,,,,,,,,,,,,,,,,,,,,,,,,,,,,,,,,,,,,,,,,,,,,,,,,,,,,,,,,,,,,,,,,,,,,
,,,,3,1.5273,,,,,,177,chocolate,strawberry,,90317,001,2022-04-29_14h02.27.153,SPAMnetsValid,2021.1.4,Win32,59.94125757,,,,,,,,,,,,,3,1.5273,0,58,58,53,1,,,,,,,,,,,,,,,,,,,,,,,,,,,,,,,,,,,,,,,,,,,,,,,,,,,,,,,,,,,,,,,,,,,,,,
,,,,1,1.1666,,,,,,169,onion,yogurt,,90317,001,2022-04-29_14h02.27.153,SPAMnetsValid,2021.1.4,Win32,59.94125757,,,,,,,,,,,,,1,1.1666,0,59,59,24,1,,,,,,,,,,,,,,,,,,,,,,,,,,,,,,,,,,,,,,,,,,,,,,,,,,,,,,,,,,,,,,,,,,,,,,
,,,,1,1.2098,,,,,,114,cookie,strawberry,,90317,001,2022-04-29_14h02.27.153,SPAMnetsValid,2021.1.4,Win32,59.94125757,,,,,,,,,,,,,1,1.2098,0,60,60,87,1,,,,,,,,,,,,,,,,,,,,,,,,,,,,,,,,,,,,,,,,,,,,,,,,,,,,,,,,,,,,,,,,,,,,,,
,,,,1,1.2883,,,,,,170,cookie,microwave,,90317,001,2022-04-29_14h02.27.153,SPAMnetsValid,2021.1.4,Win32,59.94125757,,,,,,,,,,,,,1,1.2883,0,61,61,92,1,,,,,,,,,,,,,,,,,,,,,,,,,,,,,,,,,,,,,,,,,,,,,,,,,,,,,,,,,,,,,,,,,,,,,,
,,,,1,1.1467,,,,,,176,cactus,tomato,,90317,001,2022-04-29_14h02.27.153,SPAMnetsValid,2021.1.4,Win32,59.94125757,,,,,,,,,,,,,1,1.1467,0,62,62,9,1,,,,,,,,,,,,,,,,,,,,,,,,,,,,,,,,,,,,,,,,,,,,,,,,,,,,,,,,,,,,,,,,,,,,,,
,,,,9,2.4558,,,,,,167,carrot,garden,,90317,001,2022-04-29_14h02.27.153,SPAMnetsValid,2021.1.4,Win32,59.94125757,,,,,,,,,,,,,9,2.4558,0,63,63,47,1,,,,,,,,,,,,,,,,,,,,,,,,,,,,,,,,,,,,,,,,,,,,,,,,,,,,,,,,,,,,,,,,,,,,,,
,,,,1,1.2998,,,,,,131,cactus,garden,,90317,001,2022-04-29_14h02.27.153,SPAMnetsValid,2021.1.4,Win32,59.94125757,,,,,,,,,,,,,1,1.2998,0,64,64,33,1,,,,,,,,,,,,,,,,,,,,,,,,,,,,,,,,,,,,,,,,,,,,,,,,,,,,,,,,,,,,,,,,,,,,,,
,,,,1,1.0409,,,,,,146,pretzel,tree,,90317,001,2022-04-29_14h02.27.153,SPAMnetsValid,2021.1.4,Win32,59.94125757,,,,,,,,,,,,,1,1.0409,0,65,65,80,1,,,,,,,,,,,,,,,,,,,,,,,,,,,,,,,,,,,,,,,,,,,,,,,,,,,,,,,,,,,,,,,,,,,,,,
,,,,8,1.9078,,,,,,158,cookie,oven,,90317,001,2022-04-29_14h02.27.153,SPAMnetsValid,2021.1.4,Win32,59.94125757,,,,,,,,,,,,,8,1.9078,0,66,66,27,1,,,,,,,,,,,,,,,,,,,,,,,,,,,,,,,,,,,,,,,,,,,,,,,,,,,,,,,,,,,,,,,,,,,,,,
,,,,1,1.2866,,,,,,162,microwave,tomato,,90317,001,2022-04-29_14h02.27.153,SPAMnetsValid,2021.1.4,Win32,59.94125757,,,,,,,,,,,,,1,1.2866,0,67,67,12,1,,,,,,,,,,,,,,,,,,,,,,,,,,,,,,,,,,,,,,,,,,,,,,,,,,,,,,,,,,,,,,,,,,,,,,
,,,,1,1.1091,,,,,,151,microwave,onion,,90317,001,2022-04-29_14h02.27.153,SPAMnetsValid,2021.1.4,Win32,59.94125757,,,,,,,,,,,,,1,1.1091,0,68,68,6,1,,,,,,,,,,,,,,,,,,,,,,,,,,,,,,,,,,,,,,,,,,,,,,,,,,,,,,,,,,,,,,,,,,,,,,
,,,,1,2.5584,,,,,,175,melon,onion,,90317,001,2022-04-29_14h02.27.153,SPAMnetsValid,2021.1.4,Win32,59.94125757,,,,,,,,,,,,,1,2.5584,0,69,69,41,1,,,,,,,,,,,,,,,,,,,,,,,,,,,,,,,,,,,,,,,,,,,,,,,,,,,,,,,,,,,,,,,,,,,,,,
,,,,1,1.778,,,,,,153,carrot,pretzel,,90317,001,2022-04-29_14h02.27.153,SPAMnetsValid,2021.1.4,Win32,59.94125757,,,,,,,,,,,,,1,1.778,0,70,70,34,1,,,,,,,,,,,,,,,,,,,,,,,,,,,,,,,,,,,,,,,,,,,,,,,,,,,,,,,,,,,,,,,,,,,,,,
,,,,6,2.1577,,,,,,117,melon,strawberry,,90317,001,2022-04-29_14h02.27.153,SPAMnetsValid,2021.1.4,Win32,59.94125757,,,,,,,,,,,,,6,2.1577,0,71,71,11,1,,,,,,,,,,,,,,,,,,,,,,,,,,,,,,,,,,,,,,,,,,,,,,,,,,,,,,,,,,,,,,,,,,,,,,
,,,,1,1.1473,,,,,,147,cake,refrigerator,,90317,001,2022-04-29_14h02.27.153,SPAMnetsValid,2021.1.4,Win32,59.94125757,,,,,,,,,,,,,1,1.1473,0,72,72,35,1,,,,,,,,,,,,,,,,,,,,,,,,,,,,,,,,,,,,,,,,,,,,,,,,,,,,,,,,,,,,,,,,,,,,,,
,,,,1,1.6882,,,,,,140,cookie,refrigerator,,90317,001,2022-04-29_14h02.27.153,SPAMnetsValid,2021.1.4,Win32,59.94125757,,,,,,,,,,,,,1,1.6882,0,73,73,89,1,,,,,,,,,,,,,,,,,,,,,,,,,,,,,,,,,,,,,,,,,,,,,,,,,,,,,,,,,,,,,,,,,,,,,,
,,,,1,1.8211,,,,,,125,carrot,tree,,90317,001,2022-04-29_14h02.27.153,SPAMnetsValid,2021.1.4,Win32,59.94125757,,,,,,,,,,,,,1,1.8211,0,74,74,30,1,,,,,,,,,,,,,,,,,,,,,,,,,,,,,,,,,,,,,,,,,,,,,,,,,,,,,,,,,,,,,,,,,,,,,,
,,,,1,1.3307,,,,,,168,cactus,flower,,90317,001,2022-04-29_14h02.27.153,SPAMnetsValid,2021.1.4,Win32,59.94125757,,,,,,,,,,,,,1,1.3307,0,75,75,51,1,,,,,,,,,,,,,,,,,,,,,,,,,,,,,,,,,,,,,,,,,,,,,,,,,,,,,,,,,,,,,,,,,,,,,,
,,,,1,2.0041,,,,,,186,kitchen,yogurt,,90317,001,2022-04-29_14h02.27.153,SPAMnetsValid,2021.1.4,Win32,59.94125757,,,,,,,,,,,,,1,2.0041,0,76,76,48,1,,,,,,,,,,,,,,,,,,,,,,,,,,,,,,,,,,,,,,,,,,,,,,,,,,,,,,,,,,,,,,,,,,,,,,
,,,,1,1.2466,,,,,,159,cookie,flower,,90317,001,2022-04-29_14h02.27.153,SPAMnetsValid,2021.1.4,Win32,59.94125757,,,,,,,,,,,,,1,1.2466,0,77,77,21,1,,,,,,,,,,,,,,,,,,,,,,,,,,,,,,,,,,,,,,,,,,,,,,,,,,,,,,,,,,,,,,,,,,,,,,
,,,,1,1.1381,,,,,,133,cake,flower,,90317,001,2022-04-29_14h02.27.153,SPAMnetsValid,2021.1.4,Win32,59.94125757,,,,,,,,,,,,,1,1.1381,0,78,78,94,1,,,,,,,,,,,,,,,,,,,,,,,,,,,,,,,,,,,,,,,,,,,,,,,,,,,,,,,,,,,,,,,,,,,,,,
,,,,6,1.8631,,,,,,154,strawberry,yogurt,,90317,001,2022-04-29_14h02.27.153,SPAMnetsValid,2021.1.4,Win32,59.94125757,,,,,,,,,,,,,6,1.8631,0,79,79,28,1,,,,,,,,,,,,,,,,,,,,,,,,,,,,,,,,,,,,,,,,,,,,,,,,,,,,,,,,,,,,,,,,,,,,,,
,,,,1,0.9289,,,,,,183,cake,rose,,90317,001,2022-04-29_14h02.27.153,SPAMnetsValid,2021.1.4,Win32,59.94125757,,,,,,,,,,,,,1,0.9289,0,80,80,19,1,,,,,,,,,,,,,,,,,,,,,,,,,,,,,,,,,,,,,,,,,,,,,,,,,,,,,,,,,,,,,,,,,,,,,,
,,,,9,1.6943,,,,,,193,melon,melon,CHECK,90317,001,2022-04-29_14h02.27.153,SPAMnetsValid,2021.1.4,Win32,59.94125757,,,,,,,,,,,,,9,1.6943,0,81,81,86,1,,,,,,,,,,,,,,,,,,,,,,,,,,,,,,,,,,,,,,,,,,,,,,,,,,,,,,,,,,,,,,,,,,,,,,
,,,,1,1.7221,,,,,,111,carrot,microwave,,90317,001,2022-04-29_14h02.27.153,SPAMnetsValid,2021.1.4,Win32,59.94125757,,,,,,,,,,,,,1,1.7221,0,82,82,16,1,,,,,,,,,,,,,,,,,,,,,,,,,,,,,,,,,,,,,,,,,,,,,,,,,,,,,,,,,,,,,,,,,,,,,,
,,,,2,2.5308,,,,,,118,chocolate,oven,,90317,001,2022-04-29_14h02.27.153,SPAMnetsValid,2021.1.4,Win32,59.94125757,,,,,,,,,,,,,2,2.5308,0,83,83,10,1,,,,,,,,,,,,,,,,,,,,,,,,,,,,,,,,,,,,,,,,,,,,,,,,,,,,,,,,,,,,,,,,,,,,,,
,,,,9,1.503,,,,,,122,flower,garden,,90317,001,2022-04-29_14h02.27.153,SPAMnetsValid,2021.1.4,Win32,59.94125757,,,,,,,,,,,,,9,1.503,0,84,84,60,1,,,,,,,,,,,,,,,,,,,,,,,,,,,,,,,,,,,,,,,,,,,,,,,,,,,,,,,,,,,,,,,,,,,,,,
,,,,1,2.2959,,,,,,119,strawberry,tree,,90317,001,2022-04-29_14h02.27.153,SPAMnetsValid,2021.1.4,Win32,59.94125757,,,,,,,,,,,,,1,2.2959,0,85,85,18,1,,,,,,,,,,,,,,,,,,,,,,,,,,,,,,,,,,,,,,,,,,,,,,,,,,,,,,,,,,,,,,,,,,,,,,
,,,,1,1.1079,,,,,,137,microwave,tree,,90317,001,2022-04-29_14h02.27.153,SPAMnetsValid,2021.1.4,Win32,59.94125757,,,,,,,,,,,,,1,1.1079,0,86,86,63,1,,,,,,,,,,,,,,,,,,,,,,,,,,,,,,,,,,,,,,,,,,,,,,,,,,,,,,,,,,,,,,,,,,,,,,
,,,,9,1.1494,,,,,,194,cactus,cactus,CHECK,90317,001,2022-04-29_14h02.27.153,SPAMnetsValid,2021.1.4,Win32,59.94125757,,,,,,,,,,,,,9,1.1494,0,87,87,25,1,,,,,,,,,,,,,,,,,,,,,,,,,,,,,,,,,,,,,,,,,,,,,,,,,,,,,,,,,,,,,,,,,,,,,,
,,,,1,1.6955,,,,,,190,microwave,strawberry,,90317,001,2022-04-29_14h02.27.153,SPAMnetsValid,2021.1.4,Win32,59.94125757,,,,,,,,,,,,,1,1.6955,0,88,88,90,1,,,,,,,,,,,,,,,,,,,,,,,,,,,,,,,,,,,,,,,,,,,,,,,,,,,,,,,,,,,,,,,,,,,,,,
,,,,1,1.0071,,,,,,98,pretzel,strawberry,,90317,001,2022-04-29_14h02.27.153,SPAMnetsValid,2021.1.4,Win32,59.94125757,,,,,,,,,,,,,1,1.0071,0,89,89,82,1,,,,,,,,,,,,,,,,,,,,,,,,,,,,,,,,,,,,,,,,,,,,,,,,,,,,,,,,,,,,,,,,,,,,,,
,,,,8,1.8334,,,,,,110,chocolate,cookie,,90317,001,2022-04-29_14h02.27.153,SPAMnetsValid,2021.1.4,Win32,59.94125757,,,,,,,,,,,,,8,1.8334,0,90,90,52,1,,,,,,,,,,,,,,,,,,,,,,,,,,,,,,,,,,,,,,,,,,,,,,,,,,,,,,,,,,,,,,,,,,,,,,
,,,,1,1.7085,,,,,,123,cookie,tree,,90317,001,2022-04-29_14h02.27.153,SPAMnetsValid,2021.1.4,Win32,59.94125757,,,,,,,,,,,,,1,1.7085,0,91,91,46,1,,,,,,,,,,,,,,,,,,,,,,,,,,,,,,,,,,,,,,,,,,,,,,,,,,,,,,,,,,,,,,,,,,,,,,
,,,,1,1.1079,,,,,,179,broom,oven,,90317,001,2022-04-29_14h02.27.153,SPAMnetsValid,2021.1.4,Win32,59.94125757,,,,,,,,,,,,,1,1.1079,0,92,92,45,1,,,,,,,,,,,,,,,,,,,,,,,,,,,,,,,,,,,,,,,,,,,,,,,,,,,,,,,,,,,,,,,,,,,,,,
,,,,1,1.3559,,,,,,134,carrot,flower,,90317,001,2022-04-29_14h02.27.153,SPAMnetsValid,2021.1.4,Win32,59.94125757,,,,,,,,,,,,,1,1.3559,0,93,93,93,1,,,,,,,,,,,,,,,,,,,,,,,,,,,,,,,,,,,,,,,,,,,,,,,,,,,,,,,,,,,,,,,,,,,,,,
,,,,1,1.3722,,,,,,171,cake,tomato,,90317,001,2022-04-29_14h02.27.153,SPAMnetsValid,2021.1.4,Win32,59.94125757,,,,,,,,,,,,,1,1.3722,0,94,94,88,1,,,,,,,,,,,,,,,,,,,,,,,,,,,,,,,,,,,,,,,,,,,,,,,,,,,,,,,,,,,,,,,,,,,,,,
,,,,2,1.3901,,,,,,113,refrigerator,strawberry,,90317,001,2022-04-29_14h02.27.153,SPAMnetsValid,2021.1.4,Win32,59.94125757,,,,,,,,,,,,,2,1.3901,0,95,95,56,1,,,,,,,,,,,,,,,,,,,,,,,,,,,,,,,,,,,,,,,,,,,,,,,,,,,,,,,,,,,,,,,,,,,,,,
,,,,1,1.1467,,,,,,155,carrot,cookie,,90317,001,2022-04-29_14h02.27.153,SPAMnetsValid,2021.1.4,Win32,59.94125757,,,,,,,,,,,,,1,1.1467,0,96,96,38,1,,,,,,,,,,,,,,,,,,,,,,,,,,,,,,,,,,,,,,,,,,,,,,,,,,,,,,,,,,,,,,,,,,,,,,
,,,,,,,,,,,,,,,90317,001,2022-04-29_14h02.27.153,SPAMnetsValid,2021.1.4,Win32,59.94125757,,,,,,,,,,,,,,,,,,,,0,0,0,0,1,,,,,,,,,,,,,,,,,,,,,,,,,,,,,,,,,,,,,,,,,,,,,,,,,,,,,,,,,,,,,,,,,
,,,,,,,,,,,,,,,90317,001,2022-04-29_14h02.27.153,SPAMnetsValid,2021.1.4,Win32,59.94125757,,,,,,0,1,1,1,1,0,1,,,,,,,,,,,,,,,,,,,,,,,,,,,,,,,,,,,,,,,,,,,,,,,,,,,,,,,,,,,,,,,,,,,,,,,,,,,,,
,,,,,,,,,,,,,,,90317,001,2022-04-29_14h02.27.153,SPAMnetsValid,2021.1.4,Win32,59.94125757,,,,,,,,,,,,,,,,,,,,,,,,,2,1.8073,0,0,0,0,1,rancor,forbearance,ridicule,malice,bravery,3,,,,,,,,,,,,,,,,,,,,,,,,,,,,,,,,,,,,,,,,,,,,,,,,,,,,
,,,,,,,,,,,,,,,90317,001,2022-04-29_14h02.27.153,SPAMnetsValid,2021.1.4,Win32,59.94125757,,,,,,,,,,,,,,,,,,,,,,,,,1,2.1892,0,1,1,1,1,raucous,empty,quiet,smooth,harsh,4,,,,,,,,,,,,,,,,,,,,,,,,,,,,,,,,,,,,,,,,,,,,,,,,,,,,
,,,,,,,,,,,,,,,90317,001,2022-04-29_14h02.27.153,SPAMnetsValid,2021.1.4,Win32,59.94125757,,,,,,,,,,,,,,,,,,,,,,,,,3,1.626,0,2,2,2,1,gargoyle,oil,medicine,carved waterspout,ugly building,3,,,,,,,,,,,,,,,,,,,,,,,,,,,,,,,,,,,,,,,,,,,,,,,,,,,,
,,,,,,,,,,,,,,,90317,001,2022-04-29_14h02.27.153,SPAMnetsValid,2021.1.4,Win32,59.94125757,,,,,,,,,,,,,,,,,,,,,,,,,3,2.6273,0,3,3,3,1,recrudesce,purify,renew activity,lack refinement,crush,2,,,,,,,,,,,,,,,,,,,,,,,,,,,,,,,,,,,,,,,,,,,,,,,,,,,,
,,,,,,,,,,,,,,,90317,001,2022-04-29_14h02.27.153,SPAMnetsValid,2021.1.4,Win32,59.94125757,,,,,,,,,,,,,,,,,,,,,,,,,1,1.6591,0,4,4,4,1,specious,"plausible, but not genuine",noteworthy,class or variety,roomy,1,,,,,,,,,,,,,,,,,,,,,,,,,,,,,,,,,,,,,,,,,,,,,,,,,,,,
,,,,,,,,,,,,,,,90317,001,2022-04-29_14h02.27.153,SPAMnetsValid,2021.1.4,Win32,59.94125757,,,,,,,,,,,,,,,,,,,,,,,,,3,2.2246,0,5,5,5,1,bauble,bubble,showy plaything,idle talk,confusion,2,,,,,,,,,,,,,,,,,,,,,,,,,,,,,,,,,,,,,,,,,,,,,,,,,,,,
,,,,,,,,,,,,,,,90317,001,2022-04-29_14h02.27.153,SPAMnetsValid,2021.1.4,Win32,59.94125757,,,,,,,,,,,,,,,,,,,,,,,,,2,3.0427,0,6,6,6,1,prolific,scarce,producing abundantly,reckless,speaking profanely,2,,,,,,,,,,,,,,,,,,,,,,,,,,,,,,,,,,,,,,,,,,,,,,,,,,,,
,,,,,,,,,,,,,,,90317,001,2022-04-29_14h02.27.153,SPAMnetsValid,2021.1.4,Win32,59.94125757,,,,,,,,,,,,,,,,,,,,,,,,,4,1.8479,0,7,7,7,1,opulent,party,wealthy,happy frame of mind,semiprecious stone,2,,,,,,,,,,,,,,,,,,,,,,,,,,,,,,,,,,,,,,,,,,,,,,,,,,,,
,,,,,,,,,,,,,,,90317,001,2022-04-29_14h02.27.153,SPAMnetsValid,2021.1.4,Win32,59.94125757,,,,,,,,,,,,,,,,,,,,,,,,,1,1.7665,0,8,8,8,1,coercion,conspiracy,strategy,restraint,attraction,3,,,,,,,,,,,,,,,,,,,,,,,,,,,,,,,,,,,,,,,,,,,,,,,,,,,,
,,,,,,,,,,,,,,,90317,001,2022-04-29_14h02.27.153,SPAMnetsValid,2021.1.4,Win32,59.94125757,,,,,,,,,,,,,,,,,,,,,,,,,4,1.8259,0,9,9,9,1,hiatus,animal,calamity,dread,gap,4,,,,,,,,,,,,,,,,,,,,,,,,,,,,,,,,,,,,,,,,,,,,,,,,,,,,
,,,,,,,,,,,,,,,90317,001,2022-04-29_14h02.27.153,SPAMnetsValid,2021.1.4,Win32,59.94125757,,,,,,,,,,,,,,,,,,,,,,,,,3,2.3572,0,10,10,10,1,germane,microbe,contagious,relevant,different,3,,,,,,,,,,,,,,,,,,,,,,,,,,,,,,,,,,,,,,,,,,,,,,,,,,,,
,,,,,,,,,,,,,,,90317,001,2022-04-29_14h02.27.153,SPAMnetsValid,2021.1.4,Win32,59.94125757,,,,,,,,,,,,,,,,,,,,,,,,,1,1.758,0,11,11,11,1,perfunctory,fundamental,formal,superficial,careful,3,,,,,,,,,,,,,,,,,,,,,,,,,,,,,,,,,,,,,,,,,,,,,,,,,,,,
,,,,,,,,,,,,,,,90317,001,2022-04-29_14h02.27.153,SPAMnetsValid,2021.1.4,Win32,59.94125757,,,,,,,,,,,,,,,,,,,,,,,,,4,1.1955,0,12,12,12,1,diverge,reveal,chant,distract the attention of,differ or turn off from,4,,,,,,,,,,,,,,,,,,,,,,,,,,,,,,,,,,,,,,,,,,,,,,,,,,,,
,,,,,,,,,,,,,,,90317,001,2022-04-29_14h02.27.153,SPAMnetsValid,2021.1.4,Win32,59.94125757,,,,,,,,,,,,,,,,,,,,,,,,,4,1.6893,0,13,13,13,1,evoke,take away,anger,connect,bring out,4,,,,,,,,,,,,,,,,,,,,,,,,,,,,,,,,,,,,,,,,,,,,,,,,,,,,
,,,,,,,,,,,,,,,90317,001,2022-04-29_14h02.27.153,SPAMnetsValid,2021.1.4,Win32,59.94125757,,,,,,,,,,,,,,,,,,,,,,,,,1,2.1774,0,14,14,14,1,pertinent,relevant,lying next to,necessary,bold,1,,,,,,,,,,,,,,,,,,,,,,,,,,,,,,,,,,,,,,,,,,,,,,,,,,,,
,,,,,,,,,,,,,,,90317,001,2022-04-29_14h02.27.153,SPAMnetsValid,2021.1.4,Win32,59.94125757,,,,,,,,,,,,,,,,,,,,,,,,,2,1.2428,0,15,15,15,1,holocaust,entirety,destruction,saintly,price,2,,,,,,,,,,,,,,,,,,,,,,,,,,,,,,,,,,,,,,,,,,,,,,,,,,,,
,,,,,,,,,,,,,,,90317,001,2022-04-29_14h02.27.153,SPAMnetsValid,2021.1.4,Win32,59.94125757,,,,,,,,,,,,,,,,,,,,,,,,,1,1.6211,0,16,16,16,1,piquant,mellow,fish,pungent,cloth,3,,,,,,,,,,,,,,,,,,,,,,,,,,,,,,,,,,,,,,,,,,,,,,,,,,,,
,,,,,,,,,,,,,,,90317,001,2022-04-29_14h02.27.153,SPAMnetsValid,2021.1.4,Win32,59.94125757,,,,,,,,,,,,,,,,,,,,,,,,,1,2.1167,0,17,17,17,1,firmament,foundation,heavens,strong,glue,2,,,,,,,,,,,,,,,,,,,,,,,,,,,,,,,,,,,,,,,,,,,,,,,,,,,,
,,,,,,,,,,,,,,,90317,001,2022-04-29_14h02.27.153,SPAMnetsValid,2021.1.4,Win32,59.94125757,,,,,,,,,,,,,,,,,,,,,,,,,,,,,,,,,,,,,,5,2.906,0,0,0,0,1,marketable,partisan,jocular,marriageable,salable,essential,4,,,,,,,,,,,,,,,,,,,,,,,,,,,,,,,,,,,,,,
,,,,,,,,,,,,,,,90317,001,2022-04-29_14h02.27.153,SPAMnetsValid,2021.1.4,Win32,59.94125757,,,,,,,,,,,,,,,,,,,,,,,,,,,,,,,,,,,,,,5,2.358,0,1,1,1,1,cottontail,squirrel,poplar,boa,marshy plant,rabbit,5,,,,,,,,,,,,,,,,,,,,,,,,,,,,,,,,,,,,,,
,,,,,,,,,,,,,,,90317,001,2022-04-29_14h02.27.153,SPAMnetsValid,2021.1.4,Win32,59.94125757,,,,,,,,,,,,,,,,,,,,,,,,,,,,,,,,,,,,,,3,1.0745,0,2,2,2,1,boggy,afraid,false,marshy,dense,black,3,,,,,,,,,,,,,,,,,,,,,,,,,,,,,,,,,,,,,,
,,,,,,,,,,,,,,,90317,001,2022-04-29_14h02.27.153,SPAMnetsValid,2021.1.4,Win32,59.94125757,,,,,,,,,,,,,,,,,,,,,,,,,,,,,,,,,,,,,,5,2.6431,0,3,3,3,1,gruesomeness,blackness,falseness,vindictiveness,drunkenness,ghastliness,5,,,,,,,,,,,,,,,,,,,,,,,,,,,,,,,,,,,,,,
,,,,,,,,,,,,,,,90317,001,2022-04-29_14h02.27.153,SPAMnetsValid,2021.1.4,Win32,59.94125757,,,,,,,,,,,,,,,,,,,,,,,,,,,,,,,,,,,,,,2,1.7644,0,4,4,4,1,loathing,diffidence,laziness,abhorrence,cleverness,comfort,3,,,,,,,,,,,,,,,,,,,,,,,,,,,,,,,,,,,,,,
,,,,,,,,,,,,,,,90317,001,2022-04-29_14h02.27.153,SPAMnetsValid,2021.1.4,Win32,59.94125757,,,,,,,,,,,,,,,,,,,,,,,,,,,,,,,,,,,,,,2,1.5385,0,5,5,5,1,bantam,fowl,ridicule,cripple,vegetable,ensign,1,,,,,,,,,,,,,,,,,,,,,,,,,,,,,,,,,,,,,,
,,,,,,,,,,,,,,,90317,001,2022-04-29_14h02.27.153,SPAMnetsValid,2021.1.4,Win32,59.94125757,,,,,,,,,,,,,,,,,,,,,,,,,,,,,,,,,,,,,,5,2.1111,0,6,6,6,1,evoke,wake up,surrender,reconnoiter,transcend,call forth,5,,,,,,,,,,,,,,,,,,,,,,,,,,,,,,,,,,,,,,
,,,,,,,,,,,,,,,90317,001,2022-04-29_14h02.27.153,SPAMnetsValid,2021.1.4,Win32,59.94125757,,,,,,,,,,,,,,,,,,,,,,,,,,,,,,,,,,,,,,3,3.8143,0,7,7,7,1,unobtrusive,unintelligent,epileptic,illogical,lineal,modest,5,,,,,,,,,,,,,,,,,,,,,,,,,,,,,,,,,,,,,,
,,,,,,,,,,,,,,,90317,001,2022-04-29_14h02.27.153,SPAMnetsValid,2021.1.4,Win32,59.94125757,,,,,,,,,,,,,,,,,,,,,,,,,,,,,,,,,,,,,,4,1.5536,0,8,8,8,1,terrain,ice cream,final test,tractor,area of ground,weight,4,,,,,,,,,,,,,,,,,,,,,,,,,,,,,,,,,,,,,,
,,,,,,,,,,,,,,,90317,001,2022-04-29_14h02.27.153,SPAMnetsValid,2021.1.4,Win32,59.94125757,,,,,,,,,,,,,,,,,,,,,,,,,,,,,,,,,,,,,,2,1.59,0,9,9,9,1,capriciousness,stubbornness,courage,whimsicality,amazement,greediness,3,,,,,,,,,,,,,,,,,,,,,,,,,,,,,,,,,,,,,,
,,,,,,,,,,,,,,,90317,001,2022-04-29_14h02.27.153,SPAMnetsValid,2021.1.4,Win32,59.94125757,,,,,,,,,,,,,,,,,,,,,,,,,,,,,,,,,,,,,,2,1.7926,0,10,10,10,1,maelstrom,slander,whirlpool,enmity,armor,majolica,2,,,,,,,,,,,,,,,,,,,,,,,,,,,,,,,,,,,,,,
,,,,,,,,,,,,,,,90317,001,2022-04-29_14h02.27.153,SPAMnetsValid,2021.1.4,Win32,59.94125757,,,,,,,,,,,,,,,,,,,,,,,,,,,,,,,,,,,,,,4,4.8606,0,11,11,11,1,tentative,critical,conclusive,authentic,provisional,apprehensive,4,,,,,,,,,,,,,,,,,,,,,,,,,,,,,,,,,,,,,,
,,,,,,,,,,,,,,,90317,001,2022-04-29_14h02.27.153,SPAMnetsValid,2021.1.4,Win32,59.94125757,,,,,,,,,,,,,,,,,,,,,,,,,,,,,,,,,,,,,,2,2.7669,0,12,12,12,1,placate,rehabilitate,plagiarize,depredate,apprise,conciliate,5,,,,,,,,,,,,,,,,,,,,,,,,,,,,,,,,,,,,,,
,,,,,,,,,,,,,,,90317,001,2022-04-29_14h02.27.153,SPAMnetsValid,2021.1.4,Win32,59.94125757,,,,,,,,,,,,,,,,,,,,,,,,,,,,,,,,,,,,,,4,3.5474,0,13,13,13,1,surcease,enlightenment,cessation,inattention,censor,substitution,2,,,,,,,,,,,,,,,,,,,,,,,,,,,,,,,,,,,,,,
,,,,,,,,,,,,,,,90317,001,2022-04-29_14h02.27.153,SPAMnetsValid,2021.1.4,Win32,59.94125757,,,,,,,,,,,,,,,,,,,,,,,,,,,,,,,,,,,,,,3,3.3436,0,14,14,14,1,apathetic,wandering,impassive,hateful,prophetic,overflowing,2,,,,,,,,,,,,,,,,,,,,,,,,,,,,,,,,,,,,,,
,,,,,,,,,,,,,,,90317,001,2022-04-29_14h02.27.153,SPAMnetsValid,2021.1.4,Win32,59.94125757,,,,,,,,,,,,,,,,,,,,,,,,,,,,,,,,,,,,,,2,2.6577,0,15,15,15,1,paternoster,paternalism,patricide,malediction,benediction,prayer,5,,,,,,,,,,,,,,,,,,,,,,,,,,,,,,,,,,,,,,
,,,,,,,,,,,,,,,90317,001,2022-04-29_14h02.27.153,SPAMnetsValid,2021.1.4,Win32,59.94125757,,,,,,,,,,,,,,,,,,,,,,,,,,,,,,,,,,,,,,5,4.019,0,16,16,16,1,opalescence,opulence,senescence,bankruptcy,iridescence,assiduity,4,,,,,,,,,,,,,,,,,,,,,,,,,,,,,,,,,,,,,,
,,,,,,,,,,,,,,,90317,001,2022-04-29_14h02.27.153,SPAMnetsValid,2021.1.4,Win32,59.94125757,,,,,,,,,,,,,,,,,,,,,,,,,,,,,,,,,,,,,,2,1.738,0,17,17,17,1,lush,stupid,luxurious,hazy,putrid,languishing,2,,,,,,,,,,,,,,,,,,,,,,,,,,,,,,,,,,,,,,
,,,,,,,,,,,,,,,90317,001,2022-04-29_14h02.27.153,SPAMnetsValid,2021.1.4,Win32,59.94125757,,,,,,,,,,,,,,,,,,,,,,,,,,,,,,,,,,,,,,2,1.5092,0,18,18,18,1,curtailment,expenditure,abandonment,abridgment,improvement,forgery,3,,,,,,,,,,,,,,,,,,,,,,,,,,,,,,,,,,,,,,
,,,,,,,,,,,,,,,90317,001,2022-04-29_14h02.27.153,SPAMnetsValid,2021.1.4,Win32,59.94125757,,,,,,,,,,,,,,,,,,,,,,,,,,,,,,,,,,,,,,3,1.5417,0,19,19,19,1,perversity,adversity,perviousness,travesty,waywardness,gentility,4,,,,,,,,,,,,,,,,,,,,,,,,,,,,,,,,,,,,,,
,,,,,,,,,,,,,,,90317,001,2022-04-29_14h02.27.153,SPAMnetsValid,2021.1.4,Win32,59.94125757,,,,,,,,,,,,,,,,,,,,,,,,,,,,,,,,,,,,,,1,1.3371,0,20,20,20,1,calumnious,complimentary,analogous,slanderous,tempestuous,magnanimous,3,,,,,,,,,,,,,,,,,,,,,,,,,,,,,,,,,,,,,,
,,,,,,,,,,,,,,,90317,001,2022-04-29_14h02.27.153,SPAMnetsValid,2021.1.4,Win32,59.94125757,,,,,,,,,,,,,,,,,,,,,,,,,,,,,,,,,,,,,,1,2.3492,0,21,21,21,1,illiberality,bigotry,imbecility,illegibility,cautery,immaturity,1,,,,,,,,,,,,,,,,,,,,,,,,,,,,,,,,,,,,,,
,,,,,,,,,,,,,,,90317,001,2022-04-29_14h02.27.153,SPAMnetsValid,2021.1.4,Win32,59.94125757,,,,,,,,,,,,,,,,,,,,,,,,,,,,,,,,,,,,,,2,1.2404,0,22,22,22,1,clabber,rejoice,gossip,curdle,crow,hobble,3,,,,,,,,,,,,,,,,,,,,,,,,,,,,,,,,,,,,,,
,,,,,,,,,,,,,,,90317,001,2022-04-29_14h02.27.153,SPAMnetsValid,2021.1.4,Win32,59.94125757,,,,,,,,,,,,,,,,,,,,,,,,,,,,,,,,,,,,,,4,2.3493,0,23,23,23,1,sedulousness,diligence,credulousness,seduction,perilousness,frankness,1,,,,,,,,,,,,,,,,,,,,,,,,,,,,,,,,,,,,,,
,,,,,,,,,,,,,,,90317,001,2022-04-29_14h02.27.153,SPAMnetsValid,2021.1.4,Win32,59.94125757,,,,,,,,,,,,,,,,,,,,,,,,,,,,,,,,,,,,,,,,,,,,,,,,,,,,light the dark,candle,0,0,0,0,1,,,,,,,,,,,,,,,,,,,,,,,,,,,,,,,
,,,,,,,,,,,,,,,90317,001,2022-04-29_14h02.27.153,SPAMnetsValid,2021.1.4,Win32,59.94125757,,,,,,,,,,,,,,,,,,,,,,,,,,,,,,,,,,,,,,,,,,,,,,,,,,,,romantic setting,candle,1,0,1,0,1,,,,,,,,,,,,,,,,,,,,,,,,,,,,,,,
,,,,,,,,,,,,,,,90317,001,2022-04-29_14h02.27.153,SPAMnetsValid,2021.1.4,Win32,59.94125757,,,,,,,,,,,,,,,,,,,,,,,,,,,,,,,,,,,,,,,,,,,,,,,,,,,,religious event,candle,2,0,2,0,1,,,,,,,,,,,,,,,,,,,,,,,,,,,,,,,
,,,,,,,,,,,,,,,90317,001,2022-04-29_14h02.27.153,SPAMnetsValid,2021.1.4,Win32,59.94125757,,,,,,,,,,,,,,,,,,,,,,,,,,,,,,,,,,,,,,,,,,,,,,,,,,,,use the wax to seal a letter,candle,3,0,3,0,1,,,,,,,,,,,,,,,,,,,,,,,,,,,,,,,
,,,,,,,,,,,,,,,90317,001,2022-04-29_14h02.27.153,SPAMnetsValid,2021.1.4,Win32,59.94125757,,,,,,,,,,,,,,,,,,,,,,,,,,,,,,,,,,,,,,,,,,,,,,,,,,,,scary stories,candle,4,0,4,0,1,,,,,,,,,,,,,,,,,,,,,,,,,,,,,,,
,,,,,,,,,,,,,,,90317,001,2022-04-29_14h02.27.153,SPAMnetsValid,2021.1.4,Win32,59.94125757,,,,,,,,,,,,,,,,,,,,,,,,,,,,,,,,,,,,,,,,,,,,,,,,,,,,,,,,,,,0,0,0,1,1,candle,,,,,,,,,,,,,,,,,,,,,,,,,
,,,,,,,,,,,,,,,90317,001,2022-04-29_14h02.27.153,SPAMnetsValid,2021.1.4,Win32,59.94125757,,,,,,,,,,,,,,,,,,,,,,,,,,,,,,,,,,,,,,,,,,,,,,,,,,,,sand castlre,bucket,0,0,0,0,1,,,,,,,,,,,,,,,,,,,,,,,,,,,,,,,
,,,,,,,,,,,,,,,90317,001,2022-04-29_14h02.27.153,SPAMnetsValid,2021.1.4,Win32,59.94125757,,,,,,,,,,,,,,,,,,,,,,,,,,,,,,,,,,,,,,,,,,,,,,,,,,,,stepping stool,bucket,1,0,1,0,1,,,,,,,,,,,,,,,,,,,,,,,,,,,,,,,
,,,,,,,,,,,,,,,90317,001,2022-04-29_14h02.27.153,SPAMnetsValid,2021.1.4,Win32,59.94125757,,,,,,,,,,,,,,,,,,,,,,,,,,,,,,,,,,,,,,,,,,,,,,,,,,,,helmet for a kid playing pretend,bucket,2,0,2,0,1,,,,,,,,,,,,,,,,,,,,,,,,,,,,,,,
,,,,,,,,,,,,,,,90317,001,2022-04-29_14h02.27.153,SPAMnetsValid,2021.1.4,Win32,59.94125757,,,,,,,,,,,,,,,,,,,,,,,,,,,,,,,,,,,,,,,,,,,,,,,,,,,,collecting items,bucket,3,0,3,0,1,,,,,,,,,,,,,,,,,,,,,,,,,,,,,,,
,,,,,,,,,,,,,,,90317,001,2022-04-29_14h02.27.153,SPAMnetsValid,2021.1.4,Win32,59.94125757,,,,,,,,,,,,,,,,,,,,,,,,,,,,,,,,,,,,,,,,,,,,,,,,,,,,to play the drums,bucket,4,0,4,0,1,,,,,,,,,,,,,,,,,,,,,,,,,,,,,,,
,,,,,,,,,,,,,,,90317,001,2022-04-29_14h02.27.153,SPAMnetsValid,2021.1.4,Win32,59.94125757,,,,,,,,,,,,,,,,,,,,,,,,,,,,,,,,,,,,,,,,,,,,,,,,,,,,,,,,,,,0,1,1,0,1,bucket,,,,,,,,,,,,,,,,,,,,,,,,,
,,,,,,,,,,,,,,,90317,001,2022-04-29_14h02.27.153,SPAMnetsValid,2021.1.4,Win32,59.94125757,,,,,,,,,,,,,,,,,,,,,,,,,,,,,,,,,,,,,,,,,,,,,,,,,,,,pillow fight,pillow,0,0,0,0,1,,,,,,,,,,,,,,,,,,,,,,,,,,,,,,,
,,,,,,,,,,,,,,,90317,001,2022-04-29_14h02.27.153,SPAMnetsValid,2021.1.4,Win32,59.94125757,,,,,,,,,,,,,,,,,,,,,,,,,,,,,,,,,,,,,,,,,,,,,,,,,,,,sleep,pillow,1,0,1,0,1,,,,,,,,,,,,,,,,,,,,,,,,,,,,,,,
,,,,,,,,,,,,,,,90317,001,2022-04-29_14h02.27.153,SPAMnetsValid,2021.1.4,Win32,59.94125757,,,,,,,,,,,,,,,,,,,,,,,,,,,,,,,,,,,,,,,,,,,,,,,,,,,,to get your anger out,pillow,2,0,2,0,1,,,,,,,,,,,,,,,,,,,,,,,,,,,,,,,
,,,,,,,,,,,,,,,90317,001,2022-04-29_14h02.27.153,SPAMnetsValid,2021.1.4,Win32,59.94125757,,,,,,,,,,,,,,,,,,,,,,,,,,,,,,,,,,,,,,,,,,,,,,,,,,,,decoration,pillow,3,0,3,0,1,,,,,,,,,,,,,,,,,,,,,,,,,,,,,,,
,,,,,,,,,,,,,,,90317,001,2022-04-29_14h02.27.153,SPAMnetsValid,2021.1.4,Win32,59.94125757,,,,,,,,,,,,,,,,,,,,,,,,,,,,,,,,,,,,,,,,,,,,,,,,,,,,,,,,,,,0,2,2,2,1,pillow,,,,,,,,,,,,,,,,,,,,,,,,,
,,,,,,,,,,,,,,,90317,001,2022-04-29_14h02.27.153,SPAMnetsValid,2021.1.4,Win32,59.94125757,,,,,,,,,,,,,,,,,,,,,,,,,,,,,,,,,,,,,,,,,,,,,,,,,,,,,,,,,,,,,,,,,lion,Animals,0,0,0,0,1,,,,,,,,,,,,,,,,,,
,,,,,,,,,,,,,,,90317,001,2022-04-29_14h02.27.153,SPAMnetsValid,2021.1.4,Win32,59.94125757,,,,,,,,,,,,,,,,,,,,,,,,,,,,,,,,,,,,,,,,,,,,,,,,,,,,,,,,,,,,,,,,,bear,Animals,1,0,1,0,1,,,,,,,,,,,,,,,,,,
,,,,,,,,,,,,,,,90317,001,2022-04-29_14h02.27.153,SPAMnetsValid,2021.1.4,Win32,59.94125757,,,,,,,,,,,,,,,,,,,,,,,,,,,,,,,,,,,,,,,,,,,,,,,,,,,,,,,,,,,,,,,,,wold,Animals,2,0,2,0,1,,,,,,,,,,,,,,,,,,
,,,,,,,,,,,,,,,90317,001,2022-04-29_14h02.27.153,SPAMnetsValid,2021.1.4,Win32,59.94125757,,,,,,,,,,,,,,,,,,,,,,,,,,,,,,,,,,,,,,,,,,,,,,,,,,,,,,,,,,,,,,,,,wol,Animals,3,0,3,0,1,,,,,,,,,,,,,,,,,,
,,,,,,,,,,,,,,,90317,001,2022-04-29_14h02.27.153,SPAMnetsValid,2021.1.4,Win32,59.94125757,,,,,,,,,,,,,,,,,,,,,,,,,,,,,,,,,,,,,,,,,,,,,,,,,,,,,,,,,,,,,,,,,wolf,Animals,4,0,4,0,1,,,,,,,,,,,,,,,,,,
,,,,,,,,,,,,,,,90317,001,2022-04-29_14h02.27.153,SPAMnetsValid,2021.1.4,Win32,59.94125757,,,,,,,,,,,,,,,,,,,,,,,,,,,,,,,,,,,,,,,,,,,,,,,,,,,,,,,,,,,,,,,,,zebra,Animals,5,0,5,0,1,,,,,,,,,,,,,,,,,,
,,,,,,,,,,,,,,,90317,001,2022-04-29_14h02.27.153,SPAMnetsValid,2021.1.4,Win32,59.94125757,,,,,,,,,,,,,,,,,,,,,,,,,,,,,,,,,,,,,,,,,,,,,,,,,,,,,,,,,,,,,,,,,giraffe,Animals,6,0,6,0,1,,,,,,,,,,,,,,,,,,
,,,,,,,,,,,,,,,90317,001,2022-04-29_14h02.27.153,SPAMnetsValid,2021.1.4,Win32,59.94125757,,,,,,,,,,,,,,,,,,,,,,,,,,,,,,,,,,,,,,,,,,,,,,,,,,,,,,,,,,,,,,,,,penguin,Animals,7,0,7,0,1,,,,,,,,,,,,,,,,,,
,,,,,,,,,,,,,,,90317,001,2022-04-29_14h02.27.153,SPAMnetsValid,2021.1.4,Win32,59.94125757,,,,,,,,,,,,,,,,,,,,,,,,,,,,,,,,,,,,,,,,,,,,,,,,,,,,,,,,,,,,,,,,,owl,Animals,8,0,8,0,1,,,,,,,,,,,,,,,,,,
,,,,,,,,,,,,,,,90317,001,2022-04-29_14h02.27.153,SPAMnetsValid,2021.1.4,Win32,59.94125757,,,,,,,,,,,,,,,,,,,,,,,,,,,,,,,,,,,,,,,,,,,,,,,,,,,,,,,,,,,,,,,,,cobra,Animals,9,0,9,0,1,,,,,,,,,,,,,,,,,,
,,,,,,,,,,,,,,,90317,001,2022-04-29_14h02.27.153,SPAMnetsValid,2021.1.4,Win32,59.94125757,,,,,,,,,,,,,,,,,,,,,,,,,,,,,,,,,,,,,,,,,,,,,,,,,,,,,,,,,,,,,,,,,monkey,Animals,10,0,10,0,1,,,,,,,,,,,,,,,,,,
,,,,,,,,,,,,,,,90317,001,2022-04-29_14h02.27.153,SPAMnetsValid,2021.1.4,Win32,59.94125757,,,,,,,,,,,,,,,,,,,,,,,,,,,,,,,,,,,,,,,,,,,,,,,,,,,,,,,,,,,,,,,,,chimp,Animals,11,0,11,0,1,,,,,,,,,,,,,,,,,,
,,,,,,,,,,,,,,,90317,001,2022-04-29_14h02.27.153,SPAMnetsValid,2021.1.4,Win32,59.94125757,,,,,,,,,,,,,,,,,,,,,,,,,,,,,,,,,,,,,,,,,,,,,,,,,,,,,,,,,,,,,,,,,frog,Animals,12,0,12,0,1,,,,,,,,,,,,,,,,,,
,,,,,,,,,,,,,,,90317,001,2022-04-29_14h02.27.153,SPAMnetsValid,2021.1.4,Win32,59.94125757,,,,,,,,,,,,,,,,,,,,,,,,,,,,,,,,,,,,,,,,,,,,,,,,,,,,,,,,,,,,,,,,,rat,Animals,13,0,13,0,1,,,,,,,,,,,,,,,,,,
,,,,,,,,,,,,,,,90317,001,2022-04-29_14h02.27.153,SPAMnetsValid,2021.1.4,Win32,59.94125757,,,,,,,,,,,,,,,,,,,,,,,,,,,,,,,,,,,,,,,,,,,,,,,,,,,,,,,,,,,,,,,,,cat,Animals,14,0,14,0,1,,,,,,,,,,,,,,,,,,
,,,,,,,,,,,,,,,90317,001,2022-04-29_14h02.27.153,SPAMnetsValid,2021.1.4,Win32,59.94125757,,,,,,,,,,,,,,,,,,,,,,,,,,,,,,,,,,,,,,,,,,,,,,,,,,,,,,,,,,,,,,,,,dog,Animals,15,0,15,0,1,,,,,,,,,,,,,,,,,,
,,,,,,,,,,,,,,,90317,001,2022-04-29_14h02.27.153,SPAMnetsValid,2021.1.4,Win32,59.94125757,,,,,,,,,,,,,,,,,,,,,,,,,,,,,,,,,,,,,,,,,,,,,,,,,,,,,,,,,,,,,,,,,mouse,Animals,16,0,16,0,1,,,,,,,,,,,,,,,,,,
,,,,,,,,,,,,,,,90317,001,2022-04-29_14h02.27.153,SPAMnetsValid,2021.1.4,Win32,59.94125757,,,,,,,,,,,,,,,,,,,,,,,,,,,,,,,,,,,,,,,,,,,,,,,,,,,,,,,,,,,,,,,,,alligator,Animals,17,0,17,0,1,,,,,,,,,,,,,,,,,,
,,,,,,,,,,,,,,,90317,001,2022-04-29_14h02.27.153,SPAMnetsValid,2021.1.4,Win32,59.94125757,,,,,,,,,,,,,,,,,,,,,,,,,,,,,,,,,,,,,,,,,,,,,,,,,,,,,,,,,,,,,,,,,crocodile,Animals,18,0,18,0,1,,,,,,,,,,,,,,,,,,
,,,,,,,,,,,,,,,90317,001,2022-04-29_14h02.27.153,SPAMnetsValid,2021.1.4,Win32,59.94125757,,,,,,,,,,,,,,,,,,,,,,,,,,,,,,,,,,,,,,,,,,,,,,,,,,,,,,,,,,,,,,,,,penguin,Animals,19,0,19,0,1,,,,,,,,,,,,,,,,,,
,,,,,,,,,,,,,,,90317,001,2022-04-29_14h02.27.153,SPAMnetsValid,2021.1.4,Win32,59.94125757,,,,,,,,,,,,,,,,,,,,,,,,,,,,,,,,,,,,,,,,,,,,,,,,,,,,,,,,,,,,,,,,,puma,Animals,20,0,20,0,1,,,,,,,,,,,,,,,,,,
,,,,,,,,,,,,,,,90317,001,2022-04-29_14h02.27.153,SPAMnetsValid,2021.1.4,Win32,59.94125757,,,,,,,,,,,,,,,,,,,,,,,,,,,,,,,,,,,,,,,,,,,,,,,,,,,,,,,,,,,,,,,,,cougar,Animals,21,0,21,0,1,,,,,,,,,,,,,,,,,,
,,,,,,,,,,,,,,,90317,001,2022-04-29_14h02.27.153,SPAMnetsValid,2021.1.4,Win32,59.94125757,,,,,,,,,,,,,,,,,,,,,,,,,,,,,,,,,,,,,,,,,,,,,,,,,,,,,,,,,,,,,,,,,snake,Animals,22,0,22,0,1,,,,,,,,,,,,,,,,,,
,,,,,,,,,,,,,,,90317,001,2022-04-29_14h02.27.153,SPAMnetsValid,2021.1.4,Win32,59.94125757,,,,,,,,,,,,,,,,,,,,,,,,,,,,,,,,,,,,,,,,,,,,,,,,,,,,,,,,,,,,,,,,,deer,Animals,23,0,23,0,1,,,,,,,,,,,,,,,,,,
,,,,,,,,,,,,,,,90317,001,2022-04-29_14h02.27.153,SPAMnetsValid,2021.1.4,Win32,59.94125757,,,,,,,,,,,,,,,,,,,,,,,,,,,,,,,,,,,,,,,,,,,,,,,,,,,,,,,,,,,,,,,,,antelope,Animals,24,0,24,0,1,,,,,,,,,,,,,,,,,,
,,,,,,,,,,,,,,,90317,001,2022-04-29_14h02.27.153,SPAMnetsValid,2021.1.4,Win32,59.94125757,,,,,,,,,,,,,,,,,,,,,,,,,,,,,,,,,,,,,,,,,,,,,,,,,,,,,,,,,,,,,,,,,bison,Animals,25,0,25,0,1,,,,,,,,,,,,,,,,,,
,,,,,,,,,,,,,,,90317,001,2022-04-29_14h02.27.153,SPAMnetsValid,2021.1.4,Win32,59.94125757,,,,,,,,,,,,,,,,,,,,,,,,,,,,,,,,,,,,,,,,,,,,,,,,,,,,,,,,,,,,,,,,,duck,Animals,26,0,26,0,1,,,,,,,,,,,,,,,,,,
,,,,,,,,,,,,,,,90317,001,2022-04-29_14h02.27.153,SPAMnetsValid,2021.1.4,Win32,59.94125757,,,,,,,,,,,,,,,,,,,,,,,,,,,,,,,,,,,,,,,,,,,,,,,,,,,,,,,,,,,,,,,,,eagle,Animals,27,0,27,0,1,,,,,,,,,,,,,,,,,,
,,,,,,,,,,,,,,,90317,001,2022-04-29_14h02.27.153,SPAMnetsValid,2021.1.4,Win32,59.94125757,,,,,,,,,,,,,,,,,,,,,,,,,,,,,,,,,,,,,,,,,,,,,,,,,,,,,,,,,,,,,,,,,falcon,Animals,28,0,28,0,1,,,,,,,,,,,,,,,,,,
,,,,,,,,,,,,,,,90317,001,2022-04-29_14h02.27.153,SPAMnetsValid,2021.1.4,Win32,59.94125757,,,,,,,,,,,,,,,,,,,,,,,,,,,,,,,,,,,,,,,,,,,,,,,,,,,,,,,,,,,,,,,,,cardinal,Animals,29,0,29,0,1,,,,,,,,,,,,,,,,,,
,,,,,,,,,,,,,,,90317,001,2022-04-29_14h02.27.153,SPAMnetsValid,2021.1.4,Win32,59.94125757,,,,,,,,,,,,,,,,,,,,,,,,,,,,,,,,,,,,,,,,,,,,,,,,,,,,,,,,,,,,,,,,,horse,Animals,30,0,30,0,1,,,,,,,,,,,,,,,,,,
,,,,,,,,,,,,,,,90317,001,2022-04-29_14h02.27.153,SPAMnetsValid,2021.1.4,Win32,59.94125757,,,,,,,,,,,,,,,,,,,,,,,,,,,,,,,,,,,,,,,,,,,,,,,,,,,,,,,,,,,,,,,,,panther,Animals,31,0,31,0,1,,,,,,,,,,,,,,,,,,
,,,,,,,,,,,,,,,90317,001,2022-04-29_14h02.27.153,SPAMnetsValid,2021.1.4,Win32,59.94125757,,,,,,,,,,,,,,,,,,,,,,,,,,,,,,,,,,,,,,,,,,,,,,,,,,,,,,,,,,,,,,,,,raven,Animals,32,0,32,0,1,,,,,,,,,,,,,,,,,,
,,,,,,,,,,,,,,,90317,001,2022-04-29_14h02.27.153,SPAMnetsValid,2021.1.4,Win32,59.94125757,,,,,,,,,,,,,,,,,,,,,,,,,,,,,,,,,,,,,,,,,,,,,,,,,,,,,,,,,,,,,,,,,,,,,,,,0,0,0,0,1,Animals,,,,,,,,,,,,
,,,,,,,,,,,,,,,90317,001,2022-04-29_14h02.27.153,SPAMnetsValid,2021.1.4,Win32,59.94125757,,,,,,,,,,,,,,,,,,,,,,,,,,,,,,,,,,,,,,,,,,,,,,,,,,,,,,,,,,,,,,,,,,,,,,,,,,,,,,3,5.0981,0,0,0,0,1,"I enjoy concentrating on a fantasy or daydream and exploring all its possibilities, letting it grow and develop.",0,1,,
,,,,,,,,,,,,,,,90317,001,2022-04-29_14h02.27.153,SPAMnetsValid,2021.1.4,Win32,59.94125757,,,,,,,,,,,,,,,,,,,,,,,,,,,,,,,,,,,,,,,,,,,,,,,,,,,,,,,,,,,,,,,,,,,,,,,,,,,,,,4,1.7107,0,1,1,1,1,I think it's interesting to learn and develop new hobbies.,0,2,,
,,,,,,,,,,,,,,,90317,001,2022-04-29_14h02.27.153,SPAMnetsValid,2021.1.4,Win32,59.94125757,,,,,,,,,,,,,,,,,,,,,,,,,,,,,,,,,,,,,,,,,,,,,,,,,,,,,,,,,,,,,,,,,,,,,,,,,,,,,,4,1.6911,0,2,2,2,1,I am intrigued by the patterns I find in art and nature.,0,3,,
,,,,,,,,,,,,,,,90317,001,2022-04-29_14h02.27.153,SPAMnetsValid,2021.1.4,Win32,59.94125757,,,,,,,,,,,,,,,,,,,,,,,,,,,,,,,,,,,,,,,,,,,,,,,,,,,,,,,,,,,,,,,,,,,,,,,,,,,,,,3,2.3249,0,3,3,3,1,I believe letting students hear controversial speakers can only confuse and mislead them.,1,4,,
,,,,,,,,,,,,,,,90317,001,2022-04-29_14h02.27.153,SPAMnetsValid,2021.1.4,Win32,59.94125757,,,,,,,,,,,,,,,,,,,,,,,,,,,,,,,,,,,,,,,,,,,,,,,,,,,,,,,,,,,,,,,,,,,,,,,,,,,,,,3,4.4256,0,4,4,4,1,Poetry has little or no effect on me.,1,5,,
,,,,,,,,,,,,,,,90317,001,2022-04-29_14h02.27.153,SPAMnetsValid,2021.1.4,Win32,59.94125757,,,,,,,,,,,,,,,,,,,,,,,,,,,,,,,,,,,,,,,,,,,,,,,,,,,,,,,,,,,,,,,,,,,,,,,,,,,,,,2,2.3593,0,5,5,5,1,I would have difficulty just letting my mind wander without control or guidance.,1,6,,
,,,,,,,,,,,,,,,90317,001,2022-04-29_14h02.27.153,SPAMnetsValid,2021.1.4,Win32,59.94125757,,,,,,,,,,,,,,,,,,,,,,,,,,,,,,,,,,,,,,,,,,,,,,,,,,,,,,,,,,,,,,,,,,,,,,,,,,,,,,3,1.5737,0,6,6,6,1,I seldom notice the moods or feelings that different environments produce.,1,7,,
,,,,,,,,,,,,,,,90317,001,2022-04-29_14h02.27.153,SPAMnetsValid,2021.1.4,Win32,59.94125757,,,,,,,,,,,,,,,,,,,,,,,,,,,,,,,,,,,,,,,,,,,,,,,,,,,,,,,,,,,,,,,,,,,,,,,,,,,,,,3,3.3579,0,7,7,7,1,I experience a wide range of emotions or feelings.,0,8,,
,,,,,,,,,,,,,,,90317,001,2022-04-29_14h02.27.153,SPAMnetsValid,2021.1.4,Win32,59.94125757,,,,,,,,,,,,,,,,,,,,,,,,,,,,,,,,,,,,,,,,,,,,,,,,,,,,,,,,,,,,,,,,,,,,,,,,,,,,,,4,2.828,0,8,8,8,1,"Sometimes when I am reading poetry or looking at a work of art, I feel a chill or wave of excitement.",0,9,,
,,,,,,,,,,,,,,,90317,001,2022-04-29_14h02.27.153,SPAMnetsValid,2021.1.4,Win32,59.94125757,,,,,,,,,,,,,,,,,,,,,,,,,,,,,,,,,,,,,,,,,,,,,,,,,,,,,,,,,,,,,,,,,,,,,,,,,,,,,,2,3.525,0,9,9,9,1,I have little interest in speculating on the nature of the universe or the human condition.,1,10,,
,,,,,,,,,,,,,,,90317,001,2022-04-29_14h02.27.153,SPAMnetsValid,2021.1.4,Win32,59.94125757,,,,,,,,,,,,,,,,,,,,,,,,,,,,,,,,,,,,,,,,,,,,,,,,,,,,,,,,,,,,,,,,,,,,,,,,,,,,,,4,2.0908,0,10,10,10,1,I have a lot of intellectual curiosity.,0,11,,
,,,,,,,,,,,,,,,90317,001,2022-04-29_14h02.27.153,SPAMnetsValid,2021.1.4,Win32,59.94125757,,,,,,,,,,,,,,,,,,,,,,,,,,,,,,,,,,,,,,,,,,,,,,,,,,,,,,,,,,,,,,,,,,,,,,,,,,,,,,4,1.957,0,11,11,11,1,I often enjoy playing with theories or abstract ideas.,0,12,,
,,,,,,,,,,,,,,,90317,001,2022-04-29_14h02.27.153,SPAMnetsValid,2021.1.4,Win32,59.94125757,,,,,,,,,,,,,,,,,,,,,,,,,,,,,,,,,,,,,,,,,,,,,,,,,,,,,,,,,,,,,,,,,,,,,,,,,,,,,,,,,,,,,,,,return,2.1027
