key_resp_3.keys,key_resp_3.rt,slider.response,slider.rt,rjt_rating,rjt_RT,trials_22.thisRepN,trials_22.thisTrialN,trials_22.thisN,trials_22.thisIndex,trials_22.ran,rjt_order,word1,word2,attention,participant,session,date,expName,psychopyVersion,OS,frameRate,trials_99.thisRepN,trials_99.thisTrialN,trials_99.thisN,trials_99.thisIndex,trials_99.ran,trials_5.thisRepN,trials_5.thisTrialN,trials_5.thisN,trials_5.thisIndex,trials_5.ran,repOne,repTwo,slider_2.response,slider_2.rt,trials_24.thisRepN,trials_24.thisTrialN,trials_24.thisN,trials_24.thisIndex,trials_24.ran,trials_4.thisRepN,trials_4.thisTrialN,trials_4.thisN,trials_4.thisIndex,trials_4.ran,slider_extend_2.response,slider_extend_2.rt,trials_6.thisRepN,trials_6.thisTrialN,trials_6.thisN,trials_6.thisIndex,trials_6.ran,vCue2,R1,R2,R3,R4,correct,sliderVocab.response,sliderVocab.rt,trials_7.thisRepN,trials_7.thisTrialN,trials_7.thisN,trials_7.thisIndex,trials_7.ran,VocabCue,VR1,VR2,VR3,VR4,VR5,VocabCorrect,AUT_resp,AUT_label,trials.thisRepN,trials.thisTrialN,trials.thisN,trials.thisIndex,trials.ran,trials_2.thisRepN,trials_2.thisTrialN,trials_2.thisN,trials_2.thisIndex,trials_2.ran,aut_prompt,VF_response,VF_tag,trials_16.thisRepN,trials_16.thisTrialN,trials_16.thisN,trials_16.thisIndex,trials_16.ran,trials_17.thisRepN,trials_17.thisTrialN,trials_17.thisN,trials_17.thisIndex,trials_17.ran,VFcond,open_slider.response,open_slider.rt,trials_3.thisRepN,trials_3.thisTrialN,trials_3.thisN,trials_3.thisIndex,trials_3.ran,OpenQ,Rev,OPEN_ORDER,key_resp_2.keys,key_resp_2.rt
return,10.3075,1,4.1957,1,4.1957,0,0,0,84,1,91,microwave,rose,,90313,001,2022-04-25_03h15.10.325,SPAMnetsValid,2021.1.4,Win32,359.4536305,,,,,,,,,,,,,,,,,,,,,,,,,,,,,,,,,,,,,,,,,,,,,,,,,,,,,,,,,,,,,,,,,,,,,,,,,,,,,,,,,,,,,,,,,
,,1,2.2887,1,2.2887,0,1,1,70,1,5,oven,tree,,90313,001,2022-04-25_03h15.10.325,SPAMnetsValid,2021.1.4,Win32,359.4536305,,,,,,,,,,,,,,,,,,,,,,,,,,,,,,,,,,,,,,,,,,,,,,,,,,,,,,,,,,,,,,,,,,,,,,,,,,,,,,,,,,,,,,,,,
,,2,2.2006,2,2.2006,0,2,2,50,1,81,pretzel,yogurt,,90313,001,2022-04-25_03h15.10.325,SPAMnetsValid,2021.1.4,Win32,359.4536305,,,,,,,,,,,,,,,,,,,,,,,,,,,,,,,,,,,,,,,,,,,,,,,,,,,,,,,,,,,,,,,,,,,,,,,,,,,,,,,,,,,,,,,,,
,,1,1.6666,1,1.6666,0,3,3,81,1,60,cactus,onion,,90313,001,2022-04-25_03h15.10.325,SPAMnetsValid,2021.1.4,Win32,359.4536305,,,,,,,,,,,,,,,,,,,,,,,,,,,,,,,,,,,,,,,,,,,,,,,,,,,,,,,,,,,,,,,,,,,,,,,,,,,,,,,,,,,,,,,,,
,,3,3.5566,3,3.5566,0,4,4,92,1,44,cookie,melon,,90313,001,2022-04-25_03h15.10.325,SPAMnetsValid,2021.1.4,Win32,359.4536305,,,,,,,,,,,,,,,,,,,,,,,,,,,,,,,,,,,,,,,,,,,,,,,,,,,,,,,,,,,,,,,,,,,,,,,,,,,,,,,,,,,,,,,,,
,,4,12.6242,4,12.6242,0,5,5,71,1,38,pretzel,refrigerator,,90313,001,2022-04-25_03h15.10.325,SPAMnetsValid,2021.1.4,Win32,359.4536305,,,,,,,,,,,,,,,,,,,,,,,,,,,,,,,,,,,,,,,,,,,,,,,,,,,,,,,,,,,,,,,,,,,,,,,,,,,,,,,,,,,,,,,,,
,,6,3.177,6,3.177,0,6,6,74,1,70,chocolate,onion,,90313,001,2022-04-25_03h15.10.325,SPAMnetsValid,2021.1.4,Win32,359.4536305,,,,,,,,,,,,,,,,,,,,,,,,,,,,,,,,,,,,,,,,,,,,,,,,,,,,,,,,,,,,,,,,,,,,,,,,,,,,,,,,,,,,,,,,,
,,5,4.3569,5,4.3569,0,7,7,35,1,55,tomato,tree,,90313,001,2022-04-25_03h15.10.325,SPAMnetsValid,2021.1.4,Win32,359.4536305,,,,,,,,,,,,,,,,,,,,,,,,,,,,,,,,,,,,,,,,,,,,,,,,,,,,,,,,,,,,,,,,,,,,,,,,,,,,,,,,,,,,,,,,,
,,3,2.8656,3,2.8656,0,8,8,2,1,22,kitchen,strawberry,,90313,001,2022-04-25_03h15.10.325,SPAMnetsValid,2021.1.4,Win32,359.4536305,,,,,,,,,,,,,,,,,,,,,,,,,,,,,,,,,,,,,,,,,,,,,,,,,,,,,,,,,,,,,,,,,,,,,,,,,,,,,,,,,,,,,,,,,
,,1,2.3155,1,2.3155,0,9,9,22,1,16,chocolate,flower,,90313,001,2022-04-25_03h15.10.325,SPAMnetsValid,2021.1.4,Win32,359.4536305,,,,,,,,,,,,,,,,,,,,,,,,,,,,,,,,,,,,,,,,,,,,,,,,,,,,,,,,,,,,,,,,,,,,,,,,,,,,,,,,,,,,,,,,,
,,7,3.983,7,3.983,0,10,10,72,1,59,rose,strawberry,,90313,001,2022-04-25_03h15.10.325,SPAMnetsValid,2021.1.4,Win32,359.4536305,,,,,,,,,,,,,,,,,,,,,,,,,,,,,,,,,,,,,,,,,,,,,,,,,,,,,,,,,,,,,,,,,,,,,,,,,,,,,,,,,,,,,,,,,
,,6,1.9717,6,1.9717,0,11,11,34,1,29,chocolate,melon,,90313,001,2022-04-25_03h15.10.325,SPAMnetsValid,2021.1.4,Win32,359.4536305,,,,,,,,,,,,,,,,,,,,,,,,,,,,,,,,,,,,,,,,,,,,,,,,,,,,,,,,,,,,,,,,,,,,,,,,,,,,,,,,,,,,,,,,,
,,2,2.4837,2,2.4837,0,12,12,15,1,48,flower,oven,,90313,001,2022-04-25_03h15.10.325,SPAMnetsValid,2021.1.4,Win32,359.4536305,,,,,,,,,,,,,,,,,,,,,,,,,,,,,,,,,,,,,,,,,,,,,,,,,,,,,,,,,,,,,,,,,,,,,,,,,,,,,,,,,,,,,,,,,
,,2,0.886,2,0.886,0,13,13,38,1,88,cactus,melon,,90313,001,2022-04-25_03h15.10.325,SPAMnetsValid,2021.1.4,Win32,359.4536305,,,,,,,,,,,,,,,,,,,,,,,,,,,,,,,,,,,,,,,,,,,,,,,,,,,,,,,,,,,,,,,,,,,,,,,,,,,,,,,,,,,,,,,,,
,,4,0.8101,4,0.8101,0,14,14,61,1,71,broom,rose,,90313,001,2022-04-25_03h15.10.325,SPAMnetsValid,2021.1.4,Win32,359.4536305,,,,,,,,,,,,,,,,,,,,,,,,,,,,,,,,,,,,,,,,,,,,,,,,,,,,,,,,,,,,,,,,,,,,,,,,,,,,,,,,,,,,,,,,,
,,6,0.4635,6,0.4635,0,15,15,91,1,2,kitchen,onion,,90313,001,2022-04-25_03h15.10.325,SPAMnetsValid,2021.1.4,Win32,359.4536305,,,,,,,,,,,,,,,,,,,,,,,,,,,,,,,,,,,,,,,,,,,,,,,,,,,,,,,,,,,,,,,,,,,,,,,,,,,,,,,,,,,,,,,,,
,,3,0.3192,3,0.3192,0,16,16,41,1,19,microwave,pretzel,,90313,001,2022-04-25_03h15.10.325,SPAMnetsValid,2021.1.4,Win32,359.4536305,,,,,,,,,,,,,,,,,,,,,,,,,,,,,,,,,,,,,,,,,,,,,,,,,,,,,,,,,,,,,,,,,,,,,,,,,,,,,,,,,,,,,,,,,
,,6,0.3388,6,0.3388,0,17,17,80,1,61,strawberry,tomato,,90313,001,2022-04-25_03h15.10.325,SPAMnetsValid,2021.1.4,Win32,359.4536305,,,,,,,,,,,,,,,,,,,,,,,,,,,,,,,,,,,,,,,,,,,,,,,,,,,,,,,,,,,,,,,,,,,,,,,,,,,,,,,,,,,,,,,,,
,,3,0.3027,3,0.3027,0,18,18,47,1,73,broom,chocolate,,90313,001,2022-04-25_03h15.10.325,SPAMnetsValid,2021.1.4,Win32,359.4536305,,,,,,,,,,,,,,,,,,,,,,,,,,,,,,,,,,,,,,,,,,,,,,,,,,,,,,,,,,,,,,,,,,,,,,,,,,,,,,,,,,,,,,,,,
,,6,0.349,6,0.349,0,19,19,11,1,37,garden,refrigerator,,90313,001,2022-04-25_03h15.10.325,SPAMnetsValid,2021.1.4,Win32,359.4536305,,,,,,,,,,,,,,,,,,,,,,,,,,,,,,,,,,,,,,,,,,,,,,,,,,,,,,,,,,,,,,,,,,,,,,,,,,,,,,,,,,,,,,,,,
,,7,0.4331,7,0.4331,0,20,20,40,1,74,broom,pretzel,,90313,001,2022-04-25_03h15.10.325,SPAMnetsValid,2021.1.4,Win32,359.4536305,,,,,,,,,,,,,,,,,,,,,,,,,,,,,,,,,,,,,,,,,,,,,,,,,,,,,,,,,,,,,,,,,,,,,,,,,,,,,,,,,,,,,,,,,
,,3,0.2618,3,0.2618,0,21,21,63,1,21,cake,onion,,90313,001,2022-04-25_03h15.10.325,SPAMnetsValid,2021.1.4,Win32,359.4536305,,,,,,,,,,,,,,,,,,,,,,,,,,,,,,,,,,,,,,,,,,,,,,,,,,,,,,,,,,,,,,,,,,,,,,,,,,,,,,,,,,,,,,,,,
,,6,0.3417,6,0.3417,0,22,22,57,1,62,kitchen,rose,,90313,001,2022-04-25_03h15.10.325,SPAMnetsValid,2021.1.4,Win32,359.4536305,,,,,,,,,,,,,,,,,,,,,,,,,,,,,,,,,,,,,,,,,,,,,,,,,,,,,,,,,,,,,,,,,,,,,,,,,,,,,,,,,,,,,,,,,
,,3,0.2074,3,0.2074,0,23,23,16,1,14,broom,cookie,,90313,001,2022-04-25_03h15.10.325,SPAMnetsValid,2021.1.4,Win32,359.4536305,,,,,,,,,,,,,,,,,,,,,,,,,,,,,,,,,,,,,,,,,,,,,,,,,,,,,,,,,,,,,,,,,,,,,,,,,,,,,,,,,,,,,,,,,
,,6,0.1941,6,0.1941,0,24,24,77,1,7,melon,tree,,90313,001,2022-04-25_03h15.10.325,SPAMnetsValid,2021.1.4,Win32,359.4536305,,,,,,,,,,,,,,,,,,,,,,,,,,,,,,,,,,,,,,,,,,,,,,,,,,,,,,,,,,,,,,,,,,,,,,,,,,,,,,,,,,,,,,,,,
,,3,0.1969,3,0.1969,0,25,25,76,1,36,broom,kitchen,,90313,001,2022-04-25_03h15.10.325,SPAMnetsValid,2021.1.4,Win32,359.4536305,,,,,,,,,,,,,,,,,,,,,,,,,,,,,,,,,,,,,,,,,,,,,,,,,,,,,,,,,,,,,,,,,,,,,,,,,,,,,,,,,,,,,,,,,
,,7,0.1831,7,0.1831,0,26,26,93,1,63,cake,cookie,,90313,001,2022-04-25_03h15.10.325,SPAMnetsValid,2021.1.4,Win32,359.4536305,,,,,,,,,,,,,,,,,,,,,,,,,,,,,,,,,,,,,,,,,,,,,,,,,,,,,,,,,,,,,,,,,,,,,,,,,,,,,,,,,,,,,,,,,
,,2,0.194,2,0.194,0,27,27,86,1,51,onion,strawberry,,90313,001,2022-04-25_03h15.10.325,SPAMnetsValid,2021.1.4,Win32,359.4536305,,,,,,,,,,,,,,,,,,,,,,,,,,,,,,,,,,,,,,,,,,,,,,,,,,,,,,,,,,,,,,,,,,,,,,,,,,,,,,,,,,,,,,,,,
,,6,0.168,6,0.168,0,28,28,58,1,94,kitchen,microwave,,90313,001,2022-04-25_03h15.10.325,SPAMnetsValid,2021.1.4,Win32,359.4536305,,,,,,,,,,,,,,,,,,,,,,,,,,,,,,,,,,,,,,,,,,,,,,,,,,,,,,,,,,,,,,,,,,,,,,,,,,,,,,,,,,,,,,,,,
,,3,0.2213,3,0.2213,0,29,29,21,1,56,cactus,tree,,90313,001,2022-04-25_03h15.10.325,SPAMnetsValid,2021.1.4,Win32,359.4536305,,,,,,,,,,,,,,,,,,,,,,,,,,,,,,,,,,,,,,,,,,,,,,,,,,,,,,,,,,,,,,,,,,,,,,,,,,,,,,,,,,,,,,,,,
,,6,0.2249,6,0.2249,0,30,30,94,1,68,flower,tomato,,90313,001,2022-04-25_03h15.10.325,SPAMnetsValid,2021.1.4,Win32,359.4536305,,,,,,,,,,,,,,,,,,,,,,,,,,,,,,,,,,,,,,,,,,,,,,,,,,,,,,,,,,,,,,,,,,,,,,,,,,,,,,,,,,,,,,,,,
,,3,0.1991,3,0.1991,0,31,31,29,1,42,garden,kitchen,,90313,001,2022-04-25_03h15.10.325,SPAMnetsValid,2021.1.4,Win32,359.4536305,,,,,,,,,,,,,,,,,,,,,,,,,,,,,,,,,,,,,,,,,,,,,,,,,,,,,,,,,,,,,,,,,,,,,,,,,,,,,,,,,,,,,,,,,
,,6,0.2193,6,0.2193,0,32,32,73,1,50,carrot,rose,,90313,001,2022-04-25_03h15.10.325,SPAMnetsValid,2021.1.4,Win32,359.4536305,,,,,,,,,,,,,,,,,,,,,,,,,,,,,,,,,,,,,,,,,,,,,,,,,,,,,,,,,,,,,,,,,,,,,,,,,,,,,,,,,,,,,,,,,
,,3,0.2053,3,0.2053,0,33,33,46,1,41,broom,cactus,,90313,001,2022-04-25_03h15.10.325,SPAMnetsValid,2021.1.4,Win32,359.4536305,,,,,,,,,,,,,,,,,,,,,,,,,,,,,,,,,,,,,,,,,,,,,,,,,,,,,,,,,,,,,,,,,,,,,,,,,,,,,,,,,,,,,,,,,
,,5,0.1754,5,0.1754,0,34,34,87,1,79,garden,strawberry,,90313,001,2022-04-25_03h15.10.325,SPAMnetsValid,2021.1.4,Win32,359.4536305,,,,,,,,,,,,,,,,,,,,,,,,,,,,,,,,,,,,,,,,,,,,,,,,,,,,,,,,,,,,,,,,,,,,,,,,,,,,,,,,,,,,,,,,,
,,6,0.0973,6,0.0973,0,35,35,39,1,15,onion,oven,,90313,001,2022-04-25_03h15.10.325,SPAMnetsValid,2021.1.4,Win32,359.4536305,,,,,,,,,,,,,,,,,,,,,,,,,,,,,,,,,,,,,,,,,,,,,,,,,,,,,,,,,,,,,,,,,,,,,,,,,,,,,,,,,,,,,,,,,
,,2,0.1905,2,0.1905,0,36,36,48,1,66,melon,yogurt,,90313,001,2022-04-25_03h15.10.325,SPAMnetsValid,2021.1.4,Win32,359.4536305,,,,,,,,,,,,,,,,,,,,,,,,,,,,,,,,,,,,,,,,,,,,,,,,,,,,,,,,,,,,,,,,,,,,,,,,,,,,,,,,,,,,,,,,,
,,6,0.1687,6,0.1687,0,37,37,32,1,40,broom,cake,,90313,001,2022-04-25_03h15.10.325,SPAMnetsValid,2021.1.4,Win32,359.4536305,,,,,,,,,,,,,,,,,,,,,,,,,,,,,,,,,,,,,,,,,,,,,,,,,,,,,,,,,,,,,,,,,,,,,,,,,,,,,,,,,,,,,,,,,
,,2,0.1892,2,0.1892,0,38,38,88,1,92,broom,flower,,90313,001,2022-04-25_03h15.10.325,SPAMnetsValid,2021.1.4,Win32,359.4536305,,,,,,,,,,,,,,,,,,,,,,,,,,,,,,,,,,,,,,,,,,,,,,,,,,,,,,,,,,,,,,,,,,,,,,,,,,,,,,,,,,,,,,,,,
,,6,0.2058,6,0.2058,0,39,39,75,1,69,carrot,refrigerator,,90313,001,2022-04-25_03h15.10.325,SPAMnetsValid,2021.1.4,Win32,359.4536305,,,,,,,,,,,,,,,,,,,,,,,,,,,,,,,,,,,,,,,,,,,,,,,,,,,,,,,,,,,,,,,,,,,,,,,,,,,,,,,,,,,,,,,,,
,,3,0.1803,3,0.1803,0,40,40,64,1,9,kitchen,refrigerator,,90313,001,2022-04-25_03h15.10.325,SPAMnetsValid,2021.1.4,Win32,359.4536305,,,,,,,,,,,,,,,,,,,,,,,,,,,,,,,,,,,,,,,,,,,,,,,,,,,,,,,,,,,,,,,,,,,,,,,,,,,,,,,,,,,,,,,,,
,,6,0.2184,6,0.2184,0,41,41,33,1,32,cake,microwave,,90313,001,2022-04-25_03h15.10.325,SPAMnetsValid,2021.1.4,Win32,359.4536305,,,,,,,,,,,,,,,,,,,,,,,,,,,,,,,,,,,,,,,,,,,,,,,,,,,,,,,,,,,,,,,,,,,,,,,,,,,,,,,,,,,,,,,,,
,,2,0.1883,2,0.1883,0,42,42,43,1,11,refrigerator,tree,,90313,001,2022-04-25_03h15.10.325,SPAMnetsValid,2021.1.4,Win32,359.4536305,,,,,,,,,,,,,,,,,,,,,,,,,,,,,,,,,,,,,,,,,,,,,,,,,,,,,,,,,,,,,,,,,,,,,,,,,,,,,,,,,,,,,,,,,
,,6,0.2056,6,0.2056,0,43,43,55,1,1,rose,yogurt,,90313,001,2022-04-25_03h15.10.325,SPAMnetsValid,2021.1.4,Win32,359.4536305,,,,,,,,,,,,,,,,,,,,,,,,,,,,,,,,,,,,,,,,,,,,,,,,,,,,,,,,,,,,,,,,,,,,,,,,,,,,,,,,,,,,,,,,,
,,3,0.1855,3,0.1855,0,44,44,65,1,46,garden,yogurt,,90313,001,2022-04-25_03h15.10.325,SPAMnetsValid,2021.1.4,Win32,359.4536305,,,,,,,,,,,,,,,,,,,,,,,,,,,,,,,,,,,,,,,,,,,,,,,,,,,,,,,,,,,,,,,,,,,,,,,,,,,,,,,,,,,,,,,,,
,,7,0.1725,7,0.1725,0,45,45,85,1,90,cactus,cake,,90313,001,2022-04-25_03h15.10.325,SPAMnetsValid,2021.1.4,Win32,359.4536305,,,,,,,,,,,,,,,,,,,,,,,,,,,,,,,,,,,,,,,,,,,,,,,,,,,,,,,,,,,,,,,,,,,,,,,,,,,,,,,,,,,,,,,,,
,,3,0.2237,3,0.2237,0,46,46,53,1,192,microwave,microwave,CHECK,90313,001,2022-04-25_03h15.10.325,SPAMnetsValid,2021.1.4,Win32,359.4536305,,,,,,,,,,,,,,,,,,,,,,,,,,,,,,,,,,,,,,,,,,,,,,,,,,,,,,,,,,,,,,,,,,,,,,,,,,,,,,,,,,,,,,,,,
,,7,0.2244,7,0.2244,0,47,47,1,1,31,cactus,pretzel,,90313,001,2022-04-25_03h15.10.325,SPAMnetsValid,2021.1.4,Win32,359.4536305,,,,,,,,,,,,,,,,,,,,,,,,,,,,,,,,,,,,,,,,,,,,,,,,,,,,,,,,,,,,,,,,,,,,,,,,,,,,,,,,,,,,,,,,,
,,4,0.1826,4,0.1826,0,48,48,60,1,89,chocolate,rose,,90313,001,2022-04-25_03h15.10.325,SPAMnetsValid,2021.1.4,Win32,359.4536305,,,,,,,,,,,,,,,,,,,,,,,,,,,,,,,,,,,,,,,,,,,,,,,,,,,,,,,,,,,,,,,,,,,,,,,,,,,,,,,,,,,,,,,,,
,,7,0.1821,7,0.1821,0,49,49,0,1,53,garden,pretzel,,90313,001,2022-04-25_03h15.10.325,SPAMnetsValid,2021.1.4,Win32,359.4536305,,,,,,,,,,,,,,,,,,,,,,,,,,,,,,,,,,,,,,,,,,,,,,,,,,,,,,,,,,,,,,,,,,,,,,,,,,,,,,,,,,,,,,,,,
,,3,0.1775,3,0.1775,0,50,50,44,1,25,carrot,onion,,90313,001,2022-04-25_03h15.10.325,SPAMnetsValid,2021.1.4,Win32,359.4536305,,,,,,,,,,,,,,,,,,,,,,,,,,,,,,,,,,,,,,,,,,,,,,,,,,,,,,,,,,,,,,,,,,,,,,,,,,,,,,,,,,,,,,,,,
,,7,0.2362,7,0.2362,0,51,51,45,1,10,flower,onion,,90313,001,2022-04-25_03h15.10.325,SPAMnetsValid,2021.1.4,Win32,359.4536305,,,,,,,,,,,,,,,,,,,,,,,,,,,,,,,,,,,,,,,,,,,,,,,,,,,,,,,,,,,,,,,,,,,,,,,,,,,,,,,,,,,,,,,,,
,,3,0.1829,3,0.1829,0,52,52,28,1,84,oven,tomato,,90313,001,2022-04-25_03h15.10.325,SPAMnetsValid,2021.1.4,Win32,359.4536305,,,,,,,,,,,,,,,,,,,,,,,,,,,,,,,,,,,,,,,,,,,,,,,,,,,,,,,,,,,,,,,,,,,,,,,,,,,,,,,,,,,,,,,,,
,,8,0.2269,8,0.2269,0,53,53,24,1,17,carrot,melon,,90313,001,2022-04-25_03h15.10.325,SPAMnetsValid,2021.1.4,Win32,359.4536305,,,,,,,,,,,,,,,,,,,,,,,,,,,,,,,,,,,,,,,,,,,,,,,,,,,,,,,,,,,,,,,,,,,,,,,,,,,,,,,,,,,,,,,,,
,,3,0.1857,3,0.1857,0,54,54,96,1,82,cake,kitchen,,90313,001,2022-04-25_03h15.10.325,SPAMnetsValid,2021.1.4,Win32,359.4536305,,,,,,,,,,,,,,,,,,,,,,,,,,,,,,,,,,,,,,,,,,,,,,,,,,,,,,,,,,,,,,,,,,,,,,,,,,,,,,,,,,,,,,,,,
,,6,0.1973,6,0.1973,0,55,55,69,1,45,onion,pretzel,,90313,001,2022-04-25_03h15.10.325,SPAMnetsValid,2021.1.4,Win32,359.4536305,,,,,,,,,,,,,,,,,,,,,,,,,,,,,,,,,,,,,,,,,,,,,,,,,,,,,,,,,,,,,,,,,,,,,,,,,,,,,,,,,,,,,,,,,
,,6,0.3857,6,0.3857,0,56,56,49,1,57,flower,kitchen,,90313,001,2022-04-25_03h15.10.325,SPAMnetsValid,2021.1.4,Win32,359.4536305,,,,,,,,,,,,,,,,,,,,,,,,,,,,,,,,,,,,,,,,,,,,,,,,,,,,,,,,,,,,,,,,,,,,,,,,,,,,,,,,,,,,,,,,,
,,4,0.2645,4,0.2645,0,57,57,54,1,28,cake,melon,,90313,001,2022-04-25_03h15.10.325,SPAMnetsValid,2021.1.4,Win32,359.4536305,,,,,,,,,,,,,,,,,,,,,,,,,,,,,,,,,,,,,,,,,,,,,,,,,,,,,,,,,,,,,,,,,,,,,,,,,,,,,,,,,,,,,,,,,
,,7,0.2522,7,0.2522,0,58,58,30,1,3,cake,oven,,90313,001,2022-04-25_03h15.10.325,SPAMnetsValid,2021.1.4,Win32,359.4536305,,,,,,,,,,,,,,,,,,,,,,,,,,,,,,,,,,,,,,,,,,,,,,,,,,,,,,,,,,,,,,,,,,,,,,,,,,,,,,,,,,,,,,,,,
,,3,0.1579,3,0.1579,0,59,59,82,1,93,kitchen,oven,,90313,001,2022-04-25_03h15.10.325,SPAMnetsValid,2021.1.4,Win32,359.4536305,,,,,,,,,,,,,,,,,,,,,,,,,,,,,,,,,,,,,,,,,,,,,,,,,,,,,,,,,,,,,,,,,,,,,,,,,,,,,,,,,,,,,,,,,
,,3,0.622,3,0.622,0,60,60,6,1,87,carrot,yogurt,,90313,001,2022-04-25_03h15.10.325,SPAMnetsValid,2021.1.4,Win32,359.4536305,,,,,,,,,,,,,,,,,,,,,,,,,,,,,,,,,,,,,,,,,,,,,,,,,,,,,,,,,,,,,,,,,,,,,,,,,,,,,,,,,,,,,,,,,
,,6,0.1238,6,0.1238,0,61,61,37,1,58,garden,oven,,90313,001,2022-04-25_03h15.10.325,SPAMnetsValid,2021.1.4,Win32,359.4536305,,,,,,,,,,,,,,,,,,,,,,,,,,,,,,,,,,,,,,,,,,,,,,,,,,,,,,,,,,,,,,,,,,,,,,,,,,,,,,,,,,,,,,,,,
,,3,0.194,3,0.194,0,62,62,67,1,54,chocolate,yogurt,,90313,001,2022-04-25_03h15.10.325,SPAMnetsValid,2021.1.4,Win32,359.4536305,,,,,,,,,,,,,,,,,,,,,,,,,,,,,,,,,,,,,,,,,,,,,,,,,,,,,,,,,,,,,,,,,,,,,,,,,,,,,,,,,,,,,,,,,
,,7,0.1717,7,0.1717,0,63,63,95,1,52,carrot,tomato,,90313,001,2022-04-25_03h15.10.325,SPAMnetsValid,2021.1.4,Win32,359.4536305,,,,,,,,,,,,,,,,,,,,,,,,,,,,,,,,,,,,,,,,,,,,,,,,,,,,,,,,,,,,,,,,,,,,,,,,,,,,,,,,,,,,,,,,,
,,3,0.1992,3,0.1992,0,64,64,62,1,18,onion,refrigerator,,90313,001,2022-04-25_03h15.10.325,SPAMnetsValid,2021.1.4,Win32,359.4536305,,,,,,,,,,,,,,,,,,,,,,,,,,,,,,,,,,,,,,,,,,,,,,,,,,,,,,,,,,,,,,,,,,,,,,,,,,,,,,,,,,,,,,,,,
,,7,0.1862,7,0.1862,0,65,65,51,1,47,onion,tomato,,90313,001,2022-04-25_03h15.10.325,SPAMnetsValid,2021.1.4,Win32,359.4536305,,,,,,,,,,,,,,,,,,,,,,,,,,,,,,,,,,,,,,,,,,,,,,,,,,,,,,,,,,,,,,,,,,,,,,,,,,,,,,,,,,,,,,,,,
,,5,0.3386,5,0.3386,0,66,66,4,1,83,broom,carrot,,90313,001,2022-04-25_03h15.10.325,SPAMnetsValid,2021.1.4,Win32,359.4536305,,,,,,,,,,,,,,,,,,,,,,,,,,,,,,,,,,,,,,,,,,,,,,,,,,,,,,,,,,,,,,,,,,,,,,,,,,,,,,,,,,,,,,,,,
,,7,0.5021,7,0.5021,0,67,67,9,1,75,cookie,onion,,90313,001,2022-04-25_03h15.10.325,SPAMnetsValid,2021.1.4,Win32,359.4536305,,,,,,,,,,,,,,,,,,,,,,,,,,,,,,,,,,,,,,,,,,,,,,,,,,,,,,,,,,,,,,,,,,,,,,,,,,,,,,,,,,,,,,,,,
,,3,0.441,3,0.441,0,68,68,90,1,95,broom,refrigerator,,90313,001,2022-04-25_03h15.10.325,SPAMnetsValid,2021.1.4,Win32,359.4536305,,,,,,,,,,,,,,,,,,,,,,,,,,,,,,,,,,,,,,,,,,,,,,,,,,,,,,,,,,,,,,,,,,,,,,,,,,,,,,,,,,,,,,,,,
,,8,0.2544,8,0.2544,0,69,69,5,1,13,broom,yogurt,,90313,001,2022-04-25_03h15.10.325,SPAMnetsValid,2021.1.4,Win32,359.4536305,,,,,,,,,,,,,,,,,,,,,,,,,,,,,,,,,,,,,,,,,,,,,,,,,,,,,,,,,,,,,,,,,,,,,,,,,,,,,,,,,,,,,,,,,
,,3,0.3054,3,0.3054,0,70,70,23,1,65,broom,garden,,90313,001,2022-04-25_03h15.10.325,SPAMnetsValid,2021.1.4,Win32,359.4536305,,,,,,,,,,,,,,,,,,,,,,,,,,,,,,,,,,,,,,,,,,,,,,,,,,,,,,,,,,,,,,,,,,,,,,,,,,,,,,,,,,,,,,,,,
,,6,0.3357,6,0.3357,0,71,71,56,1,78,cookie,rose,,90313,001,2022-04-25_03h15.10.325,SPAMnetsValid,2021.1.4,Win32,359.4536305,,,,,,,,,,,,,,,,,,,,,,,,,,,,,,,,,,,,,,,,,,,,,,,,,,,,,,,,,,,,,,,,,,,,,,,,,,,,,,,,,,,,,,,,,
,,4,0.2188,4,0.2188,0,72,72,10,1,191,cake,cake,CHECK,90313,001,2022-04-25_03h15.10.325,SPAMnetsValid,2021.1.4,Win32,359.4536305,,,,,,,,,,,,,,,,,,,,,,,,,,,,,,,,,,,,,,,,,,,,,,,,,,,,,,,,,,,,,,,,,,,,,,,,,,,,,,,,,,,,,,,,,
,,7,0.2487,7,0.2487,0,73,73,59,1,8,broom,melon,,90313,001,2022-04-25_03h15.10.325,SPAMnetsValid,2021.1.4,Win32,359.4536305,,,,,,,,,,,,,,,,,,,,,,,,,,,,,,,,,,,,,,,,,,,,,,,,,,,,,,,,,,,,,,,,,,,,,,,,,,,,,,,,,,,,,,,,,
,,4,0.2227,4,0.2227,0,74,74,25,1,23,flower,microwave,,90313,001,2022-04-25_03h15.10.325,SPAMnetsValid,2021.1.4,Win32,359.4536305,,,,,,,,,,,,,,,,,,,,,,,,,,,,,,,,,,,,,,,,,,,,,,,,,,,,,,,,,,,,,,,,,,,,,,,,,,,,,,,,,,,,,,,,,
,,7,0.2128,7,0.2128,0,75,75,18,1,85,cake,tree,,90313,001,2022-04-25_03h15.10.325,SPAMnetsValid,2021.1.4,Win32,359.4536305,,,,,,,,,,,,,,,,,,,,,,,,,,,,,,,,,,,,,,,,,,,,,,,,,,,,,,,,,,,,,,,,,,,,,,,,,,,,,,,,,,,,,,,,,
,,4,0.2795,4,0.2795,0,76,76,3,1,49,flower,strawberry,,90313,001,2022-04-25_03h15.10.325,SPAMnetsValid,2021.1.4,Win32,359.4536305,,,,,,,,,,,,,,,,,,,,,,,,,,,,,,,,,,,,,,,,,,,,,,,,,,,,,,,,,,,,,,,,,,,,,,,,,,,,,,,,,,,,,,,,,
,,8,0.3194,8,0.3194,0,77,77,89,1,80,chocolate,tree,,90313,001,2022-04-25_03h15.10.325,SPAMnetsValid,2021.1.4,Win32,359.4536305,,,,,,,,,,,,,,,,,,,,,,,,,,,,,,,,,,,,,,,,,,,,,,,,,,,,,,,,,,,,,,,,,,,,,,,,,,,,,,,,,,,,,,,,,
,,3,0.2585,3,0.2585,0,78,78,79,1,86,oven,rose,,90313,001,2022-04-25_03h15.10.325,SPAMnetsValid,2021.1.4,Win32,359.4536305,,,,,,,,,,,,,,,,,,,,,,,,,,,,,,,,,,,,,,,,,,,,,,,,,,,,,,,,,,,,,,,,,,,,,,,,,,,,,,,,,,,,,,,,,
,,8,0.3272,8,0.3272,0,79,79,19,1,76,garden,rose,,90313,001,2022-04-25_03h15.10.325,SPAMnetsValid,2021.1.4,Win32,359.4536305,,,,,,,,,,,,,,,,,,,,,,,,,,,,,,,,,,,,,,,,,,,,,,,,,,,,,,,,,,,,,,,,,,,,,,,,,,,,,,,,,,,,,,,,,
,,1,0.2019,1,0.2019,0,80,80,17,1,27,cactus,cookie,,90313,001,2022-04-25_03h15.10.325,SPAMnetsValid,2021.1.4,Win32,359.4536305,,,,,,,,,,,,,,,,,,,,,,,,,,,,,,,,,,,,,,,,,,,,,,,,,,,,,,,,,,,,,,,,,,,,,,,,,,,,,,,,,,,,,,,,,
,,7,0.2134,7,0.2134,0,81,81,83,1,6,garden,onion,,90313,001,2022-04-25_03h15.10.325,SPAMnetsValid,2021.1.4,Win32,359.4536305,,,,,,,,,,,,,,,,,,,,,,,,,,,,,,,,,,,,,,,,,,,,,,,,,,,,,,,,,,,,,,,,,,,,,,,,,,,,,,,,,,,,,,,,,
,,3,0.2099,3,0.2099,0,82,82,20,1,39,melon,pretzel,,90313,001,2022-04-25_03h15.10.325,SPAMnetsValid,2021.1.4,Win32,359.4536305,,,,,,,,,,,,,,,,,,,,,,,,,,,,,,,,,,,,,,,,,,,,,,,,,,,,,,,,,,,,,,,,,,,,,,,,,,,,,,,,,,,,,,,,,
,,6,0.28,6,0.28,0,83,83,36,1,12,cookie,yogurt,,90313,001,2022-04-25_03h15.10.325,SPAMnetsValid,2021.1.4,Win32,359.4536305,,,,,,,,,,,,,,,,,,,,,,,,,,,,,,,,,,,,,,,,,,,,,,,,,,,,,,,,,,,,,,,,,,,,,,,,,,,,,,,,,,,,,,,,,
,,3,0.2159,3,0.2159,0,84,84,68,1,24,cookie,tomato,,90313,001,2022-04-25_03h15.10.325,SPAMnetsValid,2021.1.4,Win32,359.4536305,,,,,,,,,,,,,,,,,,,,,,,,,,,,,,,,,,,,,,,,,,,,,,,,,,,,,,,,,,,,,,,,,,,,,,,,,,,,,,,,,,,,,,,,,
,,7,0.1939,7,0.1939,0,85,85,42,1,77,refrigerator,yogurt,,90313,001,2022-04-25_03h15.10.325,SPAMnetsValid,2021.1.4,Win32,359.4536305,,,,,,,,,,,,,,,,,,,,,,,,,,,,,,,,,,,,,,,,,,,,,,,,,,,,,,,,,,,,,,,,,,,,,,,,,,,,,,,,,,,,,,,,,
,,3,0.1907,3,0.1907,0,86,86,27,1,72,broom,onion,,90313,001,2022-04-25_03h15.10.325,SPAMnetsValid,2021.1.4,Win32,359.4536305,,,,,,,,,,,,,,,,,,,,,,,,,,,,,,,,,,,,,,,,,,,,,,,,,,,,,,,,,,,,,,,,,,,,,,,,,,,,,,,,,,,,,,,,,
,,6,0.2131,6,0.2131,0,87,87,26,1,35,flower,pretzel,,90313,001,2022-04-25_03h15.10.325,SPAMnetsValid,2021.1.4,Win32,359.4536305,,,,,,,,,,,,,,,,,,,,,,,,,,,,,,,,,,,,,,,,,,,,,,,,,,,,,,,,,,,,,,,,,,,,,,,,,,,,,,,,,,,,,,,,,
,,3,0.1905,3,0.1905,0,88,88,31,1,33,oven,yogurt,,90313,001,2022-04-25_03h15.10.325,SPAMnetsValid,2021.1.4,Win32,359.4536305,,,,,,,,,,,,,,,,,,,,,,,,,,,,,,,,,,,,,,,,,,,,,,,,,,,,,,,,,,,,,,,,,,,,,,,,,,,,,,,,,,,,,,,,,
,,6,0.2104,6,0.2104,0,89,89,7,1,34,melon,oven,,90313,001,2022-04-25_03h15.10.325,SPAMnetsValid,2021.1.4,Win32,359.4536305,,,,,,,,,,,,,,,,,,,,,,,,,,,,,,,,,,,,,,,,,,,,,,,,,,,,,,,,,,,,,,,,,,,,,,,,,,,,,,,,,,,,,,,,,
,,3,0.2324,3,0.2324,0,90,90,14,1,64,chocolate,garden,,90313,001,2022-04-25_03h15.10.325,SPAMnetsValid,2021.1.4,Win32,359.4536305,,,,,,,,,,,,,,,,,,,,,,,,,,,,,,,,,,,,,,,,,,,,,,,,,,,,,,,,,,,,,,,,,,,,,,,,,,,,,,,,,,,,,,,,,
,,6,0.2589,6,0.2589,0,91,91,52,1,4,chocolate,pretzel,,90313,001,2022-04-25_03h15.10.325,SPAMnetsValid,2021.1.4,Win32,359.4536305,,,,,,,,,,,,,,,,,,,,,,,,,,,,,,,,,,,,,,,,,,,,,,,,,,,,,,,,,,,,,,,,,,,,,,,,,,,,,,,,,,,,,,,,,
,,4,0.1553,4,0.1553,0,92,92,12,1,67,flower,yogurt,,90313,001,2022-04-25_03h15.10.325,SPAMnetsValid,2021.1.4,Win32,359.4536305,,,,,,,,,,,,,,,,,,,,,,,,,,,,,,,,,,,,,,,,,,,,,,,,,,,,,,,,,,,,,,,,,,,,,,,,,,,,,,,,,,,,,,,,,
,,7,0.2184,7,0.2184,0,93,93,8,1,43,chocolate,tomato,,90313,001,2022-04-25_03h15.10.325,SPAMnetsValid,2021.1.4,Win32,359.4536305,,,,,,,,,,,,,,,,,,,,,,,,,,,,,,,,,,,,,,,,,,,,,,,,,,,,,,,,,,,,,,,,,,,,,,,,,,,,,,,,,,,,,,,,,
,,3,0.2413,3,0.2413,0,94,94,78,1,30,cookie,pretzel,,90313,001,2022-04-25_03h15.10.325,SPAMnetsValid,2021.1.4,Win32,359.4536305,,,,,,,,,,,,,,,,,,,,,,,,,,,,,,,,,,,,,,,,,,,,,,,,,,,,,,,,,,,,,,,,,,,,,,,,,,,,,,,,,,,,,,,,,
,,1,0.2718,1,0.2718,0,95,95,13,1,26,tomato,yogurt,,90313,001,2022-04-25_03h15.10.325,SPAMnetsValid,2021.1.4,Win32,359.4536305,,,,,,,,,,,,,,,,,,,,,,,,,,,,,,,,,,,,,,,,,,,,,,,,,,,,,,,,,,,,,,,,,,,,,,,,,,,,,,,,,,,,,,,,,
,,7,8.432,7,8.432,0,96,96,66,1,20,rose,tree,,90313,001,2022-04-25_03h15.10.325,SPAMnetsValid,2021.1.4,Win32,359.4536305,,,,,,,,,,,,,,,,,,,,,,,,,,,,,,,,,,,,,,,,,,,,,,,,,,,,,,,,,,,,,,,,,,,,,,,,,,,,,,,,,,,,,,,,,
,,,,,,,,,,,,,,,90313,001,2022-04-25_03h15.10.325,SPAMnetsValid,2021.1.4,Win32,359.4536305,0,0,0,0,1,,,,,,,,,,,,,,,,,,,,,,,,,,,,,,,,,,,,,,,,,,,,,,,,,,,,,,,,,,,,,,,,,,,,,,,,,,,,,,,,,,,,
,,,,,,,,,,,,,,,90313,001,2022-04-25_03h15.10.325,SPAMnetsValid,2021.1.4,Win32,359.4536305,,,,,,0,0,0,0,1,1,0,,,,,,,,,,,,,,,,,,,,,,,,,,,,,,,,,,,,,,,,,,,,,,,,,,,,,,,,,,,,,,,,,,,,,,,,,,,,,
,,,,3,9.0055,,,,,,144,cake,garden,,90313,001,2022-04-25_03h15.10.325,SPAMnetsValid,2021.1.4,Win32,359.4536305,,,,,,,,,,,,,3,9.0055,0,0,0,58,1,,,,,,,,,,,,,,,,,,,,,,,,,,,,,,,,,,,,,,,,,,,,,,,,,,,,,,,,,,,,,,,,,,,,,,
,,,,2,0.351,,,,,,122,flower,garden,,90313,001,2022-04-25_03h15.10.325,SPAMnetsValid,2021.1.4,Win32,359.4536305,,,,,,,,,,,,,2,0.351,0,1,1,60,1,,,,,,,,,,,,,,,,,,,,,,,,,,,,,,,,,,,,,,,,,,,,,,,,,,,,,,,,,,,,,,,,,,,,,,
,,,,6,0.3849,,,,,,186,kitchen,yogurt,,90313,001,2022-04-25_03h15.10.325,SPAMnetsValid,2021.1.4,Win32,359.4536305,,,,,,,,,,,,,6,0.3849,0,2,2,48,1,,,,,,,,,,,,,,,,,,,,,,,,,,,,,,,,,,,,,,,,,,,,,,,,,,,,,,,,,,,,,,,,,,,,,,
,,,,6,2.2442,,,,,,106,cake,strawberry,,90313,001,2022-04-25_03h15.10.325,SPAMnetsValid,2021.1.4,Win32,359.4536305,,,,,,,,,,,,,6,2.2442,0,3,3,0,1,,,,,,,,,,,,,,,,,,,,,,,,,,,,,,,,,,,,,,,,,,,,,,,,,,,,,,,,,,,,,,,,,,,,,,
,,,,6,1.2579,,,,,,154,strawberry,yogurt,,90313,001,2022-04-25_03h15.10.325,SPAMnetsValid,2021.1.4,Win32,359.4536305,,,,,,,,,,,,,6,1.2579,0,4,4,28,1,,,,,,,,,,,,,,,,,,,,,,,,,,,,,,,,,,,,,,,,,,,,,,,,,,,,,,,,,,,,,,,,,,,,,,
,,,,3,0.2382,,,,,,189,onion,tree,,90313,001,2022-04-25_03h15.10.325,SPAMnetsValid,2021.1.4,Win32,359.4536305,,,,,,,,,,,,,3,0.2382,0,5,5,62,1,,,,,,,,,,,,,,,,,,,,,,,,,,,,,,,,,,,,,,,,,,,,,,,,,,,,,,,,,,,,,,,,,,,,,,
,,,,6,0.233,,,,,,194,cactus,cactus,CHECK,90313,001,2022-04-25_03h15.10.325,SPAMnetsValid,2021.1.4,Win32,359.4536305,,,,,,,,,,,,,6,0.233,0,6,6,25,1,,,,,,,,,,,,,,,,,,,,,,,,,,,,,,,,,,,,,,,,,,,,,,,,,,,,,,,,,,,,,,,,,,,,,,
,,,,3,0.7389,,,,,,120,microwave,oven,,90313,001,2022-04-25_03h15.10.325,SPAMnetsValid,2021.1.4,Win32,359.4536305,,,,,,,,,,,,,3,0.7389,0,7,7,14,1,,,,,,,,,,,,,,,,,,,,,,,,,,,,,,,,,,,,,,,,,,,,,,,,,,,,,,,,,,,,,,,,,,,,,,
,,,,6,0.2131,,,,,,118,chocolate,oven,,90313,001,2022-04-25_03h15.10.325,SPAMnetsValid,2021.1.4,Win32,359.4536305,,,,,,,,,,,,,6,0.2131,0,8,8,10,1,,,,,,,,,,,,,,,,,,,,,,,,,,,,,,,,,,,,,,,,,,,,,,,,,,,,,,,,,,,,,,,,,,,,,,
,,,,7,0.1778,,,,,,119,strawberry,tree,,90313,001,2022-04-25_03h15.10.325,SPAMnetsValid,2021.1.4,Win32,359.4536305,,,,,,,,,,,,,7,0.1778,0,9,9,18,1,,,,,,,,,,,,,,,,,,,,,,,,,,,,,,,,,,,,,,,,,,,,,,,,,,,,,,,,,,,,,,,,,,,,,,
,,,,4,0.2752,,,,,,171,cake,tomato,,90313,001,2022-04-25_03h15.10.325,SPAMnetsValid,2021.1.4,Win32,359.4536305,,,,,,,,,,,,,4,0.2752,0,10,10,88,1,,,,,,,,,,,,,,,,,,,,,,,,,,,,,,,,,,,,,,,,,,,,,,,,,,,,,,,,,,,,,,,,,,,,,,
,,,,7,0.2469,,,,,,182,flower,refrigerator,,90313,001,2022-04-25_03h15.10.325,SPAMnetsValid,2021.1.4,Win32,359.4536305,,,,,,,,,,,,,7,0.2469,0,11,11,32,1,,,,,,,,,,,,,,,,,,,,,,,,,,,,,,,,,,,,,,,,,,,,,,,,,,,,,,,,,,,,,,,,,,,,,,
,,,,3,0.252,,,,,,103,pretzel,tomato,,90313,001,2022-04-25_03h15.10.325,SPAMnetsValid,2021.1.4,Win32,359.4536305,,,,,,,,,,,,,3,0.252,0,12,12,79,1,,,,,,,,,,,,,,,,,,,,,,,,,,,,,,,,,,,,,,,,,,,,,,,,,,,,,,,,,,,,,,,,,,,,,,
,,,,7,0.2342,,,,,,116,cake,chocolate,,90313,001,2022-04-25_03h15.10.325,SPAMnetsValid,2021.1.4,Win32,359.4536305,,,,,,,,,,,,,7,0.2342,0,13,13,44,1,,,,,,,,,,,,,,,,,,,,,,,,,,,,,,,,,,,,,,,,,,,,,,,,,,,,,,,,,,,,,,,,,,,,,,
,,,,3,0.2909,,,,,,172,kitchen,melon,,90313,001,2022-04-25_03h15.10.325,SPAMnetsValid,2021.1.4,Win32,359.4536305,,,,,,,,,,,,,3,0.2909,0,14,14,77,1,,,,,,,,,,,,,,,,,,,,,,,,,,,,,,,,,,,,,,,,,,,,,,,,,,,,,,,,,,,,,,,,,,,,,,
,,,,7,0.1965,,,,,,157,refrigerator,rose,,90313,001,2022-04-25_03h15.10.325,SPAMnetsValid,2021.1.4,Win32,359.4536305,,,,,,,,,,,,,7,0.1965,0,15,15,64,1,,,,,,,,,,,,,,,,,,,,,,,,,,,,,,,,,,,,,,,,,,,,,,,,,,,,,,,,,,,,,,,,,,,,,,
,,,,3,0.2123,,,,,,155,carrot,cookie,,90313,001,2022-04-25_03h15.10.325,SPAMnetsValid,2021.1.4,Win32,359.4536305,,,,,,,,,,,,,3,0.2123,0,16,16,38,1,,,,,,,,,,,,,,,,,,,,,,,,,,,,,,,,,,,,,,,,,,,,,,,,,,,,,,,,,,,,,,,,,,,,,,
,,,,7,0.282,,,,,,164,cookie,garden,,90313,001,2022-04-25_03h15.10.325,SPAMnetsValid,2021.1.4,Win32,359.4536305,,,,,,,,,,,,,7,0.282,0,17,17,59,1,,,,,,,,,,,,,,,,,,,,,,,,,,,,,,,,,,,,,,,,,,,,,,,,,,,,,,,,,,,,,,,,,,,,,,
,,,,6,0.5742,,,,,,158,cookie,oven,,90313,001,2022-04-25_03h15.10.325,SPAMnetsValid,2021.1.4,Win32,359.4536305,,,,,,,,,,,,,6,0.5742,0,18,18,27,1,,,,,,,,,,,,,,,,,,,,,,,,,,,,,,,,,,,,,,,,,,,,,,,,,,,,,,,,,,,,,,,,,,,,,,
,,,,3,0.2284,,,,,,137,microwave,tree,,90313,001,2022-04-25_03h15.10.325,SPAMnetsValid,2021.1.4,Win32,359.4536305,,,,,,,,,,,,,3,0.2284,0,19,19,63,1,,,,,,,,,,,,,,,,,,,,,,,,,,,,,,,,,,,,,,,,,,,,,,,,,,,,,,,,,,,,,,,,,,,,,,
,,,,7,1.2716,,,,,,107,rose,tomato,,90313,001,2022-04-25_03h15.10.325,SPAMnetsValid,2021.1.4,Win32,359.4536305,,,,,,,,,,,,,7,1.2716,0,20,20,26,1,,,,,,,,,,,,,,,,,,,,,,,,,,,,,,,,,,,,,,,,,,,,,,,,,,,,,,,,,,,,,,,,,,,,,,
,,,,8,1.1099,,,,,,173,kitchen,tomato,,90313,001,2022-04-25_03h15.10.325,SPAMnetsValid,2021.1.4,Win32,359.4536305,,,,,,,,,,,,,8,1.1099,0,21,21,1,1,,,,,,,,,,,,,,,,,,,,,,,,,,,,,,,,,,,,,,,,,,,,,,,,,,,,,,,,,,,,,,,,,,,,,,
,,,,6,1.6303,,,,,,112,cake,carrot,,90313,001,2022-04-25_03h15.10.325,SPAMnetsValid,2021.1.4,Win32,359.4536305,,,,,,,,,,,,,6,1.6303,0,22,22,39,1,,,,,,,,,,,,,,,,,,,,,,,,,,,,,,,,,,,,,,,,,,,,,,,,,,,,,,,,,,,,,,,,,,,,,,
,,,,7,1.3134,,,,,,188,flower,tree,,90313,001,2022-04-25_03h15.10.325,SPAMnetsValid,2021.1.4,Win32,359.4536305,,,,,,,,,,,,,7,1.3134,0,23,23,7,1,,,,,,,,,,,,,,,,,,,,,,,,,,,,,,,,,,,,,,,,,,,,,,,,,,,,,,,,,,,,,,,,,,,,,,
,,,,3,1.1875,,,,,,104,garden,microwave,,90313,001,2022-04-25_03h15.10.325,SPAMnetsValid,2021.1.4,Win32,359.4536305,,,,,,,,,,,,,3,1.1875,0,24,24,81,1,,,,,,,,,,,,,,,,,,,,,,,,,,,,,,,,,,,,,,,,,,,,,,,,,,,,,,,,,,,,,,,,,,,,,,
,,,,6,2.6323,,,,,,100,garden,tomato,,90313,001,2022-04-25_03h15.10.325,SPAMnetsValid,2021.1.4,Win32,359.4536305,,,,,,,,,,,,,6,2.6323,0,25,25,83,1,,,,,,,,,,,,,,,,,,,,,,,,,,,,,,,,,,,,,,,,,,,,,,,,,,,,,,,,,,,,,,,,,,,,,,
,,,,5,2.2355,,,,,,177,chocolate,strawberry,,90313,001,2022-04-25_03h15.10.325,SPAMnetsValid,2021.1.4,Win32,359.4536305,,,,,,,,,,,,,5,2.2355,0,26,26,53,1,,,,,,,,,,,,,,,,,,,,,,,,,,,,,,,,,,,,,,,,,,,,,,,,,,,,,,,,,,,,,,,,,,,,,,
,,,,5,1.6183,,,,,,174,cake,pretzel,,90313,001,2022-04-25_03h15.10.325,SPAMnetsValid,2021.1.4,Win32,359.4536305,,,,,,,,,,,,,5,1.6183,0,27,27,2,1,,,,,,,,,,,,,,,,,,,,,,,,,,,,,,,,,,,,,,,,,,,,,,,,,,,,,,,,,,,,,,,,,,,,,,
,,,,2,1.45,,,,,,121,broom,microwave,,90313,001,2022-04-25_03h15.10.325,SPAMnetsValid,2021.1.4,Win32,359.4536305,,,,,,,,,,,,,2,1.45,0,28,28,95,1,,,,,,,,,,,,,,,,,,,,,,,,,,,,,,,,,,,,,,,,,,,,,,,,,,,,,,,,,,,,,,,,,,,,,,
,,,,2,0.6827,,,,,,168,cactus,flower,,90313,001,2022-04-25_03h15.10.325,SPAMnetsValid,2021.1.4,Win32,359.4536305,,,,,,,,,,,,,2,0.6827,0,29,29,51,1,,,,,,,,,,,,,,,,,,,,,,,,,,,,,,,,,,,,,,,,,,,,,,,,,,,,,,,,,,,,,,,,,,,,,,
,,,,2,1.03,,,,,,109,broom,strawberry,,90313,001,2022-04-25_03h15.10.325,SPAMnetsValid,2021.1.4,Win32,359.4536305,,,,,,,,,,,,,2,1.03,0,30,30,4,1,,,,,,,,,,,,,,,,,,,,,,,,,,,,,,,,,,,,,,,,,,,,,,,,,,,,,,,,,,,,,,,,,,,,,,
,,,,8,1.3274,,,,,,124,oven,refrigerator,,90313,001,2022-04-25_03h15.10.325,SPAMnetsValid,2021.1.4,Win32,359.4536305,,,,,,,,,,,,,8,1.3274,0,31,31,69,1,,,,,,,,,,,,,,,,,,,,,,,,,,,,,,,,,,,,,,,,,,,,,,,,,,,,,,,,,,,,,,,,,,,,,,
,,,,6,1.6081,,,,,,169,onion,yogurt,,90313,001,2022-04-25_03h15.10.325,SPAMnetsValid,2021.1.4,Win32,359.4536305,,,,,,,,,,,,,6,1.6081,0,32,32,24,1,,,,,,,,,,,,,,,,,,,,,,,,,,,,,,,,,,,,,,,,,,,,,,,,,,,,,,,,,,,,,,,,,,,,,,
,,,,2,1.7874,,,,,,126,kitchen,tree,,90313,001,2022-04-25_03h15.10.325,SPAMnetsValid,2021.1.4,Win32,359.4536305,,,,,,,,,,,,,2,1.7874,0,33,33,50,1,,,,,,,,,,,,,,,,,,,,,,,,,,,,,,,,,,,,,,,,,,,,,,,,,,,,,,,,,,,,,,,,,,,,,,
,,,,8,1.3686,,,,,,110,chocolate,cookie,,90313,001,2022-04-25_03h15.10.325,SPAMnetsValid,2021.1.4,Win32,359.4536305,,,,,,,,,,,,,8,1.3686,0,34,34,52,1,,,,,,,,,,,,,,,,,,,,,,,,,,,,,,,,,,,,,,,,,,,,,,,,,,,,,,,,,,,,,,,,,,,,,,
,,,,8,1.283,,,,,,148,flower,melon,,90313,001,2022-04-25_03h15.10.325,SPAMnetsValid,2021.1.4,Win32,359.4536305,,,,,,,,,,,,,8,1.283,0,35,35,23,1,,,,,,,,,,,,,,,,,,,,,,,,,,,,,,,,,,,,,,,,,,,,,,,,,,,,,,,,,,,,,,,,,,,,,,
,,,,7,0.9625,,,,,,132,broom,tree,,90313,001,2022-04-25_03h15.10.325,SPAMnetsValid,2021.1.4,Win32,359.4536305,,,,,,,,,,,,,7,0.9625,0,36,36,78,1,,,,,,,,,,,,,,,,,,,,,,,,,,,,,,,,,,,,,,,,,,,,,,,,,,,,,,,,,,,,,,,,,,,,,,
,,,,7,1.2774,,,,,,150,microwave,refrigerator,,90313,001,2022-04-25_03h15.10.325,SPAMnetsValid,2021.1.4,Win32,359.4536305,,,,,,,,,,,,,7,1.2774,0,37,37,66,1,,,,,,,,,,,,,,,,,,,,,,,,,,,,,,,,,,,,,,,,,,,,,,,,,,,,,,,,,,,,,,,,,,,,,,
,,,,2,1.5139,,,,,,143,pretzel,rose,,90313,001,2022-04-25_03h15.10.325,SPAMnetsValid,2021.1.4,Win32,359.4536305,,,,,,,,,,,,,2,1.5139,0,38,38,55,1,,,,,,,,,,,,,,,,,,,,,,,,,,,,,,,,,,,,,,,,,,,,,,,,,,,,,,,,,,,,,,,,,,,,,,
,,,,5,1.9021,,,,,,101,cactus,kitchen,,90313,001,2022-04-25_03h15.10.325,SPAMnetsValid,2021.1.4,Win32,359.4536305,,,,,,,,,,,,,5,1.9021,0,39,39,54,1,,,,,,,,,,,,,,,,,,,,,,,,,,,,,,,,,,,,,,,,,,,,,,,,,,,,,,,,,,,,,,,,,,,,,,
,,,,2,1.4447,,,,,,133,cake,flower,,90313,001,2022-04-25_03h15.10.325,SPAMnetsValid,2021.1.4,Win32,359.4536305,,,,,,,,,,,,,2,1.4447,0,40,40,94,1,,,,,,,,,,,,,,,,,,,,,,,,,,,,,,,,,,,,,,,,,,,,,,,,,,,,,,,,,,,,,,,,,,,,,,
,,,,3,2.0131,,,,,,147,cake,refrigerator,,90313,001,2022-04-25_03h15.10.325,SPAMnetsValid,2021.1.4,Win32,359.4536305,,,,,,,,,,,,,3,2.0131,0,41,41,35,1,,,,,,,,,,,,,,,,,,,,,,,,,,,,,,,,,,,,,,,,,,,,,,,,,,,,,,,,,,,,,,,,,,,,,,
,,,,7,3.5578,,,,,,163,melon,refrigerator,,90313,001,2022-04-25_03h15.10.325,SPAMnetsValid,2021.1.4,Win32,359.4536305,,,,,,,,,,,,,7,3.5578,0,42,42,29,1,,,,,,,,,,,,,,,,,,,,,,,,,,,,,,,,,,,,,,,,,,,,,,,,,,,,,,,,,,,,,,,,,,,,,,
,,,,7,1.0515,,,,,,178,cactus,carrot,,90313,001,2022-04-25_03h15.10.325,SPAMnetsValid,2021.1.4,Win32,359.4536305,,,,,,,,,,,,,7,1.0515,0,43,43,75,1,,,,,,,,,,,,,,,,,,,,,,,,,,,,,,,,,,,,,,,,,,,,,,,,,,,,,,,,,,,,,,,,,,,,,,
,,,,2,1.3017,,,,,,149,broom,tomato,,90313,001,2022-04-25_03h15.10.325,SPAMnetsValid,2021.1.4,Win32,359.4536305,,,,,,,,,,,,,2,1.3017,0,44,44,20,1,,,,,,,,,,,,,,,,,,,,,,,,,,,,,,,,,,,,,,,,,,,,,,,,,,,,,,,,,,,,,,,,,,,,,,
,,,,7,1.6437,,,,,,166,cake,yogurt,,90313,001,2022-04-25_03h15.10.325,SPAMnetsValid,2021.1.4,Win32,359.4536305,,,,,,,,,,,,,7,1.6437,0,45,45,91,1,,,,,,,,,,,,,,,,,,,,,,,,,,,,,,,,,,,,,,,,,,,,,,,,,,,,,,,,,,,,,,,,,,,,,,
,,,,2,1.8661,,,,,,190,microwave,strawberry,,90313,001,2022-04-25_03h15.10.325,SPAMnetsValid,2021.1.4,Win32,359.4536305,,,,,,,,,,,,,2,1.8661,0,46,46,90,1,,,,,,,,,,,,,,,,,,,,,,,,,,,,,,,,,,,,,,,,,,,,,,,,,,,,,,,,,,,,,,,,,,,,,,
,,,,8,2.7158,,,,,,115,refrigerator,tomato,,90313,001,2022-04-25_03h15.10.325,SPAMnetsValid,2021.1.4,Win32,359.4536305,,,,,,,,,,,,,8,2.7158,0,47,47,85,1,,,,,,,,,,,,,,,,,,,,,,,,,,,,,,,,,,,,,,,,,,,,,,,,,,,,,,,,,,,,,,,,,,,,,,
,,,,9,2.1076,,,,,,138,flower,rose,,90313,001,2022-04-25_03h15.10.325,SPAMnetsValid,2021.1.4,Win32,359.4536305,,,,,,,,,,,,,9,2.1076,0,48,48,61,1,,,,,,,,,,,,,,,,,,,,,,,,,,,,,,,,,,,,,,,,,,,,,,,,,,,,,,,,,,,,,,,,,,,,,,
,,,,9,1.1167,,,,,,193,melon,melon,CHECK,90313,001,2022-04-25_03h15.10.325,SPAMnetsValid,2021.1.4,Win32,359.4536305,,,,,,,,,,,,,9,1.1167,0,49,49,86,1,,,,,,,,,,,,,,,,,,,,,,,,,,,,,,,,,,,,,,,,,,,,,,,,,,,,,,,,,,,,,,,,,,,,,,
,,,,7,2.272,,,,,,139,carrot,strawberry,,90313,001,2022-04-25_03h15.10.325,SPAMnetsValid,2021.1.4,Win32,359.4536305,,,,,,,,,,,,,7,2.272,0,50,50,37,1,,,,,,,,,,,,,,,,,,,,,,,,,,,,,,,,,,,,,,,,,,,,,,,,,,,,,,,,,,,,,,,,,,,,,,
,,,,3,3.9811,,,,,,102,chocolate,refrigerator,,90313,001,2022-04-25_03h15.10.325,SPAMnetsValid,2021.1.4,Win32,359.4536305,,,,,,,,,,,,,3,3.9811,0,51,51,76,1,,,,,,,,,,,,,,,,,,,,,,,,,,,,,,,,,,,,,,,,,,,,,,,,,,,,,,,,,,,,,,,,,,,,,,
,,,,2,9.0029,,,,,,151,microwave,onion,,90313,001,2022-04-25_03h15.10.325,SPAMnetsValid,2021.1.4,Win32,359.4536305,,,,,,,,,,,,,2,9.0029,0,52,52,6,1,,,,,,,,,,,,,,,,,,,,,,,,,,,,,,,,,,,,,,,,,,,,,,,,,,,,,,,,,,,,,,,,,,,,,,
,,,,3,1.2436,,,,,,175,melon,onion,,90313,001,2022-04-25_03h15.10.325,SPAMnetsValid,2021.1.4,Win32,359.4536305,,,,,,,,,,,,,3,1.2436,0,53,53,41,1,,,,,,,,,,,,,,,,,,,,,,,,,,,,,,,,,,,,,,,,,,,,,,,,,,,,,,,,,,,,,,,,,,,,,,
,,,,3,0.9904,,,,,,185,cactus,rose,,90313,001,2022-04-25_03h15.10.325,SPAMnetsValid,2021.1.4,Win32,359.4536305,,,,,,,,,,,,,3,0.9904,0,54,54,43,1,,,,,,,,,,,,,,,,,,,,,,,,,,,,,,,,,,,,,,,,,,,,,,,,,,,,,,,,,,,,,,,,,,,,,,
,,,,3,0.8189,,,,,,129,cactus,refrigerator,,90313,001,2022-04-25_03h15.10.325,SPAMnetsValid,2021.1.4,Win32,359.4536305,,,,,,,,,,,,,3,0.8189,0,55,55,3,1,,,,,,,,,,,,,,,,,,,,,,,,,,,,,,,,,,,,,,,,,,,,,,,,,,,,,,,,,,,,,,,,,,,,,,
,,,,3,0.9329,,,,,,97,chocolate,kitchen,,90313,001,2022-04-25_03h15.10.325,SPAMnetsValid,2021.1.4,Win32,359.4536305,,,,,,,,,,,,,3,0.9329,0,56,56,8,1,,,,,,,,,,,,,,,,,,,,,,,,,,,,,,,,,,,,,,,,,,,,,,,,,,,,,,,,,,,,,,,,,,,,,,
,,,,3,1.2041,,,,,,152,cactus,strawberry,,90313,001,2022-04-25_03h15.10.325,SPAMnetsValid,2021.1.4,Win32,359.4536305,,,,,,,,,,,,,3,1.2041,0,57,57,49,1,,,,,,,,,,,,,,,,,,,,,,,,,,,,,,,,,,,,,,,,,,,,,,,,,,,,,,,,,,,,,,,,,,,,,,
,,,,3,0.732,,,,,,179,broom,oven,,90313,001,2022-04-25_03h15.10.325,SPAMnetsValid,2021.1.4,Win32,359.4536305,,,,,,,,,,,,,3,0.732,0,58,58,45,1,,,,,,,,,,,,,,,,,,,,,,,,,,,,,,,,,,,,,,,,,,,,,,,,,,,,,,,,,,,,,,,,,,,,,,
,,,,7,2.5686,,,,,,170,cookie,microwave,,90313,001,2022-04-25_03h15.10.325,SPAMnetsValid,2021.1.4,Win32,359.4536305,,,,,,,,,,,,,7,2.5686,0,59,59,92,1,,,,,,,,,,,,,,,,,,,,,,,,,,,,,,,,,,,,,,,,,,,,,,,,,,,,,,,,,,,,,,,,,,,,,,
,,,,3,0.9919,,,,,,176,cactus,tomato,,90313,001,2022-04-25_03h15.10.325,SPAMnetsValid,2021.1.4,Win32,359.4536305,,,,,,,,,,,,,3,0.9919,0,60,60,9,1,,,,,,,,,,,,,,,,,,,,,,,,,,,,,,,,,,,,,,,,,,,,,,,,,,,,,,,,,,,,,,,,,,,,,,
,,,,6,2.4762,,,,,,153,carrot,pretzel,,90313,001,2022-04-25_03h15.10.325,SPAMnetsValid,2021.1.4,Win32,359.4536305,,,,,,,,,,,,,6,2.4762,0,61,61,34,1,,,,,,,,,,,,,,,,,,,,,,,,,,,,,,,,,,,,,,,,,,,,,,,,,,,,,,,,,,,,,,,,,,,,,,
,,,,2,1.4917,,,,,,135,carrot,oven,,90313,001,2022-04-25_03h15.10.325,SPAMnetsValid,2021.1.4,Win32,359.4536305,,,,,,,,,,,,,2,1.4917,0,62,62,73,1,,,,,,,,,,,,,,,,,,,,,,,,,,,,,,,,,,,,,,,,,,,,,,,,,,,,,,,,,,,,,,,,,,,,,,
,,,,6,2.2477,,,,,,113,refrigerator,strawberry,,90313,001,2022-04-25_03h15.10.325,SPAMnetsValid,2021.1.4,Win32,359.4536305,,,,,,,,,,,,,6,2.2477,0,63,63,56,1,,,,,,,,,,,,,,,,,,,,,,,,,,,,,,,,,,,,,,,,,,,,,,,,,,,,,,,,,,,,,,,,,,,,,,
,,,,2,2.0452,,,,,,184,oven,pretzel,,90313,001,2022-04-25_03h15.10.325,SPAMnetsValid,2021.1.4,Win32,359.4536305,,,,,,,,,,,,,2,2.0452,0,64,64,42,1,,,,,,,,,,,,,,,,,,,,,,,,,,,,,,,,,,,,,,,,,,,,,,,,,,,,,,,,,,,,,,,,,,,,,,
,,,,2,0.8908,,,,,,127,cactus,chocolate,,90313,001,2022-04-25_03h15.10.325,SPAMnetsValid,2021.1.4,Win32,359.4536305,,,,,,,,,,,,,2,0.8908,0,65,65,57,1,,,,,,,,,,,,,,,,,,,,,,,,,,,,,,,,,,,,,,,,,,,,,,,,,,,,,,,,,,,,,,,,,,,,,,
,,,,2,0.8882,,,,,,131,cactus,garden,,90313,001,2022-04-25_03h15.10.325,SPAMnetsValid,2021.1.4,Win32,359.4536305,,,,,,,,,,,,,2,0.8882,0,66,66,33,1,,,,,,,,,,,,,,,,,,,,,,,,,,,,,,,,,,,,,,,,,,,,,,,,,,,,,,,,,,,,,,,,,,,,,,
,,,,5,1.9262,,,,,,161,kitchen,pretzel,,90313,001,2022-04-25_03h15.10.325,SPAMnetsValid,2021.1.4,Win32,359.4536305,,,,,,,,,,,,,5,1.9262,0,67,67,36,1,,,,,,,,,,,,,,,,,,,,,,,,,,,,,,,,,,,,,,,,,,,,,,,,,,,,,,,,,,,,,,,,,,,,,,
,,,,2,1.9086,,,,,,96,oven,strawberry,,90313,001,2022-04-25_03h15.10.325,SPAMnetsValid,2021.1.4,Win32,359.4536305,,,,,,,,,,,,,2,1.9086,0,68,68,67,1,,,,,,,,,,,,,,,,,,,,,,,,,,,,,,,,,,,,,,,,,,,,,,,,,,,,,,,,,,,,,,,,,,,,,,
,,,,1,2.1224,,,,,,162,microwave,tomato,,90313,001,2022-04-25_03h15.10.325,SPAMnetsValid,2021.1.4,Win32,359.4536305,,,,,,,,,,,,,1,2.1224,0,69,69,12,1,,,,,,,,,,,,,,,,,,,,,,,,,,,,,,,,,,,,,,,,,,,,,,,,,,,,,,,,,,,,,,,,,,,,,,
,,,,6,1.6248,,,,,,165,onion,rose,,90313,001,2022-04-25_03h15.10.325,SPAMnetsValid,2021.1.4,Win32,359.4536305,,,,,,,,,,,,,6,1.6248,0,70,70,40,1,,,,,,,,,,,,,,,,,,,,,,,,,,,,,,,,,,,,,,,,,,,,,,,,,,,,,,,,,,,,,,,,,,,,,,
,,,,2,1.2773,,,,,,128,melon,microwave,,90313,001,2022-04-25_03h15.10.325,SPAMnetsValid,2021.1.4,Win32,359.4536305,,,,,,,,,,,,,2,1.2773,0,71,71,74,1,,,,,,,,,,,,,,,,,,,,,,,,,,,,,,,,,,,,,,,,,,,,,,,,,,,,,,,,,,,,,,,,,,,,,,
,,,,3,1.1131,,,,,,180,tree,yogurt,,90313,001,2022-04-25_03h15.10.325,SPAMnetsValid,2021.1.4,Win32,359.4536305,,,,,,,,,,,,,3,1.1131,0,72,72,68,1,,,,,,,,,,,,,,,,,,,,,,,,,,,,,,,,,,,,,,,,,,,,,,,,,,,,,,,,,,,,,,,,,,,,,,
,,,,7,2.3302,,,,,,160,cookie,kitchen,,90313,001,2022-04-25_03h15.10.325,SPAMnetsValid,2021.1.4,Win32,359.4536305,,,,,,,,,,,,,7,2.3302,0,73,73,65,1,,,,,,,,,,,,,,,,,,,,,,,,,,,,,,,,,,,,,,,,,,,,,,,,,,,,,,,,,,,,,,,,,,,,,,
,,,,5,2.2949,,,,,,117,melon,strawberry,,90313,001,2022-04-25_03h15.10.325,SPAMnetsValid,2021.1.4,Win32,359.4536305,,,,,,,,,,,,,5,2.2949,0,74,74,11,1,,,,,,,,,,,,,,,,,,,,,,,,,,,,,,,,,,,,,,,,,,,,,,,,,,,,,,,,,,,,,,,,,,,,,,
,,,,3,1.5603,,,,,,134,carrot,flower,,90313,001,2022-04-25_03h15.10.325,SPAMnetsValid,2021.1.4,Win32,359.4536305,,,,,,,,,,,,,3,1.5603,0,75,75,93,1,,,,,,,,,,,,,,,,,,,,,,,,,,,,,,,,,,,,,,,,,,,,,,,,,,,,,,,,,,,,,,,,,,,,,,
,,,,2,1.7633,,,,,,183,cake,rose,,90313,001,2022-04-25_03h15.10.325,SPAMnetsValid,2021.1.4,Win32,359.4536305,,,,,,,,,,,,,2,1.7633,0,76,76,19,1,,,,,,,,,,,,,,,,,,,,,,,,,,,,,,,,,,,,,,,,,,,,,,,,,,,,,,,,,,,,,,,,,,,,,,
,,,,3,1.2903,,,,,,145,cactus,yogurt,,90313,001,2022-04-25_03h15.10.325,SPAMnetsValid,2021.1.4,Win32,359.4536305,,,,,,,,,,,,,3,1.2903,0,77,77,15,1,,,,,,,,,,,,,,,,,,,,,,,,,,,,,,,,,,,,,,,,,,,,,,,,,,,,,,,,,,,,,,,,,,,,,,
,,,,9,1.155,,,,,,142,garden,tree,,90313,001,2022-04-25_03h15.10.325,SPAMnetsValid,2021.1.4,Win32,359.4536305,,,,,,,,,,,,,9,1.155,0,78,78,22,1,,,,,,,,,,,,,,,,,,,,,,,,,,,,,,,,,,,,,,,,,,,,,,,,,,,,,,,,,,,,,,,,,,,,,,
,,,,2,1.9836,,,,,,159,cookie,flower,,90313,001,2022-04-25_03h15.10.325,SPAMnetsValid,2021.1.4,Win32,359.4536305,,,,,,,,,,,,,2,1.9836,0,79,79,21,1,,,,,,,,,,,,,,,,,,,,,,,,,,,,,,,,,,,,,,,,,,,,,,,,,,,,,,,,,,,,,,,,,,,,,,
,,,,1,1.4855,,,,,,114,cookie,strawberry,,90313,001,2022-04-25_03h15.10.325,SPAMnetsValid,2021.1.4,Win32,359.4536305,,,,,,,,,,,,,1,1.4855,0,80,80,87,1,,,,,,,,,,,,,,,,,,,,,,,,,,,,,,,,,,,,,,,,,,,,,,,,,,,,,,,,,,,,,,,,,,,,,,
,,,,5,1.674,,,,,,146,pretzel,tree,,90313,001,2022-04-25_03h15.10.325,SPAMnetsValid,2021.1.4,Win32,359.4536305,,,,,,,,,,,,,5,1.674,0,81,81,80,1,,,,,,,,,,,,,,,,,,,,,,,,,,,,,,,,,,,,,,,,,,,,,,,,,,,,,,,,,,,,,,,,,,,,,,
,,,,5,1.296,,,,,,187,cactus,microwave,,90313,001,2022-04-25_03h15.10.325,SPAMnetsValid,2021.1.4,Win32,359.4536305,,,,,,,,,,,,,5,1.296,0,82,82,71,1,,,,,,,,,,,,,,,,,,,,,,,,,,,,,,,,,,,,,,,,,,,,,,,,,,,,,,,,,,,,,,,,,,,,,,
,,,,5,0.0665,,,,,,141,melon,tomato,,90313,001,2022-04-25_03h15.10.325,SPAMnetsValid,2021.1.4,Win32,359.4536305,,,,,,,,,,,,,5,0.0665,0,83,83,70,1,,,,,,,,,,,,,,,,,,,,,,,,,,,,,,,,,,,,,,,,,,,,,,,,,,,,,,,,,,,,,,,,,,,,,,
,,,,1,2.438,,,,,,108,carrot,chocolate,,90313,001,2022-04-25_03h15.10.325,SPAMnetsValid,2021.1.4,Win32,359.4536305,,,,,,,,,,,,,1,2.438,0,84,84,5,1,,,,,,,,,,,,,,,,,,,,,,,,,,,,,,,,,,,,,,,,,,,,,,,,,,,,,,,,,,,,,,,,,,,,,,
,,,,3,1.2845,,,,,,156,melon,rose,,90313,001,2022-04-25_03h15.10.325,SPAMnetsValid,2021.1.4,Win32,359.4536305,,,,,,,,,,,,,3,1.2845,0,85,85,31,1,,,,,,,,,,,,,,,,,,,,,,,,,,,,,,,,,,,,,,,,,,,,,,,,,,,,,,,,,,,,,,,,,,,,,,
,,,,7,2.3892,,,,,,130,microwave,yogurt,,90313,001,2022-04-25_03h15.10.325,SPAMnetsValid,2021.1.4,Win32,359.4536305,,,,,,,,,,,,,7,2.3892,0,86,86,84,1,,,,,,,,,,,,,,,,,,,,,,,,,,,,,,,,,,,,,,,,,,,,,,,,,,,,,,,,,,,,,,,,,,,,,,
,,,,7,1.6963,,,,,,140,cookie,refrigerator,,90313,001,2022-04-25_03h15.10.325,SPAMnetsValid,2021.1.4,Win32,359.4536305,,,,,,,,,,,,,7,1.6963,0,87,87,89,1,,,,,,,,,,,,,,,,,,,,,,,,,,,,,,,,,,,,,,,,,,,,,,,,,,,,,,,,,,,,,,,,,,,,,,
,,,,7,1.663,,,,,,167,carrot,garden,,90313,001,2022-04-25_03h15.10.325,SPAMnetsValid,2021.1.4,Win32,359.4536305,,,,,,,,,,,,,7,1.663,0,88,88,47,1,,,,,,,,,,,,,,,,,,,,,,,,,,,,,,,,,,,,,,,,,,,,,,,,,,,,,,,,,,,,,,,,,,,,,,
,,,,2,1.4935,,,,,,123,cookie,tree,,90313,001,2022-04-25_03h15.10.325,SPAMnetsValid,2021.1.4,Win32,359.4536305,,,,,,,,,,,,,2,1.4935,0,89,89,46,1,,,,,,,,,,,,,,,,,,,,,,,,,,,,,,,,,,,,,,,,,,,,,,,,,,,,,,,,,,,,,,,,,,,,,,
,,,,5,1.5514,,,,,,98,pretzel,strawberry,,90313,001,2022-04-25_03h15.10.325,SPAMnetsValid,2021.1.4,Win32,359.4536305,,,,,,,,,,,,,5,1.5514,0,90,90,82,1,,,,,,,,,,,,,,,,,,,,,,,,,,,,,,,,,,,,,,,,,,,,,,,,,,,,,,,,,,,,,,,,,,,,,,
,,,,6,2.9193,,,,,,125,carrot,tree,,90313,001,2022-04-25_03h15.10.325,SPAMnetsValid,2021.1.4,Win32,359.4536305,,,,,,,,,,,,,6,2.9193,0,91,91,30,1,,,,,,,,,,,,,,,,,,,,,,,,,,,,,,,,,,,,,,,,,,,,,,,,,,,,,,,,,,,,,,,,,,,,,,
,,,,1,1.2435,,,,,,181,carrot,kitchen,,90313,001,2022-04-25_03h15.10.325,SPAMnetsValid,2021.1.4,Win32,359.4536305,,,,,,,,,,,,,1,1.2435,0,92,92,72,1,,,,,,,,,,,,,,,,,,,,,,,,,,,,,,,,,,,,,,,,,,,,,,,,,,,,,,,,,,,,,,,,,,,,,,
,,,,5,2.2466,,,,,,99,garden,melon,,90313,001,2022-04-25_03h15.10.325,SPAMnetsValid,2021.1.4,Win32,359.4536305,,,,,,,,,,,,,5,2.2466,0,93,93,17,1,,,,,,,,,,,,,,,,,,,,,,,,,,,,,,,,,,,,,,,,,,,,,,,,,,,,,,,,,,,,,,,,,,,,,,
,,,,2,2.0472,,,,,,136,chocolate,microwave,,90313,001,2022-04-25_03h15.10.325,SPAMnetsValid,2021.1.4,Win32,359.4536305,,,,,,,,,,,,,2,2.0472,0,94,94,96,1,,,,,,,,,,,,,,,,,,,,,,,,,,,,,,,,,,,,,,,,,,,,,,,,,,,,,,,,,,,,,,,,,,,,,,
,,,,2,0.7213,,,,,,105,cactus,oven,,90313,001,2022-04-25_03h15.10.325,SPAMnetsValid,2021.1.4,Win32,359.4536305,,,,,,,,,,,,,2,0.7213,0,95,95,13,1,,,,,,,,,,,,,,,,,,,,,,,,,,,,,,,,,,,,,,,,,,,,,,,,,,,,,,,,,,,,,,,,,,,,,,
,,,,2,2.2551,,,,,,111,carrot,microwave,,90313,001,2022-04-25_03h15.10.325,SPAMnetsValid,2021.1.4,Win32,359.4536305,,,,,,,,,,,,,2,2.2551,0,96,96,16,1,,,,,,,,,,,,,,,,,,,,,,,,,,,,,,,,,,,,,,,,,,,,,,,,,,,,,,,,,,,,,,,,,,,,,,
,,,,,,,,,,,,,,,90313,001,2022-04-25_03h15.10.325,SPAMnetsValid,2021.1.4,Win32,359.4536305,,,,,,,,,,,,,,,,,,,,0,0,0,0,1,,,,,,,,,,,,,,,,,,,,,,,,,,,,,,,,,,,,,,,,,,,,,,,,,,,,,,,,,,,,,,,,,
,,,,,,,,,,,,,,,90313,001,2022-04-25_03h15.10.325,SPAMnetsValid,2021.1.4,Win32,359.4536305,,,,,,0,1,1,1,1,0,1,,,,,,,,,,,,,,,,,,,,,,,,,,,,,,,,,,,,,,,,,,,,,,,,,,,,,,,,,,,,,,,,,,,,,,,,,,,,,
,,,,,,,,,,,,,,,90313,001,2022-04-25_03h15.10.325,SPAMnetsValid,2021.1.4,Win32,359.4536305,,,,,,,,,,,,,,,,,,,,,,,,,3,5.9057,0,0,0,0,1,rancor,forbearance,ridicule,malice,bravery,3,,,,,,,,,,,,,,,,,,,,,,,,,,,,,,,,,,,,,,,,,,,,,,,,,,,,
,,,,,,,,,,,,,,,90313,001,2022-04-25_03h15.10.325,SPAMnetsValid,2021.1.4,Win32,359.4536305,,,,,,,,,,,,,,,,,,,,,,,,,2,13.7285,0,1,1,1,1,raucous,empty,quiet,smooth,harsh,4,,,,,,,,,,,,,,,,,,,,,,,,,,,,,,,,,,,,,,,,,,,,,,,,,,,,
,,,,,,,,,,,,,,,90313,001,2022-04-25_03h15.10.325,SPAMnetsValid,2021.1.4,Win32,359.4536305,,,,,,,,,,,,,,,,,,,,,,,,,3,9.8134,0,2,2,2,1,gargoyle,oil,medicine,carved waterspout,ugly building,3,,,,,,,,,,,,,,,,,,,,,,,,,,,,,,,,,,,,,,,,,,,,,,,,,,,,
,,,,,,,,,,,,,,,90313,001,2022-04-25_03h15.10.325,SPAMnetsValid,2021.1.4,Win32,359.4536305,,,,,,,,,,,,,,,,,,,,,,,,,2,17.5947,0,3,3,3,1,recrudesce,purify,renew activity,lack refinement,crush,2,,,,,,,,,,,,,,,,,,,,,,,,,,,,,,,,,,,,,,,,,,,,,,,,,,,,
,,,,,,,,,,,,,,,90313,001,2022-04-25_03h15.10.325,SPAMnetsValid,2021.1.4,Win32,359.4536305,,,,,,,,,,,,,,,,,,,,,,,,,1,5.8667,0,4,4,4,1,specious,"plausible, but not genuine",noteworthy,class or variety,roomy,1,,,,,,,,,,,,,,,,,,,,,,,,,,,,,,,,,,,,,,,,,,,,,,,,,,,,
,,,,,,,,,,,,,,,90313,001,2022-04-25_03h15.10.325,SPAMnetsValid,2021.1.4,Win32,359.4536305,,,,,,,,,,,,,,,,,,,,,,,,,2,4.4995,0,5,5,5,1,bauble,bubble,showy plaything,idle talk,confusion,2,,,,,,,,,,,,,,,,,,,,,,,,,,,,,,,,,,,,,,,,,,,,,,,,,,,,
,,,,,,,,,,,,,,,90313,001,2022-04-25_03h15.10.325,SPAMnetsValid,2021.1.4,Win32,359.4536305,,,,,,,,,,,,,,,,,,,,,,,,,2,14.0455,0,6,6,6,1,prolific,scarce,producing abundantly,reckless,speaking profanely,2,,,,,,,,,,,,,,,,,,,,,,,,,,,,,,,,,,,,,,,,,,,,,,,,,,,,
,,,,,,,,,,,,,,,90313,001,2022-04-25_03h15.10.325,SPAMnetsValid,2021.1.4,Win32,359.4536305,,,,,,,,,,,,,,,,,,,,,,,,,2,12.0539,0,7,7,7,1,opulent,party,wealthy,happy frame of mind,semiprecious stone,2,,,,,,,,,,,,,,,,,,,,,,,,,,,,,,,,,,,,,,,,,,,,,,,,,,,,
,,,,,,,,,,,,,,,90313,001,2022-04-25_03h15.10.325,SPAMnetsValid,2021.1.4,Win32,359.4536305,,,,,,,,,,,,,,,,,,,,,,,,,3,27.4485,0,8,8,8,1,coercion,conspiracy,strategy,restraint,attraction,3,,,,,,,,,,,,,,,,,,,,,,,,,,,,,,,,,,,,,,,,,,,,,,,,,,,,
,,,,,,,,,,,,,,,90313,001,2022-04-25_03h15.10.325,SPAMnetsValid,2021.1.4,Win32,359.4536305,,,,,,,,,,,,,,,,,,,,,,,,,4,14.4565,0,9,9,9,1,hiatus,animal,calamity,dread,gap,4,,,,,,,,,,,,,,,,,,,,,,,,,,,,,,,,,,,,,,,,,,,,,,,,,,,,
,,,,,,,,,,,,,,,90313,001,2022-04-25_03h15.10.325,SPAMnetsValid,2021.1.4,Win32,359.4536305,,,,,,,,,,,,,,,,,,,,,,,,,3,10.9455,0,10,10,10,1,germane,microbe,contagious,relevant,different,3,,,,,,,,,,,,,,,,,,,,,,,,,,,,,,,,,,,,,,,,,,,,,,,,,,,,
,,,,,,,,,,,,,,,90313,001,2022-04-25_03h15.10.325,SPAMnetsValid,2021.1.4,Win32,359.4536305,,,,,,,,,,,,,,,,,,,,,,,,,3,12.6685,0,11,11,11,1,perfunctory,fundamental,formal,superficial,careful,3,,,,,,,,,,,,,,,,,,,,,,,,,,,,,,,,,,,,,,,,,,,,,,,,,,,,
,,,,,,,,,,,,,,,90313,001,2022-04-25_03h15.10.325,SPAMnetsValid,2021.1.4,Win32,359.4536305,,,,,,,,,,,,,,,,,,,,,,,,,3,8.5386,0,12,12,12,1,diverge,reveal,chant,distract the attention of,differ or turn off from,4,,,,,,,,,,,,,,,,,,,,,,,,,,,,,,,,,,,,,,,,,,,,,,,,,,,,
,,,,,,,,,,,,,,,90313,001,2022-04-25_03h15.10.325,SPAMnetsValid,2021.1.4,Win32,359.4536305,,,,,,,,,,,,,,,,,,,,,,,,,4,3.5707,0,13,13,13,1,evoke,take away,anger,connect,bring out,4,,,,,,,,,,,,,,,,,,,,,,,,,,,,,,,,,,,,,,,,,,,,,,,,,,,,
,,,,,,,,,,,,,,,90313,001,2022-04-25_03h15.10.325,SPAMnetsValid,2021.1.4,Win32,359.4536305,,,,,,,,,,,,,,,,,,,,,,,,,1,9.4161,0,14,14,14,1,pertinent,relevant,lying next to,necessary,bold,1,,,,,,,,,,,,,,,,,,,,,,,,,,,,,,,,,,,,,,,,,,,,,,,,,,,,
,,,,,,,,,,,,,,,90313,001,2022-04-25_03h15.10.325,SPAMnetsValid,2021.1.4,Win32,359.4536305,,,,,,,,,,,,,,,,,,,,,,,,,2,4.9262,0,15,15,15,1,holocaust,entirety,destruction,saintly,price,2,,,,,,,,,,,,,,,,,,,,,,,,,,,,,,,,,,,,,,,,,,,,,,,,,,,,
,,,,,,,,,,,,,,,90313,001,2022-04-25_03h15.10.325,SPAMnetsValid,2021.1.4,Win32,359.4536305,,,,,,,,,,,,,,,,,,,,,,,,,3,11.1143,0,16,16,16,1,piquant,mellow,fish,pungent,cloth,3,,,,,,,,,,,,,,,,,,,,,,,,,,,,,,,,,,,,,,,,,,,,,,,,,,,,
,,,,,,,,,,,,,,,90313,001,2022-04-25_03h15.10.325,SPAMnetsValid,2021.1.4,Win32,359.4536305,,,,,,,,,,,,,,,,,,,,,,,,,2,13.9847,0,17,17,17,1,firmament,foundation,heavens,strong,glue,2,,,,,,,,,,,,,,,,,,,,,,,,,,,,,,,,,,,,,,,,,,,,,,,,,,,,
,,,,,,,,,,,,,,,90313,001,2022-04-25_03h15.10.325,SPAMnetsValid,2021.1.4,Win32,359.4536305,,,,,,,,,,,,,,,,,,,,,,,,,,,,,,,,,,,,,,4,6.6726,0,0,0,0,1,marketable,partisan,jocular,marriageable,salable,essential,4,,,,,,,,,,,,,,,,,,,,,,,,,,,,,,,,,,,,,,
,,,,,,,,,,,,,,,90313,001,2022-04-25_03h15.10.325,SPAMnetsValid,2021.1.4,Win32,359.4536305,,,,,,,,,,,,,,,,,,,,,,,,,,,,,,,,,,,,,,5,17.6674,0,1,1,1,1,cottontail,squirrel,poplar,boa,marshy plant,rabbit,5,,,,,,,,,,,,,,,,,,,,,,,,,,,,,,,,,,,,,,
,,,,,,,,,,,,,,,90313,001,2022-04-25_03h15.10.325,SPAMnetsValid,2021.1.4,Win32,359.4536305,,,,,,,,,,,,,,,,,,,,,,,,,,,,,,,,,,,,,,,,0,2,2,2,1,boggy,afraid,false,marshy,dense,black,3,,,,,,,,,,,,,,,,,,,,,,,,,,,,,,,,,,,,,,
,,,,,,,,,,,,,,,90313,001,2022-04-25_03h15.10.325,SPAMnetsValid,2021.1.4,Win32,359.4536305,,,,,,,,,,,,,,,,,,,,,,,,,,,,,,,,,,,,,,3,0.9613,0,3,3,3,1,gruesomeness,blackness,falseness,vindictiveness,drunkenness,ghastliness,5,,,,,,,,,,,,,,,,,,,,,,,,,,,,,,,,,,,,,,
,,,,,,,,,,,,,,,90313,001,2022-04-25_03h15.10.325,SPAMnetsValid,2021.1.4,Win32,359.4536305,,,,,,,,,,,,,,,,,,,,,,,,,,,,,,,,,,,,,,4,0.7406,0,4,4,4,1,loathing,diffidence,laziness,abhorrence,cleverness,comfort,3,,,,,,,,,,,,,,,,,,,,,,,,,,,,,,,,,,,,,,
,,,,,,,,,,,,,,,90313,001,2022-04-25_03h15.10.325,SPAMnetsValid,2021.1.4,Win32,359.4536305,,,,,,,,,,,,,,,,,,,,,,,,,,,,,,,,,,,,,,,,0,5,5,5,1,bantam,fowl,ridicule,cripple,vegetable,ensign,1,,,,,,,,,,,,,,,,,,,,,,,,,,,,,,,,,,,,,,
,,,,,,,,,,,,,,,90313,001,2022-04-25_03h15.10.325,SPAMnetsValid,2021.1.4,Win32,359.4536305,,,,,,,,,,,,,,,,,,,,,,,,,,,,,,,,,,,,,,4,0.0252,0,6,6,6,1,evoke,wake up,surrender,reconnoiter,transcend,call forth,5,,,,,,,,,,,,,,,,,,,,,,,,,,,,,,,,,,,,,,
,,,,,,,,,,,,,,,90313,001,2022-04-25_03h15.10.325,SPAMnetsValid,2021.1.4,Win32,359.4536305,,,,,,,,,,,,,,,,,,,,,,,,,,,,,,,,,,,,,,4,0.677,0,7,7,7,1,unobtrusive,unintelligent,epileptic,illogical,lineal,modest,5,,,,,,,,,,,,,,,,,,,,,,,,,,,,,,,,,,,,,,
,,,,,,,,,,,,,,,90313,001,2022-04-25_03h15.10.325,SPAMnetsValid,2021.1.4,Win32,359.4536305,,,,,,,,,,,,,,,,,,,,,,,,,,,,,,,,,,,,,,4,0.8206,0,8,8,8,1,terrain,ice cream,final test,tractor,area of ground,weight,4,,,,,,,,,,,,,,,,,,,,,,,,,,,,,,,,,,,,,,
,,,,,,,,,,,,,,,90313,001,2022-04-25_03h15.10.325,SPAMnetsValid,2021.1.4,Win32,359.4536305,,,,,,,,,,,,,,,,,,,,,,,,,,,,,,,,,,,,,,,,0,9,9,9,1,capriciousness,stubbornness,courage,whimsicality,amazement,greediness,3,,,,,,,,,,,,,,,,,,,,,,,,,,,,,,,,,,,,,,
,,,,,,,,,,,,,,,90313,001,2022-04-25_03h15.10.325,SPAMnetsValid,2021.1.4,Win32,359.4536305,,,,,,,,,,,,,,,,,,,,,,,,,,,,,,,,,,,,,,4,2.1044,0,10,10,10,1,maelstrom,slander,whirlpool,enmity,armor,majolica,2,,,,,,,,,,,,,,,,,,,,,,,,,,,,,,,,,,,,,,
,,,,,,,,,,,,,,,90313,001,2022-04-25_03h15.10.325,SPAMnetsValid,2021.1.4,Win32,359.4536305,,,,,,,,,,,,,,,,,,,,,,,,,,,,,,,,,,,,,,3,13.5041,0,11,11,11,1,tentative,critical,conclusive,authentic,provisional,apprehensive,4,,,,,,,,,,,,,,,,,,,,,,,,,,,,,,,,,,,,,,
,,,,,,,,,,,,,,,90313,001,2022-04-25_03h15.10.325,SPAMnetsValid,2021.1.4,Win32,359.4536305,,,,,,,,,,,,,,,,,,,,,,,,,,,,,,,,,,,,,,4,2.0574,0,12,12,12,1,placate,rehabilitate,plagiarize,depredate,apprise,conciliate,5,,,,,,,,,,,,,,,,,,,,,,,,,,,,,,,,,,,,,,
,,,,,,,,,,,,,,,90313,001,2022-04-25_03h15.10.325,SPAMnetsValid,2021.1.4,Win32,359.4536305,,,,,,,,,,,,,,,,,,,,,,,,,,,,,,,,,,,,,,4,0.3464,0,13,13,13,1,surcease,enlightenment,cessation,inattention,censor,substitution,2,,,,,,,,,,,,,,,,,,,,,,,,,,,,,,,,,,,,,,
,,,,,,,,,,,,,,,90313,001,2022-04-25_03h15.10.325,SPAMnetsValid,2021.1.4,Win32,359.4536305,,,,,,,,,,,,,,,,,,,,,,,,,,,,,,,,,,,,,,2,0.7303,0,14,14,14,1,apathetic,wandering,impassive,hateful,prophetic,overflowing,2,,,,,,,,,,,,,,,,,,,,,,,,,,,,,,,,,,,,,,
,,,,,,,,,,,,,,,90313,001,2022-04-25_03h15.10.325,SPAMnetsValid,2021.1.4,Win32,359.4536305,,,,,,,,,,,,,,,,,,,,,,,,,,,,,,,,,,,,,,3,0.2127,0,15,15,15,1,paternoster,paternalism,patricide,malediction,benediction,prayer,5,,,,,,,,,,,,,,,,,,,,,,,,,,,,,,,,,,,,,,
,,,,,,,,,,,,,,,90313,001,2022-04-25_03h15.10.325,SPAMnetsValid,2021.1.4,Win32,359.4536305,,,,,,,,,,,,,,,,,,,,,,,,,,,,,,,,,,,,,,4,2.4494,0,16,16,16,1,opalescence,opulence,senescence,bankruptcy,iridescence,assiduity,4,,,,,,,,,,,,,,,,,,,,,,,,,,,,,,,,,,,,,,
,,,,,,,,,,,,,,,90313,001,2022-04-25_03h15.10.325,SPAMnetsValid,2021.1.4,Win32,359.4536305,,,,,,,,,,,,,,,,,,,,,,,,,,,,,,,,,,,,,,5,2.4175,0,17,17,17,1,lush,stupid,luxurious,hazy,putrid,languishing,2,,,,,,,,,,,,,,,,,,,,,,,,,,,,,,,,,,,,,,
,,,,,,,,,,,,,,,90313,001,2022-04-25_03h15.10.325,SPAMnetsValid,2021.1.4,Win32,359.4536305,,,,,,,,,,,,,,,,,,,,,,,,,,,,,,,,,,,,,,3,1.3592,0,18,18,18,1,curtailment,expenditure,abandonment,abridgment,improvement,forgery,3,,,,,,,,,,,,,,,,,,,,,,,,,,,,,,,,,,,,,,
,,,,,,,,,,,,,,,90313,001,2022-04-25_03h15.10.325,SPAMnetsValid,2021.1.4,Win32,359.4536305,,,,,,,,,,,,,,,,,,,,,,,,,,,,,,,,,,,,,,4,37.1745,0,19,19,19,1,perversity,adversity,perviousness,travesty,waywardness,gentility,4,,,,,,,,,,,,,,,,,,,,,,,,,,,,,,,,,,,,,,
,,,,,,,,,,,,,,,90313,001,2022-04-25_03h15.10.325,SPAMnetsValid,2021.1.4,Win32,359.4536305,,,,,,,,,,,,,,,,,,,,,,,,,,,,,,,,,,,,,,2,1.0701,0,20,20,20,1,calumnious,complimentary,analogous,slanderous,tempestuous,magnanimous,3,,,,,,,,,,,,,,,,,,,,,,,,,,,,,,,,,,,,,,
,,,,,,,,,,,,,,,90313,001,2022-04-25_03h15.10.325,SPAMnetsValid,2021.1.4,Win32,359.4536305,,,,,,,,,,,,,,,,,,,,,,,,,,,,,,,,,,,,,,2,6.7905,0,21,21,21,1,illiberality,bigotry,imbecility,illegibility,cautery,immaturity,1,,,,,,,,,,,,,,,,,,,,,,,,,,,,,,,,,,,,,,
,,,,,,,,,,,,,,,90313,001,2022-04-25_03h15.10.325,SPAMnetsValid,2021.1.4,Win32,359.4536305,,,,,,,,,,,,,,,,,,,,,,,,,,,,,,,,,,,,,,4,2.4439,0,22,22,22,1,clabber,rejoice,gossip,curdle,crow,hobble,3,,,,,,,,,,,,,,,,,,,,,,,,,,,,,,,,,,,,,,
,,,,,,,,,,,,,,,90313,001,2022-04-25_03h15.10.325,SPAMnetsValid,2021.1.4,Win32,359.4536305,,,,,,,,,,,,,,,,,,,,,,,,,,,,,,,,,,,,,,1,5.9697,0,23,23,23,1,sedulousness,diligence,credulousness,seduction,perilousness,frankness,1,,,,,,,,,,,,,,,,,,,,,,,,,,,,,,,,,,,,,,
,,,,,,,,,,,,,,,90313,001,2022-04-25_03h15.10.325,SPAMnetsValid,2021.1.4,Win32,359.4536305,,,,,,,,,,,,,,,,,,,,,,,,,,,,,,,,,,,,,,,,,,,,,,,,,,,,,candle,0,0,0,0,1,,,,,,,,,,,,,,,,,,,,,,,,,,,,,,,
,,,,,,,,,,,,,,,90313,001,2022-04-25_03h15.10.325,SPAMnetsValid,2021.1.4,Win32,359.4536305,,,,,,,,,,,,,,,,,,,,,,,,,,,,,,,,,,,,,,,,,,,,,,,,,,,,,candle,1,0,1,0,1,,,,,,,,,,,,,,,,,,,,,,,,,,,,,,,
,,,,,,,,,,,,,,,90313,001,2022-04-25_03h15.10.325,SPAMnetsValid,2021.1.4,Win32,359.4536305,,,,,,,,,,,,,,,,,,,,,,,,,,,,,,,,,,,,,,,,,,,,,,,,,,,,candling,candle,2,0,2,0,1,,,,,,,,,,,,,,,,,,,,,,,,,,,,,,,
,,,,,,,,,,,,,,,90313,001,2022-04-25_03h15.10.325,SPAMnetsValid,2021.1.4,Win32,359.4536305,,,,,,,,,,,,,,,,,,,,,,,,,,,,,,,,,,,,,,,,,,,,,,,,,,,,candle,candle,3,0,3,0,1,,,,,,,,,,,,,,,,,,,,,,,,,,,,,,,
,,,,,,,,,,,,,,,90313,001,2022-04-25_03h15.10.325,SPAMnetsValid,2021.1.4,Win32,359.4536305,,,,,,,,,,,,,,,,,,,,,,,,,,,,,,,,,,,,,,,,,,,,,,,,,,,,pop in some flower,candle,4,0,4,0,1,,,,,,,,,,,,,,,,,,,,,,,,,,,,,,,
,,,,,,,,,,,,,,,90313,001,2022-04-25_03h15.10.325,SPAMnetsValid,2021.1.4,Win32,359.4536305,,,,,,,,,,,,,,,,,,,,,,,,,,,,,,,,,,,,,,,,,,,,,,,,,,,,,,,,,,,0,0,0,1,1,candle,,,,,,,,,,,,,,,,,,,,,,,,,
,,,,,,,,,,,,,,,90313,001,2022-04-25_03h15.10.325,SPAMnetsValid,2021.1.4,Win32,359.4536305,,,,,,,,,,,,,,,,,,,,,,,,,,,,,,,,,,,,,,,,,,,,,,,,,,,,make floor cushion,pillow,0,0,0,0,1,,,,,,,,,,,,,,,,,,,,,,,,,,,,,,,
,,,,,,,,,,,,,,,90313,001,2022-04-25_03h15.10.325,SPAMnetsValid,2021.1.4,Win32,359.4536305,,,,,,,,,,,,,,,,,,,,,,,,,,,,,,,,,,,,,,,,,,,,,,,,,,,,,pillow,1,0,1,0,1,,,,,,,,,,,,,,,,,,,,,,,,,,,,,,,
,,,,,,,,,,,,,,,90313,001,2022-04-25_03h15.10.325,SPAMnetsValid,2021.1.4,Win32,359.4536305,,,,,,,,,,,,,,,,,,,,,,,,,,,,,,,,,,,,,,,,,,,,,,,,,,,,,pillow,2,0,2,0,1,,,,,,,,,,,,,,,,,,,,,,,,,,,,,,,
,,,,,,,,,,,,,,,90313,001,2022-04-25_03h15.10.325,SPAMnetsValid,2021.1.4,Win32,359.4536305,,,,,,,,,,,,,,,,,,,,,,,,,,,,,,,,,,,,,,,,,,,,,,,,,,,,,pillow,3,0,3,0,1,,,,,,,,,,,,,,,,,,,,,,,,,,,,,,,
,,,,,,,,,,,,,,,90313,001,2022-04-25_03h15.10.325,SPAMnetsValid,2021.1.4,Win32,359.4536305,,,,,,,,,,,,,,,,,,,,,,,,,,,,,,,,,,,,,,,,,,,,,,,,,,,,,pillow,4,0,4,0,1,,,,,,,,,,,,,,,,,,,,,,,,,,,,,,,
,,,,,,,,,,,,,,,90313,001,2022-04-25_03h15.10.325,SPAMnetsValid,2021.1.4,Win32,359.4536305,,,,,,,,,,,,,,,,,,,,,,,,,,,,,,,,,,,,,,,,,,,,,,,,,,,,,pillow,5,0,5,0,1,,,,,,,,,,,,,,,,,,,,,,,,,,,,,,,
,,,,,,,,,,,,,,,90313,001,2022-04-25_03h15.10.325,SPAMnetsValid,2021.1.4,Win32,359.4536305,,,,,,,,,,,,,,,,,,,,,,,,,,,,,,,,,,,,,,,,,,,,,,,,,,,,,pillow,6,0,6,0,1,,,,,,,,,,,,,,,,,,,,,,,,,,,,,,,
,,,,,,,,,,,,,,,90313,001,2022-04-25_03h15.10.325,SPAMnetsValid,2021.1.4,Win32,359.4536305,,,,,,,,,,,,,,,,,,,,,,,,,,,,,,,,,,,,,,,,,,,,,,,,,,,,,pillow,7,0,7,0,1,,,,,,,,,,,,,,,,,,,,,,,,,,,,,,,
,,,,,,,,,,,,,,,90313,001,2022-04-25_03h15.10.325,SPAMnetsValid,2021.1.4,Win32,359.4536305,,,,,,,,,,,,,,,,,,,,,,,,,,,,,,,,,,,,,,,,,,,,,,,,,,,,,pillow,8,0,8,0,1,,,,,,,,,,,,,,,,,,,,,,,,,,,,,,,
,,,,,,,,,,,,,,,90313,001,2022-04-25_03h15.10.325,SPAMnetsValid,2021.1.4,Win32,359.4536305,,,,,,,,,,,,,,,,,,,,,,,,,,,,,,,,,,,,,,,,,,,,,,,,,,,,,pillow,9,0,9,0,1,,,,,,,,,,,,,,,,,,,,,,,,,,,,,,,
,,,,,,,,,,,,,,,90313,001,2022-04-25_03h15.10.325,SPAMnetsValid,2021.1.4,Win32,359.4536305,,,,,,,,,,,,,,,,,,,,,,,,,,,,,,,,,,,,,,,,,,,,,,,,,,,,,pillow,10,0,10,0,1,,,,,,,,,,,,,,,,,,,,,,,,,,,,,,,
,,,,,,,,,,,,,,,90313,001,2022-04-25_03h15.10.325,SPAMnetsValid,2021.1.4,Win32,359.4536305,,,,,,,,,,,,,,,,,,,,,,,,,,,,,,,,,,,,,,,,,,,,,,,,,,,,,pillow,11,0,11,0,1,,,,,,,,,,,,,,,,,,,,,,,,,,,,,,,
,,,,,,,,,,,,,,,90313,001,2022-04-25_03h15.10.325,SPAMnetsValid,2021.1.4,Win32,359.4536305,,,,,,,,,,,,,,,,,,,,,,,,,,,,,,,,,,,,,,,,,,,,,,,,,,,,,,,,,,,0,1,1,2,1,pillow,,,,,,,,,,,,,,,,,,,,,,,,,
,,,,,,,,,,,,,,,90313,001,2022-04-25_03h15.10.325,SPAMnetsValid,2021.1.4,Win32,359.4536305,,,,,,,,,,,,,,,,,,,,,,,,,,,,,,,,,,,,,,,,,,,,,,,,,,,,retiling,bucket,0,0,0,0,1,,,,,,,,,,,,,,,,,,,,,,,,,,,,,,,
,,,,,,,,,,,,,,,90313,001,2022-04-25_03h15.10.325,SPAMnetsValid,2021.1.4,Win32,359.4536305,,,,,,,,,,,,,,,,,,,,,,,,,,,,,,,,,,,,,,,,,,,,,,,,,,,,,,,,,,,0,2,2,0,1,bucket,,,,,,,,,,,,,,,,,,,,,,,,,
,,,,,,,,,,,,,,,90313,001,2022-04-25_03h15.10.325,SPAMnetsValid,2021.1.4,Win32,359.4536305,,,,,,,,,,,,,,,,,,,,,,,,,,,,,,,,,,,,,,,,,,,,,,,,,,,,,,,,,,,,,,,,,,Animals,0,0,0,0,1,,,,,,,,,,,,,,,,,,
,,,,,,,,,,,,,,,90313,001,2022-04-25_03h15.10.325,SPAMnetsValid,2021.1.4,Win32,359.4536305,,,,,,,,,,,,,,,,,,,,,,,,,,,,,,,,,,,,,,,,,,,,,,,,,,,,,,,,,,,,,,,,,dog,Animals,1,0,1,0,1,,,,,,,,,,,,,,,,,,
,,,,,,,,,,,,,,,90313,001,2022-04-25_03h15.10.325,SPAMnetsValid,2021.1.4,Win32,359.4536305,,,,,,,,,,,,,,,,,,,,,,,,,,,,,,,,,,,,,,,,,,,,,,,,,,,,,,,,,,,,,,,,,cat,Animals,2,0,2,0,1,,,,,,,,,,,,,,,,,,
,,,,,,,,,,,,,,,90313,001,2022-04-25_03h15.10.325,SPAMnetsValid,2021.1.4,Win32,359.4536305,,,,,,,,,,,,,,,,,,,,,,,,,,,,,,,,,,,,,,,,,,,,,,,,,,,,,,,,,,,,,,,,,bat,Animals,3,0,3,0,1,,,,,,,,,,,,,,,,,,
,,,,,,,,,,,,,,,90313,001,2022-04-25_03h15.10.325,SPAMnetsValid,2021.1.4,Win32,359.4536305,,,,,,,,,,,,,,,,,,,,,,,,,,,,,,,,,,,,,,,,,,,,,,,,,,,,,,,,,,,,,,,,,mouse,Animals,4,0,4,0,1,,,,,,,,,,,,,,,,,,
,,,,,,,,,,,,,,,90313,001,2022-04-25_03h15.10.325,SPAMnetsValid,2021.1.4,Win32,359.4536305,,,,,,,,,,,,,,,,,,,,,,,,,,,,,,,,,,,,,,,,,,,,,,,,,,,,,,,,,,,,,,,,,pig,Animals,5,0,5,0,1,,,,,,,,,,,,,,,,,,
,,,,,,,,,,,,,,,90313,001,2022-04-25_03h15.10.325,SPAMnetsValid,2021.1.4,Win32,359.4536305,,,,,,,,,,,,,,,,,,,,,,,,,,,,,,,,,,,,,,,,,,,,,,,,,,,,,,,,,,,,,,,,,chicken,Animals,6,0,6,0,1,,,,,,,,,,,,,,,,,,
,,,,,,,,,,,,,,,90313,001,2022-04-25_03h15.10.325,SPAMnetsValid,2021.1.4,Win32,359.4536305,,,,,,,,,,,,,,,,,,,,,,,,,,,,,,,,,,,,,,,,,,,,,,,,,,,,,,,,,,,,,,,,,fish,Animals,7,0,7,0,1,,,,,,,,,,,,,,,,,,
,,,,,,,,,,,,,,,90313,001,2022-04-25_03h15.10.325,SPAMnetsValid,2021.1.4,Win32,359.4536305,,,,,,,,,,,,,,,,,,,,,,,,,,,,,,,,,,,,,,,,,,,,,,,,,,,,,,,,,,,,,,,,,bird,Animals,8,0,8,0,1,,,,,,,,,,,,,,,,,,
,,,,,,,,,,,,,,,90313,001,2022-04-25_03h15.10.325,SPAMnetsValid,2021.1.4,Win32,359.4536305,,,,,,,,,,,,,,,,,,,,,,,,,,,,,,,,,,,,,,,,,,,,,,,,,,,,,,,,,,,,,,,,,bee,Animals,9,0,9,0,1,,,,,,,,,,,,,,,,,,
,,,,,,,,,,,,,,,90313,001,2022-04-25_03h15.10.325,SPAMnetsValid,2021.1.4,Win32,359.4536305,,,,,,,,,,,,,,,,,,,,,,,,,,,,,,,,,,,,,,,,,,,,,,,,,,,,,,,,,,,,,,,,,ant,Animals,10,0,10,0,1,,,,,,,,,,,,,,,,,,
,,,,,,,,,,,,,,,90313,001,2022-04-25_03h15.10.325,SPAMnetsValid,2021.1.4,Win32,359.4536305,,,,,,,,,,,,,,,,,,,,,,,,,,,,,,,,,,,,,,,,,,,,,,,,,,,,,,,,,,,,,,,,,,,,,,,,0,0,0,0,1,Animals,,,,,,,,,,,,
,,,,,,,,,,,,,,,90313,001,2022-04-25_03h15.10.325,SPAMnetsValid,2021.1.4,Win32,359.4536305,,,,,,,,,,,,,,,,,,,,,,,,,,,,,,,,,,,,,,,,,,,,,,,,,,,,,,,,,,,,,,,,,,,,,,,,,,,,,,4,5.8705,0,0,0,0,1,"I enjoy concentrating on a fantasy or daydream and exploring all its possibilities, letting it grow and develop.",0,1,,
,,,,,,,,,,,,,,,90313,001,2022-04-25_03h15.10.325,SPAMnetsValid,2021.1.4,Win32,359.4536305,,,,,,,,,,,,,,,,,,,,,,,,,,,,,,,,,,,,,,,,,,,,,,,,,,,,,,,,,,,,,,,,,,,,,,,,,,,,,,4,1.2581,0,1,1,1,1,I think it's interesting to learn and develop new hobbies.,0,2,,
,,,,,,,,,,,,,,,90313,001,2022-04-25_03h15.10.325,SPAMnetsValid,2021.1.4,Win32,359.4536305,,,,,,,,,,,,,,,,,,,,,,,,,,,,,,,,,,,,,,,,,,,,,,,,,,,,,,,,,,,,,,,,,,,,,,,,,,,,,,4,2.0108,0,2,2,2,1,I am intrigued by the patterns I find in art and nature.,0,3,,
,,,,,,,,,,,,,,,90313,001,2022-04-25_03h15.10.325,SPAMnetsValid,2021.1.4,Win32,359.4536305,,,,,,,,,,,,,,,,,,,,,,,,,,,,,,,,,,,,,,,,,,,,,,,,,,,,,,,,,,,,,,,,,,,,,,,,,,,,,,2,4.3242,0,3,3,3,1,I believe letting students hear controversial speakers can only confuse and mislead them.,1,4,,
,,,,,,,,,,,,,,,90313,001,2022-04-25_03h15.10.325,SPAMnetsValid,2021.1.4,Win32,359.4536305,,,,,,,,,,,,,,,,,,,,,,,,,,,,,,,,,,,,,,,,,,,,,,,,,,,,,,,,,,,,,,,,,,,,,,,,,,,,,,2,3.777,0,4,4,4,1,Poetry has little or no effect on me.,1,5,,
,,,,,,,,,,,,,,,90313,001,2022-04-25_03h15.10.325,SPAMnetsValid,2021.1.4,Win32,359.4536305,,,,,,,,,,,,,,,,,,,,,,,,,,,,,,,,,,,,,,,,,,,,,,,,,,,,,,,,,,,,,,,,,,,,,,,,,,,,,,3,3.2786,0,5,5,5,1,I would have difficulty just letting my mind wander without control or guidance.,1,6,,
,,,,,,,,,,,,,,,90313,001,2022-04-25_03h15.10.325,SPAMnetsValid,2021.1.4,Win32,359.4536305,,,,,,,,,,,,,,,,,,,,,,,,,,,,,,,,,,,,,,,,,,,,,,,,,,,,,,,,,,,,,,,,,,,,,,,,,,,,,,3,0.6272,0,6,6,6,1,I seldom notice the moods or feelings that different environments produce.,1,7,,
,,,,,,,,,,,,,,,90313,001,2022-04-25_03h15.10.325,SPAMnetsValid,2021.1.4,Win32,359.4536305,,,,,,,,,,,,,,,,,,,,,,,,,,,,,,,,,,,,,,,,,,,,,,,,,,,,,,,,,,,,,,,,,,,,,,,,,,,,,,4,0.3773,0,7,7,7,1,I experience a wide range of emotions or feelings.,0,8,,
,,,,,,,,,,,,,,,90313,001,2022-04-25_03h15.10.325,SPAMnetsValid,2021.1.4,Win32,359.4536305,,,,,,,,,,,,,,,,,,,,,,,,,,,,,,,,,,,,,,,,,,,,,,,,,,,,,,,,,,,,,,,,,,,,,,,,,,,,,,4,0.6836,0,8,8,8,1,"Sometimes when I am reading poetry or looking at a work of art, I feel a chill or wave of excitement.",0,9,,
,,,,,,,,,,,,,,,90313,001,2022-04-25_03h15.10.325,SPAMnetsValid,2021.1.4,Win32,359.4536305,,,,,,,,,,,,,,,,,,,,,,,,,,,,,,,,,,,,,,,,,,,,,,,,,,,,,,,,,,,,,,,,,,,,,,,,,,,,,,3,0.2973,0,9,9,9,1,I have little interest in speculating on the nature of the universe or the human condition.,1,10,,
,,,,,,,,,,,,,,,90313,001,2022-04-25_03h15.10.325,SPAMnetsValid,2021.1.4,Win32,359.4536305,,,,,,,,,,,,,,,,,,,,,,,,,,,,,,,,,,,,,,,,,,,,,,,,,,,,,,,,,,,,,,,,,,,,,,,,,,,,,,4,0.2603,0,10,10,10,1,I have a lot of intellectual curiosity.,0,11,,
,,,,,,,,,,,,,,,90313,001,2022-04-25_03h15.10.325,SPAMnetsValid,2021.1.4,Win32,359.4536305,,,,,,,,,,,,,,,,,,,,,,,,,,,,,,,,,,,,,,,,,,,,,,,,,,,,,,,,,,,,,,,,,,,,,,,,,,,,,,3,0.5831,0,11,11,11,1,I often enjoy playing with theories or abstract ideas.,0,12,,
,,,,,,,,,,,,,,,90313,001,2022-04-25_03h15.10.325,SPAMnetsValid,2021.1.4,Win32,359.4536305,,,,,,,,,,,,,,,,,,,,,,,,,,,,,,,,,,,,,,,,,,,,,,,,,,,,,,,,,,,,,,,,,,,,,,,,,,,,,,,,,,,,,,,,return,9.23
