key_resp_3.keys,key_resp_3.rt,slider_2.response,slider_2.rt,rjt_rating,rjt_RT,trials_24.thisRepN,trials_24.thisTrialN,trials_24.thisN,trials_24.thisIndex,trials_24.ran,rjt_order,word1,word2,attention,participant,session,date,expName,psychopyVersion,OS,frameRate,trials_4.thisRepN,trials_4.thisTrialN,trials_4.thisN,trials_4.thisIndex,trials_4.ran,trials_5.thisRepN,trials_5.thisTrialN,trials_5.thisN,trials_5.thisIndex,trials_5.ran,repOne,repTwo,slider.response,slider.rt,trials_22.thisRepN,trials_22.thisTrialN,trials_22.thisN,trials_22.thisIndex,trials_22.ran,trials_99.thisRepN,trials_99.thisTrialN,trials_99.thisN,trials_99.thisIndex,trials_99.ran,slider_extend_2.response,slider_extend_2.rt,trials_6.thisRepN,trials_6.thisTrialN,trials_6.thisN,trials_6.thisIndex,trials_6.ran,vCue2,R1,R2,R3,R4,correct,sliderVocab.response,sliderVocab.rt,trials_7.thisRepN,trials_7.thisTrialN,trials_7.thisN,trials_7.thisIndex,trials_7.ran,VocabCue,VR1,VR2,VR3,VR4,VR5,VocabCorrect,AUT_resp,AUT_label,trials.thisRepN,trials.thisTrialN,trials.thisN,trials.thisIndex,trials.ran,trials_2.thisRepN,trials_2.thisTrialN,trials_2.thisN,trials_2.thisIndex,trials_2.ran,aut_prompt,VF_response,VF_tag,trials_16.thisRepN,trials_16.thisTrialN,trials_16.thisN,trials_16.thisIndex,trials_16.ran,trials_17.thisRepN,trials_17.thisTrialN,trials_17.thisN,trials_17.thisIndex,trials_17.ran,VFcond,open_slider.response,open_slider.rt,trials_3.thisRepN,trials_3.thisTrialN,trials_3.thisN,trials_3.thisIndex,trials_3.ran,OpenQ,Rev,OPEN_ORDER,key_resp_2.keys,key_resp_2.rt
return,11.4529,3,5.8136,3,5.8136,0,0,0,77,1,172,kitchen,melon,,90317,001,2022-04-29_13h24.45.661,SPAMnetsValid,2021.1.4,Win32,59.87306909,,,,,,,,,,,,,,,,,,,,,,,,,,,,,,,,,,,,,,,,,,,,,,,,,,,,,,,,,,,,,,,,,,,,,,,,,,,,,,,,,,,,,,,,,
,,2,2.4004,2,2.4004,0,1,1,38,1,155,carrot,cookie,,90317,001,2022-04-29_13h24.45.661,SPAMnetsValid,2021.1.4,Win32,59.87306909,,,,,,,,,,,,,,,,,,,,,,,,,,,,,,,,,,,,,,,,,,,,,,,,,,,,,,,,,,,,,,,,,,,,,,,,,,,,,,,,,,,,,,,,,
,,1,2.2092,1,2.2092,0,2,2,93,1,134,carrot,flower,,90317,001,2022-04-29_13h24.45.661,SPAMnetsValid,2021.1.4,Win32,59.87306909,,,,,,,,,,,,,,,,,,,,,,,,,,,,,,,,,,,,,,,,,,,,,,,,,,,,,,,,,,,,,,,,,,,,,,,,,,,,,,,,,,,,,,,,,
,,2,2.3522,2,2.3522,0,3,3,24,1,169,onion,yogurt,,90317,001,2022-04-29_13h24.45.661,SPAMnetsValid,2021.1.4,Win32,59.87306909,,,,,,,,,,,,,,,,,,,,,,,,,,,,,,,,,,,,,,,,,,,,,,,,,,,,,,,,,,,,,,,,,,,,,,,,,,,,,,,,,,,,,,,,,
,,1,1.8324,1,1.8324,0,4,4,15,1,145,cactus,yogurt,,90317,001,2022-04-29_13h24.45.661,SPAMnetsValid,2021.1.4,Win32,59.87306909,,,,,,,,,,,,,,,,,,,,,,,,,,,,,,,,,,,,,,,,,,,,,,,,,,,,,,,,,,,,,,,,,,,,,,,,,,,,,,,,,,,,,,,,,
,,1,2.1089,1,2.1089,0,5,5,63,1,137,microwave,tree,,90317,001,2022-04-29_13h24.45.661,SPAMnetsValid,2021.1.4,Win32,59.87306909,,,,,,,,,,,,,,,,,,,,,,,,,,,,,,,,,,,,,,,,,,,,,,,,,,,,,,,,,,,,,,,,,,,,,,,,,,,,,,,,,,,,,,,,,
,,9,3.4405,9,3.4405,0,6,6,86,1,193,melon,melon,CHECK,90317,001,2022-04-29_13h24.45.661,SPAMnetsValid,2021.1.4,Win32,59.87306909,,,,,,,,,,,,,,,,,,,,,,,,,,,,,,,,,,,,,,,,,,,,,,,,,,,,,,,,,,,,,,,,,,,,,,,,,,,,,,,,,,,,,,,,,
,,1,3.3509,1,3.3509,0,7,7,19,1,183,cake,rose,,90317,001,2022-04-29_13h24.45.661,SPAMnetsValid,2021.1.4,Win32,59.87306909,,,,,,,,,,,,,,,,,,,,,,,,,,,,,,,,,,,,,,,,,,,,,,,,,,,,,,,,,,,,,,,,,,,,,,,,,,,,,,,,,,,,,,,,,
,,1,1.455,1,1.455,0,8,8,84,1,130,microwave,yogurt,,90317,001,2022-04-29_13h24.45.661,SPAMnetsValid,2021.1.4,Win32,59.87306909,,,,,,,,,,,,,,,,,,,,,,,,,,,,,,,,,,,,,,,,,,,,,,,,,,,,,,,,,,,,,,,,,,,,,,,,,,,,,,,,,,,,,,,,,
,,1,1.4142,1,1.4142,0,9,9,6,1,151,microwave,onion,,90317,001,2022-04-29_13h24.45.661,SPAMnetsValid,2021.1.4,Win32,59.87306909,,,,,,,,,,,,,,,,,,,,,,,,,,,,,,,,,,,,,,,,,,,,,,,,,,,,,,,,,,,,,,,,,,,,,,,,,,,,,,,,,,,,,,,,,
,,2,1.7798,2,1.7798,0,10,10,82,1,98,pretzel,strawberry,,90317,001,2022-04-29_13h24.45.661,SPAMnetsValid,2021.1.4,Win32,59.87306909,,,,,,,,,,,,,,,,,,,,,,,,,,,,,,,,,,,,,,,,,,,,,,,,,,,,,,,,,,,,,,,,,,,,,,,,,,,,,,,,,,,,,,,,,
,,1,1.3105,1,1.3105,0,11,11,81,1,104,garden,microwave,,90317,001,2022-04-29_13h24.45.661,SPAMnetsValid,2021.1.4,Win32,59.87306909,,,,,,,,,,,,,,,,,,,,,,,,,,,,,,,,,,,,,,,,,,,,,,,,,,,,,,,,,,,,,,,,,,,,,,,,,,,,,,,,,,,,,,,,,
,,4,2.5643,4,2.5643,0,12,12,17,1,99,garden,melon,,90317,001,2022-04-29_13h24.45.661,SPAMnetsValid,2021.1.4,Win32,59.87306909,,,,,,,,,,,,,,,,,,,,,,,,,,,,,,,,,,,,,,,,,,,,,,,,,,,,,,,,,,,,,,,,,,,,,,,,,,,,,,,,,,,,,,,,,
,,1,1.5595,1,1.5595,0,13,13,90,1,190,microwave,strawberry,,90317,001,2022-04-29_13h24.45.661,SPAMnetsValid,2021.1.4,Win32,59.87306909,,,,,,,,,,,,,,,,,,,,,,,,,,,,,,,,,,,,,,,,,,,,,,,,,,,,,,,,,,,,,,,,,,,,,,,,,,,,,,,,,,,,,,,,,
,,8,2.868,8,2.868,0,14,14,83,1,100,garden,tomato,,90317,001,2022-04-29_13h24.45.661,SPAMnetsValid,2021.1.4,Win32,59.87306909,,,,,,,,,,,,,,,,,,,,,,,,,,,,,,,,,,,,,,,,,,,,,,,,,,,,,,,,,,,,,,,,,,,,,,,,,,,,,,,,,,,,,,,,,
,,1,2.0381,1,2.0381,0,15,15,49,1,152,cactus,strawberry,,90317,001,2022-04-29_13h24.45.661,SPAMnetsValid,2021.1.4,Win32,59.87306909,,,,,,,,,,,,,,,,,,,,,,,,,,,,,,,,,,,,,,,,,,,,,,,,,,,,,,,,,,,,,,,,,,,,,,,,,,,,,,,,,,,,,,,,,
,,7,1.958,7,1.958,0,16,16,11,1,117,melon,strawberry,,90317,001,2022-04-29_13h24.45.661,SPAMnetsValid,2021.1.4,Win32,59.87306909,,,,,,,,,,,,,,,,,,,,,,,,,,,,,,,,,,,,,,,,,,,,,,,,,,,,,,,,,,,,,,,,,,,,,,,,,,,,,,,,,,,,,,,,,
,,1,3.142,1,3.142,0,17,17,3,1,129,cactus,refrigerator,,90317,001,2022-04-29_13h24.45.661,SPAMnetsValid,2021.1.4,Win32,59.87306909,,,,,,,,,,,,,,,,,,,,,,,,,,,,,,,,,,,,,,,,,,,,,,,,,,,,,,,,,,,,,,,,,,,,,,,,,,,,,,,,,,,,,,,,,
,,1,1.4889,1,1.4889,0,18,18,46,1,123,cookie,tree,,90317,001,2022-04-29_13h24.45.661,SPAMnetsValid,2021.1.4,Win32,59.87306909,,,,,,,,,,,,,,,,,,,,,,,,,,,,,,,,,,,,,,,,,,,,,,,,,,,,,,,,,,,,,,,,,,,,,,,,,,,,,,,,,,,,,,,,,
,,6,3.2956,6,3.2956,0,19,19,1,1,173,kitchen,tomato,,90317,001,2022-04-29_13h24.45.661,SPAMnetsValid,2021.1.4,Win32,59.87306909,,,,,,,,,,,,,,,,,,,,,,,,,,,,,,,,,,,,,,,,,,,,,,,,,,,,,,,,,,,,,,,,,,,,,,,,,,,,,,,,,,,,,,,,,
,,7,3.6755,7,3.6755,0,20,20,27,1,158,cookie,oven,,90317,001,2022-04-29_13h24.45.661,SPAMnetsValid,2021.1.4,Win32,59.87306909,,,,,,,,,,,,,,,,,,,,,,,,,,,,,,,,,,,,,,,,,,,,,,,,,,,,,,,,,,,,,,,,,,,,,,,,,,,,,,,,,,,,,,,,,
,,1,1.3925,1,1.3925,0,21,21,95,1,121,broom,microwave,,90317,001,2022-04-29_13h24.45.661,SPAMnetsValid,2021.1.4,Win32,59.87306909,,,,,,,,,,,,,,,,,,,,,,,,,,,,,,,,,,,,,,,,,,,,,,,,,,,,,,,,,,,,,,,,,,,,,,,,,,,,,,,,,,,,,,,,,
,,3,2.7277,3,2.7277,0,22,22,85,1,115,refrigerator,tomato,,90317,001,2022-04-29_13h24.45.661,SPAMnetsValid,2021.1.4,Win32,59.87306909,,,,,,,,,,,,,,,,,,,,,,,,,,,,,,,,,,,,,,,,,,,,,,,,,,,,,,,,,,,,,,,,,,,,,,,,,,,,,,,,,,,,,,,,,
,,5,2.7898,5,2.7898,0,23,23,39,1,112,cake,carrot,,90317,001,2022-04-29_13h24.45.661,SPAMnetsValid,2021.1.4,Win32,59.87306909,,,,,,,,,,,,,,,,,,,,,,,,,,,,,,,,,,,,,,,,,,,,,,,,,,,,,,,,,,,,,,,,,,,,,,,,,,,,,,,,,,,,,,,,,
,,1,3.3146,1,3.3146,0,24,24,89,1,140,cookie,refrigerator,,90317,001,2022-04-29_13h24.45.661,SPAMnetsValid,2021.1.4,Win32,59.87306909,,,,,,,,,,,,,,,,,,,,,,,,,,,,,,,,,,,,,,,,,,,,,,,,,,,,,,,,,,,,,,,,,,,,,,,,,,,,,,,,,,,,,,,,,
,,1,1.4849,1,1.4849,0,25,25,12,1,162,microwave,tomato,,90317,001,2022-04-29_13h24.45.661,SPAMnetsValid,2021.1.4,Win32,59.87306909,,,,,,,,,,,,,,,,,,,,,,,,,,,,,,,,,,,,,,,,,,,,,,,,,,,,,,,,,,,,,,,,,,,,,,,,,,,,,,,,,,,,,,,,,
,,1,1.7532,1,1.7532,0,26,26,96,1,136,chocolate,microwave,,90317,001,2022-04-29_13h24.45.661,SPAMnetsValid,2021.1.4,Win32,59.87306909,,,,,,,,,,,,,,,,,,,,,,,,,,,,,,,,,,,,,,,,,,,,,,,,,,,,,,,,,,,,,,,,,,,,,,,,,,,,,,,,,,,,,,,,,
,,8,2.5971,8,2.5971,0,27,27,7,1,188,flower,tree,,90317,001,2022-04-29_13h24.45.661,SPAMnetsValid,2021.1.4,Win32,59.87306909,,,,,,,,,,,,,,,,,,,,,,,,,,,,,,,,,,,,,,,,,,,,,,,,,,,,,,,,,,,,,,,,,,,,,,,,,,,,,,,,,,,,,,,,,
,,7,2.4034,7,2.4034,0,28,28,66,1,150,microwave,refrigerator,,90317,001,2022-04-29_13h24.45.661,SPAMnetsValid,2021.1.4,Win32,59.87306909,,,,,,,,,,,,,,,,,,,,,,,,,,,,,,,,,,,,,,,,,,,,,,,,,,,,,,,,,,,,,,,,,,,,,,,,,,,,,,,,,,,,,,,,,
,,2,1.9854,2,1.9854,0,29,29,87,1,114,cookie,strawberry,,90317,001,2022-04-29_13h24.45.661,SPAMnetsValid,2021.1.4,Win32,59.87306909,,,,,,,,,,,,,,,,,,,,,,,,,,,,,,,,,,,,,,,,,,,,,,,,,,,,,,,,,,,,,,,,,,,,,,,,,,,,,,,,,,,,,,,,,
,,1,2.3775,1,2.3775,0,30,30,4,1,109,broom,strawberry,,90317,001,2022-04-29_13h24.45.661,SPAMnetsValid,2021.1.4,Win32,59.87306909,,,,,,,,,,,,,,,,,,,,,,,,,,,,,,,,,,,,,,,,,,,,,,,,,,,,,,,,,,,,,,,,,,,,,,,,,,,,,,,,,,,,,,,,,
,,1,2.2883,1,2.2883,0,31,31,36,1,161,kitchen,pretzel,,90317,001,2022-04-29_13h24.45.661,SPAMnetsValid,2021.1.4,Win32,59.87306909,,,,,,,,,,,,,,,,,,,,,,,,,,,,,,,,,,,,,,,,,,,,,,,,,,,,,,,,,,,,,,,,,,,,,,,,,,,,,,,,,,,,,,,,,
,,2,2.2312,2,2.2312,0,32,32,43,1,185,cactus,rose,,90317,001,2022-04-29_13h24.45.661,SPAMnetsValid,2021.1.4,Win32,59.87306909,,,,,,,,,,,,,,,,,,,,,,,,,,,,,,,,,,,,,,,,,,,,,,,,,,,,,,,,,,,,,,,,,,,,,,,,,,,,,,,,,,,,,,,,,
,,2,1.9176,2,1.9176,0,33,33,41,1,175,melon,onion,,90317,001,2022-04-29_13h24.45.661,SPAMnetsValid,2021.1.4,Win32,59.87306909,,,,,,,,,,,,,,,,,,,,,,,,,,,,,,,,,,,,,,,,,,,,,,,,,,,,,,,,,,,,,,,,,,,,,,,,,,,,,,,,,,,,,,,,,
,,3,3.1911,3,3.1911,0,34,34,33,1,131,cactus,garden,,90317,001,2022-04-29_13h24.45.661,SPAMnetsValid,2021.1.4,Win32,59.87306909,,,,,,,,,,,,,,,,,,,,,,,,,,,,,,,,,,,,,,,,,,,,,,,,,,,,,,,,,,,,,,,,,,,,,,,,,,,,,,,,,,,,,,,,,
,,8,5.2098,8,5.2098,0,35,35,28,1,154,strawberry,yogurt,,90317,001,2022-04-29_13h24.45.661,SPAMnetsValid,2021.1.4,Win32,59.87306909,,,,,,,,,,,,,,,,,,,,,,,,,,,,,,,,,,,,,,,,,,,,,,,,,,,,,,,,,,,,,,,,,,,,,,,,,,,,,,,,,,,,,,,,,
,,2,2.3385,2,2.3385,0,36,36,8,1,97,chocolate,kitchen,,90317,001,2022-04-29_13h24.45.661,SPAMnetsValid,2021.1.4,Win32,59.87306909,,,,,,,,,,,,,,,,,,,,,,,,,,,,,,,,,,,,,,,,,,,,,,,,,,,,,,,,,,,,,,,,,,,,,,,,,,,,,,,,,,,,,,,,,
,,1,1.9358,1,1.9358,0,37,37,88,1,171,cake,tomato,,90317,001,2022-04-29_13h24.45.661,SPAMnetsValid,2021.1.4,Win32,59.87306909,,,,,,,,,,,,,,,,,,,,,,,,,,,,,,,,,,,,,,,,,,,,,,,,,,,,,,,,,,,,,,,,,,,,,,,,,,,,,,,,,,,,,,,,,
,,1,2.0924,1,2.0924,0,38,38,50,1,126,kitchen,tree,,90317,001,2022-04-29_13h24.45.661,SPAMnetsValid,2021.1.4,Win32,59.87306909,,,,,,,,,,,,,,,,,,,,,,,,,,,,,,,,,,,,,,,,,,,,,,,,,,,,,,,,,,,,,,,,,,,,,,,,,,,,,,,,,,,,,,,,,
,,5,4.7728,5,4.7728,0,39,39,42,1,184,oven,pretzel,,90317,001,2022-04-29_13h24.45.661,SPAMnetsValid,2021.1.4,Win32,59.87306909,,,,,,,,,,,,,,,,,,,,,,,,,,,,,,,,,,,,,,,,,,,,,,,,,,,,,,,,,,,,,,,,,,,,,,,,,,,,,,,,,,,,,,,,,
,,1,1.537,1,1.537,0,40,40,40,1,165,onion,rose,,90317,001,2022-04-29_13h24.45.661,SPAMnetsValid,2021.1.4,Win32,59.87306909,,,,,,,,,,,,,,,,,,,,,,,,,,,,,,,,,,,,,,,,,,,,,,,,,,,,,,,,,,,,,,,,,,,,,,,,,,,,,,,,,,,,,,,,,
,,3,3.1687,3,3.1687,0,41,41,35,1,147,cake,refrigerator,,90317,001,2022-04-29_13h24.45.661,SPAMnetsValid,2021.1.4,Win32,59.87306909,,,,,,,,,,,,,,,,,,,,,,,,,,,,,,,,,,,,,,,,,,,,,,,,,,,,,,,,,,,,,,,,,,,,,,,,,,,,,,,,,,,,,,,,,
,,5,3.3673,5,3.3673,0,42,42,0,1,106,cake,strawberry,,90317,001,2022-04-29_13h24.45.661,SPAMnetsValid,2021.1.4,Win32,59.87306909,,,,,,,,,,,,,,,,,,,,,,,,,,,,,,,,,,,,,,,,,,,,,,,,,,,,,,,,,,,,,,,,,,,,,,,,,,,,,,,,,,,,,,,,,
,,1,2.4042,1,2.4042,0,43,43,45,1,179,broom,oven,,90317,001,2022-04-29_13h24.45.661,SPAMnetsValid,2021.1.4,Win32,59.87306909,,,,,,,,,,,,,,,,,,,,,,,,,,,,,,,,,,,,,,,,,,,,,,,,,,,,,,,,,,,,,,,,,,,,,,,,,,,,,,,,,,,,,,,,,
,,1,2.2059,1,2.2059,0,44,44,58,1,144,cake,garden,,90317,001,2022-04-29_13h24.45.661,SPAMnetsValid,2021.1.4,Win32,59.87306909,,,,,,,,,,,,,,,,,,,,,,,,,,,,,,,,,,,,,,,,,,,,,,,,,,,,,,,,,,,,,,,,,,,,,,,,,,,,,,,,,,,,,,,,,
,,1,2.0482,1,2.0482,0,45,45,94,1,133,cake,flower,,90317,001,2022-04-29_13h24.45.661,SPAMnetsValid,2021.1.4,Win32,59.87306909,,,,,,,,,,,,,,,,,,,,,,,,,,,,,,,,,,,,,,,,,,,,,,,,,,,,,,,,,,,,,,,,,,,,,,,,,,,,,,,,,,,,,,,,,
,,7,2.2898,7,2.2898,0,46,46,52,1,110,chocolate,cookie,,90317,001,2022-04-29_13h24.45.661,SPAMnetsValid,2021.1.4,Win32,59.87306909,,,,,,,,,,,,,,,,,,,,,,,,,,,,,,,,,,,,,,,,,,,,,,,,,,,,,,,,,,,,,,,,,,,,,,,,,,,,,,,,,,,,,,,,,
,,1,3.0521,1,3.0521,0,47,47,78,1,132,broom,tree,,90317,001,2022-04-29_13h24.45.661,SPAMnetsValid,2021.1.4,Win32,59.87306909,,,,,,,,,,,,,,,,,,,,,,,,,,,,,,,,,,,,,,,,,,,,,,,,,,,,,,,,,,,,,,,,,,,,,,,,,,,,,,,,,,,,,,,,,
,,1,3.137,1,3.137,0,48,48,75,1,178,cactus,carrot,,90317,001,2022-04-29_13h24.45.661,SPAMnetsValid,2021.1.4,Win32,59.87306909,,,,,,,,,,,,,,,,,,,,,,,,,,,,,,,,,,,,,,,,,,,,,,,,,,,,,,,,,,,,,,,,,,,,,,,,,,,,,,,,,,,,,,,,,
,,1,2.003,1,2.003,0,49,49,21,1,159,cookie,flower,,90317,001,2022-04-29_13h24.45.661,SPAMnetsValid,2021.1.4,Win32,59.87306909,,,,,,,,,,,,,,,,,,,,,,,,,,,,,,,,,,,,,,,,,,,,,,,,,,,,,,,,,,,,,,,,,,,,,,,,,,,,,,,,,,,,,,,,,
,,1,1.9197,1,1.9197,0,50,50,73,1,135,carrot,oven,,90317,001,2022-04-29_13h24.45.661,SPAMnetsValid,2021.1.4,Win32,59.87306909,,,,,,,,,,,,,,,,,,,,,,,,,,,,,,,,,,,,,,,,,,,,,,,,,,,,,,,,,,,,,,,,,,,,,,,,,,,,,,,,,,,,,,,,,
,,1,1.7735,1,1.7735,0,51,51,23,1,148,flower,melon,,90317,001,2022-04-29_13h24.45.661,SPAMnetsValid,2021.1.4,Win32,59.87306909,,,,,,,,,,,,,,,,,,,,,,,,,,,,,,,,,,,,,,,,,,,,,,,,,,,,,,,,,,,,,,,,,,,,,,,,,,,,,,,,,,,,,,,,,
,,1,1.8777,1,1.8777,0,52,52,71,1,187,cactus,microwave,,90317,001,2022-04-29_13h24.45.661,SPAMnetsValid,2021.1.4,Win32,59.87306909,,,,,,,,,,,,,,,,,,,,,,,,,,,,,,,,,,,,,,,,,,,,,,,,,,,,,,,,,,,,,,,,,,,,,,,,,,,,,,,,,,,,,,,,,
,,1,2.5355,1,2.5355,0,53,53,48,1,186,kitchen,yogurt,,90317,001,2022-04-29_13h24.45.661,SPAMnetsValid,2021.1.4,Win32,59.87306909,,,,,,,,,,,,,,,,,,,,,,,,,,,,,,,,,,,,,,,,,,,,,,,,,,,,,,,,,,,,,,,,,,,,,,,,,,,,,,,,,,,,,,,,,
,,8,4.2333,8,4.2333,0,54,54,44,1,116,cake,chocolate,,90317,001,2022-04-29_13h24.45.661,SPAMnetsValid,2021.1.4,Win32,59.87306909,,,,,,,,,,,,,,,,,,,,,,,,,,,,,,,,,,,,,,,,,,,,,,,,,,,,,,,,,,,,,,,,,,,,,,,,,,,,,,,,,,,,,,,,,
,,5,1.9353,5,1.9353,0,55,55,22,1,142,garden,tree,,90317,001,2022-04-29_13h24.45.661,SPAMnetsValid,2021.1.4,Win32,59.87306909,,,,,,,,,,,,,,,,,,,,,,,,,,,,,,,,,,,,,,,,,,,,,,,,,,,,,,,,,,,,,,,,,,,,,,,,,,,,,,,,,,,,,,,,,
,,2,2.4748,2,2.4748,0,56,56,56,1,113,refrigerator,strawberry,,90317,001,2022-04-29_13h24.45.661,SPAMnetsValid,2021.1.4,Win32,59.87306909,,,,,,,,,,,,,,,,,,,,,,,,,,,,,,,,,,,,,,,,,,,,,,,,,,,,,,,,,,,,,,,,,,,,,,,,,,,,,,,,,,,,,,,,,
,,1,1.8402,1,1.8402,0,57,57,20,1,149,broom,tomato,,90317,001,2022-04-29_13h24.45.661,SPAMnetsValid,2021.1.4,Win32,59.87306909,,,,,,,,,,,,,,,,,,,,,,,,,,,,,,,,,,,,,,,,,,,,,,,,,,,,,,,,,,,,,,,,,,,,,,,,,,,,,,,,,,,,,,,,,
,,1,1.8216,1,1.8216,0,58,58,62,1,189,onion,tree,,90317,001,2022-04-29_13h24.45.661,SPAMnetsValid,2021.1.4,Win32,59.87306909,,,,,,,,,,,,,,,,,,,,,,,,,,,,,,,,,,,,,,,,,,,,,,,,,,,,,,,,,,,,,,,,,,,,,,,,,,,,,,,,,,,,,,,,,
,,1,3.0091,1,3.0091,0,59,59,32,1,182,flower,refrigerator,,90317,001,2022-04-29_13h24.45.661,SPAMnetsValid,2021.1.4,Win32,59.87306909,,,,,,,,,,,,,,,,,,,,,,,,,,,,,,,,,,,,,,,,,,,,,,,,,,,,,,,,,,,,,,,,,,,,,,,,,,,,,,,,,,,,,,,,,
,,1,1.8119,1,1.8119,0,60,60,76,1,102,chocolate,refrigerator,,90317,001,2022-04-29_13h24.45.661,SPAMnetsValid,2021.1.4,Win32,59.87306909,,,,,,,,,,,,,,,,,,,,,,,,,,,,,,,,,,,,,,,,,,,,,,,,,,,,,,,,,,,,,,,,,,,,,,,,,,,,,,,,,,,,,,,,,
,,1,1.8367,1,1.8367,0,61,61,16,1,111,carrot,microwave,,90317,001,2022-04-29_13h24.45.661,SPAMnetsValid,2021.1.4,Win32,59.87306909,,,,,,,,,,,,,,,,,,,,,,,,,,,,,,,,,,,,,,,,,,,,,,,,,,,,,,,,,,,,,,,,,,,,,,,,,,,,,,,,,,,,,,,,,
,,1,2.0273,1,2.0273,0,62,62,34,1,153,carrot,pretzel,,90317,001,2022-04-29_13h24.45.661,SPAMnetsValid,2021.1.4,Win32,59.87306909,,,,,,,,,,,,,,,,,,,,,,,,,,,,,,,,,,,,,,,,,,,,,,,,,,,,,,,,,,,,,,,,,,,,,,,,,,,,,,,,,,,,,,,,,
,,1,1.922,1,1.922,0,63,63,55,1,143,pretzel,rose,,90317,001,2022-04-29_13h24.45.661,SPAMnetsValid,2021.1.4,Win32,59.87306909,,,,,,,,,,,,,,,,,,,,,,,,,,,,,,,,,,,,,,,,,,,,,,,,,,,,,,,,,,,,,,,,,,,,,,,,,,,,,,,,,,,,,,,,,
,,2,3.109,2,3.109,0,64,64,53,1,177,chocolate,strawberry,,90317,001,2022-04-29_13h24.45.661,SPAMnetsValid,2021.1.4,Win32,59.87306909,,,,,,,,,,,,,,,,,,,,,,,,,,,,,,,,,,,,,,,,,,,,,,,,,,,,,,,,,,,,,,,,,,,,,,,,,,,,,,,,,,,,,,,,,
,,1,2.5728,1,2.5728,0,65,65,67,1,96,oven,strawberry,,90317,001,2022-04-29_13h24.45.661,SPAMnetsValid,2021.1.4,Win32,59.87306909,,,,,,,,,,,,,,,,,,,,,,,,,,,,,,,,,,,,,,,,,,,,,,,,,,,,,,,,,,,,,,,,,,,,,,,,,,,,,,,,,,,,,,,,,
,,1,2.993,1,2.993,0,66,66,31,1,156,melon,rose,,90317,001,2022-04-29_13h24.45.661,SPAMnetsValid,2021.1.4,Win32,59.87306909,,,,,,,,,,,,,,,,,,,,,,,,,,,,,,,,,,,,,,,,,,,,,,,,,,,,,,,,,,,,,,,,,,,,,,,,,,,,,,,,,,,,,,,,,
,,1,3.323,1,3.323,0,67,67,68,1,180,tree,yogurt,,90317,001,2022-04-29_13h24.45.661,SPAMnetsValid,2021.1.4,Win32,59.87306909,,,,,,,,,,,,,,,,,,,,,,,,,,,,,,,,,,,,,,,,,,,,,,,,,,,,,,,,,,,,,,,,,,,,,,,,,,,,,,,,,,,,,,,,,
,,1,1.7461,1,1.7461,0,68,68,92,1,170,cookie,microwave,,90317,001,2022-04-29_13h24.45.661,SPAMnetsValid,2021.1.4,Win32,59.87306909,,,,,,,,,,,,,,,,,,,,,,,,,,,,,,,,,,,,,,,,,,,,,,,,,,,,,,,,,,,,,,,,,,,,,,,,,,,,,,,,,,,,,,,,,
,,1,1.9745,1,1.9745,0,69,69,9,1,176,cactus,tomato,,90317,001,2022-04-29_13h24.45.661,SPAMnetsValid,2021.1.4,Win32,59.87306909,,,,,,,,,,,,,,,,,,,,,,,,,,,,,,,,,,,,,,,,,,,,,,,,,,,,,,,,,,,,,,,,,,,,,,,,,,,,,,,,,,,,,,,,,
,,8,4.7594,8,4.7594,0,70,70,47,1,167,carrot,garden,,90317,001,2022-04-29_13h24.45.661,SPAMnetsValid,2021.1.4,Win32,59.87306909,,,,,,,,,,,,,,,,,,,,,,,,,,,,,,,,,,,,,,,,,,,,,,,,,,,,,,,,,,,,,,,,,,,,,,,,,,,,,,,,,,,,,,,,,
,,2,3.6463,2,3.6463,0,71,71,91,1,166,cake,yogurt,,90317,001,2022-04-29_13h24.45.661,SPAMnetsValid,2021.1.4,Win32,59.87306909,,,,,,,,,,,,,,,,,,,,,,,,,,,,,,,,,,,,,,,,,,,,,,,,,,,,,,,,,,,,,,,,,,,,,,,,,,,,,,,,,,,,,,,,,
,,1,1.5612,1,1.5612,0,72,72,10,1,118,chocolate,oven,,90317,001,2022-04-29_13h24.45.661,SPAMnetsValid,2021.1.4,Win32,59.87306909,,,,,,,,,,,,,,,,,,,,,,,,,,,,,,,,,,,,,,,,,,,,,,,,,,,,,,,,,,,,,,,,,,,,,,,,,,,,,,,,,,,,,,,,,
,,2,3.5114,2,3.5114,0,73,73,2,1,174,cake,pretzel,,90317,001,2022-04-29_13h24.45.661,SPAMnetsValid,2021.1.4,Win32,59.87306909,,,,,,,,,,,,,,,,,,,,,,,,,,,,,,,,,,,,,,,,,,,,,,,,,,,,,,,,,,,,,,,,,,,,,,,,,,,,,,,,,,,,,,,,,
,,2,4.7898,2,4.7898,0,74,74,18,1,119,strawberry,tree,,90317,001,2022-04-29_13h24.45.661,SPAMnetsValid,2021.1.4,Win32,59.87306909,,,,,,,,,,,,,,,,,,,,,,,,,,,,,,,,,,,,,,,,,,,,,,,,,,,,,,,,,,,,,,,,,,,,,,,,,,,,,,,,,,,,,,,,,
,,2,2.0579,2,2.0579,0,75,75,30,1,125,carrot,tree,,90317,001,2022-04-29_13h24.45.661,SPAMnetsValid,2021.1.4,Win32,59.87306909,,,,,,,,,,,,,,,,,,,,,,,,,,,,,,,,,,,,,,,,,,,,,,,,,,,,,,,,,,,,,,,,,,,,,,,,,,,,,,,,,,,,,,,,,
,,1,2.7968,1,2.7968,0,76,76,5,1,108,carrot,chocolate,,90317,001,2022-04-29_13h24.45.661,SPAMnetsValid,2021.1.4,Win32,59.87306909,,,,,,,,,,,,,,,,,,,,,,,,,,,,,,,,,,,,,,,,,,,,,,,,,,,,,,,,,,,,,,,,,,,,,,,,,,,,,,,,,,,,,,,,,
,,2,11.3312,2,11.3312,0,77,77,65,1,160,cookie,kitchen,,90317,001,2022-04-29_13h24.45.661,SPAMnetsValid,2021.1.4,Win32,59.87306909,,,,,,,,,,,,,,,,,,,,,,,,,,,,,,,,,,,,,,,,,,,,,,,,,,,,,,,,,,,,,,,,,,,,,,,,,,,,,,,,,,,,,,,,,
,,1,3.3199,1,3.3199,0,78,78,54,1,101,cactus,kitchen,,90317,001,2022-04-29_13h24.45.661,SPAMnetsValid,2021.1.4,Win32,59.87306909,,,,,,,,,,,,,,,,,,,,,,,,,,,,,,,,,,,,,,,,,,,,,,,,,,,,,,,,,,,,,,,,,,,,,,,,,,,,,,,,,,,,,,,,,
,,7,3.2968,7,3.2968,0,79,79,69,1,124,oven,refrigerator,,90317,001,2022-04-29_13h24.45.661,SPAMnetsValid,2021.1.4,Win32,59.87306909,,,,,,,,,,,,,,,,,,,,,,,,,,,,,,,,,,,,,,,,,,,,,,,,,,,,,,,,,,,,,,,,,,,,,,,,,,,,,,,,,,,,,,,,,
,,1,2.8254,1,2.8254,0,80,80,80,1,146,pretzel,tree,,90317,001,2022-04-29_13h24.45.661,SPAMnetsValid,2021.1.4,Win32,59.87306909,,,,,,,,,,,,,,,,,,,,,,,,,,,,,,,,,,,,,,,,,,,,,,,,,,,,,,,,,,,,,,,,,,,,,,,,,,,,,,,,,,,,,,,,,
,,2,1.9861,2,1.9861,0,81,81,37,1,139,carrot,strawberry,,90317,001,2022-04-29_13h24.45.661,SPAMnetsValid,2021.1.4,Win32,59.87306909,,,,,,,,,,,,,,,,,,,,,,,,,,,,,,,,,,,,,,,,,,,,,,,,,,,,,,,,,,,,,,,,,,,,,,,,,,,,,,,,,,,,,,,,,
,,9,3.5343,9,3.5343,0,82,82,60,1,122,flower,garden,,90317,001,2022-04-29_13h24.45.661,SPAMnetsValid,2021.1.4,Win32,59.87306909,,,,,,,,,,,,,,,,,,,,,,,,,,,,,,,,,,,,,,,,,,,,,,,,,,,,,,,,,,,,,,,,,,,,,,,,,,,,,,,,,,,,,,,,,
,,1,1.9888,1,1.9888,0,83,83,59,1,164,cookie,garden,,90317,001,2022-04-29_13h24.45.661,SPAMnetsValid,2021.1.4,Win32,59.87306909,,,,,,,,,,,,,,,,,,,,,,,,,,,,,,,,,,,,,,,,,,,,,,,,,,,,,,,,,,,,,,,,,,,,,,,,,,,,,,,,,,,,,,,,,
,,1,4.2441,1,4.2441,0,84,84,57,1,127,cactus,chocolate,,90317,001,2022-04-29_13h24.45.661,SPAMnetsValid,2021.1.4,Win32,59.87306909,,,,,,,,,,,,,,,,,,,,,,,,,,,,,,,,,,,,,,,,,,,,,,,,,,,,,,,,,,,,,,,,,,,,,,,,,,,,,,,,,,,,,,,,,
,,1,1.6647,1,1.6647,0,85,85,79,1,103,pretzel,tomato,,90317,001,2022-04-29_13h24.45.661,SPAMnetsValid,2021.1.4,Win32,59.87306909,,,,,,,,,,,,,,,,,,,,,,,,,,,,,,,,,,,,,,,,,,,,,,,,,,,,,,,,,,,,,,,,,,,,,,,,,,,,,,,,,,,,,,,,,
,,9,1.9104,9,1.9104,0,86,86,25,1,194,cactus,cactus,CHECK,90317,001,2022-04-29_13h24.45.661,SPAMnetsValid,2021.1.4,Win32,59.87306909,,,,,,,,,,,,,,,,,,,,,,,,,,,,,,,,,,,,,,,,,,,,,,,,,,,,,,,,,,,,,,,,,,,,,,,,,,,,,,,,,,,,,,,,,
,,1,3.5758,1,3.5758,0,87,87,13,1,105,cactus,oven,,90317,001,2022-04-29_13h24.45.661,SPAMnetsValid,2021.1.4,Win32,59.87306909,,,,,,,,,,,,,,,,,,,,,,,,,,,,,,,,,,,,,,,,,,,,,,,,,,,,,,,,,,,,,,,,,,,,,,,,,,,,,,,,,,,,,,,,,
,,3,4.1034,3,4.1034,0,88,88,26,1,107,rose,tomato,,90317,001,2022-04-29_13h24.45.661,SPAMnetsValid,2021.1.4,Win32,59.87306909,,,,,,,,,,,,,,,,,,,,,,,,,,,,,,,,,,,,,,,,,,,,,,,,,,,,,,,,,,,,,,,,,,,,,,,,,,,,,,,,,,,,,,,,,
,,2,2.8721,2,2.8721,0,89,89,29,1,163,melon,refrigerator,,90317,001,2022-04-29_13h24.45.661,SPAMnetsValid,2021.1.4,Win32,59.87306909,,,,,,,,,,,,,,,,,,,,,,,,,,,,,,,,,,,,,,,,,,,,,,,,,,,,,,,,,,,,,,,,,,,,,,,,,,,,,,,,,,,,,,,,,
,,1,1.6908,1,1.6908,0,90,90,51,1,168,cactus,flower,,90317,001,2022-04-29_13h24.45.661,SPAMnetsValid,2021.1.4,Win32,59.87306909,,,,,,,,,,,,,,,,,,,,,,,,,,,,,,,,,,,,,,,,,,,,,,,,,,,,,,,,,,,,,,,,,,,,,,,,,,,,,,,,,,,,,,,,,
,,8,2.5134,8,2.5134,0,91,91,14,1,120,microwave,oven,,90317,001,2022-04-29_13h24.45.661,SPAMnetsValid,2021.1.4,Win32,59.87306909,,,,,,,,,,,,,,,,,,,,,,,,,,,,,,,,,,,,,,,,,,,,,,,,,,,,,,,,,,,,,,,,,,,,,,,,,,,,,,,,,,,,,,,,,
,,1,2.5617,1,2.5617,0,92,92,64,1,157,refrigerator,rose,,90317,001,2022-04-29_13h24.45.661,SPAMnetsValid,2021.1.4,Win32,59.87306909,,,,,,,,,,,,,,,,,,,,,,,,,,,,,,,,,,,,,,,,,,,,,,,,,,,,,,,,,,,,,,,,,,,,,,,,,,,,,,,,,,,,,,,,,
,,2,3.8469,2,3.8469,0,93,93,72,1,181,carrot,kitchen,,90317,001,2022-04-29_13h24.45.661,SPAMnetsValid,2021.1.4,Win32,59.87306909,,,,,,,,,,,,,,,,,,,,,,,,,,,,,,,,,,,,,,,,,,,,,,,,,,,,,,,,,,,,,,,,,,,,,,,,,,,,,,,,,,,,,,,,,
,,3,2.2718,3,2.2718,0,94,94,70,1,141,melon,tomato,,90317,001,2022-04-29_13h24.45.661,SPAMnetsValid,2021.1.4,Win32,59.87306909,,,,,,,,,,,,,,,,,,,,,,,,,,,,,,,,,,,,,,,,,,,,,,,,,,,,,,,,,,,,,,,,,,,,,,,,,,,,,,,,,,,,,,,,,
,,9,3.1014,9,3.1014,0,95,95,61,1,138,flower,rose,,90317,001,2022-04-29_13h24.45.661,SPAMnetsValid,2021.1.4,Win32,59.87306909,,,,,,,,,,,,,,,,,,,,,,,,,,,,,,,,,,,,,,,,,,,,,,,,,,,,,,,,,,,,,,,,,,,,,,,,,,,,,,,,,,,,,,,,,
,,1,1.808,1,1.808,0,96,96,74,1,128,melon,microwave,,90317,001,2022-04-29_13h24.45.661,SPAMnetsValid,2021.1.4,Win32,59.87306909,,,,,,,,,,,,,,,,,,,,,,,,,,,,,,,,,,,,,,,,,,,,,,,,,,,,,,,,,,,,,,,,,,,,,,,,,,,,,,,,,,,,,,,,,
,,,,,,,,,,,,,,,90317,001,2022-04-29_13h24.45.661,SPAMnetsValid,2021.1.4,Win32,59.87306909,0,0,0,0,1,,,,,,,,,,,,,,,,,,,,,,,,,,,,,,,,,,,,,,,,,,,,,,,,,,,,,,,,,,,,,,,,,,,,,,,,,,,,,,,,,,,,
,,,,,,,,,,,,,,,90317,001,2022-04-29_13h24.45.661,SPAMnetsValid,2021.1.4,Win32,59.87306909,,,,,,0,0,0,1,1,0,1,,,,,,,,,,,,,,,,,,,,,,,,,,,,,,,,,,,,,,,,,,,,,,,,,,,,,,,,,,,,,,,,,,,,,,,,,,,,,
,,,,8,3.5974,,,,,,79,garden,strawberry,,90317,001,2022-04-29_13h24.45.661,SPAMnetsValid,2021.1.4,Win32,59.87306909,,,,,,,,,,,,,8,3.5974,0,0,0,87,1,,,,,,,,,,,,,,,,,,,,,,,,,,,,,,,,,,,,,,,,,,,,,,,,,,,,,,,,,,,,,,,,,,,,,,
,,,,1,1.76,,,,,,23,flower,microwave,,90317,001,2022-04-29_13h24.45.661,SPAMnetsValid,2021.1.4,Win32,59.87306909,,,,,,,,,,,,,1,1.76,0,1,1,25,1,,,,,,,,,,,,,,,,,,,,,,,,,,,,,,,,,,,,,,,,,,,,,,,,,,,,,,,,,,,,,,,,,,,,,,
,,,,4,2.3389,,,,,,61,strawberry,tomato,,90317,001,2022-04-29_13h24.45.661,SPAMnetsValid,2021.1.4,Win32,59.87306909,,,,,,,,,,,,,4,2.3389,0,2,2,80,1,,,,,,,,,,,,,,,,,,,,,,,,,,,,,,,,,,,,,,,,,,,,,,,,,,,,,,,,,,,,,,,,,,,,,,
,,,,1,1.4702,,,,,,27,cactus,cookie,,90317,001,2022-04-29_13h24.45.661,SPAMnetsValid,2021.1.4,Win32,59.87306909,,,,,,,,,,,,,1,1.4702,0,3,3,17,1,,,,,,,,,,,,,,,,,,,,,,,,,,,,,,,,,,,,,,,,,,,,,,,,,,,,,,,,,,,,,,,,,,,,,,
,,,,1,1.461,,,,,,62,kitchen,rose,,90317,001,2022-04-29_13h24.45.661,SPAMnetsValid,2021.1.4,Win32,59.87306909,,,,,,,,,,,,,1,1.461,0,4,4,57,1,,,,,,,,,,,,,,,,,,,,,,,,,,,,,,,,,,,,,,,,,,,,,,,,,,,,,,,,,,,,,,,,,,,,,,
,,,,1,1.7725,,,,,,31,cactus,pretzel,,90317,001,2022-04-29_13h24.45.661,SPAMnetsValid,2021.1.4,Win32,59.87306909,,,,,,,,,,,,,1,1.7725,0,5,5,1,1,,,,,,,,,,,,,,,,,,,,,,,,,,,,,,,,,,,,,,,,,,,,,,,,,,,,,,,,,,,,,,,,,,,,,,
,,,,1,1.5079,,,,,,11,refrigerator,tree,,90317,001,2022-04-29_13h24.45.661,SPAMnetsValid,2021.1.4,Win32,59.87306909,,,,,,,,,,,,,1,1.5079,0,6,6,43,1,,,,,,,,,,,,,,,,,,,,,,,,,,,,,,,,,,,,,,,,,,,,,,,,,,,,,,,,,,,,,,,,,,,,,,
,,,,1,1.4056,,,,,,29,chocolate,melon,,90317,001,2022-04-29_13h24.45.661,SPAMnetsValid,2021.1.4,Win32,59.87306909,,,,,,,,,,,,,1,1.4056,0,7,7,34,1,,,,,,,,,,,,,,,,,,,,,,,,,,,,,,,,,,,,,,,,,,,,,,,,,,,,,,,,,,,,,,,,,,,,,,
,,,,1,1.5705,,,,,,90,cactus,cake,,90317,001,2022-04-29_13h24.45.661,SPAMnetsValid,2021.1.4,Win32,59.87306909,,,,,,,,,,,,,1,1.5705,0,8,8,85,1,,,,,,,,,,,,,,,,,,,,,,,,,,,,,,,,,,,,,,,,,,,,,,,,,,,,,,,,,,,,,,,,,,,,,,
,,,,1,2.2347,,,,,,24,cookie,tomato,,90317,001,2022-04-29_13h24.45.661,SPAMnetsValid,2021.1.4,Win32,59.87306909,,,,,,,,,,,,,1,2.2347,0,9,9,68,1,,,,,,,,,,,,,,,,,,,,,,,,,,,,,,,,,,,,,,,,,,,,,,,,,,,,,,,,,,,,,,,,,,,,,,
,,,,1,1.8722,,,,,,75,cookie,onion,,90317,001,2022-04-29_13h24.45.661,SPAMnetsValid,2021.1.4,Win32,59.87306909,,,,,,,,,,,,,1,1.8722,0,10,10,9,1,,,,,,,,,,,,,,,,,,,,,,,,,,,,,,,,,,,,,,,,,,,,,,,,,,,,,,,,,,,,,,,,,,,,,,
,,,,9,2.9054,,,,,,191,cake,cake,CHECK,90317,001,2022-04-29_13h24.45.661,SPAMnetsValid,2021.1.4,Win32,59.87306909,,,,,,,,,,,,,9,2.9054,0,11,11,10,1,,,,,,,,,,,,,,,,,,,,,,,,,,,,,,,,,,,,,,,,,,,,,,,,,,,,,,,,,,,,,,,,,,,,,,
,,,,1,3.8402,,,,,,80,chocolate,tree,,90317,001,2022-04-29_13h24.45.661,SPAMnetsValid,2021.1.4,Win32,59.87306909,,,,,,,,,,,,,1,3.8402,0,12,12,89,1,,,,,,,,,,,,,,,,,,,,,,,,,,,,,,,,,,,,,,,,,,,,,,,,,,,,,,,,,,,,,,,,,,,,,,
,,,,5,3.2453,,,,,,59,rose,strawberry,,90317,001,2022-04-29_13h24.45.661,SPAMnetsValid,2021.1.4,Win32,59.87306909,,,,,,,,,,,,,5,3.2453,0,13,13,72,1,,,,,,,,,,,,,,,,,,,,,,,,,,,,,,,,,,,,,,,,,,,,,,,,,,,,,,,,,,,,,,,,,,,,,,
,,,,1,1.8536,,,,,,28,cake,melon,,90317,001,2022-04-29_13h24.45.661,SPAMnetsValid,2021.1.4,Win32,59.87306909,,,,,,,,,,,,,1,1.8536,0,14,14,54,1,,,,,,,,,,,,,,,,,,,,,,,,,,,,,,,,,,,,,,,,,,,,,,,,,,,,,,,,,,,,,,,,,,,,,,
,,,,1,1.5468,,,,,,21,cake,onion,,90317,001,2022-04-29_13h24.45.661,SPAMnetsValid,2021.1.4,Win32,59.87306909,,,,,,,,,,,,,1,1.5468,0,15,15,63,1,,,,,,,,,,,,,,,,,,,,,,,,,,,,,,,,,,,,,,,,,,,,,,,,,,,,,,,,,,,,,,,,,,,,,,
,,,,2,3.5915,,,,,,36,broom,kitchen,,90317,001,2022-04-29_13h24.45.661,SPAMnetsValid,2021.1.4,Win32,59.87306909,,,,,,,,,,,,,2,3.5915,0,16,16,76,1,,,,,,,,,,,,,,,,,,,,,,,,,,,,,,,,,,,,,,,,,,,,,,,,,,,,,,,,,,,,,,,,,,,,,,
,,,,1,1.3933,,,,,,92,broom,flower,,90317,001,2022-04-29_13h24.45.661,SPAMnetsValid,2021.1.4,Win32,59.87306909,,,,,,,,,,,,,1,1.3933,0,17,17,88,1,,,,,,,,,,,,,,,,,,,,,,,,,,,,,,,,,,,,,,,,,,,,,,,,,,,,,,,,,,,,,,,,,,,,,,
,,,,7,4.4124,,,,,,42,garden,kitchen,,90317,001,2022-04-29_13h24.45.661,SPAMnetsValid,2021.1.4,Win32,59.87306909,,,,,,,,,,,,,7,4.4124,0,18,18,29,1,,,,,,,,,,,,,,,,,,,,,,,,,,,,,,,,,,,,,,,,,,,,,,,,,,,,,,,,,,,,,,,,,,,,,,
,,,,1,2.7596,,,,,,34,melon,oven,,90317,001,2022-04-29_13h24.45.661,SPAMnetsValid,2021.1.4,Win32,59.87306909,,,,,,,,,,,,,1,2.7596,0,19,19,7,1,,,,,,,,,,,,,,,,,,,,,,,,,,,,,,,,,,,,,,,,,,,,,,,,,,,,,,,,,,,,,,,,,,,,,,
,,,,1,1.7858,,,,,,48,flower,oven,,90317,001,2022-04-29_13h24.45.661,SPAMnetsValid,2021.1.4,Win32,59.87306909,,,,,,,,,,,,,1,1.7858,0,20,20,15,1,,,,,,,,,,,,,,,,,,,,,,,,,,,,,,,,,,,,,,,,,,,,,,,,,,,,,,,,,,,,,,,,,,,,,,
,,,,7,2.5434,,,,,,6,garden,onion,,90317,001,2022-04-29_13h24.45.661,SPAMnetsValid,2021.1.4,Win32,59.87306909,,,,,,,,,,,,,7,2.5434,0,21,21,83,1,,,,,,,,,,,,,,,,,,,,,,,,,,,,,,,,,,,,,,,,,,,,,,,,,,,,,,,,,,,,,,,,,,,,,,
,,,,8,2.0092,,,,,,93,kitchen,oven,,90317,001,2022-04-29_13h24.45.661,SPAMnetsValid,2021.1.4,Win32,59.87306909,,,,,,,,,,,,,8,2.0092,0,22,22,82,1,,,,,,,,,,,,,,,,,,,,,,,,,,,,,,,,,,,,,,,,,,,,,,,,,,,,,,,,,,,,,,,,,,,,,,
,,,,1,3.4523,,,,,,73,broom,chocolate,,90317,001,2022-04-29_13h24.45.661,SPAMnetsValid,2021.1.4,Win32,59.87306909,,,,,,,,,,,,,1,3.4523,0,23,23,47,1,,,,,,,,,,,,,,,,,,,,,,,,,,,,,,,,,,,,,,,,,,,,,,,,,,,,,,,,,,,,,,,,,,,,,,
,,,,1,1.6702,,,,,,44,cookie,melon,,90317,001,2022-04-29_13h24.45.661,SPAMnetsValid,2021.1.4,Win32,59.87306909,,,,,,,,,,,,,1,1.6702,0,24,24,92,1,,,,,,,,,,,,,,,,,,,,,,,,,,,,,,,,,,,,,,,,,,,,,,,,,,,,,,,,,,,,,,,,,,,,,,
,,,,8,2.1266,,,,,,76,garden,rose,,90317,001,2022-04-29_13h24.45.661,SPAMnetsValid,2021.1.4,Win32,59.87306909,,,,,,,,,,,,,8,2.1266,0,25,25,19,1,,,,,,,,,,,,,,,,,,,,,,,,,,,,,,,,,,,,,,,,,,,,,,,,,,,,,,,,,,,,,,,,,,,,,,
,,,,1,2.2978,,,,,,33,oven,yogurt,,90317,001,2022-04-29_13h24.45.661,SPAMnetsValid,2021.1.4,Win32,59.87306909,,,,,,,,,,,,,1,2.2978,0,26,26,31,1,,,,,,,,,,,,,,,,,,,,,,,,,,,,,,,,,,,,,,,,,,,,,,,,,,,,,,,,,,,,,,,,,,,,,,
,,,,1,2.8134,,,,,,87,carrot,yogurt,,90317,001,2022-04-29_13h24.45.661,SPAMnetsValid,2021.1.4,Win32,59.87306909,,,,,,,,,,,,,1,2.8134,0,27,27,6,1,,,,,,,,,,,,,,,,,,,,,,,,,,,,,,,,,,,,,,,,,,,,,,,,,,,,,,,,,,,,,,,,,,,,,,
,,,,1,1.8805,,,,,,15,onion,oven,,90317,001,2022-04-29_13h24.45.661,SPAMnetsValid,2021.1.4,Win32,59.87306909,,,,,,,,,,,,,1,1.8805,0,28,28,39,1,,,,,,,,,,,,,,,,,,,,,,,,,,,,,,,,,,,,,,,,,,,,,,,,,,,,,,,,,,,,,,,,,,,,,,
,,,,1,1.8744,,,,,,39,melon,pretzel,,90317,001,2022-04-29_13h24.45.661,SPAMnetsValid,2021.1.4,Win32,59.87306909,,,,,,,,,,,,,1,1.8744,0,29,29,20,1,,,,,,,,,,,,,,,,,,,,,,,,,,,,,,,,,,,,,,,,,,,,,,,,,,,,,,,,,,,,,,,,,,,,,,
,,,,1,1.882,,,,,,5,oven,tree,,90317,001,2022-04-29_13h24.45.661,SPAMnetsValid,2021.1.4,Win32,59.87306909,,,,,,,,,,,,,1,1.882,0,30,30,70,1,,,,,,,,,,,,,,,,,,,,,,,,,,,,,,,,,,,,,,,,,,,,,,,,,,,,,,,,,,,,,,,,,,,,,,
,,,,1,1.9853,,,,,,53,garden,pretzel,,90317,001,2022-04-29_13h24.45.661,SPAMnetsValid,2021.1.4,Win32,59.87306909,,,,,,,,,,,,,1,1.9853,0,31,31,0,1,,,,,,,,,,,,,,,,,,,,,,,,,,,,,,,,,,,,,,,,,,,,,,,,,,,,,,,,,,,,,,,,,,,,,,
,,,,8,2.6301,,,,,,47,onion,tomato,,90317,001,2022-04-29_13h24.45.661,SPAMnetsValid,2021.1.4,Win32,59.87306909,,,,,,,,,,,,,8,2.6301,0,32,32,51,1,,,,,,,,,,,,,,,,,,,,,,,,,,,,,,,,,,,,,,,,,,,,,,,,,,,,,,,,,,,,,,,,,,,,,,
,,,,1,1.5707,,,,,,83,broom,carrot,,90317,001,2022-04-29_13h24.45.661,SPAMnetsValid,2021.1.4,Win32,59.87306909,,,,,,,,,,,,,1,1.5707,0,33,33,4,1,,,,,,,,,,,,,,,,,,,,,,,,,,,,,,,,,,,,,,,,,,,,,,,,,,,,,,,,,,,,,,,,,,,,,,
,,,,1,2.6773,,,,,,81,pretzel,yogurt,,90317,001,2022-04-29_13h24.45.661,SPAMnetsValid,2021.1.4,Win32,59.87306909,,,,,,,,,,,,,1,2.6773,0,34,34,50,1,,,,,,,,,,,,,,,,,,,,,,,,,,,,,,,,,,,,,,,,,,,,,,,,,,,,,,,,,,,,,,,,,,,,,,
,,,,1,2.1445,,,,,,46,garden,yogurt,,90317,001,2022-04-29_13h24.45.661,SPAMnetsValid,2021.1.4,Win32,59.87306909,,,,,,,,,,,,,1,2.1445,0,35,35,65,1,,,,,,,,,,,,,,,,,,,,,,,,,,,,,,,,,,,,,,,,,,,,,,,,,,,,,,,,,,,,,,,,,,,,,,
,,,,2,5.0452,,,,,,30,cookie,pretzel,,90317,001,2022-04-29_13h24.45.661,SPAMnetsValid,2021.1.4,Win32,59.87306909,,,,,,,,,,,,,2,5.0452,0,36,36,78,1,,,,,,,,,,,,,,,,,,,,,,,,,,,,,,,,,,,,,,,,,,,,,,,,,,,,,,,,,,,,,,,,,,,,,,
,,,,1,2.2525,,,,,,88,cactus,melon,,90317,001,2022-04-29_13h24.45.661,SPAMnetsValid,2021.1.4,Win32,59.87306909,,,,,,,,,,,,,1,2.2525,0,37,37,38,1,,,,,,,,,,,,,,,,,,,,,,,,,,,,,,,,,,,,,,,,,,,,,,,,,,,,,,,,,,,,,,,,,,,,,,
,,,,1,1.7523,,,,,,16,chocolate,flower,,90317,001,2022-04-29_13h24.45.661,SPAMnetsValid,2021.1.4,Win32,59.87306909,,,,,,,,,,,,,1,1.7523,0,38,38,22,1,,,,,,,,,,,,,,,,,,,,,,,,,,,,,,,,,,,,,,,,,,,,,,,,,,,,,,,,,,,,,,,,,,,,,,
,,,,5,2.4551,,,,,,50,carrot,rose,,90317,001,2022-04-29_13h24.45.661,SPAMnetsValid,2021.1.4,Win32,59.87306909,,,,,,,,,,,,,5,2.4551,0,39,39,73,1,,,,,,,,,,,,,,,,,,,,,,,,,,,,,,,,,,,,,,,,,,,,,,,,,,,,,,,,,,,,,,,,,,,,,,
,,,,1,2.6294,,,,,,41,broom,cactus,,90317,001,2022-04-29_13h24.45.661,SPAMnetsValid,2021.1.4,Win32,59.87306909,,,,,,,,,,,,,1,2.6294,0,40,40,46,1,,,,,,,,,,,,,,,,,,,,,,,,,,,,,,,,,,,,,,,,,,,,,,,,,,,,,,,,,,,,,,,,,,,,,,
,,,,1,1.7131,,,,,,60,cactus,onion,,90317,001,2022-04-29_13h24.45.661,SPAMnetsValid,2021.1.4,Win32,59.87306909,,,,,,,,,,,,,1,1.7131,0,41,41,81,1,,,,,,,,,,,,,,,,,,,,,,,,,,,,,,,,,,,,,,,,,,,,,,,,,,,,,,,,,,,,,,,,,,,,,,
,,,,1,1.9021,,,,,,35,flower,pretzel,,90317,001,2022-04-29_13h24.45.661,SPAMnetsValid,2021.1.4,Win32,59.87306909,,,,,,,,,,,,,1,1.9021,0,42,42,26,1,,,,,,,,,,,,,,,,,,,,,,,,,,,,,,,,,,,,,,,,,,,,,,,,,,,,,,,,,,,,,,,,,,,,,,
,,,,1,2.9777,,,,,,26,tomato,yogurt,,90317,001,2022-04-29_13h24.45.661,SPAMnetsValid,2021.1.4,Win32,59.87306909,,,,,,,,,,,,,1,2.9777,0,43,43,13,1,,,,,,,,,,,,,,,,,,,,,,,,,,,,,,,,,,,,,,,,,,,,,,,,,,,,,,,,,,,,,,,,,,,,,,
,,,,9,1.9962,,,,,,192,microwave,microwave,CHECK,90317,001,2022-04-29_13h24.45.661,SPAMnetsValid,2021.1.4,Win32,59.87306909,,,,,,,,,,,,,9,1.9962,0,44,44,53,1,,,,,,,,,,,,,,,,,,,,,,,,,,,,,,,,,,,,,,,,,,,,,,,,,,,,,,,,,,,,,,,,,,,,,,
,,,,1,3.6041,,,,,,38,pretzel,refrigerator,,90317,001,2022-04-29_13h24.45.661,SPAMnetsValid,2021.1.4,Win32,59.87306909,,,,,,,,,,,,,1,3.6041,0,45,45,71,1,,,,,,,,,,,,,,,,,,,,,,,,,,,,,,,,,,,,,,,,,,,,,,,,,,,,,,,,,,,,,,,,,,,,,,
,,,,1,3.3878,,,,,,13,broom,yogurt,,90317,001,2022-04-29_13h24.45.661,SPAMnetsValid,2021.1.4,Win32,59.87306909,,,,,,,,,,,,,1,3.3878,0,46,46,5,1,,,,,,,,,,,,,,,,,,,,,,,,,,,,,,,,,,,,,,,,,,,,,,,,,,,,,,,,,,,,,,,,,,,,,,
,,,,1,9.9326,,,,,,91,microwave,rose,,90317,001,2022-04-29_13h24.45.661,SPAMnetsValid,2021.1.4,Win32,59.87306909,,,,,,,,,,,,,1,9.9326,0,47,47,84,1,,,,,,,,,,,,,,,,,,,,,,,,,,,,,,,,,,,,,,,,,,,,,,,,,,,,,,,,,,,,,,,,,,,,,,
,,,,1,1.576,,,,,,14,broom,cookie,,90317,001,2022-04-29_13h24.45.661,SPAMnetsValid,2021.1.4,Win32,59.87306909,,,,,,,,,,,,,1,1.576,0,48,48,16,1,,,,,,,,,,,,,,,,,,,,,,,,,,,,,,,,,,,,,,,,,,,,,,,,,,,,,,,,,,,,,,,,,,,,,,
,,,,1,1.5917,,,,,,12,cookie,yogurt,,90317,001,2022-04-29_13h24.45.661,SPAMnetsValid,2021.1.4,Win32,59.87306909,,,,,,,,,,,,,1,1.5917,0,49,49,36,1,,,,,,,,,,,,,,,,,,,,,,,,,,,,,,,,,,,,,,,,,,,,,,,,,,,,,,,,,,,,,,,,,,,,,,
,,,,1,1.9238,,,,,,86,oven,rose,,90317,001,2022-04-29_13h24.45.661,SPAMnetsValid,2021.1.4,Win32,59.87306909,,,,,,,,,,,,,1,1.9238,0,50,50,79,1,,,,,,,,,,,,,,,,,,,,,,,,,,,,,,,,,,,,,,,,,,,,,,,,,,,,,,,,,,,,,,,,,,,,,,
,,,,8,1.9924,,,,,,63,cake,cookie,,90317,001,2022-04-29_13h24.45.661,SPAMnetsValid,2021.1.4,Win32,59.87306909,,,,,,,,,,,,,8,1.9924,0,51,51,93,1,,,,,,,,,,,,,,,,,,,,,,,,,,,,,,,,,,,,,,,,,,,,,,,,,,,,,,,,,,,,,,,,,,,,,,
,,,,1,3.3591,,,,,,74,broom,pretzel,,90317,001,2022-04-29_13h24.45.661,SPAMnetsValid,2021.1.4,Win32,59.87306909,,,,,,,,,,,,,1,3.3591,0,52,52,40,1,,,,,,,,,,,,,,,,,,,,,,,,,,,,,,,,,,,,,,,,,,,,,,,,,,,,,,,,,,,,,,,,,,,,,,
,,,,1,2.1526,,,,,,85,cake,tree,,90317,001,2022-04-29_13h24.45.661,SPAMnetsValid,2021.1.4,Win32,59.87306909,,,,,,,,,,,,,1,2.1526,0,53,53,18,1,,,,,,,,,,,,,,,,,,,,,,,,,,,,,,,,,,,,,,,,,,,,,,,,,,,,,,,,,,,,,,,,,,,,,,
,,,,2,3.0527,,,,,,4,chocolate,pretzel,,90317,001,2022-04-29_13h24.45.661,SPAMnetsValid,2021.1.4,Win32,59.87306909,,,,,,,,,,,,,2,3.0527,0,54,54,52,1,,,,,,,,,,,,,,,,,,,,,,,,,,,,,,,,,,,,,,,,,,,,,,,,,,,,,,,,,,,,,,,,,,,,,,
,,,,1,1.5541,,,,,,71,broom,rose,,90317,001,2022-04-29_13h24.45.661,SPAMnetsValid,2021.1.4,Win32,59.87306909,,,,,,,,,,,,,1,1.5541,0,55,55,61,1,,,,,,,,,,,,,,,,,,,,,,,,,,,,,,,,,,,,,,,,,,,,,,,,,,,,,,,,,,,,,,,,,,,,,,
,,,,7,4.2644,,,,,,20,rose,tree,,90317,001,2022-04-29_13h24.45.661,SPAMnetsValid,2021.1.4,Win32,59.87306909,,,,,,,,,,,,,7,4.2644,0,56,56,66,1,,,,,,,,,,,,,,,,,,,,,,,,,,,,,,,,,,,,,,,,,,,,,,,,,,,,,,,,,,,,,,,,,,,,,,
,,,,8,2.0922,,,,,,94,kitchen,microwave,,90317,001,2022-04-29_13h24.45.661,SPAMnetsValid,2021.1.4,Win32,59.87306909,,,,,,,,,,,,,8,2.0922,0,57,57,58,1,,,,,,,,,,,,,,,,,,,,,,,,,,,,,,,,,,,,,,,,,,,,,,,,,,,,,,,,,,,,,,,,,,,,,,
,,,,1,2.7385,,,,,,58,garden,oven,,90317,001,2022-04-29_13h24.45.661,SPAMnetsValid,2021.1.4,Win32,59.87306909,,,,,,,,,,,,,1,2.7385,0,58,58,37,1,,,,,,,,,,,,,,,,,,,,,,,,,,,,,,,,,,,,,,,,,,,,,,,,,,,,,,,,,,,,,,,,,,,,,,
,,,,1,1.619,,,,,,70,chocolate,onion,,90317,001,2022-04-29_13h24.45.661,SPAMnetsValid,2021.1.4,Win32,59.87306909,,,,,,,,,,,,,1,1.619,0,59,59,74,1,,,,,,,,,,,,,,,,,,,,,,,,,,,,,,,,,,,,,,,,,,,,,,,,,,,,,,,,,,,,,,,,,,,,,,
,,,,8,2.8922,,,,,,3,cake,oven,,90317,001,2022-04-29_13h24.45.661,SPAMnetsValid,2021.1.4,Win32,59.87306909,,,,,,,,,,,,,8,2.8922,0,60,60,30,1,,,,,,,,,,,,,,,,,,,,,,,,,,,,,,,,,,,,,,,,,,,,,,,,,,,,,,,,,,,,,,,,,,,,,,
,,,,1,1.9779,,,,,,65,broom,garden,,90317,001,2022-04-29_13h24.45.661,SPAMnetsValid,2021.1.4,Win32,59.87306909,,,,,,,,,,,,,1,1.9779,0,61,61,23,1,,,,,,,,,,,,,,,,,,,,,,,,,,,,,,,,,,,,,,,,,,,,,,,,,,,,,,,,,,,,,,,,,,,,,,
,,,,1,1.7469,,,,,,66,melon,yogurt,,90317,001,2022-04-29_13h24.45.661,SPAMnetsValid,2021.1.4,Win32,59.87306909,,,,,,,,,,,,,1,1.7469,0,62,62,48,1,,,,,,,,,,,,,,,,,,,,,,,,,,,,,,,,,,,,,,,,,,,,,,,,,,,,,,,,,,,,,,,,,,,,,,
,,,,8,5.1514,,,,,,52,carrot,tomato,,90317,001,2022-04-29_13h24.45.661,SPAMnetsValid,2021.1.4,Win32,59.87306909,,,,,,,,,,,,,8,5.1514,0,63,63,95,1,,,,,,,,,,,,,,,,,,,,,,,,,,,,,,,,,,,,,,,,,,,,,,,,,,,,,,,,,,,,,,,,,,,,,,
,,,,8,2.0072,,,,,,25,carrot,onion,,90317,001,2022-04-29_13h24.45.661,SPAMnetsValid,2021.1.4,Win32,59.87306909,,,,,,,,,,,,,8,2.0072,0,64,64,44,1,,,,,,,,,,,,,,,,,,,,,,,,,,,,,,,,,,,,,,,,,,,,,,,,,,,,,,,,,,,,,,,,,,,,,,
,,,,5,1.7213,,,,,,2,kitchen,onion,,90317,001,2022-04-29_13h24.45.661,SPAMnetsValid,2021.1.4,Win32,59.87306909,,,,,,,,,,,,,5,1.7213,0,65,65,91,1,,,,,,,,,,,,,,,,,,,,,,,,,,,,,,,,,,,,,,,,,,,,,,,,,,,,,,,,,,,,,,,,,,,,,,
,,,,3,2.2015,,,,,,51,onion,strawberry,,90317,001,2022-04-29_13h24.45.661,SPAMnetsValid,2021.1.4,Win32,59.87306909,,,,,,,,,,,,,3,2.2015,0,66,66,86,1,,,,,,,,,,,,,,,,,,,,,,,,,,,,,,,,,,,,,,,,,,,,,,,,,,,,,,,,,,,,,,,,,,,,,,
,,,,2,4.4183,,,,,,18,onion,refrigerator,,90317,001,2022-04-29_13h24.45.661,SPAMnetsValid,2021.1.4,Win32,59.87306909,,,,,,,,,,,,,2,4.4183,0,67,67,62,1,,,,,,,,,,,,,,,,,,,,,,,,,,,,,,,,,,,,,,,,,,,,,,,,,,,,,,,,,,,,,,,,,,,,,,
,,,,1,1.6033,,,,,,72,broom,onion,,90317,001,2022-04-29_13h24.45.661,SPAMnetsValid,2021.1.4,Win32,59.87306909,,,,,,,,,,,,,1,1.6033,0,68,68,27,1,,,,,,,,,,,,,,,,,,,,,,,,,,,,,,,,,,,,,,,,,,,,,,,,,,,,,,,,,,,,,,,,,,,,,,
,,,,3,2.8438,,,,,,37,garden,refrigerator,,90317,001,2022-04-29_13h24.45.661,SPAMnetsValid,2021.1.4,Win32,59.87306909,,,,,,,,,,,,,3,2.8438,0,69,69,11,1,,,,,,,,,,,,,,,,,,,,,,,,,,,,,,,,,,,,,,,,,,,,,,,,,,,,,,,,,,,,,,,,,,,,,,
,,,,3,4.2092,,,,,,56,cactus,tree,,90317,001,2022-04-29_13h24.45.661,SPAMnetsValid,2021.1.4,Win32,59.87306909,,,,,,,,,,,,,3,4.2092,0,70,70,21,1,,,,,,,,,,,,,,,,,,,,,,,,,,,,,,,,,,,,,,,,,,,,,,,,,,,,,,,,,,,,,,,,,,,,,,
,,,,1,1.6446,,,,,,57,flower,kitchen,,90317,001,2022-04-29_13h24.45.661,SPAMnetsValid,2021.1.4,Win32,59.87306909,,,,,,,,,,,,,1,1.6446,0,71,71,49,1,,,,,,,,,,,,,,,,,,,,,,,,,,,,,,,,,,,,,,,,,,,,,,,,,,,,,,,,,,,,,,,,,,,,,,
,,,,1,1.755,,,,,,43,chocolate,tomato,,90317,001,2022-04-29_13h24.45.661,SPAMnetsValid,2021.1.4,Win32,59.87306909,,,,,,,,,,,,,1,1.755,0,72,72,8,1,,,,,,,,,,,,,,,,,,,,,,,,,,,,,,,,,,,,,,,,,,,,,,,,,,,,,,,,,,,,,,,,,,,,,,
,,,,2,2.172,,,,,,17,carrot,melon,,90317,001,2022-04-29_13h24.45.661,SPAMnetsValid,2021.1.4,Win32,59.87306909,,,,,,,,,,,,,2,2.172,0,73,73,24,1,,,,,,,,,,,,,,,,,,,,,,,,,,,,,,,,,,,,,,,,,,,,,,,,,,,,,,,,,,,,,,,,,,,,,,
,,,,1,1.5022,,,,,,19,microwave,pretzel,,90317,001,2022-04-29_13h24.45.661,SPAMnetsValid,2021.1.4,Win32,59.87306909,,,,,,,,,,,,,1,1.5022,0,74,74,41,1,,,,,,,,,,,,,,,,,,,,,,,,,,,,,,,,,,,,,,,,,,,,,,,,,,,,,,,,,,,,,,,,,,,,,,
,,,,1,1.7481,,,,,,89,chocolate,rose,,90317,001,2022-04-29_13h24.45.661,SPAMnetsValid,2021.1.4,Win32,59.87306909,,,,,,,,,,,,,1,1.7481,0,75,75,60,1,,,,,,,,,,,,,,,,,,,,,,,,,,,,,,,,,,,,,,,,,,,,,,,,,,,,,,,,,,,,,,,,,,,,,,
,,,,1,8.9237,,,,,,69,carrot,refrigerator,,90317,001,2022-04-29_13h24.45.661,SPAMnetsValid,2021.1.4,Win32,59.87306909,,,,,,,,,,,,,1,8.9237,0,76,76,75,1,,,,,,,,,,,,,,,,,,,,,,,,,,,,,,,,,,,,,,,,,,,,,,,,,,,,,,,,,,,,,,,,,,,,,,
,,,,1,1.5579,,,,,,8,broom,melon,,90317,001,2022-04-29_13h24.45.661,SPAMnetsValid,2021.1.4,Win32,59.87306909,,,,,,,,,,,,,1,1.5579,0,77,77,59,1,,,,,,,,,,,,,,,,,,,,,,,,,,,,,,,,,,,,,,,,,,,,,,,,,,,,,,,,,,,,,,,,,,,,,,
,,,,1,2.4383,,,,,,49,flower,strawberry,,90317,001,2022-04-29_13h24.45.661,SPAMnetsValid,2021.1.4,Win32,59.87306909,,,,,,,,,,,,,1,2.4383,0,78,78,3,1,,,,,,,,,,,,,,,,,,,,,,,,,,,,,,,,,,,,,,,,,,,,,,,,,,,,,,,,,,,,,,,,,,,,,,
,,,,1,2.8044,,,,,,95,broom,refrigerator,,90317,001,2022-04-29_13h24.45.661,SPAMnetsValid,2021.1.4,Win32,59.87306909,,,,,,,,,,,,,1,2.8044,0,79,79,90,1,,,,,,,,,,,,,,,,,,,,,,,,,,,,,,,,,,,,,,,,,,,,,,,,,,,,,,,,,,,,,,,,,,,,,,
,,,,1,1.7906,,,,,,10,flower,onion,,90317,001,2022-04-29_13h24.45.661,SPAMnetsValid,2021.1.4,Win32,59.87306909,,,,,,,,,,,,,1,1.7906,0,80,80,45,1,,,,,,,,,,,,,,,,,,,,,,,,,,,,,,,,,,,,,,,,,,,,,,,,,,,,,,,,,,,,,,,,,,,,,,
,,,,1,1.6225,,,,,,45,onion,pretzel,,90317,001,2022-04-29_13h24.45.661,SPAMnetsValid,2021.1.4,Win32,59.87306909,,,,,,,,,,,,,1,1.6225,0,81,81,69,1,,,,,,,,,,,,,,,,,,,,,,,,,,,,,,,,,,,,,,,,,,,,,,,,,,,,,,,,,,,,,,,,,,,,,,
,,,,5,4.2256,,,,,,55,tomato,tree,,90317,001,2022-04-29_13h24.45.661,SPAMnetsValid,2021.1.4,Win32,59.87306909,,,,,,,,,,,,,5,4.2256,0,82,82,35,1,,,,,,,,,,,,,,,,,,,,,,,,,,,,,,,,,,,,,,,,,,,,,,,,,,,,,,,,,,,,,,,,,,,,,,
,,,,1,2.9105,,,,,,40,broom,cake,,90317,001,2022-04-29_13h24.45.661,SPAMnetsValid,2021.1.4,Win32,59.87306909,,,,,,,,,,,,,1,2.9105,0,83,83,32,1,,,,,,,,,,,,,,,,,,,,,,,,,,,,,,,,,,,,,,,,,,,,,,,,,,,,,,,,,,,,,,,,,,,,,,
,,,,1,2.019,,,,,,54,chocolate,yogurt,,90317,001,2022-04-29_13h24.45.661,SPAMnetsValid,2021.1.4,Win32,59.87306909,,,,,,,,,,,,,1,2.019,0,84,84,67,1,,,,,,,,,,,,,,,,,,,,,,,,,,,,,,,,,,,,,,,,,,,,,,,,,,,,,,,,,,,,,,,,,,,,,,
,,,,1,1.692,,,,,,84,oven,tomato,,90317,001,2022-04-29_13h24.45.661,SPAMnetsValid,2021.1.4,Win32,59.87306909,,,,,,,,,,,,,1,1.692,0,85,85,28,1,,,,,,,,,,,,,,,,,,,,,,,,,,,,,,,,,,,,,,,,,,,,,,,,,,,,,,,,,,,,,,,,,,,,,,
,,,,7,2.6031,,,,,,9,kitchen,refrigerator,,90317,001,2022-04-29_13h24.45.661,SPAMnetsValid,2021.1.4,Win32,59.87306909,,,,,,,,,,,,,7,2.6031,0,86,86,64,1,,,,,,,,,,,,,,,,,,,,,,,,,,,,,,,,,,,,,,,,,,,,,,,,,,,,,,,,,,,,,,,,,,,,,,
,,,,3,1.8734,,,,,,77,refrigerator,yogurt,,90317,001,2022-04-29_13h24.45.661,SPAMnetsValid,2021.1.4,Win32,59.87306909,,,,,,,,,,,,,3,1.8734,0,87,87,42,1,,,,,,,,,,,,,,,,,,,,,,,,,,,,,,,,,,,,,,,,,,,,,,,,,,,,,,,,,,,,,,,,,,,,,,
,,,,1,1.7691,,,,,,78,cookie,rose,,90317,001,2022-04-29_13h24.45.661,SPAMnetsValid,2021.1.4,Win32,59.87306909,,,,,,,,,,,,,1,1.7691,0,88,88,56,1,,,,,,,,,,,,,,,,,,,,,,,,,,,,,,,,,,,,,,,,,,,,,,,,,,,,,,,,,,,,,,,,,,,,,,
,,,,1,1.9723,,,,,,7,melon,tree,,90317,001,2022-04-29_13h24.45.661,SPAMnetsValid,2021.1.4,Win32,59.87306909,,,,,,,,,,,,,1,1.9723,0,89,89,77,1,,,,,,,,,,,,,,,,,,,,,,,,,,,,,,,,,,,,,,,,,,,,,,,,,,,,,,,,,,,,,,,,,,,,,,
,,,,3,4.1622,,,,,,22,kitchen,strawberry,,90317,001,2022-04-29_13h24.45.661,SPAMnetsValid,2021.1.4,Win32,59.87306909,,,,,,,,,,,,,3,4.1622,0,90,90,2,1,,,,,,,,,,,,,,,,,,,,,,,,,,,,,,,,,,,,,,,,,,,,,,,,,,,,,,,,,,,,,,,,,,,,,,
,,,,4,3.1408,,,,,,82,cake,kitchen,,90317,001,2022-04-29_13h24.45.661,SPAMnetsValid,2021.1.4,Win32,59.87306909,,,,,,,,,,,,,4,3.1408,0,91,91,96,1,,,,,,,,,,,,,,,,,,,,,,,,,,,,,,,,,,,,,,,,,,,,,,,,,,,,,,,,,,,,,,,,,,,,,,
,,,,5,2.413,,,,,,68,flower,tomato,,90317,001,2022-04-29_13h24.45.661,SPAMnetsValid,2021.1.4,Win32,59.87306909,,,,,,,,,,,,,5,2.413,0,92,92,94,1,,,,,,,,,,,,,,,,,,,,,,,,,,,,,,,,,,,,,,,,,,,,,,,,,,,,,,,,,,,,,,,,,,,,,,
,,,,1,1.3356,,,,,,67,flower,yogurt,,90317,001,2022-04-29_13h24.45.661,SPAMnetsValid,2021.1.4,Win32,59.87306909,,,,,,,,,,,,,1,1.3356,0,93,93,12,1,,,,,,,,,,,,,,,,,,,,,,,,,,,,,,,,,,,,,,,,,,,,,,,,,,,,,,,,,,,,,,,,,,,,,,
,,,,1,1.6542,,,,,,64,chocolate,garden,,90317,001,2022-04-29_13h24.45.661,SPAMnetsValid,2021.1.4,Win32,59.87306909,,,,,,,,,,,,,1,1.6542,0,94,94,14,1,,,,,,,,,,,,,,,,,,,,,,,,,,,,,,,,,,,,,,,,,,,,,,,,,,,,,,,,,,,,,,,,,,,,,,
,,,,1,3.2284,,,,,,32,cake,microwave,,90317,001,2022-04-29_13h24.45.661,SPAMnetsValid,2021.1.4,Win32,59.87306909,,,,,,,,,,,,,1,3.2284,0,95,95,33,1,,,,,,,,,,,,,,,,,,,,,,,,,,,,,,,,,,,,,,,,,,,,,,,,,,,,,,,,,,,,,,,,,,,,,,
,,,,1,2.1025,,,,,,1,rose,yogurt,,90317,001,2022-04-29_13h24.45.661,SPAMnetsValid,2021.1.4,Win32,59.87306909,,,,,,,,,,,,,1,2.1025,0,96,96,55,1,,,,,,,,,,,,,,,,,,,,,,,,,,,,,,,,,,,,,,,,,,,,,,,,,,,,,,,,,,,,,,,,,,,,,,
,,,,,,,,,,,,,,,90317,001,2022-04-29_13h24.45.661,SPAMnetsValid,2021.1.4,Win32,59.87306909,,,,,,,,,,,,,,,,,,,,0,0,0,0,1,,,,,,,,,,,,,,,,,,,,,,,,,,,,,,,,,,,,,,,,,,,,,,,,,,,,,,,,,,,,,,,,,
,,,,,,,,,,,,,,,90317,001,2022-04-29_13h24.45.661,SPAMnetsValid,2021.1.4,Win32,59.87306909,,,,,,0,1,1,0,1,1,0,,,,,,,,,,,,,,,,,,,,,,,,,,,,,,,,,,,,,,,,,,,,,,,,,,,,,,,,,,,,,,,,,,,,,,,,,,,,,
,,,,,,,,,,,,,,,90317,001,2022-04-29_13h24.45.661,SPAMnetsValid,2021.1.4,Win32,59.87306909,,,,,,,,,,,,,,,,,,,,,,,,,2,4.6253,0,0,0,0,1,rancor,forbearance,ridicule,malice,bravery,3,,,,,,,,,,,,,,,,,,,,,,,,,,,,,,,,,,,,,,,,,,,,,,,,,,,,
,,,,,,,,,,,,,,,90317,001,2022-04-29_13h24.45.661,SPAMnetsValid,2021.1.4,Win32,59.87306909,,,,,,,,,,,,,,,,,,,,,,,,,1,3.0708,0,1,1,1,1,raucous,empty,quiet,smooth,harsh,4,,,,,,,,,,,,,,,,,,,,,,,,,,,,,,,,,,,,,,,,,,,,,,,,,,,,
,,,,,,,,,,,,,,,90317,001,2022-04-29_13h24.45.661,SPAMnetsValid,2021.1.4,Win32,59.87306909,,,,,,,,,,,,,,,,,,,,,,,,,3,2.9868,0,2,2,2,1,gargoyle,oil,medicine,carved waterspout,ugly building,3,,,,,,,,,,,,,,,,,,,,,,,,,,,,,,,,,,,,,,,,,,,,,,,,,,,,
,,,,,,,,,,,,,,,90317,001,2022-04-29_13h24.45.661,SPAMnetsValid,2021.1.4,Win32,59.87306909,,,,,,,,,,,,,,,,,,,,,,,,,1,4.6557,0,3,3,3,1,recrudesce,purify,renew activity,lack refinement,crush,2,,,,,,,,,,,,,,,,,,,,,,,,,,,,,,,,,,,,,,,,,,,,,,,,,,,,
,,,,,,,,,,,,,,,90317,001,2022-04-29_13h24.45.661,SPAMnetsValid,2021.1.4,Win32,59.87306909,,,,,,,,,,,,,,,,,,,,,,,,,1,13.2984,0,4,4,4,1,specious,"plausible, but not genuine",noteworthy,class or variety,roomy,1,,,,,,,,,,,,,,,,,,,,,,,,,,,,,,,,,,,,,,,,,,,,,,,,,,,,
,,,,,,,,,,,,,,,90317,001,2022-04-29_13h24.45.661,SPAMnetsValid,2021.1.4,Win32,59.87306909,,,,,,,,,,,,,,,,,,,,,,,,,3,2.9049,0,5,5,5,1,bauble,bubble,showy plaything,idle talk,confusion,2,,,,,,,,,,,,,,,,,,,,,,,,,,,,,,,,,,,,,,,,,,,,,,,,,,,,
,,,,,,,,,,,,,,,90317,001,2022-04-29_13h24.45.661,SPAMnetsValid,2021.1.4,Win32,59.87306909,,,,,,,,,,,,,,,,,,,,,,,,,2,6.043,0,6,6,6,1,prolific,scarce,producing abundantly,reckless,speaking profanely,2,,,,,,,,,,,,,,,,,,,,,,,,,,,,,,,,,,,,,,,,,,,,,,,,,,,,
,,,,,,,,,,,,,,,90317,001,2022-04-29_13h24.45.661,SPAMnetsValid,2021.1.4,Win32,59.87306909,,,,,,,,,,,,,,,,,,,,,,,,,4,3.7619,0,7,7,7,1,opulent,party,wealthy,happy frame of mind,semiprecious stone,2,,,,,,,,,,,,,,,,,,,,,,,,,,,,,,,,,,,,,,,,,,,,,,,,,,,,
,,,,,,,,,,,,,,,90317,001,2022-04-29_13h24.45.661,SPAMnetsValid,2021.1.4,Win32,59.87306909,,,,,,,,,,,,,,,,,,,,,,,,,1,5.1029,0,8,8,8,1,coercion,conspiracy,strategy,restraint,attraction,3,,,,,,,,,,,,,,,,,,,,,,,,,,,,,,,,,,,,,,,,,,,,,,,,,,,,
,,,,,,,,,,,,,,,90317,001,2022-04-29_13h24.45.661,SPAMnetsValid,2021.1.4,Win32,59.87306909,,,,,,,,,,,,,,,,,,,,,,,,,4,2.2759,0,9,9,9,1,hiatus,animal,calamity,dread,gap,4,,,,,,,,,,,,,,,,,,,,,,,,,,,,,,,,,,,,,,,,,,,,,,,,,,,,
,,,,,,,,,,,,,,,90317,001,2022-04-29_13h24.45.661,SPAMnetsValid,2021.1.4,Win32,59.87306909,,,,,,,,,,,,,,,,,,,,,,,,,3,6.2595,0,10,10,10,1,germane,microbe,contagious,relevant,different,3,,,,,,,,,,,,,,,,,,,,,,,,,,,,,,,,,,,,,,,,,,,,,,,,,,,,
,,,,,,,,,,,,,,,90317,001,2022-04-29_13h24.45.661,SPAMnetsValid,2021.1.4,Win32,59.87306909,,,,,,,,,,,,,,,,,,,,,,,,,1,5.7883,0,11,11,11,1,perfunctory,fundamental,formal,superficial,careful,3,,,,,,,,,,,,,,,,,,,,,,,,,,,,,,,,,,,,,,,,,,,,,,,,,,,,
,,,,,,,,,,,,,,,90317,001,2022-04-29_13h24.45.661,SPAMnetsValid,2021.1.4,Win32,59.87306909,,,,,,,,,,,,,,,,,,,,,,,,,4,3.1028,0,12,12,12,1,diverge,reveal,chant,distract the attention of,differ or turn off from,4,,,,,,,,,,,,,,,,,,,,,,,,,,,,,,,,,,,,,,,,,,,,,,,,,,,,
,,,,,,,,,,,,,,,90317,001,2022-04-29_13h24.45.661,SPAMnetsValid,2021.1.4,Win32,59.87306909,,,,,,,,,,,,,,,,,,,,,,,,,4,2.9077,0,13,13,13,1,evoke,take away,anger,connect,bring out,4,,,,,,,,,,,,,,,,,,,,,,,,,,,,,,,,,,,,,,,,,,,,,,,,,,,,
,,,,,,,,,,,,,,,90317,001,2022-04-29_13h24.45.661,SPAMnetsValid,2021.1.4,Win32,59.87306909,,,,,,,,,,,,,,,,,,,,,,,,,1,1.8724,0,14,14,14,1,pertinent,relevant,lying next to,necessary,bold,1,,,,,,,,,,,,,,,,,,,,,,,,,,,,,,,,,,,,,,,,,,,,,,,,,,,,
,,,,,,,,,,,,,,,90317,001,2022-04-29_13h24.45.661,SPAMnetsValid,2021.1.4,Win32,59.87306909,,,,,,,,,,,,,,,,,,,,,,,,,2,2.2467,0,15,15,15,1,holocaust,entirety,destruction,saintly,price,2,,,,,,,,,,,,,,,,,,,,,,,,,,,,,,,,,,,,,,,,,,,,,,,,,,,,
,,,,,,,,,,,,,,,90317,001,2022-04-29_13h24.45.661,SPAMnetsValid,2021.1.4,Win32,59.87306909,,,,,,,,,,,,,,,,,,,,,,,,,1,4.179,0,16,16,16,1,piquant,mellow,fish,pungent,cloth,3,,,,,,,,,,,,,,,,,,,,,,,,,,,,,,,,,,,,,,,,,,,,,,,,,,,,
,,,,,,,,,,,,,,,90317,001,2022-04-29_13h24.45.661,SPAMnetsValid,2021.1.4,Win32,59.87306909,,,,,,,,,,,,,,,,,,,,,,,,,3,4.0383,0,17,17,17,1,firmament,foundation,heavens,strong,glue,2,,,,,,,,,,,,,,,,,,,,,,,,,,,,,,,,,,,,,,,,,,,,,,,,,,,,
,,,,,,,,,,,,,,,90317,001,2022-04-29_13h24.45.661,SPAMnetsValid,2021.1.4,Win32,59.87306909,,,,,,,,,,,,,,,,,,,,,,,,,,,,,,,,,,,,,,4,6.6621,0,0,0,0,1,marketable,partisan,jocular,marriageable,salable,essential,4,,,,,,,,,,,,,,,,,,,,,,,,,,,,,,,,,,,,,,
,,,,,,,,,,,,,,,90317,001,2022-04-29_13h24.45.661,SPAMnetsValid,2021.1.4,Win32,59.87306909,,,,,,,,,,,,,,,,,,,,,,,,,,,,,,,,,,,,,,5,7.6732,0,1,1,1,1,cottontail,squirrel,poplar,boa,marshy plant,rabbit,5,,,,,,,,,,,,,,,,,,,,,,,,,,,,,,,,,,,,,,
,,,,,,,,,,,,,,,90317,001,2022-04-29_13h24.45.661,SPAMnetsValid,2021.1.4,Win32,59.87306909,,,,,,,,,,,,,,,,,,,,,,,,,,,,,,,,,,,,,,3,3.1393,0,2,2,2,1,boggy,afraid,false,marshy,dense,black,3,,,,,,,,,,,,,,,,,,,,,,,,,,,,,,,,,,,,,,
,,,,,,,,,,,,,,,90317,001,2022-04-29_13h24.45.661,SPAMnetsValid,2021.1.4,Win32,59.87306909,,,,,,,,,,,,,,,,,,,,,,,,,,,,,,,,,,,,,,5,4.9712,0,3,3,3,1,gruesomeness,blackness,falseness,vindictiveness,drunkenness,ghastliness,5,,,,,,,,,,,,,,,,,,,,,,,,,,,,,,,,,,,,,,
,,,,,,,,,,,,,,,90317,001,2022-04-29_13h24.45.661,SPAMnetsValid,2021.1.4,Win32,59.87306909,,,,,,,,,,,,,,,,,,,,,,,,,,,,,,,,,,,,,,2,7.0513,0,4,4,4,1,loathing,diffidence,laziness,abhorrence,cleverness,comfort,3,,,,,,,,,,,,,,,,,,,,,,,,,,,,,,,,,,,,,,
,,,,,,,,,,,,,,,90317,001,2022-04-29_13h24.45.661,SPAMnetsValid,2021.1.4,Win32,59.87306909,,,,,,,,,,,,,,,,,,,,,,,,,,,,,,,,,,,,,,1,7.7454,0,5,5,5,1,bantam,fowl,ridicule,cripple,vegetable,ensign,1,,,,,,,,,,,,,,,,,,,,,,,,,,,,,,,,,,,,,,
,,,,,,,,,,,,,,,90317,001,2022-04-29_13h24.45.661,SPAMnetsValid,2021.1.4,Win32,59.87306909,,,,,,,,,,,,,,,,,,,,,,,,,,,,,,,,,,,,,,5,3.7303,0,6,6,6,1,evoke,wake up,surrender,reconnoiter,transcend,call forth,5,,,,,,,,,,,,,,,,,,,,,,,,,,,,,,,,,,,,,,
,,,,,,,,,,,,,,,90317,001,2022-04-29_13h24.45.661,SPAMnetsValid,2021.1.4,Win32,59.87306909,,,,,,,,,,,,,,,,,,,,,,,,,,,,,,,,,,,,,,3,7.1957,0,7,7,7,1,unobtrusive,unintelligent,epileptic,illogical,lineal,modest,5,,,,,,,,,,,,,,,,,,,,,,,,,,,,,,,,,,,,,,
,,,,,,,,,,,,,,,90317,001,2022-04-29_13h24.45.661,SPAMnetsValid,2021.1.4,Win32,59.87306909,,,,,,,,,,,,,,,,,,,,,,,,,,,,,,,,,,,,,,4,3.8278,0,8,8,8,1,terrain,ice cream,final test,tractor,area of ground,weight,4,,,,,,,,,,,,,,,,,,,,,,,,,,,,,,,,,,,,,,
,,,,,,,,,,,,,,,90317,001,2022-04-29_13h24.45.661,SPAMnetsValid,2021.1.4,Win32,59.87306909,,,,,,,,,,,,,,,,,,,,,,,,,,,,,,,,,,,,,,5,7.7691,0,9,9,9,1,capriciousness,stubbornness,courage,whimsicality,amazement,greediness,3,,,,,,,,,,,,,,,,,,,,,,,,,,,,,,,,,,,,,,
,,,,,,,,,,,,,,,90317,001,2022-04-29_13h24.45.661,SPAMnetsValid,2021.1.4,Win32,59.87306909,,,,,,,,,,,,,,,,,,,,,,,,,,,,,,,,,,,,,,1,2.6428,0,10,10,10,1,maelstrom,slander,whirlpool,enmity,armor,majolica,2,,,,,,,,,,,,,,,,,,,,,,,,,,,,,,,,,,,,,,
,,,,,,,,,,,,,,,90317,001,2022-04-29_13h24.45.661,SPAMnetsValid,2021.1.4,Win32,59.87306909,,,,,,,,,,,,,,,,,,,,,,,,,,,,,,,,,,,,,,,,0,11,11,11,1,tentative,critical,conclusive,authentic,provisional,apprehensive,4,,,,,,,,,,,,,,,,,,,,,,,,,,,,,,,,,,,,,,
,,,,,,,,,,,,,,,90317,001,2022-04-29_13h24.45.661,SPAMnetsValid,2021.1.4,Win32,59.87306909,,,,,,,,,,,,,,,,,,,,,,,,,,,,,,,,,,,,,,4,7.3977,0,12,12,12,1,placate,rehabilitate,plagiarize,depredate,apprise,conciliate,5,,,,,,,,,,,,,,,,,,,,,,,,,,,,,,,,,,,,,,
,,,,,,,,,,,,,,,90317,001,2022-04-29_13h24.45.661,SPAMnetsValid,2021.1.4,Win32,59.87306909,,,,,,,,,,,,,,,,,,,,,,,,,,,,,,,,,,,,,,2,3.3853,0,13,13,13,1,surcease,enlightenment,cessation,inattention,censor,substitution,2,,,,,,,,,,,,,,,,,,,,,,,,,,,,,,,,,,,,,,
,,,,,,,,,,,,,,,90317,001,2022-04-29_13h24.45.661,SPAMnetsValid,2021.1.4,Win32,59.87306909,,,,,,,,,,,,,,,,,,,,,,,,,,,,,,,,,,,,,,3,6.8244,0,14,14,14,1,apathetic,wandering,impassive,hateful,prophetic,overflowing,2,,,,,,,,,,,,,,,,,,,,,,,,,,,,,,,,,,,,,,
,,,,,,,,,,,,,,,90317,001,2022-04-29_13h24.45.661,SPAMnetsValid,2021.1.4,Win32,59.87306909,,,,,,,,,,,,,,,,,,,,,,,,,,,,,,,,,,,,,,4,5.6521,0,15,15,15,1,paternoster,paternalism,patricide,malediction,benediction,prayer,5,,,,,,,,,,,,,,,,,,,,,,,,,,,,,,,,,,,,,,
,,,,,,,,,,,,,,,90317,001,2022-04-29_13h24.45.661,SPAMnetsValid,2021.1.4,Win32,59.87306909,,,,,,,,,,,,,,,,,,,,,,,,,,,,,,,,,,,,,,5,5.1939,0,16,16,16,1,opalescence,opulence,senescence,bankruptcy,iridescence,assiduity,4,,,,,,,,,,,,,,,,,,,,,,,,,,,,,,,,,,,,,,
,,,,,,,,,,,,,,,90317,001,2022-04-29_13h24.45.661,SPAMnetsValid,2021.1.4,Win32,59.87306909,,,,,,,,,,,,,,,,,,,,,,,,,,,,,,,,,,,,,,2,4.0205,0,17,17,17,1,lush,stupid,luxurious,hazy,putrid,languishing,2,,,,,,,,,,,,,,,,,,,,,,,,,,,,,,,,,,,,,,
,,,,,,,,,,,,,,,90317,001,2022-04-29_13h24.45.661,SPAMnetsValid,2021.1.4,Win32,59.87306909,,,,,,,,,,,,,,,,,,,,,,,,,,,,,,,,,,,,,,5,4.3111,0,18,18,18,1,curtailment,expenditure,abandonment,abridgment,improvement,forgery,3,,,,,,,,,,,,,,,,,,,,,,,,,,,,,,,,,,,,,,
,,,,,,,,,,,,,,,90317,001,2022-04-29_13h24.45.661,SPAMnetsValid,2021.1.4,Win32,59.87306909,,,,,,,,,,,,,,,,,,,,,,,,,,,,,,,,,,,,,,4,7.3702,0,19,19,19,1,perversity,adversity,perviousness,travesty,waywardness,gentility,4,,,,,,,,,,,,,,,,,,,,,,,,,,,,,,,,,,,,,,
,,,,,,,,,,,,,,,90317,001,2022-04-29_13h24.45.661,SPAMnetsValid,2021.1.4,Win32,59.87306909,,,,,,,,,,,,,,,,,,,,,,,,,,,,,,,,,,,,,,3,5.1876,0,20,20,20,1,calumnious,complimentary,analogous,slanderous,tempestuous,magnanimous,3,,,,,,,,,,,,,,,,,,,,,,,,,,,,,,,,,,,,,,
,,,,,,,,,,,,,,,90317,001,2022-04-29_13h24.45.661,SPAMnetsValid,2021.1.4,Win32,59.87306909,,,,,,,,,,,,,,,,,,,,,,,,,,,,,,,,,,,,,,4,5.1744,0,21,21,21,1,illiberality,bigotry,imbecility,illegibility,cautery,immaturity,1,,,,,,,,,,,,,,,,,,,,,,,,,,,,,,,,,,,,,,
,,,,,,,,,,,,,,,90317,001,2022-04-29_13h24.45.661,SPAMnetsValid,2021.1.4,Win32,59.87306909,,,,,,,,,,,,,,,,,,,,,,,,,,,,,,,,,,,,,,2,1.8276,0,22,22,22,1,clabber,rejoice,gossip,curdle,crow,hobble,3,,,,,,,,,,,,,,,,,,,,,,,,,,,,,,,,,,,,,,
,,,,,,,,,,,,,,,90317,001,2022-04-29_13h24.45.661,SPAMnetsValid,2021.1.4,Win32,59.87306909,,,,,,,,,,,,,,,,,,,,,,,,,,,,,,,,,,,,,,1,2.2137,0,23,23,23,1,sedulousness,diligence,credulousness,seduction,perilousness,frankness,1,,,,,,,,,,,,,,,,,,,,,,,,,,,,,,,,,,,,,,
,,,,,,,,,,,,,,,90317,001,2022-04-29_13h24.45.661,SPAMnetsValid,2021.1.4,Win32,59.87306909,,,,,,,,,,,,,,,,,,,,,,,,,,,,,,,,,,,,,,,,,,,,,,,,,,,,scary stories,candle,0,0,0,0,1,,,,,,,,,,,,,,,,,,,,,,,,,,,,,,,
,,,,,,,,,,,,,,,90317,001,2022-04-29_13h24.45.661,SPAMnetsValid,2021.1.4,Win32,59.87306909,,,,,,,,,,,,,,,,,,,,,,,,,,,,,,,,,,,,,,,,,,,,,,,,,,,,romantic setting,candle,1,0,1,0,1,,,,,,,,,,,,,,,,,,,,,,,,,,,,,,,
,,,,,,,,,,,,,,,90317,001,2022-04-29_13h24.45.661,SPAMnetsValid,2021.1.4,Win32,59.87306909,,,,,,,,,,,,,,,,,,,,,,,,,,,,,,,,,,,,,,,,,,,,,,,,,,,,light up the dark,candle,2,0,2,0,1,,,,,,,,,,,,,,,,,,,,,,,,,,,,,,,
,,,,,,,,,,,,,,,90317,001,2022-04-29_13h24.45.661,SPAMnetsValid,2021.1.4,Win32,59.87306909,,,,,,,,,,,,,,,,,,,,,,,,,,,,,,,,,,,,,,,,,,,,,,,,,,,,use the wax to seal a letter,candle,3,0,3,0,1,,,,,,,,,,,,,,,,,,,,,,,,,,,,,,,
,,,,,,,,,,,,,,,90317,001,2022-04-29_13h24.45.661,SPAMnetsValid,2021.1.4,Win32,59.87306909,,,,,,,,,,,,,,,,,,,,,,,,,,,,,,,,,,,,,,,,,,,,,,,,,,,,religious event,candle,4,0,4,0,1,,,,,,,,,,,,,,,,,,,,,,,,,,,,,,,
,,,,,,,,,,,,,,,90317,001,2022-04-29_13h24.45.661,SPAMnetsValid,2021.1.4,Win32,59.87306909,,,,,,,,,,,,,,,,,,,,,,,,,,,,,,,,,,,,,,,,,,,,,,,,,,,,,,,,,,,0,0,0,1,1,candle,,,,,,,,,,,,,,,,,,,,,,,,,
,,,,,,,,,,,,,,,90317,001,2022-04-29_13h24.45.661,SPAMnetsValid,2021.1.4,Win32,59.87306909,,,,,,,,,,,,,,,,,,,,,,,,,,,,,,,,,,,,,,,,,,,,,,,,,,,,sand castle,bucket,0,0,0,0,1,,,,,,,,,,,,,,,,,,,,,,,,,,,,,,,
,,,,,,,,,,,,,,,90317,001,2022-04-29_13h24.45.661,SPAMnetsValid,2021.1.4,Win32,59.87306909,,,,,,,,,,,,,,,,,,,,,,,,,,,,,,,,,,,,,,,,,,,,,,,,,,,,playing pretend and using it as a helmet,bucket,1,0,1,0,1,,,,,,,,,,,,,,,,,,,,,,,,,,,,,,,
,,,,,,,,,,,,,,,90317,001,2022-04-29_13h24.45.661,SPAMnetsValid,2021.1.4,Win32,59.87306909,,,,,,,,,,,,,,,,,,,,,,,,,,,,,,,,,,,,,,,,,,,,,,,,,,,,collect different objects,bucket,2,0,2,0,1,,,,,,,,,,,,,,,,,,,,,,,,,,,,,,,
,,,,,,,,,,,,,,,90317,001,2022-04-29_13h24.45.661,SPAMnetsValid,2021.1.4,Win32,59.87306909,,,,,,,,,,,,,,,,,,,,,,,,,,,,,,,,,,,,,,,,,,,,,,,,,,,,makeshift basketball hoop,bucket,3,0,3,0,1,,,,,,,,,,,,,,,,,,,,,,,,,,,,,,,
,,,,,,,,,,,,,,,90317,001,2022-04-29_13h24.45.661,SPAMnetsValid,2021.1.4,Win32,59.87306909,,,,,,,,,,,,,,,,,,,,,,,,,,,,,,,,,,,,,,,,,,,,,,,,,,,,stepping stool,bucket,4,0,4,0,1,,,,,,,,,,,,,,,,,,,,,,,,,,,,,,,
,,,,,,,,,,,,,,,90317,001,2022-04-29_13h24.45.661,SPAMnetsValid,2021.1.4,Win32,59.87306909,,,,,,,,,,,,,,,,,,,,,,,,,,,,,,,,,,,,,,,,,,,,,,,,,,,,,,,,,,,0,1,1,0,1,bucket,,,,,,,,,,,,,,,,,,,,,,,,,
,,,,,,,,,,,,,,,90317,001,2022-04-29_13h24.45.661,SPAMnetsValid,2021.1.4,Win32,59.87306909,,,,,,,,,,,,,,,,,,,,,,,,,,,,,,,,,,,,,,,,,,,,,,,,,,,,pillow fight,pillow,0,0,0,0,1,,,,,,,,,,,,,,,,,,,,,,,,,,,,,,,
,,,,,,,,,,,,,,,90317,001,2022-04-29_13h24.45.661,SPAMnetsValid,2021.1.4,Win32,59.87306909,,,,,,,,,,,,,,,,,,,,,,,,,,,,,,,,,,,,,,,,,,,,,,,,,,,,decorations,pillow,1,0,1,0,1,,,,,,,,,,,,,,,,,,,,,,,,,,,,,,,
,,,,,,,,,,,,,,,90317,001,2022-04-29_13h24.45.661,SPAMnetsValid,2021.1.4,Win32,59.87306909,,,,,,,,,,,,,,,,,,,,,,,,,,,,,,,,,,,,,,,,,,,,,,,,,,,,sleep,pillow,2,0,2,0,1,,,,,,,,,,,,,,,,,,,,,,,,,,,,,,,
,,,,,,,,,,,,,,,90317,001,2022-04-29_13h24.45.661,SPAMnetsValid,2021.1.4,Win32,59.87306909,,,,,,,,,,,,,,,,,,,,,,,,,,,,,,,,,,,,,,,,,,,,,,,,,,,,safe landing when performing stunts,pillow,3,0,3,0,1,,,,,,,,,,,,,,,,,,,,,,,,,,,,,,,
,,,,,,,,,,,,,,,90317,001,2022-04-29_13h24.45.661,SPAMnetsValid,2021.1.4,Win32,59.87306909,,,,,,,,,,,,,,,,,,,,,,,,,,,,,,,,,,,,,,,,,,,,,,,,,,,,take your anger out by hitting it,pillow,4,0,4,0,1,,,,,,,,,,,,,,,,,,,,,,,,,,,,,,,
,,,,,,,,,,,,,,,90317,001,2022-04-29_13h24.45.661,SPAMnetsValid,2021.1.4,Win32,59.87306909,,,,,,,,,,,,,,,,,,,,,,,,,,,,,,,,,,,,,,,,,,,,,,,,,,,,,,,,,,,0,2,2,2,1,pillow,,,,,,,,,,,,,,,,,,,,,,,,,
,,,,,,,,,,,,,,,90317,001,2022-04-29_13h24.45.661,SPAMnetsValid,2021.1.4,Win32,59.87306909,,,,,,,,,,,,,,,,,,,,,,,,,,,,,,,,,,,,,,,,,,,,,,,,,,,,,,,,,,,,,,,,,tiger,Animals,0,0,0,0,1,,,,,,,,,,,,,,,,,,
,,,,,,,,,,,,,,,90317,001,2022-04-29_13h24.45.661,SPAMnetsValid,2021.1.4,Win32,59.87306909,,,,,,,,,,,,,,,,,,,,,,,,,,,,,,,,,,,,,,,,,,,,,,,,,,,,,,,,,,,,,,,,,lion,Animals,1,0,1,0,1,,,,,,,,,,,,,,,,,,
,,,,,,,,,,,,,,,90317,001,2022-04-29_13h24.45.661,SPAMnetsValid,2021.1.4,Win32,59.87306909,,,,,,,,,,,,,,,,,,,,,,,,,,,,,,,,,,,,,,,,,,,,,,,,,,,,,,,,,,,,,,,,,bear,Animals,2,0,2,0,1,,,,,,,,,,,,,,,,,,
,,,,,,,,,,,,,,,90317,001,2022-04-29_13h24.45.661,SPAMnetsValid,2021.1.4,Win32,59.87306909,,,,,,,,,,,,,,,,,,,,,,,,,,,,,,,,,,,,,,,,,,,,,,,,,,,,,,,,,,,,,,,,,zebra,Animals,3,0,3,0,1,,,,,,,,,,,,,,,,,,
,,,,,,,,,,,,,,,90317,001,2022-04-29_13h24.45.661,SPAMnetsValid,2021.1.4,Win32,59.87306909,,,,,,,,,,,,,,,,,,,,,,,,,,,,,,,,,,,,,,,,,,,,,,,,,,,,,,,,,,,,,,,,,giragge,Animals,4,0,4,0,1,,,,,,,,,,,,,,,,,,
,,,,,,,,,,,,,,,90317,001,2022-04-29_13h24.45.661,SPAMnetsValid,2021.1.4,Win32,59.87306909,,,,,,,,,,,,,,,,,,,,,,,,,,,,,,,,,,,,,,,,,,,,,,,,,,,,,,,,,,,,,,,,,giraffe,Animals,5,0,5,0,1,,,,,,,,,,,,,,,,,,
,,,,,,,,,,,,,,,90317,001,2022-04-29_13h24.45.661,SPAMnetsValid,2021.1.4,Win32,59.87306909,,,,,,,,,,,,,,,,,,,,,,,,,,,,,,,,,,,,,,,,,,,,,,,,,,,,,,,,,,,,,,,,,penguin,Animals,6,0,6,0,1,,,,,,,,,,,,,,,,,,
,,,,,,,,,,,,,,,90317,001,2022-04-29_13h24.45.661,SPAMnetsValid,2021.1.4,Win32,59.87306909,,,,,,,,,,,,,,,,,,,,,,,,,,,,,,,,,,,,,,,,,,,,,,,,,,,,,,,,,,,,,,,,,monkey,Animals,7,0,7,0,1,,,,,,,,,,,,,,,,,,
,,,,,,,,,,,,,,,90317,001,2022-04-29_13h24.45.661,SPAMnetsValid,2021.1.4,Win32,59.87306909,,,,,,,,,,,,,,,,,,,,,,,,,,,,,,,,,,,,,,,,,,,,,,,,,,,,,,,,,,,,,,,,,alligator,Animals,8,0,8,0,1,,,,,,,,,,,,,,,,,,
,,,,,,,,,,,,,,,90317,001,2022-04-29_13h24.45.661,SPAMnetsValid,2021.1.4,Win32,59.87306909,,,,,,,,,,,,,,,,,,,,,,,,,,,,,,,,,,,,,,,,,,,,,,,,,,,,,,,,,,,,,,,,,corocodile,Animals,9,0,9,0,1,,,,,,,,,,,,,,,,,,
,,,,,,,,,,,,,,,90317,001,2022-04-29_13h24.45.661,SPAMnetsValid,2021.1.4,Win32,59.87306909,,,,,,,,,,,,,,,,,,,,,,,,,,,,,,,,,,,,,,,,,,,,,,,,,,,,,,,,,,,,,,,,,dog,Animals,10,0,10,0,1,,,,,,,,,,,,,,,,,,
,,,,,,,,,,,,,,,90317,001,2022-04-29_13h24.45.661,SPAMnetsValid,2021.1.4,Win32,59.87306909,,,,,,,,,,,,,,,,,,,,,,,,,,,,,,,,,,,,,,,,,,,,,,,,,,,,,,,,,,,,,,,,,cat,Animals,11,0,11,0,1,,,,,,,,,,,,,,,,,,
,,,,,,,,,,,,,,,90317,001,2022-04-29_13h24.45.661,SPAMnetsValid,2021.1.4,Win32,59.87306909,,,,,,,,,,,,,,,,,,,,,,,,,,,,,,,,,,,,,,,,,,,,,,,,,,,,,,,,,,,,,,,,,rat,Animals,12,0,12,0,1,,,,,,,,,,,,,,,,,,
,,,,,,,,,,,,,,,90317,001,2022-04-29_13h24.45.661,SPAMnetsValid,2021.1.4,Win32,59.87306909,,,,,,,,,,,,,,,,,,,,,,,,,,,,,,,,,,,,,,,,,,,,,,,,,,,,,,,,,,,,,,,,,mouse,Animals,13,0,13,0,1,,,,,,,,,,,,,,,,,,
,,,,,,,,,,,,,,,90317,001,2022-04-29_13h24.45.661,SPAMnetsValid,2021.1.4,Win32,59.87306909,,,,,,,,,,,,,,,,,,,,,,,,,,,,,,,,,,,,,,,,,,,,,,,,,,,,,,,,,,,,,,,,,sheep,Animals,14,0,14,0,1,,,,,,,,,,,,,,,,,,
,,,,,,,,,,,,,,,90317,001,2022-04-29_13h24.45.661,SPAMnetsValid,2021.1.4,Win32,59.87306909,,,,,,,,,,,,,,,,,,,,,,,,,,,,,,,,,,,,,,,,,,,,,,,,,,,,,,,,,,,,,,,,,lamb,Animals,15,0,15,0,1,,,,,,,,,,,,,,,,,,
,,,,,,,,,,,,,,,90317,001,2022-04-29_13h24.45.661,SPAMnetsValid,2021.1.4,Win32,59.87306909,,,,,,,,,,,,,,,,,,,,,,,,,,,,,,,,,,,,,,,,,,,,,,,,,,,,,,,,,,,,,,,,,snake,Animals,16,0,16,0,1,,,,,,,,,,,,,,,,,,
,,,,,,,,,,,,,,,90317,001,2022-04-29_13h24.45.661,SPAMnetsValid,2021.1.4,Win32,59.87306909,,,,,,,,,,,,,,,,,,,,,,,,,,,,,,,,,,,,,,,,,,,,,,,,,,,,,,,,,,,,,,,,,bird,Animals,17,0,17,0,1,,,,,,,,,,,,,,,,,,
,,,,,,,,,,,,,,,90317,001,2022-04-29_13h24.45.661,SPAMnetsValid,2021.1.4,Win32,59.87306909,,,,,,,,,,,,,,,,,,,,,,,,,,,,,,,,,,,,,,,,,,,,,,,,,,,,,,,,,,,,,,,,,owl,Animals,18,0,18,0,1,,,,,,,,,,,,,,,,,,
,,,,,,,,,,,,,,,90317,001,2022-04-29_13h24.45.661,SPAMnetsValid,2021.1.4,Win32,59.87306909,,,,,,,,,,,,,,,,,,,,,,,,,,,,,,,,,,,,,,,,,,,,,,,,,,,,,,,,,,,,,,,,,rabbit,Animals,19,0,19,0,1,,,,,,,,,,,,,,,,,,
,,,,,,,,,,,,,,,90317,001,2022-04-29_13h24.45.661,SPAMnetsValid,2021.1.4,Win32,59.87306909,,,,,,,,,,,,,,,,,,,,,,,,,,,,,,,,,,,,,,,,,,,,,,,,,,,,,,,,,,,,,,,,,squirrel,Animals,20,0,20,0,1,,,,,,,,,,,,,,,,,,
,,,,,,,,,,,,,,,90317,001,2022-04-29_13h24.45.661,SPAMnetsValid,2021.1.4,Win32,59.87306909,,,,,,,,,,,,,,,,,,,,,,,,,,,,,,,,,,,,,,,,,,,,,,,,,,,,,,,,,,,,,,,,,chipmunk,Animals,21,0,21,0,1,,,,,,,,,,,,,,,,,,
,,,,,,,,,,,,,,,90317,001,2022-04-29_13h24.45.661,SPAMnetsValid,2021.1.4,Win32,59.87306909,,,,,,,,,,,,,,,,,,,,,,,,,,,,,,,,,,,,,,,,,,,,,,,,,,,,,,,,,,,,,,,,,skunk,Animals,22,0,22,0,1,,,,,,,,,,,,,,,,,,
,,,,,,,,,,,,,,,90317,001,2022-04-29_13h24.45.661,SPAMnetsValid,2021.1.4,Win32,59.87306909,,,,,,,,,,,,,,,,,,,,,,,,,,,,,,,,,,,,,,,,,,,,,,,,,,,,,,,,,,,,,,,,,deer,Animals,23,0,23,0,1,,,,,,,,,,,,,,,,,,
,,,,,,,,,,,,,,,90317,001,2022-04-29_13h24.45.661,SPAMnetsValid,2021.1.4,Win32,59.87306909,,,,,,,,,,,,,,,,,,,,,,,,,,,,,,,,,,,,,,,,,,,,,,,,,,,,,,,,,,,,,,,,,elk,Animals,24,0,24,0,1,,,,,,,,,,,,,,,,,,
,,,,,,,,,,,,,,,90317,001,2022-04-29_13h24.45.661,SPAMnetsValid,2021.1.4,Win32,59.87306909,,,,,,,,,,,,,,,,,,,,,,,,,,,,,,,,,,,,,,,,,,,,,,,,,,,,,,,,,,,,,,,,,puma,Animals,25,0,25,0,1,,,,,,,,,,,,,,,,,,
,,,,,,,,,,,,,,,90317,001,2022-04-29_13h24.45.661,SPAMnetsValid,2021.1.4,Win32,59.87306909,,,,,,,,,,,,,,,,,,,,,,,,,,,,,,,,,,,,,,,,,,,,,,,,,,,,,,,,,,,,,,,,,antelope,Animals,26,0,26,0,1,,,,,,,,,,,,,,,,,,
,,,,,,,,,,,,,,,90317,001,2022-04-29_13h24.45.661,SPAMnetsValid,2021.1.4,Win32,59.87306909,,,,,,,,,,,,,,,,,,,,,,,,,,,,,,,,,,,,,,,,,,,,,,,,,,,,,,,,,,,,,,,,,cow,Animals,27,0,27,0,1,,,,,,,,,,,,,,,,,,
,,,,,,,,,,,,,,,90317,001,2022-04-29_13h24.45.661,SPAMnetsValid,2021.1.4,Win32,59.87306909,,,,,,,,,,,,,,,,,,,,,,,,,,,,,,,,,,,,,,,,,,,,,,,,,,,,,,,,,,,,,,,,,chicken,Animals,28,0,28,0,1,,,,,,,,,,,,,,,,,,
,,,,,,,,,,,,,,,90317,001,2022-04-29_13h24.45.661,SPAMnetsValid,2021.1.4,Win32,59.87306909,,,,,,,,,,,,,,,,,,,,,,,,,,,,,,,,,,,,,,,,,,,,,,,,,,,,,,,,,,,,,,,,,ox,Animals,29,0,29,0,1,,,,,,,,,,,,,,,,,,
,,,,,,,,,,,,,,,90317,001,2022-04-29_13h24.45.661,SPAMnetsValid,2021.1.4,Win32,59.87306909,,,,,,,,,,,,,,,,,,,,,,,,,,,,,,,,,,,,,,,,,,,,,,,,,,,,,,,,,,,,,,,,,beaver,Animals,30,0,30,0,1,,,,,,,,,,,,,,,,,,
,,,,,,,,,,,,,,,90317,001,2022-04-29_13h24.45.661,SPAMnetsValid,2021.1.4,Win32,59.87306909,,,,,,,,,,,,,,,,,,,,,,,,,,,,,,,,,,,,,,,,,,,,,,,,,,,,,,,,,,,,,,,,,platypus,Animals,31,0,31,0,1,,,,,,,,,,,,,,,,,,
,,,,,,,,,,,,,,,90317,001,2022-04-29_13h24.45.661,SPAMnetsValid,2021.1.4,Win32,59.87306909,,,,,,,,,,,,,,,,,,,,,,,,,,,,,,,,,,,,,,,,,,,,,,,,,,,,,,,,,,,,,,,,,duck,Animals,32,0,32,0,1,,,,,,,,,,,,,,,,,,
,,,,,,,,,,,,,,,90317,001,2022-04-29_13h24.45.661,SPAMnetsValid,2021.1.4,Win32,59.87306909,,,,,,,,,,,,,,,,,,,,,,,,,,,,,,,,,,,,,,,,,,,,,,,,,,,,,,,,,,,,,,,,,,,,,,,,0,0,0,0,1,Animals,,,,,,,,,,,,
,,,,,,,,,,,,,,,90317,001,2022-04-29_13h24.45.661,SPAMnetsValid,2021.1.4,Win32,59.87306909,,,,,,,,,,,,,,,,,,,,,,,,,,,,,,,,,,,,,,,,,,,,,,,,,,,,,,,,,,,,,,,,,,,,,,,,,,,,,,3,5.3302,0,0,0,0,1,"I enjoy concentrating on a fantasy or daydream and exploring all its possibilities, letting it grow and develop.",0,1,,
,,,,,,,,,,,,,,,90317,001,2022-04-29_13h24.45.661,SPAMnetsValid,2021.1.4,Win32,59.87306909,,,,,,,,,,,,,,,,,,,,,,,,,,,,,,,,,,,,,,,,,,,,,,,,,,,,,,,,,,,,,,,,,,,,,,,,,,,,,,4,2.4437,0,1,1,1,1,I think it's interesting to learn and develop new hobbies.,0,2,,
,,,,,,,,,,,,,,,90317,001,2022-04-29_13h24.45.661,SPAMnetsValid,2021.1.4,Win32,59.87306909,,,,,,,,,,,,,,,,,,,,,,,,,,,,,,,,,,,,,,,,,,,,,,,,,,,,,,,,,,,,,,,,,,,,,,,,,,,,,,5,2.6264,0,2,2,2,1,I am intrigued by the patterns I find in art and nature.,0,3,,
,,,,,,,,,,,,,,,90317,001,2022-04-29_13h24.45.661,SPAMnetsValid,2021.1.4,Win32,59.87306909,,,,,,,,,,,,,,,,,,,,,,,,,,,,,,,,,,,,,,,,,,,,,,,,,,,,,,,,,,,,,,,,,,,,,,,,,,,,,,2,4.0397,0,3,3,3,1,I believe letting students hear controversial speakers can only confuse and mislead them.,1,4,,
,,,,,,,,,,,,,,,90317,001,2022-04-29_13h24.45.661,SPAMnetsValid,2021.1.4,Win32,59.87306909,,,,,,,,,,,,,,,,,,,,,,,,,,,,,,,,,,,,,,,,,,,,,,,,,,,,,,,,,,,,,,,,,,,,,,,,,,,,,,3,3.1527,0,4,4,4,1,Poetry has little or no effect on me.,1,5,,
,,,,,,,,,,,,,,,90317,001,2022-04-29_13h24.45.661,SPAMnetsValid,2021.1.4,Win32,59.87306909,,,,,,,,,,,,,,,,,,,,,,,,,,,,,,,,,,,,,,,,,,,,,,,,,,,,,,,,,,,,,,,,,,,,,,,,,,,,,,2,6.7685,0,5,5,5,1,I would have difficulty just letting my mind wander without control or guidance.,1,6,,
,,,,,,,,,,,,,,,90317,001,2022-04-29_13h24.45.661,SPAMnetsValid,2021.1.4,Win32,59.87306909,,,,,,,,,,,,,,,,,,,,,,,,,,,,,,,,,,,,,,,,,,,,,,,,,,,,,,,,,,,,,,,,,,,,,,,,,,,,,,3,7.7591,0,6,6,6,1,I seldom notice the moods or feelings that different environments produce.,1,7,,
,,,,,,,,,,,,,,,90317,001,2022-04-29_13h24.45.661,SPAMnetsValid,2021.1.4,Win32,59.87306909,,,,,,,,,,,,,,,,,,,,,,,,,,,,,,,,,,,,,,,,,,,,,,,,,,,,,,,,,,,,,,,,,,,,,,,,,,,,,,3,4.0545,0,7,7,7,1,I experience a wide range of emotions or feelings.,0,8,,
,,,,,,,,,,,,,,,90317,001,2022-04-29_13h24.45.661,SPAMnetsValid,2021.1.4,Win32,59.87306909,,,,,,,,,,,,,,,,,,,,,,,,,,,,,,,,,,,,,,,,,,,,,,,,,,,,,,,,,,,,,,,,,,,,,,,,,,,,,,4,3.6872,0,8,8,8,1,"Sometimes when I am reading poetry or looking at a work of art, I feel a chill or wave of excitement.",0,9,,
,,,,,,,,,,,,,,,90317,001,2022-04-29_13h24.45.661,SPAMnetsValid,2021.1.4,Win32,59.87306909,,,,,,,,,,,,,,,,,,,,,,,,,,,,,,,,,,,,,,,,,,,,,,,,,,,,,,,,,,,,,,,,,,,,,,,,,,,,,,2,5.2151,0,9,9,9,1,I have little interest in speculating on the nature of the universe or the human condition.,1,10,,
,,,,,,,,,,,,,,,90317,001,2022-04-29_13h24.45.661,SPAMnetsValid,2021.1.4,Win32,59.87306909,,,,,,,,,,,,,,,,,,,,,,,,,,,,,,,,,,,,,,,,,,,,,,,,,,,,,,,,,,,,,,,,,,,,,,,,,,,,,,4,3.4045,0,10,10,10,1,I have a lot of intellectual curiosity.,0,11,,
,,,,,,,,,,,,,,,90317,001,2022-04-29_13h24.45.661,SPAMnetsValid,2021.1.4,Win32,59.87306909,,,,,,,,,,,,,,,,,,,,,,,,,,,,,,,,,,,,,,,,,,,,,,,,,,,,,,,,,,,,,,,,,,,,,,,,,,,,,,3,3.4934,0,11,11,11,1,I often enjoy playing with theories or abstract ideas.,0,12,,
,,,,,,,,,,,,,,,90317,001,2022-04-29_13h24.45.661,SPAMnetsValid,2021.1.4,Win32,59.87306909,,,,,,,,,,,,,,,,,,,,,,,,,,,,,,,,,,,,,,,,,,,,,,,,,,,,,,,,,,,,,,,,,,,,,,,,,,,,,,,,,,,,,,,,return,9.1669
