key_resp_3.keys,key_resp_3.rt,slider_2.response,slider_2.rt,rjt_rating,rjt_RT,trials_24.thisRepN,trials_24.thisTrialN,trials_24.thisN,trials_24.thisIndex,trials_24.ran,rjt_order,word1,word2,attention,participant,session,date,expName,psychopyVersion,OS,frameRate,trials_4.thisRepN,trials_4.thisTrialN,trials_4.thisN,trials_4.thisIndex,trials_4.ran,trials_5.thisRepN,trials_5.thisTrialN,trials_5.thisN,trials_5.thisIndex,trials_5.ran,repOne,repTwo,slider.response,slider.rt,trials_22.thisRepN,trials_22.thisTrialN,trials_22.thisN,trials_22.thisIndex,trials_22.ran,trials_99.thisRepN,trials_99.thisTrialN,trials_99.thisN,trials_99.thisIndex,trials_99.ran,slider_extend_2.response,slider_extend_2.rt,trials_6.thisRepN,trials_6.thisTrialN,trials_6.thisN,trials_6.thisIndex,trials_6.ran,vCue2,R1,R2,R3,R4,correct,sliderVocab.response,sliderVocab.rt,trials_7.thisRepN,trials_7.thisTrialN,trials_7.thisN,trials_7.thisIndex,trials_7.ran,VocabCue,VR1,VR2,VR3,VR4,VR5,VocabCorrect,AUT_resp,AUT_label,trials.thisRepN,trials.thisTrialN,trials.thisN,trials.thisIndex,trials.ran,trials_2.thisRepN,trials_2.thisTrialN,trials_2.thisN,trials_2.thisIndex,trials_2.ran,aut_prompt,VF_response,VF_tag,trials_16.thisRepN,trials_16.thisTrialN,trials_16.thisN,trials_16.thisIndex,trials_16.ran,trials_17.thisRepN,trials_17.thisTrialN,trials_17.thisN,trials_17.thisIndex,trials_17.ran,VFcond,open_slider.response,open_slider.rt,trials_3.thisRepN,trials_3.thisTrialN,trials_3.thisN,trials_3.thisIndex,trials_3.ran,OpenQ,Rev,OPEN_ORDER,key_resp_2.keys,key_resp_2.rt
return,5.251,8,2.25,8,2.25,0,0,0,72,1,181,carrot,kitchen,,90327,001,2022-04-24_00h56.33.761,SPAMnetsValid,2021.1.4,Win32,144.092219,,,,,,,,,,,,,,,,,,,,,,,,,,,,,,,,,,,,,,,,,,,,,,,,,,,,,,,,,,,,,,,,,,,,,,,,,,,,,,,,,,,,,,,,,
,,6,2.301,6,2.301,0,1,1,26,1,107,rose,tomato,,90327,001,2022-04-24_00h56.33.761,SPAMnetsValid,2021.1.4,Win32,144.092219,,,,,,,,,,,,,,,,,,,,,,,,,,,,,,,,,,,,,,,,,,,,,,,,,,,,,,,,,,,,,,,,,,,,,,,,,,,,,,,,,,,,,,,,,
,,8,1.843,8,1.843,0,2,2,65,1,160,cookie,kitchen,,90327,001,2022-04-24_00h56.33.761,SPAMnetsValid,2021.1.4,Win32,144.092219,,,,,,,,,,,,,,,,,,,,,,,,,,,,,,,,,,,,,,,,,,,,,,,,,,,,,,,,,,,,,,,,,,,,,,,,,,,,,,,,,,,,,,,,,
,,7,2.898,7,2.898,0,3,3,43,1,185,cactus,rose,,90327,001,2022-04-24_00h56.33.761,SPAMnetsValid,2021.1.4,Win32,144.092219,,,,,,,,,,,,,,,,,,,,,,,,,,,,,,,,,,,,,,,,,,,,,,,,,,,,,,,,,,,,,,,,,,,,,,,,,,,,,,,,,,,,,,,,,
,,7,5.17,7,5.17,0,4,4,5,1,108,carrot,chocolate,,90327,001,2022-04-24_00h56.33.761,SPAMnetsValid,2021.1.4,Win32,144.092219,,,,,,,,,,,,,,,,,,,,,,,,,,,,,,,,,,,,,,,,,,,,,,,,,,,,,,,,,,,,,,,,,,,,,,,,,,,,,,,,,,,,,,,,,
,,3,3.296,3,3.296,0,5,5,12,1,162,microwave,tomato,,90327,001,2022-04-24_00h56.33.761,SPAMnetsValid,2021.1.4,Win32,144.092219,,,,,,,,,,,,,,,,,,,,,,,,,,,,,,,,,,,,,,,,,,,,,,,,,,,,,,,,,,,,,,,,,,,,,,,,,,,,,,,,,,,,,,,,,
,,8,2.607,8,2.607,0,6,6,66,1,150,microwave,refrigerator,,90327,001,2022-04-24_00h56.33.761,SPAMnetsValid,2021.1.4,Win32,144.092219,,,,,,,,,,,,,,,,,,,,,,,,,,,,,,,,,,,,,,,,,,,,,,,,,,,,,,,,,,,,,,,,,,,,,,,,,,,,,,,,,,,,,,,,,
,,6,3.683,6,3.683,0,7,7,88,1,171,cake,tomato,,90327,001,2022-04-24_00h56.33.761,SPAMnetsValid,2021.1.4,Win32,144.092219,,,,,,,,,,,,,,,,,,,,,,,,,,,,,,,,,,,,,,,,,,,,,,,,,,,,,,,,,,,,,,,,,,,,,,,,,,,,,,,,,,,,,,,,,
,,8,3.455,8,3.455,0,8,8,22,1,142,garden,tree,,90327,001,2022-04-24_00h56.33.761,SPAMnetsValid,2021.1.4,Win32,144.092219,,,,,,,,,,,,,,,,,,,,,,,,,,,,,,,,,,,,,,,,,,,,,,,,,,,,,,,,,,,,,,,,,,,,,,,,,,,,,,,,,,,,,,,,,
,,8,2.665,8,2.665,0,9,9,44,1,116,cake,chocolate,,90327,001,2022-04-24_00h56.33.761,SPAMnetsValid,2021.1.4,Win32,144.092219,,,,,,,,,,,,,,,,,,,,,,,,,,,,,,,,,,,,,,,,,,,,,,,,,,,,,,,,,,,,,,,,,,,,,,,,,,,,,,,,,,,,,,,,,
,,4,3.219,4,3.219,0,10,10,33,1,131,cactus,garden,,90327,001,2022-04-24_00h56.33.761,SPAMnetsValid,2021.1.4,Win32,144.092219,,,,,,,,,,,,,,,,,,,,,,,,,,,,,,,,,,,,,,,,,,,,,,,,,,,,,,,,,,,,,,,,,,,,,,,,,,,,,,,,,,,,,,,,,
,,1,1.794,1,1.794,0,11,11,71,1,187,cactus,microwave,,90327,001,2022-04-24_00h56.33.761,SPAMnetsValid,2021.1.4,Win32,144.092219,,,,,,,,,,,,,,,,,,,,,,,,,,,,,,,,,,,,,,,,,,,,,,,,,,,,,,,,,,,,,,,,,,,,,,,,,,,,,,,,,,,,,,,,,
,,1,1.498,1,1.498,0,12,12,13,1,105,cactus,oven,,90327,001,2022-04-24_00h56.33.761,SPAMnetsValid,2021.1.4,Win32,144.092219,,,,,,,,,,,,,,,,,,,,,,,,,,,,,,,,,,,,,,,,,,,,,,,,,,,,,,,,,,,,,,,,,,,,,,,,,,,,,,,,,,,,,,,,,
,,8,1.843,8,1.843,0,13,13,47,1,167,carrot,garden,,90327,001,2022-04-24_00h56.33.761,SPAMnetsValid,2021.1.4,Win32,144.092219,,,,,,,,,,,,,,,,,,,,,,,,,,,,,,,,,,,,,,,,,,,,,,,,,,,,,,,,,,,,,,,,,,,,,,,,,,,,,,,,,,,,,,,,,
,,2,3.89,2,3.89,0,14,14,59,1,164,cookie,garden,,90327,001,2022-04-24_00h56.33.761,SPAMnetsValid,2021.1.4,Win32,144.092219,,,,,,,,,,,,,,,,,,,,,,,,,,,,,,,,,,,,,,,,,,,,,,,,,,,,,,,,,,,,,,,,,,,,,,,,,,,,,,,,,,,,,,,,,
,,8,3.072,8,3.072,0,15,15,39,1,112,cake,carrot,,90327,001,2022-04-24_00h56.33.761,SPAMnetsValid,2021.1.4,Win32,144.092219,,,,,,,,,,,,,,,,,,,,,,,,,,,,,,,,,,,,,,,,,,,,,,,,,,,,,,,,,,,,,,,,,,,,,,,,,,,,,,,,,,,,,,,,,
,,4,4.144,4,4.144,0,16,16,23,1,148,flower,melon,,90327,001,2022-04-24_00h56.33.761,SPAMnetsValid,2021.1.4,Win32,144.092219,,,,,,,,,,,,,,,,,,,,,,,,,,,,,,,,,,,,,,,,,,,,,,,,,,,,,,,,,,,,,,,,,,,,,,,,,,,,,,,,,,,,,,,,,
,,6,2.136,6,2.136,0,17,17,35,1,147,cake,refrigerator,,90327,001,2022-04-24_00h56.33.761,SPAMnetsValid,2021.1.4,Win32,144.092219,,,,,,,,,,,,,,,,,,,,,,,,,,,,,,,,,,,,,,,,,,,,,,,,,,,,,,,,,,,,,,,,,,,,,,,,,,,,,,,,,,,,,,,,,
,,2,1.867,2,1.867,0,18,18,21,1,159,cookie,flower,,90327,001,2022-04-24_00h56.33.761,SPAMnetsValid,2021.1.4,Win32,144.092219,,,,,,,,,,,,,,,,,,,,,,,,,,,,,,,,,,,,,,,,,,,,,,,,,,,,,,,,,,,,,,,,,,,,,,,,,,,,,,,,,,,,,,,,,
,,2,1.843,2,1.843,0,19,19,6,1,151,microwave,onion,,90327,001,2022-04-24_00h56.33.761,SPAMnetsValid,2021.1.4,Win32,144.092219,,,,,,,,,,,,,,,,,,,,,,,,,,,,,,,,,,,,,,,,,,,,,,,,,,,,,,,,,,,,,,,,,,,,,,,,,,,,,,,,,,,,,,,,,
,,2,2.225,2,2.225,0,20,20,46,1,123,cookie,tree,,90327,001,2022-04-24_00h56.33.761,SPAMnetsValid,2021.1.4,Win32,144.092219,,,,,,,,,,,,,,,,,,,,,,,,,,,,,,,,,,,,,,,,,,,,,,,,,,,,,,,,,,,,,,,,,,,,,,,,,,,,,,,,,,,,,,,,,
,,3,5.578,3,5.578,0,21,21,3,1,129,cactus,refrigerator,,90327,001,2022-04-24_00h56.33.761,SPAMnetsValid,2021.1.4,Win32,144.092219,,,,,,,,,,,,,,,,,,,,,,,,,,,,,,,,,,,,,,,,,,,,,,,,,,,,,,,,,,,,,,,,,,,,,,,,,,,,,,,,,,,,,,,,,
,,7,2.134,7,2.134,0,22,22,8,1,97,chocolate,kitchen,,90327,001,2022-04-24_00h56.33.761,SPAMnetsValid,2021.1.4,Win32,144.092219,,,,,,,,,,,,,,,,,,,,,,,,,,,,,,,,,,,,,,,,,,,,,,,,,,,,,,,,,,,,,,,,,,,,,,,,,,,,,,,,,,,,,,,,,
,,3,1.551,3,1.551,0,23,23,54,1,101,cactus,kitchen,,90327,001,2022-04-24_00h56.33.761,SPAMnetsValid,2021.1.4,Win32,144.092219,,,,,,,,,,,,,,,,,,,,,,,,,,,,,,,,,,,,,,,,,,,,,,,,,,,,,,,,,,,,,,,,,,,,,,,,,,,,,,,,,,,,,,,,,
,,1,1.866,1,1.866,0,24,24,4,1,109,broom,strawberry,,90327,001,2022-04-24_00h56.33.761,SPAMnetsValid,2021.1.4,Win32,144.092219,,,,,,,,,,,,,,,,,,,,,,,,,,,,,,,,,,,,,,,,,,,,,,,,,,,,,,,,,,,,,,,,,,,,,,,,,,,,,,,,,,,,,,,,,
,,1,1.587,1,1.587,0,25,25,64,1,157,refrigerator,rose,,90327,001,2022-04-24_00h56.33.761,SPAMnetsValid,2021.1.4,Win32,144.092219,,,,,,,,,,,,,,,,,,,,,,,,,,,,,,,,,,,,,,,,,,,,,,,,,,,,,,,,,,,,,,,,,,,,,,,,,,,,,,,,,,,,,,,,,
,,8,1.517,8,1.517,0,26,26,83,1,100,garden,tomato,,90327,001,2022-04-24_00h56.33.761,SPAMnetsValid,2021.1.4,Win32,144.092219,,,,,,,,,,,,,,,,,,,,,,,,,,,,,,,,,,,,,,,,,,,,,,,,,,,,,,,,,,,,,,,,,,,,,,,,,,,,,,,,,,,,,,,,,
,,8,3.08,8,3.08,0,27,27,11,1,117,melon,strawberry,,90327,001,2022-04-24_00h56.33.761,SPAMnetsValid,2021.1.4,Win32,144.092219,,,,,,,,,,,,,,,,,,,,,,,,,,,,,,,,,,,,,,,,,,,,,,,,,,,,,,,,,,,,,,,,,,,,,,,,,,,,,,,,,,,,,,,,,
,,8,1.53,8,1.53,0,28,28,60,1,122,flower,garden,,90327,001,2022-04-24_00h56.33.761,SPAMnetsValid,2021.1.4,Win32,144.092219,,,,,,,,,,,,,,,,,,,,,,,,,,,,,,,,,,,,,,,,,,,,,,,,,,,,,,,,,,,,,,,,,,,,,,,,,,,,,,,,,,,,,,,,,
,,2,2.899,2,2.899,0,29,29,74,1,128,melon,microwave,,90327,001,2022-04-24_00h56.33.761,SPAMnetsValid,2021.1.4,Win32,144.092219,,,,,,,,,,,,,,,,,,,,,,,,,,,,,,,,,,,,,,,,,,,,,,,,,,,,,,,,,,,,,,,,,,,,,,,,,,,,,,,,,,,,,,,,,
,,7,2.254,7,2.254,0,30,30,70,1,141,melon,tomato,,90327,001,2022-04-24_00h56.33.761,SPAMnetsValid,2021.1.4,Win32,144.092219,,,,,,,,,,,,,,,,,,,,,,,,,,,,,,,,,,,,,,,,,,,,,,,,,,,,,,,,,,,,,,,,,,,,,,,,,,,,,,,,,,,,,,,,,
,,4,3.434,4,3.434,0,31,31,2,1,174,cake,pretzel,,90327,001,2022-04-24_00h56.33.761,SPAMnetsValid,2021.1.4,Win32,144.092219,,,,,,,,,,,,,,,,,,,,,,,,,,,,,,,,,,,,,,,,,,,,,,,,,,,,,,,,,,,,,,,,,,,,,,,,,,,,,,,,,,,,,,,,,
,,1,1.685,1,1.685,0,32,32,15,1,145,cactus,yogurt,,90327,001,2022-04-24_00h56.33.761,SPAMnetsValid,2021.1.4,Win32,144.092219,,,,,,,,,,,,,,,,,,,,,,,,,,,,,,,,,,,,,,,,,,,,,,,,,,,,,,,,,,,,,,,,,,,,,,,,,,,,,,,,,,,,,,,,,
,,3,3.629,3,3.629,0,33,33,73,1,135,carrot,oven,,90327,001,2022-04-24_00h56.33.761,SPAMnetsValid,2021.1.4,Win32,144.092219,,,,,,,,,,,,,,,,,,,,,,,,,,,,,,,,,,,,,,,,,,,,,,,,,,,,,,,,,,,,,,,,,,,,,,,,,,,,,,,,,,,,,,,,,
,,8,2.089,8,2.089,0,34,34,14,1,120,microwave,oven,,90327,001,2022-04-24_00h56.33.761,SPAMnetsValid,2021.1.4,Win32,144.092219,,,,,,,,,,,,,,,,,,,,,,,,,,,,,,,,,,,,,,,,,,,,,,,,,,,,,,,,,,,,,,,,,,,,,,,,,,,,,,,,,,,,,,,,,
,,1,2.197,1,2.197,0,35,35,63,1,137,microwave,tree,,90327,001,2022-04-24_00h56.33.761,SPAMnetsValid,2021.1.4,Win32,144.092219,,,,,,,,,,,,,,,,,,,,,,,,,,,,,,,,,,,,,,,,,,,,,,,,,,,,,,,,,,,,,,,,,,,,,,,,,,,,,,,,,,,,,,,,,
,,8,1.595,8,1.595,0,36,36,0,1,106,cake,strawberry,,90327,001,2022-04-24_00h56.33.761,SPAMnetsValid,2021.1.4,Win32,144.092219,,,,,,,,,,,,,,,,,,,,,,,,,,,,,,,,,,,,,,,,,,,,,,,,,,,,,,,,,,,,,,,,,,,,,,,,,,,,,,,,,,,,,,,,,
,,8,2.864,8,2.864,0,37,37,51,1,168,cactus,flower,,90327,001,2022-04-24_00h56.33.761,SPAMnetsValid,2021.1.4,Win32,144.092219,,,,,,,,,,,,,,,,,,,,,,,,,,,,,,,,,,,,,,,,,,,,,,,,,,,,,,,,,,,,,,,,,,,,,,,,,,,,,,,,,,,,,,,,,
,,6,2.427,6,2.427,0,38,38,9,1,176,cactus,tomato,,90327,001,2022-04-24_00h56.33.761,SPAMnetsValid,2021.1.4,Win32,144.092219,,,,,,,,,,,,,,,,,,,,,,,,,,,,,,,,,,,,,,,,,,,,,,,,,,,,,,,,,,,,,,,,,,,,,,,,,,,,,,,,,,,,,,,,,
,,7,2.371,7,2.371,0,39,39,53,1,177,chocolate,strawberry,,90327,001,2022-04-24_00h56.33.761,SPAMnetsValid,2021.1.4,Win32,144.092219,,,,,,,,,,,,,,,,,,,,,,,,,,,,,,,,,,,,,,,,,,,,,,,,,,,,,,,,,,,,,,,,,,,,,,,,,,,,,,,,,,,,,,,,,
,,3,4.09,3,4.09,0,40,40,16,1,111,carrot,microwave,,90327,001,2022-04-24_00h56.33.761,SPAMnetsValid,2021.1.4,Win32,144.092219,,,,,,,,,,,,,,,,,,,,,,,,,,,,,,,,,,,,,,,,,,,,,,,,,,,,,,,,,,,,,,,,,,,,,,,,,,,,,,,,,,,,,,,,,
,,6,1.907,6,1.907,0,41,41,17,1,99,garden,melon,,90327,001,2022-04-24_00h56.33.761,SPAMnetsValid,2021.1.4,Win32,144.092219,,,,,,,,,,,,,,,,,,,,,,,,,,,,,,,,,,,,,,,,,,,,,,,,,,,,,,,,,,,,,,,,,,,,,,,,,,,,,,,,,,,,,,,,,
,,8,3.649,8,3.649,0,42,42,85,1,115,refrigerator,tomato,,90327,001,2022-04-24_00h56.33.761,SPAMnetsValid,2021.1.4,Win32,144.092219,,,,,,,,,,,,,,,,,,,,,,,,,,,,,,,,,,,,,,,,,,,,,,,,,,,,,,,,,,,,,,,,,,,,,,,,,,,,,,,,,,,,,,,,,
,,2,2.698,2,2.698,0,43,43,95,1,121,broom,microwave,,90327,001,2022-04-24_00h56.33.761,SPAMnetsValid,2021.1.4,Win32,144.092219,,,,,,,,,,,,,,,,,,,,,,,,,,,,,,,,,,,,,,,,,,,,,,,,,,,,,,,,,,,,,,,,,,,,,,,,,,,,,,,,,,,,,,,,,
,,9,1.308,9,1.308,0,44,44,86,1,193,melon,melon,CHECK,90327,001,2022-04-24_00h56.33.761,SPAMnetsValid,2021.1.4,Win32,144.092219,,,,,,,,,,,,,,,,,,,,,,,,,,,,,,,,,,,,,,,,,,,,,,,,,,,,,,,,,,,,,,,,,,,,,,,,,,,,,,,,,,,,,,,,,
,,1,1.516,1,1.516,0,45,45,20,1,149,broom,tomato,,90327,001,2022-04-24_00h56.33.761,SPAMnetsValid,2021.1.4,Win32,144.092219,,,,,,,,,,,,,,,,,,,,,,,,,,,,,,,,,,,,,,,,,,,,,,,,,,,,,,,,,,,,,,,,,,,,,,,,,,,,,,,,,,,,,,,,,
,,1,1.516,1,1.516,0,46,46,32,1,182,flower,refrigerator,,90327,001,2022-04-24_00h56.33.761,SPAMnetsValid,2021.1.4,Win32,144.092219,,,,,,,,,,,,,,,,,,,,,,,,,,,,,,,,,,,,,,,,,,,,,,,,,,,,,,,,,,,,,,,,,,,,,,,,,,,,,,,,,,,,,,,,,
,,1,1.444,1,1.444,0,47,47,50,1,126,kitchen,tree,,90327,001,2022-04-24_00h56.33.761,SPAMnetsValid,2021.1.4,Win32,144.092219,,,,,,,,,,,,,,,,,,,,,,,,,,,,,,,,,,,,,,,,,,,,,,,,,,,,,,,,,,,,,,,,,,,,,,,,,,,,,,,,,,,,,,,,,
,,7,1.581,7,1.581,0,48,48,87,1,114,cookie,strawberry,,90327,001,2022-04-24_00h56.33.761,SPAMnetsValid,2021.1.4,Win32,144.092219,,,,,,,,,,,,,,,,,,,,,,,,,,,,,,,,,,,,,,,,,,,,,,,,,,,,,,,,,,,,,,,,,,,,,,,,,,,,,,,,,,,,,,,,,
,,6,1.585,6,1.585,0,49,49,41,1,175,melon,onion,,90327,001,2022-04-24_00h56.33.761,SPAMnetsValid,2021.1.4,Win32,144.092219,,,,,,,,,,,,,,,,,,,,,,,,,,,,,,,,,,,,,,,,,,,,,,,,,,,,,,,,,,,,,,,,,,,,,,,,,,,,,,,,,,,,,,,,,
,,7,1.948,7,1.948,0,50,50,42,1,184,oven,pretzel,,90327,001,2022-04-24_00h56.33.761,SPAMnetsValid,2021.1.4,Win32,144.092219,,,,,,,,,,,,,,,,,,,,,,,,,,,,,,,,,,,,,,,,,,,,,,,,,,,,,,,,,,,,,,,,,,,,,,,,,,,,,,,,,,,,,,,,,
,,7,3.54,7,3.54,0,51,51,56,1,113,refrigerator,strawberry,,90327,001,2022-04-24_00h56.33.761,SPAMnetsValid,2021.1.4,Win32,144.092219,,,,,,,,,,,,,,,,,,,,,,,,,,,,,,,,,,,,,,,,,,,,,,,,,,,,,,,,,,,,,,,,,,,,,,,,,,,,,,,,,,,,,,,,,
,,9,1.308,9,1.308,0,52,52,25,1,194,cactus,cactus,CHECK,90327,001,2022-04-24_00h56.33.761,SPAMnetsValid,2021.1.4,Win32,144.092219,,,,,,,,,,,,,,,,,,,,,,,,,,,,,,,,,,,,,,,,,,,,,,,,,,,,,,,,,,,,,,,,,,,,,,,,,,,,,,,,,,,,,,,,,
,,8,2.697,8,2.697,0,53,53,48,1,186,kitchen,yogurt,,90327,001,2022-04-24_00h56.33.761,SPAMnetsValid,2021.1.4,Win32,144.092219,,,,,,,,,,,,,,,,,,,,,,,,,,,,,,,,,,,,,,,,,,,,,,,,,,,,,,,,,,,,,,,,,,,,,,,,,,,,,,,,,,,,,,,,,
,,4,2.283,4,2.283,0,54,54,40,1,165,onion,rose,,90327,001,2022-04-24_00h56.33.761,SPAMnetsValid,2021.1.4,Win32,144.092219,,,,,,,,,,,,,,,,,,,,,,,,,,,,,,,,,,,,,,,,,,,,,,,,,,,,,,,,,,,,,,,,,,,,,,,,,,,,,,,,,,,,,,,,,
,,2,1.544,2,1.544,0,55,55,58,1,144,cake,garden,,90327,001,2022-04-24_00h56.33.761,SPAMnetsValid,2021.1.4,Win32,144.092219,,,,,,,,,,,,,,,,,,,,,,,,,,,,,,,,,,,,,,,,,,,,,,,,,,,,,,,,,,,,,,,,,,,,,,,,,,,,,,,,,,,,,,,,,
,,1,1.811,1,1.811,0,56,56,68,1,180,tree,yogurt,,90327,001,2022-04-24_00h56.33.761,SPAMnetsValid,2021.1.4,Win32,144.092219,,,,,,,,,,,,,,,,,,,,,,,,,,,,,,,,,,,,,,,,,,,,,,,,,,,,,,,,,,,,,,,,,,,,,,,,,,,,,,,,,,,,,,,,,
,,6,1.406,6,1.406,0,57,57,31,1,156,melon,rose,,90327,001,2022-04-24_00h56.33.761,SPAMnetsValid,2021.1.4,Win32,144.092219,,,,,,,,,,,,,,,,,,,,,,,,,,,,,,,,,,,,,,,,,,,,,,,,,,,,,,,,,,,,,,,,,,,,,,,,,,,,,,,,,,,,,,,,,
,,6,5.506,6,5.506,0,58,58,93,1,134,carrot,flower,,90327,001,2022-04-24_00h56.33.761,SPAMnetsValid,2021.1.4,Win32,144.092219,,,,,,,,,,,,,,,,,,,,,,,,,,,,,,,,,,,,,,,,,,,,,,,,,,,,,,,,,,,,,,,,,,,,,,,,,,,,,,,,,,,,,,,,,
,,3,3.03,3,3.03,0,59,59,92,1,170,cookie,microwave,,90327,001,2022-04-24_00h56.33.761,SPAMnetsValid,2021.1.4,Win32,144.092219,,,,,,,,,,,,,,,,,,,,,,,,,,,,,,,,,,,,,,,,,,,,,,,,,,,,,,,,,,,,,,,,,,,,,,,,,,,,,,,,,,,,,,,,,
,,8,1.649,8,1.649,0,60,60,52,1,110,chocolate,cookie,,90327,001,2022-04-24_00h56.33.761,SPAMnetsValid,2021.1.4,Win32,144.092219,,,,,,,,,,,,,,,,,,,,,,,,,,,,,,,,,,,,,,,,,,,,,,,,,,,,,,,,,,,,,,,,,,,,,,,,,,,,,,,,,,,,,,,,,
,,3,2.633,3,2.633,0,61,61,62,1,189,onion,tree,,90327,001,2022-04-24_00h56.33.761,SPAMnetsValid,2021.1.4,Win32,144.092219,,,,,,,,,,,,,,,,,,,,,,,,,,,,,,,,,,,,,,,,,,,,,,,,,,,,,,,,,,,,,,,,,,,,,,,,,,,,,,,,,,,,,,,,,
,,3,2.52,3,2.52,0,62,62,94,1,133,cake,flower,,90327,001,2022-04-24_00h56.33.761,SPAMnetsValid,2021.1.4,Win32,144.092219,,,,,,,,,,,,,,,,,,,,,,,,,,,,,,,,,,,,,,,,,,,,,,,,,,,,,,,,,,,,,,,,,,,,,,,,,,,,,,,,,,,,,,,,,
,,1,3.769,1,3.769,0,63,63,81,1,104,garden,microwave,,90327,001,2022-04-24_00h56.33.761,SPAMnetsValid,2021.1.4,Win32,144.092219,,,,,,,,,,,,,,,,,,,,,,,,,,,,,,,,,,,,,,,,,,,,,,,,,,,,,,,,,,,,,,,,,,,,,,,,,,,,,,,,,,,,,,,,,
,,8,2.22,8,2.22,0,64,64,61,1,138,flower,rose,,90327,001,2022-04-24_00h56.33.761,SPAMnetsValid,2021.1.4,Win32,144.092219,,,,,,,,,,,,,,,,,,,,,,,,,,,,,,,,,,,,,,,,,,,,,,,,,,,,,,,,,,,,,,,,,,,,,,,,,,,,,,,,,,,,,,,,,
,,6,2.509,6,2.509,0,65,65,91,1,166,cake,yogurt,,90327,001,2022-04-24_00h56.33.761,SPAMnetsValid,2021.1.4,Win32,144.092219,,,,,,,,,,,,,,,,,,,,,,,,,,,,,,,,,,,,,,,,,,,,,,,,,,,,,,,,,,,,,,,,,,,,,,,,,,,,,,,,,,,,,,,,,
,,4,4.135,4,4.135,0,66,66,18,1,119,strawberry,tree,,90327,001,2022-04-24_00h56.33.761,SPAMnetsValid,2021.1.4,Win32,144.092219,,,,,,,,,,,,,,,,,,,,,,,,,,,,,,,,,,,,,,,,,,,,,,,,,,,,,,,,,,,,,,,,,,,,,,,,,,,,,,,,,,,,,,,,,
,,7,1.725,7,1.725,0,67,67,29,1,163,melon,refrigerator,,90327,001,2022-04-24_00h56.33.761,SPAMnetsValid,2021.1.4,Win32,144.092219,,,,,,,,,,,,,,,,,,,,,,,,,,,,,,,,,,,,,,,,,,,,,,,,,,,,,,,,,,,,,,,,,,,,,,,,,,,,,,,,,,,,,,,,,
,,8,2.583,8,2.583,0,68,68,7,1,188,flower,tree,,90327,001,2022-04-24_00h56.33.761,SPAMnetsValid,2021.1.4,Win32,144.092219,,,,,,,,,,,,,,,,,,,,,,,,,,,,,,,,,,,,,,,,,,,,,,,,,,,,,,,,,,,,,,,,,,,,,,,,,,,,,,,,,,,,,,,,,
,,6,2.539,6,2.539,0,69,69,89,1,140,cookie,refrigerator,,90327,001,2022-04-24_00h56.33.761,SPAMnetsValid,2021.1.4,Win32,144.092219,,,,,,,,,,,,,,,,,,,,,,,,,,,,,,,,,,,,,,,,,,,,,,,,,,,,,,,,,,,,,,,,,,,,,,,,,,,,,,,,,,,,,,,,,
,,1,2.089,1,2.089,0,70,70,55,1,143,pretzel,rose,,90327,001,2022-04-24_00h56.33.761,SPAMnetsValid,2021.1.4,Win32,144.092219,,,,,,,,,,,,,,,,,,,,,,,,,,,,,,,,,,,,,,,,,,,,,,,,,,,,,,,,,,,,,,,,,,,,,,,,,,,,,,,,,,,,,,,,,
,,8,1.532,8,1.532,0,71,71,36,1,161,kitchen,pretzel,,90327,001,2022-04-24_00h56.33.761,SPAMnetsValid,2021.1.4,Win32,144.092219,,,,,,,,,,,,,,,,,,,,,,,,,,,,,,,,,,,,,,,,,,,,,,,,,,,,,,,,,,,,,,,,,,,,,,,,,,,,,,,,,,,,,,,,,
,,1,2.504,1,2.504,0,72,72,84,1,130,microwave,yogurt,,90327,001,2022-04-24_00h56.33.761,SPAMnetsValid,2021.1.4,Win32,144.092219,,,,,,,,,,,,,,,,,,,,,,,,,,,,,,,,,,,,,,,,,,,,,,,,,,,,,,,,,,,,,,,,,,,,,,,,,,,,,,,,,,,,,,,,,
,,3,5.905,3,5.905,0,73,73,38,1,155,carrot,cookie,,90327,001,2022-04-24_00h56.33.761,SPAMnetsValid,2021.1.4,Win32,144.092219,,,,,,,,,,,,,,,,,,,,,,,,,,,,,,,,,,,,,,,,,,,,,,,,,,,,,,,,,,,,,,,,,,,,,,,,,,,,,,,,,,,,,,,,,
,,3,1.711,3,1.711,0,74,74,76,1,102,chocolate,refrigerator,,90327,001,2022-04-24_00h56.33.761,SPAMnetsValid,2021.1.4,Win32,144.092219,,,,,,,,,,,,,,,,,,,,,,,,,,,,,,,,,,,,,,,,,,,,,,,,,,,,,,,,,,,,,,,,,,,,,,,,,,,,,,,,,,,,,,,,,
,,8,1.85,8,1.85,0,75,75,28,1,154,strawberry,yogurt,,90327,001,2022-04-24_00h56.33.761,SPAMnetsValid,2021.1.4,Win32,144.092219,,,,,,,,,,,,,,,,,,,,,,,,,,,,,,,,,,,,,,,,,,,,,,,,,,,,,,,,,,,,,,,,,,,,,,,,,,,,,,,,,,,,,,,,,
,,1,1.316,1,1.316,0,76,76,24,1,169,onion,yogurt,,90327,001,2022-04-24_00h56.33.761,SPAMnetsValid,2021.1.4,Win32,144.092219,,,,,,,,,,,,,,,,,,,,,,,,,,,,,,,,,,,,,,,,,,,,,,,,,,,,,,,,,,,,,,,,,,,,,,,,,,,,,,,,,,,,,,,,,
,,7,5.066,7,5.066,0,77,77,37,1,139,carrot,strawberry,,90327,001,2022-04-24_00h56.33.761,SPAMnetsValid,2021.1.4,Win32,144.092219,,,,,,,,,,,,,,,,,,,,,,,,,,,,,,,,,,,,,,,,,,,,,,,,,,,,,,,,,,,,,,,,,,,,,,,,,,,,,,,,,,,,,,,,,
,,7,4.294,7,4.294,0,78,78,78,1,132,broom,tree,,90327,001,2022-04-24_00h56.33.761,SPAMnetsValid,2021.1.4,Win32,144.092219,,,,,,,,,,,,,,,,,,,,,,,,,,,,,,,,,,,,,,,,,,,,,,,,,,,,,,,,,,,,,,,,,,,,,,,,,,,,,,,,,,,,,,,,,
,,8,3.239,8,3.239,0,79,79,69,1,124,oven,refrigerator,,90327,001,2022-04-24_00h56.33.761,SPAMnetsValid,2021.1.4,Win32,144.092219,,,,,,,,,,,,,,,,,,,,,,,,,,,,,,,,,,,,,,,,,,,,,,,,,,,,,,,,,,,,,,,,,,,,,,,,,,,,,,,,,,,,,,,,,
,,2,2.29,2,2.29,0,80,80,57,1,127,cactus,chocolate,,90327,001,2022-04-24_00h56.33.761,SPAMnetsValid,2021.1.4,Win32,144.092219,,,,,,,,,,,,,,,,,,,,,,,,,,,,,,,,,,,,,,,,,,,,,,,,,,,,,,,,,,,,,,,,,,,,,,,,,,,,,,,,,,,,,,,,,
,,6,1.587,6,1.587,0,81,81,34,1,153,carrot,pretzel,,90327,001,2022-04-24_00h56.33.761,SPAMnetsValid,2021.1.4,Win32,144.092219,,,,,,,,,,,,,,,,,,,,,,,,,,,,,,,,,,,,,,,,,,,,,,,,,,,,,,,,,,,,,,,,,,,,,,,,,,,,,,,,,,,,,,,,,
,,2,1.553,2,1.553,0,82,82,67,1,96,oven,strawberry,,90327,001,2022-04-24_00h56.33.761,SPAMnetsValid,2021.1.4,Win32,144.092219,,,,,,,,,,,,,,,,,,,,,,,,,,,,,,,,,,,,,,,,,,,,,,,,,,,,,,,,,,,,,,,,,,,,,,,,,,,,,,,,,,,,,,,,,
,,8,1.982,8,1.982,0,83,83,27,1,158,cookie,oven,,90327,001,2022-04-24_00h56.33.761,SPAMnetsValid,2021.1.4,Win32,144.092219,,,,,,,,,,,,,,,,,,,,,,,,,,,,,,,,,,,,,,,,,,,,,,,,,,,,,,,,,,,,,,,,,,,,,,,,,,,,,,,,,,,,,,,,,
,,3,3.259,3,3.259,0,84,84,45,1,179,broom,oven,,90327,001,2022-04-24_00h56.33.761,SPAMnetsValid,2021.1.4,Win32,144.092219,,,,,,,,,,,,,,,,,,,,,,,,,,,,,,,,,,,,,,,,,,,,,,,,,,,,,,,,,,,,,,,,,,,,,,,,,,,,,,,,,,,,,,,,,
,,4,3.593,4,3.593,0,85,85,49,1,152,cactus,strawberry,,90327,001,2022-04-24_00h56.33.761,SPAMnetsValid,2021.1.4,Win32,144.092219,,,,,,,,,,,,,,,,,,,,,,,,,,,,,,,,,,,,,,,,,,,,,,,,,,,,,,,,,,,,,,,,,,,,,,,,,,,,,,,,,,,,,,,,,
,,6,1.977,6,1.977,0,86,86,82,1,98,pretzel,strawberry,,90327,001,2022-04-24_00h56.33.761,SPAMnetsValid,2021.1.4,Win32,144.092219,,,,,,,,,,,,,,,,,,,,,,,,,,,,,,,,,,,,,,,,,,,,,,,,,,,,,,,,,,,,,,,,,,,,,,,,,,,,,,,,,,,,,,,,,
,,3,1.946,3,1.946,0,87,87,96,1,136,chocolate,microwave,,90327,001,2022-04-24_00h56.33.761,SPAMnetsValid,2021.1.4,Win32,144.092219,,,,,,,,,,,,,,,,,,,,,,,,,,,,,,,,,,,,,,,,,,,,,,,,,,,,,,,,,,,,,,,,,,,,,,,,,,,,,,,,,,,,,,,,,
,,8,2.28,8,2.28,0,88,88,1,1,173,kitchen,tomato,,90327,001,2022-04-24_00h56.33.761,SPAMnetsValid,2021.1.4,Win32,144.092219,,,,,,,,,,,,,,,,,,,,,,,,,,,,,,,,,,,,,,,,,,,,,,,,,,,,,,,,,,,,,,,,,,,,,,,,,,,,,,,,,,,,,,,,,
,,7,5.013,7,5.013,0,89,89,19,1,183,cake,rose,,90327,001,2022-04-24_00h56.33.761,SPAMnetsValid,2021.1.4,Win32,144.092219,,,,,,,,,,,,,,,,,,,,,,,,,,,,,,,,,,,,,,,,,,,,,,,,,,,,,,,,,,,,,,,,,,,,,,,,,,,,,,,,,,,,,,,,,
,,3,4.906,3,4.906,0,90,90,30,1,125,carrot,tree,,90327,001,2022-04-24_00h56.33.761,SPAMnetsValid,2021.1.4,Win32,144.092219,,,,,,,,,,,,,,,,,,,,,,,,,,,,,,,,,,,,,,,,,,,,,,,,,,,,,,,,,,,,,,,,,,,,,,,,,,,,,,,,,,,,,,,,,
,,3,1.128,3,1.128,0,91,91,80,1,146,pretzel,tree,,90327,001,2022-04-24_00h56.33.761,SPAMnetsValid,2021.1.4,Win32,144.092219,,,,,,,,,,,,,,,,,,,,,,,,,,,,,,,,,,,,,,,,,,,,,,,,,,,,,,,,,,,,,,,,,,,,,,,,,,,,,,,,,,,,,,,,,
,,8,1.642,8,1.642,0,92,92,77,1,172,kitchen,melon,,90327,001,2022-04-24_00h56.33.761,SPAMnetsValid,2021.1.4,Win32,144.092219,,,,,,,,,,,,,,,,,,,,,,,,,,,,,,,,,,,,,,,,,,,,,,,,,,,,,,,,,,,,,,,,,,,,,,,,,,,,,,,,,,,,,,,,,
,,2,2.37,2,2.37,0,93,93,79,1,103,pretzel,tomato,,90327,001,2022-04-24_00h56.33.761,SPAMnetsValid,2021.1.4,Win32,144.092219,,,,,,,,,,,,,,,,,,,,,,,,,,,,,,,,,,,,,,,,,,,,,,,,,,,,,,,,,,,,,,,,,,,,,,,,,,,,,,,,,,,,,,,,,
,,3,3.739,3,3.739,0,94,94,75,1,178,cactus,carrot,,90327,001,2022-04-24_00h56.33.761,SPAMnetsValid,2021.1.4,Win32,144.092219,,,,,,,,,,,,,,,,,,,,,,,,,,,,,,,,,,,,,,,,,,,,,,,,,,,,,,,,,,,,,,,,,,,,,,,,,,,,,,,,,,,,,,,,,
,,3,7.218,3,7.218,0,95,95,90,1,190,microwave,strawberry,,90327,001,2022-04-24_00h56.33.761,SPAMnetsValid,2021.1.4,Win32,144.092219,,,,,,,,,,,,,,,,,,,,,,,,,,,,,,,,,,,,,,,,,,,,,,,,,,,,,,,,,,,,,,,,,,,,,,,,,,,,,,,,,,,,,,,,,
,,3,2.648,3,2.648,0,96,96,10,1,118,chocolate,oven,,90327,001,2022-04-24_00h56.33.761,SPAMnetsValid,2021.1.4,Win32,144.092219,,,,,,,,,,,,,,,,,,,,,,,,,,,,,,,,,,,,,,,,,,,,,,,,,,,,,,,,,,,,,,,,,,,,,,,,,,,,,,,,,,,,,,,,,
,,,,,,,,,,,,,,,90327,001,2022-04-24_00h56.33.761,SPAMnetsValid,2021.1.4,Win32,144.092219,0,0,0,0,1,,,,,,,,,,,,,,,,,,,,,,,,,,,,,,,,,,,,,,,,,,,,,,,,,,,,,,,,,,,,,,,,,,,,,,,,,,,,,,,,,,,,
,,,,,,,,,,,,,,,90327,001,2022-04-24_00h56.33.761,SPAMnetsValid,2021.1.4,Win32,144.092219,,,,,,0,0,0,1,1,0,1,,,,,,,,,,,,,,,,,,,,,,,,,,,,,,,,,,,,,,,,,,,,,,,,,,,,,,,,,,,,,,,,,,,,,,,,,,,,,
,,,,3,6.785,,,,,,46,garden,yogurt,,90327,001,2022-04-24_00h56.33.761,SPAMnetsValid,2021.1.4,Win32,144.092219,,,,,,,,,,,,,3,6.785,0,0,0,65,1,,,,,,,,,,,,,,,,,,,,,,,,,,,,,,,,,,,,,,,,,,,,,,,,,,,,,,,,,,,,,,,,,,,,,,
,,,,3,1.912,,,,,,37,garden,refrigerator,,90327,001,2022-04-24_00h56.33.761,SPAMnetsValid,2021.1.4,Win32,144.092219,,,,,,,,,,,,,3,1.912,0,1,1,11,1,,,,,,,,,,,,,,,,,,,,,,,,,,,,,,,,,,,,,,,,,,,,,,,,,,,,,,,,,,,,,,,,,,,,,,
,,,,3,2.05,,,,,,42,garden,kitchen,,90327,001,2022-04-24_00h56.33.761,SPAMnetsValid,2021.1.4,Win32,144.092219,,,,,,,,,,,,,3,2.05,0,2,2,29,1,,,,,,,,,,,,,,,,,,,,,,,,,,,,,,,,,,,,,,,,,,,,,,,,,,,,,,,,,,,,,,,,,,,,,,
,,,,6,3.42,,,,,,81,pretzel,yogurt,,90327,001,2022-04-24_00h56.33.761,SPAMnetsValid,2021.1.4,Win32,144.092219,,,,,,,,,,,,,6,3.42,0,3,3,50,1,,,,,,,,,,,,,,,,,,,,,,,,,,,,,,,,,,,,,,,,,,,,,,,,,,,,,,,,,,,,,,,,,,,,,,
,,,,2,3.878,,,,,,34,melon,oven,,90327,001,2022-04-24_00h56.33.761,SPAMnetsValid,2021.1.4,Win32,144.092219,,,,,,,,,,,,,2,3.878,0,4,4,7,1,,,,,,,,,,,,,,,,,,,,,,,,,,,,,,,,,,,,,,,,,,,,,,,,,,,,,,,,,,,,,,,,,,,,,,
,,,,6,4.796,,,,,,38,pretzel,refrigerator,,90327,001,2022-04-24_00h56.33.761,SPAMnetsValid,2021.1.4,Win32,144.092219,,,,,,,,,,,,,6,4.796,0,5,5,71,1,,,,,,,,,,,,,,,,,,,,,,,,,,,,,,,,,,,,,,,,,,,,,,,,,,,,,,,,,,,,,,,,,,,,,,
,,,,3,2.351,,,,,,62,kitchen,rose,,90327,001,2022-04-24_00h56.33.761,SPAMnetsValid,2021.1.4,Win32,144.092219,,,,,,,,,,,,,3,2.351,0,6,6,57,1,,,,,,,,,,,,,,,,,,,,,,,,,,,,,,,,,,,,,,,,,,,,,,,,,,,,,,,,,,,,,,,,,,,,,,
,,,,9,1.017,,,,,,192,microwave,microwave,CHECK,90327,001,2022-04-24_00h56.33.761,SPAMnetsValid,2021.1.4,Win32,144.092219,,,,,,,,,,,,,9,1.017,0,7,7,53,1,,,,,,,,,,,,,,,,,,,,,,,,,,,,,,,,,,,,,,,,,,,,,,,,,,,,,,,,,,,,,,,,,,,,,,
,,,,8,1.538,,,,,,77,refrigerator,yogurt,,90327,001,2022-04-24_00h56.33.761,SPAMnetsValid,2021.1.4,Win32,144.092219,,,,,,,,,,,,,8,1.538,0,8,8,42,1,,,,,,,,,,,,,,,,,,,,,,,,,,,,,,,,,,,,,,,,,,,,,,,,,,,,,,,,,,,,,,,,,,,,,,
,,,,4,2.772,,,,,,21,cake,onion,,90327,001,2022-04-24_00h56.33.761,SPAMnetsValid,2021.1.4,Win32,144.092219,,,,,,,,,,,,,4,2.772,0,9,9,63,1,,,,,,,,,,,,,,,,,,,,,,,,,,,,,,,,,,,,,,,,,,,,,,,,,,,,,,,,,,,,,,,,,,,,,,
,,,,3,2.593,,,,,,59,rose,strawberry,,90327,001,2022-04-24_00h56.33.761,SPAMnetsValid,2021.1.4,Win32,144.092219,,,,,,,,,,,,,3,2.593,0,10,10,72,1,,,,,,,,,,,,,,,,,,,,,,,,,,,,,,,,,,,,,,,,,,,,,,,,,,,,,,,,,,,,,,,,,,,,,,
,,,,3,2.33,,,,,,49,flower,strawberry,,90327,001,2022-04-24_00h56.33.761,SPAMnetsValid,2021.1.4,Win32,144.092219,,,,,,,,,,,,,3,2.33,0,11,11,3,1,,,,,,,,,,,,,,,,,,,,,,,,,,,,,,,,,,,,,,,,,,,,,,,,,,,,,,,,,,,,,,,,,,,,,,
,,,,6,2.691,,,,,,51,onion,strawberry,,90327,001,2022-04-24_00h56.33.761,SPAMnetsValid,2021.1.4,Win32,144.092219,,,,,,,,,,,,,6,2.691,0,12,12,86,1,,,,,,,,,,,,,,,,,,,,,,,,,,,,,,,,,,,,,,,,,,,,,,,,,,,,,,,,,,,,,,,,,,,,,,
,,,,7,2.142,,,,,,9,kitchen,refrigerator,,90327,001,2022-04-24_00h56.33.761,SPAMnetsValid,2021.1.4,Win32,144.092219,,,,,,,,,,,,,7,2.142,0,13,13,64,1,,,,,,,,,,,,,,,,,,,,,,,,,,,,,,,,,,,,,,,,,,,,,,,,,,,,,,,,,,,,,,,,,,,,,,
,,,,6,4.51,,,,,,4,chocolate,pretzel,,90327,001,2022-04-24_00h56.33.761,SPAMnetsValid,2021.1.4,Win32,144.092219,,,,,,,,,,,,,6,4.51,0,14,14,52,1,,,,,,,,,,,,,,,,,,,,,,,,,,,,,,,,,,,,,,,,,,,,,,,,,,,,,,,,,,,,,,,,,,,,,,
,,,,5,2.533,,,,,,45,onion,pretzel,,90327,001,2022-04-24_00h56.33.761,SPAMnetsValid,2021.1.4,Win32,144.092219,,,,,,,,,,,,,5,2.533,0,15,15,69,1,,,,,,,,,,,,,,,,,,,,,,,,,,,,,,,,,,,,,,,,,,,,,,,,,,,,,,,,,,,,,,,,,,,,,,
,,,,3,2.732,,,,,,16,chocolate,flower,,90327,001,2022-04-24_00h56.33.761,SPAMnetsValid,2021.1.4,Win32,144.092219,,,,,,,,,,,,,3,2.732,0,16,16,22,1,,,,,,,,,,,,,,,,,,,,,,,,,,,,,,,,,,,,,,,,,,,,,,,,,,,,,,,,,,,,,,,,,,,,,,
,,,,3,1.601,,,,,,95,broom,refrigerator,,90327,001,2022-04-24_00h56.33.761,SPAMnetsValid,2021.1.4,Win32,144.092219,,,,,,,,,,,,,3,1.601,0,17,17,90,1,,,,,,,,,,,,,,,,,,,,,,,,,,,,,,,,,,,,,,,,,,,,,,,,,,,,,,,,,,,,,,,,,,,,,,
,,,,8,2.552,,,,,,93,kitchen,oven,,90327,001,2022-04-24_00h56.33.761,SPAMnetsValid,2021.1.4,Win32,144.092219,,,,,,,,,,,,,8,2.552,0,18,18,82,1,,,,,,,,,,,,,,,,,,,,,,,,,,,,,,,,,,,,,,,,,,,,,,,,,,,,,,,,,,,,,,,,,,,,,,
,,,,1,1.67,,,,,,92,broom,flower,,90327,001,2022-04-24_00h56.33.761,SPAMnetsValid,2021.1.4,Win32,144.092219,,,,,,,,,,,,,1,1.67,0,19,19,88,1,,,,,,,,,,,,,,,,,,,,,,,,,,,,,,,,,,,,,,,,,,,,,,,,,,,,,,,,,,,,,,,,,,,,,,
,,,,1,2.075,,,,,,13,broom,yogurt,,90327,001,2022-04-24_00h56.33.761,SPAMnetsValid,2021.1.4,Win32,144.092219,,,,,,,,,,,,,1,2.075,0,20,20,5,1,,,,,,,,,,,,,,,,,,,,,,,,,,,,,,,,,,,,,,,,,,,,,,,,,,,,,,,,,,,,,,,,,,,,,,
,,,,8,1.659,,,,,,94,kitchen,microwave,,90327,001,2022-04-24_00h56.33.761,SPAMnetsValid,2021.1.4,Win32,144.092219,,,,,,,,,,,,,8,1.659,0,21,21,58,1,,,,,,,,,,,,,,,,,,,,,,,,,,,,,,,,,,,,,,,,,,,,,,,,,,,,,,,,,,,,,,,,,,,,,,
,,,,4,2.172,,,,,,56,cactus,tree,,90327,001,2022-04-24_00h56.33.761,SPAMnetsValid,2021.1.4,Win32,144.092219,,,,,,,,,,,,,4,2.172,0,22,22,21,1,,,,,,,,,,,,,,,,,,,,,,,,,,,,,,,,,,,,,,,,,,,,,,,,,,,,,,,,,,,,,,,,,,,,,,
,,,,7,1.741,,,,,,25,carrot,onion,,90327,001,2022-04-24_00h56.33.761,SPAMnetsValid,2021.1.4,Win32,144.092219,,,,,,,,,,,,,7,1.741,0,23,23,44,1,,,,,,,,,,,,,,,,,,,,,,,,,,,,,,,,,,,,,,,,,,,,,,,,,,,,,,,,,,,,,,,,,,,,,,
,,,,3,2.826,,,,,,32,cake,microwave,,90327,001,2022-04-24_00h56.33.761,SPAMnetsValid,2021.1.4,Win32,144.092219,,,,,,,,,,,,,3,2.826,0,24,24,33,1,,,,,,,,,,,,,,,,,,,,,,,,,,,,,,,,,,,,,,,,,,,,,,,,,,,,,,,,,,,,,,,,,,,,,,
,,,,1,1.448,,,,,,85,cake,tree,,90327,001,2022-04-24_00h56.33.761,SPAMnetsValid,2021.1.4,Win32,144.092219,,,,,,,,,,,,,1,1.448,0,25,25,18,1,,,,,,,,,,,,,,,,,,,,,,,,,,,,,,,,,,,,,,,,,,,,,,,,,,,,,,,,,,,,,,,,,,,,,,
,,,,4,1.953,,,,,,50,carrot,rose,,90327,001,2022-04-24_00h56.33.761,SPAMnetsValid,2021.1.4,Win32,144.092219,,,,,,,,,,,,,4,1.953,0,26,26,73,1,,,,,,,,,,,,,,,,,,,,,,,,,,,,,,,,,,,,,,,,,,,,,,,,,,,,,,,,,,,,,,,,,,,,,,
,,,,6,1.511,,,,,,39,melon,pretzel,,90327,001,2022-04-24_00h56.33.761,SPAMnetsValid,2021.1.4,Win32,144.092219,,,,,,,,,,,,,6,1.511,0,27,27,20,1,,,,,,,,,,,,,,,,,,,,,,,,,,,,,,,,,,,,,,,,,,,,,,,,,,,,,,,,,,,,,,,,,,,,,,
,,,,2,6.392,,,,,,41,broom,cactus,,90327,001,2022-04-24_00h56.33.761,SPAMnetsValid,2021.1.4,Win32,144.092219,,,,,,,,,,,,,2,6.392,0,28,28,46,1,,,,,,,,,,,,,,,,,,,,,,,,,,,,,,,,,,,,,,,,,,,,,,,,,,,,,,,,,,,,,,,,,,,,,,
,,,,6,2.545,,,,,,66,melon,yogurt,,90327,001,2022-04-24_00h56.33.761,SPAMnetsValid,2021.1.4,Win32,144.092219,,,,,,,,,,,,,6,2.545,0,29,29,48,1,,,,,,,,,,,,,,,,,,,,,,,,,,,,,,,,,,,,,,,,,,,,,,,,,,,,,,,,,,,,,,,,,,,,,,
,,,,1,1.496,,,,,,86,oven,rose,,90327,001,2022-04-24_00h56.33.761,SPAMnetsValid,2021.1.4,Win32,144.092219,,,,,,,,,,,,,1,1.496,0,30,30,79,1,,,,,,,,,,,,,,,,,,,,,,,,,,,,,,,,,,,,,,,,,,,,,,,,,,,,,,,,,,,,,,,,,,,,,,
,,,,6,1.267,,,,,,87,carrot,yogurt,,90327,001,2022-04-24_00h56.33.761,SPAMnetsValid,2021.1.4,Win32,144.092219,,,,,,,,,,,,,6,1.267,0,31,31,6,1,,,,,,,,,,,,,,,,,,,,,,,,,,,,,,,,,,,,,,,,,,,,,,,,,,,,,,,,,,,,,,,,,,,,,,
,,,,7,1.435,,,,,,22,kitchen,strawberry,,90327,001,2022-04-24_00h56.33.761,SPAMnetsValid,2021.1.4,Win32,144.092219,,,,,,,,,,,,,7,1.435,0,32,32,2,1,,,,,,,,,,,,,,,,,,,,,,,,,,,,,,,,,,,,,,,,,,,,,,,,,,,,,,,,,,,,,,,,,,,,,,
,,,,8,1.539,,,,,,52,carrot,tomato,,90327,001,2022-04-24_00h56.33.761,SPAMnetsValid,2021.1.4,Win32,144.092219,,,,,,,,,,,,,8,1.539,0,33,33,95,1,,,,,,,,,,,,,,,,,,,,,,,,,,,,,,,,,,,,,,,,,,,,,,,,,,,,,,,,,,,,,,,,,,,,,,
,,,,6,1.336,,,,,,43,chocolate,tomato,,90327,001,2022-04-24_00h56.33.761,SPAMnetsValid,2021.1.4,Win32,144.092219,,,,,,,,,,,,,6,1.336,0,34,34,8,1,,,,,,,,,,,,,,,,,,,,,,,,,,,,,,,,,,,,,,,,,,,,,,,,,,,,,,,,,,,,,,,,,,,,,,
,,,,1,1.47,,,,,,65,broom,garden,,90327,001,2022-04-24_00h56.33.761,SPAMnetsValid,2021.1.4,Win32,144.092219,,,,,,,,,,,,,1,1.47,0,35,35,23,1,,,,,,,,,,,,,,,,,,,,,,,,,,,,,,,,,,,,,,,,,,,,,,,,,,,,,,,,,,,,,,,,,,,,,,
,,,,4,1.941,,,,,,10,flower,onion,,90327,001,2022-04-24_00h56.33.761,SPAMnetsValid,2021.1.4,Win32,144.092219,,,,,,,,,,,,,4,1.941,0,36,36,45,1,,,,,,,,,,,,,,,,,,,,,,,,,,,,,,,,,,,,,,,,,,,,,,,,,,,,,,,,,,,,,,,,,,,,,,
,,,,1,1.691,,,,,,48,flower,oven,,90327,001,2022-04-24_00h56.33.761,SPAMnetsValid,2021.1.4,Win32,144.092219,,,,,,,,,,,,,1,1.691,0,37,37,15,1,,,,,,,,,,,,,,,,,,,,,,,,,,,,,,,,,,,,,,,,,,,,,,,,,,,,,,,,,,,,,,,,,,,,,,
,,,,7,1.656,,,,,,17,carrot,melon,,90327,001,2022-04-24_00h56.33.761,SPAMnetsValid,2021.1.4,Win32,144.092219,,,,,,,,,,,,,7,1.656,0,38,38,24,1,,,,,,,,,,,,,,,,,,,,,,,,,,,,,,,,,,,,,,,,,,,,,,,,,,,,,,,,,,,,,,,,,,,,,,
,,,,3,1.684,,,,,,1,rose,yogurt,,90327,001,2022-04-24_00h56.33.761,SPAMnetsValid,2021.1.4,Win32,144.092219,,,,,,,,,,,,,3,1.684,0,39,39,55,1,,,,,,,,,,,,,,,,,,,,,,,,,,,,,,,,,,,,,,,,,,,,,,,,,,,,,,,,,,,,,,,,,,,,,,
,,,,1,3.586,,,,,,14,broom,cookie,,90327,001,2022-04-24_00h56.33.761,SPAMnetsValid,2021.1.4,Win32,144.092219,,,,,,,,,,,,,1,3.586,0,40,40,16,1,,,,,,,,,,,,,,,,,,,,,,,,,,,,,,,,,,,,,,,,,,,,,,,,,,,,,,,,,,,,,,,,,,,,,,
,,,,7,1.905,,,,,,30,cookie,pretzel,,90327,001,2022-04-24_00h56.33.761,SPAMnetsValid,2021.1.4,Win32,144.092219,,,,,,,,,,,,,7,1.905,0,41,41,78,1,,,,,,,,,,,,,,,,,,,,,,,,,,,,,,,,,,,,,,,,,,,,,,,,,,,,,,,,,,,,,,,,,,,,,,
,,,,7,1.732,,,,,,69,carrot,refrigerator,,90327,001,2022-04-24_00h56.33.761,SPAMnetsValid,2021.1.4,Win32,144.092219,,,,,,,,,,,,,7,1.732,0,42,42,75,1,,,,,,,,,,,,,,,,,,,,,,,,,,,,,,,,,,,,,,,,,,,,,,,,,,,,,,,,,,,,,,,,,,,,,,
,,,,1,1.517,,,,,,74,broom,pretzel,,90327,001,2022-04-24_00h56.33.761,SPAMnetsValid,2021.1.4,Win32,144.092219,,,,,,,,,,,,,1,1.517,0,43,43,40,1,,,,,,,,,,,,,,,,,,,,,,,,,,,,,,,,,,,,,,,,,,,,,,,,,,,,,,,,,,,,,,,,,,,,,,
,,,,2,2.593,,,,,,27,cactus,cookie,,90327,001,2022-04-24_00h56.33.761,SPAMnetsValid,2021.1.4,Win32,144.092219,,,,,,,,,,,,,2,2.593,0,44,44,17,1,,,,,,,,,,,,,,,,,,,,,,,,,,,,,,,,,,,,,,,,,,,,,,,,,,,,,,,,,,,,,,,,,,,,,,
,,,,3,1.289,,,,,,60,cactus,onion,,90327,001,2022-04-24_00h56.33.761,SPAMnetsValid,2021.1.4,Win32,144.092219,,,,,,,,,,,,,3,1.289,0,45,45,81,1,,,,,,,,,,,,,,,,,,,,,,,,,,,,,,,,,,,,,,,,,,,,,,,,,,,,,,,,,,,,,,,,,,,,,,
,,,,2,2.523,,,,,,31,cactus,pretzel,,90327,001,2022-04-24_00h56.33.761,SPAMnetsValid,2021.1.4,Win32,144.092219,,,,,,,,,,,,,2,2.523,0,46,46,1,1,,,,,,,,,,,,,,,,,,,,,,,,,,,,,,,,,,,,,,,,,,,,,,,,,,,,,,,,,,,,,,,,,,,,,,
,,,,8,1.601,,,,,,79,garden,strawberry,,90327,001,2022-04-24_00h56.33.761,SPAMnetsValid,2021.1.4,Win32,144.092219,,,,,,,,,,,,,8,1.601,0,47,47,87,1,,,,,,,,,,,,,,,,,,,,,,,,,,,,,,,,,,,,,,,,,,,,,,,,,,,,,,,,,,,,,,,,,,,,,,
,,,,1,1.919,,,,,,73,broom,chocolate,,90327,001,2022-04-24_00h56.33.761,SPAMnetsValid,2021.1.4,Win32,144.092219,,,,,,,,,,,,,1,1.919,0,48,48,47,1,,,,,,,,,,,,,,,,,,,,,,,,,,,,,,,,,,,,,,,,,,,,,,,,,,,,,,,,,,,,,,,,,,,,,,
,,,,1,2.255,,,,,,11,refrigerator,tree,,90327,001,2022-04-24_00h56.33.761,SPAMnetsValid,2021.1.4,Win32,144.092219,,,,,,,,,,,,,1,2.255,0,49,49,43,1,,,,,,,,,,,,,,,,,,,,,,,,,,,,,,,,,,,,,,,,,,,,,,,,,,,,,,,,,,,,,,,,,,,,,,
,,,,1,6.648,,,,,,5,oven,tree,,90327,001,2022-04-24_00h56.33.761,SPAMnetsValid,2021.1.4,Win32,144.092219,,,,,,,,,,,,,1,6.648,0,50,50,70,1,,,,,,,,,,,,,,,,,,,,,,,,,,,,,,,,,,,,,,,,,,,,,,,,,,,,,,,,,,,,,,,,,,,,,,
,,,,8,1.793,,,,,,55,tomato,tree,,90327,001,2022-04-24_00h56.33.761,SPAMnetsValid,2021.1.4,Win32,144.092219,,,,,,,,,,,,,8,1.793,0,51,51,35,1,,,,,,,,,,,,,,,,,,,,,,,,,,,,,,,,,,,,,,,,,,,,,,,,,,,,,,,,,,,,,,,,,,,,,,
,,,,4,2.324,,,,,,70,chocolate,onion,,90327,001,2022-04-24_00h56.33.761,SPAMnetsValid,2021.1.4,Win32,144.092219,,,,,,,,,,,,,4,2.324,0,52,52,74,1,,,,,,,,,,,,,,,,,,,,,,,,,,,,,,,,,,,,,,,,,,,,,,,,,,,,,,,,,,,,,,,,,,,,,,
,,,,3,3.08,,,,,,68,flower,tomato,,90327,001,2022-04-24_00h56.33.761,SPAMnetsValid,2021.1.4,Win32,144.092219,,,,,,,,,,,,,3,3.08,0,53,53,94,1,,,,,,,,,,,,,,,,,,,,,,,,,,,,,,,,,,,,,,,,,,,,,,,,,,,,,,,,,,,,,,,,,,,,,,
,,,,1,7.087,,,,,,53,garden,pretzel,,90327,001,2022-04-24_00h56.33.761,SPAMnetsValid,2021.1.4,Win32,144.092219,,,,,,,,,,,,,1,7.087,0,54,54,0,1,,,,,,,,,,,,,,,,,,,,,,,,,,,,,,,,,,,,,,,,,,,,,,,,,,,,,,,,,,,,,,,,,,,,,,
,,,,1,1.836,,,,,,35,flower,pretzel,,90327,001,2022-04-24_00h56.33.761,SPAMnetsValid,2021.1.4,Win32,144.092219,,,,,,,,,,,,,1,1.836,0,55,55,26,1,,,,,,,,,,,,,,,,,,,,,,,,,,,,,,,,,,,,,,,,,,,,,,,,,,,,,,,,,,,,,,,,,,,,,,
,,,,4,2.024,,,,,,57,flower,kitchen,,90327,001,2022-04-24_00h56.33.761,SPAMnetsValid,2021.1.4,Win32,144.092219,,,,,,,,,,,,,4,2.024,0,56,56,49,1,,,,,,,,,,,,,,,,,,,,,,,,,,,,,,,,,,,,,,,,,,,,,,,,,,,,,,,,,,,,,,,,,,,,,,
,,,,3,3.628,,,,,,15,onion,oven,,90327,001,2022-04-24_00h56.33.761,SPAMnetsValid,2021.1.4,Win32,144.092219,,,,,,,,,,,,,3,3.628,0,57,57,39,1,,,,,,,,,,,,,,,,,,,,,,,,,,,,,,,,,,,,,,,,,,,,,,,,,,,,,,,,,,,,,,,,,,,,,,
,,,,1,1.686,,,,,,8,broom,melon,,90327,001,2022-04-24_00h56.33.761,SPAMnetsValid,2021.1.4,Win32,144.092219,,,,,,,,,,,,,1,1.686,0,58,58,59,1,,,,,,,,,,,,,,,,,,,,,,,,,,,,,,,,,,,,,,,,,,,,,,,,,,,,,,,,,,,,,,,,,,,,,,
,,,,7,1.808,,,,,,20,rose,tree,,90327,001,2022-04-24_00h56.33.761,SPAMnetsValid,2021.1.4,Win32,144.092219,,,,,,,,,,,,,7,1.808,0,59,59,66,1,,,,,,,,,,,,,,,,,,,,,,,,,,,,,,,,,,,,,,,,,,,,,,,,,,,,,,,,,,,,,,,,,,,,,,
,,,,1,6.905,,,,,,71,broom,rose,,90327,001,2022-04-24_00h56.33.761,SPAMnetsValid,2021.1.4,Win32,144.092219,,,,,,,,,,,,,1,6.905,0,60,60,61,1,,,,,,,,,,,,,,,,,,,,,,,,,,,,,,,,,,,,,,,,,,,,,,,,,,,,,,,,,,,,,,,,,,,,,,
,,,,7,1.475,,,,,,18,onion,refrigerator,,90327,001,2022-04-24_00h56.33.761,SPAMnetsValid,2021.1.4,Win32,144.092219,,,,,,,,,,,,,7,1.475,0,61,61,62,1,,,,,,,,,,,,,,,,,,,,,,,,,,,,,,,,,,,,,,,,,,,,,,,,,,,,,,,,,,,,,,,,,,,,,,
,,,,9,1.309,,,,,,191,cake,cake,CHECK,90327,001,2022-04-24_00h56.33.761,SPAMnetsValid,2021.1.4,Win32,144.092219,,,,,,,,,,,,,9,1.309,0,62,62,10,1,,,,,,,,,,,,,,,,,,,,,,,,,,,,,,,,,,,,,,,,,,,,,,,,,,,,,,,,,,,,,,,,,,,,,,
,,,,8,3.789,,,,,,76,garden,rose,,90327,001,2022-04-24_00h56.33.761,SPAMnetsValid,2021.1.4,Win32,144.092219,,,,,,,,,,,,,8,3.789,0,63,63,19,1,,,,,,,,,,,,,,,,,,,,,,,,,,,,,,,,,,,,,,,,,,,,,,,,,,,,,,,,,,,,,,,,,,,,,,
,,,,8,1.773,,,,,,3,cake,oven,,90327,001,2022-04-24_00h56.33.761,SPAMnetsValid,2021.1.4,Win32,144.092219,,,,,,,,,,,,,8,1.773,0,64,64,30,1,,,,,,,,,,,,,,,,,,,,,,,,,,,,,,,,,,,,,,,,,,,,,,,,,,,,,,,,,,,,,,,,,,,,,,
,,,,3,2.455,,,,,,64,chocolate,garden,,90327,001,2022-04-24_00h56.33.761,SPAMnetsValid,2021.1.4,Win32,144.092219,,,,,,,,,,,,,3,2.455,0,65,65,14,1,,,,,,,,,,,,,,,,,,,,,,,,,,,,,,,,,,,,,,,,,,,,,,,,,,,,,,,,,,,,,,,,,,,,,,
,,,,2,3.178,,,,,,19,microwave,pretzel,,90327,001,2022-04-24_00h56.33.761,SPAMnetsValid,2021.1.4,Win32,144.092219,,,,,,,,,,,,,2,3.178,0,66,66,41,1,,,,,,,,,,,,,,,,,,,,,,,,,,,,,,,,,,,,,,,,,,,,,,,,,,,,,,,,,,,,,,,,,,,,,,
,,,,2,5.526,,,,,,90,cactus,cake,,90327,001,2022-04-24_00h56.33.761,SPAMnetsValid,2021.1.4,Win32,144.092219,,,,,,,,,,,,,2,5.526,0,67,67,85,1,,,,,,,,,,,,,,,,,,,,,,,,,,,,,,,,,,,,,,,,,,,,,,,,,,,,,,,,,,,,,,,,,,,,,,
,,,,7,1.371,,,,,,2,kitchen,onion,,90327,001,2022-04-24_00h56.33.761,SPAMnetsValid,2021.1.4,Win32,144.092219,,,,,,,,,,,,,7,1.371,0,68,68,91,1,,,,,,,,,,,,,,,,,,,,,,,,,,,,,,,,,,,,,,,,,,,,,,,,,,,,,,,,,,,,,,,,,,,,,,
,,,,8,1.392,,,,,,6,garden,onion,,90327,001,2022-04-24_00h56.33.761,SPAMnetsValid,2021.1.4,Win32,144.092219,,,,,,,,,,,,,8,1.392,0,69,69,83,1,,,,,,,,,,,,,,,,,,,,,,,,,,,,,,,,,,,,,,,,,,,,,,,,,,,,,,,,,,,,,,,,,,,,,,
,,,,2,2.766,,,,,,67,flower,yogurt,,90327,001,2022-04-24_00h56.33.761,SPAMnetsValid,2021.1.4,Win32,144.092219,,,,,,,,,,,,,2,2.766,0,70,70,12,1,,,,,,,,,,,,,,,,,,,,,,,,,,,,,,,,,,,,,,,,,,,,,,,,,,,,,,,,,,,,,,,,,,,,,,
,,,,1,2.731,,,,,,72,broom,onion,,90327,001,2022-04-24_00h56.33.761,SPAMnetsValid,2021.1.4,Win32,144.092219,,,,,,,,,,,,,1,2.731,0,71,71,27,1,,,,,,,,,,,,,,,,,,,,,,,,,,,,,,,,,,,,,,,,,,,,,,,,,,,,,,,,,,,,,,,,,,,,,,
,,,,6,2.433,,,,,,44,cookie,melon,,90327,001,2022-04-24_00h56.33.761,SPAMnetsValid,2021.1.4,Win32,144.092219,,,,,,,,,,,,,6,2.433,0,72,72,92,1,,,,,,,,,,,,,,,,,,,,,,,,,,,,,,,,,,,,,,,,,,,,,,,,,,,,,,,,,,,,,,,,,,,,,,
,,,,7,2.509,,,,,,36,broom,kitchen,,90327,001,2022-04-24_00h56.33.761,SPAMnetsValid,2021.1.4,Win32,144.092219,,,,,,,,,,,,,7,2.509,0,73,73,76,1,,,,,,,,,,,,,,,,,,,,,,,,,,,,,,,,,,,,,,,,,,,,,,,,,,,,,,,,,,,,,,,,,,,,,,
,,,,7,2.17,,,,,,61,strawberry,tomato,,90327,001,2022-04-24_00h56.33.761,SPAMnetsValid,2021.1.4,Win32,144.092219,,,,,,,,,,,,,7,2.17,0,74,74,80,1,,,,,,,,,,,,,,,,,,,,,,,,,,,,,,,,,,,,,,,,,,,,,,,,,,,,,,,,,,,,,,,,,,,,,,
,,,,1,2.217,,,,,,91,microwave,rose,,90327,001,2022-04-24_00h56.33.761,SPAMnetsValid,2021.1.4,Win32,144.092219,,,,,,,,,,,,,1,2.217,0,75,75,84,1,,,,,,,,,,,,,,,,,,,,,,,,,,,,,,,,,,,,,,,,,,,,,,,,,,,,,,,,,,,,,,,,,,,,,,
,,,,4,2.039,,,,,,26,tomato,yogurt,,90327,001,2022-04-24_00h56.33.761,SPAMnetsValid,2021.1.4,Win32,144.092219,,,,,,,,,,,,,4,2.039,0,76,76,13,1,,,,,,,,,,,,,,,,,,,,,,,,,,,,,,,,,,,,,,,,,,,,,,,,,,,,,,,,,,,,,,,,,,,,,,
,,,,8,2.039,,,,,,63,cake,cookie,,90327,001,2022-04-24_00h56.33.761,SPAMnetsValid,2021.1.4,Win32,144.092219,,,,,,,,,,,,,8,2.039,0,77,77,93,1,,,,,,,,,,,,,,,,,,,,,,,,,,,,,,,,,,,,,,,,,,,,,,,,,,,,,,,,,,,,,,,,,,,,,,
,,,,1,1.441,,,,,,40,broom,cake,,90327,001,2022-04-24_00h56.33.761,SPAMnetsValid,2021.1.4,Win32,144.092219,,,,,,,,,,,,,1,1.441,0,78,78,32,1,,,,,,,,,,,,,,,,,,,,,,,,,,,,,,,,,,,,,,,,,,,,,,,,,,,,,,,,,,,,,,,,,,,,,,
,,,,2,3.206,,,,,,80,chocolate,tree,,90327,001,2022-04-24_00h56.33.761,SPAMnetsValid,2021.1.4,Win32,144.092219,,,,,,,,,,,,,2,3.206,0,79,79,89,1,,,,,,,,,,,,,,,,,,,,,,,,,,,,,,,,,,,,,,,,,,,,,,,,,,,,,,,,,,,,,,,,,,,,,,
,,,,6,1.461,,,,,,88,cactus,melon,,90327,001,2022-04-24_00h56.33.761,SPAMnetsValid,2021.1.4,Win32,144.092219,,,,,,,,,,,,,6,1.461,0,80,80,38,1,,,,,,,,,,,,,,,,,,,,,,,,,,,,,,,,,,,,,,,,,,,,,,,,,,,,,,,,,,,,,,,,,,,,,,
,,,,1,3.104,,,,,,58,garden,oven,,90327,001,2022-04-24_00h56.33.761,SPAMnetsValid,2021.1.4,Win32,144.092219,,,,,,,,,,,,,1,3.104,0,81,81,37,1,,,,,,,,,,,,,,,,,,,,,,,,,,,,,,,,,,,,,,,,,,,,,,,,,,,,,,,,,,,,,,,,,,,,,,
,,,,1,1.393,,,,,,23,flower,microwave,,90327,001,2022-04-24_00h56.33.761,SPAMnetsValid,2021.1.4,Win32,144.092219,,,,,,,,,,,,,1,1.393,0,82,82,25,1,,,,,,,,,,,,,,,,,,,,,,,,,,,,,,,,,,,,,,,,,,,,,,,,,,,,,,,,,,,,,,,,,,,,,,
,,,,6,2.266,,,,,,29,chocolate,melon,,90327,001,2022-04-24_00h56.33.761,SPAMnetsValid,2021.1.4,Win32,144.092219,,,,,,,,,,,,,6,2.266,0,83,83,34,1,,,,,,,,,,,,,,,,,,,,,,,,,,,,,,,,,,,,,,,,,,,,,,,,,,,,,,,,,,,,,,,,,,,,,,
,,,,7,1.717,,,,,,54,chocolate,yogurt,,90327,001,2022-04-24_00h56.33.761,SPAMnetsValid,2021.1.4,Win32,144.092219,,,,,,,,,,,,,7,1.717,0,84,84,67,1,,,,,,,,,,,,,,,,,,,,,,,,,,,,,,,,,,,,,,,,,,,,,,,,,,,,,,,,,,,,,,,,,,,,,,
,,,,1,2.497,,,,,,83,broom,carrot,,90327,001,2022-04-24_00h56.33.761,SPAMnetsValid,2021.1.4,Win32,144.092219,,,,,,,,,,,,,1,2.497,0,85,85,4,1,,,,,,,,,,,,,,,,,,,,,,,,,,,,,,,,,,,,,,,,,,,,,,,,,,,,,,,,,,,,,,,,,,,,,,
,,,,1,1.095,,,,,,33,oven,yogurt,,90327,001,2022-04-24_00h56.33.761,SPAMnetsValid,2021.1.4,Win32,144.092219,,,,,,,,,,,,,1,1.095,0,86,86,31,1,,,,,,,,,,,,,,,,,,,,,,,,,,,,,,,,,,,,,,,,,,,,,,,,,,,,,,,,,,,,,,,,,,,,,,
,,,,6,2.159,,,,,,89,chocolate,rose,,90327,001,2022-04-24_00h56.33.761,SPAMnetsValid,2021.1.4,Win32,144.092219,,,,,,,,,,,,,6,2.159,0,87,87,60,1,,,,,,,,,,,,,,,,,,,,,,,,,,,,,,,,,,,,,,,,,,,,,,,,,,,,,,,,,,,,,,,,,,,,,,
,,,,7,2.401,,,,,,12,cookie,yogurt,,90327,001,2022-04-24_00h56.33.761,SPAMnetsValid,2021.1.4,Win32,144.092219,,,,,,,,,,,,,7,2.401,0,88,88,36,1,,,,,,,,,,,,,,,,,,,,,,,,,,,,,,,,,,,,,,,,,,,,,,,,,,,,,,,,,,,,,,,,,,,,,,
,,,,6,4.748,,,,,,84,oven,tomato,,90327,001,2022-04-24_00h56.33.761,SPAMnetsValid,2021.1.4,Win32,144.092219,,,,,,,,,,,,,6,4.748,0,89,89,28,1,,,,,,,,,,,,,,,,,,,,,,,,,,,,,,,,,,,,,,,,,,,,,,,,,,,,,,,,,,,,,,,,,,,,,,
,,,,6,3.107,,,,,,28,cake,melon,,90327,001,2022-04-24_00h56.33.761,SPAMnetsValid,2021.1.4,Win32,144.092219,,,,,,,,,,,,,6,3.107,0,90,90,54,1,,,,,,,,,,,,,,,,,,,,,,,,,,,,,,,,,,,,,,,,,,,,,,,,,,,,,,,,,,,,,,,,,,,,,,
,,,,4,1.879,,,,,,24,cookie,tomato,,90327,001,2022-04-24_00h56.33.761,SPAMnetsValid,2021.1.4,Win32,144.092219,,,,,,,,,,,,,4,1.879,0,91,91,68,1,,,,,,,,,,,,,,,,,,,,,,,,,,,,,,,,,,,,,,,,,,,,,,,,,,,,,,,,,,,,,,,,,,,,,,
,,,,3,4.024,,,,,,7,melon,tree,,90327,001,2022-04-24_00h56.33.761,SPAMnetsValid,2021.1.4,Win32,144.092219,,,,,,,,,,,,,3,4.024,0,92,92,77,1,,,,,,,,,,,,,,,,,,,,,,,,,,,,,,,,,,,,,,,,,,,,,,,,,,,,,,,,,,,,,,,,,,,,,,
,,,,4,2.809,,,,,,82,cake,kitchen,,90327,001,2022-04-24_00h56.33.761,SPAMnetsValid,2021.1.4,Win32,144.092219,,,,,,,,,,,,,4,2.809,0,93,93,96,1,,,,,,,,,,,,,,,,,,,,,,,,,,,,,,,,,,,,,,,,,,,,,,,,,,,,,,,,,,,,,,,,,,,,,,
,,,,4,2.961,,,,,,75,cookie,onion,,90327,001,2022-04-24_00h56.33.761,SPAMnetsValid,2021.1.4,Win32,144.092219,,,,,,,,,,,,,4,2.961,0,94,94,9,1,,,,,,,,,,,,,,,,,,,,,,,,,,,,,,,,,,,,,,,,,,,,,,,,,,,,,,,,,,,,,,,,,,,,,,
,,,,7,2.289,,,,,,47,onion,tomato,,90327,001,2022-04-24_00h56.33.761,SPAMnetsValid,2021.1.4,Win32,144.092219,,,,,,,,,,,,,7,2.289,0,95,95,51,1,,,,,,,,,,,,,,,,,,,,,,,,,,,,,,,,,,,,,,,,,,,,,,,,,,,,,,,,,,,,,,,,,,,,,,
,,,,2,10.025,,,,,,78,cookie,rose,,90327,001,2022-04-24_00h56.33.761,SPAMnetsValid,2021.1.4,Win32,144.092219,,,,,,,,,,,,,2,10.025,0,96,96,56,1,,,,,,,,,,,,,,,,,,,,,,,,,,,,,,,,,,,,,,,,,,,,,,,,,,,,,,,,,,,,,,,,,,,,,,
,,,,,,,,,,,,,,,90327,001,2022-04-24_00h56.33.761,SPAMnetsValid,2021.1.4,Win32,144.092219,,,,,,,,,,,,,,,,,,,,0,0,0,0,1,,,,,,,,,,,,,,,,,,,,,,,,,,,,,,,,,,,,,,,,,,,,,,,,,,,,,,,,,,,,,,,,,
,,,,,,,,,,,,,,,90327,001,2022-04-24_00h56.33.761,SPAMnetsValid,2021.1.4,Win32,144.092219,,,,,,0,1,1,0,1,1,0,,,,,,,,,,,,,,,,,,,,,,,,,,,,,,,,,,,,,,,,,,,,,,,,,,,,,,,,,,,,,,,,,,,,,,,,,,,,,
,,,,,,,,,,,,,,,90327,001,2022-04-24_00h56.33.761,SPAMnetsValid,2021.1.4,Win32,144.092219,,,,,,,,,,,,,,,,,,,,,,,,,4,11.026,0,0,0,0,1,rancor,forbearance,ridicule,malice,bravery,3,,,,,,,,,,,,,,,,,,,,,,,,,,,,,,,,,,,,,,,,,,,,,,,,,,,,
,,,,,,,,,,,,,,,90327,001,2022-04-24_00h56.33.761,SPAMnetsValid,2021.1.4,Win32,144.092219,,,,,,,,,,,,,,,,,,,,,,,,,4,5.58,0,1,1,1,1,raucous,empty,quiet,smooth,harsh,4,,,,,,,,,,,,,,,,,,,,,,,,,,,,,,,,,,,,,,,,,,,,,,,,,,,,
,,,,,,,,,,,,,,,90327,001,2022-04-24_00h56.33.761,SPAMnetsValid,2021.1.4,Win32,144.092219,,,,,,,,,,,,,,,,,,,,,,,,,3,4.788,0,2,2,2,1,gargoyle,oil,medicine,carved waterspout,ugly building,3,,,,,,,,,,,,,,,,,,,,,,,,,,,,,,,,,,,,,,,,,,,,,,,,,,,,
,,,,,,,,,,,,,,,90327,001,2022-04-24_00h56.33.761,SPAMnetsValid,2021.1.4,Win32,144.092219,,,,,,,,,,,,,,,,,,,,,,,,,2,10.093,0,3,3,3,1,recrudesce,purify,renew activity,lack refinement,crush,2,,,,,,,,,,,,,,,,,,,,,,,,,,,,,,,,,,,,,,,,,,,,,,,,,,,,
,,,,,,,,,,,,,,,90327,001,2022-04-24_00h56.33.761,SPAMnetsValid,2021.1.4,Win32,144.092219,,,,,,,,,,,,,,,,,,,,,,,,,1,4.148,0,4,4,4,1,specious,"plausible, but not genuine",noteworthy,class or variety,roomy,1,,,,,,,,,,,,,,,,,,,,,,,,,,,,,,,,,,,,,,,,,,,,,,,,,,,,
,,,,,,,,,,,,,,,90327,001,2022-04-24_00h56.33.761,SPAMnetsValid,2021.1.4,Win32,144.092219,,,,,,,,,,,,,,,,,,,,,,,,,3,3.899,0,5,5,5,1,bauble,bubble,showy plaything,idle talk,confusion,2,,,,,,,,,,,,,,,,,,,,,,,,,,,,,,,,,,,,,,,,,,,,,,,,,,,,
,,,,,,,,,,,,,,,90327,001,2022-04-24_00h56.33.761,SPAMnetsValid,2021.1.4,Win32,144.092219,,,,,,,,,,,,,,,,,,,,,,,,,2,4.192,0,6,6,6,1,prolific,scarce,producing abundantly,reckless,speaking profanely,2,,,,,,,,,,,,,,,,,,,,,,,,,,,,,,,,,,,,,,,,,,,,,,,,,,,,
,,,,,,,,,,,,,,,90327,001,2022-04-24_00h56.33.761,SPAMnetsValid,2021.1.4,Win32,144.092219,,,,,,,,,,,,,,,,,,,,,,,,,2,8.484,0,7,7,7,1,opulent,party,wealthy,happy frame of mind,semiprecious stone,2,,,,,,,,,,,,,,,,,,,,,,,,,,,,,,,,,,,,,,,,,,,,,,,,,,,,
,,,,,,,,,,,,,,,90327,001,2022-04-24_00h56.33.761,SPAMnetsValid,2021.1.4,Win32,144.092219,,,,,,,,,,,,,,,,,,,,,,,,,4,5.051,0,8,8,8,1,coercion,conspiracy,strategy,restraint,attraction,3,,,,,,,,,,,,,,,,,,,,,,,,,,,,,,,,,,,,,,,,,,,,,,,,,,,,
,,,,,,,,,,,,,,,90327,001,2022-04-24_00h56.33.761,SPAMnetsValid,2021.1.4,Win32,144.092219,,,,,,,,,,,,,,,,,,,,,,,,,4,2.045,0,9,9,9,1,hiatus,animal,calamity,dread,gap,4,,,,,,,,,,,,,,,,,,,,,,,,,,,,,,,,,,,,,,,,,,,,,,,,,,,,
,,,,,,,,,,,,,,,90327,001,2022-04-24_00h56.33.761,SPAMnetsValid,2021.1.4,Win32,144.092219,,,,,,,,,,,,,,,,,,,,,,,,,3,22.702,0,10,10,10,1,germane,microbe,contagious,relevant,different,3,,,,,,,,,,,,,,,,,,,,,,,,,,,,,,,,,,,,,,,,,,,,,,,,,,,,
,,,,,,,,,,,,,,,90327,001,2022-04-24_00h56.33.761,SPAMnetsValid,2021.1.4,Win32,144.092219,,,,,,,,,,,,,,,,,,,,,,,,,3,19.453,0,11,11,11,1,perfunctory,fundamental,formal,superficial,careful,3,,,,,,,,,,,,,,,,,,,,,,,,,,,,,,,,,,,,,,,,,,,,,,,,,,,,
,,,,,,,,,,,,,,,90327,001,2022-04-24_00h56.33.761,SPAMnetsValid,2021.1.4,Win32,144.092219,,,,,,,,,,,,,,,,,,,,,,,,,4,2.912,0,12,12,12,1,diverge,reveal,chant,distract the attention of,differ or turn off from,4,,,,,,,,,,,,,,,,,,,,,,,,,,,,,,,,,,,,,,,,,,,,,,,,,,,,
,,,,,,,,,,,,,,,90327,001,2022-04-24_00h56.33.761,SPAMnetsValid,2021.1.4,Win32,144.092219,,,,,,,,,,,,,,,,,,,,,,,,,4,2.128,0,13,13,13,1,evoke,take away,anger,connect,bring out,4,,,,,,,,,,,,,,,,,,,,,,,,,,,,,,,,,,,,,,,,,,,,,,,,,,,,
,,,,,,,,,,,,,,,90327,001,2022-04-24_00h56.33.761,SPAMnetsValid,2021.1.4,Win32,144.092219,,,,,,,,,,,,,,,,,,,,,,,,,1,1.76,0,14,14,14,1,pertinent,relevant,lying next to,necessary,bold,1,,,,,,,,,,,,,,,,,,,,,,,,,,,,,,,,,,,,,,,,,,,,,,,,,,,,
,,,,,,,,,,,,,,,90327,001,2022-04-24_00h56.33.761,SPAMnetsValid,2021.1.4,Win32,144.092219,,,,,,,,,,,,,,,,,,,,,,,,,2,6.225,0,15,15,15,1,holocaust,entirety,destruction,saintly,price,2,,,,,,,,,,,,,,,,,,,,,,,,,,,,,,,,,,,,,,,,,,,,,,,,,,,,
,,,,,,,,,,,,,,,90327,001,2022-04-24_00h56.33.761,SPAMnetsValid,2021.1.4,Win32,144.092219,,,,,,,,,,,,,,,,,,,,,,,,,1,4.426,0,16,16,16,1,piquant,mellow,fish,pungent,cloth,3,,,,,,,,,,,,,,,,,,,,,,,,,,,,,,,,,,,,,,,,,,,,,,,,,,,,
,,,,,,,,,,,,,,,90327,001,2022-04-24_00h56.33.761,SPAMnetsValid,2021.1.4,Win32,144.092219,,,,,,,,,,,,,,,,,,,,,,,,,1,3.481,0,17,17,17,1,firmament,foundation,heavens,strong,glue,2,,,,,,,,,,,,,,,,,,,,,,,,,,,,,,,,,,,,,,,,,,,,,,,,,,,,
,,,,,,,,,,,,,,,90327,001,2022-04-24_00h56.33.761,SPAMnetsValid,2021.1.4,Win32,144.092219,,,,,,,,,,,,,,,,,,,,,,,,,,,,,,,,,,,,,,4,4.623,0,0,0,0,1,marketable,partisan,jocular,marriageable,salable,essential,4,,,,,,,,,,,,,,,,,,,,,,,,,,,,,,,,,,,,,,
,,,,,,,,,,,,,,,90327,001,2022-04-24_00h56.33.761,SPAMnetsValid,2021.1.4,Win32,144.092219,,,,,,,,,,,,,,,,,,,,,,,,,,,,,,,,,,,,,,5,3.273,0,1,1,1,1,cottontail,squirrel,poplar,boa,marshy plant,rabbit,5,,,,,,,,,,,,,,,,,,,,,,,,,,,,,,,,,,,,,,
,,,,,,,,,,,,,,,90327,001,2022-04-24_00h56.33.761,SPAMnetsValid,2021.1.4,Win32,144.092219,,,,,,,,,,,,,,,,,,,,,,,,,,,,,,,,,,,,,,3,1.572,0,2,2,2,1,boggy,afraid,false,marshy,dense,black,3,,,,,,,,,,,,,,,,,,,,,,,,,,,,,,,,,,,,,,
,,,,,,,,,,,,,,,90327,001,2022-04-24_00h56.33.761,SPAMnetsValid,2021.1.4,Win32,144.092219,,,,,,,,,,,,,,,,,,,,,,,,,,,,,,,,,,,,,,5,2.811,0,3,3,3,1,gruesomeness,blackness,falseness,vindictiveness,drunkenness,ghastliness,5,,,,,,,,,,,,,,,,,,,,,,,,,,,,,,,,,,,,,,
,,,,,,,,,,,,,,,90327,001,2022-04-24_00h56.33.761,SPAMnetsValid,2021.1.4,Win32,144.092219,,,,,,,,,,,,,,,,,,,,,,,,,,,,,,,,,,,,,,3,2.087,0,4,4,4,1,loathing,diffidence,laziness,abhorrence,cleverness,comfort,3,,,,,,,,,,,,,,,,,,,,,,,,,,,,,,,,,,,,,,
,,,,,,,,,,,,,,,90327,001,2022-04-24_00h56.33.761,SPAMnetsValid,2021.1.4,Win32,144.092219,,,,,,,,,,,,,,,,,,,,,,,,,,,,,,,,,,,,,,1,20.92,0,5,5,5,1,bantam,fowl,ridicule,cripple,vegetable,ensign,1,,,,,,,,,,,,,,,,,,,,,,,,,,,,,,,,,,,,,,
,,,,,,,,,,,,,,,90327,001,2022-04-24_00h56.33.761,SPAMnetsValid,2021.1.4,Win32,144.092219,,,,,,,,,,,,,,,,,,,,,,,,,,,,,,,,,,,,,,5,2.464,0,6,6,6,1,evoke,wake up,surrender,reconnoiter,transcend,call forth,5,,,,,,,,,,,,,,,,,,,,,,,,,,,,,,,,,,,,,,
,,,,,,,,,,,,,,,90327,001,2022-04-24_00h56.33.761,SPAMnetsValid,2021.1.4,Win32,144.092219,,,,,,,,,,,,,,,,,,,,,,,,,,,,,,,,,,,,,,5,9.245,0,7,7,7,1,unobtrusive,unintelligent,epileptic,illogical,lineal,modest,5,,,,,,,,,,,,,,,,,,,,,,,,,,,,,,,,,,,,,,
,,,,,,,,,,,,,,,90327,001,2022-04-24_00h56.33.761,SPAMnetsValid,2021.1.4,Win32,144.092219,,,,,,,,,,,,,,,,,,,,,,,,,,,,,,,,,,,,,,4,2.032,0,8,8,8,1,terrain,ice cream,final test,tractor,area of ground,weight,4,,,,,,,,,,,,,,,,,,,,,,,,,,,,,,,,,,,,,,
,,,,,,,,,,,,,,,90327,001,2022-04-24_00h56.33.761,SPAMnetsValid,2021.1.4,Win32,144.092219,,,,,,,,,,,,,,,,,,,,,,,,,,,,,,,,,,,,,,1,5.062,0,9,9,9,1,capriciousness,stubbornness,courage,whimsicality,amazement,greediness,3,,,,,,,,,,,,,,,,,,,,,,,,,,,,,,,,,,,,,,
,,,,,,,,,,,,,,,90327,001,2022-04-24_00h56.33.761,SPAMnetsValid,2021.1.4,Win32,144.092219,,,,,,,,,,,,,,,,,,,,,,,,,,,,,,,,,,,,,,2,2.503,0,10,10,10,1,maelstrom,slander,whirlpool,enmity,armor,majolica,2,,,,,,,,,,,,,,,,,,,,,,,,,,,,,,,,,,,,,,
,,,,,,,,,,,,,,,90327,001,2022-04-24_00h56.33.761,SPAMnetsValid,2021.1.4,Win32,144.092219,,,,,,,,,,,,,,,,,,,,,,,,,,,,,,,,,,,,,,5,2.658,0,11,11,11,1,tentative,critical,conclusive,authentic,provisional,apprehensive,4,,,,,,,,,,,,,,,,,,,,,,,,,,,,,,,,,,,,,,
,,,,,,,,,,,,,,,90327,001,2022-04-24_00h56.33.761,SPAMnetsValid,2021.1.4,Win32,144.092219,,,,,,,,,,,,,,,,,,,,,,,,,,,,,,,,,,,,,,5,6.519,0,12,12,12,1,placate,rehabilitate,plagiarize,depredate,apprise,conciliate,5,,,,,,,,,,,,,,,,,,,,,,,,,,,,,,,,,,,,,,
,,,,,,,,,,,,,,,90327,001,2022-04-24_00h56.33.761,SPAMnetsValid,2021.1.4,Win32,144.092219,,,,,,,,,,,,,,,,,,,,,,,,,,,,,,,,,,,,,,2,10.739,0,13,13,13,1,surcease,enlightenment,cessation,inattention,censor,substitution,2,,,,,,,,,,,,,,,,,,,,,,,,,,,,,,,,,,,,,,
,,,,,,,,,,,,,,,90327,001,2022-04-24_00h56.33.761,SPAMnetsValid,2021.1.4,Win32,144.092219,,,,,,,,,,,,,,,,,,,,,,,,,,,,,,,,,,,,,,2,17.295,0,14,14,14,1,apathetic,wandering,impassive,hateful,prophetic,overflowing,2,,,,,,,,,,,,,,,,,,,,,,,,,,,,,,,,,,,,,,
,,,,,,,,,,,,,,,90327,001,2022-04-24_00h56.33.761,SPAMnetsValid,2021.1.4,Win32,144.092219,,,,,,,,,,,,,,,,,,,,,,,,,,,,,,,,,,,,,,4,18.016,0,15,15,15,1,paternoster,paternalism,patricide,malediction,benediction,prayer,5,,,,,,,,,,,,,,,,,,,,,,,,,,,,,,,,,,,,,,
,,,,,,,,,,,,,,,90327,001,2022-04-24_00h56.33.761,SPAMnetsValid,2021.1.4,Win32,144.092219,,,,,,,,,,,,,,,,,,,,,,,,,,,,,,,,,,,,,,4,2.593,0,16,16,16,1,opalescence,opulence,senescence,bankruptcy,iridescence,assiduity,4,,,,,,,,,,,,,,,,,,,,,,,,,,,,,,,,,,,,,,
,,,,,,,,,,,,,,,90327,001,2022-04-24_00h56.33.761,SPAMnetsValid,2021.1.4,Win32,144.092219,,,,,,,,,,,,,,,,,,,,,,,,,,,,,,,,,,,,,,2,2.655,0,17,17,17,1,lush,stupid,luxurious,hazy,putrid,languishing,2,,,,,,,,,,,,,,,,,,,,,,,,,,,,,,,,,,,,,,
,,,,,,,,,,,,,,,90327,001,2022-04-24_00h56.33.761,SPAMnetsValid,2021.1.4,Win32,144.092219,,,,,,,,,,,,,,,,,,,,,,,,,,,,,,,,,,,,,,3,5.705,0,18,18,18,1,curtailment,expenditure,abandonment,abridgment,improvement,forgery,3,,,,,,,,,,,,,,,,,,,,,,,,,,,,,,,,,,,,,,
,,,,,,,,,,,,,,,90327,001,2022-04-24_00h56.33.761,SPAMnetsValid,2021.1.4,Win32,144.092219,,,,,,,,,,,,,,,,,,,,,,,,,,,,,,,,,,,,,,2,12.239,0,19,19,19,1,perversity,adversity,perviousness,travesty,waywardness,gentility,4,,,,,,,,,,,,,,,,,,,,,,,,,,,,,,,,,,,,,,
,,,,,,,,,,,,,,,90327,001,2022-04-24_00h56.33.761,SPAMnetsValid,2021.1.4,Win32,144.092219,,,,,,,,,,,,,,,,,,,,,,,,,,,,,,,,,,,,,,3,16.774,0,20,20,20,1,calumnious,complimentary,analogous,slanderous,tempestuous,magnanimous,3,,,,,,,,,,,,,,,,,,,,,,,,,,,,,,,,,,,,,,
,,,,,,,,,,,,,,,90327,001,2022-04-24_00h56.33.761,SPAMnetsValid,2021.1.4,Win32,144.092219,,,,,,,,,,,,,,,,,,,,,,,,,,,,,,,,,,,,,,4,9.219,0,21,21,21,1,illiberality,bigotry,imbecility,illegibility,cautery,immaturity,1,,,,,,,,,,,,,,,,,,,,,,,,,,,,,,,,,,,,,,
,,,,,,,,,,,,,,,90327,001,2022-04-24_00h56.33.761,SPAMnetsValid,2021.1.4,Win32,144.092219,,,,,,,,,,,,,,,,,,,,,,,,,,,,,,,,,,,,,,2,3.976,0,22,22,22,1,clabber,rejoice,gossip,curdle,crow,hobble,3,,,,,,,,,,,,,,,,,,,,,,,,,,,,,,,,,,,,,,
,,,,,,,,,,,,,,,90327,001,2022-04-24_00h56.33.761,SPAMnetsValid,2021.1.4,Win32,144.092219,,,,,,,,,,,,,,,,,,,,,,,,,,,,,,,,,,,,,,3,9.253,0,23,23,23,1,sedulousness,diligence,credulousness,seduction,perilousness,frankness,1,,,,,,,,,,,,,,,,,,,,,,,,,,,,,,,,,,,,,,
,,,,,,,,,,,,,,,90327,001,2022-04-24_00h56.33.761,SPAMnetsValid,2021.1.4,Win32,144.092219,,,,,,,,,,,,,,,,,,,,,,,,,,,,,,,,,,,,,,,,,,,,,,,,,,,,use it when lifting weights to minimize stress on certain areas of the body.  use it as a bed for a small pet.  ,pillow,0,0,0,0,1,,,,,,,,,,,,,,,,,,,,,,,,,,,,,,,
,,,,,,,,,,,,,,,90327,001,2022-04-24_00h56.33.761,SPAMnetsValid,2021.1.4,Win32,144.092219,,,,,,,,,,,,,,,,,,,,,,,,,,,,,,,,,,,,,,,,,,,,,,,,,,,,use as a bed for a small pet,pillow,1,0,1,0,1,,,,,,,,,,,,,,,,,,,,,,,,,,,,,,,
,,,,,,,,,,,,,,,90327,001,2022-04-24_00h56.33.761,SPAMnetsValid,2021.1.4,Win32,144.092219,,,,,,,,,,,,,,,,,,,,,,,,,,,,,,,,,,,,,,,,,,,,,,,,,,,,use a neck pillow to prop up a phone or other object,pillow,2,0,2,0,1,,,,,,,,,,,,,,,,,,,,,,,,,,,,,,,
,,,,,,,,,,,,,,,90327,001,2022-04-24_00h56.33.761,SPAMnetsValid,2021.1.4,Win32,144.092219,,,,,,,,,,,,,,,,,,,,,,,,,,,,,,,,,,,,,,,,,,,,,,,,,,,,,,,,,,,0,0,0,2,1,pillow,,,,,,,,,,,,,,,,,,,,,,,,,
,,,,,,,,,,,,,,,90327,001,2022-04-24_00h56.33.761,SPAMnetsValid,2021.1.4,Win32,144.092219,,,,,,,,,,,,,,,,,,,,,,,,,,,,,,,,,,,,,,,,,,,,,,,,,,,,wear it as a hat,bucket,0,0,0,0,1,,,,,,,,,,,,,,,,,,,,,,,,,,,,,,,
,,,,,,,,,,,,,,,90327,001,2022-04-24_00h56.33.761,SPAMnetsValid,2021.1.4,Win32,144.092219,,,,,,,,,,,,,,,,,,,,,,,,,,,,,,,,,,,,,,,,,,,,,,,,,,,,use it to collect rain,bucket,1,0,1,0,1,,,,,,,,,,,,,,,,,,,,,,,,,,,,,,,
,,,,,,,,,,,,,,,90327,001,2022-04-24_00h56.33.761,SPAMnetsValid,2021.1.4,Win32,144.092219,,,,,,,,,,,,,,,,,,,,,,,,,,,,,,,,,,,,,,,,,,,,,,,,,,,,use it as a flowerpot,bucket,2,0,2,0,1,,,,,,,,,,,,,,,,,,,,,,,,,,,,,,,
,,,,,,,,,,,,,,,90327,001,2022-04-24_00h56.33.761,SPAMnetsValid,2021.1.4,Win32,144.092219,,,,,,,,,,,,,,,,,,,,,,,,,,,,,,,,,,,,,,,,,,,,,,,,,,,,"cut it serially along its circumference and use the circular bands of metal to hold cylindrical objects, like paper towels, in place and keep them from unfurling",bucket,3,0,3,0,1,,,,,,,,,,,,,,,,,,,,,,,,,,,,,,,
,,,,,,,,,,,,,,,90327,001,2022-04-24_00h56.33.761,SPAMnetsValid,2021.1.4,Win32,144.092219,,,,,,,,,,,,,,,,,,,,,,,,,,,,,,,,,,,,,,,,,,,,,,,,,,,,use it as a mini basketball hoo,bucket,4,0,4,0,1,,,,,,,,,,,,,,,,,,,,,,,,,,,,,,,
,,,,,,,,,,,,,,,90327,001,2022-04-24_00h56.33.761,SPAMnetsValid,2021.1.4,Win32,144.092219,,,,,,,,,,,,,,,,,,,,,,,,,,,,,,,,,,,,,,,,,,,,,,,,,,,,,,,,,,,0,1,1,0,1,bucket,,,,,,,,,,,,,,,,,,,,,,,,,
,,,,,,,,,,,,,,,90327,001,2022-04-24_00h56.33.761,SPAMnetsValid,2021.1.4,Win32,144.092219,,,,,,,,,,,,,,,,,,,,,,,,,,,,,,,,,,,,,,,,,,,,,,,,,,,,use it like a match,candle,0,0,0,0,1,,,,,,,,,,,,,,,,,,,,,,,,,,,,,,,
,,,,,,,,,,,,,,,90327,001,2022-04-24_00h56.33.761,SPAMnetsValid,2021.1.4,Win32,144.092219,,,,,,,,,,,,,,,,,,,,,,,,,,,,,,,,,,,,,,,,,,,,,,,,,,,,use the melted wax to make a sculpture,candle,1,0,1,0,1,,,,,,,,,,,,,,,,,,,,,,,,,,,,,,,
,,,,,,,,,,,,,,,90327,001,2022-04-24_00h56.33.761,SPAMnetsValid,2021.1.4,Win32,144.092219,,,,,,,,,,,,,,,,,,,,,,,,,,,,,,,,,,,,,,,,,,,,,,,,,,,,carve it to make a sculpture,candle,2,0,2,0,1,,,,,,,,,,,,,,,,,,,,,,,,,,,,,,,
,,,,,,,,,,,,,,,90327,001,2022-04-24_00h56.33.761,SPAMnetsValid,2021.1.4,Win32,144.092219,,,,,,,,,,,,,,,,,,,,,,,,,,,,,,,,,,,,,,,,,,,,,,,,,,,,use multiple for juggling,candle,3,0,3,0,1,,,,,,,,,,,,,,,,,,,,,,,,,,,,,,,
,,,,,,,,,,,,,,,90327,001,2022-04-24_00h56.33.761,SPAMnetsValid,2021.1.4,Win32,144.092219,,,,,,,,,,,,,,,,,,,,,,,,,,,,,,,,,,,,,,,,,,,,,,,,,,,,use it to wax edges of obstacles when skateboarding; use it as skateboard wax,candle,4,0,4,0,1,,,,,,,,,,,,,,,,,,,,,,,,,,,,,,,
,,,,,,,,,,,,,,,90327,001,2022-04-24_00h56.33.761,SPAMnetsValid,2021.1.4,Win32,144.092219,,,,,,,,,,,,,,,,,,,,,,,,,,,,,,,,,,,,,,,,,,,,,,,,,,,,,,,,,,,0,2,2,1,1,candle,,,,,,,,,,,,,,,,,,,,,,,,,
,,,,,,,,,,,,,,,90327,001,2022-04-24_00h56.33.761,SPAMnetsValid,2021.1.4,Win32,144.092219,,,,,,,,,,,,,,,,,,,,,,,,,,,,,,,,,,,,,,,,,,,,,,,,,,,,,,,,,,,,,,,,,dog,Animals,0,0,0,0,1,,,,,,,,,,,,,,,,,,
,,,,,,,,,,,,,,,90327,001,2022-04-24_00h56.33.761,SPAMnetsValid,2021.1.4,Win32,144.092219,,,,,,,,,,,,,,,,,,,,,,,,,,,,,,,,,,,,,,,,,,,,,,,,,,,,,,,,,,,,,,,,,cat,Animals,1,0,1,0,1,,,,,,,,,,,,,,,,,,
,,,,,,,,,,,,,,,90327,001,2022-04-24_00h56.33.761,SPAMnetsValid,2021.1.4,Win32,144.092219,,,,,,,,,,,,,,,,,,,,,,,,,,,,,,,,,,,,,,,,,,,,,,,,,,,,,,,,,,,,,,,,,frog,Animals,2,0,2,0,1,,,,,,,,,,,,,,,,,,
,,,,,,,,,,,,,,,90327,001,2022-04-24_00h56.33.761,SPAMnetsValid,2021.1.4,Win32,144.092219,,,,,,,,,,,,,,,,,,,,,,,,,,,,,,,,,,,,,,,,,,,,,,,,,,,,,,,,,,,,,,,,,bear,Animals,3,0,3,0,1,,,,,,,,,,,,,,,,,,
,,,,,,,,,,,,,,,90327,001,2022-04-24_00h56.33.761,SPAMnetsValid,2021.1.4,Win32,144.092219,,,,,,,,,,,,,,,,,,,,,,,,,,,,,,,,,,,,,,,,,,,,,,,,,,,,,,,,,,,,,,,,,horse,Animals,4,0,4,0,1,,,,,,,,,,,,,,,,,,
,,,,,,,,,,,,,,,90327,001,2022-04-24_00h56.33.761,SPAMnetsValid,2021.1.4,Win32,144.092219,,,,,,,,,,,,,,,,,,,,,,,,,,,,,,,,,,,,,,,,,,,,,,,,,,,,,,,,,,,,,,,,,snake,Animals,5,0,5,0,1,,,,,,,,,,,,,,,,,,
,,,,,,,,,,,,,,,90327,001,2022-04-24_00h56.33.761,SPAMnetsValid,2021.1.4,Win32,144.092219,,,,,,,,,,,,,,,,,,,,,,,,,,,,,,,,,,,,,,,,,,,,,,,,,,,,,,,,,,,,,,,,,tiger,Animals,6,0,6,0,1,,,,,,,,,,,,,,,,,,
,,,,,,,,,,,,,,,90327,001,2022-04-24_00h56.33.761,SPAMnetsValid,2021.1.4,Win32,144.092219,,,,,,,,,,,,,,,,,,,,,,,,,,,,,,,,,,,,,,,,,,,,,,,,,,,,,,,,,,,,,,,,,iguana,Animals,7,0,7,0,1,,,,,,,,,,,,,,,,,,
,,,,,,,,,,,,,,,90327,001,2022-04-24_00h56.33.761,SPAMnetsValid,2021.1.4,Win32,144.092219,,,,,,,,,,,,,,,,,,,,,,,,,,,,,,,,,,,,,,,,,,,,,,,,,,,,,,,,,,,,,,,,,parrot,Animals,8,0,8,0,1,,,,,,,,,,,,,,,,,,
,,,,,,,,,,,,,,,90327,001,2022-04-24_00h56.33.761,SPAMnetsValid,2021.1.4,Win32,144.092219,,,,,,,,,,,,,,,,,,,,,,,,,,,,,,,,,,,,,,,,,,,,,,,,,,,,,,,,,,,,,,,,,seal,Animals,9,0,9,0,1,,,,,,,,,,,,,,,,,,
,,,,,,,,,,,,,,,90327,001,2022-04-24_00h56.33.761,SPAMnetsValid,2021.1.4,Win32,144.092219,,,,,,,,,,,,,,,,,,,,,,,,,,,,,,,,,,,,,,,,,,,,,,,,,,,,,,,,,,,,,,,,,whale,Animals,10,0,10,0,1,,,,,,,,,,,,,,,,,,
,,,,,,,,,,,,,,,90327,001,2022-04-24_00h56.33.761,SPAMnetsValid,2021.1.4,Win32,144.092219,,,,,,,,,,,,,,,,,,,,,,,,,,,,,,,,,,,,,,,,,,,,,,,,,,,,,,,,,,,,,,,,,hyena,Animals,11,0,11,0,1,,,,,,,,,,,,,,,,,,
,,,,,,,,,,,,,,,90327,001,2022-04-24_00h56.33.761,SPAMnetsValid,2021.1.4,Win32,144.092219,,,,,,,,,,,,,,,,,,,,,,,,,,,,,,,,,,,,,,,,,,,,,,,,,,,,,,,,,,,,,,,,,octopus,Animals,12,0,12,0,1,,,,,,,,,,,,,,,,,,
,,,,,,,,,,,,,,,90327,001,2022-04-24_00h56.33.761,SPAMnetsValid,2021.1.4,Win32,144.092219,,,,,,,,,,,,,,,,,,,,,,,,,,,,,,,,,,,,,,,,,,,,,,,,,,,,,,,,,,,,,,,,,sea star,Animals,13,0,13,0,1,,,,,,,,,,,,,,,,,,
,,,,,,,,,,,,,,,90327,001,2022-04-24_00h56.33.761,SPAMnetsValid,2021.1.4,Win32,144.092219,,,,,,,,,,,,,,,,,,,,,,,,,,,,,,,,,,,,,,,,,,,,,,,,,,,,,,,,,,,,,,,,,eel,Animals,14,0,14,0,1,,,,,,,,,,,,,,,,,,
,,,,,,,,,,,,,,,90327,001,2022-04-24_00h56.33.761,SPAMnetsValid,2021.1.4,Win32,144.092219,,,,,,,,,,,,,,,,,,,,,,,,,,,,,,,,,,,,,,,,,,,,,,,,,,,,,,,,,,,,,,,,,capybara,Animals,15,0,15,0,1,,,,,,,,,,,,,,,,,,
,,,,,,,,,,,,,,,90327,001,2022-04-24_00h56.33.761,SPAMnetsValid,2021.1.4,Win32,144.092219,,,,,,,,,,,,,,,,,,,,,,,,,,,,,,,,,,,,,,,,,,,,,,,,,,,,,,,,,,,,,,,,,scorpion,Animals,16,0,16,0,1,,,,,,,,,,,,,,,,,,
,,,,,,,,,,,,,,,90327,001,2022-04-24_00h56.33.761,SPAMnetsValid,2021.1.4,Win32,144.092219,,,,,,,,,,,,,,,,,,,,,,,,,,,,,,,,,,,,,,,,,,,,,,,,,,,,,,,,,,,,,,,,,spider,Animals,17,0,17,0,1,,,,,,,,,,,,,,,,,,
,,,,,,,,,,,,,,,90327,001,2022-04-24_00h56.33.761,SPAMnetsValid,2021.1.4,Win32,144.092219,,,,,,,,,,,,,,,,,,,,,,,,,,,,,,,,,,,,,,,,,,,,,,,,,,,,,,,,,,,,,,,,,mongoose,Animals,18,0,18,0,1,,,,,,,,,,,,,,,,,,
,,,,,,,,,,,,,,,90327,001,2022-04-24_00h56.33.761,SPAMnetsValid,2021.1.4,Win32,144.092219,,,,,,,,,,,,,,,,,,,,,,,,,,,,,,,,,,,,,,,,,,,,,,,,,,,,,,,,,,,,,,,,,wolf,Animals,19,0,19,0,1,,,,,,,,,,,,,,,,,,
,,,,,,,,,,,,,,,90327,001,2022-04-24_00h56.33.761,SPAMnetsValid,2021.1.4,Win32,144.092219,,,,,,,,,,,,,,,,,,,,,,,,,,,,,,,,,,,,,,,,,,,,,,,,,,,,,,,,,,,,,,,,,cheetah,Animals,20,0,20,0,1,,,,,,,,,,,,,,,,,,
,,,,,,,,,,,,,,,90327,001,2022-04-24_00h56.33.761,SPAMnetsValid,2021.1.4,Win32,144.092219,,,,,,,,,,,,,,,,,,,,,,,,,,,,,,,,,,,,,,,,,,,,,,,,,,,,,,,,,,,,,,,,,lion,Animals,21,0,21,0,1,,,,,,,,,,,,,,,,,,
,,,,,,,,,,,,,,,90327,001,2022-04-24_00h56.33.761,SPAMnetsValid,2021.1.4,Win32,144.092219,,,,,,,,,,,,,,,,,,,,,,,,,,,,,,,,,,,,,,,,,,,,,,,,,,,,,,,,,,,,,,,,,gazelle,Animals,22,0,22,0,1,,,,,,,,,,,,,,,,,,
,,,,,,,,,,,,,,,90327,001,2022-04-24_00h56.33.761,SPAMnetsValid,2021.1.4,Win32,144.092219,,,,,,,,,,,,,,,,,,,,,,,,,,,,,,,,,,,,,,,,,,,,,,,,,,,,,,,,,,,,,,,,,deer,Animals,23,0,23,0,1,,,,,,,,,,,,,,,,,,
,,,,,,,,,,,,,,,90327,001,2022-04-24_00h56.33.761,SPAMnetsValid,2021.1.4,Win32,144.092219,,,,,,,,,,,,,,,,,,,,,,,,,,,,,,,,,,,,,,,,,,,,,,,,,,,,,,,,,,,,,,,,,chipmunk,Animals,24,0,24,0,1,,,,,,,,,,,,,,,,,,
,,,,,,,,,,,,,,,90327,001,2022-04-24_00h56.33.761,SPAMnetsValid,2021.1.4,Win32,144.092219,,,,,,,,,,,,,,,,,,,,,,,,,,,,,,,,,,,,,,,,,,,,,,,,,,,,,,,,,,,,,,,,,groundhog,Animals,25,0,25,0,1,,,,,,,,,,,,,,,,,,
,,,,,,,,,,,,,,,90327,001,2022-04-24_00h56.33.761,SPAMnetsValid,2021.1.4,Win32,144.092219,,,,,,,,,,,,,,,,,,,,,,,,,,,,,,,,,,,,,,,,,,,,,,,,,,,,,,,,,,,,,,,,,prairie dog,Animals,26,0,26,0,1,,,,,,,,,,,,,,,,,,
,,,,,,,,,,,,,,,90327,001,2022-04-24_00h56.33.761,SPAMnetsValid,2021.1.4,Win32,144.092219,,,,,,,,,,,,,,,,,,,,,,,,,,,,,,,,,,,,,,,,,,,,,,,,,,,,,,,,,,,,,,,,,jellyfish,Animals,27,0,27,0,1,,,,,,,,,,,,,,,,,,
,,,,,,,,,,,,,,,90327,001,2022-04-24_00h56.33.761,SPAMnetsValid,2021.1.4,Win32,144.092219,,,,,,,,,,,,,,,,,,,,,,,,,,,,,,,,,,,,,,,,,,,,,,,,,,,,,,,,,,,,,,,,,mouse,Animals,28,0,28,0,1,,,,,,,,,,,,,,,,,,
,,,,,,,,,,,,,,,90327,001,2022-04-24_00h56.33.761,SPAMnetsValid,2021.1.4,Win32,144.092219,,,,,,,,,,,,,,,,,,,,,,,,,,,,,,,,,,,,,,,,,,,,,,,,,,,,,,,,,,,,,,,,,rat,Animals,29,0,29,0,1,,,,,,,,,,,,,,,,,,
,,,,,,,,,,,,,,,90327,001,2022-04-24_00h56.33.761,SPAMnetsValid,2021.1.4,Win32,144.092219,,,,,,,,,,,,,,,,,,,,,,,,,,,,,,,,,,,,,,,,,,,,,,,,,,,,,,,,,,,,,,,,,sugar glider,Animals,30,0,30,0,1,,,,,,,,,,,,,,,,,,
,,,,,,,,,,,,,,,90327,001,2022-04-24_00h56.33.761,SPAMnetsValid,2021.1.4,Win32,144.092219,,,,,,,,,,,,,,,,,,,,,,,,,,,,,,,,,,,,,,,,,,,,,,,,,,,,,,,,,,,,,,,,,zebra,Animals,31,0,31,0,1,,,,,,,,,,,,,,,,,,
,,,,,,,,,,,,,,,90327,001,2022-04-24_00h56.33.761,SPAMnetsValid,2021.1.4,Win32,144.092219,,,,,,,,,,,,,,,,,,,,,,,,,,,,,,,,,,,,,,,,,,,,,,,,,,,,,,,,,,,,,,,,,giraffe,Animals,32,0,32,0,1,,,,,,,,,,,,,,,,,,
,,,,,,,,,,,,,,,90327,001,2022-04-24_00h56.33.761,SPAMnetsValid,2021.1.4,Win32,144.092219,,,,,,,,,,,,,,,,,,,,,,,,,,,,,,,,,,,,,,,,,,,,,,,,,,,,,,,,,,,,,,,,,monkey,Animals,33,0,33,0,1,,,,,,,,,,,,,,,,,,
,,,,,,,,,,,,,,,90327,001,2022-04-24_00h56.33.761,SPAMnetsValid,2021.1.4,Win32,144.092219,,,,,,,,,,,,,,,,,,,,,,,,,,,,,,,,,,,,,,,,,,,,,,,,,,,,,,,,,,,,,,,,,ape,Animals,34,0,34,0,1,,,,,,,,,,,,,,,,,,
,,,,,,,,,,,,,,,90327,001,2022-04-24_00h56.33.761,SPAMnetsValid,2021.1.4,Win32,144.092219,,,,,,,,,,,,,,,,,,,,,,,,,,,,,,,,,,,,,,,,,,,,,,,,,,,,,,,,,,,,,,,,,pony,Animals,35,0,35,0,1,,,,,,,,,,,,,,,,,,
,,,,,,,,,,,,,,,90327,001,2022-04-24_00h56.33.761,SPAMnetsValid,2021.1.4,Win32,144.092219,,,,,,,,,,,,,,,,,,,,,,,,,,,,,,,,,,,,,,,,,,,,,,,,,,,,,,,,,,,,,,,,,,,,,,,,0,0,0,0,1,Animals,,,,,,,,,,,,
,,,,,,,,,,,,,,,90327,001,2022-04-24_00h56.33.761,SPAMnetsValid,2021.1.4,Win32,144.092219,,,,,,,,,,,,,,,,,,,,,,,,,,,,,,,,,,,,,,,,,,,,,,,,,,,,,,,,,,,,,,,,,,,,,,,,,,,,,,4,5.021,0,0,0,0,1,"I enjoy concentrating on a fantasy or daydream and exploring all its possibilities, letting it grow and develop.",0,1,,
,,,,,,,,,,,,,,,90327,001,2022-04-24_00h56.33.761,SPAMnetsValid,2021.1.4,Win32,144.092219,,,,,,,,,,,,,,,,,,,,,,,,,,,,,,,,,,,,,,,,,,,,,,,,,,,,,,,,,,,,,,,,,,,,,,,,,,,,,,4,1.695,0,1,1,1,1,I think it's interesting to learn and develop new hobbies.,0,2,,
,,,,,,,,,,,,,,,90327,001,2022-04-24_00h56.33.761,SPAMnetsValid,2021.1.4,Win32,144.092219,,,,,,,,,,,,,,,,,,,,,,,,,,,,,,,,,,,,,,,,,,,,,,,,,,,,,,,,,,,,,,,,,,,,,,,,,,,,,,4,1.733,0,2,2,2,1,I am intrigued by the patterns I find in art and nature.,0,3,,
,,,,,,,,,,,,,,,90327,001,2022-04-24_00h56.33.761,SPAMnetsValid,2021.1.4,Win32,144.092219,,,,,,,,,,,,,,,,,,,,,,,,,,,,,,,,,,,,,,,,,,,,,,,,,,,,,,,,,,,,,,,,,,,,,,,,,,,,,,2,5.788,0,3,3,3,1,I believe letting students hear controversial speakers can only confuse and mislead them.,1,4,,
,,,,,,,,,,,,,,,90327,001,2022-04-24_00h56.33.761,SPAMnetsValid,2021.1.4,Win32,144.092219,,,,,,,,,,,,,,,,,,,,,,,,,,,,,,,,,,,,,,,,,,,,,,,,,,,,,,,,,,,,,,,,,,,,,,,,,,,,,,4,3.1,0,4,4,4,1,Poetry has little or no effect on me.,1,5,,
,,,,,,,,,,,,,,,90327,001,2022-04-24_00h56.33.761,SPAMnetsValid,2021.1.4,Win32,144.092219,,,,,,,,,,,,,,,,,,,,,,,,,,,,,,,,,,,,,,,,,,,,,,,,,,,,,,,,,,,,,,,,,,,,,,,,,,,,,,1,2.414,0,5,5,5,1,I would have difficulty just letting my mind wander without control or guidance.,1,6,,
,,,,,,,,,,,,,,,90327,001,2022-04-24_00h56.33.761,SPAMnetsValid,2021.1.4,Win32,144.092219,,,,,,,,,,,,,,,,,,,,,,,,,,,,,,,,,,,,,,,,,,,,,,,,,,,,,,,,,,,,,,,,,,,,,,,,,,,,,,1,4.017,0,6,6,6,1,I seldom notice the moods or feelings that different environments produce.,1,7,,
,,,,,,,,,,,,,,,90327,001,2022-04-24_00h56.33.761,SPAMnetsValid,2021.1.4,Win32,144.092219,,,,,,,,,,,,,,,,,,,,,,,,,,,,,,,,,,,,,,,,,,,,,,,,,,,,,,,,,,,,,,,,,,,,,,,,,,,,,,5,2.184,0,7,7,7,1,I experience a wide range of emotions or feelings.,0,8,,
,,,,,,,,,,,,,,,90327,001,2022-04-24_00h56.33.761,SPAMnetsValid,2021.1.4,Win32,144.092219,,,,,,,,,,,,,,,,,,,,,,,,,,,,,,,,,,,,,,,,,,,,,,,,,,,,,,,,,,,,,,,,,,,,,,,,,,,,,,4,2.956,0,8,8,8,1,"Sometimes when I am reading poetry or looking at a work of art, I feel a chill or wave of excitement.",0,9,,
,,,,,,,,,,,,,,,90327,001,2022-04-24_00h56.33.761,SPAMnetsValid,2021.1.4,Win32,144.092219,,,,,,,,,,,,,,,,,,,,,,,,,,,,,,,,,,,,,,,,,,,,,,,,,,,,,,,,,,,,,,,,,,,,,,,,,,,,,,1,4.462,0,9,9,9,1,I have little interest in speculating on the nature of the universe or the human condition.,1,10,,
,,,,,,,,,,,,,,,90327,001,2022-04-24_00h56.33.761,SPAMnetsValid,2021.1.4,Win32,144.092219,,,,,,,,,,,,,,,,,,,,,,,,,,,,,,,,,,,,,,,,,,,,,,,,,,,,,,,,,,,,,,,,,,,,,,,,,,,,,,5,1.907,0,10,10,10,1,I have a lot of intellectual curiosity.,0,11,,
,,,,,,,,,,,,,,,90327,001,2022-04-24_00h56.33.761,SPAMnetsValid,2021.1.4,Win32,144.092219,,,,,,,,,,,,,,,,,,,,,,,,,,,,,,,,,,,,,,,,,,,,,,,,,,,,,,,,,,,,,,,,,,,,,,,,,,,,,,4,2.561,0,11,11,11,1,I often enjoy playing with theories or abstract ideas.,0,12,,
,,,,,,,,,,,,,,,90327,001,2022-04-24_00h56.33.761,SPAMnetsValid,2021.1.4,Win32,144.092219,,,,,,,,,,,,,,,,,,,,,,,,,,,,,,,,,,,,,,,,,,,,,,,,,,,,,,,,,,,,,,,,,,,,,,,,,,,,,,,,,,,,,,,,return,3.951
