key_resp_3.keys,key_resp_3.rt,slider.response,slider.rt,rjt_rating,rjt_RT,trials_22.thisRepN,trials_22.thisTrialN,trials_22.thisN,trials_22.thisIndex,trials_22.ran,rjt_order,word1,word2,attention,participant,session,date,expName,psychopyVersion,OS,frameRate,trials_99.thisRepN,trials_99.thisTrialN,trials_99.thisN,trials_99.thisIndex,trials_99.ran,trials_5.thisRepN,trials_5.thisTrialN,trials_5.thisN,trials_5.thisIndex,trials_5.ran,repOne,repTwo,slider_2.response,slider_2.rt,trials_24.thisRepN,trials_24.thisTrialN,trials_24.thisN,trials_24.thisIndex,trials_24.ran,trials_4.thisRepN,trials_4.thisTrialN,trials_4.thisN,trials_4.thisIndex,trials_4.ran,slider_extend_2.response,slider_extend_2.rt,trials_6.thisRepN,trials_6.thisTrialN,trials_6.thisN,trials_6.thisIndex,trials_6.ran,vCue2,R1,R2,R3,R4,correct,sliderVocab.response,sliderVocab.rt,trials_7.thisRepN,trials_7.thisTrialN,trials_7.thisN,trials_7.thisIndex,trials_7.ran,VocabCue,VR1,VR2,VR3,VR4,VR5,VocabCorrect,AUT_resp,AUT_label,trials.thisRepN,trials.thisTrialN,trials.thisN,trials.thisIndex,trials.ran,trials_2.thisRepN,trials_2.thisTrialN,trials_2.thisN,trials_2.thisIndex,trials_2.ran,aut_prompt,VF_response,VF_tag,trials_16.thisRepN,trials_16.thisTrialN,trials_16.thisN,trials_16.thisIndex,trials_16.ran,trials_17.thisRepN,trials_17.thisTrialN,trials_17.thisN,trials_17.thisIndex,trials_17.ran,VFcond,open_slider.response,open_slider.rt,trials_3.thisRepN,trials_3.thisTrialN,trials_3.thisN,trials_3.thisIndex,trials_3.ran,OpenQ,Rev,OPEN_ORDER,key_resp_2.keys,key_resp_2.rt
return,11.9795,5,12.36,5,12.36,0,0,0,54,1,28,cake,melon,,90329,001,2022-04-29_11h47.30.771,SPAMnetsValid,2021.1.4,Win32,59.97720866,,,,,,,,,,,,,,,,,,,,,,,,,,,,,,,,,,,,,,,,,,,,,,,,,,,,,,,,,,,,,,,,,,,,,,,,,,,,,,,,,,,,,,,,,
,,5,3.828,5,3.828,0,1,1,24,1,17,carrot,melon,,90329,001,2022-04-29_11h47.30.771,SPAMnetsValid,2021.1.4,Win32,59.97720866,,,,,,,,,,,,,,,,,,,,,,,,,,,,,,,,,,,,,,,,,,,,,,,,,,,,,,,,,,,,,,,,,,,,,,,,,,,,,,,,,,,,,,,,,
,,3,2.307,3,2.307,0,2,2,12,1,67,flower,yogurt,,90329,001,2022-04-29_11h47.30.771,SPAMnetsValid,2021.1.4,Win32,59.97720866,,,,,,,,,,,,,,,,,,,,,,,,,,,,,,,,,,,,,,,,,,,,,,,,,,,,,,,,,,,,,,,,,,,,,,,,,,,,,,,,,,,,,,,,,
,,7,2.8069,7,2.8069,0,3,3,51,1,47,onion,tomato,,90329,001,2022-04-29_11h47.30.771,SPAMnetsValid,2021.1.4,Win32,59.97720866,,,,,,,,,,,,,,,,,,,,,,,,,,,,,,,,,,,,,,,,,,,,,,,,,,,,,,,,,,,,,,,,,,,,,,,,,,,,,,,,,,,,,,,,,
,,5,1.6732,5,1.6732,0,4,4,68,1,24,cookie,tomato,,90329,001,2022-04-29_11h47.30.771,SPAMnetsValid,2021.1.4,Win32,59.97720866,,,,,,,,,,,,,,,,,,,,,,,,,,,,,,,,,,,,,,,,,,,,,,,,,,,,,,,,,,,,,,,,,,,,,,,,,,,,,,,,,,,,,,,,,
,,7,2.724,7,2.724,0,5,5,96,1,82,cake,kitchen,,90329,001,2022-04-29_11h47.30.771,SPAMnetsValid,2021.1.4,Win32,59.97720866,,,,,,,,,,,,,,,,,,,,,,,,,,,,,,,,,,,,,,,,,,,,,,,,,,,,,,,,,,,,,,,,,,,,,,,,,,,,,,,,,,,,,,,,,
,,1,1.624400001,1,1.624400001,0,6,6,16,1,14,broom,cookie,,90329,001,2022-04-29_11h47.30.771,SPAMnetsValid,2021.1.4,Win32,59.97720866,,,,,,,,,,,,,,,,,,,,,,,,,,,,,,,,,,,,,,,,,,,,,,,,,,,,,,,,,,,,,,,,,,,,,,,,,,,,,,,,,,,,,,,,,
,,8,2.349799999,8,2.349799999,0,7,7,52,1,4,chocolate,pretzel,,90329,001,2022-04-29_11h47.30.771,SPAMnetsValid,2021.1.4,Win32,59.97720866,,,,,,,,,,,,,,,,,,,,,,,,,,,,,,,,,,,,,,,,,,,,,,,,,,,,,,,,,,,,,,,,,,,,,,,,,,,,,,,,,,,,,,,,,
,,2,3.540200001,2,3.540200001,0,8,8,33,1,32,cake,microwave,,90329,001,2022-04-29_11h47.30.771,SPAMnetsValid,2021.1.4,Win32,59.97720866,,,,,,,,,,,,,,,,,,,,,,,,,,,,,,,,,,,,,,,,,,,,,,,,,,,,,,,,,,,,,,,,,,,,,,,,,,,,,,,,,,,,,,,,,
,,1,1.4729,1,1.4729,0,9,9,79,1,86,oven,rose,,90329,001,2022-04-29_11h47.30.771,SPAMnetsValid,2021.1.4,Win32,59.97720866,,,,,,,,,,,,,,,,,,,,,,,,,,,,,,,,,,,,,,,,,,,,,,,,,,,,,,,,,,,,,,,,,,,,,,,,,,,,,,,,,,,,,,,,,
,,5,4.8899,5,4.8899,0,10,10,38,1,88,cactus,melon,,90329,001,2022-04-29_11h47.30.771,SPAMnetsValid,2021.1.4,Win32,59.97720866,,,,,,,,,,,,,,,,,,,,,,,,,,,,,,,,,,,,,,,,,,,,,,,,,,,,,,,,,,,,,,,,,,,,,,,,,,,,,,,,,,,,,,,,,
,,4,1.691599999,4,1.691599999,0,11,11,55,1,1,rose,yogurt,,90329,001,2022-04-29_11h47.30.771,SPAMnetsValid,2021.1.4,Win32,59.97720866,,,,,,,,,,,,,,,,,,,,,,,,,,,,,,,,,,,,,,,,,,,,,,,,,,,,,,,,,,,,,,,,,,,,,,,,,,,,,,,,,,,,,,,,,
,,1,2.7294,1,2.7294,0,12,12,8,1,43,chocolate,tomato,,90329,001,2022-04-29_11h47.30.771,SPAMnetsValid,2021.1.4,Win32,59.97720866,,,,,,,,,,,,,,,,,,,,,,,,,,,,,,,,,,,,,,,,,,,,,,,,,,,,,,,,,,,,,,,,,,,,,,,,,,,,,,,,,,,,,,,,,
,,2,2.5544,2,2.5544,0,13,13,15,1,48,flower,oven,,90329,001,2022-04-29_11h47.30.771,SPAMnetsValid,2021.1.4,Win32,59.97720866,,,,,,,,,,,,,,,,,,,,,,,,,,,,,,,,,,,,,,,,,,,,,,,,,,,,,,,,,,,,,,,,,,,,,,,,,,,,,,,,,,,,,,,,,
,,8,1.6574,8,1.6574,0,14,14,95,1,52,carrot,tomato,,90329,001,2022-04-29_11h47.30.771,SPAMnetsValid,2021.1.4,Win32,59.97720866,,,,,,,,,,,,,,,,,,,,,,,,,,,,,,,,,,,,,,,,,,,,,,,,,,,,,,,,,,,,,,,,,,,,,,,,,,,,,,,,,,,,,,,,,
,,1,1.1456,1,1.1456,0,15,15,63,1,21,cake,onion,,90329,001,2022-04-29_11h47.30.771,SPAMnetsValid,2021.1.4,Win32,59.97720866,,,,,,,,,,,,,,,,,,,,,,,,,,,,,,,,,,,,,,,,,,,,,,,,,,,,,,,,,,,,,,,,,,,,,,,,,,,,,,,,,,,,,,,,,
,,8,2.6256,8,2.6256,0,16,16,76,1,36,broom,kitchen,,90329,001,2022-04-29_11h47.30.771,SPAMnetsValid,2021.1.4,Win32,59.97720866,,,,,,,,,,,,,,,,,,,,,,,,,,,,,,,,,,,,,,,,,,,,,,,,,,,,,,,,,,,,,,,,,,,,,,,,,,,,,,,,,,,,,,,,,
,,1,1.2956,1,1.2956,0,17,17,18,1,85,cake,tree,,90329,001,2022-04-29_11h47.30.771,SPAMnetsValid,2021.1.4,Win32,59.97720866,,,,,,,,,,,,,,,,,,,,,,,,,,,,,,,,,,,,,,,,,,,,,,,,,,,,,,,,,,,,,,,,,,,,,,,,,,,,,,,,,,,,,,,,,
,,1,1.323,1,1.323,0,18,18,59,1,8,broom,melon,,90329,001,2022-04-29_11h47.30.771,SPAMnetsValid,2021.1.4,Win32,59.97720866,,,,,,,,,,,,,,,,,,,,,,,,,,,,,,,,,,,,,,,,,,,,,,,,,,,,,,,,,,,,,,,,,,,,,,,,,,,,,,,,,,,,,,,,,
,,6,1.6269,6,1.6269,0,19,19,39,1,15,onion,oven,,90329,001,2022-04-29_11h47.30.771,SPAMnetsValid,2021.1.4,Win32,59.97720866,,,,,,,,,,,,,,,,,,,,,,,,,,,,,,,,,,,,,,,,,,,,,,,,,,,,,,,,,,,,,,,,,,,,,,,,,,,,,,,,,,,,,,,,,
,,7,1.355299999,7,1.355299999,0,20,20,80,1,61,strawberry,tomato,,90329,001,2022-04-29_11h47.30.771,SPAMnetsValid,2021.1.4,Win32,59.97720866,,,,,,,,,,,,,,,,,,,,,,,,,,,,,,,,,,,,,,,,,,,,,,,,,,,,,,,,,,,,,,,,,,,,,,,,,,,,,,,,,,,,,,,,,
,,3,2.7314,3,2.7314,0,21,21,69,1,45,onion,pretzel,,90329,001,2022-04-29_11h47.30.771,SPAMnetsValid,2021.1.4,Win32,59.97720866,,,,,,,,,,,,,,,,,,,,,,,,,,,,,,,,,,,,,,,,,,,,,,,,,,,,,,,,,,,,,,,,,,,,,,,,,,,,,,,,,,,,,,,,,
,,5,1.9743,5,1.9743,0,22,22,81,1,60,cactus,onion,,90329,001,2022-04-29_11h47.30.771,SPAMnetsValid,2021.1.4,Win32,59.97720866,,,,,,,,,,,,,,,,,,,,,,,,,,,,,,,,,,,,,,,,,,,,,,,,,,,,,,,,,,,,,,,,,,,,,,,,,,,,,,,,,,,,,,,,,
,,9,1.191,9,1.191,0,23,23,53,1,192,microwave,microwave,CHECK,90329,001,2022-04-29_11h47.30.771,SPAMnetsValid,2021.1.4,Win32,59.97720866,,,,,,,,,,,,,,,,,,,,,,,,,,,,,,,,,,,,,,,,,,,,,,,,,,,,,,,,,,,,,,,,,,,,,,,,,,,,,,,,,,,,,,,,,
,,4,1.270900001,4,1.270900001,0,24,24,3,1,49,flower,strawberry,,90329,001,2022-04-29_11h47.30.771,SPAMnetsValid,2021.1.4,Win32,59.97720866,,,,,,,,,,,,,,,,,,,,,,,,,,,,,,,,,,,,,,,,,,,,,,,,,,,,,,,,,,,,,,,,,,,,,,,,,,,,,,,,,,,,,,,,,
,,6,1.1814,6,1.1814,0,25,25,13,1,26,tomato,yogurt,,90329,001,2022-04-29_11h47.30.771,SPAMnetsValid,2021.1.4,Win32,59.97720866,,,,,,,,,,,,,,,,,,,,,,,,,,,,,,,,,,,,,,,,,,,,,,,,,,,,,,,,,,,,,,,,,,,,,,,,,,,,,,,,,,,,,,,,,
,,6,2.1673,6,2.1673,0,26,26,73,1,50,carrot,rose,,90329,001,2022-04-29_11h47.30.771,SPAMnetsValid,2021.1.4,Win32,59.97720866,,,,,,,,,,,,,,,,,,,,,,,,,,,,,,,,,,,,,,,,,,,,,,,,,,,,,,,,,,,,,,,,,,,,,,,,,,,,,,,,,,,,,,,,,
,,6,1.7459,6,1.7459,0,27,27,35,1,55,tomato,tree,,90329,001,2022-04-29_11h47.30.771,SPAMnetsValid,2021.1.4,Win32,59.97720866,,,,,,,,,,,,,,,,,,,,,,,,,,,,,,,,,,,,,,,,,,,,,,,,,,,,,,,,,,,,,,,,,,,,,,,,,,,,,,,,,,,,,,,,,
,,7,2.740099999,7,2.740099999,0,28,28,36,1,12,cookie,yogurt,,90329,001,2022-04-29_11h47.30.771,SPAMnetsValid,2021.1.4,Win32,59.97720866,,,,,,,,,,,,,,,,,,,,,,,,,,,,,,,,,,,,,,,,,,,,,,,,,,,,,,,,,,,,,,,,,,,,,,,,,,,,,,,,,,,,,,,,,
,,7,1.2811,7,1.2811,0,29,29,48,1,66,melon,yogurt,,90329,001,2022-04-29_11h47.30.771,SPAMnetsValid,2021.1.4,Win32,59.97720866,,,,,,,,,,,,,,,,,,,,,,,,,,,,,,,,,,,,,,,,,,,,,,,,,,,,,,,,,,,,,,,,,,,,,,,,,,,,,,,,,,,,,,,,,
,,9,1.3723,9,1.3723,0,30,30,10,1,191,cake,cake,CHECK,90329,001,2022-04-29_11h47.30.771,SPAMnetsValid,2021.1.4,Win32,59.97720866,,,,,,,,,,,,,,,,,,,,,,,,,,,,,,,,,,,,,,,,,,,,,,,,,,,,,,,,,,,,,,,,,,,,,,,,,,,,,,,,,,,,,,,,,
,,9,1.432400001,9,1.432400001,0,31,31,30,1,3,cake,oven,,90329,001,2022-04-29_11h47.30.771,SPAMnetsValid,2021.1.4,Win32,59.97720866,,,,,,,,,,,,,,,,,,,,,,,,,,,,,,,,,,,,,,,,,,,,,,,,,,,,,,,,,,,,,,,,,,,,,,,,,,,,,,,,,,,,,,,,,
,,1,5.9576,1,5.9576,0,32,32,31,1,33,oven,yogurt,,90329,001,2022-04-29_11h47.30.771,SPAMnetsValid,2021.1.4,Win32,59.97720866,,,,,,,,,,,,,,,,,,,,,,,,,,,,,,,,,,,,,,,,,,,,,,,,,,,,,,,,,,,,,,,,,,,,,,,,,,,,,,,,,,,,,,,,,
,,2,1.549299999,2,1.549299999,0,33,33,32,1,40,broom,cake,,90329,001,2022-04-29_11h47.30.771,SPAMnetsValid,2021.1.4,Win32,59.97720866,,,,,,,,,,,,,,,,,,,,,,,,,,,,,,,,,,,,,,,,,,,,,,,,,,,,,,,,,,,,,,,,,,,,,,,,,,,,,,,,,,,,,,,,,
,,6,2.0473,6,2.0473,0,34,34,45,1,10,flower,onion,,90329,001,2022-04-29_11h47.30.771,SPAMnetsValid,2021.1.4,Win32,59.97720866,,,,,,,,,,,,,,,,,,,,,,,,,,,,,,,,,,,,,,,,,,,,,,,,,,,,,,,,,,,,,,,,,,,,,,,,,,,,,,,,,,,,,,,,,
,,6,1.5222,6,1.5222,0,35,35,77,1,7,melon,tree,,90329,001,2022-04-29_11h47.30.771,SPAMnetsValid,2021.1.4,Win32,59.97720866,,,,,,,,,,,,,,,,,,,,,,,,,,,,,,,,,,,,,,,,,,,,,,,,,,,,,,,,,,,,,,,,,,,,,,,,,,,,,,,,,,,,,,,,,
,,2,2.2631,2,2.2631,0,36,36,74,1,70,chocolate,onion,,90329,001,2022-04-29_11h47.30.771,SPAMnetsValid,2021.1.4,Win32,59.97720866,,,,,,,,,,,,,,,,,,,,,,,,,,,,,,,,,,,,,,,,,,,,,,,,,,,,,,,,,,,,,,,,,,,,,,,,,,,,,,,,,,,,,,,,,
,,5,2.263,5,2.263,0,37,37,37,1,58,garden,oven,,90329,001,2022-04-29_11h47.30.771,SPAMnetsValid,2021.1.4,Win32,59.97720866,,,,,,,,,,,,,,,,,,,,,,,,,,,,,,,,,,,,,,,,,,,,,,,,,,,,,,,,,,,,,,,,,,,,,,,,,,,,,,,,,,,,,,,,,
,,1,2.6274,1,2.6274,0,38,38,88,1,92,broom,flower,,90329,001,2022-04-29_11h47.30.771,SPAMnetsValid,2021.1.4,Win32,59.97720866,,,,,,,,,,,,,,,,,,,,,,,,,,,,,,,,,,,,,,,,,,,,,,,,,,,,,,,,,,,,,,,,,,,,,,,,,,,,,,,,,,,,,,,,,
,,1,1.0908,1,1.0908,0,39,39,40,1,74,broom,pretzel,,90329,001,2022-04-29_11h47.30.771,SPAMnetsValid,2021.1.4,Win32,59.97720866,,,,,,,,,,,,,,,,,,,,,,,,,,,,,,,,,,,,,,,,,,,,,,,,,,,,,,,,,,,,,,,,,,,,,,,,,,,,,,,,,,,,,,,,,
,,5,2.0029,5,2.0029,0,40,40,90,1,95,broom,refrigerator,,90329,001,2022-04-29_11h47.30.771,SPAMnetsValid,2021.1.4,Win32,59.97720866,,,,,,,,,,,,,,,,,,,,,,,,,,,,,,,,,,,,,,,,,,,,,,,,,,,,,,,,,,,,,,,,,,,,,,,,,,,,,,,,,,,,,,,,,
,,3,1.8973,3,1.8973,0,41,41,6,1,87,carrot,yogurt,,90329,001,2022-04-29_11h47.30.771,SPAMnetsValid,2021.1.4,Win32,59.97720866,,,,,,,,,,,,,,,,,,,,,,,,,,,,,,,,,,,,,,,,,,,,,,,,,,,,,,,,,,,,,,,,,,,,,,,,,,,,,,,,,,,,,,,,,
,,1,1.324,1,1.324,0,42,42,56,1,78,cookie,rose,,90329,001,2022-04-29_11h47.30.771,SPAMnetsValid,2021.1.4,Win32,59.97720866,,,,,,,,,,,,,,,,,,,,,,,,,,,,,,,,,,,,,,,,,,,,,,,,,,,,,,,,,,,,,,,,,,,,,,,,,,,,,,,,,,,,,,,,,
,,6,3.7733,6,3.7733,0,43,43,86,1,51,onion,strawberry,,90329,001,2022-04-29_11h47.30.771,SPAMnetsValid,2021.1.4,Win32,59.97720866,,,,,,,,,,,,,,,,,,,,,,,,,,,,,,,,,,,,,,,,,,,,,,,,,,,,,,,,,,,,,,,,,,,,,,,,,,,,,,,,,,,,,,,,,
,,1,1.5703,1,1.5703,0,44,44,46,1,41,broom,cactus,,90329,001,2022-04-29_11h47.30.771,SPAMnetsValid,2021.1.4,Win32,59.97720866,,,,,,,,,,,,,,,,,,,,,,,,,,,,,,,,,,,,,,,,,,,,,,,,,,,,,,,,,,,,,,,,,,,,,,,,,,,,,,,,,,,,,,,,,
,,4,1.848,4,1.848,0,45,45,94,1,68,flower,tomato,,90329,001,2022-04-29_11h47.30.771,SPAMnetsValid,2021.1.4,Win32,59.97720866,,,,,,,,,,,,,,,,,,,,,,,,,,,,,,,,,,,,,,,,,,,,,,,,,,,,,,,,,,,,,,,,,,,,,,,,,,,,,,,,,,,,,,,,,
,,8,1.473900001,8,1.473900001,0,46,46,78,1,30,cookie,pretzel,,90329,001,2022-04-29_11h47.30.771,SPAMnetsValid,2021.1.4,Win32,59.97720866,,,,,,,,,,,,,,,,,,,,,,,,,,,,,,,,,,,,,,,,,,,,,,,,,,,,,,,,,,,,,,,,,,,,,,,,,,,,,,,,,,,,,,,,,
,,3,2.1154,3,2.1154,0,47,47,62,1,18,onion,refrigerator,,90329,001,2022-04-29_11h47.30.771,SPAMnetsValid,2021.1.4,Win32,59.97720866,,,,,,,,,,,,,,,,,,,,,,,,,,,,,,,,,,,,,,,,,,,,,,,,,,,,,,,,,,,,,,,,,,,,,,,,,,,,,,,,,,,,,,,,,
,,8,2.5401,8,2.5401,0,48,48,21,1,56,cactus,tree,,90329,001,2022-04-29_11h47.30.771,SPAMnetsValid,2021.1.4,Win32,59.97720866,,,,,,,,,,,,,,,,,,,,,,,,,,,,,,,,,,,,,,,,,,,,,,,,,,,,,,,,,,,,,,,,,,,,,,,,,,,,,,,,,,,,,,,,,
,,1,1.373799999,1,1.373799999,0,49,49,4,1,83,broom,carrot,,90329,001,2022-04-29_11h47.30.771,SPAMnetsValid,2021.1.4,Win32,59.97720866,,,,,,,,,,,,,,,,,,,,,,,,,,,,,,,,,,,,,,,,,,,,,,,,,,,,,,,,,,,,,,,,,,,,,,,,,,,,,,,,,,,,,,,,,
,,2,1.8229,2,1.8229,0,50,50,14,1,64,chocolate,garden,,90329,001,2022-04-29_11h47.30.771,SPAMnetsValid,2021.1.4,Win32,59.97720866,,,,,,,,,,,,,,,,,,,,,,,,,,,,,,,,,,,,,,,,,,,,,,,,,,,,,,,,,,,,,,,,,,,,,,,,,,,,,,,,,,,,,,,,,
,,1,1.2302,1,1.2302,0,51,51,1,1,31,cactus,pretzel,,90329,001,2022-04-29_11h47.30.771,SPAMnetsValid,2021.1.4,Win32,59.97720866,,,,,,,,,,,,,,,,,,,,,,,,,,,,,,,,,,,,,,,,,,,,,,,,,,,,,,,,,,,,,,,,,,,,,,,,,,,,,,,,,,,,,,,,,
,,6,1.624299999,6,1.624299999,0,52,52,93,1,63,cake,cookie,,90329,001,2022-04-29_11h47.30.771,SPAMnetsValid,2021.1.4,Win32,59.97720866,,,,,,,,,,,,,,,,,,,,,,,,,,,,,,,,,,,,,,,,,,,,,,,,,,,,,,,,,,,,,,,,,,,,,,,,,,,,,,,,,,,,,,,,,
,,1,1.2889,1,1.2889,0,53,53,5,1,13,broom,yogurt,,90329,001,2022-04-29_11h47.30.771,SPAMnetsValid,2021.1.4,Win32,59.97720866,,,,,,,,,,,,,,,,,,,,,,,,,,,,,,,,,,,,,,,,,,,,,,,,,,,,,,,,,,,,,,,,,,,,,,,,,,,,,,,,,,,,,,,,,
,,8,1.4897,8,1.4897,0,54,54,44,1,25,carrot,onion,,90329,001,2022-04-29_11h47.30.771,SPAMnetsValid,2021.1.4,Win32,59.97720866,,,,,,,,,,,,,,,,,,,,,,,,,,,,,,,,,,,,,,,,,,,,,,,,,,,,,,,,,,,,,,,,,,,,,,,,,,,,,,,,,,,,,,,,,
,,1,1.5065,1,1.5065,0,55,55,65,1,46,garden,yogurt,,90329,001,2022-04-29_11h47.30.771,SPAMnetsValid,2021.1.4,Win32,59.97720866,,,,,,,,,,,,,,,,,,,,,,,,,,,,,,,,,,,,,,,,,,,,,,,,,,,,,,,,,,,,,,,,,,,,,,,,,,,,,,,,,,,,,,,,,
,,1,1.6985,1,1.6985,0,56,56,61,1,71,broom,rose,,90329,001,2022-04-29_11h47.30.771,SPAMnetsValid,2021.1.4,Win32,59.97720866,,,,,,,,,,,,,,,,,,,,,,,,,,,,,,,,,,,,,,,,,,,,,,,,,,,,,,,,,,,,,,,,,,,,,,,,,,,,,,,,,,,,,,,,,
,,3,2.6077,3,2.6077,0,57,57,28,1,84,oven,tomato,,90329,001,2022-04-29_11h47.30.771,SPAMnetsValid,2021.1.4,Win32,59.97720866,,,,,,,,,,,,,,,,,,,,,,,,,,,,,,,,,,,,,,,,,,,,,,,,,,,,,,,,,,,,,,,,,,,,,,,,,,,,,,,,,,,,,,,,,
,,8,2.2731,8,2.2731,0,58,58,83,1,6,garden,onion,,90329,001,2022-04-29_11h47.30.771,SPAMnetsValid,2021.1.4,Win32,59.97720866,,,,,,,,,,,,,,,,,,,,,,,,,,,,,,,,,,,,,,,,,,,,,,,,,,,,,,,,,,,,,,,,,,,,,,,,,,,,,,,,,,,,,,,,,
,,8,1.9902,8,1.9902,0,59,59,67,1,54,chocolate,yogurt,,90329,001,2022-04-29_11h47.30.771,SPAMnetsValid,2021.1.4,Win32,59.97720866,,,,,,,,,,,,,,,,,,,,,,,,,,,,,,,,,,,,,,,,,,,,,,,,,,,,,,,,,,,,,,,,,,,,,,,,,,,,,,,,,,,,,,,,,
,,9,2.1897,9,2.1897,0,60,60,58,1,94,kitchen,microwave,,90329,001,2022-04-29_11h47.30.771,SPAMnetsValid,2021.1.4,Win32,59.97720866,,,,,,,,,,,,,,,,,,,,,,,,,,,,,,,,,,,,,,,,,,,,,,,,,,,,,,,,,,,,,,,,,,,,,,,,,,,,,,,,,,,,,,,,,
,,7,1.5221,7,1.5221,0,61,61,71,1,38,pretzel,refrigerator,,90329,001,2022-04-29_11h47.30.771,SPAMnetsValid,2021.1.4,Win32,59.97720866,,,,,,,,,,,,,,,,,,,,,,,,,,,,,,,,,,,,,,,,,,,,,,,,,,,,,,,,,,,,,,,,,,,,,,,,,,,,,,,,,,,,,,,,,
,,8,1.5475,8,1.5475,0,62,62,41,1,19,microwave,pretzel,,90329,001,2022-04-29_11h47.30.771,SPAMnetsValid,2021.1.4,Win32,59.97720866,,,,,,,,,,,,,,,,,,,,,,,,,,,,,,,,,,,,,,,,,,,,,,,,,,,,,,,,,,,,,,,,,,,,,,,,,,,,,,,,,,,,,,,,,
,,7,2.9063,7,2.9063,0,63,63,29,1,42,garden,kitchen,,90329,001,2022-04-29_11h47.30.771,SPAMnetsValid,2021.1.4,Win32,59.97720866,,,,,,,,,,,,,,,,,,,,,,,,,,,,,,,,,,,,,,,,,,,,,,,,,,,,,,,,,,,,,,,,,,,,,,,,,,,,,,,,,,,,,,,,,
,,8,1.3729,8,1.3729,0,64,64,64,1,9,kitchen,refrigerator,,90329,001,2022-04-29_11h47.30.771,SPAMnetsValid,2021.1.4,Win32,59.97720866,,,,,,,,,,,,,,,,,,,,,,,,,,,,,,,,,,,,,,,,,,,,,,,,,,,,,,,,,,,,,,,,,,,,,,,,,,,,,,,,,,,,,,,,,
,,1,2.1228,1,2.1228,0,65,65,22,1,16,chocolate,flower,,90329,001,2022-04-29_11h47.30.771,SPAMnetsValid,2021.1.4,Win32,59.97720866,,,,,,,,,,,,,,,,,,,,,,,,,,,,,,,,,,,,,,,,,,,,,,,,,,,,,,,,,,,,,,,,,,,,,,,,,,,,,,,,,,,,,,,,,
,,6,2.6627,6,2.6627,0,66,66,92,1,44,cookie,melon,,90329,001,2022-04-29_11h47.30.771,SPAMnetsValid,2021.1.4,Win32,59.97720866,,,,,,,,,,,,,,,,,,,,,,,,,,,,,,,,,,,,,,,,,,,,,,,,,,,,,,,,,,,,,,,,,,,,,,,,,,,,,,,,,,,,,,,,,
,,8,2.607,8,2.607,0,67,67,42,1,77,refrigerator,yogurt,,90329,001,2022-04-29_11h47.30.771,SPAMnetsValid,2021.1.4,Win32,59.97720866,,,,,,,,,,,,,,,,,,,,,,,,,,,,,,,,,,,,,,,,,,,,,,,,,,,,,,,,,,,,,,,,,,,,,,,,,,,,,,,,,,,,,,,,,
,,2,1.890599999,2,1.890599999,0,68,68,50,1,81,pretzel,yogurt,,90329,001,2022-04-29_11h47.30.771,SPAMnetsValid,2021.1.4,Win32,59.97720866,,,,,,,,,,,,,,,,,,,,,,,,,,,,,,,,,,,,,,,,,,,,,,,,,,,,,,,,,,,,,,,,,,,,,,,,,,,,,,,,,,,,,,,,,
,,2,1.7131,2,1.7131,0,69,69,0,1,53,garden,pretzel,,90329,001,2022-04-29_11h47.30.771,SPAMnetsValid,2021.1.4,Win32,59.97720866,,,,,,,,,,,,,,,,,,,,,,,,,,,,,,,,,,,,,,,,,,,,,,,,,,,,,,,,,,,,,,,,,,,,,,,,,,,,,,,,,,,,,,,,,
,,5,2.464900001,5,2.464900001,0,70,70,57,1,62,kitchen,rose,,90329,001,2022-04-29_11h47.30.771,SPAMnetsValid,2021.1.4,Win32,59.97720866,,,,,,,,,,,,,,,,,,,,,,,,,,,,,,,,,,,,,,,,,,,,,,,,,,,,,,,,,,,,,,,,,,,,,,,,,,,,,,,,,,,,,,,,,
,,5,6.9897,5,6.9897,0,71,71,2,1,22,kitchen,strawberry,,90329,001,2022-04-29_11h47.30.771,SPAMnetsValid,2021.1.4,Win32,59.97720866,,,,,,,,,,,,,,,,,,,,,,,,,,,,,,,,,,,,,,,,,,,,,,,,,,,,,,,,,,,,,,,,,,,,,,,,,,,,,,,,,,,,,,,,,
,,5,1.6227,5,1.6227,0,72,72,72,1,59,rose,strawberry,,90329,001,2022-04-29_11h47.30.771,SPAMnetsValid,2021.1.4,Win32,59.97720866,,,,,,,,,,,,,,,,,,,,,,,,,,,,,,,,,,,,,,,,,,,,,,,,,,,,,,,,,,,,,,,,,,,,,,,,,,,,,,,,,,,,,,,,,
,,3,2.073900001,3,2.073900001,0,73,73,7,1,34,melon,oven,,90329,001,2022-04-29_11h47.30.771,SPAMnetsValid,2021.1.4,Win32,59.97720866,,,,,,,,,,,,,,,,,,,,,,,,,,,,,,,,,,,,,,,,,,,,,,,,,,,,,,,,,,,,,,,,,,,,,,,,,,,,,,,,,,,,,,,,,
,,7,2.3063,7,2.3063,0,74,74,85,1,90,cactus,cake,,90329,001,2022-04-29_11h47.30.771,SPAMnetsValid,2021.1.4,Win32,59.97720866,,,,,,,,,,,,,,,,,,,,,,,,,,,,,,,,,,,,,,,,,,,,,,,,,,,,,,,,,,,,,,,,,,,,,,,,,,,,,,,,,,,,,,,,,
,,2,3.423900001,2,3.423900001,0,75,75,9,1,75,cookie,onion,,90329,001,2022-04-29_11h47.30.771,SPAMnetsValid,2021.1.4,Win32,59.97720866,,,,,,,,,,,,,,,,,,,,,,,,,,,,,,,,,,,,,,,,,,,,,,,,,,,,,,,,,,,,,,,,,,,,,,,,,,,,,,,,,,,,,,,,,
,,1,1.2364,1,1.2364,0,76,76,20,1,39,melon,pretzel,,90329,001,2022-04-29_11h47.30.771,SPAMnetsValid,2021.1.4,Win32,59.97720866,,,,,,,,,,,,,,,,,,,,,,,,,,,,,,,,,,,,,,,,,,,,,,,,,,,,,,,,,,,,,,,,,,,,,,,,,,,,,,,,,,,,,,,,,
,,8,1.247900001,8,1.247900001,0,77,77,82,1,93,kitchen,oven,,90329,001,2022-04-29_11h47.30.771,SPAMnetsValid,2021.1.4,Win32,59.97720866,,,,,,,,,,,,,,,,,,,,,,,,,,,,,,,,,,,,,,,,,,,,,,,,,,,,,,,,,,,,,,,,,,,,,,,,,,,,,,,,,,,,,,,,,
,,9,2.9249,9,2.9249,0,78,78,19,1,76,garden,rose,,90329,001,2022-04-29_11h47.30.771,SPAMnetsValid,2021.1.4,Win32,59.97720866,,,,,,,,,,,,,,,,,,,,,,,,,,,,,,,,,,,,,,,,,,,,,,,,,,,,,,,,,,,,,,,,,,,,,,,,,,,,,,,,,,,,,,,,,
,,1,1.3236,1,1.3236,0,79,79,84,1,91,microwave,rose,,90329,001,2022-04-29_11h47.30.771,SPAMnetsValid,2021.1.4,Win32,59.97720866,,,,,,,,,,,,,,,,,,,,,,,,,,,,,,,,,,,,,,,,,,,,,,,,,,,,,,,,,,,,,,,,,,,,,,,,,,,,,,,,,,,,,,,,,
,,4,2.448,4,2.448,0,80,80,89,1,80,chocolate,tree,,90329,001,2022-04-29_11h47.30.771,SPAMnetsValid,2021.1.4,Win32,59.97720866,,,,,,,,,,,,,,,,,,,,,,,,,,,,,,,,,,,,,,,,,,,,,,,,,,,,,,,,,,,,,,,,,,,,,,,,,,,,,,,,,,,,,,,,,
,,2,2.1267,2,2.1267,0,81,81,34,1,29,chocolate,melon,,90329,001,2022-04-29_11h47.30.771,SPAMnetsValid,2021.1.4,Win32,59.97720866,,,,,,,,,,,,,,,,,,,,,,,,,,,,,,,,,,,,,,,,,,,,,,,,,,,,,,,,,,,,,,,,,,,,,,,,,,,,,,,,,,,,,,,,,
,,2,2.114099999,2,2.114099999,0,82,82,66,1,20,rose,tree,,90329,001,2022-04-29_11h47.30.771,SPAMnetsValid,2021.1.4,Win32,59.97720866,,,,,,,,,,,,,,,,,,,,,,,,,,,,,,,,,,,,,,,,,,,,,,,,,,,,,,,,,,,,,,,,,,,,,,,,,,,,,,,,,,,,,,,,,
,,6,1.956,6,1.956,0,83,83,60,1,89,chocolate,rose,,90329,001,2022-04-29_11h47.30.771,SPAMnetsValid,2021.1.4,Win32,59.97720866,,,,,,,,,,,,,,,,,,,,,,,,,,,,,,,,,,,,,,,,,,,,,,,,,,,,,,,,,,,,,,,,,,,,,,,,,,,,,,,,,,,,,,,,,
,,1,1.7825,1,1.7825,0,84,84,43,1,11,refrigerator,tree,,90329,001,2022-04-29_11h47.30.771,SPAMnetsValid,2021.1.4,Win32,59.97720866,,,,,,,,,,,,,,,,,,,,,,,,,,,,,,,,,,,,,,,,,,,,,,,,,,,,,,,,,,,,,,,,,,,,,,,,,,,,,,,,,,,,,,,,,
,,7,1.954700001,7,1.954700001,0,85,85,75,1,69,carrot,refrigerator,,90329,001,2022-04-29_11h47.30.771,SPAMnetsValid,2021.1.4,Win32,59.97720866,,,,,,,,,,,,,,,,,,,,,,,,,,,,,,,,,,,,,,,,,,,,,,,,,,,,,,,,,,,,,,,,,,,,,,,,,,,,,,,,,,,,,,,,,
,,4,1.656900001,4,1.656900001,0,86,86,23,1,65,broom,garden,,90329,001,2022-04-29_11h47.30.771,SPAMnetsValid,2021.1.4,Win32,59.97720866,,,,,,,,,,,,,,,,,,,,,,,,,,,,,,,,,,,,,,,,,,,,,,,,,,,,,,,,,,,,,,,,,,,,,,,,,,,,,,,,,,,,,,,,,
,,1,1.0986,1,1.0986,0,87,87,47,1,73,broom,chocolate,,90329,001,2022-04-29_11h47.30.771,SPAMnetsValid,2021.1.4,Win32,59.97720866,,,,,,,,,,,,,,,,,,,,,,,,,,,,,,,,,,,,,,,,,,,,,,,,,,,,,,,,,,,,,,,,,,,,,,,,,,,,,,,,,,,,,,,,,
,,3,1.7788,3,1.7788,0,88,88,17,1,27,cactus,cookie,,90329,001,2022-04-29_11h47.30.771,SPAMnetsValid,2021.1.4,Win32,59.97720866,,,,,,,,,,,,,,,,,,,,,,,,,,,,,,,,,,,,,,,,,,,,,,,,,,,,,,,,,,,,,,,,,,,,,,,,,,,,,,,,,,,,,,,,,
,,1,1.922,1,1.922,0,89,89,11,1,37,garden,refrigerator,,90329,001,2022-04-29_11h47.30.771,SPAMnetsValid,2021.1.4,Win32,59.97720866,,,,,,,,,,,,,,,,,,,,,,,,,,,,,,,,,,,,,,,,,,,,,,,,,,,,,,,,,,,,,,,,,,,,,,,,,,,,,,,,,,,,,,,,,
,,1,1.727799999,1,1.727799999,0,90,90,27,1,72,broom,onion,,90329,001,2022-04-29_11h47.30.771,SPAMnetsValid,2021.1.4,Win32,59.97720866,,,,,,,,,,,,,,,,,,,,,,,,,,,,,,,,,,,,,,,,,,,,,,,,,,,,,,,,,,,,,,,,,,,,,,,,,,,,,,,,,,,,,,,,,
,,7,1.9938,7,1.9938,0,91,91,87,1,79,garden,strawberry,,90329,001,2022-04-29_11h47.30.771,SPAMnetsValid,2021.1.4,Win32,59.97720866,,,,,,,,,,,,,,,,,,,,,,,,,,,,,,,,,,,,,,,,,,,,,,,,,,,,,,,,,,,,,,,,,,,,,,,,,,,,,,,,,,,,,,,,,
,,1,2.4073,1,2.4073,0,92,92,25,1,23,flower,microwave,,90329,001,2022-04-29_11h47.30.771,SPAMnetsValid,2021.1.4,Win32,59.97720866,,,,,,,,,,,,,,,,,,,,,,,,,,,,,,,,,,,,,,,,,,,,,,,,,,,,,,,,,,,,,,,,,,,,,,,,,,,,,,,,,,,,,,,,,
,,7,1.4726,7,1.4726,0,93,93,91,1,2,kitchen,onion,,90329,001,2022-04-29_11h47.30.771,SPAMnetsValid,2021.1.4,Win32,59.97720866,,,,,,,,,,,,,,,,,,,,,,,,,,,,,,,,,,,,,,,,,,,,,,,,,,,,,,,,,,,,,,,,,,,,,,,,,,,,,,,,,,,,,,,,,
,,1,1.0802,1,1.0802,0,94,94,26,1,35,flower,pretzel,,90329,001,2022-04-29_11h47.30.771,SPAMnetsValid,2021.1.4,Win32,59.97720866,,,,,,,,,,,,,,,,,,,,,,,,,,,,,,,,,,,,,,,,,,,,,,,,,,,,,,,,,,,,,,,,,,,,,,,,,,,,,,,,,,,,,,,,,
,,1,1.221099999,1,1.221099999,0,95,95,49,1,57,flower,kitchen,,90329,001,2022-04-29_11h47.30.771,SPAMnetsValid,2021.1.4,Win32,59.97720866,,,,,,,,,,,,,,,,,,,,,,,,,,,,,,,,,,,,,,,,,,,,,,,,,,,,,,,,,,,,,,,,,,,,,,,,,,,,,,,,,,,,,,,,,
,,1,17.0808,1,17.0808,0,96,96,70,1,5,oven,tree,,90329,001,2022-04-29_11h47.30.771,SPAMnetsValid,2021.1.4,Win32,59.97720866,,,,,,,,,,,,,,,,,,,,,,,,,,,,,,,,,,,,,,,,,,,,,,,,,,,,,,,,,,,,,,,,,,,,,,,,,,,,,,,,,,,,,,,,,
,,,,,,,,,,,,,,,90329,001,2022-04-29_11h47.30.771,SPAMnetsValid,2021.1.4,Win32,59.97720866,0,0,0,0,1,,,,,,,,,,,,,,,,,,,,,,,,,,,,,,,,,,,,,,,,,,,,,,,,,,,,,,,,,,,,,,,,,,,,,,,,,,,,,,,,,,,,
,,,,,,,,,,,,,,,90329,001,2022-04-29_11h47.30.771,SPAMnetsValid,2021.1.4,Win32,59.97720866,,,,,,0,0,0,0,1,1,0,,,,,,,,,,,,,,,,,,,,,,,,,,,,,,,,,,,,,,,,,,,,,,,,,,,,,,,,,,,,,,,,,,,,,,,,,,,,,
,,,,1,73.7576,,,,,,137,microwave,tree,,90329,001,2022-04-29_11h47.30.771,SPAMnetsValid,2021.1.4,Win32,59.97720866,,,,,,,,,,,,,1,73.7576,0,0,0,63,1,,,,,,,,,,,,,,,,,,,,,,,,,,,,,,,,,,,,,,,,,,,,,,,,,,,,,,,,,,,,,,,,,,,,,,
,,,,4,1.4392,,,,,,133,cake,flower,,90329,001,2022-04-29_11h47.30.771,SPAMnetsValid,2021.1.4,Win32,59.97720866,,,,,,,,,,,,,4,1.4392,0,1,1,94,1,,,,,,,,,,,,,,,,,,,,,,,,,,,,,,,,,,,,,,,,,,,,,,,,,,,,,,,,,,,,,,,,,,,,,,
,,,,5,1.9905,,,,,,125,carrot,tree,,90329,001,2022-04-29_11h47.30.771,SPAMnetsValid,2021.1.4,Win32,59.97720866,,,,,,,,,,,,,5,1.9905,0,2,2,30,1,,,,,,,,,,,,,,,,,,,,,,,,,,,,,,,,,,,,,,,,,,,,,,,,,,,,,,,,,,,,,,,,,,,,,,
,,,,8,1.1071,,,,,,100,garden,tomato,,90329,001,2022-04-29_11h47.30.771,SPAMnetsValid,2021.1.4,Win32,59.97720866,,,,,,,,,,,,,8,1.1071,0,3,3,83,1,,,,,,,,,,,,,,,,,,,,,,,,,,,,,,,,,,,,,,,,,,,,,,,,,,,,,,,,,,,,,,,,,,,,,,
,,,,1,1.1485,,,,,,143,pretzel,rose,,90329,001,2022-04-29_11h47.30.771,SPAMnetsValid,2021.1.4,Win32,59.97720866,,,,,,,,,,,,,1,1.1485,0,4,4,55,1,,,,,,,,,,,,,,,,,,,,,,,,,,,,,,,,,,,,,,,,,,,,,,,,,,,,,,,,,,,,,,,,,,,,,,
,,,,5,4.841599999,,,,,,181,carrot,kitchen,,90329,001,2022-04-29_11h47.30.771,SPAMnetsValid,2021.1.4,Win32,59.97720866,,,,,,,,,,,,,5,4.841599999,0,5,5,72,1,,,,,,,,,,,,,,,,,,,,,,,,,,,,,,,,,,,,,,,,,,,,,,,,,,,,,,,,,,,,,,,,,,,,,,
,,,,3,1.9398,,,,,,151,microwave,onion,,90329,001,2022-04-29_11h47.30.771,SPAMnetsValid,2021.1.4,Win32,59.97720866,,,,,,,,,,,,,3,1.9398,0,6,6,6,1,,,,,,,,,,,,,,,,,,,,,,,,,,,,,,,,,,,,,,,,,,,,,,,,,,,,,,,,,,,,,,,,,,,,,,
,,,,1,1.0398,,,,,,175,melon,onion,,90329,001,2022-04-29_11h47.30.771,SPAMnetsValid,2021.1.4,Win32,59.97720866,,,,,,,,,,,,,1,1.0398,0,7,7,41,1,,,,,,,,,,,,,,,,,,,,,,,,,,,,,,,,,,,,,,,,,,,,,,,,,,,,,,,,,,,,,,,,,,,,,,
,,,,1,1.151700001,,,,,,132,broom,tree,,90329,001,2022-04-29_11h47.30.771,SPAMnetsValid,2021.1.4,Win32,59.97720866,,,,,,,,,,,,,1,1.151700001,0,8,8,78,1,,,,,,,,,,,,,,,,,,,,,,,,,,,,,,,,,,,,,,,,,,,,,,,,,,,,,,,,,,,,,,,,,,,,,,
,,,,1,1.8724,,,,,,171,cake,tomato,,90329,001,2022-04-29_11h47.30.771,SPAMnetsValid,2021.1.4,Win32,59.97720866,,,,,,,,,,,,,1,1.8724,0,9,9,88,1,,,,,,,,,,,,,,,,,,,,,,,,,,,,,,,,,,,,,,,,,,,,,,,,,,,,,,,,,,,,,,,,,,,,,,
,,,,7,1.1117,,,,,,163,melon,refrigerator,,90329,001,2022-04-29_11h47.30.771,SPAMnetsValid,2021.1.4,Win32,59.97720866,,,,,,,,,,,,,7,1.1117,0,10,10,29,1,,,,,,,,,,,,,,,,,,,,,,,,,,,,,,,,,,,,,,,,,,,,,,,,,,,,,,,,,,,,,,,,,,,,,,
,,,,6,1.4395,,,,,,157,refrigerator,rose,,90329,001,2022-04-29_11h47.30.771,SPAMnetsValid,2021.1.4,Win32,59.97720866,,,,,,,,,,,,,6,1.4395,0,11,11,64,1,,,,,,,,,,,,,,,,,,,,,,,,,,,,,,,,,,,,,,,,,,,,,,,,,,,,,,,,,,,,,,,,,,,,,,
,,,,1,1.705599999,,,,,,184,oven,pretzel,,90329,001,2022-04-29_11h47.30.771,SPAMnetsValid,2021.1.4,Win32,59.97720866,,,,,,,,,,,,,1,1.705599999,0,12,12,42,1,,,,,,,,,,,,,,,,,,,,,,,,,,,,,,,,,,,,,,,,,,,,,,,,,,,,,,,,,,,,,,,,,,,,,,
,,,,1,4.4038,,,,,,144,cake,garden,,90329,001,2022-04-29_11h47.30.771,SPAMnetsValid,2021.1.4,Win32,59.97720866,,,,,,,,,,,,,1,4.4038,0,13,13,58,1,,,,,,,,,,,,,,,,,,,,,,,,,,,,,,,,,,,,,,,,,,,,,,,,,,,,,,,,,,,,,,,,,,,,,,
,,,,3,1.0801,,,,,,156,melon,rose,,90329,001,2022-04-29_11h47.30.771,SPAMnetsValid,2021.1.4,Win32,59.97720866,,,,,,,,,,,,,3,1.0801,0,14,14,31,1,,,,,,,,,,,,,,,,,,,,,,,,,,,,,,,,,,,,,,,,,,,,,,,,,,,,,,,,,,,,,,,,,,,,,,
,,,,5,1.757400001,,,,,,170,cookie,microwave,,90329,001,2022-04-29_11h47.30.771,SPAMnetsValid,2021.1.4,Win32,59.97720866,,,,,,,,,,,,,5,1.757400001,0,15,15,92,1,,,,,,,,,,,,,,,,,,,,,,,,,,,,,,,,,,,,,,,,,,,,,,,,,,,,,,,,,,,,,,,,,,,,,,
,,,,3,1.767,,,,,,135,carrot,oven,,90329,001,2022-04-29_11h47.30.771,SPAMnetsValid,2021.1.4,Win32,59.97720866,,,,,,,,,,,,,3,1.767,0,16,16,73,1,,,,,,,,,,,,,,,,,,,,,,,,,,,,,,,,,,,,,,,,,,,,,,,,,,,,,,,,,,,,,,,,,,,,,,
,,,,7,1.657099999,,,,,,107,rose,tomato,,90329,001,2022-04-29_11h47.30.771,SPAMnetsValid,2021.1.4,Win32,59.97720866,,,,,,,,,,,,,7,1.657099999,0,17,17,26,1,,,,,,,,,,,,,,,,,,,,,,,,,,,,,,,,,,,,,,,,,,,,,,,,,,,,,,,,,,,,,,,,,,,,,,
,,,,7,1.3046,,,,,,131,cactus,garden,,90329,001,2022-04-29_11h47.30.771,SPAMnetsValid,2021.1.4,Win32,59.97720866,,,,,,,,,,,,,7,1.3046,0,18,18,33,1,,,,,,,,,,,,,,,,,,,,,,,,,,,,,,,,,,,,,,,,,,,,,,,,,,,,,,,,,,,,,,,,,,,,,,
,,,,1,1.2559,,,,,,111,carrot,microwave,,90329,001,2022-04-29_11h47.30.771,SPAMnetsValid,2021.1.4,Win32,59.97720866,,,,,,,,,,,,,1,1.2559,0,19,19,16,1,,,,,,,,,,,,,,,,,,,,,,,,,,,,,,,,,,,,,,,,,,,,,,,,,,,,,,,,,,,,,,,,,,,,,,
,,,,1,1.023099999,,,,,,153,carrot,pretzel,,90329,001,2022-04-29_11h47.30.771,SPAMnetsValid,2021.1.4,Win32,59.97720866,,,,,,,,,,,,,1,1.023099999,0,20,20,34,1,,,,,,,,,,,,,,,,,,,,,,,,,,,,,,,,,,,,,,,,,,,,,,,,,,,,,,,,,,,,,,,,,,,,,,
,,,,1,1.233099999,,,,,,149,broom,tomato,,90329,001,2022-04-29_11h47.30.771,SPAMnetsValid,2021.1.4,Win32,59.97720866,,,,,,,,,,,,,1,1.233099999,0,21,21,20,1,,,,,,,,,,,,,,,,,,,,,,,,,,,,,,,,,,,,,,,,,,,,,,,,,,,,,,,,,,,,,,,,,,,,,,
,,,,8,2.2576,,,,,,168,cactus,flower,,90329,001,2022-04-29_11h47.30.771,SPAMnetsValid,2021.1.4,Win32,59.97720866,,,,,,,,,,,,,8,2.2576,0,22,22,51,1,,,,,,,,,,,,,,,,,,,,,,,,,,,,,,,,,,,,,,,,,,,,,,,,,,,,,,,,,,,,,,,,,,,,,,
,,,,1,1.8058,,,,,,182,flower,refrigerator,,90329,001,2022-04-29_11h47.30.771,SPAMnetsValid,2021.1.4,Win32,59.97720866,,,,,,,,,,,,,1,1.8058,0,23,23,32,1,,,,,,,,,,,,,,,,,,,,,,,,,,,,,,,,,,,,,,,,,,,,,,,,,,,,,,,,,,,,,,,,,,,,,,
,,,,1,1.054,,,,,,145,cactus,yogurt,,90329,001,2022-04-29_11h47.30.771,SPAMnetsValid,2021.1.4,Win32,59.97720866,,,,,,,,,,,,,1,1.054,0,24,24,15,1,,,,,,,,,,,,,,,,,,,,,,,,,,,,,,,,,,,,,,,,,,,,,,,,,,,,,,,,,,,,,,,,,,,,,,
,,,,9,2.198099999,,,,,,120,microwave,oven,,90329,001,2022-04-29_11h47.30.771,SPAMnetsValid,2021.1.4,Win32,59.97720866,,,,,,,,,,,,,9,2.198099999,0,25,25,14,1,,,,,,,,,,,,,,,,,,,,,,,,,,,,,,,,,,,,,,,,,,,,,,,,,,,,,,,,,,,,,,,,,,,,,,
,,,,9,3.4397,,,,,,99,garden,melon,,90329,001,2022-04-29_11h47.30.771,SPAMnetsValid,2021.1.4,Win32,59.97720866,,,,,,,,,,,,,9,3.4397,0,26,26,17,1,,,,,,,,,,,,,,,,,,,,,,,,,,,,,,,,,,,,,,,,,,,,,,,,,,,,,,,,,,,,,,,,,,,,,,
,,,,9,1.4838,,,,,,160,cookie,kitchen,,90329,001,2022-04-29_11h47.30.771,SPAMnetsValid,2021.1.4,Win32,59.97720866,,,,,,,,,,,,,9,1.4838,0,27,27,65,1,,,,,,,,,,,,,,,,,,,,,,,,,,,,,,,,,,,,,,,,,,,,,,,,,,,,,,,,,,,,,,,,,,,,,,
,,,,7,1.878,,,,,,134,carrot,flower,,90329,001,2022-04-29_11h47.30.771,SPAMnetsValid,2021.1.4,Win32,59.97720866,,,,,,,,,,,,,7,1.878,0,28,28,93,1,,,,,,,,,,,,,,,,,,,,,,,,,,,,,,,,,,,,,,,,,,,,,,,,,,,,,,,,,,,,,,,,,,,,,,
,,,,9,1.7267,,,,,,113,refrigerator,strawberry,,90329,001,2022-04-29_11h47.30.771,SPAMnetsValid,2021.1.4,Win32,59.97720866,,,,,,,,,,,,,9,1.7267,0,29,29,56,1,,,,,,,,,,,,,,,,,,,,,,,,,,,,,,,,,,,,,,,,,,,,,,,,,,,,,,,,,,,,,,,,,,,,,,
,,,,8,2.1439,,,,,,165,onion,rose,,90329,001,2022-04-29_11h47.30.771,SPAMnetsValid,2021.1.4,Win32,59.97720866,,,,,,,,,,,,,8,2.1439,0,30,30,40,1,,,,,,,,,,,,,,,,,,,,,,,,,,,,,,,,,,,,,,,,,,,,,,,,,,,,,,,,,,,,,,,,,,,,,,
,,,,1,1.457700001,,,,,,127,cactus,chocolate,,90329,001,2022-04-29_11h47.30.771,SPAMnetsValid,2021.1.4,Win32,59.97720866,,,,,,,,,,,,,1,1.457700001,0,31,31,57,1,,,,,,,,,,,,,,,,,,,,,,,,,,,,,,,,,,,,,,,,,,,,,,,,,,,,,,,,,,,,,,,,,,,,,,
,,,,1,1.289099999,,,,,,96,oven,strawberry,,90329,001,2022-04-29_11h47.30.771,SPAMnetsValid,2021.1.4,Win32,59.97720866,,,,,,,,,,,,,1,1.289099999,0,32,32,67,1,,,,,,,,,,,,,,,,,,,,,,,,,,,,,,,,,,,,,,,,,,,,,,,,,,,,,,,,,,,,,,,,,,,,,,
,,,,7,1.461799999,,,,,,112,cake,carrot,,90329,001,2022-04-29_11h47.30.771,SPAMnetsValid,2021.1.4,Win32,59.97720866,,,,,,,,,,,,,7,1.461799999,0,33,33,39,1,,,,,,,,,,,,,,,,,,,,,,,,,,,,,,,,,,,,,,,,,,,,,,,,,,,,,,,,,,,,,,,,,,,,,,
,,,,9,1.8724,,,,,,154,strawberry,yogurt,,90329,001,2022-04-29_11h47.30.771,SPAMnetsValid,2021.1.4,Win32,59.97720866,,,,,,,,,,,,,9,1.8724,0,34,34,28,1,,,,,,,,,,,,,,,,,,,,,,,,,,,,,,,,,,,,,,,,,,,,,,,,,,,,,,,,,,,,,,,,,,,,,,
,,,,1,2.214099999,,,,,,176,cactus,tomato,,90329,001,2022-04-29_11h47.30.771,SPAMnetsValid,2021.1.4,Win32,59.97720866,,,,,,,,,,,,,1,2.214099999,0,35,35,9,1,,,,,,,,,,,,,,,,,,,,,,,,,,,,,,,,,,,,,,,,,,,,,,,,,,,,,,,,,,,,,,,,,,,,,,
,,,,9,1.1302,,,,,,193,melon,melon,CHECK,90329,001,2022-04-29_11h47.30.771,SPAMnetsValid,2021.1.4,Win32,59.97720866,,,,,,,,,,,,,9,1.1302,0,36,36,86,1,,,,,,,,,,,,,,,,,,,,,,,,,,,,,,,,,,,,,,,,,,,,,,,,,,,,,,,,,,,,,,,,,,,,,,
,,,,4,1.3219,,,,,,169,onion,yogurt,,90329,001,2022-04-29_11h47.30.771,SPAMnetsValid,2021.1.4,Win32,59.97720866,,,,,,,,,,,,,4,1.3219,0,37,37,24,1,,,,,,,,,,,,,,,,,,,,,,,,,,,,,,,,,,,,,,,,,,,,,,,,,,,,,,,,,,,,,,,,,,,,,,
,,,,7,4.1261,,,,,,172,kitchen,melon,,90329,001,2022-04-29_11h47.30.771,SPAMnetsValid,2021.1.4,Win32,59.97720866,,,,,,,,,,,,,7,4.1261,0,38,38,77,1,,,,,,,,,,,,,,,,,,,,,,,,,,,,,,,,,,,,,,,,,,,,,,,,,,,,,,,,,,,,,,,,,,,,,,
,,,,7,1.241,,,,,,155,carrot,cookie,,90329,001,2022-04-29_11h47.30.771,SPAMnetsValid,2021.1.4,Win32,59.97720866,,,,,,,,,,,,,7,1.241,0,39,39,38,1,,,,,,,,,,,,,,,,,,,,,,,,,,,,,,,,,,,,,,,,,,,,,,,,,,,,,,,,,,,,,,,,,,,,,,
,,,,4,1.9137,,,,,,140,cookie,refrigerator,,90329,001,2022-04-29_11h47.30.771,SPAMnetsValid,2021.1.4,Win32,59.97720866,,,,,,,,,,,,,4,1.9137,0,40,40,89,1,,,,,,,,,,,,,,,,,,,,,,,,,,,,,,,,,,,,,,,,,,,,,,,,,,,,,,,,,,,,,,,,,,,,,,
,,,,7,1.2093,,,,,,116,cake,chocolate,,90329,001,2022-04-29_11h47.30.771,SPAMnetsValid,2021.1.4,Win32,59.97720866,,,,,,,,,,,,,7,1.2093,0,41,41,44,1,,,,,,,,,,,,,,,,,,,,,,,,,,,,,,,,,,,,,,,,,,,,,,,,,,,,,,,,,,,,,,,,,,,,,,
,,,,8,2.85,,,,,,177,chocolate,strawberry,,90329,001,2022-04-29_11h47.30.771,SPAMnetsValid,2021.1.4,Win32,59.97720866,,,,,,,,,,,,,8,2.85,0,42,42,53,1,,,,,,,,,,,,,,,,,,,,,,,,,,,,,,,,,,,,,,,,,,,,,,,,,,,,,,,,,,,,,,,,,,,,,,
,,,,8,2.3096,,,,,,117,melon,strawberry,,90329,001,2022-04-29_11h47.30.771,SPAMnetsValid,2021.1.4,Win32,59.97720866,,,,,,,,,,,,,8,2.3096,0,43,43,11,1,,,,,,,,,,,,,,,,,,,,,,,,,,,,,,,,,,,,,,,,,,,,,,,,,,,,,,,,,,,,,,,,,,,,,,
,,,,9,1.5233,,,,,,158,cookie,oven,,90329,001,2022-04-29_11h47.30.771,SPAMnetsValid,2021.1.4,Win32,59.97720866,,,,,,,,,,,,,9,1.5233,0,44,44,27,1,,,,,,,,,,,,,,,,,,,,,,,,,,,,,,,,,,,,,,,,,,,,,,,,,,,,,,,,,,,,,,,,,,,,,,
,,,,7,1.5853,,,,,,128,melon,microwave,,90329,001,2022-04-29_11h47.30.771,SPAMnetsValid,2021.1.4,Win32,59.97720866,,,,,,,,,,,,,7,1.5853,0,45,45,74,1,,,,,,,,,,,,,,,,,,,,,,,,,,,,,,,,,,,,,,,,,,,,,,,,,,,,,,,,,,,,,,,,,,,,,,
,,,,7,1.6558,,,,,,166,cake,yogurt,,90329,001,2022-04-29_11h47.30.771,SPAMnetsValid,2021.1.4,Win32,59.97720866,,,,,,,,,,,,,7,1.6558,0,46,46,91,1,,,,,,,,,,,,,,,,,,,,,,,,,,,,,,,,,,,,,,,,,,,,,,,,,,,,,,,,,,,,,,,,,,,,,,
,,,,3,7.041,,,,,,103,pretzel,tomato,,90329,001,2022-04-29_11h47.30.771,SPAMnetsValid,2021.1.4,Win32,59.97720866,,,,,,,,,,,,,3,7.041,0,47,47,79,1,,,,,,,,,,,,,,,,,,,,,,,,,,,,,,,,,,,,,,,,,,,,,,,,,,,,,,,,,,,,,,,,,,,,,,
,,,,6,1.4724,,,,,,139,carrot,strawberry,,90329,001,2022-04-29_11h47.30.771,SPAMnetsValid,2021.1.4,Win32,59.97720866,,,,,,,,,,,,,6,1.4724,0,48,48,37,1,,,,,,,,,,,,,,,,,,,,,,,,,,,,,,,,,,,,,,,,,,,,,,,,,,,,,,,,,,,,,,,,,,,,,,
,,,,9,2.1271,,,,,,119,strawberry,tree,,90329,001,2022-04-29_11h47.30.771,SPAMnetsValid,2021.1.4,Win32,59.97720866,,,,,,,,,,,,,9,2.1271,0,49,49,18,1,,,,,,,,,,,,,,,,,,,,,,,,,,,,,,,,,,,,,,,,,,,,,,,,,,,,,,,,,,,,,,,,,,,,,,
,,,,7,2.113599999,,,,,,118,chocolate,oven,,90329,001,2022-04-29_11h47.30.771,SPAMnetsValid,2021.1.4,Win32,59.97720866,,,,,,,,,,,,,7,2.113599999,0,50,50,10,1,,,,,,,,,,,,,,,,,,,,,,,,,,,,,,,,,,,,,,,,,,,,,,,,,,,,,,,,,,,,,,,,,,,,,,
,,,,6,1.2066,,,,,,173,kitchen,tomato,,90329,001,2022-04-29_11h47.30.771,SPAMnetsValid,2021.1.4,Win32,59.97720866,,,,,,,,,,,,,6,1.2066,0,51,51,1,1,,,,,,,,,,,,,,,,,,,,,,,,,,,,,,,,,,,,,,,,,,,,,,,,,,,,,,,,,,,,,,,,,,,,,,
,,,,6,2.4884,,,,,,101,cactus,kitchen,,90329,001,2022-04-29_11h47.30.771,SPAMnetsValid,2021.1.4,Win32,59.97720866,,,,,,,,,,,,,6,2.4884,0,52,52,54,1,,,,,,,,,,,,,,,,,,,,,,,,,,,,,,,,,,,,,,,,,,,,,,,,,,,,,,,,,,,,,,,,,,,,,,
,,,,1,1.4966,,,,,,187,cactus,microwave,,90329,001,2022-04-29_11h47.30.771,SPAMnetsValid,2021.1.4,Win32,59.97720866,,,,,,,,,,,,,1,1.4966,0,53,53,71,1,,,,,,,,,,,,,,,,,,,,,,,,,,,,,,,,,,,,,,,,,,,,,,,,,,,,,,,,,,,,,,,,,,,,,,
,,,,9,1.4422,,,,,,194,cactus,cactus,CHECK,90329,001,2022-04-29_11h47.30.771,SPAMnetsValid,2021.1.4,Win32,59.97720866,,,,,,,,,,,,,9,1.4422,0,54,54,25,1,,,,,,,,,,,,,,,,,,,,,,,,,,,,,,,,,,,,,,,,,,,,,,,,,,,,,,,,,,,,,,,,,,,,,,
,,,,2,2.3718,,,,,,189,onion,tree,,90329,001,2022-04-29_11h47.30.771,SPAMnetsValid,2021.1.4,Win32,59.97720866,,,,,,,,,,,,,2,2.3718,0,55,55,62,1,,,,,,,,,,,,,,,,,,,,,,,,,,,,,,,,,,,,,,,,,,,,,,,,,,,,,,,,,,,,,,,,,,,,,,
,,,,6,1.474200001,,,,,,164,cookie,garden,,90329,001,2022-04-29_11h47.30.771,SPAMnetsValid,2021.1.4,Win32,59.97720866,,,,,,,,,,,,,6,1.474200001,0,56,56,59,1,,,,,,,,,,,,,,,,,,,,,,,,,,,,,,,,,,,,,,,,,,,,,,,,,,,,,,,,,,,,,,,,,,,,,,
,,,,8,2.513,,,,,,188,flower,tree,,90329,001,2022-04-29_11h47.30.771,SPAMnetsValid,2021.1.4,Win32,59.97720866,,,,,,,,,,,,,8,2.513,0,57,57,7,1,,,,,,,,,,,,,,,,,,,,,,,,,,,,,,,,,,,,,,,,,,,,,,,,,,,,,,,,,,,,,,,,,,,,,,
,,,,1,1.2888,,,,,,190,microwave,strawberry,,90329,001,2022-04-29_11h47.30.771,SPAMnetsValid,2021.1.4,Win32,59.97720866,,,,,,,,,,,,,1,1.2888,0,58,58,90,1,,,,,,,,,,,,,,,,,,,,,,,,,,,,,,,,,,,,,,,,,,,,,,,,,,,,,,,,,,,,,,,,,,,,,,
,,,,6,1.606900001,,,,,,161,kitchen,pretzel,,90329,001,2022-04-29_11h47.30.771,SPAMnetsValid,2021.1.4,Win32,59.97720866,,,,,,,,,,,,,6,1.606900001,0,59,59,36,1,,,,,,,,,,,,,,,,,,,,,,,,,,,,,,,,,,,,,,,,,,,,,,,,,,,,,,,,,,,,,,,,,,,,,,
,,,,1,1.2492,,,,,,105,cactus,oven,,90329,001,2022-04-29_11h47.30.771,SPAMnetsValid,2021.1.4,Win32,59.97720866,,,,,,,,,,,,,1,1.2492,0,60,60,13,1,,,,,,,,,,,,,,,,,,,,,,,,,,,,,,,,,,,,,,,,,,,,,,,,,,,,,,,,,,,,,,,,,,,,,,
,,,,6,1.3897,,,,,,178,cactus,carrot,,90329,001,2022-04-29_11h47.30.771,SPAMnetsValid,2021.1.4,Win32,59.97720866,,,,,,,,,,,,,6,1.3897,0,61,61,75,1,,,,,,,,,,,,,,,,,,,,,,,,,,,,,,,,,,,,,,,,,,,,,,,,,,,,,,,,,,,,,,,,,,,,,,
,,,,6,0.9147,,,,,,108,carrot,chocolate,,90329,001,2022-04-29_11h47.30.771,SPAMnetsValid,2021.1.4,Win32,59.97720866,,,,,,,,,,,,,6,0.9147,0,62,62,5,1,,,,,,,,,,,,,,,,,,,,,,,,,,,,,,,,,,,,,,,,,,,,,,,,,,,,,,,,,,,,,,,,,,,,,,
,,,,8,1.6665,,,,,,150,microwave,refrigerator,,90329,001,2022-04-29_11h47.30.771,SPAMnetsValid,2021.1.4,Win32,59.97720866,,,,,,,,,,,,,8,1.6665,0,63,63,66,1,,,,,,,,,,,,,,,,,,,,,,,,,,,,,,,,,,,,,,,,,,,,,,,,,,,,,,,,,,,,,,,,,,,,,,
,,,,8,1.6832,,,,,,147,cake,refrigerator,,90329,001,2022-04-29_11h47.30.771,SPAMnetsValid,2021.1.4,Win32,59.97720866,,,,,,,,,,,,,8,1.6832,0,64,64,35,1,,,,,,,,,,,,,,,,,,,,,,,,,,,,,,,,,,,,,,,,,,,,,,,,,,,,,,,,,,,,,,,,,,,,,,
,,,,9,1.8068,,,,,,167,carrot,garden,,90329,001,2022-04-29_11h47.30.771,SPAMnetsValid,2021.1.4,Win32,59.97720866,,,,,,,,,,,,,9,1.8068,0,65,65,47,1,,,,,,,,,,,,,,,,,,,,,,,,,,,,,,,,,,,,,,,,,,,,,,,,,,,,,,,,,,,,,,,,,,,,,,
,,,,1,1.275,,,,,,180,tree,yogurt,,90329,001,2022-04-29_11h47.30.771,SPAMnetsValid,2021.1.4,Win32,59.97720866,,,,,,,,,,,,,1,1.275,0,66,66,68,1,,,,,,,,,,,,,,,,,,,,,,,,,,,,,,,,,,,,,,,,,,,,,,,,,,,,,,,,,,,,,,,,,,,,,,
,,,,1,1.6644,,,,,,136,chocolate,microwave,,90329,001,2022-04-29_11h47.30.771,SPAMnetsValid,2021.1.4,Win32,59.97720866,,,,,,,,,,,,,1,1.6644,0,67,67,96,1,,,,,,,,,,,,,,,,,,,,,,,,,,,,,,,,,,,,,,,,,,,,,,,,,,,,,,,,,,,,,,,,,,,,,,
,,,,1,1.3392,,,,,,146,pretzel,tree,,90329,001,2022-04-29_11h47.30.771,SPAMnetsValid,2021.1.4,Win32,59.97720866,,,,,,,,,,,,,1,1.3392,0,68,68,80,1,,,,,,,,,,,,,,,,,,,,,,,,,,,,,,,,,,,,,,,,,,,,,,,,,,,,,,,,,,,,,,,,,,,,,,
,,,,2,2.3035,,,,,,162,microwave,tomato,,90329,001,2022-04-29_11h47.30.771,SPAMnetsValid,2021.1.4,Win32,59.97720866,,,,,,,,,,,,,2,2.3035,0,69,69,12,1,,,,,,,,,,,,,,,,,,,,,,,,,,,,,,,,,,,,,,,,,,,,,,,,,,,,,,,,,,,,,,,,,,,,,,
,,,,4,1.8116,,,,,,152,cactus,strawberry,,90329,001,2022-04-29_11h47.30.771,SPAMnetsValid,2021.1.4,Win32,59.97720866,,,,,,,,,,,,,4,1.8116,0,70,70,49,1,,,,,,,,,,,,,,,,,,,,,,,,,,,,,,,,,,,,,,,,,,,,,,,,,,,,,,,,,,,,,,,,,,,,,,
,,,,5,2.4395,,,,,,97,chocolate,kitchen,,90329,001,2022-04-29_11h47.30.771,SPAMnetsValid,2021.1.4,Win32,59.97720866,,,,,,,,,,,,,5,2.4395,0,71,71,8,1,,,,,,,,,,,,,,,,,,,,,,,,,,,,,,,,,,,,,,,,,,,,,,,,,,,,,,,,,,,,,,,,,,,,,,
,,,,1,1.481099999,,,,,,109,broom,strawberry,,90329,001,2022-04-29_11h47.30.771,SPAMnetsValid,2021.1.4,Win32,59.97720866,,,,,,,,,,,,,1,1.481099999,0,72,72,4,1,,,,,,,,,,,,,,,,,,,,,,,,,,,,,,,,,,,,,,,,,,,,,,,,,,,,,,,,,,,,,,,,,,,,,,
,,,,5,2.9655,,,,,,186,kitchen,yogurt,,90329,001,2022-04-29_11h47.30.771,SPAMnetsValid,2021.1.4,Win32,59.97720866,,,,,,,,,,,,,5,2.9655,0,73,73,48,1,,,,,,,,,,,,,,,,,,,,,,,,,,,,,,,,,,,,,,,,,,,,,,,,,,,,,,,,,,,,,,,,,,,,,,
,,,,7,1.7943,,,,,,185,cactus,rose,,90329,001,2022-04-29_11h47.30.771,SPAMnetsValid,2021.1.4,Win32,59.97720866,,,,,,,,,,,,,7,1.7943,0,74,74,43,1,,,,,,,,,,,,,,,,,,,,,,,,,,,,,,,,,,,,,,,,,,,,,,,,,,,,,,,,,,,,,,,,,,,,,,
,,,,7,1.2803,,,,,,179,broom,oven,,90329,001,2022-04-29_11h47.30.771,SPAMnetsValid,2021.1.4,Win32,59.97720866,,,,,,,,,,,,,7,1.2803,0,75,75,45,1,,,,,,,,,,,,,,,,,,,,,,,,,,,,,,,,,,,,,,,,,,,,,,,,,,,,,,,,,,,,,,,,,,,,,,
,,,,1,1.4595,,,,,,129,cactus,refrigerator,,90329,001,2022-04-29_11h47.30.771,SPAMnetsValid,2021.1.4,Win32,59.97720866,,,,,,,,,,,,,1,1.4595,0,76,76,3,1,,,,,,,,,,,,,,,,,,,,,,,,,,,,,,,,,,,,,,,,,,,,,,,,,,,,,,,,,,,,,,,,,,,,,,
,,,,1,1.5737,,,,,,159,cookie,flower,,90329,001,2022-04-29_11h47.30.771,SPAMnetsValid,2021.1.4,Win32,59.97720866,,,,,,,,,,,,,1,1.5737,0,77,77,21,1,,,,,,,,,,,,,,,,,,,,,,,,,,,,,,,,,,,,,,,,,,,,,,,,,,,,,,,,,,,,,,,,,,,,,,
,,,,4,1.6395,,,,,,148,flower,melon,,90329,001,2022-04-29_11h47.30.771,SPAMnetsValid,2021.1.4,Win32,59.97720866,,,,,,,,,,,,,4,1.6395,0,78,78,23,1,,,,,,,,,,,,,,,,,,,,,,,,,,,,,,,,,,,,,,,,,,,,,,,,,,,,,,,,,,,,,,,,,,,,,,
,,,,6,2.7667,,,,,,115,refrigerator,tomato,,90329,001,2022-04-29_11h47.30.771,SPAMnetsValid,2021.1.4,Win32,59.97720866,,,,,,,,,,,,,6,2.7667,0,79,79,85,1,,,,,,,,,,,,,,,,,,,,,,,,,,,,,,,,,,,,,,,,,,,,,,,,,,,,,,,,,,,,,,,,,,,,,,
,,,,1,3.8728,,,,,,102,chocolate,refrigerator,,90329,001,2022-04-29_11h47.30.771,SPAMnetsValid,2021.1.4,Win32,59.97720866,,,,,,,,,,,,,1,3.8728,0,80,80,76,1,,,,,,,,,,,,,,,,,,,,,,,,,,,,,,,,,,,,,,,,,,,,,,,,,,,,,,,,,,,,,,,,,,,,,,
,,,,5,2.281299999,,,,,,141,melon,tomato,,90329,001,2022-04-29_11h47.30.771,SPAMnetsValid,2021.1.4,Win32,59.97720866,,,,,,,,,,,,,5,2.281299999,0,81,81,70,1,,,,,,,,,,,,,,,,,,,,,,,,,,,,,,,,,,,,,,,,,,,,,,,,,,,,,,,,,,,,,,,,,,,,,,
,,,,5,1.6062,,,,,,114,cookie,strawberry,,90329,001,2022-04-29_11h47.30.771,SPAMnetsValid,2021.1.4,Win32,59.97720866,,,,,,,,,,,,,5,1.6062,0,82,82,87,1,,,,,,,,,,,,,,,,,,,,,,,,,,,,,,,,,,,,,,,,,,,,,,,,,,,,,,,,,,,,,,,,,,,,,,
,,,,2,2.6808,,,,,,130,microwave,yogurt,,90329,001,2022-04-29_11h47.30.771,SPAMnetsValid,2021.1.4,Win32,59.97720866,,,,,,,,,,,,,2,2.6808,0,83,83,84,1,,,,,,,,,,,,,,,,,,,,,,,,,,,,,,,,,,,,,,,,,,,,,,,,,,,,,,,,,,,,,,,,,,,,,,
,,,,2,3.373400001,,,,,,183,cake,rose,,90329,001,2022-04-29_11h47.30.771,SPAMnetsValid,2021.1.4,Win32,59.97720866,,,,,,,,,,,,,2,3.373400001,0,84,84,19,1,,,,,,,,,,,,,,,,,,,,,,,,,,,,,,,,,,,,,,,,,,,,,,,,,,,,,,,,,,,,,,,,,,,,,,
,,,,9,1.6145,,,,,,142,garden,tree,,90329,001,2022-04-29_11h47.30.771,SPAMnetsValid,2021.1.4,Win32,59.97720866,,,,,,,,,,,,,9,1.6145,0,85,85,22,1,,,,,,,,,,,,,,,,,,,,,,,,,,,,,,,,,,,,,,,,,,,,,,,,,,,,,,,,,,,,,,,,,,,,,,
,,,,4,2.4392,,,,,,174,cake,pretzel,,90329,001,2022-04-29_11h47.30.771,SPAMnetsValid,2021.1.4,Win32,59.97720866,,,,,,,,,,,,,4,2.4392,0,86,86,2,1,,,,,,,,,,,,,,,,,,,,,,,,,,,,,,,,,,,,,,,,,,,,,,,,,,,,,,,,,,,,,,,,,,,,,,
,,,,7,1.2575,,,,,,121,broom,microwave,,90329,001,2022-04-29_11h47.30.771,SPAMnetsValid,2021.1.4,Win32,59.97720866,,,,,,,,,,,,,7,1.2575,0,87,87,95,1,,,,,,,,,,,,,,,,,,,,,,,,,,,,,,,,,,,,,,,,,,,,,,,,,,,,,,,,,,,,,,,,,,,,,,
,,,,8,1.7487,,,,,,124,oven,refrigerator,,90329,001,2022-04-29_11h47.30.771,SPAMnetsValid,2021.1.4,Win32,59.97720866,,,,,,,,,,,,,8,1.7487,0,88,88,69,1,,,,,,,,,,,,,,,,,,,,,,,,,,,,,,,,,,,,,,,,,,,,,,,,,,,,,,,,,,,,,,,,,,,,,,
,,,,9,1.606200001,,,,,,110,chocolate,cookie,,90329,001,2022-04-29_11h47.30.771,SPAMnetsValid,2021.1.4,Win32,59.97720866,,,,,,,,,,,,,9,1.606200001,0,89,89,52,1,,,,,,,,,,,,,,,,,,,,,,,,,,,,,,,,,,,,,,,,,,,,,,,,,,,,,,,,,,,,,,,,,,,,,,
,,,,3,1.8805,,,,,,104,garden,microwave,,90329,001,2022-04-29_11h47.30.771,SPAMnetsValid,2021.1.4,Win32,59.97720866,,,,,,,,,,,,,3,1.8805,0,90,90,81,1,,,,,,,,,,,,,,,,,,,,,,,,,,,,,,,,,,,,,,,,,,,,,,,,,,,,,,,,,,,,,,,,,,,,,,
,,,,1,3.5903,,,,,,98,pretzel,strawberry,,90329,001,2022-04-29_11h47.30.771,SPAMnetsValid,2021.1.4,Win32,59.97720866,,,,,,,,,,,,,1,3.5903,0,91,91,82,1,,,,,,,,,,,,,,,,,,,,,,,,,,,,,,,,,,,,,,,,,,,,,,,,,,,,,,,,,,,,,,,,,,,,,,
,,,,9,1.126,,,,,,138,flower,rose,,90329,001,2022-04-29_11h47.30.771,SPAMnetsValid,2021.1.4,Win32,59.97720866,,,,,,,,,,,,,9,1.126,0,92,92,61,1,,,,,,,,,,,,,,,,,,,,,,,,,,,,,,,,,,,,,,,,,,,,,,,,,,,,,,,,,,,,,,,,,,,,,,
,,,,2,2.9054,,,,,,126,kitchen,tree,,90329,001,2022-04-29_11h47.30.771,SPAMnetsValid,2021.1.4,Win32,59.97720866,,,,,,,,,,,,,2,2.9054,0,93,93,50,1,,,,,,,,,,,,,,,,,,,,,,,,,,,,,,,,,,,,,,,,,,,,,,,,,,,,,,,,,,,,,,,,,,,,,,
,,,,1,1.2982,,,,,,123,cookie,tree,,90329,001,2022-04-29_11h47.30.771,SPAMnetsValid,2021.1.4,Win32,59.97720866,,,,,,,,,,,,,1,1.2982,0,94,94,46,1,,,,,,,,,,,,,,,,,,,,,,,,,,,,,,,,,,,,,,,,,,,,,,,,,,,,,,,,,,,,,,,,,,,,,,
,,,,5,1.8392,,,,,,106,cake,strawberry,,90329,001,2022-04-29_11h47.30.771,SPAMnetsValid,2021.1.4,Win32,59.97720866,,,,,,,,,,,,,5,1.8392,0,95,95,0,1,,,,,,,,,,,,,,,,,,,,,,,,,,,,,,,,,,,,,,,,,,,,,,,,,,,,,,,,,,,,,,,,,,,,,,
,,,,9,1.3557,,,,,,122,flower,garden,,90329,001,2022-04-29_11h47.30.771,SPAMnetsValid,2021.1.4,Win32,59.97720866,,,,,,,,,,,,,9,1.3557,0,96,96,60,1,,,,,,,,,,,,,,,,,,,,,,,,,,,,,,,,,,,,,,,,,,,,,,,,,,,,,,,,,,,,,,,,,,,,,,
,,,,,,,,,,,,,,,90329,001,2022-04-29_11h47.30.771,SPAMnetsValid,2021.1.4,Win32,59.97720866,,,,,,,,,,,,,,,,,,,,0,0,0,0,1,,,,,,,,,,,,,,,,,,,,,,,,,,,,,,,,,,,,,,,,,,,,,,,,,,,,,,,,,,,,,,,,,
,,,,,,,,,,,,,,,90329,001,2022-04-29_11h47.30.771,SPAMnetsValid,2021.1.4,Win32,59.97720866,,,,,,0,1,1,1,1,0,1,,,,,,,,,,,,,,,,,,,,,,,,,,,,,,,,,,,,,,,,,,,,,,,,,,,,,,,,,,,,,,,,,,,,,,,,,,,,,
,,,,,,,,,,,,,,,90329,001,2022-04-29_11h47.30.771,SPAMnetsValid,2021.1.4,Win32,59.97720866,,,,,,,,,,,,,,,,,,,,,,,,,1,14.6326,0,0,0,0,1,rancor,forbearance,ridicule,malice,bravery,3,,,,,,,,,,,,,,,,,,,,,,,,,,,,,,,,,,,,,,,,,,,,,,,,,,,,
,,,,,,,,,,,,,,,90329,001,2022-04-29_11h47.30.771,SPAMnetsValid,2021.1.4,Win32,59.97720866,,,,,,,,,,,,,,,,,,,,,,,,,4,4.541,0,1,1,1,1,raucous,empty,quiet,smooth,harsh,4,,,,,,,,,,,,,,,,,,,,,,,,,,,,,,,,,,,,,,,,,,,,,,,,,,,,
,,,,,,,,,,,,,,,90329,001,2022-04-29_11h47.30.771,SPAMnetsValid,2021.1.4,Win32,59.97720866,,,,,,,,,,,,,,,,,,,,,,,,,3,7.5724,0,2,2,2,1,gargoyle,oil,medicine,carved waterspout,ugly building,3,,,,,,,,,,,,,,,,,,,,,,,,,,,,,,,,,,,,,,,,,,,,,,,,,,,,
,,,,,,,,,,,,,,,90329,001,2022-04-29_11h47.30.771,SPAMnetsValid,2021.1.4,Win32,59.97720866,,,,,,,,,,,,,,,,,,,,,,,,,3,5.9259,0,3,3,3,1,recrudesce,purify,renew activity,lack refinement,crush,2,,,,,,,,,,,,,,,,,,,,,,,,,,,,,,,,,,,,,,,,,,,,,,,,,,,,
,,,,,,,,,,,,,,,90329,001,2022-04-29_11h47.30.771,SPAMnetsValid,2021.1.4,Win32,59.97720866,,,,,,,,,,,,,,,,,,,,,,,,,4,6.3844,0,4,4,4,1,specious,"plausible, but not genuine",noteworthy,class or variety,roomy,1,,,,,,,,,,,,,,,,,,,,,,,,,,,,,,,,,,,,,,,,,,,,,,,,,,,,
,,,,,,,,,,,,,,,90329,001,2022-04-29_11h47.30.771,SPAMnetsValid,2021.1.4,Win32,59.97720866,,,,,,,,,,,,,,,,,,,,,,,,,3,3.1848,0,5,5,5,1,bauble,bubble,showy plaything,idle talk,confusion,2,,,,,,,,,,,,,,,,,,,,,,,,,,,,,,,,,,,,,,,,,,,,,,,,,,,,
,,,,,,,,,,,,,,,90329,001,2022-04-29_11h47.30.771,SPAMnetsValid,2021.1.4,Win32,59.97720866,,,,,,,,,,,,,,,,,,,,,,,,,4,6.3857,0,6,6,6,1,prolific,scarce,producing abundantly,reckless,speaking profanely,2,,,,,,,,,,,,,,,,,,,,,,,,,,,,,,,,,,,,,,,,,,,,,,,,,,,,
,,,,,,,,,,,,,,,90329,001,2022-04-29_11h47.30.771,SPAMnetsValid,2021.1.4,Win32,59.97720866,,,,,,,,,,,,,,,,,,,,,,,,,2,6.1253,0,7,7,7,1,opulent,party,wealthy,happy frame of mind,semiprecious stone,2,,,,,,,,,,,,,,,,,,,,,,,,,,,,,,,,,,,,,,,,,,,,,,,,,,,,
,,,,,,,,,,,,,,,90329,001,2022-04-29_11h47.30.771,SPAMnetsValid,2021.1.4,Win32,59.97720866,,,,,,,,,,,,,,,,,,,,,,,,,4,3.432900001,0,8,8,8,1,coercion,conspiracy,strategy,restraint,attraction,3,,,,,,,,,,,,,,,,,,,,,,,,,,,,,,,,,,,,,,,,,,,,,,,,,,,,
,,,,,,,,,,,,,,,90329,001,2022-04-29_11h47.30.771,SPAMnetsValid,2021.1.4,Win32,59.97720866,,,,,,,,,,,,,,,,,,,,,,,,,4,3.6579,0,9,9,9,1,hiatus,animal,calamity,dread,gap,4,,,,,,,,,,,,,,,,,,,,,,,,,,,,,,,,,,,,,,,,,,,,,,,,,,,,
,,,,,,,,,,,,,,,90329,001,2022-04-29_11h47.30.771,SPAMnetsValid,2021.1.4,Win32,59.97720866,,,,,,,,,,,,,,,,,,,,,,,,,4,5.9249,0,10,10,10,1,germane,microbe,contagious,relevant,different,3,,,,,,,,,,,,,,,,,,,,,,,,,,,,,,,,,,,,,,,,,,,,,,,,,,,,
,,,,,,,,,,,,,,,90329,001,2022-04-29_11h47.30.771,SPAMnetsValid,2021.1.4,Win32,59.97720866,,,,,,,,,,,,,,,,,,,,,,,,,3,5.4158,0,11,11,11,1,perfunctory,fundamental,formal,superficial,careful,3,,,,,,,,,,,,,,,,,,,,,,,,,,,,,,,,,,,,,,,,,,,,,,,,,,,,
,,,,,,,,,,,,,,,90329,001,2022-04-29_11h47.30.771,SPAMnetsValid,2021.1.4,Win32,59.97720866,,,,,,,,,,,,,,,,,,,,,,,,,4,4.521,0,12,12,12,1,diverge,reveal,chant,distract the attention of,differ or turn off from,4,,,,,,,,,,,,,,,,,,,,,,,,,,,,,,,,,,,,,,,,,,,,,,,,,,,,
,,,,,,,,,,,,,,,90329,001,2022-04-29_11h47.30.771,SPAMnetsValid,2021.1.4,Win32,59.97720866,,,,,,,,,,,,,,,,,,,,,,,,,4,5.064799999,0,13,13,13,1,evoke,take away,anger,connect,bring out,4,,,,,,,,,,,,,,,,,,,,,,,,,,,,,,,,,,,,,,,,,,,,,,,,,,,,
,,,,,,,,,,,,,,,90329,001,2022-04-29_11h47.30.771,SPAMnetsValid,2021.1.4,Win32,59.97720866,,,,,,,,,,,,,,,,,,,,,,,,,1,2.3915,0,14,14,14,1,pertinent,relevant,lying next to,necessary,bold,1,,,,,,,,,,,,,,,,,,,,,,,,,,,,,,,,,,,,,,,,,,,,,,,,,,,,
,,,,,,,,,,,,,,,90329,001,2022-04-29_11h47.30.771,SPAMnetsValid,2021.1.4,Win32,59.97720866,,,,,,,,,,,,,,,,,,,,,,,,,2,2.646099999,0,15,15,15,1,holocaust,entirety,destruction,saintly,price,2,,,,,,,,,,,,,,,,,,,,,,,,,,,,,,,,,,,,,,,,,,,,,,,,,,,,
,,,,,,,,,,,,,,,90329,001,2022-04-29_11h47.30.771,SPAMnetsValid,2021.1.4,Win32,59.97720866,,,,,,,,,,,,,,,,,,,,,,,,,1,8.5091,0,16,16,16,1,piquant,mellow,fish,pungent,cloth,3,,,,,,,,,,,,,,,,,,,,,,,,,,,,,,,,,,,,,,,,,,,,,,,,,,,,
,,,,,,,,,,,,,,,90329,001,2022-04-29_11h47.30.771,SPAMnetsValid,2021.1.4,Win32,59.97720866,,,,,,,,,,,,,,,,,,,,,,,,,2,5.133700001,0,17,17,17,1,firmament,foundation,heavens,strong,glue,2,,,,,,,,,,,,,,,,,,,,,,,,,,,,,,,,,,,,,,,,,,,,,,,,,,,,
,,,,,,,,,,,,,,,90329,001,2022-04-29_11h47.30.771,SPAMnetsValid,2021.1.4,Win32,59.97720866,,,,,,,,,,,,,,,,,,,,,,,,,,,,,,,,,,,,,,4,5.840099999,0,0,0,0,1,marketable,partisan,jocular,marriageable,salable,essential,4,,,,,,,,,,,,,,,,,,,,,,,,,,,,,,,,,,,,,,
,,,,,,,,,,,,,,,90329,001,2022-04-29_11h47.30.771,SPAMnetsValid,2021.1.4,Win32,59.97720866,,,,,,,,,,,,,,,,,,,,,,,,,,,,,,,,,,,,,,5,4.017400001,0,1,1,1,1,cottontail,squirrel,poplar,boa,marshy plant,rabbit,5,,,,,,,,,,,,,,,,,,,,,,,,,,,,,,,,,,,,,,
,,,,,,,,,,,,,,,90329,001,2022-04-29_11h47.30.771,SPAMnetsValid,2021.1.4,Win32,59.97720866,,,,,,,,,,,,,,,,,,,,,,,,,,,,,,,,,,,,,,3,2.5643,0,2,2,2,1,boggy,afraid,false,marshy,dense,black,3,,,,,,,,,,,,,,,,,,,,,,,,,,,,,,,,,,,,,,
,,,,,,,,,,,,,,,90329,001,2022-04-29_11h47.30.771,SPAMnetsValid,2021.1.4,Win32,59.97720866,,,,,,,,,,,,,,,,,,,,,,,,,,,,,,,,,,,,,,5,5.3667,0,3,3,3,1,gruesomeness,blackness,falseness,vindictiveness,drunkenness,ghastliness,5,,,,,,,,,,,,,,,,,,,,,,,,,,,,,,,,,,,,,,
,,,,,,,,,,,,,,,90329,001,2022-04-29_11h47.30.771,SPAMnetsValid,2021.1.4,Win32,59.97720866,,,,,,,,,,,,,,,,,,,,,,,,,,,,,,,,,,,,,,3,4.698,0,4,4,4,1,loathing,diffidence,laziness,abhorrence,cleverness,comfort,3,,,,,,,,,,,,,,,,,,,,,,,,,,,,,,,,,,,,,,
,,,,,,,,,,,,,,,90329,001,2022-04-29_11h47.30.771,SPAMnetsValid,2021.1.4,Win32,59.97720866,,,,,,,,,,,,,,,,,,,,,,,,,,,,,,,,,,,,,,3,7.1305,0,5,5,5,1,bantam,fowl,ridicule,cripple,vegetable,ensign,1,,,,,,,,,,,,,,,,,,,,,,,,,,,,,,,,,,,,,,
,,,,,,,,,,,,,,,90329,001,2022-04-29_11h47.30.771,SPAMnetsValid,2021.1.4,Win32,59.97720866,,,,,,,,,,,,,,,,,,,,,,,,,,,,,,,,,,,,,,5,2.7658,0,6,6,6,1,evoke,wake up,surrender,reconnoiter,transcend,call forth,5,,,,,,,,,,,,,,,,,,,,,,,,,,,,,,,,,,,,,,
,,,,,,,,,,,,,,,90329,001,2022-04-29_11h47.30.771,SPAMnetsValid,2021.1.4,Win32,59.97720866,,,,,,,,,,,,,,,,,,,,,,,,,,,,,,,,,,,,,,4,4.3341,0,7,7,7,1,unobtrusive,unintelligent,epileptic,illogical,lineal,modest,5,,,,,,,,,,,,,,,,,,,,,,,,,,,,,,,,,,,,,,
,,,,,,,,,,,,,,,90329,001,2022-04-29_11h47.30.771,SPAMnetsValid,2021.1.4,Win32,59.97720866,,,,,,,,,,,,,,,,,,,,,,,,,,,,,,,,,,,,,,4,5.5773,0,8,8,8,1,terrain,ice cream,final test,tractor,area of ground,weight,4,,,,,,,,,,,,,,,,,,,,,,,,,,,,,,,,,,,,,,
,,,,,,,,,,,,,,,90329,001,2022-04-29_11h47.30.771,SPAMnetsValid,2021.1.4,Win32,59.97720866,,,,,,,,,,,,,,,,,,,,,,,,,,,,,,,,,,,,,,1,7.6771,0,9,9,9,1,capriciousness,stubbornness,courage,whimsicality,amazement,greediness,3,,,,,,,,,,,,,,,,,,,,,,,,,,,,,,,,,,,,,,
,,,,,,,,,,,,,,,90329,001,2022-04-29_11h47.30.771,SPAMnetsValid,2021.1.4,Win32,59.97720866,,,,,,,,,,,,,,,,,,,,,,,,,,,,,,,,,,,,,,2,2.4084,0,10,10,10,1,maelstrom,slander,whirlpool,enmity,armor,majolica,2,,,,,,,,,,,,,,,,,,,,,,,,,,,,,,,,,,,,,,
,,,,,,,,,,,,,,,90329,001,2022-04-29_11h47.30.771,SPAMnetsValid,2021.1.4,Win32,59.97720866,,,,,,,,,,,,,,,,,,,,,,,,,,,,,,,,,,,,,,3,10.7413,0,11,11,11,1,tentative,critical,conclusive,authentic,provisional,apprehensive,4,,,,,,,,,,,,,,,,,,,,,,,,,,,,,,,,,,,,,,
,,,,,,,,,,,,,,,90329,001,2022-04-29_11h47.30.771,SPAMnetsValid,2021.1.4,Win32,59.97720866,,,,,,,,,,,,,,,,,,,,,,,,,,,,,,,,,,,,,,3,6.905099999,0,12,12,12,1,placate,rehabilitate,plagiarize,depredate,apprise,conciliate,5,,,,,,,,,,,,,,,,,,,,,,,,,,,,,,,,,,,,,,
,,,,,,,,,,,,,,,90329,001,2022-04-29_11h47.30.771,SPAMnetsValid,2021.1.4,Win32,59.97720866,,,,,,,,,,,,,,,,,,,,,,,,,,,,,,,,,,,,,,2,14.6909,0,13,13,13,1,surcease,enlightenment,cessation,inattention,censor,substitution,2,,,,,,,,,,,,,,,,,,,,,,,,,,,,,,,,,,,,,,
,,,,,,,,,,,,,,,90329,001,2022-04-29_11h47.30.771,SPAMnetsValid,2021.1.4,Win32,59.97720866,,,,,,,,,,,,,,,,,,,,,,,,,,,,,,,,,,,,,,3,4.3757,0,14,14,14,1,apathetic,wandering,impassive,hateful,prophetic,overflowing,2,,,,,,,,,,,,,,,,,,,,,,,,,,,,,,,,,,,,,,
,,,,,,,,,,,,,,,90329,001,2022-04-29_11h47.30.771,SPAMnetsValid,2021.1.4,Win32,59.97720866,,,,,,,,,,,,,,,,,,,,,,,,,,,,,,,,,,,,,,1,10.6669,0,15,15,15,1,paternoster,paternalism,patricide,malediction,benediction,prayer,5,,,,,,,,,,,,,,,,,,,,,,,,,,,,,,,,,,,,,,
,,,,,,,,,,,,,,,90329,001,2022-04-29_11h47.30.771,SPAMnetsValid,2021.1.4,Win32,59.97720866,,,,,,,,,,,,,,,,,,,,,,,,,,,,,,,,,,,,,,1,2.2725,0,16,16,16,1,opalescence,opulence,senescence,bankruptcy,iridescence,assiduity,4,,,,,,,,,,,,,,,,,,,,,,,,,,,,,,,,,,,,,,
,,,,,,,,,,,,,,,90329,001,2022-04-29_11h47.30.771,SPAMnetsValid,2021.1.4,Win32,59.97720866,,,,,,,,,,,,,,,,,,,,,,,,,,,,,,,,,,,,,,2,1.8914,0,17,17,17,1,lush,stupid,luxurious,hazy,putrid,languishing,2,,,,,,,,,,,,,,,,,,,,,,,,,,,,,,,,,,,,,,
,,,,,,,,,,,,,,,90329,001,2022-04-29_11h47.30.771,SPAMnetsValid,2021.1.4,Win32,59.97720866,,,,,,,,,,,,,,,,,,,,,,,,,,,,,,,,,,,,,,5,5.264900001,0,18,18,18,1,curtailment,expenditure,abandonment,abridgment,improvement,forgery,3,,,,,,,,,,,,,,,,,,,,,,,,,,,,,,,,,,,,,,
,,,,,,,,,,,,,,,90329,001,2022-04-29_11h47.30.771,SPAMnetsValid,2021.1.4,Win32,59.97720866,,,,,,,,,,,,,,,,,,,,,,,,,,,,,,,,,,,,,,4,5.923700001,0,19,19,19,1,perversity,adversity,perviousness,travesty,waywardness,gentility,4,,,,,,,,,,,,,,,,,,,,,,,,,,,,,,,,,,,,,,
,,,,,,,,,,,,,,,90329,001,2022-04-29_11h47.30.771,SPAMnetsValid,2021.1.4,Win32,59.97720866,,,,,,,,,,,,,,,,,,,,,,,,,,,,,,,,,,,,,,1,8.383799999,0,20,20,20,1,calumnious,complimentary,analogous,slanderous,tempestuous,magnanimous,3,,,,,,,,,,,,,,,,,,,,,,,,,,,,,,,,,,,,,,
,,,,,,,,,,,,,,,90329,001,2022-04-29_11h47.30.771,SPAMnetsValid,2021.1.4,Win32,59.97720866,,,,,,,,,,,,,,,,,,,,,,,,,,,,,,,,,,,,,,2,8.2867,0,21,21,21,1,illiberality,bigotry,imbecility,illegibility,cautery,immaturity,1,,,,,,,,,,,,,,,,,,,,,,,,,,,,,,,,,,,,,,
,,,,,,,,,,,,,,,90329,001,2022-04-29_11h47.30.771,SPAMnetsValid,2021.1.4,Win32,59.97720866,,,,,,,,,,,,,,,,,,,,,,,,,,,,,,,,,,,,,,2,2.258900001,0,22,22,22,1,clabber,rejoice,gossip,curdle,crow,hobble,3,,,,,,,,,,,,,,,,,,,,,,,,,,,,,,,,,,,,,,
,,,,,,,,,,,,,,,90329,001,2022-04-29_11h47.30.771,SPAMnetsValid,2021.1.4,Win32,59.97720866,,,,,,,,,,,,,,,,,,,,,,,,,,,,,,,,,,,,,,3,6.050700001,0,23,23,23,1,sedulousness,diligence,credulousness,seduction,perilousness,frankness,1,,,,,,,,,,,,,,,,,,,,,,,,,,,,,,,,,,,,,,
,,,,,,,,,,,,,,,90329,001,2022-04-29_11h47.30.771,SPAMnetsValid,2021.1.4,Win32,59.97720866,,,,,,,,,,,,,,,,,,,,,,,,,,,,,,,,,,,,,,,,,,,,,,,,,,,,collect asteroids,bucket,0,0,0,0,1,,,,,,,,,,,,,,,,,,,,,,,,,,,,,,,
,,,,,,,,,,,,,,,90329,001,2022-04-29_11h47.30.771,SPAMnetsValid,2021.1.4,Win32,59.97720866,,,,,,,,,,,,,,,,,,,,,,,,,,,,,,,,,,,,,,,,,,,,,,,,,,,,sandcastles,bucket,1,0,1,0,1,,,,,,,,,,,,,,,,,,,,,,,,,,,,,,,
,,,,,,,,,,,,,,,90329,001,2022-04-29_11h47.30.771,SPAMnetsValid,2021.1.4,Win32,59.97720866,,,,,,,,,,,,,,,,,,,,,,,,,,,,,,,,,,,,,,,,,,,,,,,,,,,,use as a seat,bucket,2,0,2,0,1,,,,,,,,,,,,,,,,,,,,,,,,,,,,,,,
,,,,,,,,,,,,,,,90329,001,2022-04-29_11h47.30.771,SPAMnetsValid,2021.1.4,Win32,59.97720866,,,,,,,,,,,,,,,,,,,,,,,,,,,,,,,,,,,,,,,,,,,,,,,,,,,,weaponized,bucket,3,0,3,0,1,,,,,,,,,,,,,,,,,,,,,,,,,,,,,,,
,,,,,,,,,,,,,,,90329,001,2022-04-29_11h47.30.771,SPAMnetsValid,2021.1.4,Win32,59.97720866,,,,,,,,,,,,,,,,,,,,,,,,,,,,,,,,,,,,,,,,,,,,,,,,,,,,helmet,bucket,4,0,4,0,1,,,,,,,,,,,,,,,,,,,,,,,,,,,,,,,
,,,,,,,,,,,,,,,90329,001,2022-04-29_11h47.30.771,SPAMnetsValid,2021.1.4,Win32,59.97720866,,,,,,,,,,,,,,,,,,,,,,,,,,,,,,,,,,,,,,,,,,,,,,,,,,,,put fish in,bucket,5,0,5,0,1,,,,,,,,,,,,,,,,,,,,,,,,,,,,,,,
,,,,,,,,,,,,,,,90329,001,2022-04-29_11h47.30.771,SPAMnetsValid,2021.1.4,Win32,59.97720866,,,,,,,,,,,,,,,,,,,,,,,,,,,,,,,,,,,,,,,,,,,,,,,,,,,,hold clothes,bucket,6,0,6,0,1,,,,,,,,,,,,,,,,,,,,,,,,,,,,,,,
,,,,,,,,,,,,,,,90329,001,2022-04-29_11h47.30.771,SPAMnetsValid,2021.1.4,Win32,59.97720866,,,,,,,,,,,,,,,,,,,,,,,,,,,,,,,,,,,,,,,,,,,,,,,,,,,,wheel on its side,bucket,7,0,7,0,1,,,,,,,,,,,,,,,,,,,,,,,,,,,,,,,
,,,,,,,,,,,,,,,90329,001,2022-04-29_11h47.30.771,SPAMnetsValid,2021.1.4,Win32,59.97720866,,,,,,,,,,,,,,,,,,,,,,,,,,,,,,,,,,,,,,,,,,,,,,,,,,,,wear as a shoe,bucket,8,0,8,0,1,,,,,,,,,,,,,,,,,,,,,,,,,,,,,,,
,,,,,,,,,,,,,,,90329,001,2022-04-29_11h47.30.771,SPAMnetsValid,2021.1.4,Win32,59.97720866,,,,,,,,,,,,,,,,,,,,,,,,,,,,,,,,,,,,,,,,,,,,,,,,,,,,,,,,,,,0,0,0,0,1,bucket,,,,,,,,,,,,,,,,,,,,,,,,,
,,,,,,,,,,,,,,,90329,001,2022-04-29_11h47.30.771,SPAMnetsValid,2021.1.4,Win32,59.97720866,,,,,,,,,,,,,,,,,,,,,,,,,,,,,,,,,,,,,,,,,,,,,,,,,,,,food source,candle,0,0,0,0,1,,,,,,,,,,,,,,,,,,,,,,,,,,,,,,,
,,,,,,,,,,,,,,,90329,001,2022-04-29_11h47.30.771,SPAMnetsValid,2021.1.4,Win32,59.97720866,,,,,,,,,,,,,,,,,,,,,,,,,,,,,,,,,,,,,,,,,,,,,,,,,,,,burn it then use as a pencil,candle,1,0,1,0,1,,,,,,,,,,,,,,,,,,,,,,,,,,,,,,,
,,,,,,,,,,,,,,,90329,001,2022-04-29_11h47.30.771,SPAMnetsValid,2021.1.4,Win32,59.97720866,,,,,,,,,,,,,,,,,,,,,,,,,,,,,,,,,,,,,,,,,,,,,,,,,,,,replacement for wood when widdling,candle,2,0,2,0,1,,,,,,,,,,,,,,,,,,,,,,,,,,,,,,,
,,,,,,,,,,,,,,,90329,001,2022-04-29_11h47.30.771,SPAMnetsValid,2021.1.4,Win32,59.97720866,,,,,,,,,,,,,,,,,,,,,,,,,,,,,,,,,,,,,,,,,,,,,,,,,,,,burn to purify water,candle,3,0,3,0,1,,,,,,,,,,,,,,,,,,,,,,,,,,,,,,,
,,,,,,,,,,,,,,,90329,001,2022-04-29_11h47.30.771,SPAMnetsValid,2021.1.4,Win32,59.97720866,,,,,,,,,,,,,,,,,,,,,,,,,,,,,,,,,,,,,,,,,,,,,,,,,,,,burn to push bugs away,candle,4,0,4,0,1,,,,,,,,,,,,,,,,,,,,,,,,,,,,,,,
,,,,,,,,,,,,,,,90329,001,2022-04-29_11h47.30.771,SPAMnetsValid,2021.1.4,Win32,59.97720866,,,,,,,,,,,,,,,,,,,,,,,,,,,,,,,,,,,,,,,,,,,,,,,,,,,,,,,,,,,0,1,1,1,1,candle,,,,,,,,,,,,,,,,,,,,,,,,,
,,,,,,,,,,,,,,,90329,001,2022-04-29_11h47.30.771,SPAMnetsValid,2021.1.4,Win32,59.97720866,,,,,,,,,,,,,,,,,,,,,,,,,,,,,,,,,,,,,,,,,,,,,,,,,,,,landing pad,pillow,0,0,0,0,1,,,,,,,,,,,,,,,,,,,,,,,,,,,,,,,
,,,,,,,,,,,,,,,90329,001,2022-04-29_11h47.30.771,SPAMnetsValid,2021.1.4,Win32,59.97720866,,,,,,,,,,,,,,,,,,,,,,,,,,,,,,,,,,,,,,,,,,,,,,,,,,,,use as a cushion in a makeshift weightlifting belt  with chain,pillow,1,0,1,0,1,,,,,,,,,,,,,,,,,,,,,,,,,,,,,,,
,,,,,,,,,,,,,,,90329,001,2022-04-29_11h47.30.771,SPAMnetsValid,2021.1.4,Win32,59.97720866,,,,,,,,,,,,,,,,,,,,,,,,,,,,,,,,,,,,,,,,,,,,,,,,,,,,insulation,pillow,2,0,2,0,1,,,,,,,,,,,,,,,,,,,,,,,,,,,,,,,
,,,,,,,,,,,,,,,90329,001,2022-04-29_11h47.30.771,SPAMnetsValid,2021.1.4,Win32,59.97720866,,,,,,,,,,,,,,,,,,,,,,,,,,,,,,,,,,,,,,,,,,,,,,,,,,,,back support on uncomfortable chairs or objects,pillow,3,0,3,0,1,,,,,,,,,,,,,,,,,,,,,,,,,,,,,,,
,,,,,,,,,,,,,,,90329,001,2022-04-29_11h47.30.771,SPAMnetsValid,2021.1.4,Win32,59.97720866,,,,,,,,,,,,,,,,,,,,,,,,,,,,,,,,,,,,,,,,,,,,,,,,,,,,fire starter,pillow,4,0,4,0,1,,,,,,,,,,,,,,,,,,,,,,,,,,,,,,,
,,,,,,,,,,,,,,,90329,001,2022-04-29_11h47.30.771,SPAMnetsValid,2021.1.4,Win32,59.97720866,,,,,,,,,,,,,,,,,,,,,,,,,,,,,,,,,,,,,,,,,,,,,,,,,,,,"absorbant for water when in need of collection, survival",pillow,5,0,5,0,1,,,,,,,,,,,,,,,,,,,,,,,,,,,,,,,
,,,,,,,,,,,,,,,90329,001,2022-04-29_11h47.30.771,SPAMnetsValid,2021.1.4,Win32,59.97720866,,,,,,,,,,,,,,,,,,,,,,,,,,,,,,,,,,,,,,,,,,,,,,,,,,,,,,,,,,,0,2,2,2,1,pillow,,,,,,,,,,,,,,,,,,,,,,,,,
,,,,,,,,,,,,,,,90329,001,2022-04-29_11h47.30.771,SPAMnetsValid,2021.1.4,Win32,59.97720866,,,,,,,,,,,,,,,,,,,,,,,,,,,,,,,,,,,,,,,,,,,,,,,,,,,,,,,,,,,,,,,,,cow,Animals,0,0,0,0,1,,,,,,,,,,,,,,,,,,
,,,,,,,,,,,,,,,90329,001,2022-04-29_11h47.30.771,SPAMnetsValid,2021.1.4,Win32,59.97720866,,,,,,,,,,,,,,,,,,,,,,,,,,,,,,,,,,,,,,,,,,,,,,,,,,,,,,,,,,,,,,,,,dog,Animals,1,0,1,0,1,,,,,,,,,,,,,,,,,,
,,,,,,,,,,,,,,,90329,001,2022-04-29_11h47.30.771,SPAMnetsValid,2021.1.4,Win32,59.97720866,,,,,,,,,,,,,,,,,,,,,,,,,,,,,,,,,,,,,,,,,,,,,,,,,,,,,,,,,,,,,,,,,cat,Animals,2,0,2,0,1,,,,,,,,,,,,,,,,,,
,,,,,,,,,,,,,,,90329,001,2022-04-29_11h47.30.771,SPAMnetsValid,2021.1.4,Win32,59.97720866,,,,,,,,,,,,,,,,,,,,,,,,,,,,,,,,,,,,,,,,,,,,,,,,,,,,,,,,,,,,,,,,,horse,Animals,3,0,3,0,1,,,,,,,,,,,,,,,,,,
,,,,,,,,,,,,,,,90329,001,2022-04-29_11h47.30.771,SPAMnetsValid,2021.1.4,Win32,59.97720866,,,,,,,,,,,,,,,,,,,,,,,,,,,,,,,,,,,,,,,,,,,,,,,,,,,,,,,,,,,,,,,,,shark,Animals,4,0,4,0,1,,,,,,,,,,,,,,,,,,
,,,,,,,,,,,,,,,90329,001,2022-04-29_11h47.30.771,SPAMnetsValid,2021.1.4,Win32,59.97720866,,,,,,,,,,,,,,,,,,,,,,,,,,,,,,,,,,,,,,,,,,,,,,,,,,,,,,,,,,,,,,,,,baracuda,Animals,5,0,5,0,1,,,,,,,,,,,,,,,,,,
,,,,,,,,,,,,,,,90329,001,2022-04-29_11h47.30.771,SPAMnetsValid,2021.1.4,Win32,59.97720866,,,,,,,,,,,,,,,,,,,,,,,,,,,,,,,,,,,,,,,,,,,,,,,,,,,,,,,,,,,,,,,,,whale,Animals,6,0,6,0,1,,,,,,,,,,,,,,,,,,
,,,,,,,,,,,,,,,90329,001,2022-04-29_11h47.30.771,SPAMnetsValid,2021.1.4,Win32,59.97720866,,,,,,,,,,,,,,,,,,,,,,,,,,,,,,,,,,,,,,,,,,,,,,,,,,,,,,,,,,,,,,,,,bass,Animals,7,0,7,0,1,,,,,,,,,,,,,,,,,,
,,,,,,,,,,,,,,,90329,001,2022-04-29_11h47.30.771,SPAMnetsValid,2021.1.4,Win32,59.97720866,,,,,,,,,,,,,,,,,,,,,,,,,,,,,,,,,,,,,,,,,,,,,,,,,,,,,,,,,,,,,,,,,crappie,Animals,8,0,8,0,1,,,,,,,,,,,,,,,,,,
,,,,,,,,,,,,,,,90329,001,2022-04-29_11h47.30.771,SPAMnetsValid,2021.1.4,Win32,59.97720866,,,,,,,,,,,,,,,,,,,,,,,,,,,,,,,,,,,,,,,,,,,,,,,,,,,,,,,,,,,,,,,,,panfish,Animals,9,0,9,0,1,,,,,,,,,,,,,,,,,,
,,,,,,,,,,,,,,,90329,001,2022-04-29_11h47.30.771,SPAMnetsValid,2021.1.4,Win32,59.97720866,,,,,,,,,,,,,,,,,,,,,,,,,,,,,,,,,,,,,,,,,,,,,,,,,,,,,,,,,,,,,,,,,bluegill,Animals,10,0,10,0,1,,,,,,,,,,,,,,,,,,
,,,,,,,,,,,,,,,90329,001,2022-04-29_11h47.30.771,SPAMnetsValid,2021.1.4,Win32,59.97720866,,,,,,,,,,,,,,,,,,,,,,,,,,,,,,,,,,,,,,,,,,,,,,,,,,,,,,,,,,,,,,,,,warmouth,Animals,11,0,11,0,1,,,,,,,,,,,,,,,,,,
,,,,,,,,,,,,,,,90329,001,2022-04-29_11h47.30.771,SPAMnetsValid,2021.1.4,Win32,59.97720866,,,,,,,,,,,,,,,,,,,,,,,,,,,,,,,,,,,,,,,,,,,,,,,,,,,,,,,,,,,,,,,,,zebra,Animals,12,0,12,0,1,,,,,,,,,,,,,,,,,,
,,,,,,,,,,,,,,,90329,001,2022-04-29_11h47.30.771,SPAMnetsValid,2021.1.4,Win32,59.97720866,,,,,,,,,,,,,,,,,,,,,,,,,,,,,,,,,,,,,,,,,,,,,,,,,,,,,,,,,,,,,,,,,lion,Animals,13,0,13,0,1,,,,,,,,,,,,,,,,,,
,,,,,,,,,,,,,,,90329,001,2022-04-29_11h47.30.771,SPAMnetsValid,2021.1.4,Win32,59.97720866,,,,,,,,,,,,,,,,,,,,,,,,,,,,,,,,,,,,,,,,,,,,,,,,,,,,,,,,,,,,,,,,,hyena,Animals,14,0,14,0,1,,,,,,,,,,,,,,,,,,
,,,,,,,,,,,,,,,90329,001,2022-04-29_11h47.30.771,SPAMnetsValid,2021.1.4,Win32,59.97720866,,,,,,,,,,,,,,,,,,,,,,,,,,,,,,,,,,,,,,,,,,,,,,,,,,,,,,,,,,,,,,,,,monkey,Animals,15,0,15,0,1,,,,,,,,,,,,,,,,,,
,,,,,,,,,,,,,,,90329,001,2022-04-29_11h47.30.771,SPAMnetsValid,2021.1.4,Win32,59.97720866,,,,,,,,,,,,,,,,,,,,,,,,,,,,,,,,,,,,,,,,,,,,,,,,,,,,,,,,,,,,,,,,,gorilla,Animals,16,0,16,0,1,,,,,,,,,,,,,,,,,,
,,,,,,,,,,,,,,,90329,001,2022-04-29_11h47.30.771,SPAMnetsValid,2021.1.4,Win32,59.97720866,,,,,,,,,,,,,,,,,,,,,,,,,,,,,,,,,,,,,,,,,,,,,,,,,,,,,,,,,,,,,,,,,bats,Animals,17,0,17,0,1,,,,,,,,,,,,,,,,,,
,,,,,,,,,,,,,,,90329,001,2022-04-29_11h47.30.771,SPAMnetsValid,2021.1.4,Win32,59.97720866,,,,,,,,,,,,,,,,,,,,,,,,,,,,,,,,,,,,,,,,,,,,,,,,,,,,,,,,,,,,,,,,,tiger,Animals,18,0,18,0,1,,,,,,,,,,,,,,,,,,
,,,,,,,,,,,,,,,90329,001,2022-04-29_11h47.30.771,SPAMnetsValid,2021.1.4,Win32,59.97720866,,,,,,,,,,,,,,,,,,,,,,,,,,,,,,,,,,,,,,,,,,,,,,,,,,,,,,,,,,,,,,,,,bear,Animals,19,0,19,0,1,,,,,,,,,,,,,,,,,,
,,,,,,,,,,,,,,,90329,001,2022-04-29_11h47.30.771,SPAMnetsValid,2021.1.4,Win32,59.97720866,,,,,,,,,,,,,,,,,,,,,,,,,,,,,,,,,,,,,,,,,,,,,,,,,,,,,,,,,,,,,,,,,mouse,Animals,20,0,20,0,1,,,,,,,,,,,,,,,,,,
,,,,,,,,,,,,,,,90329,001,2022-04-29_11h47.30.771,SPAMnetsValid,2021.1.4,Win32,59.97720866,,,,,,,,,,,,,,,,,,,,,,,,,,,,,,,,,,,,,,,,,,,,,,,,,,,,,,,,,,,,,,,,,rat,Animals,21,0,21,0,1,,,,,,,,,,,,,,,,,,
,,,,,,,,,,,,,,,90329,001,2022-04-29_11h47.30.771,SPAMnetsValid,2021.1.4,Win32,59.97720866,,,,,,,,,,,,,,,,,,,,,,,,,,,,,,,,,,,,,,,,,,,,,,,,,,,,,,,,,,,,,,,,,cheetah,Animals,22,0,22,0,1,,,,,,,,,,,,,,,,,,
,,,,,,,,,,,,,,,90329,001,2022-04-29_11h47.30.771,SPAMnetsValid,2021.1.4,Win32,59.97720866,,,,,,,,,,,,,,,,,,,,,,,,,,,,,,,,,,,,,,,,,,,,,,,,,,,,,,,,,,,,,,,,,alligator,Animals,23,0,23,0,1,,,,,,,,,,,,,,,,,,
,,,,,,,,,,,,,,,90329,001,2022-04-29_11h47.30.771,SPAMnetsValid,2021.1.4,Win32,59.97720866,,,,,,,,,,,,,,,,,,,,,,,,,,,,,,,,,,,,,,,,,,,,,,,,,,,,,,,,,,,,,,,,,crocodile,Animals,24,0,24,0,1,,,,,,,,,,,,,,,,,,
,,,,,,,,,,,,,,,90329,001,2022-04-29_11h47.30.771,SPAMnetsValid,2021.1.4,Win32,59.97720866,,,,,,,,,,,,,,,,,,,,,,,,,,,,,,,,,,,,,,,,,,,,,,,,,,,,,,,,,,,,,,,,,deer,Animals,25,0,25,0,1,,,,,,,,,,,,,,,,,,
,,,,,,,,,,,,,,,90329,001,2022-04-29_11h47.30.771,SPAMnetsValid,2021.1.4,Win32,59.97720866,,,,,,,,,,,,,,,,,,,,,,,,,,,,,,,,,,,,,,,,,,,,,,,,,,,,,,,,,,,,,,,,,pig,Animals,26,0,26,0,1,,,,,,,,,,,,,,,,,,
,,,,,,,,,,,,,,,90329,001,2022-04-29_11h47.30.771,SPAMnetsValid,2021.1.4,Win32,59.97720866,,,,,,,,,,,,,,,,,,,,,,,,,,,,,,,,,,,,,,,,,,,,,,,,,,,,,,,,,,,,,,,,,sheep,Animals,27,0,27,0,1,,,,,,,,,,,,,,,,,,
,,,,,,,,,,,,,,,90329,001,2022-04-29_11h47.30.771,SPAMnetsValid,2021.1.4,Win32,59.97720866,,,,,,,,,,,,,,,,,,,,,,,,,,,,,,,,,,,,,,,,,,,,,,,,,,,,,,,,,,,,,,,,,elk,Animals,28,0,28,0,1,,,,,,,,,,,,,,,,,,
,,,,,,,,,,,,,,,90329,001,2022-04-29_11h47.30.771,SPAMnetsValid,2021.1.4,Win32,59.97720866,,,,,,,,,,,,,,,,,,,,,,,,,,,,,,,,,,,,,,,,,,,,,,,,,,,,,,,,,,,,,,,,,moose,Animals,29,0,29,0,1,,,,,,,,,,,,,,,,,,
,,,,,,,,,,,,,,,90329,001,2022-04-29_11h47.30.771,SPAMnetsValid,2021.1.4,Win32,59.97720866,,,,,,,,,,,,,,,,,,,,,,,,,,,,,,,,,,,,,,,,,,,,,,,,,,,,,,,,,,,,,,,,,wolf,Animals,30,0,30,0,1,,,,,,,,,,,,,,,,,,
,,,,,,,,,,,,,,,90329,001,2022-04-29_11h47.30.771,SPAMnetsValid,2021.1.4,Win32,59.97720866,,,,,,,,,,,,,,,,,,,,,,,,,,,,,,,,,,,,,,,,,,,,,,,,,,,,,,,,,,,,,,,,,dingo,Animals,31,0,31,0,1,,,,,,,,,,,,,,,,,,
,,,,,,,,,,,,,,,90329,001,2022-04-29_11h47.30.771,SPAMnetsValid,2021.1.4,Win32,59.97720866,,,,,,,,,,,,,,,,,,,,,,,,,,,,,,,,,,,,,,,,,,,,,,,,,,,,,,,,,,,,,,,,,crow,Animals,32,0,32,0,1,,,,,,,,,,,,,,,,,,
,,,,,,,,,,,,,,,90329,001,2022-04-29_11h47.30.771,SPAMnetsValid,2021.1.4,Win32,59.97720866,,,,,,,,,,,,,,,,,,,,,,,,,,,,,,,,,,,,,,,,,,,,,,,,,,,,,,,,,,,,,,,,,raven,Animals,33,0,33,0,1,,,,,,,,,,,,,,,,,,
,,,,,,,,,,,,,,,90329,001,2022-04-29_11h47.30.771,SPAMnetsValid,2021.1.4,Win32,59.97720866,,,,,,,,,,,,,,,,,,,,,,,,,,,,,,,,,,,,,,,,,,,,,,,,,,,,,,,,,,,,,,,,,toucan,Animals,34,0,34,0,1,,,,,,,,,,,,,,,,,,
,,,,,,,,,,,,,,,90329,001,2022-04-29_11h47.30.771,SPAMnetsValid,2021.1.4,Win32,59.97720866,,,,,,,,,,,,,,,,,,,,,,,,,,,,,,,,,,,,,,,,,,,,,,,,,,,,,,,,,,,,,,,,,eagle,Animals,35,0,35,0,1,,,,,,,,,,,,,,,,,,
,,,,,,,,,,,,,,,90329,001,2022-04-29_11h47.30.771,SPAMnetsValid,2021.1.4,Win32,59.97720866,,,,,,,,,,,,,,,,,,,,,,,,,,,,,,,,,,,,,,,,,,,,,,,,,,,,,,,,,,,,,,,,,wild dog,Animals,36,0,36,0,1,,,,,,,,,,,,,,,,,,
,,,,,,,,,,,,,,,90329,001,2022-04-29_11h47.30.771,SPAMnetsValid,2021.1.4,Win32,59.97720866,,,,,,,,,,,,,,,,,,,,,,,,,,,,,,,,,,,,,,,,,,,,,,,,,,,,,,,,,,,,,,,,,,,,,,,,0,0,0,0,1,Animals,,,,,,,,,,,,
,,,,,,,,,,,,,,,90329,001,2022-04-29_11h47.30.771,SPAMnetsValid,2021.1.4,Win32,59.97720866,,,,,,,,,,,,,,,,,,,,,,,,,,,,,,,,,,,,,,,,,,,,,,,,,,,,,,,,,,,,,,,,,,,,,,,,,,,,,,4,4.243299999,0,0,0,0,1,"I enjoy concentrating on a fantasy or daydream and exploring all its possibilities, letting it grow and develop.",0,1,,
,,,,,,,,,,,,,,,90329,001,2022-04-29_11h47.30.771,SPAMnetsValid,2021.1.4,Win32,59.97720866,,,,,,,,,,,,,,,,,,,,,,,,,,,,,,,,,,,,,,,,,,,,,,,,,,,,,,,,,,,,,,,,,,,,,,,,,,,,,,4,2.0582,0,1,1,1,1,I think it's interesting to learn and develop new hobbies.,0,2,,
,,,,,,,,,,,,,,,90329,001,2022-04-29_11h47.30.771,SPAMnetsValid,2021.1.4,Win32,59.97720866,,,,,,,,,,,,,,,,,,,,,,,,,,,,,,,,,,,,,,,,,,,,,,,,,,,,,,,,,,,,,,,,,,,,,,,,,,,,,,5,3.2738,0,2,2,2,1,I am intrigued by the patterns I find in art and nature.,0,3,,
,,,,,,,,,,,,,,,90329,001,2022-04-29_11h47.30.771,SPAMnetsValid,2021.1.4,Win32,59.97720866,,,,,,,,,,,,,,,,,,,,,,,,,,,,,,,,,,,,,,,,,,,,,,,,,,,,,,,,,,,,,,,,,,,,,,,,,,,,,,1,4.6589,0,3,3,3,1,I believe letting students hear controversial speakers can only confuse and mislead them.,1,4,,
,,,,,,,,,,,,,,,90329,001,2022-04-29_11h47.30.771,SPAMnetsValid,2021.1.4,Win32,59.97720866,,,,,,,,,,,,,,,,,,,,,,,,,,,,,,,,,,,,,,,,,,,,,,,,,,,,,,,,,,,,,,,,,,,,,,,,,,,,,,3,2.7071,0,4,4,4,1,Poetry has little or no effect on me.,1,5,,
,,,,,,,,,,,,,,,90329,001,2022-04-29_11h47.30.771,SPAMnetsValid,2021.1.4,Win32,59.97720866,,,,,,,,,,,,,,,,,,,,,,,,,,,,,,,,,,,,,,,,,,,,,,,,,,,,,,,,,,,,,,,,,,,,,,,,,,,,,,2,2.7008,0,5,5,5,1,I would have difficulty just letting my mind wander without control or guidance.,1,6,,
,,,,,,,,,,,,,,,90329,001,2022-04-29_11h47.30.771,SPAMnetsValid,2021.1.4,Win32,59.97720866,,,,,,,,,,,,,,,,,,,,,,,,,,,,,,,,,,,,,,,,,,,,,,,,,,,,,,,,,,,,,,,,,,,,,,,,,,,,,,1,3.6141,0,6,6,6,1,I seldom notice the moods or feelings that different environments produce.,1,7,,
,,,,,,,,,,,,,,,90329,001,2022-04-29_11h47.30.771,SPAMnetsValid,2021.1.4,Win32,59.97720866,,,,,,,,,,,,,,,,,,,,,,,,,,,,,,,,,,,,,,,,,,,,,,,,,,,,,,,,,,,,,,,,,,,,,,,,,,,,,,5,1.9241,0,7,7,7,1,I experience a wide range of emotions or feelings.,0,8,,
,,,,,,,,,,,,,,,90329,001,2022-04-29_11h47.30.771,SPAMnetsValid,2021.1.4,Win32,59.97720866,,,,,,,,,,,,,,,,,,,,,,,,,,,,,,,,,,,,,,,,,,,,,,,,,,,,,,,,,,,,,,,,,,,,,,,,,,,,,,4,3.842400001,0,8,8,8,1,"Sometimes when I am reading poetry or looking at a work of art, I feel a chill or wave of excitement.",0,9,,
,,,,,,,,,,,,,,,90329,001,2022-04-29_11h47.30.771,SPAMnetsValid,2021.1.4,Win32,59.97720866,,,,,,,,,,,,,,,,,,,,,,,,,,,,,,,,,,,,,,,,,,,,,,,,,,,,,,,,,,,,,,,,,,,,,,,,,,,,,,1,2.5151,0,9,9,9,1,I have little interest in speculating on the nature of the universe or the human condition.,1,10,,
,,,,,,,,,,,,,,,90329,001,2022-04-29_11h47.30.771,SPAMnetsValid,2021.1.4,Win32,59.97720866,,,,,,,,,,,,,,,,,,,,,,,,,,,,,,,,,,,,,,,,,,,,,,,,,,,,,,,,,,,,,,,,,,,,,,,,,,,,,,5,2.174400001,0,10,10,10,1,I have a lot of intellectual curiosity.,0,11,,
,,,,,,,,,,,,,,,90329,001,2022-04-29_11h47.30.771,SPAMnetsValid,2021.1.4,Win32,59.97720866,,,,,,,,,,,,,,,,,,,,,,,,,,,,,,,,,,,,,,,,,,,,,,,,,,,,,,,,,,,,,,,,,,,,,,,,,,,,,,5,2.4533,0,11,11,11,1,I often enjoy playing with theories or abstract ideas.,0,12,,
,,,,,,,,,,,,,,,90329,001,2022-04-29_11h47.30.771,SPAMnetsValid,2021.1.4,Win32,59.97720866,,,,,,,,,,,,,,,,,,,,,,,,,,,,,,,,,,,,,,,,,,,,,,,,,,,,,,,,,,,,,,,,,,,,,,,,,,,,,,,,,,,,,,,,return,13.8825
