key_resp_3.keys,key_resp_3.rt,slider_2.response,slider_2.rt,rjt_rating,rjt_RT,trials_24.thisRepN,trials_24.thisTrialN,trials_24.thisN,trials_24.thisIndex,trials_24.ran,rjt_order,word1,word2,attention,participant,session,date,expName,psychopyVersion,OS,frameRate,trials_4.thisRepN,trials_4.thisTrialN,trials_4.thisN,trials_4.thisIndex,trials_4.ran,trials_5.thisRepN,trials_5.thisTrialN,trials_5.thisN,trials_5.thisIndex,trials_5.ran,repOne,repTwo,slider.response,slider.rt,trials_22.thisRepN,trials_22.thisTrialN,trials_22.thisN,trials_22.thisIndex,trials_22.ran,trials_99.thisRepN,trials_99.thisTrialN,trials_99.thisN,trials_99.thisIndex,trials_99.ran,slider_extend_2.response,slider_extend_2.rt,trials_6.thisRepN,trials_6.thisTrialN,trials_6.thisN,trials_6.thisIndex,trials_6.ran,vCue2,R1,R2,R3,R4,correct,sliderVocab.response,sliderVocab.rt,trials_7.thisRepN,trials_7.thisTrialN,trials_7.thisN,trials_7.thisIndex,trials_7.ran,VocabCue,VR1,VR2,VR3,VR4,VR5,VocabCorrect,AUT_resp,AUT_label,trials.thisRepN,trials.thisTrialN,trials.thisN,trials.thisIndex,trials.ran,trials_2.thisRepN,trials_2.thisTrialN,trials_2.thisN,trials_2.thisIndex,trials_2.ran,aut_prompt,VF_response,VF_tag,trials_16.thisRepN,trials_16.thisTrialN,trials_16.thisN,trials_16.thisIndex,trials_16.ran,trials_17.thisRepN,trials_17.thisTrialN,trials_17.thisN,trials_17.thisIndex,trials_17.ran,VFcond,open_slider.response,open_slider.rt,trials_3.thisRepN,trials_3.thisTrialN,trials_3.thisN,trials_3.thisIndex,trials_3.ran,OpenQ,Rev,OPEN_ORDER,key_resp_2.keys,key_resp_2.rt
return,9.8213,7,17.3477,7,17.3477,0,0,0,9,1,176,cactus,tomato,,90331,001,2022-04-21_18h00.00.971,SPAMnetsValid,2021.1.4,Win32,60.0024001,,,,,,,,,,,,,,,,,,,,,,,,,,,,,,,,,,,,,,,,,,,,,,,,,,,,,,,,,,,,,,,,,,,,,,,,,,,,,,,,,,,,,,,,,
,,7,3.6075,7,3.6075,0,1,1,72,1,181,carrot,kitchen,,90331,001,2022-04-21_18h00.00.971,SPAMnetsValid,2021.1.4,Win32,60.0024001,,,,,,,,,,,,,,,,,,,,,,,,,,,,,,,,,,,,,,,,,,,,,,,,,,,,,,,,,,,,,,,,,,,,,,,,,,,,,,,,,,,,,,,,,
,,3,3.9654,3,3.9654,0,2,2,94,1,133,cake,flower,,90331,001,2022-04-21_18h00.00.971,SPAMnetsValid,2021.1.4,Win32,60.0024001,,,,,,,,,,,,,,,,,,,,,,,,,,,,,,,,,,,,,,,,,,,,,,,,,,,,,,,,,,,,,,,,,,,,,,,,,,,,,,,,,,,,,,,,,
,,7,3.4413,7,3.4413,0,3,3,34,1,153,carrot,pretzel,,90331,001,2022-04-21_18h00.00.971,SPAMnetsValid,2021.1.4,Win32,60.0024001,,,,,,,,,,,,,,,,,,,,,,,,,,,,,,,,,,,,,,,,,,,,,,,,,,,,,,,,,,,,,,,,,,,,,,,,,,,,,,,,,,,,,,,,,
,,7,1.4432,7,1.4432,0,4,4,79,1,103,pretzel,tomato,,90331,001,2022-04-21_18h00.00.971,SPAMnetsValid,2021.1.4,Win32,60.0024001,,,,,,,,,,,,,,,,,,,,,,,,,,,,,,,,,,,,,,,,,,,,,,,,,,,,,,,,,,,,,,,,,,,,,,,,,,,,,,,,,,,,,,,,,
,,2,1.9414,2,1.9414,0,5,5,50,1,126,kitchen,tree,,90331,001,2022-04-21_18h00.00.971,SPAMnetsValid,2021.1.4,Win32,60.0024001,,,,,,,,,,,,,,,,,,,,,,,,,,,,,,,,,,,,,,,,,,,,,,,,,,,,,,,,,,,,,,,,,,,,,,,,,,,,,,,,,,,,,,,,,
,,7,3.2299,7,3.2299,0,6,6,78,1,132,broom,tree,,90331,001,2022-04-21_18h00.00.971,SPAMnetsValid,2021.1.4,Win32,60.0024001,,,,,,,,,,,,,,,,,,,,,,,,,,,,,,,,,,,,,,,,,,,,,,,,,,,,,,,,,,,,,,,,,,,,,,,,,,,,,,,,,,,,,,,,,
,,7,2.2498,7,2.2498,0,7,7,77,1,172,kitchen,melon,,90331,001,2022-04-21_18h00.00.971,SPAMnetsValid,2021.1.4,Win32,60.0024001,,,,,,,,,,,,,,,,,,,,,,,,,,,,,,,,,,,,,,,,,,,,,,,,,,,,,,,,,,,,,,,,,,,,,,,,,,,,,,,,,,,,,,,,,
,,8,2.1989,8,2.1989,0,8,8,76,1,102,chocolate,refrigerator,,90331,001,2022-04-21_18h00.00.971,SPAMnetsValid,2021.1.4,Win32,60.0024001,,,,,,,,,,,,,,,,,,,,,,,,,,,,,,,,,,,,,,,,,,,,,,,,,,,,,,,,,,,,,,,,,,,,,,,,,,,,,,,,,,,,,,,,,
,,4,6.7416,4,6.7416,0,9,9,6,1,151,microwave,onion,,90331,001,2022-04-21_18h00.00.971,SPAMnetsValid,2021.1.4,Win32,60.0024001,,,,,,,,,,,,,,,,,,,,,,,,,,,,,,,,,,,,,,,,,,,,,,,,,,,,,,,,,,,,,,,,,,,,,,,,,,,,,,,,,,,,,,,,,
,,7,2.7902,7,2.7902,0,10,10,40,1,165,onion,rose,,90331,001,2022-04-21_18h00.00.971,SPAMnetsValid,2021.1.4,Win32,60.0024001,,,,,,,,,,,,,,,,,,,,,,,,,,,,,,,,,,,,,,,,,,,,,,,,,,,,,,,,,,,,,,,,,,,,,,,,,,,,,,,,,,,,,,,,,
,,7,1.5126,7,1.5126,0,11,11,23,1,148,flower,melon,,90331,001,2022-04-21_18h00.00.971,SPAMnetsValid,2021.1.4,Win32,60.0024001,,,,,,,,,,,,,,,,,,,,,,,,,,,,,,,,,,,,,,,,,,,,,,,,,,,,,,,,,,,,,,,,,,,,,,,,,,,,,,,,,,,,,,,,,
,,7,1.3442,7,1.3442,0,12,12,48,1,186,kitchen,yogurt,,90331,001,2022-04-21_18h00.00.971,SPAMnetsValid,2021.1.4,Win32,60.0024001,,,,,,,,,,,,,,,,,,,,,,,,,,,,,,,,,,,,,,,,,,,,,,,,,,,,,,,,,,,,,,,,,,,,,,,,,,,,,,,,,,,,,,,,,
,,7,1.0736,7,1.0736,0,13,13,38,1,155,carrot,cookie,,90331,001,2022-04-21_18h00.00.971,SPAMnetsValid,2021.1.4,Win32,60.0024001,,,,,,,,,,,,,,,,,,,,,,,,,,,,,,,,,,,,,,,,,,,,,,,,,,,,,,,,,,,,,,,,,,,,,,,,,,,,,,,,,,,,,,,,,
,,7,1.4163,7,1.4163,0,14,14,10,1,118,chocolate,oven,,90331,001,2022-04-21_18h00.00.971,SPAMnetsValid,2021.1.4,Win32,60.0024001,,,,,,,,,,,,,,,,,,,,,,,,,,,,,,,,,,,,,,,,,,,,,,,,,,,,,,,,,,,,,,,,,,,,,,,,,,,,,,,,,,,,,,,,,
,,4,2.5799,4,2.5799,0,15,15,71,1,187,cactus,microwave,,90331,001,2022-04-21_18h00.00.971,SPAMnetsValid,2021.1.4,Win32,60.0024001,,,,,,,,,,,,,,,,,,,,,,,,,,,,,,,,,,,,,,,,,,,,,,,,,,,,,,,,,,,,,,,,,,,,,,,,,,,,,,,,,,,,,,,,,
,,3,1.9346,3,1.9346,0,16,16,55,1,143,pretzel,rose,,90331,001,2022-04-21_18h00.00.971,SPAMnetsValid,2021.1.4,Win32,60.0024001,,,,,,,,,,,,,,,,,,,,,,,,,,,,,,,,,,,,,,,,,,,,,,,,,,,,,,,,,,,,,,,,,,,,,,,,,,,,,,,,,,,,,,,,,
,,7,2.173,7,2.173,0,17,17,29,1,163,melon,refrigerator,,90331,001,2022-04-21_18h00.00.971,SPAMnetsValid,2021.1.4,Win32,60.0024001,,,,,,,,,,,,,,,,,,,,,,,,,,,,,,,,,,,,,,,,,,,,,,,,,,,,,,,,,,,,,,,,,,,,,,,,,,,,,,,,,,,,,,,,,
,,2,1.7719,2,1.7719,0,18,18,63,1,137,microwave,tree,,90331,001,2022-04-21_18h00.00.971,SPAMnetsValid,2021.1.4,Win32,60.0024001,,,,,,,,,,,,,,,,,,,,,,,,,,,,,,,,,,,,,,,,,,,,,,,,,,,,,,,,,,,,,,,,,,,,,,,,,,,,,,,,,,,,,,,,,
,,8,1.7895,8,1.7895,0,19,19,30,1,125,carrot,tree,,90331,001,2022-04-21_18h00.00.971,SPAMnetsValid,2021.1.4,Win32,60.0024001,,,,,,,,,,,,,,,,,,,,,,,,,,,,,,,,,,,,,,,,,,,,,,,,,,,,,,,,,,,,,,,,,,,,,,,,,,,,,,,,,,,,,,,,,
,,7,1.49,7,1.49,0,20,20,49,1,152,cactus,strawberry,,90331,001,2022-04-21_18h00.00.971,SPAMnetsValid,2021.1.4,Win32,60.0024001,,,,,,,,,,,,,,,,,,,,,,,,,,,,,,,,,,,,,,,,,,,,,,,,,,,,,,,,,,,,,,,,,,,,,,,,,,,,,,,,,,,,,,,,,
,,8,2.3781,8,2.3781,0,21,21,66,1,150,microwave,refrigerator,,90331,001,2022-04-21_18h00.00.971,SPAMnetsValid,2021.1.4,Win32,60.0024001,,,,,,,,,,,,,,,,,,,,,,,,,,,,,,,,,,,,,,,,,,,,,,,,,,,,,,,,,,,,,,,,,,,,,,,,,,,,,,,,,,,,,,,,,
,,7,1.6548,7,1.6548,0,22,22,88,1,171,cake,tomato,,90331,001,2022-04-21_18h00.00.971,SPAMnetsValid,2021.1.4,Win32,60.0024001,,,,,,,,,,,,,,,,,,,,,,,,,,,,,,,,,,,,,,,,,,,,,,,,,,,,,,,,,,,,,,,,,,,,,,,,,,,,,,,,,,,,,,,,,
,,7,2.3328,7,2.3328,0,23,23,45,1,179,broom,oven,,90331,001,2022-04-21_18h00.00.971,SPAMnetsValid,2021.1.4,Win32,60.0024001,,,,,,,,,,,,,,,,,,,,,,,,,,,,,,,,,,,,,,,,,,,,,,,,,,,,,,,,,,,,,,,,,,,,,,,,,,,,,,,,,,,,,,,,,
,,3,1.8651,3,1.8651,0,24,24,84,1,130,microwave,yogurt,,90331,001,2022-04-21_18h00.00.971,SPAMnetsValid,2021.1.4,Win32,60.0024001,,,,,,,,,,,,,,,,,,,,,,,,,,,,,,,,,,,,,,,,,,,,,,,,,,,,,,,,,,,,,,,,,,,,,,,,,,,,,,,,,,,,,,,,,
,,6,1.8658,6,1.8658,0,25,25,67,1,96,oven,strawberry,,90331,001,2022-04-21_18h00.00.971,SPAMnetsValid,2021.1.4,Win32,60.0024001,,,,,,,,,,,,,,,,,,,,,,,,,,,,,,,,,,,,,,,,,,,,,,,,,,,,,,,,,,,,,,,,,,,,,,,,,,,,,,,,,,,,,,,,,
,,4,1.8318,4,1.8318,0,26,26,46,1,123,cookie,tree,,90331,001,2022-04-21_18h00.00.971,SPAMnetsValid,2021.1.4,Win32,60.0024001,,,,,,,,,,,,,,,,,,,,,,,,,,,,,,,,,,,,,,,,,,,,,,,,,,,,,,,,,,,,,,,,,,,,,,,,,,,,,,,,,,,,,,,,,
,,4,2.0958,4,2.0958,0,27,27,85,1,115,refrigerator,tomato,,90331,001,2022-04-21_18h00.00.971,SPAMnetsValid,2021.1.4,Win32,60.0024001,,,,,,,,,,,,,,,,,,,,,,,,,,,,,,,,,,,,,,,,,,,,,,,,,,,,,,,,,,,,,,,,,,,,,,,,,,,,,,,,,,,,,,,,,
,,7,2.8896,7,2.8896,0,28,28,56,1,113,refrigerator,strawberry,,90331,001,2022-04-21_18h00.00.971,SPAMnetsValid,2021.1.4,Win32,60.0024001,,,,,,,,,,,,,,,,,,,,,,,,,,,,,,,,,,,,,,,,,,,,,,,,,,,,,,,,,,,,,,,,,,,,,,,,,,,,,,,,,,,,,,,,,
,,7,1.4239,7,1.4239,0,29,29,33,1,131,cactus,garden,,90331,001,2022-04-21_18h00.00.971,SPAMnetsValid,2021.1.4,Win32,60.0024001,,,,,,,,,,,,,,,,,,,,,,,,,,,,,,,,,,,,,,,,,,,,,,,,,,,,,,,,,,,,,,,,,,,,,,,,,,,,,,,,,,,,,,,,,
,,7,1.4386,7,1.4386,0,30,30,14,1,120,microwave,oven,,90331,001,2022-04-21_18h00.00.971,SPAMnetsValid,2021.1.4,Win32,60.0024001,,,,,,,,,,,,,,,,,,,,,,,,,,,,,,,,,,,,,,,,,,,,,,,,,,,,,,,,,,,,,,,,,,,,,,,,,,,,,,,,,,,,,,,,,
,,6,1.5131,6,1.5131,0,31,31,31,1,156,melon,rose,,90331,001,2022-04-21_18h00.00.971,SPAMnetsValid,2021.1.4,Win32,60.0024001,,,,,,,,,,,,,,,,,,,,,,,,,,,,,,,,,,,,,,,,,,,,,,,,,,,,,,,,,,,,,,,,,,,,,,,,,,,,,,,,,,,,,,,,,
,,6,1.7072,6,1.7072,0,32,32,12,1,162,microwave,tomato,,90331,001,2022-04-21_18h00.00.971,SPAMnetsValid,2021.1.4,Win32,60.0024001,,,,,,,,,,,,,,,,,,,,,,,,,,,,,,,,,,,,,,,,,,,,,,,,,,,,,,,,,,,,,,,,,,,,,,,,,,,,,,,,,,,,,,,,,
,,3,1.9934,3,1.9934,0,33,33,20,1,149,broom,tomato,,90331,001,2022-04-21_18h00.00.971,SPAMnetsValid,2021.1.4,Win32,60.0024001,,,,,,,,,,,,,,,,,,,,,,,,,,,,,,,,,,,,,,,,,,,,,,,,,,,,,,,,,,,,,,,,,,,,,,,,,,,,,,,,,,,,,,,,,
,,6,2.2806,6,2.2806,0,34,34,92,1,170,cookie,microwave,,90331,001,2022-04-21_18h00.00.971,SPAMnetsValid,2021.1.4,Win32,60.0024001,,,,,,,,,,,,,,,,,,,,,,,,,,,,,,,,,,,,,,,,,,,,,,,,,,,,,,,,,,,,,,,,,,,,,,,,,,,,,,,,,,,,,,,,,
,,6,1.4601,6,1.4601,0,35,35,37,1,139,carrot,strawberry,,90331,001,2022-04-21_18h00.00.971,SPAMnetsValid,2021.1.4,Win32,60.0024001,,,,,,,,,,,,,,,,,,,,,,,,,,,,,,,,,,,,,,,,,,,,,,,,,,,,,,,,,,,,,,,,,,,,,,,,,,,,,,,,,,,,,,,,,
,,3,2.0294,3,2.0294,0,36,36,3,1,129,cactus,refrigerator,,90331,001,2022-04-21_18h00.00.971,SPAMnetsValid,2021.1.4,Win32,60.0024001,,,,,,,,,,,,,,,,,,,,,,,,,,,,,,,,,,,,,,,,,,,,,,,,,,,,,,,,,,,,,,,,,,,,,,,,,,,,,,,,,,,,,,,,,
,,3,1.6774,3,1.6774,0,37,37,43,1,185,cactus,rose,,90331,001,2022-04-21_18h00.00.971,SPAMnetsValid,2021.1.4,Win32,60.0024001,,,,,,,,,,,,,,,,,,,,,,,,,,,,,,,,,,,,,,,,,,,,,,,,,,,,,,,,,,,,,,,,,,,,,,,,,,,,,,,,,,,,,,,,,
,,7,8.1994,7,8.1994,0,38,38,26,1,107,rose,tomato,,90331,001,2022-04-21_18h00.00.971,SPAMnetsValid,2021.1.4,Win32,60.0024001,,,,,,,,,,,,,,,,,,,,,,,,,,,,,,,,,,,,,,,,,,,,,,,,,,,,,,,,,,,,,,,,,,,,,,,,,,,,,,,,,,,,,,,,,
,,8,2.3137,8,2.3137,0,39,39,53,1,177,chocolate,strawberry,,90331,001,2022-04-21_18h00.00.971,SPAMnetsValid,2021.1.4,Win32,60.0024001,,,,,,,,,,,,,,,,,,,,,,,,,,,,,,,,,,,,,,,,,,,,,,,,,,,,,,,,,,,,,,,,,,,,,,,,,,,,,,,,,,,,,,,,,
,,7,1.4559,7,1.4559,0,40,40,27,1,158,cookie,oven,,90331,001,2022-04-21_18h00.00.971,SPAMnetsValid,2021.1.4,Win32,60.0024001,,,,,,,,,,,,,,,,,,,,,,,,,,,,,,,,,,,,,,,,,,,,,,,,,,,,,,,,,,,,,,,,,,,,,,,,,,,,,,,,,,,,,,,,,
,,7,1.4446,7,1.4446,0,41,41,2,1,174,cake,pretzel,,90331,001,2022-04-21_18h00.00.971,SPAMnetsValid,2021.1.4,Win32,60.0024001,,,,,,,,,,,,,,,,,,,,,,,,,,,,,,,,,,,,,,,,,,,,,,,,,,,,,,,,,,,,,,,,,,,,,,,,,,,,,,,,,,,,,,,,,
,,7,1.0597,7,1.0597,0,42,42,65,1,160,cookie,kitchen,,90331,001,2022-04-21_18h00.00.971,SPAMnetsValid,2021.1.4,Win32,60.0024001,,,,,,,,,,,,,,,,,,,,,,,,,,,,,,,,,,,,,,,,,,,,,,,,,,,,,,,,,,,,,,,,,,,,,,,,,,,,,,,,,,,,,,,,,
,,7,1.3729,7,1.3729,0,43,43,18,1,119,strawberry,tree,,90331,001,2022-04-21_18h00.00.971,SPAMnetsValid,2021.1.4,Win32,60.0024001,,,,,,,,,,,,,,,,,,,,,,,,,,,,,,,,,,,,,,,,,,,,,,,,,,,,,,,,,,,,,,,,,,,,,,,,,,,,,,,,,,,,,,,,,
,,6,2.1287,6,2.1287,0,44,44,24,1,169,onion,yogurt,,90331,001,2022-04-21_18h00.00.971,SPAMnetsValid,2021.1.4,Win32,60.0024001,,,,,,,,,,,,,,,,,,,,,,,,,,,,,,,,,,,,,,,,,,,,,,,,,,,,,,,,,,,,,,,,,,,,,,,,,,,,,,,,,,,,,,,,,
,,4,1.7129,4,1.7129,0,45,45,64,1,157,refrigerator,rose,,90331,001,2022-04-21_18h00.00.971,SPAMnetsValid,2021.1.4,Win32,60.0024001,,,,,,,,,,,,,,,,,,,,,,,,,,,,,,,,,,,,,,,,,,,,,,,,,,,,,,,,,,,,,,,,,,,,,,,,,,,,,,,,,,,,,,,,,
,,8,2.2938,8,2.2938,0,46,46,51,1,168,cactus,flower,,90331,001,2022-04-21_18h00.00.971,SPAMnetsValid,2021.1.4,Win32,60.0024001,,,,,,,,,,,,,,,,,,,,,,,,,,,,,,,,,,,,,,,,,,,,,,,,,,,,,,,,,,,,,,,,,,,,,,,,,,,,,,,,,,,,,,,,,
,,8,1.8221,8,1.8221,0,47,47,52,1,110,chocolate,cookie,,90331,001,2022-04-21_18h00.00.971,SPAMnetsValid,2021.1.4,Win32,60.0024001,,,,,,,,,,,,,,,,,,,,,,,,,,,,,,,,,,,,,,,,,,,,,,,,,,,,,,,,,,,,,,,,,,,,,,,,,,,,,,,,,,,,,,,,,
,,6,1.5802,6,1.5802,0,48,48,8,1,97,chocolate,kitchen,,90331,001,2022-04-21_18h00.00.971,SPAMnetsValid,2021.1.4,Win32,60.0024001,,,,,,,,,,,,,,,,,,,,,,,,,,,,,,,,,,,,,,,,,,,,,,,,,,,,,,,,,,,,,,,,,,,,,,,,,,,,,,,,,,,,,,,,,
,,4,1.4985,4,1.4985,0,49,49,15,1,145,cactus,yogurt,,90331,001,2022-04-21_18h00.00.971,SPAMnetsValid,2021.1.4,Win32,60.0024001,,,,,,,,,,,,,,,,,,,,,,,,,,,,,,,,,,,,,,,,,,,,,,,,,,,,,,,,,,,,,,,,,,,,,,,,,,,,,,,,,,,,,,,,,
,,4,1.9229,4,1.9229,0,50,50,96,1,136,chocolate,microwave,,90331,001,2022-04-21_18h00.00.971,SPAMnetsValid,2021.1.4,Win32,60.0024001,,,,,,,,,,,,,,,,,,,,,,,,,,,,,,,,,,,,,,,,,,,,,,,,,,,,,,,,,,,,,,,,,,,,,,,,,,,,,,,,,,,,,,,,,
,,4,1.3621,4,1.3621,0,51,51,54,1,101,cactus,kitchen,,90331,001,2022-04-21_18h00.00.971,SPAMnetsValid,2021.1.4,Win32,60.0024001,,,,,,,,,,,,,,,,,,,,,,,,,,,,,,,,,,,,,,,,,,,,,,,,,,,,,,,,,,,,,,,,,,,,,,,,,,,,,,,,,,,,,,,,,
,,8,2.25,8,2.25,0,52,52,61,1,138,flower,rose,,90331,001,2022-04-21_18h00.00.971,SPAMnetsValid,2021.1.4,Win32,60.0024001,,,,,,,,,,,,,,,,,,,,,,,,,,,,,,,,,,,,,,,,,,,,,,,,,,,,,,,,,,,,,,,,,,,,,,,,,,,,,,,,,,,,,,,,,
,,6,1.4935,6,1.4935,0,53,53,0,1,106,cake,strawberry,,90331,001,2022-04-21_18h00.00.971,SPAMnetsValid,2021.1.4,Win32,60.0024001,,,,,,,,,,,,,,,,,,,,,,,,,,,,,,,,,,,,,,,,,,,,,,,,,,,,,,,,,,,,,,,,,,,,,,,,,,,,,,,,,,,,,,,,,
,,6,1.3295,6,1.3295,0,54,54,44,1,116,cake,chocolate,,90331,001,2022-04-21_18h00.00.971,SPAMnetsValid,2021.1.4,Win32,60.0024001,,,,,,,,,,,,,,,,,,,,,,,,,,,,,,,,,,,,,,,,,,,,,,,,,,,,,,,,,,,,,,,,,,,,,,,,,,,,,,,,,,,,,,,,,
,,6,1.0573,6,1.0573,0,55,55,39,1,112,cake,carrot,,90331,001,2022-04-21_18h00.00.971,SPAMnetsValid,2021.1.4,Win32,60.0024001,,,,,,,,,,,,,,,,,,,,,,,,,,,,,,,,,,,,,,,,,,,,,,,,,,,,,,,,,,,,,,,,,,,,,,,,,,,,,,,,,,,,,,,,,
,,8,2.5629,8,2.5629,0,56,56,28,1,154,strawberry,yogurt,,90331,001,2022-04-21_18h00.00.971,SPAMnetsValid,2021.1.4,Win32,60.0024001,,,,,,,,,,,,,,,,,,,,,,,,,,,,,,,,,,,,,,,,,,,,,,,,,,,,,,,,,,,,,,,,,,,,,,,,,,,,,,,,,,,,,,,,,
,,3,1.8561,3,1.8561,0,57,57,4,1,109,broom,strawberry,,90331,001,2022-04-21_18h00.00.971,SPAMnetsValid,2021.1.4,Win32,60.0024001,,,,,,,,,,,,,,,,,,,,,,,,,,,,,,,,,,,,,,,,,,,,,,,,,,,,,,,,,,,,,,,,,,,,,,,,,,,,,,,,,,,,,,,,,
,,3,1.4454,3,1.4454,0,58,58,32,1,182,flower,refrigerator,,90331,001,2022-04-21_18h00.00.971,SPAMnetsValid,2021.1.4,Win32,60.0024001,,,,,,,,,,,,,,,,,,,,,,,,,,,,,,,,,,,,,,,,,,,,,,,,,,,,,,,,,,,,,,,,,,,,,,,,,,,,,,,,,,,,,,,,,
,,7,1.8565,7,1.8565,0,59,59,69,1,124,oven,refrigerator,,90331,001,2022-04-21_18h00.00.971,SPAMnetsValid,2021.1.4,Win32,60.0024001,,,,,,,,,,,,,,,,,,,,,,,,,,,,,,,,,,,,,,,,,,,,,,,,,,,,,,,,,,,,,,,,,,,,,,,,,,,,,,,,,,,,,,,,,
,,6,2.706,6,2.706,0,60,60,82,1,98,pretzel,strawberry,,90331,001,2022-04-21_18h00.00.971,SPAMnetsValid,2021.1.4,Win32,60.0024001,,,,,,,,,,,,,,,,,,,,,,,,,,,,,,,,,,,,,,,,,,,,,,,,,,,,,,,,,,,,,,,,,,,,,,,,,,,,,,,,,,,,,,,,,
,,9,1.815,9,1.815,0,61,61,86,1,193,melon,melon,CHECK,90331,001,2022-04-21_18h00.00.971,SPAMnetsValid,2021.1.4,Win32,60.0024001,,,,,,,,,,,,,,,,,,,,,,,,,,,,,,,,,,,,,,,,,,,,,,,,,,,,,,,,,,,,,,,,,,,,,,,,,,,,,,,,,,,,,,,,,
,,6,3.0663,6,3.0663,0,62,62,62,1,189,onion,tree,,90331,001,2022-04-21_18h00.00.971,SPAMnetsValid,2021.1.4,Win32,60.0024001,,,,,,,,,,,,,,,,,,,,,,,,,,,,,,,,,,,,,,,,,,,,,,,,,,,,,,,,,,,,,,,,,,,,,,,,,,,,,,,,,,,,,,,,,
,,8,2.8269,8,2.8269,0,63,63,7,1,188,flower,tree,,90331,001,2022-04-21_18h00.00.971,SPAMnetsValid,2021.1.4,Win32,60.0024001,,,,,,,,,,,,,,,,,,,,,,,,,,,,,,,,,,,,,,,,,,,,,,,,,,,,,,,,,,,,,,,,,,,,,,,,,,,,,,,,,,,,,,,,,
,,7,1.3656,7,1.3656,0,64,64,70,1,141,melon,tomato,,90331,001,2022-04-21_18h00.00.971,SPAMnetsValid,2021.1.4,Win32,60.0024001,,,,,,,,,,,,,,,,,,,,,,,,,,,,,,,,,,,,,,,,,,,,,,,,,,,,,,,,,,,,,,,,,,,,,,,,,,,,,,,,,,,,,,,,,
,,7,1.4089,7,1.4089,0,65,65,1,1,173,kitchen,tomato,,90331,001,2022-04-21_18h00.00.971,SPAMnetsValid,2021.1.4,Win32,60.0024001,,,,,,,,,,,,,,,,,,,,,,,,,,,,,,,,,,,,,,,,,,,,,,,,,,,,,,,,,,,,,,,,,,,,,,,,,,,,,,,,,,,,,,,,,
,,8,1.7967,8,1.7967,0,66,66,75,1,178,cactus,carrot,,90331,001,2022-04-21_18h00.00.971,SPAMnetsValid,2021.1.4,Win32,60.0024001,,,,,,,,,,,,,,,,,,,,,,,,,,,,,,,,,,,,,,,,,,,,,,,,,,,,,,,,,,,,,,,,,,,,,,,,,,,,,,,,,,,,,,,,,
,,4,1.7091,4,1.7091,0,67,67,21,1,159,cookie,flower,,90331,001,2022-04-21_18h00.00.971,SPAMnetsValid,2021.1.4,Win32,60.0024001,,,,,,,,,,,,,,,,,,,,,,,,,,,,,,,,,,,,,,,,,,,,,,,,,,,,,,,,,,,,,,,,,,,,,,,,,,,,,,,,,,,,,,,,,
,,4,1.6805,4,1.6805,0,68,68,81,1,104,garden,microwave,,90331,001,2022-04-21_18h00.00.971,SPAMnetsValid,2021.1.4,Win32,60.0024001,,,,,,,,,,,,,,,,,,,,,,,,,,,,,,,,,,,,,,,,,,,,,,,,,,,,,,,,,,,,,,,,,,,,,,,,,,,,,,,,,,,,,,,,,
,,3,1.2286,3,1.2286,0,69,69,13,1,105,cactus,oven,,90331,001,2022-04-21_18h00.00.971,SPAMnetsValid,2021.1.4,Win32,60.0024001,,,,,,,,,,,,,,,,,,,,,,,,,,,,,,,,,,,,,,,,,,,,,,,,,,,,,,,,,,,,,,,,,,,,,,,,,,,,,,,,,,,,,,,,,
,,8,2.0765,8,2.0765,0,70,70,47,1,167,carrot,garden,,90331,001,2022-04-21_18h00.00.971,SPAMnetsValid,2021.1.4,Win32,60.0024001,,,,,,,,,,,,,,,,,,,,,,,,,,,,,,,,,,,,,,,,,,,,,,,,,,,,,,,,,,,,,,,,,,,,,,,,,,,,,,,,,,,,,,,,,
,,7,1.4329,7,1.4329,0,71,71,68,1,180,tree,yogurt,,90331,001,2022-04-21_18h00.00.971,SPAMnetsValid,2021.1.4,Win32,60.0024001,,,,,,,,,,,,,,,,,,,,,,,,,,,,,,,,,,,,,,,,,,,,,,,,,,,,,,,,,,,,,,,,,,,,,,,,,,,,,,,,,,,,,,,,,
,,7,1.2389,7,1.2389,0,72,72,90,1,190,microwave,strawberry,,90331,001,2022-04-21_18h00.00.971,SPAMnetsValid,2021.1.4,Win32,60.0024001,,,,,,,,,,,,,,,,,,,,,,,,,,,,,,,,,,,,,,,,,,,,,,,,,,,,,,,,,,,,,,,,,,,,,,,,,,,,,,,,,,,,,,,,,
,,8,1.5906,8,1.5906,0,73,73,11,1,117,melon,strawberry,,90331,001,2022-04-21_18h00.00.971,SPAMnetsValid,2021.1.4,Win32,60.0024001,,,,,,,,,,,,,,,,,,,,,,,,,,,,,,,,,,,,,,,,,,,,,,,,,,,,,,,,,,,,,,,,,,,,,,,,,,,,,,,,,,,,,,,,,
,,6,3.1058,6,3.1058,0,74,74,74,1,128,melon,microwave,,90331,001,2022-04-21_18h00.00.971,SPAMnetsValid,2021.1.4,Win32,60.0024001,,,,,,,,,,,,,,,,,,,,,,,,,,,,,,,,,,,,,,,,,,,,,,,,,,,,,,,,,,,,,,,,,,,,,,,,,,,,,,,,,,,,,,,,,
,,6,1.3494,6,1.3494,0,75,75,5,1,108,carrot,chocolate,,90331,001,2022-04-21_18h00.00.971,SPAMnetsValid,2021.1.4,Win32,60.0024001,,,,,,,,,,,,,,,,,,,,,,,,,,,,,,,,,,,,,,,,,,,,,,,,,,,,,,,,,,,,,,,,,,,,,,,,,,,,,,,,,,,,,,,,,
,,7,2.5109,7,2.5109,0,76,76,42,1,184,oven,pretzel,,90331,001,2022-04-21_18h00.00.971,SPAMnetsValid,2021.1.4,Win32,60.0024001,,,,,,,,,,,,,,,,,,,,,,,,,,,,,,,,,,,,,,,,,,,,,,,,,,,,,,,,,,,,,,,,,,,,,,,,,,,,,,,,,,,,,,,,,
,,7,1.211,7,1.211,0,77,77,35,1,147,cake,refrigerator,,90331,001,2022-04-21_18h00.00.971,SPAMnetsValid,2021.1.4,Win32,60.0024001,,,,,,,,,,,,,,,,,,,,,,,,,,,,,,,,,,,,,,,,,,,,,,,,,,,,,,,,,,,,,,,,,,,,,,,,,,,,,,,,,,,,,,,,,
,,4,2.074,4,2.074,0,78,78,58,1,144,cake,garden,,90331,001,2022-04-21_18h00.00.971,SPAMnetsValid,2021.1.4,Win32,60.0024001,,,,,,,,,,,,,,,,,,,,,,,,,,,,,,,,,,,,,,,,,,,,,,,,,,,,,,,,,,,,,,,,,,,,,,,,,,,,,,,,,,,,,,,,,
,,4,2.6603,4,2.6603,0,79,79,80,1,146,pretzel,tree,,90331,001,2022-04-21_18h00.00.971,SPAMnetsValid,2021.1.4,Win32,60.0024001,,,,,,,,,,,,,,,,,,,,,,,,,,,,,,,,,,,,,,,,,,,,,,,,,,,,,,,,,,,,,,,,,,,,,,,,,,,,,,,,,,,,,,,,,
,,4,1.5888,4,1.5888,0,80,80,89,1,140,cookie,refrigerator,,90331,001,2022-04-21_18h00.00.971,SPAMnetsValid,2021.1.4,Win32,60.0024001,,,,,,,,,,,,,,,,,,,,,,,,,,,,,,,,,,,,,,,,,,,,,,,,,,,,,,,,,,,,,,,,,,,,,,,,,,,,,,,,,,,,,,,,,
,,8,2.0482,8,2.0482,0,81,81,41,1,175,melon,onion,,90331,001,2022-04-21_18h00.00.971,SPAMnetsValid,2021.1.4,Win32,60.0024001,,,,,,,,,,,,,,,,,,,,,,,,,,,,,,,,,,,,,,,,,,,,,,,,,,,,,,,,,,,,,,,,,,,,,,,,,,,,,,,,,,,,,,,,,
,,8,1.7661,8,1.7661,0,82,82,60,1,122,flower,garden,,90331,001,2022-04-21_18h00.00.971,SPAMnetsValid,2021.1.4,Win32,60.0024001,,,,,,,,,,,,,,,,,,,,,,,,,,,,,,,,,,,,,,,,,,,,,,,,,,,,,,,,,,,,,,,,,,,,,,,,,,,,,,,,,,,,,,,,,
,,6,1.8985,6,1.8985,0,83,83,19,1,183,cake,rose,,90331,001,2022-04-21_18h00.00.971,SPAMnetsValid,2021.1.4,Win32,60.0024001,,,,,,,,,,,,,,,,,,,,,,,,,,,,,,,,,,,,,,,,,,,,,,,,,,,,,,,,,,,,,,,,,,,,,,,,,,,,,,,,,,,,,,,,,
,,6,1.5224,6,1.5224,0,84,84,73,1,135,carrot,oven,,90331,001,2022-04-21_18h00.00.971,SPAMnetsValid,2021.1.4,Win32,60.0024001,,,,,,,,,,,,,,,,,,,,,,,,,,,,,,,,,,,,,,,,,,,,,,,,,,,,,,,,,,,,,,,,,,,,,,,,,,,,,,,,,,,,,,,,,
,,6,1.2893,6,1.2893,0,85,85,16,1,111,carrot,microwave,,90331,001,2022-04-21_18h00.00.971,SPAMnetsValid,2021.1.4,Win32,60.0024001,,,,,,,,,,,,,,,,,,,,,,,,,,,,,,,,,,,,,,,,,,,,,,,,,,,,,,,,,,,,,,,,,,,,,,,,,,,,,,,,,,,,,,,,,
,,6,0.9721,6,0.9721,0,86,86,57,1,127,cactus,chocolate,,90331,001,2022-04-21_18h00.00.971,SPAMnetsValid,2021.1.4,Win32,60.0024001,,,,,,,,,,,,,,,,,,,,,,,,,,,,,,,,,,,,,,,,,,,,,,,,,,,,,,,,,,,,,,,,,,,,,,,,,,,,,,,,,,,,,,,,,
,,3,1.8896,3,1.8896,0,87,87,59,1,164,cookie,garden,,90331,001,2022-04-21_18h00.00.971,SPAMnetsValid,2021.1.4,Win32,60.0024001,,,,,,,,,,,,,,,,,,,,,,,,,,,,,,,,,,,,,,,,,,,,,,,,,,,,,,,,,,,,,,,,,,,,,,,,,,,,,,,,,,,,,,,,,
,,3,1.432,3,1.432,0,88,88,95,1,121,broom,microwave,,90331,001,2022-04-21_18h00.00.971,SPAMnetsValid,2021.1.4,Win32,60.0024001,,,,,,,,,,,,,,,,,,,,,,,,,,,,,,,,,,,,,,,,,,,,,,,,,,,,,,,,,,,,,,,,,,,,,,,,,,,,,,,,,,,,,,,,,
,,7,1.8049,7,1.8049,0,89,89,87,1,114,cookie,strawberry,,90331,001,2022-04-21_18h00.00.971,SPAMnetsValid,2021.1.4,Win32,60.0024001,,,,,,,,,,,,,,,,,,,,,,,,,,,,,,,,,,,,,,,,,,,,,,,,,,,,,,,,,,,,,,,,,,,,,,,,,,,,,,,,,,,,,,,,,
,,7,1.8888,7,1.8888,0,90,90,91,1,166,cake,yogurt,,90331,001,2022-04-21_18h00.00.971,SPAMnetsValid,2021.1.4,Win32,60.0024001,,,,,,,,,,,,,,,,,,,,,,,,,,,,,,,,,,,,,,,,,,,,,,,,,,,,,,,,,,,,,,,,,,,,,,,,,,,,,,,,,,,,,,,,,
,,8,2.5438,8,2.5438,0,91,91,22,1,142,garden,tree,,90331,001,2022-04-21_18h00.00.971,SPAMnetsValid,2021.1.4,Win32,60.0024001,,,,,,,,,,,,,,,,,,,,,,,,,,,,,,,,,,,,,,,,,,,,,,,,,,,,,,,,,,,,,,,,,,,,,,,,,,,,,,,,,,,,,,,,,
,,9,2.0219,9,2.0219,0,92,92,25,1,194,cactus,cactus,CHECK,90331,001,2022-04-21_18h00.00.971,SPAMnetsValid,2021.1.4,Win32,60.0024001,,,,,,,,,,,,,,,,,,,,,,,,,,,,,,,,,,,,,,,,,,,,,,,,,,,,,,,,,,,,,,,,,,,,,,,,,,,,,,,,,,,,,,,,,
,,8,1.5598,8,1.5598,0,93,93,93,1,134,carrot,flower,,90331,001,2022-04-21_18h00.00.971,SPAMnetsValid,2021.1.4,Win32,60.0024001,,,,,,,,,,,,,,,,,,,,,,,,,,,,,,,,,,,,,,,,,,,,,,,,,,,,,,,,,,,,,,,,,,,,,,,,,,,,,,,,,,,,,,,,,
,,8,1.489,8,1.489,0,94,94,17,1,99,garden,melon,,90331,001,2022-04-21_18h00.00.971,SPAMnetsValid,2021.1.4,Win32,60.0024001,,,,,,,,,,,,,,,,,,,,,,,,,,,,,,,,,,,,,,,,,,,,,,,,,,,,,,,,,,,,,,,,,,,,,,,,,,,,,,,,,,,,,,,,,
,,8,2.1324,8,2.1324,0,95,95,36,1,161,kitchen,pretzel,,90331,001,2022-04-21_18h00.00.971,SPAMnetsValid,2021.1.4,Win32,60.0024001,,,,,,,,,,,,,,,,,,,,,,,,,,,,,,,,,,,,,,,,,,,,,,,,,,,,,,,,,,,,,,,,,,,,,,,,,,,,,,,,,,,,,,,,,
,,8,1.4599,8,1.4599,0,96,96,83,1,100,garden,tomato,,90331,001,2022-04-21_18h00.00.971,SPAMnetsValid,2021.1.4,Win32,60.0024001,,,,,,,,,,,,,,,,,,,,,,,,,,,,,,,,,,,,,,,,,,,,,,,,,,,,,,,,,,,,,,,,,,,,,,,,,,,,,,,,,,,,,,,,,
,,,,,,,,,,,,,,,90331,001,2022-04-21_18h00.00.971,SPAMnetsValid,2021.1.4,Win32,60.0024001,0,0,0,0,1,,,,,,,,,,,,,,,,,,,,,,,,,,,,,,,,,,,,,,,,,,,,,,,,,,,,,,,,,,,,,,,,,,,,,,,,,,,,,,,,,,,,
,,,,,,,,,,,,,,,90331,001,2022-04-21_18h00.00.971,SPAMnetsValid,2021.1.4,Win32,60.0024001,,,,,,0,0,0,1,1,0,1,,,,,,,,,,,,,,,,,,,,,,,,,,,,,,,,,,,,,,,,,,,,,,,,,,,,,,,,,,,,,,,,,,,,,,,,,,,,,
,,,,8,7.0728,,,,,,51,onion,strawberry,,90331,001,2022-04-21_18h00.00.971,SPAMnetsValid,2021.1.4,Win32,60.0024001,,,,,,,,,,,,,8,7.0728,0,0,0,86,1,,,,,,,,,,,,,,,,,,,,,,,,,,,,,,,,,,,,,,,,,,,,,,,,,,,,,,,,,,,,,,,,,,,,,,
,,,,9,1.6538,,,,,,191,cake,cake,CHECK,90331,001,2022-04-21_18h00.00.971,SPAMnetsValid,2021.1.4,Win32,60.0024001,,,,,,,,,,,,,9,1.6538,0,1,1,10,1,,,,,,,,,,,,,,,,,,,,,,,,,,,,,,,,,,,,,,,,,,,,,,,,,,,,,,,,,,,,,,,,,,,,,,
,,,,7,1.6159,,,,,,39,melon,pretzel,,90331,001,2022-04-21_18h00.00.971,SPAMnetsValid,2021.1.4,Win32,60.0024001,,,,,,,,,,,,,7,1.6159,0,2,2,20,1,,,,,,,,,,,,,,,,,,,,,,,,,,,,,,,,,,,,,,,,,,,,,,,,,,,,,,,,,,,,,,,,,,,,,,
,,,,8,1.832,,,,,,56,cactus,tree,,90331,001,2022-04-21_18h00.00.971,SPAMnetsValid,2021.1.4,Win32,60.0024001,,,,,,,,,,,,,8,1.832,0,3,3,21,1,,,,,,,,,,,,,,,,,,,,,,,,,,,,,,,,,,,,,,,,,,,,,,,,,,,,,,,,,,,,,,,,,,,,,,
,,,,7,1.177,,,,,,22,kitchen,strawberry,,90331,001,2022-04-21_18h00.00.971,SPAMnetsValid,2021.1.4,Win32,60.0024001,,,,,,,,,,,,,7,1.177,0,4,4,2,1,,,,,,,,,,,,,,,,,,,,,,,,,,,,,,,,,,,,,,,,,,,,,,,,,,,,,,,,,,,,,,,,,,,,,,
,,,,8,1.6878,,,,,,86,oven,rose,,90331,001,2022-04-21_18h00.00.971,SPAMnetsValid,2021.1.4,Win32,60.0024001,,,,,,,,,,,,,8,1.6878,0,5,5,79,1,,,,,,,,,,,,,,,,,,,,,,,,,,,,,,,,,,,,,,,,,,,,,,,,,,,,,,,,,,,,,,,,,,,,,,
,,,,8,1.6125,,,,,,89,chocolate,rose,,90331,001,2022-04-21_18h00.00.971,SPAMnetsValid,2021.1.4,Win32,60.0024001,,,,,,,,,,,,,8,1.6125,0,6,6,60,1,,,,,,,,,,,,,,,,,,,,,,,,,,,,,,,,,,,,,,,,,,,,,,,,,,,,,,,,,,,,,,,,,,,,,,
,,,,7,1.8443,,,,,,2,kitchen,onion,,90331,001,2022-04-21_18h00.00.971,SPAMnetsValid,2021.1.4,Win32,60.0024001,,,,,,,,,,,,,7,1.8443,0,7,7,91,1,,,,,,,,,,,,,,,,,,,,,,,,,,,,,,,,,,,,,,,,,,,,,,,,,,,,,,,,,,,,,,,,,,,,,,
,,,,4,2.0586,,,,,,8,broom,melon,,90331,001,2022-04-21_18h00.00.971,SPAMnetsValid,2021.1.4,Win32,60.0024001,,,,,,,,,,,,,4,2.0586,0,8,8,59,1,,,,,,,,,,,,,,,,,,,,,,,,,,,,,,,,,,,,,,,,,,,,,,,,,,,,,,,,,,,,,,,,,,,,,,
,,,,3,1.7156,,,,,,85,cake,tree,,90331,001,2022-04-21_18h00.00.971,SPAMnetsValid,2021.1.4,Win32,60.0024001,,,,,,,,,,,,,3,1.7156,0,9,9,18,1,,,,,,,,,,,,,,,,,,,,,,,,,,,,,,,,,,,,,,,,,,,,,,,,,,,,,,,,,,,,,,,,,,,,,,
,,,,3,1.7123,,,,,,48,flower,oven,,90331,001,2022-04-21_18h00.00.971,SPAMnetsValid,2021.1.4,Win32,60.0024001,,,,,,,,,,,,,3,1.7123,0,10,10,15,1,,,,,,,,,,,,,,,,,,,,,,,,,,,,,,,,,,,,,,,,,,,,,,,,,,,,,,,,,,,,,,,,,,,,,,
,,,,4,2.3576,,,,,,92,broom,flower,,90331,001,2022-04-21_18h00.00.971,SPAMnetsValid,2021.1.4,Win32,60.0024001,,,,,,,,,,,,,4,2.3576,0,11,11,88,1,,,,,,,,,,,,,,,,,,,,,,,,,,,,,,,,,,,,,,,,,,,,,,,,,,,,,,,,,,,,,,,,,,,,,,
,,,,7,1.9244,,,,,,93,kitchen,oven,,90331,001,2022-04-21_18h00.00.971,SPAMnetsValid,2021.1.4,Win32,60.0024001,,,,,,,,,,,,,7,1.9244,0,12,12,82,1,,,,,,,,,,,,,,,,,,,,,,,,,,,,,,,,,,,,,,,,,,,,,,,,,,,,,,,,,,,,,,,,,,,,,,
,,,,9,1.6301,,,,,,192,microwave,microwave,CHECK,90331,001,2022-04-21_18h00.00.971,SPAMnetsValid,2021.1.4,Win32,60.0024001,,,,,,,,,,,,,9,1.6301,0,13,13,53,1,,,,,,,,,,,,,,,,,,,,,,,,,,,,,,,,,,,,,,,,,,,,,,,,,,,,,,,,,,,,,,,,,,,,,,
,,,,8,1.9881,,,,,,94,kitchen,microwave,,90331,001,2022-04-21_18h00.00.971,SPAMnetsValid,2021.1.4,Win32,60.0024001,,,,,,,,,,,,,8,1.9881,0,14,14,58,1,,,,,,,,,,,,,,,,,,,,,,,,,,,,,,,,,,,,,,,,,,,,,,,,,,,,,,,,,,,,,,,,,,,,,,
,,,,6,9.6115,,,,,,32,cake,microwave,,90331,001,2022-04-21_18h00.00.971,SPAMnetsValid,2021.1.4,Win32,60.0024001,,,,,,,,,,,,,6,9.6115,0,15,15,33,1,,,,,,,,,,,,,,,,,,,,,,,,,,,,,,,,,,,,,,,,,,,,,,,,,,,,,,,,,,,,,,,,,,,,,,
,,,,7,11.0253,,,,,,88,cactus,melon,,90331,001,2022-04-21_18h00.00.971,SPAMnetsValid,2021.1.4,Win32,60.0024001,,,,,,,,,,,,,7,11.0253,0,16,16,38,1,,,,,,,,,,,,,,,,,,,,,,,,,,,,,,,,,,,,,,,,,,,,,,,,,,,,,,,,,,,,,,,,,,,,,,
,,,,7,1.3923,,,,,,15,onion,oven,,90331,001,2022-04-21_18h00.00.971,SPAMnetsValid,2021.1.4,Win32,60.0024001,,,,,,,,,,,,,7,1.3923,0,17,17,39,1,,,,,,,,,,,,,,,,,,,,,,,,,,,,,,,,,,,,,,,,,,,,,,,,,,,,,,,,,,,,,,,,,,,,,,
,,,,7,1.1545,,,,,,66,melon,yogurt,,90331,001,2022-04-21_18h00.00.971,SPAMnetsValid,2021.1.4,Win32,60.0024001,,,,,,,,,,,,,7,1.1545,0,18,18,48,1,,,,,,,,,,,,,,,,,,,,,,,,,,,,,,,,,,,,,,,,,,,,,,,,,,,,,,,,,,,,,,,,,,,,,,
,,,,7,0.9538,,,,,,41,broom,cactus,,90331,001,2022-04-21_18h00.00.971,SPAMnetsValid,2021.1.4,Win32,60.0024001,,,,,,,,,,,,,7,0.9538,0,19,19,46,1,,,,,,,,,,,,,,,,,,,,,,,,,,,,,,,,,,,,,,,,,,,,,,,,,,,,,,,,,,,,,,,,,,,,,,
,,,,4,3.572,,,,,,11,refrigerator,tree,,90331,001,2022-04-21_18h00.00.971,SPAMnetsValid,2021.1.4,Win32,60.0024001,,,,,,,,,,,,,4,3.572,0,20,20,43,1,,,,,,,,,,,,,,,,,,,,,,,,,,,,,,,,,,,,,,,,,,,,,,,,,,,,,,,,,,,,,,,,,,,,,,
,,,,3,1.4877,,,,,,13,broom,yogurt,,90331,001,2022-04-21_18h00.00.971,SPAMnetsValid,2021.1.4,Win32,60.0024001,,,,,,,,,,,,,3,1.4877,0,21,21,5,1,,,,,,,,,,,,,,,,,,,,,,,,,,,,,,,,,,,,,,,,,,,,,,,,,,,,,,,,,,,,,,,,,,,,,,
,,,,7,1.7392,,,,,,17,carrot,melon,,90331,001,2022-04-21_18h00.00.971,SPAMnetsValid,2021.1.4,Win32,60.0024001,,,,,,,,,,,,,7,1.7392,0,22,22,24,1,,,,,,,,,,,,,,,,,,,,,,,,,,,,,,,,,,,,,,,,,,,,,,,,,,,,,,,,,,,,,,,,,,,,,,
,,,,7,1.2129,,,,,,44,cookie,melon,,90331,001,2022-04-21_18h00.00.971,SPAMnetsValid,2021.1.4,Win32,60.0024001,,,,,,,,,,,,,7,1.2129,0,23,23,92,1,,,,,,,,,,,,,,,,,,,,,,,,,,,,,,,,,,,,,,,,,,,,,,,,,,,,,,,,,,,,,,,,,,,,,,
,,,,7,9.6318,,,,,,20,rose,tree,,90331,001,2022-04-21_18h00.00.971,SPAMnetsValid,2021.1.4,Win32,60.0024001,,,,,,,,,,,,,7,9.6318,0,24,24,66,1,,,,,,,,,,,,,,,,,,,,,,,,,,,,,,,,,,,,,,,,,,,,,,,,,,,,,,,,,,,,,,,,,,,,,,
,,,,7,1.2209,,,,,,76,garden,rose,,90331,001,2022-04-21_18h00.00.971,SPAMnetsValid,2021.1.4,Win32,60.0024001,,,,,,,,,,,,,7,1.2209,0,25,25,19,1,,,,,,,,,,,,,,,,,,,,,,,,,,,,,,,,,,,,,,,,,,,,,,,,,,,,,,,,,,,,,,,,,,,,,,
,,,,6,1.893,,,,,,34,melon,oven,,90331,001,2022-04-21_18h00.00.971,SPAMnetsValid,2021.1.4,Win32,60.0024001,,,,,,,,,,,,,6,1.893,0,26,26,7,1,,,,,,,,,,,,,,,,,,,,,,,,,,,,,,,,,,,,,,,,,,,,,,,,,,,,,,,,,,,,,,,,,,,,,,
,,,,4,1.6842,,,,,,40,broom,cake,,90331,001,2022-04-21_18h00.00.971,SPAMnetsValid,2021.1.4,Win32,60.0024001,,,,,,,,,,,,,4,1.6842,0,27,27,32,1,,,,,,,,,,,,,,,,,,,,,,,,,,,,,,,,,,,,,,,,,,,,,,,,,,,,,,,,,,,,,,,,,,,,,,
,,,,6,2.0172,,,,,,45,onion,pretzel,,90331,001,2022-04-21_18h00.00.971,SPAMnetsValid,2021.1.4,Win32,60.0024001,,,,,,,,,,,,,6,2.0172,0,28,28,69,1,,,,,,,,,,,,,,,,,,,,,,,,,,,,,,,,,,,,,,,,,,,,,,,,,,,,,,,,,,,,,,,,,,,,,,
,,,,6,1.3534,,,,,,49,flower,strawberry,,90331,001,2022-04-21_18h00.00.971,SPAMnetsValid,2021.1.4,Win32,60.0024001,,,,,,,,,,,,,6,1.3534,0,29,29,3,1,,,,,,,,,,,,,,,,,,,,,,,,,,,,,,,,,,,,,,,,,,,,,,,,,,,,,,,,,,,,,,,,,,,,,,
,,,,4,2.2552,,,,,,5,oven,tree,,90331,001,2022-04-21_18h00.00.971,SPAMnetsValid,2021.1.4,Win32,60.0024001,,,,,,,,,,,,,4,2.2552,0,30,30,70,1,,,,,,,,,,,,,,,,,,,,,,,,,,,,,,,,,,,,,,,,,,,,,,,,,,,,,,,,,,,,,,,,,,,,,,
,,,,6,1.5738,,,,,,30,cookie,pretzel,,90331,001,2022-04-21_18h00.00.971,SPAMnetsValid,2021.1.4,Win32,60.0024001,,,,,,,,,,,,,6,1.5738,0,31,31,78,1,,,,,,,,,,,,,,,,,,,,,,,,,,,,,,,,,,,,,,,,,,,,,,,,,,,,,,,,,,,,,,,,,,,,,,
,,,,4,1.5606,,,,,,35,flower,pretzel,,90331,001,2022-04-21_18h00.00.971,SPAMnetsValid,2021.1.4,Win32,60.0024001,,,,,,,,,,,,,4,1.5606,0,32,32,26,1,,,,,,,,,,,,,,,,,,,,,,,,,,,,,,,,,,,,,,,,,,,,,,,,,,,,,,,,,,,,,,,,,,,,,,
,,,,4,1.5075,,,,,,80,chocolate,tree,,90331,001,2022-04-21_18h00.00.971,SPAMnetsValid,2021.1.4,Win32,60.0024001,,,,,,,,,,,,,4,1.5075,0,33,33,89,1,,,,,,,,,,,,,,,,,,,,,,,,,,,,,,,,,,,,,,,,,,,,,,,,,,,,,,,,,,,,,,,,,,,,,,
,,,,4,1.3044,,,,,,70,chocolate,onion,,90331,001,2022-04-21_18h00.00.971,SPAMnetsValid,2021.1.4,Win32,60.0024001,,,,,,,,,,,,,4,1.3044,0,34,34,74,1,,,,,,,,,,,,,,,,,,,,,,,,,,,,,,,,,,,,,,,,,,,,,,,,,,,,,,,,,,,,,,,,,,,,,,
,,,,7,2.1167,,,,,,77,refrigerator,yogurt,,90331,001,2022-04-21_18h00.00.971,SPAMnetsValid,2021.1.4,Win32,60.0024001,,,,,,,,,,,,,7,2.1167,0,35,35,42,1,,,,,,,,,,,,,,,,,,,,,,,,,,,,,,,,,,,,,,,,,,,,,,,,,,,,,,,,,,,,,,,,,,,,,,
,,,,7,2.5653,,,,,,61,strawberry,tomato,,90331,001,2022-04-21_18h00.00.971,SPAMnetsValid,2021.1.4,Win32,60.0024001,,,,,,,,,,,,,7,2.5653,0,36,36,80,1,,,,,,,,,,,,,,,,,,,,,,,,,,,,,,,,,,,,,,,,,,,,,,,,,,,,,,,,,,,,,,,,,,,,,,
,,,,6,2.7886,,,,,,46,garden,yogurt,,90331,001,2022-04-21_18h00.00.971,SPAMnetsValid,2021.1.4,Win32,60.0024001,,,,,,,,,,,,,6,2.7886,0,37,37,65,1,,,,,,,,,,,,,,,,,,,,,,,,,,,,,,,,,,,,,,,,,,,,,,,,,,,,,,,,,,,,,,,,,,,,,,
,,,,5,39.6558,,,,,,16,chocolate,flower,,90331,001,2022-04-21_18h00.00.971,SPAMnetsValid,2021.1.4,Win32,60.0024001,,,,,,,,,,,,,5,39.6558,0,38,38,22,1,,,,,,,,,,,,,,,,,,,,,,,,,,,,,,,,,,,,,,,,,,,,,,,,,,,,,,,,,,,,,,,,,,,,,,
,,,,3,1.8261,,,,,,21,cake,onion,,90331,001,2022-04-21_18h00.00.971,SPAMnetsValid,2021.1.4,Win32,60.0024001,,,,,,,,,,,,,3,1.8261,0,39,39,63,1,,,,,,,,,,,,,,,,,,,,,,,,,,,,,,,,,,,,,,,,,,,,,,,,,,,,,,,,,,,,,,,,,,,,,,
,,,,4,1.6575,,,,,,73,broom,chocolate,,90331,001,2022-04-21_18h00.00.971,SPAMnetsValid,2021.1.4,Win32,60.0024001,,,,,,,,,,,,,4,1.6575,0,40,40,47,1,,,,,,,,,,,,,,,,,,,,,,,,,,,,,,,,,,,,,,,,,,,,,,,,,,,,,,,,,,,,,,,,,,,,,,
,,,,4,1.3233,,,,,,95,broom,refrigerator,,90331,001,2022-04-21_18h00.00.971,SPAMnetsValid,2021.1.4,Win32,60.0024001,,,,,,,,,,,,,4,1.3233,0,41,41,90,1,,,,,,,,,,,,,,,,,,,,,,,,,,,,,,,,,,,,,,,,,,,,,,,,,,,,,,,,,,,,,,,,,,,,,,
,,,,7,1.7381,,,,,,25,carrot,onion,,90331,001,2022-04-21_18h00.00.971,SPAMnetsValid,2021.1.4,Win32,60.0024001,,,,,,,,,,,,,7,1.7381,0,42,42,44,1,,,,,,,,,,,,,,,,,,,,,,,,,,,,,,,,,,,,,,,,,,,,,,,,,,,,,,,,,,,,,,,,,,,,,,
,,,,7,0.8877,,,,,,67,flower,yogurt,,90331,001,2022-04-21_18h00.00.971,SPAMnetsValid,2021.1.4,Win32,60.0024001,,,,,,,,,,,,,7,0.8877,0,43,43,12,1,,,,,,,,,,,,,,,,,,,,,,,,,,,,,,,,,,,,,,,,,,,,,,,,,,,,,,,,,,,,,,,,,,,,,,
,,,,6,2.3609,,,,,,64,chocolate,garden,,90331,001,2022-04-21_18h00.00.971,SPAMnetsValid,2021.1.4,Win32,60.0024001,,,,,,,,,,,,,6,2.3609,0,44,44,14,1,,,,,,,,,,,,,,,,,,,,,,,,,,,,,,,,,,,,,,,,,,,,,,,,,,,,,,,,,,,,,,,,,,,,,,
,,,,6,1.2878,,,,,,59,rose,strawberry,,90331,001,2022-04-21_18h00.00.971,SPAMnetsValid,2021.1.4,Win32,60.0024001,,,,,,,,,,,,,6,1.2878,0,45,45,72,1,,,,,,,,,,,,,,,,,,,,,,,,,,,,,,,,,,,,,,,,,,,,,,,,,,,,,,,,,,,,,,,,,,,,,,
,,,,4,2.1974,,,,,,58,garden,oven,,90331,001,2022-04-21_18h00.00.971,SPAMnetsValid,2021.1.4,Win32,60.0024001,,,,,,,,,,,,,4,2.1974,0,46,46,37,1,,,,,,,,,,,,,,,,,,,,,,,,,,,,,,,,,,,,,,,,,,,,,,,,,,,,,,,,,,,,,,,,,,,,,,
,,,,4,11.5896,,,,,,23,flower,microwave,,90331,001,2022-04-21_18h00.00.971,SPAMnetsValid,2021.1.4,Win32,60.0024001,,,,,,,,,,,,,4,11.5896,0,47,47,25,1,,,,,,,,,,,,,,,,,,,,,,,,,,,,,,,,,,,,,,,,,,,,,,,,,,,,,,,,,,,,,,,,,,,,,,
,,,,4,1.3425,,,,,,6,garden,onion,,90331,001,2022-04-21_18h00.00.971,SPAMnetsValid,2021.1.4,Win32,60.0024001,,,,,,,,,,,,,4,1.3425,0,48,48,83,1,,,,,,,,,,,,,,,,,,,,,,,,,,,,,,,,,,,,,,,,,,,,,,,,,,,,,,,,,,,,,,,,,,,,,,
,,,,6,1.958,,,,,,24,cookie,tomato,,90331,001,2022-04-21_18h00.00.971,SPAMnetsValid,2021.1.4,Win32,60.0024001,,,,,,,,,,,,,6,1.958,0,49,49,68,1,,,,,,,,,,,,,,,,,,,,,,,,,,,,,,,,,,,,,,,,,,,,,,,,,,,,,,,,,,,,,,,,,,,,,,
,,,,7,7.5788,,,,,,79,garden,strawberry,,90331,001,2022-04-21_18h00.00.971,SPAMnetsValid,2021.1.4,Win32,60.0024001,,,,,,,,,,,,,7,7.5788,0,50,50,87,1,,,,,,,,,,,,,,,,,,,,,,,,,,,,,,,,,,,,,,,,,,,,,,,,,,,,,,,,,,,,,,,,,,,,,,
,,,,7,1.3623,,,,,,68,flower,tomato,,90331,001,2022-04-21_18h00.00.971,SPAMnetsValid,2021.1.4,Win32,60.0024001,,,,,,,,,,,,,7,1.3623,0,51,51,94,1,,,,,,,,,,,,,,,,,,,,,,,,,,,,,,,,,,,,,,,,,,,,,,,,,,,,,,,,,,,,,,,,,,,,,,
,,,,6,2.6386,,,,,,7,melon,tree,,90331,001,2022-04-21_18h00.00.971,SPAMnetsValid,2021.1.4,Win32,60.0024001,,,,,,,,,,,,,6,2.6386,0,52,52,77,1,,,,,,,,,,,,,,,,,,,,,,,,,,,,,,,,,,,,,,,,,,,,,,,,,,,,,,,,,,,,,,,,,,,,,,
,,,,4,12.3043,,,,,,62,kitchen,rose,,90331,001,2022-04-21_18h00.00.971,SPAMnetsValid,2021.1.4,Win32,60.0024001,,,,,,,,,,,,,4,12.3043,0,53,53,57,1,,,,,,,,,,,,,,,,,,,,,,,,,,,,,,,,,,,,,,,,,,,,,,,,,,,,,,,,,,,,,,,,,,,,,,
,,,,4,1.412,,,,,,53,garden,pretzel,,90331,001,2022-04-21_18h00.00.971,SPAMnetsValid,2021.1.4,Win32,60.0024001,,,,,,,,,,,,,4,1.412,0,54,54,0,1,,,,,,,,,,,,,,,,,,,,,,,,,,,,,,,,,,,,,,,,,,,,,,,,,,,,,,,,,,,,,,,,,,,,,,
,,,,6,2.6246,,,,,,36,broom,kitchen,,90331,001,2022-04-21_18h00.00.971,SPAMnetsValid,2021.1.4,Win32,60.0024001,,,,,,,,,,,,,6,2.6246,0,55,55,76,1,,,,,,,,,,,,,,,,,,,,,,,,,,,,,,,,,,,,,,,,,,,,,,,,,,,,,,,,,,,,,,,,,,,,,,
,,,,4,1.6283,,,,,,65,broom,garden,,90331,001,2022-04-21_18h00.00.971,SPAMnetsValid,2021.1.4,Win32,60.0024001,,,,,,,,,,,,,4,1.6283,0,56,56,23,1,,,,,,,,,,,,,,,,,,,,,,,,,,,,,,,,,,,,,,,,,,,,,,,,,,,,,,,,,,,,,,,,,,,,,,
,,,,6,1.3543,,,,,,29,chocolate,melon,,90331,001,2022-04-21_18h00.00.971,SPAMnetsValid,2021.1.4,Win32,60.0024001,,,,,,,,,,,,,6,1.3543,0,57,57,34,1,,,,,,,,,,,,,,,,,,,,,,,,,,,,,,,,,,,,,,,,,,,,,,,,,,,,,,,,,,,,,,,,,,,,,,
,,,,6,1.4331,,,,,,50,carrot,rose,,90331,001,2022-04-21_18h00.00.971,SPAMnetsValid,2021.1.4,Win32,60.0024001,,,,,,,,,,,,,6,1.4331,0,58,58,73,1,,,,,,,,,,,,,,,,,,,,,,,,,,,,,,,,,,,,,,,,,,,,,,,,,,,,,,,,,,,,,,,,,,,,,,
,,,,6,1.1764,,,,,,4,chocolate,pretzel,,90331,001,2022-04-21_18h00.00.971,SPAMnetsValid,2021.1.4,Win32,60.0024001,,,,,,,,,,,,,6,1.1764,0,59,59,52,1,,,,,,,,,,,,,,,,,,,,,,,,,,,,,,,,,,,,,,,,,,,,,,,,,,,,,,,,,,,,,,,,,,,,,,
,,,,7,1.7039,,,,,,69,carrot,refrigerator,,90331,001,2022-04-21_18h00.00.971,SPAMnetsValid,2021.1.4,Win32,60.0024001,,,,,,,,,,,,,7,1.7039,0,60,60,75,1,,,,,,,,,,,,,,,,,,,,,,,,,,,,,,,,,,,,,,,,,,,,,,,,,,,,,,,,,,,,,,,,,,,,,,
,,,,7,1.5565,,,,,,3,cake,oven,,90331,001,2022-04-21_18h00.00.971,SPAMnetsValid,2021.1.4,Win32,60.0024001,,,,,,,,,,,,,7,1.5565,0,61,61,30,1,,,,,,,,,,,,,,,,,,,,,,,,,,,,,,,,,,,,,,,,,,,,,,,,,,,,,,,,,,,,,,,,,,,,,,
,,,,6,2.2854,,,,,,1,rose,yogurt,,90331,001,2022-04-21_18h00.00.971,SPAMnetsValid,2021.1.4,Win32,60.0024001,,,,,,,,,,,,,6,2.2854,0,62,62,55,1,,,,,,,,,,,,,,,,,,,,,,,,,,,,,,,,,,,,,,,,,,,,,,,,,,,,,,,,,,,,,,,,,,,,,,
,,,,6,2.4715,,,,,,42,garden,kitchen,,90331,001,2022-04-21_18h00.00.971,SPAMnetsValid,2021.1.4,Win32,60.0024001,,,,,,,,,,,,,6,2.4715,0,63,63,29,1,,,,,,,,,,,,,,,,,,,,,,,,,,,,,,,,,,,,,,,,,,,,,,,,,,,,,,,,,,,,,,,,,,,,,,
,,,,4,1.838,,,,,,83,broom,carrot,,90331,001,2022-04-21_18h00.00.971,SPAMnetsValid,2021.1.4,Win32,60.0024001,,,,,,,,,,,,,4,1.838,0,64,64,4,1,,,,,,,,,,,,,,,,,,,,,,,,,,,,,,,,,,,,,,,,,,,,,,,,,,,,,,,,,,,,,,,,,,,,,,
,,,,6,7.4977,,,,,,33,oven,yogurt,,90331,001,2022-04-21_18h00.00.971,SPAMnetsValid,2021.1.4,Win32,60.0024001,,,,,,,,,,,,,6,7.4977,0,65,65,31,1,,,,,,,,,,,,,,,,,,,,,,,,,,,,,,,,,,,,,,,,,,,,,,,,,,,,,,,,,,,,,,,,,,,,,,
,,,,7,21.1505,,,,,,27,cactus,cookie,,90331,001,2022-04-21_18h00.00.971,SPAMnetsValid,2021.1.4,Win32,60.0024001,,,,,,,,,,,,,7,21.1505,0,66,66,17,1,,,,,,,,,,,,,,,,,,,,,,,,,,,,,,,,,,,,,,,,,,,,,,,,,,,,,,,,,,,,,,,,,,,,,,
,,,,4,2.8159,,,,,,43,chocolate,tomato,,90331,001,2022-04-21_18h00.00.971,SPAMnetsValid,2021.1.4,Win32,60.0024001,,,,,,,,,,,,,4,2.8159,0,67,67,8,1,,,,,,,,,,,,,,,,,,,,,,,,,,,,,,,,,,,,,,,,,,,,,,,,,,,,,,,,,,,,,,,,,,,,,,
,,,,7,1.8113,,,,,,71,broom,rose,,90331,001,2022-04-21_18h00.00.971,SPAMnetsValid,2021.1.4,Win32,60.0024001,,,,,,,,,,,,,7,1.8113,0,68,68,61,1,,,,,,,,,,,,,,,,,,,,,,,,,,,,,,,,,,,,,,,,,,,,,,,,,,,,,,,,,,,,,,,,,,,,,,
,,,,4,18.3345,,,,,,72,broom,onion,,90331,001,2022-04-21_18h00.00.971,SPAMnetsValid,2021.1.4,Win32,60.0024001,,,,,,,,,,,,,4,18.3345,0,69,69,27,1,,,,,,,,,,,,,,,,,,,,,,,,,,,,,,,,,,,,,,,,,,,,,,,,,,,,,,,,,,,,,,,,,,,,,,
,,,,6,2.1643,,,,,,55,tomato,tree,,90331,001,2022-04-21_18h00.00.971,SPAMnetsValid,2021.1.4,Win32,60.0024001,,,,,,,,,,,,,6,2.1643,0,70,70,35,1,,,,,,,,,,,,,,,,,,,,,,,,,,,,,,,,,,,,,,,,,,,,,,,,,,,,,,,,,,,,,,,,,,,,,,
,,,,4,2.2966,,,,,,91,microwave,rose,,90331,001,2022-04-21_18h00.00.971,SPAMnetsValid,2021.1.4,Win32,60.0024001,,,,,,,,,,,,,4,2.2966,0,71,71,84,1,,,,,,,,,,,,,,,,,,,,,,,,,,,,,,,,,,,,,,,,,,,,,,,,,,,,,,,,,,,,,,,,,,,,,,
,,,,4,1.2641,,,,,,90,cactus,cake,,90331,001,2022-04-21_18h00.00.971,SPAMnetsValid,2021.1.4,Win32,60.0024001,,,,,,,,,,,,,4,1.2641,0,72,72,85,1,,,,,,,,,,,,,,,,,,,,,,,,,,,,,,,,,,,,,,,,,,,,,,,,,,,,,,,,,,,,,,,,,,,,,,
,,,,7,2.5926,,,,,,12,cookie,yogurt,,90331,001,2022-04-21_18h00.00.971,SPAMnetsValid,2021.1.4,Win32,60.0024001,,,,,,,,,,,,,7,2.5926,0,73,73,36,1,,,,,,,,,,,,,,,,,,,,,,,,,,,,,,,,,,,,,,,,,,,,,,,,,,,,,,,,,,,,,,,,,,,,,,
,,,,7,2.9335,,,,,,10,flower,onion,,90331,001,2022-04-21_18h00.00.971,SPAMnetsValid,2021.1.4,Win32,60.0024001,,,,,,,,,,,,,7,2.9335,0,74,74,45,1,,,,,,,,,,,,,,,,,,,,,,,,,,,,,,,,,,,,,,,,,,,,,,,,,,,,,,,,,,,,,,,,,,,,,,
,,,,7,1.9989,,,,,,18,onion,refrigerator,,90331,001,2022-04-21_18h00.00.971,SPAMnetsValid,2021.1.4,Win32,60.0024001,,,,,,,,,,,,,7,1.9989,0,75,75,62,1,,,,,,,,,,,,,,,,,,,,,,,,,,,,,,,,,,,,,,,,,,,,,,,,,,,,,,,,,,,,,,,,,,,,,,
,,,,8,2.0827,,,,,,63,cake,cookie,,90331,001,2022-04-21_18h00.00.971,SPAMnetsValid,2021.1.4,Win32,60.0024001,,,,,,,,,,,,,8,2.0827,0,76,76,93,1,,,,,,,,,,,,,,,,,,,,,,,,,,,,,,,,,,,,,,,,,,,,,,,,,,,,,,,,,,,,,,,,,,,,,,
,,,,7,1.2904,,,,,,54,chocolate,yogurt,,90331,001,2022-04-21_18h00.00.971,SPAMnetsValid,2021.1.4,Win32,60.0024001,,,,,,,,,,,,,7,1.2904,0,77,77,67,1,,,,,,,,,,,,,,,,,,,,,,,,,,,,,,,,,,,,,,,,,,,,,,,,,,,,,,,,,,,,,,,,,,,,,,
,,,,6,2.2295,,,,,,78,cookie,rose,,90331,001,2022-04-21_18h00.00.971,SPAMnetsValid,2021.1.4,Win32,60.0024001,,,,,,,,,,,,,6,2.2295,0,78,78,56,1,,,,,,,,,,,,,,,,,,,,,,,,,,,,,,,,,,,,,,,,,,,,,,,,,,,,,,,,,,,,,,,,,,,,,,
,,,,6,2.1057,,,,,,52,carrot,tomato,,90331,001,2022-04-21_18h00.00.971,SPAMnetsValid,2021.1.4,Win32,60.0024001,,,,,,,,,,,,,6,2.1057,0,79,79,95,1,,,,,,,,,,,,,,,,,,,,,,,,,,,,,,,,,,,,,,,,,,,,,,,,,,,,,,,,,,,,,,,,,,,,,,
,,,,7,1.6049,,,,,,26,tomato,yogurt,,90331,001,2022-04-21_18h00.00.971,SPAMnetsValid,2021.1.4,Win32,60.0024001,,,,,,,,,,,,,7,1.6049,0,80,80,13,1,,,,,,,,,,,,,,,,,,,,,,,,,,,,,,,,,,,,,,,,,,,,,,,,,,,,,,,,,,,,,,,,,,,,,,
,,,,7,1.1402,,,,,,87,carrot,yogurt,,90331,001,2022-04-21_18h00.00.971,SPAMnetsValid,2021.1.4,Win32,60.0024001,,,,,,,,,,,,,7,1.1402,0,81,81,6,1,,,,,,,,,,,,,,,,,,,,,,,,,,,,,,,,,,,,,,,,,,,,,,,,,,,,,,,,,,,,,,,,,,,,,,
,,,,7,2.4419,,,,,,82,cake,kitchen,,90331,001,2022-04-21_18h00.00.971,SPAMnetsValid,2021.1.4,Win32,60.0024001,,,,,,,,,,,,,7,2.4419,0,82,82,96,1,,,,,,,,,,,,,,,,,,,,,,,,,,,,,,,,,,,,,,,,,,,,,,,,,,,,,,,,,,,,,,,,,,,,,,
,,,,8,2.1753,,,,,,47,onion,tomato,,90331,001,2022-04-21_18h00.00.971,SPAMnetsValid,2021.1.4,Win32,60.0024001,,,,,,,,,,,,,8,2.1753,0,83,83,51,1,,,,,,,,,,,,,,,,,,,,,,,,,,,,,,,,,,,,,,,,,,,,,,,,,,,,,,,,,,,,,,,,,,,,,,
,,,,4,1.8804,,,,,,57,flower,kitchen,,90331,001,2022-04-21_18h00.00.971,SPAMnetsValid,2021.1.4,Win32,60.0024001,,,,,,,,,,,,,4,1.8804,0,84,84,49,1,,,,,,,,,,,,,,,,,,,,,,,,,,,,,,,,,,,,,,,,,,,,,,,,,,,,,,,,,,,,,,,,,,,,,,
,,,,6,2.3588,,,,,,9,kitchen,refrigerator,,90331,001,2022-04-21_18h00.00.971,SPAMnetsValid,2021.1.4,Win32,60.0024001,,,,,,,,,,,,,6,2.3588,0,85,85,64,1,,,,,,,,,,,,,,,,,,,,,,,,,,,,,,,,,,,,,,,,,,,,,,,,,,,,,,,,,,,,,,,,,,,,,,
,,,,4,2.626,,,,,,31,cactus,pretzel,,90331,001,2022-04-21_18h00.00.971,SPAMnetsValid,2021.1.4,Win32,60.0024001,,,,,,,,,,,,,4,2.626,0,86,86,1,1,,,,,,,,,,,,,,,,,,,,,,,,,,,,,,,,,,,,,,,,,,,,,,,,,,,,,,,,,,,,,,,,,,,,,,
,,,,3,2.0259,,,,,,14,broom,cookie,,90331,001,2022-04-21_18h00.00.971,SPAMnetsValid,2021.1.4,Win32,60.0024001,,,,,,,,,,,,,3,2.0259,0,87,87,16,1,,,,,,,,,,,,,,,,,,,,,,,,,,,,,,,,,,,,,,,,,,,,,,,,,,,,,,,,,,,,,,,,,,,,,,
,,,,7,1.7043,,,,,,60,cactus,onion,,90331,001,2022-04-21_18h00.00.971,SPAMnetsValid,2021.1.4,Win32,60.0024001,,,,,,,,,,,,,7,1.7043,0,88,88,81,1,,,,,,,,,,,,,,,,,,,,,,,,,,,,,,,,,,,,,,,,,,,,,,,,,,,,,,,,,,,,,,,,,,,,,,
,,,,7,1.6711,,,,,,38,pretzel,refrigerator,,90331,001,2022-04-21_18h00.00.971,SPAMnetsValid,2021.1.4,Win32,60.0024001,,,,,,,,,,,,,7,1.6711,0,89,89,71,1,,,,,,,,,,,,,,,,,,,,,,,,,,,,,,,,,,,,,,,,,,,,,,,,,,,,,,,,,,,,,,,,,,,,,,
,,,,6,2.2245,,,,,,84,oven,tomato,,90331,001,2022-04-21_18h00.00.971,SPAMnetsValid,2021.1.4,Win32,60.0024001,,,,,,,,,,,,,6,2.2245,0,90,90,28,1,,,,,,,,,,,,,,,,,,,,,,,,,,,,,,,,,,,,,,,,,,,,,,,,,,,,,,,,,,,,,,,,,,,,,,
,,,,3,3.63,,,,,,74,broom,pretzel,,90331,001,2022-04-21_18h00.00.971,SPAMnetsValid,2021.1.4,Win32,60.0024001,,,,,,,,,,,,,3,3.63,0,91,91,40,1,,,,,,,,,,,,,,,,,,,,,,,,,,,,,,,,,,,,,,,,,,,,,,,,,,,,,,,,,,,,,,,,,,,,,,
,,,,6,3.6744,,,,,,37,garden,refrigerator,,90331,001,2022-04-21_18h00.00.971,SPAMnetsValid,2021.1.4,Win32,60.0024001,,,,,,,,,,,,,6,3.6744,0,92,92,11,1,,,,,,,,,,,,,,,,,,,,,,,,,,,,,,,,,,,,,,,,,,,,,,,,,,,,,,,,,,,,,,,,,,,,,,
,,,,7,2.5408,,,,,,75,cookie,onion,,90331,001,2022-04-21_18h00.00.971,SPAMnetsValid,2021.1.4,Win32,60.0024001,,,,,,,,,,,,,7,2.5408,0,93,93,9,1,,,,,,,,,,,,,,,,,,,,,,,,,,,,,,,,,,,,,,,,,,,,,,,,,,,,,,,,,,,,,,,,,,,,,,
,,,,7,1.5875,,,,,,28,cake,melon,,90331,001,2022-04-21_18h00.00.971,SPAMnetsValid,2021.1.4,Win32,60.0024001,,,,,,,,,,,,,7,1.5875,0,94,94,54,1,,,,,,,,,,,,,,,,,,,,,,,,,,,,,,,,,,,,,,,,,,,,,,,,,,,,,,,,,,,,,,,,,,,,,,
,,,,7,1.1597,,,,,,81,pretzel,yogurt,,90331,001,2022-04-21_18h00.00.971,SPAMnetsValid,2021.1.4,Win32,60.0024001,,,,,,,,,,,,,7,1.1597,0,95,95,50,1,,,,,,,,,,,,,,,,,,,,,,,,,,,,,,,,,,,,,,,,,,,,,,,,,,,,,,,,,,,,,,,,,,,,,,
,,,,8,3.377,,,,,,19,microwave,pretzel,,90331,001,2022-04-21_18h00.00.971,SPAMnetsValid,2021.1.4,Win32,60.0024001,,,,,,,,,,,,,8,3.377,0,96,96,41,1,,,,,,,,,,,,,,,,,,,,,,,,,,,,,,,,,,,,,,,,,,,,,,,,,,,,,,,,,,,,,,,,,,,,,,
,,,,,,,,,,,,,,,90331,001,2022-04-21_18h00.00.971,SPAMnetsValid,2021.1.4,Win32,60.0024001,,,,,,,,,,,,,,,,,,,,0,0,0,0,1,,,,,,,,,,,,,,,,,,,,,,,,,,,,,,,,,,,,,,,,,,,,,,,,,,,,,,,,,,,,,,,,,
,,,,,,,,,,,,,,,90331,001,2022-04-21_18h00.00.971,SPAMnetsValid,2021.1.4,Win32,60.0024001,,,,,,0,1,1,0,1,1,0,,,,,,,,,,,,,,,,,,,,,,,,,,,,,,,,,,,,,,,,,,,,,,,,,,,,,,,,,,,,,,,,,,,,,,,,,,,,,
,,,,,,,,,,,,,,,90331,001,2022-04-21_18h00.00.971,SPAMnetsValid,2021.1.4,Win32,60.0024001,,,,,,,,,,,,,,,,,,,,,,,,,2,17.6888,0,0,0,0,1,rancor,forbearance,ridicule,malice,bravery,3,,,,,,,,,,,,,,,,,,,,,,,,,,,,,,,,,,,,,,,,,,,,,,,,,,,,
,,,,,,,,,,,,,,,90331,001,2022-04-21_18h00.00.971,SPAMnetsValid,2021.1.4,Win32,60.0024001,,,,,,,,,,,,,,,,,,,,,,,,,4,17.5602,0,1,1,1,1,raucous,empty,quiet,smooth,harsh,4,,,,,,,,,,,,,,,,,,,,,,,,,,,,,,,,,,,,,,,,,,,,,,,,,,,,
,,,,,,,,,,,,,,,90331,001,2022-04-21_18h00.00.971,SPAMnetsValid,2021.1.4,Win32,60.0024001,,,,,,,,,,,,,,,,,,,,,,,,,3,4.3046,0,2,2,2,1,gargoyle,oil,medicine,carved waterspout,ugly building,3,,,,,,,,,,,,,,,,,,,,,,,,,,,,,,,,,,,,,,,,,,,,,,,,,,,,
,,,,,,,,,,,,,,,90331,001,2022-04-21_18h00.00.971,SPAMnetsValid,2021.1.4,Win32,60.0024001,,,,,,,,,,,,,,,,,,,,,,,,,2,20.3547,0,3,3,3,1,recrudesce,purify,renew activity,lack refinement,crush,2,,,,,,,,,,,,,,,,,,,,,,,,,,,,,,,,,,,,,,,,,,,,,,,,,,,,
,,,,,,,,,,,,,,,90331,001,2022-04-21_18h00.00.971,SPAMnetsValid,2021.1.4,Win32,60.0024001,,,,,,,,,,,,,,,,,,,,,,,,,3,11.0661,0,4,4,4,1,specious,"plausible, but not genuine",noteworthy,class or variety,roomy,1,,,,,,,,,,,,,,,,,,,,,,,,,,,,,,,,,,,,,,,,,,,,,,,,,,,,
,,,,,,,,,,,,,,,90331,001,2022-04-21_18h00.00.971,SPAMnetsValid,2021.1.4,Win32,60.0024001,,,,,,,,,,,,,,,,,,,,,,,,,3,3.2312,0,5,5,5,1,bauble,bubble,showy plaything,idle talk,confusion,2,,,,,,,,,,,,,,,,,,,,,,,,,,,,,,,,,,,,,,,,,,,,,,,,,,,,
,,,,,,,,,,,,,,,90331,001,2022-04-21_18h00.00.971,SPAMnetsValid,2021.1.4,Win32,60.0024001,,,,,,,,,,,,,,,,,,,,,,,,,2,24.0529,0,6,6,6,1,prolific,scarce,producing abundantly,reckless,speaking profanely,2,,,,,,,,,,,,,,,,,,,,,,,,,,,,,,,,,,,,,,,,,,,,,,,,,,,,
,,,,,,,,,,,,,,,90331,001,2022-04-21_18h00.00.971,SPAMnetsValid,2021.1.4,Win32,60.0024001,,,,,,,,,,,,,,,,,,,,,,,,,2,11.0031,0,7,7,7,1,opulent,party,wealthy,happy frame of mind,semiprecious stone,2,,,,,,,,,,,,,,,,,,,,,,,,,,,,,,,,,,,,,,,,,,,,,,,,,,,,
,,,,,,,,,,,,,,,90331,001,2022-04-21_18h00.00.971,SPAMnetsValid,2021.1.4,Win32,60.0024001,,,,,,,,,,,,,,,,,,,,,,,,,4,3.0982,0,8,8,8,1,coercion,conspiracy,strategy,restraint,attraction,3,,,,,,,,,,,,,,,,,,,,,,,,,,,,,,,,,,,,,,,,,,,,,,,,,,,,
,,,,,,,,,,,,,,,90331,001,2022-04-21_18h00.00.971,SPAMnetsValid,2021.1.4,Win32,60.0024001,,,,,,,,,,,,,,,,,,,,,,,,,4,2.8408,0,9,9,9,1,hiatus,animal,calamity,dread,gap,4,,,,,,,,,,,,,,,,,,,,,,,,,,,,,,,,,,,,,,,,,,,,,,,,,,,,
,,,,,,,,,,,,,,,90331,001,2022-04-21_18h00.00.971,SPAMnetsValid,2021.1.4,Win32,60.0024001,,,,,,,,,,,,,,,,,,,,,,,,,3,5.7608,0,10,10,10,1,germane,microbe,contagious,relevant,different,3,,,,,,,,,,,,,,,,,,,,,,,,,,,,,,,,,,,,,,,,,,,,,,,,,,,,
,,,,,,,,,,,,,,,90331,001,2022-04-21_18h00.00.971,SPAMnetsValid,2021.1.4,Win32,60.0024001,,,,,,,,,,,,,,,,,,,,,,,,,3,9.7194,0,11,11,11,1,perfunctory,fundamental,formal,superficial,careful,3,,,,,,,,,,,,,,,,,,,,,,,,,,,,,,,,,,,,,,,,,,,,,,,,,,,,
,,,,,,,,,,,,,,,90331,001,2022-04-21_18h00.00.971,SPAMnetsValid,2021.1.4,Win32,60.0024001,,,,,,,,,,,,,,,,,,,,,,,,,4,6.2788,0,12,12,12,1,diverge,reveal,chant,distract the attention of,differ or turn off from,4,,,,,,,,,,,,,,,,,,,,,,,,,,,,,,,,,,,,,,,,,,,,,,,,,,,,
,,,,,,,,,,,,,,,90331,001,2022-04-21_18h00.00.971,SPAMnetsValid,2021.1.4,Win32,60.0024001,,,,,,,,,,,,,,,,,,,,,,,,,4,3.3056,0,13,13,13,1,evoke,take away,anger,connect,bring out,4,,,,,,,,,,,,,,,,,,,,,,,,,,,,,,,,,,,,,,,,,,,,,,,,,,,,
,,,,,,,,,,,,,,,90331,001,2022-04-21_18h00.00.971,SPAMnetsValid,2021.1.4,Win32,60.0024001,,,,,,,,,,,,,,,,,,,,,,,,,1,4.3088,0,14,14,14,1,pertinent,relevant,lying next to,necessary,bold,1,,,,,,,,,,,,,,,,,,,,,,,,,,,,,,,,,,,,,,,,,,,,,,,,,,,,
,,,,,,,,,,,,,,,90331,001,2022-04-21_18h00.00.971,SPAMnetsValid,2021.1.4,Win32,60.0024001,,,,,,,,,,,,,,,,,,,,,,,,,2,6.118,0,15,15,15,1,holocaust,entirety,destruction,saintly,price,2,,,,,,,,,,,,,,,,,,,,,,,,,,,,,,,,,,,,,,,,,,,,,,,,,,,,
,,,,,,,,,,,,,,,90331,001,2022-04-21_18h00.00.971,SPAMnetsValid,2021.1.4,Win32,60.0024001,,,,,,,,,,,,,,,,,,,,,,,,,4,5.4734,0,16,16,16,1,piquant,mellow,fish,pungent,cloth,3,,,,,,,,,,,,,,,,,,,,,,,,,,,,,,,,,,,,,,,,,,,,,,,,,,,,
,,,,,,,,,,,,,,,90331,001,2022-04-21_18h00.00.971,SPAMnetsValid,2021.1.4,Win32,60.0024001,,,,,,,,,,,,,,,,,,,,,,,,,3,7.0055,0,17,17,17,1,firmament,foundation,heavens,strong,glue,2,,,,,,,,,,,,,,,,,,,,,,,,,,,,,,,,,,,,,,,,,,,,,,,,,,,,
,,,,,,,,,,,,,,,90331,001,2022-04-21_18h00.00.971,SPAMnetsValid,2021.1.4,Win32,60.0024001,,,,,,,,,,,,,,,,,,,,,,,,,,,,,,,,,,,,,,4,4.9964,0,0,0,0,1,marketable,partisan,jocular,marriageable,salable,essential,4,,,,,,,,,,,,,,,,,,,,,,,,,,,,,,,,,,,,,,
,,,,,,,,,,,,,,,90331,001,2022-04-21_18h00.00.971,SPAMnetsValid,2021.1.4,Win32,60.0024001,,,,,,,,,,,,,,,,,,,,,,,,,,,,,,,,,,,,,,5,3.6702,0,1,1,1,1,cottontail,squirrel,poplar,boa,marshy plant,rabbit,5,,,,,,,,,,,,,,,,,,,,,,,,,,,,,,,,,,,,,,
,,,,,,,,,,,,,,,90331,001,2022-04-21_18h00.00.971,SPAMnetsValid,2021.1.4,Win32,60.0024001,,,,,,,,,,,,,,,,,,,,,,,,,,,,,,,,,,,,,,3,3.7845,0,2,2,2,1,boggy,afraid,false,marshy,dense,black,3,,,,,,,,,,,,,,,,,,,,,,,,,,,,,,,,,,,,,,
,,,,,,,,,,,,,,,90331,001,2022-04-21_18h00.00.971,SPAMnetsValid,2021.1.4,Win32,60.0024001,,,,,,,,,,,,,,,,,,,,,,,,,,,,,,,,,,,,,,5,7.6866,0,3,3,3,1,gruesomeness,blackness,falseness,vindictiveness,drunkenness,ghastliness,5,,,,,,,,,,,,,,,,,,,,,,,,,,,,,,,,,,,,,,
,,,,,,,,,,,,,,,90331,001,2022-04-21_18h00.00.971,SPAMnetsValid,2021.1.4,Win32,60.0024001,,,,,,,,,,,,,,,,,,,,,,,,,,,,,,,,,,,,,,3,4.7747,0,4,4,4,1,loathing,diffidence,laziness,abhorrence,cleverness,comfort,3,,,,,,,,,,,,,,,,,,,,,,,,,,,,,,,,,,,,,,
,,,,,,,,,,,,,,,90331,001,2022-04-21_18h00.00.971,SPAMnetsValid,2021.1.4,Win32,60.0024001,,,,,,,,,,,,,,,,,,,,,,,,,,,,,,,,,,,,,,2,4.315,0,5,5,5,1,bantam,fowl,ridicule,cripple,vegetable,ensign,1,,,,,,,,,,,,,,,,,,,,,,,,,,,,,,,,,,,,,,
,,,,,,,,,,,,,,,90331,001,2022-04-21_18h00.00.971,SPAMnetsValid,2021.1.4,Win32,60.0024001,,,,,,,,,,,,,,,,,,,,,,,,,,,,,,,,,,,,,,5,13.1911,0,6,6,6,1,evoke,wake up,surrender,reconnoiter,transcend,call forth,5,,,,,,,,,,,,,,,,,,,,,,,,,,,,,,,,,,,,,,
,,,,,,,,,,,,,,,90331,001,2022-04-21_18h00.00.971,SPAMnetsValid,2021.1.4,Win32,60.0024001,,,,,,,,,,,,,,,,,,,,,,,,,,,,,,,,,,,,,,5,13.1154,0,7,7,7,1,unobtrusive,unintelligent,epileptic,illogical,lineal,modest,5,,,,,,,,,,,,,,,,,,,,,,,,,,,,,,,,,,,,,,
,,,,,,,,,,,,,,,90331,001,2022-04-21_18h00.00.971,SPAMnetsValid,2021.1.4,Win32,60.0024001,,,,,,,,,,,,,,,,,,,,,,,,,,,,,,,,,,,,,,4,80.8121,0,8,8,8,1,terrain,ice cream,final test,tractor,area of ground,weight,4,,,,,,,,,,,,,,,,,,,,,,,,,,,,,,,,,,,,,,
,,,,,,,,,,,,,,,90331,001,2022-04-21_18h00.00.971,SPAMnetsValid,2021.1.4,Win32,60.0024001,,,,,,,,,,,,,,,,,,,,,,,,,,,,,,,,,,,,,,1,11.9249,0,9,9,9,1,capriciousness,stubbornness,courage,whimsicality,amazement,greediness,3,,,,,,,,,,,,,,,,,,,,,,,,,,,,,,,,,,,,,,
,,,,,,,,,,,,,,,90331,001,2022-04-21_18h00.00.971,SPAMnetsValid,2021.1.4,Win32,60.0024001,,,,,,,,,,,,,,,,,,,,,,,,,,,,,,,,,,,,,,1,12.1455,0,10,10,10,1,maelstrom,slander,whirlpool,enmity,armor,majolica,2,,,,,,,,,,,,,,,,,,,,,,,,,,,,,,,,,,,,,,
,,,,,,,,,,,,,,,90331,001,2022-04-21_18h00.00.971,SPAMnetsValid,2021.1.4,Win32,60.0024001,,,,,,,,,,,,,,,,,,,,,,,,,,,,,,,,,,,,,,1,17.986,0,11,11,11,1,tentative,critical,conclusive,authentic,provisional,apprehensive,4,,,,,,,,,,,,,,,,,,,,,,,,,,,,,,,,,,,,,,
,,,,,,,,,,,,,,,90331,001,2022-04-21_18h00.00.971,SPAMnetsValid,2021.1.4,Win32,60.0024001,,,,,,,,,,,,,,,,,,,,,,,,,,,,,,,,,,,,,,1,13.2948,0,12,12,12,1,placate,rehabilitate,plagiarize,depredate,apprise,conciliate,5,,,,,,,,,,,,,,,,,,,,,,,,,,,,,,,,,,,,,,
,,,,,,,,,,,,,,,90331,001,2022-04-21_18h00.00.971,SPAMnetsValid,2021.1.4,Win32,60.0024001,,,,,,,,,,,,,,,,,,,,,,,,,,,,,,,,,,,,,,1,9.6876,0,13,13,13,1,surcease,enlightenment,cessation,inattention,censor,substitution,2,,,,,,,,,,,,,,,,,,,,,,,,,,,,,,,,,,,,,,
,,,,,,,,,,,,,,,90331,001,2022-04-21_18h00.00.971,SPAMnetsValid,2021.1.4,Win32,60.0024001,,,,,,,,,,,,,,,,,,,,,,,,,,,,,,,,,,,,,,2,21.7557,0,14,14,14,1,apathetic,wandering,impassive,hateful,prophetic,overflowing,2,,,,,,,,,,,,,,,,,,,,,,,,,,,,,,,,,,,,,,
,,,,,,,,,,,,,,,90331,001,2022-04-21_18h00.00.971,SPAMnetsValid,2021.1.4,Win32,60.0024001,,,,,,,,,,,,,,,,,,,,,,,,,,,,,,,,,,,,,,1,24.6727,0,15,15,15,1,paternoster,paternalism,patricide,malediction,benediction,prayer,5,,,,,,,,,,,,,,,,,,,,,,,,,,,,,,,,,,,,,,
,,,,,,,,,,,,,,,90331,001,2022-04-21_18h00.00.971,SPAMnetsValid,2021.1.4,Win32,60.0024001,,,,,,,,,,,,,,,,,,,,,,,,,,,,,,,,,,,,,,4,12.1296,0,16,16,16,1,opalescence,opulence,senescence,bankruptcy,iridescence,assiduity,4,,,,,,,,,,,,,,,,,,,,,,,,,,,,,,,,,,,,,,
,,,,,,,,,,,,,,,90331,001,2022-04-21_18h00.00.971,SPAMnetsValid,2021.1.4,Win32,60.0024001,,,,,,,,,,,,,,,,,,,,,,,,,,,,,,,,,,,,,,,,0,17,17,17,1,lush,stupid,luxurious,hazy,putrid,languishing,2,,,,,,,,,,,,,,,,,,,,,,,,,,,,,,,,,,,,,,
,,,,,,,,,,,,,,,90331,001,2022-04-21_18h00.00.971,SPAMnetsValid,2021.1.4,Win32,60.0024001,,,,,,,,,,,,,,,,,,,,,,,,,,,,,,,,,,,,,,,,,,,,,,,,,,,,fort,pillow,0,0,0,0,1,,,,,,,,,,,,,,,,,,,,,,,,,,,,,,,
,,,,,,,,,,,,,,,90331,001,2022-04-21_18h00.00.971,SPAMnetsValid,2021.1.4,Win32,60.0024001,,,,,,,,,,,,,,,,,,,,,,,,,,,,,,,,,,,,,,,,,,,,,,,,,,,,masturbating ,pillow,1,0,1,0,1,,,,,,,,,,,,,,,,,,,,,,,,,,,,,,,
,,,,,,,,,,,,,,,90331,001,2022-04-21_18h00.00.971,SPAMnetsValid,2021.1.4,Win32,60.0024001,,,,,,,,,,,,,,,,,,,,,,,,,,,,,,,,,,,,,,,,,,,,,,,,,,,,seat,pillow,2,0,2,0,1,,,,,,,,,,,,,,,,,,,,,,,,,,,,,,,
,,,,,,,,,,,,,,,90331,001,2022-04-21_18h00.00.971,SPAMnetsValid,2021.1.4,Win32,60.0024001,,,,,,,,,,,,,,,,,,,,,,,,,,,,,,,,,,,,,,,,,,,,,,,,,,,,decoration,pillow,3,0,3,0,1,,,,,,,,,,,,,,,,,,,,,,,,,,,,,,,
,,,,,,,,,,,,,,,90331,001,2022-04-21_18h00.00.971,SPAMnetsValid,2021.1.4,Win32,60.0024001,,,,,,,,,,,,,,,,,,,,,,,,,,,,,,,,,,,,,,,,,,,,,,,,,,,,use them as punching bags,pillow,4,0,4,0,1,,,,,,,,,,,,,,,,,,,,,,,,,,,,,,,
,,,,,,,,,,,,,,,90331,001,2022-04-21_18h00.00.971,SPAMnetsValid,2021.1.4,Win32,60.0024001,,,,,,,,,,,,,,,,,,,,,,,,,,,,,,,,,,,,,,,,,,,,,,,,,,,,wear it as a hat,pillow,5,0,5,0,1,,,,,,,,,,,,,,,,,,,,,,,,,,,,,,,
,,,,,,,,,,,,,,,90331,001,2022-04-21_18h00.00.971,SPAMnetsValid,2021.1.4,Win32,60.0024001,,,,,,,,,,,,,,,,,,,,,,,,,,,,,,,,,,,,,,,,,,,,,,,,,,,,silence someting,pillow,6,0,6,0,1,,,,,,,,,,,,,,,,,,,,,,,,,,,,,,,
,,,,,,,,,,,,,,,90331,001,2022-04-21_18h00.00.971,SPAMnetsValid,2021.1.4,Win32,60.0024001,,,,,,,,,,,,,,,,,,,,,,,,,,,,,,,,,,,,,,,,,,,,,,,,,,,,,,,,,,,0,0,0,2,1,pillow,,,,,,,,,,,,,,,,,,,,,,,,,
,,,,,,,,,,,,,,,90331,001,2022-04-21_18h00.00.971,SPAMnetsValid,2021.1.4,Win32,60.0024001,,,,,,,,,,,,,,,,,,,,,,,,,,,,,,,,,,,,,,,,,,,,,,,,,,,,start a fire,candle,0,0,0,0,1,,,,,,,,,,,,,,,,,,,,,,,,,,,,,,,
,,,,,,,,,,,,,,,90331,001,2022-04-21_18h00.00.971,SPAMnetsValid,2021.1.4,Win32,60.0024001,,,,,,,,,,,,,,,,,,,,,,,,,,,,,,,,,,,,,,,,,,,,,,,,,,,,torture,candle,1,0,1,0,1,,,,,,,,,,,,,,,,,,,,,,,,,,,,,,,
,,,,,,,,,,,,,,,90331,001,2022-04-21_18h00.00.971,SPAMnetsValid,2021.1.4,Win32,60.0024001,,,,,,,,,,,,,,,,,,,,,,,,,,,,,,,,,,,,,,,,,,,,,,,,,,,,kink things,candle,2,0,2,0,1,,,,,,,,,,,,,,,,,,,,,,,,,,,,,,,
,,,,,,,,,,,,,,,90331,001,2022-04-21_18h00.00.971,SPAMnetsValid,2021.1.4,Win32,60.0024001,,,,,,,,,,,,,,,,,,,,,,,,,,,,,,,,,,,,,,,,,,,,,,,,,,,,play with the wax as it hardens like clay,candle,3,0,3,0,1,,,,,,,,,,,,,,,,,,,,,,,,,,,,,,,
,,,,,,,,,,,,,,,90331,001,2022-04-21_18h00.00.971,SPAMnetsValid,2021.1.4,Win32,60.0024001,,,,,,,,,,,,,,,,,,,,,,,,,,,,,,,,,,,,,,,,,,,,,,,,,,,,seal something with the wax,candle,4,0,4,0,1,,,,,,,,,,,,,,,,,,,,,,,,,,,,,,,
,,,,,,,,,,,,,,,90331,001,2022-04-21_18h00.00.971,SPAMnetsValid,2021.1.4,Win32,60.0024001,,,,,,,,,,,,,,,,,,,,,,,,,,,,,,,,,,,,,,,,,,,,,,,,,,,,melt the plastic on the tags from clothes ,candle,5,0,5,0,1,,,,,,,,,,,,,,,,,,,,,,,,,,,,,,,
,,,,,,,,,,,,,,,90331,001,2022-04-21_18h00.00.971,SPAMnetsValid,2021.1.4,Win32,60.0024001,,,,,,,,,,,,,,,,,,,,,,,,,,,,,,,,,,,,,,,,,,,,,,,,,,,,hair removal,candle,6,0,6,0,1,,,,,,,,,,,,,,,,,,,,,,,,,,,,,,,
,,,,,,,,,,,,,,,90331,001,2022-04-21_18h00.00.971,SPAMnetsValid,2021.1.4,Win32,60.0024001,,,,,,,,,,,,,,,,,,,,,,,,,,,,,,,,,,,,,,,,,,,,,,,,,,,,,,,,,,,0,1,1,1,1,candle,,,,,,,,,,,,,,,,,,,,,,,,,
,,,,,,,,,,,,,,,90331,001,2022-04-21_18h00.00.971,SPAMnetsValid,2021.1.4,Win32,60.0024001,,,,,,,,,,,,,,,,,,,,,,,,,,,,,,,,,,,,,,,,,,,,,,,,,,,,toilet,bucket,0,0,0,0,1,,,,,,,,,,,,,,,,,,,,,,,,,,,,,,,
,,,,,,,,,,,,,,,90331,001,2022-04-21_18h00.00.971,SPAMnetsValid,2021.1.4,Win32,60.0024001,,,,,,,,,,,,,,,,,,,,,,,,,,,,,,,,,,,,,,,,,,,,,,,,,,,,make drinks in it,bucket,1,0,1,0,1,,,,,,,,,,,,,,,,,,,,,,,,,,,,,,,
,,,,,,,,,,,,,,,90331,001,2022-04-21_18h00.00.971,SPAMnetsValid,2021.1.4,Win32,60.0024001,,,,,,,,,,,,,,,,,,,,,,,,,,,,,,,,,,,,,,,,,,,,,,,,,,,,carry groceries,bucket,2,0,2,0,1,,,,,,,,,,,,,,,,,,,,,,,,,,,,,,,
,,,,,,,,,,,,,,,90331,001,2022-04-21_18h00.00.971,SPAMnetsValid,2021.1.4,Win32,60.0024001,,,,,,,,,,,,,,,,,,,,,,,,,,,,,,,,,,,,,,,,,,,,,,,,,,,,sit on it upside down,bucket,3,0,3,0,1,,,,,,,,,,,,,,,,,,,,,,,,,,,,,,,
,,,,,,,,,,,,,,,90331,001,2022-04-21_18h00.00.971,SPAMnetsValid,2021.1.4,Win32,60.0024001,,,,,,,,,,,,,,,,,,,,,,,,,,,,,,,,,,,,,,,,,,,,,,,,,,,,step stool,bucket,4,0,4,0,1,,,,,,,,,,,,,,,,,,,,,,,,,,,,,,,
,,,,,,,,,,,,,,,90331,001,2022-04-21_18h00.00.971,SPAMnetsValid,2021.1.4,Win32,60.0024001,,,,,,,,,,,,,,,,,,,,,,,,,,,,,,,,,,,,,,,,,,,,,,,,,,,,hide something under it,bucket,5,0,5,0,1,,,,,,,,,,,,,,,,,,,,,,,,,,,,,,,
,,,,,,,,,,,,,,,90331,001,2022-04-21_18h00.00.971,SPAMnetsValid,2021.1.4,Win32,60.0024001,,,,,,,,,,,,,,,,,,,,,,,,,,,,,,,,,,,,,,,,,,,,,,,,,,,,use it to balance a table with a  broken leg,bucket,6,0,6,0,1,,,,,,,,,,,,,,,,,,,,,,,,,,,,,,,
,,,,,,,,,,,,,,,90331,001,2022-04-21_18h00.00.971,SPAMnetsValid,2021.1.4,Win32,60.0024001,,,,,,,,,,,,,,,,,,,,,,,,,,,,,,,,,,,,,,,,,,,,,,,,,,,,,,,,,,,0,2,2,0,1,bucket,,,,,,,,,,,,,,,,,,,,,,,,,
,,,,,,,,,,,,,,,90331,001,2022-04-21_18h00.00.971,SPAMnetsValid,2021.1.4,Win32,60.0024001,,,,,,,,,,,,,,,,,,,,,,,,,,,,,,,,,,,,,,,,,,,,,,,,,,,,,,,,,,,,,,,,,tiger,Animals,0,0,0,0,1,,,,,,,,,,,,,,,,,,
,,,,,,,,,,,,,,,90331,001,2022-04-21_18h00.00.971,SPAMnetsValid,2021.1.4,Win32,60.0024001,,,,,,,,,,,,,,,,,,,,,,,,,,,,,,,,,,,,,,,,,,,,,,,,,,,,,,,,,,,,,,,,,fox,Animals,1,0,1,0,1,,,,,,,,,,,,,,,,,,
,,,,,,,,,,,,,,,90331,001,2022-04-21_18h00.00.971,SPAMnetsValid,2021.1.4,Win32,60.0024001,,,,,,,,,,,,,,,,,,,,,,,,,,,,,,,,,,,,,,,,,,,,,,,,,,,,,,,,,,,,,,,,,goose,Animals,2,0,2,0,1,,,,,,,,,,,,,,,,,,
,,,,,,,,,,,,,,,90331,001,2022-04-21_18h00.00.971,SPAMnetsValid,2021.1.4,Win32,60.0024001,,,,,,,,,,,,,,,,,,,,,,,,,,,,,,,,,,,,,,,,,,,,,,,,,,,,,,,,,,,,,,,,,cat,Animals,3,0,3,0,1,,,,,,,,,,,,,,,,,,
,,,,,,,,,,,,,,,90331,001,2022-04-21_18h00.00.971,SPAMnetsValid,2021.1.4,Win32,60.0024001,,,,,,,,,,,,,,,,,,,,,,,,,,,,,,,,,,,,,,,,,,,,,,,,,,,,,,,,,,,,,,,,,dog,Animals,4,0,4,0,1,,,,,,,,,,,,,,,,,,
,,,,,,,,,,,,,,,90331,001,2022-04-21_18h00.00.971,SPAMnetsValid,2021.1.4,Win32,60.0024001,,,,,,,,,,,,,,,,,,,,,,,,,,,,,,,,,,,,,,,,,,,,,,,,,,,,,,,,,,,,,,,,,lion,Animals,5,0,5,0,1,,,,,,,,,,,,,,,,,,
,,,,,,,,,,,,,,,90331,001,2022-04-21_18h00.00.971,SPAMnetsValid,2021.1.4,Win32,60.0024001,,,,,,,,,,,,,,,,,,,,,,,,,,,,,,,,,,,,,,,,,,,,,,,,,,,,,,,,,,,,,,,,,zebra,Animals,6,0,6,0,1,,,,,,,,,,,,,,,,,,
,,,,,,,,,,,,,,,90331,001,2022-04-21_18h00.00.971,SPAMnetsValid,2021.1.4,Win32,60.0024001,,,,,,,,,,,,,,,,,,,,,,,,,,,,,,,,,,,,,,,,,,,,,,,,,,,,,,,,,,,,,,,,,giraffe,Animals,7,0,7,0,1,,,,,,,,,,,,,,,,,,
,,,,,,,,,,,,,,,90331,001,2022-04-21_18h00.00.971,SPAMnetsValid,2021.1.4,Win32,60.0024001,,,,,,,,,,,,,,,,,,,,,,,,,,,,,,,,,,,,,,,,,,,,,,,,,,,,,,,,,,,,,,,,,deer,Animals,8,0,8,0,1,,,,,,,,,,,,,,,,,,
,,,,,,,,,,,,,,,90331,001,2022-04-21_18h00.00.971,SPAMnetsValid,2021.1.4,Win32,60.0024001,,,,,,,,,,,,,,,,,,,,,,,,,,,,,,,,,,,,,,,,,,,,,,,,,,,,,,,,,,,,,,,,,antalope,Animals,9,0,9,0,1,,,,,,,,,,,,,,,,,,
,,,,,,,,,,,,,,,90331,001,2022-04-21_18h00.00.971,SPAMnetsValid,2021.1.4,Win32,60.0024001,,,,,,,,,,,,,,,,,,,,,,,,,,,,,,,,,,,,,,,,,,,,,,,,,,,,,,,,,,,,,,,,,snake,Animals,10,0,10,0,1,,,,,,,,,,,,,,,,,,
,,,,,,,,,,,,,,,90331,001,2022-04-21_18h00.00.971,SPAMnetsValid,2021.1.4,Win32,60.0024001,,,,,,,,,,,,,,,,,,,,,,,,,,,,,,,,,,,,,,,,,,,,,,,,,,,,,,,,,,,,,,,,,bird,Animals,11,0,11,0,1,,,,,,,,,,,,,,,,,,
,,,,,,,,,,,,,,,90331,001,2022-04-21_18h00.00.971,SPAMnetsValid,2021.1.4,Win32,60.0024001,,,,,,,,,,,,,,,,,,,,,,,,,,,,,,,,,,,,,,,,,,,,,,,,,,,,,,,,,,,,,,,,,mountain lion,Animals,12,0,12,0,1,,,,,,,,,,,,,,,,,,
,,,,,,,,,,,,,,,90331,001,2022-04-21_18h00.00.971,SPAMnetsValid,2021.1.4,Win32,60.0024001,,,,,,,,,,,,,,,,,,,,,,,,,,,,,,,,,,,,,,,,,,,,,,,,,,,,,,,,,,,,,,,,,racoon,Animals,13,0,13,0,1,,,,,,,,,,,,,,,,,,
,,,,,,,,,,,,,,,90331,001,2022-04-21_18h00.00.971,SPAMnetsValid,2021.1.4,Win32,60.0024001,,,,,,,,,,,,,,,,,,,,,,,,,,,,,,,,,,,,,,,,,,,,,,,,,,,,,,,,,,,,,,,,,lizzard,Animals,14,0,14,0,1,,,,,,,,,,,,,,,,,,
,,,,,,,,,,,,,,,90331,001,2022-04-21_18h00.00.971,SPAMnetsValid,2021.1.4,Win32,60.0024001,,,,,,,,,,,,,,,,,,,,,,,,,,,,,,,,,,,,,,,,,,,,,,,,,,,,,,,,,,,,,,,,,bat,Animals,15,0,15,0,1,,,,,,,,,,,,,,,,,,
,,,,,,,,,,,,,,,90331,001,2022-04-21_18h00.00.971,SPAMnetsValid,2021.1.4,Win32,60.0024001,,,,,,,,,,,,,,,,,,,,,,,,,,,,,,,,,,,,,,,,,,,,,,,,,,,,,,,,,,,,,,,,,mouse,Animals,16,0,16,0,1,,,,,,,,,,,,,,,,,,
,,,,,,,,,,,,,,,90331,001,2022-04-21_18h00.00.971,SPAMnetsValid,2021.1.4,Win32,60.0024001,,,,,,,,,,,,,,,,,,,,,,,,,,,,,,,,,,,,,,,,,,,,,,,,,,,,,,,,,,,,,,,,,,,,,,,,0,0,0,0,1,Animals,,,,,,,,,,,,
,,,,,,,,,,,,,,,90331,001,2022-04-21_18h00.00.971,SPAMnetsValid,2021.1.4,Win32,60.0024001,,,,,,,,,,,,,,,,,,,,,,,,,,,,,,,,,,,,,,,,,,,,,,,,,,,,,,,,,,,,,,,,,,,,,,,,,,,,,,5,7.3805,0,0,0,0,1,"I enjoy concentrating on a fantasy or daydream and exploring all its possibilities, letting it grow and develop.",0,1,,
,,,,,,,,,,,,,,,90331,001,2022-04-21_18h00.00.971,SPAMnetsValid,2021.1.4,Win32,60.0024001,,,,,,,,,,,,,,,,,,,,,,,,,,,,,,,,,,,,,,,,,,,,,,,,,,,,,,,,,,,,,,,,,,,,,,,,,,,,,,5,2.8034,0,1,1,1,1,I think it's interesting to learn and develop new hobbies.,0,2,,
,,,,,,,,,,,,,,,90331,001,2022-04-21_18h00.00.971,SPAMnetsValid,2021.1.4,Win32,60.0024001,,,,,,,,,,,,,,,,,,,,,,,,,,,,,,,,,,,,,,,,,,,,,,,,,,,,,,,,,,,,,,,,,,,,,,,,,,,,,,5,39.0568,0,2,2,2,1,I am intrigued by the patterns I find in art and nature.,0,3,,
,,,,,,,,,,,,,,,90331,001,2022-04-21_18h00.00.971,SPAMnetsValid,2021.1.4,Win32,60.0024001,,,,,,,,,,,,,,,,,,,,,,,,,,,,,,,,,,,,,,,,,,,,,,,,,,,,,,,,,,,,,,,,,,,,,,,,,,,,,,2,10.2546,0,3,3,3,1,I believe letting students hear controversial speakers can only confuse and mislead them.,1,4,,
,,,,,,,,,,,,,,,90331,001,2022-04-21_18h00.00.971,SPAMnetsValid,2021.1.4,Win32,60.0024001,,,,,,,,,,,,,,,,,,,,,,,,,,,,,,,,,,,,,,,,,,,,,,,,,,,,,,,,,,,,,,,,,,,,,,,,,,,,,,1,8.298,0,4,4,4,1,Poetry has little or no effect on me.,1,5,,
,,,,,,,,,,,,,,,90331,001,2022-04-21_18h00.00.971,SPAMnetsValid,2021.1.4,Win32,60.0024001,,,,,,,,,,,,,,,,,,,,,,,,,,,,,,,,,,,,,,,,,,,,,,,,,,,,,,,,,,,,,,,,,,,,,,,,,,,,,,4,54.7484,0,5,5,5,1,I would have difficulty just letting my mind wander without control or guidance.,1,6,,
,,,,,,,,,,,,,,,90331,001,2022-04-21_18h00.00.971,SPAMnetsValid,2021.1.4,Win32,60.0024001,,,,,,,,,,,,,,,,,,,,,,,,,,,,,,,,,,,,,,,,,,,,,,,,,,,,,,,,,,,,,,,,,,,,,,,,,,,,,,1,6.7774,0,6,6,6,1,I seldom notice the moods or feelings that different environments produce.,1,7,,
,,,,,,,,,,,,,,,90331,001,2022-04-21_18h00.00.971,SPAMnetsValid,2021.1.4,Win32,60.0024001,,,,,,,,,,,,,,,,,,,,,,,,,,,,,,,,,,,,,,,,,,,,,,,,,,,,,,,,,,,,,,,,,,,,,,,,,,,,,,5,2.2629,0,7,7,7,1,I experience a wide range of emotions or feelings.,0,8,,
,,,,,,,,,,,,,,,90331,001,2022-04-21_18h00.00.971,SPAMnetsValid,2021.1.4,Win32,60.0024001,,,,,,,,,,,,,,,,,,,,,,,,,,,,,,,,,,,,,,,,,,,,,,,,,,,,,,,,,,,,,,,,,,,,,,,,,,,,,,5,2.7206,0,8,8,8,1,"Sometimes when I am reading poetry or looking at a work of art, I feel a chill or wave of excitement.",0,9,,
,,,,,,,,,,,,,,,90331,001,2022-04-21_18h00.00.971,SPAMnetsValid,2021.1.4,Win32,60.0024001,,,,,,,,,,,,,,,,,,,,,,,,,,,,,,,,,,,,,,,,,,,,,,,,,,,,,,,,,,,,,,,,,,,,,,,,,,,,,,1,6.3517,0,9,9,9,1,I have little interest in speculating on the nature of the universe or the human condition.,1,10,,
,,,,,,,,,,,,,,,90331,001,2022-04-21_18h00.00.971,SPAMnetsValid,2021.1.4,Win32,60.0024001,,,,,,,,,,,,,,,,,,,,,,,,,,,,,,,,,,,,,,,,,,,,,,,,,,,,,,,,,,,,,,,,,,,,,,,,,,,,,,4,3.009,0,10,10,10,1,I have a lot of intellectual curiosity.,0,11,,
,,,,,,,,,,,,,,,90331,001,2022-04-21_18h00.00.971,SPAMnetsValid,2021.1.4,Win32,60.0024001,,,,,,,,,,,,,,,,,,,,,,,,,,,,,,,,,,,,,,,,,,,,,,,,,,,,,,,,,,,,,,,,,,,,,,,,,,,,,,5,3.7848,0,11,11,11,1,I often enjoy playing with theories or abstract ideas.,0,12,,
,,,,,,,,,,,,,,,90331,001,2022-04-21_18h00.00.971,SPAMnetsValid,2021.1.4,Win32,60.0024001,,,,,,,,,,,,,,,,,,,,,,,,,,,,,,,,,,,,,,,,,,,,,,,,,,,,,,,,,,,,,,,,,,,,,,,,,,,,,,,,,,,,,,,,return,11.766
