key_resp_3.keys,key_resp_3.rt,slider.response,slider.rt,rjt_rating,rjt_RT,trials_22.thisRepN,trials_22.thisTrialN,trials_22.thisN,trials_22.thisIndex,trials_22.ran,rjt_order,word1,word2,attention,participant,session,date,expName,psychopyVersion,OS,frameRate,trials_99.thisRepN,trials_99.thisTrialN,trials_99.thisN,trials_99.thisIndex,trials_99.ran,trials_5.thisRepN,trials_5.thisTrialN,trials_5.thisN,trials_5.thisIndex,trials_5.ran,repOne,repTwo,slider_2.response,slider_2.rt,trials_24.thisRepN,trials_24.thisTrialN,trials_24.thisN,trials_24.thisIndex,trials_24.ran,trials_4.thisRepN,trials_4.thisTrialN,trials_4.thisN,trials_4.thisIndex,trials_4.ran,slider_extend_2.response,slider_extend_2.rt,trials_6.thisRepN,trials_6.thisTrialN,trials_6.thisN,trials_6.thisIndex,trials_6.ran,vCue2,R1,R2,R3,R4,correct,sliderVocab.response,sliderVocab.rt,trials_7.thisRepN,trials_7.thisTrialN,trials_7.thisN,trials_7.thisIndex,trials_7.ran,VocabCue,VR1,VR2,VR3,VR4,VR5,VocabCorrect,AUT_resp,AUT_label,trials.thisRepN,trials.thisTrialN,trials.thisN,trials.thisIndex,trials.ran,trials_2.thisRepN,trials_2.thisTrialN,trials_2.thisN,trials_2.thisIndex,trials_2.ran,aut_prompt,VF_response,VF_tag,trials_16.thisRepN,trials_16.thisTrialN,trials_16.thisN,trials_16.thisIndex,trials_16.ran,trials_17.thisRepN,trials_17.thisTrialN,trials_17.thisN,trials_17.thisIndex,trials_17.ran,VFcond,open_slider.response,open_slider.rt,trials_3.thisRepN,trials_3.thisTrialN,trials_3.thisN,trials_3.thisIndex,trials_3.ran,OpenQ,Rev,OPEN_ORDER,key_resp_2.keys,key_resp_2.rt
return,6.0596,4,2.2513,4,2.2513,0,0,0,48,1,66,melon,yogurt,,90338,001,2022-04-27_14h34.03.721,SPAMnetsValid,2021.1.4,Win32,60.96817461,,,,,,,,,,,,,,,,,,,,,,,,,,,,,,,,,,,,,,,,,,,,,,,,,,,,,,,,,,,,,,,,,,,,,,,,,,,,,,,,,,,,,,,,,
,,8,2.9836,8,2.9836,0,1,1,51,1,47,onion,tomato,,90338,001,2022-04-27_14h34.03.721,SPAMnetsValid,2021.1.4,Win32,60.96817461,,,,,,,,,,,,,,,,,,,,,,,,,,,,,,,,,,,,,,,,,,,,,,,,,,,,,,,,,,,,,,,,,,,,,,,,,,,,,,,,,,,,,,,,,
,,2,1.8957,2,1.8957,0,2,2,31,1,33,oven,yogurt,,90338,001,2022-04-27_14h34.03.721,SPAMnetsValid,2021.1.4,Win32,60.96817461,,,,,,,,,,,,,,,,,,,,,,,,,,,,,,,,,,,,,,,,,,,,,,,,,,,,,,,,,,,,,,,,,,,,,,,,,,,,,,,,,,,,,,,,,
,,2,2.2915,2,2.2915,0,3,3,41,1,19,microwave,pretzel,,90338,001,2022-04-27_14h34.03.721,SPAMnetsValid,2021.1.4,Win32,60.96817461,,,,,,,,,,,,,,,,,,,,,,,,,,,,,,,,,,,,,,,,,,,,,,,,,,,,,,,,,,,,,,,,,,,,,,,,,,,,,,,,,,,,,,,,,
,,8,2.4998,8,2.4998,0,4,4,58,1,94,kitchen,microwave,,90338,001,2022-04-27_14h34.03.721,SPAMnetsValid,2021.1.4,Win32,60.96817461,,,,,,,,,,,,,,,,,,,,,,,,,,,,,,,,,,,,,,,,,,,,,,,,,,,,,,,,,,,,,,,,,,,,,,,,,,,,,,,,,,,,,,,,,
,,1,1.9239,1,1.9239,0,5,5,32,1,40,broom,cake,,90338,001,2022-04-27_14h34.03.721,SPAMnetsValid,2021.1.4,Win32,60.96817461,,,,,,,,,,,,,,,,,,,,,,,,,,,,,,,,,,,,,,,,,,,,,,,,,,,,,,,,,,,,,,,,,,,,,,,,,,,,,,,,,,,,,,,,,
,,6,1.589,6,1.589,0,6,6,29,1,42,garden,kitchen,,90338,001,2022-04-27_14h34.03.721,SPAMnetsValid,2021.1.4,Win32,60.96817461,,,,,,,,,,,,,,,,,,,,,,,,,,,,,,,,,,,,,,,,,,,,,,,,,,,,,,,,,,,,,,,,,,,,,,,,,,,,,,,,,,,,,,,,,
,,7,1.4249,7,1.4249,0,7,7,66,1,20,rose,tree,,90338,001,2022-04-27_14h34.03.721,SPAMnetsValid,2021.1.4,Win32,60.96817461,,,,,,,,,,,,,,,,,,,,,,,,,,,,,,,,,,,,,,,,,,,,,,,,,,,,,,,,,,,,,,,,,,,,,,,,,,,,,,,,,,,,,,,,,
,,8,1.7653,8,1.7653,0,8,8,36,1,12,cookie,yogurt,,90338,001,2022-04-27_14h34.03.721,SPAMnetsValid,2021.1.4,Win32,60.96817461,,,,,,,,,,,,,,,,,,,,,,,,,,,,,,,,,,,,,,,,,,,,,,,,,,,,,,,,,,,,,,,,,,,,,,,,,,,,,,,,,,,,,,,,,
,,2,1.7412,2,1.7412,0,9,9,39,1,15,onion,oven,,90338,001,2022-04-27_14h34.03.721,SPAMnetsValid,2021.1.4,Win32,60.96817461,,,,,,,,,,,,,,,,,,,,,,,,,,,,,,,,,,,,,,,,,,,,,,,,,,,,,,,,,,,,,,,,,,,,,,,,,,,,,,,,,,,,,,,,,
,,2,3.2108,2,3.2108,0,10,10,8,1,43,chocolate,tomato,,90338,001,2022-04-27_14h34.03.721,SPAMnetsValid,2021.1.4,Win32,60.96817461,,,,,,,,,,,,,,,,,,,,,,,,,,,,,,,,,,,,,,,,,,,,,,,,,,,,,,,,,,,,,,,,,,,,,,,,,,,,,,,,,,,,,,,,,
,,8,2.0048,8,2.0048,0,11,11,82,1,93,kitchen,oven,,90338,001,2022-04-27_14h34.03.721,SPAMnetsValid,2021.1.4,Win32,60.96817461,,,,,,,,,,,,,,,,,,,,,,,,,,,,,,,,,,,,,,,,,,,,,,,,,,,,,,,,,,,,,,,,,,,,,,,,,,,,,,,,,,,,,,,,,
,,1,2.4476,1,2.4476,0,12,12,89,1,80,chocolate,tree,,90338,001,2022-04-27_14h34.03.721,SPAMnetsValid,2021.1.4,Win32,60.96817461,,,,,,,,,,,,,,,,,,,,,,,,,,,,,,,,,,,,,,,,,,,,,,,,,,,,,,,,,,,,,,,,,,,,,,,,,,,,,,,,,,,,,,,,,
,,7,3.4099,7,3.4099,0,13,13,78,1,30,cookie,pretzel,,90338,001,2022-04-27_14h34.03.721,SPAMnetsValid,2021.1.4,Win32,60.96817461,,,,,,,,,,,,,,,,,,,,,,,,,,,,,,,,,,,,,,,,,,,,,,,,,,,,,,,,,,,,,,,,,,,,,,,,,,,,,,,,,,,,,,,,,
,,5,3.8281,5,3.8281,0,14,14,62,1,18,onion,refrigerator,,90338,001,2022-04-27_14h34.03.721,SPAMnetsValid,2021.1.4,Win32,60.96817461,,,,,,,,,,,,,,,,,,,,,,,,,,,,,,,,,,,,,,,,,,,,,,,,,,,,,,,,,,,,,,,,,,,,,,,,,,,,,,,,,,,,,,,,,
,,5,2.7891,5,2.7891,0,15,15,75,1,69,carrot,refrigerator,,90338,001,2022-04-27_14h34.03.721,SPAMnetsValid,2021.1.4,Win32,60.96817461,,,,,,,,,,,,,,,,,,,,,,,,,,,,,,,,,,,,,,,,,,,,,,,,,,,,,,,,,,,,,,,,,,,,,,,,,,,,,,,,,,,,,,,,,
,,6,1.8157,6,1.8157,0,16,16,68,1,24,cookie,tomato,,90338,001,2022-04-27_14h34.03.721,SPAMnetsValid,2021.1.4,Win32,60.96817461,,,,,,,,,,,,,,,,,,,,,,,,,,,,,,,,,,,,,,,,,,,,,,,,,,,,,,,,,,,,,,,,,,,,,,,,,,,,,,,,,,,,,,,,,
,,7,2.8064,7,2.8064,0,17,17,42,1,77,refrigerator,yogurt,,90338,001,2022-04-27_14h34.03.721,SPAMnetsValid,2021.1.4,Win32,60.96817461,,,,,,,,,,,,,,,,,,,,,,,,,,,,,,,,,,,,,,,,,,,,,,,,,,,,,,,,,,,,,,,,,,,,,,,,,,,,,,,,,,,,,,,,,
,,1,1.9962,1,1.9962,0,18,18,90,1,95,broom,refrigerator,,90338,001,2022-04-27_14h34.03.721,SPAMnetsValid,2021.1.4,Win32,60.96817461,,,,,,,,,,,,,,,,,,,,,,,,,,,,,,,,,,,,,,,,,,,,,,,,,,,,,,,,,,,,,,,,,,,,,,,,,,,,,,,,,,,,,,,,,
,,1,2.1382,1,2.1382,0,19,19,61,1,71,broom,rose,,90338,001,2022-04-27_14h34.03.721,SPAMnetsValid,2021.1.4,Win32,60.96817461,,,,,,,,,,,,,,,,,,,,,,,,,,,,,,,,,,,,,,,,,,,,,,,,,,,,,,,,,,,,,,,,,,,,,,,,,,,,,,,,,,,,,,,,,
,,8,1.7113,8,1.7113,0,20,20,77,1,7,melon,tree,,90338,001,2022-04-27_14h34.03.721,SPAMnetsValid,2021.1.4,Win32,60.96817461,,,,,,,,,,,,,,,,,,,,,,,,,,,,,,,,,,,,,,,,,,,,,,,,,,,,,,,,,,,,,,,,,,,,,,,,,,,,,,,,,,,,,,,,,
,,4,1.5522,4,1.5522,0,21,21,71,1,38,pretzel,refrigerator,,90338,001,2022-04-27_14h34.03.721,SPAMnetsValid,2021.1.4,Win32,60.96817461,,,,,,,,,,,,,,,,,,,,,,,,,,,,,,,,,,,,,,,,,,,,,,,,,,,,,,,,,,,,,,,,,,,,,,,,,,,,,,,,,,,,,,,,,
,,2,1.5877,2,1.5877,0,22,22,18,1,85,cake,tree,,90338,001,2022-04-27_14h34.03.721,SPAMnetsValid,2021.1.4,Win32,60.96817461,,,,,,,,,,,,,,,,,,,,,,,,,,,,,,,,,,,,,,,,,,,,,,,,,,,,,,,,,,,,,,,,,,,,,,,,,,,,,,,,,,,,,,,,,
,,1,1.9522,1,1.9522,0,23,23,22,1,16,chocolate,flower,,90338,001,2022-04-27_14h34.03.721,SPAMnetsValid,2021.1.4,Win32,60.96817461,,,,,,,,,,,,,,,,,,,,,,,,,,,,,,,,,,,,,,,,,,,,,,,,,,,,,,,,,,,,,,,,,,,,,,,,,,,,,,,,,,,,,,,,,
,,1,1.7953,1,1.7953,0,24,24,25,1,23,flower,microwave,,90338,001,2022-04-27_14h34.03.721,SPAMnetsValid,2021.1.4,Win32,60.96817461,,,,,,,,,,,,,,,,,,,,,,,,,,,,,,,,,,,,,,,,,,,,,,,,,,,,,,,,,,,,,,,,,,,,,,,,,,,,,,,,,,,,,,,,,
,,8,2.1709,8,2.1709,0,25,25,52,1,4,chocolate,pretzel,,90338,001,2022-04-27_14h34.03.721,SPAMnetsValid,2021.1.4,Win32,60.96817461,,,,,,,,,,,,,,,,,,,,,,,,,,,,,,,,,,,,,,,,,,,,,,,,,,,,,,,,,,,,,,,,,,,,,,,,,,,,,,,,,,,,,,,,,
,,1,1.6214,1,1.6214,0,26,26,27,1,72,broom,onion,,90338,001,2022-04-27_14h34.03.721,SPAMnetsValid,2021.1.4,Win32,60.96817461,,,,,,,,,,,,,,,,,,,,,,,,,,,,,,,,,,,,,,,,,,,,,,,,,,,,,,,,,,,,,,,,,,,,,,,,,,,,,,,,,,,,,,,,,
,,2,2.1922,2,2.1922,0,27,27,23,1,65,broom,garden,,90338,001,2022-04-27_14h34.03.721,SPAMnetsValid,2021.1.4,Win32,60.96817461,,,,,,,,,,,,,,,,,,,,,,,,,,,,,,,,,,,,,,,,,,,,,,,,,,,,,,,,,,,,,,,,,,,,,,,,,,,,,,,,,,,,,,,,,
,,7,1.7416,7,1.7416,0,28,28,80,1,61,strawberry,tomato,,90338,001,2022-04-27_14h34.03.721,SPAMnetsValid,2021.1.4,Win32,60.96817461,,,,,,,,,,,,,,,,,,,,,,,,,,,,,,,,,,,,,,,,,,,,,,,,,,,,,,,,,,,,,,,,,,,,,,,,,,,,,,,,,,,,,,,,,
,,4,1.6379,4,1.6379,0,29,29,1,1,31,cactus,pretzel,,90338,001,2022-04-27_14h34.03.721,SPAMnetsValid,2021.1.4,Win32,60.96817461,,,,,,,,,,,,,,,,,,,,,,,,,,,,,,,,,,,,,,,,,,,,,,,,,,,,,,,,,,,,,,,,,,,,,,,,,,,,,,,,,,,,,,,,,
,,5,2.5858,5,2.5858,0,30,30,33,1,32,cake,microwave,,90338,001,2022-04-27_14h34.03.721,SPAMnetsValid,2021.1.4,Win32,60.96817461,,,,,,,,,,,,,,,,,,,,,,,,,,,,,,,,,,,,,,,,,,,,,,,,,,,,,,,,,,,,,,,,,,,,,,,,,,,,,,,,,,,,,,,,,
,,2,1.5734,2,1.5734,0,31,31,34,1,29,chocolate,melon,,90338,001,2022-04-27_14h34.03.721,SPAMnetsValid,2021.1.4,Win32,60.96817461,,,,,,,,,,,,,,,,,,,,,,,,,,,,,,,,,,,,,,,,,,,,,,,,,,,,,,,,,,,,,,,,,,,,,,,,,,,,,,,,,,,,,,,,,
,,2,1.405,2,1.405,0,32,32,81,1,60,cactus,onion,,90338,001,2022-04-27_14h34.03.721,SPAMnetsValid,2021.1.4,Win32,60.96817461,,,,,,,,,,,,,,,,,,,,,,,,,,,,,,,,,,,,,,,,,,,,,,,,,,,,,,,,,,,,,,,,,,,,,,,,,,,,,,,,,,,,,,,,,
,,9,1.4772,9,1.4772,0,33,33,53,1,192,microwave,microwave,CHECK,90338,001,2022-04-27_14h34.03.721,SPAMnetsValid,2021.1.4,Win32,60.96817461,,,,,,,,,,,,,,,,,,,,,,,,,,,,,,,,,,,,,,,,,,,,,,,,,,,,,,,,,,,,,,,,,,,,,,,,,,,,,,,,,,,,,,,,,
,,3,2.4355,3,2.4355,0,34,34,14,1,64,chocolate,garden,,90338,001,2022-04-27_14h34.03.721,SPAMnetsValid,2021.1.4,Win32,60.96817461,,,,,,,,,,,,,,,,,,,,,,,,,,,,,,,,,,,,,,,,,,,,,,,,,,,,,,,,,,,,,,,,,,,,,,,,,,,,,,,,,,,,,,,,,
,,3,1.758,3,1.758,0,35,35,28,1,84,oven,tomato,,90338,001,2022-04-27_14h34.03.721,SPAMnetsValid,2021.1.4,Win32,60.96817461,,,,,,,,,,,,,,,,,,,,,,,,,,,,,,,,,,,,,,,,,,,,,,,,,,,,,,,,,,,,,,,,,,,,,,,,,,,,,,,,,,,,,,,,,
,,7,1.9763,7,1.9763,0,36,36,95,1,52,carrot,tomato,,90338,001,2022-04-27_14h34.03.721,SPAMnetsValid,2021.1.4,Win32,60.96817461,,,,,,,,,,,,,,,,,,,,,,,,,,,,,,,,,,,,,,,,,,,,,,,,,,,,,,,,,,,,,,,,,,,,,,,,,,,,,,,,,,,,,,,,,
,,1,1.7074,1,1.7074,0,37,37,40,1,74,broom,pretzel,,90338,001,2022-04-27_14h34.03.721,SPAMnetsValid,2021.1.4,Win32,60.96817461,,,,,,,,,,,,,,,,,,,,,,,,,,,,,,,,,,,,,,,,,,,,,,,,,,,,,,,,,,,,,,,,,,,,,,,,,,,,,,,,,,,,,,,,,
,,3,1.8975,3,1.8975,0,38,38,6,1,87,carrot,yogurt,,90338,001,2022-04-27_14h34.03.721,SPAMnetsValid,2021.1.4,Win32,60.96817461,,,,,,,,,,,,,,,,,,,,,,,,,,,,,,,,,,,,,,,,,,,,,,,,,,,,,,,,,,,,,,,,,,,,,,,,,,,,,,,,,,,,,,,,,
,,3,1.0847,3,1.0847,0,39,39,26,1,35,flower,pretzel,,90338,001,2022-04-27_14h34.03.721,SPAMnetsValid,2021.1.4,Win32,60.96817461,,,,,,,,,,,,,,,,,,,,,,,,,,,,,,,,,,,,,,,,,,,,,,,,,,,,,,,,,,,,,,,,,,,,,,,,,,,,,,,,,,,,,,,,,
,,1,1.8355,1,1.8355,0,40,40,43,1,11,refrigerator,tree,,90338,001,2022-04-27_14h34.03.721,SPAMnetsValid,2021.1.4,Win32,60.96817461,,,,,,,,,,,,,,,,,,,,,,,,,,,,,,,,,,,,,,,,,,,,,,,,,,,,,,,,,,,,,,,,,,,,,,,,,,,,,,,,,,,,,,,,,
,,8,1.8904,8,1.8904,0,41,41,87,1,79,garden,strawberry,,90338,001,2022-04-27_14h34.03.721,SPAMnetsValid,2021.1.4,Win32,60.96817461,,,,,,,,,,,,,,,,,,,,,,,,,,,,,,,,,,,,,,,,,,,,,,,,,,,,,,,,,,,,,,,,,,,,,,,,,,,,,,,,,,,,,,,,,
,,8,1.0849,8,1.0849,0,42,42,44,1,25,carrot,onion,,90338,001,2022-04-27_14h34.03.721,SPAMnetsValid,2021.1.4,Win32,60.96817461,,,,,,,,,,,,,,,,,,,,,,,,,,,,,,,,,,,,,,,,,,,,,,,,,,,,,,,,,,,,,,,,,,,,,,,,,,,,,,,,,,,,,,,,,
,,7,7.0627,7,7.0627,0,43,43,30,1,3,cake,oven,,90338,001,2022-04-27_14h34.03.721,SPAMnetsValid,2021.1.4,Win32,60.96817461,,,,,,,,,,,,,,,,,,,,,,,,,,,,,,,,,,,,,,,,,,,,,,,,,,,,,,,,,,,,,,,,,,,,,,,,,,,,,,,,,,,,,,,,,
,,2,1.8827,2,1.8827,0,44,44,65,1,46,garden,yogurt,,90338,001,2022-04-27_14h34.03.721,SPAMnetsValid,2021.1.4,Win32,60.96817461,,,,,,,,,,,,,,,,,,,,,,,,,,,,,,,,,,,,,,,,,,,,,,,,,,,,,,,,,,,,,,,,,,,,,,,,,,,,,,,,,,,,,,,,,
,,6,1.6859,6,1.6859,0,45,45,35,1,55,tomato,tree,,90338,001,2022-04-27_14h34.03.721,SPAMnetsValid,2021.1.4,Win32,60.96817461,,,,,,,,,,,,,,,,,,,,,,,,,,,,,,,,,,,,,,,,,,,,,,,,,,,,,,,,,,,,,,,,,,,,,,,,,,,,,,,,,,,,,,,,,
,,3,1.3047,3,1.3047,0,46,46,12,1,67,flower,yogurt,,90338,001,2022-04-27_14h34.03.721,SPAMnetsValid,2021.1.4,Win32,60.96817461,,,,,,,,,,,,,,,,,,,,,,,,,,,,,,,,,,,,,,,,,,,,,,,,,,,,,,,,,,,,,,,,,,,,,,,,,,,,,,,,,,,,,,,,,
,,2,1.0915,2,1.0915,0,47,47,9,1,75,cookie,onion,,90338,001,2022-04-27_14h34.03.721,SPAMnetsValid,2021.1.4,Win32,60.96817461,,,,,,,,,,,,,,,,,,,,,,,,,,,,,,,,,,,,,,,,,,,,,,,,,,,,,,,,,,,,,,,,,,,,,,,,,,,,,,,,,,,,,,,,,
,,2,1.1822,2,1.1822,0,48,48,60,1,89,chocolate,rose,,90338,001,2022-04-27_14h34.03.721,SPAMnetsValid,2021.1.4,Win32,60.96817461,,,,,,,,,,,,,,,,,,,,,,,,,,,,,,,,,,,,,,,,,,,,,,,,,,,,,,,,,,,,,,,,,,,,,,,,,,,,,,,,,,,,,,,,,
,,2,0.9592,2,0.9592,0,49,49,4,1,83,broom,carrot,,90338,001,2022-04-27_14h34.03.721,SPAMnetsValid,2021.1.4,Win32,60.96817461,,,,,,,,,,,,,,,,,,,,,,,,,,,,,,,,,,,,,,,,,,,,,,,,,,,,,,,,,,,,,,,,,,,,,,,,,,,,,,,,,,,,,,,,,
,,7,2.0386,7,2.0386,0,50,50,91,1,2,kitchen,onion,,90338,001,2022-04-27_14h34.03.721,SPAMnetsValid,2021.1.4,Win32,60.96817461,,,,,,,,,,,,,,,,,,,,,,,,,,,,,,,,,,,,,,,,,,,,,,,,,,,,,,,,,,,,,,,,,,,,,,,,,,,,,,,,,,,,,,,,,
,,2,1.3983,2,1.3983,0,51,51,57,1,62,kitchen,rose,,90338,001,2022-04-27_14h34.03.721,SPAMnetsValid,2021.1.4,Win32,60.96817461,,,,,,,,,,,,,,,,,,,,,,,,,,,,,,,,,,,,,,,,,,,,,,,,,,,,,,,,,,,,,,,,,,,,,,,,,,,,,,,,,,,,,,,,,
,,2,1.2393,2,1.2393,0,52,52,56,1,78,cookie,rose,,90338,001,2022-04-27_14h34.03.721,SPAMnetsValid,2021.1.4,Win32,60.96817461,,,,,,,,,,,,,,,,,,,,,,,,,,,,,,,,,,,,,,,,,,,,,,,,,,,,,,,,,,,,,,,,,,,,,,,,,,,,,,,,,,,,,,,,,
,,8,1.428,8,1.428,0,53,53,93,1,63,cake,cookie,,90338,001,2022-04-27_14h34.03.721,SPAMnetsValid,2021.1.4,Win32,60.96817461,,,,,,,,,,,,,,,,,,,,,,,,,,,,,,,,,,,,,,,,,,,,,,,,,,,,,,,,,,,,,,,,,,,,,,,,,,,,,,,,,,,,,,,,,
,,3,1.4312,3,1.4312,0,54,54,13,1,26,tomato,yogurt,,90338,001,2022-04-27_14h34.03.721,SPAMnetsValid,2021.1.4,Win32,60.96817461,,,,,,,,,,,,,,,,,,,,,,,,,,,,,,,,,,,,,,,,,,,,,,,,,,,,,,,,,,,,,,,,,,,,,,,,,,,,,,,,,,,,,,,,,
,,3,1.4052,3,1.4052,0,55,55,92,1,44,cookie,melon,,90338,001,2022-04-27_14h34.03.721,SPAMnetsValid,2021.1.4,Win32,60.96817461,,,,,,,,,,,,,,,,,,,,,,,,,,,,,,,,,,,,,,,,,,,,,,,,,,,,,,,,,,,,,,,,,,,,,,,,,,,,,,,,,,,,,,,,,
,,2,2.6267,2,2.6267,0,56,56,85,1,90,cactus,cake,,90338,001,2022-04-27_14h34.03.721,SPAMnetsValid,2021.1.4,Win32,60.96817461,,,,,,,,,,,,,,,,,,,,,,,,,,,,,,,,,,,,,,,,,,,,,,,,,,,,,,,,,,,,,,,,,,,,,,,,,,,,,,,,,,,,,,,,,
,,1,1.5214,1,1.5214,0,57,57,46,1,41,broom,cactus,,90338,001,2022-04-27_14h34.03.721,SPAMnetsValid,2021.1.4,Win32,60.96817461,,,,,,,,,,,,,,,,,,,,,,,,,,,,,,,,,,,,,,,,,,,,,,,,,,,,,,,,,,,,,,,,,,,,,,,,,,,,,,,,,,,,,,,,,
,,1,1.4353,1,1.4353,0,58,58,70,1,5,oven,tree,,90338,001,2022-04-27_14h34.03.721,SPAMnetsValid,2021.1.4,Win32,60.96817461,,,,,,,,,,,,,,,,,,,,,,,,,,,,,,,,,,,,,,,,,,,,,,,,,,,,,,,,,,,,,,,,,,,,,,,,,,,,,,,,,,,,,,,,,
,,1,0.9558,1,0.9558,0,59,59,69,1,45,onion,pretzel,,90338,001,2022-04-27_14h34.03.721,SPAMnetsValid,2021.1.4,Win32,60.96817461,,,,,,,,,,,,,,,,,,,,,,,,,,,,,,,,,,,,,,,,,,,,,,,,,,,,,,,,,,,,,,,,,,,,,,,,,,,,,,,,,,,,,,,,,
,,1,2.4066,1,2.4066,0,60,60,5,1,13,broom,yogurt,,90338,001,2022-04-27_14h34.03.721,SPAMnetsValid,2021.1.4,Win32,60.96817461,,,,,,,,,,,,,,,,,,,,,,,,,,,,,,,,,,,,,,,,,,,,,,,,,,,,,,,,,,,,,,,,,,,,,,,,,,,,,,,,,,,,,,,,,
,,1,2.7087,1,2.7087,0,61,61,11,1,37,garden,refrigerator,,90338,001,2022-04-27_14h34.03.721,SPAMnetsValid,2021.1.4,Win32,60.96817461,,,,,,,,,,,,,,,,,,,,,,,,,,,,,,,,,,,,,,,,,,,,,,,,,,,,,,,,,,,,,,,,,,,,,,,,,,,,,,,,,,,,,,,,,
,,8,1.972,8,1.972,0,62,62,83,1,6,garden,onion,,90338,001,2022-04-27_14h34.03.721,SPAMnetsValid,2021.1.4,Win32,60.96817461,,,,,,,,,,,,,,,,,,,,,,,,,,,,,,,,,,,,,,,,,,,,,,,,,,,,,,,,,,,,,,,,,,,,,,,,,,,,,,,,,,,,,,,,,
,,1,1.3055,1,1.3055,0,63,63,16,1,14,broom,cookie,,90338,001,2022-04-27_14h34.03.721,SPAMnetsValid,2021.1.4,Win32,60.96817461,,,,,,,,,,,,,,,,,,,,,,,,,,,,,,,,,,,,,,,,,,,,,,,,,,,,,,,,,,,,,,,,,,,,,,,,,,,,,,,,,,,,,,,,,
,,7,1.5766,7,1.5766,0,64,64,96,1,82,cake,kitchen,,90338,001,2022-04-27_14h34.03.721,SPAMnetsValid,2021.1.4,Win32,60.96817461,,,,,,,,,,,,,,,,,,,,,,,,,,,,,,,,,,,,,,,,,,,,,,,,,,,,,,,,,,,,,,,,,,,,,,,,,,,,,,,,,,,,,,,,,
,,3,2.5194,3,2.5194,0,65,65,74,1,70,chocolate,onion,,90338,001,2022-04-27_14h34.03.721,SPAMnetsValid,2021.1.4,Win32,60.96817461,,,,,,,,,,,,,,,,,,,,,,,,,,,,,,,,,,,,,,,,,,,,,,,,,,,,,,,,,,,,,,,,,,,,,,,,,,,,,,,,,,,,,,,,,
,,3,1.7782,3,1.7782,0,66,66,72,1,59,rose,strawberry,,90338,001,2022-04-27_14h34.03.721,SPAMnetsValid,2021.1.4,Win32,60.96817461,,,,,,,,,,,,,,,,,,,,,,,,,,,,,,,,,,,,,,,,,,,,,,,,,,,,,,,,,,,,,,,,,,,,,,,,,,,,,,,,,,,,,,,,,
,,6,1.5856,6,1.5856,0,67,67,54,1,28,cake,melon,,90338,001,2022-04-27_14h34.03.721,SPAMnetsValid,2021.1.4,Win32,60.96817461,,,,,,,,,,,,,,,,,,,,,,,,,,,,,,,,,,,,,,,,,,,,,,,,,,,,,,,,,,,,,,,,,,,,,,,,,,,,,,,,,,,,,,,,,
,,3,2.9306,3,2.9306,0,68,68,73,1,50,carrot,rose,,90338,001,2022-04-27_14h34.03.721,SPAMnetsValid,2021.1.4,Win32,60.96817461,,,,,,,,,,,,,,,,,,,,,,,,,,,,,,,,,,,,,,,,,,,,,,,,,,,,,,,,,,,,,,,,,,,,,,,,,,,,,,,,,,,,,,,,,
,,6,2.6062,6,2.6062,0,69,69,24,1,17,carrot,melon,,90338,001,2022-04-27_14h34.03.721,SPAMnetsValid,2021.1.4,Win32,60.96817461,,,,,,,,,,,,,,,,,,,,,,,,,,,,,,,,,,,,,,,,,,,,,,,,,,,,,,,,,,,,,,,,,,,,,,,,,,,,,,,,,,,,,,,,,
,,1,1.5859,1,1.5859,0,70,70,79,1,86,oven,rose,,90338,001,2022-04-27_14h34.03.721,SPAMnetsValid,2021.1.4,Win32,60.96817461,,,,,,,,,,,,,,,,,,,,,,,,,,,,,,,,,,,,,,,,,,,,,,,,,,,,,,,,,,,,,,,,,,,,,,,,,,,,,,,,,,,,,,,,,
,,2,2.4701,2,2.4701,0,71,71,45,1,10,flower,onion,,90338,001,2022-04-27_14h34.03.721,SPAMnetsValid,2021.1.4,Win32,60.96817461,,,,,,,,,,,,,,,,,,,,,,,,,,,,,,,,,,,,,,,,,,,,,,,,,,,,,,,,,,,,,,,,,,,,,,,,,,,,,,,,,,,,,,,,,
,,1,1.49,1,1.49,0,72,72,0,1,53,garden,pretzel,,90338,001,2022-04-27_14h34.03.721,SPAMnetsValid,2021.1.4,Win32,60.96817461,,,,,,,,,,,,,,,,,,,,,,,,,,,,,,,,,,,,,,,,,,,,,,,,,,,,,,,,,,,,,,,,,,,,,,,,,,,,,,,,,,,,,,,,,
,,1,2.0358,1,2.0358,0,73,73,88,1,92,broom,flower,,90338,001,2022-04-27_14h34.03.721,SPAMnetsValid,2021.1.4,Win32,60.96817461,,,,,,,,,,,,,,,,,,,,,,,,,,,,,,,,,,,,,,,,,,,,,,,,,,,,,,,,,,,,,,,,,,,,,,,,,,,,,,,,,,,,,,,,,
,,2,1.8859,2,1.8859,0,74,74,49,1,57,flower,kitchen,,90338,001,2022-04-27_14h34.03.721,SPAMnetsValid,2021.1.4,Win32,60.96817461,,,,,,,,,,,,,,,,,,,,,,,,,,,,,,,,,,,,,,,,,,,,,,,,,,,,,,,,,,,,,,,,,,,,,,,,,,,,,,,,,,,,,,,,,
,,4,2.2538,4,2.2538,0,75,75,63,1,21,cake,onion,,90338,001,2022-04-27_14h34.03.721,SPAMnetsValid,2021.1.4,Win32,60.96817461,,,,,,,,,,,,,,,,,,,,,,,,,,,,,,,,,,,,,,,,,,,,,,,,,,,,,,,,,,,,,,,,,,,,,,,,,,,,,,,,,,,,,,,,,
,,1,1.9527,1,1.9527,0,76,76,17,1,27,cactus,cookie,,90338,001,2022-04-27_14h34.03.721,SPAMnetsValid,2021.1.4,Win32,60.96817461,,,,,,,,,,,,,,,,,,,,,,,,,,,,,,,,,,,,,,,,,,,,,,,,,,,,,,,,,,,,,,,,,,,,,,,,,,,,,,,,,,,,,,,,,
,,1,1.256,1,1.256,0,77,77,55,1,1,rose,yogurt,,90338,001,2022-04-27_14h34.03.721,SPAMnetsValid,2021.1.4,Win32,60.96817461,,,,,,,,,,,,,,,,,,,,,,,,,,,,,,,,,,,,,,,,,,,,,,,,,,,,,,,,,,,,,,,,,,,,,,,,,,,,,,,,,,,,,,,,,
,,1,1.159,1,1.159,0,78,78,37,1,58,garden,oven,,90338,001,2022-04-27_14h34.03.721,SPAMnetsValid,2021.1.4,Win32,60.96817461,,,,,,,,,,,,,,,,,,,,,,,,,,,,,,,,,,,,,,,,,,,,,,,,,,,,,,,,,,,,,,,,,,,,,,,,,,,,,,,,,,,,,,,,,
,,8,1.6393,8,1.6393,0,79,79,64,1,9,kitchen,refrigerator,,90338,001,2022-04-27_14h34.03.721,SPAMnetsValid,2021.1.4,Win32,60.96817461,,,,,,,,,,,,,,,,,,,,,,,,,,,,,,,,,,,,,,,,,,,,,,,,,,,,,,,,,,,,,,,,,,,,,,,,,,,,,,,,,,,,,,,,,
,,6,2.3183,6,2.3183,0,80,80,86,1,51,onion,strawberry,,90338,001,2022-04-27_14h34.03.721,SPAMnetsValid,2021.1.4,Win32,60.96817461,,,,,,,,,,,,,,,,,,,,,,,,,,,,,,,,,,,,,,,,,,,,,,,,,,,,,,,,,,,,,,,,,,,,,,,,,,,,,,,,,,,,,,,,,
,,2,1.7596,2,1.7596,0,81,81,38,1,88,cactus,melon,,90338,001,2022-04-27_14h34.03.721,SPAMnetsValid,2021.1.4,Win32,60.96817461,,,,,,,,,,,,,,,,,,,,,,,,,,,,,,,,,,,,,,,,,,,,,,,,,,,,,,,,,,,,,,,,,,,,,,,,,,,,,,,,,,,,,,,,,
,,4,2.8303,4,2.8303,0,82,82,50,1,81,pretzel,yogurt,,90338,001,2022-04-27_14h34.03.721,SPAMnetsValid,2021.1.4,Win32,60.96817461,,,,,,,,,,,,,,,,,,,,,,,,,,,,,,,,,,,,,,,,,,,,,,,,,,,,,,,,,,,,,,,,,,,,,,,,,,,,,,,,,,,,,,,,,
,,2,1.6541,2,1.6541,0,83,83,15,1,48,flower,oven,,90338,001,2022-04-27_14h34.03.721,SPAMnetsValid,2021.1.4,Win32,60.96817461,,,,,,,,,,,,,,,,,,,,,,,,,,,,,,,,,,,,,,,,,,,,,,,,,,,,,,,,,,,,,,,,,,,,,,,,,,,,,,,,,,,,,,,,,
,,4,1.6362,4,1.6362,0,84,84,20,1,39,melon,pretzel,,90338,001,2022-04-27_14h34.03.721,SPAMnetsValid,2021.1.4,Win32,60.96817461,,,,,,,,,,,,,,,,,,,,,,,,,,,,,,,,,,,,,,,,,,,,,,,,,,,,,,,,,,,,,,,,,,,,,,,,,,,,,,,,,,,,,,,,,
,,6,1.8562,6,1.8562,0,85,85,76,1,36,broom,kitchen,,90338,001,2022-04-27_14h34.03.721,SPAMnetsValid,2021.1.4,Win32,60.96817461,,,,,,,,,,,,,,,,,,,,,,,,,,,,,,,,,,,,,,,,,,,,,,,,,,,,,,,,,,,,,,,,,,,,,,,,,,,,,,,,,,,,,,,,,
,,5,2.3915,5,2.3915,0,86,86,3,1,49,flower,strawberry,,90338,001,2022-04-27_14h34.03.721,SPAMnetsValid,2021.1.4,Win32,60.96817461,,,,,,,,,,,,,,,,,,,,,,,,,,,,,,,,,,,,,,,,,,,,,,,,,,,,,,,,,,,,,,,,,,,,,,,,,,,,,,,,,,,,,,,,,
,,8,1.6524,8,1.6524,0,87,87,19,1,76,garden,rose,,90338,001,2022-04-27_14h34.03.721,SPAMnetsValid,2021.1.4,Win32,60.96817461,,,,,,,,,,,,,,,,,,,,,,,,,,,,,,,,,,,,,,,,,,,,,,,,,,,,,,,,,,,,,,,,,,,,,,,,,,,,,,,,,,,,,,,,,
,,2,1.5879,2,1.5879,0,88,88,47,1,73,broom,chocolate,,90338,001,2022-04-27_14h34.03.721,SPAMnetsValid,2021.1.4,Win32,60.96817461,,,,,,,,,,,,,,,,,,,,,,,,,,,,,,,,,,,,,,,,,,,,,,,,,,,,,,,,,,,,,,,,,,,,,,,,,,,,,,,,,,,,,,,,,
,,5,2.0389,5,2.0389,0,89,89,2,1,22,kitchen,strawberry,,90338,001,2022-04-27_14h34.03.721,SPAMnetsValid,2021.1.4,Win32,60.96817461,,,,,,,,,,,,,,,,,,,,,,,,,,,,,,,,,,,,,,,,,,,,,,,,,,,,,,,,,,,,,,,,,,,,,,,,,,,,,,,,,,,,,,,,,
,,1,1.7298,1,1.7298,0,90,90,59,1,8,broom,melon,,90338,001,2022-04-27_14h34.03.721,SPAMnetsValid,2021.1.4,Win32,60.96817461,,,,,,,,,,,,,,,,,,,,,,,,,,,,,,,,,,,,,,,,,,,,,,,,,,,,,,,,,,,,,,,,,,,,,,,,,,,,,,,,,,,,,,,,,
,,6,1.5167,6,1.5167,0,91,91,94,1,68,flower,tomato,,90338,001,2022-04-27_14h34.03.721,SPAMnetsValid,2021.1.4,Win32,60.96817461,,,,,,,,,,,,,,,,,,,,,,,,,,,,,,,,,,,,,,,,,,,,,,,,,,,,,,,,,,,,,,,,,,,,,,,,,,,,,,,,,,,,,,,,,
,,2,1.244,2,1.244,0,92,92,84,1,91,microwave,rose,,90338,001,2022-04-27_14h34.03.721,SPAMnetsValid,2021.1.4,Win32,60.96817461,,,,,,,,,,,,,,,,,,,,,,,,,,,,,,,,,,,,,,,,,,,,,,,,,,,,,,,,,,,,,,,,,,,,,,,,,,,,,,,,,,,,,,,,,
,,7,2.8517,7,2.8517,0,93,93,21,1,56,cactus,tree,,90338,001,2022-04-27_14h34.03.721,SPAMnetsValid,2021.1.4,Win32,60.96817461,,,,,,,,,,,,,,,,,,,,,,,,,,,,,,,,,,,,,,,,,,,,,,,,,,,,,,,,,,,,,,,,,,,,,,,,,,,,,,,,,,,,,,,,,
,,3,1.4858,3,1.4858,0,94,94,67,1,54,chocolate,yogurt,,90338,001,2022-04-27_14h34.03.721,SPAMnetsValid,2021.1.4,Win32,60.96817461,,,,,,,,,,,,,,,,,,,,,,,,,,,,,,,,,,,,,,,,,,,,,,,,,,,,,,,,,,,,,,,,,,,,,,,,,,,,,,,,,,,,,,,,,
,,3,1.5853,3,1.5853,0,95,95,7,1,34,melon,oven,,90338,001,2022-04-27_14h34.03.721,SPAMnetsValid,2021.1.4,Win32,60.96817461,,,,,,,,,,,,,,,,,,,,,,,,,,,,,,,,,,,,,,,,,,,,,,,,,,,,,,,,,,,,,,,,,,,,,,,,,,,,,,,,,,,,,,,,,
,,9,1.8259,9,1.8259,0,96,96,10,1,191,cake,cake,CHECK,90338,001,2022-04-27_14h34.03.721,SPAMnetsValid,2021.1.4,Win32,60.96817461,,,,,,,,,,,,,,,,,,,,,,,,,,,,,,,,,,,,,,,,,,,,,,,,,,,,,,,,,,,,,,,,,,,,,,,,,,,,,,,,,,,,,,,,,
,,,,,,,,,,,,,,,90338,001,2022-04-27_14h34.03.721,SPAMnetsValid,2021.1.4,Win32,60.96817461,0,0,0,0,1,,,,,,,,,,,,,,,,,,,,,,,,,,,,,,,,,,,,,,,,,,,,,,,,,,,,,,,,,,,,,,,,,,,,,,,,,,,,,,,,,,,,
,,,,,,,,,,,,,,,90338,001,2022-04-27_14h34.03.721,SPAMnetsValid,2021.1.4,Win32,60.96817461,,,,,,0,0,0,0,1,1,0,,,,,,,,,,,,,,,,,,,,,,,,,,,,,,,,,,,,,,,,,,,,,,,,,,,,,,,,,,,,,,,,,,,,,,,,,,,,,
,,,,3,1.4075,,,,,,111,carrot,microwave,,90338,001,2022-04-27_14h34.03.721,SPAMnetsValid,2021.1.4,Win32,60.96817461,,,,,,,,,,,,,3,1.4075,0,0,0,16,1,,,,,,,,,,,,,,,,,,,,,,,,,,,,,,,,,,,,,,,,,,,,,,,,,,,,,,,,,,,,,,,,,,,,,,
,,,,3,1.2719,,,,,,103,pretzel,tomato,,90338,001,2022-04-27_14h34.03.721,SPAMnetsValid,2021.1.4,Win32,60.96817461,,,,,,,,,,,,,3,1.2719,0,1,1,79,1,,,,,,,,,,,,,,,,,,,,,,,,,,,,,,,,,,,,,,,,,,,,,,,,,,,,,,,,,,,,,,,,,,,,,,
,,,,4,1.3476,,,,,,176,cactus,tomato,,90338,001,2022-04-27_14h34.03.721,SPAMnetsValid,2021.1.4,Win32,60.96817461,,,,,,,,,,,,,4,1.3476,0,2,2,9,1,,,,,,,,,,,,,,,,,,,,,,,,,,,,,,,,,,,,,,,,,,,,,,,,,,,,,,,,,,,,,,,,,,,,,,
,,,,2,2.2782,,,,,,171,cake,tomato,,90338,001,2022-04-27_14h34.03.721,SPAMnetsValid,2021.1.4,Win32,60.96817461,,,,,,,,,,,,,2,2.2782,0,3,3,88,1,,,,,,,,,,,,,,,,,,,,,,,,,,,,,,,,,,,,,,,,,,,,,,,,,,,,,,,,,,,,,,,,,,,,,,
,,,,3,1.3539,,,,,,156,melon,rose,,90338,001,2022-04-27_14h34.03.721,SPAMnetsValid,2021.1.4,Win32,60.96817461,,,,,,,,,,,,,3,1.3539,0,4,4,31,1,,,,,,,,,,,,,,,,,,,,,,,,,,,,,,,,,,,,,,,,,,,,,,,,,,,,,,,,,,,,,,,,,,,,,,
,,,,8,1.8779,,,,,,99,garden,melon,,90338,001,2022-04-27_14h34.03.721,SPAMnetsValid,2021.1.4,Win32,60.96817461,,,,,,,,,,,,,8,1.8779,0,5,5,17,1,,,,,,,,,,,,,,,,,,,,,,,,,,,,,,,,,,,,,,,,,,,,,,,,,,,,,,,,,,,,,,,,,,,,,,
,,,,8,1.0902,,,,,,120,microwave,oven,,90338,001,2022-04-27_14h34.03.721,SPAMnetsValid,2021.1.4,Win32,60.96817461,,,,,,,,,,,,,8,1.0902,0,6,6,14,1,,,,,,,,,,,,,,,,,,,,,,,,,,,,,,,,,,,,,,,,,,,,,,,,,,,,,,,,,,,,,,,,,,,,,,
,,,,6,1.7697,,,,,,125,carrot,tree,,90338,001,2022-04-27_14h34.03.721,SPAMnetsValid,2021.1.4,Win32,60.96817461,,,,,,,,,,,,,6,1.7697,0,7,7,30,1,,,,,,,,,,,,,,,,,,,,,,,,,,,,,,,,,,,,,,,,,,,,,,,,,,,,,,,,,,,,,,,,,,,,,,
,,,,1,2.1419,,,,,,129,cactus,refrigerator,,90338,001,2022-04-27_14h34.03.721,SPAMnetsValid,2021.1.4,Win32,60.96817461,,,,,,,,,,,,,1,2.1419,0,8,8,3,1,,,,,,,,,,,,,,,,,,,,,,,,,,,,,,,,,,,,,,,,,,,,,,,,,,,,,,,,,,,,,,,,,,,,,,
,,,,7,1.6042,,,,,,136,chocolate,microwave,,90338,001,2022-04-27_14h34.03.721,SPAMnetsValid,2021.1.4,Win32,60.96817461,,,,,,,,,,,,,7,1.6042,0,9,9,96,1,,,,,,,,,,,,,,,,,,,,,,,,,,,,,,,,,,,,,,,,,,,,,,,,,,,,,,,,,,,,,,,,,,,,,,
,,,,1,1.4119,,,,,,137,microwave,tree,,90338,001,2022-04-27_14h34.03.721,SPAMnetsValid,2021.1.4,Win32,60.96817461,,,,,,,,,,,,,1,1.4119,0,10,10,63,1,,,,,,,,,,,,,,,,,,,,,,,,,,,,,,,,,,,,,,,,,,,,,,,,,,,,,,,,,,,,,,,,,,,,,,
,,,,1,1.1888,,,,,,135,carrot,oven,,90338,001,2022-04-27_14h34.03.721,SPAMnetsValid,2021.1.4,Win32,60.96817461,,,,,,,,,,,,,1,1.1888,0,11,11,73,1,,,,,,,,,,,,,,,,,,,,,,,,,,,,,,,,,,,,,,,,,,,,,,,,,,,,,,,,,,,,,,,,,,,,,,
,,,,1,1.7722,,,,,,108,carrot,chocolate,,90338,001,2022-04-27_14h34.03.721,SPAMnetsValid,2021.1.4,Win32,60.96817461,,,,,,,,,,,,,1,1.7722,0,12,12,5,1,,,,,,,,,,,,,,,,,,,,,,,,,,,,,,,,,,,,,,,,,,,,,,,,,,,,,,,,,,,,,,,,,,,,,,
,,,,6,1.9644,,,,,,139,carrot,strawberry,,90338,001,2022-04-27_14h34.03.721,SPAMnetsValid,2021.1.4,Win32,60.96817461,,,,,,,,,,,,,6,1.9644,0,13,13,37,1,,,,,,,,,,,,,,,,,,,,,,,,,,,,,,,,,,,,,,,,,,,,,,,,,,,,,,,,,,,,,,,,,,,,,,
,,,,8,1.6583,,,,,,106,cake,strawberry,,90338,001,2022-04-27_14h34.03.721,SPAMnetsValid,2021.1.4,Win32,60.96817461,,,,,,,,,,,,,8,1.6583,0,14,14,0,1,,,,,,,,,,,,,,,,,,,,,,,,,,,,,,,,,,,,,,,,,,,,,,,,,,,,,,,,,,,,,,,,,,,,,,
,,,,8,1.6393,,,,,,150,microwave,refrigerator,,90338,001,2022-04-27_14h34.03.721,SPAMnetsValid,2021.1.4,Win32,60.96817461,,,,,,,,,,,,,8,1.6393,0,15,15,66,1,,,,,,,,,,,,,,,,,,,,,,,,,,,,,,,,,,,,,,,,,,,,,,,,,,,,,,,,,,,,,,,,,,,,,,
,,,,4,1.4557,,,,,,178,cactus,carrot,,90338,001,2022-04-27_14h34.03.721,SPAMnetsValid,2021.1.4,Win32,60.96817461,,,,,,,,,,,,,4,1.4557,0,16,16,75,1,,,,,,,,,,,,,,,,,,,,,,,,,,,,,,,,,,,,,,,,,,,,,,,,,,,,,,,,,,,,,,,,,,,,,,
,,,,1,1.4813,,,,,,180,tree,yogurt,,90338,001,2022-04-27_14h34.03.721,SPAMnetsValid,2021.1.4,Win32,60.96817461,,,,,,,,,,,,,1,1.4813,0,17,17,68,1,,,,,,,,,,,,,,,,,,,,,,,,,,,,,,,,,,,,,,,,,,,,,,,,,,,,,,,,,,,,,,,,,,,,,,
,,,,1,1.7397,,,,,,153,carrot,pretzel,,90338,001,2022-04-27_14h34.03.721,SPAMnetsValid,2021.1.4,Win32,60.96817461,,,,,,,,,,,,,1,1.7397,0,18,18,34,1,,,,,,,,,,,,,,,,,,,,,,,,,,,,,,,,,,,,,,,,,,,,,,,,,,,,,,,,,,,,,,,,,,,,,,
,,,,1,1.1041,,,,,,105,cactus,oven,,90338,001,2022-04-27_14h34.03.721,SPAMnetsValid,2021.1.4,Win32,60.96817461,,,,,,,,,,,,,1,1.1041,0,19,19,13,1,,,,,,,,,,,,,,,,,,,,,,,,,,,,,,,,,,,,,,,,,,,,,,,,,,,,,,,,,,,,,,,,,,,,,,
,,,,2,1.5101,,,,,,130,microwave,yogurt,,90338,001,2022-04-27_14h34.03.721,SPAMnetsValid,2021.1.4,Win32,60.96817461,,,,,,,,,,,,,2,1.5101,0,20,20,84,1,,,,,,,,,,,,,,,,,,,,,,,,,,,,,,,,,,,,,,,,,,,,,,,,,,,,,,,,,,,,,,,,,,,,,,
,,,,6,1.9988,,,,,,102,chocolate,refrigerator,,90338,001,2022-04-27_14h34.03.721,SPAMnetsValid,2021.1.4,Win32,60.96817461,,,,,,,,,,,,,6,1.9988,0,21,21,76,1,,,,,,,,,,,,,,,,,,,,,,,,,,,,,,,,,,,,,,,,,,,,,,,,,,,,,,,,,,,,,,,,,,,,,,
,,,,1,1.9794,,,,,,144,cake,garden,,90338,001,2022-04-27_14h34.03.721,SPAMnetsValid,2021.1.4,Win32,60.96817461,,,,,,,,,,,,,1,1.9794,0,22,22,58,1,,,,,,,,,,,,,,,,,,,,,,,,,,,,,,,,,,,,,,,,,,,,,,,,,,,,,,,,,,,,,,,,,,,,,,
,,,,6,1.8384,,,,,,141,melon,tomato,,90338,001,2022-04-27_14h34.03.721,SPAMnetsValid,2021.1.4,Win32,60.96817461,,,,,,,,,,,,,6,1.8384,0,23,23,70,1,,,,,,,,,,,,,,,,,,,,,,,,,,,,,,,,,,,,,,,,,,,,,,,,,,,,,,,,,,,,,,,,,,,,,,
,,,,8,2.5568,,,,,,177,chocolate,strawberry,,90338,001,2022-04-27_14h34.03.721,SPAMnetsValid,2021.1.4,Win32,60.96817461,,,,,,,,,,,,,8,2.5568,0,24,24,53,1,,,,,,,,,,,,,,,,,,,,,,,,,,,,,,,,,,,,,,,,,,,,,,,,,,,,,,,,,,,,,,,,,,,,,,
,,,,8,1.41,,,,,,119,strawberry,tree,,90338,001,2022-04-27_14h34.03.721,SPAMnetsValid,2021.1.4,Win32,60.96817461,,,,,,,,,,,,,8,1.41,0,25,25,18,1,,,,,,,,,,,,,,,,,,,,,,,,,,,,,,,,,,,,,,,,,,,,,,,,,,,,,,,,,,,,,,,,,,,,,,
,,,,6,1.5372,,,,,,115,refrigerator,tomato,,90338,001,2022-04-27_14h34.03.721,SPAMnetsValid,2021.1.4,Win32,60.96817461,,,,,,,,,,,,,6,1.5372,0,26,26,85,1,,,,,,,,,,,,,,,,,,,,,,,,,,,,,,,,,,,,,,,,,,,,,,,,,,,,,,,,,,,,,,,,,,,,,,
,,,,3,1.456,,,,,,96,oven,strawberry,,90338,001,2022-04-27_14h34.03.721,SPAMnetsValid,2021.1.4,Win32,60.96817461,,,,,,,,,,,,,3,1.456,0,27,27,67,1,,,,,,,,,,,,,,,,,,,,,,,,,,,,,,,,,,,,,,,,,,,,,,,,,,,,,,,,,,,,,,,,,,,,,,
,,,,3,1.1213,,,,,,165,onion,rose,,90338,001,2022-04-27_14h34.03.721,SPAMnetsValid,2021.1.4,Win32,60.96817461,,,,,,,,,,,,,3,1.1213,0,28,28,40,1,,,,,,,,,,,,,,,,,,,,,,,,,,,,,,,,,,,,,,,,,,,,,,,,,,,,,,,,,,,,,,,,,,,,,,
,,,,3,1.2069,,,,,,149,broom,tomato,,90338,001,2022-04-27_14h34.03.721,SPAMnetsValid,2021.1.4,Win32,60.96817461,,,,,,,,,,,,,3,1.2069,0,29,29,20,1,,,,,,,,,,,,,,,,,,,,,,,,,,,,,,,,,,,,,,,,,,,,,,,,,,,,,,,,,,,,,,,,,,,,,,
,,,,2,1.2975,,,,,,164,cookie,garden,,90338,001,2022-04-27_14h34.03.721,SPAMnetsValid,2021.1.4,Win32,60.96817461,,,,,,,,,,,,,2,1.2975,0,30,30,59,1,,,,,,,,,,,,,,,,,,,,,,,,,,,,,,,,,,,,,,,,,,,,,,,,,,,,,,,,,,,,,,,,,,,,,,
,,,,2,1.3558,,,,,,128,melon,microwave,,90338,001,2022-04-27_14h34.03.721,SPAMnetsValid,2021.1.4,Win32,60.96817461,,,,,,,,,,,,,2,1.3558,0,31,31,74,1,,,,,,,,,,,,,,,,,,,,,,,,,,,,,,,,,,,,,,,,,,,,,,,,,,,,,,,,,,,,,,,,,,,,,,
,,,,7,2.1223,,,,,,168,cactus,flower,,90338,001,2022-04-27_14h34.03.721,SPAMnetsValid,2021.1.4,Win32,60.96817461,,,,,,,,,,,,,7,2.1223,0,32,32,51,1,,,,,,,,,,,,,,,,,,,,,,,,,,,,,,,,,,,,,,,,,,,,,,,,,,,,,,,,,,,,,,,,,,,,,,
,,,,6,2.4742,,,,,,140,cookie,refrigerator,,90338,001,2022-04-27_14h34.03.721,SPAMnetsValid,2021.1.4,Win32,60.96817461,,,,,,,,,,,,,6,2.4742,0,33,33,89,1,,,,,,,,,,,,,,,,,,,,,,,,,,,,,,,,,,,,,,,,,,,,,,,,,,,,,,,,,,,,,,,,,,,,,,
,,,,2,1.4089,,,,,,146,pretzel,tree,,90338,001,2022-04-27_14h34.03.721,SPAMnetsValid,2021.1.4,Win32,60.96817461,,,,,,,,,,,,,2,1.4089,0,34,34,80,1,,,,,,,,,,,,,,,,,,,,,,,,,,,,,,,,,,,,,,,,,,,,,,,,,,,,,,,,,,,,,,,,,,,,,,
,,,,4,2.7254,,,,,,107,rose,tomato,,90338,001,2022-04-27_14h34.03.721,SPAMnetsValid,2021.1.4,Win32,60.96817461,,,,,,,,,,,,,4,2.7254,0,35,35,26,1,,,,,,,,,,,,,,,,,,,,,,,,,,,,,,,,,,,,,,,,,,,,,,,,,,,,,,,,,,,,,,,,,,,,,,
,,,,7,1.6369,,,,,,173,kitchen,tomato,,90338,001,2022-04-27_14h34.03.721,SPAMnetsValid,2021.1.4,Win32,60.96817461,,,,,,,,,,,,,7,1.6369,0,36,36,1,1,,,,,,,,,,,,,,,,,,,,,,,,,,,,,,,,,,,,,,,,,,,,,,,,,,,,,,,,,,,,,,,,,,,,,,
,,,,3,1.3883,,,,,,123,cookie,tree,,90338,001,2022-04-27_14h34.03.721,SPAMnetsValid,2021.1.4,Win32,60.96817461,,,,,,,,,,,,,3,1.3883,0,37,37,46,1,,,,,,,,,,,,,,,,,,,,,,,,,,,,,,,,,,,,,,,,,,,,,,,,,,,,,,,,,,,,,,,,,,,,,,
,,,,6,1.3307,,,,,,166,cake,yogurt,,90338,001,2022-04-27_14h34.03.721,SPAMnetsValid,2021.1.4,Win32,60.96817461,,,,,,,,,,,,,6,1.3307,0,38,38,91,1,,,,,,,,,,,,,,,,,,,,,,,,,,,,,,,,,,,,,,,,,,,,,,,,,,,,,,,,,,,,,,,,,,,,,,
,,,,9,1.6711,,,,,,194,cactus,cactus,CHECK,90338,001,2022-04-27_14h34.03.721,SPAMnetsValid,2021.1.4,Win32,60.96817461,,,,,,,,,,,,,9,1.6711,0,39,39,25,1,,,,,,,,,,,,,,,,,,,,,,,,,,,,,,,,,,,,,,,,,,,,,,,,,,,,,,,,,,,,,,,,,,,,,,
,,,,1,3.2232,,,,,,133,cake,flower,,90338,001,2022-04-27_14h34.03.721,SPAMnetsValid,2021.1.4,Win32,60.96817461,,,,,,,,,,,,,1,3.2232,0,40,40,94,1,,,,,,,,,,,,,,,,,,,,,,,,,,,,,,,,,,,,,,,,,,,,,,,,,,,,,,,,,,,,,,,,,,,,,,
,,,,2,1.1392,,,,,,145,cactus,yogurt,,90338,001,2022-04-27_14h34.03.721,SPAMnetsValid,2021.1.4,Win32,60.96817461,,,,,,,,,,,,,2,1.1392,0,41,41,15,1,,,,,,,,,,,,,,,,,,,,,,,,,,,,,,,,,,,,,,,,,,,,,,,,,,,,,,,,,,,,,,,,,,,,,,
,,,,6,1.587,,,,,,113,refrigerator,strawberry,,90338,001,2022-04-27_14h34.03.721,SPAMnetsValid,2021.1.4,Win32,60.96817461,,,,,,,,,,,,,6,1.587,0,42,42,56,1,,,,,,,,,,,,,,,,,,,,,,,,,,,,,,,,,,,,,,,,,,,,,,,,,,,,,,,,,,,,,,,,,,,,,,
,,,,4,1.4805,,,,,,169,onion,yogurt,,90338,001,2022-04-27_14h34.03.721,SPAMnetsValid,2021.1.4,Win32,60.96817461,,,,,,,,,,,,,4,1.4805,0,43,43,24,1,,,,,,,,,,,,,,,,,,,,,,,,,,,,,,,,,,,,,,,,,,,,,,,,,,,,,,,,,,,,,,,,,,,,,,
,,,,6,3.1209,,,,,,175,melon,onion,,90338,001,2022-04-27_14h34.03.721,SPAMnetsValid,2021.1.4,Win32,60.96817461,,,,,,,,,,,,,6,3.1209,0,44,44,41,1,,,,,,,,,,,,,,,,,,,,,,,,,,,,,,,,,,,,,,,,,,,,,,,,,,,,,,,,,,,,,,,,,,,,,,
,,,,8,1.4724,,,,,,100,garden,tomato,,90338,001,2022-04-27_14h34.03.721,SPAMnetsValid,2021.1.4,Win32,60.96817461,,,,,,,,,,,,,8,1.4724,0,45,45,83,1,,,,,,,,,,,,,,,,,,,,,,,,,,,,,,,,,,,,,,,,,,,,,,,,,,,,,,,,,,,,,,,,,,,,,,
,,,,1,1.7924,,,,,,182,flower,refrigerator,,90338,001,2022-04-27_14h34.03.721,SPAMnetsValid,2021.1.4,Win32,60.96817461,,,,,,,,,,,,,1,1.7924,0,46,46,32,1,,,,,,,,,,,,,,,,,,,,,,,,,,,,,,,,,,,,,,,,,,,,,,,,,,,,,,,,,,,,,,,,,,,,,,
,,,,7,1.8553,,,,,,112,cake,carrot,,90338,001,2022-04-27_14h34.03.721,SPAMnetsValid,2021.1.4,Win32,60.96817461,,,,,,,,,,,,,7,1.8553,0,47,47,39,1,,,,,,,,,,,,,,,,,,,,,,,,,,,,,,,,,,,,,,,,,,,,,,,,,,,,,,,,,,,,,,,,,,,,,,
,,,,8,2.6563,,,,,,158,cookie,oven,,90338,001,2022-04-27_14h34.03.721,SPAMnetsValid,2021.1.4,Win32,60.96817461,,,,,,,,,,,,,8,2.6563,0,48,48,27,1,,,,,,,,,,,,,,,,,,,,,,,,,,,,,,,,,,,,,,,,,,,,,,,,,,,,,,,,,,,,,,,,,,,,,,
,,,,8,1.1108,,,,,,172,kitchen,melon,,90338,001,2022-04-27_14h34.03.721,SPAMnetsValid,2021.1.4,Win32,60.96817461,,,,,,,,,,,,,8,1.1108,0,49,49,77,1,,,,,,,,,,,,,,,,,,,,,,,,,,,,,,,,,,,,,,,,,,,,,,,,,,,,,,,,,,,,,,,,,,,,,,
,,,,2,1.6122,,,,,,157,refrigerator,rose,,90338,001,2022-04-27_14h34.03.721,SPAMnetsValid,2021.1.4,Win32,60.96817461,,,,,,,,,,,,,2,1.6122,0,50,50,64,1,,,,,,,,,,,,,,,,,,,,,,,,,,,,,,,,,,,,,,,,,,,,,,,,,,,,,,,,,,,,,,,,,,,,,,
,,,,6,1.4758,,,,,,97,chocolate,kitchen,,90338,001,2022-04-27_14h34.03.721,SPAMnetsValid,2021.1.4,Win32,60.96817461,,,,,,,,,,,,,6,1.4758,0,51,51,8,1,,,,,,,,,,,,,,,,,,,,,,,,,,,,,,,,,,,,,,,,,,,,,,,,,,,,,,,,,,,,,,,,,,,,,,
,,,,2,1.5618,,,,,,143,pretzel,rose,,90338,001,2022-04-27_14h34.03.721,SPAMnetsValid,2021.1.4,Win32,60.96817461,,,,,,,,,,,,,2,1.5618,0,52,52,55,1,,,,,,,,,,,,,,,,,,,,,,,,,,,,,,,,,,,,,,,,,,,,,,,,,,,,,,,,,,,,,,,,,,,,,,
,,,,1,2.2756,,,,,,101,cactus,kitchen,,90338,001,2022-04-27_14h34.03.721,SPAMnetsValid,2021.1.4,Win32,60.96817461,,,,,,,,,,,,,1,2.2756,0,53,53,54,1,,,,,,,,,,,,,,,,,,,,,,,,,,,,,,,,,,,,,,,,,,,,,,,,,,,,,,,,,,,,,,,,,,,,,,
,,,,1,1.4667,,,,,,127,cactus,chocolate,,90338,001,2022-04-27_14h34.03.721,SPAMnetsValid,2021.1.4,Win32,60.96817461,,,,,,,,,,,,,1,1.4667,0,54,54,57,1,,,,,,,,,,,,,,,,,,,,,,,,,,,,,,,,,,,,,,,,,,,,,,,,,,,,,,,,,,,,,,,,,,,,,,
,,,,7,1.4095,,,,,,184,oven,pretzel,,90338,001,2022-04-27_14h34.03.721,SPAMnetsValid,2021.1.4,Win32,60.96817461,,,,,,,,,,,,,7,1.4095,0,55,55,42,1,,,,,,,,,,,,,,,,,,,,,,,,,,,,,,,,,,,,,,,,,,,,,,,,,,,,,,,,,,,,,,,,,,,,,,
,,,,7,1.1708,,,,,,186,kitchen,yogurt,,90338,001,2022-04-27_14h34.03.721,SPAMnetsValid,2021.1.4,Win32,60.96817461,,,,,,,,,,,,,7,1.1708,0,56,56,48,1,,,,,,,,,,,,,,,,,,,,,,,,,,,,,,,,,,,,,,,,,,,,,,,,,,,,,,,,,,,,,,,,,,,,,,
,,,,8,1.5432,,,,,,122,flower,garden,,90338,001,2022-04-27_14h34.03.721,SPAMnetsValid,2021.1.4,Win32,60.96817461,,,,,,,,,,,,,8,1.5432,0,57,57,60,1,,,,,,,,,,,,,,,,,,,,,,,,,,,,,,,,,,,,,,,,,,,,,,,,,,,,,,,,,,,,,,,,,,,,,,
,,,,3,2.6202,,,,,,104,garden,microwave,,90338,001,2022-04-27_14h34.03.721,SPAMnetsValid,2021.1.4,Win32,60.96817461,,,,,,,,,,,,,3,2.6202,0,58,58,81,1,,,,,,,,,,,,,,,,,,,,,,,,,,,,,,,,,,,,,,,,,,,,,,,,,,,,,,,,,,,,,,,,,,,,,,
,,,,6,2.2246,,,,,,134,carrot,flower,,90338,001,2022-04-27_14h34.03.721,SPAMnetsValid,2021.1.4,Win32,60.96817461,,,,,,,,,,,,,6,2.2246,0,59,59,93,1,,,,,,,,,,,,,,,,,,,,,,,,,,,,,,,,,,,,,,,,,,,,,,,,,,,,,,,,,,,,,,,,,,,,,,
,,,,4,1.7775,,,,,,152,cactus,strawberry,,90338,001,2022-04-27_14h34.03.721,SPAMnetsValid,2021.1.4,Win32,60.96817461,,,,,,,,,,,,,4,1.7775,0,60,60,49,1,,,,,,,,,,,,,,,,,,,,,,,,,,,,,,,,,,,,,,,,,,,,,,,,,,,,,,,,,,,,,,,,,,,,,,
,,,,4,1.4636,,,,,,162,microwave,tomato,,90338,001,2022-04-27_14h34.03.721,SPAMnetsValid,2021.1.4,Win32,60.96817461,,,,,,,,,,,,,4,1.4636,0,61,61,12,1,,,,,,,,,,,,,,,,,,,,,,,,,,,,,,,,,,,,,,,,,,,,,,,,,,,,,,,,,,,,,,,,,,,,,,
,,,,6,1.722,,,,,,118,chocolate,oven,,90338,001,2022-04-27_14h34.03.721,SPAMnetsValid,2021.1.4,Win32,60.96817461,,,,,,,,,,,,,6,1.722,0,62,62,10,1,,,,,,,,,,,,,,,,,,,,,,,,,,,,,,,,,,,,,,,,,,,,,,,,,,,,,,,,,,,,,,,,,,,,,,
,,,,8,1.6867,,,,,,124,oven,refrigerator,,90338,001,2022-04-27_14h34.03.721,SPAMnetsValid,2021.1.4,Win32,60.96817461,,,,,,,,,,,,,8,1.6867,0,63,63,69,1,,,,,,,,,,,,,,,,,,,,,,,,,,,,,,,,,,,,,,,,,,,,,,,,,,,,,,,,,,,,,,,,,,,,,,
,,,,8,1.3624,,,,,,138,flower,rose,,90338,001,2022-04-27_14h34.03.721,SPAMnetsValid,2021.1.4,Win32,60.96817461,,,,,,,,,,,,,8,1.3624,0,64,64,61,1,,,,,,,,,,,,,,,,,,,,,,,,,,,,,,,,,,,,,,,,,,,,,,,,,,,,,,,,,,,,,,,,,,,,,,
,,,,3,3.7767,,,,,,190,microwave,strawberry,,90338,001,2022-04-27_14h34.03.721,SPAMnetsValid,2021.1.4,Win32,60.96817461,,,,,,,,,,,,,3,3.7767,0,65,65,90,1,,,,,,,,,,,,,,,,,,,,,,,,,,,,,,,,,,,,,,,,,,,,,,,,,,,,,,,,,,,,,,,,,,,,,,
,,,,6,1.6722,,,,,,179,broom,oven,,90338,001,2022-04-27_14h34.03.721,SPAMnetsValid,2021.1.4,Win32,60.96817461,,,,,,,,,,,,,6,1.6722,0,66,66,45,1,,,,,,,,,,,,,,,,,,,,,,,,,,,,,,,,,,,,,,,,,,,,,,,,,,,,,,,,,,,,,,,,,,,,,,
,,,,4,1.1575,,,,,,189,onion,tree,,90338,001,2022-04-27_14h34.03.721,SPAMnetsValid,2021.1.4,Win32,60.96817461,,,,,,,,,,,,,4,1.1575,0,67,67,62,1,,,,,,,,,,,,,,,,,,,,,,,,,,,,,,,,,,,,,,,,,,,,,,,,,,,,,,,,,,,,,,,,,,,,,,
,,,,8,2.4448,,,,,,116,cake,chocolate,,90338,001,2022-04-27_14h34.03.721,SPAMnetsValid,2021.1.4,Win32,60.96817461,,,,,,,,,,,,,8,2.4448,0,68,68,44,1,,,,,,,,,,,,,,,,,,,,,,,,,,,,,,,,,,,,,,,,,,,,,,,,,,,,,,,,,,,,,,,,,,,,,,
,,,,4,3.2511,,,,,,159,cookie,flower,,90338,001,2022-04-27_14h34.03.721,SPAMnetsValid,2021.1.4,Win32,60.96817461,,,,,,,,,,,,,4,3.2511,0,69,69,21,1,,,,,,,,,,,,,,,,,,,,,,,,,,,,,,,,,,,,,,,,,,,,,,,,,,,,,,,,,,,,,,,,,,,,,,
,,,,1,1.2724,,,,,,132,broom,tree,,90338,001,2022-04-27_14h34.03.721,SPAMnetsValid,2021.1.4,Win32,60.96817461,,,,,,,,,,,,,1,1.2724,0,70,70,78,1,,,,,,,,,,,,,,,,,,,,,,,,,,,,,,,,,,,,,,,,,,,,,,,,,,,,,,,,,,,,,,,,,,,,,,
,,,,6,1.3107,,,,,,117,melon,strawberry,,90338,001,2022-04-27_14h34.03.721,SPAMnetsValid,2021.1.4,Win32,60.96817461,,,,,,,,,,,,,6,1.3107,0,71,71,11,1,,,,,,,,,,,,,,,,,,,,,,,,,,,,,,,,,,,,,,,,,,,,,,,,,,,,,,,,,,,,,,,,,,,,,,
,,,,9,1.3148,,,,,,193,melon,melon,CHECK,90338,001,2022-04-27_14h34.03.721,SPAMnetsValid,2021.1.4,Win32,60.96817461,,,,,,,,,,,,,9,1.3148,0,72,72,86,1,,,,,,,,,,,,,,,,,,,,,,,,,,,,,,,,,,,,,,,,,,,,,,,,,,,,,,,,,,,,,,,,,,,,,,
,,,,2,2.1559,,,,,,151,microwave,onion,,90338,001,2022-04-27_14h34.03.721,SPAMnetsValid,2021.1.4,Win32,60.96817461,,,,,,,,,,,,,2,2.1559,0,73,73,6,1,,,,,,,,,,,,,,,,,,,,,,,,,,,,,,,,,,,,,,,,,,,,,,,,,,,,,,,,,,,,,,,,,,,,,,
,,,,8,1.2904,,,,,,110,chocolate,cookie,,90338,001,2022-04-27_14h34.03.721,SPAMnetsValid,2021.1.4,Win32,60.96817461,,,,,,,,,,,,,8,1.2904,0,74,74,52,1,,,,,,,,,,,,,,,,,,,,,,,,,,,,,,,,,,,,,,,,,,,,,,,,,,,,,,,,,,,,,,,,,,,,,,
,,,,7,2.159,,,,,,160,cookie,kitchen,,90338,001,2022-04-27_14h34.03.721,SPAMnetsValid,2021.1.4,Win32,60.96817461,,,,,,,,,,,,,7,2.159,0,75,75,65,1,,,,,,,,,,,,,,,,,,,,,,,,,,,,,,,,,,,,,,,,,,,,,,,,,,,,,,,,,,,,,,,,,,,,,,
,,,,8,2.5294,,,,,,188,flower,tree,,90338,001,2022-04-27_14h34.03.721,SPAMnetsValid,2021.1.4,Win32,60.96817461,,,,,,,,,,,,,8,2.5294,0,76,76,7,1,,,,,,,,,,,,,,,,,,,,,,,,,,,,,,,,,,,,,,,,,,,,,,,,,,,,,,,,,,,,,,,,,,,,,,
,,,,8,1.2134,,,,,,148,flower,melon,,90338,001,2022-04-27_14h34.03.721,SPAMnetsValid,2021.1.4,Win32,60.96817461,,,,,,,,,,,,,8,1.2134,0,77,77,23,1,,,,,,,,,,,,,,,,,,,,,,,,,,,,,,,,,,,,,,,,,,,,,,,,,,,,,,,,,,,,,,,,,,,,,,
,,,,7,1.6598,,,,,,155,carrot,cookie,,90338,001,2022-04-27_14h34.03.721,SPAMnetsValid,2021.1.4,Win32,60.96817461,,,,,,,,,,,,,7,1.6598,0,78,78,38,1,,,,,,,,,,,,,,,,,,,,,,,,,,,,,,,,,,,,,,,,,,,,,,,,,,,,,,,,,,,,,,,,,,,,,,
,,,,7,1.0987,,,,,,161,kitchen,pretzel,,90338,001,2022-04-27_14h34.03.721,SPAMnetsValid,2021.1.4,Win32,60.96817461,,,,,,,,,,,,,7,1.0987,0,79,79,36,1,,,,,,,,,,,,,,,,,,,,,,,,,,,,,,,,,,,,,,,,,,,,,,,,,,,,,,,,,,,,,,,,,,,,,,
,,,,3,1.4387,,,,,,183,cake,rose,,90338,001,2022-04-27_14h34.03.721,SPAMnetsValid,2021.1.4,Win32,60.96817461,,,,,,,,,,,,,3,1.4387,0,80,80,19,1,,,,,,,,,,,,,,,,,,,,,,,,,,,,,,,,,,,,,,,,,,,,,,,,,,,,,,,,,,,,,,,,,,,,,,
,,,,1,1.8546,,,,,,126,kitchen,tree,,90338,001,2022-04-27_14h34.03.721,SPAMnetsValid,2021.1.4,Win32,60.96817461,,,,,,,,,,,,,1,1.8546,0,81,81,50,1,,,,,,,,,,,,,,,,,,,,,,,,,,,,,,,,,,,,,,,,,,,,,,,,,,,,,,,,,,,,,,,,,,,,,,
,,,,8,1.5551,,,,,,154,strawberry,yogurt,,90338,001,2022-04-27_14h34.03.721,SPAMnetsValid,2021.1.4,Win32,60.96817461,,,,,,,,,,,,,8,1.5551,0,82,82,28,1,,,,,,,,,,,,,,,,,,,,,,,,,,,,,,,,,,,,,,,,,,,,,,,,,,,,,,,,,,,,,,,,,,,,,,
,,,,2,1.8044,,,,,,121,broom,microwave,,90338,001,2022-04-27_14h34.03.721,SPAMnetsValid,2021.1.4,Win32,60.96817461,,,,,,,,,,,,,2,1.8044,0,83,83,95,1,,,,,,,,,,,,,,,,,,,,,,,,,,,,,,,,,,,,,,,,,,,,,,,,,,,,,,,,,,,,,,,,,,,,,,
,,,,2,1.2485,,,,,,187,cactus,microwave,,90338,001,2022-04-27_14h34.03.721,SPAMnetsValid,2021.1.4,Win32,60.96817461,,,,,,,,,,,,,2,1.2485,0,84,84,71,1,,,,,,,,,,,,,,,,,,,,,,,,,,,,,,,,,,,,,,,,,,,,,,,,,,,,,,,,,,,,,,,,,,,,,,
,,,,2,1.3061,,,,,,98,pretzel,strawberry,,90338,001,2022-04-27_14h34.03.721,SPAMnetsValid,2021.1.4,Win32,60.96817461,,,,,,,,,,,,,2,1.3061,0,85,85,82,1,,,,,,,,,,,,,,,,,,,,,,,,,,,,,,,,,,,,,,,,,,,,,,,,,,,,,,,,,,,,,,,,,,,,,,
,,,,6,2.6987,,,,,,131,cactus,garden,,90338,001,2022-04-27_14h34.03.721,SPAMnetsValid,2021.1.4,Win32,60.96817461,,,,,,,,,,,,,6,2.6987,0,86,86,33,1,,,,,,,,,,,,,,,,,,,,,,,,,,,,,,,,,,,,,,,,,,,,,,,,,,,,,,,,,,,,,,,,,,,,,,
,,,,1,2.0209,,,,,,174,cake,pretzel,,90338,001,2022-04-27_14h34.03.721,SPAMnetsValid,2021.1.4,Win32,60.96817461,,,,,,,,,,,,,1,2.0209,0,87,87,2,1,,,,,,,,,,,,,,,,,,,,,,,,,,,,,,,,,,,,,,,,,,,,,,,,,,,,,,,,,,,,,,,,,,,,,,
,,,,6,1.5738,,,,,,114,cookie,strawberry,,90338,001,2022-04-27_14h34.03.721,SPAMnetsValid,2021.1.4,Win32,60.96817461,,,,,,,,,,,,,6,1.5738,0,88,88,87,1,,,,,,,,,,,,,,,,,,,,,,,,,,,,,,,,,,,,,,,,,,,,,,,,,,,,,,,,,,,,,,,,,,,,,,
,,,,7,1.7093,,,,,,147,cake,refrigerator,,90338,001,2022-04-27_14h34.03.721,SPAMnetsValid,2021.1.4,Win32,60.96817461,,,,,,,,,,,,,7,1.7093,0,89,89,35,1,,,,,,,,,,,,,,,,,,,,,,,,,,,,,,,,,,,,,,,,,,,,,,,,,,,,,,,,,,,,,,,,,,,,,,
,,,,7,1.0263,,,,,,163,melon,refrigerator,,90338,001,2022-04-27_14h34.03.721,SPAMnetsValid,2021.1.4,Win32,60.96817461,,,,,,,,,,,,,7,1.0263,0,90,90,29,1,,,,,,,,,,,,,,,,,,,,,,,,,,,,,,,,,,,,,,,,,,,,,,,,,,,,,,,,,,,,,,,,,,,,,,
,,,,7,2.2617,,,,,,181,carrot,kitchen,,90338,001,2022-04-27_14h34.03.721,SPAMnetsValid,2021.1.4,Win32,60.96817461,,,,,,,,,,,,,7,2.2617,0,91,91,72,1,,,,,,,,,,,,,,,,,,,,,,,,,,,,,,,,,,,,,,,,,,,,,,,,,,,,,,,,,,,,,,,,,,,,,,
,,,,7,1.4382,,,,,,170,cookie,microwave,,90338,001,2022-04-27_14h34.03.721,SPAMnetsValid,2021.1.4,Win32,60.96817461,,,,,,,,,,,,,7,1.4382,0,92,92,92,1,,,,,,,,,,,,,,,,,,,,,,,,,,,,,,,,,,,,,,,,,,,,,,,,,,,,,,,,,,,,,,,,,,,,,,
,,,,1,1.3116,,,,,,109,broom,strawberry,,90338,001,2022-04-27_14h34.03.721,SPAMnetsValid,2021.1.4,Win32,60.96817461,,,,,,,,,,,,,1,1.3116,0,93,93,4,1,,,,,,,,,,,,,,,,,,,,,,,,,,,,,,,,,,,,,,,,,,,,,,,,,,,,,,,,,,,,,,,,,,,,,,
,,,,4,2.0572,,,,,,185,cactus,rose,,90338,001,2022-04-27_14h34.03.721,SPAMnetsValid,2021.1.4,Win32,60.96817461,,,,,,,,,,,,,4,2.0572,0,94,94,43,1,,,,,,,,,,,,,,,,,,,,,,,,,,,,,,,,,,,,,,,,,,,,,,,,,,,,,,,,,,,,,,,,,,,,,,
,,,,7,1.5962,,,,,,142,garden,tree,,90338,001,2022-04-27_14h34.03.721,SPAMnetsValid,2021.1.4,Win32,60.96817461,,,,,,,,,,,,,7,1.5962,0,95,95,22,1,,,,,,,,,,,,,,,,,,,,,,,,,,,,,,,,,,,,,,,,,,,,,,,,,,,,,,,,,,,,,,,,,,,,,,
,,,,8,1.6403,,,,,,167,carrot,garden,,90338,001,2022-04-27_14h34.03.721,SPAMnetsValid,2021.1.4,Win32,60.96817461,,,,,,,,,,,,,8,1.6403,0,96,96,47,1,,,,,,,,,,,,,,,,,,,,,,,,,,,,,,,,,,,,,,,,,,,,,,,,,,,,,,,,,,,,,,,,,,,,,,
,,,,,,,,,,,,,,,90338,001,2022-04-27_14h34.03.721,SPAMnetsValid,2021.1.4,Win32,60.96817461,,,,,,,,,,,,,,,,,,,,0,0,0,0,1,,,,,,,,,,,,,,,,,,,,,,,,,,,,,,,,,,,,,,,,,,,,,,,,,,,,,,,,,,,,,,,,,
,,,,,,,,,,,,,,,90338,001,2022-04-27_14h34.03.721,SPAMnetsValid,2021.1.4,Win32,60.96817461,,,,,,0,1,1,1,1,0,1,,,,,,,,,,,,,,,,,,,,,,,,,,,,,,,,,,,,,,,,,,,,,,,,,,,,,,,,,,,,,,,,,,,,,,,,,,,,,
,,,,,,,,,,,,,,,90338,001,2022-04-27_14h34.03.721,SPAMnetsValid,2021.1.4,Win32,60.96817461,,,,,,,,,,,,,,,,,,,,,,,,,2,7.2215,0,0,0,0,1,rancor,forbearance,ridicule,malice,bravery,3,,,,,,,,,,,,,,,,,,,,,,,,,,,,,,,,,,,,,,,,,,,,,,,,,,,,
,,,,,,,,,,,,,,,90338,001,2022-04-27_14h34.03.721,SPAMnetsValid,2021.1.4,Win32,60.96817461,,,,,,,,,,,,,,,,,,,,,,,,,4,2.2411,0,1,1,1,1,raucous,empty,quiet,smooth,harsh,4,,,,,,,,,,,,,,,,,,,,,,,,,,,,,,,,,,,,,,,,,,,,,,,,,,,,
,,,,,,,,,,,,,,,90338,001,2022-04-27_14h34.03.721,SPAMnetsValid,2021.1.4,Win32,60.96817461,,,,,,,,,,,,,,,,,,,,,,,,,4,2.4391,0,2,2,2,1,gargoyle,oil,medicine,carved waterspout,ugly building,3,,,,,,,,,,,,,,,,,,,,,,,,,,,,,,,,,,,,,,,,,,,,,,,,,,,,
,,,,,,,,,,,,,,,90338,001,2022-04-27_14h34.03.721,SPAMnetsValid,2021.1.4,Win32,60.96817461,,,,,,,,,,,,,,,,,,,,,,,,,2,3.3893,0,3,3,3,1,recrudesce,purify,renew activity,lack refinement,crush,2,,,,,,,,,,,,,,,,,,,,,,,,,,,,,,,,,,,,,,,,,,,,,,,,,,,,
,,,,,,,,,,,,,,,90338,001,2022-04-27_14h34.03.721,SPAMnetsValid,2021.1.4,Win32,60.96817461,,,,,,,,,,,,,,,,,,,,,,,,,1,2.8372,0,4,4,4,1,specious,"plausible, but not genuine",noteworthy,class or variety,roomy,1,,,,,,,,,,,,,,,,,,,,,,,,,,,,,,,,,,,,,,,,,,,,,,,,,,,,
,,,,,,,,,,,,,,,90338,001,2022-04-27_14h34.03.721,SPAMnetsValid,2021.1.4,Win32,60.96817461,,,,,,,,,,,,,,,,,,,,,,,,,4,4.5005,0,5,5,5,1,bauble,bubble,showy plaything,idle talk,confusion,2,,,,,,,,,,,,,,,,,,,,,,,,,,,,,,,,,,,,,,,,,,,,,,,,,,,,
,,,,,,,,,,,,,,,90338,001,2022-04-27_14h34.03.721,SPAMnetsValid,2021.1.4,Win32,60.96817461,,,,,,,,,,,,,,,,,,,,,,,,,4,4.7263,0,6,6,6,1,prolific,scarce,producing abundantly,reckless,speaking profanely,2,,,,,,,,,,,,,,,,,,,,,,,,,,,,,,,,,,,,,,,,,,,,,,,,,,,,
,,,,,,,,,,,,,,,90338,001,2022-04-27_14h34.03.721,SPAMnetsValid,2021.1.4,Win32,60.96817461,,,,,,,,,,,,,,,,,,,,,,,,,2,2.8327,0,7,7,7,1,opulent,party,wealthy,happy frame of mind,semiprecious stone,2,,,,,,,,,,,,,,,,,,,,,,,,,,,,,,,,,,,,,,,,,,,,,,,,,,,,
,,,,,,,,,,,,,,,90338,001,2022-04-27_14h34.03.721,SPAMnetsValid,2021.1.4,Win32,60.96817461,,,,,,,,,,,,,,,,,,,,,,,,,1,3.3409,0,8,8,8,1,coercion,conspiracy,strategy,restraint,attraction,3,,,,,,,,,,,,,,,,,,,,,,,,,,,,,,,,,,,,,,,,,,,,,,,,,,,,
,,,,,,,,,,,,,,,90338,001,2022-04-27_14h34.03.721,SPAMnetsValid,2021.1.4,Win32,60.96817461,,,,,,,,,,,,,,,,,,,,,,,,,4,3.4643,0,9,9,9,1,hiatus,animal,calamity,dread,gap,4,,,,,,,,,,,,,,,,,,,,,,,,,,,,,,,,,,,,,,,,,,,,,,,,,,,,
,,,,,,,,,,,,,,,90338,001,2022-04-27_14h34.03.721,SPAMnetsValid,2021.1.4,Win32,60.96817461,,,,,,,,,,,,,,,,,,,,,,,,,4,2.3302,0,10,10,10,1,germane,microbe,contagious,relevant,different,3,,,,,,,,,,,,,,,,,,,,,,,,,,,,,,,,,,,,,,,,,,,,,,,,,,,,
,,,,,,,,,,,,,,,90338,001,2022-04-27_14h34.03.721,SPAMnetsValid,2021.1.4,Win32,60.96817461,,,,,,,,,,,,,,,,,,,,,,,,,2,2.4106,0,11,11,11,1,perfunctory,fundamental,formal,superficial,careful,3,,,,,,,,,,,,,,,,,,,,,,,,,,,,,,,,,,,,,,,,,,,,,,,,,,,,
,,,,,,,,,,,,,,,90338,001,2022-04-27_14h34.03.721,SPAMnetsValid,2021.1.4,Win32,60.96817461,,,,,,,,,,,,,,,,,,,,,,,,,1,2.5776,0,12,12,12,1,diverge,reveal,chant,distract the attention of,differ or turn off from,4,,,,,,,,,,,,,,,,,,,,,,,,,,,,,,,,,,,,,,,,,,,,,,,,,,,,
,,,,,,,,,,,,,,,90338,001,2022-04-27_14h34.03.721,SPAMnetsValid,2021.1.4,Win32,60.96817461,,,,,,,,,,,,,,,,,,,,,,,,,4,2.465,0,13,13,13,1,evoke,take away,anger,connect,bring out,4,,,,,,,,,,,,,,,,,,,,,,,,,,,,,,,,,,,,,,,,,,,,,,,,,,,,
,,,,,,,,,,,,,,,90338,001,2022-04-27_14h34.03.721,SPAMnetsValid,2021.1.4,Win32,60.96817461,,,,,,,,,,,,,,,,,,,,,,,,,1,2.6045,0,14,14,14,1,pertinent,relevant,lying next to,necessary,bold,1,,,,,,,,,,,,,,,,,,,,,,,,,,,,,,,,,,,,,,,,,,,,,,,,,,,,
,,,,,,,,,,,,,,,90338,001,2022-04-27_14h34.03.721,SPAMnetsValid,2021.1.4,Win32,60.96817461,,,,,,,,,,,,,,,,,,,,,,,,,2,1.7479,0,15,15,15,1,holocaust,entirety,destruction,saintly,price,2,,,,,,,,,,,,,,,,,,,,,,,,,,,,,,,,,,,,,,,,,,,,,,,,,,,,
,,,,,,,,,,,,,,,90338,001,2022-04-27_14h34.03.721,SPAMnetsValid,2021.1.4,Win32,60.96817461,,,,,,,,,,,,,,,,,,,,,,,,,3,3.0301,0,16,16,16,1,piquant,mellow,fish,pungent,cloth,3,,,,,,,,,,,,,,,,,,,,,,,,,,,,,,,,,,,,,,,,,,,,,,,,,,,,
,,,,,,,,,,,,,,,90338,001,2022-04-27_14h34.03.721,SPAMnetsValid,2021.1.4,Win32,60.96817461,,,,,,,,,,,,,,,,,,,,,,,,,3,2.9813,0,17,17,17,1,firmament,foundation,heavens,strong,glue,2,,,,,,,,,,,,,,,,,,,,,,,,,,,,,,,,,,,,,,,,,,,,,,,,,,,,
,,,,,,,,,,,,,,,90338,001,2022-04-27_14h34.03.721,SPAMnetsValid,2021.1.4,Win32,60.96817461,,,,,,,,,,,,,,,,,,,,,,,,,,,,,,,,,,,,,,4,2.5819,0,0,0,0,1,marketable,partisan,jocular,marriageable,salable,essential,4,,,,,,,,,,,,,,,,,,,,,,,,,,,,,,,,,,,,,,
,,,,,,,,,,,,,,,90338,001,2022-04-27_14h34.03.721,SPAMnetsValid,2021.1.4,Win32,60.96817461,,,,,,,,,,,,,,,,,,,,,,,,,,,,,,,,,,,,,,5,3.0606,0,1,1,1,1,cottontail,squirrel,poplar,boa,marshy plant,rabbit,5,,,,,,,,,,,,,,,,,,,,,,,,,,,,,,,,,,,,,,
,,,,,,,,,,,,,,,90338,001,2022-04-27_14h34.03.721,SPAMnetsValid,2021.1.4,Win32,60.96817461,,,,,,,,,,,,,,,,,,,,,,,,,,,,,,,,,,,,,,3,2.2051,0,2,2,2,1,boggy,afraid,false,marshy,dense,black,3,,,,,,,,,,,,,,,,,,,,,,,,,,,,,,,,,,,,,,
,,,,,,,,,,,,,,,90338,001,2022-04-27_14h34.03.721,SPAMnetsValid,2021.1.4,Win32,60.96817461,,,,,,,,,,,,,,,,,,,,,,,,,,,,,,,,,,,,,,5,2.5983,0,3,3,3,1,gruesomeness,blackness,falseness,vindictiveness,drunkenness,ghastliness,5,,,,,,,,,,,,,,,,,,,,,,,,,,,,,,,,,,,,,,
,,,,,,,,,,,,,,,90338,001,2022-04-27_14h34.03.721,SPAMnetsValid,2021.1.4,Win32,60.96817461,,,,,,,,,,,,,,,,,,,,,,,,,,,,,,,,,,,,,,3,2.3904,0,4,4,4,1,loathing,diffidence,laziness,abhorrence,cleverness,comfort,3,,,,,,,,,,,,,,,,,,,,,,,,,,,,,,,,,,,,,,
,,,,,,,,,,,,,,,90338,001,2022-04-27_14h34.03.721,SPAMnetsValid,2021.1.4,Win32,60.96817461,,,,,,,,,,,,,,,,,,,,,,,,,,,,,,,,,,,,,,1,2.2621,0,5,5,5,1,bantam,fowl,ridicule,cripple,vegetable,ensign,1,,,,,,,,,,,,,,,,,,,,,,,,,,,,,,,,,,,,,,
,,,,,,,,,,,,,,,90338,001,2022-04-27_14h34.03.721,SPAMnetsValid,2021.1.4,Win32,60.96817461,,,,,,,,,,,,,,,,,,,,,,,,,,,,,,,,,,,,,,1,2.1225,0,6,6,6,1,evoke,wake up,surrender,reconnoiter,transcend,call forth,5,,,,,,,,,,,,,,,,,,,,,,,,,,,,,,,,,,,,,,
,,,,,,,,,,,,,,,90338,001,2022-04-27_14h34.03.721,SPAMnetsValid,2021.1.4,Win32,60.96817461,,,,,,,,,,,,,,,,,,,,,,,,,,,,,,,,,,,,,,5,4.4957,0,7,7,7,1,unobtrusive,unintelligent,epileptic,illogical,lineal,modest,5,,,,,,,,,,,,,,,,,,,,,,,,,,,,,,,,,,,,,,
,,,,,,,,,,,,,,,90338,001,2022-04-27_14h34.03.721,SPAMnetsValid,2021.1.4,Win32,60.96817461,,,,,,,,,,,,,,,,,,,,,,,,,,,,,,,,,,,,,,4,2.2784,0,8,8,8,1,terrain,ice cream,final test,tractor,area of ground,weight,4,,,,,,,,,,,,,,,,,,,,,,,,,,,,,,,,,,,,,,
,,,,,,,,,,,,,,,90338,001,2022-04-27_14h34.03.721,SPAMnetsValid,2021.1.4,Win32,60.96817461,,,,,,,,,,,,,,,,,,,,,,,,,,,,,,,,,,,,,,1,3.4139,0,9,9,9,1,capriciousness,stubbornness,courage,whimsicality,amazement,greediness,3,,,,,,,,,,,,,,,,,,,,,,,,,,,,,,,,,,,,,,
,,,,,,,,,,,,,,,90338,001,2022-04-27_14h34.03.721,SPAMnetsValid,2021.1.4,Win32,60.96817461,,,,,,,,,,,,,,,,,,,,,,,,,,,,,,,,,,,,,,4,3.5411,0,10,10,10,1,maelstrom,slander,whirlpool,enmity,armor,majolica,2,,,,,,,,,,,,,,,,,,,,,,,,,,,,,,,,,,,,,,
,,,,,,,,,,,,,,,90338,001,2022-04-27_14h34.03.721,SPAMnetsValid,2021.1.4,Win32,60.96817461,,,,,,,,,,,,,,,,,,,,,,,,,,,,,,,,,,,,,,5,2.8758,0,11,11,11,1,tentative,critical,conclusive,authentic,provisional,apprehensive,4,,,,,,,,,,,,,,,,,,,,,,,,,,,,,,,,,,,,,,
,,,,,,,,,,,,,,,90338,001,2022-04-27_14h34.03.721,SPAMnetsValid,2021.1.4,Win32,60.96817461,,,,,,,,,,,,,,,,,,,,,,,,,,,,,,,,,,,,,,4,1.6705,0,12,12,12,1,placate,rehabilitate,plagiarize,depredate,apprise,conciliate,5,,,,,,,,,,,,,,,,,,,,,,,,,,,,,,,,,,,,,,
,,,,,,,,,,,,,,,90338,001,2022-04-27_14h34.03.721,SPAMnetsValid,2021.1.4,Win32,60.96817461,,,,,,,,,,,,,,,,,,,,,,,,,,,,,,,,,,,,,,2,3.0536,0,13,13,13,1,surcease,enlightenment,cessation,inattention,censor,substitution,2,,,,,,,,,,,,,,,,,,,,,,,,,,,,,,,,,,,,,,
,,,,,,,,,,,,,,,90338,001,2022-04-27_14h34.03.721,SPAMnetsValid,2021.1.4,Win32,60.96817461,,,,,,,,,,,,,,,,,,,,,,,,,,,,,,,,,,,,,,3,2.6772,0,14,14,14,1,apathetic,wandering,impassive,hateful,prophetic,overflowing,2,,,,,,,,,,,,,,,,,,,,,,,,,,,,,,,,,,,,,,
,,,,,,,,,,,,,,,90338,001,2022-04-27_14h34.03.721,SPAMnetsValid,2021.1.4,Win32,60.96817461,,,,,,,,,,,,,,,,,,,,,,,,,,,,,,,,,,,,,,2,4.2409,0,15,15,15,1,paternoster,paternalism,patricide,malediction,benediction,prayer,5,,,,,,,,,,,,,,,,,,,,,,,,,,,,,,,,,,,,,,
,,,,,,,,,,,,,,,90338,001,2022-04-27_14h34.03.721,SPAMnetsValid,2021.1.4,Win32,60.96817461,,,,,,,,,,,,,,,,,,,,,,,,,,,,,,,,,,,,,,1,2.4451,0,16,16,16,1,opalescence,opulence,senescence,bankruptcy,iridescence,assiduity,4,,,,,,,,,,,,,,,,,,,,,,,,,,,,,,,,,,,,,,
,,,,,,,,,,,,,,,90338,001,2022-04-27_14h34.03.721,SPAMnetsValid,2021.1.4,Win32,60.96817461,,,,,,,,,,,,,,,,,,,,,,,,,,,,,,,,,,,,,,2,1.5789,0,17,17,17,1,lush,stupid,luxurious,hazy,putrid,languishing,2,,,,,,,,,,,,,,,,,,,,,,,,,,,,,,,,,,,,,,
,,,,,,,,,,,,,,,90338,001,2022-04-27_14h34.03.721,SPAMnetsValid,2021.1.4,Win32,60.96817461,,,,,,,,,,,,,,,,,,,,,,,,,,,,,,,,,,,,,,4,5.2221,0,18,18,18,1,curtailment,expenditure,abandonment,abridgment,improvement,forgery,3,,,,,,,,,,,,,,,,,,,,,,,,,,,,,,,,,,,,,,
,,,,,,,,,,,,,,,90338,001,2022-04-27_14h34.03.721,SPAMnetsValid,2021.1.4,Win32,60.96817461,,,,,,,,,,,,,,,,,,,,,,,,,,,,,,,,,,,,,,2,3.0951,0,19,19,19,1,perversity,adversity,perviousness,travesty,waywardness,gentility,4,,,,,,,,,,,,,,,,,,,,,,,,,,,,,,,,,,,,,,
,,,,,,,,,,,,,,,90338,001,2022-04-27_14h34.03.721,SPAMnetsValid,2021.1.4,Win32,60.96817461,,,,,,,,,,,,,,,,,,,,,,,,,,,,,,,,,,,,,,3,4.6088,0,20,20,20,1,calumnious,complimentary,analogous,slanderous,tempestuous,magnanimous,3,,,,,,,,,,,,,,,,,,,,,,,,,,,,,,,,,,,,,,
,,,,,,,,,,,,,,,90338,001,2022-04-27_14h34.03.721,SPAMnetsValid,2021.1.4,Win32,60.96817461,,,,,,,,,,,,,,,,,,,,,,,,,,,,,,,,,,,,,,2,4.3875,0,21,21,21,1,illiberality,bigotry,imbecility,illegibility,cautery,immaturity,1,,,,,,,,,,,,,,,,,,,,,,,,,,,,,,,,,,,,,,
,,,,,,,,,,,,,,,90338,001,2022-04-27_14h34.03.721,SPAMnetsValid,2021.1.4,Win32,60.96817461,,,,,,,,,,,,,,,,,,,,,,,,,,,,,,,,,,,,,,2,2.4676,0,22,22,22,1,clabber,rejoice,gossip,curdle,crow,hobble,3,,,,,,,,,,,,,,,,,,,,,,,,,,,,,,,,,,,,,,
,,,,,,,,,,,,,,,90338,001,2022-04-27_14h34.03.721,SPAMnetsValid,2021.1.4,Win32,60.96817461,,,,,,,,,,,,,,,,,,,,,,,,,,,,,,,,,,,,,,3,3.2733,0,23,23,23,1,sedulousness,diligence,credulousness,seduction,perilousness,frankness,1,,,,,,,,,,,,,,,,,,,,,,,,,,,,,,,,,,,,,,
,,,,,,,,,,,,,,,90338,001,2022-04-27_14h34.03.721,SPAMnetsValid,2021.1.4,Win32,60.96817461,,,,,,,,,,,,,,,,,,,,,,,,,,,,,,,,,,,,,,,,,,,,,,,,,,,,"fill with fluids, wear as a hat",bucket,0,0,0,0,1,,,,,,,,,,,,,,,,,,,,,,,,,,,,,,,
,,,,,,,,,,,,,,,90338,001,2022-04-27_14h34.03.721,SPAMnetsValid,2021.1.4,Win32,60.96817461,,,,,,,,,,,,,,,,,,,,,,,,,,,,,,,,,,,,,,,,,,,,,,,,,,,,wear as a hat,bucket,1,0,1,0,1,,,,,,,,,,,,,,,,,,,,,,,,,,,,,,,
,,,,,,,,,,,,,,,90338,001,2022-04-27_14h34.03.721,SPAMnetsValid,2021.1.4,Win32,60.96817461,,,,,,,,,,,,,,,,,,,,,,,,,,,,,,,,,,,,,,,,,,,,,,,,,,,,carry heavy objects,bucket,2,0,2,0,1,,,,,,,,,,,,,,,,,,,,,,,,,,,,,,,
,,,,,,,,,,,,,,,90338,001,2022-04-27_14h34.03.721,SPAMnetsValid,2021.1.4,Win32,60.96817461,,,,,,,,,,,,,,,,,,,,,,,,,,,,,,,,,,,,,,,,,,,,,,,,,,,,use as a weapon,bucket,3,0,3,0,1,,,,,,,,,,,,,,,,,,,,,,,,,,,,,,,
,,,,,,,,,,,,,,,90338,001,2022-04-27_14h34.03.721,SPAMnetsValid,2021.1.4,Win32,60.96817461,,,,,,,,,,,,,,,,,,,,,,,,,,,,,,,,,,,,,,,,,,,,,,,,,,,,scoop us things,bucket,4,0,4,0,1,,,,,,,,,,,,,,,,,,,,,,,,,,,,,,,
,,,,,,,,,,,,,,,90338,001,2022-04-27_14h34.03.721,SPAMnetsValid,2021.1.4,Win32,60.96817461,,,,,,,,,,,,,,,,,,,,,,,,,,,,,,,,,,,,,,,,,,,,,,,,,,,,use as a shovel,bucket,5,0,5,0,1,,,,,,,,,,,,,,,,,,,,,,,,,,,,,,,
,,,,,,,,,,,,,,,90338,001,2022-04-27_14h34.03.721,SPAMnetsValid,2021.1.4,Win32,60.96817461,,,,,,,,,,,,,,,,,,,,,,,,,,,,,,,,,,,,,,,,,,,,,,,,,,,,use as a purse,bucket,6,0,6,0,1,,,,,,,,,,,,,,,,,,,,,,,,,,,,,,,
,,,,,,,,,,,,,,,90338,001,2022-04-27_14h34.03.721,SPAMnetsValid,2021.1.4,Win32,60.96817461,,,,,,,,,,,,,,,,,,,,,,,,,,,,,,,,,,,,,,,,,,,,,,,,,,,,use as a wallet,bucket,7,0,7,0,1,,,,,,,,,,,,,,,,,,,,,,,,,,,,,,,
,,,,,,,,,,,,,,,90338,001,2022-04-27_14h34.03.721,SPAMnetsValid,2021.1.4,Win32,60.96817461,,,,,,,,,,,,,,,,,,,,,,,,,,,,,,,,,,,,,,,,,,,,,,,,,,,,use as a shoe,bucket,8,0,8,0,1,,,,,,,,,,,,,,,,,,,,,,,,,,,,,,,
,,,,,,,,,,,,,,,90338,001,2022-04-27_14h34.03.721,SPAMnetsValid,2021.1.4,Win32,60.96817461,,,,,,,,,,,,,,,,,,,,,,,,,,,,,,,,,,,,,,,,,,,,,,,,,,,,use as a pencil holder,bucket,9,0,9,0,1,,,,,,,,,,,,,,,,,,,,,,,,,,,,,,,
,,,,,,,,,,,,,,,90338,001,2022-04-27_14h34.03.721,SPAMnetsValid,2021.1.4,Win32,60.96817461,,,,,,,,,,,,,,,,,,,,,,,,,,,,,,,,,,,,,,,,,,,,,,,,,,,,use as a helmet,bucket,10,0,10,0,1,,,,,,,,,,,,,,,,,,,,,,,,,,,,,,,
,,,,,,,,,,,,,,,90338,001,2022-04-27_14h34.03.721,SPAMnetsValid,2021.1.4,Win32,60.96817461,,,,,,,,,,,,,,,,,,,,,,,,,,,,,,,,,,,,,,,,,,,,,,,,,,,,,,,,,,,0,0,0,0,1,bucket,,,,,,,,,,,,,,,,,,,,,,,,,
,,,,,,,,,,,,,,,90338,001,2022-04-27_14h34.03.721,SPAMnetsValid,2021.1.4,Win32,60.96817461,,,,,,,,,,,,,,,,,,,,,,,,,,,,,,,,,,,,,,,,,,,,,,,,,,,,light,candle,0,0,0,0,1,,,,,,,,,,,,,,,,,,,,,,,,,,,,,,,
,,,,,,,,,,,,,,,90338,001,2022-04-27_14h34.03.721,SPAMnetsValid,2021.1.4,Win32,60.96817461,,,,,,,,,,,,,,,,,,,,,,,,,,,,,,,,,,,,,,,,,,,,,,,,,,,,heat,candle,1,0,1,0,1,,,,,,,,,,,,,,,,,,,,,,,,,,,,,,,
,,,,,,,,,,,,,,,90338,001,2022-04-27_14h34.03.721,SPAMnetsValid,2021.1.4,Win32,60.96817461,,,,,,,,,,,,,,,,,,,,,,,,,,,,,,,,,,,,,,,,,,,,,,,,,,,,wax to seal letters,candle,2,0,2,0,1,,,,,,,,,,,,,,,,,,,,,,,,,,,,,,,
,,,,,,,,,,,,,,,90338,001,2022-04-27_14h34.03.721,SPAMnetsValid,2021.1.4,Win32,60.96817461,,,,,,,,,,,,,,,,,,,,,,,,,,,,,,,,,,,,,,,,,,,,,,,,,,,,burnt wick to write,candle,3,0,3,0,1,,,,,,,,,,,,,,,,,,,,,,,,,,,,,,,
,,,,,,,,,,,,,,,90338,001,2022-04-27_14h34.03.721,SPAMnetsValid,2021.1.4,Win32,60.96817461,,,,,,,,,,,,,,,,,,,,,,,,,,,,,,,,,,,,,,,,,,,,,,,,,,,,use as a weapon,candle,4,0,4,0,1,,,,,,,,,,,,,,,,,,,,,,,,,,,,,,,
,,,,,,,,,,,,,,,90338,001,2022-04-27_14h34.03.721,SPAMnetsValid,2021.1.4,Win32,60.96817461,,,,,,,,,,,,,,,,,,,,,,,,,,,,,,,,,,,,,,,,,,,,,,,,,,,,cook something over the flame,candle,5,0,5,0,1,,,,,,,,,,,,,,,,,,,,,,,,,,,,,,,
,,,,,,,,,,,,,,,90338,001,2022-04-27_14h34.03.721,SPAMnetsValid,2021.1.4,Win32,60.96817461,,,,,,,,,,,,,,,,,,,,,,,,,,,,,,,,,,,,,,,,,,,,,,,,,,,,carve into the wax to make a statue,candle,6,0,6,0,1,,,,,,,,,,,,,,,,,,,,,,,,,,,,,,,
,,,,,,,,,,,,,,,90338,001,2022-04-27_14h34.03.721,SPAMnetsValid,2021.1.4,Win32,60.96817461,,,,,,,,,,,,,,,,,,,,,,,,,,,,,,,,,,,,,,,,,,,,,,,,,,,,signal for help,candle,7,0,7,0,1,,,,,,,,,,,,,,,,,,,,,,,,,,,,,,,
,,,,,,,,,,,,,,,90338,001,2022-04-27_14h34.03.721,SPAMnetsValid,2021.1.4,Win32,60.96817461,,,,,,,,,,,,,,,,,,,,,,,,,,,,,,,,,,,,,,,,,,,,,,,,,,,,use in mourning,candle,8,0,8,0,1,,,,,,,,,,,,,,,,,,,,,,,,,,,,,,,
,,,,,,,,,,,,,,,90338,001,2022-04-27_14h34.03.721,SPAMnetsValid,2021.1.4,Win32,60.96817461,,,,,,,,,,,,,,,,,,,,,,,,,,,,,,,,,,,,,,,,,,,,,,,,,,,,,,,,,,,0,1,1,1,1,candle,,,,,,,,,,,,,,,,,,,,,,,,,
,,,,,,,,,,,,,,,90338,001,2022-04-27_14h34.03.721,SPAMnetsValid,2021.1.4,Win32,60.96817461,,,,,,,,,,,,,,,,,,,,,,,,,,,,,,,,,,,,,,,,,,,,,,,,,,,,sleep,pillow,0,0,0,0,1,,,,,,,,,,,,,,,,,,,,,,,,,,,,,,,
,,,,,,,,,,,,,,,90338,001,2022-04-27_14h34.03.721,SPAMnetsValid,2021.1.4,Win32,60.96817461,,,,,,,,,,,,,,,,,,,,,,,,,,,,,,,,,,,,,,,,,,,,,,,,,,,,prop up something,pillow,1,0,1,0,1,,,,,,,,,,,,,,,,,,,,,,,,,,,,,,,
,,,,,,,,,,,,,,,90338,001,2022-04-27_14h34.03.721,SPAMnetsValid,2021.1.4,Win32,60.96817461,,,,,,,,,,,,,,,,,,,,,,,,,,,,,,,,,,,,,,,,,,,,,,,,,,,,use as a lap desk,pillow,2,0,2,0,1,,,,,,,,,,,,,,,,,,,,,,,,,,,,,,,
,,,,,,,,,,,,,,,90338,001,2022-04-27_14h34.03.721,SPAMnetsValid,2021.1.4,Win32,60.96817461,,,,,,,,,,,,,,,,,,,,,,,,,,,,,,,,,,,,,,,,,,,,,,,,,,,,use the pillow case as a bag,pillow,3,0,3,0,1,,,,,,,,,,,,,,,,,,,,,,,,,,,,,,,
,,,,,,,,,,,,,,,90338,001,2022-04-27_14h34.03.721,SPAMnetsValid,2021.1.4,Win32,60.96817461,,,,,,,,,,,,,,,,,,,,,,,,,,,,,,,,,,,,,,,,,,,,,,,,,,,,hide things in the pillow,pillow,4,0,4,0,1,,,,,,,,,,,,,,,,,,,,,,,,,,,,,,,
,,,,,,,,,,,,,,,90338,001,2022-04-27_14h34.03.721,SPAMnetsValid,2021.1.4,Win32,60.96817461,,,,,,,,,,,,,,,,,,,,,,,,,,,,,,,,,,,,,,,,,,,,,,,,,,,,pillow fights,pillow,5,0,5,0,1,,,,,,,,,,,,,,,,,,,,,,,,,,,,,,,
,,,,,,,,,,,,,,,90338,001,2022-04-27_14h34.03.721,SPAMnetsValid,2021.1.4,Win32,60.96817461,,,,,,,,,,,,,,,,,,,,,,,,,,,,,,,,,,,,,,,,,,,,,,,,,,,,use the stuffing,pillow,6,0,6,0,1,,,,,,,,,,,,,,,,,,,,,,,,,,,,,,,
,,,,,,,,,,,,,,,90338,001,2022-04-27_14h34.03.721,SPAMnetsValid,2021.1.4,Win32,60.96817461,,,,,,,,,,,,,,,,,,,,,,,,,,,,,,,,,,,,,,,,,,,,,,,,,,,,warmth,pillow,7,0,7,0,1,,,,,,,,,,,,,,,,,,,,,,,,,,,,,,,
,,,,,,,,,,,,,,,90338,001,2022-04-27_14h34.03.721,SPAMnetsValid,2021.1.4,Win32,60.96817461,,,,,,,,,,,,,,,,,,,,,,,,,,,,,,,,,,,,,,,,,,,,,,,,,,,,,,,,,,,0,2,2,2,1,pillow,,,,,,,,,,,,,,,,,,,,,,,,,
,,,,,,,,,,,,,,,90338,001,2022-04-27_14h34.03.721,SPAMnetsValid,2021.1.4,Win32,60.96817461,,,,,,,,,,,,,,,,,,,,,,,,,,,,,,,,,,,,,,,,,,,,,,,,,,,,,,,,,,,,,,,,,cat,Animals,0,0,0,0,1,,,,,,,,,,,,,,,,,,
,,,,,,,,,,,,,,,90338,001,2022-04-27_14h34.03.721,SPAMnetsValid,2021.1.4,Win32,60.96817461,,,,,,,,,,,,,,,,,,,,,,,,,,,,,,,,,,,,,,,,,,,,,,,,,,,,,,,,,,,,,,,,,dog,Animals,1,0,1,0,1,,,,,,,,,,,,,,,,,,
,,,,,,,,,,,,,,,90338,001,2022-04-27_14h34.03.721,SPAMnetsValid,2021.1.4,Win32,60.96817461,,,,,,,,,,,,,,,,,,,,,,,,,,,,,,,,,,,,,,,,,,,,,,,,,,,,,,,,,,,,,,,,,mouse,Animals,2,0,2,0,1,,,,,,,,,,,,,,,,,,
,,,,,,,,,,,,,,,90338,001,2022-04-27_14h34.03.721,SPAMnetsValid,2021.1.4,Win32,60.96817461,,,,,,,,,,,,,,,,,,,,,,,,,,,,,,,,,,,,,,,,,,,,,,,,,,,,,,,,,,,,,,,,,horse,Animals,3,0,3,0,1,,,,,,,,,,,,,,,,,,
,,,,,,,,,,,,,,,90338,001,2022-04-27_14h34.03.721,SPAMnetsValid,2021.1.4,Win32,60.96817461,,,,,,,,,,,,,,,,,,,,,,,,,,,,,,,,,,,,,,,,,,,,,,,,,,,,,,,,,,,,,,,,,wolf,Animals,4,0,4,0,1,,,,,,,,,,,,,,,,,,
,,,,,,,,,,,,,,,90338,001,2022-04-27_14h34.03.721,SPAMnetsValid,2021.1.4,Win32,60.96817461,,,,,,,,,,,,,,,,,,,,,,,,,,,,,,,,,,,,,,,,,,,,,,,,,,,,,,,,,,,,,,,,,bird,Animals,5,0,5,0,1,,,,,,,,,,,,,,,,,,
,,,,,,,,,,,,,,,90338,001,2022-04-27_14h34.03.721,SPAMnetsValid,2021.1.4,Win32,60.96817461,,,,,,,,,,,,,,,,,,,,,,,,,,,,,,,,,,,,,,,,,,,,,,,,,,,,,,,,,,,,,,,,,fox,Animals,6,0,6,0,1,,,,,,,,,,,,,,,,,,
,,,,,,,,,,,,,,,90338,001,2022-04-27_14h34.03.721,SPAMnetsValid,2021.1.4,Win32,60.96817461,,,,,,,,,,,,,,,,,,,,,,,,,,,,,,,,,,,,,,,,,,,,,,,,,,,,,,,,,,,,,,,,,coyote,Animals,7,0,7,0,1,,,,,,,,,,,,,,,,,,
,,,,,,,,,,,,,,,90338,001,2022-04-27_14h34.03.721,SPAMnetsValid,2021.1.4,Win32,60.96817461,,,,,,,,,,,,,,,,,,,,,,,,,,,,,,,,,,,,,,,,,,,,,,,,,,,,,,,,,,,,,,,,,eagle,Animals,8,0,8,0,1,,,,,,,,,,,,,,,,,,
,,,,,,,,,,,,,,,90338,001,2022-04-27_14h34.03.721,SPAMnetsValid,2021.1.4,Win32,60.96817461,,,,,,,,,,,,,,,,,,,,,,,,,,,,,,,,,,,,,,,,,,,,,,,,,,,,,,,,,,,,,,,,,hawk,Animals,9,0,9,0,1,,,,,,,,,,,,,,,,,,
,,,,,,,,,,,,,,,90338,001,2022-04-27_14h34.03.721,SPAMnetsValid,2021.1.4,Win32,60.96817461,,,,,,,,,,,,,,,,,,,,,,,,,,,,,,,,,,,,,,,,,,,,,,,,,,,,,,,,,,,,,,,,,cardinal,Animals,10,0,10,0,1,,,,,,,,,,,,,,,,,,
,,,,,,,,,,,,,,,90338,001,2022-04-27_14h34.03.721,SPAMnetsValid,2021.1.4,Win32,60.96817461,,,,,,,,,,,,,,,,,,,,,,,,,,,,,,,,,,,,,,,,,,,,,,,,,,,,,,,,,,,,,,,,,owl,Animals,11,0,11,0,1,,,,,,,,,,,,,,,,,,
,,,,,,,,,,,,,,,90338,001,2022-04-27_14h34.03.721,SPAMnetsValid,2021.1.4,Win32,60.96817461,,,,,,,,,,,,,,,,,,,,,,,,,,,,,,,,,,,,,,,,,,,,,,,,,,,,,,,,,,,,,,,,,snake,Animals,12,0,12,0,1,,,,,,,,,,,,,,,,,,
,,,,,,,,,,,,,,,90338,001,2022-04-27_14h34.03.721,SPAMnetsValid,2021.1.4,Win32,60.96817461,,,,,,,,,,,,,,,,,,,,,,,,,,,,,,,,,,,,,,,,,,,,,,,,,,,,,,,,,,,,,,,,,skunk,Animals,13,0,13,0,1,,,,,,,,,,,,,,,,,,
,,,,,,,,,,,,,,,90338,001,2022-04-27_14h34.03.721,SPAMnetsValid,2021.1.4,Win32,60.96817461,,,,,,,,,,,,,,,,,,,,,,,,,,,,,,,,,,,,,,,,,,,,,,,,,,,,,,,,,,,,,,,,,turtle,Animals,14,0,14,0,1,,,,,,,,,,,,,,,,,,
,,,,,,,,,,,,,,,90338,001,2022-04-27_14h34.03.721,SPAMnetsValid,2021.1.4,Win32,60.96817461,,,,,,,,,,,,,,,,,,,,,,,,,,,,,,,,,,,,,,,,,,,,,,,,,,,,,,,,,,,,,,,,,squirrel,Animals,15,0,15,0,1,,,,,,,,,,,,,,,,,,
,,,,,,,,,,,,,,,90338,001,2022-04-27_14h34.03.721,SPAMnetsValid,2021.1.4,Win32,60.96817461,,,,,,,,,,,,,,,,,,,,,,,,,,,,,,,,,,,,,,,,,,,,,,,,,,,,,,,,,,,,,,,,,frog,Animals,16,0,16,0,1,,,,,,,,,,,,,,,,,,
,,,,,,,,,,,,,,,90338,001,2022-04-27_14h34.03.721,SPAMnetsValid,2021.1.4,Win32,60.96817461,,,,,,,,,,,,,,,,,,,,,,,,,,,,,,,,,,,,,,,,,,,,,,,,,,,,,,,,,,,,,,,,,bug,Animals,17,0,17,0,1,,,,,,,,,,,,,,,,,,
,,,,,,,,,,,,,,,90338,001,2022-04-27_14h34.03.721,SPAMnetsValid,2021.1.4,Win32,60.96817461,,,,,,,,,,,,,,,,,,,,,,,,,,,,,,,,,,,,,,,,,,,,,,,,,,,,,,,,,,,,,,,,,butterly,Animals,18,0,18,0,1,,,,,,,,,,,,,,,,,,
,,,,,,,,,,,,,,,90338,001,2022-04-27_14h34.03.721,SPAMnetsValid,2021.1.4,Win32,60.96817461,,,,,,,,,,,,,,,,,,,,,,,,,,,,,,,,,,,,,,,,,,,,,,,,,,,,,,,,,,,,,,,,,dragonfly,Animals,19,0,19,0,1,,,,,,,,,,,,,,,,,,
,,,,,,,,,,,,,,,90338,001,2022-04-27_14h34.03.721,SPAMnetsValid,2021.1.4,Win32,60.96817461,,,,,,,,,,,,,,,,,,,,,,,,,,,,,,,,,,,,,,,,,,,,,,,,,,,,,,,,,,,,,,,,,minx,Animals,20,0,20,0,1,,,,,,,,,,,,,,,,,,
,,,,,,,,,,,,,,,90338,001,2022-04-27_14h34.03.721,SPAMnetsValid,2021.1.4,Win32,60.96817461,,,,,,,,,,,,,,,,,,,,,,,,,,,,,,,,,,,,,,,,,,,,,,,,,,,,,,,,,,,,,,,,,oppossum,Animals,21,0,21,0,1,,,,,,,,,,,,,,,,,,
,,,,,,,,,,,,,,,90338,001,2022-04-27_14h34.03.721,SPAMnetsValid,2021.1.4,Win32,60.96817461,,,,,,,,,,,,,,,,,,,,,,,,,,,,,,,,,,,,,,,,,,,,,,,,,,,,,,,,,,,,,,,,,raccoon,Animals,22,0,22,0,1,,,,,,,,,,,,,,,,,,
,,,,,,,,,,,,,,,90338,001,2022-04-27_14h34.03.721,SPAMnetsValid,2021.1.4,Win32,60.96817461,,,,,,,,,,,,,,,,,,,,,,,,,,,,,,,,,,,,,,,,,,,,,,,,,,,,,,,,,,,,,,,,,rat,Animals,23,0,23,0,1,,,,,,,,,,,,,,,,,,
,,,,,,,,,,,,,,,90338,001,2022-04-27_14h34.03.721,SPAMnetsValid,2021.1.4,Win32,60.96817461,,,,,,,,,,,,,,,,,,,,,,,,,,,,,,,,,,,,,,,,,,,,,,,,,,,,,,,,,,,,,,,,,goat,Animals,24,0,24,0,1,,,,,,,,,,,,,,,,,,
,,,,,,,,,,,,,,,90338,001,2022-04-27_14h34.03.721,SPAMnetsValid,2021.1.4,Win32,60.96817461,,,,,,,,,,,,,,,,,,,,,,,,,,,,,,,,,,,,,,,,,,,,,,,,,,,,,,,,,,,,,,,,,donkey,Animals,25,0,25,0,1,,,,,,,,,,,,,,,,,,
,,,,,,,,,,,,,,,90338,001,2022-04-27_14h34.03.721,SPAMnetsValid,2021.1.4,Win32,60.96817461,,,,,,,,,,,,,,,,,,,,,,,,,,,,,,,,,,,,,,,,,,,,,,,,,,,,,,,,,,,,,,,,,zebra,Animals,26,0,26,0,1,,,,,,,,,,,,,,,,,,
,,,,,,,,,,,,,,,90338,001,2022-04-27_14h34.03.721,SPAMnetsValid,2021.1.4,Win32,60.96817461,,,,,,,,,,,,,,,,,,,,,,,,,,,,,,,,,,,,,,,,,,,,,,,,,,,,,,,,,,,,,,,,,lion,Animals,27,0,27,0,1,,,,,,,,,,,,,,,,,,
,,,,,,,,,,,,,,,90338,001,2022-04-27_14h34.03.721,SPAMnetsValid,2021.1.4,Win32,60.96817461,,,,,,,,,,,,,,,,,,,,,,,,,,,,,,,,,,,,,,,,,,,,,,,,,,,,,,,,,,,,,,,,,tiger,Animals,28,0,28,0,1,,,,,,,,,,,,,,,,,,
,,,,,,,,,,,,,,,90338,001,2022-04-27_14h34.03.721,SPAMnetsValid,2021.1.4,Win32,60.96817461,,,,,,,,,,,,,,,,,,,,,,,,,,,,,,,,,,,,,,,,,,,,,,,,,,,,,,,,,,,,,,,,,leopard,Animals,29,0,29,0,1,,,,,,,,,,,,,,,,,,
,,,,,,,,,,,,,,,90338,001,2022-04-27_14h34.03.721,SPAMnetsValid,2021.1.4,Win32,60.96817461,,,,,,,,,,,,,,,,,,,,,,,,,,,,,,,,,,,,,,,,,,,,,,,,,,,,,,,,,,,,,,,,,cheetah,Animals,30,0,30,0,1,,,,,,,,,,,,,,,,,,
,,,,,,,,,,,,,,,90338,001,2022-04-27_14h34.03.721,SPAMnetsValid,2021.1.4,Win32,60.96817461,,,,,,,,,,,,,,,,,,,,,,,,,,,,,,,,,,,,,,,,,,,,,,,,,,,,,,,,,,,,,,,,,panther,Animals,31,0,31,0,1,,,,,,,,,,,,,,,,,,
,,,,,,,,,,,,,,,90338,001,2022-04-27_14h34.03.721,SPAMnetsValid,2021.1.4,Win32,60.96817461,,,,,,,,,,,,,,,,,,,,,,,,,,,,,,,,,,,,,,,,,,,,,,,,,,,,,,,,,,,,,,,,,elephant,Animals,32,0,32,0,1,,,,,,,,,,,,,,,,,,
,,,,,,,,,,,,,,,90338,001,2022-04-27_14h34.03.721,SPAMnetsValid,2021.1.4,Win32,60.96817461,,,,,,,,,,,,,,,,,,,,,,,,,,,,,,,,,,,,,,,,,,,,,,,,,,,,,,,,,,,,,,,,,gazelle,Animals,33,0,33,0,1,,,,,,,,,,,,,,,,,,
,,,,,,,,,,,,,,,90338,001,2022-04-27_14h34.03.721,SPAMnetsValid,2021.1.4,Win32,60.96817461,,,,,,,,,,,,,,,,,,,,,,,,,,,,,,,,,,,,,,,,,,,,,,,,,,,,,,,,,,,,,,,,,chimp,Animals,34,0,34,0,1,,,,,,,,,,,,,,,,,,
,,,,,,,,,,,,,,,90338,001,2022-04-27_14h34.03.721,SPAMnetsValid,2021.1.4,Win32,60.96817461,,,,,,,,,,,,,,,,,,,,,,,,,,,,,,,,,,,,,,,,,,,,,,,,,,,,,,,,,,,,,,,,,ape,Animals,35,0,35,0,1,,,,,,,,,,,,,,,,,,
,,,,,,,,,,,,,,,90338,001,2022-04-27_14h34.03.721,SPAMnetsValid,2021.1.4,Win32,60.96817461,,,,,,,,,,,,,,,,,,,,,,,,,,,,,,,,,,,,,,,,,,,,,,,,,,,,,,,,,,,,,,,,,,,,,,,,0,0,0,0,1,Animals,,,,,,,,,,,,
,,,,,,,,,,,,,,,90338,001,2022-04-27_14h34.03.721,SPAMnetsValid,2021.1.4,Win32,60.96817461,,,,,,,,,,,,,,,,,,,,,,,,,,,,,,,,,,,,,,,,,,,,,,,,,,,,,,,,,,,,,,,,,,,,,,,,,,,,,,4,4.357,0,0,0,0,1,"I enjoy concentrating on a fantasy or daydream and exploring all its possibilities, letting it grow and develop.",0,1,,
,,,,,,,,,,,,,,,90338,001,2022-04-27_14h34.03.721,SPAMnetsValid,2021.1.4,Win32,60.96817461,,,,,,,,,,,,,,,,,,,,,,,,,,,,,,,,,,,,,,,,,,,,,,,,,,,,,,,,,,,,,,,,,,,,,,,,,,,,,,4,3.6921,0,1,1,1,1,I think it's interesting to learn and develop new hobbies.,0,2,,
,,,,,,,,,,,,,,,90338,001,2022-04-27_14h34.03.721,SPAMnetsValid,2021.1.4,Win32,60.96817461,,,,,,,,,,,,,,,,,,,,,,,,,,,,,,,,,,,,,,,,,,,,,,,,,,,,,,,,,,,,,,,,,,,,,,,,,,,,,,3,2.4541,0,2,2,2,1,I am intrigued by the patterns I find in art and nature.,0,3,,
,,,,,,,,,,,,,,,90338,001,2022-04-27_14h34.03.721,SPAMnetsValid,2021.1.4,Win32,60.96817461,,,,,,,,,,,,,,,,,,,,,,,,,,,,,,,,,,,,,,,,,,,,,,,,,,,,,,,,,,,,,,,,,,,,,,,,,,,,,,2,4.3429,0,3,3,3,1,I believe letting students hear controversial speakers can only confuse and mislead them.,1,4,,
,,,,,,,,,,,,,,,90338,001,2022-04-27_14h34.03.721,SPAMnetsValid,2021.1.4,Win32,60.96817461,,,,,,,,,,,,,,,,,,,,,,,,,,,,,,,,,,,,,,,,,,,,,,,,,,,,,,,,,,,,,,,,,,,,,,,,,,,,,,2,2.8652,0,4,4,4,1,Poetry has little or no effect on me.,1,5,,
,,,,,,,,,,,,,,,90338,001,2022-04-27_14h34.03.721,SPAMnetsValid,2021.1.4,Win32,60.96817461,,,,,,,,,,,,,,,,,,,,,,,,,,,,,,,,,,,,,,,,,,,,,,,,,,,,,,,,,,,,,,,,,,,,,,,,,,,,,,2,2.0524,0,5,5,5,1,I would have difficulty just letting my mind wander without control or guidance.,1,6,,
,,,,,,,,,,,,,,,90338,001,2022-04-27_14h34.03.721,SPAMnetsValid,2021.1.4,Win32,60.96817461,,,,,,,,,,,,,,,,,,,,,,,,,,,,,,,,,,,,,,,,,,,,,,,,,,,,,,,,,,,,,,,,,,,,,,,,,,,,,,4,2.6801,0,6,6,6,1,I seldom notice the moods or feelings that different environments produce.,1,7,,
,,,,,,,,,,,,,,,90338,001,2022-04-27_14h34.03.721,SPAMnetsValid,2021.1.4,Win32,60.96817461,,,,,,,,,,,,,,,,,,,,,,,,,,,,,,,,,,,,,,,,,,,,,,,,,,,,,,,,,,,,,,,,,,,,,,,,,,,,,,4,1.2549,0,7,7,7,1,I experience a wide range of emotions or feelings.,0,8,,
,,,,,,,,,,,,,,,90338,001,2022-04-27_14h34.03.721,SPAMnetsValid,2021.1.4,Win32,60.96817461,,,,,,,,,,,,,,,,,,,,,,,,,,,,,,,,,,,,,,,,,,,,,,,,,,,,,,,,,,,,,,,,,,,,,,,,,,,,,,4,1.9329,0,8,8,8,1,"Sometimes when I am reading poetry or looking at a work of art, I feel a chill or wave of excitement.",0,9,,
,,,,,,,,,,,,,,,90338,001,2022-04-27_14h34.03.721,SPAMnetsValid,2021.1.4,Win32,60.96817461,,,,,,,,,,,,,,,,,,,,,,,,,,,,,,,,,,,,,,,,,,,,,,,,,,,,,,,,,,,,,,,,,,,,,,,,,,,,,,2,2.4565,0,9,9,9,1,I have little interest in speculating on the nature of the universe or the human condition.,1,10,,
,,,,,,,,,,,,,,,90338,001,2022-04-27_14h34.03.721,SPAMnetsValid,2021.1.4,Win32,60.96817461,,,,,,,,,,,,,,,,,,,,,,,,,,,,,,,,,,,,,,,,,,,,,,,,,,,,,,,,,,,,,,,,,,,,,,,,,,,,,,4,1.6375,0,10,10,10,1,I have a lot of intellectual curiosity.,0,11,,
,,,,,,,,,,,,,,,90338,001,2022-04-27_14h34.03.721,SPAMnetsValid,2021.1.4,Win32,60.96817461,,,,,,,,,,,,,,,,,,,,,,,,,,,,,,,,,,,,,,,,,,,,,,,,,,,,,,,,,,,,,,,,,,,,,,,,,,,,,,4,1.565,0,11,11,11,1,I often enjoy playing with theories or abstract ideas.,0,12,,
,,,,,,,,,,,,,,,90338,001,2022-04-27_14h34.03.721,SPAMnetsValid,2021.1.4,Win32,60.96817461,,,,,,,,,,,,,,,,,,,,,,,,,,,,,,,,,,,,,,,,,,,,,,,,,,,,,,,,,,,,,,,,,,,,,,,,,,,,,,,,,,,,,,,,return,6.5505
