key_resp_3.keys,key_resp_3.rt,slider.response,slider.rt,rjt_rating,rjt_RT,trials_22.thisRepN,trials_22.thisTrialN,trials_22.thisN,trials_22.thisIndex,trials_22.ran,rjt_order,word1,word2,attention,participant,session,date,expName,psychopyVersion,OS,frameRate,trials_99.thisRepN,trials_99.thisTrialN,trials_99.thisN,trials_99.thisIndex,trials_99.ran,trials_5.thisRepN,trials_5.thisTrialN,trials_5.thisN,trials_5.thisIndex,trials_5.ran,repOne,repTwo,slider_2.response,slider_2.rt,trials_24.thisRepN,trials_24.thisTrialN,trials_24.thisN,trials_24.thisIndex,trials_24.ran,trials_4.thisRepN,trials_4.thisTrialN,trials_4.thisN,trials_4.thisIndex,trials_4.ran,slider_extend_2.response,slider_extend_2.rt,trials_6.thisRepN,trials_6.thisTrialN,trials_6.thisN,trials_6.thisIndex,trials_6.ran,vCue2,R1,R2,R3,R4,correct,sliderVocab.response,sliderVocab.rt,trials_7.thisRepN,trials_7.thisTrialN,trials_7.thisN,trials_7.thisIndex,trials_7.ran,VocabCue,VR1,VR2,VR3,VR4,VR5,VocabCorrect,AUT_resp,AUT_label,trials.thisRepN,trials.thisTrialN,trials.thisN,trials.thisIndex,trials.ran,trials_2.thisRepN,trials_2.thisTrialN,trials_2.thisN,trials_2.thisIndex,trials_2.ran,aut_prompt,VF_response,VF_tag,trials_16.thisRepN,trials_16.thisTrialN,trials_16.thisN,trials_16.thisIndex,trials_16.ran,trials_17.thisRepN,trials_17.thisTrialN,trials_17.thisN,trials_17.thisIndex,trials_17.ran,VFcond,open_slider.response,open_slider.rt,trials_3.thisRepN,trials_3.thisTrialN,trials_3.thisN,trials_3.thisIndex,trials_3.ran,OpenQ,Rev,OPEN_ORDER,key_resp_2.keys,key_resp_2.rt
return,18.9917,1,5.7459,1,5.7459,0,0,0,1,1,31,cactus,pretzel,,90346,001,2022-04-26_18h31.23.653,SPAMnetsValid,2021.1.4,Win32,60.04924038,,,,,,,,,,,,,,,,,,,,,,,,,,,,,,,,,,,,,,,,,,,,,,,,,,,,,,,,,,,,,,,,,,,,,,,,,,,,,,,,,,,,,,,,,
,,6,6.1686,6,6.1686,0,1,1,41,1,19,microwave,pretzel,,90346,001,2022-04-26_18h31.23.653,SPAMnetsValid,2021.1.4,Win32,60.04924038,,,,,,,,,,,,,,,,,,,,,,,,,,,,,,,,,,,,,,,,,,,,,,,,,,,,,,,,,,,,,,,,,,,,,,,,,,,,,,,,,,,,,,,,,
,,4,4.8682,4,4.8682,0,2,2,29,1,42,garden,kitchen,,90346,001,2022-04-26_18h31.23.653,SPAMnetsValid,2021.1.4,Win32,60.04924038,,,,,,,,,,,,,,,,,,,,,,,,,,,,,,,,,,,,,,,,,,,,,,,,,,,,,,,,,,,,,,,,,,,,,,,,,,,,,,,,,,,,,,,,,
,,1,2.6729,1,2.6729,0,3,3,5,1,13,broom,yogurt,,90346,001,2022-04-26_18h31.23.653,SPAMnetsValid,2021.1.4,Win32,60.04924038,,,,,,,,,,,,,,,,,,,,,,,,,,,,,,,,,,,,,,,,,,,,,,,,,,,,,,,,,,,,,,,,,,,,,,,,,,,,,,,,,,,,,,,,,
,,2,4.4489,2,4.4489,0,4,4,31,1,33,oven,yogurt,,90346,001,2022-04-26_18h31.23.653,SPAMnetsValid,2021.1.4,Win32,60.04924038,,,,,,,,,,,,,,,,,,,,,,,,,,,,,,,,,,,,,,,,,,,,,,,,,,,,,,,,,,,,,,,,,,,,,,,,,,,,,,,,,,,,,,,,,
,,5,7.7507,5,7.7507,0,5,5,48,1,66,melon,yogurt,,90346,001,2022-04-26_18h31.23.653,SPAMnetsValid,2021.1.4,Win32,60.04924038,,,,,,,,,,,,,,,,,,,,,,,,,,,,,,,,,,,,,,,,,,,,,,,,,,,,,,,,,,,,,,,,,,,,,,,,,,,,,,,,,,,,,,,,,
,,1,2.3882,1,2.3882,0,6,6,84,1,91,microwave,rose,,90346,001,2022-04-26_18h31.23.653,SPAMnetsValid,2021.1.4,Win32,60.04924038,,,,,,,,,,,,,,,,,,,,,,,,,,,,,,,,,,,,,,,,,,,,,,,,,,,,,,,,,,,,,,,,,,,,,,,,,,,,,,,,,,,,,,,,,
,,1,5.5965,1,5.5965,0,7,7,90,1,95,broom,refrigerator,,90346,001,2022-04-26_18h31.23.653,SPAMnetsValid,2021.1.4,Win32,60.04924038,,,,,,,,,,,,,,,,,,,,,,,,,,,,,,,,,,,,,,,,,,,,,,,,,,,,,,,,,,,,,,,,,,,,,,,,,,,,,,,,,,,,,,,,,
,,1,3.1139,1,3.1139,0,8,8,15,1,48,flower,oven,,90346,001,2022-04-26_18h31.23.653,SPAMnetsValid,2021.1.4,Win32,60.04924038,,,,,,,,,,,,,,,,,,,,,,,,,,,,,,,,,,,,,,,,,,,,,,,,,,,,,,,,,,,,,,,,,,,,,,,,,,,,,,,,,,,,,,,,,
,,4,3.6089,4,3.6089,0,9,9,54,1,28,cake,melon,,90346,001,2022-04-26_18h31.23.653,SPAMnetsValid,2021.1.4,Win32,60.04924038,,,,,,,,,,,,,,,,,,,,,,,,,,,,,,,,,,,,,,,,,,,,,,,,,,,,,,,,,,,,,,,,,,,,,,,,,,,,,,,,,,,,,,,,,
,,7,2.9897,7,2.9897,0,10,10,75,1,69,carrot,refrigerator,,90346,001,2022-04-26_18h31.23.653,SPAMnetsValid,2021.1.4,Win32,60.04924038,,,,,,,,,,,,,,,,,,,,,,,,,,,,,,,,,,,,,,,,,,,,,,,,,,,,,,,,,,,,,,,,,,,,,,,,,,,,,,,,,,,,,,,,,
,,6,6.1636,6,6.1636,0,11,11,71,1,38,pretzel,refrigerator,,90346,001,2022-04-26_18h31.23.653,SPAMnetsValid,2021.1.4,Win32,60.04924038,,,,,,,,,,,,,,,,,,,,,,,,,,,,,,,,,,,,,,,,,,,,,,,,,,,,,,,,,,,,,,,,,,,,,,,,,,,,,,,,,,,,,,,,,
,,5,4.775,5,4.775,0,12,12,68,1,24,cookie,tomato,,90346,001,2022-04-26_18h31.23.653,SPAMnetsValid,2021.1.4,Win32,60.04924038,,,,,,,,,,,,,,,,,,,,,,,,,,,,,,,,,,,,,,,,,,,,,,,,,,,,,,,,,,,,,,,,,,,,,,,,,,,,,,,,,,,,,,,,,
,,3,3.5903,3,3.5903,0,13,13,66,1,20,rose,tree,,90346,001,2022-04-26_18h31.23.653,SPAMnetsValid,2021.1.4,Win32,60.04924038,,,,,,,,,,,,,,,,,,,,,,,,,,,,,,,,,,,,,,,,,,,,,,,,,,,,,,,,,,,,,,,,,,,,,,,,,,,,,,,,,,,,,,,,,
,,3,5.0509,3,5.0509,0,14,14,33,1,32,cake,microwave,,90346,001,2022-04-26_18h31.23.653,SPAMnetsValid,2021.1.4,Win32,60.04924038,,,,,,,,,,,,,,,,,,,,,,,,,,,,,,,,,,,,,,,,,,,,,,,,,,,,,,,,,,,,,,,,,,,,,,,,,,,,,,,,,,,,,,,,,
,,8,2.6082,8,2.6082,0,15,15,19,1,76,garden,rose,,90346,001,2022-04-26_18h31.23.653,SPAMnetsValid,2021.1.4,Win32,60.04924038,,,,,,,,,,,,,,,,,,,,,,,,,,,,,,,,,,,,,,,,,,,,,,,,,,,,,,,,,,,,,,,,,,,,,,,,,,,,,,,,,,,,,,,,,
,,1,2.857,1,2.857,0,16,16,79,1,86,oven,rose,,90346,001,2022-04-26_18h31.23.653,SPAMnetsValid,2021.1.4,Win32,60.04924038,,,,,,,,,,,,,,,,,,,,,,,,,,,,,,,,,,,,,,,,,,,,,,,,,,,,,,,,,,,,,,,,,,,,,,,,,,,,,,,,,,,,,,,,,
,,4,5.3316,4,5.3316,0,17,17,34,1,29,chocolate,melon,,90346,001,2022-04-26_18h31.23.653,SPAMnetsValid,2021.1.4,Win32,60.04924038,,,,,,,,,,,,,,,,,,,,,,,,,,,,,,,,,,,,,,,,,,,,,,,,,,,,,,,,,,,,,,,,,,,,,,,,,,,,,,,,,,,,,,,,,
,,4,7.1307,4,7.1307,0,18,18,39,1,15,onion,oven,,90346,001,2022-04-26_18h31.23.653,SPAMnetsValid,2021.1.4,Win32,60.04924038,,,,,,,,,,,,,,,,,,,,,,,,,,,,,,,,,,,,,,,,,,,,,,,,,,,,,,,,,,,,,,,,,,,,,,,,,,,,,,,,,,,,,,,,,
,,1,1.9251,1,1.9251,0,19,19,17,1,27,cactus,cookie,,90346,001,2022-04-26_18h31.23.653,SPAMnetsValid,2021.1.4,Win32,60.04924038,,,,,,,,,,,,,,,,,,,,,,,,,,,,,,,,,,,,,,,,,,,,,,,,,,,,,,,,,,,,,,,,,,,,,,,,,,,,,,,,,,,,,,,,,
,,2,4.562,2,4.562,0,20,20,22,1,16,chocolate,flower,,90346,001,2022-04-26_18h31.23.653,SPAMnetsValid,2021.1.4,Win32,60.04924038,,,,,,,,,,,,,,,,,,,,,,,,,,,,,,,,,,,,,,,,,,,,,,,,,,,,,,,,,,,,,,,,,,,,,,,,,,,,,,,,,,,,,,,,,
,,7,3.9917,7,3.9917,0,21,21,30,1,3,cake,oven,,90346,001,2022-04-26_18h31.23.653,SPAMnetsValid,2021.1.4,Win32,60.04924038,,,,,,,,,,,,,,,,,,,,,,,,,,,,,,,,,,,,,,,,,,,,,,,,,,,,,,,,,,,,,,,,,,,,,,,,,,,,,,,,,,,,,,,,,
,,1,2.4713,1,2.4713,0,22,22,55,1,1,rose,yogurt,,90346,001,2022-04-26_18h31.23.653,SPAMnetsValid,2021.1.4,Win32,60.04924038,,,,,,,,,,,,,,,,,,,,,,,,,,,,,,,,,,,,,,,,,,,,,,,,,,,,,,,,,,,,,,,,,,,,,,,,,,,,,,,,,,,,,,,,,
,,1,3.5939,1,3.5939,0,23,23,23,1,65,broom,garden,,90346,001,2022-04-26_18h31.23.653,SPAMnetsValid,2021.1.4,Win32,60.04924038,,,,,,,,,,,,,,,,,,,,,,,,,,,,,,,,,,,,,,,,,,,,,,,,,,,,,,,,,,,,,,,,,,,,,,,,,,,,,,,,,,,,,,,,,
,,1,2.6731,1,2.6731,0,24,24,43,1,11,refrigerator,tree,,90346,001,2022-04-26_18h31.23.653,SPAMnetsValid,2021.1.4,Win32,60.04924038,,,,,,,,,,,,,,,,,,,,,,,,,,,,,,,,,,,,,,,,,,,,,,,,,,,,,,,,,,,,,,,,,,,,,,,,,,,,,,,,,,,,,,,,,
,,3,3.5564,3,3.5564,0,25,25,6,1,87,carrot,yogurt,,90346,001,2022-04-26_18h31.23.653,SPAMnetsValid,2021.1.4,Win32,60.04924038,,,,,,,,,,,,,,,,,,,,,,,,,,,,,,,,,,,,,,,,,,,,,,,,,,,,,,,,,,,,,,,,,,,,,,,,,,,,,,,,,,,,,,,,,
,,3,2.3557,3,2.3557,0,26,26,24,1,17,carrot,melon,,90346,001,2022-04-26_18h31.23.653,SPAMnetsValid,2021.1.4,Win32,60.04924038,,,,,,,,,,,,,,,,,,,,,,,,,,,,,,,,,,,,,,,,,,,,,,,,,,,,,,,,,,,,,,,,,,,,,,,,,,,,,,,,,,,,,,,,,
,,6,2.7209,6,2.7209,0,27,27,69,1,45,onion,pretzel,,90346,001,2022-04-26_18h31.23.653,SPAMnetsValid,2021.1.4,Win32,60.04924038,,,,,,,,,,,,,,,,,,,,,,,,,,,,,,,,,,,,,,,,,,,,,,,,,,,,,,,,,,,,,,,,,,,,,,,,,,,,,,,,,,,,,,,,,
,,1,4.6711,1,4.6711,0,28,28,88,1,92,broom,flower,,90346,001,2022-04-26_18h31.23.653,SPAMnetsValid,2021.1.4,Win32,60.04924038,,,,,,,,,,,,,,,,,,,,,,,,,,,,,,,,,,,,,,,,,,,,,,,,,,,,,,,,,,,,,,,,,,,,,,,,,,,,,,,,,,,,,,,,,
,,6,3.4705,6,3.4705,0,29,29,95,1,52,carrot,tomato,,90346,001,2022-04-26_18h31.23.653,SPAMnetsValid,2021.1.4,Win32,60.04924038,,,,,,,,,,,,,,,,,,,,,,,,,,,,,,,,,,,,,,,,,,,,,,,,,,,,,,,,,,,,,,,,,,,,,,,,,,,,,,,,,,,,,,,,,
,,2,3.7991,2,3.7991,0,30,30,38,1,88,cactus,melon,,90346,001,2022-04-26_18h31.23.653,SPAMnetsValid,2021.1.4,Win32,60.04924038,,,,,,,,,,,,,,,,,,,,,,,,,,,,,,,,,,,,,,,,,,,,,,,,,,,,,,,,,,,,,,,,,,,,,,,,,,,,,,,,,,,,,,,,,
,,6,2.5286,6,2.5286,0,31,31,93,1,63,cake,cookie,,90346,001,2022-04-26_18h31.23.653,SPAMnetsValid,2021.1.4,Win32,60.04924038,,,,,,,,,,,,,,,,,,,,,,,,,,,,,,,,,,,,,,,,,,,,,,,,,,,,,,,,,,,,,,,,,,,,,,,,,,,,,,,,,,,,,,,,,
,,1,3.3398,1,3.3398,0,32,32,61,1,71,broom,rose,,90346,001,2022-04-26_18h31.23.653,SPAMnetsValid,2021.1.4,Win32,60.04924038,,,,,,,,,,,,,,,,,,,,,,,,,,,,,,,,,,,,,,,,,,,,,,,,,,,,,,,,,,,,,,,,,,,,,,,,,,,,,,,,,,,,,,,,,
,,6,4.2095,6,4.2095,0,33,33,62,1,18,onion,refrigerator,,90346,001,2022-04-26_18h31.23.653,SPAMnetsValid,2021.1.4,Win32,60.04924038,,,,,,,,,,,,,,,,,,,,,,,,,,,,,,,,,,,,,,,,,,,,,,,,,,,,,,,,,,,,,,,,,,,,,,,,,,,,,,,,,,,,,,,,,
,,5,4.1312,5,4.1312,0,34,34,20,1,39,melon,pretzel,,90346,001,2022-04-26_18h31.23.653,SPAMnetsValid,2021.1.4,Win32,60.04924038,,,,,,,,,,,,,,,,,,,,,,,,,,,,,,,,,,,,,,,,,,,,,,,,,,,,,,,,,,,,,,,,,,,,,,,,,,,,,,,,,,,,,,,,,
,,1,1.8222,1,1.8222,0,35,35,45,1,10,flower,onion,,90346,001,2022-04-26_18h31.23.653,SPAMnetsValid,2021.1.4,Win32,60.04924038,,,,,,,,,,,,,,,,,,,,,,,,,,,,,,,,,,,,,,,,,,,,,,,,,,,,,,,,,,,,,,,,,,,,,,,,,,,,,,,,,,,,,,,,,
,,5,5.7958,5,5.7958,0,36,36,2,1,22,kitchen,strawberry,,90346,001,2022-04-26_18h31.23.653,SPAMnetsValid,2021.1.4,Win32,60.04924038,,,,,,,,,,,,,,,,,,,,,,,,,,,,,,,,,,,,,,,,,,,,,,,,,,,,,,,,,,,,,,,,,,,,,,,,,,,,,,,,,,,,,,,,,
,,4,6.208,4,6.208,0,37,37,8,1,43,chocolate,tomato,,90346,001,2022-04-26_18h31.23.653,SPAMnetsValid,2021.1.4,Win32,60.04924038,,,,,,,,,,,,,,,,,,,,,,,,,,,,,,,,,,,,,,,,,,,,,,,,,,,,,,,,,,,,,,,,,,,,,,,,,,,,,,,,,,,,,,,,,
,,1,1.8582,1,1.8582,0,38,38,65,1,46,garden,yogurt,,90346,001,2022-04-26_18h31.23.653,SPAMnetsValid,2021.1.4,Win32,60.04924038,,,,,,,,,,,,,,,,,,,,,,,,,,,,,,,,,,,,,,,,,,,,,,,,,,,,,,,,,,,,,,,,,,,,,,,,,,,,,,,,,,,,,,,,,
,,3,3.6579,3,3.6579,0,39,39,35,1,55,tomato,tree,,90346,001,2022-04-26_18h31.23.653,SPAMnetsValid,2021.1.4,Win32,60.04924038,,,,,,,,,,,,,,,,,,,,,,,,,,,,,,,,,,,,,,,,,,,,,,,,,,,,,,,,,,,,,,,,,,,,,,,,,,,,,,,,,,,,,,,,,
,,1,3.4791,1,3.4791,0,40,40,47,1,73,broom,chocolate,,90346,001,2022-04-26_18h31.23.653,SPAMnetsValid,2021.1.4,Win32,60.04924038,,,,,,,,,,,,,,,,,,,,,,,,,,,,,,,,,,,,,,,,,,,,,,,,,,,,,,,,,,,,,,,,,,,,,,,,,,,,,,,,,,,,,,,,,
,,5,3.6745,5,3.6745,0,41,41,28,1,84,oven,tomato,,90346,001,2022-04-26_18h31.23.653,SPAMnetsValid,2021.1.4,Win32,60.04924038,,,,,,,,,,,,,,,,,,,,,,,,,,,,,,,,,,,,,,,,,,,,,,,,,,,,,,,,,,,,,,,,,,,,,,,,,,,,,,,,,,,,,,,,,
,,8,3.1049,8,3.1049,0,42,42,64,1,9,kitchen,refrigerator,,90346,001,2022-04-26_18h31.23.653,SPAMnetsValid,2021.1.4,Win32,60.04924038,,,,,,,,,,,,,,,,,,,,,,,,,,,,,,,,,,,,,,,,,,,,,,,,,,,,,,,,,,,,,,,,,,,,,,,,,,,,,,,,,,,,,,,,,
,,1,4.3672,1,4.3672,0,43,43,18,1,85,cake,tree,,90346,001,2022-04-26_18h31.23.653,SPAMnetsValid,2021.1.4,Win32,60.04924038,,,,,,,,,,,,,,,,,,,,,,,,,,,,,,,,,,,,,,,,,,,,,,,,,,,,,,,,,,,,,,,,,,,,,,,,,,,,,,,,,,,,,,,,,
,,2,3.3076,2,3.3076,0,44,44,37,1,58,garden,oven,,90346,001,2022-04-26_18h31.23.653,SPAMnetsValid,2021.1.4,Win32,60.04924038,,,,,,,,,,,,,,,,,,,,,,,,,,,,,,,,,,,,,,,,,,,,,,,,,,,,,,,,,,,,,,,,,,,,,,,,,,,,,,,,,,,,,,,,,
,,6,2.3055,6,2.3055,0,45,45,91,1,2,kitchen,onion,,90346,001,2022-04-26_18h31.23.653,SPAMnetsValid,2021.1.4,Win32,60.04924038,,,,,,,,,,,,,,,,,,,,,,,,,,,,,,,,,,,,,,,,,,,,,,,,,,,,,,,,,,,,,,,,,,,,,,,,,,,,,,,,,,,,,,,,,
,,8,2.3636,8,2.3636,0,46,46,58,1,94,kitchen,microwave,,90346,001,2022-04-26_18h31.23.653,SPAMnetsValid,2021.1.4,Win32,60.04924038,,,,,,,,,,,,,,,,,,,,,,,,,,,,,,,,,,,,,,,,,,,,,,,,,,,,,,,,,,,,,,,,,,,,,,,,,,,,,,,,,,,,,,,,,
,,3,6.0645,3,6.0645,0,47,47,74,1,70,chocolate,onion,,90346,001,2022-04-26_18h31.23.653,SPAMnetsValid,2021.1.4,Win32,60.04924038,,,,,,,,,,,,,,,,,,,,,,,,,,,,,,,,,,,,,,,,,,,,,,,,,,,,,,,,,,,,,,,,,,,,,,,,,,,,,,,,,,,,,,,,,
,,1,1.4849,1,1.4849,0,48,48,12,1,67,flower,yogurt,,90346,001,2022-04-26_18h31.23.653,SPAMnetsValid,2021.1.4,Win32,60.04924038,,,,,,,,,,,,,,,,,,,,,,,,,,,,,,,,,,,,,,,,,,,,,,,,,,,,,,,,,,,,,,,,,,,,,,,,,,,,,,,,,,,,,,,,,
,,2,3.3994,2,3.3994,0,49,49,63,1,21,cake,onion,,90346,001,2022-04-26_18h31.23.653,SPAMnetsValid,2021.1.4,Win32,60.04924038,,,,,,,,,,,,,,,,,,,,,,,,,,,,,,,,,,,,,,,,,,,,,,,,,,,,,,,,,,,,,,,,,,,,,,,,,,,,,,,,,,,,,,,,,
,,5,5.2157,5,5.2157,0,50,50,76,1,36,broom,kitchen,,90346,001,2022-04-26_18h31.23.653,SPAMnetsValid,2021.1.4,Win32,60.04924038,,,,,,,,,,,,,,,,,,,,,,,,,,,,,,,,,,,,,,,,,,,,,,,,,,,,,,,,,,,,,,,,,,,,,,,,,,,,,,,,,,,,,,,,,
,,5,3.3502,5,3.3502,0,51,51,78,1,30,cookie,pretzel,,90346,001,2022-04-26_18h31.23.653,SPAMnetsValid,2021.1.4,Win32,60.04924038,,,,,,,,,,,,,,,,,,,,,,,,,,,,,,,,,,,,,,,,,,,,,,,,,,,,,,,,,,,,,,,,,,,,,,,,,,,,,,,,,,,,,,,,,
,,6,11.1607,6,11.1607,0,52,52,94,1,68,flower,tomato,,90346,001,2022-04-26_18h31.23.653,SPAMnetsValid,2021.1.4,Win32,60.04924038,,,,,,,,,,,,,,,,,,,,,,,,,,,,,,,,,,,,,,,,,,,,,,,,,,,,,,,,,,,,,,,,,,,,,,,,,,,,,,,,,,,,,,,,,
,,2,3.3312,2,3.3312,0,53,53,13,1,26,tomato,yogurt,,90346,001,2022-04-26_18h31.23.653,SPAMnetsValid,2021.1.4,Win32,60.04924038,,,,,,,,,,,,,,,,,,,,,,,,,,,,,,,,,,,,,,,,,,,,,,,,,,,,,,,,,,,,,,,,,,,,,,,,,,,,,,,,,,,,,,,,,
,,1,3.566,1,3.566,0,54,54,85,1,90,cactus,cake,,90346,001,2022-04-26_18h31.23.653,SPAMnetsValid,2021.1.4,Win32,60.04924038,,,,,,,,,,,,,,,,,,,,,,,,,,,,,,,,,,,,,,,,,,,,,,,,,,,,,,,,,,,,,,,,,,,,,,,,,,,,,,,,,,,,,,,,,
,,5,6.7642,5,6.7642,0,55,55,7,1,34,melon,oven,,90346,001,2022-04-26_18h31.23.653,SPAMnetsValid,2021.1.4,Win32,60.04924038,,,,,,,,,,,,,,,,,,,,,,,,,,,,,,,,,,,,,,,,,,,,,,,,,,,,,,,,,,,,,,,,,,,,,,,,,,,,,,,,,,,,,,,,,
,,3,3.312,3,3.312,0,56,56,11,1,37,garden,refrigerator,,90346,001,2022-04-26_18h31.23.653,SPAMnetsValid,2021.1.4,Win32,60.04924038,,,,,,,,,,,,,,,,,,,,,,,,,,,,,,,,,,,,,,,,,,,,,,,,,,,,,,,,,,,,,,,,,,,,,,,,,,,,,,,,,,,,,,,,,
,,1,1.998,1,1.998,0,57,57,32,1,40,broom,cake,,90346,001,2022-04-26_18h31.23.653,SPAMnetsValid,2021.1.4,Win32,60.04924038,,,,,,,,,,,,,,,,,,,,,,,,,,,,,,,,,,,,,,,,,,,,,,,,,,,,,,,,,,,,,,,,,,,,,,,,,,,,,,,,,,,,,,,,,
,,4,6.1399,4,6.1399,0,58,58,72,1,59,rose,strawberry,,90346,001,2022-04-26_18h31.23.653,SPAMnetsValid,2021.1.4,Win32,60.04924038,,,,,,,,,,,,,,,,,,,,,,,,,,,,,,,,,,,,,,,,,,,,,,,,,,,,,,,,,,,,,,,,,,,,,,,,,,,,,,,,,,,,,,,,,
,,2,3.0994,2,3.0994,0,59,59,57,1,62,kitchen,rose,,90346,001,2022-04-26_18h31.23.653,SPAMnetsValid,2021.1.4,Win32,60.04924038,,,,,,,,,,,,,,,,,,,,,,,,,,,,,,,,,,,,,,,,,,,,,,,,,,,,,,,,,,,,,,,,,,,,,,,,,,,,,,,,,,,,,,,,,
,,1,2.8639,1,2.8639,0,60,60,70,1,5,oven,tree,,90346,001,2022-04-26_18h31.23.653,SPAMnetsValid,2021.1.4,Win32,60.04924038,,,,,,,,,,,,,,,,,,,,,,,,,,,,,,,,,,,,,,,,,,,,,,,,,,,,,,,,,,,,,,,,,,,,,,,,,,,,,,,,,,,,,,,,,
,,8,2.1419,8,2.1419,0,61,61,82,1,93,kitchen,oven,,90346,001,2022-04-26_18h31.23.653,SPAMnetsValid,2021.1.4,Win32,60.04924038,,,,,,,,,,,,,,,,,,,,,,,,,,,,,,,,,,,,,,,,,,,,,,,,,,,,,,,,,,,,,,,,,,,,,,,,,,,,,,,,,,,,,,,,,
,,9,1.8234,9,1.8234,0,62,62,53,1,192,microwave,microwave,CHECK,90346,001,2022-04-26_18h31.23.653,SPAMnetsValid,2021.1.4,Win32,60.04924038,,,,,,,,,,,,,,,,,,,,,,,,,,,,,,,,,,,,,,,,,,,,,,,,,,,,,,,,,,,,,,,,,,,,,,,,,,,,,,,,,,,,,,,,,
,,4,3.8793,4,3.8793,0,63,63,77,1,7,melon,tree,,90346,001,2022-04-26_18h31.23.653,SPAMnetsValid,2021.1.4,Win32,60.04924038,,,,,,,,,,,,,,,,,,,,,,,,,,,,,,,,,,,,,,,,,,,,,,,,,,,,,,,,,,,,,,,,,,,,,,,,,,,,,,,,,,,,,,,,,
,,6,4.8315,6,4.8315,0,64,64,44,1,25,carrot,onion,,90346,001,2022-04-26_18h31.23.653,SPAMnetsValid,2021.1.4,Win32,60.04924038,,,,,,,,,,,,,,,,,,,,,,,,,,,,,,,,,,,,,,,,,,,,,,,,,,,,,,,,,,,,,,,,,,,,,,,,,,,,,,,,,,,,,,,,,
,,2,2.9922,2,2.9922,0,65,65,14,1,64,chocolate,garden,,90346,001,2022-04-26_18h31.23.653,SPAMnetsValid,2021.1.4,Win32,60.04924038,,,,,,,,,,,,,,,,,,,,,,,,,,,,,,,,,,,,,,,,,,,,,,,,,,,,,,,,,,,,,,,,,,,,,,,,,,,,,,,,,,,,,,,,,
,,2,4.1705,2,4.1705,0,66,66,60,1,89,chocolate,rose,,90346,001,2022-04-26_18h31.23.653,SPAMnetsValid,2021.1.4,Win32,60.04924038,,,,,,,,,,,,,,,,,,,,,,,,,,,,,,,,,,,,,,,,,,,,,,,,,,,,,,,,,,,,,,,,,,,,,,,,,,,,,,,,,,,,,,,,,
,,5,3.6648,5,3.6648,0,67,67,80,1,61,strawberry,tomato,,90346,001,2022-04-26_18h31.23.653,SPAMnetsValid,2021.1.4,Win32,60.04924038,,,,,,,,,,,,,,,,,,,,,,,,,,,,,,,,,,,,,,,,,,,,,,,,,,,,,,,,,,,,,,,,,,,,,,,,,,,,,,,,,,,,,,,,,
,,9,1.3089,9,1.3089,0,68,68,10,1,191,cake,cake,CHECK,90346,001,2022-04-26_18h31.23.653,SPAMnetsValid,2021.1.4,Win32,60.04924038,,,,,,,,,,,,,,,,,,,,,,,,,,,,,,,,,,,,,,,,,,,,,,,,,,,,,,,,,,,,,,,,,,,,,,,,,,,,,,,,,,,,,,,,,
,,6,4.1519,6,4.1519,0,69,69,86,1,51,onion,strawberry,,90346,001,2022-04-26_18h31.23.653,SPAMnetsValid,2021.1.4,Win32,60.04924038,,,,,,,,,,,,,,,,,,,,,,,,,,,,,,,,,,,,,,,,,,,,,,,,,,,,,,,,,,,,,,,,,,,,,,,,,,,,,,,,,,,,,,,,,
,,1,2.0535,1,2.0535,0,70,70,25,1,23,flower,microwave,,90346,001,2022-04-26_18h31.23.653,SPAMnetsValid,2021.1.4,Win32,60.04924038,,,,,,,,,,,,,,,,,,,,,,,,,,,,,,,,,,,,,,,,,,,,,,,,,,,,,,,,,,,,,,,,,,,,,,,,,,,,,,,,,,,,,,,,,
,,3,2.9913,3,2.9913,0,71,71,21,1,56,cactus,tree,,90346,001,2022-04-26_18h31.23.653,SPAMnetsValid,2021.1.4,Win32,60.04924038,,,,,,,,,,,,,,,,,,,,,,,,,,,,,,,,,,,,,,,,,,,,,,,,,,,,,,,,,,,,,,,,,,,,,,,,,,,,,,,,,,,,,,,,,
,,1,2.727,1,2.727,0,72,72,89,1,80,chocolate,tree,,90346,001,2022-04-26_18h31.23.653,SPAMnetsValid,2021.1.4,Win32,60.04924038,,,,,,,,,,,,,,,,,,,,,,,,,,,,,,,,,,,,,,,,,,,,,,,,,,,,,,,,,,,,,,,,,,,,,,,,,,,,,,,,,,,,,,,,,
,,6,2.8271,6,2.8271,0,73,73,83,1,6,garden,onion,,90346,001,2022-04-26_18h31.23.653,SPAMnetsValid,2021.1.4,Win32,60.04924038,,,,,,,,,,,,,,,,,,,,,,,,,,,,,,,,,,,,,,,,,,,,,,,,,,,,,,,,,,,,,,,,,,,,,,,,,,,,,,,,,,,,,,,,,
,,6,7.4698,6,7.4698,0,74,74,3,1,49,flower,strawberry,,90346,001,2022-04-26_18h31.23.653,SPAMnetsValid,2021.1.4,Win32,60.04924038,,,,,,,,,,,,,,,,,,,,,,,,,,,,,,,,,,,,,,,,,,,,,,,,,,,,,,,,,,,,,,,,,,,,,,,,,,,,,,,,,,,,,,,,,
,,2,3.058,2,3.058,0,75,75,50,1,81,pretzel,yogurt,,90346,001,2022-04-26_18h31.23.653,SPAMnetsValid,2021.1.4,Win32,60.04924038,,,,,,,,,,,,,,,,,,,,,,,,,,,,,,,,,,,,,,,,,,,,,,,,,,,,,,,,,,,,,,,,,,,,,,,,,,,,,,,,,,,,,,,,,
,,1,2.3245,1,2.3245,0,76,76,56,1,78,cookie,rose,,90346,001,2022-04-26_18h31.23.653,SPAMnetsValid,2021.1.4,Win32,60.04924038,,,,,,,,,,,,,,,,,,,,,,,,,,,,,,,,,,,,,,,,,,,,,,,,,,,,,,,,,,,,,,,,,,,,,,,,,,,,,,,,,,,,,,,,,
,,2,4.1567,2,4.1567,0,77,77,73,1,50,carrot,rose,,90346,001,2022-04-26_18h31.23.653,SPAMnetsValid,2021.1.4,Win32,60.04924038,,,,,,,,,,,,,,,,,,,,,,,,,,,,,,,,,,,,,,,,,,,,,,,,,,,,,,,,,,,,,,,,,,,,,,,,,,,,,,,,,,,,,,,,,
,,6,2.462,6,2.462,0,78,78,51,1,47,onion,tomato,,90346,001,2022-04-26_18h31.23.653,SPAMnetsValid,2021.1.4,Win32,60.04924038,,,,,,,,,,,,,,,,,,,,,,,,,,,,,,,,,,,,,,,,,,,,,,,,,,,,,,,,,,,,,,,,,,,,,,,,,,,,,,,,,,,,,,,,,
,,1,2.2303,1,2.2303,0,79,79,46,1,41,broom,cactus,,90346,001,2022-04-26_18h31.23.653,SPAMnetsValid,2021.1.4,Win32,60.04924038,,,,,,,,,,,,,,,,,,,,,,,,,,,,,,,,,,,,,,,,,,,,,,,,,,,,,,,,,,,,,,,,,,,,,,,,,,,,,,,,,,,,,,,,,
,,1,3.8969,1,3.8969,0,80,80,26,1,35,flower,pretzel,,90346,001,2022-04-26_18h31.23.653,SPAMnetsValid,2021.1.4,Win32,60.04924038,,,,,,,,,,,,,,,,,,,,,,,,,,,,,,,,,,,,,,,,,,,,,,,,,,,,,,,,,,,,,,,,,,,,,,,,,,,,,,,,,,,,,,,,,
,,5,3.3716,5,3.3716,0,81,81,87,1,79,garden,strawberry,,90346,001,2022-04-26_18h31.23.653,SPAMnetsValid,2021.1.4,Win32,60.04924038,,,,,,,,,,,,,,,,,,,,,,,,,,,,,,,,,,,,,,,,,,,,,,,,,,,,,,,,,,,,,,,,,,,,,,,,,,,,,,,,,,,,,,,,,
,,7,4.8562,7,4.8562,0,82,82,96,1,82,cake,kitchen,,90346,001,2022-04-26_18h31.23.653,SPAMnetsValid,2021.1.4,Win32,60.04924038,,,,,,,,,,,,,,,,,,,,,,,,,,,,,,,,,,,,,,,,,,,,,,,,,,,,,,,,,,,,,,,,,,,,,,,,,,,,,,,,,,,,,,,,,
,,1,4.7754,1,4.7754,0,83,83,81,1,60,cactus,onion,,90346,001,2022-04-26_18h31.23.653,SPAMnetsValid,2021.1.4,Win32,60.04924038,,,,,,,,,,,,,,,,,,,,,,,,,,,,,,,,,,,,,,,,,,,,,,,,,,,,,,,,,,,,,,,,,,,,,,,,,,,,,,,,,,,,,,,,,
,,2,6.0567,2,6.0567,0,84,84,9,1,75,cookie,onion,,90346,001,2022-04-26_18h31.23.653,SPAMnetsValid,2021.1.4,Win32,60.04924038,,,,,,,,,,,,,,,,,,,,,,,,,,,,,,,,,,,,,,,,,,,,,,,,,,,,,,,,,,,,,,,,,,,,,,,,,,,,,,,,,,,,,,,,,
,,1,2.5499,1,2.5499,0,85,85,40,1,74,broom,pretzel,,90346,001,2022-04-26_18h31.23.653,SPAMnetsValid,2021.1.4,Win32,60.04924038,,,,,,,,,,,,,,,,,,,,,,,,,,,,,,,,,,,,,,,,,,,,,,,,,,,,,,,,,,,,,,,,,,,,,,,,,,,,,,,,,,,,,,,,,
,,7,2.7142,7,2.7142,0,86,86,42,1,77,refrigerator,yogurt,,90346,001,2022-04-26_18h31.23.653,SPAMnetsValid,2021.1.4,Win32,60.04924038,,,,,,,,,,,,,,,,,,,,,,,,,,,,,,,,,,,,,,,,,,,,,,,,,,,,,,,,,,,,,,,,,,,,,,,,,,,,,,,,,,,,,,,,,
,,3,3.4094,3,3.4094,0,87,87,49,1,57,flower,kitchen,,90346,001,2022-04-26_18h31.23.653,SPAMnetsValid,2021.1.4,Win32,60.04924038,,,,,,,,,,,,,,,,,,,,,,,,,,,,,,,,,,,,,,,,,,,,,,,,,,,,,,,,,,,,,,,,,,,,,,,,,,,,,,,,,,,,,,,,,
,,1,2.0294,1,2.0294,0,88,88,59,1,8,broom,melon,,90346,001,2022-04-26_18h31.23.653,SPAMnetsValid,2021.1.4,Win32,60.04924038,,,,,,,,,,,,,,,,,,,,,,,,,,,,,,,,,,,,,,,,,,,,,,,,,,,,,,,,,,,,,,,,,,,,,,,,,,,,,,,,,,,,,,,,,
,,5,5.8408,5,5.8408,0,89,89,67,1,54,chocolate,yogurt,,90346,001,2022-04-26_18h31.23.653,SPAMnetsValid,2021.1.4,Win32,60.04924038,,,,,,,,,,,,,,,,,,,,,,,,,,,,,,,,,,,,,,,,,,,,,,,,,,,,,,,,,,,,,,,,,,,,,,,,,,,,,,,,,,,,,,,,,
,,1,2.3904,1,2.3904,0,90,90,16,1,14,broom,cookie,,90346,001,2022-04-26_18h31.23.653,SPAMnetsValid,2021.1.4,Win32,60.04924038,,,,,,,,,,,,,,,,,,,,,,,,,,,,,,,,,,,,,,,,,,,,,,,,,,,,,,,,,,,,,,,,,,,,,,,,,,,,,,,,,,,,,,,,,
,,7,3.8647,7,3.8647,0,91,91,52,1,4,chocolate,pretzel,,90346,001,2022-04-26_18h31.23.653,SPAMnetsValid,2021.1.4,Win32,60.04924038,,,,,,,,,,,,,,,,,,,,,,,,,,,,,,,,,,,,,,,,,,,,,,,,,,,,,,,,,,,,,,,,,,,,,,,,,,,,,,,,,,,,,,,,,
,,1,5.1882,1,5.1882,0,92,92,0,1,53,garden,pretzel,,90346,001,2022-04-26_18h31.23.653,SPAMnetsValid,2021.1.4,Win32,60.04924038,,,,,,,,,,,,,,,,,,,,,,,,,,,,,,,,,,,,,,,,,,,,,,,,,,,,,,,,,,,,,,,,,,,,,,,,,,,,,,,,,,,,,,,,,
,,1,1.6214,1,1.6214,0,93,93,27,1,72,broom,onion,,90346,001,2022-04-26_18h31.23.653,SPAMnetsValid,2021.1.4,Win32,60.04924038,,,,,,,,,,,,,,,,,,,,,,,,,,,,,,,,,,,,,,,,,,,,,,,,,,,,,,,,,,,,,,,,,,,,,,,,,,,,,,,,,,,,,,,,,
,,3,4.7709,3,4.7709,0,94,94,92,1,44,cookie,melon,,90346,001,2022-04-26_18h31.23.653,SPAMnetsValid,2021.1.4,Win32,60.04924038,,,,,,,,,,,,,,,,,,,,,,,,,,,,,,,,,,,,,,,,,,,,,,,,,,,,,,,,,,,,,,,,,,,,,,,,,,,,,,,,,,,,,,,,,
,,3,1.4729,3,1.4729,0,95,95,36,1,12,cookie,yogurt,,90346,001,2022-04-26_18h31.23.653,SPAMnetsValid,2021.1.4,Win32,60.04924038,,,,,,,,,,,,,,,,,,,,,,,,,,,,,,,,,,,,,,,,,,,,,,,,,,,,,,,,,,,,,,,,,,,,,,,,,,,,,,,,,,,,,,,,,
,,1,6.8774,1,6.8774,0,96,96,4,1,83,broom,carrot,,90346,001,2022-04-26_18h31.23.653,SPAMnetsValid,2021.1.4,Win32,60.04924038,,,,,,,,,,,,,,,,,,,,,,,,,,,,,,,,,,,,,,,,,,,,,,,,,,,,,,,,,,,,,,,,,,,,,,,,,,,,,,,,,,,,,,,,,
,,,,,,,,,,,,,,,90346,001,2022-04-26_18h31.23.653,SPAMnetsValid,2021.1.4,Win32,60.04924038,0,0,0,0,1,,,,,,,,,,,,,,,,,,,,,,,,,,,,,,,,,,,,,,,,,,,,,,,,,,,,,,,,,,,,,,,,,,,,,,,,,,,,,,,,,,,,
,,,,,,,,,,,,,,,90346,001,2022-04-26_18h31.23.653,SPAMnetsValid,2021.1.4,Win32,60.04924038,,,,,,0,0,0,0,1,1,0,,,,,,,,,,,,,,,,,,,,,,,,,,,,,,,,,,,,,,,,,,,,,,,,,,,,,,,,,,,,,,,,,,,,,,,,,,,,,
,,,,6,2.208,,,,,,154,strawberry,yogurt,,90346,001,2022-04-26_18h31.23.653,SPAMnetsValid,2021.1.4,Win32,60.04924038,,,,,,,,,,,,,6,2.208,0,0,0,28,1,,,,,,,,,,,,,,,,,,,,,,,,,,,,,,,,,,,,,,,,,,,,,,,,,,,,,,,,,,,,,,,,,,,,,,
,,,,3,4.0941,,,,,,128,melon,microwave,,90346,001,2022-04-26_18h31.23.653,SPAMnetsValid,2021.1.4,Win32,60.04924038,,,,,,,,,,,,,3,4.0941,0,1,1,74,1,,,,,,,,,,,,,,,,,,,,,,,,,,,,,,,,,,,,,,,,,,,,,,,,,,,,,,,,,,,,,,,,,,,,,,
,,,,1,2.2454,,,,,,105,cactus,oven,,90346,001,2022-04-26_18h31.23.653,SPAMnetsValid,2021.1.4,Win32,60.04924038,,,,,,,,,,,,,1,2.2454,0,2,2,13,1,,,,,,,,,,,,,,,,,,,,,,,,,,,,,,,,,,,,,,,,,,,,,,,,,,,,,,,,,,,,,,,,,,,,,,
,,,,3,3.2112,,,,,,103,pretzel,tomato,,90346,001,2022-04-26_18h31.23.653,SPAMnetsValid,2021.1.4,Win32,60.04924038,,,,,,,,,,,,,3,3.2112,0,3,3,79,1,,,,,,,,,,,,,,,,,,,,,,,,,,,,,,,,,,,,,,,,,,,,,,,,,,,,,,,,,,,,,,,,,,,,,,
,,,,6,3.9254,,,,,,131,cactus,garden,,90346,001,2022-04-26_18h31.23.653,SPAMnetsValid,2021.1.4,Win32,60.04924038,,,,,,,,,,,,,6,3.9254,0,4,4,33,1,,,,,,,,,,,,,,,,,,,,,,,,,,,,,,,,,,,,,,,,,,,,,,,,,,,,,,,,,,,,,,,,,,,,,,
,,,,5,3.6292,,,,,,148,flower,melon,,90346,001,2022-04-26_18h31.23.653,SPAMnetsValid,2021.1.4,Win32,60.04924038,,,,,,,,,,,,,5,3.6292,0,5,5,23,1,,,,,,,,,,,,,,,,,,,,,,,,,,,,,,,,,,,,,,,,,,,,,,,,,,,,,,,,,,,,,,,,,,,,,,
,,,,7,1.8637,,,,,,186,kitchen,yogurt,,90346,001,2022-04-26_18h31.23.653,SPAMnetsValid,2021.1.4,Win32,60.04924038,,,,,,,,,,,,,7,1.8637,0,6,6,48,1,,,,,,,,,,,,,,,,,,,,,,,,,,,,,,,,,,,,,,,,,,,,,,,,,,,,,,,,,,,,,,,,,,,,,,
,,,,2,4.4925,,,,,,144,cake,garden,,90346,001,2022-04-26_18h31.23.653,SPAMnetsValid,2021.1.4,Win32,60.04924038,,,,,,,,,,,,,2,4.4925,0,7,7,58,1,,,,,,,,,,,,,,,,,,,,,,,,,,,,,,,,,,,,,,,,,,,,,,,,,,,,,,,,,,,,,,,,,,,,,,
,,,,8,3.1045,,,,,,117,melon,strawberry,,90346,001,2022-04-26_18h31.23.653,SPAMnetsValid,2021.1.4,Win32,60.04924038,,,,,,,,,,,,,8,3.1045,0,8,8,11,1,,,,,,,,,,,,,,,,,,,,,,,,,,,,,,,,,,,,,,,,,,,,,,,,,,,,,,,,,,,,,,,,,,,,,,
,,,,8,2.5254,,,,,,110,chocolate,cookie,,90346,001,2022-04-26_18h31.23.653,SPAMnetsValid,2021.1.4,Win32,60.04924038,,,,,,,,,,,,,8,2.5254,0,9,9,52,1,,,,,,,,,,,,,,,,,,,,,,,,,,,,,,,,,,,,,,,,,,,,,,,,,,,,,,,,,,,,,,,,,,,,,,
,,,,3,3.657,,,,,,176,cactus,tomato,,90346,001,2022-04-26_18h31.23.653,SPAMnetsValid,2021.1.4,Win32,60.04924038,,,,,,,,,,,,,3,3.657,0,10,10,9,1,,,,,,,,,,,,,,,,,,,,,,,,,,,,,,,,,,,,,,,,,,,,,,,,,,,,,,,,,,,,,,,,,,,,,,
,,,,3,5.9339,,,,,,112,cake,carrot,,90346,001,2022-04-26_18h31.23.653,SPAMnetsValid,2021.1.4,Win32,60.04924038,,,,,,,,,,,,,3,5.9339,0,11,11,39,1,,,,,,,,,,,,,,,,,,,,,,,,,,,,,,,,,,,,,,,,,,,,,,,,,,,,,,,,,,,,,,,,,,,,,,
,,,,4,4.4051,,,,,,166,cake,yogurt,,90346,001,2022-04-26_18h31.23.653,SPAMnetsValid,2021.1.4,Win32,60.04924038,,,,,,,,,,,,,4,4.4051,0,12,12,91,1,,,,,,,,,,,,,,,,,,,,,,,,,,,,,,,,,,,,,,,,,,,,,,,,,,,,,,,,,,,,,,,,,,,,,,
,,,,7,3.9608,,,,,,142,garden,tree,,90346,001,2022-04-26_18h31.23.653,SPAMnetsValid,2021.1.4,Win32,60.04924038,,,,,,,,,,,,,7,3.9608,0,13,13,22,1,,,,,,,,,,,,,,,,,,,,,,,,,,,,,,,,,,,,,,,,,,,,,,,,,,,,,,,,,,,,,,,,,,,,,,
,,,,1,2.2381,,,,,,137,microwave,tree,,90346,001,2022-04-26_18h31.23.653,SPAMnetsValid,2021.1.4,Win32,60.04924038,,,,,,,,,,,,,1,2.2381,0,14,14,63,1,,,,,,,,,,,,,,,,,,,,,,,,,,,,,,,,,,,,,,,,,,,,,,,,,,,,,,,,,,,,,,,,,,,,,,
,,,,2,2.5167,,,,,,101,cactus,kitchen,,90346,001,2022-04-26_18h31.23.653,SPAMnetsValid,2021.1.4,Win32,60.04924038,,,,,,,,,,,,,2,2.5167,0,15,15,54,1,,,,,,,,,,,,,,,,,,,,,,,,,,,,,,,,,,,,,,,,,,,,,,,,,,,,,,,,,,,,,,,,,,,,,,
,,,,6,2.1381,,,,,,161,kitchen,pretzel,,90346,001,2022-04-26_18h31.23.653,SPAMnetsValid,2021.1.4,Win32,60.04924038,,,,,,,,,,,,,6,2.1381,0,16,16,36,1,,,,,,,,,,,,,,,,,,,,,,,,,,,,,,,,,,,,,,,,,,,,,,,,,,,,,,,,,,,,,,,,,,,,,,
,,,,7,1.6907,,,,,,106,cake,strawberry,,90346,001,2022-04-26_18h31.23.653,SPAMnetsValid,2021.1.4,Win32,60.04924038,,,,,,,,,,,,,7,1.6907,0,17,17,0,1,,,,,,,,,,,,,,,,,,,,,,,,,,,,,,,,,,,,,,,,,,,,,,,,,,,,,,,,,,,,,,,,,,,,,,
,,,,1,4.7259,,,,,,183,cake,rose,,90346,001,2022-04-26_18h31.23.653,SPAMnetsValid,2021.1.4,Win32,60.04924038,,,,,,,,,,,,,1,4.7259,0,18,18,19,1,,,,,,,,,,,,,,,,,,,,,,,,,,,,,,,,,,,,,,,,,,,,,,,,,,,,,,,,,,,,,,,,,,,,,,
,,,,3,4.0047,,,,,,169,onion,yogurt,,90346,001,2022-04-26_18h31.23.653,SPAMnetsValid,2021.1.4,Win32,60.04924038,,,,,,,,,,,,,3,4.0047,0,19,19,24,1,,,,,,,,,,,,,,,,,,,,,,,,,,,,,,,,,,,,,,,,,,,,,,,,,,,,,,,,,,,,,,,,,,,,,,
,,,,1,2.6531,,,,,,143,pretzel,rose,,90346,001,2022-04-26_18h31.23.653,SPAMnetsValid,2021.1.4,Win32,60.04924038,,,,,,,,,,,,,1,2.6531,0,20,20,55,1,,,,,,,,,,,,,,,,,,,,,,,,,,,,,,,,,,,,,,,,,,,,,,,,,,,,,,,,,,,,,,,,,,,,,,
,,,,7,2.4588,,,,,,163,melon,refrigerator,,90346,001,2022-04-26_18h31.23.653,SPAMnetsValid,2021.1.4,Win32,60.04924038,,,,,,,,,,,,,7,2.4588,0,21,21,29,1,,,,,,,,,,,,,,,,,,,,,,,,,,,,,,,,,,,,,,,,,,,,,,,,,,,,,,,,,,,,,,,,,,,,,,
,,,,8,2.1124,,,,,,150,microwave,refrigerator,,90346,001,2022-04-26_18h31.23.653,SPAMnetsValid,2021.1.4,Win32,60.04924038,,,,,,,,,,,,,8,2.1124,0,22,22,66,1,,,,,,,,,,,,,,,,,,,,,,,,,,,,,,,,,,,,,,,,,,,,,,,,,,,,,,,,,,,,,,,,,,,,,,
,,,,4,3.9313,,,,,,135,carrot,oven,,90346,001,2022-04-26_18h31.23.653,SPAMnetsValid,2021.1.4,Win32,60.04924038,,,,,,,,,,,,,4,3.9313,0,23,23,73,1,,,,,,,,,,,,,,,,,,,,,,,,,,,,,,,,,,,,,,,,,,,,,,,,,,,,,,,,,,,,,,,,,,,,,,
,,,,8,3.267,,,,,,122,flower,garden,,90346,001,2022-04-26_18h31.23.653,SPAMnetsValid,2021.1.4,Win32,60.04924038,,,,,,,,,,,,,8,3.267,0,24,24,60,1,,,,,,,,,,,,,,,,,,,,,,,,,,,,,,,,,,,,,,,,,,,,,,,,,,,,,,,,,,,,,,,,,,,,,,
,,,,8,1.6316,,,,,,124,oven,refrigerator,,90346,001,2022-04-26_18h31.23.653,SPAMnetsValid,2021.1.4,Win32,60.04924038,,,,,,,,,,,,,8,1.6316,0,25,25,69,1,,,,,,,,,,,,,,,,,,,,,,,,,,,,,,,,,,,,,,,,,,,,,,,,,,,,,,,,,,,,,,,,,,,,,,
,,,,1,2.1773,,,,,,149,broom,tomato,,90346,001,2022-04-26_18h31.23.653,SPAMnetsValid,2021.1.4,Win32,60.04924038,,,,,,,,,,,,,1,2.1773,0,26,26,20,1,,,,,,,,,,,,,,,,,,,,,,,,,,,,,,,,,,,,,,,,,,,,,,,,,,,,,,,,,,,,,,,,,,,,,,
,,,,6,4.3735,,,,,,173,kitchen,tomato,,90346,001,2022-04-26_18h31.23.653,SPAMnetsValid,2021.1.4,Win32,60.04924038,,,,,,,,,,,,,6,4.3735,0,27,27,1,1,,,,,,,,,,,,,,,,,,,,,,,,,,,,,,,,,,,,,,,,,,,,,,,,,,,,,,,,,,,,,,,,,,,,,,
,,,,7,2.1149,,,,,,139,carrot,strawberry,,90346,001,2022-04-26_18h31.23.653,SPAMnetsValid,2021.1.4,Win32,60.04924038,,,,,,,,,,,,,7,2.1149,0,28,28,37,1,,,,,,,,,,,,,,,,,,,,,,,,,,,,,,,,,,,,,,,,,,,,,,,,,,,,,,,,,,,,,,,,,,,,,,
,,,,1,3.0482,,,,,,182,flower,refrigerator,,90346,001,2022-04-26_18h31.23.653,SPAMnetsValid,2021.1.4,Win32,60.04924038,,,,,,,,,,,,,1,3.0482,0,29,29,32,1,,,,,,,,,,,,,,,,,,,,,,,,,,,,,,,,,,,,,,,,,,,,,,,,,,,,,,,,,,,,,,,,,,,,,,
,,,,8,1.7457,,,,,,120,microwave,oven,,90346,001,2022-04-26_18h31.23.653,SPAMnetsValid,2021.1.4,Win32,60.04924038,,,,,,,,,,,,,8,1.7457,0,30,30,14,1,,,,,,,,,,,,,,,,,,,,,,,,,,,,,,,,,,,,,,,,,,,,,,,,,,,,,,,,,,,,,,,,,,,,,,
,,,,8,4.7635,,,,,,167,carrot,garden,,90346,001,2022-04-26_18h31.23.653,SPAMnetsValid,2021.1.4,Win32,60.04924038,,,,,,,,,,,,,8,4.7635,0,31,31,47,1,,,,,,,,,,,,,,,,,,,,,,,,,,,,,,,,,,,,,,,,,,,,,,,,,,,,,,,,,,,,,,,,,,,,,,
,,,,5,3.6928,,,,,,108,carrot,chocolate,,90346,001,2022-04-26_18h31.23.653,SPAMnetsValid,2021.1.4,Win32,60.04924038,,,,,,,,,,,,,5,3.6928,0,32,32,5,1,,,,,,,,,,,,,,,,,,,,,,,,,,,,,,,,,,,,,,,,,,,,,,,,,,,,,,,,,,,,,,,,,,,,,,
,,,,1,1.9917,,,,,,187,cactus,microwave,,90346,001,2022-04-26_18h31.23.653,SPAMnetsValid,2021.1.4,Win32,60.04924038,,,,,,,,,,,,,1,1.9917,0,33,33,71,1,,,,,,,,,,,,,,,,,,,,,,,,,,,,,,,,,,,,,,,,,,,,,,,,,,,,,,,,,,,,,,,,,,,,,,
,,,,1,3.5931,,,,,,132,broom,tree,,90346,001,2022-04-26_18h31.23.653,SPAMnetsValid,2021.1.4,Win32,60.04924038,,,,,,,,,,,,,1,3.5931,0,34,34,78,1,,,,,,,,,,,,,,,,,,,,,,,,,,,,,,,,,,,,,,,,,,,,,,,,,,,,,,,,,,,,,,,,,,,,,,
,,,,3,2.2622,,,,,,190,microwave,strawberry,,90346,001,2022-04-26_18h31.23.653,SPAMnetsValid,2021.1.4,Win32,60.04924038,,,,,,,,,,,,,3,2.2622,0,35,35,90,1,,,,,,,,,,,,,,,,,,,,,,,,,,,,,,,,,,,,,,,,,,,,,,,,,,,,,,,,,,,,,,,,,,,,,,
,,,,1,2.4452,,,,,,129,cactus,refrigerator,,90346,001,2022-04-26_18h31.23.653,SPAMnetsValid,2021.1.4,Win32,60.04924038,,,,,,,,,,,,,1,2.4452,0,36,36,3,1,,,,,,,,,,,,,,,,,,,,,,,,,,,,,,,,,,,,,,,,,,,,,,,,,,,,,,,,,,,,,,,,,,,,,,
,,,,2,6.8211,,,,,,162,microwave,tomato,,90346,001,2022-04-26_18h31.23.653,SPAMnetsValid,2021.1.4,Win32,60.04924038,,,,,,,,,,,,,2,6.8211,0,37,37,12,1,,,,,,,,,,,,,,,,,,,,,,,,,,,,,,,,,,,,,,,,,,,,,,,,,,,,,,,,,,,,,,,,,,,,,,
,,,,4,2.943,,,,,,155,carrot,cookie,,90346,001,2022-04-26_18h31.23.653,SPAMnetsValid,2021.1.4,Win32,60.04924038,,,,,,,,,,,,,4,2.943,0,38,38,38,1,,,,,,,,,,,,,,,,,,,,,,,,,,,,,,,,,,,,,,,,,,,,,,,,,,,,,,,,,,,,,,,,,,,,,,
,,,,1,2.3251,,,,,,127,cactus,chocolate,,90346,001,2022-04-26_18h31.23.653,SPAMnetsValid,2021.1.4,Win32,60.04924038,,,,,,,,,,,,,1,2.3251,0,39,39,57,1,,,,,,,,,,,,,,,,,,,,,,,,,,,,,,,,,,,,,,,,,,,,,,,,,,,,,,,,,,,,,,,,,,,,,,
,,,,6,3.5414,,,,,,141,melon,tomato,,90346,001,2022-04-26_18h31.23.653,SPAMnetsValid,2021.1.4,Win32,60.04924038,,,,,,,,,,,,,6,3.5414,0,40,40,70,1,,,,,,,,,,,,,,,,,,,,,,,,,,,,,,,,,,,,,,,,,,,,,,,,,,,,,,,,,,,,,,,,,,,,,,
,,,,6,3.2922,,,,,,136,chocolate,microwave,,90346,001,2022-04-26_18h31.23.653,SPAMnetsValid,2021.1.4,Win32,60.04924038,,,,,,,,,,,,,6,3.2922,0,41,41,96,1,,,,,,,,,,,,,,,,,,,,,,,,,,,,,,,,,,,,,,,,,,,,,,,,,,,,,,,,,,,,,,,,,,,,,,
,,,,1,5.0659,,,,,,123,cookie,tree,,90346,001,2022-04-26_18h31.23.653,SPAMnetsValid,2021.1.4,Win32,60.04924038,,,,,,,,,,,,,1,5.0659,0,42,42,46,1,,,,,,,,,,,,,,,,,,,,,,,,,,,,,,,,,,,,,,,,,,,,,,,,,,,,,,,,,,,,,,,,,,,,,,
,,,,6,2.481,,,,,,111,carrot,microwave,,90346,001,2022-04-26_18h31.23.653,SPAMnetsValid,2021.1.4,Win32,60.04924038,,,,,,,,,,,,,6,2.481,0,43,43,16,1,,,,,,,,,,,,,,,,,,,,,,,,,,,,,,,,,,,,,,,,,,,,,,,,,,,,,,,,,,,,,,,,,,,,,,
,,,,1,2.4571,,,,,,134,carrot,flower,,90346,001,2022-04-26_18h31.23.653,SPAMnetsValid,2021.1.4,Win32,60.04924038,,,,,,,,,,,,,1,2.4571,0,44,44,93,1,,,,,,,,,,,,,,,,,,,,,,,,,,,,,,,,,,,,,,,,,,,,,,,,,,,,,,,,,,,,,,,,,,,,,,
,,,,6,3.5581,,,,,,97,chocolate,kitchen,,90346,001,2022-04-26_18h31.23.653,SPAMnetsValid,2021.1.4,Win32,60.04924038,,,,,,,,,,,,,6,3.5581,0,45,45,8,1,,,,,,,,,,,,,,,,,,,,,,,,,,,,,,,,,,,,,,,,,,,,,,,,,,,,,,,,,,,,,,,,,,,,,,
,,,,7,3.7081,,,,,,185,cactus,rose,,90346,001,2022-04-26_18h31.23.653,SPAMnetsValid,2021.1.4,Win32,60.04924038,,,,,,,,,,,,,7,3.7081,0,46,46,43,1,,,,,,,,,,,,,,,,,,,,,,,,,,,,,,,,,,,,,,,,,,,,,,,,,,,,,,,,,,,,,,,,,,,,,,
,,,,8,2.8315,,,,,,116,cake,chocolate,,90346,001,2022-04-26_18h31.23.653,SPAMnetsValid,2021.1.4,Win32,60.04924038,,,,,,,,,,,,,8,2.8315,0,47,47,44,1,,,,,,,,,,,,,,,,,,,,,,,,,,,,,,,,,,,,,,,,,,,,,,,,,,,,,,,,,,,,,,,,,,,,,,
,,,,8,2.2747,,,,,,113,refrigerator,strawberry,,90346,001,2022-04-26_18h31.23.653,SPAMnetsValid,2021.1.4,Win32,60.04924038,,,,,,,,,,,,,8,2.2747,0,48,48,56,1,,,,,,,,,,,,,,,,,,,,,,,,,,,,,,,,,,,,,,,,,,,,,,,,,,,,,,,,,,,,,,,,,,,,,,
,,,,4,2.8116,,,,,,178,cactus,carrot,,90346,001,2022-04-26_18h31.23.653,SPAMnetsValid,2021.1.4,Win32,60.04924038,,,,,,,,,,,,,4,2.8116,0,49,49,75,1,,,,,,,,,,,,,,,,,,,,,,,,,,,,,,,,,,,,,,,,,,,,,,,,,,,,,,,,,,,,,,,,,,,,,,
,,,,4,4.995,,,,,,114,cookie,strawberry,,90346,001,2022-04-26_18h31.23.653,SPAMnetsValid,2021.1.4,Win32,60.04924038,,,,,,,,,,,,,4,4.995,0,50,50,87,1,,,,,,,,,,,,,,,,,,,,,,,,,,,,,,,,,,,,,,,,,,,,,,,,,,,,,,,,,,,,,,,,,,,,,,
,,,,4,4.1831,,,,,,184,oven,pretzel,,90346,001,2022-04-26_18h31.23.653,SPAMnetsValid,2021.1.4,Win32,60.04924038,,,,,,,,,,,,,4,4.1831,0,51,51,42,1,,,,,,,,,,,,,,,,,,,,,,,,,,,,,,,,,,,,,,,,,,,,,,,,,,,,,,,,,,,,,,,,,,,,,,
,,,,9,3.4752,,,,,,194,cactus,cactus,CHECK,90346,001,2022-04-26_18h31.23.653,SPAMnetsValid,2021.1.4,Win32,60.04924038,,,,,,,,,,,,,9,3.4752,0,52,52,25,1,,,,,,,,,,,,,,,,,,,,,,,,,,,,,,,,,,,,,,,,,,,,,,,,,,,,,,,,,,,,,,,,,,,,,,
,,,,1,2.5129,,,,,,146,pretzel,tree,,90346,001,2022-04-26_18h31.23.653,SPAMnetsValid,2021.1.4,Win32,60.04924038,,,,,,,,,,,,,1,2.5129,0,53,53,80,1,,,,,,,,,,,,,,,,,,,,,,,,,,,,,,,,,,,,,,,,,,,,,,,,,,,,,,,,,,,,,,,,,,,,,,
,,,,1,1.4393,,,,,,109,broom,strawberry,,90346,001,2022-04-26_18h31.23.653,SPAMnetsValid,2021.1.4,Win32,60.04924038,,,,,,,,,,,,,1,1.4393,0,54,54,4,1,,,,,,,,,,,,,,,,,,,,,,,,,,,,,,,,,,,,,,,,,,,,,,,,,,,,,,,,,,,,,,,,,,,,,,
,,,,1,1.8897,,,,,,157,refrigerator,rose,,90346,001,2022-04-26_18h31.23.653,SPAMnetsValid,2021.1.4,Win32,60.04924038,,,,,,,,,,,,,1,1.8897,0,55,55,64,1,,,,,,,,,,,,,,,,,,,,,,,,,,,,,,,,,,,,,,,,,,,,,,,,,,,,,,,,,,,,,,,,,,,,,,
,,,,3,5.5203,,,,,,151,microwave,onion,,90346,001,2022-04-26_18h31.23.653,SPAMnetsValid,2021.1.4,Win32,60.04924038,,,,,,,,,,,,,3,5.5203,0,56,56,6,1,,,,,,,,,,,,,,,,,,,,,,,,,,,,,,,,,,,,,,,,,,,,,,,,,,,,,,,,,,,,,,,,,,,,,,
,,,,4,3.5086,,,,,,140,cookie,refrigerator,,90346,001,2022-04-26_18h31.23.653,SPAMnetsValid,2021.1.4,Win32,60.04924038,,,,,,,,,,,,,4,3.5086,0,57,57,89,1,,,,,,,,,,,,,,,,,,,,,,,,,,,,,,,,,,,,,,,,,,,,,,,,,,,,,,,,,,,,,,,,,,,,,,
,,,,1,2.9277,,,,,,126,kitchen,tree,,90346,001,2022-04-26_18h31.23.653,SPAMnetsValid,2021.1.4,Win32,60.04924038,,,,,,,,,,,,,1,2.9277,0,58,58,50,1,,,,,,,,,,,,,,,,,,,,,,,,,,,,,,,,,,,,,,,,,,,,,,,,,,,,,,,,,,,,,,,,,,,,,,
,,,,4,7.7412,,,,,,156,melon,rose,,90346,001,2022-04-26_18h31.23.653,SPAMnetsValid,2021.1.4,Win32,60.04924038,,,,,,,,,,,,,4,7.7412,0,59,59,31,1,,,,,,,,,,,,,,,,,,,,,,,,,,,,,,,,,,,,,,,,,,,,,,,,,,,,,,,,,,,,,,,,,,,,,,
,,,,8,1.9414,,,,,,177,chocolate,strawberry,,90346,001,2022-04-26_18h31.23.653,SPAMnetsValid,2021.1.4,Win32,60.04924038,,,,,,,,,,,,,8,1.9414,0,60,60,53,1,,,,,,,,,,,,,,,,,,,,,,,,,,,,,,,,,,,,,,,,,,,,,,,,,,,,,,,,,,,,,,,,,,,,,,
,,,,1,4.5271,,,,,,104,garden,microwave,,90346,001,2022-04-26_18h31.23.653,SPAMnetsValid,2021.1.4,Win32,60.04924038,,,,,,,,,,,,,1,4.5271,0,61,61,81,1,,,,,,,,,,,,,,,,,,,,,,,,,,,,,,,,,,,,,,,,,,,,,,,,,,,,,,,,,,,,,,,,,,,,,,
,,,,7,2.9246,,,,,,168,cactus,flower,,90346,001,2022-04-26_18h31.23.653,SPAMnetsValid,2021.1.4,Win32,60.04924038,,,,,,,,,,,,,7,2.9246,0,62,62,51,1,,,,,,,,,,,,,,,,,,,,,,,,,,,,,,,,,,,,,,,,,,,,,,,,,,,,,,,,,,,,,,,,,,,,,,
,,,,6,1.9906,,,,,,175,melon,onion,,90346,001,2022-04-26_18h31.23.653,SPAMnetsValid,2021.1.4,Win32,60.04924038,,,,,,,,,,,,,6,1.9906,0,63,63,41,1,,,,,,,,,,,,,,,,,,,,,,,,,,,,,,,,,,,,,,,,,,,,,,,,,,,,,,,,,,,,,,,,,,,,,,
,,,,8,4.1417,,,,,,160,cookie,kitchen,,90346,001,2022-04-26_18h31.23.653,SPAMnetsValid,2021.1.4,Win32,60.04924038,,,,,,,,,,,,,8,4.1417,0,64,64,65,1,,,,,,,,,,,,,,,,,,,,,,,,,,,,,,,,,,,,,,,,,,,,,,,,,,,,,,,,,,,,,,,,,,,,,,
,,,,1,5.4561,,,,,,159,cookie,flower,,90346,001,2022-04-26_18h31.23.653,SPAMnetsValid,2021.1.4,Win32,60.04924038,,,,,,,,,,,,,1,5.4561,0,65,65,21,1,,,,,,,,,,,,,,,,,,,,,,,,,,,,,,,,,,,,,,,,,,,,,,,,,,,,,,,,,,,,,,,,,,,,,,
,,,,8,3.5524,,,,,,99,garden,melon,,90346,001,2022-04-26_18h31.23.653,SPAMnetsValid,2021.1.4,Win32,60.04924038,,,,,,,,,,,,,8,3.5524,0,66,66,17,1,,,,,,,,,,,,,,,,,,,,,,,,,,,,,,,,,,,,,,,,,,,,,,,,,,,,,,,,,,,,,,,,,,,,,,
,,,,1,3.7742,,,,,,133,cake,flower,,90346,001,2022-04-26_18h31.23.653,SPAMnetsValid,2021.1.4,Win32,60.04924038,,,,,,,,,,,,,1,3.7742,0,67,67,94,1,,,,,,,,,,,,,,,,,,,,,,,,,,,,,,,,,,,,,,,,,,,,,,,,,,,,,,,,,,,,,,,,,,,,,,
,,,,1,1.9146,,,,,,180,tree,yogurt,,90346,001,2022-04-26_18h31.23.653,SPAMnetsValid,2021.1.4,Win32,60.04924038,,,,,,,,,,,,,1,1.9146,0,68,68,68,1,,,,,,,,,,,,,,,,,,,,,,,,,,,,,,,,,,,,,,,,,,,,,,,,,,,,,,,,,,,,,,,,,,,,,,
,,,,6,3.3671,,,,,,115,refrigerator,tomato,,90346,001,2022-04-26_18h31.23.653,SPAMnetsValid,2021.1.4,Win32,60.04924038,,,,,,,,,,,,,6,3.3671,0,69,69,85,1,,,,,,,,,,,,,,,,,,,,,,,,,,,,,,,,,,,,,,,,,,,,,,,,,,,,,,,,,,,,,,,,,,,,,,
,,,,2,3.3778,,,,,,179,broom,oven,,90346,001,2022-04-26_18h31.23.653,SPAMnetsValid,2021.1.4,Win32,60.04924038,,,,,,,,,,,,,2,3.3778,0,70,70,45,1,,,,,,,,,,,,,,,,,,,,,,,,,,,,,,,,,,,,,,,,,,,,,,,,,,,,,,,,,,,,,,,,,,,,,,
,,,,3,5.7058,,,,,,102,chocolate,refrigerator,,90346,001,2022-04-26_18h31.23.653,SPAMnetsValid,2021.1.4,Win32,60.04924038,,,,,,,,,,,,,3,5.7058,0,71,71,76,1,,,,,,,,,,,,,,,,,,,,,,,,,,,,,,,,,,,,,,,,,,,,,,,,,,,,,,,,,,,,,,,,,,,,,,
,,,,1,3.7085,,,,,,165,onion,rose,,90346,001,2022-04-26_18h31.23.653,SPAMnetsValid,2021.1.4,Win32,60.04924038,,,,,,,,,,,,,1,3.7085,0,72,72,40,1,,,,,,,,,,,,,,,,,,,,,,,,,,,,,,,,,,,,,,,,,,,,,,,,,,,,,,,,,,,,,,,,,,,,,,
,,,,1,2.2087,,,,,,164,cookie,garden,,90346,001,2022-04-26_18h31.23.653,SPAMnetsValid,2021.1.4,Win32,60.04924038,,,,,,,,,,,,,1,2.2087,0,73,73,59,1,,,,,,,,,,,,,,,,,,,,,,,,,,,,,,,,,,,,,,,,,,,,,,,,,,,,,,,,,,,,,,,,,,,,,,
,,,,3,4.4941,,,,,,171,cake,tomato,,90346,001,2022-04-26_18h31.23.653,SPAMnetsValid,2021.1.4,Win32,60.04924038,,,,,,,,,,,,,3,4.4941,0,74,74,88,1,,,,,,,,,,,,,,,,,,,,,,,,,,,,,,,,,,,,,,,,,,,,,,,,,,,,,,,,,,,,,,,,,,,,,,
,,,,4,2.0738,,,,,,96,oven,strawberry,,90346,001,2022-04-26_18h31.23.653,SPAMnetsValid,2021.1.4,Win32,60.04924038,,,,,,,,,,,,,4,2.0738,0,75,75,67,1,,,,,,,,,,,,,,,,,,,,,,,,,,,,,,,,,,,,,,,,,,,,,,,,,,,,,,,,,,,,,,,,,,,,,,
,,,,6,2.8011,,,,,,181,carrot,kitchen,,90346,001,2022-04-26_18h31.23.653,SPAMnetsValid,2021.1.4,Win32,60.04924038,,,,,,,,,,,,,6,2.8011,0,76,76,72,1,,,,,,,,,,,,,,,,,,,,,,,,,,,,,,,,,,,,,,,,,,,,,,,,,,,,,,,,,,,,,,,,,,,,,,
,,,,3,3.2996,,,,,,152,cactus,strawberry,,90346,001,2022-04-26_18h31.23.653,SPAMnetsValid,2021.1.4,Win32,60.04924038,,,,,,,,,,,,,3,3.2996,0,77,77,49,1,,,,,,,,,,,,,,,,,,,,,,,,,,,,,,,,,,,,,,,,,,,,,,,,,,,,,,,,,,,,,,,,,,,,,,
,,,,2,5.8516,,,,,,119,strawberry,tree,,90346,001,2022-04-26_18h31.23.653,SPAMnetsValid,2021.1.4,Win32,60.04924038,,,,,,,,,,,,,2,5.8516,0,78,78,18,1,,,,,,,,,,,,,,,,,,,,,,,,,,,,,,,,,,,,,,,,,,,,,,,,,,,,,,,,,,,,,,,,,,,,,,
,,,,6,3.596,,,,,,174,cake,pretzel,,90346,001,2022-04-26_18h31.23.653,SPAMnetsValid,2021.1.4,Win32,60.04924038,,,,,,,,,,,,,6,3.596,0,79,79,2,1,,,,,,,,,,,,,,,,,,,,,,,,,,,,,,,,,,,,,,,,,,,,,,,,,,,,,,,,,,,,,,,,,,,,,,
,,,,7,2.0081,,,,,,170,cookie,microwave,,90346,001,2022-04-26_18h31.23.653,SPAMnetsValid,2021.1.4,Win32,60.04924038,,,,,,,,,,,,,7,2.0081,0,80,80,92,1,,,,,,,,,,,,,,,,,,,,,,,,,,,,,,,,,,,,,,,,,,,,,,,,,,,,,,,,,,,,,,,,,,,,,,
,,,,8,3.5913,,,,,,147,cake,refrigerator,,90346,001,2022-04-26_18h31.23.653,SPAMnetsValid,2021.1.4,Win32,60.04924038,,,,,,,,,,,,,8,3.5913,0,81,81,35,1,,,,,,,,,,,,,,,,,,,,,,,,,,,,,,,,,,,,,,,,,,,,,,,,,,,,,,,,,,,,,,,,,,,,,,
,,,,8,2.1407,,,,,,188,flower,tree,,90346,001,2022-04-26_18h31.23.653,SPAMnetsValid,2021.1.4,Win32,60.04924038,,,,,,,,,,,,,8,2.1407,0,82,82,7,1,,,,,,,,,,,,,,,,,,,,,,,,,,,,,,,,,,,,,,,,,,,,,,,,,,,,,,,,,,,,,,,,,,,,,,
,,,,8,1.5448,,,,,,138,flower,rose,,90346,001,2022-04-26_18h31.23.653,SPAMnetsValid,2021.1.4,Win32,60.04924038,,,,,,,,,,,,,8,1.5448,0,83,83,61,1,,,,,,,,,,,,,,,,,,,,,,,,,,,,,,,,,,,,,,,,,,,,,,,,,,,,,,,,,,,,,,,,,,,,,,
,,,,7,3.0412,,,,,,118,chocolate,oven,,90346,001,2022-04-26_18h31.23.653,SPAMnetsValid,2021.1.4,Win32,60.04924038,,,,,,,,,,,,,7,3.0412,0,84,84,10,1,,,,,,,,,,,,,,,,,,,,,,,,,,,,,,,,,,,,,,,,,,,,,,,,,,,,,,,,,,,,,,,,,,,,,,
,,,,5,5.6564,,,,,,98,pretzel,strawberry,,90346,001,2022-04-26_18h31.23.653,SPAMnetsValid,2021.1.4,Win32,60.04924038,,,,,,,,,,,,,5,5.6564,0,85,85,82,1,,,,,,,,,,,,,,,,,,,,,,,,,,,,,,,,,,,,,,,,,,,,,,,,,,,,,,,,,,,,,,,,,,,,,,
,,,,3,3.0065,,,,,,107,rose,tomato,,90346,001,2022-04-26_18h31.23.653,SPAMnetsValid,2021.1.4,Win32,60.04924038,,,,,,,,,,,,,3,3.0065,0,86,86,26,1,,,,,,,,,,,,,,,,,,,,,,,,,,,,,,,,,,,,,,,,,,,,,,,,,,,,,,,,,,,,,,,,,,,,,,
,,,,1,2.2402,,,,,,145,cactus,yogurt,,90346,001,2022-04-26_18h31.23.653,SPAMnetsValid,2021.1.4,Win32,60.04924038,,,,,,,,,,,,,1,2.2402,0,87,87,15,1,,,,,,,,,,,,,,,,,,,,,,,,,,,,,,,,,,,,,,,,,,,,,,,,,,,,,,,,,,,,,,,,,,,,,,
,,,,7,2.0652,,,,,,100,garden,tomato,,90346,001,2022-04-26_18h31.23.653,SPAMnetsValid,2021.1.4,Win32,60.04924038,,,,,,,,,,,,,7,2.0652,0,88,88,83,1,,,,,,,,,,,,,,,,,,,,,,,,,,,,,,,,,,,,,,,,,,,,,,,,,,,,,,,,,,,,,,,,,,,,,,
,,,,8,2.7373,,,,,,158,cookie,oven,,90346,001,2022-04-26_18h31.23.653,SPAMnetsValid,2021.1.4,Win32,60.04924038,,,,,,,,,,,,,8,2.7373,0,89,89,27,1,,,,,,,,,,,,,,,,,,,,,,,,,,,,,,,,,,,,,,,,,,,,,,,,,,,,,,,,,,,,,,,,,,,,,,
,,,,3,4.5036,,,,,,125,carrot,tree,,90346,001,2022-04-26_18h31.23.653,SPAMnetsValid,2021.1.4,Win32,60.04924038,,,,,,,,,,,,,3,4.5036,0,90,90,30,1,,,,,,,,,,,,,,,,,,,,,,,,,,,,,,,,,,,,,,,,,,,,,,,,,,,,,,,,,,,,,,,,,,,,,,
,,,,9,1.7105,,,,,,193,melon,melon,CHECK,90346,001,2022-04-26_18h31.23.653,SPAMnetsValid,2021.1.4,Win32,60.04924038,,,,,,,,,,,,,9,1.7105,0,91,91,86,1,,,,,,,,,,,,,,,,,,,,,,,,,,,,,,,,,,,,,,,,,,,,,,,,,,,,,,,,,,,,,,,,,,,,,,
,,,,3,2.7579,,,,,,189,onion,tree,,90346,001,2022-04-26_18h31.23.653,SPAMnetsValid,2021.1.4,Win32,60.04924038,,,,,,,,,,,,,3,2.7579,0,92,92,62,1,,,,,,,,,,,,,,,,,,,,,,,,,,,,,,,,,,,,,,,,,,,,,,,,,,,,,,,,,,,,,,,,,,,,,,
,,,,2,2.8282,,,,,,130,microwave,yogurt,,90346,001,2022-04-26_18h31.23.653,SPAMnetsValid,2021.1.4,Win32,60.04924038,,,,,,,,,,,,,2,2.8282,0,93,93,84,1,,,,,,,,,,,,,,,,,,,,,,,,,,,,,,,,,,,,,,,,,,,,,,,,,,,,,,,,,,,,,,,,,,,,,,
,,,,3,6.0092,,,,,,153,carrot,pretzel,,90346,001,2022-04-26_18h31.23.653,SPAMnetsValid,2021.1.4,Win32,60.04924038,,,,,,,,,,,,,3,6.0092,0,94,94,34,1,,,,,,,,,,,,,,,,,,,,,,,,,,,,,,,,,,,,,,,,,,,,,,,,,,,,,,,,,,,,,,,,,,,,,,
,,,,5,2.6626,,,,,,172,kitchen,melon,,90346,001,2022-04-26_18h31.23.653,SPAMnetsValid,2021.1.4,Win32,60.04924038,,,,,,,,,,,,,5,2.6626,0,95,95,77,1,,,,,,,,,,,,,,,,,,,,,,,,,,,,,,,,,,,,,,,,,,,,,,,,,,,,,,,,,,,,,,,,,,,,,,
,,,,2,2.8543,,,,,,121,broom,microwave,,90346,001,2022-04-26_18h31.23.653,SPAMnetsValid,2021.1.4,Win32,60.04924038,,,,,,,,,,,,,2,2.8543,0,96,96,95,1,,,,,,,,,,,,,,,,,,,,,,,,,,,,,,,,,,,,,,,,,,,,,,,,,,,,,,,,,,,,,,,,,,,,,,
,,,,,,,,,,,,,,,90346,001,2022-04-26_18h31.23.653,SPAMnetsValid,2021.1.4,Win32,60.04924038,,,,,,,,,,,,,,,,,,,,0,0,0,0,1,,,,,,,,,,,,,,,,,,,,,,,,,,,,,,,,,,,,,,,,,,,,,,,,,,,,,,,,,,,,,,,,,
,,,,,,,,,,,,,,,90346,001,2022-04-26_18h31.23.653,SPAMnetsValid,2021.1.4,Win32,60.04924038,,,,,,0,1,1,1,1,0,1,,,,,,,,,,,,,,,,,,,,,,,,,,,,,,,,,,,,,,,,,,,,,,,,,,,,,,,,,,,,,,,,,,,,,,,,,,,,,
,,,,,,,,,,,,,,,90346,001,2022-04-26_18h31.23.653,SPAMnetsValid,2021.1.4,Win32,60.04924038,,,,,,,,,,,,,,,,,,,,,,,,,4,12.8815,0,0,0,0,1,rancor,forbearance,ridicule,malice,bravery,3,,,,,,,,,,,,,,,,,,,,,,,,,,,,,,,,,,,,,,,,,,,,,,,,,,,,
,,,,,,,,,,,,,,,90346,001,2022-04-26_18h31.23.653,SPAMnetsValid,2021.1.4,Win32,60.04924038,,,,,,,,,,,,,,,,,,,,,,,,,4,7.1682,0,1,1,1,1,raucous,empty,quiet,smooth,harsh,4,,,,,,,,,,,,,,,,,,,,,,,,,,,,,,,,,,,,,,,,,,,,,,,,,,,,
,,,,,,,,,,,,,,,90346,001,2022-04-26_18h31.23.653,SPAMnetsValid,2021.1.4,Win32,60.04924038,,,,,,,,,,,,,,,,,,,,,,,,,3,13.1956,0,2,2,2,1,gargoyle,oil,medicine,carved waterspout,ugly building,3,,,,,,,,,,,,,,,,,,,,,,,,,,,,,,,,,,,,,,,,,,,,,,,,,,,,
,,,,,,,,,,,,,,,90346,001,2022-04-26_18h31.23.653,SPAMnetsValid,2021.1.4,Win32,60.04924038,,,,,,,,,,,,,,,,,,,,,,,,,1,16.6081,0,3,3,3,1,recrudesce,purify,renew activity,lack refinement,crush,2,,,,,,,,,,,,,,,,,,,,,,,,,,,,,,,,,,,,,,,,,,,,,,,,,,,,
,,,,,,,,,,,,,,,90346,001,2022-04-26_18h31.23.653,SPAMnetsValid,2021.1.4,Win32,60.04924038,,,,,,,,,,,,,,,,,,,,,,,,,3,21.9717,0,4,4,4,1,specious,"plausible, but not genuine",noteworthy,class or variety,roomy,1,,,,,,,,,,,,,,,,,,,,,,,,,,,,,,,,,,,,,,,,,,,,,,,,,,,,
,,,,,,,,,,,,,,,90346,001,2022-04-26_18h31.23.653,SPAMnetsValid,2021.1.4,Win32,60.04924038,,,,,,,,,,,,,,,,,,,,,,,,,3,10.2575,0,5,5,5,1,bauble,bubble,showy plaything,idle talk,confusion,2,,,,,,,,,,,,,,,,,,,,,,,,,,,,,,,,,,,,,,,,,,,,,,,,,,,,
,,,,,,,,,,,,,,,90346,001,2022-04-26_18h31.23.653,SPAMnetsValid,2021.1.4,Win32,60.04924038,,,,,,,,,,,,,,,,,,,,,,,,,1,18.3984,0,6,6,6,1,prolific,scarce,producing abundantly,reckless,speaking profanely,2,,,,,,,,,,,,,,,,,,,,,,,,,,,,,,,,,,,,,,,,,,,,,,,,,,,,
,,,,,,,,,,,,,,,90346,001,2022-04-26_18h31.23.653,SPAMnetsValid,2021.1.4,Win32,60.04924038,,,,,,,,,,,,,,,,,,,,,,,,,3,12.8497,0,7,7,7,1,opulent,party,wealthy,happy frame of mind,semiprecious stone,2,,,,,,,,,,,,,,,,,,,,,,,,,,,,,,,,,,,,,,,,,,,,,,,,,,,,
,,,,,,,,,,,,,,,90346,001,2022-04-26_18h31.23.653,SPAMnetsValid,2021.1.4,Win32,60.04924038,,,,,,,,,,,,,,,,,,,,,,,,,2,11.2016,0,8,8,8,1,coercion,conspiracy,strategy,restraint,attraction,3,,,,,,,,,,,,,,,,,,,,,,,,,,,,,,,,,,,,,,,,,,,,,,,,,,,,
,,,,,,,,,,,,,,,90346,001,2022-04-26_18h31.23.653,SPAMnetsValid,2021.1.4,Win32,60.04924038,,,,,,,,,,,,,,,,,,,,,,,,,4,8.8917,0,9,9,9,1,hiatus,animal,calamity,dread,gap,4,,,,,,,,,,,,,,,,,,,,,,,,,,,,,,,,,,,,,,,,,,,,,,,,,,,,
,,,,,,,,,,,,,,,90346,001,2022-04-26_18h31.23.653,SPAMnetsValid,2021.1.4,Win32,60.04924038,,,,,,,,,,,,,,,,,,,,,,,,,3,12.6425,0,10,10,10,1,germane,microbe,contagious,relevant,different,3,,,,,,,,,,,,,,,,,,,,,,,,,,,,,,,,,,,,,,,,,,,,,,,,,,,,
,,,,,,,,,,,,,,,90346,001,2022-04-26_18h31.23.653,SPAMnetsValid,2021.1.4,Win32,60.04924038,,,,,,,,,,,,,,,,,,,,,,,,,4,13.54,0,11,11,11,1,perfunctory,fundamental,formal,superficial,careful,3,,,,,,,,,,,,,,,,,,,,,,,,,,,,,,,,,,,,,,,,,,,,,,,,,,,,
,,,,,,,,,,,,,,,90346,001,2022-04-26_18h31.23.653,SPAMnetsValid,2021.1.4,Win32,60.04924038,,,,,,,,,,,,,,,,,,,,,,,,,3,2.8154,0,12,12,12,1,diverge,reveal,chant,distract the attention of,differ or turn off from,4,,,,,,,,,,,,,,,,,,,,,,,,,,,,,,,,,,,,,,,,,,,,,,,,,,,,
,,,,,,,,,,,,,,,90346,001,2022-04-26_18h31.23.653,SPAMnetsValid,2021.1.4,Win32,60.04924038,,,,,,,,,,,,,,,,,,,,,,,,,4,3.8387,0,13,13,13,1,evoke,take away,anger,connect,bring out,4,,,,,,,,,,,,,,,,,,,,,,,,,,,,,,,,,,,,,,,,,,,,,,,,,,,,
,,,,,,,,,,,,,,,90346,001,2022-04-26_18h31.23.653,SPAMnetsValid,2021.1.4,Win32,60.04924038,,,,,,,,,,,,,,,,,,,,,,,,,4,3.3025,0,14,14,14,1,pertinent,relevant,lying next to,necessary,bold,1,,,,,,,,,,,,,,,,,,,,,,,,,,,,,,,,,,,,,,,,,,,,,,,,,,,,
,,,,,,,,,,,,,,,90346,001,2022-04-26_18h31.23.653,SPAMnetsValid,2021.1.4,Win32,60.04924038,,,,,,,,,,,,,,,,,,,,,,,,,2,4.237,0,15,15,15,1,holocaust,entirety,destruction,saintly,price,2,,,,,,,,,,,,,,,,,,,,,,,,,,,,,,,,,,,,,,,,,,,,,,,,,,,,
,,,,,,,,,,,,,,,90346,001,2022-04-26_18h31.23.653,SPAMnetsValid,2021.1.4,Win32,60.04924038,,,,,,,,,,,,,,,,,,,,,,,,,1,13.7196,0,16,16,16,1,piquant,mellow,fish,pungent,cloth,3,,,,,,,,,,,,,,,,,,,,,,,,,,,,,,,,,,,,,,,,,,,,,,,,,,,,
,,,,,,,,,,,,,,,90346,001,2022-04-26_18h31.23.653,SPAMnetsValid,2021.1.4,Win32,60.04924038,,,,,,,,,,,,,,,,,,,,,,,,,3,22.3121,0,17,17,17,1,firmament,foundation,heavens,strong,glue,2,,,,,,,,,,,,,,,,,,,,,,,,,,,,,,,,,,,,,,,,,,,,,,,,,,,,
,,,,,,,,,,,,,,,90346,001,2022-04-26_18h31.23.653,SPAMnetsValid,2021.1.4,Win32,60.04924038,,,,,,,,,,,,,,,,,,,,,,,,,,,,,,,,,,,,,,4,19.7016,0,0,0,0,1,marketable,partisan,jocular,marriageable,salable,essential,4,,,,,,,,,,,,,,,,,,,,,,,,,,,,,,,,,,,,,,
,,,,,,,,,,,,,,,90346,001,2022-04-26_18h31.23.653,SPAMnetsValid,2021.1.4,Win32,60.04924038,,,,,,,,,,,,,,,,,,,,,,,,,,,,,,,,,,,,,,5,5.9795,0,1,1,1,1,cottontail,squirrel,poplar,boa,marshy plant,rabbit,5,,,,,,,,,,,,,,,,,,,,,,,,,,,,,,,,,,,,,,
,,,,,,,,,,,,,,,90346,001,2022-04-26_18h31.23.653,SPAMnetsValid,2021.1.4,Win32,60.04924038,,,,,,,,,,,,,,,,,,,,,,,,,,,,,,,,,,,,,,4,20.7654,0,2,2,2,1,boggy,afraid,false,marshy,dense,black,3,,,,,,,,,,,,,,,,,,,,,,,,,,,,,,,,,,,,,,
,,,,,,,,,,,,,,,90346,001,2022-04-26_18h31.23.653,SPAMnetsValid,2021.1.4,Win32,60.04924038,,,,,,,,,,,,,,,,,,,,,,,,,,,,,,,,,,,,,,2,10.7581,0,3,3,3,1,gruesomeness,blackness,falseness,vindictiveness,drunkenness,ghastliness,5,,,,,,,,,,,,,,,,,,,,,,,,,,,,,,,,,,,,,,
,,,,,,,,,,,,,,,90346,001,2022-04-26_18h31.23.653,SPAMnetsValid,2021.1.4,Win32,60.04924038,,,,,,,,,,,,,,,,,,,,,,,,,,,,,,,,,,,,,,3,10.9423,0,4,4,4,1,loathing,diffidence,laziness,abhorrence,cleverness,comfort,3,,,,,,,,,,,,,,,,,,,,,,,,,,,,,,,,,,,,,,
,,,,,,,,,,,,,,,90346,001,2022-04-26_18h31.23.653,SPAMnetsValid,2021.1.4,Win32,60.04924038,,,,,,,,,,,,,,,,,,,,,,,,,,,,,,,,,,,,,,2,12.1571,0,5,5,5,1,bantam,fowl,ridicule,cripple,vegetable,ensign,1,,,,,,,,,,,,,,,,,,,,,,,,,,,,,,,,,,,,,,
,,,,,,,,,,,,,,,90346,001,2022-04-26_18h31.23.653,SPAMnetsValid,2021.1.4,Win32,60.04924038,,,,,,,,,,,,,,,,,,,,,,,,,,,,,,,,,,,,,,4,23.2705,0,6,6,6,1,evoke,wake up,surrender,reconnoiter,transcend,call forth,5,,,,,,,,,,,,,,,,,,,,,,,,,,,,,,,,,,,,,,
,,,,,,,,,,,,,,,90346,001,2022-04-26_18h31.23.653,SPAMnetsValid,2021.1.4,Win32,60.04924038,,,,,,,,,,,,,,,,,,,,,,,,,,,,,,,,,,,,,,3,28.1408,0,7,7,7,1,unobtrusive,unintelligent,epileptic,illogical,lineal,modest,5,,,,,,,,,,,,,,,,,,,,,,,,,,,,,,,,,,,,,,
,,,,,,,,,,,,,,,90346,001,2022-04-26_18h31.23.653,SPAMnetsValid,2021.1.4,Win32,60.04924038,,,,,,,,,,,,,,,,,,,,,,,,,,,,,,,,,,,,,,4,2.5886,0,8,8,8,1,terrain,ice cream,final test,tractor,area of ground,weight,4,,,,,,,,,,,,,,,,,,,,,,,,,,,,,,,,,,,,,,
,,,,,,,,,,,,,,,90346,001,2022-04-26_18h31.23.653,SPAMnetsValid,2021.1.4,Win32,60.04924038,,,,,,,,,,,,,,,,,,,,,,,,,,,,,,,,,,,,,,1,19.3874,0,9,9,9,1,capriciousness,stubbornness,courage,whimsicality,amazement,greediness,3,,,,,,,,,,,,,,,,,,,,,,,,,,,,,,,,,,,,,,
,,,,,,,,,,,,,,,90346,001,2022-04-26_18h31.23.653,SPAMnetsValid,2021.1.4,Win32,60.04924038,,,,,,,,,,,,,,,,,,,,,,,,,,,,,,,,,,,,,,1,7.2884,0,10,10,10,1,maelstrom,slander,whirlpool,enmity,armor,majolica,2,,,,,,,,,,,,,,,,,,,,,,,,,,,,,,,,,,,,,,
,,,,,,,,,,,,,,,90346,001,2022-04-26_18h31.23.653,SPAMnetsValid,2021.1.4,Win32,60.04924038,,,,,,,,,,,,,,,,,,,,,,,,,,,,,,,,,,,,,,5,5.5853,0,11,11,11,1,tentative,critical,conclusive,authentic,provisional,apprehensive,4,,,,,,,,,,,,,,,,,,,,,,,,,,,,,,,,,,,,,,
,,,,,,,,,,,,,,,90346,001,2022-04-26_18h31.23.653,SPAMnetsValid,2021.1.4,Win32,60.04924038,,,,,,,,,,,,,,,,,,,,,,,,,,,,,,,,,,,,,,2,7.6397,0,12,12,12,1,placate,rehabilitate,plagiarize,depredate,apprise,conciliate,5,,,,,,,,,,,,,,,,,,,,,,,,,,,,,,,,,,,,,,
,,,,,,,,,,,,,,,90346,001,2022-04-26_18h31.23.653,SPAMnetsValid,2021.1.4,Win32,60.04924038,,,,,,,,,,,,,,,,,,,,,,,,,,,,,,,,,,,,,,3,18.1835,0,13,13,13,1,surcease,enlightenment,cessation,inattention,censor,substitution,2,,,,,,,,,,,,,,,,,,,,,,,,,,,,,,,,,,,,,,
,,,,,,,,,,,,,,,90346,001,2022-04-26_18h31.23.653,SPAMnetsValid,2021.1.4,Win32,60.04924038,,,,,,,,,,,,,,,,,,,,,,,,,,,,,,,,,,,,,,,,0,14,14,14,1,apathetic,wandering,impassive,hateful,prophetic,overflowing,2,,,,,,,,,,,,,,,,,,,,,,,,,,,,,,,,,,,,,,
,,,,,,,,,,,,,,,90346,001,2022-04-26_18h31.23.653,SPAMnetsValid,2021.1.4,Win32,60.04924038,,,,,,,,,,,,,,,,,,,,,,,,,,,,,,,,,,,,,,,,,,,,,,,,,,,,"light, make a room smell better, use of relaxation, melt the wax into decoration, and set a mood with dim lighting",candle,0,0,0,0,1,,,,,,,,,,,,,,,,,,,,,,,,,,,,,,,
,,,,,,,,,,,,,,,90346,001,2022-04-26_18h31.23.653,SPAMnetsValid,2021.1.4,Win32,60.04924038,,,,,,,,,,,,,,,,,,,,,,,,,,,,,,,,,,,,,,,,,,,,,,,,,,,,lighting up a room,candle,1,0,1,0,1,,,,,,,,,,,,,,,,,,,,,,,,,,,,,,,
,,,,,,,,,,,,,,,90346,001,2022-04-26_18h31.23.653,SPAMnetsValid,2021.1.4,Win32,60.04924038,,,,,,,,,,,,,,,,,,,,,,,,,,,,,,,,,,,,,,,,,,,,,,,,,,,,,,,,,,,0,0,0,1,1,candle,,,,,,,,,,,,,,,,,,,,,,,,,
,,,,,,,,,,,,,,,90346,001,2022-04-26_18h31.23.653,SPAMnetsValid,2021.1.4,Win32,60.04924038,,,,,,,,,,,,,,,,,,,,,,,,,,,,,,,,,,,,,,,,,,,,,,,,,,,,laying your head on for sleeping,pillow,0,0,0,0,1,,,,,,,,,,,,,,,,,,,,,,,,,,,,,,,
,,,,,,,,,,,,,,,90346,001,2022-04-26_18h31.23.653,SPAMnetsValid,2021.1.4,Win32,60.04924038,,,,,,,,,,,,,,,,,,,,,,,,,,,,,,,,,,,,,,,,,,,,,,,,,,,,propping up a broken foot or other body part,pillow,1,0,1,0,1,,,,,,,,,,,,,,,,,,,,,,,,,,,,,,,
,,,,,,,,,,,,,,,90346,001,2022-04-26_18h31.23.653,SPAMnetsValid,2021.1.4,Win32,60.04924038,,,,,,,,,,,,,,,,,,,,,,,,,,,,,,,,,,,,,,,,,,,,,,,,,,,,rest your neck on while flying,pillow,2,0,2,0,1,,,,,,,,,,,,,,,,,,,,,,,,,,,,,,,
,,,,,,,,,,,,,,,90346,001,2022-04-26_18h31.23.653,SPAMnetsValid,2021.1.4,Win32,60.04924038,,,,,,,,,,,,,,,,,,,,,,,,,,,,,,,,,,,,,,,,,,,,,,,,,,,,hugging while asleep for comfort,pillow,3,0,3,0,1,,,,,,,,,,,,,,,,,,,,,,,,,,,,,,,
,,,,,,,,,,,,,,,90346,001,2022-04-26_18h31.23.653,SPAMnetsValid,2021.1.4,Win32,60.04924038,,,,,,,,,,,,,,,,,,,,,,,,,,,,,,,,,,,,,,,,,,,,,,,,,,,,propping up your body while doing work or watching a movie,pillow,4,0,4,0,1,,,,,,,,,,,,,,,,,,,,,,,,,,,,,,,
,,,,,,,,,,,,,,,90346,001,2022-04-26_18h31.23.653,SPAMnetsValid,2021.1.4,Win32,60.04924038,,,,,,,,,,,,,,,,,,,,,,,,,,,,,,,,,,,,,,,,,,,,,,,,,,,,camping,pillow,5,0,5,0,1,,,,,,,,,,,,,,,,,,,,,,,,,,,,,,,
,,,,,,,,,,,,,,,90346,001,2022-04-26_18h31.23.653,SPAMnetsValid,2021.1.4,Win32,60.04924038,,,,,,,,,,,,,,,,,,,,,,,,,,,,,,,,,,,,,,,,,,,,,,,,,,,,,,,,,,,0,1,1,2,1,pillow,,,,,,,,,,,,,,,,,,,,,,,,,
,,,,,,,,,,,,,,,90346,001,2022-04-26_18h31.23.653,SPAMnetsValid,2021.1.4,Win32,60.04924038,,,,,,,,,,,,,,,,,,,,,,,,,,,,,,,,,,,,,,,,,,,,,,,,,,,,carrying water from a stream,bucket,0,0,0,0,1,,,,,,,,,,,,,,,,,,,,,,,,,,,,,,,
,,,,,,,,,,,,,,,90346,001,2022-04-26_18h31.23.653,SPAMnetsValid,2021.1.4,Win32,60.04924038,,,,,,,,,,,,,,,,,,,,,,,,,,,,,,,,,,,,,,,,,,,,,,,,,,,,using a bucket to mop/clean,bucket,1,0,1,0,1,,,,,,,,,,,,,,,,,,,,,,,,,,,,,,,
,,,,,,,,,,,,,,,90346,001,2022-04-26_18h31.23.653,SPAMnetsValid,2021.1.4,Win32,60.04924038,,,,,,,,,,,,,,,,,,,,,,,,,,,,,,,,,,,,,,,,,,,,,,,,,,,,ouring pant into it to paint walls,bucket,2,0,2,0,1,,,,,,,,,,,,,,,,,,,,,,,,,,,,,,,
,,,,,,,,,,,,,,,90346,001,2022-04-26_18h31.23.653,SPAMnetsValid,2021.1.4,Win32,60.04924038,,,,,,,,,,,,,,,,,,,,,,,,,,,,,,,,,,,,,,,,,,,,,,,,,,,,handwashing clothing items,bucket,3,0,3,0,1,,,,,,,,,,,,,,,,,,,,,,,,,,,,,,,
,,,,,,,,,,,,,,,90346,001,2022-04-26_18h31.23.653,SPAMnetsValid,2021.1.4,Win32,60.04924038,,,,,,,,,,,,,,,,,,,,,,,,,,,,,,,,,,,,,,,,,,,,,,,,,,,,transporting items while moving,bucket,4,0,4,0,1,,,,,,,,,,,,,,,,,,,,,,,,,,,,,,,
,,,,,,,,,,,,,,,90346,001,2022-04-26_18h31.23.653,SPAMnetsValid,2021.1.4,Win32,60.04924038,,,,,,,,,,,,,,,,,,,,,,,,,,,,,,,,,,,,,,,,,,,,,,,,,,,,carrying laundry from one place to another,bucket,5,0,5,0,1,,,,,,,,,,,,,,,,,,,,,,,,,,,,,,,
,,,,,,,,,,,,,,,90346,001,2022-04-26_18h31.23.653,SPAMnetsValid,2021.1.4,Win32,60.04924038,,,,,,,,,,,,,,,,,,,,,,,,,,,,,,,,,,,,,,,,,,,,,,,,,,,,,,,,,,,0,2,2,0,1,bucket,,,,,,,,,,,,,,,,,,,,,,,,,
,,,,,,,,,,,,,,,90346,001,2022-04-26_18h31.23.653,SPAMnetsValid,2021.1.4,Win32,60.04924038,,,,,,,,,,,,,,,,,,,,,,,,,,,,,,,,,,,,,,,,,,,,,,,,,,,,,,,,,,,,,,,,,cat,Animals,0,0,0,0,1,,,,,,,,,,,,,,,,,,
,,,,,,,,,,,,,,,90346,001,2022-04-26_18h31.23.653,SPAMnetsValid,2021.1.4,Win32,60.04924038,,,,,,,,,,,,,,,,,,,,,,,,,,,,,,,,,,,,,,,,,,,,,,,,,,,,,,,,,,,,,,,,,dog,Animals,1,0,1,0,1,,,,,,,,,,,,,,,,,,
,,,,,,,,,,,,,,,90346,001,2022-04-26_18h31.23.653,SPAMnetsValid,2021.1.4,Win32,60.04924038,,,,,,,,,,,,,,,,,,,,,,,,,,,,,,,,,,,,,,,,,,,,,,,,,,,,,,,,,,,,,,,,,cow,Animals,2,0,2,0,1,,,,,,,,,,,,,,,,,,
,,,,,,,,,,,,,,,90346,001,2022-04-26_18h31.23.653,SPAMnetsValid,2021.1.4,Win32,60.04924038,,,,,,,,,,,,,,,,,,,,,,,,,,,,,,,,,,,,,,,,,,,,,,,,,,,,,,,,,,,,,,,,,moose,Animals,3,0,3,0,1,,,,,,,,,,,,,,,,,,
,,,,,,,,,,,,,,,90346,001,2022-04-26_18h31.23.653,SPAMnetsValid,2021.1.4,Win32,60.04924038,,,,,,,,,,,,,,,,,,,,,,,,,,,,,,,,,,,,,,,,,,,,,,,,,,,,,,,,,,,,,,,,,goat,Animals,4,0,4,0,1,,,,,,,,,,,,,,,,,,
,,,,,,,,,,,,,,,90346,001,2022-04-26_18h31.23.653,SPAMnetsValid,2021.1.4,Win32,60.04924038,,,,,,,,,,,,,,,,,,,,,,,,,,,,,,,,,,,,,,,,,,,,,,,,,,,,,,,,,,,,,,,,,sheep,Animals,5,0,5,0,1,,,,,,,,,,,,,,,,,,
,,,,,,,,,,,,,,,90346,001,2022-04-26_18h31.23.653,SPAMnetsValid,2021.1.4,Win32,60.04924038,,,,,,,,,,,,,,,,,,,,,,,,,,,,,,,,,,,,,,,,,,,,,,,,,,,,,,,,,,,,,,,,,lion,Animals,6,0,6,0,1,,,,,,,,,,,,,,,,,,
,,,,,,,,,,,,,,,90346,001,2022-04-26_18h31.23.653,SPAMnetsValid,2021.1.4,Win32,60.04924038,,,,,,,,,,,,,,,,,,,,,,,,,,,,,,,,,,,,,,,,,,,,,,,,,,,,,,,,,,,,,,,,,tiger,Animals,7,0,7,0,1,,,,,,,,,,,,,,,,,,
,,,,,,,,,,,,,,,90346,001,2022-04-26_18h31.23.653,SPAMnetsValid,2021.1.4,Win32,60.04924038,,,,,,,,,,,,,,,,,,,,,,,,,,,,,,,,,,,,,,,,,,,,,,,,,,,,,,,,,,,,,,,,,bear,Animals,8,0,8,0,1,,,,,,,,,,,,,,,,,,
,,,,,,,,,,,,,,,90346,001,2022-04-26_18h31.23.653,SPAMnetsValid,2021.1.4,Win32,60.04924038,,,,,,,,,,,,,,,,,,,,,,,,,,,,,,,,,,,,,,,,,,,,,,,,,,,,,,,,,,,,,,,,,wolf,Animals,9,0,9,0,1,,,,,,,,,,,,,,,,,,
,,,,,,,,,,,,,,,90346,001,2022-04-26_18h31.23.653,SPAMnetsValid,2021.1.4,Win32,60.04924038,,,,,,,,,,,,,,,,,,,,,,,,,,,,,,,,,,,,,,,,,,,,,,,,,,,,,,,,,,,,,,,,,hamster,Animals,10,0,10,0,1,,,,,,,,,,,,,,,,,,
,,,,,,,,,,,,,,,90346,001,2022-04-26_18h31.23.653,SPAMnetsValid,2021.1.4,Win32,60.04924038,,,,,,,,,,,,,,,,,,,,,,,,,,,,,,,,,,,,,,,,,,,,,,,,,,,,,,,,,,,,,,,,,guinee pig,Animals,11,0,11,0,1,,,,,,,,,,,,,,,,,,
,,,,,,,,,,,,,,,90346,001,2022-04-26_18h31.23.653,SPAMnetsValid,2021.1.4,Win32,60.04924038,,,,,,,,,,,,,,,,,,,,,,,,,,,,,,,,,,,,,,,,,,,,,,,,,,,,,,,,,,,,,,,,,giarfee,Animals,12,0,12,0,1,,,,,,,,,,,,,,,,,,
,,,,,,,,,,,,,,,90346,001,2022-04-26_18h31.23.653,SPAMnetsValid,2021.1.4,Win32,60.04924038,,,,,,,,,,,,,,,,,,,,,,,,,,,,,,,,,,,,,,,,,,,,,,,,,,,,,,,,,,,,,,,,,pig,Animals,13,0,13,0,1,,,,,,,,,,,,,,,,,,
,,,,,,,,,,,,,,,90346,001,2022-04-26_18h31.23.653,SPAMnetsValid,2021.1.4,Win32,60.04924038,,,,,,,,,,,,,,,,,,,,,,,,,,,,,,,,,,,,,,,,,,,,,,,,,,,,,,,,,,,,,,,,,fish,Animals,14,0,14,0,1,,,,,,,,,,,,,,,,,,
,,,,,,,,,,,,,,,90346,001,2022-04-26_18h31.23.653,SPAMnetsValid,2021.1.4,Win32,60.04924038,,,,,,,,,,,,,,,,,,,,,,,,,,,,,,,,,,,,,,,,,,,,,,,,,,,,,,,,,,,,,,,,,monkey,Animals,15,0,15,0,1,,,,,,,,,,,,,,,,,,
,,,,,,,,,,,,,,,90346,001,2022-04-26_18h31.23.653,SPAMnetsValid,2021.1.4,Win32,60.04924038,,,,,,,,,,,,,,,,,,,,,,,,,,,,,,,,,,,,,,,,,,,,,,,,,,,,,,,,,,,,,,,,,chettah,Animals,16,0,16,0,1,,,,,,,,,,,,,,,,,,
,,,,,,,,,,,,,,,90346,001,2022-04-26_18h31.23.653,SPAMnetsValid,2021.1.4,Win32,60.04924038,,,,,,,,,,,,,,,,,,,,,,,,,,,,,,,,,,,,,,,,,,,,,,,,,,,,,,,,,,,,,,,,,jaguar,Animals,17,0,17,0,1,,,,,,,,,,,,,,,,,,
,,,,,,,,,,,,,,,90346,001,2022-04-26_18h31.23.653,SPAMnetsValid,2021.1.4,Win32,60.04924038,,,,,,,,,,,,,,,,,,,,,,,,,,,,,,,,,,,,,,,,,,,,,,,,,,,,,,,,,,,,,,,,,deer,Animals,18,0,18,0,1,,,,,,,,,,,,,,,,,,
,,,,,,,,,,,,,,,90346,001,2022-04-26_18h31.23.653,SPAMnetsValid,2021.1.4,Win32,60.04924038,,,,,,,,,,,,,,,,,,,,,,,,,,,,,,,,,,,,,,,,,,,,,,,,,,,,,,,,,,,,,,,,,squirell,Animals,19,0,19,0,1,,,,,,,,,,,,,,,,,,
,,,,,,,,,,,,,,,90346,001,2022-04-26_18h31.23.653,SPAMnetsValid,2021.1.4,Win32,60.04924038,,,,,,,,,,,,,,,,,,,,,,,,,,,,,,,,,,,,,,,,,,,,,,,,,,,,,,,,,,,,,,,,,bunny,Animals,20,0,20,0,1,,,,,,,,,,,,,,,,,,
,,,,,,,,,,,,,,,90346,001,2022-04-26_18h31.23.653,SPAMnetsValid,2021.1.4,Win32,60.04924038,,,,,,,,,,,,,,,,,,,,,,,,,,,,,,,,,,,,,,,,,,,,,,,,,,,,,,,,,,,,,,,,,rat,Animals,21,0,21,0,1,,,,,,,,,,,,,,,,,,
,,,,,,,,,,,,,,,90346,001,2022-04-26_18h31.23.653,SPAMnetsValid,2021.1.4,Win32,60.04924038,,,,,,,,,,,,,,,,,,,,,,,,,,,,,,,,,,,,,,,,,,,,,,,,,,,,,,,,,,,,,,,,,skunk,Animals,22,0,22,0,1,,,,,,,,,,,,,,,,,,
,,,,,,,,,,,,,,,90346,001,2022-04-26_18h31.23.653,SPAMnetsValid,2021.1.4,Win32,60.04924038,,,,,,,,,,,,,,,,,,,,,,,,,,,,,,,,,,,,,,,,,,,,,,,,,,,,,,,,,,,,,,,,,possum,Animals,23,0,23,0,1,,,,,,,,,,,,,,,,,,
,,,,,,,,,,,,,,,90346,001,2022-04-26_18h31.23.653,SPAMnetsValid,2021.1.4,Win32,60.04924038,,,,,,,,,,,,,,,,,,,,,,,,,,,,,,,,,,,,,,,,,,,,,,,,,,,,,,,,,,,,,,,,,beaver,Animals,24,0,24,0,1,,,,,,,,,,,,,,,,,,
,,,,,,,,,,,,,,,90346,001,2022-04-26_18h31.23.653,SPAMnetsValid,2021.1.4,Win32,60.04924038,,,,,,,,,,,,,,,,,,,,,,,,,,,,,,,,,,,,,,,,,,,,,,,,,,,,,,,,,,,,,,,,,snake,Animals,25,0,25,0,1,,,,,,,,,,,,,,,,,,
,,,,,,,,,,,,,,,90346,001,2022-04-26_18h31.23.653,SPAMnetsValid,2021.1.4,Win32,60.04924038,,,,,,,,,,,,,,,,,,,,,,,,,,,,,,,,,,,,,,,,,,,,,,,,,,,,,,,,,,,,,,,,,crab,Animals,26,0,26,0,1,,,,,,,,,,,,,,,,,,
,,,,,,,,,,,,,,,90346,001,2022-04-26_18h31.23.653,SPAMnetsValid,2021.1.4,Win32,60.04924038,,,,,,,,,,,,,,,,,,,,,,,,,,,,,,,,,,,,,,,,,,,,,,,,,,,,,,,,,,,,,,,,,whale,Animals,27,0,27,0,1,,,,,,,,,,,,,,,,,,
,,,,,,,,,,,,,,,90346,001,2022-04-26_18h31.23.653,SPAMnetsValid,2021.1.4,Win32,60.04924038,,,,,,,,,,,,,,,,,,,,,,,,,,,,,,,,,,,,,,,,,,,,,,,,,,,,,,,,,,,,,,,,,shark,Animals,28,0,28,0,1,,,,,,,,,,,,,,,,,,
,,,,,,,,,,,,,,,90346,001,2022-04-26_18h31.23.653,SPAMnetsValid,2021.1.4,Win32,60.04924038,,,,,,,,,,,,,,,,,,,,,,,,,,,,,,,,,,,,,,,,,,,,,,,,,,,,,,,,,,,,,,,,,,,,,,,,0,0,0,0,1,Animals,,,,,,,,,,,,
,,,,,,,,,,,,,,,90346,001,2022-04-26_18h31.23.653,SPAMnetsValid,2021.1.4,Win32,60.04924038,,,,,,,,,,,,,,,,,,,,,,,,,,,,,,,,,,,,,,,,,,,,,,,,,,,,,,,,,,,,,,,,,,,,,,,,,,,,,,2,8.5047,0,0,0,0,1,"I enjoy concentrating on a fantasy or daydream and exploring all its possibilities, letting it grow and develop.",0,1,,
,,,,,,,,,,,,,,,90346,001,2022-04-26_18h31.23.653,SPAMnetsValid,2021.1.4,Win32,60.04924038,,,,,,,,,,,,,,,,,,,,,,,,,,,,,,,,,,,,,,,,,,,,,,,,,,,,,,,,,,,,,,,,,,,,,,,,,,,,,,4,3.2653,0,1,1,1,1,I think it's interesting to learn and develop new hobbies.,0,2,,
,,,,,,,,,,,,,,,90346,001,2022-04-26_18h31.23.653,SPAMnetsValid,2021.1.4,Win32,60.04924038,,,,,,,,,,,,,,,,,,,,,,,,,,,,,,,,,,,,,,,,,,,,,,,,,,,,,,,,,,,,,,,,,,,,,,,,,,,,,,4,3.8711,0,2,2,2,1,I am intrigued by the patterns I find in art and nature.,0,3,,
,,,,,,,,,,,,,,,90346,001,2022-04-26_18h31.23.653,SPAMnetsValid,2021.1.4,Win32,60.04924038,,,,,,,,,,,,,,,,,,,,,,,,,,,,,,,,,,,,,,,,,,,,,,,,,,,,,,,,,,,,,,,,,,,,,,,,,,,,,,3,7.9562,0,3,3,3,1,I believe letting students hear controversial speakers can only confuse and mislead them.,1,4,,
,,,,,,,,,,,,,,,90346,001,2022-04-26_18h31.23.653,SPAMnetsValid,2021.1.4,Win32,60.04924038,,,,,,,,,,,,,,,,,,,,,,,,,,,,,,,,,,,,,,,,,,,,,,,,,,,,,,,,,,,,,,,,,,,,,,,,,,,,,,2,4.1679,0,4,4,4,1,Poetry has little or no effect on me.,1,5,,
,,,,,,,,,,,,,,,90346,001,2022-04-26_18h31.23.653,SPAMnetsValid,2021.1.4,Win32,60.04924038,,,,,,,,,,,,,,,,,,,,,,,,,,,,,,,,,,,,,,,,,,,,,,,,,,,,,,,,,,,,,,,,,,,,,,,,,,,,,,3,8.989,0,5,5,5,1,I would have difficulty just letting my mind wander without control or guidance.,1,6,,
,,,,,,,,,,,,,,,90346,001,2022-04-26_18h31.23.653,SPAMnetsValid,2021.1.4,Win32,60.04924038,,,,,,,,,,,,,,,,,,,,,,,,,,,,,,,,,,,,,,,,,,,,,,,,,,,,,,,,,,,,,,,,,,,,,,,,,,,,,,2,11.6729,0,6,6,6,1,I seldom notice the moods or feelings that different environments produce.,1,7,,
,,,,,,,,,,,,,,,90346,001,2022-04-26_18h31.23.653,SPAMnetsValid,2021.1.4,Win32,60.04924038,,,,,,,,,,,,,,,,,,,,,,,,,,,,,,,,,,,,,,,,,,,,,,,,,,,,,,,,,,,,,,,,,,,,,,,,,,,,,,5,3.0946,0,7,7,7,1,I experience a wide range of emotions or feelings.,0,8,,
,,,,,,,,,,,,,,,90346,001,2022-04-26_18h31.23.653,SPAMnetsValid,2021.1.4,Win32,60.04924038,,,,,,,,,,,,,,,,,,,,,,,,,,,,,,,,,,,,,,,,,,,,,,,,,,,,,,,,,,,,,,,,,,,,,,,,,,,,,,4,4.8386,0,8,8,8,1,"Sometimes when I am reading poetry or looking at a work of art, I feel a chill or wave of excitement.",0,9,,
,,,,,,,,,,,,,,,90346,001,2022-04-26_18h31.23.653,SPAMnetsValid,2021.1.4,Win32,60.04924038,,,,,,,,,,,,,,,,,,,,,,,,,,,,,,,,,,,,,,,,,,,,,,,,,,,,,,,,,,,,,,,,,,,,,,,,,,,,,,2,6.2203,0,9,9,9,1,I have little interest in speculating on the nature of the universe or the human condition.,1,10,,
,,,,,,,,,,,,,,,90346,001,2022-04-26_18h31.23.653,SPAMnetsValid,2021.1.4,Win32,60.04924038,,,,,,,,,,,,,,,,,,,,,,,,,,,,,,,,,,,,,,,,,,,,,,,,,,,,,,,,,,,,,,,,,,,,,,,,,,,,,,4,2.8096,0,10,10,10,1,I have a lot of intellectual curiosity.,0,11,,
,,,,,,,,,,,,,,,90346,001,2022-04-26_18h31.23.653,SPAMnetsValid,2021.1.4,Win32,60.04924038,,,,,,,,,,,,,,,,,,,,,,,,,,,,,,,,,,,,,,,,,,,,,,,,,,,,,,,,,,,,,,,,,,,,,,,,,,,,,,4,6.3313,0,11,11,11,1,I often enjoy playing with theories or abstract ideas.,0,12,,
,,,,,,,,,,,,,,,90346,001,2022-04-26_18h31.23.653,SPAMnetsValid,2021.1.4,Win32,60.04924038,,,,,,,,,,,,,,,,,,,,,,,,,,,,,,,,,,,,,,,,,,,,,,,,,,,,,,,,,,,,,,,,,,,,,,,,,,,,,,,,,,,,,,,,return,14.963
