key_resp_3.keys,key_resp_3.rt,slider_2.response,slider_2.rt,rjt_rating,rjt_RT,trials_24.thisRepN,trials_24.thisTrialN,trials_24.thisN,trials_24.thisIndex,trials_24.ran,rjt_order,word1,word2,attention,participant,session,date,expName,psychopyVersion,OS,frameRate,trials_4.thisRepN,trials_4.thisTrialN,trials_4.thisN,trials_4.thisIndex,trials_4.ran,trials_5.thisRepN,trials_5.thisTrialN,trials_5.thisN,trials_5.thisIndex,trials_5.ran,repOne,repTwo,slider.response,slider.rt,trials_22.thisRepN,trials_22.thisTrialN,trials_22.thisN,trials_22.thisIndex,trials_22.ran,trials_99.thisRepN,trials_99.thisTrialN,trials_99.thisN,trials_99.thisIndex,trials_99.ran,slider_extend_2.response,slider_extend_2.rt,trials_6.thisRepN,trials_6.thisTrialN,trials_6.thisN,trials_6.thisIndex,trials_6.ran,vCue2,R1,R2,R3,R4,correct,sliderVocab.response,sliderVocab.rt,trials_7.thisRepN,trials_7.thisTrialN,trials_7.thisN,trials_7.thisIndex,trials_7.ran,VocabCue,VR1,VR2,VR3,VR4,VR5,VocabCorrect,AUT_resp,AUT_label,trials.thisRepN,trials.thisTrialN,trials.thisN,trials.thisIndex,trials.ran,trials_2.thisRepN,trials_2.thisTrialN,trials_2.thisN,trials_2.thisIndex,trials_2.ran,aut_prompt,VF_response,VF_tag,trials_16.thisRepN,trials_16.thisTrialN,trials_16.thisN,trials_16.thisIndex,trials_16.ran,trials_17.thisRepN,trials_17.thisTrialN,trials_17.thisN,trials_17.thisIndex,trials_17.ran,VFcond,open_slider.response,open_slider.rt,trials_3.thisRepN,trials_3.thisTrialN,trials_3.thisN,trials_3.thisIndex,trials_3.ran,OpenQ,Rev,OPEN_ORDER,key_resp_2.keys,key_resp_2.rt
return,8.5668,5,9.4072,5,9.4072,0,0,0,53,1,177,chocolate,strawberry,,90348,001,2022-04-28_22h35.44.002,SPAMnetsValid,2021.1.4,MacIntel,59.97720866,,,,,,,,,,,,,,,,,,,,,,,,,,,,,,,,,,,,,,,,,,,,,,,,,,,,,,,,,,,,,,,,,,,,,,,,,,,,,,,,,,,,,,,,,
,,6,2.6155,6,2.6155,0,1,1,43,1,185,cactus,rose,,90348,001,2022-04-28_22h35.44.002,SPAMnetsValid,2021.1.4,MacIntel,59.97720866,,,,,,,,,,,,,,,,,,,,,,,,,,,,,,,,,,,,,,,,,,,,,,,,,,,,,,,,,,,,,,,,,,,,,,,,,,,,,,,,,,,,,,,,,
,,4,1.8491,4,1.8491,0,2,2,34,1,153,carrot,pretzel,,90348,001,2022-04-28_22h35.44.002,SPAMnetsValid,2021.1.4,MacIntel,59.97720866,,,,,,,,,,,,,,,,,,,,,,,,,,,,,,,,,,,,,,,,,,,,,,,,,,,,,,,,,,,,,,,,,,,,,,,,,,,,,,,,,,,,,,,,,
,,6,2.0315,6,2.0315,0,3,3,66,1,150,microwave,refrigerator,,90348,001,2022-04-28_22h35.44.002,SPAMnetsValid,2021.1.4,MacIntel,59.97720866,,,,,,,,,,,,,,,,,,,,,,,,,,,,,,,,,,,,,,,,,,,,,,,,,,,,,,,,,,,,,,,,,,,,,,,,,,,,,,,,,,,,,,,,,
,,3,1.8412,3,1.8412,0,4,4,0,1,106,cake,strawberry,,90348,001,2022-04-28_22h35.44.002,SPAMnetsValid,2021.1.4,MacIntel,59.97720866,,,,,,,,,,,,,,,,,,,,,,,,,,,,,,,,,,,,,,,,,,,,,,,,,,,,,,,,,,,,,,,,,,,,,,,,,,,,,,,,,,,,,,,,,
,,1,1.6166,1,1.6166,0,5,5,68,1,180,tree,yogurt,,90348,001,2022-04-28_22h35.44.002,SPAMnetsValid,2021.1.4,MacIntel,59.97720866,,,,,,,,,,,,,,,,,,,,,,,,,,,,,,,,,,,,,,,,,,,,,,,,,,,,,,,,,,,,,,,,,,,,,,,,,,,,,,,,,,,,,,,,,
,,7,2.3506,7,2.3506,0,6,6,27,1,158,cookie,oven,,90348,001,2022-04-28_22h35.44.002,SPAMnetsValid,2021.1.4,MacIntel,59.97720866,,,,,,,,,,,,,,,,,,,,,,,,,,,,,,,,,,,,,,,,,,,,,,,,,,,,,,,,,,,,,,,,,,,,,,,,,,,,,,,,,,,,,,,,,
,,5,1.8679,5,1.8679,0,7,7,85,1,115,refrigerator,tomato,,90348,001,2022-04-28_22h35.44.002,SPAMnetsValid,2021.1.4,MacIntel,59.97720866,,,,,,,,,,,,,,,,,,,,,,,,,,,,,,,,,,,,,,,,,,,,,,,,,,,,,,,,,,,,,,,,,,,,,,,,,,,,,,,,,,,,,,,,,
,,3,2.1845,3,2.1845,0,8,8,80,1,146,pretzel,tree,,90348,001,2022-04-28_22h35.44.002,SPAMnetsValid,2021.1.4,MacIntel,59.97720866,,,,,,,,,,,,,,,,,,,,,,,,,,,,,,,,,,,,,,,,,,,,,,,,,,,,,,,,,,,,,,,,,,,,,,,,,,,,,,,,,,,,,,,,,
,,1,1.6617,1,1.6617,0,9,9,84,1,130,microwave,yogurt,,90348,001,2022-04-28_22h35.44.002,SPAMnetsValid,2021.1.4,MacIntel,59.97720866,,,,,,,,,,,,,,,,,,,,,,,,,,,,,,,,,,,,,,,,,,,,,,,,,,,,,,,,,,,,,,,,,,,,,,,,,,,,,,,,,,,,,,,,,
,,1,1.4657,1,1.4657,0,10,10,67,1,96,oven,strawberry,,90348,001,2022-04-28_22h35.44.002,SPAMnetsValid,2021.1.4,MacIntel,59.97720866,,,,,,,,,,,,,,,,,,,,,,,,,,,,,,,,,,,,,,,,,,,,,,,,,,,,,,,,,,,,,,,,,,,,,,,,,,,,,,,,,,,,,,,,,
,,6,1.5833,6,1.5833,0,11,11,7,1,188,flower,tree,,90348,001,2022-04-28_22h35.44.002,SPAMnetsValid,2021.1.4,MacIntel,59.97720866,,,,,,,,,,,,,,,,,,,,,,,,,,,,,,,,,,,,,,,,,,,,,,,,,,,,,,,,,,,,,,,,,,,,,,,,,,,,,,,,,,,,,,,,,
,,6,1.667,6,1.667,0,12,12,61,1,138,flower,rose,,90348,001,2022-04-28_22h35.44.002,SPAMnetsValid,2021.1.4,MacIntel,59.97720866,,,,,,,,,,,,,,,,,,,,,,,,,,,,,,,,,,,,,,,,,,,,,,,,,,,,,,,,,,,,,,,,,,,,,,,,,,,,,,,,,,,,,,,,,
,,9,1.4216,9,1.4216,0,13,13,86,1,193,melon,melon,CHECK,90348,001,2022-04-28_22h35.44.002,SPAMnetsValid,2021.1.4,MacIntel,59.97720866,,,,,,,,,,,,,,,,,,,,,,,,,,,,,,,,,,,,,,,,,,,,,,,,,,,,,,,,,,,,,,,,,,,,,,,,,,,,,,,,,,,,,,,,,
,,4,5.2285,4,5.2285,0,14,14,29,1,163,melon,refrigerator,,90348,001,2022-04-28_22h35.44.002,SPAMnetsValid,2021.1.4,MacIntel,59.97720866,,,,,,,,,,,,,,,,,,,,,,,,,,,,,,,,,,,,,,,,,,,,,,,,,,,,,,,,,,,,,,,,,,,,,,,,,,,,,,,,,,,,,,,,,
,,2,2.3575,2,2.3575,0,15,15,94,1,133,cake,flower,,90348,001,2022-04-28_22h35.44.002,SPAMnetsValid,2021.1.4,MacIntel,59.97720866,,,,,,,,,,,,,,,,,,,,,,,,,,,,,,,,,,,,,,,,,,,,,,,,,,,,,,,,,,,,,,,,,,,,,,,,,,,,,,,,,,,,,,,,,
,,3,1.9353,3,1.9353,0,16,16,89,1,140,cookie,refrigerator,,90348,001,2022-04-28_22h35.44.002,SPAMnetsValid,2021.1.4,MacIntel,59.97720866,,,,,,,,,,,,,,,,,,,,,,,,,,,,,,,,,,,,,,,,,,,,,,,,,,,,,,,,,,,,,,,,,,,,,,,,,,,,,,,,,,,,,,,,,
,,1,1.3426,1,1.3426,0,17,17,54,1,101,cactus,kitchen,,90348,001,2022-04-28_22h35.44.002,SPAMnetsValid,2021.1.4,MacIntel,59.97720866,,,,,,,,,,,,,,,,,,,,,,,,,,,,,,,,,,,,,,,,,,,,,,,,,,,,,,,,,,,,,,,,,,,,,,,,,,,,,,,,,,,,,,,,,
,,1,1.3697,1,1.3697,0,18,18,12,1,162,microwave,tomato,,90348,001,2022-04-28_22h35.44.002,SPAMnetsValid,2021.1.4,MacIntel,59.97720866,,,,,,,,,,,,,,,,,,,,,,,,,,,,,,,,,,,,,,,,,,,,,,,,,,,,,,,,,,,,,,,,,,,,,,,,,,,,,,,,,,,,,,,,,
,,1,1.4511,1,1.4511,0,19,19,45,1,179,broom,oven,,90348,001,2022-04-28_22h35.44.002,SPAMnetsValid,2021.1.4,MacIntel,59.97720866,,,,,,,,,,,,,,,,,,,,,,,,,,,,,,,,,,,,,,,,,,,,,,,,,,,,,,,,,,,,,,,,,,,,,,,,,,,,,,,,,,,,,,,,,
,,1,1.681,1,1.681,0,20,20,74,1,128,melon,microwave,,90348,001,2022-04-28_22h35.44.002,SPAMnetsValid,2021.1.4,MacIntel,59.97720866,,,,,,,,,,,,,,,,,,,,,,,,,,,,,,,,,,,,,,,,,,,,,,,,,,,,,,,,,,,,,,,,,,,,,,,,,,,,,,,,,,,,,,,,,
,,7,2.2144,7,2.2144,0,21,21,14,1,120,microwave,oven,,90348,001,2022-04-28_22h35.44.002,SPAMnetsValid,2021.1.4,MacIntel,59.97720866,,,,,,,,,,,,,,,,,,,,,,,,,,,,,,,,,,,,,,,,,,,,,,,,,,,,,,,,,,,,,,,,,,,,,,,,,,,,,,,,,,,,,,,,,
,,4,1.8815,4,1.8815,0,22,22,69,1,124,oven,refrigerator,,90348,001,2022-04-28_22h35.44.002,SPAMnetsValid,2021.1.4,MacIntel,59.97720866,,,,,,,,,,,,,,,,,,,,,,,,,,,,,,,,,,,,,,,,,,,,,,,,,,,,,,,,,,,,,,,,,,,,,,,,,,,,,,,,,,,,,,,,,
,,1,3.3343,1,3.3343,0,23,23,20,1,149,broom,tomato,,90348,001,2022-04-28_22h35.44.002,SPAMnetsValid,2021.1.4,MacIntel,59.97720866,,,,,,,,,,,,,,,,,,,,,,,,,,,,,,,,,,,,,,,,,,,,,,,,,,,,,,,,,,,,,,,,,,,,,,,,,,,,,,,,,,,,,,,,,
,,7,1.7981,7,1.7981,0,24,24,51,1,168,cactus,flower,,90348,001,2022-04-28_22h35.44.002,SPAMnetsValid,2021.1.4,MacIntel,59.97720866,,,,,,,,,,,,,,,,,,,,,,,,,,,,,,,,,,,,,,,,,,,,,,,,,,,,,,,,,,,,,,,,,,,,,,,,,,,,,,,,,,,,,,,,,
,,9,1.1551,9,1.1551,0,25,25,25,1,194,cactus,cactus,CHECK,90348,001,2022-04-28_22h35.44.002,SPAMnetsValid,2021.1.4,MacIntel,59.97720866,,,,,,,,,,,,,,,,,,,,,,,,,,,,,,,,,,,,,,,,,,,,,,,,,,,,,,,,,,,,,,,,,,,,,,,,,,,,,,,,,,,,,,,,,
,,2,2.2631,2,2.2631,0,26,26,18,1,119,strawberry,tree,,90348,001,2022-04-28_22h35.44.002,SPAMnetsValid,2021.1.4,MacIntel,59.97720866,,,,,,,,,,,,,,,,,,,,,,,,,,,,,,,,,,,,,,,,,,,,,,,,,,,,,,,,,,,,,,,,,,,,,,,,,,,,,,,,,,,,,,,,,
,,1,1.6787,1,1.6787,0,27,27,73,1,135,carrot,oven,,90348,001,2022-04-28_22h35.44.002,SPAMnetsValid,2021.1.4,MacIntel,59.97720866,,,,,,,,,,,,,,,,,,,,,,,,,,,,,,,,,,,,,,,,,,,,,,,,,,,,,,,,,,,,,,,,,,,,,,,,,,,,,,,,,,,,,,,,,
,,1,1.4804,1,1.4804,0,28,28,32,1,182,flower,refrigerator,,90348,001,2022-04-28_22h35.44.002,SPAMnetsValid,2021.1.4,MacIntel,59.97720866,,,,,,,,,,,,,,,,,,,,,,,,,,,,,,,,,,,,,,,,,,,,,,,,,,,,,,,,,,,,,,,,,,,,,,,,,,,,,,,,,,,,,,,,,
,,9,1.5792,9,1.5792,0,29,29,44,1,116,cake,chocolate,,90348,001,2022-04-28_22h35.44.002,SPAMnetsValid,2021.1.4,MacIntel,59.97720866,,,,,,,,,,,,,,,,,,,,,,,,,,,,,,,,,,,,,,,,,,,,,,,,,,,,,,,,,,,,,,,,,,,,,,,,,,,,,,,,,,,,,,,,,
,,3,2.4989,3,2.4989,0,30,30,63,1,137,microwave,tree,,90348,001,2022-04-28_22h35.44.002,SPAMnetsValid,2021.1.4,MacIntel,59.97720866,,,,,,,,,,,,,,,,,,,,,,,,,,,,,,,,,,,,,,,,,,,,,,,,,,,,,,,,,,,,,,,,,,,,,,,,,,,,,,,,,,,,,,,,,
,,7,2.1808,7,2.1808,0,31,31,17,1,99,garden,melon,,90348,001,2022-04-28_22h35.44.002,SPAMnetsValid,2021.1.4,MacIntel,59.97720866,,,,,,,,,,,,,,,,,,,,,,,,,,,,,,,,,,,,,,,,,,,,,,,,,,,,,,,,,,,,,,,,,,,,,,,,,,,,,,,,,,,,,,,,,
,,2,2.0459,2,2.0459,0,32,32,30,1,125,carrot,tree,,90348,001,2022-04-28_22h35.44.002,SPAMnetsValid,2021.1.4,MacIntel,59.97720866,,,,,,,,,,,,,,,,,,,,,,,,,,,,,,,,,,,,,,,,,,,,,,,,,,,,,,,,,,,,,,,,,,,,,,,,,,,,,,,,,,,,,,,,,
,,6,1.3843,6,1.3843,0,33,33,65,1,160,cookie,kitchen,,90348,001,2022-04-28_22h35.44.002,SPAMnetsValid,2021.1.4,MacIntel,59.97720866,,,,,,,,,,,,,,,,,,,,,,,,,,,,,,,,,,,,,,,,,,,,,,,,,,,,,,,,,,,,,,,,,,,,,,,,,,,,,,,,,,,,,,,,,
,,3,1.297,3,1.297,0,34,34,46,1,123,cookie,tree,,90348,001,2022-04-28_22h35.44.002,SPAMnetsValid,2021.1.4,MacIntel,59.97720866,,,,,,,,,,,,,,,,,,,,,,,,,,,,,,,,,,,,,,,,,,,,,,,,,,,,,,,,,,,,,,,,,,,,,,,,,,,,,,,,,,,,,,,,,
,,2,3.5473,2,3.5473,0,35,35,95,1,121,broom,microwave,,90348,001,2022-04-28_22h35.44.002,SPAMnetsValid,2021.1.4,MacIntel,59.97720866,,,,,,,,,,,,,,,,,,,,,,,,,,,,,,,,,,,,,,,,,,,,,,,,,,,,,,,,,,,,,,,,,,,,,,,,,,,,,,,,,,,,,,,,,
,,1,1.2506,1,1.2506,0,36,36,57,1,127,cactus,chocolate,,90348,001,2022-04-28_22h35.44.002,SPAMnetsValid,2021.1.4,MacIntel,59.97720866,,,,,,,,,,,,,,,,,,,,,,,,,,,,,,,,,,,,,,,,,,,,,,,,,,,,,,,,,,,,,,,,,,,,,,,,,,,,,,,,,,,,,,,,,
,,1,1.2631,1,1.2631,0,37,37,78,1,132,broom,tree,,90348,001,2022-04-28_22h35.44.002,SPAMnetsValid,2021.1.4,MacIntel,59.97720866,,,,,,,,,,,,,,,,,,,,,,,,,,,,,,,,,,,,,,,,,,,,,,,,,,,,,,,,,,,,,,,,,,,,,,,,,,,,,,,,,,,,,,,,,
,,8,2.0314,8,2.0314,0,38,38,52,1,110,chocolate,cookie,,90348,001,2022-04-28_22h35.44.002,SPAMnetsValid,2021.1.4,MacIntel,59.97720866,,,,,,,,,,,,,,,,,,,,,,,,,,,,,,,,,,,,,,,,,,,,,,,,,,,,,,,,,,,,,,,,,,,,,,,,,,,,,,,,,,,,,,,,,
,,3,1.73,3,1.73,0,39,39,40,1,165,onion,rose,,90348,001,2022-04-28_22h35.44.002,SPAMnetsValid,2021.1.4,MacIntel,59.97720866,,,,,,,,,,,,,,,,,,,,,,,,,,,,,,,,,,,,,,,,,,,,,,,,,,,,,,,,,,,,,,,,,,,,,,,,,,,,,,,,,,,,,,,,,
,,5,1.9141,5,1.9141,0,40,40,77,1,172,kitchen,melon,,90348,001,2022-04-28_22h35.44.002,SPAMnetsValid,2021.1.4,MacIntel,59.97720866,,,,,,,,,,,,,,,,,,,,,,,,,,,,,,,,,,,,,,,,,,,,,,,,,,,,,,,,,,,,,,,,,,,,,,,,,,,,,,,,,,,,,,,,,
,,1,1.8963,1,1.8963,0,41,41,71,1,187,cactus,microwave,,90348,001,2022-04-28_22h35.44.002,SPAMnetsValid,2021.1.4,MacIntel,59.97720866,,,,,,,,,,,,,,,,,,,,,,,,,,,,,,,,,,,,,,,,,,,,,,,,,,,,,,,,,,,,,,,,,,,,,,,,,,,,,,,,,,,,,,,,,
,,1,1.3624,1,1.3624,0,42,42,64,1,157,refrigerator,rose,,90348,001,2022-04-28_22h35.44.002,SPAMnetsValid,2021.1.4,MacIntel,59.97720866,,,,,,,,,,,,,,,,,,,,,,,,,,,,,,,,,,,,,,,,,,,,,,,,,,,,,,,,,,,,,,,,,,,,,,,,,,,,,,,,,,,,,,,,,
,,7,1.9307,7,1.9307,0,43,43,83,1,100,garden,tomato,,90348,001,2022-04-28_22h35.44.002,SPAMnetsValid,2021.1.4,MacIntel,59.97720866,,,,,,,,,,,,,,,,,,,,,,,,,,,,,,,,,,,,,,,,,,,,,,,,,,,,,,,,,,,,,,,,,,,,,,,,,,,,,,,,,,,,,,,,,
,,1,1.3475,1,1.3475,0,44,44,50,1,126,kitchen,tree,,90348,001,2022-04-28_22h35.44.002,SPAMnetsValid,2021.1.4,MacIntel,59.97720866,,,,,,,,,,,,,,,,,,,,,,,,,,,,,,,,,,,,,,,,,,,,,,,,,,,,,,,,,,,,,,,,,,,,,,,,,,,,,,,,,,,,,,,,,
,,1,1.4776,1,1.4776,0,45,45,92,1,170,cookie,microwave,,90348,001,2022-04-28_22h35.44.002,SPAMnetsValid,2021.1.4,MacIntel,59.97720866,,,,,,,,,,,,,,,,,,,,,,,,,,,,,,,,,,,,,,,,,,,,,,,,,,,,,,,,,,,,,,,,,,,,,,,,,,,,,,,,,,,,,,,,,
,,7,1.6296,7,1.6296,0,46,46,35,1,147,cake,refrigerator,,90348,001,2022-04-28_22h35.44.002,SPAMnetsValid,2021.1.4,MacIntel,59.97720866,,,,,,,,,,,,,,,,,,,,,,,,,,,,,,,,,,,,,,,,,,,,,,,,,,,,,,,,,,,,,,,,,,,,,,,,,,,,,,,,,,,,,,,,,
,,9,1.5299,9,1.5299,0,47,47,39,1,112,cake,carrot,,90348,001,2022-04-28_22h35.44.002,SPAMnetsValid,2021.1.4,MacIntel,59.97720866,,,,,,,,,,,,,,,,,,,,,,,,,,,,,,,,,,,,,,,,,,,,,,,,,,,,,,,,,,,,,,,,,,,,,,,,,,,,,,,,,,,,,,,,,
,,5,1.7645,5,1.7645,0,48,48,8,1,97,chocolate,kitchen,,90348,001,2022-04-28_22h35.44.002,SPAMnetsValid,2021.1.4,MacIntel,59.97720866,,,,,,,,,,,,,,,,,,,,,,,,,,,,,,,,,,,,,,,,,,,,,,,,,,,,,,,,,,,,,,,,,,,,,,,,,,,,,,,,,,,,,,,,,
,,5,1.9992,5,1.9992,0,49,49,72,1,181,carrot,kitchen,,90348,001,2022-04-28_22h35.44.002,SPAMnetsValid,2021.1.4,MacIntel,59.97720866,,,,,,,,,,,,,,,,,,,,,,,,,,,,,,,,,,,,,,,,,,,,,,,,,,,,,,,,,,,,,,,,,,,,,,,,,,,,,,,,,,,,,,,,,
,,3,2.0957,3,2.0957,0,50,50,23,1,148,flower,melon,,90348,001,2022-04-28_22h35.44.002,SPAMnetsValid,2021.1.4,MacIntel,59.97720866,,,,,,,,,,,,,,,,,,,,,,,,,,,,,,,,,,,,,,,,,,,,,,,,,,,,,,,,,,,,,,,,,,,,,,,,,,,,,,,,,,,,,,,,,
,,1,1.3117,1,1.3117,0,51,51,13,1,105,cactus,oven,,90348,001,2022-04-28_22h35.44.002,SPAMnetsValid,2021.1.4,MacIntel,59.97720866,,,,,,,,,,,,,,,,,,,,,,,,,,,,,,,,,,,,,,,,,,,,,,,,,,,,,,,,,,,,,,,,,,,,,,,,,,,,,,,,,,,,,,,,,
,,1,1.6475,1,1.6475,0,52,52,11,1,117,melon,strawberry,,90348,001,2022-04-28_22h35.44.002,SPAMnetsValid,2021.1.4,MacIntel,59.97720866,,,,,,,,,,,,,,,,,,,,,,,,,,,,,,,,,,,,,,,,,,,,,,,,,,,,,,,,,,,,,,,,,,,,,,,,,,,,,,,,,,,,,,,,,
,,6,1.7805,6,1.7805,0,53,53,42,1,184,oven,pretzel,,90348,001,2022-04-28_22h35.44.002,SPAMnetsValid,2021.1.4,MacIntel,59.97720866,,,,,,,,,,,,,,,,,,,,,,,,,,,,,,,,,,,,,,,,,,,,,,,,,,,,,,,,,,,,,,,,,,,,,,,,,,,,,,,,,,,,,,,,,
,,1,1.3627,1,1.3627,0,54,54,59,1,164,cookie,garden,,90348,001,2022-04-28_22h35.44.002,SPAMnetsValid,2021.1.4,MacIntel,59.97720866,,,,,,,,,,,,,,,,,,,,,,,,,,,,,,,,,,,,,,,,,,,,,,,,,,,,,,,,,,,,,,,,,,,,,,,,,,,,,,,,,,,,,,,,,
,,1,1.4611,1,1.4611,0,55,55,49,1,152,cactus,strawberry,,90348,001,2022-04-28_22h35.44.002,SPAMnetsValid,2021.1.4,MacIntel,59.97720866,,,,,,,,,,,,,,,,,,,,,,,,,,,,,,,,,,,,,,,,,,,,,,,,,,,,,,,,,,,,,,,,,,,,,,,,,,,,,,,,,,,,,,,,,
,,2,3.5986,2,3.5986,0,56,56,5,1,108,carrot,chocolate,,90348,001,2022-04-28_22h35.44.002,SPAMnetsValid,2021.1.4,MacIntel,59.97720866,,,,,,,,,,,,,,,,,,,,,,,,,,,,,,,,,,,,,,,,,,,,,,,,,,,,,,,,,,,,,,,,,,,,,,,,,,,,,,,,,,,,,,,,,
,,1,1.2483,1,1.2483,0,57,57,6,1,151,microwave,onion,,90348,001,2022-04-28_22h35.44.002,SPAMnetsValid,2021.1.4,MacIntel,59.97720866,,,,,,,,,,,,,,,,,,,,,,,,,,,,,,,,,,,,,,,,,,,,,,,,,,,,,,,,,,,,,,,,,,,,,,,,,,,,,,,,,,,,,,,,,
,,1,1.1969,1,1.1969,0,58,58,90,1,190,microwave,strawberry,,90348,001,2022-04-28_22h35.44.002,SPAMnetsValid,2021.1.4,MacIntel,59.97720866,,,,,,,,,,,,,,,,,,,,,,,,,,,,,,,,,,,,,,,,,,,,,,,,,,,,,,,,,,,,,,,,,,,,,,,,,,,,,,,,,,,,,,,,,
,,1,6.6496,1,6.6496,0,59,59,3,1,129,cactus,refrigerator,,90348,001,2022-04-28_22h35.44.002,SPAMnetsValid,2021.1.4,MacIntel,59.97720866,,,,,,,,,,,,,,,,,,,,,,,,,,,,,,,,,,,,,,,,,,,,,,,,,,,,,,,,,,,,,,,,,,,,,,,,,,,,,,,,,,,,,,,,,
,,1,2.515,1,2.515,0,60,60,4,1,109,broom,strawberry,,90348,001,2022-04-28_22h35.44.002,SPAMnetsValid,2021.1.4,MacIntel,59.97720866,,,,,,,,,,,,,,,,,,,,,,,,,,,,,,,,,,,,,,,,,,,,,,,,,,,,,,,,,,,,,,,,,,,,,,,,,,,,,,,,,,,,,,,,,
,,1,2.0635,1,2.0635,0,61,61,19,1,183,cake,rose,,90348,001,2022-04-28_22h35.44.002,SPAMnetsValid,2021.1.4,MacIntel,59.97720866,,,,,,,,,,,,,,,,,,,,,,,,,,,,,,,,,,,,,,,,,,,,,,,,,,,,,,,,,,,,,,,,,,,,,,,,,,,,,,,,,,,,,,,,,
,,2,1.3467,2,1.3467,0,62,62,81,1,104,garden,microwave,,90348,001,2022-04-28_22h35.44.002,SPAMnetsValid,2021.1.4,MacIntel,59.97720866,,,,,,,,,,,,,,,,,,,,,,,,,,,,,,,,,,,,,,,,,,,,,,,,,,,,,,,,,,,,,,,,,,,,,,,,,,,,,,,,,,,,,,,,,
,,6,1.5299,6,1.5299,0,63,63,76,1,102,chocolate,refrigerator,,90348,001,2022-04-28_22h35.44.002,SPAMnetsValid,2021.1.4,MacIntel,59.97720866,,,,,,,,,,,,,,,,,,,,,,,,,,,,,,,,,,,,,,,,,,,,,,,,,,,,,,,,,,,,,,,,,,,,,,,,,,,,,,,,,,,,,,,,,
,,2,1.5791,2,1.5791,0,64,64,38,1,155,carrot,cookie,,90348,001,2022-04-28_22h35.44.002,SPAMnetsValid,2021.1.4,MacIntel,59.97720866,,,,,,,,,,,,,,,,,,,,,,,,,,,,,,,,,,,,,,,,,,,,,,,,,,,,,,,,,,,,,,,,,,,,,,,,,,,,,,,,,,,,,,,,,
,,1,1.279,1,1.279,0,65,65,88,1,171,cake,tomato,,90348,001,2022-04-28_22h35.44.002,SPAMnetsValid,2021.1.4,MacIntel,59.97720866,,,,,,,,,,,,,,,,,,,,,,,,,,,,,,,,,,,,,,,,,,,,,,,,,,,,,,,,,,,,,,,,,,,,,,,,,,,,,,,,,,,,,,,,,
,,6,1.4973,6,1.4973,0,66,66,36,1,161,kitchen,pretzel,,90348,001,2022-04-28_22h35.44.002,SPAMnetsValid,2021.1.4,MacIntel,59.97720866,,,,,,,,,,,,,,,,,,,,,,,,,,,,,,,,,,,,,,,,,,,,,,,,,,,,,,,,,,,,,,,,,,,,,,,,,,,,,,,,,,,,,,,,,
,,3,1.4137,3,1.4137,0,67,67,91,1,166,cake,yogurt,,90348,001,2022-04-28_22h35.44.002,SPAMnetsValid,2021.1.4,MacIntel,59.97720866,,,,,,,,,,,,,,,,,,,,,,,,,,,,,,,,,,,,,,,,,,,,,,,,,,,,,,,,,,,,,,,,,,,,,,,,,,,,,,,,,,,,,,,,,
,,2,1.4968,2,1.4968,0,68,68,41,1,175,melon,onion,,90348,001,2022-04-28_22h35.44.002,SPAMnetsValid,2021.1.4,MacIntel,59.97720866,,,,,,,,,,,,,,,,,,,,,,,,,,,,,,,,,,,,,,,,,,,,,,,,,,,,,,,,,,,,,,,,,,,,,,,,,,,,,,,,,,,,,,,,,
,,1,1.2144,1,1.2144,0,69,69,31,1,156,melon,rose,,90348,001,2022-04-28_22h35.44.002,SPAMnetsValid,2021.1.4,MacIntel,59.97720866,,,,,,,,,,,,,,,,,,,,,,,,,,,,,,,,,,,,,,,,,,,,,,,,,,,,,,,,,,,,,,,,,,,,,,,,,,,,,,,,,,,,,,,,,
,,3,1.3795,3,1.3795,0,70,70,93,1,134,carrot,flower,,90348,001,2022-04-28_22h35.44.002,SPAMnetsValid,2021.1.4,MacIntel,59.97720866,,,,,,,,,,,,,,,,,,,,,,,,,,,,,,,,,,,,,,,,,,,,,,,,,,,,,,,,,,,,,,,,,,,,,,,,,,,,,,,,,,,,,,,,,
,,5,1.8476,5,1.8476,0,71,71,22,1,142,garden,tree,,90348,001,2022-04-28_22h35.44.002,SPAMnetsValid,2021.1.4,MacIntel,59.97720866,,,,,,,,,,,,,,,,,,,,,,,,,,,,,,,,,,,,,,,,,,,,,,,,,,,,,,,,,,,,,,,,,,,,,,,,,,,,,,,,,,,,,,,,,
,,7,2.5302,7,2.5302,0,72,72,47,1,167,carrot,garden,,90348,001,2022-04-28_22h35.44.002,SPAMnetsValid,2021.1.4,MacIntel,59.97720866,,,,,,,,,,,,,,,,,,,,,,,,,,,,,,,,,,,,,,,,,,,,,,,,,,,,,,,,,,,,,,,,,,,,,,,,,,,,,,,,,,,,,,,,,
,,8,2.0639,8,2.0639,0,73,73,48,1,186,kitchen,yogurt,,90348,001,2022-04-28_22h35.44.002,SPAMnetsValid,2021.1.4,MacIntel,59.97720866,,,,,,,,,,,,,,,,,,,,,,,,,,,,,,,,,,,,,,,,,,,,,,,,,,,,,,,,,,,,,,,,,,,,,,,,,,,,,,,,,,,,,,,,,
,,3,1.6644,3,1.6644,0,74,74,21,1,159,cookie,flower,,90348,001,2022-04-28_22h35.44.002,SPAMnetsValid,2021.1.4,MacIntel,59.97720866,,,,,,,,,,,,,,,,,,,,,,,,,,,,,,,,,,,,,,,,,,,,,,,,,,,,,,,,,,,,,,,,,,,,,,,,,,,,,,,,,,,,,,,,,
,,1,1.9325,1,1.9325,0,75,75,62,1,189,onion,tree,,90348,001,2022-04-28_22h35.44.002,SPAMnetsValid,2021.1.4,MacIntel,59.97720866,,,,,,,,,,,,,,,,,,,,,,,,,,,,,,,,,,,,,,,,,,,,,,,,,,,,,,,,,,,,,,,,,,,,,,,,,,,,,,,,,,,,,,,,,
,,5,1.5802,5,1.5802,0,76,76,1,1,173,kitchen,tomato,,90348,001,2022-04-28_22h35.44.002,SPAMnetsValid,2021.1.4,MacIntel,59.97720866,,,,,,,,,,,,,,,,,,,,,,,,,,,,,,,,,,,,,,,,,,,,,,,,,,,,,,,,,,,,,,,,,,,,,,,,,,,,,,,,,,,,,,,,,
,,3,1.7799,3,1.7799,0,77,77,55,1,143,pretzel,rose,,90348,001,2022-04-28_22h35.44.002,SPAMnetsValid,2021.1.4,MacIntel,59.97720866,,,,,,,,,,,,,,,,,,,,,,,,,,,,,,,,,,,,,,,,,,,,,,,,,,,,,,,,,,,,,,,,,,,,,,,,,,,,,,,,,,,,,,,,,
,,6,2.8617,6,2.8617,0,78,78,56,1,113,refrigerator,strawberry,,90348,001,2022-04-28_22h35.44.002,SPAMnetsValid,2021.1.4,MacIntel,59.97720866,,,,,,,,,,,,,,,,,,,,,,,,,,,,,,,,,,,,,,,,,,,,,,,,,,,,,,,,,,,,,,,,,,,,,,,,,,,,,,,,,,,,,,,,,
,,3,1.8124,3,1.8124,0,79,79,16,1,111,carrot,microwave,,90348,001,2022-04-28_22h35.44.002,SPAMnetsValid,2021.1.4,MacIntel,59.97720866,,,,,,,,,,,,,,,,,,,,,,,,,,,,,,,,,,,,,,,,,,,,,,,,,,,,,,,,,,,,,,,,,,,,,,,,,,,,,,,,,,,,,,,,,
,,9,2.2961,9,2.2961,0,80,80,60,1,122,flower,garden,,90348,001,2022-04-28_22h35.44.002,SPAMnetsValid,2021.1.4,MacIntel,59.97720866,,,,,,,,,,,,,,,,,,,,,,,,,,,,,,,,,,,,,,,,,,,,,,,,,,,,,,,,,,,,,,,,,,,,,,,,,,,,,,,,,,,,,,,,,
,,1,1.4467,1,1.4467,0,81,81,82,1,98,pretzel,strawberry,,90348,001,2022-04-28_22h35.44.002,SPAMnetsValid,2021.1.4,MacIntel,59.97720866,,,,,,,,,,,,,,,,,,,,,,,,,,,,,,,,,,,,,,,,,,,,,,,,,,,,,,,,,,,,,,,,,,,,,,,,,,,,,,,,,,,,,,,,,
,,1,3.8469,1,3.8469,0,82,82,15,1,145,cactus,yogurt,,90348,001,2022-04-28_22h35.44.002,SPAMnetsValid,2021.1.4,MacIntel,59.97720866,,,,,,,,,,,,,,,,,,,,,,,,,,,,,,,,,,,,,,,,,,,,,,,,,,,,,,,,,,,,,,,,,,,,,,,,,,,,,,,,,,,,,,,,,
,,1,1.5301,1,1.5301,0,83,83,75,1,178,cactus,carrot,,90348,001,2022-04-28_22h35.44.002,SPAMnetsValid,2021.1.4,MacIntel,59.97720866,,,,,,,,,,,,,,,,,,,,,,,,,,,,,,,,,,,,,,,,,,,,,,,,,,,,,,,,,,,,,,,,,,,,,,,,,,,,,,,,,,,,,,,,,
,,6,1.9785,6,1.9785,0,84,84,87,1,114,cookie,strawberry,,90348,001,2022-04-28_22h35.44.002,SPAMnetsValid,2021.1.4,MacIntel,59.97720866,,,,,,,,,,,,,,,,,,,,,,,,,,,,,,,,,,,,,,,,,,,,,,,,,,,,,,,,,,,,,,,,,,,,,,,,,,,,,,,,,,,,,,,,,
,,2,1.8307,2,1.8307,0,85,85,24,1,169,onion,yogurt,,90348,001,2022-04-28_22h35.44.002,SPAMnetsValid,2021.1.4,MacIntel,59.97720866,,,,,,,,,,,,,,,,,,,,,,,,,,,,,,,,,,,,,,,,,,,,,,,,,,,,,,,,,,,,,,,,,,,,,,,,,,,,,,,,,,,,,,,,,
,,2,1.8625,2,1.8625,0,86,86,70,1,141,melon,tomato,,90348,001,2022-04-28_22h35.44.002,SPAMnetsValid,2021.1.4,MacIntel,59.97720866,,,,,,,,,,,,,,,,,,,,,,,,,,,,,,,,,,,,,,,,,,,,,,,,,,,,,,,,,,,,,,,,,,,,,,,,,,,,,,,,,,,,,,,,,
,,7,1.7954,7,1.7954,0,87,87,33,1,131,cactus,garden,,90348,001,2022-04-28_22h35.44.002,SPAMnetsValid,2021.1.4,MacIntel,59.97720866,,,,,,,,,,,,,,,,,,,,,,,,,,,,,,,,,,,,,,,,,,,,,,,,,,,,,,,,,,,,,,,,,,,,,,,,,,,,,,,,,,,,,,,,,
,,6,1.7455,6,1.7455,0,88,88,10,1,118,chocolate,oven,,90348,001,2022-04-28_22h35.44.002,SPAMnetsValid,2021.1.4,MacIntel,59.97720866,,,,,,,,,,,,,,,,,,,,,,,,,,,,,,,,,,,,,,,,,,,,,,,,,,,,,,,,,,,,,,,,,,,,,,,,,,,,,,,,,,,,,,,,,
,,2,1.6127,2,1.6127,0,89,89,26,1,107,rose,tomato,,90348,001,2022-04-28_22h35.44.002,SPAMnetsValid,2021.1.4,MacIntel,59.97720866,,,,,,,,,,,,,,,,,,,,,,,,,,,,,,,,,,,,,,,,,,,,,,,,,,,,,,,,,,,,,,,,,,,,,,,,,,,,,,,,,,,,,,,,,
,,2,1.7464,2,1.7464,0,90,90,9,1,176,cactus,tomato,,90348,001,2022-04-28_22h35.44.002,SPAMnetsValid,2021.1.4,MacIntel,59.97720866,,,,,,,,,,,,,,,,,,,,,,,,,,,,,,,,,,,,,,,,,,,,,,,,,,,,,,,,,,,,,,,,,,,,,,,,,,,,,,,,,,,,,,,,,
,,8,1.4291,8,1.4291,0,91,91,28,1,154,strawberry,yogurt,,90348,001,2022-04-28_22h35.44.002,SPAMnetsValid,2021.1.4,MacIntel,59.97720866,,,,,,,,,,,,,,,,,,,,,,,,,,,,,,,,,,,,,,,,,,,,,,,,,,,,,,,,,,,,,,,,,,,,,,,,,,,,,,,,,,,,,,,,,
,,5,1.9792,5,1.9792,0,92,92,96,1,136,chocolate,microwave,,90348,001,2022-04-28_22h35.44.002,SPAMnetsValid,2021.1.4,MacIntel,59.97720866,,,,,,,,,,,,,,,,,,,,,,,,,,,,,,,,,,,,,,,,,,,,,,,,,,,,,,,,,,,,,,,,,,,,,,,,,,,,,,,,,,,,,,,,,
,,3,1.5144,3,1.5144,0,93,93,79,1,103,pretzel,tomato,,90348,001,2022-04-28_22h35.44.002,SPAMnetsValid,2021.1.4,MacIntel,59.97720866,,,,,,,,,,,,,,,,,,,,,,,,,,,,,,,,,,,,,,,,,,,,,,,,,,,,,,,,,,,,,,,,,,,,,,,,,,,,,,,,,,,,,,,,,
,,1,1.713,1,1.713,0,94,94,58,1,144,cake,garden,,90348,001,2022-04-28_22h35.44.002,SPAMnetsValid,2021.1.4,MacIntel,59.97720866,,,,,,,,,,,,,,,,,,,,,,,,,,,,,,,,,,,,,,,,,,,,,,,,,,,,,,,,,,,,,,,,,,,,,,,,,,,,,,,,,,,,,,,,,
,,2,1.6956,2,1.6956,0,95,95,2,1,174,cake,pretzel,,90348,001,2022-04-28_22h35.44.002,SPAMnetsValid,2021.1.4,MacIntel,59.97720866,,,,,,,,,,,,,,,,,,,,,,,,,,,,,,,,,,,,,,,,,,,,,,,,,,,,,,,,,,,,,,,,,,,,,,,,,,,,,,,,,,,,,,,,,
,,2,2.1463,2,2.1463,0,96,96,37,1,139,carrot,strawberry,,90348,001,2022-04-28_22h35.44.002,SPAMnetsValid,2021.1.4,MacIntel,59.97720866,,,,,,,,,,,,,,,,,,,,,,,,,,,,,,,,,,,,,,,,,,,,,,,,,,,,,,,,,,,,,,,,,,,,,,,,,,,,,,,,,,,,,,,,,
,,,,,,,,,,,,,,,90348,001,2022-04-28_22h35.44.002,SPAMnetsValid,2021.1.4,MacIntel,59.97720866,0,0,0,0,1,,,,,,,,,,,,,,,,,,,,,,,,,,,,,,,,,,,,,,,,,,,,,,,,,,,,,,,,,,,,,,,,,,,,,,,,,,,,,,,,,,,,
,,,,,,,,,,,,,,,90348,001,2022-04-28_22h35.44.002,SPAMnetsValid,2021.1.4,MacIntel,59.97720866,,,,,,0,0,0,1,1,0,1,,,,,,,,,,,,,,,,,,,,,,,,,,,,,,,,,,,,,,,,,,,,,,,,,,,,,,,,,,,,,,,,,,,,,,,,,,,,,
,,,,2,2.8634,,,,,,35,flower,pretzel,,90348,001,2022-04-28_22h35.44.002,SPAMnetsValid,2021.1.4,MacIntel,59.97720866,,,,,,,,,,,,,2,2.8634,0,0,0,26,1,,,,,,,,,,,,,,,,,,,,,,,,,,,,,,,,,,,,,,,,,,,,,,,,,,,,,,,,,,,,,,,,,,,,,,
,,,,7,2.512,,,,,,94,kitchen,microwave,,90348,001,2022-04-28_22h35.44.002,SPAMnetsValid,2021.1.4,MacIntel,59.97720866,,,,,,,,,,,,,7,2.512,0,1,1,58,1,,,,,,,,,,,,,,,,,,,,,,,,,,,,,,,,,,,,,,,,,,,,,,,,,,,,,,,,,,,,,,,,,,,,,,
,,,,1,1.362,,,,,,44,cookie,melon,,90348,001,2022-04-28_22h35.44.002,SPAMnetsValid,2021.1.4,MacIntel,59.97720866,,,,,,,,,,,,,1,1.362,0,2,2,92,1,,,,,,,,,,,,,,,,,,,,,,,,,,,,,,,,,,,,,,,,,,,,,,,,,,,,,,,,,,,,,,,,,,,,,,
,,,,3,1.4146,,,,,,16,chocolate,flower,,90348,001,2022-04-28_22h35.44.002,SPAMnetsValid,2021.1.4,MacIntel,59.97720866,,,,,,,,,,,,,3,1.4146,0,3,3,22,1,,,,,,,,,,,,,,,,,,,,,,,,,,,,,,,,,,,,,,,,,,,,,,,,,,,,,,,,,,,,,,,,,,,,,,
,,,,2,2.333,,,,,,37,garden,refrigerator,,90348,001,2022-04-28_22h35.44.002,SPAMnetsValid,2021.1.4,MacIntel,59.97720866,,,,,,,,,,,,,2,2.333,0,4,4,11,1,,,,,,,,,,,,,,,,,,,,,,,,,,,,,,,,,,,,,,,,,,,,,,,,,,,,,,,,,,,,,,,,,,,,,,
,,,,9,1.0478,,,,,,192,microwave,microwave,CHECK,90348,001,2022-04-28_22h35.44.002,SPAMnetsValid,2021.1.4,MacIntel,59.97720866,,,,,,,,,,,,,9,1.0478,0,5,5,53,1,,,,,,,,,,,,,,,,,,,,,,,,,,,,,,,,,,,,,,,,,,,,,,,,,,,,,,,,,,,,,,,,,,,,,,
,,,,3,1.3139,,,,,,15,onion,oven,,90348,001,2022-04-28_22h35.44.002,SPAMnetsValid,2021.1.4,MacIntel,59.97720866,,,,,,,,,,,,,3,1.3139,0,6,6,39,1,,,,,,,,,,,,,,,,,,,,,,,,,,,,,,,,,,,,,,,,,,,,,,,,,,,,,,,,,,,,,,,,,,,,,,
,,,,3,1.1969,,,,,,10,flower,onion,,90348,001,2022-04-28_22h35.44.002,SPAMnetsValid,2021.1.4,MacIntel,59.97720866,,,,,,,,,,,,,3,1.1969,0,7,7,45,1,,,,,,,,,,,,,,,,,,,,,,,,,,,,,,,,,,,,,,,,,,,,,,,,,,,,,,,,,,,,,,,,,,,,,,
,,,,2,1.3473,,,,,,43,chocolate,tomato,,90348,001,2022-04-28_22h35.44.002,SPAMnetsValid,2021.1.4,MacIntel,59.97720866,,,,,,,,,,,,,2,1.3473,0,8,8,8,1,,,,,,,,,,,,,,,,,,,,,,,,,,,,,,,,,,,,,,,,,,,,,,,,,,,,,,,,,,,,,,,,,,,,,,
,,,,1,2.6986,,,,,,38,pretzel,refrigerator,,90348,001,2022-04-28_22h35.44.002,SPAMnetsValid,2021.1.4,MacIntel,59.97720866,,,,,,,,,,,,,1,2.6986,0,9,9,71,1,,,,,,,,,,,,,,,,,,,,,,,,,,,,,,,,,,,,,,,,,,,,,,,,,,,,,,,,,,,,,,,,,,,,,,
,,,,1,1.4675,,,,,,75,cookie,onion,,90348,001,2022-04-28_22h35.44.002,SPAMnetsValid,2021.1.4,MacIntel,59.97720866,,,,,,,,,,,,,1,1.4675,0,10,10,9,1,,,,,,,,,,,,,,,,,,,,,,,,,,,,,,,,,,,,,,,,,,,,,,,,,,,,,,,,,,,,,,,,,,,,,,
,,,,1,1.8307,,,,,,23,flower,microwave,,90348,001,2022-04-28_22h35.44.002,SPAMnetsValid,2021.1.4,MacIntel,59.97720866,,,,,,,,,,,,,1,1.8307,0,11,11,25,1,,,,,,,,,,,,,,,,,,,,,,,,,,,,,,,,,,,,,,,,,,,,,,,,,,,,,,,,,,,,,,,,,,,,,,
,,,,1,1.1311,,,,,,65,broom,garden,,90348,001,2022-04-28_22h35.44.002,SPAMnetsValid,2021.1.4,MacIntel,59.97720866,,,,,,,,,,,,,1,1.1311,0,12,12,23,1,,,,,,,,,,,,,,,,,,,,,,,,,,,,,,,,,,,,,,,,,,,,,,,,,,,,,,,,,,,,,,,,,,,,,,
,,,,1,1.1505,,,,,,74,broom,pretzel,,90348,001,2022-04-28_22h35.44.002,SPAMnetsValid,2021.1.4,MacIntel,59.97720866,,,,,,,,,,,,,1,1.1505,0,13,13,40,1,,,,,,,,,,,,,,,,,,,,,,,,,,,,,,,,,,,,,,,,,,,,,,,,,,,,,,,,,,,,,,,,,,,,,,
,,,,4,2.8146,,,,,,84,oven,tomato,,90348,001,2022-04-28_22h35.44.002,SPAMnetsValid,2021.1.4,MacIntel,59.97720866,,,,,,,,,,,,,4,2.8146,0,14,14,28,1,,,,,,,,,,,,,,,,,,,,,,,,,,,,,,,,,,,,,,,,,,,,,,,,,,,,,,,,,,,,,,,,,,,,,,
,,,,3,1.4131,,,,,,18,onion,refrigerator,,90348,001,2022-04-28_22h35.44.002,SPAMnetsValid,2021.1.4,MacIntel,59.97720866,,,,,,,,,,,,,3,1.4131,0,15,15,62,1,,,,,,,,,,,,,,,,,,,,,,,,,,,,,,,,,,,,,,,,,,,,,,,,,,,,,,,,,,,,,,,,,,,,,,
,,,,1,1.7327,,,,,,58,garden,oven,,90348,001,2022-04-28_22h35.44.002,SPAMnetsValid,2021.1.4,MacIntel,59.97720866,,,,,,,,,,,,,1,1.7327,0,16,16,37,1,,,,,,,,,,,,,,,,,,,,,,,,,,,,,,,,,,,,,,,,,,,,,,,,,,,,,,,,,,,,,,,,,,,,,,
,,,,1,1.497,,,,,,27,cactus,cookie,,90348,001,2022-04-28_22h35.44.002,SPAMnetsValid,2021.1.4,MacIntel,59.97720866,,,,,,,,,,,,,1,1.497,0,17,17,17,1,,,,,,,,,,,,,,,,,,,,,,,,,,,,,,,,,,,,,,,,,,,,,,,,,,,,,,,,,,,,,,,,,,,,,,
,,,,5,2.5329,,,,,,54,chocolate,yogurt,,90348,001,2022-04-28_22h35.44.002,SPAMnetsValid,2021.1.4,MacIntel,59.97720866,,,,,,,,,,,,,5,2.5329,0,18,18,67,1,,,,,,,,,,,,,,,,,,,,,,,,,,,,,,,,,,,,,,,,,,,,,,,,,,,,,,,,,,,,,,,,,,,,,,
,,,,1,1.167,,,,,,5,oven,tree,,90348,001,2022-04-28_22h35.44.002,SPAMnetsValid,2021.1.4,MacIntel,59.97720866,,,,,,,,,,,,,1,1.167,0,19,19,70,1,,,,,,,,,,,,,,,,,,,,,,,,,,,,,,,,,,,,,,,,,,,,,,,,,,,,,,,,,,,,,,,,,,,,,,
,,,,8,2.2308,,,,,,79,garden,strawberry,,90348,001,2022-04-28_22h35.44.002,SPAMnetsValid,2021.1.4,MacIntel,59.97720866,,,,,,,,,,,,,8,2.2308,0,20,20,87,1,,,,,,,,,,,,,,,,,,,,,,,,,,,,,,,,,,,,,,,,,,,,,,,,,,,,,,,,,,,,,,,,,,,,,,
,,,,2,1.3807,,,,,,85,cake,tree,,90348,001,2022-04-28_22h35.44.002,SPAMnetsValid,2021.1.4,MacIntel,59.97720866,,,,,,,,,,,,,2,1.3807,0,21,21,18,1,,,,,,,,,,,,,,,,,,,,,,,,,,,,,,,,,,,,,,,,,,,,,,,,,,,,,,,,,,,,,,,,,,,,,,
,,,,7,2.1977,,,,,,4,chocolate,pretzel,,90348,001,2022-04-28_22h35.44.002,SPAMnetsValid,2021.1.4,MacIntel,59.97720866,,,,,,,,,,,,,7,2.1977,0,22,22,52,1,,,,,,,,,,,,,,,,,,,,,,,,,,,,,,,,,,,,,,,,,,,,,,,,,,,,,,,,,,,,,,,,,,,,,,
,,,,4,1.7144,,,,,,89,chocolate,rose,,90348,001,2022-04-28_22h35.44.002,SPAMnetsValid,2021.1.4,MacIntel,59.97720866,,,,,,,,,,,,,4,1.7144,0,23,23,60,1,,,,,,,,,,,,,,,,,,,,,,,,,,,,,,,,,,,,,,,,,,,,,,,,,,,,,,,,,,,,,,,,,,,,,,
,,,,3,2.1325,,,,,,68,flower,tomato,,90348,001,2022-04-28_22h35.44.002,SPAMnetsValid,2021.1.4,MacIntel,59.97720866,,,,,,,,,,,,,3,2.1325,0,24,24,94,1,,,,,,,,,,,,,,,,,,,,,,,,,,,,,,,,,,,,,,,,,,,,,,,,,,,,,,,,,,,,,,,,,,,,,,
,,,,1,1.2312,,,,,,95,broom,refrigerator,,90348,001,2022-04-28_22h35.44.002,SPAMnetsValid,2021.1.4,MacIntel,59.97720866,,,,,,,,,,,,,1,1.2312,0,25,25,90,1,,,,,,,,,,,,,,,,,,,,,,,,,,,,,,,,,,,,,,,,,,,,,,,,,,,,,,,,,,,,,,,,,,,,,,
,,,,2,4.4475,,,,,,49,flower,strawberry,,90348,001,2022-04-28_22h35.44.002,SPAMnetsValid,2021.1.4,MacIntel,59.97720866,,,,,,,,,,,,,2,4.4475,0,26,26,3,1,,,,,,,,,,,,,,,,,,,,,,,,,,,,,,,,,,,,,,,,,,,,,,,,,,,,,,,,,,,,,,,,,,,,,,
,,,,1,1.2079,,,,,,71,broom,rose,,90348,001,2022-04-28_22h35.44.002,SPAMnetsValid,2021.1.4,MacIntel,59.97720866,,,,,,,,,,,,,1,1.2079,0,27,27,61,1,,,,,,,,,,,,,,,,,,,,,,,,,,,,,,,,,,,,,,,,,,,,,,,,,,,,,,,,,,,,,,,,,,,,,,
,,,,2,1.5004,,,,,,56,cactus,tree,,90348,001,2022-04-28_22h35.44.002,SPAMnetsValid,2021.1.4,MacIntel,59.97720866,,,,,,,,,,,,,2,1.5004,0,28,28,21,1,,,,,,,,,,,,,,,,,,,,,,,,,,,,,,,,,,,,,,,,,,,,,,,,,,,,,,,,,,,,,,,,,,,,,,
,,,,1,1.1806,,,,,,34,melon,oven,,90348,001,2022-04-28_22h35.44.002,SPAMnetsValid,2021.1.4,MacIntel,59.97720866,,,,,,,,,,,,,1,1.1806,0,29,29,7,1,,,,,,,,,,,,,,,,,,,,,,,,,,,,,,,,,,,,,,,,,,,,,,,,,,,,,,,,,,,,,,,,,,,,,,
,,,,1,1.414,,,,,,52,carrot,tomato,,90348,001,2022-04-28_22h35.44.002,SPAMnetsValid,2021.1.4,MacIntel,59.97720866,,,,,,,,,,,,,1,1.414,0,30,30,95,1,,,,,,,,,,,,,,,,,,,,,,,,,,,,,,,,,,,,,,,,,,,,,,,,,,,,,,,,,,,,,,,,,,,,,,
,,,,1,2.2271,,,,,,33,oven,yogurt,,90348,001,2022-04-28_22h35.44.002,SPAMnetsValid,2021.1.4,MacIntel,59.97720866,,,,,,,,,,,,,1,2.2271,0,31,31,31,1,,,,,,,,,,,,,,,,,,,,,,,,,,,,,,,,,,,,,,,,,,,,,,,,,,,,,,,,,,,,,,,,,,,,,,
,,,,1,1.2643,,,,,,36,broom,kitchen,,90348,001,2022-04-28_22h35.44.002,SPAMnetsValid,2021.1.4,MacIntel,59.97720866,,,,,,,,,,,,,1,1.2643,0,32,32,76,1,,,,,,,,,,,,,,,,,,,,,,,,,,,,,,,,,,,,,,,,,,,,,,,,,,,,,,,,,,,,,,,,,,,,,,
,,,,1,1.4802,,,,,,11,refrigerator,tree,,90348,001,2022-04-28_22h35.44.002,SPAMnetsValid,2021.1.4,MacIntel,59.97720866,,,,,,,,,,,,,1,1.4802,0,33,33,43,1,,,,,,,,,,,,,,,,,,,,,,,,,,,,,,,,,,,,,,,,,,,,,,,,,,,,,,,,,,,,,,,,,,,,,,
,,,,1,1.6465,,,,,,53,garden,pretzel,,90348,001,2022-04-28_22h35.44.002,SPAMnetsValid,2021.1.4,MacIntel,59.97720866,,,,,,,,,,,,,1,1.6465,0,34,34,0,1,,,,,,,,,,,,,,,,,,,,,,,,,,,,,,,,,,,,,,,,,,,,,,,,,,,,,,,,,,,,,,,,,,,,,,
,,,,1,1.2139,,,,,,13,broom,yogurt,,90348,001,2022-04-28_22h35.44.002,SPAMnetsValid,2021.1.4,MacIntel,59.97720866,,,,,,,,,,,,,1,1.2139,0,35,35,5,1,,,,,,,,,,,,,,,,,,,,,,,,,,,,,,,,,,,,,,,,,,,,,,,,,,,,,,,,,,,,,,,,,,,,,,
,,,,2,1.3294,,,,,,31,cactus,pretzel,,90348,001,2022-04-28_22h35.44.002,SPAMnetsValid,2021.1.4,MacIntel,59.97720866,,,,,,,,,,,,,2,1.3294,0,36,36,1,1,,,,,,,,,,,,,,,,,,,,,,,,,,,,,,,,,,,,,,,,,,,,,,,,,,,,,,,,,,,,,,,,,,,,,,
,,,,4,2.7836,,,,,,42,garden,kitchen,,90348,001,2022-04-28_22h35.44.002,SPAMnetsValid,2021.1.4,MacIntel,59.97720866,,,,,,,,,,,,,4,2.7836,0,37,37,29,1,,,,,,,,,,,,,,,,,,,,,,,,,,,,,,,,,,,,,,,,,,,,,,,,,,,,,,,,,,,,,,,,,,,,,,
,,,,3,1.3316,,,,,,47,onion,tomato,,90348,001,2022-04-28_22h35.44.002,SPAMnetsValid,2021.1.4,MacIntel,59.97720866,,,,,,,,,,,,,3,1.3316,0,38,38,51,1,,,,,,,,,,,,,,,,,,,,,,,,,,,,,,,,,,,,,,,,,,,,,,,,,,,,,,,,,,,,,,,,,,,,,,
,,,,2,2.0987,,,,,,46,garden,yogurt,,90348,001,2022-04-28_22h35.44.002,SPAMnetsValid,2021.1.4,MacIntel,59.97720866,,,,,,,,,,,,,2,2.0987,0,39,39,65,1,,,,,,,,,,,,,,,,,,,,,,,,,,,,,,,,,,,,,,,,,,,,,,,,,,,,,,,,,,,,,,,,,,,,,,
,,,,6,1.7156,,,,,,20,rose,tree,,90348,001,2022-04-28_22h35.44.002,SPAMnetsValid,2021.1.4,MacIntel,59.97720866,,,,,,,,,,,,,6,1.7156,0,40,40,66,1,,,,,,,,,,,,,,,,,,,,,,,,,,,,,,,,,,,,,,,,,,,,,,,,,,,,,,,,,,,,,,,,,,,,,,
,,,,8,1.7152,,,,,,6,garden,onion,,90348,001,2022-04-28_22h35.44.002,SPAMnetsValid,2021.1.4,MacIntel,59.97720866,,,,,,,,,,,,,8,1.7152,0,41,41,83,1,,,,,,,,,,,,,,,,,,,,,,,,,,,,,,,,,,,,,,,,,,,,,,,,,,,,,,,,,,,,,,,,,,,,,,
,,,,4,1.2307,,,,,,32,cake,microwave,,90348,001,2022-04-28_22h35.44.002,SPAMnetsValid,2021.1.4,MacIntel,59.97720866,,,,,,,,,,,,,4,1.2307,0,42,42,33,1,,,,,,,,,,,,,,,,,,,,,,,,,,,,,,,,,,,,,,,,,,,,,,,,,,,,,,,,,,,,,,,,,,,,,,
,,,,6,1.532,,,,,,19,microwave,pretzel,,90348,001,2022-04-28_22h35.44.002,SPAMnetsValid,2021.1.4,MacIntel,59.97720866,,,,,,,,,,,,,6,1.532,0,43,43,41,1,,,,,,,,,,,,,,,,,,,,,,,,,,,,,,,,,,,,,,,,,,,,,,,,,,,,,,,,,,,,,,,,,,,,,,
,,,,3,1.2149,,,,,,83,broom,carrot,,90348,001,2022-04-28_22h35.44.002,SPAMnetsValid,2021.1.4,MacIntel,59.97720866,,,,,,,,,,,,,3,1.2149,0,44,44,4,1,,,,,,,,,,,,,,,,,,,,,,,,,,,,,,,,,,,,,,,,,,,,,,,,,,,,,,,,,,,,,,,,,,,,,,
,,,,3,1.5807,,,,,,80,chocolate,tree,,90348,001,2022-04-28_22h35.44.002,SPAMnetsValid,2021.1.4,MacIntel,59.97720866,,,,,,,,,,,,,3,1.5807,0,45,45,89,1,,,,,,,,,,,,,,,,,,,,,,,,,,,,,,,,,,,,,,,,,,,,,,,,,,,,,,,,,,,,,,,,,,,,,,
,,,,6,2.0653,,,,,,30,cookie,pretzel,,90348,001,2022-04-28_22h35.44.002,SPAMnetsValid,2021.1.4,MacIntel,59.97720866,,,,,,,,,,,,,6,2.0653,0,46,46,78,1,,,,,,,,,,,,,,,,,,,,,,,,,,,,,,,,,,,,,,,,,,,,,,,,,,,,,,,,,,,,,,,,,,,,,,
,,,,2,1.8476,,,,,,61,strawberry,tomato,,90348,001,2022-04-28_22h35.44.002,SPAMnetsValid,2021.1.4,MacIntel,59.97720866,,,,,,,,,,,,,2,1.8476,0,47,47,80,1,,,,,,,,,,,,,,,,,,,,,,,,,,,,,,,,,,,,,,,,,,,,,,,,,,,,,,,,,,,,,,,,,,,,,,
,,,,4,1.7987,,,,,,66,melon,yogurt,,90348,001,2022-04-28_22h35.44.002,SPAMnetsValid,2021.1.4,MacIntel,59.97720866,,,,,,,,,,,,,4,1.7987,0,48,48,48,1,,,,,,,,,,,,,,,,,,,,,,,,,,,,,,,,,,,,,,,,,,,,,,,,,,,,,,,,,,,,,,,,,,,,,,
,,,,2,1.1481,,,,,,8,broom,melon,,90348,001,2022-04-28_22h35.44.002,SPAMnetsValid,2021.1.4,MacIntel,59.97720866,,,,,,,,,,,,,2,1.1481,0,49,49,59,1,,,,,,,,,,,,,,,,,,,,,,,,,,,,,,,,,,,,,,,,,,,,,,,,,,,,,,,,,,,,,,,,,,,,,,
,,,,1,1.1144,,,,,,14,broom,cookie,,90348,001,2022-04-28_22h35.44.002,SPAMnetsValid,2021.1.4,MacIntel,59.97720866,,,,,,,,,,,,,1,1.1144,0,50,50,16,1,,,,,,,,,,,,,,,,,,,,,,,,,,,,,,,,,,,,,,,,,,,,,,,,,,,,,,,,,,,,,,,,,,,,,,
,,,,1,1.2961,,,,,,60,cactus,onion,,90348,001,2022-04-28_22h35.44.002,SPAMnetsValid,2021.1.4,MacIntel,59.97720866,,,,,,,,,,,,,1,1.2961,0,51,51,81,1,,,,,,,,,,,,,,,,,,,,,,,,,,,,,,,,,,,,,,,,,,,,,,,,,,,,,,,,,,,,,,,,,,,,,,
,,,,3,1.811,,,,,,12,cookie,yogurt,,90348,001,2022-04-28_22h35.44.002,SPAMnetsValid,2021.1.4,MacIntel,59.97720866,,,,,,,,,,,,,3,1.811,0,52,52,36,1,,,,,,,,,,,,,,,,,,,,,,,,,,,,,,,,,,,,,,,,,,,,,,,,,,,,,,,,,,,,,,,,,,,,,,
,,,,7,1.7615,,,,,,2,kitchen,onion,,90348,001,2022-04-28_22h35.44.002,SPAMnetsValid,2021.1.4,MacIntel,59.97720866,,,,,,,,,,,,,7,1.7615,0,53,53,91,1,,,,,,,,,,,,,,,,,,,,,,,,,,,,,,,,,,,,,,,,,,,,,,,,,,,,,,,,,,,,,,,,,,,,,,
,,,,3,1.43,,,,,,45,onion,pretzel,,90348,001,2022-04-28_22h35.44.002,SPAMnetsValid,2021.1.4,MacIntel,59.97720866,,,,,,,,,,,,,3,1.43,0,54,54,69,1,,,,,,,,,,,,,,,,,,,,,,,,,,,,,,,,,,,,,,,,,,,,,,,,,,,,,,,,,,,,,,,,,,,,,,
,,,,2,1.2628,,,,,,72,broom,onion,,90348,001,2022-04-28_22h35.44.002,SPAMnetsValid,2021.1.4,MacIntel,59.97720866,,,,,,,,,,,,,2,1.2628,0,55,55,27,1,,,,,,,,,,,,,,,,,,,,,,,,,,,,,,,,,,,,,,,,,,,,,,,,,,,,,,,,,,,,,,,,,,,,,,
,,,,3,1.5788,,,,,,25,carrot,onion,,90348,001,2022-04-28_22h35.44.002,SPAMnetsValid,2021.1.4,MacIntel,59.97720866,,,,,,,,,,,,,3,1.5788,0,56,56,44,1,,,,,,,,,,,,,,,,,,,,,,,,,,,,,,,,,,,,,,,,,,,,,,,,,,,,,,,,,,,,,,,,,,,,,,
,,,,1,1.578,,,,,,81,pretzel,yogurt,,90348,001,2022-04-28_22h35.44.002,SPAMnetsValid,2021.1.4,MacIntel,59.97720866,,,,,,,,,,,,,1,1.578,0,57,57,50,1,,,,,,,,,,,,,,,,,,,,,,,,,,,,,,,,,,,,,,,,,,,,,,,,,,,,,,,,,,,,,,,,,,,,,,
,,,,5,2.6307,,,,,,55,tomato,tree,,90348,001,2022-04-28_22h35.44.002,SPAMnetsValid,2021.1.4,MacIntel,59.97720866,,,,,,,,,,,,,5,2.6307,0,58,58,35,1,,,,,,,,,,,,,,,,,,,,,,,,,,,,,,,,,,,,,,,,,,,,,,,,,,,,,,,,,,,,,,,,,,,,,,
,,,,9,1.4286,,,,,,191,cake,cake,CHECK,90348,001,2022-04-28_22h35.44.002,SPAMnetsValid,2021.1.4,MacIntel,59.97720866,,,,,,,,,,,,,9,1.4286,0,59,59,10,1,,,,,,,,,,,,,,,,,,,,,,,,,,,,,,,,,,,,,,,,,,,,,,,,,,,,,,,,,,,,,,,,,,,,,,
,,,,4,1.8464,,,,,,88,cactus,melon,,90348,001,2022-04-28_22h35.44.002,SPAMnetsValid,2021.1.4,MacIntel,59.97720866,,,,,,,,,,,,,4,1.8464,0,60,60,38,1,,,,,,,,,,,,,,,,,,,,,,,,,,,,,,,,,,,,,,,,,,,,,,,,,,,,,,,,,,,,,,,,,,,,,,
,,,,6,1.3962,,,,,,22,kitchen,strawberry,,90348,001,2022-04-28_22h35.44.002,SPAMnetsValid,2021.1.4,MacIntel,59.97720866,,,,,,,,,,,,,6,1.3962,0,61,61,2,1,,,,,,,,,,,,,,,,,,,,,,,,,,,,,,,,,,,,,,,,,,,,,,,,,,,,,,,,,,,,,,,,,,,,,,
,,,,3,1.6122,,,,,,28,cake,melon,,90348,001,2022-04-28_22h35.44.002,SPAMnetsValid,2021.1.4,MacIntel,59.97720866,,,,,,,,,,,,,3,1.6122,0,62,62,54,1,,,,,,,,,,,,,,,,,,,,,,,,,,,,,,,,,,,,,,,,,,,,,,,,,,,,,,,,,,,,,,,,,,,,,,
,,,,8,2.5799,,,,,,63,cake,cookie,,90348,001,2022-04-28_22h35.44.002,SPAMnetsValid,2021.1.4,MacIntel,59.97720866,,,,,,,,,,,,,8,2.5799,0,63,63,93,1,,,,,,,,,,,,,,,,,,,,,,,,,,,,,,,,,,,,,,,,,,,,,,,,,,,,,,,,,,,,,,,,,,,,,,
,,,,2,1.2127,,,,,,91,microwave,rose,,90348,001,2022-04-28_22h35.44.002,SPAMnetsValid,2021.1.4,MacIntel,59.97720866,,,,,,,,,,,,,2,1.2127,0,64,64,84,1,,,,,,,,,,,,,,,,,,,,,,,,,,,,,,,,,,,,,,,,,,,,,,,,,,,,,,,,,,,,,,,,,,,,,,
,,,,2,2.5647,,,,,,86,oven,rose,,90348,001,2022-04-28_22h35.44.002,SPAMnetsValid,2021.1.4,MacIntel,59.97720866,,,,,,,,,,,,,2,2.5647,0,65,65,79,1,,,,,,,,,,,,,,,,,,,,,,,,,,,,,,,,,,,,,,,,,,,,,,,,,,,,,,,,,,,,,,,,,,,,,,
,,,,1,2.2967,,,,,,48,flower,oven,,90348,001,2022-04-28_22h35.44.002,SPAMnetsValid,2021.1.4,MacIntel,59.97720866,,,,,,,,,,,,,1,2.2967,0,66,66,15,1,,,,,,,,,,,,,,,,,,,,,,,,,,,,,,,,,,,,,,,,,,,,,,,,,,,,,,,,,,,,,,,,,,,,,,
,,,,2,1.7961,,,,,,51,onion,strawberry,,90348,001,2022-04-28_22h35.44.002,SPAMnetsValid,2021.1.4,MacIntel,59.97720866,,,,,,,,,,,,,2,1.7961,0,67,67,86,1,,,,,,,,,,,,,,,,,,,,,,,,,,,,,,,,,,,,,,,,,,,,,,,,,,,,,,,,,,,,,,,,,,,,,,
,,,,7,1.5301,,,,,,82,cake,kitchen,,90348,001,2022-04-28_22h35.44.002,SPAMnetsValid,2021.1.4,MacIntel,59.97720866,,,,,,,,,,,,,7,1.5301,0,68,68,96,1,,,,,,,,,,,,,,,,,,,,,,,,,,,,,,,,,,,,,,,,,,,,,,,,,,,,,,,,,,,,,,,,,,,,,,
,,,,3,2.2627,,,,,,24,cookie,tomato,,90348,001,2022-04-28_22h35.44.002,SPAMnetsValid,2021.1.4,MacIntel,59.97720866,,,,,,,,,,,,,3,2.2627,0,69,69,68,1,,,,,,,,,,,,,,,,,,,,,,,,,,,,,,,,,,,,,,,,,,,,,,,,,,,,,,,,,,,,,,,,,,,,,,
,,,,1,4.3135,,,,,,69,carrot,refrigerator,,90348,001,2022-04-28_22h35.44.002,SPAMnetsValid,2021.1.4,MacIntel,59.97720866,,,,,,,,,,,,,1,4.3135,0,70,70,75,1,,,,,,,,,,,,,,,,,,,,,,,,,,,,,,,,,,,,,,,,,,,,,,,,,,,,,,,,,,,,,,,,,,,,,,
,,,,1,2.6799,,,,,,57,flower,kitchen,,90348,001,2022-04-28_22h35.44.002,SPAMnetsValid,2021.1.4,MacIntel,59.97720866,,,,,,,,,,,,,1,2.6799,0,71,71,49,1,,,,,,,,,,,,,,,,,,,,,,,,,,,,,,,,,,,,,,,,,,,,,,,,,,,,,,,,,,,,,,,,,,,,,,
,,,,2,1.5957,,,,,,29,chocolate,melon,,90348,001,2022-04-28_22h35.44.002,SPAMnetsValid,2021.1.4,MacIntel,59.97720866,,,,,,,,,,,,,2,1.5957,0,72,72,34,1,,,,,,,,,,,,,,,,,,,,,,,,,,,,,,,,,,,,,,,,,,,,,,,,,,,,,,,,,,,,,,,,,,,,,,
,,,,2,1.5782,,,,,,64,chocolate,garden,,90348,001,2022-04-28_22h35.44.002,SPAMnetsValid,2021.1.4,MacIntel,59.97720866,,,,,,,,,,,,,2,1.5782,0,73,73,14,1,,,,,,,,,,,,,,,,,,,,,,,,,,,,,,,,,,,,,,,,,,,,,,,,,,,,,,,,,,,,,,,,,,,,,,
,,,,3,1.415,,,,,,62,kitchen,rose,,90348,001,2022-04-28_22h35.44.002,SPAMnetsValid,2021.1.4,MacIntel,59.97720866,,,,,,,,,,,,,3,1.415,0,74,74,57,1,,,,,,,,,,,,,,,,,,,,,,,,,,,,,,,,,,,,,,,,,,,,,,,,,,,,,,,,,,,,,,,,,,,,,,
,,,,1,1.396,,,,,,40,broom,cake,,90348,001,2022-04-28_22h35.44.002,SPAMnetsValid,2021.1.4,MacIntel,59.97720866,,,,,,,,,,,,,1,1.396,0,75,75,32,1,,,,,,,,,,,,,,,,,,,,,,,,,,,,,,,,,,,,,,,,,,,,,,,,,,,,,,,,,,,,,,,,,,,,,,
,,,,4,1.378,,,,,,7,melon,tree,,90348,001,2022-04-28_22h35.44.002,SPAMnetsValid,2021.1.4,MacIntel,59.97720866,,,,,,,,,,,,,4,1.378,0,76,76,77,1,,,,,,,,,,,,,,,,,,,,,,,,,,,,,,,,,,,,,,,,,,,,,,,,,,,,,,,,,,,,,,,,,,,,,,
,,,,1,1.8621,,,,,,21,cake,onion,,90348,001,2022-04-28_22h35.44.002,SPAMnetsValid,2021.1.4,MacIntel,59.97720866,,,,,,,,,,,,,1,1.8621,0,77,77,63,1,,,,,,,,,,,,,,,,,,,,,,,,,,,,,,,,,,,,,,,,,,,,,,,,,,,,,,,,,,,,,,,,,,,,,,
,,,,1,2.9166,,,,,,90,cactus,cake,,90348,001,2022-04-28_22h35.44.002,SPAMnetsValid,2021.1.4,MacIntel,59.97720866,,,,,,,,,,,,,1,2.9166,0,78,78,85,1,,,,,,,,,,,,,,,,,,,,,,,,,,,,,,,,,,,,,,,,,,,,,,,,,,,,,,,,,,,,,,,,,,,,,,
,,,,2,2.1786,,,,,,17,carrot,melon,,90348,001,2022-04-28_22h35.44.002,SPAMnetsValid,2021.1.4,MacIntel,59.97720866,,,,,,,,,,,,,2,2.1786,0,79,79,24,1,,,,,,,,,,,,,,,,,,,,,,,,,,,,,,,,,,,,,,,,,,,,,,,,,,,,,,,,,,,,,,,,,,,,,,
,,,,8,2.0117,,,,,,93,kitchen,oven,,90348,001,2022-04-28_22h35.44.002,SPAMnetsValid,2021.1.4,MacIntel,59.97720866,,,,,,,,,,,,,8,2.0117,0,80,80,82,1,,,,,,,,,,,,,,,,,,,,,,,,,,,,,,,,,,,,,,,,,,,,,,,,,,,,,,,,,,,,,,,,,,,,,,
,,,,3,1.4145,,,,,,26,tomato,yogurt,,90348,001,2022-04-28_22h35.44.002,SPAMnetsValid,2021.1.4,MacIntel,59.97720866,,,,,,,,,,,,,3,1.4145,0,81,81,13,1,,,,,,,,,,,,,,,,,,,,,,,,,,,,,,,,,,,,,,,,,,,,,,,,,,,,,,,,,,,,,,,,,,,,,,
,,,,8,2.4169,,,,,,3,cake,oven,,90348,001,2022-04-28_22h35.44.002,SPAMnetsValid,2021.1.4,MacIntel,59.97720866,,,,,,,,,,,,,8,2.4169,0,82,82,30,1,,,,,,,,,,,,,,,,,,,,,,,,,,,,,,,,,,,,,,,,,,,,,,,,,,,,,,,,,,,,,,,,,,,,,,
,,,,2,3.3671,,,,,,39,melon,pretzel,,90348,001,2022-04-28_22h35.44.002,SPAMnetsValid,2021.1.4,MacIntel,59.97720866,,,,,,,,,,,,,2,3.3671,0,83,83,20,1,,,,,,,,,,,,,,,,,,,,,,,,,,,,,,,,,,,,,,,,,,,,,,,,,,,,,,,,,,,,,,,,,,,,,,
,,,,1,8.1654,,,,,,92,broom,flower,,90348,001,2022-04-28_22h35.44.002,SPAMnetsValid,2021.1.4,MacIntel,59.97720866,,,,,,,,,,,,,1,8.1654,0,84,84,88,1,,,,,,,,,,,,,,,,,,,,,,,,,,,,,,,,,,,,,,,,,,,,,,,,,,,,,,,,,,,,,,,,,,,,,,
,,,,7,1.5983,,,,,,77,refrigerator,yogurt,,90348,001,2022-04-28_22h35.44.002,SPAMnetsValid,2021.1.4,MacIntel,59.97720866,,,,,,,,,,,,,7,1.5983,0,85,85,42,1,,,,,,,,,,,,,,,,,,,,,,,,,,,,,,,,,,,,,,,,,,,,,,,,,,,,,,,,,,,,,,,,,,,,,,
,,,,2,1.2459,,,,,,78,cookie,rose,,90348,001,2022-04-28_22h35.44.002,SPAMnetsValid,2021.1.4,MacIntel,59.97720866,,,,,,,,,,,,,2,1.2459,0,86,86,56,1,,,,,,,,,,,,,,,,,,,,,,,,,,,,,,,,,,,,,,,,,,,,,,,,,,,,,,,,,,,,,,,,,,,,,,
,,,,1,1.6817,,,,,,73,broom,chocolate,,90348,001,2022-04-28_22h35.44.002,SPAMnetsValid,2021.1.4,MacIntel,59.97720866,,,,,,,,,,,,,1,1.6817,0,87,87,47,1,,,,,,,,,,,,,,,,,,,,,,,,,,,,,,,,,,,,,,,,,,,,,,,,,,,,,,,,,,,,,,,,,,,,,,
,,,,1,1.0146,,,,,,41,broom,cactus,,90348,001,2022-04-28_22h35.44.002,SPAMnetsValid,2021.1.4,MacIntel,59.97720866,,,,,,,,,,,,,1,1.0146,0,88,88,46,1,,,,,,,,,,,,,,,,,,,,,,,,,,,,,,,,,,,,,,,,,,,,,,,,,,,,,,,,,,,,,,,,,,,,,,
,,,,8,2.4146,,,,,,9,kitchen,refrigerator,,90348,001,2022-04-28_22h35.44.002,SPAMnetsValid,2021.1.4,MacIntel,59.97720866,,,,,,,,,,,,,8,2.4146,0,89,89,64,1,,,,,,,,,,,,,,,,,,,,,,,,,,,,,,,,,,,,,,,,,,,,,,,,,,,,,,,,,,,,,,,,,,,,,,
,,,,5,2.7318,,,,,,59,rose,strawberry,,90348,001,2022-04-28_22h35.44.002,SPAMnetsValid,2021.1.4,MacIntel,59.97720866,,,,,,,,,,,,,5,2.7318,0,90,90,72,1,,,,,,,,,,,,,,,,,,,,,,,,,,,,,,,,,,,,,,,,,,,,,,,,,,,,,,,,,,,,,,,,,,,,,,
,,,,8,1.7648,,,,,,76,garden,rose,,90348,001,2022-04-28_22h35.44.002,SPAMnetsValid,2021.1.4,MacIntel,59.97720866,,,,,,,,,,,,,8,1.7648,0,91,91,19,1,,,,,,,,,,,,,,,,,,,,,,,,,,,,,,,,,,,,,,,,,,,,,,,,,,,,,,,,,,,,,,,,,,,,,,
,,,,3,2.0321,,,,,,67,flower,yogurt,,90348,001,2022-04-28_22h35.44.002,SPAMnetsValid,2021.1.4,MacIntel,59.97720866,,,,,,,,,,,,,3,2.0321,0,92,92,12,1,,,,,,,,,,,,,,,,,,,,,,,,,,,,,,,,,,,,,,,,,,,,,,,,,,,,,,,,,,,,,,,,,,,,,,
,,,,1,1.7969,,,,,,1,rose,yogurt,,90348,001,2022-04-28_22h35.44.002,SPAMnetsValid,2021.1.4,MacIntel,59.97720866,,,,,,,,,,,,,1,1.7969,0,93,93,55,1,,,,,,,,,,,,,,,,,,,,,,,,,,,,,,,,,,,,,,,,,,,,,,,,,,,,,,,,,,,,,,,,,,,,,,
,,,,2,1.6151,,,,,,70,chocolate,onion,,90348,001,2022-04-28_22h35.44.002,SPAMnetsValid,2021.1.4,MacIntel,59.97720866,,,,,,,,,,,,,2,1.6151,0,94,94,74,1,,,,,,,,,,,,,,,,,,,,,,,,,,,,,,,,,,,,,,,,,,,,,,,,,,,,,,,,,,,,,,,,,,,,,,
,,,,2,1.5638,,,,,,87,carrot,yogurt,,90348,001,2022-04-28_22h35.44.002,SPAMnetsValid,2021.1.4,MacIntel,59.97720866,,,,,,,,,,,,,2,1.5638,0,95,95,6,1,,,,,,,,,,,,,,,,,,,,,,,,,,,,,,,,,,,,,,,,,,,,,,,,,,,,,,,,,,,,,,,,,,,,,,
,,,,3,9.6844,,,,,,50,carrot,rose,,90348,001,2022-04-28_22h35.44.002,SPAMnetsValid,2021.1.4,MacIntel,59.97720866,,,,,,,,,,,,,3,9.6844,0,96,96,73,1,,,,,,,,,,,,,,,,,,,,,,,,,,,,,,,,,,,,,,,,,,,,,,,,,,,,,,,,,,,,,,,,,,,,,,
,,,,,,,,,,,,,,,90348,001,2022-04-28_22h35.44.002,SPAMnetsValid,2021.1.4,MacIntel,59.97720866,,,,,,,,,,,,,,,,,,,,0,0,0,0,1,,,,,,,,,,,,,,,,,,,,,,,,,,,,,,,,,,,,,,,,,,,,,,,,,,,,,,,,,,,,,,,,,
,,,,,,,,,,,,,,,90348,001,2022-04-28_22h35.44.002,SPAMnetsValid,2021.1.4,MacIntel,59.97720866,,,,,,0,1,1,0,1,1,0,,,,,,,,,,,,,,,,,,,,,,,,,,,,,,,,,,,,,,,,,,,,,,,,,,,,,,,,,,,,,,,,,,,,,,,,,,,,,
,,,,,,,,,,,,,,,90348,001,2022-04-28_22h35.44.002,SPAMnetsValid,2021.1.4,MacIntel,59.97720866,,,,,,,,,,,,,,,,,,,,,,,,,3,8.5866,0,0,0,0,1,rancor,forbearance,ridicule,malice,bravery,3,,,,,,,,,,,,,,,,,,,,,,,,,,,,,,,,,,,,,,,,,,,,,,,,,,,,
,,,,,,,,,,,,,,,90348,001,2022-04-28_22h35.44.002,SPAMnetsValid,2021.1.4,MacIntel,59.97720866,,,,,,,,,,,,,,,,,,,,,,,,,4,7.6369,0,1,1,1,1,raucous,empty,quiet,smooth,harsh,4,,,,,,,,,,,,,,,,,,,,,,,,,,,,,,,,,,,,,,,,,,,,,,,,,,,,
,,,,,,,,,,,,,,,90348,001,2022-04-28_22h35.44.002,SPAMnetsValid,2021.1.4,MacIntel,59.97720866,,,,,,,,,,,,,,,,,,,,,,,,,3,5.0831,0,2,2,2,1,gargoyle,oil,medicine,carved waterspout,ugly building,3,,,,,,,,,,,,,,,,,,,,,,,,,,,,,,,,,,,,,,,,,,,,,,,,,,,,
,,,,,,,,,,,,,,,90348,001,2022-04-28_22h35.44.002,SPAMnetsValid,2021.1.4,MacIntel,59.97720866,,,,,,,,,,,,,,,,,,,,,,,,,3,8.1356,0,3,3,3,1,recrudesce,purify,renew activity,lack refinement,crush,2,,,,,,,,,,,,,,,,,,,,,,,,,,,,,,,,,,,,,,,,,,,,,,,,,,,,
,,,,,,,,,,,,,,,90348,001,2022-04-28_22h35.44.002,SPAMnetsValid,2021.1.4,MacIntel,59.97720866,,,,,,,,,,,,,,,,,,,,,,,,,1,11.5712,0,4,4,4,1,specious,"plausible, but not genuine",noteworthy,class or variety,roomy,1,,,,,,,,,,,,,,,,,,,,,,,,,,,,,,,,,,,,,,,,,,,,,,,,,,,,
,,,,,,,,,,,,,,,90348,001,2022-04-28_22h35.44.002,SPAMnetsValid,2021.1.4,MacIntel,59.97720866,,,,,,,,,,,,,,,,,,,,,,,,,4,7.3871,0,5,5,5,1,bauble,bubble,showy plaything,idle talk,confusion,2,,,,,,,,,,,,,,,,,,,,,,,,,,,,,,,,,,,,,,,,,,,,,,,,,,,,
,,,,,,,,,,,,,,,90348,001,2022-04-28_22h35.44.002,SPAMnetsValid,2021.1.4,MacIntel,59.97720866,,,,,,,,,,,,,,,,,,,,,,,,,2,2.6825,0,6,6,6,1,prolific,scarce,producing abundantly,reckless,speaking profanely,2,,,,,,,,,,,,,,,,,,,,,,,,,,,,,,,,,,,,,,,,,,,,,,,,,,,,
,,,,,,,,,,,,,,,90348,001,2022-04-28_22h35.44.002,SPAMnetsValid,2021.1.4,MacIntel,59.97720866,,,,,,,,,,,,,,,,,,,,,,,,,3,4.8126,0,7,7,7,1,opulent,party,wealthy,happy frame of mind,semiprecious stone,2,,,,,,,,,,,,,,,,,,,,,,,,,,,,,,,,,,,,,,,,,,,,,,,,,,,,
,,,,,,,,,,,,,,,90348,001,2022-04-28_22h35.44.002,SPAMnetsValid,2021.1.4,MacIntel,59.97720866,,,,,,,,,,,,,,,,,,,,,,,,,2,6.8189,0,8,8,8,1,coercion,conspiracy,strategy,restraint,attraction,3,,,,,,,,,,,,,,,,,,,,,,,,,,,,,,,,,,,,,,,,,,,,,,,,,,,,
,,,,,,,,,,,,,,,90348,001,2022-04-28_22h35.44.002,SPAMnetsValid,2021.1.4,MacIntel,59.97720866,,,,,,,,,,,,,,,,,,,,,,,,,4,2.7991,0,9,9,9,1,hiatus,animal,calamity,dread,gap,4,,,,,,,,,,,,,,,,,,,,,,,,,,,,,,,,,,,,,,,,,,,,,,,,,,,,
,,,,,,,,,,,,,,,90348,001,2022-04-28_22h35.44.002,SPAMnetsValid,2021.1.4,MacIntel,59.97720866,,,,,,,,,,,,,,,,,,,,,,,,,3,6.3188,0,10,10,10,1,germane,microbe,contagious,relevant,different,3,,,,,,,,,,,,,,,,,,,,,,,,,,,,,,,,,,,,,,,,,,,,,,,,,,,,
,,,,,,,,,,,,,,,90348,001,2022-04-28_22h35.44.002,SPAMnetsValid,2021.1.4,MacIntel,59.97720866,,,,,,,,,,,,,,,,,,,,,,,,,4,4.1801,0,11,11,11,1,perfunctory,fundamental,formal,superficial,careful,3,,,,,,,,,,,,,,,,,,,,,,,,,,,,,,,,,,,,,,,,,,,,,,,,,,,,
,,,,,,,,,,,,,,,90348,001,2022-04-28_22h35.44.002,SPAMnetsValid,2021.1.4,MacIntel,59.97720866,,,,,,,,,,,,,,,,,,,,,,,,,4,5.4041,0,12,12,12,1,diverge,reveal,chant,distract the attention of,differ or turn off from,4,,,,,,,,,,,,,,,,,,,,,,,,,,,,,,,,,,,,,,,,,,,,,,,,,,,,
,,,,,,,,,,,,,,,90348,001,2022-04-28_22h35.44.002,SPAMnetsValid,2021.1.4,MacIntel,59.97720866,,,,,,,,,,,,,,,,,,,,,,,,,4,2.8478,0,13,13,13,1,evoke,take away,anger,connect,bring out,4,,,,,,,,,,,,,,,,,,,,,,,,,,,,,,,,,,,,,,,,,,,,,,,,,,,,
,,,,,,,,,,,,,,,90348,001,2022-04-28_22h35.44.002,SPAMnetsValid,2021.1.4,MacIntel,59.97720866,,,,,,,,,,,,,,,,,,,,,,,,,1,4.7313,0,14,14,14,1,pertinent,relevant,lying next to,necessary,bold,1,,,,,,,,,,,,,,,,,,,,,,,,,,,,,,,,,,,,,,,,,,,,,,,,,,,,
,,,,,,,,,,,,,,,90348,001,2022-04-28_22h35.44.002,SPAMnetsValid,2021.1.4,MacIntel,59.97720866,,,,,,,,,,,,,,,,,,,,,,,,,2,3.0492,0,15,15,15,1,holocaust,entirety,destruction,saintly,price,2,,,,,,,,,,,,,,,,,,,,,,,,,,,,,,,,,,,,,,,,,,,,,,,,,,,,
,,,,,,,,,,,,,,,90348,001,2022-04-28_22h35.44.002,SPAMnetsValid,2021.1.4,MacIntel,59.97720866,,,,,,,,,,,,,,,,,,,,,,,,,1,3.9217,0,16,16,16,1,piquant,mellow,fish,pungent,cloth,3,,,,,,,,,,,,,,,,,,,,,,,,,,,,,,,,,,,,,,,,,,,,,,,,,,,,
,,,,,,,,,,,,,,,90348,001,2022-04-28_22h35.44.002,SPAMnetsValid,2021.1.4,MacIntel,59.97720866,,,,,,,,,,,,,,,,,,,,,,,,,3,2.1223,0,17,17,17,1,firmament,foundation,heavens,strong,glue,2,,,,,,,,,,,,,,,,,,,,,,,,,,,,,,,,,,,,,,,,,,,,,,,,,,,,
,,,,,,,,,,,,,,,90348,001,2022-04-28_22h35.44.002,SPAMnetsValid,2021.1.4,MacIntel,59.97720866,,,,,,,,,,,,,,,,,,,,,,,,,,,,,,,,,,,,,,4,4.0333,0,0,0,0,1,marketable,partisan,jocular,marriageable,salable,essential,4,,,,,,,,,,,,,,,,,,,,,,,,,,,,,,,,,,,,,,
,,,,,,,,,,,,,,,90348,001,2022-04-28_22h35.44.002,SPAMnetsValid,2021.1.4,MacIntel,59.97720866,,,,,,,,,,,,,,,,,,,,,,,,,,,,,,,,,,,,,,4,3.9135,0,1,1,1,1,cottontail,squirrel,poplar,boa,marshy plant,rabbit,5,,,,,,,,,,,,,,,,,,,,,,,,,,,,,,,,,,,,,,
,,,,,,,,,,,,,,,90348,001,2022-04-28_22h35.44.002,SPAMnetsValid,2021.1.4,MacIntel,59.97720866,,,,,,,,,,,,,,,,,,,,,,,,,,,,,,,,,,,,,,3,5.3352,0,2,2,2,1,boggy,afraid,false,marshy,dense,black,3,,,,,,,,,,,,,,,,,,,,,,,,,,,,,,,,,,,,,,
,,,,,,,,,,,,,,,90348,001,2022-04-28_22h35.44.002,SPAMnetsValid,2021.1.4,MacIntel,59.97720866,,,,,,,,,,,,,,,,,,,,,,,,,,,,,,,,,,,,,,5,6.0809,0,3,3,3,1,gruesomeness,blackness,falseness,vindictiveness,drunkenness,ghastliness,5,,,,,,,,,,,,,,,,,,,,,,,,,,,,,,,,,,,,,,
,,,,,,,,,,,,,,,90348,001,2022-04-28_22h35.44.002,SPAMnetsValid,2021.1.4,MacIntel,59.97720866,,,,,,,,,,,,,,,,,,,,,,,,,,,,,,,,,,,,,,3,4.6378,0,4,4,4,1,loathing,diffidence,laziness,abhorrence,cleverness,comfort,3,,,,,,,,,,,,,,,,,,,,,,,,,,,,,,,,,,,,,,
,,,,,,,,,,,,,,,90348,001,2022-04-28_22h35.44.002,SPAMnetsValid,2021.1.4,MacIntel,59.97720866,,,,,,,,,,,,,,,,,,,,,,,,,,,,,,,,,,,,,,2,6.3515,0,5,5,5,1,bantam,fowl,ridicule,cripple,vegetable,ensign,1,,,,,,,,,,,,,,,,,,,,,,,,,,,,,,,,,,,,,,
,,,,,,,,,,,,,,,90348,001,2022-04-28_22h35.44.002,SPAMnetsValid,2021.1.4,MacIntel,59.97720866,,,,,,,,,,,,,,,,,,,,,,,,,,,,,,,,,,,,,,1,1.7282,0,6,6,6,1,evoke,wake up,surrender,reconnoiter,transcend,call forth,5,,,,,,,,,,,,,,,,,,,,,,,,,,,,,,,,,,,,,,
,,,,,,,,,,,,,,,90348,001,2022-04-28_22h35.44.002,SPAMnetsValid,2021.1.4,MacIntel,59.97720866,,,,,,,,,,,,,,,,,,,,,,,,,,,,,,,,,,,,,,3,14.4546,0,7,7,7,1,unobtrusive,unintelligent,epileptic,illogical,lineal,modest,5,,,,,,,,,,,,,,,,,,,,,,,,,,,,,,,,,,,,,,
,,,,,,,,,,,,,,,90348,001,2022-04-28_22h35.44.002,SPAMnetsValid,2021.1.4,MacIntel,59.97720866,,,,,,,,,,,,,,,,,,,,,,,,,,,,,,,,,,,,,,4,2.3803,0,8,8,8,1,terrain,ice cream,final test,tractor,area of ground,weight,4,,,,,,,,,,,,,,,,,,,,,,,,,,,,,,,,,,,,,,
,,,,,,,,,,,,,,,90348,001,2022-04-28_22h35.44.002,SPAMnetsValid,2021.1.4,MacIntel,59.97720866,,,,,,,,,,,,,,,,,,,,,,,,,,,,,,,,,,,,,,4,7.6857,0,9,9,9,1,capriciousness,stubbornness,courage,whimsicality,amazement,greediness,3,,,,,,,,,,,,,,,,,,,,,,,,,,,,,,,,,,,,,,
,,,,,,,,,,,,,,,90348,001,2022-04-28_22h35.44.002,SPAMnetsValid,2021.1.4,MacIntel,59.97720866,,,,,,,,,,,,,,,,,,,,,,,,,,,,,,,,,,,,,,1,3.3336,0,10,10,10,1,maelstrom,slander,whirlpool,enmity,armor,majolica,2,,,,,,,,,,,,,,,,,,,,,,,,,,,,,,,,,,,,,,
,,,,,,,,,,,,,,,90348,001,2022-04-28_22h35.44.002,SPAMnetsValid,2021.1.4,MacIntel,59.97720866,,,,,,,,,,,,,,,,,,,,,,,,,,,,,,,,,,,,,,1,2.0477,0,11,11,11,1,tentative,critical,conclusive,authentic,provisional,apprehensive,4,,,,,,,,,,,,,,,,,,,,,,,,,,,,,,,,,,,,,,
,,,,,,,,,,,,,,,90348,001,2022-04-28_22h35.44.002,SPAMnetsValid,2021.1.4,MacIntel,59.97720866,,,,,,,,,,,,,,,,,,,,,,,,,,,,,,,,,,,,,,5,5.1838,0,12,12,12,1,placate,rehabilitate,plagiarize,depredate,apprise,conciliate,5,,,,,,,,,,,,,,,,,,,,,,,,,,,,,,,,,,,,,,
,,,,,,,,,,,,,,,90348,001,2022-04-28_22h35.44.002,SPAMnetsValid,2021.1.4,MacIntel,59.97720866,,,,,,,,,,,,,,,,,,,,,,,,,,,,,,,,,,,,,,2,8.319,0,13,13,13,1,surcease,enlightenment,cessation,inattention,censor,substitution,2,,,,,,,,,,,,,,,,,,,,,,,,,,,,,,,,,,,,,,
,,,,,,,,,,,,,,,90348,001,2022-04-28_22h35.44.002,SPAMnetsValid,2021.1.4,MacIntel,59.97720866,,,,,,,,,,,,,,,,,,,,,,,,,,,,,,,,,,,,,,2,5.5734,0,14,14,14,1,apathetic,wandering,impassive,hateful,prophetic,overflowing,2,,,,,,,,,,,,,,,,,,,,,,,,,,,,,,,,,,,,,,
,,,,,,,,,,,,,,,90348,001,2022-04-28_22h35.44.002,SPAMnetsValid,2021.1.4,MacIntel,59.97720866,,,,,,,,,,,,,,,,,,,,,,,,,,,,,,,,,,,,,,1,11.2625,0,15,15,15,1,paternoster,paternalism,patricide,malediction,benediction,prayer,5,,,,,,,,,,,,,,,,,,,,,,,,,,,,,,,,,,,,,,
,,,,,,,,,,,,,,,90348,001,2022-04-28_22h35.44.002,SPAMnetsValid,2021.1.4,MacIntel,59.97720866,,,,,,,,,,,,,,,,,,,,,,,,,,,,,,,,,,,,,,5,4.4866,0,16,16,16,1,opalescence,opulence,senescence,bankruptcy,iridescence,assiduity,4,,,,,,,,,,,,,,,,,,,,,,,,,,,,,,,,,,,,,,
,,,,,,,,,,,,,,,90348,001,2022-04-28_22h35.44.002,SPAMnetsValid,2021.1.4,MacIntel,59.97720866,,,,,,,,,,,,,,,,,,,,,,,,,,,,,,,,,,,,,,5,12.7349,0,17,17,17,1,lush,stupid,luxurious,hazy,putrid,languishing,2,,,,,,,,,,,,,,,,,,,,,,,,,,,,,,,,,,,,,,
,,,,,,,,,,,,,,,90348,001,2022-04-28_22h35.44.002,SPAMnetsValid,2021.1.4,MacIntel,59.97720866,,,,,,,,,,,,,,,,,,,,,,,,,,,,,,,,,,,,,,5,4.3979,0,18,18,18,1,curtailment,expenditure,abandonment,abridgment,improvement,forgery,3,,,,,,,,,,,,,,,,,,,,,,,,,,,,,,,,,,,,,,
,,,,,,,,,,,,,,,90348,001,2022-04-28_22h35.44.002,SPAMnetsValid,2021.1.4,MacIntel,59.97720866,,,,,,,,,,,,,,,,,,,,,,,,,,,,,,,,,,,,,,2,8.3981,0,19,19,19,1,perversity,adversity,perviousness,travesty,waywardness,gentility,4,,,,,,,,,,,,,,,,,,,,,,,,,,,,,,,,,,,,,,
,,,,,,,,,,,,,,,90348,001,2022-04-28_22h35.44.002,SPAMnetsValid,2021.1.4,MacIntel,59.97720866,,,,,,,,,,,,,,,,,,,,,,,,,,,,,,,,,,,,,,5,6.6644,0,20,20,20,1,calumnious,complimentary,analogous,slanderous,tempestuous,magnanimous,3,,,,,,,,,,,,,,,,,,,,,,,,,,,,,,,,,,,,,,
,,,,,,,,,,,,,,,90348,001,2022-04-28_22h35.44.002,SPAMnetsValid,2021.1.4,MacIntel,59.97720866,,,,,,,,,,,,,,,,,,,,,,,,,,,,,,,,,,,,,,3,7.5676,0,21,21,21,1,illiberality,bigotry,imbecility,illegibility,cautery,immaturity,1,,,,,,,,,,,,,,,,,,,,,,,,,,,,,,,,,,,,,,
,,,,,,,,,,,,,,,90348,001,2022-04-28_22h35.44.002,SPAMnetsValid,2021.1.4,MacIntel,59.97720866,,,,,,,,,,,,,,,,,,,,,,,,,,,,,,,,,,,,,,5,3.8851,0,22,22,22,1,clabber,rejoice,gossip,curdle,crow,hobble,3,,,,,,,,,,,,,,,,,,,,,,,,,,,,,,,,,,,,,,
,,,,,,,,,,,,,,,90348,001,2022-04-28_22h35.44.002,SPAMnetsValid,2021.1.4,MacIntel,59.97720866,,,,,,,,,,,,,,,,,,,,,,,,,,,,,,,,,,,,,,4,5.3325,0,23,23,23,1,sedulousness,diligence,credulousness,seduction,perilousness,frankness,1,,,,,,,,,,,,,,,,,,,,,,,,,,,,,,,,,,,,,,
,,,,,,,,,,,,,,,90348,001,2022-04-28_22h35.44.002,SPAMnetsValid,2021.1.4,MacIntel,59.97720866,,,,,,,,,,,,,,,,,,,,,,,,,,,,,,,,,,,,,,,,,,,,,,,,,,,,making a fort,pillow,0,0,0,0,1,,,,,,,,,,,,,,,,,,,,,,,,,,,,,,,
,,,,,,,,,,,,,,,90348,001,2022-04-28_22h35.44.002,SPAMnetsValid,2021.1.4,MacIntel,59.97720866,,,,,,,,,,,,,,,,,,,,,,,,,,,,,,,,,,,,,,,,,,,,,,,,,,,,pillow fight,pillow,1,0,1,0,1,,,,,,,,,,,,,,,,,,,,,,,,,,,,,,,
,,,,,,,,,,,,,,,90348,001,2022-04-28_22h35.44.002,SPAMnetsValid,2021.1.4,MacIntel,59.97720866,,,,,,,,,,,,,,,,,,,,,,,,,,,,,,,,,,,,,,,,,,,,,,,,,,,,building a seat,pillow,2,0,2,0,1,,,,,,,,,,,,,,,,,,,,,,,,,,,,,,,
,,,,,,,,,,,,,,,90348,001,2022-04-28_22h35.44.002,SPAMnetsValid,2021.1.4,MacIntel,59.97720866,,,,,,,,,,,,,,,,,,,,,,,,,,,,,,,,,,,,,,,,,,,,,,,,,,,,sleeping with,pillow,3,0,3,0,1,,,,,,,,,,,,,,,,,,,,,,,,,,,,,,,
,,,,,,,,,,,,,,,90348,001,2022-04-28_22h35.44.002,SPAMnetsValid,2021.1.4,MacIntel,59.97720866,,,,,,,,,,,,,,,,,,,,,,,,,,,,,,,,,,,,,,,,,,,,,,,,,,,,sleding,pillow,4,0,4,0,1,,,,,,,,,,,,,,,,,,,,,,,,,,,,,,,
,,,,,,,,,,,,,,,90348,001,2022-04-28_22h35.44.002,SPAMnetsValid,2021.1.4,MacIntel,59.97720866,,,,,,,,,,,,,,,,,,,,,,,,,,,,,,,,,,,,,,,,,,,,,,,,,,,,dance prop,pillow,5,0,5,0,1,,,,,,,,,,,,,,,,,,,,,,,,,,,,,,,
,,,,,,,,,,,,,,,90348,001,2022-04-28_22h35.44.002,SPAMnetsValid,2021.1.4,MacIntel,59.97720866,,,,,,,,,,,,,,,,,,,,,,,,,,,,,,,,,,,,,,,,,,,,,,,,,,,,,,,,,,,0,0,0,2,1,pillow,,,,,,,,,,,,,,,,,,,,,,,,,
,,,,,,,,,,,,,,,90348,001,2022-04-28_22h35.44.002,SPAMnetsValid,2021.1.4,MacIntel,59.97720866,,,,,,,,,,,,,,,,,,,,,,,,,,,,,,,,,,,,,,,,,,,,,,,,,,,,drip wax to create art,candle,0,0,0,0,1,,,,,,,,,,,,,,,,,,,,,,,,,,,,,,,
,,,,,,,,,,,,,,,90348,001,2022-04-28_22h35.44.002,SPAMnetsValid,2021.1.4,MacIntel,59.97720866,,,,,,,,,,,,,,,,,,,,,,,,,,,,,,,,,,,,,,,,,,,,,,,,,,,,melt wax and make scultptures,candle,1,0,1,0,1,,,,,,,,,,,,,,,,,,,,,,,,,,,,,,,
,,,,,,,,,,,,,,,90348,001,2022-04-28_22h35.44.002,SPAMnetsValid,2021.1.4,MacIntel,59.97720866,,,,,,,,,,,,,,,,,,,,,,,,,,,,,,,,,,,,,,,,,,,,,,,,,,,,burn papers with it,candle,2,0,2,0,1,,,,,,,,,,,,,,,,,,,,,,,,,,,,,,,
,,,,,,,,,,,,,,,90348,001,2022-04-28_22h35.44.002,SPAMnetsValid,2021.1.4,MacIntel,59.97720866,,,,,,,,,,,,,,,,,,,,,,,,,,,,,,,,,,,,,,,,,,,,,,,,,,,, light a room,candle,3,0,3,0,1,,,,,,,,,,,,,,,,,,,,,,,,,,,,,,,
,,,,,,,,,,,,,,,90348,001,2022-04-28_22h35.44.002,SPAMnetsValid,2021.1.4,MacIntel,59.97720866,,,,,,,,,,,,,,,,,,,,,,,,,,,,,,,,,,,,,,,,,,,,,,,,,,,,car freshener,candle,4,0,4,0,1,,,,,,,,,,,,,,,,,,,,,,,,,,,,,,,
,,,,,,,,,,,,,,,90348,001,2022-04-28_22h35.44.002,SPAMnetsValid,2021.1.4,MacIntel,59.97720866,,,,,,,,,,,,,,,,,,,,,,,,,,,,,,,,,,,,,,,,,,,,,,,,,,,,birthday cake candle,candle,5,0,5,0,1,,,,,,,,,,,,,,,,,,,,,,,,,,,,,,,
,,,,,,,,,,,,,,,90348,001,2022-04-28_22h35.44.002,SPAMnetsValid,2021.1.4,MacIntel,59.97720866,,,,,,,,,,,,,,,,,,,,,,,,,,,,,,,,,,,,,,,,,,,,,,,,,,,,lighting fireworks,candle,6,0,6,0,1,,,,,,,,,,,,,,,,,,,,,,,,,,,,,,,
,,,,,,,,,,,,,,,90348,001,2022-04-28_22h35.44.002,SPAMnetsValid,2021.1.4,MacIntel,59.97720866,,,,,,,,,,,,,,,,,,,,,,,,,,,,,,,,,,,,,,,,,,,,,,,,,,,,light a bigger frie,candle,7,0,7,0,1,,,,,,,,,,,,,,,,,,,,,,,,,,,,,,,
,,,,,,,,,,,,,,,90348,001,2022-04-28_22h35.44.002,SPAMnetsValid,2021.1.4,MacIntel,59.97720866,,,,,,,,,,,,,,,,,,,,,,,,,,,,,,,,,,,,,,,,,,,,,,,,,,,,,,,,,,,0,1,1,1,1,candle,,,,,,,,,,,,,,,,,,,,,,,,,
,,,,,,,,,,,,,,,90348,001,2022-04-28_22h35.44.002,SPAMnetsValid,2021.1.4,MacIntel,59.97720866,,,,,,,,,,,,,,,,,,,,,,,,,,,,,,,,,,,,,,,,,,,,,,,,,,,,sand castle,bucket,0,0,0,0,1,,,,,,,,,,,,,,,,,,,,,,,,,,,,,,,
,,,,,,,,,,,,,,,90348,001,2022-04-28_22h35.44.002,SPAMnetsValid,2021.1.4,MacIntel,59.97720866,,,,,,,,,,,,,,,,,,,,,,,,,,,,,,,,,,,,,,,,,,,,,,,,,,,,bait bucket,bucket,1,0,1,0,1,,,,,,,,,,,,,,,,,,,,,,,,,,,,,,,
,,,,,,,,,,,,,,,90348,001,2022-04-28_22h35.44.002,SPAMnetsValid,2021.1.4,MacIntel,59.97720866,,,,,,,,,,,,,,,,,,,,,,,,,,,,,,,,,,,,,,,,,,,,,,,,,,,,storage,bucket,2,0,2,0,1,,,,,,,,,,,,,,,,,,,,,,,,,,,,,,,
,,,,,,,,,,,,,,,90348,001,2022-04-28_22h35.44.002,SPAMnetsValid,2021.1.4,MacIntel,59.97720866,,,,,,,,,,,,,,,,,,,,,,,,,,,,,,,,,,,,,,,,,,,,,,,,,,,,large cup,bucket,3,0,3,0,1,,,,,,,,,,,,,,,,,,,,,,,,,,,,,,,
,,,,,,,,,,,,,,,90348,001,2022-04-28_22h35.44.002,SPAMnetsValid,2021.1.4,MacIntel,59.97720866,,,,,,,,,,,,,,,,,,,,,,,,,,,,,,,,,,,,,,,,,,,,,,,,,,,,make large candle,bucket,4,0,4,0,1,,,,,,,,,,,,,,,,,,,,,,,,,,,,,,,
,,,,,,,,,,,,,,,90348,001,2022-04-28_22h35.44.002,SPAMnetsValid,2021.1.4,MacIntel,59.97720866,,,,,,,,,,,,,,,,,,,,,,,,,,,,,,,,,,,,,,,,,,,,,,,,,,,,pour cement in and pole in it to make a stand,bucket,5,0,5,0,1,,,,,,,,,,,,,,,,,,,,,,,,,,,,,,,
,,,,,,,,,,,,,,,90348,001,2022-04-28_22h35.44.002,SPAMnetsValid,2021.1.4,MacIntel,59.97720866,,,,,,,,,,,,,,,,,,,,,,,,,,,,,,,,,,,,,,,,,,,,,,,,,,,,cooler,bucket,6,0,6,0,1,,,,,,,,,,,,,,,,,,,,,,,,,,,,,,,
,,,,,,,,,,,,,,,90348,001,2022-04-28_22h35.44.002,SPAMnetsValid,2021.1.4,MacIntel,59.97720866,,,,,,,,,,,,,,,,,,,,,,,,,,,,,,,,,,,,,,,,,,,,,,,,,,,,drink bowl,bucket,7,0,7,0,1,,,,,,,,,,,,,,,,,,,,,,,,,,,,,,,
,,,,,,,,,,,,,,,90348,001,2022-04-28_22h35.44.002,SPAMnetsValid,2021.1.4,MacIntel,59.97720866,,,,,,,,,,,,,,,,,,,,,,,,,,,,,,,,,,,,,,,,,,,,,,,,,,,,,,,,,,,0,2,2,0,1,bucket,,,,,,,,,,,,,,,,,,,,,,,,,
,,,,,,,,,,,,,,,90348,001,2022-04-28_22h35.44.002,SPAMnetsValid,2021.1.4,MacIntel,59.97720866,,,,,,,,,,,,,,,,,,,,,,,,,,,,,,,,,,,,,,,,,,,,,,,,,,,,,,,,,,,,,,,,,dog,Animals,0,0,0,0,1,,,,,,,,,,,,,,,,,,
,,,,,,,,,,,,,,,90348,001,2022-04-28_22h35.44.002,SPAMnetsValid,2021.1.4,MacIntel,59.97720866,,,,,,,,,,,,,,,,,,,,,,,,,,,,,,,,,,,,,,,,,,,,,,,,,,,,,,,,,,,,,,,,,cat,Animals,1,0,1,0,1,,,,,,,,,,,,,,,,,,
,,,,,,,,,,,,,,,90348,001,2022-04-28_22h35.44.002,SPAMnetsValid,2021.1.4,MacIntel,59.97720866,,,,,,,,,,,,,,,,,,,,,,,,,,,,,,,,,,,,,,,,,,,,,,,,,,,,,,,,,,,,,,,,,bird,Animals,2,0,2,0,1,,,,,,,,,,,,,,,,,,
,,,,,,,,,,,,,,,90348,001,2022-04-28_22h35.44.002,SPAMnetsValid,2021.1.4,MacIntel,59.97720866,,,,,,,,,,,,,,,,,,,,,,,,,,,,,,,,,,,,,,,,,,,,,,,,,,,,,,,,,,,,,,,,,giraffe,Animals,3,0,3,0,1,,,,,,,,,,,,,,,,,,
,,,,,,,,,,,,,,,90348,001,2022-04-28_22h35.44.002,SPAMnetsValid,2021.1.4,MacIntel,59.97720866,,,,,,,,,,,,,,,,,,,,,,,,,,,,,,,,,,,,,,,,,,,,,,,,,,,,,,,,,,,,,,,,,lion,Animals,4,0,4,0,1,,,,,,,,,,,,,,,,,,
,,,,,,,,,,,,,,,90348,001,2022-04-28_22h35.44.002,SPAMnetsValid,2021.1.4,MacIntel,59.97720866,,,,,,,,,,,,,,,,,,,,,,,,,,,,,,,,,,,,,,,,,,,,,,,,,,,,,,,,,,,,,,,,,tiget,Animals,5,0,5,0,1,,,,,,,,,,,,,,,,,,
,,,,,,,,,,,,,,,90348,001,2022-04-28_22h35.44.002,SPAMnetsValid,2021.1.4,MacIntel,59.97720866,,,,,,,,,,,,,,,,,,,,,,,,,,,,,,,,,,,,,,,,,,,,,,,,,,,,,,,,,,,,,,,,,bear,Animals,6,0,6,0,1,,,,,,,,,,,,,,,,,,
,,,,,,,,,,,,,,,90348,001,2022-04-28_22h35.44.002,SPAMnetsValid,2021.1.4,MacIntel,59.97720866,,,,,,,,,,,,,,,,,,,,,,,,,,,,,,,,,,,,,,,,,,,,,,,,,,,,,,,,,,,,,,,,,deer,Animals,7,0,7,0,1,,,,,,,,,,,,,,,,,,
,,,,,,,,,,,,,,,90348,001,2022-04-28_22h35.44.002,SPAMnetsValid,2021.1.4,MacIntel,59.97720866,,,,,,,,,,,,,,,,,,,,,,,,,,,,,,,,,,,,,,,,,,,,,,,,,,,,,,,,,,,,,,,,,elephant,Animals,8,0,8,0,1,,,,,,,,,,,,,,,,,,
,,,,,,,,,,,,,,,90348,001,2022-04-28_22h35.44.002,SPAMnetsValid,2021.1.4,MacIntel,59.97720866,,,,,,,,,,,,,,,,,,,,,,,,,,,,,,,,,,,,,,,,,,,,,,,,,,,,,,,,,,,,,,,,,monkey,Animals,9,0,9,0,1,,,,,,,,,,,,,,,,,,
,,,,,,,,,,,,,,,90348,001,2022-04-28_22h35.44.002,SPAMnetsValid,2021.1.4,MacIntel,59.97720866,,,,,,,,,,,,,,,,,,,,,,,,,,,,,,,,,,,,,,,,,,,,,,,,,,,,,,,,,,,,,,,,,gorilla,Animals,10,0,10,0,1,,,,,,,,,,,,,,,,,,
,,,,,,,,,,,,,,,90348,001,2022-04-28_22h35.44.002,SPAMnetsValid,2021.1.4,MacIntel,59.97720866,,,,,,,,,,,,,,,,,,,,,,,,,,,,,,,,,,,,,,,,,,,,,,,,,,,,,,,,,,,,,,,,,chimp,Animals,11,0,11,0,1,,,,,,,,,,,,,,,,,,
,,,,,,,,,,,,,,,90348,001,2022-04-28_22h35.44.002,SPAMnetsValid,2021.1.4,MacIntel,59.97720866,,,,,,,,,,,,,,,,,,,,,,,,,,,,,,,,,,,,,,,,,,,,,,,,,,,,,,,,,,,,,,,,,mountain lion,Animals,12,0,12,0,1,,,,,,,,,,,,,,,,,,
,,,,,,,,,,,,,,,90348,001,2022-04-28_22h35.44.002,SPAMnetsValid,2021.1.4,MacIntel,59.97720866,,,,,,,,,,,,,,,,,,,,,,,,,,,,,,,,,,,,,,,,,,,,,,,,,,,,,,,,,,,,,,,,,capybara,Animals,13,0,13,0,1,,,,,,,,,,,,,,,,,,
,,,,,,,,,,,,,,,90348,001,2022-04-28_22h35.44.002,SPAMnetsValid,2021.1.4,MacIntel,59.97720866,,,,,,,,,,,,,,,,,,,,,,,,,,,,,,,,,,,,,,,,,,,,,,,,,,,,,,,,,,,,,,,,,turtle,Animals,14,0,14,0,1,,,,,,,,,,,,,,,,,,
,,,,,,,,,,,,,,,90348,001,2022-04-28_22h35.44.002,SPAMnetsValid,2021.1.4,MacIntel,59.97720866,,,,,,,,,,,,,,,,,,,,,,,,,,,,,,,,,,,,,,,,,,,,,,,,,,,,,,,,,,,,,,,,,moose,Animals,15,0,15,0,1,,,,,,,,,,,,,,,,,,
,,,,,,,,,,,,,,,90348,001,2022-04-28_22h35.44.002,SPAMnetsValid,2021.1.4,MacIntel,59.97720866,,,,,,,,,,,,,,,,,,,,,,,,,,,,,,,,,,,,,,,,,,,,,,,,,,,,,,,,,,,,,,,,,geese,Animals,16,0,16,0,1,,,,,,,,,,,,,,,,,,
,,,,,,,,,,,,,,,90348,001,2022-04-28_22h35.44.002,SPAMnetsValid,2021.1.4,MacIntel,59.97720866,,,,,,,,,,,,,,,,,,,,,,,,,,,,,,,,,,,,,,,,,,,,,,,,,,,,,,,,,,,,,,,,,chicken,Animals,17,0,17,0,1,,,,,,,,,,,,,,,,,,
,,,,,,,,,,,,,,,90348,001,2022-04-28_22h35.44.002,SPAMnetsValid,2021.1.4,MacIntel,59.97720866,,,,,,,,,,,,,,,,,,,,,,,,,,,,,,,,,,,,,,,,,,,,,,,,,,,,,,,,,,,,,,,,,cow,Animals,18,0,18,0,1,,,,,,,,,,,,,,,,,,
,,,,,,,,,,,,,,,90348,001,2022-04-28_22h35.44.002,SPAMnetsValid,2021.1.4,MacIntel,59.97720866,,,,,,,,,,,,,,,,,,,,,,,,,,,,,,,,,,,,,,,,,,,,,,,,,,,,,,,,,,,,,,,,,alpaca,Animals,19,0,19,0,1,,,,,,,,,,,,,,,,,,
,,,,,,,,,,,,,,,90348,001,2022-04-28_22h35.44.002,SPAMnetsValid,2021.1.4,MacIntel,59.97720866,,,,,,,,,,,,,,,,,,,,,,,,,,,,,,,,,,,,,,,,,,,,,,,,,,,,,,,,,,,,,,,,,squirlle,Animals,20,0,20,0,1,,,,,,,,,,,,,,,,,,
,,,,,,,,,,,,,,,90348,001,2022-04-28_22h35.44.002,SPAMnetsValid,2021.1.4,MacIntel,59.97720866,,,,,,,,,,,,,,,,,,,,,,,,,,,,,,,,,,,,,,,,,,,,,,,,,,,,,,,,,,,,,,,,,chipmunk,Animals,21,0,21,0,1,,,,,,,,,,,,,,,,,,
,,,,,,,,,,,,,,,90348,001,2022-04-28_22h35.44.002,SPAMnetsValid,2021.1.4,MacIntel,59.97720866,,,,,,,,,,,,,,,,,,,,,,,,,,,,,,,,,,,,,,,,,,,,,,,,,,,,,,,,,,,,,,,,,bobcat,Animals,22,0,22,0,1,,,,,,,,,,,,,,,,,,
,,,,,,,,,,,,,,,90348,001,2022-04-28_22h35.44.002,SPAMnetsValid,2021.1.4,MacIntel,59.97720866,,,,,,,,,,,,,,,,,,,,,,,,,,,,,,,,,,,,,,,,,,,,,,,,,,,,,,,,,,,,,,,,,snake,Animals,23,0,23,0,1,,,,,,,,,,,,,,,,,,
,,,,,,,,,,,,,,,90348,001,2022-04-28_22h35.44.002,SPAMnetsValid,2021.1.4,MacIntel,59.97720866,,,,,,,,,,,,,,,,,,,,,,,,,,,,,,,,,,,,,,,,,,,,,,,,,,,,,,,,,,,,,,,,,alligator,Animals,24,0,24,0,1,,,,,,,,,,,,,,,,,,
,,,,,,,,,,,,,,,90348,001,2022-04-28_22h35.44.002,SPAMnetsValid,2021.1.4,MacIntel,59.97720866,,,,,,,,,,,,,,,,,,,,,,,,,,,,,,,,,,,,,,,,,,,,,,,,,,,,,,,,,,,,,,,,,fish,Animals,25,0,25,0,1,,,,,,,,,,,,,,,,,,
,,,,,,,,,,,,,,,90348,001,2022-04-28_22h35.44.002,SPAMnetsValid,2021.1.4,MacIntel,59.97720866,,,,,,,,,,,,,,,,,,,,,,,,,,,,,,,,,,,,,,,,,,,,,,,,,,,,,,,,,,,,,,,,,,,,,,,,0,0,0,0,1,Animals,,,,,,,,,,,,
,,,,,,,,,,,,,,,90348,001,2022-04-28_22h35.44.002,SPAMnetsValid,2021.1.4,MacIntel,59.97720866,,,,,,,,,,,,,,,,,,,,,,,,,,,,,,,,,,,,,,,,,,,,,,,,,,,,,,,,,,,,,,,,,,,,,,,,,,,,,,2,4.0923,0,0,0,0,1,"I enjoy concentrating on a fantasy or daydream and exploring all its possibilities, letting it grow and develop.",0,1,,
,,,,,,,,,,,,,,,90348,001,2022-04-28_22h35.44.002,SPAMnetsValid,2021.1.4,MacIntel,59.97720866,,,,,,,,,,,,,,,,,,,,,,,,,,,,,,,,,,,,,,,,,,,,,,,,,,,,,,,,,,,,,,,,,,,,,,,,,,,,,,4,2.8638,0,1,1,1,1,I think it's interesting to learn and develop new hobbies.,0,2,,
,,,,,,,,,,,,,,,90348,001,2022-04-28_22h35.44.002,SPAMnetsValid,2021.1.4,MacIntel,59.97720866,,,,,,,,,,,,,,,,,,,,,,,,,,,,,,,,,,,,,,,,,,,,,,,,,,,,,,,,,,,,,,,,,,,,,,,,,,,,,,4,2.0209,0,2,2,2,1,I am intrigued by the patterns I find in art and nature.,0,3,,
,,,,,,,,,,,,,,,90348,001,2022-04-28_22h35.44.002,SPAMnetsValid,2021.1.4,MacIntel,59.97720866,,,,,,,,,,,,,,,,,,,,,,,,,,,,,,,,,,,,,,,,,,,,,,,,,,,,,,,,,,,,,,,,,,,,,,,,,,,,,,2,5.9362,0,3,3,3,1,I believe letting students hear controversial speakers can only confuse and mislead them.,1,4,,
,,,,,,,,,,,,,,,90348,001,2022-04-28_22h35.44.002,SPAMnetsValid,2021.1.4,MacIntel,59.97720866,,,,,,,,,,,,,,,,,,,,,,,,,,,,,,,,,,,,,,,,,,,,,,,,,,,,,,,,,,,,,,,,,,,,,,,,,,,,,,4,3.1023,0,4,4,4,1,Poetry has little or no effect on me.,1,5,,
,,,,,,,,,,,,,,,90348,001,2022-04-28_22h35.44.002,SPAMnetsValid,2021.1.4,MacIntel,59.97720866,,,,,,,,,,,,,,,,,,,,,,,,,,,,,,,,,,,,,,,,,,,,,,,,,,,,,,,,,,,,,,,,,,,,,,,,,,,,,,3,10.8018,0,5,5,5,1,I would have difficulty just letting my mind wander without control or guidance.,1,6,,
,,,,,,,,,,,,,,,90348,001,2022-04-28_22h35.44.002,SPAMnetsValid,2021.1.4,MacIntel,59.97720866,,,,,,,,,,,,,,,,,,,,,,,,,,,,,,,,,,,,,,,,,,,,,,,,,,,,,,,,,,,,,,,,,,,,,,,,,,,,,,1,3.9766,0,6,6,6,1,I seldom notice the moods or feelings that different environments produce.,1,7,,
,,,,,,,,,,,,,,,90348,001,2022-04-28_22h35.44.002,SPAMnetsValid,2021.1.4,MacIntel,59.97720866,,,,,,,,,,,,,,,,,,,,,,,,,,,,,,,,,,,,,,,,,,,,,,,,,,,,,,,,,,,,,,,,,,,,,,,,,,,,,,5,2.4479,0,7,7,7,1,I experience a wide range of emotions or feelings.,0,8,,
,,,,,,,,,,,,,,,90348,001,2022-04-28_22h35.44.002,SPAMnetsValid,2021.1.4,MacIntel,59.97720866,,,,,,,,,,,,,,,,,,,,,,,,,,,,,,,,,,,,,,,,,,,,,,,,,,,,,,,,,,,,,,,,,,,,,,,,,,,,,,3,4.3385,0,8,8,8,1,"Sometimes when I am reading poetry or looking at a work of art, I feel a chill or wave of excitement.",0,9,,
,,,,,,,,,,,,,,,90348,001,2022-04-28_22h35.44.002,SPAMnetsValid,2021.1.4,MacIntel,59.97720866,,,,,,,,,,,,,,,,,,,,,,,,,,,,,,,,,,,,,,,,,,,,,,,,,,,,,,,,,,,,,,,,,,,,,,,,,,,,,,1,3.3786,0,9,9,9,1,I have little interest in speculating on the nature of the universe or the human condition.,1,10,,
,,,,,,,,,,,,,,,90348,001,2022-04-28_22h35.44.002,SPAMnetsValid,2021.1.4,MacIntel,59.97720866,,,,,,,,,,,,,,,,,,,,,,,,,,,,,,,,,,,,,,,,,,,,,,,,,,,,,,,,,,,,,,,,,,,,,,,,,,,,,,4,2.3067,0,10,10,10,1,I have a lot of intellectual curiosity.,0,11,,
,,,,,,,,,,,,,,,90348,001,2022-04-28_22h35.44.002,SPAMnetsValid,2021.1.4,MacIntel,59.97720866,,,,,,,,,,,,,,,,,,,,,,,,,,,,,,,,,,,,,,,,,,,,,,,,,,,,,,,,,,,,,,,,,,,,,,,,,,,,,,3,2.8948,0,11,11,11,1,I often enjoy playing with theories or abstract ideas.,0,12,,
,,,,,,,,,,,,,,,90348,001,2022-04-28_22h35.44.002,SPAMnetsValid,2021.1.4,MacIntel,59.97720866,,,,,,,,,,,,,,,,,,,,,,,,,,,,,,,,,,,,,,,,,,,,,,,,,,,,,,,,,,,,,,,,,,,,,,,,,,,,,,,,,,,,,,,,return,21.3499
