key_resp_3.keys,key_resp_3.rt,slider_2.response,slider_2.rt,rjt_rating,rjt_RT,trials_24.thisRepN,trials_24.thisTrialN,trials_24.thisN,trials_24.thisIndex,trials_24.ran,rjt_order,word1,word2,attention,participant,session,date,expName,psychopyVersion,OS,frameRate,trials_4.thisRepN,trials_4.thisTrialN,trials_4.thisN,trials_4.thisIndex,trials_4.ran,trials_5.thisRepN,trials_5.thisTrialN,trials_5.thisN,trials_5.thisIndex,trials_5.ran,repOne,repTwo,slider.response,slider.rt,trials_22.thisRepN,trials_22.thisTrialN,trials_22.thisN,trials_22.thisIndex,trials_22.ran,trials_99.thisRepN,trials_99.thisTrialN,trials_99.thisN,trials_99.thisIndex,trials_99.ran,slider_extend_2.response,slider_extend_2.rt,trials_6.thisRepN,trials_6.thisTrialN,trials_6.thisN,trials_6.thisIndex,trials_6.ran,vCue2,R1,R2,R3,R4,correct,sliderVocab.response,sliderVocab.rt,trials_7.thisRepN,trials_7.thisTrialN,trials_7.thisN,trials_7.thisIndex,trials_7.ran,VocabCue,VR1,VR2,VR3,VR4,VR5,VocabCorrect,AUT_resp,AUT_label,trials.thisRepN,trials.thisTrialN,trials.thisN,trials.thisIndex,trials.ran,trials_2.thisRepN,trials_2.thisTrialN,trials_2.thisN,trials_2.thisIndex,trials_2.ran,aut_prompt,VF_response,VF_tag,trials_16.thisRepN,trials_16.thisTrialN,trials_16.thisN,trials_16.thisIndex,trials_16.ran,trials_17.thisRepN,trials_17.thisTrialN,trials_17.thisN,trials_17.thisIndex,trials_17.ran,VFcond,open_slider.response,open_slider.rt,trials_3.thisRepN,trials_3.thisTrialN,trials_3.thisN,trials_3.thisIndex,trials_3.ran,OpenQ,Rev,OPEN_ORDER,key_resp_2.keys,key_resp_2.rt
return,10.1758,7,2.6314,7,2.6314,0,0,0,28,1,154,strawberry,yogurt,,90353,001,2022-04-28_18h02.51.299,SPAMnetsValid,2021.1.4,Win32,59.99520038,,,,,,,,,,,,,,,,,,,,,,,,,,,,,,,,,,,,,,,,,,,,,,,,,,,,,,,,,,,,,,,,,,,,,,,,,,,,,,,,,,,,,,,,,
,,5,4.6531,5,4.6531,0,1,1,10,1,118,chocolate,oven,,90353,001,2022-04-28_18h02.51.299,SPAMnetsValid,2021.1.4,Win32,59.99520038,,,,,,,,,,,,,,,,,,,,,,,,,,,,,,,,,,,,,,,,,,,,,,,,,,,,,,,,,,,,,,,,,,,,,,,,,,,,,,,,,,,,,,,,,
,,4,3.4075,4,3.4075,0,2,2,54,1,101,cactus,kitchen,,90353,001,2022-04-28_18h02.51.299,SPAMnetsValid,2021.1.4,Win32,59.99520038,,,,,,,,,,,,,,,,,,,,,,,,,,,,,,,,,,,,,,,,,,,,,,,,,,,,,,,,,,,,,,,,,,,,,,,,,,,,,,,,,,,,,,,,,
,,8,2.0136,8,2.0136,0,3,3,56,1,113,refrigerator,strawberry,,90353,001,2022-04-28_18h02.51.299,SPAMnetsValid,2021.1.4,Win32,59.99520038,,,,,,,,,,,,,,,,,,,,,,,,,,,,,,,,,,,,,,,,,,,,,,,,,,,,,,,,,,,,,,,,,,,,,,,,,,,,,,,,,,,,,,,,,
,,9,3.6713,9,3.6713,0,4,4,66,1,150,microwave,refrigerator,,90353,001,2022-04-28_18h02.51.299,SPAMnetsValid,2021.1.4,Win32,59.99520038,,,,,,,,,,,,,,,,,,,,,,,,,,,,,,,,,,,,,,,,,,,,,,,,,,,,,,,,,,,,,,,,,,,,,,,,,,,,,,,,,,,,,,,,,
,,2,2.7451,2,2.7451,0,5,5,3,1,129,cactus,refrigerator,,90353,001,2022-04-28_18h02.51.299,SPAMnetsValid,2021.1.4,Win32,59.99520038,,,,,,,,,,,,,,,,,,,,,,,,,,,,,,,,,,,,,,,,,,,,,,,,,,,,,,,,,,,,,,,,,,,,,,,,,,,,,,,,,,,,,,,,,
,,9,1.8452,9,1.8452,0,6,6,33,1,131,cactus,garden,,90353,001,2022-04-28_18h02.51.299,SPAMnetsValid,2021.1.4,Win32,59.99520038,,,,,,,,,,,,,,,,,,,,,,,,,,,,,,,,,,,,,,,,,,,,,,,,,,,,,,,,,,,,,,,,,,,,,,,,,,,,,,,,,,,,,,,,,
,,5,30.9335,5,30.9335,0,7,7,21,1,159,cookie,flower,,90353,001,2022-04-28_18h02.51.299,SPAMnetsValid,2021.1.4,Win32,59.99520038,,,,,,,,,,,,,,,,,,,,,,,,,,,,,,,,,,,,,,,,,,,,,,,,,,,,,,,,,,,,,,,,,,,,,,,,,,,,,,,,,,,,,,,,,
,,5,1.4569,5,1.4569,0,8,8,85,1,115,refrigerator,tomato,,90353,001,2022-04-28_18h02.51.299,SPAMnetsValid,2021.1.4,Win32,59.99520038,,,,,,,,,,,,,,,,,,,,,,,,,,,,,,,,,,,,,,,,,,,,,,,,,,,,,,,,,,,,,,,,,,,,,,,,,,,,,,,,,,,,,,,,,
,,7,2.5223,7,2.5223,0,9,9,41,1,175,melon,onion,,90353,001,2022-04-28_18h02.51.299,SPAMnetsValid,2021.1.4,Win32,59.99520038,,,,,,,,,,,,,,,,,,,,,,,,,,,,,,,,,,,,,,,,,,,,,,,,,,,,,,,,,,,,,,,,,,,,,,,,,,,,,,,,,,,,,,,,,
,,6,2.231,6,2.231,0,10,10,75,1,178,cactus,carrot,,90353,001,2022-04-28_18h02.51.299,SPAMnetsValid,2021.1.4,Win32,59.99520038,,,,,,,,,,,,,,,,,,,,,,,,,,,,,,,,,,,,,,,,,,,,,,,,,,,,,,,,,,,,,,,,,,,,,,,,,,,,,,,,,,,,,,,,,
,,6,2.4409,6,2.4409,0,11,11,2,1,174,cake,pretzel,,90353,001,2022-04-28_18h02.51.299,SPAMnetsValid,2021.1.4,Win32,59.99520038,,,,,,,,,,,,,,,,,,,,,,,,,,,,,,,,,,,,,,,,,,,,,,,,,,,,,,,,,,,,,,,,,,,,,,,,,,,,,,,,,,,,,,,,,
,,9,2.1543,9,2.1543,0,12,12,25,1,194,cactus,cactus,CHECK,90353,001,2022-04-28_18h02.51.299,SPAMnetsValid,2021.1.4,Win32,59.99520038,,,,,,,,,,,,,,,,,,,,,,,,,,,,,,,,,,,,,,,,,,,,,,,,,,,,,,,,,,,,,,,,,,,,,,,,,,,,,,,,,,,,,,,,,
,,7,3.5019,7,3.5019,0,13,13,31,1,156,melon,rose,,90353,001,2022-04-28_18h02.51.299,SPAMnetsValid,2021.1.4,Win32,59.99520038,,,,,,,,,,,,,,,,,,,,,,,,,,,,,,,,,,,,,,,,,,,,,,,,,,,,,,,,,,,,,,,,,,,,,,,,,,,,,,,,,,,,,,,,,
,,7,34.0582,7,34.0582,0,14,14,76,1,102,chocolate,refrigerator,,90353,001,2022-04-28_18h02.51.299,SPAMnetsValid,2021.1.4,Win32,59.99520038,,,,,,,,,,,,,,,,,,,,,,,,,,,,,,,,,,,,,,,,,,,,,,,,,,,,,,,,,,,,,,,,,,,,,,,,,,,,,,,,,,,,,,,,,
,,8,2.5147,8,2.5147,0,15,15,87,1,114,cookie,strawberry,,90353,001,2022-04-28_18h02.51.299,SPAMnetsValid,2021.1.4,Win32,59.99520038,,,,,,,,,,,,,,,,,,,,,,,,,,,,,,,,,,,,,,,,,,,,,,,,,,,,,,,,,,,,,,,,,,,,,,,,,,,,,,,,,,,,,,,,,
,,6,97.6278,6,97.6278,0,16,16,42,1,184,oven,pretzel,,90353,001,2022-04-28_18h02.51.299,SPAMnetsValid,2021.1.4,Win32,59.99520038,,,,,,,,,,,,,,,,,,,,,,,,,,,,,,,,,,,,,,,,,,,,,,,,,,,,,,,,,,,,,,,,,,,,,,,,,,,,,,,,,,,,,,,,,
,,9,1.8502,9,1.8502,0,17,17,53,1,177,chocolate,strawberry,,90353,001,2022-04-28_18h02.51.299,SPAMnetsValid,2021.1.4,Win32,59.99520038,,,,,,,,,,,,,,,,,,,,,,,,,,,,,,,,,,,,,,,,,,,,,,,,,,,,,,,,,,,,,,,,,,,,,,,,,,,,,,,,,,,,,,,,,
,,4,2.6155,4,2.6155,0,18,18,81,1,104,garden,microwave,,90353,001,2022-04-28_18h02.51.299,SPAMnetsValid,2021.1.4,Win32,59.99520038,,,,,,,,,,,,,,,,,,,,,,,,,,,,,,,,,,,,,,,,,,,,,,,,,,,,,,,,,,,,,,,,,,,,,,,,,,,,,,,,,,,,,,,,,
,,6,2.8223,6,2.8223,0,19,19,30,1,125,carrot,tree,,90353,001,2022-04-28_18h02.51.299,SPAMnetsValid,2021.1.4,Win32,59.99520038,,,,,,,,,,,,,,,,,,,,,,,,,,,,,,,,,,,,,,,,,,,,,,,,,,,,,,,,,,,,,,,,,,,,,,,,,,,,,,,,,,,,,,,,,
,,9,2.1494,9,2.1494,0,20,20,44,1,116,cake,chocolate,,90353,001,2022-04-28_18h02.51.299,SPAMnetsValid,2021.1.4,Win32,59.99520038,,,,,,,,,,,,,,,,,,,,,,,,,,,,,,,,,,,,,,,,,,,,,,,,,,,,,,,,,,,,,,,,,,,,,,,,,,,,,,,,,,,,,,,,,
,,2,3.0995,2,3.0995,0,21,21,46,1,123,cookie,tree,,90353,001,2022-04-28_18h02.51.299,SPAMnetsValid,2021.1.4,Win32,59.99520038,,,,,,,,,,,,,,,,,,,,,,,,,,,,,,,,,,,,,,,,,,,,,,,,,,,,,,,,,,,,,,,,,,,,,,,,,,,,,,,,,,,,,,,,,
,,7,5.0793,7,5.0793,0,22,22,37,1,139,carrot,strawberry,,90353,001,2022-04-28_18h02.51.299,SPAMnetsValid,2021.1.4,Win32,59.99520038,,,,,,,,,,,,,,,,,,,,,,,,,,,,,,,,,,,,,,,,,,,,,,,,,,,,,,,,,,,,,,,,,,,,,,,,,,,,,,,,,,,,,,,,,
,,8,23.0522,8,23.0522,0,23,23,23,1,148,flower,melon,,90353,001,2022-04-28_18h02.51.299,SPAMnetsValid,2021.1.4,Win32,59.99520038,,,,,,,,,,,,,,,,,,,,,,,,,,,,,,,,,,,,,,,,,,,,,,,,,,,,,,,,,,,,,,,,,,,,,,,,,,,,,,,,,,,,,,,,,
,,8,3.1176,8,3.1176,0,24,24,96,1,136,chocolate,microwave,,90353,001,2022-04-28_18h02.51.299,SPAMnetsValid,2021.1.4,Win32,59.99520038,,,,,,,,,,,,,,,,,,,,,,,,,,,,,,,,,,,,,,,,,,,,,,,,,,,,,,,,,,,,,,,,,,,,,,,,,,,,,,,,,,,,,,,,,
,,6,5.5407,6,5.5407,0,25,25,84,1,130,microwave,yogurt,,90353,001,2022-04-28_18h02.51.299,SPAMnetsValid,2021.1.4,Win32,59.99520038,,,,,,,,,,,,,,,,,,,,,,,,,,,,,,,,,,,,,,,,,,,,,,,,,,,,,,,,,,,,,,,,,,,,,,,,,,,,,,,,,,,,,,,,,
,,2,4.6679,2,4.6679,0,26,26,80,1,146,pretzel,tree,,90353,001,2022-04-28_18h02.51.299,SPAMnetsValid,2021.1.4,Win32,59.99520038,,,,,,,,,,,,,,,,,,,,,,,,,,,,,,,,,,,,,,,,,,,,,,,,,,,,,,,,,,,,,,,,,,,,,,,,,,,,,,,,,,,,,,,,,
,,5,4.7327,5,4.7327,0,27,27,89,1,140,cookie,refrigerator,,90353,001,2022-04-28_18h02.51.299,SPAMnetsValid,2021.1.4,Win32,59.99520038,,,,,,,,,,,,,,,,,,,,,,,,,,,,,,,,,,,,,,,,,,,,,,,,,,,,,,,,,,,,,,,,,,,,,,,,,,,,,,,,,,,,,,,,,
,,9,2.6694,9,2.6694,0,28,28,1,1,173,kitchen,tomato,,90353,001,2022-04-28_18h02.51.299,SPAMnetsValid,2021.1.4,Win32,59.99520038,,,,,,,,,,,,,,,,,,,,,,,,,,,,,,,,,,,,,,,,,,,,,,,,,,,,,,,,,,,,,,,,,,,,,,,,,,,,,,,,,,,,,,,,,
,,9,4.7877,9,4.7877,0,29,29,47,1,167,carrot,garden,,90353,001,2022-04-28_18h02.51.299,SPAMnetsValid,2021.1.4,Win32,59.99520038,,,,,,,,,,,,,,,,,,,,,,,,,,,,,,,,,,,,,,,,,,,,,,,,,,,,,,,,,,,,,,,,,,,,,,,,,,,,,,,,,,,,,,,,,
,,8,3.2381,8,3.2381,0,30,30,48,1,186,kitchen,yogurt,,90353,001,2022-04-28_18h02.51.299,SPAMnetsValid,2021.1.4,Win32,59.99520038,,,,,,,,,,,,,,,,,,,,,,,,,,,,,,,,,,,,,,,,,,,,,,,,,,,,,,,,,,,,,,,,,,,,,,,,,,,,,,,,,,,,,,,,,
,,5,7.378,5,7.378,0,31,31,62,1,189,onion,tree,,90353,001,2022-04-28_18h02.51.299,SPAMnetsValid,2021.1.4,Win32,59.99520038,,,,,,,,,,,,,,,,,,,,,,,,,,,,,,,,,,,,,,,,,,,,,,,,,,,,,,,,,,,,,,,,,,,,,,,,,,,,,,,,,,,,,,,,,
,,8,2.2006,8,2.2006,0,32,32,7,1,188,flower,tree,,90353,001,2022-04-28_18h02.51.299,SPAMnetsValid,2021.1.4,Win32,59.99520038,,,,,,,,,,,,,,,,,,,,,,,,,,,,,,,,,,,,,,,,,,,,,,,,,,,,,,,,,,,,,,,,,,,,,,,,,,,,,,,,,,,,,,,,,
,,7,3.4186,7,3.4186,0,33,33,12,1,162,microwave,tomato,,90353,001,2022-04-28_18h02.51.299,SPAMnetsValid,2021.1.4,Win32,59.99520038,,,,,,,,,,,,,,,,,,,,,,,,,,,,,,,,,,,,,,,,,,,,,,,,,,,,,,,,,,,,,,,,,,,,,,,,,,,,,,,,,,,,,,,,,
,,7,7.9029,7,7.9029,0,34,34,19,1,183,cake,rose,,90353,001,2022-04-28_18h02.51.299,SPAMnetsValid,2021.1.4,Win32,59.99520038,,,,,,,,,,,,,,,,,,,,,,,,,,,,,,,,,,,,,,,,,,,,,,,,,,,,,,,,,,,,,,,,,,,,,,,,,,,,,,,,,,,,,,,,,
,,5,4.4026,5,4.4026,0,35,35,20,1,149,broom,tomato,,90353,001,2022-04-28_18h02.51.299,SPAMnetsValid,2021.1.4,Win32,59.99520038,,,,,,,,,,,,,,,,,,,,,,,,,,,,,,,,,,,,,,,,,,,,,,,,,,,,,,,,,,,,,,,,,,,,,,,,,,,,,,,,,,,,,,,,,
,,9,1.6427,9,1.6427,0,36,36,86,1,193,melon,melon,CHECK,90353,001,2022-04-28_18h02.51.299,SPAMnetsValid,2021.1.4,Win32,59.99520038,,,,,,,,,,,,,,,,,,,,,,,,,,,,,,,,,,,,,,,,,,,,,,,,,,,,,,,,,,,,,,,,,,,,,,,,,,,,,,,,,,,,,,,,,
,,9,1.2708,9,1.2708,0,37,37,60,1,122,flower,garden,,90353,001,2022-04-28_18h02.51.299,SPAMnetsValid,2021.1.4,Win32,59.99520038,,,,,,,,,,,,,,,,,,,,,,,,,,,,,,,,,,,,,,,,,,,,,,,,,,,,,,,,,,,,,,,,,,,,,,,,,,,,,,,,,,,,,,,,,
,,9,1.2281,9,1.2281,0,38,38,22,1,142,garden,tree,,90353,001,2022-04-28_18h02.51.299,SPAMnetsValid,2021.1.4,Win32,59.99520038,,,,,,,,,,,,,,,,,,,,,,,,,,,,,,,,,,,,,,,,,,,,,,,,,,,,,,,,,,,,,,,,,,,,,,,,,,,,,,,,,,,,,,,,,
,,7,2.1823,7,2.1823,0,39,39,36,1,161,kitchen,pretzel,,90353,001,2022-04-28_18h02.51.299,SPAMnetsValid,2021.1.4,Win32,59.99520038,,,,,,,,,,,,,,,,,,,,,,,,,,,,,,,,,,,,,,,,,,,,,,,,,,,,,,,,,,,,,,,,,,,,,,,,,,,,,,,,,,,,,,,,,
,,6,7.2012,6,7.2012,0,40,40,6,1,151,microwave,onion,,90353,001,2022-04-28_18h02.51.299,SPAMnetsValid,2021.1.4,Win32,59.99520038,,,,,,,,,,,,,,,,,,,,,,,,,,,,,,,,,,,,,,,,,,,,,,,,,,,,,,,,,,,,,,,,,,,,,,,,,,,,,,,,,,,,,,,,,
,,3,5.5353,3,5.5353,0,41,41,32,1,182,flower,refrigerator,,90353,001,2022-04-28_18h02.51.299,SPAMnetsValid,2021.1.4,Win32,59.99520038,,,,,,,,,,,,,,,,,,,,,,,,,,,,,,,,,,,,,,,,,,,,,,,,,,,,,,,,,,,,,,,,,,,,,,,,,,,,,,,,,,,,,,,,,
,,3,2.7356,3,2.7356,0,42,42,71,1,187,cactus,microwave,,90353,001,2022-04-28_18h02.51.299,SPAMnetsValid,2021.1.4,Win32,59.99520038,,,,,,,,,,,,,,,,,,,,,,,,,,,,,,,,,,,,,,,,,,,,,,,,,,,,,,,,,,,,,,,,,,,,,,,,,,,,,,,,,,,,,,,,,
,,6,2.8705,6,2.8705,0,43,43,92,1,170,cookie,microwave,,90353,001,2022-04-28_18h02.51.299,SPAMnetsValid,2021.1.4,Win32,59.99520038,,,,,,,,,,,,,,,,,,,,,,,,,,,,,,,,,,,,,,,,,,,,,,,,,,,,,,,,,,,,,,,,,,,,,,,,,,,,,,,,,,,,,,,,,
,,7,3.1021,7,3.1021,0,44,44,91,1,166,cake,yogurt,,90353,001,2022-04-28_18h02.51.299,SPAMnetsValid,2021.1.4,Win32,59.99520038,,,,,,,,,,,,,,,,,,,,,,,,,,,,,,,,,,,,,,,,,,,,,,,,,,,,,,,,,,,,,,,,,,,,,,,,,,,,,,,,,,,,,,,,,
,,6,2.4344,6,2.4344,0,45,45,73,1,135,carrot,oven,,90353,001,2022-04-28_18h02.51.299,SPAMnetsValid,2021.1.4,Win32,59.99520038,,,,,,,,,,,,,,,,,,,,,,,,,,,,,,,,,,,,,,,,,,,,,,,,,,,,,,,,,,,,,,,,,,,,,,,,,,,,,,,,,,,,,,,,,
,,6,20.0512,6,20.0512,0,46,46,88,1,171,cake,tomato,,90353,001,2022-04-28_18h02.51.299,SPAMnetsValid,2021.1.4,Win32,59.99520038,,,,,,,,,,,,,,,,,,,,,,,,,,,,,,,,,,,,,,,,,,,,,,,,,,,,,,,,,,,,,,,,,,,,,,,,,,,,,,,,,,,,,,,,,
,,8,36.8231,8,36.8231,0,47,47,65,1,160,cookie,kitchen,,90353,001,2022-04-28_18h02.51.299,SPAMnetsValid,2021.1.4,Win32,59.99520038,,,,,,,,,,,,,,,,,,,,,,,,,,,,,,,,,,,,,,,,,,,,,,,,,,,,,,,,,,,,,,,,,,,,,,,,,,,,,,,,,,,,,,,,,
,,3,3.8257,3,3.8257,0,48,48,15,1,145,cactus,yogurt,,90353,001,2022-04-28_18h02.51.299,SPAMnetsValid,2021.1.4,Win32,59.99520038,,,,,,,,,,,,,,,,,,,,,,,,,,,,,,,,,,,,,,,,,,,,,,,,,,,,,,,,,,,,,,,,,,,,,,,,,,,,,,,,,,,,,,,,,
,,1,2.6404,1,2.6404,0,49,49,63,1,137,microwave,tree,,90353,001,2022-04-28_18h02.51.299,SPAMnetsValid,2021.1.4,Win32,59.99520038,,,,,,,,,,,,,,,,,,,,,,,,,,,,,,,,,,,,,,,,,,,,,,,,,,,,,,,,,,,,,,,,,,,,,,,,,,,,,,,,,,,,,,,,,
,,6,3.0518,6,3.0518,0,50,50,24,1,169,onion,yogurt,,90353,001,2022-04-28_18h02.51.299,SPAMnetsValid,2021.1.4,Win32,59.99520038,,,,,,,,,,,,,,,,,,,,,,,,,,,,,,,,,,,,,,,,,,,,,,,,,,,,,,,,,,,,,,,,,,,,,,,,,,,,,,,,,,,,,,,,,
,,9,2.1194,9,2.1194,0,51,51,69,1,124,oven,refrigerator,,90353,001,2022-04-28_18h02.51.299,SPAMnetsValid,2021.1.4,Win32,59.99520038,,,,,,,,,,,,,,,,,,,,,,,,,,,,,,,,,,,,,,,,,,,,,,,,,,,,,,,,,,,,,,,,,,,,,,,,,,,,,,,,,,,,,,,,,
,,7,1.8325,7,1.8325,0,52,52,82,1,98,pretzel,strawberry,,90353,001,2022-04-28_18h02.51.299,SPAMnetsValid,2021.1.4,Win32,59.99520038,,,,,,,,,,,,,,,,,,,,,,,,,,,,,,,,,,,,,,,,,,,,,,,,,,,,,,,,,,,,,,,,,,,,,,,,,,,,,,,,,,,,,,,,,
,,9,2.1216,9,2.1216,0,53,53,0,1,106,cake,strawberry,,90353,001,2022-04-28_18h02.51.299,SPAMnetsValid,2021.1.4,Win32,59.99520038,,,,,,,,,,,,,,,,,,,,,,,,,,,,,,,,,,,,,,,,,,,,,,,,,,,,,,,,,,,,,,,,,,,,,,,,,,,,,,,,,,,,,,,,,
,,9,2.5189,9,2.5189,0,54,54,83,1,100,garden,tomato,,90353,001,2022-04-28_18h02.51.299,SPAMnetsValid,2021.1.4,Win32,59.99520038,,,,,,,,,,,,,,,,,,,,,,,,,,,,,,,,,,,,,,,,,,,,,,,,,,,,,,,,,,,,,,,,,,,,,,,,,,,,,,,,,,,,,,,,,
,,3,3.0345,3,3.0345,0,55,55,68,1,180,tree,yogurt,,90353,001,2022-04-28_18h02.51.299,SPAMnetsValid,2021.1.4,Win32,59.99520038,,,,,,,,,,,,,,,,,,,,,,,,,,,,,,,,,,,,,,,,,,,,,,,,,,,,,,,,,,,,,,,,,,,,,,,,,,,,,,,,,,,,,,,,,
,,9,3.484,9,3.484,0,56,56,17,1,99,garden,melon,,90353,001,2022-04-28_18h02.51.299,SPAMnetsValid,2021.1.4,Win32,59.99520038,,,,,,,,,,,,,,,,,,,,,,,,,,,,,,,,,,,,,,,,,,,,,,,,,,,,,,,,,,,,,,,,,,,,,,,,,,,,,,,,,,,,,,,,,
,,6,16.3681,6,16.3681,0,57,57,79,1,103,pretzel,tomato,,90353,001,2022-04-28_18h02.51.299,SPAMnetsValid,2021.1.4,Win32,59.99520038,,,,,,,,,,,,,,,,,,,,,,,,,,,,,,,,,,,,,,,,,,,,,,,,,,,,,,,,,,,,,,,,,,,,,,,,,,,,,,,,,,,,,,,,,
,,2,3.1323,2,3.1323,0,58,58,50,1,126,kitchen,tree,,90353,001,2022-04-28_18h02.51.299,SPAMnetsValid,2021.1.4,Win32,59.99520038,,,,,,,,,,,,,,,,,,,,,,,,,,,,,,,,,,,,,,,,,,,,,,,,,,,,,,,,,,,,,,,,,,,,,,,,,,,,,,,,,,,,,,,,,
,,2,11.3539,2,11.3539,0,59,59,13,1,105,cactus,oven,,90353,001,2022-04-28_18h02.51.299,SPAMnetsValid,2021.1.4,Win32,59.99520038,,,,,,,,,,,,,,,,,,,,,,,,,,,,,,,,,,,,,,,,,,,,,,,,,,,,,,,,,,,,,,,,,,,,,,,,,,,,,,,,,,,,,,,,,
,,2,3.1031,2,3.1031,0,60,60,64,1,157,refrigerator,rose,,90353,001,2022-04-28_18h02.51.299,SPAMnetsValid,2021.1.4,Win32,59.99520038,,,,,,,,,,,,,,,,,,,,,,,,,,,,,,,,,,,,,,,,,,,,,,,,,,,,,,,,,,,,,,,,,,,,,,,,,,,,,,,,,,,,,,,,,
,,8,3.9694,8,3.9694,0,61,61,11,1,117,melon,strawberry,,90353,001,2022-04-28_18h02.51.299,SPAMnetsValid,2021.1.4,Win32,59.99520038,,,,,,,,,,,,,,,,,,,,,,,,,,,,,,,,,,,,,,,,,,,,,,,,,,,,,,,,,,,,,,,,,,,,,,,,,,,,,,,,,,,,,,,,,
,,8,16.0435,8,16.0435,0,62,62,94,1,133,cake,flower,,90353,001,2022-04-28_18h02.51.299,SPAMnetsValid,2021.1.4,Win32,59.99520038,,,,,,,,,,,,,,,,,,,,,,,,,,,,,,,,,,,,,,,,,,,,,,,,,,,,,,,,,,,,,,,,,,,,,,,,,,,,,,,,,,,,,,,,,
,,3,32.049,3,32.049,0,63,63,40,1,165,onion,rose,,90353,001,2022-04-28_18h02.51.299,SPAMnetsValid,2021.1.4,Win32,59.99520038,,,,,,,,,,,,,,,,,,,,,,,,,,,,,,,,,,,,,,,,,,,,,,,,,,,,,,,,,,,,,,,,,,,,,,,,,,,,,,,,,,,,,,,,,
,,6,6.0878,6,6.0878,0,64,64,5,1,108,carrot,chocolate,,90353,001,2022-04-28_18h02.51.299,SPAMnetsValid,2021.1.4,Win32,59.99520038,,,,,,,,,,,,,,,,,,,,,,,,,,,,,,,,,,,,,,,,,,,,,,,,,,,,,,,,,,,,,,,,,,,,,,,,,,,,,,,,,,,,,,,,,
,,7,3.7191,7,3.7191,0,65,65,9,1,176,cactus,tomato,,90353,001,2022-04-28_18h02.51.299,SPAMnetsValid,2021.1.4,Win32,59.99520038,,,,,,,,,,,,,,,,,,,,,,,,,,,,,,,,,,,,,,,,,,,,,,,,,,,,,,,,,,,,,,,,,,,,,,,,,,,,,,,,,,,,,,,,,
,,8,1.9488,8,1.9488,0,66,66,51,1,168,cactus,flower,,90353,001,2022-04-28_18h02.51.299,SPAMnetsValid,2021.1.4,Win32,59.99520038,,,,,,,,,,,,,,,,,,,,,,,,,,,,,,,,,,,,,,,,,,,,,,,,,,,,,,,,,,,,,,,,,,,,,,,,,,,,,,,,,,,,,,,,,
,,8,4.8075,8,4.8075,0,67,67,72,1,181,carrot,kitchen,,90353,001,2022-04-28_18h02.51.299,SPAMnetsValid,2021.1.4,Win32,59.99520038,,,,,,,,,,,,,,,,,,,,,,,,,,,,,,,,,,,,,,,,,,,,,,,,,,,,,,,,,,,,,,,,,,,,,,,,,,,,,,,,,,,,,,,,,
,,8,2.203,8,2.203,0,68,68,43,1,185,cactus,rose,,90353,001,2022-04-28_18h02.51.299,SPAMnetsValid,2021.1.4,Win32,59.99520038,,,,,,,,,,,,,,,,,,,,,,,,,,,,,,,,,,,,,,,,,,,,,,,,,,,,,,,,,,,,,,,,,,,,,,,,,,,,,,,,,,,,,,,,,
,,8,3.1665,8,3.1665,0,69,69,70,1,141,melon,tomato,,90353,001,2022-04-28_18h02.51.299,SPAMnetsValid,2021.1.4,Win32,59.99520038,,,,,,,,,,,,,,,,,,,,,,,,,,,,,,,,,,,,,,,,,,,,,,,,,,,,,,,,,,,,,,,,,,,,,,,,,,,,,,,,,,,,,,,,,
,,1,4.0394,1,4.0394,0,70,70,57,1,127,cactus,chocolate,,90353,001,2022-04-28_18h02.51.299,SPAMnetsValid,2021.1.4,Win32,59.99520038,,,,,,,,,,,,,,,,,,,,,,,,,,,,,,,,,,,,,,,,,,,,,,,,,,,,,,,,,,,,,,,,,,,,,,,,,,,,,,,,,,,,,,,,,
,,3,3.5375,3,3.5375,0,71,71,55,1,143,pretzel,rose,,90353,001,2022-04-28_18h02.51.299,SPAMnetsValid,2021.1.4,Win32,59.99520038,,,,,,,,,,,,,,,,,,,,,,,,,,,,,,,,,,,,,,,,,,,,,,,,,,,,,,,,,,,,,,,,,,,,,,,,,,,,,,,,,,,,,,,,,
,,3,3.5377,3,3.5377,0,72,72,58,1,144,cake,garden,,90353,001,2022-04-28_18h02.51.299,SPAMnetsValid,2021.1.4,Win32,59.99520038,,,,,,,,,,,,,,,,,,,,,,,,,,,,,,,,,,,,,,,,,,,,,,,,,,,,,,,,,,,,,,,,,,,,,,,,,,,,,,,,,,,,,,,,,
,,7,5.8888,7,5.8888,0,73,73,8,1,97,chocolate,kitchen,,90353,001,2022-04-28_18h02.51.299,SPAMnetsValid,2021.1.4,Win32,59.99520038,,,,,,,,,,,,,,,,,,,,,,,,,,,,,,,,,,,,,,,,,,,,,,,,,,,,,,,,,,,,,,,,,,,,,,,,,,,,,,,,,,,,,,,,,
,,7,1.5593,7,1.5593,0,74,74,67,1,96,oven,strawberry,,90353,001,2022-04-28_18h02.51.299,SPAMnetsValid,2021.1.4,Win32,59.99520038,,,,,,,,,,,,,,,,,,,,,,,,,,,,,,,,,,,,,,,,,,,,,,,,,,,,,,,,,,,,,,,,,,,,,,,,,,,,,,,,,,,,,,,,,
,,4,125.6555,4,125.6555,0,75,75,49,1,152,cactus,strawberry,,90353,001,2022-04-28_18h02.51.299,SPAMnetsValid,2021.1.4,Win32,59.99520038,,,,,,,,,,,,,,,,,,,,,,,,,,,,,,,,,,,,,,,,,,,,,,,,,,,,,,,,,,,,,,,,,,,,,,,,,,,,,,,,,,,,,,,,,
,,5,7.6932,5,7.6932,0,76,76,90,1,190,microwave,strawberry,,90353,001,2022-04-28_18h02.51.299,SPAMnetsValid,2021.1.4,Win32,59.99520038,,,,,,,,,,,,,,,,,,,,,,,,,,,,,,,,,,,,,,,,,,,,,,,,,,,,,,,,,,,,,,,,,,,,,,,,,,,,,,,,,,,,,,,,,
,,7,1.6357,7,1.6357,0,77,77,29,1,163,melon,refrigerator,,90353,001,2022-04-28_18h02.51.299,SPAMnetsValid,2021.1.4,Win32,59.99520038,,,,,,,,,,,,,,,,,,,,,,,,,,,,,,,,,,,,,,,,,,,,,,,,,,,,,,,,,,,,,,,,,,,,,,,,,,,,,,,,,,,,,,,,,
,,7,31.7884,7,31.7884,0,78,78,77,1,172,kitchen,melon,,90353,001,2022-04-28_18h02.51.299,SPAMnetsValid,2021.1.4,Win32,59.99520038,,,,,,,,,,,,,,,,,,,,,,,,,,,,,,,,,,,,,,,,,,,,,,,,,,,,,,,,,,,,,,,,,,,,,,,,,,,,,,,,,,,,,,,,,
,,5,2.1995,5,2.1995,0,79,79,4,1,109,broom,strawberry,,90353,001,2022-04-28_18h02.51.299,SPAMnetsValid,2021.1.4,Win32,59.99520038,,,,,,,,,,,,,,,,,,,,,,,,,,,,,,,,,,,,,,,,,,,,,,,,,,,,,,,,,,,,,,,,,,,,,,,,,,,,,,,,,,,,,,,,,
,,7,2.5187,7,2.5187,0,80,80,95,1,121,broom,microwave,,90353,001,2022-04-28_18h02.51.299,SPAMnetsValid,2021.1.4,Win32,59.99520038,,,,,,,,,,,,,,,,,,,,,,,,,,,,,,,,,,,,,,,,,,,,,,,,,,,,,,,,,,,,,,,,,,,,,,,,,,,,,,,,,,,,,,,,,
,,6,2.1994,6,2.1994,0,81,81,34,1,153,carrot,pretzel,,90353,001,2022-04-28_18h02.51.299,SPAMnetsValid,2021.1.4,Win32,59.99520038,,,,,,,,,,,,,,,,,,,,,,,,,,,,,,,,,,,,,,,,,,,,,,,,,,,,,,,,,,,,,,,,,,,,,,,,,,,,,,,,,,,,,,,,,
,,6,1.837,6,1.837,0,82,82,16,1,111,carrot,microwave,,90353,001,2022-04-28_18h02.51.299,SPAMnetsValid,2021.1.4,Win32,59.99520038,,,,,,,,,,,,,,,,,,,,,,,,,,,,,,,,,,,,,,,,,,,,,,,,,,,,,,,,,,,,,,,,,,,,,,,,,,,,,,,,,,,,,,,,,
,,7,4.1047,7,4.1047,0,83,83,45,1,179,broom,oven,,90353,001,2022-04-28_18h02.51.299,SPAMnetsValid,2021.1.4,Win32,59.99520038,,,,,,,,,,,,,,,,,,,,,,,,,,,,,,,,,,,,,,,,,,,,,,,,,,,,,,,,,,,,,,,,,,,,,,,,,,,,,,,,,,,,,,,,,
,,9,4.6167,9,4.6167,0,84,84,39,1,112,cake,carrot,,90353,001,2022-04-28_18h02.51.299,SPAMnetsValid,2021.1.4,Win32,59.99520038,,,,,,,,,,,,,,,,,,,,,,,,,,,,,,,,,,,,,,,,,,,,,,,,,,,,,,,,,,,,,,,,,,,,,,,,,,,,,,,,,,,,,,,,,
,,9,1.0823,9,1.0823,0,85,85,61,1,138,flower,rose,,90353,001,2022-04-28_18h02.51.299,SPAMnetsValid,2021.1.4,Win32,59.99520038,,,,,,,,,,,,,,,,,,,,,,,,,,,,,,,,,,,,,,,,,,,,,,,,,,,,,,,,,,,,,,,,,,,,,,,,,,,,,,,,,,,,,,,,,
,,6,4.2816,6,4.2816,0,86,86,38,1,155,carrot,cookie,,90353,001,2022-04-28_18h02.51.299,SPAMnetsValid,2021.1.4,Win32,59.99520038,,,,,,,,,,,,,,,,,,,,,,,,,,,,,,,,,,,,,,,,,,,,,,,,,,,,,,,,,,,,,,,,,,,,,,,,,,,,,,,,,,,,,,,,,
,,7,3.4659,7,3.4659,0,87,87,18,1,119,strawberry,tree,,90353,001,2022-04-28_18h02.51.299,SPAMnetsValid,2021.1.4,Win32,59.99520038,,,,,,,,,,,,,,,,,,,,,,,,,,,,,,,,,,,,,,,,,,,,,,,,,,,,,,,,,,,,,,,,,,,,,,,,,,,,,,,,,,,,,,,,,
,,5,2.2108,5,2.2108,0,88,88,74,1,128,melon,microwave,,90353,001,2022-04-28_18h02.51.299,SPAMnetsValid,2021.1.4,Win32,59.99520038,,,,,,,,,,,,,,,,,,,,,,,,,,,,,,,,,,,,,,,,,,,,,,,,,,,,,,,,,,,,,,,,,,,,,,,,,,,,,,,,,,,,,,,,,
,,4,2.4382,4,2.4382,0,89,89,78,1,132,broom,tree,,90353,001,2022-04-28_18h02.51.299,SPAMnetsValid,2021.1.4,Win32,59.99520038,,,,,,,,,,,,,,,,,,,,,,,,,,,,,,,,,,,,,,,,,,,,,,,,,,,,,,,,,,,,,,,,,,,,,,,,,,,,,,,,,,,,,,,,,
,,6,3.0838,6,3.0838,0,90,90,93,1,134,carrot,flower,,90353,001,2022-04-28_18h02.51.299,SPAMnetsValid,2021.1.4,Win32,59.99520038,,,,,,,,,,,,,,,,,,,,,,,,,,,,,,,,,,,,,,,,,,,,,,,,,,,,,,,,,,,,,,,,,,,,,,,,,,,,,,,,,,,,,,,,,
,,6,2.9932,6,2.9932,0,91,91,26,1,107,rose,tomato,,90353,001,2022-04-28_18h02.51.299,SPAMnetsValid,2021.1.4,Win32,59.99520038,,,,,,,,,,,,,,,,,,,,,,,,,,,,,,,,,,,,,,,,,,,,,,,,,,,,,,,,,,,,,,,,,,,,,,,,,,,,,,,,,,,,,,,,,
,,7,3.6989,7,3.6989,0,92,92,35,1,147,cake,refrigerator,,90353,001,2022-04-28_18h02.51.299,SPAMnetsValid,2021.1.4,Win32,59.99520038,,,,,,,,,,,,,,,,,,,,,,,,,,,,,,,,,,,,,,,,,,,,,,,,,,,,,,,,,,,,,,,,,,,,,,,,,,,,,,,,,,,,,,,,,
,,9,1.8942,9,1.8942,0,93,93,14,1,120,microwave,oven,,90353,001,2022-04-28_18h02.51.299,SPAMnetsValid,2021.1.4,Win32,59.99520038,,,,,,,,,,,,,,,,,,,,,,,,,,,,,,,,,,,,,,,,,,,,,,,,,,,,,,,,,,,,,,,,,,,,,,,,,,,,,,,,,,,,,,,,,
,,9,1.3928,9,1.3928,0,94,94,52,1,110,chocolate,cookie,,90353,001,2022-04-28_18h02.51.299,SPAMnetsValid,2021.1.4,Win32,59.99520038,,,,,,,,,,,,,,,,,,,,,,,,,,,,,,,,,,,,,,,,,,,,,,,,,,,,,,,,,,,,,,,,,,,,,,,,,,,,,,,,,,,,,,,,,
,,5,2.4187,5,2.4187,0,95,95,59,1,164,cookie,garden,,90353,001,2022-04-28_18h02.51.299,SPAMnetsValid,2021.1.4,Win32,59.99520038,,,,,,,,,,,,,,,,,,,,,,,,,,,,,,,,,,,,,,,,,,,,,,,,,,,,,,,,,,,,,,,,,,,,,,,,,,,,,,,,,,,,,,,,,
,,8,2.9864,8,2.9864,0,96,96,27,1,158,cookie,oven,,90353,001,2022-04-28_18h02.51.299,SPAMnetsValid,2021.1.4,Win32,59.99520038,,,,,,,,,,,,,,,,,,,,,,,,,,,,,,,,,,,,,,,,,,,,,,,,,,,,,,,,,,,,,,,,,,,,,,,,,,,,,,,,,,,,,,,,,
,,,,,,,,,,,,,,,90353,001,2022-04-28_18h02.51.299,SPAMnetsValid,2021.1.4,Win32,59.99520038,0,0,0,0,1,,,,,,,,,,,,,,,,,,,,,,,,,,,,,,,,,,,,,,,,,,,,,,,,,,,,,,,,,,,,,,,,,,,,,,,,,,,,,,,,,,,,
,,,,,,,,,,,,,,,90353,001,2022-04-28_18h02.51.299,SPAMnetsValid,2021.1.4,Win32,59.99520038,,,,,,0,0,0,1,1,0,1,,,,,,,,,,,,,,,,,,,,,,,,,,,,,,,,,,,,,,,,,,,,,,,,,,,,,,,,,,,,,,,,,,,,,,,,,,,,,
,,,,6,6.3302,,,,,,50,carrot,rose,,90353,001,2022-04-28_18h02.51.299,SPAMnetsValid,2021.1.4,Win32,59.99520038,,,,,,,,,,,,,6,6.3302,0,0,0,73,1,,,,,,,,,,,,,,,,,,,,,,,,,,,,,,,,,,,,,,,,,,,,,,,,,,,,,,,,,,,,,,,,,,,,,,
,,,,8,4.819,,,,,,52,carrot,tomato,,90353,001,2022-04-28_18h02.51.299,SPAMnetsValid,2021.1.4,Win32,59.99520038,,,,,,,,,,,,,8,4.819,0,1,1,95,1,,,,,,,,,,,,,,,,,,,,,,,,,,,,,,,,,,,,,,,,,,,,,,,,,,,,,,,,,,,,,,,,,,,,,,
,,,,4,6.651,,,,,,23,flower,microwave,,90353,001,2022-04-28_18h02.51.299,SPAMnetsValid,2021.1.4,Win32,59.99520038,,,,,,,,,,,,,4,6.651,0,2,2,25,1,,,,,,,,,,,,,,,,,,,,,,,,,,,,,,,,,,,,,,,,,,,,,,,,,,,,,,,,,,,,,,,,,,,,,,
,,,,6,1.847,,,,,,68,flower,tomato,,90353,001,2022-04-28_18h02.51.299,SPAMnetsValid,2021.1.4,Win32,59.99520038,,,,,,,,,,,,,6,1.847,0,3,3,94,1,,,,,,,,,,,,,,,,,,,,,,,,,,,,,,,,,,,,,,,,,,,,,,,,,,,,,,,,,,,,,,,,,,,,,,
,,,,7,2.7457,,,,,,18,onion,refrigerator,,90353,001,2022-04-28_18h02.51.299,SPAMnetsValid,2021.1.4,Win32,59.99520038,,,,,,,,,,,,,7,2.7457,0,4,4,62,1,,,,,,,,,,,,,,,,,,,,,,,,,,,,,,,,,,,,,,,,,,,,,,,,,,,,,,,,,,,,,,,,,,,,,,
,,,,6,2.5329,,,,,,10,flower,onion,,90353,001,2022-04-28_18h02.51.299,SPAMnetsValid,2021.1.4,Win32,59.99520038,,,,,,,,,,,,,6,2.5329,0,5,5,45,1,,,,,,,,,,,,,,,,,,,,,,,,,,,,,,,,,,,,,,,,,,,,,,,,,,,,,,,,,,,,,,,,,,,,,,
,,,,4,2.6194,,,,,,65,broom,garden,,90353,001,2022-04-28_18h02.51.299,SPAMnetsValid,2021.1.4,Win32,59.99520038,,,,,,,,,,,,,4,2.6194,0,6,6,23,1,,,,,,,,,,,,,,,,,,,,,,,,,,,,,,,,,,,,,,,,,,,,,,,,,,,,,,,,,,,,,,,,,,,,,,
,,,,3,5.667,,,,,,71,broom,rose,,90353,001,2022-04-28_18h02.51.299,SPAMnetsValid,2021.1.4,Win32,59.99520038,,,,,,,,,,,,,3,5.667,0,7,7,61,1,,,,,,,,,,,,,,,,,,,,,,,,,,,,,,,,,,,,,,,,,,,,,,,,,,,,,,,,,,,,,,,,,,,,,,
,,,,8,2.9485,,,,,,66,melon,yogurt,,90353,001,2022-04-28_18h02.51.299,SPAMnetsValid,2021.1.4,Win32,59.99520038,,,,,,,,,,,,,8,2.9485,0,8,8,48,1,,,,,,,,,,,,,,,,,,,,,,,,,,,,,,,,,,,,,,,,,,,,,,,,,,,,,,,,,,,,,,,,,,,,,,
,,,,9,3.6521,,,,,,94,kitchen,microwave,,90353,001,2022-04-28_18h02.51.299,SPAMnetsValid,2021.1.4,Win32,59.99520038,,,,,,,,,,,,,9,3.6521,0,9,9,58,1,,,,,,,,,,,,,,,,,,,,,,,,,,,,,,,,,,,,,,,,,,,,,,,,,,,,,,,,,,,,,,,,,,,,,,
,,,,8,3.1691,,,,,,55,tomato,tree,,90353,001,2022-04-28_18h02.51.299,SPAMnetsValid,2021.1.4,Win32,59.99520038,,,,,,,,,,,,,8,3.1691,0,10,10,35,1,,,,,,,,,,,,,,,,,,,,,,,,,,,,,,,,,,,,,,,,,,,,,,,,,,,,,,,,,,,,,,,,,,,,,,
,,,,1,5.5163,,,,,,83,broom,carrot,,90353,001,2022-04-28_18h02.51.299,SPAMnetsValid,2021.1.4,Win32,59.99520038,,,,,,,,,,,,,1,5.5163,0,11,11,4,1,,,,,,,,,,,,,,,,,,,,,,,,,,,,,,,,,,,,,,,,,,,,,,,,,,,,,,,,,,,,,,,,,,,,,,
,,,,7,5.2931,,,,,,42,garden,kitchen,,90353,001,2022-04-28_18h02.51.299,SPAMnetsValid,2021.1.4,Win32,59.99520038,,,,,,,,,,,,,7,5.2931,0,12,12,29,1,,,,,,,,,,,,,,,,,,,,,,,,,,,,,,,,,,,,,,,,,,,,,,,,,,,,,,,,,,,,,,,,,,,,,,
,,,,6,1.9367,,,,,,24,cookie,tomato,,90353,001,2022-04-28_18h02.51.299,SPAMnetsValid,2021.1.4,Win32,59.99520038,,,,,,,,,,,,,6,1.9367,0,13,13,68,1,,,,,,,,,,,,,,,,,,,,,,,,,,,,,,,,,,,,,,,,,,,,,,,,,,,,,,,,,,,,,,,,,,,,,,
,,,,8,2.1167,,,,,,4,chocolate,pretzel,,90353,001,2022-04-28_18h02.51.299,SPAMnetsValid,2021.1.4,Win32,59.99520038,,,,,,,,,,,,,8,2.1167,0,14,14,52,1,,,,,,,,,,,,,,,,,,,,,,,,,,,,,,,,,,,,,,,,,,,,,,,,,,,,,,,,,,,,,,,,,,,,,,
,,,,6,2.5991,,,,,,26,tomato,yogurt,,90353,001,2022-04-28_18h02.51.299,SPAMnetsValid,2021.1.4,Win32,59.99520038,,,,,,,,,,,,,6,2.5991,0,15,15,13,1,,,,,,,,,,,,,,,,,,,,,,,,,,,,,,,,,,,,,,,,,,,,,,,,,,,,,,,,,,,,,,,,,,,,,,
,,,,9,2.619,,,,,,93,kitchen,oven,,90353,001,2022-04-28_18h02.51.299,SPAMnetsValid,2021.1.4,Win32,59.99520038,,,,,,,,,,,,,9,2.619,0,16,16,82,1,,,,,,,,,,,,,,,,,,,,,,,,,,,,,,,,,,,,,,,,,,,,,,,,,,,,,,,,,,,,,,,,,,,,,,
,,,,1,2.3504,,,,,,8,broom,melon,,90353,001,2022-04-28_18h02.51.299,SPAMnetsValid,2021.1.4,Win32,59.99520038,,,,,,,,,,,,,1,2.3504,0,17,17,59,1,,,,,,,,,,,,,,,,,,,,,,,,,,,,,,,,,,,,,,,,,,,,,,,,,,,,,,,,,,,,,,,,,,,,,,
,,,,6,2.1601,,,,,,28,cake,melon,,90353,001,2022-04-28_18h02.51.299,SPAMnetsValid,2021.1.4,Win32,59.99520038,,,,,,,,,,,,,6,2.1601,0,18,18,54,1,,,,,,,,,,,,,,,,,,,,,,,,,,,,,,,,,,,,,,,,,,,,,,,,,,,,,,,,,,,,,,,,,,,,,,
,,,,7,4.5379,,,,,,2,kitchen,onion,,90353,001,2022-04-28_18h02.51.299,SPAMnetsValid,2021.1.4,Win32,59.99520038,,,,,,,,,,,,,7,4.5379,0,19,19,91,1,,,,,,,,,,,,,,,,,,,,,,,,,,,,,,,,,,,,,,,,,,,,,,,,,,,,,,,,,,,,,,,,,,,,,,
,,,,6,5.7309,,,,,,44,cookie,melon,,90353,001,2022-04-28_18h02.51.299,SPAMnetsValid,2021.1.4,Win32,59.99520038,,,,,,,,,,,,,6,5.7309,0,20,20,92,1,,,,,,,,,,,,,,,,,,,,,,,,,,,,,,,,,,,,,,,,,,,,,,,,,,,,,,,,,,,,,,,,,,,,,,
,,,,6,5.0204,,,,,,19,microwave,pretzel,,90353,001,2022-04-28_18h02.51.299,SPAMnetsValid,2021.1.4,Win32,59.99520038,,,,,,,,,,,,,6,5.0204,0,21,21,41,1,,,,,,,,,,,,,,,,,,,,,,,,,,,,,,,,,,,,,,,,,,,,,,,,,,,,,,,,,,,,,,,,,,,,,,
,,,,5,3.7489,,,,,,16,chocolate,flower,,90353,001,2022-04-28_18h02.51.299,SPAMnetsValid,2021.1.4,Win32,59.99520038,,,,,,,,,,,,,5,3.7489,0,22,22,22,1,,,,,,,,,,,,,,,,,,,,,,,,,,,,,,,,,,,,,,,,,,,,,,,,,,,,,,,,,,,,,,,,,,,,,,
,,,,1,6.8583,,,,,,13,broom,yogurt,,90353,001,2022-04-28_18h02.51.299,SPAMnetsValid,2021.1.4,Win32,59.99520038,,,,,,,,,,,,,1,6.8583,0,23,23,5,1,,,,,,,,,,,,,,,,,,,,,,,,,,,,,,,,,,,,,,,,,,,,,,,,,,,,,,,,,,,,,,,,,,,,,,
,,,,6,4.0064,,,,,,45,onion,pretzel,,90353,001,2022-04-28_18h02.51.299,SPAMnetsValid,2021.1.4,Win32,59.99520038,,,,,,,,,,,,,6,4.0064,0,24,24,69,1,,,,,,,,,,,,,,,,,,,,,,,,,,,,,,,,,,,,,,,,,,,,,,,,,,,,,,,,,,,,,,,,,,,,,,
,,,,3,3.271,,,,,,46,garden,yogurt,,90353,001,2022-04-28_18h02.51.299,SPAMnetsValid,2021.1.4,Win32,59.99520038,,,,,,,,,,,,,3,3.271,0,25,25,65,1,,,,,,,,,,,,,,,,,,,,,,,,,,,,,,,,,,,,,,,,,,,,,,,,,,,,,,,,,,,,,,,,,,,,,,
,,,,5,237.7661,,,,,,53,garden,pretzel,,90353,001,2022-04-28_18h02.51.299,SPAMnetsValid,2021.1.4,Win32,59.99520038,,,,,,,,,,,,,5,237.7661,0,26,26,0,1,,,,,,,,,,,,,,,,,,,,,,,,,,,,,,,,,,,,,,,,,,,,,,,,,,,,,,,,,,,,,,,,,,,,,,
,,,,6,5.129,,,,,,57,flower,kitchen,,90353,001,2022-04-28_18h02.51.299,SPAMnetsValid,2021.1.4,Win32,59.99520038,,,,,,,,,,,,,6,5.129,0,27,27,49,1,,,,,,,,,,,,,,,,,,,,,,,,,,,,,,,,,,,,,,,,,,,,,,,,,,,,,,,,,,,,,,,,,,,,,,
,,,,8,7.9911,,,,,,77,refrigerator,yogurt,,90353,001,2022-04-28_18h02.51.299,SPAMnetsValid,2021.1.4,Win32,59.99520038,,,,,,,,,,,,,8,7.9911,0,28,28,42,1,,,,,,,,,,,,,,,,,,,,,,,,,,,,,,,,,,,,,,,,,,,,,,,,,,,,,,,,,,,,,,,,,,,,,,
,,,,6,241.2137,,,,,,47,onion,tomato,,90353,001,2022-04-28_18h02.51.299,SPAMnetsValid,2021.1.4,Win32,59.99520038,,,,,,,,,,,,,6,241.2137,0,29,29,51,1,,,,,,,,,,,,,,,,,,,,,,,,,,,,,,,,,,,,,,,,,,,,,,,,,,,,,,,,,,,,,,,,,,,,,,
,,,,4,1.469,,,,,,48,flower,oven,,90353,001,2022-04-28_18h02.51.299,SPAMnetsValid,2021.1.4,Win32,59.99520038,,,,,,,,,,,,,4,1.469,0,30,30,15,1,,,,,,,,,,,,,,,,,,,,,,,,,,,,,,,,,,,,,,,,,,,,,,,,,,,,,,,,,,,,,,,,,,,,,,
,,,,5,172.8796,,,,,,1,rose,yogurt,,90353,001,2022-04-28_18h02.51.299,SPAMnetsValid,2021.1.4,Win32,59.99520038,,,,,,,,,,,,,5,172.8796,0,31,31,55,1,,,,,,,,,,,,,,,,,,,,,,,,,,,,,,,,,,,,,,,,,,,,,,,,,,,,,,,,,,,,,,,,,,,,,,
,,,,5,3.7707,,,,,,33,oven,yogurt,,90353,001,2022-04-28_18h02.51.299,SPAMnetsValid,2021.1.4,Win32,59.99520038,,,,,,,,,,,,,5,3.7707,0,32,32,31,1,,,,,,,,,,,,,,,,,,,,,,,,,,,,,,,,,,,,,,,,,,,,,,,,,,,,,,,,,,,,,,,,,,,,,,
,,,,7,2.1013,,,,,,36,broom,kitchen,,90353,001,2022-04-28_18h02.51.299,SPAMnetsValid,2021.1.4,Win32,59.99520038,,,,,,,,,,,,,7,2.1013,0,33,33,76,1,,,,,,,,,,,,,,,,,,,,,,,,,,,,,,,,,,,,,,,,,,,,,,,,,,,,,,,,,,,,,,,,,,,,,,
,,,,5,2.7482,,,,,,70,chocolate,onion,,90353,001,2022-04-28_18h02.51.299,SPAMnetsValid,2021.1.4,Win32,59.99520038,,,,,,,,,,,,,5,2.7482,0,34,34,74,1,,,,,,,,,,,,,,,,,,,,,,,,,,,,,,,,,,,,,,,,,,,,,,,,,,,,,,,,,,,,,,,,,,,,,,
,,,,2,4.9071,,,,,,11,refrigerator,tree,,90353,001,2022-04-28_18h02.51.299,SPAMnetsValid,2021.1.4,Win32,59.99520038,,,,,,,,,,,,,2,4.9071,0,35,35,43,1,,,,,,,,,,,,,,,,,,,,,,,,,,,,,,,,,,,,,,,,,,,,,,,,,,,,,,,,,,,,,,,,,,,,,,
,,,,1,2.6854,,,,,,43,chocolate,tomato,,90353,001,2022-04-28_18h02.51.299,SPAMnetsValid,2021.1.4,Win32,59.99520038,,,,,,,,,,,,,1,2.6854,0,36,36,8,1,,,,,,,,,,,,,,,,,,,,,,,,,,,,,,,,,,,,,,,,,,,,,,,,,,,,,,,,,,,,,,,,,,,,,,
,,,,7,3.5531,,,,,,20,rose,tree,,90353,001,2022-04-28_18h02.51.299,SPAMnetsValid,2021.1.4,Win32,59.99520038,,,,,,,,,,,,,7,3.5531,0,37,37,66,1,,,,,,,,,,,,,,,,,,,,,,,,,,,,,,,,,,,,,,,,,,,,,,,,,,,,,,,,,,,,,,,,,,,,,,
,,,,6,1.5007,,,,,,6,garden,onion,,90353,001,2022-04-28_18h02.51.299,SPAMnetsValid,2021.1.4,Win32,59.99520038,,,,,,,,,,,,,6,1.5007,0,38,38,83,1,,,,,,,,,,,,,,,,,,,,,,,,,,,,,,,,,,,,,,,,,,,,,,,,,,,,,,,,,,,,,,,,,,,,,,
,,,,3,3.2027,,,,,,91,microwave,rose,,90353,001,2022-04-28_18h02.51.299,SPAMnetsValid,2021.1.4,Win32,59.99520038,,,,,,,,,,,,,3,3.2027,0,39,39,84,1,,,,,,,,,,,,,,,,,,,,,,,,,,,,,,,,,,,,,,,,,,,,,,,,,,,,,,,,,,,,,,,,,,,,,,
,,,,9,1.4254,,,,,,191,cake,cake,CHECK,90353,001,2022-04-28_18h02.51.299,SPAMnetsValid,2021.1.4,Win32,59.99520038,,,,,,,,,,,,,9,1.4254,0,40,40,10,1,,,,,,,,,,,,,,,,,,,,,,,,,,,,,,,,,,,,,,,,,,,,,,,,,,,,,,,,,,,,,,,,,,,,,,
,,,,8,4.5344,,,,,,89,chocolate,rose,,90353,001,2022-04-28_18h02.51.299,SPAMnetsValid,2021.1.4,Win32,59.99520038,,,,,,,,,,,,,8,4.5344,0,41,41,60,1,,,,,,,,,,,,,,,,,,,,,,,,,,,,,,,,,,,,,,,,,,,,,,,,,,,,,,,,,,,,,,,,,,,,,,
,,,,8,1.5728,,,,,,63,cake,cookie,,90353,001,2022-04-28_18h02.51.299,SPAMnetsValid,2021.1.4,Win32,59.99520038,,,,,,,,,,,,,8,1.5728,0,42,42,93,1,,,,,,,,,,,,,,,,,,,,,,,,,,,,,,,,,,,,,,,,,,,,,,,,,,,,,,,,,,,,,,,,,,,,,,
,,,,6,274.7698,,,,,,39,melon,pretzel,,90353,001,2022-04-28_18h02.51.299,SPAMnetsValid,2021.1.4,Win32,59.99520038,,,,,,,,,,,,,6,274.7698,0,43,43,20,1,,,,,,,,,,,,,,,,,,,,,,,,,,,,,,,,,,,,,,,,,,,,,,,,,,,,,,,,,,,,,,,,,,,,,,
,,,,3,2.2692,,,,,,40,broom,cake,,90353,001,2022-04-28_18h02.51.299,SPAMnetsValid,2021.1.4,Win32,59.99520038,,,,,,,,,,,,,3,2.2692,0,44,44,32,1,,,,,,,,,,,,,,,,,,,,,,,,,,,,,,,,,,,,,,,,,,,,,,,,,,,,,,,,,,,,,,,,,,,,,,
,,,,3,1.6159,,,,,,74,broom,pretzel,,90353,001,2022-04-28_18h02.51.299,SPAMnetsValid,2021.1.4,Win32,59.99520038,,,,,,,,,,,,,3,1.6159,0,45,45,40,1,,,,,,,,,,,,,,,,,,,,,,,,,,,,,,,,,,,,,,,,,,,,,,,,,,,,,,,,,,,,,,,,,,,,,,
,,,,6,2.6895,,,,,,78,cookie,rose,,90353,001,2022-04-28_18h02.51.299,SPAMnetsValid,2021.1.4,Win32,59.99520038,,,,,,,,,,,,,6,2.6895,0,46,46,56,1,,,,,,,,,,,,,,,,,,,,,,,,,,,,,,,,,,,,,,,,,,,,,,,,,,,,,,,,,,,,,,,,,,,,,,
,,,,3,3.6321,,,,,,86,oven,rose,,90353,001,2022-04-28_18h02.51.299,SPAMnetsValid,2021.1.4,Win32,59.99520038,,,,,,,,,,,,,3,3.6321,0,47,47,79,1,,,,,,,,,,,,,,,,,,,,,,,,,,,,,,,,,,,,,,,,,,,,,,,,,,,,,,,,,,,,,,,,,,,,,,
,,,,4,184.2693,,,,,,27,cactus,cookie,,90353,001,2022-04-28_18h02.51.299,SPAMnetsValid,2021.1.4,Win32,59.99520038,,,,,,,,,,,,,4,184.2693,0,48,48,17,1,,,,,,,,,,,,,,,,,,,,,,,,,,,,,,,,,,,,,,,,,,,,,,,,,,,,,,,,,,,,,,,,,,,,,,
,,,,9,2.2769,,,,,,9,kitchen,refrigerator,,90353,001,2022-04-28_18h02.51.299,SPAMnetsValid,2021.1.4,Win32,59.99520038,,,,,,,,,,,,,9,2.2769,0,49,49,64,1,,,,,,,,,,,,,,,,,,,,,,,,,,,,,,,,,,,,,,,,,,,,,,,,,,,,,,,,,,,,,,,,,,,,,,
,,,,2,1.9665,,,,,,92,broom,flower,,90353,001,2022-04-28_18h02.51.299,SPAMnetsValid,2021.1.4,Win32,59.99520038,,,,,,,,,,,,,2,1.9665,0,50,50,88,1,,,,,,,,,,,,,,,,,,,,,,,,,,,,,,,,,,,,,,,,,,,,,,,,,,,,,,,,,,,,,,,,,,,,,,
,,,,9,183.0802,,,,,,3,cake,oven,,90353,001,2022-04-28_18h02.51.299,SPAMnetsValid,2021.1.4,Win32,59.99520038,,,,,,,,,,,,,9,183.0802,0,51,51,30,1,,,,,,,,,,,,,,,,,,,,,,,,,,,,,,,,,,,,,,,,,,,,,,,,,,,,,,,,,,,,,,,,,,,,,,
,,,,6,67.5901,,,,,,87,carrot,yogurt,,90353,001,2022-04-28_18h02.51.299,SPAMnetsValid,2021.1.4,Win32,59.99520038,,,,,,,,,,,,,6,67.5901,0,52,52,6,1,,,,,,,,,,,,,,,,,,,,,,,,,,,,,,,,,,,,,,,,,,,,,,,,,,,,,,,,,,,,,,,,,,,,,,
,,,,6,97.7867,,,,,,75,cookie,onion,,90353,001,2022-04-28_18h02.51.299,SPAMnetsValid,2021.1.4,Win32,59.99520038,,,,,,,,,,,,,6,97.7867,0,53,53,9,1,,,,,,,,,,,,,,,,,,,,,,,,,,,,,,,,,,,,,,,,,,,,,,,,,,,,,,,,,,,,,,,,,,,,,,
,,,,7,6.1706,,,,,,88,cactus,melon,,90353,001,2022-04-28_18h02.51.299,SPAMnetsValid,2021.1.4,Win32,59.99520038,,,,,,,,,,,,,7,6.1706,0,54,54,38,1,,,,,,,,,,,,,,,,,,,,,,,,,,,,,,,,,,,,,,,,,,,,,,,,,,,,,,,,,,,,,,,,,,,,,,
,,,,4,14.4747,,,,,,84,oven,tomato,,90353,001,2022-04-28_18h02.51.299,SPAMnetsValid,2021.1.4,Win32,59.99520038,,,,,,,,,,,,,4,14.4747,0,55,55,28,1,,,,,,,,,,,,,,,,,,,,,,,,,,,,,,,,,,,,,,,,,,,,,,,,,,,,,,,,,,,,,,,,,,,,,,
,,,,6,2.7526,,,,,,12,cookie,yogurt,,90353,001,2022-04-28_18h02.51.299,SPAMnetsValid,2021.1.4,Win32,59.99520038,,,,,,,,,,,,,6,2.7526,0,56,56,36,1,,,,,,,,,,,,,,,,,,,,,,,,,,,,,,,,,,,,,,,,,,,,,,,,,,,,,,,,,,,,,,,,,,,,,,
,,,,4,3.9496,,,,,,60,cactus,onion,,90353,001,2022-04-28_18h02.51.299,SPAMnetsValid,2021.1.4,Win32,59.99520038,,,,,,,,,,,,,4,3.9496,0,57,57,81,1,,,,,,,,,,,,,,,,,,,,,,,,,,,,,,,,,,,,,,,,,,,,,,,,,,,,,,,,,,,,,,,,,,,,,,
,,,,6,23.1342,,,,,,95,broom,refrigerator,,90353,001,2022-04-28_18h02.51.299,SPAMnetsValid,2021.1.4,Win32,59.99520038,,,,,,,,,,,,,6,23.1342,0,58,58,90,1,,,,,,,,,,,,,,,,,,,,,,,,,,,,,,,,,,,,,,,,,,,,,,,,,,,,,,,,,,,,,,,,,,,,,,
,,,,6,1.3211,,,,,,49,flower,strawberry,,90353,001,2022-04-28_18h02.51.299,SPAMnetsValid,2021.1.4,Win32,59.99520038,,,,,,,,,,,,,6,1.3211,0,59,59,3,1,,,,,,,,,,,,,,,,,,,,,,,,,,,,,,,,,,,,,,,,,,,,,,,,,,,,,,,,,,,,,,,,,,,,,,
,,,,4,14.3009,,,,,,64,chocolate,garden,,90353,001,2022-04-28_18h02.51.299,SPAMnetsValid,2021.1.4,Win32,59.99520038,,,,,,,,,,,,,4,14.3009,0,60,60,14,1,,,,,,,,,,,,,,,,,,,,,,,,,,,,,,,,,,,,,,,,,,,,,,,,,,,,,,,,,,,,,,,,,,,,,,
,,,,6,6.235,,,,,,51,onion,strawberry,,90353,001,2022-04-28_18h02.51.299,SPAMnetsValid,2021.1.4,Win32,59.99520038,,,,,,,,,,,,,6,6.235,0,61,61,86,1,,,,,,,,,,,,,,,,,,,,,,,,,,,,,,,,,,,,,,,,,,,,,,,,,,,,,,,,,,,,,,,,,,,,,,
,,,,3,2.066,,,,,,73,broom,chocolate,,90353,001,2022-04-28_18h02.51.299,SPAMnetsValid,2021.1.4,Win32,59.99520038,,,,,,,,,,,,,3,2.066,0,62,62,47,1,,,,,,,,,,,,,,,,,,,,,,,,,,,,,,,,,,,,,,,,,,,,,,,,,,,,,,,,,,,,,,,,,,,,,,
,,,,5,6.9324,,,,,,15,onion,oven,,90353,001,2022-04-28_18h02.51.299,SPAMnetsValid,2021.1.4,Win32,59.99520038,,,,,,,,,,,,,5,6.9324,0,63,63,39,1,,,,,,,,,,,,,,,,,,,,,,,,,,,,,,,,,,,,,,,,,,,,,,,,,,,,,,,,,,,,,,,,,,,,,,
,,,,2,8.821,,,,,,5,oven,tree,,90353,001,2022-04-28_18h02.51.299,SPAMnetsValid,2021.1.4,Win32,59.99520038,,,,,,,,,,,,,2,8.821,0,64,64,70,1,,,,,,,,,,,,,,,,,,,,,,,,,,,,,,,,,,,,,,,,,,,,,,,,,,,,,,,,,,,,,,,,,,,,,,
,,,,7,2.22,,,,,,59,rose,strawberry,,90353,001,2022-04-28_18h02.51.299,SPAMnetsValid,2021.1.4,Win32,59.99520038,,,,,,,,,,,,,7,2.22,0,65,65,72,1,,,,,,,,,,,,,,,,,,,,,,,,,,,,,,,,,,,,,,,,,,,,,,,,,,,,,,,,,,,,,,,,,,,,,,
,,,,6,4.1745,,,,,,7,melon,tree,,90353,001,2022-04-28_18h02.51.299,SPAMnetsValid,2021.1.4,Win32,59.99520038,,,,,,,,,,,,,6,4.1745,0,66,66,77,1,,,,,,,,,,,,,,,,,,,,,,,,,,,,,,,,,,,,,,,,,,,,,,,,,,,,,,,,,,,,,,,,,,,,,,
,,,,2,9.3009,,,,,,58,garden,oven,,90353,001,2022-04-28_18h02.51.299,SPAMnetsValid,2021.1.4,Win32,59.99520038,,,,,,,,,,,,,2,9.3009,0,67,67,37,1,,,,,,,,,,,,,,,,,,,,,,,,,,,,,,,,,,,,,,,,,,,,,,,,,,,,,,,,,,,,,,,,,,,,,,
,,,,5,2.9821,,,,,,29,chocolate,melon,,90353,001,2022-04-28_18h02.51.299,SPAMnetsValid,2021.1.4,Win32,59.99520038,,,,,,,,,,,,,5,2.9821,0,68,68,34,1,,,,,,,,,,,,,,,,,,,,,,,,,,,,,,,,,,,,,,,,,,,,,,,,,,,,,,,,,,,,,,,,,,,,,,
,,,,6,9.8037,,,,,,32,cake,microwave,,90353,001,2022-04-28_18h02.51.299,SPAMnetsValid,2021.1.4,Win32,59.99520038,,,,,,,,,,,,,6,9.8037,0,69,69,33,1,,,,,,,,,,,,,,,,,,,,,,,,,,,,,,,,,,,,,,,,,,,,,,,,,,,,,,,,,,,,,,,,,,,,,,
,,,,7,1.6861,,,,,,17,carrot,melon,,90353,001,2022-04-28_18h02.51.299,SPAMnetsValid,2021.1.4,Win32,59.99520038,,,,,,,,,,,,,7,1.6861,0,70,70,24,1,,,,,,,,,,,,,,,,,,,,,,,,,,,,,,,,,,,,,,,,,,,,,,,,,,,,,,,,,,,,,,,,,,,,,,
,,,,9,2.2691,,,,,,76,garden,rose,,90353,001,2022-04-28_18h02.51.299,SPAMnetsValid,2021.1.4,Win32,59.99520038,,,,,,,,,,,,,9,2.2691,0,71,71,19,1,,,,,,,,,,,,,,,,,,,,,,,,,,,,,,,,,,,,,,,,,,,,,,,,,,,,,,,,,,,,,,,,,,,,,,
,,,,8,5.5024,,,,,,54,chocolate,yogurt,,90353,001,2022-04-28_18h02.51.299,SPAMnetsValid,2021.1.4,Win32,59.99520038,,,,,,,,,,,,,8,5.5024,0,72,72,67,1,,,,,,,,,,,,,,,,,,,,,,,,,,,,,,,,,,,,,,,,,,,,,,,,,,,,,,,,,,,,,,,,,,,,,,
,,,,7,2.1005,,,,,,30,cookie,pretzel,,90353,001,2022-04-28_18h02.51.299,SPAMnetsValid,2021.1.4,Win32,59.99520038,,,,,,,,,,,,,7,2.1005,0,73,73,78,1,,,,,,,,,,,,,,,,,,,,,,,,,,,,,,,,,,,,,,,,,,,,,,,,,,,,,,,,,,,,,,,,,,,,,,
,,,,2,2.657,,,,,,80,chocolate,tree,,90353,001,2022-04-28_18h02.51.299,SPAMnetsValid,2021.1.4,Win32,59.99520038,,,,,,,,,,,,,2,2.657,0,74,74,89,1,,,,,,,,,,,,,,,,,,,,,,,,,,,,,,,,,,,,,,,,,,,,,,,,,,,,,,,,,,,,,,,,,,,,,,
,,,,5,2.2351,,,,,,62,kitchen,rose,,90353,001,2022-04-28_18h02.51.299,SPAMnetsValid,2021.1.4,Win32,59.99520038,,,,,,,,,,,,,5,2.2351,0,75,75,57,1,,,,,,,,,,,,,,,,,,,,,,,,,,,,,,,,,,,,,,,,,,,,,,,,,,,,,,,,,,,,,,,,,,,,,,
,,,,8,7.546,,,,,,79,garden,strawberry,,90353,001,2022-04-28_18h02.51.299,SPAMnetsValid,2021.1.4,Win32,59.99520038,,,,,,,,,,,,,8,7.546,0,76,76,87,1,,,,,,,,,,,,,,,,,,,,,,,,,,,,,,,,,,,,,,,,,,,,,,,,,,,,,,,,,,,,,,,,,,,,,,
,,,,8,4.5658,,,,,,82,cake,kitchen,,90353,001,2022-04-28_18h02.51.299,SPAMnetsValid,2021.1.4,Win32,59.99520038,,,,,,,,,,,,,8,4.5658,0,77,77,96,1,,,,,,,,,,,,,,,,,,,,,,,,,,,,,,,,,,,,,,,,,,,,,,,,,,,,,,,,,,,,,,,,,,,,,,
,,,,3,4.1593,,,,,,72,broom,onion,,90353,001,2022-04-28_18h02.51.299,SPAMnetsValid,2021.1.4,Win32,59.99520038,,,,,,,,,,,,,3,4.1593,0,78,78,27,1,,,,,,,,,,,,,,,,,,,,,,,,,,,,,,,,,,,,,,,,,,,,,,,,,,,,,,,,,,,,,,,,,,,,,,
,,,,4,14.5949,,,,,,38,pretzel,refrigerator,,90353,001,2022-04-28_18h02.51.299,SPAMnetsValid,2021.1.4,Win32,59.99520038,,,,,,,,,,,,,4,14.5949,0,79,79,71,1,,,,,,,,,,,,,,,,,,,,,,,,,,,,,,,,,,,,,,,,,,,,,,,,,,,,,,,,,,,,,,,,,,,,,,
,,,,4,13.8676,,,,,,41,broom,cactus,,90353,001,2022-04-28_18h02.51.299,SPAMnetsValid,2021.1.4,Win32,59.99520038,,,,,,,,,,,,,4,13.8676,0,80,80,46,1,,,,,,,,,,,,,,,,,,,,,,,,,,,,,,,,,,,,,,,,,,,,,,,,,,,,,,,,,,,,,,,,,,,,,,
,,,,6,17.318,,,,,,69,carrot,refrigerator,,90353,001,2022-04-28_18h02.51.299,SPAMnetsValid,2021.1.4,Win32,59.99520038,,,,,,,,,,,,,6,17.318,0,81,81,75,1,,,,,,,,,,,,,,,,,,,,,,,,,,,,,,,,,,,,,,,,,,,,,,,,,,,,,,,,,,,,,,,,,,,,,,
,,,,9,19.1866,,,,,,192,microwave,microwave,CHECK,90353,001,2022-04-28_18h02.51.299,SPAMnetsValid,2021.1.4,Win32,59.99520038,,,,,,,,,,,,,9,19.1866,0,82,82,53,1,,,,,,,,,,,,,,,,,,,,,,,,,,,,,,,,,,,,,,,,,,,,,,,,,,,,,,,,,,,,,,,,,,,,,,
,,,,5,4.0823,,,,,,34,melon,oven,,90353,001,2022-04-28_18h02.51.299,SPAMnetsValid,2021.1.4,Win32,59.99520038,,,,,,,,,,,,,5,4.0823,0,83,83,7,1,,,,,,,,,,,,,,,,,,,,,,,,,,,,,,,,,,,,,,,,,,,,,,,,,,,,,,,,,,,,,,,,,,,,,,
,,,,7,5.0205,,,,,,22,kitchen,strawberry,,90353,001,2022-04-28_18h02.51.299,SPAMnetsValid,2021.1.4,Win32,59.99520038,,,,,,,,,,,,,7,5.0205,0,84,84,2,1,,,,,,,,,,,,,,,,,,,,,,,,,,,,,,,,,,,,,,,,,,,,,,,,,,,,,,,,,,,,,,,,,,,,,,
,,,,7,33.604,,,,,,56,cactus,tree,,90353,001,2022-04-28_18h02.51.299,SPAMnetsValid,2021.1.4,Win32,59.99520038,,,,,,,,,,,,,7,33.604,0,85,85,21,1,,,,,,,,,,,,,,,,,,,,,,,,,,,,,,,,,,,,,,,,,,,,,,,,,,,,,,,,,,,,,,,,,,,,,,
,,,,6,3.9515,,,,,,81,pretzel,yogurt,,90353,001,2022-04-28_18h02.51.299,SPAMnetsValid,2021.1.4,Win32,59.99520038,,,,,,,,,,,,,6,3.9515,0,86,86,50,1,,,,,,,,,,,,,,,,,,,,,,,,,,,,,,,,,,,,,,,,,,,,,,,,,,,,,,,,,,,,,,,,,,,,,,
,,,,3,2.2972,,,,,,35,flower,pretzel,,90353,001,2022-04-28_18h02.51.299,SPAMnetsValid,2021.1.4,Win32,59.99520038,,,,,,,,,,,,,3,2.2972,0,87,87,26,1,,,,,,,,,,,,,,,,,,,,,,,,,,,,,,,,,,,,,,,,,,,,,,,,,,,,,,,,,,,,,,,,,,,,,,
,,,,4,70.0022,,,,,,90,cactus,cake,,90353,001,2022-04-28_18h02.51.299,SPAMnetsValid,2021.1.4,Win32,59.99520038,,,,,,,,,,,,,4,70.0022,0,88,88,85,1,,,,,,,,,,,,,,,,,,,,,,,,,,,,,,,,,,,,,,,,,,,,,,,,,,,,,,,,,,,,,,,,,,,,,,
,,,,4,11.9377,,,,,,31,cactus,pretzel,,90353,001,2022-04-28_18h02.51.299,SPAMnetsValid,2021.1.4,Win32,59.99520038,,,,,,,,,,,,,4,11.9377,0,89,89,1,1,,,,,,,,,,,,,,,,,,,,,,,,,,,,,,,,,,,,,,,,,,,,,,,,,,,,,,,,,,,,,,,,,,,,,,
,,,,2,11.2685,,,,,,37,garden,refrigerator,,90353,001,2022-04-28_18h02.51.299,SPAMnetsValid,2021.1.4,Win32,59.99520038,,,,,,,,,,,,,2,11.2685,0,90,90,11,1,,,,,,,,,,,,,,,,,,,,,,,,,,,,,,,,,,,,,,,,,,,,,,,,,,,,,,,,,,,,,,,,,,,,,,
,,,,6,4.5326,,,,,,25,carrot,onion,,90353,001,2022-04-28_18h02.51.299,SPAMnetsValid,2021.1.4,Win32,59.99520038,,,,,,,,,,,,,6,4.5326,0,91,91,44,1,,,,,,,,,,,,,,,,,,,,,,,,,,,,,,,,,,,,,,,,,,,,,,,,,,,,,,,,,,,,,,,,,,,,,,
,,,,7,1.9313,,,,,,61,strawberry,tomato,,90353,001,2022-04-28_18h02.51.299,SPAMnetsValid,2021.1.4,Win32,59.99520038,,,,,,,,,,,,,7,1.9313,0,92,92,80,1,,,,,,,,,,,,,,,,,,,,,,,,,,,,,,,,,,,,,,,,,,,,,,,,,,,,,,,,,,,,,,,,,,,,,,
,,,,6,6.1639,,,,,,67,flower,yogurt,,90353,001,2022-04-28_18h02.51.299,SPAMnetsValid,2021.1.4,Win32,59.99520038,,,,,,,,,,,,,6,6.1639,0,93,93,12,1,,,,,,,,,,,,,,,,,,,,,,,,,,,,,,,,,,,,,,,,,,,,,,,,,,,,,,,,,,,,,,,,,,,,,,
,,,,4,4.9978,,,,,,85,cake,tree,,90353,001,2022-04-28_18h02.51.299,SPAMnetsValid,2021.1.4,Win32,59.99520038,,,,,,,,,,,,,4,4.9978,0,94,94,18,1,,,,,,,,,,,,,,,,,,,,,,,,,,,,,,,,,,,,,,,,,,,,,,,,,,,,,,,,,,,,,,,,,,,,,,
,,,,3,5.4498,,,,,,21,cake,onion,,90353,001,2022-04-28_18h02.51.299,SPAMnetsValid,2021.1.4,Win32,59.99520038,,,,,,,,,,,,,3,5.4498,0,95,95,63,1,,,,,,,,,,,,,,,,,,,,,,,,,,,,,,,,,,,,,,,,,,,,,,,,,,,,,,,,,,,,,,,,,,,,,,
,,,,3,4.064,,,,,,14,broom,cookie,,90353,001,2022-04-28_18h02.51.299,SPAMnetsValid,2021.1.4,Win32,59.99520038,,,,,,,,,,,,,3,4.064,0,96,96,16,1,,,,,,,,,,,,,,,,,,,,,,,,,,,,,,,,,,,,,,,,,,,,,,,,,,,,,,,,,,,,,,,,,,,,,,
,,,,,,,,,,,,,,,90353,001,2022-04-28_18h02.51.299,SPAMnetsValid,2021.1.4,Win32,59.99520038,,,,,,,,,,,,,,,,,,,,0,0,0,0,1,,,,,,,,,,,,,,,,,,,,,,,,,,,,,,,,,,,,,,,,,,,,,,,,,,,,,,,,,,,,,,,,,
,,,,,,,,,,,,,,,90353,001,2022-04-28_18h02.51.299,SPAMnetsValid,2021.1.4,Win32,59.99520038,,,,,,0,1,1,0,1,1,0,,,,,,,,,,,,,,,,,,,,,,,,,,,,,,,,,,,,,,,,,,,,,,,,,,,,,,,,,,,,,,,,,,,,,,,,,,,,,
,,,,,,,,,,,,,,,90353,001,2022-04-28_18h02.51.299,SPAMnetsValid,2021.1.4,Win32,59.99520038,,,,,,,,,,,,,,,,,,,,,,,,,2,21.6402,0,0,0,0,1,rancor,forbearance,ridicule,malice,bravery,3,,,,,,,,,,,,,,,,,,,,,,,,,,,,,,,,,,,,,,,,,,,,,,,,,,,,
,,,,,,,,,,,,,,,90353,001,2022-04-28_18h02.51.299,SPAMnetsValid,2021.1.4,Win32,59.99520038,,,,,,,,,,,,,,,,,,,,,,,,,,,0,1,1,1,1,raucous,empty,quiet,smooth,harsh,4,,,,,,,,,,,,,,,,,,,,,,,,,,,,,,,,,,,,,,,,,,,,,,,,,,,,
,,,,,,,,,,,,,,,90353,001,2022-04-28_18h02.51.299,SPAMnetsValid,2021.1.4,Win32,59.99520038,,,,,,,,,,,,,,,,,,,,,,,,,3,8.868,0,2,2,2,1,gargoyle,oil,medicine,carved waterspout,ugly building,3,,,,,,,,,,,,,,,,,,,,,,,,,,,,,,,,,,,,,,,,,,,,,,,,,,,,
,,,,,,,,,,,,,,,90353,001,2022-04-28_18h02.51.299,SPAMnetsValid,2021.1.4,Win32,59.99520038,,,,,,,,,,,,,,,,,,,,,,,,,3,5.5787,0,3,3,3,1,recrudesce,purify,renew activity,lack refinement,crush,2,,,,,,,,,,,,,,,,,,,,,,,,,,,,,,,,,,,,,,,,,,,,,,,,,,,,
,,,,,,,,,,,,,,,90353,001,2022-04-28_18h02.51.299,SPAMnetsValid,2021.1.4,Win32,59.99520038,,,,,,,,,,,,,,,,,,,,,,,,,4,12.9456,0,4,4,4,1,specious,"plausible, but not genuine",noteworthy,class or variety,roomy,1,,,,,,,,,,,,,,,,,,,,,,,,,,,,,,,,,,,,,,,,,,,,,,,,,,,,
,,,,,,,,,,,,,,,90353,001,2022-04-28_18h02.51.299,SPAMnetsValid,2021.1.4,Win32,59.99520038,,,,,,,,,,,,,,,,,,,,,,,,,3,2.9324,0,5,5,5,1,bauble,bubble,showy plaything,idle talk,confusion,2,,,,,,,,,,,,,,,,,,,,,,,,,,,,,,,,,,,,,,,,,,,,,,,,,,,,
,,,,,,,,,,,,,,,90353,001,2022-04-28_18h02.51.299,SPAMnetsValid,2021.1.4,Win32,59.99520038,,,,,,,,,,,,,,,,,,,,,,,,,1,21.1085,0,6,6,6,1,prolific,scarce,producing abundantly,reckless,speaking profanely,2,,,,,,,,,,,,,,,,,,,,,,,,,,,,,,,,,,,,,,,,,,,,,,,,,,,,
,,,,,,,,,,,,,,,90353,001,2022-04-28_18h02.51.299,SPAMnetsValid,2021.1.4,Win32,59.99520038,,,,,,,,,,,,,,,,,,,,,,,,,4,4.6725,0,7,7,7,1,opulent,party,wealthy,happy frame of mind,semiprecious stone,2,,,,,,,,,,,,,,,,,,,,,,,,,,,,,,,,,,,,,,,,,,,,,,,,,,,,
,,,,,,,,,,,,,,,90353,001,2022-04-28_18h02.51.299,SPAMnetsValid,2021.1.4,Win32,59.99520038,,,,,,,,,,,,,,,,,,,,,,,,,2,5.9839,0,8,8,8,1,coercion,conspiracy,strategy,restraint,attraction,3,,,,,,,,,,,,,,,,,,,,,,,,,,,,,,,,,,,,,,,,,,,,,,,,,,,,
,,,,,,,,,,,,,,,90353,001,2022-04-28_18h02.51.299,SPAMnetsValid,2021.1.4,Win32,59.99520038,,,,,,,,,,,,,,,,,,,,,,,,,2,10.039,0,9,9,9,1,hiatus,animal,calamity,dread,gap,4,,,,,,,,,,,,,,,,,,,,,,,,,,,,,,,,,,,,,,,,,,,,,,,,,,,,
,,,,,,,,,,,,,,,90353,001,2022-04-28_18h02.51.299,SPAMnetsValid,2021.1.4,Win32,59.99520038,,,,,,,,,,,,,,,,,,,,,,,,,4,2.5068,0,10,10,10,1,germane,microbe,contagious,relevant,different,3,,,,,,,,,,,,,,,,,,,,,,,,,,,,,,,,,,,,,,,,,,,,,,,,,,,,
,,,,,,,,,,,,,,,90353,001,2022-04-28_18h02.51.299,SPAMnetsValid,2021.1.4,Win32,59.99520038,,,,,,,,,,,,,,,,,,,,,,,,,3,3.1392,0,11,11,11,1,perfunctory,fundamental,formal,superficial,careful,3,,,,,,,,,,,,,,,,,,,,,,,,,,,,,,,,,,,,,,,,,,,,,,,,,,,,
,,,,,,,,,,,,,,,90353,001,2022-04-28_18h02.51.299,SPAMnetsValid,2021.1.4,Win32,59.99520038,,,,,,,,,,,,,,,,,,,,,,,,,4,3.4309,0,12,12,12,1,diverge,reveal,chant,distract the attention of,differ or turn off from,4,,,,,,,,,,,,,,,,,,,,,,,,,,,,,,,,,,,,,,,,,,,,,,,,,,,,
,,,,,,,,,,,,,,,90353,001,2022-04-28_18h02.51.299,SPAMnetsValid,2021.1.4,Win32,59.99520038,,,,,,,,,,,,,,,,,,,,,,,,,4,2.4924,0,13,13,13,1,evoke,take away,anger,connect,bring out,4,,,,,,,,,,,,,,,,,,,,,,,,,,,,,,,,,,,,,,,,,,,,,,,,,,,,
,,,,,,,,,,,,,,,90353,001,2022-04-28_18h02.51.299,SPAMnetsValid,2021.1.4,Win32,59.99520038,,,,,,,,,,,,,,,,,,,,,,,,,3,2.9649,0,14,14,14,1,pertinent,relevant,lying next to,necessary,bold,1,,,,,,,,,,,,,,,,,,,,,,,,,,,,,,,,,,,,,,,,,,,,,,,,,,,,
,,,,,,,,,,,,,,,90353,001,2022-04-28_18h02.51.299,SPAMnetsValid,2021.1.4,Win32,59.99520038,,,,,,,,,,,,,,,,,,,,,,,,,2,8.542,0,15,15,15,1,holocaust,entirety,destruction,saintly,price,2,,,,,,,,,,,,,,,,,,,,,,,,,,,,,,,,,,,,,,,,,,,,,,,,,,,,
,,,,,,,,,,,,,,,90353,001,2022-04-28_18h02.51.299,SPAMnetsValid,2021.1.4,Win32,59.99520038,,,,,,,,,,,,,,,,,,,,,,,,,3,2.6436,0,16,16,16,1,piquant,mellow,fish,pungent,cloth,3,,,,,,,,,,,,,,,,,,,,,,,,,,,,,,,,,,,,,,,,,,,,,,,,,,,,
,,,,,,,,,,,,,,,90353,001,2022-04-28_18h02.51.299,SPAMnetsValid,2021.1.4,Win32,59.99520038,,,,,,,,,,,,,,,,,,,,,,,,,1,5.3107,0,17,17,17,1,firmament,foundation,heavens,strong,glue,2,,,,,,,,,,,,,,,,,,,,,,,,,,,,,,,,,,,,,,,,,,,,,,,,,,,,
,,,,,,,,,,,,,,,90353,001,2022-04-28_18h02.51.299,SPAMnetsValid,2021.1.4,Win32,59.99520038,,,,,,,,,,,,,,,,,,,,,,,,,,,,,,,,,,,,,,4,4.7806,0,0,0,0,1,marketable,partisan,jocular,marriageable,salable,essential,4,,,,,,,,,,,,,,,,,,,,,,,,,,,,,,,,,,,,,,
,,,,,,,,,,,,,,,90353,001,2022-04-28_18h02.51.299,SPAMnetsValid,2021.1.4,Win32,59.99520038,,,,,,,,,,,,,,,,,,,,,,,,,,,,,,,,,,,,,,5,7.6504,0,1,1,1,1,cottontail,squirrel,poplar,boa,marshy plant,rabbit,5,,,,,,,,,,,,,,,,,,,,,,,,,,,,,,,,,,,,,,
,,,,,,,,,,,,,,,90353,001,2022-04-28_18h02.51.299,SPAMnetsValid,2021.1.4,Win32,59.99520038,,,,,,,,,,,,,,,,,,,,,,,,,,,,,,,,,,,,,,3,7.1782,0,2,2,2,1,boggy,afraid,false,marshy,dense,black,3,,,,,,,,,,,,,,,,,,,,,,,,,,,,,,,,,,,,,,
,,,,,,,,,,,,,,,90353,001,2022-04-28_18h02.51.299,SPAMnetsValid,2021.1.4,Win32,59.99520038,,,,,,,,,,,,,,,,,,,,,,,,,,,,,,,,,,,,,,5,4.066,0,3,3,3,1,gruesomeness,blackness,falseness,vindictiveness,drunkenness,ghastliness,5,,,,,,,,,,,,,,,,,,,,,,,,,,,,,,,,,,,,,,
,,,,,,,,,,,,,,,90353,001,2022-04-28_18h02.51.299,SPAMnetsValid,2021.1.4,Win32,59.99520038,,,,,,,,,,,,,,,,,,,,,,,,,,,,,,,,,,,,,,3,5.234,0,4,4,4,1,loathing,diffidence,laziness,abhorrence,cleverness,comfort,3,,,,,,,,,,,,,,,,,,,,,,,,,,,,,,,,,,,,,,
,,,,,,,,,,,,,,,90353,001,2022-04-28_18h02.51.299,SPAMnetsValid,2021.1.4,Win32,59.99520038,,,,,,,,,,,,,,,,,,,,,,,,,,,,,,,,,,,,,,5,9.1191,0,5,5,5,1,bantam,fowl,ridicule,cripple,vegetable,ensign,1,,,,,,,,,,,,,,,,,,,,,,,,,,,,,,,,,,,,,,
,,,,,,,,,,,,,,,90353,001,2022-04-28_18h02.51.299,SPAMnetsValid,2021.1.4,Win32,59.99520038,,,,,,,,,,,,,,,,,,,,,,,,,,,,,,,,,,,,,,5,5.0951,0,6,6,6,1,evoke,wake up,surrender,reconnoiter,transcend,call forth,5,,,,,,,,,,,,,,,,,,,,,,,,,,,,,,,,,,,,,,
,,,,,,,,,,,,,,,90353,001,2022-04-28_18h02.51.299,SPAMnetsValid,2021.1.4,Win32,59.99520038,,,,,,,,,,,,,,,,,,,,,,,,,,,,,,,,,,,,,,3,3.7235,0,7,7,7,1,unobtrusive,unintelligent,epileptic,illogical,lineal,modest,5,,,,,,,,,,,,,,,,,,,,,,,,,,,,,,,,,,,,,,
,,,,,,,,,,,,,,,90353,001,2022-04-28_18h02.51.299,SPAMnetsValid,2021.1.4,Win32,59.99520038,,,,,,,,,,,,,,,,,,,,,,,,,,,,,,,,,,,,,,4,1.482,0,8,8,8,1,terrain,ice cream,final test,tractor,area of ground,weight,4,,,,,,,,,,,,,,,,,,,,,,,,,,,,,,,,,,,,,,
,,,,,,,,,,,,,,,90353,001,2022-04-28_18h02.51.299,SPAMnetsValid,2021.1.4,Win32,59.99520038,,,,,,,,,,,,,,,,,,,,,,,,,,,,,,,,,,,,,,3,4.2565,0,9,9,9,1,capriciousness,stubbornness,courage,whimsicality,amazement,greediness,3,,,,,,,,,,,,,,,,,,,,,,,,,,,,,,,,,,,,,,
,,,,,,,,,,,,,,,90353,001,2022-04-28_18h02.51.299,SPAMnetsValid,2021.1.4,Win32,59.99520038,,,,,,,,,,,,,,,,,,,,,,,,,,,,,,,,,,,,,,3,17.0338,0,10,10,10,1,maelstrom,slander,whirlpool,enmity,armor,majolica,2,,,,,,,,,,,,,,,,,,,,,,,,,,,,,,,,,,,,,,
,,,,,,,,,,,,,,,90353,001,2022-04-28_18h02.51.299,SPAMnetsValid,2021.1.4,Win32,59.99520038,,,,,,,,,,,,,,,,,,,,,,,,,,,,,,,,,,,,,,3,16.3416,0,11,11,11,1,tentative,critical,conclusive,authentic,provisional,apprehensive,4,,,,,,,,,,,,,,,,,,,,,,,,,,,,,,,,,,,,,,
,,,,,,,,,,,,,,,90353,001,2022-04-28_18h02.51.299,SPAMnetsValid,2021.1.4,Win32,59.99520038,,,,,,,,,,,,,,,,,,,,,,,,,,,,,,,,,,,,,,2,3.0408,0,12,12,12,1,placate,rehabilitate,plagiarize,depredate,apprise,conciliate,5,,,,,,,,,,,,,,,,,,,,,,,,,,,,,,,,,,,,,,
,,,,,,,,,,,,,,,90353,001,2022-04-28_18h02.51.299,SPAMnetsValid,2021.1.4,Win32,59.99520038,,,,,,,,,,,,,,,,,,,,,,,,,,,,,,,,,,,,,,4,5.5089,0,13,13,13,1,surcease,enlightenment,cessation,inattention,censor,substitution,2,,,,,,,,,,,,,,,,,,,,,,,,,,,,,,,,,,,,,,
,,,,,,,,,,,,,,,90353,001,2022-04-28_18h02.51.299,SPAMnetsValid,2021.1.4,Win32,59.99520038,,,,,,,,,,,,,,,,,,,,,,,,,,,,,,,,,,,,,,3,14.4071,0,14,14,14,1,apathetic,wandering,impassive,hateful,prophetic,overflowing,2,,,,,,,,,,,,,,,,,,,,,,,,,,,,,,,,,,,,,,
,,,,,,,,,,,,,,,90353,001,2022-04-28_18h02.51.299,SPAMnetsValid,2021.1.4,Win32,59.99520038,,,,,,,,,,,,,,,,,,,,,,,,,,,,,,,,,,,,,,2,6.4415,0,15,15,15,1,paternoster,paternalism,patricide,malediction,benediction,prayer,5,,,,,,,,,,,,,,,,,,,,,,,,,,,,,,,,,,,,,,
,,,,,,,,,,,,,,,90353,001,2022-04-28_18h02.51.299,SPAMnetsValid,2021.1.4,Win32,59.99520038,,,,,,,,,,,,,,,,,,,,,,,,,,,,,,,,,,,,,,4,5.6122,0,16,16,16,1,opalescence,opulence,senescence,bankruptcy,iridescence,assiduity,4,,,,,,,,,,,,,,,,,,,,,,,,,,,,,,,,,,,,,,
,,,,,,,,,,,,,,,90353,001,2022-04-28_18h02.51.299,SPAMnetsValid,2021.1.4,Win32,59.99520038,,,,,,,,,,,,,,,,,,,,,,,,,,,,,,,,,,,,,,2,2.7381,0,17,17,17,1,lush,stupid,luxurious,hazy,putrid,languishing,2,,,,,,,,,,,,,,,,,,,,,,,,,,,,,,,,,,,,,,
,,,,,,,,,,,,,,,90353,001,2022-04-28_18h02.51.299,SPAMnetsValid,2021.1.4,Win32,59.99520038,,,,,,,,,,,,,,,,,,,,,,,,,,,,,,,,,,,,,,3,63.6444,0,18,18,18,1,curtailment,expenditure,abandonment,abridgment,improvement,forgery,3,,,,,,,,,,,,,,,,,,,,,,,,,,,,,,,,,,,,,,
,,,,,,,,,,,,,,,90353,001,2022-04-28_18h02.51.299,SPAMnetsValid,2021.1.4,Win32,59.99520038,,,,,,,,,,,,,,,,,,,,,,,,,,,,,,,,,,,,,,2,3.8475,0,19,19,19,1,perversity,adversity,perviousness,travesty,waywardness,gentility,4,,,,,,,,,,,,,,,,,,,,,,,,,,,,,,,,,,,,,,
,,,,,,,,,,,,,,,90353,001,2022-04-28_18h02.51.299,SPAMnetsValid,2021.1.4,Win32,59.99520038,,,,,,,,,,,,,,,,,,,,,,,,,,,,,,,,,,,,,,3,2.9877,0,20,20,20,1,calumnious,complimentary,analogous,slanderous,tempestuous,magnanimous,3,,,,,,,,,,,,,,,,,,,,,,,,,,,,,,,,,,,,,,
,,,,,,,,,,,,,,,90353,001,2022-04-28_18h02.51.299,SPAMnetsValid,2021.1.4,Win32,59.99520038,,,,,,,,,,,,,,,,,,,,,,,,,,,,,,,,,,,,,,4,2.5709,0,21,21,21,1,illiberality,bigotry,imbecility,illegibility,cautery,immaturity,1,,,,,,,,,,,,,,,,,,,,,,,,,,,,,,,,,,,,,,
,,,,,,,,,,,,,,,90353,001,2022-04-28_18h02.51.299,SPAMnetsValid,2021.1.4,Win32,59.99520038,,,,,,,,,,,,,,,,,,,,,,,,,,,,,,,,,,,,,,4,2.8959,0,22,22,22,1,clabber,rejoice,gossip,curdle,crow,hobble,3,,,,,,,,,,,,,,,,,,,,,,,,,,,,,,,,,,,,,,
,,,,,,,,,,,,,,,90353,001,2022-04-28_18h02.51.299,SPAMnetsValid,2021.1.4,Win32,59.99520038,,,,,,,,,,,,,,,,,,,,,,,,,,,,,,,,,,,,,,3,1.3747,0,23,23,23,1,sedulousness,diligence,credulousness,seduction,perilousness,frankness,1,,,,,,,,,,,,,,,,,,,,,,,,,,,,,,,,,,,,,,
,,,,,,,,,,,,,,,90353,001,2022-04-28_18h02.51.299,SPAMnetsValid,2021.1.4,Win32,59.99520038,,,,,,,,,,,,,,,,,,,,,,,,,,,,,,,,,,,,,,,,,,,,,,,,,,,,fort,pillow,0,0,0,0,1,,,,,,,,,,,,,,,,,,,,,,,,,,,,,,,
,,,,,,,,,,,,,,,90353,001,2022-04-28_18h02.51.299,SPAMnetsValid,2021.1.4,Win32,59.99520038,,,,,,,,,,,,,,,,,,,,,,,,,,,,,,,,,,,,,,,,,,,,,,,,,,,,seat cushion,pillow,1,0,1,0,1,,,,,,,,,,,,,,,,,,,,,,,,,,,,,,,
,,,,,,,,,,,,,,,90353,001,2022-04-28_18h02.51.299,SPAMnetsValid,2021.1.4,Win32,59.99520038,,,,,,,,,,,,,,,,,,,,,,,,,,,,,,,,,,,,,,,,,,,,,,,,,,,,noise cancelling,pillow,2,0,2,0,1,,,,,,,,,,,,,,,,,,,,,,,,,,,,,,,
,,,,,,,,,,,,,,,90353,001,2022-04-28_18h02.51.299,SPAMnetsValid,2021.1.4,Win32,59.99520038,,,,,,,,,,,,,,,,,,,,,,,,,,,,,,,,,,,,,,,,,,,,,,,,,,,,hat,pillow,3,0,3,0,1,,,,,,,,,,,,,,,,,,,,,,,,,,,,,,,
,,,,,,,,,,,,,,,90353,001,2022-04-28_18h02.51.299,SPAMnetsValid,2021.1.4,Win32,59.99520038,,,,,,,,,,,,,,,,,,,,,,,,,,,,,,,,,,,,,,,,,,,,,,,,,,,,weapon,pillow,4,0,4,0,1,,,,,,,,,,,,,,,,,,,,,,,,,,,,,,,
,,,,,,,,,,,,,,,90353,001,2022-04-28_18h02.51.299,SPAMnetsValid,2021.1.4,Win32,59.99520038,,,,,,,,,,,,,,,,,,,,,,,,,,,,,,,,,,,,,,,,,,,,,,,,,,,,,,,,,,,0,0,0,2,1,pillow,,,,,,,,,,,,,,,,,,,,,,,,,
,,,,,,,,,,,,,,,90353,001,2022-04-28_18h02.51.299,SPAMnetsValid,2021.1.4,Win32,59.99520038,,,,,,,,,,,,,,,,,,,,,,,,,,,,,,,,,,,,,,,,,,,,,,,,,,,,seat,bucket,0,0,0,0,1,,,,,,,,,,,,,,,,,,,,,,,,,,,,,,,
,,,,,,,,,,,,,,,90353,001,2022-04-28_18h02.51.299,SPAMnetsValid,2021.1.4,Win32,59.99520038,,,,,,,,,,,,,,,,,,,,,,,,,,,,,,,,,,,,,,,,,,,,,,,,,,,,hat,bucket,1,0,1,0,1,,,,,,,,,,,,,,,,,,,,,,,,,,,,,,,
,,,,,,,,,,,,,,,90353,001,2022-04-28_18h02.51.299,SPAMnetsValid,2021.1.4,Win32,59.99520038,,,,,,,,,,,,,,,,,,,,,,,,,,,,,,,,,,,,,,,,,,,,,,,,,,,,foot washer,bucket,2,0,2,0,1,,,,,,,,,,,,,,,,,,,,,,,,,,,,,,,
,,,,,,,,,,,,,,,90353,001,2022-04-28_18h02.51.299,SPAMnetsValid,2021.1.4,Win32,59.99520038,,,,,,,,,,,,,,,,,,,,,,,,,,,,,,,,,,,,,,,,,,,,,,,,,,,,sand castle builder,bucket,3,0,3,0,1,,,,,,,,,,,,,,,,,,,,,,,,,,,,,,,
,,,,,,,,,,,,,,,90353,001,2022-04-28_18h02.51.299,SPAMnetsValid,2021.1.4,Win32,59.99520038,,,,,,,,,,,,,,,,,,,,,,,,,,,,,,,,,,,,,,,,,,,,,,,,,,,,garbage can,bucket,4,0,4,0,1,,,,,,,,,,,,,,,,,,,,,,,,,,,,,,,
,,,,,,,,,,,,,,,90353,001,2022-04-28_18h02.51.299,SPAMnetsValid,2021.1.4,Win32,59.99520038,,,,,,,,,,,,,,,,,,,,,,,,,,,,,,,,,,,,,,,,,,,,,,,,,,,,weapon,bucket,5,0,5,0,1,,,,,,,,,,,,,,,,,,,,,,,,,,,,,,,
,,,,,,,,,,,,,,,90353,001,2022-04-28_18h02.51.299,SPAMnetsValid,2021.1.4,Win32,59.99520038,,,,,,,,,,,,,,,,,,,,,,,,,,,,,,,,,,,,,,,,,,,,,,,,,,,,,,,,,,,0,1,1,0,1,bucket,,,,,,,,,,,,,,,,,,,,,,,,,
,,,,,,,,,,,,,,,90353,001,2022-04-28_18h02.51.299,SPAMnetsValid,2021.1.4,Win32,59.99520038,,,,,,,,,,,,,,,,,,,,,,,,,,,,,,,,,,,,,,,,,,,,,,,,,,,,marker,candle,0,0,0,0,1,,,,,,,,,,,,,,,,,,,,,,,,,,,,,,,
,,,,,,,,,,,,,,,90353,001,2022-04-28_18h02.51.299,SPAMnetsValid,2021.1.4,Win32,59.99520038,,,,,,,,,,,,,,,,,,,,,,,,,,,,,,,,,,,,,,,,,,,,,,,,,,,,weapon,candle,1,0,1,0,1,,,,,,,,,,,,,,,,,,,,,,,,,,,,,,,
,,,,,,,,,,,,,,,90353,001,2022-04-28_18h02.51.299,SPAMnetsValid,2021.1.4,Win32,59.99520038,,,,,,,,,,,,,,,,,,,,,,,,,,,,,,,,,,,,,,,,,,,,,,,,,,,,ear wax cleaner,candle,2,0,2,0,1,,,,,,,,,,,,,,,,,,,,,,,,,,,,,,,
,,,,,,,,,,,,,,,90353,001,2022-04-28_18h02.51.299,SPAMnetsValid,2021.1.4,Win32,59.99520038,,,,,,,,,,,,,,,,,,,,,,,,,,,,,,,,,,,,,,,,,,,,,,,,,,,,,,,,,,,0,2,2,1,1,candle,,,,,,,,,,,,,,,,,,,,,,,,,
,,,,,,,,,,,,,,,90353,001,2022-04-28_18h02.51.299,SPAMnetsValid,2021.1.4,Win32,59.99520038,,,,,,,,,,,,,,,,,,,,,,,,,,,,,,,,,,,,,,,,,,,,,,,,,,,,,,,,,,,,,,,,,bird,Animals,0,0,0,0,1,,,,,,,,,,,,,,,,,,
,,,,,,,,,,,,,,,90353,001,2022-04-28_18h02.51.299,SPAMnetsValid,2021.1.4,Win32,59.99520038,,,,,,,,,,,,,,,,,,,,,,,,,,,,,,,,,,,,,,,,,,,,,,,,,,,,,,,,,,,,,,,,,cat,Animals,1,0,1,0,1,,,,,,,,,,,,,,,,,,
,,,,,,,,,,,,,,,90353,001,2022-04-28_18h02.51.299,SPAMnetsValid,2021.1.4,Win32,59.99520038,,,,,,,,,,,,,,,,,,,,,,,,,,,,,,,,,,,,,,,,,,,,,,,,,,,,,,,,,,,,,,,,,dog,Animals,2,0,2,0,1,,,,,,,,,,,,,,,,,,
,,,,,,,,,,,,,,,90353,001,2022-04-28_18h02.51.299,SPAMnetsValid,2021.1.4,Win32,59.99520038,,,,,,,,,,,,,,,,,,,,,,,,,,,,,,,,,,,,,,,,,,,,,,,,,,,,,,,,,,,,,,,,,giraffe,Animals,3,0,3,0,1,,,,,,,,,,,,,,,,,,
,,,,,,,,,,,,,,,90353,001,2022-04-28_18h02.51.299,SPAMnetsValid,2021.1.4,Win32,59.99520038,,,,,,,,,,,,,,,,,,,,,,,,,,,,,,,,,,,,,,,,,,,,,,,,,,,,,,,,,,,,,,,,,zebra,Animals,4,0,4,0,1,,,,,,,,,,,,,,,,,,
,,,,,,,,,,,,,,,90353,001,2022-04-28_18h02.51.299,SPAMnetsValid,2021.1.4,Win32,59.99520038,,,,,,,,,,,,,,,,,,,,,,,,,,,,,,,,,,,,,,,,,,,,,,,,,,,,,,,,,,,,,,,,,polar bear,Animals,5,0,5,0,1,,,,,,,,,,,,,,,,,,
,,,,,,,,,,,,,,,90353,001,2022-04-28_18h02.51.299,SPAMnetsValid,2021.1.4,Win32,59.99520038,,,,,,,,,,,,,,,,,,,,,,,,,,,,,,,,,,,,,,,,,,,,,,,,,,,,,,,,,,,,,,,,,otter,Animals,6,0,6,0,1,,,,,,,,,,,,,,,,,,
,,,,,,,,,,,,,,,90353,001,2022-04-28_18h02.51.299,SPAMnetsValid,2021.1.4,Win32,59.99520038,,,,,,,,,,,,,,,,,,,,,,,,,,,,,,,,,,,,,,,,,,,,,,,,,,,,,,,,,,,,,,,,,sea horse,Animals,7,0,7,0,1,,,,,,,,,,,,,,,,,,
,,,,,,,,,,,,,,,90353,001,2022-04-28_18h02.51.299,SPAMnetsValid,2021.1.4,Win32,59.99520038,,,,,,,,,,,,,,,,,,,,,,,,,,,,,,,,,,,,,,,,,,,,,,,,,,,,,,,,,,,,,,,,,horse,Animals,8,0,8,0,1,,,,,,,,,,,,,,,,,,
,,,,,,,,,,,,,,,90353,001,2022-04-28_18h02.51.299,SPAMnetsValid,2021.1.4,Win32,59.99520038,,,,,,,,,,,,,,,,,,,,,,,,,,,,,,,,,,,,,,,,,,,,,,,,,,,,,,,,,,,,,,,,,squirrels,Animals,9,0,9,0,1,,,,,,,,,,,,,,,,,,
,,,,,,,,,,,,,,,90353,001,2022-04-28_18h02.51.299,SPAMnetsValid,2021.1.4,Win32,59.99520038,,,,,,,,,,,,,,,,,,,,,,,,,,,,,,,,,,,,,,,,,,,,,,,,,,,,,,,,,,,,,,,,,bunnies,Animals,10,0,10,0,1,,,,,,,,,,,,,,,,,,
,,,,,,,,,,,,,,,90353,001,2022-04-28_18h02.51.299,SPAMnetsValid,2021.1.4,Win32,59.99520038,,,,,,,,,,,,,,,,,,,,,,,,,,,,,,,,,,,,,,,,,,,,,,,,,,,,,,,,,,,,,,,,,penguins,Animals,11,0,11,0,1,,,,,,,,,,,,,,,,,,
,,,,,,,,,,,,,,,90353,001,2022-04-28_18h02.51.299,SPAMnetsValid,2021.1.4,Win32,59.99520038,,,,,,,,,,,,,,,,,,,,,,,,,,,,,,,,,,,,,,,,,,,,,,,,,,,,,,,,,,,,,,,,,sting ray,Animals,12,0,12,0,1,,,,,,,,,,,,,,,,,,
,,,,,,,,,,,,,,,90353,001,2022-04-28_18h02.51.299,SPAMnetsValid,2021.1.4,Win32,59.99520038,,,,,,,,,,,,,,,,,,,,,,,,,,,,,,,,,,,,,,,,,,,,,,,,,,,,,,,,,,,,,,,,,goldfish,Animals,13,0,13,0,1,,,,,,,,,,,,,,,,,,
,,,,,,,,,,,,,,,90353,001,2022-04-28_18h02.51.299,SPAMnetsValid,2021.1.4,Win32,59.99520038,,,,,,,,,,,,,,,,,,,,,,,,,,,,,,,,,,,,,,,,,,,,,,,,,,,,,,,,,,,,,,,,,jellyfish,Animals,14,0,14,0,1,,,,,,,,,,,,,,,,,,
,,,,,,,,,,,,,,,90353,001,2022-04-28_18h02.51.299,SPAMnetsValid,2021.1.4,Win32,59.99520038,,,,,,,,,,,,,,,,,,,,,,,,,,,,,,,,,,,,,,,,,,,,,,,,,,,,,,,,,,,,,,,,,owl,Animals,15,0,15,0,1,,,,,,,,,,,,,,,,,,
,,,,,,,,,,,,,,,90353,001,2022-04-28_18h02.51.299,SPAMnetsValid,2021.1.4,Win32,59.99520038,,,,,,,,,,,,,,,,,,,,,,,,,,,,,,,,,,,,,,,,,,,,,,,,,,,,,,,,,,,,,,,,,cow,Animals,16,0,16,0,1,,,,,,,,,,,,,,,,,,
,,,,,,,,,,,,,,,90353,001,2022-04-28_18h02.51.299,SPAMnetsValid,2021.1.4,Win32,59.99520038,,,,,,,,,,,,,,,,,,,,,,,,,,,,,,,,,,,,,,,,,,,,,,,,,,,,,,,,,,,,,,,,,donkey,Animals,17,0,17,0,1,,,,,,,,,,,,,,,,,,
,,,,,,,,,,,,,,,90353,001,2022-04-28_18h02.51.299,SPAMnetsValid,2021.1.4,Win32,59.99520038,,,,,,,,,,,,,,,,,,,,,,,,,,,,,,,,,,,,,,,,,,,,,,,,,,,,,,,,,,,,,,,,,lion,Animals,18,0,18,0,1,,,,,,,,,,,,,,,,,,
,,,,,,,,,,,,,,,90353,001,2022-04-28_18h02.51.299,SPAMnetsValid,2021.1.4,Win32,59.99520038,,,,,,,,,,,,,,,,,,,,,,,,,,,,,,,,,,,,,,,,,,,,,,,,,,,,,,,,,,,,,,,,,bear,Animals,19,0,19,0,1,,,,,,,,,,,,,,,,,,
,,,,,,,,,,,,,,,90353,001,2022-04-28_18h02.51.299,SPAMnetsValid,2021.1.4,Win32,59.99520038,,,,,,,,,,,,,,,,,,,,,,,,,,,,,,,,,,,,,,,,,,,,,,,,,,,,,,,,,,,,,,,,,chinchilla,Animals,20,0,20,0,1,,,,,,,,,,,,,,,,,,
,,,,,,,,,,,,,,,90353,001,2022-04-28_18h02.51.299,SPAMnetsValid,2021.1.4,Win32,59.99520038,,,,,,,,,,,,,,,,,,,,,,,,,,,,,,,,,,,,,,,,,,,,,,,,,,,,,,,,,,,,,,,,,guinea pig,Animals,21,0,21,0,1,,,,,,,,,,,,,,,,,,
,,,,,,,,,,,,,,,90353,001,2022-04-28_18h02.51.299,SPAMnetsValid,2021.1.4,Win32,59.99520038,,,,,,,,,,,,,,,,,,,,,,,,,,,,,,,,,,,,,,,,,,,,,,,,,,,,,,,,,,,,,,,,,hampster,Animals,22,0,22,0,1,,,,,,,,,,,,,,,,,,
,,,,,,,,,,,,,,,90353,001,2022-04-28_18h02.51.299,SPAMnetsValid,2021.1.4,Win32,59.99520038,,,,,,,,,,,,,,,,,,,,,,,,,,,,,,,,,,,,,,,,,,,,,,,,,,,,,,,,,,,,,,,,,lizard,Animals,23,0,23,0,1,,,,,,,,,,,,,,,,,,
,,,,,,,,,,,,,,,90353,001,2022-04-28_18h02.51.299,SPAMnetsValid,2021.1.4,Win32,59.99520038,,,,,,,,,,,,,,,,,,,,,,,,,,,,,,,,,,,,,,,,,,,,,,,,,,,,,,,,,,,,,,,,,chameleon,Animals,24,0,24,0,1,,,,,,,,,,,,,,,,,,
,,,,,,,,,,,,,,,90353,001,2022-04-28_18h02.51.299,SPAMnetsValid,2021.1.4,Win32,59.99520038,,,,,,,,,,,,,,,,,,,,,,,,,,,,,,,,,,,,,,,,,,,,,,,,,,,,,,,,,,,,,,,,,,,,,,,,0,0,0,0,1,Animals,,,,,,,,,,,,
,,,,,,,,,,,,,,,90353,001,2022-04-28_18h02.51.299,SPAMnetsValid,2021.1.4,Win32,59.99520038,,,,,,,,,,,,,,,,,,,,,,,,,,,,,,,,,,,,,,,,,,,,,,,,,,,,,,,,,,,,,,,,,,,,,,,,,,,,,,4,6.425,0,0,0,0,1,"I enjoy concentrating on a fantasy or daydream and exploring all its possibilities, letting it grow and develop.",0,1,,
,,,,,,,,,,,,,,,90353,001,2022-04-28_18h02.51.299,SPAMnetsValid,2021.1.4,Win32,59.99520038,,,,,,,,,,,,,,,,,,,,,,,,,,,,,,,,,,,,,,,,,,,,,,,,,,,,,,,,,,,,,,,,,,,,,,,,,,,,,,4,3.1839,0,1,1,1,1,I think it's interesting to learn and develop new hobbies.,0,2,,
,,,,,,,,,,,,,,,90353,001,2022-04-28_18h02.51.299,SPAMnetsValid,2021.1.4,Win32,59.99520038,,,,,,,,,,,,,,,,,,,,,,,,,,,,,,,,,,,,,,,,,,,,,,,,,,,,,,,,,,,,,,,,,,,,,,,,,,,,,,4,7.2431,0,2,2,2,1,I am intrigued by the patterns I find in art and nature.,0,3,,
,,,,,,,,,,,,,,,90353,001,2022-04-28_18h02.51.299,SPAMnetsValid,2021.1.4,Win32,59.99520038,,,,,,,,,,,,,,,,,,,,,,,,,,,,,,,,,,,,,,,,,,,,,,,,,,,,,,,,,,,,,,,,,,,,,,,,,,,,,,3,4.1821,0,3,3,3,1,I believe letting students hear controversial speakers can only confuse and mislead them.,1,4,,
,,,,,,,,,,,,,,,90353,001,2022-04-28_18h02.51.299,SPAMnetsValid,2021.1.4,Win32,59.99520038,,,,,,,,,,,,,,,,,,,,,,,,,,,,,,,,,,,,,,,,,,,,,,,,,,,,,,,,,,,,,,,,,,,,,,,,,,,,,,4,4.4516,0,4,4,4,1,Poetry has little or no effect on me.,1,5,,
,,,,,,,,,,,,,,,90353,001,2022-04-28_18h02.51.299,SPAMnetsValid,2021.1.4,Win32,59.99520038,,,,,,,,,,,,,,,,,,,,,,,,,,,,,,,,,,,,,,,,,,,,,,,,,,,,,,,,,,,,,,,,,,,,,,,,,,,,,,3,8.3863,0,5,5,5,1,I would have difficulty just letting my mind wander without control or guidance.,1,6,,
,,,,,,,,,,,,,,,90353,001,2022-04-28_18h02.51.299,SPAMnetsValid,2021.1.4,Win32,59.99520038,,,,,,,,,,,,,,,,,,,,,,,,,,,,,,,,,,,,,,,,,,,,,,,,,,,,,,,,,,,,,,,,,,,,,,,,,,,,,,2,7.3433,0,6,6,6,1,I seldom notice the moods or feelings that different environments produce.,1,7,,
,,,,,,,,,,,,,,,90353,001,2022-04-28_18h02.51.299,SPAMnetsValid,2021.1.4,Win32,59.99520038,,,,,,,,,,,,,,,,,,,,,,,,,,,,,,,,,,,,,,,,,,,,,,,,,,,,,,,,,,,,,,,,,,,,,,,,,,,,,,4,3.3853,0,7,7,7,1,I experience a wide range of emotions or feelings.,0,8,,
,,,,,,,,,,,,,,,90353,001,2022-04-28_18h02.51.299,SPAMnetsValid,2021.1.4,Win32,59.99520038,,,,,,,,,,,,,,,,,,,,,,,,,,,,,,,,,,,,,,,,,,,,,,,,,,,,,,,,,,,,,,,,,,,,,,,,,,,,,,4,5.3383,0,8,8,8,1,"Sometimes when I am reading poetry or looking at a work of art, I feel a chill or wave of excitement.",0,9,,
,,,,,,,,,,,,,,,90353,001,2022-04-28_18h02.51.299,SPAMnetsValid,2021.1.4,Win32,59.99520038,,,,,,,,,,,,,,,,,,,,,,,,,,,,,,,,,,,,,,,,,,,,,,,,,,,,,,,,,,,,,,,,,,,,,,,,,,,,,,3,3.845,0,9,9,9,1,I have little interest in speculating on the nature of the universe or the human condition.,1,10,,
,,,,,,,,,,,,,,,90353,001,2022-04-28_18h02.51.299,SPAMnetsValid,2021.1.4,Win32,59.99520038,,,,,,,,,,,,,,,,,,,,,,,,,,,,,,,,,,,,,,,,,,,,,,,,,,,,,,,,,,,,,,,,,,,,,,,,,,,,,,4,2.3051,0,10,10,10,1,I have a lot of intellectual curiosity.,0,11,,
,,,,,,,,,,,,,,,90353,001,2022-04-28_18h02.51.299,SPAMnetsValid,2021.1.4,Win32,59.99520038,,,,,,,,,,,,,,,,,,,,,,,,,,,,,,,,,,,,,,,,,,,,,,,,,,,,,,,,,,,,,,,,,,,,,,,,,,,,,,4,2.3004,0,11,11,11,1,I often enjoy playing with theories or abstract ideas.,0,12,,
,,,,,,,,,,,,,,,90353,001,2022-04-28_18h02.51.299,SPAMnetsValid,2021.1.4,Win32,59.99520038,,,,,,,,,,,,,,,,,,,,,,,,,,,,,,,,,,,,,,,,,,,,,,,,,,,,,,,,,,,,,,,,,,,,,,,,,,,,,,,,,,,,,,,,return,25.3409
