key_resp_3.keys,key_resp_3.rt,slider.response,slider.rt,rjt_rating,rjt_RT,trials_22.thisRepN,trials_22.thisTrialN,trials_22.thisN,trials_22.thisIndex,trials_22.ran,rjt_order,word1,word2,attention,participant,session,date,expName,psychopyVersion,OS,frameRate,trials_99.thisRepN,trials_99.thisTrialN,trials_99.thisN,trials_99.thisIndex,trials_99.ran,trials_5.thisRepN,trials_5.thisTrialN,trials_5.thisN,trials_5.thisIndex,trials_5.ran,repOne,repTwo,slider_2.response,slider_2.rt,trials_24.thisRepN,trials_24.thisTrialN,trials_24.thisN,trials_24.thisIndex,trials_24.ran,trials_4.thisRepN,trials_4.thisTrialN,trials_4.thisN,trials_4.thisIndex,trials_4.ran,slider_extend_2.response,slider_extend_2.rt,trials_6.thisRepN,trials_6.thisTrialN,trials_6.thisN,trials_6.thisIndex,trials_6.ran,vCue2,R1,R2,R3,R4,correct,sliderVocab.response,sliderVocab.rt,trials_7.thisRepN,trials_7.thisTrialN,trials_7.thisN,trials_7.thisIndex,trials_7.ran,VocabCue,VR1,VR2,VR3,VR4,VR5,VocabCorrect,AUT_resp,AUT_label,trials.thisRepN,trials.thisTrialN,trials.thisN,trials.thisIndex,trials.ran,trials_2.thisRepN,trials_2.thisTrialN,trials_2.thisN,trials_2.thisIndex,trials_2.ran,aut_prompt,VF_response,VF_tag,trials_16.thisRepN,trials_16.thisTrialN,trials_16.thisN,trials_16.thisIndex,trials_16.ran,trials_17.thisRepN,trials_17.thisTrialN,trials_17.thisN,trials_17.thisIndex,trials_17.ran,VFcond,open_slider.response,open_slider.rt,trials_3.thisRepN,trials_3.thisTrialN,trials_3.thisN,trials_3.thisIndex,trials_3.ran,OpenQ,Rev,OPEN_ORDER,key_resp_2.keys,key_resp_2.rt
return,1.5675,6,7.2309,6,7.2309,0,0,0,74,1,70,chocolate,onion,,90353,002,2022-04-28_21h47.07.109,SPAMnetsValid,2021.1.4,Win32,59.80503558,,,,,,,,,,,,,,,,,,,,,,,,,,,,,,,,,,,,,,,,,,,,,,,,,,,,,,,,,,,,,,,,,,,,,,,,,,,,,,,,,,,,,,,,,
,,5,3.2059,5,3.2059,0,1,1,93,1,63,cake,cookie,,90353,002,2022-04-28_21h47.07.109,SPAMnetsValid,2021.1.4,Win32,59.80503558,,,,,,,,,,,,,,,,,,,,,,,,,,,,,,,,,,,,,,,,,,,,,,,,,,,,,,,,,,,,,,,,,,,,,,,,,,,,,,,,,,,,,,,,,
,,5,0.3286,5,0.3286,0,2,2,40,1,74,broom,pretzel,,90353,002,2022-04-28_21h47.07.109,SPAMnetsValid,2021.1.4,Win32,59.80503558,,,,,,,,,,,,,,,,,,,,,,,,,,,,,,,,,,,,,,,,,,,,,,,,,,,,,,,,,,,,,,,,,,,,,,,,,,,,,,,,,,,,,,,,,
,,5,0.2804,5,0.2804,0,3,3,53,1,192,microwave,microwave,CHECK,90353,002,2022-04-28_21h47.07.109,SPAMnetsValid,2021.1.4,Win32,59.80503558,,,,,,,,,,,,,,,,,,,,,,,,,,,,,,,,,,,,,,,,,,,,,,,,,,,,,,,,,,,,,,,,,,,,,,,,,,,,,,,,,,,,,,,,,
,,5,0.2447,5,0.2447,0,4,4,55,1,1,rose,yogurt,,90353,002,2022-04-28_21h47.07.109,SPAMnetsValid,2021.1.4,Win32,59.80503558,,,,,,,,,,,,,,,,,,,,,,,,,,,,,,,,,,,,,,,,,,,,,,,,,,,,,,,,,,,,,,,,,,,,,,,,,,,,,,,,,,,,,,,,,
,,5,0.0206,5,0.0206,0,5,5,25,1,23,flower,microwave,,90353,002,2022-04-28_21h47.07.109,SPAMnetsValid,2021.1.4,Win32,59.80503558,,,,,,,,,,,,,,,,,,,,,,,,,,,,,,,,,,,,,,,,,,,,,,,,,,,,,,,,,,,,,,,,,,,,,,,,,,,,,,,,,,,,,,,,,
,,5,0.0185,5,0.0185,0,6,6,61,1,71,broom,rose,,90353,002,2022-04-28_21h47.07.109,SPAMnetsValid,2021.1.4,Win32,59.80503558,,,,,,,,,,,,,,,,,,,,,,,,,,,,,,,,,,,,,,,,,,,,,,,,,,,,,,,,,,,,,,,,,,,,,,,,,,,,,,,,,,,,,,,,,
,,5,0.1978,5,0.1978,0,7,7,2,1,22,kitchen,strawberry,,90353,002,2022-04-28_21h47.07.109,SPAMnetsValid,2021.1.4,Win32,59.80503558,,,,,,,,,,,,,,,,,,,,,,,,,,,,,,,,,,,,,,,,,,,,,,,,,,,,,,,,,,,,,,,,,,,,,,,,,,,,,,,,,,,,,,,,,
,,5,0.1659,5,0.1659,0,8,8,27,1,72,broom,onion,,90353,002,2022-04-28_21h47.07.109,SPAMnetsValid,2021.1.4,Win32,59.80503558,,,,,,,,,,,,,,,,,,,,,,,,,,,,,,,,,,,,,,,,,,,,,,,,,,,,,,,,,,,,,,,,,,,,,,,,,,,,,,,,,,,,,,,,,
,,5,0.1247,5,0.1247,0,9,9,12,1,67,flower,yogurt,,90353,002,2022-04-28_21h47.07.109,SPAMnetsValid,2021.1.4,Win32,59.80503558,,,,,,,,,,,,,,,,,,,,,,,,,,,,,,,,,,,,,,,,,,,,,,,,,,,,,,,,,,,,,,,,,,,,,,,,,,,,,,,,,,,,,,,,,
,,5,0.0872,5,0.0872,0,10,10,31,1,33,oven,yogurt,,90353,002,2022-04-28_21h47.07.109,SPAMnetsValid,2021.1.4,Win32,59.80503558,,,,,,,,,,,,,,,,,,,,,,,,,,,,,,,,,,,,,,,,,,,,,,,,,,,,,,,,,,,,,,,,,,,,,,,,,,,,,,,,,,,,,,,,,
,,5,0.1045,5,0.1045,0,11,11,44,1,25,carrot,onion,,90353,002,2022-04-28_21h47.07.109,SPAMnetsValid,2021.1.4,Win32,59.80503558,,,,,,,,,,,,,,,,,,,,,,,,,,,,,,,,,,,,,,,,,,,,,,,,,,,,,,,,,,,,,,,,,,,,,,,,,,,,,,,,,,,,,,,,,
,,5,0.0697,5,0.0697,0,12,12,60,1,89,chocolate,rose,,90353,002,2022-04-28_21h47.07.109,SPAMnetsValid,2021.1.4,Win32,59.80503558,,,,,,,,,,,,,,,,,,,,,,,,,,,,,,,,,,,,,,,,,,,,,,,,,,,,,,,,,,,,,,,,,,,,,,,,,,,,,,,,,,,,,,,,,
,,5,0.0544,5,0.0544,0,13,13,7,1,34,melon,oven,,90353,002,2022-04-28_21h47.07.109,SPAMnetsValid,2021.1.4,Win32,59.80503558,,,,,,,,,,,,,,,,,,,,,,,,,,,,,,,,,,,,,,,,,,,,,,,,,,,,,,,,,,,,,,,,,,,,,,,,,,,,,,,,,,,,,,,,,
,,5,0.0315,5,0.0315,0,14,14,36,1,12,cookie,yogurt,,90353,002,2022-04-28_21h47.07.109,SPAMnetsValid,2021.1.4,Win32,59.80503558,,,,,,,,,,,,,,,,,,,,,,,,,,,,,,,,,,,,,,,,,,,,,,,,,,,,,,,,,,,,,,,,,,,,,,,,,,,,,,,,,,,,,,,,,
,,5,0.0238,5,0.0238,0,15,15,37,1,58,garden,oven,,90353,002,2022-04-28_21h47.07.109,SPAMnetsValid,2021.1.4,Win32,59.80503558,,,,,,,,,,,,,,,,,,,,,,,,,,,,,,,,,,,,,,,,,,,,,,,,,,,,,,,,,,,,,,,,,,,,,,,,,,,,,,,,,,,,,,,,,
,,5,0.0428,5,0.0428,0,16,16,30,1,3,cake,oven,,90353,002,2022-04-28_21h47.07.109,SPAMnetsValid,2021.1.4,Win32,59.80503558,,,,,,,,,,,,,,,,,,,,,,,,,,,,,,,,,,,,,,,,,,,,,,,,,,,,,,,,,,,,,,,,,,,,,,,,,,,,,,,,,,,,,,,,,
,,5,0.058,5,0.058,0,17,17,41,1,19,microwave,pretzel,,90353,002,2022-04-28_21h47.07.109,SPAMnetsValid,2021.1.4,Win32,59.80503558,,,,,,,,,,,,,,,,,,,,,,,,,,,,,,,,,,,,,,,,,,,,,,,,,,,,,,,,,,,,,,,,,,,,,,,,,,,,,,,,,,,,,,,,,
,,5,0.1779,5,0.1779,0,18,18,17,1,27,cactus,cookie,,90353,002,2022-04-28_21h47.07.109,SPAMnetsValid,2021.1.4,Win32,59.80503558,,,,,,,,,,,,,,,,,,,,,,,,,,,,,,,,,,,,,,,,,,,,,,,,,,,,,,,,,,,,,,,,,,,,,,,,,,,,,,,,,,,,,,,,,
,,5,0.129,5,0.129,0,19,19,15,1,48,flower,oven,,90353,002,2022-04-28_21h47.07.109,SPAMnetsValid,2021.1.4,Win32,59.80503558,,,,,,,,,,,,,,,,,,,,,,,,,,,,,,,,,,,,,,,,,,,,,,,,,,,,,,,,,,,,,,,,,,,,,,,,,,,,,,,,,,,,,,,,,
,,5,0.1138,5,0.1138,0,20,20,21,1,56,cactus,tree,,90353,002,2022-04-28_21h47.07.109,SPAMnetsValid,2021.1.4,Win32,59.80503558,,,,,,,,,,,,,,,,,,,,,,,,,,,,,,,,,,,,,,,,,,,,,,,,,,,,,,,,,,,,,,,,,,,,,,,,,,,,,,,,,,,,,,,,,
,,5,0.0814,5,0.0814,0,21,21,16,1,14,broom,cookie,,90353,002,2022-04-28_21h47.07.109,SPAMnetsValid,2021.1.4,Win32,59.80503558,,,,,,,,,,,,,,,,,,,,,,,,,,,,,,,,,,,,,,,,,,,,,,,,,,,,,,,,,,,,,,,,,,,,,,,,,,,,,,,,,,,,,,,,,
,,5,0.0751,5,0.0751,0,22,22,42,1,77,refrigerator,yogurt,,90353,002,2022-04-28_21h47.07.109,SPAMnetsValid,2021.1.4,Win32,59.80503558,,,,,,,,,,,,,,,,,,,,,,,,,,,,,,,,,,,,,,,,,,,,,,,,,,,,,,,,,,,,,,,,,,,,,,,,,,,,,,,,,,,,,,,,,
,,5,0.0577,5,0.0577,0,23,23,91,1,2,kitchen,onion,,90353,002,2022-04-28_21h47.07.109,SPAMnetsValid,2021.1.4,Win32,59.80503558,,,,,,,,,,,,,,,,,,,,,,,,,,,,,,,,,,,,,,,,,,,,,,,,,,,,,,,,,,,,,,,,,,,,,,,,,,,,,,,,,,,,,,,,,
,,5,0.0761,5,0.0761,0,24,24,94,1,68,flower,tomato,,90353,002,2022-04-28_21h47.07.109,SPAMnetsValid,2021.1.4,Win32,59.80503558,,,,,,,,,,,,,,,,,,,,,,,,,,,,,,,,,,,,,,,,,,,,,,,,,,,,,,,,,,,,,,,,,,,,,,,,,,,,,,,,,,,,,,,,,
,,5,0.1893,5,0.1893,0,25,25,88,1,92,broom,flower,,90353,002,2022-04-28_21h47.07.109,SPAMnetsValid,2021.1.4,Win32,59.80503558,,,,,,,,,,,,,,,,,,,,,,,,,,,,,,,,,,,,,,,,,,,,,,,,,,,,,,,,,,,,,,,,,,,,,,,,,,,,,,,,,,,,,,,,,
,,5,0.1378,5,0.1378,0,26,26,10,1,191,cake,cake,CHECK,90353,002,2022-04-28_21h47.07.109,SPAMnetsValid,2021.1.4,Win32,59.80503558,,,,,,,,,,,,,,,,,,,,,,,,,,,,,,,,,,,,,,,,,,,,,,,,,,,,,,,,,,,,,,,,,,,,,,,,,,,,,,,,,,,,,,,,,
,,5,0.0888,5,0.0888,0,27,27,79,1,86,oven,rose,,90353,002,2022-04-28_21h47.07.109,SPAMnetsValid,2021.1.4,Win32,59.80503558,,,,,,,,,,,,,,,,,,,,,,,,,,,,,,,,,,,,,,,,,,,,,,,,,,,,,,,,,,,,,,,,,,,,,,,,,,,,,,,,,,,,,,,,,
,,5,0.2162,5,0.2162,0,28,28,63,1,21,cake,onion,,90353,002,2022-04-28_21h47.07.109,SPAMnetsValid,2021.1.4,Win32,59.80503558,,,,,,,,,,,,,,,,,,,,,,,,,,,,,,,,,,,,,,,,,,,,,,,,,,,,,,,,,,,,,,,,,,,,,,,,,,,,,,,,,,,,,,,,,
,,5,0.1239,5,0.1239,0,29,29,38,1,88,cactus,melon,,90353,002,2022-04-28_21h47.07.109,SPAMnetsValid,2021.1.4,Win32,59.80503558,,,,,,,,,,,,,,,,,,,,,,,,,,,,,,,,,,,,,,,,,,,,,,,,,,,,,,,,,,,,,,,,,,,,,,,,,,,,,,,,,,,,,,,,,
,,5,0.1198,5,0.1198,0,30,30,62,1,18,onion,refrigerator,,90353,002,2022-04-28_21h47.07.109,SPAMnetsValid,2021.1.4,Win32,59.80503558,,,,,,,,,,,,,,,,,,,,,,,,,,,,,,,,,,,,,,,,,,,,,,,,,,,,,,,,,,,,,,,,,,,,,,,,,,,,,,,,,,,,,,,,,
,,5,0.1039,5,0.1039,0,31,31,57,1,62,kitchen,rose,,90353,002,2022-04-28_21h47.07.109,SPAMnetsValid,2021.1.4,Win32,59.80503558,,,,,,,,,,,,,,,,,,,,,,,,,,,,,,,,,,,,,,,,,,,,,,,,,,,,,,,,,,,,,,,,,,,,,,,,,,,,,,,,,,,,,,,,,
,,5,0.0931,5,0.0931,0,32,32,22,1,16,chocolate,flower,,90353,002,2022-04-28_21h47.07.109,SPAMnetsValid,2021.1.4,Win32,59.80503558,,,,,,,,,,,,,,,,,,,,,,,,,,,,,,,,,,,,,,,,,,,,,,,,,,,,,,,,,,,,,,,,,,,,,,,,,,,,,,,,,,,,,,,,,
,,5,0.0767,5,0.0767,0,33,33,23,1,65,broom,garden,,90353,002,2022-04-28_21h47.07.109,SPAMnetsValid,2021.1.4,Win32,59.80503558,,,,,,,,,,,,,,,,,,,,,,,,,,,,,,,,,,,,,,,,,,,,,,,,,,,,,,,,,,,,,,,,,,,,,,,,,,,,,,,,,,,,,,,,,
,,5,0.0617,5,0.0617,0,34,34,71,1,38,pretzel,refrigerator,,90353,002,2022-04-28_21h47.07.109,SPAMnetsValid,2021.1.4,Win32,59.80503558,,,,,,,,,,,,,,,,,,,,,,,,,,,,,,,,,,,,,,,,,,,,,,,,,,,,,,,,,,,,,,,,,,,,,,,,,,,,,,,,,,,,,,,,,
,,5,0.0627,5,0.0627,0,35,35,81,1,60,cactus,onion,,90353,002,2022-04-28_21h47.07.109,SPAMnetsValid,2021.1.4,Win32,59.80503558,,,,,,,,,,,,,,,,,,,,,,,,,,,,,,,,,,,,,,,,,,,,,,,,,,,,,,,,,,,,,,,,,,,,,,,,,,,,,,,,,,,,,,,,,
,,5,0.071,5,0.071,0,36,36,70,1,5,oven,tree,,90353,002,2022-04-28_21h47.07.109,SPAMnetsValid,2021.1.4,Win32,59.80503558,,,,,,,,,,,,,,,,,,,,,,,,,,,,,,,,,,,,,,,,,,,,,,,,,,,,,,,,,,,,,,,,,,,,,,,,,,,,,,,,,,,,,,,,,
,,5,0.0798,5,0.0798,0,37,37,50,1,81,pretzel,yogurt,,90353,002,2022-04-28_21h47.07.109,SPAMnetsValid,2021.1.4,Win32,59.80503558,,,,,,,,,,,,,,,,,,,,,,,,,,,,,,,,,,,,,,,,,,,,,,,,,,,,,,,,,,,,,,,,,,,,,,,,,,,,,,,,,,,,,,,,,
,,5,0.0741,5,0.0741,0,38,38,1,1,31,cactus,pretzel,,90353,002,2022-04-28_21h47.07.109,SPAMnetsValid,2021.1.4,Win32,59.80503558,,,,,,,,,,,,,,,,,,,,,,,,,,,,,,,,,,,,,,,,,,,,,,,,,,,,,,,,,,,,,,,,,,,,,,,,,,,,,,,,,,,,,,,,,
,,5,0.0751,5,0.0751,0,39,39,47,1,73,broom,chocolate,,90353,002,2022-04-28_21h47.07.109,SPAMnetsValid,2021.1.4,Win32,59.80503558,,,,,,,,,,,,,,,,,,,,,,,,,,,,,,,,,,,,,,,,,,,,,,,,,,,,,,,,,,,,,,,,,,,,,,,,,,,,,,,,,,,,,,,,,
,,5,0.0919,5,0.0919,0,40,40,43,1,11,refrigerator,tree,,90353,002,2022-04-28_21h47.07.109,SPAMnetsValid,2021.1.4,Win32,59.80503558,,,,,,,,,,,,,,,,,,,,,,,,,,,,,,,,,,,,,,,,,,,,,,,,,,,,,,,,,,,,,,,,,,,,,,,,,,,,,,,,,,,,,,,,,
,,5,0.1093,5,0.1093,0,41,41,77,1,7,melon,tree,,90353,002,2022-04-28_21h47.07.109,SPAMnetsValid,2021.1.4,Win32,59.80503558,,,,,,,,,,,,,,,,,,,,,,,,,,,,,,,,,,,,,,,,,,,,,,,,,,,,,,,,,,,,,,,,,,,,,,,,,,,,,,,,,,,,,,,,,
,,5,0.095,5,0.095,0,42,42,29,1,42,garden,kitchen,,90353,002,2022-04-28_21h47.07.109,SPAMnetsValid,2021.1.4,Win32,59.80503558,,,,,,,,,,,,,,,,,,,,,,,,,,,,,,,,,,,,,,,,,,,,,,,,,,,,,,,,,,,,,,,,,,,,,,,,,,,,,,,,,,,,,,,,,
,,5,0.096,5,0.096,0,43,43,26,1,35,flower,pretzel,,90353,002,2022-04-28_21h47.07.109,SPAMnetsValid,2021.1.4,Win32,59.80503558,,,,,,,,,,,,,,,,,,,,,,,,,,,,,,,,,,,,,,,,,,,,,,,,,,,,,,,,,,,,,,,,,,,,,,,,,,,,,,,,,,,,,,,,,
,,5,0.0803,5,0.0803,0,44,44,33,1,32,cake,microwave,,90353,002,2022-04-28_21h47.07.109,SPAMnetsValid,2021.1.4,Win32,59.80503558,,,,,,,,,,,,,,,,,,,,,,,,,,,,,,,,,,,,,,,,,,,,,,,,,,,,,,,,,,,,,,,,,,,,,,,,,,,,,,,,,,,,,,,,,
,,5,0.1061,5,0.1061,0,45,45,73,1,50,carrot,rose,,90353,002,2022-04-28_21h47.07.109,SPAMnetsValid,2021.1.4,Win32,59.80503558,,,,,,,,,,,,,,,,,,,,,,,,,,,,,,,,,,,,,,,,,,,,,,,,,,,,,,,,,,,,,,,,,,,,,,,,,,,,,,,,,,,,,,,,,
,,5,0.0568,5,0.0568,0,46,46,28,1,84,oven,tomato,,90353,002,2022-04-28_21h47.07.109,SPAMnetsValid,2021.1.4,Win32,59.80503558,,,,,,,,,,,,,,,,,,,,,,,,,,,,,,,,,,,,,,,,,,,,,,,,,,,,,,,,,,,,,,,,,,,,,,,,,,,,,,,,,,,,,,,,,
,,5,0.0741,5,0.0741,0,47,47,92,1,44,cookie,melon,,90353,002,2022-04-28_21h47.07.109,SPAMnetsValid,2021.1.4,Win32,59.80503558,,,,,,,,,,,,,,,,,,,,,,,,,,,,,,,,,,,,,,,,,,,,,,,,,,,,,,,,,,,,,,,,,,,,,,,,,,,,,,,,,,,,,,,,,
,,5,0.0589,5,0.0589,0,48,48,51,1,47,onion,tomato,,90353,002,2022-04-28_21h47.07.109,SPAMnetsValid,2021.1.4,Win32,59.80503558,,,,,,,,,,,,,,,,,,,,,,,,,,,,,,,,,,,,,,,,,,,,,,,,,,,,,,,,,,,,,,,,,,,,,,,,,,,,,,,,,,,,,,,,,
,,5,0.2232,5,0.2232,0,49,49,39,1,15,onion,oven,,90353,002,2022-04-28_21h47.07.109,SPAMnetsValid,2021.1.4,Win32,59.80503558,,,,,,,,,,,,,,,,,,,,,,,,,,,,,,,,,,,,,,,,,,,,,,,,,,,,,,,,,,,,,,,,,,,,,,,,,,,,,,,,,,,,,,,,,
,,5,0.1236,5,0.1236,0,50,50,54,1,28,cake,melon,,90353,002,2022-04-28_21h47.07.109,SPAMnetsValid,2021.1.4,Win32,59.80503558,,,,,,,,,,,,,,,,,,,,,,,,,,,,,,,,,,,,,,,,,,,,,,,,,,,,,,,,,,,,,,,,,,,,,,,,,,,,,,,,,,,,,,,,,
,,5,0.0966,5,0.0966,0,51,51,18,1,85,cake,tree,,90353,002,2022-04-28_21h47.07.109,SPAMnetsValid,2021.1.4,Win32,59.80503558,,,,,,,,,,,,,,,,,,,,,,,,,,,,,,,,,,,,,,,,,,,,,,,,,,,,,,,,,,,,,,,,,,,,,,,,,,,,,,,,,,,,,,,,,
,,5,0.0966,5,0.0966,0,52,52,84,1,91,microwave,rose,,90353,002,2022-04-28_21h47.07.109,SPAMnetsValid,2021.1.4,Win32,59.80503558,,,,,,,,,,,,,,,,,,,,,,,,,,,,,,,,,,,,,,,,,,,,,,,,,,,,,,,,,,,,,,,,,,,,,,,,,,,,,,,,,,,,,,,,,
,,5,0.0808,5,0.0808,0,53,53,90,1,95,broom,refrigerator,,90353,002,2022-04-28_21h47.07.109,SPAMnetsValid,2021.1.4,Win32,59.80503558,,,,,,,,,,,,,,,,,,,,,,,,,,,,,,,,,,,,,,,,,,,,,,,,,,,,,,,,,,,,,,,,,,,,,,,,,,,,,,,,,,,,,,,,,
,,5,0.0644,5,0.0644,0,54,54,56,1,78,cookie,rose,,90353,002,2022-04-28_21h47.07.109,SPAMnetsValid,2021.1.4,Win32,59.80503558,,,,,,,,,,,,,,,,,,,,,,,,,,,,,,,,,,,,,,,,,,,,,,,,,,,,,,,,,,,,,,,,,,,,,,,,,,,,,,,,,,,,,,,,,
,,5,0.1056,5,0.1056,0,55,55,59,1,8,broom,melon,,90353,002,2022-04-28_21h47.07.109,SPAMnetsValid,2021.1.4,Win32,59.80503558,,,,,,,,,,,,,,,,,,,,,,,,,,,,,,,,,,,,,,,,,,,,,,,,,,,,,,,,,,,,,,,,,,,,,,,,,,,,,,,,,,,,,,,,,
,,5,0.1005,5,0.1005,0,56,56,3,1,49,flower,strawberry,,90353,002,2022-04-28_21h47.07.109,SPAMnetsValid,2021.1.4,Win32,59.80503558,,,,,,,,,,,,,,,,,,,,,,,,,,,,,,,,,,,,,,,,,,,,,,,,,,,,,,,,,,,,,,,,,,,,,,,,,,,,,,,,,,,,,,,,,
,,5,0.091,5,0.091,0,57,57,85,1,90,cactus,cake,,90353,002,2022-04-28_21h47.07.109,SPAMnetsValid,2021.1.4,Win32,59.80503558,,,,,,,,,,,,,,,,,,,,,,,,,,,,,,,,,,,,,,,,,,,,,,,,,,,,,,,,,,,,,,,,,,,,,,,,,,,,,,,,,,,,,,,,,
,,5,0.076,5,0.076,0,58,58,80,1,61,strawberry,tomato,,90353,002,2022-04-28_21h47.07.109,SPAMnetsValid,2021.1.4,Win32,59.80503558,,,,,,,,,,,,,,,,,,,,,,,,,,,,,,,,,,,,,,,,,,,,,,,,,,,,,,,,,,,,,,,,,,,,,,,,,,,,,,,,,,,,,,,,,
,,5,0.083,5,0.083,0,59,59,58,1,94,kitchen,microwave,,90353,002,2022-04-28_21h47.07.109,SPAMnetsValid,2021.1.4,Win32,59.80503558,,,,,,,,,,,,,,,,,,,,,,,,,,,,,,,,,,,,,,,,,,,,,,,,,,,,,,,,,,,,,,,,,,,,,,,,,,,,,,,,,,,,,,,,,
,,5,0.0889,5,0.0889,0,60,60,75,1,69,carrot,refrigerator,,90353,002,2022-04-28_21h47.07.109,SPAMnetsValid,2021.1.4,Win32,59.80503558,,,,,,,,,,,,,,,,,,,,,,,,,,,,,,,,,,,,,,,,,,,,,,,,,,,,,,,,,,,,,,,,,,,,,,,,,,,,,,,,,,,,,,,,,
,,5,0.094,5,0.094,0,61,61,52,1,4,chocolate,pretzel,,90353,002,2022-04-28_21h47.07.109,SPAMnetsValid,2021.1.4,Win32,59.80503558,,,,,,,,,,,,,,,,,,,,,,,,,,,,,,,,,,,,,,,,,,,,,,,,,,,,,,,,,,,,,,,,,,,,,,,,,,,,,,,,,,,,,,,,,
,,5,0.0894,5,0.0894,0,62,62,72,1,59,rose,strawberry,,90353,002,2022-04-28_21h47.07.109,SPAMnetsValid,2021.1.4,Win32,59.80503558,,,,,,,,,,,,,,,,,,,,,,,,,,,,,,,,,,,,,,,,,,,,,,,,,,,,,,,,,,,,,,,,,,,,,,,,,,,,,,,,,,,,,,,,,
,,5,0.0737,5,0.0737,0,63,63,0,1,53,garden,pretzel,,90353,002,2022-04-28_21h47.07.109,SPAMnetsValid,2021.1.4,Win32,59.80503558,,,,,,,,,,,,,,,,,,,,,,,,,,,,,,,,,,,,,,,,,,,,,,,,,,,,,,,,,,,,,,,,,,,,,,,,,,,,,,,,,,,,,,,,,
,,5,0.0639,5,0.0639,0,64,64,69,1,45,onion,pretzel,,90353,002,2022-04-28_21h47.07.109,SPAMnetsValid,2021.1.4,Win32,59.80503558,,,,,,,,,,,,,,,,,,,,,,,,,,,,,,,,,,,,,,,,,,,,,,,,,,,,,,,,,,,,,,,,,,,,,,,,,,,,,,,,,,,,,,,,,
,,5,0.0567,5,0.0567,0,65,65,19,1,76,garden,rose,,90353,002,2022-04-28_21h47.07.109,SPAMnetsValid,2021.1.4,Win32,59.80503558,,,,,,,,,,,,,,,,,,,,,,,,,,,,,,,,,,,,,,,,,,,,,,,,,,,,,,,,,,,,,,,,,,,,,,,,,,,,,,,,,,,,,,,,,
,,5,0.0895,5,0.0895,0,66,66,68,1,24,cookie,tomato,,90353,002,2022-04-28_21h47.07.109,SPAMnetsValid,2021.1.4,Win32,59.80503558,,,,,,,,,,,,,,,,,,,,,,,,,,,,,,,,,,,,,,,,,,,,,,,,,,,,,,,,,,,,,,,,,,,,,,,,,,,,,,,,,,,,,,,,,
,,5,0.0896,5,0.0896,0,67,67,83,1,6,garden,onion,,90353,002,2022-04-28_21h47.07.109,SPAMnetsValid,2021.1.4,Win32,59.80503558,,,,,,,,,,,,,,,,,,,,,,,,,,,,,,,,,,,,,,,,,,,,,,,,,,,,,,,,,,,,,,,,,,,,,,,,,,,,,,,,,,,,,,,,,
,,5,0.0928,5,0.0928,0,68,68,95,1,52,carrot,tomato,,90353,002,2022-04-28_21h47.07.109,SPAMnetsValid,2021.1.4,Win32,59.80503558,,,,,,,,,,,,,,,,,,,,,,,,,,,,,,,,,,,,,,,,,,,,,,,,,,,,,,,,,,,,,,,,,,,,,,,,,,,,,,,,,,,,,,,,,
,,5,0.0561,5,0.0561,0,69,69,32,1,40,broom,cake,,90353,002,2022-04-28_21h47.07.109,SPAMnetsValid,2021.1.4,Win32,59.80503558,,,,,,,,,,,,,,,,,,,,,,,,,,,,,,,,,,,,,,,,,,,,,,,,,,,,,,,,,,,,,,,,,,,,,,,,,,,,,,,,,,,,,,,,,
,,5,0.0582,5,0.0582,0,70,70,86,1,51,onion,strawberry,,90353,002,2022-04-28_21h47.07.109,SPAMnetsValid,2021.1.4,Win32,59.80503558,,,,,,,,,,,,,,,,,,,,,,,,,,,,,,,,,,,,,,,,,,,,,,,,,,,,,,,,,,,,,,,,,,,,,,,,,,,,,,,,,,,,,,,,,
,,5,0.0661,5,0.0661,0,71,71,67,1,54,chocolate,yogurt,,90353,002,2022-04-28_21h47.07.109,SPAMnetsValid,2021.1.4,Win32,59.80503558,,,,,,,,,,,,,,,,,,,,,,,,,,,,,,,,,,,,,,,,,,,,,,,,,,,,,,,,,,,,,,,,,,,,,,,,,,,,,,,,,,,,,,,,,
,,5,0.0568,5,0.0568,0,72,72,11,1,37,garden,refrigerator,,90353,002,2022-04-28_21h47.07.109,SPAMnetsValid,2021.1.4,Win32,59.80503558,,,,,,,,,,,,,,,,,,,,,,,,,,,,,,,,,,,,,,,,,,,,,,,,,,,,,,,,,,,,,,,,,,,,,,,,,,,,,,,,,,,,,,,,,
,,5,0.0506,5,0.0506,0,73,73,13,1,26,tomato,yogurt,,90353,002,2022-04-28_21h47.07.109,SPAMnetsValid,2021.1.4,Win32,59.80503558,,,,,,,,,,,,,,,,,,,,,,,,,,,,,,,,,,,,,,,,,,,,,,,,,,,,,,,,,,,,,,,,,,,,,,,,,,,,,,,,,,,,,,,,,
,,5,0.0726,5,0.0726,0,74,74,82,1,93,kitchen,oven,,90353,002,2022-04-28_21h47.07.109,SPAMnetsValid,2021.1.4,Win32,59.80503558,,,,,,,,,,,,,,,,,,,,,,,,,,,,,,,,,,,,,,,,,,,,,,,,,,,,,,,,,,,,,,,,,,,,,,,,,,,,,,,,,,,,,,,,,
,,5,0.0709,5,0.0709,0,75,75,87,1,79,garden,strawberry,,90353,002,2022-04-28_21h47.07.109,SPAMnetsValid,2021.1.4,Win32,59.80503558,,,,,,,,,,,,,,,,,,,,,,,,,,,,,,,,,,,,,,,,,,,,,,,,,,,,,,,,,,,,,,,,,,,,,,,,,,,,,,,,,,,,,,,,,
,,5,0.0895,5,0.0895,0,76,76,65,1,46,garden,yogurt,,90353,002,2022-04-28_21h47.07.109,SPAMnetsValid,2021.1.4,Win32,59.80503558,,,,,,,,,,,,,,,,,,,,,,,,,,,,,,,,,,,,,,,,,,,,,,,,,,,,,,,,,,,,,,,,,,,,,,,,,,,,,,,,,,,,,,,,,
,,5,0.0894,5,0.0894,0,77,77,45,1,10,flower,onion,,90353,002,2022-04-28_21h47.07.109,SPAMnetsValid,2021.1.4,Win32,59.80503558,,,,,,,,,,,,,,,,,,,,,,,,,,,,,,,,,,,,,,,,,,,,,,,,,,,,,,,,,,,,,,,,,,,,,,,,,,,,,,,,,,,,,,,,,
,,5,0.107,5,0.107,0,78,78,89,1,80,chocolate,tree,,90353,002,2022-04-28_21h47.07.109,SPAMnetsValid,2021.1.4,Win32,59.80503558,,,,,,,,,,,,,,,,,,,,,,,,,,,,,,,,,,,,,,,,,,,,,,,,,,,,,,,,,,,,,,,,,,,,,,,,,,,,,,,,,,,,,,,,,
,,5,0.1049,5,0.1049,0,79,79,34,1,29,chocolate,melon,,90353,002,2022-04-28_21h47.07.109,SPAMnetsValid,2021.1.4,Win32,59.80503558,,,,,,,,,,,,,,,,,,,,,,,,,,,,,,,,,,,,,,,,,,,,,,,,,,,,,,,,,,,,,,,,,,,,,,,,,,,,,,,,,,,,,,,,,
,,5,0.088,5,0.088,0,80,80,76,1,36,broom,kitchen,,90353,002,2022-04-28_21h47.07.109,SPAMnetsValid,2021.1.4,Win32,59.80503558,,,,,,,,,,,,,,,,,,,,,,,,,,,,,,,,,,,,,,,,,,,,,,,,,,,,,,,,,,,,,,,,,,,,,,,,,,,,,,,,,,,,,,,,,
,,5,0.0877,5,0.0877,0,81,81,66,1,20,rose,tree,,90353,002,2022-04-28_21h47.07.109,SPAMnetsValid,2021.1.4,Win32,59.80503558,,,,,,,,,,,,,,,,,,,,,,,,,,,,,,,,,,,,,,,,,,,,,,,,,,,,,,,,,,,,,,,,,,,,,,,,,,,,,,,,,,,,,,,,,
,,5,0.0729,5,0.0729,0,82,82,64,1,9,kitchen,refrigerator,,90353,002,2022-04-28_21h47.07.109,SPAMnetsValid,2021.1.4,Win32,59.80503558,,,,,,,,,,,,,,,,,,,,,,,,,,,,,,,,,,,,,,,,,,,,,,,,,,,,,,,,,,,,,,,,,,,,,,,,,,,,,,,,,,,,,,,,,
,,5,0.0894,5,0.0894,0,83,83,48,1,66,melon,yogurt,,90353,002,2022-04-28_21h47.07.109,SPAMnetsValid,2021.1.4,Win32,59.80503558,,,,,,,,,,,,,,,,,,,,,,,,,,,,,,,,,,,,,,,,,,,,,,,,,,,,,,,,,,,,,,,,,,,,,,,,,,,,,,,,,,,,,,,,,
,,5,0.0726,5,0.0726,0,84,84,4,1,83,broom,carrot,,90353,002,2022-04-28_21h47.07.109,SPAMnetsValid,2021.1.4,Win32,59.80503558,,,,,,,,,,,,,,,,,,,,,,,,,,,,,,,,,,,,,,,,,,,,,,,,,,,,,,,,,,,,,,,,,,,,,,,,,,,,,,,,,,,,,,,,,
,,5,0.0664,5,0.0664,0,85,85,6,1,87,carrot,yogurt,,90353,002,2022-04-28_21h47.07.109,SPAMnetsValid,2021.1.4,Win32,59.80503558,,,,,,,,,,,,,,,,,,,,,,,,,,,,,,,,,,,,,,,,,,,,,,,,,,,,,,,,,,,,,,,,,,,,,,,,,,,,,,,,,,,,,,,,,
,,5,0.0874,5,0.0874,0,86,86,8,1,43,chocolate,tomato,,90353,002,2022-04-28_21h47.07.109,SPAMnetsValid,2021.1.4,Win32,59.80503558,,,,,,,,,,,,,,,,,,,,,,,,,,,,,,,,,,,,,,,,,,,,,,,,,,,,,,,,,,,,,,,,,,,,,,,,,,,,,,,,,,,,,,,,,
,,5,0.056,5,0.056,0,87,87,78,1,30,cookie,pretzel,,90353,002,2022-04-28_21h47.07.109,SPAMnetsValid,2021.1.4,Win32,59.80503558,,,,,,,,,,,,,,,,,,,,,,,,,,,,,,,,,,,,,,,,,,,,,,,,,,,,,,,,,,,,,,,,,,,,,,,,,,,,,,,,,,,,,,,,,
,,5,0.2458,5,0.2458,0,88,88,96,1,82,cake,kitchen,,90353,002,2022-04-28_21h47.07.109,SPAMnetsValid,2021.1.4,Win32,59.80503558,,,,,,,,,,,,,,,,,,,,,,,,,,,,,,,,,,,,,,,,,,,,,,,,,,,,,,,,,,,,,,,,,,,,,,,,,,,,,,,,,,,,,,,,,
,,5,0.4122,5,0.4122,0,89,89,35,1,55,tomato,tree,,90353,002,2022-04-28_21h47.07.109,SPAMnetsValid,2021.1.4,Win32,59.80503558,,,,,,,,,,,,,,,,,,,,,,,,,,,,,,,,,,,,,,,,,,,,,,,,,,,,,,,,,,,,,,,,,,,,,,,,,,,,,,,,,,,,,,,,,
,,5,0.1794,5,0.1794,0,90,90,20,1,39,melon,pretzel,,90353,002,2022-04-28_21h47.07.109,SPAMnetsValid,2021.1.4,Win32,59.80503558,,,,,,,,,,,,,,,,,,,,,,,,,,,,,,,,,,,,,,,,,,,,,,,,,,,,,,,,,,,,,,,,,,,,,,,,,,,,,,,,,,,,,,,,,
,,5,0.0969,5,0.0969,0,91,91,46,1,41,broom,cactus,,90353,002,2022-04-28_21h47.07.109,SPAMnetsValid,2021.1.4,Win32,59.80503558,,,,,,,,,,,,,,,,,,,,,,,,,,,,,,,,,,,,,,,,,,,,,,,,,,,,,,,,,,,,,,,,,,,,,,,,,,,,,,,,,,,,,,,,,
,,5,0.0813,5,0.0813,0,92,92,49,1,57,flower,kitchen,,90353,002,2022-04-28_21h47.07.109,SPAMnetsValid,2021.1.4,Win32,59.80503558,,,,,,,,,,,,,,,,,,,,,,,,,,,,,,,,,,,,,,,,,,,,,,,,,,,,,,,,,,,,,,,,,,,,,,,,,,,,,,,,,,,,,,,,,
,,5,0.0513,5,0.0513,0,93,93,14,1,64,chocolate,garden,,90353,002,2022-04-28_21h47.07.109,SPAMnetsValid,2021.1.4,Win32,59.80503558,,,,,,,,,,,,,,,,,,,,,,,,,,,,,,,,,,,,,,,,,,,,,,,,,,,,,,,,,,,,,,,,,,,,,,,,,,,,,,,,,,,,,,,,,
,,5,0.0662,5,0.0662,0,94,94,24,1,17,carrot,melon,,90353,002,2022-04-28_21h47.07.109,SPAMnetsValid,2021.1.4,Win32,59.80503558,,,,,,,,,,,,,,,,,,,,,,,,,,,,,,,,,,,,,,,,,,,,,,,,,,,,,,,,,,,,,,,,,,,,,,,,,,,,,,,,,,,,,,,,,
,,5,0.0224,5,0.0224,0,95,95,5,1,13,broom,yogurt,,90353,002,2022-04-28_21h47.07.109,SPAMnetsValid,2021.1.4,Win32,59.80503558,,,,,,,,,,,,,,,,,,,,,,,,,,,,,,,,,,,,,,,,,,,,,,,,,,,,,,,,,,,,,,,,,,,,,,,,,,,,,,,,,,,,,,,,,
,,5,0.0229,5,0.0229,0,96,96,9,1,75,cookie,onion,,90353,002,2022-04-28_21h47.07.109,SPAMnetsValid,2021.1.4,Win32,59.80503558,,,,,,,,,,,,,,,,,,,,,,,,,,,,,,,,,,,,,,,,,,,,,,,,,,,,,,,,,,,,,,,,,,,,,,,,,,,,,,,,,,,,,,,,,
,,,,,,,,,,,,,,,90353,002,2022-04-28_21h47.07.109,SPAMnetsValid,2021.1.4,Win32,59.80503558,0,0,0,0,1,,,,,,,,,,,,,,,,,,,,,,,,,,,,,,,,,,,,,,,,,,,,,,,,,,,,,,,,,,,,,,,,,,,,,,,,,,,,,,,,,,,,
,,,,,,,,,,,,,,,90353,002,2022-04-28_21h47.07.109,SPAMnetsValid,2021.1.4,Win32,59.80503558,,,,,,0,0,0,0,1,1,0,,,,,,,,,,,,,,,,,,,,,,,,,,,,,,,,,,,,,,,,,,,,,,,,,,,,,,,,,,,,,,,,,,,,,,,,,,,,,
,,,,5,3.7407,,,,,,106,cake,strawberry,,90353,002,2022-04-28_21h47.07.109,SPAMnetsValid,2021.1.4,Win32,59.80503558,,,,,,,,,,,,,5,3.7407,0,0,0,0,1,,,,,,,,,,,,,,,,,,,,,,,,,,,,,,,,,,,,,,,,,,,,,,,,,,,,,,,,,,,,,,,,,,,,,,
,,,,5,0.0571,,,,,,173,kitchen,tomato,,90353,002,2022-04-28_21h47.07.109,SPAMnetsValid,2021.1.4,Win32,59.80503558,,,,,,,,,,,,,5,0.0571,0,1,1,1,1,,,,,,,,,,,,,,,,,,,,,,,,,,,,,,,,,,,,,,,,,,,,,,,,,,,,,,,,,,,,,,,,,,,,,,
,,,,5,0.0648,,,,,,162,microwave,tomato,,90353,002,2022-04-28_21h47.07.109,SPAMnetsValid,2021.1.4,Win32,59.80503558,,,,,,,,,,,,,5,0.0648,0,2,2,12,1,,,,,,,,,,,,,,,,,,,,,,,,,,,,,,,,,,,,,,,,,,,,,,,,,,,,,,,,,,,,,,,,,,,,,,
,,,,5,0.1308,,,,,,108,carrot,chocolate,,90353,002,2022-04-28_21h47.07.109,SPAMnetsValid,2021.1.4,Win32,59.80503558,,,,,,,,,,,,,5,0.1308,0,3,3,5,1,,,,,,,,,,,,,,,,,,,,,,,,,,,,,,,,,,,,,,,,,,,,,,,,,,,,,,,,,,,,,,,,,,,,,,
,,,,5,0.1072,,,,,,154,strawberry,yogurt,,90353,002,2022-04-28_21h47.07.109,SPAMnetsValid,2021.1.4,Win32,59.80503558,,,,,,,,,,,,,5,0.1072,0,4,4,28,1,,,,,,,,,,,,,,,,,,,,,,,,,,,,,,,,,,,,,,,,,,,,,,,,,,,,,,,,,,,,,,,,,,,,,,
,,,,5,0.1332,,,,,,176,cactus,tomato,,90353,002,2022-04-28_21h47.07.109,SPAMnetsValid,2021.1.4,Win32,59.80503558,,,,,,,,,,,,,5,0.1332,0,5,5,9,1,,,,,,,,,,,,,,,,,,,,,,,,,,,,,,,,,,,,,,,,,,,,,,,,,,,,,,,,,,,,,,,,,,,,,,
,,,,5,0.1417,,,,,,159,cookie,flower,,90353,002,2022-04-28_21h47.07.109,SPAMnetsValid,2021.1.4,Win32,59.80503558,,,,,,,,,,,,,5,0.1417,0,6,6,21,1,,,,,,,,,,,,,,,,,,,,,,,,,,,,,,,,,,,,,,,,,,,,,,,,,,,,,,,,,,,,,,,,,,,,,,
,,,,5,0.1572,,,,,,101,cactus,kitchen,,90353,002,2022-04-28_21h47.07.109,SPAMnetsValid,2021.1.4,Win32,59.80503558,,,,,,,,,,,,,5,0.1572,0,7,7,54,1,,,,,,,,,,,,,,,,,,,,,,,,,,,,,,,,,,,,,,,,,,,,,,,,,,,,,,,,,,,,,,,,,,,,,,
,,,,5,0.0081,,,,,,161,kitchen,pretzel,,90353,002,2022-04-28_21h47.07.109,SPAMnetsValid,2021.1.4,Win32,59.80503558,,,,,,,,,,,,,5,0.0081,0,8,8,36,1,,,,,,,,,,,,,,,,,,,,,,,,,,,,,,,,,,,,,,,,,,,,,,,,,,,,,,,,,,,,,,,,,,,,,,
,,,,5,0.0389,,,,,,112,cake,carrot,,90353,002,2022-04-28_21h47.07.109,SPAMnetsValid,2021.1.4,Win32,59.80503558,,,,,,,,,,,,,5,0.0389,0,9,9,39,1,,,,,,,,,,,,,,,,,,,,,,,,,,,,,,,,,,,,,,,,,,,,,,,,,,,,,,,,,,,,,,,,,,,,,,
,,,,5,0.015,,,,,,168,cactus,flower,,90353,002,2022-04-28_21h47.07.109,SPAMnetsValid,2021.1.4,Win32,59.80503558,,,,,,,,,,,,,5,0.015,0,10,10,51,1,,,,,,,,,,,,,,,,,,,,,,,,,,,,,,,,,,,,,,,,,,,,,,,,,,,,,,,,,,,,,,,,,,,,,,
,,,,5,0.0229,,,,,,97,chocolate,kitchen,,90353,002,2022-04-28_21h47.07.109,SPAMnetsValid,2021.1.4,Win32,59.80503558,,,,,,,,,,,,,5,0.0229,0,11,11,8,1,,,,,,,,,,,,,,,,,,,,,,,,,,,,,,,,,,,,,,,,,,,,,,,,,,,,,,,,,,,,,,,,,,,,,,
,,,,5,0.1737,,,,,,153,carrot,pretzel,,90353,002,2022-04-28_21h47.07.109,SPAMnetsValid,2021.1.4,Win32,59.80503558,,,,,,,,,,,,,5,0.1737,0,12,12,34,1,,,,,,,,,,,,,,,,,,,,,,,,,,,,,,,,,,,,,,,,,,,,,,,,,,,,,,,,,,,,,,,,,,,,,,
,,,,5,0.1584,,,,,,145,cactus,yogurt,,90353,002,2022-04-28_21h47.07.109,SPAMnetsValid,2021.1.4,Win32,59.80503558,,,,,,,,,,,,,5,0.1584,0,13,13,15,1,,,,,,,,,,,,,,,,,,,,,,,,,,,,,,,,,,,,,,,,,,,,,,,,,,,,,,,,,,,,,,,,,,,,,,
,,,,5,0.1071,,,,,,134,carrot,flower,,90353,002,2022-04-28_21h47.07.109,SPAMnetsValid,2021.1.4,Win32,59.80503558,,,,,,,,,,,,,5,0.1071,0,14,14,93,1,,,,,,,,,,,,,,,,,,,,,,,,,,,,,,,,,,,,,,,,,,,,,,,,,,,,,,,,,,,,,,,,,,,,,,
,,,,5,0.0909,,,,,,115,refrigerator,tomato,,90353,002,2022-04-28_21h47.07.109,SPAMnetsValid,2021.1.4,Win32,59.80503558,,,,,,,,,,,,,5,0.0909,0,15,15,85,1,,,,,,,,,,,,,,,,,,,,,,,,,,,,,,,,,,,,,,,,,,,,,,,,,,,,,,,,,,,,,,,,,,,,,,
,,,,5,0.0798,,,,,,188,flower,tree,,90353,002,2022-04-28_21h47.07.109,SPAMnetsValid,2021.1.4,Win32,59.80503558,,,,,,,,,,,,,5,0.0798,0,16,16,7,1,,,,,,,,,,,,,,,,,,,,,,,,,,,,,,,,,,,,,,,,,,,,,,,,,,,,,,,,,,,,,,,,,,,,,,
,,,,5,0.0728,,,,,,123,cookie,tree,,90353,002,2022-04-28_21h47.07.109,SPAMnetsValid,2021.1.4,Win32,59.80503558,,,,,,,,,,,,,5,0.0728,0,17,17,46,1,,,,,,,,,,,,,,,,,,,,,,,,,,,,,,,,,,,,,,,,,,,,,,,,,,,,,,,,,,,,,,,,,,,,,,
,,,,5,0.0659,,,,,,179,broom,oven,,90353,002,2022-04-28_21h47.07.109,SPAMnetsValid,2021.1.4,Win32,59.80503558,,,,,,,,,,,,,5,0.0659,0,18,18,45,1,,,,,,,,,,,,,,,,,,,,,,,,,,,,,,,,,,,,,,,,,,,,,,,,,,,,,,,,,,,,,,,,,,,,,,
,,,,5,0.0666,,,,,,128,melon,microwave,,90353,002,2022-04-28_21h47.07.109,SPAMnetsValid,2021.1.4,Win32,59.80503558,,,,,,,,,,,,,5,0.0666,0,19,19,74,1,,,,,,,,,,,,,,,,,,,,,,,,,,,,,,,,,,,,,,,,,,,,,,,,,,,,,,,,,,,,,,,,,,,,,,
,,,,5,0.0564,,,,,,189,onion,tree,,90353,002,2022-04-28_21h47.07.109,SPAMnetsValid,2021.1.4,Win32,59.80503558,,,,,,,,,,,,,5,0.0564,0,20,20,62,1,,,,,,,,,,,,,,,,,,,,,,,,,,,,,,,,,,,,,,,,,,,,,,,,,,,,,,,,,,,,,,,,,,,,,,
,,,,5,0.04,,,,,,120,microwave,oven,,90353,002,2022-04-28_21h47.07.109,SPAMnetsValid,2021.1.4,Win32,59.80503558,,,,,,,,,,,,,5,0.04,0,21,21,14,1,,,,,,,,,,,,,,,,,,,,,,,,,,,,,,,,,,,,,,,,,,,,,,,,,,,,,,,,,,,,,,,,,,,,,,
,,,,5,0.0437,,,,,,185,cactus,rose,,90353,002,2022-04-28_21h47.07.109,SPAMnetsValid,2021.1.4,Win32,59.80503558,,,,,,,,,,,,,5,0.0437,0,22,22,43,1,,,,,,,,,,,,,,,,,,,,,,,,,,,,,,,,,,,,,,,,,,,,,,,,,,,,,,,,,,,,,,,,,,,,,,
,,,,5,0.2063,,,,,,130,microwave,yogurt,,90353,002,2022-04-28_21h47.07.109,SPAMnetsValid,2021.1.4,Win32,59.80503558,,,,,,,,,,,,,5,0.2063,0,23,23,84,1,,,,,,,,,,,,,,,,,,,,,,,,,,,,,,,,,,,,,,,,,,,,,,,,,,,,,,,,,,,,,,,,,,,,,,
,,,,5,0.19,,,,,,171,cake,tomato,,90353,002,2022-04-28_21h47.07.109,SPAMnetsValid,2021.1.4,Win32,59.80503558,,,,,,,,,,,,,5,0.19,0,24,24,88,1,,,,,,,,,,,,,,,,,,,,,,,,,,,,,,,,,,,,,,,,,,,,,,,,,,,,,,,,,,,,,,,,,,,,,,
,,,,5,0.1606,,,,,,139,carrot,strawberry,,90353,002,2022-04-28_21h47.07.109,SPAMnetsValid,2021.1.4,Win32,59.80503558,,,,,,,,,,,,,5,0.1606,0,25,25,37,1,,,,,,,,,,,,,,,,,,,,,,,,,,,,,,,,,,,,,,,,,,,,,,,,,,,,,,,,,,,,,,,,,,,,,,
,,,,9,1.3111,,,,,,144,cake,garden,,90353,002,2022-04-28_21h47.07.109,SPAMnetsValid,2021.1.4,Win32,59.80503558,,,,,,,,,,,,,9,1.3111,0,26,26,58,1,,,,,,,,,,,,,,,,,,,,,,,,,,,,,,,,,,,,,,,,,,,,,,,,,,,,,,,,,,,,,,,,,,,,,,
,,,,5,1.1569,,,,,,186,kitchen,yogurt,,90353,002,2022-04-28_21h47.07.109,SPAMnetsValid,2021.1.4,Win32,59.80503558,,,,,,,,,,,,,5,1.1569,0,27,27,48,1,,,,,,,,,,,,,,,,,,,,,,,,,,,,,,,,,,,,,,,,,,,,,,,,,,,,,,,,,,,,,,,,,,,,,,
,,,,5,0.0749,,,,,,164,cookie,garden,,90353,002,2022-04-28_21h47.07.109,SPAMnetsValid,2021.1.4,Win32,59.80503558,,,,,,,,,,,,,5,0.0749,0,28,28,59,1,,,,,,,,,,,,,,,,,,,,,,,,,,,,,,,,,,,,,,,,,,,,,,,,,,,,,,,,,,,,,,,,,,,,,,
,,,,5,0.1489,,,,,,169,onion,yogurt,,90353,002,2022-04-28_21h47.07.109,SPAMnetsValid,2021.1.4,Win32,59.80503558,,,,,,,,,,,,,5,0.1489,0,29,29,24,1,,,,,,,,,,,,,,,,,,,,,,,,,,,,,,,,,,,,,,,,,,,,,,,,,,,,,,,,,,,,,,,,,,,,,,
,,,,5,0.3397,,,,,,98,pretzel,strawberry,,90353,002,2022-04-28_21h47.07.109,SPAMnetsValid,2021.1.4,Win32,59.80503558,,,,,,,,,,,,,5,0.3397,0,30,30,82,1,,,,,,,,,,,,,,,,,,,,,,,,,,,,,,,,,,,,,,,,,,,,,,,,,,,,,,,,,,,,,,,,,,,,,,
,,,,5,0.1594,,,,,,127,cactus,chocolate,,90353,002,2022-04-28_21h47.07.109,SPAMnetsValid,2021.1.4,Win32,59.80503558,,,,,,,,,,,,,5,0.1594,0,31,31,57,1,,,,,,,,,,,,,,,,,,,,,,,,,,,,,,,,,,,,,,,,,,,,,,,,,,,,,,,,,,,,,,,,,,,,,,
,,,,5,0.1595,,,,,,148,flower,melon,,90353,002,2022-04-28_21h47.07.109,SPAMnetsValid,2021.1.4,Win32,59.80503558,,,,,,,,,,,,,5,0.1595,0,32,32,23,1,,,,,,,,,,,,,,,,,,,,,,,,,,,,,,,,,,,,,,,,,,,,,,,,,,,,,,,,,,,,,,,,,,,,,,
,,,,5,0.1597,,,,,,129,cactus,refrigerator,,90353,002,2022-04-28_21h47.07.109,SPAMnetsValid,2021.1.4,Win32,59.80503558,,,,,,,,,,,,,5,0.1597,0,33,33,3,1,,,,,,,,,,,,,,,,,,,,,,,,,,,,,,,,,,,,,,,,,,,,,,,,,,,,,,,,,,,,,,,,,,,,,,
,,,,5,0.1601,,,,,,167,carrot,garden,,90353,002,2022-04-28_21h47.07.109,SPAMnetsValid,2021.1.4,Win32,59.80503558,,,,,,,,,,,,,5,0.1601,0,34,34,47,1,,,,,,,,,,,,,,,,,,,,,,,,,,,,,,,,,,,,,,,,,,,,,,,,,,,,,,,,,,,,,,,,,,,,,,
,,,,5,0.1607,,,,,,116,cake,chocolate,,90353,002,2022-04-28_21h47.07.109,SPAMnetsValid,2021.1.4,Win32,59.80503558,,,,,,,,,,,,,5,0.1607,0,35,35,44,1,,,,,,,,,,,,,,,,,,,,,,,,,,,,,,,,,,,,,,,,,,,,,,,,,,,,,,,,,,,,,,,,,,,,,,
,,,,5,0.3401,,,,,,107,rose,tomato,,90353,002,2022-04-28_21h47.07.109,SPAMnetsValid,2021.1.4,Win32,59.80503558,,,,,,,,,,,,,5,0.3401,0,36,36,26,1,,,,,,,,,,,,,,,,,,,,,,,,,,,,,,,,,,,,,,,,,,,,,,,,,,,,,,,,,,,,,,,,,,,,,,
,,,,5,0.3405,,,,,,151,microwave,onion,,90353,002,2022-04-28_21h47.07.109,SPAMnetsValid,2021.1.4,Win32,59.80503558,,,,,,,,,,,,,5,0.3405,0,37,37,6,1,,,,,,,,,,,,,,,,,,,,,,,,,,,,,,,,,,,,,,,,,,,,,,,,,,,,,,,,,,,,,,,,,,,,,,
,,,,5,0.1559,,,,,,109,broom,strawberry,,90353,002,2022-04-28_21h47.07.109,SPAMnetsValid,2021.1.4,Win32,59.80503558,,,,,,,,,,,,,5,0.1559,0,38,38,4,1,,,,,,,,,,,,,,,,,,,,,,,,,,,,,,,,,,,,,,,,,,,,,,,,,,,,,,,,,,,,,,,,,,,,,,
,,,,5,0.1485,,,,,,111,carrot,microwave,,90353,002,2022-04-28_21h47.07.109,SPAMnetsValid,2021.1.4,Win32,59.80503558,,,,,,,,,,,,,5,0.1485,0,39,39,16,1,,,,,,,,,,,,,,,,,,,,,,,,,,,,,,,,,,,,,,,,,,,,,,,,,,,,,,,,,,,,,,,,,,,,,,
,,,,5,0.1163,,,,,,99,garden,melon,,90353,002,2022-04-28_21h47.07.109,SPAMnetsValid,2021.1.4,Win32,59.80503558,,,,,,,,,,,,,5,0.1163,0,40,40,17,1,,,,,,,,,,,,,,,,,,,,,,,,,,,,,,,,,,,,,,,,,,,,,,,,,,,,,,,,,,,,,,,,,,,,,,
,,,,1,1.0739,,,,,,118,chocolate,oven,,90353,002,2022-04-28_21h47.07.109,SPAMnetsValid,2021.1.4,Win32,59.80503558,,,,,,,,,,,,,1,1.0739,0,41,41,10,1,,,,,,,,,,,,,,,,,,,,,,,,,,,,,,,,,,,,,,,,,,,,,,,,,,,,,,,,,,,,,,,,,,,,,,
,,,,5,0.9071,,,,,,180,tree,yogurt,,90353,002,2022-04-28_21h47.07.109,SPAMnetsValid,2021.1.4,Win32,59.80503558,,,,,,,,,,,,,5,0.9071,0,42,42,68,1,,,,,,,,,,,,,,,,,,,,,,,,,,,,,,,,,,,,,,,,,,,,,,,,,,,,,,,,,,,,,,,,,,,,,,
,,,,5,0.1397,,,,,,119,strawberry,tree,,90353,002,2022-04-28_21h47.07.109,SPAMnetsValid,2021.1.4,Win32,59.80503558,,,,,,,,,,,,,5,0.1397,0,43,43,18,1,,,,,,,,,,,,,,,,,,,,,,,,,,,,,,,,,,,,,,,,,,,,,,,,,,,,,,,,,,,,,,,,,,,,,,
,,,,5,0.1396,,,,,,150,microwave,refrigerator,,90353,002,2022-04-28_21h47.07.109,SPAMnetsValid,2021.1.4,Win32,59.80503558,,,,,,,,,,,,,5,0.1396,0,44,44,66,1,,,,,,,,,,,,,,,,,,,,,,,,,,,,,,,,,,,,,,,,,,,,,,,,,,,,,,,,,,,,,,,,,,,,,,
,,,,5,0.1991,,,,,,124,oven,refrigerator,,90353,002,2022-04-28_21h47.07.109,SPAMnetsValid,2021.1.4,Win32,59.80503558,,,,,,,,,,,,,5,0.1991,0,45,45,69,1,,,,,,,,,,,,,,,,,,,,,,,,,,,,,,,,,,,,,,,,,,,,,,,,,,,,,,,,,,,,,,,,,,,,,,
,,,,5,0.2079,,,,,,155,carrot,cookie,,90353,002,2022-04-28_21h47.07.109,SPAMnetsValid,2021.1.4,Win32,59.80503558,,,,,,,,,,,,,5,0.2079,0,46,46,38,1,,,,,,,,,,,,,,,,,,,,,,,,,,,,,,,,,,,,,,,,,,,,,,,,,,,,,,,,,,,,,,,,,,,,,,
,,,,5,0.0382,,,,,,156,melon,rose,,90353,002,2022-04-28_21h47.07.109,SPAMnetsValid,2021.1.4,Win32,59.80503558,,,,,,,,,,,,,5,0.0382,0,47,47,31,1,,,,,,,,,,,,,,,,,,,,,,,,,,,,,,,,,,,,,,,,,,,,,,,,,,,,,,,,,,,,,,,,,,,,,,
,,,,5,0.0316,,,,,,126,kitchen,tree,,90353,002,2022-04-28_21h47.07.109,SPAMnetsValid,2021.1.4,Win32,59.80503558,,,,,,,,,,,,,5,0.0316,0,48,48,50,1,,,,,,,,,,,,,,,,,,,,,,,,,,,,,,,,,,,,,,,,,,,,,,,,,,,,,,,,,,,,,,,,,,,,,,
,,,,5,0.2234,,,,,,178,cactus,carrot,,90353,002,2022-04-28_21h47.07.109,SPAMnetsValid,2021.1.4,Win32,59.80503558,,,,,,,,,,,,,5,0.2234,0,49,49,75,1,,,,,,,,,,,,,,,,,,,,,,,,,,,,,,,,,,,,,,,,,,,,,,,,,,,,,,,,,,,,,,,,,,,,,,
,,,,5,0.0828,,,,,,152,cactus,strawberry,,90353,002,2022-04-28_21h47.07.109,SPAMnetsValid,2021.1.4,Win32,59.80503558,,,,,,,,,,,,,5,0.0828,0,50,50,49,1,,,,,,,,,,,,,,,,,,,,,,,,,,,,,,,,,,,,,,,,,,,,,,,,,,,,,,,,,,,,,,,,,,,,,,
,,,,5,0.0652,,,,,,102,chocolate,refrigerator,,90353,002,2022-04-28_21h47.07.109,SPAMnetsValid,2021.1.4,Win32,59.80503558,,,,,,,,,,,,,5,0.0652,0,51,51,76,1,,,,,,,,,,,,,,,,,,,,,,,,,,,,,,,,,,,,,,,,,,,,,,,,,,,,,,,,,,,,,,,,,,,,,,
,,,,5,0.0482,,,,,,141,melon,tomato,,90353,002,2022-04-28_21h47.07.109,SPAMnetsValid,2021.1.4,Win32,59.80503558,,,,,,,,,,,,,5,0.0482,0,52,52,70,1,,,,,,,,,,,,,,,,,,,,,,,,,,,,,,,,,,,,,,,,,,,,,,,,,,,,,,,,,,,,,,,,,,,,,,
,,,,5,0.0744,,,,,,135,carrot,oven,,90353,002,2022-04-28_21h47.07.109,SPAMnetsValid,2021.1.4,Win32,59.80503558,,,,,,,,,,,,,5,0.0744,0,53,53,73,1,,,,,,,,,,,,,,,,,,,,,,,,,,,,,,,,,,,,,,,,,,,,,,,,,,,,,,,,,,,,,,,,,,,,,,
,,,,5,0.0731,,,,,,143,pretzel,rose,,90353,002,2022-04-28_21h47.07.109,SPAMnetsValid,2021.1.4,Win32,59.80503558,,,,,,,,,,,,,5,0.0731,0,54,54,55,1,,,,,,,,,,,,,,,,,,,,,,,,,,,,,,,,,,,,,,,,,,,,,,,,,,,,,,,,,,,,,,,,,,,,,,
,,,,5,0.0641,,,,,,163,melon,refrigerator,,90353,002,2022-04-28_21h47.07.109,SPAMnetsValid,2021.1.4,Win32,59.80503558,,,,,,,,,,,,,5,0.0641,0,55,55,29,1,,,,,,,,,,,,,,,,,,,,,,,,,,,,,,,,,,,,,,,,,,,,,,,,,,,,,,,,,,,,,,,,,,,,,,
,,,,5,0.0653,,,,,,147,cake,refrigerator,,90353,002,2022-04-28_21h47.07.109,SPAMnetsValid,2021.1.4,Win32,59.80503558,,,,,,,,,,,,,5,0.0653,0,56,56,35,1,,,,,,,,,,,,,,,,,,,,,,,,,,,,,,,,,,,,,,,,,,,,,,,,,,,,,,,,,,,,,,,,,,,,,,
,,,,5,0.2892,,,,,,136,chocolate,microwave,,90353,002,2022-04-28_21h47.07.109,SPAMnetsValid,2021.1.4,Win32,59.80503558,,,,,,,,,,,,,5,0.2892,0,57,57,96,1,,,,,,,,,,,,,,,,,,,,,,,,,,,,,,,,,,,,,,,,,,,,,,,,,,,,,,,,,,,,,,,,,,,,,,
,,,,5,0.1567,,,,,,110,chocolate,cookie,,90353,002,2022-04-28_21h47.07.109,SPAMnetsValid,2021.1.4,Win32,59.80503558,,,,,,,,,,,,,5,0.1567,0,58,58,52,1,,,,,,,,,,,,,,,,,,,,,,,,,,,,,,,,,,,,,,,,,,,,,,,,,,,,,,,,,,,,,,,,,,,,,,
,,,,5,0.0908,,,,,,113,refrigerator,strawberry,,90353,002,2022-04-28_21h47.07.109,SPAMnetsValid,2021.1.4,Win32,59.80503558,,,,,,,,,,,,,5,0.0908,0,59,59,56,1,,,,,,,,,,,,,,,,,,,,,,,,,,,,,,,,,,,,,,,,,,,,,,,,,,,,,,,,,,,,,,,,,,,,,,
,,,,5,0.0634,,,,,,165,onion,rose,,90353,002,2022-04-28_21h47.07.109,SPAMnetsValid,2021.1.4,Win32,59.80503558,,,,,,,,,,,,,5,0.0634,0,60,60,40,1,,,,,,,,,,,,,,,,,,,,,,,,,,,,,,,,,,,,,,,,,,,,,,,,,,,,,,,,,,,,,,,,,,,,,,
,,,,5,0.0726,,,,,,132,broom,tree,,90353,002,2022-04-28_21h47.07.109,SPAMnetsValid,2021.1.4,Win32,59.80503558,,,,,,,,,,,,,5,0.0726,0,61,61,78,1,,,,,,,,,,,,,,,,,,,,,,,,,,,,,,,,,,,,,,,,,,,,,,,,,,,,,,,,,,,,,,,,,,,,,,
,,,,3,0.1101,,,,,,100,garden,tomato,,90353,002,2022-04-28_21h47.07.109,SPAMnetsValid,2021.1.4,Win32,59.80503558,,,,,,,,,,,,,3,0.1101,0,62,62,83,1,,,,,,,,,,,,,,,,,,,,,,,,,,,,,,,,,,,,,,,,,,,,,,,,,,,,,,,,,,,,,,,,,,,,,,
,,,,3,0.0625,,,,,,137,microwave,tree,,90353,002,2022-04-28_21h47.07.109,SPAMnetsValid,2021.1.4,Win32,59.80503558,,,,,,,,,,,,,3,0.0625,0,63,63,63,1,,,,,,,,,,,,,,,,,,,,,,,,,,,,,,,,,,,,,,,,,,,,,,,,,,,,,,,,,,,,,,,,,,,,,,
,,,,6,0.1976,,,,,,138,flower,rose,,90353,002,2022-04-28_21h47.07.109,SPAMnetsValid,2021.1.4,Win32,59.80503558,,,,,,,,,,,,,6,0.1976,0,64,64,61,1,,,,,,,,,,,,,,,,,,,,,,,,,,,,,,,,,,,,,,,,,,,,,,,,,,,,,,,,,,,,,,,,,,,,,,
,,,,7,0.133,,,,,,175,melon,onion,,90353,002,2022-04-28_21h47.07.109,SPAMnetsValid,2021.1.4,Win32,59.80503558,,,,,,,,,,,,,7,0.133,0,65,65,41,1,,,,,,,,,,,,,,,,,,,,,,,,,,,,,,,,,,,,,,,,,,,,,,,,,,,,,,,,,,,,,,,,,,,,,,
,,,,6,0.0901,,,,,,184,oven,pretzel,,90353,002,2022-04-28_21h47.07.109,SPAMnetsValid,2021.1.4,Win32,59.80503558,,,,,,,,,,,,,6,0.0901,0,66,66,42,1,,,,,,,,,,,,,,,,,,,,,,,,,,,,,,,,,,,,,,,,,,,,,,,,,,,,,,,,,,,,,,,,,,,,,,
,,,,4,0.0841,,,,,,157,refrigerator,rose,,90353,002,2022-04-28_21h47.07.109,SPAMnetsValid,2021.1.4,Win32,59.80503558,,,,,,,,,,,,,4,0.0841,0,67,67,64,1,,,,,,,,,,,,,,,,,,,,,,,,,,,,,,,,,,,,,,,,,,,,,,,,,,,,,,,,,,,,,,,,,,,,,,
,,,,3,0.2271,,,,,,174,cake,pretzel,,90353,002,2022-04-28_21h47.07.109,SPAMnetsValid,2021.1.4,Win32,59.80503558,,,,,,,,,,,,,3,0.2271,0,68,68,2,1,,,,,,,,,,,,,,,,,,,,,,,,,,,,,,,,,,,,,,,,,,,,,,,,,,,,,,,,,,,,,,,,,,,,,,
,,,,6,0.1276,,,,,,96,oven,strawberry,,90353,002,2022-04-28_21h47.07.109,SPAMnetsValid,2021.1.4,Win32,59.80503558,,,,,,,,,,,,,6,0.1276,0,69,69,67,1,,,,,,,,,,,,,,,,,,,,,,,,,,,,,,,,,,,,,,,,,,,,,,,,,,,,,,,,,,,,,,,,,,,,,,
,,,,7,0.0802,,,,,,166,cake,yogurt,,90353,002,2022-04-28_21h47.07.109,SPAMnetsValid,2021.1.4,Win32,59.80503558,,,,,,,,,,,,,7,0.0802,0,70,70,91,1,,,,,,,,,,,,,,,,,,,,,,,,,,,,,,,,,,,,,,,,,,,,,,,,,,,,,,,,,,,,,,,,,,,,,,
,,,,8,0.2136,,,,,,190,microwave,strawberry,,90353,002,2022-04-28_21h47.07.109,SPAMnetsValid,2021.1.4,Win32,59.80503558,,,,,,,,,,,,,8,0.2136,0,71,71,90,1,,,,,,,,,,,,,,,,,,,,,,,,,,,,,,,,,,,,,,,,,,,,,,,,,,,,,,,,,,,,,,,,,,,,,,
,,,,8,0.1663,,,,,,122,flower,garden,,90353,002,2022-04-28_21h47.07.109,SPAMnetsValid,2021.1.4,Win32,59.80503558,,,,,,,,,,,,,8,0.1663,0,72,72,60,1,,,,,,,,,,,,,,,,,,,,,,,,,,,,,,,,,,,,,,,,,,,,,,,,,,,,,,,,,,,,,,,,,,,,,,
,,,,6,0.1236,,,,,,187,cactus,microwave,,90353,002,2022-04-28_21h47.07.109,SPAMnetsValid,2021.1.4,Win32,59.80503558,,,,,,,,,,,,,6,0.1236,0,73,73,71,1,,,,,,,,,,,,,,,,,,,,,,,,,,,,,,,,,,,,,,,,,,,,,,,,,,,,,,,,,,,,,,,,,,,,,,
,,,,6,0.0267,,,,,,105,cactus,oven,,90353,002,2022-04-28_21h47.07.109,SPAMnetsValid,2021.1.4,Win32,59.80503558,,,,,,,,,,,,,6,0.0267,0,74,74,13,1,,,,,,,,,,,,,,,,,,,,,,,,,,,,,,,,,,,,,,,,,,,,,,,,,,,,,,,,,,,,,,,,,,,,,,
,,,,3,0.1947,,,,,,125,carrot,tree,,90353,002,2022-04-28_21h47.07.109,SPAMnetsValid,2021.1.4,Win32,59.80503558,,,,,,,,,,,,,3,0.1947,0,75,75,30,1,,,,,,,,,,,,,,,,,,,,,,,,,,,,,,,,,,,,,,,,,,,,,,,,,,,,,,,,,,,,,,,,,,,,,,
,,,,7,0.1606,,,,,,140,cookie,refrigerator,,90353,002,2022-04-28_21h47.07.109,SPAMnetsValid,2021.1.4,Win32,59.80503558,,,,,,,,,,,,,7,0.1606,0,76,76,89,1,,,,,,,,,,,,,,,,,,,,,,,,,,,,,,,,,,,,,,,,,,,,,,,,,,,,,,,,,,,,,,,,,,,,,,
,,,,8,0.1408,,,,,,114,cookie,strawberry,,90353,002,2022-04-28_21h47.07.109,SPAMnetsValid,2021.1.4,Win32,59.80503558,,,,,,,,,,,,,8,0.1408,0,77,77,87,1,,,,,,,,,,,,,,,,,,,,,,,,,,,,,,,,,,,,,,,,,,,,,,,,,,,,,,,,,,,,,,,,,,,,,,
,,,,8,0.1738,,,,,,193,melon,melon,CHECK,90353,002,2022-04-28_21h47.07.109,SPAMnetsValid,2021.1.4,Win32,59.80503558,,,,,,,,,,,,,8,0.1738,0,78,78,86,1,,,,,,,,,,,,,,,,,,,,,,,,,,,,,,,,,,,,,,,,,,,,,,,,,,,,,,,,,,,,,,,,,,,,,,
,,,,5,0.1071,,,,,,117,melon,strawberry,,90353,002,2022-04-28_21h47.07.109,SPAMnetsValid,2021.1.4,Win32,59.80503558,,,,,,,,,,,,,5,0.1071,0,79,79,11,1,,,,,,,,,,,,,,,,,,,,,,,,,,,,,,,,,,,,,,,,,,,,,,,,,,,,,,,,,,,,,,,,,,,,,,
,,,,3,0.2396,,,,,,158,cookie,oven,,90353,002,2022-04-28_21h47.07.109,SPAMnetsValid,2021.1.4,Win32,59.80503558,,,,,,,,,,,,,3,0.2396,0,80,80,27,1,,,,,,,,,,,,,,,,,,,,,,,,,,,,,,,,,,,,,,,,,,,,,,,,,,,,,,,,,,,,,,,,,,,,,,
,,,,3,0.1563,,,,,,160,cookie,kitchen,,90353,002,2022-04-28_21h47.07.109,SPAMnetsValid,2021.1.4,Win32,59.80503558,,,,,,,,,,,,,3,0.1563,0,81,81,65,1,,,,,,,,,,,,,,,,,,,,,,,,,,,,,,,,,,,,,,,,,,,,,,,,,,,,,,,,,,,,,,,,,,,,,,
,,,,4,0.1094,,,,,,181,carrot,kitchen,,90353,002,2022-04-28_21h47.07.109,SPAMnetsValid,2021.1.4,Win32,59.80503558,,,,,,,,,,,,,4,0.1094,0,82,82,72,1,,,,,,,,,,,,,,,,,,,,,,,,,,,,,,,,,,,,,,,,,,,,,,,,,,,,,,,,,,,,,,,,,,,,,,
,,,,6,0.0259,,,,,,131,cactus,garden,,90353,002,2022-04-28_21h47.07.109,SPAMnetsValid,2021.1.4,Win32,59.80503558,,,,,,,,,,,,,6,0.0259,0,83,83,33,1,,,,,,,,,,,,,,,,,,,,,,,,,,,,,,,,,,,,,,,,,,,,,,,,,,,,,,,,,,,,,,,,,,,,,,
,,,,8,0.1404,,,,,,170,cookie,microwave,,90353,002,2022-04-28_21h47.07.109,SPAMnetsValid,2021.1.4,Win32,59.80503558,,,,,,,,,,,,,8,0.1404,0,84,84,92,1,,,,,,,,,,,,,,,,,,,,,,,,,,,,,,,,,,,,,,,,,,,,,,,,,,,,,,,,,,,,,,,,,,,,,,
,,,,9,0.1228,,,,,,104,garden,microwave,,90353,002,2022-04-28_21h47.07.109,SPAMnetsValid,2021.1.4,Win32,59.80503558,,,,,,,,,,,,,9,0.1228,0,85,85,81,1,,,,,,,,,,,,,,,,,,,,,,,,,,,,,,,,,,,,,,,,,,,,,,,,,,,,,,,,,,,,,,,,,,,,,,
,,,,5,0.0553,,,,,,183,cake,rose,,90353,002,2022-04-28_21h47.07.109,SPAMnetsValid,2021.1.4,Win32,59.80503558,,,,,,,,,,,,,5,0.0553,0,86,86,19,1,,,,,,,,,,,,,,,,,,,,,,,,,,,,,,,,,,,,,,,,,,,,,,,,,,,,,,,,,,,,,,,,,,,,,,
,,,,5,0.0387,,,,,,103,pretzel,tomato,,90353,002,2022-04-28_21h47.07.109,SPAMnetsValid,2021.1.4,Win32,59.80503558,,,,,,,,,,,,,5,0.0387,0,87,87,79,1,,,,,,,,,,,,,,,,,,,,,,,,,,,,,,,,,,,,,,,,,,,,,,,,,,,,,,,,,,,,,,,,,,,,,,
,,,,3,0.1901,,,,,,182,flower,refrigerator,,90353,002,2022-04-28_21h47.07.109,SPAMnetsValid,2021.1.4,Win32,59.80503558,,,,,,,,,,,,,3,0.1901,0,88,88,32,1,,,,,,,,,,,,,,,,,,,,,,,,,,,,,,,,,,,,,,,,,,,,,,,,,,,,,,,,,,,,,,,,,,,,,,
,,,,6,0.1482,,,,,,149,broom,tomato,,90353,002,2022-04-28_21h47.07.109,SPAMnetsValid,2021.1.4,Win32,59.80503558,,,,,,,,,,,,,6,0.1482,0,89,89,20,1,,,,,,,,,,,,,,,,,,,,,,,,,,,,,,,,,,,,,,,,,,,,,,,,,,,,,,,,,,,,,,,,,,,,,,
,,,,7,0.2419,,,,,,177,chocolate,strawberry,,90353,002,2022-04-28_21h47.07.109,SPAMnetsValid,2021.1.4,Win32,59.80503558,,,,,,,,,,,,,7,0.2419,0,90,90,53,1,,,,,,,,,,,,,,,,,,,,,,,,,,,,,,,,,,,,,,,,,,,,,,,,,,,,,,,,,,,,,,,,,,,,,,
,,,,7,0.1593,,,,,,142,garden,tree,,90353,002,2022-04-28_21h47.07.109,SPAMnetsValid,2021.1.4,Win32,59.80503558,,,,,,,,,,,,,7,0.1593,0,91,91,22,1,,,,,,,,,,,,,,,,,,,,,,,,,,,,,,,,,,,,,,,,,,,,,,,,,,,,,,,,,,,,,,,,,,,,,,
,,,,5,0.2726,,,,,,146,pretzel,tree,,90353,002,2022-04-28_21h47.07.109,SPAMnetsValid,2021.1.4,Win32,59.80503558,,,,,,,,,,,,,5,0.2726,0,92,92,80,1,,,,,,,,,,,,,,,,,,,,,,,,,,,,,,,,,,,,,,,,,,,,,,,,,,,,,,,,,,,,,,,,,,,,,,
,,,,3,0.1411,,,,,,172,kitchen,melon,,90353,002,2022-04-28_21h47.07.109,SPAMnetsValid,2021.1.4,Win32,59.80503558,,,,,,,,,,,,,3,0.1411,0,93,93,77,1,,,,,,,,,,,,,,,,,,,,,,,,,,,,,,,,,,,,,,,,,,,,,,,,,,,,,,,,,,,,,,,,,,,,,,
,,,,5,0.0778,,,,,,121,broom,microwave,,90353,002,2022-04-28_21h47.07.109,SPAMnetsValid,2021.1.4,Win32,59.80503558,,,,,,,,,,,,,5,0.0778,0,94,94,95,1,,,,,,,,,,,,,,,,,,,,,,,,,,,,,,,,,,,,,,,,,,,,,,,,,,,,,,,,,,,,,,,,,,,,,,
,,,,8,0.1987,,,,,,133,cake,flower,,90353,002,2022-04-28_21h47.07.109,SPAMnetsValid,2021.1.4,Win32,59.80503558,,,,,,,,,,,,,8,0.1987,0,95,95,94,1,,,,,,,,,,,,,,,,,,,,,,,,,,,,,,,,,,,,,,,,,,,,,,,,,,,,,,,,,,,,,,,,,,,,,,
,,,,9,0.1573,,,,,,194,cactus,cactus,CHECK,90353,002,2022-04-28_21h47.07.109,SPAMnetsValid,2021.1.4,Win32,59.80503558,,,,,,,,,,,,,9,0.1573,0,96,96,25,1,,,,,,,,,,,,,,,,,,,,,,,,,,,,,,,,,,,,,,,,,,,,,,,,,,,,,,,,,,,,,,,,,,,,,,
,,,,,,,,,,,,,,,90353,002,2022-04-28_21h47.07.109,SPAMnetsValid,2021.1.4,Win32,59.80503558,,,,,,,,,,,,,,,,,,,,0,0,0,0,1,,,,,,,,,,,,,,,,,,,,,,,,,,,,,,,,,,,,,,,,,,,,,,,,,,,,,,,,,,,,,,,,,
,,,,,,,,,,,,,,,90353,002,2022-04-28_21h47.07.109,SPAMnetsValid,2021.1.4,Win32,59.80503558,,,,,,0,1,1,1,1,0,1,,,,,,,,,,,,,,,,,,,,,,,,,,,,,,,,,,,,,,,,,,,,,,,,,,,,,,,,,,,,,,,,,,,,,,,,,,,,,
,,,,,,,,,,,,,,,90353,002,2022-04-28_21h47.07.109,SPAMnetsValid,2021.1.4,Win32,59.80503558,,,,,,,,,,,,,,,,,,,,,,,,,2,1.461,0,0,0,0,1,rancor,forbearance,ridicule,malice,bravery,3,,,,,,,,,,,,,,,,,,,,,,,,,,,,,,,,,,,,,,,,,,,,,,,,,,,,
,,,,,,,,,,,,,,,90353,002,2022-04-28_21h47.07.109,SPAMnetsValid,2021.1.4,Win32,59.80503558,,,,,,,,,,,,,,,,,,,,,,,,,3,1.5625,0,1,1,1,1,raucous,empty,quiet,smooth,harsh,4,,,,,,,,,,,,,,,,,,,,,,,,,,,,,,,,,,,,,,,,,,,,,,,,,,,,
,,,,,,,,,,,,,,,90353,002,2022-04-28_21h47.07.109,SPAMnetsValid,2021.1.4,Win32,59.80503558,,,,,,,,,,,,,,,,,,,,,,,,,2,0.4633,0,2,2,2,1,gargoyle,oil,medicine,carved waterspout,ugly building,3,,,,,,,,,,,,,,,,,,,,,,,,,,,,,,,,,,,,,,,,,,,,,,,,,,,,
,,,,,,,,,,,,,,,90353,002,2022-04-28_21h47.07.109,SPAMnetsValid,2021.1.4,Win32,59.80503558,,,,,,,,,,,,,,,,,,,,,,,,,3,0.4758,0,3,3,3,1,recrudesce,purify,renew activity,lack refinement,crush,2,,,,,,,,,,,,,,,,,,,,,,,,,,,,,,,,,,,,,,,,,,,,,,,,,,,,
,,,,,,,,,,,,,,,90353,002,2022-04-28_21h47.07.109,SPAMnetsValid,2021.1.4,Win32,59.80503558,,,,,,,,,,,,,,,,,,,,,,,,,3,0.1233,0,4,4,4,1,specious,"plausible, but not genuine",noteworthy,class or variety,roomy,1,,,,,,,,,,,,,,,,,,,,,,,,,,,,,,,,,,,,,,,,,,,,,,,,,,,,
,,,,,,,,,,,,,,,90353,002,2022-04-28_21h47.07.109,SPAMnetsValid,2021.1.4,Win32,59.80503558,,,,,,,,,,,,,,,,,,,,,,,,,,,0,5,5,5,1,bauble,bubble,showy plaything,idle talk,confusion,2,,,,,,,,,,,,,,,,,,,,,,,,,,,,,,,,,,,,,,,,,,,,,,,,,,,,
,,,,,,,,,,,,,,,90353,002,2022-04-28_21h47.07.109,SPAMnetsValid,2021.1.4,Win32,59.80503558,,,,,,,,,,,,,,,,,,,,,,,,,2,0.0239,0,6,6,6,1,prolific,scarce,producing abundantly,reckless,speaking profanely,2,,,,,,,,,,,,,,,,,,,,,,,,,,,,,,,,,,,,,,,,,,,,,,,,,,,,
,,,,,,,,,,,,,,,90353,002,2022-04-28_21h47.07.109,SPAMnetsValid,2021.1.4,Win32,59.80503558,,,,,,,,,,,,,,,,,,,,,,,,,3,0.0801,0,7,7,7,1,opulent,party,wealthy,happy frame of mind,semiprecious stone,2,,,,,,,,,,,,,,,,,,,,,,,,,,,,,,,,,,,,,,,,,,,,,,,,,,,,
,,,,,,,,,,,,,,,90353,002,2022-04-28_21h47.07.109,SPAMnetsValid,2021.1.4,Win32,59.80503558,,,,,,,,,,,,,,,,,,,,,,,,,4,0.0919,0,8,8,8,1,coercion,conspiracy,strategy,restraint,attraction,3,,,,,,,,,,,,,,,,,,,,,,,,,,,,,,,,,,,,,,,,,,,,,,,,,,,,
,,,,,,,,,,,,,,,90353,002,2022-04-28_21h47.07.109,SPAMnetsValid,2021.1.4,Win32,59.80503558,,,,,,,,,,,,,,,,,,,,,,,,,,,0,9,9,9,1,hiatus,animal,calamity,dread,gap,4,,,,,,,,,,,,,,,,,,,,,,,,,,,,,,,,,,,,,,,,,,,,,,,,,,,,
,,,,,,,,,,,,,,,90353,002,2022-04-28_21h47.07.109,SPAMnetsValid,2021.1.4,Win32,59.80503558,,,,,,,,,,,,,,,,,,,,,,,,,4,0.0238,0,10,10,10,1,germane,microbe,contagious,relevant,different,3,,,,,,,,,,,,,,,,,,,,,,,,,,,,,,,,,,,,,,,,,,,,,,,,,,,,
,,,,,,,,,,,,,,,90353,002,2022-04-28_21h47.07.109,SPAMnetsValid,2021.1.4,Win32,59.80503558,,,,,,,,,,,,,,,,,,,,,,,,,2,0.0662,0,11,11,11,1,perfunctory,fundamental,formal,superficial,careful,3,,,,,,,,,,,,,,,,,,,,,,,,,,,,,,,,,,,,,,,,,,,,,,,,,,,,
,,,,,,,,,,,,,,,90353,002,2022-04-28_21h47.07.109,SPAMnetsValid,2021.1.4,Win32,59.80503558,,,,,,,,,,,,,,,,,,,,,,,,,2,0.1581,0,12,12,12,1,diverge,reveal,chant,distract the attention of,differ or turn off from,4,,,,,,,,,,,,,,,,,,,,,,,,,,,,,,,,,,,,,,,,,,,,,,,,,,,,
,,,,,,,,,,,,,,,90353,002,2022-04-28_21h47.07.109,SPAMnetsValid,2021.1.4,Win32,59.80503558,,,,,,,,,,,,,,,,,,,,,,,,,1,0.1795,0,13,13,13,1,evoke,take away,anger,connect,bring out,4,,,,,,,,,,,,,,,,,,,,,,,,,,,,,,,,,,,,,,,,,,,,,,,,,,,,
,,,,,,,,,,,,,,,90353,002,2022-04-28_21h47.07.109,SPAMnetsValid,2021.1.4,Win32,59.80503558,,,,,,,,,,,,,,,,,,,,,,,,,1,0.1468,0,14,14,14,1,pertinent,relevant,lying next to,necessary,bold,1,,,,,,,,,,,,,,,,,,,,,,,,,,,,,,,,,,,,,,,,,,,,,,,,,,,,
,,,,,,,,,,,,,,,90353,002,2022-04-28_21h47.07.109,SPAMnetsValid,2021.1.4,Win32,59.80503558,,,,,,,,,,,,,,,,,,,,,,,,,1,0.1655,0,15,15,15,1,holocaust,entirety,destruction,saintly,price,2,,,,,,,,,,,,,,,,,,,,,,,,,,,,,,,,,,,,,,,,,,,,,,,,,,,,
,,,,,,,,,,,,,,,90353,002,2022-04-28_21h47.07.109,SPAMnetsValid,2021.1.4,Win32,59.80503558,,,,,,,,,,,,,,,,,,,,,,,,,,,0,16,16,16,1,piquant,mellow,fish,pungent,cloth,3,,,,,,,,,,,,,,,,,,,,,,,,,,,,,,,,,,,,,,,,,,,,,,,,,,,,
,,,,,,,,,,,,,,,90353,002,2022-04-28_21h47.07.109,SPAMnetsValid,2021.1.4,Win32,59.80503558,,,,,,,,,,,,,,,,,,,,,,,,,1,0.1415,0,17,17,17,1,firmament,foundation,heavens,strong,glue,2,,,,,,,,,,,,,,,,,,,,,,,,,,,,,,,,,,,,,,,,,,,,,,,,,,,,
,,,,,,,,,,,,,,,90353,002,2022-04-28_21h47.07.109,SPAMnetsValid,2021.1.4,Win32,59.80503558,,,,,,,,,,,,,,,,,,,,,,,,,,,,,,,,,,,,,,1,0.1032,0,0,0,0,1,marketable,partisan,jocular,marriageable,salable,essential,4,,,,,,,,,,,,,,,,,,,,,,,,,,,,,,,,,,,,,,
,,,,,,,,,,,,,,,90353,002,2022-04-28_21h47.07.109,SPAMnetsValid,2021.1.4,Win32,59.80503558,,,,,,,,,,,,,,,,,,,,,,,,,,,,,,,,,,,,,,1,0.2129,0,1,1,1,1,cottontail,squirrel,poplar,boa,marshy plant,rabbit,5,,,,,,,,,,,,,,,,,,,,,,,,,,,,,,,,,,,,,,
,,,,,,,,,,,,,,,90353,002,2022-04-28_21h47.07.109,SPAMnetsValid,2021.1.4,Win32,59.80503558,,,,,,,,,,,,,,,,,,,,,,,,,,,,,,,,,,,,,,2,0.1295,0,2,2,2,1,boggy,afraid,false,marshy,dense,black,3,,,,,,,,,,,,,,,,,,,,,,,,,,,,,,,,,,,,,,
,,,,,,,,,,,,,,,90353,002,2022-04-28_21h47.07.109,SPAMnetsValid,2021.1.4,Win32,59.80503558,,,,,,,,,,,,,,,,,,,,,,,,,,,,,,,,,,,,,,2,0.0927,0,3,3,3,1,gruesomeness,blackness,falseness,vindictiveness,drunkenness,ghastliness,5,,,,,,,,,,,,,,,,,,,,,,,,,,,,,,,,,,,,,,
,,,,,,,,,,,,,,,90353,002,2022-04-28_21h47.07.109,SPAMnetsValid,2021.1.4,Win32,59.80503558,,,,,,,,,,,,,,,,,,,,,,,,,,,,,,,,,,,,,,3,0.2235,0,4,4,4,1,loathing,diffidence,laziness,abhorrence,cleverness,comfort,3,,,,,,,,,,,,,,,,,,,,,,,,,,,,,,,,,,,,,,
,,,,,,,,,,,,,,,90353,002,2022-04-28_21h47.07.109,SPAMnetsValid,2021.1.4,Win32,59.80503558,,,,,,,,,,,,,,,,,,,,,,,,,,,,,,,,,,,,,,3,0.1246,0,5,5,5,1,bantam,fowl,ridicule,cripple,vegetable,ensign,1,,,,,,,,,,,,,,,,,,,,,,,,,,,,,,,,,,,,,,
,,,,,,,,,,,,,,,90353,002,2022-04-28_21h47.07.109,SPAMnetsValid,2021.1.4,Win32,59.80503558,,,,,,,,,,,,,,,,,,,,,,,,,,,,,,,,,,,,,,3,0.1095,0,6,6,6,1,evoke,wake up,surrender,reconnoiter,transcend,call forth,5,,,,,,,,,,,,,,,,,,,,,,,,,,,,,,,,,,,,,,
,,,,,,,,,,,,,,,90353,002,2022-04-28_21h47.07.109,SPAMnetsValid,2021.1.4,Win32,59.80503558,,,,,,,,,,,,,,,,,,,,,,,,,,,,,,,,,,,,,,3,0.0746,0,7,7,7,1,unobtrusive,unintelligent,epileptic,illogical,lineal,modest,5,,,,,,,,,,,,,,,,,,,,,,,,,,,,,,,,,,,,,,
,,,,,,,,,,,,,,,90353,002,2022-04-28_21h47.07.109,SPAMnetsValid,2021.1.4,Win32,59.80503558,,,,,,,,,,,,,,,,,,,,,,,,,,,,,,,,,,,,,,4,0.0474,0,8,8,8,1,terrain,ice cream,final test,tractor,area of ground,weight,4,,,,,,,,,,,,,,,,,,,,,,,,,,,,,,,,,,,,,,
,,,,,,,,,,,,,,,90353,002,2022-04-28_21h47.07.109,SPAMnetsValid,2021.1.4,Win32,59.80503558,,,,,,,,,,,,,,,,,,,,,,,,,,,,,,,,,,,,,,4,0.1915,0,9,9,9,1,capriciousness,stubbornness,courage,whimsicality,amazement,greediness,3,,,,,,,,,,,,,,,,,,,,,,,,,,,,,,,,,,,,,,
,,,,,,,,,,,,,,,90353,002,2022-04-28_21h47.07.109,SPAMnetsValid,2021.1.4,Win32,59.80503558,,,,,,,,,,,,,,,,,,,,,,,,,,,,,,,,,,,,,,,,0,10,10,10,1,maelstrom,slander,whirlpool,enmity,armor,majolica,2,,,,,,,,,,,,,,,,,,,,,,,,,,,,,,,,,,,,,,
,,,,,,,,,,,,,,,90353,002,2022-04-28_21h47.07.109,SPAMnetsValid,2021.1.4,Win32,59.80503558,,,,,,,,,,,,,,,,,,,,,,,,,,,,,,,,,,,,,,4,0.0104,0,11,11,11,1,tentative,critical,conclusive,authentic,provisional,apprehensive,4,,,,,,,,,,,,,,,,,,,,,,,,,,,,,,,,,,,,,,
,,,,,,,,,,,,,,,90353,002,2022-04-28_21h47.07.109,SPAMnetsValid,2021.1.4,Win32,59.80503558,,,,,,,,,,,,,,,,,,,,,,,,,,,,,,,,,,,,,,,,0,12,12,12,1,placate,rehabilitate,plagiarize,depredate,apprise,conciliate,5,,,,,,,,,,,,,,,,,,,,,,,,,,,,,,,,,,,,,,
,,,,,,,,,,,,,,,90353,002,2022-04-28_21h47.07.109,SPAMnetsValid,2021.1.4,Win32,59.80503558,,,,,,,,,,,,,,,,,,,,,,,,,,,,,,,,,,,,,,5,0.2074,0,13,13,13,1,surcease,enlightenment,cessation,inattention,censor,substitution,2,,,,,,,,,,,,,,,,,,,,,,,,,,,,,,,,,,,,,,
,,,,,,,,,,,,,,,90353,002,2022-04-28_21h47.07.109,SPAMnetsValid,2021.1.4,Win32,59.80503558,,,,,,,,,,,,,,,,,,,,,,,,,,,,,,,,,,,,,,5,0.1498,0,14,14,14,1,apathetic,wandering,impassive,hateful,prophetic,overflowing,2,,,,,,,,,,,,,,,,,,,,,,,,,,,,,,,,,,,,,,
,,,,,,,,,,,,,,,90353,002,2022-04-28_21h47.07.109,SPAMnetsValid,2021.1.4,Win32,59.80503558,,,,,,,,,,,,,,,,,,,,,,,,,,,,,,,,,,,,,,5,0.1401,0,15,15,15,1,paternoster,paternalism,patricide,malediction,benediction,prayer,5,,,,,,,,,,,,,,,,,,,,,,,,,,,,,,,,,,,,,,
,,,,,,,,,,,,,,,90353,002,2022-04-28_21h47.07.109,SPAMnetsValid,2021.1.4,Win32,59.80503558,,,,,,,,,,,,,,,,,,,,,,,,,,,,,,,,,,,,,,5,0.0937,0,16,16,16,1,opalescence,opulence,senescence,bankruptcy,iridescence,assiduity,4,,,,,,,,,,,,,,,,,,,,,,,,,,,,,,,,,,,,,,
,,,,,,,,,,,,,,,90353,002,2022-04-28_21h47.07.109,SPAMnetsValid,2021.1.4,Win32,59.80503558,,,,,,,,,,,,,,,,,,,,,,,,,,,,,,,,,,,,,,5,0.0869,0,17,17,17,1,lush,stupid,luxurious,hazy,putrid,languishing,2,,,,,,,,,,,,,,,,,,,,,,,,,,,,,,,,,,,,,,
,,,,,,,,,,,,,,,90353,002,2022-04-28_21h47.07.109,SPAMnetsValid,2021.1.4,Win32,59.80503558,,,,,,,,,,,,,,,,,,,,,,,,,,,,,,,,,,,,,,5,0.0749,0,18,18,18,1,curtailment,expenditure,abandonment,abridgment,improvement,forgery,3,,,,,,,,,,,,,,,,,,,,,,,,,,,,,,,,,,,,,,
,,,,,,,,,,,,,,,90353,002,2022-04-28_21h47.07.109,SPAMnetsValid,2021.1.4,Win32,59.80503558,,,,,,,,,,,,,,,,,,,,,,,,,,,,,,,,,,,,,,5,0.0716,0,19,19,19,1,perversity,adversity,perviousness,travesty,waywardness,gentility,4,,,,,,,,,,,,,,,,,,,,,,,,,,,,,,,,,,,,,,
,,,,,,,,,,,,,,,90353,002,2022-04-28_21h47.07.109,SPAMnetsValid,2021.1.4,Win32,59.80503558,,,,,,,,,,,,,,,,,,,,,,,,,,,,,,,,,,,,,,5,0.4138,0,20,20,20,1,calumnious,complimentary,analogous,slanderous,tempestuous,magnanimous,3,,,,,,,,,,,,,,,,,,,,,,,,,,,,,,,,,,,,,,
,,,,,,,,,,,,,,,90353,002,2022-04-28_21h47.07.109,SPAMnetsValid,2021.1.4,Win32,59.80503558,,,,,,,,,,,,,,,,,,,,,,,,,,,,,,,,,,,,,,5,0.0737,0,21,21,21,1,illiberality,bigotry,imbecility,illegibility,cautery,immaturity,1,,,,,,,,,,,,,,,,,,,,,,,,,,,,,,,,,,,,,,
,,,,,,,,,,,,,,,90353,002,2022-04-28_21h47.07.109,SPAMnetsValid,2021.1.4,Win32,59.80503558,,,,,,,,,,,,,,,,,,,,,,,,,,,,,,,,,,,,,,5,0.0485,0,22,22,22,1,clabber,rejoice,gossip,curdle,crow,hobble,3,,,,,,,,,,,,,,,,,,,,,,,,,,,,,,,,,,,,,,
,,,,,,,,,,,,,,,90353,002,2022-04-28_21h47.07.109,SPAMnetsValid,2021.1.4,Win32,59.80503558,,,,,,,,,,,,,,,,,,,,,,,,,,,,,,,,,,,,,,5,0.0401,0,23,23,23,1,sedulousness,diligence,credulousness,seduction,perilousness,frankness,1,,,,,,,,,,,,,,,,,,,,,,,,,,,,,,,,,,,,,,
,,,,,,,,,,,,,,,90353,002,2022-04-28_21h47.07.109,SPAMnetsValid,2021.1.4,Win32,59.80503558,,,,,,,,,,,,,,,,,,,,,,,,,,,,,,,,,,,,,,,,,,,,,,,,,,,,weapon,candle,0,0,0,0,1,,,,,,,,,,,,,,,,,,,,,,,,,,,,,,,
,,,,,,,,,,,,,,,90353,002,2022-04-28_21h47.07.109,SPAMnetsValid,2021.1.4,Win32,59.80503558,,,,,,,,,,,,,,,,,,,,,,,,,,,,,,,,,,,,,,,,,,,,,,,,,,,,marker,candle,1,0,1,0,1,,,,,,,,,,,,,,,,,,,,,,,,,,,,,,,
,,,,,,,,,,,,,,,90353,002,2022-04-28_21h47.07.109,SPAMnetsValid,2021.1.4,Win32,59.80503558,,,,,,,,,,,,,,,,,,,,,,,,,,,,,,,,,,,,,,,,,,,,,,,,,,,,flare,candle,2,0,2,0,1,,,,,,,,,,,,,,,,,,,,,,,,,,,,,,,
,,,,,,,,,,,,,,,90353,002,2022-04-28_21h47.07.109,SPAMnetsValid,2021.1.4,Win32,59.80503558,,,,,,,,,,,,,,,,,,,,,,,,,,,,,,,,,,,,,,,,,,,,,,,,,,,,ear wax cleaner,candle,3,0,3,0,1,,,,,,,,,,,,,,,,,,,,,,,,,,,,,,,
,,,,,,,,,,,,,,,90353,002,2022-04-28_21h47.07.109,SPAMnetsValid,2021.1.4,Win32,59.80503558,,,,,,,,,,,,,,,,,,,,,,,,,,,,,,,,,,,,,,,,,,,,,,,,,,,,to play in the wax,candle,4,0,4,0,1,,,,,,,,,,,,,,,,,,,,,,,,,,,,,,,
,,,,,,,,,,,,,,,90353,002,2022-04-28_21h47.07.109,SPAMnetsValid,2021.1.4,Win32,59.80503558,,,,,,,,,,,,,,,,,,,,,,,,,,,,,,,,,,,,,,,,,,,,,,,,,,,,to decorate the wall,candle,5,0,5,0,1,,,,,,,,,,,,,,,,,,,,,,,,,,,,,,,
,,,,,,,,,,,,,,,90353,002,2022-04-28_21h47.07.109,SPAMnetsValid,2021.1.4,Win32,59.80503558,,,,,,,,,,,,,,,,,,,,,,,,,,,,,,,,,,,,,,,,,,,,,,,,,,,,to set the mood,candle,6,0,6,0,1,,,,,,,,,,,,,,,,,,,,,,,,,,,,,,,
,,,,,,,,,,,,,,,90353,002,2022-04-28_21h47.07.109,SPAMnetsValid,2021.1.4,Win32,59.80503558,,,,,,,,,,,,,,,,,,,,,,,,,,,,,,,,,,,,,,,,,,,,,,,,,,,,melt several together and you have a makeup palette,candle,7,0,7,0,1,,,,,,,,,,,,,,,,,,,,,,,,,,,,,,,
,,,,,,,,,,,,,,,90353,002,2022-04-28_21h47.07.109,SPAMnetsValid,2021.1.4,Win32,59.80503558,,,,,,,,,,,,,,,,,,,,,,,,,,,,,,,,,,,,,,,,,,,,,,,,,,,,"put the hot wax on your lips, you have a lip tint",candle,8,0,8,0,1,,,,,,,,,,,,,,,,,,,,,,,,,,,,,,,
,,,,,,,,,,,,,,,90353,002,2022-04-28_21h47.07.109,SPAMnetsValid,2021.1.4,Win32,59.80503558,,,,,,,,,,,,,,,,,,,,,,,,,,,,,,,,,,,,,,,,,,,,,,,,,,,,use the wax to clean out your bellybutton,candle,9,0,9,0,1,,,,,,,,,,,,,,,,,,,,,,,,,,,,,,,
,,,,,,,,,,,,,,,90353,002,2022-04-28_21h47.07.109,SPAMnetsValid,2021.1.4,Win32,59.80503558,,,,,,,,,,,,,,,,,,,,,,,,,,,,,,,,,,,,,,,,,,,,,,,,,,,,wax your legs really badly,candle,10,0,10,0,1,,,,,,,,,,,,,,,,,,,,,,,,,,,,,,,
,,,,,,,,,,,,,,,90353,002,2022-04-28_21h47.07.109,SPAMnetsValid,2021.1.4,Win32,59.80503558,,,,,,,,,,,,,,,,,,,,,,,,,,,,,,,,,,,,,,,,,,,,,,,,,,,,smash it over jillians head,candle,11,0,11,0,1,,,,,,,,,,,,,,,,,,,,,,,,,,,,,,,
,,,,,,,,,,,,,,,90353,002,2022-04-28_21h47.07.109,SPAMnetsValid,2021.1.4,Win32,59.80503558,,,,,,,,,,,,,,,,,,,,,,,,,,,,,,,,,,,,,,,,,,,,,,,,,,,,weapon,candle,12,0,12,0,1,,,,,,,,,,,,,,,,,,,,,,,,,,,,,,,
,,,,,,,,,,,,,,,90353,002,2022-04-28_21h47.07.109,SPAMnetsValid,2021.1.4,Win32,59.80503558,,,,,,,,,,,,,,,,,,,,,,,,,,,,,,,,,,,,,,,,,,,,,,,,,,,,,,,,,,,0,0,0,1,1,candle,,,,,,,,,,,,,,,,,,,,,,,,,
,,,,,,,,,,,,,,,90353,002,2022-04-28_21h47.07.109,SPAMnetsValid,2021.1.4,Win32,59.80503558,,,,,,,,,,,,,,,,,,,,,,,,,,,,,,,,,,,,,,,,,,,,,,,,,,,,fort,pillow,0,0,0,0,1,,,,,,,,,,,,,,,,,,,,,,,,,,,,,,,
,,,,,,,,,,,,,,,90353,002,2022-04-28_21h47.07.109,SPAMnetsValid,2021.1.4,Win32,59.80503558,,,,,,,,,,,,,,,,,,,,,,,,,,,,,,,,,,,,,,,,,,,,,,,,,,,,seat cushion,pillow,1,0,1,0,1,,,,,,,,,,,,,,,,,,,,,,,,,,,,,,,
,,,,,,,,,,,,,,,90353,002,2022-04-28_21h47.07.109,SPAMnetsValid,2021.1.4,Win32,59.80503558,,,,,,,,,,,,,,,,,,,,,,,,,,,,,,,,,,,,,,,,,,,,,,,,,,,,hat,pillow,2,0,2,0,1,,,,,,,,,,,,,,,,,,,,,,,,,,,,,,,
,,,,,,,,,,,,,,,90353,002,2022-04-28_21h47.07.109,SPAMnetsValid,2021.1.4,Win32,59.80503558,,,,,,,,,,,,,,,,,,,,,,,,,,,,,,,,,,,,,,,,,,,,,,,,,,,,headphones,pillow,3,0,3,0,1,,,,,,,,,,,,,,,,,,,,,,,,,,,,,,,
,,,,,,,,,,,,,,,90353,002,2022-04-28_21h47.07.109,SPAMnetsValid,2021.1.4,Win32,59.80503558,,,,,,,,,,,,,,,,,,,,,,,,,,,,,,,,,,,,,,,,,,,,,,,,,,,,weapon,pillow,4,0,4,0,1,,,,,,,,,,,,,,,,,,,,,,,,,,,,,,,
,,,,,,,,,,,,,,,90353,002,2022-04-28_21h47.07.109,SPAMnetsValid,2021.1.4,Win32,59.80503558,,,,,,,,,,,,,,,,,,,,,,,,,,,,,,,,,,,,,,,,,,,,,,,,,,,,cut it open,pillow,5,0,5,0,1,,,,,,,,,,,,,,,,,,,,,,,,,,,,,,,
,,,,,,,,,,,,,,,90353,002,2022-04-28_21h47.07.109,SPAMnetsValid,2021.1.4,Win32,59.80503558,,,,,,,,,,,,,,,,,,,,,,,,,,,,,,,,,,,,,,,,,,,,,,,,,,,,cut it open to have a feather party,pillow,6,0,6,0,1,,,,,,,,,,,,,,,,,,,,,,,,,,,,,,,
,,,,,,,,,,,,,,,90353,002,2022-04-28_21h47.07.109,SPAMnetsValid,2021.1.4,Win32,59.80503558,,,,,,,,,,,,,,,,,,,,,,,,,,,,,,,,,,,,,,,,,,,,,,,,,,,,strangle someone,pillow,7,0,7,0,1,,,,,,,,,,,,,,,,,,,,,,,,,,,,,,,
,,,,,,,,,,,,,,,90353,002,2022-04-28_21h47.07.109,SPAMnetsValid,2021.1.4,Win32,59.80503558,,,,,,,,,,,,,,,,,,,,,,,,,,,,,,,,,,,,,,,,,,,,,,,,,,,,suffocate someone,pillow,8,0,8,0,1,,,,,,,,,,,,,,,,,,,,,,,,,,,,,,,
,,,,,,,,,,,,,,,90353,002,2022-04-28_21h47.07.109,SPAMnetsValid,2021.1.4,Win32,59.80503558,,,,,,,,,,,,,,,,,,,,,,,,,,,,,,,,,,,,,,,,,,,,,,,,,,,,weapon,pillow,9,0,9,0,1,,,,,,,,,,,,,,,,,,,,,,,,,,,,,,,
,,,,,,,,,,,,,,,90353,002,2022-04-28_21h47.07.109,SPAMnetsValid,2021.1.4,Win32,59.80503558,,,,,,,,,,,,,,,,,,,,,,,,,,,,,,,,,,,,,,,,,,,,,,,,,,,,throw the feathers on someone who is covered in tar and then throw glitter on them,pillow,10,0,10,0,1,,,,,,,,,,,,,,,,,,,,,,,,,,,,,,,
,,,,,,,,,,,,,,,90353,002,2022-04-28_21h47.07.109,SPAMnetsValid,2021.1.4,Win32,59.80503558,,,,,,,,,,,,,,,,,,,,,,,,,,,,,,,,,,,,,,,,,,,,,,,,,,,,torture techniques,pillow,11,0,11,0,1,,,,,,,,,,,,,,,,,,,,,,,,,,,,,,,
,,,,,,,,,,,,,,,90353,002,2022-04-28_21h47.07.109,SPAMnetsValid,2021.1.4,Win32,59.80503558,,,,,,,,,,,,,,,,,,,,,,,,,,,,,,,,,,,,,,,,,,,,,,,,,,,,stuff a baby chicklet inside for warmth when without mother,pillow,12,0,12,0,1,,,,,,,,,,,,,,,,,,,,,,,,,,,,,,,
,,,,,,,,,,,,,,,90353,002,2022-04-28_21h47.07.109,SPAMnetsValid,2021.1.4,Win32,59.80503558,,,,,,,,,,,,,,,,,,,,,,,,,,,,,,,,,,,,,,,,,,,,,,,,,,,,,,,,,,,0,1,1,2,1,pillow,,,,,,,,,,,,,,,,,,,,,,,,,
,,,,,,,,,,,,,,,90353,002,2022-04-28_21h47.07.109,SPAMnetsValid,2021.1.4,Win32,59.80503558,,,,,,,,,,,,,,,,,,,,,,,,,,,,,,,,,,,,,,,,,,,,,,,,,,,,weapon,bucket,0,0,0,0,1,,,,,,,,,,,,,,,,,,,,,,,,,,,,,,,
,,,,,,,,,,,,,,,90353,002,2022-04-28_21h47.07.109,SPAMnetsValid,2021.1.4,Win32,59.80503558,,,,,,,,,,,,,,,,,,,,,,,,,,,,,,,,,,,,,,,,,,,,,,,,,,,,hat,bucket,1,0,1,0,1,,,,,,,,,,,,,,,,,,,,,,,,,,,,,,,
,,,,,,,,,,,,,,,90353,002,2022-04-28_21h47.07.109,SPAMnetsValid,2021.1.4,Win32,59.80503558,,,,,,,,,,,,,,,,,,,,,,,,,,,,,,,,,,,,,,,,,,,,,,,,,,,,seat,bucket,2,0,2,0,1,,,,,,,,,,,,,,,,,,,,,,,,,,,,,,,
,,,,,,,,,,,,,,,90353,002,2022-04-28_21h47.07.109,SPAMnetsValid,2021.1.4,Win32,59.80503558,,,,,,,,,,,,,,,,,,,,,,,,,,,,,,,,,,,,,,,,,,,,,,,,,,,,sand castle maker,bucket,3,0,3,0,1,,,,,,,,,,,,,,,,,,,,,,,,,,,,,,,
,,,,,,,,,,,,,,,90353,002,2022-04-28_21h47.07.109,SPAMnetsValid,2021.1.4,Win32,59.80503558,,,,,,,,,,,,,,,,,,,,,,,,,,,,,,,,,,,,,,,,,,,,,,,,,,,,garbage can,bucket,4,0,4,0,1,,,,,,,,,,,,,,,,,,,,,,,,,,,,,,,
,,,,,,,,,,,,,,,90353,002,2022-04-28_21h47.07.109,SPAMnetsValid,2021.1.4,Win32,59.80503558,,,,,,,,,,,,,,,,,,,,,,,,,,,,,,,,,,,,,,,,,,,,,,,,,,,,decoration,bucket,5,0,5,0,1,,,,,,,,,,,,,,,,,,,,,,,,,,,,,,,
,,,,,,,,,,,,,,,90353,002,2022-04-28_21h47.07.109,SPAMnetsValid,2021.1.4,Win32,59.80503558,,,,,,,,,,,,,,,,,,,,,,,,,,,,,,,,,,,,,,,,,,,,,,,,,,,,headphones,bucket,6,0,6,0,1,,,,,,,,,,,,,,,,,,,,,,,,,,,,,,,
,,,,,,,,,,,,,,,90353,002,2022-04-28_21h47.07.109,SPAMnetsValid,2021.1.4,Win32,59.80503558,,,,,,,,,,,,,,,,,,,,,,,,,,,,,,,,,,,,,,,,,,,,,,,,,,,,fill with baby chicklets,bucket,7,0,7,0,1,,,,,,,,,,,,,,,,,,,,,,,,,,,,,,,
,,,,,,,,,,,,,,,90353,002,2022-04-28_21h47.07.109,SPAMnetsValid,2021.1.4,Win32,59.80503558,,,,,,,,,,,,,,,,,,,,,,,,,,,,,,,,,,,,,,,,,,,,,,,,,,,,helmet,bucket,8,0,8,0,1,,,,,,,,,,,,,,,,,,,,,,,,,,,,,,,
,,,,,,,,,,,,,,,90353,002,2022-04-28_21h47.07.109,SPAMnetsValid,2021.1.4,Win32,59.80503558,,,,,,,,,,,,,,,,,,,,,,,,,,,,,,,,,,,,,,,,,,,,,,,,,,,,carry rocks ,bucket,9,0,9,0,1,,,,,,,,,,,,,,,,,,,,,,,,,,,,,,,
,,,,,,,,,,,,,,,90353,002,2022-04-28_21h47.07.109,SPAMnetsValid,2021.1.4,Win32,59.80503558,,,,,,,,,,,,,,,,,,,,,,,,,,,,,,,,,,,,,,,,,,,,,,,,,,,,and seashells,bucket,10,0,10,0,1,,,,,,,,,,,,,,,,,,,,,,,,,,,,,,,
,,,,,,,,,,,,,,,90353,002,2022-04-28_21h47.07.109,SPAMnetsValid,2021.1.4,Win32,59.80503558,,,,,,,,,,,,,,,,,,,,,,,,,,,,,,,,,,,,,,,,,,,,,,,,,,,,throw at jillians head,bucket,11,0,11,0,1,,,,,,,,,,,,,,,,,,,,,,,,,,,,,,,
,,,,,,,,,,,,,,,90353,002,2022-04-28_21h47.07.109,SPAMnetsValid,2021.1.4,Win32,59.80503558,,,,,,,,,,,,,,,,,,,,,,,,,,,,,,,,,,,,,,,,,,,,,,,,,,,,pee in it,bucket,12,0,12,0,1,,,,,,,,,,,,,,,,,,,,,,,,,,,,,,,
,,,,,,,,,,,,,,,90353,002,2022-04-28_21h47.07.109,SPAMnetsValid,2021.1.4,Win32,59.80503558,,,,,,,,,,,,,,,,,,,,,,,,,,,,,,,,,,,,,,,,,,,,,,,,,,,,urinal,bucket,13,0,13,0,1,,,,,,,,,,,,,,,,,,,,,,,,,,,,,,,
,,,,,,,,,,,,,,,90353,002,2022-04-28_21h47.07.109,SPAMnetsValid,2021.1.4,Win32,59.80503558,,,,,,,,,,,,,,,,,,,,,,,,,,,,,,,,,,,,,,,,,,,,,,,,,,,,drum,bucket,14,0,14,0,1,,,,,,,,,,,,,,,,,,,,,,,,,,,,,,,
,,,,,,,,,,,,,,,90353,002,2022-04-28_21h47.07.109,SPAMnetsValid,2021.1.4,Win32,59.80503558,,,,,,,,,,,,,,,,,,,,,,,,,,,,,,,,,,,,,,,,,,,,,,,,,,,,give to the homeless person begging  on the street,bucket,15,0,15,0,1,,,,,,,,,,,,,,,,,,,,,,,,,,,,,,,
,,,,,,,,,,,,,,,90353,002,2022-04-28_21h47.07.109,SPAMnetsValid,2021.1.4,Win32,59.80503558,,,,,,,,,,,,,,,,,,,,,,,,,,,,,,,,,,,,,,,,,,,,,,,,,,,,foot pedestal,bucket,16,0,16,0,1,,,,,,,,,,,,,,,,,,,,,,,,,,,,,,,
,,,,,,,,,,,,,,,90353,002,2022-04-28_21h47.07.109,SPAMnetsValid,2021.1.4,Win32,59.80503558,,,,,,,,,,,,,,,,,,,,,,,,,,,,,,,,,,,,,,,,,,,,,,,,,,,,carry your pencils in it,bucket,17,0,17,0,1,,,,,,,,,,,,,,,,,,,,,,,,,,,,,,,
,,,,,,,,,,,,,,,90353,002,2022-04-28_21h47.07.109,SPAMnetsValid,2021.1.4,Win32,59.80503558,,,,,,,,,,,,,,,,,,,,,,,,,,,,,,,,,,,,,,,,,,,,,,,,,,,,back pail,bucket,18,0,18,0,1,,,,,,,,,,,,,,,,,,,,,,,,,,,,,,,
,,,,,,,,,,,,,,,90353,002,2022-04-28_21h47.07.109,SPAMnetsValid,2021.1.4,Win32,59.80503558,,,,,,,,,,,,,,,,,,,,,,,,,,,,,,,,,,,,,,,,,,,,,,,,,,,,hold your baby in it,bucket,19,0,19,0,1,,,,,,,,,,,,,,,,,,,,,,,,,,,,,,,
,,,,,,,,,,,,,,,90353,002,2022-04-28_21h47.07.109,SPAMnetsValid,2021.1.4,Win32,59.80503558,,,,,,,,,,,,,,,,,,,,,,,,,,,,,,,,,,,,,,,,,,,,,,,,,,,,water,bucket,20,0,20,0,1,,,,,,,,,,,,,,,,,,,,,,,,,,,,,,,
,,,,,,,,,,,,,,,90353,002,2022-04-28_21h47.07.109,SPAMnetsValid,2021.1.4,Win32,59.80503558,,,,,,,,,,,,,,,,,,,,,,,,,,,,,,,,,,,,,,,,,,,,,,,,,,,,,,,,,,,0,2,2,0,1,bucket,,,,,,,,,,,,,,,,,,,,,,,,,
,,,,,,,,,,,,,,,90353,002,2022-04-28_21h47.07.109,SPAMnetsValid,2021.1.4,Win32,59.80503558,,,,,,,,,,,,,,,,,,,,,,,,,,,,,,,,,,,,,,,,,,,,,,,,,,,,,,,,,,,,,,,,,penguins,Animals,0,0,0,0,1,,,,,,,,,,,,,,,,,,
,,,,,,,,,,,,,,,90353,002,2022-04-28_21h47.07.109,SPAMnetsValid,2021.1.4,Win32,59.80503558,,,,,,,,,,,,,,,,,,,,,,,,,,,,,,,,,,,,,,,,,,,,,,,,,,,,,,,,,,,,,,,,,giraffe,Animals,1,0,1,0,1,,,,,,,,,,,,,,,,,,
,,,,,,,,,,,,,,,90353,002,2022-04-28_21h47.07.109,SPAMnetsValid,2021.1.4,Win32,59.80503558,,,,,,,,,,,,,,,,,,,,,,,,,,,,,,,,,,,,,,,,,,,,,,,,,,,,,,,,,,,,,,,,,horse,Animals,2,0,2,0,1,,,,,,,,,,,,,,,,,,
,,,,,,,,,,,,,,,90353,002,2022-04-28_21h47.07.109,SPAMnetsValid,2021.1.4,Win32,59.80503558,,,,,,,,,,,,,,,,,,,,,,,,,,,,,,,,,,,,,,,,,,,,,,,,,,,,,,,,,,,,,,,,,polar bear,Animals,3,0,3,0,1,,,,,,,,,,,,,,,,,,
,,,,,,,,,,,,,,,90353,002,2022-04-28_21h47.07.109,SPAMnetsValid,2021.1.4,Win32,59.80503558,,,,,,,,,,,,,,,,,,,,,,,,,,,,,,,,,,,,,,,,,,,,,,,,,,,,,,,,,,,,,,,,,dog,Animals,4,0,4,0,1,,,,,,,,,,,,,,,,,,
,,,,,,,,,,,,,,,90353,002,2022-04-28_21h47.07.109,SPAMnetsValid,2021.1.4,Win32,59.80503558,,,,,,,,,,,,,,,,,,,,,,,,,,,,,,,,,,,,,,,,,,,,,,,,,,,,,,,,,,,,,,,,,cat,Animals,5,0,5,0,1,,,,,,,,,,,,,,,,,,
,,,,,,,,,,,,,,,90353,002,2022-04-28_21h47.07.109,SPAMnetsValid,2021.1.4,Win32,59.80503558,,,,,,,,,,,,,,,,,,,,,,,,,,,,,,,,,,,,,,,,,,,,,,,,,,,,,,,,,,,,,,,,,guinea pig,Animals,6,0,6,0,1,,,,,,,,,,,,,,,,,,
,,,,,,,,,,,,,,,90353,002,2022-04-28_21h47.07.109,SPAMnetsValid,2021.1.4,Win32,59.80503558,,,,,,,,,,,,,,,,,,,,,,,,,,,,,,,,,,,,,,,,,,,,,,,,,,,,,,,,,,,,,,,,,hampster,Animals,7,0,7,0,1,,,,,,,,,,,,,,,,,,
,,,,,,,,,,,,,,,90353,002,2022-04-28_21h47.07.109,SPAMnetsValid,2021.1.4,Win32,59.80503558,,,,,,,,,,,,,,,,,,,,,,,,,,,,,,,,,,,,,,,,,,,,,,,,,,,,,,,,,,,,,,,,,parrot,Animals,8,0,8,0,1,,,,,,,,,,,,,,,,,,
,,,,,,,,,,,,,,,90353,002,2022-04-28_21h47.07.109,SPAMnetsValid,2021.1.4,Win32,59.80503558,,,,,,,,,,,,,,,,,,,,,,,,,,,,,,,,,,,,,,,,,,,,,,,,,,,,,,,,,,,,,,,,,rat,Animals,9,0,9,0,1,,,,,,,,,,,,,,,,,,
,,,,,,,,,,,,,,,90353,002,2022-04-28_21h47.07.109,SPAMnetsValid,2021.1.4,Win32,59.80503558,,,,,,,,,,,,,,,,,,,,,,,,,,,,,,,,,,,,,,,,,,,,,,,,,,,,,,,,,,,,,,,,,mouse,Animals,10,0,10,0,1,,,,,,,,,,,,,,,,,,
,,,,,,,,,,,,,,,90353,002,2022-04-28_21h47.07.109,SPAMnetsValid,2021.1.4,Win32,59.80503558,,,,,,,,,,,,,,,,,,,,,,,,,,,,,,,,,,,,,,,,,,,,,,,,,,,,,,,,,,,,,,,,,ferret,Animals,11,0,11,0,1,,,,,,,,,,,,,,,,,,
,,,,,,,,,,,,,,,90353,002,2022-04-28_21h47.07.109,SPAMnetsValid,2021.1.4,Win32,59.80503558,,,,,,,,,,,,,,,,,,,,,,,,,,,,,,,,,,,,,,,,,,,,,,,,,,,,,,,,,,,,,,,,,otter,Animals,12,0,12,0,1,,,,,,,,,,,,,,,,,,
,,,,,,,,,,,,,,,90353,002,2022-04-28_21h47.07.109,SPAMnetsValid,2021.1.4,Win32,59.80503558,,,,,,,,,,,,,,,,,,,,,,,,,,,,,,,,,,,,,,,,,,,,,,,,,,,,,,,,,,,,,,,,,seal,Animals,13,0,13,0,1,,,,,,,,,,,,,,,,,,
,,,,,,,,,,,,,,,90353,002,2022-04-28_21h47.07.109,SPAMnetsValid,2021.1.4,Win32,59.80503558,,,,,,,,,,,,,,,,,,,,,,,,,,,,,,,,,,,,,,,,,,,,,,,,,,,,,,,,,,,,,,,,,lion,Animals,14,0,14,0,1,,,,,,,,,,,,,,,,,,
,,,,,,,,,,,,,,,90353,002,2022-04-28_21h47.07.109,SPAMnetsValid,2021.1.4,Win32,59.80503558,,,,,,,,,,,,,,,,,,,,,,,,,,,,,,,,,,,,,,,,,,,,,,,,,,,,,,,,,,,,,,,,,shark,Animals,15,0,15,0,1,,,,,,,,,,,,,,,,,,
,,,,,,,,,,,,,,,90353,002,2022-04-28_21h47.07.109,SPAMnetsValid,2021.1.4,Win32,59.80503558,,,,,,,,,,,,,,,,,,,,,,,,,,,,,,,,,,,,,,,,,,,,,,,,,,,,,,,,,,,,,,,,,pufferfish,Animals,16,0,16,0,1,,,,,,,,,,,,,,,,,,
,,,,,,,,,,,,,,,90353,002,2022-04-28_21h47.07.109,SPAMnetsValid,2021.1.4,Win32,59.80503558,,,,,,,,,,,,,,,,,,,,,,,,,,,,,,,,,,,,,,,,,,,,,,,,,,,,,,,,,,,,,,,,,dolphin,Animals,17,0,17,0,1,,,,,,,,,,,,,,,,,,
,,,,,,,,,,,,,,,90353,002,2022-04-28_21h47.07.109,SPAMnetsValid,2021.1.4,Win32,59.80503558,,,,,,,,,,,,,,,,,,,,,,,,,,,,,,,,,,,,,,,,,,,,,,,,,,,,,,,,,,,,,,,,,goldfish,Animals,18,0,18,0,1,,,,,,,,,,,,,,,,,,
,,,,,,,,,,,,,,,90353,002,2022-04-28_21h47.07.109,SPAMnetsValid,2021.1.4,Win32,59.80503558,,,,,,,,,,,,,,,,,,,,,,,,,,,,,,,,,,,,,,,,,,,,,,,,,,,,,,,,,,,,,,,,,starfish,Animals,19,0,19,0,1,,,,,,,,,,,,,,,,,,
,,,,,,,,,,,,,,,90353,002,2022-04-28_21h47.07.109,SPAMnetsValid,2021.1.4,Win32,59.80503558,,,,,,,,,,,,,,,,,,,,,,,,,,,,,,,,,,,,,,,,,,,,,,,,,,,,,,,,,,,,,,,,,chameleon,Animals,20,0,20,0,1,,,,,,,,,,,,,,,,,,
,,,,,,,,,,,,,,,90353,002,2022-04-28_21h47.07.109,SPAMnetsValid,2021.1.4,Win32,59.80503558,,,,,,,,,,,,,,,,,,,,,,,,,,,,,,,,,,,,,,,,,,,,,,,,,,,,,,,,,,,,,,,,,lizard,Animals,21,0,21,0,1,,,,,,,,,,,,,,,,,,
,,,,,,,,,,,,,,,90353,002,2022-04-28_21h47.07.109,SPAMnetsValid,2021.1.4,Win32,59.80503558,,,,,,,,,,,,,,,,,,,,,,,,,,,,,,,,,,,,,,,,,,,,,,,,,,,,,,,,,,,,,,,,,snake,Animals,22,0,22,0,1,,,,,,,,,,,,,,,,,,
,,,,,,,,,,,,,,,90353,002,2022-04-28_21h47.07.109,SPAMnetsValid,2021.1.4,Win32,59.80503558,,,,,,,,,,,,,,,,,,,,,,,,,,,,,,,,,,,,,,,,,,,,,,,,,,,,,,,,,,,,,,,,,eagle,Animals,23,0,23,0,1,,,,,,,,,,,,,,,,,,
,,,,,,,,,,,,,,,90353,002,2022-04-28_21h47.07.109,SPAMnetsValid,2021.1.4,Win32,59.80503558,,,,,,,,,,,,,,,,,,,,,,,,,,,,,,,,,,,,,,,,,,,,,,,,,,,,,,,,,,,,,,,,,bunny,Animals,24,0,24,0,1,,,,,,,,,,,,,,,,,,
,,,,,,,,,,,,,,,90353,002,2022-04-28_21h47.07.109,SPAMnetsValid,2021.1.4,Win32,59.80503558,,,,,,,,,,,,,,,,,,,,,,,,,,,,,,,,,,,,,,,,,,,,,,,,,,,,,,,,,,,,,,,,,rabbit,Animals,25,0,25,0,1,,,,,,,,,,,,,,,,,,
,,,,,,,,,,,,,,,90353,002,2022-04-28_21h47.07.109,SPAMnetsValid,2021.1.4,Win32,59.80503558,,,,,,,,,,,,,,,,,,,,,,,,,,,,,,,,,,,,,,,,,,,,,,,,,,,,,,,,,,,,,,,,,sea horse,Animals,26,0,26,0,1,,,,,,,,,,,,,,,,,,
,,,,,,,,,,,,,,,90353,002,2022-04-28_21h47.07.109,SPAMnetsValid,2021.1.4,Win32,59.80503558,,,,,,,,,,,,,,,,,,,,,,,,,,,,,,,,,,,,,,,,,,,,,,,,,,,,,,,,,,,,,,,,,monkey,Animals,27,0,27,0,1,,,,,,,,,,,,,,,,,,
,,,,,,,,,,,,,,,90353,002,2022-04-28_21h47.07.109,SPAMnetsValid,2021.1.4,Win32,59.80503558,,,,,,,,,,,,,,,,,,,,,,,,,,,,,,,,,,,,,,,,,,,,,,,,,,,,,,,,,,,,,,,,,zebra,Animals,28,0,28,0,1,,,,,,,,,,,,,,,,,,
,,,,,,,,,,,,,,,90353,002,2022-04-28_21h47.07.109,SPAMnetsValid,2021.1.4,Win32,59.80503558,,,,,,,,,,,,,,,,,,,,,,,,,,,,,,,,,,,,,,,,,,,,,,,,,,,,,,,,,,,,,,,,,panther,Animals,29,0,29,0,1,,,,,,,,,,,,,,,,,,
,,,,,,,,,,,,,,,90353,002,2022-04-28_21h47.07.109,SPAMnetsValid,2021.1.4,Win32,59.80503558,,,,,,,,,,,,,,,,,,,,,,,,,,,,,,,,,,,,,,,,,,,,,,,,,,,,,,,,,,,,,,,,,panda,Animals,30,0,30,0,1,,,,,,,,,,,,,,,,,,
,,,,,,,,,,,,,,,90353,002,2022-04-28_21h47.07.109,SPAMnetsValid,2021.1.4,Win32,59.80503558,,,,,,,,,,,,,,,,,,,,,,,,,,,,,,,,,,,,,,,,,,,,,,,,,,,,,,,,,,,,,,,,,buffalo,Animals,31,0,31,0,1,,,,,,,,,,,,,,,,,,
,,,,,,,,,,,,,,,90353,002,2022-04-28_21h47.07.109,SPAMnetsValid,2021.1.4,Win32,59.80503558,,,,,,,,,,,,,,,,,,,,,,,,,,,,,,,,,,,,,,,,,,,,,,,,,,,,,,,,,,,,,,,,,chinchilla,Animals,32,0,32,0,1,,,,,,,,,,,,,,,,,,
,,,,,,,,,,,,,,,90353,002,2022-04-28_21h47.07.109,SPAMnetsValid,2021.1.4,Win32,59.80503558,,,,,,,,,,,,,,,,,,,,,,,,,,,,,,,,,,,,,,,,,,,,,,,,,,,,,,,,,,,,,,,,,bull,Animals,33,0,33,0,1,,,,,,,,,,,,,,,,,,
,,,,,,,,,,,,,,,90353,002,2022-04-28_21h47.07.109,SPAMnetsValid,2021.1.4,Win32,59.80503558,,,,,,,,,,,,,,,,,,,,,,,,,,,,,,,,,,,,,,,,,,,,,,,,,,,,,,,,,,,,,,,,,cow,Animals,34,0,34,0,1,,,,,,,,,,,,,,,,,,
,,,,,,,,,,,,,,,90353,002,2022-04-28_21h47.07.109,SPAMnetsValid,2021.1.4,Win32,59.80503558,,,,,,,,,,,,,,,,,,,,,,,,,,,,,,,,,,,,,,,,,,,,,,,,,,,,,,,,,,,,,,,,,,,,,,,,0,0,0,0,1,Animals,,,,,,,,,,,,
,,,,,,,,,,,,,,,90353,002,2022-04-28_21h47.07.109,SPAMnetsValid,2021.1.4,Win32,59.80503558,,,,,,,,,,,,,,,,,,,,,,,,,,,,,,,,,,,,,,,,,,,,,,,,,,,,,,,,,,,,,,,,,,,,,,,,,,,,,,3,3.6823,0,0,0,0,1,"I enjoy concentrating on a fantasy or daydream and exploring all its possibilities, letting it grow and develop.",0,1,,
,,,,,,,,,,,,,,,90353,002,2022-04-28_21h47.07.109,SPAMnetsValid,2021.1.4,Win32,59.80503558,,,,,,,,,,,,,,,,,,,,,,,,,,,,,,,,,,,,,,,,,,,,,,,,,,,,,,,,,,,,,,,,,,,,,,,,,,,,,,3,0.2492,0,1,1,1,1,I think it's interesting to learn and develop new hobbies.,0,2,,
,,,,,,,,,,,,,,,90353,002,2022-04-28_21h47.07.109,SPAMnetsValid,2021.1.4,Win32,59.80503558,,,,,,,,,,,,,,,,,,,,,,,,,,,,,,,,,,,,,,,,,,,,,,,,,,,,,,,,,,,,,,,,,,,,,,,,,,,,,,3,0.4184,0,2,2,2,1,I am intrigued by the patterns I find in art and nature.,0,3,,
,,,,,,,,,,,,,,,90353,002,2022-04-28_21h47.07.109,SPAMnetsValid,2021.1.4,Win32,59.80503558,,,,,,,,,,,,,,,,,,,,,,,,,,,,,,,,,,,,,,,,,,,,,,,,,,,,,,,,,,,,,,,,,,,,,,,,,,,,,,3,0.0501,0,3,3,3,1,I believe letting students hear controversial speakers can only confuse and mislead them.,1,4,,
,,,,,,,,,,,,,,,90353,002,2022-04-28_21h47.07.109,SPAMnetsValid,2021.1.4,Win32,59.80503558,,,,,,,,,,,,,,,,,,,,,,,,,,,,,,,,,,,,,,,,,,,,,,,,,,,,,,,,,,,,,,,,,,,,,,,,,,,,,,3,0.0897,0,4,4,4,1,Poetry has little or no effect on me.,1,5,,
,,,,,,,,,,,,,,,90353,002,2022-04-28_21h47.07.109,SPAMnetsValid,2021.1.4,Win32,59.80503558,,,,,,,,,,,,,,,,,,,,,,,,,,,,,,,,,,,,,,,,,,,,,,,,,,,,,,,,,,,,,,,,,,,,,,,,,,,,,,3,0.1037,0,5,5,5,1,I would have difficulty just letting my mind wander without control or guidance.,1,6,,
,,,,,,,,,,,,,,,90353,002,2022-04-28_21h47.07.109,SPAMnetsValid,2021.1.4,Win32,59.80503558,,,,,,,,,,,,,,,,,,,,,,,,,,,,,,,,,,,,,,,,,,,,,,,,,,,,,,,,,,,,,,,,,,,,,,,,,,,,,,3,0.0995,0,6,6,6,1,I seldom notice the moods or feelings that different environments produce.,1,7,,
,,,,,,,,,,,,,,,90353,002,2022-04-28_21h47.07.109,SPAMnetsValid,2021.1.4,Win32,59.80503558,,,,,,,,,,,,,,,,,,,,,,,,,,,,,,,,,,,,,,,,,,,,,,,,,,,,,,,,,,,,,,,,,,,,,,,,,,,,,,3,0.0845,0,7,7,7,1,I experience a wide range of emotions or feelings.,0,8,,
,,,,,,,,,,,,,,,90353,002,2022-04-28_21h47.07.109,SPAMnetsValid,2021.1.4,Win32,59.80503558,,,,,,,,,,,,,,,,,,,,,,,,,,,,,,,,,,,,,,,,,,,,,,,,,,,,,,,,,,,,,,,,,,,,,,,,,,,,,,3,0.074,0,8,8,8,1,"Sometimes when I am reading poetry or looking at a work of art, I feel a chill or wave of excitement.",0,9,,
,,,,,,,,,,,,,,,90353,002,2022-04-28_21h47.07.109,SPAMnetsValid,2021.1.4,Win32,59.80503558,,,,,,,,,,,,,,,,,,,,,,,,,,,,,,,,,,,,,,,,,,,,,,,,,,,,,,,,,,,,,,,,,,,,,,,,,,,,,,3,0.0757,0,9,9,9,1,I have little interest in speculating on the nature of the universe or the human condition.,1,10,,
,,,,,,,,,,,,,,,90353,002,2022-04-28_21h47.07.109,SPAMnetsValid,2021.1.4,Win32,59.80503558,,,,,,,,,,,,,,,,,,,,,,,,,,,,,,,,,,,,,,,,,,,,,,,,,,,,,,,,,,,,,,,,,,,,,,,,,,,,,,3,0.2154,0,10,10,10,1,I have a lot of intellectual curiosity.,0,11,,
,,,,,,,,,,,,,,,90353,002,2022-04-28_21h47.07.109,SPAMnetsValid,2021.1.4,Win32,59.80503558,,,,,,,,,,,,,,,,,,,,,,,,,,,,,,,,,,,,,,,,,,,,,,,,,,,,,,,,,,,,,,,,,,,,,,,,,,,,,,3,0.0565,0,11,11,11,1,I often enjoy playing with theories or abstract ideas.,0,12,,
,,,,,,,,,,,,,,,90353,002,2022-04-28_21h47.07.109,SPAMnetsValid,2021.1.4,Win32,59.80503558,,,,,,,,,,,,,,,,,,,,,,,,,,,,,,,,,,,,,,,,,,,,,,,,,,,,,,,,,,,,,,,,,,,,,,,,,,,,,,,,,,,,,,,,return,3.1036
