key_resp_3.keys,key_resp_3.rt,slider_2.response,slider_2.rt,rjt_rating,rjt_RT,trials_24.thisRepN,trials_24.thisTrialN,trials_24.thisN,trials_24.thisIndex,trials_24.ran,rjt_order,word1,word2,attention,participant,session,date,expName,psychopyVersion,OS,frameRate,trials_4.thisRepN,trials_4.thisTrialN,trials_4.thisN,trials_4.thisIndex,trials_4.ran,trials_5.thisRepN,trials_5.thisTrialN,trials_5.thisN,trials_5.thisIndex,trials_5.ran,repOne,repTwo,slider.response,slider.rt,trials_22.thisRepN,trials_22.thisTrialN,trials_22.thisN,trials_22.thisIndex,trials_22.ran,trials_99.thisRepN,trials_99.thisTrialN,trials_99.thisN,trials_99.thisIndex,trials_99.ran,slider_extend_2.response,slider_extend_2.rt,trials_6.thisRepN,trials_6.thisTrialN,trials_6.thisN,trials_6.thisIndex,trials_6.ran,vCue2,R1,R2,R3,R4,correct,sliderVocab.response,sliderVocab.rt,trials_7.thisRepN,trials_7.thisTrialN,trials_7.thisN,trials_7.thisIndex,trials_7.ran,VocabCue,VR1,VR2,VR3,VR4,VR5,VocabCorrect,AUT_resp,AUT_label,trials.thisRepN,trials.thisTrialN,trials.thisN,trials.thisIndex,trials.ran,trials_2.thisRepN,trials_2.thisTrialN,trials_2.thisN,trials_2.thisIndex,trials_2.ran,aut_prompt,VF_response,VF_tag,trials_16.thisRepN,trials_16.thisTrialN,trials_16.thisN,trials_16.thisIndex,trials_16.ran,trials_17.thisRepN,trials_17.thisTrialN,trials_17.thisN,trials_17.thisIndex,trials_17.ran,VFcond,open_slider.response,open_slider.rt,trials_3.thisRepN,trials_3.thisTrialN,trials_3.thisN,trials_3.thisIndex,trials_3.ran,OpenQ,Rev,OPEN_ORDER,key_resp_2.keys,key_resp_2.rt
return,0.6386,5,4.8383,5,4.8383,0,0,0,51,1,168,cactus,flower,,90369,001,2022-04-28_23h30.11.987,SPAMnetsValid,2021.1.4,MacIntel,60.0024001,,,,,,,,,,,,,,,,,,,,,,,,,,,,,,,,,,,,,,,,,,,,,,,,,,,,,,,,,,,,,,,,,,,,,,,,,,,,,,,,,,,,,,,,,
,,5,1.4628,5,1.4628,0,1,1,79,1,103,pretzel,tomato,,90369,001,2022-04-28_23h30.11.987,SPAMnetsValid,2021.1.4,MacIntel,60.0024001,,,,,,,,,,,,,,,,,,,,,,,,,,,,,,,,,,,,,,,,,,,,,,,,,,,,,,,,,,,,,,,,,,,,,,,,,,,,,,,,,,,,,,,,,
,,5,1.013,5,1.013,0,2,2,0,1,106,cake,strawberry,,90369,001,2022-04-28_23h30.11.987,SPAMnetsValid,2021.1.4,MacIntel,60.0024001,,,,,,,,,,,,,,,,,,,,,,,,,,,,,,,,,,,,,,,,,,,,,,,,,,,,,,,,,,,,,,,,,,,,,,,,,,,,,,,,,,,,,,,,,
,,5,1.3627,5,1.3627,0,3,3,34,1,153,carrot,pretzel,,90369,001,2022-04-28_23h30.11.987,SPAMnetsValid,2021.1.4,MacIntel,60.0024001,,,,,,,,,,,,,,,,,,,,,,,,,,,,,,,,,,,,,,,,,,,,,,,,,,,,,,,,,,,,,,,,,,,,,,,,,,,,,,,,,,,,,,,,,
,,5,0.5144,5,0.5144,0,4,4,33,1,131,cactus,garden,,90369,001,2022-04-28_23h30.11.987,SPAMnetsValid,2021.1.4,MacIntel,60.0024001,,,,,,,,,,,,,,,,,,,,,,,,,,,,,,,,,,,,,,,,,,,,,,,,,,,,,,,,,,,,,,,,,,,,,,,,,,,,,,,,,,,,,,,,,
,,5,0.331,5,0.331,0,5,5,90,1,190,microwave,strawberry,,90369,001,2022-04-28_23h30.11.987,SPAMnetsValid,2021.1.4,MacIntel,60.0024001,,,,,,,,,,,,,,,,,,,,,,,,,,,,,,,,,,,,,,,,,,,,,,,,,,,,,,,,,,,,,,,,,,,,,,,,,,,,,,,,,,,,,,,,,
,,5,0.2633,5,0.2633,0,6,6,30,1,125,carrot,tree,,90369,001,2022-04-28_23h30.11.987,SPAMnetsValid,2021.1.4,MacIntel,60.0024001,,,,,,,,,,,,,,,,,,,,,,,,,,,,,,,,,,,,,,,,,,,,,,,,,,,,,,,,,,,,,,,,,,,,,,,,,,,,,,,,,,,,,,,,,
,,5,0.5126,5,0.5126,0,7,7,16,1,111,carrot,microwave,,90369,001,2022-04-28_23h30.11.987,SPAMnetsValid,2021.1.4,MacIntel,60.0024001,,,,,,,,,,,,,,,,,,,,,,,,,,,,,,,,,,,,,,,,,,,,,,,,,,,,,,,,,,,,,,,,,,,,,,,,,,,,,,,,,,,,,,,,,
,,5,0.3474,5,0.3474,0,8,8,48,1,186,kitchen,yogurt,,90369,001,2022-04-28_23h30.11.987,SPAMnetsValid,2021.1.4,MacIntel,60.0024001,,,,,,,,,,,,,,,,,,,,,,,,,,,,,,,,,,,,,,,,,,,,,,,,,,,,,,,,,,,,,,,,,,,,,,,,,,,,,,,,,,,,,,,,,
,,5,0.7964,5,0.7964,0,9,9,28,1,154,strawberry,yogurt,,90369,001,2022-04-28_23h30.11.987,SPAMnetsValid,2021.1.4,MacIntel,60.0024001,,,,,,,,,,,,,,,,,,,,,,,,,,,,,,,,,,,,,,,,,,,,,,,,,,,,,,,,,,,,,,,,,,,,,,,,,,,,,,,,,,,,,,,,,
,,5,0.247,5,0.247,0,10,10,96,1,136,chocolate,microwave,,90369,001,2022-04-28_23h30.11.987,SPAMnetsValid,2021.1.4,MacIntel,60.0024001,,,,,,,,,,,,,,,,,,,,,,,,,,,,,,,,,,,,,,,,,,,,,,,,,,,,,,,,,,,,,,,,,,,,,,,,,,,,,,,,,,,,,,,,,
,,5,0.2291,5,0.2291,0,11,11,5,1,108,carrot,chocolate,,90369,001,2022-04-28_23h30.11.987,SPAMnetsValid,2021.1.4,MacIntel,60.0024001,,,,,,,,,,,,,,,,,,,,,,,,,,,,,,,,,,,,,,,,,,,,,,,,,,,,,,,,,,,,,,,,,,,,,,,,,,,,,,,,,,,,,,,,,
,,5,0.4644,5,0.4644,0,12,12,20,1,149,broom,tomato,,90369,001,2022-04-28_23h30.11.987,SPAMnetsValid,2021.1.4,MacIntel,60.0024001,,,,,,,,,,,,,,,,,,,,,,,,,,,,,,,,,,,,,,,,,,,,,,,,,,,,,,,,,,,,,,,,,,,,,,,,,,,,,,,,,,,,,,,,,
,,5,0.413,5,0.413,0,13,13,94,1,133,cake,flower,,90369,001,2022-04-28_23h30.11.987,SPAMnetsValid,2021.1.4,MacIntel,60.0024001,,,,,,,,,,,,,,,,,,,,,,,,,,,,,,,,,,,,,,,,,,,,,,,,,,,,,,,,,,,,,,,,,,,,,,,,,,,,,,,,,,,,,,,,,
,,5,0.1788,5,0.1788,0,14,14,23,1,148,flower,melon,,90369,001,2022-04-28_23h30.11.987,SPAMnetsValid,2021.1.4,MacIntel,60.0024001,,,,,,,,,,,,,,,,,,,,,,,,,,,,,,,,,,,,,,,,,,,,,,,,,,,,,,,,,,,,,,,,,,,,,,,,,,,,,,,,,,,,,,,,,
,,5,0.197,5,0.197,0,15,15,36,1,161,kitchen,pretzel,,90369,001,2022-04-28_23h30.11.987,SPAMnetsValid,2021.1.4,MacIntel,60.0024001,,,,,,,,,,,,,,,,,,,,,,,,,,,,,,,,,,,,,,,,,,,,,,,,,,,,,,,,,,,,,,,,,,,,,,,,,,,,,,,,,,,,,,,,,
,,5,0.1961,5,0.1961,0,16,16,18,1,119,strawberry,tree,,90369,001,2022-04-28_23h30.11.987,SPAMnetsValid,2021.1.4,MacIntel,60.0024001,,,,,,,,,,,,,,,,,,,,,,,,,,,,,,,,,,,,,,,,,,,,,,,,,,,,,,,,,,,,,,,,,,,,,,,,,,,,,,,,,,,,,,,,,
,,5,0.1628,5,0.1628,0,17,17,57,1,127,cactus,chocolate,,90369,001,2022-04-28_23h30.11.987,SPAMnetsValid,2021.1.4,MacIntel,60.0024001,,,,,,,,,,,,,,,,,,,,,,,,,,,,,,,,,,,,,,,,,,,,,,,,,,,,,,,,,,,,,,,,,,,,,,,,,,,,,,,,,,,,,,,,,
,,5,0.1636,5,0.1636,0,18,18,2,1,174,cake,pretzel,,90369,001,2022-04-28_23h30.11.987,SPAMnetsValid,2021.1.4,MacIntel,60.0024001,,,,,,,,,,,,,,,,,,,,,,,,,,,,,,,,,,,,,,,,,,,,,,,,,,,,,,,,,,,,,,,,,,,,,,,,,,,,,,,,,,,,,,,,,
,,5,0.3795,5,0.3795,0,19,19,19,1,183,cake,rose,,90369,001,2022-04-28_23h30.11.987,SPAMnetsValid,2021.1.4,MacIntel,60.0024001,,,,,,,,,,,,,,,,,,,,,,,,,,,,,,,,,,,,,,,,,,,,,,,,,,,,,,,,,,,,,,,,,,,,,,,,,,,,,,,,,,,,,,,,,
,,5,0.3643,5,0.3643,0,20,20,40,1,165,onion,rose,,90369,001,2022-04-28_23h30.11.987,SPAMnetsValid,2021.1.4,MacIntel,60.0024001,,,,,,,,,,,,,,,,,,,,,,,,,,,,,,,,,,,,,,,,,,,,,,,,,,,,,,,,,,,,,,,,,,,,,,,,,,,,,,,,,,,,,,,,,
,,5,0.3467,5,0.3467,0,21,21,24,1,169,onion,yogurt,,90369,001,2022-04-28_23h30.11.987,SPAMnetsValid,2021.1.4,MacIntel,60.0024001,,,,,,,,,,,,,,,,,,,,,,,,,,,,,,,,,,,,,,,,,,,,,,,,,,,,,,,,,,,,,,,,,,,,,,,,,,,,,,,,,,,,,,,,,
,,5,0.1808,5,0.1808,0,22,22,32,1,182,flower,refrigerator,,90369,001,2022-04-28_23h30.11.987,SPAMnetsValid,2021.1.4,MacIntel,60.0024001,,,,,,,,,,,,,,,,,,,,,,,,,,,,,,,,,,,,,,,,,,,,,,,,,,,,,,,,,,,,,,,,,,,,,,,,,,,,,,,,,,,,,,,,,
,,5,0.1966,5,0.1966,0,23,23,46,1,123,cookie,tree,,90369,001,2022-04-28_23h30.11.987,SPAMnetsValid,2021.1.4,MacIntel,60.0024001,,,,,,,,,,,,,,,,,,,,,,,,,,,,,,,,,,,,,,,,,,,,,,,,,,,,,,,,,,,,,,,,,,,,,,,,,,,,,,,,,,,,,,,,,
,,5,0.046,5,0.046,0,24,24,4,1,109,broom,strawberry,,90369,001,2022-04-28_23h30.11.987,SPAMnetsValid,2021.1.4,MacIntel,60.0024001,,,,,,,,,,,,,,,,,,,,,,,,,,,,,,,,,,,,,,,,,,,,,,,,,,,,,,,,,,,,,,,,,,,,,,,,,,,,,,,,,,,,,,,,,
,,5,0.0636,5,0.0636,0,25,25,9,1,176,cactus,tomato,,90369,001,2022-04-28_23h30.11.987,SPAMnetsValid,2021.1.4,MacIntel,60.0024001,,,,,,,,,,,,,,,,,,,,,,,,,,,,,,,,,,,,,,,,,,,,,,,,,,,,,,,,,,,,,,,,,,,,,,,,,,,,,,,,,,,,,,,,,
,,5,0.0794,5,0.0794,0,26,26,41,1,175,melon,onion,,90369,001,2022-04-28_23h30.11.987,SPAMnetsValid,2021.1.4,MacIntel,60.0024001,,,,,,,,,,,,,,,,,,,,,,,,,,,,,,,,,,,,,,,,,,,,,,,,,,,,,,,,,,,,,,,,,,,,,,,,,,,,,,,,,,,,,,,,,
,,5,0.0805,5,0.0805,0,27,27,72,1,181,carrot,kitchen,,90369,001,2022-04-28_23h30.11.987,SPAMnetsValid,2021.1.4,MacIntel,60.0024001,,,,,,,,,,,,,,,,,,,,,,,,,,,,,,,,,,,,,,,,,,,,,,,,,,,,,,,,,,,,,,,,,,,,,,,,,,,,,,,,,,,,,,,,,
,,5,0.0975,5,0.0975,0,28,28,14,1,120,microwave,oven,,90369,001,2022-04-28_23h30.11.987,SPAMnetsValid,2021.1.4,MacIntel,60.0024001,,,,,,,,,,,,,,,,,,,,,,,,,,,,,,,,,,,,,,,,,,,,,,,,,,,,,,,,,,,,,,,,,,,,,,,,,,,,,,,,,,,,,,,,,
,,5,0.0967,5,0.0967,0,29,29,43,1,185,cactus,rose,,90369,001,2022-04-28_23h30.11.987,SPAMnetsValid,2021.1.4,MacIntel,60.0024001,,,,,,,,,,,,,,,,,,,,,,,,,,,,,,,,,,,,,,,,,,,,,,,,,,,,,,,,,,,,,,,,,,,,,,,,,,,,,,,,,,,,,,,,,
,,5,0.0975,5,0.0975,0,30,30,93,1,134,carrot,flower,,90369,001,2022-04-28_23h30.11.987,SPAMnetsValid,2021.1.4,MacIntel,60.0024001,,,,,,,,,,,,,,,,,,,,,,,,,,,,,,,,,,,,,,,,,,,,,,,,,,,,,,,,,,,,,,,,,,,,,,,,,,,,,,,,,,,,,,,,,
,,5,0.0955,5,0.0955,0,31,31,74,1,128,melon,microwave,,90369,001,2022-04-28_23h30.11.987,SPAMnetsValid,2021.1.4,MacIntel,60.0024001,,,,,,,,,,,,,,,,,,,,,,,,,,,,,,,,,,,,,,,,,,,,,,,,,,,,,,,,,,,,,,,,,,,,,,,,,,,,,,,,,,,,,,,,,
,,5,0.1131,5,0.1131,0,32,32,88,1,171,cake,tomato,,90369,001,2022-04-28_23h30.11.987,SPAMnetsValid,2021.1.4,MacIntel,60.0024001,,,,,,,,,,,,,,,,,,,,,,,,,,,,,,,,,,,,,,,,,,,,,,,,,,,,,,,,,,,,,,,,,,,,,,,,,,,,,,,,,,,,,,,,,
,,5,0.1475,5,0.1475,0,33,33,65,1,160,cookie,kitchen,,90369,001,2022-04-28_23h30.11.987,SPAMnetsValid,2021.1.4,MacIntel,60.0024001,,,,,,,,,,,,,,,,,,,,,,,,,,,,,,,,,,,,,,,,,,,,,,,,,,,,,,,,,,,,,,,,,,,,,,,,,,,,,,,,,,,,,,,,,
,,5,0.1468,5,0.1468,0,34,34,87,1,114,cookie,strawberry,,90369,001,2022-04-28_23h30.11.987,SPAMnetsValid,2021.1.4,MacIntel,60.0024001,,,,,,,,,,,,,,,,,,,,,,,,,,,,,,,,,,,,,,,,,,,,,,,,,,,,,,,,,,,,,,,,,,,,,,,,,,,,,,,,,,,,,,,,,
,,5,0.147,5,0.147,0,35,35,50,1,126,kitchen,tree,,90369,001,2022-04-28_23h30.11.987,SPAMnetsValid,2021.1.4,MacIntel,60.0024001,,,,,,,,,,,,,,,,,,,,,,,,,,,,,,,,,,,,,,,,,,,,,,,,,,,,,,,,,,,,,,,,,,,,,,,,,,,,,,,,,,,,,,,,,
,,5,0.1628,5,0.1628,0,36,36,77,1,172,kitchen,melon,,90369,001,2022-04-28_23h30.11.987,SPAMnetsValid,2021.1.4,MacIntel,60.0024001,,,,,,,,,,,,,,,,,,,,,,,,,,,,,,,,,,,,,,,,,,,,,,,,,,,,,,,,,,,,,,,,,,,,,,,,,,,,,,,,,,,,,,,,,
,,5,0.1637,5,0.1637,0,37,37,78,1,132,broom,tree,,90369,001,2022-04-28_23h30.11.987,SPAMnetsValid,2021.1.4,MacIntel,60.0024001,,,,,,,,,,,,,,,,,,,,,,,,,,,,,,,,,,,,,,,,,,,,,,,,,,,,,,,,,,,,,,,,,,,,,,,,,,,,,,,,,,,,,,,,,
,,5,0.1639,5,0.1639,0,38,38,3,1,129,cactus,refrigerator,,90369,001,2022-04-28_23h30.11.987,SPAMnetsValid,2021.1.4,MacIntel,60.0024001,,,,,,,,,,,,,,,,,,,,,,,,,,,,,,,,,,,,,,,,,,,,,,,,,,,,,,,,,,,,,,,,,,,,,,,,,,,,,,,,,,,,,,,,,
,,5,0.18,5,0.18,0,39,39,42,1,184,oven,pretzel,,90369,001,2022-04-28_23h30.11.987,SPAMnetsValid,2021.1.4,MacIntel,60.0024001,,,,,,,,,,,,,,,,,,,,,,,,,,,,,,,,,,,,,,,,,,,,,,,,,,,,,,,,,,,,,,,,,,,,,,,,,,,,,,,,,,,,,,,,,
,,5,0.1633,5,0.1633,0,40,40,39,1,112,cake,carrot,,90369,001,2022-04-28_23h30.11.987,SPAMnetsValid,2021.1.4,MacIntel,60.0024001,,,,,,,,,,,,,,,,,,,,,,,,,,,,,,,,,,,,,,,,,,,,,,,,,,,,,,,,,,,,,,,,,,,,,,,,,,,,,,,,,,,,,,,,,
,,5,0.163,5,0.163,0,41,41,38,1,155,carrot,cookie,,90369,001,2022-04-28_23h30.11.987,SPAMnetsValid,2021.1.4,MacIntel,60.0024001,,,,,,,,,,,,,,,,,,,,,,,,,,,,,,,,,,,,,,,,,,,,,,,,,,,,,,,,,,,,,,,,,,,,,,,,,,,,,,,,,,,,,,,,,
,,5,0.1466,5,0.1466,0,42,42,92,1,170,cookie,microwave,,90369,001,2022-04-28_23h30.11.987,SPAMnetsValid,2021.1.4,MacIntel,60.0024001,,,,,,,,,,,,,,,,,,,,,,,,,,,,,,,,,,,,,,,,,,,,,,,,,,,,,,,,,,,,,,,,,,,,,,,,,,,,,,,,,,,,,,,,,
,,5,0.1305,5,0.1305,0,43,43,84,1,130,microwave,yogurt,,90369,001,2022-04-28_23h30.11.987,SPAMnetsValid,2021.1.4,MacIntel,60.0024001,,,,,,,,,,,,,,,,,,,,,,,,,,,,,,,,,,,,,,,,,,,,,,,,,,,,,,,,,,,,,,,,,,,,,,,,,,,,,,,,,,,,,,,,,
,,5,0.1472,5,0.1472,0,44,44,35,1,147,cake,refrigerator,,90369,001,2022-04-28_23h30.11.987,SPAMnetsValid,2021.1.4,MacIntel,60.0024001,,,,,,,,,,,,,,,,,,,,,,,,,,,,,,,,,,,,,,,,,,,,,,,,,,,,,,,,,,,,,,,,,,,,,,,,,,,,,,,,,,,,,,,,,
,,5,0.1469,5,0.1469,0,45,45,91,1,166,cake,yogurt,,90369,001,2022-04-28_23h30.11.987,SPAMnetsValid,2021.1.4,MacIntel,60.0024001,,,,,,,,,,,,,,,,,,,,,,,,,,,,,,,,,,,,,,,,,,,,,,,,,,,,,,,,,,,,,,,,,,,,,,,,,,,,,,,,,,,,,,,,,
,,5,0.1632,5,0.1632,0,46,46,44,1,116,cake,chocolate,,90369,001,2022-04-28_23h30.11.987,SPAMnetsValid,2021.1.4,MacIntel,60.0024001,,,,,,,,,,,,,,,,,,,,,,,,,,,,,,,,,,,,,,,,,,,,,,,,,,,,,,,,,,,,,,,,,,,,,,,,,,,,,,,,,,,,,,,,,
,,5,0.3625,5,0.3625,0,47,47,12,1,162,microwave,tomato,,90369,001,2022-04-28_23h30.11.987,SPAMnetsValid,2021.1.4,MacIntel,60.0024001,,,,,,,,,,,,,,,,,,,,,,,,,,,,,,,,,,,,,,,,,,,,,,,,,,,,,,,,,,,,,,,,,,,,,,,,,,,,,,,,,,,,,,,,,
,,5,0.1474,5,0.1474,0,48,48,64,1,157,refrigerator,rose,,90369,001,2022-04-28_23h30.11.987,SPAMnetsValid,2021.1.4,MacIntel,60.0024001,,,,,,,,,,,,,,,,,,,,,,,,,,,,,,,,,,,,,,,,,,,,,,,,,,,,,,,,,,,,,,,,,,,,,,,,,,,,,,,,,,,,,,,,,
,,5,0.1469,5,0.1469,0,49,49,82,1,98,pretzel,strawberry,,90369,001,2022-04-28_23h30.11.987,SPAMnetsValid,2021.1.4,MacIntel,60.0024001,,,,,,,,,,,,,,,,,,,,,,,,,,,,,,,,,,,,,,,,,,,,,,,,,,,,,,,,,,,,,,,,,,,,,,,,,,,,,,,,,,,,,,,,,
,,5,0.1473,5,0.1473,0,50,50,60,1,122,flower,garden,,90369,001,2022-04-28_23h30.11.987,SPAMnetsValid,2021.1.4,MacIntel,60.0024001,,,,,,,,,,,,,,,,,,,,,,,,,,,,,,,,,,,,,,,,,,,,,,,,,,,,,,,,,,,,,,,,,,,,,,,,,,,,,,,,,,,,,,,,,
,,5,0.1472,5,0.1472,0,51,51,85,1,115,refrigerator,tomato,,90369,001,2022-04-28_23h30.11.987,SPAMnetsValid,2021.1.4,MacIntel,60.0024001,,,,,,,,,,,,,,,,,,,,,,,,,,,,,,,,,,,,,,,,,,,,,,,,,,,,,,,,,,,,,,,,,,,,,,,,,,,,,,,,,,,,,,,,,
,,5,0.1304,5,0.1304,0,52,52,58,1,144,cake,garden,,90369,001,2022-04-28_23h30.11.987,SPAMnetsValid,2021.1.4,MacIntel,60.0024001,,,,,,,,,,,,,,,,,,,,,,,,,,,,,,,,,,,,,,,,,,,,,,,,,,,,,,,,,,,,,,,,,,,,,,,,,,,,,,,,,,,,,,,,,
,,5,0.1299,5,0.1299,0,53,53,8,1,97,chocolate,kitchen,,90369,001,2022-04-28_23h30.11.987,SPAMnetsValid,2021.1.4,MacIntel,60.0024001,,,,,,,,,,,,,,,,,,,,,,,,,,,,,,,,,,,,,,,,,,,,,,,,,,,,,,,,,,,,,,,,,,,,,,,,,,,,,,,,,,,,,,,,,
,,5,0.1294,5,0.1294,0,54,54,95,1,121,broom,microwave,,90369,001,2022-04-28_23h30.11.987,SPAMnetsValid,2021.1.4,MacIntel,60.0024001,,,,,,,,,,,,,,,,,,,,,,,,,,,,,,,,,,,,,,,,,,,,,,,,,,,,,,,,,,,,,,,,,,,,,,,,,,,,,,,,,,,,,,,,,
,,5,0.1135,5,0.1135,0,55,55,37,1,139,carrot,strawberry,,90369,001,2022-04-28_23h30.11.987,SPAMnetsValid,2021.1.4,MacIntel,60.0024001,,,,,,,,,,,,,,,,,,,,,,,,,,,,,,,,,,,,,,,,,,,,,,,,,,,,,,,,,,,,,,,,,,,,,,,,,,,,,,,,,,,,,,,,,
,,5,0.1308,5,0.1308,0,56,56,15,1,145,cactus,yogurt,,90369,001,2022-04-28_23h30.11.987,SPAMnetsValid,2021.1.4,MacIntel,60.0024001,,,,,,,,,,,,,,,,,,,,,,,,,,,,,,,,,,,,,,,,,,,,,,,,,,,,,,,,,,,,,,,,,,,,,,,,,,,,,,,,,,,,,,,,,
,,5,0.1474,5,0.1474,0,57,57,63,1,137,microwave,tree,,90369,001,2022-04-28_23h30.11.987,SPAMnetsValid,2021.1.4,MacIntel,60.0024001,,,,,,,,,,,,,,,,,,,,,,,,,,,,,,,,,,,,,,,,,,,,,,,,,,,,,,,,,,,,,,,,,,,,,,,,,,,,,,,,,,,,,,,,,
,,5,0.1468,5,0.1468,0,58,58,13,1,105,cactus,oven,,90369,001,2022-04-28_23h30.11.987,SPAMnetsValid,2021.1.4,MacIntel,60.0024001,,,,,,,,,,,,,,,,,,,,,,,,,,,,,,,,,,,,,,,,,,,,,,,,,,,,,,,,,,,,,,,,,,,,,,,,,,,,,,,,,,,,,,,,,
,,5,0.1314,5,0.1314,0,59,59,55,1,143,pretzel,rose,,90369,001,2022-04-28_23h30.11.987,SPAMnetsValid,2021.1.4,MacIntel,60.0024001,,,,,,,,,,,,,,,,,,,,,,,,,,,,,,,,,,,,,,,,,,,,,,,,,,,,,,,,,,,,,,,,,,,,,,,,,,,,,,,,,,,,,,,,,
,,5,0.1638,5,0.1638,0,60,60,81,1,104,garden,microwave,,90369,001,2022-04-28_23h30.11.987,SPAMnetsValid,2021.1.4,MacIntel,60.0024001,,,,,,,,,,,,,,,,,,,,,,,,,,,,,,,,,,,,,,,,,,,,,,,,,,,,,,,,,,,,,,,,,,,,,,,,,,,,,,,,,,,,,,,,,
,,5,0.1636,5,0.1636,0,61,61,89,1,140,cookie,refrigerator,,90369,001,2022-04-28_23h30.11.987,SPAMnetsValid,2021.1.4,MacIntel,60.0024001,,,,,,,,,,,,,,,,,,,,,,,,,,,,,,,,,,,,,,,,,,,,,,,,,,,,,,,,,,,,,,,,,,,,,,,,,,,,,,,,,,,,,,,,,
,,5,0.179,5,0.179,0,62,62,62,1,189,onion,tree,,90369,001,2022-04-28_23h30.11.987,SPAMnetsValid,2021.1.4,MacIntel,60.0024001,,,,,,,,,,,,,,,,,,,,,,,,,,,,,,,,,,,,,,,,,,,,,,,,,,,,,,,,,,,,,,,,,,,,,,,,,,,,,,,,,,,,,,,,,
,,5,0.1636,5,0.1636,0,63,63,11,1,117,melon,strawberry,,90369,001,2022-04-28_23h30.11.987,SPAMnetsValid,2021.1.4,MacIntel,60.0024001,,,,,,,,,,,,,,,,,,,,,,,,,,,,,,,,,,,,,,,,,,,,,,,,,,,,,,,,,,,,,,,,,,,,,,,,,,,,,,,,,,,,,,,,,
,,5,0.1638,5,0.1638,0,64,64,73,1,135,carrot,oven,,90369,001,2022-04-28_23h30.11.987,SPAMnetsValid,2021.1.4,MacIntel,60.0024001,,,,,,,,,,,,,,,,,,,,,,,,,,,,,,,,,,,,,,,,,,,,,,,,,,,,,,,,,,,,,,,,,,,,,,,,,,,,,,,,,,,,,,,,,
,,5,0.1627,5,0.1627,0,65,65,26,1,107,rose,tomato,,90369,001,2022-04-28_23h30.11.987,SPAMnetsValid,2021.1.4,MacIntel,60.0024001,,,,,,,,,,,,,,,,,,,,,,,,,,,,,,,,,,,,,,,,,,,,,,,,,,,,,,,,,,,,,,,,,,,,,,,,,,,,,,,,,,,,,,,,,
,,5,0.1642,5,0.1642,0,66,66,21,1,159,cookie,flower,,90369,001,2022-04-28_23h30.11.987,SPAMnetsValid,2021.1.4,MacIntel,60.0024001,,,,,,,,,,,,,,,,,,,,,,,,,,,,,,,,,,,,,,,,,,,,,,,,,,,,,,,,,,,,,,,,,,,,,,,,,,,,,,,,,,,,,,,,,
,,5,0.18,5,0.18,0,67,67,27,1,158,cookie,oven,,90369,001,2022-04-28_23h30.11.987,SPAMnetsValid,2021.1.4,MacIntel,60.0024001,,,,,,,,,,,,,,,,,,,,,,,,,,,,,,,,,,,,,,,,,,,,,,,,,,,,,,,,,,,,,,,,,,,,,,,,,,,,,,,,,,,,,,,,,
,,5,0.2124,5,0.2124,0,68,68,49,1,152,cactus,strawberry,,90369,001,2022-04-28_23h30.11.987,SPAMnetsValid,2021.1.4,MacIntel,60.0024001,,,,,,,,,,,,,,,,,,,,,,,,,,,,,,,,,,,,,,,,,,,,,,,,,,,,,,,,,,,,,,,,,,,,,,,,,,,,,,,,,,,,,,,,,
,,5,0.1798,5,0.1798,0,69,69,52,1,110,chocolate,cookie,,90369,001,2022-04-28_23h30.11.987,SPAMnetsValid,2021.1.4,MacIntel,60.0024001,,,,,,,,,,,,,,,,,,,,,,,,,,,,,,,,,,,,,,,,,,,,,,,,,,,,,,,,,,,,,,,,,,,,,,,,,,,,,,,,,,,,,,,,,
,,5,0.1971,5,0.1971,0,70,70,76,1,102,chocolate,refrigerator,,90369,001,2022-04-28_23h30.11.987,SPAMnetsValid,2021.1.4,MacIntel,60.0024001,,,,,,,,,,,,,,,,,,,,,,,,,,,,,,,,,,,,,,,,,,,,,,,,,,,,,,,,,,,,,,,,,,,,,,,,,,,,,,,,,,,,,,,,,
,,5,0.2301,5,0.2301,0,71,71,61,1,138,flower,rose,,90369,001,2022-04-28_23h30.11.987,SPAMnetsValid,2021.1.4,MacIntel,60.0024001,,,,,,,,,,,,,,,,,,,,,,,,,,,,,,,,,,,,,,,,,,,,,,,,,,,,,,,,,,,,,,,,,,,,,,,,,,,,,,,,,,,,,,,,,
,,5,0.0463,5,0.0463,0,72,72,71,1,187,cactus,microwave,,90369,001,2022-04-28_23h30.11.987,SPAMnetsValid,2021.1.4,MacIntel,60.0024001,,,,,,,,,,,,,,,,,,,,,,,,,,,,,,,,,,,,,,,,,,,,,,,,,,,,,,,,,,,,,,,,,,,,,,,,,,,,,,,,,,,,,,,,,
,,5,0.0477,5,0.0477,0,73,73,31,1,156,melon,rose,,90369,001,2022-04-28_23h30.11.987,SPAMnetsValid,2021.1.4,MacIntel,60.0024001,,,,,,,,,,,,,,,,,,,,,,,,,,,,,,,,,,,,,,,,,,,,,,,,,,,,,,,,,,,,,,,,,,,,,,,,,,,,,,,,,,,,,,,,,
,,5,0.0796,5,0.0796,0,74,74,80,1,146,pretzel,tree,,90369,001,2022-04-28_23h30.11.987,SPAMnetsValid,2021.1.4,MacIntel,60.0024001,,,,,,,,,,,,,,,,,,,,,,,,,,,,,,,,,,,,,,,,,,,,,,,,,,,,,,,,,,,,,,,,,,,,,,,,,,,,,,,,,,,,,,,,,
,,5,0.0975,5,0.0975,0,75,75,54,1,101,cactus,kitchen,,90369,001,2022-04-28_23h30.11.987,SPAMnetsValid,2021.1.4,MacIntel,60.0024001,,,,,,,,,,,,,,,,,,,,,,,,,,,,,,,,,,,,,,,,,,,,,,,,,,,,,,,,,,,,,,,,,,,,,,,,,,,,,,,,,,,,,,,,,
,,5,0.1299,5,0.1299,0,76,76,29,1,163,melon,refrigerator,,90369,001,2022-04-28_23h30.11.987,SPAMnetsValid,2021.1.4,MacIntel,60.0024001,,,,,,,,,,,,,,,,,,,,,,,,,,,,,,,,,,,,,,,,,,,,,,,,,,,,,,,,,,,,,,,,,,,,,,,,,,,,,,,,,,,,,,,,,
,,5,0.1466,5,0.1466,0,77,77,83,1,100,garden,tomato,,90369,001,2022-04-28_23h30.11.987,SPAMnetsValid,2021.1.4,MacIntel,60.0024001,,,,,,,,,,,,,,,,,,,,,,,,,,,,,,,,,,,,,,,,,,,,,,,,,,,,,,,,,,,,,,,,,,,,,,,,,,,,,,,,,,,,,,,,,
,,5,0.1467,5,0.1467,0,78,78,66,1,150,microwave,refrigerator,,90369,001,2022-04-28_23h30.11.987,SPAMnetsValid,2021.1.4,MacIntel,60.0024001,,,,,,,,,,,,,,,,,,,,,,,,,,,,,,,,,,,,,,,,,,,,,,,,,,,,,,,,,,,,,,,,,,,,,,,,,,,,,,,,,,,,,,,,,
,,5,0.1642,5,0.1642,0,79,79,1,1,173,kitchen,tomato,,90369,001,2022-04-28_23h30.11.987,SPAMnetsValid,2021.1.4,MacIntel,60.0024001,,,,,,,,,,,,,,,,,,,,,,,,,,,,,,,,,,,,,,,,,,,,,,,,,,,,,,,,,,,,,,,,,,,,,,,,,,,,,,,,,,,,,,,,,
,,5,0.1801,5,0.1801,0,80,80,68,1,180,tree,yogurt,,90369,001,2022-04-28_23h30.11.987,SPAMnetsValid,2021.1.4,MacIntel,60.0024001,,,,,,,,,,,,,,,,,,,,,,,,,,,,,,,,,,,,,,,,,,,,,,,,,,,,,,,,,,,,,,,,,,,,,,,,,,,,,,,,,,,,,,,,,
,,5,0.1629,5,0.1629,0,81,81,86,1,193,melon,melon,CHECK,90369,001,2022-04-28_23h30.11.987,SPAMnetsValid,2021.1.4,MacIntel,60.0024001,,,,,,,,,,,,,,,,,,,,,,,,,,,,,,,,,,,,,,,,,,,,,,,,,,,,,,,,,,,,,,,,,,,,,,,,,,,,,,,,,,,,,,,,,
,,5,0.1798,5,0.1798,0,82,82,45,1,179,broom,oven,,90369,001,2022-04-28_23h30.11.987,SPAMnetsValid,2021.1.4,MacIntel,60.0024001,,,,,,,,,,,,,,,,,,,,,,,,,,,,,,,,,,,,,,,,,,,,,,,,,,,,,,,,,,,,,,,,,,,,,,,,,,,,,,,,,,,,,,,,,
,,5,0.1796,5,0.1796,0,83,83,69,1,124,oven,refrigerator,,90369,001,2022-04-28_23h30.11.987,SPAMnetsValid,2021.1.4,MacIntel,60.0024001,,,,,,,,,,,,,,,,,,,,,,,,,,,,,,,,,,,,,,,,,,,,,,,,,,,,,,,,,,,,,,,,,,,,,,,,,,,,,,,,,,,,,,,,,
,,5,0.4474,5,0.4474,0,84,84,53,1,177,chocolate,strawberry,,90369,001,2022-04-28_23h30.11.987,SPAMnetsValid,2021.1.4,MacIntel,60.0024001,,,,,,,,,,,,,,,,,,,,,,,,,,,,,,,,,,,,,,,,,,,,,,,,,,,,,,,,,,,,,,,,,,,,,,,,,,,,,,,,,,,,,,,,,
,,5,0.2309,5,0.2309,0,85,85,70,1,141,melon,tomato,,90369,001,2022-04-28_23h30.11.987,SPAMnetsValid,2021.1.4,MacIntel,60.0024001,,,,,,,,,,,,,,,,,,,,,,,,,,,,,,,,,,,,,,,,,,,,,,,,,,,,,,,,,,,,,,,,,,,,,,,,,,,,,,,,,,,,,,,,,
,,5,0.2463,5,0.2463,0,86,86,7,1,188,flower,tree,,90369,001,2022-04-28_23h30.11.987,SPAMnetsValid,2021.1.4,MacIntel,60.0024001,,,,,,,,,,,,,,,,,,,,,,,,,,,,,,,,,,,,,,,,,,,,,,,,,,,,,,,,,,,,,,,,,,,,,,,,,,,,,,,,,,,,,,,,,
,,5,0.0812,5,0.0812,0,87,87,56,1,113,refrigerator,strawberry,,90369,001,2022-04-28_23h30.11.987,SPAMnetsValid,2021.1.4,MacIntel,60.0024001,,,,,,,,,,,,,,,,,,,,,,,,,,,,,,,,,,,,,,,,,,,,,,,,,,,,,,,,,,,,,,,,,,,,,,,,,,,,,,,,,,,,,,,,,
,,5,0.0977,5,0.0977,0,88,88,10,1,118,chocolate,oven,,90369,001,2022-04-28_23h30.11.987,SPAMnetsValid,2021.1.4,MacIntel,60.0024001,,,,,,,,,,,,,,,,,,,,,,,,,,,,,,,,,,,,,,,,,,,,,,,,,,,,,,,,,,,,,,,,,,,,,,,,,,,,,,,,,,,,,,,,,
,,5,0.1467,5,0.1467,0,89,89,22,1,142,garden,tree,,90369,001,2022-04-28_23h30.11.987,SPAMnetsValid,2021.1.4,MacIntel,60.0024001,,,,,,,,,,,,,,,,,,,,,,,,,,,,,,,,,,,,,,,,,,,,,,,,,,,,,,,,,,,,,,,,,,,,,,,,,,,,,,,,,,,,,,,,,
,,5,0.1634,5,0.1634,0,90,90,75,1,178,cactus,carrot,,90369,001,2022-04-28_23h30.11.987,SPAMnetsValid,2021.1.4,MacIntel,60.0024001,,,,,,,,,,,,,,,,,,,,,,,,,,,,,,,,,,,,,,,,,,,,,,,,,,,,,,,,,,,,,,,,,,,,,,,,,,,,,,,,,,,,,,,,,
,,5,0.1474,5,0.1474,0,91,91,59,1,164,cookie,garden,,90369,001,2022-04-28_23h30.11.987,SPAMnetsValid,2021.1.4,MacIntel,60.0024001,,,,,,,,,,,,,,,,,,,,,,,,,,,,,,,,,,,,,,,,,,,,,,,,,,,,,,,,,,,,,,,,,,,,,,,,,,,,,,,,,,,,,,,,,
,,5,0.1635,5,0.1635,0,92,92,67,1,96,oven,strawberry,,90369,001,2022-04-28_23h30.11.987,SPAMnetsValid,2021.1.4,MacIntel,60.0024001,,,,,,,,,,,,,,,,,,,,,,,,,,,,,,,,,,,,,,,,,,,,,,,,,,,,,,,,,,,,,,,,,,,,,,,,,,,,,,,,,,,,,,,,,
,,5,0.1802,5,0.1802,0,93,93,6,1,151,microwave,onion,,90369,001,2022-04-28_23h30.11.987,SPAMnetsValid,2021.1.4,MacIntel,60.0024001,,,,,,,,,,,,,,,,,,,,,,,,,,,,,,,,,,,,,,,,,,,,,,,,,,,,,,,,,,,,,,,,,,,,,,,,,,,,,,,,,,,,,,,,,
,,5,0.1966,5,0.1966,0,94,94,25,1,194,cactus,cactus,CHECK,90369,001,2022-04-28_23h30.11.987,SPAMnetsValid,2021.1.4,MacIntel,60.0024001,,,,,,,,,,,,,,,,,,,,,,,,,,,,,,,,,,,,,,,,,,,,,,,,,,,,,,,,,,,,,,,,,,,,,,,,,,,,,,,,,,,,,,,,,
,,5,0.1972,5,0.1972,0,95,95,47,1,167,carrot,garden,,90369,001,2022-04-28_23h30.11.987,SPAMnetsValid,2021.1.4,MacIntel,60.0024001,,,,,,,,,,,,,,,,,,,,,,,,,,,,,,,,,,,,,,,,,,,,,,,,,,,,,,,,,,,,,,,,,,,,,,,,,,,,,,,,,,,,,,,,,
,,5,0.4474,5,0.4474,0,96,96,17,1,99,garden,melon,,90369,001,2022-04-28_23h30.11.987,SPAMnetsValid,2021.1.4,MacIntel,60.0024001,,,,,,,,,,,,,,,,,,,,,,,,,,,,,,,,,,,,,,,,,,,,,,,,,,,,,,,,,,,,,,,,,,,,,,,,,,,,,,,,,,,,,,,,,
,,,,,,,,,,,,,,,90369,001,2022-04-28_23h30.11.987,SPAMnetsValid,2021.1.4,MacIntel,60.0024001,0,0,0,0,1,,,,,,,,,,,,,,,,,,,,,,,,,,,,,,,,,,,,,,,,,,,,,,,,,,,,,,,,,,,,,,,,,,,,,,,,,,,,,,,,,,,,
,,,,,,,,,,,,,,,90369,001,2022-04-28_23h30.11.987,SPAMnetsValid,2021.1.4,MacIntel,60.0024001,,,,,,0,0,0,1,1,0,1,,,,,,,,,,,,,,,,,,,,,,,,,,,,,,,,,,,,,,,,,,,,,,,,,,,,,,,,,,,,,,,,,,,,,,,,,,,,,
,,,,5,0.6408,,,,,,191,cake,cake,CHECK,90369,001,2022-04-28_23h30.11.987,SPAMnetsValid,2021.1.4,MacIntel,60.0024001,,,,,,,,,,,,,5,0.6408,0,0,0,10,1,,,,,,,,,,,,,,,,,,,,,,,,,,,,,,,,,,,,,,,,,,,,,,,,,,,,,,,,,,,,,,,,,,,,,,
,,,,5,0.1129,,,,,,67,flower,yogurt,,90369,001,2022-04-28_23h30.11.987,SPAMnetsValid,2021.1.4,MacIntel,60.0024001,,,,,,,,,,,,,5,0.1129,0,1,1,12,1,,,,,,,,,,,,,,,,,,,,,,,,,,,,,,,,,,,,,,,,,,,,,,,,,,,,,,,,,,,,,,,,,,,,,,
,,,,5,0.1474,,,,,,28,cake,melon,,90369,001,2022-04-28_23h30.11.987,SPAMnetsValid,2021.1.4,MacIntel,60.0024001,,,,,,,,,,,,,5,0.1474,0,2,2,54,1,,,,,,,,,,,,,,,,,,,,,,,,,,,,,,,,,,,,,,,,,,,,,,,,,,,,,,,,,,,,,,,,,,,,,,
,,,,5,0.3465,,,,,,58,garden,oven,,90369,001,2022-04-28_23h30.11.987,SPAMnetsValid,2021.1.4,MacIntel,60.0024001,,,,,,,,,,,,,5,0.3465,0,3,3,37,1,,,,,,,,,,,,,,,,,,,,,,,,,,,,,,,,,,,,,,,,,,,,,,,,,,,,,,,,,,,,,,,,,,,,,,
,,,,5,0.146,,,,,,26,tomato,yogurt,,90369,001,2022-04-28_23h30.11.987,SPAMnetsValid,2021.1.4,MacIntel,60.0024001,,,,,,,,,,,,,5,0.146,0,4,4,13,1,,,,,,,,,,,,,,,,,,,,,,,,,,,,,,,,,,,,,,,,,,,,,,,,,,,,,,,,,,,,,,,,,,,,,,
,,,,5,0.3801,,,,,,41,broom,cactus,,90369,001,2022-04-28_23h30.11.987,SPAMnetsValid,2021.1.4,MacIntel,60.0024001,,,,,,,,,,,,,5,0.3801,0,5,5,46,1,,,,,,,,,,,,,,,,,,,,,,,,,,,,,,,,,,,,,,,,,,,,,,,,,,,,,,,,,,,,,,,,,,,,,,
,,,,5,0.3467,,,,,,93,kitchen,oven,,90369,001,2022-04-28_23h30.11.987,SPAMnetsValid,2021.1.4,MacIntel,60.0024001,,,,,,,,,,,,,5,0.3467,0,6,6,82,1,,,,,,,,,,,,,,,,,,,,,,,,,,,,,,,,,,,,,,,,,,,,,,,,,,,,,,,,,,,,,,,,,,,,,,
,,,,5,0.1466,,,,,,23,flower,microwave,,90369,001,2022-04-28_23h30.11.987,SPAMnetsValid,2021.1.4,MacIntel,60.0024001,,,,,,,,,,,,,5,0.1466,0,7,7,25,1,,,,,,,,,,,,,,,,,,,,,,,,,,,,,,,,,,,,,,,,,,,,,,,,,,,,,,,,,,,,,,,,,,,,,,
,,,,5,0.0962,,,,,,33,oven,yogurt,,90369,001,2022-04-28_23h30.11.987,SPAMnetsValid,2021.1.4,MacIntel,60.0024001,,,,,,,,,,,,,5,0.0962,0,8,8,31,1,,,,,,,,,,,,,,,,,,,,,,,,,,,,,,,,,,,,,,,,,,,,,,,,,,,,,,,,,,,,,,,,,,,,,,
,,,,5,0.0965,,,,,,10,flower,onion,,90369,001,2022-04-28_23h30.11.987,SPAMnetsValid,2021.1.4,MacIntel,60.0024001,,,,,,,,,,,,,5,0.0965,0,9,9,45,1,,,,,,,,,,,,,,,,,,,,,,,,,,,,,,,,,,,,,,,,,,,,,,,,,,,,,,,,,,,,,,,,,,,,,,
,,,,5,0.1131,,,,,,69,carrot,refrigerator,,90369,001,2022-04-28_23h30.11.987,SPAMnetsValid,2021.1.4,MacIntel,60.0024001,,,,,,,,,,,,,5,0.1131,0,10,10,75,1,,,,,,,,,,,,,,,,,,,,,,,,,,,,,,,,,,,,,,,,,,,,,,,,,,,,,,,,,,,,,,,,,,,,,,
,,,,5,0.1806,,,,,,81,pretzel,yogurt,,90369,001,2022-04-28_23h30.11.987,SPAMnetsValid,2021.1.4,MacIntel,60.0024001,,,,,,,,,,,,,5,0.1806,0,11,11,50,1,,,,,,,,,,,,,,,,,,,,,,,,,,,,,,,,,,,,,,,,,,,,,,,,,,,,,,,,,,,,,,,,,,,,,,
,,,,5,0.1634,,,,,,79,garden,strawberry,,90369,001,2022-04-28_23h30.11.987,SPAMnetsValid,2021.1.4,MacIntel,60.0024001,,,,,,,,,,,,,5,0.1634,0,12,12,87,1,,,,,,,,,,,,,,,,,,,,,,,,,,,,,,,,,,,,,,,,,,,,,,,,,,,,,,,,,,,,,,,,,,,,,,
,,,,5,0.1803,,,,,,70,chocolate,onion,,90369,001,2022-04-28_23h30.11.987,SPAMnetsValid,2021.1.4,MacIntel,60.0024001,,,,,,,,,,,,,5,0.1803,0,13,13,74,1,,,,,,,,,,,,,,,,,,,,,,,,,,,,,,,,,,,,,,,,,,,,,,,,,,,,,,,,,,,,,,,,,,,,,,
,,,,5,0.1804,,,,,,86,oven,rose,,90369,001,2022-04-28_23h30.11.987,SPAMnetsValid,2021.1.4,MacIntel,60.0024001,,,,,,,,,,,,,5,0.1804,0,14,14,79,1,,,,,,,,,,,,,,,,,,,,,,,,,,,,,,,,,,,,,,,,,,,,,,,,,,,,,,,,,,,,,,,,,,,,,,
,,,,5,0.1798,,,,,,54,chocolate,yogurt,,90369,001,2022-04-28_23h30.11.987,SPAMnetsValid,2021.1.4,MacIntel,60.0024001,,,,,,,,,,,,,5,0.1798,0,15,15,67,1,,,,,,,,,,,,,,,,,,,,,,,,,,,,,,,,,,,,,,,,,,,,,,,,,,,,,,,,,,,,,,,,,,,,,,
,,,,5,0.1964,,,,,,52,carrot,tomato,,90369,001,2022-04-28_23h30.11.987,SPAMnetsValid,2021.1.4,MacIntel,60.0024001,,,,,,,,,,,,,5,0.1964,0,16,16,95,1,,,,,,,,,,,,,,,,,,,,,,,,,,,,,,,,,,,,,,,,,,,,,,,,,,,,,,,,,,,,,,,,,,,,,,
,,,,5,0.2137,,,,,,38,pretzel,refrigerator,,90369,001,2022-04-28_23h30.11.987,SPAMnetsValid,2021.1.4,MacIntel,60.0024001,,,,,,,,,,,,,5,0.2137,0,17,17,71,1,,,,,,,,,,,,,,,,,,,,,,,,,,,,,,,,,,,,,,,,,,,,,,,,,,,,,,,,,,,,,,,,,,,,,,
,,,,5,0.1965,,,,,,17,carrot,melon,,90369,001,2022-04-28_23h30.11.987,SPAMnetsValid,2021.1.4,MacIntel,60.0024001,,,,,,,,,,,,,5,0.1965,0,18,18,24,1,,,,,,,,,,,,,,,,,,,,,,,,,,,,,,,,,,,,,,,,,,,,,,,,,,,,,,,,,,,,,,,,,,,,,,
,,,,5,0.4472,,,,,,192,microwave,microwave,CHECK,90369,001,2022-04-28_23h30.11.987,SPAMnetsValid,2021.1.4,MacIntel,60.0024001,,,,,,,,,,,,,5,0.4472,0,19,19,53,1,,,,,,,,,,,,,,,,,,,,,,,,,,,,,,,,,,,,,,,,,,,,,,,,,,,,,,,,,,,,,,,,,,,,,,
,,,,5,0.2638,,,,,,76,garden,rose,,90369,001,2022-04-28_23h30.11.987,SPAMnetsValid,2021.1.4,MacIntel,60.0024001,,,,,,,,,,,,,5,0.2638,0,20,20,19,1,,,,,,,,,,,,,,,,,,,,,,,,,,,,,,,,,,,,,,,,,,,,,,,,,,,,,,,,,,,,,,,,,,,,,,
,,,,5,0.0304,,,,,,90,cactus,cake,,90369,001,2022-04-28_23h30.11.987,SPAMnetsValid,2021.1.4,MacIntel,60.0024001,,,,,,,,,,,,,5,0.0304,0,21,21,85,1,,,,,,,,,,,,,,,,,,,,,,,,,,,,,,,,,,,,,,,,,,,,,,,,,,,,,,,,,,,,,,,,,,,,,,
,,,,5,0.0466,,,,,,87,carrot,yogurt,,90369,001,2022-04-28_23h30.11.987,SPAMnetsValid,2021.1.4,MacIntel,60.0024001,,,,,,,,,,,,,5,0.0466,0,22,22,6,1,,,,,,,,,,,,,,,,,,,,,,,,,,,,,,,,,,,,,,,,,,,,,,,,,,,,,,,,,,,,,,,,,,,,,,
,,,,5,0.0472,,,,,,36,broom,kitchen,,90369,001,2022-04-28_23h30.11.987,SPAMnetsValid,2021.1.4,MacIntel,60.0024001,,,,,,,,,,,,,5,0.0472,0,23,23,76,1,,,,,,,,,,,,,,,,,,,,,,,,,,,,,,,,,,,,,,,,,,,,,,,,,,,,,,,,,,,,,,,,,,,,,,
,,,,5,0.114,,,,,,7,melon,tree,,90369,001,2022-04-28_23h30.11.987,SPAMnetsValid,2021.1.4,MacIntel,60.0024001,,,,,,,,,,,,,5,0.114,0,24,24,77,1,,,,,,,,,,,,,,,,,,,,,,,,,,,,,,,,,,,,,,,,,,,,,,,,,,,,,,,,,,,,,,,,,,,,,,
,,,,5,0.1145,,,,,,8,broom,melon,,90369,001,2022-04-28_23h30.11.987,SPAMnetsValid,2021.1.4,MacIntel,60.0024001,,,,,,,,,,,,,5,0.1145,0,25,25,59,1,,,,,,,,,,,,,,,,,,,,,,,,,,,,,,,,,,,,,,,,,,,,,,,,,,,,,,,,,,,,,,,,,,,,,,
,,,,5,0.1641,,,,,,39,melon,pretzel,,90369,001,2022-04-28_23h30.11.987,SPAMnetsValid,2021.1.4,MacIntel,60.0024001,,,,,,,,,,,,,5,0.1641,0,26,26,20,1,,,,,,,,,,,,,,,,,,,,,,,,,,,,,,,,,,,,,,,,,,,,,,,,,,,,,,,,,,,,,,,,,,,,,,
,,,,5,0.1971,,,,,,37,garden,refrigerator,,90369,001,2022-04-28_23h30.11.987,SPAMnetsValid,2021.1.4,MacIntel,60.0024001,,,,,,,,,,,,,5,0.1971,0,27,27,11,1,,,,,,,,,,,,,,,,,,,,,,,,,,,,,,,,,,,,,,,,,,,,,,,,,,,,,,,,,,,,,,,,,,,,,,
,,,,5,0.2308,,,,,,47,onion,tomato,,90369,001,2022-04-28_23h30.11.987,SPAMnetsValid,2021.1.4,MacIntel,60.0024001,,,,,,,,,,,,,5,0.2308,0,28,28,51,1,,,,,,,,,,,,,,,,,,,,,,,,,,,,,,,,,,,,,,,,,,,,,,,,,,,,,,,,,,,,,,,,,,,,,,
,,,,5,0.03,,,,,,34,melon,oven,,90369,001,2022-04-28_23h30.11.987,SPAMnetsValid,2021.1.4,MacIntel,60.0024001,,,,,,,,,,,,,5,0.03,0,29,29,7,1,,,,,,,,,,,,,,,,,,,,,,,,,,,,,,,,,,,,,,,,,,,,,,,,,,,,,,,,,,,,,,,,,,,,,,
,,,,5,0.0146,,,,,,59,rose,strawberry,,90369,001,2022-04-28_23h30.11.987,SPAMnetsValid,2021.1.4,MacIntel,60.0024001,,,,,,,,,,,,,5,0.0146,0,30,30,72,1,,,,,,,,,,,,,,,,,,,,,,,,,,,,,,,,,,,,,,,,,,,,,,,,,,,,,,,,,,,,,,,,,,,,,,
,,,,5,0.0304,,,,,,91,microwave,rose,,90369,001,2022-04-28_23h30.11.987,SPAMnetsValid,2021.1.4,MacIntel,60.0024001,,,,,,,,,,,,,5,0.0304,0,31,31,84,1,,,,,,,,,,,,,,,,,,,,,,,,,,,,,,,,,,,,,,,,,,,,,,,,,,,,,,,,,,,,,,,,,,,,,,
,,,,5,0.0299,,,,,,53,garden,pretzel,,90369,001,2022-04-28_23h30.11.987,SPAMnetsValid,2021.1.4,MacIntel,60.0024001,,,,,,,,,,,,,5,0.0299,0,32,32,0,1,,,,,,,,,,,,,,,,,,,,,,,,,,,,,,,,,,,,,,,,,,,,,,,,,,,,,,,,,,,,,,,,,,,,,,
,,,,5,0.0309,,,,,,82,cake,kitchen,,90369,001,2022-04-28_23h30.11.987,SPAMnetsValid,2021.1.4,MacIntel,60.0024001,,,,,,,,,,,,,5,0.0309,0,33,33,96,1,,,,,,,,,,,,,,,,,,,,,,,,,,,,,,,,,,,,,,,,,,,,,,,,,,,,,,,,,,,,,,,,,,,,,,
,,,,5,0.0309,,,,,,80,chocolate,tree,,90369,001,2022-04-28_23h30.11.987,SPAMnetsValid,2021.1.4,MacIntel,60.0024001,,,,,,,,,,,,,5,0.0309,0,34,34,89,1,,,,,,,,,,,,,,,,,,,,,,,,,,,,,,,,,,,,,,,,,,,,,,,,,,,,,,,,,,,,,,,,,,,,,,
,,,,5,0.0307,,,,,,4,chocolate,pretzel,,90369,001,2022-04-28_23h30.11.987,SPAMnetsValid,2021.1.4,MacIntel,60.0024001,,,,,,,,,,,,,5,0.0307,0,35,35,52,1,,,,,,,,,,,,,,,,,,,,,,,,,,,,,,,,,,,,,,,,,,,,,,,,,,,,,,,,,,,,,,,,,,,,,,
,,,,5,0.03,,,,,,35,flower,pretzel,,90369,001,2022-04-28_23h30.11.987,SPAMnetsValid,2021.1.4,MacIntel,60.0024001,,,,,,,,,,,,,5,0.03,0,36,36,26,1,,,,,,,,,,,,,,,,,,,,,,,,,,,,,,,,,,,,,,,,,,,,,,,,,,,,,,,,,,,,,,,,,,,,,,
,,,,5,0.2633,,,,,,57,flower,kitchen,,90369,001,2022-04-28_23h30.11.987,SPAMnetsValid,2021.1.4,MacIntel,60.0024001,,,,,,,,,,,,,5,0.2633,0,37,37,49,1,,,,,,,,,,,,,,,,,,,,,,,,,,,,,,,,,,,,,,,,,,,,,,,,,,,,,,,,,,,,,,,,,,,,,,
,,,,5,0.2637,,,,,,16,chocolate,flower,,90369,001,2022-04-28_23h30.11.987,SPAMnetsValid,2021.1.4,MacIntel,60.0024001,,,,,,,,,,,,,5,0.2637,0,38,38,22,1,,,,,,,,,,,,,,,,,,,,,,,,,,,,,,,,,,,,,,,,,,,,,,,,,,,,,,,,,,,,,,,,,,,,,,
,,,,5,0.2643,,,,,,43,chocolate,tomato,,90369,001,2022-04-28_23h30.11.987,SPAMnetsValid,2021.1.4,MacIntel,60.0024001,,,,,,,,,,,,,5,0.2643,0,39,39,8,1,,,,,,,,,,,,,,,,,,,,,,,,,,,,,,,,,,,,,,,,,,,,,,,,,,,,,,,,,,,,,,,,,,,,,,
,,,,5,0.2644,,,,,,71,broom,rose,,90369,001,2022-04-28_23h30.11.987,SPAMnetsValid,2021.1.4,MacIntel,60.0024001,,,,,,,,,,,,,5,0.2644,0,40,40,61,1,,,,,,,,,,,,,,,,,,,,,,,,,,,,,,,,,,,,,,,,,,,,,,,,,,,,,,,,,,,,,,,,,,,,,,
,,,,5,0.0287,,,,,,92,broom,flower,,90369,001,2022-04-28_23h30.11.987,SPAMnetsValid,2021.1.4,MacIntel,60.0024001,,,,,,,,,,,,,5,0.0287,0,41,41,88,1,,,,,,,,,,,,,,,,,,,,,,,,,,,,,,,,,,,,,,,,,,,,,,,,,,,,,,,,,,,,,,,,,,,,,,
,,,,5,0.2964,,,,,,15,onion,oven,,90369,001,2022-04-28_23h30.11.987,SPAMnetsValid,2021.1.4,MacIntel,60.0024001,,,,,,,,,,,,,5,0.2964,0,42,42,39,1,,,,,,,,,,,,,,,,,,,,,,,,,,,,,,,,,,,,,,,,,,,,,,,,,,,,,,,,,,,,,,,,,,,,,,
,,,,5,0.5307,,,,,,9,kitchen,refrigerator,,90369,001,2022-04-28_23h30.11.987,SPAMnetsValid,2021.1.4,MacIntel,60.0024001,,,,,,,,,,,,,5,0.5307,0,43,43,64,1,,,,,,,,,,,,,,,,,,,,,,,,,,,,,,,,,,,,,,,,,,,,,,,,,,,,,,,,,,,,,,,,,,,,,,
,,,,5,0.5304,,,,,,51,onion,strawberry,,90369,001,2022-04-28_23h30.11.987,SPAMnetsValid,2021.1.4,MacIntel,60.0024001,,,,,,,,,,,,,5,0.5304,0,44,44,86,1,,,,,,,,,,,,,,,,,,,,,,,,,,,,,,,,,,,,,,,,,,,,,,,,,,,,,,,,,,,,,,,,,,,,,,
,,,,5,0.5304,,,,,,22,kitchen,strawberry,,90369,001,2022-04-28_23h30.11.987,SPAMnetsValid,2021.1.4,MacIntel,60.0024001,,,,,,,,,,,,,5,0.5304,0,45,45,2,1,,,,,,,,,,,,,,,,,,,,,,,,,,,,,,,,,,,,,,,,,,,,,,,,,,,,,,,,,,,,,,,,,,,,,,
,,,,5,0.263,,,,,,24,cookie,tomato,,90369,001,2022-04-28_23h30.11.987,SPAMnetsValid,2021.1.4,MacIntel,60.0024001,,,,,,,,,,,,,5,0.263,0,46,46,68,1,,,,,,,,,,,,,,,,,,,,,,,,,,,,,,,,,,,,,,,,,,,,,,,,,,,,,,,,,,,,,,,,,,,,,,
,,,,5,0.0149,,,,,,31,cactus,pretzel,,90369,001,2022-04-28_23h30.11.987,SPAMnetsValid,2021.1.4,MacIntel,60.0024001,,,,,,,,,,,,,5,0.0149,0,47,47,1,1,,,,,,,,,,,,,,,,,,,,,,,,,,,,,,,,,,,,,,,,,,,,,,,,,,,,,,,,,,,,,,,,,,,,,,
,,,,5,0.0144,,,,,,11,refrigerator,tree,,90369,001,2022-04-28_23h30.11.987,SPAMnetsValid,2021.1.4,MacIntel,60.0024001,,,,,,,,,,,,,5,0.0144,0,48,48,43,1,,,,,,,,,,,,,,,,,,,,,,,,,,,,,,,,,,,,,,,,,,,,,,,,,,,,,,,,,,,,,,,,,,,,,,
,,,,5,0.2637,,,,,,6,garden,onion,,90369,001,2022-04-28_23h30.11.987,SPAMnetsValid,2021.1.4,MacIntel,60.0024001,,,,,,,,,,,,,5,0.2637,0,49,49,83,1,,,,,,,,,,,,,,,,,,,,,,,,,,,,,,,,,,,,,,,,,,,,,,,,,,,,,,,,,,,,,,,,,,,,,,
,,,,5,0.5134,,,,,,66,melon,yogurt,,90369,001,2022-04-28_23h30.11.987,SPAMnetsValid,2021.1.4,MacIntel,60.0024001,,,,,,,,,,,,,5,0.5134,0,50,50,48,1,,,,,,,,,,,,,,,,,,,,,,,,,,,,,,,,,,,,,,,,,,,,,,,,,,,,,,,,,,,,,,,,,,,,,,
,,,,5,0.264,,,,,,74,broom,pretzel,,90369,001,2022-04-28_23h30.11.987,SPAMnetsValid,2021.1.4,MacIntel,60.0024001,,,,,,,,,,,,,5,0.264,0,51,51,40,1,,,,,,,,,,,,,,,,,,,,,,,,,,,,,,,,,,,,,,,,,,,,,,,,,,,,,,,,,,,,,,,,,,,,,,
,,,,5,0.514,,,,,,30,cookie,pretzel,,90369,001,2022-04-28_23h30.11.987,SPAMnetsValid,2021.1.4,MacIntel,60.0024001,,,,,,,,,,,,,5,0.514,0,52,52,78,1,,,,,,,,,,,,,,,,,,,,,,,,,,,,,,,,,,,,,,,,,,,,,,,,,,,,,,,,,,,,,,,,,,,,,,
,,,,5,0.2635,,,,,,12,cookie,yogurt,,90369,001,2022-04-28_23h30.11.987,SPAMnetsValid,2021.1.4,MacIntel,60.0024001,,,,,,,,,,,,,5,0.2635,0,53,53,36,1,,,,,,,,,,,,,,,,,,,,,,,,,,,,,,,,,,,,,,,,,,,,,,,,,,,,,,,,,,,,,,,,,,,,,,
,,,,5,0.531,,,,,,75,cookie,onion,,90369,001,2022-04-28_23h30.11.987,SPAMnetsValid,2021.1.4,MacIntel,60.0024001,,,,,,,,,,,,,5,0.531,0,54,54,9,1,,,,,,,,,,,,,,,,,,,,,,,,,,,,,,,,,,,,,,,,,,,,,,,,,,,,,,,,,,,,,,,,,,,,,,
,,,,5,0.2644,,,,,,64,chocolate,garden,,90369,001,2022-04-28_23h30.11.987,SPAMnetsValid,2021.1.4,MacIntel,60.0024001,,,,,,,,,,,,,5,0.2644,0,55,55,14,1,,,,,,,,,,,,,,,,,,,,,,,,,,,,,,,,,,,,,,,,,,,,,,,,,,,,,,,,,,,,,,,,,,,,,,
,,,,5,0.0142,,,,,,45,onion,pretzel,,90369,001,2022-04-28_23h30.11.987,SPAMnetsValid,2021.1.4,MacIntel,60.0024001,,,,,,,,,,,,,5,0.0142,0,56,56,69,1,,,,,,,,,,,,,,,,,,,,,,,,,,,,,,,,,,,,,,,,,,,,,,,,,,,,,,,,,,,,,,,,,,,,,,
,,,,5,0.0298,,,,,,65,broom,garden,,90369,001,2022-04-28_23h30.11.987,SPAMnetsValid,2021.1.4,MacIntel,60.0024001,,,,,,,,,,,,,5,0.0298,0,57,57,23,1,,,,,,,,,,,,,,,,,,,,,,,,,,,,,,,,,,,,,,,,,,,,,,,,,,,,,,,,,,,,,,,,,,,,,,
,,,,5,0.0475,,,,,,5,oven,tree,,90369,001,2022-04-28_23h30.11.987,SPAMnetsValid,2021.1.4,MacIntel,60.0024001,,,,,,,,,,,,,5,0.0475,0,58,58,70,1,,,,,,,,,,,,,,,,,,,,,,,,,,,,,,,,,,,,,,,,,,,,,,,,,,,,,,,,,,,,,,,,,,,,,,
,,,,5,0.0809,,,,,,94,kitchen,microwave,,90369,001,2022-04-28_23h30.11.987,SPAMnetsValid,2021.1.4,MacIntel,60.0024001,,,,,,,,,,,,,5,0.0809,0,59,59,58,1,,,,,,,,,,,,,,,,,,,,,,,,,,,,,,,,,,,,,,,,,,,,,,,,,,,,,,,,,,,,,,,,,,,,,,
,,,,5,0.1148,,,,,,84,oven,tomato,,90369,001,2022-04-28_23h30.11.987,SPAMnetsValid,2021.1.4,MacIntel,60.0024001,,,,,,,,,,,,,5,0.1148,0,60,60,28,1,,,,,,,,,,,,,,,,,,,,,,,,,,,,,,,,,,,,,,,,,,,,,,,,,,,,,,,,,,,,,,,,,,,,,,
,,,,5,0.1628,,,,,,62,kitchen,rose,,90369,001,2022-04-28_23h30.11.987,SPAMnetsValid,2021.1.4,MacIntel,60.0024001,,,,,,,,,,,,,5,0.1628,0,61,61,57,1,,,,,,,,,,,,,,,,,,,,,,,,,,,,,,,,,,,,,,,,,,,,,,,,,,,,,,,,,,,,,,,,,,,,,,
,,,,5,0.1979,,,,,,83,broom,carrot,,90369,001,2022-04-28_23h30.11.987,SPAMnetsValid,2021.1.4,MacIntel,60.0024001,,,,,,,,,,,,,5,0.1979,0,62,62,4,1,,,,,,,,,,,,,,,,,,,,,,,,,,,,,,,,,,,,,,,,,,,,,,,,,,,,,,,,,,,,,,,,,,,,,,
,,,,5,0.1471,,,,,,55,tomato,tree,,90369,001,2022-04-28_23h30.11.987,SPAMnetsValid,2021.1.4,MacIntel,60.0024001,,,,,,,,,,,,,5,0.1471,0,63,63,35,1,,,,,,,,,,,,,,,,,,,,,,,,,,,,,,,,,,,,,,,,,,,,,,,,,,,,,,,,,,,,,,,,,,,,,,
,,,,5,0.1483,,,,,,88,cactus,melon,,90369,001,2022-04-28_23h30.11.987,SPAMnetsValid,2021.1.4,MacIntel,60.0024001,,,,,,,,,,,,,5,0.1483,0,64,64,38,1,,,,,,,,,,,,,,,,,,,,,,,,,,,,,,,,,,,,,,,,,,,,,,,,,,,,,,,,,,,,,,,,,,,,,,
,,,,5,0.1471,,,,,,27,cactus,cookie,,90369,001,2022-04-28_23h30.11.987,SPAMnetsValid,2021.1.4,MacIntel,60.0024001,,,,,,,,,,,,,5,0.1471,0,65,65,17,1,,,,,,,,,,,,,,,,,,,,,,,,,,,,,,,,,,,,,,,,,,,,,,,,,,,,,,,,,,,,,,,,,,,,,,
,,,,5,0.1298,,,,,,60,cactus,onion,,90369,001,2022-04-28_23h30.11.987,SPAMnetsValid,2021.1.4,MacIntel,60.0024001,,,,,,,,,,,,,5,0.1298,0,66,66,81,1,,,,,,,,,,,,,,,,,,,,,,,,,,,,,,,,,,,,,,,,,,,,,,,,,,,,,,,,,,,,,,,,,,,,,,
,,,,5,0.364,,,,,,68,flower,tomato,,90369,001,2022-04-28_23h30.11.987,SPAMnetsValid,2021.1.4,MacIntel,60.0024001,,,,,,,,,,,,,5,0.364,0,67,67,94,1,,,,,,,,,,,,,,,,,,,,,,,,,,,,,,,,,,,,,,,,,,,,,,,,,,,,,,,,,,,,,,,,,,,,,,
,,,,5,0.1634,,,,,,50,carrot,rose,,90369,001,2022-04-28_23h30.11.987,SPAMnetsValid,2021.1.4,MacIntel,60.0024001,,,,,,,,,,,,,5,0.1634,0,68,68,73,1,,,,,,,,,,,,,,,,,,,,,,,,,,,,,,,,,,,,,,,,,,,,,,,,,,,,,,,,,,,,,,,,,,,,,,
,,,,5,0.1637,,,,,,40,broom,cake,,90369,001,2022-04-28_23h30.11.987,SPAMnetsValid,2021.1.4,MacIntel,60.0024001,,,,,,,,,,,,,5,0.1637,0,69,69,32,1,,,,,,,,,,,,,,,,,,,,,,,,,,,,,,,,,,,,,,,,,,,,,,,,,,,,,,,,,,,,,,,,,,,,,,
,,,,5,0.1633,,,,,,29,chocolate,melon,,90369,001,2022-04-28_23h30.11.987,SPAMnetsValid,2021.1.4,MacIntel,60.0024001,,,,,,,,,,,,,5,0.1633,0,70,70,34,1,,,,,,,,,,,,,,,,,,,,,,,,,,,,,,,,,,,,,,,,,,,,,,,,,,,,,,,,,,,,,,,,,,,,,,
,,,,5,0.1632,,,,,,89,chocolate,rose,,90369,001,2022-04-28_23h30.11.987,SPAMnetsValid,2021.1.4,MacIntel,60.0024001,,,,,,,,,,,,,5,0.1632,0,71,71,60,1,,,,,,,,,,,,,,,,,,,,,,,,,,,,,,,,,,,,,,,,,,,,,,,,,,,,,,,,,,,,,,,,,,,,,,
,,,,5,0.1468,,,,,,18,onion,refrigerator,,90369,001,2022-04-28_23h30.11.987,SPAMnetsValid,2021.1.4,MacIntel,60.0024001,,,,,,,,,,,,,5,0.1468,0,72,72,62,1,,,,,,,,,,,,,,,,,,,,,,,,,,,,,,,,,,,,,,,,,,,,,,,,,,,,,,,,,,,,,,,,,,,,,,
,,,,5,0.1634,,,,,,1,rose,yogurt,,90369,001,2022-04-28_23h30.11.987,SPAMnetsValid,2021.1.4,MacIntel,60.0024001,,,,,,,,,,,,,5,0.1634,0,73,73,55,1,,,,,,,,,,,,,,,,,,,,,,,,,,,,,,,,,,,,,,,,,,,,,,,,,,,,,,,,,,,,,,,,,,,,,,
,,,,5,0.1637,,,,,,63,cake,cookie,,90369,001,2022-04-28_23h30.11.987,SPAMnetsValid,2021.1.4,MacIntel,60.0024001,,,,,,,,,,,,,5,0.1637,0,74,74,93,1,,,,,,,,,,,,,,,,,,,,,,,,,,,,,,,,,,,,,,,,,,,,,,,,,,,,,,,,,,,,,,,,,,,,,,
,,,,5,0.1641,,,,,,72,broom,onion,,90369,001,2022-04-28_23h30.11.987,SPAMnetsValid,2021.1.4,MacIntel,60.0024001,,,,,,,,,,,,,5,0.1641,0,75,75,27,1,,,,,,,,,,,,,,,,,,,,,,,,,,,,,,,,,,,,,,,,,,,,,,,,,,,,,,,,,,,,,,,,,,,,,,
,,,,5,0.1974,,,,,,78,cookie,rose,,90369,001,2022-04-28_23h30.11.987,SPAMnetsValid,2021.1.4,MacIntel,60.0024001,,,,,,,,,,,,,5,0.1974,0,76,76,56,1,,,,,,,,,,,,,,,,,,,,,,,,,,,,,,,,,,,,,,,,,,,,,,,,,,,,,,,,,,,,,,,,,,,,,,
,,,,5,0.1963,,,,,,19,microwave,pretzel,,90369,001,2022-04-28_23h30.11.987,SPAMnetsValid,2021.1.4,MacIntel,60.0024001,,,,,,,,,,,,,5,0.1963,0,77,77,41,1,,,,,,,,,,,,,,,,,,,,,,,,,,,,,,,,,,,,,,,,,,,,,,,,,,,,,,,,,,,,,,,,,,,,,,
,,,,5,0.0296,,,,,,3,cake,oven,,90369,001,2022-04-28_23h30.11.987,SPAMnetsValid,2021.1.4,MacIntel,60.0024001,,,,,,,,,,,,,5,0.0296,0,78,78,30,1,,,,,,,,,,,,,,,,,,,,,,,,,,,,,,,,,,,,,,,,,,,,,,,,,,,,,,,,,,,,,,,,,,,,,,
,,,,5,0.0301,,,,,,42,garden,kitchen,,90369,001,2022-04-28_23h30.11.987,SPAMnetsValid,2021.1.4,MacIntel,60.0024001,,,,,,,,,,,,,5,0.0301,0,79,79,29,1,,,,,,,,,,,,,,,,,,,,,,,,,,,,,,,,,,,,,,,,,,,,,,,,,,,,,,,,,,,,,,,,,,,,,,
,,,,5,0.0629,,,,,,13,broom,yogurt,,90369,001,2022-04-28_23h30.11.987,SPAMnetsValid,2021.1.4,MacIntel,60.0024001,,,,,,,,,,,,,5,0.0629,0,80,80,5,1,,,,,,,,,,,,,,,,,,,,,,,,,,,,,,,,,,,,,,,,,,,,,,,,,,,,,,,,,,,,,,,,,,,,,,
,,,,5,0.1464,,,,,,32,cake,microwave,,90369,001,2022-04-28_23h30.11.987,SPAMnetsValid,2021.1.4,MacIntel,60.0024001,,,,,,,,,,,,,5,0.1464,0,81,81,33,1,,,,,,,,,,,,,,,,,,,,,,,,,,,,,,,,,,,,,,,,,,,,,,,,,,,,,,,,,,,,,,,,,,,,,,
,,,,5,0.1807,,,,,,44,cookie,melon,,90369,001,2022-04-28_23h30.11.987,SPAMnetsValid,2021.1.4,MacIntel,60.0024001,,,,,,,,,,,,,5,0.1807,0,82,82,92,1,,,,,,,,,,,,,,,,,,,,,,,,,,,,,,,,,,,,,,,,,,,,,,,,,,,,,,,,,,,,,,,,,,,,,,
,,,,5,0.1957,,,,,,95,broom,refrigerator,,90369,001,2022-04-28_23h30.11.987,SPAMnetsValid,2021.1.4,MacIntel,60.0024001,,,,,,,,,,,,,5,0.1957,0,83,83,90,1,,,,,,,,,,,,,,,,,,,,,,,,,,,,,,,,,,,,,,,,,,,,,,,,,,,,,,,,,,,,,,,,,,,,,,
,,,,5,0.2294,,,,,,56,cactus,tree,,90369,001,2022-04-28_23h30.11.987,SPAMnetsValid,2021.1.4,MacIntel,60.0024001,,,,,,,,,,,,,5,0.2294,0,84,84,21,1,,,,,,,,,,,,,,,,,,,,,,,,,,,,,,,,,,,,,,,,,,,,,,,,,,,,,,,,,,,,,,,,,,,,,,
,,,,5,0.0477,,,,,,48,flower,oven,,90369,001,2022-04-28_23h30.11.987,SPAMnetsValid,2021.1.4,MacIntel,60.0024001,,,,,,,,,,,,,5,0.0477,0,85,85,15,1,,,,,,,,,,,,,,,,,,,,,,,,,,,,,,,,,,,,,,,,,,,,,,,,,,,,,,,,,,,,,,,,,,,,,,
,,,,5,0.1303,,,,,,20,rose,tree,,90369,001,2022-04-28_23h30.11.987,SPAMnetsValid,2021.1.4,MacIntel,60.0024001,,,,,,,,,,,,,5,0.1303,0,86,86,66,1,,,,,,,,,,,,,,,,,,,,,,,,,,,,,,,,,,,,,,,,,,,,,,,,,,,,,,,,,,,,,,,,,,,,,,
,,,,5,0.164,,,,,,14,broom,cookie,,90369,001,2022-04-28_23h30.11.987,SPAMnetsValid,2021.1.4,MacIntel,60.0024001,,,,,,,,,,,,,5,0.164,0,87,87,16,1,,,,,,,,,,,,,,,,,,,,,,,,,,,,,,,,,,,,,,,,,,,,,,,,,,,,,,,,,,,,,,,,,,,,,,
,,,,5,0.1962,,,,,,21,cake,onion,,90369,001,2022-04-28_23h30.11.987,SPAMnetsValid,2021.1.4,MacIntel,60.0024001,,,,,,,,,,,,,5,0.1962,0,88,88,63,1,,,,,,,,,,,,,,,,,,,,,,,,,,,,,,,,,,,,,,,,,,,,,,,,,,,,,,,,,,,,,,,,,,,,,,
,,,,5,0.2294,,,,,,61,strawberry,tomato,,90369,001,2022-04-28_23h30.11.987,SPAMnetsValid,2021.1.4,MacIntel,60.0024001,,,,,,,,,,,,,5,0.2294,0,89,89,80,1,,,,,,,,,,,,,,,,,,,,,,,,,,,,,,,,,,,,,,,,,,,,,,,,,,,,,,,,,,,,,,,,,,,,,,
,,,,5,0.064,,,,,,25,carrot,onion,,90369,001,2022-04-28_23h30.11.987,SPAMnetsValid,2021.1.4,MacIntel,60.0024001,,,,,,,,,,,,,5,0.064,0,90,90,44,1,,,,,,,,,,,,,,,,,,,,,,,,,,,,,,,,,,,,,,,,,,,,,,,,,,,,,,,,,,,,,,,,,,,,,,
,,,,5,0.1304,,,,,,46,garden,yogurt,,90369,001,2022-04-28_23h30.11.987,SPAMnetsValid,2021.1.4,MacIntel,60.0024001,,,,,,,,,,,,,5,0.1304,0,91,91,65,1,,,,,,,,,,,,,,,,,,,,,,,,,,,,,,,,,,,,,,,,,,,,,,,,,,,,,,,,,,,,,,,,,,,,,,
,,,,5,0.1965,,,,,,2,kitchen,onion,,90369,001,2022-04-28_23h30.11.987,SPAMnetsValid,2021.1.4,MacIntel,60.0024001,,,,,,,,,,,,,5,0.1965,0,92,92,91,1,,,,,,,,,,,,,,,,,,,,,,,,,,,,,,,,,,,,,,,,,,,,,,,,,,,,,,,,,,,,,,,,,,,,,,
,,,,5,0.1807,,,,,,85,cake,tree,,90369,001,2022-04-28_23h30.11.987,SPAMnetsValid,2021.1.4,MacIntel,60.0024001,,,,,,,,,,,,,5,0.1807,0,93,93,18,1,,,,,,,,,,,,,,,,,,,,,,,,,,,,,,,,,,,,,,,,,,,,,,,,,,,,,,,,,,,,,,,,,,,,,,
,,,,5,0.231,,,,,,49,flower,strawberry,,90369,001,2022-04-28_23h30.11.987,SPAMnetsValid,2021.1.4,MacIntel,60.0024001,,,,,,,,,,,,,5,0.231,0,94,94,3,1,,,,,,,,,,,,,,,,,,,,,,,,,,,,,,,,,,,,,,,,,,,,,,,,,,,,,,,,,,,,,,,,,,,,,,
,,,,5,0.0466,,,,,,73,broom,chocolate,,90369,001,2022-04-28_23h30.11.987,SPAMnetsValid,2021.1.4,MacIntel,60.0024001,,,,,,,,,,,,,5,0.0466,0,95,95,47,1,,,,,,,,,,,,,,,,,,,,,,,,,,,,,,,,,,,,,,,,,,,,,,,,,,,,,,,,,,,,,,,,,,,,,,
,,,,5,0.0805,,,,,,77,refrigerator,yogurt,,90369,001,2022-04-28_23h30.11.987,SPAMnetsValid,2021.1.4,MacIntel,60.0024001,,,,,,,,,,,,,5,0.0805,0,96,96,42,1,,,,,,,,,,,,,,,,,,,,,,,,,,,,,,,,,,,,,,,,,,,,,,,,,,,,,,,,,,,,,,,,,,,,,,
,,,,,,,,,,,,,,,90369,001,2022-04-28_23h30.11.987,SPAMnetsValid,2021.1.4,MacIntel,60.0024001,,,,,,,,,,,,,,,,,,,,0,0,0,0,1,,,,,,,,,,,,,,,,,,,,,,,,,,,,,,,,,,,,,,,,,,,,,,,,,,,,,,,,,,,,,,,,,
,,,,,,,,,,,,,,,90369,001,2022-04-28_23h30.11.987,SPAMnetsValid,2021.1.4,MacIntel,60.0024001,,,,,,0,1,1,0,1,1,0,,,,,,,,,,,,,,,,,,,,,,,,,,,,,,,,,,,,,,,,,,,,,,,,,,,,,,,,,,,,,,,,,,,,,,,,,,,,,
,,,,,,,,,,,,,,,90369,001,2022-04-28_23h30.11.987,SPAMnetsValid,2021.1.4,MacIntel,60.0024001,,,,,,,,,,,,,,,,,,,,,,,,,,,0,0,0,0,1,rancor,forbearance,ridicule,malice,bravery,3,,,,,,,,,,,,,,,,,,,,,,,,,,,,,,,,,,,,,,,,,,,,,,,,,,,,
,,,,,,,,,,,,,,,90369,001,2022-04-28_23h30.11.987,SPAMnetsValid,2021.1.4,MacIntel,60.0024001,,,,,,,,,,,,,,,,,,,,,,,,,,,0,1,1,1,1,raucous,empty,quiet,smooth,harsh,4,,,,,,,,,,,,,,,,,,,,,,,,,,,,,,,,,,,,,,,,,,,,,,,,,,,,
,,,,,,,,,,,,,,,90369,001,2022-04-28_23h30.11.987,SPAMnetsValid,2021.1.4,MacIntel,60.0024001,,,,,,,,,,,,,,,,,,,,,,,,,,,0,2,2,2,1,gargoyle,oil,medicine,carved waterspout,ugly building,3,,,,,,,,,,,,,,,,,,,,,,,,,,,,,,,,,,,,,,,,,,,,,,,,,,,,
,,,,,,,,,,,,,,,90369,001,2022-04-28_23h30.11.987,SPAMnetsValid,2021.1.4,MacIntel,60.0024001,,,,,,,,,,,,,,,,,,,,,,,,,3,0.5309,0,3,3,3,1,recrudesce,purify,renew activity,lack refinement,crush,2,,,,,,,,,,,,,,,,,,,,,,,,,,,,,,,,,,,,,,,,,,,,,,,,,,,,
,,,,,,,,,,,,,,,90369,001,2022-04-28_23h30.11.987,SPAMnetsValid,2021.1.4,MacIntel,60.0024001,,,,,,,,,,,,,,,,,,,,,,,,,3,0.5806,0,4,4,4,1,specious,"plausible, but not genuine",noteworthy,class or variety,roomy,1,,,,,,,,,,,,,,,,,,,,,,,,,,,,,,,,,,,,,,,,,,,,,,,,,,,,
,,,,,,,,,,,,,,,90369,001,2022-04-28_23h30.11.987,SPAMnetsValid,2021.1.4,MacIntel,60.0024001,,,,,,,,,,,,,,,,,,,,,,,,,3,0.4637,0,5,5,5,1,bauble,bubble,showy plaything,idle talk,confusion,2,,,,,,,,,,,,,,,,,,,,,,,,,,,,,,,,,,,,,,,,,,,,,,,,,,,,
,,,,,,,,,,,,,,,90369,001,2022-04-28_23h30.11.987,SPAMnetsValid,2021.1.4,MacIntel,60.0024001,,,,,,,,,,,,,,,,,,,,,,,,,3,0.2642,0,6,6,6,1,prolific,scarce,producing abundantly,reckless,speaking profanely,2,,,,,,,,,,,,,,,,,,,,,,,,,,,,,,,,,,,,,,,,,,,,,,,,,,,,
,,,,,,,,,,,,,,,90369,001,2022-04-28_23h30.11.987,SPAMnetsValid,2021.1.4,MacIntel,60.0024001,,,,,,,,,,,,,,,,,,,,,,,,,3,0.1803,0,7,7,7,1,opulent,party,wealthy,happy frame of mind,semiprecious stone,2,,,,,,,,,,,,,,,,,,,,,,,,,,,,,,,,,,,,,,,,,,,,,,,,,,,,
,,,,,,,,,,,,,,,90369,001,2022-04-28_23h30.11.987,SPAMnetsValid,2021.1.4,MacIntel,60.0024001,,,,,,,,,,,,,,,,,,,,,,,,,,,0,8,8,8,1,coercion,conspiracy,strategy,restraint,attraction,3,,,,,,,,,,,,,,,,,,,,,,,,,,,,,,,,,,,,,,,,,,,,,,,,,,,,
,,,,,,,,,,,,,,,90369,001,2022-04-28_23h30.11.987,SPAMnetsValid,2021.1.4,MacIntel,60.0024001,,,,,,,,,,,,,,,,,,,,,,,,,3,0.0318,0,9,9,9,1,hiatus,animal,calamity,dread,gap,4,,,,,,,,,,,,,,,,,,,,,,,,,,,,,,,,,,,,,,,,,,,,,,,,,,,,
,,,,,,,,,,,,,,,90369,001,2022-04-28_23h30.11.987,SPAMnetsValid,2021.1.4,MacIntel,60.0024001,,,,,,,,,,,,,,,,,,,,,,,,,3,0.0303,0,10,10,10,1,germane,microbe,contagious,relevant,different,3,,,,,,,,,,,,,,,,,,,,,,,,,,,,,,,,,,,,,,,,,,,,,,,,,,,,
,,,,,,,,,,,,,,,90369,001,2022-04-28_23h30.11.987,SPAMnetsValid,2021.1.4,MacIntel,60.0024001,,,,,,,,,,,,,,,,,,,,,,,,,3,0.0647,0,11,11,11,1,perfunctory,fundamental,formal,superficial,careful,3,,,,,,,,,,,,,,,,,,,,,,,,,,,,,,,,,,,,,,,,,,,,,,,,,,,,
,,,,,,,,,,,,,,,90369,001,2022-04-28_23h30.11.987,SPAMnetsValid,2021.1.4,MacIntel,60.0024001,,,,,,,,,,,,,,,,,,,,,,,,,3,0.0966,0,12,12,12,1,diverge,reveal,chant,distract the attention of,differ or turn off from,4,,,,,,,,,,,,,,,,,,,,,,,,,,,,,,,,,,,,,,,,,,,,,,,,,,,,
,,,,,,,,,,,,,,,90369,001,2022-04-28_23h30.11.987,SPAMnetsValid,2021.1.4,MacIntel,60.0024001,,,,,,,,,,,,,,,,,,,,,,,,,3,0.1302,0,13,13,13,1,evoke,take away,anger,connect,bring out,4,,,,,,,,,,,,,,,,,,,,,,,,,,,,,,,,,,,,,,,,,,,,,,,,,,,,
,,,,,,,,,,,,,,,90369,001,2022-04-28_23h30.11.987,SPAMnetsValid,2021.1.4,MacIntel,60.0024001,,,,,,,,,,,,,,,,,,,,,,,,,3,0.1305,0,14,14,14,1,pertinent,relevant,lying next to,necessary,bold,1,,,,,,,,,,,,,,,,,,,,,,,,,,,,,,,,,,,,,,,,,,,,,,,,,,,,
,,,,,,,,,,,,,,,90369,001,2022-04-28_23h30.11.987,SPAMnetsValid,2021.1.4,MacIntel,60.0024001,,,,,,,,,,,,,,,,,,,,,,,,,3,0.1302,0,15,15,15,1,holocaust,entirety,destruction,saintly,price,2,,,,,,,,,,,,,,,,,,,,,,,,,,,,,,,,,,,,,,,,,,,,,,,,,,,,
,,,,,,,,,,,,,,,90369,001,2022-04-28_23h30.11.987,SPAMnetsValid,2021.1.4,MacIntel,60.0024001,,,,,,,,,,,,,,,,,,,,,,,,,3,0.1478,0,16,16,16,1,piquant,mellow,fish,pungent,cloth,3,,,,,,,,,,,,,,,,,,,,,,,,,,,,,,,,,,,,,,,,,,,,,,,,,,,,
,,,,,,,,,,,,,,,90369,001,2022-04-28_23h30.11.987,SPAMnetsValid,2021.1.4,MacIntel,60.0024001,,,,,,,,,,,,,,,,,,,,,,,,,3,0.1473,0,17,17,17,1,firmament,foundation,heavens,strong,glue,2,,,,,,,,,,,,,,,,,,,,,,,,,,,,,,,,,,,,,,,,,,,,,,,,,,,,
,,,,,,,,,,,,,,,90369,001,2022-04-28_23h30.11.987,SPAMnetsValid,2021.1.4,MacIntel,60.0024001,,,,,,,,,,,,,,,,,,,,,,,,,,,,,,,,,,,,,,4,0.1375,0,0,0,0,1,marketable,partisan,jocular,marriageable,salable,essential,4,,,,,,,,,,,,,,,,,,,,,,,,,,,,,,,,,,,,,,
,,,,,,,,,,,,,,,90369,001,2022-04-28_23h30.11.987,SPAMnetsValid,2021.1.4,MacIntel,60.0024001,,,,,,,,,,,,,,,,,,,,,,,,,,,,,,,,,,,,,,4,0.4303,0,1,1,1,1,cottontail,squirrel,poplar,boa,marshy plant,rabbit,5,,,,,,,,,,,,,,,,,,,,,,,,,,,,,,,,,,,,,,
,,,,,,,,,,,,,,,90369,001,2022-04-28_23h30.11.987,SPAMnetsValid,2021.1.4,MacIntel,60.0024001,,,,,,,,,,,,,,,,,,,,,,,,,,,,,,,,,,,,,,4,0.0636,0,2,2,2,1,boggy,afraid,false,marshy,dense,black,3,,,,,,,,,,,,,,,,,,,,,,,,,,,,,,,,,,,,,,
,,,,,,,,,,,,,,,90369,001,2022-04-28_23h30.11.987,SPAMnetsValid,2021.1.4,MacIntel,60.0024001,,,,,,,,,,,,,,,,,,,,,,,,,,,,,,,,,,,,,,4,0.0814,0,3,3,3,1,gruesomeness,blackness,falseness,vindictiveness,drunkenness,ghastliness,5,,,,,,,,,,,,,,,,,,,,,,,,,,,,,,,,,,,,,,
,,,,,,,,,,,,,,,90369,001,2022-04-28_23h30.11.987,SPAMnetsValid,2021.1.4,MacIntel,60.0024001,,,,,,,,,,,,,,,,,,,,,,,,,,,,,,,,,,,,,,4,0.0803,0,4,4,4,1,loathing,diffidence,laziness,abhorrence,cleverness,comfort,3,,,,,,,,,,,,,,,,,,,,,,,,,,,,,,,,,,,,,,
,,,,,,,,,,,,,,,90369,001,2022-04-28_23h30.11.987,SPAMnetsValid,2021.1.4,MacIntel,60.0024001,,,,,,,,,,,,,,,,,,,,,,,,,,,,,,,,,,,,,,4,0.1309,0,5,5,5,1,bantam,fowl,ridicule,cripple,vegetable,ensign,1,,,,,,,,,,,,,,,,,,,,,,,,,,,,,,,,,,,,,,
,,,,,,,,,,,,,,,90369,001,2022-04-28_23h30.11.987,SPAMnetsValid,2021.1.4,MacIntel,60.0024001,,,,,,,,,,,,,,,,,,,,,,,,,,,,,,,,,,,,,,4,0.1122,0,6,6,6,1,evoke,wake up,surrender,reconnoiter,transcend,call forth,5,,,,,,,,,,,,,,,,,,,,,,,,,,,,,,,,,,,,,,
,,,,,,,,,,,,,,,90369,001,2022-04-28_23h30.11.987,SPAMnetsValid,2021.1.4,MacIntel,60.0024001,,,,,,,,,,,,,,,,,,,,,,,,,,,,,,,,,,,,,,4,0.1314,0,7,7,7,1,unobtrusive,unintelligent,epileptic,illogical,lineal,modest,5,,,,,,,,,,,,,,,,,,,,,,,,,,,,,,,,,,,,,,
,,,,,,,,,,,,,,,90369,001,2022-04-28_23h30.11.987,SPAMnetsValid,2021.1.4,MacIntel,60.0024001,,,,,,,,,,,,,,,,,,,,,,,,,,,,,,,,,,,,,,4,0.1489,0,8,8,8,1,terrain,ice cream,final test,tractor,area of ground,weight,4,,,,,,,,,,,,,,,,,,,,,,,,,,,,,,,,,,,,,,
,,,,,,,,,,,,,,,90369,001,2022-04-28_23h30.11.987,SPAMnetsValid,2021.1.4,MacIntel,60.0024001,,,,,,,,,,,,,,,,,,,,,,,,,,,,,,,,,,,,,,4,0.1482,0,9,9,9,1,capriciousness,stubbornness,courage,whimsicality,amazement,greediness,3,,,,,,,,,,,,,,,,,,,,,,,,,,,,,,,,,,,,,,
,,,,,,,,,,,,,,,90369,001,2022-04-28_23h30.11.987,SPAMnetsValid,2021.1.4,MacIntel,60.0024001,,,,,,,,,,,,,,,,,,,,,,,,,,,,,,,,,,,,,,4,0.1305,0,10,10,10,1,maelstrom,slander,whirlpool,enmity,armor,majolica,2,,,,,,,,,,,,,,,,,,,,,,,,,,,,,,,,,,,,,,
,,,,,,,,,,,,,,,90369,001,2022-04-28_23h30.11.987,SPAMnetsValid,2021.1.4,MacIntel,60.0024001,,,,,,,,,,,,,,,,,,,,,,,,,,,,,,,,,,,,,,4,0.1139,0,11,11,11,1,tentative,critical,conclusive,authentic,provisional,apprehensive,4,,,,,,,,,,,,,,,,,,,,,,,,,,,,,,,,,,,,,,
,,,,,,,,,,,,,,,90369,001,2022-04-28_23h30.11.987,SPAMnetsValid,2021.1.4,MacIntel,60.0024001,,,,,,,,,,,,,,,,,,,,,,,,,,,,,,,,,,,,,,4,0.1313,0,12,12,12,1,placate,rehabilitate,plagiarize,depredate,apprise,conciliate,5,,,,,,,,,,,,,,,,,,,,,,,,,,,,,,,,,,,,,,
,,,,,,,,,,,,,,,90369,001,2022-04-28_23h30.11.987,SPAMnetsValid,2021.1.4,MacIntel,60.0024001,,,,,,,,,,,,,,,,,,,,,,,,,,,,,,,,,,,,,,4,0.1481,0,13,13,13,1,surcease,enlightenment,cessation,inattention,censor,substitution,2,,,,,,,,,,,,,,,,,,,,,,,,,,,,,,,,,,,,,,
,,,,,,,,,,,,,,,90369,001,2022-04-28_23h30.11.987,SPAMnetsValid,2021.1.4,MacIntel,60.0024001,,,,,,,,,,,,,,,,,,,,,,,,,,,,,,,,,,,,,,4,0.1473,0,14,14,14,1,apathetic,wandering,impassive,hateful,prophetic,overflowing,2,,,,,,,,,,,,,,,,,,,,,,,,,,,,,,,,,,,,,,
,,,,,,,,,,,,,,,90369,001,2022-04-28_23h30.11.987,SPAMnetsValid,2021.1.4,MacIntel,60.0024001,,,,,,,,,,,,,,,,,,,,,,,,,,,,,,,,,,,,,,4,0.1659,0,15,15,15,1,paternoster,paternalism,patricide,malediction,benediction,prayer,5,,,,,,,,,,,,,,,,,,,,,,,,,,,,,,,,,,,,,,
,,,,,,,,,,,,,,,90369,001,2022-04-28_23h30.11.987,SPAMnetsValid,2021.1.4,MacIntel,60.0024001,,,,,,,,,,,,,,,,,,,,,,,,,,,,,,,,,,,,,,4,0.1478,0,16,16,16,1,opalescence,opulence,senescence,bankruptcy,iridescence,assiduity,4,,,,,,,,,,,,,,,,,,,,,,,,,,,,,,,,,,,,,,
,,,,,,,,,,,,,,,90369,001,2022-04-28_23h30.11.987,SPAMnetsValid,2021.1.4,MacIntel,60.0024001,,,,,,,,,,,,,,,,,,,,,,,,,,,,,,,,,,,,,,4,0.1478,0,17,17,17,1,lush,stupid,luxurious,hazy,putrid,languishing,2,,,,,,,,,,,,,,,,,,,,,,,,,,,,,,,,,,,,,,
,,,,,,,,,,,,,,,90369,001,2022-04-28_23h30.11.987,SPAMnetsValid,2021.1.4,MacIntel,60.0024001,,,,,,,,,,,,,,,,,,,,,,,,,,,,,,,,,,,,,,4,0.1304,0,18,18,18,1,curtailment,expenditure,abandonment,abridgment,improvement,forgery,3,,,,,,,,,,,,,,,,,,,,,,,,,,,,,,,,,,,,,,
,,,,,,,,,,,,,,,90369,001,2022-04-28_23h30.11.987,SPAMnetsValid,2021.1.4,MacIntel,60.0024001,,,,,,,,,,,,,,,,,,,,,,,,,,,,,,,,,,,,,,4,0.1319,0,19,19,19,1,perversity,adversity,perviousness,travesty,waywardness,gentility,4,,,,,,,,,,,,,,,,,,,,,,,,,,,,,,,,,,,,,,
,,,,,,,,,,,,,,,90369,001,2022-04-28_23h30.11.987,SPAMnetsValid,2021.1.4,MacIntel,60.0024001,,,,,,,,,,,,,,,,,,,,,,,,,,,,,,,,,,,,,,4,0.115,0,20,20,20,1,calumnious,complimentary,analogous,slanderous,tempestuous,magnanimous,3,,,,,,,,,,,,,,,,,,,,,,,,,,,,,,,,,,,,,,
,,,,,,,,,,,,,,,90369,001,2022-04-28_23h30.11.987,SPAMnetsValid,2021.1.4,MacIntel,60.0024001,,,,,,,,,,,,,,,,,,,,,,,,,,,,,,,,,,,,,,4,0.1147,0,21,21,21,1,illiberality,bigotry,imbecility,illegibility,cautery,immaturity,1,,,,,,,,,,,,,,,,,,,,,,,,,,,,,,,,,,,,,,
,,,,,,,,,,,,,,,90369,001,2022-04-28_23h30.11.987,SPAMnetsValid,2021.1.4,MacIntel,60.0024001,,,,,,,,,,,,,,,,,,,,,,,,,,,,,,,,,,,,,,4,0.1316,0,22,22,22,1,clabber,rejoice,gossip,curdle,crow,hobble,3,,,,,,,,,,,,,,,,,,,,,,,,,,,,,,,,,,,,,,
,,,,,,,,,,,,,,,90369,001,2022-04-28_23h30.11.987,SPAMnetsValid,2021.1.4,MacIntel,60.0024001,,,,,,,,,,,,,,,,,,,,,,,,,,,,,,,,,,,,,,4,0.1644,0,23,23,23,1,sedulousness,diligence,credulousness,seduction,perilousness,frankness,1,,,,,,,,,,,,,,,,,,,,,,,,,,,,,,,,,,,,,,
,,,,,,,,,,,,,,,90369,001,2022-04-28_23h30.11.987,SPAMnetsValid,2021.1.4,MacIntel,60.0024001,,,,,,,,,,,,,,,,,,,,,,,,,,,,,,,,,,,,,,,,,,,,,,,,,,,,,candle,0,0,0,0,1,,,,,,,,,,,,,,,,,,,,,,,,,,,,,,,
,,,,,,,,,,,,,,,90369,001,2022-04-28_23h30.11.987,SPAMnetsValid,2021.1.4,MacIntel,60.0024001,,,,,,,,,,,,,,,,,,,,,,,,,,,,,,,,,,,,,,,,,,,,,,,,,,,,light,candle,1,0,1,0,1,,,,,,,,,,,,,,,,,,,,,,,,,,,,,,,
,,,,,,,,,,,,,,,90369,001,2022-04-28_23h30.11.987,SPAMnetsValid,2021.1.4,MacIntel,60.0024001,,,,,,,,,,,,,,,,,,,,,,,,,,,,,,,,,,,,,,,,,,,,,,,,,,,,light,candle,2,0,2,0,1,,,,,,,,,,,,,,,,,,,,,,,,,,,,,,,
,,,,,,,,,,,,,,,90369,001,2022-04-28_23h30.11.987,SPAMnetsValid,2021.1.4,MacIntel,60.0024001,,,,,,,,,,,,,,,,,,,,,,,,,,,,,,,,,,,,,,,,,,,,,,,,,,,,fire,candle,3,0,3,0,1,,,,,,,,,,,,,,,,,,,,,,,,,,,,,,,
,,,,,,,,,,,,,,,90369,001,2022-04-28_23h30.11.987,SPAMnetsValid,2021.1.4,MacIntel,60.0024001,,,,,,,,,,,,,,,,,,,,,,,,,,,,,,,,,,,,,,,,,,,,,,,,,,,,fire ,candle,4,0,4,0,1,,,,,,,,,,,,,,,,,,,,,,,,,,,,,,,
,,,,,,,,,,,,,,,90369,001,2022-04-28_23h30.11.987,SPAMnetsValid,2021.1.4,MacIntel,60.0024001,,,,,,,,,,,,,,,,,,,,,,,,,,,,,,,,,,,,,,,,,,,,,,,,,,,,light,candle,5,0,5,0,1,,,,,,,,,,,,,,,,,,,,,,,,,,,,,,,
,,,,,,,,,,,,,,,90369,001,2022-04-28_23h30.11.987,SPAMnetsValid,2021.1.4,MacIntel,60.0024001,,,,,,,,,,,,,,,,,,,,,,,,,,,,,,,,,,,,,,,,,,,,,,,,,,,,fire,candle,6,0,6,0,1,,,,,,,,,,,,,,,,,,,,,,,,,,,,,,,
,,,,,,,,,,,,,,,90369,001,2022-04-28_23h30.11.987,SPAMnetsValid,2021.1.4,MacIntel,60.0024001,,,,,,,,,,,,,,,,,,,,,,,,,,,,,,,,,,,,,,,,,,,,,,,,,,,,heat,candle,7,0,7,0,1,,,,,,,,,,,,,,,,,,,,,,,,,,,,,,,
,,,,,,,,,,,,,,,90369,001,2022-04-28_23h30.11.987,SPAMnetsValid,2021.1.4,MacIntel,60.0024001,,,,,,,,,,,,,,,,,,,,,,,,,,,,,,,,,,,,,,,,,,,,,,,,,,,,smell,candle,8,0,8,0,1,,,,,,,,,,,,,,,,,,,,,,,,,,,,,,,
,,,,,,,,,,,,,,,90369,001,2022-04-28_23h30.11.987,SPAMnetsValid,2021.1.4,MacIntel,60.0024001,,,,,,,,,,,,,,,,,,,,,,,,,,,,,,,,,,,,,,,,,,,,,,,,,,,,burning away demons,candle,9,0,9,0,1,,,,,,,,,,,,,,,,,,,,,,,,,,,,,,,
,,,,,,,,,,,,,,,90369,001,2022-04-28_23h30.11.987,SPAMnetsValid,2021.1.4,MacIntel,60.0024001,,,,,,,,,,,,,,,,,,,,,,,,,,,,,,,,,,,,,,,,,,,,,,,,,,,,,,,,,,,0,0,0,1,1,candle,,,,,,,,,,,,,,,,,,,,,,,,,
,,,,,,,,,,,,,,,90369,001,2022-04-28_23h30.11.987,SPAMnetsValid,2021.1.4,MacIntel,60.0024001,,,,,,,,,,,,,,,,,,,,,,,,,,,,,,,,,,,,,,,,,,,,,,,,,,,,sleep,pillow,0,0,0,0,1,,,,,,,,,,,,,,,,,,,,,,,,,,,,,,,
,,,,,,,,,,,,,,,90369,001,2022-04-28_23h30.11.987,SPAMnetsValid,2021.1.4,MacIntel,60.0024001,,,,,,,,,,,,,,,,,,,,,,,,,,,,,,,,,,,,,,,,,,,,,,,,,,,,weapon,pillow,1,0,1,0,1,,,,,,,,,,,,,,,,,,,,,,,,,,,,,,,
,,,,,,,,,,,,,,,90369,001,2022-04-28_23h30.11.987,SPAMnetsValid,2021.1.4,MacIntel,60.0024001,,,,,,,,,,,,,,,,,,,,,,,,,,,,,,,,,,,,,,,,,,,,,,,,,,,,coolness,pillow,2,0,2,0,1,,,,,,,,,,,,,,,,,,,,,,,,,,,,,,,
,,,,,,,,,,,,,,,90369,001,2022-04-28_23h30.11.987,SPAMnetsValid,2021.1.4,MacIntel,60.0024001,,,,,,,,,,,,,,,,,,,,,,,,,,,,,,,,,,,,,,,,,,,,,,,,,,,,,,,,,,,0,1,1,2,1,pillow,,,,,,,,,,,,,,,,,,,,,,,,,
,,,,,,,,,,,,,,,90369,001,2022-04-28_23h30.11.987,SPAMnetsValid,2021.1.4,MacIntel,60.0024001,,,,,,,,,,,,,,,,,,,,,,,,,,,,,,,,,,,,,,,,,,,,,,,,,,,,weapon,bucket,0,0,0,0,1,,,,,,,,,,,,,,,,,,,,,,,,,,,,,,,
,,,,,,,,,,,,,,,90369,001,2022-04-28_23h30.11.987,SPAMnetsValid,2021.1.4,MacIntel,60.0024001,,,,,,,,,,,,,,,,,,,,,,,,,,,,,,,,,,,,,,,,,,,,,,,,,,,,armor,bucket,1,0,1,0,1,,,,,,,,,,,,,,,,,,,,,,,,,,,,,,,
,,,,,,,,,,,,,,,90369,001,2022-04-28_23h30.11.987,SPAMnetsValid,2021.1.4,MacIntel,60.0024001,,,,,,,,,,,,,,,,,,,,,,,,,,,,,,,,,,,,,,,,,,,,,,,,,,,,wedge,bucket,2,0,2,0,1,,,,,,,,,,,,,,,,,,,,,,,,,,,,,,,
,,,,,,,,,,,,,,,90369,001,2022-04-28_23h30.11.987,SPAMnetsValid,2021.1.4,MacIntel,60.0024001,,,,,,,,,,,,,,,,,,,,,,,,,,,,,,,,,,,,,,,,,,,,,,,,,,,,carry stuff,bucket,3,0,3,0,1,,,,,,,,,,,,,,,,,,,,,,,,,,,,,,,
,,,,,,,,,,,,,,,90369,001,2022-04-28_23h30.11.987,SPAMnetsValid,2021.1.4,MacIntel,60.0024001,,,,,,,,,,,,,,,,,,,,,,,,,,,,,,,,,,,,,,,,,,,,,,,,,,,,water ,bucket,4,0,4,0,1,,,,,,,,,,,,,,,,,,,,,,,,,,,,,,,
,,,,,,,,,,,,,,,90369,001,2022-04-28_23h30.11.987,SPAMnetsValid,2021.1.4,MacIntel,60.0024001,,,,,,,,,,,,,,,,,,,,,,,,,,,,,,,,,,,,,,,,,,,,,,,,,,,,juggling,bucket,5,0,5,0,1,,,,,,,,,,,,,,,,,,,,,,,,,,,,,,,
,,,,,,,,,,,,,,,90369,001,2022-04-28_23h30.11.987,SPAMnetsValid,2021.1.4,MacIntel,60.0024001,,,,,,,,,,,,,,,,,,,,,,,,,,,,,,,,,,,,,,,,,,,,,,,,,,,,,,,,,,,0,2,2,0,1,bucket,,,,,,,,,,,,,,,,,,,,,,,,,
,,,,,,,,,,,,,,,90369,001,2022-04-28_23h30.11.987,SPAMnetsValid,2021.1.4,MacIntel,60.0024001,,,,,,,,,,,,,,,,,,,,,,,,,,,,,,,,,,,,,,,,,,,,,,,,,,,,,,,,,,,,,,,,,cows,Animals,0,0,0,0,1,,,,,,,,,,,,,,,,,,
,,,,,,,,,,,,,,,90369,001,2022-04-28_23h30.11.987,SPAMnetsValid,2021.1.4,MacIntel,60.0024001,,,,,,,,,,,,,,,,,,,,,,,,,,,,,,,,,,,,,,,,,,,,,,,,,,,,,,,,,,,,,,,,,cats,Animals,1,0,1,0,1,,,,,,,,,,,,,,,,,,
,,,,,,,,,,,,,,,90369,001,2022-04-28_23h30.11.987,SPAMnetsValid,2021.1.4,MacIntel,60.0024001,,,,,,,,,,,,,,,,,,,,,,,,,,,,,,,,,,,,,,,,,,,,,,,,,,,,,,,,,,,,,,,,,dogs,Animals,2,0,2,0,1,,,,,,,,,,,,,,,,,,
,,,,,,,,,,,,,,,90369,001,2022-04-28_23h30.11.987,SPAMnetsValid,2021.1.4,MacIntel,60.0024001,,,,,,,,,,,,,,,,,,,,,,,,,,,,,,,,,,,,,,,,,,,,,,,,,,,,,,,,,,,,,,,,,birds,Animals,3,0,3,0,1,,,,,,,,,,,,,,,,,,
,,,,,,,,,,,,,,,90369,001,2022-04-28_23h30.11.987,SPAMnetsValid,2021.1.4,MacIntel,60.0024001,,,,,,,,,,,,,,,,,,,,,,,,,,,,,,,,,,,,,,,,,,,,,,,,,,,,,,,,,,,,,,,,,ducks,Animals,4,0,4,0,1,,,,,,,,,,,,,,,,,,
,,,,,,,,,,,,,,,90369,001,2022-04-28_23h30.11.987,SPAMnetsValid,2021.1.4,MacIntel,60.0024001,,,,,,,,,,,,,,,,,,,,,,,,,,,,,,,,,,,,,,,,,,,,,,,,,,,,,,,,,,,,,,,,,lions,Animals,5,0,5,0,1,,,,,,,,,,,,,,,,,,
,,,,,,,,,,,,,,,90369,001,2022-04-28_23h30.11.987,SPAMnetsValid,2021.1.4,MacIntel,60.0024001,,,,,,,,,,,,,,,,,,,,,,,,,,,,,,,,,,,,,,,,,,,,,,,,,,,,,,,,,,,,,,,,,cheetahs,Animals,6,0,6,0,1,,,,,,,,,,,,,,,,,,
,,,,,,,,,,,,,,,90369,001,2022-04-28_23h30.11.987,SPAMnetsValid,2021.1.4,MacIntel,60.0024001,,,,,,,,,,,,,,,,,,,,,,,,,,,,,,,,,,,,,,,,,,,,,,,,,,,,,,,,,,,,,,,,,tigers,Animals,7,0,7,0,1,,,,,,,,,,,,,,,,,,
,,,,,,,,,,,,,,,90369,001,2022-04-28_23h30.11.987,SPAMnetsValid,2021.1.4,MacIntel,60.0024001,,,,,,,,,,,,,,,,,,,,,,,,,,,,,,,,,,,,,,,,,,,,,,,,,,,,,,,,,,,,,,,,,eagles,Animals,8,0,8,0,1,,,,,,,,,,,,,,,,,,
,,,,,,,,,,,,,,,90369,001,2022-04-28_23h30.11.987,SPAMnetsValid,2021.1.4,MacIntel,60.0024001,,,,,,,,,,,,,,,,,,,,,,,,,,,,,,,,,,,,,,,,,,,,,,,,,,,,,,,,,,,,,,,,,bison,Animals,9,0,9,0,1,,,,,,,,,,,,,,,,,,
,,,,,,,,,,,,,,,90369,001,2022-04-28_23h30.11.987,SPAMnetsValid,2021.1.4,MacIntel,60.0024001,,,,,,,,,,,,,,,,,,,,,,,,,,,,,,,,,,,,,,,,,,,,,,,,,,,,,,,,,,,,,,,,,bull,Animals,10,0,10,0,1,,,,,,,,,,,,,,,,,,
,,,,,,,,,,,,,,,90369,001,2022-04-28_23h30.11.987,SPAMnetsValid,2021.1.4,MacIntel,60.0024001,,,,,,,,,,,,,,,,,,,,,,,,,,,,,,,,,,,,,,,,,,,,,,,,,,,,,,,,,,,,,,,,,monkey,Animals,11,0,11,0,1,,,,,,,,,,,,,,,,,,
,,,,,,,,,,,,,,,90369,001,2022-04-28_23h30.11.987,SPAMnetsValid,2021.1.4,MacIntel,60.0024001,,,,,,,,,,,,,,,,,,,,,,,,,,,,,,,,,,,,,,,,,,,,,,,,,,,,,,,,,,,,,,,,,ape,Animals,12,0,12,0,1,,,,,,,,,,,,,,,,,,
,,,,,,,,,,,,,,,90369,001,2022-04-28_23h30.11.987,SPAMnetsValid,2021.1.4,MacIntel,60.0024001,,,,,,,,,,,,,,,,,,,,,,,,,,,,,,,,,,,,,,,,,,,,,,,,,,,,,,,,,,,,,,,,,organtuan,Animals,13,0,13,0,1,,,,,,,,,,,,,,,,,,
,,,,,,,,,,,,,,,90369,001,2022-04-28_23h30.11.987,SPAMnetsValid,2021.1.4,MacIntel,60.0024001,,,,,,,,,,,,,,,,,,,,,,,,,,,,,,,,,,,,,,,,,,,,,,,,,,,,,,,,,,,,,,,,,,Animals,14,0,14,0,1,,,,,,,,,,,,,,,,,,
,,,,,,,,,,,,,,,90369,001,2022-04-28_23h30.11.987,SPAMnetsValid,2021.1.4,MacIntel,60.0024001,,,,,,,,,,,,,,,,,,,,,,,,,,,,,,,,,,,,,,,,,,,,,,,,,,,,,,,,,,,,,,,,,,Animals,15,0,15,0,1,,,,,,,,,,,,,,,,,,
,,,,,,,,,,,,,,,90369,001,2022-04-28_23h30.11.987,SPAMnetsValid,2021.1.4,MacIntel,60.0024001,,,,,,,,,,,,,,,,,,,,,,,,,,,,,,,,,,,,,,,,,,,,,,,,,,,,,,,,,,,,,,,,,goat,Animals,16,0,16,0,1,,,,,,,,,,,,,,,,,,
,,,,,,,,,,,,,,,90369,001,2022-04-28_23h30.11.987,SPAMnetsValid,2021.1.4,MacIntel,60.0024001,,,,,,,,,,,,,,,,,,,,,,,,,,,,,,,,,,,,,,,,,,,,,,,,,,,,,,,,,,,,,,,,,badger,Animals,17,0,17,0,1,,,,,,,,,,,,,,,,,,
,,,,,,,,,,,,,,,90369,001,2022-04-28_23h30.11.987,SPAMnetsValid,2021.1.4,MacIntel,60.0024001,,,,,,,,,,,,,,,,,,,,,,,,,,,,,,,,,,,,,,,,,,,,,,,,,,,,,,,,,,,,,,,,,owl,Animals,18,0,18,0,1,,,,,,,,,,,,,,,,,,
,,,,,,,,,,,,,,,90369,001,2022-04-28_23h30.11.987,SPAMnetsValid,2021.1.4,MacIntel,60.0024001,,,,,,,,,,,,,,,,,,,,,,,,,,,,,,,,,,,,,,,,,,,,,,,,,,,,,,,,,,,,,,,,,,,,,,,,0,0,0,0,1,Animals,,,,,,,,,,,,
,,,,,,,,,,,,,,,90369,001,2022-04-28_23h30.11.987,SPAMnetsValid,2021.1.4,MacIntel,60.0024001,,,,,,,,,,,,,,,,,,,,,,,,,,,,,,,,,,,,,,,,,,,,,,,,,,,,,,,,,,,,,,,,,,,,,,,,,,,,,,3,1.451,0,0,0,0,1,"I enjoy concentrating on a fantasy or daydream and exploring all its possibilities, letting it grow and develop.",0,1,,
,,,,,,,,,,,,,,,90369,001,2022-04-28_23h30.11.987,SPAMnetsValid,2021.1.4,MacIntel,60.0024001,,,,,,,,,,,,,,,,,,,,,,,,,,,,,,,,,,,,,,,,,,,,,,,,,,,,,,,,,,,,,,,,,,,,,,,,,,,,,,3,0.5426,0,1,1,1,1,I think it's interesting to learn and develop new hobbies.,0,2,,
,,,,,,,,,,,,,,,90369,001,2022-04-28_23h30.11.987,SPAMnetsValid,2021.1.4,MacIntel,60.0024001,,,,,,,,,,,,,,,,,,,,,,,,,,,,,,,,,,,,,,,,,,,,,,,,,,,,,,,,,,,,,,,,,,,,,,,,,,,,,,3,0.0152,0,2,2,2,1,I am intrigued by the patterns I find in art and nature.,0,3,,
,,,,,,,,,,,,,,,90369,001,2022-04-28_23h30.11.987,SPAMnetsValid,2021.1.4,MacIntel,60.0024001,,,,,,,,,,,,,,,,,,,,,,,,,,,,,,,,,,,,,,,,,,,,,,,,,,,,,,,,,,,,,,,,,,,,,,,,,,,,,,3,0.26,0,3,3,3,1,I believe letting students hear controversial speakers can only confuse and mislead them.,1,4,,
,,,,,,,,,,,,,,,90369,001,2022-04-28_23h30.11.987,SPAMnetsValid,2021.1.4,MacIntel,60.0024001,,,,,,,,,,,,,,,,,,,,,,,,,,,,,,,,,,,,,,,,,,,,,,,,,,,,,,,,,,,,,,,,,,,,,,,,,,,,,,3,0.2594,0,4,4,4,1,Poetry has little or no effect on me.,1,5,,
,,,,,,,,,,,,,,,90369,001,2022-04-28_23h30.11.987,SPAMnetsValid,2021.1.4,MacIntel,60.0024001,,,,,,,,,,,,,,,,,,,,,,,,,,,,,,,,,,,,,,,,,,,,,,,,,,,,,,,,,,,,,,,,,,,,,,,,,,,,,,3,0.4663,0,5,5,5,1,I would have difficulty just letting my mind wander without control or guidance.,1,6,,
,,,,,,,,,,,,,,,90369,001,2022-04-28_23h30.11.987,SPAMnetsValid,2021.1.4,MacIntel,60.0024001,,,,,,,,,,,,,,,,,,,,,,,,,,,,,,,,,,,,,,,,,,,,,,,,,,,,,,,,,,,,,,,,,,,,,,,,,,,,,,3,0.4425,0,6,6,6,1,I seldom notice the moods or feelings that different environments produce.,1,7,,
,,,,,,,,,,,,,,,90369,001,2022-04-28_23h30.11.987,SPAMnetsValid,2021.1.4,MacIntel,60.0024001,,,,,,,,,,,,,,,,,,,,,,,,,,,,,,,,,,,,,,,,,,,,,,,,,,,,,,,,,,,,,,,,,,,,,,,,,,,,,,3,0.459,0,7,7,7,1,I experience a wide range of emotions or feelings.,0,8,,
,,,,,,,,,,,,,,,90369,001,2022-04-28_23h30.11.987,SPAMnetsValid,2021.1.4,MacIntel,60.0024001,,,,,,,,,,,,,,,,,,,,,,,,,,,,,,,,,,,,,,,,,,,,,,,,,,,,,,,,,,,,,,,,,,,,,,,,,,,,,,3,0.4272,0,8,8,8,1,"Sometimes when I am reading poetry or looking at a work of art, I feel a chill or wave of excitement.",0,9,,
,,,,,,,,,,,,,,,90369,001,2022-04-28_23h30.11.987,SPAMnetsValid,2021.1.4,MacIntel,60.0024001,,,,,,,,,,,,,,,,,,,,,,,,,,,,,,,,,,,,,,,,,,,,,,,,,,,,,,,,,,,,,,,,,,,,,,,,,,,,,,3,0.4605,0,9,9,9,1,I have little interest in speculating on the nature of the universe or the human condition.,1,10,,
,,,,,,,,,,,,,,,90369,001,2022-04-28_23h30.11.987,SPAMnetsValid,2021.1.4,MacIntel,60.0024001,,,,,,,,,,,,,,,,,,,,,,,,,,,,,,,,,,,,,,,,,,,,,,,,,,,,,,,,,,,,,,,,,,,,,,,,,,,,,,3,0.4263,0,10,10,10,1,I have a lot of intellectual curiosity.,0,11,,
,,,,,,,,,,,,,,,90369,001,2022-04-28_23h30.11.987,SPAMnetsValid,2021.1.4,MacIntel,60.0024001,,,,,,,,,,,,,,,,,,,,,,,,,,,,,,,,,,,,,,,,,,,,,,,,,,,,,,,,,,,,,,,,,,,,,,,,,,,,,,3,0.3937,0,11,11,11,1,I often enjoy playing with theories or abstract ideas.,0,12,,
,,,,,,,,,,,,,,,90369,001,2022-04-28_23h30.11.987,SPAMnetsValid,2021.1.4,MacIntel,60.0024001,,,,,,,,,,,,,,,,,,,,,,,,,,,,,,,,,,,,,,,,,,,,,,,,,,,,,,,,,,,,,,,,,,,,,,,,,,,,,,,,,,,,,,,,return,2.5166
