key_resp_3.keys,key_resp_3.rt,slider_2.response,slider_2.rt,rjt_rating,rjt_RT,trials_24.thisRepN,trials_24.thisTrialN,trials_24.thisN,trials_24.thisIndex,trials_24.ran,rjt_order,word1,word2,attention,participant,session,date,expName,psychopyVersion,OS,frameRate,trials_4.thisRepN,trials_4.thisTrialN,trials_4.thisN,trials_4.thisIndex,trials_4.ran,trials_5.thisRepN,trials_5.thisTrialN,trials_5.thisN,trials_5.thisIndex,trials_5.ran,repOne,repTwo,slider.response,slider.rt,trials_22.thisRepN,trials_22.thisTrialN,trials_22.thisN,trials_22.thisIndex,trials_22.ran,trials_99.thisRepN,trials_99.thisTrialN,trials_99.thisN,trials_99.thisIndex,trials_99.ran,slider_extend_2.response,slider_extend_2.rt,trials_6.thisRepN,trials_6.thisTrialN,trials_6.thisN,trials_6.thisIndex,trials_6.ran,vCue2,R1,R2,R3,R4,correct,sliderVocab.response,sliderVocab.rt,trials_7.thisRepN,trials_7.thisTrialN,trials_7.thisN,trials_7.thisIndex,trials_7.ran,VocabCue,VR1,VR2,VR3,VR4,VR5,VocabCorrect,AUT_resp,AUT_label,trials.thisRepN,trials.thisTrialN,trials.thisN,trials.thisIndex,trials.ran,trials_2.thisRepN,trials_2.thisTrialN,trials_2.thisN,trials_2.thisIndex,trials_2.ran,aut_prompt,trials_17.thisRepN,trials_17.thisTrialN,trials_17.thisN,trials_17.thisIndex,trials_17.ran,VFcond,open_slider.response,open_slider.rt,trials_3.thisRepN,trials_3.thisTrialN,trials_3.thisN,trials_3.thisIndex,trials_3.ran,OpenQ,Rev,OPEN_ORDER,key_resp_2.keys,key_resp_2.rt
return,2.9262,3,3.366,3,3.366,0,0,0,43,1,185,cactus,rose,,90372,001,2022-04-29_13h21.51.078,SPAMnetsValid,2021.1.4,MacIntel,59.99880002,,,,,,,,,,,,,,,,,,,,,,,,,,,,,,,,,,,,,,,,,,,,,,,,,,,,,,,,,,,,,,,,,,,,,,,,,,,,,,,,,,
,,3,0.554,3,0.554,0,1,1,1,1,173,kitchen,tomato,,90372,001,2022-04-29_13h21.51.078,SPAMnetsValid,2021.1.4,MacIntel,59.99880002,,,,,,,,,,,,,,,,,,,,,,,,,,,,,,,,,,,,,,,,,,,,,,,,,,,,,,,,,,,,,,,,,,,,,,,,,,,,,,,,,,
,,3,0.895,3,0.895,0,2,2,3,1,129,cactus,refrigerator,,90372,001,2022-04-29_13h21.51.078,SPAMnetsValid,2021.1.4,MacIntel,59.99880002,,,,,,,,,,,,,,,,,,,,,,,,,,,,,,,,,,,,,,,,,,,,,,,,,,,,,,,,,,,,,,,,,,,,,,,,,,,,,,,,,,
,,3,0.3563,3,0.3563,0,3,3,14,1,120,microwave,oven,,90372,001,2022-04-29_13h21.51.078,SPAMnetsValid,2021.1.4,MacIntel,59.99880002,,,,,,,,,,,,,,,,,,,,,,,,,,,,,,,,,,,,,,,,,,,,,,,,,,,,,,,,,,,,,,,,,,,,,,,,,,,,,,,,,,
,,3,0.3901,3,0.3901,0,4,4,85,1,115,refrigerator,tomato,,90372,001,2022-04-29_13h21.51.078,SPAMnetsValid,2021.1.4,MacIntel,59.99880002,,,,,,,,,,,,,,,,,,,,,,,,,,,,,,,,,,,,,,,,,,,,,,,,,,,,,,,,,,,,,,,,,,,,,,,,,,,,,,,,,,
,,3,0.3924,3,0.3924,0,5,5,62,1,189,onion,tree,,90372,001,2022-04-29_13h21.51.078,SPAMnetsValid,2021.1.4,MacIntel,59.99880002,,,,,,,,,,,,,,,,,,,,,,,,,,,,,,,,,,,,,,,,,,,,,,,,,,,,,,,,,,,,,,,,,,,,,,,,,,,,,,,,,,
,,3,0.3934,3,0.3934,0,6,6,42,1,184,oven,pretzel,,90372,001,2022-04-29_13h21.51.078,SPAMnetsValid,2021.1.4,MacIntel,59.99880002,,,,,,,,,,,,,,,,,,,,,,,,,,,,,,,,,,,,,,,,,,,,,,,,,,,,,,,,,,,,,,,,,,,,,,,,,,,,,,,,,,
,,3,0.3721,3,0.3721,0,7,7,11,1,117,melon,strawberry,,90372,001,2022-04-29_13h21.51.078,SPAMnetsValid,2021.1.4,MacIntel,59.99880002,,,,,,,,,,,,,,,,,,,,,,,,,,,,,,,,,,,,,,,,,,,,,,,,,,,,,,,,,,,,,,,,,,,,,,,,,,,,,,,,,,
,,3,0.3636,3,0.3636,0,8,8,19,1,183,cake,rose,,90372,001,2022-04-29_13h21.51.078,SPAMnetsValid,2021.1.4,MacIntel,59.99880002,,,,,,,,,,,,,,,,,,,,,,,,,,,,,,,,,,,,,,,,,,,,,,,,,,,,,,,,,,,,,,,,,,,,,,,,,,,,,,,,,,
,,3,0.3246,3,0.3246,0,9,9,18,1,119,strawberry,tree,,90372,001,2022-04-29_13h21.51.078,SPAMnetsValid,2021.1.4,MacIntel,59.99880002,,,,,,,,,,,,,,,,,,,,,,,,,,,,,,,,,,,,,,,,,,,,,,,,,,,,,,,,,,,,,,,,,,,,,,,,,,,,,,,,,,
,,3,0.3316,3,0.3316,0,10,10,80,1,146,pretzel,tree,,90372,001,2022-04-29_13h21.51.078,SPAMnetsValid,2021.1.4,MacIntel,59.99880002,,,,,,,,,,,,,,,,,,,,,,,,,,,,,,,,,,,,,,,,,,,,,,,,,,,,,,,,,,,,,,,,,,,,,,,,,,,,,,,,,,
,,3,0.3908,3,0.3908,0,11,11,65,1,160,cookie,kitchen,,90372,001,2022-04-29_13h21.51.078,SPAMnetsValid,2021.1.4,MacIntel,59.99880002,,,,,,,,,,,,,,,,,,,,,,,,,,,,,,,,,,,,,,,,,,,,,,,,,,,,,,,,,,,,,,,,,,,,,,,,,,,,,,,,,,
,,3,0.3849,3,0.3849,0,12,12,75,1,178,cactus,carrot,,90372,001,2022-04-29_13h21.51.078,SPAMnetsValid,2021.1.4,MacIntel,59.99880002,,,,,,,,,,,,,,,,,,,,,,,,,,,,,,,,,,,,,,,,,,,,,,,,,,,,,,,,,,,,,,,,,,,,,,,,,,,,,,,,,,
,,3,0.4273,3,0.4273,0,13,13,87,1,114,cookie,strawberry,,90372,001,2022-04-29_13h21.51.078,SPAMnetsValid,2021.1.4,MacIntel,59.99880002,,,,,,,,,,,,,,,,,,,,,,,,,,,,,,,,,,,,,,,,,,,,,,,,,,,,,,,,,,,,,,,,,,,,,,,,,,,,,,,,,,
,,3,0.4461,3,0.4461,0,14,14,41,1,175,melon,onion,,90372,001,2022-04-29_13h21.51.078,SPAMnetsValid,2021.1.4,MacIntel,59.99880002,,,,,,,,,,,,,,,,,,,,,,,,,,,,,,,,,,,,,,,,,,,,,,,,,,,,,,,,,,,,,,,,,,,,,,,,,,,,,,,,,,
,,7,0.8463,7,0.8463,0,15,15,37,1,139,carrot,strawberry,,90372,001,2022-04-29_13h21.51.078,SPAMnetsValid,2021.1.4,MacIntel,59.99880002,,,,,,,,,,,,,,,,,,,,,,,,,,,,,,,,,,,,,,,,,,,,,,,,,,,,,,,,,,,,,,,,,,,,,,,,,,,,,,,,,,
,,7,0.4892,7,0.4892,0,16,16,81,1,104,garden,microwave,,90372,001,2022-04-29_13h21.51.078,SPAMnetsValid,2021.1.4,MacIntel,59.99880002,,,,,,,,,,,,,,,,,,,,,,,,,,,,,,,,,,,,,,,,,,,,,,,,,,,,,,,,,,,,,,,,,,,,,,,,,,,,,,,,,,
,,7,0.4883,7,0.4883,0,17,17,12,1,162,microwave,tomato,,90372,001,2022-04-29_13h21.51.078,SPAMnetsValid,2021.1.4,MacIntel,59.99880002,,,,,,,,,,,,,,,,,,,,,,,,,,,,,,,,,,,,,,,,,,,,,,,,,,,,,,,,,,,,,,,,,,,,,,,,,,,,,,,,,,
,,7,0.3649,7,0.3649,0,18,18,70,1,141,melon,tomato,,90372,001,2022-04-29_13h21.51.078,SPAMnetsValid,2021.1.4,MacIntel,59.99880002,,,,,,,,,,,,,,,,,,,,,,,,,,,,,,,,,,,,,,,,,,,,,,,,,,,,,,,,,,,,,,,,,,,,,,,,,,,,,,,,,,
,,7,0.3596,7,0.3596,0,19,19,56,1,113,refrigerator,strawberry,,90372,001,2022-04-29_13h21.51.078,SPAMnetsValid,2021.1.4,MacIntel,59.99880002,,,,,,,,,,,,,,,,,,,,,,,,,,,,,,,,,,,,,,,,,,,,,,,,,,,,,,,,,,,,,,,,,,,,,,,,,,,,,,,,,,
,,7,0.344,7,0.344,0,20,20,51,1,168,cactus,flower,,90372,001,2022-04-29_13h21.51.078,SPAMnetsValid,2021.1.4,MacIntel,59.99880002,,,,,,,,,,,,,,,,,,,,,,,,,,,,,,,,,,,,,,,,,,,,,,,,,,,,,,,,,,,,,,,,,,,,,,,,,,,,,,,,,,
,,7,0.3536,7,0.3536,0,21,21,95,1,121,broom,microwave,,90372,001,2022-04-29_13h21.51.078,SPAMnetsValid,2021.1.4,MacIntel,59.99880002,,,,,,,,,,,,,,,,,,,,,,,,,,,,,,,,,,,,,,,,,,,,,,,,,,,,,,,,,,,,,,,,,,,,,,,,,,,,,,,,,,
,,7,0.3959,7,0.3959,0,22,22,22,1,142,garden,tree,,90372,001,2022-04-29_13h21.51.078,SPAMnetsValid,2021.1.4,MacIntel,59.99880002,,,,,,,,,,,,,,,,,,,,,,,,,,,,,,,,,,,,,,,,,,,,,,,,,,,,,,,,,,,,,,,,,,,,,,,,,,,,,,,,,,
,,7,0.3394,7,0.3394,0,23,23,34,1,153,carrot,pretzel,,90372,001,2022-04-29_13h21.51.078,SPAMnetsValid,2021.1.4,MacIntel,59.99880002,,,,,,,,,,,,,,,,,,,,,,,,,,,,,,,,,,,,,,,,,,,,,,,,,,,,,,,,,,,,,,,,,,,,,,,,,,,,,,,,,,
,,7,0.3688,7,0.3688,0,24,24,30,1,125,carrot,tree,,90372,001,2022-04-29_13h21.51.078,SPAMnetsValid,2021.1.4,MacIntel,59.99880002,,,,,,,,,,,,,,,,,,,,,,,,,,,,,,,,,,,,,,,,,,,,,,,,,,,,,,,,,,,,,,,,,,,,,,,,,,,,,,,,,,
,,7,0.3444,7,0.3444,0,25,25,35,1,147,cake,refrigerator,,90372,001,2022-04-29_13h21.51.078,SPAMnetsValid,2021.1.4,MacIntel,59.99880002,,,,,,,,,,,,,,,,,,,,,,,,,,,,,,,,,,,,,,,,,,,,,,,,,,,,,,,,,,,,,,,,,,,,,,,,,,,,,,,,,,
,,7,0.3291,7,0.3291,0,26,26,64,1,157,refrigerator,rose,,90372,001,2022-04-29_13h21.51.078,SPAMnetsValid,2021.1.4,MacIntel,59.99880002,,,,,,,,,,,,,,,,,,,,,,,,,,,,,,,,,,,,,,,,,,,,,,,,,,,,,,,,,,,,,,,,,,,,,,,,,,,,,,,,,,
,,7,0.3056,7,0.3056,0,27,27,46,1,123,cookie,tree,,90372,001,2022-04-29_13h21.51.078,SPAMnetsValid,2021.1.4,MacIntel,59.99880002,,,,,,,,,,,,,,,,,,,,,,,,,,,,,,,,,,,,,,,,,,,,,,,,,,,,,,,,,,,,,,,,,,,,,,,,,,,,,,,,,,
,,7,0.3656,7,0.3656,0,28,28,16,1,111,carrot,microwave,,90372,001,2022-04-29_13h21.51.078,SPAMnetsValid,2021.1.4,MacIntel,59.99880002,,,,,,,,,,,,,,,,,,,,,,,,,,,,,,,,,,,,,,,,,,,,,,,,,,,,,,,,,,,,,,,,,,,,,,,,,,,,,,,,,,
,,7,0.3424,7,0.3424,0,29,29,53,1,177,chocolate,strawberry,,90372,001,2022-04-29_13h21.51.078,SPAMnetsValid,2021.1.4,MacIntel,59.99880002,,,,,,,,,,,,,,,,,,,,,,,,,,,,,,,,,,,,,,,,,,,,,,,,,,,,,,,,,,,,,,,,,,,,,,,,,,,,,,,,,,
,,7,0.3387,7,0.3387,0,30,30,15,1,145,cactus,yogurt,,90372,001,2022-04-29_13h21.51.078,SPAMnetsValid,2021.1.4,MacIntel,59.99880002,,,,,,,,,,,,,,,,,,,,,,,,,,,,,,,,,,,,,,,,,,,,,,,,,,,,,,,,,,,,,,,,,,,,,,,,,,,,,,,,,,
,,7,0.3951,7,0.3951,0,31,31,82,1,98,pretzel,strawberry,,90372,001,2022-04-29_13h21.51.078,SPAMnetsValid,2021.1.4,MacIntel,59.99880002,,,,,,,,,,,,,,,,,,,,,,,,,,,,,,,,,,,,,,,,,,,,,,,,,,,,,,,,,,,,,,,,,,,,,,,,,,,,,,,,,,
,,7,0.4685,7,0.4685,0,32,32,21,1,159,cookie,flower,,90372,001,2022-04-29_13h21.51.078,SPAMnetsValid,2021.1.4,MacIntel,59.99880002,,,,,,,,,,,,,,,,,,,,,,,,,,,,,,,,,,,,,,,,,,,,,,,,,,,,,,,,,,,,,,,,,,,,,,,,,,,,,,,,,,
,,7,0.3403,7,0.3403,0,33,33,54,1,101,cactus,kitchen,,90372,001,2022-04-29_13h21.51.078,SPAMnetsValid,2021.1.4,MacIntel,59.99880002,,,,,,,,,,,,,,,,,,,,,,,,,,,,,,,,,,,,,,,,,,,,,,,,,,,,,,,,,,,,,,,,,,,,,,,,,,,,,,,,,,
,,7,0.464,7,0.464,0,34,34,88,1,171,cake,tomato,,90372,001,2022-04-29_13h21.51.078,SPAMnetsValid,2021.1.4,MacIntel,59.99880002,,,,,,,,,,,,,,,,,,,,,,,,,,,,,,,,,,,,,,,,,,,,,,,,,,,,,,,,,,,,,,,,,,,,,,,,,,,,,,,,,,
,,3,1.738,3,1.738,0,35,35,93,1,134,carrot,flower,,90372,001,2022-04-29_13h21.51.078,SPAMnetsValid,2021.1.4,MacIntel,59.99880002,,,,,,,,,,,,,,,,,,,,,,,,,,,,,,,,,,,,,,,,,,,,,,,,,,,,,,,,,,,,,,,,,,,,,,,,,,,,,,,,,,
,,3,21.5104,3,21.5104,0,36,36,6,1,151,microwave,onion,,90372,001,2022-04-29_13h21.51.078,SPAMnetsValid,2021.1.4,MacIntel,59.99880002,,,,,,,,,,,,,,,,,,,,,,,,,,,,,,,,,,,,,,,,,,,,,,,,,,,,,,,,,,,,,,,,,,,,,,,,,,,,,,,,,,
,,3,0.6541,3,0.6541,0,37,37,60,1,122,flower,garden,,90372,001,2022-04-29_13h21.51.078,SPAMnetsValid,2021.1.4,MacIntel,59.99880002,,,,,,,,,,,,,,,,,,,,,,,,,,,,,,,,,,,,,,,,,,,,,,,,,,,,,,,,,,,,,,,,,,,,,,,,,,,,,,,,,,
,,3,0.2267,3,0.2267,0,38,38,40,1,165,onion,rose,,90372,001,2022-04-29_13h21.51.078,SPAMnetsValid,2021.1.4,MacIntel,59.99880002,,,,,,,,,,,,,,,,,,,,,,,,,,,,,,,,,,,,,,,,,,,,,,,,,,,,,,,,,,,,,,,,,,,,,,,,,,,,,,,,,,
,,3,0.2213,3,0.2213,0,39,39,48,1,186,kitchen,yogurt,,90372,001,2022-04-29_13h21.51.078,SPAMnetsValid,2021.1.4,MacIntel,59.99880002,,,,,,,,,,,,,,,,,,,,,,,,,,,,,,,,,,,,,,,,,,,,,,,,,,,,,,,,,,,,,,,,,,,,,,,,,,,,,,,,,,
,,3,0.3582,3,0.3582,0,40,40,49,1,152,cactus,strawberry,,90372,001,2022-04-29_13h21.51.078,SPAMnetsValid,2021.1.4,MacIntel,59.99880002,,,,,,,,,,,,,,,,,,,,,,,,,,,,,,,,,,,,,,,,,,,,,,,,,,,,,,,,,,,,,,,,,,,,,,,,,,,,,,,,,,
,,3,0.4062,3,0.4062,0,41,41,77,1,172,kitchen,melon,,90372,001,2022-04-29_13h21.51.078,SPAMnetsValid,2021.1.4,MacIntel,59.99880002,,,,,,,,,,,,,,,,,,,,,,,,,,,,,,,,,,,,,,,,,,,,,,,,,,,,,,,,,,,,,,,,,,,,,,,,,,,,,,,,,,
,,3,0.7614,3,0.7614,0,42,42,44,1,116,cake,chocolate,,90372,001,2022-04-29_13h21.51.078,SPAMnetsValid,2021.1.4,MacIntel,59.99880002,,,,,,,,,,,,,,,,,,,,,,,,,,,,,,,,,,,,,,,,,,,,,,,,,,,,,,,,,,,,,,,,,,,,,,,,,,,,,,,,,,
,,3,0.422,3,0.422,0,43,43,26,1,107,rose,tomato,,90372,001,2022-04-29_13h21.51.078,SPAMnetsValid,2021.1.4,MacIntel,59.99880002,,,,,,,,,,,,,,,,,,,,,,,,,,,,,,,,,,,,,,,,,,,,,,,,,,,,,,,,,,,,,,,,,,,,,,,,,,,,,,,,,,
,,3,0.4069,3,0.4069,0,44,44,86,1,193,melon,melon,CHECK,90372,001,2022-04-29_13h21.51.078,SPAMnetsValid,2021.1.4,MacIntel,59.99880002,,,,,,,,,,,,,,,,,,,,,,,,,,,,,,,,,,,,,,,,,,,,,,,,,,,,,,,,,,,,,,,,,,,,,,,,,,,,,,,,,,
,,3,0.3105,3,0.3105,0,45,45,90,1,190,microwave,strawberry,,90372,001,2022-04-29_13h21.51.078,SPAMnetsValid,2021.1.4,MacIntel,59.99880002,,,,,,,,,,,,,,,,,,,,,,,,,,,,,,,,,,,,,,,,,,,,,,,,,,,,,,,,,,,,,,,,,,,,,,,,,,,,,,,,,,
,,3,0.4091,3,0.4091,0,46,46,36,1,161,kitchen,pretzel,,90372,001,2022-04-29_13h21.51.078,SPAMnetsValid,2021.1.4,MacIntel,59.99880002,,,,,,,,,,,,,,,,,,,,,,,,,,,,,,,,,,,,,,,,,,,,,,,,,,,,,,,,,,,,,,,,,,,,,,,,,,,,,,,,,,
,,3,0.3369,3,0.3369,0,47,47,7,1,188,flower,tree,,90372,001,2022-04-29_13h21.51.078,SPAMnetsValid,2021.1.4,MacIntel,59.99880002,,,,,,,,,,,,,,,,,,,,,,,,,,,,,,,,,,,,,,,,,,,,,,,,,,,,,,,,,,,,,,,,,,,,,,,,,,,,,,,,,,
,,3,0.7714,3,0.7714,0,48,48,94,1,133,cake,flower,,90372,001,2022-04-29_13h21.51.078,SPAMnetsValid,2021.1.4,MacIntel,59.99880002,,,,,,,,,,,,,,,,,,,,,,,,,,,,,,,,,,,,,,,,,,,,,,,,,,,,,,,,,,,,,,,,,,,,,,,,,,,,,,,,,,
,,3,2.6496,3,2.6496,0,49,49,5,1,108,carrot,chocolate,,90372,001,2022-04-29_13h21.51.078,SPAMnetsValid,2021.1.4,MacIntel,59.99880002,,,,,,,,,,,,,,,,,,,,,,,,,,,,,,,,,,,,,,,,,,,,,,,,,,,,,,,,,,,,,,,,,,,,,,,,,,,,,,,,,,
,,3,0.5038,3,0.5038,0,50,50,96,1,136,chocolate,microwave,,90372,001,2022-04-29_13h21.51.078,SPAMnetsValid,2021.1.4,MacIntel,59.99880002,,,,,,,,,,,,,,,,,,,,,,,,,,,,,,,,,,,,,,,,,,,,,,,,,,,,,,,,,,,,,,,,,,,,,,,,,,,,,,,,,,
,,3,0.4944,3,0.4944,0,51,51,68,1,180,tree,yogurt,,90372,001,2022-04-29_13h21.51.078,SPAMnetsValid,2021.1.4,MacIntel,59.99880002,,,,,,,,,,,,,,,,,,,,,,,,,,,,,,,,,,,,,,,,,,,,,,,,,,,,,,,,,,,,,,,,,,,,,,,,,,,,,,,,,,
,,3,49.3281,3,49.3281,0,52,52,72,1,181,carrot,kitchen,,90372,001,2022-04-29_13h21.51.078,SPAMnetsValid,2021.1.4,MacIntel,59.99880002,,,,,,,,,,,,,,,,,,,,,,,,,,,,,,,,,,,,,,,,,,,,,,,,,,,,,,,,,,,,,,,,,,,,,,,,,,,,,,,,,,
,,3,0.3607,3,0.3607,0,53,53,39,1,112,cake,carrot,,90372,001,2022-04-29_13h21.51.078,SPAMnetsValid,2021.1.4,MacIntel,59.99880002,,,,,,,,,,,,,,,,,,,,,,,,,,,,,,,,,,,,,,,,,,,,,,,,,,,,,,,,,,,,,,,,,,,,,,,,,,,,,,,,,,
,,3,0.2899,3,0.2899,0,54,54,33,1,131,cactus,garden,,90372,001,2022-04-29_13h21.51.078,SPAMnetsValid,2021.1.4,MacIntel,59.99880002,,,,,,,,,,,,,,,,,,,,,,,,,,,,,,,,,,,,,,,,,,,,,,,,,,,,,,,,,,,,,,,,,,,,,,,,,,,,,,,,,,
,,3,0.3234,3,0.3234,0,55,55,27,1,158,cookie,oven,,90372,001,2022-04-29_13h21.51.078,SPAMnetsValid,2021.1.4,MacIntel,59.99880002,,,,,,,,,,,,,,,,,,,,,,,,,,,,,,,,,,,,,,,,,,,,,,,,,,,,,,,,,,,,,,,,,,,,,,,,,,,,,,,,,,
,,3,0.28,3,0.28,0,56,56,25,1,194,cactus,cactus,CHECK,90372,001,2022-04-29_13h21.51.078,SPAMnetsValid,2021.1.4,MacIntel,59.99880002,,,,,,,,,,,,,,,,,,,,,,,,,,,,,,,,,,,,,,,,,,,,,,,,,,,,,,,,,,,,,,,,,,,,,,,,,,,,,,,,,,
,,3,0.283,3,0.283,0,57,57,63,1,137,microwave,tree,,90372,001,2022-04-29_13h21.51.078,SPAMnetsValid,2021.1.4,MacIntel,59.99880002,,,,,,,,,,,,,,,,,,,,,,,,,,,,,,,,,,,,,,,,,,,,,,,,,,,,,,,,,,,,,,,,,,,,,,,,,,,,,,,,,,
,,3,0.2772,3,0.2772,0,58,58,67,1,96,oven,strawberry,,90372,001,2022-04-29_13h21.51.078,SPAMnetsValid,2021.1.4,MacIntel,59.99880002,,,,,,,,,,,,,,,,,,,,,,,,,,,,,,,,,,,,,,,,,,,,,,,,,,,,,,,,,,,,,,,,,,,,,,,,,,,,,,,,,,
,,3,0.2651,3,0.2651,0,59,59,23,1,148,flower,melon,,90372,001,2022-04-29_13h21.51.078,SPAMnetsValid,2021.1.4,MacIntel,59.99880002,,,,,,,,,,,,,,,,,,,,,,,,,,,,,,,,,,,,,,,,,,,,,,,,,,,,,,,,,,,,,,,,,,,,,,,,,,,,,,,,,,
,,3,0.2589,3,0.2589,0,60,60,74,1,128,melon,microwave,,90372,001,2022-04-29_13h21.51.078,SPAMnetsValid,2021.1.4,MacIntel,59.99880002,,,,,,,,,,,,,,,,,,,,,,,,,,,,,,,,,,,,,,,,,,,,,,,,,,,,,,,,,,,,,,,,,,,,,,,,,,,,,,,,,,
,,3,0.222,3,0.222,0,61,61,73,1,135,carrot,oven,,90372,001,2022-04-29_13h21.51.078,SPAMnetsValid,2021.1.4,MacIntel,59.99880002,,,,,,,,,,,,,,,,,,,,,,,,,,,,,,,,,,,,,,,,,,,,,,,,,,,,,,,,,,,,,,,,,,,,,,,,,,,,,,,,,,
,,3,0.2335,3,0.2335,0,62,62,57,1,127,cactus,chocolate,,90372,001,2022-04-29_13h21.51.078,SPAMnetsValid,2021.1.4,MacIntel,59.99880002,,,,,,,,,,,,,,,,,,,,,,,,,,,,,,,,,,,,,,,,,,,,,,,,,,,,,,,,,,,,,,,,,,,,,,,,,,,,,,,,,,
,,3,0.2307,3,0.2307,0,63,63,91,1,166,cake,yogurt,,90372,001,2022-04-29_13h21.51.078,SPAMnetsValid,2021.1.4,MacIntel,59.99880002,,,,,,,,,,,,,,,,,,,,,,,,,,,,,,,,,,,,,,,,,,,,,,,,,,,,,,,,,,,,,,,,,,,,,,,,,,,,,,,,,,
,,3,0.2406,3,0.2406,0,64,64,8,1,97,chocolate,kitchen,,90372,001,2022-04-29_13h21.51.078,SPAMnetsValid,2021.1.4,MacIntel,59.99880002,,,,,,,,,,,,,,,,,,,,,,,,,,,,,,,,,,,,,,,,,,,,,,,,,,,,,,,,,,,,,,,,,,,,,,,,,,,,,,,,,,
,,3,0.2554,3,0.2554,0,65,65,58,1,144,cake,garden,,90372,001,2022-04-29_13h21.51.078,SPAMnetsValid,2021.1.4,MacIntel,59.99880002,,,,,,,,,,,,,,,,,,,,,,,,,,,,,,,,,,,,,,,,,,,,,,,,,,,,,,,,,,,,,,,,,,,,,,,,,,,,,,,,,,
,,3,0.2554,3,0.2554,0,66,66,71,1,187,cactus,microwave,,90372,001,2022-04-29_13h21.51.078,SPAMnetsValid,2021.1.4,MacIntel,59.99880002,,,,,,,,,,,,,,,,,,,,,,,,,,,,,,,,,,,,,,,,,,,,,,,,,,,,,,,,,,,,,,,,,,,,,,,,,,,,,,,,,,
,,3,0.245,3,0.245,0,67,67,4,1,109,broom,strawberry,,90372,001,2022-04-29_13h21.51.078,SPAMnetsValid,2021.1.4,MacIntel,59.99880002,,,,,,,,,,,,,,,,,,,,,,,,,,,,,,,,,,,,,,,,,,,,,,,,,,,,,,,,,,,,,,,,,,,,,,,,,,,,,,,,,,
,,3,0.2128,3,0.2128,0,68,68,84,1,130,microwave,yogurt,,90372,001,2022-04-29_13h21.51.078,SPAMnetsValid,2021.1.4,MacIntel,59.99880002,,,,,,,,,,,,,,,,,,,,,,,,,,,,,,,,,,,,,,,,,,,,,,,,,,,,,,,,,,,,,,,,,,,,,,,,,,,,,,,,,,
,,3,0.5552,3,0.5552,0,69,69,32,1,182,flower,refrigerator,,90372,001,2022-04-29_13h21.51.078,SPAMnetsValid,2021.1.4,MacIntel,59.99880002,,,,,,,,,,,,,,,,,,,,,,,,,,,,,,,,,,,,,,,,,,,,,,,,,,,,,,,,,,,,,,,,,,,,,,,,,,,,,,,,,,
,,3,0.29,3,0.29,0,70,70,92,1,170,cookie,microwave,,90372,001,2022-04-29_13h21.51.078,SPAMnetsValid,2021.1.4,MacIntel,59.99880002,,,,,,,,,,,,,,,,,,,,,,,,,,,,,,,,,,,,,,,,,,,,,,,,,,,,,,,,,,,,,,,,,,,,,,,,,,,,,,,,,,
,,3,0.2795,3,0.2795,0,71,71,78,1,132,broom,tree,,90372,001,2022-04-29_13h21.51.078,SPAMnetsValid,2021.1.4,MacIntel,59.99880002,,,,,,,,,,,,,,,,,,,,,,,,,,,,,,,,,,,,,,,,,,,,,,,,,,,,,,,,,,,,,,,,,,,,,,,,,,,,,,,,,,
,,3,0.29,3,0.29,0,72,72,55,1,143,pretzel,rose,,90372,001,2022-04-29_13h21.51.078,SPAMnetsValid,2021.1.4,MacIntel,59.99880002,,,,,,,,,,,,,,,,,,,,,,,,,,,,,,,,,,,,,,,,,,,,,,,,,,,,,,,,,,,,,,,,,,,,,,,,,,,,,,,,,,
,,3,0.3098,3,0.3098,0,73,73,45,1,179,broom,oven,,90372,001,2022-04-29_13h21.51.078,SPAMnetsValid,2021.1.4,MacIntel,59.99880002,,,,,,,,,,,,,,,,,,,,,,,,,,,,,,,,,,,,,,,,,,,,,,,,,,,,,,,,,,,,,,,,,,,,,,,,,,,,,,,,,,
,,3,0.2793,3,0.2793,0,74,74,50,1,126,kitchen,tree,,90372,001,2022-04-29_13h21.51.078,SPAMnetsValid,2021.1.4,MacIntel,59.99880002,,,,,,,,,,,,,,,,,,,,,,,,,,,,,,,,,,,,,,,,,,,,,,,,,,,,,,,,,,,,,,,,,,,,,,,,,,,,,,,,,,
,,3,0.6545,3,0.6545,0,75,75,61,1,138,flower,rose,,90372,001,2022-04-29_13h21.51.078,SPAMnetsValid,2021.1.4,MacIntel,59.99880002,,,,,,,,,,,,,,,,,,,,,,,,,,,,,,,,,,,,,,,,,,,,,,,,,,,,,,,,,,,,,,,,,,,,,,,,,,,,,,,,,,
,,3,0.3361,3,0.3361,0,76,76,13,1,105,cactus,oven,,90372,001,2022-04-29_13h21.51.078,SPAMnetsValid,2021.1.4,MacIntel,59.99880002,,,,,,,,,,,,,,,,,,,,,,,,,,,,,,,,,,,,,,,,,,,,,,,,,,,,,,,,,,,,,,,,,,,,,,,,,,,,,,,,,,
,,3,0.3874,3,0.3874,0,77,77,59,1,164,cookie,garden,,90372,001,2022-04-29_13h21.51.078,SPAMnetsValid,2021.1.4,MacIntel,59.99880002,,,,,,,,,,,,,,,,,,,,,,,,,,,,,,,,,,,,,,,,,,,,,,,,,,,,,,,,,,,,,,,,,,,,,,,,,,,,,,,,,,
,,3,0.3644,3,0.3644,0,78,78,20,1,149,broom,tomato,,90372,001,2022-04-29_13h21.51.078,SPAMnetsValid,2021.1.4,MacIntel,59.99880002,,,,,,,,,,,,,,,,,,,,,,,,,,,,,,,,,,,,,,,,,,,,,,,,,,,,,,,,,,,,,,,,,,,,,,,,,,,,,,,,,,
,,3,0.8258,3,0.8258,0,79,79,38,1,155,carrot,cookie,,90372,001,2022-04-29_13h21.51.078,SPAMnetsValid,2021.1.4,MacIntel,59.99880002,,,,,,,,,,,,,,,,,,,,,,,,,,,,,,,,,,,,,,,,,,,,,,,,,,,,,,,,,,,,,,,,,,,,,,,,,,,,,,,,,,
,,3,0.4294,3,0.4294,0,80,80,69,1,124,oven,refrigerator,,90372,001,2022-04-29_13h21.51.078,SPAMnetsValid,2021.1.4,MacIntel,59.99880002,,,,,,,,,,,,,,,,,,,,,,,,,,,,,,,,,,,,,,,,,,,,,,,,,,,,,,,,,,,,,,,,,,,,,,,,,,,,,,,,,,
,,3,0.4225,3,0.4225,0,81,81,47,1,167,carrot,garden,,90372,001,2022-04-29_13h21.51.078,SPAMnetsValid,2021.1.4,MacIntel,59.99880002,,,,,,,,,,,,,,,,,,,,,,,,,,,,,,,,,,,,,,,,,,,,,,,,,,,,,,,,,,,,,,,,,,,,,,,,,,,,,,,,,,
,,7,1.1578,7,1.1578,0,82,82,79,1,103,pretzel,tomato,,90372,001,2022-04-29_13h21.51.078,SPAMnetsValid,2021.1.4,MacIntel,59.99880002,,,,,,,,,,,,,,,,,,,,,,,,,,,,,,,,,,,,,,,,,,,,,,,,,,,,,,,,,,,,,,,,,,,,,,,,,,,,,,,,,,
,,7,0.4747,7,0.4747,0,83,83,9,1,176,cactus,tomato,,90372,001,2022-04-29_13h21.51.078,SPAMnetsValid,2021.1.4,MacIntel,59.99880002,,,,,,,,,,,,,,,,,,,,,,,,,,,,,,,,,,,,,,,,,,,,,,,,,,,,,,,,,,,,,,,,,,,,,,,,,,,,,,,,,,
,,7,0.3724,7,0.3724,0,84,84,17,1,99,garden,melon,,90372,001,2022-04-29_13h21.51.078,SPAMnetsValid,2021.1.4,MacIntel,59.99880002,,,,,,,,,,,,,,,,,,,,,,,,,,,,,,,,,,,,,,,,,,,,,,,,,,,,,,,,,,,,,,,,,,,,,,,,,,,,,,,,,,
,,7,0.3675,7,0.3675,0,85,85,89,1,140,cookie,refrigerator,,90372,001,2022-04-29_13h21.51.078,SPAMnetsValid,2021.1.4,MacIntel,59.99880002,,,,,,,,,,,,,,,,,,,,,,,,,,,,,,,,,,,,,,,,,,,,,,,,,,,,,,,,,,,,,,,,,,,,,,,,,,,,,,,,,,
,,7,0.2772,7,0.2772,0,86,86,66,1,150,microwave,refrigerator,,90372,001,2022-04-29_13h21.51.078,SPAMnetsValid,2021.1.4,MacIntel,59.99880002,,,,,,,,,,,,,,,,,,,,,,,,,,,,,,,,,,,,,,,,,,,,,,,,,,,,,,,,,,,,,,,,,,,,,,,,,,,,,,,,,,
,,7,0.355,7,0.355,0,87,87,76,1,102,chocolate,refrigerator,,90372,001,2022-04-29_13h21.51.078,SPAMnetsValid,2021.1.4,MacIntel,59.99880002,,,,,,,,,,,,,,,,,,,,,,,,,,,,,,,,,,,,,,,,,,,,,,,,,,,,,,,,,,,,,,,,,,,,,,,,,,,,,,,,,,
,,7,0.3468,7,0.3468,0,88,88,28,1,154,strawberry,yogurt,,90372,001,2022-04-29_13h21.51.078,SPAMnetsValid,2021.1.4,MacIntel,59.99880002,,,,,,,,,,,,,,,,,,,,,,,,,,,,,,,,,,,,,,,,,,,,,,,,,,,,,,,,,,,,,,,,,,,,,,,,,,,,,,,,,,
,,7,0.3554,7,0.3554,0,89,89,52,1,110,chocolate,cookie,,90372,001,2022-04-29_13h21.51.078,SPAMnetsValid,2021.1.4,MacIntel,59.99880002,,,,,,,,,,,,,,,,,,,,,,,,,,,,,,,,,,,,,,,,,,,,,,,,,,,,,,,,,,,,,,,,,,,,,,,,,,,,,,,,,,
,,7,0.4037,7,0.4037,0,90,90,83,1,100,garden,tomato,,90372,001,2022-04-29_13h21.51.078,SPAMnetsValid,2021.1.4,MacIntel,59.99880002,,,,,,,,,,,,,,,,,,,,,,,,,,,,,,,,,,,,,,,,,,,,,,,,,,,,,,,,,,,,,,,,,,,,,,,,,,,,,,,,,,
,,7,0.3438,7,0.3438,0,91,91,31,1,156,melon,rose,,90372,001,2022-04-29_13h21.51.078,SPAMnetsValid,2021.1.4,MacIntel,59.99880002,,,,,,,,,,,,,,,,,,,,,,,,,,,,,,,,,,,,,,,,,,,,,,,,,,,,,,,,,,,,,,,,,,,,,,,,,,,,,,,,,,
,,7,0.4046,7,0.4046,0,92,92,0,1,106,cake,strawberry,,90372,001,2022-04-29_13h21.51.078,SPAMnetsValid,2021.1.4,MacIntel,59.99880002,,,,,,,,,,,,,,,,,,,,,,,,,,,,,,,,,,,,,,,,,,,,,,,,,,,,,,,,,,,,,,,,,,,,,,,,,,,,,,,,,,
,,7,0.3639,7,0.3639,0,93,93,29,1,163,melon,refrigerator,,90372,001,2022-04-29_13h21.51.078,SPAMnetsValid,2021.1.4,MacIntel,59.99880002,,,,,,,,,,,,,,,,,,,,,,,,,,,,,,,,,,,,,,,,,,,,,,,,,,,,,,,,,,,,,,,,,,,,,,,,,,,,,,,,,,
,,7,0.4165,7,0.4165,0,94,94,24,1,169,onion,yogurt,,90372,001,2022-04-29_13h21.51.078,SPAMnetsValid,2021.1.4,MacIntel,59.99880002,,,,,,,,,,,,,,,,,,,,,,,,,,,,,,,,,,,,,,,,,,,,,,,,,,,,,,,,,,,,,,,,,,,,,,,,,,,,,,,,,,
,,7,0.3726,7,0.3726,0,95,95,10,1,118,chocolate,oven,,90372,001,2022-04-29_13h21.51.078,SPAMnetsValid,2021.1.4,MacIntel,59.99880002,,,,,,,,,,,,,,,,,,,,,,,,,,,,,,,,,,,,,,,,,,,,,,,,,,,,,,,,,,,,,,,,,,,,,,,,,,,,,,,,,,
,,7,0.6393,7,0.6393,0,96,96,2,1,174,cake,pretzel,,90372,001,2022-04-29_13h21.51.078,SPAMnetsValid,2021.1.4,MacIntel,59.99880002,,,,,,,,,,,,,,,,,,,,,,,,,,,,,,,,,,,,,,,,,,,,,,,,,,,,,,,,,,,,,,,,,,,,,,,,,,,,,,,,,,
,,,,,,,,,,,,,,,90372,001,2022-04-29_13h21.51.078,SPAMnetsValid,2021.1.4,MacIntel,59.99880002,0,0,0,0,1,,,,,,,,,,,,,,,,,,,,,,,,,,,,,,,,,,,,,,,,,,,,,,,,,,,,,,,,,,,,,,,,,,,,,,,,,,,,,
,,,,,,,,,,,,,,,90372,001,2022-04-29_13h21.51.078,SPAMnetsValid,2021.1.4,MacIntel,59.99880002,,,,,,0,0,0,1,1,0,1,,,,,,,,,,,,,,,,,,,,,,,,,,,,,,,,,,,,,,,,,,,,,,,,,,,,,,,,,,,,,,,,,,,,,,
,,,,7,1.5839,,,,,,60,cactus,onion,,90372,001,2022-04-29_13h21.51.078,SPAMnetsValid,2021.1.4,MacIntel,59.99880002,,,,,,,,,,,,,7,1.5839,0,0,0,81,1,,,,,,,,,,,,,,,,,,,,,,,,,,,,,,,,,,,,,,,,,,,,,,,,,,,,,,,,,,,,,,,
,,,,7,0.8282,,,,,,70,chocolate,onion,,90372,001,2022-04-29_13h21.51.078,SPAMnetsValid,2021.1.4,MacIntel,59.99880002,,,,,,,,,,,,,7,0.8282,0,1,1,74,1,,,,,,,,,,,,,,,,,,,,,,,,,,,,,,,,,,,,,,,,,,,,,,,,,,,,,,,,,,,,,,,
,,,,6,1.6565,,,,,,44,cookie,melon,,90372,001,2022-04-29_13h21.51.078,SPAMnetsValid,2021.1.4,MacIntel,59.99880002,,,,,,,,,,,,,6,1.6565,0,2,2,92,1,,,,,,,,,,,,,,,,,,,,,,,,,,,,,,,,,,,,,,,,,,,,,,,,,,,,,,,,,,,,,,,
,,,,6,0.5467,,,,,,24,cookie,tomato,,90372,001,2022-04-29_13h21.51.078,SPAMnetsValid,2021.1.4,MacIntel,59.99880002,,,,,,,,,,,,,6,0.5467,0,3,3,68,1,,,,,,,,,,,,,,,,,,,,,,,,,,,,,,,,,,,,,,,,,,,,,,,,,,,,,,,,,,,,,,,
,,,,3,1.1603,,,,,,41,broom,cactus,,90372,001,2022-04-29_13h21.51.078,SPAMnetsValid,2021.1.4,MacIntel,59.99880002,,,,,,,,,,,,,3,1.1603,0,4,4,46,1,,,,,,,,,,,,,,,,,,,,,,,,,,,,,,,,,,,,,,,,,,,,,,,,,,,,,,,,,,,,,,,
,,,,3,0.4423,,,,,,38,pretzel,refrigerator,,90372,001,2022-04-29_13h21.51.078,SPAMnetsValid,2021.1.4,MacIntel,59.99880002,,,,,,,,,,,,,3,0.4423,0,5,5,71,1,,,,,,,,,,,,,,,,,,,,,,,,,,,,,,,,,,,,,,,,,,,,,,,,,,,,,,,,,,,,,,,
,,,,3,0.4836,,,,,,77,refrigerator,yogurt,,90372,001,2022-04-29_13h21.51.078,SPAMnetsValid,2021.1.4,MacIntel,59.99880002,,,,,,,,,,,,,3,0.4836,0,6,6,42,1,,,,,,,,,,,,,,,,,,,,,,,,,,,,,,,,,,,,,,,,,,,,,,,,,,,,,,,,,,,,,,,
,,,,3,0.538,,,,,,51,onion,strawberry,,90372,001,2022-04-29_13h21.51.078,SPAMnetsValid,2021.1.4,MacIntel,59.99880002,,,,,,,,,,,,,3,0.538,0,7,7,86,1,,,,,,,,,,,,,,,,,,,,,,,,,,,,,,,,,,,,,,,,,,,,,,,,,,,,,,,,,,,,,,,
,,,,3,0.4607,,,,,,12,cookie,yogurt,,90372,001,2022-04-29_13h21.51.078,SPAMnetsValid,2021.1.4,MacIntel,59.99880002,,,,,,,,,,,,,3,0.4607,0,8,8,36,1,,,,,,,,,,,,,,,,,,,,,,,,,,,,,,,,,,,,,,,,,,,,,,,,,,,,,,,,,,,,,,,
,,,,3,0.4049,,,,,,56,cactus,tree,,90372,001,2022-04-29_13h21.51.078,SPAMnetsValid,2021.1.4,MacIntel,59.99880002,,,,,,,,,,,,,3,0.4049,0,9,9,21,1,,,,,,,,,,,,,,,,,,,,,,,,,,,,,,,,,,,,,,,,,,,,,,,,,,,,,,,,,,,,,,,
,,,,3,0.4273,,,,,,3,cake,oven,,90372,001,2022-04-29_13h21.51.078,SPAMnetsValid,2021.1.4,MacIntel,59.99880002,,,,,,,,,,,,,3,0.4273,0,10,10,30,1,,,,,,,,,,,,,,,,,,,,,,,,,,,,,,,,,,,,,,,,,,,,,,,,,,,,,,,,,,,,,,,
,,,,3,0.3447,,,,,,29,chocolate,melon,,90372,001,2022-04-29_13h21.51.078,SPAMnetsValid,2021.1.4,MacIntel,59.99880002,,,,,,,,,,,,,3,0.3447,0,11,11,34,1,,,,,,,,,,,,,,,,,,,,,,,,,,,,,,,,,,,,,,,,,,,,,,,,,,,,,,,,,,,,,,,
,,,,3,0.3479,,,,,,11,refrigerator,tree,,90372,001,2022-04-29_13h21.51.078,SPAMnetsValid,2021.1.4,MacIntel,59.99880002,,,,,,,,,,,,,3,0.3479,0,12,12,43,1,,,,,,,,,,,,,,,,,,,,,,,,,,,,,,,,,,,,,,,,,,,,,,,,,,,,,,,,,,,,,,,
,,,,3,0.3058,,,,,,36,broom,kitchen,,90372,001,2022-04-29_13h21.51.078,SPAMnetsValid,2021.1.4,MacIntel,59.99880002,,,,,,,,,,,,,3,0.3058,0,13,13,76,1,,,,,,,,,,,,,,,,,,,,,,,,,,,,,,,,,,,,,,,,,,,,,,,,,,,,,,,,,,,,,,,
,,,,3,0.3221,,,,,,83,broom,carrot,,90372,001,2022-04-29_13h21.51.078,SPAMnetsValid,2021.1.4,MacIntel,59.99880002,,,,,,,,,,,,,3,0.3221,0,14,14,4,1,,,,,,,,,,,,,,,,,,,,,,,,,,,,,,,,,,,,,,,,,,,,,,,,,,,,,,,,,,,,,,,
,,,,3,0.4378,,,,,,95,broom,refrigerator,,90372,001,2022-04-29_13h21.51.078,SPAMnetsValid,2021.1.4,MacIntel,59.99880002,,,,,,,,,,,,,3,0.4378,0,15,15,90,1,,,,,,,,,,,,,,,,,,,,,,,,,,,,,,,,,,,,,,,,,,,,,,,,,,,,,,,,,,,,,,,
,,,,3,0.4183,,,,,,35,flower,pretzel,,90372,001,2022-04-29_13h21.51.078,SPAMnetsValid,2021.1.4,MacIntel,59.99880002,,,,,,,,,,,,,3,0.4183,0,16,16,26,1,,,,,,,,,,,,,,,,,,,,,,,,,,,,,,,,,,,,,,,,,,,,,,,,,,,,,,,,,,,,,,,
,,,,3,0.3586,,,,,,37,garden,refrigerator,,90372,001,2022-04-29_13h21.51.078,SPAMnetsValid,2021.1.4,MacIntel,59.99880002,,,,,,,,,,,,,3,0.3586,0,17,17,11,1,,,,,,,,,,,,,,,,,,,,,,,,,,,,,,,,,,,,,,,,,,,,,,,,,,,,,,,,,,,,,,,
,,,,3,0.3698,,,,,,59,rose,strawberry,,90372,001,2022-04-29_13h21.51.078,SPAMnetsValid,2021.1.4,MacIntel,59.99880002,,,,,,,,,,,,,3,0.3698,0,18,18,72,1,,,,,,,,,,,,,,,,,,,,,,,,,,,,,,,,,,,,,,,,,,,,,,,,,,,,,,,,,,,,,,,
,,,,3,0.339,,,,,,45,onion,pretzel,,90372,001,2022-04-29_13h21.51.078,SPAMnetsValid,2021.1.4,MacIntel,59.99880002,,,,,,,,,,,,,3,0.339,0,19,19,69,1,,,,,,,,,,,,,,,,,,,,,,,,,,,,,,,,,,,,,,,,,,,,,,,,,,,,,,,,,,,,,,,
,,,,3,0.3043,,,,,,19,microwave,pretzel,,90372,001,2022-04-29_13h21.51.078,SPAMnetsValid,2021.1.4,MacIntel,59.99880002,,,,,,,,,,,,,3,0.3043,0,20,20,41,1,,,,,,,,,,,,,,,,,,,,,,,,,,,,,,,,,,,,,,,,,,,,,,,,,,,,,,,,,,,,,,,
,,,,3,0.3232,,,,,,80,chocolate,tree,,90372,001,2022-04-29_13h21.51.078,SPAMnetsValid,2021.1.4,MacIntel,59.99880002,,,,,,,,,,,,,3,0.3232,0,21,21,89,1,,,,,,,,,,,,,,,,,,,,,,,,,,,,,,,,,,,,,,,,,,,,,,,,,,,,,,,,,,,,,,,
,,,,3,0.277,,,,,,73,broom,chocolate,,90372,001,2022-04-29_13h21.51.078,SPAMnetsValid,2021.1.4,MacIntel,59.99880002,,,,,,,,,,,,,3,0.277,0,22,22,47,1,,,,,,,,,,,,,,,,,,,,,,,,,,,,,,,,,,,,,,,,,,,,,,,,,,,,,,,,,,,,,,,
,,,,3,0.3881,,,,,,40,broom,cake,,90372,001,2022-04-29_13h21.51.078,SPAMnetsValid,2021.1.4,MacIntel,59.99880002,,,,,,,,,,,,,3,0.3881,0,23,23,32,1,,,,,,,,,,,,,,,,,,,,,,,,,,,,,,,,,,,,,,,,,,,,,,,,,,,,,,,,,,,,,,,
,,,,3,0.2986,,,,,,87,carrot,yogurt,,90372,001,2022-04-29_13h21.51.078,SPAMnetsValid,2021.1.4,MacIntel,59.99880002,,,,,,,,,,,,,3,0.2986,0,24,24,6,1,,,,,,,,,,,,,,,,,,,,,,,,,,,,,,,,,,,,,,,,,,,,,,,,,,,,,,,,,,,,,,,
,,,,3,0.3715,,,,,,30,cookie,pretzel,,90372,001,2022-04-29_13h21.51.078,SPAMnetsValid,2021.1.4,MacIntel,59.99880002,,,,,,,,,,,,,3,0.3715,0,25,25,78,1,,,,,,,,,,,,,,,,,,,,,,,,,,,,,,,,,,,,,,,,,,,,,,,,,,,,,,,,,,,,,,,
,,,,3,0.338,,,,,,191,cake,cake,CHECK,90372,001,2022-04-29_13h21.51.078,SPAMnetsValid,2021.1.4,MacIntel,59.99880002,,,,,,,,,,,,,3,0.338,0,26,26,10,1,,,,,,,,,,,,,,,,,,,,,,,,,,,,,,,,,,,,,,,,,,,,,,,,,,,,,,,,,,,,,,,
,,,,3,0.3132,,,,,,43,chocolate,tomato,,90372,001,2022-04-29_13h21.51.078,SPAMnetsValid,2021.1.4,MacIntel,59.99880002,,,,,,,,,,,,,3,0.3132,0,27,27,8,1,,,,,,,,,,,,,,,,,,,,,,,,,,,,,,,,,,,,,,,,,,,,,,,,,,,,,,,,,,,,,,,
,,,,3,0.4378,,,,,,21,cake,onion,,90372,001,2022-04-29_13h21.51.078,SPAMnetsValid,2021.1.4,MacIntel,59.99880002,,,,,,,,,,,,,3,0.4378,0,28,28,63,1,,,,,,,,,,,,,,,,,,,,,,,,,,,,,,,,,,,,,,,,,,,,,,,,,,,,,,,,,,,,,,,
,,,,3,0.3563,,,,,,94,kitchen,microwave,,90372,001,2022-04-29_13h21.51.078,SPAMnetsValid,2021.1.4,MacIntel,59.99880002,,,,,,,,,,,,,3,0.3563,0,29,29,58,1,,,,,,,,,,,,,,,,,,,,,,,,,,,,,,,,,,,,,,,,,,,,,,,,,,,,,,,,,,,,,,,
,,,,3,0.3284,,,,,,53,garden,pretzel,,90372,001,2022-04-29_13h21.51.078,SPAMnetsValid,2021.1.4,MacIntel,59.99880002,,,,,,,,,,,,,3,0.3284,0,30,30,0,1,,,,,,,,,,,,,,,,,,,,,,,,,,,,,,,,,,,,,,,,,,,,,,,,,,,,,,,,,,,,,,,
,,,,3,0.3912,,,,,,71,broom,rose,,90372,001,2022-04-29_13h21.51.078,SPAMnetsValid,2021.1.4,MacIntel,59.99880002,,,,,,,,,,,,,3,0.3912,0,31,31,61,1,,,,,,,,,,,,,,,,,,,,,,,,,,,,,,,,,,,,,,,,,,,,,,,,,,,,,,,,,,,,,,,
,,,,6,1.0218,,,,,,6,garden,onion,,90372,001,2022-04-29_13h21.51.078,SPAMnetsValid,2021.1.4,MacIntel,59.99880002,,,,,,,,,,,,,6,1.0218,0,32,32,83,1,,,,,,,,,,,,,,,,,,,,,,,,,,,,,,,,,,,,,,,,,,,,,,,,,,,,,,,,,,,,,,,
,,,,6,0.3865,,,,,,23,flower,microwave,,90372,001,2022-04-29_13h21.51.078,SPAMnetsValid,2021.1.4,MacIntel,59.99880002,,,,,,,,,,,,,6,0.3865,0,33,33,25,1,,,,,,,,,,,,,,,,,,,,,,,,,,,,,,,,,,,,,,,,,,,,,,,,,,,,,,,,,,,,,,,
,,,,6,0.7564,,,,,,69,carrot,refrigerator,,90372,001,2022-04-29_13h21.51.078,SPAMnetsValid,2021.1.4,MacIntel,59.99880002,,,,,,,,,,,,,6,0.7564,0,34,34,75,1,,,,,,,,,,,,,,,,,,,,,,,,,,,,,,,,,,,,,,,,,,,,,,,,,,,,,,,,,,,,,,,
,,,,8,0.7442,,,,,,57,flower,kitchen,,90372,001,2022-04-29_13h21.51.078,SPAMnetsValid,2021.1.4,MacIntel,59.99880002,,,,,,,,,,,,,8,0.7442,0,35,35,49,1,,,,,,,,,,,,,,,,,,,,,,,,,,,,,,,,,,,,,,,,,,,,,,,,,,,,,,,,,,,,,,,
,,,,8,0.3604,,,,,,65,broom,garden,,90372,001,2022-04-29_13h21.51.078,SPAMnetsValid,2021.1.4,MacIntel,59.99880002,,,,,,,,,,,,,8,0.3604,0,36,36,23,1,,,,,,,,,,,,,,,,,,,,,,,,,,,,,,,,,,,,,,,,,,,,,,,,,,,,,,,,,,,,,,,
,,,,8,0.7615,,,,,,93,kitchen,oven,,90372,001,2022-04-29_13h21.51.078,SPAMnetsValid,2021.1.4,MacIntel,59.99880002,,,,,,,,,,,,,8,0.7615,0,37,37,82,1,,,,,,,,,,,,,,,,,,,,,,,,,,,,,,,,,,,,,,,,,,,,,,,,,,,,,,,,,,,,,,,
,,,,8,0.8474,,,,,,26,tomato,yogurt,,90372,001,2022-04-29_13h21.51.078,SPAMnetsValid,2021.1.4,MacIntel,59.99880002,,,,,,,,,,,,,8,0.8474,0,38,38,13,1,,,,,,,,,,,,,,,,,,,,,,,,,,,,,,,,,,,,,,,,,,,,,,,,,,,,,,,,,,,,,,,
,,,,8,0.3745,,,,,,68,flower,tomato,,90372,001,2022-04-29_13h21.51.078,SPAMnetsValid,2021.1.4,MacIntel,59.99880002,,,,,,,,,,,,,8,0.3745,0,39,39,94,1,,,,,,,,,,,,,,,,,,,,,,,,,,,,,,,,,,,,,,,,,,,,,,,,,,,,,,,,,,,,,,,
,,,,8,0.3268,,,,,,74,broom,pretzel,,90372,001,2022-04-29_13h21.51.078,SPAMnetsValid,2021.1.4,MacIntel,59.99880002,,,,,,,,,,,,,8,0.3268,0,40,40,40,1,,,,,,,,,,,,,,,,,,,,,,,,,,,,,,,,,,,,,,,,,,,,,,,,,,,,,,,,,,,,,,,
,,,,8,0.3397,,,,,,15,onion,oven,,90372,001,2022-04-29_13h21.51.078,SPAMnetsValid,2021.1.4,MacIntel,59.99880002,,,,,,,,,,,,,8,0.3397,0,41,41,39,1,,,,,,,,,,,,,,,,,,,,,,,,,,,,,,,,,,,,,,,,,,,,,,,,,,,,,,,,,,,,,,,
,,,,8,2.274,,,,,,32,cake,microwave,,90372,001,2022-04-29_13h21.51.078,SPAMnetsValid,2021.1.4,MacIntel,59.99880002,,,,,,,,,,,,,8,2.274,0,42,42,33,1,,,,,,,,,,,,,,,,,,,,,,,,,,,,,,,,,,,,,,,,,,,,,,,,,,,,,,,,,,,,,,,
,,,,8,0.3719,,,,,,8,broom,melon,,90372,001,2022-04-29_13h21.51.078,SPAMnetsValid,2021.1.4,MacIntel,59.99880002,,,,,,,,,,,,,8,0.3719,0,43,43,59,1,,,,,,,,,,,,,,,,,,,,,,,,,,,,,,,,,,,,,,,,,,,,,,,,,,,,,,,,,,,,,,,
,,,,8,0.3623,,,,,,92,broom,flower,,90372,001,2022-04-29_13h21.51.078,SPAMnetsValid,2021.1.4,MacIntel,59.99880002,,,,,,,,,,,,,8,0.3623,0,44,44,88,1,,,,,,,,,,,,,,,,,,,,,,,,,,,,,,,,,,,,,,,,,,,,,,,,,,,,,,,,,,,,,,,
,,,,8,0.3888,,,,,,48,flower,oven,,90372,001,2022-04-29_13h21.51.078,SPAMnetsValid,2021.1.4,MacIntel,59.99880002,,,,,,,,,,,,,8,0.3888,0,45,45,15,1,,,,,,,,,,,,,,,,,,,,,,,,,,,,,,,,,,,,,,,,,,,,,,,,,,,,,,,,,,,,,,,
,,,,8,0.3812,,,,,,31,cactus,pretzel,,90372,001,2022-04-29_13h21.51.078,SPAMnetsValid,2021.1.4,MacIntel,59.99880002,,,,,,,,,,,,,8,0.3812,0,46,46,1,1,,,,,,,,,,,,,,,,,,,,,,,,,,,,,,,,,,,,,,,,,,,,,,,,,,,,,,,,,,,,,,,
,,,,8,0.6778,,,,,,89,chocolate,rose,,90372,001,2022-04-29_13h21.51.078,SPAMnetsValid,2021.1.4,MacIntel,59.99880002,,,,,,,,,,,,,8,0.6778,0,47,47,60,1,,,,,,,,,,,,,,,,,,,,,,,,,,,,,,,,,,,,,,,,,,,,,,,,,,,,,,,,,,,,,,,
,,,,8,0.4559,,,,,,54,chocolate,yogurt,,90372,001,2022-04-29_13h21.51.078,SPAMnetsValid,2021.1.4,MacIntel,59.99880002,,,,,,,,,,,,,8,0.4559,0,48,48,67,1,,,,,,,,,,,,,,,,,,,,,,,,,,,,,,,,,,,,,,,,,,,,,,,,,,,,,,,,,,,,,,,
,,,,8,0.3693,,,,,,192,microwave,microwave,CHECK,90372,001,2022-04-29_13h21.51.078,SPAMnetsValid,2021.1.4,MacIntel,59.99880002,,,,,,,,,,,,,8,0.3693,0,49,49,53,1,,,,,,,,,,,,,,,,,,,,,,,,,,,,,,,,,,,,,,,,,,,,,,,,,,,,,,,,,,,,,,,
,,,,8,0.3556,,,,,,82,cake,kitchen,,90372,001,2022-04-29_13h21.51.078,SPAMnetsValid,2021.1.4,MacIntel,59.99880002,,,,,,,,,,,,,8,0.3556,0,50,50,96,1,,,,,,,,,,,,,,,,,,,,,,,,,,,,,,,,,,,,,,,,,,,,,,,,,,,,,,,,,,,,,,,
,,,,8,0.268,,,,,,50,carrot,rose,,90372,001,2022-04-29_13h21.51.078,SPAMnetsValid,2021.1.4,MacIntel,59.99880002,,,,,,,,,,,,,8,0.268,0,51,51,73,1,,,,,,,,,,,,,,,,,,,,,,,,,,,,,,,,,,,,,,,,,,,,,,,,,,,,,,,,,,,,,,,
,,,,8,0.7627,,,,,,49,flower,strawberry,,90372,001,2022-04-29_13h21.51.078,SPAMnetsValid,2021.1.4,MacIntel,59.99880002,,,,,,,,,,,,,8,0.7627,0,52,52,3,1,,,,,,,,,,,,,,,,,,,,,,,,,,,,,,,,,,,,,,,,,,,,,,,,,,,,,,,,,,,,,,,
,,,,8,0.4297,,,,,,62,kitchen,rose,,90372,001,2022-04-29_13h21.51.078,SPAMnetsValid,2021.1.4,MacIntel,59.99880002,,,,,,,,,,,,,8,0.4297,0,53,53,57,1,,,,,,,,,,,,,,,,,,,,,,,,,,,,,,,,,,,,,,,,,,,,,,,,,,,,,,,,,,,,,,,
,,,,8,0.3869,,,,,,27,cactus,cookie,,90372,001,2022-04-29_13h21.51.078,SPAMnetsValid,2021.1.4,MacIntel,59.99880002,,,,,,,,,,,,,8,0.3869,0,54,54,17,1,,,,,,,,,,,,,,,,,,,,,,,,,,,,,,,,,,,,,,,,,,,,,,,,,,,,,,,,,,,,,,,
,,,,8,0.3891,,,,,,13,broom,yogurt,,90372,001,2022-04-29_13h21.51.078,SPAMnetsValid,2021.1.4,MacIntel,59.99880002,,,,,,,,,,,,,8,0.3891,0,55,55,5,1,,,,,,,,,,,,,,,,,,,,,,,,,,,,,,,,,,,,,,,,,,,,,,,,,,,,,,,,,,,,,,,
,,,,8,0.3623,,,,,,78,cookie,rose,,90372,001,2022-04-29_13h21.51.078,SPAMnetsValid,2021.1.4,MacIntel,59.99880002,,,,,,,,,,,,,8,0.3623,0,56,56,56,1,,,,,,,,,,,,,,,,,,,,,,,,,,,,,,,,,,,,,,,,,,,,,,,,,,,,,,,,,,,,,,,
,,,,8,0.3565,,,,,,17,carrot,melon,,90372,001,2022-04-29_13h21.51.078,SPAMnetsValid,2021.1.4,MacIntel,59.99880002,,,,,,,,,,,,,8,0.3565,0,57,57,24,1,,,,,,,,,,,,,,,,,,,,,,,,,,,,,,,,,,,,,,,,,,,,,,,,,,,,,,,,,,,,,,,
,,,,8,0.3719,,,,,,46,garden,yogurt,,90372,001,2022-04-29_13h21.51.078,SPAMnetsValid,2021.1.4,MacIntel,59.99880002,,,,,,,,,,,,,8,0.3719,0,58,58,65,1,,,,,,,,,,,,,,,,,,,,,,,,,,,,,,,,,,,,,,,,,,,,,,,,,,,,,,,,,,,,,,,
,,,,8,0.8736,,,,,,18,onion,refrigerator,,90372,001,2022-04-29_13h21.51.078,SPAMnetsValid,2021.1.4,MacIntel,59.99880002,,,,,,,,,,,,,8,0.8736,0,59,59,62,1,,,,,,,,,,,,,,,,,,,,,,,,,,,,,,,,,,,,,,,,,,,,,,,,,,,,,,,,,,,,,,,
,,,,8,0.3889,,,,,,39,melon,pretzel,,90372,001,2022-04-29_13h21.51.078,SPAMnetsValid,2021.1.4,MacIntel,59.99880002,,,,,,,,,,,,,8,0.3889,0,60,60,20,1,,,,,,,,,,,,,,,,,,,,,,,,,,,,,,,,,,,,,,,,,,,,,,,,,,,,,,,,,,,,,,,
,,,,8,0.4252,,,,,,33,oven,yogurt,,90372,001,2022-04-29_13h21.51.078,SPAMnetsValid,2021.1.4,MacIntel,59.99880002,,,,,,,,,,,,,8,0.4252,0,61,61,31,1,,,,,,,,,,,,,,,,,,,,,,,,,,,,,,,,,,,,,,,,,,,,,,,,,,,,,,,,,,,,,,,
,,,,8,0.4746,,,,,,79,garden,strawberry,,90372,001,2022-04-29_13h21.51.078,SPAMnetsValid,2021.1.4,MacIntel,59.99880002,,,,,,,,,,,,,8,0.4746,0,62,62,87,1,,,,,,,,,,,,,,,,,,,,,,,,,,,,,,,,,,,,,,,,,,,,,,,,,,,,,,,,,,,,,,,
,,,,8,0.3717,,,,,,85,cake,tree,,90372,001,2022-04-29_13h21.51.078,SPAMnetsValid,2021.1.4,MacIntel,59.99880002,,,,,,,,,,,,,8,0.3717,0,63,63,18,1,,,,,,,,,,,,,,,,,,,,,,,,,,,,,,,,,,,,,,,,,,,,,,,,,,,,,,,,,,,,,,,
,,,,8,0.3772,,,,,,9,kitchen,refrigerator,,90372,001,2022-04-29_13h21.51.078,SPAMnetsValid,2021.1.4,MacIntel,59.99880002,,,,,,,,,,,,,8,0.3772,0,64,64,64,1,,,,,,,,,,,,,,,,,,,,,,,,,,,,,,,,,,,,,,,,,,,,,,,,,,,,,,,,,,,,,,,
,,,,3,2.489,,,,,,16,chocolate,flower,,90372,001,2022-04-29_13h21.51.078,SPAMnetsValid,2021.1.4,MacIntel,59.99880002,,,,,,,,,,,,,3,2.489,0,65,65,22,1,,,,,,,,,,,,,,,,,,,,,,,,,,,,,,,,,,,,,,,,,,,,,,,,,,,,,,,,,,,,,,,
,,,,3,0.3476,,,,,,2,kitchen,onion,,90372,001,2022-04-29_13h21.51.078,SPAMnetsValid,2021.1.4,MacIntel,59.99880002,,,,,,,,,,,,,3,0.3476,0,66,66,91,1,,,,,,,,,,,,,,,,,,,,,,,,,,,,,,,,,,,,,,,,,,,,,,,,,,,,,,,,,,,,,,,
,,,,3,1.0802,,,,,,66,melon,yogurt,,90372,001,2022-04-29_13h21.51.078,SPAMnetsValid,2021.1.4,MacIntel,59.99880002,,,,,,,,,,,,,3,1.0802,0,67,67,48,1,,,,,,,,,,,,,,,,,,,,,,,,,,,,,,,,,,,,,,,,,,,,,,,,,,,,,,,,,,,,,,,
,,,,3,0.7076,,,,,,76,garden,rose,,90372,001,2022-04-29_13h21.51.078,SPAMnetsValid,2021.1.4,MacIntel,59.99880002,,,,,,,,,,,,,3,0.7076,0,68,68,19,1,,,,,,,,,,,,,,,,,,,,,,,,,,,,,,,,,,,,,,,,,,,,,,,,,,,,,,,,,,,,,,,
,,,,3,0.4014,,,,,,52,carrot,tomato,,90372,001,2022-04-29_13h21.51.078,SPAMnetsValid,2021.1.4,MacIntel,59.99880002,,,,,,,,,,,,,3,0.4014,0,69,69,95,1,,,,,,,,,,,,,,,,,,,,,,,,,,,,,,,,,,,,,,,,,,,,,,,,,,,,,,,,,,,,,,,
,,,,3,0.4721,,,,,,55,tomato,tree,,90372,001,2022-04-29_13h21.51.078,SPAMnetsValid,2021.1.4,MacIntel,59.99880002,,,,,,,,,,,,,3,0.4721,0,70,70,35,1,,,,,,,,,,,,,,,,,,,,,,,,,,,,,,,,,,,,,,,,,,,,,,,,,,,,,,,,,,,,,,,
,,,,3,0.4482,,,,,,10,flower,onion,,90372,001,2022-04-29_13h21.51.078,SPAMnetsValid,2021.1.4,MacIntel,59.99880002,,,,,,,,,,,,,3,0.4482,0,71,71,45,1,,,,,,,,,,,,,,,,,,,,,,,,,,,,,,,,,,,,,,,,,,,,,,,,,,,,,,,,,,,,,,,
,,,,3,1.191,,,,,,91,microwave,rose,,90372,001,2022-04-29_13h21.51.078,SPAMnetsValid,2021.1.4,MacIntel,59.99880002,,,,,,,,,,,,,3,1.191,0,72,72,84,1,,,,,,,,,,,,,,,,,,,,,,,,,,,,,,,,,,,,,,,,,,,,,,,,,,,,,,,,,,,,,,,
,,,,3,0.5066,,,,,,22,kitchen,strawberry,,90372,001,2022-04-29_13h21.51.078,SPAMnetsValid,2021.1.4,MacIntel,59.99880002,,,,,,,,,,,,,3,0.5066,0,73,73,2,1,,,,,,,,,,,,,,,,,,,,,,,,,,,,,,,,,,,,,,,,,,,,,,,,,,,,,,,,,,,,,,,
,,,,3,0.4287,,,,,,63,cake,cookie,,90372,001,2022-04-29_13h21.51.078,SPAMnetsValid,2021.1.4,MacIntel,59.99880002,,,,,,,,,,,,,3,0.4287,0,74,74,93,1,,,,,,,,,,,,,,,,,,,,,,,,,,,,,,,,,,,,,,,,,,,,,,,,,,,,,,,,,,,,,,,
,,,,3,0.4252,,,,,,7,melon,tree,,90372,001,2022-04-29_13h21.51.078,SPAMnetsValid,2021.1.4,MacIntel,59.99880002,,,,,,,,,,,,,3,0.4252,0,75,75,77,1,,,,,,,,,,,,,,,,,,,,,,,,,,,,,,,,,,,,,,,,,,,,,,,,,,,,,,,,,,,,,,,
,,,,3,0.4555,,,,,,25,carrot,onion,,90372,001,2022-04-29_13h21.51.078,SPAMnetsValid,2021.1.4,MacIntel,59.99880002,,,,,,,,,,,,,3,0.4555,0,76,76,44,1,,,,,,,,,,,,,,,,,,,,,,,,,,,,,,,,,,,,,,,,,,,,,,,,,,,,,,,,,,,,,,,
,,,,3,0.4277,,,,,,14,broom,cookie,,90372,001,2022-04-29_13h21.51.078,SPAMnetsValid,2021.1.4,MacIntel,59.99880002,,,,,,,,,,,,,3,0.4277,0,77,77,16,1,,,,,,,,,,,,,,,,,,,,,,,,,,,,,,,,,,,,,,,,,,,,,,,,,,,,,,,,,,,,,,,
,,,,3,0.4807,,,,,,28,cake,melon,,90372,001,2022-04-29_13h21.51.078,SPAMnetsValid,2021.1.4,MacIntel,59.99880002,,,,,,,,,,,,,3,0.4807,0,78,78,54,1,,,,,,,,,,,,,,,,,,,,,,,,,,,,,,,,,,,,,,,,,,,,,,,,,,,,,,,,,,,,,,,
,,,,6,2.7096,,,,,,5,oven,tree,,90372,001,2022-04-29_13h21.51.078,SPAMnetsValid,2021.1.4,MacIntel,59.99880002,,,,,,,,,,,,,6,2.7096,0,79,79,70,1,,,,,,,,,,,,,,,,,,,,,,,,,,,,,,,,,,,,,,,,,,,,,,,,,,,,,,,,,,,,,,,
,,,,6,0.4042,,,,,,47,onion,tomato,,90372,001,2022-04-29_13h21.51.078,SPAMnetsValid,2021.1.4,MacIntel,59.99880002,,,,,,,,,,,,,6,0.4042,0,80,80,51,1,,,,,,,,,,,,,,,,,,,,,,,,,,,,,,,,,,,,,,,,,,,,,,,,,,,,,,,,,,,,,,,
,,,,6,0.4229,,,,,,67,flower,yogurt,,90372,001,2022-04-29_13h21.51.078,SPAMnetsValid,2021.1.4,MacIntel,59.99880002,,,,,,,,,,,,,6,0.4229,0,81,81,12,1,,,,,,,,,,,,,,,,,,,,,,,,,,,,,,,,,,,,,,,,,,,,,,,,,,,,,,,,,,,,,,,
,,,,6,0.4227,,,,,,42,garden,kitchen,,90372,001,2022-04-29_13h21.51.078,SPAMnetsValid,2021.1.4,MacIntel,59.99880002,,,,,,,,,,,,,6,0.4227,0,82,82,29,1,,,,,,,,,,,,,,,,,,,,,,,,,,,,,,,,,,,,,,,,,,,,,,,,,,,,,,,,,,,,,,,
,,,,6,0.4091,,,,,,90,cactus,cake,,90372,001,2022-04-29_13h21.51.078,SPAMnetsValid,2021.1.4,MacIntel,59.99880002,,,,,,,,,,,,,6,0.4091,0,83,83,85,1,,,,,,,,,,,,,,,,,,,,,,,,,,,,,,,,,,,,,,,,,,,,,,,,,,,,,,,,,,,,,,,
,,,,6,0.6379,,,,,,61,strawberry,tomato,,90372,001,2022-04-29_13h21.51.078,SPAMnetsValid,2021.1.4,MacIntel,59.99880002,,,,,,,,,,,,,6,0.6379,0,84,84,80,1,,,,,,,,,,,,,,,,,,,,,,,,,,,,,,,,,,,,,,,,,,,,,,,,,,,,,,,,,,,,,,,
,,,,6,0.4778,,,,,,58,garden,oven,,90372,001,2022-04-29_13h21.51.078,SPAMnetsValid,2021.1.4,MacIntel,59.99880002,,,,,,,,,,,,,6,0.4778,0,85,85,37,1,,,,,,,,,,,,,,,,,,,,,,,,,,,,,,,,,,,,,,,,,,,,,,,,,,,,,,,,,,,,,,,
,,,,6,1.2033,,,,,,4,chocolate,pretzel,,90372,001,2022-04-29_13h21.51.078,SPAMnetsValid,2021.1.4,MacIntel,59.99880002,,,,,,,,,,,,,6,1.2033,0,86,86,52,1,,,,,,,,,,,,,,,,,,,,,,,,,,,,,,,,,,,,,,,,,,,,,,,,,,,,,,,,,,,,,,,
,,,,6,0.7777,,,,,,20,rose,tree,,90372,001,2022-04-29_13h21.51.078,SPAMnetsValid,2021.1.4,MacIntel,59.99880002,,,,,,,,,,,,,6,0.7777,0,87,87,66,1,,,,,,,,,,,,,,,,,,,,,,,,,,,,,,,,,,,,,,,,,,,,,,,,,,,,,,,,,,,,,,,
,,,,6,0.3921,,,,,,34,melon,oven,,90372,001,2022-04-29_13h21.51.078,SPAMnetsValid,2021.1.4,MacIntel,59.99880002,,,,,,,,,,,,,6,0.3921,0,88,88,7,1,,,,,,,,,,,,,,,,,,,,,,,,,,,,,,,,,,,,,,,,,,,,,,,,,,,,,,,,,,,,,,,
,,,,6,0.4215,,,,,,72,broom,onion,,90372,001,2022-04-29_13h21.51.078,SPAMnetsValid,2021.1.4,MacIntel,59.99880002,,,,,,,,,,,,,6,0.4215,0,89,89,27,1,,,,,,,,,,,,,,,,,,,,,,,,,,,,,,,,,,,,,,,,,,,,,,,,,,,,,,,,,,,,,,,
,,,,6,0.3527,,,,,,75,cookie,onion,,90372,001,2022-04-29_13h21.51.078,SPAMnetsValid,2021.1.4,MacIntel,59.99880002,,,,,,,,,,,,,6,0.3527,0,90,90,9,1,,,,,,,,,,,,,,,,,,,,,,,,,,,,,,,,,,,,,,,,,,,,,,,,,,,,,,,,,,,,,,,
,,,,6,0.4224,,,,,,86,oven,rose,,90372,001,2022-04-29_13h21.51.078,SPAMnetsValid,2021.1.4,MacIntel,59.99880002,,,,,,,,,,,,,6,0.4224,0,91,91,79,1,,,,,,,,,,,,,,,,,,,,,,,,,,,,,,,,,,,,,,,,,,,,,,,,,,,,,,,,,,,,,,,
,,,,6,0.3565,,,,,,84,oven,tomato,,90372,001,2022-04-29_13h21.51.078,SPAMnetsValid,2021.1.4,MacIntel,59.99880002,,,,,,,,,,,,,6,0.3565,0,92,92,28,1,,,,,,,,,,,,,,,,,,,,,,,,,,,,,,,,,,,,,,,,,,,,,,,,,,,,,,,,,,,,,,,
,,,,6,0.4209,,,,,,64,chocolate,garden,,90372,001,2022-04-29_13h21.51.078,SPAMnetsValid,2021.1.4,MacIntel,59.99880002,,,,,,,,,,,,,6,0.4209,0,93,93,14,1,,,,,,,,,,,,,,,,,,,,,,,,,,,,,,,,,,,,,,,,,,,,,,,,,,,,,,,,,,,,,,,
,,,,6,0.5402,,,,,,1,rose,yogurt,,90372,001,2022-04-29_13h21.51.078,SPAMnetsValid,2021.1.4,MacIntel,59.99880002,,,,,,,,,,,,,6,0.5402,0,94,94,55,1,,,,,,,,,,,,,,,,,,,,,,,,,,,,,,,,,,,,,,,,,,,,,,,,,,,,,,,,,,,,,,,
,,,,6,0.3734,,,,,,88,cactus,melon,,90372,001,2022-04-29_13h21.51.078,SPAMnetsValid,2021.1.4,MacIntel,59.99880002,,,,,,,,,,,,,6,0.3734,0,95,95,38,1,,,,,,,,,,,,,,,,,,,,,,,,,,,,,,,,,,,,,,,,,,,,,,,,,,,,,,,,,,,,,,,
,,,,4,14.6659,,,,,,81,pretzel,yogurt,,90372,001,2022-04-29_13h21.51.078,SPAMnetsValid,2021.1.4,MacIntel,59.99880002,,,,,,,,,,,,,4,14.6659,0,96,96,50,1,,,,,,,,,,,,,,,,,,,,,,,,,,,,,,,,,,,,,,,,,,,,,,,,,,,,,,,,,,,,,,,
,,,,,,,,,,,,,,,90372,001,2022-04-29_13h21.51.078,SPAMnetsValid,2021.1.4,MacIntel,59.99880002,,,,,,,,,,,,,,,,,,,,0,0,0,0,1,,,,,,,,,,,,,,,,,,,,,,,,,,,,,,,,,,,,,,,,,,,,,,,,,,,,,,,,,,
,,,,,,,,,,,,,,,90372,001,2022-04-29_13h21.51.078,SPAMnetsValid,2021.1.4,MacIntel,59.99880002,,,,,,0,1,1,0,1,1,0,,,,,,,,,,,,,,,,,,,,,,,,,,,,,,,,,,,,,,,,,,,,,,,,,,,,,,,,,,,,,,,,,,,,,,
,,,,,,,,,,,,,,,90372,001,2022-04-29_13h21.51.078,SPAMnetsValid,2021.1.4,MacIntel,59.99880002,,,,,,,,,,,,,,,,,,,,,,,,,2,1.4859,0,0,0,0,1,rancor,forbearance,ridicule,malice,bravery,3,,,,,,,,,,,,,,,,,,,,,,,,,,,,,,,,,,,,,,,,,,,,,
,,,,,,,,,,,,,,,90372,001,2022-04-29_13h21.51.078,SPAMnetsValid,2021.1.4,MacIntel,59.99880002,,,,,,,,,,,,,,,,,,,,,,,,,2,0.9092,0,1,1,1,1,raucous,empty,quiet,smooth,harsh,4,,,,,,,,,,,,,,,,,,,,,,,,,,,,,,,,,,,,,,,,,,,,,
,,,,,,,,,,,,,,,90372,001,2022-04-29_13h21.51.078,SPAMnetsValid,2021.1.4,MacIntel,59.99880002,,,,,,,,,,,,,,,,,,,,,,,,,2,1.7903,0,2,2,2,1,gargoyle,oil,medicine,carved waterspout,ugly building,3,,,,,,,,,,,,,,,,,,,,,,,,,,,,,,,,,,,,,,,,,,,,,
,,,,,,,,,,,,,,,90372,001,2022-04-29_13h21.51.078,SPAMnetsValid,2021.1.4,MacIntel,59.99880002,,,,,,,,,,,,,,,,,,,,,,,,,2,0.4961,0,3,3,3,1,recrudesce,purify,renew activity,lack refinement,crush,2,,,,,,,,,,,,,,,,,,,,,,,,,,,,,,,,,,,,,,,,,,,,,
,,,,,,,,,,,,,,,90372,001,2022-04-29_13h21.51.078,SPAMnetsValid,2021.1.4,MacIntel,59.99880002,,,,,,,,,,,,,,,,,,,,,,,,,2,0.4797,0,4,4,4,1,specious,"plausible, but not genuine",noteworthy,class or variety,roomy,1,,,,,,,,,,,,,,,,,,,,,,,,,,,,,,,,,,,,,,,,,,,,,
,,,,,,,,,,,,,,,90372,001,2022-04-29_13h21.51.078,SPAMnetsValid,2021.1.4,MacIntel,59.99880002,,,,,,,,,,,,,,,,,,,,,,,,,2,0.4907,0,5,5,5,1,bauble,bubble,showy plaything,idle talk,confusion,2,,,,,,,,,,,,,,,,,,,,,,,,,,,,,,,,,,,,,,,,,,,,,
,,,,,,,,,,,,,,,90372,001,2022-04-29_13h21.51.078,SPAMnetsValid,2021.1.4,MacIntel,59.99880002,,,,,,,,,,,,,,,,,,,,,,,,,,,0,6,6,6,1,prolific,scarce,producing abundantly,reckless,speaking profanely,2,,,,,,,,,,,,,,,,,,,,,,,,,,,,,,,,,,,,,,,,,,,,,
,,,,,,,,,,,,,,,90372,001,2022-04-29_13h21.51.078,SPAMnetsValid,2021.1.4,MacIntel,59.99880002,,,,,,,,,,,,,,,,,,,,,,,,,3,1.2126,0,7,7,7,1,opulent,party,wealthy,happy frame of mind,semiprecious stone,2,,,,,,,,,,,,,,,,,,,,,,,,,,,,,,,,,,,,,,,,,,,,,
,,,,,,,,,,,,,,,90372,001,2022-04-29_13h21.51.078,SPAMnetsValid,2021.1.4,MacIntel,59.99880002,,,,,,,,,,,,,,,,,,,,,,,,,3,0.4887,0,8,8,8,1,coercion,conspiracy,strategy,restraint,attraction,3,,,,,,,,,,,,,,,,,,,,,,,,,,,,,,,,,,,,,,,,,,,,,
,,,,,,,,,,,,,,,90372,001,2022-04-29_13h21.51.078,SPAMnetsValid,2021.1.4,MacIntel,59.99880002,,,,,,,,,,,,,,,,,,,,,,,,,3,0.4384,0,9,9,9,1,hiatus,animal,calamity,dread,gap,4,,,,,,,,,,,,,,,,,,,,,,,,,,,,,,,,,,,,,,,,,,,,,
,,,,,,,,,,,,,,,90372,001,2022-04-29_13h21.51.078,SPAMnetsValid,2021.1.4,MacIntel,59.99880002,,,,,,,,,,,,,,,,,,,,,,,,,3,0.4253,0,10,10,10,1,germane,microbe,contagious,relevant,different,3,,,,,,,,,,,,,,,,,,,,,,,,,,,,,,,,,,,,,,,,,,,,,
,,,,,,,,,,,,,,,90372,001,2022-04-29_13h21.51.078,SPAMnetsValid,2021.1.4,MacIntel,59.99880002,,,,,,,,,,,,,,,,,,,,,,,,,3,0.3989,0,11,11,11,1,perfunctory,fundamental,formal,superficial,careful,3,,,,,,,,,,,,,,,,,,,,,,,,,,,,,,,,,,,,,,,,,,,,,
,,,,,,,,,,,,,,,90372,001,2022-04-29_13h21.51.078,SPAMnetsValid,2021.1.4,MacIntel,59.99880002,,,,,,,,,,,,,,,,,,,,,,,,,3,0.3234,0,12,12,12,1,diverge,reveal,chant,distract the attention of,differ or turn off from,4,,,,,,,,,,,,,,,,,,,,,,,,,,,,,,,,,,,,,,,,,,,,,
,,,,,,,,,,,,,,,90372,001,2022-04-29_13h21.51.078,SPAMnetsValid,2021.1.4,MacIntel,59.99880002,,,,,,,,,,,,,,,,,,,,,,,,,,,0,13,13,13,1,evoke,take away,anger,connect,bring out,4,,,,,,,,,,,,,,,,,,,,,,,,,,,,,,,,,,,,,,,,,,,,,
,,,,,,,,,,,,,,,90372,001,2022-04-29_13h21.51.078,SPAMnetsValid,2021.1.4,MacIntel,59.99880002,,,,,,,,,,,,,,,,,,,,,,,,,3,0.0106,0,14,14,14,1,pertinent,relevant,lying next to,necessary,bold,1,,,,,,,,,,,,,,,,,,,,,,,,,,,,,,,,,,,,,,,,,,,,,
,,,,,,,,,,,,,,,90372,001,2022-04-29_13h21.51.078,SPAMnetsValid,2021.1.4,MacIntel,59.99880002,,,,,,,,,,,,,,,,,,,,,,,,,3,0.0197,0,15,15,15,1,holocaust,entirety,destruction,saintly,price,2,,,,,,,,,,,,,,,,,,,,,,,,,,,,,,,,,,,,,,,,,,,,,
,,,,,,,,,,,,,,,90372,001,2022-04-29_13h21.51.078,SPAMnetsValid,2021.1.4,MacIntel,59.99880002,,,,,,,,,,,,,,,,,,,,,,,,,3,0.014,0,16,16,16,1,piquant,mellow,fish,pungent,cloth,3,,,,,,,,,,,,,,,,,,,,,,,,,,,,,,,,,,,,,,,,,,,,,
,,,,,,,,,,,,,,,90372,001,2022-04-29_13h21.51.078,SPAMnetsValid,2021.1.4,MacIntel,59.99880002,,,,,,,,,,,,,,,,,,,,,,,,,3,0.2982,0,17,17,17,1,firmament,foundation,heavens,strong,glue,2,,,,,,,,,,,,,,,,,,,,,,,,,,,,,,,,,,,,,,,,,,,,,
,,,,,,,,,,,,,,,90372,001,2022-04-29_13h21.51.078,SPAMnetsValid,2021.1.4,MacIntel,59.99880002,,,,,,,,,,,,,,,,,,,,,,,,,,,,,,,,,,,,,,,,0,0,0,0,1,marketable,partisan,jocular,marriageable,salable,essential,4,,,,,,,,,,,,,,,,,,,,,,,,,,,,,,,
,,,,,,,,,,,,,,,90372,001,2022-04-29_13h21.51.078,SPAMnetsValid,2021.1.4,MacIntel,59.99880002,,,,,,,,,,,,,,,,,,,,,,,,,,,,,,,,,,,,,,,,0,1,1,1,1,cottontail,squirrel,poplar,boa,marshy plant,rabbit,5,,,,,,,,,,,,,,,,,,,,,,,,,,,,,,,
,,,,,,,,,,,,,,,90372,001,2022-04-29_13h21.51.078,SPAMnetsValid,2021.1.4,MacIntel,59.99880002,,,,,,,,,,,,,,,,,,,,,,,,,,,,,,,,,,,,,,,,0,2,2,2,1,boggy,afraid,false,marshy,dense,black,3,,,,,,,,,,,,,,,,,,,,,,,,,,,,,,,
,,,,,,,,,,,,,,,90372,001,2022-04-29_13h21.51.078,SPAMnetsValid,2021.1.4,MacIntel,59.99880002,,,,,,,,,,,,,,,,,,,,,,,,,,,,,,,,,,,,,,3,2.172,0,3,3,3,1,gruesomeness,blackness,falseness,vindictiveness,drunkenness,ghastliness,5,,,,,,,,,,,,,,,,,,,,,,,,,,,,,,,
,,,,,,,,,,,,,,,90372,001,2022-04-29_13h21.51.078,SPAMnetsValid,2021.1.4,MacIntel,59.99880002,,,,,,,,,,,,,,,,,,,,,,,,,,,,,,,,,,,,,,3,2.1227,0,4,4,4,1,loathing,diffidence,laziness,abhorrence,cleverness,comfort,3,,,,,,,,,,,,,,,,,,,,,,,,,,,,,,,
,,,,,,,,,,,,,,,90372,001,2022-04-29_13h21.51.078,SPAMnetsValid,2021.1.4,MacIntel,59.99880002,,,,,,,,,,,,,,,,,,,,,,,,,,,,,,,,,,,,,,,,0,5,5,5,1,bantam,fowl,ridicule,cripple,vegetable,ensign,1,,,,,,,,,,,,,,,,,,,,,,,,,,,,,,,
,,,,,,,,,,,,,,,90372,001,2022-04-29_13h21.51.078,SPAMnetsValid,2021.1.4,MacIntel,59.99880002,,,,,,,,,,,,,,,,,,,,,,,,,,,,,,,,,,,,,,3,1.4766,0,6,6,6,1,evoke,wake up,surrender,reconnoiter,transcend,call forth,5,,,,,,,,,,,,,,,,,,,,,,,,,,,,,,,
,,,,,,,,,,,,,,,90372,001,2022-04-29_13h21.51.078,SPAMnetsValid,2021.1.4,MacIntel,59.99880002,,,,,,,,,,,,,,,,,,,,,,,,,,,,,,,,,,,,,,3,0.3269,0,7,7,7,1,unobtrusive,unintelligent,epileptic,illogical,lineal,modest,5,,,,,,,,,,,,,,,,,,,,,,,,,,,,,,,
,,,,,,,,,,,,,,,90372,001,2022-04-29_13h21.51.078,SPAMnetsValid,2021.1.4,MacIntel,59.99880002,,,,,,,,,,,,,,,,,,,,,,,,,,,,,,,,,,,,,,3,0.3369,0,8,8,8,1,terrain,ice cream,final test,tractor,area of ground,weight,4,,,,,,,,,,,,,,,,,,,,,,,,,,,,,,,
,,,,,,,,,,,,,,,90372,001,2022-04-29_13h21.51.078,SPAMnetsValid,2021.1.4,MacIntel,59.99880002,,,,,,,,,,,,,,,,,,,,,,,,,,,,,,,,,,,,,,3,0.3066,0,9,9,9,1,capriciousness,stubbornness,courage,whimsicality,amazement,greediness,3,,,,,,,,,,,,,,,,,,,,,,,,,,,,,,,
,,,,,,,,,,,,,,,90372,001,2022-04-29_13h21.51.078,SPAMnetsValid,2021.1.4,MacIntel,59.99880002,,,,,,,,,,,,,,,,,,,,,,,,,,,,,,,,,,,,,,3,0.8604,0,10,10,10,1,maelstrom,slander,whirlpool,enmity,armor,majolica,2,,,,,,,,,,,,,,,,,,,,,,,,,,,,,,,
,,,,,,,,,,,,,,,90372,001,2022-04-29_13h21.51.078,SPAMnetsValid,2021.1.4,MacIntel,59.99880002,,,,,,,,,,,,,,,,,,,,,,,,,,,,,,,,,,,,,,3,0.4639,0,11,11,11,1,tentative,critical,conclusive,authentic,provisional,apprehensive,4,,,,,,,,,,,,,,,,,,,,,,,,,,,,,,,
,,,,,,,,,,,,,,,90372,001,2022-04-29_13h21.51.078,SPAMnetsValid,2021.1.4,MacIntel,59.99880002,,,,,,,,,,,,,,,,,,,,,,,,,,,,,,,,,,,,,,3,0.5279,0,12,12,12,1,placate,rehabilitate,plagiarize,depredate,apprise,conciliate,5,,,,,,,,,,,,,,,,,,,,,,,,,,,,,,,
,,,,,,,,,,,,,,,90372,001,2022-04-29_13h21.51.078,SPAMnetsValid,2021.1.4,MacIntel,59.99880002,,,,,,,,,,,,,,,,,,,,,,,,,,,,,,,,,,,,,,3,0.5038,0,13,13,13,1,surcease,enlightenment,cessation,inattention,censor,substitution,2,,,,,,,,,,,,,,,,,,,,,,,,,,,,,,,
,,,,,,,,,,,,,,,90372,001,2022-04-29_13h21.51.078,SPAMnetsValid,2021.1.4,MacIntel,59.99880002,,,,,,,,,,,,,,,,,,,,,,,,,,,,,,,,,,,,,,3,0.4596,0,14,14,14,1,apathetic,wandering,impassive,hateful,prophetic,overflowing,2,,,,,,,,,,,,,,,,,,,,,,,,,,,,,,,
,,,,,,,,,,,,,,,90372,001,2022-04-29_13h21.51.078,SPAMnetsValid,2021.1.4,MacIntel,59.99880002,,,,,,,,,,,,,,,,,,,,,,,,,,,,,,,,,,,,,,5,2.1294,0,15,15,15,1,paternoster,paternalism,patricide,malediction,benediction,prayer,5,,,,,,,,,,,,,,,,,,,,,,,,,,,,,,,
,,,,,,,,,,,,,,,90372,001,2022-04-29_13h21.51.078,SPAMnetsValid,2021.1.4,MacIntel,59.99880002,,,,,,,,,,,,,,,,,,,,,,,,,,,,,,,,,,,,,,5,0.5134,0,16,16,16,1,opalescence,opulence,senescence,bankruptcy,iridescence,assiduity,4,,,,,,,,,,,,,,,,,,,,,,,,,,,,,,,
,,,,,,,,,,,,,,,90372,001,2022-04-29_13h21.51.078,SPAMnetsValid,2021.1.4,MacIntel,59.99880002,,,,,,,,,,,,,,,,,,,,,,,,,,,,,,,,,,,,,,5,0.472,0,17,17,17,1,lush,stupid,luxurious,hazy,putrid,languishing,2,,,,,,,,,,,,,,,,,,,,,,,,,,,,,,,
,,,,,,,,,,,,,,,90372,001,2022-04-29_13h21.51.078,SPAMnetsValid,2021.1.4,MacIntel,59.99880002,,,,,,,,,,,,,,,,,,,,,,,,,,,,,,,,,,,,,,5,0.4815,0,18,18,18,1,curtailment,expenditure,abandonment,abridgment,improvement,forgery,3,,,,,,,,,,,,,,,,,,,,,,,,,,,,,,,
,,,,,,,,,,,,,,,90372,001,2022-04-29_13h21.51.078,SPAMnetsValid,2021.1.4,MacIntel,59.99880002,,,,,,,,,,,,,,,,,,,,,,,,,,,,,,,,,,,,,,5,0.4541,0,19,19,19,1,perversity,adversity,perviousness,travesty,waywardness,gentility,4,,,,,,,,,,,,,,,,,,,,,,,,,,,,,,,
,,,,,,,,,,,,,,,90372,001,2022-04-29_13h21.51.078,SPAMnetsValid,2021.1.4,MacIntel,59.99880002,,,,,,,,,,,,,,,,,,,,,,,,,,,,,,,,,,,,,,5,0.4585,0,20,20,20,1,calumnious,complimentary,analogous,slanderous,tempestuous,magnanimous,3,,,,,,,,,,,,,,,,,,,,,,,,,,,,,,,
,,,,,,,,,,,,,,,90372,001,2022-04-29_13h21.51.078,SPAMnetsValid,2021.1.4,MacIntel,59.99880002,,,,,,,,,,,,,,,,,,,,,,,,,,,,,,,,,,,,,,5,0.546,0,21,21,21,1,illiberality,bigotry,imbecility,illegibility,cautery,immaturity,1,,,,,,,,,,,,,,,,,,,,,,,,,,,,,,,
,,,,,,,,,,,,,,,90372,001,2022-04-29_13h21.51.078,SPAMnetsValid,2021.1.4,MacIntel,59.99880002,,,,,,,,,,,,,,,,,,,,,,,,,,,,,,,,,,,,,,5,0.4291,0,22,22,22,1,clabber,rejoice,gossip,curdle,crow,hobble,3,,,,,,,,,,,,,,,,,,,,,,,,,,,,,,,
,,,,,,,,,,,,,,,90372,001,2022-04-29_13h21.51.078,SPAMnetsValid,2021.1.4,MacIntel,59.99880002,,,,,,,,,,,,,,,,,,,,,,,,,,,,,,,,,,,,,,5,0.4893,0,23,23,23,1,sedulousness,diligence,credulousness,seduction,perilousness,frankness,1,,,,,,,,,,,,,,,,,,,,,,,,,,,,,,,
,,,,,,,,,,,,,,,90372,001,2022-04-29_13h21.51.078,SPAMnetsValid,2021.1.4,MacIntel,59.99880002,,,,,,,,,,,,,,,,,,,,,,,,,,,,,,,,,,,,,,,,,,,,,,,,,,,,sleep,pillow,0,0,0,0,1,,,,,,,,,,,,,,,,,,,,,,,,
,,,,,,,,,,,,,,,90372,001,2022-04-29_13h21.51.078,SPAMnetsValid,2021.1.4,MacIntel,59.99880002,,,,,,,,,,,,,,,,,,,,,,,,,,,,,,,,,,,,,,,,,,,,,,,,,,,,sleep,pillow,1,0,1,0,1,,,,,,,,,,,,,,,,,,,,,,,,
,,,,,,,,,,,,,,,90372,001,2022-04-29_13h21.51.078,SPAMnetsValid,2021.1.4,MacIntel,59.99880002,,,,,,,,,,,,,,,,,,,,,,,,,,,,,,,,,,,,,,,,,,,,,,,,,,,,sleep,pillow,2,0,2,0,1,,,,,,,,,,,,,,,,,,,,,,,,
,,,,,,,,,,,,,,,90372,001,2022-04-29_13h21.51.078,SPAMnetsValid,2021.1.4,MacIntel,59.99880002,,,,,,,,,,,,,,,,,,,,,,,,,,,,,,,,,,,,,,,,,,,,,,,,,,,,sleep,pillow,3,0,3,0,1,,,,,,,,,,,,,,,,,,,,,,,,
,,,,,,,,,,,,,,,90372,001,2022-04-29_13h21.51.078,SPAMnetsValid,2021.1.4,MacIntel,59.99880002,,,,,,,,,,,,,,,,,,,,,,,,,,,,,,,,,,,,,,,,,,,,,,,,,,,,sleep,pillow,4,0,4,0,1,,,,,,,,,,,,,,,,,,,,,,,,
,,,,,,,,,,,,,,,90372,001,2022-04-29_13h21.51.078,SPAMnetsValid,2021.1.4,MacIntel,59.99880002,,,,,,,,,,,,,,,,,,,,,,,,,,,,,,,,,,,,,,,,,,,,,,,,,,,,sleep,pillow,5,0,5,0,1,,,,,,,,,,,,,,,,,,,,,,,,
,,,,,,,,,,,,,,,90372,001,2022-04-29_13h21.51.078,SPAMnetsValid,2021.1.4,MacIntel,59.99880002,,,,,,,,,,,,,,,,,,,,,,,,,,,,,,,,,,,,,,,,,,,,,,,,,,,,bed,pillow,6,0,6,0,1,,,,,,,,,,,,,,,,,,,,,,,,
,,,,,,,,,,,,,,,90372,001,2022-04-29_13h21.51.078,SPAMnetsValid,2021.1.4,MacIntel,59.99880002,,,,,,,,,,,,,,,,,,,,,,,,,,,,,,,,,,,,,,,,,,,,,,,,,,,,beddimg,pillow,7,0,7,0,1,,,,,,,,,,,,,,,,,,,,,,,,
,,,,,,,,,,,,,,,90372,001,2022-04-29_13h21.51.078,SPAMnetsValid,2021.1.4,MacIntel,59.99880002,,,,,,,,,,,,,,,,,,,,,,,,,,,,,,,,,,,,,,,,,,,,,,,,,,,,jumoinmg,pillow,8,0,8,0,1,,,,,,,,,,,,,,,,,,,,,,,,
,,,,,,,,,,,,,,,90372,001,2022-04-29_13h21.51.078,SPAMnetsValid,2021.1.4,MacIntel,59.99880002,,,,,,,,,,,,,,,,,,,,,,,,,,,,,,,,,,,,,,,,,,,,,,,,,,,,cushion,pillow,9,0,9,0,1,,,,,,,,,,,,,,,,,,,,,,,,
,,,,,,,,,,,,,,,90372,001,2022-04-29_13h21.51.078,SPAMnetsValid,2021.1.4,MacIntel,59.99880002,,,,,,,,,,,,,,,,,,,,,,,,,,,,,,,,,,,,,,,,,,,,,,,,,,,,cushion,pillow,10,0,10,0,1,,,,,,,,,,,,,,,,,,,,,,,,
,,,,,,,,,,,,,,,90372,001,2022-04-29_13h21.51.078,SPAMnetsValid,2021.1.4,MacIntel,59.99880002,,,,,,,,,,,,,,,,,,,,,,,,,,,,,,,,,,,,,,,,,,,,,,,,,,,,plushie,pillow,11,0,11,0,1,,,,,,,,,,,,,,,,,,,,,,,,
,,,,,,,,,,,,,,,90372,001,2022-04-29_13h21.51.078,SPAMnetsValid,2021.1.4,MacIntel,59.99880002,,,,,,,,,,,,,,,,,,,,,,,,,,,,,,,,,,,,,,,,,,,,,,,,,,,,plushie,pillow,12,0,12,0,1,,,,,,,,,,,,,,,,,,,,,,,,
,,,,,,,,,,,,,,,90372,001,2022-04-29_13h21.51.078,SPAMnetsValid,2021.1.4,MacIntel,59.99880002,,,,,,,,,,,,,,,,,,,,,,,,,,,,,,,,,,,,,,,,,,,,,,,,,,,,pillow,pillow,13,0,13,0,1,,,,,,,,,,,,,,,,,,,,,,,,
,,,,,,,,,,,,,,,90372,001,2022-04-29_13h21.51.078,SPAMnetsValid,2021.1.4,MacIntel,59.99880002,,,,,,,,,,,,,,,,,,,,,,,,,,,,,,,,,,,,,,,,,,,,,,,,,,,,pillow,pillow,14,0,14,0,1,,,,,,,,,,,,,,,,,,,,,,,,
,,,,,,,,,,,,,,,90372,001,2022-04-29_13h21.51.078,SPAMnetsValid,2021.1.4,MacIntel,59.99880002,,,,,,,,,,,,,,,,,,,,,,,,,,,,,,,,,,,,,,,,,,,,,,,,,,,,pillow,pillow,15,0,15,0,1,,,,,,,,,,,,,,,,,,,,,,,,
,,,,,,,,,,,,,,,90372,001,2022-04-29_13h21.51.078,SPAMnetsValid,2021.1.4,MacIntel,59.99880002,,,,,,,,,,,,,,,,,,,,,,,,,,,,,,,,,,,,,,,,,,,,,,,,,,,,pillow,pillow,16,0,16,0,1,,,,,,,,,,,,,,,,,,,,,,,,
,,,,,,,,,,,,,,,90372,001,2022-04-29_13h21.51.078,SPAMnetsValid,2021.1.4,MacIntel,59.99880002,,,,,,,,,,,,,,,,,,,,,,,,,,,,,,,,,,,,,,,,,,,,,,,,,,,,pillow,pillow,17,0,17,0,1,,,,,,,,,,,,,,,,,,,,,,,,
,,,,,,,,,,,,,,,90372,001,2022-04-29_13h21.51.078,SPAMnetsValid,2021.1.4,MacIntel,59.99880002,,,,,,,,,,,,,,,,,,,,,,,,,,,,,,,,,,,,,,,,,,,,,,,,,,,,beding,pillow,18,0,18,0,1,,,,,,,,,,,,,,,,,,,,,,,,
,,,,,,,,,,,,,,,90372,001,2022-04-29_13h21.51.078,SPAMnetsValid,2021.1.4,MacIntel,59.99880002,,,,,,,,,,,,,,,,,,,,,,,,,,,,,,,,,,,,,,,,,,,,,,,,,,,,bedding,pillow,19,0,19,0,1,,,,,,,,,,,,,,,,,,,,,,,,
,,,,,,,,,,,,,,,90372,001,2022-04-29_13h21.51.078,SPAMnetsValid,2021.1.4,MacIntel,59.99880002,,,,,,,,,,,,,,,,,,,,,,,,,,,,,,,,,,,,,,,,,,,,,,,,,,,,shoes,pillow,20,0,20,0,1,,,,,,,,,,,,,,,,,,,,,,,,
,,,,,,,,,,,,,,,90372,001,2022-04-29_13h21.51.078,SPAMnetsValid,2021.1.4,MacIntel,59.99880002,,,,,,,,,,,,,,,,,,,,,,,,,,,,,,,,,,,,,,,,,,,,,,,,,,,,clothes,pillow,21,0,21,0,1,,,,,,,,,,,,,,,,,,,,,,,,
,,,,,,,,,,,,,,,90372,001,2022-04-29_13h21.51.078,SPAMnetsValid,2021.1.4,MacIntel,59.99880002,,,,,,,,,,,,,,,,,,,,,,,,,,,,,,,,,,,,,,,,,,,,,,,,,,,,,,,,,,,0,0,0,2,1,pillow,,,,,,,,,,,,,,,,,,
,,,,,,,,,,,,,,,90372,001,2022-04-29_13h21.51.078,SPAMnetsValid,2021.1.4,MacIntel,59.99880002,,,,,,,,,,,,,,,,,,,,,,,,,,,,,,,,,,,,,,,,,,,,,,,,,,,,,,,,,,,0,1,1,0,1,bucket,,,,,,,,,,,,,,,,,,
,,,,,,,,,,,,,,,90372,001,2022-04-29_13h21.51.078,SPAMnetsValid,2021.1.4,MacIntel,59.99880002,,,,,,,,,,,,,,,,,,,,,,,,,,,,,,,,,,,,,,,,,,,,,,,,,,,,,,,,,,,0,2,2,1,1,candle,,,,,,,,,,,,,,,,,,
,,,,,,,,,,,,,,,90372,001,2022-04-29_13h21.51.078,SPAMnetsValid,2021.1.4,MacIntel,59.99880002,,,,,,,,,,,,,,,,,,,,,,,,,,,,,,,,,,,,,,,,,,,,,,,,,,,,,,,,,,,,,,,,,0,0,0,0,1,Animals,,,,,,,,,,,,
,,,,,,,,,,,,,,,90372,001,2022-04-29_13h21.51.078,SPAMnetsValid,2021.1.4,MacIntel,59.99880002,,,,,,,,,,,,,,,,,,,,,,,,,,,,,,,,,,,,,,,,,,,,,,,,,,,,,,,,,,,,,,,,,,,,,,,3,2.7278,0,0,0,0,1,"I enjoy concentrating on a fantasy or daydream and exploring all its possibilities, letting it grow and develop.",0,1,,
,,,,,,,,,,,,,,,90372,001,2022-04-29_13h21.51.078,SPAMnetsValid,2021.1.4,MacIntel,59.99880002,,,,,,,,,,,,,,,,,,,,,,,,,,,,,,,,,,,,,,,,,,,,,,,,,,,,,,,,,,,,,,,,,,,,,,,3,0.9894,0,1,1,1,1,I think it's interesting to learn and develop new hobbies.,0,2,,
,,,,,,,,,,,,,,,90372,001,2022-04-29_13h21.51.078,SPAMnetsValid,2021.1.4,MacIntel,59.99880002,,,,,,,,,,,,,,,,,,,,,,,,,,,,,,,,,,,,,,,,,,,,,,,,,,,,,,,,,,,,,,,,,,,,,,,3,0.4397,0,2,2,2,1,I am intrigued by the patterns I find in art and nature.,0,3,,
,,,,,,,,,,,,,,,90372,001,2022-04-29_13h21.51.078,SPAMnetsValid,2021.1.4,MacIntel,59.99880002,,,,,,,,,,,,,,,,,,,,,,,,,,,,,,,,,,,,,,,,,,,,,,,,,,,,,,,,,,,,,,,,,,,,,,,3,1.2893,0,3,3,3,1,I believe letting students hear controversial speakers can only confuse and mislead them.,1,4,,
,,,,,,,,,,,,,,,90372,001,2022-04-29_13h21.51.078,SPAMnetsValid,2021.1.4,MacIntel,59.99880002,,,,,,,,,,,,,,,,,,,,,,,,,,,,,,,,,,,,,,,,,,,,,,,,,,,,,,,,,,,,,,,,,,,,,,,3,0.4581,0,4,4,4,1,Poetry has little or no effect on me.,1,5,,
,,,,,,,,,,,,,,,90372,001,2022-04-29_13h21.51.078,SPAMnetsValid,2021.1.4,MacIntel,59.99880002,,,,,,,,,,,,,,,,,,,,,,,,,,,,,,,,,,,,,,,,,,,,,,,,,,,,,,,,,,,,,,,,,,,,,,,3,0.4719,0,5,5,5,1,I would have difficulty just letting my mind wander without control or guidance.,1,6,,
,,,,,,,,,,,,,,,90372,001,2022-04-29_13h21.51.078,SPAMnetsValid,2021.1.4,MacIntel,59.99880002,,,,,,,,,,,,,,,,,,,,,,,,,,,,,,,,,,,,,,,,,,,,,,,,,,,,,,,,,,,,,,,,,,,,,,,3,0.5154,0,6,6,6,1,I seldom notice the moods or feelings that different environments produce.,1,7,,
,,,,,,,,,,,,,,,90372,001,2022-04-29_13h21.51.078,SPAMnetsValid,2021.1.4,MacIntel,59.99880002,,,,,,,,,,,,,,,,,,,,,,,,,,,,,,,,,,,,,,,,,,,,,,,,,,,,,,,,,,,,,,,,,,,,,,,3,0.5103,0,7,7,7,1,I experience a wide range of emotions or feelings.,0,8,,
,,,,,,,,,,,,,,,90372,001,2022-04-29_13h21.51.078,SPAMnetsValid,2021.1.4,MacIntel,59.99880002,,,,,,,,,,,,,,,,,,,,,,,,,,,,,,,,,,,,,,,,,,,,,,,,,,,,,,,,,,,,,,,,,,,,,,,3,0.4208,0,8,8,8,1,"Sometimes when I am reading poetry or looking at a work of art, I feel a chill or wave of excitement.",0,9,,
,,,,,,,,,,,,,,,90372,001,2022-04-29_13h21.51.078,SPAMnetsValid,2021.1.4,MacIntel,59.99880002,,,,,,,,,,,,,,,,,,,,,,,,,,,,,,,,,,,,,,,,,,,,,,,,,,,,,,,,,,,,,,,,,,,,,,,3,0.3996,0,9,9,9,1,I have little interest in speculating on the nature of the universe or the human condition.,1,10,,
,,,,,,,,,,,,,,,90372,001,2022-04-29_13h21.51.078,SPAMnetsValid,2021.1.4,MacIntel,59.99880002,,,,,,,,,,,,,,,,,,,,,,,,,,,,,,,,,,,,,,,,,,,,,,,,,,,,,,,,,,,,,,,,,,,,,,,3,0.49,0,10,10,10,1,I have a lot of intellectual curiosity.,0,11,,
,,,,,,,,,,,,,,,90372,001,2022-04-29_13h21.51.078,SPAMnetsValid,2021.1.4,MacIntel,59.99880002,,,,,,,,,,,,,,,,,,,,,,,,,,,,,,,,,,,,,,,,,,,,,,,,,,,,,,,,,,,,,,,,,,,,,,,3,0.4813,0,11,11,11,1,I often enjoy playing with theories or abstract ideas.,0,12,,
,,,,,,,,,,,,,,,90372,001,2022-04-29_13h21.51.078,SPAMnetsValid,2021.1.4,MacIntel,59.99880002,,,,,,,,,,,,,,,,,,,,,,,,,,,,,,,,,,,,,,,,,,,,,,,,,,,,,,,,,,,,,,,,,,,,,,,,,,,,,,,,,return,9.206
