key_resp_3.keys,key_resp_3.rt,slider.response,slider.rt,rjt_rating,rjt_RT,trials_22.thisRepN,trials_22.thisTrialN,trials_22.thisN,trials_22.thisIndex,trials_22.ran,rjt_order,word1,word2,attention,participant,session,date,expName,psychopyVersion,OS,frameRate,trials_99.thisRepN,trials_99.thisTrialN,trials_99.thisN,trials_99.thisIndex,trials_99.ran,trials_5.thisRepN,trials_5.thisTrialN,trials_5.thisN,trials_5.thisIndex,trials_5.ran,repOne,repTwo,slider_2.response,slider_2.rt,trials_24.thisRepN,trials_24.thisTrialN,trials_24.thisN,trials_24.thisIndex,trials_24.ran,trials_4.thisRepN,trials_4.thisTrialN,trials_4.thisN,trials_4.thisIndex,trials_4.ran,slider_extend_2.response,slider_extend_2.rt,trials_6.thisRepN,trials_6.thisTrialN,trials_6.thisN,trials_6.thisIndex,trials_6.ran,vCue2,R1,R2,R3,R4,correct,sliderVocab.response,sliderVocab.rt,trials_7.thisRepN,trials_7.thisTrialN,trials_7.thisN,trials_7.thisIndex,trials_7.ran,VocabCue,VR1,VR2,VR3,VR4,VR5,VocabCorrect,AUT_resp,AUT_label,trials.thisRepN,trials.thisTrialN,trials.thisN,trials.thisIndex,trials.ran,trials_2.thisRepN,trials_2.thisTrialN,trials_2.thisN,trials_2.thisIndex,trials_2.ran,aut_prompt,VF_response,VF_tag,trials_16.thisRepN,trials_16.thisTrialN,trials_16.thisN,trials_16.thisIndex,trials_16.ran,trials_17.thisRepN,trials_17.thisTrialN,trials_17.thisN,trials_17.thisIndex,trials_17.ran,VFcond,open_slider.response,open_slider.rt,trials_3.thisRepN,trials_3.thisTrialN,trials_3.thisN,trials_3.thisIndex,trials_3.ran,OpenQ,Rev,OPEN_ORDER,key_resp_2.keys,key_resp_2.rt
return,7.2296,1,2.9705,1,2.9705,0,0,0,56,1,78,cookie,rose,,90379,001,2022-04-18_17h00.49.803,SPAMnetsValid,2021.1.4,Win32,60.17933442,,,,,,,,,,,,,,,,,,,,,,,,,,,,,,,,,,,,,,,,,,,,,,,,,,,,,,,,,,,,,,,,,,,,,,,,,,,,,,,,,,,,,,,,,
,,2,2.9497,2,2.9497,0,1,1,72,1,59,rose,strawberry,,90379,001,2022-04-18_17h00.49.803,SPAMnetsValid,2021.1.4,Win32,60.17933442,,,,,,,,,,,,,,,,,,,,,,,,,,,,,,,,,,,,,,,,,,,,,,,,,,,,,,,,,,,,,,,,,,,,,,,,,,,,,,,,,,,,,,,,,
,,1,1.9584,1,1.9584,0,2,2,25,1,23,flower,microwave,,90379,001,2022-04-18_17h00.49.803,SPAMnetsValid,2021.1.4,Win32,60.17933442,,,,,,,,,,,,,,,,,,,,,,,,,,,,,,,,,,,,,,,,,,,,,,,,,,,,,,,,,,,,,,,,,,,,,,,,,,,,,,,,,,,,,,,,,
,,4,2.1455,4,2.1455,0,3,3,92,1,44,cookie,melon,,90379,001,2022-04-18_17h00.49.803,SPAMnetsValid,2021.1.4,Win32,60.17933442,,,,,,,,,,,,,,,,,,,,,,,,,,,,,,,,,,,,,,,,,,,,,,,,,,,,,,,,,,,,,,,,,,,,,,,,,,,,,,,,,,,,,,,,,
,,1,1.6398,1,1.6398,0,4,4,70,1,5,oven,tree,,90379,001,2022-04-18_17h00.49.803,SPAMnetsValid,2021.1.4,Win32,60.17933442,,,,,,,,,,,,,,,,,,,,,,,,,,,,,,,,,,,,,,,,,,,,,,,,,,,,,,,,,,,,,,,,,,,,,,,,,,,,,,,,,,,,,,,,,
,,7,2.0585,7,2.0585,0,5,5,64,1,9,kitchen,refrigerator,,90379,001,2022-04-18_17h00.49.803,SPAMnetsValid,2021.1.4,Win32,60.17933442,,,,,,,,,,,,,,,,,,,,,,,,,,,,,,,,,,,,,,,,,,,,,,,,,,,,,,,,,,,,,,,,,,,,,,,,,,,,,,,,,,,,,,,,,
,,1,1.9418,1,1.9418,0,6,6,4,1,83,broom,carrot,,90379,001,2022-04-18_17h00.49.803,SPAMnetsValid,2021.1.4,Win32,60.17933442,,,,,,,,,,,,,,,,,,,,,,,,,,,,,,,,,,,,,,,,,,,,,,,,,,,,,,,,,,,,,,,,,,,,,,,,,,,,,,,,,,,,,,,,,
,,1,1.7409,1,1.7409,0,7,7,43,1,11,refrigerator,tree,,90379,001,2022-04-18_17h00.49.803,SPAMnetsValid,2021.1.4,Win32,60.17933442,,,,,,,,,,,,,,,,,,,,,,,,,,,,,,,,,,,,,,,,,,,,,,,,,,,,,,,,,,,,,,,,,,,,,,,,,,,,,,,,,,,,,,,,,
,,1,1.9325,1,1.9325,0,8,8,32,1,40,broom,cake,,90379,001,2022-04-18_17h00.49.803,SPAMnetsValid,2021.1.4,Win32,60.17933442,,,,,,,,,,,,,,,,,,,,,,,,,,,,,,,,,,,,,,,,,,,,,,,,,,,,,,,,,,,,,,,,,,,,,,,,,,,,,,,,,,,,,,,,,
,,2,2.2272,2,2.2272,0,9,9,17,1,27,cactus,cookie,,90379,001,2022-04-18_17h00.49.803,SPAMnetsValid,2021.1.4,Win32,60.17933442,,,,,,,,,,,,,,,,,,,,,,,,,,,,,,,,,,,,,,,,,,,,,,,,,,,,,,,,,,,,,,,,,,,,,,,,,,,,,,,,,,,,,,,,,
,,6,2.1698,6,2.1698,0,10,10,44,1,25,carrot,onion,,90379,001,2022-04-18_17h00.49.803,SPAMnetsValid,2021.1.4,Win32,60.17933442,,,,,,,,,,,,,,,,,,,,,,,,,,,,,,,,,,,,,,,,,,,,,,,,,,,,,,,,,,,,,,,,,,,,,,,,,,,,,,,,,,,,,,,,,
,,1,1.6229,1,1.6229,0,11,11,85,1,90,cactus,cake,,90379,001,2022-04-18_17h00.49.803,SPAMnetsValid,2021.1.4,Win32,60.17933442,,,,,,,,,,,,,,,,,,,,,,,,,,,,,,,,,,,,,,,,,,,,,,,,,,,,,,,,,,,,,,,,,,,,,,,,,,,,,,,,,,,,,,,,,
,,7,2.0534,7,2.0534,0,12,12,51,1,47,onion,tomato,,90379,001,2022-04-18_17h00.49.803,SPAMnetsValid,2021.1.4,Win32,60.17933442,,,,,,,,,,,,,,,,,,,,,,,,,,,,,,,,,,,,,,,,,,,,,,,,,,,,,,,,,,,,,,,,,,,,,,,,,,,,,,,,,,,,,,,,,
,,1,1.4809,1,1.4809,0,13,13,2,1,22,kitchen,strawberry,,90379,001,2022-04-18_17h00.49.803,SPAMnetsValid,2021.1.4,Win32,60.17933442,,,,,,,,,,,,,,,,,,,,,,,,,,,,,,,,,,,,,,,,,,,,,,,,,,,,,,,,,,,,,,,,,,,,,,,,,,,,,,,,,,,,,,,,,
,,2,3.0202,2,3.0202,0,14,14,74,1,70,chocolate,onion,,90379,001,2022-04-18_17h00.49.803,SPAMnetsValid,2021.1.4,Win32,60.17933442,,,,,,,,,,,,,,,,,,,,,,,,,,,,,,,,,,,,,,,,,,,,,,,,,,,,,,,,,,,,,,,,,,,,,,,,,,,,,,,,,,,,,,,,,
,,2,1.858,2,1.858,0,15,15,9,1,75,cookie,onion,,90379,001,2022-04-18_17h00.49.803,SPAMnetsValid,2021.1.4,Win32,60.17933442,,,,,,,,,,,,,,,,,,,,,,,,,,,,,,,,,,,,,,,,,,,,,,,,,,,,,,,,,,,,,,,,,,,,,,,,,,,,,,,,,,,,,,,,,
,,1,1.5927,1,1.5927,0,16,16,84,1,91,microwave,rose,,90379,001,2022-04-18_17h00.49.803,SPAMnetsValid,2021.1.4,Win32,60.17933442,,,,,,,,,,,,,,,,,,,,,,,,,,,,,,,,,,,,,,,,,,,,,,,,,,,,,,,,,,,,,,,,,,,,,,,,,,,,,,,,,,,,,,,,,
,,1,1.4927,1,1.4927,0,17,17,57,1,62,kitchen,rose,,90379,001,2022-04-18_17h00.49.803,SPAMnetsValid,2021.1.4,Win32,60.17933442,,,,,,,,,,,,,,,,,,,,,,,,,,,,,,,,,,,,,,,,,,,,,,,,,,,,,,,,,,,,,,,,,,,,,,,,,,,,,,,,,,,,,,,,,
,,1,1.5756,1,1.5756,0,18,18,40,1,74,broom,pretzel,,90379,001,2022-04-18_17h00.49.803,SPAMnetsValid,2021.1.4,Win32,60.17933442,,,,,,,,,,,,,,,,,,,,,,,,,,,,,,,,,,,,,,,,,,,,,,,,,,,,,,,,,,,,,,,,,,,,,,,,,,,,,,,,,,,,,,,,,
,,1,1.6203,1,1.6203,0,19,19,23,1,65,broom,garden,,90379,001,2022-04-18_17h00.49.803,SPAMnetsValid,2021.1.4,Win32,60.17933442,,,,,,,,,,,,,,,,,,,,,,,,,,,,,,,,,,,,,,,,,,,,,,,,,,,,,,,,,,,,,,,,,,,,,,,,,,,,,,,,,,,,,,,,,
,,2,2.626,2,2.626,0,20,20,35,1,55,tomato,tree,,90379,001,2022-04-18_17h00.49.803,SPAMnetsValid,2021.1.4,Win32,60.17933442,,,,,,,,,,,,,,,,,,,,,,,,,,,,,,,,,,,,,,,,,,,,,,,,,,,,,,,,,,,,,,,,,,,,,,,,,,,,,,,,,,,,,,,,,
,,5,2.7807,5,2.7807,0,21,21,54,1,28,cake,melon,,90379,001,2022-04-18_17h00.49.803,SPAMnetsValid,2021.1.4,Win32,60.17933442,,,,,,,,,,,,,,,,,,,,,,,,,,,,,,,,,,,,,,,,,,,,,,,,,,,,,,,,,,,,,,,,,,,,,,,,,,,,,,,,,,,,,,,,,
,,2,2.6619,2,2.6619,0,22,22,12,1,67,flower,yogurt,,90379,001,2022-04-18_17h00.49.803,SPAMnetsValid,2021.1.4,Win32,60.17933442,,,,,,,,,,,,,,,,,,,,,,,,,,,,,,,,,,,,,,,,,,,,,,,,,,,,,,,,,,,,,,,,,,,,,,,,,,,,,,,,,,,,,,,,,
,,1,1.5636,1,1.5636,0,23,23,47,1,73,broom,chocolate,,90379,001,2022-04-18_17h00.49.803,SPAMnetsValid,2021.1.4,Win32,60.17933442,,,,,,,,,,,,,,,,,,,,,,,,,,,,,,,,,,,,,,,,,,,,,,,,,,,,,,,,,,,,,,,,,,,,,,,,,,,,,,,,,,,,,,,,,
,,5,2.5397,5,2.5397,0,24,24,24,1,17,carrot,melon,,90379,001,2022-04-18_17h00.49.803,SPAMnetsValid,2021.1.4,Win32,60.17933442,,,,,,,,,,,,,,,,,,,,,,,,,,,,,,,,,,,,,,,,,,,,,,,,,,,,,,,,,,,,,,,,,,,,,,,,,,,,,,,,,,,,,,,,,
,,5,0.9079,5,0.9079,0,25,25,63,1,21,cake,onion,,90379,001,2022-04-18_17h00.49.803,SPAMnetsValid,2021.1.4,Win32,60.17933442,,,,,,,,,,,,,,,,,,,,,,,,,,,,,,,,,,,,,,,,,,,,,,,,,,,,,,,,,,,,,,,,,,,,,,,,,,,,,,,,,,,,,,,,,
,,1,1.0922,1,1.0922,0,26,26,15,1,48,flower,oven,,90379,001,2022-04-18_17h00.49.803,SPAMnetsValid,2021.1.4,Win32,60.17933442,,,,,,,,,,,,,,,,,,,,,,,,,,,,,,,,,,,,,,,,,,,,,,,,,,,,,,,,,,,,,,,,,,,,,,,,,,,,,,,,,,,,,,,,,
,,3,1.3782,3,1.3782,0,27,27,86,1,51,onion,strawberry,,90379,001,2022-04-18_17h00.49.803,SPAMnetsValid,2021.1.4,Win32,60.17933442,,,,,,,,,,,,,,,,,,,,,,,,,,,,,,,,,,,,,,,,,,,,,,,,,,,,,,,,,,,,,,,,,,,,,,,,,,,,,,,,,,,,,,,,,
,,2,2.2647,2,2.2647,0,28,28,73,1,50,carrot,rose,,90379,001,2022-04-18_17h00.49.803,SPAMnetsValid,2021.1.4,Win32,60.17933442,,,,,,,,,,,,,,,,,,,,,,,,,,,,,,,,,,,,,,,,,,,,,,,,,,,,,,,,,,,,,,,,,,,,,,,,,,,,,,,,,,,,,,,,,
,,1,1.6072,1,1.6072,0,29,29,90,1,95,broom,refrigerator,,90379,001,2022-04-18_17h00.49.803,SPAMnetsValid,2021.1.4,Win32,60.17933442,,,,,,,,,,,,,,,,,,,,,,,,,,,,,,,,,,,,,,,,,,,,,,,,,,,,,,,,,,,,,,,,,,,,,,,,,,,,,,,,,,,,,,,,,
,,2,1.9614,2,1.9614,0,30,30,39,1,15,onion,oven,,90379,001,2022-04-18_17h00.49.803,SPAMnetsValid,2021.1.4,Win32,60.17933442,,,,,,,,,,,,,,,,,,,,,,,,,,,,,,,,,,,,,,,,,,,,,,,,,,,,,,,,,,,,,,,,,,,,,,,,,,,,,,,,,,,,,,,,,
,,1,1.7267,1,1.7267,0,31,31,11,1,37,garden,refrigerator,,90379,001,2022-04-18_17h00.49.803,SPAMnetsValid,2021.1.4,Win32,60.17933442,,,,,,,,,,,,,,,,,,,,,,,,,,,,,,,,,,,,,,,,,,,,,,,,,,,,,,,,,,,,,,,,,,,,,,,,,,,,,,,,,,,,,,,,,
,,2,1.3571,2,1.3571,0,32,32,20,1,39,melon,pretzel,,90379,001,2022-04-18_17h00.49.803,SPAMnetsValid,2021.1.4,Win32,60.17933442,,,,,,,,,,,,,,,,,,,,,,,,,,,,,,,,,,,,,,,,,,,,,,,,,,,,,,,,,,,,,,,,,,,,,,,,,,,,,,,,,,,,,,,,,
,,1,1.9655,1,1.9655,0,33,33,19,1,76,garden,rose,,90379,001,2022-04-18_17h00.49.803,SPAMnetsValid,2021.1.4,Win32,60.17933442,,,,,,,,,,,,,,,,,,,,,,,,,,,,,,,,,,,,,,,,,,,,,,,,,,,,,,,,,,,,,,,,,,,,,,,,,,,,,,,,,,,,,,,,,
,,5,4.6535,5,4.6535,0,34,34,78,1,30,cookie,pretzel,,90379,001,2022-04-18_17h00.49.803,SPAMnetsValid,2021.1.4,Win32,60.17933442,,,,,,,,,,,,,,,,,,,,,,,,,,,,,,,,,,,,,,,,,,,,,,,,,,,,,,,,,,,,,,,,,,,,,,,,,,,,,,,,,,,,,,,,,
,,1,3.245,1,3.245,0,35,35,61,1,71,broom,rose,,90379,001,2022-04-18_17h00.49.803,SPAMnetsValid,2021.1.4,Win32,60.17933442,,,,,,,,,,,,,,,,,,,,,,,,,,,,,,,,,,,,,,,,,,,,,,,,,,,,,,,,,,,,,,,,,,,,,,,,,,,,,,,,,,,,,,,,,
,,5,2.6812,5,2.6812,0,36,36,87,1,79,garden,strawberry,,90379,001,2022-04-18_17h00.49.803,SPAMnetsValid,2021.1.4,Win32,60.17933442,,,,,,,,,,,,,,,,,,,,,,,,,,,,,,,,,,,,,,,,,,,,,,,,,,,,,,,,,,,,,,,,,,,,,,,,,,,,,,,,,,,,,,,,,
,,2,1.9073,2,1.9073,0,37,37,60,1,89,chocolate,rose,,90379,001,2022-04-18_17h00.49.803,SPAMnetsValid,2021.1.4,Win32,60.17933442,,,,,,,,,,,,,,,,,,,,,,,,,,,,,,,,,,,,,,,,,,,,,,,,,,,,,,,,,,,,,,,,,,,,,,,,,,,,,,,,,,,,,,,,,
,,9,1.8041,9,1.8041,0,38,38,53,1,192,microwave,microwave,CHECK,90379,001,2022-04-18_17h00.49.803,SPAMnetsValid,2021.1.4,Win32,60.17933442,,,,,,,,,,,,,,,,,,,,,,,,,,,,,,,,,,,,,,,,,,,,,,,,,,,,,,,,,,,,,,,,,,,,,,,,,,,,,,,,,,,,,,,,,
,,1,1.515,1,1.515,0,39,39,89,1,80,chocolate,tree,,90379,001,2022-04-18_17h00.49.803,SPAMnetsValid,2021.1.4,Win32,60.17933442,,,,,,,,,,,,,,,,,,,,,,,,,,,,,,,,,,,,,,,,,,,,,,,,,,,,,,,,,,,,,,,,,,,,,,,,,,,,,,,,,,,,,,,,,
,,1,1.6711,1,1.6711,0,40,40,28,1,84,oven,tomato,,90379,001,2022-04-18_17h00.49.803,SPAMnetsValid,2021.1.4,Win32,60.17933442,,,,,,,,,,,,,,,,,,,,,,,,,,,,,,,,,,,,,,,,,,,,,,,,,,,,,,,,,,,,,,,,,,,,,,,,,,,,,,,,,,,,,,,,,
,,4,1.8799,4,1.8799,0,41,41,94,1,68,flower,tomato,,90379,001,2022-04-18_17h00.49.803,SPAMnetsValid,2021.1.4,Win32,60.17933442,,,,,,,,,,,,,,,,,,,,,,,,,,,,,,,,,,,,,,,,,,,,,,,,,,,,,,,,,,,,,,,,,,,,,,,,,,,,,,,,,,,,,,,,,
,,5,1.3791,5,1.3791,0,42,42,34,1,29,chocolate,melon,,90379,001,2022-04-18_17h00.49.803,SPAMnetsValid,2021.1.4,Win32,60.17933442,,,,,,,,,,,,,,,,,,,,,,,,,,,,,,,,,,,,,,,,,,,,,,,,,,,,,,,,,,,,,,,,,,,,,,,,,,,,,,,,,,,,,,,,,
,,1,1.5922,1,1.5922,0,43,43,7,1,34,melon,oven,,90379,001,2022-04-18_17h00.49.803,SPAMnetsValid,2021.1.4,Win32,60.17933442,,,,,,,,,,,,,,,,,,,,,,,,,,,,,,,,,,,,,,,,,,,,,,,,,,,,,,,,,,,,,,,,,,,,,,,,,,,,,,,,,,,,,,,,,
,,1,1.4561,1,1.4561,0,44,44,49,1,57,flower,kitchen,,90379,001,2022-04-18_17h00.49.803,SPAMnetsValid,2021.1.4,Win32,60.17933442,,,,,,,,,,,,,,,,,,,,,,,,,,,,,,,,,,,,,,,,,,,,,,,,,,,,,,,,,,,,,,,,,,,,,,,,,,,,,,,,,,,,,,,,,
,,4,2.5977,4,2.5977,0,45,45,30,1,3,cake,oven,,90379,001,2022-04-18_17h00.49.803,SPAMnetsValid,2021.1.4,Win32,60.17933442,,,,,,,,,,,,,,,,,,,,,,,,,,,,,,,,,,,,,,,,,,,,,,,,,,,,,,,,,,,,,,,,,,,,,,,,,,,,,,,,,,,,,,,,,
,,1,1.474,1,1.474,0,46,46,79,1,86,oven,rose,,90379,001,2022-04-18_17h00.49.803,SPAMnetsValid,2021.1.4,Win32,60.17933442,,,,,,,,,,,,,,,,,,,,,,,,,,,,,,,,,,,,,,,,,,,,,,,,,,,,,,,,,,,,,,,,,,,,,,,,,,,,,,,,,,,,,,,,,
,,5,1.7583,5,1.7583,0,47,47,96,1,82,cake,kitchen,,90379,001,2022-04-18_17h00.49.803,SPAMnetsValid,2021.1.4,Win32,60.17933442,,,,,,,,,,,,,,,,,,,,,,,,,,,,,,,,,,,,,,,,,,,,,,,,,,,,,,,,,,,,,,,,,,,,,,,,,,,,,,,,,,,,,,,,,
,,1,1.2426,1,1.2426,0,48,48,59,1,8,broom,melon,,90379,001,2022-04-18_17h00.49.803,SPAMnetsValid,2021.1.4,Win32,60.17933442,,,,,,,,,,,,,,,,,,,,,,,,,,,,,,,,,,,,,,,,,,,,,,,,,,,,,,,,,,,,,,,,,,,,,,,,,,,,,,,,,,,,,,,,,
,,6,1.7705,6,1.7705,0,49,49,67,1,54,chocolate,yogurt,,90379,001,2022-04-18_17h00.49.803,SPAMnetsValid,2021.1.4,Win32,60.17933442,,,,,,,,,,,,,,,,,,,,,,,,,,,,,,,,,,,,,,,,,,,,,,,,,,,,,,,,,,,,,,,,,,,,,,,,,,,,,,,,,,,,,,,,,
,,2,3.7906,2,3.7906,0,50,50,68,1,24,cookie,tomato,,90379,001,2022-04-18_17h00.49.803,SPAMnetsValid,2021.1.4,Win32,60.17933442,,,,,,,,,,,,,,,,,,,,,,,,,,,,,,,,,,,,,,,,,,,,,,,,,,,,,,,,,,,,,,,,,,,,,,,,,,,,,,,,,,,,,,,,,
,,2,1.9925,2,1.9925,0,51,51,22,1,16,chocolate,flower,,90379,001,2022-04-18_17h00.49.803,SPAMnetsValid,2021.1.4,Win32,60.17933442,,,,,,,,,,,,,,,,,,,,,,,,,,,,,,,,,,,,,,,,,,,,,,,,,,,,,,,,,,,,,,,,,,,,,,,,,,,,,,,,,,,,,,,,,
,,2,1.6598,2,1.6598,0,52,52,8,1,43,chocolate,tomato,,90379,001,2022-04-18_17h00.49.803,SPAMnetsValid,2021.1.4,Win32,60.17933442,,,,,,,,,,,,,,,,,,,,,,,,,,,,,,,,,,,,,,,,,,,,,,,,,,,,,,,,,,,,,,,,,,,,,,,,,,,,,,,,,,,,,,,,,
,,1,1.1563,1,1.1563,0,53,53,27,1,72,broom,onion,,90379,001,2022-04-18_17h00.49.803,SPAMnetsValid,2021.1.4,Win32,60.17933442,,,,,,,,,,,,,,,,,,,,,,,,,,,,,,,,,,,,,,,,,,,,,,,,,,,,,,,,,,,,,,,,,,,,,,,,,,,,,,,,,,,,,,,,,
,,1,2.3526,1,2.3526,0,54,54,5,1,13,broom,yogurt,,90379,001,2022-04-18_17h00.49.803,SPAMnetsValid,2021.1.4,Win32,60.17933442,,,,,,,,,,,,,,,,,,,,,,,,,,,,,,,,,,,,,,,,,,,,,,,,,,,,,,,,,,,,,,,,,,,,,,,,,,,,,,,,,,,,,,,,,
,,1,1.7988,1,1.7988,0,55,55,50,1,81,pretzel,yogurt,,90379,001,2022-04-18_17h00.49.803,SPAMnetsValid,2021.1.4,Win32,60.17933442,,,,,,,,,,,,,,,,,,,,,,,,,,,,,,,,,,,,,,,,,,,,,,,,,,,,,,,,,,,,,,,,,,,,,,,,,,,,,,,,,,,,,,,,,
,,2,2.9035,2,2.9035,0,56,56,3,1,49,flower,strawberry,,90379,001,2022-04-18_17h00.49.803,SPAMnetsValid,2021.1.4,Win32,60.17933442,,,,,,,,,,,,,,,,,,,,,,,,,,,,,,,,,,,,,,,,,,,,,,,,,,,,,,,,,,,,,,,,,,,,,,,,,,,,,,,,,,,,,,,,,
,,3,2.5237,3,2.5237,0,57,57,48,1,66,melon,yogurt,,90379,001,2022-04-18_17h00.49.803,SPAMnetsValid,2021.1.4,Win32,60.17933442,,,,,,,,,,,,,,,,,,,,,,,,,,,,,,,,,,,,,,,,,,,,,,,,,,,,,,,,,,,,,,,,,,,,,,,,,,,,,,,,,,,,,,,,,
,,1,1.4096,1,1.4096,0,58,58,55,1,1,rose,yogurt,,90379,001,2022-04-18_17h00.49.803,SPAMnetsValid,2021.1.4,Win32,60.17933442,,,,,,,,,,,,,,,,,,,,,,,,,,,,,,,,,,,,,,,,,,,,,,,,,,,,,,,,,,,,,,,,,,,,,,,,,,,,,,,,,,,,,,,,,
,,1,5.1232,1,5.1232,0,59,59,0,1,53,garden,pretzel,,90379,001,2022-04-18_17h00.49.803,SPAMnetsValid,2021.1.4,Win32,60.17933442,,,,,,,,,,,,,,,,,,,,,,,,,,,,,,,,,,,,,,,,,,,,,,,,,,,,,,,,,,,,,,,,,,,,,,,,,,,,,,,,,,,,,,,,,
,,6,1.7903,6,1.7903,0,60,60,21,1,56,cactus,tree,,90379,001,2022-04-18_17h00.49.803,SPAMnetsValid,2021.1.4,Win32,60.17933442,,,,,,,,,,,,,,,,,,,,,,,,,,,,,,,,,,,,,,,,,,,,,,,,,,,,,,,,,,,,,,,,,,,,,,,,,,,,,,,,,,,,,,,,,
,,2,1.493,2,1.493,0,61,61,6,1,87,carrot,yogurt,,90379,001,2022-04-18_17h00.49.803,SPAMnetsValid,2021.1.4,Win32,60.17933442,,,,,,,,,,,,,,,,,,,,,,,,,,,,,,,,,,,,,,,,,,,,,,,,,,,,,,,,,,,,,,,,,,,,,,,,,,,,,,,,,,,,,,,,,
,,2,2.4368,2,2.4368,0,62,62,13,1,26,tomato,yogurt,,90379,001,2022-04-18_17h00.49.803,SPAMnetsValid,2021.1.4,Win32,60.17933442,,,,,,,,,,,,,,,,,,,,,,,,,,,,,,,,,,,,,,,,,,,,,,,,,,,,,,,,,,,,,,,,,,,,,,,,,,,,,,,,,,,,,,,,,
,,4,2.6388,4,2.6388,0,63,63,66,1,20,rose,tree,,90379,001,2022-04-18_17h00.49.803,SPAMnetsValid,2021.1.4,Win32,60.17933442,,,,,,,,,,,,,,,,,,,,,,,,,,,,,,,,,,,,,,,,,,,,,,,,,,,,,,,,,,,,,,,,,,,,,,,,,,,,,,,,,,,,,,,,,
,,1,2.7198,1,2.7198,0,64,64,29,1,42,garden,kitchen,,90379,001,2022-04-18_17h00.49.803,SPAMnetsValid,2021.1.4,Win32,60.17933442,,,,,,,,,,,,,,,,,,,,,,,,,,,,,,,,,,,,,,,,,,,,,,,,,,,,,,,,,,,,,,,,,,,,,,,,,,,,,,,,,,,,,,,,,
,,3,1.4316,3,1.4316,0,65,65,80,1,61,strawberry,tomato,,90379,001,2022-04-18_17h00.49.803,SPAMnetsValid,2021.1.4,Win32,60.17933442,,,,,,,,,,,,,,,,,,,,,,,,,,,,,,,,,,,,,,,,,,,,,,,,,,,,,,,,,,,,,,,,,,,,,,,,,,,,,,,,,,,,,,,,,
,,6,2.3632,6,2.3632,0,66,66,93,1,63,cake,cookie,,90379,001,2022-04-18_17h00.49.803,SPAMnetsValid,2021.1.4,Win32,60.17933442,,,,,,,,,,,,,,,,,,,,,,,,,,,,,,,,,,,,,,,,,,,,,,,,,,,,,,,,,,,,,,,,,,,,,,,,,,,,,,,,,,,,,,,,,
,,6,1.3529,6,1.3529,0,67,67,36,1,12,cookie,yogurt,,90379,001,2022-04-18_17h00.49.803,SPAMnetsValid,2021.1.4,Win32,60.17933442,,,,,,,,,,,,,,,,,,,,,,,,,,,,,,,,,,,,,,,,,,,,,,,,,,,,,,,,,,,,,,,,,,,,,,,,,,,,,,,,,,,,,,,,,
,,1,1.3891,1,1.3891,0,68,68,88,1,92,broom,flower,,90379,001,2022-04-18_17h00.49.803,SPAMnetsValid,2021.1.4,Win32,60.17933442,,,,,,,,,,,,,,,,,,,,,,,,,,,,,,,,,,,,,,,,,,,,,,,,,,,,,,,,,,,,,,,,,,,,,,,,,,,,,,,,,,,,,,,,,
,,6,2.0275,6,2.0275,0,69,69,77,1,7,melon,tree,,90379,001,2022-04-18_17h00.49.803,SPAMnetsValid,2021.1.4,Win32,60.17933442,,,,,,,,,,,,,,,,,,,,,,,,,,,,,,,,,,,,,,,,,,,,,,,,,,,,,,,,,,,,,,,,,,,,,,,,,,,,,,,,,,,,,,,,,
,,1,1.4241,1,1.4241,0,70,70,31,1,33,oven,yogurt,,90379,001,2022-04-18_17h00.49.803,SPAMnetsValid,2021.1.4,Win32,60.17933442,,,,,,,,,,,,,,,,,,,,,,,,,,,,,,,,,,,,,,,,,,,,,,,,,,,,,,,,,,,,,,,,,,,,,,,,,,,,,,,,,,,,,,,,,
,,7,2.8486,7,2.8486,0,71,71,58,1,94,kitchen,microwave,,90379,001,2022-04-18_17h00.49.803,SPAMnetsValid,2021.1.4,Win32,60.17933442,,,,,,,,,,,,,,,,,,,,,,,,,,,,,,,,,,,,,,,,,,,,,,,,,,,,,,,,,,,,,,,,,,,,,,,,,,,,,,,,,,,,,,,,,
,,2,1.8403,2,1.8403,0,72,72,71,1,38,pretzel,refrigerator,,90379,001,2022-04-18_17h00.49.803,SPAMnetsValid,2021.1.4,Win32,60.17933442,,,,,,,,,,,,,,,,,,,,,,,,,,,,,,,,,,,,,,,,,,,,,,,,,,,,,,,,,,,,,,,,,,,,,,,,,,,,,,,,,,,,,,,,,
,,6,1.9436,6,1.9436,0,73,73,95,1,52,carrot,tomato,,90379,001,2022-04-18_17h00.49.803,SPAMnetsValid,2021.1.4,Win32,60.17933442,,,,,,,,,,,,,,,,,,,,,,,,,,,,,,,,,,,,,,,,,,,,,,,,,,,,,,,,,,,,,,,,,,,,,,,,,,,,,,,,,,,,,,,,,
,,6,1.6415,6,1.6415,0,74,74,75,1,69,carrot,refrigerator,,90379,001,2022-04-18_17h00.49.803,SPAMnetsValid,2021.1.4,Win32,60.17933442,,,,,,,,,,,,,,,,,,,,,,,,,,,,,,,,,,,,,,,,,,,,,,,,,,,,,,,,,,,,,,,,,,,,,,,,,,,,,,,,,,,,,,,,,
,,6,1.7825,6,1.7825,0,75,75,69,1,45,onion,pretzel,,90379,001,2022-04-18_17h00.49.803,SPAMnetsValid,2021.1.4,Win32,60.17933442,,,,,,,,,,,,,,,,,,,,,,,,,,,,,,,,,,,,,,,,,,,,,,,,,,,,,,,,,,,,,,,,,,,,,,,,,,,,,,,,,,,,,,,,,
,,1,1.3567,1,1.3567,0,76,76,26,1,35,flower,pretzel,,90379,001,2022-04-18_17h00.49.803,SPAMnetsValid,2021.1.4,Win32,60.17933442,,,,,,,,,,,,,,,,,,,,,,,,,,,,,,,,,,,,,,,,,,,,,,,,,,,,,,,,,,,,,,,,,,,,,,,,,,,,,,,,,,,,,,,,,
,,3,8.9067,3,8.9067,0,77,77,41,1,19,microwave,pretzel,,90379,001,2022-04-18_17h00.49.803,SPAMnetsValid,2021.1.4,Win32,60.17933442,,,,,,,,,,,,,,,,,,,,,,,,,,,,,,,,,,,,,,,,,,,,,,,,,,,,,,,,,,,,,,,,,,,,,,,,,,,,,,,,,,,,,,,,,
,,1,1.4232,1,1.4232,0,78,78,14,1,64,chocolate,garden,,90379,001,2022-04-18_17h00.49.803,SPAMnetsValid,2021.1.4,Win32,60.17933442,,,,,,,,,,,,,,,,,,,,,,,,,,,,,,,,,,,,,,,,,,,,,,,,,,,,,,,,,,,,,,,,,,,,,,,,,,,,,,,,,,,,,,,,,
,,6,1.6145,6,1.6145,0,79,79,76,1,36,broom,kitchen,,90379,001,2022-04-18_17h00.49.803,SPAMnetsValid,2021.1.4,Win32,60.17933442,,,,,,,,,,,,,,,,,,,,,,,,,,,,,,,,,,,,,,,,,,,,,,,,,,,,,,,,,,,,,,,,,,,,,,,,,,,,,,,,,,,,,,,,,
,,2,1.3751,2,1.3751,0,80,80,18,1,85,cake,tree,,90379,001,2022-04-18_17h00.49.803,SPAMnetsValid,2021.1.4,Win32,60.17933442,,,,,,,,,,,,,,,,,,,,,,,,,,,,,,,,,,,,,,,,,,,,,,,,,,,,,,,,,,,,,,,,,,,,,,,,,,,,,,,,,,,,,,,,,
,,8,1.42,8,1.42,0,81,81,82,1,93,kitchen,oven,,90379,001,2022-04-18_17h00.49.803,SPAMnetsValid,2021.1.4,Win32,60.17933442,,,,,,,,,,,,,,,,,,,,,,,,,,,,,,,,,,,,,,,,,,,,,,,,,,,,,,,,,,,,,,,,,,,,,,,,,,,,,,,,,,,,,,,,,
,,9,1.3289,9,1.3289,0,82,82,10,1,191,cake,cake,CHECK,90379,001,2022-04-18_17h00.49.803,SPAMnetsValid,2021.1.4,Win32,60.17933442,,,,,,,,,,,,,,,,,,,,,,,,,,,,,,,,,,,,,,,,,,,,,,,,,,,,,,,,,,,,,,,,,,,,,,,,,,,,,,,,,,,,,,,,,
,,1,1.1747,1,1.1747,0,83,83,16,1,14,broom,cookie,,90379,001,2022-04-18_17h00.49.803,SPAMnetsValid,2021.1.4,Win32,60.17933442,,,,,,,,,,,,,,,,,,,,,,,,,,,,,,,,,,,,,,,,,,,,,,,,,,,,,,,,,,,,,,,,,,,,,,,,,,,,,,,,,,,,,,,,,
,,1,1.289,1,1.289,0,84,84,37,1,58,garden,oven,,90379,001,2022-04-18_17h00.49.803,SPAMnetsValid,2021.1.4,Win32,60.17933442,,,,,,,,,,,,,,,,,,,,,,,,,,,,,,,,,,,,,,,,,,,,,,,,,,,,,,,,,,,,,,,,,,,,,,,,,,,,,,,,,,,,,,,,,
,,3,2.2302,3,2.2302,0,85,85,52,1,4,chocolate,pretzel,,90379,001,2022-04-18_17h00.49.803,SPAMnetsValid,2021.1.4,Win32,60.17933442,,,,,,,,,,,,,,,,,,,,,,,,,,,,,,,,,,,,,,,,,,,,,,,,,,,,,,,,,,,,,,,,,,,,,,,,,,,,,,,,,,,,,,,,,
,,2,2.6964,2,2.6964,0,86,86,1,1,31,cactus,pretzel,,90379,001,2022-04-18_17h00.49.803,SPAMnetsValid,2021.1.4,Win32,60.17933442,,,,,,,,,,,,,,,,,,,,,,,,,,,,,,,,,,,,,,,,,,,,,,,,,,,,,,,,,,,,,,,,,,,,,,,,,,,,,,,,,,,,,,,,,
,,7,3.633,7,3.633,0,87,87,42,1,77,refrigerator,yogurt,,90379,001,2022-04-18_17h00.49.803,SPAMnetsValid,2021.1.4,Win32,60.17933442,,,,,,,,,,,,,,,,,,,,,,,,,,,,,,,,,,,,,,,,,,,,,,,,,,,,,,,,,,,,,,,,,,,,,,,,,,,,,,,,,,,,,,,,,
,,7,1.973,7,1.973,0,88,88,91,1,2,kitchen,onion,,90379,001,2022-04-18_17h00.49.803,SPAMnetsValid,2021.1.4,Win32,60.17933442,,,,,,,,,,,,,,,,,,,,,,,,,,,,,,,,,,,,,,,,,,,,,,,,,,,,,,,,,,,,,,,,,,,,,,,,,,,,,,,,,,,,,,,,,
,,1,1.4557,1,1.4557,0,89,89,65,1,46,garden,yogurt,,90379,001,2022-04-18_17h00.49.803,SPAMnetsValid,2021.1.4,Win32,60.17933442,,,,,,,,,,,,,,,,,,,,,,,,,,,,,,,,,,,,,,,,,,,,,,,,,,,,,,,,,,,,,,,,,,,,,,,,,,,,,,,,,,,,,,,,,
,,3,2.7457,3,2.7457,0,90,90,38,1,88,cactus,melon,,90379,001,2022-04-18_17h00.49.803,SPAMnetsValid,2021.1.4,Win32,60.17933442,,,,,,,,,,,,,,,,,,,,,,,,,,,,,,,,,,,,,,,,,,,,,,,,,,,,,,,,,,,,,,,,,,,,,,,,,,,,,,,,,,,,,,,,,
,,3,2.0276,3,2.0276,0,91,91,33,1,32,cake,microwave,,90379,001,2022-04-18_17h00.49.803,SPAMnetsValid,2021.1.4,Win32,60.17933442,,,,,,,,,,,,,,,,,,,,,,,,,,,,,,,,,,,,,,,,,,,,,,,,,,,,,,,,,,,,,,,,,,,,,,,,,,,,,,,,,,,,,,,,,
,,3,2.1813,3,2.1813,0,92,92,81,1,60,cactus,onion,,90379,001,2022-04-18_17h00.49.803,SPAMnetsValid,2021.1.4,Win32,60.17933442,,,,,,,,,,,,,,,,,,,,,,,,,,,,,,,,,,,,,,,,,,,,,,,,,,,,,,,,,,,,,,,,,,,,,,,,,,,,,,,,,,,,,,,,,
,,5,4.5535,5,4.5535,0,93,93,62,1,18,onion,refrigerator,,90379,001,2022-04-18_17h00.49.803,SPAMnetsValid,2021.1.4,Win32,60.17933442,,,,,,,,,,,,,,,,,,,,,,,,,,,,,,,,,,,,,,,,,,,,,,,,,,,,,,,,,,,,,,,,,,,,,,,,,,,,,,,,,,,,,,,,,
,,1,1.275,1,1.275,0,94,94,46,1,41,broom,cactus,,90379,001,2022-04-18_17h00.49.803,SPAMnetsValid,2021.1.4,Win32,60.17933442,,,,,,,,,,,,,,,,,,,,,,,,,,,,,,,,,,,,,,,,,,,,,,,,,,,,,,,,,,,,,,,,,,,,,,,,,,,,,,,,,,,,,,,,,
,,3,1.5562,3,1.5562,0,95,95,45,1,10,flower,onion,,90379,001,2022-04-18_17h00.49.803,SPAMnetsValid,2021.1.4,Win32,60.17933442,,,,,,,,,,,,,,,,,,,,,,,,,,,,,,,,,,,,,,,,,,,,,,,,,,,,,,,,,,,,,,,,,,,,,,,,,,,,,,,,,,,,,,,,,
,,4,8.2068,4,8.2068,0,96,96,83,1,6,garden,onion,,90379,001,2022-04-18_17h00.49.803,SPAMnetsValid,2021.1.4,Win32,60.17933442,,,,,,,,,,,,,,,,,,,,,,,,,,,,,,,,,,,,,,,,,,,,,,,,,,,,,,,,,,,,,,,,,,,,,,,,,,,,,,,,,,,,,,,,,
,,,,,,,,,,,,,,,90379,001,2022-04-18_17h00.49.803,SPAMnetsValid,2021.1.4,Win32,60.17933442,0,0,0,0,1,,,,,,,,,,,,,,,,,,,,,,,,,,,,,,,,,,,,,,,,,,,,,,,,,,,,,,,,,,,,,,,,,,,,,,,,,,,,,,,,,,,,
,,,,,,,,,,,,,,,90379,001,2022-04-18_17h00.49.803,SPAMnetsValid,2021.1.4,Win32,60.17933442,,,,,,0,0,0,0,1,1,0,,,,,,,,,,,,,,,,,,,,,,,,,,,,,,,,,,,,,,,,,,,,,,,,,,,,,,,,,,,,,,,,,,,,,,,,,,,,,
,,,,7,3.2443,,,,,,158,cookie,oven,,90379,001,2022-04-18_17h00.49.803,SPAMnetsValid,2021.1.4,Win32,60.17933442,,,,,,,,,,,,,7,3.2443,0,0,0,27,1,,,,,,,,,,,,,,,,,,,,,,,,,,,,,,,,,,,,,,,,,,,,,,,,,,,,,,,,,,,,,,,,,,,,,,
,,,,1,1.3033,,,,,,134,carrot,flower,,90379,001,2022-04-18_17h00.49.803,SPAMnetsValid,2021.1.4,Win32,60.17933442,,,,,,,,,,,,,1,1.3033,0,1,1,93,1,,,,,,,,,,,,,,,,,,,,,,,,,,,,,,,,,,,,,,,,,,,,,,,,,,,,,,,,,,,,,,,,,,,,,,
,,,,6,3.6383,,,,,,112,cake,carrot,,90379,001,2022-04-18_17h00.49.803,SPAMnetsValid,2021.1.4,Win32,60.17933442,,,,,,,,,,,,,6,3.6383,0,2,2,39,1,,,,,,,,,,,,,,,,,,,,,,,,,,,,,,,,,,,,,,,,,,,,,,,,,,,,,,,,,,,,,,,,,,,,,,
,,,,3,3.3514,,,,,,102,chocolate,refrigerator,,90379,001,2022-04-18_17h00.49.803,SPAMnetsValid,2021.1.4,Win32,60.17933442,,,,,,,,,,,,,3,3.3514,0,3,3,76,1,,,,,,,,,,,,,,,,,,,,,,,,,,,,,,,,,,,,,,,,,,,,,,,,,,,,,,,,,,,,,,,,,,,,,,
,,,,1,1.7211,,,,,,146,pretzel,tree,,90379,001,2022-04-18_17h00.49.803,SPAMnetsValid,2021.1.4,Win32,60.17933442,,,,,,,,,,,,,1,1.7211,0,4,4,80,1,,,,,,,,,,,,,,,,,,,,,,,,,,,,,,,,,,,,,,,,,,,,,,,,,,,,,,,,,,,,,,,,,,,,,,
,,,,9,1.3655,,,,,,194,cactus,cactus,CHECK,90379,001,2022-04-18_17h00.49.803,SPAMnetsValid,2021.1.4,Win32,60.17933442,,,,,,,,,,,,,9,1.3655,0,5,5,25,1,,,,,,,,,,,,,,,,,,,,,,,,,,,,,,,,,,,,,,,,,,,,,,,,,,,,,,,,,,,,,,,,,,,,,,
,,,,7,1.856,,,,,,150,microwave,refrigerator,,90379,001,2022-04-18_17h00.49.803,SPAMnetsValid,2021.1.4,Win32,60.17933442,,,,,,,,,,,,,7,1.856,0,6,6,66,1,,,,,,,,,,,,,,,,,,,,,,,,,,,,,,,,,,,,,,,,,,,,,,,,,,,,,,,,,,,,,,,,,,,,,,
,,,,8,2.0749,,,,,,110,chocolate,cookie,,90379,001,2022-04-18_17h00.49.803,SPAMnetsValid,2021.1.4,Win32,60.17933442,,,,,,,,,,,,,8,2.0749,0,7,7,52,1,,,,,,,,,,,,,,,,,,,,,,,,,,,,,,,,,,,,,,,,,,,,,,,,,,,,,,,,,,,,,,,,,,,,,,
,,,,9,1.5726,,,,,,120,microwave,oven,,90379,001,2022-04-18_17h00.49.803,SPAMnetsValid,2021.1.4,Win32,60.17933442,,,,,,,,,,,,,9,1.5726,0,8,8,14,1,,,,,,,,,,,,,,,,,,,,,,,,,,,,,,,,,,,,,,,,,,,,,,,,,,,,,,,,,,,,,,,,,,,,,,
,,,,1,2.2406,,,,,,101,cactus,kitchen,,90379,001,2022-04-18_17h00.49.803,SPAMnetsValid,2021.1.4,Win32,60.17933442,,,,,,,,,,,,,1,2.2406,0,9,9,54,1,,,,,,,,,,,,,,,,,,,,,,,,,,,,,,,,,,,,,,,,,,,,,,,,,,,,,,,,,,,,,,,,,,,,,,
,,,,7,1.698,,,,,,142,garden,tree,,90379,001,2022-04-18_17h00.49.803,SPAMnetsValid,2021.1.4,Win32,60.17933442,,,,,,,,,,,,,7,1.698,0,10,10,22,1,,,,,,,,,,,,,,,,,,,,,,,,,,,,,,,,,,,,,,,,,,,,,,,,,,,,,,,,,,,,,,,,,,,,,,
,,,,1,1.384,,,,,,179,broom,oven,,90379,001,2022-04-18_17h00.49.803,SPAMnetsValid,2021.1.4,Win32,60.17933442,,,,,,,,,,,,,1,1.384,0,11,11,45,1,,,,,,,,,,,,,,,,,,,,,,,,,,,,,,,,,,,,,,,,,,,,,,,,,,,,,,,,,,,,,,,,,,,,,,
,,,,1,1.2214,,,,,,144,cake,garden,,90379,001,2022-04-18_17h00.49.803,SPAMnetsValid,2021.1.4,Win32,60.17933442,,,,,,,,,,,,,1,1.2214,0,12,12,58,1,,,,,,,,,,,,,,,,,,,,,,,,,,,,,,,,,,,,,,,,,,,,,,,,,,,,,,,,,,,,,,,,,,,,,,
,,,,3,2.5328,,,,,,161,kitchen,pretzel,,90379,001,2022-04-18_17h00.49.803,SPAMnetsValid,2021.1.4,Win32,60.17933442,,,,,,,,,,,,,3,2.5328,0,13,13,36,1,,,,,,,,,,,,,,,,,,,,,,,,,,,,,,,,,,,,,,,,,,,,,,,,,,,,,,,,,,,,,,,,,,,,,,
,,,,2,1.5367,,,,,,96,oven,strawberry,,90379,001,2022-04-18_17h00.49.803,SPAMnetsValid,2021.1.4,Win32,60.17933442,,,,,,,,,,,,,2,1.5367,0,14,14,67,1,,,,,,,,,,,,,,,,,,,,,,,,,,,,,,,,,,,,,,,,,,,,,,,,,,,,,,,,,,,,,,,,,,,,,,
,,,,1,2.8494,,,,,,133,cake,flower,,90379,001,2022-04-18_17h00.49.803,SPAMnetsValid,2021.1.4,Win32,60.17933442,,,,,,,,,,,,,1,2.8494,0,15,15,94,1,,,,,,,,,,,,,,,,,,,,,,,,,,,,,,,,,,,,,,,,,,,,,,,,,,,,,,,,,,,,,,,,,,,,,,
,,,,4,1.5584,,,,,,169,onion,yogurt,,90379,001,2022-04-18_17h00.49.803,SPAMnetsValid,2021.1.4,Win32,60.17933442,,,,,,,,,,,,,4,1.5584,0,16,16,24,1,,,,,,,,,,,,,,,,,,,,,,,,,,,,,,,,,,,,,,,,,,,,,,,,,,,,,,,,,,,,,,,,,,,,,,
,,,,1,1.2711,,,,,,157,refrigerator,rose,,90379,001,2022-04-18_17h00.49.803,SPAMnetsValid,2021.1.4,Win32,60.17933442,,,,,,,,,,,,,1,1.2711,0,17,17,64,1,,,,,,,,,,,,,,,,,,,,,,,,,,,,,,,,,,,,,,,,,,,,,,,,,,,,,,,,,,,,,,,,,,,,,,
,,,,4,2.8755,,,,,,165,onion,rose,,90379,001,2022-04-18_17h00.49.803,SPAMnetsValid,2021.1.4,Win32,60.17933442,,,,,,,,,,,,,4,2.8755,0,18,18,40,1,,,,,,,,,,,,,,,,,,,,,,,,,,,,,,,,,,,,,,,,,,,,,,,,,,,,,,,,,,,,,,,,,,,,,,
,,,,9,1.8212,,,,,,138,flower,rose,,90379,001,2022-04-18_17h00.49.803,SPAMnetsValid,2021.1.4,Win32,60.17933442,,,,,,,,,,,,,9,1.8212,0,19,19,61,1,,,,,,,,,,,,,,,,,,,,,,,,,,,,,,,,,,,,,,,,,,,,,,,,,,,,,,,,,,,,,,,,,,,,,,
,,,,4,1.4456,,,,,,170,cookie,microwave,,90379,001,2022-04-18_17h00.49.803,SPAMnetsValid,2021.1.4,Win32,60.17933442,,,,,,,,,,,,,4,1.4456,0,20,20,92,1,,,,,,,,,,,,,,,,,,,,,,,,,,,,,,,,,,,,,,,,,,,,,,,,,,,,,,,,,,,,,,,,,,,,,,
,,,,2,1.4889,,,,,,127,cactus,chocolate,,90379,001,2022-04-18_17h00.49.803,SPAMnetsValid,2021.1.4,Win32,60.17933442,,,,,,,,,,,,,2,1.4889,0,21,21,57,1,,,,,,,,,,,,,,,,,,,,,,,,,,,,,,,,,,,,,,,,,,,,,,,,,,,,,,,,,,,,,,,,,,,,,,
,,,,3,2.8148,,,,,,139,carrot,strawberry,,90379,001,2022-04-18_17h00.49.803,SPAMnetsValid,2021.1.4,Win32,60.17933442,,,,,,,,,,,,,3,2.8148,0,22,22,37,1,,,,,,,,,,,,,,,,,,,,,,,,,,,,,,,,,,,,,,,,,,,,,,,,,,,,,,,,,,,,,,,,,,,,,,
,,,,4,2.6583,,,,,,147,cake,refrigerator,,90379,001,2022-04-18_17h00.49.803,SPAMnetsValid,2021.1.4,Win32,60.17933442,,,,,,,,,,,,,4,2.6583,0,23,23,35,1,,,,,,,,,,,,,,,,,,,,,,,,,,,,,,,,,,,,,,,,,,,,,,,,,,,,,,,,,,,,,,,,,,,,,,
,,,,8,5.5221,,,,,,99,garden,melon,,90379,001,2022-04-18_17h00.49.803,SPAMnetsValid,2021.1.4,Win32,60.17933442,,,,,,,,,,,,,8,5.5221,0,24,24,17,1,,,,,,,,,,,,,,,,,,,,,,,,,,,,,,,,,,,,,,,,,,,,,,,,,,,,,,,,,,,,,,,,,,,,,,
,,,,3,1.4325,,,,,,123,cookie,tree,,90379,001,2022-04-18_17h00.49.803,SPAMnetsValid,2021.1.4,Win32,60.17933442,,,,,,,,,,,,,3,1.4325,0,25,25,46,1,,,,,,,,,,,,,,,,,,,,,,,,,,,,,,,,,,,,,,,,,,,,,,,,,,,,,,,,,,,,,,,,,,,,,,
,,,,1,1.3882,,,,,,126,kitchen,tree,,90379,001,2022-04-18_17h00.49.803,SPAMnetsValid,2021.1.4,Win32,60.17933442,,,,,,,,,,,,,1,1.3882,0,26,26,50,1,,,,,,,,,,,,,,,,,,,,,,,,,,,,,,,,,,,,,,,,,,,,,,,,,,,,,,,,,,,,,,,,,,,,,,
,,,,7,1.6453,,,,,,100,garden,tomato,,90379,001,2022-04-18_17h00.49.803,SPAMnetsValid,2021.1.4,Win32,60.17933442,,,,,,,,,,,,,7,1.6453,0,27,27,83,1,,,,,,,,,,,,,,,,,,,,,,,,,,,,,,,,,,,,,,,,,,,,,,,,,,,,,,,,,,,,,,,,,,,,,,
,,,,8,2.7305,,,,,,122,flower,garden,,90379,001,2022-04-18_17h00.49.803,SPAMnetsValid,2021.1.4,Win32,60.17933442,,,,,,,,,,,,,8,2.7305,0,28,28,60,1,,,,,,,,,,,,,,,,,,,,,,,,,,,,,,,,,,,,,,,,,,,,,,,,,,,,,,,,,,,,,,,,,,,,,,
,,,,6,2.0552,,,,,,166,cake,yogurt,,90379,001,2022-04-18_17h00.49.803,SPAMnetsValid,2021.1.4,Win32,60.17933442,,,,,,,,,,,,,6,2.0552,0,29,29,91,1,,,,,,,,,,,,,,,,,,,,,,,,,,,,,,,,,,,,,,,,,,,,,,,,,,,,,,,,,,,,,,,,,,,,,,
,,,,2,1.3702,,,,,,97,chocolate,kitchen,,90379,001,2022-04-18_17h00.49.803,SPAMnetsValid,2021.1.4,Win32,60.17933442,,,,,,,,,,,,,2,1.3702,0,30,30,8,1,,,,,,,,,,,,,,,,,,,,,,,,,,,,,,,,,,,,,,,,,,,,,,,,,,,,,,,,,,,,,,,,,,,,,,
,,,,2,2.4501,,,,,,155,carrot,cookie,,90379,001,2022-04-18_17h00.49.803,SPAMnetsValid,2021.1.4,Win32,60.17933442,,,,,,,,,,,,,2,2.4501,0,31,31,38,1,,,,,,,,,,,,,,,,,,,,,,,,,,,,,,,,,,,,,,,,,,,,,,,,,,,,,,,,,,,,,,,,,,,,,,
,,,,1,2.3487,,,,,,128,melon,microwave,,90379,001,2022-04-18_17h00.49.803,SPAMnetsValid,2021.1.4,Win32,60.17933442,,,,,,,,,,,,,1,2.3487,0,32,32,74,1,,,,,,,,,,,,,,,,,,,,,,,,,,,,,,,,,,,,,,,,,,,,,,,,,,,,,,,,,,,,,,,,,,,,,,
,,,,7,1.8987,,,,,,116,cake,chocolate,,90379,001,2022-04-18_17h00.49.803,SPAMnetsValid,2021.1.4,Win32,60.17933442,,,,,,,,,,,,,7,1.8987,0,33,33,44,1,,,,,,,,,,,,,,,,,,,,,,,,,,,,,,,,,,,,,,,,,,,,,,,,,,,,,,,,,,,,,,,,,,,,,,
,,,,1,1.4486,,,,,,104,garden,microwave,,90379,001,2022-04-18_17h00.49.803,SPAMnetsValid,2021.1.4,Win32,60.17933442,,,,,,,,,,,,,1,1.4486,0,34,34,81,1,,,,,,,,,,,,,,,,,,,,,,,,,,,,,,,,,,,,,,,,,,,,,,,,,,,,,,,,,,,,,,,,,,,,,,
,,,,3,1.4488,,,,,,115,refrigerator,tomato,,90379,001,2022-04-18_17h00.49.803,SPAMnetsValid,2021.1.4,Win32,60.17933442,,,,,,,,,,,,,3,1.4488,0,35,35,85,1,,,,,,,,,,,,,,,,,,,,,,,,,,,,,,,,,,,,,,,,,,,,,,,,,,,,,,,,,,,,,,,,,,,,,,
,,,,1,1.2993,,,,,,109,broom,strawberry,,90379,001,2022-04-18_17h00.49.803,SPAMnetsValid,2021.1.4,Win32,60.17933442,,,,,,,,,,,,,1,1.2993,0,36,36,4,1,,,,,,,,,,,,,,,,,,,,,,,,,,,,,,,,,,,,,,,,,,,,,,,,,,,,,,,,,,,,,,,,,,,,,,
,,,,1,3.4658,,,,,,183,cake,rose,,90379,001,2022-04-18_17h00.49.803,SPAMnetsValid,2021.1.4,Win32,60.17933442,,,,,,,,,,,,,1,3.4658,0,37,37,19,1,,,,,,,,,,,,,,,,,,,,,,,,,,,,,,,,,,,,,,,,,,,,,,,,,,,,,,,,,,,,,,,,,,,,,,
,,,,1,1.6823,,,,,,151,microwave,onion,,90379,001,2022-04-18_17h00.49.803,SPAMnetsValid,2021.1.4,Win32,60.17933442,,,,,,,,,,,,,1,1.6823,0,38,38,6,1,,,,,,,,,,,,,,,,,,,,,,,,,,,,,,,,,,,,,,,,,,,,,,,,,,,,,,,,,,,,,,,,,,,,,,
,,,,6,2.2653,,,,,,118,chocolate,oven,,90379,001,2022-04-18_17h00.49.803,SPAMnetsValid,2021.1.4,Win32,60.17933442,,,,,,,,,,,,,6,2.2653,0,39,39,10,1,,,,,,,,,,,,,,,,,,,,,,,,,,,,,,,,,,,,,,,,,,,,,,,,,,,,,,,,,,,,,,,,,,,,,,
,,,,6,3.7994,,,,,,185,cactus,rose,,90379,001,2022-04-18_17h00.49.803,SPAMnetsValid,2021.1.4,Win32,60.17933442,,,,,,,,,,,,,6,3.7994,0,40,40,43,1,,,,,,,,,,,,,,,,,,,,,,,,,,,,,,,,,,,,,,,,,,,,,,,,,,,,,,,,,,,,,,,,,,,,,,
,,,,2,2.6821,,,,,,182,flower,refrigerator,,90379,001,2022-04-18_17h00.49.803,SPAMnetsValid,2021.1.4,Win32,60.17933442,,,,,,,,,,,,,2,2.6821,0,41,41,32,1,,,,,,,,,,,,,,,,,,,,,,,,,,,,,,,,,,,,,,,,,,,,,,,,,,,,,,,,,,,,,,,,,,,,,,
,,,,6,1.7497,,,,,,141,melon,tomato,,90379,001,2022-04-18_17h00.49.803,SPAMnetsValid,2021.1.4,Win32,60.17933442,,,,,,,,,,,,,6,1.7497,0,42,42,70,1,,,,,,,,,,,,,,,,,,,,,,,,,,,,,,,,,,,,,,,,,,,,,,,,,,,,,,,,,,,,,,,,,,,,,,
,,,,6,2.3316,,,,,,114,cookie,strawberry,,90379,001,2022-04-18_17h00.49.803,SPAMnetsValid,2021.1.4,Win32,60.17933442,,,,,,,,,,,,,6,2.3316,0,43,43,87,1,,,,,,,,,,,,,,,,,,,,,,,,,,,,,,,,,,,,,,,,,,,,,,,,,,,,,,,,,,,,,,,,,,,,,,
,,,,6,1.8327,,,,,,173,kitchen,tomato,,90379,001,2022-04-18_17h00.49.803,SPAMnetsValid,2021.1.4,Win32,60.17933442,,,,,,,,,,,,,6,1.8327,0,44,44,1,1,,,,,,,,,,,,,,,,,,,,,,,,,,,,,,,,,,,,,,,,,,,,,,,,,,,,,,,,,,,,,,,,,,,,,,
,,,,1,1.2489,,,,,,143,pretzel,rose,,90379,001,2022-04-18_17h00.49.803,SPAMnetsValid,2021.1.4,Win32,60.17933442,,,,,,,,,,,,,1,1.2489,0,45,45,55,1,,,,,,,,,,,,,,,,,,,,,,,,,,,,,,,,,,,,,,,,,,,,,,,,,,,,,,,,,,,,,,,,,,,,,,
,,,,2,2.8165,,,,,,103,pretzel,tomato,,90379,001,2022-04-18_17h00.49.803,SPAMnetsValid,2021.1.4,Win32,60.17933442,,,,,,,,,,,,,2,2.8165,0,46,46,79,1,,,,,,,,,,,,,,,,,,,,,,,,,,,,,,,,,,,,,,,,,,,,,,,,,,,,,,,,,,,,,,,,,,,,,,
,,,,2,2.399,,,,,,174,cake,pretzel,,90379,001,2022-04-18_17h00.49.803,SPAMnetsValid,2021.1.4,Win32,60.17933442,,,,,,,,,,,,,2,2.399,0,47,47,2,1,,,,,,,,,,,,,,,,,,,,,,,,,,,,,,,,,,,,,,,,,,,,,,,,,,,,,,,,,,,,,,,,,,,,,,
,,,,1,2.1987,,,,,,136,chocolate,microwave,,90379,001,2022-04-18_17h00.49.803,SPAMnetsValid,2021.1.4,Win32,60.17933442,,,,,,,,,,,,,1,2.1987,0,48,48,96,1,,,,,,,,,,,,,,,,,,,,,,,,,,,,,,,,,,,,,,,,,,,,,,,,,,,,,,,,,,,,,,,,,,,,,,
,,,,4,8.7994,,,,,,153,carrot,pretzel,,90379,001,2022-04-18_17h00.49.803,SPAMnetsValid,2021.1.4,Win32,60.17933442,,,,,,,,,,,,,4,8.7994,0,49,49,34,1,,,,,,,,,,,,,,,,,,,,,,,,,,,,,,,,,,,,,,,,,,,,,,,,,,,,,,,,,,,,,,,,,,,,,,
,,,,3,4.0491,,,,,,108,carrot,chocolate,,90379,001,2022-04-18_17h00.49.803,SPAMnetsValid,2021.1.4,Win32,60.17933442,,,,,,,,,,,,,3,4.0491,0,50,50,5,1,,,,,,,,,,,,,,,,,,,,,,,,,,,,,,,,,,,,,,,,,,,,,,,,,,,,,,,,,,,,,,,,,,,,,,
,,,,7,2.0994,,,,,,124,oven,refrigerator,,90379,001,2022-04-18_17h00.49.803,SPAMnetsValid,2021.1.4,Win32,60.17933442,,,,,,,,,,,,,7,2.0994,0,51,51,69,1,,,,,,,,,,,,,,,,,,,,,,,,,,,,,,,,,,,,,,,,,,,,,,,,,,,,,,,,,,,,,,,,,,,,,,
,,,,4,1.5161,,,,,,163,melon,refrigerator,,90379,001,2022-04-18_17h00.49.803,SPAMnetsValid,2021.1.4,Win32,60.17933442,,,,,,,,,,,,,4,1.5161,0,52,52,29,1,,,,,,,,,,,,,,,,,,,,,,,,,,,,,,,,,,,,,,,,,,,,,,,,,,,,,,,,,,,,,,,,,,,,,,
,,,,7,2.5657,,,,,,177,chocolate,strawberry,,90379,001,2022-04-18_17h00.49.803,SPAMnetsValid,2021.1.4,Win32,60.17933442,,,,,,,,,,,,,7,2.5657,0,53,53,53,1,,,,,,,,,,,,,,,,,,,,,,,,,,,,,,,,,,,,,,,,,,,,,,,,,,,,,,,,,,,,,,,,,,,,,,
,,,,1,3.3837,,,,,,129,cactus,refrigerator,,90379,001,2022-04-18_17h00.49.803,SPAMnetsValid,2021.1.4,Win32,60.17933442,,,,,,,,,,,,,1,3.3837,0,54,54,3,1,,,,,,,,,,,,,,,,,,,,,,,,,,,,,,,,,,,,,,,,,,,,,,,,,,,,,,,,,,,,,,,,,,,,,,
,,,,1,0.0495,,,,,,187,cactus,microwave,,90379,001,2022-04-18_17h00.49.803,SPAMnetsValid,2021.1.4,Win32,60.17933442,,,,,,,,,,,,,1,0.0495,0,55,55,71,1,,,,,,,,,,,,,,,,,,,,,,,,,,,,,,,,,,,,,,,,,,,,,,,,,,,,,,,,,,,,,,,,,,,,,,
,,,,1,3.6467,,,,,,162,microwave,tomato,,90379,001,2022-04-18_17h00.49.803,SPAMnetsValid,2021.1.4,Win32,60.17933442,,,,,,,,,,,,,1,3.6467,0,56,56,12,1,,,,,,,,,,,,,,,,,,,,,,,,,,,,,,,,,,,,,,,,,,,,,,,,,,,,,,,,,,,,,,,,,,,,,,
,,,,1,1.7327,,,,,,121,broom,microwave,,90379,001,2022-04-18_17h00.49.803,SPAMnetsValid,2021.1.4,Win32,60.17933442,,,,,,,,,,,,,1,1.7327,0,57,57,95,1,,,,,,,,,,,,,,,,,,,,,,,,,,,,,,,,,,,,,,,,,,,,,,,,,,,,,,,,,,,,,,,,,,,,,,
,,,,7,2.149,,,,,,131,cactus,garden,,90379,001,2022-04-18_17h00.49.803,SPAMnetsValid,2021.1.4,Win32,60.17933442,,,,,,,,,,,,,7,2.149,0,58,58,33,1,,,,,,,,,,,,,,,,,,,,,,,,,,,,,,,,,,,,,,,,,,,,,,,,,,,,,,,,,,,,,,,,,,,,,,
,,,,3,1.9493,,,,,,107,rose,tomato,,90379,001,2022-04-18_17h00.49.803,SPAMnetsValid,2021.1.4,Win32,60.17933442,,,,,,,,,,,,,3,1.9493,0,59,59,26,1,,,,,,,,,,,,,,,,,,,,,,,,,,,,,,,,,,,,,,,,,,,,,,,,,,,,,,,,,,,,,,,,,,,,,,
,,,,3,4.3498,,,,,,119,strawberry,tree,,90379,001,2022-04-18_17h00.49.803,SPAMnetsValid,2021.1.4,Win32,60.17933442,,,,,,,,,,,,,3,4.3498,0,60,60,18,1,,,,,,,,,,,,,,,,,,,,,,,,,,,,,,,,,,,,,,,,,,,,,,,,,,,,,,,,,,,,,,,,,,,,,,
,,,,1,1.2489,,,,,,145,cactus,yogurt,,90379,001,2022-04-18_17h00.49.803,SPAMnetsValid,2021.1.4,Win32,60.17933442,,,,,,,,,,,,,1,1.2489,0,61,61,15,1,,,,,,,,,,,,,,,,,,,,,,,,,,,,,,,,,,,,,,,,,,,,,,,,,,,,,,,,,,,,,,,,,,,,,,
,,,,1,1.3152,,,,,,130,microwave,yogurt,,90379,001,2022-04-18_17h00.49.803,SPAMnetsValid,2021.1.4,Win32,60.17933442,,,,,,,,,,,,,1,1.3152,0,62,62,84,1,,,,,,,,,,,,,,,,,,,,,,,,,,,,,,,,,,,,,,,,,,,,,,,,,,,,,,,,,,,,,,,,,,,,,,
,,,,2,2.282,,,,,,159,cookie,flower,,90379,001,2022-04-18_17h00.49.803,SPAMnetsValid,2021.1.4,Win32,60.17933442,,,,,,,,,,,,,2,2.282,0,63,63,21,1,,,,,,,,,,,,,,,,,,,,,,,,,,,,,,,,,,,,,,,,,,,,,,,,,,,,,,,,,,,,,,,,,,,,,,
,,,,4,1.799,,,,,,152,cactus,strawberry,,90379,001,2022-04-18_17h00.49.803,SPAMnetsValid,2021.1.4,Win32,60.17933442,,,,,,,,,,,,,4,1.799,0,64,64,49,1,,,,,,,,,,,,,,,,,,,,,,,,,,,,,,,,,,,,,,,,,,,,,,,,,,,,,,,,,,,,,,,,,,,,,,
,,,,6,1.4168,,,,,,175,melon,onion,,90379,001,2022-04-18_17h00.49.803,SPAMnetsValid,2021.1.4,Win32,60.17933442,,,,,,,,,,,,,6,1.4168,0,65,65,41,1,,,,,,,,,,,,,,,,,,,,,,,,,,,,,,,,,,,,,,,,,,,,,,,,,,,,,,,,,,,,,,,,,,,,,,
,,,,4,1.7653,,,,,,148,flower,melon,,90379,001,2022-04-18_17h00.49.803,SPAMnetsValid,2021.1.4,Win32,60.17933442,,,,,,,,,,,,,4,1.7653,0,66,66,23,1,,,,,,,,,,,,,,,,,,,,,,,,,,,,,,,,,,,,,,,,,,,,,,,,,,,,,,,,,,,,,,,,,,,,,,
,,,,1,1.2486,,,,,,172,kitchen,melon,,90379,001,2022-04-18_17h00.49.803,SPAMnetsValid,2021.1.4,Win32,60.17933442,,,,,,,,,,,,,1,1.2486,0,67,67,77,1,,,,,,,,,,,,,,,,,,,,,,,,,,,,,,,,,,,,,,,,,,,,,,,,,,,,,,,,,,,,,,,,,,,,,,
,,,,1,2.1826,,,,,,190,microwave,strawberry,,90379,001,2022-04-18_17h00.49.803,SPAMnetsValid,2021.1.4,Win32,60.17933442,,,,,,,,,,,,,1,2.1826,0,68,68,90,1,,,,,,,,,,,,,,,,,,,,,,,,,,,,,,,,,,,,,,,,,,,,,,,,,,,,,,,,,,,,,,,,,,,,,,
,,,,3,2.8156,,,,,,181,carrot,kitchen,,90379,001,2022-04-18_17h00.49.803,SPAMnetsValid,2021.1.4,Win32,60.17933442,,,,,,,,,,,,,3,2.8156,0,69,69,72,1,,,,,,,,,,,,,,,,,,,,,,,,,,,,,,,,,,,,,,,,,,,,,,,,,,,,,,,,,,,,,,,,,,,,,,
,,,,1,1.1985,,,,,,132,broom,tree,,90379,001,2022-04-18_17h00.49.803,SPAMnetsValid,2021.1.4,Win32,60.17933442,,,,,,,,,,,,,1,1.1985,0,70,70,78,1,,,,,,,,,,,,,,,,,,,,,,,,,,,,,,,,,,,,,,,,,,,,,,,,,,,,,,,,,,,,,,,,,,,,,,
,,,,6,1.6652,,,,,,189,onion,tree,,90379,001,2022-04-18_17h00.49.803,SPAMnetsValid,2021.1.4,Win32,60.17933442,,,,,,,,,,,,,6,1.6652,0,71,71,62,1,,,,,,,,,,,,,,,,,,,,,,,,,,,,,,,,,,,,,,,,,,,,,,,,,,,,,,,,,,,,,,,,,,,,,,
,,,,4,1.4157,,,,,,98,pretzel,strawberry,,90379,001,2022-04-18_17h00.49.803,SPAMnetsValid,2021.1.4,Win32,60.17933442,,,,,,,,,,,,,4,1.4157,0,72,72,82,1,,,,,,,,,,,,,,,,,,,,,,,,,,,,,,,,,,,,,,,,,,,,,,,,,,,,,,,,,,,,,,,,,,,,,,
,,,,2,2.0148,,,,,,160,cookie,kitchen,,90379,001,2022-04-18_17h00.49.803,SPAMnetsValid,2021.1.4,Win32,60.17933442,,,,,,,,,,,,,2,2.0148,0,73,73,65,1,,,,,,,,,,,,,,,,,,,,,,,,,,,,,,,,,,,,,,,,,,,,,,,,,,,,,,,,,,,,,,,,,,,,,,
,,,,6,1.5495,,,,,,117,melon,strawberry,,90379,001,2022-04-18_17h00.49.803,SPAMnetsValid,2021.1.4,Win32,60.17933442,,,,,,,,,,,,,6,1.5495,0,74,74,11,1,,,,,,,,,,,,,,,,,,,,,,,,,,,,,,,,,,,,,,,,,,,,,,,,,,,,,,,,,,,,,,,,,,,,,,
,,,,4,1.3825,,,,,,125,carrot,tree,,90379,001,2022-04-18_17h00.49.803,SPAMnetsValid,2021.1.4,Win32,60.17933442,,,,,,,,,,,,,4,1.3825,0,75,75,30,1,,,,,,,,,,,,,,,,,,,,,,,,,,,,,,,,,,,,,,,,,,,,,,,,,,,,,,,,,,,,,,,,,,,,,,
,,,,4,2.799,,,,,,186,kitchen,yogurt,,90379,001,2022-04-18_17h00.49.803,SPAMnetsValid,2021.1.4,Win32,60.17933442,,,,,,,,,,,,,4,2.799,0,76,76,48,1,,,,,,,,,,,,,,,,,,,,,,,,,,,,,,,,,,,,,,,,,,,,,,,,,,,,,,,,,,,,,,,,,,,,,,
,,,,3,3.1647,,,,,,140,cookie,refrigerator,,90379,001,2022-04-18_17h00.49.803,SPAMnetsValid,2021.1.4,Win32,60.17933442,,,,,,,,,,,,,3,3.1647,0,77,77,89,1,,,,,,,,,,,,,,,,,,,,,,,,,,,,,,,,,,,,,,,,,,,,,,,,,,,,,,,,,,,,,,,,,,,,,,
,,,,4,1.4988,,,,,,176,cactus,tomato,,90379,001,2022-04-18_17h00.49.803,SPAMnetsValid,2021.1.4,Win32,60.17933442,,,,,,,,,,,,,4,1.4988,0,78,78,9,1,,,,,,,,,,,,,,,,,,,,,,,,,,,,,,,,,,,,,,,,,,,,,,,,,,,,,,,,,,,,,,,,,,,,,,
,,,,5,1.7487,,,,,,188,flower,tree,,90379,001,2022-04-18_17h00.49.803,SPAMnetsValid,2021.1.4,Win32,60.17933442,,,,,,,,,,,,,5,1.7487,0,79,79,7,1,,,,,,,,,,,,,,,,,,,,,,,,,,,,,,,,,,,,,,,,,,,,,,,,,,,,,,,,,,,,,,,,,,,,,,
,,,,3,1.8503,,,,,,171,cake,tomato,,90379,001,2022-04-18_17h00.49.803,SPAMnetsValid,2021.1.4,Win32,60.17933442,,,,,,,,,,,,,3,1.8503,0,80,80,88,1,,,,,,,,,,,,,,,,,,,,,,,,,,,,,,,,,,,,,,,,,,,,,,,,,,,,,,,,,,,,,,,,,,,,,,
,,,,3,2.0492,,,,,,156,melon,rose,,90379,001,2022-04-18_17h00.49.803,SPAMnetsValid,2021.1.4,Win32,60.17933442,,,,,,,,,,,,,3,2.0492,0,81,81,31,1,,,,,,,,,,,,,,,,,,,,,,,,,,,,,,,,,,,,,,,,,,,,,,,,,,,,,,,,,,,,,,,,,,,,,,
,,,,1,1.4656,,,,,,164,cookie,garden,,90379,001,2022-04-18_17h00.49.803,SPAMnetsValid,2021.1.4,Win32,60.17933442,,,,,,,,,,,,,1,1.4656,0,82,82,59,1,,,,,,,,,,,,,,,,,,,,,,,,,,,,,,,,,,,,,,,,,,,,,,,,,,,,,,,,,,,,,,,,,,,,,,
,,,,6,1.5166,,,,,,167,carrot,garden,,90379,001,2022-04-18_17h00.49.803,SPAMnetsValid,2021.1.4,Win32,60.17933442,,,,,,,,,,,,,6,1.5166,0,83,83,47,1,,,,,,,,,,,,,,,,,,,,,,,,,,,,,,,,,,,,,,,,,,,,,,,,,,,,,,,,,,,,,,,,,,,,,,
,,,,1,1.2657,,,,,,180,tree,yogurt,,90379,001,2022-04-18_17h00.49.803,SPAMnetsValid,2021.1.4,Win32,60.17933442,,,,,,,,,,,,,1,1.2657,0,84,84,68,1,,,,,,,,,,,,,,,,,,,,,,,,,,,,,,,,,,,,,,,,,,,,,,,,,,,,,,,,,,,,,,,,,,,,,,
,,,,3,1.5663,,,,,,135,carrot,oven,,90379,001,2022-04-18_17h00.49.803,SPAMnetsValid,2021.1.4,Win32,60.17933442,,,,,,,,,,,,,3,1.5663,0,85,85,73,1,,,,,,,,,,,,,,,,,,,,,,,,,,,,,,,,,,,,,,,,,,,,,,,,,,,,,,,,,,,,,,,,,,,,,,
,,,,1,1.4656,,,,,,111,carrot,microwave,,90379,001,2022-04-18_17h00.49.803,SPAMnetsValid,2021.1.4,Win32,60.17933442,,,,,,,,,,,,,1,1.4656,0,86,86,16,1,,,,,,,,,,,,,,,,,,,,,,,,,,,,,,,,,,,,,,,,,,,,,,,,,,,,,,,,,,,,,,,,,,,,,,
,,,,6,2.3823,,,,,,184,oven,pretzel,,90379,001,2022-04-18_17h00.49.803,SPAMnetsValid,2021.1.4,Win32,60.17933442,,,,,,,,,,,,,6,2.3823,0,87,87,42,1,,,,,,,,,,,,,,,,,,,,,,,,,,,,,,,,,,,,,,,,,,,,,,,,,,,,,,,,,,,,,,,,,,,,,,
,,,,6,1.9832,,,,,,154,strawberry,yogurt,,90379,001,2022-04-18_17h00.49.803,SPAMnetsValid,2021.1.4,Win32,60.17933442,,,,,,,,,,,,,6,1.9832,0,88,88,28,1,,,,,,,,,,,,,,,,,,,,,,,,,,,,,,,,,,,,,,,,,,,,,,,,,,,,,,,,,,,,,,,,,,,,,,
,,,,2,1.8322,,,,,,105,cactus,oven,,90379,001,2022-04-18_17h00.49.803,SPAMnetsValid,2021.1.4,Win32,60.17933442,,,,,,,,,,,,,2,1.8322,0,89,89,13,1,,,,,,,,,,,,,,,,,,,,,,,,,,,,,,,,,,,,,,,,,,,,,,,,,,,,,,,,,,,,,,,,,,,,,,
,,,,7,2.3155,,,,,,168,cactus,flower,,90379,001,2022-04-18_17h00.49.803,SPAMnetsValid,2021.1.4,Win32,60.17933442,,,,,,,,,,,,,7,2.3155,0,90,90,51,1,,,,,,,,,,,,,,,,,,,,,,,,,,,,,,,,,,,,,,,,,,,,,,,,,,,,,,,,,,,,,,,,,,,,,,
,,,,2,5.9487,,,,,,106,cake,strawberry,,90379,001,2022-04-18_17h00.49.803,SPAMnetsValid,2021.1.4,Win32,60.17933442,,,,,,,,,,,,,2,5.9487,0,91,91,0,1,,,,,,,,,,,,,,,,,,,,,,,,,,,,,,,,,,,,,,,,,,,,,,,,,,,,,,,,,,,,,,,,,,,,,,
,,,,9,1.2995,,,,,,193,melon,melon,CHECK,90379,001,2022-04-18_17h00.49.803,SPAMnetsValid,2021.1.4,Win32,60.17933442,,,,,,,,,,,,,9,1.2995,0,92,92,86,1,,,,,,,,,,,,,,,,,,,,,,,,,,,,,,,,,,,,,,,,,,,,,,,,,,,,,,,,,,,,,,,,,,,,,,
,,,,2,1.7498,,,,,,178,cactus,carrot,,90379,001,2022-04-18_17h00.49.803,SPAMnetsValid,2021.1.4,Win32,60.17933442,,,,,,,,,,,,,2,1.7498,0,93,93,75,1,,,,,,,,,,,,,,,,,,,,,,,,,,,,,,,,,,,,,,,,,,,,,,,,,,,,,,,,,,,,,,,,,,,,,,
,,,,1,3.066,,,,,,137,microwave,tree,,90379,001,2022-04-18_17h00.49.803,SPAMnetsValid,2021.1.4,Win32,60.17933442,,,,,,,,,,,,,1,3.066,0,94,94,63,1,,,,,,,,,,,,,,,,,,,,,,,,,,,,,,,,,,,,,,,,,,,,,,,,,,,,,,,,,,,,,,,,,,,,,,
,,,,1,1.5827,,,,,,149,broom,tomato,,90379,001,2022-04-18_17h00.49.803,SPAMnetsValid,2021.1.4,Win32,60.17933442,,,,,,,,,,,,,1,1.5827,0,95,95,20,1,,,,,,,,,,,,,,,,,,,,,,,,,,,,,,,,,,,,,,,,,,,,,,,,,,,,,,,,,,,,,,,,,,,,,,
,,,,3,1.7495,,,,,,113,refrigerator,strawberry,,90379,001,2022-04-18_17h00.49.803,SPAMnetsValid,2021.1.4,Win32,60.17933442,,,,,,,,,,,,,3,1.7495,0,96,96,56,1,,,,,,,,,,,,,,,,,,,,,,,,,,,,,,,,,,,,,,,,,,,,,,,,,,,,,,,,,,,,,,,,,,,,,,
,,,,,,,,,,,,,,,90379,001,2022-04-18_17h00.49.803,SPAMnetsValid,2021.1.4,Win32,60.17933442,,,,,,,,,,,,,,,,,,,,0,0,0,0,1,,,,,,,,,,,,,,,,,,,,,,,,,,,,,,,,,,,,,,,,,,,,,,,,,,,,,,,,,,,,,,,,,
,,,,,,,,,,,,,,,90379,001,2022-04-18_17h00.49.803,SPAMnetsValid,2021.1.4,Win32,60.17933442,,,,,,0,1,1,1,1,0,1,,,,,,,,,,,,,,,,,,,,,,,,,,,,,,,,,,,,,,,,,,,,,,,,,,,,,,,,,,,,,,,,,,,,,,,,,,,,,
,,,,,,,,,,,,,,,90379,001,2022-04-18_17h00.49.803,SPAMnetsValid,2021.1.4,Win32,60.17933442,,,,,,,,,,,,,,,,,,,,,,,,,,,0,0,0,0,1,rancor,forbearance,ridicule,malice,bravery,3,,,,,,,,,,,,,,,,,,,,,,,,,,,,,,,,,,,,,,,,,,,,,,,,,,,,
,,,,,,,,,,,,,,,90379,001,2022-04-18_17h00.49.803,SPAMnetsValid,2021.1.4,Win32,60.17933442,,,,,,,,,,,,,,,,,,,,,,,,,4,5.006,0,1,1,1,1,raucous,empty,quiet,smooth,harsh,4,,,,,,,,,,,,,,,,,,,,,,,,,,,,,,,,,,,,,,,,,,,,,,,,,,,,
,,,,,,,,,,,,,,,90379,001,2022-04-18_17h00.49.803,SPAMnetsValid,2021.1.4,Win32,60.17933442,,,,,,,,,,,,,,,,,,,,,,,,,,,0,2,2,2,1,gargoyle,oil,medicine,carved waterspout,ugly building,3,,,,,,,,,,,,,,,,,,,,,,,,,,,,,,,,,,,,,,,,,,,,,,,,,,,,
,,,,,,,,,,,,,,,90379,001,2022-04-18_17h00.49.803,SPAMnetsValid,2021.1.4,Win32,60.17933442,,,,,,,,,,,,,,,,,,,,,,,,,1,6.6336,0,3,3,3,1,recrudesce,purify,renew activity,lack refinement,crush,2,,,,,,,,,,,,,,,,,,,,,,,,,,,,,,,,,,,,,,,,,,,,,,,,,,,,
,,,,,,,,,,,,,,,90379,001,2022-04-18_17h00.49.803,SPAMnetsValid,2021.1.4,Win32,60.17933442,,,,,,,,,,,,,,,,,,,,,,,,,3,6.5093,0,4,4,4,1,specious,"plausible, but not genuine",noteworthy,class or variety,roomy,1,,,,,,,,,,,,,,,,,,,,,,,,,,,,,,,,,,,,,,,,,,,,,,,,,,,,
,,,,,,,,,,,,,,,90379,001,2022-04-18_17h00.49.803,SPAMnetsValid,2021.1.4,Win32,60.17933442,,,,,,,,,,,,,,,,,,,,,,,,,2,5.232,0,5,5,5,1,bauble,bubble,showy plaything,idle talk,confusion,2,,,,,,,,,,,,,,,,,,,,,,,,,,,,,,,,,,,,,,,,,,,,,,,,,,,,
,,,,,,,,,,,,,,,90379,001,2022-04-18_17h00.49.803,SPAMnetsValid,2021.1.4,Win32,60.17933442,,,,,,,,,,,,,,,,,,,,,,,,,4,5.4627,0,6,6,6,1,prolific,scarce,producing abundantly,reckless,speaking profanely,2,,,,,,,,,,,,,,,,,,,,,,,,,,,,,,,,,,,,,,,,,,,,,,,,,,,,
,,,,,,,,,,,,,,,90379,001,2022-04-18_17h00.49.803,SPAMnetsValid,2021.1.4,Win32,60.17933442,,,,,,,,,,,,,,,,,,,,,,,,,3,7.8553,0,7,7,7,1,opulent,party,wealthy,happy frame of mind,semiprecious stone,2,,,,,,,,,,,,,,,,,,,,,,,,,,,,,,,,,,,,,,,,,,,,,,,,,,,,
,,,,,,,,,,,,,,,90379,001,2022-04-18_17h00.49.803,SPAMnetsValid,2021.1.4,Win32,60.17933442,,,,,,,,,,,,,,,,,,,,,,,,,1,3.0073,0,8,8,8,1,coercion,conspiracy,strategy,restraint,attraction,3,,,,,,,,,,,,,,,,,,,,,,,,,,,,,,,,,,,,,,,,,,,,,,,,,,,,
,,,,,,,,,,,,,,,90379,001,2022-04-18_17h00.49.803,SPAMnetsValid,2021.1.4,Win32,60.17933442,,,,,,,,,,,,,,,,,,,,,,,,,4,2.2885,0,9,9,9,1,hiatus,animal,calamity,dread,gap,4,,,,,,,,,,,,,,,,,,,,,,,,,,,,,,,,,,,,,,,,,,,,,,,,,,,,
,,,,,,,,,,,,,,,90379,001,2022-04-18_17h00.49.803,SPAMnetsValid,2021.1.4,Win32,60.17933442,,,,,,,,,,,,,,,,,,,,,,,,,4,4.1914,0,10,10,10,1,germane,microbe,contagious,relevant,different,3,,,,,,,,,,,,,,,,,,,,,,,,,,,,,,,,,,,,,,,,,,,,,,,,,,,,
,,,,,,,,,,,,,,,90379,001,2022-04-18_17h00.49.803,SPAMnetsValid,2021.1.4,Win32,60.17933442,,,,,,,,,,,,,,,,,,,,,,,,,3,5.4401,0,11,11,11,1,perfunctory,fundamental,formal,superficial,careful,3,,,,,,,,,,,,,,,,,,,,,,,,,,,,,,,,,,,,,,,,,,,,,,,,,,,,
,,,,,,,,,,,,,,,90379,001,2022-04-18_17h00.49.803,SPAMnetsValid,2021.1.4,Win32,60.17933442,,,,,,,,,,,,,,,,,,,,,,,,,4,4.5426,0,12,12,12,1,diverge,reveal,chant,distract the attention of,differ or turn off from,4,,,,,,,,,,,,,,,,,,,,,,,,,,,,,,,,,,,,,,,,,,,,,,,,,,,,
,,,,,,,,,,,,,,,90379,001,2022-04-18_17h00.49.803,SPAMnetsValid,2021.1.4,Win32,60.17933442,,,,,,,,,,,,,,,,,,,,,,,,,4,2.4094,0,13,13,13,1,evoke,take away,anger,connect,bring out,4,,,,,,,,,,,,,,,,,,,,,,,,,,,,,,,,,,,,,,,,,,,,,,,,,,,,
,,,,,,,,,,,,,,,90379,001,2022-04-18_17h00.49.803,SPAMnetsValid,2021.1.4,Win32,60.17933442,,,,,,,,,,,,,,,,,,,,,,,,,1,2.0743,0,14,14,14,1,pertinent,relevant,lying next to,necessary,bold,1,,,,,,,,,,,,,,,,,,,,,,,,,,,,,,,,,,,,,,,,,,,,,,,,,,,,
,,,,,,,,,,,,,,,90379,001,2022-04-18_17h00.49.803,SPAMnetsValid,2021.1.4,Win32,60.17933442,,,,,,,,,,,,,,,,,,,,,,,,,2,2.3054,0,15,15,15,1,holocaust,entirety,destruction,saintly,price,2,,,,,,,,,,,,,,,,,,,,,,,,,,,,,,,,,,,,,,,,,,,,,,,,,,,,
,,,,,,,,,,,,,,,90379,001,2022-04-18_17h00.49.803,SPAMnetsValid,2021.1.4,Win32,60.17933442,,,,,,,,,,,,,,,,,,,,,,,,,1,6.0776,0,16,16,16,1,piquant,mellow,fish,pungent,cloth,3,,,,,,,,,,,,,,,,,,,,,,,,,,,,,,,,,,,,,,,,,,,,,,,,,,,,
,,,,,,,,,,,,,,,90379,001,2022-04-18_17h00.49.803,SPAMnetsValid,2021.1.4,Win32,60.17933442,,,,,,,,,,,,,,,,,,,,,,,,,3,4.6556,0,17,17,17,1,firmament,foundation,heavens,strong,glue,2,,,,,,,,,,,,,,,,,,,,,,,,,,,,,,,,,,,,,,,,,,,,,,,,,,,,
,,,,,,,,,,,,,,,90379,001,2022-04-18_17h00.49.803,SPAMnetsValid,2021.1.4,Win32,60.17933442,,,,,,,,,,,,,,,,,,,,,,,,,,,,,,,,,,,,,,3,2.8277,0,0,0,0,1,marketable,partisan,jocular,marriageable,salable,essential,4,,,,,,,,,,,,,,,,,,,,,,,,,,,,,,,,,,,,,,
,,,,,,,,,,,,,,,90379,001,2022-04-18_17h00.49.803,SPAMnetsValid,2021.1.4,Win32,60.17933442,,,,,,,,,,,,,,,,,,,,,,,,,,,,,,,,,,,,,,5,6.6564,0,1,1,1,1,cottontail,squirrel,poplar,boa,marshy plant,rabbit,5,,,,,,,,,,,,,,,,,,,,,,,,,,,,,,,,,,,,,,
,,,,,,,,,,,,,,,90379,001,2022-04-18_17h00.49.803,SPAMnetsValid,2021.1.4,Win32,60.17933442,,,,,,,,,,,,,,,,,,,,,,,,,,,,,,,,,,,,,,4,5.1592,0,2,2,2,1,boggy,afraid,false,marshy,dense,black,3,,,,,,,,,,,,,,,,,,,,,,,,,,,,,,,,,,,,,,
,,,,,,,,,,,,,,,90379,001,2022-04-18_17h00.49.803,SPAMnetsValid,2021.1.4,Win32,60.17933442,,,,,,,,,,,,,,,,,,,,,,,,,,,,,,,,,,,,,,5,4.3911,0,3,3,3,1,gruesomeness,blackness,falseness,vindictiveness,drunkenness,ghastliness,5,,,,,,,,,,,,,,,,,,,,,,,,,,,,,,,,,,,,,,
,,,,,,,,,,,,,,,90379,001,2022-04-18_17h00.49.803,SPAMnetsValid,2021.1.4,Win32,60.17933442,,,,,,,,,,,,,,,,,,,,,,,,,,,,,,,,,,,,,,1,5.7399,0,4,4,4,1,loathing,diffidence,laziness,abhorrence,cleverness,comfort,3,,,,,,,,,,,,,,,,,,,,,,,,,,,,,,,,,,,,,,
,,,,,,,,,,,,,,,90379,001,2022-04-18_17h00.49.803,SPAMnetsValid,2021.1.4,Win32,60.17933442,,,,,,,,,,,,,,,,,,,,,,,,,,,,,,,,,,,,,,1,5.3107,0,5,5,5,1,bantam,fowl,ridicule,cripple,vegetable,ensign,1,,,,,,,,,,,,,,,,,,,,,,,,,,,,,,,,,,,,,,
,,,,,,,,,,,,,,,90379,001,2022-04-18_17h00.49.803,SPAMnetsValid,2021.1.4,Win32,60.17933442,,,,,,,,,,,,,,,,,,,,,,,,,,,,,,,,,,,,,,1,2.5981,0,6,6,6,1,evoke,wake up,surrender,reconnoiter,transcend,call forth,5,,,,,,,,,,,,,,,,,,,,,,,,,,,,,,,,,,,,,,
,,,,,,,,,,,,,,,90379,001,2022-04-18_17h00.49.803,SPAMnetsValid,2021.1.4,Win32,60.17933442,,,,,,,,,,,,,,,,,,,,,,,,,,,,,,,,,,,,,,4,3.4981,0,7,7,7,1,unobtrusive,unintelligent,epileptic,illogical,lineal,modest,5,,,,,,,,,,,,,,,,,,,,,,,,,,,,,,,,,,,,,,
,,,,,,,,,,,,,,,90379,001,2022-04-18_17h00.49.803,SPAMnetsValid,2021.1.4,Win32,60.17933442,,,,,,,,,,,,,,,,,,,,,,,,,,,,,,,,,,,,,,4,2.6921,0,8,8,8,1,terrain,ice cream,final test,tractor,area of ground,weight,4,,,,,,,,,,,,,,,,,,,,,,,,,,,,,,,,,,,,,,
,,,,,,,,,,,,,,,90379,001,2022-04-18_17h00.49.803,SPAMnetsValid,2021.1.4,Win32,60.17933442,,,,,,,,,,,,,,,,,,,,,,,,,,,,,,,,,,,,,,,,0,9,9,9,1,capriciousness,stubbornness,courage,whimsicality,amazement,greediness,3,,,,,,,,,,,,,,,,,,,,,,,,,,,,,,,,,,,,,,
,,,,,,,,,,,,,,,90379,001,2022-04-18_17h00.49.803,SPAMnetsValid,2021.1.4,Win32,60.17933442,,,,,,,,,,,,,,,,,,,,,,,,,,,,,,,,,,,,,,4,4.2329,0,10,10,10,1,maelstrom,slander,whirlpool,enmity,armor,majolica,2,,,,,,,,,,,,,,,,,,,,,,,,,,,,,,,,,,,,,,
,,,,,,,,,,,,,,,90379,001,2022-04-18_17h00.49.803,SPAMnetsValid,2021.1.4,Win32,60.17933442,,,,,,,,,,,,,,,,,,,,,,,,,,,,,,,,,,,,,,5,2.5718,0,11,11,11,1,tentative,critical,conclusive,authentic,provisional,apprehensive,4,,,,,,,,,,,,,,,,,,,,,,,,,,,,,,,,,,,,,,
,,,,,,,,,,,,,,,90379,001,2022-04-18_17h00.49.803,SPAMnetsValid,2021.1.4,Win32,60.17933442,,,,,,,,,,,,,,,,,,,,,,,,,,,,,,,,,,,,,,,,0,12,12,12,1,placate,rehabilitate,plagiarize,depredate,apprise,conciliate,5,,,,,,,,,,,,,,,,,,,,,,,,,,,,,,,,,,,,,,
,,,,,,,,,,,,,,,90379,001,2022-04-18_17h00.49.803,SPAMnetsValid,2021.1.4,Win32,60.17933442,,,,,,,,,,,,,,,,,,,,,,,,,,,,,,,,,,,,,,,,0,13,13,13,1,surcease,enlightenment,cessation,inattention,censor,substitution,2,,,,,,,,,,,,,,,,,,,,,,,,,,,,,,,,,,,,,,
,,,,,,,,,,,,,,,90379,001,2022-04-18_17h00.49.803,SPAMnetsValid,2021.1.4,Win32,60.17933442,,,,,,,,,,,,,,,,,,,,,,,,,,,,,,,,,,,,,,4,8.3549,0,14,14,14,1,apathetic,wandering,impassive,hateful,prophetic,overflowing,2,,,,,,,,,,,,,,,,,,,,,,,,,,,,,,,,,,,,,,
,,,,,,,,,,,,,,,90379,001,2022-04-18_17h00.49.803,SPAMnetsValid,2021.1.4,Win32,60.17933442,,,,,,,,,,,,,,,,,,,,,,,,,,,,,,,,,,,,,,,,0,15,15,15,1,paternoster,paternalism,patricide,malediction,benediction,prayer,5,,,,,,,,,,,,,,,,,,,,,,,,,,,,,,,,,,,,,,
,,,,,,,,,,,,,,,90379,001,2022-04-18_17h00.49.803,SPAMnetsValid,2021.1.4,Win32,60.17933442,,,,,,,,,,,,,,,,,,,,,,,,,,,,,,,,,,,,,,,,0,16,16,16,1,opalescence,opulence,senescence,bankruptcy,iridescence,assiduity,4,,,,,,,,,,,,,,,,,,,,,,,,,,,,,,,,,,,,,,
,,,,,,,,,,,,,,,90379,001,2022-04-18_17h00.49.803,SPAMnetsValid,2021.1.4,Win32,60.17933442,,,,,,,,,,,,,,,,,,,,,,,,,,,,,,,,,,,,,,2,3.5529,0,17,17,17,1,lush,stupid,luxurious,hazy,putrid,languishing,2,,,,,,,,,,,,,,,,,,,,,,,,,,,,,,,,,,,,,,
,,,,,,,,,,,,,,,90379,001,2022-04-18_17h00.49.803,SPAMnetsValid,2021.1.4,Win32,60.17933442,,,,,,,,,,,,,,,,,,,,,,,,,,,,,,,,,,,,,,2,4.0599,0,18,18,18,1,curtailment,expenditure,abandonment,abridgment,improvement,forgery,3,,,,,,,,,,,,,,,,,,,,,,,,,,,,,,,,,,,,,,
,,,,,,,,,,,,,,,90379,001,2022-04-18_17h00.49.803,SPAMnetsValid,2021.1.4,Win32,60.17933442,,,,,,,,,,,,,,,,,,,,,,,,,,,,,,,,,,,,,,5,6.5432,0,19,19,19,1,perversity,adversity,perviousness,travesty,waywardness,gentility,4,,,,,,,,,,,,,,,,,,,,,,,,,,,,,,,,,,,,,,
,,,,,,,,,,,,,,,90379,001,2022-04-18_17h00.49.803,SPAMnetsValid,2021.1.4,Win32,60.17933442,,,,,,,,,,,,,,,,,,,,,,,,,,,,,,,,,,,,,,,,0,20,20,20,1,calumnious,complimentary,analogous,slanderous,tempestuous,magnanimous,3,,,,,,,,,,,,,,,,,,,,,,,,,,,,,,,,,,,,,,
,,,,,,,,,,,,,,,90379,001,2022-04-18_17h00.49.803,SPAMnetsValid,2021.1.4,Win32,60.17933442,,,,,,,,,,,,,,,,,,,,,,,,,,,,,,,,,,,,,,1,4.8267,0,21,21,21,1,illiberality,bigotry,imbecility,illegibility,cautery,immaturity,1,,,,,,,,,,,,,,,,,,,,,,,,,,,,,,,,,,,,,,
,,,,,,,,,,,,,,,90379,001,2022-04-18_17h00.49.803,SPAMnetsValid,2021.1.4,Win32,60.17933442,,,,,,,,,,,,,,,,,,,,,,,,,,,,,,,,,,,,,,2,5.4966,0,22,22,22,1,clabber,rejoice,gossip,curdle,crow,hobble,3,,,,,,,,,,,,,,,,,,,,,,,,,,,,,,,,,,,,,,
,,,,,,,,,,,,,,,90379,001,2022-04-18_17h00.49.803,SPAMnetsValid,2021.1.4,Win32,60.17933442,,,,,,,,,,,,,,,,,,,,,,,,,,,,,,,,,,,,,,1,7.8015,0,23,23,23,1,sedulousness,diligence,credulousness,seduction,perilousness,frankness,1,,,,,,,,,,,,,,,,,,,,,,,,,,,,,,,,,,,,,,
,,,,,,,,,,,,,,,90379,001,2022-04-18_17h00.49.803,SPAMnetsValid,2021.1.4,Win32,60.17933442,,,,,,,,,,,,,,,,,,,,,,,,,,,,,,,,,,,,,,,,,,,,,,,,,,,,scent,candle,0,0,0,0,1,,,,,,,,,,,,,,,,,,,,,,,,,,,,,,,
,,,,,,,,,,,,,,,90379,001,2022-04-18_17h00.49.803,SPAMnetsValid,2021.1.4,Win32,60.17933442,,,,,,,,,,,,,,,,,,,,,,,,,,,,,,,,,,,,,,,,,,,,,,,,,,,,"smell, warmth",candle,1,0,1,0,1,,,,,,,,,,,,,,,,,,,,,,,,,,,,,,,
,,,,,,,,,,,,,,,90379,001,2022-04-18_17h00.49.803,SPAMnetsValid,2021.1.4,Win32,60.17933442,,,,,,,,,,,,,,,,,,,,,,,,,,,,,,,,,,,,,,,,,,,,,,,,,,,,homeliness,candle,2,0,2,0,1,,,,,,,,,,,,,,,,,,,,,,,,,,,,,,,
,,,,,,,,,,,,,,,90379,001,2022-04-18_17h00.49.803,SPAMnetsValid,2021.1.4,Win32,60.17933442,,,,,,,,,,,,,,,,,,,,,,,,,,,,,,,,,,,,,,,,,,,,,,,,,,,,,candle,3,0,3,0,1,,,,,,,,,,,,,,,,,,,,,,,,,,,,,,,
,,,,,,,,,,,,,,,90379,001,2022-04-18_17h00.49.803,SPAMnetsValid,2021.1.4,Win32,60.17933442,,,,,,,,,,,,,,,,,,,,,,,,,,,,,,,,,,,,,,,,,,,,,,,,,,,,,candle,4,0,4,0,1,,,,,,,,,,,,,,,,,,,,,,,,,,,,,,,
,,,,,,,,,,,,,,,90379,001,2022-04-18_17h00.49.803,SPAMnetsValid,2021.1.4,Win32,60.17933442,,,,,,,,,,,,,,,,,,,,,,,,,,,,,,,,,,,,,,,,,,,,,,,,,,,,,candle,5,0,5,0,1,,,,,,,,,,,,,,,,,,,,,,,,,,,,,,,
,,,,,,,,,,,,,,,90379,001,2022-04-18_17h00.49.803,SPAMnetsValid,2021.1.4,Win32,60.17933442,,,,,,,,,,,,,,,,,,,,,,,,,,,,,,,,,,,,,,,,,,,,,,,,,,,,light,candle,6,0,6,0,1,,,,,,,,,,,,,,,,,,,,,,,,,,,,,,,
,,,,,,,,,,,,,,,90379,001,2022-04-18_17h00.49.803,SPAMnetsValid,2021.1.4,Win32,60.17933442,,,,,,,,,,,,,,,,,,,,,,,,,,,,,,,,,,,,,,,,,,,,,,,,,,,,fire,candle,7,0,7,0,1,,,,,,,,,,,,,,,,,,,,,,,,,,,,,,,
,,,,,,,,,,,,,,,90379,001,2022-04-18_17h00.49.803,SPAMnetsValid,2021.1.4,Win32,60.17933442,,,,,,,,,,,,,,,,,,,,,,,,,,,,,,,,,,,,,,,,,,,,,,,,,,,,burning something,candle,8,0,8,0,1,,,,,,,,,,,,,,,,,,,,,,,,,,,,,,,
,,,,,,,,,,,,,,,90379,001,2022-04-18_17h00.49.803,SPAMnetsValid,2021.1.4,Win32,60.17933442,,,,,,,,,,,,,,,,,,,,,,,,,,,,,,,,,,,,,,,,,,,,,,,,,,,,,candle,9,0,9,0,1,,,,,,,,,,,,,,,,,,,,,,,,,,,,,,,
,,,,,,,,,,,,,,,90379,001,2022-04-18_17h00.49.803,SPAMnetsValid,2021.1.4,Win32,60.17933442,,,,,,,,,,,,,,,,,,,,,,,,,,,,,,,,,,,,,,,,,,,,,,,,,,,,,candle,10,0,10,0,1,,,,,,,,,,,,,,,,,,,,,,,,,,,,,,,
,,,,,,,,,,,,,,,90379,001,2022-04-18_17h00.49.803,SPAMnetsValid,2021.1.4,Win32,60.17933442,,,,,,,,,,,,,,,,,,,,,,,,,,,,,,,,,,,,,,,,,,,,,,,,,,,,,candle,11,0,11,0,1,,,,,,,,,,,,,,,,,,,,,,,,,,,,,,,
,,,,,,,,,,,,,,,90379,001,2022-04-18_17h00.49.803,SPAMnetsValid,2021.1.4,Win32,60.17933442,,,,,,,,,,,,,,,,,,,,,,,,,,,,,,,,,,,,,,,,,,,,,,,,,,,,,candle,12,0,12,0,1,,,,,,,,,,,,,,,,,,,,,,,,,,,,,,,
,,,,,,,,,,,,,,,90379,001,2022-04-18_17h00.49.803,SPAMnetsValid,2021.1.4,Win32,60.17933442,,,,,,,,,,,,,,,,,,,,,,,,,,,,,,,,,,,,,,,,,,,,,,,,,,,,,candle,13,0,13,0,1,,,,,,,,,,,,,,,,,,,,,,,,,,,,,,,
,,,,,,,,,,,,,,,90379,001,2022-04-18_17h00.49.803,SPAMnetsValid,2021.1.4,Win32,60.17933442,,,,,,,,,,,,,,,,,,,,,,,,,,,,,,,,,,,,,,,,,,,,,,,,,,,,,candle,14,0,14,0,1,,,,,,,,,,,,,,,,,,,,,,,,,,,,,,,
,,,,,,,,,,,,,,,90379,001,2022-04-18_17h00.49.803,SPAMnetsValid,2021.1.4,Win32,60.17933442,,,,,,,,,,,,,,,,,,,,,,,,,,,,,,,,,,,,,,,,,,,,,,,,,,,,,,,,,,,0,0,0,1,1,candle,,,,,,,,,,,,,,,,,,,,,,,,,
,,,,,,,,,,,,,,,90379,001,2022-04-18_17h00.49.803,SPAMnetsValid,2021.1.4,Win32,60.17933442,,,,,,,,,,,,,,,,,,,,,,,,,,,,,,,,,,,,,,,,,,,,,,,,,,,,sleep,pillow,0,0,0,0,1,,,,,,,,,,,,,,,,,,,,,,,,,,,,,,,
,,,,,,,,,,,,,,,90379,001,2022-04-18_17h00.49.803,SPAMnetsValid,2021.1.4,Win32,60.17933442,,,,,,,,,,,,,,,,,,,,,,,,,,,,,,,,,,,,,,,,,,,,,,,,,,,,comfort,pillow,1,0,1,0,1,,,,,,,,,,,,,,,,,,,,,,,,,,,,,,,
,,,,,,,,,,,,,,,90379,001,2022-04-18_17h00.49.803,SPAMnetsValid,2021.1.4,Win32,60.17933442,,,,,,,,,,,,,,,,,,,,,,,,,,,,,,,,,,,,,,,,,,,,,,,,,,,,pillow fight,pillow,2,0,2,0,1,,,,,,,,,,,,,,,,,,,,,,,,,,,,,,,
,,,,,,,,,,,,,,,90379,001,2022-04-18_17h00.49.803,SPAMnetsValid,2021.1.4,Win32,60.17933442,,,,,,,,,,,,,,,,,,,,,,,,,,,,,,,,,,,,,,,,,,,,,,,,,,,,suffocation,pillow,3,0,3,0,1,,,,,,,,,,,,,,,,,,,,,,,,,,,,,,,
,,,,,,,,,,,,,,,90379,001,2022-04-18_17h00.49.803,SPAMnetsValid,2021.1.4,Win32,60.17933442,,,,,,,,,,,,,,,,,,,,,,,,,,,,,,,,,,,,,,,,,,,,,,,,,,,,support,pillow,4,0,4,0,1,,,,,,,,,,,,,,,,,,,,,,,,,,,,,,,
,,,,,,,,,,,,,,,90379,001,2022-04-18_17h00.49.803,SPAMnetsValid,2021.1.4,Win32,60.17933442,,,,,,,,,,,,,,,,,,,,,,,,,,,,,,,,,,,,,,,,,,,,,,,,,,,,sleeping,pillow,5,0,5,0,1,,,,,,,,,,,,,,,,,,,,,,,,,,,,,,,
,,,,,,,,,,,,,,,90379,001,2022-04-18_17h00.49.803,SPAMnetsValid,2021.1.4,Win32,60.17933442,,,,,,,,,,,,,,,,,,,,,,,,,,,,,,,,,,,,,,,,,,,,,,,,,,,,dreaming,pillow,6,0,6,0,1,,,,,,,,,,,,,,,,,,,,,,,,,,,,,,,
,,,,,,,,,,,,,,,90379,001,2022-04-18_17h00.49.803,SPAMnetsValid,2021.1.4,Win32,60.17933442,,,,,,,,,,,,,,,,,,,,,,,,,,,,,,,,,,,,,,,,,,,,,,,,,,,,comfort,pillow,7,0,7,0,1,,,,,,,,,,,,,,,,,,,,,,,,,,,,,,,
,,,,,,,,,,,,,,,90379,001,2022-04-18_17h00.49.803,SPAMnetsValid,2021.1.4,Win32,60.17933442,,,,,,,,,,,,,,,,,,,,,,,,,,,,,,,,,,,,,,,,,,,,,,,,,,,,,pillow,8,0,8,0,1,,,,,,,,,,,,,,,,,,,,,,,,,,,,,,,
,,,,,,,,,,,,,,,90379,001,2022-04-18_17h00.49.803,SPAMnetsValid,2021.1.4,Win32,60.17933442,,,,,,,,,,,,,,,,,,,,,,,,,,,,,,,,,,,,,,,,,,,,,,,,,,,,,pillow,9,0,9,0,1,,,,,,,,,,,,,,,,,,,,,,,,,,,,,,,
,,,,,,,,,,,,,,,90379,001,2022-04-18_17h00.49.803,SPAMnetsValid,2021.1.4,Win32,60.17933442,,,,,,,,,,,,,,,,,,,,,,,,,,,,,,,,,,,,,,,,,,,,,,,,,,,,,pillow,10,0,10,0,1,,,,,,,,,,,,,,,,,,,,,,,,,,,,,,,
,,,,,,,,,,,,,,,90379,001,2022-04-18_17h00.49.803,SPAMnetsValid,2021.1.4,Win32,60.17933442,,,,,,,,,,,,,,,,,,,,,,,,,,,,,,,,,,,,,,,,,,,,,,,,,,,,,pillow,11,0,11,0,1,,,,,,,,,,,,,,,,,,,,,,,,,,,,,,,
,,,,,,,,,,,,,,,90379,001,2022-04-18_17h00.49.803,SPAMnetsValid,2021.1.4,Win32,60.17933442,,,,,,,,,,,,,,,,,,,,,,,,,,,,,,,,,,,,,,,,,,,,,,,,,,,,,pillow,12,0,12,0,1,,,,,,,,,,,,,,,,,,,,,,,,,,,,,,,
,,,,,,,,,,,,,,,90379,001,2022-04-18_17h00.49.803,SPAMnetsValid,2021.1.4,Win32,60.17933442,,,,,,,,,,,,,,,,,,,,,,,,,,,,,,,,,,,,,,,,,,,,,,,,,,,,,pillow,13,0,13,0,1,,,,,,,,,,,,,,,,,,,,,,,,,,,,,,,
,,,,,,,,,,,,,,,90379,001,2022-04-18_17h00.49.803,SPAMnetsValid,2021.1.4,Win32,60.17933442,,,,,,,,,,,,,,,,,,,,,,,,,,,,,,,,,,,,,,,,,,,,,,,,,,,,,pillow,14,0,14,0,1,,,,,,,,,,,,,,,,,,,,,,,,,,,,,,,
,,,,,,,,,,,,,,,90379,001,2022-04-18_17h00.49.803,SPAMnetsValid,2021.1.4,Win32,60.17933442,,,,,,,,,,,,,,,,,,,,,,,,,,,,,,,,,,,,,,,,,,,,,,,,,,,,,pillow,15,0,15,0,1,,,,,,,,,,,,,,,,,,,,,,,,,,,,,,,
,,,,,,,,,,,,,,,90379,001,2022-04-18_17h00.49.803,SPAMnetsValid,2021.1.4,Win32,60.17933442,,,,,,,,,,,,,,,,,,,,,,,,,,,,,,,,,,,,,,,,,,,,,,,,,,,,,pillow,16,0,16,0,1,,,,,,,,,,,,,,,,,,,,,,,,,,,,,,,
,,,,,,,,,,,,,,,90379,001,2022-04-18_17h00.49.803,SPAMnetsValid,2021.1.4,Win32,60.17933442,,,,,,,,,,,,,,,,,,,,,,,,,,,,,,,,,,,,,,,,,,,,,,,,,,,,,pillow,17,0,17,0,1,,,,,,,,,,,,,,,,,,,,,,,,,,,,,,,
,,,,,,,,,,,,,,,90379,001,2022-04-18_17h00.49.803,SPAMnetsValid,2021.1.4,Win32,60.17933442,,,,,,,,,,,,,,,,,,,,,,,,,,,,,,,,,,,,,,,,,,,,,,,,,,,, ,pillow,18,0,18,0,1,,,,,,,,,,,,,,,,,,,,,,,,,,,,,,,
,,,,,,,,,,,,,,,90379,001,2022-04-18_17h00.49.803,SPAMnetsValid,2021.1.4,Win32,60.17933442,,,,,,,,,,,,,,,,,,,,,,,,,,,,,,,,,,,,,,,,,,,,,,,,,,,,,pillow,19,0,19,0,1,,,,,,,,,,,,,,,,,,,,,,,,,,,,,,,
,,,,,,,,,,,,,,,90379,001,2022-04-18_17h00.49.803,SPAMnetsValid,2021.1.4,Win32,60.17933442,,,,,,,,,,,,,,,,,,,,,,,,,,,,,,,,,,,,,,,,,,,,,,,,,,,,,pillow,20,0,20,0,1,,,,,,,,,,,,,,,,,,,,,,,,,,,,,,,
,,,,,,,,,,,,,,,90379,001,2022-04-18_17h00.49.803,SPAMnetsValid,2021.1.4,Win32,60.17933442,,,,,,,,,,,,,,,,,,,,,,,,,,,,,,,,,,,,,,,,,,,,,,,,,,,,,pillow,21,0,21,0,1,,,,,,,,,,,,,,,,,,,,,,,,,,,,,,,
,,,,,,,,,,,,,,,90379,001,2022-04-18_17h00.49.803,SPAMnetsValid,2021.1.4,Win32,60.17933442,,,,,,,,,,,,,,,,,,,,,,,,,,,,,,,,,,,,,,,,,,,,,,,,,,,,,pillow,22,0,22,0,1,,,,,,,,,,,,,,,,,,,,,,,,,,,,,,,
,,,,,,,,,,,,,,,90379,001,2022-04-18_17h00.49.803,SPAMnetsValid,2021.1.4,Win32,60.17933442,,,,,,,,,,,,,,,,,,,,,,,,,,,,,,,,,,,,,,,,,,,,,,,,,,,,,pillow,23,0,23,0,1,,,,,,,,,,,,,,,,,,,,,,,,,,,,,,,
,,,,,,,,,,,,,,,90379,001,2022-04-18_17h00.49.803,SPAMnetsValid,2021.1.4,Win32,60.17933442,,,,,,,,,,,,,,,,,,,,,,,,,,,,,,,,,,,,,,,,,,,,,,,,,,,,,pillow,24,0,24,0,1,,,,,,,,,,,,,,,,,,,,,,,,,,,,,,,
,,,,,,,,,,,,,,,90379,001,2022-04-18_17h00.49.803,SPAMnetsValid,2021.1.4,Win32,60.17933442,,,,,,,,,,,,,,,,,,,,,,,,,,,,,,,,,,,,,,,,,,,,,,,,,,,,,pillow,25,0,25,0,1,,,,,,,,,,,,,,,,,,,,,,,,,,,,,,,
,,,,,,,,,,,,,,,90379,001,2022-04-18_17h00.49.803,SPAMnetsValid,2021.1.4,Win32,60.17933442,,,,,,,,,,,,,,,,,,,,,,,,,,,,,,,,,,,,,,,,,,,,,,,,,,,,,pillow,26,0,26,0,1,,,,,,,,,,,,,,,,,,,,,,,,,,,,,,,
,,,,,,,,,,,,,,,90379,001,2022-04-18_17h00.49.803,SPAMnetsValid,2021.1.4,Win32,60.17933442,,,,,,,,,,,,,,,,,,,,,,,,,,,,,,,,,,,,,,,,,,,,,,,,,,,,,pillow,27,0,27,0,1,,,,,,,,,,,,,,,,,,,,,,,,,,,,,,,
,,,,,,,,,,,,,,,90379,001,2022-04-18_17h00.49.803,SPAMnetsValid,2021.1.4,Win32,60.17933442,,,,,,,,,,,,,,,,,,,,,,,,,,,,,,,,,,,,,,,,,,,,,,,,,,,,,pillow,28,0,28,0,1,,,,,,,,,,,,,,,,,,,,,,,,,,,,,,,
,,,,,,,,,,,,,,,90379,001,2022-04-18_17h00.49.803,SPAMnetsValid,2021.1.4,Win32,60.17933442,,,,,,,,,,,,,,,,,,,,,,,,,,,,,,,,,,,,,,,,,,,,,,,,,,,,,pillow,29,0,29,0,1,,,,,,,,,,,,,,,,,,,,,,,,,,,,,,,
,,,,,,,,,,,,,,,90379,001,2022-04-18_17h00.49.803,SPAMnetsValid,2021.1.4,Win32,60.17933442,,,,,,,,,,,,,,,,,,,,,,,,,,,,,,,,,,,,,,,,,,,,,,,,,,,,,pillow,30,0,30,0,1,,,,,,,,,,,,,,,,,,,,,,,,,,,,,,,
,,,,,,,,,,,,,,,90379,001,2022-04-18_17h00.49.803,SPAMnetsValid,2021.1.4,Win32,60.17933442,,,,,,,,,,,,,,,,,,,,,,,,,,,,,,,,,,,,,,,,,,,,,,,,,,,,,pillow,31,0,31,0,1,,,,,,,,,,,,,,,,,,,,,,,,,,,,,,,
,,,,,,,,,,,,,,,90379,001,2022-04-18_17h00.49.803,SPAMnetsValid,2021.1.4,Win32,60.17933442,,,,,,,,,,,,,,,,,,,,,,,,,,,,,,,,,,,,,,,,,,,,,,,,,,,,,pillow,32,0,32,0,1,,,,,,,,,,,,,,,,,,,,,,,,,,,,,,,
,,,,,,,,,,,,,,,90379,001,2022-04-18_17h00.49.803,SPAMnetsValid,2021.1.4,Win32,60.17933442,,,,,,,,,,,,,,,,,,,,,,,,,,,,,,,,,,,,,,,,,,,,,,,,,,,,,pillow,33,0,33,0,1,,,,,,,,,,,,,,,,,,,,,,,,,,,,,,,
,,,,,,,,,,,,,,,90379,001,2022-04-18_17h00.49.803,SPAMnetsValid,2021.1.4,Win32,60.17933442,,,,,,,,,,,,,,,,,,,,,,,,,,,,,,,,,,,,,,,,,,,,,,,,,,,,,,,,,,,0,1,1,2,1,pillow,,,,,,,,,,,,,,,,,,,,,,,,,
,,,,,,,,,,,,,,,90379,001,2022-04-18_17h00.49.803,SPAMnetsValid,2021.1.4,Win32,60.17933442,,,,,,,,,,,,,,,,,,,,,,,,,,,,,,,,,,,,,,,,,,,,,,,,,,,,water,bucket,0,0,0,0,1,,,,,,,,,,,,,,,,,,,,,,,,,,,,,,,
,,,,,,,,,,,,,,,90379,001,2022-04-18_17h00.49.803,SPAMnetsValid,2021.1.4,Win32,60.17933442,,,,,,,,,,,,,,,,,,,,,,,,,,,,,,,,,,,,,,,,,,,,,,,,,,,,any liquid,bucket,1,0,1,0,1,,,,,,,,,,,,,,,,,,,,,,,,,,,,,,,
,,,,,,,,,,,,,,,90379,001,2022-04-18_17h00.49.803,SPAMnetsValid,2021.1.4,Win32,60.17933442,,,,,,,,,,,,,,,,,,,,,,,,,,,,,,,,,,,,,,,,,,,,,,,,,,,,sand castle,bucket,2,0,2,0,1,,,,,,,,,,,,,,,,,,,,,,,,,,,,,,,
,,,,,,,,,,,,,,,90379,001,2022-04-18_17h00.49.803,SPAMnetsValid,2021.1.4,Win32,60.17933442,,,,,,,,,,,,,,,,,,,,,,,,,,,,,,,,,,,,,,,,,,,,,,,,,,,,mixing,bucket,3,0,3,0,1,,,,,,,,,,,,,,,,,,,,,,,,,,,,,,,
,,,,,,,,,,,,,,,90379,001,2022-04-18_17h00.49.803,SPAMnetsValid,2021.1.4,Win32,60.17933442,,,,,,,,,,,,,,,,,,,,,,,,,,,,,,,,,,,,,,,,,,,,,,,,,,,,pneumatics,bucket,4,0,4,0,1,,,,,,,,,,,,,,,,,,,,,,,,,,,,,,,
,,,,,,,,,,,,,,,90379,001,2022-04-18_17h00.49.803,SPAMnetsValid,2021.1.4,Win32,60.17933442,,,,,,,,,,,,,,,,,,,,,,,,,,,,,,,,,,,,,,,,,,,,,,,,,,,,not pneumatics i take it back,bucket,5,0,5,0,1,,,,,,,,,,,,,,,,,,,,,,,,,,,,,,,
,,,,,,,,,,,,,,,90379,001,2022-04-18_17h00.49.803,SPAMnetsValid,2021.1.4,Win32,60.17933442,,,,,,,,,,,,,,,,,,,,,,,,,,,,,,,,,,,,,,,,,,,,,,,,,,,,sand castle,bucket,6,0,6,0,1,,,,,,,,,,,,,,,,,,,,,,,,,,,,,,,
,,,,,,,,,,,,,,,90379,001,2022-04-18_17h00.49.803,SPAMnetsValid,2021.1.4,Win32,60.17933442,,,,,,,,,,,,,,,,,,,,,,,,,,,,,,,,,,,,,,,,,,,,,,,,,,,,bucket hat,bucket,7,0,7,0,1,,,,,,,,,,,,,,,,,,,,,,,,,,,,,,,
,,,,,,,,,,,,,,,90379,001,2022-04-18_17h00.49.803,SPAMnetsValid,2021.1.4,Win32,60.17933442,,,,,,,,,,,,,,,,,,,,,,,,,,,,,,,,,,,,,,,,,,,,,,,,,,,,collecting things,bucket,8,0,8,0,1,,,,,,,,,,,,,,,,,,,,,,,,,,,,,,,
,,,,,,,,,,,,,,,90379,001,2022-04-18_17h00.49.803,SPAMnetsValid,2021.1.4,Win32,60.17933442,,,,,,,,,,,,,,,,,,,,,,,,,,,,,,,,,,,,,,,,,,,,,,,,,,,,garbage disposal,bucket,9,0,9,0,1,,,,,,,,,,,,,,,,,,,,,,,,,,,,,,,
,,,,,,,,,,,,,,,90379,001,2022-04-18_17h00.49.803,SPAMnetsValid,2021.1.4,Win32,60.17933442,,,,,,,,,,,,,,,,,,,,,,,,,,,,,,,,,,,,,,,,,,,,,,,,,,,,picking up money in the hurricane simulators so you can get as much as possible,bucket,10,0,10,0,1,,,,,,,,,,,,,,,,,,,,,,,,,,,,,,,
,,,,,,,,,,,,,,,90379,001,2022-04-18_17h00.49.803,SPAMnetsValid,2021.1.4,Win32,60.17933442,,,,,,,,,,,,,,,,,,,,,,,,,,,,,,,,,,,,,,,,,,,,,,,,,,,,,,,,,,,0,2,2,0,1,bucket,,,,,,,,,,,,,,,,,,,,,,,,,
,,,,,,,,,,,,,,,90379,001,2022-04-18_17h00.49.803,SPAMnetsValid,2021.1.4,Win32,60.17933442,,,,,,,,,,,,,,,,,,,,,,,,,,,,,,,,,,,,,,,,,,,,,,,,,,,,,,,,,,,,,,,,,nt,Animals,0,0,0,0,1,,,,,,,,,,,,,,,,,,
,,,,,,,,,,,,,,,90379,001,2022-04-18_17h00.49.803,SPAMnetsValid,2021.1.4,Win32,60.17933442,,,,,,,,,,,,,,,,,,,,,,,,,,,,,,,,,,,,,,,,,,,,,,,,,,,,,,,,,,,,,,,,,ant,Animals,1,0,1,0,1,,,,,,,,,,,,,,,,,,
,,,,,,,,,,,,,,,90379,001,2022-04-18_17h00.49.803,SPAMnetsValid,2021.1.4,Win32,60.17933442,,,,,,,,,,,,,,,,,,,,,,,,,,,,,,,,,,,,,,,,,,,,,,,,,,,,,,,,,,,,,,,,,rhino,Animals,2,0,2,0,1,,,,,,,,,,,,,,,,,,
,,,,,,,,,,,,,,,90379,001,2022-04-18_17h00.49.803,SPAMnetsValid,2021.1.4,Win32,60.17933442,,,,,,,,,,,,,,,,,,,,,,,,,,,,,,,,,,,,,,,,,,,,,,,,,,,,,,,,,,,,,,,,,hippo,Animals,3,0,3,0,1,,,,,,,,,,,,,,,,,,
,,,,,,,,,,,,,,,90379,001,2022-04-18_17h00.49.803,SPAMnetsValid,2021.1.4,Win32,60.17933442,,,,,,,,,,,,,,,,,,,,,,,,,,,,,,,,,,,,,,,,,,,,,,,,,,,,,,,,,,,,,,,,,slug,Animals,4,0,4,0,1,,,,,,,,,,,,,,,,,,
,,,,,,,,,,,,,,,90379,001,2022-04-18_17h00.49.803,SPAMnetsValid,2021.1.4,Win32,60.17933442,,,,,,,,,,,,,,,,,,,,,,,,,,,,,,,,,,,,,,,,,,,,,,,,,,,,,,,,,,,,,,,,,snail,Animals,5,0,5,0,1,,,,,,,,,,,,,,,,,,
,,,,,,,,,,,,,,,90379,001,2022-04-18_17h00.49.803,SPAMnetsValid,2021.1.4,Win32,60.17933442,,,,,,,,,,,,,,,,,,,,,,,,,,,,,,,,,,,,,,,,,,,,,,,,,,,,,,,,,,,,,,,,,zebra,Animals,6,0,6,0,1,,,,,,,,,,,,,,,,,,
,,,,,,,,,,,,,,,90379,001,2022-04-18_17h00.49.803,SPAMnetsValid,2021.1.4,Win32,60.17933442,,,,,,,,,,,,,,,,,,,,,,,,,,,,,,,,,,,,,,,,,,,,,,,,,,,,,,,,,,,,,,,,,armadillo,Animals,7,0,7,0,1,,,,,,,,,,,,,,,,,,
,,,,,,,,,,,,,,,90379,001,2022-04-18_17h00.49.803,SPAMnetsValid,2021.1.4,Win32,60.17933442,,,,,,,,,,,,,,,,,,,,,,,,,,,,,,,,,,,,,,,,,,,,,,,,,,,,,,,,,,,,,,,,,dog ,Animals,8,0,8,0,1,,,,,,,,,,,,,,,,,,
,,,,,,,,,,,,,,,90379,001,2022-04-18_17h00.49.803,SPAMnetsValid,2021.1.4,Win32,60.17933442,,,,,,,,,,,,,,,,,,,,,,,,,,,,,,,,,,,,,,,,,,,,,,,,,,,,,,,,,,,,,,,,,cat,Animals,9,0,9,0,1,,,,,,,,,,,,,,,,,,
,,,,,,,,,,,,,,,90379,001,2022-04-18_17h00.49.803,SPAMnetsValid,2021.1.4,Win32,60.17933442,,,,,,,,,,,,,,,,,,,,,,,,,,,,,,,,,,,,,,,,,,,,,,,,,,,,,,,,,,,,,,,,,fish,Animals,10,0,10,0,1,,,,,,,,,,,,,,,,,,
,,,,,,,,,,,,,,,90379,001,2022-04-18_17h00.49.803,SPAMnetsValid,2021.1.4,Win32,60.17933442,,,,,,,,,,,,,,,,,,,,,,,,,,,,,,,,,,,,,,,,,,,,,,,,,,,,,,,,,,,,,,,,,lizard,Animals,11,0,11,0,1,,,,,,,,,,,,,,,,,,
,,,,,,,,,,,,,,,90379,001,2022-04-18_17h00.49.803,SPAMnetsValid,2021.1.4,Win32,60.17933442,,,,,,,,,,,,,,,,,,,,,,,,,,,,,,,,,,,,,,,,,,,,,,,,,,,,,,,,,,,,,,,,,gecko,Animals,12,0,12,0,1,,,,,,,,,,,,,,,,,,
,,,,,,,,,,,,,,,90379,001,2022-04-18_17h00.49.803,SPAMnetsValid,2021.1.4,Win32,60.17933442,,,,,,,,,,,,,,,,,,,,,,,,,,,,,,,,,,,,,,,,,,,,,,,,,,,,,,,,,,,,,,,,,human,Animals,13,0,13,0,1,,,,,,,,,,,,,,,,,,
,,,,,,,,,,,,,,,90379,001,2022-04-18_17h00.49.803,SPAMnetsValid,2021.1.4,Win32,60.17933442,,,,,,,,,,,,,,,,,,,,,,,,,,,,,,,,,,,,,,,,,,,,,,,,,,,,,,,,,,,,,,,,,caterpillar,Animals,14,0,14,0,1,,,,,,,,,,,,,,,,,,
,,,,,,,,,,,,,,,90379,001,2022-04-18_17h00.49.803,SPAMnetsValid,2021.1.4,Win32,60.17933442,,,,,,,,,,,,,,,,,,,,,,,,,,,,,,,,,,,,,,,,,,,,,,,,,,,,,,,,,,,,,,,,,shark,Animals,15,0,15,0,1,,,,,,,,,,,,,,,,,,
,,,,,,,,,,,,,,,90379,001,2022-04-18_17h00.49.803,SPAMnetsValid,2021.1.4,Win32,60.17933442,,,,,,,,,,,,,,,,,,,,,,,,,,,,,,,,,,,,,,,,,,,,,,,,,,,,,,,,,,,,,,,,,whale,Animals,16,0,16,0,1,,,,,,,,,,,,,,,,,,
,,,,,,,,,,,,,,,90379,001,2022-04-18_17h00.49.803,SPAMnetsValid,2021.1.4,Win32,60.17933442,,,,,,,,,,,,,,,,,,,,,,,,,,,,,,,,,,,,,,,,,,,,,,,,,,,,,,,,,,,,,,,,,sea lion,Animals,17,0,17,0,1,,,,,,,,,,,,,,,,,,
,,,,,,,,,,,,,,,90379,001,2022-04-18_17h00.49.803,SPAMnetsValid,2021.1.4,Win32,60.17933442,,,,,,,,,,,,,,,,,,,,,,,,,,,,,,,,,,,,,,,,,,,,,,,,,,,,,,,,,,,,,,,,,lion,Animals,18,0,18,0,1,,,,,,,,,,,,,,,,,,
,,,,,,,,,,,,,,,90379,001,2022-04-18_17h00.49.803,SPAMnetsValid,2021.1.4,Win32,60.17933442,,,,,,,,,,,,,,,,,,,,,,,,,,,,,,,,,,,,,,,,,,,,,,,,,,,,,,,,,,,,,,,,,cow,Animals,19,0,19,0,1,,,,,,,,,,,,,,,,,,
,,,,,,,,,,,,,,,90379,001,2022-04-18_17h00.49.803,SPAMnetsValid,2021.1.4,Win32,60.17933442,,,,,,,,,,,,,,,,,,,,,,,,,,,,,,,,,,,,,,,,,,,,,,,,,,,,,,,,,,,,,,,,,pig,Animals,20,0,20,0,1,,,,,,,,,,,,,,,,,,
,,,,,,,,,,,,,,,90379,001,2022-04-18_17h00.49.803,SPAMnetsValid,2021.1.4,Win32,60.17933442,,,,,,,,,,,,,,,,,,,,,,,,,,,,,,,,,,,,,,,,,,,,,,,,,,,,,,,,,,,,,,,,,wolf,Animals,21,0,21,0,1,,,,,,,,,,,,,,,,,,
,,,,,,,,,,,,,,,90379,001,2022-04-18_17h00.49.803,SPAMnetsValid,2021.1.4,Win32,60.17933442,,,,,,,,,,,,,,,,,,,,,,,,,,,,,,,,,,,,,,,,,,,,,,,,,,,,,,,,,,,,,,,,,chicken,Animals,22,0,22,0,1,,,,,,,,,,,,,,,,,,
,,,,,,,,,,,,,,,90379,001,2022-04-18_17h00.49.803,SPAMnetsValid,2021.1.4,Win32,60.17933442,,,,,,,,,,,,,,,,,,,,,,,,,,,,,,,,,,,,,,,,,,,,,,,,,,,,,,,,,,,,,,,,,snake,Animals,23,0,23,0,1,,,,,,,,,,,,,,,,,,
,,,,,,,,,,,,,,,90379,001,2022-04-18_17h00.49.803,SPAMnetsValid,2021.1.4,Win32,60.17933442,,,,,,,,,,,,,,,,,,,,,,,,,,,,,,,,,,,,,,,,,,,,,,,,,,,,,,,,,,,,,,,,,beetle,Animals,24,0,24,0,1,,,,,,,,,,,,,,,,,,
,,,,,,,,,,,,,,,90379,001,2022-04-18_17h00.49.803,SPAMnetsValid,2021.1.4,Win32,60.17933442,,,,,,,,,,,,,,,,,,,,,,,,,,,,,,,,,,,,,,,,,,,,,,,,,,,,,,,,,,,,,,,,,,,,,,,,0,0,0,0,1,Animals,,,,,,,,,,,,
,,,,,,,,,,,,,,,90379,001,2022-04-18_17h00.49.803,SPAMnetsValid,2021.1.4,Win32,60.17933442,,,,,,,,,,,,,,,,,,,,,,,,,,,,,,,,,,,,,,,,,,,,,,,,,,,,,,,,,,,,,,,,,,,,,,,,,,,,,,4,4.4084,0,0,0,0,1,"I enjoy concentrating on a fantasy or daydream and exploring all its possibilities, letting it grow and develop.",0,1,,
,,,,,,,,,,,,,,,90379,001,2022-04-18_17h00.49.803,SPAMnetsValid,2021.1.4,Win32,60.17933442,,,,,,,,,,,,,,,,,,,,,,,,,,,,,,,,,,,,,,,,,,,,,,,,,,,,,,,,,,,,,,,,,,,,,,,,,,,,,,4,2.7509,0,1,1,1,1,I think it's interesting to learn and develop new hobbies.,0,2,,
,,,,,,,,,,,,,,,90379,001,2022-04-18_17h00.49.803,SPAMnetsValid,2021.1.4,Win32,60.17933442,,,,,,,,,,,,,,,,,,,,,,,,,,,,,,,,,,,,,,,,,,,,,,,,,,,,,,,,,,,,,,,,,,,,,,,,,,,,,,4,2.2995,0,2,2,2,1,I am intrigued by the patterns I find in art and nature.,0,3,,
,,,,,,,,,,,,,,,90379,001,2022-04-18_17h00.49.803,SPAMnetsValid,2021.1.4,Win32,60.17933442,,,,,,,,,,,,,,,,,,,,,,,,,,,,,,,,,,,,,,,,,,,,,,,,,,,,,,,,,,,,,,,,,,,,,,,,,,,,,,2,4.9759,0,3,3,3,1,I believe letting students hear controversial speakers can only confuse and mislead them.,1,4,,
,,,,,,,,,,,,,,,90379,001,2022-04-18_17h00.49.803,SPAMnetsValid,2021.1.4,Win32,60.17933442,,,,,,,,,,,,,,,,,,,,,,,,,,,,,,,,,,,,,,,,,,,,,,,,,,,,,,,,,,,,,,,,,,,,,,,,,,,,,,3,3.1103,0,4,4,4,1,Poetry has little or no effect on me.,1,5,,
,,,,,,,,,,,,,,,90379,001,2022-04-18_17h00.49.803,SPAMnetsValid,2021.1.4,Win32,60.17933442,,,,,,,,,,,,,,,,,,,,,,,,,,,,,,,,,,,,,,,,,,,,,,,,,,,,,,,,,,,,,,,,,,,,,,,,,,,,,,1,6.165,0,5,5,5,1,I would have difficulty just letting my mind wander without control or guidance.,1,6,,
,,,,,,,,,,,,,,,90379,001,2022-04-18_17h00.49.803,SPAMnetsValid,2021.1.4,Win32,60.17933442,,,,,,,,,,,,,,,,,,,,,,,,,,,,,,,,,,,,,,,,,,,,,,,,,,,,,,,,,,,,,,,,,,,,,,,,,,,,,,4,4.3008,0,6,6,6,1,I seldom notice the moods or feelings that different environments produce.,1,7,,
,,,,,,,,,,,,,,,90379,001,2022-04-18_17h00.49.803,SPAMnetsValid,2021.1.4,Win32,60.17933442,,,,,,,,,,,,,,,,,,,,,,,,,,,,,,,,,,,,,,,,,,,,,,,,,,,,,,,,,,,,,,,,,,,,,,,,,,,,,,5,2.4211,0,7,7,7,1,I experience a wide range of emotions or feelings.,0,8,,
,,,,,,,,,,,,,,,90379,001,2022-04-18_17h00.49.803,SPAMnetsValid,2021.1.4,Win32,60.17933442,,,,,,,,,,,,,,,,,,,,,,,,,,,,,,,,,,,,,,,,,,,,,,,,,,,,,,,,,,,,,,,,,,,,,,,,,,,,,,1,3.3062,0,8,8,8,1,"Sometimes when I am reading poetry or looking at a work of art, I feel a chill or wave of excitement.",0,9,,
,,,,,,,,,,,,,,,90379,001,2022-04-18_17h00.49.803,SPAMnetsValid,2021.1.4,Win32,60.17933442,,,,,,,,,,,,,,,,,,,,,,,,,,,,,,,,,,,,,,,,,,,,,,,,,,,,,,,,,,,,,,,,,,,,,,,,,,,,,,5,2.894,0,9,9,9,1,I have little interest in speculating on the nature of the universe or the human condition.,1,10,,
,,,,,,,,,,,,,,,90379,001,2022-04-18_17h00.49.803,SPAMnetsValid,2021.1.4,Win32,60.17933442,,,,,,,,,,,,,,,,,,,,,,,,,,,,,,,,,,,,,,,,,,,,,,,,,,,,,,,,,,,,,,,,,,,,,,,,,,,,,,5,2.1065,0,10,10,10,1,I have a lot of intellectual curiosity.,0,11,,
,,,,,,,,,,,,,,,90379,001,2022-04-18_17h00.49.803,SPAMnetsValid,2021.1.4,Win32,60.17933442,,,,,,,,,,,,,,,,,,,,,,,,,,,,,,,,,,,,,,,,,,,,,,,,,,,,,,,,,,,,,,,,,,,,,,,,,,,,,,4,3.7427,0,11,11,11,1,I often enjoy playing with theories or abstract ideas.,0,12,,
,,,,,,,,,,,,,,,90379,001,2022-04-18_17h00.49.803,SPAMnetsValid,2021.1.4,Win32,60.17933442,,,,,,,,,,,,,,,,,,,,,,,,,,,,,,,,,,,,,,,,,,,,,,,,,,,,,,,,,,,,,,,,,,,,,,,,,,,,,,,,,,,,,,,,return,7.9501
