key_resp_3.keys,key_resp_3.rt,slider.response,slider.rt,rjt_rating,rjt_RT,trials_22.thisRepN,trials_22.thisTrialN,trials_22.thisN,trials_22.thisIndex,trials_22.ran,rjt_order,word1,word2,attention,participant,session,date,expName,psychopyVersion,OS,frameRate,trials_99.thisRepN,trials_99.thisTrialN,trials_99.thisN,trials_99.thisIndex,trials_99.ran,trials_5.thisRepN,trials_5.thisTrialN,trials_5.thisN,trials_5.thisIndex,trials_5.ran,repOne,repTwo,slider_2.response,slider_2.rt,trials_24.thisRepN,trials_24.thisTrialN,trials_24.thisN,trials_24.thisIndex,trials_24.ran,trials_4.thisRepN,trials_4.thisTrialN,trials_4.thisN,trials_4.thisIndex,trials_4.ran,slider_extend_2.response,slider_extend_2.rt,trials_6.thisRepN,trials_6.thisTrialN,trials_6.thisN,trials_6.thisIndex,trials_6.ran,vCue2,R1,R2,R3,R4,correct,sliderVocab.response,sliderVocab.rt,trials_7.thisRepN,trials_7.thisTrialN,trials_7.thisN,trials_7.thisIndex,trials_7.ran,VocabCue,VR1,VR2,VR3,VR4,VR5,VocabCorrect,AUT_resp,AUT_label,trials.thisRepN,trials.thisTrialN,trials.thisN,trials.thisIndex,trials.ran,trials_2.thisRepN,trials_2.thisTrialN,trials_2.thisN,trials_2.thisIndex,trials_2.ran,aut_prompt,VF_response,VF_tag,trials_16.thisRepN,trials_16.thisTrialN,trials_16.thisN,trials_16.thisIndex,trials_16.ran,trials_17.thisRepN,trials_17.thisTrialN,trials_17.thisN,trials_17.thisIndex,trials_17.ran,VFcond,open_slider.response,open_slider.rt,trials_3.thisRepN,trials_3.thisTrialN,trials_3.thisN,trials_3.thisIndex,trials_3.ran,OpenQ,Rev,OPEN_ORDER,key_resp_2.keys,key_resp_2.rt
return,66.0788,5,40.6391,5,40.6391,0,0,0,88,1,92,broom,flower,,90383,001,2022-04-29_15h24.38.127,SPAMnetsValid,2021.1.4,MacIntel,120.0048002,,,,,,,,,,,,,,,,,,,,,,,,,,,,,,,,,,,,,,,,,,,,,,,,,,,,,,,,,,,,,,,,,,,,,,,,,,,,,,,,,,,,,,,,,
,,3,4.5639,3,4.5639,0,1,1,20,1,39,melon,pretzel,,90383,001,2022-04-29_15h24.38.127,SPAMnetsValid,2021.1.4,MacIntel,120.0048002,,,,,,,,,,,,,,,,,,,,,,,,,,,,,,,,,,,,,,,,,,,,,,,,,,,,,,,,,,,,,,,,,,,,,,,,,,,,,,,,,,,,,,,,,
,,9,4.002,9,4.002,0,2,2,82,1,93,kitchen,oven,,90383,001,2022-04-29_15h24.38.127,SPAMnetsValid,2021.1.4,MacIntel,120.0048002,,,,,,,,,,,,,,,,,,,,,,,,,,,,,,,,,,,,,,,,,,,,,,,,,,,,,,,,,,,,,,,,,,,,,,,,,,,,,,,,,,,,,,,,,
,,6,3.6545,6,3.6545,0,3,3,6,1,87,carrot,yogurt,,90383,001,2022-04-29_15h24.38.127,SPAMnetsValid,2021.1.4,MacIntel,120.0048002,,,,,,,,,,,,,,,,,,,,,,,,,,,,,,,,,,,,,,,,,,,,,,,,,,,,,,,,,,,,,,,,,,,,,,,,,,,,,,,,,,,,,,,,,
,,2,1.7763,2,1.7763,0,4,4,32,1,40,broom,cake,,90383,001,2022-04-29_15h24.38.127,SPAMnetsValid,2021.1.4,MacIntel,120.0048002,,,,,,,,,,,,,,,,,,,,,,,,,,,,,,,,,,,,,,,,,,,,,,,,,,,,,,,,,,,,,,,,,,,,,,,,,,,,,,,,,,,,,,,,,
,,6,4.7281,6,4.7281,0,5,5,50,1,81,pretzel,yogurt,,90383,001,2022-04-29_15h24.38.127,SPAMnetsValid,2021.1.4,MacIntel,120.0048002,,,,,,,,,,,,,,,,,,,,,,,,,,,,,,,,,,,,,,,,,,,,,,,,,,,,,,,,,,,,,,,,,,,,,,,,,,,,,,,,,,,,,,,,,
,,7,1.5263,7,1.5263,0,6,6,48,1,66,melon,yogurt,,90383,001,2022-04-29_15h24.38.127,SPAMnetsValid,2021.1.4,MacIntel,120.0048002,,,,,,,,,,,,,,,,,,,,,,,,,,,,,,,,,,,,,,,,,,,,,,,,,,,,,,,,,,,,,,,,,,,,,,,,,,,,,,,,,,,,,,,,,
,,7,4.2286,7,4.2286,0,7,7,36,1,12,cookie,yogurt,,90383,001,2022-04-29_15h24.38.127,SPAMnetsValid,2021.1.4,MacIntel,120.0048002,,,,,,,,,,,,,,,,,,,,,,,,,,,,,,,,,,,,,,,,,,,,,,,,,,,,,,,,,,,,,,,,,,,,,,,,,,,,,,,,,,,,,,,,,
,,7,2.4036,7,2.4036,0,8,8,71,1,38,pretzel,refrigerator,,90383,001,2022-04-29_15h24.38.127,SPAMnetsValid,2021.1.4,MacIntel,120.0048002,,,,,,,,,,,,,,,,,,,,,,,,,,,,,,,,,,,,,,,,,,,,,,,,,,,,,,,,,,,,,,,,,,,,,,,,,,,,,,,,,,,,,,,,,
,,8,2.6693,8,2.6693,0,9,9,21,1,56,cactus,tree,,90383,001,2022-04-29_15h24.38.127,SPAMnetsValid,2021.1.4,MacIntel,120.0048002,,,,,,,,,,,,,,,,,,,,,,,,,,,,,,,,,,,,,,,,,,,,,,,,,,,,,,,,,,,,,,,,,,,,,,,,,,,,,,,,,,,,,,,,,
,,3,2.5619,3,2.5619,0,10,10,56,1,78,cookie,rose,,90383,001,2022-04-29_15h24.38.127,SPAMnetsValid,2021.1.4,MacIntel,120.0048002,,,,,,,,,,,,,,,,,,,,,,,,,,,,,,,,,,,,,,,,,,,,,,,,,,,,,,,,,,,,,,,,,,,,,,,,,,,,,,,,,,,,,,,,,
,,1,3.8717,1,3.8717,0,11,11,70,1,5,oven,tree,,90383,001,2022-04-29_15h24.38.127,SPAMnetsValid,2021.1.4,MacIntel,120.0048002,,,,,,,,,,,,,,,,,,,,,,,,,,,,,,,,,,,,,,,,,,,,,,,,,,,,,,,,,,,,,,,,,,,,,,,,,,,,,,,,,,,,,,,,,
,,6,3.1842,6,3.1842,0,12,12,29,1,42,garden,kitchen,,90383,001,2022-04-29_15h24.38.127,SPAMnetsValid,2021.1.4,MacIntel,120.0048002,,,,,,,,,,,,,,,,,,,,,,,,,,,,,,,,,,,,,,,,,,,,,,,,,,,,,,,,,,,,,,,,,,,,,,,,,,,,,,,,,,,,,,,,,
,,8,2.2461,8,2.2461,0,13,13,83,1,6,garden,onion,,90383,001,2022-04-29_15h24.38.127,SPAMnetsValid,2021.1.4,MacIntel,120.0048002,,,,,,,,,,,,,,,,,,,,,,,,,,,,,,,,,,,,,,,,,,,,,,,,,,,,,,,,,,,,,,,,,,,,,,,,,,,,,,,,,,,,,,,,,
,,1,2.2294,1,2.2294,0,14,14,63,1,21,cake,onion,,90383,001,2022-04-29_15h24.38.127,SPAMnetsValid,2021.1.4,MacIntel,120.0048002,,,,,,,,,,,,,,,,,,,,,,,,,,,,,,,,,,,,,,,,,,,,,,,,,,,,,,,,,,,,,,,,,,,,,,,,,,,,,,,,,,,,,,,,,
,,5,2.4435,5,2.4435,0,15,15,44,1,25,carrot,onion,,90383,001,2022-04-29_15h24.38.127,SPAMnetsValid,2021.1.4,MacIntel,120.0048002,,,,,,,,,,,,,,,,,,,,,,,,,,,,,,,,,,,,,,,,,,,,,,,,,,,,,,,,,,,,,,,,,,,,,,,,,,,,,,,,,,,,,,,,,
,,9,2.7307,9,2.7307,0,16,16,64,1,9,kitchen,refrigerator,,90383,001,2022-04-29_15h24.38.127,SPAMnetsValid,2021.1.4,MacIntel,120.0048002,,,,,,,,,,,,,,,,,,,,,,,,,,,,,,,,,,,,,,,,,,,,,,,,,,,,,,,,,,,,,,,,,,,,,,,,,,,,,,,,,,,,,,,,,
,,1,2.3178,1,2.3178,0,17,17,49,1,57,flower,kitchen,,90383,001,2022-04-29_15h24.38.127,SPAMnetsValid,2021.1.4,MacIntel,120.0048002,,,,,,,,,,,,,,,,,,,,,,,,,,,,,,,,,,,,,,,,,,,,,,,,,,,,,,,,,,,,,,,,,,,,,,,,,,,,,,,,,,,,,,,,,
,,4,3.603,4,3.603,0,18,18,73,1,50,carrot,rose,,90383,001,2022-04-29_15h24.38.127,SPAMnetsValid,2021.1.4,MacIntel,120.0048002,,,,,,,,,,,,,,,,,,,,,,,,,,,,,,,,,,,,,,,,,,,,,,,,,,,,,,,,,,,,,,,,,,,,,,,,,,,,,,,,,,,,,,,,,
,,4,2.9385,4,2.9385,0,19,19,41,1,19,microwave,pretzel,,90383,001,2022-04-29_15h24.38.127,SPAMnetsValid,2021.1.4,MacIntel,120.0048002,,,,,,,,,,,,,,,,,,,,,,,,,,,,,,,,,,,,,,,,,,,,,,,,,,,,,,,,,,,,,,,,,,,,,,,,,,,,,,,,,,,,,,,,,
,,3,2.4289,3,2.4289,0,20,20,69,1,45,onion,pretzel,,90383,001,2022-04-29_15h24.38.127,SPAMnetsValid,2021.1.4,MacIntel,120.0048002,,,,,,,,,,,,,,,,,,,,,,,,,,,,,,,,,,,,,,,,,,,,,,,,,,,,,,,,,,,,,,,,,,,,,,,,,,,,,,,,,,,,,,,,,
,,3,3.8731,3,3.8731,0,21,21,81,1,60,cactus,onion,,90383,001,2022-04-29_15h24.38.127,SPAMnetsValid,2021.1.4,MacIntel,120.0048002,,,,,,,,,,,,,,,,,,,,,,,,,,,,,,,,,,,,,,,,,,,,,,,,,,,,,,,,,,,,,,,,,,,,,,,,,,,,,,,,,,,,,,,,,
,,3,2.721,3,2.721,0,22,22,1,1,31,cactus,pretzel,,90383,001,2022-04-29_15h24.38.127,SPAMnetsValid,2021.1.4,MacIntel,120.0048002,,,,,,,,,,,,,,,,,,,,,,,,,,,,,,,,,,,,,,,,,,,,,,,,,,,,,,,,,,,,,,,,,,,,,,,,,,,,,,,,,,,,,,,,,
,,7,2.3305,7,2.3305,0,23,23,2,1,22,kitchen,strawberry,,90383,001,2022-04-29_15h24.38.127,SPAMnetsValid,2021.1.4,MacIntel,120.0048002,,,,,,,,,,,,,,,,,,,,,,,,,,,,,,,,,,,,,,,,,,,,,,,,,,,,,,,,,,,,,,,,,,,,,,,,,,,,,,,,,,,,,,,,,
,,7,1.5398,7,1.5398,0,24,24,91,1,2,kitchen,onion,,90383,001,2022-04-29_15h24.38.127,SPAMnetsValid,2021.1.4,MacIntel,120.0048002,,,,,,,,,,,,,,,,,,,,,,,,,,,,,,,,,,,,,,,,,,,,,,,,,,,,,,,,,,,,,,,,,,,,,,,,,,,,,,,,,,,,,,,,,
,,1,3.8029,1,3.8029,0,25,25,90,1,95,broom,refrigerator,,90383,001,2022-04-29_15h24.38.127,SPAMnetsValid,2021.1.4,MacIntel,120.0048002,,,,,,,,,,,,,,,,,,,,,,,,,,,,,,,,,,,,,,,,,,,,,,,,,,,,,,,,,,,,,,,,,,,,,,,,,,,,,,,,,,,,,,,,,
,,7,2.6034,7,2.6034,0,26,26,95,1,52,carrot,tomato,,90383,001,2022-04-29_15h24.38.127,SPAMnetsValid,2021.1.4,MacIntel,120.0048002,,,,,,,,,,,,,,,,,,,,,,,,,,,,,,,,,,,,,,,,,,,,,,,,,,,,,,,,,,,,,,,,,,,,,,,,,,,,,,,,,,,,,,,,,
,,3,1.4801,3,1.4801,0,27,27,78,1,30,cookie,pretzel,,90383,001,2022-04-29_15h24.38.127,SPAMnetsValid,2021.1.4,MacIntel,120.0048002,,,,,,,,,,,,,,,,,,,,,,,,,,,,,,,,,,,,,,,,,,,,,,,,,,,,,,,,,,,,,,,,,,,,,,,,,,,,,,,,,,,,,,,,,
,,6,2.6044,6,2.6044,0,28,28,38,1,88,cactus,melon,,90383,001,2022-04-29_15h24.38.127,SPAMnetsValid,2021.1.4,MacIntel,120.0048002,,,,,,,,,,,,,,,,,,,,,,,,,,,,,,,,,,,,,,,,,,,,,,,,,,,,,,,,,,,,,,,,,,,,,,,,,,,,,,,,,,,,,,,,,
,,2,2.6278,2,2.6278,0,29,29,28,1,84,oven,tomato,,90383,001,2022-04-29_15h24.38.127,SPAMnetsValid,2021.1.4,MacIntel,120.0048002,,,,,,,,,,,,,,,,,,,,,,,,,,,,,,,,,,,,,,,,,,,,,,,,,,,,,,,,,,,,,,,,,,,,,,,,,,,,,,,,,,,,,,,,,
,,1,2.6302,1,2.6302,0,30,30,5,1,13,broom,yogurt,,90383,001,2022-04-29_15h24.38.127,SPAMnetsValid,2021.1.4,MacIntel,120.0048002,,,,,,,,,,,,,,,,,,,,,,,,,,,,,,,,,,,,,,,,,,,,,,,,,,,,,,,,,,,,,,,,,,,,,,,,,,,,,,,,,,,,,,,,,
,,3,2.2446,3,2.2446,0,31,31,34,1,29,chocolate,melon,,90383,001,2022-04-29_15h24.38.127,SPAMnetsValid,2021.1.4,MacIntel,120.0048002,,,,,,,,,,,,,,,,,,,,,,,,,,,,,,,,,,,,,,,,,,,,,,,,,,,,,,,,,,,,,,,,,,,,,,,,,,,,,,,,,,,,,,,,,
,,8,2.8225,8,2.8225,0,32,32,67,1,54,chocolate,yogurt,,90383,001,2022-04-29_15h24.38.127,SPAMnetsValid,2021.1.4,MacIntel,120.0048002,,,,,,,,,,,,,,,,,,,,,,,,,,,,,,,,,,,,,,,,,,,,,,,,,,,,,,,,,,,,,,,,,,,,,,,,,,,,,,,,,,,,,,,,,
,,3,1.8102,3,1.8102,0,33,33,92,1,44,cookie,melon,,90383,001,2022-04-29_15h24.38.127,SPAMnetsValid,2021.1.4,MacIntel,120.0048002,,,,,,,,,,,,,,,,,,,,,,,,,,,,,,,,,,,,,,,,,,,,,,,,,,,,,,,,,,,,,,,,,,,,,,,,,,,,,,,,,,,,,,,,,
,,2,1.6214,2,1.6214,0,34,34,3,1,49,flower,strawberry,,90383,001,2022-04-29_15h24.38.127,SPAMnetsValid,2021.1.4,MacIntel,120.0048002,,,,,,,,,,,,,,,,,,,,,,,,,,,,,,,,,,,,,,,,,,,,,,,,,,,,,,,,,,,,,,,,,,,,,,,,,,,,,,,,,,,,,,,,,
,,8,3.9516,8,3.9516,0,35,35,22,1,16,chocolate,flower,,90383,001,2022-04-29_15h24.38.127,SPAMnetsValid,2021.1.4,MacIntel,120.0048002,,,,,,,,,,,,,,,,,,,,,,,,,,,,,,,,,,,,,,,,,,,,,,,,,,,,,,,,,,,,,,,,,,,,,,,,,,,,,,,,,,,,,,,,,
,,2,9.6828,2,9.6828,0,36,36,65,1,46,garden,yogurt,,90383,001,2022-04-29_15h24.38.127,SPAMnetsValid,2021.1.4,MacIntel,120.0048002,,,,,,,,,,,,,,,,,,,,,,,,,,,,,,,,,,,,,,,,,,,,,,,,,,,,,,,,,,,,,,,,,,,,,,,,,,,,,,,,,,,,,,,,,
,,2,1.4548,2,1.4548,0,37,37,94,1,68,flower,tomato,,90383,001,2022-04-29_15h24.38.127,SPAMnetsValid,2021.1.4,MacIntel,120.0048002,,,,,,,,,,,,,,,,,,,,,,,,,,,,,,,,,,,,,,,,,,,,,,,,,,,,,,,,,,,,,,,,,,,,,,,,,,,,,,,,,,,,,,,,,
,,2,1.7873,2,1.7873,0,38,38,13,1,26,tomato,yogurt,,90383,001,2022-04-29_15h24.38.127,SPAMnetsValid,2021.1.4,MacIntel,120.0048002,,,,,,,,,,,,,,,,,,,,,,,,,,,,,,,,,,,,,,,,,,,,,,,,,,,,,,,,,,,,,,,,,,,,,,,,,,,,,,,,,,,,,,,,,
,,7,2.7369,7,2.7369,0,39,39,87,1,79,garden,strawberry,,90383,001,2022-04-29_15h24.38.127,SPAMnetsValid,2021.1.4,MacIntel,120.0048002,,,,,,,,,,,,,,,,,,,,,,,,,,,,,,,,,,,,,,,,,,,,,,,,,,,,,,,,,,,,,,,,,,,,,,,,,,,,,,,,,,,,,,,,,
,,7,3.4429,7,3.4429,0,40,40,72,1,59,rose,strawberry,,90383,001,2022-04-29_15h24.38.127,SPAMnetsValid,2021.1.4,MacIntel,120.0048002,,,,,,,,,,,,,,,,,,,,,,,,,,,,,,,,,,,,,,,,,,,,,,,,,,,,,,,,,,,,,,,,,,,,,,,,,,,,,,,,,,,,,,,,,
,,7,1.728,7,1.728,0,41,41,76,1,36,broom,kitchen,,90383,001,2022-04-29_15h24.38.127,SPAMnetsValid,2021.1.4,MacIntel,120.0048002,,,,,,,,,,,,,,,,,,,,,,,,,,,,,,,,,,,,,,,,,,,,,,,,,,,,,,,,,,,,,,,,,,,,,,,,,,,,,,,,,,,,,,,,,
,,2,2.155,2,2.155,0,42,42,18,1,85,cake,tree,,90383,001,2022-04-29_15h24.38.127,SPAMnetsValid,2021.1.4,MacIntel,120.0048002,,,,,,,,,,,,,,,,,,,,,,,,,,,,,,,,,,,,,,,,,,,,,,,,,,,,,,,,,,,,,,,,,,,,,,,,,,,,,,,,,,,,,,,,,
,,2,2.3099,2,2.3099,0,43,43,59,1,8,broom,melon,,90383,001,2022-04-29_15h24.38.127,SPAMnetsValid,2021.1.4,MacIntel,120.0048002,,,,,,,,,,,,,,,,,,,,,,,,,,,,,,,,,,,,,,,,,,,,,,,,,,,,,,,,,,,,,,,,,,,,,,,,,,,,,,,,,,,,,,,,,
,,8,2.6733,8,2.6733,0,44,44,60,1,89,chocolate,rose,,90383,001,2022-04-29_15h24.38.127,SPAMnetsValid,2021.1.4,MacIntel,120.0048002,,,,,,,,,,,,,,,,,,,,,,,,,,,,,,,,,,,,,,,,,,,,,,,,,,,,,,,,,,,,,,,,,,,,,,,,,,,,,,,,,,,,,,,,,
,,3,1.3604,3,1.3604,0,45,45,84,1,91,microwave,rose,,90383,001,2022-04-29_15h24.38.127,SPAMnetsValid,2021.1.4,MacIntel,120.0048002,,,,,,,,,,,,,,,,,,,,,,,,,,,,,,,,,,,,,,,,,,,,,,,,,,,,,,,,,,,,,,,,,,,,,,,,,,,,,,,,,,,,,,,,,
,,4,3.4222,4,3.4222,0,46,46,39,1,15,onion,oven,,90383,001,2022-04-29_15h24.38.127,SPAMnetsValid,2021.1.4,MacIntel,120.0048002,,,,,,,,,,,,,,,,,,,,,,,,,,,,,,,,,,,,,,,,,,,,,,,,,,,,,,,,,,,,,,,,,,,,,,,,,,,,,,,,,,,,,,,,,
,,2,4.643,2,4.643,0,47,47,61,1,71,broom,rose,,90383,001,2022-04-29_15h24.38.127,SPAMnetsValid,2021.1.4,MacIntel,120.0048002,,,,,,,,,,,,,,,,,,,,,,,,,,,,,,,,,,,,,,,,,,,,,,,,,,,,,,,,,,,,,,,,,,,,,,,,,,,,,,,,,,,,,,,,,
,,4,4.2925,4,4.2925,0,48,48,55,1,1,rose,yogurt,,90383,001,2022-04-29_15h24.38.127,SPAMnetsValid,2021.1.4,MacIntel,120.0048002,,,,,,,,,,,,,,,,,,,,,,,,,,,,,,,,,,,,,,,,,,,,,,,,,,,,,,,,,,,,,,,,,,,,,,,,,,,,,,,,,,,,,,,,,
,,4,1.7965,4,1.7965,0,49,49,54,1,28,cake,melon,,90383,001,2022-04-29_15h24.38.127,SPAMnetsValid,2021.1.4,MacIntel,120.0048002,,,,,,,,,,,,,,,,,,,,,,,,,,,,,,,,,,,,,,,,,,,,,,,,,,,,,,,,,,,,,,,,,,,,,,,,,,,,,,,,,,,,,,,,,
,,1,3.2725,1,3.2725,0,50,50,27,1,72,broom,onion,,90383,001,2022-04-29_15h24.38.127,SPAMnetsValid,2021.1.4,MacIntel,120.0048002,,,,,,,,,,,,,,,,,,,,,,,,,,,,,,,,,,,,,,,,,,,,,,,,,,,,,,,,,,,,,,,,,,,,,,,,,,,,,,,,,,,,,,,,,
,,7,2.4363,7,2.4363,0,51,51,62,1,18,onion,refrigerator,,90383,001,2022-04-29_15h24.38.127,SPAMnetsValid,2021.1.4,MacIntel,120.0048002,,,,,,,,,,,,,,,,,,,,,,,,,,,,,,,,,,,,,,,,,,,,,,,,,,,,,,,,,,,,,,,,,,,,,,,,,,,,,,,,,,,,,,,,,
,,3,5.8036,3,5.8036,0,52,52,77,1,7,melon,tree,,90383,001,2022-04-29_15h24.38.127,SPAMnetsValid,2021.1.4,MacIntel,120.0048002,,,,,,,,,,,,,,,,,,,,,,,,,,,,,,,,,,,,,,,,,,,,,,,,,,,,,,,,,,,,,,,,,,,,,,,,,,,,,,,,,,,,,,,,,
,,3,2.6107,3,2.6107,0,53,53,68,1,24,cookie,tomato,,90383,001,2022-04-29_15h24.38.127,SPAMnetsValid,2021.1.4,MacIntel,120.0048002,,,,,,,,,,,,,,,,,,,,,,,,,,,,,,,,,,,,,,,,,,,,,,,,,,,,,,,,,,,,,,,,,,,,,,,,,,,,,,,,,,,,,,,,,
,,3,1.6474,3,1.6474,0,54,54,45,1,10,flower,onion,,90383,001,2022-04-29_15h24.38.127,SPAMnetsValid,2021.1.4,MacIntel,120.0048002,,,,,,,,,,,,,,,,,,,,,,,,,,,,,,,,,,,,,,,,,,,,,,,,,,,,,,,,,,,,,,,,,,,,,,,,,,,,,,,,,,,,,,,,,
,,3,2.9581,3,2.9581,0,55,55,16,1,14,broom,cookie,,90383,001,2022-04-29_15h24.38.127,SPAMnetsValid,2021.1.4,MacIntel,120.0048002,,,,,,,,,,,,,,,,,,,,,,,,,,,,,,,,,,,,,,,,,,,,,,,,,,,,,,,,,,,,,,,,,,,,,,,,,,,,,,,,,,,,,,,,,
,,3,6.8211,3,6.8211,0,56,56,7,1,34,melon,oven,,90383,001,2022-04-29_15h24.38.127,SPAMnetsValid,2021.1.4,MacIntel,120.0048002,,,,,,,,,,,,,,,,,,,,,,,,,,,,,,,,,,,,,,,,,,,,,,,,,,,,,,,,,,,,,,,,,,,,,,,,,,,,,,,,,,,,,,,,,
,,3,4.2347,3,4.2347,0,57,57,46,1,41,broom,cactus,,90383,001,2022-04-29_15h24.38.127,SPAMnetsValid,2021.1.4,MacIntel,120.0048002,,,,,,,,,,,,,,,,,,,,,,,,,,,,,,,,,,,,,,,,,,,,,,,,,,,,,,,,,,,,,,,,,,,,,,,,,,,,,,,,,,,,,,,,,
,,3,4.4871,3,4.4871,0,58,58,37,1,58,garden,oven,,90383,001,2022-04-29_15h24.38.127,SPAMnetsValid,2021.1.4,MacIntel,120.0048002,,,,,,,,,,,,,,,,,,,,,,,,,,,,,,,,,,,,,,,,,,,,,,,,,,,,,,,,,,,,,,,,,,,,,,,,,,,,,,,,,,,,,,,,,
,,7,2.8035,7,2.8035,0,59,59,75,1,69,carrot,refrigerator,,90383,001,2022-04-29_15h24.38.127,SPAMnetsValid,2021.1.4,MacIntel,120.0048002,,,,,,,,,,,,,,,,,,,,,,,,,,,,,,,,,,,,,,,,,,,,,,,,,,,,,,,,,,,,,,,,,,,,,,,,,,,,,,,,,,,,,,,,,
,,8,1.7784,8,1.7784,0,60,60,24,1,17,carrot,melon,,90383,001,2022-04-29_15h24.38.127,SPAMnetsValid,2021.1.4,MacIntel,120.0048002,,,,,,,,,,,,,,,,,,,,,,,,,,,,,,,,,,,,,,,,,,,,,,,,,,,,,,,,,,,,,,,,,,,,,,,,,,,,,,,,,,,,,,,,,
,,6,1.4953,6,1.4953,0,61,61,19,1,76,garden,rose,,90383,001,2022-04-29_15h24.38.127,SPAMnetsValid,2021.1.4,MacIntel,120.0048002,,,,,,,,,,,,,,,,,,,,,,,,,,,,,,,,,,,,,,,,,,,,,,,,,,,,,,,,,,,,,,,,,,,,,,,,,,,,,,,,,,,,,,,,,
,,2,2.9622,2,2.9622,0,62,62,4,1,83,broom,carrot,,90383,001,2022-04-29_15h24.38.127,SPAMnetsValid,2021.1.4,MacIntel,120.0048002,,,,,,,,,,,,,,,,,,,,,,,,,,,,,,,,,,,,,,,,,,,,,,,,,,,,,,,,,,,,,,,,,,,,,,,,,,,,,,,,,,,,,,,,,
,,2,2.5606,2,2.5606,0,63,63,57,1,62,kitchen,rose,,90383,001,2022-04-29_15h24.38.127,SPAMnetsValid,2021.1.4,MacIntel,120.0048002,,,,,,,,,,,,,,,,,,,,,,,,,,,,,,,,,,,,,,,,,,,,,,,,,,,,,,,,,,,,,,,,,,,,,,,,,,,,,,,,,,,,,,,,,
,,2,2.3158,2,2.3158,0,64,64,0,1,53,garden,pretzel,,90383,001,2022-04-29_15h24.38.127,SPAMnetsValid,2021.1.4,MacIntel,120.0048002,,,,,,,,,,,,,,,,,,,,,,,,,,,,,,,,,,,,,,,,,,,,,,,,,,,,,,,,,,,,,,,,,,,,,,,,,,,,,,,,,,,,,,,,,
,,8,3.0083,8,3.0083,0,65,65,80,1,61,strawberry,tomato,,90383,001,2022-04-29_15h24.38.127,SPAMnetsValid,2021.1.4,MacIntel,120.0048002,,,,,,,,,,,,,,,,,,,,,,,,,,,,,,,,,,,,,,,,,,,,,,,,,,,,,,,,,,,,,,,,,,,,,,,,,,,,,,,,,,,,,,,,,
,,9,1.4518,9,1.4518,0,66,66,10,1,191,cake,cake,CHECK,90383,001,2022-04-29_15h24.38.127,SPAMnetsValid,2021.1.4,MacIntel,120.0048002,,,,,,,,,,,,,,,,,,,,,,,,,,,,,,,,,,,,,,,,,,,,,,,,,,,,,,,,,,,,,,,,,,,,,,,,,,,,,,,,,,,,,,,,,
,,8,2.6724,8,2.6724,0,67,67,51,1,47,onion,tomato,,90383,001,2022-04-29_15h24.38.127,SPAMnetsValid,2021.1.4,MacIntel,120.0048002,,,,,,,,,,,,,,,,,,,,,,,,,,,,,,,,,,,,,,,,,,,,,,,,,,,,,,,,,,,,,,,,,,,,,,,,,,,,,,,,,,,,,,,,,
,,7,3.8272,7,3.8272,0,68,68,11,1,37,garden,refrigerator,,90383,001,2022-04-29_15h24.38.127,SPAMnetsValid,2021.1.4,MacIntel,120.0048002,,,,,,,,,,,,,,,,,,,,,,,,,,,,,,,,,,,,,,,,,,,,,,,,,,,,,,,,,,,,,,,,,,,,,,,,,,,,,,,,,,,,,,,,,
,,2,7.2305,2,7.2305,0,69,69,40,1,74,broom,pretzel,,90383,001,2022-04-29_15h24.38.127,SPAMnetsValid,2021.1.4,MacIntel,120.0048002,,,,,,,,,,,,,,,,,,,,,,,,,,,,,,,,,,,,,,,,,,,,,,,,,,,,,,,,,,,,,,,,,,,,,,,,,,,,,,,,,,,,,,,,,
,,8,2.045,8,2.045,0,70,70,66,1,20,rose,tree,,90383,001,2022-04-29_15h24.38.127,SPAMnetsValid,2021.1.4,MacIntel,120.0048002,,,,,,,,,,,,,,,,,,,,,,,,,,,,,,,,,,,,,,,,,,,,,,,,,,,,,,,,,,,,,,,,,,,,,,,,,,,,,,,,,,,,,,,,,
,,3,1.7519,3,1.7519,0,71,71,89,1,80,chocolate,tree,,90383,001,2022-04-29_15h24.38.127,SPAMnetsValid,2021.1.4,MacIntel,120.0048002,,,,,,,,,,,,,,,,,,,,,,,,,,,,,,,,,,,,,,,,,,,,,,,,,,,,,,,,,,,,,,,,,,,,,,,,,,,,,,,,,,,,,,,,,
,,2,1.2561,2,1.2561,0,72,72,47,1,73,broom,chocolate,,90383,001,2022-04-29_15h24.38.127,SPAMnetsValid,2021.1.4,MacIntel,120.0048002,,,,,,,,,,,,,,,,,,,,,,,,,,,,,,,,,,,,,,,,,,,,,,,,,,,,,,,,,,,,,,,,,,,,,,,,,,,,,,,,,,,,,,,,,
,,8,1.8015,8,1.8015,0,73,73,42,1,77,refrigerator,yogurt,,90383,001,2022-04-29_15h24.38.127,SPAMnetsValid,2021.1.4,MacIntel,120.0048002,,,,,,,,,,,,,,,,,,,,,,,,,,,,,,,,,,,,,,,,,,,,,,,,,,,,,,,,,,,,,,,,,,,,,,,,,,,,,,,,,,,,,,,,,
,,2,1.4427,2,1.4427,0,74,74,79,1,86,oven,rose,,90383,001,2022-04-29_15h24.38.127,SPAMnetsValid,2021.1.4,MacIntel,120.0048002,,,,,,,,,,,,,,,,,,,,,,,,,,,,,,,,,,,,,,,,,,,,,,,,,,,,,,,,,,,,,,,,,,,,,,,,,,,,,,,,,,,,,,,,,
,,9,1.8505,9,1.8505,0,75,75,93,1,63,cake,cookie,,90383,001,2022-04-29_15h24.38.127,SPAMnetsValid,2021.1.4,MacIntel,120.0048002,,,,,,,,,,,,,,,,,,,,,,,,,,,,,,,,,,,,,,,,,,,,,,,,,,,,,,,,,,,,,,,,,,,,,,,,,,,,,,,,,,,,,,,,,
,,3,1.2441,3,1.2441,0,76,76,31,1,33,oven,yogurt,,90383,001,2022-04-29_15h24.38.127,SPAMnetsValid,2021.1.4,MacIntel,120.0048002,,,,,,,,,,,,,,,,,,,,,,,,,,,,,,,,,,,,,,,,,,,,,,,,,,,,,,,,,,,,,,,,,,,,,,,,,,,,,,,,,,,,,,,,,
,,7,1.7023,7,1.7023,0,77,77,96,1,82,cake,kitchen,,90383,001,2022-04-29_15h24.38.127,SPAMnetsValid,2021.1.4,MacIntel,120.0048002,,,,,,,,,,,,,,,,,,,,,,,,,,,,,,,,,,,,,,,,,,,,,,,,,,,,,,,,,,,,,,,,,,,,,,,,,,,,,,,,,,,,,,,,,
,,9,2.7707,9,2.7707,0,78,78,30,1,3,cake,oven,,90383,001,2022-04-29_15h24.38.127,SPAMnetsValid,2021.1.4,MacIntel,120.0048002,,,,,,,,,,,,,,,,,,,,,,,,,,,,,,,,,,,,,,,,,,,,,,,,,,,,,,,,,,,,,,,,,,,,,,,,,,,,,,,,,,,,,,,,,
,,2,1.6767,2,1.6767,0,79,79,15,1,48,flower,oven,,90383,001,2022-04-29_15h24.38.127,SPAMnetsValid,2021.1.4,MacIntel,120.0048002,,,,,,,,,,,,,,,,,,,,,,,,,,,,,,,,,,,,,,,,,,,,,,,,,,,,,,,,,,,,,,,,,,,,,,,,,,,,,,,,,,,,,,,,,
,,4,2.7262,4,2.7262,0,80,80,86,1,51,onion,strawberry,,90383,001,2022-04-29_15h24.38.127,SPAMnetsValid,2021.1.4,MacIntel,120.0048002,,,,,,,,,,,,,,,,,,,,,,,,,,,,,,,,,,,,,,,,,,,,,,,,,,,,,,,,,,,,,,,,,,,,,,,,,,,,,,,,,,,,,,,,,
,,2,3.6694,2,3.6694,0,81,81,23,1,65,broom,garden,,90383,001,2022-04-29_15h24.38.127,SPAMnetsValid,2021.1.4,MacIntel,120.0048002,,,,,,,,,,,,,,,,,,,,,,,,,,,,,,,,,,,,,,,,,,,,,,,,,,,,,,,,,,,,,,,,,,,,,,,,,,,,,,,,,,,,,,,,,
,,2,2.8546,2,2.8546,0,82,82,14,1,64,chocolate,garden,,90383,001,2022-04-29_15h24.38.127,SPAMnetsValid,2021.1.4,MacIntel,120.0048002,,,,,,,,,,,,,,,,,,,,,,,,,,,,,,,,,,,,,,,,,,,,,,,,,,,,,,,,,,,,,,,,,,,,,,,,,,,,,,,,,,,,,,,,,
,,3,6.4754,3,6.4754,0,83,83,35,1,55,tomato,tree,,90383,001,2022-04-29_15h24.38.127,SPAMnetsValid,2021.1.4,MacIntel,120.0048002,,,,,,,,,,,,,,,,,,,,,,,,,,,,,,,,,,,,,,,,,,,,,,,,,,,,,,,,,,,,,,,,,,,,,,,,,,,,,,,,,,,,,,,,,
,,2,2.3539,2,2.3539,0,84,84,43,1,11,refrigerator,tree,,90383,001,2022-04-29_15h24.38.127,SPAMnetsValid,2021.1.4,MacIntel,120.0048002,,,,,,,,,,,,,,,,,,,,,,,,,,,,,,,,,,,,,,,,,,,,,,,,,,,,,,,,,,,,,,,,,,,,,,,,,,,,,,,,,,,,,,,,,
,,2,1.7717,2,1.7717,0,85,85,17,1,27,cactus,cookie,,90383,001,2022-04-29_15h24.38.127,SPAMnetsValid,2021.1.4,MacIntel,120.0048002,,,,,,,,,,,,,,,,,,,,,,,,,,,,,,,,,,,,,,,,,,,,,,,,,,,,,,,,,,,,,,,,,,,,,,,,,,,,,,,,,,,,,,,,,
,,9,2.3782,9,2.3782,0,86,86,58,1,94,kitchen,microwave,,90383,001,2022-04-29_15h24.38.127,SPAMnetsValid,2021.1.4,MacIntel,120.0048002,,,,,,,,,,,,,,,,,,,,,,,,,,,,,,,,,,,,,,,,,,,,,,,,,,,,,,,,,,,,,,,,,,,,,,,,,,,,,,,,,,,,,,,,,
,,1,5.5288,1,5.5288,0,87,87,26,1,35,flower,pretzel,,90383,001,2022-04-29_15h24.38.127,SPAMnetsValid,2021.1.4,MacIntel,120.0048002,,,,,,,,,,,,,,,,,,,,,,,,,,,,,,,,,,,,,,,,,,,,,,,,,,,,,,,,,,,,,,,,,,,,,,,,,,,,,,,,,,,,,,,,,
,,1,1.5095,1,1.5095,0,88,88,25,1,23,flower,microwave,,90383,001,2022-04-29_15h24.38.127,SPAMnetsValid,2021.1.4,MacIntel,120.0048002,,,,,,,,,,,,,,,,,,,,,,,,,,,,,,,,,,,,,,,,,,,,,,,,,,,,,,,,,,,,,,,,,,,,,,,,,,,,,,,,,,,,,,,,,
,,1,2.3521,1,2.3521,0,89,89,8,1,43,chocolate,tomato,,90383,001,2022-04-29_15h24.38.127,SPAMnetsValid,2021.1.4,MacIntel,120.0048002,,,,,,,,,,,,,,,,,,,,,,,,,,,,,,,,,,,,,,,,,,,,,,,,,,,,,,,,,,,,,,,,,,,,,,,,,,,,,,,,,,,,,,,,,
,,1,1.652,1,1.652,0,90,90,85,1,90,cactus,cake,,90383,001,2022-04-29_15h24.38.127,SPAMnetsValid,2021.1.4,MacIntel,120.0048002,,,,,,,,,,,,,,,,,,,,,,,,,,,,,,,,,,,,,,,,,,,,,,,,,,,,,,,,,,,,,,,,,,,,,,,,,,,,,,,,,,,,,,,,,
,,9,1.743,9,1.743,0,91,91,53,1,192,microwave,microwave,CHECK,90383,001,2022-04-29_15h24.38.127,SPAMnetsValid,2021.1.4,MacIntel,120.0048002,,,,,,,,,,,,,,,,,,,,,,,,,,,,,,,,,,,,,,,,,,,,,,,,,,,,,,,,,,,,,,,,,,,,,,,,,,,,,,,,,,,,,,,,,
,,6,3.9368,6,3.9368,0,92,92,33,1,32,cake,microwave,,90383,001,2022-04-29_15h24.38.127,SPAMnetsValid,2021.1.4,MacIntel,120.0048002,,,,,,,,,,,,,,,,,,,,,,,,,,,,,,,,,,,,,,,,,,,,,,,,,,,,,,,,,,,,,,,,,,,,,,,,,,,,,,,,,,,,,,,,,
,,2,2.7215,2,2.7215,0,93,93,74,1,70,chocolate,onion,,90383,001,2022-04-29_15h24.38.127,SPAMnetsValid,2021.1.4,MacIntel,120.0048002,,,,,,,,,,,,,,,,,,,,,,,,,,,,,,,,,,,,,,,,,,,,,,,,,,,,,,,,,,,,,,,,,,,,,,,,,,,,,,,,,,,,,,,,,
,,2,2.2976,2,2.2976,0,94,94,12,1,67,flower,yogurt,,90383,001,2022-04-29_15h24.38.127,SPAMnetsValid,2021.1.4,MacIntel,120.0048002,,,,,,,,,,,,,,,,,,,,,,,,,,,,,,,,,,,,,,,,,,,,,,,,,,,,,,,,,,,,,,,,,,,,,,,,,,,,,,,,,,,,,,,,,
,,1,4.3109,1,4.3109,0,95,95,9,1,75,cookie,onion,,90383,001,2022-04-29_15h24.38.127,SPAMnetsValid,2021.1.4,MacIntel,120.0048002,,,,,,,,,,,,,,,,,,,,,,,,,,,,,,,,,,,,,,,,,,,,,,,,,,,,,,,,,,,,,,,,,,,,,,,,,,,,,,,,,,,,,,,,,
,,9,2.2758,9,2.2758,0,96,96,52,1,4,chocolate,pretzel,,90383,001,2022-04-29_15h24.38.127,SPAMnetsValid,2021.1.4,MacIntel,120.0048002,,,,,,,,,,,,,,,,,,,,,,,,,,,,,,,,,,,,,,,,,,,,,,,,,,,,,,,,,,,,,,,,,,,,,,,,,,,,,,,,,,,,,,,,,
,,,,,,,,,,,,,,,90383,001,2022-04-29_15h24.38.127,SPAMnetsValid,2021.1.4,MacIntel,120.0048002,0,0,0,0,1,,,,,,,,,,,,,,,,,,,,,,,,,,,,,,,,,,,,,,,,,,,,,,,,,,,,,,,,,,,,,,,,,,,,,,,,,,,,,,,,,,,,
,,,,,,,,,,,,,,,90383,001,2022-04-29_15h24.38.127,SPAMnetsValid,2021.1.4,MacIntel,120.0048002,,,,,,0,0,0,0,1,1,0,,,,,,,,,,,,,,,,,,,,,,,,,,,,,,,,,,,,,,,,,,,,,,,,,,,,,,,,,,,,,,,,,,,,,,,,,,,,,
,,,,2,16.651,,,,,,149,broom,tomato,,90383,001,2022-04-29_15h24.38.127,SPAMnetsValid,2021.1.4,MacIntel,120.0048002,,,,,,,,,,,,,2,16.651,0,0,0,20,1,,,,,,,,,,,,,,,,,,,,,,,,,,,,,,,,,,,,,,,,,,,,,,,,,,,,,,,,,,,,,,,,,,,,,,
,,,,3,5.2145,,,,,,129,cactus,refrigerator,,90383,001,2022-04-29_15h24.38.127,SPAMnetsValid,2021.1.4,MacIntel,120.0048002,,,,,,,,,,,,,3,5.2145,0,1,1,3,1,,,,,,,,,,,,,,,,,,,,,,,,,,,,,,,,,,,,,,,,,,,,,,,,,,,,,,,,,,,,,,,,,,,,,,
,,,,2,1.3222,,,,,,146,pretzel,tree,,90383,001,2022-04-29_15h24.38.127,SPAMnetsValid,2021.1.4,MacIntel,120.0048002,,,,,,,,,,,,,2,1.3222,0,2,2,80,1,,,,,,,,,,,,,,,,,,,,,,,,,,,,,,,,,,,,,,,,,,,,,,,,,,,,,,,,,,,,,,,,,,,,,,
,,,,9,1.897,,,,,,167,carrot,garden,,90383,001,2022-04-29_15h24.38.127,SPAMnetsValid,2021.1.4,MacIntel,120.0048002,,,,,,,,,,,,,9,1.897,0,3,3,47,1,,,,,,,,,,,,,,,,,,,,,,,,,,,,,,,,,,,,,,,,,,,,,,,,,,,,,,,,,,,,,,,,,,,,,,
,,,,2,1.103,,,,,,102,chocolate,refrigerator,,90383,001,2022-04-29_15h24.38.127,SPAMnetsValid,2021.1.4,MacIntel,120.0048002,,,,,,,,,,,,,2,1.103,0,4,4,76,1,,,,,,,,,,,,,,,,,,,,,,,,,,,,,,,,,,,,,,,,,,,,,,,,,,,,,,,,,,,,,,,,,,,,,,
,,,,3,1.447,,,,,,99,garden,melon,,90383,001,2022-04-29_15h24.38.127,SPAMnetsValid,2021.1.4,MacIntel,120.0048002,,,,,,,,,,,,,3,1.447,0,5,5,17,1,,,,,,,,,,,,,,,,,,,,,,,,,,,,,,,,,,,,,,,,,,,,,,,,,,,,,,,,,,,,,,,,,,,,,,
,,,,3,150.1466,,,,,,153,carrot,pretzel,,90383,001,2022-04-29_15h24.38.127,SPAMnetsValid,2021.1.4,MacIntel,120.0048002,,,,,,,,,,,,,3,150.1466,0,6,6,34,1,,,,,,,,,,,,,,,,,,,,,,,,,,,,,,,,,,,,,,,,,,,,,,,,,,,,,,,,,,,,,,,,,,,,,,
,,,,3,1.1575,,,,,,133,cake,flower,,90383,001,2022-04-29_15h24.38.127,SPAMnetsValid,2021.1.4,MacIntel,120.0048002,,,,,,,,,,,,,3,1.1575,0,7,7,94,1,,,,,,,,,,,,,,,,,,,,,,,,,,,,,,,,,,,,,,,,,,,,,,,,,,,,,,,,,,,,,,,,,,,,,,
,,,,9,1.3182,,,,,,194,cactus,cactus,CHECK,90383,001,2022-04-29_15h24.38.127,SPAMnetsValid,2021.1.4,MacIntel,120.0048002,,,,,,,,,,,,,9,1.3182,0,8,8,25,1,,,,,,,,,,,,,,,,,,,,,,,,,,,,,,,,,,,,,,,,,,,,,,,,,,,,,,,,,,,,,,,,,,,,,,
,,,,3,1.1213,,,,,,156,melon,rose,,90383,001,2022-04-29_15h24.38.127,SPAMnetsValid,2021.1.4,MacIntel,120.0048002,,,,,,,,,,,,,3,1.1213,0,9,9,31,1,,,,,,,,,,,,,,,,,,,,,,,,,,,,,,,,,,,,,,,,,,,,,,,,,,,,,,,,,,,,,,,,,,,,,,
,,,,9,1.1891,,,,,,177,chocolate,strawberry,,90383,001,2022-04-29_15h24.38.127,SPAMnetsValid,2021.1.4,MacIntel,120.0048002,,,,,,,,,,,,,9,1.1891,0,10,10,53,1,,,,,,,,,,,,,,,,,,,,,,,,,,,,,,,,,,,,,,,,,,,,,,,,,,,,,,,,,,,,,,,,,,,,,,
,,,,8,1.4548,,,,,,160,cookie,kitchen,,90383,001,2022-04-29_15h24.38.127,SPAMnetsValid,2021.1.4,MacIntel,120.0048002,,,,,,,,,,,,,8,1.4548,0,11,11,65,1,,,,,,,,,,,,,,,,,,,,,,,,,,,,,,,,,,,,,,,,,,,,,,,,,,,,,,,,,,,,,,,,,,,,,,
,,,,9,1.2614,,,,,,147,cake,refrigerator,,90383,001,2022-04-29_15h24.38.127,SPAMnetsValid,2021.1.4,MacIntel,120.0048002,,,,,,,,,,,,,9,1.2614,0,12,12,35,1,,,,,,,,,,,,,,,,,,,,,,,,,,,,,,,,,,,,,,,,,,,,,,,,,,,,,,,,,,,,,,,,,,,,,,
,,,,3,1.7969,,,,,,175,melon,onion,,90383,001,2022-04-29_15h24.38.127,SPAMnetsValid,2021.1.4,MacIntel,120.0048002,,,,,,,,,,,,,3,1.7969,0,13,13,41,1,,,,,,,,,,,,,,,,,,,,,,,,,,,,,,,,,,,,,,,,,,,,,,,,,,,,,,,,,,,,,,,,,,,,,,
,,,,8,0.8633,,,,,,154,strawberry,yogurt,,90383,001,2022-04-29_15h24.38.127,SPAMnetsValid,2021.1.4,MacIntel,120.0048002,,,,,,,,,,,,,8,0.8633,0,14,14,28,1,,,,,,,,,,,,,,,,,,,,,,,,,,,,,,,,,,,,,,,,,,,,,,,,,,,,,,,,,,,,,,,,,,,,,,
,,,,9,1.2708,,,,,,124,oven,refrigerator,,90383,001,2022-04-29_15h24.38.127,SPAMnetsValid,2021.1.4,MacIntel,120.0048002,,,,,,,,,,,,,9,1.2708,0,15,15,69,1,,,,,,,,,,,,,,,,,,,,,,,,,,,,,,,,,,,,,,,,,,,,,,,,,,,,,,,,,,,,,,,,,,,,,,
,,,,6,2.542,,,,,,114,cookie,strawberry,,90383,001,2022-04-29_15h24.38.127,SPAMnetsValid,2021.1.4,MacIntel,120.0048002,,,,,,,,,,,,,6,2.542,0,16,16,87,1,,,,,,,,,,,,,,,,,,,,,,,,,,,,,,,,,,,,,,,,,,,,,,,,,,,,,,,,,,,,,,,,,,,,,,
,,,,6,1.713,,,,,,115,refrigerator,tomato,,90383,001,2022-04-29_15h24.38.127,SPAMnetsValid,2021.1.4,MacIntel,120.0048002,,,,,,,,,,,,,6,1.713,0,17,17,85,1,,,,,,,,,,,,,,,,,,,,,,,,,,,,,,,,,,,,,,,,,,,,,,,,,,,,,,,,,,,,,,,,,,,,,,
,,,,4,1.6883,,,,,,118,chocolate,oven,,90383,001,2022-04-29_15h24.38.127,SPAMnetsValid,2021.1.4,MacIntel,120.0048002,,,,,,,,,,,,,4,1.6883,0,18,18,10,1,,,,,,,,,,,,,,,,,,,,,,,,,,,,,,,,,,,,,,,,,,,,,,,,,,,,,,,,,,,,,,,,,,,,,,
,,,,3,1.5224,,,,,,159,cookie,flower,,90383,001,2022-04-29_15h24.38.127,SPAMnetsValid,2021.1.4,MacIntel,120.0048002,,,,,,,,,,,,,3,1.5224,0,19,19,21,1,,,,,,,,,,,,,,,,,,,,,,,,,,,,,,,,,,,,,,,,,,,,,,,,,,,,,,,,,,,,,,,,,,,,,,
,,,,5,2.4131,,,,,,141,melon,tomato,,90383,001,2022-04-29_15h24.38.127,SPAMnetsValid,2021.1.4,MacIntel,120.0048002,,,,,,,,,,,,,5,2.4131,0,20,20,70,1,,,,,,,,,,,,,,,,,,,,,,,,,,,,,,,,,,,,,,,,,,,,,,,,,,,,,,,,,,,,,,,,,,,,,,
,,,,2,2.767,,,,,,164,cookie,garden,,90383,001,2022-04-29_15h24.38.127,SPAMnetsValid,2021.1.4,MacIntel,120.0048002,,,,,,,,,,,,,2,2.767,0,21,21,59,1,,,,,,,,,,,,,,,,,,,,,,,,,,,,,,,,,,,,,,,,,,,,,,,,,,,,,,,,,,,,,,,,,,,,,,
,,,,1,1.8691,,,,,,157,refrigerator,rose,,90383,001,2022-04-29_15h24.38.127,SPAMnetsValid,2021.1.4,MacIntel,120.0048002,,,,,,,,,,,,,1,1.8691,0,22,22,64,1,,,,,,,,,,,,,,,,,,,,,,,,,,,,,,,,,,,,,,,,,,,,,,,,,,,,,,,,,,,,,,,,,,,,,,
,,,,1,1.3111,,,,,,187,cactus,microwave,,90383,001,2022-04-29_15h24.38.127,SPAMnetsValid,2021.1.4,MacIntel,120.0048002,,,,,,,,,,,,,1,1.3111,0,23,23,71,1,,,,,,,,,,,,,,,,,,,,,,,,,,,,,,,,,,,,,,,,,,,,,,,,,,,,,,,,,,,,,,,,,,,,,,
,,,,3,2.0543,,,,,,134,carrot,flower,,90383,001,2022-04-29_15h24.38.127,SPAMnetsValid,2021.1.4,MacIntel,120.0048002,,,,,,,,,,,,,3,2.0543,0,24,24,93,1,,,,,,,,,,,,,,,,,,,,,,,,,,,,,,,,,,,,,,,,,,,,,,,,,,,,,,,,,,,,,,,,,,,,,,
,,,,1,1.2694,,,,,,136,chocolate,microwave,,90383,001,2022-04-29_15h24.38.127,SPAMnetsValid,2021.1.4,MacIntel,120.0048002,,,,,,,,,,,,,1,1.2694,0,25,25,96,1,,,,,,,,,,,,,,,,,,,,,,,,,,,,,,,,,,,,,,,,,,,,,,,,,,,,,,,,,,,,,,,,,,,,,,
,,,,9,2.0929,,,,,,193,melon,melon,CHECK,90383,001,2022-04-29_15h24.38.127,SPAMnetsValid,2021.1.4,MacIntel,120.0048002,,,,,,,,,,,,,9,2.0929,0,26,26,86,1,,,,,,,,,,,,,,,,,,,,,,,,,,,,,,,,,,,,,,,,,,,,,,,,,,,,,,,,,,,,,,,,,,,,,,
,,,,9,5.8138,,,,,,100,garden,tomato,,90383,001,2022-04-29_15h24.38.127,SPAMnetsValid,2021.1.4,MacIntel,120.0048002,,,,,,,,,,,,,9,5.8138,0,27,27,83,1,,,,,,,,,,,,,,,,,,,,,,,,,,,,,,,,,,,,,,,,,,,,,,,,,,,,,,,,,,,,,,,,,,,,,,
,,,,1,1.7001,,,,,,105,cactus,oven,,90383,001,2022-04-29_15h24.38.127,SPAMnetsValid,2021.1.4,MacIntel,120.0048002,,,,,,,,,,,,,1,1.7001,0,28,28,13,1,,,,,,,,,,,,,,,,,,,,,,,,,,,,,,,,,,,,,,,,,,,,,,,,,,,,,,,,,,,,,,,,,,,,,,
,,,,7,1.5619,,,,,,122,flower,garden,,90383,001,2022-04-29_15h24.38.127,SPAMnetsValid,2021.1.4,MacIntel,120.0048002,,,,,,,,,,,,,7,1.5619,0,29,29,60,1,,,,,,,,,,,,,,,,,,,,,,,,,,,,,,,,,,,,,,,,,,,,,,,,,,,,,,,,,,,,,,,,,,,,,,
,,,,7,2.4775,,,,,,113,refrigerator,strawberry,,90383,001,2022-04-29_15h24.38.127,SPAMnetsValid,2021.1.4,MacIntel,120.0048002,,,,,,,,,,,,,7,2.4775,0,30,30,56,1,,,,,,,,,,,,,,,,,,,,,,,,,,,,,,,,,,,,,,,,,,,,,,,,,,,,,,,,,,,,,,,,,,,,,,
,,,,6,3.8929,,,,,,121,broom,microwave,,90383,001,2022-04-29_15h24.38.127,SPAMnetsValid,2021.1.4,MacIntel,120.0048002,,,,,,,,,,,,,6,3.8929,0,31,31,95,1,,,,,,,,,,,,,,,,,,,,,,,,,,,,,,,,,,,,,,,,,,,,,,,,,,,,,,,,,,,,,,,,,,,,,,
,,,,3,1.3722,,,,,,144,cake,garden,,90383,001,2022-04-29_15h24.38.127,SPAMnetsValid,2021.1.4,MacIntel,120.0048002,,,,,,,,,,,,,3,1.3722,0,32,32,58,1,,,,,,,,,,,,,,,,,,,,,,,,,,,,,,,,,,,,,,,,,,,,,,,,,,,,,,,,,,,,,,,,,,,,,,
,,,,4,2.4371,,,,,,166,cake,yogurt,,90383,001,2022-04-29_15h24.38.127,SPAMnetsValid,2021.1.4,MacIntel,120.0048002,,,,,,,,,,,,,4,2.4371,0,33,33,91,1,,,,,,,,,,,,,,,,,,,,,,,,,,,,,,,,,,,,,,,,,,,,,,,,,,,,,,,,,,,,,,,,,,,,,,
,,,,3,2.7679,,,,,,96,oven,strawberry,,90383,001,2022-04-29_15h24.38.127,SPAMnetsValid,2021.1.4,MacIntel,120.0048002,,,,,,,,,,,,,3,2.7679,0,34,34,67,1,,,,,,,,,,,,,,,,,,,,,,,,,,,,,,,,,,,,,,,,,,,,,,,,,,,,,,,,,,,,,,,,,,,,,,
,,,,4,3.1385,,,,,,170,cookie,microwave,,90383,001,2022-04-29_15h24.38.127,SPAMnetsValid,2021.1.4,MacIntel,120.0048002,,,,,,,,,,,,,4,3.1385,0,35,35,92,1,,,,,,,,,,,,,,,,,,,,,,,,,,,,,,,,,,,,,,,,,,,,,,,,,,,,,,,,,,,,,,,,,,,,,,
,,,,2,1.7526,,,,,,162,microwave,tomato,,90383,001,2022-04-29_15h24.38.127,SPAMnetsValid,2021.1.4,MacIntel,120.0048002,,,,,,,,,,,,,2,1.7526,0,36,36,12,1,,,,,,,,,,,,,,,,,,,,,,,,,,,,,,,,,,,,,,,,,,,,,,,,,,,,,,,,,,,,,,,,,,,,,,
,,,,2,6.5894,,,,,,119,strawberry,tree,,90383,001,2022-04-29_15h24.38.127,SPAMnetsValid,2021.1.4,MacIntel,120.0048002,,,,,,,,,,,,,2,6.5894,0,37,37,18,1,,,,,,,,,,,,,,,,,,,,,,,,,,,,,,,,,,,,,,,,,,,,,,,,,,,,,,,,,,,,,,,,,,,,,,
,,,,9,9.6628,,,,,,181,carrot,kitchen,,90383,001,2022-04-29_15h24.38.127,SPAMnetsValid,2021.1.4,MacIntel,120.0048002,,,,,,,,,,,,,9,9.6628,0,38,38,72,1,,,,,,,,,,,,,,,,,,,,,,,,,,,,,,,,,,,,,,,,,,,,,,,,,,,,,,,,,,,,,,,,,,,,,,
,,,,7,2.9473,,,,,,142,garden,tree,,90383,001,2022-04-29_15h24.38.127,SPAMnetsValid,2021.1.4,MacIntel,120.0048002,,,,,,,,,,,,,7,2.9473,0,39,39,22,1,,,,,,,,,,,,,,,,,,,,,,,,,,,,,,,,,,,,,,,,,,,,,,,,,,,,,,,,,,,,,,,,,,,,,,
,,,,3,1.1074,,,,,,104,garden,microwave,,90383,001,2022-04-29_15h24.38.127,SPAMnetsValid,2021.1.4,MacIntel,120.0048002,,,,,,,,,,,,,3,1.1074,0,40,40,81,1,,,,,,,,,,,,,,,,,,,,,,,,,,,,,,,,,,,,,,,,,,,,,,,,,,,,,,,,,,,,,,,,,,,,,,
,,,,8,2.1297,,,,,,116,cake,chocolate,,90383,001,2022-04-29_15h24.38.127,SPAMnetsValid,2021.1.4,MacIntel,120.0048002,,,,,,,,,,,,,8,2.1297,0,41,41,44,1,,,,,,,,,,,,,,,,,,,,,,,,,,,,,,,,,,,,,,,,,,,,,,,,,,,,,,,,,,,,,,,,,,,,,,
,,,,3,16.6689,,,,,,135,carrot,oven,,90383,001,2022-04-29_15h24.38.127,SPAMnetsValid,2021.1.4,MacIntel,120.0048002,,,,,,,,,,,,,3,16.6689,0,42,42,73,1,,,,,,,,,,,,,,,,,,,,,,,,,,,,,,,,,,,,,,,,,,,,,,,,,,,,,,,,,,,,,,,,,,,,,,
,,,,3,2.7343,,,,,,112,cake,carrot,,90383,001,2022-04-29_15h24.38.127,SPAMnetsValid,2021.1.4,MacIntel,120.0048002,,,,,,,,,,,,,3,2.7343,0,43,43,39,1,,,,,,,,,,,,,,,,,,,,,,,,,,,,,,,,,,,,,,,,,,,,,,,,,,,,,,,,,,,,,,,,,,,,,,
,,,,8,3.3632,,,,,,168,cactus,flower,,90383,001,2022-04-29_15h24.38.127,SPAMnetsValid,2021.1.4,MacIntel,120.0048002,,,,,,,,,,,,,8,3.3632,0,44,44,51,1,,,,,,,,,,,,,,,,,,,,,,,,,,,,,,,,,,,,,,,,,,,,,,,,,,,,,,,,,,,,,,,,,,,,,,
,,,,3,3.2085,,,,,,125,carrot,tree,,90383,001,2022-04-29_15h24.38.127,SPAMnetsValid,2021.1.4,MacIntel,120.0048002,,,,,,,,,,,,,3,3.2085,0,45,45,30,1,,,,,,,,,,,,,,,,,,,,,,,,,,,,,,,,,,,,,,,,,,,,,,,,,,,,,,,,,,,,,,,,,,,,,,
,,,,3,1.9536,,,,,,130,microwave,yogurt,,90383,001,2022-04-29_15h24.38.127,SPAMnetsValid,2021.1.4,MacIntel,120.0048002,,,,,,,,,,,,,3,1.9536,0,46,46,84,1,,,,,,,,,,,,,,,,,,,,,,,,,,,,,,,,,,,,,,,,,,,,,,,,,,,,,,,,,,,,,,,,,,,,,,
,,,,3,1.5489,,,,,,103,pretzel,tomato,,90383,001,2022-04-29_15h24.38.127,SPAMnetsValid,2021.1.4,MacIntel,120.0048002,,,,,,,,,,,,,3,1.5489,0,47,47,79,1,,,,,,,,,,,,,,,,,,,,,,,,,,,,,,,,,,,,,,,,,,,,,,,,,,,,,,,,,,,,,,,,,,,,,,
,,,,1,1.7621,,,,,,183,cake,rose,,90383,001,2022-04-29_15h24.38.127,SPAMnetsValid,2021.1.4,MacIntel,120.0048002,,,,,,,,,,,,,1,1.7621,0,48,48,19,1,,,,,,,,,,,,,,,,,,,,,,,,,,,,,,,,,,,,,,,,,,,,,,,,,,,,,,,,,,,,,,,,,,,,,,
,,,,7,2.5349,,,,,,163,melon,refrigerator,,90383,001,2022-04-29_15h24.38.127,SPAMnetsValid,2021.1.4,MacIntel,120.0048002,,,,,,,,,,,,,7,2.5349,0,49,49,29,1,,,,,,,,,,,,,,,,,,,,,,,,,,,,,,,,,,,,,,,,,,,,,,,,,,,,,,,,,,,,,,,,,,,,,,
,,,,1,4.4538,,,,,,180,tree,yogurt,,90383,001,2022-04-29_15h24.38.127,SPAMnetsValid,2021.1.4,MacIntel,120.0048002,,,,,,,,,,,,,1,4.4538,0,50,50,68,1,,,,,,,,,,,,,,,,,,,,,,,,,,,,,,,,,,,,,,,,,,,,,,,,,,,,,,,,,,,,,,,,,,,,,,
,,,,1,1.2179,,,,,,126,kitchen,tree,,90383,001,2022-04-29_15h24.38.127,SPAMnetsValid,2021.1.4,MacIntel,120.0048002,,,,,,,,,,,,,1,1.2179,0,51,51,50,1,,,,,,,,,,,,,,,,,,,,,,,,,,,,,,,,,,,,,,,,,,,,,,,,,,,,,,,,,,,,,,,,,,,,,,
,,,,1,2.021,,,,,,137,microwave,tree,,90383,001,2022-04-29_15h24.38.127,SPAMnetsValid,2021.1.4,MacIntel,120.0048002,,,,,,,,,,,,,1,2.021,0,52,52,63,1,,,,,,,,,,,,,,,,,,,,,,,,,,,,,,,,,,,,,,,,,,,,,,,,,,,,,,,,,,,,,,,,,,,,,,
,,,,9,1.7283,,,,,,138,flower,rose,,90383,001,2022-04-29_15h24.38.127,SPAMnetsValid,2021.1.4,MacIntel,120.0048002,,,,,,,,,,,,,9,1.7283,0,53,53,61,1,,,,,,,,,,,,,,,,,,,,,,,,,,,,,,,,,,,,,,,,,,,,,,,,,,,,,,,,,,,,,,,,,,,,,,
,,,,2,2.2633,,,,,,184,oven,pretzel,,90383,001,2022-04-29_15h24.38.127,SPAMnetsValid,2021.1.4,MacIntel,120.0048002,,,,,,,,,,,,,2,2.2633,0,54,54,42,1,,,,,,,,,,,,,,,,,,,,,,,,,,,,,,,,,,,,,,,,,,,,,,,,,,,,,,,,,,,,,,,,,,,,,,
,,,,3,6.1956,,,,,,140,cookie,refrigerator,,90383,001,2022-04-29_15h24.38.127,SPAMnetsValid,2021.1.4,MacIntel,120.0048002,,,,,,,,,,,,,3,6.1956,0,55,55,89,1,,,,,,,,,,,,,,,,,,,,,,,,,,,,,,,,,,,,,,,,,,,,,,,,,,,,,,,,,,,,,,,,,,,,,,
,,,,3,4.3115,,,,,,172,kitchen,melon,,90383,001,2022-04-29_15h24.38.127,SPAMnetsValid,2021.1.4,MacIntel,120.0048002,,,,,,,,,,,,,3,4.3115,0,56,56,77,1,,,,,,,,,,,,,,,,,,,,,,,,,,,,,,,,,,,,,,,,,,,,,,,,,,,,,,,,,,,,,,,,,,,,,,
,,,,8,4.5544,,,,,,186,kitchen,yogurt,,90383,001,2022-04-29_15h24.38.127,SPAMnetsValid,2021.1.4,MacIntel,120.0048002,,,,,,,,,,,,,8,4.5544,0,57,57,48,1,,,,,,,,,,,,,,,,,,,,,,,,,,,,,,,,,,,,,,,,,,,,,,,,,,,,,,,,,,,,,,,,,,,,,,
,,,,9,1.4635,,,,,,110,chocolate,cookie,,90383,001,2022-04-29_15h24.38.127,SPAMnetsValid,2021.1.4,MacIntel,120.0048002,,,,,,,,,,,,,9,1.4635,0,58,58,52,1,,,,,,,,,,,,,,,,,,,,,,,,,,,,,,,,,,,,,,,,,,,,,,,,,,,,,,,,,,,,,,,,,,,,,,
,,,,2,2.1394,,,,,,117,melon,strawberry,,90383,001,2022-04-29_15h24.38.127,SPAMnetsValid,2021.1.4,MacIntel,120.0048002,,,,,,,,,,,,,2,2.1394,0,59,59,11,1,,,,,,,,,,,,,,,,,,,,,,,,,,,,,,,,,,,,,,,,,,,,,,,,,,,,,,,,,,,,,,,,,,,,,,
,,,,2,3.9568,,,,,,108,carrot,chocolate,,90383,001,2022-04-29_15h24.38.127,SPAMnetsValid,2021.1.4,MacIntel,120.0048002,,,,,,,,,,,,,2,3.9568,0,60,60,5,1,,,,,,,,,,,,,,,,,,,,,,,,,,,,,,,,,,,,,,,,,,,,,,,,,,,,,,,,,,,,,,,,,,,,,,
,,,,2,2.2495,,,,,,155,carrot,cookie,,90383,001,2022-04-29_15h24.38.127,SPAMnetsValid,2021.1.4,MacIntel,120.0048002,,,,,,,,,,,,,2,2.2495,0,61,61,38,1,,,,,,,,,,,,,,,,,,,,,,,,,,,,,,,,,,,,,,,,,,,,,,,,,,,,,,,,,,,,,,,,,,,,,,
,,,,9,7.4633,,,,,,150,microwave,refrigerator,,90383,001,2022-04-29_15h24.38.127,SPAMnetsValid,2021.1.4,MacIntel,120.0048002,,,,,,,,,,,,,9,7.4633,0,62,62,66,1,,,,,,,,,,,,,,,,,,,,,,,,,,,,,,,,,,,,,,,,,,,,,,,,,,,,,,,,,,,,,,,,,,,,,,
,,,,8,1.9734,,,,,,173,kitchen,tomato,,90383,001,2022-04-29_15h24.38.127,SPAMnetsValid,2021.1.4,MacIntel,120.0048002,,,,,,,,,,,,,8,1.9734,0,63,63,1,1,,,,,,,,,,,,,,,,,,,,,,,,,,,,,,,,,,,,,,,,,,,,,,,,,,,,,,,,,,,,,,,,,,,,,,
,,,,2,1.8047,,,,,,182,flower,refrigerator,,90383,001,2022-04-29_15h24.38.127,SPAMnetsValid,2021.1.4,MacIntel,120.0048002,,,,,,,,,,,,,2,1.8047,0,64,64,32,1,,,,,,,,,,,,,,,,,,,,,,,,,,,,,,,,,,,,,,,,,,,,,,,,,,,,,,,,,,,,,,,,,,,,,,
,,,,2,1.2291,,,,,,109,broom,strawberry,,90383,001,2022-04-29_15h24.38.127,SPAMnetsValid,2021.1.4,MacIntel,120.0048002,,,,,,,,,,,,,2,1.2291,0,65,65,4,1,,,,,,,,,,,,,,,,,,,,,,,,,,,,,,,,,,,,,,,,,,,,,,,,,,,,,,,,,,,,,,,,,,,,,,
,,,,9,1.1293,,,,,,139,carrot,strawberry,,90383,001,2022-04-29_15h24.38.127,SPAMnetsValid,2021.1.4,MacIntel,120.0048002,,,,,,,,,,,,,9,1.1293,0,66,66,37,1,,,,,,,,,,,,,,,,,,,,,,,,,,,,,,,,,,,,,,,,,,,,,,,,,,,,,,,,,,,,,,,,,,,,,,
,,,,3,1.2634,,,,,,190,microwave,strawberry,,90383,001,2022-04-29_15h24.38.127,SPAMnetsValid,2021.1.4,MacIntel,120.0048002,,,,,,,,,,,,,3,1.2634,0,67,67,90,1,,,,,,,,,,,,,,,,,,,,,,,,,,,,,,,,,,,,,,,,,,,,,,,,,,,,,,,,,,,,,,,,,,,,,,
,,,,2,1.4764,,,,,,98,pretzel,strawberry,,90383,001,2022-04-29_15h24.38.127,SPAMnetsValid,2021.1.4,MacIntel,120.0048002,,,,,,,,,,,,,2,1.4764,0,68,68,82,1,,,,,,,,,,,,,,,,,,,,,,,,,,,,,,,,,,,,,,,,,,,,,,,,,,,,,,,,,,,,,,,,,,,,,,
,,,,2,2.0346,,,,,,148,flower,melon,,90383,001,2022-04-29_15h24.38.127,SPAMnetsValid,2021.1.4,MacIntel,120.0048002,,,,,,,,,,,,,2,2.0346,0,69,69,23,1,,,,,,,,,,,,,,,,,,,,,,,,,,,,,,,,,,,,,,,,,,,,,,,,,,,,,,,,,,,,,,,,,,,,,,
,,,,2,1.2294,,,,,,145,cactus,yogurt,,90383,001,2022-04-29_15h24.38.127,SPAMnetsValid,2021.1.4,MacIntel,120.0048002,,,,,,,,,,,,,2,1.2294,0,70,70,15,1,,,,,,,,,,,,,,,,,,,,,,,,,,,,,,,,,,,,,,,,,,,,,,,,,,,,,,,,,,,,,,,,,,,,,,
,,,,2,1.6129,,,,,,143,pretzel,rose,,90383,001,2022-04-29_15h24.38.127,SPAMnetsValid,2021.1.4,MacIntel,120.0048002,,,,,,,,,,,,,2,1.6129,0,71,71,55,1,,,,,,,,,,,,,,,,,,,,,,,,,,,,,,,,,,,,,,,,,,,,,,,,,,,,,,,,,,,,,,,,,,,,,,
,,,,8,3.9286,,,,,,106,cake,strawberry,,90383,001,2022-04-29_15h24.38.127,SPAMnetsValid,2021.1.4,MacIntel,120.0048002,,,,,,,,,,,,,8,3.9286,0,72,72,0,1,,,,,,,,,,,,,,,,,,,,,,,,,,,,,,,,,,,,,,,,,,,,,,,,,,,,,,,,,,,,,,,,,,,,,,
,,,,3,3.3437,,,,,,171,cake,tomato,,90383,001,2022-04-29_15h24.38.127,SPAMnetsValid,2021.1.4,MacIntel,120.0048002,,,,,,,,,,,,,3,3.3437,0,73,73,88,1,,,,,,,,,,,,,,,,,,,,,,,,,,,,,,,,,,,,,,,,,,,,,,,,,,,,,,,,,,,,,,,,,,,,,,
,,,,3,2.1336,,,,,,107,rose,tomato,,90383,001,2022-04-29_15h24.38.127,SPAMnetsValid,2021.1.4,MacIntel,120.0048002,,,,,,,,,,,,,3,2.1336,0,74,74,26,1,,,,,,,,,,,,,,,,,,,,,,,,,,,,,,,,,,,,,,,,,,,,,,,,,,,,,,,,,,,,,,,,,,,,,,
,,,,3,5.7983,,,,,,111,carrot,microwave,,90383,001,2022-04-29_15h24.38.127,SPAMnetsValid,2021.1.4,MacIntel,120.0048002,,,,,,,,,,,,,3,5.7983,0,75,75,16,1,,,,,,,,,,,,,,,,,,,,,,,,,,,,,,,,,,,,,,,,,,,,,,,,,,,,,,,,,,,,,,,,,,,,,,
,,,,3,2.2382,,,,,,189,onion,tree,,90383,001,2022-04-29_15h24.38.127,SPAMnetsValid,2021.1.4,MacIntel,120.0048002,,,,,,,,,,,,,3,2.2382,0,76,76,62,1,,,,,,,,,,,,,,,,,,,,,,,,,,,,,,,,,,,,,,,,,,,,,,,,,,,,,,,,,,,,,,,,,,,,,,
,,,,3,4.8856,,,,,,131,cactus,garden,,90383,001,2022-04-29_15h24.38.127,SPAMnetsValid,2021.1.4,MacIntel,120.0048002,,,,,,,,,,,,,3,4.8856,0,77,77,33,1,,,,,,,,,,,,,,,,,,,,,,,,,,,,,,,,,,,,,,,,,,,,,,,,,,,,,,,,,,,,,,,,,,,,,,
,,,,3,1.5117,,,,,,165,onion,rose,,90383,001,2022-04-29_15h24.38.127,SPAMnetsValid,2021.1.4,MacIntel,120.0048002,,,,,,,,,,,,,3,1.5117,0,78,78,40,1,,,,,,,,,,,,,,,,,,,,,,,,,,,,,,,,,,,,,,,,,,,,,,,,,,,,,,,,,,,,,,,,,,,,,,
,,,,3,11.4873,,,,,,123,cookie,tree,,90383,001,2022-04-29_15h24.38.127,SPAMnetsValid,2021.1.4,MacIntel,120.0048002,,,,,,,,,,,,,3,11.4873,0,79,79,46,1,,,,,,,,,,,,,,,,,,,,,,,,,,,,,,,,,,,,,,,,,,,,,,,,,,,,,,,,,,,,,,,,,,,,,,
,,,,3,5.6825,,,,,,127,cactus,chocolate,,90383,001,2022-04-29_15h24.38.127,SPAMnetsValid,2021.1.4,MacIntel,120.0048002,,,,,,,,,,,,,3,5.6825,0,80,80,57,1,,,,,,,,,,,,,,,,,,,,,,,,,,,,,,,,,,,,,,,,,,,,,,,,,,,,,,,,,,,,,,,,,,,,,,
,,,,7,3.2109,,,,,,174,cake,pretzel,,90383,001,2022-04-29_15h24.38.127,SPAMnetsValid,2021.1.4,MacIntel,120.0048002,,,,,,,,,,,,,7,3.2109,0,81,81,2,1,,,,,,,,,,,,,,,,,,,,,,,,,,,,,,,,,,,,,,,,,,,,,,,,,,,,,,,,,,,,,,,,,,,,,,
,,,,7,2.5428,,,,,,188,flower,tree,,90383,001,2022-04-29_15h24.38.127,SPAMnetsValid,2021.1.4,MacIntel,120.0048002,,,,,,,,,,,,,7,2.5428,0,82,82,7,1,,,,,,,,,,,,,,,,,,,,,,,,,,,,,,,,,,,,,,,,,,,,,,,,,,,,,,,,,,,,,,,,,,,,,,
,,,,7,1.8454,,,,,,161,kitchen,pretzel,,90383,001,2022-04-29_15h24.38.127,SPAMnetsValid,2021.1.4,MacIntel,120.0048002,,,,,,,,,,,,,7,1.8454,0,83,83,36,1,,,,,,,,,,,,,,,,,,,,,,,,,,,,,,,,,,,,,,,,,,,,,,,,,,,,,,,,,,,,,,,,,,,,,,
,,,,7,2.0598,,,,,,97,chocolate,kitchen,,90383,001,2022-04-29_15h24.38.127,SPAMnetsValid,2021.1.4,MacIntel,120.0048002,,,,,,,,,,,,,7,2.0598,0,84,84,8,1,,,,,,,,,,,,,,,,,,,,,,,,,,,,,,,,,,,,,,,,,,,,,,,,,,,,,,,,,,,,,,,,,,,,,,
,,,,1,2.7641,,,,,,132,broom,tree,,90383,001,2022-04-29_15h24.38.127,SPAMnetsValid,2021.1.4,MacIntel,120.0048002,,,,,,,,,,,,,1,2.7641,0,85,85,78,1,,,,,,,,,,,,,,,,,,,,,,,,,,,,,,,,,,,,,,,,,,,,,,,,,,,,,,,,,,,,,,,,,,,,,,
,,,,2,5.5114,,,,,,179,broom,oven,,90383,001,2022-04-29_15h24.38.127,SPAMnetsValid,2021.1.4,MacIntel,120.0048002,,,,,,,,,,,,,2,5.5114,0,86,86,45,1,,,,,,,,,,,,,,,,,,,,,,,,,,,,,,,,,,,,,,,,,,,,,,,,,,,,,,,,,,,,,,,,,,,,,,
,,,,3,2.1808,,,,,,151,microwave,onion,,90383,001,2022-04-29_15h24.38.127,SPAMnetsValid,2021.1.4,MacIntel,120.0048002,,,,,,,,,,,,,3,2.1808,0,87,87,6,1,,,,,,,,,,,,,,,,,,,,,,,,,,,,,,,,,,,,,,,,,,,,,,,,,,,,,,,,,,,,,,,,,,,,,,
,,,,9,1.5363,,,,,,120,microwave,oven,,90383,001,2022-04-29_15h24.38.127,SPAMnetsValid,2021.1.4,MacIntel,120.0048002,,,,,,,,,,,,,9,1.5363,0,88,88,14,1,,,,,,,,,,,,,,,,,,,,,,,,,,,,,,,,,,,,,,,,,,,,,,,,,,,,,,,,,,,,,,,,,,,,,,
,,,,6,2.9445,,,,,,152,cactus,strawberry,,90383,001,2022-04-29_15h24.38.127,SPAMnetsValid,2021.1.4,MacIntel,120.0048002,,,,,,,,,,,,,6,2.9445,0,89,89,49,1,,,,,,,,,,,,,,,,,,,,,,,,,,,,,,,,,,,,,,,,,,,,,,,,,,,,,,,,,,,,,,,,,,,,,,
,,,,9,2.4404,,,,,,158,cookie,oven,,90383,001,2022-04-29_15h24.38.127,SPAMnetsValid,2021.1.4,MacIntel,120.0048002,,,,,,,,,,,,,9,2.4404,0,90,90,27,1,,,,,,,,,,,,,,,,,,,,,,,,,,,,,,,,,,,,,,,,,,,,,,,,,,,,,,,,,,,,,,,,,,,,,,
,,,,2,2.5766,,,,,,169,onion,yogurt,,90383,001,2022-04-29_15h24.38.127,SPAMnetsValid,2021.1.4,MacIntel,120.0048002,,,,,,,,,,,,,2,2.5766,0,91,91,24,1,,,,,,,,,,,,,,,,,,,,,,,,,,,,,,,,,,,,,,,,,,,,,,,,,,,,,,,,,,,,,,,,,,,,,,
,,,,6,2.8268,,,,,,176,cactus,tomato,,90383,001,2022-04-29_15h24.38.127,SPAMnetsValid,2021.1.4,MacIntel,120.0048002,,,,,,,,,,,,,6,2.8268,0,92,92,9,1,,,,,,,,,,,,,,,,,,,,,,,,,,,,,,,,,,,,,,,,,,,,,,,,,,,,,,,,,,,,,,,,,,,,,,
,,,,6,3.436,,,,,,178,cactus,carrot,,90383,001,2022-04-29_15h24.38.127,SPAMnetsValid,2021.1.4,MacIntel,120.0048002,,,,,,,,,,,,,6,3.436,0,93,93,75,1,,,,,,,,,,,,,,,,,,,,,,,,,,,,,,,,,,,,,,,,,,,,,,,,,,,,,,,,,,,,,,,,,,,,,,
,,,,1,8.7462,,,,,,128,melon,microwave,,90383,001,2022-04-29_15h24.38.127,SPAMnetsValid,2021.1.4,MacIntel,120.0048002,,,,,,,,,,,,,1,8.7462,0,94,94,74,1,,,,,,,,,,,,,,,,,,,,,,,,,,,,,,,,,,,,,,,,,,,,,,,,,,,,,,,,,,,,,,,,,,,,,,
,,,,3,3.1102,,,,,,101,cactus,kitchen,,90383,001,2022-04-29_15h24.38.127,SPAMnetsValid,2021.1.4,MacIntel,120.0048002,,,,,,,,,,,,,3,3.1102,0,95,95,54,1,,,,,,,,,,,,,,,,,,,,,,,,,,,,,,,,,,,,,,,,,,,,,,,,,,,,,,,,,,,,,,,,,,,,,,
,,,,6,2.9555,,,,,,185,cactus,rose,,90383,001,2022-04-29_15h24.38.127,SPAMnetsValid,2021.1.4,MacIntel,120.0048002,,,,,,,,,,,,,6,2.9555,0,96,96,43,1,,,,,,,,,,,,,,,,,,,,,,,,,,,,,,,,,,,,,,,,,,,,,,,,,,,,,,,,,,,,,,,,,,,,,,
,,,,,,,,,,,,,,,90383,001,2022-04-29_15h24.38.127,SPAMnetsValid,2021.1.4,MacIntel,120.0048002,,,,,,,,,,,,,,,,,,,,0,0,0,0,1,,,,,,,,,,,,,,,,,,,,,,,,,,,,,,,,,,,,,,,,,,,,,,,,,,,,,,,,,,,,,,,,,
,,,,,,,,,,,,,,,90383,001,2022-04-29_15h24.38.127,SPAMnetsValid,2021.1.4,MacIntel,120.0048002,,,,,,0,1,1,1,1,0,1,,,,,,,,,,,,,,,,,,,,,,,,,,,,,,,,,,,,,,,,,,,,,,,,,,,,,,,,,,,,,,,,,,,,,,,,,,,,,
,,,,,,,,,,,,,,,90383,001,2022-04-29_15h24.38.127,SPAMnetsValid,2021.1.4,MacIntel,120.0048002,,,,,,,,,,,,,,,,,,,,,,,,,4,7.0546,0,0,0,0,1,rancor,forbearance,ridicule,malice,bravery,3,,,,,,,,,,,,,,,,,,,,,,,,,,,,,,,,,,,,,,,,,,,,,,,,,,,,
,,,,,,,,,,,,,,,90383,001,2022-04-29_15h24.38.127,SPAMnetsValid,2021.1.4,MacIntel,120.0048002,,,,,,,,,,,,,,,,,,,,,,,,,4,4.2513,0,1,1,1,1,raucous,empty,quiet,smooth,harsh,4,,,,,,,,,,,,,,,,,,,,,,,,,,,,,,,,,,,,,,,,,,,,,,,,,,,,
,,,,,,,,,,,,,,,90383,001,2022-04-29_15h24.38.127,SPAMnetsValid,2021.1.4,MacIntel,120.0048002,,,,,,,,,,,,,,,,,,,,,,,,,4,3.3871,0,2,2,2,1,gargoyle,oil,medicine,carved waterspout,ugly building,3,,,,,,,,,,,,,,,,,,,,,,,,,,,,,,,,,,,,,,,,,,,,,,,,,,,,
,,,,,,,,,,,,,,,90383,001,2022-04-29_15h24.38.127,SPAMnetsValid,2021.1.4,MacIntel,120.0048002,,,,,,,,,,,,,,,,,,,,,,,,,3,16.5222,0,3,3,3,1,recrudesce,purify,renew activity,lack refinement,crush,2,,,,,,,,,,,,,,,,,,,,,,,,,,,,,,,,,,,,,,,,,,,,,,,,,,,,
,,,,,,,,,,,,,,,90383,001,2022-04-29_15h24.38.127,SPAMnetsValid,2021.1.4,MacIntel,120.0048002,,,,,,,,,,,,,,,,,,,,,,,,,2,11.9048,0,4,4,4,1,specious,"plausible, but not genuine",noteworthy,class or variety,roomy,1,,,,,,,,,,,,,,,,,,,,,,,,,,,,,,,,,,,,,,,,,,,,,,,,,,,,
,,,,,,,,,,,,,,,90383,001,2022-04-29_15h24.38.127,SPAMnetsValid,2021.1.4,MacIntel,120.0048002,,,,,,,,,,,,,,,,,,,,,,,,,3,4.2262,0,5,5,5,1,bauble,bubble,showy plaything,idle talk,confusion,2,,,,,,,,,,,,,,,,,,,,,,,,,,,,,,,,,,,,,,,,,,,,,,,,,,,,
,,,,,,,,,,,,,,,90383,001,2022-04-29_15h24.38.127,SPAMnetsValid,2021.1.4,MacIntel,120.0048002,,,,,,,,,,,,,,,,,,,,,,,,,2,7.504,0,6,6,6,1,prolific,scarce,producing abundantly,reckless,speaking profanely,2,,,,,,,,,,,,,,,,,,,,,,,,,,,,,,,,,,,,,,,,,,,,,,,,,,,,
,,,,,,,,,,,,,,,90383,001,2022-04-29_15h24.38.127,SPAMnetsValid,2021.1.4,MacIntel,120.0048002,,,,,,,,,,,,,,,,,,,,,,,,,2,2.3541,0,7,7,7,1,opulent,party,wealthy,happy frame of mind,semiprecious stone,2,,,,,,,,,,,,,,,,,,,,,,,,,,,,,,,,,,,,,,,,,,,,,,,,,,,,
,,,,,,,,,,,,,,,90383,001,2022-04-29_15h24.38.127,SPAMnetsValid,2021.1.4,MacIntel,120.0048002,,,,,,,,,,,,,,,,,,,,,,,,,1,3.6041,0,8,8,8,1,coercion,conspiracy,strategy,restraint,attraction,3,,,,,,,,,,,,,,,,,,,,,,,,,,,,,,,,,,,,,,,,,,,,,,,,,,,,
,,,,,,,,,,,,,,,90383,001,2022-04-29_15h24.38.127,SPAMnetsValid,2021.1.4,MacIntel,120.0048002,,,,,,,,,,,,,,,,,,,,,,,,,4,3.8129,0,9,9,9,1,hiatus,animal,calamity,dread,gap,4,,,,,,,,,,,,,,,,,,,,,,,,,,,,,,,,,,,,,,,,,,,,,,,,,,,,
,,,,,,,,,,,,,,,90383,001,2022-04-29_15h24.38.127,SPAMnetsValid,2021.1.4,MacIntel,120.0048002,,,,,,,,,,,,,,,,,,,,,,,,,3,13.1532,0,10,10,10,1,germane,microbe,contagious,relevant,different,3,,,,,,,,,,,,,,,,,,,,,,,,,,,,,,,,,,,,,,,,,,,,,,,,,,,,
,,,,,,,,,,,,,,,90383,001,2022-04-29_15h24.38.127,SPAMnetsValid,2021.1.4,MacIntel,120.0048002,,,,,,,,,,,,,,,,,,,,,,,,,3,4.6121,0,11,11,11,1,perfunctory,fundamental,formal,superficial,careful,3,,,,,,,,,,,,,,,,,,,,,,,,,,,,,,,,,,,,,,,,,,,,,,,,,,,,
,,,,,,,,,,,,,,,90383,001,2022-04-29_15h24.38.127,SPAMnetsValid,2021.1.4,MacIntel,120.0048002,,,,,,,,,,,,,,,,,,,,,,,,,1,4.2841,0,12,12,12,1,diverge,reveal,chant,distract the attention of,differ or turn off from,4,,,,,,,,,,,,,,,,,,,,,,,,,,,,,,,,,,,,,,,,,,,,,,,,,,,,
,,,,,,,,,,,,,,,90383,001,2022-04-29_15h24.38.127,SPAMnetsValid,2021.1.4,MacIntel,120.0048002,,,,,,,,,,,,,,,,,,,,,,,,,1,3.5032,0,13,13,13,1,evoke,take away,anger,connect,bring out,4,,,,,,,,,,,,,,,,,,,,,,,,,,,,,,,,,,,,,,,,,,,,,,,,,,,,
,,,,,,,,,,,,,,,90383,001,2022-04-29_15h24.38.127,SPAMnetsValid,2021.1.4,MacIntel,120.0048002,,,,,,,,,,,,,,,,,,,,,,,,,3,3.754,0,14,14,14,1,pertinent,relevant,lying next to,necessary,bold,1,,,,,,,,,,,,,,,,,,,,,,,,,,,,,,,,,,,,,,,,,,,,,,,,,,,,
,,,,,,,,,,,,,,,90383,001,2022-04-29_15h24.38.127,SPAMnetsValid,2021.1.4,MacIntel,120.0048002,,,,,,,,,,,,,,,,,,,,,,,,,2,4.9618,0,15,15,15,1,holocaust,entirety,destruction,saintly,price,2,,,,,,,,,,,,,,,,,,,,,,,,,,,,,,,,,,,,,,,,,,,,,,,,,,,,
,,,,,,,,,,,,,,,90383,001,2022-04-29_15h24.38.127,SPAMnetsValid,2021.1.4,MacIntel,120.0048002,,,,,,,,,,,,,,,,,,,,,,,,,1,5.4078,0,16,16,16,1,piquant,mellow,fish,pungent,cloth,3,,,,,,,,,,,,,,,,,,,,,,,,,,,,,,,,,,,,,,,,,,,,,,,,,,,,
,,,,,,,,,,,,,,,90383,001,2022-04-29_15h24.38.127,SPAMnetsValid,2021.1.4,MacIntel,120.0048002,,,,,,,,,,,,,,,,,,,,,,,,,3,3.4125,0,17,17,17,1,firmament,foundation,heavens,strong,glue,2,,,,,,,,,,,,,,,,,,,,,,,,,,,,,,,,,,,,,,,,,,,,,,,,,,,,
,,,,,,,,,,,,,,,90383,001,2022-04-29_15h24.38.127,SPAMnetsValid,2021.1.4,MacIntel,120.0048002,,,,,,,,,,,,,,,,,,,,,,,,,,,,,,,,,,,,,,4,6.6107,0,0,0,0,1,marketable,partisan,jocular,marriageable,salable,essential,4,,,,,,,,,,,,,,,,,,,,,,,,,,,,,,,,,,,,,,
,,,,,,,,,,,,,,,90383,001,2022-04-29_15h24.38.127,SPAMnetsValid,2021.1.4,MacIntel,120.0048002,,,,,,,,,,,,,,,,,,,,,,,,,,,,,,,,,,,,,,2,5.7078,0,1,1,1,1,cottontail,squirrel,poplar,boa,marshy plant,rabbit,5,,,,,,,,,,,,,,,,,,,,,,,,,,,,,,,,,,,,,,
,,,,,,,,,,,,,,,90383,001,2022-04-29_15h24.38.127,SPAMnetsValid,2021.1.4,MacIntel,120.0048002,,,,,,,,,,,,,,,,,,,,,,,,,,,,,,,,,,,,,,3,4.9833,0,2,2,2,1,boggy,afraid,false,marshy,dense,black,3,,,,,,,,,,,,,,,,,,,,,,,,,,,,,,,,,,,,,,
,,,,,,,,,,,,,,,90383,001,2022-04-29_15h24.38.127,SPAMnetsValid,2021.1.4,MacIntel,120.0048002,,,,,,,,,,,,,,,,,,,,,,,,,,,,,,,,,,,,,,5,5.5984,0,3,3,3,1,gruesomeness,blackness,falseness,vindictiveness,drunkenness,ghastliness,5,,,,,,,,,,,,,,,,,,,,,,,,,,,,,,,,,,,,,,
,,,,,,,,,,,,,,,90383,001,2022-04-29_15h24.38.127,SPAMnetsValid,2021.1.4,MacIntel,120.0048002,,,,,,,,,,,,,,,,,,,,,,,,,,,,,,,,,,,,,,2,3.8626,0,4,4,4,1,loathing,diffidence,laziness,abhorrence,cleverness,comfort,3,,,,,,,,,,,,,,,,,,,,,,,,,,,,,,,,,,,,,,
,,,,,,,,,,,,,,,90383,001,2022-04-29_15h24.38.127,SPAMnetsValid,2021.1.4,MacIntel,120.0048002,,,,,,,,,,,,,,,,,,,,,,,,,,,,,,,,,,,,,,2,4.2713,0,5,5,5,1,bantam,fowl,ridicule,cripple,vegetable,ensign,1,,,,,,,,,,,,,,,,,,,,,,,,,,,,,,,,,,,,,,
,,,,,,,,,,,,,,,90383,001,2022-04-29_15h24.38.127,SPAMnetsValid,2021.1.4,MacIntel,120.0048002,,,,,,,,,,,,,,,,,,,,,,,,,,,,,,,,,,,,,,5,4.7228,0,6,6,6,1,evoke,wake up,surrender,reconnoiter,transcend,call forth,5,,,,,,,,,,,,,,,,,,,,,,,,,,,,,,,,,,,,,,
,,,,,,,,,,,,,,,90383,001,2022-04-29_15h24.38.127,SPAMnetsValid,2021.1.4,MacIntel,120.0048002,,,,,,,,,,,,,,,,,,,,,,,,,,,,,,,,,,,,,,5,26.2793,0,7,7,7,1,unobtrusive,unintelligent,epileptic,illogical,lineal,modest,5,,,,,,,,,,,,,,,,,,,,,,,,,,,,,,,,,,,,,,
,,,,,,,,,,,,,,,90383,001,2022-04-29_15h24.38.127,SPAMnetsValid,2021.1.4,MacIntel,120.0048002,,,,,,,,,,,,,,,,,,,,,,,,,,,,,,,,,,,,,,4,1.9889,0,8,8,8,1,terrain,ice cream,final test,tractor,area of ground,weight,4,,,,,,,,,,,,,,,,,,,,,,,,,,,,,,,,,,,,,,
,,,,,,,,,,,,,,,90383,001,2022-04-29_15h24.38.127,SPAMnetsValid,2021.1.4,MacIntel,120.0048002,,,,,,,,,,,,,,,,,,,,,,,,,,,,,,,,,,,,,,3,12.5996,0,9,9,9,1,capriciousness,stubbornness,courage,whimsicality,amazement,greediness,3,,,,,,,,,,,,,,,,,,,,,,,,,,,,,,,,,,,,,,
,,,,,,,,,,,,,,,90383,001,2022-04-29_15h24.38.127,SPAMnetsValid,2021.1.4,MacIntel,120.0048002,,,,,,,,,,,,,,,,,,,,,,,,,,,,,,,,,,,,,,3,10.0804,0,10,10,10,1,maelstrom,slander,whirlpool,enmity,armor,majolica,2,,,,,,,,,,,,,,,,,,,,,,,,,,,,,,,,,,,,,,
,,,,,,,,,,,,,,,90383,001,2022-04-29_15h24.38.127,SPAMnetsValid,2021.1.4,MacIntel,120.0048002,,,,,,,,,,,,,,,,,,,,,,,,,,,,,,,,,,,,,,5,3.8813,0,11,11,11,1,tentative,critical,conclusive,authentic,provisional,apprehensive,4,,,,,,,,,,,,,,,,,,,,,,,,,,,,,,,,,,,,,,
,,,,,,,,,,,,,,,90383,001,2022-04-29_15h24.38.127,SPAMnetsValid,2021.1.4,MacIntel,120.0048002,,,,,,,,,,,,,,,,,,,,,,,,,,,,,,,,,,,,,,4,9.8485,0,12,12,12,1,placate,rehabilitate,plagiarize,depredate,apprise,conciliate,5,,,,,,,,,,,,,,,,,,,,,,,,,,,,,,,,,,,,,,
,,,,,,,,,,,,,,,90383,001,2022-04-29_15h24.38.127,SPAMnetsValid,2021.1.4,MacIntel,120.0048002,,,,,,,,,,,,,,,,,,,,,,,,,,,,,,,,,,,,,,4,8.8135,0,13,13,13,1,surcease,enlightenment,cessation,inattention,censor,substitution,2,,,,,,,,,,,,,,,,,,,,,,,,,,,,,,,,,,,,,,
,,,,,,,,,,,,,,,90383,001,2022-04-29_15h24.38.127,SPAMnetsValid,2021.1.4,MacIntel,120.0048002,,,,,,,,,,,,,,,,,,,,,,,,,,,,,,,,,,,,,,3,7.6549,0,14,14,14,1,apathetic,wandering,impassive,hateful,prophetic,overflowing,2,,,,,,,,,,,,,,,,,,,,,,,,,,,,,,,,,,,,,,
,,,,,,,,,,,,,,,90383,001,2022-04-29_15h24.38.127,SPAMnetsValid,2021.1.4,MacIntel,120.0048002,,,,,,,,,,,,,,,,,,,,,,,,,,,,,,,,,,,,,,2,8.1643,0,15,15,15,1,paternoster,paternalism,patricide,malediction,benediction,prayer,5,,,,,,,,,,,,,,,,,,,,,,,,,,,,,,,,,,,,,,
,,,,,,,,,,,,,,,90383,001,2022-04-29_15h24.38.127,SPAMnetsValid,2021.1.4,MacIntel,120.0048002,,,,,,,,,,,,,,,,,,,,,,,,,,,,,,,,,,,,,,1,10.6968,0,16,16,16,1,opalescence,opulence,senescence,bankruptcy,iridescence,assiduity,4,,,,,,,,,,,,,,,,,,,,,,,,,,,,,,,,,,,,,,
,,,,,,,,,,,,,,,90383,001,2022-04-29_15h24.38.127,SPAMnetsValid,2021.1.4,MacIntel,120.0048002,,,,,,,,,,,,,,,,,,,,,,,,,,,,,,,,,,,,,,2,3.2282,0,17,17,17,1,lush,stupid,luxurious,hazy,putrid,languishing,2,,,,,,,,,,,,,,,,,,,,,,,,,,,,,,,,,,,,,,
,,,,,,,,,,,,,,,90383,001,2022-04-29_15h24.38.127,SPAMnetsValid,2021.1.4,MacIntel,120.0048002,,,,,,,,,,,,,,,,,,,,,,,,,,,,,,,,,,,,,,2,10.114,0,18,18,18,1,curtailment,expenditure,abandonment,abridgment,improvement,forgery,3,,,,,,,,,,,,,,,,,,,,,,,,,,,,,,,,,,,,,,
,,,,,,,,,,,,,,,90383,001,2022-04-29_15h24.38.127,SPAMnetsValid,2021.1.4,MacIntel,120.0048002,,,,,,,,,,,,,,,,,,,,,,,,,,,,,,,,,,,,,,1,14.5896,0,19,19,19,1,perversity,adversity,perviousness,travesty,waywardness,gentility,4,,,,,,,,,,,,,,,,,,,,,,,,,,,,,,,,,,,,,,
,,,,,,,,,,,,,,,90383,001,2022-04-29_15h24.38.127,SPAMnetsValid,2021.1.4,MacIntel,120.0048002,,,,,,,,,,,,,,,,,,,,,,,,,,,,,,,,,,,,,,3,17.2148,0,20,20,20,1,calumnious,complimentary,analogous,slanderous,tempestuous,magnanimous,3,,,,,,,,,,,,,,,,,,,,,,,,,,,,,,,,,,,,,,
,,,,,,,,,,,,,,,90383,001,2022-04-29_15h24.38.127,SPAMnetsValid,2021.1.4,MacIntel,120.0048002,,,,,,,,,,,,,,,,,,,,,,,,,,,,,,,,,,,,,,1,18.3145,0,21,21,21,1,illiberality,bigotry,imbecility,illegibility,cautery,immaturity,1,,,,,,,,,,,,,,,,,,,,,,,,,,,,,,,,,,,,,,
,,,,,,,,,,,,,,,90383,001,2022-04-29_15h24.38.127,SPAMnetsValid,2021.1.4,MacIntel,120.0048002,,,,,,,,,,,,,,,,,,,,,,,,,,,,,,,,,,,,,,2,14.9363,0,22,22,22,1,clabber,rejoice,gossip,curdle,crow,hobble,3,,,,,,,,,,,,,,,,,,,,,,,,,,,,,,,,,,,,,,
,,,,,,,,,,,,,,,90383,001,2022-04-29_15h24.38.127,SPAMnetsValid,2021.1.4,MacIntel,120.0048002,,,,,,,,,,,,,,,,,,,,,,,,,,,,,,,,,,,,,,5,8.8314,0,23,23,23,1,sedulousness,diligence,credulousness,seduction,perilousness,frankness,1,,,,,,,,,,,,,,,,,,,,,,,,,,,,,,,,,,,,,,
,,,,,,,,,,,,,,,90383,001,2022-04-29_15h24.38.127,SPAMnetsValid,2021.1.4,MacIntel,120.0048002,,,,,,,,,,,,,,,,,,,,,,,,,,,,,,,,,,,,,,,,,,,,,,,,,,,,cusion,pillow,0,0,0,0,1,,,,,,,,,,,,,,,,,,,,,,,,,,,,,,,
,,,,,,,,,,,,,,,90383,001,2022-04-29_15h24.38.127,SPAMnetsValid,2021.1.4,MacIntel,120.0048002,,,,,,,,,,,,,,,,,,,,,,,,,,,,,,,,,,,,,,,,,,,,,,,,,,,,punching bag,pillow,1,0,1,0,1,,,,,,,,,,,,,,,,,,,,,,,,,,,,,,,
,,,,,,,,,,,,,,,90383,001,2022-04-29_15h24.38.127,SPAMnetsValid,2021.1.4,MacIntel,120.0048002,,,,,,,,,,,,,,,,,,,,,,,,,,,,,,,,,,,,,,,,,,,,,,,,,,,,,,,,,,,0,0,0,2,1,pillow,,,,,,,,,,,,,,,,,,,,,,,,,
,,,,,,,,,,,,,,,90383,001,2022-04-29_15h24.38.127,SPAMnetsValid,2021.1.4,MacIntel,120.0048002,,,,,,,,,,,,,,,,,,,,,,,,,,,,,,,,,,,,,,,,,,,,,,,,,,,,trash,bucket,0,0,0,0,1,,,,,,,,,,,,,,,,,,,,,,,,,,,,,,,
,,,,,,,,,,,,,,,90383,001,2022-04-29_15h24.38.127,SPAMnetsValid,2021.1.4,MacIntel,120.0048002,,,,,,,,,,,,,,,,,,,,,,,,,,,,,,,,,,,,,,,,,,,,,,,,,,,,bath,bucket,1,0,1,0,1,,,,,,,,,,,,,,,,,,,,,,,,,,,,,,,
,,,,,,,,,,,,,,,90383,001,2022-04-29_15h24.38.127,SPAMnetsValid,2021.1.4,MacIntel,120.0048002,,,,,,,,,,,,,,,,,,,,,,,,,,,,,,,,,,,,,,,,,,,,,,,,,,,,ice bath,bucket,2,0,2,0,1,,,,,,,,,,,,,,,,,,,,,,,,,,,,,,,
,,,,,,,,,,,,,,,90383,001,2022-04-29_15h24.38.127,SPAMnetsValid,2021.1.4,MacIntel,120.0048002,,,,,,,,,,,,,,,,,,,,,,,,,,,,,,,,,,,,,,,,,,,,,,,,,,,,catch something,bucket,3,0,3,0,1,,,,,,,,,,,,,,,,,,,,,,,,,,,,,,,
,,,,,,,,,,,,,,,90383,001,2022-04-29_15h24.38.127,SPAMnetsValid,2021.1.4,MacIntel,120.0048002,,,,,,,,,,,,,,,,,,,,,,,,,,,,,,,,,,,,,,,,,,,,,,,,,,,,cover something up,bucket,4,0,4,0,1,,,,,,,,,,,,,,,,,,,,,,,,,,,,,,,
,,,,,,,,,,,,,,,90383,001,2022-04-29_15h24.38.127,SPAMnetsValid,2021.1.4,MacIntel,120.0048002,,,,,,,,,,,,,,,,,,,,,,,,,,,,,,,,,,,,,,,,,,,,,,,,,,,,,,,,,,,0,1,1,0,1,bucket,,,,,,,,,,,,,,,,,,,,,,,,,
,,,,,,,,,,,,,,,90383,001,2022-04-29_15h24.38.127,SPAMnetsValid,2021.1.4,MacIntel,120.0048002,,,,,,,,,,,,,,,,,,,,,,,,,,,,,,,,,,,,,,,,,,,,,,,,,,,,light,candle,0,0,0,0,1,,,,,,,,,,,,,,,,,,,,,,,,,,,,,,,
,,,,,,,,,,,,,,,90383,001,2022-04-29_15h24.38.127,SPAMnetsValid,2021.1.4,MacIntel,120.0048002,,,,,,,,,,,,,,,,,,,,,,,,,,,,,,,,,,,,,,,,,,,,,,,,,,,,birthday cake,candle,1,0,1,0,1,,,,,,,,,,,,,,,,,,,,,,,,,,,,,,,
,,,,,,,,,,,,,,,90383,001,2022-04-29_15h24.38.127,SPAMnetsValid,2021.1.4,MacIntel,120.0048002,,,,,,,,,,,,,,,,,,,,,,,,,,,,,,,,,,,,,,,,,,,,,,,,,,,,burn something,candle,2,0,2,0,1,,,,,,,,,,,,,,,,,,,,,,,,,,,,,,,
,,,,,,,,,,,,,,,90383,001,2022-04-29_15h24.38.127,SPAMnetsValid,2021.1.4,MacIntel,120.0048002,,,,,,,,,,,,,,,,,,,,,,,,,,,,,,,,,,,,,,,,,,,,,,,,,,,,room smell better,candle,3,0,3,0,1,,,,,,,,,,,,,,,,,,,,,,,,,,,,,,,
,,,,,,,,,,,,,,,90383,001,2022-04-29_15h24.38.127,SPAMnetsValid,2021.1.4,MacIntel,120.0048002,,,,,,,,,,,,,,,,,,,,,,,,,,,,,,,,,,,,,,,,,,,,,,,,,,,,meditation,candle,4,0,4,0,1,,,,,,,,,,,,,,,,,,,,,,,,,,,,,,,
,,,,,,,,,,,,,,,90383,001,2022-04-29_15h24.38.127,SPAMnetsValid,2021.1.4,MacIntel,120.0048002,,,,,,,,,,,,,,,,,,,,,,,,,,,,,,,,,,,,,,,,,,,,,,,,,,,,,,,,,,,0,2,2,1,1,candle,,,,,,,,,,,,,,,,,,,,,,,,,
,,,,,,,,,,,,,,,90383,001,2022-04-29_15h24.38.127,SPAMnetsValid,2021.1.4,MacIntel,120.0048002,,,,,,,,,,,,,,,,,,,,,,,,,,,,,,,,,,,,,,,,,,,,,,,,,,,,,,,,,,,,,,,,,tiger,Animals,0,0,0,0,1,,,,,,,,,,,,,,,,,,
,,,,,,,,,,,,,,,90383,001,2022-04-29_15h24.38.127,SPAMnetsValid,2021.1.4,MacIntel,120.0048002,,,,,,,,,,,,,,,,,,,,,,,,,,,,,,,,,,,,,,,,,,,,,,,,,,,,,,,,,,,,,,,,,lion,Animals,1,0,1,0,1,,,,,,,,,,,,,,,,,,
,,,,,,,,,,,,,,,90383,001,2022-04-29_15h24.38.127,SPAMnetsValid,2021.1.4,MacIntel,120.0048002,,,,,,,,,,,,,,,,,,,,,,,,,,,,,,,,,,,,,,,,,,,,,,,,,,,,,,,,,,,,,,,,,bear,Animals,2,0,2,0,1,,,,,,,,,,,,,,,,,,
,,,,,,,,,,,,,,,90383,001,2022-04-29_15h24.38.127,SPAMnetsValid,2021.1.4,MacIntel,120.0048002,,,,,,,,,,,,,,,,,,,,,,,,,,,,,,,,,,,,,,,,,,,,,,,,,,,,,,,,,,,,,,,,,dog,Animals,3,0,3,0,1,,,,,,,,,,,,,,,,,,
,,,,,,,,,,,,,,,90383,001,2022-04-29_15h24.38.127,SPAMnetsValid,2021.1.4,MacIntel,120.0048002,,,,,,,,,,,,,,,,,,,,,,,,,,,,,,,,,,,,,,,,,,,,,,,,,,,,,,,,,,,,,,,,,cat,Animals,4,0,4,0,1,,,,,,,,,,,,,,,,,,
,,,,,,,,,,,,,,,90383,001,2022-04-29_15h24.38.127,SPAMnetsValid,2021.1.4,MacIntel,120.0048002,,,,,,,,,,,,,,,,,,,,,,,,,,,,,,,,,,,,,,,,,,,,,,,,,,,,,,,,,,,,,,,,,eagle,Animals,5,0,5,0,1,,,,,,,,,,,,,,,,,,
,,,,,,,,,,,,,,,90383,001,2022-04-29_15h24.38.127,SPAMnetsValid,2021.1.4,MacIntel,120.0048002,,,,,,,,,,,,,,,,,,,,,,,,,,,,,,,,,,,,,,,,,,,,,,,,,,,,,,,,,,,,,,,,,penguin,Animals,6,0,6,0,1,,,,,,,,,,,,,,,,,,
,,,,,,,,,,,,,,,90383,001,2022-04-29_15h24.38.127,SPAMnetsValid,2021.1.4,MacIntel,120.0048002,,,,,,,,,,,,,,,,,,,,,,,,,,,,,,,,,,,,,,,,,,,,,,,,,,,,,,,,,,,,,,,,,wolf,Animals,7,0,7,0,1,,,,,,,,,,,,,,,,,,
,,,,,,,,,,,,,,,90383,001,2022-04-29_15h24.38.127,SPAMnetsValid,2021.1.4,MacIntel,120.0048002,,,,,,,,,,,,,,,,,,,,,,,,,,,,,,,,,,,,,,,,,,,,,,,,,,,,,,,,,,,,,,,,,coyote,Animals,8,0,8,0,1,,,,,,,,,,,,,,,,,,
,,,,,,,,,,,,,,,90383,001,2022-04-29_15h24.38.127,SPAMnetsValid,2021.1.4,MacIntel,120.0048002,,,,,,,,,,,,,,,,,,,,,,,,,,,,,,,,,,,,,,,,,,,,,,,,,,,,,,,,,,,,,,,,,ram,Animals,9,0,9,0,1,,,,,,,,,,,,,,,,,,
,,,,,,,,,,,,,,,90383,001,2022-04-29_15h24.38.127,SPAMnetsValid,2021.1.4,MacIntel,120.0048002,,,,,,,,,,,,,,,,,,,,,,,,,,,,,,,,,,,,,,,,,,,,,,,,,,,,,,,,,,,,,,,,,giraffe,Animals,10,0,10,0,1,,,,,,,,,,,,,,,,,,
,,,,,,,,,,,,,,,90383,001,2022-04-29_15h24.38.127,SPAMnetsValid,2021.1.4,MacIntel,120.0048002,,,,,,,,,,,,,,,,,,,,,,,,,,,,,,,,,,,,,,,,,,,,,,,,,,,,,,,,,,,,,,,,,hippo,Animals,11,0,11,0,1,,,,,,,,,,,,,,,,,,
,,,,,,,,,,,,,,,90383,001,2022-04-29_15h24.38.127,SPAMnetsValid,2021.1.4,MacIntel,120.0048002,,,,,,,,,,,,,,,,,,,,,,,,,,,,,,,,,,,,,,,,,,,,,,,,,,,,,,,,,,,,,,,,,emu,Animals,12,0,12,0,1,,,,,,,,,,,,,,,,,,
,,,,,,,,,,,,,,,90383,001,2022-04-29_15h24.38.127,SPAMnetsValid,2021.1.4,MacIntel,120.0048002,,,,,,,,,,,,,,,,,,,,,,,,,,,,,,,,,,,,,,,,,,,,,,,,,,,,,,,,,,,,,,,,,lizard,Animals,13,0,13,0,1,,,,,,,,,,,,,,,,,,
,,,,,,,,,,,,,,,90383,001,2022-04-29_15h24.38.127,SPAMnetsValid,2021.1.4,MacIntel,120.0048002,,,,,,,,,,,,,,,,,,,,,,,,,,,,,,,,,,,,,,,,,,,,,,,,,,,,,,,,,,,,,,,,,rhino,Animals,14,0,14,0,1,,,,,,,,,,,,,,,,,,
,,,,,,,,,,,,,,,90383,001,2022-04-29_15h24.38.127,SPAMnetsValid,2021.1.4,MacIntel,120.0048002,,,,,,,,,,,,,,,,,,,,,,,,,,,,,,,,,,,,,,,,,,,,,,,,,,,,,,,,,,,,,,,,,moose,Animals,15,0,15,0,1,,,,,,,,,,,,,,,,,,
,,,,,,,,,,,,,,,90383,001,2022-04-29_15h24.38.127,SPAMnetsValid,2021.1.4,MacIntel,120.0048002,,,,,,,,,,,,,,,,,,,,,,,,,,,,,,,,,,,,,,,,,,,,,,,,,,,,,,,,,,,,,,,,,deer,Animals,16,0,16,0,1,,,,,,,,,,,,,,,,,,
,,,,,,,,,,,,,,,90383,001,2022-04-29_15h24.38.127,SPAMnetsValid,2021.1.4,MacIntel,120.0048002,,,,,,,,,,,,,,,,,,,,,,,,,,,,,,,,,,,,,,,,,,,,,,,,,,,,,,,,,,,,,,,,,squirrel,Animals,17,0,17,0,1,,,,,,,,,,,,,,,,,,
,,,,,,,,,,,,,,,90383,001,2022-04-29_15h24.38.127,SPAMnetsValid,2021.1.4,MacIntel,120.0048002,,,,,,,,,,,,,,,,,,,,,,,,,,,,,,,,,,,,,,,,,,,,,,,,,,,,,,,,,,,,,,,,,groundhog,Animals,18,0,18,0,1,,,,,,,,,,,,,,,,,,
,,,,,,,,,,,,,,,90383,001,2022-04-29_15h24.38.127,SPAMnetsValid,2021.1.4,MacIntel,120.0048002,,,,,,,,,,,,,,,,,,,,,,,,,,,,,,,,,,,,,,,,,,,,,,,,,,,,,,,,,,,,,,,,,parrot,Animals,19,0,19,0,1,,,,,,,,,,,,,,,,,,
,,,,,,,,,,,,,,,90383,001,2022-04-29_15h24.38.127,SPAMnetsValid,2021.1.4,MacIntel,120.0048002,,,,,,,,,,,,,,,,,,,,,,,,,,,,,,,,,,,,,,,,,,,,,,,,,,,,,,,,,,,,,,,,,chinchilla,Animals,20,0,20,0,1,,,,,,,,,,,,,,,,,,
,,,,,,,,,,,,,,,90383,001,2022-04-29_15h24.38.127,SPAMnetsValid,2021.1.4,MacIntel,120.0048002,,,,,,,,,,,,,,,,,,,,,,,,,,,,,,,,,,,,,,,,,,,,,,,,,,,,,,,,,,,,,,,,,armadillo,Animals,21,0,21,0,1,,,,,,,,,,,,,,,,,,
,,,,,,,,,,,,,,,90383,001,2022-04-29_15h24.38.127,SPAMnetsValid,2021.1.4,MacIntel,120.0048002,,,,,,,,,,,,,,,,,,,,,,,,,,,,,,,,,,,,,,,,,,,,,,,,,,,,,,,,,,,,,,,,,,,,,,,,0,0,0,0,1,Animals,,,,,,,,,,,,
,,,,,,,,,,,,,,,90383,001,2022-04-29_15h24.38.127,SPAMnetsValid,2021.1.4,MacIntel,120.0048002,,,,,,,,,,,,,,,,,,,,,,,,,,,,,,,,,,,,,,,,,,,,,,,,,,,,,,,,,,,,,,,,,,,,,,,,,,,,,,4,7.3337,0,0,0,0,1,"I enjoy concentrating on a fantasy or daydream and exploring all its possibilities, letting it grow and develop.",0,1,,
,,,,,,,,,,,,,,,90383,001,2022-04-29_15h24.38.127,SPAMnetsValid,2021.1.4,MacIntel,120.0048002,,,,,,,,,,,,,,,,,,,,,,,,,,,,,,,,,,,,,,,,,,,,,,,,,,,,,,,,,,,,,,,,,,,,,,,,,,,,,,5,2.4886,0,1,1,1,1,I think it's interesting to learn and develop new hobbies.,0,2,,
,,,,,,,,,,,,,,,90383,001,2022-04-29_15h24.38.127,SPAMnetsValid,2021.1.4,MacIntel,120.0048002,,,,,,,,,,,,,,,,,,,,,,,,,,,,,,,,,,,,,,,,,,,,,,,,,,,,,,,,,,,,,,,,,,,,,,,,,,,,,,4,2.4205,0,2,2,2,1,I am intrigued by the patterns I find in art and nature.,0,3,,
,,,,,,,,,,,,,,,90383,001,2022-04-29_15h24.38.127,SPAMnetsValid,2021.1.4,MacIntel,120.0048002,,,,,,,,,,,,,,,,,,,,,,,,,,,,,,,,,,,,,,,,,,,,,,,,,,,,,,,,,,,,,,,,,,,,,,,,,,,,,,4,2.572,0,3,3,3,1,I believe letting students hear controversial speakers can only confuse and mislead them.,1,4,,
,,,,,,,,,,,,,,,90383,001,2022-04-29_15h24.38.127,SPAMnetsValid,2021.1.4,MacIntel,120.0048002,,,,,,,,,,,,,,,,,,,,,,,,,,,,,,,,,,,,,,,,,,,,,,,,,,,,,,,,,,,,,,,,,,,,,,,,,,,,,,4,2.53,0,4,4,4,1,Poetry has little or no effect on me.,1,5,,
,,,,,,,,,,,,,,,90383,001,2022-04-29_15h24.38.127,SPAMnetsValid,2021.1.4,MacIntel,120.0048002,,,,,,,,,,,,,,,,,,,,,,,,,,,,,,,,,,,,,,,,,,,,,,,,,,,,,,,,,,,,,,,,,,,,,,,,,,,,,,4,4.4895,0,5,5,5,1,I would have difficulty just letting my mind wander without control or guidance.,1,6,,
,,,,,,,,,,,,,,,90383,001,2022-04-29_15h24.38.127,SPAMnetsValid,2021.1.4,MacIntel,120.0048002,,,,,,,,,,,,,,,,,,,,,,,,,,,,,,,,,,,,,,,,,,,,,,,,,,,,,,,,,,,,,,,,,,,,,,,,,,,,,,3,4.0559,0,6,6,6,1,I seldom notice the moods or feelings that different environments produce.,1,7,,
,,,,,,,,,,,,,,,90383,001,2022-04-29_15h24.38.127,SPAMnetsValid,2021.1.4,MacIntel,120.0048002,,,,,,,,,,,,,,,,,,,,,,,,,,,,,,,,,,,,,,,,,,,,,,,,,,,,,,,,,,,,,,,,,,,,,,,,,,,,,,5,3.1171,0,7,7,7,1,I experience a wide range of emotions or feelings.,0,8,,
,,,,,,,,,,,,,,,90383,001,2022-04-29_15h24.38.127,SPAMnetsValid,2021.1.4,MacIntel,120.0048002,,,,,,,,,,,,,,,,,,,,,,,,,,,,,,,,,,,,,,,,,,,,,,,,,,,,,,,,,,,,,,,,,,,,,,,,,,,,,,4,4.1714,0,8,8,8,1,"Sometimes when I am reading poetry or looking at a work of art, I feel a chill or wave of excitement.",0,9,,
,,,,,,,,,,,,,,,90383,001,2022-04-29_15h24.38.127,SPAMnetsValid,2021.1.4,MacIntel,120.0048002,,,,,,,,,,,,,,,,,,,,,,,,,,,,,,,,,,,,,,,,,,,,,,,,,,,,,,,,,,,,,,,,,,,,,,,,,,,,,,2,63.8311,0,9,9,9,1,I have little interest in speculating on the nature of the universe or the human condition.,1,10,,
,,,,,,,,,,,,,,,90383,001,2022-04-29_15h24.38.127,SPAMnetsValid,2021.1.4,MacIntel,120.0048002,,,,,,,,,,,,,,,,,,,,,,,,,,,,,,,,,,,,,,,,,,,,,,,,,,,,,,,,,,,,,,,,,,,,,,,,,,,,,,4,1.9413,0,10,10,10,1,I have a lot of intellectual curiosity.,0,11,,
,,,,,,,,,,,,,,,90383,001,2022-04-29_15h24.38.127,SPAMnetsValid,2021.1.4,MacIntel,120.0048002,,,,,,,,,,,,,,,,,,,,,,,,,,,,,,,,,,,,,,,,,,,,,,,,,,,,,,,,,,,,,,,,,,,,,,,,,,,,,,4,3.4962,0,11,11,11,1,I often enjoy playing with theories or abstract ideas.,0,12,,
,,,,,,,,,,,,,,,90383,001,2022-04-29_15h24.38.127,SPAMnetsValid,2021.1.4,MacIntel,120.0048002,,,,,,,,,,,,,,,,,,,,,,,,,,,,,,,,,,,,,,,,,,,,,,,,,,,,,,,,,,,,,,,,,,,,,,,,,,,,,,,,,,,,,,,,return,17.6755
