key_resp_3.keys,key_resp_3.rt,slider.response,slider.rt,rjt_rating,rjt_RT,trials_22.thisRepN,trials_22.thisTrialN,trials_22.thisN,trials_22.thisIndex,trials_22.ran,rjt_order,word1,word2,attention,participant,session,date,expName,psychopyVersion,OS,frameRate,trials_99.thisRepN,trials_99.thisTrialN,trials_99.thisN,trials_99.thisIndex,trials_99.ran,trials_5.thisRepN,trials_5.thisTrialN,trials_5.thisN,trials_5.thisIndex,trials_5.ran,repOne,repTwo,slider_2.response,slider_2.rt,trials_24.thisRepN,trials_24.thisTrialN,trials_24.thisN,trials_24.thisIndex,trials_24.ran,trials_4.thisRepN,trials_4.thisTrialN,trials_4.thisN,trials_4.thisIndex,trials_4.ran,slider_extend_2.response,slider_extend_2.rt,trials_6.thisRepN,trials_6.thisTrialN,trials_6.thisN,trials_6.thisIndex,trials_6.ran,vCue2,R1,R2,R3,R4,correct,sliderVocab.response,sliderVocab.rt,trials_7.thisRepN,trials_7.thisTrialN,trials_7.thisN,trials_7.thisIndex,trials_7.ran,VocabCue,VR1,VR2,VR3,VR4,VR5,VocabCorrect,AUT_resp,AUT_label,trials.thisRepN,trials.thisTrialN,trials.thisN,trials.thisIndex,trials.ran,trials_2.thisRepN,trials_2.thisTrialN,trials_2.thisN,trials_2.thisIndex,trials_2.ran,aut_prompt,VF_response,VF_tag,trials_16.thisRepN,trials_16.thisTrialN,trials_16.thisN,trials_16.thisIndex,trials_16.ran,trials_17.thisRepN,trials_17.thisTrialN,trials_17.thisN,trials_17.thisIndex,trials_17.ran,VFcond,open_slider.response,open_slider.rt,trials_3.thisRepN,trials_3.thisTrialN,trials_3.thisN,trials_3.thisIndex,trials_3.ran,OpenQ,Rev,OPEN_ORDER,key_resp_2.keys,key_resp_2.rt
return,7.6101,5,9.0112,5,9.0112,0,0,0,54,1,28,cake,melon,,90386,001,2022-04-24_15h40.20.799,SPAMnetsValid,2021.1.4,Win32,143.9884809,,,,,,,,,,,,,,,,,,,,,,,,,,,,,,,,,,,,,,,,,,,,,,,,,,,,,,,,,,,,,,,,,,,,,,,,,,,,,,,,,,,,,,,,,
,,6,4.0039,6,4.0039,0,1,1,44,1,25,carrot,onion,,90386,001,2022-04-24_15h40.20.799,SPAMnetsValid,2021.1.4,Win32,143.9884809,,,,,,,,,,,,,,,,,,,,,,,,,,,,,,,,,,,,,,,,,,,,,,,,,,,,,,,,,,,,,,,,,,,,,,,,,,,,,,,,,,,,,,,,,
,,2,2.0545,2,2.0545,0,2,2,14,1,64,chocolate,garden,,90386,001,2022-04-24_15h40.20.799,SPAMnetsValid,2021.1.4,Win32,143.9884809,,,,,,,,,,,,,,,,,,,,,,,,,,,,,,,,,,,,,,,,,,,,,,,,,,,,,,,,,,,,,,,,,,,,,,,,,,,,,,,,,,,,,,,,,
,,7,1.8106,7,1.8106,0,3,3,82,1,93,kitchen,oven,,90386,001,2022-04-24_15h40.20.799,SPAMnetsValid,2021.1.4,Win32,143.9884809,,,,,,,,,,,,,,,,,,,,,,,,,,,,,,,,,,,,,,,,,,,,,,,,,,,,,,,,,,,,,,,,,,,,,,,,,,,,,,,,,,,,,,,,,
,,3,1.8057,3,1.8057,0,4,4,26,1,35,flower,pretzel,,90386,001,2022-04-24_15h40.20.799,SPAMnetsValid,2021.1.4,Win32,143.9884809,,,,,,,,,,,,,,,,,,,,,,,,,,,,,,,,,,,,,,,,,,,,,,,,,,,,,,,,,,,,,,,,,,,,,,,,,,,,,,,,,,,,,,,,,
,,1,1.5495,1,1.5495,0,5,5,79,1,86,oven,rose,,90386,001,2022-04-24_15h40.20.799,SPAMnetsValid,2021.1.4,Win32,143.9884809,,,,,,,,,,,,,,,,,,,,,,,,,,,,,,,,,,,,,,,,,,,,,,,,,,,,,,,,,,,,,,,,,,,,,,,,,,,,,,,,,,,,,,,,,
,,6,3.2176,6,3.2176,0,6,6,3,1,49,flower,strawberry,,90386,001,2022-04-24_15h40.20.799,SPAMnetsValid,2021.1.4,Win32,143.9884809,,,,,,,,,,,,,,,,,,,,,,,,,,,,,,,,,,,,,,,,,,,,,,,,,,,,,,,,,,,,,,,,,,,,,,,,,,,,,,,,,,,,,,,,,
,,4,1.9872,4,1.9872,0,7,7,29,1,42,garden,kitchen,,90386,001,2022-04-24_15h40.20.799,SPAMnetsValid,2021.1.4,Win32,143.9884809,,,,,,,,,,,,,,,,,,,,,,,,,,,,,,,,,,,,,,,,,,,,,,,,,,,,,,,,,,,,,,,,,,,,,,,,,,,,,,,,,,,,,,,,,
,,5,2.1593,5,2.1593,0,8,8,52,1,4,chocolate,pretzel,,90386,001,2022-04-24_15h40.20.799,SPAMnetsValid,2021.1.4,Win32,143.9884809,,,,,,,,,,,,,,,,,,,,,,,,,,,,,,,,,,,,,,,,,,,,,,,,,,,,,,,,,,,,,,,,,,,,,,,,,,,,,,,,,,,,,,,,,
,,2,3.2004,2,3.2004,0,9,9,62,1,18,onion,refrigerator,,90386,001,2022-04-24_15h40.20.799,SPAMnetsValid,2021.1.4,Win32,143.9884809,,,,,,,,,,,,,,,,,,,,,,,,,,,,,,,,,,,,,,,,,,,,,,,,,,,,,,,,,,,,,,,,,,,,,,,,,,,,,,,,,,,,,,,,,
,,2,1.4957,2,1.4957,0,10,10,7,1,34,melon,oven,,90386,001,2022-04-24_15h40.20.799,SPAMnetsValid,2021.1.4,Win32,143.9884809,,,,,,,,,,,,,,,,,,,,,,,,,,,,,,,,,,,,,,,,,,,,,,,,,,,,,,,,,,,,,,,,,,,,,,,,,,,,,,,,,,,,,,,,,
,,3,1.1426,3,1.1426,0,11,11,6,1,87,carrot,yogurt,,90386,001,2022-04-24_15h40.20.799,SPAMnetsValid,2021.1.4,Win32,143.9884809,,,,,,,,,,,,,,,,,,,,,,,,,,,,,,,,,,,,,,,,,,,,,,,,,,,,,,,,,,,,,,,,,,,,,,,,,,,,,,,,,,,,,,,,,
,,5,2.133,5,2.133,0,12,12,2,1,22,kitchen,strawberry,,90386,001,2022-04-24_15h40.20.799,SPAMnetsValid,2021.1.4,Win32,143.9884809,,,,,,,,,,,,,,,,,,,,,,,,,,,,,,,,,,,,,,,,,,,,,,,,,,,,,,,,,,,,,,,,,,,,,,,,,,,,,,,,,,,,,,,,,
,,3,2.765,3,2.765,0,13,13,31,1,33,oven,yogurt,,90386,001,2022-04-24_15h40.20.799,SPAMnetsValid,2021.1.4,Win32,143.9884809,,,,,,,,,,,,,,,,,,,,,,,,,,,,,,,,,,,,,,,,,,,,,,,,,,,,,,,,,,,,,,,,,,,,,,,,,,,,,,,,,,,,,,,,,
,,2,2.1099,2,2.1099,0,14,14,56,1,78,cookie,rose,,90386,001,2022-04-24_15h40.20.799,SPAMnetsValid,2021.1.4,Win32,143.9884809,,,,,,,,,,,,,,,,,,,,,,,,,,,,,,,,,,,,,,,,,,,,,,,,,,,,,,,,,,,,,,,,,,,,,,,,,,,,,,,,,,,,,,,,,
,,2,1.8523,2,1.8523,0,15,15,88,1,92,broom,flower,,90386,001,2022-04-24_15h40.20.799,SPAMnetsValid,2021.1.4,Win32,143.9884809,,,,,,,,,,,,,,,,,,,,,,,,,,,,,,,,,,,,,,,,,,,,,,,,,,,,,,,,,,,,,,,,,,,,,,,,,,,,,,,,,,,,,,,,,
,,1,1.9841,1,1.9841,0,16,16,5,1,13,broom,yogurt,,90386,001,2022-04-24_15h40.20.799,SPAMnetsValid,2021.1.4,Win32,143.9884809,,,,,,,,,,,,,,,,,,,,,,,,,,,,,,,,,,,,,,,,,,,,,,,,,,,,,,,,,,,,,,,,,,,,,,,,,,,,,,,,,,,,,,,,,
,,9,1.1974,9,1.1974,0,17,17,58,1,94,kitchen,microwave,,90386,001,2022-04-24_15h40.20.799,SPAMnetsValid,2021.1.4,Win32,143.9884809,,,,,,,,,,,,,,,,,,,,,,,,,,,,,,,,,,,,,,,,,,,,,,,,,,,,,,,,,,,,,,,,,,,,,,,,,,,,,,,,,,,,,,,,,
,,4,3.4213,4,3.4213,0,18,18,41,1,19,microwave,pretzel,,90386,001,2022-04-24_15h40.20.799,SPAMnetsValid,2021.1.4,Win32,143.9884809,,,,,,,,,,,,,,,,,,,,,,,,,,,,,,,,,,,,,,,,,,,,,,,,,,,,,,,,,,,,,,,,,,,,,,,,,,,,,,,,,,,,,,,,,
,,4,2.4071,4,2.4071,0,19,19,77,1,7,melon,tree,,90386,001,2022-04-24_15h40.20.799,SPAMnetsValid,2021.1.4,Win32,143.9884809,,,,,,,,,,,,,,,,,,,,,,,,,,,,,,,,,,,,,,,,,,,,,,,,,,,,,,,,,,,,,,,,,,,,,,,,,,,,,,,,,,,,,,,,,
,,8,1.9312,8,1.9312,0,20,20,19,1,76,garden,rose,,90386,001,2022-04-24_15h40.20.799,SPAMnetsValid,2021.1.4,Win32,143.9884809,,,,,,,,,,,,,,,,,,,,,,,,,,,,,,,,,,,,,,,,,,,,,,,,,,,,,,,,,,,,,,,,,,,,,,,,,,,,,,,,,,,,,,,,,
,,4,2.484,4,2.484,0,21,21,20,1,39,melon,pretzel,,90386,001,2022-04-24_15h40.20.799,SPAMnetsValid,2021.1.4,Win32,143.9884809,,,,,,,,,,,,,,,,,,,,,,,,,,,,,,,,,,,,,,,,,,,,,,,,,,,,,,,,,,,,,,,,,,,,,,,,,,,,,,,,,,,,,,,,,
,,3,1.6447,3,1.6447,0,22,22,32,1,40,broom,cake,,90386,001,2022-04-24_15h40.20.799,SPAMnetsValid,2021.1.4,Win32,143.9884809,,,,,,,,,,,,,,,,,,,,,,,,,,,,,,,,,,,,,,,,,,,,,,,,,,,,,,,,,,,,,,,,,,,,,,,,,,,,,,,,,,,,,,,,,
,,3,0.8553,3,0.8553,0,23,23,59,1,8,broom,melon,,90386,001,2022-04-24_15h40.20.799,SPAMnetsValid,2021.1.4,Win32,143.9884809,,,,,,,,,,,,,,,,,,,,,,,,,,,,,,,,,,,,,,,,,,,,,,,,,,,,,,,,,,,,,,,,,,,,,,,,,,,,,,,,,,,,,,,,,
,,3,1.4785,3,1.4785,0,24,24,37,1,58,garden,oven,,90386,001,2022-04-24_15h40.20.799,SPAMnetsValid,2021.1.4,Win32,143.9884809,,,,,,,,,,,,,,,,,,,,,,,,,,,,,,,,,,,,,,,,,,,,,,,,,,,,,,,,,,,,,,,,,,,,,,,,,,,,,,,,,,,,,,,,,
,,2,1.8649,2,1.8649,0,25,25,25,1,23,flower,microwave,,90386,001,2022-04-24_15h40.20.799,SPAMnetsValid,2021.1.4,Win32,143.9884809,,,,,,,,,,,,,,,,,,,,,,,,,,,,,,,,,,,,,,,,,,,,,,,,,,,,,,,,,,,,,,,,,,,,,,,,,,,,,,,,,,,,,,,,,
,,3,1.4371,3,1.4371,0,26,26,57,1,62,kitchen,rose,,90386,001,2022-04-24_15h40.20.799,SPAMnetsValid,2021.1.4,Win32,143.9884809,,,,,,,,,,,,,,,,,,,,,,,,,,,,,,,,,,,,,,,,,,,,,,,,,,,,,,,,,,,,,,,,,,,,,,,,,,,,,,,,,,,,,,,,,
,,6,2.3277,6,2.3277,0,27,27,96,1,82,cake,kitchen,,90386,001,2022-04-24_15h40.20.799,SPAMnetsValid,2021.1.4,Win32,143.9884809,,,,,,,,,,,,,,,,,,,,,,,,,,,,,,,,,,,,,,,,,,,,,,,,,,,,,,,,,,,,,,,,,,,,,,,,,,,,,,,,,,,,,,,,,
,,4,2.7487,4,2.7487,0,28,28,92,1,44,cookie,melon,,90386,001,2022-04-24_15h40.20.799,SPAMnetsValid,2021.1.4,Win32,143.9884809,,,,,,,,,,,,,,,,,,,,,,,,,,,,,,,,,,,,,,,,,,,,,,,,,,,,,,,,,,,,,,,,,,,,,,,,,,,,,,,,,,,,,,,,,
,,6,1.6326,6,1.6326,0,29,29,51,1,47,onion,tomato,,90386,001,2022-04-24_15h40.20.799,SPAMnetsValid,2021.1.4,Win32,143.9884809,,,,,,,,,,,,,,,,,,,,,,,,,,,,,,,,,,,,,,,,,,,,,,,,,,,,,,,,,,,,,,,,,,,,,,,,,,,,,,,,,,,,,,,,,
,,7,1.6075,7,1.6075,0,30,30,86,1,51,onion,strawberry,,90386,001,2022-04-24_15h40.20.799,SPAMnetsValid,2021.1.4,Win32,143.9884809,,,,,,,,,,,,,,,,,,,,,,,,,,,,,,,,,,,,,,,,,,,,,,,,,,,,,,,,,,,,,,,,,,,,,,,,,,,,,,,,,,,,,,,,,
,,6,3.802,6,3.802,0,31,31,95,1,52,carrot,tomato,,90386,001,2022-04-24_15h40.20.799,SPAMnetsValid,2021.1.4,Win32,143.9884809,,,,,,,,,,,,,,,,,,,,,,,,,,,,,,,,,,,,,,,,,,,,,,,,,,,,,,,,,,,,,,,,,,,,,,,,,,,,,,,,,,,,,,,,,
,,6,2.9452,6,2.9452,0,32,32,45,1,10,flower,onion,,90386,001,2022-04-24_15h40.20.799,SPAMnetsValid,2021.1.4,Win32,143.9884809,,,,,,,,,,,,,,,,,,,,,,,,,,,,,,,,,,,,,,,,,,,,,,,,,,,,,,,,,,,,,,,,,,,,,,,,,,,,,,,,,,,,,,,,,
,,6,4.2791,6,4.2791,0,33,33,73,1,50,carrot,rose,,90386,001,2022-04-24_15h40.20.799,SPAMnetsValid,2021.1.4,Win32,143.9884809,,,,,,,,,,,,,,,,,,,,,,,,,,,,,,,,,,,,,,,,,,,,,,,,,,,,,,,,,,,,,,,,,,,,,,,,,,,,,,,,,,,,,,,,,
,,3,2.5384,3,2.5384,0,34,34,84,1,91,microwave,rose,,90386,001,2022-04-24_15h40.20.799,SPAMnetsValid,2021.1.4,Win32,143.9884809,,,,,,,,,,,,,,,,,,,,,,,,,,,,,,,,,,,,,,,,,,,,,,,,,,,,,,,,,,,,,,,,,,,,,,,,,,,,,,,,,,,,,,,,,
,,3,3.32,3,3.32,0,35,35,0,1,53,garden,pretzel,,90386,001,2022-04-24_15h40.20.799,SPAMnetsValid,2021.1.4,Win32,143.9884809,,,,,,,,,,,,,,,,,,,,,,,,,,,,,,,,,,,,,,,,,,,,,,,,,,,,,,,,,,,,,,,,,,,,,,,,,,,,,,,,,,,,,,,,,
,,4,6.0601,4,6.0601,0,36,36,71,1,38,pretzel,refrigerator,,90386,001,2022-04-24_15h40.20.799,SPAMnetsValid,2021.1.4,Win32,143.9884809,,,,,,,,,,,,,,,,,,,,,,,,,,,,,,,,,,,,,,,,,,,,,,,,,,,,,,,,,,,,,,,,,,,,,,,,,,,,,,,,,,,,,,,,,
,,3,3.1018,3,3.1018,0,37,37,60,1,89,chocolate,rose,,90386,001,2022-04-24_15h40.20.799,SPAMnetsValid,2021.1.4,Win32,143.9884809,,,,,,,,,,,,,,,,,,,,,,,,,,,,,,,,,,,,,,,,,,,,,,,,,,,,,,,,,,,,,,,,,,,,,,,,,,,,,,,,,,,,,,,,,
,,2,1.0331,2,1.0331,0,38,38,55,1,1,rose,yogurt,,90386,001,2022-04-24_15h40.20.799,SPAMnetsValid,2021.1.4,Win32,143.9884809,,,,,,,,,,,,,,,,,,,,,,,,,,,,,,,,,,,,,,,,,,,,,,,,,,,,,,,,,,,,,,,,,,,,,,,,,,,,,,,,,,,,,,,,,
,,6,1.5546,6,1.5546,0,39,39,80,1,61,strawberry,tomato,,90386,001,2022-04-24_15h40.20.799,SPAMnetsValid,2021.1.4,Win32,143.9884809,,,,,,,,,,,,,,,,,,,,,,,,,,,,,,,,,,,,,,,,,,,,,,,,,,,,,,,,,,,,,,,,,,,,,,,,,,,,,,,,,,,,,,,,,
,,2,1.5392,2,1.5392,0,40,40,85,1,90,cactus,cake,,90386,001,2022-04-24_15h40.20.799,SPAMnetsValid,2021.1.4,Win32,143.9884809,,,,,,,,,,,,,,,,,,,,,,,,,,,,,,,,,,,,,,,,,,,,,,,,,,,,,,,,,,,,,,,,,,,,,,,,,,,,,,,,,,,,,,,,,
,,2,2.8897,2,2.8897,0,41,41,11,1,37,garden,refrigerator,,90386,001,2022-04-24_15h40.20.799,SPAMnetsValid,2021.1.4,Win32,143.9884809,,,,,,,,,,,,,,,,,,,,,,,,,,,,,,,,,,,,,,,,,,,,,,,,,,,,,,,,,,,,,,,,,,,,,,,,,,,,,,,,,,,,,,,,,
,,6,1.8908,6,1.8908,0,42,42,48,1,66,melon,yogurt,,90386,001,2022-04-24_15h40.20.799,SPAMnetsValid,2021.1.4,Win32,143.9884809,,,,,,,,,,,,,,,,,,,,,,,,,,,,,,,,,,,,,,,,,,,,,,,,,,,,,,,,,,,,,,,,,,,,,,,,,,,,,,,,,,,,,,,,,
,,3,0.9335,3,0.9335,0,43,43,90,1,95,broom,refrigerator,,90386,001,2022-04-24_15h40.20.799,SPAMnetsValid,2021.1.4,Win32,143.9884809,,,,,,,,,,,,,,,,,,,,,,,,,,,,,,,,,,,,,,,,,,,,,,,,,,,,,,,,,,,,,,,,,,,,,,,,,,,,,,,,,,,,,,,,,
,,3,0.758,3,0.758,0,44,44,35,1,55,tomato,tree,,90386,001,2022-04-24_15h40.20.799,SPAMnetsValid,2021.1.4,Win32,143.9884809,,,,,,,,,,,,,,,,,,,,,,,,,,,,,,,,,,,,,,,,,,,,,,,,,,,,,,,,,,,,,,,,,,,,,,,,,,,,,,,,,,,,,,,,,
,,2,1.2648,2,1.2648,0,45,45,65,1,46,garden,yogurt,,90386,001,2022-04-24_15h40.20.799,SPAMnetsValid,2021.1.4,Win32,143.9884809,,,,,,,,,,,,,,,,,,,,,,,,,,,,,,,,,,,,,,,,,,,,,,,,,,,,,,,,,,,,,,,,,,,,,,,,,,,,,,,,,,,,,,,,,
,,2,1.4457,2,1.4457,0,46,46,24,1,17,carrot,melon,,90386,001,2022-04-24_15h40.20.799,SPAMnetsValid,2021.1.4,Win32,143.9884809,,,,,,,,,,,,,,,,,,,,,,,,,,,,,,,,,,,,,,,,,,,,,,,,,,,,,,,,,,,,,,,,,,,,,,,,,,,,,,,,,,,,,,,,,
,,2,1.0299,2,1.0299,0,47,47,23,1,65,broom,garden,,90386,001,2022-04-24_15h40.20.799,SPAMnetsValid,2021.1.4,Win32,143.9884809,,,,,,,,,,,,,,,,,,,,,,,,,,,,,,,,,,,,,,,,,,,,,,,,,,,,,,,,,,,,,,,,,,,,,,,,,,,,,,,,,,,,,,,,,
,,3,1.9344,3,1.9344,0,48,48,28,1,84,oven,tomato,,90386,001,2022-04-24_15h40.20.799,SPAMnetsValid,2021.1.4,Win32,143.9884809,,,,,,,,,,,,,,,,,,,,,,,,,,,,,,,,,,,,,,,,,,,,,,,,,,,,,,,,,,,,,,,,,,,,,,,,,,,,,,,,,,,,,,,,,
,,2,0.9843,2,0.9843,0,49,49,8,1,43,chocolate,tomato,,90386,001,2022-04-24_15h40.20.799,SPAMnetsValid,2021.1.4,Win32,143.9884809,,,,,,,,,,,,,,,,,,,,,,,,,,,,,,,,,,,,,,,,,,,,,,,,,,,,,,,,,,,,,,,,,,,,,,,,,,,,,,,,,,,,,,,,,
,,2,1.134,2,1.134,0,50,50,66,1,20,rose,tree,,90386,001,2022-04-24_15h40.20.799,SPAMnetsValid,2021.1.4,Win32,143.9884809,,,,,,,,,,,,,,,,,,,,,,,,,,,,,,,,,,,,,,,,,,,,,,,,,,,,,,,,,,,,,,,,,,,,,,,,,,,,,,,,,,,,,,,,,
,,4,1.3789,4,1.3789,0,51,51,27,1,72,broom,onion,,90386,001,2022-04-24_15h40.20.799,SPAMnetsValid,2021.1.4,Win32,143.9884809,,,,,,,,,,,,,,,,,,,,,,,,,,,,,,,,,,,,,,,,,,,,,,,,,,,,,,,,,,,,,,,,,,,,,,,,,,,,,,,,,,,,,,,,,
,,4,1.3358,4,1.3358,0,52,52,18,1,85,cake,tree,,90386,001,2022-04-24_15h40.20.799,SPAMnetsValid,2021.1.4,Win32,143.9884809,,,,,,,,,,,,,,,,,,,,,,,,,,,,,,,,,,,,,,,,,,,,,,,,,,,,,,,,,,,,,,,,,,,,,,,,,,,,,,,,,,,,,,,,,
,,6,1.7373,6,1.7373,0,53,53,72,1,59,rose,strawberry,,90386,001,2022-04-24_15h40.20.799,SPAMnetsValid,2021.1.4,Win32,143.9884809,,,,,,,,,,,,,,,,,,,,,,,,,,,,,,,,,,,,,,,,,,,,,,,,,,,,,,,,,,,,,,,,,,,,,,,,,,,,,,,,,,,,,,,,,
,,1,1.9925,1,1.9925,0,54,54,43,1,11,refrigerator,tree,,90386,001,2022-04-24_15h40.20.799,SPAMnetsValid,2021.1.4,Win32,143.9884809,,,,,,,,,,,,,,,,,,,,,,,,,,,,,,,,,,,,,,,,,,,,,,,,,,,,,,,,,,,,,,,,,,,,,,,,,,,,,,,,,,,,,,,,,
,,9,1.7411,9,1.7411,0,55,55,10,1,191,cake,cake,CHECK,90386,001,2022-04-24_15h40.20.799,SPAMnetsValid,2021.1.4,Win32,143.9884809,,,,,,,,,,,,,,,,,,,,,,,,,,,,,,,,,,,,,,,,,,,,,,,,,,,,,,,,,,,,,,,,,,,,,,,,,,,,,,,,,,,,,,,,,
,,5,5.0758,5,5.0758,0,56,56,36,1,12,cookie,yogurt,,90386,001,2022-04-24_15h40.20.799,SPAMnetsValid,2021.1.4,Win32,143.9884809,,,,,,,,,,,,,,,,,,,,,,,,,,,,,,,,,,,,,,,,,,,,,,,,,,,,,,,,,,,,,,,,,,,,,,,,,,,,,,,,,,,,,,,,,
,,9,1.3368,9,1.3368,0,57,57,53,1,192,microwave,microwave,CHECK,90386,001,2022-04-24_15h40.20.799,SPAMnetsValid,2021.1.4,Win32,143.9884809,,,,,,,,,,,,,,,,,,,,,,,,,,,,,,,,,,,,,,,,,,,,,,,,,,,,,,,,,,,,,,,,,,,,,,,,,,,,,,,,,,,,,,,,,
,,4,1.1279,4,1.1279,0,58,58,69,1,45,onion,pretzel,,90386,001,2022-04-24_15h40.20.799,SPAMnetsValid,2021.1.4,Win32,143.9884809,,,,,,,,,,,,,,,,,,,,,,,,,,,,,,,,,,,,,,,,,,,,,,,,,,,,,,,,,,,,,,,,,,,,,,,,,,,,,,,,,,,,,,,,,
,,4,1.8946,4,1.8946,0,59,59,63,1,21,cake,onion,,90386,001,2022-04-24_15h40.20.799,SPAMnetsValid,2021.1.4,Win32,143.9884809,,,,,,,,,,,,,,,,,,,,,,,,,,,,,,,,,,,,,,,,,,,,,,,,,,,,,,,,,,,,,,,,,,,,,,,,,,,,,,,,,,,,,,,,,
,,3,1.038,3,1.038,0,60,60,13,1,26,tomato,yogurt,,90386,001,2022-04-24_15h40.20.799,SPAMnetsValid,2021.1.4,Win32,143.9884809,,,,,,,,,,,,,,,,,,,,,,,,,,,,,,,,,,,,,,,,,,,,,,,,,,,,,,,,,,,,,,,,,,,,,,,,,,,,,,,,,,,,,,,,,
,,3,1.2755,3,1.2755,0,61,61,81,1,60,cactus,onion,,90386,001,2022-04-24_15h40.20.799,SPAMnetsValid,2021.1.4,Win32,143.9884809,,,,,,,,,,,,,,,,,,,,,,,,,,,,,,,,,,,,,,,,,,,,,,,,,,,,,,,,,,,,,,,,,,,,,,,,,,,,,,,,,,,,,,,,,
,,1,1.7196,1,1.7196,0,62,62,4,1,83,broom,carrot,,90386,001,2022-04-24_15h40.20.799,SPAMnetsValid,2021.1.4,Win32,143.9884809,,,,,,,,,,,,,,,,,,,,,,,,,,,,,,,,,,,,,,,,,,,,,,,,,,,,,,,,,,,,,,,,,,,,,,,,,,,,,,,,,,,,,,,,,
,,1,1.9878,1,1.9878,0,63,63,91,1,2,kitchen,onion,,90386,001,2022-04-24_15h40.20.799,SPAMnetsValid,2021.1.4,Win32,143.9884809,,,,,,,,,,,,,,,,,,,,,,,,,,,,,,,,,,,,,,,,,,,,,,,,,,,,,,,,,,,,,,,,,,,,,,,,,,,,,,,,,,,,,,,,,
,,1,0.8551,1,0.8551,0,64,64,74,1,70,chocolate,onion,,90386,001,2022-04-24_15h40.20.799,SPAMnetsValid,2021.1.4,Win32,143.9884809,,,,,,,,,,,,,,,,,,,,,,,,,,,,,,,,,,,,,,,,,,,,,,,,,,,,,,,,,,,,,,,,,,,,,,,,,,,,,,,,,,,,,,,,,
,,4,1.3067,4,1.3067,0,65,65,75,1,69,carrot,refrigerator,,90386,001,2022-04-24_15h40.20.799,SPAMnetsValid,2021.1.4,Win32,143.9884809,,,,,,,,,,,,,,,,,,,,,,,,,,,,,,,,,,,,,,,,,,,,,,,,,,,,,,,,,,,,,,,,,,,,,,,,,,,,,,,,,,,,,,,,,
,,2,1.5754,2,1.5754,0,66,66,9,1,75,cookie,onion,,90386,001,2022-04-24_15h40.20.799,SPAMnetsValid,2021.1.4,Win32,143.9884809,,,,,,,,,,,,,,,,,,,,,,,,,,,,,,,,,,,,,,,,,,,,,,,,,,,,,,,,,,,,,,,,,,,,,,,,,,,,,,,,,,,,,,,,,
,,2,1.9921,2,1.9921,0,67,67,46,1,41,broom,cactus,,90386,001,2022-04-24_15h40.20.799,SPAMnetsValid,2021.1.4,Win32,143.9884809,,,,,,,,,,,,,,,,,,,,,,,,,,,,,,,,,,,,,,,,,,,,,,,,,,,,,,,,,,,,,,,,,,,,,,,,,,,,,,,,,,,,,,,,,
,,8,0.8973,8,0.8973,0,68,68,76,1,36,broom,kitchen,,90386,001,2022-04-24_15h40.20.799,SPAMnetsValid,2021.1.4,Win32,143.9884809,,,,,,,,,,,,,,,,,,,,,,,,,,,,,,,,,,,,,,,,,,,,,,,,,,,,,,,,,,,,,,,,,,,,,,,,,,,,,,,,,,,,,,,,,
,,2,1.0677,2,1.0677,0,69,69,34,1,29,chocolate,melon,,90386,001,2022-04-24_15h40.20.799,SPAMnetsValid,2021.1.4,Win32,143.9884809,,,,,,,,,,,,,,,,,,,,,,,,,,,,,,,,,,,,,,,,,,,,,,,,,,,,,,,,,,,,,,,,,,,,,,,,,,,,,,,,,,,,,,,,,
,,4,1.41,4,1.41,0,70,70,49,1,57,flower,kitchen,,90386,001,2022-04-24_15h40.20.799,SPAMnetsValid,2021.1.4,Win32,143.9884809,,,,,,,,,,,,,,,,,,,,,,,,,,,,,,,,,,,,,,,,,,,,,,,,,,,,,,,,,,,,,,,,,,,,,,,,,,,,,,,,,,,,,,,,,
,,9,2.1712,9,2.1712,0,71,71,30,1,3,cake,oven,,90386,001,2022-04-24_15h40.20.799,SPAMnetsValid,2021.1.4,Win32,143.9884809,,,,,,,,,,,,,,,,,,,,,,,,,,,,,,,,,,,,,,,,,,,,,,,,,,,,,,,,,,,,,,,,,,,,,,,,,,,,,,,,,,,,,,,,,
,,3,5.1501,3,5.1501,0,72,72,78,1,30,cookie,pretzel,,90386,001,2022-04-24_15h40.20.799,SPAMnetsValid,2021.1.4,Win32,143.9884809,,,,,,,,,,,,,,,,,,,,,,,,,,,,,,,,,,,,,,,,,,,,,,,,,,,,,,,,,,,,,,,,,,,,,,,,,,,,,,,,,,,,,,,,,
,,4,1.5356,4,1.5356,0,73,73,15,1,48,flower,oven,,90386,001,2022-04-24_15h40.20.799,SPAMnetsValid,2021.1.4,Win32,143.9884809,,,,,,,,,,,,,,,,,,,,,,,,,,,,,,,,,,,,,,,,,,,,,,,,,,,,,,,,,,,,,,,,,,,,,,,,,,,,,,,,,,,,,,,,,
,,1,1.1888,1,1.1888,0,74,74,67,1,54,chocolate,yogurt,,90386,001,2022-04-24_15h40.20.799,SPAMnetsValid,2021.1.4,Win32,143.9884809,,,,,,,,,,,,,,,,,,,,,,,,,,,,,,,,,,,,,,,,,,,,,,,,,,,,,,,,,,,,,,,,,,,,,,,,,,,,,,,,,,,,,,,,,
,,9,2.7743,9,2.7743,0,75,75,64,1,9,kitchen,refrigerator,,90386,001,2022-04-24_15h40.20.799,SPAMnetsValid,2021.1.4,Win32,143.9884809,,,,,,,,,,,,,,,,,,,,,,,,,,,,,,,,,,,,,,,,,,,,,,,,,,,,,,,,,,,,,,,,,,,,,,,,,,,,,,,,,,,,,,,,,
,,2,1.6091,2,1.6091,0,76,76,12,1,67,flower,yogurt,,90386,001,2022-04-24_15h40.20.799,SPAMnetsValid,2021.1.4,Win32,143.9884809,,,,,,,,,,,,,,,,,,,,,,,,,,,,,,,,,,,,,,,,,,,,,,,,,,,,,,,,,,,,,,,,,,,,,,,,,,,,,,,,,,,,,,,,,
,,7,3.6332,7,3.6332,0,77,77,68,1,24,cookie,tomato,,90386,001,2022-04-24_15h40.20.799,SPAMnetsValid,2021.1.4,Win32,143.9884809,,,,,,,,,,,,,,,,,,,,,,,,,,,,,,,,,,,,,,,,,,,,,,,,,,,,,,,,,,,,,,,,,,,,,,,,,,,,,,,,,,,,,,,,,
,,2,1.082,2,1.082,0,78,78,89,1,80,chocolate,tree,,90386,001,2022-04-24_15h40.20.799,SPAMnetsValid,2021.1.4,Win32,143.9884809,,,,,,,,,,,,,,,,,,,,,,,,,,,,,,,,,,,,,,,,,,,,,,,,,,,,,,,,,,,,,,,,,,,,,,,,,,,,,,,,,,,,,,,,,
,,2,1.2504,2,1.2504,0,79,79,50,1,81,pretzel,yogurt,,90386,001,2022-04-24_15h40.20.799,SPAMnetsValid,2021.1.4,Win32,143.9884809,,,,,,,,,,,,,,,,,,,,,,,,,,,,,,,,,,,,,,,,,,,,,,,,,,,,,,,,,,,,,,,,,,,,,,,,,,,,,,,,,,,,,,,,,
,,2,1.0166,2,1.0166,0,80,80,22,1,16,chocolate,flower,,90386,001,2022-04-24_15h40.20.799,SPAMnetsValid,2021.1.4,Win32,143.9884809,,,,,,,,,,,,,,,,,,,,,,,,,,,,,,,,,,,,,,,,,,,,,,,,,,,,,,,,,,,,,,,,,,,,,,,,,,,,,,,,,,,,,,,,,
,,9,1.929,9,1.929,0,81,81,42,1,77,refrigerator,yogurt,,90386,001,2022-04-24_15h40.20.799,SPAMnetsValid,2021.1.4,Win32,143.9884809,,,,,,,,,,,,,,,,,,,,,,,,,,,,,,,,,,,,,,,,,,,,,,,,,,,,,,,,,,,,,,,,,,,,,,,,,,,,,,,,,,,,,,,,,
,,2,1.0378,2,1.0378,0,82,82,40,1,74,broom,pretzel,,90386,001,2022-04-24_15h40.20.799,SPAMnetsValid,2021.1.4,Win32,143.9884809,,,,,,,,,,,,,,,,,,,,,,,,,,,,,,,,,,,,,,,,,,,,,,,,,,,,,,,,,,,,,,,,,,,,,,,,,,,,,,,,,,,,,,,,,
,,9,1.0707,9,1.0707,0,83,83,93,1,63,cake,cookie,,90386,001,2022-04-24_15h40.20.799,SPAMnetsValid,2021.1.4,Win32,143.9884809,,,,,,,,,,,,,,,,,,,,,,,,,,,,,,,,,,,,,,,,,,,,,,,,,,,,,,,,,,,,,,,,,,,,,,,,,,,,,,,,,,,,,,,,,
,,9,2.9212,9,2.9212,0,84,84,87,1,79,garden,strawberry,,90386,001,2022-04-24_15h40.20.799,SPAMnetsValid,2021.1.4,Win32,143.9884809,,,,,,,,,,,,,,,,,,,,,,,,,,,,,,,,,,,,,,,,,,,,,,,,,,,,,,,,,,,,,,,,,,,,,,,,,,,,,,,,,,,,,,,,,
,,5,2.4835,5,2.4835,0,85,85,33,1,32,cake,microwave,,90386,001,2022-04-24_15h40.20.799,SPAMnetsValid,2021.1.4,Win32,143.9884809,,,,,,,,,,,,,,,,,,,,,,,,,,,,,,,,,,,,,,,,,,,,,,,,,,,,,,,,,,,,,,,,,,,,,,,,,,,,,,,,,,,,,,,,,
,,1,1.2721,1,1.2721,0,86,86,1,1,31,cactus,pretzel,,90386,001,2022-04-24_15h40.20.799,SPAMnetsValid,2021.1.4,Win32,143.9884809,,,,,,,,,,,,,,,,,,,,,,,,,,,,,,,,,,,,,,,,,,,,,,,,,,,,,,,,,,,,,,,,,,,,,,,,,,,,,,,,,,,,,,,,,
,,2,23.9939,2,23.9939,0,87,87,47,1,73,broom,chocolate,,90386,001,2022-04-24_15h40.20.799,SPAMnetsValid,2021.1.4,Win32,143.9884809,,,,,,,,,,,,,,,,,,,,,,,,,,,,,,,,,,,,,,,,,,,,,,,,,,,,,,,,,,,,,,,,,,,,,,,,,,,,,,,,,,,,,,,,,
,,2,0.687,2,0.687,0,88,88,38,1,88,cactus,melon,,90386,001,2022-04-24_15h40.20.799,SPAMnetsValid,2021.1.4,Win32,143.9884809,,,,,,,,,,,,,,,,,,,,,,,,,,,,,,,,,,,,,,,,,,,,,,,,,,,,,,,,,,,,,,,,,,,,,,,,,,,,,,,,,,,,,,,,,
,,2,1.6946,2,1.6946,0,89,89,39,1,15,onion,oven,,90386,001,2022-04-24_15h40.20.799,SPAMnetsValid,2021.1.4,Win32,143.9884809,,,,,,,,,,,,,,,,,,,,,,,,,,,,,,,,,,,,,,,,,,,,,,,,,,,,,,,,,,,,,,,,,,,,,,,,,,,,,,,,,,,,,,,,,
,,2,0.9019,2,0.9019,0,90,90,61,1,71,broom,rose,,90386,001,2022-04-24_15h40.20.799,SPAMnetsValid,2021.1.4,Win32,143.9884809,,,,,,,,,,,,,,,,,,,,,,,,,,,,,,,,,,,,,,,,,,,,,,,,,,,,,,,,,,,,,,,,,,,,,,,,,,,,,,,,,,,,,,,,,
,,2,0.6802,2,0.6802,0,91,91,70,1,5,oven,tree,,90386,001,2022-04-24_15h40.20.799,SPAMnetsValid,2021.1.4,Win32,143.9884809,,,,,,,,,,,,,,,,,,,,,,,,,,,,,,,,,,,,,,,,,,,,,,,,,,,,,,,,,,,,,,,,,,,,,,,,,,,,,,,,,,,,,,,,,
,,7,1.7572,7,1.7572,0,92,92,83,1,6,garden,onion,,90386,001,2022-04-24_15h40.20.799,SPAMnetsValid,2021.1.4,Win32,143.9884809,,,,,,,,,,,,,,,,,,,,,,,,,,,,,,,,,,,,,,,,,,,,,,,,,,,,,,,,,,,,,,,,,,,,,,,,,,,,,,,,,,,,,,,,,
,,2,0.9035,2,0.9035,0,93,93,16,1,14,broom,cookie,,90386,001,2022-04-24_15h40.20.799,SPAMnetsValid,2021.1.4,Win32,143.9884809,,,,,,,,,,,,,,,,,,,,,,,,,,,,,,,,,,,,,,,,,,,,,,,,,,,,,,,,,,,,,,,,,,,,,,,,,,,,,,,,,,,,,,,,,
,,6,2.4036,6,2.4036,0,94,94,21,1,56,cactus,tree,,90386,001,2022-04-24_15h40.20.799,SPAMnetsValid,2021.1.4,Win32,143.9884809,,,,,,,,,,,,,,,,,,,,,,,,,,,,,,,,,,,,,,,,,,,,,,,,,,,,,,,,,,,,,,,,,,,,,,,,,,,,,,,,,,,,,,,,,
,,2,1.3452,2,1.3452,0,95,95,17,1,27,cactus,cookie,,90386,001,2022-04-24_15h40.20.799,SPAMnetsValid,2021.1.4,Win32,143.9884809,,,,,,,,,,,,,,,,,,,,,,,,,,,,,,,,,,,,,,,,,,,,,,,,,,,,,,,,,,,,,,,,,,,,,,,,,,,,,,,,,,,,,,,,,
,,9,1.6723,9,1.6723,0,96,96,94,1,68,flower,tomato,,90386,001,2022-04-24_15h40.20.799,SPAMnetsValid,2021.1.4,Win32,143.9884809,,,,,,,,,,,,,,,,,,,,,,,,,,,,,,,,,,,,,,,,,,,,,,,,,,,,,,,,,,,,,,,,,,,,,,,,,,,,,,,,,,,,,,,,,
,,,,,,,,,,,,,,,90386,001,2022-04-24_15h40.20.799,SPAMnetsValid,2021.1.4,Win32,143.9884809,0,0,0,0,1,,,,,,,,,,,,,,,,,,,,,,,,,,,,,,,,,,,,,,,,,,,,,,,,,,,,,,,,,,,,,,,,,,,,,,,,,,,,,,,,,,,,
,,,,,,,,,,,,,,,90386,001,2022-04-24_15h40.20.799,SPAMnetsValid,2021.1.4,Win32,143.9884809,,,,,,0,0,0,0,1,1,0,,,,,,,,,,,,,,,,,,,,,,,,,,,,,,,,,,,,,,,,,,,,,,,,,,,,,,,,,,,,,,,,,,,,,,,,,,,,,
,,,,2,3.4258,,,,,,146,pretzel,tree,,90386,001,2022-04-24_15h40.20.799,SPAMnetsValid,2021.1.4,Win32,143.9884809,,,,,,,,,,,,,2,3.4258,0,0,0,80,1,,,,,,,,,,,,,,,,,,,,,,,,,,,,,,,,,,,,,,,,,,,,,,,,,,,,,,,,,,,,,,,,,,,,,,
,,,,8,2.3825,,,,,,113,refrigerator,strawberry,,90386,001,2022-04-24_15h40.20.799,SPAMnetsValid,2021.1.4,Win32,143.9884809,,,,,,,,,,,,,8,2.3825,0,1,1,56,1,,,,,,,,,,,,,,,,,,,,,,,,,,,,,,,,,,,,,,,,,,,,,,,,,,,,,,,,,,,,,,,,,,,,,,
,,,,2,121.4161,,,,,,104,garden,microwave,,90386,001,2022-04-24_15h40.20.799,SPAMnetsValid,2021.1.4,Win32,143.9884809,,,,,,,,,,,,,2,121.4161,0,2,2,81,1,,,,,,,,,,,,,,,,,,,,,,,,,,,,,,,,,,,,,,,,,,,,,,,,,,,,,,,,,,,,,,,,,,,,,,
,,,,2,1.055,,,,,,123,cookie,tree,,90386,001,2022-04-24_15h40.20.799,SPAMnetsValid,2021.1.4,Win32,143.9884809,,,,,,,,,,,,,2,1.055,0,3,3,46,1,,,,,,,,,,,,,,,,,,,,,,,,,,,,,,,,,,,,,,,,,,,,,,,,,,,,,,,,,,,,,,,,,,,,,,
,,,,8,1.4957,,,,,,170,cookie,microwave,,90386,001,2022-04-24_15h40.20.799,SPAMnetsValid,2021.1.4,Win32,143.9884809,,,,,,,,,,,,,8,1.4957,0,4,4,92,1,,,,,,,,,,,,,,,,,,,,,,,,,,,,,,,,,,,,,,,,,,,,,,,,,,,,,,,,,,,,,,,,,,,,,,
,,,,6,1.4492,,,,,,181,carrot,kitchen,,90386,001,2022-04-24_15h40.20.799,SPAMnetsValid,2021.1.4,Win32,143.9884809,,,,,,,,,,,,,6,1.4492,0,5,5,72,1,,,,,,,,,,,,,,,,,,,,,,,,,,,,,,,,,,,,,,,,,,,,,,,,,,,,,,,,,,,,,,,,,,,,,,
,,,,9,1.6812,,,,,,99,garden,melon,,90386,001,2022-04-24_15h40.20.799,SPAMnetsValid,2021.1.4,Win32,143.9884809,,,,,,,,,,,,,9,1.6812,0,6,6,17,1,,,,,,,,,,,,,,,,,,,,,,,,,,,,,,,,,,,,,,,,,,,,,,,,,,,,,,,,,,,,,,,,,,,,,,
,,,,9,1.5918,,,,,,194,cactus,cactus,CHECK,90386,001,2022-04-24_15h40.20.799,SPAMnetsValid,2021.1.4,Win32,143.9884809,,,,,,,,,,,,,9,1.5918,0,7,7,25,1,,,,,,,,,,,,,,,,,,,,,,,,,,,,,,,,,,,,,,,,,,,,,,,,,,,,,,,,,,,,,,,,,,,,,,
,,,,8,0.7392,,,,,,148,flower,melon,,90386,001,2022-04-24_15h40.20.799,SPAMnetsValid,2021.1.4,Win32,143.9884809,,,,,,,,,,,,,8,0.7392,0,8,8,23,1,,,,,,,,,,,,,,,,,,,,,,,,,,,,,,,,,,,,,,,,,,,,,,,,,,,,,,,,,,,,,,,,,,,,,,
,,,,8,5.4435,,,,,,158,cookie,oven,,90386,001,2022-04-24_15h40.20.799,SPAMnetsValid,2021.1.4,Win32,143.9884809,,,,,,,,,,,,,8,5.4435,0,9,9,27,1,,,,,,,,,,,,,,,,,,,,,,,,,,,,,,,,,,,,,,,,,,,,,,,,,,,,,,,,,,,,,,,,,,,,,,
,,,,5,2.1986,,,,,,102,chocolate,refrigerator,,90386,001,2022-04-24_15h40.20.799,SPAMnetsValid,2021.1.4,Win32,143.9884809,,,,,,,,,,,,,5,2.1986,0,10,10,76,1,,,,,,,,,,,,,,,,,,,,,,,,,,,,,,,,,,,,,,,,,,,,,,,,,,,,,,,,,,,,,,,,,,,,,,
,,,,3,3.1329,,,,,,161,kitchen,pretzel,,90386,001,2022-04-24_15h40.20.799,SPAMnetsValid,2021.1.4,Win32,143.9884809,,,,,,,,,,,,,3,3.1329,0,11,11,36,1,,,,,,,,,,,,,,,,,,,,,,,,,,,,,,,,,,,,,,,,,,,,,,,,,,,,,,,,,,,,,,,,,,,,,,
,,,,8,1.8512,,,,,,110,chocolate,cookie,,90386,001,2022-04-24_15h40.20.799,SPAMnetsValid,2021.1.4,Win32,143.9884809,,,,,,,,,,,,,8,1.8512,0,12,12,52,1,,,,,,,,,,,,,,,,,,,,,,,,,,,,,,,,,,,,,,,,,,,,,,,,,,,,,,,,,,,,,,,,,,,,,,
,,,,7,1.9554,,,,,,163,melon,refrigerator,,90386,001,2022-04-24_15h40.20.799,SPAMnetsValid,2021.1.4,Win32,143.9884809,,,,,,,,,,,,,7,1.9554,0,13,13,29,1,,,,,,,,,,,,,,,,,,,,,,,,,,,,,,,,,,,,,,,,,,,,,,,,,,,,,,,,,,,,,,,,,,,,,,
,,,,2,1.3734,,,,,,145,cactus,yogurt,,90386,001,2022-04-24_15h40.20.799,SPAMnetsValid,2021.1.4,Win32,143.9884809,,,,,,,,,,,,,2,1.3734,0,14,14,15,1,,,,,,,,,,,,,,,,,,,,,,,,,,,,,,,,,,,,,,,,,,,,,,,,,,,,,,,,,,,,,,,,,,,,,,
,,,,9,1.0622,,,,,,193,melon,melon,CHECK,90386,001,2022-04-24_15h40.20.799,SPAMnetsValid,2021.1.4,Win32,143.9884809,,,,,,,,,,,,,9,1.0622,0,15,15,86,1,,,,,,,,,,,,,,,,,,,,,,,,,,,,,,,,,,,,,,,,,,,,,,,,,,,,,,,,,,,,,,,,,,,,,,
,,,,8,1.8493,,,,,,167,carrot,garden,,90386,001,2022-04-24_15h40.20.799,SPAMnetsValid,2021.1.4,Win32,143.9884809,,,,,,,,,,,,,8,1.8493,0,16,16,47,1,,,,,,,,,,,,,,,,,,,,,,,,,,,,,,,,,,,,,,,,,,,,,,,,,,,,,,,,,,,,,,,,,,,,,,
,,,,3,1.5018,,,,,,137,microwave,tree,,90386,001,2022-04-24_15h40.20.799,SPAMnetsValid,2021.1.4,Win32,143.9884809,,,,,,,,,,,,,3,1.5018,0,17,17,63,1,,,,,,,,,,,,,,,,,,,,,,,,,,,,,,,,,,,,,,,,,,,,,,,,,,,,,,,,,,,,,,,,,,,,,,
,,,,7,1.6512,,,,,,117,melon,strawberry,,90386,001,2022-04-24_15h40.20.799,SPAMnetsValid,2021.1.4,Win32,143.9884809,,,,,,,,,,,,,7,1.6512,0,18,18,11,1,,,,,,,,,,,,,,,,,,,,,,,,,,,,,,,,,,,,,,,,,,,,,,,,,,,,,,,,,,,,,,,,,,,,,,
,,,,1,1.6181,,,,,,105,cactus,oven,,90386,001,2022-04-24_15h40.20.799,SPAMnetsValid,2021.1.4,Win32,143.9884809,,,,,,,,,,,,,1,1.6181,0,19,19,13,1,,,,,,,,,,,,,,,,,,,,,,,,,,,,,,,,,,,,,,,,,,,,,,,,,,,,,,,,,,,,,,,,,,,,,,
,,,,5,2.0515,,,,,,175,melon,onion,,90386,001,2022-04-24_15h40.20.799,SPAMnetsValid,2021.1.4,Win32,143.9884809,,,,,,,,,,,,,5,2.0515,0,20,20,41,1,,,,,,,,,,,,,,,,,,,,,,,,,,,,,,,,,,,,,,,,,,,,,,,,,,,,,,,,,,,,,,,,,,,,,,
,,,,5,0.8845,,,,,,141,melon,tomato,,90386,001,2022-04-24_15h40.20.799,SPAMnetsValid,2021.1.4,Win32,143.9884809,,,,,,,,,,,,,5,0.8845,0,21,21,70,1,,,,,,,,,,,,,,,,,,,,,,,,,,,,,,,,,,,,,,,,,,,,,,,,,,,,,,,,,,,,,,,,,,,,,,
,,,,5,2.3813,,,,,,107,rose,tomato,,90386,001,2022-04-24_15h40.20.799,SPAMnetsValid,2021.1.4,Win32,143.9884809,,,,,,,,,,,,,5,2.3813,0,22,22,26,1,,,,,,,,,,,,,,,,,,,,,,,,,,,,,,,,,,,,,,,,,,,,,,,,,,,,,,,,,,,,,,,,,,,,,,
,,,,2,1.7812,,,,,,101,cactus,kitchen,,90386,001,2022-04-24_15h40.20.799,SPAMnetsValid,2021.1.4,Win32,143.9884809,,,,,,,,,,,,,2,1.7812,0,23,23,54,1,,,,,,,,,,,,,,,,,,,,,,,,,,,,,,,,,,,,,,,,,,,,,,,,,,,,,,,,,,,,,,,,,,,,,,
,,,,6,1.7349,,,,,,151,microwave,onion,,90386,001,2022-04-24_15h40.20.799,SPAMnetsValid,2021.1.4,Win32,143.9884809,,,,,,,,,,,,,6,1.7349,0,24,24,6,1,,,,,,,,,,,,,,,,,,,,,,,,,,,,,,,,,,,,,,,,,,,,,,,,,,,,,,,,,,,,,,,,,,,,,,
,,,,2,2.135,,,,,,190,microwave,strawberry,,90386,001,2022-04-24_15h40.20.799,SPAMnetsValid,2021.1.4,Win32,143.9884809,,,,,,,,,,,,,2,2.135,0,25,25,90,1,,,,,,,,,,,,,,,,,,,,,,,,,,,,,,,,,,,,,,,,,,,,,,,,,,,,,,,,,,,,,,,,,,,,,,
,,,,2,1.5158,,,,,,157,refrigerator,rose,,90386,001,2022-04-24_15h40.20.799,SPAMnetsValid,2021.1.4,Win32,143.9884809,,,,,,,,,,,,,2,1.5158,0,26,26,64,1,,,,,,,,,,,,,,,,,,,,,,,,,,,,,,,,,,,,,,,,,,,,,,,,,,,,,,,,,,,,,,,,,,,,,,
,,,,6,1.5304,,,,,,142,garden,tree,,90386,001,2022-04-24_15h40.20.799,SPAMnetsValid,2021.1.4,Win32,143.9884809,,,,,,,,,,,,,6,1.5304,0,27,27,22,1,,,,,,,,,,,,,,,,,,,,,,,,,,,,,,,,,,,,,,,,,,,,,,,,,,,,,,,,,,,,,,,,,,,,,,
,,,,7,1.2599,,,,,,156,melon,rose,,90386,001,2022-04-24_15h40.20.799,SPAMnetsValid,2021.1.4,Win32,143.9884809,,,,,,,,,,,,,7,1.2599,0,28,28,31,1,,,,,,,,,,,,,,,,,,,,,,,,,,,,,,,,,,,,,,,,,,,,,,,,,,,,,,,,,,,,,,,,,,,,,,
,,,,2,1.3589,,,,,,159,cookie,flower,,90386,001,2022-04-24_15h40.20.799,SPAMnetsValid,2021.1.4,Win32,143.9884809,,,,,,,,,,,,,2,1.3589,0,29,29,21,1,,,,,,,,,,,,,,,,,,,,,,,,,,,,,,,,,,,,,,,,,,,,,,,,,,,,,,,,,,,,,,,,,,,,,,
,,,,6,2.5013,,,,,,173,kitchen,tomato,,90386,001,2022-04-24_15h40.20.799,SPAMnetsValid,2021.1.4,Win32,143.9884809,,,,,,,,,,,,,6,2.5013,0,30,30,1,1,,,,,,,,,,,,,,,,,,,,,,,,,,,,,,,,,,,,,,,,,,,,,,,,,,,,,,,,,,,,,,,,,,,,,,
,,,,7,1.6502,,,,,,100,garden,tomato,,90386,001,2022-04-24_15h40.20.799,SPAMnetsValid,2021.1.4,Win32,143.9884809,,,,,,,,,,,,,7,1.6502,0,31,31,83,1,,,,,,,,,,,,,,,,,,,,,,,,,,,,,,,,,,,,,,,,,,,,,,,,,,,,,,,,,,,,,,,,,,,,,,
,,,,7,1.2683,,,,,,115,refrigerator,tomato,,90386,001,2022-04-24_15h40.20.799,SPAMnetsValid,2021.1.4,Win32,143.9884809,,,,,,,,,,,,,7,1.2683,0,32,32,85,1,,,,,,,,,,,,,,,,,,,,,,,,,,,,,,,,,,,,,,,,,,,,,,,,,,,,,,,,,,,,,,,,,,,,,,
,,,,7,2.4987,,,,,,188,flower,tree,,90386,001,2022-04-24_15h40.20.799,SPAMnetsValid,2021.1.4,Win32,143.9884809,,,,,,,,,,,,,7,2.4987,0,33,33,7,1,,,,,,,,,,,,,,,,,,,,,,,,,,,,,,,,,,,,,,,,,,,,,,,,,,,,,,,,,,,,,,,,,,,,,,
,,,,3,1557.1936,,,,,,185,cactus,rose,,90386,001,2022-04-24_15h40.20.799,SPAMnetsValid,2021.1.4,Win32,143.9884809,,,,,,,,,,,,,3,1557.1936,0,34,34,43,1,,,,,,,,,,,,,,,,,,,,,,,,,,,,,,,,,,,,,,,,,,,,,,,,,,,,,,,,,,,,,,,,,,,,,,
,,,,3,0.752,,,,,,144,cake,garden,,90386,001,2022-04-24_15h40.20.799,SPAMnetsValid,2021.1.4,Win32,143.9884809,,,,,,,,,,,,,3,0.752,0,35,35,58,1,,,,,,,,,,,,,,,,,,,,,,,,,,,,,,,,,,,,,,,,,,,,,,,,,,,,,,,,,,,,,,,,,,,,,,
,,,,1,1.1412,,,,,,165,onion,rose,,90386,001,2022-04-24_15h40.20.799,SPAMnetsValid,2021.1.4,Win32,143.9884809,,,,,,,,,,,,,1,1.1412,0,36,36,40,1,,,,,,,,,,,,,,,,,,,,,,,,,,,,,,,,,,,,,,,,,,,,,,,,,,,,,,,,,,,,,,,,,,,,,,
,,,,3,1.5228,,,,,,128,melon,microwave,,90386,001,2022-04-24_15h40.20.799,SPAMnetsValid,2021.1.4,Win32,143.9884809,,,,,,,,,,,,,3,1.5228,0,37,37,74,1,,,,,,,,,,,,,,,,,,,,,,,,,,,,,,,,,,,,,,,,,,,,,,,,,,,,,,,,,,,,,,,,,,,,,,
,,,,7,0.9255,,,,,,186,kitchen,yogurt,,90386,001,2022-04-24_15h40.20.799,SPAMnetsValid,2021.1.4,Win32,143.9884809,,,,,,,,,,,,,7,0.9255,0,38,38,48,1,,,,,,,,,,,,,,,,,,,,,,,,,,,,,,,,,,,,,,,,,,,,,,,,,,,,,,,,,,,,,,,,,,,,,,
,,,,6,1.0832,,,,,,147,cake,refrigerator,,90386,001,2022-04-24_15h40.20.799,SPAMnetsValid,2021.1.4,Win32,143.9884809,,,,,,,,,,,,,6,1.0832,0,39,39,35,1,,,,,,,,,,,,,,,,,,,,,,,,,,,,,,,,,,,,,,,,,,,,,,,,,,,,,,,,,,,,,,,,,,,,,,
,,,,3,0.8505,,,,,,187,cactus,microwave,,90386,001,2022-04-24_15h40.20.799,SPAMnetsValid,2021.1.4,Win32,143.9884809,,,,,,,,,,,,,3,0.8505,0,40,40,71,1,,,,,,,,,,,,,,,,,,,,,,,,,,,,,,,,,,,,,,,,,,,,,,,,,,,,,,,,,,,,,,,,,,,,,,
,,,,3,158.3911,,,,,,179,broom,oven,,90386,001,2022-04-24_15h40.20.799,SPAMnetsValid,2021.1.4,Win32,143.9884809,,,,,,,,,,,,,3,158.3911,0,41,41,45,1,,,,,,,,,,,,,,,,,,,,,,,,,,,,,,,,,,,,,,,,,,,,,,,,,,,,,,,,,,,,,,,,,,,,,,
,,,,2,0.912,,,,,,182,flower,refrigerator,,90386,001,2022-04-24_15h40.20.799,SPAMnetsValid,2021.1.4,Win32,143.9884809,,,,,,,,,,,,,2,0.912,0,42,42,32,1,,,,,,,,,,,,,,,,,,,,,,,,,,,,,,,,,,,,,,,,,,,,,,,,,,,,,,,,,,,,,,,,,,,,,,
,,,,4,1.3438,,,,,,139,carrot,strawberry,,90386,001,2022-04-24_15h40.20.799,SPAMnetsValid,2021.1.4,Win32,143.9884809,,,,,,,,,,,,,4,1.3438,0,43,43,37,1,,,,,,,,,,,,,,,,,,,,,,,,,,,,,,,,,,,,,,,,,,,,,,,,,,,,,,,,,,,,,,,,,,,,,,
,,,,6,1.7774,,,,,,97,chocolate,kitchen,,90386,001,2022-04-24_15h40.20.799,SPAMnetsValid,2021.1.4,Win32,143.9884809,,,,,,,,,,,,,6,1.7774,0,44,44,8,1,,,,,,,,,,,,,,,,,,,,,,,,,,,,,,,,,,,,,,,,,,,,,,,,,,,,,,,,,,,,,,,,,,,,,,
,,,,5,1.8622,,,,,,176,cactus,tomato,,90386,001,2022-04-24_15h40.20.799,SPAMnetsValid,2021.1.4,Win32,143.9884809,,,,,,,,,,,,,5,1.8622,0,45,45,9,1,,,,,,,,,,,,,,,,,,,,,,,,,,,,,,,,,,,,,,,,,,,,,,,,,,,,,,,,,,,,,,,,,,,,,,
,,,,6,1.5082,,,,,,172,kitchen,melon,,90386,001,2022-04-24_15h40.20.799,SPAMnetsValid,2021.1.4,Win32,143.9884809,,,,,,,,,,,,,6,1.5082,0,46,46,77,1,,,,,,,,,,,,,,,,,,,,,,,,,,,,,,,,,,,,,,,,,,,,,,,,,,,,,,,,,,,,,,,,,,,,,,
,,,,2,1.0162,,,,,,136,chocolate,microwave,,90386,001,2022-04-24_15h40.20.799,SPAMnetsValid,2021.1.4,Win32,143.9884809,,,,,,,,,,,,,2,1.0162,0,47,47,96,1,,,,,,,,,,,,,,,,,,,,,,,,,,,,,,,,,,,,,,,,,,,,,,,,,,,,,,,,,,,,,,,,,,,,,,
,,,,2,1.5829,,,,,,143,pretzel,rose,,90386,001,2022-04-24_15h40.20.799,SPAMnetsValid,2021.1.4,Win32,143.9884809,,,,,,,,,,,,,2,1.5829,0,48,48,55,1,,,,,,,,,,,,,,,,,,,,,,,,,,,,,,,,,,,,,,,,,,,,,,,,,,,,,,,,,,,,,,,,,,,,,,
,,,,4,1.3629,,,,,,119,strawberry,tree,,90386,001,2022-04-24_15h40.20.799,SPAMnetsValid,2021.1.4,Win32,143.9884809,,,,,,,,,,,,,4,1.3629,0,49,49,18,1,,,,,,,,,,,,,,,,,,,,,,,,,,,,,,,,,,,,,,,,,,,,,,,,,,,,,,,,,,,,,,,,,,,,,,
,,,,7,1.2819,,,,,,174,cake,pretzel,,90386,001,2022-04-24_15h40.20.799,SPAMnetsValid,2021.1.4,Win32,143.9884809,,,,,,,,,,,,,7,1.2819,0,50,50,2,1,,,,,,,,,,,,,,,,,,,,,,,,,,,,,,,,,,,,,,,,,,,,,,,,,,,,,,,,,,,,,,,,,,,,,,
,,,,2,1.3691,,,,,,103,pretzel,tomato,,90386,001,2022-04-24_15h40.20.799,SPAMnetsValid,2021.1.4,Win32,143.9884809,,,,,,,,,,,,,2,1.3691,0,51,51,79,1,,,,,,,,,,,,,,,,,,,,,,,,,,,,,,,,,,,,,,,,,,,,,,,,,,,,,,,,,,,,,,,,,,,,,,
,,,,1,1.7499,,,,,,96,oven,strawberry,,90386,001,2022-04-24_15h40.20.799,SPAMnetsValid,2021.1.4,Win32,143.9884809,,,,,,,,,,,,,1,1.7499,0,52,52,67,1,,,,,,,,,,,,,,,,,,,,,,,,,,,,,,,,,,,,,,,,,,,,,,,,,,,,,,,,,,,,,,,,,,,,,,
,,,,4,1.4529,,,,,,126,kitchen,tree,,90386,001,2022-04-24_15h40.20.799,SPAMnetsValid,2021.1.4,Win32,143.9884809,,,,,,,,,,,,,4,1.4529,0,53,53,50,1,,,,,,,,,,,,,,,,,,,,,,,,,,,,,,,,,,,,,,,,,,,,,,,,,,,,,,,,,,,,,,,,,,,,,,
,,,,2,0.9079,,,,,,127,cactus,chocolate,,90386,001,2022-04-24_15h40.20.799,SPAMnetsValid,2021.1.4,Win32,143.9884809,,,,,,,,,,,,,2,0.9079,0,54,54,57,1,,,,,,,,,,,,,,,,,,,,,,,,,,,,,,,,,,,,,,,,,,,,,,,,,,,,,,,,,,,,,,,,,,,,,,
,,,,8,1.9758,,,,,,177,chocolate,strawberry,,90386,001,2022-04-24_15h40.20.799,SPAMnetsValid,2021.1.4,Win32,143.9884809,,,,,,,,,,,,,8,1.9758,0,55,55,53,1,,,,,,,,,,,,,,,,,,,,,,,,,,,,,,,,,,,,,,,,,,,,,,,,,,,,,,,,,,,,,,,,,,,,,,
,,,,8,1.3365,,,,,,154,strawberry,yogurt,,90386,001,2022-04-24_15h40.20.799,SPAMnetsValid,2021.1.4,Win32,143.9884809,,,,,,,,,,,,,8,1.3365,0,56,56,28,1,,,,,,,,,,,,,,,,,,,,,,,,,,,,,,,,,,,,,,,,,,,,,,,,,,,,,,,,,,,,,,,,,,,,,,
,,,,2,2.5815,,,,,,164,cookie,garden,,90386,001,2022-04-24_15h40.20.799,SPAMnetsValid,2021.1.4,Win32,143.9884809,,,,,,,,,,,,,2,2.5815,0,57,57,59,1,,,,,,,,,,,,,,,,,,,,,,,,,,,,,,,,,,,,,,,,,,,,,,,,,,,,,,,,,,,,,,,,,,,,,,
,,,,7,1.5206,,,,,,116,cake,chocolate,,90386,001,2022-04-24_15h40.20.799,SPAMnetsValid,2021.1.4,Win32,143.9884809,,,,,,,,,,,,,7,1.5206,0,58,58,44,1,,,,,,,,,,,,,,,,,,,,,,,,,,,,,,,,,,,,,,,,,,,,,,,,,,,,,,,,,,,,,,,,,,,,,,
,,,,2,1.5594,,,,,,130,microwave,yogurt,,90386,001,2022-04-24_15h40.20.799,SPAMnetsValid,2021.1.4,Win32,143.9884809,,,,,,,,,,,,,2,1.5594,0,59,59,84,1,,,,,,,,,,,,,,,,,,,,,,,,,,,,,,,,,,,,,,,,,,,,,,,,,,,,,,,,,,,,,,,,,,,,,,
,,,,2,1.0839,,,,,,121,broom,microwave,,90386,001,2022-04-24_15h40.20.799,SPAMnetsValid,2021.1.4,Win32,143.9884809,,,,,,,,,,,,,2,1.0839,0,60,60,95,1,,,,,,,,,,,,,,,,,,,,,,,,,,,,,,,,,,,,,,,,,,,,,,,,,,,,,,,,,,,,,,,,,,,,,,
,,,,4,2.5672,,,,,,108,carrot,chocolate,,90386,001,2022-04-24_15h40.20.799,SPAMnetsValid,2021.1.4,Win32,143.9884809,,,,,,,,,,,,,4,2.5672,0,61,61,5,1,,,,,,,,,,,,,,,,,,,,,,,,,,,,,,,,,,,,,,,,,,,,,,,,,,,,,,,,,,,,,,,,,,,,,,
,,,,3,2.0475,,,,,,162,microwave,tomato,,90386,001,2022-04-24_15h40.20.799,SPAMnetsValid,2021.1.4,Win32,143.9884809,,,,,,,,,,,,,3,2.0475,0,62,62,12,1,,,,,,,,,,,,,,,,,,,,,,,,,,,,,,,,,,,,,,,,,,,,,,,,,,,,,,,,,,,,,,,,,,,,,,
,,,,2,0.8011,,,,,,132,broom,tree,,90386,001,2022-04-24_15h40.20.799,SPAMnetsValid,2021.1.4,Win32,143.9884809,,,,,,,,,,,,,2,0.8011,0,63,63,78,1,,,,,,,,,,,,,,,,,,,,,,,,,,,,,,,,,,,,,,,,,,,,,,,,,,,,,,,,,,,,,,,,,,,,,,
,,,,2,1.9555,,,,,,150,microwave,refrigerator,,90386,001,2022-04-24_15h40.20.799,SPAMnetsValid,2021.1.4,Win32,143.9884809,,,,,,,,,,,,,2,1.9555,0,64,64,66,1,,,,,,,,,,,,,,,,,,,,,,,,,,,,,,,,,,,,,,,,,,,,,,,,,,,,,,,,,,,,,,,,,,,,,,
,,,,3,0.7872,,,,,,183,cake,rose,,90386,001,2022-04-24_15h40.20.799,SPAMnetsValid,2021.1.4,Win32,143.9884809,,,,,,,,,,,,,3,0.7872,0,65,65,19,1,,,,,,,,,,,,,,,,,,,,,,,,,,,,,,,,,,,,,,,,,,,,,,,,,,,,,,,,,,,,,,,,,,,,,,
,,,,6,1.4764,,,,,,140,cookie,refrigerator,,90386,001,2022-04-24_15h40.20.799,SPAMnetsValid,2021.1.4,Win32,143.9884809,,,,,,,,,,,,,6,1.4764,0,66,66,89,1,,,,,,,,,,,,,,,,,,,,,,,,,,,,,,,,,,,,,,,,,,,,,,,,,,,,,,,,,,,,,,,,,,,,,,
,,,,3,0.6762,,,,,,149,broom,tomato,,90386,001,2022-04-24_15h40.20.799,SPAMnetsValid,2021.1.4,Win32,143.9884809,,,,,,,,,,,,,3,0.6762,0,67,67,20,1,,,,,,,,,,,,,,,,,,,,,,,,,,,,,,,,,,,,,,,,,,,,,,,,,,,,,,,,,,,,,,,,,,,,,,
,,,,7,0.9001,,,,,,160,cookie,kitchen,,90386,001,2022-04-24_15h40.20.799,SPAMnetsValid,2021.1.4,Win32,143.9884809,,,,,,,,,,,,,7,0.9001,0,68,68,65,1,,,,,,,,,,,,,,,,,,,,,,,,,,,,,,,,,,,,,,,,,,,,,,,,,,,,,,,,,,,,,,,,,,,,,,
,,,,2,0.5931,,,,,,109,broom,strawberry,,90386,001,2022-04-24_15h40.20.799,SPAMnetsValid,2021.1.4,Win32,143.9884809,,,,,,,,,,,,,2,0.5931,0,69,69,4,1,,,,,,,,,,,,,,,,,,,,,,,,,,,,,,,,,,,,,,,,,,,,,,,,,,,,,,,,,,,,,,,,,,,,,,
,,,,8,1.5864,,,,,,122,flower,garden,,90386,001,2022-04-24_15h40.20.799,SPAMnetsValid,2021.1.4,Win32,143.9884809,,,,,,,,,,,,,8,1.5864,0,70,70,60,1,,,,,,,,,,,,,,,,,,,,,,,,,,,,,,,,,,,,,,,,,,,,,,,,,,,,,,,,,,,,,,,,,,,,,,
,,,,6,1.3706,,,,,,152,cactus,strawberry,,90386,001,2022-04-24_15h40.20.799,SPAMnetsValid,2021.1.4,Win32,143.9884809,,,,,,,,,,,,,6,1.3706,0,71,71,49,1,,,,,,,,,,,,,,,,,,,,,,,,,,,,,,,,,,,,,,,,,,,,,,,,,,,,,,,,,,,,,,,,,,,,,,
,,,,1,1.4408,,,,,,129,cactus,refrigerator,,90386,001,2022-04-24_15h40.20.799,SPAMnetsValid,2021.1.4,Win32,143.9884809,,,,,,,,,,,,,1,1.4408,0,72,72,3,1,,,,,,,,,,,,,,,,,,,,,,,,,,,,,,,,,,,,,,,,,,,,,,,,,,,,,,,,,,,,,,,,,,,,,,
,,,,2,1.6013,,,,,,166,cake,yogurt,,90386,001,2022-04-24_15h40.20.799,SPAMnetsValid,2021.1.4,Win32,143.9884809,,,,,,,,,,,,,2,1.6013,0,73,73,91,1,,,,,,,,,,,,,,,,,,,,,,,,,,,,,,,,,,,,,,,,,,,,,,,,,,,,,,,,,,,,,,,,,,,,,,
,,,,2,1.2719,,,,,,114,cookie,strawberry,,90386,001,2022-04-24_15h40.20.799,SPAMnetsValid,2021.1.4,Win32,143.9884809,,,,,,,,,,,,,2,1.2719,0,74,74,87,1,,,,,,,,,,,,,,,,,,,,,,,,,,,,,,,,,,,,,,,,,,,,,,,,,,,,,,,,,,,,,,,,,,,,,,
,,,,3,20.8254,,,,,,98,pretzel,strawberry,,90386,001,2022-04-24_15h40.20.799,SPAMnetsValid,2021.1.4,Win32,143.9884809,,,,,,,,,,,,,3,20.8254,0,75,75,82,1,,,,,,,,,,,,,,,,,,,,,,,,,,,,,,,,,,,,,,,,,,,,,,,,,,,,,,,,,,,,,,,,,,,,,,
,,,,4,1.2952,,,,,,138,flower,rose,,90386,001,2022-04-24_15h40.20.799,SPAMnetsValid,2021.1.4,Win32,143.9884809,,,,,,,,,,,,,4,1.2952,0,76,76,61,1,,,,,,,,,,,,,,,,,,,,,,,,,,,,,,,,,,,,,,,,,,,,,,,,,,,,,,,,,,,,,,,,,,,,,,
,,,,3,2.5007,,,,,,124,oven,refrigerator,,90386,001,2022-04-24_15h40.20.799,SPAMnetsValid,2021.1.4,Win32,143.9884809,,,,,,,,,,,,,3,2.5007,0,77,77,69,1,,,,,,,,,,,,,,,,,,,,,,,,,,,,,,,,,,,,,,,,,,,,,,,,,,,,,,,,,,,,,,,,,,,,,,
,,,,3,2.4521,,,,,,169,onion,yogurt,,90386,001,2022-04-24_15h40.20.799,SPAMnetsValid,2021.1.4,Win32,143.9884809,,,,,,,,,,,,,3,2.4521,0,78,78,24,1,,,,,,,,,,,,,,,,,,,,,,,,,,,,,,,,,,,,,,,,,,,,,,,,,,,,,,,,,,,,,,,,,,,,,,
,,,,6,3.5667,,,,,,131,cactus,garden,,90386,001,2022-04-24_15h40.20.799,SPAMnetsValid,2021.1.4,Win32,143.9884809,,,,,,,,,,,,,6,3.5667,0,79,79,33,1,,,,,,,,,,,,,,,,,,,,,,,,,,,,,,,,,,,,,,,,,,,,,,,,,,,,,,,,,,,,,,,,,,,,,,
,,,,3,0.7532,,,,,,111,carrot,microwave,,90386,001,2022-04-24_15h40.20.799,SPAMnetsValid,2021.1.4,Win32,143.9884809,,,,,,,,,,,,,3,0.7532,0,80,80,16,1,,,,,,,,,,,,,,,,,,,,,,,,,,,,,,,,,,,,,,,,,,,,,,,,,,,,,,,,,,,,,,,,,,,,,,
,,,,6,1.9986,,,,,,178,cactus,carrot,,90386,001,2022-04-24_15h40.20.799,SPAMnetsValid,2021.1.4,Win32,143.9884809,,,,,,,,,,,,,6,1.9986,0,81,81,75,1,,,,,,,,,,,,,,,,,,,,,,,,,,,,,,,,,,,,,,,,,,,,,,,,,,,,,,,,,,,,,,,,,,,,,,
,,,,3,0.7336,,,,,,189,onion,tree,,90386,001,2022-04-24_15h40.20.799,SPAMnetsValid,2021.1.4,Win32,143.9884809,,,,,,,,,,,,,3,0.7336,0,82,82,62,1,,,,,,,,,,,,,,,,,,,,,,,,,,,,,,,,,,,,,,,,,,,,,,,,,,,,,,,,,,,,,,,,,,,,,,
,,,,2,1.0746,,,,,,133,cake,flower,,90386,001,2022-04-24_15h40.20.799,SPAMnetsValid,2021.1.4,Win32,143.9884809,,,,,,,,,,,,,2,1.0746,0,83,83,94,1,,,,,,,,,,,,,,,,,,,,,,,,,,,,,,,,,,,,,,,,,,,,,,,,,,,,,,,,,,,,,,,,,,,,,,
,,,,3,1.1149,,,,,,155,carrot,cookie,,90386,001,2022-04-24_15h40.20.799,SPAMnetsValid,2021.1.4,Win32,143.9884809,,,,,,,,,,,,,3,1.1149,0,84,84,38,1,,,,,,,,,,,,,,,,,,,,,,,,,,,,,,,,,,,,,,,,,,,,,,,,,,,,,,,,,,,,,,,,,,,,,,
,,,,3,0.8265,,,,,,106,cake,strawberry,,90386,001,2022-04-24_15h40.20.799,SPAMnetsValid,2021.1.4,Win32,143.9884809,,,,,,,,,,,,,3,0.8265,0,85,85,0,1,,,,,,,,,,,,,,,,,,,,,,,,,,,,,,,,,,,,,,,,,,,,,,,,,,,,,,,,,,,,,,,,,,,,,,
,,,,6,1.9664,,,,,,184,oven,pretzel,,90386,001,2022-04-24_15h40.20.799,SPAMnetsValid,2021.1.4,Win32,143.9884809,,,,,,,,,,,,,6,1.9664,0,86,86,42,1,,,,,,,,,,,,,,,,,,,,,,,,,,,,,,,,,,,,,,,,,,,,,,,,,,,,,,,,,,,,,,,,,,,,,,
,,,,6,1.5903,,,,,,168,cactus,flower,,90386,001,2022-04-24_15h40.20.799,SPAMnetsValid,2021.1.4,Win32,143.9884809,,,,,,,,,,,,,6,1.5903,0,87,87,51,1,,,,,,,,,,,,,,,,,,,,,,,,,,,,,,,,,,,,,,,,,,,,,,,,,,,,,,,,,,,,,,,,,,,,,,
,,,,2,1.0912,,,,,,180,tree,yogurt,,90386,001,2022-04-24_15h40.20.799,SPAMnetsValid,2021.1.4,Win32,143.9884809,,,,,,,,,,,,,2,1.0912,0,88,88,68,1,,,,,,,,,,,,,,,,,,,,,,,,,,,,,,,,,,,,,,,,,,,,,,,,,,,,,,,,,,,,,,,,,,,,,,
,,,,3,15.9502,,,,,,171,cake,tomato,,90386,001,2022-04-24_15h40.20.799,SPAMnetsValid,2021.1.4,Win32,143.9884809,,,,,,,,,,,,,3,15.9502,0,89,89,88,1,,,,,,,,,,,,,,,,,,,,,,,,,,,,,,,,,,,,,,,,,,,,,,,,,,,,,,,,,,,,,,,,,,,,,,
,,,,6,1.6693,,,,,,118,chocolate,oven,,90386,001,2022-04-24_15h40.20.799,SPAMnetsValid,2021.1.4,Win32,143.9884809,,,,,,,,,,,,,6,1.6693,0,90,90,10,1,,,,,,,,,,,,,,,,,,,,,,,,,,,,,,,,,,,,,,,,,,,,,,,,,,,,,,,,,,,,,,,,,,,,,,
,,,,2,2.2372,,,,,,112,cake,carrot,,90386,001,2022-04-24_15h40.20.799,SPAMnetsValid,2021.1.4,Win32,143.9884809,,,,,,,,,,,,,2,2.2372,0,91,91,39,1,,,,,,,,,,,,,,,,,,,,,,,,,,,,,,,,,,,,,,,,,,,,,,,,,,,,,,,,,,,,,,,,,,,,,,
,,,,3,11.4025,,,,,,125,carrot,tree,,90386,001,2022-04-24_15h40.20.799,SPAMnetsValid,2021.1.4,Win32,143.9884809,,,,,,,,,,,,,3,11.4025,0,92,92,30,1,,,,,,,,,,,,,,,,,,,,,,,,,,,,,,,,,,,,,,,,,,,,,,,,,,,,,,,,,,,,,,,,,,,,,,
,,,,7,2.219,,,,,,120,microwave,oven,,90386,001,2022-04-24_15h40.20.799,SPAMnetsValid,2021.1.4,Win32,143.9884809,,,,,,,,,,,,,7,2.219,0,93,93,14,1,,,,,,,,,,,,,,,,,,,,,,,,,,,,,,,,,,,,,,,,,,,,,,,,,,,,,,,,,,,,,,,,,,,,,,
,,,,2,1.1432,,,,,,135,carrot,oven,,90386,001,2022-04-24_15h40.20.799,SPAMnetsValid,2021.1.4,Win32,143.9884809,,,,,,,,,,,,,2,1.1432,0,94,94,73,1,,,,,,,,,,,,,,,,,,,,,,,,,,,,,,,,,,,,,,,,,,,,,,,,,,,,,,,,,,,,,,,,,,,,,,
,,,,3,1.7275,,,,,,153,carrot,pretzel,,90386,001,2022-04-24_15h40.20.799,SPAMnetsValid,2021.1.4,Win32,143.9884809,,,,,,,,,,,,,3,1.7275,0,95,95,34,1,,,,,,,,,,,,,,,,,,,,,,,,,,,,,,,,,,,,,,,,,,,,,,,,,,,,,,,,,,,,,,,,,,,,,,
,,,,4,0.9781,,,,,,134,carrot,flower,,90386,001,2022-04-24_15h40.20.799,SPAMnetsValid,2021.1.4,Win32,143.9884809,,,,,,,,,,,,,4,0.9781,0,96,96,93,1,,,,,,,,,,,,,,,,,,,,,,,,,,,,,,,,,,,,,,,,,,,,,,,,,,,,,,,,,,,,,,,,,,,,,,
,,,,,,,,,,,,,,,90386,001,2022-04-24_15h40.20.799,SPAMnetsValid,2021.1.4,Win32,143.9884809,,,,,,,,,,,,,,,,,,,,0,0,0,0,1,,,,,,,,,,,,,,,,,,,,,,,,,,,,,,,,,,,,,,,,,,,,,,,,,,,,,,,,,,,,,,,,,
,,,,,,,,,,,,,,,90386,001,2022-04-24_15h40.20.799,SPAMnetsValid,2021.1.4,Win32,143.9884809,,,,,,0,1,1,1,1,0,1,,,,,,,,,,,,,,,,,,,,,,,,,,,,,,,,,,,,,,,,,,,,,,,,,,,,,,,,,,,,,,,,,,,,,,,,,,,,,
,,,,,,,,,,,,,,,90386,001,2022-04-24_15h40.20.799,SPAMnetsValid,2021.1.4,Win32,143.9884809,,,,,,,,,,,,,,,,,,,,,,,,,3,10.8809,0,0,0,0,1,rancor,forbearance,ridicule,malice,bravery,3,,,,,,,,,,,,,,,,,,,,,,,,,,,,,,,,,,,,,,,,,,,,,,,,,,,,
,,,,,,,,,,,,,,,90386,001,2022-04-24_15h40.20.799,SPAMnetsValid,2021.1.4,Win32,143.9884809,,,,,,,,,,,,,,,,,,,,,,,,,4,2.8521,0,1,1,1,1,raucous,empty,quiet,smooth,harsh,4,,,,,,,,,,,,,,,,,,,,,,,,,,,,,,,,,,,,,,,,,,,,,,,,,,,,
,,,,,,,,,,,,,,,90386,001,2022-04-24_15h40.20.799,SPAMnetsValid,2021.1.4,Win32,143.9884809,,,,,,,,,,,,,,,,,,,,,,,,,4,5.0108,0,2,2,2,1,gargoyle,oil,medicine,carved waterspout,ugly building,3,,,,,,,,,,,,,,,,,,,,,,,,,,,,,,,,,,,,,,,,,,,,,,,,,,,,
,,,,,,,,,,,,,,,90386,001,2022-04-24_15h40.20.799,SPAMnetsValid,2021.1.4,Win32,143.9884809,,,,,,,,,,,,,,,,,,,,,,,,,3,7.204,0,3,3,3,1,recrudesce,purify,renew activity,lack refinement,crush,2,,,,,,,,,,,,,,,,,,,,,,,,,,,,,,,,,,,,,,,,,,,,,,,,,,,,
,,,,,,,,,,,,,,,90386,001,2022-04-24_15h40.20.799,SPAMnetsValid,2021.1.4,Win32,143.9884809,,,,,,,,,,,,,,,,,,,,,,,,,4,5.8971,0,4,4,4,1,specious,"plausible, but not genuine",noteworthy,class or variety,roomy,1,,,,,,,,,,,,,,,,,,,,,,,,,,,,,,,,,,,,,,,,,,,,,,,,,,,,
,,,,,,,,,,,,,,,90386,001,2022-04-24_15h40.20.799,SPAMnetsValid,2021.1.4,Win32,143.9884809,,,,,,,,,,,,,,,,,,,,,,,,,4,5.5516,0,5,5,5,1,bauble,bubble,showy plaything,idle talk,confusion,2,,,,,,,,,,,,,,,,,,,,,,,,,,,,,,,,,,,,,,,,,,,,,,,,,,,,
,,,,,,,,,,,,,,,90386,001,2022-04-24_15h40.20.799,SPAMnetsValid,2021.1.4,Win32,143.9884809,,,,,,,,,,,,,,,,,,,,,,,,,3,2.4468,0,6,6,6,1,prolific,scarce,producing abundantly,reckless,speaking profanely,2,,,,,,,,,,,,,,,,,,,,,,,,,,,,,,,,,,,,,,,,,,,,,,,,,,,,
,,,,,,,,,,,,,,,90386,001,2022-04-24_15h40.20.799,SPAMnetsValid,2021.1.4,Win32,143.9884809,,,,,,,,,,,,,,,,,,,,,,,,,3,4.3737,0,7,7,7,1,opulent,party,wealthy,happy frame of mind,semiprecious stone,2,,,,,,,,,,,,,,,,,,,,,,,,,,,,,,,,,,,,,,,,,,,,,,,,,,,,
,,,,,,,,,,,,,,,90386,001,2022-04-24_15h40.20.799,SPAMnetsValid,2021.1.4,Win32,143.9884809,,,,,,,,,,,,,,,,,,,,,,,,,3,9.3364,0,8,8,8,1,coercion,conspiracy,strategy,restraint,attraction,3,,,,,,,,,,,,,,,,,,,,,,,,,,,,,,,,,,,,,,,,,,,,,,,,,,,,
,,,,,,,,,,,,,,,90386,001,2022-04-24_15h40.20.799,SPAMnetsValid,2021.1.4,Win32,143.9884809,,,,,,,,,,,,,,,,,,,,,,,,,4,2.5467,0,9,9,9,1,hiatus,animal,calamity,dread,gap,4,,,,,,,,,,,,,,,,,,,,,,,,,,,,,,,,,,,,,,,,,,,,,,,,,,,,
,,,,,,,,,,,,,,,90386,001,2022-04-24_15h40.20.799,SPAMnetsValid,2021.1.4,Win32,143.9884809,,,,,,,,,,,,,,,,,,,,,,,,,3,3.6124,0,10,10,10,1,germane,microbe,contagious,relevant,different,3,,,,,,,,,,,,,,,,,,,,,,,,,,,,,,,,,,,,,,,,,,,,,,,,,,,,
,,,,,,,,,,,,,,,90386,001,2022-04-24_15h40.20.799,SPAMnetsValid,2021.1.4,Win32,143.9884809,,,,,,,,,,,,,,,,,,,,,,,,,3,19.193,0,11,11,11,1,perfunctory,fundamental,formal,superficial,careful,3,,,,,,,,,,,,,,,,,,,,,,,,,,,,,,,,,,,,,,,,,,,,,,,,,,,,
,,,,,,,,,,,,,,,90386,001,2022-04-24_15h40.20.799,SPAMnetsValid,2021.1.4,Win32,143.9884809,,,,,,,,,,,,,,,,,,,,,,,,,4,8.4175,0,12,12,12,1,diverge,reveal,chant,distract the attention of,differ or turn off from,4,,,,,,,,,,,,,,,,,,,,,,,,,,,,,,,,,,,,,,,,,,,,,,,,,,,,
,,,,,,,,,,,,,,,90386,001,2022-04-24_15h40.20.799,SPAMnetsValid,2021.1.4,Win32,143.9884809,,,,,,,,,,,,,,,,,,,,,,,,,4,3.4592,0,13,13,13,1,evoke,take away,anger,connect,bring out,4,,,,,,,,,,,,,,,,,,,,,,,,,,,,,,,,,,,,,,,,,,,,,,,,,,,,
,,,,,,,,,,,,,,,90386,001,2022-04-24_15h40.20.799,SPAMnetsValid,2021.1.4,Win32,143.9884809,,,,,,,,,,,,,,,,,,,,,,,,,1,1.7696,0,14,14,14,1,pertinent,relevant,lying next to,necessary,bold,1,,,,,,,,,,,,,,,,,,,,,,,,,,,,,,,,,,,,,,,,,,,,,,,,,,,,
,,,,,,,,,,,,,,,90386,001,2022-04-24_15h40.20.799,SPAMnetsValid,2021.1.4,Win32,143.9884809,,,,,,,,,,,,,,,,,,,,,,,,,2,2.0111,0,15,15,15,1,holocaust,entirety,destruction,saintly,price,2,,,,,,,,,,,,,,,,,,,,,,,,,,,,,,,,,,,,,,,,,,,,,,,,,,,,
,,,,,,,,,,,,,,,90386,001,2022-04-24_15h40.20.799,SPAMnetsValid,2021.1.4,Win32,143.9884809,,,,,,,,,,,,,,,,,,,,,,,,,1,6.1388,0,16,16,16,1,piquant,mellow,fish,pungent,cloth,3,,,,,,,,,,,,,,,,,,,,,,,,,,,,,,,,,,,,,,,,,,,,,,,,,,,,
,,,,,,,,,,,,,,,90386,001,2022-04-24_15h40.20.799,SPAMnetsValid,2021.1.4,Win32,143.9884809,,,,,,,,,,,,,,,,,,,,,,,,,3,7.3148,0,17,17,17,1,firmament,foundation,heavens,strong,glue,2,,,,,,,,,,,,,,,,,,,,,,,,,,,,,,,,,,,,,,,,,,,,,,,,,,,,
,,,,,,,,,,,,,,,90386,001,2022-04-24_15h40.20.799,SPAMnetsValid,2021.1.4,Win32,143.9884809,,,,,,,,,,,,,,,,,,,,,,,,,,,,,,,,,,,,,,4,3.063,0,0,0,0,1,marketable,partisan,jocular,marriageable,salable,essential,4,,,,,,,,,,,,,,,,,,,,,,,,,,,,,,,,,,,,,,
,,,,,,,,,,,,,,,90386,001,2022-04-24_15h40.20.799,SPAMnetsValid,2021.1.4,Win32,143.9884809,,,,,,,,,,,,,,,,,,,,,,,,,,,,,,,,,,,,,,5,2.9941,0,1,1,1,1,cottontail,squirrel,poplar,boa,marshy plant,rabbit,5,,,,,,,,,,,,,,,,,,,,,,,,,,,,,,,,,,,,,,
,,,,,,,,,,,,,,,90386,001,2022-04-24_15h40.20.799,SPAMnetsValid,2021.1.4,Win32,143.9884809,,,,,,,,,,,,,,,,,,,,,,,,,,,,,,,,,,,,,,3,8.8334,0,2,2,2,1,boggy,afraid,false,marshy,dense,black,3,,,,,,,,,,,,,,,,,,,,,,,,,,,,,,,,,,,,,,
,,,,,,,,,,,,,,,90386,001,2022-04-24_15h40.20.799,SPAMnetsValid,2021.1.4,Win32,143.9884809,,,,,,,,,,,,,,,,,,,,,,,,,,,,,,,,,,,,,,3,5.4543,0,3,3,3,1,gruesomeness,blackness,falseness,vindictiveness,drunkenness,ghastliness,5,,,,,,,,,,,,,,,,,,,,,,,,,,,,,,,,,,,,,,
,,,,,,,,,,,,,,,90386,001,2022-04-24_15h40.20.799,SPAMnetsValid,2021.1.4,Win32,143.9884809,,,,,,,,,,,,,,,,,,,,,,,,,,,,,,,,,,,,,,2,1.5794,0,4,4,4,1,loathing,diffidence,laziness,abhorrence,cleverness,comfort,3,,,,,,,,,,,,,,,,,,,,,,,,,,,,,,,,,,,,,,
,,,,,,,,,,,,,,,90386,001,2022-04-24_15h40.20.799,SPAMnetsValid,2021.1.4,Win32,143.9884809,,,,,,,,,,,,,,,,,,,,,,,,,,,,,,,,,,,,,,2,2.7499,0,5,5,5,1,bantam,fowl,ridicule,cripple,vegetable,ensign,1,,,,,,,,,,,,,,,,,,,,,,,,,,,,,,,,,,,,,,
,,,,,,,,,,,,,,,90386,001,2022-04-24_15h40.20.799,SPAMnetsValid,2021.1.4,Win32,143.9884809,,,,,,,,,,,,,,,,,,,,,,,,,,,,,,,,,,,,,,5,4.4246,0,6,6,6,1,evoke,wake up,surrender,reconnoiter,transcend,call forth,5,,,,,,,,,,,,,,,,,,,,,,,,,,,,,,,,,,,,,,
,,,,,,,,,,,,,,,90386,001,2022-04-24_15h40.20.799,SPAMnetsValid,2021.1.4,Win32,143.9884809,,,,,,,,,,,,,,,,,,,,,,,,,,,,,,,,,,,,,,1,5.6747,0,7,7,7,1,unobtrusive,unintelligent,epileptic,illogical,lineal,modest,5,,,,,,,,,,,,,,,,,,,,,,,,,,,,,,,,,,,,,,
,,,,,,,,,,,,,,,90386,001,2022-04-24_15h40.20.799,SPAMnetsValid,2021.1.4,Win32,143.9884809,,,,,,,,,,,,,,,,,,,,,,,,,,,,,,,,,,,,,,3,4.9652,0,8,8,8,1,terrain,ice cream,final test,tractor,area of ground,weight,4,,,,,,,,,,,,,,,,,,,,,,,,,,,,,,,,,,,,,,
,,,,,,,,,,,,,,,90386,001,2022-04-24_15h40.20.799,SPAMnetsValid,2021.1.4,Win32,143.9884809,,,,,,,,,,,,,,,,,,,,,,,,,,,,,,,,,,,,,,1,4.608,0,9,9,9,1,capriciousness,stubbornness,courage,whimsicality,amazement,greediness,3,,,,,,,,,,,,,,,,,,,,,,,,,,,,,,,,,,,,,,
,,,,,,,,,,,,,,,90386,001,2022-04-24_15h40.20.799,SPAMnetsValid,2021.1.4,Win32,143.9884809,,,,,,,,,,,,,,,,,,,,,,,,,,,,,,,,,,,,,,3,17.7626,0,10,10,10,1,maelstrom,slander,whirlpool,enmity,armor,majolica,2,,,,,,,,,,,,,,,,,,,,,,,,,,,,,,,,,,,,,,
,,,,,,,,,,,,,,,90386,001,2022-04-24_15h40.20.799,SPAMnetsValid,2021.1.4,Win32,143.9884809,,,,,,,,,,,,,,,,,,,,,,,,,,,,,,,,,,,,,,5,7.5069,0,11,11,11,1,tentative,critical,conclusive,authentic,provisional,apprehensive,4,,,,,,,,,,,,,,,,,,,,,,,,,,,,,,,,,,,,,,
,,,,,,,,,,,,,,,90386,001,2022-04-24_15h40.20.799,SPAMnetsValid,2021.1.4,Win32,143.9884809,,,,,,,,,,,,,,,,,,,,,,,,,,,,,,,,,,,,,,4,3.6787,0,12,12,12,1,placate,rehabilitate,plagiarize,depredate,apprise,conciliate,5,,,,,,,,,,,,,,,,,,,,,,,,,,,,,,,,,,,,,,
,,,,,,,,,,,,,,,90386,001,2022-04-24_15h40.20.799,SPAMnetsValid,2021.1.4,Win32,143.9884809,,,,,,,,,,,,,,,,,,,,,,,,,,,,,,,,,,,,,,2,2.0426,0,13,13,13,1,surcease,enlightenment,cessation,inattention,censor,substitution,2,,,,,,,,,,,,,,,,,,,,,,,,,,,,,,,,,,,,,,
,,,,,,,,,,,,,,,90386,001,2022-04-24_15h40.20.799,SPAMnetsValid,2021.1.4,Win32,143.9884809,,,,,,,,,,,,,,,,,,,,,,,,,,,,,,,,,,,,,,3,2.8822,0,14,14,14,1,apathetic,wandering,impassive,hateful,prophetic,overflowing,2,,,,,,,,,,,,,,,,,,,,,,,,,,,,,,,,,,,,,,
,,,,,,,,,,,,,,,90386,001,2022-04-24_15h40.20.799,SPAMnetsValid,2021.1.4,Win32,143.9884809,,,,,,,,,,,,,,,,,,,,,,,,,,,,,,,,,,,,,,1,9.9619,0,15,15,15,1,paternoster,paternalism,patricide,malediction,benediction,prayer,5,,,,,,,,,,,,,,,,,,,,,,,,,,,,,,,,,,,,,,
,,,,,,,,,,,,,,,90386,001,2022-04-24_15h40.20.799,SPAMnetsValid,2021.1.4,Win32,143.9884809,,,,,,,,,,,,,,,,,,,,,,,,,,,,,,,,,,,,,,1,3.696,0,16,16,16,1,opalescence,opulence,senescence,bankruptcy,iridescence,assiduity,4,,,,,,,,,,,,,,,,,,,,,,,,,,,,,,,,,,,,,,
,,,,,,,,,,,,,,,90386,001,2022-04-24_15h40.20.799,SPAMnetsValid,2021.1.4,Win32,143.9884809,,,,,,,,,,,,,,,,,,,,,,,,,,,,,,,,,,,,,,5,4.3305,0,17,17,17,1,lush,stupid,luxurious,hazy,putrid,languishing,2,,,,,,,,,,,,,,,,,,,,,,,,,,,,,,,,,,,,,,
,,,,,,,,,,,,,,,90386,001,2022-04-24_15h40.20.799,SPAMnetsValid,2021.1.4,Win32,143.9884809,,,,,,,,,,,,,,,,,,,,,,,,,,,,,,,,,,,,,,3,7.0568,0,18,18,18,1,curtailment,expenditure,abandonment,abridgment,improvement,forgery,3,,,,,,,,,,,,,,,,,,,,,,,,,,,,,,,,,,,,,,
,,,,,,,,,,,,,,,90386,001,2022-04-24_15h40.20.799,SPAMnetsValid,2021.1.4,Win32,143.9884809,,,,,,,,,,,,,,,,,,,,,,,,,,,,,,,,,,,,,,2,12.2965,0,19,19,19,1,perversity,adversity,perviousness,travesty,waywardness,gentility,4,,,,,,,,,,,,,,,,,,,,,,,,,,,,,,,,,,,,,,
,,,,,,,,,,,,,,,90386,001,2022-04-24_15h40.20.799,SPAMnetsValid,2021.1.4,Win32,143.9884809,,,,,,,,,,,,,,,,,,,,,,,,,,,,,,,,,,,,,,4,4.2004,0,20,20,20,1,calumnious,complimentary,analogous,slanderous,tempestuous,magnanimous,3,,,,,,,,,,,,,,,,,,,,,,,,,,,,,,,,,,,,,,
,,,,,,,,,,,,,,,90386,001,2022-04-24_15h40.20.799,SPAMnetsValid,2021.1.4,Win32,143.9884809,,,,,,,,,,,,,,,,,,,,,,,,,,,,,,,,,,,,,,2,1.3212,0,21,21,21,1,illiberality,bigotry,imbecility,illegibility,cautery,immaturity,1,,,,,,,,,,,,,,,,,,,,,,,,,,,,,,,,,,,,,,
,,,,,,,,,,,,,,,90386,001,2022-04-24_15h40.20.799,SPAMnetsValid,2021.1.4,Win32,143.9884809,,,,,,,,,,,,,,,,,,,,,,,,,,,,,,,,,,,,,,5,2.2317,0,22,22,22,1,clabber,rejoice,gossip,curdle,crow,hobble,3,,,,,,,,,,,,,,,,,,,,,,,,,,,,,,,,,,,,,,
,,,,,,,,,,,,,,,90386,001,2022-04-24_15h40.20.799,SPAMnetsValid,2021.1.4,Win32,143.9884809,,,,,,,,,,,,,,,,,,,,,,,,,,,,,,,,,,,,,,3,6.3202,0,23,23,23,1,sedulousness,diligence,credulousness,seduction,perilousness,frankness,1,,,,,,,,,,,,,,,,,,,,,,,,,,,,,,,,,,,,,,
,,,,,,,,,,,,,,,90386,001,2022-04-24_15h40.20.799,SPAMnetsValid,2021.1.4,Win32,143.9884809,,,,,,,,,,,,,,,,,,,,,,,,,,,,,,,,,,,,,,,,,,,,,,,,,,,,water,bucket,0,0,0,0,1,,,,,,,,,,,,,,,,,,,,,,,,,,,,,,,
,,,,,,,,,,,,,,,90386,001,2022-04-24_15h40.20.799,SPAMnetsValid,2021.1.4,Win32,143.9884809,,,,,,,,,,,,,,,,,,,,,,,,,,,,,,,,,,,,,,,,,,,,,,,,,,,,milk,bucket,1,0,1,0,1,,,,,,,,,,,,,,,,,,,,,,,,,,,,,,,
,,,,,,,,,,,,,,,90386,001,2022-04-24_15h40.20.799,SPAMnetsValid,2021.1.4,Win32,143.9884809,,,,,,,,,,,,,,,,,,,,,,,,,,,,,,,,,,,,,,,,,,,,,,,,,,,,lava,bucket,2,0,2,0,1,,,,,,,,,,,,,,,,,,,,,,,,,,,,,,,
,,,,,,,,,,,,,,,90386,001,2022-04-24_15h40.20.799,SPAMnetsValid,2021.1.4,Win32,143.9884809,,,,,,,,,,,,,,,,,,,,,,,,,,,,,,,,,,,,,,,,,,,,,,,,,,,,dirt,bucket,3,0,3,0,1,,,,,,,,,,,,,,,,,,,,,,,,,,,,,,,
,,,,,,,,,,,,,,,90386,001,2022-04-24_15h40.20.799,SPAMnetsValid,2021.1.4,Win32,143.9884809,,,,,,,,,,,,,,,,,,,,,,,,,,,,,,,,,,,,,,,,,,,,,,,,,,,,carrying seeds,bucket,4,0,4,0,1,,,,,,,,,,,,,,,,,,,,,,,,,,,,,,,
,,,,,,,,,,,,,,,90386,001,2022-04-24_15h40.20.799,SPAMnetsValid,2021.1.4,Win32,143.9884809,,,,,,,,,,,,,,,,,,,,,,,,,,,,,,,,,,,,,,,,,,,,,,,,,,,,making sand castles,bucket,5,0,5,0,1,,,,,,,,,,,,,,,,,,,,,,,,,,,,,,,
,,,,,,,,,,,,,,,90386,001,2022-04-24_15h40.20.799,SPAMnetsValid,2021.1.4,Win32,143.9884809,,,,,,,,,,,,,,,,,,,,,,,,,,,,,,,,,,,,,,,,,,,,,,,,,,,,collecting oil from a car,bucket,6,0,6,0,1,,,,,,,,,,,,,,,,,,,,,,,,,,,,,,,
,,,,,,,,,,,,,,,90386,001,2022-04-24_15h40.20.799,SPAMnetsValid,2021.1.4,Win32,143.9884809,,,,,,,,,,,,,,,,,,,,,,,,,,,,,,,,,,,,,,,,,,,,,,,,,,,,picking up sea shells,bucket,7,0,7,0,1,,,,,,,,,,,,,,,,,,,,,,,,,,,,,,,
,,,,,,,,,,,,,,,90386,001,2022-04-24_15h40.20.799,SPAMnetsValid,2021.1.4,Win32,143.9884809,,,,,,,,,,,,,,,,,,,,,,,,,,,,,,,,,,,,,,,,,,,,,,,,,,,,,,,,,,,0,0,0,0,1,bucket,,,,,,,,,,,,,,,,,,,,,,,,,
,,,,,,,,,,,,,,,90386,001,2022-04-24_15h40.20.799,SPAMnetsValid,2021.1.4,Win32,143.9884809,,,,,,,,,,,,,,,,,,,,,,,,,,,,,,,,,,,,,,,,,,,,,,,,,,,,sleeping,pillow,0,0,0,0,1,,,,,,,,,,,,,,,,,,,,,,,,,,,,,,,
,,,,,,,,,,,,,,,90386,001,2022-04-24_15h40.20.799,SPAMnetsValid,2021.1.4,Win32,143.9884809,,,,,,,,,,,,,,,,,,,,,,,,,,,,,,,,,,,,,,,,,,,,,,,,,,,,trick or treating,pillow,1,0,1,0,1,,,,,,,,,,,,,,,,,,,,,,,,,,,,,,,
,,,,,,,,,,,,,,,90386,001,2022-04-24_15h40.20.799,SPAMnetsValid,2021.1.4,Win32,143.9884809,,,,,,,,,,,,,,,,,,,,,,,,,,,,,,,,,,,,,,,,,,,,,,,,,,,,to elevate your leg when injured,pillow,2,0,2,0,1,,,,,,,,,,,,,,,,,,,,,,,,,,,,,,,
,,,,,,,,,,,,,,,90386,001,2022-04-24_15h40.20.799,SPAMnetsValid,2021.1.4,Win32,143.9884809,,,,,,,,,,,,,,,,,,,,,,,,,,,,,,,,,,,,,,,,,,,,,,,,,,,,use as extra padding for injuries,pillow,3,0,3,0,1,,,,,,,,,,,,,,,,,,,,,,,,,,,,,,,
,,,,,,,,,,,,,,,90386,001,2022-04-24_15h40.20.799,SPAMnetsValid,2021.1.4,Win32,143.9884809,,,,,,,,,,,,,,,,,,,,,,,,,,,,,,,,,,,,,,,,,,,,,,,,,,,,making a mask out of it,pillow,4,0,4,0,1,,,,,,,,,,,,,,,,,,,,,,,,,,,,,,,
,,,,,,,,,,,,,,,90386,001,2022-04-24_15h40.20.799,SPAMnetsValid,2021.1.4,Win32,143.9884809,,,,,,,,,,,,,,,,,,,,,,,,,,,,,,,,,,,,,,,,,,,,,,,,,,,,hiding money,pillow,5,0,5,0,1,,,,,,,,,,,,,,,,,,,,,,,,,,,,,,,
,,,,,,,,,,,,,,,90386,001,2022-04-24_15h40.20.799,SPAMnetsValid,2021.1.4,Win32,143.9884809,,,,,,,,,,,,,,,,,,,,,,,,,,,,,,,,,,,,,,,,,,,,,,,,,,,,tooth fairy,pillow,6,0,6,0,1,,,,,,,,,,,,,,,,,,,,,,,,,,,,,,,
,,,,,,,,,,,,,,,90386,001,2022-04-24_15h40.20.799,SPAMnetsValid,2021.1.4,Win32,143.9884809,,,,,,,,,,,,,,,,,,,,,,,,,,,,,,,,,,,,,,,,,,,,,,,,,,,,,,,,,,,0,1,1,2,1,pillow,,,,,,,,,,,,,,,,,,,,,,,,,
,,,,,,,,,,,,,,,90386,001,2022-04-24_15h40.20.799,SPAMnetsValid,2021.1.4,Win32,143.9884809,,,,,,,,,,,,,,,,,,,,,,,,,,,,,,,,,,,,,,,,,,,,,,,,,,,,lighting room,candle,0,0,0,0,1,,,,,,,,,,,,,,,,,,,,,,,,,,,,,,,
,,,,,,,,,,,,,,,90386,001,2022-04-24_15h40.20.799,SPAMnetsValid,2021.1.4,Win32,143.9884809,,,,,,,,,,,,,,,,,,,,,,,,,,,,,,,,,,,,,,,,,,,,,,,,,,,,,,,,,,,0,2,2,1,1,candle,,,,,,,,,,,,,,,,,,,,,,,,,
,,,,,,,,,,,,,,,90386,001,2022-04-24_15h40.20.799,SPAMnetsValid,2021.1.4,Win32,143.9884809,,,,,,,,,,,,,,,,,,,,,,,,,,,,,,,,,,,,,,,,,,,,,,,,,,,,,,,,,,,,,,,,,dog,Animals,0,0,0,0,1,,,,,,,,,,,,,,,,,,
,,,,,,,,,,,,,,,90386,001,2022-04-24_15h40.20.799,SPAMnetsValid,2021.1.4,Win32,143.9884809,,,,,,,,,,,,,,,,,,,,,,,,,,,,,,,,,,,,,,,,,,,,,,,,,,,,,,,,,,,,,,,,,cat,Animals,1,0,1,0,1,,,,,,,,,,,,,,,,,,
,,,,,,,,,,,,,,,90386,001,2022-04-24_15h40.20.799,SPAMnetsValid,2021.1.4,Win32,143.9884809,,,,,,,,,,,,,,,,,,,,,,,,,,,,,,,,,,,,,,,,,,,,,,,,,,,,,,,,,,,,,,,,,lizard,Animals,2,0,2,0,1,,,,,,,,,,,,,,,,,,
,,,,,,,,,,,,,,,90386,001,2022-04-24_15h40.20.799,SPAMnetsValid,2021.1.4,Win32,143.9884809,,,,,,,,,,,,,,,,,,,,,,,,,,,,,,,,,,,,,,,,,,,,,,,,,,,,,,,,,,,,,,,,,panda,Animals,3,0,3,0,1,,,,,,,,,,,,,,,,,,
,,,,,,,,,,,,,,,90386,001,2022-04-24_15h40.20.799,SPAMnetsValid,2021.1.4,Win32,143.9884809,,,,,,,,,,,,,,,,,,,,,,,,,,,,,,,,,,,,,,,,,,,,,,,,,,,,,,,,,,,,,,,,,bear,Animals,4,0,4,0,1,,,,,,,,,,,,,,,,,,
,,,,,,,,,,,,,,,90386,001,2022-04-24_15h40.20.799,SPAMnetsValid,2021.1.4,Win32,143.9884809,,,,,,,,,,,,,,,,,,,,,,,,,,,,,,,,,,,,,,,,,,,,,,,,,,,,,,,,,,,,,,,,,cat,Animals,5,0,5,0,1,,,,,,,,,,,,,,,,,,
,,,,,,,,,,,,,,,90386,001,2022-04-24_15h40.20.799,SPAMnetsValid,2021.1.4,Win32,143.9884809,,,,,,,,,,,,,,,,,,,,,,,,,,,,,,,,,,,,,,,,,,,,,,,,,,,,,,,,,,,,,,,,,fish,Animals,6,0,6,0,1,,,,,,,,,,,,,,,,,,
,,,,,,,,,,,,,,,90386,001,2022-04-24_15h40.20.799,SPAMnetsValid,2021.1.4,Win32,143.9884809,,,,,,,,,,,,,,,,,,,,,,,,,,,,,,,,,,,,,,,,,,,,,,,,,,,,,,,,,,,,,,,,,frog,Animals,7,0,7,0,1,,,,,,,,,,,,,,,,,,
,,,,,,,,,,,,,,,90386,001,2022-04-24_15h40.20.799,SPAMnetsValid,2021.1.4,Win32,143.9884809,,,,,,,,,,,,,,,,,,,,,,,,,,,,,,,,,,,,,,,,,,,,,,,,,,,,,,,,,,,,,,,,,otter,Animals,8,0,8,0,1,,,,,,,,,,,,,,,,,,
,,,,,,,,,,,,,,,90386,001,2022-04-24_15h40.20.799,SPAMnetsValid,2021.1.4,Win32,143.9884809,,,,,,,,,,,,,,,,,,,,,,,,,,,,,,,,,,,,,,,,,,,,,,,,,,,,,,,,,,,,,,,,,monkey,Animals,9,0,9,0,1,,,,,,,,,,,,,,,,,,
,,,,,,,,,,,,,,,90386,001,2022-04-24_15h40.20.799,SPAMnetsValid,2021.1.4,Win32,143.9884809,,,,,,,,,,,,,,,,,,,,,,,,,,,,,,,,,,,,,,,,,,,,,,,,,,,,,,,,,,,,,,,,,zebra,Animals,10,0,10,0,1,,,,,,,,,,,,,,,,,,
,,,,,,,,,,,,,,,90386,001,2022-04-24_15h40.20.799,SPAMnetsValid,2021.1.4,Win32,143.9884809,,,,,,,,,,,,,,,,,,,,,,,,,,,,,,,,,,,,,,,,,,,,,,,,,,,,,,,,,,,,,,,,,elephant,Animals,11,0,11,0,1,,,,,,,,,,,,,,,,,,
,,,,,,,,,,,,,,,90386,001,2022-04-24_15h40.20.799,SPAMnetsValid,2021.1.4,Win32,143.9884809,,,,,,,,,,,,,,,,,,,,,,,,,,,,,,,,,,,,,,,,,,,,,,,,,,,,,,,,,,,,,,,,,chinchilla,Animals,12,0,12,0,1,,,,,,,,,,,,,,,,,,
,,,,,,,,,,,,,,,90386,001,2022-04-24_15h40.20.799,SPAMnetsValid,2021.1.4,Win32,143.9884809,,,,,,,,,,,,,,,,,,,,,,,,,,,,,,,,,,,,,,,,,,,,,,,,,,,,,,,,,,,,,,,,,rhino,Animals,13,0,13,0,1,,,,,,,,,,,,,,,,,,
,,,,,,,,,,,,,,,90386,001,2022-04-24_15h40.20.799,SPAMnetsValid,2021.1.4,Win32,143.9884809,,,,,,,,,,,,,,,,,,,,,,,,,,,,,,,,,,,,,,,,,,,,,,,,,,,,,,,,,,,,,,,,,spider,Animals,14,0,14,0,1,,,,,,,,,,,,,,,,,,
,,,,,,,,,,,,,,,90386,001,2022-04-24_15h40.20.799,SPAMnetsValid,2021.1.4,Win32,143.9884809,,,,,,,,,,,,,,,,,,,,,,,,,,,,,,,,,,,,,,,,,,,,,,,,,,,,,,,,,,,,,,,,,insects,Animals,15,0,15,0,1,,,,,,,,,,,,,,,,,,
,,,,,,,,,,,,,,,90386,001,2022-04-24_15h40.20.799,SPAMnetsValid,2021.1.4,Win32,143.9884809,,,,,,,,,,,,,,,,,,,,,,,,,,,,,,,,,,,,,,,,,,,,,,,,,,,,,,,,,,,,,,,,,,Animals,16,0,16,0,1,,,,,,,,,,,,,,,,,,
,,,,,,,,,,,,,,,90386,001,2022-04-24_15h40.20.799,SPAMnetsValid,2021.1.4,Win32,143.9884809,,,,,,,,,,,,,,,,,,,,,,,,,,,,,,,,,,,,,,,,,,,,,,,,,,,,,,,,,,,,,,,,,birds,Animals,17,0,17,0,1,,,,,,,,,,,,,,,,,,
,,,,,,,,,,,,,,,90386,001,2022-04-24_15h40.20.799,SPAMnetsValid,2021.1.4,Win32,143.9884809,,,,,,,,,,,,,,,,,,,,,,,,,,,,,,,,,,,,,,,,,,,,,,,,,,,,,,,,,,,,,,,,,wolf,Animals,18,0,18,0,1,,,,,,,,,,,,,,,,,,
,,,,,,,,,,,,,,,90386,001,2022-04-24_15h40.20.799,SPAMnetsValid,2021.1.4,Win32,143.9884809,,,,,,,,,,,,,,,,,,,,,,,,,,,,,,,,,,,,,,,,,,,,,,,,,,,,,,,,,,,,,,,,,,,,,,,,0,0,0,0,1,Animals,,,,,,,,,,,,
,,,,,,,,,,,,,,,90386,001,2022-04-24_15h40.20.799,SPAMnetsValid,2021.1.4,Win32,143.9884809,,,,,,,,,,,,,,,,,,,,,,,,,,,,,,,,,,,,,,,,,,,,,,,,,,,,,,,,,,,,,,,,,,,,,,,,,,,,,,5,3.4767,0,0,0,0,1,"I enjoy concentrating on a fantasy or daydream and exploring all its possibilities, letting it grow and develop.",0,1,,
,,,,,,,,,,,,,,,90386,001,2022-04-24_15h40.20.799,SPAMnetsValid,2021.1.4,Win32,143.9884809,,,,,,,,,,,,,,,,,,,,,,,,,,,,,,,,,,,,,,,,,,,,,,,,,,,,,,,,,,,,,,,,,,,,,,,,,,,,,,5,1.7025,0,1,1,1,1,I think it's interesting to learn and develop new hobbies.,0,2,,
,,,,,,,,,,,,,,,90386,001,2022-04-24_15h40.20.799,SPAMnetsValid,2021.1.4,Win32,143.9884809,,,,,,,,,,,,,,,,,,,,,,,,,,,,,,,,,,,,,,,,,,,,,,,,,,,,,,,,,,,,,,,,,,,,,,,,,,,,,,4,1.9955,0,2,2,2,1,I am intrigued by the patterns I find in art and nature.,0,3,,
,,,,,,,,,,,,,,,90386,001,2022-04-24_15h40.20.799,SPAMnetsValid,2021.1.4,Win32,143.9884809,,,,,,,,,,,,,,,,,,,,,,,,,,,,,,,,,,,,,,,,,,,,,,,,,,,,,,,,,,,,,,,,,,,,,,,,,,,,,,1,4.52,0,3,3,3,1,I believe letting students hear controversial speakers can only confuse and mislead them.,1,4,,
,,,,,,,,,,,,,,,90386,001,2022-04-24_15h40.20.799,SPAMnetsValid,2021.1.4,Win32,143.9884809,,,,,,,,,,,,,,,,,,,,,,,,,,,,,,,,,,,,,,,,,,,,,,,,,,,,,,,,,,,,,,,,,,,,,,,,,,,,,,3,2.4748,0,4,4,4,1,Poetry has little or no effect on me.,1,5,,
,,,,,,,,,,,,,,,90386,001,2022-04-24_15h40.20.799,SPAMnetsValid,2021.1.4,Win32,143.9884809,,,,,,,,,,,,,,,,,,,,,,,,,,,,,,,,,,,,,,,,,,,,,,,,,,,,,,,,,,,,,,,,,,,,,,,,,,,,,,2,3.9774,0,5,5,5,1,I would have difficulty just letting my mind wander without control or guidance.,1,6,,
,,,,,,,,,,,,,,,90386,001,2022-04-24_15h40.20.799,SPAMnetsValid,2021.1.4,Win32,143.9884809,,,,,,,,,,,,,,,,,,,,,,,,,,,,,,,,,,,,,,,,,,,,,,,,,,,,,,,,,,,,,,,,,,,,,,,,,,,,,,2,2.9339,0,6,6,6,1,I seldom notice the moods or feelings that different environments produce.,1,7,,
,,,,,,,,,,,,,,,90386,001,2022-04-24_15h40.20.799,SPAMnetsValid,2021.1.4,Win32,143.9884809,,,,,,,,,,,,,,,,,,,,,,,,,,,,,,,,,,,,,,,,,,,,,,,,,,,,,,,,,,,,,,,,,,,,,,,,,,,,,,5,1.5935,0,7,7,7,1,I experience a wide range of emotions or feelings.,0,8,,
,,,,,,,,,,,,,,,90386,001,2022-04-24_15h40.20.799,SPAMnetsValid,2021.1.4,Win32,143.9884809,,,,,,,,,,,,,,,,,,,,,,,,,,,,,,,,,,,,,,,,,,,,,,,,,,,,,,,,,,,,,,,,,,,,,,,,,,,,,,2,2.5849,0,8,8,8,1,"Sometimes when I am reading poetry or looking at a work of art, I feel a chill or wave of excitement.",0,9,,
,,,,,,,,,,,,,,,90386,001,2022-04-24_15h40.20.799,SPAMnetsValid,2021.1.4,Win32,143.9884809,,,,,,,,,,,,,,,,,,,,,,,,,,,,,,,,,,,,,,,,,,,,,,,,,,,,,,,,,,,,,,,,,,,,,,,,,,,,,,4,2.3235,0,9,9,9,1,I have little interest in speculating on the nature of the universe or the human condition.,1,10,,
,,,,,,,,,,,,,,,90386,001,2022-04-24_15h40.20.799,SPAMnetsValid,2021.1.4,Win32,143.9884809,,,,,,,,,,,,,,,,,,,,,,,,,,,,,,,,,,,,,,,,,,,,,,,,,,,,,,,,,,,,,,,,,,,,,,,,,,,,,,4,2.1941,0,10,10,10,1,I have a lot of intellectual curiosity.,0,11,,
,,,,,,,,,,,,,,,90386,001,2022-04-24_15h40.20.799,SPAMnetsValid,2021.1.4,Win32,143.9884809,,,,,,,,,,,,,,,,,,,,,,,,,,,,,,,,,,,,,,,,,,,,,,,,,,,,,,,,,,,,,,,,,,,,,,,,,,,,,,4,1.529,0,11,11,11,1,I often enjoy playing with theories or abstract ideas.,0,12,,
,,,,,,,,,,,,,,,90386,001,2022-04-24_15h40.20.799,SPAMnetsValid,2021.1.4,Win32,143.9884809,,,,,,,,,,,,,,,,,,,,,,,,,,,,,,,,,,,,,,,,,,,,,,,,,,,,,,,,,,,,,,,,,,,,,,,,,,,,,,,,,,,,,,,,return,2333.0347
