key_resp_3.keys,key_resp_3.rt,slider_2.response,slider_2.rt,rjt_rating,rjt_RT,trials_24.thisRepN,trials_24.thisTrialN,trials_24.thisN,trials_24.thisIndex,trials_24.ran,rjt_order,word1,word2,attention,participant,session,date,expName,psychopyVersion,OS,frameRate,trials_4.thisRepN,trials_4.thisTrialN,trials_4.thisN,trials_4.thisIndex,trials_4.ran,trials_5.thisRepN,trials_5.thisTrialN,trials_5.thisN,trials_5.thisIndex,trials_5.ran,repOne,repTwo,slider.response,slider.rt,trials_22.thisRepN,trials_22.thisTrialN,trials_22.thisN,trials_22.thisIndex,trials_22.ran,trials_99.thisRepN,trials_99.thisTrialN,trials_99.thisN,trials_99.thisIndex,trials_99.ran,slider_extend_2.response,slider_extend_2.rt,trials_6.thisRepN,trials_6.thisTrialN,trials_6.thisN,trials_6.thisIndex,trials_6.ran,vCue2,R1,R2,R3,R4,correct,sliderVocab.response,sliderVocab.rt,trials_7.thisRepN,trials_7.thisTrialN,trials_7.thisN,trials_7.thisIndex,trials_7.ran,VocabCue,VR1,VR2,VR3,VR4,VR5,VocabCorrect,AUT_resp,AUT_label,trials.thisRepN,trials.thisTrialN,trials.thisN,trials.thisIndex,trials.ran,trials_2.thisRepN,trials_2.thisTrialN,trials_2.thisN,trials_2.thisIndex,trials_2.ran,aut_prompt,VF_response,VF_tag,trials_16.thisRepN,trials_16.thisTrialN,trials_16.thisN,trials_16.thisIndex,trials_16.ran,trials_17.thisRepN,trials_17.thisTrialN,trials_17.thisN,trials_17.thisIndex,trials_17.ran,VFcond,open_slider.response,open_slider.rt,trials_3.thisRepN,trials_3.thisTrialN,trials_3.thisN,trials_3.thisIndex,trials_3.ran,OpenQ,Rev,OPEN_ORDER,key_resp_2.keys,key_resp_2.rt
return,0.141,1,18.244,1,18.244,0,0,0,53,1,177,chocolate,strawberry,,90380,001,2022-04-28_15h00.00.895,SPAMnetsValid,2021.1.4,MacIntel,62.5,,,,,,,,,,,,,,,,,,,,,,,,,,,,,,,,,,,,,,,,,,,,,,,,,,,,,,,,,,,,,,,,,,,,,,,,,,,,,,,,,,,,,,,,,
,,9,27.271,9,27.271,0,1,1,61,1,138,flower,rose,,90380,001,2022-04-28_15h00.00.895,SPAMnetsValid,2021.1.4,MacIntel,62.5,,,,,,,,,,,,,,,,,,,,,,,,,,,,,,,,,,,,,,,,,,,,,,,,,,,,,,,,,,,,,,,,,,,,,,,,,,,,,,,,,,,,,,,,,
,,7,77.692,7,77.692,0,2,2,51,1,168,cactus,flower,,90380,001,2022-04-28_15h00.00.895,SPAMnetsValid,2021.1.4,MacIntel,62.5,,,,,,,,,,,,,,,,,,,,,,,,,,,,,,,,,,,,,,,,,,,,,,,,,,,,,,,,,,,,,,,,,,,,,,,,,,,,,,,,,,,,,,,,,
,,1,25.292,1,25.292,0,3,3,18,1,119,strawberry,tree,,90380,001,2022-04-28_15h00.00.895,SPAMnetsValid,2021.1.4,MacIntel,62.5,,,,,,,,,,,,,,,,,,,,,,,,,,,,,,,,,,,,,,,,,,,,,,,,,,,,,,,,,,,,,,,,,,,,,,,,,,,,,,,,,,,,,,,,,
,,7,1.682,7,1.682,0,4,4,83,1,100,garden,tomato,,90380,001,2022-04-28_15h00.00.895,SPAMnetsValid,2021.1.4,MacIntel,62.5,,,,,,,,,,,,,,,,,,,,,,,,,,,,,,,,,,,,,,,,,,,,,,,,,,,,,,,,,,,,,,,,,,,,,,,,,,,,,,,,,,,,,,,,,
,,1,1.599,1,1.599,0,5,5,71,1,187,cactus,microwave,,90380,001,2022-04-28_15h00.00.895,SPAMnetsValid,2021.1.4,MacIntel,62.5,,,,,,,,,,,,,,,,,,,,,,,,,,,,,,,,,,,,,,,,,,,,,,,,,,,,,,,,,,,,,,,,,,,,,,,,,,,,,,,,,,,,,,,,,
,,7,1.658,7,1.658,0,6,6,1,1,173,kitchen,tomato,,90380,001,2022-04-28_15h00.00.895,SPAMnetsValid,2021.1.4,MacIntel,62.5,,,,,,,,,,,,,,,,,,,,,,,,,,,,,,,,,,,,,,,,,,,,,,,,,,,,,,,,,,,,,,,,,,,,,,,,,,,,,,,,,,,,,,,,,
,,6,1.505,6,1.505,0,7,7,73,1,135,carrot,oven,,90380,001,2022-04-28_15h00.00.895,SPAMnetsValid,2021.1.4,MacIntel,62.5,,,,,,,,,,,,,,,,,,,,,,,,,,,,,,,,,,,,,,,,,,,,,,,,,,,,,,,,,,,,,,,,,,,,,,,,,,,,,,,,,,,,,,,,,
,,1,1.649,1,1.649,0,8,8,84,1,130,microwave,yogurt,,90380,001,2022-04-28_15h00.00.895,SPAMnetsValid,2021.1.4,MacIntel,62.5,,,,,,,,,,,,,,,,,,,,,,,,,,,,,,,,,,,,,,,,,,,,,,,,,,,,,,,,,,,,,,,,,,,,,,,,,,,,,,,,,,,,,,,,,
,,1,1.536,1,1.536,0,9,9,19,1,183,cake,rose,,90380,001,2022-04-28_15h00.00.895,SPAMnetsValid,2021.1.4,MacIntel,62.5,,,,,,,,,,,,,,,,,,,,,,,,,,,,,,,,,,,,,,,,,,,,,,,,,,,,,,,,,,,,,,,,,,,,,,,,,,,,,,,,,,,,,,,,,
,,6,2.187,6,2.187,0,10,10,35,1,147,cake,refrigerator,,90380,001,2022-04-28_15h00.00.895,SPAMnetsValid,2021.1.4,MacIntel,62.5,,,,,,,,,,,,,,,,,,,,,,,,,,,,,,,,,,,,,,,,,,,,,,,,,,,,,,,,,,,,,,,,,,,,,,,,,,,,,,,,,,,,,,,,,
,,6,2.273,6,2.273,0,11,11,60,1,122,flower,garden,,90380,001,2022-04-28_15h00.00.895,SPAMnetsValid,2021.1.4,MacIntel,62.5,,,,,,,,,,,,,,,,,,,,,,,,,,,,,,,,,,,,,,,,,,,,,,,,,,,,,,,,,,,,,,,,,,,,,,,,,,,,,,,,,,,,,,,,,
,,4,2.936,4,2.936,0,12,12,31,1,156,melon,rose,,90380,001,2022-04-28_15h00.00.895,SPAMnetsValid,2021.1.4,MacIntel,62.5,,,,,,,,,,,,,,,,,,,,,,,,,,,,,,,,,,,,,,,,,,,,,,,,,,,,,,,,,,,,,,,,,,,,,,,,,,,,,,,,,,,,,,,,,
,,3,2.597,3,2.597,0,13,13,69,1,124,oven,refrigerator,,90380,001,2022-04-28_15h00.00.895,SPAMnetsValid,2021.1.4,MacIntel,62.5,,,,,,,,,,,,,,,,,,,,,,,,,,,,,,,,,,,,,,,,,,,,,,,,,,,,,,,,,,,,,,,,,,,,,,,,,,,,,,,,,,,,,,,,,
,,6,1.669,6,1.669,0,14,14,52,1,110,chocolate,cookie,,90380,001,2022-04-28_15h00.00.895,SPAMnetsValid,2021.1.4,MacIntel,62.5,,,,,,,,,,,,,,,,,,,,,,,,,,,,,,,,,,,,,,,,,,,,,,,,,,,,,,,,,,,,,,,,,,,,,,,,,,,,,,,,,,,,,,,,,
,,6,4.248,6,4.248,0,15,15,91,1,166,cake,yogurt,,90380,001,2022-04-28_15h00.00.895,SPAMnetsValid,2021.1.4,MacIntel,62.5,,,,,,,,,,,,,,,,,,,,,,,,,,,,,,,,,,,,,,,,,,,,,,,,,,,,,,,,,,,,,,,,,,,,,,,,,,,,,,,,,,,,,,,,,
,,1,1.548,1,1.548,0,16,16,4,1,109,broom,strawberry,,90380,001,2022-04-28_15h00.00.895,SPAMnetsValid,2021.1.4,MacIntel,62.5,,,,,,,,,,,,,,,,,,,,,,,,,,,,,,,,,,,,,,,,,,,,,,,,,,,,,,,,,,,,,,,,,,,,,,,,,,,,,,,,,,,,,,,,,
,,6,1.581,6,1.581,0,17,17,49,1,152,cactus,strawberry,,90380,001,2022-04-28_15h00.00.895,SPAMnetsValid,2021.1.4,MacIntel,62.5,,,,,,,,,,,,,,,,,,,,,,,,,,,,,,,,,,,,,,,,,,,,,,,,,,,,,,,,,,,,,,,,,,,,,,,,,,,,,,,,,,,,,,,,,
,,1,2.022,1,2.022,0,18,18,96,1,136,chocolate,microwave,,90380,001,2022-04-28_15h00.00.895,SPAMnetsValid,2021.1.4,MacIntel,62.5,,,,,,,,,,,,,,,,,,,,,,,,,,,,,,,,,,,,,,,,,,,,,,,,,,,,,,,,,,,,,,,,,,,,,,,,,,,,,,,,,,,,,,,,,
,,1,1.381,1,1.381,0,19,19,8,1,97,chocolate,kitchen,,90380,001,2022-04-28_15h00.00.895,SPAMnetsValid,2021.1.4,MacIntel,62.5,,,,,,,,,,,,,,,,,,,,,,,,,,,,,,,,,,,,,,,,,,,,,,,,,,,,,,,,,,,,,,,,,,,,,,,,,,,,,,,,,,,,,,,,,
,,9,2.052,9,2.052,0,20,20,25,1,194,cactus,cactus,CHECK,90380,001,2022-04-28_15h00.00.895,SPAMnetsValid,2021.1.4,MacIntel,62.5,,,,,,,,,,,,,,,,,,,,,,,,,,,,,,,,,,,,,,,,,,,,,,,,,,,,,,,,,,,,,,,,,,,,,,,,,,,,,,,,,,,,,,,,,
,,1,2.286,1,2.286,0,21,21,88,1,171,cake,tomato,,90380,001,2022-04-28_15h00.00.895,SPAMnetsValid,2021.1.4,MacIntel,62.5,,,,,,,,,,,,,,,,,,,,,,,,,,,,,,,,,,,,,,,,,,,,,,,,,,,,,,,,,,,,,,,,,,,,,,,,,,,,,,,,,,,,,,,,,
,,5,1.999,5,1.999,0,22,22,22,1,142,garden,tree,,90380,001,2022-04-28_15h00.00.895,SPAMnetsValid,2021.1.4,MacIntel,62.5,,,,,,,,,,,,,,,,,,,,,,,,,,,,,,,,,,,,,,,,,,,,,,,,,,,,,,,,,,,,,,,,,,,,,,,,,,,,,,,,,,,,,,,,,
,,2,1.77,2,1.77,0,23,23,77,1,172,kitchen,melon,,90380,001,2022-04-28_15h00.00.895,SPAMnetsValid,2021.1.4,MacIntel,62.5,,,,,,,,,,,,,,,,,,,,,,,,,,,,,,,,,,,,,,,,,,,,,,,,,,,,,,,,,,,,,,,,,,,,,,,,,,,,,,,,,,,,,,,,,
,,5,2.119,5,2.119,0,24,24,28,1,154,strawberry,yogurt,,90380,001,2022-04-28_15h00.00.895,SPAMnetsValid,2021.1.4,MacIntel,62.5,,,,,,,,,,,,,,,,,,,,,,,,,,,,,,,,,,,,,,,,,,,,,,,,,,,,,,,,,,,,,,,,,,,,,,,,,,,,,,,,,,,,,,,,,
,,3,2.68,3,2.68,0,25,25,9,1,176,cactus,tomato,,90380,001,2022-04-28_15h00.00.895,SPAMnetsValid,2021.1.4,MacIntel,62.5,,,,,,,,,,,,,,,,,,,,,,,,,,,,,,,,,,,,,,,,,,,,,,,,,,,,,,,,,,,,,,,,,,,,,,,,,,,,,,,,,,,,,,,,,
,,1,1.287,1,1.287,0,26,26,94,1,133,cake,flower,,90380,001,2022-04-28_15h00.00.895,SPAMnetsValid,2021.1.4,MacIntel,62.5,,,,,,,,,,,,,,,,,,,,,,,,,,,,,,,,,,,,,,,,,,,,,,,,,,,,,,,,,,,,,,,,,,,,,,,,,,,,,,,,,,,,,,,,,
,,1,1.902,1,1.902,0,27,27,67,1,96,oven,strawberry,,90380,001,2022-04-28_15h00.00.895,SPAMnetsValid,2021.1.4,MacIntel,62.5,,,,,,,,,,,,,,,,,,,,,,,,,,,,,,,,,,,,,,,,,,,,,,,,,,,,,,,,,,,,,,,,,,,,,,,,,,,,,,,,,,,,,,,,,
,,2,1.645,2,1.645,0,28,28,46,1,123,cookie,tree,,90380,001,2022-04-28_15h00.00.895,SPAMnetsValid,2021.1.4,MacIntel,62.5,,,,,,,,,,,,,,,,,,,,,,,,,,,,,,,,,,,,,,,,,,,,,,,,,,,,,,,,,,,,,,,,,,,,,,,,,,,,,,,,,,,,,,,,,
,,3,1.521,3,1.521,0,29,29,32,1,182,flower,refrigerator,,90380,001,2022-04-28_15h00.00.895,SPAMnetsValid,2021.1.4,MacIntel,62.5,,,,,,,,,,,,,,,,,,,,,,,,,,,,,,,,,,,,,,,,,,,,,,,,,,,,,,,,,,,,,,,,,,,,,,,,,,,,,,,,,,,,,,,,,
,,1,1.881,1,1.881,0,30,30,40,1,165,onion,rose,,90380,001,2022-04-28_15h00.00.895,SPAMnetsValid,2021.1.4,MacIntel,62.5,,,,,,,,,,,,,,,,,,,,,,,,,,,,,,,,,,,,,,,,,,,,,,,,,,,,,,,,,,,,,,,,,,,,,,,,,,,,,,,,,,,,,,,,,
,,1,1.702,1,1.702,0,31,31,34,1,153,carrot,pretzel,,90380,001,2022-04-28_15h00.00.895,SPAMnetsValid,2021.1.4,MacIntel,62.5,,,,,,,,,,,,,,,,,,,,,,,,,,,,,,,,,,,,,,,,,,,,,,,,,,,,,,,,,,,,,,,,,,,,,,,,,,,,,,,,,,,,,,,,,
,,1,1.502,1,1.502,0,32,32,16,1,111,carrot,microwave,,90380,001,2022-04-28_15h00.00.895,SPAMnetsValid,2021.1.4,MacIntel,62.5,,,,,,,,,,,,,,,,,,,,,,,,,,,,,,,,,,,,,,,,,,,,,,,,,,,,,,,,,,,,,,,,,,,,,,,,,,,,,,,,,,,,,,,,,
,,1,1.574,1,1.574,0,33,33,15,1,145,cactus,yogurt,,90380,001,2022-04-28_15h00.00.895,SPAMnetsValid,2021.1.4,MacIntel,62.5,,,,,,,,,,,,,,,,,,,,,,,,,,,,,,,,,,,,,,,,,,,,,,,,,,,,,,,,,,,,,,,,,,,,,,,,,,,,,,,,,,,,,,,,,
,,1,1.283,1,1.283,0,34,34,65,1,160,cookie,kitchen,,90380,001,2022-04-28_15h00.00.895,SPAMnetsValid,2021.1.4,MacIntel,62.5,,,,,,,,,,,,,,,,,,,,,,,,,,,,,,,,,,,,,,,,,,,,,,,,,,,,,,,,,,,,,,,,,,,,,,,,,,,,,,,,,,,,,,,,,
,,1,1.32,1,1.32,0,35,35,89,1,140,cookie,refrigerator,,90380,001,2022-04-28_15h00.00.895,SPAMnetsValid,2021.1.4,MacIntel,62.5,,,,,,,,,,,,,,,,,,,,,,,,,,,,,,,,,,,,,,,,,,,,,,,,,,,,,,,,,,,,,,,,,,,,,,,,,,,,,,,,,,,,,,,,,
,,1,1.671,1,1.671,0,36,36,5,1,108,carrot,chocolate,,90380,001,2022-04-28_15h00.00.895,SPAMnetsValid,2021.1.4,MacIntel,62.5,,,,,,,,,,,,,,,,,,,,,,,,,,,,,,,,,,,,,,,,,,,,,,,,,,,,,,,,,,,,,,,,,,,,,,,,,,,,,,,,,,,,,,,,,
,,9,1.713,9,1.713,0,37,37,86,1,193,melon,melon,CHECK,90380,001,2022-04-28_15h00.00.895,SPAMnetsValid,2021.1.4,MacIntel,62.5,,,,,,,,,,,,,,,,,,,,,,,,,,,,,,,,,,,,,,,,,,,,,,,,,,,,,,,,,,,,,,,,,,,,,,,,,,,,,,,,,,,,,,,,,
,,1,1.493,1,1.493,0,38,38,58,1,144,cake,garden,,90380,001,2022-04-28_15h00.00.895,SPAMnetsValid,2021.1.4,MacIntel,62.5,,,,,,,,,,,,,,,,,,,,,,,,,,,,,,,,,,,,,,,,,,,,,,,,,,,,,,,,,,,,,,,,,,,,,,,,,,,,,,,,,,,,,,,,,
,,1,1.615,1,1.615,0,39,39,72,1,181,carrot,kitchen,,90380,001,2022-04-28_15h00.00.895,SPAMnetsValid,2021.1.4,MacIntel,62.5,,,,,,,,,,,,,,,,,,,,,,,,,,,,,,,,,,,,,,,,,,,,,,,,,,,,,,,,,,,,,,,,,,,,,,,,,,,,,,,,,,,,,,,,,
,,1,1.502,1,1.502,0,40,40,41,1,175,melon,onion,,90380,001,2022-04-28_15h00.00.895,SPAMnetsValid,2021.1.4,MacIntel,62.5,,,,,,,,,,,,,,,,,,,,,,,,,,,,,,,,,,,,,,,,,,,,,,,,,,,,,,,,,,,,,,,,,,,,,,,,,,,,,,,,,,,,,,,,,
,,1,1.489,1,1.489,0,41,41,39,1,112,cake,carrot,,90380,001,2022-04-28_15h00.00.895,SPAMnetsValid,2021.1.4,MacIntel,62.5,,,,,,,,,,,,,,,,,,,,,,,,,,,,,,,,,,,,,,,,,,,,,,,,,,,,,,,,,,,,,,,,,,,,,,,,,,,,,,,,,,,,,,,,,
,,1,1.62,1,1.62,0,42,42,45,1,179,broom,oven,,90380,001,2022-04-28_15h00.00.895,SPAMnetsValid,2021.1.4,MacIntel,62.5,,,,,,,,,,,,,,,,,,,,,,,,,,,,,,,,,,,,,,,,,,,,,,,,,,,,,,,,,,,,,,,,,,,,,,,,,,,,,,,,,,,,,,,,,
,,1,1.513,1,1.513,0,43,43,14,1,120,microwave,oven,,90380,001,2022-04-28_15h00.00.895,SPAMnetsValid,2021.1.4,MacIntel,62.5,,,,,,,,,,,,,,,,,,,,,,,,,,,,,,,,,,,,,,,,,,,,,,,,,,,,,,,,,,,,,,,,,,,,,,,,,,,,,,,,,,,,,,,,,
,,1,1.548,1,1.548,0,44,44,85,1,115,refrigerator,tomato,,90380,001,2022-04-28_15h00.00.895,SPAMnetsValid,2021.1.4,MacIntel,62.5,,,,,,,,,,,,,,,,,,,,,,,,,,,,,,,,,,,,,,,,,,,,,,,,,,,,,,,,,,,,,,,,,,,,,,,,,,,,,,,,,,,,,,,,,
,,2,2.186,2,2.186,0,45,45,90,1,190,microwave,strawberry,,90380,001,2022-04-28_15h00.00.895,SPAMnetsValid,2021.1.4,MacIntel,62.5,,,,,,,,,,,,,,,,,,,,,,,,,,,,,,,,,,,,,,,,,,,,,,,,,,,,,,,,,,,,,,,,,,,,,,,,,,,,,,,,,,,,,,,,,
,,1,2.022,1,2.022,0,46,46,6,1,151,microwave,onion,,90380,001,2022-04-28_15h00.00.895,SPAMnetsValid,2021.1.4,MacIntel,62.5,,,,,,,,,,,,,,,,,,,,,,,,,,,,,,,,,,,,,,,,,,,,,,,,,,,,,,,,,,,,,,,,,,,,,,,,,,,,,,,,,,,,,,,,,
,,1,2.099,1,2.099,0,47,47,92,1,170,cookie,microwave,,90380,001,2022-04-28_15h00.00.895,SPAMnetsValid,2021.1.4,MacIntel,62.5,,,,,,,,,,,,,,,,,,,,,,,,,,,,,,,,,,,,,,,,,,,,,,,,,,,,,,,,,,,,,,,,,,,,,,,,,,,,,,,,,,,,,,,,,
,,6,1.411,6,1.411,0,48,48,17,1,99,garden,melon,,90380,001,2022-04-28_15h00.00.895,SPAMnetsValid,2021.1.4,MacIntel,62.5,,,,,,,,,,,,,,,,,,,,,,,,,,,,,,,,,,,,,,,,,,,,,,,,,,,,,,,,,,,,,,,,,,,,,,,,,,,,,,,,,,,,,,,,,
,,6,1.187,6,1.187,0,49,49,70,1,141,melon,tomato,,90380,001,2022-04-28_15h00.00.895,SPAMnetsValid,2021.1.4,MacIntel,62.5,,,,,,,,,,,,,,,,,,,,,,,,,,,,,,,,,,,,,,,,,,,,,,,,,,,,,,,,,,,,,,,,,,,,,,,,,,,,,,,,,,,,,,,,,
,,6,1.182,6,1.182,0,50,50,36,1,161,kitchen,pretzel,,90380,001,2022-04-28_15h00.00.895,SPAMnetsValid,2021.1.4,MacIntel,62.5,,,,,,,,,,,,,,,,,,,,,,,,,,,,,,,,,,,,,,,,,,,,,,,,,,,,,,,,,,,,,,,,,,,,,,,,,,,,,,,,,,,,,,,,,
,,6,2.59,6,2.59,0,51,51,48,1,186,kitchen,yogurt,,90380,001,2022-04-28_15h00.00.895,SPAMnetsValid,2021.1.4,MacIntel,62.5,,,,,,,,,,,,,,,,,,,,,,,,,,,,,,,,,,,,,,,,,,,,,,,,,,,,,,,,,,,,,,,,,,,,,,,,,,,,,,,,,,,,,,,,,
,,1,1.953,1,1.953,0,52,52,21,1,159,cookie,flower,,90380,001,2022-04-28_15h00.00.895,SPAMnetsValid,2021.1.4,MacIntel,62.5,,,,,,,,,,,,,,,,,,,,,,,,,,,,,,,,,,,,,,,,,,,,,,,,,,,,,,,,,,,,,,,,,,,,,,,,,,,,,,,,,,,,,,,,,
,,5,1.954,5,1.954,0,53,53,75,1,178,cactus,carrot,,90380,001,2022-04-28_15h00.00.895,SPAMnetsValid,2021.1.4,MacIntel,62.5,,,,,,,,,,,,,,,,,,,,,,,,,,,,,,,,,,,,,,,,,,,,,,,,,,,,,,,,,,,,,,,,,,,,,,,,,,,,,,,,,,,,,,,,,
,,1,1.382,1,1.382,0,54,54,3,1,129,cactus,refrigerator,,90380,001,2022-04-28_15h00.00.895,SPAMnetsValid,2021.1.4,MacIntel,62.5,,,,,,,,,,,,,,,,,,,,,,,,,,,,,,,,,,,,,,,,,,,,,,,,,,,,,,,,,,,,,,,,,,,,,,,,,,,,,,,,,,,,,,,,,
,,1,1.338,1,1.338,0,55,55,79,1,103,pretzel,tomato,,90380,001,2022-04-28_15h00.00.895,SPAMnetsValid,2021.1.4,MacIntel,62.5,,,,,,,,,,,,,,,,,,,,,,,,,,,,,,,,,,,,,,,,,,,,,,,,,,,,,,,,,,,,,,,,,,,,,,,,,,,,,,,,,,,,,,,,,
,,6,1.356,6,1.356,0,56,56,47,1,167,carrot,garden,,90380,001,2022-04-28_15h00.00.895,SPAMnetsValid,2021.1.4,MacIntel,62.5,,,,,,,,,,,,,,,,,,,,,,,,,,,,,,,,,,,,,,,,,,,,,,,,,,,,,,,,,,,,,,,,,,,,,,,,,,,,,,,,,,,,,,,,,
,,1,1.131,1,1.131,0,57,57,62,1,189,onion,tree,,90380,001,2022-04-28_15h00.00.895,SPAMnetsValid,2021.1.4,MacIntel,62.5,,,,,,,,,,,,,,,,,,,,,,,,,,,,,,,,,,,,,,,,,,,,,,,,,,,,,,,,,,,,,,,,,,,,,,,,,,,,,,,,,,,,,,,,,
,,1,1.48,1,1.48,0,58,58,23,1,148,flower,melon,,90380,001,2022-04-28_15h00.00.895,SPAMnetsValid,2021.1.4,MacIntel,62.5,,,,,,,,,,,,,,,,,,,,,,,,,,,,,,,,,,,,,,,,,,,,,,,,,,,,,,,,,,,,,,,,,,,,,,,,,,,,,,,,,,,,,,,,,
,,1,1.155,1,1.155,0,59,59,12,1,162,microwave,tomato,,90380,001,2022-04-28_15h00.00.895,SPAMnetsValid,2021.1.4,MacIntel,62.5,,,,,,,,,,,,,,,,,,,,,,,,,,,,,,,,,,,,,,,,,,,,,,,,,,,,,,,,,,,,,,,,,,,,,,,,,,,,,,,,,,,,,,,,,
,,1,1.341,1,1.341,0,60,60,64,1,157,refrigerator,rose,,90380,001,2022-04-28_15h00.00.895,SPAMnetsValid,2021.1.4,MacIntel,62.5,,,,,,,,,,,,,,,,,,,,,,,,,,,,,,,,,,,,,,,,,,,,,,,,,,,,,,,,,,,,,,,,,,,,,,,,,,,,,,,,,,,,,,,,,
,,1,1.497,1,1.497,0,61,61,37,1,139,carrot,strawberry,,90380,001,2022-04-28_15h00.00.895,SPAMnetsValid,2021.1.4,MacIntel,62.5,,,,,,,,,,,,,,,,,,,,,,,,,,,,,,,,,,,,,,,,,,,,,,,,,,,,,,,,,,,,,,,,,,,,,,,,,,,,,,,,,,,,,,,,,
,,1,1.419,1,1.419,0,62,62,38,1,155,carrot,cookie,,90380,001,2022-04-28_15h00.00.895,SPAMnetsValid,2021.1.4,MacIntel,62.5,,,,,,,,,,,,,,,,,,,,,,,,,,,,,,,,,,,,,,,,,,,,,,,,,,,,,,,,,,,,,,,,,,,,,,,,,,,,,,,,,,,,,,,,,
,,1,1.294,1,1.294,0,63,63,56,1,113,refrigerator,strawberry,,90380,001,2022-04-28_15h00.00.895,SPAMnetsValid,2021.1.4,MacIntel,62.5,,,,,,,,,,,,,,,,,,,,,,,,,,,,,,,,,,,,,,,,,,,,,,,,,,,,,,,,,,,,,,,,,,,,,,,,,,,,,,,,,,,,,,,,,
,,1,1.393,1,1.393,0,64,64,24,1,169,onion,yogurt,,90380,001,2022-04-28_15h00.00.895,SPAMnetsValid,2021.1.4,MacIntel,62.5,,,,,,,,,,,,,,,,,,,,,,,,,,,,,,,,,,,,,,,,,,,,,,,,,,,,,,,,,,,,,,,,,,,,,,,,,,,,,,,,,,,,,,,,,
,,1,1.271,1,1.271,0,65,65,78,1,132,broom,tree,,90380,001,2022-04-28_15h00.00.895,SPAMnetsValid,2021.1.4,MacIntel,62.5,,,,,,,,,,,,,,,,,,,,,,,,,,,,,,,,,,,,,,,,,,,,,,,,,,,,,,,,,,,,,,,,,,,,,,,,,,,,,,,,,,,,,,,,,
,,1,1.153,1,1.153,0,66,66,95,1,121,broom,microwave,,90380,001,2022-04-28_15h00.00.895,SPAMnetsValid,2021.1.4,MacIntel,62.5,,,,,,,,,,,,,,,,,,,,,,,,,,,,,,,,,,,,,,,,,,,,,,,,,,,,,,,,,,,,,,,,,,,,,,,,,,,,,,,,,,,,,,,,,
,,1,1.385,1,1.385,0,67,67,44,1,116,cake,chocolate,,90380,001,2022-04-28_15h00.00.895,SPAMnetsValid,2021.1.4,MacIntel,62.5,,,,,,,,,,,,,,,,,,,,,,,,,,,,,,,,,,,,,,,,,,,,,,,,,,,,,,,,,,,,,,,,,,,,,,,,,,,,,,,,,,,,,,,,,
,,1,1.564,1,1.564,0,68,68,66,1,150,microwave,refrigerator,,90380,001,2022-04-28_15h00.00.895,SPAMnetsValid,2021.1.4,MacIntel,62.5,,,,,,,,,,,,,,,,,,,,,,,,,,,,,,,,,,,,,,,,,,,,,,,,,,,,,,,,,,,,,,,,,,,,,,,,,,,,,,,,,,,,,,,,,
,,1,8.453,1,8.453,0,69,69,74,1,128,melon,microwave,,90380,001,2022-04-28_15h00.00.895,SPAMnetsValid,2021.1.4,MacIntel,62.5,,,,,,,,,,,,,,,,,,,,,,,,,,,,,,,,,,,,,,,,,,,,,,,,,,,,,,,,,,,,,,,,,,,,,,,,,,,,,,,,,,,,,,,,,
,,6,4.52,6,4.52,0,70,70,50,1,126,kitchen,tree,,90380,001,2022-04-28_15h00.00.895,SPAMnetsValid,2021.1.4,MacIntel,62.5,,,,,,,,,,,,,,,,,,,,,,,,,,,,,,,,,,,,,,,,,,,,,,,,,,,,,,,,,,,,,,,,,,,,,,,,,,,,,,,,,,,,,,,,,
,,1,1.371,1,1.371,0,71,71,55,1,143,pretzel,rose,,90380,001,2022-04-28_15h00.00.895,SPAMnetsValid,2021.1.4,MacIntel,62.5,,,,,,,,,,,,,,,,,,,,,,,,,,,,,,,,,,,,,,,,,,,,,,,,,,,,,,,,,,,,,,,,,,,,,,,,,,,,,,,,,,,,,,,,,
,,1,1.262,1,1.262,0,72,72,20,1,149,broom,tomato,,90380,001,2022-04-28_15h00.00.895,SPAMnetsValid,2021.1.4,MacIntel,62.5,,,,,,,,,,,,,,,,,,,,,,,,,,,,,,,,,,,,,,,,,,,,,,,,,,,,,,,,,,,,,,,,,,,,,,,,,,,,,,,,,,,,,,,,,
,,1,1.387,1,1.387,0,73,73,57,1,127,cactus,chocolate,,90380,001,2022-04-28_15h00.00.895,SPAMnetsValid,2021.1.4,MacIntel,62.5,,,,,,,,,,,,,,,,,,,,,,,,,,,,,,,,,,,,,,,,,,,,,,,,,,,,,,,,,,,,,,,,,,,,,,,,,,,,,,,,,,,,,,,,,
,,1,1.431,1,1.431,0,74,74,11,1,117,melon,strawberry,,90380,001,2022-04-28_15h00.00.895,SPAMnetsValid,2021.1.4,MacIntel,62.5,,,,,,,,,,,,,,,,,,,,,,,,,,,,,,,,,,,,,,,,,,,,,,,,,,,,,,,,,,,,,,,,,,,,,,,,,,,,,,,,,,,,,,,,,
,,1,1.221,1,1.221,0,75,75,82,1,98,pretzel,strawberry,,90380,001,2022-04-28_15h00.00.895,SPAMnetsValid,2021.1.4,MacIntel,62.5,,,,,,,,,,,,,,,,,,,,,,,,,,,,,,,,,,,,,,,,,,,,,,,,,,,,,,,,,,,,,,,,,,,,,,,,,,,,,,,,,,,,,,,,,
,,8,1.531,8,1.531,0,76,76,27,1,158,cookie,oven,,90380,001,2022-04-28_15h00.00.895,SPAMnetsValid,2021.1.4,MacIntel,62.5,,,,,,,,,,,,,,,,,,,,,,,,,,,,,,,,,,,,,,,,,,,,,,,,,,,,,,,,,,,,,,,,,,,,,,,,,,,,,,,,,,,,,,,,,
,,1,1.445,1,1.445,0,77,77,80,1,146,pretzel,tree,,90380,001,2022-04-28_15h00.00.895,SPAMnetsValid,2021.1.4,MacIntel,62.5,,,,,,,,,,,,,,,,,,,,,,,,,,,,,,,,,,,,,,,,,,,,,,,,,,,,,,,,,,,,,,,,,,,,,,,,,,,,,,,,,,,,,,,,,
,,1,1.296,1,1.296,0,78,78,43,1,185,cactus,rose,,90380,001,2022-04-28_15h00.00.895,SPAMnetsValid,2021.1.4,MacIntel,62.5,,,,,,,,,,,,,,,,,,,,,,,,,,,,,,,,,,,,,,,,,,,,,,,,,,,,,,,,,,,,,,,,,,,,,,,,,,,,,,,,,,,,,,,,,
,,1,2.415,1,2.415,0,79,79,26,1,107,rose,tomato,,90380,001,2022-04-28_15h00.00.895,SPAMnetsValid,2021.1.4,MacIntel,62.5,,,,,,,,,,,,,,,,,,,,,,,,,,,,,,,,,,,,,,,,,,,,,,,,,,,,,,,,,,,,,,,,,,,,,,,,,,,,,,,,,,,,,,,,,
,,1,1.911,1,1.911,0,80,80,30,1,125,carrot,tree,,90380,001,2022-04-28_15h00.00.895,SPAMnetsValid,2021.1.4,MacIntel,62.5,,,,,,,,,,,,,,,,,,,,,,,,,,,,,,,,,,,,,,,,,,,,,,,,,,,,,,,,,,,,,,,,,,,,,,,,,,,,,,,,,,,,,,,,,
,,1,1.615,1,1.615,0,81,81,81,1,104,garden,microwave,,90380,001,2022-04-28_15h00.00.895,SPAMnetsValid,2021.1.4,MacIntel,62.5,,,,,,,,,,,,,,,,,,,,,,,,,,,,,,,,,,,,,,,,,,,,,,,,,,,,,,,,,,,,,,,,,,,,,,,,,,,,,,,,,,,,,,,,,
,,2,1.415,2,1.415,0,82,82,0,1,106,cake,strawberry,,90380,001,2022-04-28_15h00.00.895,SPAMnetsValid,2021.1.4,MacIntel,62.5,,,,,,,,,,,,,,,,,,,,,,,,,,,,,,,,,,,,,,,,,,,,,,,,,,,,,,,,,,,,,,,,,,,,,,,,,,,,,,,,,,,,,,,,,
,,1,1.228,1,1.228,0,83,83,2,1,174,cake,pretzel,,90380,001,2022-04-28_15h00.00.895,SPAMnetsValid,2021.1.4,MacIntel,62.5,,,,,,,,,,,,,,,,,,,,,,,,,,,,,,,,,,,,,,,,,,,,,,,,,,,,,,,,,,,,,,,,,,,,,,,,,,,,,,,,,,,,,,,,,
,,1,1.407,1,1.407,0,84,84,76,1,102,chocolate,refrigerator,,90380,001,2022-04-28_15h00.00.895,SPAMnetsValid,2021.1.4,MacIntel,62.5,,,,,,,,,,,,,,,,,,,,,,,,,,,,,,,,,,,,,,,,,,,,,,,,,,,,,,,,,,,,,,,,,,,,,,,,,,,,,,,,,,,,,,,,,
,,1,1.671,1,1.671,0,85,85,93,1,134,carrot,flower,,90380,001,2022-04-28_15h00.00.895,SPAMnetsValid,2021.1.4,MacIntel,62.5,,,,,,,,,,,,,,,,,,,,,,,,,,,,,,,,,,,,,,,,,,,,,,,,,,,,,,,,,,,,,,,,,,,,,,,,,,,,,,,,,,,,,,,,,
,,3,1.82,3,1.82,0,86,86,68,1,180,tree,yogurt,,90380,001,2022-04-28_15h00.00.895,SPAMnetsValid,2021.1.4,MacIntel,62.5,,,,,,,,,,,,,,,,,,,,,,,,,,,,,,,,,,,,,,,,,,,,,,,,,,,,,,,,,,,,,,,,,,,,,,,,,,,,,,,,,,,,,,,,,
,,4,0.807,4,0.807,0,87,87,10,1,118,chocolate,oven,,90380,001,2022-04-28_15h00.00.895,SPAMnetsValid,2021.1.4,MacIntel,62.5,,,,,,,,,,,,,,,,,,,,,,,,,,,,,,,,,,,,,,,,,,,,,,,,,,,,,,,,,,,,,,,,,,,,,,,,,,,,,,,,,,,,,,,,,
,,1,1.206,1,1.206,0,88,88,7,1,188,flower,tree,,90380,001,2022-04-28_15h00.00.895,SPAMnetsValid,2021.1.4,MacIntel,62.5,,,,,,,,,,,,,,,,,,,,,,,,,,,,,,,,,,,,,,,,,,,,,,,,,,,,,,,,,,,,,,,,,,,,,,,,,,,,,,,,,,,,,,,,,
,,9,1.465,9,1.465,0,89,89,42,1,184,oven,pretzel,,90380,001,2022-04-28_15h00.00.895,SPAMnetsValid,2021.1.4,MacIntel,62.5,,,,,,,,,,,,,,,,,,,,,,,,,,,,,,,,,,,,,,,,,,,,,,,,,,,,,,,,,,,,,,,,,,,,,,,,,,,,,,,,,,,,,,,,,
,,3,1.319,3,1.319,0,90,90,33,1,131,cactus,garden,,90380,001,2022-04-28_15h00.00.895,SPAMnetsValid,2021.1.4,MacIntel,62.5,,,,,,,,,,,,,,,,,,,,,,,,,,,,,,,,,,,,,,,,,,,,,,,,,,,,,,,,,,,,,,,,,,,,,,,,,,,,,,,,,,,,,,,,,
,,1,1.033,1,1.033,0,91,91,29,1,163,melon,refrigerator,,90380,001,2022-04-28_15h00.00.895,SPAMnetsValid,2021.1.4,MacIntel,62.5,,,,,,,,,,,,,,,,,,,,,,,,,,,,,,,,,,,,,,,,,,,,,,,,,,,,,,,,,,,,,,,,,,,,,,,,,,,,,,,,,,,,,,,,,
,,2,1.204,2,1.204,0,92,92,54,1,101,cactus,kitchen,,90380,001,2022-04-28_15h00.00.895,SPAMnetsValid,2021.1.4,MacIntel,62.5,,,,,,,,,,,,,,,,,,,,,,,,,,,,,,,,,,,,,,,,,,,,,,,,,,,,,,,,,,,,,,,,,,,,,,,,,,,,,,,,,,,,,,,,,
,,1,0.957,1,0.957,0,93,93,13,1,105,cactus,oven,,90380,001,2022-04-28_15h00.00.895,SPAMnetsValid,2021.1.4,MacIntel,62.5,,,,,,,,,,,,,,,,,,,,,,,,,,,,,,,,,,,,,,,,,,,,,,,,,,,,,,,,,,,,,,,,,,,,,,,,,,,,,,,,,,,,,,,,,
,,2,1.579,2,1.579,0,94,94,87,1,114,cookie,strawberry,,90380,001,2022-04-28_15h00.00.895,SPAMnetsValid,2021.1.4,MacIntel,62.5,,,,,,,,,,,,,,,,,,,,,,,,,,,,,,,,,,,,,,,,,,,,,,,,,,,,,,,,,,,,,,,,,,,,,,,,,,,,,,,,,,,,,,,,,
,,4,1.798,4,1.798,0,95,95,63,1,137,microwave,tree,,90380,001,2022-04-28_15h00.00.895,SPAMnetsValid,2021.1.4,MacIntel,62.5,,,,,,,,,,,,,,,,,,,,,,,,,,,,,,,,,,,,,,,,,,,,,,,,,,,,,,,,,,,,,,,,,,,,,,,,,,,,,,,,,,,,,,,,,
,,3,1.238,3,1.238,0,96,96,59,1,164,cookie,garden,,90380,001,2022-04-28_15h00.00.895,SPAMnetsValid,2021.1.4,MacIntel,62.5,,,,,,,,,,,,,,,,,,,,,,,,,,,,,,,,,,,,,,,,,,,,,,,,,,,,,,,,,,,,,,,,,,,,,,,,,,,,,,,,,,,,,,,,,
,,,,,,,,,,,,,,,90380,001,2022-04-28_15h00.00.895,SPAMnetsValid,2021.1.4,MacIntel,62.5,0,0,0,0,1,,,,,,,,,,,,,,,,,,,,,,,,,,,,,,,,,,,,,,,,,,,,,,,,,,,,,,,,,,,,,,,,,,,,,,,,,,,,,,,,,,,,
,,,,,,,,,,,,,,,90380,001,2022-04-28_15h00.00.895,SPAMnetsValid,2021.1.4,MacIntel,62.5,,,,,,0,0,0,1,1,0,1,,,,,,,,,,,,,,,,,,,,,,,,,,,,,,,,,,,,,,,,,,,,,,,,,,,,,,,,,,,,,,,,,,,,,,,,,,,,,
,,,,4,1.14,,,,,,10,flower,onion,,90380,001,2022-04-28_15h00.00.895,SPAMnetsValid,2021.1.4,MacIntel,62.5,,,,,,,,,,,,,4,1.14,0,0,0,45,1,,,,,,,,,,,,,,,,,,,,,,,,,,,,,,,,,,,,,,,,,,,,,,,,,,,,,,,,,,,,,,,,,,,,,,
,,,,3,1.037,,,,,,87,carrot,yogurt,,90380,001,2022-04-28_15h00.00.895,SPAMnetsValid,2021.1.4,MacIntel,62.5,,,,,,,,,,,,,3,1.037,0,1,1,6,1,,,,,,,,,,,,,,,,,,,,,,,,,,,,,,,,,,,,,,,,,,,,,,,,,,,,,,,,,,,,,,,,,,,,,,
,,,,7,1.415,,,,,,77,refrigerator,yogurt,,90380,001,2022-04-28_15h00.00.895,SPAMnetsValid,2021.1.4,MacIntel,62.5,,,,,,,,,,,,,7,1.415,0,2,2,42,1,,,,,,,,,,,,,,,,,,,,,,,,,,,,,,,,,,,,,,,,,,,,,,,,,,,,,,,,,,,,,,,,,,,,,,
,,,,1,1.356,,,,,,86,oven,rose,,90380,001,2022-04-28_15h00.00.895,SPAMnetsValid,2021.1.4,MacIntel,62.5,,,,,,,,,,,,,1,1.356,0,3,3,79,1,,,,,,,,,,,,,,,,,,,,,,,,,,,,,,,,,,,,,,,,,,,,,,,,,,,,,,,,,,,,,,,,,,,,,,
,,,,3,1.132,,,,,,55,tomato,tree,,90380,001,2022-04-28_15h00.00.895,SPAMnetsValid,2021.1.4,MacIntel,62.5,,,,,,,,,,,,,3,1.132,0,4,4,35,1,,,,,,,,,,,,,,,,,,,,,,,,,,,,,,,,,,,,,,,,,,,,,,,,,,,,,,,,,,,,,,,,,,,,,,
,,,,2,0.963,,,,,,89,chocolate,rose,,90380,001,2022-04-28_15h00.00.895,SPAMnetsValid,2021.1.4,MacIntel,62.5,,,,,,,,,,,,,2,0.963,0,5,5,60,1,,,,,,,,,,,,,,,,,,,,,,,,,,,,,,,,,,,,,,,,,,,,,,,,,,,,,,,,,,,,,,,,,,,,,,
,,,,2,0.91,,,,,,9,kitchen,refrigerator,,90380,001,2022-04-28_15h00.00.895,SPAMnetsValid,2021.1.4,MacIntel,62.5,,,,,,,,,,,,,2,0.91,0,6,6,64,1,,,,,,,,,,,,,,,,,,,,,,,,,,,,,,,,,,,,,,,,,,,,,,,,,,,,,,,,,,,,,,,,,,,,,,
,,,,9,1.531,,,,,,191,cake,cake,CHECK,90380,001,2022-04-28_15h00.00.895,SPAMnetsValid,2021.1.4,MacIntel,62.5,,,,,,,,,,,,,9,1.531,0,7,7,10,1,,,,,,,,,,,,,,,,,,,,,,,,,,,,,,,,,,,,,,,,,,,,,,,,,,,,,,,,,,,,,,,,,,,,,,
,,,,3,1.281,,,,,,80,chocolate,tree,,90380,001,2022-04-28_15h00.00.895,SPAMnetsValid,2021.1.4,MacIntel,62.5,,,,,,,,,,,,,3,1.281,0,8,8,89,1,,,,,,,,,,,,,,,,,,,,,,,,,,,,,,,,,,,,,,,,,,,,,,,,,,,,,,,,,,,,,,,,,,,,,,
,,,,1,1.087,,,,,,5,oven,tree,,90380,001,2022-04-28_15h00.00.895,SPAMnetsValid,2021.1.4,MacIntel,62.5,,,,,,,,,,,,,1,1.087,0,9,9,70,1,,,,,,,,,,,,,,,,,,,,,,,,,,,,,,,,,,,,,,,,,,,,,,,,,,,,,,,,,,,,,,,,,,,,,,
,,,,1,1.265,,,,,,16,chocolate,flower,,90380,001,2022-04-28_15h00.00.895,SPAMnetsValid,2021.1.4,MacIntel,62.5,,,,,,,,,,,,,1,1.265,0,10,10,22,1,,,,,,,,,,,,,,,,,,,,,,,,,,,,,,,,,,,,,,,,,,,,,,,,,,,,,,,,,,,,,,,,,,,,,,
,,,,1,1.531,,,,,,18,onion,refrigerator,,90380,001,2022-04-28_15h00.00.895,SPAMnetsValid,2021.1.4,MacIntel,62.5,,,,,,,,,,,,,1,1.531,0,11,11,62,1,,,,,,,,,,,,,,,,,,,,,,,,,,,,,,,,,,,,,,,,,,,,,,,,,,,,,,,,,,,,,,,,,,,,,,
,,,,1,1.306,,,,,,83,broom,carrot,,90380,001,2022-04-28_15h00.00.895,SPAMnetsValid,2021.1.4,MacIntel,62.5,,,,,,,,,,,,,1,1.306,0,12,12,4,1,,,,,,,,,,,,,,,,,,,,,,,,,,,,,,,,,,,,,,,,,,,,,,,,,,,,,,,,,,,,,,,,,,,,,,
,,,,1,1.009,,,,,,34,melon,oven,,90380,001,2022-04-28_15h00.00.895,SPAMnetsValid,2021.1.4,MacIntel,62.5,,,,,,,,,,,,,1,1.009,0,13,13,7,1,,,,,,,,,,,,,,,,,,,,,,,,,,,,,,,,,,,,,,,,,,,,,,,,,,,,,,,,,,,,,,,,,,,,,,
,,,,1,1.154,,,,,,192,microwave,microwave,CHECK,90380,001,2022-04-28_15h00.00.895,SPAMnetsValid,2021.1.4,MacIntel,62.5,,,,,,,,,,,,,1,1.154,0,14,14,53,1,,,,,,,,,,,,,,,,,,,,,,,,,,,,,,,,,,,,,,,,,,,,,,,,,,,,,,,,,,,,,,,,,,,,,,
,,,,1,2.299,,,,,,14,broom,cookie,,90380,001,2022-04-28_15h00.00.895,SPAMnetsValid,2021.1.4,MacIntel,62.5,,,,,,,,,,,,,1,2.299,0,15,15,16,1,,,,,,,,,,,,,,,,,,,,,,,,,,,,,,,,,,,,,,,,,,,,,,,,,,,,,,,,,,,,,,,,,,,,,,
,,,,1,2.487,,,,,,21,cake,onion,,90380,001,2022-04-28_15h00.00.895,SPAMnetsValid,2021.1.4,MacIntel,62.5,,,,,,,,,,,,,1,2.487,0,16,16,63,1,,,,,,,,,,,,,,,,,,,,,,,,,,,,,,,,,,,,,,,,,,,,,,,,,,,,,,,,,,,,,,,,,,,,,,
,,,,2,3.922,,,,,,58,garden,oven,,90380,001,2022-04-28_15h00.00.895,SPAMnetsValid,2021.1.4,MacIntel,62.5,,,,,,,,,,,,,2,3.922,0,17,17,37,1,,,,,,,,,,,,,,,,,,,,,,,,,,,,,,,,,,,,,,,,,,,,,,,,,,,,,,,,,,,,,,,,,,,,,,
,,,,1,1.828,,,,,,71,broom,rose,,90380,001,2022-04-28_15h00.00.895,SPAMnetsValid,2021.1.4,MacIntel,62.5,,,,,,,,,,,,,1,1.828,0,18,18,61,1,,,,,,,,,,,,,,,,,,,,,,,,,,,,,,,,,,,,,,,,,,,,,,,,,,,,,,,,,,,,,,,,,,,,,,
,,,,3,1.807,,,,,,61,strawberry,tomato,,90380,001,2022-04-28_15h00.00.895,SPAMnetsValid,2021.1.4,MacIntel,62.5,,,,,,,,,,,,,3,1.807,0,19,19,80,1,,,,,,,,,,,,,,,,,,,,,,,,,,,,,,,,,,,,,,,,,,,,,,,,,,,,,,,,,,,,,,,,,,,,,,
,,,,8,1.306,,,,,,82,cake,kitchen,,90380,001,2022-04-28_15h00.00.895,SPAMnetsValid,2021.1.4,MacIntel,62.5,,,,,,,,,,,,,8,1.306,0,20,20,96,1,,,,,,,,,,,,,,,,,,,,,,,,,,,,,,,,,,,,,,,,,,,,,,,,,,,,,,,,,,,,,,,,,,,,,,
,,,,1,2.116,,,,,,39,melon,pretzel,,90380,001,2022-04-28_15h00.00.895,SPAMnetsValid,2021.1.4,MacIntel,62.5,,,,,,,,,,,,,1,2.116,0,21,21,20,1,,,,,,,,,,,,,,,,,,,,,,,,,,,,,,,,,,,,,,,,,,,,,,,,,,,,,,,,,,,,,,,,,,,,,,
,,,,1,1.683,,,,,,66,melon,yogurt,,90380,001,2022-04-28_15h00.00.895,SPAMnetsValid,2021.1.4,MacIntel,62.5,,,,,,,,,,,,,1,1.683,0,22,22,48,1,,,,,,,,,,,,,,,,,,,,,,,,,,,,,,,,,,,,,,,,,,,,,,,,,,,,,,,,,,,,,,,,,,,,,,
,,,,1,1.357,,,,,,25,carrot,onion,,90380,001,2022-04-28_15h00.00.895,SPAMnetsValid,2021.1.4,MacIntel,62.5,,,,,,,,,,,,,1,1.357,0,23,23,44,1,,,,,,,,,,,,,,,,,,,,,,,,,,,,,,,,,,,,,,,,,,,,,,,,,,,,,,,,,,,,,,,,,,,,,,
,,,,1,1.798,,,,,,90,cactus,cake,,90380,001,2022-04-28_15h00.00.895,SPAMnetsValid,2021.1.4,MacIntel,62.5,,,,,,,,,,,,,1,1.798,0,24,24,85,1,,,,,,,,,,,,,,,,,,,,,,,,,,,,,,,,,,,,,,,,,,,,,,,,,,,,,,,,,,,,,,,,,,,,,,
,,,,1,1.264,,,,,,35,flower,pretzel,,90380,001,2022-04-28_15h00.00.895,SPAMnetsValid,2021.1.4,MacIntel,62.5,,,,,,,,,,,,,1,1.264,0,25,25,26,1,,,,,,,,,,,,,,,,,,,,,,,,,,,,,,,,,,,,,,,,,,,,,,,,,,,,,,,,,,,,,,,,,,,,,,
,,,,1,2.321,,,,,,17,carrot,melon,,90380,001,2022-04-28_15h00.00.895,SPAMnetsValid,2021.1.4,MacIntel,62.5,,,,,,,,,,,,,1,2.321,0,26,26,24,1,,,,,,,,,,,,,,,,,,,,,,,,,,,,,,,,,,,,,,,,,,,,,,,,,,,,,,,,,,,,,,,,,,,,,,
,,,,1,1.142,,,,,,88,cactus,melon,,90380,001,2022-04-28_15h00.00.895,SPAMnetsValid,2021.1.4,MacIntel,62.5,,,,,,,,,,,,,1,1.142,0,27,27,38,1,,,,,,,,,,,,,,,,,,,,,,,,,,,,,,,,,,,,,,,,,,,,,,,,,,,,,,,,,,,,,,,,,,,,,,
,,,,1,1.645,,,,,,51,onion,strawberry,,90380,001,2022-04-28_15h00.00.895,SPAMnetsValid,2021.1.4,MacIntel,62.5,,,,,,,,,,,,,1,1.645,0,28,28,86,1,,,,,,,,,,,,,,,,,,,,,,,,,,,,,,,,,,,,,,,,,,,,,,,,,,,,,,,,,,,,,,,,,,,,,,
,,,,1,1.255,,,,,,26,tomato,yogurt,,90380,001,2022-04-28_15h00.00.895,SPAMnetsValid,2021.1.4,MacIntel,62.5,,,,,,,,,,,,,1,1.255,0,29,29,13,1,,,,,,,,,,,,,,,,,,,,,,,,,,,,,,,,,,,,,,,,,,,,,,,,,,,,,,,,,,,,,,,,,,,,,,
,,,,2,1.321,,,,,,60,cactus,onion,,90380,001,2022-04-28_15h00.00.895,SPAMnetsValid,2021.1.4,MacIntel,62.5,,,,,,,,,,,,,2,1.321,0,30,30,81,1,,,,,,,,,,,,,,,,,,,,,,,,,,,,,,,,,,,,,,,,,,,,,,,,,,,,,,,,,,,,,,,,,,,,,,
,,,,1,1.285,,,,,,93,kitchen,oven,,90380,001,2022-04-28_15h00.00.895,SPAMnetsValid,2021.1.4,MacIntel,62.5,,,,,,,,,,,,,1,1.285,0,31,31,82,1,,,,,,,,,,,,,,,,,,,,,,,,,,,,,,,,,,,,,,,,,,,,,,,,,,,,,,,,,,,,,,,,,,,,,,
,,,,1,1.103,,,,,,6,garden,onion,,90380,001,2022-04-28_15h00.00.895,SPAMnetsValid,2021.1.4,MacIntel,62.5,,,,,,,,,,,,,1,1.103,0,32,32,83,1,,,,,,,,,,,,,,,,,,,,,,,,,,,,,,,,,,,,,,,,,,,,,,,,,,,,,,,,,,,,,,,,,,,,,,
,,,,1,1.203,,,,,,12,cookie,yogurt,,90380,001,2022-04-28_15h00.00.895,SPAMnetsValid,2021.1.4,MacIntel,62.5,,,,,,,,,,,,,1,1.203,0,33,33,36,1,,,,,,,,,,,,,,,,,,,,,,,,,,,,,,,,,,,,,,,,,,,,,,,,,,,,,,,,,,,,,,,,,,,,,,
,,,,1,1.171,,,,,,23,flower,microwave,,90380,001,2022-04-28_15h00.00.895,SPAMnetsValid,2021.1.4,MacIntel,62.5,,,,,,,,,,,,,1,1.171,0,34,34,25,1,,,,,,,,,,,,,,,,,,,,,,,,,,,,,,,,,,,,,,,,,,,,,,,,,,,,,,,,,,,,,,,,,,,,,,
,,,,1,1.703,,,,,,43,chocolate,tomato,,90380,001,2022-04-28_15h00.00.895,SPAMnetsValid,2021.1.4,MacIntel,62.5,,,,,,,,,,,,,1,1.703,0,35,35,8,1,,,,,,,,,,,,,,,,,,,,,,,,,,,,,,,,,,,,,,,,,,,,,,,,,,,,,,,,,,,,,,,,,,,,,,
,,,,9,1.547,,,,,,63,cake,cookie,,90380,001,2022-04-28_15h00.00.895,SPAMnetsValid,2021.1.4,MacIntel,62.5,,,,,,,,,,,,,9,1.547,0,36,36,93,1,,,,,,,,,,,,,,,,,,,,,,,,,,,,,,,,,,,,,,,,,,,,,,,,,,,,,,,,,,,,,,,,,,,,,,
,,,,1,1.355,,,,,,1,rose,yogurt,,90380,001,2022-04-28_15h00.00.895,SPAMnetsValid,2021.1.4,MacIntel,62.5,,,,,,,,,,,,,1,1.355,0,37,37,55,1,,,,,,,,,,,,,,,,,,,,,,,,,,,,,,,,,,,,,,,,,,,,,,,,,,,,,,,,,,,,,,,,,,,,,,
,,,,1,2.732,,,,,,91,microwave,rose,,90380,001,2022-04-28_15h00.00.895,SPAMnetsValid,2021.1.4,MacIntel,62.5,,,,,,,,,,,,,1,2.732,0,38,38,84,1,,,,,,,,,,,,,,,,,,,,,,,,,,,,,,,,,,,,,,,,,,,,,,,,,,,,,,,,,,,,,,,,,,,,,,
,,,,1,4.071,,,,,,38,pretzel,refrigerator,,90380,001,2022-04-28_15h00.00.895,SPAMnetsValid,2021.1.4,MacIntel,62.5,,,,,,,,,,,,,1,4.071,0,39,39,71,1,,,,,,,,,,,,,,,,,,,,,,,,,,,,,,,,,,,,,,,,,,,,,,,,,,,,,,,,,,,,,,,,,,,,,,
,,,,1,1.487,,,,,,30,cookie,pretzel,,90380,001,2022-04-28_15h00.00.895,SPAMnetsValid,2021.1.4,MacIntel,62.5,,,,,,,,,,,,,1,1.487,0,40,40,78,1,,,,,,,,,,,,,,,,,,,,,,,,,,,,,,,,,,,,,,,,,,,,,,,,,,,,,,,,,,,,,,,,,,,,,,
,,,,1,7.096,,,,,,11,refrigerator,tree,,90380,001,2022-04-28_15h00.00.895,SPAMnetsValid,2021.1.4,MacIntel,62.5,,,,,,,,,,,,,1,7.096,0,41,41,43,1,,,,,,,,,,,,,,,,,,,,,,,,,,,,,,,,,,,,,,,,,,,,,,,,,,,,,,,,,,,,,,,,,,,,,,
,,,,1,1.524,,,,,,15,onion,oven,,90380,001,2022-04-28_15h00.00.895,SPAMnetsValid,2021.1.4,MacIntel,62.5,,,,,,,,,,,,,1,1.524,0,42,42,39,1,,,,,,,,,,,,,,,,,,,,,,,,,,,,,,,,,,,,,,,,,,,,,,,,,,,,,,,,,,,,,,,,,,,,,,
,,,,1,1.589,,,,,,75,cookie,onion,,90380,001,2022-04-28_15h00.00.895,SPAMnetsValid,2021.1.4,MacIntel,62.5,,,,,,,,,,,,,1,1.589,0,43,43,9,1,,,,,,,,,,,,,,,,,,,,,,,,,,,,,,,,,,,,,,,,,,,,,,,,,,,,,,,,,,,,,,,,,,,,,,
,,,,1,1.198,,,,,,31,cactus,pretzel,,90380,001,2022-04-28_15h00.00.895,SPAMnetsValid,2021.1.4,MacIntel,62.5,,,,,,,,,,,,,1,1.198,0,44,44,1,1,,,,,,,,,,,,,,,,,,,,,,,,,,,,,,,,,,,,,,,,,,,,,,,,,,,,,,,,,,,,,,,,,,,,,,
,,,,1,1.272,,,,,,20,rose,tree,,90380,001,2022-04-28_15h00.00.895,SPAMnetsValid,2021.1.4,MacIntel,62.5,,,,,,,,,,,,,1,1.272,0,45,45,66,1,,,,,,,,,,,,,,,,,,,,,,,,,,,,,,,,,,,,,,,,,,,,,,,,,,,,,,,,,,,,,,,,,,,,,,
,,,,1,1.321,,,,,,62,kitchen,rose,,90380,001,2022-04-28_15h00.00.895,SPAMnetsValid,2021.1.4,MacIntel,62.5,,,,,,,,,,,,,1,1.321,0,46,46,57,1,,,,,,,,,,,,,,,,,,,,,,,,,,,,,,,,,,,,,,,,,,,,,,,,,,,,,,,,,,,,,,,,,,,,,,
,,,,1,1.544,,,,,,72,broom,onion,,90380,001,2022-04-28_15h00.00.895,SPAMnetsValid,2021.1.4,MacIntel,62.5,,,,,,,,,,,,,1,1.544,0,47,47,27,1,,,,,,,,,,,,,,,,,,,,,,,,,,,,,,,,,,,,,,,,,,,,,,,,,,,,,,,,,,,,,,,,,,,,,,
,,,,1,1.372,,,,,,33,oven,yogurt,,90380,001,2022-04-28_15h00.00.895,SPAMnetsValid,2021.1.4,MacIntel,62.5,,,,,,,,,,,,,1,1.372,0,48,48,31,1,,,,,,,,,,,,,,,,,,,,,,,,,,,,,,,,,,,,,,,,,,,,,,,,,,,,,,,,,,,,,,,,,,,,,,
,,,,1,1.426,,,,,,78,cookie,rose,,90380,001,2022-04-28_15h00.00.895,SPAMnetsValid,2021.1.4,MacIntel,62.5,,,,,,,,,,,,,1,1.426,0,49,49,56,1,,,,,,,,,,,,,,,,,,,,,,,,,,,,,,,,,,,,,,,,,,,,,,,,,,,,,,,,,,,,,,,,,,,,,,
,,,,1,1.295,,,,,,73,broom,chocolate,,90380,001,2022-04-28_15h00.00.895,SPAMnetsValid,2021.1.4,MacIntel,62.5,,,,,,,,,,,,,1,1.295,0,50,50,47,1,,,,,,,,,,,,,,,,,,,,,,,,,,,,,,,,,,,,,,,,,,,,,,,,,,,,,,,,,,,,,,,,,,,,,,
,,,,1,1.372,,,,,,84,oven,tomato,,90380,001,2022-04-28_15h00.00.895,SPAMnetsValid,2021.1.4,MacIntel,62.5,,,,,,,,,,,,,1,1.372,0,51,51,28,1,,,,,,,,,,,,,,,,,,,,,,,,,,,,,,,,,,,,,,,,,,,,,,,,,,,,,,,,,,,,,,,,,,,,,,
,,,,1,1.297,,,,,,45,onion,pretzel,,90380,001,2022-04-28_15h00.00.895,SPAMnetsValid,2021.1.4,MacIntel,62.5,,,,,,,,,,,,,1,1.297,0,52,52,69,1,,,,,,,,,,,,,,,,,,,,,,,,,,,,,,,,,,,,,,,,,,,,,,,,,,,,,,,,,,,,,,,,,,,,,,
,,,,1,1.19,,,,,,46,garden,yogurt,,90380,001,2022-04-28_15h00.00.895,SPAMnetsValid,2021.1.4,MacIntel,62.5,,,,,,,,,,,,,1,1.19,0,53,53,65,1,,,,,,,,,,,,,,,,,,,,,,,,,,,,,,,,,,,,,,,,,,,,,,,,,,,,,,,,,,,,,,,,,,,,,,
,,,,1,1.165,,,,,,56,cactus,tree,,90380,001,2022-04-28_15h00.00.895,SPAMnetsValid,2021.1.4,MacIntel,62.5,,,,,,,,,,,,,1,1.165,0,54,54,21,1,,,,,,,,,,,,,,,,,,,,,,,,,,,,,,,,,,,,,,,,,,,,,,,,,,,,,,,,,,,,,,,,,,,,,,
,,,,1,1.236,,,,,,67,flower,yogurt,,90380,001,2022-04-28_15h00.00.895,SPAMnetsValid,2021.1.4,MacIntel,62.5,,,,,,,,,,,,,1,1.236,0,55,55,12,1,,,,,,,,,,,,,,,,,,,,,,,,,,,,,,,,,,,,,,,,,,,,,,,,,,,,,,,,,,,,,,,,,,,,,,
,,,,1,1.648,,,,,,59,rose,strawberry,,90380,001,2022-04-28_15h00.00.895,SPAMnetsValid,2021.1.4,MacIntel,62.5,,,,,,,,,,,,,1,1.648,0,56,56,72,1,,,,,,,,,,,,,,,,,,,,,,,,,,,,,,,,,,,,,,,,,,,,,,,,,,,,,,,,,,,,,,,,,,,,,,
,,,,1,1.398,,,,,,2,kitchen,onion,,90380,001,2022-04-28_15h00.00.895,SPAMnetsValid,2021.1.4,MacIntel,62.5,,,,,,,,,,,,,1,1.398,0,57,57,91,1,,,,,,,,,,,,,,,,,,,,,,,,,,,,,,,,,,,,,,,,,,,,,,,,,,,,,,,,,,,,,,,,,,,,,,
,,,,1,1.335,,,,,,22,kitchen,strawberry,,90380,001,2022-04-28_15h00.00.895,SPAMnetsValid,2021.1.4,MacIntel,62.5,,,,,,,,,,,,,1,1.335,0,58,58,2,1,,,,,,,,,,,,,,,,,,,,,,,,,,,,,,,,,,,,,,,,,,,,,,,,,,,,,,,,,,,,,,,,,,,,,,
,,,,1,1.237,,,,,,54,chocolate,yogurt,,90380,001,2022-04-28_15h00.00.895,SPAMnetsValid,2021.1.4,MacIntel,62.5,,,,,,,,,,,,,1,1.237,0,59,59,67,1,,,,,,,,,,,,,,,,,,,,,,,,,,,,,,,,,,,,,,,,,,,,,,,,,,,,,,,,,,,,,,,,,,,,,,
,,,,1,1.214,,,,,,37,garden,refrigerator,,90380,001,2022-04-28_15h00.00.895,SPAMnetsValid,2021.1.4,MacIntel,62.5,,,,,,,,,,,,,1,1.214,0,60,60,11,1,,,,,,,,,,,,,,,,,,,,,,,,,,,,,,,,,,,,,,,,,,,,,,,,,,,,,,,,,,,,,,,,,,,,,,
,,,,1,1.286,,,,,,7,melon,tree,,90380,001,2022-04-28_15h00.00.895,SPAMnetsValid,2021.1.4,MacIntel,62.5,,,,,,,,,,,,,1,1.286,0,61,61,77,1,,,,,,,,,,,,,,,,,,,,,,,,,,,,,,,,,,,,,,,,,,,,,,,,,,,,,,,,,,,,,,,,,,,,,,
,,,,1,1.32,,,,,,41,broom,cactus,,90380,001,2022-04-28_15h00.00.895,SPAMnetsValid,2021.1.4,MacIntel,62.5,,,,,,,,,,,,,1,1.32,0,62,62,46,1,,,,,,,,,,,,,,,,,,,,,,,,,,,,,,,,,,,,,,,,,,,,,,,,,,,,,,,,,,,,,,,,,,,,,,
,,,,1,1.446,,,,,,53,garden,pretzel,,90380,001,2022-04-28_15h00.00.895,SPAMnetsValid,2021.1.4,MacIntel,62.5,,,,,,,,,,,,,1,1.446,0,63,63,0,1,,,,,,,,,,,,,,,,,,,,,,,,,,,,,,,,,,,,,,,,,,,,,,,,,,,,,,,,,,,,,,,,,,,,,,
,,,,1,1.396,,,,,,44,cookie,melon,,90380,001,2022-04-28_15h00.00.895,SPAMnetsValid,2021.1.4,MacIntel,62.5,,,,,,,,,,,,,1,1.396,0,64,64,92,1,,,,,,,,,,,,,,,,,,,,,,,,,,,,,,,,,,,,,,,,,,,,,,,,,,,,,,,,,,,,,,,,,,,,,,
,,,,1,1.596,,,,,,52,carrot,tomato,,90380,001,2022-04-28_15h00.00.895,SPAMnetsValid,2021.1.4,MacIntel,62.5,,,,,,,,,,,,,1,1.596,0,65,65,95,1,,,,,,,,,,,,,,,,,,,,,,,,,,,,,,,,,,,,,,,,,,,,,,,,,,,,,,,,,,,,,,,,,,,,,,
,,,,1,1.253,,,,,,24,cookie,tomato,,90380,001,2022-04-28_15h00.00.895,SPAMnetsValid,2021.1.4,MacIntel,62.5,,,,,,,,,,,,,1,1.253,0,66,66,68,1,,,,,,,,,,,,,,,,,,,,,,,,,,,,,,,,,,,,,,,,,,,,,,,,,,,,,,,,,,,,,,,,,,,,,,
,,,,1,1.318,,,,,,4,chocolate,pretzel,,90380,001,2022-04-28_15h00.00.895,SPAMnetsValid,2021.1.4,MacIntel,62.5,,,,,,,,,,,,,1,1.318,0,67,67,52,1,,,,,,,,,,,,,,,,,,,,,,,,,,,,,,,,,,,,,,,,,,,,,,,,,,,,,,,,,,,,,,,,,,,,,,
,,,,1,1.171,,,,,,36,broom,kitchen,,90380,001,2022-04-28_15h00.00.895,SPAMnetsValid,2021.1.4,MacIntel,62.5,,,,,,,,,,,,,1,1.171,0,68,68,76,1,,,,,,,,,,,,,,,,,,,,,,,,,,,,,,,,,,,,,,,,,,,,,,,,,,,,,,,,,,,,,,,,,,,,,,
,,,,3,1.516,,,,,,68,flower,tomato,,90380,001,2022-04-28_15h00.00.895,SPAMnetsValid,2021.1.4,MacIntel,62.5,,,,,,,,,,,,,3,1.516,0,69,69,94,1,,,,,,,,,,,,,,,,,,,,,,,,,,,,,,,,,,,,,,,,,,,,,,,,,,,,,,,,,,,,,,,,,,,,,,
,,,,3,0.772,,,,,,28,cake,melon,,90380,001,2022-04-28_15h00.00.895,SPAMnetsValid,2021.1.4,MacIntel,62.5,,,,,,,,,,,,,3,0.772,0,70,70,54,1,,,,,,,,,,,,,,,,,,,,,,,,,,,,,,,,,,,,,,,,,,,,,,,,,,,,,,,,,,,,,,,,,,,,,,
,,,,3,0.764,,,,,,40,broom,cake,,90380,001,2022-04-28_15h00.00.895,SPAMnetsValid,2021.1.4,MacIntel,62.5,,,,,,,,,,,,,3,0.764,0,71,71,32,1,,,,,,,,,,,,,,,,,,,,,,,,,,,,,,,,,,,,,,,,,,,,,,,,,,,,,,,,,,,,,,,,,,,,,,
,,,,1,1.332,,,,,,29,chocolate,melon,,90380,001,2022-04-28_15h00.00.895,SPAMnetsValid,2021.1.4,MacIntel,62.5,,,,,,,,,,,,,1,1.332,0,72,72,34,1,,,,,,,,,,,,,,,,,,,,,,,,,,,,,,,,,,,,,,,,,,,,,,,,,,,,,,,,,,,,,,,,,,,,,,
,,,,1,1.097,,,,,,79,garden,strawberry,,90380,001,2022-04-28_15h00.00.895,SPAMnetsValid,2021.1.4,MacIntel,62.5,,,,,,,,,,,,,1,1.097,0,73,73,87,1,,,,,,,,,,,,,,,,,,,,,,,,,,,,,,,,,,,,,,,,,,,,,,,,,,,,,,,,,,,,,,,,,,,,,,
,,,,1,0.504,,,,,,92,broom,flower,,90380,001,2022-04-28_15h00.00.895,SPAMnetsValid,2021.1.4,MacIntel,62.5,,,,,,,,,,,,,1,0.504,0,74,74,88,1,,,,,,,,,,,,,,,,,,,,,,,,,,,,,,,,,,,,,,,,,,,,,,,,,,,,,,,,,,,,,,,,,,,,,,
,,,,1,0.405,,,,,,95,broom,refrigerator,,90380,001,2022-04-28_15h00.00.895,SPAMnetsValid,2021.1.4,MacIntel,62.5,,,,,,,,,,,,,1,0.405,0,75,75,90,1,,,,,,,,,,,,,,,,,,,,,,,,,,,,,,,,,,,,,,,,,,,,,,,,,,,,,,,,,,,,,,,,,,,,,,
,,,,1,0.248,,,,,,85,cake,tree,,90380,001,2022-04-28_15h00.00.895,SPAMnetsValid,2021.1.4,MacIntel,62.5,,,,,,,,,,,,,1,0.248,0,76,76,18,1,,,,,,,,,,,,,,,,,,,,,,,,,,,,,,,,,,,,,,,,,,,,,,,,,,,,,,,,,,,,,,,,,,,,,,
,,,,1,0.19,,,,,,65,broom,garden,,90380,001,2022-04-28_15h00.00.895,SPAMnetsValid,2021.1.4,MacIntel,62.5,,,,,,,,,,,,,1,0.19,0,77,77,23,1,,,,,,,,,,,,,,,,,,,,,,,,,,,,,,,,,,,,,,,,,,,,,,,,,,,,,,,,,,,,,,,,,,,,,,
,,,,1,0.17,,,,,,50,carrot,rose,,90380,001,2022-04-28_15h00.00.895,SPAMnetsValid,2021.1.4,MacIntel,62.5,,,,,,,,,,,,,1,0.17,0,78,78,73,1,,,,,,,,,,,,,,,,,,,,,,,,,,,,,,,,,,,,,,,,,,,,,,,,,,,,,,,,,,,,,,,,,,,,,,
,,,,1,0.25,,,,,,47,onion,tomato,,90380,001,2022-04-28_15h00.00.895,SPAMnetsValid,2021.1.4,MacIntel,62.5,,,,,,,,,,,,,1,0.25,0,79,79,51,1,,,,,,,,,,,,,,,,,,,,,,,,,,,,,,,,,,,,,,,,,,,,,,,,,,,,,,,,,,,,,,,,,,,,,,
,,,,1,0.193,,,,,,8,broom,melon,,90380,001,2022-04-28_15h00.00.895,SPAMnetsValid,2021.1.4,MacIntel,62.5,,,,,,,,,,,,,1,0.193,0,80,80,59,1,,,,,,,,,,,,,,,,,,,,,,,,,,,,,,,,,,,,,,,,,,,,,,,,,,,,,,,,,,,,,,,,,,,,,,
,,,,1,0.039,,,,,,13,broom,yogurt,,90380,001,2022-04-28_15h00.00.895,SPAMnetsValid,2021.1.4,MacIntel,62.5,,,,,,,,,,,,,1,0.039,0,81,81,5,1,,,,,,,,,,,,,,,,,,,,,,,,,,,,,,,,,,,,,,,,,,,,,,,,,,,,,,,,,,,,,,,,,,,,,,
,,,,1,0.32,,,,,,70,chocolate,onion,,90380,001,2022-04-28_15h00.00.895,SPAMnetsValid,2021.1.4,MacIntel,62.5,,,,,,,,,,,,,1,0.32,0,82,82,74,1,,,,,,,,,,,,,,,,,,,,,,,,,,,,,,,,,,,,,,,,,,,,,,,,,,,,,,,,,,,,,,,,,,,,,,
,,,,1,0.865,,,,,,57,flower,kitchen,,90380,001,2022-04-28_15h00.00.895,SPAMnetsValid,2021.1.4,MacIntel,62.5,,,,,,,,,,,,,1,0.865,0,83,83,49,1,,,,,,,,,,,,,,,,,,,,,,,,,,,,,,,,,,,,,,,,,,,,,,,,,,,,,,,,,,,,,,,,,,,,,,
,,,,1,0.21,,,,,,27,cactus,cookie,,90380,001,2022-04-28_15h00.00.895,SPAMnetsValid,2021.1.4,MacIntel,62.5,,,,,,,,,,,,,1,0.21,0,84,84,17,1,,,,,,,,,,,,,,,,,,,,,,,,,,,,,,,,,,,,,,,,,,,,,,,,,,,,,,,,,,,,,,,,,,,,,,
,,,,1,0.388,,,,,,94,kitchen,microwave,,90380,001,2022-04-28_15h00.00.895,SPAMnetsValid,2021.1.4,MacIntel,62.5,,,,,,,,,,,,,1,0.388,0,85,85,58,1,,,,,,,,,,,,,,,,,,,,,,,,,,,,,,,,,,,,,,,,,,,,,,,,,,,,,,,,,,,,,,,,,,,,,,
,,,,1,0.24,,,,,,76,garden,rose,,90380,001,2022-04-28_15h00.00.895,SPAMnetsValid,2021.1.4,MacIntel,62.5,,,,,,,,,,,,,1,0.24,0,86,86,19,1,,,,,,,,,,,,,,,,,,,,,,,,,,,,,,,,,,,,,,,,,,,,,,,,,,,,,,,,,,,,,,,,,,,,,,
,,,,1,0.233,,,,,,69,carrot,refrigerator,,90380,001,2022-04-28_15h00.00.895,SPAMnetsValid,2021.1.4,MacIntel,62.5,,,,,,,,,,,,,1,0.233,0,87,87,75,1,,,,,,,,,,,,,,,,,,,,,,,,,,,,,,,,,,,,,,,,,,,,,,,,,,,,,,,,,,,,,,,,,,,,,,
,,,,1,0.344,,,,,,32,cake,microwave,,90380,001,2022-04-28_15h00.00.895,SPAMnetsValid,2021.1.4,MacIntel,62.5,,,,,,,,,,,,,1,0.344,0,88,88,33,1,,,,,,,,,,,,,,,,,,,,,,,,,,,,,,,,,,,,,,,,,,,,,,,,,,,,,,,,,,,,,,,,,,,,,,
,,,,1,1.021,,,,,,81,pretzel,yogurt,,90380,001,2022-04-28_15h00.00.895,SPAMnetsValid,2021.1.4,MacIntel,62.5,,,,,,,,,,,,,1,1.021,0,89,89,50,1,,,,,,,,,,,,,,,,,,,,,,,,,,,,,,,,,,,,,,,,,,,,,,,,,,,,,,,,,,,,,,,,,,,,,,
,,,,7,2.22,,,,,,19,microwave,pretzel,,90380,001,2022-04-28_15h00.00.895,SPAMnetsValid,2021.1.4,MacIntel,62.5,,,,,,,,,,,,,7,2.22,0,90,90,41,1,,,,,,,,,,,,,,,,,,,,,,,,,,,,,,,,,,,,,,,,,,,,,,,,,,,,,,,,,,,,,,,,,,,,,,
,,,,6,1.933,,,,,,3,cake,oven,,90380,001,2022-04-28_15h00.00.895,SPAMnetsValid,2021.1.4,MacIntel,62.5,,,,,,,,,,,,,6,1.933,0,91,91,30,1,,,,,,,,,,,,,,,,,,,,,,,,,,,,,,,,,,,,,,,,,,,,,,,,,,,,,,,,,,,,,,,,,,,,,,
,,,,1,1.435,,,,,,49,flower,strawberry,,90380,001,2022-04-28_15h00.00.895,SPAMnetsValid,2021.1.4,MacIntel,62.5,,,,,,,,,,,,,1,1.435,0,92,92,3,1,,,,,,,,,,,,,,,,,,,,,,,,,,,,,,,,,,,,,,,,,,,,,,,,,,,,,,,,,,,,,,,,,,,,,,
,,,,1,0.516,,,,,,48,flower,oven,,90380,001,2022-04-28_15h00.00.895,SPAMnetsValid,2021.1.4,MacIntel,62.5,,,,,,,,,,,,,1,0.516,0,93,93,15,1,,,,,,,,,,,,,,,,,,,,,,,,,,,,,,,,,,,,,,,,,,,,,,,,,,,,,,,,,,,,,,,,,,,,,,
,,,,1,0.188,,,,,,64,chocolate,garden,,90380,001,2022-04-28_15h00.00.895,SPAMnetsValid,2021.1.4,MacIntel,62.5,,,,,,,,,,,,,1,0.188,0,94,94,14,1,,,,,,,,,,,,,,,,,,,,,,,,,,,,,,,,,,,,,,,,,,,,,,,,,,,,,,,,,,,,,,,,,,,,,,
,,,,1,0.156,,,,,,74,broom,pretzel,,90380,001,2022-04-28_15h00.00.895,SPAMnetsValid,2021.1.4,MacIntel,62.5,,,,,,,,,,,,,1,0.156,0,95,95,40,1,,,,,,,,,,,,,,,,,,,,,,,,,,,,,,,,,,,,,,,,,,,,,,,,,,,,,,,,,,,,,,,,,,,,,,
,,,,1,0.126,,,,,,42,garden,kitchen,,90380,001,2022-04-28_15h00.00.895,SPAMnetsValid,2021.1.4,MacIntel,62.5,,,,,,,,,,,,,1,0.126,0,96,96,29,1,,,,,,,,,,,,,,,,,,,,,,,,,,,,,,,,,,,,,,,,,,,,,,,,,,,,,,,,,,,,,,,,,,,,,,
,,,,,,,,,,,,,,,90380,001,2022-04-28_15h00.00.895,SPAMnetsValid,2021.1.4,MacIntel,62.5,,,,,,,,,,,,,,,,,,,,0,0,0,0,1,,,,,,,,,,,,,,,,,,,,,,,,,,,,,,,,,,,,,,,,,,,,,,,,,,,,,,,,,,,,,,,,,
,,,,,,,,,,,,,,,90380,001,2022-04-28_15h00.00.895,SPAMnetsValid,2021.1.4,MacIntel,62.5,,,,,,0,1,1,0,1,1,0,,,,,,,,,,,,,,,,,,,,,,,,,,,,,,,,,,,,,,,,,,,,,,,,,,,,,,,,,,,,,,,,,,,,,,,,,,,,,
,,,,,,,,,,,,,,,90380,001,2022-04-28_15h00.00.895,SPAMnetsValid,2021.1.4,MacIntel,62.5,,,,,,,,,,,,,,,,,,,,,,,,,2,11.78,0,0,0,0,1,rancor,forbearance,ridicule,malice,bravery,3,,,,,,,,,,,,,,,,,,,,,,,,,,,,,,,,,,,,,,,,,,,,,,,,,,,,
,,,,,,,,,,,,,,,90380,001,2022-04-28_15h00.00.895,SPAMnetsValid,2021.1.4,MacIntel,62.5,,,,,,,,,,,,,,,,,,,,,,,,,4,5.048,0,1,1,1,1,raucous,empty,quiet,smooth,harsh,4,,,,,,,,,,,,,,,,,,,,,,,,,,,,,,,,,,,,,,,,,,,,,,,,,,,,
,,,,,,,,,,,,,,,90380,001,2022-04-28_15h00.00.895,SPAMnetsValid,2021.1.4,MacIntel,62.5,,,,,,,,,,,,,,,,,,,,,,,,,2,4.751,0,2,2,2,1,gargoyle,oil,medicine,carved waterspout,ugly building,3,,,,,,,,,,,,,,,,,,,,,,,,,,,,,,,,,,,,,,,,,,,,,,,,,,,,
,,,,,,,,,,,,,,,90380,001,2022-04-28_15h00.00.895,SPAMnetsValid,2021.1.4,MacIntel,62.5,,,,,,,,,,,,,,,,,,,,,,,,,1,7.441,0,3,3,3,1,recrudesce,purify,renew activity,lack refinement,crush,2,,,,,,,,,,,,,,,,,,,,,,,,,,,,,,,,,,,,,,,,,,,,,,,,,,,,
,,,,,,,,,,,,,,,90380,001,2022-04-28_15h00.00.895,SPAMnetsValid,2021.1.4,MacIntel,62.5,,,,,,,,,,,,,,,,,,,,,,,,,3,10.296,0,4,4,4,1,specious,"plausible, but not genuine",noteworthy,class or variety,roomy,1,,,,,,,,,,,,,,,,,,,,,,,,,,,,,,,,,,,,,,,,,,,,,,,,,,,,
,,,,,,,,,,,,,,,90380,001,2022-04-28_15h00.00.895,SPAMnetsValid,2021.1.4,MacIntel,62.5,,,,,,,,,,,,,,,,,,,,,,,,,1,11.386,0,5,5,5,1,bauble,bubble,showy plaything,idle talk,confusion,2,,,,,,,,,,,,,,,,,,,,,,,,,,,,,,,,,,,,,,,,,,,,,,,,,,,,
,,,,,,,,,,,,,,,90380,001,2022-04-28_15h00.00.895,SPAMnetsValid,2021.1.4,MacIntel,62.5,,,,,,,,,,,,,,,,,,,,,,,,,4,4.205,0,6,6,6,1,prolific,scarce,producing abundantly,reckless,speaking profanely,2,,,,,,,,,,,,,,,,,,,,,,,,,,,,,,,,,,,,,,,,,,,,,,,,,,,,
,,,,,,,,,,,,,,,90380,001,2022-04-28_15h00.00.895,SPAMnetsValid,2021.1.4,MacIntel,62.5,,,,,,,,,,,,,,,,,,,,,,,,,2,11.374,0,7,7,7,1,opulent,party,wealthy,happy frame of mind,semiprecious stone,2,,,,,,,,,,,,,,,,,,,,,,,,,,,,,,,,,,,,,,,,,,,,,,,,,,,,
,,,,,,,,,,,,,,,90380,001,2022-04-28_15h00.00.895,SPAMnetsValid,2021.1.4,MacIntel,62.5,,,,,,,,,,,,,,,,,,,,,,,,,1,3.192,0,8,8,8,1,coercion,conspiracy,strategy,restraint,attraction,3,,,,,,,,,,,,,,,,,,,,,,,,,,,,,,,,,,,,,,,,,,,,,,,,,,,,
,,,,,,,,,,,,,,,90380,001,2022-04-28_15h00.00.895,SPAMnetsValid,2021.1.4,MacIntel,62.5,,,,,,,,,,,,,,,,,,,,,,,,,3,4.098,0,9,9,9,1,hiatus,animal,calamity,dread,gap,4,,,,,,,,,,,,,,,,,,,,,,,,,,,,,,,,,,,,,,,,,,,,,,,,,,,,
,,,,,,,,,,,,,,,90380,001,2022-04-28_15h00.00.895,SPAMnetsValid,2021.1.4,MacIntel,62.5,,,,,,,,,,,,,,,,,,,,,,,,,2,2.422,0,10,10,10,1,germane,microbe,contagious,relevant,different,3,,,,,,,,,,,,,,,,,,,,,,,,,,,,,,,,,,,,,,,,,,,,,,,,,,,,
,,,,,,,,,,,,,,,90380,001,2022-04-28_15h00.00.895,SPAMnetsValid,2021.1.4,MacIntel,62.5,,,,,,,,,,,,,,,,,,,,,,,,,3,6.988,0,11,11,11,1,perfunctory,fundamental,formal,superficial,careful,3,,,,,,,,,,,,,,,,,,,,,,,,,,,,,,,,,,,,,,,,,,,,,,,,,,,,
,,,,,,,,,,,,,,,90380,001,2022-04-28_15h00.00.895,SPAMnetsValid,2021.1.4,MacIntel,62.5,,,,,,,,,,,,,,,,,,,,,,,,,4,2.799,0,12,12,12,1,diverge,reveal,chant,distract the attention of,differ or turn off from,4,,,,,,,,,,,,,,,,,,,,,,,,,,,,,,,,,,,,,,,,,,,,,,,,,,,,
,,,,,,,,,,,,,,,90380,001,2022-04-28_15h00.00.895,SPAMnetsValid,2021.1.4,MacIntel,62.5,,,,,,,,,,,,,,,,,,,,,,,,,1,3.481,0,13,13,13,1,evoke,take away,anger,connect,bring out,4,,,,,,,,,,,,,,,,,,,,,,,,,,,,,,,,,,,,,,,,,,,,,,,,,,,,
,,,,,,,,,,,,,,,90380,001,2022-04-28_15h00.00.895,SPAMnetsValid,2021.1.4,MacIntel,62.5,,,,,,,,,,,,,,,,,,,,,,,,,3,4.816,0,14,14,14,1,pertinent,relevant,lying next to,necessary,bold,1,,,,,,,,,,,,,,,,,,,,,,,,,,,,,,,,,,,,,,,,,,,,,,,,,,,,
,,,,,,,,,,,,,,,90380,001,2022-04-28_15h00.00.895,SPAMnetsValid,2021.1.4,MacIntel,62.5,,,,,,,,,,,,,,,,,,,,,,,,,2,3.31,0,15,15,15,1,holocaust,entirety,destruction,saintly,price,2,,,,,,,,,,,,,,,,,,,,,,,,,,,,,,,,,,,,,,,,,,,,,,,,,,,,
,,,,,,,,,,,,,,,90380,001,2022-04-28_15h00.00.895,SPAMnetsValid,2021.1.4,MacIntel,62.5,,,,,,,,,,,,,,,,,,,,,,,,,3,2.342,0,16,16,16,1,piquant,mellow,fish,pungent,cloth,3,,,,,,,,,,,,,,,,,,,,,,,,,,,,,,,,,,,,,,,,,,,,,,,,,,,,
,,,,,,,,,,,,,,,90380,001,2022-04-28_15h00.00.895,SPAMnetsValid,2021.1.4,MacIntel,62.5,,,,,,,,,,,,,,,,,,,,,,,,,3,3.732,0,17,17,17,1,firmament,foundation,heavens,strong,glue,2,,,,,,,,,,,,,,,,,,,,,,,,,,,,,,,,,,,,,,,,,,,,,,,,,,,,
,,,,,,,,,,,,,,,90380,001,2022-04-28_15h00.00.895,SPAMnetsValid,2021.1.4,MacIntel,62.5,,,,,,,,,,,,,,,,,,,,,,,,,,,,,,,,,,,,,,4,2.852,0,0,0,0,1,marketable,partisan,jocular,marriageable,salable,essential,4,,,,,,,,,,,,,,,,,,,,,,,,,,,,,,,,,,,,,,
,,,,,,,,,,,,,,,90380,001,2022-04-28_15h00.00.895,SPAMnetsValid,2021.1.4,MacIntel,62.5,,,,,,,,,,,,,,,,,,,,,,,,,,,,,,,,,,,,,,4,5.472,0,1,1,1,1,cottontail,squirrel,poplar,boa,marshy plant,rabbit,5,,,,,,,,,,,,,,,,,,,,,,,,,,,,,,,,,,,,,,
,,,,,,,,,,,,,,,90380,001,2022-04-28_15h00.00.895,SPAMnetsValid,2021.1.4,MacIntel,62.5,,,,,,,,,,,,,,,,,,,,,,,,,,,,,,,,,,,,,,3,4.504,0,2,2,2,1,boggy,afraid,false,marshy,dense,black,3,,,,,,,,,,,,,,,,,,,,,,,,,,,,,,,,,,,,,,
,,,,,,,,,,,,,,,90380,001,2022-04-28_15h00.00.895,SPAMnetsValid,2021.1.4,MacIntel,62.5,,,,,,,,,,,,,,,,,,,,,,,,,,,,,,,,,,,,,,3,6.576,0,3,3,3,1,gruesomeness,blackness,falseness,vindictiveness,drunkenness,ghastliness,5,,,,,,,,,,,,,,,,,,,,,,,,,,,,,,,,,,,,,,
,,,,,,,,,,,,,,,90380,001,2022-04-28_15h00.00.895,SPAMnetsValid,2021.1.4,MacIntel,62.5,,,,,,,,,,,,,,,,,,,,,,,,,,,,,,,,,,,,,,3,7.964,0,4,4,4,1,loathing,diffidence,laziness,abhorrence,cleverness,comfort,3,,,,,,,,,,,,,,,,,,,,,,,,,,,,,,,,,,,,,,
,,,,,,,,,,,,,,,90380,001,2022-04-28_15h00.00.895,SPAMnetsValid,2021.1.4,MacIntel,62.5,,,,,,,,,,,,,,,,,,,,,,,,,,,,,,,,,,,,,,2,12.429,0,5,5,5,1,bantam,fowl,ridicule,cripple,vegetable,ensign,1,,,,,,,,,,,,,,,,,,,,,,,,,,,,,,,,,,,,,,
,,,,,,,,,,,,,,,90380,001,2022-04-28_15h00.00.895,SPAMnetsValid,2021.1.4,MacIntel,62.5,,,,,,,,,,,,,,,,,,,,,,,,,,,,,,,,,,,,,,4,4.94,0,6,6,6,1,evoke,wake up,surrender,reconnoiter,transcend,call forth,5,,,,,,,,,,,,,,,,,,,,,,,,,,,,,,,,,,,,,,
,,,,,,,,,,,,,,,90380,001,2022-04-28_15h00.00.895,SPAMnetsValid,2021.1.4,MacIntel,62.5,,,,,,,,,,,,,,,,,,,,,,,,,,,,,,,,,,,,,,3,85.651,0,7,7,7,1,unobtrusive,unintelligent,epileptic,illogical,lineal,modest,5,,,,,,,,,,,,,,,,,,,,,,,,,,,,,,,,,,,,,,
,,,,,,,,,,,,,,,90380,001,2022-04-28_15h00.00.895,SPAMnetsValid,2021.1.4,MacIntel,62.5,,,,,,,,,,,,,,,,,,,,,,,,,,,,,,,,,,,,,,4,2.862,0,8,8,8,1,terrain,ice cream,final test,tractor,area of ground,weight,4,,,,,,,,,,,,,,,,,,,,,,,,,,,,,,,,,,,,,,
,,,,,,,,,,,,,,,90380,001,2022-04-28_15h00.00.895,SPAMnetsValid,2021.1.4,MacIntel,62.5,,,,,,,,,,,,,,,,,,,,,,,,,,,,,,,,,,,,,,2,3.817,0,9,9,9,1,capriciousness,stubbornness,courage,whimsicality,amazement,greediness,3,,,,,,,,,,,,,,,,,,,,,,,,,,,,,,,,,,,,,,
,,,,,,,,,,,,,,,90380,001,2022-04-28_15h00.00.895,SPAMnetsValid,2021.1.4,MacIntel,62.5,,,,,,,,,,,,,,,,,,,,,,,,,,,,,,,,,,,,,,1,3.38,0,10,10,10,1,maelstrom,slander,whirlpool,enmity,armor,majolica,2,,,,,,,,,,,,,,,,,,,,,,,,,,,,,,,,,,,,,,
,,,,,,,,,,,,,,,90380,001,2022-04-28_15h00.00.895,SPAMnetsValid,2021.1.4,MacIntel,62.5,,,,,,,,,,,,,,,,,,,,,,,,,,,,,,,,,,,,,,5,2.344,0,11,11,11,1,tentative,critical,conclusive,authentic,provisional,apprehensive,4,,,,,,,,,,,,,,,,,,,,,,,,,,,,,,,,,,,,,,
,,,,,,,,,,,,,,,90380,001,2022-04-28_15h00.00.895,SPAMnetsValid,2021.1.4,MacIntel,62.5,,,,,,,,,,,,,,,,,,,,,,,,,,,,,,,,,,,,,,2,1.457,0,12,12,12,1,placate,rehabilitate,plagiarize,depredate,apprise,conciliate,5,,,,,,,,,,,,,,,,,,,,,,,,,,,,,,,,,,,,,,
,,,,,,,,,,,,,,,90380,001,2022-04-28_15h00.00.895,SPAMnetsValid,2021.1.4,MacIntel,62.5,,,,,,,,,,,,,,,,,,,,,,,,,,,,,,,,,,,,,,2,4.298,0,13,13,13,1,surcease,enlightenment,cessation,inattention,censor,substitution,2,,,,,,,,,,,,,,,,,,,,,,,,,,,,,,,,,,,,,,
,,,,,,,,,,,,,,,90380,001,2022-04-28_15h00.00.895,SPAMnetsValid,2021.1.4,MacIntel,62.5,,,,,,,,,,,,,,,,,,,,,,,,,,,,,,,,,,,,,,2,1.854,0,14,14,14,1,apathetic,wandering,impassive,hateful,prophetic,overflowing,2,,,,,,,,,,,,,,,,,,,,,,,,,,,,,,,,,,,,,,
,,,,,,,,,,,,,,,90380,001,2022-04-28_15h00.00.895,SPAMnetsValid,2021.1.4,MacIntel,62.5,,,,,,,,,,,,,,,,,,,,,,,,,,,,,,,,,,,,,,3,2.621,0,15,15,15,1,paternoster,paternalism,patricide,malediction,benediction,prayer,5,,,,,,,,,,,,,,,,,,,,,,,,,,,,,,,,,,,,,,
,,,,,,,,,,,,,,,90380,001,2022-04-28_15h00.00.895,SPAMnetsValid,2021.1.4,MacIntel,62.5,,,,,,,,,,,,,,,,,,,,,,,,,,,,,,,,,,,,,,4,2.672,0,16,16,16,1,opalescence,opulence,senescence,bankruptcy,iridescence,assiduity,4,,,,,,,,,,,,,,,,,,,,,,,,,,,,,,,,,,,,,,
,,,,,,,,,,,,,,,90380,001,2022-04-28_15h00.00.895,SPAMnetsValid,2021.1.4,MacIntel,62.5,,,,,,,,,,,,,,,,,,,,,,,,,,,,,,,,,,,,,,2,2.167,0,17,17,17,1,lush,stupid,luxurious,hazy,putrid,languishing,2,,,,,,,,,,,,,,,,,,,,,,,,,,,,,,,,,,,,,,
,,,,,,,,,,,,,,,90380,001,2022-04-28_15h00.00.895,SPAMnetsValid,2021.1.4,MacIntel,62.5,,,,,,,,,,,,,,,,,,,,,,,,,,,,,,,,,,,,,,4,5.476,0,18,18,18,1,curtailment,expenditure,abandonment,abridgment,improvement,forgery,3,,,,,,,,,,,,,,,,,,,,,,,,,,,,,,,,,,,,,,
,,,,,,,,,,,,,,,90380,001,2022-04-28_15h00.00.895,SPAMnetsValid,2021.1.4,MacIntel,62.5,,,,,,,,,,,,,,,,,,,,,,,,,,,,,,,,,,,,,,4,2.932,0,19,19,19,1,perversity,adversity,perviousness,travesty,waywardness,gentility,4,,,,,,,,,,,,,,,,,,,,,,,,,,,,,,,,,,,,,,
,,,,,,,,,,,,,,,90380,001,2022-04-28_15h00.00.895,SPAMnetsValid,2021.1.4,MacIntel,62.5,,,,,,,,,,,,,,,,,,,,,,,,,,,,,,,,,,,,,,2,3.805,0,20,20,20,1,calumnious,complimentary,analogous,slanderous,tempestuous,magnanimous,3,,,,,,,,,,,,,,,,,,,,,,,,,,,,,,,,,,,,,,
,,,,,,,,,,,,,,,90380,001,2022-04-28_15h00.00.895,SPAMnetsValid,2021.1.4,MacIntel,62.5,,,,,,,,,,,,,,,,,,,,,,,,,,,,,,,,,,,,,,3,2.813,0,21,21,21,1,illiberality,bigotry,imbecility,illegibility,cautery,immaturity,1,,,,,,,,,,,,,,,,,,,,,,,,,,,,,,,,,,,,,,
,,,,,,,,,,,,,,,90380,001,2022-04-28_15h00.00.895,SPAMnetsValid,2021.1.4,MacIntel,62.5,,,,,,,,,,,,,,,,,,,,,,,,,,,,,,,,,,,,,,2,3.289,0,22,22,22,1,clabber,rejoice,gossip,curdle,crow,hobble,3,,,,,,,,,,,,,,,,,,,,,,,,,,,,,,,,,,,,,,
,,,,,,,,,,,,,,,90380,001,2022-04-28_15h00.00.895,SPAMnetsValid,2021.1.4,MacIntel,62.5,,,,,,,,,,,,,,,,,,,,,,,,,,,,,,,,,,,,,,3,5.086,0,23,23,23,1,sedulousness,diligence,credulousness,seduction,perilousness,frankness,1,,,,,,,,,,,,,,,,,,,,,,,,,,,,,,,,,,,,,,
,,,,,,,,,,,,,,,90380,001,2022-04-28_15h00.00.895,SPAMnetsValid,2021.1.4,MacIntel,62.5,,,,,,,,,,,,,,,,,,,,,,,,,,,,,,,,,,,,,,,,,,,,,,,,,,,,putting in water,bucket,0,0,0,0,1,,,,,,,,,,,,,,,,,,,,,,,,,,,,,,,
,,,,,,,,,,,,,,,90380,001,2022-04-28_15h00.00.895,SPAMnetsValid,2021.1.4,MacIntel,62.5,,,,,,,,,,,,,,,,,,,,,,,,,,,,,,,,,,,,,,,,,,,,,,,,,,,,putting in sand ,bucket,1,0,1,0,1,,,,,,,,,,,,,,,,,,,,,,,,,,,,,,,
,,,,,,,,,,,,,,,90380,001,2022-04-28_15h00.00.895,SPAMnetsValid,2021.1.4,MacIntel,62.5,,,,,,,,,,,,,,,,,,,,,,,,,,,,,,,,,,,,,,,,,,,,,,,,,,,,putting in liquid ,bucket,2,0,2,0,1,,,,,,,,,,,,,,,,,,,,,,,,,,,,,,,
,,,,,,,,,,,,,,,90380,001,2022-04-28_15h00.00.895,SPAMnetsValid,2021.1.4,MacIntel,62.5,,,,,,,,,,,,,,,,,,,,,,,,,,,,,,,,,,,,,,,,,,,,,,,,,,,,putting in toys,bucket,3,0,3,0,1,,,,,,,,,,,,,,,,,,,,,,,,,,,,,,,
,,,,,,,,,,,,,,,90380,001,2022-04-28_15h00.00.895,SPAMnetsValid,2021.1.4,MacIntel,62.5,,,,,,,,,,,,,,,,,,,,,,,,,,,,,,,,,,,,,,,,,,,,,,,,,,,,storage,bucket,4,0,4,0,1,,,,,,,,,,,,,,,,,,,,,,,,,,,,,,,
,,,,,,,,,,,,,,,90380,001,2022-04-28_15h00.00.895,SPAMnetsValid,2021.1.4,MacIntel,62.5,,,,,,,,,,,,,,,,,,,,,,,,,,,,,,,,,,,,,,,,,,,,,,,,,,,,carrying certain things ,bucket,5,0,5,0,1,,,,,,,,,,,,,,,,,,,,,,,,,,,,,,,
,,,,,,,,,,,,,,,90380,001,2022-04-28_15h00.00.895,SPAMnetsValid,2021.1.4,MacIntel,62.5,,,,,,,,,,,,,,,,,,,,,,,,,,,,,,,,,,,,,,,,,,,,,,,,,,,,putting in clay ,bucket,6,0,6,0,1,,,,,,,,,,,,,,,,,,,,,,,,,,,,,,,
,,,,,,,,,,,,,,,90380,001,2022-04-28_15h00.00.895,SPAMnetsValid,2021.1.4,MacIntel,62.5,,,,,,,,,,,,,,,,,,,,,,,,,,,,,,,,,,,,,,,,,,,,,,,,,,,,putting in things you cant hold ,bucket,7,0,7,0,1,,,,,,,,,,,,,,,,,,,,,,,,,,,,,,,
,,,,,,,,,,,,,,,90380,001,2022-04-28_15h00.00.895,SPAMnetsValid,2021.1.4,MacIntel,62.5,,,,,,,,,,,,,,,,,,,,,,,,,,,,,,,,,,,,,,,,,,,,,,,,,,,,putting in stuff,bucket,8,0,8,0,1,,,,,,,,,,,,,,,,,,,,,,,,,,,,,,,
,,,,,,,,,,,,,,,90380,001,2022-04-28_15h00.00.895,SPAMnetsValid,2021.1.4,MacIntel,62.5,,,,,,,,,,,,,,,,,,,,,,,,,,,,,,,,,,,,,,,,,,,,,,,,,,,,,,,,,,,0,0,0,0,1,bucket,,,,,,,,,,,,,,,,,,,,,,,,,
,,,,,,,,,,,,,,,90380,001,2022-04-28_15h00.00.895,SPAMnetsValid,2021.1.4,MacIntel,62.5,,,,,,,,,,,,,,,,,,,,,,,,,,,,,,,,,,,,,,,,,,,,,,,,,,,,fire,candle,0,0,0,0,1,,,,,,,,,,,,,,,,,,,,,,,,,,,,,,,
,,,,,,,,,,,,,,,90380,001,2022-04-28_15h00.00.895,SPAMnetsValid,2021.1.4,MacIntel,62.5,,,,,,,,,,,,,,,,,,,,,,,,,,,,,,,,,,,,,,,,,,,,,,,,,,,,warmth ,candle,1,0,1,0,1,,,,,,,,,,,,,,,,,,,,,,,,,,,,,,,
,,,,,,,,,,,,,,,90380,001,2022-04-28_15h00.00.895,SPAMnetsValid,2021.1.4,MacIntel,62.5,,,,,,,,,,,,,,,,,,,,,,,,,,,,,,,,,,,,,,,,,,,,,,,,,,,,smell,candle,2,0,2,0,1,,,,,,,,,,,,,,,,,,,,,,,,,,,,,,,
,,,,,,,,,,,,,,,90380,001,2022-04-28_15h00.00.895,SPAMnetsValid,2021.1.4,MacIntel,62.5,,,,,,,,,,,,,,,,,,,,,,,,,,,,,,,,,,,,,,,,,,,,,,,,,,,,makes the room brighter ,candle,3,0,3,0,1,,,,,,,,,,,,,,,,,,,,,,,,,,,,,,,
,,,,,,,,,,,,,,,90380,001,2022-04-28_15h00.00.895,SPAMnetsValid,2021.1.4,MacIntel,62.5,,,,,,,,,,,,,,,,,,,,,,,,,,,,,,,,,,,,,,,,,,,,,,,,,,,,makes the spcae smell nicer ,candle,4,0,4,0,1,,,,,,,,,,,,,,,,,,,,,,,,,,,,,,,
,,,,,,,,,,,,,,,90380,001,2022-04-28_15h00.00.895,SPAMnetsValid,2021.1.4,MacIntel,62.5,,,,,,,,,,,,,,,,,,,,,,,,,,,,,,,,,,,,,,,,,,,,,,,,,,,,smoke,candle,5,0,5,0,1,,,,,,,,,,,,,,,,,,,,,,,,,,,,,,,
,,,,,,,,,,,,,,,90380,001,2022-04-28_15h00.00.895,SPAMnetsValid,2021.1.4,MacIntel,62.5,,,,,,,,,,,,,,,,,,,,,,,,,,,,,,,,,,,,,,,,,,,,,,,,,,,,,,,,,,,0,1,1,1,1,candle,,,,,,,,,,,,,,,,,,,,,,,,,
,,,,,,,,,,,,,,,90380,001,2022-04-28_15h00.00.895,SPAMnetsValid,2021.1.4,MacIntel,62.5,,,,,,,,,,,,,,,,,,,,,,,,,,,,,,,,,,,,,,,,,,,,,,,,,,,,sleep ,pillow,0,0,0,0,1,,,,,,,,,,,,,,,,,,,,,,,,,,,,,,,
,,,,,,,,,,,,,,,90380,001,2022-04-28_15h00.00.895,SPAMnetsValid,2021.1.4,MacIntel,62.5,,,,,,,,,,,,,,,,,,,,,,,,,,,,,,,,,,,,,,,,,,,,,,,,,,,,comfy,pillow,1,0,1,0,1,,,,,,,,,,,,,,,,,,,,,,,,,,,,,,,
,,,,,,,,,,,,,,,90380,001,2022-04-28_15h00.00.895,SPAMnetsValid,2021.1.4,MacIntel,62.5,,,,,,,,,,,,,,,,,,,,,,,,,,,,,,,,,,,,,,,,,,,,,,,,,,,,cotton,pillow,2,0,2,0,1,,,,,,,,,,,,,,,,,,,,,,,,,,,,,,,
,,,,,,,,,,,,,,,90380,001,2022-04-28_15h00.00.895,SPAMnetsValid,2021.1.4,MacIntel,62.5,,,,,,,,,,,,,,,,,,,,,,,,,,,,,,,,,,,,,,,,,,,,,,,,,,,,big,pillow,3,0,3,0,1,,,,,,,,,,,,,,,,,,,,,,,,,,,,,,,
,,,,,,,,,,,,,,,90380,001,2022-04-28_15h00.00.895,SPAMnetsValid,2021.1.4,MacIntel,62.5,,,,,,,,,,,,,,,,,,,,,,,,,,,,,,,,,,,,,,,,,,,,,,,,,,,,rest,pillow,4,0,4,0,1,,,,,,,,,,,,,,,,,,,,,,,,,,,,,,,
,,,,,,,,,,,,,,,90380,001,2022-04-28_15h00.00.895,SPAMnetsValid,2021.1.4,MacIntel,62.5,,,,,,,,,,,,,,,,,,,,,,,,,,,,,,,,,,,,,,,,,,,,,,,,,,,,rest,pillow,5,0,5,0,1,,,,,,,,,,,,,,,,,,,,,,,,,,,,,,,
,,,,,,,,,,,,,,,90380,001,2022-04-28_15h00.00.895,SPAMnetsValid,2021.1.4,MacIntel,62.5,,,,,,,,,,,,,,,,,,,,,,,,,,,,,,,,,,,,,,,,,,,,,,,,,,,,sleep,pillow,6,0,6,0,1,,,,,,,,,,,,,,,,,,,,,,,,,,,,,,,
,,,,,,,,,,,,,,,90380,001,2022-04-28_15h00.00.895,SPAMnetsValid,2021.1.4,MacIntel,62.5,,,,,,,,,,,,,,,,,,,,,,,,,,,,,,,,,,,,,,,,,,,,,,,,,,,,silk,pillow,7,0,7,0,1,,,,,,,,,,,,,,,,,,,,,,,,,,,,,,,
,,,,,,,,,,,,,,,90380,001,2022-04-28_15h00.00.895,SPAMnetsValid,2021.1.4,MacIntel,62.5,,,,,,,,,,,,,,,,,,,,,,,,,,,,,,,,,,,,,,,,,,,,,,,,,,,,elevated,pillow,8,0,8,0,1,,,,,,,,,,,,,,,,,,,,,,,,,,,,,,,
,,,,,,,,,,,,,,,90380,001,2022-04-28_15h00.00.895,SPAMnetsValid,2021.1.4,MacIntel,62.5,,,,,,,,,,,,,,,,,,,,,,,,,,,,,,,,,,,,,,,,,,,,,,,,,,,,head rest,pillow,9,0,9,0,1,,,,,,,,,,,,,,,,,,,,,,,,,,,,,,,
,,,,,,,,,,,,,,,90380,001,2022-04-28_15h00.00.895,SPAMnetsValid,2021.1.4,MacIntel,62.5,,,,,,,,,,,,,,,,,,,,,,,,,,,,,,,,,,,,,,,,,,,,,,,,,,,,cussion,pillow,10,0,10,0,1,,,,,,,,,,,,,,,,,,,,,,,,,,,,,,,
,,,,,,,,,,,,,,,90380,001,2022-04-28_15h00.00.895,SPAMnetsValid,2021.1.4,MacIntel,62.5,,,,,,,,,,,,,,,,,,,,,,,,,,,,,,,,,,,,,,,,,,,,,,,,,,,,,,,,,,,0,2,2,2,1,pillow,,,,,,,,,,,,,,,,,,,,,,,,,
,,,,,,,,,,,,,,,90380,001,2022-04-28_15h00.00.895,SPAMnetsValid,2021.1.4,MacIntel,62.5,,,,,,,,,,,,,,,,,,,,,,,,,,,,,,,,,,,,,,,,,,,,,,,,,,,,,,,,,,,,,,,,,dog,Animals,0,0,0,0,1,,,,,,,,,,,,,,,,,,
,,,,,,,,,,,,,,,90380,001,2022-04-28_15h00.00.895,SPAMnetsValid,2021.1.4,MacIntel,62.5,,,,,,,,,,,,,,,,,,,,,,,,,,,,,,,,,,,,,,,,,,,,,,,,,,,,,,,,,,,,,,,,,cat,Animals,1,0,1,0,1,,,,,,,,,,,,,,,,,,
,,,,,,,,,,,,,,,90380,001,2022-04-28_15h00.00.895,SPAMnetsValid,2021.1.4,MacIntel,62.5,,,,,,,,,,,,,,,,,,,,,,,,,,,,,,,,,,,,,,,,,,,,,,,,,,,,,,,,,,,,,,,,,snake,Animals,2,0,2,0,1,,,,,,,,,,,,,,,,,,
,,,,,,,,,,,,,,,90380,001,2022-04-28_15h00.00.895,SPAMnetsValid,2021.1.4,MacIntel,62.5,,,,,,,,,,,,,,,,,,,,,,,,,,,,,,,,,,,,,,,,,,,,,,,,,,,,,,,,,,,,,,,,,fish,Animals,3,0,3,0,1,,,,,,,,,,,,,,,,,,
,,,,,,,,,,,,,,,90380,001,2022-04-28_15h00.00.895,SPAMnetsValid,2021.1.4,MacIntel,62.5,,,,,,,,,,,,,,,,,,,,,,,,,,,,,,,,,,,,,,,,,,,,,,,,,,,,,,,,,,,,,,,,,dolphins,Animals,4,0,4,0,1,,,,,,,,,,,,,,,,,,
,,,,,,,,,,,,,,,90380,001,2022-04-28_15h00.00.895,SPAMnetsValid,2021.1.4,MacIntel,62.5,,,,,,,,,,,,,,,,,,,,,,,,,,,,,,,,,,,,,,,,,,,,,,,,,,,,,,,,,,,,,,,,,sharke,Animals,5,0,5,0,1,,,,,,,,,,,,,,,,,,
,,,,,,,,,,,,,,,90380,001,2022-04-28_15h00.00.895,SPAMnetsValid,2021.1.4,MacIntel,62.5,,,,,,,,,,,,,,,,,,,,,,,,,,,,,,,,,,,,,,,,,,,,,,,,,,,,,,,,,,,,,,,,,rabbit,Animals,6,0,6,0,1,,,,,,,,,,,,,,,,,,
,,,,,,,,,,,,,,,90380,001,2022-04-28_15h00.00.895,SPAMnetsValid,2021.1.4,MacIntel,62.5,,,,,,,,,,,,,,,,,,,,,,,,,,,,,,,,,,,,,,,,,,,,,,,,,,,,,,,,,,,,,,,,,squirl,Animals,7,0,7,0,1,,,,,,,,,,,,,,,,,,
,,,,,,,,,,,,,,,90380,001,2022-04-28_15h00.00.895,SPAMnetsValid,2021.1.4,MacIntel,62.5,,,,,,,,,,,,,,,,,,,,,,,,,,,,,,,,,,,,,,,,,,,,,,,,,,,,,,,,,,,,,,,,,,,,,,,,0,0,0,0,1,Animals,,,,,,,,,,,,
,,,,,,,,,,,,,,,90380,001,2022-04-28_15h00.00.895,SPAMnetsValid,2021.1.4,MacIntel,62.5,,,,,,,,,,,,,,,,,,,,,,,,,,,,,,,,,,,,,,,,,,,,,,,,,,,,,,,,,,,,,,,,,,,,,,,,,,,,,,4,4.037,0,0,0,0,1,"I enjoy concentrating on a fantasy or daydream and exploring all its possibilities, letting it grow and develop.",0,1,,
,,,,,,,,,,,,,,,90380,001,2022-04-28_15h00.00.895,SPAMnetsValid,2021.1.4,MacIntel,62.5,,,,,,,,,,,,,,,,,,,,,,,,,,,,,,,,,,,,,,,,,,,,,,,,,,,,,,,,,,,,,,,,,,,,,,,,,,,,,,4,4.045,0,1,1,1,1,I think it's interesting to learn and develop new hobbies.,0,2,,
,,,,,,,,,,,,,,,90380,001,2022-04-28_15h00.00.895,SPAMnetsValid,2021.1.4,MacIntel,62.5,,,,,,,,,,,,,,,,,,,,,,,,,,,,,,,,,,,,,,,,,,,,,,,,,,,,,,,,,,,,,,,,,,,,,,,,,,,,,,4,1.243,0,2,2,2,1,I am intrigued by the patterns I find in art and nature.,0,3,,
,,,,,,,,,,,,,,,90380,001,2022-04-28_15h00.00.895,SPAMnetsValid,2021.1.4,MacIntel,62.5,,,,,,,,,,,,,,,,,,,,,,,,,,,,,,,,,,,,,,,,,,,,,,,,,,,,,,,,,,,,,,,,,,,,,,,,,,,,,,4,0.582,0,3,3,3,1,I believe letting students hear controversial speakers can only confuse and mislead them.,1,4,,
,,,,,,,,,,,,,,,90380,001,2022-04-28_15h00.00.895,SPAMnetsValid,2021.1.4,MacIntel,62.5,,,,,,,,,,,,,,,,,,,,,,,,,,,,,,,,,,,,,,,,,,,,,,,,,,,,,,,,,,,,,,,,,,,,,,,,,,,,,,3,2.357,0,4,4,4,1,Poetry has little or no effect on me.,1,5,,
,,,,,,,,,,,,,,,90380,001,2022-04-28_15h00.00.895,SPAMnetsValid,2021.1.4,MacIntel,62.5,,,,,,,,,,,,,,,,,,,,,,,,,,,,,,,,,,,,,,,,,,,,,,,,,,,,,,,,,,,,,,,,,,,,,,,,,,,,,,3,34.79,0,5,5,5,1,I would have difficulty just letting my mind wander without control or guidance.,1,6,,
,,,,,,,,,,,,,,,90380,001,2022-04-28_15h00.00.895,SPAMnetsValid,2021.1.4,MacIntel,62.5,,,,,,,,,,,,,,,,,,,,,,,,,,,,,,,,,,,,,,,,,,,,,,,,,,,,,,,,,,,,,,,,,,,,,,,,,,,,,,3,3.254,0,6,6,6,1,I seldom notice the moods or feelings that different environments produce.,1,7,,
,,,,,,,,,,,,,,,90380,001,2022-04-28_15h00.00.895,SPAMnetsValid,2021.1.4,MacIntel,62.5,,,,,,,,,,,,,,,,,,,,,,,,,,,,,,,,,,,,,,,,,,,,,,,,,,,,,,,,,,,,,,,,,,,,,,,,,,,,,,5,12.721,0,7,7,7,1,I experience a wide range of emotions or feelings.,0,8,,
,,,,,,,,,,,,,,,90380,001,2022-04-28_15h00.00.895,SPAMnetsValid,2021.1.4,MacIntel,62.5,,,,,,,,,,,,,,,,,,,,,,,,,,,,,,,,,,,,,,,,,,,,,,,,,,,,,,,,,,,,,,,,,,,,,,,,,,,,,,3,5.511,0,8,8,8,1,"Sometimes when I am reading poetry or looking at a work of art, I feel a chill or wave of excitement.",0,9,,
,,,,,,,,,,,,,,,90380,001,2022-04-28_15h00.00.895,SPAMnetsValid,2021.1.4,MacIntel,62.5,,,,,,,,,,,,,,,,,,,,,,,,,,,,,,,,,,,,,,,,,,,,,,,,,,,,,,,,,,,,,,,,,,,,,,,,,,,,,,2,3.239,0,9,9,9,1,I have little interest in speculating on the nature of the universe or the human condition.,1,10,,
,,,,,,,,,,,,,,,90380,001,2022-04-28_15h00.00.895,SPAMnetsValid,2021.1.4,MacIntel,62.5,,,,,,,,,,,,,,,,,,,,,,,,,,,,,,,,,,,,,,,,,,,,,,,,,,,,,,,,,,,,,,,,,,,,,,,,,,,,,,4,6.479,0,10,10,10,1,I have a lot of intellectual curiosity.,0,11,,
,,,,,,,,,,,,,,,90380,001,2022-04-28_15h00.00.895,SPAMnetsValid,2021.1.4,MacIntel,62.5,,,,,,,,,,,,,,,,,,,,,,,,,,,,,,,,,,,,,,,,,,,,,,,,,,,,,,,,,,,,,,,,,,,,,,,,,,,,,,4,1.674,0,11,11,11,1,I often enjoy playing with theories or abstract ideas.,0,12,,
,,,,,,,,,,,,,,,90380,001,2022-04-28_15h00.00.895,SPAMnetsValid,2021.1.4,MacIntel,62.5,,,,,,,,,,,,,,,,,,,,,,,,,,,,,,,,,,,,,,,,,,,,,,,,,,,,,,,,,,,,,,,,,,,,,,,,,,,,,,,,,,,,,,,,return,14.628
