key_resp_3.keys,key_resp_3.rt,slider_2.response,slider_2.rt,rjt_rating,rjt_RT,trials_24.thisRepN,trials_24.thisTrialN,trials_24.thisN,trials_24.thisIndex,trials_24.ran,rjt_order,word1,word2,attention,participant,session,date,expName,psychopyVersion,OS,frameRate,trials_4.thisRepN,trials_4.thisTrialN,trials_4.thisN,trials_4.thisIndex,trials_4.ran,trials_5.thisRepN,trials_5.thisTrialN,trials_5.thisN,trials_5.thisIndex,trials_5.ran,repOne,repTwo,slider.response,slider.rt,trials_22.thisRepN,trials_22.thisTrialN,trials_22.thisN,trials_22.thisIndex,trials_22.ran,trials_99.thisRepN,trials_99.thisTrialN,trials_99.thisN,trials_99.thisIndex,trials_99.ran,slider_extend_2.response,slider_extend_2.rt,trials_6.thisRepN,trials_6.thisTrialN,trials_6.thisN,trials_6.thisIndex,trials_6.ran,vCue2,R1,R2,R3,R4,correct,sliderVocab.response,sliderVocab.rt,trials_7.thisRepN,trials_7.thisTrialN,trials_7.thisN,trials_7.thisIndex,trials_7.ran,VocabCue,VR1,VR2,VR3,VR4,VR5,VocabCorrect,AUT_resp,AUT_label,trials.thisRepN,trials.thisTrialN,trials.thisN,trials.thisIndex,trials.ran,trials_2.thisRepN,trials_2.thisTrialN,trials_2.thisN,trials_2.thisIndex,trials_2.ran,aut_prompt,VF_response,VF_tag,trials_16.thisRepN,trials_16.thisTrialN,trials_16.thisN,trials_16.thisIndex,trials_16.ran,trials_17.thisRepN,trials_17.thisTrialN,trials_17.thisN,trials_17.thisIndex,trials_17.ran,VFcond,open_slider.response,open_slider.rt,trials_3.thisRepN,trials_3.thisTrialN,trials_3.thisN,trials_3.thisIndex,trials_3.ran,OpenQ,Rev,OPEN_ORDER,key_resp_2.keys,key_resp_2.rt
return,5.8406,7,6.1101,7,6.1101,0,0,0,16,1,111,carrot,microwave,,90381,001,2022-04-25_13h29.02.993,SPAMnetsValid,2021.1.4,Win32,26.86438857,,,,,,,,,,,,,,,,,,,,,,,,,,,,,,,,,,,,,,,,,,,,,,,,,,,,,,,,,,,,,,,,,,,,,,,,,,,,,,,,,,,,,,,,,
,,1,1.9974,1,1.9974,0,1,1,15,1,145,cactus,yogurt,,90381,001,2022-04-25_13h29.02.993,SPAMnetsValid,2021.1.4,Win32,26.86438857,,,,,,,,,,,,,,,,,,,,,,,,,,,,,,,,,,,,,,,,,,,,,,,,,,,,,,,,,,,,,,,,,,,,,,,,,,,,,,,,,,,,,,,,,
,,8,1.3447,8,1.3447,0,2,2,8,1,97,chocolate,kitchen,,90381,001,2022-04-25_13h29.02.993,SPAMnetsValid,2021.1.4,Win32,26.86438857,,,,,,,,,,,,,,,,,,,,,,,,,,,,,,,,,,,,,,,,,,,,,,,,,,,,,,,,,,,,,,,,,,,,,,,,,,,,,,,,,,,,,,,,,
,,9,1.7188,9,1.7188,0,3,3,25,1,194,cactus,cactus,CHECK,90381,001,2022-04-25_13h29.02.993,SPAMnetsValid,2021.1.4,Win32,26.86438857,,,,,,,,,,,,,,,,,,,,,,,,,,,,,,,,,,,,,,,,,,,,,,,,,,,,,,,,,,,,,,,,,,,,,,,,,,,,,,,,,,,,,,,,,
,,2,1.5338,2,1.5338,0,4,4,3,1,129,cactus,refrigerator,,90381,001,2022-04-25_13h29.02.993,SPAMnetsValid,2021.1.4,Win32,26.86438857,,,,,,,,,,,,,,,,,,,,,,,,,,,,,,,,,,,,,,,,,,,,,,,,,,,,,,,,,,,,,,,,,,,,,,,,,,,,,,,,,,,,,,,,,
,,4,1.7383,4,1.7383,0,5,5,90,1,190,microwave,strawberry,,90381,001,2022-04-25_13h29.02.993,SPAMnetsValid,2021.1.4,Win32,26.86438857,,,,,,,,,,,,,,,,,,,,,,,,,,,,,,,,,,,,,,,,,,,,,,,,,,,,,,,,,,,,,,,,,,,,,,,,,,,,,,,,,,,,,,,,,
,,6,1.1363,6,1.1363,0,6,6,72,1,181,carrot,kitchen,,90381,001,2022-04-25_13h29.02.993,SPAMnetsValid,2021.1.4,Win32,26.86438857,,,,,,,,,,,,,,,,,,,,,,,,,,,,,,,,,,,,,,,,,,,,,,,,,,,,,,,,,,,,,,,,,,,,,,,,,,,,,,,,,,,,,,,,,
,,1,1.6764,1,1.6764,0,7,7,54,1,101,cactus,kitchen,,90381,001,2022-04-25_13h29.02.993,SPAMnetsValid,2021.1.4,Win32,26.86438857,,,,,,,,,,,,,,,,,,,,,,,,,,,,,,,,,,,,,,,,,,,,,,,,,,,,,,,,,,,,,,,,,,,,,,,,,,,,,,,,,,,,,,,,,
,,7,2.1948,7,2.1948,0,8,8,92,1,170,cookie,microwave,,90381,001,2022-04-25_13h29.02.993,SPAMnetsValid,2021.1.4,Win32,26.86438857,,,,,,,,,,,,,,,,,,,,,,,,,,,,,,,,,,,,,,,,,,,,,,,,,,,,,,,,,,,,,,,,,,,,,,,,,,,,,,,,,,,,,,,,,
,,8,3.4252,8,3.4252,0,9,9,83,1,100,garden,tomato,,90381,001,2022-04-25_13h29.02.993,SPAMnetsValid,2021.1.4,Win32,26.86438857,,,,,,,,,,,,,,,,,,,,,,,,,,,,,,,,,,,,,,,,,,,,,,,,,,,,,,,,,,,,,,,,,,,,,,,,,,,,,,,,,,,,,,,,,
,,6,1.5464,6,1.5464,0,10,10,93,1,134,carrot,flower,,90381,001,2022-04-25_13h29.02.993,SPAMnetsValid,2021.1.4,Win32,26.86438857,,,,,,,,,,,,,,,,,,,,,,,,,,,,,,,,,,,,,,,,,,,,,,,,,,,,,,,,,,,,,,,,,,,,,,,,,,,,,,,,,,,,,,,,,
,,6,2.0713,6,2.0713,0,11,11,10,1,118,chocolate,oven,,90381,001,2022-04-25_13h29.02.993,SPAMnetsValid,2021.1.4,Win32,26.86438857,,,,,,,,,,,,,,,,,,,,,,,,,,,,,,,,,,,,,,,,,,,,,,,,,,,,,,,,,,,,,,,,,,,,,,,,,,,,,,,,,,,,,,,,,
,,7,1.9087,7,1.9087,0,12,12,22,1,142,garden,tree,,90381,001,2022-04-25_13h29.02.993,SPAMnetsValid,2021.1.4,Win32,26.86438857,,,,,,,,,,,,,,,,,,,,,,,,,,,,,,,,,,,,,,,,,,,,,,,,,,,,,,,,,,,,,,,,,,,,,,,,,,,,,,,,,,,,,,,,,
,,9,1.3406,9,1.3406,0,13,13,52,1,110,chocolate,cookie,,90381,001,2022-04-25_13h29.02.993,SPAMnetsValid,2021.1.4,Win32,26.86438857,,,,,,,,,,,,,,,,,,,,,,,,,,,,,,,,,,,,,,,,,,,,,,,,,,,,,,,,,,,,,,,,,,,,,,,,,,,,,,,,,,,,,,,,,
,,6,1.4114,6,1.4114,0,14,14,76,1,102,chocolate,refrigerator,,90381,001,2022-04-25_13h29.02.993,SPAMnetsValid,2021.1.4,Win32,26.86438857,,,,,,,,,,,,,,,,,,,,,,,,,,,,,,,,,,,,,,,,,,,,,,,,,,,,,,,,,,,,,,,,,,,,,,,,,,,,,,,,,,,,,,,,,
,,6,2.5996,6,2.5996,0,15,15,29,1,163,melon,refrigerator,,90381,001,2022-04-25_13h29.02.993,SPAMnetsValid,2021.1.4,Win32,26.86438857,,,,,,,,,,,,,,,,,,,,,,,,,,,,,,,,,,,,,,,,,,,,,,,,,,,,,,,,,,,,,,,,,,,,,,,,,,,,,,,,,,,,,,,,,
,,6,1.7745,6,1.7745,0,16,16,42,1,184,oven,pretzel,,90381,001,2022-04-25_13h29.02.993,SPAMnetsValid,2021.1.4,Win32,26.86438857,,,,,,,,,,,,,,,,,,,,,,,,,,,,,,,,,,,,,,,,,,,,,,,,,,,,,,,,,,,,,,,,,,,,,,,,,,,,,,,,,,,,,,,,,
,,3,1.2768,3,1.2768,0,17,17,55,1,143,pretzel,rose,,90381,001,2022-04-25_13h29.02.993,SPAMnetsValid,2021.1.4,Win32,26.86438857,,,,,,,,,,,,,,,,,,,,,,,,,,,,,,,,,,,,,,,,,,,,,,,,,,,,,,,,,,,,,,,,,,,,,,,,,,,,,,,,,,,,,,,,,
,,3,0.9873,3,0.9873,0,18,18,4,1,109,broom,strawberry,,90381,001,2022-04-25_13h29.02.993,SPAMnetsValid,2021.1.4,Win32,26.86438857,,,,,,,,,,,,,,,,,,,,,,,,,,,,,,,,,,,,,,,,,,,,,,,,,,,,,,,,,,,,,,,,,,,,,,,,,,,,,,,,,,,,,,,,,
,,5,1.4293,5,1.4293,0,19,19,36,1,161,kitchen,pretzel,,90381,001,2022-04-25_13h29.02.993,SPAMnetsValid,2021.1.4,Win32,26.86438857,,,,,,,,,,,,,,,,,,,,,,,,,,,,,,,,,,,,,,,,,,,,,,,,,,,,,,,,,,,,,,,,,,,,,,,,,,,,,,,,,,,,,,,,,
,,5,1.0653,5,1.0653,0,20,20,44,1,116,cake,chocolate,,90381,001,2022-04-25_13h29.02.993,SPAMnetsValid,2021.1.4,Win32,26.86438857,,,,,,,,,,,,,,,,,,,,,,,,,,,,,,,,,,,,,,,,,,,,,,,,,,,,,,,,,,,,,,,,,,,,,,,,,,,,,,,,,,,,,,,,,
,,2,1.7698,2,1.7698,0,21,21,46,1,123,cookie,tree,,90381,001,2022-04-25_13h29.02.993,SPAMnetsValid,2021.1.4,Win32,26.86438857,,,,,,,,,,,,,,,,,,,,,,,,,,,,,,,,,,,,,,,,,,,,,,,,,,,,,,,,,,,,,,,,,,,,,,,,,,,,,,,,,,,,,,,,,
,,8,1.5205,8,1.5205,0,22,22,17,1,99,garden,melon,,90381,001,2022-04-25_13h29.02.993,SPAMnetsValid,2021.1.4,Win32,26.86438857,,,,,,,,,,,,,,,,,,,,,,,,,,,,,,,,,,,,,,,,,,,,,,,,,,,,,,,,,,,,,,,,,,,,,,,,,,,,,,,,,,,,,,,,,
,,6,1.1618,6,1.1618,0,23,23,27,1,158,cookie,oven,,90381,001,2022-04-25_13h29.02.993,SPAMnetsValid,2021.1.4,Win32,26.86438857,,,,,,,,,,,,,,,,,,,,,,,,,,,,,,,,,,,,,,,,,,,,,,,,,,,,,,,,,,,,,,,,,,,,,,,,,,,,,,,,,,,,,,,,,
,,3,1.5138,3,1.5138,0,24,24,82,1,98,pretzel,strawberry,,90381,001,2022-04-25_13h29.02.993,SPAMnetsValid,2021.1.4,Win32,26.86438857,,,,,,,,,,,,,,,,,,,,,,,,,,,,,,,,,,,,,,,,,,,,,,,,,,,,,,,,,,,,,,,,,,,,,,,,,,,,,,,,,,,,,,,,,
,,1,2.1816,1,2.1816,0,25,25,40,1,165,onion,rose,,90381,001,2022-04-25_13h29.02.993,SPAMnetsValid,2021.1.4,Win32,26.86438857,,,,,,,,,,,,,,,,,,,,,,,,,,,,,,,,,,,,,,,,,,,,,,,,,,,,,,,,,,,,,,,,,,,,,,,,,,,,,,,,,,,,,,,,,
,,2,1.8065,2,1.8065,0,26,26,41,1,175,melon,onion,,90381,001,2022-04-25_13h29.02.993,SPAMnetsValid,2021.1.4,Win32,26.86438857,,,,,,,,,,,,,,,,,,,,,,,,,,,,,,,,,,,,,,,,,,,,,,,,,,,,,,,,,,,,,,,,,,,,,,,,,,,,,,,,,,,,,,,,,
,,4,1.3875,4,1.3875,0,27,27,88,1,171,cake,tomato,,90381,001,2022-04-25_13h29.02.993,SPAMnetsValid,2021.1.4,Win32,26.86438857,,,,,,,,,,,,,,,,,,,,,,,,,,,,,,,,,,,,,,,,,,,,,,,,,,,,,,,,,,,,,,,,,,,,,,,,,,,,,,,,,,,,,,,,,
,,1,1.4845,1,1.4845,0,28,28,50,1,126,kitchen,tree,,90381,001,2022-04-25_13h29.02.993,SPAMnetsValid,2021.1.4,Win32,26.86438857,,,,,,,,,,,,,,,,,,,,,,,,,,,,,,,,,,,,,,,,,,,,,,,,,,,,,,,,,,,,,,,,,,,,,,,,,,,,,,,,,,,,,,,,,
,,7,1.7269,7,1.7269,0,29,29,33,1,131,cactus,garden,,90381,001,2022-04-25_13h29.02.993,SPAMnetsValid,2021.1.4,Win32,26.86438857,,,,,,,,,,,,,,,,,,,,,,,,,,,,,,,,,,,,,,,,,,,,,,,,,,,,,,,,,,,,,,,,,,,,,,,,,,,,,,,,,,,,,,,,,
,,3,1.2626,3,1.2626,0,30,30,21,1,159,cookie,flower,,90381,001,2022-04-25_13h29.02.993,SPAMnetsValid,2021.1.4,Win32,26.86438857,,,,,,,,,,,,,,,,,,,,,,,,,,,,,,,,,,,,,,,,,,,,,,,,,,,,,,,,,,,,,,,,,,,,,,,,,,,,,,,,,,,,,,,,,
,,3,0.9125,3,0.9125,0,31,31,19,1,183,cake,rose,,90381,001,2022-04-25_13h29.02.993,SPAMnetsValid,2021.1.4,Win32,26.86438857,,,,,,,,,,,,,,,,,,,,,,,,,,,,,,,,,,,,,,,,,,,,,,,,,,,,,,,,,,,,,,,,,,,,,,,,,,,,,,,,,,,,,,,,,
,,1,1.7811,1,1.7811,0,32,32,95,1,121,broom,microwave,,90381,001,2022-04-25_13h29.02.993,SPAMnetsValid,2021.1.4,Win32,26.86438857,,,,,,,,,,,,,,,,,,,,,,,,,,,,,,,,,,,,,,,,,,,,,,,,,,,,,,,,,,,,,,,,,,,,,,,,,,,,,,,,,,,,,,,,,
,,6,1.5227,6,1.5227,0,33,33,32,1,182,flower,refrigerator,,90381,001,2022-04-25_13h29.02.993,SPAMnetsValid,2021.1.4,Win32,26.86438857,,,,,,,,,,,,,,,,,,,,,,,,,,,,,,,,,,,,,,,,,,,,,,,,,,,,,,,,,,,,,,,,,,,,,,,,,,,,,,,,,,,,,,,,,
,,4,5.2063,4,5.2063,0,34,34,7,1,188,flower,tree,,90381,001,2022-04-25_13h29.02.993,SPAMnetsValid,2021.1.4,Win32,26.86438857,,,,,,,,,,,,,,,,,,,,,,,,,,,,,,,,,,,,,,,,,,,,,,,,,,,,,,,,,,,,,,,,,,,,,,,,,,,,,,,,,,,,,,,,,
,,7,1.0011,7,1.0011,0,35,35,39,1,112,cake,carrot,,90381,001,2022-04-25_13h29.02.993,SPAMnetsValid,2021.1.4,Win32,26.86438857,,,,,,,,,,,,,,,,,,,,,,,,,,,,,,,,,,,,,,,,,,,,,,,,,,,,,,,,,,,,,,,,,,,,,,,,,,,,,,,,,,,,,,,,,
,,2,1.1521,2,1.1521,0,36,36,68,1,180,tree,yogurt,,90381,001,2022-04-25_13h29.02.993,SPAMnetsValid,2021.1.4,Win32,26.86438857,,,,,,,,,,,,,,,,,,,,,,,,,,,,,,,,,,,,,,,,,,,,,,,,,,,,,,,,,,,,,,,,,,,,,,,,,,,,,,,,,,,,,,,,,
,,4,0.9874,4,0.9874,0,37,37,34,1,153,carrot,pretzel,,90381,001,2022-04-25_13h29.02.993,SPAMnetsValid,2021.1.4,Win32,26.86438857,,,,,,,,,,,,,,,,,,,,,,,,,,,,,,,,,,,,,,,,,,,,,,,,,,,,,,,,,,,,,,,,,,,,,,,,,,,,,,,,,,,,,,,,,
,,2,0.875,2,0.875,0,38,38,66,1,150,microwave,refrigerator,,90381,001,2022-04-25_13h29.02.993,SPAMnetsValid,2021.1.4,Win32,26.86438857,,,,,,,,,,,,,,,,,,,,,,,,,,,,,,,,,,,,,,,,,,,,,,,,,,,,,,,,,,,,,,,,,,,,,,,,,,,,,,,,,,,,,,,,,
,,2,1.7567,2,1.7567,0,39,39,81,1,104,garden,microwave,,90381,001,2022-04-25_13h29.02.993,SPAMnetsValid,2021.1.4,Win32,26.86438857,,,,,,,,,,,,,,,,,,,,,,,,,,,,,,,,,,,,,,,,,,,,,,,,,,,,,,,,,,,,,,,,,,,,,,,,,,,,,,,,,,,,,,,,,
,,3,1.784,3,1.784,0,40,40,87,1,114,cookie,strawberry,,90381,001,2022-04-25_13h29.02.993,SPAMnetsValid,2021.1.4,Win32,26.86438857,,,,,,,,,,,,,,,,,,,,,,,,,,,,,,,,,,,,,,,,,,,,,,,,,,,,,,,,,,,,,,,,,,,,,,,,,,,,,,,,,,,,,,,,,
,,1,1.4393,1,1.4393,0,41,41,12,1,162,microwave,tomato,,90381,001,2022-04-25_13h29.02.993,SPAMnetsValid,2021.1.4,Win32,26.86438857,,,,,,,,,,,,,,,,,,,,,,,,,,,,,,,,,,,,,,,,,,,,,,,,,,,,,,,,,,,,,,,,,,,,,,,,,,,,,,,,,,,,,,,,,
,,1,1.0029,1,1.0029,0,42,42,78,1,132,broom,tree,,90381,001,2022-04-25_13h29.02.993,SPAMnetsValid,2021.1.4,Win32,26.86438857,,,,,,,,,,,,,,,,,,,,,,,,,,,,,,,,,,,,,,,,,,,,,,,,,,,,,,,,,,,,,,,,,,,,,,,,,,,,,,,,,,,,,,,,,
,,6,1.3066,6,1.3066,0,43,43,28,1,154,strawberry,yogurt,,90381,001,2022-04-25_13h29.02.993,SPAMnetsValid,2021.1.4,Win32,26.86438857,,,,,,,,,,,,,,,,,,,,,,,,,,,,,,,,,,,,,,,,,,,,,,,,,,,,,,,,,,,,,,,,,,,,,,,,,,,,,,,,,,,,,,,,,
,,4,1.5277,4,1.5277,0,44,44,59,1,164,cookie,garden,,90381,001,2022-04-25_13h29.02.993,SPAMnetsValid,2021.1.4,Win32,26.86438857,,,,,,,,,,,,,,,,,,,,,,,,,,,,,,,,,,,,,,,,,,,,,,,,,,,,,,,,,,,,,,,,,,,,,,,,,,,,,,,,,,,,,,,,,
,,7,1.4095,7,1.4095,0,45,45,43,1,185,cactus,rose,,90381,001,2022-04-25_13h29.02.993,SPAMnetsValid,2021.1.4,Win32,26.86438857,,,,,,,,,,,,,,,,,,,,,,,,,,,,,,,,,,,,,,,,,,,,,,,,,,,,,,,,,,,,,,,,,,,,,,,,,,,,,,,,,,,,,,,,,
,,5,2.0854,5,2.0854,0,46,46,31,1,156,melon,rose,,90381,001,2022-04-25_13h29.02.993,SPAMnetsValid,2021.1.4,Win32,26.86438857,,,,,,,,,,,,,,,,,,,,,,,,,,,,,,,,,,,,,,,,,,,,,,,,,,,,,,,,,,,,,,,,,,,,,,,,,,,,,,,,,,,,,,,,,
,,2,1.2728,2,1.2728,0,47,47,80,1,146,pretzel,tree,,90381,001,2022-04-25_13h29.02.993,SPAMnetsValid,2021.1.4,Win32,26.86438857,,,,,,,,,,,,,,,,,,,,,,,,,,,,,,,,,,,,,,,,,,,,,,,,,,,,,,,,,,,,,,,,,,,,,,,,,,,,,,,,,,,,,,,,,
,,4,1.4395,4,1.4395,0,48,48,58,1,144,cake,garden,,90381,001,2022-04-25_13h29.02.993,SPAMnetsValid,2021.1.4,Win32,26.86438857,,,,,,,,,,,,,,,,,,,,,,,,,,,,,,,,,,,,,,,,,,,,,,,,,,,,,,,,,,,,,,,,,,,,,,,,,,,,,,,,,,,,,,,,,
,,6,5.0384,6,5.0384,0,49,49,85,1,115,refrigerator,tomato,,90381,001,2022-04-25_13h29.02.993,SPAMnetsValid,2021.1.4,Win32,26.86438857,,,,,,,,,,,,,,,,,,,,,,,,,,,,,,,,,,,,,,,,,,,,,,,,,,,,,,,,,,,,,,,,,,,,,,,,,,,,,,,,,,,,,,,,,
,,3,1.1972,3,1.1972,0,50,50,9,1,176,cactus,tomato,,90381,001,2022-04-25_13h29.02.993,SPAMnetsValid,2021.1.4,Win32,26.86438857,,,,,,,,,,,,,,,,,,,,,,,,,,,,,,,,,,,,,,,,,,,,,,,,,,,,,,,,,,,,,,,,,,,,,,,,,,,,,,,,,,,,,,,,,
,,6,1.3698,6,1.3698,0,51,51,65,1,160,cookie,kitchen,,90381,001,2022-04-25_13h29.02.993,SPAMnetsValid,2021.1.4,Win32,26.86438857,,,,,,,,,,,,,,,,,,,,,,,,,,,,,,,,,,,,,,,,,,,,,,,,,,,,,,,,,,,,,,,,,,,,,,,,,,,,,,,,,,,,,,,,,
,,2,2.2678,2,2.2678,0,52,52,71,1,187,cactus,microwave,,90381,001,2022-04-25_13h29.02.993,SPAMnetsValid,2021.1.4,Win32,26.86438857,,,,,,,,,,,,,,,,,,,,,,,,,,,,,,,,,,,,,,,,,,,,,,,,,,,,,,,,,,,,,,,,,,,,,,,,,,,,,,,,,,,,,,,,,
,,6,1.6274,6,1.6274,0,53,53,74,1,128,melon,microwave,,90381,001,2022-04-25_13h29.02.993,SPAMnetsValid,2021.1.4,Win32,26.86438857,,,,,,,,,,,,,,,,,,,,,,,,,,,,,,,,,,,,,,,,,,,,,,,,,,,,,,,,,,,,,,,,,,,,,,,,,,,,,,,,,,,,,,,,,
,,6,1.7564,6,1.7564,0,54,54,70,1,141,melon,tomato,,90381,001,2022-04-25_13h29.02.993,SPAMnetsValid,2021.1.4,Win32,26.86438857,,,,,,,,,,,,,,,,,,,,,,,,,,,,,,,,,,,,,,,,,,,,,,,,,,,,,,,,,,,,,,,,,,,,,,,,,,,,,,,,,,,,,,,,,
,,8,2.0128,8,2.0128,0,55,55,47,1,167,carrot,garden,,90381,001,2022-04-25_13h29.02.993,SPAMnetsValid,2021.1.4,Win32,26.86438857,,,,,,,,,,,,,,,,,,,,,,,,,,,,,,,,,,,,,,,,,,,,,,,,,,,,,,,,,,,,,,,,,,,,,,,,,,,,,,,,,,,,,,,,,
,,6,1.9667,6,1.9667,0,56,56,48,1,186,kitchen,yogurt,,90381,001,2022-04-25_13h29.02.993,SPAMnetsValid,2021.1.4,Win32,26.86438857,,,,,,,,,,,,,,,,,,,,,,,,,,,,,,,,,,,,,,,,,,,,,,,,,,,,,,,,,,,,,,,,,,,,,,,,,,,,,,,,,,,,,,,,,
,,4,1.7002,4,1.7002,0,57,57,5,1,108,carrot,chocolate,,90381,001,2022-04-25_13h29.02.993,SPAMnetsValid,2021.1.4,Win32,26.86438857,,,,,,,,,,,,,,,,,,,,,,,,,,,,,,,,,,,,,,,,,,,,,,,,,,,,,,,,,,,,,,,,,,,,,,,,,,,,,,,,,,,,,,,,,
,,5,1.8302,5,1.8302,0,58,58,23,1,148,flower,melon,,90381,001,2022-04-25_13h29.02.993,SPAMnetsValid,2021.1.4,Win32,26.86438857,,,,,,,,,,,,,,,,,,,,,,,,,,,,,,,,,,,,,,,,,,,,,,,,,,,,,,,,,,,,,,,,,,,,,,,,,,,,,,,,,,,,,,,,,
,,5,1.2424,5,1.2424,0,59,59,26,1,107,rose,tomato,,90381,001,2022-04-25_13h29.02.993,SPAMnetsValid,2021.1.4,Win32,26.86438857,,,,,,,,,,,,,,,,,,,,,,,,,,,,,,,,,,,,,,,,,,,,,,,,,,,,,,,,,,,,,,,,,,,,,,,,,,,,,,,,,,,,,,,,,
,,5,1.2569,5,1.2569,0,60,60,18,1,119,strawberry,tree,,90381,001,2022-04-25_13h29.02.993,SPAMnetsValid,2021.1.4,Win32,26.86438857,,,,,,,,,,,,,,,,,,,,,,,,,,,,,,,,,,,,,,,,,,,,,,,,,,,,,,,,,,,,,,,,,,,,,,,,,,,,,,,,,,,,,,,,,
,,2,2.8619,2,2.8619,0,61,61,13,1,105,cactus,oven,,90381,001,2022-04-25_13h29.02.993,SPAMnetsValid,2021.1.4,Win32,26.86438857,,,,,,,,,,,,,,,,,,,,,,,,,,,,,,,,,,,,,,,,,,,,,,,,,,,,,,,,,,,,,,,,,,,,,,,,,,,,,,,,,,,,,,,,,
,,3,2.2779,3,2.2779,0,62,62,62,1,189,onion,tree,,90381,001,2022-04-25_13h29.02.993,SPAMnetsValid,2021.1.4,Win32,26.86438857,,,,,,,,,,,,,,,,,,,,,,,,,,,,,,,,,,,,,,,,,,,,,,,,,,,,,,,,,,,,,,,,,,,,,,,,,,,,,,,,,,,,,,,,,
,,4,2.5786,4,2.5786,0,63,63,96,1,136,chocolate,microwave,,90381,001,2022-04-25_13h29.02.993,SPAMnetsValid,2021.1.4,Win32,26.86438857,,,,,,,,,,,,,,,,,,,,,,,,,,,,,,,,,,,,,,,,,,,,,,,,,,,,,,,,,,,,,,,,,,,,,,,,,,,,,,,,,,,,,,,,,
,,2,1.8841,2,1.8841,0,64,64,2,1,174,cake,pretzel,,90381,001,2022-04-25_13h29.02.993,SPAMnetsValid,2021.1.4,Win32,26.86438857,,,,,,,,,,,,,,,,,,,,,,,,,,,,,,,,,,,,,,,,,,,,,,,,,,,,,,,,,,,,,,,,,,,,,,,,,,,,,,,,,,,,,,,,,
,,6,2.3912,6,2.3912,0,65,65,1,1,173,kitchen,tomato,,90381,001,2022-04-25_13h29.02.993,SPAMnetsValid,2021.1.4,Win32,26.86438857,,,,,,,,,,,,,,,,,,,,,,,,,,,,,,,,,,,,,,,,,,,,,,,,,,,,,,,,,,,,,,,,,,,,,,,,,,,,,,,,,,,,,,,,,
,,1,1.2519,1,1.2519,0,66,66,45,1,179,broom,oven,,90381,001,2022-04-25_13h29.02.993,SPAMnetsValid,2021.1.4,Win32,26.86438857,,,,,,,,,,,,,,,,,,,,,,,,,,,,,,,,,,,,,,,,,,,,,,,,,,,,,,,,,,,,,,,,,,,,,,,,,,,,,,,,,,,,,,,,,
,,8,3.2171,8,3.2171,0,67,67,60,1,122,flower,garden,,90381,001,2022-04-25_13h29.02.993,SPAMnetsValid,2021.1.4,Win32,26.86438857,,,,,,,,,,,,,,,,,,,,,,,,,,,,,,,,,,,,,,,,,,,,,,,,,,,,,,,,,,,,,,,,,,,,,,,,,,,,,,,,,,,,,,,,,
,,1,3.0781,1,3.0781,0,68,68,69,1,124,oven,refrigerator,,90381,001,2022-04-25_13h29.02.993,SPAMnetsValid,2021.1.4,Win32,26.86438857,,,,,,,,,,,,,,,,,,,,,,,,,,,,,,,,,,,,,,,,,,,,,,,,,,,,,,,,,,,,,,,,,,,,,,,,,,,,,,,,,,,,,,,,,
,,6,1.5558,6,1.5558,0,69,69,51,1,168,cactus,flower,,90381,001,2022-04-25_13h29.02.993,SPAMnetsValid,2021.1.4,Win32,26.86438857,,,,,,,,,,,,,,,,,,,,,,,,,,,,,,,,,,,,,,,,,,,,,,,,,,,,,,,,,,,,,,,,,,,,,,,,,,,,,,,,,,,,,,,,,
,,2,1.4435,2,1.4435,0,70,70,63,1,137,microwave,tree,,90381,001,2022-04-25_13h29.02.993,SPAMnetsValid,2021.1.4,Win32,26.86438857,,,,,,,,,,,,,,,,,,,,,,,,,,,,,,,,,,,,,,,,,,,,,,,,,,,,,,,,,,,,,,,,,,,,,,,,,,,,,,,,,,,,,,,,,
,,2,1.5855,2,1.5855,0,71,71,35,1,147,cake,refrigerator,,90381,001,2022-04-25_13h29.02.993,SPAMnetsValid,2021.1.4,Win32,26.86438857,,,,,,,,,,,,,,,,,,,,,,,,,,,,,,,,,,,,,,,,,,,,,,,,,,,,,,,,,,,,,,,,,,,,,,,,,,,,,,,,,,,,,,,,,
,,2,2.4981,2,2.4981,0,72,72,64,1,157,refrigerator,rose,,90381,001,2022-04-25_13h29.02.993,SPAMnetsValid,2021.1.4,Win32,26.86438857,,,,,,,,,,,,,,,,,,,,,,,,,,,,,,,,,,,,,,,,,,,,,,,,,,,,,,,,,,,,,,,,,,,,,,,,,,,,,,,,,,,,,,,,,
,,2,4.4805,2,4.4805,0,73,73,84,1,130,microwave,yogurt,,90381,001,2022-04-25_13h29.02.993,SPAMnetsValid,2021.1.4,Win32,26.86438857,,,,,,,,,,,,,,,,,,,,,,,,,,,,,,,,,,,,,,,,,,,,,,,,,,,,,,,,,,,,,,,,,,,,,,,,,,,,,,,,,,,,,,,,,
,,3,2.5437,3,2.5437,0,74,74,38,1,155,carrot,cookie,,90381,001,2022-04-25_13h29.02.993,SPAMnetsValid,2021.1.4,Win32,26.86438857,,,,,,,,,,,,,,,,,,,,,,,,,,,,,,,,,,,,,,,,,,,,,,,,,,,,,,,,,,,,,,,,,,,,,,,,,,,,,,,,,,,,,,,,,
,,1,1.1972,1,1.1972,0,75,75,24,1,169,onion,yogurt,,90381,001,2022-04-25_13h29.02.993,SPAMnetsValid,2021.1.4,Win32,26.86438857,,,,,,,,,,,,,,,,,,,,,,,,,,,,,,,,,,,,,,,,,,,,,,,,,,,,,,,,,,,,,,,,,,,,,,,,,,,,,,,,,,,,,,,,,
,,8,1.6055,8,1.6055,0,76,76,61,1,138,flower,rose,,90381,001,2022-04-25_13h29.02.993,SPAMnetsValid,2021.1.4,Win32,26.86438857,,,,,,,,,,,,,,,,,,,,,,,,,,,,,,,,,,,,,,,,,,,,,,,,,,,,,,,,,,,,,,,,,,,,,,,,,,,,,,,,,,,,,,,,,
,,1,2.3257,1,2.3257,0,77,77,73,1,135,carrot,oven,,90381,001,2022-04-25_13h29.02.993,SPAMnetsValid,2021.1.4,Win32,26.86438857,,,,,,,,,,,,,,,,,,,,,,,,,,,,,,,,,,,,,,,,,,,,,,,,,,,,,,,,,,,,,,,,,,,,,,,,,,,,,,,,,,,,,,,,,
,,1,1.284,1,1.284,0,78,78,67,1,96,oven,strawberry,,90381,001,2022-04-25_13h29.02.993,SPAMnetsValid,2021.1.4,Win32,26.86438857,,,,,,,,,,,,,,,,,,,,,,,,,,,,,,,,,,,,,,,,,,,,,,,,,,,,,,,,,,,,,,,,,,,,,,,,,,,,,,,,,,,,,,,,,
,,6,1.3564,6,1.3564,0,79,79,11,1,117,melon,strawberry,,90381,001,2022-04-25_13h29.02.993,SPAMnetsValid,2021.1.4,Win32,26.86438857,,,,,,,,,,,,,,,,,,,,,,,,,,,,,,,,,,,,,,,,,,,,,,,,,,,,,,,,,,,,,,,,,,,,,,,,,,,,,,,,,,,,,,,,,
,,2,1.1341,2,1.1341,0,80,80,6,1,151,microwave,onion,,90381,001,2022-04-25_13h29.02.993,SPAMnetsValid,2021.1.4,Win32,26.86438857,,,,,,,,,,,,,,,,,,,,,,,,,,,,,,,,,,,,,,,,,,,,,,,,,,,,,,,,,,,,,,,,,,,,,,,,,,,,,,,,,,,,,,,,,
,,6,1.2933,6,1.2933,0,81,81,77,1,172,kitchen,melon,,90381,001,2022-04-25_13h29.02.993,SPAMnetsValid,2021.1.4,Win32,26.86438857,,,,,,,,,,,,,,,,,,,,,,,,,,,,,,,,,,,,,,,,,,,,,,,,,,,,,,,,,,,,,,,,,,,,,,,,,,,,,,,,,,,,,,,,,
,,4,1.643,4,1.643,0,82,82,91,1,166,cake,yogurt,,90381,001,2022-04-25_13h29.02.993,SPAMnetsValid,2021.1.4,Win32,26.86438857,,,,,,,,,,,,,,,,,,,,,,,,,,,,,,,,,,,,,,,,,,,,,,,,,,,,,,,,,,,,,,,,,,,,,,,,,,,,,,,,,,,,,,,,,
,,4,1.2398,4,1.2398,0,83,83,0,1,106,cake,strawberry,,90381,001,2022-04-25_13h29.02.993,SPAMnetsValid,2021.1.4,Win32,26.86438857,,,,,,,,,,,,,,,,,,,,,,,,,,,,,,,,,,,,,,,,,,,,,,,,,,,,,,,,,,,,,,,,,,,,,,,,,,,,,,,,,,,,,,,,,
,,3,1.1998,3,1.1998,0,84,84,79,1,103,pretzel,tomato,,90381,001,2022-04-25_13h29.02.993,SPAMnetsValid,2021.1.4,Win32,26.86438857,,,,,,,,,,,,,,,,,,,,,,,,,,,,,,,,,,,,,,,,,,,,,,,,,,,,,,,,,,,,,,,,,,,,,,,,,,,,,,,,,,,,,,,,,
,,7,1.7991,7,1.7991,0,85,85,37,1,139,carrot,strawberry,,90381,001,2022-04-25_13h29.02.993,SPAMnetsValid,2021.1.4,Win32,26.86438857,,,,,,,,,,,,,,,,,,,,,,,,,,,,,,,,,,,,,,,,,,,,,,,,,,,,,,,,,,,,,,,,,,,,,,,,,,,,,,,,,,,,,,,,,
,,4,1.3567,4,1.3567,0,86,86,49,1,152,cactus,strawberry,,90381,001,2022-04-25_13h29.02.993,SPAMnetsValid,2021.1.4,Win32,26.86438857,,,,,,,,,,,,,,,,,,,,,,,,,,,,,,,,,,,,,,,,,,,,,,,,,,,,,,,,,,,,,,,,,,,,,,,,,,,,,,,,,,,,,,,,,
,,4,1.3727,4,1.3727,0,87,87,75,1,178,cactus,carrot,,90381,001,2022-04-25_13h29.02.993,SPAMnetsValid,2021.1.4,Win32,26.86438857,,,,,,,,,,,,,,,,,,,,,,,,,,,,,,,,,,,,,,,,,,,,,,,,,,,,,,,,,,,,,,,,,,,,,,,,,,,,,,,,,,,,,,,,,
,,9,1.4302,9,1.4302,0,88,88,86,1,193,melon,melon,CHECK,90381,001,2022-04-25_13h29.02.993,SPAMnetsValid,2021.1.4,Win32,26.86438857,,,,,,,,,,,,,,,,,,,,,,,,,,,,,,,,,,,,,,,,,,,,,,,,,,,,,,,,,,,,,,,,,,,,,,,,,,,,,,,,,,,,,,,,,
,,7,2.5427,7,2.5427,0,89,89,53,1,177,chocolate,strawberry,,90381,001,2022-04-25_13h29.02.993,SPAMnetsValid,2021.1.4,Win32,26.86438857,,,,,,,,,,,,,,,,,,,,,,,,,,,,,,,,,,,,,,,,,,,,,,,,,,,,,,,,,,,,,,,,,,,,,,,,,,,,,,,,,,,,,,,,,
,,5,1.1432,5,1.1432,0,90,90,94,1,133,cake,flower,,90381,001,2022-04-25_13h29.02.993,SPAMnetsValid,2021.1.4,Win32,26.86438857,,,,,,,,,,,,,,,,,,,,,,,,,,,,,,,,,,,,,,,,,,,,,,,,,,,,,,,,,,,,,,,,,,,,,,,,,,,,,,,,,,,,,,,,,
,,3,0.9082,3,0.9082,0,91,91,89,1,140,cookie,refrigerator,,90381,001,2022-04-25_13h29.02.993,SPAMnetsValid,2021.1.4,Win32,26.86438857,,,,,,,,,,,,,,,,,,,,,,,,,,,,,,,,,,,,,,,,,,,,,,,,,,,,,,,,,,,,,,,,,,,,,,,,,,,,,,,,,,,,,,,,,
,,3,1.0029,3,1.0029,0,92,92,30,1,125,carrot,tree,,90381,001,2022-04-25_13h29.02.993,SPAMnetsValid,2021.1.4,Win32,26.86438857,,,,,,,,,,,,,,,,,,,,,,,,,,,,,,,,,,,,,,,,,,,,,,,,,,,,,,,,,,,,,,,,,,,,,,,,,,,,,,,,,,,,,,,,,
,,3,1.1137,3,1.1137,0,93,93,57,1,127,cactus,chocolate,,90381,001,2022-04-25_13h29.02.993,SPAMnetsValid,2021.1.4,Win32,26.86438857,,,,,,,,,,,,,,,,,,,,,,,,,,,,,,,,,,,,,,,,,,,,,,,,,,,,,,,,,,,,,,,,,,,,,,,,,,,,,,,,,,,,,,,,,
,,6,1.6901,6,1.6901,0,94,94,14,1,120,microwave,oven,,90381,001,2022-04-25_13h29.02.993,SPAMnetsValid,2021.1.4,Win32,26.86438857,,,,,,,,,,,,,,,,,,,,,,,,,,,,,,,,,,,,,,,,,,,,,,,,,,,,,,,,,,,,,,,,,,,,,,,,,,,,,,,,,,,,,,,,,
,,7,3.1139,7,3.1139,0,95,95,56,1,113,refrigerator,strawberry,,90381,001,2022-04-25_13h29.02.993,SPAMnetsValid,2021.1.4,Win32,26.86438857,,,,,,,,,,,,,,,,,,,,,,,,,,,,,,,,,,,,,,,,,,,,,,,,,,,,,,,,,,,,,,,,,,,,,,,,,,,,,,,,,,,,,,,,,
,,1,1.3527,1,1.3527,0,96,96,20,1,149,broom,tomato,,90381,001,2022-04-25_13h29.02.993,SPAMnetsValid,2021.1.4,Win32,26.86438857,,,,,,,,,,,,,,,,,,,,,,,,,,,,,,,,,,,,,,,,,,,,,,,,,,,,,,,,,,,,,,,,,,,,,,,,,,,,,,,,,,,,,,,,,
,,,,,,,,,,,,,,,90381,001,2022-04-25_13h29.02.993,SPAMnetsValid,2021.1.4,Win32,26.86438857,0,0,0,0,1,,,,,,,,,,,,,,,,,,,,,,,,,,,,,,,,,,,,,,,,,,,,,,,,,,,,,,,,,,,,,,,,,,,,,,,,,,,,,,,,,,,,
,,,,,,,,,,,,,,,90381,001,2022-04-25_13h29.02.993,SPAMnetsValid,2021.1.4,Win32,26.86438857,,,,,,0,0,0,1,1,0,1,,,,,,,,,,,,,,,,,,,,,,,,,,,,,,,,,,,,,,,,,,,,,,,,,,,,,,,,,,,,,,,,,,,,,,,,,,,,,
,,,,1,4.937,,,,,,45,onion,pretzel,,90381,001,2022-04-25_13h29.02.993,SPAMnetsValid,2021.1.4,Win32,26.86438857,,,,,,,,,,,,,1,4.937,0,0,0,69,1,,,,,,,,,,,,,,,,,,,,,,,,,,,,,,,,,,,,,,,,,,,,,,,,,,,,,,,,,,,,,,,,,,,,,,
,,,,1,0.7074,,,,,,52,carrot,tomato,,90381,001,2022-04-25_13h29.02.993,SPAMnetsValid,2021.1.4,Win32,26.86438857,,,,,,,,,,,,,1,0.7074,0,1,1,95,1,,,,,,,,,,,,,,,,,,,,,,,,,,,,,,,,,,,,,,,,,,,,,,,,,,,,,,,,,,,,,,,,,,,,,,
,,,,1,0.6892,,,,,,24,cookie,tomato,,90381,001,2022-04-25_13h29.02.993,SPAMnetsValid,2021.1.4,Win32,26.86438857,,,,,,,,,,,,,1,0.6892,0,2,2,68,1,,,,,,,,,,,,,,,,,,,,,,,,,,,,,,,,,,,,,,,,,,,,,,,,,,,,,,,,,,,,,,,,,,,,,,
,,,,3,1.3547,,,,,,38,pretzel,refrigerator,,90381,001,2022-04-25_13h29.02.993,SPAMnetsValid,2021.1.4,Win32,26.86438857,,,,,,,,,,,,,3,1.3547,0,3,3,71,1,,,,,,,,,,,,,,,,,,,,,,,,,,,,,,,,,,,,,,,,,,,,,,,,,,,,,,,,,,,,,,,,,,,,,,
,,,,8,1.6296,,,,,,79,garden,strawberry,,90381,001,2022-04-25_13h29.02.993,SPAMnetsValid,2021.1.4,Win32,26.86438857,,,,,,,,,,,,,8,1.6296,0,4,4,87,1,,,,,,,,,,,,,,,,,,,,,,,,,,,,,,,,,,,,,,,,,,,,,,,,,,,,,,,,,,,,,,,,,,,,,,
,,,,1,1.0308,,,,,,8,broom,melon,,90381,001,2022-04-25_13h29.02.993,SPAMnetsValid,2021.1.4,Win32,26.86438857,,,,,,,,,,,,,1,1.0308,0,5,5,59,1,,,,,,,,,,,,,,,,,,,,,,,,,,,,,,,,,,,,,,,,,,,,,,,,,,,,,,,,,,,,,,,,,,,,,,
,,,,2,1.5687,,,,,,65,broom,garden,,90381,001,2022-04-25_13h29.02.993,SPAMnetsValid,2021.1.4,Win32,26.86438857,,,,,,,,,,,,,2,1.5687,0,6,6,23,1,,,,,,,,,,,,,,,,,,,,,,,,,,,,,,,,,,,,,,,,,,,,,,,,,,,,,,,,,,,,,,,,,,,,,,
,,,,2,1.367,,,,,,36,broom,kitchen,,90381,001,2022-04-25_13h29.02.993,SPAMnetsValid,2021.1.4,Win32,26.86438857,,,,,,,,,,,,,2,1.367,0,7,7,76,1,,,,,,,,,,,,,,,,,,,,,,,,,,,,,,,,,,,,,,,,,,,,,,,,,,,,,,,,,,,,,,,,,,,,,,
,,,,3,1.173,,,,,,53,garden,pretzel,,90381,001,2022-04-25_13h29.02.993,SPAMnetsValid,2021.1.4,Win32,26.86438857,,,,,,,,,,,,,3,1.173,0,8,8,0,1,,,,,,,,,,,,,,,,,,,,,,,,,,,,,,,,,,,,,,,,,,,,,,,,,,,,,,,,,,,,,,,,,,,,,,
,,,,3,0.9105,,,,,,31,cactus,pretzel,,90381,001,2022-04-25_13h29.02.993,SPAMnetsValid,2021.1.4,Win32,26.86438857,,,,,,,,,,,,,3,0.9105,0,9,9,1,1,,,,,,,,,,,,,,,,,,,,,,,,,,,,,,,,,,,,,,,,,,,,,,,,,,,,,,,,,,,,,,,,,,,,,,
,,,,3,0.9507,,,,,,35,flower,pretzel,,90381,001,2022-04-25_13h29.02.993,SPAMnetsValid,2021.1.4,Win32,26.86438857,,,,,,,,,,,,,3,0.9507,0,10,10,26,1,,,,,,,,,,,,,,,,,,,,,,,,,,,,,,,,,,,,,,,,,,,,,,,,,,,,,,,,,,,,,,,,,,,,,,
,,,,3,1.0846,,,,,,41,broom,cactus,,90381,001,2022-04-25_13h29.02.993,SPAMnetsValid,2021.1.4,Win32,26.86438857,,,,,,,,,,,,,3,1.0846,0,11,11,46,1,,,,,,,,,,,,,,,,,,,,,,,,,,,,,,,,,,,,,,,,,,,,,,,,,,,,,,,,,,,,,,,,,,,,,,
,,,,3,0.9105,,,,,,2,kitchen,onion,,90381,001,2022-04-25_13h29.02.993,SPAMnetsValid,2021.1.4,Win32,26.86438857,,,,,,,,,,,,,3,0.9105,0,12,12,91,1,,,,,,,,,,,,,,,,,,,,,,,,,,,,,,,,,,,,,,,,,,,,,,,,,,,,,,,,,,,,,,,,,,,,,,
,,,,3,0.9573,,,,,,71,broom,rose,,90381,001,2022-04-25_13h29.02.993,SPAMnetsValid,2021.1.4,Win32,26.86438857,,,,,,,,,,,,,3,0.9573,0,13,13,61,1,,,,,,,,,,,,,,,,,,,,,,,,,,,,,,,,,,,,,,,,,,,,,,,,,,,,,,,,,,,,,,,,,,,,,,
,,,,4,1.342,,,,,,50,carrot,rose,,90381,001,2022-04-25_13h29.02.993,SPAMnetsValid,2021.1.4,Win32,26.86438857,,,,,,,,,,,,,4,1.342,0,14,14,73,1,,,,,,,,,,,,,,,,,,,,,,,,,,,,,,,,,,,,,,,,,,,,,,,,,,,,,,,,,,,,,,,,,,,,,,
,,,,7,1.489,,,,,,30,cookie,pretzel,,90381,001,2022-04-25_13h29.02.993,SPAMnetsValid,2021.1.4,Win32,26.86438857,,,,,,,,,,,,,7,1.489,0,15,15,78,1,,,,,,,,,,,,,,,,,,,,,,,,,,,,,,,,,,,,,,,,,,,,,,,,,,,,,,,,,,,,,,,,,,,,,,
,,,,2,1.0159,,,,,,13,broom,yogurt,,90381,001,2022-04-25_13h29.02.993,SPAMnetsValid,2021.1.4,Win32,26.86438857,,,,,,,,,,,,,2,1.0159,0,16,16,5,1,,,,,,,,,,,,,,,,,,,,,,,,,,,,,,,,,,,,,,,,,,,,,,,,,,,,,,,,,,,,,,,,,,,,,,
,,,,2,0.9651,,,,,,95,broom,refrigerator,,90381,001,2022-04-25_13h29.02.993,SPAMnetsValid,2021.1.4,Win32,26.86438857,,,,,,,,,,,,,2,0.9651,0,17,17,90,1,,,,,,,,,,,,,,,,,,,,,,,,,,,,,,,,,,,,,,,,,,,,,,,,,,,,,,,,,,,,,,,,,,,,,,
,,,,6,1.3683,,,,,,57,flower,kitchen,,90381,001,2022-04-25_13h29.02.993,SPAMnetsValid,2021.1.4,Win32,26.86438857,,,,,,,,,,,,,6,1.3683,0,18,18,49,1,,,,,,,,,,,,,,,,,,,,,,,,,,,,,,,,,,,,,,,,,,,,,,,,,,,,,,,,,,,,,,,,,,,,,,
,,,,2,1.4938,,,,,,92,broom,flower,,90381,001,2022-04-25_13h29.02.993,SPAMnetsValid,2021.1.4,Win32,26.86438857,,,,,,,,,,,,,2,1.4938,0,19,19,88,1,,,,,,,,,,,,,,,,,,,,,,,,,,,,,,,,,,,,,,,,,,,,,,,,,,,,,,,,,,,,,,,,,,,,,,
,,,,6,1.5377,,,,,,81,pretzel,yogurt,,90381,001,2022-04-25_13h29.02.993,SPAMnetsValid,2021.1.4,Win32,26.86438857,,,,,,,,,,,,,6,1.5377,0,20,20,50,1,,,,,,,,,,,,,,,,,,,,,,,,,,,,,,,,,,,,,,,,,,,,,,,,,,,,,,,,,,,,,,,,,,,,,,
,,,,4,2.5063,,,,,,78,cookie,rose,,90381,001,2022-04-25_13h29.02.993,SPAMnetsValid,2021.1.4,Win32,26.86438857,,,,,,,,,,,,,4,2.5063,0,21,21,56,1,,,,,,,,,,,,,,,,,,,,,,,,,,,,,,,,,,,,,,,,,,,,,,,,,,,,,,,,,,,,,,,,,,,,,,
,,,,7,1.3335,,,,,,61,strawberry,tomato,,90381,001,2022-04-25_13h29.02.993,SPAMnetsValid,2021.1.4,Win32,26.86438857,,,,,,,,,,,,,7,1.3335,0,22,22,80,1,,,,,,,,,,,,,,,,,,,,,,,,,,,,,,,,,,,,,,,,,,,,,,,,,,,,,,,,,,,,,,,,,,,,,,
,,,,6,2.1451,,,,,,67,flower,yogurt,,90381,001,2022-04-25_13h29.02.993,SPAMnetsValid,2021.1.4,Win32,26.86438857,,,,,,,,,,,,,6,2.1451,0,23,23,12,1,,,,,,,,,,,,,,,,,,,,,,,,,,,,,,,,,,,,,,,,,,,,,,,,,,,,,,,,,,,,,,,,,,,,,,
,,,,6,1.8158,,,,,,37,garden,refrigerator,,90381,001,2022-04-25_13h29.02.993,SPAMnetsValid,2021.1.4,Win32,26.86438857,,,,,,,,,,,,,6,1.8158,0,24,24,11,1,,,,,,,,,,,,,,,,,,,,,,,,,,,,,,,,,,,,,,,,,,,,,,,,,,,,,,,,,,,,,,,,,,,,,,
,,,,2,1.809,,,,,,27,cactus,cookie,,90381,001,2022-04-25_13h29.02.993,SPAMnetsValid,2021.1.4,Win32,26.86438857,,,,,,,,,,,,,2,1.809,0,25,25,17,1,,,,,,,,,,,,,,,,,,,,,,,,,,,,,,,,,,,,,,,,,,,,,,,,,,,,,,,,,,,,,,,,,,,,,,
,,,,8,4.3499,,,,,,82,cake,kitchen,,90381,001,2022-04-25_13h29.02.993,SPAMnetsValid,2021.1.4,Win32,26.86438857,,,,,,,,,,,,,8,4.3499,0,26,26,96,1,,,,,,,,,,,,,,,,,,,,,,,,,,,,,,,,,,,,,,,,,,,,,,,,,,,,,,,,,,,,,,,,,,,,,,
,,,,7,1.5869,,,,,,69,carrot,refrigerator,,90381,001,2022-04-25_13h29.02.993,SPAMnetsValid,2021.1.4,Win32,26.86438857,,,,,,,,,,,,,7,1.5869,0,27,27,75,1,,,,,,,,,,,,,,,,,,,,,,,,,,,,,,,,,,,,,,,,,,,,,,,,,,,,,,,,,,,,,,,,,,,,,,
,,,,1,1.2074,,,,,,73,broom,chocolate,,90381,001,2022-04-25_13h29.02.993,SPAMnetsValid,2021.1.4,Win32,26.86438857,,,,,,,,,,,,,1,1.2074,0,28,28,47,1,,,,,,,,,,,,,,,,,,,,,,,,,,,,,,,,,,,,,,,,,,,,,,,,,,,,,,,,,,,,,,,,,,,,,,
,,,,8,2.7273,,,,,,76,garden,rose,,90381,001,2022-04-25_13h29.02.993,SPAMnetsValid,2021.1.4,Win32,26.86438857,,,,,,,,,,,,,8,2.7273,0,29,29,19,1,,,,,,,,,,,,,,,,,,,,,,,,,,,,,,,,,,,,,,,,,,,,,,,,,,,,,,,,,,,,,,,,,,,,,,
,,,,3,1.937,,,,,,32,cake,microwave,,90381,001,2022-04-25_13h29.02.993,SPAMnetsValid,2021.1.4,Win32,26.86438857,,,,,,,,,,,,,3,1.937,0,30,30,33,1,,,,,,,,,,,,,,,,,,,,,,,,,,,,,,,,,,,,,,,,,,,,,,,,,,,,,,,,,,,,,,,,,,,,,,
,,,,3,1.1898,,,,,,16,chocolate,flower,,90381,001,2022-04-25_13h29.02.993,SPAMnetsValid,2021.1.4,Win32,26.86438857,,,,,,,,,,,,,3,1.1898,0,31,31,22,1,,,,,,,,,,,,,,,,,,,,,,,,,,,,,,,,,,,,,,,,,,,,,,,,,,,,,,,,,,,,,,,,,,,,,,
,,,,7,1.9536,,,,,,25,carrot,onion,,90381,001,2022-04-25_13h29.02.993,SPAMnetsValid,2021.1.4,Win32,26.86438857,,,,,,,,,,,,,7,1.9536,0,32,32,44,1,,,,,,,,,,,,,,,,,,,,,,,,,,,,,,,,,,,,,,,,,,,,,,,,,,,,,,,,,,,,,,,,,,,,,,
,,,,9,1.3256,,,,,,192,microwave,microwave,CHECK,90381,001,2022-04-25_13h29.02.993,SPAMnetsValid,2021.1.4,Win32,26.86438857,,,,,,,,,,,,,9,1.3256,0,33,33,53,1,,,,,,,,,,,,,,,,,,,,,,,,,,,,,,,,,,,,,,,,,,,,,,,,,,,,,,,,,,,,,,,,,,,,,,
,,,,1,1.8323,,,,,,80,chocolate,tree,,90381,001,2022-04-25_13h29.02.993,SPAMnetsValid,2021.1.4,Win32,26.86438857,,,,,,,,,,,,,1,1.8323,0,34,34,89,1,,,,,,,,,,,,,,,,,,,,,,,,,,,,,,,,,,,,,,,,,,,,,,,,,,,,,,,,,,,,,,,,,,,,,,
,,,,6,4.3226,,,,,,47,onion,tomato,,90381,001,2022-04-25_13h29.02.993,SPAMnetsValid,2021.1.4,Win32,26.86438857,,,,,,,,,,,,,6,4.3226,0,35,35,51,1,,,,,,,,,,,,,,,,,,,,,,,,,,,,,,,,,,,,,,,,,,,,,,,,,,,,,,,,,,,,,,,,,,,,,,
,,,,2,1.2204,,,,,,1,rose,yogurt,,90381,001,2022-04-25_13h29.02.993,SPAMnetsValid,2021.1.4,Win32,26.86438857,,,,,,,,,,,,,2,1.2204,0,36,36,55,1,,,,,,,,,,,,,,,,,,,,,,,,,,,,,,,,,,,,,,,,,,,,,,,,,,,,,,,,,,,,,,,,,,,,,,
,,,,2,1.1817,,,,,,48,flower,oven,,90381,001,2022-04-25_13h29.02.993,SPAMnetsValid,2021.1.4,Win32,26.86438857,,,,,,,,,,,,,2,1.1817,0,37,37,15,1,,,,,,,,,,,,,,,,,,,,,,,,,,,,,,,,,,,,,,,,,,,,,,,,,,,,,,,,,,,,,,,,,,,,,,
,,,,7,1.4958,,,,,,56,cactus,tree,,90381,001,2022-04-25_13h29.02.993,SPAMnetsValid,2021.1.4,Win32,26.86438857,,,,,,,,,,,,,7,1.4958,0,38,38,21,1,,,,,,,,,,,,,,,,,,,,,,,,,,,,,,,,,,,,,,,,,,,,,,,,,,,,,,,,,,,,,,,,,,,,,,
,,,,6,1.6696,,,,,,17,carrot,melon,,90381,001,2022-04-25_13h29.02.993,SPAMnetsValid,2021.1.4,Win32,26.86438857,,,,,,,,,,,,,6,1.6696,0,39,39,24,1,,,,,,,,,,,,,,,,,,,,,,,,,,,,,,,,,,,,,,,,,,,,,,,,,,,,,,,,,,,,,,,,,,,,,,
,,,,3,1.208,,,,,,85,cake,tree,,90381,001,2022-04-25_13h29.02.993,SPAMnetsValid,2021.1.4,Win32,26.86438857,,,,,,,,,,,,,3,1.208,0,40,40,18,1,,,,,,,,,,,,,,,,,,,,,,,,,,,,,,,,,,,,,,,,,,,,,,,,,,,,,,,,,,,,,,,,,,,,,,
,,,,3,1.1062,,,,,,5,oven,tree,,90381,001,2022-04-25_13h29.02.993,SPAMnetsValid,2021.1.4,Win32,26.86438857,,,,,,,,,,,,,3,1.1062,0,41,41,70,1,,,,,,,,,,,,,,,,,,,,,,,,,,,,,,,,,,,,,,,,,,,,,,,,,,,,,,,,,,,,,,,,,,,,,,
,,,,5,1.9387,,,,,,87,carrot,yogurt,,90381,001,2022-04-25_13h29.02.993,SPAMnetsValid,2021.1.4,Win32,26.86438857,,,,,,,,,,,,,5,1.9387,0,42,42,6,1,,,,,,,,,,,,,,,,,,,,,,,,,,,,,,,,,,,,,,,,,,,,,,,,,,,,,,,,,,,,,,,,,,,,,,
,,,,1,2.2826,,,,,,11,refrigerator,tree,,90381,001,2022-04-25_13h29.02.993,SPAMnetsValid,2021.1.4,Win32,26.86438857,,,,,,,,,,,,,1,2.2826,0,43,43,43,1,,,,,,,,,,,,,,,,,,,,,,,,,,,,,,,,,,,,,,,,,,,,,,,,,,,,,,,,,,,,,,,,,,,,,,
,,,,3,1.4628,,,,,,10,flower,onion,,90381,001,2022-04-25_13h29.02.993,SPAMnetsValid,2021.1.4,Win32,26.86438857,,,,,,,,,,,,,3,1.4628,0,44,44,45,1,,,,,,,,,,,,,,,,,,,,,,,,,,,,,,,,,,,,,,,,,,,,,,,,,,,,,,,,,,,,,,,,,,,,,,
,,,,1,1.6172,,,,,,23,flower,microwave,,90381,001,2022-04-25_13h29.02.993,SPAMnetsValid,2021.1.4,Win32,26.86438857,,,,,,,,,,,,,1,1.6172,0,45,45,25,1,,,,,,,,,,,,,,,,,,,,,,,,,,,,,,,,,,,,,,,,,,,,,,,,,,,,,,,,,,,,,,,,,,,,,,
,,,,4,3.8997,,,,,,62,kitchen,rose,,90381,001,2022-04-25_13h29.02.993,SPAMnetsValid,2021.1.4,Win32,26.86438857,,,,,,,,,,,,,4,3.8997,0,46,46,57,1,,,,,,,,,,,,,,,,,,,,,,,,,,,,,,,,,,,,,,,,,,,,,,,,,,,,,,,,,,,,,,,,,,,,,,
,,,,1,1.8385,,,,,,70,chocolate,onion,,90381,001,2022-04-25_13h29.02.993,SPAMnetsValid,2021.1.4,Win32,26.86438857,,,,,,,,,,,,,1,1.8385,0,47,47,74,1,,,,,,,,,,,,,,,,,,,,,,,,,,,,,,,,,,,,,,,,,,,,,,,,,,,,,,,,,,,,,,,,,,,,,,
,,,,1,1.8334,,,,,,91,microwave,rose,,90381,001,2022-04-25_13h29.02.993,SPAMnetsValid,2021.1.4,Win32,26.86438857,,,,,,,,,,,,,1,1.8334,0,48,48,84,1,,,,,,,,,,,,,,,,,,,,,,,,,,,,,,,,,,,,,,,,,,,,,,,,,,,,,,,,,,,,,,,,,,,,,,
,,,,8,1.5317,,,,,,4,chocolate,pretzel,,90381,001,2022-04-25_13h29.02.993,SPAMnetsValid,2021.1.4,Win32,26.86438857,,,,,,,,,,,,,8,1.5317,0,49,49,52,1,,,,,,,,,,,,,,,,,,,,,,,,,,,,,,,,,,,,,,,,,,,,,,,,,,,,,,,,,,,,,,,,,,,,,,
,,,,1,2.1564,,,,,,86,oven,rose,,90381,001,2022-04-25_13h29.02.993,SPAMnetsValid,2021.1.4,Win32,26.86438857,,,,,,,,,,,,,1,2.1564,0,50,50,79,1,,,,,,,,,,,,,,,,,,,,,,,,,,,,,,,,,,,,,,,,,,,,,,,,,,,,,,,,,,,,,,,,,,,,,,
,,,,4,1.317,,,,,,44,cookie,melon,,90381,001,2022-04-25_13h29.02.993,SPAMnetsValid,2021.1.4,Win32,26.86438857,,,,,,,,,,,,,4,1.317,0,51,51,92,1,,,,,,,,,,,,,,,,,,,,,,,,,,,,,,,,,,,,,,,,,,,,,,,,,,,,,,,,,,,,,,,,,,,,,,
,,,,1,1.3591,,,,,,43,chocolate,tomato,,90381,001,2022-04-25_13h29.02.993,SPAMnetsValid,2021.1.4,Win32,26.86438857,,,,,,,,,,,,,1,1.3591,0,52,52,8,1,,,,,,,,,,,,,,,,,,,,,,,,,,,,,,,,,,,,,,,,,,,,,,,,,,,,,,,,,,,,,,,,,,,,,,
,,,,5,1.9646,,,,,,7,melon,tree,,90381,001,2022-04-25_13h29.02.993,SPAMnetsValid,2021.1.4,Win32,26.86438857,,,,,,,,,,,,,5,1.9646,0,53,53,77,1,,,,,,,,,,,,,,,,,,,,,,,,,,,,,,,,,,,,,,,,,,,,,,,,,,,,,,,,,,,,,,,,,,,,,,
,,,,1,1.1917,,,,,,64,chocolate,garden,,90381,001,2022-04-25_13h29.02.993,SPAMnetsValid,2021.1.4,Win32,26.86438857,,,,,,,,,,,,,1,1.1917,0,54,54,14,1,,,,,,,,,,,,,,,,,,,,,,,,,,,,,,,,,,,,,,,,,,,,,,,,,,,,,,,,,,,,,,,,,,,,,,
,,,,7,1.2628,,,,,,66,melon,yogurt,,90381,001,2022-04-25_13h29.02.993,SPAMnetsValid,2021.1.4,Win32,26.86438857,,,,,,,,,,,,,7,1.2628,0,55,55,48,1,,,,,,,,,,,,,,,,,,,,,,,,,,,,,,,,,,,,,,,,,,,,,,,,,,,,,,,,,,,,,,,,,,,,,,
,,,,6,1.8297,,,,,,77,refrigerator,yogurt,,90381,001,2022-04-25_13h29.02.993,SPAMnetsValid,2021.1.4,Win32,26.86438857,,,,,,,,,,,,,6,1.8297,0,56,56,42,1,,,,,,,,,,,,,,,,,,,,,,,,,,,,,,,,,,,,,,,,,,,,,,,,,,,,,,,,,,,,,,,,,,,,,,
,,,,1,1.3439,,,,,,40,broom,cake,,90381,001,2022-04-25_13h29.02.993,SPAMnetsValid,2021.1.4,Win32,26.86438857,,,,,,,,,,,,,1,1.3439,0,57,57,32,1,,,,,,,,,,,,,,,,,,,,,,,,,,,,,,,,,,,,,,,,,,,,,,,,,,,,,,,,,,,,,,,,,,,,,,
,,,,3,3.7553,,,,,,59,rose,strawberry,,90381,001,2022-04-25_13h29.02.993,SPAMnetsValid,2021.1.4,Win32,26.86438857,,,,,,,,,,,,,3,3.7553,0,58,58,72,1,,,,,,,,,,,,,,,,,,,,,,,,,,,,,,,,,,,,,,,,,,,,,,,,,,,,,,,,,,,,,,,,,,,,,,
,,,,6,1.7329,,,,,,20,rose,tree,,90381,001,2022-04-25_13h29.02.993,SPAMnetsValid,2021.1.4,Win32,26.86438857,,,,,,,,,,,,,6,1.7329,0,59,59,66,1,,,,,,,,,,,,,,,,,,,,,,,,,,,,,,,,,,,,,,,,,,,,,,,,,,,,,,,,,,,,,,,,,,,,,,
,,,,5,1.3739,,,,,,46,garden,yogurt,,90381,001,2022-04-25_13h29.02.993,SPAMnetsValid,2021.1.4,Win32,26.86438857,,,,,,,,,,,,,5,1.3739,0,60,60,65,1,,,,,,,,,,,,,,,,,,,,,,,,,,,,,,,,,,,,,,,,,,,,,,,,,,,,,,,,,,,,,,,,,,,,,,
,,,,1,1.2124,,,,,,58,garden,oven,,90381,001,2022-04-25_13h29.02.993,SPAMnetsValid,2021.1.4,Win32,26.86438857,,,,,,,,,,,,,1,1.2124,0,61,61,37,1,,,,,,,,,,,,,,,,,,,,,,,,,,,,,,,,,,,,,,,,,,,,,,,,,,,,,,,,,,,,,,,,,,,,,,
,,,,4,1.9891,,,,,,75,cookie,onion,,90381,001,2022-04-25_13h29.02.993,SPAMnetsValid,2021.1.4,Win32,26.86438857,,,,,,,,,,,,,4,1.9891,0,62,62,9,1,,,,,,,,,,,,,,,,,,,,,,,,,,,,,,,,,,,,,,,,,,,,,,,,,,,,,,,,,,,,,,,,,,,,,,
,,,,7,1.9242,,,,,,6,garden,onion,,90381,001,2022-04-25_13h29.02.993,SPAMnetsValid,2021.1.4,Win32,26.86438857,,,,,,,,,,,,,7,1.9242,0,63,63,83,1,,,,,,,,,,,,,,,,,,,,,,,,,,,,,,,,,,,,,,,,,,,,,,,,,,,,,,,,,,,,,,,,,,,,,,
,,,,7,1.8121,,,,,,18,onion,refrigerator,,90381,001,2022-04-25_13h29.02.993,SPAMnetsValid,2021.1.4,Win32,26.86438857,,,,,,,,,,,,,7,1.8121,0,64,64,62,1,,,,,,,,,,,,,,,,,,,,,,,,,,,,,,,,,,,,,,,,,,,,,,,,,,,,,,,,,,,,,,,,,,,,,,
,,,,1,1.2601,,,,,,90,cactus,cake,,90381,001,2022-04-25_13h29.02.993,SPAMnetsValid,2021.1.4,Win32,26.86438857,,,,,,,,,,,,,1,1.2601,0,65,65,85,1,,,,,,,,,,,,,,,,,,,,,,,,,,,,,,,,,,,,,,,,,,,,,,,,,,,,,,,,,,,,,,,,,,,,,,
,,,,8,2.0014,,,,,,93,kitchen,oven,,90381,001,2022-04-25_13h29.02.993,SPAMnetsValid,2021.1.4,Win32,26.86438857,,,,,,,,,,,,,8,2.0014,0,66,66,82,1,,,,,,,,,,,,,,,,,,,,,,,,,,,,,,,,,,,,,,,,,,,,,,,,,,,,,,,,,,,,,,,,,,,,,,
,,,,1,1.7863,,,,,,14,broom,cookie,,90381,001,2022-04-25_13h29.02.993,SPAMnetsValid,2021.1.4,Win32,26.86438857,,,,,,,,,,,,,1,1.7863,0,67,67,16,1,,,,,,,,,,,,,,,,,,,,,,,,,,,,,,,,,,,,,,,,,,,,,,,,,,,,,,,,,,,,,,,,,,,,,,
,,,,6,2.1959,,,,,,55,tomato,tree,,90381,001,2022-04-25_13h29.02.993,SPAMnetsValid,2021.1.4,Win32,26.86438857,,,,,,,,,,,,,6,2.1959,0,68,68,35,1,,,,,,,,,,,,,,,,,,,,,,,,,,,,,,,,,,,,,,,,,,,,,,,,,,,,,,,,,,,,,,,,,,,,,,
,,,,9,1.59,,,,,,191,cake,cake,CHECK,90381,001,2022-04-25_13h29.02.993,SPAMnetsValid,2021.1.4,Win32,26.86438857,,,,,,,,,,,,,9,1.59,0,69,69,10,1,,,,,,,,,,,,,,,,,,,,,,,,,,,,,,,,,,,,,,,,,,,,,,,,,,,,,,,,,,,,,,,,,,,,,,
,,,,8,2.3553,,,,,,94,kitchen,microwave,,90381,001,2022-04-25_13h29.02.993,SPAMnetsValid,2021.1.4,Win32,26.86438857,,,,,,,,,,,,,8,2.3553,0,70,70,58,1,,,,,,,,,,,,,,,,,,,,,,,,,,,,,,,,,,,,,,,,,,,,,,,,,,,,,,,,,,,,,,,,,,,,,,
,,,,4,1.4413,,,,,,42,garden,kitchen,,90381,001,2022-04-25_13h29.02.993,SPAMnetsValid,2021.1.4,Win32,26.86438857,,,,,,,,,,,,,4,1.4413,0,71,71,29,1,,,,,,,,,,,,,,,,,,,,,,,,,,,,,,,,,,,,,,,,,,,,,,,,,,,,,,,,,,,,,,,,,,,,,,
,,,,1,1.6816,,,,,,33,oven,yogurt,,90381,001,2022-04-25_13h29.02.993,SPAMnetsValid,2021.1.4,Win32,26.86438857,,,,,,,,,,,,,1,1.6816,0,72,72,31,1,,,,,,,,,,,,,,,,,,,,,,,,,,,,,,,,,,,,,,,,,,,,,,,,,,,,,,,,,,,,,,,,,,,,,,
,,,,1,1.2745,,,,,,83,broom,carrot,,90381,001,2022-04-25_13h29.02.993,SPAMnetsValid,2021.1.4,Win32,26.86438857,,,,,,,,,,,,,1,1.2745,0,73,73,4,1,,,,,,,,,,,,,,,,,,,,,,,,,,,,,,,,,,,,,,,,,,,,,,,,,,,,,,,,,,,,,,,,,,,,,,
,,,,3,1.3247,,,,,,21,cake,onion,,90381,001,2022-04-25_13h29.02.993,SPAMnetsValid,2021.1.4,Win32,26.86438857,,,,,,,,,,,,,3,1.3247,0,74,74,63,1,,,,,,,,,,,,,,,,,,,,,,,,,,,,,,,,,,,,,,,,,,,,,,,,,,,,,,,,,,,,,,,,,,,,,,
,,,,6,1.6043,,,,,,26,tomato,yogurt,,90381,001,2022-04-25_13h29.02.993,SPAMnetsValid,2021.1.4,Win32,26.86438857,,,,,,,,,,,,,6,1.6043,0,75,75,13,1,,,,,,,,,,,,,,,,,,,,,,,,,,,,,,,,,,,,,,,,,,,,,,,,,,,,,,,,,,,,,,,,,,,,,,
,,,,1,2.5201,,,,,,15,onion,oven,,90381,001,2022-04-25_13h29.02.993,SPAMnetsValid,2021.1.4,Win32,26.86438857,,,,,,,,,,,,,1,2.5201,0,76,76,39,1,,,,,,,,,,,,,,,,,,,,,,,,,,,,,,,,,,,,,,,,,,,,,,,,,,,,,,,,,,,,,,,,,,,,,,
,,,,8,1.7624,,,,,,63,cake,cookie,,90381,001,2022-04-25_13h29.02.993,SPAMnetsValid,2021.1.4,Win32,26.86438857,,,,,,,,,,,,,8,1.7624,0,77,77,93,1,,,,,,,,,,,,,,,,,,,,,,,,,,,,,,,,,,,,,,,,,,,,,,,,,,,,,,,,,,,,,,,,,,,,,,
,,,,6,1.1415,,,,,,88,cactus,melon,,90381,001,2022-04-25_13h29.02.993,SPAMnetsValid,2021.1.4,Win32,26.86438857,,,,,,,,,,,,,6,1.1415,0,78,78,38,1,,,,,,,,,,,,,,,,,,,,,,,,,,,,,,,,,,,,,,,,,,,,,,,,,,,,,,,,,,,,,,,,,,,,,,
,,,,7,2.1224,,,,,,3,cake,oven,,90381,001,2022-04-25_13h29.02.993,SPAMnetsValid,2021.1.4,Win32,26.86438857,,,,,,,,,,,,,7,2.1224,0,79,79,30,1,,,,,,,,,,,,,,,,,,,,,,,,,,,,,,,,,,,,,,,,,,,,,,,,,,,,,,,,,,,,,,,,,,,,,,
,,,,8,1.5631,,,,,,9,kitchen,refrigerator,,90381,001,2022-04-25_13h29.02.993,SPAMnetsValid,2021.1.4,Win32,26.86438857,,,,,,,,,,,,,8,1.5631,0,80,80,64,1,,,,,,,,,,,,,,,,,,,,,,,,,,,,,,,,,,,,,,,,,,,,,,,,,,,,,,,,,,,,,,,,,,,,,,
,,,,3,3.3087,,,,,,12,cookie,yogurt,,90381,001,2022-04-25_13h29.02.993,SPAMnetsValid,2021.1.4,Win32,26.86438857,,,,,,,,,,,,,3,3.3087,0,81,81,36,1,,,,,,,,,,,,,,,,,,,,,,,,,,,,,,,,,,,,,,,,,,,,,,,,,,,,,,,,,,,,,,,,,,,,,,
,,,,2,1.4435,,,,,,89,chocolate,rose,,90381,001,2022-04-25_13h29.02.993,SPAMnetsValid,2021.1.4,Win32,26.86438857,,,,,,,,,,,,,2,1.4435,0,82,82,60,1,,,,,,,,,,,,,,,,,,,,,,,,,,,,,,,,,,,,,,,,,,,,,,,,,,,,,,,,,,,,,,,,,,,,,,
,,,,4,1.9148,,,,,,68,flower,tomato,,90381,001,2022-04-25_13h29.02.993,SPAMnetsValid,2021.1.4,Win32,26.86438857,,,,,,,,,,,,,4,1.9148,0,83,83,94,1,,,,,,,,,,,,,,,,,,,,,,,,,,,,,,,,,,,,,,,,,,,,,,,,,,,,,,,,,,,,,,,,,,,,,,
,,,,1,1.5948,,,,,,28,cake,melon,,90381,001,2022-04-25_13h29.02.993,SPAMnetsValid,2021.1.4,Win32,26.86438857,,,,,,,,,,,,,1,1.5948,0,84,84,54,1,,,,,,,,,,,,,,,,,,,,,,,,,,,,,,,,,,,,,,,,,,,,,,,,,,,,,,,,,,,,,,,,,,,,,,
,,,,1,1.6479,,,,,,72,broom,onion,,90381,001,2022-04-25_13h29.02.993,SPAMnetsValid,2021.1.4,Win32,26.86438857,,,,,,,,,,,,,1,1.6479,0,85,85,27,1,,,,,,,,,,,,,,,,,,,,,,,,,,,,,,,,,,,,,,,,,,,,,,,,,,,,,,,,,,,,,,,,,,,,,,
,,,,6,2.3278,,,,,,19,microwave,pretzel,,90381,001,2022-04-25_13h29.02.993,SPAMnetsValid,2021.1.4,Win32,26.86438857,,,,,,,,,,,,,6,2.3278,0,86,86,41,1,,,,,,,,,,,,,,,,,,,,,,,,,,,,,,,,,,,,,,,,,,,,,,,,,,,,,,,,,,,,,,,,,,,,,,
,,,,3,1.4442,,,,,,54,chocolate,yogurt,,90381,001,2022-04-25_13h29.02.993,SPAMnetsValid,2021.1.4,Win32,26.86438857,,,,,,,,,,,,,3,1.4442,0,87,87,67,1,,,,,,,,,,,,,,,,,,,,,,,,,,,,,,,,,,,,,,,,,,,,,,,,,,,,,,,,,,,,,,,,,,,,,,
,,,,1,1.7615,,,,,,84,oven,tomato,,90381,001,2022-04-25_13h29.02.993,SPAMnetsValid,2021.1.4,Win32,26.86438857,,,,,,,,,,,,,1,1.7615,0,88,88,28,1,,,,,,,,,,,,,,,,,,,,,,,,,,,,,,,,,,,,,,,,,,,,,,,,,,,,,,,,,,,,,,,,,,,,,,
,,,,1,1.3965,,,,,,29,chocolate,melon,,90381,001,2022-04-25_13h29.02.993,SPAMnetsValid,2021.1.4,Win32,26.86438857,,,,,,,,,,,,,1,1.3965,0,89,89,34,1,,,,,,,,,,,,,,,,,,,,,,,,,,,,,,,,,,,,,,,,,,,,,,,,,,,,,,,,,,,,,,,,,,,,,,
,,,,3,1.9318,,,,,,60,cactus,onion,,90381,001,2022-04-25_13h29.02.993,SPAMnetsValid,2021.1.4,Win32,26.86438857,,,,,,,,,,,,,3,1.9318,0,90,90,81,1,,,,,,,,,,,,,,,,,,,,,,,,,,,,,,,,,,,,,,,,,,,,,,,,,,,,,,,,,,,,,,,,,,,,,,
,,,,3,1.2114,,,,,,51,onion,strawberry,,90381,001,2022-04-25_13h29.02.993,SPAMnetsValid,2021.1.4,Win32,26.86438857,,,,,,,,,,,,,3,1.2114,0,91,91,86,1,,,,,,,,,,,,,,,,,,,,,,,,,,,,,,,,,,,,,,,,,,,,,,,,,,,,,,,,,,,,,,,,,,,,,,
,,,,6,1.3922,,,,,,22,kitchen,strawberry,,90381,001,2022-04-25_13h29.02.993,SPAMnetsValid,2021.1.4,Win32,26.86438857,,,,,,,,,,,,,6,1.3922,0,92,92,2,1,,,,,,,,,,,,,,,,,,,,,,,,,,,,,,,,,,,,,,,,,,,,,,,,,,,,,,,,,,,,,,,,,,,,,,
,,,,3,1.1559,,,,,,34,melon,oven,,90381,001,2022-04-25_13h29.02.993,SPAMnetsValid,2021.1.4,Win32,26.86438857,,,,,,,,,,,,,3,1.1559,0,93,93,7,1,,,,,,,,,,,,,,,,,,,,,,,,,,,,,,,,,,,,,,,,,,,,,,,,,,,,,,,,,,,,,,,,,,,,,,
,,,,6,1.5374,,,,,,49,flower,strawberry,,90381,001,2022-04-25_13h29.02.993,SPAMnetsValid,2021.1.4,Win32,26.86438857,,,,,,,,,,,,,6,1.5374,0,94,94,3,1,,,,,,,,,,,,,,,,,,,,,,,,,,,,,,,,,,,,,,,,,,,,,,,,,,,,,,,,,,,,,,,,,,,,,,
,,,,1,1.2845,,,,,,74,broom,pretzel,,90381,001,2022-04-25_13h29.02.993,SPAMnetsValid,2021.1.4,Win32,26.86438857,,,,,,,,,,,,,1,1.2845,0,95,95,40,1,,,,,,,,,,,,,,,,,,,,,,,,,,,,,,,,,,,,,,,,,,,,,,,,,,,,,,,,,,,,,,,,,,,,,,
,,,,4,1.9867,,,,,,39,melon,pretzel,,90381,001,2022-04-25_13h29.02.993,SPAMnetsValid,2021.1.4,Win32,26.86438857,,,,,,,,,,,,,4,1.9867,0,96,96,20,1,,,,,,,,,,,,,,,,,,,,,,,,,,,,,,,,,,,,,,,,,,,,,,,,,,,,,,,,,,,,,,,,,,,,,,
,,,,,,,,,,,,,,,90381,001,2022-04-25_13h29.02.993,SPAMnetsValid,2021.1.4,Win32,26.86438857,,,,,,,,,,,,,,,,,,,,0,0,0,0,1,,,,,,,,,,,,,,,,,,,,,,,,,,,,,,,,,,,,,,,,,,,,,,,,,,,,,,,,,,,,,,,,,
,,,,,,,,,,,,,,,90381,001,2022-04-25_13h29.02.993,SPAMnetsValid,2021.1.4,Win32,26.86438857,,,,,,0,1,1,0,1,1,0,,,,,,,,,,,,,,,,,,,,,,,,,,,,,,,,,,,,,,,,,,,,,,,,,,,,,,,,,,,,,,,,,,,,,,,,,,,,,
,,,,,,,,,,,,,,,90381,001,2022-04-25_13h29.02.993,SPAMnetsValid,2021.1.4,Win32,26.86438857,,,,,,,,,,,,,,,,,,,,,,,,,4,8.756,0,0,0,0,1,rancor,forbearance,ridicule,malice,bravery,3,,,,,,,,,,,,,,,,,,,,,,,,,,,,,,,,,,,,,,,,,,,,,,,,,,,,
,,,,,,,,,,,,,,,90381,001,2022-04-25_13h29.02.993,SPAMnetsValid,2021.1.4,Win32,26.86438857,,,,,,,,,,,,,,,,,,,,,,,,,4,7.5802,0,1,1,1,1,raucous,empty,quiet,smooth,harsh,4,,,,,,,,,,,,,,,,,,,,,,,,,,,,,,,,,,,,,,,,,,,,,,,,,,,,
,,,,,,,,,,,,,,,90381,001,2022-04-25_13h29.02.993,SPAMnetsValid,2021.1.4,Win32,26.86438857,,,,,,,,,,,,,,,,,,,,,,,,,3,8.0595,0,2,2,2,1,gargoyle,oil,medicine,carved waterspout,ugly building,3,,,,,,,,,,,,,,,,,,,,,,,,,,,,,,,,,,,,,,,,,,,,,,,,,,,,
,,,,,,,,,,,,,,,90381,001,2022-04-25_13h29.02.993,SPAMnetsValid,2021.1.4,Win32,26.86438857,,,,,,,,,,,,,,,,,,,,,,,,,3,6.8398,0,3,3,3,1,recrudesce,purify,renew activity,lack refinement,crush,2,,,,,,,,,,,,,,,,,,,,,,,,,,,,,,,,,,,,,,,,,,,,,,,,,,,,
,,,,,,,,,,,,,,,90381,001,2022-04-25_13h29.02.993,SPAMnetsValid,2021.1.4,Win32,26.86438857,,,,,,,,,,,,,,,,,,,,,,,,,3,5.588,0,4,4,4,1,specious,"plausible, but not genuine",noteworthy,class or variety,roomy,1,,,,,,,,,,,,,,,,,,,,,,,,,,,,,,,,,,,,,,,,,,,,,,,,,,,,
,,,,,,,,,,,,,,,90381,001,2022-04-25_13h29.02.993,SPAMnetsValid,2021.1.4,Win32,26.86438857,,,,,,,,,,,,,,,,,,,,,,,,,2,4.1218,0,5,5,5,1,bauble,bubble,showy plaything,idle talk,confusion,2,,,,,,,,,,,,,,,,,,,,,,,,,,,,,,,,,,,,,,,,,,,,,,,,,,,,
,,,,,,,,,,,,,,,90381,001,2022-04-25_13h29.02.993,SPAMnetsValid,2021.1.4,Win32,26.86438857,,,,,,,,,,,,,,,,,,,,,,,,,2,6.9636,0,6,6,6,1,prolific,scarce,producing abundantly,reckless,speaking profanely,2,,,,,,,,,,,,,,,,,,,,,,,,,,,,,,,,,,,,,,,,,,,,,,,,,,,,
,,,,,,,,,,,,,,,90381,001,2022-04-25_13h29.02.993,SPAMnetsValid,2021.1.4,Win32,26.86438857,,,,,,,,,,,,,,,,,,,,,,,,,3,7.2204,0,7,7,7,1,opulent,party,wealthy,happy frame of mind,semiprecious stone,2,,,,,,,,,,,,,,,,,,,,,,,,,,,,,,,,,,,,,,,,,,,,,,,,,,,,
,,,,,,,,,,,,,,,90381,001,2022-04-25_13h29.02.993,SPAMnetsValid,2021.1.4,Win32,26.86438857,,,,,,,,,,,,,,,,,,,,,,,,,4,6.7135,0,8,8,8,1,coercion,conspiracy,strategy,restraint,attraction,3,,,,,,,,,,,,,,,,,,,,,,,,,,,,,,,,,,,,,,,,,,,,,,,,,,,,
,,,,,,,,,,,,,,,90381,001,2022-04-25_13h29.02.993,SPAMnetsValid,2021.1.4,Win32,26.86438857,,,,,,,,,,,,,,,,,,,,,,,,,2,4.5165,0,9,9,9,1,hiatus,animal,calamity,dread,gap,4,,,,,,,,,,,,,,,,,,,,,,,,,,,,,,,,,,,,,,,,,,,,,,,,,,,,
,,,,,,,,,,,,,,,90381,001,2022-04-25_13h29.02.993,SPAMnetsValid,2021.1.4,Win32,26.86438857,,,,,,,,,,,,,,,,,,,,,,,,,1,2.376,0,10,10,10,1,germane,microbe,contagious,relevant,different,3,,,,,,,,,,,,,,,,,,,,,,,,,,,,,,,,,,,,,,,,,,,,,,,,,,,,
,,,,,,,,,,,,,,,90381,001,2022-04-25_13h29.02.993,SPAMnetsValid,2021.1.4,Win32,26.86438857,,,,,,,,,,,,,,,,,,,,,,,,,3,2.3419,0,11,11,11,1,perfunctory,fundamental,formal,superficial,careful,3,,,,,,,,,,,,,,,,,,,,,,,,,,,,,,,,,,,,,,,,,,,,,,,,,,,,
,,,,,,,,,,,,,,,90381,001,2022-04-25_13h29.02.993,SPAMnetsValid,2021.1.4,Win32,26.86438857,,,,,,,,,,,,,,,,,,,,,,,,,4,2.9651,0,12,12,12,1,diverge,reveal,chant,distract the attention of,differ or turn off from,4,,,,,,,,,,,,,,,,,,,,,,,,,,,,,,,,,,,,,,,,,,,,,,,,,,,,
,,,,,,,,,,,,,,,90381,001,2022-04-25_13h29.02.993,SPAMnetsValid,2021.1.4,Win32,26.86438857,,,,,,,,,,,,,,,,,,,,,,,,,4,3.0981,0,13,13,13,1,evoke,take away,anger,connect,bring out,4,,,,,,,,,,,,,,,,,,,,,,,,,,,,,,,,,,,,,,,,,,,,,,,,,,,,
,,,,,,,,,,,,,,,90381,001,2022-04-25_13h29.02.993,SPAMnetsValid,2021.1.4,Win32,26.86438857,,,,,,,,,,,,,,,,,,,,,,,,,1,1.9425,0,14,14,14,1,pertinent,relevant,lying next to,necessary,bold,1,,,,,,,,,,,,,,,,,,,,,,,,,,,,,,,,,,,,,,,,,,,,,,,,,,,,
,,,,,,,,,,,,,,,90381,001,2022-04-25_13h29.02.993,SPAMnetsValid,2021.1.4,Win32,26.86438857,,,,,,,,,,,,,,,,,,,,,,,,,2,1.7035,0,15,15,15,1,holocaust,entirety,destruction,saintly,price,2,,,,,,,,,,,,,,,,,,,,,,,,,,,,,,,,,,,,,,,,,,,,,,,,,,,,
,,,,,,,,,,,,,,,90381,001,2022-04-25_13h29.02.993,SPAMnetsValid,2021.1.4,Win32,26.86438857,,,,,,,,,,,,,,,,,,,,,,,,,1,4.7893,0,16,16,16,1,piquant,mellow,fish,pungent,cloth,3,,,,,,,,,,,,,,,,,,,,,,,,,,,,,,,,,,,,,,,,,,,,,,,,,,,,
,,,,,,,,,,,,,,,90381,001,2022-04-25_13h29.02.993,SPAMnetsValid,2021.1.4,Win32,26.86438857,,,,,,,,,,,,,,,,,,,,,,,,,1,6.3895,0,17,17,17,1,firmament,foundation,heavens,strong,glue,2,,,,,,,,,,,,,,,,,,,,,,,,,,,,,,,,,,,,,,,,,,,,,,,,,,,,
,,,,,,,,,,,,,,,90381,001,2022-04-25_13h29.02.993,SPAMnetsValid,2021.1.4,Win32,26.86438857,,,,,,,,,,,,,,,,,,,,,,,,,,,,,,,,,,,,,,4,3.68,0,0,0,0,1,marketable,partisan,jocular,marriageable,salable,essential,4,,,,,,,,,,,,,,,,,,,,,,,,,,,,,,,,,,,,,,
,,,,,,,,,,,,,,,90381,001,2022-04-25_13h29.02.993,SPAMnetsValid,2021.1.4,Win32,26.86438857,,,,,,,,,,,,,,,,,,,,,,,,,,,,,,,,,,,,,,5,3.9971,0,1,1,1,1,cottontail,squirrel,poplar,boa,marshy plant,rabbit,5,,,,,,,,,,,,,,,,,,,,,,,,,,,,,,,,,,,,,,
,,,,,,,,,,,,,,,90381,001,2022-04-25_13h29.02.993,SPAMnetsValid,2021.1.4,Win32,26.86438857,,,,,,,,,,,,,,,,,,,,,,,,,,,,,,,,,,,,,,3,1.8109,0,2,2,2,1,boggy,afraid,false,marshy,dense,black,3,,,,,,,,,,,,,,,,,,,,,,,,,,,,,,,,,,,,,,
,,,,,,,,,,,,,,,90381,001,2022-04-25_13h29.02.993,SPAMnetsValid,2021.1.4,Win32,26.86438857,,,,,,,,,,,,,,,,,,,,,,,,,,,,,,,,,,,,,,3,3.7137,0,3,3,3,1,gruesomeness,blackness,falseness,vindictiveness,drunkenness,ghastliness,5,,,,,,,,,,,,,,,,,,,,,,,,,,,,,,,,,,,,,,
,,,,,,,,,,,,,,,90381,001,2022-04-25_13h29.02.993,SPAMnetsValid,2021.1.4,Win32,26.86438857,,,,,,,,,,,,,,,,,,,,,,,,,,,,,,,,,,,,,,3,4.1284,0,4,4,4,1,loathing,diffidence,laziness,abhorrence,cleverness,comfort,3,,,,,,,,,,,,,,,,,,,,,,,,,,,,,,,,,,,,,,
,,,,,,,,,,,,,,,90381,001,2022-04-25_13h29.02.993,SPAMnetsValid,2021.1.4,Win32,26.86438857,,,,,,,,,,,,,,,,,,,,,,,,,,,,,,,,,,,,,,2,2.7414,0,5,5,5,1,bantam,fowl,ridicule,cripple,vegetable,ensign,1,,,,,,,,,,,,,,,,,,,,,,,,,,,,,,,,,,,,,,
,,,,,,,,,,,,,,,90381,001,2022-04-25_13h29.02.993,SPAMnetsValid,2021.1.4,Win32,26.86438857,,,,,,,,,,,,,,,,,,,,,,,,,,,,,,,,,,,,,,5,3.1456,0,6,6,6,1,evoke,wake up,surrender,reconnoiter,transcend,call forth,5,,,,,,,,,,,,,,,,,,,,,,,,,,,,,,,,,,,,,,
,,,,,,,,,,,,,,,90381,001,2022-04-25_13h29.02.993,SPAMnetsValid,2021.1.4,Win32,26.86438857,,,,,,,,,,,,,,,,,,,,,,,,,,,,,,,,,,,,,,5,3.3368,0,7,7,7,1,unobtrusive,unintelligent,epileptic,illogical,lineal,modest,5,,,,,,,,,,,,,,,,,,,,,,,,,,,,,,,,,,,,,,
,,,,,,,,,,,,,,,90381,001,2022-04-25_13h29.02.993,SPAMnetsValid,2021.1.4,Win32,26.86438857,,,,,,,,,,,,,,,,,,,,,,,,,,,,,,,,,,,,,,4,2.3262,0,8,8,8,1,terrain,ice cream,final test,tractor,area of ground,weight,4,,,,,,,,,,,,,,,,,,,,,,,,,,,,,,,,,,,,,,
,,,,,,,,,,,,,,,90381,001,2022-04-25_13h29.02.993,SPAMnetsValid,2021.1.4,Win32,26.86438857,,,,,,,,,,,,,,,,,,,,,,,,,,,,,,,,,,,,,,3,3.0189,0,9,9,9,1,capriciousness,stubbornness,courage,whimsicality,amazement,greediness,3,,,,,,,,,,,,,,,,,,,,,,,,,,,,,,,,,,,,,,
,,,,,,,,,,,,,,,90381,001,2022-04-25_13h29.02.993,SPAMnetsValid,2021.1.4,Win32,26.86438857,,,,,,,,,,,,,,,,,,,,,,,,,,,,,,,,,,,,,,2,7.0647,0,10,10,10,1,maelstrom,slander,whirlpool,enmity,armor,majolica,2,,,,,,,,,,,,,,,,,,,,,,,,,,,,,,,,,,,,,,
,,,,,,,,,,,,,,,90381,001,2022-04-25_13h29.02.993,SPAMnetsValid,2021.1.4,Win32,26.86438857,,,,,,,,,,,,,,,,,,,,,,,,,,,,,,,,,,,,,,4,9.475,0,11,11,11,1,tentative,critical,conclusive,authentic,provisional,apprehensive,4,,,,,,,,,,,,,,,,,,,,,,,,,,,,,,,,,,,,,,
,,,,,,,,,,,,,,,90381,001,2022-04-25_13h29.02.993,SPAMnetsValid,2021.1.4,Win32,26.86438857,,,,,,,,,,,,,,,,,,,,,,,,,,,,,,,,,,,,,,5,7.063,0,12,12,12,1,placate,rehabilitate,plagiarize,depredate,apprise,conciliate,5,,,,,,,,,,,,,,,,,,,,,,,,,,,,,,,,,,,,,,
,,,,,,,,,,,,,,,90381,001,2022-04-25_13h29.02.993,SPAMnetsValid,2021.1.4,Win32,26.86438857,,,,,,,,,,,,,,,,,,,,,,,,,,,,,,,,,,,,,,2,2.0781,0,13,13,13,1,surcease,enlightenment,cessation,inattention,censor,substitution,2,,,,,,,,,,,,,,,,,,,,,,,,,,,,,,,,,,,,,,
,,,,,,,,,,,,,,,90381,001,2022-04-25_13h29.02.993,SPAMnetsValid,2021.1.4,Win32,26.86438857,,,,,,,,,,,,,,,,,,,,,,,,,,,,,,,,,,,,,,4,2.8871,0,14,14,14,1,apathetic,wandering,impassive,hateful,prophetic,overflowing,2,,,,,,,,,,,,,,,,,,,,,,,,,,,,,,,,,,,,,,
,,,,,,,,,,,,,,,90381,001,2022-04-25_13h29.02.993,SPAMnetsValid,2021.1.4,Win32,26.86438857,,,,,,,,,,,,,,,,,,,,,,,,,,,,,,,,,,,,,,4,1.014,0,15,15,15,1,paternoster,paternalism,patricide,malediction,benediction,prayer,5,,,,,,,,,,,,,,,,,,,,,,,,,,,,,,,,,,,,,,
,,,,,,,,,,,,,,,90381,001,2022-04-25_13h29.02.993,SPAMnetsValid,2021.1.4,Win32,26.86438857,,,,,,,,,,,,,,,,,,,,,,,,,,,,,,,,,,,,,,4,0.4602,0,16,16,16,1,opalescence,opulence,senescence,bankruptcy,iridescence,assiduity,4,,,,,,,,,,,,,,,,,,,,,,,,,,,,,,,,,,,,,,
,,,,,,,,,,,,,,,90381,001,2022-04-25_13h29.02.993,SPAMnetsValid,2021.1.4,Win32,26.86438857,,,,,,,,,,,,,,,,,,,,,,,,,,,,,,,,,,,,,,,,0,17,17,17,1,lush,stupid,luxurious,hazy,putrid,languishing,2,,,,,,,,,,,,,,,,,,,,,,,,,,,,,,,,,,,,,,
,,,,,,,,,,,,,,,90381,001,2022-04-25_13h29.02.993,SPAMnetsValid,2021.1.4,Win32,26.86438857,,,,,,,,,,,,,,,,,,,,,,,,,,,,,,,,,,,,,,4,0.6684,0,18,18,18,1,curtailment,expenditure,abandonment,abridgment,improvement,forgery,3,,,,,,,,,,,,,,,,,,,,,,,,,,,,,,,,,,,,,,
,,,,,,,,,,,,,,,90381,001,2022-04-25_13h29.02.993,SPAMnetsValid,2021.1.4,Win32,26.86438857,,,,,,,,,,,,,,,,,,,,,,,,,,,,,,,,,,,,,,,,0,19,19,19,1,perversity,adversity,perviousness,travesty,waywardness,gentility,4,,,,,,,,,,,,,,,,,,,,,,,,,,,,,,,,,,,,,,
,,,,,,,,,,,,,,,90381,001,2022-04-25_13h29.02.993,SPAMnetsValid,2021.1.4,Win32,26.86438857,,,,,,,,,,,,,,,,,,,,,,,,,,,,,,,,,,,,,,,,0,20,20,20,1,calumnious,complimentary,analogous,slanderous,tempestuous,magnanimous,3,,,,,,,,,,,,,,,,,,,,,,,,,,,,,,,,,,,,,,
,,,,,,,,,,,,,,,90381,001,2022-04-25_13h29.02.993,SPAMnetsValid,2021.1.4,Win32,26.86438857,,,,,,,,,,,,,,,,,,,,,,,,,,,,,,,,,,,,,,4,0.3069,0,21,21,21,1,illiberality,bigotry,imbecility,illegibility,cautery,immaturity,1,,,,,,,,,,,,,,,,,,,,,,,,,,,,,,,,,,,,,,
,,,,,,,,,,,,,,,90381,001,2022-04-25_13h29.02.993,SPAMnetsValid,2021.1.4,Win32,26.86438857,,,,,,,,,,,,,,,,,,,,,,,,,,,,,,,,,,,,,,,,0,22,22,22,1,clabber,rejoice,gossip,curdle,crow,hobble,3,,,,,,,,,,,,,,,,,,,,,,,,,,,,,,,,,,,,,,
,,,,,,,,,,,,,,,90381,001,2022-04-25_13h29.02.993,SPAMnetsValid,2021.1.4,Win32,26.86438857,,,,,,,,,,,,,,,,,,,,,,,,,,,,,,,,,,,,,,3,1.435,0,23,23,23,1,sedulousness,diligence,credulousness,seduction,perilousness,frankness,1,,,,,,,,,,,,,,,,,,,,,,,,,,,,,,,,,,,,,,
,,,,,,,,,,,,,,,90381,001,2022-04-25_13h29.02.993,SPAMnetsValid,2021.1.4,Win32,26.86438857,,,,,,,,,,,,,,,,,,,,,,,,,,,,,,,,,,,,,,,,,,,,,,,,,,,,"hit someone with it, aggressively turn off a light switch by swinging the pillow into it, cuddling it when sleeping, sitting on it for a chair pillow",pillow,0,0,0,0,1,,,,,,,,,,,,,,,,,,,,,,,,,,,,,,,
,,,,,,,,,,,,,,,90381,001,2022-04-25_13h29.02.993,SPAMnetsValid,2021.1.4,Win32,26.86438857,,,,,,,,,,,,,,,,,,,,,,,,,,,,,,,,,,,,,,,,,,,,,,,,,,,,scream into it muffler style,pillow,1,0,1,0,1,,,,,,,,,,,,,,,,,,,,,,,,,,,,,,,
,,,,,,,,,,,,,,,90381,001,2022-04-25_13h29.02.993,SPAMnetsValid,2021.1.4,Win32,26.86438857,,,,,,,,,,,,,,,,,,,,,,,,,,,,,,,,,,,,,,,,,,,,,,,,,,,,stack them to stand on to reach a higher place,pillow,2,0,2,0,1,,,,,,,,,,,,,,,,,,,,,,,,,,,,,,,
,,,,,,,,,,,,,,,90381,001,2022-04-25_13h29.02.993,SPAMnetsValid,2021.1.4,Win32,26.86438857,,,,,,,,,,,,,,,,,,,,,,,,,,,,,,,,,,,,,,,,,,,,,,,,,,,,,,,,,,,0,0,0,2,1,pillow,,,,,,,,,,,,,,,,,,,,,,,,,
,,,,,,,,,,,,,,,90381,001,2022-04-25_13h29.02.993,SPAMnetsValid,2021.1.4,Win32,26.86438857,,,,,,,,,,,,,,,,,,,,,,,,,,,,,,,,,,,,,,,,,,,,,,,,,,,,to put literally anything into,bucket,0,0,0,0,1,,,,,,,,,,,,,,,,,,,,,,,,,,,,,,,
,,,,,,,,,,,,,,,90381,001,2022-04-25_13h29.02.993,SPAMnetsValid,2021.1.4,Win32,26.86438857,,,,,,,,,,,,,,,,,,,,,,,,,,,,,,,,,,,,,,,,,,,,,,,,,,,,wear it as a hat,bucket,1,0,1,0,1,,,,,,,,,,,,,,,,,,,,,,,,,,,,,,,
,,,,,,,,,,,,,,,90381,001,2022-04-25_13h29.02.993,SPAMnetsValid,2021.1.4,Win32,26.86438857,,,,,,,,,,,,,,,,,,,,,,,,,,,,,,,,,,,,,,,,,,,,,,,,,,,,drink from it,bucket,2,0,2,0,1,,,,,,,,,,,,,,,,,,,,,,,,,,,,,,,
,,,,,,,,,,,,,,,90381,001,2022-04-25_13h29.02.993,SPAMnetsValid,2021.1.4,Win32,26.86438857,,,,,,,,,,,,,,,,,,,,,,,,,,,,,,,,,,,,,,,,,,,,,,,,,,,,kick it,bucket,3,0,3,0,1,,,,,,,,,,,,,,,,,,,,,,,,,,,,,,,
,,,,,,,,,,,,,,,90381,001,2022-04-25_13h29.02.993,SPAMnetsValid,2021.1.4,Win32,26.86438857,,,,,,,,,,,,,,,,,,,,,,,,,,,,,,,,,,,,,,,,,,,,,,,,,,,,trash can,bucket,4,0,4,0,1,,,,,,,,,,,,,,,,,,,,,,,,,,,,,,,
,,,,,,,,,,,,,,,90381,001,2022-04-25_13h29.02.993,SPAMnetsValid,2021.1.4,Win32,26.86438857,,,,,,,,,,,,,,,,,,,,,,,,,,,,,,,,,,,,,,,,,,,,,,,,,,,,trap things ,bucket,5,0,5,0,1,,,,,,,,,,,,,,,,,,,,,,,,,,,,,,,
,,,,,,,,,,,,,,,90381,001,2022-04-25_13h29.02.993,SPAMnetsValid,2021.1.4,Win32,26.86438857,,,,,,,,,,,,,,,,,,,,,,,,,,,,,,,,,,,,,,,,,,,,,,,,,,,,hit someone with it,bucket,6,0,6,0,1,,,,,,,,,,,,,,,,,,,,,,,,,,,,,,,
,,,,,,,,,,,,,,,90381,001,2022-04-25_13h29.02.993,SPAMnetsValid,2021.1.4,Win32,26.86438857,,,,,,,,,,,,,,,,,,,,,,,,,,,,,,,,,,,,,,,,,,,,,,,,,,,,bob for apples,bucket,7,0,7,0,1,,,,,,,,,,,,,,,,,,,,,,,,,,,,,,,
,,,,,,,,,,,,,,,90381,001,2022-04-25_13h29.02.993,SPAMnetsValid,2021.1.4,Win32,26.86438857,,,,,,,,,,,,,,,,,,,,,,,,,,,,,,,,,,,,,,,,,,,,,,,,,,,,,,,,,,,0,1,1,0,1,bucket,,,,,,,,,,,,,,,,,,,,,,,,,
,,,,,,,,,,,,,,,90381,001,2022-04-25_13h29.02.993,SPAMnetsValid,2021.1.4,Win32,26.86438857,,,,,,,,,,,,,,,,,,,,,,,,,,,,,,,,,,,,,,,,,,,,,,,,,,,,light other candles,candle,0,0,0,0,1,,,,,,,,,,,,,,,,,,,,,,,,,,,,,,,
,,,,,,,,,,,,,,,90381,001,2022-04-25_13h29.02.993,SPAMnetsValid,2021.1.4,Win32,26.86438857,,,,,,,,,,,,,,,,,,,,,,,,,,,,,,,,,,,,,,,,,,,,,,,,,,,,weapon,candle,1,0,1,0,1,,,,,,,,,,,,,,,,,,,,,,,,,,,,,,,
,,,,,,,,,,,,,,,90381,001,2022-04-25_13h29.02.993,SPAMnetsValid,2021.1.4,Win32,26.86438857,,,,,,,,,,,,,,,,,,,,,,,,,,,,,,,,,,,,,,,,,,,,,,,,,,,,paperweight,candle,2,0,2,0,1,,,,,,,,,,,,,,,,,,,,,,,,,,,,,,,
,,,,,,,,,,,,,,,90381,001,2022-04-25_13h29.02.993,SPAMnetsValid,2021.1.4,Win32,26.86438857,,,,,,,,,,,,,,,,,,,,,,,,,,,,,,,,,,,,,,,,,,,,,,,,,,,,weapon,candle,3,0,3,0,1,,,,,,,,,,,,,,,,,,,,,,,,,,,,,,,
,,,,,,,,,,,,,,,90381,001,2022-04-25_13h29.02.993,SPAMnetsValid,2021.1.4,Win32,26.86438857,,,,,,,,,,,,,,,,,,,,,,,,,,,,,,,,,,,,,,,,,,,,,,,,,,,,,,,,,,,0,2,2,1,1,candle,,,,,,,,,,,,,,,,,,,,,,,,,
,,,,,,,,,,,,,,,90381,001,2022-04-25_13h29.02.993,SPAMnetsValid,2021.1.4,Win32,26.86438857,,,,,,,,,,,,,,,,,,,,,,,,,,,,,,,,,,,,,,,,,,,,,,,,,,,,,,,,,,,,,,,,,dog,Animals,0,0,0,0,1,,,,,,,,,,,,,,,,,,
,,,,,,,,,,,,,,,90381,001,2022-04-25_13h29.02.993,SPAMnetsValid,2021.1.4,Win32,26.86438857,,,,,,,,,,,,,,,,,,,,,,,,,,,,,,,,,,,,,,,,,,,,,,,,,,,,,,,,,,,,,,,,,cat,Animals,1,0,1,0,1,,,,,,,,,,,,,,,,,,
,,,,,,,,,,,,,,,90381,001,2022-04-25_13h29.02.993,SPAMnetsValid,2021.1.4,Win32,26.86438857,,,,,,,,,,,,,,,,,,,,,,,,,,,,,,,,,,,,,,,,,,,,,,,,,,,,,,,,,,,,,,,,,mouse,Animals,2,0,2,0,1,,,,,,,,,,,,,,,,,,
,,,,,,,,,,,,,,,90381,001,2022-04-25_13h29.02.993,SPAMnetsValid,2021.1.4,Win32,26.86438857,,,,,,,,,,,,,,,,,,,,,,,,,,,,,,,,,,,,,,,,,,,,,,,,,,,,,,,,,,,,,,,,,deer,Animals,3,0,3,0,1,,,,,,,,,,,,,,,,,,
,,,,,,,,,,,,,,,90381,001,2022-04-25_13h29.02.993,SPAMnetsValid,2021.1.4,Win32,26.86438857,,,,,,,,,,,,,,,,,,,,,,,,,,,,,,,,,,,,,,,,,,,,,,,,,,,,,,,,,,,,,,,,,antelope,Animals,4,0,4,0,1,,,,,,,,,,,,,,,,,,
,,,,,,,,,,,,,,,90381,001,2022-04-25_13h29.02.993,SPAMnetsValid,2021.1.4,Win32,26.86438857,,,,,,,,,,,,,,,,,,,,,,,,,,,,,,,,,,,,,,,,,,,,,,,,,,,,,,,,,,,,,,,,,frog,Animals,5,0,5,0,1,,,,,,,,,,,,,,,,,,
,,,,,,,,,,,,,,,90381,001,2022-04-25_13h29.02.993,SPAMnetsValid,2021.1.4,Win32,26.86438857,,,,,,,,,,,,,,,,,,,,,,,,,,,,,,,,,,,,,,,,,,,,,,,,,,,,,,,,,,,,,,,,,bat,Animals,6,0,6,0,1,,,,,,,,,,,,,,,,,,
,,,,,,,,,,,,,,,90381,001,2022-04-25_13h29.02.993,SPAMnetsValid,2021.1.4,Win32,26.86438857,,,,,,,,,,,,,,,,,,,,,,,,,,,,,,,,,,,,,,,,,,,,,,,,,,,,,,,,,,,,,,,,,rabbit,Animals,7,0,7,0,1,,,,,,,,,,,,,,,,,,
,,,,,,,,,,,,,,,90381,001,2022-04-25_13h29.02.993,SPAMnetsValid,2021.1.4,Win32,26.86438857,,,,,,,,,,,,,,,,,,,,,,,,,,,,,,,,,,,,,,,,,,,,,,,,,,,,,,,,,,,,,,,,,whale,Animals,8,0,8,0,1,,,,,,,,,,,,,,,,,,
,,,,,,,,,,,,,,,90381,001,2022-04-25_13h29.02.993,SPAMnetsValid,2021.1.4,Win32,26.86438857,,,,,,,,,,,,,,,,,,,,,,,,,,,,,,,,,,,,,,,,,,,,,,,,,,,,,,,,,,,,,,,,,shark,Animals,9,0,9,0,1,,,,,,,,,,,,,,,,,,
,,,,,,,,,,,,,,,90381,001,2022-04-25_13h29.02.993,SPAMnetsValid,2021.1.4,Win32,26.86438857,,,,,,,,,,,,,,,,,,,,,,,,,,,,,,,,,,,,,,,,,,,,,,,,,,,,,,,,,,,,,,,,,fish,Animals,10,0,10,0,1,,,,,,,,,,,,,,,,,,
,,,,,,,,,,,,,,,90381,001,2022-04-25_13h29.02.993,SPAMnetsValid,2021.1.4,Win32,26.86438857,,,,,,,,,,,,,,,,,,,,,,,,,,,,,,,,,,,,,,,,,,,,,,,,,,,,,,,,,,,,,,,,,turtle,Animals,11,0,11,0,1,,,,,,,,,,,,,,,,,,
,,,,,,,,,,,,,,,90381,001,2022-04-25_13h29.02.993,SPAMnetsValid,2021.1.4,Win32,26.86438857,,,,,,,,,,,,,,,,,,,,,,,,,,,,,,,,,,,,,,,,,,,,,,,,,,,,,,,,,,,,,,,,,human,Animals,12,0,12,0,1,,,,,,,,,,,,,,,,,,
,,,,,,,,,,,,,,,90381,001,2022-04-25_13h29.02.993,SPAMnetsValid,2021.1.4,Win32,26.86438857,,,,,,,,,,,,,,,,,,,,,,,,,,,,,,,,,,,,,,,,,,,,,,,,,,,,,,,,,,,,,,,,,rat,Animals,13,0,13,0,1,,,,,,,,,,,,,,,,,,
,,,,,,,,,,,,,,,90381,001,2022-04-25_13h29.02.993,SPAMnetsValid,2021.1.4,Win32,26.86438857,,,,,,,,,,,,,,,,,,,,,,,,,,,,,,,,,,,,,,,,,,,,,,,,,,,,,,,,,,,,,,,,,horse,Animals,14,0,14,0,1,,,,,,,,,,,,,,,,,,
,,,,,,,,,,,,,,,90381,001,2022-04-25_13h29.02.993,SPAMnetsValid,2021.1.4,Win32,26.86438857,,,,,,,,,,,,,,,,,,,,,,,,,,,,,,,,,,,,,,,,,,,,,,,,,,,,,,,,,,,,,,,,,pig,Animals,15,0,15,0,1,,,,,,,,,,,,,,,,,,
,,,,,,,,,,,,,,,90381,001,2022-04-25_13h29.02.993,SPAMnetsValid,2021.1.4,Win32,26.86438857,,,,,,,,,,,,,,,,,,,,,,,,,,,,,,,,,,,,,,,,,,,,,,,,,,,,,,,,,,,,,,,,,cow,Animals,16,0,16,0,1,,,,,,,,,,,,,,,,,,
,,,,,,,,,,,,,,,90381,001,2022-04-25_13h29.02.993,SPAMnetsValid,2021.1.4,Win32,26.86438857,,,,,,,,,,,,,,,,,,,,,,,,,,,,,,,,,,,,,,,,,,,,,,,,,,,,,,,,,,,,,,,,,sheep,Animals,17,0,17,0,1,,,,,,,,,,,,,,,,,,
,,,,,,,,,,,,,,,90381,001,2022-04-25_13h29.02.993,SPAMnetsValid,2021.1.4,Win32,26.86438857,,,,,,,,,,,,,,,,,,,,,,,,,,,,,,,,,,,,,,,,,,,,,,,,,,,,,,,,,,,,,,,,,lion,Animals,18,0,18,0,1,,,,,,,,,,,,,,,,,,
,,,,,,,,,,,,,,,90381,001,2022-04-25_13h29.02.993,SPAMnetsValid,2021.1.4,Win32,26.86438857,,,,,,,,,,,,,,,,,,,,,,,,,,,,,,,,,,,,,,,,,,,,,,,,,,,,,,,,,,,,,,,,,tiger,Animals,19,0,19,0,1,,,,,,,,,,,,,,,,,,
,,,,,,,,,,,,,,,90381,001,2022-04-25_13h29.02.993,SPAMnetsValid,2021.1.4,Win32,26.86438857,,,,,,,,,,,,,,,,,,,,,,,,,,,,,,,,,,,,,,,,,,,,,,,,,,,,,,,,,,,,,,,,,bear,Animals,20,0,20,0,1,,,,,,,,,,,,,,,,,,
,,,,,,,,,,,,,,,90381,001,2022-04-25_13h29.02.993,SPAMnetsValid,2021.1.4,Win32,26.86438857,,,,,,,,,,,,,,,,,,,,,,,,,,,,,,,,,,,,,,,,,,,,,,,,,,,,,,,,,,,,,,,,,bird,Animals,21,0,21,0,1,,,,,,,,,,,,,,,,,,
,,,,,,,,,,,,,,,90381,001,2022-04-25_13h29.02.993,SPAMnetsValid,2021.1.4,Win32,26.86438857,,,,,,,,,,,,,,,,,,,,,,,,,,,,,,,,,,,,,,,,,,,,,,,,,,,,,,,,,,,,,,,,,ostrich,Animals,22,0,22,0,1,,,,,,,,,,,,,,,,,,
,,,,,,,,,,,,,,,90381,001,2022-04-25_13h29.02.993,SPAMnetsValid,2021.1.4,Win32,26.86438857,,,,,,,,,,,,,,,,,,,,,,,,,,,,,,,,,,,,,,,,,,,,,,,,,,,,,,,,,,,,,,,,,lizard,Animals,23,0,23,0,1,,,,,,,,,,,,,,,,,,
,,,,,,,,,,,,,,,90381,001,2022-04-25_13h29.02.993,SPAMnetsValid,2021.1.4,Win32,26.86438857,,,,,,,,,,,,,,,,,,,,,,,,,,,,,,,,,,,,,,,,,,,,,,,,,,,,,,,,,,,,,,,,,snake,Animals,24,0,24,0,1,,,,,,,,,,,,,,,,,,
,,,,,,,,,,,,,,,90381,001,2022-04-25_13h29.02.993,SPAMnetsValid,2021.1.4,Win32,26.86438857,,,,,,,,,,,,,,,,,,,,,,,,,,,,,,,,,,,,,,,,,,,,,,,,,,,,,,,,,,,,,,,,,spider,Animals,25,0,25,0,1,,,,,,,,,,,,,,,,,,
,,,,,,,,,,,,,,,90381,001,2022-04-25_13h29.02.993,SPAMnetsValid,2021.1.4,Win32,26.86438857,,,,,,,,,,,,,,,,,,,,,,,,,,,,,,,,,,,,,,,,,,,,,,,,,,,,,,,,,,,,,,,,,monkey,Animals,26,0,26,0,1,,,,,,,,,,,,,,,,,,
,,,,,,,,,,,,,,,90381,001,2022-04-25_13h29.02.993,SPAMnetsValid,2021.1.4,Win32,26.86438857,,,,,,,,,,,,,,,,,,,,,,,,,,,,,,,,,,,,,,,,,,,,,,,,,,,,,,,,,,,,,,,,,ape,Animals,27,0,27,0,1,,,,,,,,,,,,,,,,,,
,,,,,,,,,,,,,,,90381,001,2022-04-25_13h29.02.993,SPAMnetsValid,2021.1.4,Win32,26.86438857,,,,,,,,,,,,,,,,,,,,,,,,,,,,,,,,,,,,,,,,,,,,,,,,,,,,,,,,,,,,,,,,,parrot,Animals,28,0,28,0,1,,,,,,,,,,,,,,,,,,
,,,,,,,,,,,,,,,90381,001,2022-04-25_13h29.02.993,SPAMnetsValid,2021.1.4,Win32,26.86438857,,,,,,,,,,,,,,,,,,,,,,,,,,,,,,,,,,,,,,,,,,,,,,,,,,,,,,,,,,,,,,,,,ram,Animals,29,0,29,0,1,,,,,,,,,,,,,,,,,,
,,,,,,,,,,,,,,,90381,001,2022-04-25_13h29.02.993,SPAMnetsValid,2021.1.4,Win32,26.86438857,,,,,,,,,,,,,,,,,,,,,,,,,,,,,,,,,,,,,,,,,,,,,,,,,,,,,,,,,,,,,,,,,mountain lion,Animals,30,0,30,0,1,,,,,,,,,,,,,,,,,,
,,,,,,,,,,,,,,,90381,001,2022-04-25_13h29.02.993,SPAMnetsValid,2021.1.4,Win32,26.86438857,,,,,,,,,,,,,,,,,,,,,,,,,,,,,,,,,,,,,,,,,,,,,,,,,,,,,,,,,,,,,,,,,cougar,Animals,31,0,31,0,1,,,,,,,,,,,,,,,,,,
,,,,,,,,,,,,,,,90381,001,2022-04-25_13h29.02.993,SPAMnetsValid,2021.1.4,Win32,26.86438857,,,,,,,,,,,,,,,,,,,,,,,,,,,,,,,,,,,,,,,,,,,,,,,,,,,,,,,,,,,,,,,,,jaguar,Animals,32,0,32,0,1,,,,,,,,,,,,,,,,,,
,,,,,,,,,,,,,,,90381,001,2022-04-25_13h29.02.993,SPAMnetsValid,2021.1.4,Win32,26.86438857,,,,,,,,,,,,,,,,,,,,,,,,,,,,,,,,,,,,,,,,,,,,,,,,,,,,,,,,,,,,,,,,,cheetah,Animals,33,0,33,0,1,,,,,,,,,,,,,,,,,,
,,,,,,,,,,,,,,,90381,001,2022-04-25_13h29.02.993,SPAMnetsValid,2021.1.4,Win32,26.86438857,,,,,,,,,,,,,,,,,,,,,,,,,,,,,,,,,,,,,,,,,,,,,,,,,,,,,,,,,,,,,,,,,,,,,,,,0,0,0,0,1,Animals,,,,,,,,,,,,
,,,,,,,,,,,,,,,90381,001,2022-04-25_13h29.02.993,SPAMnetsValid,2021.1.4,Win32,26.86438857,,,,,,,,,,,,,,,,,,,,,,,,,,,,,,,,,,,,,,,,,,,,,,,,,,,,,,,,,,,,,,,,,,,,,,,,,,,,,,5,7.5699,0,0,0,0,1,"I enjoy concentrating on a fantasy or daydream and exploring all its possibilities, letting it grow and develop.",0,1,,
,,,,,,,,,,,,,,,90381,001,2022-04-25_13h29.02.993,SPAMnetsValid,2021.1.4,Win32,26.86438857,,,,,,,,,,,,,,,,,,,,,,,,,,,,,,,,,,,,,,,,,,,,,,,,,,,,,,,,,,,,,,,,,,,,,,,,,,,,,,5,1.6046,0,1,1,1,1,I think it's interesting to learn and develop new hobbies.,0,2,,
,,,,,,,,,,,,,,,90381,001,2022-04-25_13h29.02.993,SPAMnetsValid,2021.1.4,Win32,26.86438857,,,,,,,,,,,,,,,,,,,,,,,,,,,,,,,,,,,,,,,,,,,,,,,,,,,,,,,,,,,,,,,,,,,,,,,,,,,,,,4,2.3008,0,2,2,2,1,I am intrigued by the patterns I find in art and nature.,0,3,,
,,,,,,,,,,,,,,,90381,001,2022-04-25_13h29.02.993,SPAMnetsValid,2021.1.4,Win32,26.86438857,,,,,,,,,,,,,,,,,,,,,,,,,,,,,,,,,,,,,,,,,,,,,,,,,,,,,,,,,,,,,,,,,,,,,,,,,,,,,,1,4.746,0,3,3,3,1,I believe letting students hear controversial speakers can only confuse and mislead them.,1,4,,
,,,,,,,,,,,,,,,90381,001,2022-04-25_13h29.02.993,SPAMnetsValid,2021.1.4,Win32,26.86438857,,,,,,,,,,,,,,,,,,,,,,,,,,,,,,,,,,,,,,,,,,,,,,,,,,,,,,,,,,,,,,,,,,,,,,,,,,,,,,4,4.0322,0,4,4,4,1,Poetry has little or no effect on me.,1,5,,
,,,,,,,,,,,,,,,90381,001,2022-04-25_13h29.02.993,SPAMnetsValid,2021.1.4,Win32,26.86438857,,,,,,,,,,,,,,,,,,,,,,,,,,,,,,,,,,,,,,,,,,,,,,,,,,,,,,,,,,,,,,,,,,,,,,,,,,,,,,1,5.5832,0,5,5,5,1,I would have difficulty just letting my mind wander without control or guidance.,1,6,,
,,,,,,,,,,,,,,,90381,001,2022-04-25_13h29.02.993,SPAMnetsValid,2021.1.4,Win32,26.86438857,,,,,,,,,,,,,,,,,,,,,,,,,,,,,,,,,,,,,,,,,,,,,,,,,,,,,,,,,,,,,,,,,,,,,,,,,,,,,,1,6.5121,0,6,6,6,1,I seldom notice the moods or feelings that different environments produce.,1,7,,
,,,,,,,,,,,,,,,90381,001,2022-04-25_13h29.02.993,SPAMnetsValid,2021.1.4,Win32,26.86438857,,,,,,,,,,,,,,,,,,,,,,,,,,,,,,,,,,,,,,,,,,,,,,,,,,,,,,,,,,,,,,,,,,,,,,,,,,,,,,5,2.6077,0,7,7,7,1,I experience a wide range of emotions or feelings.,0,8,,
,,,,,,,,,,,,,,,90381,001,2022-04-25_13h29.02.993,SPAMnetsValid,2021.1.4,Win32,26.86438857,,,,,,,,,,,,,,,,,,,,,,,,,,,,,,,,,,,,,,,,,,,,,,,,,,,,,,,,,,,,,,,,,,,,,,,,,,,,,,5,7.3667,0,8,8,8,1,"Sometimes when I am reading poetry or looking at a work of art, I feel a chill or wave of excitement.",0,9,,
,,,,,,,,,,,,,,,90381,001,2022-04-25_13h29.02.993,SPAMnetsValid,2021.1.4,Win32,26.86438857,,,,,,,,,,,,,,,,,,,,,,,,,,,,,,,,,,,,,,,,,,,,,,,,,,,,,,,,,,,,,,,,,,,,,,,,,,,,,,2,7.0183,0,9,9,9,1,I have little interest in speculating on the nature of the universe or the human condition.,1,10,,
,,,,,,,,,,,,,,,90381,001,2022-04-25_13h29.02.993,SPAMnetsValid,2021.1.4,Win32,26.86438857,,,,,,,,,,,,,,,,,,,,,,,,,,,,,,,,,,,,,,,,,,,,,,,,,,,,,,,,,,,,,,,,,,,,,,,,,,,,,,4,2.3276,0,10,10,10,1,I have a lot of intellectual curiosity.,0,11,,
,,,,,,,,,,,,,,,90381,001,2022-04-25_13h29.02.993,SPAMnetsValid,2021.1.4,Win32,26.86438857,,,,,,,,,,,,,,,,,,,,,,,,,,,,,,,,,,,,,,,,,,,,,,,,,,,,,,,,,,,,,,,,,,,,,,,,,,,,,,4,2.5958,0,11,11,11,1,I often enjoy playing with theories or abstract ideas.,0,12,,
,,,,,,,,,,,,,,,90381,001,2022-04-25_13h29.02.993,SPAMnetsValid,2021.1.4,Win32,26.86438857,,,,,,,,,,,,,,,,,,,,,,,,,,,,,,,,,,,,,,,,,,,,,,,,,,,,,,,,,,,,,,,,,,,,,,,,,,,,,,,,,,,,,,,,return,18.7988
