key_resp_3.keys,key_resp_3.rt,slider_2.response,slider_2.rt,rjt_rating,rjt_RT,trials_24.thisRepN,trials_24.thisTrialN,trials_24.thisN,trials_24.thisIndex,trials_24.ran,rjt_order,word1,word2,attention,participant,session,date,expName,psychopyVersion,OS,frameRate,trials_4.thisRepN,trials_4.thisTrialN,trials_4.thisN,trials_4.thisIndex,trials_4.ran,trials_5.thisRepN,trials_5.thisTrialN,trials_5.thisN,trials_5.thisIndex,trials_5.ran,repOne,repTwo,slider.response,slider.rt,trials_22.thisRepN,trials_22.thisTrialN,trials_22.thisN,trials_22.thisIndex,trials_22.ran,trials_99.thisRepN,trials_99.thisTrialN,trials_99.thisN,trials_99.thisIndex,trials_99.ran,slider_extend_2.response,slider_extend_2.rt,trials_6.thisRepN,trials_6.thisTrialN,trials_6.thisN,trials_6.thisIndex,trials_6.ran,vCue2,R1,R2,R3,R4,correct,sliderVocab.response,sliderVocab.rt,trials_7.thisRepN,trials_7.thisTrialN,trials_7.thisN,trials_7.thisIndex,trials_7.ran,VocabCue,VR1,VR2,VR3,VR4,VR5,VocabCorrect,AUT_resp,AUT_label,trials.thisRepN,trials.thisTrialN,trials.thisN,trials.thisIndex,trials.ran,trials_2.thisRepN,trials_2.thisTrialN,trials_2.thisN,trials_2.thisIndex,trials_2.ran,aut_prompt,VF_response,VF_tag,trials_16.thisRepN,trials_16.thisTrialN,trials_16.thisN,trials_16.thisIndex,trials_16.ran,trials_17.thisRepN,trials_17.thisTrialN,trials_17.thisN,trials_17.thisIndex,trials_17.ran,VFcond,open_slider.response,open_slider.rt,trials_3.thisRepN,trials_3.thisTrialN,trials_3.thisN,trials_3.thisIndex,trials_3.ran,OpenQ,Rev,OPEN_ORDER,key_resp_2.keys,key_resp_2.rt
return,9.344,2,6.4857,2,6.4857,0,0,0,18,1,119,strawberry,tree,,90403,001,2022-04-21_17h25.03.718,SPAMnetsValid,2021.1.4,MacIntel,60.04202942,,,,,,,,,,,,,,,,,,,,,,,,,,,,,,,,,,,,,,,,,,,,,,,,,,,,,,,,,,,,,,,,,,,,,,,,,,,,,,,,,,,,,,,,,
,,3,5.9648,3,5.9648,0,1,1,89,1,140,cookie,refrigerator,,90403,001,2022-04-21_17h25.03.718,SPAMnetsValid,2021.1.4,MacIntel,60.04202942,,,,,,,,,,,,,,,,,,,,,,,,,,,,,,,,,,,,,,,,,,,,,,,,,,,,,,,,,,,,,,,,,,,,,,,,,,,,,,,,,,,,,,,,,
,,1,2.5042,1,2.5042,0,2,2,71,1,187,cactus,microwave,,90403,001,2022-04-21_17h25.03.718,SPAMnetsValid,2021.1.4,MacIntel,60.04202942,,,,,,,,,,,,,,,,,,,,,,,,,,,,,,,,,,,,,,,,,,,,,,,,,,,,,,,,,,,,,,,,,,,,,,,,,,,,,,,,,,,,,,,,,
,,3,3.6902,3,3.6902,0,3,3,30,1,125,carrot,tree,,90403,001,2022-04-21_17h25.03.718,SPAMnetsValid,2021.1.4,MacIntel,60.04202942,,,,,,,,,,,,,,,,,,,,,,,,,,,,,,,,,,,,,,,,,,,,,,,,,,,,,,,,,,,,,,,,,,,,,,,,,,,,,,,,,,,,,,,,,
,,7,5.0051,7,5.0051,0,4,4,29,1,163,melon,refrigerator,,90403,001,2022-04-21_17h25.03.718,SPAMnetsValid,2021.1.4,MacIntel,60.04202942,,,,,,,,,,,,,,,,,,,,,,,,,,,,,,,,,,,,,,,,,,,,,,,,,,,,,,,,,,,,,,,,,,,,,,,,,,,,,,,,,,,,,,,,,
,,7,1.8426,7,1.8426,0,5,5,37,1,139,carrot,strawberry,,90403,001,2022-04-21_17h25.03.718,SPAMnetsValid,2021.1.4,MacIntel,60.04202942,,,,,,,,,,,,,,,,,,,,,,,,,,,,,,,,,,,,,,,,,,,,,,,,,,,,,,,,,,,,,,,,,,,,,,,,,,,,,,,,,,,,,,,,,
,,6,1.7764,6,1.7764,0,6,6,79,1,103,pretzel,tomato,,90403,001,2022-04-21_17h25.03.718,SPAMnetsValid,2021.1.4,MacIntel,60.04202942,,,,,,,,,,,,,,,,,,,,,,,,,,,,,,,,,,,,,,,,,,,,,,,,,,,,,,,,,,,,,,,,,,,,,,,,,,,,,,,,,,,,,,,,,
,,2,2.7648,2,2.7648,0,7,7,81,1,104,garden,microwave,,90403,001,2022-04-21_17h25.03.718,SPAMnetsValid,2021.1.4,MacIntel,60.04202942,,,,,,,,,,,,,,,,,,,,,,,,,,,,,,,,,,,,,,,,,,,,,,,,,,,,,,,,,,,,,,,,,,,,,,,,,,,,,,,,,,,,,,,,,
,,9,1.7297,9,1.7297,0,8,8,47,1,167,carrot,garden,,90403,001,2022-04-21_17h25.03.718,SPAMnetsValid,2021.1.4,MacIntel,60.04202942,,,,,,,,,,,,,,,,,,,,,,,,,,,,,,,,,,,,,,,,,,,,,,,,,,,,,,,,,,,,,,,,,,,,,,,,,,,,,,,,,,,,,,,,,
,,3,2.2088,3,2.2088,0,9,9,57,1,127,cactus,chocolate,,90403,001,2022-04-21_17h25.03.718,SPAMnetsValid,2021.1.4,MacIntel,60.04202942,,,,,,,,,,,,,,,,,,,,,,,,,,,,,,,,,,,,,,,,,,,,,,,,,,,,,,,,,,,,,,,,,,,,,,,,,,,,,,,,,,,,,,,,,
,,6,2.2895,6,2.2895,0,10,10,92,1,170,cookie,microwave,,90403,001,2022-04-21_17h25.03.718,SPAMnetsValid,2021.1.4,MacIntel,60.04202942,,,,,,,,,,,,,,,,,,,,,,,,,,,,,,,,,,,,,,,,,,,,,,,,,,,,,,,,,,,,,,,,,,,,,,,,,,,,,,,,,,,,,,,,,
,,4,1.8046,4,1.8046,0,11,11,19,1,183,cake,rose,,90403,001,2022-04-21_17h25.03.718,SPAMnetsValid,2021.1.4,MacIntel,60.04202942,,,,,,,,,,,,,,,,,,,,,,,,,,,,,,,,,,,,,,,,,,,,,,,,,,,,,,,,,,,,,,,,,,,,,,,,,,,,,,,,,,,,,,,,,
,,9,1.8736,9,1.8736,0,12,12,66,1,150,microwave,refrigerator,,90403,001,2022-04-21_17h25.03.718,SPAMnetsValid,2021.1.4,MacIntel,60.04202942,,,,,,,,,,,,,,,,,,,,,,,,,,,,,,,,,,,,,,,,,,,,,,,,,,,,,,,,,,,,,,,,,,,,,,,,,,,,,,,,,,,,,,,,,
,,9,8.2026,9,8.2026,0,13,13,7,1,188,flower,tree,,90403,001,2022-04-21_17h25.03.718,SPAMnetsValid,2021.1.4,MacIntel,60.04202942,,,,,,,,,,,,,,,,,,,,,,,,,,,,,,,,,,,,,,,,,,,,,,,,,,,,,,,,,,,,,,,,,,,,,,,,,,,,,,,,,,,,,,,,,
,,8,1.9596,8,1.9596,0,14,14,77,1,172,kitchen,melon,,90403,001,2022-04-21_17h25.03.718,SPAMnetsValid,2021.1.4,MacIntel,60.04202942,,,,,,,,,,,,,,,,,,,,,,,,,,,,,,,,,,,,,,,,,,,,,,,,,,,,,,,,,,,,,,,,,,,,,,,,,,,,,,,,,,,,,,,,,
,,1,1.6458,1,1.6458,0,15,15,12,1,162,microwave,tomato,,90403,001,2022-04-21_17h25.03.718,SPAMnetsValid,2021.1.4,MacIntel,60.04202942,,,,,,,,,,,,,,,,,,,,,,,,,,,,,,,,,,,,,,,,,,,,,,,,,,,,,,,,,,,,,,,,,,,,,,,,,,,,,,,,,,,,,,,,,
,,2,1.3128,2,1.3128,0,16,16,80,1,146,pretzel,tree,,90403,001,2022-04-21_17h25.03.718,SPAMnetsValid,2021.1.4,MacIntel,60.04202942,,,,,,,,,,,,,,,,,,,,,,,,,,,,,,,,,,,,,,,,,,,,,,,,,,,,,,,,,,,,,,,,,,,,,,,,,,,,,,,,,,,,,,,,,
,,1,1.3116,1,1.3116,0,17,17,90,1,190,microwave,strawberry,,90403,001,2022-04-21_17h25.03.718,SPAMnetsValid,2021.1.4,MacIntel,60.04202942,,,,,,,,,,,,,,,,,,,,,,,,,,,,,,,,,,,,,,,,,,,,,,,,,,,,,,,,,,,,,,,,,,,,,,,,,,,,,,,,,,,,,,,,,
,,7,8.3186,7,8.3186,0,18,18,22,1,142,garden,tree,,90403,001,2022-04-21_17h25.03.718,SPAMnetsValid,2021.1.4,MacIntel,60.04202942,,,,,,,,,,,,,,,,,,,,,,,,,,,,,,,,,,,,,,,,,,,,,,,,,,,,,,,,,,,,,,,,,,,,,,,,,,,,,,,,,,,,,,,,,
,,1,2.0064,1,2.0064,0,19,19,54,1,101,cactus,kitchen,,90403,001,2022-04-21_17h25.03.718,SPAMnetsValid,2021.1.4,MacIntel,60.04202942,,,,,,,,,,,,,,,,,,,,,,,,,,,,,,,,,,,,,,,,,,,,,,,,,,,,,,,,,,,,,,,,,,,,,,,,,,,,,,,,,,,,,,,,,
,,9,3.1082,9,3.1082,0,20,20,17,1,99,garden,melon,,90403,001,2022-04-21_17h25.03.718,SPAMnetsValid,2021.1.4,MacIntel,60.04202942,,,,,,,,,,,,,,,,,,,,,,,,,,,,,,,,,,,,,,,,,,,,,,,,,,,,,,,,,,,,,,,,,,,,,,,,,,,,,,,,,,,,,,,,,
,,2,12.3561,2,12.3561,0,21,21,34,1,153,carrot,pretzel,,90403,001,2022-04-21_17h25.03.718,SPAMnetsValid,2021.1.4,MacIntel,60.04202942,,,,,,,,,,,,,,,,,,,,,,,,,,,,,,,,,,,,,,,,,,,,,,,,,,,,,,,,,,,,,,,,,,,,,,,,,,,,,,,,,,,,,,,,,
,,8,1.8705,8,1.8705,0,22,22,72,1,181,carrot,kitchen,,90403,001,2022-04-21_17h25.03.718,SPAMnetsValid,2021.1.4,MacIntel,60.04202942,,,,,,,,,,,,,,,,,,,,,,,,,,,,,,,,,,,,,,,,,,,,,,,,,,,,,,,,,,,,,,,,,,,,,,,,,,,,,,,,,,,,,,,,,
,,1,9.0846,1,9.0846,0,23,23,58,1,144,cake,garden,,90403,001,2022-04-21_17h25.03.718,SPAMnetsValid,2021.1.4,MacIntel,60.04202942,,,,,,,,,,,,,,,,,,,,,,,,,,,,,,,,,,,,,,,,,,,,,,,,,,,,,,,,,,,,,,,,,,,,,,,,,,,,,,,,,,,,,,,,,
,,9,1.6059,9,1.6059,0,24,24,70,1,141,melon,tomato,,90403,001,2022-04-21_17h25.03.718,SPAMnetsValid,2021.1.4,MacIntel,60.04202942,,,,,,,,,,,,,,,,,,,,,,,,,,,,,,,,,,,,,,,,,,,,,,,,,,,,,,,,,,,,,,,,,,,,,,,,,,,,,,,,,,,,,,,,,
,,9,1.2085,9,1.2085,0,25,25,11,1,117,melon,strawberry,,90403,001,2022-04-21_17h25.03.718,SPAMnetsValid,2021.1.4,MacIntel,60.04202942,,,,,,,,,,,,,,,,,,,,,,,,,,,,,,,,,,,,,,,,,,,,,,,,,,,,,,,,,,,,,,,,,,,,,,,,,,,,,,,,,,,,,,,,,
,,7,2.7591,7,2.7591,0,26,26,38,1,155,carrot,cookie,,90403,001,2022-04-21_17h25.03.718,SPAMnetsValid,2021.1.4,MacIntel,60.04202942,,,,,,,,,,,,,,,,,,,,,,,,,,,,,,,,,,,,,,,,,,,,,,,,,,,,,,,,,,,,,,,,,,,,,,,,,,,,,,,,,,,,,,,,,
,,2,2.9136,2,2.9136,0,27,27,15,1,145,cactus,yogurt,,90403,001,2022-04-21_17h25.03.718,SPAMnetsValid,2021.1.4,MacIntel,60.04202942,,,,,,,,,,,,,,,,,,,,,,,,,,,,,,,,,,,,,,,,,,,,,,,,,,,,,,,,,,,,,,,,,,,,,,,,,,,,,,,,,,,,,,,,,
,,9,1.2805,9,1.2805,0,28,28,44,1,116,cake,chocolate,,90403,001,2022-04-21_17h25.03.718,SPAMnetsValid,2021.1.4,MacIntel,60.04202942,,,,,,,,,,,,,,,,,,,,,,,,,,,,,,,,,,,,,,,,,,,,,,,,,,,,,,,,,,,,,,,,,,,,,,,,,,,,,,,,,,,,,,,,,
,,6,1.7555,6,1.7555,0,29,29,82,1,98,pretzel,strawberry,,90403,001,2022-04-21_17h25.03.718,SPAMnetsValid,2021.1.4,MacIntel,60.04202942,,,,,,,,,,,,,,,,,,,,,,,,,,,,,,,,,,,,,,,,,,,,,,,,,,,,,,,,,,,,,,,,,,,,,,,,,,,,,,,,,,,,,,,,,
,,9,1.7875,9,1.7875,0,30,30,65,1,160,cookie,kitchen,,90403,001,2022-04-21_17h25.03.718,SPAMnetsValid,2021.1.4,MacIntel,60.04202942,,,,,,,,,,,,,,,,,,,,,,,,,,,,,,,,,,,,,,,,,,,,,,,,,,,,,,,,,,,,,,,,,,,,,,,,,,,,,,,,,,,,,,,,,
,,6,1.739,6,1.739,0,31,31,23,1,148,flower,melon,,90403,001,2022-04-21_17h25.03.718,SPAMnetsValid,2021.1.4,MacIntel,60.04202942,,,,,,,,,,,,,,,,,,,,,,,,,,,,,,,,,,,,,,,,,,,,,,,,,,,,,,,,,,,,,,,,,,,,,,,,,,,,,,,,,,,,,,,,,
,,9,1.5217,9,1.5217,0,32,32,14,1,120,microwave,oven,,90403,001,2022-04-21_17h25.03.718,SPAMnetsValid,2021.1.4,MacIntel,60.04202942,,,,,,,,,,,,,,,,,,,,,,,,,,,,,,,,,,,,,,,,,,,,,,,,,,,,,,,,,,,,,,,,,,,,,,,,,,,,,,,,,,,,,,,,,
,,8,2.2053,8,2.2053,0,33,33,56,1,113,refrigerator,strawberry,,90403,001,2022-04-21_17h25.03.718,SPAMnetsValid,2021.1.4,MacIntel,60.04202942,,,,,,,,,,,,,,,,,,,,,,,,,,,,,,,,,,,,,,,,,,,,,,,,,,,,,,,,,,,,,,,,,,,,,,,,,,,,,,,,,,,,,,,,,
,,9,2.241,9,2.241,0,34,34,0,1,106,cake,strawberry,,90403,001,2022-04-21_17h25.03.718,SPAMnetsValid,2021.1.4,MacIntel,60.04202942,,,,,,,,,,,,,,,,,,,,,,,,,,,,,,,,,,,,,,,,,,,,,,,,,,,,,,,,,,,,,,,,,,,,,,,,,,,,,,,,,,,,,,,,,
,,8,1.4428,8,1.4428,0,35,35,85,1,115,refrigerator,tomato,,90403,001,2022-04-21_17h25.03.718,SPAMnetsValid,2021.1.4,MacIntel,60.04202942,,,,,,,,,,,,,,,,,,,,,,,,,,,,,,,,,,,,,,,,,,,,,,,,,,,,,,,,,,,,,,,,,,,,,,,,,,,,,,,,,,,,,,,,,
,,6,1.4573,6,1.4573,0,36,36,24,1,169,onion,yogurt,,90403,001,2022-04-21_17h25.03.718,SPAMnetsValid,2021.1.4,MacIntel,60.04202942,,,,,,,,,,,,,,,,,,,,,,,,,,,,,,,,,,,,,,,,,,,,,,,,,,,,,,,,,,,,,,,,,,,,,,,,,,,,,,,,,,,,,,,,,
,,4,1.3441,4,1.3441,0,37,37,40,1,165,onion,rose,,90403,001,2022-04-21_17h25.03.718,SPAMnetsValid,2021.1.4,MacIntel,60.04202942,,,,,,,,,,,,,,,,,,,,,,,,,,,,,,,,,,,,,,,,,,,,,,,,,,,,,,,,,,,,,,,,,,,,,,,,,,,,,,,,,,,,,,,,,
,,3,1.6276,3,1.6276,0,38,38,42,1,184,oven,pretzel,,90403,001,2022-04-21_17h25.03.718,SPAMnetsValid,2021.1.4,MacIntel,60.04202942,,,,,,,,,,,,,,,,,,,,,,,,,,,,,,,,,,,,,,,,,,,,,,,,,,,,,,,,,,,,,,,,,,,,,,,,,,,,,,,,,,,,,,,,,
,,2,1.5617,2,1.5617,0,39,39,67,1,96,oven,strawberry,,90403,001,2022-04-21_17h25.03.718,SPAMnetsValid,2021.1.4,MacIntel,60.04202942,,,,,,,,,,,,,,,,,,,,,,,,,,,,,,,,,,,,,,,,,,,,,,,,,,,,,,,,,,,,,,,,,,,,,,,,,,,,,,,,,,,,,,,,,
,,9,1.5968,9,1.5968,0,40,40,52,1,110,chocolate,cookie,,90403,001,2022-04-21_17h25.03.718,SPAMnetsValid,2021.1.4,MacIntel,60.04202942,,,,,,,,,,,,,,,,,,,,,,,,,,,,,,,,,,,,,,,,,,,,,,,,,,,,,,,,,,,,,,,,,,,,,,,,,,,,,,,,,,,,,,,,,
,,3,20.8772,3,20.8772,0,41,41,62,1,189,onion,tree,,90403,001,2022-04-21_17h25.03.718,SPAMnetsValid,2021.1.4,MacIntel,60.04202942,,,,,,,,,,,,,,,,,,,,,,,,,,,,,,,,,,,,,,,,,,,,,,,,,,,,,,,,,,,,,,,,,,,,,,,,,,,,,,,,,,,,,,,,,
,,2,4.4058,2,4.4058,0,42,42,9,1,176,cactus,tomato,,90403,001,2022-04-21_17h25.03.718,SPAMnetsValid,2021.1.4,MacIntel,60.04202942,,,,,,,,,,,,,,,,,,,,,,,,,,,,,,,,,,,,,,,,,,,,,,,,,,,,,,,,,,,,,,,,,,,,,,,,,,,,,,,,,,,,,,,,,
,,2,3.7229,2,3.7229,0,43,43,32,1,182,flower,refrigerator,,90403,001,2022-04-21_17h25.03.718,SPAMnetsValid,2021.1.4,MacIntel,60.04202942,,,,,,,,,,,,,,,,,,,,,,,,,,,,,,,,,,,,,,,,,,,,,,,,,,,,,,,,,,,,,,,,,,,,,,,,,,,,,,,,,,,,,,,,,
,,2,1.3749,2,1.3749,0,44,44,96,1,136,chocolate,microwave,,90403,001,2022-04-21_17h25.03.718,SPAMnetsValid,2021.1.4,MacIntel,60.04202942,,,,,,,,,,,,,,,,,,,,,,,,,,,,,,,,,,,,,,,,,,,,,,,,,,,,,,,,,,,,,,,,,,,,,,,,,,,,,,,,,,,,,,,,,
,,3,1.3752,3,1.3752,0,45,45,55,1,143,pretzel,rose,,90403,001,2022-04-21_17h25.03.718,SPAMnetsValid,2021.1.4,MacIntel,60.04202942,,,,,,,,,,,,,,,,,,,,,,,,,,,,,,,,,,,,,,,,,,,,,,,,,,,,,,,,,,,,,,,,,,,,,,,,,,,,,,,,,,,,,,,,,
,,6,3.5106,6,3.5106,0,46,46,41,1,175,melon,onion,,90403,001,2022-04-21_17h25.03.718,SPAMnetsValid,2021.1.4,MacIntel,60.04202942,,,,,,,,,,,,,,,,,,,,,,,,,,,,,,,,,,,,,,,,,,,,,,,,,,,,,,,,,,,,,,,,,,,,,,,,,,,,,,,,,,,,,,,,,
,,2,1.3626,2,1.3626,0,47,47,76,1,102,chocolate,refrigerator,,90403,001,2022-04-21_17h25.03.718,SPAMnetsValid,2021.1.4,MacIntel,60.04202942,,,,,,,,,,,,,,,,,,,,,,,,,,,,,,,,,,,,,,,,,,,,,,,,,,,,,,,,,,,,,,,,,,,,,,,,,,,,,,,,,,,,,,,,,
,,1,1.5138,1,1.5138,0,48,48,73,1,135,carrot,oven,,90403,001,2022-04-21_17h25.03.718,SPAMnetsValid,2021.1.4,MacIntel,60.04202942,,,,,,,,,,,,,,,,,,,,,,,,,,,,,,,,,,,,,,,,,,,,,,,,,,,,,,,,,,,,,,,,,,,,,,,,,,,,,,,,,,,,,,,,,
,,6,1.9384,6,1.9384,0,49,49,2,1,174,cake,pretzel,,90403,001,2022-04-21_17h25.03.718,SPAMnetsValid,2021.1.4,MacIntel,60.04202942,,,,,,,,,,,,,,,,,,,,,,,,,,,,,,,,,,,,,,,,,,,,,,,,,,,,,,,,,,,,,,,,,,,,,,,,,,,,,,,,,,,,,,,,,
,,7,29.8596,7,29.8596,0,50,50,48,1,186,kitchen,yogurt,,90403,001,2022-04-21_17h25.03.718,SPAMnetsValid,2021.1.4,MacIntel,60.04202942,,,,,,,,,,,,,,,,,,,,,,,,,,,,,,,,,,,,,,,,,,,,,,,,,,,,,,,,,,,,,,,,,,,,,,,,,,,,,,,,,,,,,,,,,
,,7,3.1097,7,3.1097,0,51,51,87,1,114,cookie,strawberry,,90403,001,2022-04-21_17h25.03.718,SPAMnetsValid,2021.1.4,MacIntel,60.04202942,,,,,,,,,,,,,,,,,,,,,,,,,,,,,,,,,,,,,,,,,,,,,,,,,,,,,,,,,,,,,,,,,,,,,,,,,,,,,,,,,,,,,,,,,
,,2,1.2966,2,1.2966,0,52,52,45,1,179,broom,oven,,90403,001,2022-04-21_17h25.03.718,SPAMnetsValid,2021.1.4,MacIntel,60.04202942,,,,,,,,,,,,,,,,,,,,,,,,,,,,,,,,,,,,,,,,,,,,,,,,,,,,,,,,,,,,,,,,,,,,,,,,,,,,,,,,,,,,,,,,,
,,3,1.2542,3,1.2542,0,53,53,50,1,126,kitchen,tree,,90403,001,2022-04-21_17h25.03.718,SPAMnetsValid,2021.1.4,MacIntel,60.04202942,,,,,,,,,,,,,,,,,,,,,,,,,,,,,,,,,,,,,,,,,,,,,,,,,,,,,,,,,,,,,,,,,,,,,,,,,,,,,,,,,,,,,,,,,
,,9,1.3889,9,1.3889,0,54,54,83,1,100,garden,tomato,,90403,001,2022-04-21_17h25.03.718,SPAMnetsValid,2021.1.4,MacIntel,60.04202942,,,,,,,,,,,,,,,,,,,,,,,,,,,,,,,,,,,,,,,,,,,,,,,,,,,,,,,,,,,,,,,,,,,,,,,,,,,,,,,,,,,,,,,,,
,,4,1.7553,4,1.7553,0,55,55,49,1,152,cactus,strawberry,,90403,001,2022-04-21_17h25.03.718,SPAMnetsValid,2021.1.4,MacIntel,60.04202942,,,,,,,,,,,,,,,,,,,,,,,,,,,,,,,,,,,,,,,,,,,,,,,,,,,,,,,,,,,,,,,,,,,,,,,,,,,,,,,,,,,,,,,,,
,,3,5.7715,3,5.7715,0,56,56,95,1,121,broom,microwave,,90403,001,2022-04-21_17h25.03.718,SPAMnetsValid,2021.1.4,MacIntel,60.04202942,,,,,,,,,,,,,,,,,,,,,,,,,,,,,,,,,,,,,,,,,,,,,,,,,,,,,,,,,,,,,,,,,,,,,,,,,,,,,,,,,,,,,,,,,
,,6,1.3584,6,1.3584,0,57,57,8,1,97,chocolate,kitchen,,90403,001,2022-04-21_17h25.03.718,SPAMnetsValid,2021.1.4,MacIntel,60.04202942,,,,,,,,,,,,,,,,,,,,,,,,,,,,,,,,,,,,,,,,,,,,,,,,,,,,,,,,,,,,,,,,,,,,,,,,,,,,,,,,,,,,,,,,,
,,6,1.1564,6,1.1564,0,58,58,26,1,107,rose,tomato,,90403,001,2022-04-21_17h25.03.718,SPAMnetsValid,2021.1.4,MacIntel,60.04202942,,,,,,,,,,,,,,,,,,,,,,,,,,,,,,,,,,,,,,,,,,,,,,,,,,,,,,,,,,,,,,,,,,,,,,,,,,,,,,,,,,,,,,,,,
,,3,2.9903,3,2.9903,0,59,59,46,1,123,cookie,tree,,90403,001,2022-04-21_17h25.03.718,SPAMnetsValid,2021.1.4,MacIntel,60.04202942,,,,,,,,,,,,,,,,,,,,,,,,,,,,,,,,,,,,,,,,,,,,,,,,,,,,,,,,,,,,,,,,,,,,,,,,,,,,,,,,,,,,,,,,,
,,8,1.6424,8,1.6424,0,60,60,60,1,122,flower,garden,,90403,001,2022-04-21_17h25.03.718,SPAMnetsValid,2021.1.4,MacIntel,60.04202942,,,,,,,,,,,,,,,,,,,,,,,,,,,,,,,,,,,,,,,,,,,,,,,,,,,,,,,,,,,,,,,,,,,,,,,,,,,,,,,,,,,,,,,,,
,,1,1.5104,1,1.5104,0,61,61,21,1,159,cookie,flower,,90403,001,2022-04-21_17h25.03.718,SPAMnetsValid,2021.1.4,MacIntel,60.04202942,,,,,,,,,,,,,,,,,,,,,,,,,,,,,,,,,,,,,,,,,,,,,,,,,,,,,,,,,,,,,,,,,,,,,,,,,,,,,,,,,,,,,,,,,
,,3,1.7122,3,1.7122,0,62,62,78,1,132,broom,tree,,90403,001,2022-04-21_17h25.03.718,SPAMnetsValid,2021.1.4,MacIntel,60.04202942,,,,,,,,,,,,,,,,,,,,,,,,,,,,,,,,,,,,,,,,,,,,,,,,,,,,,,,,,,,,,,,,,,,,,,,,,,,,,,,,,,,,,,,,,
,,6,1.9495,6,1.9495,0,63,63,75,1,178,cactus,carrot,,90403,001,2022-04-21_17h25.03.718,SPAMnetsValid,2021.1.4,MacIntel,60.04202942,,,,,,,,,,,,,,,,,,,,,,,,,,,,,,,,,,,,,,,,,,,,,,,,,,,,,,,,,,,,,,,,,,,,,,,,,,,,,,,,,,,,,,,,,
,,2,1.4531,2,1.4531,0,64,64,74,1,128,melon,microwave,,90403,001,2022-04-21_17h25.03.718,SPAMnetsValid,2021.1.4,MacIntel,60.04202942,,,,,,,,,,,,,,,,,,,,,,,,,,,,,,,,,,,,,,,,,,,,,,,,,,,,,,,,,,,,,,,,,,,,,,,,,,,,,,,,,,,,,,,,,
,,9,2.7015,9,2.7015,0,65,65,25,1,194,cactus,cactus,CHECK,90403,001,2022-04-21_17h25.03.718,SPAMnetsValid,2021.1.4,MacIntel,60.04202942,,,,,,,,,,,,,,,,,,,,,,,,,,,,,,,,,,,,,,,,,,,,,,,,,,,,,,,,,,,,,,,,,,,,,,,,,,,,,,,,,,,,,,,,,
,,6,1.9221,6,1.9221,0,66,66,5,1,108,carrot,chocolate,,90403,001,2022-04-21_17h25.03.718,SPAMnetsValid,2021.1.4,MacIntel,60.04202942,,,,,,,,,,,,,,,,,,,,,,,,,,,,,,,,,,,,,,,,,,,,,,,,,,,,,,,,,,,,,,,,,,,,,,,,,,,,,,,,,,,,,,,,,
,,9,1.023,9,1.023,0,67,67,86,1,193,melon,melon,CHECK,90403,001,2022-04-21_17h25.03.718,SPAMnetsValid,2021.1.4,MacIntel,60.04202942,,,,,,,,,,,,,,,,,,,,,,,,,,,,,,,,,,,,,,,,,,,,,,,,,,,,,,,,,,,,,,,,,,,,,,,,,,,,,,,,,,,,,,,,,
,,4,1.3564,4,1.3564,0,68,68,6,1,151,microwave,onion,,90403,001,2022-04-21_17h25.03.718,SPAMnetsValid,2021.1.4,MacIntel,60.04202942,,,,,,,,,,,,,,,,,,,,,,,,,,,,,,,,,,,,,,,,,,,,,,,,,,,,,,,,,,,,,,,,,,,,,,,,,,,,,,,,,,,,,,,,,
,,3,1.7887,3,1.7887,0,69,69,64,1,157,refrigerator,rose,,90403,001,2022-04-21_17h25.03.718,SPAMnetsValid,2021.1.4,MacIntel,60.04202942,,,,,,,,,,,,,,,,,,,,,,,,,,,,,,,,,,,,,,,,,,,,,,,,,,,,,,,,,,,,,,,,,,,,,,,,,,,,,,,,,,,,,,,,,
,,9,1.8229,9,1.8229,0,70,70,61,1,138,flower,rose,,90403,001,2022-04-21_17h25.03.718,SPAMnetsValid,2021.1.4,MacIntel,60.04202942,,,,,,,,,,,,,,,,,,,,,,,,,,,,,,,,,,,,,,,,,,,,,,,,,,,,,,,,,,,,,,,,,,,,,,,,,,,,,,,,,,,,,,,,,
,,2,8.1237,2,8.1237,0,71,71,20,1,149,broom,tomato,,90403,001,2022-04-21_17h25.03.718,SPAMnetsValid,2021.1.4,MacIntel,60.04202942,,,,,,,,,,,,,,,,,,,,,,,,,,,,,,,,,,,,,,,,,,,,,,,,,,,,,,,,,,,,,,,,,,,,,,,,,,,,,,,,,,,,,,,,,
,,8,1.9463,8,1.9463,0,72,72,28,1,154,strawberry,yogurt,,90403,001,2022-04-21_17h25.03.718,SPAMnetsValid,2021.1.4,MacIntel,60.04202942,,,,,,,,,,,,,,,,,,,,,,,,,,,,,,,,,,,,,,,,,,,,,,,,,,,,,,,,,,,,,,,,,,,,,,,,,,,,,,,,,,,,,,,,,
,,2,1.3711,2,1.3711,0,73,73,39,1,112,cake,carrot,,90403,001,2022-04-21_17h25.03.718,SPAMnetsValid,2021.1.4,MacIntel,60.04202942,,,,,,,,,,,,,,,,,,,,,,,,,,,,,,,,,,,,,,,,,,,,,,,,,,,,,,,,,,,,,,,,,,,,,,,,,,,,,,,,,,,,,,,,,
,,7,1.487,7,1.487,0,74,74,69,1,124,oven,refrigerator,,90403,001,2022-04-21_17h25.03.718,SPAMnetsValid,2021.1.4,MacIntel,60.04202942,,,,,,,,,,,,,,,,,,,,,,,,,,,,,,,,,,,,,,,,,,,,,,,,,,,,,,,,,,,,,,,,,,,,,,,,,,,,,,,,,,,,,,,,,
,,3,6.6406,3,6.6406,0,75,75,13,1,105,cactus,oven,,90403,001,2022-04-21_17h25.03.718,SPAMnetsValid,2021.1.4,MacIntel,60.04202942,,,,,,,,,,,,,,,,,,,,,,,,,,,,,,,,,,,,,,,,,,,,,,,,,,,,,,,,,,,,,,,,,,,,,,,,,,,,,,,,,,,,,,,,,
,,3,3.6753,3,3.6753,0,76,76,68,1,180,tree,yogurt,,90403,001,2022-04-21_17h25.03.718,SPAMnetsValid,2021.1.4,MacIntel,60.04202942,,,,,,,,,,,,,,,,,,,,,,,,,,,,,,,,,,,,,,,,,,,,,,,,,,,,,,,,,,,,,,,,,,,,,,,,,,,,,,,,,,,,,,,,,
,,4,8.9856,4,8.9856,0,77,77,94,1,133,cake,flower,,90403,001,2022-04-21_17h25.03.718,SPAMnetsValid,2021.1.4,MacIntel,60.04202942,,,,,,,,,,,,,,,,,,,,,,,,,,,,,,,,,,,,,,,,,,,,,,,,,,,,,,,,,,,,,,,,,,,,,,,,,,,,,,,,,,,,,,,,,
,,7,1.5939,7,1.5939,0,78,78,36,1,161,kitchen,pretzel,,90403,001,2022-04-21_17h25.03.718,SPAMnetsValid,2021.1.4,MacIntel,60.04202942,,,,,,,,,,,,,,,,,,,,,,,,,,,,,,,,,,,,,,,,,,,,,,,,,,,,,,,,,,,,,,,,,,,,,,,,,,,,,,,,,,,,,,,,,
,,9,5.7065,9,5.7065,0,79,79,35,1,147,cake,refrigerator,,90403,001,2022-04-21_17h25.03.718,SPAMnetsValid,2021.1.4,MacIntel,60.04202942,,,,,,,,,,,,,,,,,,,,,,,,,,,,,,,,,,,,,,,,,,,,,,,,,,,,,,,,,,,,,,,,,,,,,,,,,,,,,,,,,,,,,,,,,
,,8,7.7075,8,7.7075,0,80,80,10,1,118,chocolate,oven,,90403,001,2022-04-21_17h25.03.718,SPAMnetsValid,2021.1.4,MacIntel,60.04202942,,,,,,,,,,,,,,,,,,,,,,,,,,,,,,,,,,,,,,,,,,,,,,,,,,,,,,,,,,,,,,,,,,,,,,,,,,,,,,,,,,,,,,,,,
,,7,31.6132,7,31.6132,0,81,81,27,1,158,cookie,oven,,90403,001,2022-04-21_17h25.03.718,SPAMnetsValid,2021.1.4,MacIntel,60.04202942,,,,,,,,,,,,,,,,,,,,,,,,,,,,,,,,,,,,,,,,,,,,,,,,,,,,,,,,,,,,,,,,,,,,,,,,,,,,,,,,,,,,,,,,,
,,4,17.9836,4,17.9836,0,82,82,3,1,129,cactus,refrigerator,,90403,001,2022-04-21_17h25.03.718,SPAMnetsValid,2021.1.4,MacIntel,60.04202942,,,,,,,,,,,,,,,,,,,,,,,,,,,,,,,,,,,,,,,,,,,,,,,,,,,,,,,,,,,,,,,,,,,,,,,,,,,,,,,,,,,,,,,,,
,,3,1.5094,3,1.5094,0,83,83,93,1,134,carrot,flower,,90403,001,2022-04-21_17h25.03.718,SPAMnetsValid,2021.1.4,MacIntel,60.04202942,,,,,,,,,,,,,,,,,,,,,,,,,,,,,,,,,,,,,,,,,,,,,,,,,,,,,,,,,,,,,,,,,,,,,,,,,,,,,,,,,,,,,,,,,
,,8,2.5789,8,2.5789,0,84,84,53,1,177,chocolate,strawberry,,90403,001,2022-04-21_17h25.03.718,SPAMnetsValid,2021.1.4,MacIntel,60.04202942,,,,,,,,,,,,,,,,,,,,,,,,,,,,,,,,,,,,,,,,,,,,,,,,,,,,,,,,,,,,,,,,,,,,,,,,,,,,,,,,,,,,,,,,,
,,3,1.4296,3,1.4296,0,85,85,59,1,164,cookie,garden,,90403,001,2022-04-21_17h25.03.718,SPAMnetsValid,2021.1.4,MacIntel,60.04202942,,,,,,,,,,,,,,,,,,,,,,,,,,,,,,,,,,,,,,,,,,,,,,,,,,,,,,,,,,,,,,,,,,,,,,,,,,,,,,,,,,,,,,,,,
,,3,1.5043,3,1.5043,0,86,86,31,1,156,melon,rose,,90403,001,2022-04-21_17h25.03.718,SPAMnetsValid,2021.1.4,MacIntel,60.04202942,,,,,,,,,,,,,,,,,,,,,,,,,,,,,,,,,,,,,,,,,,,,,,,,,,,,,,,,,,,,,,,,,,,,,,,,,,,,,,,,,,,,,,,,,
,,7,1.373,7,1.373,0,87,87,88,1,171,cake,tomato,,90403,001,2022-04-21_17h25.03.718,SPAMnetsValid,2021.1.4,MacIntel,60.04202942,,,,,,,,,,,,,,,,,,,,,,,,,,,,,,,,,,,,,,,,,,,,,,,,,,,,,,,,,,,,,,,,,,,,,,,,,,,,,,,,,,,,,,,,,
,,4,1.3726,4,1.3726,0,88,88,43,1,185,cactus,rose,,90403,001,2022-04-21_17h25.03.718,SPAMnetsValid,2021.1.4,MacIntel,60.04202942,,,,,,,,,,,,,,,,,,,,,,,,,,,,,,,,,,,,,,,,,,,,,,,,,,,,,,,,,,,,,,,,,,,,,,,,,,,,,,,,,,,,,,,,,
,,6,0.8564,6,0.8564,0,89,89,91,1,166,cake,yogurt,,90403,001,2022-04-21_17h25.03.718,SPAMnetsValid,2021.1.4,MacIntel,60.04202942,,,,,,,,,,,,,,,,,,,,,,,,,,,,,,,,,,,,,,,,,,,,,,,,,,,,,,,,,,,,,,,,,,,,,,,,,,,,,,,,,,,,,,,,,
,,4,0.8739,4,0.8739,0,90,90,16,1,111,carrot,microwave,,90403,001,2022-04-21_17h25.03.718,SPAMnetsValid,2021.1.4,MacIntel,60.04202942,,,,,,,,,,,,,,,,,,,,,,,,,,,,,,,,,,,,,,,,,,,,,,,,,,,,,,,,,,,,,,,,,,,,,,,,,,,,,,,,,,,,,,,,,
,,9,2.1907,9,2.1907,0,91,91,51,1,168,cactus,flower,,90403,001,2022-04-21_17h25.03.718,SPAMnetsValid,2021.1.4,MacIntel,60.04202942,,,,,,,,,,,,,,,,,,,,,,,,,,,,,,,,,,,,,,,,,,,,,,,,,,,,,,,,,,,,,,,,,,,,,,,,,,,,,,,,,,,,,,,,,
,,2,1.3278,2,1.3278,0,92,92,4,1,109,broom,strawberry,,90403,001,2022-04-21_17h25.03.718,SPAMnetsValid,2021.1.4,MacIntel,60.04202942,,,,,,,,,,,,,,,,,,,,,,,,,,,,,,,,,,,,,,,,,,,,,,,,,,,,,,,,,,,,,,,,,,,,,,,,,,,,,,,,,,,,,,,,,
,,3,2.0253,3,2.0253,0,93,93,84,1,130,microwave,yogurt,,90403,001,2022-04-21_17h25.03.718,SPAMnetsValid,2021.1.4,MacIntel,60.04202942,,,,,,,,,,,,,,,,,,,,,,,,,,,,,,,,,,,,,,,,,,,,,,,,,,,,,,,,,,,,,,,,,,,,,,,,,,,,,,,,,,,,,,,,,
,,1,1.8952,1,1.8952,0,94,94,63,1,137,microwave,tree,,90403,001,2022-04-21_17h25.03.718,SPAMnetsValid,2021.1.4,MacIntel,60.04202942,,,,,,,,,,,,,,,,,,,,,,,,,,,,,,,,,,,,,,,,,,,,,,,,,,,,,,,,,,,,,,,,,,,,,,,,,,,,,,,,,,,,,,,,,
,,7,5.2856,7,5.2856,0,95,95,1,1,173,kitchen,tomato,,90403,001,2022-04-21_17h25.03.718,SPAMnetsValid,2021.1.4,MacIntel,60.04202942,,,,,,,,,,,,,,,,,,,,,,,,,,,,,,,,,,,,,,,,,,,,,,,,,,,,,,,,,,,,,,,,,,,,,,,,,,,,,,,,,,,,,,,,,
,,8,1.2203,8,1.2203,0,96,96,33,1,131,cactus,garden,,90403,001,2022-04-21_17h25.03.718,SPAMnetsValid,2021.1.4,MacIntel,60.04202942,,,,,,,,,,,,,,,,,,,,,,,,,,,,,,,,,,,,,,,,,,,,,,,,,,,,,,,,,,,,,,,,,,,,,,,,,,,,,,,,,,,,,,,,,
,,,,,,,,,,,,,,,90403,001,2022-04-21_17h25.03.718,SPAMnetsValid,2021.1.4,MacIntel,60.04202942,0,0,0,0,1,,,,,,,,,,,,,,,,,,,,,,,,,,,,,,,,,,,,,,,,,,,,,,,,,,,,,,,,,,,,,,,,,,,,,,,,,,,,,,,,,,,,
,,,,,,,,,,,,,,,90403,001,2022-04-21_17h25.03.718,SPAMnetsValid,2021.1.4,MacIntel,60.04202942,,,,,,0,0,0,1,1,0,1,,,,,,,,,,,,,,,,,,,,,,,,,,,,,,,,,,,,,,,,,,,,,,,,,,,,,,,,,,,,,,,,,,,,,,,,,,,,,
,,,,2,6.7955,,,,,,15,onion,oven,,90403,001,2022-04-21_17h25.03.718,SPAMnetsValid,2021.1.4,MacIntel,60.04202942,,,,,,,,,,,,,2,6.7955,0,0,0,39,1,,,,,,,,,,,,,,,,,,,,,,,,,,,,,,,,,,,,,,,,,,,,,,,,,,,,,,,,,,,,,,,,,,,,,,
,,,,2,1.0903,,,,,,88,cactus,melon,,90403,001,2022-04-21_17h25.03.718,SPAMnetsValid,2021.1.4,MacIntel,60.04202942,,,,,,,,,,,,,2,1.0903,0,1,1,38,1,,,,,,,,,,,,,,,,,,,,,,,,,,,,,,,,,,,,,,,,,,,,,,,,,,,,,,,,,,,,,,,,,,,,,,
,,,,7,1.7615,,,,,,63,cake,cookie,,90403,001,2022-04-21_17h25.03.718,SPAMnetsValid,2021.1.4,MacIntel,60.04202942,,,,,,,,,,,,,7,1.7615,0,2,2,93,1,,,,,,,,,,,,,,,,,,,,,,,,,,,,,,,,,,,,,,,,,,,,,,,,,,,,,,,,,,,,,,,,,,,,,,
,,,,3,1.2262,,,,,,35,flower,pretzel,,90403,001,2022-04-21_17h25.03.718,SPAMnetsValid,2021.1.4,MacIntel,60.04202942,,,,,,,,,,,,,3,1.2262,0,3,3,26,1,,,,,,,,,,,,,,,,,,,,,,,,,,,,,,,,,,,,,,,,,,,,,,,,,,,,,,,,,,,,,,,,,,,,,,
,,,,8,1.5438,,,,,,76,garden,rose,,90403,001,2022-04-21_17h25.03.718,SPAMnetsValid,2021.1.4,MacIntel,60.04202942,,,,,,,,,,,,,8,1.5438,0,4,4,19,1,,,,,,,,,,,,,,,,,,,,,,,,,,,,,,,,,,,,,,,,,,,,,,,,,,,,,,,,,,,,,,,,,,,,,,
,,,,3,3.6305,,,,,,48,flower,oven,,90403,001,2022-04-21_17h25.03.718,SPAMnetsValid,2021.1.4,MacIntel,60.04202942,,,,,,,,,,,,,3,3.6305,0,5,5,15,1,,,,,,,,,,,,,,,,,,,,,,,,,,,,,,,,,,,,,,,,,,,,,,,,,,,,,,,,,,,,,,,,,,,,,,
,,,,1,2.6808,,,,,,92,broom,flower,,90403,001,2022-04-21_17h25.03.718,SPAMnetsValid,2021.1.4,MacIntel,60.04202942,,,,,,,,,,,,,1,2.6808,0,6,6,88,1,,,,,,,,,,,,,,,,,,,,,,,,,,,,,,,,,,,,,,,,,,,,,,,,,,,,,,,,,,,,,,,,,,,,,,
,,,,6,1.4025,,,,,,38,pretzel,refrigerator,,90403,001,2022-04-21_17h25.03.718,SPAMnetsValid,2021.1.4,MacIntel,60.04202942,,,,,,,,,,,,,6,1.4025,0,7,7,71,1,,,,,,,,,,,,,,,,,,,,,,,,,,,,,,,,,,,,,,,,,,,,,,,,,,,,,,,,,,,,,,,,,,,,,,
,,,,7,2.2546,,,,,,6,garden,onion,,90403,001,2022-04-21_17h25.03.718,SPAMnetsValid,2021.1.4,MacIntel,60.04202942,,,,,,,,,,,,,7,2.2546,0,8,8,83,1,,,,,,,,,,,,,,,,,,,,,,,,,,,,,,,,,,,,,,,,,,,,,,,,,,,,,,,,,,,,,,,,,,,,,,
,,,,8,1.8414,,,,,,44,cookie,melon,,90403,001,2022-04-21_17h25.03.718,SPAMnetsValid,2021.1.4,MacIntel,60.04202942,,,,,,,,,,,,,8,1.8414,0,9,9,92,1,,,,,,,,,,,,,,,,,,,,,,,,,,,,,,,,,,,,,,,,,,,,,,,,,,,,,,,,,,,,,,,,,,,,,,
,,,,1,30.2222,,,,,,40,broom,cake,,90403,001,2022-04-21_17h25.03.718,SPAMnetsValid,2021.1.4,MacIntel,60.04202942,,,,,,,,,,,,,1,30.2222,0,10,10,32,1,,,,,,,,,,,,,,,,,,,,,,,,,,,,,,,,,,,,,,,,,,,,,,,,,,,,,,,,,,,,,,,,,,,,,,
,,,,6,1.5248,,,,,,26,tomato,yogurt,,90403,001,2022-04-21_17h25.03.718,SPAMnetsValid,2021.1.4,MacIntel,60.04202942,,,,,,,,,,,,,6,1.5248,0,11,11,13,1,,,,,,,,,,,,,,,,,,,,,,,,,,,,,,,,,,,,,,,,,,,,,,,,,,,,,,,,,,,,,,,,,,,,,,
,,,,8,3.7607,,,,,,36,broom,kitchen,,90403,001,2022-04-21_17h25.03.718,SPAMnetsValid,2021.1.4,MacIntel,60.04202942,,,,,,,,,,,,,8,3.7607,0,12,12,76,1,,,,,,,,,,,,,,,,,,,,,,,,,,,,,,,,,,,,,,,,,,,,,,,,,,,,,,,,,,,,,,,,,,,,,,
,,,,6,2.3635,,,,,,60,cactus,onion,,90403,001,2022-04-21_17h25.03.718,SPAMnetsValid,2021.1.4,MacIntel,60.04202942,,,,,,,,,,,,,6,2.3635,0,13,13,81,1,,,,,,,,,,,,,,,,,,,,,,,,,,,,,,,,,,,,,,,,,,,,,,,,,,,,,,,,,,,,,,,,,,,,,,
,,,,7,1.748,,,,,,12,cookie,yogurt,,90403,001,2022-04-21_17h25.03.718,SPAMnetsValid,2021.1.4,MacIntel,60.04202942,,,,,,,,,,,,,7,1.748,0,14,14,36,1,,,,,,,,,,,,,,,,,,,,,,,,,,,,,,,,,,,,,,,,,,,,,,,,,,,,,,,,,,,,,,,,,,,,,,
,,,,3,1.6212,,,,,,43,chocolate,tomato,,90403,001,2022-04-21_17h25.03.718,SPAMnetsValid,2021.1.4,MacIntel,60.04202942,,,,,,,,,,,,,3,1.6212,0,15,15,8,1,,,,,,,,,,,,,,,,,,,,,,,,,,,,,,,,,,,,,,,,,,,,,,,,,,,,,,,,,,,,,,,,,,,,,,
,,,,3,2.2898,,,,,,33,oven,yogurt,,90403,001,2022-04-21_17h25.03.718,SPAMnetsValid,2021.1.4,MacIntel,60.04202942,,,,,,,,,,,,,3,2.2898,0,16,16,31,1,,,,,,,,,,,,,,,,,,,,,,,,,,,,,,,,,,,,,,,,,,,,,,,,,,,,,,,,,,,,,,,,,,,,,,
,,,,7,2.5404,,,,,,39,melon,pretzel,,90403,001,2022-04-21_17h25.03.718,SPAMnetsValid,2021.1.4,MacIntel,60.04202942,,,,,,,,,,,,,7,2.5404,0,17,17,20,1,,,,,,,,,,,,,,,,,,,,,,,,,,,,,,,,,,,,,,,,,,,,,,,,,,,,,,,,,,,,,,,,,,,,,,
,,,,3,12.9055,,,,,,23,flower,microwave,,90403,001,2022-04-21_17h25.03.718,SPAMnetsValid,2021.1.4,MacIntel,60.04202942,,,,,,,,,,,,,3,12.9055,0,18,18,25,1,,,,,,,,,,,,,,,,,,,,,,,,,,,,,,,,,,,,,,,,,,,,,,,,,,,,,,,,,,,,,,,,,,,,,,
,,,,6,2.4815,,,,,,21,cake,onion,,90403,001,2022-04-21_17h25.03.718,SPAMnetsValid,2021.1.4,MacIntel,60.04202942,,,,,,,,,,,,,6,2.4815,0,19,19,63,1,,,,,,,,,,,,,,,,,,,,,,,,,,,,,,,,,,,,,,,,,,,,,,,,,,,,,,,,,,,,,,,,,,,,,,
,,,,3,15.0823,,,,,,67,flower,yogurt,,90403,001,2022-04-21_17h25.03.718,SPAMnetsValid,2021.1.4,MacIntel,60.04202942,,,,,,,,,,,,,3,15.0823,0,20,20,12,1,,,,,,,,,,,,,,,,,,,,,,,,,,,,,,,,,,,,,,,,,,,,,,,,,,,,,,,,,,,,,,,,,,,,,,
,,,,2,3.2738,,,,,,73,broom,chocolate,,90403,001,2022-04-21_17h25.03.718,SPAMnetsValid,2021.1.4,MacIntel,60.04202942,,,,,,,,,,,,,2,3.2738,0,21,21,47,1,,,,,,,,,,,,,,,,,,,,,,,,,,,,,,,,,,,,,,,,,,,,,,,,,,,,,,,,,,,,,,,,,,,,,,
,,,,3,3.4609,,,,,,41,broom,cactus,,90403,001,2022-04-21_17h25.03.718,SPAMnetsValid,2021.1.4,MacIntel,60.04202942,,,,,,,,,,,,,3,3.4609,0,22,22,46,1,,,,,,,,,,,,,,,,,,,,,,,,,,,,,,,,,,,,,,,,,,,,,,,,,,,,,,,,,,,,,,,,,,,,,,
,,,,6,1.6476,,,,,,7,melon,tree,,90403,001,2022-04-21_17h25.03.718,SPAMnetsValid,2021.1.4,MacIntel,60.04202942,,,,,,,,,,,,,6,1.6476,0,23,23,77,1,,,,,,,,,,,,,,,,,,,,,,,,,,,,,,,,,,,,,,,,,,,,,,,,,,,,,,,,,,,,,,,,,,,,,,
,,,,2,6.4353,,,,,,65,broom,garden,,90403,001,2022-04-21_17h25.03.718,SPAMnetsValid,2021.1.4,MacIntel,60.04202942,,,,,,,,,,,,,2,6.4353,0,24,24,23,1,,,,,,,,,,,,,,,,,,,,,,,,,,,,,,,,,,,,,,,,,,,,,,,,,,,,,,,,,,,,,,,,,,,,,,
,,,,8,2.0475,,,,,,79,garden,strawberry,,90403,001,2022-04-21_17h25.03.718,SPAMnetsValid,2021.1.4,MacIntel,60.04202942,,,,,,,,,,,,,8,2.0475,0,25,25,87,1,,,,,,,,,,,,,,,,,,,,,,,,,,,,,,,,,,,,,,,,,,,,,,,,,,,,,,,,,,,,,,,,,,,,,,
,,,,3,2.5399,,,,,,46,garden,yogurt,,90403,001,2022-04-21_17h25.03.718,SPAMnetsValid,2021.1.4,MacIntel,60.04202942,,,,,,,,,,,,,3,2.5399,0,26,26,65,1,,,,,,,,,,,,,,,,,,,,,,,,,,,,,,,,,,,,,,,,,,,,,,,,,,,,,,,,,,,,,,,,,,,,,,
,,,,7,1.077,,,,,,28,cake,melon,,90403,001,2022-04-21_17h25.03.718,SPAMnetsValid,2021.1.4,MacIntel,60.04202942,,,,,,,,,,,,,7,1.077,0,27,27,54,1,,,,,,,,,,,,,,,,,,,,,,,,,,,,,,,,,,,,,,,,,,,,,,,,,,,,,,,,,,,,,,,,,,,,,,
,,,,3,2.5062,,,,,,37,garden,refrigerator,,90403,001,2022-04-21_17h25.03.718,SPAMnetsValid,2021.1.4,MacIntel,60.04202942,,,,,,,,,,,,,3,2.5062,0,28,28,11,1,,,,,,,,,,,,,,,,,,,,,,,,,,,,,,,,,,,,,,,,,,,,,,,,,,,,,,,,,,,,,,,,,,,,,,
,,,,3,7.8592,,,,,,57,flower,kitchen,,90403,001,2022-04-21_17h25.03.718,SPAMnetsValid,2021.1.4,MacIntel,60.04202942,,,,,,,,,,,,,3,7.8592,0,29,29,49,1,,,,,,,,,,,,,,,,,,,,,,,,,,,,,,,,,,,,,,,,,,,,,,,,,,,,,,,,,,,,,,,,,,,,,,
,,,,2,16.6989,,,,,,86,oven,rose,,90403,001,2022-04-21_17h25.03.718,SPAMnetsValid,2021.1.4,MacIntel,60.04202942,,,,,,,,,,,,,2,16.6989,0,30,30,79,1,,,,,,,,,,,,,,,,,,,,,,,,,,,,,,,,,,,,,,,,,,,,,,,,,,,,,,,,,,,,,,,,,,,,,,
,,,,8,31.7903,,,,,,9,kitchen,refrigerator,,90403,001,2022-04-21_17h25.03.718,SPAMnetsValid,2021.1.4,MacIntel,60.04202942,,,,,,,,,,,,,8,31.7903,0,31,31,64,1,,,,,,,,,,,,,,,,,,,,,,,,,,,,,,,,,,,,,,,,,,,,,,,,,,,,,,,,,,,,,,,,,,,,,,
,,,,8,10.5338,,,,,,25,carrot,onion,,90403,001,2022-04-21_17h25.03.718,SPAMnetsValid,2021.1.4,MacIntel,60.04202942,,,,,,,,,,,,,8,10.5338,0,32,32,44,1,,,,,,,,,,,,,,,,,,,,,,,,,,,,,,,,,,,,,,,,,,,,,,,,,,,,,,,,,,,,,,,,,,,,,,
,,,,2,9.2738,,,,,,53,garden,pretzel,,90403,001,2022-04-21_17h25.03.718,SPAMnetsValid,2021.1.4,MacIntel,60.04202942,,,,,,,,,,,,,2,9.2738,0,33,33,0,1,,,,,,,,,,,,,,,,,,,,,,,,,,,,,,,,,,,,,,,,,,,,,,,,,,,,,,,,,,,,,,,,,,,,,,
,,,,2,4.5421,,,,,,14,broom,cookie,,90403,001,2022-04-21_17h25.03.718,SPAMnetsValid,2021.1.4,MacIntel,60.04202942,,,,,,,,,,,,,2,4.5421,0,34,34,16,1,,,,,,,,,,,,,,,,,,,,,,,,,,,,,,,,,,,,,,,,,,,,,,,,,,,,,,,,,,,,,,,,,,,,,,
,,,,7,3.5399,,,,,,66,melon,yogurt,,90403,001,2022-04-21_17h25.03.718,SPAMnetsValid,2021.1.4,MacIntel,60.04202942,,,,,,,,,,,,,7,3.5399,0,35,35,48,1,,,,,,,,,,,,,,,,,,,,,,,,,,,,,,,,,,,,,,,,,,,,,,,,,,,,,,,,,,,,,,,,,,,,,,
,,,,2,1.3206,,,,,,91,microwave,rose,,90403,001,2022-04-21_17h25.03.718,SPAMnetsValid,2021.1.4,MacIntel,60.04202942,,,,,,,,,,,,,2,1.3206,0,36,36,84,1,,,,,,,,,,,,,,,,,,,,,,,,,,,,,,,,,,,,,,,,,,,,,,,,,,,,,,,,,,,,,,,,,,,,,,
,,,,7,1.9877,,,,,,20,rose,tree,,90403,001,2022-04-21_17h25.03.718,SPAMnetsValid,2021.1.4,MacIntel,60.04202942,,,,,,,,,,,,,7,1.9877,0,37,37,66,1,,,,,,,,,,,,,,,,,,,,,,,,,,,,,,,,,,,,,,,,,,,,,,,,,,,,,,,,,,,,,,,,,,,,,,
,,,,9,2.2217,,,,,,3,cake,oven,,90403,001,2022-04-21_17h25.03.718,SPAMnetsValid,2021.1.4,MacIntel,60.04202942,,,,,,,,,,,,,9,2.2217,0,38,38,30,1,,,,,,,,,,,,,,,,,,,,,,,,,,,,,,,,,,,,,,,,,,,,,,,,,,,,,,,,,,,,,,,,,,,,,,
,,,,2,1.9551,,,,,,8,broom,melon,,90403,001,2022-04-21_17h25.03.718,SPAMnetsValid,2021.1.4,MacIntel,60.04202942,,,,,,,,,,,,,2,1.9551,0,39,39,59,1,,,,,,,,,,,,,,,,,,,,,,,,,,,,,,,,,,,,,,,,,,,,,,,,,,,,,,,,,,,,,,,,,,,,,,
,,,,3,2.6942,,,,,,11,refrigerator,tree,,90403,001,2022-04-21_17h25.03.718,SPAMnetsValid,2021.1.4,MacIntel,60.04202942,,,,,,,,,,,,,3,2.6942,0,40,40,43,1,,,,,,,,,,,,,,,,,,,,,,,,,,,,,,,,,,,,,,,,,,,,,,,,,,,,,,,,,,,,,,,,,,,,,,
,,,,9,1.3277,,,,,,82,cake,kitchen,,90403,001,2022-04-21_17h25.03.718,SPAMnetsValid,2021.1.4,MacIntel,60.04202942,,,,,,,,,,,,,9,1.3277,0,41,41,96,1,,,,,,,,,,,,,,,,,,,,,,,,,,,,,,,,,,,,,,,,,,,,,,,,,,,,,,,,,,,,,,,,,,,,,,
,,,,2,1.8912,,,,,,42,garden,kitchen,,90403,001,2022-04-21_17h25.03.718,SPAMnetsValid,2021.1.4,MacIntel,60.04202942,,,,,,,,,,,,,2,1.8912,0,42,42,29,1,,,,,,,,,,,,,,,,,,,,,,,,,,,,,,,,,,,,,,,,,,,,,,,,,,,,,,,,,,,,,,,,,,,,,,
,,,,6,1.2742,,,,,,70,chocolate,onion,,90403,001,2022-04-21_17h25.03.718,SPAMnetsValid,2021.1.4,MacIntel,60.04202942,,,,,,,,,,,,,6,1.2742,0,43,43,74,1,,,,,,,,,,,,,,,,,,,,,,,,,,,,,,,,,,,,,,,,,,,,,,,,,,,,,,,,,,,,,,,,,,,,,,
,,,,5,3.2932,,,,,,75,cookie,onion,,90403,001,2022-04-21_17h25.03.718,SPAMnetsValid,2021.1.4,MacIntel,60.04202942,,,,,,,,,,,,,5,3.2932,0,44,44,9,1,,,,,,,,,,,,,,,,,,,,,,,,,,,,,,,,,,,,,,,,,,,,,,,,,,,,,,,,,,,,,,,,,,,,,,
,,,,8,3.4465,,,,,,52,carrot,tomato,,90403,001,2022-04-21_17h25.03.718,SPAMnetsValid,2021.1.4,MacIntel,60.04202942,,,,,,,,,,,,,8,3.4465,0,45,45,95,1,,,,,,,,,,,,,,,,,,,,,,,,,,,,,,,,,,,,,,,,,,,,,,,,,,,,,,,,,,,,,,,,,,,,,,
,,,,8,0.7636,,,,,,47,onion,tomato,,90403,001,2022-04-21_17h25.03.718,SPAMnetsValid,2021.1.4,MacIntel,60.04202942,,,,,,,,,,,,,8,0.7636,0,46,46,51,1,,,,,,,,,,,,,,,,,,,,,,,,,,,,,,,,,,,,,,,,,,,,,,,,,,,,,,,,,,,,,,,,,,,,,,
,,,,2,2.5528,,,,,,74,broom,pretzel,,90403,001,2022-04-21_17h25.03.718,SPAMnetsValid,2021.1.4,MacIntel,60.04202942,,,,,,,,,,,,,2,2.5528,0,47,47,40,1,,,,,,,,,,,,,,,,,,,,,,,,,,,,,,,,,,,,,,,,,,,,,,,,,,,,,,,,,,,,,,,,,,,,,,
,,,,7,2.4875,,,,,,59,rose,strawberry,,90403,001,2022-04-21_17h25.03.718,SPAMnetsValid,2021.1.4,MacIntel,60.04202942,,,,,,,,,,,,,7,2.4875,0,48,48,72,1,,,,,,,,,,,,,,,,,,,,,,,,,,,,,,,,,,,,,,,,,,,,,,,,,,,,,,,,,,,,,,,,,,,,,,
,,,,2,1.8399,,,,,,84,oven,tomato,,90403,001,2022-04-21_17h25.03.718,SPAMnetsValid,2021.1.4,MacIntel,60.04202942,,,,,,,,,,,,,2,1.8399,0,49,49,28,1,,,,,,,,,,,,,,,,,,,,,,,,,,,,,,,,,,,,,,,,,,,,,,,,,,,,,,,,,,,,,,,,,,,,,,
,,,,9,1.5406,,,,,,94,kitchen,microwave,,90403,001,2022-04-21_17h25.03.718,SPAMnetsValid,2021.1.4,MacIntel,60.04202942,,,,,,,,,,,,,9,1.5406,0,50,50,58,1,,,,,,,,,,,,,,,,,,,,,,,,,,,,,,,,,,,,,,,,,,,,,,,,,,,,,,,,,,,,,,,,,,,,,,
,,,,9,1.6903,,,,,,32,cake,microwave,,90403,001,2022-04-21_17h25.03.718,SPAMnetsValid,2021.1.4,MacIntel,60.04202942,,,,,,,,,,,,,9,1.6903,0,51,51,33,1,,,,,,,,,,,,,,,,,,,,,,,,,,,,,,,,,,,,,,,,,,,,,,,,,,,,,,,,,,,,,,,,,,,,,,
,,,,9,1.011,,,,,,2,kitchen,onion,,90403,001,2022-04-21_17h25.03.718,SPAMnetsValid,2021.1.4,MacIntel,60.04202942,,,,,,,,,,,,,9,1.011,0,52,52,91,1,,,,,,,,,,,,,,,,,,,,,,,,,,,,,,,,,,,,,,,,,,,,,,,,,,,,,,,,,,,,,,,,,,,,,,
,,,,9,0.7592,,,,,,34,melon,oven,,90403,001,2022-04-21_17h25.03.718,SPAMnetsValid,2021.1.4,MacIntel,60.04202942,,,,,,,,,,,,,9,0.7592,0,53,53,7,1,,,,,,,,,,,,,,,,,,,,,,,,,,,,,,,,,,,,,,,,,,,,,,,,,,,,,,,,,,,,,,,,,,,,,,
,,,,8,3.2572,,,,,,24,cookie,tomato,,90403,001,2022-04-21_17h25.03.718,SPAMnetsValid,2021.1.4,MacIntel,60.04202942,,,,,,,,,,,,,8,3.2572,0,54,54,68,1,,,,,,,,,,,,,,,,,,,,,,,,,,,,,,,,,,,,,,,,,,,,,,,,,,,,,,,,,,,,,,,,,,,,,,
,,,,8,1.1597,,,,,,69,carrot,refrigerator,,90403,001,2022-04-21_17h25.03.718,SPAMnetsValid,2021.1.4,MacIntel,60.04202942,,,,,,,,,,,,,8,1.1597,0,55,55,75,1,,,,,,,,,,,,,,,,,,,,,,,,,,,,,,,,,,,,,,,,,,,,,,,,,,,,,,,,,,,,,,,,,,,,,,
,,,,3,2.1913,,,,,,19,microwave,pretzel,,90403,001,2022-04-21_17h25.03.718,SPAMnetsValid,2021.1.4,MacIntel,60.04202942,,,,,,,,,,,,,3,2.1913,0,56,56,41,1,,,,,,,,,,,,,,,,,,,,,,,,,,,,,,,,,,,,,,,,,,,,,,,,,,,,,,,,,,,,,,,,,,,,,,
,,,,7,3.5292,,,,,,29,chocolate,melon,,90403,001,2022-04-21_17h25.03.718,SPAMnetsValid,2021.1.4,MacIntel,60.04202942,,,,,,,,,,,,,7,3.5292,0,57,57,34,1,,,,,,,,,,,,,,,,,,,,,,,,,,,,,,,,,,,,,,,,,,,,,,,,,,,,,,,,,,,,,,,,,,,,,,
,,,,4,1.3648,,,,,,85,cake,tree,,90403,001,2022-04-21_17h25.03.718,SPAMnetsValid,2021.1.4,MacIntel,60.04202942,,,,,,,,,,,,,4,1.3648,0,58,58,18,1,,,,,,,,,,,,,,,,,,,,,,,,,,,,,,,,,,,,,,,,,,,,,,,,,,,,,,,,,,,,,,,,,,,,,,
,,,,4,4.7209,,,,,,27,cactus,cookie,,90403,001,2022-04-21_17h25.03.718,SPAMnetsValid,2021.1.4,MacIntel,60.04202942,,,,,,,,,,,,,4,4.7209,0,59,59,17,1,,,,,,,,,,,,,,,,,,,,,,,,,,,,,,,,,,,,,,,,,,,,,,,,,,,,,,,,,,,,,,,,,,,,,,
,,,,3,2.9397,,,,,,80,chocolate,tree,,90403,001,2022-04-21_17h25.03.718,SPAMnetsValid,2021.1.4,MacIntel,60.04202942,,,,,,,,,,,,,3,2.9397,0,60,60,89,1,,,,,,,,,,,,,,,,,,,,,,,,,,,,,,,,,,,,,,,,,,,,,,,,,,,,,,,,,,,,,,,,,,,,,,
,,,,9,1.5242,,,,,,77,refrigerator,yogurt,,90403,001,2022-04-21_17h25.03.718,SPAMnetsValid,2021.1.4,MacIntel,60.04202942,,,,,,,,,,,,,9,1.5242,0,61,61,42,1,,,,,,,,,,,,,,,,,,,,,,,,,,,,,,,,,,,,,,,,,,,,,,,,,,,,,,,,,,,,,,,,,,,,,,
,,,,6,1.3755,,,,,,18,onion,refrigerator,,90403,001,2022-04-21_17h25.03.718,SPAMnetsValid,2021.1.4,MacIntel,60.04202942,,,,,,,,,,,,,6,1.3755,0,62,62,62,1,,,,,,,,,,,,,,,,,,,,,,,,,,,,,,,,,,,,,,,,,,,,,,,,,,,,,,,,,,,,,,,,,,,,,,
,,,,4,1.1278,,,,,,68,flower,tomato,,90403,001,2022-04-21_17h25.03.718,SPAMnetsValid,2021.1.4,MacIntel,60.04202942,,,,,,,,,,,,,4,1.1278,0,63,63,94,1,,,,,,,,,,,,,,,,,,,,,,,,,,,,,,,,,,,,,,,,,,,,,,,,,,,,,,,,,,,,,,,,,,,,,,
,,,,7,2.0387,,,,,,17,carrot,melon,,90403,001,2022-04-21_17h25.03.718,SPAMnetsValid,2021.1.4,MacIntel,60.04202942,,,,,,,,,,,,,7,2.0387,0,64,64,24,1,,,,,,,,,,,,,,,,,,,,,,,,,,,,,,,,,,,,,,,,,,,,,,,,,,,,,,,,,,,,,,,,,,,,,,
,,,,7,13.7808,,,,,,30,cookie,pretzel,,90403,001,2022-04-21_17h25.03.718,SPAMnetsValid,2021.1.4,MacIntel,60.04202942,,,,,,,,,,,,,7,13.7808,0,65,65,78,1,,,,,,,,,,,,,,,,,,,,,,,,,,,,,,,,,,,,,,,,,,,,,,,,,,,,,,,,,,,,,,,,,,,,,,
,,,,9,1.9738,,,,,,192,microwave,microwave,CHECK,90403,001,2022-04-21_17h25.03.718,SPAMnetsValid,2021.1.4,MacIntel,60.04202942,,,,,,,,,,,,,9,1.9738,0,66,66,53,1,,,,,,,,,,,,,,,,,,,,,,,,,,,,,,,,,,,,,,,,,,,,,,,,,,,,,,,,,,,,,,,,,,,,,,
,,,,9,1.025,,,,,,191,cake,cake,CHECK,90403,001,2022-04-21_17h25.03.718,SPAMnetsValid,2021.1.4,MacIntel,60.04202942,,,,,,,,,,,,,9,1.025,0,67,67,10,1,,,,,,,,,,,,,,,,,,,,,,,,,,,,,,,,,,,,,,,,,,,,,,,,,,,,,,,,,,,,,,,,,,,,,,
,,,,3,1.5596,,,,,,16,chocolate,flower,,90403,001,2022-04-21_17h25.03.718,SPAMnetsValid,2021.1.4,MacIntel,60.04202942,,,,,,,,,,,,,3,1.5596,0,68,68,22,1,,,,,,,,,,,,,,,,,,,,,,,,,,,,,,,,,,,,,,,,,,,,,,,,,,,,,,,,,,,,,,,,,,,,,,
,,,,3,1.8901,,,,,,55,tomato,tree,,90403,001,2022-04-21_17h25.03.718,SPAMnetsValid,2021.1.4,MacIntel,60.04202942,,,,,,,,,,,,,3,1.8901,0,69,69,35,1,,,,,,,,,,,,,,,,,,,,,,,,,,,,,,,,,,,,,,,,,,,,,,,,,,,,,,,,,,,,,,,,,,,,,,
,,,,4,2.4921,,,,,,78,cookie,rose,,90403,001,2022-04-21_17h25.03.718,SPAMnetsValid,2021.1.4,MacIntel,60.04202942,,,,,,,,,,,,,4,2.4921,0,70,70,56,1,,,,,,,,,,,,,,,,,,,,,,,,,,,,,,,,,,,,,,,,,,,,,,,,,,,,,,,,,,,,,,,,,,,,,,
,,,,4,6.7935,,,,,,31,cactus,pretzel,,90403,001,2022-04-21_17h25.03.718,SPAMnetsValid,2021.1.4,MacIntel,60.04202942,,,,,,,,,,,,,4,6.7935,0,71,71,1,1,,,,,,,,,,,,,,,,,,,,,,,,,,,,,,,,,,,,,,,,,,,,,,,,,,,,,,,,,,,,,,,,,,,,,,
,,,,4,1.3145,,,,,,10,flower,onion,,90403,001,2022-04-21_17h25.03.718,SPAMnetsValid,2021.1.4,MacIntel,60.04202942,,,,,,,,,,,,,4,1.3145,0,72,72,45,1,,,,,,,,,,,,,,,,,,,,,,,,,,,,,,,,,,,,,,,,,,,,,,,,,,,,,,,,,,,,,,,,,,,,,,
,,,,9,2.6563,,,,,,93,kitchen,oven,,90403,001,2022-04-21_17h25.03.718,SPAMnetsValid,2021.1.4,MacIntel,60.04202942,,,,,,,,,,,,,9,2.6563,0,73,73,82,1,,,,,,,,,,,,,,,,,,,,,,,,,,,,,,,,,,,,,,,,,,,,,,,,,,,,,,,,,,,,,,,,,,,,,,
,,,,3,2.4867,,,,,,89,chocolate,rose,,90403,001,2022-04-21_17h25.03.718,SPAMnetsValid,2021.1.4,MacIntel,60.04202942,,,,,,,,,,,,,3,2.4867,0,74,74,60,1,,,,,,,,,,,,,,,,,,,,,,,,,,,,,,,,,,,,,,,,,,,,,,,,,,,,,,,,,,,,,,,,,,,,,,
,,,,3,2.2396,,,,,,72,broom,onion,,90403,001,2022-04-21_17h25.03.718,SPAMnetsValid,2021.1.4,MacIntel,60.04202942,,,,,,,,,,,,,3,2.2396,0,75,75,27,1,,,,,,,,,,,,,,,,,,,,,,,,,,,,,,,,,,,,,,,,,,,,,,,,,,,,,,,,,,,,,,,,,,,,,,
,,,,7,3.1417,,,,,,61,strawberry,tomato,,90403,001,2022-04-21_17h25.03.718,SPAMnetsValid,2021.1.4,MacIntel,60.04202942,,,,,,,,,,,,,7,3.1417,0,76,76,80,1,,,,,,,,,,,,,,,,,,,,,,,,,,,,,,,,,,,,,,,,,,,,,,,,,,,,,,,,,,,,,,,,,,,,,,
,,,,8,1.6726,,,,,,56,cactus,tree,,90403,001,2022-04-21_17h25.03.718,SPAMnetsValid,2021.1.4,MacIntel,60.04202942,,,,,,,,,,,,,8,1.6726,0,77,77,21,1,,,,,,,,,,,,,,,,,,,,,,,,,,,,,,,,,,,,,,,,,,,,,,,,,,,,,,,,,,,,,,,,,,,,,,
,,,,7,0.9268,,,,,,51,onion,strawberry,,90403,001,2022-04-21_17h25.03.718,SPAMnetsValid,2021.1.4,MacIntel,60.04202942,,,,,,,,,,,,,7,0.9268,0,78,78,86,1,,,,,,,,,,,,,,,,,,,,,,,,,,,,,,,,,,,,,,,,,,,,,,,,,,,,,,,,,,,,,,,,,,,,,,
,,,,3,7.4412,,,,,,64,chocolate,garden,,90403,001,2022-04-21_17h25.03.718,SPAMnetsValid,2021.1.4,MacIntel,60.04202942,,,,,,,,,,,,,3,7.4412,0,79,79,14,1,,,,,,,,,,,,,,,,,,,,,,,,,,,,,,,,,,,,,,,,,,,,,,,,,,,,,,,,,,,,,,,,,,,,,,
,,,,6,2.4064,,,,,,62,kitchen,rose,,90403,001,2022-04-21_17h25.03.718,SPAMnetsValid,2021.1.4,MacIntel,60.04202942,,,,,,,,,,,,,6,2.4064,0,80,80,57,1,,,,,,,,,,,,,,,,,,,,,,,,,,,,,,,,,,,,,,,,,,,,,,,,,,,,,,,,,,,,,,,,,,,,,,
,,,,6,6.9612,,,,,,54,chocolate,yogurt,,90403,001,2022-04-21_17h25.03.718,SPAMnetsValid,2021.1.4,MacIntel,60.04202942,,,,,,,,,,,,,6,6.9612,0,81,81,67,1,,,,,,,,,,,,,,,,,,,,,,,,,,,,,,,,,,,,,,,,,,,,,,,,,,,,,,,,,,,,,,,,,,,,,,
,,,,4,5.287,,,,,,1,rose,yogurt,,90403,001,2022-04-21_17h25.03.718,SPAMnetsValid,2021.1.4,MacIntel,60.04202942,,,,,,,,,,,,,4,5.287,0,82,82,55,1,,,,,,,,,,,,,,,,,,,,,,,,,,,,,,,,,,,,,,,,,,,,,,,,,,,,,,,,,,,,,,,,,,,,,,
,,,,3,1.2395,,,,,,13,broom,yogurt,,90403,001,2022-04-21_17h25.03.718,SPAMnetsValid,2021.1.4,MacIntel,60.04202942,,,,,,,,,,,,,3,1.2395,0,83,83,5,1,,,,,,,,,,,,,,,,,,,,,,,,,,,,,,,,,,,,,,,,,,,,,,,,,,,,,,,,,,,,,,,,,,,,,,
,,,,4,1.1915,,,,,,90,cactus,cake,,90403,001,2022-04-21_17h25.03.718,SPAMnetsValid,2021.1.4,MacIntel,60.04202942,,,,,,,,,,,,,4,1.1915,0,84,84,85,1,,,,,,,,,,,,,,,,,,,,,,,,,,,,,,,,,,,,,,,,,,,,,,,,,,,,,,,,,,,,,,,,,,,,,,
,,,,6,2.5893,,,,,,95,broom,refrigerator,,90403,001,2022-04-21_17h25.03.718,SPAMnetsValid,2021.1.4,MacIntel,60.04202942,,,,,,,,,,,,,6,2.5893,0,85,85,90,1,,,,,,,,,,,,,,,,,,,,,,,,,,,,,,,,,,,,,,,,,,,,,,,,,,,,,,,,,,,,,,,,,,,,,,
,,,,4,1.3205,,,,,,49,flower,strawberry,,90403,001,2022-04-21_17h25.03.718,SPAMnetsValid,2021.1.4,MacIntel,60.04202942,,,,,,,,,,,,,4,1.3205,0,86,86,3,1,,,,,,,,,,,,,,,,,,,,,,,,,,,,,,,,,,,,,,,,,,,,,,,,,,,,,,,,,,,,,,,,,,,,,,
,,,,8,76.9753,,,,,,4,chocolate,pretzel,,90403,001,2022-04-21_17h25.03.718,SPAMnetsValid,2021.1.4,MacIntel,60.04202942,,,,,,,,,,,,,8,76.9753,0,87,87,52,1,,,,,,,,,,,,,,,,,,,,,,,,,,,,,,,,,,,,,,,,,,,,,,,,,,,,,,,,,,,,,,,,,,,,,,
,,,,3,1.2238,,,,,,58,garden,oven,,90403,001,2022-04-21_17h25.03.718,SPAMnetsValid,2021.1.4,MacIntel,60.04202942,,,,,,,,,,,,,3,1.2238,0,88,88,37,1,,,,,,,,,,,,,,,,,,,,,,,,,,,,,,,,,,,,,,,,,,,,,,,,,,,,,,,,,,,,,,,,,,,,,,
,,,,2,1.5159,,,,,,83,broom,carrot,,90403,001,2022-04-21_17h25.03.718,SPAMnetsValid,2021.1.4,MacIntel,60.04202942,,,,,,,,,,,,,2,1.5159,0,89,89,4,1,,,,,,,,,,,,,,,,,,,,,,,,,,,,,,,,,,,,,,,,,,,,,,,,,,,,,,,,,,,,,,,,,,,,,,
,,,,7,1.3059,,,,,,22,kitchen,strawberry,,90403,001,2022-04-21_17h25.03.718,SPAMnetsValid,2021.1.4,MacIntel,60.04202942,,,,,,,,,,,,,7,1.3059,0,90,90,2,1,,,,,,,,,,,,,,,,,,,,,,,,,,,,,,,,,,,,,,,,,,,,,,,,,,,,,,,,,,,,,,,,,,,,,,
,,,,3,1.9392,,,,,,50,carrot,rose,,90403,001,2022-04-21_17h25.03.718,SPAMnetsValid,2021.1.4,MacIntel,60.04202942,,,,,,,,,,,,,3,1.9392,0,91,91,73,1,,,,,,,,,,,,,,,,,,,,,,,,,,,,,,,,,,,,,,,,,,,,,,,,,,,,,,,,,,,,,,,,,,,,,,
,,,,3,1.1062,,,,,,45,onion,pretzel,,90403,001,2022-04-21_17h25.03.718,SPAMnetsValid,2021.1.4,MacIntel,60.04202942,,,,,,,,,,,,,3,1.1062,0,92,92,69,1,,,,,,,,,,,,,,,,,,,,,,,,,,,,,,,,,,,,,,,,,,,,,,,,,,,,,,,,,,,,,,,,,,,,,,
,,,,6,2.7052,,,,,,81,pretzel,yogurt,,90403,001,2022-04-21_17h25.03.718,SPAMnetsValid,2021.1.4,MacIntel,60.04202942,,,,,,,,,,,,,6,2.7052,0,93,93,50,1,,,,,,,,,,,,,,,,,,,,,,,,,,,,,,,,,,,,,,,,,,,,,,,,,,,,,,,,,,,,,,,,,,,,,,
,,,,6,1.1592,,,,,,87,carrot,yogurt,,90403,001,2022-04-21_17h25.03.718,SPAMnetsValid,2021.1.4,MacIntel,60.04202942,,,,,,,,,,,,,6,1.1592,0,94,94,6,1,,,,,,,,,,,,,,,,,,,,,,,,,,,,,,,,,,,,,,,,,,,,,,,,,,,,,,,,,,,,,,,,,,,,,,
,,,,1,1.6895,,,,,,5,oven,tree,,90403,001,2022-04-21_17h25.03.718,SPAMnetsValid,2021.1.4,MacIntel,60.04202942,,,,,,,,,,,,,1,1.6895,0,95,95,70,1,,,,,,,,,,,,,,,,,,,,,,,,,,,,,,,,,,,,,,,,,,,,,,,,,,,,,,,,,,,,,,,,,,,,,,
,,,,3,4.3055,,,,,,71,broom,rose,,90403,001,2022-04-21_17h25.03.718,SPAMnetsValid,2021.1.4,MacIntel,60.04202942,,,,,,,,,,,,,3,4.3055,0,96,96,61,1,,,,,,,,,,,,,,,,,,,,,,,,,,,,,,,,,,,,,,,,,,,,,,,,,,,,,,,,,,,,,,,,,,,,,,
,,,,,,,,,,,,,,,90403,001,2022-04-21_17h25.03.718,SPAMnetsValid,2021.1.4,MacIntel,60.04202942,,,,,,,,,,,,,,,,,,,,0,0,0,0,1,,,,,,,,,,,,,,,,,,,,,,,,,,,,,,,,,,,,,,,,,,,,,,,,,,,,,,,,,,,,,,,,,
,,,,,,,,,,,,,,,90403,001,2022-04-21_17h25.03.718,SPAMnetsValid,2021.1.4,MacIntel,60.04202942,,,,,,0,1,1,0,1,1,0,,,,,,,,,,,,,,,,,,,,,,,,,,,,,,,,,,,,,,,,,,,,,,,,,,,,,,,,,,,,,,,,,,,,,,,,,,,,,
,,,,,,,,,,,,,,,90403,001,2022-04-21_17h25.03.718,SPAMnetsValid,2021.1.4,MacIntel,60.04202942,,,,,,,,,,,,,,,,,,,,,,,,,2,5.112,0,0,0,0,1,rancor,forbearance,ridicule,malice,bravery,3,,,,,,,,,,,,,,,,,,,,,,,,,,,,,,,,,,,,,,,,,,,,,,,,,,,,
,,,,,,,,,,,,,,,90403,001,2022-04-21_17h25.03.718,SPAMnetsValid,2021.1.4,MacIntel,60.04202942,,,,,,,,,,,,,,,,,,,,,,,,,2,3.6596,0,1,1,1,1,raucous,empty,quiet,smooth,harsh,4,,,,,,,,,,,,,,,,,,,,,,,,,,,,,,,,,,,,,,,,,,,,,,,,,,,,
,,,,,,,,,,,,,,,90403,001,2022-04-21_17h25.03.718,SPAMnetsValid,2021.1.4,MacIntel,60.04202942,,,,,,,,,,,,,,,,,,,,,,,,,3,3.1104,0,2,2,2,1,gargoyle,oil,medicine,carved waterspout,ugly building,3,,,,,,,,,,,,,,,,,,,,,,,,,,,,,,,,,,,,,,,,,,,,,,,,,,,,
,,,,,,,,,,,,,,,90403,001,2022-04-21_17h25.03.718,SPAMnetsValid,2021.1.4,MacIntel,60.04202942,,,,,,,,,,,,,,,,,,,,,,,,,2,7.3098,0,3,3,3,1,recrudesce,purify,renew activity,lack refinement,crush,2,,,,,,,,,,,,,,,,,,,,,,,,,,,,,,,,,,,,,,,,,,,,,,,,,,,,
,,,,,,,,,,,,,,,90403,001,2022-04-21_17h25.03.718,SPAMnetsValid,2021.1.4,MacIntel,60.04202942,,,,,,,,,,,,,,,,,,,,,,,,,1,5.6032,0,4,4,4,1,specious,"plausible, but not genuine",noteworthy,class or variety,roomy,1,,,,,,,,,,,,,,,,,,,,,,,,,,,,,,,,,,,,,,,,,,,,,,,,,,,,
,,,,,,,,,,,,,,,90403,001,2022-04-21_17h25.03.718,SPAMnetsValid,2021.1.4,MacIntel,60.04202942,,,,,,,,,,,,,,,,,,,,,,,,,3,3.1383,0,5,5,5,1,bauble,bubble,showy plaything,idle talk,confusion,2,,,,,,,,,,,,,,,,,,,,,,,,,,,,,,,,,,,,,,,,,,,,,,,,,,,,
,,,,,,,,,,,,,,,90403,001,2022-04-21_17h25.03.718,SPAMnetsValid,2021.1.4,MacIntel,60.04202942,,,,,,,,,,,,,,,,,,,,,,,,,4,4.7743,0,6,6,6,1,prolific,scarce,producing abundantly,reckless,speaking profanely,2,,,,,,,,,,,,,,,,,,,,,,,,,,,,,,,,,,,,,,,,,,,,,,,,,,,,
,,,,,,,,,,,,,,,90403,001,2022-04-21_17h25.03.718,SPAMnetsValid,2021.1.4,MacIntel,60.04202942,,,,,,,,,,,,,,,,,,,,,,,,,3,6.3912,0,7,7,7,1,opulent,party,wealthy,happy frame of mind,semiprecious stone,2,,,,,,,,,,,,,,,,,,,,,,,,,,,,,,,,,,,,,,,,,,,,,,,,,,,,
,,,,,,,,,,,,,,,90403,001,2022-04-21_17h25.03.718,SPAMnetsValid,2021.1.4,MacIntel,60.04202942,,,,,,,,,,,,,,,,,,,,,,,,,1,4.9725,0,8,8,8,1,coercion,conspiracy,strategy,restraint,attraction,3,,,,,,,,,,,,,,,,,,,,,,,,,,,,,,,,,,,,,,,,,,,,,,,,,,,,
,,,,,,,,,,,,,,,90403,001,2022-04-21_17h25.03.718,SPAMnetsValid,2021.1.4,MacIntel,60.04202942,,,,,,,,,,,,,,,,,,,,,,,,,4,3.1106,0,9,9,9,1,hiatus,animal,calamity,dread,gap,4,,,,,,,,,,,,,,,,,,,,,,,,,,,,,,,,,,,,,,,,,,,,,,,,,,,,
,,,,,,,,,,,,,,,90403,001,2022-04-21_17h25.03.718,SPAMnetsValid,2021.1.4,MacIntel,60.04202942,,,,,,,,,,,,,,,,,,,,,,,,,1,8.719,0,10,10,10,1,germane,microbe,contagious,relevant,different,3,,,,,,,,,,,,,,,,,,,,,,,,,,,,,,,,,,,,,,,,,,,,,,,,,,,,
,,,,,,,,,,,,,,,90403,001,2022-04-21_17h25.03.718,SPAMnetsValid,2021.1.4,MacIntel,60.04202942,,,,,,,,,,,,,,,,,,,,,,,,,1,4.8421,0,11,11,11,1,perfunctory,fundamental,formal,superficial,careful,3,,,,,,,,,,,,,,,,,,,,,,,,,,,,,,,,,,,,,,,,,,,,,,,,,,,,
,,,,,,,,,,,,,,,90403,001,2022-04-21_17h25.03.718,SPAMnetsValid,2021.1.4,MacIntel,60.04202942,,,,,,,,,,,,,,,,,,,,,,,,,4,2.7113,0,12,12,12,1,diverge,reveal,chant,distract the attention of,differ or turn off from,4,,,,,,,,,,,,,,,,,,,,,,,,,,,,,,,,,,,,,,,,,,,,,,,,,,,,
,,,,,,,,,,,,,,,90403,001,2022-04-21_17h25.03.718,SPAMnetsValid,2021.1.4,MacIntel,60.04202942,,,,,,,,,,,,,,,,,,,,,,,,,1,2.0921,0,13,13,13,1,evoke,take away,anger,connect,bring out,4,,,,,,,,,,,,,,,,,,,,,,,,,,,,,,,,,,,,,,,,,,,,,,,,,,,,
,,,,,,,,,,,,,,,90403,001,2022-04-21_17h25.03.718,SPAMnetsValid,2021.1.4,MacIntel,60.04202942,,,,,,,,,,,,,,,,,,,,,,,,,2,14.366,0,14,14,14,1,pertinent,relevant,lying next to,necessary,bold,1,,,,,,,,,,,,,,,,,,,,,,,,,,,,,,,,,,,,,,,,,,,,,,,,,,,,
,,,,,,,,,,,,,,,90403,001,2022-04-21_17h25.03.718,SPAMnetsValid,2021.1.4,MacIntel,60.04202942,,,,,,,,,,,,,,,,,,,,,,,,,2,1.9741,0,15,15,15,1,holocaust,entirety,destruction,saintly,price,2,,,,,,,,,,,,,,,,,,,,,,,,,,,,,,,,,,,,,,,,,,,,,,,,,,,,
,,,,,,,,,,,,,,,90403,001,2022-04-21_17h25.03.718,SPAMnetsValid,2021.1.4,MacIntel,60.04202942,,,,,,,,,,,,,,,,,,,,,,,,,3,3.9917,0,16,16,16,1,piquant,mellow,fish,pungent,cloth,3,,,,,,,,,,,,,,,,,,,,,,,,,,,,,,,,,,,,,,,,,,,,,,,,,,,,
,,,,,,,,,,,,,,,90403,001,2022-04-21_17h25.03.718,SPAMnetsValid,2021.1.4,MacIntel,60.04202942,,,,,,,,,,,,,,,,,,,,,,,,,1,4.4421,0,17,17,17,1,firmament,foundation,heavens,strong,glue,2,,,,,,,,,,,,,,,,,,,,,,,,,,,,,,,,,,,,,,,,,,,,,,,,,,,,
,,,,,,,,,,,,,,,90403,001,2022-04-21_17h25.03.718,SPAMnetsValid,2021.1.4,MacIntel,60.04202942,,,,,,,,,,,,,,,,,,,,,,,,,,,,,,,,,,,,,,4,5.548,0,0,0,0,1,marketable,partisan,jocular,marriageable,salable,essential,4,,,,,,,,,,,,,,,,,,,,,,,,,,,,,,,,,,,,,,
,,,,,,,,,,,,,,,90403,001,2022-04-21_17h25.03.718,SPAMnetsValid,2021.1.4,MacIntel,60.04202942,,,,,,,,,,,,,,,,,,,,,,,,,,,,,,,,,,,,,,5,14.7033,0,1,1,1,1,cottontail,squirrel,poplar,boa,marshy plant,rabbit,5,,,,,,,,,,,,,,,,,,,,,,,,,,,,,,,,,,,,,,
,,,,,,,,,,,,,,,90403,001,2022-04-21_17h25.03.718,SPAMnetsValid,2021.1.4,MacIntel,60.04202942,,,,,,,,,,,,,,,,,,,,,,,,,,,,,,,,,,,,,,3,5.8364,0,2,2,2,1,boggy,afraid,false,marshy,dense,black,3,,,,,,,,,,,,,,,,,,,,,,,,,,,,,,,,,,,,,,
,,,,,,,,,,,,,,,90403,001,2022-04-21_17h25.03.718,SPAMnetsValid,2021.1.4,MacIntel,60.04202942,,,,,,,,,,,,,,,,,,,,,,,,,,,,,,,,,,,,,,3,9.5372,0,3,3,3,1,gruesomeness,blackness,falseness,vindictiveness,drunkenness,ghastliness,5,,,,,,,,,,,,,,,,,,,,,,,,,,,,,,,,,,,,,,
,,,,,,,,,,,,,,,90403,001,2022-04-21_17h25.03.718,SPAMnetsValid,2021.1.4,MacIntel,60.04202942,,,,,,,,,,,,,,,,,,,,,,,,,,,,,,,,,,,,,,3,11.3751,0,4,4,4,1,loathing,diffidence,laziness,abhorrence,cleverness,comfort,3,,,,,,,,,,,,,,,,,,,,,,,,,,,,,,,,,,,,,,
,,,,,,,,,,,,,,,90403,001,2022-04-21_17h25.03.718,SPAMnetsValid,2021.1.4,MacIntel,60.04202942,,,,,,,,,,,,,,,,,,,,,,,,,,,,,,,,,,,,,,2,3.7696,0,5,5,5,1,bantam,fowl,ridicule,cripple,vegetable,ensign,1,,,,,,,,,,,,,,,,,,,,,,,,,,,,,,,,,,,,,,
,,,,,,,,,,,,,,,90403,001,2022-04-21_17h25.03.718,SPAMnetsValid,2021.1.4,MacIntel,60.04202942,,,,,,,,,,,,,,,,,,,,,,,,,,,,,,,,,,,,,,2,5.3556,0,6,6,6,1,evoke,wake up,surrender,reconnoiter,transcend,call forth,5,,,,,,,,,,,,,,,,,,,,,,,,,,,,,,,,,,,,,,
,,,,,,,,,,,,,,,90403,001,2022-04-21_17h25.03.718,SPAMnetsValid,2021.1.4,MacIntel,60.04202942,,,,,,,,,,,,,,,,,,,,,,,,,,,,,,,,,,,,,,1,5.3887,0,7,7,7,1,unobtrusive,unintelligent,epileptic,illogical,lineal,modest,5,,,,,,,,,,,,,,,,,,,,,,,,,,,,,,,,,,,,,,
,,,,,,,,,,,,,,,90403,001,2022-04-21_17h25.03.718,SPAMnetsValid,2021.1.4,MacIntel,60.04202942,,,,,,,,,,,,,,,,,,,,,,,,,,,,,,,,,,,,,,4,4.5249,0,8,8,8,1,terrain,ice cream,final test,tractor,area of ground,weight,4,,,,,,,,,,,,,,,,,,,,,,,,,,,,,,,,,,,,,,
,,,,,,,,,,,,,,,90403,001,2022-04-21_17h25.03.718,SPAMnetsValid,2021.1.4,MacIntel,60.04202942,,,,,,,,,,,,,,,,,,,,,,,,,,,,,,,,,,,,,,1,5.9288,0,9,9,9,1,capriciousness,stubbornness,courage,whimsicality,amazement,greediness,3,,,,,,,,,,,,,,,,,,,,,,,,,,,,,,,,,,,,,,
,,,,,,,,,,,,,,,90403,001,2022-04-21_17h25.03.718,SPAMnetsValid,2021.1.4,MacIntel,60.04202942,,,,,,,,,,,,,,,,,,,,,,,,,,,,,,,,,,,,,,1,10.121,0,10,10,10,1,maelstrom,slander,whirlpool,enmity,armor,majolica,2,,,,,,,,,,,,,,,,,,,,,,,,,,,,,,,,,,,,,,
,,,,,,,,,,,,,,,90403,001,2022-04-21_17h25.03.718,SPAMnetsValid,2021.1.4,MacIntel,60.04202942,,,,,,,,,,,,,,,,,,,,,,,,,,,,,,,,,,,,,,1,6.3587,0,11,11,11,1,tentative,critical,conclusive,authentic,provisional,apprehensive,4,,,,,,,,,,,,,,,,,,,,,,,,,,,,,,,,,,,,,,
,,,,,,,,,,,,,,,90403,001,2022-04-21_17h25.03.718,SPAMnetsValid,2021.1.4,MacIntel,60.04202942,,,,,,,,,,,,,,,,,,,,,,,,,,,,,,,,,,,,,,5,3.3951,0,12,12,12,1,placate,rehabilitate,plagiarize,depredate,apprise,conciliate,5,,,,,,,,,,,,,,,,,,,,,,,,,,,,,,,,,,,,,,
,,,,,,,,,,,,,,,90403,001,2022-04-21_17h25.03.718,SPAMnetsValid,2021.1.4,MacIntel,60.04202942,,,,,,,,,,,,,,,,,,,,,,,,,,,,,,,,,,,,,,5,7.8829,0,13,13,13,1,surcease,enlightenment,cessation,inattention,censor,substitution,2,,,,,,,,,,,,,,,,,,,,,,,,,,,,,,,,,,,,,,
,,,,,,,,,,,,,,,90403,001,2022-04-21_17h25.03.718,SPAMnetsValid,2021.1.4,MacIntel,60.04202942,,,,,,,,,,,,,,,,,,,,,,,,,,,,,,,,,,,,,,3,4.2074,0,14,14,14,1,apathetic,wandering,impassive,hateful,prophetic,overflowing,2,,,,,,,,,,,,,,,,,,,,,,,,,,,,,,,,,,,,,,
,,,,,,,,,,,,,,,90403,001,2022-04-21_17h25.03.718,SPAMnetsValid,2021.1.4,MacIntel,60.04202942,,,,,,,,,,,,,,,,,,,,,,,,,,,,,,,,,,,,,,4,3.5589,0,15,15,15,1,paternoster,paternalism,patricide,malediction,benediction,prayer,5,,,,,,,,,,,,,,,,,,,,,,,,,,,,,,,,,,,,,,
,,,,,,,,,,,,,,,90403,001,2022-04-21_17h25.03.718,SPAMnetsValid,2021.1.4,MacIntel,60.04202942,,,,,,,,,,,,,,,,,,,,,,,,,,,,,,,,,,,,,,4,6.1575,0,16,16,16,1,opalescence,opulence,senescence,bankruptcy,iridescence,assiduity,4,,,,,,,,,,,,,,,,,,,,,,,,,,,,,,,,,,,,,,
,,,,,,,,,,,,,,,90403,001,2022-04-21_17h25.03.718,SPAMnetsValid,2021.1.4,MacIntel,60.04202942,,,,,,,,,,,,,,,,,,,,,,,,,,,,,,,,,,,,,,2,2.5426,0,17,17,17,1,lush,stupid,luxurious,hazy,putrid,languishing,2,,,,,,,,,,,,,,,,,,,,,,,,,,,,,,,,,,,,,,
,,,,,,,,,,,,,,,90403,001,2022-04-21_17h25.03.718,SPAMnetsValid,2021.1.4,MacIntel,60.04202942,,,,,,,,,,,,,,,,,,,,,,,,,,,,,,,,,,,,,,1,10.4854,0,18,18,18,1,curtailment,expenditure,abandonment,abridgment,improvement,forgery,3,,,,,,,,,,,,,,,,,,,,,,,,,,,,,,,,,,,,,,
,,,,,,,,,,,,,,,90403,001,2022-04-21_17h25.03.718,SPAMnetsValid,2021.1.4,MacIntel,60.04202942,,,,,,,,,,,,,,,,,,,,,,,,,,,,,,,,,,,,,,2,6.5251,0,19,19,19,1,perversity,adversity,perviousness,travesty,waywardness,gentility,4,,,,,,,,,,,,,,,,,,,,,,,,,,,,,,,,,,,,,,
,,,,,,,,,,,,,,,90403,001,2022-04-21_17h25.03.718,SPAMnetsValid,2021.1.4,MacIntel,60.04202942,,,,,,,,,,,,,,,,,,,,,,,,,,,,,,,,,,,,,,3,8.0573,0,20,20,20,1,calumnious,complimentary,analogous,slanderous,tempestuous,magnanimous,3,,,,,,,,,,,,,,,,,,,,,,,,,,,,,,,,,,,,,,
,,,,,,,,,,,,,,,90403,001,2022-04-21_17h25.03.718,SPAMnetsValid,2021.1.4,MacIntel,60.04202942,,,,,,,,,,,,,,,,,,,,,,,,,,,,,,,,,,,,,,4,4.2535,0,21,21,21,1,illiberality,bigotry,imbecility,illegibility,cautery,immaturity,1,,,,,,,,,,,,,,,,,,,,,,,,,,,,,,,,,,,,,,
,,,,,,,,,,,,,,,90403,001,2022-04-21_17h25.03.718,SPAMnetsValid,2021.1.4,MacIntel,60.04202942,,,,,,,,,,,,,,,,,,,,,,,,,,,,,,,,,,,,,,2,4.039,0,22,22,22,1,clabber,rejoice,gossip,curdle,crow,hobble,3,,,,,,,,,,,,,,,,,,,,,,,,,,,,,,,,,,,,,,
,,,,,,,,,,,,,,,90403,001,2022-04-21_17h25.03.718,SPAMnetsValid,2021.1.4,MacIntel,60.04202942,,,,,,,,,,,,,,,,,,,,,,,,,,,,,,,,,,,,,,1,6.2397,0,23,23,23,1,sedulousness,diligence,credulousness,seduction,perilousness,frankness,1,,,,,,,,,,,,,,,,,,,,,,,,,,,,,,,,,,,,,,
,,,,,,,,,,,,,,,90403,001,2022-04-21_17h25.03.718,SPAMnetsValid,2021.1.4,MacIntel,60.04202942,,,,,,,,,,,,,,,,,,,,,,,,,,,,,,,,,,,,,,,,,,,,,,,,,,,,pail,bucket,0,0,0,0,1,,,,,,,,,,,,,,,,,,,,,,,,,,,,,,,
,,,,,,,,,,,,,,,90403,001,2022-04-21_17h25.03.718,SPAMnetsValid,2021.1.4,MacIntel,60.04202942,,,,,,,,,,,,,,,,,,,,,,,,,,,,,,,,,,,,,,,,,,,,,,,,,,,,sand,bucket,1,0,1,0,1,,,,,,,,,,,,,,,,,,,,,,,,,,,,,,,
,,,,,,,,,,,,,,,90403,001,2022-04-21_17h25.03.718,SPAMnetsValid,2021.1.4,MacIntel,60.04202942,,,,,,,,,,,,,,,,,,,,,,,,,,,,,,,,,,,,,,,,,,,,,,,,,,,,cement,bucket,2,0,2,0,1,,,,,,,,,,,,,,,,,,,,,,,,,,,,,,,
,,,,,,,,,,,,,,,90403,001,2022-04-21_17h25.03.718,SPAMnetsValid,2021.1.4,MacIntel,60.04202942,,,,,,,,,,,,,,,,,,,,,,,,,,,,,,,,,,,,,,,,,,,,,,,,,,,,drum,bucket,3,0,3,0,1,,,,,,,,,,,,,,,,,,,,,,,,,,,,,,,
,,,,,,,,,,,,,,,90403,001,2022-04-21_17h25.03.718,SPAMnetsValid,2021.1.4,MacIntel,60.04202942,,,,,,,,,,,,,,,,,,,,,,,,,,,,,,,,,,,,,,,,,,,,,,,,,,,,carrying items,bucket,4,0,4,0,1,,,,,,,,,,,,,,,,,,,,,,,,,,,,,,,
,,,,,,,,,,,,,,,90403,001,2022-04-21_17h25.03.718,SPAMnetsValid,2021.1.4,MacIntel,60.04202942,,,,,,,,,,,,,,,,,,,,,,,,,,,,,,,,,,,,,,,,,,,,,,,,,,,,catching water,bucket,5,0,5,0,1,,,,,,,,,,,,,,,,,,,,,,,,,,,,,,,
,,,,,,,,,,,,,,,90403,001,2022-04-21_17h25.03.718,SPAMnetsValid,2021.1.4,MacIntel,60.04202942,,,,,,,,,,,,,,,,,,,,,,,,,,,,,,,,,,,,,,,,,,,,,,,,,,,,creating sandcastles,bucket,6,0,6,0,1,,,,,,,,,,,,,,,,,,,,,,,,,,,,,,,
,,,,,,,,,,,,,,,90403,001,2022-04-21_17h25.03.718,SPAMnetsValid,2021.1.4,MacIntel,60.04202942,,,,,,,,,,,,,,,,,,,,,,,,,,,,,,,,,,,,,,,,,,,,,,,,,,,,shovel,bucket,7,0,7,0,1,,,,,,,,,,,,,,,,,,,,,,,,,,,,,,,
,,,,,,,,,,,,,,,90403,001,2022-04-21_17h25.03.718,SPAMnetsValid,2021.1.4,MacIntel,60.04202942,,,,,,,,,,,,,,,,,,,,,,,,,,,,,,,,,,,,,,,,,,,,,,,,,,,,grass,bucket,8,0,8,0,1,,,,,,,,,,,,,,,,,,,,,,,,,,,,,,,
,,,,,,,,,,,,,,,90403,001,2022-04-21_17h25.03.718,SPAMnetsValid,2021.1.4,MacIntel,60.04202942,,,,,,,,,,,,,,,,,,,,,,,,,,,,,,,,,,,,,,,,,,,,,,,,,,,,pan,bucket,9,0,9,0,1,,,,,,,,,,,,,,,,,,,,,,,,,,,,,,,
,,,,,,,,,,,,,,,90403,001,2022-04-21_17h25.03.718,SPAMnetsValid,2021.1.4,MacIntel,60.04202942,,,,,,,,,,,,,,,,,,,,,,,,,,,,,,,,,,,,,,,,,,,,,,,,,,,,picking flowers,bucket,10,0,10,0,1,,,,,,,,,,,,,,,,,,,,,,,,,,,,,,,
,,,,,,,,,,,,,,,90403,001,2022-04-21_17h25.03.718,SPAMnetsValid,2021.1.4,MacIntel,60.04202942,,,,,,,,,,,,,,,,,,,,,,,,,,,,,,,,,,,,,,,,,,,,,,,,,,,,weeding grass,bucket,11,0,11,0,1,,,,,,,,,,,,,,,,,,,,,,,,,,,,,,,
,,,,,,,,,,,,,,,90403,001,2022-04-21_17h25.03.718,SPAMnetsValid,2021.1.4,MacIntel,60.04202942,,,,,,,,,,,,,,,,,,,,,,,,,,,,,,,,,,,,,,,,,,,,,,,,,,,,,,,,,,,0,0,0,0,1,bucket,,,,,,,,,,,,,,,,,,,,,,,,,
,,,,,,,,,,,,,,,90403,001,2022-04-21_17h25.03.718,SPAMnetsValid,2021.1.4,MacIntel,60.04202942,,,,,,,,,,,,,,,,,,,,,,,,,,,,,,,,,,,,,,,,,,,,,,,,,,,,pillow fight,pillow,0,0,0,0,1,,,,,,,,,,,,,,,,,,,,,,,,,,,,,,,
,,,,,,,,,,,,,,,90403,001,2022-04-21_17h25.03.718,SPAMnetsValid,2021.1.4,MacIntel,60.04202942,,,,,,,,,,,,,,,,,,,,,,,,,,,,,,,,,,,,,,,,,,,,,,,,,,,,sleeping,pillow,1,0,1,0,1,,,,,,,,,,,,,,,,,,,,,,,,,,,,,,,
,,,,,,,,,,,,,,,90403,001,2022-04-21_17h25.03.718,SPAMnetsValid,2021.1.4,MacIntel,60.04202942,,,,,,,,,,,,,,,,,,,,,,,,,,,,,,,,,,,,,,,,,,,,,,,,,,,,building a tent,pillow,2,0,2,0,1,,,,,,,,,,,,,,,,,,,,,,,,,,,,,,,
,,,,,,,,,,,,,,,90403,001,2022-04-21_17h25.03.718,SPAMnetsValid,2021.1.4,MacIntel,60.04202942,,,,,,,,,,,,,,,,,,,,,,,,,,,,,,,,,,,,,,,,,,,,,,,,,,,,having sex,pillow,3,0,3,0,1,,,,,,,,,,,,,,,,,,,,,,,,,,,,,,,
,,,,,,,,,,,,,,,90403,001,2022-04-21_17h25.03.718,SPAMnetsValid,2021.1.4,MacIntel,60.04202942,,,,,,,,,,,,,,,,,,,,,,,,,,,,,,,,,,,,,,,,,,,,,,,,,,,,cuddling with,pillow,4,0,4,0,1,,,,,,,,,,,,,,,,,,,,,,,,,,,,,,,
,,,,,,,,,,,,,,,90403,001,2022-04-21_17h25.03.718,SPAMnetsValid,2021.1.4,MacIntel,60.04202942,,,,,,,,,,,,,,,,,,,,,,,,,,,,,,,,,,,,,,,,,,,,,,,,,,,,crying into,pillow,5,0,5,0,1,,,,,,,,,,,,,,,,,,,,,,,,,,,,,,,
,,,,,,,,,,,,,,,90403,001,2022-04-21_17h25.03.718,SPAMnetsValid,2021.1.4,MacIntel,60.04202942,,,,,,,,,,,,,,,,,,,,,,,,,,,,,,,,,,,,,,,,,,,,,,,,,,,,screaming into,pillow,6,0,6,0,1,,,,,,,,,,,,,,,,,,,,,,,,,,,,,,,
,,,,,,,,,,,,,,,90403,001,2022-04-21_17h25.03.718,SPAMnetsValid,2021.1.4,MacIntel,60.04202942,,,,,,,,,,,,,,,,,,,,,,,,,,,,,,,,,,,,,,,,,,,,,,,,,,,,punching bag,pillow,7,0,7,0,1,,,,,,,,,,,,,,,,,,,,,,,,,,,,,,,
,,,,,,,,,,,,,,,90403,001,2022-04-21_17h25.03.718,SPAMnetsValid,2021.1.4,MacIntel,60.04202942,,,,,,,,,,,,,,,,,,,,,,,,,,,,,,,,,,,,,,,,,,,,,,,,,,,,pillow fort,pillow,8,0,8,0,1,,,,,,,,,,,,,,,,,,,,,,,,,,,,,,,
,,,,,,,,,,,,,,,90403,001,2022-04-21_17h25.03.718,SPAMnetsValid,2021.1.4,MacIntel,60.04202942,,,,,,,,,,,,,,,,,,,,,,,,,,,,,,,,,,,,,,,,,,,,,,,,,,,,using stuffing,pillow,9,0,9,0,1,,,,,,,,,,,,,,,,,,,,,,,,,,,,,,,
,,,,,,,,,,,,,,,90403,001,2022-04-21_17h25.03.718,SPAMnetsValid,2021.1.4,MacIntel,60.04202942,,,,,,,,,,,,,,,,,,,,,,,,,,,,,,,,,,,,,,,,,,,,,,,,,,,,jumping up and down,pillow,10,0,10,0,1,,,,,,,,,,,,,,,,,,,,,,,,,,,,,,,
,,,,,,,,,,,,,,,90403,001,2022-04-21_17h25.03.718,SPAMnetsValid,2021.1.4,MacIntel,60.04202942,,,,,,,,,,,,,,,,,,,,,,,,,,,,,,,,,,,,,,,,,,,,,,,,,,,,,,,,,,,0,1,1,2,1,pillow,,,,,,,,,,,,,,,,,,,,,,,,,
,,,,,,,,,,,,,,,90403,001,2022-04-21_17h25.03.718,SPAMnetsValid,2021.1.4,MacIntel,60.04202942,,,,,,,,,,,,,,,,,,,,,,,,,,,,,,,,,,,,,,,,,,,,,,,,,,,,light up ,candle,0,0,0,0,1,,,,,,,,,,,,,,,,,,,,,,,,,,,,,,,
,,,,,,,,,,,,,,,90403,001,2022-04-21_17h25.03.718,SPAMnetsValid,2021.1.4,MacIntel,60.04202942,,,,,,,,,,,,,,,,,,,,,,,,,,,,,,,,,,,,,,,,,,,,,,,,,,,,start fire,candle,1,0,1,0,1,,,,,,,,,,,,,,,,,,,,,,,,,,,,,,,
,,,,,,,,,,,,,,,90403,001,2022-04-21_17h25.03.718,SPAMnetsValid,2021.1.4,MacIntel,60.04202942,,,,,,,,,,,,,,,,,,,,,,,,,,,,,,,,,,,,,,,,,,,,,,,,,,,,,candle,2,0,2,0,1,,,,,,,,,,,,,,,,,,,,,,,,,,,,,,,
,,,,,,,,,,,,,,,90403,001,2022-04-21_17h25.03.718,SPAMnetsValid,2021.1.4,MacIntel,60.04202942,,,,,,,,,,,,,,,,,,,,,,,,,,,,,,,,,,,,,,,,,,,,,,,,,,,,,candle,3,0,3,0,1,,,,,,,,,,,,,,,,,,,,,,,,,,,,,,,
,,,,,,,,,,,,,,,90403,001,2022-04-21_17h25.03.718,SPAMnetsValid,2021.1.4,MacIntel,60.04202942,,,,,,,,,,,,,,,,,,,,,,,,,,,,,,,,,,,,,,,,,,,,,,,,,,,, cook food,candle,4,0,4,0,1,,,,,,,,,,,,,,,,,,,,,,,,,,,,,,,
,,,,,,,,,,,,,,,90403,001,2022-04-21_17h25.03.718,SPAMnetsValid,2021.1.4,MacIntel,60.04202942,,,,,,,,,,,,,,,,,,,,,,,,,,,,,,,,,,,,,,,,,,,,,,,,,,,,,,,,,,,0,2,2,1,1,candle,,,,,,,,,,,,,,,,,,,,,,,,,
,,,,,,,,,,,,,,,90403,001,2022-04-21_17h25.03.718,SPAMnetsValid,2021.1.4,MacIntel,60.04202942,,,,,,,,,,,,,,,,,,,,,,,,,,,,,,,,,,,,,,,,,,,,,,,,,,,,,,,,,,,,,,,,,dog,Animals,0,0,0,0,1,,,,,,,,,,,,,,,,,,
,,,,,,,,,,,,,,,90403,001,2022-04-21_17h25.03.718,SPAMnetsValid,2021.1.4,MacIntel,60.04202942,,,,,,,,,,,,,,,,,,,,,,,,,,,,,,,,,,,,,,,,,,,,,,,,,,,,,,,,,,,,,,,,,cat,Animals,1,0,1,0,1,,,,,,,,,,,,,,,,,,
,,,,,,,,,,,,,,,90403,001,2022-04-21_17h25.03.718,SPAMnetsValid,2021.1.4,MacIntel,60.04202942,,,,,,,,,,,,,,,,,,,,,,,,,,,,,,,,,,,,,,,,,,,,,,,,,,,,,,,,,,,,,,,,,frog,Animals,2,0,2,0,1,,,,,,,,,,,,,,,,,,
,,,,,,,,,,,,,,,90403,001,2022-04-21_17h25.03.718,SPAMnetsValid,2021.1.4,MacIntel,60.04202942,,,,,,,,,,,,,,,,,,,,,,,,,,,,,,,,,,,,,,,,,,,,,,,,,,,,,,,,,,,,,,,,,bear,Animals,3,0,3,0,1,,,,,,,,,,,,,,,,,,
,,,,,,,,,,,,,,,90403,001,2022-04-21_17h25.03.718,SPAMnetsValid,2021.1.4,MacIntel,60.04202942,,,,,,,,,,,,,,,,,,,,,,,,,,,,,,,,,,,,,,,,,,,,,,,,,,,,,,,,,,,,,,,,,deer,Animals,4,0,4,0,1,,,,,,,,,,,,,,,,,,
,,,,,,,,,,,,,,,90403,001,2022-04-21_17h25.03.718,SPAMnetsValid,2021.1.4,MacIntel,60.04202942,,,,,,,,,,,,,,,,,,,,,,,,,,,,,,,,,,,,,,,,,,,,,,,,,,,,,,,,,,,,,,,,,cougar,Animals,5,0,5,0,1,,,,,,,,,,,,,,,,,,
,,,,,,,,,,,,,,,90403,001,2022-04-21_17h25.03.718,SPAMnetsValid,2021.1.4,MacIntel,60.04202942,,,,,,,,,,,,,,,,,,,,,,,,,,,,,,,,,,,,,,,,,,,,,,,,,,,,,,,,,,,,,,,,,,,,,,,,0,0,0,0,1,Animals,,,,,,,,,,,,
,,,,,,,,,,,,,,,90403,001,2022-04-21_17h25.03.718,SPAMnetsValid,2021.1.4,MacIntel,60.04202942,,,,,,,,,,,,,,,,,,,,,,,,,,,,,,,,,,,,,,,,,,,,,,,,,,,,,,,,,,,,,,,,,,,,,,,,,,,,,,3,1.6034,0,0,0,0,1,"I enjoy concentrating on a fantasy or daydream and exploring all its possibilities, letting it grow and develop.",0,1,,
,,,,,,,,,,,,,,,90403,001,2022-04-21_17h25.03.718,SPAMnetsValid,2021.1.4,MacIntel,60.04202942,,,,,,,,,,,,,,,,,,,,,,,,,,,,,,,,,,,,,,,,,,,,,,,,,,,,,,,,,,,,,,,,,,,,,,,,,,,,,,3,1.0218,0,1,1,1,1,I think it's interesting to learn and develop new hobbies.,0,2,,
,,,,,,,,,,,,,,,90403,001,2022-04-21_17h25.03.718,SPAMnetsValid,2021.1.4,MacIntel,60.04202942,,,,,,,,,,,,,,,,,,,,,,,,,,,,,,,,,,,,,,,,,,,,,,,,,,,,,,,,,,,,,,,,,,,,,,,,,,,,,,3,0.4884,0,2,2,2,1,I am intrigued by the patterns I find in art and nature.,0,3,,
,,,,,,,,,,,,,,,90403,001,2022-04-21_17h25.03.718,SPAMnetsValid,2021.1.4,MacIntel,60.04202942,,,,,,,,,,,,,,,,,,,,,,,,,,,,,,,,,,,,,,,,,,,,,,,,,,,,,,,,,,,,,,,,,,,,,,,,,,,,,,3,0.4222,0,3,3,3,1,I believe letting students hear controversial speakers can only confuse and mislead them.,1,4,,
,,,,,,,,,,,,,,,90403,001,2022-04-21_17h25.03.718,SPAMnetsValid,2021.1.4,MacIntel,60.04202942,,,,,,,,,,,,,,,,,,,,,,,,,,,,,,,,,,,,,,,,,,,,,,,,,,,,,,,,,,,,,,,,,,,,,,,,,,,,,,3,0.5237,0,4,4,4,1,Poetry has little or no effect on me.,1,5,,
,,,,,,,,,,,,,,,90403,001,2022-04-21_17h25.03.718,SPAMnetsValid,2021.1.4,MacIntel,60.04202942,,,,,,,,,,,,,,,,,,,,,,,,,,,,,,,,,,,,,,,,,,,,,,,,,,,,,,,,,,,,,,,,,,,,,,,,,,,,,,3,0.4246,0,5,5,5,1,I would have difficulty just letting my mind wander without control or guidance.,1,6,,
,,,,,,,,,,,,,,,90403,001,2022-04-21_17h25.03.718,SPAMnetsValid,2021.1.4,MacIntel,60.04202942,,,,,,,,,,,,,,,,,,,,,,,,,,,,,,,,,,,,,,,,,,,,,,,,,,,,,,,,,,,,,,,,,,,,,,,,,,,,,,3,0.439,0,6,6,6,1,I seldom notice the moods or feelings that different environments produce.,1,7,,
,,,,,,,,,,,,,,,90403,001,2022-04-21_17h25.03.718,SPAMnetsValid,2021.1.4,MacIntel,60.04202942,,,,,,,,,,,,,,,,,,,,,,,,,,,,,,,,,,,,,,,,,,,,,,,,,,,,,,,,,,,,,,,,,,,,,,,,,,,,,,3,0.4058,0,7,7,7,1,I experience a wide range of emotions or feelings.,0,8,,
,,,,,,,,,,,,,,,90403,001,2022-04-21_17h25.03.718,SPAMnetsValid,2021.1.4,MacIntel,60.04202942,,,,,,,,,,,,,,,,,,,,,,,,,,,,,,,,,,,,,,,,,,,,,,,,,,,,,,,,,,,,,,,,,,,,,,,,,,,,,,3,0.3714,0,8,8,8,1,"Sometimes when I am reading poetry or looking at a work of art, I feel a chill or wave of excitement.",0,9,,
,,,,,,,,,,,,,,,90403,001,2022-04-21_17h25.03.718,SPAMnetsValid,2021.1.4,MacIntel,60.04202942,,,,,,,,,,,,,,,,,,,,,,,,,,,,,,,,,,,,,,,,,,,,,,,,,,,,,,,,,,,,,,,,,,,,,,,,,,,,,,3,0.4393,0,9,9,9,1,I have little interest in speculating on the nature of the universe or the human condition.,1,10,,
,,,,,,,,,,,,,,,90403,001,2022-04-21_17h25.03.718,SPAMnetsValid,2021.1.4,MacIntel,60.04202942,,,,,,,,,,,,,,,,,,,,,,,,,,,,,,,,,,,,,,,,,,,,,,,,,,,,,,,,,,,,,,,,,,,,,,,,,,,,,,3,0.373,0,10,10,10,1,I have a lot of intellectual curiosity.,0,11,,
,,,,,,,,,,,,,,,90403,001,2022-04-21_17h25.03.718,SPAMnetsValid,2021.1.4,MacIntel,60.04202942,,,,,,,,,,,,,,,,,,,,,,,,,,,,,,,,,,,,,,,,,,,,,,,,,,,,,,,,,,,,,,,,,,,,,,,,,,,,,,3,0.4406,0,11,11,11,1,I often enjoy playing with theories or abstract ideas.,0,12,,
,,,,,,,,,,,,,,,90403,001,2022-04-21_17h25.03.718,SPAMnetsValid,2021.1.4,MacIntel,60.04202942,,,,,,,,,,,,,,,,,,,,,,,,,,,,,,,,,,,,,,,,,,,,,,,,,,,,,,,,,,,,,,,,,,,,,,,,,,,,,,,,,,,,,,,,return,5.7626
