key_resp_3.keys,key_resp_3.rt,slider_2.response,slider_2.rt,rjt_rating,rjt_RT,trials_24.thisRepN,trials_24.thisTrialN,trials_24.thisN,trials_24.thisIndex,trials_24.ran,rjt_order,word1,word2,attention,participant,session,date,expName,psychopyVersion,OS,frameRate,trials_4.thisRepN,trials_4.thisTrialN,trials_4.thisN,trials_4.thisIndex,trials_4.ran,trials_5.thisRepN,trials_5.thisTrialN,trials_5.thisN,trials_5.thisIndex,trials_5.ran,repOne,repTwo,slider.response,slider.rt,trials_22.thisRepN,trials_22.thisTrialN,trials_22.thisN,trials_22.thisIndex,trials_22.ran,trials_99.thisRepN,trials_99.thisTrialN,trials_99.thisN,trials_99.thisIndex,trials_99.ran,slider_extend_2.response,slider_extend_2.rt,trials_6.thisRepN,trials_6.thisTrialN,trials_6.thisN,trials_6.thisIndex,trials_6.ran,vCue2,R1,R2,R3,R4,correct,sliderVocab.response,sliderVocab.rt,trials_7.thisRepN,trials_7.thisTrialN,trials_7.thisN,trials_7.thisIndex,trials_7.ran,VocabCue,VR1,VR2,VR3,VR4,VR5,VocabCorrect,trials_2.thisRepN,trials_2.thisTrialN,trials_2.thisN,trials_2.thisIndex,trials_2.ran,aut_prompt,AUT_resp,AUT_label,trials.thisRepN,trials.thisTrialN,trials.thisN,trials.thisIndex,trials.ran,VF_response,VF_tag,trials_16.thisRepN,trials_16.thisTrialN,trials_16.thisN,trials_16.thisIndex,trials_16.ran,trials_17.thisRepN,trials_17.thisTrialN,trials_17.thisN,trials_17.thisIndex,trials_17.ran,VFcond,open_slider.response,open_slider.rt,trials_3.thisRepN,trials_3.thisTrialN,trials_3.thisN,trials_3.thisIndex,trials_3.ran,OpenQ,Rev,OPEN_ORDER,key_resp_2.keys,key_resp_2.rt
return,8.3806,1,7.7219,1,7.7219,0,0,0,63,1,137,microwave,tree,,90402,001,2022-04-27_12h48.14.627,SPAMnetsValid,2021.1.4,Win32,75.07507508,,,,,,,,,,,,,,,,,,,,,,,,,,,,,,,,,,,,,,,,,,,,,,,,,,,,,,,,,,,,,,,,,,,,,,,,,,,,,,,,,,,,,,,,,
,,6,5.5202,6,5.5202,0,1,1,62,1,189,onion,tree,,90402,001,2022-04-27_12h48.14.627,SPAMnetsValid,2021.1.4,Win32,75.07507508,,,,,,,,,,,,,,,,,,,,,,,,,,,,,,,,,,,,,,,,,,,,,,,,,,,,,,,,,,,,,,,,,,,,,,,,,,,,,,,,,,,,,,,,,
,,1,2.7341,1,2.7341,0,2,2,90,1,190,microwave,strawberry,,90402,001,2022-04-27_12h48.14.627,SPAMnetsValid,2021.1.4,Win32,75.07507508,,,,,,,,,,,,,,,,,,,,,,,,,,,,,,,,,,,,,,,,,,,,,,,,,,,,,,,,,,,,,,,,,,,,,,,,,,,,,,,,,,,,,,,,,
,,4,5.3187,4,5.3187,0,3,3,8,1,97,chocolate,kitchen,,90402,001,2022-04-27_12h48.14.627,SPAMnetsValid,2021.1.4,Win32,75.07507508,,,,,,,,,,,,,,,,,,,,,,,,,,,,,,,,,,,,,,,,,,,,,,,,,,,,,,,,,,,,,,,,,,,,,,,,,,,,,,,,,,,,,,,,,
,,1,2.3097,1,2.3097,0,4,4,80,1,146,pretzel,tree,,90402,001,2022-04-27_12h48.14.627,SPAMnetsValid,2021.1.4,Win32,75.07507508,,,,,,,,,,,,,,,,,,,,,,,,,,,,,,,,,,,,,,,,,,,,,,,,,,,,,,,,,,,,,,,,,,,,,,,,,,,,,,,,,,,,,,,,,
,,1,1.6036,1,1.6036,0,5,5,74,1,128,melon,microwave,,90402,001,2022-04-27_12h48.14.627,SPAMnetsValid,2021.1.4,Win32,75.07507508,,,,,,,,,,,,,,,,,,,,,,,,,,,,,,,,,,,,,,,,,,,,,,,,,,,,,,,,,,,,,,,,,,,,,,,,,,,,,,,,,,,,,,,,,
,,6,6.9122,6,6.9122,0,6,6,83,1,100,garden,tomato,,90402,001,2022-04-27_12h48.14.627,SPAMnetsValid,2021.1.4,Win32,75.07507508,,,,,,,,,,,,,,,,,,,,,,,,,,,,,,,,,,,,,,,,,,,,,,,,,,,,,,,,,,,,,,,,,,,,,,,,,,,,,,,,,,,,,,,,,
,,6,2.5908,6,2.5908,0,7,7,41,1,175,melon,onion,,90402,001,2022-04-27_12h48.14.627,SPAMnetsValid,2021.1.4,Win32,75.07507508,,,,,,,,,,,,,,,,,,,,,,,,,,,,,,,,,,,,,,,,,,,,,,,,,,,,,,,,,,,,,,,,,,,,,,,,,,,,,,,,,,,,,,,,,
,,1,5.838,1,5.838,0,8,8,20,1,149,broom,tomato,,90402,001,2022-04-27_12h48.14.627,SPAMnetsValid,2021.1.4,Win32,75.07507508,,,,,,,,,,,,,,,,,,,,,,,,,,,,,,,,,,,,,,,,,,,,,,,,,,,,,,,,,,,,,,,,,,,,,,,,,,,,,,,,,,,,,,,,,
,,5,3.3629,5,3.3629,0,9,9,35,1,147,cake,refrigerator,,90402,001,2022-04-27_12h48.14.627,SPAMnetsValid,2021.1.4,Win32,75.07507508,,,,,,,,,,,,,,,,,,,,,,,,,,,,,,,,,,,,,,,,,,,,,,,,,,,,,,,,,,,,,,,,,,,,,,,,,,,,,,,,,,,,,,,,,
,,8,4.2346,8,4.2346,0,10,10,14,1,120,microwave,oven,,90402,001,2022-04-27_12h48.14.627,SPAMnetsValid,2021.1.4,Win32,75.07507508,,,,,,,,,,,,,,,,,,,,,,,,,,,,,,,,,,,,,,,,,,,,,,,,,,,,,,,,,,,,,,,,,,,,,,,,,,,,,,,,,,,,,,,,,
,,2,5.959,2,5.959,0,11,11,95,1,121,broom,microwave,,90402,001,2022-04-27_12h48.14.627,SPAMnetsValid,2021.1.4,Win32,75.07507508,,,,,,,,,,,,,,,,,,,,,,,,,,,,,,,,,,,,,,,,,,,,,,,,,,,,,,,,,,,,,,,,,,,,,,,,,,,,,,,,,,,,,,,,,
,,4,2.3676,4,2.3676,0,12,12,39,1,112,cake,carrot,,90402,001,2022-04-27_12h48.14.627,SPAMnetsValid,2021.1.4,Win32,75.07507508,,,,,,,,,,,,,,,,,,,,,,,,,,,,,,,,,,,,,,,,,,,,,,,,,,,,,,,,,,,,,,,,,,,,,,,,,,,,,,,,,,,,,,,,,
,,7,2.4972,7,2.4972,0,13,13,11,1,117,melon,strawberry,,90402,001,2022-04-27_12h48.14.627,SPAMnetsValid,2021.1.4,Win32,75.07507508,,,,,,,,,,,,,,,,,,,,,,,,,,,,,,,,,,,,,,,,,,,,,,,,,,,,,,,,,,,,,,,,,,,,,,,,,,,,,,,,,,,,,,,,,
,,1,4.9987,1,4.9987,0,14,14,57,1,127,cactus,chocolate,,90402,001,2022-04-27_12h48.14.627,SPAMnetsValid,2021.1.4,Win32,75.07507508,,,,,,,,,,,,,,,,,,,,,,,,,,,,,,,,,,,,,,,,,,,,,,,,,,,,,,,,,,,,,,,,,,,,,,,,,,,,,,,,,,,,,,,,,
,,7,3.3857,7,3.3857,0,15,15,52,1,110,chocolate,cookie,,90402,001,2022-04-27_12h48.14.627,SPAMnetsValid,2021.1.4,Win32,75.07507508,,,,,,,,,,,,,,,,,,,,,,,,,,,,,,,,,,,,,,,,,,,,,,,,,,,,,,,,,,,,,,,,,,,,,,,,,,,,,,,,,,,,,,,,,
,,4,2.4744,4,2.4744,0,16,16,45,1,179,broom,oven,,90402,001,2022-04-27_12h48.14.627,SPAMnetsValid,2021.1.4,Win32,75.07507508,,,,,,,,,,,,,,,,,,,,,,,,,,,,,,,,,,,,,,,,,,,,,,,,,,,,,,,,,,,,,,,,,,,,,,,,,,,,,,,,,,,,,,,,,
,,6,7.2592,6,7.2592,0,17,17,53,1,177,chocolate,strawberry,,90402,001,2022-04-27_12h48.14.627,SPAMnetsValid,2021.1.4,Win32,75.07507508,,,,,,,,,,,,,,,,,,,,,,,,,,,,,,,,,,,,,,,,,,,,,,,,,,,,,,,,,,,,,,,,,,,,,,,,,,,,,,,,,,,,,,,,,
,,1,4.1555,1,4.1555,0,18,18,15,1,145,cactus,yogurt,,90402,001,2022-04-27_12h48.14.627,SPAMnetsValid,2021.1.4,Win32,75.07507508,,,,,,,,,,,,,,,,,,,,,,,,,,,,,,,,,,,,,,,,,,,,,,,,,,,,,,,,,,,,,,,,,,,,,,,,,,,,,,,,,,,,,,,,,
,,7,2.1114,7,2.1114,0,19,19,91,1,166,cake,yogurt,,90402,001,2022-04-27_12h48.14.627,SPAMnetsValid,2021.1.4,Win32,75.07507508,,,,,,,,,,,,,,,,,,,,,,,,,,,,,,,,,,,,,,,,,,,,,,,,,,,,,,,,,,,,,,,,,,,,,,,,,,,,,,,,,,,,,,,,,
,,6,2.4232,6,2.4232,0,20,20,1,1,173,kitchen,tomato,,90402,001,2022-04-27_12h48.14.627,SPAMnetsValid,2021.1.4,Win32,75.07507508,,,,,,,,,,,,,,,,,,,,,,,,,,,,,,,,,,,,,,,,,,,,,,,,,,,,,,,,,,,,,,,,,,,,,,,,,,,,,,,,,,,,,,,,,
,,4,3.4547,4,3.4547,0,21,21,82,1,98,pretzel,strawberry,,90402,001,2022-04-27_12h48.14.627,SPAMnetsValid,2021.1.4,Win32,75.07507508,,,,,,,,,,,,,,,,,,,,,,,,,,,,,,,,,,,,,,,,,,,,,,,,,,,,,,,,,,,,,,,,,,,,,,,,,,,,,,,,,,,,,,,,,
,,7,2.2052,7,2.2052,0,22,22,44,1,116,cake,chocolate,,90402,001,2022-04-27_12h48.14.627,SPAMnetsValid,2021.1.4,Win32,75.07507508,,,,,,,,,,,,,,,,,,,,,,,,,,,,,,,,,,,,,,,,,,,,,,,,,,,,,,,,,,,,,,,,,,,,,,,,,,,,,,,,,,,,,,,,,
,,1,5.6998,1,5.6998,0,23,23,67,1,96,oven,strawberry,,90402,001,2022-04-27_12h48.14.627,SPAMnetsValid,2021.1.4,Win32,75.07507508,,,,,,,,,,,,,,,,,,,,,,,,,,,,,,,,,,,,,,,,,,,,,,,,,,,,,,,,,,,,,,,,,,,,,,,,,,,,,,,,,,,,,,,,,
,,6,3.9705,6,3.9705,0,24,24,18,1,119,strawberry,tree,,90402,001,2022-04-27_12h48.14.627,SPAMnetsValid,2021.1.4,Win32,75.07507508,,,,,,,,,,,,,,,,,,,,,,,,,,,,,,,,,,,,,,,,,,,,,,,,,,,,,,,,,,,,,,,,,,,,,,,,,,,,,,,,,,,,,,,,,
,,2,7.0079,2,7.0079,0,25,25,64,1,157,refrigerator,rose,,90402,001,2022-04-27_12h48.14.627,SPAMnetsValid,2021.1.4,Win32,75.07507508,,,,,,,,,,,,,,,,,,,,,,,,,,,,,,,,,,,,,,,,,,,,,,,,,,,,,,,,,,,,,,,,,,,,,,,,,,,,,,,,,,,,,,,,,
,,6,6.195,6,6.195,0,26,26,17,1,99,garden,melon,,90402,001,2022-04-27_12h48.14.627,SPAMnetsValid,2021.1.4,Win32,75.07507508,,,,,,,,,,,,,,,,,,,,,,,,,,,,,,,,,,,,,,,,,,,,,,,,,,,,,,,,,,,,,,,,,,,,,,,,,,,,,,,,,,,,,,,,,
,,1,4.4159,1,4.4159,0,27,27,32,1,182,flower,refrigerator,,90402,001,2022-04-27_12h48.14.627,SPAMnetsValid,2021.1.4,Win32,75.07507508,,,,,,,,,,,,,,,,,,,,,,,,,,,,,,,,,,,,,,,,,,,,,,,,,,,,,,,,,,,,,,,,,,,,,,,,,,,,,,,,,,,,,,,,,
,,8,5.4279,8,5.4279,0,28,28,60,1,122,flower,garden,,90402,001,2022-04-27_12h48.14.627,SPAMnetsValid,2021.1.4,Win32,75.07507508,,,,,,,,,,,,,,,,,,,,,,,,,,,,,,,,,,,,,,,,,,,,,,,,,,,,,,,,,,,,,,,,,,,,,,,,,,,,,,,,,,,,,,,,,
,,5,10.7641,5,10.7641,0,29,29,27,1,158,cookie,oven,,90402,001,2022-04-27_12h48.14.627,SPAMnetsValid,2021.1.4,Win32,75.07507508,,,,,,,,,,,,,,,,,,,,,,,,,,,,,,,,,,,,,,,,,,,,,,,,,,,,,,,,,,,,,,,,,,,,,,,,,,,,,,,,,,,,,,,,,
,,3,4.1105,3,4.1105,0,30,30,94,1,133,cake,flower,,90402,001,2022-04-27_12h48.14.627,SPAMnetsValid,2021.1.4,Win32,75.07507508,,,,,,,,,,,,,,,,,,,,,,,,,,,,,,,,,,,,,,,,,,,,,,,,,,,,,,,,,,,,,,,,,,,,,,,,,,,,,,,,,,,,,,,,,
,,1,2.5214,1,2.5214,0,31,31,3,1,129,cactus,refrigerator,,90402,001,2022-04-27_12h48.14.627,SPAMnetsValid,2021.1.4,Win32,75.07507508,,,,,,,,,,,,,,,,,,,,,,,,,,,,,,,,,,,,,,,,,,,,,,,,,,,,,,,,,,,,,,,,,,,,,,,,,,,,,,,,,,,,,,,,,
,,5,3.1899,5,3.1899,0,32,32,23,1,148,flower,melon,,90402,001,2022-04-27_12h48.14.627,SPAMnetsValid,2021.1.4,Win32,75.07507508,,,,,,,,,,,,,,,,,,,,,,,,,,,,,,,,,,,,,,,,,,,,,,,,,,,,,,,,,,,,,,,,,,,,,,,,,,,,,,,,,,,,,,,,,
,,5,3.5734,5,3.5734,0,33,33,72,1,181,carrot,kitchen,,90402,001,2022-04-27_12h48.14.627,SPAMnetsValid,2021.1.4,Win32,75.07507508,,,,,,,,,,,,,,,,,,,,,,,,,,,,,,,,,,,,,,,,,,,,,,,,,,,,,,,,,,,,,,,,,,,,,,,,,,,,,,,,,,,,,,,,,
,,6,2.9123,6,2.9123,0,34,34,48,1,186,kitchen,yogurt,,90402,001,2022-04-27_12h48.14.627,SPAMnetsValid,2021.1.4,Win32,75.07507508,,,,,,,,,,,,,,,,,,,,,,,,,,,,,,,,,,,,,,,,,,,,,,,,,,,,,,,,,,,,,,,,,,,,,,,,,,,,,,,,,,,,,,,,,
,,4,2.0706,4,2.0706,0,35,35,36,1,161,kitchen,pretzel,,90402,001,2022-04-27_12h48.14.627,SPAMnetsValid,2021.1.4,Win32,75.07507508,,,,,,,,,,,,,,,,,,,,,,,,,,,,,,,,,,,,,,,,,,,,,,,,,,,,,,,,,,,,,,,,,,,,,,,,,,,,,,,,,,,,,,,,,
,,1,1.9143,1,1.9143,0,36,36,71,1,187,cactus,microwave,,90402,001,2022-04-27_12h48.14.627,SPAMnetsValid,2021.1.4,Win32,75.07507508,,,,,,,,,,,,,,,,,,,,,,,,,,,,,,,,,,,,,,,,,,,,,,,,,,,,,,,,,,,,,,,,,,,,,,,,,,,,,,,,,,,,,,,,,
,,8,3.5149,8,3.5149,0,37,37,51,1,168,cactus,flower,,90402,001,2022-04-27_12h48.14.627,SPAMnetsValid,2021.1.4,Win32,75.07507508,,,,,,,,,,,,,,,,,,,,,,,,,,,,,,,,,,,,,,,,,,,,,,,,,,,,,,,,,,,,,,,,,,,,,,,,,,,,,,,,,,,,,,,,,
,,5,4.5866,5,4.5866,0,38,38,77,1,172,kitchen,melon,,90402,001,2022-04-27_12h48.14.627,SPAMnetsValid,2021.1.4,Win32,75.07507508,,,,,,,,,,,,,,,,,,,,,,,,,,,,,,,,,,,,,,,,,,,,,,,,,,,,,,,,,,,,,,,,,,,,,,,,,,,,,,,,,,,,,,,,,
,,4,2.6411,4,2.6411,0,39,39,92,1,170,cookie,microwave,,90402,001,2022-04-27_12h48.14.627,SPAMnetsValid,2021.1.4,Win32,75.07507508,,,,,,,,,,,,,,,,,,,,,,,,,,,,,,,,,,,,,,,,,,,,,,,,,,,,,,,,,,,,,,,,,,,,,,,,,,,,,,,,,,,,,,,,,
,,4,5.6284,4,5.6284,0,40,40,19,1,183,cake,rose,,90402,001,2022-04-27_12h48.14.627,SPAMnetsValid,2021.1.4,Win32,75.07507508,,,,,,,,,,,,,,,,,,,,,,,,,,,,,,,,,,,,,,,,,,,,,,,,,,,,,,,,,,,,,,,,,,,,,,,,,,,,,,,,,,,,,,,,,
,,1,3.3335,1,3.3335,0,41,41,13,1,105,cactus,oven,,90402,001,2022-04-27_12h48.14.627,SPAMnetsValid,2021.1.4,Win32,75.07507508,,,,,,,,,,,,,,,,,,,,,,,,,,,,,,,,,,,,,,,,,,,,,,,,,,,,,,,,,,,,,,,,,,,,,,,,,,,,,,,,,,,,,,,,,
,,3,3.6362,3,3.6362,0,42,42,4,1,109,broom,strawberry,,90402,001,2022-04-27_12h48.14.627,SPAMnetsValid,2021.1.4,Win32,75.07507508,,,,,,,,,,,,,,,,,,,,,,,,,,,,,,,,,,,,,,,,,,,,,,,,,,,,,,,,,,,,,,,,,,,,,,,,,,,,,,,,,,,,,,,,,
,,2,1.5737,2,1.5737,0,43,43,84,1,130,microwave,yogurt,,90402,001,2022-04-27_12h48.14.627,SPAMnetsValid,2021.1.4,Win32,75.07507508,,,,,,,,,,,,,,,,,,,,,,,,,,,,,,,,,,,,,,,,,,,,,,,,,,,,,,,,,,,,,,,,,,,,,,,,,,,,,,,,,,,,,,,,,
,,6,2.3469,6,2.3469,0,44,44,49,1,152,cactus,strawberry,,90402,001,2022-04-27_12h48.14.627,SPAMnetsValid,2021.1.4,Win32,75.07507508,,,,,,,,,,,,,,,,,,,,,,,,,,,,,,,,,,,,,,,,,,,,,,,,,,,,,,,,,,,,,,,,,,,,,,,,,,,,,,,,,,,,,,,,,
,,5,1.9832,5,1.9832,0,45,45,30,1,125,carrot,tree,,90402,001,2022-04-27_12h48.14.627,SPAMnetsValid,2021.1.4,Win32,75.07507508,,,,,,,,,,,,,,,,,,,,,,,,,,,,,,,,,,,,,,,,,,,,,,,,,,,,,,,,,,,,,,,,,,,,,,,,,,,,,,,,,,,,,,,,,
,,7,1.8554,7,1.8554,0,46,46,7,1,188,flower,tree,,90402,001,2022-04-27_12h48.14.627,SPAMnetsValid,2021.1.4,Win32,75.07507508,,,,,,,,,,,,,,,,,,,,,,,,,,,,,,,,,,,,,,,,,,,,,,,,,,,,,,,,,,,,,,,,,,,,,,,,,,,,,,,,,,,,,,,,,
,,2,2.2932,2,2.2932,0,47,47,21,1,159,cookie,flower,,90402,001,2022-04-27_12h48.14.627,SPAMnetsValid,2021.1.4,Win32,75.07507508,,,,,,,,,,,,,,,,,,,,,,,,,,,,,,,,,,,,,,,,,,,,,,,,,,,,,,,,,,,,,,,,,,,,,,,,,,,,,,,,,,,,,,,,,
,,1,1.0057,1,1.0057,0,48,48,75,1,178,cactus,carrot,,90402,001,2022-04-27_12h48.14.627,SPAMnetsValid,2021.1.4,Win32,75.07507508,,,,,,,,,,,,,,,,,,,,,,,,,,,,,,,,,,,,,,,,,,,,,,,,,,,,,,,,,,,,,,,,,,,,,,,,,,,,,,,,,,,,,,,,,
,,6,2.4415,6,2.4415,0,49,49,26,1,107,rose,tomato,,90402,001,2022-04-27_12h48.14.627,SPAMnetsValid,2021.1.4,Win32,75.07507508,,,,,,,,,,,,,,,,,,,,,,,,,,,,,,,,,,,,,,,,,,,,,,,,,,,,,,,,,,,,,,,,,,,,,,,,,,,,,,,,,,,,,,,,,
,,1,1.4147,1,1.4147,0,50,50,50,1,126,kitchen,tree,,90402,001,2022-04-27_12h48.14.627,SPAMnetsValid,2021.1.4,Win32,75.07507508,,,,,,,,,,,,,,,,,,,,,,,,,,,,,,,,,,,,,,,,,,,,,,,,,,,,,,,,,,,,,,,,,,,,,,,,,,,,,,,,,,,,,,,,,
,,1,1.867,1,1.867,0,51,51,46,1,123,cookie,tree,,90402,001,2022-04-27_12h48.14.627,SPAMnetsValid,2021.1.4,Win32,75.07507508,,,,,,,,,,,,,,,,,,,,,,,,,,,,,,,,,,,,,,,,,,,,,,,,,,,,,,,,,,,,,,,,,,,,,,,,,,,,,,,,,,,,,,,,,
,,3,3.8271,3,3.8271,0,52,52,65,1,160,cookie,kitchen,,90402,001,2022-04-27_12h48.14.627,SPAMnetsValid,2021.1.4,Win32,75.07507508,,,,,,,,,,,,,,,,,,,,,,,,,,,,,,,,,,,,,,,,,,,,,,,,,,,,,,,,,,,,,,,,,,,,,,,,,,,,,,,,,,,,,,,,,
,,2,1.4142,2,1.4142,0,53,53,68,1,180,tree,yogurt,,90402,001,2022-04-27_12h48.14.627,SPAMnetsValid,2021.1.4,Win32,75.07507508,,,,,,,,,,,,,,,,,,,,,,,,,,,,,,,,,,,,,,,,,,,,,,,,,,,,,,,,,,,,,,,,,,,,,,,,,,,,,,,,,,,,,,,,,
,,6,1.917,6,1.917,0,54,54,31,1,156,melon,rose,,90402,001,2022-04-27_12h48.14.627,SPAMnetsValid,2021.1.4,Win32,75.07507508,,,,,,,,,,,,,,,,,,,,,,,,,,,,,,,,,,,,,,,,,,,,,,,,,,,,,,,,,,,,,,,,,,,,,,,,,,,,,,,,,,,,,,,,,
,,1,5.9033,1,5.9033,0,55,55,16,1,111,carrot,microwave,,90402,001,2022-04-27_12h48.14.627,SPAMnetsValid,2021.1.4,Win32,75.07507508,,,,,,,,,,,,,,,,,,,,,,,,,,,,,,,,,,,,,,,,,,,,,,,,,,,,,,,,,,,,,,,,,,,,,,,,,,,,,,,,,,,,,,,,,
,,1,1.1848,1,1.1848,0,56,56,34,1,153,carrot,pretzel,,90402,001,2022-04-27_12h48.14.627,SPAMnetsValid,2021.1.4,Win32,75.07507508,,,,,,,,,,,,,,,,,,,,,,,,,,,,,,,,,,,,,,,,,,,,,,,,,,,,,,,,,,,,,,,,,,,,,,,,,,,,,,,,,,,,,,,,,
,,3,6.1635,3,6.1635,0,57,57,10,1,118,chocolate,oven,,90402,001,2022-04-27_12h48.14.627,SPAMnetsValid,2021.1.4,Win32,75.07507508,,,,,,,,,,,,,,,,,,,,,,,,,,,,,,,,,,,,,,,,,,,,,,,,,,,,,,,,,,,,,,,,,,,,,,,,,,,,,,,,,,,,,,,,,
,,2,6.4861,2,6.4861,0,58,58,96,1,136,chocolate,microwave,,90402,001,2022-04-27_12h48.14.627,SPAMnetsValid,2021.1.4,Win32,75.07507508,,,,,,,,,,,,,,,,,,,,,,,,,,,,,,,,,,,,,,,,,,,,,,,,,,,,,,,,,,,,,,,,,,,,,,,,,,,,,,,,,,,,,,,,,
,,7,4.8821,7,4.8821,0,59,59,56,1,113,refrigerator,strawberry,,90402,001,2022-04-27_12h48.14.627,SPAMnetsValid,2021.1.4,Win32,75.07507508,,,,,,,,,,,,,,,,,,,,,,,,,,,,,,,,,,,,,,,,,,,,,,,,,,,,,,,,,,,,,,,,,,,,,,,,,,,,,,,,,,,,,,,,,
,,2,7.4984,2,7.4984,0,60,60,24,1,169,onion,yogurt,,90402,001,2022-04-27_12h48.14.627,SPAMnetsValid,2021.1.4,Win32,75.07507508,,,,,,,,,,,,,,,,,,,,,,,,,,,,,,,,,,,,,,,,,,,,,,,,,,,,,,,,,,,,,,,,,,,,,,,,,,,,,,,,,,,,,,,,,
,,3,2.0598,3,2.0598,0,61,61,42,1,184,oven,pretzel,,90402,001,2022-04-27_12h48.14.627,SPAMnetsValid,2021.1.4,Win32,75.07507508,,,,,,,,,,,,,,,,,,,,,,,,,,,,,,,,,,,,,,,,,,,,,,,,,,,,,,,,,,,,,,,,,,,,,,,,,,,,,,,,,,,,,,,,,
,,2,1.8524,2,1.8524,0,62,62,2,1,174,cake,pretzel,,90402,001,2022-04-27_12h48.14.627,SPAMnetsValid,2021.1.4,Win32,75.07507508,,,,,,,,,,,,,,,,,,,,,,,,,,,,,,,,,,,,,,,,,,,,,,,,,,,,,,,,,,,,,,,,,,,,,,,,,,,,,,,,,,,,,,,,,
,,5,1.7745,5,1.7745,0,63,63,0,1,106,cake,strawberry,,90402,001,2022-04-27_12h48.14.627,SPAMnetsValid,2021.1.4,Win32,75.07507508,,,,,,,,,,,,,,,,,,,,,,,,,,,,,,,,,,,,,,,,,,,,,,,,,,,,,,,,,,,,,,,,,,,,,,,,,,,,,,,,,,,,,,,,,
,,3,3.232,3,3.232,0,64,64,76,1,102,chocolate,refrigerator,,90402,001,2022-04-27_12h48.14.627,SPAMnetsValid,2021.1.4,Win32,75.07507508,,,,,,,,,,,,,,,,,,,,,,,,,,,,,,,,,,,,,,,,,,,,,,,,,,,,,,,,,,,,,,,,,,,,,,,,,,,,,,,,,,,,,,,,,
,,1,11.4863,1,11.4863,0,65,65,59,1,164,cookie,garden,,90402,001,2022-04-27_12h48.14.627,SPAMnetsValid,2021.1.4,Win32,75.07507508,,,,,,,,,,,,,,,,,,,,,,,,,,,,,,,,,,,,,,,,,,,,,,,,,,,,,,,,,,,,,,,,,,,,,,,,,,,,,,,,,,,,,,,,,
,,1,2.002,1,2.002,0,66,66,5,1,108,carrot,chocolate,,90402,001,2022-04-27_12h48.14.627,SPAMnetsValid,2021.1.4,Win32,75.07507508,,,,,,,,,,,,,,,,,,,,,,,,,,,,,,,,,,,,,,,,,,,,,,,,,,,,,,,,,,,,,,,,,,,,,,,,,,,,,,,,,,,,,,,,,
,,6,1.2286,6,1.2286,0,67,67,70,1,141,melon,tomato,,90402,001,2022-04-27_12h48.14.627,SPAMnetsValid,2021.1.4,Win32,75.07507508,,,,,,,,,,,,,,,,,,,,,,,,,,,,,,,,,,,,,,,,,,,,,,,,,,,,,,,,,,,,,,,,,,,,,,,,,,,,,,,,,,,,,,,,,
,,7,2.9829,7,2.9829,0,68,68,47,1,167,carrot,garden,,90402,001,2022-04-27_12h48.14.627,SPAMnetsValid,2021.1.4,Win32,75.07507508,,,,,,,,,,,,,,,,,,,,,,,,,,,,,,,,,,,,,,,,,,,,,,,,,,,,,,,,,,,,,,,,,,,,,,,,,,,,,,,,,,,,,,,,,
,,3,2.7405,3,2.7405,0,69,69,87,1,114,cookie,strawberry,,90402,001,2022-04-27_12h48.14.627,SPAMnetsValid,2021.1.4,Win32,75.07507508,,,,,,,,,,,,,,,,,,,,,,,,,,,,,,,,,,,,,,,,,,,,,,,,,,,,,,,,,,,,,,,,,,,,,,,,,,,,,,,,,,,,,,,,,
,,2,3.7075,2,3.7075,0,70,70,33,1,131,cactus,garden,,90402,001,2022-04-27_12h48.14.627,SPAMnetsValid,2021.1.4,Win32,75.07507508,,,,,,,,,,,,,,,,,,,,,,,,,,,,,,,,,,,,,,,,,,,,,,,,,,,,,,,,,,,,,,,,,,,,,,,,,,,,,,,,,,,,,,,,,
,,9,2.7988,9,2.7988,0,71,71,86,1,193,melon,melon,CHECK,90402,001,2022-04-27_12h48.14.627,SPAMnetsValid,2021.1.4,Win32,75.07507508,,,,,,,,,,,,,,,,,,,,,,,,,,,,,,,,,,,,,,,,,,,,,,,,,,,,,,,,,,,,,,,,,,,,,,,,,,,,,,,,,,,,,,,,,
,,1,4.9923,1,4.9923,0,72,72,12,1,162,microwave,tomato,,90402,001,2022-04-27_12h48.14.627,SPAMnetsValid,2021.1.4,Win32,75.07507508,,,,,,,,,,,,,,,,,,,,,,,,,,,,,,,,,,,,,,,,,,,,,,,,,,,,,,,,,,,,,,,,,,,,,,,,,,,,,,,,,,,,,,,,,
,,1,7.8284,1,7.8284,0,73,73,88,1,171,cake,tomato,,90402,001,2022-04-27_12h48.14.627,SPAMnetsValid,2021.1.4,Win32,75.07507508,,,,,,,,,,,,,,,,,,,,,,,,,,,,,,,,,,,,,,,,,,,,,,,,,,,,,,,,,,,,,,,,,,,,,,,,,,,,,,,,,,,,,,,,,
,,6,7.2554,6,7.2554,0,74,74,28,1,154,strawberry,yogurt,,90402,001,2022-04-27_12h48.14.627,SPAMnetsValid,2021.1.4,Win32,75.07507508,,,,,,,,,,,,,,,,,,,,,,,,,,,,,,,,,,,,,,,,,,,,,,,,,,,,,,,,,,,,,,,,,,,,,,,,,,,,,,,,,,,,,,,,,
,,7,4.0726,7,4.0726,0,75,75,43,1,185,cactus,rose,,90402,001,2022-04-27_12h48.14.627,SPAMnetsValid,2021.1.4,Win32,75.07507508,,,,,,,,,,,,,,,,,,,,,,,,,,,,,,,,,,,,,,,,,,,,,,,,,,,,,,,,,,,,,,,,,,,,,,,,,,,,,,,,,,,,,,,,,
,,7,1.5778,7,1.5778,0,76,76,61,1,138,flower,rose,,90402,001,2022-04-27_12h48.14.627,SPAMnetsValid,2021.1.4,Win32,75.07507508,,,,,,,,,,,,,,,,,,,,,,,,,,,,,,,,,,,,,,,,,,,,,,,,,,,,,,,,,,,,,,,,,,,,,,,,,,,,,,,,,,,,,,,,,
,,2,7.2628,2,7.2628,0,77,77,79,1,103,pretzel,tomato,,90402,001,2022-04-27_12h48.14.627,SPAMnetsValid,2021.1.4,Win32,75.07507508,,,,,,,,,,,,,,,,,,,,,,,,,,,,,,,,,,,,,,,,,,,,,,,,,,,,,,,,,,,,,,,,,,,,,,,,,,,,,,,,,,,,,,,,,
,,4,2.131,4,2.131,0,78,78,93,1,134,carrot,flower,,90402,001,2022-04-27_12h48.14.627,SPAMnetsValid,2021.1.4,Win32,75.07507508,,,,,,,,,,,,,,,,,,,,,,,,,,,,,,,,,,,,,,,,,,,,,,,,,,,,,,,,,,,,,,,,,,,,,,,,,,,,,,,,,,,,,,,,,
,,1,1.4283,1,1.4283,0,79,79,73,1,135,carrot,oven,,90402,001,2022-04-27_12h48.14.627,SPAMnetsValid,2021.1.4,Win32,75.07507508,,,,,,,,,,,,,,,,,,,,,,,,,,,,,,,,,,,,,,,,,,,,,,,,,,,,,,,,,,,,,,,,,,,,,,,,,,,,,,,,,,,,,,,,,
,,7,3.7096,7,3.7096,0,80,80,69,1,124,oven,refrigerator,,90402,001,2022-04-27_12h48.14.627,SPAMnetsValid,2021.1.4,Win32,75.07507508,,,,,,,,,,,,,,,,,,,,,,,,,,,,,,,,,,,,,,,,,,,,,,,,,,,,,,,,,,,,,,,,,,,,,,,,,,,,,,,,,,,,,,,,,
,,6,7.0679,6,7.0679,0,81,81,37,1,139,carrot,strawberry,,90402,001,2022-04-27_12h48.14.627,SPAMnetsValid,2021.1.4,Win32,75.07507508,,,,,,,,,,,,,,,,,,,,,,,,,,,,,,,,,,,,,,,,,,,,,,,,,,,,,,,,,,,,,,,,,,,,,,,,,,,,,,,,,,,,,,,,,
,,1,1.3976,1,1.3976,0,82,82,81,1,104,garden,microwave,,90402,001,2022-04-27_12h48.14.627,SPAMnetsValid,2021.1.4,Win32,75.07507508,,,,,,,,,,,,,,,,,,,,,,,,,,,,,,,,,,,,,,,,,,,,,,,,,,,,,,,,,,,,,,,,,,,,,,,,,,,,,,,,,,,,,,,,,
,,6,1.7889,6,1.7889,0,83,83,29,1,163,melon,refrigerator,,90402,001,2022-04-27_12h48.14.627,SPAMnetsValid,2021.1.4,Win32,75.07507508,,,,,,,,,,,,,,,,,,,,,,,,,,,,,,,,,,,,,,,,,,,,,,,,,,,,,,,,,,,,,,,,,,,,,,,,,,,,,,,,,,,,,,,,,
,,1,2.197,1,2.197,0,84,84,78,1,132,broom,tree,,90402,001,2022-04-27_12h48.14.627,SPAMnetsValid,2021.1.4,Win32,75.07507508,,,,,,,,,,,,,,,,,,,,,,,,,,,,,,,,,,,,,,,,,,,,,,,,,,,,,,,,,,,,,,,,,,,,,,,,,,,,,,,,,,,,,,,,,
,,1,1.6601,1,1.6601,0,85,85,58,1,144,cake,garden,,90402,001,2022-04-27_12h48.14.627,SPAMnetsValid,2021.1.4,Win32,75.07507508,,,,,,,,,,,,,,,,,,,,,,,,,,,,,,,,,,,,,,,,,,,,,,,,,,,,,,,,,,,,,,,,,,,,,,,,,,,,,,,,,,,,,,,,,
,,5,2.5093,5,2.5093,0,86,86,40,1,165,onion,rose,,90402,001,2022-04-27_12h48.14.627,SPAMnetsValid,2021.1.4,Win32,75.07507508,,,,,,,,,,,,,,,,,,,,,,,,,,,,,,,,,,,,,,,,,,,,,,,,,,,,,,,,,,,,,,,,,,,,,,,,,,,,,,,,,,,,,,,,,
,,1,1.2456,1,1.2456,0,87,87,6,1,151,microwave,onion,,90402,001,2022-04-27_12h48.14.627,SPAMnetsValid,2021.1.4,Win32,75.07507508,,,,,,,,,,,,,,,,,,,,,,,,,,,,,,,,,,,,,,,,,,,,,,,,,,,,,,,,,,,,,,,,,,,,,,,,,,,,,,,,,,,,,,,,,
,,7,1.5134,7,1.5134,0,88,88,22,1,142,garden,tree,,90402,001,2022-04-27_12h48.14.627,SPAMnetsValid,2021.1.4,Win32,75.07507508,,,,,,,,,,,,,,,,,,,,,,,,,,,,,,,,,,,,,,,,,,,,,,,,,,,,,,,,,,,,,,,,,,,,,,,,,,,,,,,,,,,,,,,,,
,,1,3.1608,1,3.1608,0,89,89,55,1,143,pretzel,rose,,90402,001,2022-04-27_12h48.14.627,SPAMnetsValid,2021.1.4,Win32,75.07507508,,,,,,,,,,,,,,,,,,,,,,,,,,,,,,,,,,,,,,,,,,,,,,,,,,,,,,,,,,,,,,,,,,,,,,,,,,,,,,,,,,,,,,,,,
,,1,1.3767,1,1.3767,0,90,90,38,1,155,carrot,cookie,,90402,001,2022-04-27_12h48.14.627,SPAMnetsValid,2021.1.4,Win32,75.07507508,,,,,,,,,,,,,,,,,,,,,,,,,,,,,,,,,,,,,,,,,,,,,,,,,,,,,,,,,,,,,,,,,,,,,,,,,,,,,,,,,,,,,,,,,
,,2,5.2034,2,5.2034,0,91,91,54,1,101,cactus,kitchen,,90402,001,2022-04-27_12h48.14.627,SPAMnetsValid,2021.1.4,Win32,75.07507508,,,,,,,,,,,,,,,,,,,,,,,,,,,,,,,,,,,,,,,,,,,,,,,,,,,,,,,,,,,,,,,,,,,,,,,,,,,,,,,,,,,,,,,,,
,,4,2.5016,4,2.5016,0,92,92,85,1,115,refrigerator,tomato,,90402,001,2022-04-27_12h48.14.627,SPAMnetsValid,2021.1.4,Win32,75.07507508,,,,,,,,,,,,,,,,,,,,,,,,,,,,,,,,,,,,,,,,,,,,,,,,,,,,,,,,,,,,,,,,,,,,,,,,,,,,,,,,,,,,,,,,,
,,6,4.1579,6,4.1579,0,93,93,66,1,150,microwave,refrigerator,,90402,001,2022-04-27_12h48.14.627,SPAMnetsValid,2021.1.4,Win32,75.07507508,,,,,,,,,,,,,,,,,,,,,,,,,,,,,,,,,,,,,,,,,,,,,,,,,,,,,,,,,,,,,,,,,,,,,,,,,,,,,,,,,,,,,,,,,
,,9,1.3844,9,1.3844,0,94,94,25,1,194,cactus,cactus,CHECK,90402,001,2022-04-27_12h48.14.627,SPAMnetsValid,2021.1.4,Win32,75.07507508,,,,,,,,,,,,,,,,,,,,,,,,,,,,,,,,,,,,,,,,,,,,,,,,,,,,,,,,,,,,,,,,,,,,,,,,,,,,,,,,,,,,,,,,,
,,2,3.6618,2,3.6618,0,95,95,89,1,140,cookie,refrigerator,,90402,001,2022-04-27_12h48.14.627,SPAMnetsValid,2021.1.4,Win32,75.07507508,,,,,,,,,,,,,,,,,,,,,,,,,,,,,,,,,,,,,,,,,,,,,,,,,,,,,,,,,,,,,,,,,,,,,,,,,,,,,,,,,,,,,,,,,
,,1,1.3092,1,1.3092,0,96,96,9,1,176,cactus,tomato,,90402,001,2022-04-27_12h48.14.627,SPAMnetsValid,2021.1.4,Win32,75.07507508,,,,,,,,,,,,,,,,,,,,,,,,,,,,,,,,,,,,,,,,,,,,,,,,,,,,,,,,,,,,,,,,,,,,,,,,,,,,,,,,,,,,,,,,,
,,,,,,,,,,,,,,,90402,001,2022-04-27_12h48.14.627,SPAMnetsValid,2021.1.4,Win32,75.07507508,0,0,0,0,1,,,,,,,,,,,,,,,,,,,,,,,,,,,,,,,,,,,,,,,,,,,,,,,,,,,,,,,,,,,,,,,,,,,,,,,,,,,,,,,,,,,,
,,,,,,,,,,,,,,,90402,001,2022-04-27_12h48.14.627,SPAMnetsValid,2021.1.4,Win32,75.07507508,,,,,,0,0,0,1,1,0,1,,,,,,,,,,,,,,,,,,,,,,,,,,,,,,,,,,,,,,,,,,,,,,,,,,,,,,,,,,,,,,,,,,,,,,,,,,,,,
,,,,2,25.7625,,,,,,57,flower,kitchen,,90402,001,2022-04-27_12h48.14.627,SPAMnetsValid,2021.1.4,Win32,75.07507508,,,,,,,,,,,,,2,25.7625,0,0,0,49,1,,,,,,,,,,,,,,,,,,,,,,,,,,,,,,,,,,,,,,,,,,,,,,,,,,,,,,,,,,,,,,,,,,,,,,
,,,,1,3.8472,,,,,,84,oven,tomato,,90402,001,2022-04-27_12h48.14.627,SPAMnetsValid,2021.1.4,Win32,75.07507508,,,,,,,,,,,,,1,3.8472,0,1,1,28,1,,,,,,,,,,,,,,,,,,,,,,,,,,,,,,,,,,,,,,,,,,,,,,,,,,,,,,,,,,,,,,,,,,,,,,
,,,,2,3.4822,,,,,,39,melon,pretzel,,90402,001,2022-04-27_12h48.14.627,SPAMnetsValid,2021.1.4,Win32,75.07507508,,,,,,,,,,,,,2,3.4822,0,2,2,20,1,,,,,,,,,,,,,,,,,,,,,,,,,,,,,,,,,,,,,,,,,,,,,,,,,,,,,,,,,,,,,,,,,,,,,,
,,,,1,1.2255,,,,,,72,broom,onion,,90402,001,2022-04-27_12h48.14.627,SPAMnetsValid,2021.1.4,Win32,75.07507508,,,,,,,,,,,,,1,1.2255,0,3,3,27,1,,,,,,,,,,,,,,,,,,,,,,,,,,,,,,,,,,,,,,,,,,,,,,,,,,,,,,,,,,,,,,,,,,,,,,
,,,,1,0.9729,,,,,,8,broom,melon,,90402,001,2022-04-27_12h48.14.627,SPAMnetsValid,2021.1.4,Win32,75.07507508,,,,,,,,,,,,,1,0.9729,0,4,4,59,1,,,,,,,,,,,,,,,,,,,,,,,,,,,,,,,,,,,,,,,,,,,,,,,,,,,,,,,,,,,,,,,,,,,,,,
,,,,5,1.8308,,,,,,17,carrot,melon,,90402,001,2022-04-27_12h48.14.627,SPAMnetsValid,2021.1.4,Win32,75.07507508,,,,,,,,,,,,,5,1.8308,0,5,5,24,1,,,,,,,,,,,,,,,,,,,,,,,,,,,,,,,,,,,,,,,,,,,,,,,,,,,,,,,,,,,,,,,,,,,,,,
,,,,1,1.0092,,,,,,19,microwave,pretzel,,90402,001,2022-04-27_12h48.14.627,SPAMnetsValid,2021.1.4,Win32,75.07507508,,,,,,,,,,,,,1,1.0092,0,6,6,41,1,,,,,,,,,,,,,,,,,,,,,,,,,,,,,,,,,,,,,,,,,,,,,,,,,,,,,,,,,,,,,,,,,,,,,,
,,,,6,2.0856,,,,,,47,onion,tomato,,90402,001,2022-04-27_12h48.14.627,SPAMnetsValid,2021.1.4,Win32,75.07507508,,,,,,,,,,,,,6,2.0856,0,7,7,51,1,,,,,,,,,,,,,,,,,,,,,,,,,,,,,,,,,,,,,,,,,,,,,,,,,,,,,,,,,,,,,,,,,,,,,,
,,,,1,1.2145,,,,,,48,flower,oven,,90402,001,2022-04-27_12h48.14.627,SPAMnetsValid,2021.1.4,Win32,75.07507508,,,,,,,,,,,,,1,1.2145,0,8,8,15,1,,,,,,,,,,,,,,,,,,,,,,,,,,,,,,,,,,,,,,,,,,,,,,,,,,,,,,,,,,,,,,,,,,,,,,
,,,,1,1.253,,,,,,16,chocolate,flower,,90402,001,2022-04-27_12h48.14.627,SPAMnetsValid,2021.1.4,Win32,75.07507508,,,,,,,,,,,,,1,1.253,0,9,9,22,1,,,,,,,,,,,,,,,,,,,,,,,,,,,,,,,,,,,,,,,,,,,,,,,,,,,,,,,,,,,,,,,,,,,,,,
,,,,2,5.3506,,,,,,44,cookie,melon,,90402,001,2022-04-27_12h48.14.627,SPAMnetsValid,2021.1.4,Win32,75.07507508,,,,,,,,,,,,,2,5.3506,0,10,10,92,1,,,,,,,,,,,,,,,,,,,,,,,,,,,,,,,,,,,,,,,,,,,,,,,,,,,,,,,,,,,,,,,,,,,,,,
,,,,1,2.0516,,,,,,65,broom,garden,,90402,001,2022-04-27_12h48.14.627,SPAMnetsValid,2021.1.4,Win32,75.07507508,,,,,,,,,,,,,1,2.0516,0,11,11,23,1,,,,,,,,,,,,,,,,,,,,,,,,,,,,,,,,,,,,,,,,,,,,,,,,,,,,,,,,,,,,,,,,,,,,,,
,,,,1,1.2145,,,,,,91,microwave,rose,,90402,001,2022-04-27_12h48.14.627,SPAMnetsValid,2021.1.4,Win32,75.07507508,,,,,,,,,,,,,1,1.2145,0,12,12,84,1,,,,,,,,,,,,,,,,,,,,,,,,,,,,,,,,,,,,,,,,,,,,,,,,,,,,,,,,,,,,,,,,,,,,,,
,,,,4,2.8948,,,,,,66,melon,yogurt,,90402,001,2022-04-27_12h48.14.627,SPAMnetsValid,2021.1.4,Win32,75.07507508,,,,,,,,,,,,,4,2.8948,0,13,13,48,1,,,,,,,,,,,,,,,,,,,,,,,,,,,,,,,,,,,,,,,,,,,,,,,,,,,,,,,,,,,,,,,,,,,,,,
,,,,5,2.8395,,,,,,51,onion,strawberry,,90402,001,2022-04-27_12h48.14.627,SPAMnetsValid,2021.1.4,Win32,75.07507508,,,,,,,,,,,,,5,2.8395,0,14,14,86,1,,,,,,,,,,,,,,,,,,,,,,,,,,,,,,,,,,,,,,,,,,,,,,,,,,,,,,,,,,,,,,,,,,,,,,
,,,,2,3.4953,,,,,,42,garden,kitchen,,90402,001,2022-04-27_12h48.14.627,SPAMnetsValid,2021.1.4,Win32,75.07507508,,,,,,,,,,,,,2,3.4953,0,15,15,29,1,,,,,,,,,,,,,,,,,,,,,,,,,,,,,,,,,,,,,,,,,,,,,,,,,,,,,,,,,,,,,,,,,,,,,,
,,,,1,1.9052,,,,,,37,garden,refrigerator,,90402,001,2022-04-27_12h48.14.627,SPAMnetsValid,2021.1.4,Win32,75.07507508,,,,,,,,,,,,,1,1.9052,0,16,16,11,1,,,,,,,,,,,,,,,,,,,,,,,,,,,,,,,,,,,,,,,,,,,,,,,,,,,,,,,,,,,,,,,,,,,,,,
,,,,1,7.3619,,,,,,73,broom,chocolate,,90402,001,2022-04-27_12h48.14.627,SPAMnetsValid,2021.1.4,Win32,75.07507508,,,,,,,,,,,,,1,7.3619,0,17,17,47,1,,,,,,,,,,,,,,,,,,,,,,,,,,,,,,,,,,,,,,,,,,,,,,,,,,,,,,,,,,,,,,,,,,,,,,
,,,,1,5.8945,,,,,,85,cake,tree,,90402,001,2022-04-27_12h48.14.627,SPAMnetsValid,2021.1.4,Win32,75.07507508,,,,,,,,,,,,,1,5.8945,0,18,18,18,1,,,,,,,,,,,,,,,,,,,,,,,,,,,,,,,,,,,,,,,,,,,,,,,,,,,,,,,,,,,,,,,,,,,,,,
,,,,1,1.3202,,,,,,5,oven,tree,,90402,001,2022-04-27_12h48.14.627,SPAMnetsValid,2021.1.4,Win32,75.07507508,,,,,,,,,,,,,1,1.3202,0,19,19,70,1,,,,,,,,,,,,,,,,,,,,,,,,,,,,,,,,,,,,,,,,,,,,,,,,,,,,,,,,,,,,,,,,,,,,,,
,,,,1,4.2644,,,,,,2,kitchen,onion,,90402,001,2022-04-27_12h48.14.627,SPAMnetsValid,2021.1.4,Win32,75.07507508,,,,,,,,,,,,,1,4.2644,0,20,20,91,1,,,,,,,,,,,,,,,,,,,,,,,,,,,,,,,,,,,,,,,,,,,,,,,,,,,,,,,,,,,,,,,,,,,,,,
,,,,1,6.3051,,,,,,87,carrot,yogurt,,90402,001,2022-04-27_12h48.14.627,SPAMnetsValid,2021.1.4,Win32,75.07507508,,,,,,,,,,,,,1,6.3051,0,21,21,6,1,,,,,,,,,,,,,,,,,,,,,,,,,,,,,,,,,,,,,,,,,,,,,,,,,,,,,,,,,,,,,,,,,,,,,,
,,,,1,3.6828,,,,,,59,rose,strawberry,,90402,001,2022-04-27_12h48.14.627,SPAMnetsValid,2021.1.4,Win32,75.07507508,,,,,,,,,,,,,1,3.6828,0,22,22,72,1,,,,,,,,,,,,,,,,,,,,,,,,,,,,,,,,,,,,,,,,,,,,,,,,,,,,,,,,,,,,,,,,,,,,,,
,,,,1,2.5518,,,,,,81,pretzel,yogurt,,90402,001,2022-04-27_12h48.14.627,SPAMnetsValid,2021.1.4,Win32,75.07507508,,,,,,,,,,,,,1,2.5518,0,23,23,50,1,,,,,,,,,,,,,,,,,,,,,,,,,,,,,,,,,,,,,,,,,,,,,,,,,,,,,,,,,,,,,,,,,,,,,,
,,,,1,1.4823,,,,,,64,chocolate,garden,,90402,001,2022-04-27_12h48.14.627,SPAMnetsValid,2021.1.4,Win32,75.07507508,,,,,,,,,,,,,1,1.4823,0,24,24,14,1,,,,,,,,,,,,,,,,,,,,,,,,,,,,,,,,,,,,,,,,,,,,,,,,,,,,,,,,,,,,,,,,,,,,,,
,,,,1,1.3794,,,,,,69,carrot,refrigerator,,90402,001,2022-04-27_12h48.14.627,SPAMnetsValid,2021.1.4,Win32,75.07507508,,,,,,,,,,,,,1,1.3794,0,25,25,75,1,,,,,,,,,,,,,,,,,,,,,,,,,,,,,,,,,,,,,,,,,,,,,,,,,,,,,,,,,,,,,,,,,,,,,,
,,,,8,3.016,,,,,,63,cake,cookie,,90402,001,2022-04-27_12h48.14.627,SPAMnetsValid,2021.1.4,Win32,75.07507508,,,,,,,,,,,,,8,3.016,0,26,26,93,1,,,,,,,,,,,,,,,,,,,,,,,,,,,,,,,,,,,,,,,,,,,,,,,,,,,,,,,,,,,,,,,,,,,,,,
,,,,2,2.1274,,,,,,21,cake,onion,,90402,001,2022-04-27_12h48.14.627,SPAMnetsValid,2021.1.4,Win32,75.07507508,,,,,,,,,,,,,2,2.1274,0,27,27,63,1,,,,,,,,,,,,,,,,,,,,,,,,,,,,,,,,,,,,,,,,,,,,,,,,,,,,,,,,,,,,,,,,,,,,,,
,,,,7,1.5152,,,,,,3,cake,oven,,90402,001,2022-04-27_12h48.14.627,SPAMnetsValid,2021.1.4,Win32,75.07507508,,,,,,,,,,,,,7,1.5152,0,28,28,30,1,,,,,,,,,,,,,,,,,,,,,,,,,,,,,,,,,,,,,,,,,,,,,,,,,,,,,,,,,,,,,,,,,,,,,,
,,,,1,3.3768,,,,,,90,cactus,cake,,90402,001,2022-04-27_12h48.14.627,SPAMnetsValid,2021.1.4,Win32,75.07507508,,,,,,,,,,,,,1,3.3768,0,29,29,85,1,,,,,,,,,,,,,,,,,,,,,,,,,,,,,,,,,,,,,,,,,,,,,,,,,,,,,,,,,,,,,,,,,,,,,,
,,,,8,2.7512,,,,,,79,garden,strawberry,,90402,001,2022-04-27_12h48.14.627,SPAMnetsValid,2021.1.4,Win32,75.07507508,,,,,,,,,,,,,8,2.7512,0,30,30,87,1,,,,,,,,,,,,,,,,,,,,,,,,,,,,,,,,,,,,,,,,,,,,,,,,,,,,,,,,,,,,,,,,,,,,,,
,,,,1,1.8112,,,,,,58,garden,oven,,90402,001,2022-04-27_12h48.14.627,SPAMnetsValid,2021.1.4,Win32,75.07507508,,,,,,,,,,,,,1,1.8112,0,31,31,37,1,,,,,,,,,,,,,,,,,,,,,,,,,,,,,,,,,,,,,,,,,,,,,,,,,,,,,,,,,,,,,,,,,,,,,,
,,,,1,1.5256,,,,,,70,chocolate,onion,,90402,001,2022-04-27_12h48.14.627,SPAMnetsValid,2021.1.4,Win32,75.07507508,,,,,,,,,,,,,1,1.5256,0,32,32,74,1,,,,,,,,,,,,,,,,,,,,,,,,,,,,,,,,,,,,,,,,,,,,,,,,,,,,,,,,,,,,,,,,,,,,,,
,,,,1,1.5681,,,,,,24,cookie,tomato,,90402,001,2022-04-27_12h48.14.627,SPAMnetsValid,2021.1.4,Win32,75.07507508,,,,,,,,,,,,,1,1.5681,0,33,33,68,1,,,,,,,,,,,,,,,,,,,,,,,,,,,,,,,,,,,,,,,,,,,,,,,,,,,,,,,,,,,,,,,,,,,,,,
,,,,1,1.344,,,,,,12,cookie,yogurt,,90402,001,2022-04-27_12h48.14.627,SPAMnetsValid,2021.1.4,Win32,75.07507508,,,,,,,,,,,,,1,1.344,0,34,34,36,1,,,,,,,,,,,,,,,,,,,,,,,,,,,,,,,,,,,,,,,,,,,,,,,,,,,,,,,,,,,,,,,,,,,,,,
,,,,1,1.5353,,,,,,78,cookie,rose,,90402,001,2022-04-27_12h48.14.627,SPAMnetsValid,2021.1.4,Win32,75.07507508,,,,,,,,,,,,,1,1.5353,0,35,35,56,1,,,,,,,,,,,,,,,,,,,,,,,,,,,,,,,,,,,,,,,,,,,,,,,,,,,,,,,,,,,,,,,,,,,,,,
,,,,2,2.028,,,,,,88,cactus,melon,,90402,001,2022-04-27_12h48.14.627,SPAMnetsValid,2021.1.4,Win32,75.07507508,,,,,,,,,,,,,2,2.028,0,36,36,38,1,,,,,,,,,,,,,,,,,,,,,,,,,,,,,,,,,,,,,,,,,,,,,,,,,,,,,,,,,,,,,,,,,,,,,,
,,,,1,3.4578,,,,,,43,chocolate,tomato,,90402,001,2022-04-27_12h48.14.627,SPAMnetsValid,2021.1.4,Win32,75.07507508,,,,,,,,,,,,,1,3.4578,0,37,37,8,1,,,,,,,,,,,,,,,,,,,,,,,,,,,,,,,,,,,,,,,,,,,,,,,,,,,,,,,,,,,,,,,,,,,,,,
,,,,1,2.8296,,,,,,68,flower,tomato,,90402,001,2022-04-27_12h48.14.627,SPAMnetsValid,2021.1.4,Win32,75.07507508,,,,,,,,,,,,,1,2.8296,0,38,38,94,1,,,,,,,,,,,,,,,,,,,,,,,,,,,,,,,,,,,,,,,,,,,,,,,,,,,,,,,,,,,,,,,,,,,,,,
,,,,1,21.9432,,,,,,56,cactus,tree,,90402,001,2022-04-27_12h48.14.627,SPAMnetsValid,2021.1.4,Win32,75.07507508,,,,,,,,,,,,,1,21.9432,0,39,39,21,1,,,,,,,,,,,,,,,,,,,,,,,,,,,,,,,,,,,,,,,,,,,,,,,,,,,,,,,,,,,,,,,,,,,,,,
,,,,1,9.347,,,,,,60,cactus,onion,,90402,001,2022-04-27_12h48.14.627,SPAMnetsValid,2021.1.4,Win32,75.07507508,,,,,,,,,,,,,1,9.347,0,40,40,81,1,,,,,,,,,,,,,,,,,,,,,,,,,,,,,,,,,,,,,,,,,,,,,,,,,,,,,,,,,,,,,,,,,,,,,,
,,,,1,1.0486,,,,,,36,broom,kitchen,,90402,001,2022-04-27_12h48.14.627,SPAMnetsValid,2021.1.4,Win32,75.07507508,,,,,,,,,,,,,1,1.0486,0,41,41,76,1,,,,,,,,,,,,,,,,,,,,,,,,,,,,,,,,,,,,,,,,,,,,,,,,,,,,,,,,,,,,,,,,,,,,,,
,,,,3,9.9089,,,,,,4,chocolate,pretzel,,90402,001,2022-04-27_12h48.14.627,SPAMnetsValid,2021.1.4,Win32,75.07507508,,,,,,,,,,,,,3,9.9089,0,42,42,52,1,,,,,,,,,,,,,,,,,,,,,,,,,,,,,,,,,,,,,,,,,,,,,,,,,,,,,,,,,,,,,,,,,,,,,,
,,,,4,2.0552,,,,,,32,cake,microwave,,90402,001,2022-04-27_12h48.14.627,SPAMnetsValid,2021.1.4,Win32,75.07507508,,,,,,,,,,,,,4,2.0552,0,43,43,33,1,,,,,,,,,,,,,,,,,,,,,,,,,,,,,,,,,,,,,,,,,,,,,,,,,,,,,,,,,,,,,,,,,,,,,,
,,,,1,3.684,,,,,,74,broom,pretzel,,90402,001,2022-04-27_12h48.14.627,SPAMnetsValid,2021.1.4,Win32,75.07507508,,,,,,,,,,,,,1,3.684,0,44,44,40,1,,,,,,,,,,,,,,,,,,,,,,,,,,,,,,,,,,,,,,,,,,,,,,,,,,,,,,,,,,,,,,,,,,,,,,
,,,,1,1.3673,,,,,,38,pretzel,refrigerator,,90402,001,2022-04-27_12h48.14.627,SPAMnetsValid,2021.1.4,Win32,75.07507508,,,,,,,,,,,,,1,1.3673,0,45,45,71,1,,,,,,,,,,,,,,,,,,,,,,,,,,,,,,,,,,,,,,,,,,,,,,,,,,,,,,,,,,,,,,,,,,,,,,
,,,,3,5.9311,,,,,,10,flower,onion,,90402,001,2022-04-27_12h48.14.627,SPAMnetsValid,2021.1.4,Win32,75.07507508,,,,,,,,,,,,,3,5.9311,0,46,46,45,1,,,,,,,,,,,,,,,,,,,,,,,,,,,,,,,,,,,,,,,,,,,,,,,,,,,,,,,,,,,,,,,,,,,,,,
,,,,1,1.7648,,,,,,41,broom,cactus,,90402,001,2022-04-27_12h48.14.627,SPAMnetsValid,2021.1.4,Win32,75.07507508,,,,,,,,,,,,,1,1.7648,0,47,47,46,1,,,,,,,,,,,,,,,,,,,,,,,,,,,,,,,,,,,,,,,,,,,,,,,,,,,,,,,,,,,,,,,,,,,,,,
,,,,1,10.1391,,,,,,80,chocolate,tree,,90402,001,2022-04-27_12h48.14.627,SPAMnetsValid,2021.1.4,Win32,75.07507508,,,,,,,,,,,,,1,10.1391,0,48,48,89,1,,,,,,,,,,,,,,,,,,,,,,,,,,,,,,,,,,,,,,,,,,,,,,,,,,,,,,,,,,,,,,,,,,,,,,
,,,,1,4.8493,,,,,,14,broom,cookie,,90402,001,2022-04-27_12h48.14.627,SPAMnetsValid,2021.1.4,Win32,75.07507508,,,,,,,,,,,,,1,4.8493,0,49,49,16,1,,,,,,,,,,,,,,,,,,,,,,,,,,,,,,,,,,,,,,,,,,,,,,,,,,,,,,,,,,,,,,,,,,,,,,
,,,,2,1.9681,,,,,,28,cake,melon,,90402,001,2022-04-27_12h48.14.627,SPAMnetsValid,2021.1.4,Win32,75.07507508,,,,,,,,,,,,,2,1.9681,0,50,50,54,1,,,,,,,,,,,,,,,,,,,,,,,,,,,,,,,,,,,,,,,,,,,,,,,,,,,,,,,,,,,,,,,,,,,,,,
,,,,3,3.5965,,,,,,82,cake,kitchen,,90402,001,2022-04-27_12h48.14.627,SPAMnetsValid,2021.1.4,Win32,75.07507508,,,,,,,,,,,,,3,3.5965,0,51,51,96,1,,,,,,,,,,,,,,,,,,,,,,,,,,,,,,,,,,,,,,,,,,,,,,,,,,,,,,,,,,,,,,,,,,,,,,
,,,,9,1.9768,,,,,,192,microwave,microwave,CHECK,90402,001,2022-04-27_12h48.14.627,SPAMnetsValid,2021.1.4,Win32,75.07507508,,,,,,,,,,,,,9,1.9768,0,52,52,53,1,,,,,,,,,,,,,,,,,,,,,,,,,,,,,,,,,,,,,,,,,,,,,,,,,,,,,,,,,,,,,,,,,,,,,,
,,,,6,3.7715,,,,,,52,carrot,tomato,,90402,001,2022-04-27_12h48.14.627,SPAMnetsValid,2021.1.4,Win32,75.07507508,,,,,,,,,,,,,6,3.7715,0,53,53,95,1,,,,,,,,,,,,,,,,,,,,,,,,,,,,,,,,,,,,,,,,,,,,,,,,,,,,,,,,,,,,,,,,,,,,,,
,,,,6,2.273,,,,,,25,carrot,onion,,90402,001,2022-04-27_12h48.14.627,SPAMnetsValid,2021.1.4,Win32,75.07507508,,,,,,,,,,,,,6,2.273,0,54,54,44,1,,,,,,,,,,,,,,,,,,,,,,,,,,,,,,,,,,,,,,,,,,,,,,,,,,,,,,,,,,,,,,,,,,,,,,
,,,,1,1.8477,,,,,,18,onion,refrigerator,,90402,001,2022-04-27_12h48.14.627,SPAMnetsValid,2021.1.4,Win32,75.07507508,,,,,,,,,,,,,1,1.8477,0,55,55,62,1,,,,,,,,,,,,,,,,,,,,,,,,,,,,,,,,,,,,,,,,,,,,,,,,,,,,,,,,,,,,,,,,,,,,,,
,,,,5,11.2474,,,,,,49,flower,strawberry,,90402,001,2022-04-27_12h48.14.627,SPAMnetsValid,2021.1.4,Win32,75.07507508,,,,,,,,,,,,,5,11.2474,0,56,56,3,1,,,,,,,,,,,,,,,,,,,,,,,,,,,,,,,,,,,,,,,,,,,,,,,,,,,,,,,,,,,,,,,,,,,,,,
,,,,3,1.8954,,,,,,55,tomato,tree,,90402,001,2022-04-27_12h48.14.627,SPAMnetsValid,2021.1.4,Win32,75.07507508,,,,,,,,,,,,,3,1.8954,0,57,57,35,1,,,,,,,,,,,,,,,,,,,,,,,,,,,,,,,,,,,,,,,,,,,,,,,,,,,,,,,,,,,,,,,,,,,,,,
,,,,1,2.305,,,,,,31,cactus,pretzel,,90402,001,2022-04-27_12h48.14.627,SPAMnetsValid,2021.1.4,Win32,75.07507508,,,,,,,,,,,,,1,2.305,0,58,58,1,1,,,,,,,,,,,,,,,,,,,,,,,,,,,,,,,,,,,,,,,,,,,,,,,,,,,,,,,,,,,,,,,,,,,,,,
,,,,2,1.2711,,,,,,26,tomato,yogurt,,90402,001,2022-04-27_12h48.14.627,SPAMnetsValid,2021.1.4,Win32,75.07507508,,,,,,,,,,,,,2,1.2711,0,59,59,13,1,,,,,,,,,,,,,,,,,,,,,,,,,,,,,,,,,,,,,,,,,,,,,,,,,,,,,,,,,,,,,,,,,,,,,,
,,,,9,1.8015,,,,,,191,cake,cake,CHECK,90402,001,2022-04-27_12h48.14.627,SPAMnetsValid,2021.1.4,Win32,75.07507508,,,,,,,,,,,,,9,1.8015,0,60,60,10,1,,,,,,,,,,,,,,,,,,,,,,,,,,,,,,,,,,,,,,,,,,,,,,,,,,,,,,,,,,,,,,,,,,,,,,
,,,,2,1.8626,,,,,,53,garden,pretzel,,90402,001,2022-04-27_12h48.14.627,SPAMnetsValid,2021.1.4,Win32,75.07507508,,,,,,,,,,,,,2,1.8626,0,61,61,0,1,,,,,,,,,,,,,,,,,,,,,,,,,,,,,,,,,,,,,,,,,,,,,,,,,,,,,,,,,,,,,,,,,,,,,,
,,,,1,4.3909,,,,,,27,cactus,cookie,,90402,001,2022-04-27_12h48.14.627,SPAMnetsValid,2021.1.4,Win32,75.07507508,,,,,,,,,,,,,1,4.3909,0,62,62,17,1,,,,,,,,,,,,,,,,,,,,,,,,,,,,,,,,,,,,,,,,,,,,,,,,,,,,,,,,,,,,,,,,,,,,,,
,,,,2,11.0235,,,,,,62,kitchen,rose,,90402,001,2022-04-27_12h48.14.627,SPAMnetsValid,2021.1.4,Win32,75.07507508,,,,,,,,,,,,,2,11.0235,0,63,63,57,1,,,,,,,,,,,,,,,,,,,,,,,,,,,,,,,,,,,,,,,,,,,,,,,,,,,,,,,,,,,,,,,,,,,,,,
,,,,6,2.948,,,,,,94,kitchen,microwave,,90402,001,2022-04-27_12h48.14.627,SPAMnetsValid,2021.1.4,Win32,75.07507508,,,,,,,,,,,,,6,2.948,0,64,64,58,1,,,,,,,,,,,,,,,,,,,,,,,,,,,,,,,,,,,,,,,,,,,,,,,,,,,,,,,,,,,,,,,,,,,,,,
,,,,1,4.7976,,,,,,67,flower,yogurt,,90402,001,2022-04-27_12h48.14.627,SPAMnetsValid,2021.1.4,Win32,75.07507508,,,,,,,,,,,,,1,4.7976,0,65,65,12,1,,,,,,,,,,,,,,,,,,,,,,,,,,,,,,,,,,,,,,,,,,,,,,,,,,,,,,,,,,,,,,,,,,,,,,
,,,,1,5.6386,,,,,,13,broom,yogurt,,90402,001,2022-04-27_12h48.14.627,SPAMnetsValid,2021.1.4,Win32,75.07507508,,,,,,,,,,,,,1,5.6386,0,66,66,5,1,,,,,,,,,,,,,,,,,,,,,,,,,,,,,,,,,,,,,,,,,,,,,,,,,,,,,,,,,,,,,,,,,,,,,,
,,,,1,4.8634,,,,,,86,oven,rose,,90402,001,2022-04-27_12h48.14.627,SPAMnetsValid,2021.1.4,Win32,75.07507508,,,,,,,,,,,,,1,4.8634,0,67,67,79,1,,,,,,,,,,,,,,,,,,,,,,,,,,,,,,,,,,,,,,,,,,,,,,,,,,,,,,,,,,,,,,,,,,,,,,
,,,,1,2.0482,,,,,,11,refrigerator,tree,,90402,001,2022-04-27_12h48.14.627,SPAMnetsValid,2021.1.4,Win32,75.07507508,,,,,,,,,,,,,1,2.0482,0,68,68,43,1,,,,,,,,,,,,,,,,,,,,,,,,,,,,,,,,,,,,,,,,,,,,,,,,,,,,,,,,,,,,,,,,,,,,,,
,,,,3,2.8805,,,,,,7,melon,tree,,90402,001,2022-04-27_12h48.14.627,SPAMnetsValid,2021.1.4,Win32,75.07507508,,,,,,,,,,,,,3,2.8805,0,69,69,77,1,,,,,,,,,,,,,,,,,,,,,,,,,,,,,,,,,,,,,,,,,,,,,,,,,,,,,,,,,,,,,,,,,,,,,,
,,,,1,1.3171,,,,,,75,cookie,onion,,90402,001,2022-04-27_12h48.14.627,SPAMnetsValid,2021.1.4,Win32,75.07507508,,,,,,,,,,,,,1,1.3171,0,70,70,9,1,,,,,,,,,,,,,,,,,,,,,,,,,,,,,,,,,,,,,,,,,,,,,,,,,,,,,,,,,,,,,,,,,,,,,,
,,,,1,1.4988,,,,,,71,broom,rose,,90402,001,2022-04-27_12h48.14.627,SPAMnetsValid,2021.1.4,Win32,75.07507508,,,,,,,,,,,,,1,1.4988,0,71,71,61,1,,,,,,,,,,,,,,,,,,,,,,,,,,,,,,,,,,,,,,,,,,,,,,,,,,,,,,,,,,,,,,,,,,,,,,
,,,,1,1.3738,,,,,,83,broom,carrot,,90402,001,2022-04-27_12h48.14.627,SPAMnetsValid,2021.1.4,Win32,75.07507508,,,,,,,,,,,,,1,1.3738,0,72,72,4,1,,,,,,,,,,,,,,,,,,,,,,,,,,,,,,,,,,,,,,,,,,,,,,,,,,,,,,,,,,,,,,,,,,,,,,
,,,,1,0.9356,,,,,,95,broom,refrigerator,,90402,001,2022-04-27_12h48.14.627,SPAMnetsValid,2021.1.4,Win32,75.07507508,,,,,,,,,,,,,1,0.9356,0,73,73,90,1,,,,,,,,,,,,,,,,,,,,,,,,,,,,,,,,,,,,,,,,,,,,,,,,,,,,,,,,,,,,,,,,,,,,,,
,,,,5,2.8183,,,,,,22,kitchen,strawberry,,90402,001,2022-04-27_12h48.14.627,SPAMnetsValid,2021.1.4,Win32,75.07507508,,,,,,,,,,,,,5,2.8183,0,74,74,2,1,,,,,,,,,,,,,,,,,,,,,,,,,,,,,,,,,,,,,,,,,,,,,,,,,,,,,,,,,,,,,,,,,,,,,,
,,,,6,2.8081,,,,,,77,refrigerator,yogurt,,90402,001,2022-04-27_12h48.14.627,SPAMnetsValid,2021.1.4,Win32,75.07507508,,,,,,,,,,,,,6,2.8081,0,75,75,42,1,,,,,,,,,,,,,,,,,,,,,,,,,,,,,,,,,,,,,,,,,,,,,,,,,,,,,,,,,,,,,,,,,,,,,,
,,,,3,1.7661,,,,,,46,garden,yogurt,,90402,001,2022-04-27_12h48.14.627,SPAMnetsValid,2021.1.4,Win32,75.07507508,,,,,,,,,,,,,3,1.7661,0,76,76,65,1,,,,,,,,,,,,,,,,,,,,,,,,,,,,,,,,,,,,,,,,,,,,,,,,,,,,,,,,,,,,,,,,,,,,,,
,,,,2,5.1763,,,,,,30,cookie,pretzel,,90402,001,2022-04-27_12h48.14.627,SPAMnetsValid,2021.1.4,Win32,75.07507508,,,,,,,,,,,,,2,5.1763,0,77,77,78,1,,,,,,,,,,,,,,,,,,,,,,,,,,,,,,,,,,,,,,,,,,,,,,,,,,,,,,,,,,,,,,,,,,,,,,
,,,,1,4.9422,,,,,,40,broom,cake,,90402,001,2022-04-27_12h48.14.627,SPAMnetsValid,2021.1.4,Win32,75.07507508,,,,,,,,,,,,,1,4.9422,0,78,78,32,1,,,,,,,,,,,,,,,,,,,,,,,,,,,,,,,,,,,,,,,,,,,,,,,,,,,,,,,,,,,,,,,,,,,,,,
,,,,5,2.4909,,,,,,20,rose,tree,,90402,001,2022-04-27_12h48.14.627,SPAMnetsValid,2021.1.4,Win32,75.07507508,,,,,,,,,,,,,5,2.4909,0,79,79,66,1,,,,,,,,,,,,,,,,,,,,,,,,,,,,,,,,,,,,,,,,,,,,,,,,,,,,,,,,,,,,,,,,,,,,,,
,,,,4,2.1193,,,,,,54,chocolate,yogurt,,90402,001,2022-04-27_12h48.14.627,SPAMnetsValid,2021.1.4,Win32,75.07507508,,,,,,,,,,,,,4,2.1193,0,80,80,67,1,,,,,,,,,,,,,,,,,,,,,,,,,,,,,,,,,,,,,,,,,,,,,,,,,,,,,,,,,,,,,,,,,,,,,,
,,,,1,3.9497,,,,,,35,flower,pretzel,,90402,001,2022-04-27_12h48.14.627,SPAMnetsValid,2021.1.4,Win32,75.07507508,,,,,,,,,,,,,1,3.9497,0,81,81,26,1,,,,,,,,,,,,,,,,,,,,,,,,,,,,,,,,,,,,,,,,,,,,,,,,,,,,,,,,,,,,,,,,,,,,,,
,,,,1,1.5281,,,,,,15,onion,oven,,90402,001,2022-04-27_12h48.14.627,SPAMnetsValid,2021.1.4,Win32,75.07507508,,,,,,,,,,,,,1,1.5281,0,82,82,39,1,,,,,,,,,,,,,,,,,,,,,,,,,,,,,,,,,,,,,,,,,,,,,,,,,,,,,,,,,,,,,,,,,,,,,,
,,,,2,2.8461,,,,,,89,chocolate,rose,,90402,001,2022-04-27_12h48.14.627,SPAMnetsValid,2021.1.4,Win32,75.07507508,,,,,,,,,,,,,2,2.8461,0,83,83,60,1,,,,,,,,,,,,,,,,,,,,,,,,,,,,,,,,,,,,,,,,,,,,,,,,,,,,,,,,,,,,,,,,,,,,,,
,,,,7,12.5235,,,,,,9,kitchen,refrigerator,,90402,001,2022-04-27_12h48.14.627,SPAMnetsValid,2021.1.4,Win32,75.07507508,,,,,,,,,,,,,7,12.5235,0,84,84,64,1,,,,,,,,,,,,,,,,,,,,,,,,,,,,,,,,,,,,,,,,,,,,,,,,,,,,,,,,,,,,,,,,,,,,,,
,,,,2,2.8749,,,,,,33,oven,yogurt,,90402,001,2022-04-27_12h48.14.627,SPAMnetsValid,2021.1.4,Win32,75.07507508,,,,,,,,,,,,,2,2.8749,0,85,85,31,1,,,,,,,,,,,,,,,,,,,,,,,,,,,,,,,,,,,,,,,,,,,,,,,,,,,,,,,,,,,,,,,,,,,,,,
,,,,1,2.8825,,,,,,92,broom,flower,,90402,001,2022-04-27_12h48.14.627,SPAMnetsValid,2021.1.4,Win32,75.07507508,,,,,,,,,,,,,1,2.8825,0,86,86,88,1,,,,,,,,,,,,,,,,,,,,,,,,,,,,,,,,,,,,,,,,,,,,,,,,,,,,,,,,,,,,,,,,,,,,,,
,,,,1,2.8194,,,,,,1,rose,yogurt,,90402,001,2022-04-27_12h48.14.627,SPAMnetsValid,2021.1.4,Win32,75.07507508,,,,,,,,,,,,,1,2.8194,0,87,87,55,1,,,,,,,,,,,,,,,,,,,,,,,,,,,,,,,,,,,,,,,,,,,,,,,,,,,,,,,,,,,,,,,,,,,,,,
,,,,7,2.7534,,,,,,93,kitchen,oven,,90402,001,2022-04-27_12h48.14.627,SPAMnetsValid,2021.1.4,Win32,75.07507508,,,,,,,,,,,,,7,2.7534,0,88,88,82,1,,,,,,,,,,,,,,,,,,,,,,,,,,,,,,,,,,,,,,,,,,,,,,,,,,,,,,,,,,,,,,,,,,,,,,
,,,,3,3.8419,,,,,,50,carrot,rose,,90402,001,2022-04-27_12h48.14.627,SPAMnetsValid,2021.1.4,Win32,75.07507508,,,,,,,,,,,,,3,3.8419,0,89,89,73,1,,,,,,,,,,,,,,,,,,,,,,,,,,,,,,,,,,,,,,,,,,,,,,,,,,,,,,,,,,,,,,,,,,,,,,
,,,,3,9.0172,,,,,,29,chocolate,melon,,90402,001,2022-04-27_12h48.14.627,SPAMnetsValid,2021.1.4,Win32,75.07507508,,,,,,,,,,,,,3,9.0172,0,90,90,34,1,,,,,,,,,,,,,,,,,,,,,,,,,,,,,,,,,,,,,,,,,,,,,,,,,,,,,,,,,,,,,,,,,,,,,,
,,,,5,2.6798,,,,,,61,strawberry,tomato,,90402,001,2022-04-27_12h48.14.627,SPAMnetsValid,2021.1.4,Win32,75.07507508,,,,,,,,,,,,,5,2.6798,0,91,91,80,1,,,,,,,,,,,,,,,,,,,,,,,,,,,,,,,,,,,,,,,,,,,,,,,,,,,,,,,,,,,,,,,,,,,,,,
,,,,2,2.7566,,,,,,34,melon,oven,,90402,001,2022-04-27_12h48.14.627,SPAMnetsValid,2021.1.4,Win32,75.07507508,,,,,,,,,,,,,2,2.7566,0,92,92,7,1,,,,,,,,,,,,,,,,,,,,,,,,,,,,,,,,,,,,,,,,,,,,,,,,,,,,,,,,,,,,,,,,,,,,,,
,,,,2,3.7866,,,,,,45,onion,pretzel,,90402,001,2022-04-27_12h48.14.627,SPAMnetsValid,2021.1.4,Win32,75.07507508,,,,,,,,,,,,,2,3.7866,0,93,93,69,1,,,,,,,,,,,,,,,,,,,,,,,,,,,,,,,,,,,,,,,,,,,,,,,,,,,,,,,,,,,,,,,,,,,,,,
,,,,1,6.6172,,,,,,23,flower,microwave,,90402,001,2022-04-27_12h48.14.627,SPAMnetsValid,2021.1.4,Win32,75.07507508,,,,,,,,,,,,,1,6.6172,0,94,94,25,1,,,,,,,,,,,,,,,,,,,,,,,,,,,,,,,,,,,,,,,,,,,,,,,,,,,,,,,,,,,,,,,,,,,,,,
,,,,6,2.0642,,,,,,76,garden,rose,,90402,001,2022-04-27_12h48.14.627,SPAMnetsValid,2021.1.4,Win32,75.07507508,,,,,,,,,,,,,6,2.0642,0,95,95,19,1,,,,,,,,,,,,,,,,,,,,,,,,,,,,,,,,,,,,,,,,,,,,,,,,,,,,,,,,,,,,,,,,,,,,,,
,,,,6,2.5221,,,,,,6,garden,onion,,90402,001,2022-04-27_12h48.14.627,SPAMnetsValid,2021.1.4,Win32,75.07507508,,,,,,,,,,,,,6,2.5221,0,96,96,83,1,,,,,,,,,,,,,,,,,,,,,,,,,,,,,,,,,,,,,,,,,,,,,,,,,,,,,,,,,,,,,,,,,,,,,,
,,,,,,,,,,,,,,,90402,001,2022-04-27_12h48.14.627,SPAMnetsValid,2021.1.4,Win32,75.07507508,,,,,,,,,,,,,,,,,,,,0,0,0,0,1,,,,,,,,,,,,,,,,,,,,,,,,,,,,,,,,,,,,,,,,,,,,,,,,,,,,,,,,,,,,,,,,,
,,,,,,,,,,,,,,,90402,001,2022-04-27_12h48.14.627,SPAMnetsValid,2021.1.4,Win32,75.07507508,,,,,,0,1,1,0,1,1,0,,,,,,,,,,,,,,,,,,,,,,,,,,,,,,,,,,,,,,,,,,,,,,,,,,,,,,,,,,,,,,,,,,,,,,,,,,,,,
,,,,,,,,,,,,,,,90402,001,2022-04-27_12h48.14.627,SPAMnetsValid,2021.1.4,Win32,75.07507508,,,,,,,,,,,,,,,,,,,,,,,,,3,5.5174,0,0,0,0,1,rancor,forbearance,ridicule,malice,bravery,3,,,,,,,,,,,,,,,,,,,,,,,,,,,,,,,,,,,,,,,,,,,,,,,,,,,,
,,,,,,,,,,,,,,,90402,001,2022-04-27_12h48.14.627,SPAMnetsValid,2021.1.4,Win32,75.07507508,,,,,,,,,,,,,,,,,,,,,,,,,4,4.1272,0,1,1,1,1,raucous,empty,quiet,smooth,harsh,4,,,,,,,,,,,,,,,,,,,,,,,,,,,,,,,,,,,,,,,,,,,,,,,,,,,,
,,,,,,,,,,,,,,,90402,001,2022-04-27_12h48.14.627,SPAMnetsValid,2021.1.4,Win32,75.07507508,,,,,,,,,,,,,,,,,,,,,,,,,3,3.6441,0,2,2,2,1,gargoyle,oil,medicine,carved waterspout,ugly building,3,,,,,,,,,,,,,,,,,,,,,,,,,,,,,,,,,,,,,,,,,,,,,,,,,,,,
,,,,,,,,,,,,,,,90402,001,2022-04-27_12h48.14.627,SPAMnetsValid,2021.1.4,Win32,75.07507508,,,,,,,,,,,,,,,,,,,,,,,,,1,6.7155,0,3,3,3,1,recrudesce,purify,renew activity,lack refinement,crush,2,,,,,,,,,,,,,,,,,,,,,,,,,,,,,,,,,,,,,,,,,,,,,,,,,,,,
,,,,,,,,,,,,,,,90402,001,2022-04-27_12h48.14.627,SPAMnetsValid,2021.1.4,Win32,75.07507508,,,,,,,,,,,,,,,,,,,,,,,,,3,4.3748,0,4,4,4,1,specious,"plausible, but not genuine",noteworthy,class or variety,roomy,1,,,,,,,,,,,,,,,,,,,,,,,,,,,,,,,,,,,,,,,,,,,,,,,,,,,,
,,,,,,,,,,,,,,,90402,001,2022-04-27_12h48.14.627,SPAMnetsValid,2021.1.4,Win32,75.07507508,,,,,,,,,,,,,,,,,,,,,,,,,3,3.1021,0,5,5,5,1,bauble,bubble,showy plaything,idle talk,confusion,2,,,,,,,,,,,,,,,,,,,,,,,,,,,,,,,,,,,,,,,,,,,,,,,,,,,,
,,,,,,,,,,,,,,,90402,001,2022-04-27_12h48.14.627,SPAMnetsValid,2021.1.4,Win32,75.07507508,,,,,,,,,,,,,,,,,,,,,,,,,2,3.6138,0,6,6,6,1,prolific,scarce,producing abundantly,reckless,speaking profanely,2,,,,,,,,,,,,,,,,,,,,,,,,,,,,,,,,,,,,,,,,,,,,,,,,,,,,
,,,,,,,,,,,,,,,90402,001,2022-04-27_12h48.14.627,SPAMnetsValid,2021.1.4,Win32,75.07507508,,,,,,,,,,,,,,,,,,,,,,,,,3,5.4301,0,7,7,7,1,opulent,party,wealthy,happy frame of mind,semiprecious stone,2,,,,,,,,,,,,,,,,,,,,,,,,,,,,,,,,,,,,,,,,,,,,,,,,,,,,
,,,,,,,,,,,,,,,90402,001,2022-04-27_12h48.14.627,SPAMnetsValid,2021.1.4,Win32,75.07507508,,,,,,,,,,,,,,,,,,,,,,,,,2,10.999,0,8,8,8,1,coercion,conspiracy,strategy,restraint,attraction,3,,,,,,,,,,,,,,,,,,,,,,,,,,,,,,,,,,,,,,,,,,,,,,,,,,,,
,,,,,,,,,,,,,,,90402,001,2022-04-27_12h48.14.627,SPAMnetsValid,2021.1.4,Win32,75.07507508,,,,,,,,,,,,,,,,,,,,,,,,,4,2.1184,0,9,9,9,1,hiatus,animal,calamity,dread,gap,4,,,,,,,,,,,,,,,,,,,,,,,,,,,,,,,,,,,,,,,,,,,,,,,,,,,,
,,,,,,,,,,,,,,,90402,001,2022-04-27_12h48.14.627,SPAMnetsValid,2021.1.4,Win32,75.07507508,,,,,,,,,,,,,,,,,,,,,,,,,1,5.0231,0,10,10,10,1,germane,microbe,contagious,relevant,different,3,,,,,,,,,,,,,,,,,,,,,,,,,,,,,,,,,,,,,,,,,,,,,,,,,,,,
,,,,,,,,,,,,,,,90402,001,2022-04-27_12h48.14.627,SPAMnetsValid,2021.1.4,Win32,75.07507508,,,,,,,,,,,,,,,,,,,,,,,,,3,7.9998,0,11,11,11,1,perfunctory,fundamental,formal,superficial,careful,3,,,,,,,,,,,,,,,,,,,,,,,,,,,,,,,,,,,,,,,,,,,,,,,,,,,,
,,,,,,,,,,,,,,,90402,001,2022-04-27_12h48.14.627,SPAMnetsValid,2021.1.4,Win32,75.07507508,,,,,,,,,,,,,,,,,,,,,,,,,4,6.8229,0,12,12,12,1,diverge,reveal,chant,distract the attention of,differ or turn off from,4,,,,,,,,,,,,,,,,,,,,,,,,,,,,,,,,,,,,,,,,,,,,,,,,,,,,
,,,,,,,,,,,,,,,90402,001,2022-04-27_12h48.14.627,SPAMnetsValid,2021.1.4,Win32,75.07507508,,,,,,,,,,,,,,,,,,,,,,,,,4,2.636,0,13,13,13,1,evoke,take away,anger,connect,bring out,4,,,,,,,,,,,,,,,,,,,,,,,,,,,,,,,,,,,,,,,,,,,,,,,,,,,,
,,,,,,,,,,,,,,,90402,001,2022-04-27_12h48.14.627,SPAMnetsValid,2021.1.4,Win32,75.07507508,,,,,,,,,,,,,,,,,,,,,,,,,1,4.6368,0,14,14,14,1,pertinent,relevant,lying next to,necessary,bold,1,,,,,,,,,,,,,,,,,,,,,,,,,,,,,,,,,,,,,,,,,,,,,,,,,,,,
,,,,,,,,,,,,,,,90402,001,2022-04-27_12h48.14.627,SPAMnetsValid,2021.1.4,Win32,75.07507508,,,,,,,,,,,,,,,,,,,,,,,,,2,2.2381,0,15,15,15,1,holocaust,entirety,destruction,saintly,price,2,,,,,,,,,,,,,,,,,,,,,,,,,,,,,,,,,,,,,,,,,,,,,,,,,,,,
,,,,,,,,,,,,,,,90402,001,2022-04-27_12h48.14.627,SPAMnetsValid,2021.1.4,Win32,75.07507508,,,,,,,,,,,,,,,,,,,,,,,,,1,6.2848,0,16,16,16,1,piquant,mellow,fish,pungent,cloth,3,,,,,,,,,,,,,,,,,,,,,,,,,,,,,,,,,,,,,,,,,,,,,,,,,,,,
,,,,,,,,,,,,,,,90402,001,2022-04-27_12h48.14.627,SPAMnetsValid,2021.1.4,Win32,75.07507508,,,,,,,,,,,,,,,,,,,,,,,,,1,8.433,0,17,17,17,1,firmament,foundation,heavens,strong,glue,2,,,,,,,,,,,,,,,,,,,,,,,,,,,,,,,,,,,,,,,,,,,,,,,,,,,,
,,,,,,,,,,,,,,,90402,001,2022-04-27_12h48.14.627,SPAMnetsValid,2021.1.4,Win32,75.07507508,,,,,,,,,,,,,,,,,,,,,,,,,,,,,,,,,,,,,,1,13.5459,0,0,0,0,1,marketable,partisan,jocular,marriageable,salable,essential,4,,,,,,,,,,,,,,,,,,,,,,,,,,,,,,,,,,,,,,
,,,,,,,,,,,,,,,90402,001,2022-04-27_12h48.14.627,SPAMnetsValid,2021.1.4,Win32,75.07507508,,,,,,,,,,,,,,,,,,,,,,,,,,,,,,,,,,,,,,4,2.8953,0,1,1,1,1,cottontail,squirrel,poplar,boa,marshy plant,rabbit,5,,,,,,,,,,,,,,,,,,,,,,,,,,,,,,,,,,,,,,
,,,,,,,,,,,,,,,90402,001,2022-04-27_12h48.14.627,SPAMnetsValid,2021.1.4,Win32,75.07507508,,,,,,,,,,,,,,,,,,,,,,,,,,,,,,,,,,,,,,3,3.3894,0,2,2,2,1,boggy,afraid,false,marshy,dense,black,3,,,,,,,,,,,,,,,,,,,,,,,,,,,,,,,,,,,,,,
,,,,,,,,,,,,,,,90402,001,2022-04-27_12h48.14.627,SPAMnetsValid,2021.1.4,Win32,75.07507508,,,,,,,,,,,,,,,,,,,,,,,,,,,,,,,,,,,,,,3,7.5119,0,3,3,3,1,gruesomeness,blackness,falseness,vindictiveness,drunkenness,ghastliness,5,,,,,,,,,,,,,,,,,,,,,,,,,,,,,,,,,,,,,,
,,,,,,,,,,,,,,,90402,001,2022-04-27_12h48.14.627,SPAMnetsValid,2021.1.4,Win32,75.07507508,,,,,,,,,,,,,,,,,,,,,,,,,,,,,,,,,,,,,,5,6.2418,0,4,4,4,1,loathing,diffidence,laziness,abhorrence,cleverness,comfort,3,,,,,,,,,,,,,,,,,,,,,,,,,,,,,,,,,,,,,,
,,,,,,,,,,,,,,,90402,001,2022-04-27_12h48.14.627,SPAMnetsValid,2021.1.4,Win32,75.07507508,,,,,,,,,,,,,,,,,,,,,,,,,,,,,,,,,,,,,,2,4.5348,0,5,5,5,1,bantam,fowl,ridicule,cripple,vegetable,ensign,1,,,,,,,,,,,,,,,,,,,,,,,,,,,,,,,,,,,,,,
,,,,,,,,,,,,,,,90402,001,2022-04-27_12h48.14.627,SPAMnetsValid,2021.1.4,Win32,75.07507508,,,,,,,,,,,,,,,,,,,,,,,,,,,,,,,,,,,,,,5,4.8837,0,6,6,6,1,evoke,wake up,surrender,reconnoiter,transcend,call forth,5,,,,,,,,,,,,,,,,,,,,,,,,,,,,,,,,,,,,,,
,,,,,,,,,,,,,,,90402,001,2022-04-27_12h48.14.627,SPAMnetsValid,2021.1.4,Win32,75.07507508,,,,,,,,,,,,,,,,,,,,,,,,,,,,,,,,,,,,,,5,7.1235,0,7,7,7,1,unobtrusive,unintelligent,epileptic,illogical,lineal,modest,5,,,,,,,,,,,,,,,,,,,,,,,,,,,,,,,,,,,,,,
,,,,,,,,,,,,,,,90402,001,2022-04-27_12h48.14.627,SPAMnetsValid,2021.1.4,Win32,75.07507508,,,,,,,,,,,,,,,,,,,,,,,,,,,,,,,,,,,,,,4,2.8791,0,8,8,8,1,terrain,ice cream,final test,tractor,area of ground,weight,4,,,,,,,,,,,,,,,,,,,,,,,,,,,,,,,,,,,,,,
,,,,,,,,,,,,,,,90402,001,2022-04-27_12h48.14.627,SPAMnetsValid,2021.1.4,Win32,75.07507508,,,,,,,,,,,,,,,,,,,,,,,,,,,,,,,,,,,,,,3,10.2231,0,9,9,9,1,capriciousness,stubbornness,courage,whimsicality,amazement,greediness,3,,,,,,,,,,,,,,,,,,,,,,,,,,,,,,,,,,,,,,
,,,,,,,,,,,,,,,90402,001,2022-04-27_12h48.14.627,SPAMnetsValid,2021.1.4,Win32,75.07507508,,,,,,,,,,,,,,,,,,,,,,,,,,,,,,,,,,,,,,1,12.1781,0,10,10,10,1,maelstrom,slander,whirlpool,enmity,armor,majolica,2,,,,,,,,,,,,,,,,,,,,,,,,,,,,,,,,,,,,,,
,,,,,,,,,,,,,,,90402,001,2022-04-27_12h48.14.627,SPAMnetsValid,2021.1.4,Win32,75.07507508,,,,,,,,,,,,,,,,,,,,,,,,,,,,,,,,,,,,,,5,3.1342,0,11,11,11,1,tentative,critical,conclusive,authentic,provisional,apprehensive,4,,,,,,,,,,,,,,,,,,,,,,,,,,,,,,,,,,,,,,
,,,,,,,,,,,,,,,90402,001,2022-04-27_12h48.14.627,SPAMnetsValid,2021.1.4,Win32,75.07507508,,,,,,,,,,,,,,,,,,,,,,,,,,,,,,,,,,,,,,1,7.9714,0,12,12,12,1,placate,rehabilitate,plagiarize,depredate,apprise,conciliate,5,,,,,,,,,,,,,,,,,,,,,,,,,,,,,,,,,,,,,,
,,,,,,,,,,,,,,,90402,001,2022-04-27_12h48.14.627,SPAMnetsValid,2021.1.4,Win32,75.07507508,,,,,,,,,,,,,,,,,,,,,,,,,,,,,,,,,,,,,,3,3.4828,0,13,13,13,1,surcease,enlightenment,cessation,inattention,censor,substitution,2,,,,,,,,,,,,,,,,,,,,,,,,,,,,,,,,,,,,,,
,,,,,,,,,,,,,,,90402,001,2022-04-27_12h48.14.627,SPAMnetsValid,2021.1.4,Win32,75.07507508,,,,,,,,,,,,,,,,,,,,,,,,,,,,,,,,,,,,,,3,14.4437,0,14,14,14,1,apathetic,wandering,impassive,hateful,prophetic,overflowing,2,,,,,,,,,,,,,,,,,,,,,,,,,,,,,,,,,,,,,,
,,,,,,,,,,,,,,,90402,001,2022-04-27_12h48.14.627,SPAMnetsValid,2021.1.4,Win32,75.07507508,,,,,,,,,,,,,,,,,,,,,,,,,,,,,,,,,,,,,,4,3.8017,0,15,15,15,1,paternoster,paternalism,patricide,malediction,benediction,prayer,5,,,,,,,,,,,,,,,,,,,,,,,,,,,,,,,,,,,,,,
,,,,,,,,,,,,,,,90402,001,2022-04-27_12h48.14.627,SPAMnetsValid,2021.1.4,Win32,75.07507508,,,,,,,,,,,,,,,,,,,,,,,,,,,,,,,,,,,,,,2,4.453,0,16,16,16,1,opalescence,opulence,senescence,bankruptcy,iridescence,assiduity,4,,,,,,,,,,,,,,,,,,,,,,,,,,,,,,,,,,,,,,
,,,,,,,,,,,,,,,90402,001,2022-04-27_12h48.14.627,SPAMnetsValid,2021.1.4,Win32,75.07507508,,,,,,,,,,,,,,,,,,,,,,,,,,,,,,,,,,,,,,2,2.0279,0,17,17,17,1,lush,stupid,luxurious,hazy,putrid,languishing,2,,,,,,,,,,,,,,,,,,,,,,,,,,,,,,,,,,,,,,
,,,,,,,,,,,,,,,90402,001,2022-04-27_12h48.14.627,SPAMnetsValid,2021.1.4,Win32,75.07507508,,,,,,,,,,,,,,,,,,,,,,,,,,,,,,,,,,,,,,2,4.3357,0,18,18,18,1,curtailment,expenditure,abandonment,abridgment,improvement,forgery,3,,,,,,,,,,,,,,,,,,,,,,,,,,,,,,,,,,,,,,
,,,,,,,,,,,,,,,90402,001,2022-04-27_12h48.14.627,SPAMnetsValid,2021.1.4,Win32,75.07507508,,,,,,,,,,,,,,,,,,,,,,,,,,,,,,,,,,,,,,4,2.7996,0,19,19,19,1,perversity,adversity,perviousness,travesty,waywardness,gentility,4,,,,,,,,,,,,,,,,,,,,,,,,,,,,,,,,,,,,,,
,,,,,,,,,,,,,,,90402,001,2022-04-27_12h48.14.627,SPAMnetsValid,2021.1.4,Win32,75.07507508,,,,,,,,,,,,,,,,,,,,,,,,,,,,,,,,,,,,,,4,4.9075,0,20,20,20,1,calumnious,complimentary,analogous,slanderous,tempestuous,magnanimous,3,,,,,,,,,,,,,,,,,,,,,,,,,,,,,,,,,,,,,,
,,,,,,,,,,,,,,,90402,001,2022-04-27_12h48.14.627,SPAMnetsValid,2021.1.4,Win32,75.07507508,,,,,,,,,,,,,,,,,,,,,,,,,,,,,,,,,,,,,,2,14.8346,0,21,21,21,1,illiberality,bigotry,imbecility,illegibility,cautery,immaturity,1,,,,,,,,,,,,,,,,,,,,,,,,,,,,,,,,,,,,,,
,,,,,,,,,,,,,,,90402,001,2022-04-27_12h48.14.627,SPAMnetsValid,2021.1.4,Win32,75.07507508,,,,,,,,,,,,,,,,,,,,,,,,,,,,,,,,,,,,,,3,1.9968,0,22,22,22,1,clabber,rejoice,gossip,curdle,crow,hobble,3,,,,,,,,,,,,,,,,,,,,,,,,,,,,,,,,,,,,,,
,,,,,,,,,,,,,,,90402,001,2022-04-27_12h48.14.627,SPAMnetsValid,2021.1.4,Win32,75.07507508,,,,,,,,,,,,,,,,,,,,,,,,,,,,,,,,,,,,,,1,7.6944,0,23,23,23,1,sedulousness,diligence,credulousness,seduction,perilousness,frankness,1,,,,,,,,,,,,,,,,,,,,,,,,,,,,,,,,,,,,,,
,,,,,,,,,,,,,,,90402,001,2022-04-27_12h48.14.627,SPAMnetsValid,2021.1.4,Win32,75.07507508,,,,,,,,,,,,,,,,,,,,,,,,,,,,,,,,,,,,,,,,,,,,,,,,,,,,0,0,0,1,1,candle,,,,,,,,,,,,,,,,,,,,,,,,,,,,,,,,
,,,,,,,,,,,,,,,90402,001,2022-04-27_12h48.14.627,SPAMnetsValid,2021.1.4,Win32,75.07507508,,,,,,,,,,,,,,,,,,,,,,,,,,,,,,,,,,,,,,,,,,,,,,,,,,,,0,1,1,0,1,bucket,,,,,,,,,,,,,,,,,,,,,,,,,,,,,,,,
,,,,,,,,,,,,,,,90402,001,2022-04-27_12h48.14.627,SPAMnetsValid,2021.1.4,Win32,75.07507508,,,,,,,,,,,,,,,,,,,,,,,,,,,,,,,,,,,,,,,,,,,,,,,,,,,,,,,,,,"sleep,comfort,pillow fight,stress ball, pillow fort, seat cushion, leg rest,halloween candy bag,decoration, dog bed, ",pillow,0,0,0,0,1,,,,,,,,,,,,,,,,,,,,,,,,,
,,,,,,,,,,,,,,,90402,001,2022-04-27_12h48.14.627,SPAMnetsValid,2021.1.4,Win32,75.07507508,,,,,,,,,,,,,,,,,,,,,,,,,,,,,,,,,,,,,,,,,,,,,,,,,,,,0,2,2,2,1,pillow,,,,,,,,,,,,,,,,,,,,,,,,,,,,,,,,
,,,,,,,,,,,,,,,90402,001,2022-04-27_12h48.14.627,SPAMnetsValid,2021.1.4,Win32,75.07507508,,,,,,,,,,,,,,,,,,,,,,,,,,,,,,,,,,,,,,,,,,,,,,,,,,,,,,,,,,,,,,,,,dog,Animals,0,0,0,0,1,,,,,,,,,,,,,,,,,,
,,,,,,,,,,,,,,,90402,001,2022-04-27_12h48.14.627,SPAMnetsValid,2021.1.4,Win32,75.07507508,,,,,,,,,,,,,,,,,,,,,,,,,,,,,,,,,,,,,,,,,,,,,,,,,,,,,,,,,,,,,,,,,cat,Animals,1,0,1,0,1,,,,,,,,,,,,,,,,,,
,,,,,,,,,,,,,,,90402,001,2022-04-27_12h48.14.627,SPAMnetsValid,2021.1.4,Win32,75.07507508,,,,,,,,,,,,,,,,,,,,,,,,,,,,,,,,,,,,,,,,,,,,,,,,,,,,,,,,,,,,,,,,,bear,Animals,2,0,2,0,1,,,,,,,,,,,,,,,,,,
,,,,,,,,,,,,,,,90402,001,2022-04-27_12h48.14.627,SPAMnetsValid,2021.1.4,Win32,75.07507508,,,,,,,,,,,,,,,,,,,,,,,,,,,,,,,,,,,,,,,,,,,,,,,,,,,,,,,,,,,,,,,,,tiger,Animals,3,0,3,0,1,,,,,,,,,,,,,,,,,,
,,,,,,,,,,,,,,,90402,001,2022-04-27_12h48.14.627,SPAMnetsValid,2021.1.4,Win32,75.07507508,,,,,,,,,,,,,,,,,,,,,,,,,,,,,,,,,,,,,,,,,,,,,,,,,,,,,,,,,,,,,,,,,cheetah,Animals,4,0,4,0,1,,,,,,,,,,,,,,,,,,
,,,,,,,,,,,,,,,90402,001,2022-04-27_12h48.14.627,SPAMnetsValid,2021.1.4,Win32,75.07507508,,,,,,,,,,,,,,,,,,,,,,,,,,,,,,,,,,,,,,,,,,,,,,,,,,,,,,,,,,,,,,,,,jaguar,Animals,5,0,5,0,1,,,,,,,,,,,,,,,,,,
,,,,,,,,,,,,,,,90402,001,2022-04-27_12h48.14.627,SPAMnetsValid,2021.1.4,Win32,75.07507508,,,,,,,,,,,,,,,,,,,,,,,,,,,,,,,,,,,,,,,,,,,,,,,,,,,,,,,,,,,,,,,,,lion,Animals,6,0,6,0,1,,,,,,,,,,,,,,,,,,
,,,,,,,,,,,,,,,90402,001,2022-04-27_12h48.14.627,SPAMnetsValid,2021.1.4,Win32,75.07507508,,,,,,,,,,,,,,,,,,,,,,,,,,,,,,,,,,,,,,,,,,,,,,,,,,,,,,,,,,,,,,,,,puma,Animals,7,0,7,0,1,,,,,,,,,,,,,,,,,,
,,,,,,,,,,,,,,,90402,001,2022-04-27_12h48.14.627,SPAMnetsValid,2021.1.4,Win32,75.07507508,,,,,,,,,,,,,,,,,,,,,,,,,,,,,,,,,,,,,,,,,,,,,,,,,,,,,,,,,,,,,,,,,cougar,Animals,8,0,8,0,1,,,,,,,,,,,,,,,,,,
,,,,,,,,,,,,,,,90402,001,2022-04-27_12h48.14.627,SPAMnetsValid,2021.1.4,Win32,75.07507508,,,,,,,,,,,,,,,,,,,,,,,,,,,,,,,,,,,,,,,,,,,,,,,,,,,,,,,,,,,,,,,,,goose,Animals,9,0,9,0,1,,,,,,,,,,,,,,,,,,
,,,,,,,,,,,,,,,90402,001,2022-04-27_12h48.14.627,SPAMnetsValid,2021.1.4,Win32,75.07507508,,,,,,,,,,,,,,,,,,,,,,,,,,,,,,,,,,,,,,,,,,,,,,,,,,,,,,,,,,,,,,,,,flamingo,Animals,10,0,10,0,1,,,,,,,,,,,,,,,,,,
,,,,,,,,,,,,,,,90402,001,2022-04-27_12h48.14.627,SPAMnetsValid,2021.1.4,Win32,75.07507508,,,,,,,,,,,,,,,,,,,,,,,,,,,,,,,,,,,,,,,,,,,,,,,,,,,,,,,,,,,,,,,,,seagull,Animals,11,0,11,0,1,,,,,,,,,,,,,,,,,,
,,,,,,,,,,,,,,,90402,001,2022-04-27_12h48.14.627,SPAMnetsValid,2021.1.4,Win32,75.07507508,,,,,,,,,,,,,,,,,,,,,,,,,,,,,,,,,,,,,,,,,,,,,,,,,,,,,,,,,,,,,,,,,pigeon,Animals,12,0,12,0,1,,,,,,,,,,,,,,,,,,
,,,,,,,,,,,,,,,90402,001,2022-04-27_12h48.14.627,SPAMnetsValid,2021.1.4,Win32,75.07507508,,,,,,,,,,,,,,,,,,,,,,,,,,,,,,,,,,,,,,,,,,,,,,,,,,,,,,,,,,,,,,,,,canary,Animals,13,0,13,0,1,,,,,,,,,,,,,,,,,,
,,,,,,,,,,,,,,,90402,001,2022-04-27_12h48.14.627,SPAMnetsValid,2021.1.4,Win32,75.07507508,,,,,,,,,,,,,,,,,,,,,,,,,,,,,,,,,,,,,,,,,,,,,,,,,,,,,,,,,,,,,,,,,blue jay,Animals,14,0,14,0,1,,,,,,,,,,,,,,,,,,
,,,,,,,,,,,,,,,90402,001,2022-04-27_12h48.14.627,SPAMnetsValid,2021.1.4,Win32,75.07507508,,,,,,,,,,,,,,,,,,,,,,,,,,,,,,,,,,,,,,,,,,,,,,,,,,,,,,,,,,,,,,,,,cardinal,Animals,15,0,15,0,1,,,,,,,,,,,,,,,,,,
,,,,,,,,,,,,,,,90402,001,2022-04-27_12h48.14.627,SPAMnetsValid,2021.1.4,Win32,75.07507508,,,,,,,,,,,,,,,,,,,,,,,,,,,,,,,,,,,,,,,,,,,,,,,,,,,,,,,,,,,,,,,,,oriole,Animals,16,0,16,0,1,,,,,,,,,,,,,,,,,,
,,,,,,,,,,,,,,,90402,001,2022-04-27_12h48.14.627,SPAMnetsValid,2021.1.4,Win32,75.07507508,,,,,,,,,,,,,,,,,,,,,,,,,,,,,,,,,,,,,,,,,,,,,,,,,,,,,,,,,,,,,,,,,elephant,Animals,17,0,17,0,1,,,,,,,,,,,,,,,,,,
,,,,,,,,,,,,,,,90402,001,2022-04-27_12h48.14.627,SPAMnetsValid,2021.1.4,Win32,75.07507508,,,,,,,,,,,,,,,,,,,,,,,,,,,,,,,,,,,,,,,,,,,,,,,,,,,,,,,,,,,,,,,,,rhino,Animals,18,0,18,0,1,,,,,,,,,,,,,,,,,,
,,,,,,,,,,,,,,,90402,001,2022-04-27_12h48.14.627,SPAMnetsValid,2021.1.4,Win32,75.07507508,,,,,,,,,,,,,,,,,,,,,,,,,,,,,,,,,,,,,,,,,,,,,,,,,,,,,,,,,,,,,,,,,sheep,Animals,19,0,19,0,1,,,,,,,,,,,,,,,,,,
,,,,,,,,,,,,,,,90402,001,2022-04-27_12h48.14.627,SPAMnetsValid,2021.1.4,Win32,75.07507508,,,,,,,,,,,,,,,,,,,,,,,,,,,,,,,,,,,,,,,,,,,,,,,,,,,,,,,,,,,,,,,,,goat,Animals,20,0,20,0,1,,,,,,,,,,,,,,,,,,
,,,,,,,,,,,,,,,90402,001,2022-04-27_12h48.14.627,SPAMnetsValid,2021.1.4,Win32,75.07507508,,,,,,,,,,,,,,,,,,,,,,,,,,,,,,,,,,,,,,,,,,,,,,,,,,,,,,,,,,,,,,,,,cow,Animals,21,0,21,0,1,,,,,,,,,,,,,,,,,,
,,,,,,,,,,,,,,,90402,001,2022-04-27_12h48.14.627,SPAMnetsValid,2021.1.4,Win32,75.07507508,,,,,,,,,,,,,,,,,,,,,,,,,,,,,,,,,,,,,,,,,,,,,,,,,,,,,,,,,,,,,,,,,pig,Animals,22,0,22,0,1,,,,,,,,,,,,,,,,,,
,,,,,,,,,,,,,,,90402,001,2022-04-27_12h48.14.627,SPAMnetsValid,2021.1.4,Win32,75.07507508,,,,,,,,,,,,,,,,,,,,,,,,,,,,,,,,,,,,,,,,,,,,,,,,,,,,,,,,,,,,,,,,,chicken,Animals,23,0,23,0,1,,,,,,,,,,,,,,,,,,
,,,,,,,,,,,,,,,90402,001,2022-04-27_12h48.14.627,SPAMnetsValid,2021.1.4,Win32,75.07507508,,,,,,,,,,,,,,,,,,,,,,,,,,,,,,,,,,,,,,,,,,,,,,,,,,,,,,,,,,,,,,,,,horse,Animals,24,0,24,0,1,,,,,,,,,,,,,,,,,,
,,,,,,,,,,,,,,,90402,001,2022-04-27_12h48.14.627,SPAMnetsValid,2021.1.4,Win32,75.07507508,,,,,,,,,,,,,,,,,,,,,,,,,,,,,,,,,,,,,,,,,,,,,,,,,,,,,,,,,,,,,,,,,monkey,Animals,25,0,25,0,1,,,,,,,,,,,,,,,,,,
,,,,,,,,,,,,,,,90402,001,2022-04-27_12h48.14.627,SPAMnetsValid,2021.1.4,Win32,75.07507508,,,,,,,,,,,,,,,,,,,,,,,,,,,,,,,,,,,,,,,,,,,,,,,,,,,,,,,,,,,,,,,,,gorilla,Animals,26,0,26,0,1,,,,,,,,,,,,,,,,,,
,,,,,,,,,,,,,,,90402,001,2022-04-27_12h48.14.627,SPAMnetsValid,2021.1.4,Win32,75.07507508,,,,,,,,,,,,,,,,,,,,,,,,,,,,,,,,,,,,,,,,,,,,,,,,,,,,,,,,,,,,,,,,,orangutang,Animals,27,0,27,0,1,,,,,,,,,,,,,,,,,,
,,,,,,,,,,,,,,,90402,001,2022-04-27_12h48.14.627,SPAMnetsValid,2021.1.4,Win32,75.07507508,,,,,,,,,,,,,,,,,,,,,,,,,,,,,,,,,,,,,,,,,,,,,,,,,,,,,,,,,,,,,,,,,platypus,Animals,28,0,28,0,1,,,,,,,,,,,,,,,,,,
,,,,,,,,,,,,,,,90402,001,2022-04-27_12h48.14.627,SPAMnetsValid,2021.1.4,Win32,75.07507508,,,,,,,,,,,,,,,,,,,,,,,,,,,,,,,,,,,,,,,,,,,,,,,,,,,,,,,,,,,,,,,,,narhwal,Animals,29,0,29,0,1,,,,,,,,,,,,,,,,,,
,,,,,,,,,,,,,,,90402,001,2022-04-27_12h48.14.627,SPAMnetsValid,2021.1.4,Win32,75.07507508,,,,,,,,,,,,,,,,,,,,,,,,,,,,,,,,,,,,,,,,,,,,,,,,,,,,,,,,,,,,,,,,,penguin,Animals,30,0,30,0,1,,,,,,,,,,,,,,,,,,
,,,,,,,,,,,,,,,90402,001,2022-04-27_12h48.14.627,SPAMnetsValid,2021.1.4,Win32,75.07507508,,,,,,,,,,,,,,,,,,,,,,,,,,,,,,,,,,,,,,,,,,,,,,,,,,,,,,,,,,,,,,,,,iguana,Animals,31,0,31,0,1,,,,,,,,,,,,,,,,,,
,,,,,,,,,,,,,,,90402,001,2022-04-27_12h48.14.627,SPAMnetsValid,2021.1.4,Win32,75.07507508,,,,,,,,,,,,,,,,,,,,,,,,,,,,,,,,,,,,,,,,,,,,,,,,,,,,,,,,,,,,,,,,,lizard,Animals,32,0,32,0,1,,,,,,,,,,,,,,,,,,
,,,,,,,,,,,,,,,90402,001,2022-04-27_12h48.14.627,SPAMnetsValid,2021.1.4,Win32,75.07507508,,,,,,,,,,,,,,,,,,,,,,,,,,,,,,,,,,,,,,,,,,,,,,,,,,,,,,,,,,,,,,,,,komodo dragon,Animals,33,0,33,0,1,,,,,,,,,,,,,,,,,,
,,,,,,,,,,,,,,,90402,001,2022-04-27_12h48.14.627,SPAMnetsValid,2021.1.4,Win32,75.07507508,,,,,,,,,,,,,,,,,,,,,,,,,,,,,,,,,,,,,,,,,,,,,,,,,,,,,,,,,,,,,,,,,groundhog,Animals,34,0,34,0,1,,,,,,,,,,,,,,,,,,
,,,,,,,,,,,,,,,90402,001,2022-04-27_12h48.14.627,SPAMnetsValid,2021.1.4,Win32,75.07507508,,,,,,,,,,,,,,,,,,,,,,,,,,,,,,,,,,,,,,,,,,,,,,,,,,,,,,,,,,,,,,,,,prarie dog,Animals,35,0,35,0,1,,,,,,,,,,,,,,,,,,
,,,,,,,,,,,,,,,90402,001,2022-04-27_12h48.14.627,SPAMnetsValid,2021.1.4,Win32,75.07507508,,,,,,,,,,,,,,,,,,,,,,,,,,,,,,,,,,,,,,,,,,,,,,,,,,,,,,,,,,,,,,,,,hyena,Animals,36,0,36,0,1,,,,,,,,,,,,,,,,,,
,,,,,,,,,,,,,,,90402,001,2022-04-27_12h48.14.627,SPAMnetsValid,2021.1.4,Win32,75.07507508,,,,,,,,,,,,,,,,,,,,,,,,,,,,,,,,,,,,,,,,,,,,,,,,,,,,,,,,,,,,,,,,,,,,,,,,0,0,0,0,1,Animals,,,,,,,,,,,,
,,,,,,,,,,,,,,,90402,001,2022-04-27_12h48.14.627,SPAMnetsValid,2021.1.4,Win32,75.07507508,,,,,,,,,,,,,,,,,,,,,,,,,,,,,,,,,,,,,,,,,,,,,,,,,,,,,,,,,,,,,,,,,,,,,,,,,,,,,,5,3.8649,0,0,0,0,1,"I enjoy concentrating on a fantasy or daydream and exploring all its possibilities, letting it grow and develop.",0,1,,
,,,,,,,,,,,,,,,90402,001,2022-04-27_12h48.14.627,SPAMnetsValid,2021.1.4,Win32,75.07507508,,,,,,,,,,,,,,,,,,,,,,,,,,,,,,,,,,,,,,,,,,,,,,,,,,,,,,,,,,,,,,,,,,,,,,,,,,,,,,5,4.4186,0,1,1,1,1,I think it's interesting to learn and develop new hobbies.,0,2,,
,,,,,,,,,,,,,,,90402,001,2022-04-27_12h48.14.627,SPAMnetsValid,2021.1.4,Win32,75.07507508,,,,,,,,,,,,,,,,,,,,,,,,,,,,,,,,,,,,,,,,,,,,,,,,,,,,,,,,,,,,,,,,,,,,,,,,,,,,,,4,1.9119,0,2,2,2,1,I am intrigued by the patterns I find in art and nature.,0,3,,
,,,,,,,,,,,,,,,90402,001,2022-04-27_12h48.14.627,SPAMnetsValid,2021.1.4,Win32,75.07507508,,,,,,,,,,,,,,,,,,,,,,,,,,,,,,,,,,,,,,,,,,,,,,,,,,,,,,,,,,,,,,,,,,,,,,,,,,,,,,3,9.0651,0,3,3,3,1,I believe letting students hear controversial speakers can only confuse and mislead them.,1,4,,
,,,,,,,,,,,,,,,90402,001,2022-04-27_12h48.14.627,SPAMnetsValid,2021.1.4,Win32,75.07507508,,,,,,,,,,,,,,,,,,,,,,,,,,,,,,,,,,,,,,,,,,,,,,,,,,,,,,,,,,,,,,,,,,,,,,,,,,,,,,2,3.2821,0,4,4,4,1,Poetry has little or no effect on me.,1,5,,
,,,,,,,,,,,,,,,90402,001,2022-04-27_12h48.14.627,SPAMnetsValid,2021.1.4,Win32,75.07507508,,,,,,,,,,,,,,,,,,,,,,,,,,,,,,,,,,,,,,,,,,,,,,,,,,,,,,,,,,,,,,,,,,,,,,,,,,,,,,1,6.274,0,5,5,5,1,I would have difficulty just letting my mind wander without control or guidance.,1,6,,
,,,,,,,,,,,,,,,90402,001,2022-04-27_12h48.14.627,SPAMnetsValid,2021.1.4,Win32,75.07507508,,,,,,,,,,,,,,,,,,,,,,,,,,,,,,,,,,,,,,,,,,,,,,,,,,,,,,,,,,,,,,,,,,,,,,,,,,,,,,2,5.0033,0,6,6,6,1,I seldom notice the moods or feelings that different environments produce.,1,7,,
,,,,,,,,,,,,,,,90402,001,2022-04-27_12h48.14.627,SPAMnetsValid,2021.1.4,Win32,75.07507508,,,,,,,,,,,,,,,,,,,,,,,,,,,,,,,,,,,,,,,,,,,,,,,,,,,,,,,,,,,,,,,,,,,,,,,,,,,,,,4,2.251,0,7,7,7,1,I experience a wide range of emotions or feelings.,0,8,,
,,,,,,,,,,,,,,,90402,001,2022-04-27_12h48.14.627,SPAMnetsValid,2021.1.4,Win32,75.07507508,,,,,,,,,,,,,,,,,,,,,,,,,,,,,,,,,,,,,,,,,,,,,,,,,,,,,,,,,,,,,,,,,,,,,,,,,,,,,,5,4.5434,0,8,8,8,1,"Sometimes when I am reading poetry or looking at a work of art, I feel a chill or wave of excitement.",0,9,,
,,,,,,,,,,,,,,,90402,001,2022-04-27_12h48.14.627,SPAMnetsValid,2021.1.4,Win32,75.07507508,,,,,,,,,,,,,,,,,,,,,,,,,,,,,,,,,,,,,,,,,,,,,,,,,,,,,,,,,,,,,,,,,,,,,,,,,,,,,,2,13.516,0,9,9,9,1,I have little interest in speculating on the nature of the universe or the human condition.,1,10,,
,,,,,,,,,,,,,,,90402,001,2022-04-27_12h48.14.627,SPAMnetsValid,2021.1.4,Win32,75.07507508,,,,,,,,,,,,,,,,,,,,,,,,,,,,,,,,,,,,,,,,,,,,,,,,,,,,,,,,,,,,,,,,,,,,,,,,,,,,,,4,2.201,0,10,10,10,1,I have a lot of intellectual curiosity.,0,11,,
,,,,,,,,,,,,,,,90402,001,2022-04-27_12h48.14.627,SPAMnetsValid,2021.1.4,Win32,75.07507508,,,,,,,,,,,,,,,,,,,,,,,,,,,,,,,,,,,,,,,,,,,,,,,,,,,,,,,,,,,,,,,,,,,,,,,,,,,,,,4,1.229,0,11,11,11,1,I often enjoy playing with theories or abstract ideas.,0,12,,
,,,,,,,,,,,,,,,90402,001,2022-04-27_12h48.14.627,SPAMnetsValid,2021.1.4,Win32,75.07507508,,,,,,,,,,,,,,,,,,,,,,,,,,,,,,,,,,,,,,,,,,,,,,,,,,,,,,,,,,,,,,,,,,,,,,,,,,,,,,,,,,,,,,,,return,10.3112
