key_resp_3.keys,key_resp_3.rt,slider.response,slider.rt,rjt_rating,rjt_RT,trials_22.thisRepN,trials_22.thisTrialN,trials_22.thisN,trials_22.thisIndex,trials_22.ran,rjt_order,word1,word2,attention,participant,session,date,expName,psychopyVersion,OS,frameRate,trials_99.thisRepN,trials_99.thisTrialN,trials_99.thisN,trials_99.thisIndex,trials_99.ran,trials_5.thisRepN,trials_5.thisTrialN,trials_5.thisN,trials_5.thisIndex,trials_5.ran,repOne,repTwo,slider_2.response,slider_2.rt,trials_24.thisRepN,trials_24.thisTrialN,trials_24.thisN,trials_24.thisIndex,trials_24.ran,trials_4.thisRepN,trials_4.thisTrialN,trials_4.thisN,trials_4.thisIndex,trials_4.ran,slider_extend_2.response,slider_extend_2.rt,trials_6.thisRepN,trials_6.thisTrialN,trials_6.thisN,trials_6.thisIndex,trials_6.ran,vCue2,R1,R2,R3,R4,correct,sliderVocab.response,sliderVocab.rt,trials_7.thisRepN,trials_7.thisTrialN,trials_7.thisN,trials_7.thisIndex,trials_7.ran,VocabCue,VR1,VR2,VR3,VR4,VR5,VocabCorrect,AUT_resp,AUT_label,trials.thisRepN,trials.thisTrialN,trials.thisN,trials.thisIndex,trials.ran,trials_2.thisRepN,trials_2.thisTrialN,trials_2.thisN,trials_2.thisIndex,trials_2.ran,aut_prompt,VF_response,VF_tag,trials_16.thisRepN,trials_16.thisTrialN,trials_16.thisN,trials_16.thisIndex,trials_16.ran,trials_17.thisRepN,trials_17.thisTrialN,trials_17.thisN,trials_17.thisIndex,trials_17.ran,VFcond,open_slider.response,open_slider.rt,trials_3.thisRepN,trials_3.thisTrialN,trials_3.thisN,trials_3.thisIndex,trials_3.ran,OpenQ,Rev,OPEN_ORDER,key_resp_2.keys,key_resp_2.rt
return,9.1738,1,8.7953,1,8.7953,0,0,0,84,1,91,microwave,rose,,90417,001,2022-04-23_21h46.44.276,SPAMnetsValid,2021.1.4,Win32,59.97361161,,,,,,,,,,,,,,,,,,,,,,,,,,,,,,,,,,,,,,,,,,,,,,,,,,,,,,,,,,,,,,,,,,,,,,,,,,,,,,,,,,,,,,,,,
,,8,1.8827,8,1.8827,0,1,1,19,1,76,garden,rose,,90417,001,2022-04-23_21h46.44.276,SPAMnetsValid,2021.1.4,Win32,59.97361161,,,,,,,,,,,,,,,,,,,,,,,,,,,,,,,,,,,,,,,,,,,,,,,,,,,,,,,,,,,,,,,,,,,,,,,,,,,,,,,,,,,,,,,,,
,,3,1.6665,3,1.6665,0,2,2,48,1,66,melon,yogurt,,90417,001,2022-04-23_21h46.44.276,SPAMnetsValid,2021.1.4,Win32,59.97361161,,,,,,,,,,,,,,,,,,,,,,,,,,,,,,,,,,,,,,,,,,,,,,,,,,,,,,,,,,,,,,,,,,,,,,,,,,,,,,,,,,,,,,,,,
,,3,1.9823,3,1.9823,0,3,3,72,1,59,rose,strawberry,,90417,001,2022-04-23_21h46.44.276,SPAMnetsValid,2021.1.4,Win32,59.97361161,,,,,,,,,,,,,,,,,,,,,,,,,,,,,,,,,,,,,,,,,,,,,,,,,,,,,,,,,,,,,,,,,,,,,,,,,,,,,,,,,,,,,,,,,
,,4,2.359,4,2.359,0,4,4,77,1,7,melon,tree,,90417,001,2022-04-23_21h46.44.276,SPAMnetsValid,2021.1.4,Win32,59.97361161,,,,,,,,,,,,,,,,,,,,,,,,,,,,,,,,,,,,,,,,,,,,,,,,,,,,,,,,,,,,,,,,,,,,,,,,,,,,,,,,,,,,,,,,,
,,9,1.2533,9,1.2533,0,5,5,10,1,191,cake,cake,CHECK,90417,001,2022-04-23_21h46.44.276,SPAMnetsValid,2021.1.4,Win32,59.97361161,,,,,,,,,,,,,,,,,,,,,,,,,,,,,,,,,,,,,,,,,,,,,,,,,,,,,,,,,,,,,,,,,,,,,,,,,,,,,,,,,,,,,,,,,
,,8,1.6659,8,1.6659,0,6,6,76,1,36,broom,kitchen,,90417,001,2022-04-23_21h46.44.276,SPAMnetsValid,2021.1.4,Win32,59.97361161,,,,,,,,,,,,,,,,,,,,,,,,,,,,,,,,,,,,,,,,,,,,,,,,,,,,,,,,,,,,,,,,,,,,,,,,,,,,,,,,,,,,,,,,,
,,7,1.1662,7,1.1662,0,7,7,87,1,79,garden,strawberry,,90417,001,2022-04-23_21h46.44.276,SPAMnetsValid,2021.1.4,Win32,59.97361161,,,,,,,,,,,,,,,,,,,,,,,,,,,,,,,,,,,,,,,,,,,,,,,,,,,,,,,,,,,,,,,,,,,,,,,,,,,,,,,,,,,,,,,,,
,,3,1.2171,3,1.2171,0,8,8,0,1,53,garden,pretzel,,90417,001,2022-04-23_21h46.44.276,SPAMnetsValid,2021.1.4,Win32,59.97361161,,,,,,,,,,,,,,,,,,,,,,,,,,,,,,,,,,,,,,,,,,,,,,,,,,,,,,,,,,,,,,,,,,,,,,,,,,,,,,,,,,,,,,,,,
,,3,1.9004,3,1.9004,0,9,9,81,1,60,cactus,onion,,90417,001,2022-04-23_21h46.44.276,SPAMnetsValid,2021.1.4,Win32,59.97361161,,,,,,,,,,,,,,,,,,,,,,,,,,,,,,,,,,,,,,,,,,,,,,,,,,,,,,,,,,,,,,,,,,,,,,,,,,,,,,,,,,,,,,,,,
,,8,1.349,8,1.349,0,10,10,96,1,82,cake,kitchen,,90417,001,2022-04-23_21h46.44.276,SPAMnetsValid,2021.1.4,Win32,59.97361161,,,,,,,,,,,,,,,,,,,,,,,,,,,,,,,,,,,,,,,,,,,,,,,,,,,,,,,,,,,,,,,,,,,,,,,,,,,,,,,,,,,,,,,,,
,,5,1.4996,5,1.4996,0,11,11,69,1,45,onion,pretzel,,90417,001,2022-04-23_21h46.44.276,SPAMnetsValid,2021.1.4,Win32,59.97361161,,,,,,,,,,,,,,,,,,,,,,,,,,,,,,,,,,,,,,,,,,,,,,,,,,,,,,,,,,,,,,,,,,,,,,,,,,,,,,,,,,,,,,,,,
,,3,1.3041,3,1.3041,0,12,12,47,1,73,broom,chocolate,,90417,001,2022-04-23_21h46.44.276,SPAMnetsValid,2021.1.4,Win32,59.97361161,,,,,,,,,,,,,,,,,,,,,,,,,,,,,,,,,,,,,,,,,,,,,,,,,,,,,,,,,,,,,,,,,,,,,,,,,,,,,,,,,,,,,,,,,
,,5,1.9658,5,1.9658,0,13,13,34,1,29,chocolate,melon,,90417,001,2022-04-23_21h46.44.276,SPAMnetsValid,2021.1.4,Win32,59.97361161,,,,,,,,,,,,,,,,,,,,,,,,,,,,,,,,,,,,,,,,,,,,,,,,,,,,,,,,,,,,,,,,,,,,,,,,,,,,,,,,,,,,,,,,,
,,2,1.5837,2,1.5837,0,14,14,46,1,41,broom,cactus,,90417,001,2022-04-23_21h46.44.276,SPAMnetsValid,2021.1.4,Win32,59.97361161,,,,,,,,,,,,,,,,,,,,,,,,,,,,,,,,,,,,,,,,,,,,,,,,,,,,,,,,,,,,,,,,,,,,,,,,,,,,,,,,,,,,,,,,,
,,2,1.2429,2,1.2429,0,15,15,22,1,16,chocolate,flower,,90417,001,2022-04-23_21h46.44.276,SPAMnetsValid,2021.1.4,Win32,59.97361161,,,,,,,,,,,,,,,,,,,,,,,,,,,,,,,,,,,,,,,,,,,,,,,,,,,,,,,,,,,,,,,,,,,,,,,,,,,,,,,,,,,,,,,,,
,,5,3.8003,5,3.8003,0,16,16,86,1,51,onion,strawberry,,90417,001,2022-04-23_21h46.44.276,SPAMnetsValid,2021.1.4,Win32,59.97361161,,,,,,,,,,,,,,,,,,,,,,,,,,,,,,,,,,,,,,,,,,,,,,,,,,,,,,,,,,,,,,,,,,,,,,,,,,,,,,,,,,,,,,,,,
,,8,1.8322,8,1.8322,0,17,17,50,1,81,pretzel,yogurt,,90417,001,2022-04-23_21h46.44.276,SPAMnetsValid,2021.1.4,Win32,59.97361161,,,,,,,,,,,,,,,,,,,,,,,,,,,,,,,,,,,,,,,,,,,,,,,,,,,,,,,,,,,,,,,,,,,,,,,,,,,,,,,,,,,,,,,,,
,,7,1.7769,7,1.7769,0,18,18,30,1,3,cake,oven,,90417,001,2022-04-23_21h46.44.276,SPAMnetsValid,2021.1.4,Win32,59.97361161,,,,,,,,,,,,,,,,,,,,,,,,,,,,,,,,,,,,,,,,,,,,,,,,,,,,,,,,,,,,,,,,,,,,,,,,,,,,,,,,,,,,,,,,,
,,2,1.099,2,1.099,0,19,19,4,1,83,broom,carrot,,90417,001,2022-04-23_21h46.44.276,SPAMnetsValid,2021.1.4,Win32,59.97361161,,,,,,,,,,,,,,,,,,,,,,,,,,,,,,,,,,,,,,,,,,,,,,,,,,,,,,,,,,,,,,,,,,,,,,,,,,,,,,,,,,,,,,,,,
,,2,1.2272,2,1.2272,0,20,20,62,1,18,onion,refrigerator,,90417,001,2022-04-23_21h46.44.276,SPAMnetsValid,2021.1.4,Win32,59.97361161,,,,,,,,,,,,,,,,,,,,,,,,,,,,,,,,,,,,,,,,,,,,,,,,,,,,,,,,,,,,,,,,,,,,,,,,,,,,,,,,,,,,,,,,,
,,2,3.0054,2,3.0054,0,21,21,16,1,14,broom,cookie,,90417,001,2022-04-23_21h46.44.276,SPAMnetsValid,2021.1.4,Win32,59.97361161,,,,,,,,,,,,,,,,,,,,,,,,,,,,,,,,,,,,,,,,,,,,,,,,,,,,,,,,,,,,,,,,,,,,,,,,,,,,,,,,,,,,,,,,,
,,7,1.3769,7,1.3769,0,22,22,25,1,23,flower,microwave,,90417,001,2022-04-23_21h46.44.276,SPAMnetsValid,2021.1.4,Win32,59.97361161,,,,,,,,,,,,,,,,,,,,,,,,,,,,,,,,,,,,,,,,,,,,,,,,,,,,,,,,,,,,,,,,,,,,,,,,,,,,,,,,,,,,,,,,,
,,3,2.1566,3,2.1566,0,23,23,70,1,5,oven,tree,,90417,001,2022-04-23_21h46.44.276,SPAMnetsValid,2021.1.4,Win32,59.97361161,,,,,,,,,,,,,,,,,,,,,,,,,,,,,,,,,,,,,,,,,,,,,,,,,,,,,,,,,,,,,,,,,,,,,,,,,,,,,,,,,,,,,,,,,
,,5,2.529,5,2.529,0,24,24,38,1,88,cactus,melon,,90417,001,2022-04-23_21h46.44.276,SPAMnetsValid,2021.1.4,Win32,59.97361161,,,,,,,,,,,,,,,,,,,,,,,,,,,,,,,,,,,,,,,,,,,,,,,,,,,,,,,,,,,,,,,,,,,,,,,,,,,,,,,,,,,,,,,,,
,,4,1.4838,4,1.4838,0,25,25,80,1,61,strawberry,tomato,,90417,001,2022-04-23_21h46.44.276,SPAMnetsValid,2021.1.4,Win32,59.97361161,,,,,,,,,,,,,,,,,,,,,,,,,,,,,,,,,,,,,,,,,,,,,,,,,,,,,,,,,,,,,,,,,,,,,,,,,,,,,,,,,,,,,,,,,
,,7,1.9948,7,1.9948,0,26,26,3,1,49,flower,strawberry,,90417,001,2022-04-23_21h46.44.276,SPAMnetsValid,2021.1.4,Win32,59.97361161,,,,,,,,,,,,,,,,,,,,,,,,,,,,,,,,,,,,,,,,,,,,,,,,,,,,,,,,,,,,,,,,,,,,,,,,,,,,,,,,,,,,,,,,,
,,2,1.4083,2,1.4083,0,27,27,18,1,85,cake,tree,,90417,001,2022-04-23_21h46.44.276,SPAMnetsValid,2021.1.4,Win32,59.97361161,,,,,,,,,,,,,,,,,,,,,,,,,,,,,,,,,,,,,,,,,,,,,,,,,,,,,,,,,,,,,,,,,,,,,,,,,,,,,,,,,,,,,,,,,
,,1,1.2048,1,1.2048,0,28,28,14,1,64,chocolate,garden,,90417,001,2022-04-23_21h46.44.276,SPAMnetsValid,2021.1.4,Win32,59.97361161,,,,,,,,,,,,,,,,,,,,,,,,,,,,,,,,,,,,,,,,,,,,,,,,,,,,,,,,,,,,,,,,,,,,,,,,,,,,,,,,,,,,,,,,,
,,9,1.1143,9,1.1143,0,29,29,53,1,192,microwave,microwave,CHECK,90417,001,2022-04-23_21h46.44.276,SPAMnetsValid,2021.1.4,Win32,59.97361161,,,,,,,,,,,,,,,,,,,,,,,,,,,,,,,,,,,,,,,,,,,,,,,,,,,,,,,,,,,,,,,,,,,,,,,,,,,,,,,,,,,,,,,,,
,,1,2.1692,1,2.1692,0,30,30,37,1,58,garden,oven,,90417,001,2022-04-23_21h46.44.276,SPAMnetsValid,2021.1.4,Win32,59.97361161,,,,,,,,,,,,,,,,,,,,,,,,,,,,,,,,,,,,,,,,,,,,,,,,,,,,,,,,,,,,,,,,,,,,,,,,,,,,,,,,,,,,,,,,,
,,1,1.7055,1,1.7055,0,31,31,79,1,86,oven,rose,,90417,001,2022-04-23_21h46.44.276,SPAMnetsValid,2021.1.4,Win32,59.97361161,,,,,,,,,,,,,,,,,,,,,,,,,,,,,,,,,,,,,,,,,,,,,,,,,,,,,,,,,,,,,,,,,,,,,,,,,,,,,,,,,,,,,,,,,
,,5,4.2577,5,4.2577,0,32,32,24,1,17,carrot,melon,,90417,001,2022-04-23_21h46.44.276,SPAMnetsValid,2021.1.4,Win32,59.97361161,,,,,,,,,,,,,,,,,,,,,,,,,,,,,,,,,,,,,,,,,,,,,,,,,,,,,,,,,,,,,,,,,,,,,,,,,,,,,,,,,,,,,,,,,
,,5,2.2084,5,2.2084,0,33,33,13,1,26,tomato,yogurt,,90417,001,2022-04-23_21h46.44.276,SPAMnetsValid,2021.1.4,Win32,59.97361161,,,,,,,,,,,,,,,,,,,,,,,,,,,,,,,,,,,,,,,,,,,,,,,,,,,,,,,,,,,,,,,,,,,,,,,,,,,,,,,,,,,,,,,,,
,,3,1.8661,3,1.8661,0,34,34,7,1,34,melon,oven,,90417,001,2022-04-23_21h46.44.276,SPAMnetsValid,2021.1.4,Win32,59.97361161,,,,,,,,,,,,,,,,,,,,,,,,,,,,,,,,,,,,,,,,,,,,,,,,,,,,,,,,,,,,,,,,,,,,,,,,,,,,,,,,,,,,,,,,,
,,3,1.304,3,1.304,0,35,35,39,1,15,onion,oven,,90417,001,2022-04-23_21h46.44.276,SPAMnetsValid,2021.1.4,Win32,59.97361161,,,,,,,,,,,,,,,,,,,,,,,,,,,,,,,,,,,,,,,,,,,,,,,,,,,,,,,,,,,,,,,,,,,,,,,,,,,,,,,,,,,,,,,,,
,,5,1.7579,5,1.7579,0,36,36,51,1,47,onion,tomato,,90417,001,2022-04-23_21h46.44.276,SPAMnetsValid,2021.1.4,Win32,59.97361161,,,,,,,,,,,,,,,,,,,,,,,,,,,,,,,,,,,,,,,,,,,,,,,,,,,,,,,,,,,,,,,,,,,,,,,,,,,,,,,,,,,,,,,,,
,,2,2.158,2,2.158,0,37,37,12,1,67,flower,yogurt,,90417,001,2022-04-23_21h46.44.276,SPAMnetsValid,2021.1.4,Win32,59.97361161,,,,,,,,,,,,,,,,,,,,,,,,,,,,,,,,,,,,,,,,,,,,,,,,,,,,,,,,,,,,,,,,,,,,,,,,,,,,,,,,,,,,,,,,,
,,4,1.3895,4,1.3895,0,38,38,66,1,20,rose,tree,,90417,001,2022-04-23_21h46.44.276,SPAMnetsValid,2021.1.4,Win32,59.97361161,,,,,,,,,,,,,,,,,,,,,,,,,,,,,,,,,,,,,,,,,,,,,,,,,,,,,,,,,,,,,,,,,,,,,,,,,,,,,,,,,,,,,,,,,
,,6,2.2713,6,2.2713,0,39,39,89,1,80,chocolate,tree,,90417,001,2022-04-23_21h46.44.276,SPAMnetsValid,2021.1.4,Win32,59.97361161,,,,,,,,,,,,,,,,,,,,,,,,,,,,,,,,,,,,,,,,,,,,,,,,,,,,,,,,,,,,,,,,,,,,,,,,,,,,,,,,,,,,,,,,,
,,9,1.588,9,1.588,0,40,40,93,1,63,cake,cookie,,90417,001,2022-04-23_21h46.44.276,SPAMnetsValid,2021.1.4,Win32,59.97361161,,,,,,,,,,,,,,,,,,,,,,,,,,,,,,,,,,,,,,,,,,,,,,,,,,,,,,,,,,,,,,,,,,,,,,,,,,,,,,,,,,,,,,,,,
,,2,2.7081,2,2.7081,0,41,41,61,1,71,broom,rose,,90417,001,2022-04-23_21h46.44.276,SPAMnetsValid,2021.1.4,Win32,59.97361161,,,,,,,,,,,,,,,,,,,,,,,,,,,,,,,,,,,,,,,,,,,,,,,,,,,,,,,,,,,,,,,,,,,,,,,,,,,,,,,,,,,,,,,,,
,,4,1.2538,4,1.2538,0,42,42,54,1,28,cake,melon,,90417,001,2022-04-23_21h46.44.276,SPAMnetsValid,2021.1.4,Win32,59.97361161,,,,,,,,,,,,,,,,,,,,,,,,,,,,,,,,,,,,,,,,,,,,,,,,,,,,,,,,,,,,,,,,,,,,,,,,,,,,,,,,,,,,,,,,,
,,1,2.1426,1,2.1426,0,43,43,60,1,89,chocolate,rose,,90417,001,2022-04-23_21h46.44.276,SPAMnetsValid,2021.1.4,Win32,59.97361161,,,,,,,,,,,,,,,,,,,,,,,,,,,,,,,,,,,,,,,,,,,,,,,,,,,,,,,,,,,,,,,,,,,,,,,,,,,,,,,,,,,,,,,,,
,,1,1.04,1,1.04,0,44,44,56,1,78,cookie,rose,,90417,001,2022-04-23_21h46.44.276,SPAMnetsValid,2021.1.4,Win32,59.97361161,,,,,,,,,,,,,,,,,,,,,,,,,,,,,,,,,,,,,,,,,,,,,,,,,,,,,,,,,,,,,,,,,,,,,,,,,,,,,,,,,,,,,,,,,
,,3,1.5726,3,1.5726,0,45,45,45,1,10,flower,onion,,90417,001,2022-04-23_21h46.44.276,SPAMnetsValid,2021.1.4,Win32,59.97361161,,,,,,,,,,,,,,,,,,,,,,,,,,,,,,,,,,,,,,,,,,,,,,,,,,,,,,,,,,,,,,,,,,,,,,,,,,,,,,,,,,,,,,,,,
,,2,1.7971,2,1.7971,0,46,46,63,1,21,cake,onion,,90417,001,2022-04-23_21h46.44.276,SPAMnetsValid,2021.1.4,Win32,59.97361161,,,,,,,,,,,,,,,,,,,,,,,,,,,,,,,,,,,,,,,,,,,,,,,,,,,,,,,,,,,,,,,,,,,,,,,,,,,,,,,,,,,,,,,,,
,,1,1.4908,1,1.4908,0,47,47,41,1,19,microwave,pretzel,,90417,001,2022-04-23_21h46.44.276,SPAMnetsValid,2021.1.4,Win32,59.97361161,,,,,,,,,,,,,,,,,,,,,,,,,,,,,,,,,,,,,,,,,,,,,,,,,,,,,,,,,,,,,,,,,,,,,,,,,,,,,,,,,,,,,,,,,
,,5,2.4713,5,2.4713,0,48,48,29,1,42,garden,kitchen,,90417,001,2022-04-23_21h46.44.276,SPAMnetsValid,2021.1.4,Win32,59.97361161,,,,,,,,,,,,,,,,,,,,,,,,,,,,,,,,,,,,,,,,,,,,,,,,,,,,,,,,,,,,,,,,,,,,,,,,,,,,,,,,,,,,,,,,,
,,1,1.9553,1,1.9553,0,49,49,88,1,92,broom,flower,,90417,001,2022-04-23_21h46.44.276,SPAMnetsValid,2021.1.4,Win32,59.97361161,,,,,,,,,,,,,,,,,,,,,,,,,,,,,,,,,,,,,,,,,,,,,,,,,,,,,,,,,,,,,,,,,,,,,,,,,,,,,,,,,,,,,,,,,
,,2,1.8131,2,1.8131,0,50,50,68,1,24,cookie,tomato,,90417,001,2022-04-23_21h46.44.276,SPAMnetsValid,2021.1.4,Win32,59.97361161,,,,,,,,,,,,,,,,,,,,,,,,,,,,,,,,,,,,,,,,,,,,,,,,,,,,,,,,,,,,,,,,,,,,,,,,,,,,,,,,,,,,,,,,,
,,2,1.8289,2,1.8289,0,51,51,32,1,40,broom,cake,,90417,001,2022-04-23_21h46.44.276,SPAMnetsValid,2021.1.4,Win32,59.97361161,,,,,,,,,,,,,,,,,,,,,,,,,,,,,,,,,,,,,,,,,,,,,,,,,,,,,,,,,,,,,,,,,,,,,,,,,,,,,,,,,,,,,,,,,
,,1,1.0968,1,1.0968,0,52,52,40,1,74,broom,pretzel,,90417,001,2022-04-23_21h46.44.276,SPAMnetsValid,2021.1.4,Win32,59.97361161,,,,,,,,,,,,,,,,,,,,,,,,,,,,,,,,,,,,,,,,,,,,,,,,,,,,,,,,,,,,,,,,,,,,,,,,,,,,,,,,,,,,,,,,,
,,5,3.0089,5,3.0089,0,53,53,2,1,22,kitchen,strawberry,,90417,001,2022-04-23_21h46.44.276,SPAMnetsValid,2021.1.4,Win32,59.97361161,,,,,,,,,,,,,,,,,,,,,,,,,,,,,,,,,,,,,,,,,,,,,,,,,,,,,,,,,,,,,,,,,,,,,,,,,,,,,,,,,,,,,,,,,
,,9,1.2882,9,1.2882,0,54,54,52,1,4,chocolate,pretzel,,90417,001,2022-04-23_21h46.44.276,SPAMnetsValid,2021.1.4,Win32,59.97361161,,,,,,,,,,,,,,,,,,,,,,,,,,,,,,,,,,,,,,,,,,,,,,,,,,,,,,,,,,,,,,,,,,,,,,,,,,,,,,,,,,,,,,,,,
,,2,1.3877,2,1.3877,0,55,55,83,1,6,garden,onion,,90417,001,2022-04-23_21h46.44.276,SPAMnetsValid,2021.1.4,Win32,59.97361161,,,,,,,,,,,,,,,,,,,,,,,,,,,,,,,,,,,,,,,,,,,,,,,,,,,,,,,,,,,,,,,,,,,,,,,,,,,,,,,,,,,,,,,,,
,,6,3.7052,6,3.7052,0,56,56,90,1,95,broom,refrigerator,,90417,001,2022-04-23_21h46.44.276,SPAMnetsValid,2021.1.4,Win32,59.97361161,,,,,,,,,,,,,,,,,,,,,,,,,,,,,,,,,,,,,,,,,,,,,,,,,,,,,,,,,,,,,,,,,,,,,,,,,,,,,,,,,,,,,,,,,
,,5,1.59,5,1.59,0,57,57,78,1,30,cookie,pretzel,,90417,001,2022-04-23_21h46.44.276,SPAMnetsValid,2021.1.4,Win32,59.97361161,,,,,,,,,,,,,,,,,,,,,,,,,,,,,,,,,,,,,,,,,,,,,,,,,,,,,,,,,,,,,,,,,,,,,,,,,,,,,,,,,,,,,,,,,
,,3,2.4109,3,2.4109,0,58,58,6,1,87,carrot,yogurt,,90417,001,2022-04-23_21h46.44.276,SPAMnetsValid,2021.1.4,Win32,59.97361161,,,,,,,,,,,,,,,,,,,,,,,,,,,,,,,,,,,,,,,,,,,,,,,,,,,,,,,,,,,,,,,,,,,,,,,,,,,,,,,,,,,,,,,,,
,,5,2.0623,5,2.0623,0,59,59,15,1,48,flower,oven,,90417,001,2022-04-23_21h46.44.276,SPAMnetsValid,2021.1.4,Win32,59.97361161,,,,,,,,,,,,,,,,,,,,,,,,,,,,,,,,,,,,,,,,,,,,,,,,,,,,,,,,,,,,,,,,,,,,,,,,,,,,,,,,,,,,,,,,,
,,5,1.1592,5,1.1592,0,60,60,65,1,46,garden,yogurt,,90417,001,2022-04-23_21h46.44.276,SPAMnetsValid,2021.1.4,Win32,59.97361161,,,,,,,,,,,,,,,,,,,,,,,,,,,,,,,,,,,,,,,,,,,,,,,,,,,,,,,,,,,,,,,,,,,,,,,,,,,,,,,,,,,,,,,,,
,,5,1.0597,5,1.0597,0,61,61,44,1,25,carrot,onion,,90417,001,2022-04-23_21h46.44.276,SPAMnetsValid,2021.1.4,Win32,59.97361161,,,,,,,,,,,,,,,,,,,,,,,,,,,,,,,,,,,,,,,,,,,,,,,,,,,,,,,,,,,,,,,,,,,,,,,,,,,,,,,,,,,,,,,,,
,,5,4.5393,5,4.5393,0,62,62,42,1,77,refrigerator,yogurt,,90417,001,2022-04-23_21h46.44.276,SPAMnetsValid,2021.1.4,Win32,59.97361161,,,,,,,,,,,,,,,,,,,,,,,,,,,,,,,,,,,,,,,,,,,,,,,,,,,,,,,,,,,,,,,,,,,,,,,,,,,,,,,,,,,,,,,,,
,,2,1.4785,2,1.4785,0,63,63,17,1,27,cactus,cookie,,90417,001,2022-04-23_21h46.44.276,SPAMnetsValid,2021.1.4,Win32,59.97361161,,,,,,,,,,,,,,,,,,,,,,,,,,,,,,,,,,,,,,,,,,,,,,,,,,,,,,,,,,,,,,,,,,,,,,,,,,,,,,,,,,,,,,,,,
,,1,1.4378,1,1.4378,0,64,64,9,1,75,cookie,onion,,90417,001,2022-04-23_21h46.44.276,SPAMnetsValid,2021.1.4,Win32,59.97361161,,,,,,,,,,,,,,,,,,,,,,,,,,,,,,,,,,,,,,,,,,,,,,,,,,,,,,,,,,,,,,,,,,,,,,,,,,,,,,,,,,,,,,,,,
,,1,1.4603,1,1.4603,0,65,65,5,1,13,broom,yogurt,,90417,001,2022-04-23_21h46.44.276,SPAMnetsValid,2021.1.4,Win32,59.97361161,,,,,,,,,,,,,,,,,,,,,,,,,,,,,,,,,,,,,,,,,,,,,,,,,,,,,,,,,,,,,,,,,,,,,,,,,,,,,,,,,,,,,,,,,
,,6,1.9234,6,1.9234,0,66,66,11,1,37,garden,refrigerator,,90417,001,2022-04-23_21h46.44.276,SPAMnetsValid,2021.1.4,Win32,59.97361161,,,,,,,,,,,,,,,,,,,,,,,,,,,,,,,,,,,,,,,,,,,,,,,,,,,,,,,,,,,,,,,,,,,,,,,,,,,,,,,,,,,,,,,,,
,,1,1.873,1,1.873,0,67,67,23,1,65,broom,garden,,90417,001,2022-04-23_21h46.44.276,SPAMnetsValid,2021.1.4,Win32,59.97361161,,,,,,,,,,,,,,,,,,,,,,,,,,,,,,,,,,,,,,,,,,,,,,,,,,,,,,,,,,,,,,,,,,,,,,,,,,,,,,,,,,,,,,,,,
,,6,1.4736,6,1.4736,0,68,68,91,1,2,kitchen,onion,,90417,001,2022-04-23_21h46.44.276,SPAMnetsValid,2021.1.4,Win32,59.97361161,,,,,,,,,,,,,,,,,,,,,,,,,,,,,,,,,,,,,,,,,,,,,,,,,,,,,,,,,,,,,,,,,,,,,,,,,,,,,,,,,,,,,,,,,
,,1,1.1556,1,1.1556,0,69,69,27,1,72,broom,onion,,90417,001,2022-04-23_21h46.44.276,SPAMnetsValid,2021.1.4,Win32,59.97361161,,,,,,,,,,,,,,,,,,,,,,,,,,,,,,,,,,,,,,,,,,,,,,,,,,,,,,,,,,,,,,,,,,,,,,,,,,,,,,,,,,,,,,,,,
,,1,1.4045,1,1.4045,0,70,70,55,1,1,rose,yogurt,,90417,001,2022-04-23_21h46.44.276,SPAMnetsValid,2021.1.4,Win32,59.97361161,,,,,,,,,,,,,,,,,,,,,,,,,,,,,,,,,,,,,,,,,,,,,,,,,,,,,,,,,,,,,,,,,,,,,,,,,,,,,,,,,,,,,,,,,
,,3,2.3826,3,2.3826,0,71,71,28,1,84,oven,tomato,,90417,001,2022-04-23_21h46.44.276,SPAMnetsValid,2021.1.4,Win32,59.97361161,,,,,,,,,,,,,,,,,,,,,,,,,,,,,,,,,,,,,,,,,,,,,,,,,,,,,,,,,,,,,,,,,,,,,,,,,,,,,,,,,,,,,,,,,
,,3,0.9795,3,0.9795,0,72,72,31,1,33,oven,yogurt,,90417,001,2022-04-23_21h46.44.276,SPAMnetsValid,2021.1.4,Win32,59.97361161,,,,,,,,,,,,,,,,,,,,,,,,,,,,,,,,,,,,,,,,,,,,,,,,,,,,,,,,,,,,,,,,,,,,,,,,,,,,,,,,,,,,,,,,,
,,4,2.0024,4,2.0024,0,73,73,94,1,68,flower,tomato,,90417,001,2022-04-23_21h46.44.276,SPAMnetsValid,2021.1.4,Win32,59.97361161,,,,,,,,,,,,,,,,,,,,,,,,,,,,,,,,,,,,,,,,,,,,,,,,,,,,,,,,,,,,,,,,,,,,,,,,,,,,,,,,,,,,,,,,,
,,4,1.3555,4,1.3555,0,74,74,20,1,39,melon,pretzel,,90417,001,2022-04-23_21h46.44.276,SPAMnetsValid,2021.1.4,Win32,59.97361161,,,,,,,,,,,,,,,,,,,,,,,,,,,,,,,,,,,,,,,,,,,,,,,,,,,,,,,,,,,,,,,,,,,,,,,,,,,,,,,,,,,,,,,,,
,,8,1.4125,8,1.4125,0,75,75,82,1,93,kitchen,oven,,90417,001,2022-04-23_21h46.44.276,SPAMnetsValid,2021.1.4,Win32,59.97361161,,,,,,,,,,,,,,,,,,,,,,,,,,,,,,,,,,,,,,,,,,,,,,,,,,,,,,,,,,,,,,,,,,,,,,,,,,,,,,,,,,,,,,,,,
,,8,1.6623,8,1.6623,0,76,76,33,1,32,cake,microwave,,90417,001,2022-04-23_21h46.44.276,SPAMnetsValid,2021.1.4,Win32,59.97361161,,,,,,,,,,,,,,,,,,,,,,,,,,,,,,,,,,,,,,,,,,,,,,,,,,,,,,,,,,,,,,,,,,,,,,,,,,,,,,,,,,,,,,,,,
,,5,2.1468,5,2.1468,0,77,77,92,1,44,cookie,melon,,90417,001,2022-04-23_21h46.44.276,SPAMnetsValid,2021.1.4,Win32,59.97361161,,,,,,,,,,,,,,,,,,,,,,,,,,,,,,,,,,,,,,,,,,,,,,,,,,,,,,,,,,,,,,,,,,,,,,,,,,,,,,,,,,,,,,,,,
,,3,1.2651,3,1.2651,0,78,78,8,1,43,chocolate,tomato,,90417,001,2022-04-23_21h46.44.276,SPAMnetsValid,2021.1.4,Win32,59.97361161,,,,,,,,,,,,,,,,,,,,,,,,,,,,,,,,,,,,,,,,,,,,,,,,,,,,,,,,,,,,,,,,,,,,,,,,,,,,,,,,,,,,,,,,,
,,4,1.3877,4,1.3877,0,79,79,67,1,54,chocolate,yogurt,,90417,001,2022-04-23_21h46.44.276,SPAMnetsValid,2021.1.4,Win32,59.97361161,,,,,,,,,,,,,,,,,,,,,,,,,,,,,,,,,,,,,,,,,,,,,,,,,,,,,,,,,,,,,,,,,,,,,,,,,,,,,,,,,,,,,,,,,
,,4,1.7983,4,1.7983,0,80,80,21,1,56,cactus,tree,,90417,001,2022-04-23_21h46.44.276,SPAMnetsValid,2021.1.4,Win32,59.97361161,,,,,,,,,,,,,,,,,,,,,,,,,,,,,,,,,,,,,,,,,,,,,,,,,,,,,,,,,,,,,,,,,,,,,,,,,,,,,,,,,,,,,,,,,
,,5,1.4372,5,1.4372,0,81,81,35,1,55,tomato,tree,,90417,001,2022-04-23_21h46.44.276,SPAMnetsValid,2021.1.4,Win32,59.97361161,,,,,,,,,,,,,,,,,,,,,,,,,,,,,,,,,,,,,,,,,,,,,,,,,,,,,,,,,,,,,,,,,,,,,,,,,,,,,,,,,,,,,,,,,
,,3,1.9041,3,1.9041,0,82,82,26,1,35,flower,pretzel,,90417,001,2022-04-23_21h46.44.276,SPAMnetsValid,2021.1.4,Win32,59.97361161,,,,,,,,,,,,,,,,,,,,,,,,,,,,,,,,,,,,,,,,,,,,,,,,,,,,,,,,,,,,,,,,,,,,,,,,,,,,,,,,,,,,,,,,,
,,7,1.5424,7,1.5424,0,83,83,58,1,94,kitchen,microwave,,90417,001,2022-04-23_21h46.44.276,SPAMnetsValid,2021.1.4,Win32,59.97361161,,,,,,,,,,,,,,,,,,,,,,,,,,,,,,,,,,,,,,,,,,,,,,,,,,,,,,,,,,,,,,,,,,,,,,,,,,,,,,,,,,,,,,,,,
,,1,4.4778,1,4.4778,0,84,84,49,1,57,flower,kitchen,,90417,001,2022-04-23_21h46.44.276,SPAMnetsValid,2021.1.4,Win32,59.97361161,,,,,,,,,,,,,,,,,,,,,,,,,,,,,,,,,,,,,,,,,,,,,,,,,,,,,,,,,,,,,,,,,,,,,,,,,,,,,,,,,,,,,,,,,
,,8,1.3208,8,1.3208,0,85,85,64,1,9,kitchen,refrigerator,,90417,001,2022-04-23_21h46.44.276,SPAMnetsValid,2021.1.4,Win32,59.97361161,,,,,,,,,,,,,,,,,,,,,,,,,,,,,,,,,,,,,,,,,,,,,,,,,,,,,,,,,,,,,,,,,,,,,,,,,,,,,,,,,,,,,,,,,
,,3,1.3701,3,1.3701,0,86,86,71,1,38,pretzel,refrigerator,,90417,001,2022-04-23_21h46.44.276,SPAMnetsValid,2021.1.4,Win32,59.97361161,,,,,,,,,,,,,,,,,,,,,,,,,,,,,,,,,,,,,,,,,,,,,,,,,,,,,,,,,,,,,,,,,,,,,,,,,,,,,,,,,,,,,,,,,
,,2,1.6719,2,1.6719,0,87,87,74,1,70,chocolate,onion,,90417,001,2022-04-23_21h46.44.276,SPAMnetsValid,2021.1.4,Win32,59.97361161,,,,,,,,,,,,,,,,,,,,,,,,,,,,,,,,,,,,,,,,,,,,,,,,,,,,,,,,,,,,,,,,,,,,,,,,,,,,,,,,,,,,,,,,,
,,1,3.5562,1,3.5562,0,88,88,1,1,31,cactus,pretzel,,90417,001,2022-04-23_21h46.44.276,SPAMnetsValid,2021.1.4,Win32,59.97361161,,,,,,,,,,,,,,,,,,,,,,,,,,,,,,,,,,,,,,,,,,,,,,,,,,,,,,,,,,,,,,,,,,,,,,,,,,,,,,,,,,,,,,,,,
,,1,1.455,1,1.455,0,89,89,85,1,90,cactus,cake,,90417,001,2022-04-23_21h46.44.276,SPAMnetsValid,2021.1.4,Win32,59.97361161,,,,,,,,,,,,,,,,,,,,,,,,,,,,,,,,,,,,,,,,,,,,,,,,,,,,,,,,,,,,,,,,,,,,,,,,,,,,,,,,,,,,,,,,,
,,5,1.7594,5,1.7594,0,90,90,75,1,69,carrot,refrigerator,,90417,001,2022-04-23_21h46.44.276,SPAMnetsValid,2021.1.4,Win32,59.97361161,,,,,,,,,,,,,,,,,,,,,,,,,,,,,,,,,,,,,,,,,,,,,,,,,,,,,,,,,,,,,,,,,,,,,,,,,,,,,,,,,,,,,,,,,
,,5,3.6221,5,3.6221,0,91,91,36,1,12,cookie,yogurt,,90417,001,2022-04-23_21h46.44.276,SPAMnetsValid,2021.1.4,Win32,59.97361161,,,,,,,,,,,,,,,,,,,,,,,,,,,,,,,,,,,,,,,,,,,,,,,,,,,,,,,,,,,,,,,,,,,,,,,,,,,,,,,,,,,,,,,,,
,,3,1.1379,3,1.1379,0,92,92,73,1,50,carrot,rose,,90417,001,2022-04-23_21h46.44.276,SPAMnetsValid,2021.1.4,Win32,59.97361161,,,,,,,,,,,,,,,,,,,,,,,,,,,,,,,,,,,,,,,,,,,,,,,,,,,,,,,,,,,,,,,,,,,,,,,,,,,,,,,,,,,,,,,,,
,,3,5.3965,3,5.3965,0,93,93,43,1,11,refrigerator,tree,,90417,001,2022-04-23_21h46.44.276,SPAMnetsValid,2021.1.4,Win32,59.97361161,,,,,,,,,,,,,,,,,,,,,,,,,,,,,,,,,,,,,,,,,,,,,,,,,,,,,,,,,,,,,,,,,,,,,,,,,,,,,,,,,,,,,,,,,
,,3,1.406,3,1.406,0,94,94,57,1,62,kitchen,rose,,90417,001,2022-04-23_21h46.44.276,SPAMnetsValid,2021.1.4,Win32,59.97361161,,,,,,,,,,,,,,,,,,,,,,,,,,,,,,,,,,,,,,,,,,,,,,,,,,,,,,,,,,,,,,,,,,,,,,,,,,,,,,,,,,,,,,,,,
,,5,3.5051,5,3.5051,0,95,95,95,1,52,carrot,tomato,,90417,001,2022-04-23_21h46.44.276,SPAMnetsValid,2021.1.4,Win32,59.97361161,,,,,,,,,,,,,,,,,,,,,,,,,,,,,,,,,,,,,,,,,,,,,,,,,,,,,,,,,,,,,,,,,,,,,,,,,,,,,,,,,,,,,,,,,
,,1,4.5652,1,4.5652,0,96,96,59,1,8,broom,melon,,90417,001,2022-04-23_21h46.44.276,SPAMnetsValid,2021.1.4,Win32,59.97361161,,,,,,,,,,,,,,,,,,,,,,,,,,,,,,,,,,,,,,,,,,,,,,,,,,,,,,,,,,,,,,,,,,,,,,,,,,,,,,,,,,,,,,,,,
,,,,,,,,,,,,,,,90417,001,2022-04-23_21h46.44.276,SPAMnetsValid,2021.1.4,Win32,59.97361161,0,0,0,0,1,,,,,,,,,,,,,,,,,,,,,,,,,,,,,,,,,,,,,,,,,,,,,,,,,,,,,,,,,,,,,,,,,,,,,,,,,,,,,,,,,,,,
,,,,,,,,,,,,,,,90417,001,2022-04-23_21h46.44.276,SPAMnetsValid,2021.1.4,Win32,59.97361161,,,,,,0,0,0,0,1,1,0,,,,,,,,,,,,,,,,,,,,,,,,,,,,,,,,,,,,,,,,,,,,,,,,,,,,,,,,,,,,,,,,,,,,,,,,,,,,,
,,,,5,2.4205,,,,,,100,garden,tomato,,90417,001,2022-04-23_21h46.44.276,SPAMnetsValid,2021.1.4,Win32,59.97361161,,,,,,,,,,,,,5,2.4205,0,0,0,83,1,,,,,,,,,,,,,,,,,,,,,,,,,,,,,,,,,,,,,,,,,,,,,,,,,,,,,,,,,,,,,,,,,,,,,,
,,,,5,0.8203,,,,,,117,melon,strawberry,,90417,001,2022-04-23_21h46.44.276,SPAMnetsValid,2021.1.4,Win32,59.97361161,,,,,,,,,,,,,5,0.8203,0,1,1,11,1,,,,,,,,,,,,,,,,,,,,,,,,,,,,,,,,,,,,,,,,,,,,,,,,,,,,,,,,,,,,,,,,,,,,,,
,,,,5,0.8696,,,,,,156,melon,rose,,90417,001,2022-04-23_21h46.44.276,SPAMnetsValid,2021.1.4,Win32,59.97361161,,,,,,,,,,,,,5,0.8696,0,2,2,31,1,,,,,,,,,,,,,,,,,,,,,,,,,,,,,,,,,,,,,,,,,,,,,,,,,,,,,,,,,,,,,,,,,,,,,,
,,,,3,1.0667,,,,,,151,microwave,onion,,90417,001,2022-04-23_21h46.44.276,SPAMnetsValid,2021.1.4,Win32,59.97361161,,,,,,,,,,,,,3,1.0667,0,3,3,6,1,,,,,,,,,,,,,,,,,,,,,,,,,,,,,,,,,,,,,,,,,,,,,,,,,,,,,,,,,,,,,,,,,,,,,,
,,,,8,1.1545,,,,,,147,cake,refrigerator,,90417,001,2022-04-23_21h46.44.276,SPAMnetsValid,2021.1.4,Win32,59.97361161,,,,,,,,,,,,,8,1.1545,0,4,4,35,1,,,,,,,,,,,,,,,,,,,,,,,,,,,,,,,,,,,,,,,,,,,,,,,,,,,,,,,,,,,,,,,,,,,,,,
,,,,2,1.1328,,,,,,105,cactus,oven,,90417,001,2022-04-23_21h46.44.276,SPAMnetsValid,2021.1.4,Win32,59.97361161,,,,,,,,,,,,,2,1.1328,0,5,5,13,1,,,,,,,,,,,,,,,,,,,,,,,,,,,,,,,,,,,,,,,,,,,,,,,,,,,,,,,,,,,,,,,,,,,,,,
,,,,1,1.3159,,,,,,190,microwave,strawberry,,90417,001,2022-04-23_21h46.44.276,SPAMnetsValid,2021.1.4,Win32,59.97361161,,,,,,,,,,,,,1,1.3159,0,6,6,90,1,,,,,,,,,,,,,,,,,,,,,,,,,,,,,,,,,,,,,,,,,,,,,,,,,,,,,,,,,,,,,,,,,,,,,,
,,,,5,1.7492,,,,,,163,melon,refrigerator,,90417,001,2022-04-23_21h46.44.276,SPAMnetsValid,2021.1.4,Win32,59.97361161,,,,,,,,,,,,,5,1.7492,0,7,7,29,1,,,,,,,,,,,,,,,,,,,,,,,,,,,,,,,,,,,,,,,,,,,,,,,,,,,,,,,,,,,,,,,,,,,,,,
,,,,8,1.185,,,,,,160,cookie,kitchen,,90417,001,2022-04-23_21h46.44.276,SPAMnetsValid,2021.1.4,Win32,59.97361161,,,,,,,,,,,,,8,1.185,0,8,8,65,1,,,,,,,,,,,,,,,,,,,,,,,,,,,,,,,,,,,,,,,,,,,,,,,,,,,,,,,,,,,,,,,,,,,,,,
,,,,4,1.9339,,,,,,114,cookie,strawberry,,90417,001,2022-04-23_21h46.44.276,SPAMnetsValid,2021.1.4,Win32,59.97361161,,,,,,,,,,,,,4,1.9339,0,9,9,87,1,,,,,,,,,,,,,,,,,,,,,,,,,,,,,,,,,,,,,,,,,,,,,,,,,,,,,,,,,,,,,,,,,,,,,,
,,,,5,1.6666,,,,,,115,refrigerator,tomato,,90417,001,2022-04-23_21h46.44.276,SPAMnetsValid,2021.1.4,Win32,59.97361161,,,,,,,,,,,,,5,1.6666,0,10,10,85,1,,,,,,,,,,,,,,,,,,,,,,,,,,,,,,,,,,,,,,,,,,,,,,,,,,,,,,,,,,,,,,,,,,,,,,
,,,,1,1.2665,,,,,,101,cactus,kitchen,,90417,001,2022-04-23_21h46.44.276,SPAMnetsValid,2021.1.4,Win32,59.97361161,,,,,,,,,,,,,1,1.2665,0,11,11,54,1,,,,,,,,,,,,,,,,,,,,,,,,,,,,,,,,,,,,,,,,,,,,,,,,,,,,,,,,,,,,,,,,,,,,,,
,,,,9,2.8167,,,,,,116,cake,chocolate,,90417,001,2022-04-23_21h46.44.276,SPAMnetsValid,2021.1.4,Win32,59.97361161,,,,,,,,,,,,,9,2.8167,0,12,12,44,1,,,,,,,,,,,,,,,,,,,,,,,,,,,,,,,,,,,,,,,,,,,,,,,,,,,,,,,,,,,,,,,,,,,,,,
,,,,1,1.5494,,,,,,187,cactus,microwave,,90417,001,2022-04-23_21h46.44.276,SPAMnetsValid,2021.1.4,Win32,59.97361161,,,,,,,,,,,,,1,1.5494,0,13,13,71,1,,,,,,,,,,,,,,,,,,,,,,,,,,,,,,,,,,,,,,,,,,,,,,,,,,,,,,,,,,,,,,,,,,,,,,
,,,,1,1.0496,,,,,,146,pretzel,tree,,90417,001,2022-04-23_21h46.44.276,SPAMnetsValid,2021.1.4,Win32,59.97361161,,,,,,,,,,,,,1,1.0496,0,14,14,80,1,,,,,,,,,,,,,,,,,,,,,,,,,,,,,,,,,,,,,,,,,,,,,,,,,,,,,,,,,,,,,,,,,,,,,,
,,,,1,1.4174,,,,,,130,microwave,yogurt,,90417,001,2022-04-23_21h46.44.276,SPAMnetsValid,2021.1.4,Win32,59.97361161,,,,,,,,,,,,,1,1.4174,0,15,15,84,1,,,,,,,,,,,,,,,,,,,,,,,,,,,,,,,,,,,,,,,,,,,,,,,,,,,,,,,,,,,,,,,,,,,,,,
,,,,7,1.1661,,,,,,170,cookie,microwave,,90417,001,2022-04-23_21h46.44.276,SPAMnetsValid,2021.1.4,Win32,59.97361161,,,,,,,,,,,,,7,1.1661,0,16,16,92,1,,,,,,,,,,,,,,,,,,,,,,,,,,,,,,,,,,,,,,,,,,,,,,,,,,,,,,,,,,,,,,,,,,,,,,
,,,,9,1.188,,,,,,193,melon,melon,CHECK,90417,001,2022-04-23_21h46.44.276,SPAMnetsValid,2021.1.4,Win32,59.97361161,,,,,,,,,,,,,9,1.188,0,17,17,86,1,,,,,,,,,,,,,,,,,,,,,,,,,,,,,,,,,,,,,,,,,,,,,,,,,,,,,,,,,,,,,,,,,,,,,,
,,,,7,2.384,,,,,,177,chocolate,strawberry,,90417,001,2022-04-23_21h46.44.276,SPAMnetsValid,2021.1.4,Win32,59.97361161,,,,,,,,,,,,,7,2.384,0,18,18,53,1,,,,,,,,,,,,,,,,,,,,,,,,,,,,,,,,,,,,,,,,,,,,,,,,,,,,,,,,,,,,,,,,,,,,,,
,,,,1,1.0663,,,,,,123,cookie,tree,,90417,001,2022-04-23_21h46.44.276,SPAMnetsValid,2021.1.4,Win32,59.97361161,,,,,,,,,,,,,1,1.0663,0,19,19,46,1,,,,,,,,,,,,,,,,,,,,,,,,,,,,,,,,,,,,,,,,,,,,,,,,,,,,,,,,,,,,,,,,,,,,,,
,,,,8,1.8506,,,,,,110,chocolate,cookie,,90417,001,2022-04-23_21h46.44.276,SPAMnetsValid,2021.1.4,Win32,59.97361161,,,,,,,,,,,,,8,1.8506,0,20,20,52,1,,,,,,,,,,,,,,,,,,,,,,,,,,,,,,,,,,,,,,,,,,,,,,,,,,,,,,,,,,,,,,,,,,,,,,
,,,,9,1.5156,,,,,,124,oven,refrigerator,,90417,001,2022-04-23_21h46.44.276,SPAMnetsValid,2021.1.4,Win32,59.97361161,,,,,,,,,,,,,9,1.5156,0,21,21,69,1,,,,,,,,,,,,,,,,,,,,,,,,,,,,,,,,,,,,,,,,,,,,,,,,,,,,,,,,,,,,,,,,,,,,,,
,,,,8,2.2053,,,,,,106,cake,strawberry,,90417,001,2022-04-23_21h46.44.276,SPAMnetsValid,2021.1.4,Win32,59.97361161,,,,,,,,,,,,,8,2.2053,0,22,22,0,1,,,,,,,,,,,,,,,,,,,,,,,,,,,,,,,,,,,,,,,,,,,,,,,,,,,,,,,,,,,,,,,,,,,,,,
,,,,8,1.8329,,,,,,158,cookie,oven,,90417,001,2022-04-23_21h46.44.276,SPAMnetsValid,2021.1.4,Win32,59.97361161,,,,,,,,,,,,,8,1.8329,0,23,23,27,1,,,,,,,,,,,,,,,,,,,,,,,,,,,,,,,,,,,,,,,,,,,,,,,,,,,,,,,,,,,,,,,,,,,,,,
,,,,2,1.3162,,,,,,136,chocolate,microwave,,90417,001,2022-04-23_21h46.44.276,SPAMnetsValid,2021.1.4,Win32,59.97361161,,,,,,,,,,,,,2,1.3162,0,24,24,96,1,,,,,,,,,,,,,,,,,,,,,,,,,,,,,,,,,,,,,,,,,,,,,,,,,,,,,,,,,,,,,,,,,,,,,,
,,,,5,1.643,,,,,,119,strawberry,tree,,90417,001,2022-04-23_21h46.44.276,SPAMnetsValid,2021.1.4,Win32,59.97361161,,,,,,,,,,,,,5,1.643,0,25,25,18,1,,,,,,,,,,,,,,,,,,,,,,,,,,,,,,,,,,,,,,,,,,,,,,,,,,,,,,,,,,,,,,,,,,,,,,
,,,,9,1.477,,,,,,150,microwave,refrigerator,,90417,001,2022-04-23_21h46.44.276,SPAMnetsValid,2021.1.4,Win32,59.97361161,,,,,,,,,,,,,9,1.477,0,26,26,66,1,,,,,,,,,,,,,,,,,,,,,,,,,,,,,,,,,,,,,,,,,,,,,,,,,,,,,,,,,,,,,,,,,,,,,,
,,,,4,1.9871,,,,,,140,cookie,refrigerator,,90417,001,2022-04-23_21h46.44.276,SPAMnetsValid,2021.1.4,Win32,59.97361161,,,,,,,,,,,,,4,1.9871,0,27,27,89,1,,,,,,,,,,,,,,,,,,,,,,,,,,,,,,,,,,,,,,,,,,,,,,,,,,,,,,,,,,,,,,,,,,,,,,
,,,,8,1.8662,,,,,,133,cake,flower,,90417,001,2022-04-23_21h46.44.276,SPAMnetsValid,2021.1.4,Win32,59.97361161,,,,,,,,,,,,,8,1.8662,0,28,28,94,1,,,,,,,,,,,,,,,,,,,,,,,,,,,,,,,,,,,,,,,,,,,,,,,,,,,,,,,,,,,,,,,,,,,,,,
,,,,6,2.755,,,,,,167,carrot,garden,,90417,001,2022-04-23_21h46.44.276,SPAMnetsValid,2021.1.4,Win32,59.97361161,,,,,,,,,,,,,6,2.755,0,29,29,47,1,,,,,,,,,,,,,,,,,,,,,,,,,,,,,,,,,,,,,,,,,,,,,,,,,,,,,,,,,,,,,,,,,,,,,,
,,,,1,3.1504,,,,,,143,pretzel,rose,,90417,001,2022-04-23_21h46.44.276,SPAMnetsValid,2021.1.4,Win32,59.97361161,,,,,,,,,,,,,1,3.1504,0,30,30,55,1,,,,,,,,,,,,,,,,,,,,,,,,,,,,,,,,,,,,,,,,,,,,,,,,,,,,,,,,,,,,,,,,,,,,,,
,,,,2,1.2834,,,,,,135,carrot,oven,,90417,001,2022-04-23_21h46.44.276,SPAMnetsValid,2021.1.4,Win32,59.97361161,,,,,,,,,,,,,2,1.2834,0,31,31,73,1,,,,,,,,,,,,,,,,,,,,,,,,,,,,,,,,,,,,,,,,,,,,,,,,,,,,,,,,,,,,,,,,,,,,,,
,,,,1,2.3555,,,,,,129,cactus,refrigerator,,90417,001,2022-04-23_21h46.44.276,SPAMnetsValid,2021.1.4,Win32,59.97361161,,,,,,,,,,,,,1,2.3555,0,32,32,3,1,,,,,,,,,,,,,,,,,,,,,,,,,,,,,,,,,,,,,,,,,,,,,,,,,,,,,,,,,,,,,,,,,,,,,,
,,,,4,1.3331,,,,,,131,cactus,garden,,90417,001,2022-04-23_21h46.44.276,SPAMnetsValid,2021.1.4,Win32,59.97361161,,,,,,,,,,,,,4,1.3331,0,33,33,33,1,,,,,,,,,,,,,,,,,,,,,,,,,,,,,,,,,,,,,,,,,,,,,,,,,,,,,,,,,,,,,,,,,,,,,,
,,,,1,1.1323,,,,,,189,onion,tree,,90417,001,2022-04-23_21h46.44.276,SPAMnetsValid,2021.1.4,Win32,59.97361161,,,,,,,,,,,,,1,1.1323,0,34,34,62,1,,,,,,,,,,,,,,,,,,,,,,,,,,,,,,,,,,,,,,,,,,,,,,,,,,,,,,,,,,,,,,,,,,,,,,
,,,,2,2.216,,,,,,104,garden,microwave,,90417,001,2022-04-23_21h46.44.276,SPAMnetsValid,2021.1.4,Win32,59.97361161,,,,,,,,,,,,,2,2.216,0,35,35,81,1,,,,,,,,,,,,,,,,,,,,,,,,,,,,,,,,,,,,,,,,,,,,,,,,,,,,,,,,,,,,,,,,,,,,,,
,,,,8,1.0496,,,,,,112,cake,carrot,,90417,001,2022-04-23_21h46.44.276,SPAMnetsValid,2021.1.4,Win32,59.97361161,,,,,,,,,,,,,8,1.0496,0,36,36,39,1,,,,,,,,,,,,,,,,,,,,,,,,,,,,,,,,,,,,,,,,,,,,,,,,,,,,,,,,,,,,,,,,,,,,,,
,,,,1,1.1157,,,,,,169,onion,yogurt,,90417,001,2022-04-23_21h46.44.276,SPAMnetsValid,2021.1.4,Win32,59.97361161,,,,,,,,,,,,,1,1.1157,0,37,37,24,1,,,,,,,,,,,,,,,,,,,,,,,,,,,,,,,,,,,,,,,,,,,,,,,,,,,,,,,,,,,,,,,,,,,,,,
,,,,2,1.1828,,,,,,132,broom,tree,,90417,001,2022-04-23_21h46.44.276,SPAMnetsValid,2021.1.4,Win32,59.97361161,,,,,,,,,,,,,2,1.1828,0,38,38,78,1,,,,,,,,,,,,,,,,,,,,,,,,,,,,,,,,,,,,,,,,,,,,,,,,,,,,,,,,,,,,,,,,,,,,,,
,,,,9,1.0498,,,,,,120,microwave,oven,,90417,001,2022-04-23_21h46.44.276,SPAMnetsValid,2021.1.4,Win32,59.97361161,,,,,,,,,,,,,9,1.0498,0,39,39,14,1,,,,,,,,,,,,,,,,,,,,,,,,,,,,,,,,,,,,,,,,,,,,,,,,,,,,,,,,,,,,,,,,,,,,,,
,,,,5,1.566,,,,,,176,cactus,tomato,,90417,001,2022-04-23_21h46.44.276,SPAMnetsValid,2021.1.4,Win32,59.97361161,,,,,,,,,,,,,5,1.566,0,40,40,9,1,,,,,,,,,,,,,,,,,,,,,,,,,,,,,,,,,,,,,,,,,,,,,,,,,,,,,,,,,,,,,,,,,,,,,,
,,,,8,1.3723,,,,,,154,strawberry,yogurt,,90417,001,2022-04-23_21h46.44.276,SPAMnetsValid,2021.1.4,Win32,59.97361161,,,,,,,,,,,,,8,1.3723,0,41,41,28,1,,,,,,,,,,,,,,,,,,,,,,,,,,,,,,,,,,,,,,,,,,,,,,,,,,,,,,,,,,,,,,,,,,,,,,
,,,,2,1.7379,,,,,,111,carrot,microwave,,90417,001,2022-04-23_21h46.44.276,SPAMnetsValid,2021.1.4,Win32,59.97361161,,,,,,,,,,,,,2,1.7379,0,42,42,16,1,,,,,,,,,,,,,,,,,,,,,,,,,,,,,,,,,,,,,,,,,,,,,,,,,,,,,,,,,,,,,,,,,,,,,,
,,,,2,1.0331,,,,,,162,microwave,tomato,,90417,001,2022-04-23_21h46.44.276,SPAMnetsValid,2021.1.4,Win32,59.97361161,,,,,,,,,,,,,2,1.0331,0,43,43,12,1,,,,,,,,,,,,,,,,,,,,,,,,,,,,,,,,,,,,,,,,,,,,,,,,,,,,,,,,,,,,,,,,,,,,,,
,,,,3,0.8996,,,,,,141,melon,tomato,,90417,001,2022-04-23_21h46.44.276,SPAMnetsValid,2021.1.4,Win32,59.97361161,,,,,,,,,,,,,3,0.8996,0,44,44,70,1,,,,,,,,,,,,,,,,,,,,,,,,,,,,,,,,,,,,,,,,,,,,,,,,,,,,,,,,,,,,,,,,,,,,,,
,,,,2,1.4332,,,,,,121,broom,microwave,,90417,001,2022-04-23_21h46.44.276,SPAMnetsValid,2021.1.4,Win32,59.97361161,,,,,,,,,,,,,2,1.4332,0,45,45,95,1,,,,,,,,,,,,,,,,,,,,,,,,,,,,,,,,,,,,,,,,,,,,,,,,,,,,,,,,,,,,,,,,,,,,,,
,,,,2,1.1156,,,,,,126,kitchen,tree,,90417,001,2022-04-23_21h46.44.276,SPAMnetsValid,2021.1.4,Win32,59.97361161,,,,,,,,,,,,,2,1.1156,0,46,46,50,1,,,,,,,,,,,,,,,,,,,,,,,,,,,,,,,,,,,,,,,,,,,,,,,,,,,,,,,,,,,,,,,,,,,,,,
,,,,8,1.1836,,,,,,166,cake,yogurt,,90417,001,2022-04-23_21h46.44.276,SPAMnetsValid,2021.1.4,Win32,59.97361161,,,,,,,,,,,,,8,1.1836,0,47,47,91,1,,,,,,,,,,,,,,,,,,,,,,,,,,,,,,,,,,,,,,,,,,,,,,,,,,,,,,,,,,,,,,,,,,,,,,
,,,,1,2.6834,,,,,,127,cactus,chocolate,,90417,001,2022-04-23_21h46.44.276,SPAMnetsValid,2021.1.4,Win32,59.97361161,,,,,,,,,,,,,1,2.6834,0,48,48,57,1,,,,,,,,,,,,,,,,,,,,,,,,,,,,,,,,,,,,,,,,,,,,,,,,,,,,,,,,,,,,,,,,,,,,,,
,,,,2,0.8331,,,,,,149,broom,tomato,,90417,001,2022-04-23_21h46.44.276,SPAMnetsValid,2021.1.4,Win32,59.97361161,,,,,,,,,,,,,2,0.8331,0,49,49,20,1,,,,,,,,,,,,,,,,,,,,,,,,,,,,,,,,,,,,,,,,,,,,,,,,,,,,,,,,,,,,,,,,,,,,,,
,,,,1,1.3662,,,,,,178,cactus,carrot,,90417,001,2022-04-23_21h46.44.276,SPAMnetsValid,2021.1.4,Win32,59.97361161,,,,,,,,,,,,,1,1.3662,0,50,50,75,1,,,,,,,,,,,,,,,,,,,,,,,,,,,,,,,,,,,,,,,,,,,,,,,,,,,,,,,,,,,,,,,,,,,,,,
,,,,1,1.5047,,,,,,137,microwave,tree,,90417,001,2022-04-23_21h46.44.276,SPAMnetsValid,2021.1.4,Win32,59.97361161,,,,,,,,,,,,,1,1.5047,0,51,51,63,1,,,,,,,,,,,,,,,,,,,,,,,,,,,,,,,,,,,,,,,,,,,,,,,,,,,,,,,,,,,,,,,,,,,,,,
,,,,2,1.2371,,,,,,157,refrigerator,rose,,90417,001,2022-04-23_21h46.44.276,SPAMnetsValid,2021.1.4,Win32,59.97361161,,,,,,,,,,,,,2,1.2371,0,52,52,64,1,,,,,,,,,,,,,,,,,,,,,,,,,,,,,,,,,,,,,,,,,,,,,,,,,,,,,,,,,,,,,,,,,,,,,,
,,,,2,1.0747,,,,,,168,cactus,flower,,90417,001,2022-04-23_21h46.44.276,SPAMnetsValid,2021.1.4,Win32,59.97361161,,,,,,,,,,,,,2,1.0747,0,53,53,51,1,,,,,,,,,,,,,,,,,,,,,,,,,,,,,,,,,,,,,,,,,,,,,,,,,,,,,,,,,,,,,,,,,,,,,,
,,,,1,1.8165,,,,,,109,broom,strawberry,,90417,001,2022-04-23_21h46.44.276,SPAMnetsValid,2021.1.4,Win32,59.97361161,,,,,,,,,,,,,1,1.8165,0,54,54,4,1,,,,,,,,,,,,,,,,,,,,,,,,,,,,,,,,,,,,,,,,,,,,,,,,,,,,,,,,,,,,,,,,,,,,,,
,,,,8,1.3213,,,,,,188,flower,tree,,90417,001,2022-04-23_21h46.44.276,SPAMnetsValid,2021.1.4,Win32,59.97361161,,,,,,,,,,,,,8,1.3213,0,55,55,7,1,,,,,,,,,,,,,,,,,,,,,,,,,,,,,,,,,,,,,,,,,,,,,,,,,,,,,,,,,,,,,,,,,,,,,,
,,,,8,1.1491,,,,,,185,cactus,rose,,90417,001,2022-04-23_21h46.44.276,SPAMnetsValid,2021.1.4,Win32,59.97361161,,,,,,,,,,,,,8,1.1491,0,56,56,43,1,,,,,,,,,,,,,,,,,,,,,,,,,,,,,,,,,,,,,,,,,,,,,,,,,,,,,,,,,,,,,,,,,,,,,,
,,,,9,1.2028,,,,,,142,garden,tree,,90417,001,2022-04-23_21h46.44.276,SPAMnetsValid,2021.1.4,Win32,59.97361161,,,,,,,,,,,,,9,1.2028,0,57,57,22,1,,,,,,,,,,,,,,,,,,,,,,,,,,,,,,,,,,,,,,,,,,,,,,,,,,,,,,,,,,,,,,,,,,,,,,
,,,,9,1.1001,,,,,,122,flower,garden,,90417,001,2022-04-23_21h46.44.276,SPAMnetsValid,2021.1.4,Win32,59.97361161,,,,,,,,,,,,,9,1.1001,0,58,58,60,1,,,,,,,,,,,,,,,,,,,,,,,,,,,,,,,,,,,,,,,,,,,,,,,,,,,,,,,,,,,,,,,,,,,,,,
,,,,9,1.1664,,,,,,134,carrot,flower,,90417,001,2022-04-23_21h46.44.276,SPAMnetsValid,2021.1.4,Win32,59.97361161,,,,,,,,,,,,,9,1.1664,0,59,59,93,1,,,,,,,,,,,,,,,,,,,,,,,,,,,,,,,,,,,,,,,,,,,,,,,,,,,,,,,,,,,,,,,,,,,,,,
,,,,5,3.5174,,,,,,102,chocolate,refrigerator,,90417,001,2022-04-23_21h46.44.276,SPAMnetsValid,2021.1.4,Win32,59.97361161,,,,,,,,,,,,,5,3.5174,0,60,60,76,1,,,,,,,,,,,,,,,,,,,,,,,,,,,,,,,,,,,,,,,,,,,,,,,,,,,,,,,,,,,,,,,,,,,,,,
,,,,6,1.936,,,,,,173,kitchen,tomato,,90417,001,2022-04-23_21h46.44.276,SPAMnetsValid,2021.1.4,Win32,59.97361161,,,,,,,,,,,,,6,1.936,0,61,61,1,1,,,,,,,,,,,,,,,,,,,,,,,,,,,,,,,,,,,,,,,,,,,,,,,,,,,,,,,,,,,,,,,,,,,,,,
,,,,3,1.4996,,,,,,161,kitchen,pretzel,,90417,001,2022-04-23_21h46.44.276,SPAMnetsValid,2021.1.4,Win32,59.97361161,,,,,,,,,,,,,3,1.4996,0,62,62,36,1,,,,,,,,,,,,,,,,,,,,,,,,,,,,,,,,,,,,,,,,,,,,,,,,,,,,,,,,,,,,,,,,,,,,,,
,,,,6,0.9659,,,,,,186,kitchen,yogurt,,90417,001,2022-04-23_21h46.44.276,SPAMnetsValid,2021.1.4,Win32,59.97361161,,,,,,,,,,,,,6,0.9659,0,63,63,48,1,,,,,,,,,,,,,,,,,,,,,,,,,,,,,,,,,,,,,,,,,,,,,,,,,,,,,,,,,,,,,,,,,,,,,,
,,,,9,2.0716,,,,,,138,flower,rose,,90417,001,2022-04-23_21h46.44.276,SPAMnetsValid,2021.1.4,Win32,59.97361161,,,,,,,,,,,,,9,2.0716,0,64,64,61,1,,,,,,,,,,,,,,,,,,,,,,,,,,,,,,,,,,,,,,,,,,,,,,,,,,,,,,,,,,,,,,,,,,,,,,
,,,,5,2.2999,,,,,,107,rose,tomato,,90417,001,2022-04-23_21h46.44.276,SPAMnetsValid,2021.1.4,Win32,59.97361161,,,,,,,,,,,,,5,2.2999,0,65,65,26,1,,,,,,,,,,,,,,,,,,,,,,,,,,,,,,,,,,,,,,,,,,,,,,,,,,,,,,,,,,,,,,,,,,,,,,
,,,,2,1.3748,,,,,,96,oven,strawberry,,90417,001,2022-04-23_21h46.44.276,SPAMnetsValid,2021.1.4,Win32,59.97361161,,,,,,,,,,,,,2,1.3748,0,66,66,67,1,,,,,,,,,,,,,,,,,,,,,,,,,,,,,,,,,,,,,,,,,,,,,,,,,,,,,,,,,,,,,,,,,,,,,,
,,,,9,1.0996,,,,,,99,garden,melon,,90417,001,2022-04-23_21h46.44.276,SPAMnetsValid,2021.1.4,Win32,59.97361161,,,,,,,,,,,,,9,1.0996,0,67,67,17,1,,,,,,,,,,,,,,,,,,,,,,,,,,,,,,,,,,,,,,,,,,,,,,,,,,,,,,,,,,,,,,,,,,,,,,
,,,,6,1.4994,,,,,,152,cactus,strawberry,,90417,001,2022-04-23_21h46.44.276,SPAMnetsValid,2021.1.4,Win32,59.97361161,,,,,,,,,,,,,6,1.4994,0,68,68,49,1,,,,,,,,,,,,,,,,,,,,,,,,,,,,,,,,,,,,,,,,,,,,,,,,,,,,,,,,,,,,,,,,,,,,,,
,,,,9,2.0333,,,,,,98,pretzel,strawberry,,90417,001,2022-04-23_21h46.44.276,SPAMnetsValid,2021.1.4,Win32,59.97361161,,,,,,,,,,,,,9,2.0333,0,69,69,82,1,,,,,,,,,,,,,,,,,,,,,,,,,,,,,,,,,,,,,,,,,,,,,,,,,,,,,,,,,,,,,,,,,,,,,,
,,,,9,2.2374,,,,,,159,cookie,flower,,90417,001,2022-04-23_21h46.44.276,SPAMnetsValid,2021.1.4,Win32,59.97361161,,,,,,,,,,,,,9,2.2374,0,70,70,21,1,,,,,,,,,,,,,,,,,,,,,,,,,,,,,,,,,,,,,,,,,,,,,,,,,,,,,,,,,,,,,,,,,,,,,,
,,,,3,4.2371,,,,,,164,cookie,garden,,90417,001,2022-04-23_21h46.44.276,SPAMnetsValid,2021.1.4,Win32,59.97361161,,,,,,,,,,,,,3,4.2371,0,71,71,59,1,,,,,,,,,,,,,,,,,,,,,,,,,,,,,,,,,,,,,,,,,,,,,,,,,,,,,,,,,,,,,,,,,,,,,,
,,,,7,1.5159,,,,,,139,carrot,strawberry,,90417,001,2022-04-23_21h46.44.276,SPAMnetsValid,2021.1.4,Win32,59.97361161,,,,,,,,,,,,,7,1.5159,0,72,72,37,1,,,,,,,,,,,,,,,,,,,,,,,,,,,,,,,,,,,,,,,,,,,,,,,,,,,,,,,,,,,,,,,,,,,,,,
,,,,1,2.7671,,,,,,184,oven,pretzel,,90417,001,2022-04-23_21h46.44.276,SPAMnetsValid,2021.1.4,Win32,59.97361161,,,,,,,,,,,,,1,2.7671,0,73,73,42,1,,,,,,,,,,,,,,,,,,,,,,,,,,,,,,,,,,,,,,,,,,,,,,,,,,,,,,,,,,,,,,,,,,,,,,
,,,,2,1.1991,,,,,,97,chocolate,kitchen,,90417,001,2022-04-23_21h46.44.276,SPAMnetsValid,2021.1.4,Win32,59.97361161,,,,,,,,,,,,,2,1.1991,0,74,74,8,1,,,,,,,,,,,,,,,,,,,,,,,,,,,,,,,,,,,,,,,,,,,,,,,,,,,,,,,,,,,,,,,,,,,,,,
,,,,4,1.3994,,,,,,153,carrot,pretzel,,90417,001,2022-04-23_21h46.44.276,SPAMnetsValid,2021.1.4,Win32,59.97361161,,,,,,,,,,,,,4,1.3994,0,75,75,34,1,,,,,,,,,,,,,,,,,,,,,,,,,,,,,,,,,,,,,,,,,,,,,,,,,,,,,,,,,,,,,,,,,,,,,,
,,,,6,2.5377,,,,,,172,kitchen,melon,,90417,001,2022-04-23_21h46.44.276,SPAMnetsValid,2021.1.4,Win32,59.97361161,,,,,,,,,,,,,6,2.5377,0,76,76,77,1,,,,,,,,,,,,,,,,,,,,,,,,,,,,,,,,,,,,,,,,,,,,,,,,,,,,,,,,,,,,,,,,,,,,,,
,,,,2,1.5103,,,,,,145,cactus,yogurt,,90417,001,2022-04-23_21h46.44.276,SPAMnetsValid,2021.1.4,Win32,59.97361161,,,,,,,,,,,,,2,1.5103,0,77,77,15,1,,,,,,,,,,,,,,,,,,,,,,,,,,,,,,,,,,,,,,,,,,,,,,,,,,,,,,,,,,,,,,,,,,,,,,
,,,,2,1.3295,,,,,,125,carrot,tree,,90417,001,2022-04-23_21h46.44.276,SPAMnetsValid,2021.1.4,Win32,59.97361161,,,,,,,,,,,,,2,1.3295,0,78,78,30,1,,,,,,,,,,,,,,,,,,,,,,,,,,,,,,,,,,,,,,,,,,,,,,,,,,,,,,,,,,,,,,,,,,,,,,
,,,,3,1.5327,,,,,,183,cake,rose,,90417,001,2022-04-23_21h46.44.276,SPAMnetsValid,2021.1.4,Win32,59.97361161,,,,,,,,,,,,,3,1.5327,0,79,79,19,1,,,,,,,,,,,,,,,,,,,,,,,,,,,,,,,,,,,,,,,,,,,,,,,,,,,,,,,,,,,,,,,,,,,,,,
,,,,3,1.2497,,,,,,103,pretzel,tomato,,90417,001,2022-04-23_21h46.44.276,SPAMnetsValid,2021.1.4,Win32,59.97361161,,,,,,,,,,,,,3,1.2497,0,80,80,79,1,,,,,,,,,,,,,,,,,,,,,,,,,,,,,,,,,,,,,,,,,,,,,,,,,,,,,,,,,,,,,,,,,,,,,,
,,,,7,1.8331,,,,,,113,refrigerator,strawberry,,90417,001,2022-04-23_21h46.44.276,SPAMnetsValid,2021.1.4,Win32,59.97361161,,,,,,,,,,,,,7,1.8331,0,81,81,56,1,,,,,,,,,,,,,,,,,,,,,,,,,,,,,,,,,,,,,,,,,,,,,,,,,,,,,,,,,,,,,,,,,,,,,,
,,,,3,1.5493,,,,,,174,cake,pretzel,,90417,001,2022-04-23_21h46.44.276,SPAMnetsValid,2021.1.4,Win32,59.97361161,,,,,,,,,,,,,3,1.5493,0,82,82,2,1,,,,,,,,,,,,,,,,,,,,,,,,,,,,,,,,,,,,,,,,,,,,,,,,,,,,,,,,,,,,,,,,,,,,,,
,,,,8,1.6499,,,,,,148,flower,melon,,90417,001,2022-04-23_21h46.44.276,SPAMnetsValid,2021.1.4,Win32,59.97361161,,,,,,,,,,,,,8,1.6499,0,83,83,23,1,,,,,,,,,,,,,,,,,,,,,,,,,,,,,,,,,,,,,,,,,,,,,,,,,,,,,,,,,,,,,,,,,,,,,,
,,,,2,1.5318,,,,,,118,chocolate,oven,,90417,001,2022-04-23_21h46.44.276,SPAMnetsValid,2021.1.4,Win32,59.97361161,,,,,,,,,,,,,2,1.5318,0,84,84,10,1,,,,,,,,,,,,,,,,,,,,,,,,,,,,,,,,,,,,,,,,,,,,,,,,,,,,,,,,,,,,,,,,,,,,,,
,,,,3,1.3831,,,,,,108,carrot,chocolate,,90417,001,2022-04-23_21h46.44.276,SPAMnetsValid,2021.1.4,Win32,59.97361161,,,,,,,,,,,,,3,1.3831,0,85,85,5,1,,,,,,,,,,,,,,,,,,,,,,,,,,,,,,,,,,,,,,,,,,,,,,,,,,,,,,,,,,,,,,,,,,,,,,
,,,,4,1.2701,,,,,,180,tree,yogurt,,90417,001,2022-04-23_21h46.44.276,SPAMnetsValid,2021.1.4,Win32,59.97361161,,,,,,,,,,,,,4,1.2701,0,86,86,68,1,,,,,,,,,,,,,,,,,,,,,,,,,,,,,,,,,,,,,,,,,,,,,,,,,,,,,,,,,,,,,,,,,,,,,,
,,,,4,2.8224,,,,,,165,onion,rose,,90417,001,2022-04-23_21h46.44.276,SPAMnetsValid,2021.1.4,Win32,59.97361161,,,,,,,,,,,,,4,2.8224,0,87,87,40,1,,,,,,,,,,,,,,,,,,,,,,,,,,,,,,,,,,,,,,,,,,,,,,,,,,,,,,,,,,,,,,,,,,,,,,
,,,,4,1.4999,,,,,,144,cake,garden,,90417,001,2022-04-23_21h46.44.276,SPAMnetsValid,2021.1.4,Win32,59.97361161,,,,,,,,,,,,,4,1.4999,0,88,88,58,1,,,,,,,,,,,,,,,,,,,,,,,,,,,,,,,,,,,,,,,,,,,,,,,,,,,,,,,,,,,,,,,,,,,,,,
,,,,2,1.9667,,,,,,128,melon,microwave,,90417,001,2022-04-23_21h46.44.276,SPAMnetsValid,2021.1.4,Win32,59.97361161,,,,,,,,,,,,,2,1.9667,0,89,89,74,1,,,,,,,,,,,,,,,,,,,,,,,,,,,,,,,,,,,,,,,,,,,,,,,,,,,,,,,,,,,,,,,,,,,,,,
,,,,2,1.0916,,,,,,171,cake,tomato,,90417,001,2022-04-23_21h46.44.276,SPAMnetsValid,2021.1.4,Win32,59.97361161,,,,,,,,,,,,,2,1.0916,0,90,90,88,1,,,,,,,,,,,,,,,,,,,,,,,,,,,,,,,,,,,,,,,,,,,,,,,,,,,,,,,,,,,,,,,,,,,,,,
,,,,5,1.6492,,,,,,181,carrot,kitchen,,90417,001,2022-04-23_21h46.44.276,SPAMnetsValid,2021.1.4,Win32,59.97361161,,,,,,,,,,,,,5,1.6492,0,91,91,72,1,,,,,,,,,,,,,,,,,,,,,,,,,,,,,,,,,,,,,,,,,,,,,,,,,,,,,,,,,,,,,,,,,,,,,,
,,,,5,1.516,,,,,,175,melon,onion,,90417,001,2022-04-23_21h46.44.276,SPAMnetsValid,2021.1.4,Win32,59.97361161,,,,,,,,,,,,,5,1.516,0,92,92,41,1,,,,,,,,,,,,,,,,,,,,,,,,,,,,,,,,,,,,,,,,,,,,,,,,,,,,,,,,,,,,,,,,,,,,,,
,,,,3,2.9379,,,,,,182,flower,refrigerator,,90417,001,2022-04-23_21h46.44.276,SPAMnetsValid,2021.1.4,Win32,59.97361161,,,,,,,,,,,,,3,2.9379,0,93,93,32,1,,,,,,,,,,,,,,,,,,,,,,,,,,,,,,,,,,,,,,,,,,,,,,,,,,,,,,,,,,,,,,,,,,,,,,
,,,,2,2.4835,,,,,,155,carrot,cookie,,90417,001,2022-04-23_21h46.44.276,SPAMnetsValid,2021.1.4,Win32,59.97361161,,,,,,,,,,,,,2,2.4835,0,94,94,38,1,,,,,,,,,,,,,,,,,,,,,,,,,,,,,,,,,,,,,,,,,,,,,,,,,,,,,,,,,,,,,,,,,,,,,,
,,,,9,1.0826,,,,,,194,cactus,cactus,CHECK,90417,001,2022-04-23_21h46.44.276,SPAMnetsValid,2021.1.4,Win32,59.97361161,,,,,,,,,,,,,9,1.0826,0,95,95,25,1,,,,,,,,,,,,,,,,,,,,,,,,,,,,,,,,,,,,,,,,,,,,,,,,,,,,,,,,,,,,,,,,,,,,,,
,,,,4,1.0333,,,,,,179,broom,oven,,90417,001,2022-04-23_21h46.44.276,SPAMnetsValid,2021.1.4,Win32,59.97361161,,,,,,,,,,,,,4,1.0333,0,96,96,45,1,,,,,,,,,,,,,,,,,,,,,,,,,,,,,,,,,,,,,,,,,,,,,,,,,,,,,,,,,,,,,,,,,,,,,,
,,,,,,,,,,,,,,,90417,001,2022-04-23_21h46.44.276,SPAMnetsValid,2021.1.4,Win32,59.97361161,,,,,,,,,,,,,,,,,,,,0,0,0,0,1,,,,,,,,,,,,,,,,,,,,,,,,,,,,,,,,,,,,,,,,,,,,,,,,,,,,,,,,,,,,,,,,,
,,,,,,,,,,,,,,,90417,001,2022-04-23_21h46.44.276,SPAMnetsValid,2021.1.4,Win32,59.97361161,,,,,,0,1,1,1,1,0,1,,,,,,,,,,,,,,,,,,,,,,,,,,,,,,,,,,,,,,,,,,,,,,,,,,,,,,,,,,,,,,,,,,,,,,,,,,,,,
,,,,,,,,,,,,,,,90417,001,2022-04-23_21h46.44.276,SPAMnetsValid,2021.1.4,Win32,59.97361161,,,,,,,,,,,,,,,,,,,,,,,,,1,7.6459,0,0,0,0,1,rancor,forbearance,ridicule,malice,bravery,3,,,,,,,,,,,,,,,,,,,,,,,,,,,,,,,,,,,,,,,,,,,,,,,,,,,,
,,,,,,,,,,,,,,,90417,001,2022-04-23_21h46.44.276,SPAMnetsValid,2021.1.4,Win32,59.97361161,,,,,,,,,,,,,,,,,,,,,,,,,4,2.9599,0,1,1,1,1,raucous,empty,quiet,smooth,harsh,4,,,,,,,,,,,,,,,,,,,,,,,,,,,,,,,,,,,,,,,,,,,,,,,,,,,,
,,,,,,,,,,,,,,,90417,001,2022-04-23_21h46.44.276,SPAMnetsValid,2021.1.4,Win32,59.97361161,,,,,,,,,,,,,,,,,,,,,,,,,3,3.9949,0,2,2,2,1,gargoyle,oil,medicine,carved waterspout,ugly building,3,,,,,,,,,,,,,,,,,,,,,,,,,,,,,,,,,,,,,,,,,,,,,,,,,,,,
,,,,,,,,,,,,,,,90417,001,2022-04-23_21h46.44.276,SPAMnetsValid,2021.1.4,Win32,59.97361161,,,,,,,,,,,,,,,,,,,,,,,,,3,2.4778,0,3,3,3,1,recrudesce,purify,renew activity,lack refinement,crush,2,,,,,,,,,,,,,,,,,,,,,,,,,,,,,,,,,,,,,,,,,,,,,,,,,,,,
,,,,,,,,,,,,,,,90417,001,2022-04-23_21h46.44.276,SPAMnetsValid,2021.1.4,Win32,59.97361161,,,,,,,,,,,,,,,,,,,,,,,,,,,0,4,4,4,1,specious,"plausible, but not genuine",noteworthy,class or variety,roomy,1,,,,,,,,,,,,,,,,,,,,,,,,,,,,,,,,,,,,,,,,,,,,,,,,,,,,
,,,,,,,,,,,,,,,90417,001,2022-04-23_21h46.44.276,SPAMnetsValid,2021.1.4,Win32,59.97361161,,,,,,,,,,,,,,,,,,,,,,,,,3,3.8783,0,5,5,5,1,bauble,bubble,showy plaything,idle talk,confusion,2,,,,,,,,,,,,,,,,,,,,,,,,,,,,,,,,,,,,,,,,,,,,,,,,,,,,
,,,,,,,,,,,,,,,90417,001,2022-04-23_21h46.44.276,SPAMnetsValid,2021.1.4,Win32,59.97361161,,,,,,,,,,,,,,,,,,,,,,,,,2,3.1128,0,6,6,6,1,prolific,scarce,producing abundantly,reckless,speaking profanely,2,,,,,,,,,,,,,,,,,,,,,,,,,,,,,,,,,,,,,,,,,,,,,,,,,,,,
,,,,,,,,,,,,,,,90417,001,2022-04-23_21h46.44.276,SPAMnetsValid,2021.1.4,Win32,59.97361161,,,,,,,,,,,,,,,,,,,,,,,,,2,1.6381,0,7,7,7,1,opulent,party,wealthy,happy frame of mind,semiprecious stone,2,,,,,,,,,,,,,,,,,,,,,,,,,,,,,,,,,,,,,,,,,,,,,,,,,,,,
,,,,,,,,,,,,,,,90417,001,2022-04-23_21h46.44.276,SPAMnetsValid,2021.1.4,Win32,59.97361161,,,,,,,,,,,,,,,,,,,,,,,,,3,2.5074,0,8,8,8,1,coercion,conspiracy,strategy,restraint,attraction,3,,,,,,,,,,,,,,,,,,,,,,,,,,,,,,,,,,,,,,,,,,,,,,,,,,,,
,,,,,,,,,,,,,,,90417,001,2022-04-23_21h46.44.276,SPAMnetsValid,2021.1.4,Win32,59.97361161,,,,,,,,,,,,,,,,,,,,,,,,,4,3.7353,0,9,9,9,1,hiatus,animal,calamity,dread,gap,4,,,,,,,,,,,,,,,,,,,,,,,,,,,,,,,,,,,,,,,,,,,,,,,,,,,,
,,,,,,,,,,,,,,,90417,001,2022-04-23_21h46.44.276,SPAMnetsValid,2021.1.4,Win32,59.97361161,,,,,,,,,,,,,,,,,,,,,,,,,4,4.9407,0,10,10,10,1,germane,microbe,contagious,relevant,different,3,,,,,,,,,,,,,,,,,,,,,,,,,,,,,,,,,,,,,,,,,,,,,,,,,,,,
,,,,,,,,,,,,,,,90417,001,2022-04-23_21h46.44.276,SPAMnetsValid,2021.1.4,Win32,59.97361161,,,,,,,,,,,,,,,,,,,,,,,,,3,0.8821,0,11,11,11,1,perfunctory,fundamental,formal,superficial,careful,3,,,,,,,,,,,,,,,,,,,,,,,,,,,,,,,,,,,,,,,,,,,,,,,,,,,,
,,,,,,,,,,,,,,,90417,001,2022-04-23_21h46.44.276,SPAMnetsValid,2021.1.4,Win32,59.97361161,,,,,,,,,,,,,,,,,,,,,,,,,4,2.4647,0,12,12,12,1,diverge,reveal,chant,distract the attention of,differ or turn off from,4,,,,,,,,,,,,,,,,,,,,,,,,,,,,,,,,,,,,,,,,,,,,,,,,,,,,
,,,,,,,,,,,,,,,90417,001,2022-04-23_21h46.44.276,SPAMnetsValid,2021.1.4,Win32,59.97361161,,,,,,,,,,,,,,,,,,,,,,,,,4,2.2287,0,13,13,13,1,evoke,take away,anger,connect,bring out,4,,,,,,,,,,,,,,,,,,,,,,,,,,,,,,,,,,,,,,,,,,,,,,,,,,,,
,,,,,,,,,,,,,,,90417,001,2022-04-23_21h46.44.276,SPAMnetsValid,2021.1.4,Win32,59.97361161,,,,,,,,,,,,,,,,,,,,,,,,,3,3.3064,0,14,14,14,1,pertinent,relevant,lying next to,necessary,bold,1,,,,,,,,,,,,,,,,,,,,,,,,,,,,,,,,,,,,,,,,,,,,,,,,,,,,
,,,,,,,,,,,,,,,90417,001,2022-04-23_21h46.44.276,SPAMnetsValid,2021.1.4,Win32,59.97361161,,,,,,,,,,,,,,,,,,,,,,,,,2,1.6066,0,15,15,15,1,holocaust,entirety,destruction,saintly,price,2,,,,,,,,,,,,,,,,,,,,,,,,,,,,,,,,,,,,,,,,,,,,,,,,,,,,
,,,,,,,,,,,,,,,90417,001,2022-04-23_21h46.44.276,SPAMnetsValid,2021.1.4,Win32,59.97361161,,,,,,,,,,,,,,,,,,,,,,,,,,,0,16,16,16,1,piquant,mellow,fish,pungent,cloth,3,,,,,,,,,,,,,,,,,,,,,,,,,,,,,,,,,,,,,,,,,,,,,,,,,,,,
,,,,,,,,,,,,,,,90417,001,2022-04-23_21h46.44.276,SPAMnetsValid,2021.1.4,Win32,59.97361161,,,,,,,,,,,,,,,,,,,,,,,,,1,2.0121,0,17,17,17,1,firmament,foundation,heavens,strong,glue,2,,,,,,,,,,,,,,,,,,,,,,,,,,,,,,,,,,,,,,,,,,,,,,,,,,,,
,,,,,,,,,,,,,,,90417,001,2022-04-23_21h46.44.276,SPAMnetsValid,2021.1.4,Win32,59.97361161,,,,,,,,,,,,,,,,,,,,,,,,,,,,,,,,,,,,,,5,3.2028,0,0,0,0,1,marketable,partisan,jocular,marriageable,salable,essential,4,,,,,,,,,,,,,,,,,,,,,,,,,,,,,,,,,,,,,,
,,,,,,,,,,,,,,,90417,001,2022-04-23_21h46.44.276,SPAMnetsValid,2021.1.4,Win32,59.97361161,,,,,,,,,,,,,,,,,,,,,,,,,,,,,,,,,,,,,,4,3.0949,0,1,1,1,1,cottontail,squirrel,poplar,boa,marshy plant,rabbit,5,,,,,,,,,,,,,,,,,,,,,,,,,,,,,,,,,,,,,,
,,,,,,,,,,,,,,,90417,001,2022-04-23_21h46.44.276,SPAMnetsValid,2021.1.4,Win32,59.97361161,,,,,,,,,,,,,,,,,,,,,,,,,,,,,,,,,,,,,,3,1.6265,0,2,2,2,1,boggy,afraid,false,marshy,dense,black,3,,,,,,,,,,,,,,,,,,,,,,,,,,,,,,,,,,,,,,
,,,,,,,,,,,,,,,90417,001,2022-04-23_21h46.44.276,SPAMnetsValid,2021.1.4,Win32,59.97361161,,,,,,,,,,,,,,,,,,,,,,,,,,,,,,,,,,,,,,5,3.5239,0,3,3,3,1,gruesomeness,blackness,falseness,vindictiveness,drunkenness,ghastliness,5,,,,,,,,,,,,,,,,,,,,,,,,,,,,,,,,,,,,,,
,,,,,,,,,,,,,,,90417,001,2022-04-23_21h46.44.276,SPAMnetsValid,2021.1.4,Win32,59.97361161,,,,,,,,,,,,,,,,,,,,,,,,,,,,,,,,,,,,,,3,3.8258,0,4,4,4,1,loathing,diffidence,laziness,abhorrence,cleverness,comfort,3,,,,,,,,,,,,,,,,,,,,,,,,,,,,,,,,,,,,,,
,,,,,,,,,,,,,,,90417,001,2022-04-23_21h46.44.276,SPAMnetsValid,2021.1.4,Win32,59.97361161,,,,,,,,,,,,,,,,,,,,,,,,,,,,,,,,,,,,,,5,3.3966,0,5,5,5,1,bantam,fowl,ridicule,cripple,vegetable,ensign,1,,,,,,,,,,,,,,,,,,,,,,,,,,,,,,,,,,,,,,
,,,,,,,,,,,,,,,90417,001,2022-04-23_21h46.44.276,SPAMnetsValid,2021.1.4,Win32,59.97361161,,,,,,,,,,,,,,,,,,,,,,,,,,,,,,,,,,,,,,5,2.2442,0,6,6,6,1,evoke,wake up,surrender,reconnoiter,transcend,call forth,5,,,,,,,,,,,,,,,,,,,,,,,,,,,,,,,,,,,,,,
,,,,,,,,,,,,,,,90417,001,2022-04-23_21h46.44.276,SPAMnetsValid,2021.1.4,Win32,59.97361161,,,,,,,,,,,,,,,,,,,,,,,,,,,,,,,,,,,,,,5,4.8143,0,7,7,7,1,unobtrusive,unintelligent,epileptic,illogical,lineal,modest,5,,,,,,,,,,,,,,,,,,,,,,,,,,,,,,,,,,,,,,
,,,,,,,,,,,,,,,90417,001,2022-04-23_21h46.44.276,SPAMnetsValid,2021.1.4,Win32,59.97361161,,,,,,,,,,,,,,,,,,,,,,,,,,,,,,,,,,,,,,4,2.2046,0,8,8,8,1,terrain,ice cream,final test,tractor,area of ground,weight,4,,,,,,,,,,,,,,,,,,,,,,,,,,,,,,,,,,,,,,
,,,,,,,,,,,,,,,90417,001,2022-04-23_21h46.44.276,SPAMnetsValid,2021.1.4,Win32,59.97361161,,,,,,,,,,,,,,,,,,,,,,,,,,,,,,,,,,,,,,2,4.6062,0,9,9,9,1,capriciousness,stubbornness,courage,whimsicality,amazement,greediness,3,,,,,,,,,,,,,,,,,,,,,,,,,,,,,,,,,,,,,,
,,,,,,,,,,,,,,,90417,001,2022-04-23_21h46.44.276,SPAMnetsValid,2021.1.4,Win32,59.97361161,,,,,,,,,,,,,,,,,,,,,,,,,,,,,,,,,,,,,,2,3.4947,0,10,10,10,1,maelstrom,slander,whirlpool,enmity,armor,majolica,2,,,,,,,,,,,,,,,,,,,,,,,,,,,,,,,,,,,,,,
,,,,,,,,,,,,,,,90417,001,2022-04-23_21h46.44.276,SPAMnetsValid,2021.1.4,Win32,59.97361161,,,,,,,,,,,,,,,,,,,,,,,,,,,,,,,,,,,,,,5,3.7571,0,11,11,11,1,tentative,critical,conclusive,authentic,provisional,apprehensive,4,,,,,,,,,,,,,,,,,,,,,,,,,,,,,,,,,,,,,,
,,,,,,,,,,,,,,,90417,001,2022-04-23_21h46.44.276,SPAMnetsValid,2021.1.4,Win32,59.97361161,,,,,,,,,,,,,,,,,,,,,,,,,,,,,,,,,,,,,,5,3.1552,0,12,12,12,1,placate,rehabilitate,plagiarize,depredate,apprise,conciliate,5,,,,,,,,,,,,,,,,,,,,,,,,,,,,,,,,,,,,,,
,,,,,,,,,,,,,,,90417,001,2022-04-23_21h46.44.276,SPAMnetsValid,2021.1.4,Win32,59.97361161,,,,,,,,,,,,,,,,,,,,,,,,,,,,,,,,,,,,,,2,1.3444,0,13,13,13,1,surcease,enlightenment,cessation,inattention,censor,substitution,2,,,,,,,,,,,,,,,,,,,,,,,,,,,,,,,,,,,,,,
,,,,,,,,,,,,,,,90417,001,2022-04-23_21h46.44.276,SPAMnetsValid,2021.1.4,Win32,59.97361161,,,,,,,,,,,,,,,,,,,,,,,,,,,,,,,,,,,,,,3,4.6728,0,14,14,14,1,apathetic,wandering,impassive,hateful,prophetic,overflowing,2,,,,,,,,,,,,,,,,,,,,,,,,,,,,,,,,,,,,,,
,,,,,,,,,,,,,,,90417,001,2022-04-23_21h46.44.276,SPAMnetsValid,2021.1.4,Win32,59.97361161,,,,,,,,,,,,,,,,,,,,,,,,,,,,,,,,,,,,,,1,3.4728,0,15,15,15,1,paternoster,paternalism,patricide,malediction,benediction,prayer,5,,,,,,,,,,,,,,,,,,,,,,,,,,,,,,,,,,,,,,
,,,,,,,,,,,,,,,90417,001,2022-04-23_21h46.44.276,SPAMnetsValid,2021.1.4,Win32,59.97361161,,,,,,,,,,,,,,,,,,,,,,,,,,,,,,,,,,,,,,1,2.6222,0,16,16,16,1,opalescence,opulence,senescence,bankruptcy,iridescence,assiduity,4,,,,,,,,,,,,,,,,,,,,,,,,,,,,,,,,,,,,,,
,,,,,,,,,,,,,,,90417,001,2022-04-23_21h46.44.276,SPAMnetsValid,2021.1.4,Win32,59.97361161,,,,,,,,,,,,,,,,,,,,,,,,,,,,,,,,,,,,,,2,1.2124,0,17,17,17,1,lush,stupid,luxurious,hazy,putrid,languishing,2,,,,,,,,,,,,,,,,,,,,,,,,,,,,,,,,,,,,,,
,,,,,,,,,,,,,,,90417,001,2022-04-23_21h46.44.276,SPAMnetsValid,2021.1.4,Win32,59.97361161,,,,,,,,,,,,,,,,,,,,,,,,,,,,,,,,,,,,,,3,4.0782,0,18,18,18,1,curtailment,expenditure,abandonment,abridgment,improvement,forgery,3,,,,,,,,,,,,,,,,,,,,,,,,,,,,,,,,,,,,,,
,,,,,,,,,,,,,,,90417,001,2022-04-23_21h46.44.276,SPAMnetsValid,2021.1.4,Win32,59.97361161,,,,,,,,,,,,,,,,,,,,,,,,,,,,,,,,,,,,,,5,3.6945,0,19,19,19,1,perversity,adversity,perviousness,travesty,waywardness,gentility,4,,,,,,,,,,,,,,,,,,,,,,,,,,,,,,,,,,,,,,
,,,,,,,,,,,,,,,90417,001,2022-04-23_21h46.44.276,SPAMnetsValid,2021.1.4,Win32,59.97361161,,,,,,,,,,,,,,,,,,,,,,,,,,,,,,,,,,,,,,2,2.6661,0,20,20,20,1,calumnious,complimentary,analogous,slanderous,tempestuous,magnanimous,3,,,,,,,,,,,,,,,,,,,,,,,,,,,,,,,,,,,,,,
,,,,,,,,,,,,,,,90417,001,2022-04-23_21h46.44.276,SPAMnetsValid,2021.1.4,Win32,59.97361161,,,,,,,,,,,,,,,,,,,,,,,,,,,,,,,,,,,,,,5,4.2193,0,21,21,21,1,illiberality,bigotry,imbecility,illegibility,cautery,immaturity,1,,,,,,,,,,,,,,,,,,,,,,,,,,,,,,,,,,,,,,
,,,,,,,,,,,,,,,90417,001,2022-04-23_21h46.44.276,SPAMnetsValid,2021.1.4,Win32,59.97361161,,,,,,,,,,,,,,,,,,,,,,,,,,,,,,,,,,,,,,5,3.7061,0,22,22,22,1,clabber,rejoice,gossip,curdle,crow,hobble,3,,,,,,,,,,,,,,,,,,,,,,,,,,,,,,,,,,,,,,
,,,,,,,,,,,,,,,90417,001,2022-04-23_21h46.44.276,SPAMnetsValid,2021.1.4,Win32,59.97361161,,,,,,,,,,,,,,,,,,,,,,,,,,,,,,,,,,,,,,2,1.6313,0,23,23,23,1,sedulousness,diligence,credulousness,seduction,perilousness,frankness,1,,,,,,,,,,,,,,,,,,,,,,,,,,,,,,,,,,,,,,
,,,,,,,,,,,,,,,90417,001,2022-04-23_21h46.44.276,SPAMnetsValid,2021.1.4,Win32,59.97361161,,,,,,,,,,,,,,,,,,,,,,,,,,,,,,,,,,,,,,,,,,,,,,,,,,,,pillow fight,pillow,0,0,0,0,1,,,,,,,,,,,,,,,,,,,,,,,,,,,,,,,
,,,,,,,,,,,,,,,90417,001,2022-04-23_21h46.44.276,SPAMnetsValid,2021.1.4,Win32,59.97361161,,,,,,,,,,,,,,,,,,,,,,,,,,,,,,,,,,,,,,,,,,,,,,,,,,,,egg drop experiment,pillow,1,0,1,0,1,,,,,,,,,,,,,,,,,,,,,,,,,,,,,,,
,,,,,,,,,,,,,,,90417,001,2022-04-23_21h46.44.276,SPAMnetsValid,2021.1.4,Win32,59.97361161,,,,,,,,,,,,,,,,,,,,,,,,,,,,,,,,,,,,,,,,,,,,,,,,,,,,back / seat pad,pillow,2,0,2,0,1,,,,,,,,,,,,,,,,,,,,,,,,,,,,,,,
,,,,,,,,,,,,,,,90417,001,2022-04-23_21h46.44.276,SPAMnetsValid,2021.1.4,Win32,59.97361161,,,,,,,,,,,,,,,,,,,,,,,,,,,,,,,,,,,,,,,,,,,,,,,,,,,,somewhere to put ice for athletes,pillow,3,0,3,0,1,,,,,,,,,,,,,,,,,,,,,,,,,,,,,,,
,,,,,,,,,,,,,,,90417,001,2022-04-23_21h46.44.276,SPAMnetsValid,2021.1.4,Win32,59.97361161,,,,,,,,,,,,,,,,,,,,,,,,,,,,,,,,,,,,,,,,,,,,,,,,,,,,dog bed,pillow,4,0,4,0,1,,,,,,,,,,,,,,,,,,,,,,,,,,,,,,,
,,,,,,,,,,,,,,,90417,001,2022-04-23_21h46.44.276,SPAMnetsValid,2021.1.4,Win32,59.97361161,,,,,,,,,,,,,,,,,,,,,,,,,,,,,,,,,,,,,,,,,,,,,,,,,,,,dog toy,pillow,5,0,5,0,1,,,,,,,,,,,,,,,,,,,,,,,,,,,,,,,
,,,,,,,,,,,,,,,90417,001,2022-04-23_21h46.44.276,SPAMnetsValid,2021.1.4,Win32,59.97361161,,,,,,,,,,,,,,,,,,,,,,,,,,,,,,,,,,,,,,,,,,,,,,,,,,,,something to throw at siblings for no reason,pillow,6,0,6,0,1,,,,,,,,,,,,,,,,,,,,,,,,,,,,,,,
,,,,,,,,,,,,,,,90417,001,2022-04-23_21h46.44.276,SPAMnetsValid,2021.1.4,Win32,59.97361161,,,,,,,,,,,,,,,,,,,,,,,,,,,,,,,,,,,,,,,,,,,,,,,,,,,,pillow fort,pillow,7,0,7,0,1,,,,,,,,,,,,,,,,,,,,,,,,,,,,,,,
,,,,,,,,,,,,,,,90417,001,2022-04-23_21h46.44.276,SPAMnetsValid,2021.1.4,Win32,59.97361161,,,,,,,,,,,,,,,,,,,,,,,,,,,,,,,,,,,,,,,,,,,,,,,,,,,,,,,,,,,0,0,0,2,1,pillow,,,,,,,,,,,,,,,,,,,,,,,,,
,,,,,,,,,,,,,,,90417,001,2022-04-23_21h46.44.276,SPAMnetsValid,2021.1.4,Win32,59.97361161,,,,,,,,,,,,,,,,,,,,,,,,,,,,,,,,,,,,,,,,,,,,,,,,,,,,wii sensor,candle,0,0,0,0,1,,,,,,,,,,,,,,,,,,,,,,,,,,,,,,,
,,,,,,,,,,,,,,,90417,001,2022-04-23_21h46.44.276,SPAMnetsValid,2021.1.4,Win32,59.97361161,,,,,,,,,,,,,,,,,,,,,,,,,,,,,,,,,,,,,,,,,,,,,,,,,,,,drip wax for projects,candle,1,0,1,0,1,,,,,,,,,,,,,,,,,,,,,,,,,,,,,,,
,,,,,,,,,,,,,,,90417,001,2022-04-23_21h46.44.276,SPAMnetsValid,2021.1.4,Win32,59.97361161,,,,,,,,,,,,,,,,,,,,,,,,,,,,,,,,,,,,,,,,,,,,,,,,,,,,paperweight,candle,2,0,2,0,1,,,,,,,,,,,,,,,,,,,,,,,,,,,,,,,
,,,,,,,,,,,,,,,90417,001,2022-04-23_21h46.44.276,SPAMnetsValid,2021.1.4,Win32,59.97361161,,,,,,,,,,,,,,,,,,,,,,,,,,,,,,,,,,,,,,,,,,,,,,,,,,,,,,,,,,,0,1,1,1,1,candle,,,,,,,,,,,,,,,,,,,,,,,,,
,,,,,,,,,,,,,,,90417,001,2022-04-23_21h46.44.276,SPAMnetsValid,2021.1.4,Win32,59.97361161,,,,,,,,,,,,,,,,,,,,,,,,,,,,,,,,,,,,,,,,,,,,,,,,,,,,sand castle ,bucket,0,0,0,0,1,,,,,,,,,,,,,,,,,,,,,,,,,,,,,,,
,,,,,,,,,,,,,,,90417,001,2022-04-23_21h46.44.276,SPAMnetsValid,2021.1.4,Win32,59.97361161,,,,,,,,,,,,,,,,,,,,,,,,,,,,,,,,,,,,,,,,,,,,,,,,,,,,stool,bucket,1,0,1,0,1,,,,,,,,,,,,,,,,,,,,,,,,,,,,,,,
,,,,,,,,,,,,,,,90417,001,2022-04-23_21h46.44.276,SPAMnetsValid,2021.1.4,Win32,59.97361161,,,,,,,,,,,,,,,,,,,,,,,,,,,,,,,,,,,,,,,,,,,,,,,,,,,,storage,bucket,2,0,2,0,1,,,,,,,,,,,,,,,,,,,,,,,,,,,,,,,
,,,,,,,,,,,,,,,90417,001,2022-04-23_21h46.44.276,SPAMnetsValid,2021.1.4,Win32,59.97361161,,,,,,,,,,,,,,,,,,,,,,,,,,,,,,,,,,,,,,,,,,,,,,,,,,,,animal habitat,bucket,3,0,3,0,1,,,,,,,,,,,,,,,,,,,,,,,,,,,,,,,
,,,,,,,,,,,,,,,90417,001,2022-04-23_21h46.44.276,SPAMnetsValid,2021.1.4,Win32,59.97361161,,,,,,,,,,,,,,,,,,,,,,,,,,,,,,,,,,,,,,,,,,,,,,,,,,,,chair,bucket,4,0,4,0,1,,,,,,,,,,,,,,,,,,,,,,,,,,,,,,,
,,,,,,,,,,,,,,,90417,001,2022-04-23_21h46.44.276,SPAMnetsValid,2021.1.4,Win32,59.97361161,,,,,,,,,,,,,,,,,,,,,,,,,,,,,,,,,,,,,,,,,,,,,,,,,,,,noise maker,bucket,5,0,5,0,1,,,,,,,,,,,,,,,,,,,,,,,,,,,,,,,
,,,,,,,,,,,,,,,90417,001,2022-04-23_21h46.44.276,SPAMnetsValid,2021.1.4,Win32,59.97361161,,,,,,,,,,,,,,,,,,,,,,,,,,,,,,,,,,,,,,,,,,,,,,,,,,,,,,,,,,,0,2,2,0,1,bucket,,,,,,,,,,,,,,,,,,,,,,,,,
,,,,,,,,,,,,,,,90417,001,2022-04-23_21h46.44.276,SPAMnetsValid,2021.1.4,Win32,59.97361161,,,,,,,,,,,,,,,,,,,,,,,,,,,,,,,,,,,,,,,,,,,,,,,,,,,,,,,,,,,,,,,,,dog,Animals,0,0,0,0,1,,,,,,,,,,,,,,,,,,
,,,,,,,,,,,,,,,90417,001,2022-04-23_21h46.44.276,SPAMnetsValid,2021.1.4,Win32,59.97361161,,,,,,,,,,,,,,,,,,,,,,,,,,,,,,,,,,,,,,,,,,,,,,,,,,,,,,,,,,,,,,,,,cat,Animals,1,0,1,0,1,,,,,,,,,,,,,,,,,,
,,,,,,,,,,,,,,,90417,001,2022-04-23_21h46.44.276,SPAMnetsValid,2021.1.4,Win32,59.97361161,,,,,,,,,,,,,,,,,,,,,,,,,,,,,,,,,,,,,,,,,,,,,,,,,,,,,,,,,,,,,,,,,gorilla,Animals,2,0,2,0,1,,,,,,,,,,,,,,,,,,
,,,,,,,,,,,,,,,90417,001,2022-04-23_21h46.44.276,SPAMnetsValid,2021.1.4,Win32,59.97361161,,,,,,,,,,,,,,,,,,,,,,,,,,,,,,,,,,,,,,,,,,,,,,,,,,,,,,,,,,,,,,,,,monkey,Animals,3,0,3,0,1,,,,,,,,,,,,,,,,,,
,,,,,,,,,,,,,,,90417,001,2022-04-23_21h46.44.276,SPAMnetsValid,2021.1.4,Win32,59.97361161,,,,,,,,,,,,,,,,,,,,,,,,,,,,,,,,,,,,,,,,,,,,,,,,,,,,,,,,,,,,,,,,,giraffe,Animals,4,0,4,0,1,,,,,,,,,,,,,,,,,,
,,,,,,,,,,,,,,,90417,001,2022-04-23_21h46.44.276,SPAMnetsValid,2021.1.4,Win32,59.97361161,,,,,,,,,,,,,,,,,,,,,,,,,,,,,,,,,,,,,,,,,,,,,,,,,,,,,,,,,,,,,,,,,tiger,Animals,5,0,5,0,1,,,,,,,,,,,,,,,,,,
,,,,,,,,,,,,,,,90417,001,2022-04-23_21h46.44.276,SPAMnetsValid,2021.1.4,Win32,59.97361161,,,,,,,,,,,,,,,,,,,,,,,,,,,,,,,,,,,,,,,,,,,,,,,,,,,,,,,,,,,,,,,,,bear,Animals,6,0,6,0,1,,,,,,,,,,,,,,,,,,
,,,,,,,,,,,,,,,90417,001,2022-04-23_21h46.44.276,SPAMnetsValid,2021.1.4,Win32,59.97361161,,,,,,,,,,,,,,,,,,,,,,,,,,,,,,,,,,,,,,,,,,,,,,,,,,,,,,,,,,,,,,,,,lion,Animals,7,0,7,0,1,,,,,,,,,,,,,,,,,,
,,,,,,,,,,,,,,,90417,001,2022-04-23_21h46.44.276,SPAMnetsValid,2021.1.4,Win32,59.97361161,,,,,,,,,,,,,,,,,,,,,,,,,,,,,,,,,,,,,,,,,,,,,,,,,,,,,,,,,,,,,,,,,tiger,Animals,8,0,8,0,1,,,,,,,,,,,,,,,,,,
,,,,,,,,,,,,,,,90417,001,2022-04-23_21h46.44.276,SPAMnetsValid,2021.1.4,Win32,59.97361161,,,,,,,,,,,,,,,,,,,,,,,,,,,,,,,,,,,,,,,,,,,,,,,,,,,,,,,,,,,,,,,,,crocodile,Animals,9,0,9,0,1,,,,,,,,,,,,,,,,,,
,,,,,,,,,,,,,,,90417,001,2022-04-23_21h46.44.276,SPAMnetsValid,2021.1.4,Win32,59.97361161,,,,,,,,,,,,,,,,,,,,,,,,,,,,,,,,,,,,,,,,,,,,,,,,,,,,,,,,,,,,,,,,,alligator,Animals,10,0,10,0,1,,,,,,,,,,,,,,,,,,
,,,,,,,,,,,,,,,90417,001,2022-04-23_21h46.44.276,SPAMnetsValid,2021.1.4,Win32,59.97361161,,,,,,,,,,,,,,,,,,,,,,,,,,,,,,,,,,,,,,,,,,,,,,,,,,,,,,,,,,,,,,,,,zebra,Animals,11,0,11,0,1,,,,,,,,,,,,,,,,,,
,,,,,,,,,,,,,,,90417,001,2022-04-23_21h46.44.276,SPAMnetsValid,2021.1.4,Win32,59.97361161,,,,,,,,,,,,,,,,,,,,,,,,,,,,,,,,,,,,,,,,,,,,,,,,,,,,,,,,,,,,,,,,,horse,Animals,12,0,12,0,1,,,,,,,,,,,,,,,,,,
,,,,,,,,,,,,,,,90417,001,2022-04-23_21h46.44.276,SPAMnetsValid,2021.1.4,Win32,59.97361161,,,,,,,,,,,,,,,,,,,,,,,,,,,,,,,,,,,,,,,,,,,,,,,,,,,,,,,,,,,,,,,,,elephant,Animals,13,0,13,0,1,,,,,,,,,,,,,,,,,,
,,,,,,,,,,,,,,,90417,001,2022-04-23_21h46.44.276,SPAMnetsValid,2021.1.4,Win32,59.97361161,,,,,,,,,,,,,,,,,,,,,,,,,,,,,,,,,,,,,,,,,,,,,,,,,,,,,,,,,,,,,,,,,fish,Animals,14,0,14,0,1,,,,,,,,,,,,,,,,,,
,,,,,,,,,,,,,,,90417,001,2022-04-23_21h46.44.276,SPAMnetsValid,2021.1.4,Win32,59.97361161,,,,,,,,,,,,,,,,,,,,,,,,,,,,,,,,,,,,,,,,,,,,,,,,,,,,,,,,,,,,,,,,,shark,Animals,15,0,15,0,1,,,,,,,,,,,,,,,,,,
,,,,,,,,,,,,,,,90417,001,2022-04-23_21h46.44.276,SPAMnetsValid,2021.1.4,Win32,59.97361161,,,,,,,,,,,,,,,,,,,,,,,,,,,,,,,,,,,,,,,,,,,,,,,,,,,,,,,,,,,,,,,,,squid,Animals,16,0,16,0,1,,,,,,,,,,,,,,,,,,
,,,,,,,,,,,,,,,90417,001,2022-04-23_21h46.44.276,SPAMnetsValid,2021.1.4,Win32,59.97361161,,,,,,,,,,,,,,,,,,,,,,,,,,,,,,,,,,,,,,,,,,,,,,,,,,,,,,,,,,,,,,,,,whale,Animals,17,0,17,0,1,,,,,,,,,,,,,,,,,,
,,,,,,,,,,,,,,,90417,001,2022-04-23_21h46.44.276,SPAMnetsValid,2021.1.4,Win32,59.97361161,,,,,,,,,,,,,,,,,,,,,,,,,,,,,,,,,,,,,,,,,,,,,,,,,,,,,,,,,,,,,,,,,dolphin,Animals,18,0,18,0,1,,,,,,,,,,,,,,,,,,
,,,,,,,,,,,,,,,90417,001,2022-04-23_21h46.44.276,SPAMnetsValid,2021.1.4,Win32,59.97361161,,,,,,,,,,,,,,,,,,,,,,,,,,,,,,,,,,,,,,,,,,,,,,,,,,,,,,,,,,,,,,,,,anteater,Animals,19,0,19,0,1,,,,,,,,,,,,,,,,,,
,,,,,,,,,,,,,,,90417,001,2022-04-23_21h46.44.276,SPAMnetsValid,2021.1.4,Win32,59.97361161,,,,,,,,,,,,,,,,,,,,,,,,,,,,,,,,,,,,,,,,,,,,,,,,,,,,,,,,,,,,,,,,,bat,Animals,20,0,20,0,1,,,,,,,,,,,,,,,,,,
,,,,,,,,,,,,,,,90417,001,2022-04-23_21h46.44.276,SPAMnetsValid,2021.1.4,Win32,59.97361161,,,,,,,,,,,,,,,,,,,,,,,,,,,,,,,,,,,,,,,,,,,,,,,,,,,,,,,,,,,,,,,,,bird,Animals,21,0,21,0,1,,,,,,,,,,,,,,,,,,
,,,,,,,,,,,,,,,90417,001,2022-04-23_21h46.44.276,SPAMnetsValid,2021.1.4,Win32,59.97361161,,,,,,,,,,,,,,,,,,,,,,,,,,,,,,,,,,,,,,,,,,,,,,,,,,,,,,,,,,,,,,,,,snake,Animals,22,0,22,0,1,,,,,,,,,,,,,,,,,,
,,,,,,,,,,,,,,,90417,001,2022-04-23_21h46.44.276,SPAMnetsValid,2021.1.4,Win32,59.97361161,,,,,,,,,,,,,,,,,,,,,,,,,,,,,,,,,,,,,,,,,,,,,,,,,,,,,,,,,,,,,,,,,spider,Animals,23,0,23,0,1,,,,,,,,,,,,,,,,,,
,,,,,,,,,,,,,,,90417,001,2022-04-23_21h46.44.276,SPAMnetsValid,2021.1.4,Win32,59.97361161,,,,,,,,,,,,,,,,,,,,,,,,,,,,,,,,,,,,,,,,,,,,,,,,,,,,,,,,,,,,,,,,,gecko,Animals,24,0,24,0,1,,,,,,,,,,,,,,,,,,
,,,,,,,,,,,,,,,90417,001,2022-04-23_21h46.44.276,SPAMnetsValid,2021.1.4,Win32,59.97361161,,,,,,,,,,,,,,,,,,,,,,,,,,,,,,,,,,,,,,,,,,,,,,,,,,,,,,,,,,,,,,,,,iguana,Animals,25,0,25,0,1,,,,,,,,,,,,,,,,,,
,,,,,,,,,,,,,,,90417,001,2022-04-23_21h46.44.276,SPAMnetsValid,2021.1.4,Win32,59.97361161,,,,,,,,,,,,,,,,,,,,,,,,,,,,,,,,,,,,,,,,,,,,,,,,,,,,,,,,,,,,,,,,,kangaroo,Animals,26,0,26,0,1,,,,,,,,,,,,,,,,,,
,,,,,,,,,,,,,,,90417,001,2022-04-23_21h46.44.276,SPAMnetsValid,2021.1.4,Win32,59.97361161,,,,,,,,,,,,,,,,,,,,,,,,,,,,,,,,,,,,,,,,,,,,,,,,,,,,,,,,,,,,,,,,,ostrich,Animals,27,0,27,0,1,,,,,,,,,,,,,,,,,,
,,,,,,,,,,,,,,,90417,001,2022-04-23_21h46.44.276,SPAMnetsValid,2021.1.4,Win32,59.97361161,,,,,,,,,,,,,,,,,,,,,,,,,,,,,,,,,,,,,,,,,,,,,,,,,,,,,,,,,,,,,,,,,llama,Animals,28,0,28,0,1,,,,,,,,,,,,,,,,,,
,,,,,,,,,,,,,,,90417,001,2022-04-23_21h46.44.276,SPAMnetsValid,2021.1.4,Win32,59.97361161,,,,,,,,,,,,,,,,,,,,,,,,,,,,,,,,,,,,,,,,,,,,,,,,,,,,,,,,,,,,,,,,,alpaca,Animals,29,0,29,0,1,,,,,,,,,,,,,,,,,,
,,,,,,,,,,,,,,,90417,001,2022-04-23_21h46.44.276,SPAMnetsValid,2021.1.4,Win32,59.97361161,,,,,,,,,,,,,,,,,,,,,,,,,,,,,,,,,,,,,,,,,,,,,,,,,,,,,,,,,,,,,,,,,sheep,Animals,30,0,30,0,1,,,,,,,,,,,,,,,,,,
,,,,,,,,,,,,,,,90417,001,2022-04-23_21h46.44.276,SPAMnetsValid,2021.1.4,Win32,59.97361161,,,,,,,,,,,,,,,,,,,,,,,,,,,,,,,,,,,,,,,,,,,,,,,,,,,,,,,,,,,,,,,,,lamb,Animals,31,0,31,0,1,,,,,,,,,,,,,,,,,,
,,,,,,,,,,,,,,,90417,001,2022-04-23_21h46.44.276,SPAMnetsValid,2021.1.4,Win32,59.97361161,,,,,,,,,,,,,,,,,,,,,,,,,,,,,,,,,,,,,,,,,,,,,,,,,,,,,,,,,,,,,,,,,cow,Animals,32,0,32,0,1,,,,,,,,,,,,,,,,,,
,,,,,,,,,,,,,,,90417,001,2022-04-23_21h46.44.276,SPAMnetsValid,2021.1.4,Win32,59.97361161,,,,,,,,,,,,,,,,,,,,,,,,,,,,,,,,,,,,,,,,,,,,,,,,,,,,,,,,,,,,,,,,,frog,Animals,33,0,33,0,1,,,,,,,,,,,,,,,,,,
,,,,,,,,,,,,,,,90417,001,2022-04-23_21h46.44.276,SPAMnetsValid,2021.1.4,Win32,59.97361161,,,,,,,,,,,,,,,,,,,,,,,,,,,,,,,,,,,,,,,,,,,,,,,,,,,,,,,,,,,,,,,,,toad,Animals,34,0,34,0,1,,,,,,,,,,,,,,,,,,
,,,,,,,,,,,,,,,90417,001,2022-04-23_21h46.44.276,SPAMnetsValid,2021.1.4,Win32,59.97361161,,,,,,,,,,,,,,,,,,,,,,,,,,,,,,,,,,,,,,,,,,,,,,,,,,,,,,,,,,,,,,,,,turtle,Animals,35,0,35,0,1,,,,,,,,,,,,,,,,,,
,,,,,,,,,,,,,,,90417,001,2022-04-23_21h46.44.276,SPAMnetsValid,2021.1.4,Win32,59.97361161,,,,,,,,,,,,,,,,,,,,,,,,,,,,,,,,,,,,,,,,,,,,,,,,,,,,,,,,,,,,,,,,,toirtoise,Animals,36,0,36,0,1,,,,,,,,,,,,,,,,,,
,,,,,,,,,,,,,,,90417,001,2022-04-23_21h46.44.276,SPAMnetsValid,2021.1.4,Win32,59.97361161,,,,,,,,,,,,,,,,,,,,,,,,,,,,,,,,,,,,,,,,,,,,,,,,,,,,,,,,,,,,,,,,,octopus,Animals,37,0,37,0,1,,,,,,,,,,,,,,,,,,
,,,,,,,,,,,,,,,90417,001,2022-04-23_21h46.44.276,SPAMnetsValid,2021.1.4,Win32,59.97361161,,,,,,,,,,,,,,,,,,,,,,,,,,,,,,,,,,,,,,,,,,,,,,,,,,,,,,,,,,,,,,,,,lobster,Animals,38,0,38,0,1,,,,,,,,,,,,,,,,,,
,,,,,,,,,,,,,,,90417,001,2022-04-23_21h46.44.276,SPAMnetsValid,2021.1.4,Win32,59.97361161,,,,,,,,,,,,,,,,,,,,,,,,,,,,,,,,,,,,,,,,,,,,,,,,,,,,,,,,,,,,,,,,,crab,Animals,39,0,39,0,1,,,,,,,,,,,,,,,,,,
,,,,,,,,,,,,,,,90417,001,2022-04-23_21h46.44.276,SPAMnetsValid,2021.1.4,Win32,59.97361161,,,,,,,,,,,,,,,,,,,,,,,,,,,,,,,,,,,,,,,,,,,,,,,,,,,,,,,,,,,,,,,,,,,,,,,,0,0,0,0,1,Animals,,,,,,,,,,,,
,,,,,,,,,,,,,,,90417,001,2022-04-23_21h46.44.276,SPAMnetsValid,2021.1.4,Win32,59.97361161,,,,,,,,,,,,,,,,,,,,,,,,,,,,,,,,,,,,,,,,,,,,,,,,,,,,,,,,,,,,,,,,,,,,,,,,,,,,,,5,6.3379,0,0,0,0,1,"I enjoy concentrating on a fantasy or daydream and exploring all its possibilities, letting it grow and develop.",0,1,,
,,,,,,,,,,,,,,,90417,001,2022-04-23_21h46.44.276,SPAMnetsValid,2021.1.4,Win32,59.97361161,,,,,,,,,,,,,,,,,,,,,,,,,,,,,,,,,,,,,,,,,,,,,,,,,,,,,,,,,,,,,,,,,,,,,,,,,,,,,,5,1.5377,0,1,1,1,1,I think it's interesting to learn and develop new hobbies.,0,2,,
,,,,,,,,,,,,,,,90417,001,2022-04-23_21h46.44.276,SPAMnetsValid,2021.1.4,Win32,59.97361161,,,,,,,,,,,,,,,,,,,,,,,,,,,,,,,,,,,,,,,,,,,,,,,,,,,,,,,,,,,,,,,,,,,,,,,,,,,,,,5,2.3169,0,2,2,2,1,I am intrigued by the patterns I find in art and nature.,0,3,,
,,,,,,,,,,,,,,,90417,001,2022-04-23_21h46.44.276,SPAMnetsValid,2021.1.4,Win32,59.97361161,,,,,,,,,,,,,,,,,,,,,,,,,,,,,,,,,,,,,,,,,,,,,,,,,,,,,,,,,,,,,,,,,,,,,,,,,,,,,,2,6.6688,0,3,3,3,1,I believe letting students hear controversial speakers can only confuse and mislead them.,1,4,,
,,,,,,,,,,,,,,,90417,001,2022-04-23_21h46.44.276,SPAMnetsValid,2021.1.4,Win32,59.97361161,,,,,,,,,,,,,,,,,,,,,,,,,,,,,,,,,,,,,,,,,,,,,,,,,,,,,,,,,,,,,,,,,,,,,,,,,,,,,,5,2.817,0,4,4,4,1,Poetry has little or no effect on me.,1,5,,
,,,,,,,,,,,,,,,90417,001,2022-04-23_21h46.44.276,SPAMnetsValid,2021.1.4,Win32,59.97361161,,,,,,,,,,,,,,,,,,,,,,,,,,,,,,,,,,,,,,,,,,,,,,,,,,,,,,,,,,,,,,,,,,,,,,,,,,,,,,1,4.5094,0,5,5,5,1,I would have difficulty just letting my mind wander without control or guidance.,1,6,,
,,,,,,,,,,,,,,,90417,001,2022-04-23_21h46.44.276,SPAMnetsValid,2021.1.4,Win32,59.97361161,,,,,,,,,,,,,,,,,,,,,,,,,,,,,,,,,,,,,,,,,,,,,,,,,,,,,,,,,,,,,,,,,,,,,,,,,,,,,,5,1.8541,0,6,6,6,1,I seldom notice the moods or feelings that different environments produce.,1,7,,
,,,,,,,,,,,,,,,90417,001,2022-04-23_21h46.44.276,SPAMnetsValid,2021.1.4,Win32,59.97361161,,,,,,,,,,,,,,,,,,,,,,,,,,,,,,,,,,,,,,,,,,,,,,,,,,,,,,,,,,,,,,,,,,,,,,,,,,,,,,3,4.972,0,7,7,7,1,I experience a wide range of emotions or feelings.,0,8,,
,,,,,,,,,,,,,,,90417,001,2022-04-23_21h46.44.276,SPAMnetsValid,2021.1.4,Win32,59.97361161,,,,,,,,,,,,,,,,,,,,,,,,,,,,,,,,,,,,,,,,,,,,,,,,,,,,,,,,,,,,,,,,,,,,,,,,,,,,,,1,3.0017,0,8,8,8,1,"Sometimes when I am reading poetry or looking at a work of art, I feel a chill or wave of excitement.",0,9,,
,,,,,,,,,,,,,,,90417,001,2022-04-23_21h46.44.276,SPAMnetsValid,2021.1.4,Win32,59.97361161,,,,,,,,,,,,,,,,,,,,,,,,,,,,,,,,,,,,,,,,,,,,,,,,,,,,,,,,,,,,,,,,,,,,,,,,,,,,,,1,6.1653,0,9,9,9,1,I have little interest in speculating on the nature of the universe or the human condition.,1,10,,
,,,,,,,,,,,,,,,90417,001,2022-04-23_21h46.44.276,SPAMnetsValid,2021.1.4,Win32,59.97361161,,,,,,,,,,,,,,,,,,,,,,,,,,,,,,,,,,,,,,,,,,,,,,,,,,,,,,,,,,,,,,,,,,,,,,,,,,,,,,5,1.425,0,10,10,10,1,I have a lot of intellectual curiosity.,0,11,,
,,,,,,,,,,,,,,,90417,001,2022-04-23_21h46.44.276,SPAMnetsValid,2021.1.4,Win32,59.97361161,,,,,,,,,,,,,,,,,,,,,,,,,,,,,,,,,,,,,,,,,,,,,,,,,,,,,,,,,,,,,,,,,,,,,,,,,,,,,,5,1.334,0,11,11,11,1,I often enjoy playing with theories or abstract ideas.,0,12,,
,,,,,,,,,,,,,,,90417,001,2022-04-23_21h46.44.276,SPAMnetsValid,2021.1.4,Win32,59.97361161,,,,,,,,,,,,,,,,,,,,,,,,,,,,,,,,,,,,,,,,,,,,,,,,,,,,,,,,,,,,,,,,,,,,,,,,,,,,,,,,,,,,,,,,return,4.7251
