key_resp_3.keys,key_resp_3.rt,slider_2.response,slider_2.rt,rjt_rating,rjt_RT,trials_24.thisRepN,trials_24.thisTrialN,trials_24.thisN,trials_24.thisIndex,trials_24.ran,rjt_order,word1,word2,attention,participant,session,date,expName,psychopyVersion,OS,frameRate,trials_4.thisRepN,trials_4.thisTrialN,trials_4.thisN,trials_4.thisIndex,trials_4.ran,trials_5.thisRepN,trials_5.thisTrialN,trials_5.thisN,trials_5.thisIndex,trials_5.ran,repOne,repTwo,slider.response,slider.rt,trials_22.thisRepN,trials_22.thisTrialN,trials_22.thisN,trials_22.thisIndex,trials_22.ran,trials_99.thisRepN,trials_99.thisTrialN,trials_99.thisN,trials_99.thisIndex,trials_99.ran,slider_extend_2.response,slider_extend_2.rt,trials_6.thisRepN,trials_6.thisTrialN,trials_6.thisN,trials_6.thisIndex,trials_6.ran,vCue2,R1,R2,R3,R4,correct,sliderVocab.response,sliderVocab.rt,trials_7.thisRepN,trials_7.thisTrialN,trials_7.thisN,trials_7.thisIndex,trials_7.ran,VocabCue,VR1,VR2,VR3,VR4,VR5,VocabCorrect,AUT_resp,AUT_label,trials.thisRepN,trials.thisTrialN,trials.thisN,trials.thisIndex,trials.ran,trials_2.thisRepN,trials_2.thisTrialN,trials_2.thisN,trials_2.thisIndex,trials_2.ran,aut_prompt,VF_response,VF_tag,trials_16.thisRepN,trials_16.thisTrialN,trials_16.thisN,trials_16.thisIndex,trials_16.ran,trials_17.thisRepN,trials_17.thisTrialN,trials_17.thisN,trials_17.thisIndex,trials_17.ran,VFcond,open_slider.response,open_slider.rt,trials_3.thisRepN,trials_3.thisTrialN,trials_3.thisN,trials_3.thisIndex,trials_3.ran,OpenQ,Rev,OPEN_ORDER,key_resp_2.keys,key_resp_2.rt
return,5.212,7,8.026,7,8.026,0,0,0,26,1,107,rose,tomato,,90419,001,2022-04-21_18h11.14.823,SPAMnetsValid,2021.1.4,MacIntel,111.1111111,,,,,,,,,,,,,,,,,,,,,,,,,,,,,,,,,,,,,,,,,,,,,,,,,,,,,,,,,,,,,,,,,,,,,,,,,,,,,,,,,,,,,,,,,
,,1,3.883,1,3.883,0,1,1,54,1,101,cactus,kitchen,,90419,001,2022-04-21_18h11.14.823,SPAMnetsValid,2021.1.4,MacIntel,111.1111111,,,,,,,,,,,,,,,,,,,,,,,,,,,,,,,,,,,,,,,,,,,,,,,,,,,,,,,,,,,,,,,,,,,,,,,,,,,,,,,,,,,,,,,,,
,,7,2.257,7,2.257,0,2,2,2,1,174,cake,pretzel,,90419,001,2022-04-21_18h11.14.823,SPAMnetsValid,2021.1.4,MacIntel,111.1111111,,,,,,,,,,,,,,,,,,,,,,,,,,,,,,,,,,,,,,,,,,,,,,,,,,,,,,,,,,,,,,,,,,,,,,,,,,,,,,,,,,,,,,,,,
,,7,1.413,7,1.413,0,3,3,62,1,189,onion,tree,,90419,001,2022-04-21_18h11.14.823,SPAMnetsValid,2021.1.4,MacIntel,111.1111111,,,,,,,,,,,,,,,,,,,,,,,,,,,,,,,,,,,,,,,,,,,,,,,,,,,,,,,,,,,,,,,,,,,,,,,,,,,,,,,,,,,,,,,,,
,,6,1.769,6,1.769,0,4,4,42,1,184,oven,pretzel,,90419,001,2022-04-21_18h11.14.823,SPAMnetsValid,2021.1.4,MacIntel,111.1111111,,,,,,,,,,,,,,,,,,,,,,,,,,,,,,,,,,,,,,,,,,,,,,,,,,,,,,,,,,,,,,,,,,,,,,,,,,,,,,,,,,,,,,,,,
,,3,1.783,3,1.783,0,5,5,95,1,121,broom,microwave,,90419,001,2022-04-21_18h11.14.823,SPAMnetsValid,2021.1.4,MacIntel,111.1111111,,,,,,,,,,,,,,,,,,,,,,,,,,,,,,,,,,,,,,,,,,,,,,,,,,,,,,,,,,,,,,,,,,,,,,,,,,,,,,,,,,,,,,,,,
,,7,2.978,7,2.978,0,6,6,39,1,112,cake,carrot,,90419,001,2022-04-21_18h11.14.823,SPAMnetsValid,2021.1.4,MacIntel,111.1111111,,,,,,,,,,,,,,,,,,,,,,,,,,,,,,,,,,,,,,,,,,,,,,,,,,,,,,,,,,,,,,,,,,,,,,,,,,,,,,,,,,,,,,,,,
,,7,1.179,7,1.179,0,7,7,91,1,166,cake,yogurt,,90419,001,2022-04-21_18h11.14.823,SPAMnetsValid,2021.1.4,MacIntel,111.1111111,,,,,,,,,,,,,,,,,,,,,,,,,,,,,,,,,,,,,,,,,,,,,,,,,,,,,,,,,,,,,,,,,,,,,,,,,,,,,,,,,,,,,,,,,
,,4,2.442,4,2.442,0,8,8,76,1,102,chocolate,refrigerator,,90419,001,2022-04-21_18h11.14.823,SPAMnetsValid,2021.1.4,MacIntel,111.1111111,,,,,,,,,,,,,,,,,,,,,,,,,,,,,,,,,,,,,,,,,,,,,,,,,,,,,,,,,,,,,,,,,,,,,,,,,,,,,,,,,,,,,,,,,
,,4,1.56,4,1.56,0,9,9,10,1,118,chocolate,oven,,90419,001,2022-04-21_18h11.14.823,SPAMnetsValid,2021.1.4,MacIntel,111.1111111,,,,,,,,,,,,,,,,,,,,,,,,,,,,,,,,,,,,,,,,,,,,,,,,,,,,,,,,,,,,,,,,,,,,,,,,,,,,,,,,,,,,,,,,,
,,8,1.926,8,1.926,0,10,10,11,1,117,melon,strawberry,,90419,001,2022-04-21_18h11.14.823,SPAMnetsValid,2021.1.4,MacIntel,111.1111111,,,,,,,,,,,,,,,,,,,,,,,,,,,,,,,,,,,,,,,,,,,,,,,,,,,,,,,,,,,,,,,,,,,,,,,,,,,,,,,,,,,,,,,,,
,,8,1.02,8,1.02,0,11,11,60,1,122,flower,garden,,90419,001,2022-04-21_18h11.14.823,SPAMnetsValid,2021.1.4,MacIntel,111.1111111,,,,,,,,,,,,,,,,,,,,,,,,,,,,,,,,,,,,,,,,,,,,,,,,,,,,,,,,,,,,,,,,,,,,,,,,,,,,,,,,,,,,,,,,,
,,8,1.077,8,1.077,0,12,12,65,1,160,cookie,kitchen,,90419,001,2022-04-21_18h11.14.823,SPAMnetsValid,2021.1.4,MacIntel,111.1111111,,,,,,,,,,,,,,,,,,,,,,,,,,,,,,,,,,,,,,,,,,,,,,,,,,,,,,,,,,,,,,,,,,,,,,,,,,,,,,,,,,,,,,,,,
,,8,6.91,8,6.91,0,13,13,22,1,142,garden,tree,,90419,001,2022-04-21_18h11.14.823,SPAMnetsValid,2021.1.4,MacIntel,111.1111111,,,,,,,,,,,,,,,,,,,,,,,,,,,,,,,,,,,,,,,,,,,,,,,,,,,,,,,,,,,,,,,,,,,,,,,,,,,,,,,,,,,,,,,,,
,,3,1.477,3,1.477,0,14,14,67,1,96,oven,strawberry,,90419,001,2022-04-21_18h11.14.823,SPAMnetsValid,2021.1.4,MacIntel,111.1111111,,,,,,,,,,,,,,,,,,,,,,,,,,,,,,,,,,,,,,,,,,,,,,,,,,,,,,,,,,,,,,,,,,,,,,,,,,,,,,,,,,,,,,,,,
,,8,1.785,8,1.785,0,15,15,27,1,158,cookie,oven,,90419,001,2022-04-21_18h11.14.823,SPAMnetsValid,2021.1.4,MacIntel,111.1111111,,,,,,,,,,,,,,,,,,,,,,,,,,,,,,,,,,,,,,,,,,,,,,,,,,,,,,,,,,,,,,,,,,,,,,,,,,,,,,,,,,,,,,,,,
,,4,2.214,4,2.214,0,16,16,13,1,105,cactus,oven,,90419,001,2022-04-21_18h11.14.823,SPAMnetsValid,2021.1.4,MacIntel,111.1111111,,,,,,,,,,,,,,,,,,,,,,,,,,,,,,,,,,,,,,,,,,,,,,,,,,,,,,,,,,,,,,,,,,,,,,,,,,,,,,,,,,,,,,,,,
,,2,1.833,2,1.833,0,17,17,90,1,190,microwave,strawberry,,90419,001,2022-04-21_18h11.14.823,SPAMnetsValid,2021.1.4,MacIntel,111.1111111,,,,,,,,,,,,,,,,,,,,,,,,,,,,,,,,,,,,,,,,,,,,,,,,,,,,,,,,,,,,,,,,,,,,,,,,,,,,,,,,,,,,,,,,,
,,4,1.705,4,1.705,0,18,18,48,1,186,kitchen,yogurt,,90419,001,2022-04-21_18h11.14.823,SPAMnetsValid,2021.1.4,MacIntel,111.1111111,,,,,,,,,,,,,,,,,,,,,,,,,,,,,,,,,,,,,,,,,,,,,,,,,,,,,,,,,,,,,,,,,,,,,,,,,,,,,,,,,,,,,,,,,
,,2,1.398,2,1.398,0,19,19,45,1,179,broom,oven,,90419,001,2022-04-21_18h11.14.823,SPAMnetsValid,2021.1.4,MacIntel,111.1111111,,,,,,,,,,,,,,,,,,,,,,,,,,,,,,,,,,,,,,,,,,,,,,,,,,,,,,,,,,,,,,,,,,,,,,,,,,,,,,,,,,,,,,,,,
,,6,1.926,6,1.926,0,20,20,24,1,169,onion,yogurt,,90419,001,2022-04-21_18h11.14.823,SPAMnetsValid,2021.1.4,MacIntel,111.1111111,,,,,,,,,,,,,,,,,,,,,,,,,,,,,,,,,,,,,,,,,,,,,,,,,,,,,,,,,,,,,,,,,,,,,,,,,,,,,,,,,,,,,,,,,
,,6,0.719,6,0.719,0,21,21,49,1,152,cactus,strawberry,,90419,001,2022-04-21_18h11.14.823,SPAMnetsValid,2021.1.4,MacIntel,111.1111111,,,,,,,,,,,,,,,,,,,,,,,,,,,,,,,,,,,,,,,,,,,,,,,,,,,,,,,,,,,,,,,,,,,,,,,,,,,,,,,,,,,,,,,,,
,,6,0.896,6,0.896,0,22,22,34,1,153,carrot,pretzel,,90419,001,2022-04-21_18h11.14.823,SPAMnetsValid,2021.1.4,MacIntel,111.1111111,,,,,,,,,,,,,,,,,,,,,,,,,,,,,,,,,,,,,,,,,,,,,,,,,,,,,,,,,,,,,,,,,,,,,,,,,,,,,,,,,,,,,,,,,
,,6,0.424,6,0.424,0,23,23,8,1,97,chocolate,kitchen,,90419,001,2022-04-21_18h11.14.823,SPAMnetsValid,2021.1.4,MacIntel,111.1111111,,,,,,,,,,,,,,,,,,,,,,,,,,,,,,,,,,,,,,,,,,,,,,,,,,,,,,,,,,,,,,,,,,,,,,,,,,,,,,,,,,,,,,,,,
,,7,0.452,7,0.452,0,24,24,75,1,178,cactus,carrot,,90419,001,2022-04-21_18h11.14.823,SPAMnetsValid,2021.1.4,MacIntel,111.1111111,,,,,,,,,,,,,,,,,,,,,,,,,,,,,,,,,,,,,,,,,,,,,,,,,,,,,,,,,,,,,,,,,,,,,,,,,,,,,,,,,,,,,,,,,
,,6,0.419,6,0.419,0,25,25,23,1,148,flower,melon,,90419,001,2022-04-21_18h11.14.823,SPAMnetsValid,2021.1.4,MacIntel,111.1111111,,,,,,,,,,,,,,,,,,,,,,,,,,,,,,,,,,,,,,,,,,,,,,,,,,,,,,,,,,,,,,,,,,,,,,,,,,,,,,,,,,,,,,,,,
,,7,0.362,7,0.362,0,26,26,74,1,128,melon,microwave,,90419,001,2022-04-21_18h11.14.823,SPAMnetsValid,2021.1.4,MacIntel,111.1111111,,,,,,,,,,,,,,,,,,,,,,,,,,,,,,,,,,,,,,,,,,,,,,,,,,,,,,,,,,,,,,,,,,,,,,,,,,,,,,,,,,,,,,,,,
,,8,0.431,8,0.431,0,27,27,53,1,177,chocolate,strawberry,,90419,001,2022-04-21_18h11.14.823,SPAMnetsValid,2021.1.4,MacIntel,111.1111111,,,,,,,,,,,,,,,,,,,,,,,,,,,,,,,,,,,,,,,,,,,,,,,,,,,,,,,,,,,,,,,,,,,,,,,,,,,,,,,,,,,,,,,,,
,,6,0.368,6,0.368,0,28,28,82,1,98,pretzel,strawberry,,90419,001,2022-04-21_18h11.14.823,SPAMnetsValid,2021.1.4,MacIntel,111.1111111,,,,,,,,,,,,,,,,,,,,,,,,,,,,,,,,,,,,,,,,,,,,,,,,,,,,,,,,,,,,,,,,,,,,,,,,,,,,,,,,,,,,,,,,,
,,7,0.472,7,0.472,0,29,29,36,1,161,kitchen,pretzel,,90419,001,2022-04-21_18h11.14.823,SPAMnetsValid,2021.1.4,MacIntel,111.1111111,,,,,,,,,,,,,,,,,,,,,,,,,,,,,,,,,,,,,,,,,,,,,,,,,,,,,,,,,,,,,,,,,,,,,,,,,,,,,,,,,,,,,,,,,
,,5,0.408,5,0.408,0,30,30,7,1,188,flower,tree,,90419,001,2022-04-21_18h11.14.823,SPAMnetsValid,2021.1.4,MacIntel,111.1111111,,,,,,,,,,,,,,,,,,,,,,,,,,,,,,,,,,,,,,,,,,,,,,,,,,,,,,,,,,,,,,,,,,,,,,,,,,,,,,,,,,,,,,,,,
,,3,0.458,3,0.458,0,31,31,17,1,99,garden,melon,,90419,001,2022-04-21_18h11.14.823,SPAMnetsValid,2021.1.4,MacIntel,111.1111111,,,,,,,,,,,,,,,,,,,,,,,,,,,,,,,,,,,,,,,,,,,,,,,,,,,,,,,,,,,,,,,,,,,,,,,,,,,,,,,,,,,,,,,,,
,,5,0.6,5,0.6,0,32,32,88,1,171,cake,tomato,,90419,001,2022-04-21_18h11.14.823,SPAMnetsValid,2021.1.4,MacIntel,111.1111111,,,,,,,,,,,,,,,,,,,,,,,,,,,,,,,,,,,,,,,,,,,,,,,,,,,,,,,,,,,,,,,,,,,,,,,,,,,,,,,,,,,,,,,,,
,,7,0.493,7,0.493,0,33,33,46,1,123,cookie,tree,,90419,001,2022-04-21_18h11.14.823,SPAMnetsValid,2021.1.4,MacIntel,111.1111111,,,,,,,,,,,,,,,,,,,,,,,,,,,,,,,,,,,,,,,,,,,,,,,,,,,,,,,,,,,,,,,,,,,,,,,,,,,,,,,,,,,,,,,,,
,,3,0.426,3,0.426,0,34,34,69,1,124,oven,refrigerator,,90419,001,2022-04-21_18h11.14.823,SPAMnetsValid,2021.1.4,MacIntel,111.1111111,,,,,,,,,,,,,,,,,,,,,,,,,,,,,,,,,,,,,,,,,,,,,,,,,,,,,,,,,,,,,,,,,,,,,,,,,,,,,,,,,,,,,,,,,
,,7,0.45,7,0.45,0,35,35,43,1,185,cactus,rose,,90419,001,2022-04-21_18h11.14.823,SPAMnetsValid,2021.1.4,MacIntel,111.1111111,,,,,,,,,,,,,,,,,,,,,,,,,,,,,,,,,,,,,,,,,,,,,,,,,,,,,,,,,,,,,,,,,,,,,,,,,,,,,,,,,,,,,,,,,
,,4,0.422,4,0.422,0,36,36,77,1,172,kitchen,melon,,90419,001,2022-04-21_18h11.14.823,SPAMnetsValid,2021.1.4,MacIntel,111.1111111,,,,,,,,,,,,,,,,,,,,,,,,,,,,,,,,,,,,,,,,,,,,,,,,,,,,,,,,,,,,,,,,,,,,,,,,,,,,,,,,,,,,,,,,,
,,7,0.452,7,0.452,0,37,37,70,1,141,melon,tomato,,90419,001,2022-04-21_18h11.14.823,SPAMnetsValid,2021.1.4,MacIntel,111.1111111,,,,,,,,,,,,,,,,,,,,,,,,,,,,,,,,,,,,,,,,,,,,,,,,,,,,,,,,,,,,,,,,,,,,,,,,,,,,,,,,,,,,,,,,,
,,7,0.912,7,0.912,0,38,38,55,1,143,pretzel,rose,,90419,001,2022-04-21_18h11.14.823,SPAMnetsValid,2021.1.4,MacIntel,111.1111111,,,,,,,,,,,,,,,,,,,,,,,,,,,,,,,,,,,,,,,,,,,,,,,,,,,,,,,,,,,,,,,,,,,,,,,,,,,,,,,,,,,,,,,,,
,,6,0.452,6,0.452,0,39,39,89,1,140,cookie,refrigerator,,90419,001,2022-04-21_18h11.14.823,SPAMnetsValid,2021.1.4,MacIntel,111.1111111,,,,,,,,,,,,,,,,,,,,,,,,,,,,,,,,,,,,,,,,,,,,,,,,,,,,,,,,,,,,,,,,,,,,,,,,,,,,,,,,,,,,,,,,,
,,3,0.067,3,0.067,0,40,40,71,1,187,cactus,microwave,,90419,001,2022-04-21_18h11.14.823,SPAMnetsValid,2021.1.4,MacIntel,111.1111111,,,,,,,,,,,,,,,,,,,,,,,,,,,,,,,,,,,,,,,,,,,,,,,,,,,,,,,,,,,,,,,,,,,,,,,,,,,,,,,,,,,,,,,,,
,,5,0.515,5,0.515,0,41,41,19,1,183,cake,rose,,90419,001,2022-04-21_18h11.14.823,SPAMnetsValid,2021.1.4,MacIntel,111.1111111,,,,,,,,,,,,,,,,,,,,,,,,,,,,,,,,,,,,,,,,,,,,,,,,,,,,,,,,,,,,,,,,,,,,,,,,,,,,,,,,,,,,,,,,,
,,7,1.127,7,1.127,0,42,42,20,1,149,broom,tomato,,90419,001,2022-04-21_18h11.14.823,SPAMnetsValid,2021.1.4,MacIntel,111.1111111,,,,,,,,,,,,,,,,,,,,,,,,,,,,,,,,,,,,,,,,,,,,,,,,,,,,,,,,,,,,,,,,,,,,,,,,,,,,,,,,,,,,,,,,,
,,4,1.243,4,1.243,0,43,43,35,1,147,cake,refrigerator,,90419,001,2022-04-21_18h11.14.823,SPAMnetsValid,2021.1.4,MacIntel,111.1111111,,,,,,,,,,,,,,,,,,,,,,,,,,,,,,,,,,,,,,,,,,,,,,,,,,,,,,,,,,,,,,,,,,,,,,,,,,,,,,,,,,,,,,,,,
,,6,6.727,6,6.727,0,44,44,83,1,100,garden,tomato,,90419,001,2022-04-21_18h11.14.823,SPAMnetsValid,2021.1.4,MacIntel,111.1111111,,,,,,,,,,,,,,,,,,,,,,,,,,,,,,,,,,,,,,,,,,,,,,,,,,,,,,,,,,,,,,,,,,,,,,,,,,,,,,,,,,,,,,,,,
,,6,0.801,6,0.801,0,45,45,9,1,176,cactus,tomato,,90419,001,2022-04-21_18h11.14.823,SPAMnetsValid,2021.1.4,MacIntel,111.1111111,,,,,,,,,,,,,,,,,,,,,,,,,,,,,,,,,,,,,,,,,,,,,,,,,,,,,,,,,,,,,,,,,,,,,,,,,,,,,,,,,,,,,,,,,
,,6,0.494,6,0.494,0,46,46,87,1,114,cookie,strawberry,,90419,001,2022-04-21_18h11.14.823,SPAMnetsValid,2021.1.4,MacIntel,111.1111111,,,,,,,,,,,,,,,,,,,,,,,,,,,,,,,,,,,,,,,,,,,,,,,,,,,,,,,,,,,,,,,,,,,,,,,,,,,,,,,,,,,,,,,,,
,,6,5.141,6,5.141,0,47,47,73,1,135,carrot,oven,,90419,001,2022-04-21_18h11.14.823,SPAMnetsValid,2021.1.4,MacIntel,111.1111111,,,,,,,,,,,,,,,,,,,,,,,,,,,,,,,,,,,,,,,,,,,,,,,,,,,,,,,,,,,,,,,,,,,,,,,,,,,,,,,,,,,,,,,,,
,,6,0.495,6,0.495,0,48,48,93,1,134,carrot,flower,,90419,001,2022-04-21_18h11.14.823,SPAMnetsValid,2021.1.4,MacIntel,111.1111111,,,,,,,,,,,,,,,,,,,,,,,,,,,,,,,,,,,,,,,,,,,,,,,,,,,,,,,,,,,,,,,,,,,,,,,,,,,,,,,,,,,,,,,,,
,,6,0.377,6,0.377,0,49,49,31,1,156,melon,rose,,90419,001,2022-04-21_18h11.14.823,SPAMnetsValid,2021.1.4,MacIntel,111.1111111,,,,,,,,,,,,,,,,,,,,,,,,,,,,,,,,,,,,,,,,,,,,,,,,,,,,,,,,,,,,,,,,,,,,,,,,,,,,,,,,,,,,,,,,,
,,6,0.808,6,0.808,0,50,50,14,1,120,microwave,oven,,90419,001,2022-04-21_18h11.14.823,SPAMnetsValid,2021.1.4,MacIntel,111.1111111,,,,,,,,,,,,,,,,,,,,,,,,,,,,,,,,,,,,,,,,,,,,,,,,,,,,,,,,,,,,,,,,,,,,,,,,,,,,,,,,,,,,,,,,,
,,6,1.096,6,1.096,0,51,51,15,1,145,cactus,yogurt,,90419,001,2022-04-21_18h11.14.823,SPAMnetsValid,2021.1.4,MacIntel,111.1111111,,,,,,,,,,,,,,,,,,,,,,,,,,,,,,,,,,,,,,,,,,,,,,,,,,,,,,,,,,,,,,,,,,,,,,,,,,,,,,,,,,,,,,,,,
,,7,0.529,7,0.529,0,52,52,0,1,106,cake,strawberry,,90419,001,2022-04-21_18h11.14.823,SPAMnetsValid,2021.1.4,MacIntel,111.1111111,,,,,,,,,,,,,,,,,,,,,,,,,,,,,,,,,,,,,,,,,,,,,,,,,,,,,,,,,,,,,,,,,,,,,,,,,,,,,,,,,,,,,,,,,
,,8,0.879,8,0.879,0,53,53,44,1,116,cake,chocolate,,90419,001,2022-04-21_18h11.14.823,SPAMnetsValid,2021.1.4,MacIntel,111.1111111,,,,,,,,,,,,,,,,,,,,,,,,,,,,,,,,,,,,,,,,,,,,,,,,,,,,,,,,,,,,,,,,,,,,,,,,,,,,,,,,,,,,,,,,,
,,4,1.33,4,1.33,0,54,54,3,1,129,cactus,refrigerator,,90419,001,2022-04-21_18h11.14.823,SPAMnetsValid,2021.1.4,MacIntel,111.1111111,,,,,,,,,,,,,,,,,,,,,,,,,,,,,,,,,,,,,,,,,,,,,,,,,,,,,,,,,,,,,,,,,,,,,,,,,,,,,,,,,,,,,,,,,
,,5,3.051,5,3.051,0,55,55,94,1,133,cake,flower,,90419,001,2022-04-21_18h11.14.823,SPAMnetsValid,2021.1.4,MacIntel,111.1111111,,,,,,,,,,,,,,,,,,,,,,,,,,,,,,,,,,,,,,,,,,,,,,,,,,,,,,,,,,,,,,,,,,,,,,,,,,,,,,,,,,,,,,,,,
,,3,1.214,3,1.214,0,56,56,58,1,144,cake,garden,,90419,001,2022-04-21_18h11.14.823,SPAMnetsValid,2021.1.4,MacIntel,111.1111111,,,,,,,,,,,,,,,,,,,,,,,,,,,,,,,,,,,,,,,,,,,,,,,,,,,,,,,,,,,,,,,,,,,,,,,,,,,,,,,,,,,,,,,,,
,,6,1.612,6,1.612,0,57,57,51,1,168,cactus,flower,,90419,001,2022-04-21_18h11.14.823,SPAMnetsValid,2021.1.4,MacIntel,111.1111111,,,,,,,,,,,,,,,,,,,,,,,,,,,,,,,,,,,,,,,,,,,,,,,,,,,,,,,,,,,,,,,,,,,,,,,,,,,,,,,,,,,,,,,,,
,,6,2.167,6,2.167,0,58,58,38,1,155,carrot,cookie,,90419,001,2022-04-21_18h11.14.823,SPAMnetsValid,2021.1.4,MacIntel,111.1111111,,,,,,,,,,,,,,,,,,,,,,,,,,,,,,,,,,,,,,,,,,,,,,,,,,,,,,,,,,,,,,,,,,,,,,,,,,,,,,,,,,,,,,,,,
,,4,1.296,4,1.296,0,59,59,96,1,136,chocolate,microwave,,90419,001,2022-04-21_18h11.14.823,SPAMnetsValid,2021.1.4,MacIntel,111.1111111,,,,,,,,,,,,,,,,,,,,,,,,,,,,,,,,,,,,,,,,,,,,,,,,,,,,,,,,,,,,,,,,,,,,,,,,,,,,,,,,,,,,,,,,,
,,7,1.899,7,1.899,0,60,60,28,1,154,strawberry,yogurt,,90419,001,2022-04-21_18h11.14.823,SPAMnetsValid,2021.1.4,MacIntel,111.1111111,,,,,,,,,,,,,,,,,,,,,,,,,,,,,,,,,,,,,,,,,,,,,,,,,,,,,,,,,,,,,,,,,,,,,,,,,,,,,,,,,,,,,,,,,
,,8,1.061,8,1.061,0,61,61,47,1,167,carrot,garden,,90419,001,2022-04-21_18h11.14.823,SPAMnetsValid,2021.1.4,MacIntel,111.1111111,,,,,,,,,,,,,,,,,,,,,,,,,,,,,,,,,,,,,,,,,,,,,,,,,,,,,,,,,,,,,,,,,,,,,,,,,,,,,,,,,,,,,,,,,
,,6,2.507,6,2.507,0,62,62,78,1,132,broom,tree,,90419,001,2022-04-21_18h11.14.823,SPAMnetsValid,2021.1.4,MacIntel,111.1111111,,,,,,,,,,,,,,,,,,,,,,,,,,,,,,,,,,,,,,,,,,,,,,,,,,,,,,,,,,,,,,,,,,,,,,,,,,,,,,,,,,,,,,,,,
,,7,1.17,7,1.17,0,63,63,33,1,131,cactus,garden,,90419,001,2022-04-21_18h11.14.823,SPAMnetsValid,2021.1.4,MacIntel,111.1111111,,,,,,,,,,,,,,,,,,,,,,,,,,,,,,,,,,,,,,,,,,,,,,,,,,,,,,,,,,,,,,,,,,,,,,,,,,,,,,,,,,,,,,,,,
,,7,0.668,7,0.668,0,64,64,25,1,194,cactus,cactus,CHECK,90419,001,2022-04-21_18h11.14.823,SPAMnetsValid,2021.1.4,MacIntel,111.1111111,,,,,,,,,,,,,,,,,,,,,,,,,,,,,,,,,,,,,,,,,,,,,,,,,,,,,,,,,,,,,,,,,,,,,,,,,,,,,,,,,,,,,,,,,
,,7,1.446,7,1.446,0,65,65,59,1,164,cookie,garden,,90419,001,2022-04-21_18h11.14.823,SPAMnetsValid,2021.1.4,MacIntel,111.1111111,,,,,,,,,,,,,,,,,,,,,,,,,,,,,,,,,,,,,,,,,,,,,,,,,,,,,,,,,,,,,,,,,,,,,,,,,,,,,,,,,,,,,,,,,
,,7,0.763,7,0.763,0,66,66,81,1,104,garden,microwave,,90419,001,2022-04-21_18h11.14.823,SPAMnetsValid,2021.1.4,MacIntel,111.1111111,,,,,,,,,,,,,,,,,,,,,,,,,,,,,,,,,,,,,,,,,,,,,,,,,,,,,,,,,,,,,,,,,,,,,,,,,,,,,,,,,,,,,,,,,
,,7,0.853,7,0.853,0,67,67,1,1,173,kitchen,tomato,,90419,001,2022-04-21_18h11.14.823,SPAMnetsValid,2021.1.4,MacIntel,111.1111111,,,,,,,,,,,,,,,,,,,,,,,,,,,,,,,,,,,,,,,,,,,,,,,,,,,,,,,,,,,,,,,,,,,,,,,,,,,,,,,,,,,,,,,,,
,,7,1.092,7,1.092,0,68,68,56,1,113,refrigerator,strawberry,,90419,001,2022-04-21_18h11.14.823,SPAMnetsValid,2021.1.4,MacIntel,111.1111111,,,,,,,,,,,,,,,,,,,,,,,,,,,,,,,,,,,,,,,,,,,,,,,,,,,,,,,,,,,,,,,,,,,,,,,,,,,,,,,,,,,,,,,,,
,,2,1.479,2,1.479,0,69,69,4,1,109,broom,strawberry,,90419,001,2022-04-21_18h11.14.823,SPAMnetsValid,2021.1.4,MacIntel,111.1111111,,,,,,,,,,,,,,,,,,,,,,,,,,,,,,,,,,,,,,,,,,,,,,,,,,,,,,,,,,,,,,,,,,,,,,,,,,,,,,,,,,,,,,,,,
,,5,2.481,5,2.481,0,70,70,92,1,170,cookie,microwave,,90419,001,2022-04-21_18h11.14.823,SPAMnetsValid,2021.1.4,MacIntel,111.1111111,,,,,,,,,,,,,,,,,,,,,,,,,,,,,,,,,,,,,,,,,,,,,,,,,,,,,,,,,,,,,,,,,,,,,,,,,,,,,,,,,,,,,,,,,
,,3,3.695,3,3.695,0,71,71,21,1,159,cookie,flower,,90419,001,2022-04-21_18h11.14.823,SPAMnetsValid,2021.1.4,MacIntel,111.1111111,,,,,,,,,,,,,,,,,,,,,,,,,,,,,,,,,,,,,,,,,,,,,,,,,,,,,,,,,,,,,,,,,,,,,,,,,,,,,,,,,,,,,,,,,
,,4,1.059,4,1.059,0,72,72,79,1,103,pretzel,tomato,,90419,001,2022-04-21_18h11.14.823,SPAMnetsValid,2021.1.4,MacIntel,111.1111111,,,,,,,,,,,,,,,,,,,,,,,,,,,,,,,,,,,,,,,,,,,,,,,,,,,,,,,,,,,,,,,,,,,,,,,,,,,,,,,,,,,,,,,,,
,,3,1.83,3,1.83,0,73,73,68,1,180,tree,yogurt,,90419,001,2022-04-21_18h11.14.823,SPAMnetsValid,2021.1.4,MacIntel,111.1111111,,,,,,,,,,,,,,,,,,,,,,,,,,,,,,,,,,,,,,,,,,,,,,,,,,,,,,,,,,,,,,,,,,,,,,,,,,,,,,,,,,,,,,,,,
,,3,0.969,3,0.969,0,74,74,84,1,130,microwave,yogurt,,90419,001,2022-04-21_18h11.14.823,SPAMnetsValid,2021.1.4,MacIntel,111.1111111,,,,,,,,,,,,,,,,,,,,,,,,,,,,,,,,,,,,,,,,,,,,,,,,,,,,,,,,,,,,,,,,,,,,,,,,,,,,,,,,,,,,,,,,,
,,8,1.873,8,1.873,0,75,75,29,1,163,melon,refrigerator,,90419,001,2022-04-21_18h11.14.823,SPAMnetsValid,2021.1.4,MacIntel,111.1111111,,,,,,,,,,,,,,,,,,,,,,,,,,,,,,,,,,,,,,,,,,,,,,,,,,,,,,,,,,,,,,,,,,,,,,,,,,,,,,,,,,,,,,,,,
,,9,1.777,9,1.777,0,76,76,61,1,138,flower,rose,,90419,001,2022-04-21_18h11.14.823,SPAMnetsValid,2021.1.4,MacIntel,111.1111111,,,,,,,,,,,,,,,,,,,,,,,,,,,,,,,,,,,,,,,,,,,,,,,,,,,,,,,,,,,,,,,,,,,,,,,,,,,,,,,,,,,,,,,,,
,,2,1.562,2,1.562,0,77,77,32,1,182,flower,refrigerator,,90419,001,2022-04-21_18h11.14.823,SPAMnetsValid,2021.1.4,MacIntel,111.1111111,,,,,,,,,,,,,,,,,,,,,,,,,,,,,,,,,,,,,,,,,,,,,,,,,,,,,,,,,,,,,,,,,,,,,,,,,,,,,,,,,,,,,,,,,
,,3,1.275,3,1.275,0,78,78,64,1,157,refrigerator,rose,,90419,001,2022-04-21_18h11.14.823,SPAMnetsValid,2021.1.4,MacIntel,111.1111111,,,,,,,,,,,,,,,,,,,,,,,,,,,,,,,,,,,,,,,,,,,,,,,,,,,,,,,,,,,,,,,,,,,,,,,,,,,,,,,,,,,,,,,,,
,,7,1.548,7,1.548,0,79,79,85,1,115,refrigerator,tomato,,90419,001,2022-04-21_18h11.14.823,SPAMnetsValid,2021.1.4,MacIntel,111.1111111,,,,,,,,,,,,,,,,,,,,,,,,,,,,,,,,,,,,,,,,,,,,,,,,,,,,,,,,,,,,,,,,,,,,,,,,,,,,,,,,,,,,,,,,,
,,7,1.139,7,1.139,0,80,80,37,1,139,carrot,strawberry,,90419,001,2022-04-21_18h11.14.823,SPAMnetsValid,2021.1.4,MacIntel,111.1111111,,,,,,,,,,,,,,,,,,,,,,,,,,,,,,,,,,,,,,,,,,,,,,,,,,,,,,,,,,,,,,,,,,,,,,,,,,,,,,,,,,,,,,,,,
,,3,1.753,3,1.753,0,81,81,50,1,126,kitchen,tree,,90419,001,2022-04-21_18h11.14.823,SPAMnetsValid,2021.1.4,MacIntel,111.1111111,,,,,,,,,,,,,,,,,,,,,,,,,,,,,,,,,,,,,,,,,,,,,,,,,,,,,,,,,,,,,,,,,,,,,,,,,,,,,,,,,,,,,,,,,
,,3,0.983,3,0.983,0,82,82,16,1,111,carrot,microwave,,90419,001,2022-04-21_18h11.14.823,SPAMnetsValid,2021.1.4,MacIntel,111.1111111,,,,,,,,,,,,,,,,,,,,,,,,,,,,,,,,,,,,,,,,,,,,,,,,,,,,,,,,,,,,,,,,,,,,,,,,,,,,,,,,,,,,,,,,,
,,3,0.869,3,0.869,0,83,83,57,1,127,cactus,chocolate,,90419,001,2022-04-21_18h11.14.823,SPAMnetsValid,2021.1.4,MacIntel,111.1111111,,,,,,,,,,,,,,,,,,,,,,,,,,,,,,,,,,,,,,,,,,,,,,,,,,,,,,,,,,,,,,,,,,,,,,,,,,,,,,,,,,,,,,,,,
,,9,1.433,9,1.433,0,84,84,86,1,193,melon,melon,CHECK,90419,001,2022-04-21_18h11.14.823,SPAMnetsValid,2021.1.4,MacIntel,111.1111111,,,,,,,,,,,,,,,,,,,,,,,,,,,,,,,,,,,,,,,,,,,,,,,,,,,,,,,,,,,,,,,,,,,,,,,,,,,,,,,,,,,,,,,,,
,,7,3.022,7,3.022,0,85,85,18,1,119,strawberry,tree,,90419,001,2022-04-21_18h11.14.823,SPAMnetsValid,2021.1.4,MacIntel,111.1111111,,,,,,,,,,,,,,,,,,,,,,,,,,,,,,,,,,,,,,,,,,,,,,,,,,,,,,,,,,,,,,,,,,,,,,,,,,,,,,,,,,,,,,,,,
,,7,0.917,7,0.917,0,86,86,30,1,125,carrot,tree,,90419,001,2022-04-21_18h11.14.823,SPAMnetsValid,2021.1.4,MacIntel,111.1111111,,,,,,,,,,,,,,,,,,,,,,,,,,,,,,,,,,,,,,,,,,,,,,,,,,,,,,,,,,,,,,,,,,,,,,,,,,,,,,,,,,,,,,,,,
,,1,1.629,1,1.629,0,87,87,6,1,151,microwave,onion,,90419,001,2022-04-21_18h11.14.823,SPAMnetsValid,2021.1.4,MacIntel,111.1111111,,,,,,,,,,,,,,,,,,,,,,,,,,,,,,,,,,,,,,,,,,,,,,,,,,,,,,,,,,,,,,,,,,,,,,,,,,,,,,,,,,,,,,,,,
,,2,2.163,2,2.163,0,88,88,80,1,146,pretzel,tree,,90419,001,2022-04-21_18h11.14.823,SPAMnetsValid,2021.1.4,MacIntel,111.1111111,,,,,,,,,,,,,,,,,,,,,,,,,,,,,,,,,,,,,,,,,,,,,,,,,,,,,,,,,,,,,,,,,,,,,,,,,,,,,,,,,,,,,,,,,
,,7,1.576,7,1.576,0,89,89,52,1,110,chocolate,cookie,,90419,001,2022-04-21_18h11.14.823,SPAMnetsValid,2021.1.4,MacIntel,111.1111111,,,,,,,,,,,,,,,,,,,,,,,,,,,,,,,,,,,,,,,,,,,,,,,,,,,,,,,,,,,,,,,,,,,,,,,,,,,,,,,,,,,,,,,,,
,,1,2.279,1,2.279,0,90,90,63,1,137,microwave,tree,,90419,001,2022-04-21_18h11.14.823,SPAMnetsValid,2021.1.4,MacIntel,111.1111111,,,,,,,,,,,,,,,,,,,,,,,,,,,,,,,,,,,,,,,,,,,,,,,,,,,,,,,,,,,,,,,,,,,,,,,,,,,,,,,,,,,,,,,,,
,,1,1.692,1,1.692,0,91,91,12,1,162,microwave,tomato,,90419,001,2022-04-21_18h11.14.823,SPAMnetsValid,2021.1.4,MacIntel,111.1111111,,,,,,,,,,,,,,,,,,,,,,,,,,,,,,,,,,,,,,,,,,,,,,,,,,,,,,,,,,,,,,,,,,,,,,,,,,,,,,,,,,,,,,,,,
,,2,1.499,2,1.499,0,92,92,40,1,165,onion,rose,,90419,001,2022-04-21_18h11.14.823,SPAMnetsValid,2021.1.4,MacIntel,111.1111111,,,,,,,,,,,,,,,,,,,,,,,,,,,,,,,,,,,,,,,,,,,,,,,,,,,,,,,,,,,,,,,,,,,,,,,,,,,,,,,,,,,,,,,,,
,,8,1.963,8,1.963,0,93,93,66,1,150,microwave,refrigerator,,90419,001,2022-04-21_18h11.14.823,SPAMnetsValid,2021.1.4,MacIntel,111.1111111,,,,,,,,,,,,,,,,,,,,,,,,,,,,,,,,,,,,,,,,,,,,,,,,,,,,,,,,,,,,,,,,,,,,,,,,,,,,,,,,,,,,,,,,,
,,2,1.995,2,1.995,0,94,94,5,1,108,carrot,chocolate,,90419,001,2022-04-21_18h11.14.823,SPAMnetsValid,2021.1.4,MacIntel,111.1111111,,,,,,,,,,,,,,,,,,,,,,,,,,,,,,,,,,,,,,,,,,,,,,,,,,,,,,,,,,,,,,,,,,,,,,,,,,,,,,,,,,,,,,,,,
,,2,1.145,2,1.145,0,95,95,72,1,181,carrot,kitchen,,90419,001,2022-04-21_18h11.14.823,SPAMnetsValid,2021.1.4,MacIntel,111.1111111,,,,,,,,,,,,,,,,,,,,,,,,,,,,,,,,,,,,,,,,,,,,,,,,,,,,,,,,,,,,,,,,,,,,,,,,,,,,,,,,,,,,,,,,,
,,3,1.802,3,1.802,0,96,96,41,1,175,melon,onion,,90419,001,2022-04-21_18h11.14.823,SPAMnetsValid,2021.1.4,MacIntel,111.1111111,,,,,,,,,,,,,,,,,,,,,,,,,,,,,,,,,,,,,,,,,,,,,,,,,,,,,,,,,,,,,,,,,,,,,,,,,,,,,,,,,,,,,,,,,
,,,,,,,,,,,,,,,90419,001,2022-04-21_18h11.14.823,SPAMnetsValid,2021.1.4,MacIntel,111.1111111,0,0,0,0,1,,,,,,,,,,,,,,,,,,,,,,,,,,,,,,,,,,,,,,,,,,,,,,,,,,,,,,,,,,,,,,,,,,,,,,,,,,,,,,,,,,,,
,,,,,,,,,,,,,,,90419,001,2022-04-21_18h11.14.823,SPAMnetsValid,2021.1.4,MacIntel,111.1111111,,,,,,0,0,0,1,1,0,1,,,,,,,,,,,,,,,,,,,,,,,,,,,,,,,,,,,,,,,,,,,,,,,,,,,,,,,,,,,,,,,,,,,,,,,,,,,,,
,,,,3,2.264,,,,,,66,melon,yogurt,,90419,001,2022-04-21_18h11.14.823,SPAMnetsValid,2021.1.4,MacIntel,111.1111111,,,,,,,,,,,,,3,2.264,0,0,0,48,1,,,,,,,,,,,,,,,,,,,,,,,,,,,,,,,,,,,,,,,,,,,,,,,,,,,,,,,,,,,,,,,,,,,,,,
,,,,9,1.529,,,,,,192,microwave,microwave,CHECK,90419,001,2022-04-21_18h11.14.823,SPAMnetsValid,2021.1.4,MacIntel,111.1111111,,,,,,,,,,,,,9,1.529,0,1,1,53,1,,,,,,,,,,,,,,,,,,,,,,,,,,,,,,,,,,,,,,,,,,,,,,,,,,,,,,,,,,,,,,,,,,,,,,
,,,,2,1.541,,,,,,5,oven,tree,,90419,001,2022-04-21_18h11.14.823,SPAMnetsValid,2021.1.4,MacIntel,111.1111111,,,,,,,,,,,,,2,1.541,0,2,2,70,1,,,,,,,,,,,,,,,,,,,,,,,,,,,,,,,,,,,,,,,,,,,,,,,,,,,,,,,,,,,,,,,,,,,,,,
,,,,5,2.001,,,,,,95,broom,refrigerator,,90419,001,2022-04-21_18h11.14.823,SPAMnetsValid,2021.1.4,MacIntel,111.1111111,,,,,,,,,,,,,5,2.001,0,3,3,90,1,,,,,,,,,,,,,,,,,,,,,,,,,,,,,,,,,,,,,,,,,,,,,,,,,,,,,,,,,,,,,,,,,,,,,,
,,,,3,1.563,,,,,,40,broom,cake,,90419,001,2022-04-21_18h11.14.823,SPAMnetsValid,2021.1.4,MacIntel,111.1111111,,,,,,,,,,,,,3,1.563,0,4,4,32,1,,,,,,,,,,,,,,,,,,,,,,,,,,,,,,,,,,,,,,,,,,,,,,,,,,,,,,,,,,,,,,,,,,,,,,
,,,,3,0.839,,,,,,72,broom,onion,,90419,001,2022-04-21_18h11.14.823,SPAMnetsValid,2021.1.4,MacIntel,111.1111111,,,,,,,,,,,,,3,0.839,0,5,5,27,1,,,,,,,,,,,,,,,,,,,,,,,,,,,,,,,,,,,,,,,,,,,,,,,,,,,,,,,,,,,,,,,,,,,,,,
,,,,3,1.312,,,,,,90,cactus,cake,,90419,001,2022-04-21_18h11.14.823,SPAMnetsValid,2021.1.4,MacIntel,111.1111111,,,,,,,,,,,,,3,1.312,0,6,6,85,1,,,,,,,,,,,,,,,,,,,,,,,,,,,,,,,,,,,,,,,,,,,,,,,,,,,,,,,,,,,,,,,,,,,,,,
,,,,7,1.811,,,,,,60,cactus,onion,,90419,001,2022-04-21_18h11.14.823,SPAMnetsValid,2021.1.4,MacIntel,111.1111111,,,,,,,,,,,,,7,1.811,0,7,7,81,1,,,,,,,,,,,,,,,,,,,,,,,,,,,,,,,,,,,,,,,,,,,,,,,,,,,,,,,,,,,,,,,,,,,,,,
,,,,7,1.551,,,,,,82,cake,kitchen,,90419,001,2022-04-21_18h11.14.823,SPAMnetsValid,2021.1.4,MacIntel,111.1111111,,,,,,,,,,,,,7,1.551,0,8,8,96,1,,,,,,,,,,,,,,,,,,,,,,,,,,,,,,,,,,,,,,,,,,,,,,,,,,,,,,,,,,,,,,,,,,,,,,
,,,,2,1.584,,,,,,86,oven,rose,,90419,001,2022-04-21_18h11.14.823,SPAMnetsValid,2021.1.4,MacIntel,111.1111111,,,,,,,,,,,,,2,1.584,0,9,9,79,1,,,,,,,,,,,,,,,,,,,,,,,,,,,,,,,,,,,,,,,,,,,,,,,,,,,,,,,,,,,,,,,,,,,,,,
,,,,8,2.194,,,,,,3,cake,oven,,90419,001,2022-04-21_18h11.14.823,SPAMnetsValid,2021.1.4,MacIntel,111.1111111,,,,,,,,,,,,,8,2.194,0,10,10,30,1,,,,,,,,,,,,,,,,,,,,,,,,,,,,,,,,,,,,,,,,,,,,,,,,,,,,,,,,,,,,,,,,,,,,,,
,,,,2,1.31,,,,,,87,carrot,yogurt,,90419,001,2022-04-21_18h11.14.823,SPAMnetsValid,2021.1.4,MacIntel,111.1111111,,,,,,,,,,,,,2,1.31,0,11,11,6,1,,,,,,,,,,,,,,,,,,,,,,,,,,,,,,,,,,,,,,,,,,,,,,,,,,,,,,,,,,,,,,,,,,,,,,
,,,,2,19.312,,,,,,57,flower,kitchen,,90419,001,2022-04-21_18h11.14.823,SPAMnetsValid,2021.1.4,MacIntel,111.1111111,,,,,,,,,,,,,2,19.312,0,12,12,49,1,,,,,,,,,,,,,,,,,,,,,,,,,,,,,,,,,,,,,,,,,,,,,,,,,,,,,,,,,,,,,,,,,,,,,,
,,,,3,1.495,,,,,,19,microwave,pretzel,,90419,001,2022-04-21_18h11.14.823,SPAMnetsValid,2021.1.4,MacIntel,111.1111111,,,,,,,,,,,,,3,1.495,0,13,13,41,1,,,,,,,,,,,,,,,,,,,,,,,,,,,,,,,,,,,,,,,,,,,,,,,,,,,,,,,,,,,,,,,,,,,,,,
,,,,3,1.327,,,,,,74,broom,pretzel,,90419,001,2022-04-21_18h11.14.823,SPAMnetsValid,2021.1.4,MacIntel,111.1111111,,,,,,,,,,,,,3,1.327,0,14,14,40,1,,,,,,,,,,,,,,,,,,,,,,,,,,,,,,,,,,,,,,,,,,,,,,,,,,,,,,,,,,,,,,,,,,,,,,
,,,,3,3.106,,,,,,88,cactus,melon,,90419,001,2022-04-21_18h11.14.823,SPAMnetsValid,2021.1.4,MacIntel,111.1111111,,,,,,,,,,,,,3,3.106,0,15,15,38,1,,,,,,,,,,,,,,,,,,,,,,,,,,,,,,,,,,,,,,,,,,,,,,,,,,,,,,,,,,,,,,,,,,,,,,
,,,,6,3.992,,,,,,50,carrot,rose,,90419,001,2022-04-21_18h11.14.823,SPAMnetsValid,2021.1.4,MacIntel,111.1111111,,,,,,,,,,,,,6,3.992,0,16,16,73,1,,,,,,,,,,,,,,,,,,,,,,,,,,,,,,,,,,,,,,,,,,,,,,,,,,,,,,,,,,,,,,,,,,,,,,
,,,,2,1.98,,,,,,58,garden,oven,,90419,001,2022-04-21_18h11.14.823,SPAMnetsValid,2021.1.4,MacIntel,111.1111111,,,,,,,,,,,,,2,1.98,0,17,17,37,1,,,,,,,,,,,,,,,,,,,,,,,,,,,,,,,,,,,,,,,,,,,,,,,,,,,,,,,,,,,,,,,,,,,,,,
,,,,6,1.728,,,,,,55,tomato,tree,,90419,001,2022-04-21_18h11.14.823,SPAMnetsValid,2021.1.4,MacIntel,111.1111111,,,,,,,,,,,,,6,1.728,0,18,18,35,1,,,,,,,,,,,,,,,,,,,,,,,,,,,,,,,,,,,,,,,,,,,,,,,,,,,,,,,,,,,,,,,,,,,,,,
,,,,3,3.362,,,,,,85,cake,tree,,90419,001,2022-04-21_18h11.14.823,SPAMnetsValid,2021.1.4,MacIntel,111.1111111,,,,,,,,,,,,,3,3.362,0,19,19,18,1,,,,,,,,,,,,,,,,,,,,,,,,,,,,,,,,,,,,,,,,,,,,,,,,,,,,,,,,,,,,,,,,,,,,,,
,,,,3,2.718,,,,,,32,cake,microwave,,90419,001,2022-04-21_18h11.14.823,SPAMnetsValid,2021.1.4,MacIntel,111.1111111,,,,,,,,,,,,,3,2.718,0,20,20,33,1,,,,,,,,,,,,,,,,,,,,,,,,,,,,,,,,,,,,,,,,,,,,,,,,,,,,,,,,,,,,,,,,,,,,,,
,,,,7,1.748,,,,,,49,flower,strawberry,,90419,001,2022-04-21_18h11.14.823,SPAMnetsValid,2021.1.4,MacIntel,111.1111111,,,,,,,,,,,,,7,1.748,0,21,21,3,1,,,,,,,,,,,,,,,,,,,,,,,,,,,,,,,,,,,,,,,,,,,,,,,,,,,,,,,,,,,,,,,,,,,,,,
,,,,3,27.176,,,,,,14,broom,cookie,,90419,001,2022-04-21_18h11.14.823,SPAMnetsValid,2021.1.4,MacIntel,111.1111111,,,,,,,,,,,,,3,27.176,0,22,22,16,1,,,,,,,,,,,,,,,,,,,,,,,,,,,,,,,,,,,,,,,,,,,,,,,,,,,,,,,,,,,,,,,,,,,,,,
,,,,3,1.709,,,,,,8,broom,melon,,90419,001,2022-04-21_18h11.14.823,SPAMnetsValid,2021.1.4,MacIntel,111.1111111,,,,,,,,,,,,,3,1.709,0,23,23,59,1,,,,,,,,,,,,,,,,,,,,,,,,,,,,,,,,,,,,,,,,,,,,,,,,,,,,,,,,,,,,,,,,,,,,,,
,,,,2,2.396,,,,,,1,rose,yogurt,,90419,001,2022-04-21_18h11.14.823,SPAMnetsValid,2021.1.4,MacIntel,111.1111111,,,,,,,,,,,,,2,2.396,0,24,24,55,1,,,,,,,,,,,,,,,,,,,,,,,,,,,,,,,,,,,,,,,,,,,,,,,,,,,,,,,,,,,,,,,,,,,,,,
,,,,6,2.894,,,,,,51,onion,strawberry,,90419,001,2022-04-21_18h11.14.823,SPAMnetsValid,2021.1.4,MacIntel,111.1111111,,,,,,,,,,,,,6,2.894,0,25,25,86,1,,,,,,,,,,,,,,,,,,,,,,,,,,,,,,,,,,,,,,,,,,,,,,,,,,,,,,,,,,,,,,,,,,,,,,
,,,,7,1.876,,,,,,94,kitchen,microwave,,90419,001,2022-04-21_18h11.14.823,SPAMnetsValid,2021.1.4,MacIntel,111.1111111,,,,,,,,,,,,,7,1.876,0,26,26,58,1,,,,,,,,,,,,,,,,,,,,,,,,,,,,,,,,,,,,,,,,,,,,,,,,,,,,,,,,,,,,,,,,,,,,,,
,,,,6,2.26,,,,,,69,carrot,refrigerator,,90419,001,2022-04-21_18h11.14.823,SPAMnetsValid,2021.1.4,MacIntel,111.1111111,,,,,,,,,,,,,6,2.26,0,27,27,75,1,,,,,,,,,,,,,,,,,,,,,,,,,,,,,,,,,,,,,,,,,,,,,,,,,,,,,,,,,,,,,,,,,,,,,,
,,,,7,1.591,,,,,,4,chocolate,pretzel,,90419,001,2022-04-21_18h11.14.823,SPAMnetsValid,2021.1.4,MacIntel,111.1111111,,,,,,,,,,,,,7,1.591,0,28,28,52,1,,,,,,,,,,,,,,,,,,,,,,,,,,,,,,,,,,,,,,,,,,,,,,,,,,,,,,,,,,,,,,,,,,,,,,
,,,,3,2.13,,,,,,64,chocolate,garden,,90419,001,2022-04-21_18h11.14.823,SPAMnetsValid,2021.1.4,MacIntel,111.1111111,,,,,,,,,,,,,3,2.13,0,29,29,14,1,,,,,,,,,,,,,,,,,,,,,,,,,,,,,,,,,,,,,,,,,,,,,,,,,,,,,,,,,,,,,,,,,,,,,,
,,,,6,2.149,,,,,,10,flower,onion,,90419,001,2022-04-21_18h11.14.823,SPAMnetsValid,2021.1.4,MacIntel,111.1111111,,,,,,,,,,,,,6,2.149,0,30,30,45,1,,,,,,,,,,,,,,,,,,,,,,,,,,,,,,,,,,,,,,,,,,,,,,,,,,,,,,,,,,,,,,,,,,,,,,
,,,,3,3.645,,,,,,46,garden,yogurt,,90419,001,2022-04-21_18h11.14.823,SPAMnetsValid,2021.1.4,MacIntel,111.1111111,,,,,,,,,,,,,3,3.645,0,31,31,65,1,,,,,,,,,,,,,,,,,,,,,,,,,,,,,,,,,,,,,,,,,,,,,,,,,,,,,,,,,,,,,,,,,,,,,,
,,,,6,1.575,,,,,,2,kitchen,onion,,90419,001,2022-04-21_18h11.14.823,SPAMnetsValid,2021.1.4,MacIntel,111.1111111,,,,,,,,,,,,,6,1.575,0,32,32,91,1,,,,,,,,,,,,,,,,,,,,,,,,,,,,,,,,,,,,,,,,,,,,,,,,,,,,,,,,,,,,,,,,,,,,,,
,,,,6,1.467,,,,,,21,cake,onion,,90419,001,2022-04-21_18h11.14.823,SPAMnetsValid,2021.1.4,MacIntel,111.1111111,,,,,,,,,,,,,6,1.467,0,33,33,63,1,,,,,,,,,,,,,,,,,,,,,,,,,,,,,,,,,,,,,,,,,,,,,,,,,,,,,,,,,,,,,,,,,,,,,,
,,,,3,2.101,,,,,,35,flower,pretzel,,90419,001,2022-04-21_18h11.14.823,SPAMnetsValid,2021.1.4,MacIntel,111.1111111,,,,,,,,,,,,,3,2.101,0,34,34,26,1,,,,,,,,,,,,,,,,,,,,,,,,,,,,,,,,,,,,,,,,,,,,,,,,,,,,,,,,,,,,,,,,,,,,,,
,,,,7,6.075,,,,,,18,onion,refrigerator,,90419,001,2022-04-21_18h11.14.823,SPAMnetsValid,2021.1.4,MacIntel,111.1111111,,,,,,,,,,,,,7,6.075,0,35,35,62,1,,,,,,,,,,,,,,,,,,,,,,,,,,,,,,,,,,,,,,,,,,,,,,,,,,,,,,,,,,,,,,,,,,,,,,
,,,,2,1.501,,,,,,91,microwave,rose,,90419,001,2022-04-21_18h11.14.823,SPAMnetsValid,2021.1.4,MacIntel,111.1111111,,,,,,,,,,,,,2,1.501,0,36,36,84,1,,,,,,,,,,,,,,,,,,,,,,,,,,,,,,,,,,,,,,,,,,,,,,,,,,,,,,,,,,,,,,,,,,,,,,
,,,,3,1.415,,,,,,36,broom,kitchen,,90419,001,2022-04-21_18h11.14.823,SPAMnetsValid,2021.1.4,MacIntel,111.1111111,,,,,,,,,,,,,3,1.415,0,37,37,76,1,,,,,,,,,,,,,,,,,,,,,,,,,,,,,,,,,,,,,,,,,,,,,,,,,,,,,,,,,,,,,,,,,,,,,,
,,,,7,4.046,,,,,,25,carrot,onion,,90419,001,2022-04-21_18h11.14.823,SPAMnetsValid,2021.1.4,MacIntel,111.1111111,,,,,,,,,,,,,7,4.046,0,38,38,44,1,,,,,,,,,,,,,,,,,,,,,,,,,,,,,,,,,,,,,,,,,,,,,,,,,,,,,,,,,,,,,,,,,,,,,,
,,,,7,1.463,,,,,,68,flower,tomato,,90419,001,2022-04-21_18h11.14.823,SPAMnetsValid,2021.1.4,MacIntel,111.1111111,,,,,,,,,,,,,7,1.463,0,39,39,94,1,,,,,,,,,,,,,,,,,,,,,,,,,,,,,,,,,,,,,,,,,,,,,,,,,,,,,,,,,,,,,,,,,,,,,,
,,,,7,0.934,,,,,,81,pretzel,yogurt,,90419,001,2022-04-21_18h11.14.823,SPAMnetsValid,2021.1.4,MacIntel,111.1111111,,,,,,,,,,,,,7,0.934,0,40,40,50,1,,,,,,,,,,,,,,,,,,,,,,,,,,,,,,,,,,,,,,,,,,,,,,,,,,,,,,,,,,,,,,,,,,,,,,
,,,,2,1.613,,,,,,34,melon,oven,,90419,001,2022-04-21_18h11.14.823,SPAMnetsValid,2021.1.4,MacIntel,111.1111111,,,,,,,,,,,,,2,1.613,0,41,41,7,1,,,,,,,,,,,,,,,,,,,,,,,,,,,,,,,,,,,,,,,,,,,,,,,,,,,,,,,,,,,,,,,,,,,,,,
,,,,2,1.352,,,,,,37,garden,refrigerator,,90419,001,2022-04-21_18h11.14.823,SPAMnetsValid,2021.1.4,MacIntel,111.1111111,,,,,,,,,,,,,2,1.352,0,42,42,11,1,,,,,,,,,,,,,,,,,,,,,,,,,,,,,,,,,,,,,,,,,,,,,,,,,,,,,,,,,,,,,,,,,,,,,,
,,,,2,1.269,,,,,,23,flower,microwave,,90419,001,2022-04-21_18h11.14.823,SPAMnetsValid,2021.1.4,MacIntel,111.1111111,,,,,,,,,,,,,2,1.269,0,43,43,25,1,,,,,,,,,,,,,,,,,,,,,,,,,,,,,,,,,,,,,,,,,,,,,,,,,,,,,,,,,,,,,,,,,,,,,,
,,,,7,1.38,,,,,,61,strawberry,tomato,,90419,001,2022-04-21_18h11.14.823,SPAMnetsValid,2021.1.4,MacIntel,111.1111111,,,,,,,,,,,,,7,1.38,0,44,44,80,1,,,,,,,,,,,,,,,,,,,,,,,,,,,,,,,,,,,,,,,,,,,,,,,,,,,,,,,,,,,,,,,,,,,,,,
,,,,6,2.051,,,,,,26,tomato,yogurt,,90419,001,2022-04-21_18h11.14.823,SPAMnetsValid,2021.1.4,MacIntel,111.1111111,,,,,,,,,,,,,6,2.051,0,45,45,13,1,,,,,,,,,,,,,,,,,,,,,,,,,,,,,,,,,,,,,,,,,,,,,,,,,,,,,,,,,,,,,,,,,,,,,,
,,,,7,1.524,,,,,,47,onion,tomato,,90419,001,2022-04-21_18h11.14.823,SPAMnetsValid,2021.1.4,MacIntel,111.1111111,,,,,,,,,,,,,7,1.524,0,46,46,51,1,,,,,,,,,,,,,,,,,,,,,,,,,,,,,,,,,,,,,,,,,,,,,,,,,,,,,,,,,,,,,,,,,,,,,,
,,,,1,1.361,,,,,,13,broom,yogurt,,90419,001,2022-04-21_18h11.14.823,SPAMnetsValid,2021.1.4,MacIntel,111.1111111,,,,,,,,,,,,,1,1.361,0,47,47,5,1,,,,,,,,,,,,,,,,,,,,,,,,,,,,,,,,,,,,,,,,,,,,,,,,,,,,,,,,,,,,,,,,,,,,,,
,,,,1,1.348,,,,,,27,cactus,cookie,,90419,001,2022-04-21_18h11.14.823,SPAMnetsValid,2021.1.4,MacIntel,111.1111111,,,,,,,,,,,,,1,1.348,0,48,48,17,1,,,,,,,,,,,,,,,,,,,,,,,,,,,,,,,,,,,,,,,,,,,,,,,,,,,,,,,,,,,,,,,,,,,,,,
,,,,1,1.153,,,,,,73,broom,chocolate,,90419,001,2022-04-21_18h11.14.823,SPAMnetsValid,2021.1.4,MacIntel,111.1111111,,,,,,,,,,,,,1,1.153,0,49,49,47,1,,,,,,,,,,,,,,,,,,,,,,,,,,,,,,,,,,,,,,,,,,,,,,,,,,,,,,,,,,,,,,,,,,,,,,
,,,,1,1.002,,,,,,71,broom,rose,,90419,001,2022-04-21_18h11.14.823,SPAMnetsValid,2021.1.4,MacIntel,111.1111111,,,,,,,,,,,,,1,1.002,0,50,50,61,1,,,,,,,,,,,,,,,,,,,,,,,,,,,,,,,,,,,,,,,,,,,,,,,,,,,,,,,,,,,,,,,,,,,,,,
,,,,7,2.46,,,,,,77,refrigerator,yogurt,,90419,001,2022-04-21_18h11.14.823,SPAMnetsValid,2021.1.4,MacIntel,111.1111111,,,,,,,,,,,,,7,2.46,0,51,51,42,1,,,,,,,,,,,,,,,,,,,,,,,,,,,,,,,,,,,,,,,,,,,,,,,,,,,,,,,,,,,,,,,,,,,,,,
,,,,6,1.596,,,,,,45,onion,pretzel,,90419,001,2022-04-21_18h11.14.823,SPAMnetsValid,2021.1.4,MacIntel,111.1111111,,,,,,,,,,,,,6,1.596,0,52,52,69,1,,,,,,,,,,,,,,,,,,,,,,,,,,,,,,,,,,,,,,,,,,,,,,,,,,,,,,,,,,,,,,,,,,,,,,
,,,,3,1.512,,,,,,42,garden,kitchen,,90419,001,2022-04-21_18h11.14.823,SPAMnetsValid,2021.1.4,MacIntel,111.1111111,,,,,,,,,,,,,3,1.512,0,53,53,29,1,,,,,,,,,,,,,,,,,,,,,,,,,,,,,,,,,,,,,,,,,,,,,,,,,,,,,,,,,,,,,,,,,,,,,,
,,,,6,2.247,,,,,,30,cookie,pretzel,,90419,001,2022-04-21_18h11.14.823,SPAMnetsValid,2021.1.4,MacIntel,111.1111111,,,,,,,,,,,,,6,2.247,0,54,54,78,1,,,,,,,,,,,,,,,,,,,,,,,,,,,,,,,,,,,,,,,,,,,,,,,,,,,,,,,,,,,,,,,,,,,,,,
,,,,3,1.535,,,,,,67,flower,yogurt,,90419,001,2022-04-21_18h11.14.823,SPAMnetsValid,2021.1.4,MacIntel,111.1111111,,,,,,,,,,,,,3,1.535,0,55,55,12,1,,,,,,,,,,,,,,,,,,,,,,,,,,,,,,,,,,,,,,,,,,,,,,,,,,,,,,,,,,,,,,,,,,,,,,
,,,,6,1.655,,,,,,12,cookie,yogurt,,90419,001,2022-04-21_18h11.14.823,SPAMnetsValid,2021.1.4,MacIntel,111.1111111,,,,,,,,,,,,,6,1.655,0,56,56,36,1,,,,,,,,,,,,,,,,,,,,,,,,,,,,,,,,,,,,,,,,,,,,,,,,,,,,,,,,,,,,,,,,,,,,,,
,,,,6,1.11,,,,,,28,cake,melon,,90419,001,2022-04-21_18h11.14.823,SPAMnetsValid,2021.1.4,MacIntel,111.1111111,,,,,,,,,,,,,6,1.11,0,57,57,54,1,,,,,,,,,,,,,,,,,,,,,,,,,,,,,,,,,,,,,,,,,,,,,,,,,,,,,,,,,,,,,,,,,,,,,,
,,,,3,2.327,,,,,,92,broom,flower,,90419,001,2022-04-21_18h11.14.823,SPAMnetsValid,2021.1.4,MacIntel,111.1111111,,,,,,,,,,,,,3,2.327,0,58,58,88,1,,,,,,,,,,,,,,,,,,,,,,,,,,,,,,,,,,,,,,,,,,,,,,,,,,,,,,,,,,,,,,,,,,,,,,
,,,,7,2.634,,,,,,17,carrot,melon,,90419,001,2022-04-21_18h11.14.823,SPAMnetsValid,2021.1.4,MacIntel,111.1111111,,,,,,,,,,,,,7,2.634,0,59,59,24,1,,,,,,,,,,,,,,,,,,,,,,,,,,,,,,,,,,,,,,,,,,,,,,,,,,,,,,,,,,,,,,,,,,,,,,
,,,,7,1.411,,,,,,6,garden,onion,,90419,001,2022-04-21_18h11.14.823,SPAMnetsValid,2021.1.4,MacIntel,111.1111111,,,,,,,,,,,,,7,1.411,0,60,60,83,1,,,,,,,,,,,,,,,,,,,,,,,,,,,,,,,,,,,,,,,,,,,,,,,,,,,,,,,,,,,,,,,,,,,,,,
,,,,2,1.36,,,,,,48,flower,oven,,90419,001,2022-04-21_18h11.14.823,SPAMnetsValid,2021.1.4,MacIntel,111.1111111,,,,,,,,,,,,,2,1.36,0,61,61,15,1,,,,,,,,,,,,,,,,,,,,,,,,,,,,,,,,,,,,,,,,,,,,,,,,,,,,,,,,,,,,,,,,,,,,,,
,,,,7,2.041,,,,,,70,chocolate,onion,,90419,001,2022-04-21_18h11.14.823,SPAMnetsValid,2021.1.4,MacIntel,111.1111111,,,,,,,,,,,,,7,2.041,0,62,62,74,1,,,,,,,,,,,,,,,,,,,,,,,,,,,,,,,,,,,,,,,,,,,,,,,,,,,,,,,,,,,,,,,,,,,,,,
,,,,6,6.53,,,,,,24,cookie,tomato,,90419,001,2022-04-21_18h11.14.823,SPAMnetsValid,2021.1.4,MacIntel,111.1111111,,,,,,,,,,,,,6,6.53,0,63,63,68,1,,,,,,,,,,,,,,,,,,,,,,,,,,,,,,,,,,,,,,,,,,,,,,,,,,,,,,,,,,,,,,,,,,,,,,
,,,,3,2.14,,,,,,53,garden,pretzel,,90419,001,2022-04-21_18h11.14.823,SPAMnetsValid,2021.1.4,MacIntel,111.1111111,,,,,,,,,,,,,3,2.14,0,64,64,0,1,,,,,,,,,,,,,,,,,,,,,,,,,,,,,,,,,,,,,,,,,,,,,,,,,,,,,,,,,,,,,,,,,,,,,,
,,,,6,2.01,,,,,,7,melon,tree,,90419,001,2022-04-21_18h11.14.823,SPAMnetsValid,2021.1.4,MacIntel,111.1111111,,,,,,,,,,,,,6,2.01,0,65,65,77,1,,,,,,,,,,,,,,,,,,,,,,,,,,,,,,,,,,,,,,,,,,,,,,,,,,,,,,,,,,,,,,,,,,,,,,
,,,,7,3.64,,,,,,52,carrot,tomato,,90419,001,2022-04-21_18h11.14.823,SPAMnetsValid,2021.1.4,MacIntel,111.1111111,,,,,,,,,,,,,7,3.64,0,66,66,95,1,,,,,,,,,,,,,,,,,,,,,,,,,,,,,,,,,,,,,,,,,,,,,,,,,,,,,,,,,,,,,,,,,,,,,,
,,,,3,1.776,,,,,,65,broom,garden,,90419,001,2022-04-21_18h11.14.823,SPAMnetsValid,2021.1.4,MacIntel,111.1111111,,,,,,,,,,,,,3,1.776,0,67,67,23,1,,,,,,,,,,,,,,,,,,,,,,,,,,,,,,,,,,,,,,,,,,,,,,,,,,,,,,,,,,,,,,,,,,,,,,
,,,,6,1.969,,,,,,75,cookie,onion,,90419,001,2022-04-21_18h11.14.823,SPAMnetsValid,2021.1.4,MacIntel,111.1111111,,,,,,,,,,,,,6,1.969,0,68,68,9,1,,,,,,,,,,,,,,,,,,,,,,,,,,,,,,,,,,,,,,,,,,,,,,,,,,,,,,,,,,,,,,,,,,,,,,
,,,,3,1.223,,,,,,93,kitchen,oven,,90419,001,2022-04-21_18h11.14.823,SPAMnetsValid,2021.1.4,MacIntel,111.1111111,,,,,,,,,,,,,3,1.223,0,69,69,82,1,,,,,,,,,,,,,,,,,,,,,,,,,,,,,,,,,,,,,,,,,,,,,,,,,,,,,,,,,,,,,,,,,,,,,,
,,,,6,4.284,,,,,,39,melon,pretzel,,90419,001,2022-04-21_18h11.14.823,SPAMnetsValid,2021.1.4,MacIntel,111.1111111,,,,,,,,,,,,,6,4.284,0,70,70,20,1,,,,,,,,,,,,,,,,,,,,,,,,,,,,,,,,,,,,,,,,,,,,,,,,,,,,,,,,,,,,,,,,,,,,,,
,,,,3,4.811,,,,,,83,broom,carrot,,90419,001,2022-04-21_18h11.14.823,SPAMnetsValid,2021.1.4,MacIntel,111.1111111,,,,,,,,,,,,,3,4.811,0,71,71,4,1,,,,,,,,,,,,,,,,,,,,,,,,,,,,,,,,,,,,,,,,,,,,,,,,,,,,,,,,,,,,,,,,,,,,,,
,,,,8,2.024,,,,,,76,garden,rose,,90419,001,2022-04-21_18h11.14.823,SPAMnetsValid,2021.1.4,MacIntel,111.1111111,,,,,,,,,,,,,8,2.024,0,72,72,19,1,,,,,,,,,,,,,,,,,,,,,,,,,,,,,,,,,,,,,,,,,,,,,,,,,,,,,,,,,,,,,,,,,,,,,,
,,,,2,1.926,,,,,,43,chocolate,tomato,,90419,001,2022-04-21_18h11.14.823,SPAMnetsValid,2021.1.4,MacIntel,111.1111111,,,,,,,,,,,,,2,1.926,0,73,73,8,1,,,,,,,,,,,,,,,,,,,,,,,,,,,,,,,,,,,,,,,,,,,,,,,,,,,,,,,,,,,,,,,,,,,,,,
,,,,9,1.844,,,,,,191,cake,cake,CHECK,90419,001,2022-04-21_18h11.14.823,SPAMnetsValid,2021.1.4,MacIntel,111.1111111,,,,,,,,,,,,,9,1.844,0,74,74,10,1,,,,,,,,,,,,,,,,,,,,,,,,,,,,,,,,,,,,,,,,,,,,,,,,,,,,,,,,,,,,,,,,,,,,,,
,,,,3,1.703,,,,,,62,kitchen,rose,,90419,001,2022-04-21_18h11.14.823,SPAMnetsValid,2021.1.4,MacIntel,111.1111111,,,,,,,,,,,,,3,1.703,0,75,75,57,1,,,,,,,,,,,,,,,,,,,,,,,,,,,,,,,,,,,,,,,,,,,,,,,,,,,,,,,,,,,,,,,,,,,,,,
,,,,2,1.236,,,,,,31,cactus,pretzel,,90419,001,2022-04-21_18h11.14.823,SPAMnetsValid,2021.1.4,MacIntel,111.1111111,,,,,,,,,,,,,2,1.236,0,76,76,1,1,,,,,,,,,,,,,,,,,,,,,,,,,,,,,,,,,,,,,,,,,,,,,,,,,,,,,,,,,,,,,,,,,,,,,,
,,,,8,1.864,,,,,,59,rose,strawberry,,90419,001,2022-04-21_18h11.14.823,SPAMnetsValid,2021.1.4,MacIntel,111.1111111,,,,,,,,,,,,,8,1.864,0,77,77,72,1,,,,,,,,,,,,,,,,,,,,,,,,,,,,,,,,,,,,,,,,,,,,,,,,,,,,,,,,,,,,,,,,,,,,,,
,,,,7,1.2,,,,,,54,chocolate,yogurt,,90419,001,2022-04-21_18h11.14.823,SPAMnetsValid,2021.1.4,MacIntel,111.1111111,,,,,,,,,,,,,7,1.2,0,78,78,67,1,,,,,,,,,,,,,,,,,,,,,,,,,,,,,,,,,,,,,,,,,,,,,,,,,,,,,,,,,,,,,,,,,,,,,,
,,,,3,2.369,,,,,,84,oven,tomato,,90419,001,2022-04-21_18h11.14.823,SPAMnetsValid,2021.1.4,MacIntel,111.1111111,,,,,,,,,,,,,3,2.369,0,79,79,28,1,,,,,,,,,,,,,,,,,,,,,,,,,,,,,,,,,,,,,,,,,,,,,,,,,,,,,,,,,,,,,,,,,,,,,,
,,,,3,4.478,,,,,,41,broom,cactus,,90419,001,2022-04-21_18h11.14.823,SPAMnetsValid,2021.1.4,MacIntel,111.1111111,,,,,,,,,,,,,3,4.478,0,80,80,46,1,,,,,,,,,,,,,,,,,,,,,,,,,,,,,,,,,,,,,,,,,,,,,,,,,,,,,,,,,,,,,,,,,,,,,,
,,,,7,4.378,,,,,,20,rose,tree,,90419,001,2022-04-21_18h11.14.823,SPAMnetsValid,2021.1.4,MacIntel,111.1111111,,,,,,,,,,,,,7,4.378,0,81,81,66,1,,,,,,,,,,,,,,,,,,,,,,,,,,,,,,,,,,,,,,,,,,,,,,,,,,,,,,,,,,,,,,,,,,,,,,
,,,,2,4.053,,,,,,11,refrigerator,tree,,90419,001,2022-04-21_18h11.14.823,SPAMnetsValid,2021.1.4,MacIntel,111.1111111,,,,,,,,,,,,,2,4.053,0,82,82,43,1,,,,,,,,,,,,,,,,,,,,,,,,,,,,,,,,,,,,,,,,,,,,,,,,,,,,,,,,,,,,,,,,,,,,,,
,,,,4,1.596,,,,,,15,onion,oven,,90419,001,2022-04-21_18h11.14.823,SPAMnetsValid,2021.1.4,MacIntel,111.1111111,,,,,,,,,,,,,4,1.596,0,83,83,39,1,,,,,,,,,,,,,,,,,,,,,,,,,,,,,,,,,,,,,,,,,,,,,,,,,,,,,,,,,,,,,,,,,,,,,,
,,,,4,2.459,,,,,,89,chocolate,rose,,90419,001,2022-04-21_18h11.14.823,SPAMnetsValid,2021.1.4,MacIntel,111.1111111,,,,,,,,,,,,,4,2.459,0,84,84,60,1,,,,,,,,,,,,,,,,,,,,,,,,,,,,,,,,,,,,,,,,,,,,,,,,,,,,,,,,,,,,,,,,,,,,,,
,,,,2,1.928,,,,,,78,cookie,rose,,90419,001,2022-04-21_18h11.14.823,SPAMnetsValid,2021.1.4,MacIntel,111.1111111,,,,,,,,,,,,,2,1.928,0,85,85,56,1,,,,,,,,,,,,,,,,,,,,,,,,,,,,,,,,,,,,,,,,,,,,,,,,,,,,,,,,,,,,,,,,,,,,,,
,,,,6,1.657,,,,,,22,kitchen,strawberry,,90419,001,2022-04-21_18h11.14.823,SPAMnetsValid,2021.1.4,MacIntel,111.1111111,,,,,,,,,,,,,6,1.657,0,86,86,2,1,,,,,,,,,,,,,,,,,,,,,,,,,,,,,,,,,,,,,,,,,,,,,,,,,,,,,,,,,,,,,,,,,,,,,,
,,,,7,1.069,,,,,,9,kitchen,refrigerator,,90419,001,2022-04-21_18h11.14.823,SPAMnetsValid,2021.1.4,MacIntel,111.1111111,,,,,,,,,,,,,7,1.069,0,87,87,64,1,,,,,,,,,,,,,,,,,,,,,,,,,,,,,,,,,,,,,,,,,,,,,,,,,,,,,,,,,,,,,,,,,,,,,,
,,,,8,1.791,,,,,,63,cake,cookie,,90419,001,2022-04-21_18h11.14.823,SPAMnetsValid,2021.1.4,MacIntel,111.1111111,,,,,,,,,,,,,8,1.791,0,88,88,93,1,,,,,,,,,,,,,,,,,,,,,,,,,,,,,,,,,,,,,,,,,,,,,,,,,,,,,,,,,,,,,,,,,,,,,,
,,,,7,3.023,,,,,,56,cactus,tree,,90419,001,2022-04-21_18h11.14.823,SPAMnetsValid,2021.1.4,MacIntel,111.1111111,,,,,,,,,,,,,7,3.023,0,89,89,21,1,,,,,,,,,,,,,,,,,,,,,,,,,,,,,,,,,,,,,,,,,,,,,,,,,,,,,,,,,,,,,,,,,,,,,,
,,,,6,1.424,,,,,,29,chocolate,melon,,90419,001,2022-04-21_18h11.14.823,SPAMnetsValid,2021.1.4,MacIntel,111.1111111,,,,,,,,,,,,,6,1.424,0,90,90,34,1,,,,,,,,,,,,,,,,,,,,,,,,,,,,,,,,,,,,,,,,,,,,,,,,,,,,,,,,,,,,,,,,,,,,,,
,,,,2,9.344,,,,,,80,chocolate,tree,,90419,001,2022-04-21_18h11.14.823,SPAMnetsValid,2021.1.4,MacIntel,111.1111111,,,,,,,,,,,,,2,9.344,0,91,91,89,1,,,,,,,,,,,,,,,,,,,,,,,,,,,,,,,,,,,,,,,,,,,,,,,,,,,,,,,,,,,,,,,,,,,,,,
,,,,7,6.66,,,,,,79,garden,strawberry,,90419,001,2022-04-21_18h11.14.823,SPAMnetsValid,2021.1.4,MacIntel,111.1111111,,,,,,,,,,,,,7,6.66,0,92,92,87,1,,,,,,,,,,,,,,,,,,,,,,,,,,,,,,,,,,,,,,,,,,,,,,,,,,,,,,,,,,,,,,,,,,,,,,
,,,,3,12.619,,,,,,33,oven,yogurt,,90419,001,2022-04-21_18h11.14.823,SPAMnetsValid,2021.1.4,MacIntel,111.1111111,,,,,,,,,,,,,3,12.619,0,93,93,31,1,,,,,,,,,,,,,,,,,,,,,,,,,,,,,,,,,,,,,,,,,,,,,,,,,,,,,,,,,,,,,,,,,,,,,,
,,,,6,16.75,,,,,,44,cookie,melon,,90419,001,2022-04-21_18h11.14.823,SPAMnetsValid,2021.1.4,MacIntel,111.1111111,,,,,,,,,,,,,6,16.75,0,94,94,92,1,,,,,,,,,,,,,,,,,,,,,,,,,,,,,,,,,,,,,,,,,,,,,,,,,,,,,,,,,,,,,,,,,,,,,,
,,,,3,16.767,,,,,,16,chocolate,flower,,90419,001,2022-04-21_18h11.14.823,SPAMnetsValid,2021.1.4,MacIntel,111.1111111,,,,,,,,,,,,,3,16.767,0,95,95,22,1,,,,,,,,,,,,,,,,,,,,,,,,,,,,,,,,,,,,,,,,,,,,,,,,,,,,,,,,,,,,,,,,,,,,,,
,,,,4,2.82,,,,,,38,pretzel,refrigerator,,90419,001,2022-04-21_18h11.14.823,SPAMnetsValid,2021.1.4,MacIntel,111.1111111,,,,,,,,,,,,,4,2.82,0,96,96,71,1,,,,,,,,,,,,,,,,,,,,,,,,,,,,,,,,,,,,,,,,,,,,,,,,,,,,,,,,,,,,,,,,,,,,,,
,,,,,,,,,,,,,,,90419,001,2022-04-21_18h11.14.823,SPAMnetsValid,2021.1.4,MacIntel,111.1111111,,,,,,,,,,,,,,,,,,,,0,0,0,0,1,,,,,,,,,,,,,,,,,,,,,,,,,,,,,,,,,,,,,,,,,,,,,,,,,,,,,,,,,,,,,,,,,
,,,,,,,,,,,,,,,90419,001,2022-04-21_18h11.14.823,SPAMnetsValid,2021.1.4,MacIntel,111.1111111,,,,,,0,1,1,0,1,1,0,,,,,,,,,,,,,,,,,,,,,,,,,,,,,,,,,,,,,,,,,,,,,,,,,,,,,,,,,,,,,,,,,,,,,,,,,,,,,
,,,,,,,,,,,,,,,90419,001,2022-04-21_18h11.14.823,SPAMnetsValid,2021.1.4,MacIntel,111.1111111,,,,,,,,,,,,,,,,,,,,,,,,,3,11.879,0,0,0,0,1,rancor,forbearance,ridicule,malice,bravery,3,,,,,,,,,,,,,,,,,,,,,,,,,,,,,,,,,,,,,,,,,,,,,,,,,,,,
,,,,,,,,,,,,,,,90419,001,2022-04-21_18h11.14.823,SPAMnetsValid,2021.1.4,MacIntel,111.1111111,,,,,,,,,,,,,,,,,,,,,,,,,4,13.593,0,1,1,1,1,raucous,empty,quiet,smooth,harsh,4,,,,,,,,,,,,,,,,,,,,,,,,,,,,,,,,,,,,,,,,,,,,,,,,,,,,
,,,,,,,,,,,,,,,90419,001,2022-04-21_18h11.14.823,SPAMnetsValid,2021.1.4,MacIntel,111.1111111,,,,,,,,,,,,,,,,,,,,,,,,,3,3.679,0,2,2,2,1,gargoyle,oil,medicine,carved waterspout,ugly building,3,,,,,,,,,,,,,,,,,,,,,,,,,,,,,,,,,,,,,,,,,,,,,,,,,,,,
,,,,,,,,,,,,,,,90419,001,2022-04-21_18h11.14.823,SPAMnetsValid,2021.1.4,MacIntel,111.1111111,,,,,,,,,,,,,,,,,,,,,,,,,3,12.111,0,3,3,3,1,recrudesce,purify,renew activity,lack refinement,crush,2,,,,,,,,,,,,,,,,,,,,,,,,,,,,,,,,,,,,,,,,,,,,,,,,,,,,
,,,,,,,,,,,,,,,90419,001,2022-04-21_18h11.14.823,SPAMnetsValid,2021.1.4,MacIntel,111.1111111,,,,,,,,,,,,,,,,,,,,,,,,,3,4.761,0,4,4,4,1,specious,"plausible, but not genuine",noteworthy,class or variety,roomy,1,,,,,,,,,,,,,,,,,,,,,,,,,,,,,,,,,,,,,,,,,,,,,,,,,,,,
,,,,,,,,,,,,,,,90419,001,2022-04-21_18h11.14.823,SPAMnetsValid,2021.1.4,MacIntel,111.1111111,,,,,,,,,,,,,,,,,,,,,,,,,4,7.384,0,5,5,5,1,bauble,bubble,showy plaything,idle talk,confusion,2,,,,,,,,,,,,,,,,,,,,,,,,,,,,,,,,,,,,,,,,,,,,,,,,,,,,
,,,,,,,,,,,,,,,90419,001,2022-04-21_18h11.14.823,SPAMnetsValid,2021.1.4,MacIntel,111.1111111,,,,,,,,,,,,,,,,,,,,,,,,,2,6.043,0,6,6,6,1,prolific,scarce,producing abundantly,reckless,speaking profanely,2,,,,,,,,,,,,,,,,,,,,,,,,,,,,,,,,,,,,,,,,,,,,,,,,,,,,
,,,,,,,,,,,,,,,90419,001,2022-04-21_18h11.14.823,SPAMnetsValid,2021.1.4,MacIntel,111.1111111,,,,,,,,,,,,,,,,,,,,,,,,,2,1.779,0,7,7,7,1,opulent,party,wealthy,happy frame of mind,semiprecious stone,2,,,,,,,,,,,,,,,,,,,,,,,,,,,,,,,,,,,,,,,,,,,,,,,,,,,,
,,,,,,,,,,,,,,,90419,001,2022-04-21_18h11.14.823,SPAMnetsValid,2021.1.4,MacIntel,111.1111111,,,,,,,,,,,,,,,,,,,,,,,,,2,4.012,0,8,8,8,1,coercion,conspiracy,strategy,restraint,attraction,3,,,,,,,,,,,,,,,,,,,,,,,,,,,,,,,,,,,,,,,,,,,,,,,,,,,,
,,,,,,,,,,,,,,,90419,001,2022-04-21_18h11.14.823,SPAMnetsValid,2021.1.4,MacIntel,111.1111111,,,,,,,,,,,,,,,,,,,,,,,,,4,3.561,0,9,9,9,1,hiatus,animal,calamity,dread,gap,4,,,,,,,,,,,,,,,,,,,,,,,,,,,,,,,,,,,,,,,,,,,,,,,,,,,,
,,,,,,,,,,,,,,,90419,001,2022-04-21_18h11.14.823,SPAMnetsValid,2021.1.4,MacIntel,111.1111111,,,,,,,,,,,,,,,,,,,,,,,,,4,8.816,0,10,10,10,1,germane,microbe,contagious,relevant,different,3,,,,,,,,,,,,,,,,,,,,,,,,,,,,,,,,,,,,,,,,,,,,,,,,,,,,
,,,,,,,,,,,,,,,90419,001,2022-04-21_18h11.14.823,SPAMnetsValid,2021.1.4,MacIntel,111.1111111,,,,,,,,,,,,,,,,,,,,,,,,,1,4.489,0,11,11,11,1,perfunctory,fundamental,formal,superficial,careful,3,,,,,,,,,,,,,,,,,,,,,,,,,,,,,,,,,,,,,,,,,,,,,,,,,,,,
,,,,,,,,,,,,,,,90419,001,2022-04-21_18h11.14.823,SPAMnetsValid,2021.1.4,MacIntel,111.1111111,,,,,,,,,,,,,,,,,,,,,,,,,4,2.802,0,12,12,12,1,diverge,reveal,chant,distract the attention of,differ or turn off from,4,,,,,,,,,,,,,,,,,,,,,,,,,,,,,,,,,,,,,,,,,,,,,,,,,,,,
,,,,,,,,,,,,,,,90419,001,2022-04-21_18h11.14.823,SPAMnetsValid,2021.1.4,MacIntel,111.1111111,,,,,,,,,,,,,,,,,,,,,,,,,4,2.074,0,13,13,13,1,evoke,take away,anger,connect,bring out,4,,,,,,,,,,,,,,,,,,,,,,,,,,,,,,,,,,,,,,,,,,,,,,,,,,,,
,,,,,,,,,,,,,,,90419,001,2022-04-21_18h11.14.823,SPAMnetsValid,2021.1.4,MacIntel,111.1111111,,,,,,,,,,,,,,,,,,,,,,,,,3,2.159,0,14,14,14,1,pertinent,relevant,lying next to,necessary,bold,1,,,,,,,,,,,,,,,,,,,,,,,,,,,,,,,,,,,,,,,,,,,,,,,,,,,,
,,,,,,,,,,,,,,,90419,001,2022-04-21_18h11.14.823,SPAMnetsValid,2021.1.4,MacIntel,111.1111111,,,,,,,,,,,,,,,,,,,,,,,,,2,2.827,0,15,15,15,1,holocaust,entirety,destruction,saintly,price,2,,,,,,,,,,,,,,,,,,,,,,,,,,,,,,,,,,,,,,,,,,,,,,,,,,,,
,,,,,,,,,,,,,,,90419,001,2022-04-21_18h11.14.823,SPAMnetsValid,2021.1.4,MacIntel,111.1111111,,,,,,,,,,,,,,,,,,,,,,,,,3,2.924,0,16,16,16,1,piquant,mellow,fish,pungent,cloth,3,,,,,,,,,,,,,,,,,,,,,,,,,,,,,,,,,,,,,,,,,,,,,,,,,,,,
,,,,,,,,,,,,,,,90419,001,2022-04-21_18h11.14.823,SPAMnetsValid,2021.1.4,MacIntel,111.1111111,,,,,,,,,,,,,,,,,,,,,,,,,1,4.268,0,17,17,17,1,firmament,foundation,heavens,strong,glue,2,,,,,,,,,,,,,,,,,,,,,,,,,,,,,,,,,,,,,,,,,,,,,,,,,,,,
,,,,,,,,,,,,,,,90419,001,2022-04-21_18h11.14.823,SPAMnetsValid,2021.1.4,MacIntel,111.1111111,,,,,,,,,,,,,,,,,,,,,,,,,,,,,,,,,,,,,,4,3.199,0,0,0,0,1,marketable,partisan,jocular,marriageable,salable,essential,4,,,,,,,,,,,,,,,,,,,,,,,,,,,,,,,,,,,,,,
,,,,,,,,,,,,,,,90419,001,2022-04-21_18h11.14.823,SPAMnetsValid,2021.1.4,MacIntel,111.1111111,,,,,,,,,,,,,,,,,,,,,,,,,,,,,,,,,,,,,,5,2.336,0,1,1,1,1,cottontail,squirrel,poplar,boa,marshy plant,rabbit,5,,,,,,,,,,,,,,,,,,,,,,,,,,,,,,,,,,,,,,
,,,,,,,,,,,,,,,90419,001,2022-04-21_18h11.14.823,SPAMnetsValid,2021.1.4,MacIntel,111.1111111,,,,,,,,,,,,,,,,,,,,,,,,,,,,,,,,,,,,,,3,4.026,0,2,2,2,1,boggy,afraid,false,marshy,dense,black,3,,,,,,,,,,,,,,,,,,,,,,,,,,,,,,,,,,,,,,
,,,,,,,,,,,,,,,90419,001,2022-04-21_18h11.14.823,SPAMnetsValid,2021.1.4,MacIntel,111.1111111,,,,,,,,,,,,,,,,,,,,,,,,,,,,,,,,,,,,,,5,3.577,0,3,3,3,1,gruesomeness,blackness,falseness,vindictiveness,drunkenness,ghastliness,5,,,,,,,,,,,,,,,,,,,,,,,,,,,,,,,,,,,,,,
,,,,,,,,,,,,,,,90419,001,2022-04-21_18h11.14.823,SPAMnetsValid,2021.1.4,MacIntel,111.1111111,,,,,,,,,,,,,,,,,,,,,,,,,,,,,,,,,,,,,,3,2.591,0,4,4,4,1,loathing,diffidence,laziness,abhorrence,cleverness,comfort,3,,,,,,,,,,,,,,,,,,,,,,,,,,,,,,,,,,,,,,
,,,,,,,,,,,,,,,90419,001,2022-04-21_18h11.14.823,SPAMnetsValid,2021.1.4,MacIntel,111.1111111,,,,,,,,,,,,,,,,,,,,,,,,,,,,,,,,,,,,,,1,5.443,0,5,5,5,1,bantam,fowl,ridicule,cripple,vegetable,ensign,1,,,,,,,,,,,,,,,,,,,,,,,,,,,,,,,,,,,,,,
,,,,,,,,,,,,,,,90419,001,2022-04-21_18h11.14.823,SPAMnetsValid,2021.1.4,MacIntel,111.1111111,,,,,,,,,,,,,,,,,,,,,,,,,,,,,,,,,,,,,,5,2.059,0,6,6,6,1,evoke,wake up,surrender,reconnoiter,transcend,call forth,5,,,,,,,,,,,,,,,,,,,,,,,,,,,,,,,,,,,,,,
,,,,,,,,,,,,,,,90419,001,2022-04-21_18h11.14.823,SPAMnetsValid,2021.1.4,MacIntel,111.1111111,,,,,,,,,,,,,,,,,,,,,,,,,,,,,,,,,,,,,,5,7.72,0,7,7,7,1,unobtrusive,unintelligent,epileptic,illogical,lineal,modest,5,,,,,,,,,,,,,,,,,,,,,,,,,,,,,,,,,,,,,,
,,,,,,,,,,,,,,,90419,001,2022-04-21_18h11.14.823,SPAMnetsValid,2021.1.4,MacIntel,111.1111111,,,,,,,,,,,,,,,,,,,,,,,,,,,,,,,,,,,,,,4,3.111,0,8,8,8,1,terrain,ice cream,final test,tractor,area of ground,weight,4,,,,,,,,,,,,,,,,,,,,,,,,,,,,,,,,,,,,,,
,,,,,,,,,,,,,,,90419,001,2022-04-21_18h11.14.823,SPAMnetsValid,2021.1.4,MacIntel,111.1111111,,,,,,,,,,,,,,,,,,,,,,,,,,,,,,,,,,,,,,1,4.56,0,9,9,9,1,capriciousness,stubbornness,courage,whimsicality,amazement,greediness,3,,,,,,,,,,,,,,,,,,,,,,,,,,,,,,,,,,,,,,
,,,,,,,,,,,,,,,90419,001,2022-04-21_18h11.14.823,SPAMnetsValid,2021.1.4,MacIntel,111.1111111,,,,,,,,,,,,,,,,,,,,,,,,,,,,,,,,,,,,,,2,13.65,0,10,10,10,1,maelstrom,slander,whirlpool,enmity,armor,majolica,2,,,,,,,,,,,,,,,,,,,,,,,,,,,,,,,,,,,,,,
,,,,,,,,,,,,,,,90419,001,2022-04-21_18h11.14.823,SPAMnetsValid,2021.1.4,MacIntel,111.1111111,,,,,,,,,,,,,,,,,,,,,,,,,,,,,,,,,,,,,,5,8.081,0,11,11,11,1,tentative,critical,conclusive,authentic,provisional,apprehensive,4,,,,,,,,,,,,,,,,,,,,,,,,,,,,,,,,,,,,,,
,,,,,,,,,,,,,,,90419,001,2022-04-21_18h11.14.823,SPAMnetsValid,2021.1.4,MacIntel,111.1111111,,,,,,,,,,,,,,,,,,,,,,,,,,,,,,,,,,,,,,4,3.991,0,12,12,12,1,placate,rehabilitate,plagiarize,depredate,apprise,conciliate,5,,,,,,,,,,,,,,,,,,,,,,,,,,,,,,,,,,,,,,
,,,,,,,,,,,,,,,90419,001,2022-04-21_18h11.14.823,SPAMnetsValid,2021.1.4,MacIntel,111.1111111,,,,,,,,,,,,,,,,,,,,,,,,,,,,,,,,,,,,,,2,6.424,0,13,13,13,1,surcease,enlightenment,cessation,inattention,censor,substitution,2,,,,,,,,,,,,,,,,,,,,,,,,,,,,,,,,,,,,,,
,,,,,,,,,,,,,,,90419,001,2022-04-21_18h11.14.823,SPAMnetsValid,2021.1.4,MacIntel,111.1111111,,,,,,,,,,,,,,,,,,,,,,,,,,,,,,,,,,,,,,2,2.743,0,14,14,14,1,apathetic,wandering,impassive,hateful,prophetic,overflowing,2,,,,,,,,,,,,,,,,,,,,,,,,,,,,,,,,,,,,,,
,,,,,,,,,,,,,,,90419,001,2022-04-21_18h11.14.823,SPAMnetsValid,2021.1.4,MacIntel,111.1111111,,,,,,,,,,,,,,,,,,,,,,,,,,,,,,,,,,,,,,1,4.995,0,15,15,15,1,paternoster,paternalism,patricide,malediction,benediction,prayer,5,,,,,,,,,,,,,,,,,,,,,,,,,,,,,,,,,,,,,,
,,,,,,,,,,,,,,,90419,001,2022-04-21_18h11.14.823,SPAMnetsValid,2021.1.4,MacIntel,111.1111111,,,,,,,,,,,,,,,,,,,,,,,,,,,,,,,,,,,,,,4,4.014,0,16,16,16,1,opalescence,opulence,senescence,bankruptcy,iridescence,assiduity,4,,,,,,,,,,,,,,,,,,,,,,,,,,,,,,,,,,,,,,
,,,,,,,,,,,,,,,90419,001,2022-04-21_18h11.14.823,SPAMnetsValid,2021.1.4,MacIntel,111.1111111,,,,,,,,,,,,,,,,,,,,,,,,,,,,,,,,,,,,,,2,3.085,0,17,17,17,1,lush,stupid,luxurious,hazy,putrid,languishing,2,,,,,,,,,,,,,,,,,,,,,,,,,,,,,,,,,,,,,,
,,,,,,,,,,,,,,,90419,001,2022-04-21_18h11.14.823,SPAMnetsValid,2021.1.4,MacIntel,111.1111111,,,,,,,,,,,,,,,,,,,,,,,,,,,,,,,,,,,,,,2,2.677,0,18,18,18,1,curtailment,expenditure,abandonment,abridgment,improvement,forgery,3,,,,,,,,,,,,,,,,,,,,,,,,,,,,,,,,,,,,,,
,,,,,,,,,,,,,,,90419,001,2022-04-21_18h11.14.823,SPAMnetsValid,2021.1.4,MacIntel,111.1111111,,,,,,,,,,,,,,,,,,,,,,,,,,,,,,,,,,,,,,2,4.613,0,19,19,19,1,perversity,adversity,perviousness,travesty,waywardness,gentility,4,,,,,,,,,,,,,,,,,,,,,,,,,,,,,,,,,,,,,,
,,,,,,,,,,,,,,,90419,001,2022-04-21_18h11.14.823,SPAMnetsValid,2021.1.4,MacIntel,111.1111111,,,,,,,,,,,,,,,,,,,,,,,,,,,,,,,,,,,,,,2,6.594,0,20,20,20,1,calumnious,complimentary,analogous,slanderous,tempestuous,magnanimous,3,,,,,,,,,,,,,,,,,,,,,,,,,,,,,,,,,,,,,,
,,,,,,,,,,,,,,,90419,001,2022-04-21_18h11.14.823,SPAMnetsValid,2021.1.4,MacIntel,111.1111111,,,,,,,,,,,,,,,,,,,,,,,,,,,,,,,,,,,,,,1,4.806,0,21,21,21,1,illiberality,bigotry,imbecility,illegibility,cautery,immaturity,1,,,,,,,,,,,,,,,,,,,,,,,,,,,,,,,,,,,,,,
,,,,,,,,,,,,,,,90419,001,2022-04-21_18h11.14.823,SPAMnetsValid,2021.1.4,MacIntel,111.1111111,,,,,,,,,,,,,,,,,,,,,,,,,,,,,,,,,,,,,,2,3.593,0,22,22,22,1,clabber,rejoice,gossip,curdle,crow,hobble,3,,,,,,,,,,,,,,,,,,,,,,,,,,,,,,,,,,,,,,
,,,,,,,,,,,,,,,90419,001,2022-04-21_18h11.14.823,SPAMnetsValid,2021.1.4,MacIntel,111.1111111,,,,,,,,,,,,,,,,,,,,,,,,,,,,,,,,,,,,,,5,6.234,0,23,23,23,1,sedulousness,diligence,credulousness,seduction,perilousness,frankness,1,,,,,,,,,,,,,,,,,,,,,,,,,,,,,,,,,,,,,,
,,,,,,,,,,,,,,,90419,001,2022-04-21_18h11.14.823,SPAMnetsValid,2021.1.4,MacIntel,111.1111111,,,,,,,,,,,,,,,,,,,,,,,,,,,,,,,,,,,,,,,,,,,,,,,,,,,,masturbate,pillow,0,0,0,0,1,,,,,,,,,,,,,,,,,,,,,,,,,,,,,,,
,,,,,,,,,,,,,,,90419,001,2022-04-21_18h11.14.823,SPAMnetsValid,2021.1.4,MacIntel,111.1111111,,,,,,,,,,,,,,,,,,,,,,,,,,,,,,,,,,,,,,,,,,,,,,,,,,,,fort building,pillow,1,0,1,0,1,,,,,,,,,,,,,,,,,,,,,,,,,,,,,,,
,,,,,,,,,,,,,,,90419,001,2022-04-21_18h11.14.823,SPAMnetsValid,2021.1.4,MacIntel,111.1111111,,,,,,,,,,,,,,,,,,,,,,,,,,,,,,,,,,,,,,,,,,,,,,,,,,,,support,pillow,2,0,2,0,1,,,,,,,,,,,,,,,,,,,,,,,,,,,,,,,
,,,,,,,,,,,,,,,90419,001,2022-04-21_18h11.14.823,SPAMnetsValid,2021.1.4,MacIntel,111.1111111,,,,,,,,,,,,,,,,,,,,,,,,,,,,,,,,,,,,,,,,,,,,,,,,,,,,decoration,pillow,3,0,3,0,1,,,,,,,,,,,,,,,,,,,,,,,,,,,,,,,
,,,,,,,,,,,,,,,90419,001,2022-04-21_18h11.14.823,SPAMnetsValid,2021.1.4,MacIntel,111.1111111,,,,,,,,,,,,,,,,,,,,,,,,,,,,,,,,,,,,,,,,,,,,,,,,,,,,comfort,pillow,4,0,4,0,1,,,,,,,,,,,,,,,,,,,,,,,,,,,,,,,
,,,,,,,,,,,,,,,90419,001,2022-04-21_18h11.14.823,SPAMnetsValid,2021.1.4,MacIntel,111.1111111,,,,,,,,,,,,,,,,,,,,,,,,,,,,,,,,,,,,,,,,,,,,,,,,,,,,warmth,pillow,5,0,5,0,1,,,,,,,,,,,,,,,,,,,,,,,,,,,,,,,
,,,,,,,,,,,,,,,90419,001,2022-04-21_18h11.14.823,SPAMnetsValid,2021.1.4,MacIntel,111.1111111,,,,,,,,,,,,,,,,,,,,,,,,,,,,,,,,,,,,,,,,,,,,,,,,,,,,softness,pillow,6,0,6,0,1,,,,,,,,,,,,,,,,,,,,,,,,,,,,,,,
,,,,,,,,,,,,,,,90419,001,2022-04-21_18h11.14.823,SPAMnetsValid,2021.1.4,MacIntel,111.1111111,,,,,,,,,,,,,,,,,,,,,,,,,,,,,,,,,,,,,,,,,,,,,,,,,,,,costume,pillow,7,0,7,0,1,,,,,,,,,,,,,,,,,,,,,,,,,,,,,,,
,,,,,,,,,,,,,,,90419,001,2022-04-21_18h11.14.823,SPAMnetsValid,2021.1.4,MacIntel,111.1111111,,,,,,,,,,,,,,,,,,,,,,,,,,,,,,,,,,,,,,,,,,,,,,,,,,,,fabric ,pillow,8,0,8,0,1,,,,,,,,,,,,,,,,,,,,,,,,,,,,,,,
,,,,,,,,,,,,,,,90419,001,2022-04-21_18h11.14.823,SPAMnetsValid,2021.1.4,MacIntel,111.1111111,,,,,,,,,,,,,,,,,,,,,,,,,,,,,,,,,,,,,,,,,,,,,,,,,,,,fighting,pillow,9,0,9,0,1,,,,,,,,,,,,,,,,,,,,,,,,,,,,,,,
,,,,,,,,,,,,,,,90419,001,2022-04-21_18h11.14.823,SPAMnetsValid,2021.1.4,MacIntel,111.1111111,,,,,,,,,,,,,,,,,,,,,,,,,,,,,,,,,,,,,,,,,,,,,,,,,,,,rage outlet,pillow,10,0,10,0,1,,,,,,,,,,,,,,,,,,,,,,,,,,,,,,,
,,,,,,,,,,,,,,,90419,001,2022-04-21_18h11.14.823,SPAMnetsValid,2021.1.4,MacIntel,111.1111111,,,,,,,,,,,,,,,,,,,,,,,,,,,,,,,,,,,,,,,,,,,,,,,,,,,,scream into,pillow,11,0,11,0,1,,,,,,,,,,,,,,,,,,,,,,,,,,,,,,,
,,,,,,,,,,,,,,,90419,001,2022-04-21_18h11.14.823,SPAMnetsValid,2021.1.4,MacIntel,111.1111111,,,,,,,,,,,,,,,,,,,,,,,,,,,,,,,,,,,,,,,,,,,,,,,,,,,,throw it at a wall,pillow,12,0,12,0,1,,,,,,,,,,,,,,,,,,,,,,,,,,,,,,,
,,,,,,,,,,,,,,,90419,001,2022-04-21_18h11.14.823,SPAMnetsValid,2021.1.4,MacIntel,111.1111111,,,,,,,,,,,,,,,,,,,,,,,,,,,,,,,,,,,,,,,,,,,,,,,,,,,,building block,pillow,13,0,13,0,1,,,,,,,,,,,,,,,,,,,,,,,,,,,,,,,
,,,,,,,,,,,,,,,90419,001,2022-04-21_18h11.14.823,SPAMnetsValid,2021.1.4,MacIntel,111.1111111,,,,,,,,,,,,,,,,,,,,,,,,,,,,,,,,,,,,,,,,,,,,,,,,,,,,buffer,pillow,14,0,14,0,1,,,,,,,,,,,,,,,,,,,,,,,,,,,,,,,
,,,,,,,,,,,,,,,90419,001,2022-04-21_18h11.14.823,SPAMnetsValid,2021.1.4,MacIntel,111.1111111,,,,,,,,,,,,,,,,,,,,,,,,,,,,,,,,,,,,,,,,,,,,,,,,,,,,shield,pillow,15,0,15,0,1,,,,,,,,,,,,,,,,,,,,,,,,,,,,,,,
,,,,,,,,,,,,,,,90419,001,2022-04-21_18h11.14.823,SPAMnetsValid,2021.1.4,MacIntel,111.1111111,,,,,,,,,,,,,,,,,,,,,,,,,,,,,,,,,,,,,,,,,,,,,,,,,,,,padding,pillow,16,0,16,0,1,,,,,,,,,,,,,,,,,,,,,,,,,,,,,,,
,,,,,,,,,,,,,,,90419,001,2022-04-21_18h11.14.823,SPAMnetsValid,2021.1.4,MacIntel,111.1111111,,,,,,,,,,,,,,,,,,,,,,,,,,,,,,,,,,,,,,,,,,,,,,,,,,,,sleeping,pillow,17,0,17,0,1,,,,,,,,,,,,,,,,,,,,,,,,,,,,,,,
,,,,,,,,,,,,,,,90419,001,2022-04-21_18h11.14.823,SPAMnetsValid,2021.1.4,MacIntel,111.1111111,,,,,,,,,,,,,,,,,,,,,,,,,,,,,,,,,,,,,,,,,,,,,,,,,,,,,,,,,,,0,0,0,2,1,pillow,,,,,,,,,,,,,,,,,,,,,,,,,
,,,,,,,,,,,,,,,90419,001,2022-04-21_18h11.14.823,SPAMnetsValid,2021.1.4,MacIntel,111.1111111,,,,,,,,,,,,,,,,,,,,,,,,,,,,,,,,,,,,,,,,,,,,,,,,,,,,shit in it,bucket,0,0,0,0,1,,,,,,,,,,,,,,,,,,,,,,,,,,,,,,,
,,,,,,,,,,,,,,,90419,001,2022-04-21_18h11.14.823,SPAMnetsValid,2021.1.4,MacIntel,111.1111111,,,,,,,,,,,,,,,,,,,,,,,,,,,,,,,,,,,,,,,,,,,,,,,,,,,,toilet,bucket,1,0,1,0,1,,,,,,,,,,,,,,,,,,,,,,,,,,,,,,,
,,,,,,,,,,,,,,,90419,001,2022-04-21_18h11.14.823,SPAMnetsValid,2021.1.4,MacIntel,111.1111111,,,,,,,,,,,,,,,,,,,,,,,,,,,,,,,,,,,,,,,,,,,,,,,,,,,,puke bucket,bucket,2,0,2,0,1,,,,,,,,,,,,,,,,,,,,,,,,,,,,,,,
,,,,,,,,,,,,,,,90419,001,2022-04-21_18h11.14.823,SPAMnetsValid,2021.1.4,MacIntel,111.1111111,,,,,,,,,,,,,,,,,,,,,,,,,,,,,,,,,,,,,,,,,,,,,,,,,,,,hat,bucket,3,0,3,0,1,,,,,,,,,,,,,,,,,,,,,,,,,,,,,,,
,,,,,,,,,,,,,,,90419,001,2022-04-21_18h11.14.823,SPAMnetsValid,2021.1.4,MacIntel,111.1111111,,,,,,,,,,,,,,,,,,,,,,,,,,,,,,,,,,,,,,,,,,,,,,,,,,,,helmet,bucket,4,0,4,0,1,,,,,,,,,,,,,,,,,,,,,,,,,,,,,,,
,,,,,,,,,,,,,,,90419,001,2022-04-21_18h11.14.823,SPAMnetsValid,2021.1.4,MacIntel,111.1111111,,,,,,,,,,,,,,,,,,,,,,,,,,,,,,,,,,,,,,,,,,,,,,,,,,,,drum,bucket,5,0,5,0,1,,,,,,,,,,,,,,,,,,,,,,,,,,,,,,,
,,,,,,,,,,,,,,,90419,001,2022-04-21_18h11.14.823,SPAMnetsValid,2021.1.4,MacIntel,111.1111111,,,,,,,,,,,,,,,,,,,,,,,,,,,,,,,,,,,,,,,,,,,,,,,,,,,,cup,bucket,6,0,6,0,1,,,,,,,,,,,,,,,,,,,,,,,,,,,,,,,
,,,,,,,,,,,,,,,90419,001,2022-04-21_18h11.14.823,SPAMnetsValid,2021.1.4,MacIntel,111.1111111,,,,,,,,,,,,,,,,,,,,,,,,,,,,,,,,,,,,,,,,,,,,,,,,,,,,stool,bucket,7,0,7,0,1,,,,,,,,,,,,,,,,,,,,,,,,,,,,,,,
,,,,,,,,,,,,,,,90419,001,2022-04-21_18h11.14.823,SPAMnetsValid,2021.1.4,MacIntel,111.1111111,,,,,,,,,,,,,,,,,,,,,,,,,,,,,,,,,,,,,,,,,,,,,,,,,,,,paint,bucket,8,0,8,0,1,,,,,,,,,,,,,,,,,,,,,,,,,,,,,,,
,,,,,,,,,,,,,,,90419,001,2022-04-21_18h11.14.823,SPAMnetsValid,2021.1.4,MacIntel,111.1111111,,,,,,,,,,,,,,,,,,,,,,,,,,,,,,,,,,,,,,,,,,,,,,,,,,,,hold thi ngs,bucket,9,0,9,0,1,,,,,,,,,,,,,,,,,,,,,,,,,,,,,,,
,,,,,,,,,,,,,,,90419,001,2022-04-21_18h11.14.823,SPAMnetsValid,2021.1.4,MacIntel,111.1111111,,,,,,,,,,,,,,,,,,,,,,,,,,,,,,,,,,,,,,,,,,,,,,,,,,,,soap,bucket,10,0,10,0,1,,,,,,,,,,,,,,,,,,,,,,,,,,,,,,,
,,,,,,,,,,,,,,,90419,001,2022-04-21_18h11.14.823,SPAMnetsValid,2021.1.4,MacIntel,111.1111111,,,,,,,,,,,,,,,,,,,,,,,,,,,,,,,,,,,,,,,,,,,,,,,,,,,,car wash soap in a bucket,bucket,11,0,11,0,1,,,,,,,,,,,,,,,,,,,,,,,,,,,,,,,
,,,,,,,,,,,,,,,90419,001,2022-04-21_18h11.14.823,SPAMnetsValid,2021.1.4,MacIntel,111.1111111,,,,,,,,,,,,,,,,,,,,,,,,,,,,,,,,,,,,,,,,,,,,,,,,,,,,taco bell,bucket,12,0,12,0,1,,,,,,,,,,,,,,,,,,,,,,,,,,,,,,,
,,,,,,,,,,,,,,,90419,001,2022-04-21_18h11.14.823,SPAMnetsValid,2021.1.4,MacIntel,111.1111111,,,,,,,,,,,,,,,,,,,,,,,,,,,,,,,,,,,,,,,,,,,,,,,,,,,,jungle juice,bucket,13,0,13,0,1,,,,,,,,,,,,,,,,,,,,,,,,,,,,,,,
,,,,,,,,,,,,,,,90419,001,2022-04-21_18h11.14.823,SPAMnetsValid,2021.1.4,MacIntel,111.1111111,,,,,,,,,,,,,,,,,,,,,,,,,,,,,,,,,,,,,,,,,,,,,,,,,,,,put emmas brain in bucket,bucket,14,0,14,0,1,,,,,,,,,,,,,,,,,,,,,,,,,,,,,,,
,,,,,,,,,,,,,,,90419,001,2022-04-21_18h11.14.823,SPAMnetsValid,2021.1.4,MacIntel,111.1111111,,,,,,,,,,,,,,,,,,,,,,,,,,,,,,,,,,,,,,,,,,,,,,,,,,,,loud clanging,bucket,15,0,15,0,1,,,,,,,,,,,,,,,,,,,,,,,,,,,,,,,
,,,,,,,,,,,,,,,90419,001,2022-04-21_18h11.14.823,SPAMnetsValid,2021.1.4,MacIntel,111.1111111,,,,,,,,,,,,,,,,,,,,,,,,,,,,,,,,,,,,,,,,,,,,,,,,,,,,d,bucket,16,0,16,0,1,,,,,,,,,,,,,,,,,,,,,,,,,,,,,,,
,,,,,,,,,,,,,,,90419,001,2022-04-21_18h11.14.823,SPAMnetsValid,2021.1.4,MacIntel,111.1111111,,,,,,,,,,,,,,,,,,,,,,,,,,,,,,,,,,,,,,,,,,,,,,,,,,,,,,,,,,,0,1,1,0,1,bucket,,,,,,,,,,,,,,,,,,,,,,,,,
,,,,,,,,,,,,,,,90419,001,2022-04-21_18h11.14.823,SPAMnetsValid,2021.1.4,MacIntel,111.1111111,,,,,,,,,,,,,,,,,,,,,,,,,,,,,,,,,,,,,,,,,,,,,,,,,,,,ear wax,candle,0,0,0,0,1,,,,,,,,,,,,,,,,,,,,,,,,,,,,,,,
,,,,,,,,,,,,,,,90419,001,2022-04-21_18h11.14.823,SPAMnetsValid,2021.1.4,MacIntel,111.1111111,,,,,,,,,,,,,,,,,,,,,,,,,,,,,,,,,,,,,,,,,,,,,,,,,,,,wax play kinks,candle,1,0,1,0,1,,,,,,,,,,,,,,,,,,,,,,,,,,,,,,,
,,,,,,,,,,,,,,,90419,001,2022-04-21_18h11.14.823,SPAMnetsValid,2021.1.4,MacIntel,111.1111111,,,,,,,,,,,,,,,,,,,,,,,,,,,,,,,,,,,,,,,,,,,,,,,,,,,,light,candle,2,0,2,0,1,,,,,,,,,,,,,,,,,,,,,,,,,,,,,,,
,,,,,,,,,,,,,,,90419,001,2022-04-21_18h11.14.823,SPAMnetsValid,2021.1.4,MacIntel,111.1111111,,,,,,,,,,,,,,,,,,,,,,,,,,,,,,,,,,,,,,,,,,,,,,,,,,,,soot,candle,3,0,3,0,1,,,,,,,,,,,,,,,,,,,,,,,,,,,,,,,
,,,,,,,,,,,,,,,90419,001,2022-04-21_18h11.14.823,SPAMnetsValid,2021.1.4,MacIntel,111.1111111,,,,,,,,,,,,,,,,,,,,,,,,,,,,,,,,,,,,,,,,,,,,,,,,,,,,warmth,candle,4,0,4,0,1,,,,,,,,,,,,,,,,,,,,,,,,,,,,,,,
,,,,,,,,,,,,,,,90419,001,2022-04-21_18h11.14.823,SPAMnetsValid,2021.1.4,MacIntel,111.1111111,,,,,,,,,,,,,,,,,,,,,,,,,,,,,,,,,,,,,,,,,,,,,,,,,,,,smells,candle,5,0,5,0,1,,,,,,,,,,,,,,,,,,,,,,,,,,,,,,,
,,,,,,,,,,,,,,,90419,001,2022-04-21_18h11.14.823,SPAMnetsValid,2021.1.4,MacIntel,111.1111111,,,,,,,,,,,,,,,,,,,,,,,,,,,,,,,,,,,,,,,,,,,,,,,,,,,,,,,,,,,0,2,2,1,1,candle,,,,,,,,,,,,,,,,,,,,,,,,,
,,,,,,,,,,,,,,,90419,001,2022-04-21_18h11.14.823,SPAMnetsValid,2021.1.4,MacIntel,111.1111111,,,,,,,,,,,,,,,,,,,,,,,,,,,,,,,,,,,,,,,,,,,,,,,,,,,,,,,,,,,,,,,,,octopus,Animals,0,0,0,0,1,,,,,,,,,,,,,,,,,,
,,,,,,,,,,,,,,,90419,001,2022-04-21_18h11.14.823,SPAMnetsValid,2021.1.4,MacIntel,111.1111111,,,,,,,,,,,,,,,,,,,,,,,,,,,,,,,,,,,,,,,,,,,,,,,,,,,,,,,,,,,,,,,,,girrafe,Animals,1,0,1,0,1,,,,,,,,,,,,,,,,,,
,,,,,,,,,,,,,,,90419,001,2022-04-21_18h11.14.823,SPAMnetsValid,2021.1.4,MacIntel,111.1111111,,,,,,,,,,,,,,,,,,,,,,,,,,,,,,,,,,,,,,,,,,,,,,,,,,,,,,,,,,,,,,,,,dog,Animals,2,0,2,0,1,,,,,,,,,,,,,,,,,,
,,,,,,,,,,,,,,,90419,001,2022-04-21_18h11.14.823,SPAMnetsValid,2021.1.4,MacIntel,111.1111111,,,,,,,,,,,,,,,,,,,,,,,,,,,,,,,,,,,,,,,,,,,,,,,,,,,,,,,,,,,,,,,,,cat,Animals,3,0,3,0,1,,,,,,,,,,,,,,,,,,
,,,,,,,,,,,,,,,90419,001,2022-04-21_18h11.14.823,SPAMnetsValid,2021.1.4,MacIntel,111.1111111,,,,,,,,,,,,,,,,,,,,,,,,,,,,,,,,,,,,,,,,,,,,,,,,,,,,,,,,,,,,,,,,,lion,Animals,4,0,4,0,1,,,,,,,,,,,,,,,,,,
,,,,,,,,,,,,,,,90419,001,2022-04-21_18h11.14.823,SPAMnetsValid,2021.1.4,MacIntel,111.1111111,,,,,,,,,,,,,,,,,,,,,,,,,,,,,,,,,,,,,,,,,,,,,,,,,,,,,,,,,,,,,,,,,tiger,Animals,5,0,5,0,1,,,,,,,,,,,,,,,,,,
,,,,,,,,,,,,,,,90419,001,2022-04-21_18h11.14.823,SPAMnetsValid,2021.1.4,MacIntel,111.1111111,,,,,,,,,,,,,,,,,,,,,,,,,,,,,,,,,,,,,,,,,,,,,,,,,,,,,,,,,,,,,,,,,jaguar,Animals,6,0,6,0,1,,,,,,,,,,,,,,,,,,
,,,,,,,,,,,,,,,90419,001,2022-04-21_18h11.14.823,SPAMnetsValid,2021.1.4,MacIntel,111.1111111,,,,,,,,,,,,,,,,,,,,,,,,,,,,,,,,,,,,,,,,,,,,,,,,,,,,,,,,,,,,,,,,,puma,Animals,7,0,7,0,1,,,,,,,,,,,,,,,,,,
,,,,,,,,,,,,,,,90419,001,2022-04-21_18h11.14.823,SPAMnetsValid,2021.1.4,MacIntel,111.1111111,,,,,,,,,,,,,,,,,,,,,,,,,,,,,,,,,,,,,,,,,,,,,,,,,,,,,,,,,,,,,,,,,mammoth,Animals,8,0,8,0,1,,,,,,,,,,,,,,,,,,
,,,,,,,,,,,,,,,90419,001,2022-04-21_18h11.14.823,SPAMnetsValid,2021.1.4,MacIntel,111.1111111,,,,,,,,,,,,,,,,,,,,,,,,,,,,,,,,,,,,,,,,,,,,,,,,,,,,,,,,,,,,,,,,,cougar,Animals,9,0,9,0,1,,,,,,,,,,,,,,,,,,
,,,,,,,,,,,,,,,90419,001,2022-04-21_18h11.14.823,SPAMnetsValid,2021.1.4,MacIntel,111.1111111,,,,,,,,,,,,,,,,,,,,,,,,,,,,,,,,,,,,,,,,,,,,,,,,,,,,,,,,,,,,,,,,,fish,Animals,10,0,10,0,1,,,,,,,,,,,,,,,,,,
,,,,,,,,,,,,,,,90419,001,2022-04-21_18h11.14.823,SPAMnetsValid,2021.1.4,MacIntel,111.1111111,,,,,,,,,,,,,,,,,,,,,,,,,,,,,,,,,,,,,,,,,,,,,,,,,,,,,,,,,,,,,,,,,shark,Animals,11,0,11,0,1,,,,,,,,,,,,,,,,,,
,,,,,,,,,,,,,,,90419,001,2022-04-21_18h11.14.823,SPAMnetsValid,2021.1.4,MacIntel,111.1111111,,,,,,,,,,,,,,,,,,,,,,,,,,,,,,,,,,,,,,,,,,,,,,,,,,,,,,,,,,,,,,,,,stingray,Animals,12,0,12,0,1,,,,,,,,,,,,,,,,,,
,,,,,,,,,,,,,,,90419,001,2022-04-21_18h11.14.823,SPAMnetsValid,2021.1.4,MacIntel,111.1111111,,,,,,,,,,,,,,,,,,,,,,,,,,,,,,,,,,,,,,,,,,,,,,,,,,,,,,,,,,,,,,,,,jellyfiish,Animals,13,0,13,0,1,,,,,,,,,,,,,,,,,,
,,,,,,,,,,,,,,,90419,001,2022-04-21_18h11.14.823,SPAMnetsValid,2021.1.4,MacIntel,111.1111111,,,,,,,,,,,,,,,,,,,,,,,,,,,,,,,,,,,,,,,,,,,,,,,,,,,,,,,,,,,,,,,,,sea turtle,Animals,14,0,14,0,1,,,,,,,,,,,,,,,,,,
,,,,,,,,,,,,,,,90419,001,2022-04-21_18h11.14.823,SPAMnetsValid,2021.1.4,MacIntel,111.1111111,,,,,,,,,,,,,,,,,,,,,,,,,,,,,,,,,,,,,,,,,,,,,,,,,,,,,,,,,,,,,,,,,dolphin,Animals,15,0,15,0,1,,,,,,,,,,,,,,,,,,
,,,,,,,,,,,,,,,90419,001,2022-04-21_18h11.14.823,SPAMnetsValid,2021.1.4,MacIntel,111.1111111,,,,,,,,,,,,,,,,,,,,,,,,,,,,,,,,,,,,,,,,,,,,,,,,,,,,,,,,,,,,,,,,,whale,Animals,16,0,16,0,1,,,,,,,,,,,,,,,,,,
,,,,,,,,,,,,,,,90419,001,2022-04-21_18h11.14.823,SPAMnetsValid,2021.1.4,MacIntel,111.1111111,,,,,,,,,,,,,,,,,,,,,,,,,,,,,,,,,,,,,,,,,,,,,,,,,,,,,,,,,,,,,,,,,dog,Animals,17,0,17,0,1,,,,,,,,,,,,,,,,,,
,,,,,,,,,,,,,,,90419,001,2022-04-21_18h11.14.823,SPAMnetsValid,2021.1.4,MacIntel,111.1111111,,,,,,,,,,,,,,,,,,,,,,,,,,,,,,,,,,,,,,,,,,,,,,,,,,,,,,,,,,,,,,,,,cat,Animals,18,0,18,0,1,,,,,,,,,,,,,,,,,,
,,,,,,,,,,,,,,,90419,001,2022-04-21_18h11.14.823,SPAMnetsValid,2021.1.4,MacIntel,111.1111111,,,,,,,,,,,,,,,,,,,,,,,,,,,,,,,,,,,,,,,,,,,,,,,,,,,,,,,,,,,,,,,,,hermit crab,Animals,19,0,19,0,1,,,,,,,,,,,,,,,,,,
,,,,,,,,,,,,,,,90419,001,2022-04-21_18h11.14.823,SPAMnetsValid,2021.1.4,MacIntel,111.1111111,,,,,,,,,,,,,,,,,,,,,,,,,,,,,,,,,,,,,,,,,,,,,,,,,,,,,,,,,,,,,,,,,pigeon,Animals,20,0,20,0,1,,,,,,,,,,,,,,,,,,
,,,,,,,,,,,,,,,90419,001,2022-04-21_18h11.14.823,SPAMnetsValid,2021.1.4,MacIntel,111.1111111,,,,,,,,,,,,,,,,,,,,,,,,,,,,,,,,,,,,,,,,,,,,,,,,,,,,,,,,,,,,,,,,,bat,Animals,21,0,21,0,1,,,,,,,,,,,,,,,,,,
,,,,,,,,,,,,,,,90419,001,2022-04-21_18h11.14.823,SPAMnetsValid,2021.1.4,MacIntel,111.1111111,,,,,,,,,,,,,,,,,,,,,,,,,,,,,,,,,,,,,,,,,,,,,,,,,,,,,,,,,,,,,,,,,iguana,Animals,22,0,22,0,1,,,,,,,,,,,,,,,,,,
,,,,,,,,,,,,,,,90419,001,2022-04-21_18h11.14.823,SPAMnetsValid,2021.1.4,MacIntel,111.1111111,,,,,,,,,,,,,,,,,,,,,,,,,,,,,,,,,,,,,,,,,,,,,,,,,,,,,,,,,,,,,,,,,lizard,Animals,23,0,23,0,1,,,,,,,,,,,,,,,,,,
,,,,,,,,,,,,,,,90419,001,2022-04-21_18h11.14.823,SPAMnetsValid,2021.1.4,MacIntel,111.1111111,,,,,,,,,,,,,,,,,,,,,,,,,,,,,,,,,,,,,,,,,,,,,,,,,,,,,,,,,,,,,,,,,snake,Animals,24,0,24,0,1,,,,,,,,,,,,,,,,,,
,,,,,,,,,,,,,,,90419,001,2022-04-21_18h11.14.823,SPAMnetsValid,2021.1.4,MacIntel,111.1111111,,,,,,,,,,,,,,,,,,,,,,,,,,,,,,,,,,,,,,,,,,,,,,,,,,,,,,,,,,,,,,,,,yak,Animals,25,0,25,0,1,,,,,,,,,,,,,,,,,,
,,,,,,,,,,,,,,,90419,001,2022-04-21_18h11.14.823,SPAMnetsValid,2021.1.4,MacIntel,111.1111111,,,,,,,,,,,,,,,,,,,,,,,,,,,,,,,,,,,,,,,,,,,,,,,,,,,,,,,,,,,,,,,,,bison,Animals,26,0,26,0,1,,,,,,,,,,,,,,,,,,
,,,,,,,,,,,,,,,90419,001,2022-04-21_18h11.14.823,SPAMnetsValid,2021.1.4,MacIntel,111.1111111,,,,,,,,,,,,,,,,,,,,,,,,,,,,,,,,,,,,,,,,,,,,,,,,,,,,,,,,,,,,,,,,,manatee,Animals,27,0,27,0,1,,,,,,,,,,,,,,,,,,
,,,,,,,,,,,,,,,90419,001,2022-04-21_18h11.14.823,SPAMnetsValid,2021.1.4,MacIntel,111.1111111,,,,,,,,,,,,,,,,,,,,,,,,,,,,,,,,,,,,,,,,,,,,,,,,,,,,,,,,,,,,,,,,,shrimp,Animals,28,0,28,0,1,,,,,,,,,,,,,,,,,,
,,,,,,,,,,,,,,,90419,001,2022-04-21_18h11.14.823,SPAMnetsValid,2021.1.4,MacIntel,111.1111111,,,,,,,,,,,,,,,,,,,,,,,,,,,,,,,,,,,,,,,,,,,,,,,,,,,,,,,,,,,,,,,,,crab,Animals,29,0,29,0,1,,,,,,,,,,,,,,,,,,
,,,,,,,,,,,,,,,90419,001,2022-04-21_18h11.14.823,SPAMnetsValid,2021.1.4,MacIntel,111.1111111,,,,,,,,,,,,,,,,,,,,,,,,,,,,,,,,,,,,,,,,,,,,,,,,,,,,,,,,,,,,,,,,,lobster,Animals,30,0,30,0,1,,,,,,,,,,,,,,,,,,
,,,,,,,,,,,,,,,90419,001,2022-04-21_18h11.14.823,SPAMnetsValid,2021.1.4,MacIntel,111.1111111,,,,,,,,,,,,,,,,,,,,,,,,,,,,,,,,,,,,,,,,,,,,,,,,,,,,,,,,,,,,,,,,,wolf,Animals,31,0,31,0,1,,,,,,,,,,,,,,,,,,
,,,,,,,,,,,,,,,90419,001,2022-04-21_18h11.14.823,SPAMnetsValid,2021.1.4,MacIntel,111.1111111,,,,,,,,,,,,,,,,,,,,,,,,,,,,,,,,,,,,,,,,,,,,,,,,,,,,,,,,,,,,,,,,,cayote,Animals,32,0,32,0,1,,,,,,,,,,,,,,,,,,
,,,,,,,,,,,,,,,90419,001,2022-04-21_18h11.14.823,SPAMnetsValid,2021.1.4,MacIntel,111.1111111,,,,,,,,,,,,,,,,,,,,,,,,,,,,,,,,,,,,,,,,,,,,,,,,,,,,,,,,,,,,,,,,,,,,,,,,0,0,0,0,1,Animals,,,,,,,,,,,,
,,,,,,,,,,,,,,,90419,001,2022-04-21_18h11.14.823,SPAMnetsValid,2021.1.4,MacIntel,111.1111111,,,,,,,,,,,,,,,,,,,,,,,,,,,,,,,,,,,,,,,,,,,,,,,,,,,,,,,,,,,,,,,,,,,,,,,,,,,,,,3,5.438,0,0,0,0,1,"I enjoy concentrating on a fantasy or daydream and exploring all its possibilities, letting it grow and develop.",0,1,,
,,,,,,,,,,,,,,,90419,001,2022-04-21_18h11.14.823,SPAMnetsValid,2021.1.4,MacIntel,111.1111111,,,,,,,,,,,,,,,,,,,,,,,,,,,,,,,,,,,,,,,,,,,,,,,,,,,,,,,,,,,,,,,,,,,,,,,,,,,,,,3,1.756,0,1,1,1,1,I think it's interesting to learn and develop new hobbies.,0,2,,
,,,,,,,,,,,,,,,90419,001,2022-04-21_18h11.14.823,SPAMnetsValid,2021.1.4,MacIntel,111.1111111,,,,,,,,,,,,,,,,,,,,,,,,,,,,,,,,,,,,,,,,,,,,,,,,,,,,,,,,,,,,,,,,,,,,,,,,,,,,,,4,3.594,0,2,2,2,1,I am intrigued by the patterns I find in art and nature.,0,3,,
,,,,,,,,,,,,,,,90419,001,2022-04-21_18h11.14.823,SPAMnetsValid,2021.1.4,MacIntel,111.1111111,,,,,,,,,,,,,,,,,,,,,,,,,,,,,,,,,,,,,,,,,,,,,,,,,,,,,,,,,,,,,,,,,,,,,,,,,,,,,,2,4.478,0,3,3,3,1,I believe letting students hear controversial speakers can only confuse and mislead them.,1,4,,
,,,,,,,,,,,,,,,90419,001,2022-04-21_18h11.14.823,SPAMnetsValid,2021.1.4,MacIntel,111.1111111,,,,,,,,,,,,,,,,,,,,,,,,,,,,,,,,,,,,,,,,,,,,,,,,,,,,,,,,,,,,,,,,,,,,,,,,,,,,,,3,1.43,0,4,4,4,1,Poetry has little or no effect on me.,1,5,,
,,,,,,,,,,,,,,,90419,001,2022-04-21_18h11.14.823,SPAMnetsValid,2021.1.4,MacIntel,111.1111111,,,,,,,,,,,,,,,,,,,,,,,,,,,,,,,,,,,,,,,,,,,,,,,,,,,,,,,,,,,,,,,,,,,,,,,,,,,,,,4,3.516,0,5,5,5,1,I would have difficulty just letting my mind wander without control or guidance.,1,6,,
,,,,,,,,,,,,,,,90419,001,2022-04-21_18h11.14.823,SPAMnetsValid,2021.1.4,MacIntel,111.1111111,,,,,,,,,,,,,,,,,,,,,,,,,,,,,,,,,,,,,,,,,,,,,,,,,,,,,,,,,,,,,,,,,,,,,,,,,,,,,,3,2.796,0,6,6,6,1,I seldom notice the moods or feelings that different environments produce.,1,7,,
,,,,,,,,,,,,,,,90419,001,2022-04-21_18h11.14.823,SPAMnetsValid,2021.1.4,MacIntel,111.1111111,,,,,,,,,,,,,,,,,,,,,,,,,,,,,,,,,,,,,,,,,,,,,,,,,,,,,,,,,,,,,,,,,,,,,,,,,,,,,,5,1.608,0,7,7,7,1,I experience a wide range of emotions or feelings.,0,8,,
,,,,,,,,,,,,,,,90419,001,2022-04-21_18h11.14.823,SPAMnetsValid,2021.1.4,MacIntel,111.1111111,,,,,,,,,,,,,,,,,,,,,,,,,,,,,,,,,,,,,,,,,,,,,,,,,,,,,,,,,,,,,,,,,,,,,,,,,,,,,,5,2.149,0,8,8,8,1,"Sometimes when I am reading poetry or looking at a work of art, I feel a chill or wave of excitement.",0,9,,
,,,,,,,,,,,,,,,90419,001,2022-04-21_18h11.14.823,SPAMnetsValid,2021.1.4,MacIntel,111.1111111,,,,,,,,,,,,,,,,,,,,,,,,,,,,,,,,,,,,,,,,,,,,,,,,,,,,,,,,,,,,,,,,,,,,,,,,,,,,,,2,4.32,0,9,9,9,1,I have little interest in speculating on the nature of the universe or the human condition.,1,10,,
,,,,,,,,,,,,,,,90419,001,2022-04-21_18h11.14.823,SPAMnetsValid,2021.1.4,MacIntel,111.1111111,,,,,,,,,,,,,,,,,,,,,,,,,,,,,,,,,,,,,,,,,,,,,,,,,,,,,,,,,,,,,,,,,,,,,,,,,,,,,,4,1.915,0,10,10,10,1,I have a lot of intellectual curiosity.,0,11,,
,,,,,,,,,,,,,,,90419,001,2022-04-21_18h11.14.823,SPAMnetsValid,2021.1.4,MacIntel,111.1111111,,,,,,,,,,,,,,,,,,,,,,,,,,,,,,,,,,,,,,,,,,,,,,,,,,,,,,,,,,,,,,,,,,,,,,,,,,,,,,4,1.366,0,11,11,11,1,I often enjoy playing with theories or abstract ideas.,0,12,,
,,,,,,,,,,,,,,,90419,001,2022-04-21_18h11.14.823,SPAMnetsValid,2021.1.4,MacIntel,111.1111111,,,,,,,,,,,,,,,,,,,,,,,,,,,,,,,,,,,,,,,,,,,,,,,,,,,,,,,,,,,,,,,,,,,,,,,,,,,,,,,,,,,,,,,,return,3.655
