key_resp_3.keys,key_resp_3.rt,slider_2.response,slider_2.rt,rjt_rating,rjt_RT,trials_24.thisRepN,trials_24.thisTrialN,trials_24.thisN,trials_24.thisIndex,trials_24.ran,rjt_order,word1,word2,attention,participant,session,date,expName,psychopyVersion,OS,frameRate,trials_4.thisRepN,trials_4.thisTrialN,trials_4.thisN,trials_4.thisIndex,trials_4.ran,trials_5.thisRepN,trials_5.thisTrialN,trials_5.thisN,trials_5.thisIndex,trials_5.ran,repOne,repTwo,slider.response,slider.rt,trials_22.thisRepN,trials_22.thisTrialN,trials_22.thisN,trials_22.thisIndex,trials_22.ran,trials_99.thisRepN,trials_99.thisTrialN,trials_99.thisN,trials_99.thisIndex,trials_99.ran,slider_extend_2.response,slider_extend_2.rt,trials_6.thisRepN,trials_6.thisTrialN,trials_6.thisN,trials_6.thisIndex,trials_6.ran,vCue2,R1,R2,R3,R4,correct,sliderVocab.response,sliderVocab.rt,trials_7.thisRepN,trials_7.thisTrialN,trials_7.thisN,trials_7.thisIndex,trials_7.ran,VocabCue,VR1,VR2,VR3,VR4,VR5,VocabCorrect,AUT_resp,AUT_label,trials.thisRepN,trials.thisTrialN,trials.thisN,trials.thisIndex,trials.ran,trials_2.thisRepN,trials_2.thisTrialN,trials_2.thisN,trials_2.thisIndex,trials_2.ran,aut_prompt,VF_response,VF_tag,trials_16.thisRepN,trials_16.thisTrialN,trials_16.thisN,trials_16.thisIndex,trials_16.ran,trials_17.thisRepN,trials_17.thisTrialN,trials_17.thisN,trials_17.thisIndex,trials_17.ran,VFcond,open_slider.response,open_slider.rt,trials_3.thisRepN,trials_3.thisTrialN,trials_3.thisN,trials_3.thisIndex,trials_3.ran,OpenQ,Rev,OPEN_ORDER,key_resp_2.keys,key_resp_2.rt
return,9.2875,2,12.1437,2,12.1437,0,0,0,64,1,157,refrigerator,rose,,90424,001,2022-04-26_09h36.54.335,SPAMnetsValid,2021.1.4,MacIntel,59.99880002,,,,,,,,,,,,,,,,,,,,,,,,,,,,,,,,,,,,,,,,,,,,,,,,,,,,,,,,,,,,,,,,,,,,,,,,,,,,,,,,,,,,,,,,,
,,3,3.0709,3,3.0709,0,1,1,91,1,166,cake,yogurt,,90424,001,2022-04-26_09h36.54.335,SPAMnetsValid,2021.1.4,MacIntel,59.99880002,,,,,,,,,,,,,,,,,,,,,,,,,,,,,,,,,,,,,,,,,,,,,,,,,,,,,,,,,,,,,,,,,,,,,,,,,,,,,,,,,,,,,,,,,
,,2,2.1225,2,2.1225,0,2,2,24,1,169,onion,yogurt,,90424,001,2022-04-26_09h36.54.335,SPAMnetsValid,2021.1.4,MacIntel,59.99880002,,,,,,,,,,,,,,,,,,,,,,,,,,,,,,,,,,,,,,,,,,,,,,,,,,,,,,,,,,,,,,,,,,,,,,,,,,,,,,,,,,,,,,,,,
,,2,1.3255,2,1.3255,0,3,3,93,1,134,carrot,flower,,90424,001,2022-04-26_09h36.54.335,SPAMnetsValid,2021.1.4,MacIntel,59.99880002,,,,,,,,,,,,,,,,,,,,,,,,,,,,,,,,,,,,,,,,,,,,,,,,,,,,,,,,,,,,,,,,,,,,,,,,,,,,,,,,,,,,,,,,,
,,2,1.7786,2,1.7786,0,4,4,4,1,109,broom,strawberry,,90424,001,2022-04-26_09h36.54.335,SPAMnetsValid,2021.1.4,MacIntel,59.99880002,,,,,,,,,,,,,,,,,,,,,,,,,,,,,,,,,,,,,,,,,,,,,,,,,,,,,,,,,,,,,,,,,,,,,,,,,,,,,,,,,,,,,,,,,
,,1,1.8984,1,1.8984,0,5,5,55,1,143,pretzel,rose,,90424,001,2022-04-26_09h36.54.335,SPAMnetsValid,2021.1.4,MacIntel,59.99880002,,,,,,,,,,,,,,,,,,,,,,,,,,,,,,,,,,,,,,,,,,,,,,,,,,,,,,,,,,,,,,,,,,,,,,,,,,,,,,,,,,,,,,,,,
,,4,3.0596,4,3.0596,0,6,6,19,1,183,cake,rose,,90424,001,2022-04-26_09h36.54.335,SPAMnetsValid,2021.1.4,MacIntel,59.99880002,,,,,,,,,,,,,,,,,,,,,,,,,,,,,,,,,,,,,,,,,,,,,,,,,,,,,,,,,,,,,,,,,,,,,,,,,,,,,,,,,,,,,,,,,
,,4,1.7932,4,1.7932,0,7,7,92,1,170,cookie,microwave,,90424,001,2022-04-26_09h36.54.335,SPAMnetsValid,2021.1.4,MacIntel,59.99880002,,,,,,,,,,,,,,,,,,,,,,,,,,,,,,,,,,,,,,,,,,,,,,,,,,,,,,,,,,,,,,,,,,,,,,,,,,,,,,,,,,,,,,,,,
,,6,1.4249,6,1.4249,0,8,8,96,1,136,chocolate,microwave,,90424,001,2022-04-26_09h36.54.335,SPAMnetsValid,2021.1.4,MacIntel,59.99880002,,,,,,,,,,,,,,,,,,,,,,,,,,,,,,,,,,,,,,,,,,,,,,,,,,,,,,,,,,,,,,,,,,,,,,,,,,,,,,,,,,,,,,,,,
,,8,1.8759,8,1.8759,0,9,9,83,1,100,garden,tomato,,90424,001,2022-04-26_09h36.54.335,SPAMnetsValid,2021.1.4,MacIntel,59.99880002,,,,,,,,,,,,,,,,,,,,,,,,,,,,,,,,,,,,,,,,,,,,,,,,,,,,,,,,,,,,,,,,,,,,,,,,,,,,,,,,,,,,,,,,,
,,7,2.0715,7,2.0715,0,10,10,36,1,161,kitchen,pretzel,,90424,001,2022-04-26_09h36.54.335,SPAMnetsValid,2021.1.4,MacIntel,59.99880002,,,,,,,,,,,,,,,,,,,,,,,,,,,,,,,,,,,,,,,,,,,,,,,,,,,,,,,,,,,,,,,,,,,,,,,,,,,,,,,,,,,,,,,,,
,,4,1.8662,4,1.8662,0,11,11,67,1,96,oven,strawberry,,90424,001,2022-04-26_09h36.54.335,SPAMnetsValid,2021.1.4,MacIntel,59.99880002,,,,,,,,,,,,,,,,,,,,,,,,,,,,,,,,,,,,,,,,,,,,,,,,,,,,,,,,,,,,,,,,,,,,,,,,,,,,,,,,,,,,,,,,,
,,4,1.705,4,1.705,0,12,12,70,1,141,melon,tomato,,90424,001,2022-04-26_09h36.54.335,SPAMnetsValid,2021.1.4,MacIntel,59.99880002,,,,,,,,,,,,,,,,,,,,,,,,,,,,,,,,,,,,,,,,,,,,,,,,,,,,,,,,,,,,,,,,,,,,,,,,,,,,,,,,,,,,,,,,,
,,4,1.2623,4,1.2623,0,13,13,29,1,163,melon,refrigerator,,90424,001,2022-04-26_09h36.54.335,SPAMnetsValid,2021.1.4,MacIntel,59.99880002,,,,,,,,,,,,,,,,,,,,,,,,,,,,,,,,,,,,,,,,,,,,,,,,,,,,,,,,,,,,,,,,,,,,,,,,,,,,,,,,,,,,,,,,,
,,6,1.543,6,1.543,0,14,14,17,1,99,garden,melon,,90424,001,2022-04-26_09h36.54.335,SPAMnetsValid,2021.1.4,MacIntel,59.99880002,,,,,,,,,,,,,,,,,,,,,,,,,,,,,,,,,,,,,,,,,,,,,,,,,,,,,,,,,,,,,,,,,,,,,,,,,,,,,,,,,,,,,,,,,
,,4,1.4576,4,1.4576,0,15,15,72,1,181,carrot,kitchen,,90424,001,2022-04-26_09h36.54.335,SPAMnetsValid,2021.1.4,MacIntel,59.99880002,,,,,,,,,,,,,,,,,,,,,,,,,,,,,,,,,,,,,,,,,,,,,,,,,,,,,,,,,,,,,,,,,,,,,,,,,,,,,,,,,,,,,,,,,
,,9,1.7927,9,1.7927,0,16,16,61,1,138,flower,rose,,90424,001,2022-04-26_09h36.54.335,SPAMnetsValid,2021.1.4,MacIntel,59.99880002,,,,,,,,,,,,,,,,,,,,,,,,,,,,,,,,,,,,,,,,,,,,,,,,,,,,,,,,,,,,,,,,,,,,,,,,,,,,,,,,,,,,,,,,,
,,2,1.6382,2,1.6382,0,17,17,82,1,98,pretzel,strawberry,,90424,001,2022-04-26_09h36.54.335,SPAMnetsValid,2021.1.4,MacIntel,59.99880002,,,,,,,,,,,,,,,,,,,,,,,,,,,,,,,,,,,,,,,,,,,,,,,,,,,,,,,,,,,,,,,,,,,,,,,,,,,,,,,,,,,,,,,,,
,,6,1.406,6,1.406,0,18,18,27,1,158,cookie,oven,,90424,001,2022-04-26_09h36.54.335,SPAMnetsValid,2021.1.4,MacIntel,59.99880002,,,,,,,,,,,,,,,,,,,,,,,,,,,,,,,,,,,,,,,,,,,,,,,,,,,,,,,,,,,,,,,,,,,,,,,,,,,,,,,,,,,,,,,,,
,,6,1.722,6,1.722,0,19,19,2,1,174,cake,pretzel,,90424,001,2022-04-26_09h36.54.335,SPAMnetsValid,2021.1.4,MacIntel,59.99880002,,,,,,,,,,,,,,,,,,,,,,,,,,,,,,,,,,,,,,,,,,,,,,,,,,,,,,,,,,,,,,,,,,,,,,,,,,,,,,,,,,,,,,,,,
,,3,2.0578,3,2.0578,0,20,20,5,1,108,carrot,chocolate,,90424,001,2022-04-26_09h36.54.335,SPAMnetsValid,2021.1.4,MacIntel,59.99880002,,,,,,,,,,,,,,,,,,,,,,,,,,,,,,,,,,,,,,,,,,,,,,,,,,,,,,,,,,,,,,,,,,,,,,,,,,,,,,,,,,,,,,,,,
,,2,2.0283,2,2.0283,0,21,21,68,1,180,tree,yogurt,,90424,001,2022-04-26_09h36.54.335,SPAMnetsValid,2021.1.4,MacIntel,59.99880002,,,,,,,,,,,,,,,,,,,,,,,,,,,,,,,,,,,,,,,,,,,,,,,,,,,,,,,,,,,,,,,,,,,,,,,,,,,,,,,,,,,,,,,,,
,,9,1.8602,9,1.8602,0,22,22,14,1,120,microwave,oven,,90424,001,2022-04-26_09h36.54.335,SPAMnetsValid,2021.1.4,MacIntel,59.99880002,,,,,,,,,,,,,,,,,,,,,,,,,,,,,,,,,,,,,,,,,,,,,,,,,,,,,,,,,,,,,,,,,,,,,,,,,,,,,,,,,,,,,,,,,
,,9,2.1538,9,2.1538,0,23,23,39,1,112,cake,carrot,,90424,001,2022-04-26_09h36.54.335,SPAMnetsValid,2021.1.4,MacIntel,59.99880002,,,,,,,,,,,,,,,,,,,,,,,,,,,,,,,,,,,,,,,,,,,,,,,,,,,,,,,,,,,,,,,,,,,,,,,,,,,,,,,,,,,,,,,,,
,,7,1.989,7,1.989,0,24,24,10,1,118,chocolate,oven,,90424,001,2022-04-26_09h36.54.335,SPAMnetsValid,2021.1.4,MacIntel,59.99880002,,,,,,,,,,,,,,,,,,,,,,,,,,,,,,,,,,,,,,,,,,,,,,,,,,,,,,,,,,,,,,,,,,,,,,,,,,,,,,,,,,,,,,,,,
,,7,1.5323,7,1.5323,0,25,25,77,1,172,kitchen,melon,,90424,001,2022-04-26_09h36.54.335,SPAMnetsValid,2021.1.4,MacIntel,59.99880002,,,,,,,,,,,,,,,,,,,,,,,,,,,,,,,,,,,,,,,,,,,,,,,,,,,,,,,,,,,,,,,,,,,,,,,,,,,,,,,,,,,,,,,,,
,,2,1.9767,2,1.9767,0,26,26,16,1,111,carrot,microwave,,90424,001,2022-04-26_09h36.54.335,SPAMnetsValid,2021.1.4,MacIntel,59.99880002,,,,,,,,,,,,,,,,,,,,,,,,,,,,,,,,,,,,,,,,,,,,,,,,,,,,,,,,,,,,,,,,,,,,,,,,,,,,,,,,,,,,,,,,,
,,7,1.9974,7,1.9974,0,27,27,11,1,117,melon,strawberry,,90424,001,2022-04-26_09h36.54.335,SPAMnetsValid,2021.1.4,MacIntel,59.99880002,,,,,,,,,,,,,,,,,,,,,,,,,,,,,,,,,,,,,,,,,,,,,,,,,,,,,,,,,,,,,,,,,,,,,,,,,,,,,,,,,,,,,,,,,
,,2,1.5551,2,1.5551,0,28,28,34,1,153,carrot,pretzel,,90424,001,2022-04-26_09h36.54.335,SPAMnetsValid,2021.1.4,MacIntel,59.99880002,,,,,,,,,,,,,,,,,,,,,,,,,,,,,,,,,,,,,,,,,,,,,,,,,,,,,,,,,,,,,,,,,,,,,,,,,,,,,,,,,,,,,,,,,
,,3,1.4654,3,1.4654,0,29,29,75,1,178,cactus,carrot,,90424,001,2022-04-26_09h36.54.335,SPAMnetsValid,2021.1.4,MacIntel,59.99880002,,,,,,,,,,,,,,,,,,,,,,,,,,,,,,,,,,,,,,,,,,,,,,,,,,,,,,,,,,,,,,,,,,,,,,,,,,,,,,,,,,,,,,,,,
,,3,1.6951,3,1.6951,0,30,30,43,1,185,cactus,rose,,90424,001,2022-04-26_09h36.54.335,SPAMnetsValid,2021.1.4,MacIntel,59.99880002,,,,,,,,,,,,,,,,,,,,,,,,,,,,,,,,,,,,,,,,,,,,,,,,,,,,,,,,,,,,,,,,,,,,,,,,,,,,,,,,,,,,,,,,,
,,8,2.3913,8,2.3913,0,31,31,52,1,110,chocolate,cookie,,90424,001,2022-04-26_09h36.54.335,SPAMnetsValid,2021.1.4,MacIntel,59.99880002,,,,,,,,,,,,,,,,,,,,,,,,,,,,,,,,,,,,,,,,,,,,,,,,,,,,,,,,,,,,,,,,,,,,,,,,,,,,,,,,,,,,,,,,,
,,8,1.141,8,1.141,0,32,32,1,1,173,kitchen,tomato,,90424,001,2022-04-26_09h36.54.335,SPAMnetsValid,2021.1.4,MacIntel,59.99880002,,,,,,,,,,,,,,,,,,,,,,,,,,,,,,,,,,,,,,,,,,,,,,,,,,,,,,,,,,,,,,,,,,,,,,,,,,,,,,,,,,,,,,,,,
,,8,1.0804,8,1.0804,0,33,33,53,1,177,chocolate,strawberry,,90424,001,2022-04-26_09h36.54.335,SPAMnetsValid,2021.1.4,MacIntel,59.99880002,,,,,,,,,,,,,,,,,,,,,,,,,,,,,,,,,,,,,,,,,,,,,,,,,,,,,,,,,,,,,,,,,,,,,,,,,,,,,,,,,,,,,,,,,
,,6,1.8799,6,1.8799,0,34,34,26,1,107,rose,tomato,,90424,001,2022-04-26_09h36.54.335,SPAMnetsValid,2021.1.4,MacIntel,59.99880002,,,,,,,,,,,,,,,,,,,,,,,,,,,,,,,,,,,,,,,,,,,,,,,,,,,,,,,,,,,,,,,,,,,,,,,,,,,,,,,,,,,,,,,,,
,,3,1.7571,3,1.7571,0,35,35,84,1,130,microwave,yogurt,,90424,001,2022-04-26_09h36.54.335,SPAMnetsValid,2021.1.4,MacIntel,59.99880002,,,,,,,,,,,,,,,,,,,,,,,,,,,,,,,,,,,,,,,,,,,,,,,,,,,,,,,,,,,,,,,,,,,,,,,,,,,,,,,,,,,,,,,,,
,,3,1.9925,3,1.9925,0,36,36,47,1,167,carrot,garden,,90424,001,2022-04-26_09h36.54.335,SPAMnetsValid,2021.1.4,MacIntel,59.99880002,,,,,,,,,,,,,,,,,,,,,,,,,,,,,,,,,,,,,,,,,,,,,,,,,,,,,,,,,,,,,,,,,,,,,,,,,,,,,,,,,,,,,,,,,
,,9,1.6884,9,1.6884,0,37,37,22,1,142,garden,tree,,90424,001,2022-04-26_09h36.54.335,SPAMnetsValid,2021.1.4,MacIntel,59.99880002,,,,,,,,,,,,,,,,,,,,,,,,,,,,,,,,,,,,,,,,,,,,,,,,,,,,,,,,,,,,,,,,,,,,,,,,,,,,,,,,,,,,,,,,,
,,6,1.3214,6,1.3214,0,38,38,23,1,148,flower,melon,,90424,001,2022-04-26_09h36.54.335,SPAMnetsValid,2021.1.4,MacIntel,59.99880002,,,,,,,,,,,,,,,,,,,,,,,,,,,,,,,,,,,,,,,,,,,,,,,,,,,,,,,,,,,,,,,,,,,,,,,,,,,,,,,,,,,,,,,,,
,,2,1.6237,2,1.6237,0,39,39,88,1,171,cake,tomato,,90424,001,2022-04-26_09h36.54.335,SPAMnetsValid,2021.1.4,MacIntel,59.99880002,,,,,,,,,,,,,,,,,,,,,,,,,,,,,,,,,,,,,,,,,,,,,,,,,,,,,,,,,,,,,,,,,,,,,,,,,,,,,,,,,,,,,,,,,
,,2,1.7157,2,1.7157,0,40,40,46,1,123,cookie,tree,,90424,001,2022-04-26_09h36.54.335,SPAMnetsValid,2021.1.4,MacIntel,59.99880002,,,,,,,,,,,,,,,,,,,,,,,,,,,,,,,,,,,,,,,,,,,,,,,,,,,,,,,,,,,,,,,,,,,,,,,,,,,,,,,,,,,,,,,,,
,,2,0.8374,2,0.8374,0,41,41,59,1,164,cookie,garden,,90424,001,2022-04-26_09h36.54.335,SPAMnetsValid,2021.1.4,MacIntel,59.99880002,,,,,,,,,,,,,,,,,,,,,,,,,,,,,,,,,,,,,,,,,,,,,,,,,,,,,,,,,,,,,,,,,,,,,,,,,,,,,,,,,,,,,,,,,
,,8,1.3905,8,1.3905,0,42,42,69,1,124,oven,refrigerator,,90424,001,2022-04-26_09h36.54.335,SPAMnetsValid,2021.1.4,MacIntel,59.99880002,,,,,,,,,,,,,,,,,,,,,,,,,,,,,,,,,,,,,,,,,,,,,,,,,,,,,,,,,,,,,,,,,,,,,,,,,,,,,,,,,,,,,,,,,
,,2,1.58,2,1.58,0,43,43,58,1,144,cake,garden,,90424,001,2022-04-26_09h36.54.335,SPAMnetsValid,2021.1.4,MacIntel,59.99880002,,,,,,,,,,,,,,,,,,,,,,,,,,,,,,,,,,,,,,,,,,,,,,,,,,,,,,,,,,,,,,,,,,,,,,,,,,,,,,,,,,,,,,,,,
,,4,2.948,4,2.948,0,44,44,0,1,106,cake,strawberry,,90424,001,2022-04-26_09h36.54.335,SPAMnetsValid,2021.1.4,MacIntel,59.99880002,,,,,,,,,,,,,,,,,,,,,,,,,,,,,,,,,,,,,,,,,,,,,,,,,,,,,,,,,,,,,,,,,,,,,,,,,,,,,,,,,,,,,,,,,
,,1,2.2284,1,2.2284,0,45,45,57,1,127,cactus,chocolate,,90424,001,2022-04-26_09h36.54.335,SPAMnetsValid,2021.1.4,MacIntel,59.99880002,,,,,,,,,,,,,,,,,,,,,,,,,,,,,,,,,,,,,,,,,,,,,,,,,,,,,,,,,,,,,,,,,,,,,,,,,,,,,,,,,,,,,,,,,
,,1,1.4569,1,1.4569,0,46,46,81,1,104,garden,microwave,,90424,001,2022-04-26_09h36.54.335,SPAMnetsValid,2021.1.4,MacIntel,59.99880002,,,,,,,,,,,,,,,,,,,,,,,,,,,,,,,,,,,,,,,,,,,,,,,,,,,,,,,,,,,,,,,,,,,,,,,,,,,,,,,,,,,,,,,,,
,,2,1.2758,2,1.2758,0,47,47,38,1,155,carrot,cookie,,90424,001,2022-04-26_09h36.54.335,SPAMnetsValid,2021.1.4,MacIntel,59.99880002,,,,,,,,,,,,,,,,,,,,,,,,,,,,,,,,,,,,,,,,,,,,,,,,,,,,,,,,,,,,,,,,,,,,,,,,,,,,,,,,,,,,,,,,,
,,2,1.6059,2,1.6059,0,48,48,78,1,132,broom,tree,,90424,001,2022-04-26_09h36.54.335,SPAMnetsValid,2021.1.4,MacIntel,59.99880002,,,,,,,,,,,,,,,,,,,,,,,,,,,,,,,,,,,,,,,,,,,,,,,,,,,,,,,,,,,,,,,,,,,,,,,,,,,,,,,,,,,,,,,,,
,,4,1.8262,4,1.8262,0,49,49,37,1,139,carrot,strawberry,,90424,001,2022-04-26_09h36.54.335,SPAMnetsValid,2021.1.4,MacIntel,59.99880002,,,,,,,,,,,,,,,,,,,,,,,,,,,,,,,,,,,,,,,,,,,,,,,,,,,,,,,,,,,,,,,,,,,,,,,,,,,,,,,,,,,,,,,,,
,,3,2.8908,3,2.8908,0,50,50,94,1,133,cake,flower,,90424,001,2022-04-26_09h36.54.335,SPAMnetsValid,2021.1.4,MacIntel,59.99880002,,,,,,,,,,,,,,,,,,,,,,,,,,,,,,,,,,,,,,,,,,,,,,,,,,,,,,,,,,,,,,,,,,,,,,,,,,,,,,,,,,,,,,,,,
,,3,0.8391,3,0.8391,0,51,51,8,1,97,chocolate,kitchen,,90424,001,2022-04-26_09h36.54.335,SPAMnetsValid,2021.1.4,MacIntel,59.99880002,,,,,,,,,,,,,,,,,,,,,,,,,,,,,,,,,,,,,,,,,,,,,,,,,,,,,,,,,,,,,,,,,,,,,,,,,,,,,,,,,,,,,,,,,
,,3,1.0926,3,1.0926,0,52,52,33,1,131,cactus,garden,,90424,001,2022-04-26_09h36.54.335,SPAMnetsValid,2021.1.4,MacIntel,59.99880002,,,,,,,,,,,,,,,,,,,,,,,,,,,,,,,,,,,,,,,,,,,,,,,,,,,,,,,,,,,,,,,,,,,,,,,,,,,,,,,,,,,,,,,,,
,,7,1.1832,7,1.1832,0,53,53,95,1,121,broom,microwave,,90424,001,2022-04-26_09h36.54.335,SPAMnetsValid,2021.1.4,MacIntel,59.99880002,,,,,,,,,,,,,,,,,,,,,,,,,,,,,,,,,,,,,,,,,,,,,,,,,,,,,,,,,,,,,,,,,,,,,,,,,,,,,,,,,,,,,,,,,
,,3,3.7121,3,3.7121,0,54,54,79,1,103,pretzel,tomato,,90424,001,2022-04-26_09h36.54.335,SPAMnetsValid,2021.1.4,MacIntel,59.99880002,,,,,,,,,,,,,,,,,,,,,,,,,,,,,,,,,,,,,,,,,,,,,,,,,,,,,,,,,,,,,,,,,,,,,,,,,,,,,,,,,,,,,,,,,
,,2,10.0931,2,10.0931,0,55,55,71,1,187,cactus,microwave,,90424,001,2022-04-26_09h36.54.335,SPAMnetsValid,2021.1.4,MacIntel,59.99880002,,,,,,,,,,,,,,,,,,,,,,,,,,,,,,,,,,,,,,,,,,,,,,,,,,,,,,,,,,,,,,,,,,,,,,,,,,,,,,,,,,,,,,,,,
,,3,2.4048,3,2.4048,0,56,56,89,1,140,cookie,refrigerator,,90424,001,2022-04-26_09h36.54.335,SPAMnetsValid,2021.1.4,MacIntel,59.99880002,,,,,,,,,,,,,,,,,,,,,,,,,,,,,,,,,,,,,,,,,,,,,,,,,,,,,,,,,,,,,,,,,,,,,,,,,,,,,,,,,,,,,,,,,
,,3,0.9857,3,0.9857,0,57,57,51,1,168,cactus,flower,,90424,001,2022-04-26_09h36.54.335,SPAMnetsValid,2021.1.4,MacIntel,59.99880002,,,,,,,,,,,,,,,,,,,,,,,,,,,,,,,,,,,,,,,,,,,,,,,,,,,,,,,,,,,,,,,,,,,,,,,,,,,,,,,,,,,,,,,,,
,,2,1.6739,2,1.6739,0,58,58,7,1,188,flower,tree,,90424,001,2022-04-26_09h36.54.335,SPAMnetsValid,2021.1.4,MacIntel,59.99880002,,,,,,,,,,,,,,,,,,,,,,,,,,,,,,,,,,,,,,,,,,,,,,,,,,,,,,,,,,,,,,,,,,,,,,,,,,,,,,,,,,,,,,,,,
,,4,6.6703,4,6.6703,0,59,59,42,1,184,oven,pretzel,,90424,001,2022-04-26_09h36.54.335,SPAMnetsValid,2021.1.4,MacIntel,59.99880002,,,,,,,,,,,,,,,,,,,,,,,,,,,,,,,,,,,,,,,,,,,,,,,,,,,,,,,,,,,,,,,,,,,,,,,,,,,,,,,,,,,,,,,,,
,,2,1.5628,2,1.5628,0,60,60,18,1,119,strawberry,tree,,90424,001,2022-04-26_09h36.54.335,SPAMnetsValid,2021.1.4,MacIntel,59.99880002,,,,,,,,,,,,,,,,,,,,,,,,,,,,,,,,,,,,,,,,,,,,,,,,,,,,,,,,,,,,,,,,,,,,,,,,,,,,,,,,,,,,,,,,,
,,2,1.7665,2,1.7665,0,61,61,90,1,190,microwave,strawberry,,90424,001,2022-04-26_09h36.54.335,SPAMnetsValid,2021.1.4,MacIntel,59.99880002,,,,,,,,,,,,,,,,,,,,,,,,,,,,,,,,,,,,,,,,,,,,,,,,,,,,,,,,,,,,,,,,,,,,,,,,,,,,,,,,,,,,,,,,,
,,6,1.8414,6,1.8414,0,62,62,85,1,115,refrigerator,tomato,,90424,001,2022-04-26_09h36.54.335,SPAMnetsValid,2021.1.4,MacIntel,59.99880002,,,,,,,,,,,,,,,,,,,,,,,,,,,,,,,,,,,,,,,,,,,,,,,,,,,,,,,,,,,,,,,,,,,,,,,,,,,,,,,,,,,,,,,,,
,,3,1.4296,3,1.4296,0,63,63,20,1,149,broom,tomato,,90424,001,2022-04-26_09h36.54.335,SPAMnetsValid,2021.1.4,MacIntel,59.99880002,,,,,,,,,,,,,,,,,,,,,,,,,,,,,,,,,,,,,,,,,,,,,,,,,,,,,,,,,,,,,,,,,,,,,,,,,,,,,,,,,,,,,,,,,
,,2,1.2145,2,1.2145,0,64,64,3,1,129,cactus,refrigerator,,90424,001,2022-04-26_09h36.54.335,SPAMnetsValid,2021.1.4,MacIntel,59.99880002,,,,,,,,,,,,,,,,,,,,,,,,,,,,,,,,,,,,,,,,,,,,,,,,,,,,,,,,,,,,,,,,,,,,,,,,,,,,,,,,,,,,,,,,,
,,2,0.8759,2,0.8759,0,65,65,48,1,186,kitchen,yogurt,,90424,001,2022-04-26_09h36.54.335,SPAMnetsValid,2021.1.4,MacIntel,59.99880002,,,,,,,,,,,,,,,,,,,,,,,,,,,,,,,,,,,,,,,,,,,,,,,,,,,,,,,,,,,,,,,,,,,,,,,,,,,,,,,,,,,,,,,,,
,,2,0.8714,2,0.8714,0,66,66,73,1,135,carrot,oven,,90424,001,2022-04-26_09h36.54.335,SPAMnetsValid,2021.1.4,MacIntel,59.99880002,,,,,,,,,,,,,,,,,,,,,,,,,,,,,,,,,,,,,,,,,,,,,,,,,,,,,,,,,,,,,,,,,,,,,,,,,,,,,,,,,,,,,,,,,
,,2,1.0746,2,1.0746,0,67,67,62,1,189,onion,tree,,90424,001,2022-04-26_09h36.54.335,SPAMnetsValid,2021.1.4,MacIntel,59.99880002,,,,,,,,,,,,,,,,,,,,,,,,,,,,,,,,,,,,,,,,,,,,,,,,,,,,,,,,,,,,,,,,,,,,,,,,,,,,,,,,,,,,,,,,,
,,7,1.3993,7,1.3993,0,68,68,66,1,150,microwave,refrigerator,,90424,001,2022-04-26_09h36.54.335,SPAMnetsValid,2021.1.4,MacIntel,59.99880002,,,,,,,,,,,,,,,,,,,,,,,,,,,,,,,,,,,,,,,,,,,,,,,,,,,,,,,,,,,,,,,,,,,,,,,,,,,,,,,,,,,,,,,,,
,,9,1.8042,9,1.8042,0,69,69,25,1,194,cactus,cactus,CHECK,90424,001,2022-04-26_09h36.54.335,SPAMnetsValid,2021.1.4,MacIntel,59.99880002,,,,,,,,,,,,,,,,,,,,,,,,,,,,,,,,,,,,,,,,,,,,,,,,,,,,,,,,,,,,,,,,,,,,,,,,,,,,,,,,,,,,,,,,,
,,3,1.3762,3,1.3762,0,70,70,9,1,176,cactus,tomato,,90424,001,2022-04-26_09h36.54.335,SPAMnetsValid,2021.1.4,MacIntel,59.99880002,,,,,,,,,,,,,,,,,,,,,,,,,,,,,,,,,,,,,,,,,,,,,,,,,,,,,,,,,,,,,,,,,,,,,,,,,,,,,,,,,,,,,,,,,
,,2,1.6916,2,1.6916,0,71,71,45,1,179,broom,oven,,90424,001,2022-04-26_09h36.54.335,SPAMnetsValid,2021.1.4,MacIntel,59.99880002,,,,,,,,,,,,,,,,,,,,,,,,,,,,,,,,,,,,,,,,,,,,,,,,,,,,,,,,,,,,,,,,,,,,,,,,,,,,,,,,,,,,,,,,,
,,2,1.105,2,1.105,0,72,72,35,1,147,cake,refrigerator,,90424,001,2022-04-26_09h36.54.335,SPAMnetsValid,2021.1.4,MacIntel,59.99880002,,,,,,,,,,,,,,,,,,,,,,,,,,,,,,,,,,,,,,,,,,,,,,,,,,,,,,,,,,,,,,,,,,,,,,,,,,,,,,,,,,,,,,,,,
,,1,1.649,1,1.649,0,73,73,74,1,128,melon,microwave,,90424,001,2022-04-26_09h36.54.335,SPAMnetsValid,2021.1.4,MacIntel,59.99880002,,,,,,,,,,,,,,,,,,,,,,,,,,,,,,,,,,,,,,,,,,,,,,,,,,,,,,,,,,,,,,,,,,,,,,,,,,,,,,,,,,,,,,,,,
,,2,1.3717,2,1.3717,0,74,74,12,1,162,microwave,tomato,,90424,001,2022-04-26_09h36.54.335,SPAMnetsValid,2021.1.4,MacIntel,59.99880002,,,,,,,,,,,,,,,,,,,,,,,,,,,,,,,,,,,,,,,,,,,,,,,,,,,,,,,,,,,,,,,,,,,,,,,,,,,,,,,,,,,,,,,,,
,,2,0.9055,2,0.9055,0,75,75,63,1,137,microwave,tree,,90424,001,2022-04-26_09h36.54.335,SPAMnetsValid,2021.1.4,MacIntel,59.99880002,,,,,,,,,,,,,,,,,,,,,,,,,,,,,,,,,,,,,,,,,,,,,,,,,,,,,,,,,,,,,,,,,,,,,,,,,,,,,,,,,,,,,,,,,
,,9,2.1559,9,2.1559,0,76,76,60,1,122,flower,garden,,90424,001,2022-04-26_09h36.54.335,SPAMnetsValid,2021.1.4,MacIntel,59.99880002,,,,,,,,,,,,,,,,,,,,,,,,,,,,,,,,,,,,,,,,,,,,,,,,,,,,,,,,,,,,,,,,,,,,,,,,,,,,,,,,,,,,,,,,,
,,4,1.8336,4,1.8336,0,77,77,28,1,154,strawberry,yogurt,,90424,001,2022-04-26_09h36.54.335,SPAMnetsValid,2021.1.4,MacIntel,59.99880002,,,,,,,,,,,,,,,,,,,,,,,,,,,,,,,,,,,,,,,,,,,,,,,,,,,,,,,,,,,,,,,,,,,,,,,,,,,,,,,,,,,,,,,,,
,,1,2.397,1,2.397,0,78,78,15,1,145,cactus,yogurt,,90424,001,2022-04-26_09h36.54.335,SPAMnetsValid,2021.1.4,MacIntel,59.99880002,,,,,,,,,,,,,,,,,,,,,,,,,,,,,,,,,,,,,,,,,,,,,,,,,,,,,,,,,,,,,,,,,,,,,,,,,,,,,,,,,,,,,,,,,
,,3,1.7532,3,1.7532,0,79,79,30,1,125,carrot,tree,,90424,001,2022-04-26_09h36.54.335,SPAMnetsValid,2021.1.4,MacIntel,59.99880002,,,,,,,,,,,,,,,,,,,,,,,,,,,,,,,,,,,,,,,,,,,,,,,,,,,,,,,,,,,,,,,,,,,,,,,,,,,,,,,,,,,,,,,,,
,,1,2.0794,1,2.0794,0,80,80,50,1,126,kitchen,tree,,90424,001,2022-04-26_09h36.54.335,SPAMnetsValid,2021.1.4,MacIntel,59.99880002,,,,,,,,,,,,,,,,,,,,,,,,,,,,,,,,,,,,,,,,,,,,,,,,,,,,,,,,,,,,,,,,,,,,,,,,,,,,,,,,,,,,,,,,,
,,1,1.5151,1,1.5151,0,81,81,40,1,165,onion,rose,,90424,001,2022-04-26_09h36.54.335,SPAMnetsValid,2021.1.4,MacIntel,59.99880002,,,,,,,,,,,,,,,,,,,,,,,,,,,,,,,,,,,,,,,,,,,,,,,,,,,,,,,,,,,,,,,,,,,,,,,,,,,,,,,,,,,,,,,,,
,,4,1.4208,4,1.4208,0,82,82,56,1,113,refrigerator,strawberry,,90424,001,2022-04-26_09h36.54.335,SPAMnetsValid,2021.1.4,MacIntel,59.99880002,,,,,,,,,,,,,,,,,,,,,,,,,,,,,,,,,,,,,,,,,,,,,,,,,,,,,,,,,,,,,,,,,,,,,,,,,,,,,,,,,,,,,,,,,
,,1,2.3076,1,2.3076,0,83,83,49,1,152,cactus,strawberry,,90424,001,2022-04-26_09h36.54.335,SPAMnetsValid,2021.1.4,MacIntel,59.99880002,,,,,,,,,,,,,,,,,,,,,,,,,,,,,,,,,,,,,,,,,,,,,,,,,,,,,,,,,,,,,,,,,,,,,,,,,,,,,,,,,,,,,,,,,
,,1,1.7761,1,1.7761,0,84,84,21,1,159,cookie,flower,,90424,001,2022-04-26_09h36.54.335,SPAMnetsValid,2021.1.4,MacIntel,59.99880002,,,,,,,,,,,,,,,,,,,,,,,,,,,,,,,,,,,,,,,,,,,,,,,,,,,,,,,,,,,,,,,,,,,,,,,,,,,,,,,,,,,,,,,,,
,,1,2.339,1,2.339,0,85,85,32,1,182,flower,refrigerator,,90424,001,2022-04-26_09h36.54.335,SPAMnetsValid,2021.1.4,MacIntel,59.99880002,,,,,,,,,,,,,,,,,,,,,,,,,,,,,,,,,,,,,,,,,,,,,,,,,,,,,,,,,,,,,,,,,,,,,,,,,,,,,,,,,,,,,,,,,
,,1,0.8959,1,0.8959,0,86,86,44,1,116,cake,chocolate,,90424,001,2022-04-26_09h36.54.335,SPAMnetsValid,2021.1.4,MacIntel,59.99880002,,,,,,,,,,,,,,,,,,,,,,,,,,,,,,,,,,,,,,,,,,,,,,,,,,,,,,,,,,,,,,,,,,,,,,,,,,,,,,,,,,,,,,,,,
,,1,1.5397,1,1.5397,0,87,87,13,1,105,cactus,oven,,90424,001,2022-04-26_09h36.54.335,SPAMnetsValid,2021.1.4,MacIntel,59.99880002,,,,,,,,,,,,,,,,,,,,,,,,,,,,,,,,,,,,,,,,,,,,,,,,,,,,,,,,,,,,,,,,,,,,,,,,,,,,,,,,,,,,,,,,,
,,1,1.3421,1,1.3421,0,88,88,41,1,175,melon,onion,,90424,001,2022-04-26_09h36.54.335,SPAMnetsValid,2021.1.4,MacIntel,59.99880002,,,,,,,,,,,,,,,,,,,,,,,,,,,,,,,,,,,,,,,,,,,,,,,,,,,,,,,,,,,,,,,,,,,,,,,,,,,,,,,,,,,,,,,,,
,,3,3.3092,3,3.3092,0,89,89,76,1,102,chocolate,refrigerator,,90424,001,2022-04-26_09h36.54.335,SPAMnetsValid,2021.1.4,MacIntel,59.99880002,,,,,,,,,,,,,,,,,,,,,,,,,,,,,,,,,,,,,,,,,,,,,,,,,,,,,,,,,,,,,,,,,,,,,,,,,,,,,,,,,,,,,,,,,
,,3,1.8142,3,1.8142,0,90,90,31,1,156,melon,rose,,90424,001,2022-04-26_09h36.54.335,SPAMnetsValid,2021.1.4,MacIntel,59.99880002,,,,,,,,,,,,,,,,,,,,,,,,,,,,,,,,,,,,,,,,,,,,,,,,,,,,,,,,,,,,,,,,,,,,,,,,,,,,,,,,,,,,,,,,,
,,1,1.962,1,1.962,0,91,91,54,1,101,cactus,kitchen,,90424,001,2022-04-26_09h36.54.335,SPAMnetsValid,2021.1.4,MacIntel,59.99880002,,,,,,,,,,,,,,,,,,,,,,,,,,,,,,,,,,,,,,,,,,,,,,,,,,,,,,,,,,,,,,,,,,,,,,,,,,,,,,,,,,,,,,,,,
,,6,2.1742,6,2.1742,0,92,92,65,1,160,cookie,kitchen,,90424,001,2022-04-26_09h36.54.335,SPAMnetsValid,2021.1.4,MacIntel,59.99880002,,,,,,,,,,,,,,,,,,,,,,,,,,,,,,,,,,,,,,,,,,,,,,,,,,,,,,,,,,,,,,,,,,,,,,,,,,,,,,,,,,,,,,,,,
,,6,1.8228,6,1.8228,0,93,93,87,1,114,cookie,strawberry,,90424,001,2022-04-26_09h36.54.335,SPAMnetsValid,2021.1.4,MacIntel,59.99880002,,,,,,,,,,,,,,,,,,,,,,,,,,,,,,,,,,,,,,,,,,,,,,,,,,,,,,,,,,,,,,,,,,,,,,,,,,,,,,,,,,,,,,,,,
,,9,2.0077,9,2.0077,0,94,94,86,1,193,melon,melon,CHECK,90424,001,2022-04-26_09h36.54.335,SPAMnetsValid,2021.1.4,MacIntel,59.99880002,,,,,,,,,,,,,,,,,,,,,,,,,,,,,,,,,,,,,,,,,,,,,,,,,,,,,,,,,,,,,,,,,,,,,,,,,,,,,,,,,,,,,,,,,
,,1,1.7553,1,1.7553,0,95,95,80,1,146,pretzel,tree,,90424,001,2022-04-26_09h36.54.335,SPAMnetsValid,2021.1.4,MacIntel,59.99880002,,,,,,,,,,,,,,,,,,,,,,,,,,,,,,,,,,,,,,,,,,,,,,,,,,,,,,,,,,,,,,,,,,,,,,,,,,,,,,,,,,,,,,,,,
,,2,3.5765,2,3.5765,0,96,96,6,1,151,microwave,onion,,90424,001,2022-04-26_09h36.54.335,SPAMnetsValid,2021.1.4,MacIntel,59.99880002,,,,,,,,,,,,,,,,,,,,,,,,,,,,,,,,,,,,,,,,,,,,,,,,,,,,,,,,,,,,,,,,,,,,,,,,,,,,,,,,,,,,,,,,,
,,,,,,,,,,,,,,,90424,001,2022-04-26_09h36.54.335,SPAMnetsValid,2021.1.4,MacIntel,59.99880002,0,0,0,0,1,,,,,,,,,,,,,,,,,,,,,,,,,,,,,,,,,,,,,,,,,,,,,,,,,,,,,,,,,,,,,,,,,,,,,,,,,,,,,,,,,,,,
,,,,,,,,,,,,,,,90424,001,2022-04-26_09h36.54.335,SPAMnetsValid,2021.1.4,MacIntel,59.99880002,,,,,,0,0,0,1,1,0,1,,,,,,,,,,,,,,,,,,,,,,,,,,,,,,,,,,,,,,,,,,,,,,,,,,,,,,,,,,,,,,,,,,,,,,,,,,,,,
,,,,2,2.1459,,,,,,38,pretzel,refrigerator,,90424,001,2022-04-26_09h36.54.335,SPAMnetsValid,2021.1.4,MacIntel,59.99880002,,,,,,,,,,,,,2,2.1459,0,0,0,71,1,,,,,,,,,,,,,,,,,,,,,,,,,,,,,,,,,,,,,,,,,,,,,,,,,,,,,,,,,,,,,,,,,,,,,,
,,,,2,1.9729,,,,,,81,pretzel,yogurt,,90424,001,2022-04-26_09h36.54.335,SPAMnetsValid,2021.1.4,MacIntel,59.99880002,,,,,,,,,,,,,2,1.9729,0,1,1,50,1,,,,,,,,,,,,,,,,,,,,,,,,,,,,,,,,,,,,,,,,,,,,,,,,,,,,,,,,,,,,,,,,,,,,,,
,,,,2,1.471,,,,,,83,broom,carrot,,90424,001,2022-04-26_09h36.54.335,SPAMnetsValid,2021.1.4,MacIntel,59.99880002,,,,,,,,,,,,,2,1.471,0,2,2,4,1,,,,,,,,,,,,,,,,,,,,,,,,,,,,,,,,,,,,,,,,,,,,,,,,,,,,,,,,,,,,,,,,,,,,,,
,,,,1,1.2643,,,,,,47,onion,tomato,,90424,001,2022-04-26_09h36.54.335,SPAMnetsValid,2021.1.4,MacIntel,59.99880002,,,,,,,,,,,,,1,1.2643,0,3,3,51,1,,,,,,,,,,,,,,,,,,,,,,,,,,,,,,,,,,,,,,,,,,,,,,,,,,,,,,,,,,,,,,,,,,,,,,
,,,,1,3.1942,,,,,,26,tomato,yogurt,,90424,001,2022-04-26_09h36.54.335,SPAMnetsValid,2021.1.4,MacIntel,59.99880002,,,,,,,,,,,,,1,3.1942,0,4,4,13,1,,,,,,,,,,,,,,,,,,,,,,,,,,,,,,,,,,,,,,,,,,,,,,,,,,,,,,,,,,,,,,,,,,,,,,
,,,,3,28.1543,,,,,,82,cake,kitchen,,90424,001,2022-04-26_09h36.54.335,SPAMnetsValid,2021.1.4,MacIntel,59.99880002,,,,,,,,,,,,,3,28.1543,0,5,5,96,1,,,,,,,,,,,,,,,,,,,,,,,,,,,,,,,,,,,,,,,,,,,,,,,,,,,,,,,,,,,,,,,,,,,,,,
,,,,3,0.7121,,,,,,13,broom,yogurt,,90424,001,2022-04-26_09h36.54.335,SPAMnetsValid,2021.1.4,MacIntel,59.99880002,,,,,,,,,,,,,3,0.7121,0,6,6,5,1,,,,,,,,,,,,,,,,,,,,,,,,,,,,,,,,,,,,,,,,,,,,,,,,,,,,,,,,,,,,,,,,,,,,,,
,,,,6,1.3284,,,,,,43,chocolate,tomato,,90424,001,2022-04-26_09h36.54.335,SPAMnetsValid,2021.1.4,MacIntel,59.99880002,,,,,,,,,,,,,6,1.3284,0,7,7,8,1,,,,,,,,,,,,,,,,,,,,,,,,,,,,,,,,,,,,,,,,,,,,,,,,,,,,,,,,,,,,,,,,,,,,,,
,,,,1,2.6051,,,,,,91,microwave,rose,,90424,001,2022-04-26_09h36.54.335,SPAMnetsValid,2021.1.4,MacIntel,59.99880002,,,,,,,,,,,,,1,2.6051,0,8,8,84,1,,,,,,,,,,,,,,,,,,,,,,,,,,,,,,,,,,,,,,,,,,,,,,,,,,,,,,,,,,,,,,,,,,,,,,
,,,,2,3.1731,,,,,,16,chocolate,flower,,90424,001,2022-04-26_09h36.54.335,SPAMnetsValid,2021.1.4,MacIntel,59.99880002,,,,,,,,,,,,,2,3.1731,0,9,9,22,1,,,,,,,,,,,,,,,,,,,,,,,,,,,,,,,,,,,,,,,,,,,,,,,,,,,,,,,,,,,,,,,,,,,,,,
,,,,2,1.2465,,,,,,5,oven,tree,,90424,001,2022-04-26_09h36.54.335,SPAMnetsValid,2021.1.4,MacIntel,59.99880002,,,,,,,,,,,,,2,1.2465,0,10,10,70,1,,,,,,,,,,,,,,,,,,,,,,,,,,,,,,,,,,,,,,,,,,,,,,,,,,,,,,,,,,,,,,,,,,,,,,
,,,,2,0.8099,,,,,,92,broom,flower,,90424,001,2022-04-26_09h36.54.335,SPAMnetsValid,2021.1.4,MacIntel,59.99880002,,,,,,,,,,,,,2,0.8099,0,11,11,88,1,,,,,,,,,,,,,,,,,,,,,,,,,,,,,,,,,,,,,,,,,,,,,,,,,,,,,,,,,,,,,,,,,,,,,,
,,,,2,1.8432,,,,,,21,cake,onion,,90424,001,2022-04-26_09h36.54.335,SPAMnetsValid,2021.1.4,MacIntel,59.99880002,,,,,,,,,,,,,2,1.8432,0,12,12,63,1,,,,,,,,,,,,,,,,,,,,,,,,,,,,,,,,,,,,,,,,,,,,,,,,,,,,,,,,,,,,,,,,,,,,,,
,,,,9,18.672,,,,,,76,garden,rose,,90424,001,2022-04-26_09h36.54.335,SPAMnetsValid,2021.1.4,MacIntel,59.99880002,,,,,,,,,,,,,9,18.672,0,13,13,19,1,,,,,,,,,,,,,,,,,,,,,,,,,,,,,,,,,,,,,,,,,,,,,,,,,,,,,,,,,,,,,,,,,,,,,,
,,,,3,1.2613,,,,,,30,cookie,pretzel,,90424,001,2022-04-26_09h36.54.335,SPAMnetsValid,2021.1.4,MacIntel,59.99880002,,,,,,,,,,,,,3,1.2613,0,14,14,78,1,,,,,,,,,,,,,,,,,,,,,,,,,,,,,,,,,,,,,,,,,,,,,,,,,,,,,,,,,,,,,,,,,,,,,,
,,,,2,1.6664,,,,,,42,garden,kitchen,,90424,001,2022-04-26_09h36.54.335,SPAMnetsValid,2021.1.4,MacIntel,59.99880002,,,,,,,,,,,,,2,1.6664,0,15,15,29,1,,,,,,,,,,,,,,,,,,,,,,,,,,,,,,,,,,,,,,,,,,,,,,,,,,,,,,,,,,,,,,,,,,,,,,
,,,,2,0.8717,,,,,,27,cactus,cookie,,90424,001,2022-04-26_09h36.54.335,SPAMnetsValid,2021.1.4,MacIntel,59.99880002,,,,,,,,,,,,,2,0.8717,0,16,16,17,1,,,,,,,,,,,,,,,,,,,,,,,,,,,,,,,,,,,,,,,,,,,,,,,,,,,,,,,,,,,,,,,,,,,,,,
,,,,4,2.2387,,,,,,55,tomato,tree,,90424,001,2022-04-26_09h36.54.335,SPAMnetsValid,2021.1.4,MacIntel,59.99880002,,,,,,,,,,,,,4,2.2387,0,17,17,35,1,,,,,,,,,,,,,,,,,,,,,,,,,,,,,,,,,,,,,,,,,,,,,,,,,,,,,,,,,,,,,,,,,,,,,,
,,,,3,2.3919,,,,,,6,garden,onion,,90424,001,2022-04-26_09h36.54.335,SPAMnetsValid,2021.1.4,MacIntel,59.99880002,,,,,,,,,,,,,3,2.3919,0,18,18,83,1,,,,,,,,,,,,,,,,,,,,,,,,,,,,,,,,,,,,,,,,,,,,,,,,,,,,,,,,,,,,,,,,,,,,,,
,,,,1,2.3549,,,,,,14,broom,cookie,,90424,001,2022-04-26_09h36.54.335,SPAMnetsValid,2021.1.4,MacIntel,59.99880002,,,,,,,,,,,,,1,2.3549,0,19,19,16,1,,,,,,,,,,,,,,,,,,,,,,,,,,,,,,,,,,,,,,,,,,,,,,,,,,,,,,,,,,,,,,,,,,,,,,
,,,,5,2.2542,,,,,,59,rose,strawberry,,90424,001,2022-04-26_09h36.54.335,SPAMnetsValid,2021.1.4,MacIntel,59.99880002,,,,,,,,,,,,,5,2.2542,0,20,20,72,1,,,,,,,,,,,,,,,,,,,,,,,,,,,,,,,,,,,,,,,,,,,,,,,,,,,,,,,,,,,,,,,,,,,,,,
,,,,1,2.5553,,,,,,73,broom,chocolate,,90424,001,2022-04-26_09h36.54.335,SPAMnetsValid,2021.1.4,MacIntel,59.99880002,,,,,,,,,,,,,1,2.5553,0,21,21,47,1,,,,,,,,,,,,,,,,,,,,,,,,,,,,,,,,,,,,,,,,,,,,,,,,,,,,,,,,,,,,,,,,,,,,,,
,,,,2,1.1448,,,,,,25,carrot,onion,,90424,001,2022-04-26_09h36.54.335,SPAMnetsValid,2021.1.4,MacIntel,59.99880002,,,,,,,,,,,,,2,1.1448,0,22,22,44,1,,,,,,,,,,,,,,,,,,,,,,,,,,,,,,,,,,,,,,,,,,,,,,,,,,,,,,,,,,,,,,,,,,,,,,
,,,,2,0.9555,,,,,,11,refrigerator,tree,,90424,001,2022-04-26_09h36.54.335,SPAMnetsValid,2021.1.4,MacIntel,59.99880002,,,,,,,,,,,,,2,0.9555,0,23,23,43,1,,,,,,,,,,,,,,,,,,,,,,,,,,,,,,,,,,,,,,,,,,,,,,,,,,,,,,,,,,,,,,,,,,,,,,
,,,,6,2.1039,,,,,,52,carrot,tomato,,90424,001,2022-04-26_09h36.54.335,SPAMnetsValid,2021.1.4,MacIntel,59.99880002,,,,,,,,,,,,,6,2.1039,0,24,24,95,1,,,,,,,,,,,,,,,,,,,,,,,,,,,,,,,,,,,,,,,,,,,,,,,,,,,,,,,,,,,,,,,,,,,,,,
,,,,5,1.6955,,,,,,29,chocolate,melon,,90424,001,2022-04-26_09h36.54.335,SPAMnetsValid,2021.1.4,MacIntel,59.99880002,,,,,,,,,,,,,5,1.6955,0,25,25,34,1,,,,,,,,,,,,,,,,,,,,,,,,,,,,,,,,,,,,,,,,,,,,,,,,,,,,,,,,,,,,,,,,,,,,,,
,,,,9,2.8052,,,,,,192,microwave,microwave,CHECK,90424,001,2022-04-26_09h36.54.335,SPAMnetsValid,2021.1.4,MacIntel,59.99880002,,,,,,,,,,,,,9,2.8052,0,26,26,53,1,,,,,,,,,,,,,,,,,,,,,,,,,,,,,,,,,,,,,,,,,,,,,,,,,,,,,,,,,,,,,,,,,,,,,,
,,,,5,1.2213,,,,,,88,cactus,melon,,90424,001,2022-04-26_09h36.54.335,SPAMnetsValid,2021.1.4,MacIntel,59.99880002,,,,,,,,,,,,,5,1.2213,0,27,27,38,1,,,,,,,,,,,,,,,,,,,,,,,,,,,,,,,,,,,,,,,,,,,,,,,,,,,,,,,,,,,,,,,,,,,,,,
,,,,5,0.7228,,,,,,15,onion,oven,,90424,001,2022-04-26_09h36.54.335,SPAMnetsValid,2021.1.4,MacIntel,59.99880002,,,,,,,,,,,,,5,0.7228,0,28,28,39,1,,,,,,,,,,,,,,,,,,,,,,,,,,,,,,,,,,,,,,,,,,,,,,,,,,,,,,,,,,,,,,,,,,,,,,
,,,,5,0.7043,,,,,,94,kitchen,microwave,,90424,001,2022-04-26_09h36.54.335,SPAMnetsValid,2021.1.4,MacIntel,59.99880002,,,,,,,,,,,,,5,0.7043,0,29,29,58,1,,,,,,,,,,,,,,,,,,,,,,,,,,,,,,,,,,,,,,,,,,,,,,,,,,,,,,,,,,,,,,,,,,,,,,
,,,,3,0.8079,,,,,,32,cake,microwave,,90424,001,2022-04-26_09h36.54.335,SPAMnetsValid,2021.1.4,MacIntel,59.99880002,,,,,,,,,,,,,3,0.8079,0,30,30,33,1,,,,,,,,,,,,,,,,,,,,,,,,,,,,,,,,,,,,,,,,,,,,,,,,,,,,,,,,,,,,,,,,,,,,,,
,,,,7,0.7551,,,,,,39,melon,pretzel,,90424,001,2022-04-26_09h36.54.335,SPAMnetsValid,2021.1.4,MacIntel,59.99880002,,,,,,,,,,,,,7,0.7551,0,31,31,20,1,,,,,,,,,,,,,,,,,,,,,,,,,,,,,,,,,,,,,,,,,,,,,,,,,,,,,,,,,,,,,,,,,,,,,,
,,,,2,2.1148,,,,,,40,broom,cake,,90424,001,2022-04-26_09h36.54.335,SPAMnetsValid,2021.1.4,MacIntel,59.99880002,,,,,,,,,,,,,2,2.1148,0,32,32,32,1,,,,,,,,,,,,,,,,,,,,,,,,,,,,,,,,,,,,,,,,,,,,,,,,,,,,,,,,,,,,,,,,,,,,,,
,,,,2,1.1233,,,,,,49,flower,strawberry,,90424,001,2022-04-26_09h36.54.335,SPAMnetsValid,2021.1.4,MacIntel,59.99880002,,,,,,,,,,,,,2,1.1233,0,33,33,3,1,,,,,,,,,,,,,,,,,,,,,,,,,,,,,,,,,,,,,,,,,,,,,,,,,,,,,,,,,,,,,,,,,,,,,,
,,,,2,0.8827,,,,,,75,cookie,onion,,90424,001,2022-04-26_09h36.54.335,SPAMnetsValid,2021.1.4,MacIntel,59.99880002,,,,,,,,,,,,,2,0.8827,0,34,34,9,1,,,,,,,,,,,,,,,,,,,,,,,,,,,,,,,,,,,,,,,,,,,,,,,,,,,,,,,,,,,,,,,,,,,,,,
,,,,6,1.7086,,,,,,36,broom,kitchen,,90424,001,2022-04-26_09h36.54.335,SPAMnetsValid,2021.1.4,MacIntel,59.99880002,,,,,,,,,,,,,6,1.7086,0,35,35,76,1,,,,,,,,,,,,,,,,,,,,,,,,,,,,,,,,,,,,,,,,,,,,,,,,,,,,,,,,,,,,,,,,,,,,,,
,,,,2,1.8249,,,,,,60,cactus,onion,,90424,001,2022-04-26_09h36.54.335,SPAMnetsValid,2021.1.4,MacIntel,59.99880002,,,,,,,,,,,,,2,1.8249,0,36,36,81,1,,,,,,,,,,,,,,,,,,,,,,,,,,,,,,,,,,,,,,,,,,,,,,,,,,,,,,,,,,,,,,,,,,,,,,
,,,,2,0.9326,,,,,,86,oven,rose,,90424,001,2022-04-26_09h36.54.335,SPAMnetsValid,2021.1.4,MacIntel,59.99880002,,,,,,,,,,,,,2,0.9326,0,37,37,79,1,,,,,,,,,,,,,,,,,,,,,,,,,,,,,,,,,,,,,,,,,,,,,,,,,,,,,,,,,,,,,,,,,,,,,,
,,,,6,1.6319,,,,,,66,melon,yogurt,,90424,001,2022-04-26_09h36.54.335,SPAMnetsValid,2021.1.4,MacIntel,59.99880002,,,,,,,,,,,,,6,1.6319,0,38,38,48,1,,,,,,,,,,,,,,,,,,,,,,,,,,,,,,,,,,,,,,,,,,,,,,,,,,,,,,,,,,,,,,,,,,,,,,
,,,,2,1.2314,,,,,,74,broom,pretzel,,90424,001,2022-04-26_09h36.54.335,SPAMnetsValid,2021.1.4,MacIntel,59.99880002,,,,,,,,,,,,,2,1.2314,0,39,39,40,1,,,,,,,,,,,,,,,,,,,,,,,,,,,,,,,,,,,,,,,,,,,,,,,,,,,,,,,,,,,,,,,,,,,,,,
,,,,2,1.0883,,,,,,8,broom,melon,,90424,001,2022-04-26_09h36.54.335,SPAMnetsValid,2021.1.4,MacIntel,59.99880002,,,,,,,,,,,,,2,1.0883,0,40,40,59,1,,,,,,,,,,,,,,,,,,,,,,,,,,,,,,,,,,,,,,,,,,,,,,,,,,,,,,,,,,,,,,,,,,,,,,
,,,,3,1.2151,,,,,,58,garden,oven,,90424,001,2022-04-26_09h36.54.335,SPAMnetsValid,2021.1.4,MacIntel,59.99880002,,,,,,,,,,,,,3,1.2151,0,41,41,37,1,,,,,,,,,,,,,,,,,,,,,,,,,,,,,,,,,,,,,,,,,,,,,,,,,,,,,,,,,,,,,,,,,,,,,,
,,,,4,3.7564,,,,,,67,flower,yogurt,,90424,001,2022-04-26_09h36.54.335,SPAMnetsValid,2021.1.4,MacIntel,59.99880002,,,,,,,,,,,,,4,3.7564,0,42,42,12,1,,,,,,,,,,,,,,,,,,,,,,,,,,,,,,,,,,,,,,,,,,,,,,,,,,,,,,,,,,,,,,,,,,,,,,
,,,,4,0.7903,,,,,,77,refrigerator,yogurt,,90424,001,2022-04-26_09h36.54.335,SPAMnetsValid,2021.1.4,MacIntel,59.99880002,,,,,,,,,,,,,4,0.7903,0,43,43,42,1,,,,,,,,,,,,,,,,,,,,,,,,,,,,,,,,,,,,,,,,,,,,,,,,,,,,,,,,,,,,,,,,,,,,,,
,,,,7,1.2047,,,,,,2,kitchen,onion,,90424,001,2022-04-26_09h36.54.335,SPAMnetsValid,2021.1.4,MacIntel,59.99880002,,,,,,,,,,,,,7,1.2047,0,44,44,91,1,,,,,,,,,,,,,,,,,,,,,,,,,,,,,,,,,,,,,,,,,,,,,,,,,,,,,,,,,,,,,,,,,,,,,,
,,,,2,1.4073,,,,,,53,garden,pretzel,,90424,001,2022-04-26_09h36.54.335,SPAMnetsValid,2021.1.4,MacIntel,59.99880002,,,,,,,,,,,,,2,1.4073,0,45,45,0,1,,,,,,,,,,,,,,,,,,,,,,,,,,,,,,,,,,,,,,,,,,,,,,,,,,,,,,,,,,,,,,,,,,,,,,
,,,,3,1.6218,,,,,,10,flower,onion,,90424,001,2022-04-26_09h36.54.335,SPAMnetsValid,2021.1.4,MacIntel,59.99880002,,,,,,,,,,,,,3,1.6218,0,46,46,45,1,,,,,,,,,,,,,,,,,,,,,,,,,,,,,,,,,,,,,,,,,,,,,,,,,,,,,,,,,,,,,,,,,,,,,,
,,,,2,1.1589,,,,,,62,kitchen,rose,,90424,001,2022-04-26_09h36.54.335,SPAMnetsValid,2021.1.4,MacIntel,59.99880002,,,,,,,,,,,,,2,1.1589,0,47,47,57,1,,,,,,,,,,,,,,,,,,,,,,,,,,,,,,,,,,,,,,,,,,,,,,,,,,,,,,,,,,,,,,,,,,,,,,
,,,,2,1.0227,,,,,,68,flower,tomato,,90424,001,2022-04-26_09h36.54.335,SPAMnetsValid,2021.1.4,MacIntel,59.99880002,,,,,,,,,,,,,2,1.0227,0,48,48,94,1,,,,,,,,,,,,,,,,,,,,,,,,,,,,,,,,,,,,,,,,,,,,,,,,,,,,,,,,,,,,,,,,,,,,,,
,,,,3,1.5059,,,,,,12,cookie,yogurt,,90424,001,2022-04-26_09h36.54.335,SPAMnetsValid,2021.1.4,MacIntel,59.99880002,,,,,,,,,,,,,3,1.5059,0,49,49,36,1,,,,,,,,,,,,,,,,,,,,,,,,,,,,,,,,,,,,,,,,,,,,,,,,,,,,,,,,,,,,,,,,,,,,,,
,,,,6,1.8164,,,,,,22,kitchen,strawberry,,90424,001,2022-04-26_09h36.54.335,SPAMnetsValid,2021.1.4,MacIntel,59.99880002,,,,,,,,,,,,,6,1.8164,0,50,50,2,1,,,,,,,,,,,,,,,,,,,,,,,,,,,,,,,,,,,,,,,,,,,,,,,,,,,,,,,,,,,,,,,,,,,,,,
,,,,5,0.9036,,,,,,89,chocolate,rose,,90424,001,2022-04-26_09h36.54.335,SPAMnetsValid,2021.1.4,MacIntel,59.99880002,,,,,,,,,,,,,5,0.9036,0,51,51,60,1,,,,,,,,,,,,,,,,,,,,,,,,,,,,,,,,,,,,,,,,,,,,,,,,,,,,,,,,,,,,,,,,,,,,,,
,,,,2,2.2103,,,,,,78,cookie,rose,,90424,001,2022-04-26_09h36.54.335,SPAMnetsValid,2021.1.4,MacIntel,59.99880002,,,,,,,,,,,,,2,2.2103,0,52,52,56,1,,,,,,,,,,,,,,,,,,,,,,,,,,,,,,,,,,,,,,,,,,,,,,,,,,,,,,,,,,,,,,,,,,,,,,
,,,,4,1.7876,,,,,,69,carrot,refrigerator,,90424,001,2022-04-26_09h36.54.335,SPAMnetsValid,2021.1.4,MacIntel,59.99880002,,,,,,,,,,,,,4,1.7876,0,53,53,75,1,,,,,,,,,,,,,,,,,,,,,,,,,,,,,,,,,,,,,,,,,,,,,,,,,,,,,,,,,,,,,,,,,,,,,,
,,,,4,0.9358,,,,,,18,onion,refrigerator,,90424,001,2022-04-26_09h36.54.335,SPAMnetsValid,2021.1.4,MacIntel,59.99880002,,,,,,,,,,,,,4,0.9358,0,54,54,62,1,,,,,,,,,,,,,,,,,,,,,,,,,,,,,,,,,,,,,,,,,,,,,,,,,,,,,,,,,,,,,,,,,,,,,,
,,,,4,1.6969,,,,,,63,cake,cookie,,90424,001,2022-04-26_09h36.54.335,SPAMnetsValid,2021.1.4,MacIntel,59.99880002,,,,,,,,,,,,,4,1.6969,0,55,55,93,1,,,,,,,,,,,,,,,,,,,,,,,,,,,,,,,,,,,,,,,,,,,,,,,,,,,,,,,,,,,,,,,,,,,,,,
,,,,1,2.1053,,,,,,48,flower,oven,,90424,001,2022-04-26_09h36.54.335,SPAMnetsValid,2021.1.4,MacIntel,59.99880002,,,,,,,,,,,,,1,2.1053,0,56,56,15,1,,,,,,,,,,,,,,,,,,,,,,,,,,,,,,,,,,,,,,,,,,,,,,,,,,,,,,,,,,,,,,,,,,,,,,
,,,,3,1.1603,,,,,,84,oven,tomato,,90424,001,2022-04-26_09h36.54.335,SPAMnetsValid,2021.1.4,MacIntel,59.99880002,,,,,,,,,,,,,3,1.1603,0,57,57,28,1,,,,,,,,,,,,,,,,,,,,,,,,,,,,,,,,,,,,,,,,,,,,,,,,,,,,,,,,,,,,,,,,,,,,,,
,,,,4,1.3886,,,,,,1,rose,yogurt,,90424,001,2022-04-26_09h36.54.335,SPAMnetsValid,2021.1.4,MacIntel,59.99880002,,,,,,,,,,,,,4,1.3886,0,58,58,55,1,,,,,,,,,,,,,,,,,,,,,,,,,,,,,,,,,,,,,,,,,,,,,,,,,,,,,,,,,,,,,,,,,,,,,,
,,,,2,3.5247,,,,,,24,cookie,tomato,,90424,001,2022-04-26_09h36.54.335,SPAMnetsValid,2021.1.4,MacIntel,59.99880002,,,,,,,,,,,,,2,3.5247,0,59,59,68,1,,,,,,,,,,,,,,,,,,,,,,,,,,,,,,,,,,,,,,,,,,,,,,,,,,,,,,,,,,,,,,,,,,,,,,
,,,,2,4.1562,,,,,,65,broom,garden,,90424,001,2022-04-26_09h36.54.335,SPAMnetsValid,2021.1.4,MacIntel,59.99880002,,,,,,,,,,,,,2,4.1562,0,60,60,23,1,,,,,,,,,,,,,,,,,,,,,,,,,,,,,,,,,,,,,,,,,,,,,,,,,,,,,,,,,,,,,,,,,,,,,,
,,,,2,4.1916,,,,,,64,chocolate,garden,,90424,001,2022-04-26_09h36.54.335,SPAMnetsValid,2021.1.4,MacIntel,59.99880002,,,,,,,,,,,,,2,4.1916,0,61,61,14,1,,,,,,,,,,,,,,,,,,,,,,,,,,,,,,,,,,,,,,,,,,,,,,,,,,,,,,,,,,,,,,,,,,,,,,
,,,,1,1.4539,,,,,,80,chocolate,tree,,90424,001,2022-04-26_09h36.54.335,SPAMnetsValid,2021.1.4,MacIntel,59.99880002,,,,,,,,,,,,,1,1.4539,0,62,62,89,1,,,,,,,,,,,,,,,,,,,,,,,,,,,,,,,,,,,,,,,,,,,,,,,,,,,,,,,,,,,,,,,,,,,,,,
,,,,1,3.6067,,,,,,90,cactus,cake,,90424,001,2022-04-26_09h36.54.335,SPAMnetsValid,2021.1.4,MacIntel,59.99880002,,,,,,,,,,,,,1,3.6067,0,63,63,85,1,,,,,,,,,,,,,,,,,,,,,,,,,,,,,,,,,,,,,,,,,,,,,,,,,,,,,,,,,,,,,,,,,,,,,,
,,,,2,2.6375,,,,,,34,melon,oven,,90424,001,2022-04-26_09h36.54.335,SPAMnetsValid,2021.1.4,MacIntel,59.99880002,,,,,,,,,,,,,2,2.6375,0,64,64,7,1,,,,,,,,,,,,,,,,,,,,,,,,,,,,,,,,,,,,,,,,,,,,,,,,,,,,,,,,,,,,,,,,,,,,,,
,,,,3,2.4304,,,,,,70,chocolate,onion,,90424,001,2022-04-26_09h36.54.335,SPAMnetsValid,2021.1.4,MacIntel,59.99880002,,,,,,,,,,,,,3,2.4304,0,65,65,74,1,,,,,,,,,,,,,,,,,,,,,,,,,,,,,,,,,,,,,,,,,,,,,,,,,,,,,,,,,,,,,,,,,,,,,,
,,,,3,1.1134,,,,,,4,chocolate,pretzel,,90424,001,2022-04-26_09h36.54.335,SPAMnetsValid,2021.1.4,MacIntel,59.99880002,,,,,,,,,,,,,3,1.1134,0,66,66,52,1,,,,,,,,,,,,,,,,,,,,,,,,,,,,,,,,,,,,,,,,,,,,,,,,,,,,,,,,,,,,,,,,,,,,,,
,,,,1,1.2055,,,,,,28,cake,melon,,90424,001,2022-04-26_09h36.54.335,SPAMnetsValid,2021.1.4,MacIntel,59.99880002,,,,,,,,,,,,,1,1.2055,0,67,67,54,1,,,,,,,,,,,,,,,,,,,,,,,,,,,,,,,,,,,,,,,,,,,,,,,,,,,,,,,,,,,,,,,,,,,,,,
,,,,3,0.98,,,,,,20,rose,tree,,90424,001,2022-04-26_09h36.54.335,SPAMnetsValid,2021.1.4,MacIntel,59.99880002,,,,,,,,,,,,,3,0.98,0,68,68,66,1,,,,,,,,,,,,,,,,,,,,,,,,,,,,,,,,,,,,,,,,,,,,,,,,,,,,,,,,,,,,,,,,,,,,,,
,,,,2,6.8463,,,,,,51,onion,strawberry,,90424,001,2022-04-26_09h36.54.335,SPAMnetsValid,2021.1.4,MacIntel,59.99880002,,,,,,,,,,,,,2,6.8463,0,69,69,86,1,,,,,,,,,,,,,,,,,,,,,,,,,,,,,,,,,,,,,,,,,,,,,,,,,,,,,,,,,,,,,,,,,,,,,,
,,,,7,1.4298,,,,,,56,cactus,tree,,90424,001,2022-04-26_09h36.54.335,SPAMnetsValid,2021.1.4,MacIntel,59.99880002,,,,,,,,,,,,,7,1.4298,0,70,70,21,1,,,,,,,,,,,,,,,,,,,,,,,,,,,,,,,,,,,,,,,,,,,,,,,,,,,,,,,,,,,,,,,,,,,,,,
,,,,2,1.8287,,,,,,23,flower,microwave,,90424,001,2022-04-26_09h36.54.335,SPAMnetsValid,2021.1.4,MacIntel,59.99880002,,,,,,,,,,,,,2,1.8287,0,71,71,25,1,,,,,,,,,,,,,,,,,,,,,,,,,,,,,,,,,,,,,,,,,,,,,,,,,,,,,,,,,,,,,,,,,,,,,,
,,,,2,1.2634,,,,,,41,broom,cactus,,90424,001,2022-04-26_09h36.54.335,SPAMnetsValid,2021.1.4,MacIntel,59.99880002,,,,,,,,,,,,,2,1.2634,0,72,72,46,1,,,,,,,,,,,,,,,,,,,,,,,,,,,,,,,,,,,,,,,,,,,,,,,,,,,,,,,,,,,,,,,,,,,,,,
,,,,2,1.3299,,,,,,37,garden,refrigerator,,90424,001,2022-04-26_09h36.54.335,SPAMnetsValid,2021.1.4,MacIntel,59.99880002,,,,,,,,,,,,,2,1.3299,0,73,73,11,1,,,,,,,,,,,,,,,,,,,,,,,,,,,,,,,,,,,,,,,,,,,,,,,,,,,,,,,,,,,,,,,,,,,,,,
,,,,8,1.5748,,,,,,93,kitchen,oven,,90424,001,2022-04-26_09h36.54.335,SPAMnetsValid,2021.1.4,MacIntel,59.99880002,,,,,,,,,,,,,8,1.5748,0,74,74,82,1,,,,,,,,,,,,,,,,,,,,,,,,,,,,,,,,,,,,,,,,,,,,,,,,,,,,,,,,,,,,,,,,,,,,,,
,,,,9,1.8071,,,,,,191,cake,cake,CHECK,90424,001,2022-04-26_09h36.54.335,SPAMnetsValid,2021.1.4,MacIntel,59.99880002,,,,,,,,,,,,,9,1.8071,0,75,75,10,1,,,,,,,,,,,,,,,,,,,,,,,,,,,,,,,,,,,,,,,,,,,,,,,,,,,,,,,,,,,,,,,,,,,,,,
,,,,3,1.3978,,,,,,44,cookie,melon,,90424,001,2022-04-26_09h36.54.335,SPAMnetsValid,2021.1.4,MacIntel,59.99880002,,,,,,,,,,,,,3,1.3978,0,76,76,92,1,,,,,,,,,,,,,,,,,,,,,,,,,,,,,,,,,,,,,,,,,,,,,,,,,,,,,,,,,,,,,,,,,,,,,,
,,,,3,0.7294,,,,,,79,garden,strawberry,,90424,001,2022-04-26_09h36.54.335,SPAMnetsValid,2021.1.4,MacIntel,59.99880002,,,,,,,,,,,,,3,0.7294,0,77,77,87,1,,,,,,,,,,,,,,,,,,,,,,,,,,,,,,,,,,,,,,,,,,,,,,,,,,,,,,,,,,,,,,,,,,,,,,
,,,,2,1.6486,,,,,,31,cactus,pretzel,,90424,001,2022-04-26_09h36.54.335,SPAMnetsValid,2021.1.4,MacIntel,59.99880002,,,,,,,,,,,,,2,1.6486,0,78,78,1,1,,,,,,,,,,,,,,,,,,,,,,,,,,,,,,,,,,,,,,,,,,,,,,,,,,,,,,,,,,,,,,,,,,,,,,
,,,,1,1.1391,,,,,,46,garden,yogurt,,90424,001,2022-04-26_09h36.54.335,SPAMnetsValid,2021.1.4,MacIntel,59.99880002,,,,,,,,,,,,,1,1.1391,0,79,79,65,1,,,,,,,,,,,,,,,,,,,,,,,,,,,,,,,,,,,,,,,,,,,,,,,,,,,,,,,,,,,,,,,,,,,,,,
,,,,2,1.7584,,,,,,50,carrot,rose,,90424,001,2022-04-26_09h36.54.335,SPAMnetsValid,2021.1.4,MacIntel,59.99880002,,,,,,,,,,,,,2,1.7584,0,80,80,73,1,,,,,,,,,,,,,,,,,,,,,,,,,,,,,,,,,,,,,,,,,,,,,,,,,,,,,,,,,,,,,,,,,,,,,,
,,,,2,1.6558,,,,,,19,microwave,pretzel,,90424,001,2022-04-26_09h36.54.335,SPAMnetsValid,2021.1.4,MacIntel,59.99880002,,,,,,,,,,,,,2,1.6558,0,81,81,41,1,,,,,,,,,,,,,,,,,,,,,,,,,,,,,,,,,,,,,,,,,,,,,,,,,,,,,,,,,,,,,,,,,,,,,,
,,,,1,1.8467,,,,,,61,strawberry,tomato,,90424,001,2022-04-26_09h36.54.335,SPAMnetsValid,2021.1.4,MacIntel,59.99880002,,,,,,,,,,,,,1,1.8467,0,82,82,80,1,,,,,,,,,,,,,,,,,,,,,,,,,,,,,,,,,,,,,,,,,,,,,,,,,,,,,,,,,,,,,,,,,,,,,,
,,,,1,0.9547,,,,,,72,broom,onion,,90424,001,2022-04-26_09h36.54.335,SPAMnetsValid,2021.1.4,MacIntel,59.99880002,,,,,,,,,,,,,1,0.9547,0,83,83,27,1,,,,,,,,,,,,,,,,,,,,,,,,,,,,,,,,,,,,,,,,,,,,,,,,,,,,,,,,,,,,,,,,,,,,,,
,,,,1,1.3743,,,,,,17,carrot,melon,,90424,001,2022-04-26_09h36.54.335,SPAMnetsValid,2021.1.4,MacIntel,59.99880002,,,,,,,,,,,,,1,1.3743,0,84,84,24,1,,,,,,,,,,,,,,,,,,,,,,,,,,,,,,,,,,,,,,,,,,,,,,,,,,,,,,,,,,,,,,,,,,,,,,
,,,,1,1.0423,,,,,,57,flower,kitchen,,90424,001,2022-04-26_09h36.54.335,SPAMnetsValid,2021.1.4,MacIntel,59.99880002,,,,,,,,,,,,,1,1.0423,0,85,85,49,1,,,,,,,,,,,,,,,,,,,,,,,,,,,,,,,,,,,,,,,,,,,,,,,,,,,,,,,,,,,,,,,,,,,,,,
,,,,3,1.679,,,,,,7,melon,tree,,90424,001,2022-04-26_09h36.54.335,SPAMnetsValid,2021.1.4,MacIntel,59.99880002,,,,,,,,,,,,,3,1.679,0,86,86,77,1,,,,,,,,,,,,,,,,,,,,,,,,,,,,,,,,,,,,,,,,,,,,,,,,,,,,,,,,,,,,,,,,,,,,,,
,,,,1,1.1377,,,,,,95,broom,refrigerator,,90424,001,2022-04-26_09h36.54.335,SPAMnetsValid,2021.1.4,MacIntel,59.99880002,,,,,,,,,,,,,1,1.1377,0,87,87,90,1,,,,,,,,,,,,,,,,,,,,,,,,,,,,,,,,,,,,,,,,,,,,,,,,,,,,,,,,,,,,,,,,,,,,,,
,,,,1,1.3248,,,,,,71,broom,rose,,90424,001,2022-04-26_09h36.54.335,SPAMnetsValid,2021.1.4,MacIntel,59.99880002,,,,,,,,,,,,,1,1.3248,0,88,88,61,1,,,,,,,,,,,,,,,,,,,,,,,,,,,,,,,,,,,,,,,,,,,,,,,,,,,,,,,,,,,,,,,,,,,,,,
,,,,1,1.209,,,,,,33,oven,yogurt,,90424,001,2022-04-26_09h36.54.335,SPAMnetsValid,2021.1.4,MacIntel,59.99880002,,,,,,,,,,,,,1,1.209,0,89,89,31,1,,,,,,,,,,,,,,,,,,,,,,,,,,,,,,,,,,,,,,,,,,,,,,,,,,,,,,,,,,,,,,,,,,,,,,
,,,,2,1.1945,,,,,,54,chocolate,yogurt,,90424,001,2022-04-26_09h36.54.335,SPAMnetsValid,2021.1.4,MacIntel,59.99880002,,,,,,,,,,,,,2,1.1945,0,90,90,67,1,,,,,,,,,,,,,,,,,,,,,,,,,,,,,,,,,,,,,,,,,,,,,,,,,,,,,,,,,,,,,,,,,,,,,,
,,,,2,0.8319,,,,,,87,carrot,yogurt,,90424,001,2022-04-26_09h36.54.335,SPAMnetsValid,2021.1.4,MacIntel,59.99880002,,,,,,,,,,,,,2,0.8319,0,91,91,6,1,,,,,,,,,,,,,,,,,,,,,,,,,,,,,,,,,,,,,,,,,,,,,,,,,,,,,,,,,,,,,,,,,,,,,,
,,,,8,5.2247,,,,,,9,kitchen,refrigerator,,90424,001,2022-04-26_09h36.54.335,SPAMnetsValid,2021.1.4,MacIntel,59.99880002,,,,,,,,,,,,,8,5.2247,0,92,92,64,1,,,,,,,,,,,,,,,,,,,,,,,,,,,,,,,,,,,,,,,,,,,,,,,,,,,,,,,,,,,,,,,,,,,,,,
,,,,8,0.9718,,,,,,35,flower,pretzel,,90424,001,2022-04-26_09h36.54.335,SPAMnetsValid,2021.1.4,MacIntel,59.99880002,,,,,,,,,,,,,8,0.9718,0,93,93,26,1,,,,,,,,,,,,,,,,,,,,,,,,,,,,,,,,,,,,,,,,,,,,,,,,,,,,,,,,,,,,,,,,,,,,,,
,,,,7,0.6965,,,,,,45,onion,pretzel,,90424,001,2022-04-26_09h36.54.335,SPAMnetsValid,2021.1.4,MacIntel,59.99880002,,,,,,,,,,,,,7,0.6965,0,94,94,69,1,,,,,,,,,,,,,,,,,,,,,,,,,,,,,,,,,,,,,,,,,,,,,,,,,,,,,,,,,,,,,,,,,,,,,,
,,,,7,0.6599,,,,,,3,cake,oven,,90424,001,2022-04-26_09h36.54.335,SPAMnetsValid,2021.1.4,MacIntel,59.99880002,,,,,,,,,,,,,7,0.6599,0,95,95,30,1,,,,,,,,,,,,,,,,,,,,,,,,,,,,,,,,,,,,,,,,,,,,,,,,,,,,,,,,,,,,,,,,,,,,,,
,,,,3,8.2116,,,,,,85,cake,tree,,90424,001,2022-04-26_09h36.54.335,SPAMnetsValid,2021.1.4,MacIntel,59.99880002,,,,,,,,,,,,,3,8.2116,0,96,96,18,1,,,,,,,,,,,,,,,,,,,,,,,,,,,,,,,,,,,,,,,,,,,,,,,,,,,,,,,,,,,,,,,,,,,,,,
,,,,,,,,,,,,,,,90424,001,2022-04-26_09h36.54.335,SPAMnetsValid,2021.1.4,MacIntel,59.99880002,,,,,,,,,,,,,,,,,,,,0,0,0,0,1,,,,,,,,,,,,,,,,,,,,,,,,,,,,,,,,,,,,,,,,,,,,,,,,,,,,,,,,,,,,,,,,,
,,,,,,,,,,,,,,,90424,001,2022-04-26_09h36.54.335,SPAMnetsValid,2021.1.4,MacIntel,59.99880002,,,,,,0,1,1,0,1,1,0,,,,,,,,,,,,,,,,,,,,,,,,,,,,,,,,,,,,,,,,,,,,,,,,,,,,,,,,,,,,,,,,,,,,,,,,,,,,,
,,,,,,,,,,,,,,,90424,001,2022-04-26_09h36.54.335,SPAMnetsValid,2021.1.4,MacIntel,59.99880002,,,,,,,,,,,,,,,,,,,,,,,,,3,5.1989,0,0,0,0,1,rancor,forbearance,ridicule,malice,bravery,3,,,,,,,,,,,,,,,,,,,,,,,,,,,,,,,,,,,,,,,,,,,,,,,,,,,,
,,,,,,,,,,,,,,,90424,001,2022-04-26_09h36.54.335,SPAMnetsValid,2021.1.4,MacIntel,59.99880002,,,,,,,,,,,,,,,,,,,,,,,,,4,2.9207,0,1,1,1,1,raucous,empty,quiet,smooth,harsh,4,,,,,,,,,,,,,,,,,,,,,,,,,,,,,,,,,,,,,,,,,,,,,,,,,,,,
,,,,,,,,,,,,,,,90424,001,2022-04-26_09h36.54.335,SPAMnetsValid,2021.1.4,MacIntel,59.99880002,,,,,,,,,,,,,,,,,,,,,,,,,3,5.2491,0,2,2,2,1,gargoyle,oil,medicine,carved waterspout,ugly building,3,,,,,,,,,,,,,,,,,,,,,,,,,,,,,,,,,,,,,,,,,,,,,,,,,,,,
,,,,,,,,,,,,,,,90424,001,2022-04-26_09h36.54.335,SPAMnetsValid,2021.1.4,MacIntel,59.99880002,,,,,,,,,,,,,,,,,,,,,,,,,2,1.8149,0,3,3,3,1,recrudesce,purify,renew activity,lack refinement,crush,2,,,,,,,,,,,,,,,,,,,,,,,,,,,,,,,,,,,,,,,,,,,,,,,,,,,,
,,,,,,,,,,,,,,,90424,001,2022-04-26_09h36.54.335,SPAMnetsValid,2021.1.4,MacIntel,59.99880002,,,,,,,,,,,,,,,,,,,,,,,,,3,0.8424,0,4,4,4,1,specious,"plausible, but not genuine",noteworthy,class or variety,roomy,1,,,,,,,,,,,,,,,,,,,,,,,,,,,,,,,,,,,,,,,,,,,,,,,,,,,,
,,,,,,,,,,,,,,,90424,001,2022-04-26_09h36.54.335,SPAMnetsValid,2021.1.4,MacIntel,59.99880002,,,,,,,,,,,,,,,,,,,,,,,,,1,0.7978,0,5,5,5,1,bauble,bubble,showy plaything,idle talk,confusion,2,,,,,,,,,,,,,,,,,,,,,,,,,,,,,,,,,,,,,,,,,,,,,,,,,,,,
,,,,,,,,,,,,,,,90424,001,2022-04-26_09h36.54.335,SPAMnetsValid,2021.1.4,MacIntel,59.99880002,,,,,,,,,,,,,,,,,,,,,,,,,2,0.9234,0,6,6,6,1,prolific,scarce,producing abundantly,reckless,speaking profanely,2,,,,,,,,,,,,,,,,,,,,,,,,,,,,,,,,,,,,,,,,,,,,,,,,,,,,
,,,,,,,,,,,,,,,90424,001,2022-04-26_09h36.54.335,SPAMnetsValid,2021.1.4,MacIntel,59.99880002,,,,,,,,,,,,,,,,,,,,,,,,,3,0.9449,0,7,7,7,1,opulent,party,wealthy,happy frame of mind,semiprecious stone,2,,,,,,,,,,,,,,,,,,,,,,,,,,,,,,,,,,,,,,,,,,,,,,,,,,,,
,,,,,,,,,,,,,,,90424,001,2022-04-26_09h36.54.335,SPAMnetsValid,2021.1.4,MacIntel,59.99880002,,,,,,,,,,,,,,,,,,,,,,,,,2,0.8913,0,8,8,8,1,coercion,conspiracy,strategy,restraint,attraction,3,,,,,,,,,,,,,,,,,,,,,,,,,,,,,,,,,,,,,,,,,,,,,,,,,,,,
,,,,,,,,,,,,,,,90424,001,2022-04-26_09h36.54.335,SPAMnetsValid,2021.1.4,MacIntel,59.99880002,,,,,,,,,,,,,,,,,,,,,,,,,3,0.8698,0,9,9,9,1,hiatus,animal,calamity,dread,gap,4,,,,,,,,,,,,,,,,,,,,,,,,,,,,,,,,,,,,,,,,,,,,,,,,,,,,
,,,,,,,,,,,,,,,90424,001,2022-04-26_09h36.54.335,SPAMnetsValid,2021.1.4,MacIntel,59.99880002,,,,,,,,,,,,,,,,,,,,,,,,,4,1.0629,0,10,10,10,1,germane,microbe,contagious,relevant,different,3,,,,,,,,,,,,,,,,,,,,,,,,,,,,,,,,,,,,,,,,,,,,,,,,,,,,
,,,,,,,,,,,,,,,90424,001,2022-04-26_09h36.54.335,SPAMnetsValid,2021.1.4,MacIntel,59.99880002,,,,,,,,,,,,,,,,,,,,,,,,,2,1.0311,0,11,11,11,1,perfunctory,fundamental,formal,superficial,careful,3,,,,,,,,,,,,,,,,,,,,,,,,,,,,,,,,,,,,,,,,,,,,,,,,,,,,
,,,,,,,,,,,,,,,90424,001,2022-04-26_09h36.54.335,SPAMnetsValid,2021.1.4,MacIntel,59.99880002,,,,,,,,,,,,,,,,,,,,,,,,,1,0.9727,0,12,12,12,1,diverge,reveal,chant,distract the attention of,differ or turn off from,4,,,,,,,,,,,,,,,,,,,,,,,,,,,,,,,,,,,,,,,,,,,,,,,,,,,,
,,,,,,,,,,,,,,,90424,001,2022-04-26_09h36.54.335,SPAMnetsValid,2021.1.4,MacIntel,59.99880002,,,,,,,,,,,,,,,,,,,,,,,,,4,2.3882,0,13,13,13,1,evoke,take away,anger,connect,bring out,4,,,,,,,,,,,,,,,,,,,,,,,,,,,,,,,,,,,,,,,,,,,,,,,,,,,,
,,,,,,,,,,,,,,,90424,001,2022-04-26_09h36.54.335,SPAMnetsValid,2021.1.4,MacIntel,59.99880002,,,,,,,,,,,,,,,,,,,,,,,,,2,1.1475,0,14,14,14,1,pertinent,relevant,lying next to,necessary,bold,1,,,,,,,,,,,,,,,,,,,,,,,,,,,,,,,,,,,,,,,,,,,,,,,,,,,,
,,,,,,,,,,,,,,,90424,001,2022-04-26_09h36.54.335,SPAMnetsValid,2021.1.4,MacIntel,59.99880002,,,,,,,,,,,,,,,,,,,,,,,,,2,2.1707,0,15,15,15,1,holocaust,entirety,destruction,saintly,price,2,,,,,,,,,,,,,,,,,,,,,,,,,,,,,,,,,,,,,,,,,,,,,,,,,,,,
,,,,,,,,,,,,,,,90424,001,2022-04-26_09h36.54.335,SPAMnetsValid,2021.1.4,MacIntel,59.99880002,,,,,,,,,,,,,,,,,,,,,,,,,3,1.4503,0,16,16,16,1,piquant,mellow,fish,pungent,cloth,3,,,,,,,,,,,,,,,,,,,,,,,,,,,,,,,,,,,,,,,,,,,,,,,,,,,,
,,,,,,,,,,,,,,,90424,001,2022-04-26_09h36.54.335,SPAMnetsValid,2021.1.4,MacIntel,59.99880002,,,,,,,,,,,,,,,,,,,,,,,,,1,1.364,0,17,17,17,1,firmament,foundation,heavens,strong,glue,2,,,,,,,,,,,,,,,,,,,,,,,,,,,,,,,,,,,,,,,,,,,,,,,,,,,,
,,,,,,,,,,,,,,,90424,001,2022-04-26_09h36.54.335,SPAMnetsValid,2021.1.4,MacIntel,59.99880002,,,,,,,,,,,,,,,,,,,,,,,,,,,,,,,,,,,,,,3,2.135,0,0,0,0,1,marketable,partisan,jocular,marriageable,salable,essential,4,,,,,,,,,,,,,,,,,,,,,,,,,,,,,,,,,,,,,,
,,,,,,,,,,,,,,,90424,001,2022-04-26_09h36.54.335,SPAMnetsValid,2021.1.4,MacIntel,59.99880002,,,,,,,,,,,,,,,,,,,,,,,,,,,,,,,,,,,,,,2,1.6897,0,1,1,1,1,cottontail,squirrel,poplar,boa,marshy plant,rabbit,5,,,,,,,,,,,,,,,,,,,,,,,,,,,,,,,,,,,,,,
,,,,,,,,,,,,,,,90424,001,2022-04-26_09h36.54.335,SPAMnetsValid,2021.1.4,MacIntel,59.99880002,,,,,,,,,,,,,,,,,,,,,,,,,,,,,,,,,,,,,,3,1.4548,0,2,2,2,1,boggy,afraid,false,marshy,dense,black,3,,,,,,,,,,,,,,,,,,,,,,,,,,,,,,,,,,,,,,
,,,,,,,,,,,,,,,90424,001,2022-04-26_09h36.54.335,SPAMnetsValid,2021.1.4,MacIntel,59.99880002,,,,,,,,,,,,,,,,,,,,,,,,,,,,,,,,,,,,,,4,1.0131,0,3,3,3,1,gruesomeness,blackness,falseness,vindictiveness,drunkenness,ghastliness,5,,,,,,,,,,,,,,,,,,,,,,,,,,,,,,,,,,,,,,
,,,,,,,,,,,,,,,90424,001,2022-04-26_09h36.54.335,SPAMnetsValid,2021.1.4,MacIntel,59.99880002,,,,,,,,,,,,,,,,,,,,,,,,,,,,,,,,,,,,,,3,1.1984,0,4,4,4,1,loathing,diffidence,laziness,abhorrence,cleverness,comfort,3,,,,,,,,,,,,,,,,,,,,,,,,,,,,,,,,,,,,,,
,,,,,,,,,,,,,,,90424,001,2022-04-26_09h36.54.335,SPAMnetsValid,2021.1.4,MacIntel,59.99880002,,,,,,,,,,,,,,,,,,,,,,,,,,,,,,,,,,,,,,2,0.959,0,5,5,5,1,bantam,fowl,ridicule,cripple,vegetable,ensign,1,,,,,,,,,,,,,,,,,,,,,,,,,,,,,,,,,,,,,,
,,,,,,,,,,,,,,,90424,001,2022-04-26_09h36.54.335,SPAMnetsValid,2021.1.4,MacIntel,59.99880002,,,,,,,,,,,,,,,,,,,,,,,,,,,,,,,,,,,,,,4,1.0404,0,6,6,6,1,evoke,wake up,surrender,reconnoiter,transcend,call forth,5,,,,,,,,,,,,,,,,,,,,,,,,,,,,,,,,,,,,,,
,,,,,,,,,,,,,,,90424,001,2022-04-26_09h36.54.335,SPAMnetsValid,2021.1.4,MacIntel,59.99880002,,,,,,,,,,,,,,,,,,,,,,,,,,,,,,,,,,,,,,5,1.0222,0,7,7,7,1,unobtrusive,unintelligent,epileptic,illogical,lineal,modest,5,,,,,,,,,,,,,,,,,,,,,,,,,,,,,,,,,,,,,,
,,,,,,,,,,,,,,,90424,001,2022-04-26_09h36.54.335,SPAMnetsValid,2021.1.4,MacIntel,59.99880002,,,,,,,,,,,,,,,,,,,,,,,,,,,,,,,,,,,,,,3,0.8576,0,8,8,8,1,terrain,ice cream,final test,tractor,area of ground,weight,4,,,,,,,,,,,,,,,,,,,,,,,,,,,,,,,,,,,,,,
,,,,,,,,,,,,,,,90424,001,2022-04-26_09h36.54.335,SPAMnetsValid,2021.1.4,MacIntel,59.99880002,,,,,,,,,,,,,,,,,,,,,,,,,,,,,,,,,,,,,,2,0.7287,0,9,9,9,1,capriciousness,stubbornness,courage,whimsicality,amazement,greediness,3,,,,,,,,,,,,,,,,,,,,,,,,,,,,,,,,,,,,,,
,,,,,,,,,,,,,,,90424,001,2022-04-26_09h36.54.335,SPAMnetsValid,2021.1.4,MacIntel,59.99880002,,,,,,,,,,,,,,,,,,,,,,,,,,,,,,,,,,,,,,1,0.9152,0,10,10,10,1,maelstrom,slander,whirlpool,enmity,armor,majolica,2,,,,,,,,,,,,,,,,,,,,,,,,,,,,,,,,,,,,,,
,,,,,,,,,,,,,,,90424,001,2022-04-26_09h36.54.335,SPAMnetsValid,2021.1.4,MacIntel,59.99880002,,,,,,,,,,,,,,,,,,,,,,,,,,,,,,,,,,,,,,3,1.0752,0,11,11,11,1,tentative,critical,conclusive,authentic,provisional,apprehensive,4,,,,,,,,,,,,,,,,,,,,,,,,,,,,,,,,,,,,,,
,,,,,,,,,,,,,,,90424,001,2022-04-26_09h36.54.335,SPAMnetsValid,2021.1.4,MacIntel,59.99880002,,,,,,,,,,,,,,,,,,,,,,,,,,,,,,,,,,,,,,2,1.822,0,12,12,12,1,placate,rehabilitate,plagiarize,depredate,apprise,conciliate,5,,,,,,,,,,,,,,,,,,,,,,,,,,,,,,,,,,,,,,
,,,,,,,,,,,,,,,90424,001,2022-04-26_09h36.54.335,SPAMnetsValid,2021.1.4,MacIntel,59.99880002,,,,,,,,,,,,,,,,,,,,,,,,,,,,,,,,,,,,,,4,1.205,0,13,13,13,1,surcease,enlightenment,cessation,inattention,censor,substitution,2,,,,,,,,,,,,,,,,,,,,,,,,,,,,,,,,,,,,,,
,,,,,,,,,,,,,,,90424,001,2022-04-26_09h36.54.335,SPAMnetsValid,2021.1.4,MacIntel,59.99880002,,,,,,,,,,,,,,,,,,,,,,,,,,,,,,,,,,,,,,1,1.1603,0,14,14,14,1,apathetic,wandering,impassive,hateful,prophetic,overflowing,2,,,,,,,,,,,,,,,,,,,,,,,,,,,,,,,,,,,,,,
,,,,,,,,,,,,,,,90424,001,2022-04-26_09h36.54.335,SPAMnetsValid,2021.1.4,MacIntel,59.99880002,,,,,,,,,,,,,,,,,,,,,,,,,,,,,,,,,,,,,,5,1.1228,0,15,15,15,1,paternoster,paternalism,patricide,malediction,benediction,prayer,5,,,,,,,,,,,,,,,,,,,,,,,,,,,,,,,,,,,,,,
,,,,,,,,,,,,,,,90424,001,2022-04-26_09h36.54.335,SPAMnetsValid,2021.1.4,MacIntel,59.99880002,,,,,,,,,,,,,,,,,,,,,,,,,,,,,,,,,,,,,,4,0.8632,0,16,16,16,1,opalescence,opulence,senescence,bankruptcy,iridescence,assiduity,4,,,,,,,,,,,,,,,,,,,,,,,,,,,,,,,,,,,,,,
,,,,,,,,,,,,,,,90424,001,2022-04-26_09h36.54.335,SPAMnetsValid,2021.1.4,MacIntel,59.99880002,,,,,,,,,,,,,,,,,,,,,,,,,,,,,,,,,,,,,,5,1.0404,0,17,17,17,1,lush,stupid,luxurious,hazy,putrid,languishing,2,,,,,,,,,,,,,,,,,,,,,,,,,,,,,,,,,,,,,,
,,,,,,,,,,,,,,,90424,001,2022-04-26_09h36.54.335,SPAMnetsValid,2021.1.4,MacIntel,59.99880002,,,,,,,,,,,,,,,,,,,,,,,,,,,,,,,,,,,,,,2,121.1302,0,18,18,18,1,curtailment,expenditure,abandonment,abridgment,improvement,forgery,3,,,,,,,,,,,,,,,,,,,,,,,,,,,,,,,,,,,,,,
,,,,,,,,,,,,,,,90424,001,2022-04-26_09h36.54.335,SPAMnetsValid,2021.1.4,MacIntel,59.99880002,,,,,,,,,,,,,,,,,,,,,,,,,,,,,,,,,,,,,,2,1.6068,0,19,19,19,1,perversity,adversity,perviousness,travesty,waywardness,gentility,4,,,,,,,,,,,,,,,,,,,,,,,,,,,,,,,,,,,,,,
,,,,,,,,,,,,,,,90424,001,2022-04-26_09h36.54.335,SPAMnetsValid,2021.1.4,MacIntel,59.99880002,,,,,,,,,,,,,,,,,,,,,,,,,,,,,,,,,,,,,,4,0.9889,0,20,20,20,1,calumnious,complimentary,analogous,slanderous,tempestuous,magnanimous,3,,,,,,,,,,,,,,,,,,,,,,,,,,,,,,,,,,,,,,
,,,,,,,,,,,,,,,90424,001,2022-04-26_09h36.54.335,SPAMnetsValid,2021.1.4,MacIntel,59.99880002,,,,,,,,,,,,,,,,,,,,,,,,,,,,,,,,,,,,,,1,1.2582,0,21,21,21,1,illiberality,bigotry,imbecility,illegibility,cautery,immaturity,1,,,,,,,,,,,,,,,,,,,,,,,,,,,,,,,,,,,,,,
,,,,,,,,,,,,,,,90424,001,2022-04-26_09h36.54.335,SPAMnetsValid,2021.1.4,MacIntel,59.99880002,,,,,,,,,,,,,,,,,,,,,,,,,,,,,,,,,,,,,,2,1.19,0,22,22,22,1,clabber,rejoice,gossip,curdle,crow,hobble,3,,,,,,,,,,,,,,,,,,,,,,,,,,,,,,,,,,,,,,
,,,,,,,,,,,,,,,90424,001,2022-04-26_09h36.54.335,SPAMnetsValid,2021.1.4,MacIntel,59.99880002,,,,,,,,,,,,,,,,,,,,,,,,,,,,,,,,,,,,,,3,1.4404,0,23,23,23,1,sedulousness,diligence,credulousness,seduction,perilousness,frankness,1,,,,,,,,,,,,,,,,,,,,,,,,,,,,,,,,,,,,,,
,,,,,,,,,,,,,,,90424,001,2022-04-26_09h36.54.335,SPAMnetsValid,2021.1.4,MacIntel,59.99880002,,,,,,,,,,,,,,,,,,,,,,,,,,,,,,,,,,,,,,,,,,,,,,,,,,,,stick,candle,0,0,0,0,1,,,,,,,,,,,,,,,,,,,,,,,,,,,,,,,
,,,,,,,,,,,,,,,90424,001,2022-04-26_09h36.54.335,SPAMnetsValid,2021.1.4,MacIntel,59.99880002,,,,,,,,,,,,,,,,,,,,,,,,,,,,,,,,,,,,,,,,,,,,,,,,,,,,wax,candle,1,0,1,0,1,,,,,,,,,,,,,,,,,,,,,,,,,,,,,,,
,,,,,,,,,,,,,,,90424,001,2022-04-26_09h36.54.335,SPAMnetsValid,2021.1.4,MacIntel,59.99880002,,,,,,,,,,,,,,,,,,,,,,,,,,,,,,,,,,,,,,,,,,,,,,,,,,,,fire,candle,2,0,2,0,1,,,,,,,,,,,,,,,,,,,,,,,,,,,,,,,
,,,,,,,,,,,,,,,90424,001,2022-04-26_09h36.54.335,SPAMnetsValid,2021.1.4,MacIntel,59.99880002,,,,,,,,,,,,,,,,,,,,,,,,,,,,,,,,,,,,,,,,,,,,,,,,,,,,smell,candle,3,0,3,0,1,,,,,,,,,,,,,,,,,,,,,,,,,,,,,,,
,,,,,,,,,,,,,,,90424,001,2022-04-26_09h36.54.335,SPAMnetsValid,2021.1.4,MacIntel,59.99880002,,,,,,,,,,,,,,,,,,,,,,,,,,,,,,,,,,,,,,,,,,,,,,,,,,,,scent,candle,4,0,4,0,1,,,,,,,,,,,,,,,,,,,,,,,,,,,,,,,
,,,,,,,,,,,,,,,90424,001,2022-04-26_09h36.54.335,SPAMnetsValid,2021.1.4,MacIntel,59.99880002,,,,,,,,,,,,,,,,,,,,,,,,,,,,,,,,,,,,,,,,,,,,,,,,,,,,love,candle,5,0,5,0,1,,,,,,,,,,,,,,,,,,,,,,,,,,,,,,,
,,,,,,,,,,,,,,,90424,001,2022-04-26_09h36.54.335,SPAMnetsValid,2021.1.4,MacIntel,59.99880002,,,,,,,,,,,,,,,,,,,,,,,,,,,,,,,,,,,,,,,,,,,,,,,,,,,,warm,candle,6,0,6,0,1,,,,,,,,,,,,,,,,,,,,,,,,,,,,,,,
,,,,,,,,,,,,,,,90424,001,2022-04-26_09h36.54.335,SPAMnetsValid,2021.1.4,MacIntel,59.99880002,,,,,,,,,,,,,,,,,,,,,,,,,,,,,,,,,,,,,,,,,,,,,,,,,,,,home,candle,7,0,7,0,1,,,,,,,,,,,,,,,,,,,,,,,,,,,,,,,
,,,,,,,,,,,,,,,90424,001,2022-04-26_09h36.54.335,SPAMnetsValid,2021.1.4,MacIntel,59.99880002,,,,,,,,,,,,,,,,,,,,,,,,,,,,,,,,,,,,,,,,,,,,,,,,,,,,church,candle,8,0,8,0,1,,,,,,,,,,,,,,,,,,,,,,,,,,,,,,,
,,,,,,,,,,,,,,,90424,001,2022-04-26_09h36.54.335,SPAMnetsValid,2021.1.4,MacIntel,59.99880002,,,,,,,,,,,,,,,,,,,,,,,,,,,,,,,,,,,,,,,,,,,,,,,,,,,,funeral,candle,9,0,9,0,1,,,,,,,,,,,,,,,,,,,,,,,,,,,,,,,
,,,,,,,,,,,,,,,90424,001,2022-04-26_09h36.54.335,SPAMnetsValid,2021.1.4,MacIntel,59.99880002,,,,,,,,,,,,,,,,,,,,,,,,,,,,,,,,,,,,,,,,,,,,,,,,,,,,lighter,candle,10,0,10,0,1,,,,,,,,,,,,,,,,,,,,,,,,,,,,,,,
,,,,,,,,,,,,,,,90424,001,2022-04-26_09h36.54.335,SPAMnetsValid,2021.1.4,MacIntel,59.99880002,,,,,,,,,,,,,,,,,,,,,,,,,,,,,,,,,,,,,,,,,,,,,,,,,,,,flames,candle,11,0,11,0,1,,,,,,,,,,,,,,,,,,,,,,,,,,,,,,,
,,,,,,,,,,,,,,,90424,001,2022-04-26_09h36.54.335,SPAMnetsValid,2021.1.4,MacIntel,59.99880002,,,,,,,,,,,,,,,,,,,,,,,,,,,,,,,,,,,,,,,,,,,,,,,,,,,,glass,candle,12,0,12,0,1,,,,,,,,,,,,,,,,,,,,,,,,,,,,,,,
,,,,,,,,,,,,,,,90424,001,2022-04-26_09h36.54.335,SPAMnetsValid,2021.1.4,MacIntel,59.99880002,,,,,,,,,,,,,,,,,,,,,,,,,,,,,,,,,,,,,,,,,,,,,,,,,,,,color,candle,13,0,13,0,1,,,,,,,,,,,,,,,,,,,,,,,,,,,,,,,
,,,,,,,,,,,,,,,90424,001,2022-04-26_09h36.54.335,SPAMnetsValid,2021.1.4,MacIntel,59.99880002,,,,,,,,,,,,,,,,,,,,,,,,,,,,,,,,,,,,,,,,,,,,,,,,,,,,orange,candle,14,0,14,0,1,,,,,,,,,,,,,,,,,,,,,,,,,,,,,,,
,,,,,,,,,,,,,,,90424,001,2022-04-26_09h36.54.335,SPAMnetsValid,2021.1.4,MacIntel,59.99880002,,,,,,,,,,,,,,,,,,,,,,,,,,,,,,,,,,,,,,,,,,,,,,,,,,,,,,,,,,,0,0,0,1,1,candle,,,,,,,,,,,,,,,,,,,,,,,,,
,,,,,,,,,,,,,,,90424,001,2022-04-26_09h36.54.335,SPAMnetsValid,2021.1.4,MacIntel,59.99880002,,,,,,,,,,,,,,,,,,,,,,,,,,,,,,,,,,,,,,,,,,,,,,,,,,,,sand,bucket,0,0,0,0,1,,,,,,,,,,,,,,,,,,,,,,,,,,,,,,,
,,,,,,,,,,,,,,,90424,001,2022-04-26_09h36.54.335,SPAMnetsValid,2021.1.4,MacIntel,59.99880002,,,,,,,,,,,,,,,,,,,,,,,,,,,,,,,,,,,,,,,,,,,,,,,,,,,,hold,bucket,1,0,1,0,1,,,,,,,,,,,,,,,,,,,,,,,,,,,,,,,
,,,,,,,,,,,,,,,90424,001,2022-04-26_09h36.54.335,SPAMnetsValid,2021.1.4,MacIntel,59.99880002,,,,,,,,,,,,,,,,,,,,,,,,,,,,,,,,,,,,,,,,,,,,,,,,,,,,beach,bucket,2,0,2,0,1,,,,,,,,,,,,,,,,,,,,,,,,,,,,,,,
,,,,,,,,,,,,,,,90424,001,2022-04-26_09h36.54.335,SPAMnetsValid,2021.1.4,MacIntel,59.99880002,,,,,,,,,,,,,,,,,,,,,,,,,,,,,,,,,,,,,,,,,,,,,,,,,,,,carrying,bucket,3,0,3,0,1,,,,,,,,,,,,,,,,,,,,,,,,,,,,,,,
,,,,,,,,,,,,,,,90424,001,2022-04-26_09h36.54.335,SPAMnetsValid,2021.1.4,MacIntel,59.99880002,,,,,,,,,,,,,,,,,,,,,,,,,,,,,,,,,,,,,,,,,,,,,,,,,,,,hat,bucket,4,0,4,0,1,,,,,,,,,,,,,,,,,,,,,,,,,,,,,,,
,,,,,,,,,,,,,,,90424,001,2022-04-26_09h36.54.335,SPAMnetsValid,2021.1.4,MacIntel,59.99880002,,,,,,,,,,,,,,,,,,,,,,,,,,,,,,,,,,,,,,,,,,,,,,,,,,,,,,,,,,,0,1,1,0,1,bucket,,,,,,,,,,,,,,,,,,,,,,,,,
,,,,,,,,,,,,,,,90424,001,2022-04-26_09h36.54.335,SPAMnetsValid,2021.1.4,MacIntel,59.99880002,,,,,,,,,,,,,,,,,,,,,,,,,,,,,,,,,,,,,,,,,,,,,,,,,,,,bed,pillow,0,0,0,0,1,,,,,,,,,,,,,,,,,,,,,,,,,,,,,,,
,,,,,,,,,,,,,,,90424,001,2022-04-26_09h36.54.335,SPAMnetsValid,2021.1.4,MacIntel,59.99880002,,,,,,,,,,,,,,,,,,,,,,,,,,,,,,,,,,,,,,,,,,,,,,,,,,,,sleep,pillow,1,0,1,0,1,,,,,,,,,,,,,,,,,,,,,,,,,,,,,,,
,,,,,,,,,,,,,,,90424,001,2022-04-26_09h36.54.335,SPAMnetsValid,2021.1.4,MacIntel,59.99880002,,,,,,,,,,,,,,,,,,,,,,,,,,,,,,,,,,,,,,,,,,,,,,,,,,,,rest,pillow,2,0,2,0,1,,,,,,,,,,,,,,,,,,,,,,,,,,,,,,,
,,,,,,,,,,,,,,,90424,001,2022-04-26_09h36.54.335,SPAMnetsValid,2021.1.4,MacIntel,59.99880002,,,,,,,,,,,,,,,,,,,,,,,,,,,,,,,,,,,,,,,,,,,,,,,,,,,,cushion,pillow,3,0,3,0,1,,,,,,,,,,,,,,,,,,,,,,,,,,,,,,,
,,,,,,,,,,,,,,,90424,001,2022-04-26_09h36.54.335,SPAMnetsValid,2021.1.4,MacIntel,59.99880002,,,,,,,,,,,,,,,,,,,,,,,,,,,,,,,,,,,,,,,,,,,,,,,,,,,,soft,pillow,4,0,4,0,1,,,,,,,,,,,,,,,,,,,,,,,,,,,,,,,
,,,,,,,,,,,,,,,90424,001,2022-04-26_09h36.54.335,SPAMnetsValid,2021.1.4,MacIntel,59.99880002,,,,,,,,,,,,,,,,,,,,,,,,,,,,,,,,,,,,,,,,,,,,,,,,,,,,fluffy,pillow,5,0,5,0,1,,,,,,,,,,,,,,,,,,,,,,,,,,,,,,,
,,,,,,,,,,,,,,,90424,001,2022-04-26_09h36.54.335,SPAMnetsValid,2021.1.4,MacIntel,59.99880002,,,,,,,,,,,,,,,,,,,,,,,,,,,,,,,,,,,,,,,,,,,,,,,,,,,,comfort,pillow,6,0,6,0,1,,,,,,,,,,,,,,,,,,,,,,,,,,,,,,,
,,,,,,,,,,,,,,,90424,001,2022-04-26_09h36.54.335,SPAMnetsValid,2021.1.4,MacIntel,59.99880002,,,,,,,,,,,,,,,,,,,,,,,,,,,,,,,,,,,,,,,,,,,,,,,,,,,,sleep,pillow,7,0,7,0,1,,,,,,,,,,,,,,,,,,,,,,,,,,,,,,,
,,,,,,,,,,,,,,,90424,001,2022-04-26_09h36.54.335,SPAMnetsValid,2021.1.4,MacIntel,59.99880002,,,,,,,,,,,,,,,,,,,,,,,,,,,,,,,,,,,,,,,,,,,,,,,,,,,,tired,pillow,8,0,8,0,1,,,,,,,,,,,,,,,,,,,,,,,,,,,,,,,
,,,,,,,,,,,,,,,90424,001,2022-04-26_09h36.54.335,SPAMnetsValid,2021.1.4,MacIntel,59.99880002,,,,,,,,,,,,,,,,,,,,,,,,,,,,,,,,,,,,,,,,,,,,,,,,,,,,couch,pillow,9,0,9,0,1,,,,,,,,,,,,,,,,,,,,,,,,,,,,,,,
,,,,,,,,,,,,,,,90424,001,2022-04-26_09h36.54.335,SPAMnetsValid,2021.1.4,MacIntel,59.99880002,,,,,,,,,,,,,,,,,,,,,,,,,,,,,,,,,,,,,,,,,,,,,,,,,,,,nap,pillow,10,0,10,0,1,,,,,,,,,,,,,,,,,,,,,,,,,,,,,,,
,,,,,,,,,,,,,,,90424,001,2022-04-26_09h36.54.335,SPAMnetsValid,2021.1.4,MacIntel,59.99880002,,,,,,,,,,,,,,,,,,,,,,,,,,,,,,,,,,,,,,,,,,,,,,,,,,,,,,,,,,,0,2,2,2,1,pillow,,,,,,,,,,,,,,,,,,,,,,,,,
,,,,,,,,,,,,,,,90424,001,2022-04-26_09h36.54.335,SPAMnetsValid,2021.1.4,MacIntel,59.99880002,,,,,,,,,,,,,,,,,,,,,,,,,,,,,,,,,,,,,,,,,,,,,,,,,,,,,,,,,,,,,,,,,dog,Animals,0,0,0,0,1,,,,,,,,,,,,,,,,,,
,,,,,,,,,,,,,,,90424,001,2022-04-26_09h36.54.335,SPAMnetsValid,2021.1.4,MacIntel,59.99880002,,,,,,,,,,,,,,,,,,,,,,,,,,,,,,,,,,,,,,,,,,,,,,,,,,,,,,,,,,,,,,,,,cat,Animals,1,0,1,0,1,,,,,,,,,,,,,,,,,,
,,,,,,,,,,,,,,,90424,001,2022-04-26_09h36.54.335,SPAMnetsValid,2021.1.4,MacIntel,59.99880002,,,,,,,,,,,,,,,,,,,,,,,,,,,,,,,,,,,,,,,,,,,,,,,,,,,,,,,,,,,,,,,,,lion,Animals,2,0,2,0,1,,,,,,,,,,,,,,,,,,
,,,,,,,,,,,,,,,90424,001,2022-04-26_09h36.54.335,SPAMnetsValid,2021.1.4,MacIntel,59.99880002,,,,,,,,,,,,,,,,,,,,,,,,,,,,,,,,,,,,,,,,,,,,,,,,,,,,,,,,,,,,,,,,,zebra,Animals,3,0,3,0,1,,,,,,,,,,,,,,,,,,
,,,,,,,,,,,,,,,90424,001,2022-04-26_09h36.54.335,SPAMnetsValid,2021.1.4,MacIntel,59.99880002,,,,,,,,,,,,,,,,,,,,,,,,,,,,,,,,,,,,,,,,,,,,,,,,,,,,,,,,,,,,,,,,,giraffe,Animals,4,0,4,0,1,,,,,,,,,,,,,,,,,,
,,,,,,,,,,,,,,,90424,001,2022-04-26_09h36.54.335,SPAMnetsValid,2021.1.4,MacIntel,59.99880002,,,,,,,,,,,,,,,,,,,,,,,,,,,,,,,,,,,,,,,,,,,,,,,,,,,,,,,,,,,,,,,,,rat,Animals,5,0,5,0,1,,,,,,,,,,,,,,,,,,
,,,,,,,,,,,,,,,90424,001,2022-04-26_09h36.54.335,SPAMnetsValid,2021.1.4,MacIntel,59.99880002,,,,,,,,,,,,,,,,,,,,,,,,,,,,,,,,,,,,,,,,,,,,,,,,,,,,,,,,,,,,,,,,,mouse,Animals,6,0,6,0,1,,,,,,,,,,,,,,,,,,
,,,,,,,,,,,,,,,90424,001,2022-04-26_09h36.54.335,SPAMnetsValid,2021.1.4,MacIntel,59.99880002,,,,,,,,,,,,,,,,,,,,,,,,,,,,,,,,,,,,,,,,,,,,,,,,,,,,,,,,,,,,,,,,,goose,Animals,7,0,7,0,1,,,,,,,,,,,,,,,,,,
,,,,,,,,,,,,,,,90424,001,2022-04-26_09h36.54.335,SPAMnetsValid,2021.1.4,MacIntel,59.99880002,,,,,,,,,,,,,,,,,,,,,,,,,,,,,,,,,,,,,,,,,,,,,,,,,,,,,,,,,,,,,,,,,bird,Animals,8,0,8,0,1,,,,,,,,,,,,,,,,,,
,,,,,,,,,,,,,,,90424,001,2022-04-26_09h36.54.335,SPAMnetsValid,2021.1.4,MacIntel,59.99880002,,,,,,,,,,,,,,,,,,,,,,,,,,,,,,,,,,,,,,,,,,,,,,,,,,,,,,,,,,,,,,,,,pigion,Animals,9,0,9,0,1,,,,,,,,,,,,,,,,,,
,,,,,,,,,,,,,,,90424,001,2022-04-26_09h36.54.335,SPAMnetsValid,2021.1.4,MacIntel,59.99880002,,,,,,,,,,,,,,,,,,,,,,,,,,,,,,,,,,,,,,,,,,,,,,,,,,,,,,,,,,,,,,,,,penguin,Animals,10,0,10,0,1,,,,,,,,,,,,,,,,,,
,,,,,,,,,,,,,,,90424,001,2022-04-26_09h36.54.335,SPAMnetsValid,2021.1.4,MacIntel,59.99880002,,,,,,,,,,,,,,,,,,,,,,,,,,,,,,,,,,,,,,,,,,,,,,,,,,,,,,,,,,,,,,,,,bear,Animals,11,0,11,0,1,,,,,,,,,,,,,,,,,,
,,,,,,,,,,,,,,,90424,001,2022-04-26_09h36.54.335,SPAMnetsValid,2021.1.4,MacIntel,59.99880002,,,,,,,,,,,,,,,,,,,,,,,,,,,,,,,,,,,,,,,,,,,,,,,,,,,,,,,,,,,,,,,,,polarbear,Animals,12,0,12,0,1,,,,,,,,,,,,,,,,,,
,,,,,,,,,,,,,,,90424,001,2022-04-26_09h36.54.335,SPAMnetsValid,2021.1.4,MacIntel,59.99880002,,,,,,,,,,,,,,,,,,,,,,,,,,,,,,,,,,,,,,,,,,,,,,,,,,,,,,,,,,,,,,,,,hamster,Animals,13,0,13,0,1,,,,,,,,,,,,,,,,,,
,,,,,,,,,,,,,,,90424,001,2022-04-26_09h36.54.335,SPAMnetsValid,2021.1.4,MacIntel,59.99880002,,,,,,,,,,,,,,,,,,,,,,,,,,,,,,,,,,,,,,,,,,,,,,,,,,,,,,,,,,,,,,,,,fish,Animals,14,0,14,0,1,,,,,,,,,,,,,,,,,,
,,,,,,,,,,,,,,,90424,001,2022-04-26_09h36.54.335,SPAMnetsValid,2021.1.4,MacIntel,59.99880002,,,,,,,,,,,,,,,,,,,,,,,,,,,,,,,,,,,,,,,,,,,,,,,,,,,,,,,,,,,,,,,,,doplhin,Animals,15,0,15,0,1,,,,,,,,,,,,,,,,,,
,,,,,,,,,,,,,,,90424,001,2022-04-26_09h36.54.335,SPAMnetsValid,2021.1.4,MacIntel,59.99880002,,,,,,,,,,,,,,,,,,,,,,,,,,,,,,,,,,,,,,,,,,,,,,,,,,,,,,,,,,,,,,,,,shark,Animals,16,0,16,0,1,,,,,,,,,,,,,,,,,,
,,,,,,,,,,,,,,,90424,001,2022-04-26_09h36.54.335,SPAMnetsValid,2021.1.4,MacIntel,59.99880002,,,,,,,,,,,,,,,,,,,,,,,,,,,,,,,,,,,,,,,,,,,,,,,,,,,,,,,,,,,,,,,,,bisen,Animals,17,0,17,0,1,,,,,,,,,,,,,,,,,,
,,,,,,,,,,,,,,,90424,001,2022-04-26_09h36.54.335,SPAMnetsValid,2021.1.4,MacIntel,59.99880002,,,,,,,,,,,,,,,,,,,,,,,,,,,,,,,,,,,,,,,,,,,,,,,,,,,,,,,,,,,,,,,,,rooster,Animals,18,0,18,0,1,,,,,,,,,,,,,,,,,,
,,,,,,,,,,,,,,,90424,001,2022-04-26_09h36.54.335,SPAMnetsValid,2021.1.4,MacIntel,59.99880002,,,,,,,,,,,,,,,,,,,,,,,,,,,,,,,,,,,,,,,,,,,,,,,,,,,,,,,,,,,,,,,,,horse,Animals,19,0,19,0,1,,,,,,,,,,,,,,,,,,
,,,,,,,,,,,,,,,90424,001,2022-04-26_09h36.54.335,SPAMnetsValid,2021.1.4,MacIntel,59.99880002,,,,,,,,,,,,,,,,,,,,,,,,,,,,,,,,,,,,,,,,,,,,,,,,,,,,,,,,,,,,,,,,,cow,Animals,20,0,20,0,1,,,,,,,,,,,,,,,,,,
,,,,,,,,,,,,,,,90424,001,2022-04-26_09h36.54.335,SPAMnetsValid,2021.1.4,MacIntel,59.99880002,,,,,,,,,,,,,,,,,,,,,,,,,,,,,,,,,,,,,,,,,,,,,,,,,,,,,,,,,,,,,,,,,pig,Animals,21,0,21,0,1,,,,,,,,,,,,,,,,,,
,,,,,,,,,,,,,,,90424,001,2022-04-26_09h36.54.335,SPAMnetsValid,2021.1.4,MacIntel,59.99880002,,,,,,,,,,,,,,,,,,,,,,,,,,,,,,,,,,,,,,,,,,,,,,,,,,,,,,,,,,,,,,,,,,,,,,,,0,0,0,0,1,Animals,,,,,,,,,,,,
,,,,,,,,,,,,,,,90424,001,2022-04-26_09h36.54.335,SPAMnetsValid,2021.1.4,MacIntel,59.99880002,,,,,,,,,,,,,,,,,,,,,,,,,,,,,,,,,,,,,,,,,,,,,,,,,,,,,,,,,,,,,,,,,,,,,,,,,,,,,,4,5.4873,0,0,0,0,1,"I enjoy concentrating on a fantasy or daydream and exploring all its possibilities, letting it grow and develop.",0,1,,
,,,,,,,,,,,,,,,90424,001,2022-04-26_09h36.54.335,SPAMnetsValid,2021.1.4,MacIntel,59.99880002,,,,,,,,,,,,,,,,,,,,,,,,,,,,,,,,,,,,,,,,,,,,,,,,,,,,,,,,,,,,,,,,,,,,,,,,,,,,,,4,2.5215,0,1,1,1,1,I think it's interesting to learn and develop new hobbies.,0,2,,
,,,,,,,,,,,,,,,90424,001,2022-04-26_09h36.54.335,SPAMnetsValid,2021.1.4,MacIntel,59.99880002,,,,,,,,,,,,,,,,,,,,,,,,,,,,,,,,,,,,,,,,,,,,,,,,,,,,,,,,,,,,,,,,,,,,,,,,,,,,,,4,2.2123,0,2,2,2,1,I am intrigued by the patterns I find in art and nature.,0,3,,
,,,,,,,,,,,,,,,90424,001,2022-04-26_09h36.54.335,SPAMnetsValid,2021.1.4,MacIntel,59.99880002,,,,,,,,,,,,,,,,,,,,,,,,,,,,,,,,,,,,,,,,,,,,,,,,,,,,,,,,,,,,,,,,,,,,,,,,,,,,,,5,2.2254,0,3,3,3,1,I believe letting students hear controversial speakers can only confuse and mislead them.,1,4,,
,,,,,,,,,,,,,,,90424,001,2022-04-26_09h36.54.335,SPAMnetsValid,2021.1.4,MacIntel,59.99880002,,,,,,,,,,,,,,,,,,,,,,,,,,,,,,,,,,,,,,,,,,,,,,,,,,,,,,,,,,,,,,,,,,,,,,,,,,,,,,3,2.6936,0,4,4,4,1,Poetry has little or no effect on me.,1,5,,
,,,,,,,,,,,,,,,90424,001,2022-04-26_09h36.54.335,SPAMnetsValid,2021.1.4,MacIntel,59.99880002,,,,,,,,,,,,,,,,,,,,,,,,,,,,,,,,,,,,,,,,,,,,,,,,,,,,,,,,,,,,,,,,,,,,,,,,,,,,,,1,4.0901,0,5,5,5,1,I would have difficulty just letting my mind wander without control or guidance.,1,6,,
,,,,,,,,,,,,,,,90424,001,2022-04-26_09h36.54.335,SPAMnetsValid,2021.1.4,MacIntel,59.99880002,,,,,,,,,,,,,,,,,,,,,,,,,,,,,,,,,,,,,,,,,,,,,,,,,,,,,,,,,,,,,,,,,,,,,,,,,,,,,,5,3.6566,0,6,6,6,1,I seldom notice the moods or feelings that different environments produce.,1,7,,
,,,,,,,,,,,,,,,90424,001,2022-04-26_09h36.54.335,SPAMnetsValid,2021.1.4,MacIntel,59.99880002,,,,,,,,,,,,,,,,,,,,,,,,,,,,,,,,,,,,,,,,,,,,,,,,,,,,,,,,,,,,,,,,,,,,,,,,,,,,,,4,2.8305,0,7,7,7,1,I experience a wide range of emotions or feelings.,0,8,,
,,,,,,,,,,,,,,,90424,001,2022-04-26_09h36.54.335,SPAMnetsValid,2021.1.4,MacIntel,59.99880002,,,,,,,,,,,,,,,,,,,,,,,,,,,,,,,,,,,,,,,,,,,,,,,,,,,,,,,,,,,,,,,,,,,,,,,,,,,,,,4,3.3237,0,8,8,8,1,"Sometimes when I am reading poetry or looking at a work of art, I feel a chill or wave of excitement.",0,9,,
,,,,,,,,,,,,,,,90424,001,2022-04-26_09h36.54.335,SPAMnetsValid,2021.1.4,MacIntel,59.99880002,,,,,,,,,,,,,,,,,,,,,,,,,,,,,,,,,,,,,,,,,,,,,,,,,,,,,,,,,,,,,,,,,,,,,,,,,,,,,,2,3.0558,0,9,9,9,1,I have little interest in speculating on the nature of the universe or the human condition.,1,10,,
,,,,,,,,,,,,,,,90424,001,2022-04-26_09h36.54.335,SPAMnetsValid,2021.1.4,MacIntel,59.99880002,,,,,,,,,,,,,,,,,,,,,,,,,,,,,,,,,,,,,,,,,,,,,,,,,,,,,,,,,,,,,,,,,,,,,,,,,,,,,,5,2.3891,0,10,10,10,1,I have a lot of intellectual curiosity.,0,11,,
,,,,,,,,,,,,,,,90424,001,2022-04-26_09h36.54.335,SPAMnetsValid,2021.1.4,MacIntel,59.99880002,,,,,,,,,,,,,,,,,,,,,,,,,,,,,,,,,,,,,,,,,,,,,,,,,,,,,,,,,,,,,,,,,,,,,,,,,,,,,,5,2.1294,0,11,11,11,1,I often enjoy playing with theories or abstract ideas.,0,12,,
,,,,,,,,,,,,,,,90424,001,2022-04-26_09h36.54.335,SPAMnetsValid,2021.1.4,MacIntel,59.99880002,,,,,,,,,,,,,,,,,,,,,,,,,,,,,,,,,,,,,,,,,,,,,,,,,,,,,,,,,,,,,,,,,,,,,,,,,,,,,,,,,,,,,,,,return,142.5896
