key_resp_3.keys,key_resp_3.rt,slider.response,slider.rt,rjt_rating,rjt_RT,trials_22.thisRepN,trials_22.thisTrialN,trials_22.thisN,trials_22.thisIndex,trials_22.ran,rjt_order,word1,word2,attention,participant,session,date,expName,psychopyVersion,OS,frameRate,trials_99.thisRepN,trials_99.thisTrialN,trials_99.thisN,trials_99.thisIndex,trials_99.ran,trials_5.thisRepN,trials_5.thisTrialN,trials_5.thisN,trials_5.thisIndex,trials_5.ran,repOne,repTwo,slider_2.response,slider_2.rt,trials_24.thisRepN,trials_24.thisTrialN,trials_24.thisN,trials_24.thisIndex,trials_24.ran,trials_4.thisRepN,trials_4.thisTrialN,trials_4.thisN,trials_4.thisIndex,trials_4.ran,slider_extend_2.response,slider_extend_2.rt,trials_6.thisRepN,trials_6.thisTrialN,trials_6.thisN,trials_6.thisIndex,trials_6.ran,vCue2,R1,R2,R3,R4,correct,sliderVocab.response,sliderVocab.rt,trials_7.thisRepN,trials_7.thisTrialN,trials_7.thisN,trials_7.thisIndex,trials_7.ran,VocabCue,VR1,VR2,VR3,VR4,VR5,VocabCorrect,AUT_resp,AUT_label,trials.thisRepN,trials.thisTrialN,trials.thisN,trials.thisIndex,trials.ran,trials_2.thisRepN,trials_2.thisTrialN,trials_2.thisN,trials_2.thisIndex,trials_2.ran,aut_prompt,VF_response,VF_tag,trials_16.thisRepN,trials_16.thisTrialN,trials_16.thisN,trials_16.thisIndex,trials_16.ran,trials_17.thisRepN,trials_17.thisTrialN,trials_17.thisN,trials_17.thisIndex,trials_17.ran,VFcond,open_slider.response,open_slider.rt,trials_3.thisRepN,trials_3.thisTrialN,trials_3.thisN,trials_3.thisIndex,trials_3.ran,OpenQ,Rev,OPEN_ORDER,key_resp_2.keys,key_resp_2.rt
return,5.4362,7,4.678,7,4.678,0,0,0,42,1,77,refrigerator,yogurt,,90437,001,2022-04-23_20h34.02.674,SPAMnetsValid,2021.1.4,Win32,59.77286312,,,,,,,,,,,,,,,,,,,,,,,,,,,,,,,,,,,,,,,,,,,,,,,,,,,,,,,,,,,,,,,,,,,,,,,,,,,,,,,,,,,,,,,,,
,,4,3.998,4,3.998,0,1,1,49,1,57,flower,kitchen,,90437,001,2022-04-23_20h34.02.674,SPAMnetsValid,2021.1.4,Win32,59.77286312,,,,,,,,,,,,,,,,,,,,,,,,,,,,,,,,,,,,,,,,,,,,,,,,,,,,,,,,,,,,,,,,,,,,,,,,,,,,,,,,,,,,,,,,,
,,1,2.1969,1,2.1969,0,2,2,79,1,86,oven,rose,,90437,001,2022-04-23_20h34.02.674,SPAMnetsValid,2021.1.4,Win32,59.77286312,,,,,,,,,,,,,,,,,,,,,,,,,,,,,,,,,,,,,,,,,,,,,,,,,,,,,,,,,,,,,,,,,,,,,,,,,,,,,,,,,,,,,,,,,
,,7,2.1877,7,2.1877,0,3,3,20,1,39,melon,pretzel,,90437,001,2022-04-23_20h34.02.674,SPAMnetsValid,2021.1.4,Win32,59.77286312,,,,,,,,,,,,,,,,,,,,,,,,,,,,,,,,,,,,,,,,,,,,,,,,,,,,,,,,,,,,,,,,,,,,,,,,,,,,,,,,,,,,,,,,,
,,6,2.0728,6,2.0728,0,4,4,3,1,49,flower,strawberry,,90437,001,2022-04-23_20h34.02.674,SPAMnetsValid,2021.1.4,Win32,59.77286312,,,,,,,,,,,,,,,,,,,,,,,,,,,,,,,,,,,,,,,,,,,,,,,,,,,,,,,,,,,,,,,,,,,,,,,,,,,,,,,,,,,,,,,,,
,,6,1.7392,6,1.7392,0,5,5,29,1,42,garden,kitchen,,90437,001,2022-04-23_20h34.02.674,SPAMnetsValid,2021.1.4,Win32,59.77286312,,,,,,,,,,,,,,,,,,,,,,,,,,,,,,,,,,,,,,,,,,,,,,,,,,,,,,,,,,,,,,,,,,,,,,,,,,,,,,,,,,,,,,,,,
,,6,1.8912,6,1.8912,0,6,6,62,1,18,onion,refrigerator,,90437,001,2022-04-23_20h34.02.674,SPAMnetsValid,2021.1.4,Win32,59.77286312,,,,,,,,,,,,,,,,,,,,,,,,,,,,,,,,,,,,,,,,,,,,,,,,,,,,,,,,,,,,,,,,,,,,,,,,,,,,,,,,,,,,,,,,,
,,1,1.8216,1,1.8216,0,7,7,16,1,14,broom,cookie,,90437,001,2022-04-23_20h34.02.674,SPAMnetsValid,2021.1.4,Win32,59.77286312,,,,,,,,,,,,,,,,,,,,,,,,,,,,,,,,,,,,,,,,,,,,,,,,,,,,,,,,,,,,,,,,,,,,,,,,,,,,,,,,,,,,,,,,,
,,1,3.3787,1,3.3787,0,8,8,41,1,19,microwave,pretzel,,90437,001,2022-04-23_20h34.02.674,SPAMnetsValid,2021.1.4,Win32,59.77286312,,,,,,,,,,,,,,,,,,,,,,,,,,,,,,,,,,,,,,,,,,,,,,,,,,,,,,,,,,,,,,,,,,,,,,,,,,,,,,,,,,,,,,,,,
,,1,2.0239,1,2.0239,0,9,9,32,1,40,broom,cake,,90437,001,2022-04-23_20h34.02.674,SPAMnetsValid,2021.1.4,Win32,59.77286312,,,,,,,,,,,,,,,,,,,,,,,,,,,,,,,,,,,,,,,,,,,,,,,,,,,,,,,,,,,,,,,,,,,,,,,,,,,,,,,,,,,,,,,,,
,,3,2.8089,3,2.8089,0,10,10,12,1,67,flower,yogurt,,90437,001,2022-04-23_20h34.02.674,SPAMnetsValid,2021.1.4,Win32,59.77286312,,,,,,,,,,,,,,,,,,,,,,,,,,,,,,,,,,,,,,,,,,,,,,,,,,,,,,,,,,,,,,,,,,,,,,,,,,,,,,,,,,,,,,,,,
,,6,2.3741,6,2.3741,0,11,11,34,1,29,chocolate,melon,,90437,001,2022-04-23_20h34.02.674,SPAMnetsValid,2021.1.4,Win32,59.77286312,,,,,,,,,,,,,,,,,,,,,,,,,,,,,,,,,,,,,,,,,,,,,,,,,,,,,,,,,,,,,,,,,,,,,,,,,,,,,,,,,,,,,,,,,
,,7,2.5964,7,2.5964,0,12,12,39,1,15,onion,oven,,90437,001,2022-04-23_20h34.02.674,SPAMnetsValid,2021.1.4,Win32,59.77286312,,,,,,,,,,,,,,,,,,,,,,,,,,,,,,,,,,,,,,,,,,,,,,,,,,,,,,,,,,,,,,,,,,,,,,,,,,,,,,,,,,,,,,,,,
,,8,2.0624,8,2.0624,0,13,13,52,1,4,chocolate,pretzel,,90437,001,2022-04-23_20h34.02.674,SPAMnetsValid,2021.1.4,Win32,59.77286312,,,,,,,,,,,,,,,,,,,,,,,,,,,,,,,,,,,,,,,,,,,,,,,,,,,,,,,,,,,,,,,,,,,,,,,,,,,,,,,,,,,,,,,,,
,,7,1.712,7,1.712,0,14,14,78,1,30,cookie,pretzel,,90437,001,2022-04-23_20h34.02.674,SPAMnetsValid,2021.1.4,Win32,59.77286312,,,,,,,,,,,,,,,,,,,,,,,,,,,,,,,,,,,,,,,,,,,,,,,,,,,,,,,,,,,,,,,,,,,,,,,,,,,,,,,,,,,,,,,,,
,,3,3.7239,3,3.7239,0,15,15,72,1,59,rose,strawberry,,90437,001,2022-04-23_20h34.02.674,SPAMnetsValid,2021.1.4,Win32,59.77286312,,,,,,,,,,,,,,,,,,,,,,,,,,,,,,,,,,,,,,,,,,,,,,,,,,,,,,,,,,,,,,,,,,,,,,,,,,,,,,,,,,,,,,,,,
,,6,1.5738,6,1.5738,0,16,16,69,1,45,onion,pretzel,,90437,001,2022-04-23_20h34.02.674,SPAMnetsValid,2021.1.4,Win32,59.77286312,,,,,,,,,,,,,,,,,,,,,,,,,,,,,,,,,,,,,,,,,,,,,,,,,,,,,,,,,,,,,,,,,,,,,,,,,,,,,,,,,,,,,,,,,
,,7,1.8107,7,1.8107,0,17,17,83,1,6,garden,onion,,90437,001,2022-04-23_20h34.02.674,SPAMnetsValid,2021.1.4,Win32,59.77286312,,,,,,,,,,,,,,,,,,,,,,,,,,,,,,,,,,,,,,,,,,,,,,,,,,,,,,,,,,,,,,,,,,,,,,,,,,,,,,,,,,,,,,,,,
,,1,2.1253,1,2.1253,0,18,18,46,1,41,broom,cactus,,90437,001,2022-04-23_20h34.02.674,SPAMnetsValid,2021.1.4,Win32,59.77286312,,,,,,,,,,,,,,,,,,,,,,,,,,,,,,,,,,,,,,,,,,,,,,,,,,,,,,,,,,,,,,,,,,,,,,,,,,,,,,,,,,,,,,,,,
,,6,2.765,6,2.765,0,19,19,68,1,24,cookie,tomato,,90437,001,2022-04-23_20h34.02.674,SPAMnetsValid,2021.1.4,Win32,59.77286312,,,,,,,,,,,,,,,,,,,,,,,,,,,,,,,,,,,,,,,,,,,,,,,,,,,,,,,,,,,,,,,,,,,,,,,,,,,,,,,,,,,,,,,,,
,,8,2.2383,8,2.2383,0,20,20,19,1,76,garden,rose,,90437,001,2022-04-23_20h34.02.674,SPAMnetsValid,2021.1.4,Win32,59.77286312,,,,,,,,,,,,,,,,,,,,,,,,,,,,,,,,,,,,,,,,,,,,,,,,,,,,,,,,,,,,,,,,,,,,,,,,,,,,,,,,,,,,,,,,,
,,9,1.3044,9,1.3044,0,21,21,64,1,9,kitchen,refrigerator,,90437,001,2022-04-23_20h34.02.674,SPAMnetsValid,2021.1.4,Win32,59.77286312,,,,,,,,,,,,,,,,,,,,,,,,,,,,,,,,,,,,,,,,,,,,,,,,,,,,,,,,,,,,,,,,,,,,,,,,,,,,,,,,,,,,,,,,,
,,1,1.4542,1,1.4542,0,22,22,1,1,31,cactus,pretzel,,90437,001,2022-04-23_20h34.02.674,SPAMnetsValid,2021.1.4,Win32,59.77286312,,,,,,,,,,,,,,,,,,,,,,,,,,,,,,,,,,,,,,,,,,,,,,,,,,,,,,,,,,,,,,,,,,,,,,,,,,,,,,,,,,,,,,,,,
,,1,1.9639,1,1.9639,0,23,23,84,1,91,microwave,rose,,90437,001,2022-04-23_20h34.02.674,SPAMnetsValid,2021.1.4,Win32,59.77286312,,,,,,,,,,,,,,,,,,,,,,,,,,,,,,,,,,,,,,,,,,,,,,,,,,,,,,,,,,,,,,,,,,,,,,,,,,,,,,,,,,,,,,,,,
,,1,1.3477,1,1.3477,0,24,24,40,1,74,broom,pretzel,,90437,001,2022-04-23_20h34.02.674,SPAMnetsValid,2021.1.4,Win32,59.77286312,,,,,,,,,,,,,,,,,,,,,,,,,,,,,,,,,,,,,,,,,,,,,,,,,,,,,,,,,,,,,,,,,,,,,,,,,,,,,,,,,,,,,,,,,
,,4,2.6327,4,2.6327,0,25,25,57,1,62,kitchen,rose,,90437,001,2022-04-23_20h34.02.674,SPAMnetsValid,2021.1.4,Win32,59.77286312,,,,,,,,,,,,,,,,,,,,,,,,,,,,,,,,,,,,,,,,,,,,,,,,,,,,,,,,,,,,,,,,,,,,,,,,,,,,,,,,,,,,,,,,,
,,7,3.5961,7,3.5961,0,26,26,60,1,89,chocolate,rose,,90437,001,2022-04-23_20h34.02.674,SPAMnetsValid,2021.1.4,Win32,59.77286312,,,,,,,,,,,,,,,,,,,,,,,,,,,,,,,,,,,,,,,,,,,,,,,,,,,,,,,,,,,,,,,,,,,,,,,,,,,,,,,,,,,,,,,,,
,,8,1.7109,8,1.7109,0,27,27,28,1,84,oven,tomato,,90437,001,2022-04-23_20h34.02.674,SPAMnetsValid,2021.1.4,Win32,59.77286312,,,,,,,,,,,,,,,,,,,,,,,,,,,,,,,,,,,,,,,,,,,,,,,,,,,,,,,,,,,,,,,,,,,,,,,,,,,,,,,,,,,,,,,,,
,,9,4.2295,9,4.2295,0,28,28,80,1,61,strawberry,tomato,,90437,001,2022-04-23_20h34.02.674,SPAMnetsValid,2021.1.4,Win32,59.77286312,,,,,,,,,,,,,,,,,,,,,,,,,,,,,,,,,,,,,,,,,,,,,,,,,,,,,,,,,,,,,,,,,,,,,,,,,,,,,,,,,,,,,,,,,
,,7,1.9934,7,1.9934,0,29,29,90,1,95,broom,refrigerator,,90437,001,2022-04-23_20h34.02.674,SPAMnetsValid,2021.1.4,Win32,59.77286312,,,,,,,,,,,,,,,,,,,,,,,,,,,,,,,,,,,,,,,,,,,,,,,,,,,,,,,,,,,,,,,,,,,,,,,,,,,,,,,,,,,,,,,,,
,,1,3.1335,1,3.1335,0,30,30,33,1,32,cake,microwave,,90437,001,2022-04-23_20h34.02.674,SPAMnetsValid,2021.1.4,Win32,59.77286312,,,,,,,,,,,,,,,,,,,,,,,,,,,,,,,,,,,,,,,,,,,,,,,,,,,,,,,,,,,,,,,,,,,,,,,,,,,,,,,,,,,,,,,,,
,,9,1.6734,9,1.6734,0,31,31,53,1,192,microwave,microwave,CHECK,90437,001,2022-04-23_20h34.02.674,SPAMnetsValid,2021.1.4,Win32,59.77286312,,,,,,,,,,,,,,,,,,,,,,,,,,,,,,,,,,,,,,,,,,,,,,,,,,,,,,,,,,,,,,,,,,,,,,,,,,,,,,,,,,,,,,,,,
,,9,1.6131,9,1.6131,0,32,32,93,1,63,cake,cookie,,90437,001,2022-04-23_20h34.02.674,SPAMnetsValid,2021.1.4,Win32,59.77286312,,,,,,,,,,,,,,,,,,,,,,,,,,,,,,,,,,,,,,,,,,,,,,,,,,,,,,,,,,,,,,,,,,,,,,,,,,,,,,,,,,,,,,,,,
,,3,1.6739,3,1.6739,0,33,33,94,1,68,flower,tomato,,90437,001,2022-04-23_20h34.02.674,SPAMnetsValid,2021.1.4,Win32,59.77286312,,,,,,,,,,,,,,,,,,,,,,,,,,,,,,,,,,,,,,,,,,,,,,,,,,,,,,,,,,,,,,,,,,,,,,,,,,,,,,,,,,,,,,,,,
,,1,1.6671,1,1.6671,0,34,34,31,1,33,oven,yogurt,,90437,001,2022-04-23_20h34.02.674,SPAMnetsValid,2021.1.4,Win32,59.77286312,,,,,,,,,,,,,,,,,,,,,,,,,,,,,,,,,,,,,,,,,,,,,,,,,,,,,,,,,,,,,,,,,,,,,,,,,,,,,,,,,,,,,,,,,
,,1,2.1801,1,2.1801,0,35,35,14,1,64,chocolate,garden,,90437,001,2022-04-23_20h34.02.674,SPAMnetsValid,2021.1.4,Win32,59.77286312,,,,,,,,,,,,,,,,,,,,,,,,,,,,,,,,,,,,,,,,,,,,,,,,,,,,,,,,,,,,,,,,,,,,,,,,,,,,,,,,,,,,,,,,,
,,8,1.7894,8,1.7894,0,36,36,24,1,17,carrot,melon,,90437,001,2022-04-23_20h34.02.674,SPAMnetsValid,2021.1.4,Win32,59.77286312,,,,,,,,,,,,,,,,,,,,,,,,,,,,,,,,,,,,,,,,,,,,,,,,,,,,,,,,,,,,,,,,,,,,,,,,,,,,,,,,,,,,,,,,,
,,1,1.6586,1,1.6586,0,37,37,17,1,27,cactus,cookie,,90437,001,2022-04-23_20h34.02.674,SPAMnetsValid,2021.1.4,Win32,59.77286312,,,,,,,,,,,,,,,,,,,,,,,,,,,,,,,,,,,,,,,,,,,,,,,,,,,,,,,,,,,,,,,,,,,,,,,,,,,,,,,,,,,,,,,,,
,,1,1.5072,1,1.5072,0,38,38,11,1,37,garden,refrigerator,,90437,001,2022-04-23_20h34.02.674,SPAMnetsValid,2021.1.4,Win32,59.77286312,,,,,,,,,,,,,,,,,,,,,,,,,,,,,,,,,,,,,,,,,,,,,,,,,,,,,,,,,,,,,,,,,,,,,,,,,,,,,,,,,,,,,,,,,
,,8,2.0296,8,2.0296,0,39,39,76,1,36,broom,kitchen,,90437,001,2022-04-23_20h34.02.674,SPAMnetsValid,2021.1.4,Win32,59.77286312,,,,,,,,,,,,,,,,,,,,,,,,,,,,,,,,,,,,,,,,,,,,,,,,,,,,,,,,,,,,,,,,,,,,,,,,,,,,,,,,,,,,,,,,,
,,1,1.4402,1,1.4402,0,40,40,38,1,88,cactus,melon,,90437,001,2022-04-23_20h34.02.674,SPAMnetsValid,2021.1.4,Win32,59.77286312,,,,,,,,,,,,,,,,,,,,,,,,,,,,,,,,,,,,,,,,,,,,,,,,,,,,,,,,,,,,,,,,,,,,,,,,,,,,,,,,,,,,,,,,,
,,6,2.8215,6,2.8215,0,41,41,92,1,44,cookie,melon,,90437,001,2022-04-23_20h34.02.674,SPAMnetsValid,2021.1.4,Win32,59.77286312,,,,,,,,,,,,,,,,,,,,,,,,,,,,,,,,,,,,,,,,,,,,,,,,,,,,,,,,,,,,,,,,,,,,,,,,,,,,,,,,,,,,,,,,,
,,2,2.0784,2,2.0784,0,42,42,7,1,34,melon,oven,,90437,001,2022-04-23_20h34.02.674,SPAMnetsValid,2021.1.4,Win32,59.77286312,,,,,,,,,,,,,,,,,,,,,,,,,,,,,,,,,,,,,,,,,,,,,,,,,,,,,,,,,,,,,,,,,,,,,,,,,,,,,,,,,,,,,,,,,
,,6,1.593,6,1.593,0,43,43,48,1,66,melon,yogurt,,90437,001,2022-04-23_20h34.02.674,SPAMnetsValid,2021.1.4,Win32,59.77286312,,,,,,,,,,,,,,,,,,,,,,,,,,,,,,,,,,,,,,,,,,,,,,,,,,,,,,,,,,,,,,,,,,,,,,,,,,,,,,,,,,,,,,,,,
,,6,2.0252,6,2.0252,0,44,44,8,1,43,chocolate,tomato,,90437,001,2022-04-23_20h34.02.674,SPAMnetsValid,2021.1.4,Win32,59.77286312,,,,,,,,,,,,,,,,,,,,,,,,,,,,,,,,,,,,,,,,,,,,,,,,,,,,,,,,,,,,,,,,,,,,,,,,,,,,,,,,,,,,,,,,,
,,6,1.3117,6,1.3117,0,45,45,86,1,51,onion,strawberry,,90437,001,2022-04-23_20h34.02.674,SPAMnetsValid,2021.1.4,Win32,59.77286312,,,,,,,,,,,,,,,,,,,,,,,,,,,,,,,,,,,,,,,,,,,,,,,,,,,,,,,,,,,,,,,,,,,,,,,,,,,,,,,,,,,,,,,,,
,,7,1.9443,7,1.9443,0,46,46,75,1,69,carrot,refrigerator,,90437,001,2022-04-23_20h34.02.674,SPAMnetsValid,2021.1.4,Win32,59.77286312,,,,,,,,,,,,,,,,,,,,,,,,,,,,,,,,,,,,,,,,,,,,,,,,,,,,,,,,,,,,,,,,,,,,,,,,,,,,,,,,,,,,,,,,,
,,2,3.3775,2,3.3775,0,47,47,15,1,48,flower,oven,,90437,001,2022-04-23_20h34.02.674,SPAMnetsValid,2021.1.4,Win32,59.77286312,,,,,,,,,,,,,,,,,,,,,,,,,,,,,,,,,,,,,,,,,,,,,,,,,,,,,,,,,,,,,,,,,,,,,,,,,,,,,,,,,,,,,,,,,
,,2,2.0163,2,2.0163,0,48,48,63,1,21,cake,onion,,90437,001,2022-04-23_20h34.02.674,SPAMnetsValid,2021.1.4,Win32,59.77286312,,,,,,,,,,,,,,,,,,,,,,,,,,,,,,,,,,,,,,,,,,,,,,,,,,,,,,,,,,,,,,,,,,,,,,,,,,,,,,,,,,,,,,,,,
,,6,1.8879,6,1.8879,0,49,49,36,1,12,cookie,yogurt,,90437,001,2022-04-23_20h34.02.674,SPAMnetsValid,2021.1.4,Win32,59.77286312,,,,,,,,,,,,,,,,,,,,,,,,,,,,,,,,,,,,,,,,,,,,,,,,,,,,,,,,,,,,,,,,,,,,,,,,,,,,,,,,,,,,,,,,,
,,3,3.83,3,3.83,0,50,50,26,1,35,flower,pretzel,,90437,001,2022-04-23_20h34.02.674,SPAMnetsValid,2021.1.4,Win32,59.77286312,,,,,,,,,,,,,,,,,,,,,,,,,,,,,,,,,,,,,,,,,,,,,,,,,,,,,,,,,,,,,,,,,,,,,,,,,,,,,,,,,,,,,,,,,
,,6,3.5233,6,3.5233,0,51,51,6,1,87,carrot,yogurt,,90437,001,2022-04-23_20h34.02.674,SPAMnetsValid,2021.1.4,Win32,59.77286312,,,,,,,,,,,,,,,,,,,,,,,,,,,,,,,,,,,,,,,,,,,,,,,,,,,,,,,,,,,,,,,,,,,,,,,,,,,,,,,,,,,,,,,,,
,,1,1.6068,1,1.6068,0,52,52,37,1,58,garden,oven,,90437,001,2022-04-23_20h34.02.674,SPAMnetsValid,2021.1.4,Win32,59.77286312,,,,,,,,,,,,,,,,,,,,,,,,,,,,,,,,,,,,,,,,,,,,,,,,,,,,,,,,,,,,,,,,,,,,,,,,,,,,,,,,,,,,,,,,,
,,2,1.8388,2,1.8388,0,53,53,56,1,78,cookie,rose,,90437,001,2022-04-23_20h34.02.674,SPAMnetsValid,2021.1.4,Win32,59.77286312,,,,,,,,,,,,,,,,,,,,,,,,,,,,,,,,,,,,,,,,,,,,,,,,,,,,,,,,,,,,,,,,,,,,,,,,,,,,,,,,,,,,,,,,,
,,6,2.3919,6,2.3919,0,54,54,77,1,7,melon,tree,,90437,001,2022-04-23_20h34.02.674,SPAMnetsValid,2021.1.4,Win32,59.77286312,,,,,,,,,,,,,,,,,,,,,,,,,,,,,,,,,,,,,,,,,,,,,,,,,,,,,,,,,,,,,,,,,,,,,,,,,,,,,,,,,,,,,,,,,
,,1,1.7738,1,1.7738,0,55,55,5,1,13,broom,yogurt,,90437,001,2022-04-23_20h34.02.674,SPAMnetsValid,2021.1.4,Win32,59.77286312,,,,,,,,,,,,,,,,,,,,,,,,,,,,,,,,,,,,,,,,,,,,,,,,,,,,,,,,,,,,,,,,,,,,,,,,,,,,,,,,,,,,,,,,,
,,3,2.4934,3,2.4934,0,56,56,45,1,10,flower,onion,,90437,001,2022-04-23_20h34.02.674,SPAMnetsValid,2021.1.4,Win32,59.77286312,,,,,,,,,,,,,,,,,,,,,,,,,,,,,,,,,,,,,,,,,,,,,,,,,,,,,,,,,,,,,,,,,,,,,,,,,,,,,,,,,,,,,,,,,
,,9,2.0054,9,2.0054,0,57,57,95,1,52,carrot,tomato,,90437,001,2022-04-23_20h34.02.674,SPAMnetsValid,2021.1.4,Win32,59.77286312,,,,,,,,,,,,,,,,,,,,,,,,,,,,,,,,,,,,,,,,,,,,,,,,,,,,,,,,,,,,,,,,,,,,,,,,,,,,,,,,,,,,,,,,,
,,7,3.7668,7,3.7668,0,58,58,21,1,56,cactus,tree,,90437,001,2022-04-23_20h34.02.674,SPAMnetsValid,2021.1.4,Win32,59.77286312,,,,,,,,,,,,,,,,,,,,,,,,,,,,,,,,,,,,,,,,,,,,,,,,,,,,,,,,,,,,,,,,,,,,,,,,,,,,,,,,,,,,,,,,,
,,6,2.1843,6,2.1843,0,59,59,54,1,28,cake,melon,,90437,001,2022-04-23_20h34.02.674,SPAMnetsValid,2021.1.4,Win32,59.77286312,,,,,,,,,,,,,,,,,,,,,,,,,,,,,,,,,,,,,,,,,,,,,,,,,,,,,,,,,,,,,,,,,,,,,,,,,,,,,,,,,,,,,,,,,
,,1,1.3935,1,1.3935,0,60,60,61,1,71,broom,rose,,90437,001,2022-04-23_20h34.02.674,SPAMnetsValid,2021.1.4,Win32,59.77286312,,,,,,,,,,,,,,,,,,,,,,,,,,,,,,,,,,,,,,,,,,,,,,,,,,,,,,,,,,,,,,,,,,,,,,,,,,,,,,,,,,,,,,,,,
,,9,2.4551,9,2.4551,0,61,61,66,1,20,rose,tree,,90437,001,2022-04-23_20h34.02.674,SPAMnetsValid,2021.1.4,Win32,59.77286312,,,,,,,,,,,,,,,,,,,,,,,,,,,,,,,,,,,,,,,,,,,,,,,,,,,,,,,,,,,,,,,,,,,,,,,,,,,,,,,,,,,,,,,,,
,,1,3.8468,1,3.8468,0,62,62,89,1,80,chocolate,tree,,90437,001,2022-04-23_20h34.02.674,SPAMnetsValid,2021.1.4,Win32,59.77286312,,,,,,,,,,,,,,,,,,,,,,,,,,,,,,,,,,,,,,,,,,,,,,,,,,,,,,,,,,,,,,,,,,,,,,,,,,,,,,,,,,,,,,,,,
,,3,1.0801,3,1.0801,0,63,63,47,1,73,broom,chocolate,,90437,001,2022-04-23_20h34.02.674,SPAMnetsValid,2021.1.4,Win32,59.77286312,,,,,,,,,,,,,,,,,,,,,,,,,,,,,,,,,,,,,,,,,,,,,,,,,,,,,,,,,,,,,,,,,,,,,,,,,,,,,,,,,,,,,,,,,
,,2,1.9383,2,1.9383,0,64,64,73,1,50,carrot,rose,,90437,001,2022-04-23_20h34.02.674,SPAMnetsValid,2021.1.4,Win32,59.77286312,,,,,,,,,,,,,,,,,,,,,,,,,,,,,,,,,,,,,,,,,,,,,,,,,,,,,,,,,,,,,,,,,,,,,,,,,,,,,,,,,,,,,,,,,
,,9,1.3757,9,1.3757,0,65,65,10,1,191,cake,cake,CHECK,90437,001,2022-04-23_20h34.02.674,SPAMnetsValid,2021.1.4,Win32,59.77286312,,,,,,,,,,,,,,,,,,,,,,,,,,,,,,,,,,,,,,,,,,,,,,,,,,,,,,,,,,,,,,,,,,,,,,,,,,,,,,,,,,,,,,,,,
,,9,1.826,9,1.826,0,66,66,58,1,94,kitchen,microwave,,90437,001,2022-04-23_20h34.02.674,SPAMnetsValid,2021.1.4,Win32,59.77286312,,,,,,,,,,,,,,,,,,,,,,,,,,,,,,,,,,,,,,,,,,,,,,,,,,,,,,,,,,,,,,,,,,,,,,,,,,,,,,,,,,,,,,,,,
,,1,2.3434,1,2.3434,0,67,67,27,1,72,broom,onion,,90437,001,2022-04-23_20h34.02.674,SPAMnetsValid,2021.1.4,Win32,59.77286312,,,,,,,,,,,,,,,,,,,,,,,,,,,,,,,,,,,,,,,,,,,,,,,,,,,,,,,,,,,,,,,,,,,,,,,,,,,,,,,,,,,,,,,,,
,,8,2.1047,8,2.1047,0,68,68,87,1,79,garden,strawberry,,90437,001,2022-04-23_20h34.02.674,SPAMnetsValid,2021.1.4,Win32,59.77286312,,,,,,,,,,,,,,,,,,,,,,,,,,,,,,,,,,,,,,,,,,,,,,,,,,,,,,,,,,,,,,,,,,,,,,,,,,,,,,,,,,,,,,,,,
,,1,1.9973,1,1.9973,0,69,69,59,1,8,broom,melon,,90437,001,2022-04-23_20h34.02.674,SPAMnetsValid,2021.1.4,Win32,59.77286312,,,,,,,,,,,,,,,,,,,,,,,,,,,,,,,,,,,,,,,,,,,,,,,,,,,,,,,,,,,,,,,,,,,,,,,,,,,,,,,,,,,,,,,,,
,,6,6.7603,6,6.7603,0,70,70,74,1,70,chocolate,onion,,90437,001,2022-04-23_20h34.02.674,SPAMnetsValid,2021.1.4,Win32,59.77286312,,,,,,,,,,,,,,,,,,,,,,,,,,,,,,,,,,,,,,,,,,,,,,,,,,,,,,,,,,,,,,,,,,,,,,,,,,,,,,,,,,,,,,,,,
,,2,1.8091,2,1.8091,0,71,71,65,1,46,garden,yogurt,,90437,001,2022-04-23_20h34.02.674,SPAMnetsValid,2021.1.4,Win32,59.77286312,,,,,,,,,,,,,,,,,,,,,,,,,,,,,,,,,,,,,,,,,,,,,,,,,,,,,,,,,,,,,,,,,,,,,,,,,,,,,,,,,,,,,,,,,
,,9,1.3144,9,1.3144,0,72,72,82,1,93,kitchen,oven,,90437,001,2022-04-23_20h34.02.674,SPAMnetsValid,2021.1.4,Win32,59.77286312,,,,,,,,,,,,,,,,,,,,,,,,,,,,,,,,,,,,,,,,,,,,,,,,,,,,,,,,,,,,,,,,,,,,,,,,,,,,,,,,,,,,,,,,,
,,9,1.3103,9,1.3103,0,73,73,51,1,47,onion,tomato,,90437,001,2022-04-23_20h34.02.674,SPAMnetsValid,2021.1.4,Win32,59.77286312,,,,,,,,,,,,,,,,,,,,,,,,,,,,,,,,,,,,,,,,,,,,,,,,,,,,,,,,,,,,,,,,,,,,,,,,,,,,,,,,,,,,,,,,,
,,1,1.2895,1,1.2895,0,74,74,25,1,23,flower,microwave,,90437,001,2022-04-23_20h34.02.674,SPAMnetsValid,2021.1.4,Win32,59.77286312,,,,,,,,,,,,,,,,,,,,,,,,,,,,,,,,,,,,,,,,,,,,,,,,,,,,,,,,,,,,,,,,,,,,,,,,,,,,,,,,,,,,,,,,,
,,7,1.7989,7,1.7989,0,75,75,91,1,2,kitchen,onion,,90437,001,2022-04-23_20h34.02.674,SPAMnetsValid,2021.1.4,Win32,59.77286312,,,,,,,,,,,,,,,,,,,,,,,,,,,,,,,,,,,,,,,,,,,,,,,,,,,,,,,,,,,,,,,,,,,,,,,,,,,,,,,,,,,,,,,,,
,,1,1.5297,1,1.5297,0,76,76,81,1,60,cactus,onion,,90437,001,2022-04-23_20h34.02.674,SPAMnetsValid,2021.1.4,Win32,59.77286312,,,,,,,,,,,,,,,,,,,,,,,,,,,,,,,,,,,,,,,,,,,,,,,,,,,,,,,,,,,,,,,,,,,,,,,,,,,,,,,,,,,,,,,,,
,,1,1.5051,1,1.5051,0,77,77,9,1,75,cookie,onion,,90437,001,2022-04-23_20h34.02.674,SPAMnetsValid,2021.1.4,Win32,59.77286312,,,,,,,,,,,,,,,,,,,,,,,,,,,,,,,,,,,,,,,,,,,,,,,,,,,,,,,,,,,,,,,,,,,,,,,,,,,,,,,,,,,,,,,,,
,,7,1.6875,7,1.6875,0,78,78,67,1,54,chocolate,yogurt,,90437,001,2022-04-23_20h34.02.674,SPAMnetsValid,2021.1.4,Win32,59.77286312,,,,,,,,,,,,,,,,,,,,,,,,,,,,,,,,,,,,,,,,,,,,,,,,,,,,,,,,,,,,,,,,,,,,,,,,,,,,,,,,,,,,,,,,,
,,1,6.3682,1,6.3682,0,79,79,23,1,65,broom,garden,,90437,001,2022-04-23_20h34.02.674,SPAMnetsValid,2021.1.4,Win32,59.77286312,,,,,,,,,,,,,,,,,,,,,,,,,,,,,,,,,,,,,,,,,,,,,,,,,,,,,,,,,,,,,,,,,,,,,,,,,,,,,,,,,,,,,,,,,
,,4,2.1808,4,2.1808,0,80,80,71,1,38,pretzel,refrigerator,,90437,001,2022-04-23_20h34.02.674,SPAMnetsValid,2021.1.4,Win32,59.77286312,,,,,,,,,,,,,,,,,,,,,,,,,,,,,,,,,,,,,,,,,,,,,,,,,,,,,,,,,,,,,,,,,,,,,,,,,,,,,,,,,,,,,,,,,
,,2,1.1754,2,1.1754,0,81,81,43,1,11,refrigerator,tree,,90437,001,2022-04-23_20h34.02.674,SPAMnetsValid,2021.1.4,Win32,59.77286312,,,,,,,,,,,,,,,,,,,,,,,,,,,,,,,,,,,,,,,,,,,,,,,,,,,,,,,,,,,,,,,,,,,,,,,,,,,,,,,,,,,,,,,,,
,,8,1.5038,8,1.5038,0,82,82,2,1,22,kitchen,strawberry,,90437,001,2022-04-23_20h34.02.674,SPAMnetsValid,2021.1.4,Win32,59.77286312,,,,,,,,,,,,,,,,,,,,,,,,,,,,,,,,,,,,,,,,,,,,,,,,,,,,,,,,,,,,,,,,,,,,,,,,,,,,,,,,,,,,,,,,,
,,1,2.6437,1,2.6437,0,83,83,55,1,1,rose,yogurt,,90437,001,2022-04-23_20h34.02.674,SPAMnetsValid,2021.1.4,Win32,59.77286312,,,,,,,,,,,,,,,,,,,,,,,,,,,,,,,,,,,,,,,,,,,,,,,,,,,,,,,,,,,,,,,,,,,,,,,,,,,,,,,,,,,,,,,,,
,,2,1.8626,2,1.8626,0,84,84,88,1,92,broom,flower,,90437,001,2022-04-23_20h34.02.674,SPAMnetsValid,2021.1.4,Win32,59.77286312,,,,,,,,,,,,,,,,,,,,,,,,,,,,,,,,,,,,,,,,,,,,,,,,,,,,,,,,,,,,,,,,,,,,,,,,,,,,,,,,,,,,,,,,,
,,3,1.644,3,1.644,0,85,85,13,1,26,tomato,yogurt,,90437,001,2022-04-23_20h34.02.674,SPAMnetsValid,2021.1.4,Win32,59.77286312,,,,,,,,,,,,,,,,,,,,,,,,,,,,,,,,,,,,,,,,,,,,,,,,,,,,,,,,,,,,,,,,,,,,,,,,,,,,,,,,,,,,,,,,,
,,1,1.0788,1,1.0788,0,86,86,18,1,85,cake,tree,,90437,001,2022-04-23_20h34.02.674,SPAMnetsValid,2021.1.4,Win32,59.77286312,,,,,,,,,,,,,,,,,,,,,,,,,,,,,,,,,,,,,,,,,,,,,,,,,,,,,,,,,,,,,,,,,,,,,,,,,,,,,,,,,,,,,,,,,
,,9,1.5612,9,1.5612,0,87,87,30,1,3,cake,oven,,90437,001,2022-04-23_20h34.02.674,SPAMnetsValid,2021.1.4,Win32,59.77286312,,,,,,,,,,,,,,,,,,,,,,,,,,,,,,,,,,,,,,,,,,,,,,,,,,,,,,,,,,,,,,,,,,,,,,,,,,,,,,,,,,,,,,,,,
,,1,1.4715,1,1.4715,0,88,88,85,1,90,cactus,cake,,90437,001,2022-04-23_20h34.02.674,SPAMnetsValid,2021.1.4,Win32,59.77286312,,,,,,,,,,,,,,,,,,,,,,,,,,,,,,,,,,,,,,,,,,,,,,,,,,,,,,,,,,,,,,,,,,,,,,,,,,,,,,,,,,,,,,,,,
,,9,1.5272,9,1.5272,0,89,89,44,1,25,carrot,onion,,90437,001,2022-04-23_20h34.02.674,SPAMnetsValid,2021.1.4,Win32,59.77286312,,,,,,,,,,,,,,,,,,,,,,,,,,,,,,,,,,,,,,,,,,,,,,,,,,,,,,,,,,,,,,,,,,,,,,,,,,,,,,,,,,,,,,,,,
,,9,1.1985,9,1.1985,0,90,90,96,1,82,cake,kitchen,,90437,001,2022-04-23_20h34.02.674,SPAMnetsValid,2021.1.4,Win32,59.77286312,,,,,,,,,,,,,,,,,,,,,,,,,,,,,,,,,,,,,,,,,,,,,,,,,,,,,,,,,,,,,,,,,,,,,,,,,,,,,,,,,,,,,,,,,
,,1,1.6987,1,1.6987,0,91,91,0,1,53,garden,pretzel,,90437,001,2022-04-23_20h34.02.674,SPAMnetsValid,2021.1.4,Win32,59.77286312,,,,,,,,,,,,,,,,,,,,,,,,,,,,,,,,,,,,,,,,,,,,,,,,,,,,,,,,,,,,,,,,,,,,,,,,,,,,,,,,,,,,,,,,,
,,1,1.0255,1,1.0255,0,92,92,4,1,83,broom,carrot,,90437,001,2022-04-23_20h34.02.674,SPAMnetsValid,2021.1.4,Win32,59.77286312,,,,,,,,,,,,,,,,,,,,,,,,,,,,,,,,,,,,,,,,,,,,,,,,,,,,,,,,,,,,,,,,,,,,,,,,,,,,,,,,,,,,,,,,,
,,1,1.7549,1,1.7549,0,93,93,70,1,5,oven,tree,,90437,001,2022-04-23_20h34.02.674,SPAMnetsValid,2021.1.4,Win32,59.77286312,,,,,,,,,,,,,,,,,,,,,,,,,,,,,,,,,,,,,,,,,,,,,,,,,,,,,,,,,,,,,,,,,,,,,,,,,,,,,,,,,,,,,,,,,
,,6,1.4657,6,1.4657,0,94,94,50,1,81,pretzel,yogurt,,90437,001,2022-04-23_20h34.02.674,SPAMnetsValid,2021.1.4,Win32,59.77286312,,,,,,,,,,,,,,,,,,,,,,,,,,,,,,,,,,,,,,,,,,,,,,,,,,,,,,,,,,,,,,,,,,,,,,,,,,,,,,,,,,,,,,,,,
,,7,4.3173,7,4.3173,0,95,95,22,1,16,chocolate,flower,,90437,001,2022-04-23_20h34.02.674,SPAMnetsValid,2021.1.4,Win32,59.77286312,,,,,,,,,,,,,,,,,,,,,,,,,,,,,,,,,,,,,,,,,,,,,,,,,,,,,,,,,,,,,,,,,,,,,,,,,,,,,,,,,,,,,,,,,
,,2,10.9613,2,10.9613,0,96,96,35,1,55,tomato,tree,,90437,001,2022-04-23_20h34.02.674,SPAMnetsValid,2021.1.4,Win32,59.77286312,,,,,,,,,,,,,,,,,,,,,,,,,,,,,,,,,,,,,,,,,,,,,,,,,,,,,,,,,,,,,,,,,,,,,,,,,,,,,,,,,,,,,,,,,
,,,,,,,,,,,,,,,90437,001,2022-04-23_20h34.02.674,SPAMnetsValid,2021.1.4,Win32,59.77286312,0,0,0,0,1,,,,,,,,,,,,,,,,,,,,,,,,,,,,,,,,,,,,,,,,,,,,,,,,,,,,,,,,,,,,,,,,,,,,,,,,,,,,,,,,,,,,
,,,,,,,,,,,,,,,90437,001,2022-04-23_20h34.02.674,SPAMnetsValid,2021.1.4,Win32,59.77286312,,,,,,0,0,0,0,1,1,0,,,,,,,,,,,,,,,,,,,,,,,,,,,,,,,,,,,,,,,,,,,,,,,,,,,,,,,,,,,,,,,,,,,,,,,,,,,,,
,,,,1,5.8708,,,,,,164,cookie,garden,,90437,001,2022-04-23_20h34.02.674,SPAMnetsValid,2021.1.4,Win32,59.77286312,,,,,,,,,,,,,1,5.8708,0,0,0,59,1,,,,,,,,,,,,,,,,,,,,,,,,,,,,,,,,,,,,,,,,,,,,,,,,,,,,,,,,,,,,,,,,,,,,,,
,,,,1,1.1558,,,,,,123,cookie,tree,,90437,001,2022-04-23_20h34.02.674,SPAMnetsValid,2021.1.4,Win32,59.77286312,,,,,,,,,,,,,1,1.1558,0,1,1,46,1,,,,,,,,,,,,,,,,,,,,,,,,,,,,,,,,,,,,,,,,,,,,,,,,,,,,,,,,,,,,,,,,,,,,,,
,,,,8,1.9468,,,,,,188,flower,tree,,90437,001,2022-04-23_20h34.02.674,SPAMnetsValid,2021.1.4,Win32,59.77286312,,,,,,,,,,,,,8,1.9468,0,2,2,7,1,,,,,,,,,,,,,,,,,,,,,,,,,,,,,,,,,,,,,,,,,,,,,,,,,,,,,,,,,,,,,,,,,,,,,,
,,,,1,1.1762,,,,,,126,kitchen,tree,,90437,001,2022-04-23_20h34.02.674,SPAMnetsValid,2021.1.4,Win32,59.77286312,,,,,,,,,,,,,1,1.1762,0,3,3,50,1,,,,,,,,,,,,,,,,,,,,,,,,,,,,,,,,,,,,,,,,,,,,,,,,,,,,,,,,,,,,,,,,,,,,,,
,,,,9,1.1611,,,,,,106,cake,strawberry,,90437,001,2022-04-23_20h34.02.674,SPAMnetsValid,2021.1.4,Win32,59.77286312,,,,,,,,,,,,,9,1.1611,0,4,4,0,1,,,,,,,,,,,,,,,,,,,,,,,,,,,,,,,,,,,,,,,,,,,,,,,,,,,,,,,,,,,,,,,,,,,,,,
,,,,8,1.6549,,,,,,181,carrot,kitchen,,90437,001,2022-04-23_20h34.02.674,SPAMnetsValid,2021.1.4,Win32,59.77286312,,,,,,,,,,,,,8,1.6549,0,5,5,72,1,,,,,,,,,,,,,,,,,,,,,,,,,,,,,,,,,,,,,,,,,,,,,,,,,,,,,,,,,,,,,,,,,,,,,,
,,,,7,1.4047,,,,,,135,carrot,oven,,90437,001,2022-04-23_20h34.02.674,SPAMnetsValid,2021.1.4,Win32,59.77286312,,,,,,,,,,,,,7,1.4047,0,6,6,73,1,,,,,,,,,,,,,,,,,,,,,,,,,,,,,,,,,,,,,,,,,,,,,,,,,,,,,,,,,,,,,,,,,,,,,,
,,,,1,2.3819,,,,,,176,cactus,tomato,,90437,001,2022-04-23_20h34.02.674,SPAMnetsValid,2021.1.4,Win32,59.77286312,,,,,,,,,,,,,1,2.3819,0,7,7,9,1,,,,,,,,,,,,,,,,,,,,,,,,,,,,,,,,,,,,,,,,,,,,,,,,,,,,,,,,,,,,,,,,,,,,,,
,,,,4,1.8648,,,,,,140,cookie,refrigerator,,90437,001,2022-04-23_20h34.02.674,SPAMnetsValid,2021.1.4,Win32,59.77286312,,,,,,,,,,,,,4,1.8648,0,8,8,89,1,,,,,,,,,,,,,,,,,,,,,,,,,,,,,,,,,,,,,,,,,,,,,,,,,,,,,,,,,,,,,,,,,,,,,,
,,,,3,1.3555,,,,,,190,microwave,strawberry,,90437,001,2022-04-23_20h34.02.674,SPAMnetsValid,2021.1.4,Win32,59.77286312,,,,,,,,,,,,,3,1.3555,0,9,9,90,1,,,,,,,,,,,,,,,,,,,,,,,,,,,,,,,,,,,,,,,,,,,,,,,,,,,,,,,,,,,,,,,,,,,,,,
,,,,7,2.3919,,,,,,179,broom,oven,,90437,001,2022-04-23_20h34.02.674,SPAMnetsValid,2021.1.4,Win32,59.77286312,,,,,,,,,,,,,7,2.3919,0,10,10,45,1,,,,,,,,,,,,,,,,,,,,,,,,,,,,,,,,,,,,,,,,,,,,,,,,,,,,,,,,,,,,,,,,,,,,,,
,,,,9,1.4257,,,,,,110,chocolate,cookie,,90437,001,2022-04-23_20h34.02.674,SPAMnetsValid,2021.1.4,Win32,59.77286312,,,,,,,,,,,,,9,1.4257,0,11,11,52,1,,,,,,,,,,,,,,,,,,,,,,,,,,,,,,,,,,,,,,,,,,,,,,,,,,,,,,,,,,,,,,,,,,,,,,
,,,,6,1.7933,,,,,,173,kitchen,tomato,,90437,001,2022-04-23_20h34.02.674,SPAMnetsValid,2021.1.4,Win32,59.77286312,,,,,,,,,,,,,6,1.7933,0,12,12,1,1,,,,,,,,,,,,,,,,,,,,,,,,,,,,,,,,,,,,,,,,,,,,,,,,,,,,,,,,,,,,,,,,,,,,,,
,,,,9,1.1709,,,,,,194,cactus,cactus,CHECK,90437,001,2022-04-23_20h34.02.674,SPAMnetsValid,2021.1.4,Win32,59.77286312,,,,,,,,,,,,,9,1.1709,0,13,13,25,1,,,,,,,,,,,,,,,,,,,,,,,,,,,,,,,,,,,,,,,,,,,,,,,,,,,,,,,,,,,,,,,,,,,,,,
,,,,7,1.7056,,,,,,131,cactus,garden,,90437,001,2022-04-23_20h34.02.674,SPAMnetsValid,2021.1.4,Win32,59.77286312,,,,,,,,,,,,,7,1.7056,0,14,14,33,1,,,,,,,,,,,,,,,,,,,,,,,,,,,,,,,,,,,,,,,,,,,,,,,,,,,,,,,,,,,,,,,,,,,,,,
,,,,1,1.7879,,,,,,105,cactus,oven,,90437,001,2022-04-23_20h34.02.674,SPAMnetsValid,2021.1.4,Win32,59.77286312,,,,,,,,,,,,,1,1.7879,0,15,15,13,1,,,,,,,,,,,,,,,,,,,,,,,,,,,,,,,,,,,,,,,,,,,,,,,,,,,,,,,,,,,,,,,,,,,,,,
,,,,1,1.2719,,,,,,119,strawberry,tree,,90437,001,2022-04-23_20h34.02.674,SPAMnetsValid,2021.1.4,Win32,59.77286312,,,,,,,,,,,,,1,1.2719,0,16,16,18,1,,,,,,,,,,,,,,,,,,,,,,,,,,,,,,,,,,,,,,,,,,,,,,,,,,,,,,,,,,,,,,,,,,,,,,
,,,,3,2.6986,,,,,,159,cookie,flower,,90437,001,2022-04-23_20h34.02.674,SPAMnetsValid,2021.1.4,Win32,59.77286312,,,,,,,,,,,,,3,2.6986,0,17,17,21,1,,,,,,,,,,,,,,,,,,,,,,,,,,,,,,,,,,,,,,,,,,,,,,,,,,,,,,,,,,,,,,,,,,,,,,
,,,,8,2.5887,,,,,,168,cactus,flower,,90437,001,2022-04-23_20h34.02.674,SPAMnetsValid,2021.1.4,Win32,59.77286312,,,,,,,,,,,,,8,2.5887,0,18,18,51,1,,,,,,,,,,,,,,,,,,,,,,,,,,,,,,,,,,,,,,,,,,,,,,,,,,,,,,,,,,,,,,,,,,,,,,
,,,,2,1.7419,,,,,,111,carrot,microwave,,90437,001,2022-04-23_20h34.02.674,SPAMnetsValid,2021.1.4,Win32,59.77286312,,,,,,,,,,,,,2,1.7419,0,19,19,16,1,,,,,,,,,,,,,,,,,,,,,,,,,,,,,,,,,,,,,,,,,,,,,,,,,,,,,,,,,,,,,,,,,,,,,,
,,,,1,2.0594,,,,,,157,refrigerator,rose,,90437,001,2022-04-23_20h34.02.674,SPAMnetsValid,2021.1.4,Win32,59.77286312,,,,,,,,,,,,,1,2.0594,0,20,20,64,1,,,,,,,,,,,,,,,,,,,,,,,,,,,,,,,,,,,,,,,,,,,,,,,,,,,,,,,,,,,,,,,,,,,,,,
,,,,6,2.1329,,,,,,103,pretzel,tomato,,90437,001,2022-04-23_20h34.02.674,SPAMnetsValid,2021.1.4,Win32,59.77286312,,,,,,,,,,,,,6,2.1329,0,21,21,79,1,,,,,,,,,,,,,,,,,,,,,,,,,,,,,,,,,,,,,,,,,,,,,,,,,,,,,,,,,,,,,,,,,,,,,,
,,,,2,1.6145,,,,,,109,broom,strawberry,,90437,001,2022-04-23_20h34.02.674,SPAMnetsValid,2021.1.4,Win32,59.77286312,,,,,,,,,,,,,2,1.6145,0,22,22,4,1,,,,,,,,,,,,,,,,,,,,,,,,,,,,,,,,,,,,,,,,,,,,,,,,,,,,,,,,,,,,,,,,,,,,,,
,,,,3,1.6489,,,,,,136,chocolate,microwave,,90437,001,2022-04-23_20h34.02.674,SPAMnetsValid,2021.1.4,Win32,59.77286312,,,,,,,,,,,,,3,1.6489,0,23,23,96,1,,,,,,,,,,,,,,,,,,,,,,,,,,,,,,,,,,,,,,,,,,,,,,,,,,,,,,,,,,,,,,,,,,,,,,
,,,,1,1.2543,,,,,,145,cactus,yogurt,,90437,001,2022-04-23_20h34.02.674,SPAMnetsValid,2021.1.4,Win32,59.77286312,,,,,,,,,,,,,1,1.2543,0,24,24,15,1,,,,,,,,,,,,,,,,,,,,,,,,,,,,,,,,,,,,,,,,,,,,,,,,,,,,,,,,,,,,,,,,,,,,,,
,,,,9,1.4045,,,,,,142,garden,tree,,90437,001,2022-04-23_20h34.02.674,SPAMnetsValid,2021.1.4,Win32,59.77286312,,,,,,,,,,,,,9,1.4045,0,25,25,22,1,,,,,,,,,,,,,,,,,,,,,,,,,,,,,,,,,,,,,,,,,,,,,,,,,,,,,,,,,,,,,,,,,,,,,,
,,,,4,2.372,,,,,,108,carrot,chocolate,,90437,001,2022-04-23_20h34.02.674,SPAMnetsValid,2021.1.4,Win32,59.77286312,,,,,,,,,,,,,4,2.372,0,26,26,5,1,,,,,,,,,,,,,,,,,,,,,,,,,,,,,,,,,,,,,,,,,,,,,,,,,,,,,,,,,,,,,,,,,,,,,,
,,,,9,1.2375,,,,,,150,microwave,refrigerator,,90437,001,2022-04-23_20h34.02.674,SPAMnetsValid,2021.1.4,Win32,59.77286312,,,,,,,,,,,,,9,1.2375,0,27,27,66,1,,,,,,,,,,,,,,,,,,,,,,,,,,,,,,,,,,,,,,,,,,,,,,,,,,,,,,,,,,,,,,,,,,,,,,
,,,,1,1.4139,,,,,,146,pretzel,tree,,90437,001,2022-04-23_20h34.02.674,SPAMnetsValid,2021.1.4,Win32,59.77286312,,,,,,,,,,,,,1,1.4139,0,28,28,80,1,,,,,,,,,,,,,,,,,,,,,,,,,,,,,,,,,,,,,,,,,,,,,,,,,,,,,,,,,,,,,,,,,,,,,,
,,,,2,1.1261,,,,,,130,microwave,yogurt,,90437,001,2022-04-23_20h34.02.674,SPAMnetsValid,2021.1.4,Win32,59.77286312,,,,,,,,,,,,,2,1.1261,0,29,29,84,1,,,,,,,,,,,,,,,,,,,,,,,,,,,,,,,,,,,,,,,,,,,,,,,,,,,,,,,,,,,,,,,,,,,,,,
,,,,2,1.3316,,,,,,104,garden,microwave,,90437,001,2022-04-23_20h34.02.674,SPAMnetsValid,2021.1.4,Win32,59.77286312,,,,,,,,,,,,,2,1.3316,0,30,30,81,1,,,,,,,,,,,,,,,,,,,,,,,,,,,,,,,,,,,,,,,,,,,,,,,,,,,,,,,,,,,,,,,,,,,,,,
,,,,3,1.4128,,,,,,128,melon,microwave,,90437,001,2022-04-23_20h34.02.674,SPAMnetsValid,2021.1.4,Win32,59.77286312,,,,,,,,,,,,,3,1.4128,0,31,31,74,1,,,,,,,,,,,,,,,,,,,,,,,,,,,,,,,,,,,,,,,,,,,,,,,,,,,,,,,,,,,,,,,,,,,,,,
,,,,7,1.7976,,,,,,148,flower,melon,,90437,001,2022-04-23_20h34.02.674,SPAMnetsValid,2021.1.4,Win32,59.77286312,,,,,,,,,,,,,7,1.7976,0,32,32,23,1,,,,,,,,,,,,,,,,,,,,,,,,,,,,,,,,,,,,,,,,,,,,,,,,,,,,,,,,,,,,,,,,,,,,,,
,,,,6,1.6502,,,,,,166,cake,yogurt,,90437,001,2022-04-23_20h34.02.674,SPAMnetsValid,2021.1.4,Win32,59.77286312,,,,,,,,,,,,,6,1.6502,0,33,33,91,1,,,,,,,,,,,,,,,,,,,,,,,,,,,,,,,,,,,,,,,,,,,,,,,,,,,,,,,,,,,,,,,,,,,,,,
,,,,2,2.2716,,,,,,155,carrot,cookie,,90437,001,2022-04-23_20h34.02.674,SPAMnetsValid,2021.1.4,Win32,59.77286312,,,,,,,,,,,,,2,2.2716,0,34,34,38,1,,,,,,,,,,,,,,,,,,,,,,,,,,,,,,,,,,,,,,,,,,,,,,,,,,,,,,,,,,,,,,,,,,,,,,
,,,,8,2.428,,,,,,113,refrigerator,strawberry,,90437,001,2022-04-23_20h34.02.674,SPAMnetsValid,2021.1.4,Win32,59.77286312,,,,,,,,,,,,,8,2.428,0,35,35,56,1,,,,,,,,,,,,,,,,,,,,,,,,,,,,,,,,,,,,,,,,,,,,,,,,,,,,,,,,,,,,,,,,,,,,,,
,,,,3,1.4793,,,,,,174,cake,pretzel,,90437,001,2022-04-23_20h34.02.674,SPAMnetsValid,2021.1.4,Win32,59.77286312,,,,,,,,,,,,,3,1.4793,0,36,36,2,1,,,,,,,,,,,,,,,,,,,,,,,,,,,,,,,,,,,,,,,,,,,,,,,,,,,,,,,,,,,,,,,,,,,,,,
,,,,8,2.0569,,,,,,102,chocolate,refrigerator,,90437,001,2022-04-23_20h34.02.674,SPAMnetsValid,2021.1.4,Win32,59.77286312,,,,,,,,,,,,,8,2.0569,0,37,37,76,1,,,,,,,,,,,,,,,,,,,,,,,,,,,,,,,,,,,,,,,,,,,,,,,,,,,,,,,,,,,,,,,,,,,,,,
,,,,9,1.7631,,,,,,112,cake,carrot,,90437,001,2022-04-23_20h34.02.674,SPAMnetsValid,2021.1.4,Win32,59.77286312,,,,,,,,,,,,,9,1.7631,0,38,38,39,1,,,,,,,,,,,,,,,,,,,,,,,,,,,,,,,,,,,,,,,,,,,,,,,,,,,,,,,,,,,,,,,,,,,,,,
,,,,2,1.3938,,,,,,163,melon,refrigerator,,90437,001,2022-04-23_20h34.02.674,SPAMnetsValid,2021.1.4,Win32,59.77286312,,,,,,,,,,,,,2,1.3938,0,39,39,29,1,,,,,,,,,,,,,,,,,,,,,,,,,,,,,,,,,,,,,,,,,,,,,,,,,,,,,,,,,,,,,,,,,,,,,,
,,,,2,1.5211,,,,,,165,onion,rose,,90437,001,2022-04-23_20h34.02.674,SPAMnetsValid,2021.1.4,Win32,59.77286312,,,,,,,,,,,,,2,1.5211,0,40,40,40,1,,,,,,,,,,,,,,,,,,,,,,,,,,,,,,,,,,,,,,,,,,,,,,,,,,,,,,,,,,,,,,,,,,,,,,
,,,,7,1.3711,,,,,,186,kitchen,yogurt,,90437,001,2022-04-23_20h34.02.674,SPAMnetsValid,2021.1.4,Win32,59.77286312,,,,,,,,,,,,,7,1.3711,0,41,41,48,1,,,,,,,,,,,,,,,,,,,,,,,,,,,,,,,,,,,,,,,,,,,,,,,,,,,,,,,,,,,,,,,,,,,,,,
,,,,2,1.4094,,,,,,107,rose,tomato,,90437,001,2022-04-23_20h34.02.674,SPAMnetsValid,2021.1.4,Win32,59.77286312,,,,,,,,,,,,,2,1.4094,0,42,42,26,1,,,,,,,,,,,,,,,,,,,,,,,,,,,,,,,,,,,,,,,,,,,,,,,,,,,,,,,,,,,,,,,,,,,,,,
,,,,3,1.105,,,,,,162,microwave,tomato,,90437,001,2022-04-23_20h34.02.674,SPAMnetsValid,2021.1.4,Win32,59.77286312,,,,,,,,,,,,,3,1.105,0,43,43,12,1,,,,,,,,,,,,,,,,,,,,,,,,,,,,,,,,,,,,,,,,,,,,,,,,,,,,,,,,,,,,,,,,,,,,,,
,,,,6,2.0959,,,,,,115,refrigerator,tomato,,90437,001,2022-04-23_20h34.02.674,SPAMnetsValid,2021.1.4,Win32,59.77286312,,,,,,,,,,,,,6,2.0959,0,44,44,85,1,,,,,,,,,,,,,,,,,,,,,,,,,,,,,,,,,,,,,,,,,,,,,,,,,,,,,,,,,,,,,,,,,,,,,,
,,,,6,1.3996,,,,,,114,cookie,strawberry,,90437,001,2022-04-23_20h34.02.674,SPAMnetsValid,2021.1.4,Win32,59.77286312,,,,,,,,,,,,,6,1.3996,0,45,45,87,1,,,,,,,,,,,,,,,,,,,,,,,,,,,,,,,,,,,,,,,,,,,,,,,,,,,,,,,,,,,,,,,,,,,,,,
,,,,9,2.8935,,,,,,122,flower,garden,,90437,001,2022-04-23_20h34.02.674,SPAMnetsValid,2021.1.4,Win32,59.77286312,,,,,,,,,,,,,9,2.8935,0,46,46,60,1,,,,,,,,,,,,,,,,,,,,,,,,,,,,,,,,,,,,,,,,,,,,,,,,,,,,,,,,,,,,,,,,,,,,,,
,,,,9,1.2098,,,,,,193,melon,melon,CHECK,90437,001,2022-04-23_20h34.02.674,SPAMnetsValid,2021.1.4,Win32,59.77286312,,,,,,,,,,,,,9,1.2098,0,47,47,86,1,,,,,,,,,,,,,,,,,,,,,,,,,,,,,,,,,,,,,,,,,,,,,,,,,,,,,,,,,,,,,,,,,,,,,,
,,,,6,1.7941,,,,,,178,cactus,carrot,,90437,001,2022-04-23_20h34.02.674,SPAMnetsValid,2021.1.4,Win32,59.77286312,,,,,,,,,,,,,6,1.7941,0,48,48,75,1,,,,,,,,,,,,,,,,,,,,,,,,,,,,,,,,,,,,,,,,,,,,,,,,,,,,,,,,,,,,,,,,,,,,,,
,,,,2,0.9762,,,,,,184,oven,pretzel,,90437,001,2022-04-23_20h34.02.674,SPAMnetsValid,2021.1.4,Win32,59.77286312,,,,,,,,,,,,,2,0.9762,0,49,49,42,1,,,,,,,,,,,,,,,,,,,,,,,,,,,,,,,,,,,,,,,,,,,,,,,,,,,,,,,,,,,,,,,,,,,,,,
,,,,3,1.3903,,,,,,171,cake,tomato,,90437,001,2022-04-23_20h34.02.674,SPAMnetsValid,2021.1.4,Win32,59.77286312,,,,,,,,,,,,,3,1.3903,0,50,50,88,1,,,,,,,,,,,,,,,,,,,,,,,,,,,,,,,,,,,,,,,,,,,,,,,,,,,,,,,,,,,,,,,,,,,,,,
,,,,3,1.4247,,,,,,161,kitchen,pretzel,,90437,001,2022-04-23_20h34.02.674,SPAMnetsValid,2021.1.4,Win32,59.77286312,,,,,,,,,,,,,3,1.4247,0,51,51,36,1,,,,,,,,,,,,,,,,,,,,,,,,,,,,,,,,,,,,,,,,,,,,,,,,,,,,,,,,,,,,,,,,,,,,,,
,,,,8,1.5897,,,,,,116,cake,chocolate,,90437,001,2022-04-23_20h34.02.674,SPAMnetsValid,2021.1.4,Win32,59.77286312,,,,,,,,,,,,,8,1.5897,0,52,52,44,1,,,,,,,,,,,,,,,,,,,,,,,,,,,,,,,,,,,,,,,,,,,,,,,,,,,,,,,,,,,,,,,,,,,,,,
,,,,2,1.162,,,,,,121,broom,microwave,,90437,001,2022-04-23_20h34.02.674,SPAMnetsValid,2021.1.4,Win32,59.77286312,,,,,,,,,,,,,2,1.162,0,53,53,95,1,,,,,,,,,,,,,,,,,,,,,,,,,,,,,,,,,,,,,,,,,,,,,,,,,,,,,,,,,,,,,,,,,,,,,,
,,,,9,2.5564,,,,,,158,cookie,oven,,90437,001,2022-04-23_20h34.02.674,SPAMnetsValid,2021.1.4,Win32,59.77286312,,,,,,,,,,,,,9,2.5564,0,54,54,27,1,,,,,,,,,,,,,,,,,,,,,,,,,,,,,,,,,,,,,,,,,,,,,,,,,,,,,,,,,,,,,,,,,,,,,,
,,,,3,2.2986,,,,,,152,cactus,strawberry,,90437,001,2022-04-23_20h34.02.674,SPAMnetsValid,2021.1.4,Win32,59.77286312,,,,,,,,,,,,,3,2.2986,0,55,55,49,1,,,,,,,,,,,,,,,,,,,,,,,,,,,,,,,,,,,,,,,,,,,,,,,,,,,,,,,,,,,,,,,,,,,,,,
,,,,7,2.3236,,,,,,160,cookie,kitchen,,90437,001,2022-04-23_20h34.02.674,SPAMnetsValid,2021.1.4,Win32,59.77286312,,,,,,,,,,,,,7,2.3236,0,56,56,65,1,,,,,,,,,,,,,,,,,,,,,,,,,,,,,,,,,,,,,,,,,,,,,,,,,,,,,,,,,,,,,,,,,,,,,,
,,,,1,2.3446,,,,,,129,cactus,refrigerator,,90437,001,2022-04-23_20h34.02.674,SPAMnetsValid,2021.1.4,Win32,59.77286312,,,,,,,,,,,,,1,2.3446,0,57,57,3,1,,,,,,,,,,,,,,,,,,,,,,,,,,,,,,,,,,,,,,,,,,,,,,,,,,,,,,,,,,,,,,,,,,,,,,
,,,,6,3.1395,,,,,,139,carrot,strawberry,,90437,001,2022-04-23_20h34.02.674,SPAMnetsValid,2021.1.4,Win32,59.77286312,,,,,,,,,,,,,6,3.1395,0,58,58,37,1,,,,,,,,,,,,,,,,,,,,,,,,,,,,,,,,,,,,,,,,,,,,,,,,,,,,,,,,,,,,,,,,,,,,,,
,,,,7,2.1996,,,,,,182,flower,refrigerator,,90437,001,2022-04-23_20h34.02.674,SPAMnetsValid,2021.1.4,Win32,59.77286312,,,,,,,,,,,,,7,2.1996,0,59,59,32,1,,,,,,,,,,,,,,,,,,,,,,,,,,,,,,,,,,,,,,,,,,,,,,,,,,,,,,,,,,,,,,,,,,,,,,
,,,,8,1.3562,,,,,,99,garden,melon,,90437,001,2022-04-23_20h34.02.674,SPAMnetsValid,2021.1.4,Win32,59.77286312,,,,,,,,,,,,,8,1.3562,0,60,60,17,1,,,,,,,,,,,,,,,,,,,,,,,,,,,,,,,,,,,,,,,,,,,,,,,,,,,,,,,,,,,,,,,,,,,,,,
,,,,9,1.7565,,,,,,154,strawberry,yogurt,,90437,001,2022-04-23_20h34.02.674,SPAMnetsValid,2021.1.4,Win32,59.77286312,,,,,,,,,,,,,9,1.7565,0,61,61,28,1,,,,,,,,,,,,,,,,,,,,,,,,,,,,,,,,,,,,,,,,,,,,,,,,,,,,,,,,,,,,,,,,,,,,,,
,,,,9,1.5055,,,,,,167,carrot,garden,,90437,001,2022-04-23_20h34.02.674,SPAMnetsValid,2021.1.4,Win32,59.77286312,,,,,,,,,,,,,9,1.5055,0,62,62,47,1,,,,,,,,,,,,,,,,,,,,,,,,,,,,,,,,,,,,,,,,,,,,,,,,,,,,,,,,,,,,,,,,,,,,,,
,,,,3,2.1925,,,,,,132,broom,tree,,90437,001,2022-04-23_20h34.02.674,SPAMnetsValid,2021.1.4,Win32,59.77286312,,,,,,,,,,,,,3,2.1925,0,63,63,78,1,,,,,,,,,,,,,,,,,,,,,,,,,,,,,,,,,,,,,,,,,,,,,,,,,,,,,,,,,,,,,,,,,,,,,,
,,,,3,1.7308,,,,,,156,melon,rose,,90437,001,2022-04-23_20h34.02.674,SPAMnetsValid,2021.1.4,Win32,59.77286312,,,,,,,,,,,,,3,1.7308,0,64,64,31,1,,,,,,,,,,,,,,,,,,,,,,,,,,,,,,,,,,,,,,,,,,,,,,,,,,,,,,,,,,,,,,,,,,,,,,
,,,,2,1.297,,,,,,175,melon,onion,,90437,001,2022-04-23_20h34.02.674,SPAMnetsValid,2021.1.4,Win32,59.77286312,,,,,,,,,,,,,2,1.297,0,65,65,41,1,,,,,,,,,,,,,,,,,,,,,,,,,,,,,,,,,,,,,,,,,,,,,,,,,,,,,,,,,,,,,,,,,,,,,,
,,,,1,2.0106,,,,,,143,pretzel,rose,,90437,001,2022-04-23_20h34.02.674,SPAMnetsValid,2021.1.4,Win32,59.77286312,,,,,,,,,,,,,1,2.0106,0,66,66,55,1,,,,,,,,,,,,,,,,,,,,,,,,,,,,,,,,,,,,,,,,,,,,,,,,,,,,,,,,,,,,,,,,,,,,,,
,,,,7,1.9718,,,,,,172,kitchen,melon,,90437,001,2022-04-23_20h34.02.674,SPAMnetsValid,2021.1.4,Win32,59.77286312,,,,,,,,,,,,,7,1.9718,0,67,67,77,1,,,,,,,,,,,,,,,,,,,,,,,,,,,,,,,,,,,,,,,,,,,,,,,,,,,,,,,,,,,,,,,,,,,,,,
,,,,3,1.9049,,,,,,98,pretzel,strawberry,,90437,001,2022-04-23_20h34.02.674,SPAMnetsValid,2021.1.4,Win32,59.77286312,,,,,,,,,,,,,3,1.9049,0,68,68,82,1,,,,,,,,,,,,,,,,,,,,,,,,,,,,,,,,,,,,,,,,,,,,,,,,,,,,,,,,,,,,,,,,,,,,,,
,,,,9,1.5713,,,,,,100,garden,tomato,,90437,001,2022-04-23_20h34.02.674,SPAMnetsValid,2021.1.4,Win32,59.77286312,,,,,,,,,,,,,9,1.5713,0,69,69,83,1,,,,,,,,,,,,,,,,,,,,,,,,,,,,,,,,,,,,,,,,,,,,,,,,,,,,,,,,,,,,,,,,,,,,,,
,,,,7,1.9336,,,,,,118,chocolate,oven,,90437,001,2022-04-23_20h34.02.674,SPAMnetsValid,2021.1.4,Win32,59.77286312,,,,,,,,,,,,,7,1.9336,0,70,70,10,1,,,,,,,,,,,,,,,,,,,,,,,,,,,,,,,,,,,,,,,,,,,,,,,,,,,,,,,,,,,,,,,,,,,,,,
,,,,1,1.7705,,,,,,127,cactus,chocolate,,90437,001,2022-04-23_20h34.02.674,SPAMnetsValid,2021.1.4,Win32,59.77286312,,,,,,,,,,,,,1,1.7705,0,71,71,57,1,,,,,,,,,,,,,,,,,,,,,,,,,,,,,,,,,,,,,,,,,,,,,,,,,,,,,,,,,,,,,,,,,,,,,,
,,,,2,1.7801,,,,,,151,microwave,onion,,90437,001,2022-04-23_20h34.02.674,SPAMnetsValid,2021.1.4,Win32,59.77286312,,,,,,,,,,,,,2,1.7801,0,72,72,6,1,,,,,,,,,,,,,,,,,,,,,,,,,,,,,,,,,,,,,,,,,,,,,,,,,,,,,,,,,,,,,,,,,,,,,,
,,,,4,3.9453,,,,,,133,cake,flower,,90437,001,2022-04-23_20h34.02.674,SPAMnetsValid,2021.1.4,Win32,59.77286312,,,,,,,,,,,,,4,3.9453,0,73,73,94,1,,,,,,,,,,,,,,,,,,,,,,,,,,,,,,,,,,,,,,,,,,,,,,,,,,,,,,,,,,,,,,,,,,,,,,
,,,,4,1.9336,,,,,,141,melon,tomato,,90437,001,2022-04-23_20h34.02.674,SPAMnetsValid,2021.1.4,Win32,59.77286312,,,,,,,,,,,,,4,1.9336,0,74,74,70,1,,,,,,,,,,,,,,,,,,,,,,,,,,,,,,,,,,,,,,,,,,,,,,,,,,,,,,,,,,,,,,,,,,,,,,
,,,,9,1.44,,,,,,138,flower,rose,,90437,001,2022-04-23_20h34.02.674,SPAMnetsValid,2021.1.4,Win32,59.77286312,,,,,,,,,,,,,9,1.44,0,75,75,61,1,,,,,,,,,,,,,,,,,,,,,,,,,,,,,,,,,,,,,,,,,,,,,,,,,,,,,,,,,,,,,,,,,,,,,,
,,,,2,1.5223,,,,,,101,cactus,kitchen,,90437,001,2022-04-23_20h34.02.674,SPAMnetsValid,2021.1.4,Win32,59.77286312,,,,,,,,,,,,,2,1.5223,0,76,76,54,1,,,,,,,,,,,,,,,,,,,,,,,,,,,,,,,,,,,,,,,,,,,,,,,,,,,,,,,,,,,,,,,,,,,,,,
,,,,3,1.3139,,,,,,153,carrot,pretzel,,90437,001,2022-04-23_20h34.02.674,SPAMnetsValid,2021.1.4,Win32,59.77286312,,,,,,,,,,,,,3,1.3139,0,77,77,34,1,,,,,,,,,,,,,,,,,,,,,,,,,,,,,,,,,,,,,,,,,,,,,,,,,,,,,,,,,,,,,,,,,,,,,,
,,,,3,1.7469,,,,,,96,oven,strawberry,,90437,001,2022-04-23_20h34.02.674,SPAMnetsValid,2021.1.4,Win32,59.77286312,,,,,,,,,,,,,3,1.7469,0,78,78,67,1,,,,,,,,,,,,,,,,,,,,,,,,,,,,,,,,,,,,,,,,,,,,,,,,,,,,,,,,,,,,,,,,,,,,,,
,,,,3,1.4669,,,,,,169,onion,yogurt,,90437,001,2022-04-23_20h34.02.674,SPAMnetsValid,2021.1.4,Win32,59.77286312,,,,,,,,,,,,,3,1.4669,0,79,79,24,1,,,,,,,,,,,,,,,,,,,,,,,,,,,,,,,,,,,,,,,,,,,,,,,,,,,,,,,,,,,,,,,,,,,,,,
,,,,1,1.9563,,,,,,137,microwave,tree,,90437,001,2022-04-23_20h34.02.674,SPAMnetsValid,2021.1.4,Win32,59.77286312,,,,,,,,,,,,,1,1.9563,0,80,80,63,1,,,,,,,,,,,,,,,,,,,,,,,,,,,,,,,,,,,,,,,,,,,,,,,,,,,,,,,,,,,,,,,,,,,,,,
,,,,1,1.3397,,,,,,180,tree,yogurt,,90437,001,2022-04-23_20h34.02.674,SPAMnetsValid,2021.1.4,Win32,59.77286312,,,,,,,,,,,,,1,1.3397,0,81,81,68,1,,,,,,,,,,,,,,,,,,,,,,,,,,,,,,,,,,,,,,,,,,,,,,,,,,,,,,,,,,,,,,,,,,,,,,
,,,,1,3.0055,,,,,,144,cake,garden,,90437,001,2022-04-23_20h34.02.674,SPAMnetsValid,2021.1.4,Win32,59.77286312,,,,,,,,,,,,,1,3.0055,0,82,82,58,1,,,,,,,,,,,,,,,,,,,,,,,,,,,,,,,,,,,,,,,,,,,,,,,,,,,,,,,,,,,,,,,,,,,,,,
,,,,7,1.8789,,,,,,117,melon,strawberry,,90437,001,2022-04-23_20h34.02.674,SPAMnetsValid,2021.1.4,Win32,59.77286312,,,,,,,,,,,,,7,1.8789,0,83,83,11,1,,,,,,,,,,,,,,,,,,,,,,,,,,,,,,,,,,,,,,,,,,,,,,,,,,,,,,,,,,,,,,,,,,,,,,
,,,,9,1.9339,,,,,,177,chocolate,strawberry,,90437,001,2022-04-23_20h34.02.674,SPAMnetsValid,2021.1.4,Win32,59.77286312,,,,,,,,,,,,,9,1.9339,0,84,84,53,1,,,,,,,,,,,,,,,,,,,,,,,,,,,,,,,,,,,,,,,,,,,,,,,,,,,,,,,,,,,,,,,,,,,,,,
,,,,4,2.5073,,,,,,183,cake,rose,,90437,001,2022-04-23_20h34.02.674,SPAMnetsValid,2021.1.4,Win32,59.77286312,,,,,,,,,,,,,4,2.5073,0,85,85,19,1,,,,,,,,,,,,,,,,,,,,,,,,,,,,,,,,,,,,,,,,,,,,,,,,,,,,,,,,,,,,,,,,,,,,,,
,,,,6,1.5243,,,,,,170,cookie,microwave,,90437,001,2022-04-23_20h34.02.674,SPAMnetsValid,2021.1.4,Win32,59.77286312,,,,,,,,,,,,,6,1.5243,0,86,86,92,1,,,,,,,,,,,,,,,,,,,,,,,,,,,,,,,,,,,,,,,,,,,,,,,,,,,,,,,,,,,,,,,,,,,,,,
,,,,2,3.3091,,,,,,149,broom,tomato,,90437,001,2022-04-23_20h34.02.674,SPAMnetsValid,2021.1.4,Win32,59.77286312,,,,,,,,,,,,,2,3.3091,0,87,87,20,1,,,,,,,,,,,,,,,,,,,,,,,,,,,,,,,,,,,,,,,,,,,,,,,,,,,,,,,,,,,,,,,,,,,,,,
,,,,6,2.6746,,,,,,134,carrot,flower,,90437,001,2022-04-23_20h34.02.674,SPAMnetsValid,2021.1.4,Win32,59.77286312,,,,,,,,,,,,,6,2.6746,0,88,88,93,1,,,,,,,,,,,,,,,,,,,,,,,,,,,,,,,,,,,,,,,,,,,,,,,,,,,,,,,,,,,,,,,,,,,,,,
,,,,2,1.1806,,,,,,189,onion,tree,,90437,001,2022-04-23_20h34.02.674,SPAMnetsValid,2021.1.4,Win32,59.77286312,,,,,,,,,,,,,2,1.1806,0,89,89,62,1,,,,,,,,,,,,,,,,,,,,,,,,,,,,,,,,,,,,,,,,,,,,,,,,,,,,,,,,,,,,,,,,,,,,,,
,,,,3,1.1733,,,,,,125,carrot,tree,,90437,001,2022-04-23_20h34.02.674,SPAMnetsValid,2021.1.4,Win32,59.77286312,,,,,,,,,,,,,3,1.1733,0,90,90,30,1,,,,,,,,,,,,,,,,,,,,,,,,,,,,,,,,,,,,,,,,,,,,,,,,,,,,,,,,,,,,,,,,,,,,,,
,,,,9,2.1235,,,,,,120,microwave,oven,,90437,001,2022-04-23_20h34.02.674,SPAMnetsValid,2021.1.4,Win32,59.77286312,,,,,,,,,,,,,9,2.1235,0,91,91,14,1,,,,,,,,,,,,,,,,,,,,,,,,,,,,,,,,,,,,,,,,,,,,,,,,,,,,,,,,,,,,,,,,,,,,,,
,,,,9,1.6909,,,,,,124,oven,refrigerator,,90437,001,2022-04-23_20h34.02.674,SPAMnetsValid,2021.1.4,Win32,59.77286312,,,,,,,,,,,,,9,1.6909,0,92,92,69,1,,,,,,,,,,,,,,,,,,,,,,,,,,,,,,,,,,,,,,,,,,,,,,,,,,,,,,,,,,,,,,,,,,,,,,
,,,,7,2.0076,,,,,,147,cake,refrigerator,,90437,001,2022-04-23_20h34.02.674,SPAMnetsValid,2021.1.4,Win32,59.77286312,,,,,,,,,,,,,7,2.0076,0,93,93,35,1,,,,,,,,,,,,,,,,,,,,,,,,,,,,,,,,,,,,,,,,,,,,,,,,,,,,,,,,,,,,,,,,,,,,,,
,,,,6,2.0662,,,,,,185,cactus,rose,,90437,001,2022-04-23_20h34.02.674,SPAMnetsValid,2021.1.4,Win32,59.77286312,,,,,,,,,,,,,6,2.0662,0,94,94,43,1,,,,,,,,,,,,,,,,,,,,,,,,,,,,,,,,,,,,,,,,,,,,,,,,,,,,,,,,,,,,,,,,,,,,,,
,,,,1,1.3833,,,,,,187,cactus,microwave,,90437,001,2022-04-23_20h34.02.674,SPAMnetsValid,2021.1.4,Win32,59.77286312,,,,,,,,,,,,,1,1.3833,0,95,95,71,1,,,,,,,,,,,,,,,,,,,,,,,,,,,,,,,,,,,,,,,,,,,,,,,,,,,,,,,,,,,,,,,,,,,,,,
,,,,8,1.5639,,,,,,97,chocolate,kitchen,,90437,001,2022-04-23_20h34.02.674,SPAMnetsValid,2021.1.4,Win32,59.77286312,,,,,,,,,,,,,8,1.5639,0,96,96,8,1,,,,,,,,,,,,,,,,,,,,,,,,,,,,,,,,,,,,,,,,,,,,,,,,,,,,,,,,,,,,,,,,,,,,,,
,,,,,,,,,,,,,,,90437,001,2022-04-23_20h34.02.674,SPAMnetsValid,2021.1.4,Win32,59.77286312,,,,,,,,,,,,,,,,,,,,0,0,0,0,1,,,,,,,,,,,,,,,,,,,,,,,,,,,,,,,,,,,,,,,,,,,,,,,,,,,,,,,,,,,,,,,,,
,,,,,,,,,,,,,,,90437,001,2022-04-23_20h34.02.674,SPAMnetsValid,2021.1.4,Win32,59.77286312,,,,,,0,1,1,1,1,0,1,,,,,,,,,,,,,,,,,,,,,,,,,,,,,,,,,,,,,,,,,,,,,,,,,,,,,,,,,,,,,,,,,,,,,,,,,,,,,
,,,,,,,,,,,,,,,90437,001,2022-04-23_20h34.02.674,SPAMnetsValid,2021.1.4,Win32,59.77286312,,,,,,,,,,,,,,,,,,,,,,,,,4,3.2676,0,0,0,0,1,rancor,forbearance,ridicule,malice,bravery,3,,,,,,,,,,,,,,,,,,,,,,,,,,,,,,,,,,,,,,,,,,,,,,,,,,,,
,,,,,,,,,,,,,,,90437,001,2022-04-23_20h34.02.674,SPAMnetsValid,2021.1.4,Win32,59.77286312,,,,,,,,,,,,,,,,,,,,,,,,,4,2.664,0,1,1,1,1,raucous,empty,quiet,smooth,harsh,4,,,,,,,,,,,,,,,,,,,,,,,,,,,,,,,,,,,,,,,,,,,,,,,,,,,,
,,,,,,,,,,,,,,,90437,001,2022-04-23_20h34.02.674,SPAMnetsValid,2021.1.4,Win32,59.77286312,,,,,,,,,,,,,,,,,,,,,,,,,,,0,2,2,2,1,gargoyle,oil,medicine,carved waterspout,ugly building,3,,,,,,,,,,,,,,,,,,,,,,,,,,,,,,,,,,,,,,,,,,,,,,,,,,,,
,,,,,,,,,,,,,,,90437,001,2022-04-23_20h34.02.674,SPAMnetsValid,2021.1.4,Win32,59.77286312,,,,,,,,,,,,,,,,,,,,,,,,,3,2.5663,0,3,3,3,1,recrudesce,purify,renew activity,lack refinement,crush,2,,,,,,,,,,,,,,,,,,,,,,,,,,,,,,,,,,,,,,,,,,,,,,,,,,,,
,,,,,,,,,,,,,,,90437,001,2022-04-23_20h34.02.674,SPAMnetsValid,2021.1.4,Win32,59.77286312,,,,,,,,,,,,,,,,,,,,,,,,,,,0,4,4,4,1,specious,"plausible, but not genuine",noteworthy,class or variety,roomy,1,,,,,,,,,,,,,,,,,,,,,,,,,,,,,,,,,,,,,,,,,,,,,,,,,,,,
,,,,,,,,,,,,,,,90437,001,2022-04-23_20h34.02.674,SPAMnetsValid,2021.1.4,Win32,59.77286312,,,,,,,,,,,,,,,,,,,,,,,,,3,5.1707,0,5,5,5,1,bauble,bubble,showy plaything,idle talk,confusion,2,,,,,,,,,,,,,,,,,,,,,,,,,,,,,,,,,,,,,,,,,,,,,,,,,,,,
,,,,,,,,,,,,,,,90437,001,2022-04-23_20h34.02.674,SPAMnetsValid,2021.1.4,Win32,59.77286312,,,,,,,,,,,,,,,,,,,,,,,,,4,4.8468,0,6,6,6,1,prolific,scarce,producing abundantly,reckless,speaking profanely,2,,,,,,,,,,,,,,,,,,,,,,,,,,,,,,,,,,,,,,,,,,,,,,,,,,,,
,,,,,,,,,,,,,,,90437,001,2022-04-23_20h34.02.674,SPAMnetsValid,2021.1.4,Win32,59.77286312,,,,,,,,,,,,,,,,,,,,,,,,,2,2.0585,0,7,7,7,1,opulent,party,wealthy,happy frame of mind,semiprecious stone,2,,,,,,,,,,,,,,,,,,,,,,,,,,,,,,,,,,,,,,,,,,,,,,,,,,,,
,,,,,,,,,,,,,,,90437,001,2022-04-23_20h34.02.674,SPAMnetsValid,2021.1.4,Win32,59.77286312,,,,,,,,,,,,,,,,,,,,,,,,,1,3.278,0,8,8,8,1,coercion,conspiracy,strategy,restraint,attraction,3,,,,,,,,,,,,,,,,,,,,,,,,,,,,,,,,,,,,,,,,,,,,,,,,,,,,
,,,,,,,,,,,,,,,90437,001,2022-04-23_20h34.02.674,SPAMnetsValid,2021.1.4,Win32,59.77286312,,,,,,,,,,,,,,,,,,,,,,,,,4,2.275,0,9,9,9,1,hiatus,animal,calamity,dread,gap,4,,,,,,,,,,,,,,,,,,,,,,,,,,,,,,,,,,,,,,,,,,,,,,,,,,,,
,,,,,,,,,,,,,,,90437,001,2022-04-23_20h34.02.674,SPAMnetsValid,2021.1.4,Win32,59.77286312,,,,,,,,,,,,,,,,,,,,,,,,,4,2.9054,0,10,10,10,1,germane,microbe,contagious,relevant,different,3,,,,,,,,,,,,,,,,,,,,,,,,,,,,,,,,,,,,,,,,,,,,,,,,,,,,
,,,,,,,,,,,,,,,90437,001,2022-04-23_20h34.02.674,SPAMnetsValid,2021.1.4,Win32,59.77286312,,,,,,,,,,,,,,,,,,,,,,,,,,,0,11,11,11,1,perfunctory,fundamental,formal,superficial,careful,3,,,,,,,,,,,,,,,,,,,,,,,,,,,,,,,,,,,,,,,,,,,,,,,,,,,,
,,,,,,,,,,,,,,,90437,001,2022-04-23_20h34.02.674,SPAMnetsValid,2021.1.4,Win32,59.77286312,,,,,,,,,,,,,,,,,,,,,,,,,1,0.0246,0,12,12,12,1,diverge,reveal,chant,distract the attention of,differ or turn off from,4,,,,,,,,,,,,,,,,,,,,,,,,,,,,,,,,,,,,,,,,,,,,,,,,,,,,
,,,,,,,,,,,,,,,90437,001,2022-04-23_20h34.02.674,SPAMnetsValid,2021.1.4,Win32,59.77286312,,,,,,,,,,,,,,,,,,,,,,,,,2,0.4686,0,13,13,13,1,evoke,take away,anger,connect,bring out,4,,,,,,,,,,,,,,,,,,,,,,,,,,,,,,,,,,,,,,,,,,,,,,,,,,,,
,,,,,,,,,,,,,,,90437,001,2022-04-23_20h34.02.674,SPAMnetsValid,2021.1.4,Win32,59.77286312,,,,,,,,,,,,,,,,,,,,,,,,,3,1.6492,0,14,14,14,1,pertinent,relevant,lying next to,necessary,bold,1,,,,,,,,,,,,,,,,,,,,,,,,,,,,,,,,,,,,,,,,,,,,,,,,,,,,
,,,,,,,,,,,,,,,90437,001,2022-04-23_20h34.02.674,SPAMnetsValid,2021.1.4,Win32,59.77286312,,,,,,,,,,,,,,,,,,,,,,,,,,,0,15,15,15,1,holocaust,entirety,destruction,saintly,price,2,,,,,,,,,,,,,,,,,,,,,,,,,,,,,,,,,,,,,,,,,,,,,,,,,,,,
,,,,,,,,,,,,,,,90437,001,2022-04-23_20h34.02.674,SPAMnetsValid,2021.1.4,Win32,59.77286312,,,,,,,,,,,,,,,,,,,,,,,,,1,3.6249,0,16,16,16,1,piquant,mellow,fish,pungent,cloth,3,,,,,,,,,,,,,,,,,,,,,,,,,,,,,,,,,,,,,,,,,,,,,,,,,,,,
,,,,,,,,,,,,,,,90437,001,2022-04-23_20h34.02.674,SPAMnetsValid,2021.1.4,Win32,59.77286312,,,,,,,,,,,,,,,,,,,,,,,,,1,1.6449,0,17,17,17,1,firmament,foundation,heavens,strong,glue,2,,,,,,,,,,,,,,,,,,,,,,,,,,,,,,,,,,,,,,,,,,,,,,,,,,,,
,,,,,,,,,,,,,,,90437,001,2022-04-23_20h34.02.674,SPAMnetsValid,2021.1.4,Win32,59.77286312,,,,,,,,,,,,,,,,,,,,,,,,,,,,,,,,,,,,,,3,2.6465,0,0,0,0,1,marketable,partisan,jocular,marriageable,salable,essential,4,,,,,,,,,,,,,,,,,,,,,,,,,,,,,,,,,,,,,,
,,,,,,,,,,,,,,,90437,001,2022-04-23_20h34.02.674,SPAMnetsValid,2021.1.4,Win32,59.77286312,,,,,,,,,,,,,,,,,,,,,,,,,,,,,,,,,,,,,,5,4.7871,0,1,1,1,1,cottontail,squirrel,poplar,boa,marshy plant,rabbit,5,,,,,,,,,,,,,,,,,,,,,,,,,,,,,,,,,,,,,,
,,,,,,,,,,,,,,,90437,001,2022-04-23_20h34.02.674,SPAMnetsValid,2021.1.4,Win32,59.77286312,,,,,,,,,,,,,,,,,,,,,,,,,,,,,,,,,,,,,,3,3.6876,0,2,2,2,1,boggy,afraid,false,marshy,dense,black,3,,,,,,,,,,,,,,,,,,,,,,,,,,,,,,,,,,,,,,
,,,,,,,,,,,,,,,90437,001,2022-04-23_20h34.02.674,SPAMnetsValid,2021.1.4,Win32,59.77286312,,,,,,,,,,,,,,,,,,,,,,,,,,,,,,,,,,,,,,3,3.2292,0,3,3,3,1,gruesomeness,blackness,falseness,vindictiveness,drunkenness,ghastliness,5,,,,,,,,,,,,,,,,,,,,,,,,,,,,,,,,,,,,,,
,,,,,,,,,,,,,,,90437,001,2022-04-23_20h34.02.674,SPAMnetsValid,2021.1.4,Win32,59.77286312,,,,,,,,,,,,,,,,,,,,,,,,,,,,,,,,,,,,,,3,1.3503,0,4,4,4,1,loathing,diffidence,laziness,abhorrence,cleverness,comfort,3,,,,,,,,,,,,,,,,,,,,,,,,,,,,,,,,,,,,,,
,,,,,,,,,,,,,,,90437,001,2022-04-23_20h34.02.674,SPAMnetsValid,2021.1.4,Win32,59.77286312,,,,,,,,,,,,,,,,,,,,,,,,,,,,,,,,,,,,,,3,2.7668,0,5,5,5,1,bantam,fowl,ridicule,cripple,vegetable,ensign,1,,,,,,,,,,,,,,,,,,,,,,,,,,,,,,,,,,,,,,
,,,,,,,,,,,,,,,90437,001,2022-04-23_20h34.02.674,SPAMnetsValid,2021.1.4,Win32,59.77286312,,,,,,,,,,,,,,,,,,,,,,,,,,,,,,,,,,,,,,5,3.5936,0,6,6,6,1,evoke,wake up,surrender,reconnoiter,transcend,call forth,5,,,,,,,,,,,,,,,,,,,,,,,,,,,,,,,,,,,,,,
,,,,,,,,,,,,,,,90437,001,2022-04-23_20h34.02.674,SPAMnetsValid,2021.1.4,Win32,59.77286312,,,,,,,,,,,,,,,,,,,,,,,,,,,,,,,,,,,,,,2,4.287,0,7,7,7,1,unobtrusive,unintelligent,epileptic,illogical,lineal,modest,5,,,,,,,,,,,,,,,,,,,,,,,,,,,,,,,,,,,,,,
,,,,,,,,,,,,,,,90437,001,2022-04-23_20h34.02.674,SPAMnetsValid,2021.1.4,Win32,59.77286312,,,,,,,,,,,,,,,,,,,,,,,,,,,,,,,,,,,,,,4,2.8419,0,8,8,8,1,terrain,ice cream,final test,tractor,area of ground,weight,4,,,,,,,,,,,,,,,,,,,,,,,,,,,,,,,,,,,,,,
,,,,,,,,,,,,,,,90437,001,2022-04-23_20h34.02.674,SPAMnetsValid,2021.1.4,Win32,59.77286312,,,,,,,,,,,,,,,,,,,,,,,,,,,,,,,,,,,,,,3,4.8099,0,9,9,9,1,capriciousness,stubbornness,courage,whimsicality,amazement,greediness,3,,,,,,,,,,,,,,,,,,,,,,,,,,,,,,,,,,,,,,
,,,,,,,,,,,,,,,90437,001,2022-04-23_20h34.02.674,SPAMnetsValid,2021.1.4,Win32,59.77286312,,,,,,,,,,,,,,,,,,,,,,,,,,,,,,,,,,,,,,2,3.3352,0,10,10,10,1,maelstrom,slander,whirlpool,enmity,armor,majolica,2,,,,,,,,,,,,,,,,,,,,,,,,,,,,,,,,,,,,,,
,,,,,,,,,,,,,,,90437,001,2022-04-23_20h34.02.674,SPAMnetsValid,2021.1.4,Win32,59.77286312,,,,,,,,,,,,,,,,,,,,,,,,,,,,,,,,,,,,,,5,2.6446,0,11,11,11,1,tentative,critical,conclusive,authentic,provisional,apprehensive,4,,,,,,,,,,,,,,,,,,,,,,,,,,,,,,,,,,,,,,
,,,,,,,,,,,,,,,90437,001,2022-04-23_20h34.02.674,SPAMnetsValid,2021.1.4,Win32,59.77286312,,,,,,,,,,,,,,,,,,,,,,,,,,,,,,,,,,,,,,3,3.0858,0,12,12,12,1,placate,rehabilitate,plagiarize,depredate,apprise,conciliate,5,,,,,,,,,,,,,,,,,,,,,,,,,,,,,,,,,,,,,,
,,,,,,,,,,,,,,,90437,001,2022-04-23_20h34.02.674,SPAMnetsValid,2021.1.4,Win32,59.77286312,,,,,,,,,,,,,,,,,,,,,,,,,,,,,,,,,,,,,,3,1.4925,0,13,13,13,1,surcease,enlightenment,cessation,inattention,censor,substitution,2,,,,,,,,,,,,,,,,,,,,,,,,,,,,,,,,,,,,,,
,,,,,,,,,,,,,,,90437,001,2022-04-23_20h34.02.674,SPAMnetsValid,2021.1.4,Win32,59.77286312,,,,,,,,,,,,,,,,,,,,,,,,,,,,,,,,,,,,,,2,2.8932,0,14,14,14,1,apathetic,wandering,impassive,hateful,prophetic,overflowing,2,,,,,,,,,,,,,,,,,,,,,,,,,,,,,,,,,,,,,,
,,,,,,,,,,,,,,,90437,001,2022-04-23_20h34.02.674,SPAMnetsValid,2021.1.4,Win32,59.77286312,,,,,,,,,,,,,,,,,,,,,,,,,,,,,,,,,,,,,,1,4.2469,0,15,15,15,1,paternoster,paternalism,patricide,malediction,benediction,prayer,5,,,,,,,,,,,,,,,,,,,,,,,,,,,,,,,,,,,,,,
,,,,,,,,,,,,,,,90437,001,2022-04-23_20h34.02.674,SPAMnetsValid,2021.1.4,Win32,59.77286312,,,,,,,,,,,,,,,,,,,,,,,,,,,,,,,,,,,,,,4,3.0019,0,16,16,16,1,opalescence,opulence,senescence,bankruptcy,iridescence,assiduity,4,,,,,,,,,,,,,,,,,,,,,,,,,,,,,,,,,,,,,,
,,,,,,,,,,,,,,,90437,001,2022-04-23_20h34.02.674,SPAMnetsValid,2021.1.4,Win32,59.77286312,,,,,,,,,,,,,,,,,,,,,,,,,,,,,,,,,,,,,,2,1.9459,0,17,17,17,1,lush,stupid,luxurious,hazy,putrid,languishing,2,,,,,,,,,,,,,,,,,,,,,,,,,,,,,,,,,,,,,,
,,,,,,,,,,,,,,,90437,001,2022-04-23_20h34.02.674,SPAMnetsValid,2021.1.4,Win32,59.77286312,,,,,,,,,,,,,,,,,,,,,,,,,,,,,,,,,,,,,,3,2.6249,0,18,18,18,1,curtailment,expenditure,abandonment,abridgment,improvement,forgery,3,,,,,,,,,,,,,,,,,,,,,,,,,,,,,,,,,,,,,,
,,,,,,,,,,,,,,,90437,001,2022-04-23_20h34.02.674,SPAMnetsValid,2021.1.4,Win32,59.77286312,,,,,,,,,,,,,,,,,,,,,,,,,,,,,,,,,,,,,,4,2.2555,0,19,19,19,1,perversity,adversity,perviousness,travesty,waywardness,gentility,4,,,,,,,,,,,,,,,,,,,,,,,,,,,,,,,,,,,,,,
,,,,,,,,,,,,,,,90437,001,2022-04-23_20h34.02.674,SPAMnetsValid,2021.1.4,Win32,59.77286312,,,,,,,,,,,,,,,,,,,,,,,,,,,,,,,,,,,,,,5,1.8022,0,20,20,20,1,calumnious,complimentary,analogous,slanderous,tempestuous,magnanimous,3,,,,,,,,,,,,,,,,,,,,,,,,,,,,,,,,,,,,,,
,,,,,,,,,,,,,,,90437,001,2022-04-23_20h34.02.674,SPAMnetsValid,2021.1.4,Win32,59.77286312,,,,,,,,,,,,,,,,,,,,,,,,,,,,,,,,,,,,,,2,2.1237,0,21,21,21,1,illiberality,bigotry,imbecility,illegibility,cautery,immaturity,1,,,,,,,,,,,,,,,,,,,,,,,,,,,,,,,,,,,,,,
,,,,,,,,,,,,,,,90437,001,2022-04-23_20h34.02.674,SPAMnetsValid,2021.1.4,Win32,59.77286312,,,,,,,,,,,,,,,,,,,,,,,,,,,,,,,,,,,,,,2,2.7177,0,22,22,22,1,clabber,rejoice,gossip,curdle,crow,hobble,3,,,,,,,,,,,,,,,,,,,,,,,,,,,,,,,,,,,,,,
,,,,,,,,,,,,,,,90437,001,2022-04-23_20h34.02.674,SPAMnetsValid,2021.1.4,Win32,59.77286312,,,,,,,,,,,,,,,,,,,,,,,,,,,,,,,,,,,,,,3,3.8369,0,23,23,23,1,sedulousness,diligence,credulousness,seduction,perilousness,frankness,1,,,,,,,,,,,,,,,,,,,,,,,,,,,,,,,,,,,,,,
,,,,,,,,,,,,,,,90437,001,2022-04-23_20h34.02.674,SPAMnetsValid,2021.1.4,Win32,59.77286312,,,,,,,,,,,,,,,,,,,,,,,,,,,,,,,,,,,,,,,,,,,,,,,,,,,,sleep,pillow,0,0,0,0,1,,,,,,,,,,,,,,,,,,,,,,,,,,,,,,,
,,,,,,,,,,,,,,,90437,001,2022-04-23_20h34.02.674,SPAMnetsValid,2021.1.4,Win32,59.77286312,,,,,,,,,,,,,,,,,,,,,,,,,,,,,,,,,,,,,,,,,,,,,,,,,,,,forts,pillow,1,0,1,0,1,,,,,,,,,,,,,,,,,,,,,,,,,,,,,,,
,,,,,,,,,,,,,,,90437,001,2022-04-23_20h34.02.674,SPAMnetsValid,2021.1.4,Win32,59.77286312,,,,,,,,,,,,,,,,,,,,,,,,,,,,,,,,,,,,,,,,,,,,,,,,,,,,support,pillow,2,0,2,0,1,,,,,,,,,,,,,,,,,,,,,,,,,,,,,,,
,,,,,,,,,,,,,,,90437,001,2022-04-23_20h34.02.674,SPAMnetsValid,2021.1.4,Win32,59.77286312,,,,,,,,,,,,,,,,,,,,,,,,,,,,,,,,,,,,,,,,,,,,,,,,,,,,cover ears,pillow,3,0,3,0,1,,,,,,,,,,,,,,,,,,,,,,,,,,,,,,,
,,,,,,,,,,,,,,,90437,001,2022-04-23_20h34.02.674,SPAMnetsValid,2021.1.4,Win32,59.77286312,,,,,,,,,,,,,,,,,,,,,,,,,,,,,,,,,,,,,,,,,,,,,,,,,,,,fighting,pillow,4,0,4,0,1,,,,,,,,,,,,,,,,,,,,,,,,,,,,,,,
,,,,,,,,,,,,,,,90437,001,2022-04-23_20h34.02.674,SPAMnetsValid,2021.1.4,Win32,59.77286312,,,,,,,,,,,,,,,,,,,,,,,,,,,,,,,,,,,,,,,,,,,,,,,,,,,,body armor,pillow,5,0,5,0,1,,,,,,,,,,,,,,,,,,,,,,,,,,,,,,,
,,,,,,,,,,,,,,,90437,001,2022-04-23_20h34.02.674,SPAMnetsValid,2021.1.4,Win32,59.77286312,,,,,,,,,,,,,,,,,,,,,,,,,,,,,,,,,,,,,,,,,,,,,,,,,,,,seat cushion,pillow,6,0,6,0,1,,,,,,,,,,,,,,,,,,,,,,,,,,,,,,,
,,,,,,,,,,,,,,,90437,001,2022-04-23_20h34.02.674,SPAMnetsValid,2021.1.4,Win32,59.77286312,,,,,,,,,,,,,,,,,,,,,,,,,,,,,,,,,,,,,,,,,,,,,,,,,,,,significant other replacement,pillow,7,0,7,0,1,,,,,,,,,,,,,,,,,,,,,,,,,,,,,,,
,,,,,,,,,,,,,,,90437,001,2022-04-23_20h34.02.674,SPAMnetsValid,2021.1.4,Win32,59.77286312,,,,,,,,,,,,,,,,,,,,,,,,,,,,,,,,,,,,,,,,,,,,,,,,,,,,weapon,pillow,8,0,8,0,1,,,,,,,,,,,,,,,,,,,,,,,,,,,,,,,
,,,,,,,,,,,,,,,90437,001,2022-04-23_20h34.02.674,SPAMnetsValid,2021.1.4,Win32,59.77286312,,,,,,,,,,,,,,,,,,,,,,,,,,,,,,,,,,,,,,,,,,,,,,,,,,,,feathers,pillow,9,0,9,0,1,,,,,,,,,,,,,,,,,,,,,,,,,,,,,,,
,,,,,,,,,,,,,,,90437,001,2022-04-23_20h34.02.674,SPAMnetsValid,2021.1.4,Win32,59.77286312,,,,,,,,,,,,,,,,,,,,,,,,,,,,,,,,,,,,,,,,,,,,,,,,,,,,stepping stool,pillow,10,0,10,0,1,,,,,,,,,,,,,,,,,,,,,,,,,,,,,,,
,,,,,,,,,,,,,,,90437,001,2022-04-23_20h34.02.674,SPAMnetsValid,2021.1.4,Win32,59.77286312,,,,,,,,,,,,,,,,,,,,,,,,,,,,,,,,,,,,,,,,,,,,,,,,,,,,phone stand,pillow,11,0,11,0,1,,,,,,,,,,,,,,,,,,,,,,,,,,,,,,,
,,,,,,,,,,,,,,,90437,001,2022-04-23_20h34.02.674,SPAMnetsValid,2021.1.4,Win32,59.77286312,,,,,,,,,,,,,,,,,,,,,,,,,,,,,,,,,,,,,,,,,,,,,,,,,,,,blankey,pillow,12,0,12,0,1,,,,,,,,,,,,,,,,,,,,,,,,,,,,,,,
,,,,,,,,,,,,,,,90437,001,2022-04-23_20h34.02.674,SPAMnetsValid,2021.1.4,Win32,59.77286312,,,,,,,,,,,,,,,,,,,,,,,,,,,,,,,,,,,,,,,,,,,,,,,,,,,,blanket,pillow,13,0,13,0,1,,,,,,,,,,,,,,,,,,,,,,,,,,,,,,,
,,,,,,,,,,,,,,,90437,001,2022-04-23_20h34.02.674,SPAMnetsValid,2021.1.4,Win32,59.77286312,,,,,,,,,,,,,,,,,,,,,,,,,,,,,,,,,,,,,,,,,,,,,,,,,,,,,,,,,,,0,0,0,2,1,pillow,,,,,,,,,,,,,,,,,,,,,,,,,
,,,,,,,,,,,,,,,90437,001,2022-04-23_20h34.02.674,SPAMnetsValid,2021.1.4,Win32,59.77286312,,,,,,,,,,,,,,,,,,,,,,,,,,,,,,,,,,,,,,,,,,,,,,,,,,,,earwax removal,candle,0,0,0,0,1,,,,,,,,,,,,,,,,,,,,,,,,,,,,,,,
,,,,,,,,,,,,,,,90437,001,2022-04-23_20h34.02.674,SPAMnetsValid,2021.1.4,Win32,59.77286312,,,,,,,,,,,,,,,,,,,,,,,,,,,,,,,,,,,,,,,,,,,,,,,,,,,,lighting,candle,1,0,1,0,1,,,,,,,,,,,,,,,,,,,,,,,,,,,,,,,
,,,,,,,,,,,,,,,90437,001,2022-04-23_20h34.02.674,SPAMnetsValid,2021.1.4,Win32,59.77286312,,,,,,,,,,,,,,,,,,,,,,,,,,,,,,,,,,,,,,,,,,,,,,,,,,,,light fires,candle,2,0,2,0,1,,,,,,,,,,,,,,,,,,,,,,,,,,,,,,,
,,,,,,,,,,,,,,,90437,001,2022-04-23_20h34.02.674,SPAMnetsValid,2021.1.4,Win32,59.77286312,,,,,,,,,,,,,,,,,,,,,,,,,,,,,,,,,,,,,,,,,,,,,,,,,,,,sex toy,candle,3,0,3,0,1,,,,,,,,,,,,,,,,,,,,,,,,,,,,,,,
,,,,,,,,,,,,,,,90437,001,2022-04-23_20h34.02.674,SPAMnetsValid,2021.1.4,Win32,59.77286312,,,,,,,,,,,,,,,,,,,,,,,,,,,,,,,,,,,,,,,,,,,,,,,,,,,,birthday cake,candle,4,0,4,0,1,,,,,,,,,,,,,,,,,,,,,,,,,,,,,,,
,,,,,,,,,,,,,,,90437,001,2022-04-23_20h34.02.674,SPAMnetsValid,2021.1.4,Win32,59.77286312,,,,,,,,,,,,,,,,,,,,,,,,,,,,,,,,,,,,,,,,,,,,,,,,,,,,memorial,candle,5,0,5,0,1,,,,,,,,,,,,,,,,,,,,,,,,,,,,,,,
,,,,,,,,,,,,,,,90437,001,2022-04-23_20h34.02.674,SPAMnetsValid,2021.1.4,Win32,59.77286312,,,,,,,,,,,,,,,,,,,,,,,,,,,,,,,,,,,,,,,,,,,,,,,,,,,,,,,,,,,0,1,1,1,1,candle,,,,,,,,,,,,,,,,,,,,,,,,,
,,,,,,,,,,,,,,,90437,001,2022-04-23_20h34.02.674,SPAMnetsValid,2021.1.4,Win32,59.77286312,,,,,,,,,,,,,,,,,,,,,,,,,,,,,,,,,,,,,,,,,,,,,,,,,,,,sandcastles,bucket,0,0,0,0,1,,,,,,,,,,,,,,,,,,,,,,,,,,,,,,,
,,,,,,,,,,,,,,,90437,001,2022-04-23_20h34.02.674,SPAMnetsValid,2021.1.4,Win32,59.77286312,,,,,,,,,,,,,,,,,,,,,,,,,,,,,,,,,,,,,,,,,,,,,,,,,,,,sink,bucket,1,0,1,0,1,,,,,,,,,,,,,,,,,,,,,,,,,,,,,,,
,,,,,,,,,,,,,,,90437,001,2022-04-23_20h34.02.674,SPAMnetsValid,2021.1.4,Win32,59.77286312,,,,,,,,,,,,,,,,,,,,,,,,,,,,,,,,,,,,,,,,,,,,,,,,,,,,toilet,bucket,2,0,2,0,1,,,,,,,,,,,,,,,,,,,,,,,,,,,,,,,
,,,,,,,,,,,,,,,90437,001,2022-04-23_20h34.02.674,SPAMnetsValid,2021.1.4,Win32,59.77286312,,,,,,,,,,,,,,,,,,,,,,,,,,,,,,,,,,,,,,,,,,,,,,,,,,,,helmet,bucket,3,0,3,0,1,,,,,,,,,,,,,,,,,,,,,,,,,,,,,,,
,,,,,,,,,,,,,,,90437,001,2022-04-23_20h34.02.674,SPAMnetsValid,2021.1.4,Win32,59.77286312,,,,,,,,,,,,,,,,,,,,,,,,,,,,,,,,,,,,,,,,,,,,,,,,,,,,stool,bucket,4,0,4,0,1,,,,,,,,,,,,,,,,,,,,,,,,,,,,,,,
,,,,,,,,,,,,,,,90437,001,2022-04-23_20h34.02.674,SPAMnetsValid,2021.1.4,Win32,59.77286312,,,,,,,,,,,,,,,,,,,,,,,,,,,,,,,,,,,,,,,,,,,,,,,,,,,,seat,bucket,5,0,5,0,1,,,,,,,,,,,,,,,,,,,,,,,,,,,,,,,
,,,,,,,,,,,,,,,90437,001,2022-04-23_20h34.02.674,SPAMnetsValid,2021.1.4,Win32,59.77286312,,,,,,,,,,,,,,,,,,,,,,,,,,,,,,,,,,,,,,,,,,,,,,,,,,,,voice modulator,bucket,6,0,6,0,1,,,,,,,,,,,,,,,,,,,,,,,,,,,,,,,
,,,,,,,,,,,,,,,90437,001,2022-04-23_20h34.02.674,SPAMnetsValid,2021.1.4,Win32,59.77286312,,,,,,,,,,,,,,,,,,,,,,,,,,,,,,,,,,,,,,,,,,,,,,,,,,,,weapon,bucket,7,0,7,0,1,,,,,,,,,,,,,,,,,,,,,,,,,,,,,,,
,,,,,,,,,,,,,,,90437,001,2022-04-23_20h34.02.674,SPAMnetsValid,2021.1.4,Win32,59.77286312,,,,,,,,,,,,,,,,,,,,,,,,,,,,,,,,,,,,,,,,,,,,,,,,,,,,storage,bucket,8,0,8,0,1,,,,,,,,,,,,,,,,,,,,,,,,,,,,,,,
,,,,,,,,,,,,,,,90437,001,2022-04-23_20h34.02.674,SPAMnetsValid,2021.1.4,Win32,59.77286312,,,,,,,,,,,,,,,,,,,,,,,,,,,,,,,,,,,,,,,,,,,,,,,,,,,,fuel,bucket,9,0,9,0,1,,,,,,,,,,,,,,,,,,,,,,,,,,,,,,,
,,,,,,,,,,,,,,,90437,001,2022-04-23_20h34.02.674,SPAMnetsValid,2021.1.4,Win32,59.77286312,,,,,,,,,,,,,,,,,,,,,,,,,,,,,,,,,,,,,,,,,,,,,,,,,,,,cleaning,bucket,10,0,10,0,1,,,,,,,,,,,,,,,,,,,,,,,,,,,,,,,
,,,,,,,,,,,,,,,90437,001,2022-04-23_20h34.02.674,SPAMnetsValid,2021.1.4,Win32,59.77286312,,,,,,,,,,,,,,,,,,,,,,,,,,,,,,,,,,,,,,,,,,,,,,,,,,,,popcorn,bucket,11,0,11,0,1,,,,,,,,,,,,,,,,,,,,,,,,,,,,,,,
,,,,,,,,,,,,,,,90437,001,2022-04-23_20h34.02.674,SPAMnetsValid,2021.1.4,Win32,59.77286312,,,,,,,,,,,,,,,,,,,,,,,,,,,,,,,,,,,,,,,,,,,,,,,,,,,,,,,,,,,0,2,2,0,1,bucket,,,,,,,,,,,,,,,,,,,,,,,,,
,,,,,,,,,,,,,,,90437,001,2022-04-23_20h34.02.674,SPAMnetsValid,2021.1.4,Win32,59.77286312,,,,,,,,,,,,,,,,,,,,,,,,,,,,,,,,,,,,,,,,,,,,,,,,,,,,,,,,,,,,,,,,,cow,Animals,0,0,0,0,1,,,,,,,,,,,,,,,,,,
,,,,,,,,,,,,,,,90437,001,2022-04-23_20h34.02.674,SPAMnetsValid,2021.1.4,Win32,59.77286312,,,,,,,,,,,,,,,,,,,,,,,,,,,,,,,,,,,,,,,,,,,,,,,,,,,,,,,,,,,,,,,,,chicken,Animals,1,0,1,0,1,,,,,,,,,,,,,,,,,,
,,,,,,,,,,,,,,,90437,001,2022-04-23_20h34.02.674,SPAMnetsValid,2021.1.4,Win32,59.77286312,,,,,,,,,,,,,,,,,,,,,,,,,,,,,,,,,,,,,,,,,,,,,,,,,,,,,,,,,,,,,,,,,zebra,Animals,2,0,2,0,1,,,,,,,,,,,,,,,,,,
,,,,,,,,,,,,,,,90437,001,2022-04-23_20h34.02.674,SPAMnetsValid,2021.1.4,Win32,59.77286312,,,,,,,,,,,,,,,,,,,,,,,,,,,,,,,,,,,,,,,,,,,,,,,,,,,,,,,,,,,,,,,,,elephant,Animals,3,0,3,0,1,,,,,,,,,,,,,,,,,,
,,,,,,,,,,,,,,,90437,001,2022-04-23_20h34.02.674,SPAMnetsValid,2021.1.4,Win32,59.77286312,,,,,,,,,,,,,,,,,,,,,,,,,,,,,,,,,,,,,,,,,,,,,,,,,,,,,,,,,,,,,,,,,dog,Animals,4,0,4,0,1,,,,,,,,,,,,,,,,,,
,,,,,,,,,,,,,,,90437,001,2022-04-23_20h34.02.674,SPAMnetsValid,2021.1.4,Win32,59.77286312,,,,,,,,,,,,,,,,,,,,,,,,,,,,,,,,,,,,,,,,,,,,,,,,,,,,,,,,,,,,,,,,,cat,Animals,5,0,5,0,1,,,,,,,,,,,,,,,,,,
,,,,,,,,,,,,,,,90437,001,2022-04-23_20h34.02.674,SPAMnetsValid,2021.1.4,Win32,59.77286312,,,,,,,,,,,,,,,,,,,,,,,,,,,,,,,,,,,,,,,,,,,,,,,,,,,,,,,,,,,,,,,,,rat,Animals,6,0,6,0,1,,,,,,,,,,,,,,,,,,
,,,,,,,,,,,,,,,90437,001,2022-04-23_20h34.02.674,SPAMnetsValid,2021.1.4,Win32,59.77286312,,,,,,,,,,,,,,,,,,,,,,,,,,,,,,,,,,,,,,,,,,,,,,,,,,,,,,,,,,,,,,,,,bat,Animals,7,0,7,0,1,,,,,,,,,,,,,,,,,,
,,,,,,,,,,,,,,,90437,001,2022-04-23_20h34.02.674,SPAMnetsValid,2021.1.4,Win32,59.77286312,,,,,,,,,,,,,,,,,,,,,,,,,,,,,,,,,,,,,,,,,,,,,,,,,,,,,,,,,,,,,,,,,koala,Animals,8,0,8,0,1,,,,,,,,,,,,,,,,,,
,,,,,,,,,,,,,,,90437,001,2022-04-23_20h34.02.674,SPAMnetsValid,2021.1.4,Win32,59.77286312,,,,,,,,,,,,,,,,,,,,,,,,,,,,,,,,,,,,,,,,,,,,,,,,,,,,,,,,,,,,,,,,,bear,Animals,9,0,9,0,1,,,,,,,,,,,,,,,,,,
,,,,,,,,,,,,,,,90437,001,2022-04-23_20h34.02.674,SPAMnetsValid,2021.1.4,Win32,59.77286312,,,,,,,,,,,,,,,,,,,,,,,,,,,,,,,,,,,,,,,,,,,,,,,,,,,,,,,,,,,,,,,,,penguin,Animals,10,0,10,0,1,,,,,,,,,,,,,,,,,,
,,,,,,,,,,,,,,,90437,001,2022-04-23_20h34.02.674,SPAMnetsValid,2021.1.4,Win32,59.77286312,,,,,,,,,,,,,,,,,,,,,,,,,,,,,,,,,,,,,,,,,,,,,,,,,,,,,,,,,,,,,,,,,goose,Animals,11,0,11,0,1,,,,,,,,,,,,,,,,,,
,,,,,,,,,,,,,,,90437,001,2022-04-23_20h34.02.674,SPAMnetsValid,2021.1.4,Win32,59.77286312,,,,,,,,,,,,,,,,,,,,,,,,,,,,,,,,,,,,,,,,,,,,,,,,,,,,,,,,,,,,,,,,,moose,Animals,12,0,12,0,1,,,,,,,,,,,,,,,,,,
,,,,,,,,,,,,,,,90437,001,2022-04-23_20h34.02.674,SPAMnetsValid,2021.1.4,Win32,59.77286312,,,,,,,,,,,,,,,,,,,,,,,,,,,,,,,,,,,,,,,,,,,,,,,,,,,,,,,,,,,,,,,,,duck,Animals,13,0,13,0,1,,,,,,,,,,,,,,,,,,
,,,,,,,,,,,,,,,90437,001,2022-04-23_20h34.02.674,SPAMnetsValid,2021.1.4,Win32,59.77286312,,,,,,,,,,,,,,,,,,,,,,,,,,,,,,,,,,,,,,,,,,,,,,,,,,,,,,,,,,,,,,,,,snake,Animals,14,0,14,0,1,,,,,,,,,,,,,,,,,,
,,,,,,,,,,,,,,,90437,001,2022-04-23_20h34.02.674,SPAMnetsValid,2021.1.4,Win32,59.77286312,,,,,,,,,,,,,,,,,,,,,,,,,,,,,,,,,,,,,,,,,,,,,,,,,,,,,,,,,,,,,,,,,gecko,Animals,15,0,15,0,1,,,,,,,,,,,,,,,,,,
,,,,,,,,,,,,,,,90437,001,2022-04-23_20h34.02.674,SPAMnetsValid,2021.1.4,Win32,59.77286312,,,,,,,,,,,,,,,,,,,,,,,,,,,,,,,,,,,,,,,,,,,,,,,,,,,,,,,,,,,,,,,,,crane,Animals,16,0,16,0,1,,,,,,,,,,,,,,,,,,
,,,,,,,,,,,,,,,90437,001,2022-04-23_20h34.02.674,SPAMnetsValid,2021.1.4,Win32,59.77286312,,,,,,,,,,,,,,,,,,,,,,,,,,,,,,,,,,,,,,,,,,,,,,,,,,,,,,,,,,,,,,,,,bird,Animals,17,0,17,0,1,,,,,,,,,,,,,,,,,,
,,,,,,,,,,,,,,,90437,001,2022-04-23_20h34.02.674,SPAMnetsValid,2021.1.4,Win32,59.77286312,,,,,,,,,,,,,,,,,,,,,,,,,,,,,,,,,,,,,,,,,,,,,,,,,,,,,,,,,,,,,,,,,parrot,Animals,18,0,18,0,1,,,,,,,,,,,,,,,,,,
,,,,,,,,,,,,,,,90437,001,2022-04-23_20h34.02.674,SPAMnetsValid,2021.1.4,Win32,59.77286312,,,,,,,,,,,,,,,,,,,,,,,,,,,,,,,,,,,,,,,,,,,,,,,,,,,,,,,,,,,,,,,,,ostrich,Animals,19,0,19,0,1,,,,,,,,,,,,,,,,,,
,,,,,,,,,,,,,,,90437,001,2022-04-23_20h34.02.674,SPAMnetsValid,2021.1.4,Win32,59.77286312,,,,,,,,,,,,,,,,,,,,,,,,,,,,,,,,,,,,,,,,,,,,,,,,,,,,,,,,,,,,,,,,,rhino,Animals,20,0,20,0,1,,,,,,,,,,,,,,,,,,
,,,,,,,,,,,,,,,90437,001,2022-04-23_20h34.02.674,SPAMnetsValid,2021.1.4,Win32,59.77286312,,,,,,,,,,,,,,,,,,,,,,,,,,,,,,,,,,,,,,,,,,,,,,,,,,,,,,,,,,,,,,,,,hippo,Animals,21,0,21,0,1,,,,,,,,,,,,,,,,,,
,,,,,,,,,,,,,,,90437,001,2022-04-23_20h34.02.674,SPAMnetsValid,2021.1.4,Win32,59.77286312,,,,,,,,,,,,,,,,,,,,,,,,,,,,,,,,,,,,,,,,,,,,,,,,,,,,,,,,,,,,,,,,,human,Animals,22,0,22,0,1,,,,,,,,,,,,,,,,,,
,,,,,,,,,,,,,,,90437,001,2022-04-23_20h34.02.674,SPAMnetsValid,2021.1.4,Win32,59.77286312,,,,,,,,,,,,,,,,,,,,,,,,,,,,,,,,,,,,,,,,,,,,,,,,,,,,,,,,,,,,,,,,,alligator,Animals,23,0,23,0,1,,,,,,,,,,,,,,,,,,
,,,,,,,,,,,,,,,90437,001,2022-04-23_20h34.02.674,SPAMnetsValid,2021.1.4,Win32,59.77286312,,,,,,,,,,,,,,,,,,,,,,,,,,,,,,,,,,,,,,,,,,,,,,,,,,,,,,,,,,,,,,,,,crocodile,Animals,24,0,24,0,1,,,,,,,,,,,,,,,,,,
,,,,,,,,,,,,,,,90437,001,2022-04-23_20h34.02.674,SPAMnetsValid,2021.1.4,Win32,59.77286312,,,,,,,,,,,,,,,,,,,,,,,,,,,,,,,,,,,,,,,,,,,,,,,,,,,,,,,,,,,,,,,,,capybara,Animals,25,0,25,0,1,,,,,,,,,,,,,,,,,,
,,,,,,,,,,,,,,,90437,001,2022-04-23_20h34.02.674,SPAMnetsValid,2021.1.4,Win32,59.77286312,,,,,,,,,,,,,,,,,,,,,,,,,,,,,,,,,,,,,,,,,,,,,,,,,,,,,,,,,,,,,,,,,lion,Animals,26,0,26,0,1,,,,,,,,,,,,,,,,,,
,,,,,,,,,,,,,,,90437,001,2022-04-23_20h34.02.674,SPAMnetsValid,2021.1.4,Win32,59.77286312,,,,,,,,,,,,,,,,,,,,,,,,,,,,,,,,,,,,,,,,,,,,,,,,,,,,,,,,,,,,,,,,,tiger,Animals,27,0,27,0,1,,,,,,,,,,,,,,,,,,
,,,,,,,,,,,,,,,90437,001,2022-04-23_20h34.02.674,SPAMnetsValid,2021.1.4,Win32,59.77286312,,,,,,,,,,,,,,,,,,,,,,,,,,,,,,,,,,,,,,,,,,,,,,,,,,,,,,,,,,,,,,,,,manatee,Animals,28,0,28,0,1,,,,,,,,,,,,,,,,,,
,,,,,,,,,,,,,,,90437,001,2022-04-23_20h34.02.674,SPAMnetsValid,2021.1.4,Win32,59.77286312,,,,,,,,,,,,,,,,,,,,,,,,,,,,,,,,,,,,,,,,,,,,,,,,,,,,,,,,,,,,,,,,,giraffe,Animals,29,0,29,0,1,,,,,,,,,,,,,,,,,,
,,,,,,,,,,,,,,,90437,001,2022-04-23_20h34.02.674,SPAMnetsValid,2021.1.4,Win32,59.77286312,,,,,,,,,,,,,,,,,,,,,,,,,,,,,,,,,,,,,,,,,,,,,,,,,,,,,,,,,,,,,,,,,whale,Animals,30,0,30,0,1,,,,,,,,,,,,,,,,,,
,,,,,,,,,,,,,,,90437,001,2022-04-23_20h34.02.674,SPAMnetsValid,2021.1.4,Win32,59.77286312,,,,,,,,,,,,,,,,,,,,,,,,,,,,,,,,,,,,,,,,,,,,,,,,,,,,,,,,,,,,,,,,,kangaroo,Animals,31,0,31,0,1,,,,,,,,,,,,,,,,,,
,,,,,,,,,,,,,,,90437,001,2022-04-23_20h34.02.674,SPAMnetsValid,2021.1.4,Win32,59.77286312,,,,,,,,,,,,,,,,,,,,,,,,,,,,,,,,,,,,,,,,,,,,,,,,,,,,,,,,,,,,,,,,,seagull,Animals,32,0,32,0,1,,,,,,,,,,,,,,,,,,
,,,,,,,,,,,,,,,90437,001,2022-04-23_20h34.02.674,SPAMnetsValid,2021.1.4,Win32,59.77286312,,,,,,,,,,,,,,,,,,,,,,,,,,,,,,,,,,,,,,,,,,,,,,,,,,,,,,,,,,,,,,,,,robin,Animals,33,0,33,0,1,,,,,,,,,,,,,,,,,,
,,,,,,,,,,,,,,,90437,001,2022-04-23_20h34.02.674,SPAMnetsValid,2021.1.4,Win32,59.77286312,,,,,,,,,,,,,,,,,,,,,,,,,,,,,,,,,,,,,,,,,,,,,,,,,,,,,,,,,,,,,,,,,opposum,Animals,34,0,34,0,1,,,,,,,,,,,,,,,,,,
,,,,,,,,,,,,,,,90437,001,2022-04-23_20h34.02.674,SPAMnetsValid,2021.1.4,Win32,59.77286312,,,,,,,,,,,,,,,,,,,,,,,,,,,,,,,,,,,,,,,,,,,,,,,,,,,,,,,,,,,,,,,,,fox,Animals,35,0,35,0,1,,,,,,,,,,,,,,,,,,
,,,,,,,,,,,,,,,90437,001,2022-04-23_20h34.02.674,SPAMnetsValid,2021.1.4,Win32,59.77286312,,,,,,,,,,,,,,,,,,,,,,,,,,,,,,,,,,,,,,,,,,,,,,,,,,,,,,,,,,,,,,,,,deer,Animals,36,0,36,0,1,,,,,,,,,,,,,,,,,,
,,,,,,,,,,,,,,,90437,001,2022-04-23_20h34.02.674,SPAMnetsValid,2021.1.4,Win32,59.77286312,,,,,,,,,,,,,,,,,,,,,,,,,,,,,,,,,,,,,,,,,,,,,,,,,,,,,,,,,,,,,,,,,raccoon,Animals,37,0,37,0,1,,,,,,,,,,,,,,,,,,
,,,,,,,,,,,,,,,90437,001,2022-04-23_20h34.02.674,SPAMnetsValid,2021.1.4,Win32,59.77286312,,,,,,,,,,,,,,,,,,,,,,,,,,,,,,,,,,,,,,,,,,,,,,,,,,,,,,,,,,,,,,,,,squirel,Animals,38,0,38,0,1,,,,,,,,,,,,,,,,,,
,,,,,,,,,,,,,,,90437,001,2022-04-23_20h34.02.674,SPAMnetsValid,2021.1.4,Win32,59.77286312,,,,,,,,,,,,,,,,,,,,,,,,,,,,,,,,,,,,,,,,,,,,,,,,,,,,,,,,,,,,,,,,,chipmonk,Animals,39,0,39,0,1,,,,,,,,,,,,,,,,,,
,,,,,,,,,,,,,,,90437,001,2022-04-23_20h34.02.674,SPAMnetsValid,2021.1.4,Win32,59.77286312,,,,,,,,,,,,,,,,,,,,,,,,,,,,,,,,,,,,,,,,,,,,,,,,,,,,,,,,,,,,,,,,,gopher,Animals,40,0,40,0,1,,,,,,,,,,,,,,,,,,
,,,,,,,,,,,,,,,90437,001,2022-04-23_20h34.02.674,SPAMnetsValid,2021.1.4,Win32,59.77286312,,,,,,,,,,,,,,,,,,,,,,,,,,,,,,,,,,,,,,,,,,,,,,,,,,,,,,,,,,,,,,,,,woodchuck,Animals,41,0,41,0,1,,,,,,,,,,,,,,,,,,
,,,,,,,,,,,,,,,90437,001,2022-04-23_20h34.02.674,SPAMnetsValid,2021.1.4,Win32,59.77286312,,,,,,,,,,,,,,,,,,,,,,,,,,,,,,,,,,,,,,,,,,,,,,,,,,,,,,,,,,,,,,,,,beaver,Animals,42,0,42,0,1,,,,,,,,,,,,,,,,,,
,,,,,,,,,,,,,,,90437,001,2022-04-23_20h34.02.674,SPAMnetsValid,2021.1.4,Win32,59.77286312,,,,,,,,,,,,,,,,,,,,,,,,,,,,,,,,,,,,,,,,,,,,,,,,,,,,,,,,,,,,,,,,,salamander,Animals,43,0,43,0,1,,,,,,,,,,,,,,,,,,
,,,,,,,,,,,,,,,90437,001,2022-04-23_20h34.02.674,SPAMnetsValid,2021.1.4,Win32,59.77286312,,,,,,,,,,,,,,,,,,,,,,,,,,,,,,,,,,,,,,,,,,,,,,,,,,,,,,,,,,,,,,,,,,,,,,,,0,0,0,0,1,Animals,,,,,,,,,,,,
,,,,,,,,,,,,,,,90437,001,2022-04-23_20h34.02.674,SPAMnetsValid,2021.1.4,Win32,59.77286312,,,,,,,,,,,,,,,,,,,,,,,,,,,,,,,,,,,,,,,,,,,,,,,,,,,,,,,,,,,,,,,,,,,,,,,,,,,,,,2,14.6618,0,0,0,0,1,"I enjoy concentrating on a fantasy or daydream and exploring all its possibilities, letting it grow and develop.",0,1,,
,,,,,,,,,,,,,,,90437,001,2022-04-23_20h34.02.674,SPAMnetsValid,2021.1.4,Win32,59.77286312,,,,,,,,,,,,,,,,,,,,,,,,,,,,,,,,,,,,,,,,,,,,,,,,,,,,,,,,,,,,,,,,,,,,,,,,,,,,,,4,13.4987,0,1,1,1,1,I think it's interesting to learn and develop new hobbies.,0,2,,
,,,,,,,,,,,,,,,90437,001,2022-04-23_20h34.02.674,SPAMnetsValid,2021.1.4,Win32,59.77286312,,,,,,,,,,,,,,,,,,,,,,,,,,,,,,,,,,,,,,,,,,,,,,,,,,,,,,,,,,,,,,,,,,,,,,,,,,,,,,1,4.2953,0,2,2,2,1,I am intrigued by the patterns I find in art and nature.,0,3,,
,,,,,,,,,,,,,,,90437,001,2022-04-23_20h34.02.674,SPAMnetsValid,2021.1.4,Win32,59.77286312,,,,,,,,,,,,,,,,,,,,,,,,,,,,,,,,,,,,,,,,,,,,,,,,,,,,,,,,,,,,,,,,,,,,,,,,,,,,,,4,9.351,0,3,3,3,1,I believe letting students hear controversial speakers can only confuse and mislead them.,1,4,,
,,,,,,,,,,,,,,,90437,001,2022-04-23_20h34.02.674,SPAMnetsValid,2021.1.4,Win32,59.77286312,,,,,,,,,,,,,,,,,,,,,,,,,,,,,,,,,,,,,,,,,,,,,,,,,,,,,,,,,,,,,,,,,,,,,,,,,,,,,,4,3.7621,0,4,4,4,1,Poetry has little or no effect on me.,1,5,,
,,,,,,,,,,,,,,,90437,001,2022-04-23_20h34.02.674,SPAMnetsValid,2021.1.4,Win32,59.77286312,,,,,,,,,,,,,,,,,,,,,,,,,,,,,,,,,,,,,,,,,,,,,,,,,,,,,,,,,,,,,,,,,,,,,,,,,,,,,,4,7.0178,0,5,5,5,1,I would have difficulty just letting my mind wander without control or guidance.,1,6,,
,,,,,,,,,,,,,,,90437,001,2022-04-23_20h34.02.674,SPAMnetsValid,2021.1.4,Win32,59.77286312,,,,,,,,,,,,,,,,,,,,,,,,,,,,,,,,,,,,,,,,,,,,,,,,,,,,,,,,,,,,,,,,,,,,,,,,,,,,,,1,6.1826,0,6,6,6,1,I seldom notice the moods or feelings that different environments produce.,1,7,,
,,,,,,,,,,,,,,,90437,001,2022-04-23_20h34.02.674,SPAMnetsValid,2021.1.4,Win32,59.77286312,,,,,,,,,,,,,,,,,,,,,,,,,,,,,,,,,,,,,,,,,,,,,,,,,,,,,,,,,,,,,,,,,,,,,,,,,,,,,,5,4.305,0,7,7,7,1,I experience a wide range of emotions or feelings.,0,8,,
,,,,,,,,,,,,,,,90437,001,2022-04-23_20h34.02.674,SPAMnetsValid,2021.1.4,Win32,59.77286312,,,,,,,,,,,,,,,,,,,,,,,,,,,,,,,,,,,,,,,,,,,,,,,,,,,,,,,,,,,,,,,,,,,,,,,,,,,,,,1,6.6148,0,8,8,8,1,"Sometimes when I am reading poetry or looking at a work of art, I feel a chill or wave of excitement.",0,9,,
,,,,,,,,,,,,,,,90437,001,2022-04-23_20h34.02.674,SPAMnetsValid,2021.1.4,Win32,59.77286312,,,,,,,,,,,,,,,,,,,,,,,,,,,,,,,,,,,,,,,,,,,,,,,,,,,,,,,,,,,,,,,,,,,,,,,,,,,,,,5,7.7729,0,9,9,9,1,I have little interest in speculating on the nature of the universe or the human condition.,1,10,,
,,,,,,,,,,,,,,,90437,001,2022-04-23_20h34.02.674,SPAMnetsValid,2021.1.4,Win32,59.77286312,,,,,,,,,,,,,,,,,,,,,,,,,,,,,,,,,,,,,,,,,,,,,,,,,,,,,,,,,,,,,,,,,,,,,,,,,,,,,,1,11.0586,0,10,10,10,1,I have a lot of intellectual curiosity.,0,11,,
,,,,,,,,,,,,,,,90437,001,2022-04-23_20h34.02.674,SPAMnetsValid,2021.1.4,Win32,59.77286312,,,,,,,,,,,,,,,,,,,,,,,,,,,,,,,,,,,,,,,,,,,,,,,,,,,,,,,,,,,,,,,,,,,,,,,,,,,,,,1,5.0297,0,11,11,11,1,I often enjoy playing with theories or abstract ideas.,0,12,,
,,,,,,,,,,,,,,,90437,001,2022-04-23_20h34.02.674,SPAMnetsValid,2021.1.4,Win32,59.77286312,,,,,,,,,,,,,,,,,,,,,,,,,,,,,,,,,,,,,,,,,,,,,,,,,,,,,,,,,,,,,,,,,,,,,,,,,,,,,,,,,,,,,,,,return,2.7203
