key_resp_3.keys,key_resp_3.rt,slider_2.response,slider_2.rt,rjt_rating,rjt_RT,trials_24.thisRepN,trials_24.thisTrialN,trials_24.thisN,trials_24.thisIndex,trials_24.ran,rjt_order,word1,word2,attention,participant,session,date,expName,psychopyVersion,OS,frameRate,trials_4.thisRepN,trials_4.thisTrialN,trials_4.thisN,trials_4.thisIndex,trials_4.ran,trials_5.thisRepN,trials_5.thisTrialN,trials_5.thisN,trials_5.thisIndex,trials_5.ran,repOne,repTwo,slider.response,slider.rt,trials_22.thisRepN,trials_22.thisTrialN,trials_22.thisN,trials_22.thisIndex,trials_22.ran,trials_99.thisRepN,trials_99.thisTrialN,trials_99.thisN,trials_99.thisIndex,trials_99.ran,slider_extend_2.response,slider_extend_2.rt,trials_6.thisRepN,trials_6.thisTrialN,trials_6.thisN,trials_6.thisIndex,trials_6.ran,vCue2,R1,R2,R3,R4,correct,sliderVocab.response,sliderVocab.rt,trials_7.thisRepN,trials_7.thisTrialN,trials_7.thisN,trials_7.thisIndex,trials_7.ran,VocabCue,VR1,VR2,VR3,VR4,VR5,VocabCorrect,AUT_resp,AUT_label,trials.thisRepN,trials.thisTrialN,trials.thisN,trials.thisIndex,trials.ran,trials_2.thisRepN,trials_2.thisTrialN,trials_2.thisN,trials_2.thisIndex,trials_2.ran,aut_prompt,VF_response,VF_tag,trials_16.thisRepN,trials_16.thisTrialN,trials_16.thisN,trials_16.thisIndex,trials_16.ran,trials_17.thisRepN,trials_17.thisTrialN,trials_17.thisN,trials_17.thisIndex,trials_17.ran,VFcond,open_slider.response,open_slider.rt,trials_3.thisRepN,trials_3.thisTrialN,trials_3.thisN,trials_3.thisIndex,trials_3.ran,OpenQ,Rev,OPEN_ORDER,key_resp_2.keys,key_resp_2.rt
return,10.698,6,23.3076,6,23.3076,0,0,0,37,1,139,carrot,strawberry,,90439,001,2022-04-28_23h11.00.847,SPAMnetsValid,2021.1.4,MacIntel,59.97361161,,,,,,,,,,,,,,,,,,,,,,,,,,,,,,,,,,,,,,,,,,,,,,,,,,,,,,,,,,,,,,,,,,,,,,,,,,,,,,,,,,,,,,,,,
,,2,6.3326,2,6.3326,0,1,1,90,1,190,microwave,strawberry,,90439,001,2022-04-28_23h11.00.847,SPAMnetsValid,2021.1.4,MacIntel,59.97361161,,,,,,,,,,,,,,,,,,,,,,,,,,,,,,,,,,,,,,,,,,,,,,,,,,,,,,,,,,,,,,,,,,,,,,,,,,,,,,,,,,,,,,,,,
,,9,4.1817,9,4.1817,0,2,2,14,1,120,microwave,oven,,90439,001,2022-04-28_23h11.00.847,SPAMnetsValid,2021.1.4,MacIntel,59.97361161,,,,,,,,,,,,,,,,,,,,,,,,,,,,,,,,,,,,,,,,,,,,,,,,,,,,,,,,,,,,,,,,,,,,,,,,,,,,,,,,,,,,,,,,,
,,9,2.0812,9,2.0812,0,3,3,60,1,122,flower,garden,,90439,001,2022-04-28_23h11.00.847,SPAMnetsValid,2021.1.4,MacIntel,59.97361161,,,,,,,,,,,,,,,,,,,,,,,,,,,,,,,,,,,,,,,,,,,,,,,,,,,,,,,,,,,,,,,,,,,,,,,,,,,,,,,,,,,,,,,,,
,,7,2.8195,7,2.8195,0,4,4,1,1,173,kitchen,tomato,,90439,001,2022-04-28_23h11.00.847,SPAMnetsValid,2021.1.4,MacIntel,59.97361161,,,,,,,,,,,,,,,,,,,,,,,,,,,,,,,,,,,,,,,,,,,,,,,,,,,,,,,,,,,,,,,,,,,,,,,,,,,,,,,,,,,,,,,,,
,,6,4.4661,6,4.4661,0,5,5,17,1,99,garden,melon,,90439,001,2022-04-28_23h11.00.847,SPAMnetsValid,2021.1.4,MacIntel,59.97361161,,,,,,,,,,,,,,,,,,,,,,,,,,,,,,,,,,,,,,,,,,,,,,,,,,,,,,,,,,,,,,,,,,,,,,,,,,,,,,,,,,,,,,,,,
,,4,6.1332,4,6.1332,0,6,6,29,1,163,melon,refrigerator,,90439,001,2022-04-28_23h11.00.847,SPAMnetsValid,2021.1.4,MacIntel,59.97361161,,,,,,,,,,,,,,,,,,,,,,,,,,,,,,,,,,,,,,,,,,,,,,,,,,,,,,,,,,,,,,,,,,,,,,,,,,,,,,,,,,,,,,,,,
,,7,3.9609,7,3.9609,0,7,7,53,1,177,chocolate,strawberry,,90439,001,2022-04-28_23h11.00.847,SPAMnetsValid,2021.1.4,MacIntel,59.97361161,,,,,,,,,,,,,,,,,,,,,,,,,,,,,,,,,,,,,,,,,,,,,,,,,,,,,,,,,,,,,,,,,,,,,,,,,,,,,,,,,,,,,,,,,
,,6,3.1497,6,3.1497,0,8,8,13,1,105,cactus,oven,,90439,001,2022-04-28_23h11.00.847,SPAMnetsValid,2021.1.4,MacIntel,59.97361161,,,,,,,,,,,,,,,,,,,,,,,,,,,,,,,,,,,,,,,,,,,,,,,,,,,,,,,,,,,,,,,,,,,,,,,,,,,,,,,,,,,,,,,,,
,,9,2.9805,9,2.9805,0,9,9,55,1,143,pretzel,rose,,90439,001,2022-04-28_23h11.00.847,SPAMnetsValid,2021.1.4,MacIntel,59.97361161,,,,,,,,,,,,,,,,,,,,,,,,,,,,,,,,,,,,,,,,,,,,,,,,,,,,,,,,,,,,,,,,,,,,,,,,,,,,,,,,,,,,,,,,,
,,3,2.0334,3,2.0334,0,10,10,5,1,108,carrot,chocolate,,90439,001,2022-04-28_23h11.00.847,SPAMnetsValid,2021.1.4,MacIntel,59.97361161,,,,,,,,,,,,,,,,,,,,,,,,,,,,,,,,,,,,,,,,,,,,,,,,,,,,,,,,,,,,,,,,,,,,,,,,,,,,,,,,,,,,,,,,,
,,6,2.0314,6,2.0314,0,11,11,35,1,147,cake,refrigerator,,90439,001,2022-04-28_23h11.00.847,SPAMnetsValid,2021.1.4,MacIntel,59.97361161,,,,,,,,,,,,,,,,,,,,,,,,,,,,,,,,,,,,,,,,,,,,,,,,,,,,,,,,,,,,,,,,,,,,,,,,,,,,,,,,,,,,,,,,,
,,7,2.5831,7,2.5831,0,12,12,93,1,134,carrot,flower,,90439,001,2022-04-28_23h11.00.847,SPAMnetsValid,2021.1.4,MacIntel,59.97361161,,,,,,,,,,,,,,,,,,,,,,,,,,,,,,,,,,,,,,,,,,,,,,,,,,,,,,,,,,,,,,,,,,,,,,,,,,,,,,,,,,,,,,,,,
,,2,3.0982,2,3.0982,0,13,13,12,1,162,microwave,tomato,,90439,001,2022-04-28_23h11.00.847,SPAMnetsValid,2021.1.4,MacIntel,59.97361161,,,,,,,,,,,,,,,,,,,,,,,,,,,,,,,,,,,,,,,,,,,,,,,,,,,,,,,,,,,,,,,,,,,,,,,,,,,,,,,,,,,,,,,,,
,,7,1.6759,7,1.6759,0,14,14,84,1,130,microwave,yogurt,,90439,001,2022-04-28_23h11.00.847,SPAMnetsValid,2021.1.4,MacIntel,59.97361161,,,,,,,,,,,,,,,,,,,,,,,,,,,,,,,,,,,,,,,,,,,,,,,,,,,,,,,,,,,,,,,,,,,,,,,,,,,,,,,,,,,,,,,,,
,,6,4.8353,6,4.8353,0,15,15,18,1,119,strawberry,tree,,90439,001,2022-04-28_23h11.00.847,SPAMnetsValid,2021.1.4,MacIntel,59.97361161,,,,,,,,,,,,,,,,,,,,,,,,,,,,,,,,,,,,,,,,,,,,,,,,,,,,,,,,,,,,,,,,,,,,,,,,,,,,,,,,,,,,,,,,,
,,9,1.5496,9,1.5496,0,16,16,86,1,193,melon,melon,CHECK,90439,001,2022-04-28_23h11.00.847,SPAMnetsValid,2021.1.4,MacIntel,59.97361161,,,,,,,,,,,,,,,,,,,,,,,,,,,,,,,,,,,,,,,,,,,,,,,,,,,,,,,,,,,,,,,,,,,,,,,,,,,,,,,,,,,,,,,,,
,,7,3.3672,7,3.3672,0,17,17,48,1,186,kitchen,yogurt,,90439,001,2022-04-28_23h11.00.847,SPAMnetsValid,2021.1.4,MacIntel,59.97361161,,,,,,,,,,,,,,,,,,,,,,,,,,,,,,,,,,,,,,,,,,,,,,,,,,,,,,,,,,,,,,,,,,,,,,,,,,,,,,,,,,,,,,,,,
,,7,1.5986,7,1.5986,0,18,18,65,1,160,cookie,kitchen,,90439,001,2022-04-28_23h11.00.847,SPAMnetsValid,2021.1.4,MacIntel,59.97361161,,,,,,,,,,,,,,,,,,,,,,,,,,,,,,,,,,,,,,,,,,,,,,,,,,,,,,,,,,,,,,,,,,,,,,,,,,,,,,,,,,,,,,,,,
,,1,1.9582,1,1.9582,0,19,19,64,1,157,refrigerator,rose,,90439,001,2022-04-28_23h11.00.847,SPAMnetsValid,2021.1.4,MacIntel,59.97361161,,,,,,,,,,,,,,,,,,,,,,,,,,,,,,,,,,,,,,,,,,,,,,,,,,,,,,,,,,,,,,,,,,,,,,,,,,,,,,,,,,,,,,,,,
,,2,2.0741,2,2.0741,0,20,20,50,1,126,kitchen,tree,,90439,001,2022-04-28_23h11.00.847,SPAMnetsValid,2021.1.4,MacIntel,59.97361161,,,,,,,,,,,,,,,,,,,,,,,,,,,,,,,,,,,,,,,,,,,,,,,,,,,,,,,,,,,,,,,,,,,,,,,,,,,,,,,,,,,,,,,,,
,,2,3.7484,2,3.7484,0,21,21,95,1,121,broom,microwave,,90439,001,2022-04-28_23h11.00.847,SPAMnetsValid,2021.1.4,MacIntel,59.97361161,,,,,,,,,,,,,,,,,,,,,,,,,,,,,,,,,,,,,,,,,,,,,,,,,,,,,,,,,,,,,,,,,,,,,,,,,,,,,,,,,,,,,,,,,
,,2,1.8757,2,1.8757,0,22,22,16,1,111,carrot,microwave,,90439,001,2022-04-28_23h11.00.847,SPAMnetsValid,2021.1.4,MacIntel,59.97361161,,,,,,,,,,,,,,,,,,,,,,,,,,,,,,,,,,,,,,,,,,,,,,,,,,,,,,,,,,,,,,,,,,,,,,,,,,,,,,,,,,,,,,,,,
,,2,2.4812,2,2.4812,0,23,23,79,1,103,pretzel,tomato,,90439,001,2022-04-28_23h11.00.847,SPAMnetsValid,2021.1.4,MacIntel,59.97361161,,,,,,,,,,,,,,,,,,,,,,,,,,,,,,,,,,,,,,,,,,,,,,,,,,,,,,,,,,,,,,,,,,,,,,,,,,,,,,,,,,,,,,,,,
,,9,1.7172,9,1.7172,0,24,24,25,1,194,cactus,cactus,CHECK,90439,001,2022-04-28_23h11.00.847,SPAMnetsValid,2021.1.4,MacIntel,59.97361161,,,,,,,,,,,,,,,,,,,,,,,,,,,,,,,,,,,,,,,,,,,,,,,,,,,,,,,,,,,,,,,,,,,,,,,,,,,,,,,,,,,,,,,,,
,,7,1.9321,7,1.9321,0,25,25,75,1,178,cactus,carrot,,90439,001,2022-04-28_23h11.00.847,SPAMnetsValid,2021.1.4,MacIntel,59.97361161,,,,,,,,,,,,,,,,,,,,,,,,,,,,,,,,,,,,,,,,,,,,,,,,,,,,,,,,,,,,,,,,,,,,,,,,,,,,,,,,,,,,,,,,,
,,2,4.984,2,4.984,0,26,26,74,1,128,melon,microwave,,90439,001,2022-04-28_23h11.00.847,SPAMnetsValid,2021.1.4,MacIntel,59.97361161,,,,,,,,,,,,,,,,,,,,,,,,,,,,,,,,,,,,,,,,,,,,,,,,,,,,,,,,,,,,,,,,,,,,,,,,,,,,,,,,,,,,,,,,,
,,3,1.9662,3,1.9662,0,27,27,87,1,114,cookie,strawberry,,90439,001,2022-04-28_23h11.00.847,SPAMnetsValid,2021.1.4,MacIntel,59.97361161,,,,,,,,,,,,,,,,,,,,,,,,,,,,,,,,,,,,,,,,,,,,,,,,,,,,,,,,,,,,,,,,,,,,,,,,,,,,,,,,,,,,,,,,,
,,4,1.8659,4,1.8659,0,28,28,71,1,187,cactus,microwave,,90439,001,2022-04-28_23h11.00.847,SPAMnetsValid,2021.1.4,MacIntel,59.97361161,,,,,,,,,,,,,,,,,,,,,,,,,,,,,,,,,,,,,,,,,,,,,,,,,,,,,,,,,,,,,,,,,,,,,,,,,,,,,,,,,,,,,,,,,
,,2,2.5439,2,2.5439,0,29,29,85,1,115,refrigerator,tomato,,90439,001,2022-04-28_23h11.00.847,SPAMnetsValid,2021.1.4,MacIntel,59.97361161,,,,,,,,,,,,,,,,,,,,,,,,,,,,,,,,,,,,,,,,,,,,,,,,,,,,,,,,,,,,,,,,,,,,,,,,,,,,,,,,,,,,,,,,,
,,1,1.8181,1,1.8181,0,30,30,62,1,189,onion,tree,,90439,001,2022-04-28_23h11.00.847,SPAMnetsValid,2021.1.4,MacIntel,59.97361161,,,,,,,,,,,,,,,,,,,,,,,,,,,,,,,,,,,,,,,,,,,,,,,,,,,,,,,,,,,,,,,,,,,,,,,,,,,,,,,,,,,,,,,,,
,,1,1.9848,1,1.9848,0,31,31,81,1,104,garden,microwave,,90439,001,2022-04-28_23h11.00.847,SPAMnetsValid,2021.1.4,MacIntel,59.97361161,,,,,,,,,,,,,,,,,,,,,,,,,,,,,,,,,,,,,,,,,,,,,,,,,,,,,,,,,,,,,,,,,,,,,,,,,,,,,,,,,,,,,,,,,
,,4,1.8311,4,1.8311,0,32,32,94,1,133,cake,flower,,90439,001,2022-04-28_23h11.00.847,SPAMnetsValid,2021.1.4,MacIntel,59.97361161,,,,,,,,,,,,,,,,,,,,,,,,,,,,,,,,,,,,,,,,,,,,,,,,,,,,,,,,,,,,,,,,,,,,,,,,,,,,,,,,,,,,,,,,,
,,7,1.7168,7,1.7168,0,33,33,47,1,167,carrot,garden,,90439,001,2022-04-28_23h11.00.847,SPAMnetsValid,2021.1.4,MacIntel,59.97361161,,,,,,,,,,,,,,,,,,,,,,,,,,,,,,,,,,,,,,,,,,,,,,,,,,,,,,,,,,,,,,,,,,,,,,,,,,,,,,,,,,,,,,,,,
,,9,1.5182,9,1.5182,0,34,34,66,1,150,microwave,refrigerator,,90439,001,2022-04-28_23h11.00.847,SPAMnetsValid,2021.1.4,MacIntel,59.97361161,,,,,,,,,,,,,,,,,,,,,,,,,,,,,,,,,,,,,,,,,,,,,,,,,,,,,,,,,,,,,,,,,,,,,,,,,,,,,,,,,,,,,,,,,
,,4,1.7833,4,1.7833,0,35,35,7,1,188,flower,tree,,90439,001,2022-04-28_23h11.00.847,SPAMnetsValid,2021.1.4,MacIntel,59.97361161,,,,,,,,,,,,,,,,,,,,,,,,,,,,,,,,,,,,,,,,,,,,,,,,,,,,,,,,,,,,,,,,,,,,,,,,,,,,,,,,,,,,,,,,,
,,2,1.7818,2,1.7818,0,36,36,19,1,183,cake,rose,,90439,001,2022-04-28_23h11.00.847,SPAMnetsValid,2021.1.4,MacIntel,59.97361161,,,,,,,,,,,,,,,,,,,,,,,,,,,,,,,,,,,,,,,,,,,,,,,,,,,,,,,,,,,,,,,,,,,,,,,,,,,,,,,,,,,,,,,,,
,,2,1.5656,2,1.5656,0,37,37,63,1,137,microwave,tree,,90439,001,2022-04-28_23h11.00.847,SPAMnetsValid,2021.1.4,MacIntel,59.97361161,,,,,,,,,,,,,,,,,,,,,,,,,,,,,,,,,,,,,,,,,,,,,,,,,,,,,,,,,,,,,,,,,,,,,,,,,,,,,,,,,,,,,,,,,
,,6,3.2805,6,3.2805,0,38,38,34,1,153,carrot,pretzel,,90439,001,2022-04-28_23h11.00.847,SPAMnetsValid,2021.1.4,MacIntel,59.97361161,,,,,,,,,,,,,,,,,,,,,,,,,,,,,,,,,,,,,,,,,,,,,,,,,,,,,,,,,,,,,,,,,,,,,,,,,,,,,,,,,,,,,,,,,
,,4,1.6818,4,1.6818,0,39,39,31,1,156,melon,rose,,90439,001,2022-04-28_23h11.00.847,SPAMnetsValid,2021.1.4,MacIntel,59.97361161,,,,,,,,,,,,,,,,,,,,,,,,,,,,,,,,,,,,,,,,,,,,,,,,,,,,,,,,,,,,,,,,,,,,,,,,,,,,,,,,,,,,,,,,,
,,3,1.3829,3,1.3829,0,40,40,54,1,101,cactus,kitchen,,90439,001,2022-04-28_23h11.00.847,SPAMnetsValid,2021.1.4,MacIntel,59.97361161,,,,,,,,,,,,,,,,,,,,,,,,,,,,,,,,,,,,,,,,,,,,,,,,,,,,,,,,,,,,,,,,,,,,,,,,,,,,,,,,,,,,,,,,,
,,3,1.2424,3,1.2424,0,41,41,43,1,185,cactus,rose,,90439,001,2022-04-28_23h11.00.847,SPAMnetsValid,2021.1.4,MacIntel,59.97361161,,,,,,,,,,,,,,,,,,,,,,,,,,,,,,,,,,,,,,,,,,,,,,,,,,,,,,,,,,,,,,,,,,,,,,,,,,,,,,,,,,,,,,,,,
,,2,1.2567,2,1.2567,0,42,42,78,1,132,broom,tree,,90439,001,2022-04-28_23h11.00.847,SPAMnetsValid,2021.1.4,MacIntel,59.97361161,,,,,,,,,,,,,,,,,,,,,,,,,,,,,,,,,,,,,,,,,,,,,,,,,,,,,,,,,,,,,,,,,,,,,,,,,,,,,,,,,,,,,,,,,
,,2,1.5161,2,1.5161,0,43,43,40,1,165,onion,rose,,90439,001,2022-04-28_23h11.00.847,SPAMnetsValid,2021.1.4,MacIntel,59.97361161,,,,,,,,,,,,,,,,,,,,,,,,,,,,,,,,,,,,,,,,,,,,,,,,,,,,,,,,,,,,,,,,,,,,,,,,,,,,,,,,,,,,,,,,,
,,8,1.9159,8,1.9159,0,44,44,58,1,144,cake,garden,,90439,001,2022-04-28_23h11.00.847,SPAMnetsValid,2021.1.4,MacIntel,59.97361161,,,,,,,,,,,,,,,,,,,,,,,,,,,,,,,,,,,,,,,,,,,,,,,,,,,,,,,,,,,,,,,,,,,,,,,,,,,,,,,,,,,,,,,,,
,,7,1.6661,7,1.6661,0,45,45,83,1,100,garden,tomato,,90439,001,2022-04-28_23h11.00.847,SPAMnetsValid,2021.1.4,MacIntel,59.97361161,,,,,,,,,,,,,,,,,,,,,,,,,,,,,,,,,,,,,,,,,,,,,,,,,,,,,,,,,,,,,,,,,,,,,,,,,,,,,,,,,,,,,,,,,
,,7,1.8914,7,1.8914,0,46,46,80,1,146,pretzel,tree,,90439,001,2022-04-28_23h11.00.847,SPAMnetsValid,2021.1.4,MacIntel,59.97361161,,,,,,,,,,,,,,,,,,,,,,,,,,,,,,,,,,,,,,,,,,,,,,,,,,,,,,,,,,,,,,,,,,,,,,,,,,,,,,,,,,,,,,,,,
,,7,1.999,7,1.999,0,47,47,89,1,140,cookie,refrigerator,,90439,001,2022-04-28_23h11.00.847,SPAMnetsValid,2021.1.4,MacIntel,59.97361161,,,,,,,,,,,,,,,,,,,,,,,,,,,,,,,,,,,,,,,,,,,,,,,,,,,,,,,,,,,,,,,,,,,,,,,,,,,,,,,,,,,,,,,,,
,,3,2.1833,3,2.1833,0,48,48,68,1,180,tree,yogurt,,90439,001,2022-04-28_23h11.00.847,SPAMnetsValid,2021.1.4,MacIntel,59.97361161,,,,,,,,,,,,,,,,,,,,,,,,,,,,,,,,,,,,,,,,,,,,,,,,,,,,,,,,,,,,,,,,,,,,,,,,,,,,,,,,,,,,,,,,,
,,2,1.7135,2,1.7135,0,49,49,88,1,171,cake,tomato,,90439,001,2022-04-28_23h11.00.847,SPAMnetsValid,2021.1.4,MacIntel,59.97361161,,,,,,,,,,,,,,,,,,,,,,,,,,,,,,,,,,,,,,,,,,,,,,,,,,,,,,,,,,,,,,,,,,,,,,,,,,,,,,,,,,,,,,,,,
,,8,1.7321,8,1.7321,0,50,50,28,1,154,strawberry,yogurt,,90439,001,2022-04-28_23h11.00.847,SPAMnetsValid,2021.1.4,MacIntel,59.97361161,,,,,,,,,,,,,,,,,,,,,,,,,,,,,,,,,,,,,,,,,,,,,,,,,,,,,,,,,,,,,,,,,,,,,,,,,,,,,,,,,,,,,,,,,
,,9,1.5656,9,1.5656,0,51,51,8,1,97,chocolate,kitchen,,90439,001,2022-04-28_23h11.00.847,SPAMnetsValid,2021.1.4,MacIntel,59.97361161,,,,,,,,,,,,,,,,,,,,,,,,,,,,,,,,,,,,,,,,,,,,,,,,,,,,,,,,,,,,,,,,,,,,,,,,,,,,,,,,,,,,,,,,,
,,2,1.5162,2,1.5162,0,52,52,36,1,161,kitchen,pretzel,,90439,001,2022-04-28_23h11.00.847,SPAMnetsValid,2021.1.4,MacIntel,59.97361161,,,,,,,,,,,,,,,,,,,,,,,,,,,,,,,,,,,,,,,,,,,,,,,,,,,,,,,,,,,,,,,,,,,,,,,,,,,,,,,,,,,,,,,,,
,,4,1.3649,4,1.3649,0,53,53,51,1,168,cactus,flower,,90439,001,2022-04-28_23h11.00.847,SPAMnetsValid,2021.1.4,MacIntel,59.97361161,,,,,,,,,,,,,,,,,,,,,,,,,,,,,,,,,,,,,,,,,,,,,,,,,,,,,,,,,,,,,,,,,,,,,,,,,,,,,,,,,,,,,,,,,
,,2,3.0662,2,3.0662,0,54,54,59,1,164,cookie,garden,,90439,001,2022-04-28_23h11.00.847,SPAMnetsValid,2021.1.4,MacIntel,59.97361161,,,,,,,,,,,,,,,,,,,,,,,,,,,,,,,,,,,,,,,,,,,,,,,,,,,,,,,,,,,,,,,,,,,,,,,,,,,,,,,,,,,,,,,,,
,,6,1.3823,6,1.3823,0,55,55,11,1,117,melon,strawberry,,90439,001,2022-04-28_23h11.00.847,SPAMnetsValid,2021.1.4,MacIntel,59.97361161,,,,,,,,,,,,,,,,,,,,,,,,,,,,,,,,,,,,,,,,,,,,,,,,,,,,,,,,,,,,,,,,,,,,,,,,,,,,,,,,,,,,,,,,,
,,4,2.6339,4,2.6339,0,56,56,38,1,155,carrot,cookie,,90439,001,2022-04-28_23h11.00.847,SPAMnetsValid,2021.1.4,MacIntel,59.97361161,,,,,,,,,,,,,,,,,,,,,,,,,,,,,,,,,,,,,,,,,,,,,,,,,,,,,,,,,,,,,,,,,,,,,,,,,,,,,,,,,,,,,,,,,
,,8,1.933,8,1.933,0,57,57,22,1,142,garden,tree,,90439,001,2022-04-28_23h11.00.847,SPAMnetsValid,2021.1.4,MacIntel,59.97361161,,,,,,,,,,,,,,,,,,,,,,,,,,,,,,,,,,,,,,,,,,,,,,,,,,,,,,,,,,,,,,,,,,,,,,,,,,,,,,,,,,,,,,,,,
,,7,2.0327,7,2.0327,0,58,58,56,1,113,refrigerator,strawberry,,90439,001,2022-04-28_23h11.00.847,SPAMnetsValid,2021.1.4,MacIntel,59.97361161,,,,,,,,,,,,,,,,,,,,,,,,,,,,,,,,,,,,,,,,,,,,,,,,,,,,,,,,,,,,,,,,,,,,,,,,,,,,,,,,,,,,,,,,,
,,3,1.7339,3,1.7339,0,59,59,39,1,112,cake,carrot,,90439,001,2022-04-28_23h11.00.847,SPAMnetsValid,2021.1.4,MacIntel,59.97361161,,,,,,,,,,,,,,,,,,,,,,,,,,,,,,,,,,,,,,,,,,,,,,,,,,,,,,,,,,,,,,,,,,,,,,,,,,,,,,,,,,,,,,,,,
,,8,2.1105,8,2.1105,0,60,60,0,1,106,cake,strawberry,,90439,001,2022-04-28_23h11.00.847,SPAMnetsValid,2021.1.4,MacIntel,59.97361161,,,,,,,,,,,,,,,,,,,,,,,,,,,,,,,,,,,,,,,,,,,,,,,,,,,,,,,,,,,,,,,,,,,,,,,,,,,,,,,,,,,,,,,,,
,,6,2.2672,6,2.2672,0,61,61,92,1,170,cookie,microwave,,90439,001,2022-04-28_23h11.00.847,SPAMnetsValid,2021.1.4,MacIntel,59.97361161,,,,,,,,,,,,,,,,,,,,,,,,,,,,,,,,,,,,,,,,,,,,,,,,,,,,,,,,,,,,,,,,,,,,,,,,,,,,,,,,,,,,,,,,,
,,8,1.7158,8,1.7158,0,62,62,10,1,118,chocolate,oven,,90439,001,2022-04-28_23h11.00.847,SPAMnetsValid,2021.1.4,MacIntel,59.97361161,,,,,,,,,,,,,,,,,,,,,,,,,,,,,,,,,,,,,,,,,,,,,,,,,,,,,,,,,,,,,,,,,,,,,,,,,,,,,,,,,,,,,,,,,
,,2,2.2096,2,2.2096,0,63,63,32,1,182,flower,refrigerator,,90439,001,2022-04-28_23h11.00.847,SPAMnetsValid,2021.1.4,MacIntel,59.97361161,,,,,,,,,,,,,,,,,,,,,,,,,,,,,,,,,,,,,,,,,,,,,,,,,,,,,,,,,,,,,,,,,,,,,,,,,,,,,,,,,,,,,,,,,
,,1,1.532,1,1.532,0,64,64,3,1,129,cactus,refrigerator,,90439,001,2022-04-28_23h11.00.847,SPAMnetsValid,2021.1.4,MacIntel,59.97361161,,,,,,,,,,,,,,,,,,,,,,,,,,,,,,,,,,,,,,,,,,,,,,,,,,,,,,,,,,,,,,,,,,,,,,,,,,,,,,,,,,,,,,,,,
,,6,4.3012,6,4.3012,0,65,65,73,1,135,carrot,oven,,90439,001,2022-04-28_23h11.00.847,SPAMnetsValid,2021.1.4,MacIntel,59.97361161,,,,,,,,,,,,,,,,,,,,,,,,,,,,,,,,,,,,,,,,,,,,,,,,,,,,,,,,,,,,,,,,,,,,,,,,,,,,,,,,,,,,,,,,,
,,6,1.3502,6,1.3502,0,66,66,9,1,176,cactus,tomato,,90439,001,2022-04-28_23h11.00.847,SPAMnetsValid,2021.1.4,MacIntel,59.97361161,,,,,,,,,,,,,,,,,,,,,,,,,,,,,,,,,,,,,,,,,,,,,,,,,,,,,,,,,,,,,,,,,,,,,,,,,,,,,,,,,,,,,,,,,
,,4,3.6412,4,3.6412,0,67,67,2,1,174,cake,pretzel,,90439,001,2022-04-28_23h11.00.847,SPAMnetsValid,2021.1.4,MacIntel,59.97361161,,,,,,,,,,,,,,,,,,,,,,,,,,,,,,,,,,,,,,,,,,,,,,,,,,,,,,,,,,,,,,,,,,,,,,,,,,,,,,,,,,,,,,,,,
,,7,2.5679,7,2.5679,0,68,68,77,1,172,kitchen,melon,,90439,001,2022-04-28_23h11.00.847,SPAMnetsValid,2021.1.4,MacIntel,59.97361161,,,,,,,,,,,,,,,,,,,,,,,,,,,,,,,,,,,,,,,,,,,,,,,,,,,,,,,,,,,,,,,,,,,,,,,,,,,,,,,,,,,,,,,,,
,,7,1.8492,7,1.8492,0,69,69,91,1,166,cake,yogurt,,90439,001,2022-04-28_23h11.00.847,SPAMnetsValid,2021.1.4,MacIntel,59.97361161,,,,,,,,,,,,,,,,,,,,,,,,,,,,,,,,,,,,,,,,,,,,,,,,,,,,,,,,,,,,,,,,,,,,,,,,,,,,,,,,,,,,,,,,,
,,2,2.4493,2,2.4493,0,70,70,23,1,148,flower,melon,,90439,001,2022-04-28_23h11.00.847,SPAMnetsValid,2021.1.4,MacIntel,59.97361161,,,,,,,,,,,,,,,,,,,,,,,,,,,,,,,,,,,,,,,,,,,,,,,,,,,,,,,,,,,,,,,,,,,,,,,,,,,,,,,,,,,,,,,,,
,,3,1.9827,3,1.9827,0,71,71,15,1,145,cactus,yogurt,,90439,001,2022-04-28_23h11.00.847,SPAMnetsValid,2021.1.4,MacIntel,59.97361161,,,,,,,,,,,,,,,,,,,,,,,,,,,,,,,,,,,,,,,,,,,,,,,,,,,,,,,,,,,,,,,,,,,,,,,,,,,,,,,,,,,,,,,,,
,,1,1.6655,1,1.6655,0,72,72,24,1,169,onion,yogurt,,90439,001,2022-04-28_23h11.00.847,SPAMnetsValid,2021.1.4,MacIntel,59.97361161,,,,,,,,,,,,,,,,,,,,,,,,,,,,,,,,,,,,,,,,,,,,,,,,,,,,,,,,,,,,,,,,,,,,,,,,,,,,,,,,,,,,,,,,,
,,7,2.076,7,2.076,0,73,73,45,1,179,broom,oven,,90439,001,2022-04-28_23h11.00.847,SPAMnetsValid,2021.1.4,MacIntel,59.97361161,,,,,,,,,,,,,,,,,,,,,,,,,,,,,,,,,,,,,,,,,,,,,,,,,,,,,,,,,,,,,,,,,,,,,,,,,,,,,,,,,,,,,,,,,
,,7,2.0999,7,2.0999,0,74,74,72,1,181,carrot,kitchen,,90439,001,2022-04-28_23h11.00.847,SPAMnetsValid,2021.1.4,MacIntel,59.97361161,,,,,,,,,,,,,,,,,,,,,,,,,,,,,,,,,,,,,,,,,,,,,,,,,,,,,,,,,,,,,,,,,,,,,,,,,,,,,,,,,,,,,,,,,
,,2,2.1089,2,2.1089,0,75,75,67,1,96,oven,strawberry,,90439,001,2022-04-28_23h11.00.847,SPAMnetsValid,2021.1.4,MacIntel,59.97361161,,,,,,,,,,,,,,,,,,,,,,,,,,,,,,,,,,,,,,,,,,,,,,,,,,,,,,,,,,,,,,,,,,,,,,,,,,,,,,,,,,,,,,,,,
,,1,2.3484,1,2.3484,0,76,76,6,1,151,microwave,onion,,90439,001,2022-04-28_23h11.00.847,SPAMnetsValid,2021.1.4,MacIntel,59.97361161,,,,,,,,,,,,,,,,,,,,,,,,,,,,,,,,,,,,,,,,,,,,,,,,,,,,,,,,,,,,,,,,,,,,,,,,,,,,,,,,,,,,,,,,,
,,9,1.7317,9,1.7317,0,77,77,76,1,102,chocolate,refrigerator,,90439,001,2022-04-28_23h11.00.847,SPAMnetsValid,2021.1.4,MacIntel,59.97361161,,,,,,,,,,,,,,,,,,,,,,,,,,,,,,,,,,,,,,,,,,,,,,,,,,,,,,,,,,,,,,,,,,,,,,,,,,,,,,,,,,,,,,,,,
,,3,1.4483,3,1.4483,0,78,78,82,1,98,pretzel,strawberry,,90439,001,2022-04-28_23h11.00.847,SPAMnetsValid,2021.1.4,MacIntel,59.97361161,,,,,,,,,,,,,,,,,,,,,,,,,,,,,,,,,,,,,,,,,,,,,,,,,,,,,,,,,,,,,,,,,,,,,,,,,,,,,,,,,,,,,,,,,
,,8,3.1646,8,3.1646,0,79,79,52,1,110,chocolate,cookie,,90439,001,2022-04-28_23h11.00.847,SPAMnetsValid,2021.1.4,MacIntel,59.97361161,,,,,,,,,,,,,,,,,,,,,,,,,,,,,,,,,,,,,,,,,,,,,,,,,,,,,,,,,,,,,,,,,,,,,,,,,,,,,,,,,,,,,,,,,
,,1,1.7249,1,1.7249,0,80,80,57,1,127,cactus,chocolate,,90439,001,2022-04-28_23h11.00.847,SPAMnetsValid,2021.1.4,MacIntel,59.97361161,,,,,,,,,,,,,,,,,,,,,,,,,,,,,,,,,,,,,,,,,,,,,,,,,,,,,,,,,,,,,,,,,,,,,,,,,,,,,,,,,,,,,,,,,
,,7,2.2842,7,2.2842,0,81,81,27,1,158,cookie,oven,,90439,001,2022-04-28_23h11.00.847,SPAMnetsValid,2021.1.4,MacIntel,59.97361161,,,,,,,,,,,,,,,,,,,,,,,,,,,,,,,,,,,,,,,,,,,,,,,,,,,,,,,,,,,,,,,,,,,,,,,,,,,,,,,,,,,,,,,,,
,,3,1.434,3,1.434,0,82,82,20,1,149,broom,tomato,,90439,001,2022-04-28_23h11.00.847,SPAMnetsValid,2021.1.4,MacIntel,59.97361161,,,,,,,,,,,,,,,,,,,,,,,,,,,,,,,,,,,,,,,,,,,,,,,,,,,,,,,,,,,,,,,,,,,,,,,,,,,,,,,,,,,,,,,,,
,,4,1.4498,4,1.4498,0,83,83,4,1,109,broom,strawberry,,90439,001,2022-04-28_23h11.00.847,SPAMnetsValid,2021.1.4,MacIntel,59.97361161,,,,,,,,,,,,,,,,,,,,,,,,,,,,,,,,,,,,,,,,,,,,,,,,,,,,,,,,,,,,,,,,,,,,,,,,,,,,,,,,,,,,,,,,,
,,7,1.3676,7,1.3676,0,84,84,33,1,131,cactus,garden,,90439,001,2022-04-28_23h11.00.847,SPAMnetsValid,2021.1.4,MacIntel,59.97361161,,,,,,,,,,,,,,,,,,,,,,,,,,,,,,,,,,,,,,,,,,,,,,,,,,,,,,,,,,,,,,,,,,,,,,,,,,,,,,,,,,,,,,,,,
,,2,1.4486,2,1.4486,0,85,85,21,1,159,cookie,flower,,90439,001,2022-04-28_23h11.00.847,SPAMnetsValid,2021.1.4,MacIntel,59.97361161,,,,,,,,,,,,,,,,,,,,,,,,,,,,,,,,,,,,,,,,,,,,,,,,,,,,,,,,,,,,,,,,,,,,,,,,,,,,,,,,,,,,,,,,,
,,7,1.4823,7,1.4823,0,86,86,42,1,184,oven,pretzel,,90439,001,2022-04-28_23h11.00.847,SPAMnetsValid,2021.1.4,MacIntel,59.97361161,,,,,,,,,,,,,,,,,,,,,,,,,,,,,,,,,,,,,,,,,,,,,,,,,,,,,,,,,,,,,,,,,,,,,,,,,,,,,,,,,,,,,,,,,
,,3,1.7167,3,1.7167,0,87,87,41,1,175,melon,onion,,90439,001,2022-04-28_23h11.00.847,SPAMnetsValid,2021.1.4,MacIntel,59.97361161,,,,,,,,,,,,,,,,,,,,,,,,,,,,,,,,,,,,,,,,,,,,,,,,,,,,,,,,,,,,,,,,,,,,,,,,,,,,,,,,,,,,,,,,,
,,9,1.5318,9,1.5318,0,88,88,69,1,124,oven,refrigerator,,90439,001,2022-04-28_23h11.00.847,SPAMnetsValid,2021.1.4,MacIntel,59.97361161,,,,,,,,,,,,,,,,,,,,,,,,,,,,,,,,,,,,,,,,,,,,,,,,,,,,,,,,,,,,,,,,,,,,,,,,,,,,,,,,,,,,,,,,,
,,6,2.7324,6,2.7324,0,89,89,70,1,141,melon,tomato,,90439,001,2022-04-28_23h11.00.847,SPAMnetsValid,2021.1.4,MacIntel,59.97361161,,,,,,,,,,,,,,,,,,,,,,,,,,,,,,,,,,,,,,,,,,,,,,,,,,,,,,,,,,,,,,,,,,,,,,,,,,,,,,,,,,,,,,,,,
,,4,2.8658,4,2.8658,0,90,90,26,1,107,rose,tomato,,90439,001,2022-04-28_23h11.00.847,SPAMnetsValid,2021.1.4,MacIntel,59.97361161,,,,,,,,,,,,,,,,,,,,,,,,,,,,,,,,,,,,,,,,,,,,,,,,,,,,,,,,,,,,,,,,,,,,,,,,,,,,,,,,,,,,,,,,,
,,7,2.5892,7,2.5892,0,91,91,96,1,136,chocolate,microwave,,90439,001,2022-04-28_23h11.00.847,SPAMnetsValid,2021.1.4,MacIntel,59.97361161,,,,,,,,,,,,,,,,,,,,,,,,,,,,,,,,,,,,,,,,,,,,,,,,,,,,,,,,,,,,,,,,,,,,,,,,,,,,,,,,,,,,,,,,,
,,9,1.9669,9,1.9669,0,92,92,44,1,116,cake,chocolate,,90439,001,2022-04-28_23h11.00.847,SPAMnetsValid,2021.1.4,MacIntel,59.97361161,,,,,,,,,,,,,,,,,,,,,,,,,,,,,,,,,,,,,,,,,,,,,,,,,,,,,,,,,,,,,,,,,,,,,,,,,,,,,,,,,,,,,,,,,
,,1,2.359,1,2.359,0,93,93,46,1,123,cookie,tree,,90439,001,2022-04-28_23h11.00.847,SPAMnetsValid,2021.1.4,MacIntel,59.97361161,,,,,,,,,,,,,,,,,,,,,,,,,,,,,,,,,,,,,,,,,,,,,,,,,,,,,,,,,,,,,,,,,,,,,,,,,,,,,,,,,,,,,,,,,
,,9,2.8669,9,2.8669,0,94,94,61,1,138,flower,rose,,90439,001,2022-04-28_23h11.00.847,SPAMnetsValid,2021.1.4,MacIntel,59.97361161,,,,,,,,,,,,,,,,,,,,,,,,,,,,,,,,,,,,,,,,,,,,,,,,,,,,,,,,,,,,,,,,,,,,,,,,,,,,,,,,,,,,,,,,,
,,4,2.6002,4,2.6002,0,95,95,49,1,152,cactus,strawberry,,90439,001,2022-04-28_23h11.00.847,SPAMnetsValid,2021.1.4,MacIntel,59.97361161,,,,,,,,,,,,,,,,,,,,,,,,,,,,,,,,,,,,,,,,,,,,,,,,,,,,,,,,,,,,,,,,,,,,,,,,,,,,,,,,,,,,,,,,,
,,3,1.9821,3,1.9821,0,96,96,30,1,125,carrot,tree,,90439,001,2022-04-28_23h11.00.847,SPAMnetsValid,2021.1.4,MacIntel,59.97361161,,,,,,,,,,,,,,,,,,,,,,,,,,,,,,,,,,,,,,,,,,,,,,,,,,,,,,,,,,,,,,,,,,,,,,,,,,,,,,,,,,,,,,,,,
,,,,,,,,,,,,,,,90439,001,2022-04-28_23h11.00.847,SPAMnetsValid,2021.1.4,MacIntel,59.97361161,0,0,0,0,1,,,,,,,,,,,,,,,,,,,,,,,,,,,,,,,,,,,,,,,,,,,,,,,,,,,,,,,,,,,,,,,,,,,,,,,,,,,,,,,,,,,,
,,,,,,,,,,,,,,,90439,001,2022-04-28_23h11.00.847,SPAMnetsValid,2021.1.4,MacIntel,59.97361161,,,,,,0,0,0,1,1,0,1,,,,,,,,,,,,,,,,,,,,,,,,,,,,,,,,,,,,,,,,,,,,,,,,,,,,,,,,,,,,,,,,,,,,,,,,,,,,,
,,,,3,5.8384,,,,,,34,melon,oven,,90439,001,2022-04-28_23h11.00.847,SPAMnetsValid,2021.1.4,MacIntel,59.97361161,,,,,,,,,,,,,3,5.8384,0,0,0,7,1,,,,,,,,,,,,,,,,,,,,,,,,,,,,,,,,,,,,,,,,,,,,,,,,,,,,,,,,,,,,,,,,,,,,,,
,,,,3,3.7832,,,,,,1,rose,yogurt,,90439,001,2022-04-28_23h11.00.847,SPAMnetsValid,2021.1.4,MacIntel,59.97361161,,,,,,,,,,,,,3,3.7832,0,1,1,55,1,,,,,,,,,,,,,,,,,,,,,,,,,,,,,,,,,,,,,,,,,,,,,,,,,,,,,,,,,,,,,,,,,,,,,,
,,,,9,1.4101,,,,,,192,microwave,microwave,CHECK,90439,001,2022-04-28_23h11.00.847,SPAMnetsValid,2021.1.4,MacIntel,59.97361161,,,,,,,,,,,,,9,1.4101,0,2,2,53,1,,,,,,,,,,,,,,,,,,,,,,,,,,,,,,,,,,,,,,,,,,,,,,,,,,,,,,,,,,,,,,,,,,,,,,
,,,,2,1.661,,,,,,18,onion,refrigerator,,90439,001,2022-04-28_23h11.00.847,SPAMnetsValid,2021.1.4,MacIntel,59.97361161,,,,,,,,,,,,,2,1.661,0,3,3,62,1,,,,,,,,,,,,,,,,,,,,,,,,,,,,,,,,,,,,,,,,,,,,,,,,,,,,,,,,,,,,,,,,,,,,,,
,,,,1,1.2819,,,,,,60,cactus,onion,,90439,001,2022-04-28_23h11.00.847,SPAMnetsValid,2021.1.4,MacIntel,59.97361161,,,,,,,,,,,,,1,1.2819,0,4,4,81,1,,,,,,,,,,,,,,,,,,,,,,,,,,,,,,,,,,,,,,,,,,,,,,,,,,,,,,,,,,,,,,,,,,,,,,
,,,,1,1.2658,,,,,,45,onion,pretzel,,90439,001,2022-04-28_23h11.00.847,SPAMnetsValid,2021.1.4,MacIntel,59.97361161,,,,,,,,,,,,,1,1.2658,0,5,5,69,1,,,,,,,,,,,,,,,,,,,,,,,,,,,,,,,,,,,,,,,,,,,,,,,,,,,,,,,,,,,,,,,,,,,,,,
,,,,7,1.4328,,,,,,15,onion,oven,,90439,001,2022-04-28_23h11.00.847,SPAMnetsValid,2021.1.4,MacIntel,59.97361161,,,,,,,,,,,,,7,1.4328,0,6,6,39,1,,,,,,,,,,,,,,,,,,,,,,,,,,,,,,,,,,,,,,,,,,,,,,,,,,,,,,,,,,,,,,,,,,,,,,
,,,,3,1.6659,,,,,,16,chocolate,flower,,90439,001,2022-04-28_23h11.00.847,SPAMnetsValid,2021.1.4,MacIntel,59.97361161,,,,,,,,,,,,,3,1.6659,0,7,7,22,1,,,,,,,,,,,,,,,,,,,,,,,,,,,,,,,,,,,,,,,,,,,,,,,,,,,,,,,,,,,,,,,,,,,,,,
,,,,7,2.2481,,,,,,22,kitchen,strawberry,,90439,001,2022-04-28_23h11.00.847,SPAMnetsValid,2021.1.4,MacIntel,59.97361161,,,,,,,,,,,,,7,2.2481,0,8,8,2,1,,,,,,,,,,,,,,,,,,,,,,,,,,,,,,,,,,,,,,,,,,,,,,,,,,,,,,,,,,,,,,,,,,,,,,
,,,,7,1.5338,,,,,,72,broom,onion,,90439,001,2022-04-28_23h11.00.847,SPAMnetsValid,2021.1.4,MacIntel,59.97361161,,,,,,,,,,,,,7,1.5338,0,9,9,27,1,,,,,,,,,,,,,,,,,,,,,,,,,,,,,,,,,,,,,,,,,,,,,,,,,,,,,,,,,,,,,,,,,,,,,,
,,,,3,1.3979,,,,,,46,garden,yogurt,,90439,001,2022-04-28_23h11.00.847,SPAMnetsValid,2021.1.4,MacIntel,59.97361161,,,,,,,,,,,,,3,1.3979,0,10,10,65,1,,,,,,,,,,,,,,,,,,,,,,,,,,,,,,,,,,,,,,,,,,,,,,,,,,,,,,,,,,,,,,,,,,,,,,
,,,,3,1.2148,,,,,,8,broom,melon,,90439,001,2022-04-28_23h11.00.847,SPAMnetsValid,2021.1.4,MacIntel,59.97361161,,,,,,,,,,,,,3,1.2148,0,11,11,59,1,,,,,,,,,,,,,,,,,,,,,,,,,,,,,,,,,,,,,,,,,,,,,,,,,,,,,,,,,,,,,,,,,,,,,,
,,,,7,2.4739,,,,,,6,garden,onion,,90439,001,2022-04-28_23h11.00.847,SPAMnetsValid,2021.1.4,MacIntel,59.97361161,,,,,,,,,,,,,7,2.4739,0,12,12,83,1,,,,,,,,,,,,,,,,,,,,,,,,,,,,,,,,,,,,,,,,,,,,,,,,,,,,,,,,,,,,,,,,,,,,,,
,,,,4,1.3658,,,,,,7,melon,tree,,90439,001,2022-04-28_23h11.00.847,SPAMnetsValid,2021.1.4,MacIntel,59.97361161,,,,,,,,,,,,,4,1.3658,0,13,13,77,1,,,,,,,,,,,,,,,,,,,,,,,,,,,,,,,,,,,,,,,,,,,,,,,,,,,,,,,,,,,,,,,,,,,,,,
,,,,8,2.0329,,,,,,79,garden,strawberry,,90439,001,2022-04-28_23h11.00.847,SPAMnetsValid,2021.1.4,MacIntel,59.97361161,,,,,,,,,,,,,8,2.0329,0,14,14,87,1,,,,,,,,,,,,,,,,,,,,,,,,,,,,,,,,,,,,,,,,,,,,,,,,,,,,,,,,,,,,,,,,,,,,,,
,,,,1,1.7321,,,,,,11,refrigerator,tree,,90439,001,2022-04-28_23h11.00.847,SPAMnetsValid,2021.1.4,MacIntel,59.97361161,,,,,,,,,,,,,1,1.7321,0,15,15,43,1,,,,,,,,,,,,,,,,,,,,,,,,,,,,,,,,,,,,,,,,,,,,,,,,,,,,,,,,,,,,,,,,,,,,,,
,,,,4,1.3646,,,,,,40,broom,cake,,90439,001,2022-04-28_23h11.00.847,SPAMnetsValid,2021.1.4,MacIntel,59.97361161,,,,,,,,,,,,,4,1.3646,0,16,16,32,1,,,,,,,,,,,,,,,,,,,,,,,,,,,,,,,,,,,,,,,,,,,,,,,,,,,,,,,,,,,,,,,,,,,,,,
,,,,3,1.8608,,,,,,64,chocolate,garden,,90439,001,2022-04-28_23h11.00.847,SPAMnetsValid,2021.1.4,MacIntel,59.97361161,,,,,,,,,,,,,3,1.8608,0,17,17,14,1,,,,,,,,,,,,,,,,,,,,,,,,,,,,,,,,,,,,,,,,,,,,,,,,,,,,,,,,,,,,,,,,,,,,,,
,,,,7,1.4988,,,,,,83,broom,carrot,,90439,001,2022-04-28_23h11.00.847,SPAMnetsValid,2021.1.4,MacIntel,59.97361161,,,,,,,,,,,,,7,1.4988,0,18,18,4,1,,,,,,,,,,,,,,,,,,,,,,,,,,,,,,,,,,,,,,,,,,,,,,,,,,,,,,,,,,,,,,,,,,,,,,
,,,,6,1.8074,,,,,,41,broom,cactus,,90439,001,2022-04-28_23h11.00.847,SPAMnetsValid,2021.1.4,MacIntel,59.97361161,,,,,,,,,,,,,6,1.8074,0,19,19,46,1,,,,,,,,,,,,,,,,,,,,,,,,,,,,,,,,,,,,,,,,,,,,,,,,,,,,,,,,,,,,,,,,,,,,,,
,,,,4,1.1816,,,,,,92,broom,flower,,90439,001,2022-04-28_23h11.00.847,SPAMnetsValid,2021.1.4,MacIntel,59.97361161,,,,,,,,,,,,,4,1.1816,0,20,20,88,1,,,,,,,,,,,,,,,,,,,,,,,,,,,,,,,,,,,,,,,,,,,,,,,,,,,,,,,,,,,,,,,,,,,,,,
,,,,3,1.7831,,,,,,75,cookie,onion,,90439,001,2022-04-28_23h11.00.847,SPAMnetsValid,2021.1.4,MacIntel,59.97361161,,,,,,,,,,,,,3,1.7831,0,21,21,9,1,,,,,,,,,,,,,,,,,,,,,,,,,,,,,,,,,,,,,,,,,,,,,,,,,,,,,,,,,,,,,,,,,,,,,,
,,,,3,1.2594,,,,,,29,chocolate,melon,,90439,001,2022-04-28_23h11.00.847,SPAMnetsValid,2021.1.4,MacIntel,59.97361161,,,,,,,,,,,,,3,1.2594,0,22,22,34,1,,,,,,,,,,,,,,,,,,,,,,,,,,,,,,,,,,,,,,,,,,,,,,,,,,,,,,,,,,,,,,,,,,,,,,
,,,,4,1.4827,,,,,,44,cookie,melon,,90439,001,2022-04-28_23h11.00.847,SPAMnetsValid,2021.1.4,MacIntel,59.97361161,,,,,,,,,,,,,4,1.4827,0,23,23,92,1,,,,,,,,,,,,,,,,,,,,,,,,,,,,,,,,,,,,,,,,,,,,,,,,,,,,,,,,,,,,,,,,,,,,,,
,,,,4,20.1458,,,,,,67,flower,yogurt,,90439,001,2022-04-28_23h11.00.847,SPAMnetsValid,2021.1.4,MacIntel,59.97361161,,,,,,,,,,,,,4,20.1458,0,24,24,12,1,,,,,,,,,,,,,,,,,,,,,,,,,,,,,,,,,,,,,,,,,,,,,,,,,,,,,,,,,,,,,,,,,,,,,,
,,,,3,1.3642,,,,,,80,chocolate,tree,,90439,001,2022-04-28_23h11.00.847,SPAMnetsValid,2021.1.4,MacIntel,59.97361161,,,,,,,,,,,,,3,1.3642,0,25,25,89,1,,,,,,,,,,,,,,,,,,,,,,,,,,,,,,,,,,,,,,,,,,,,,,,,,,,,,,,,,,,,,,,,,,,,,,
,,,,3,3.084,,,,,,42,garden,kitchen,,90439,001,2022-04-28_23h11.00.847,SPAMnetsValid,2021.1.4,MacIntel,59.97361161,,,,,,,,,,,,,3,3.084,0,26,26,29,1,,,,,,,,,,,,,,,,,,,,,,,,,,,,,,,,,,,,,,,,,,,,,,,,,,,,,,,,,,,,,,,,,,,,,,
,,,,3,1.4981,,,,,,51,onion,strawberry,,90439,001,2022-04-28_23h11.00.847,SPAMnetsValid,2021.1.4,MacIntel,59.97361161,,,,,,,,,,,,,3,1.4981,0,27,27,86,1,,,,,,,,,,,,,,,,,,,,,,,,,,,,,,,,,,,,,,,,,,,,,,,,,,,,,,,,,,,,,,,,,,,,,,
,,,,3,1.5826,,,,,,38,pretzel,refrigerator,,90439,001,2022-04-28_23h11.00.847,SPAMnetsValid,2021.1.4,MacIntel,59.97361161,,,,,,,,,,,,,3,1.5826,0,28,28,71,1,,,,,,,,,,,,,,,,,,,,,,,,,,,,,,,,,,,,,,,,,,,,,,,,,,,,,,,,,,,,,,,,,,,,,,
,,,,3,1.0668,,,,,,13,broom,yogurt,,90439,001,2022-04-28_23h11.00.847,SPAMnetsValid,2021.1.4,MacIntel,59.97361161,,,,,,,,,,,,,3,1.0668,0,29,29,5,1,,,,,,,,,,,,,,,,,,,,,,,,,,,,,,,,,,,,,,,,,,,,,,,,,,,,,,,,,,,,,,,,,,,,,,
,,,,7,1.8671,,,,,,61,strawberry,tomato,,90439,001,2022-04-28_23h11.00.847,SPAMnetsValid,2021.1.4,MacIntel,59.97361161,,,,,,,,,,,,,7,1.8671,0,30,30,80,1,,,,,,,,,,,,,,,,,,,,,,,,,,,,,,,,,,,,,,,,,,,,,,,,,,,,,,,,,,,,,,,,,,,,,,
,,,,3,1.7508,,,,,,24,cookie,tomato,,90439,001,2022-04-28_23h11.00.847,SPAMnetsValid,2021.1.4,MacIntel,59.97361161,,,,,,,,,,,,,3,1.7508,0,31,31,68,1,,,,,,,,,,,,,,,,,,,,,,,,,,,,,,,,,,,,,,,,,,,,,,,,,,,,,,,,,,,,,,,,,,,,,,
,,,,2,2.6511,,,,,,48,flower,oven,,90439,001,2022-04-28_23h11.00.847,SPAMnetsValid,2021.1.4,MacIntel,59.97361161,,,,,,,,,,,,,2,2.6511,0,32,32,15,1,,,,,,,,,,,,,,,,,,,,,,,,,,,,,,,,,,,,,,,,,,,,,,,,,,,,,,,,,,,,,,,,,,,,,,
,,,,2,1.3336,,,,,,39,melon,pretzel,,90439,001,2022-04-28_23h11.00.847,SPAMnetsValid,2021.1.4,MacIntel,59.97361161,,,,,,,,,,,,,2,1.3336,0,33,33,20,1,,,,,,,,,,,,,,,,,,,,,,,,,,,,,,,,,,,,,,,,,,,,,,,,,,,,,,,,,,,,,,,,,,,,,,
,,,,2,1.3308,,,,,,36,broom,kitchen,,90439,001,2022-04-28_23h11.00.847,SPAMnetsValid,2021.1.4,MacIntel,59.97361161,,,,,,,,,,,,,2,1.3308,0,34,34,76,1,,,,,,,,,,,,,,,,,,,,,,,,,,,,,,,,,,,,,,,,,,,,,,,,,,,,,,,,,,,,,,,,,,,,,,
,,,,3,1.6797,,,,,,57,flower,kitchen,,90439,001,2022-04-28_23h11.00.847,SPAMnetsValid,2021.1.4,MacIntel,59.97361161,,,,,,,,,,,,,3,1.6797,0,35,35,49,1,,,,,,,,,,,,,,,,,,,,,,,,,,,,,,,,,,,,,,,,,,,,,,,,,,,,,,,,,,,,,,,,,,,,,,
,,,,7,2.5657,,,,,,26,tomato,yogurt,,90439,001,2022-04-28_23h11.00.847,SPAMnetsValid,2021.1.4,MacIntel,59.97361161,,,,,,,,,,,,,7,2.5657,0,36,36,13,1,,,,,,,,,,,,,,,,,,,,,,,,,,,,,,,,,,,,,,,,,,,,,,,,,,,,,,,,,,,,,,,,,,,,,,
,,,,3,2.1991,,,,,,58,garden,oven,,90439,001,2022-04-28_23h11.00.847,SPAMnetsValid,2021.1.4,MacIntel,59.97361161,,,,,,,,,,,,,3,2.1991,0,37,37,37,1,,,,,,,,,,,,,,,,,,,,,,,,,,,,,,,,,,,,,,,,,,,,,,,,,,,,,,,,,,,,,,,,,,,,,,
,,,,8,1.7835,,,,,,52,carrot,tomato,,90439,001,2022-04-28_23h11.00.847,SPAMnetsValid,2021.1.4,MacIntel,59.97361161,,,,,,,,,,,,,8,1.7835,0,38,38,95,1,,,,,,,,,,,,,,,,,,,,,,,,,,,,,,,,,,,,,,,,,,,,,,,,,,,,,,,,,,,,,,,,,,,,,,
,,,,1,1.8151,,,,,,56,cactus,tree,,90439,001,2022-04-28_23h11.00.847,SPAMnetsValid,2021.1.4,MacIntel,59.97361161,,,,,,,,,,,,,1,1.8151,0,39,39,21,1,,,,,,,,,,,,,,,,,,,,,,,,,,,,,,,,,,,,,,,,,,,,,,,,,,,,,,,,,,,,,,,,,,,,,,
,,,,9,4.7019,,,,,,9,kitchen,refrigerator,,90439,001,2022-04-28_23h11.00.847,SPAMnetsValid,2021.1.4,MacIntel,59.97361161,,,,,,,,,,,,,9,4.7019,0,40,40,64,1,,,,,,,,,,,,,,,,,,,,,,,,,,,,,,,,,,,,,,,,,,,,,,,,,,,,,,,,,,,,,,,,,,,,,,
,,,,6,1.4923,,,,,,65,broom,garden,,90439,001,2022-04-28_23h11.00.847,SPAMnetsValid,2021.1.4,MacIntel,59.97361161,,,,,,,,,,,,,6,1.4923,0,41,41,23,1,,,,,,,,,,,,,,,,,,,,,,,,,,,,,,,,,,,,,,,,,,,,,,,,,,,,,,,,,,,,,,,,,,,,,,
,,,,9,2.0803,,,,,,191,cake,cake,CHECK,90439,001,2022-04-28_23h11.00.847,SPAMnetsValid,2021.1.4,MacIntel,59.97361161,,,,,,,,,,,,,9,2.0803,0,42,42,10,1,,,,,,,,,,,,,,,,,,,,,,,,,,,,,,,,,,,,,,,,,,,,,,,,,,,,,,,,,,,,,,,,,,,,,,
,,,,2,2.4488,,,,,,23,flower,microwave,,90439,001,2022-04-28_23h11.00.847,SPAMnetsValid,2021.1.4,MacIntel,59.97361161,,,,,,,,,,,,,2,2.4488,0,43,43,25,1,,,,,,,,,,,,,,,,,,,,,,,,,,,,,,,,,,,,,,,,,,,,,,,,,,,,,,,,,,,,,,,,,,,,,,
,,,,2,3.0157,,,,,,68,flower,tomato,,90439,001,2022-04-28_23h11.00.847,SPAMnetsValid,2021.1.4,MacIntel,59.97361161,,,,,,,,,,,,,2,3.0157,0,44,44,94,1,,,,,,,,,,,,,,,,,,,,,,,,,,,,,,,,,,,,,,,,,,,,,,,,,,,,,,,,,,,,,,,,,,,,,,
,,,,2,2.3153,,,,,,89,chocolate,rose,,90439,001,2022-04-28_23h11.00.847,SPAMnetsValid,2021.1.4,MacIntel,59.97361161,,,,,,,,,,,,,2,2.3153,0,45,45,60,1,,,,,,,,,,,,,,,,,,,,,,,,,,,,,,,,,,,,,,,,,,,,,,,,,,,,,,,,,,,,,,,,,,,,,,
,,,,1,2.5987,,,,,,91,microwave,rose,,90439,001,2022-04-28_23h11.00.847,SPAMnetsValid,2021.1.4,MacIntel,59.97361161,,,,,,,,,,,,,1,2.5987,0,46,46,84,1,,,,,,,,,,,,,,,,,,,,,,,,,,,,,,,,,,,,,,,,,,,,,,,,,,,,,,,,,,,,,,,,,,,,,,
,,,,8,2.7825,,,,,,2,kitchen,onion,,90439,001,2022-04-28_23h11.00.847,SPAMnetsValid,2021.1.4,MacIntel,59.97361161,,,,,,,,,,,,,8,2.7825,0,47,47,91,1,,,,,,,,,,,,,,,,,,,,,,,,,,,,,,,,,,,,,,,,,,,,,,,,,,,,,,,,,,,,,,,,,,,,,,
,,,,3,13.6829,,,,,,14,broom,cookie,,90439,001,2022-04-28_23h11.00.847,SPAMnetsValid,2021.1.4,MacIntel,59.97361161,,,,,,,,,,,,,3,13.6829,0,48,48,16,1,,,,,,,,,,,,,,,,,,,,,,,,,,,,,,,,,,,,,,,,,,,,,,,,,,,,,,,,,,,,,,,,,,,,,,
,,,,8,2.4271,,,,,,82,cake,kitchen,,90439,001,2022-04-28_23h11.00.847,SPAMnetsValid,2021.1.4,MacIntel,59.97361161,,,,,,,,,,,,,8,2.4271,0,49,49,96,1,,,,,,,,,,,,,,,,,,,,,,,,,,,,,,,,,,,,,,,,,,,,,,,,,,,,,,,,,,,,,,,,,,,,,,
,,,,8,1.6665,,,,,,32,cake,microwave,,90439,001,2022-04-28_23h11.00.847,SPAMnetsValid,2021.1.4,MacIntel,59.97361161,,,,,,,,,,,,,8,1.6665,0,50,50,33,1,,,,,,,,,,,,,,,,,,,,,,,,,,,,,,,,,,,,,,,,,,,,,,,,,,,,,,,,,,,,,,,,,,,,,,
,,,,3,2.3172,,,,,,78,cookie,rose,,90439,001,2022-04-28_23h11.00.847,SPAMnetsValid,2021.1.4,MacIntel,59.97361161,,,,,,,,,,,,,3,2.3172,0,51,51,56,1,,,,,,,,,,,,,,,,,,,,,,,,,,,,,,,,,,,,,,,,,,,,,,,,,,,,,,,,,,,,,,,,,,,,,,
,,,,7,3.3356,,,,,,69,carrot,refrigerator,,90439,001,2022-04-28_23h11.00.847,SPAMnetsValid,2021.1.4,MacIntel,59.97361161,,,,,,,,,,,,,7,3.3356,0,52,52,75,1,,,,,,,,,,,,,,,,,,,,,,,,,,,,,,,,,,,,,,,,,,,,,,,,,,,,,,,,,,,,,,,,,,,,,,
,,,,8,5.8214,,,,,,54,chocolate,yogurt,,90439,001,2022-04-28_23h11.00.847,SPAMnetsValid,2021.1.4,MacIntel,59.97361161,,,,,,,,,,,,,8,5.8214,0,53,53,67,1,,,,,,,,,,,,,,,,,,,,,,,,,,,,,,,,,,,,,,,,,,,,,,,,,,,,,,,,,,,,,,,,,,,,,,
,,,,1,22.239,,,,,,31,cactus,pretzel,,90439,001,2022-04-28_23h11.00.847,SPAMnetsValid,2021.1.4,MacIntel,59.97361161,,,,,,,,,,,,,1,22.239,0,54,54,1,1,,,,,,,,,,,,,,,,,,,,,,,,,,,,,,,,,,,,,,,,,,,,,,,,,,,,,,,,,,,,,,,,,,,,,,
,,,,7,8.6526,,,,,,28,cake,melon,,90439,001,2022-04-28_23h11.00.847,SPAMnetsValid,2021.1.4,MacIntel,59.97361161,,,,,,,,,,,,,7,8.6526,0,55,55,54,1,,,,,,,,,,,,,,,,,,,,,,,,,,,,,,,,,,,,,,,,,,,,,,,,,,,,,,,,,,,,,,,,,,,,,,
,,,,8,2.1175,,,,,,25,carrot,onion,,90439,001,2022-04-28_23h11.00.847,SPAMnetsValid,2021.1.4,MacIntel,59.97361161,,,,,,,,,,,,,8,2.1175,0,56,56,44,1,,,,,,,,,,,,,,,,,,,,,,,,,,,,,,,,,,,,,,,,,,,,,,,,,,,,,,,,,,,,,,,,,,,,,,
,,,,3,3.1934,,,,,,55,tomato,tree,,90439,001,2022-04-28_23h11.00.847,SPAMnetsValid,2021.1.4,MacIntel,59.97361161,,,,,,,,,,,,,3,3.1934,0,57,57,35,1,,,,,,,,,,,,,,,,,,,,,,,,,,,,,,,,,,,,,,,,,,,,,,,,,,,,,,,,,,,,,,,,,,,,,,
,,,,3,3.4845,,,,,,88,cactus,melon,,90439,001,2022-04-28_23h11.00.847,SPAMnetsValid,2021.1.4,MacIntel,59.97361161,,,,,,,,,,,,,3,3.4845,0,58,58,38,1,,,,,,,,,,,,,,,,,,,,,,,,,,,,,,,,,,,,,,,,,,,,,,,,,,,,,,,,,,,,,,,,,,,,,,
,,,,1,2.67,,,,,,86,oven,rose,,90439,001,2022-04-28_23h11.00.847,SPAMnetsValid,2021.1.4,MacIntel,59.97361161,,,,,,,,,,,,,1,2.67,0,59,59,79,1,,,,,,,,,,,,,,,,,,,,,,,,,,,,,,,,,,,,,,,,,,,,,,,,,,,,,,,,,,,,,,,,,,,,,,
,,,,7,2.0682,,,,,,84,oven,tomato,,90439,001,2022-04-28_23h11.00.847,SPAMnetsValid,2021.1.4,MacIntel,59.97361161,,,,,,,,,,,,,7,2.0682,0,60,60,28,1,,,,,,,,,,,,,,,,,,,,,,,,,,,,,,,,,,,,,,,,,,,,,,,,,,,,,,,,,,,,,,,,,,,,,,
,,,,8,6.2171,,,,,,4,chocolate,pretzel,,90439,001,2022-04-28_23h11.00.847,SPAMnetsValid,2021.1.4,MacIntel,59.97361161,,,,,,,,,,,,,8,6.2171,0,61,61,52,1,,,,,,,,,,,,,,,,,,,,,,,,,,,,,,,,,,,,,,,,,,,,,,,,,,,,,,,,,,,,,,,,,,,,,,
,,,,6,2.4672,,,,,,77,refrigerator,yogurt,,90439,001,2022-04-28_23h11.00.847,SPAMnetsValid,2021.1.4,MacIntel,59.97361161,,,,,,,,,,,,,6,2.4672,0,62,62,42,1,,,,,,,,,,,,,,,,,,,,,,,,,,,,,,,,,,,,,,,,,,,,,,,,,,,,,,,,,,,,,,,,,,,,,,
,,,,8,4.7286,,,,,,81,pretzel,yogurt,,90439,001,2022-04-28_23h11.00.847,SPAMnetsValid,2021.1.4,MacIntel,59.97361161,,,,,,,,,,,,,8,4.7286,0,63,63,50,1,,,,,,,,,,,,,,,,,,,,,,,,,,,,,,,,,,,,,,,,,,,,,,,,,,,,,,,,,,,,,,,,,,,,,,
,,,,8,2.2498,,,,,,20,rose,tree,,90439,001,2022-04-28_23h11.00.847,SPAMnetsValid,2021.1.4,MacIntel,59.97361161,,,,,,,,,,,,,8,2.2498,0,64,64,66,1,,,,,,,,,,,,,,,,,,,,,,,,,,,,,,,,,,,,,,,,,,,,,,,,,,,,,,,,,,,,,,,,,,,,,,
,,,,9,4.1663,,,,,,71,broom,rose,,90439,001,2022-04-28_23h11.00.847,SPAMnetsValid,2021.1.4,MacIntel,59.97361161,,,,,,,,,,,,,9,4.1663,0,65,65,61,1,,,,,,,,,,,,,,,,,,,,,,,,,,,,,,,,,,,,,,,,,,,,,,,,,,,,,,,,,,,,,,,,,,,,,,
,,,,1,1.6334,,,,,,5,oven,tree,,90439,001,2022-04-28_23h11.00.847,SPAMnetsValid,2021.1.4,MacIntel,59.97361161,,,,,,,,,,,,,1,1.6334,0,66,66,70,1,,,,,,,,,,,,,,,,,,,,,,,,,,,,,,,,,,,,,,,,,,,,,,,,,,,,,,,,,,,,,,,,,,,,,,
,,,,3,3.068,,,,,,37,garden,refrigerator,,90439,001,2022-04-28_23h11.00.847,SPAMnetsValid,2021.1.4,MacIntel,59.97361161,,,,,,,,,,,,,3,3.068,0,67,67,11,1,,,,,,,,,,,,,,,,,,,,,,,,,,,,,,,,,,,,,,,,,,,,,,,,,,,,,,,,,,,,,,,,,,,,,,
,,,,6,3.9092,,,,,,21,cake,onion,,90439,001,2022-04-28_23h11.00.847,SPAMnetsValid,2021.1.4,MacIntel,59.97361161,,,,,,,,,,,,,6,3.9092,0,68,68,63,1,,,,,,,,,,,,,,,,,,,,,,,,,,,,,,,,,,,,,,,,,,,,,,,,,,,,,,,,,,,,,,,,,,,,,,
,,,,7,2.4348,,,,,,17,carrot,melon,,90439,001,2022-04-28_23h11.00.847,SPAMnetsValid,2021.1.4,MacIntel,59.97361161,,,,,,,,,,,,,7,2.4348,0,69,69,24,1,,,,,,,,,,,,,,,,,,,,,,,,,,,,,,,,,,,,,,,,,,,,,,,,,,,,,,,,,,,,,,,,,,,,,,
,,,,8,1.8414,,,,,,63,cake,cookie,,90439,001,2022-04-28_23h11.00.847,SPAMnetsValid,2021.1.4,MacIntel,59.97361161,,,,,,,,,,,,,8,1.8414,0,70,70,93,1,,,,,,,,,,,,,,,,,,,,,,,,,,,,,,,,,,,,,,,,,,,,,,,,,,,,,,,,,,,,,,,,,,,,,,
,,,,1,3.1828,,,,,,33,oven,yogurt,,90439,001,2022-04-28_23h11.00.847,SPAMnetsValid,2021.1.4,MacIntel,59.97361161,,,,,,,,,,,,,1,3.1828,0,71,71,31,1,,,,,,,,,,,,,,,,,,,,,,,,,,,,,,,,,,,,,,,,,,,,,,,,,,,,,,,,,,,,,,,,,,,,,,
,,,,2,6.2096,,,,,,49,flower,strawberry,,90439,001,2022-04-28_23h11.00.847,SPAMnetsValid,2021.1.4,MacIntel,59.97361161,,,,,,,,,,,,,2,6.2096,0,72,72,3,1,,,,,,,,,,,,,,,,,,,,,,,,,,,,,,,,,,,,,,,,,,,,,,,,,,,,,,,,,,,,,,,,,,,,,,
,,,,7,3.7177,,,,,,93,kitchen,oven,,90439,001,2022-04-28_23h11.00.847,SPAMnetsValid,2021.1.4,MacIntel,59.97361161,,,,,,,,,,,,,7,3.7177,0,73,73,82,1,,,,,,,,,,,,,,,,,,,,,,,,,,,,,,,,,,,,,,,,,,,,,,,,,,,,,,,,,,,,,,,,,,,,,,
,,,,6,1.9807,,,,,,43,chocolate,tomato,,90439,001,2022-04-28_23h11.00.847,SPAMnetsValid,2021.1.4,MacIntel,59.97361161,,,,,,,,,,,,,6,1.9807,0,74,74,8,1,,,,,,,,,,,,,,,,,,,,,,,,,,,,,,,,,,,,,,,,,,,,,,,,,,,,,,,,,,,,,,,,,,,,,,
,,,,7,4.951,,,,,,27,cactus,cookie,,90439,001,2022-04-28_23h11.00.847,SPAMnetsValid,2021.1.4,MacIntel,59.97361161,,,,,,,,,,,,,7,4.951,0,75,75,17,1,,,,,,,,,,,,,,,,,,,,,,,,,,,,,,,,,,,,,,,,,,,,,,,,,,,,,,,,,,,,,,,,,,,,,,
,,,,7,3.7826,,,,,,76,garden,rose,,90439,001,2022-04-28_23h11.00.847,SPAMnetsValid,2021.1.4,MacIntel,59.97361161,,,,,,,,,,,,,7,3.7826,0,76,76,19,1,,,,,,,,,,,,,,,,,,,,,,,,,,,,,,,,,,,,,,,,,,,,,,,,,,,,,,,,,,,,,,,,,,,,,,
,,,,6,3.6324,,,,,,66,melon,yogurt,,90439,001,2022-04-28_23h11.00.847,SPAMnetsValid,2021.1.4,MacIntel,59.97361161,,,,,,,,,,,,,6,3.6324,0,77,77,48,1,,,,,,,,,,,,,,,,,,,,,,,,,,,,,,,,,,,,,,,,,,,,,,,,,,,,,,,,,,,,,,,,,,,,,,
,,,,3,4.7335,,,,,,62,kitchen,rose,,90439,001,2022-04-28_23h11.00.847,SPAMnetsValid,2021.1.4,MacIntel,59.97361161,,,,,,,,,,,,,3,4.7335,0,78,78,57,1,,,,,,,,,,,,,,,,,,,,,,,,,,,,,,,,,,,,,,,,,,,,,,,,,,,,,,,,,,,,,,,,,,,,,,
,,,,6,1.9913,,,,,,3,cake,oven,,90439,001,2022-04-28_23h11.00.847,SPAMnetsValid,2021.1.4,MacIntel,59.97361161,,,,,,,,,,,,,6,1.9913,0,79,79,30,1,,,,,,,,,,,,,,,,,,,,,,,,,,,,,,,,,,,,,,,,,,,,,,,,,,,,,,,,,,,,,,,,,,,,,,
,,,,4,2.3769,,,,,,90,cactus,cake,,90439,001,2022-04-28_23h11.00.847,SPAMnetsValid,2021.1.4,MacIntel,59.97361161,,,,,,,,,,,,,4,2.3769,0,80,80,85,1,,,,,,,,,,,,,,,,,,,,,,,,,,,,,,,,,,,,,,,,,,,,,,,,,,,,,,,,,,,,,,,,,,,,,,
,,,,9,2.1774,,,,,,94,kitchen,microwave,,90439,001,2022-04-28_23h11.00.847,SPAMnetsValid,2021.1.4,MacIntel,59.97361161,,,,,,,,,,,,,9,2.1774,0,81,81,58,1,,,,,,,,,,,,,,,,,,,,,,,,,,,,,,,,,,,,,,,,,,,,,,,,,,,,,,,,,,,,,,,,,,,,,,
,,,,6,4.501,,,,,,12,cookie,yogurt,,90439,001,2022-04-28_23h11.00.847,SPAMnetsValid,2021.1.4,MacIntel,59.97361161,,,,,,,,,,,,,6,4.501,0,82,82,36,1,,,,,,,,,,,,,,,,,,,,,,,,,,,,,,,,,,,,,,,,,,,,,,,,,,,,,,,,,,,,,,,,,,,,,,
,,,,3,1.8661,,,,,,85,cake,tree,,90439,001,2022-04-28_23h11.00.847,SPAMnetsValid,2021.1.4,MacIntel,59.97361161,,,,,,,,,,,,,3,1.8661,0,83,83,18,1,,,,,,,,,,,,,,,,,,,,,,,,,,,,,,,,,,,,,,,,,,,,,,,,,,,,,,,,,,,,,,,,,,,,,,
,,,,4,1.8669,,,,,,10,flower,onion,,90439,001,2022-04-28_23h11.00.847,SPAMnetsValid,2021.1.4,MacIntel,59.97361161,,,,,,,,,,,,,4,1.8669,0,84,84,45,1,,,,,,,,,,,,,,,,,,,,,,,,,,,,,,,,,,,,,,,,,,,,,,,,,,,,,,,,,,,,,,,,,,,,,,
,,,,3,2.8279,,,,,,95,broom,refrigerator,,90439,001,2022-04-28_23h11.00.847,SPAMnetsValid,2021.1.4,MacIntel,59.97361161,,,,,,,,,,,,,3,2.8279,0,85,85,90,1,,,,,,,,,,,,,,,,,,,,,,,,,,,,,,,,,,,,,,,,,,,,,,,,,,,,,,,,,,,,,,,,,,,,,,
,,,,1,2.4495,,,,,,74,broom,pretzel,,90439,001,2022-04-28_23h11.00.847,SPAMnetsValid,2021.1.4,MacIntel,59.97361161,,,,,,,,,,,,,1,2.4495,0,86,86,40,1,,,,,,,,,,,,,,,,,,,,,,,,,,,,,,,,,,,,,,,,,,,,,,,,,,,,,,,,,,,,,,,,,,,,,,
,,,,2,1.9653,,,,,,87,carrot,yogurt,,90439,001,2022-04-28_23h11.00.847,SPAMnetsValid,2021.1.4,MacIntel,59.97361161,,,,,,,,,,,,,2,1.9653,0,87,87,6,1,,,,,,,,,,,,,,,,,,,,,,,,,,,,,,,,,,,,,,,,,,,,,,,,,,,,,,,,,,,,,,,,,,,,,,
,,,,3,1.982,,,,,,35,flower,pretzel,,90439,001,2022-04-28_23h11.00.847,SPAMnetsValid,2021.1.4,MacIntel,59.97361161,,,,,,,,,,,,,3,1.982,0,88,88,26,1,,,,,,,,,,,,,,,,,,,,,,,,,,,,,,,,,,,,,,,,,,,,,,,,,,,,,,,,,,,,,,,,,,,,,,
,,,,4,3.095,,,,,,59,rose,strawberry,,90439,001,2022-04-28_23h11.00.847,SPAMnetsValid,2021.1.4,MacIntel,59.97361161,,,,,,,,,,,,,4,3.095,0,89,89,72,1,,,,,,,,,,,,,,,,,,,,,,,,,,,,,,,,,,,,,,,,,,,,,,,,,,,,,,,,,,,,,,,,,,,,,,
,,,,6,1.5991,,,,,,30,cookie,pretzel,,90439,001,2022-04-28_23h11.00.847,SPAMnetsValid,2021.1.4,MacIntel,59.97361161,,,,,,,,,,,,,6,1.5991,0,90,90,78,1,,,,,,,,,,,,,,,,,,,,,,,,,,,,,,,,,,,,,,,,,,,,,,,,,,,,,,,,,,,,,,,,,,,,,,
,,,,7,1.5934,,,,,,47,onion,tomato,,90439,001,2022-04-28_23h11.00.847,SPAMnetsValid,2021.1.4,MacIntel,59.97361161,,,,,,,,,,,,,7,1.5934,0,91,91,51,1,,,,,,,,,,,,,,,,,,,,,,,,,,,,,,,,,,,,,,,,,,,,,,,,,,,,,,,,,,,,,,,,,,,,,,
,,,,3,1.6485,,,,,,50,carrot,rose,,90439,001,2022-04-28_23h11.00.847,SPAMnetsValid,2021.1.4,MacIntel,59.97361161,,,,,,,,,,,,,3,1.6485,0,92,92,73,1,,,,,,,,,,,,,,,,,,,,,,,,,,,,,,,,,,,,,,,,,,,,,,,,,,,,,,,,,,,,,,,,,,,,,,
,,,,7,2.2603,,,,,,19,microwave,pretzel,,90439,001,2022-04-28_23h11.00.847,SPAMnetsValid,2021.1.4,MacIntel,59.97361161,,,,,,,,,,,,,7,2.2603,0,93,93,41,1,,,,,,,,,,,,,,,,,,,,,,,,,,,,,,,,,,,,,,,,,,,,,,,,,,,,,,,,,,,,,,,,,,,,,,
,,,,7,2.2656,,,,,,70,chocolate,onion,,90439,001,2022-04-28_23h11.00.847,SPAMnetsValid,2021.1.4,MacIntel,59.97361161,,,,,,,,,,,,,7,2.2656,0,94,94,74,1,,,,,,,,,,,,,,,,,,,,,,,,,,,,,,,,,,,,,,,,,,,,,,,,,,,,,,,,,,,,,,,,,,,,,,
,,,,4,1.999,,,,,,73,broom,chocolate,,90439,001,2022-04-28_23h11.00.847,SPAMnetsValid,2021.1.4,MacIntel,59.97361161,,,,,,,,,,,,,4,1.999,0,95,95,47,1,,,,,,,,,,,,,,,,,,,,,,,,,,,,,,,,,,,,,,,,,,,,,,,,,,,,,,,,,,,,,,,,,,,,,,
,,,,2,6.0179,,,,,,53,garden,pretzel,,90439,001,2022-04-28_23h11.00.847,SPAMnetsValid,2021.1.4,MacIntel,59.97361161,,,,,,,,,,,,,2,6.0179,0,96,96,0,1,,,,,,,,,,,,,,,,,,,,,,,,,,,,,,,,,,,,,,,,,,,,,,,,,,,,,,,,,,,,,,,,,,,,,,
,,,,,,,,,,,,,,,90439,001,2022-04-28_23h11.00.847,SPAMnetsValid,2021.1.4,MacIntel,59.97361161,,,,,,,,,,,,,,,,,,,,0,0,0,0,1,,,,,,,,,,,,,,,,,,,,,,,,,,,,,,,,,,,,,,,,,,,,,,,,,,,,,,,,,,,,,,,,,
,,,,,,,,,,,,,,,90439,001,2022-04-28_23h11.00.847,SPAMnetsValid,2021.1.4,MacIntel,59.97361161,,,,,,0,1,1,0,1,1,0,,,,,,,,,,,,,,,,,,,,,,,,,,,,,,,,,,,,,,,,,,,,,,,,,,,,,,,,,,,,,,,,,,,,,,,,,,,,,
,,,,,,,,,,,,,,,90439,001,2022-04-28_23h11.00.847,SPAMnetsValid,2021.1.4,MacIntel,59.97361161,,,,,,,,,,,,,,,,,,,,,,,,,3,5.2883,0,0,0,0,1,rancor,forbearance,ridicule,malice,bravery,3,,,,,,,,,,,,,,,,,,,,,,,,,,,,,,,,,,,,,,,,,,,,,,,,,,,,
,,,,,,,,,,,,,,,90439,001,2022-04-28_23h11.00.847,SPAMnetsValid,2021.1.4,MacIntel,59.97361161,,,,,,,,,,,,,,,,,,,,,,,,,2,3.1445,0,1,1,1,1,raucous,empty,quiet,smooth,harsh,4,,,,,,,,,,,,,,,,,,,,,,,,,,,,,,,,,,,,,,,,,,,,,,,,,,,,
,,,,,,,,,,,,,,,90439,001,2022-04-28_23h11.00.847,SPAMnetsValid,2021.1.4,MacIntel,59.97361161,,,,,,,,,,,,,,,,,,,,,,,,,4,3.8349,0,2,2,2,1,gargoyle,oil,medicine,carved waterspout,ugly building,3,,,,,,,,,,,,,,,,,,,,,,,,,,,,,,,,,,,,,,,,,,,,,,,,,,,,
,,,,,,,,,,,,,,,90439,001,2022-04-28_23h11.00.847,SPAMnetsValid,2021.1.4,MacIntel,59.97361161,,,,,,,,,,,,,,,,,,,,,,,,,3,2.1709,0,3,3,3,1,recrudesce,purify,renew activity,lack refinement,crush,2,,,,,,,,,,,,,,,,,,,,,,,,,,,,,,,,,,,,,,,,,,,,,,,,,,,,
,,,,,,,,,,,,,,,90439,001,2022-04-28_23h11.00.847,SPAMnetsValid,2021.1.4,MacIntel,59.97361161,,,,,,,,,,,,,,,,,,,,,,,,,3,4.951,0,4,4,4,1,specious,"plausible, but not genuine",noteworthy,class or variety,roomy,1,,,,,,,,,,,,,,,,,,,,,,,,,,,,,,,,,,,,,,,,,,,,,,,,,,,,
,,,,,,,,,,,,,,,90439,001,2022-04-28_23h11.00.847,SPAMnetsValid,2021.1.4,MacIntel,59.97361161,,,,,,,,,,,,,,,,,,,,,,,,,1,2.5324,0,5,5,5,1,bauble,bubble,showy plaything,idle talk,confusion,2,,,,,,,,,,,,,,,,,,,,,,,,,,,,,,,,,,,,,,,,,,,,,,,,,,,,
,,,,,,,,,,,,,,,90439,001,2022-04-28_23h11.00.847,SPAMnetsValid,2021.1.4,MacIntel,59.97361161,,,,,,,,,,,,,,,,,,,,,,,,,4,4.5376,0,6,6,6,1,prolific,scarce,producing abundantly,reckless,speaking profanely,2,,,,,,,,,,,,,,,,,,,,,,,,,,,,,,,,,,,,,,,,,,,,,,,,,,,,
,,,,,,,,,,,,,,,90439,001,2022-04-28_23h11.00.847,SPAMnetsValid,2021.1.4,MacIntel,59.97361161,,,,,,,,,,,,,,,,,,,,,,,,,3,1.5347,0,7,7,7,1,opulent,party,wealthy,happy frame of mind,semiprecious stone,2,,,,,,,,,,,,,,,,,,,,,,,,,,,,,,,,,,,,,,,,,,,,,,,,,,,,
,,,,,,,,,,,,,,,90439,001,2022-04-28_23h11.00.847,SPAMnetsValid,2021.1.4,MacIntel,59.97361161,,,,,,,,,,,,,,,,,,,,,,,,,2,1.4114,0,8,8,8,1,coercion,conspiracy,strategy,restraint,attraction,3,,,,,,,,,,,,,,,,,,,,,,,,,,,,,,,,,,,,,,,,,,,,,,,,,,,,
,,,,,,,,,,,,,,,90439,001,2022-04-28_23h11.00.847,SPAMnetsValid,2021.1.4,MacIntel,59.97361161,,,,,,,,,,,,,,,,,,,,,,,,,1,1.717,0,9,9,9,1,hiatus,animal,calamity,dread,gap,4,,,,,,,,,,,,,,,,,,,,,,,,,,,,,,,,,,,,,,,,,,,,,,,,,,,,
,,,,,,,,,,,,,,,90439,001,2022-04-28_23h11.00.847,SPAMnetsValid,2021.1.4,MacIntel,59.97361161,,,,,,,,,,,,,,,,,,,,,,,,,4,3.421,0,10,10,10,1,germane,microbe,contagious,relevant,different,3,,,,,,,,,,,,,,,,,,,,,,,,,,,,,,,,,,,,,,,,,,,,,,,,,,,,
,,,,,,,,,,,,,,,90439,001,2022-04-28_23h11.00.847,SPAMnetsValid,2021.1.4,MacIntel,59.97361161,,,,,,,,,,,,,,,,,,,,,,,,,3,1.6319,0,11,11,11,1,perfunctory,fundamental,formal,superficial,careful,3,,,,,,,,,,,,,,,,,,,,,,,,,,,,,,,,,,,,,,,,,,,,,,,,,,,,
,,,,,,,,,,,,,,,90439,001,2022-04-28_23h11.00.847,SPAMnetsValid,2021.1.4,MacIntel,59.97361161,,,,,,,,,,,,,,,,,,,,,,,,,4,4.2046,0,12,12,12,1,diverge,reveal,chant,distract the attention of,differ or turn off from,4,,,,,,,,,,,,,,,,,,,,,,,,,,,,,,,,,,,,,,,,,,,,,,,,,,,,
,,,,,,,,,,,,,,,90439,001,2022-04-28_23h11.00.847,SPAMnetsValid,2021.1.4,MacIntel,59.97361161,,,,,,,,,,,,,,,,,,,,,,,,,1,3.234,0,13,13,13,1,evoke,take away,anger,connect,bring out,4,,,,,,,,,,,,,,,,,,,,,,,,,,,,,,,,,,,,,,,,,,,,,,,,,,,,
,,,,,,,,,,,,,,,90439,001,2022-04-28_23h11.00.847,SPAMnetsValid,2021.1.4,MacIntel,59.97361161,,,,,,,,,,,,,,,,,,,,,,,,,2,2.1602,0,14,14,14,1,pertinent,relevant,lying next to,necessary,bold,1,,,,,,,,,,,,,,,,,,,,,,,,,,,,,,,,,,,,,,,,,,,,,,,,,,,,
,,,,,,,,,,,,,,,90439,001,2022-04-28_23h11.00.847,SPAMnetsValid,2021.1.4,MacIntel,59.97361161,,,,,,,,,,,,,,,,,,,,,,,,,3,1.7018,0,15,15,15,1,holocaust,entirety,destruction,saintly,price,2,,,,,,,,,,,,,,,,,,,,,,,,,,,,,,,,,,,,,,,,,,,,,,,,,,,,
,,,,,,,,,,,,,,,90439,001,2022-04-28_23h11.00.847,SPAMnetsValid,2021.1.4,MacIntel,59.97361161,,,,,,,,,,,,,,,,,,,,,,,,,4,1.028,0,16,16,16,1,piquant,mellow,fish,pungent,cloth,3,,,,,,,,,,,,,,,,,,,,,,,,,,,,,,,,,,,,,,,,,,,,,,,,,,,,
,,,,,,,,,,,,,,,90439,001,2022-04-28_23h11.00.847,SPAMnetsValid,2021.1.4,MacIntel,59.97361161,,,,,,,,,,,,,,,,,,,,,,,,,1,1.4938,0,17,17,17,1,firmament,foundation,heavens,strong,glue,2,,,,,,,,,,,,,,,,,,,,,,,,,,,,,,,,,,,,,,,,,,,,,,,,,,,,
,,,,,,,,,,,,,,,90439,001,2022-04-28_23h11.00.847,SPAMnetsValid,2021.1.4,MacIntel,59.97361161,,,,,,,,,,,,,,,,,,,,,,,,,,,,,,,,,,,,,,4,4.9562,0,0,0,0,1,marketable,partisan,jocular,marriageable,salable,essential,4,,,,,,,,,,,,,,,,,,,,,,,,,,,,,,,,,,,,,,
,,,,,,,,,,,,,,,90439,001,2022-04-28_23h11.00.847,SPAMnetsValid,2021.1.4,MacIntel,59.97361161,,,,,,,,,,,,,,,,,,,,,,,,,,,,,,,,,,,,,,4,3.5137,0,1,1,1,1,cottontail,squirrel,poplar,boa,marshy plant,rabbit,5,,,,,,,,,,,,,,,,,,,,,,,,,,,,,,,,,,,,,,
,,,,,,,,,,,,,,,90439,001,2022-04-28_23h11.00.847,SPAMnetsValid,2021.1.4,MacIntel,59.97361161,,,,,,,,,,,,,,,,,,,,,,,,,,,,,,,,,,,,,,3,1.2994,0,2,2,2,1,boggy,afraid,false,marshy,dense,black,3,,,,,,,,,,,,,,,,,,,,,,,,,,,,,,,,,,,,,,
,,,,,,,,,,,,,,,90439,001,2022-04-28_23h11.00.847,SPAMnetsValid,2021.1.4,MacIntel,59.97361161,,,,,,,,,,,,,,,,,,,,,,,,,,,,,,,,,,,,,,2,1.2285,0,3,3,3,1,gruesomeness,blackness,falseness,vindictiveness,drunkenness,ghastliness,5,,,,,,,,,,,,,,,,,,,,,,,,,,,,,,,,,,,,,,
,,,,,,,,,,,,,,,90439,001,2022-04-28_23h11.00.847,SPAMnetsValid,2021.1.4,MacIntel,59.97361161,,,,,,,,,,,,,,,,,,,,,,,,,,,,,,,,,,,,,,1,1.6165,0,4,4,4,1,loathing,diffidence,laziness,abhorrence,cleverness,comfort,3,,,,,,,,,,,,,,,,,,,,,,,,,,,,,,,,,,,,,,
,,,,,,,,,,,,,,,90439,001,2022-04-28_23h11.00.847,SPAMnetsValid,2021.1.4,MacIntel,59.97361161,,,,,,,,,,,,,,,,,,,,,,,,,,,,,,,,,,,,,,2,0.9619,0,5,5,5,1,bantam,fowl,ridicule,cripple,vegetable,ensign,1,,,,,,,,,,,,,,,,,,,,,,,,,,,,,,,,,,,,,,
,,,,,,,,,,,,,,,90439,001,2022-04-28_23h11.00.847,SPAMnetsValid,2021.1.4,MacIntel,59.97361161,,,,,,,,,,,,,,,,,,,,,,,,,,,,,,,,,,,,,,3,3.5845,0,6,6,6,1,evoke,wake up,surrender,reconnoiter,transcend,call forth,5,,,,,,,,,,,,,,,,,,,,,,,,,,,,,,,,,,,,,,
,,,,,,,,,,,,,,,90439,001,2022-04-28_23h11.00.847,SPAMnetsValid,2021.1.4,MacIntel,59.97361161,,,,,,,,,,,,,,,,,,,,,,,,,,,,,,,,,,,,,,4,1.9171,0,7,7,7,1,unobtrusive,unintelligent,epileptic,illogical,lineal,modest,5,,,,,,,,,,,,,,,,,,,,,,,,,,,,,,,,,,,,,,
,,,,,,,,,,,,,,,90439,001,2022-04-28_23h11.00.847,SPAMnetsValid,2021.1.4,MacIntel,59.97361161,,,,,,,,,,,,,,,,,,,,,,,,,,,,,,,,,,,,,,5,1.0998,0,8,8,8,1,terrain,ice cream,final test,tractor,area of ground,weight,4,,,,,,,,,,,,,,,,,,,,,,,,,,,,,,,,,,,,,,
,,,,,,,,,,,,,,,90439,001,2022-04-28_23h11.00.847,SPAMnetsValid,2021.1.4,MacIntel,59.97361161,,,,,,,,,,,,,,,,,,,,,,,,,,,,,,,,,,,,,,4,0.8281,0,9,9,9,1,capriciousness,stubbornness,courage,whimsicality,amazement,greediness,3,,,,,,,,,,,,,,,,,,,,,,,,,,,,,,,,,,,,,,
,,,,,,,,,,,,,,,90439,001,2022-04-28_23h11.00.847,SPAMnetsValid,2021.1.4,MacIntel,59.97361161,,,,,,,,,,,,,,,,,,,,,,,,,,,,,,,,,,,,,,3,0.7826,0,10,10,10,1,maelstrom,slander,whirlpool,enmity,armor,majolica,2,,,,,,,,,,,,,,,,,,,,,,,,,,,,,,,,,,,,,,
,,,,,,,,,,,,,,,90439,001,2022-04-28_23h11.00.847,SPAMnetsValid,2021.1.4,MacIntel,59.97361161,,,,,,,,,,,,,,,,,,,,,,,,,,,,,,,,,,,,,,2,1.3169,0,11,11,11,1,tentative,critical,conclusive,authentic,provisional,apprehensive,4,,,,,,,,,,,,,,,,,,,,,,,,,,,,,,,,,,,,,,
,,,,,,,,,,,,,,,90439,001,2022-04-28_23h11.00.847,SPAMnetsValid,2021.1.4,MacIntel,59.97361161,,,,,,,,,,,,,,,,,,,,,,,,,,,,,,,,,,,,,,1,2.9007,0,12,12,12,1,placate,rehabilitate,plagiarize,depredate,apprise,conciliate,5,,,,,,,,,,,,,,,,,,,,,,,,,,,,,,,,,,,,,,
,,,,,,,,,,,,,,,90439,001,2022-04-28_23h11.00.847,SPAMnetsValid,2021.1.4,MacIntel,59.97361161,,,,,,,,,,,,,,,,,,,,,,,,,,,,,,,,,,,,,,2,1.6671,0,13,13,13,1,surcease,enlightenment,cessation,inattention,censor,substitution,2,,,,,,,,,,,,,,,,,,,,,,,,,,,,,,,,,,,,,,
,,,,,,,,,,,,,,,90439,001,2022-04-28_23h11.00.847,SPAMnetsValid,2021.1.4,MacIntel,59.97361161,,,,,,,,,,,,,,,,,,,,,,,,,,,,,,,,,,,,,,3,0.7271,0,14,14,14,1,apathetic,wandering,impassive,hateful,prophetic,overflowing,2,,,,,,,,,,,,,,,,,,,,,,,,,,,,,,,,,,,,,,
,,,,,,,,,,,,,,,90439,001,2022-04-28_23h11.00.847,SPAMnetsValid,2021.1.4,MacIntel,59.97361161,,,,,,,,,,,,,,,,,,,,,,,,,,,,,,,,,,,,,,4,0.6665,0,15,15,15,1,paternoster,paternalism,patricide,malediction,benediction,prayer,5,,,,,,,,,,,,,,,,,,,,,,,,,,,,,,,,,,,,,,
,,,,,,,,,,,,,,,90439,001,2022-04-28_23h11.00.847,SPAMnetsValid,2021.1.4,MacIntel,59.97361161,,,,,,,,,,,,,,,,,,,,,,,,,,,,,,,,,,,,,,5,1.1981,0,16,16,16,1,opalescence,opulence,senescence,bankruptcy,iridescence,assiduity,4,,,,,,,,,,,,,,,,,,,,,,,,,,,,,,,,,,,,,,
,,,,,,,,,,,,,,,90439,001,2022-04-28_23h11.00.847,SPAMnetsValid,2021.1.4,MacIntel,59.97361161,,,,,,,,,,,,,,,,,,,,,,,,,,,,,,,,,,,,,,4,0.6756,0,17,17,17,1,lush,stupid,luxurious,hazy,putrid,languishing,2,,,,,,,,,,,,,,,,,,,,,,,,,,,,,,,,,,,,,,
,,,,,,,,,,,,,,,90439,001,2022-04-28_23h11.00.847,SPAMnetsValid,2021.1.4,MacIntel,59.97361161,,,,,,,,,,,,,,,,,,,,,,,,,,,,,,,,,,,,,,3,0.6794,0,18,18,18,1,curtailment,expenditure,abandonment,abridgment,improvement,forgery,3,,,,,,,,,,,,,,,,,,,,,,,,,,,,,,,,,,,,,,
,,,,,,,,,,,,,,,90439,001,2022-04-28_23h11.00.847,SPAMnetsValid,2021.1.4,MacIntel,59.97361161,,,,,,,,,,,,,,,,,,,,,,,,,,,,,,,,,,,,,,2,1.0503,0,19,19,19,1,perversity,adversity,perviousness,travesty,waywardness,gentility,4,,,,,,,,,,,,,,,,,,,,,,,,,,,,,,,,,,,,,,
,,,,,,,,,,,,,,,90439,001,2022-04-28_23h11.00.847,SPAMnetsValid,2021.1.4,MacIntel,59.97361161,,,,,,,,,,,,,,,,,,,,,,,,,,,,,,,,,,,,,,,,0,20,20,20,1,calumnious,complimentary,analogous,slanderous,tempestuous,magnanimous,3,,,,,,,,,,,,,,,,,,,,,,,,,,,,,,,,,,,,,,
,,,,,,,,,,,,,,,90439,001,2022-04-28_23h11.00.847,SPAMnetsValid,2021.1.4,MacIntel,59.97361161,,,,,,,,,,,,,,,,,,,,,,,,,,,,,,,,,,,,,,,,0,21,21,21,1,illiberality,bigotry,imbecility,illegibility,cautery,immaturity,1,,,,,,,,,,,,,,,,,,,,,,,,,,,,,,,,,,,,,,
,,,,,,,,,,,,,,,90439,001,2022-04-28_23h11.00.847,SPAMnetsValid,2021.1.4,MacIntel,59.97361161,,,,,,,,,,,,,,,,,,,,,,,,,,,,,,,,,,,,,,,,0,22,22,22,1,clabber,rejoice,gossip,curdle,crow,hobble,3,,,,,,,,,,,,,,,,,,,,,,,,,,,,,,,,,,,,,,
,,,,,,,,,,,,,,,90439,001,2022-04-28_23h11.00.847,SPAMnetsValid,2021.1.4,MacIntel,59.97361161,,,,,,,,,,,,,,,,,,,,,,,,,,,,,,,,,,,,,,,,0,23,23,23,1,sedulousness,diligence,credulousness,seduction,perilousness,frankness,1,,,,,,,,,,,,,,,,,,,,,,,,,,,,,,,,,,,,,,
,,,,,,,,,,,,,,,90439,001,2022-04-28_23h11.00.847,SPAMnetsValid,2021.1.4,MacIntel,59.97361161,,,,,,,,,,,,,,,,,,,,,,,,,,,,,,,,,,,,,,,,,,,,,,,,,,,,sleep,pillow,0,0,0,0,1,,,,,,,,,,,,,,,,,,,,,,,,,,,,,,,
,,,,,,,,,,,,,,,90439,001,2022-04-28_23h11.00.847,SPAMnetsValid,2021.1.4,MacIntel,59.97361161,,,,,,,,,,,,,,,,,,,,,,,,,,,,,,,,,,,,,,,,,,,,,,,,,,,,pillow,pillow,1,0,1,0,1,,,,,,,,,,,,,,,,,,,,,,,,,,,,,,,
,,,,,,,,,,,,,,,90439,001,2022-04-28_23h11.00.847,SPAMnetsValid,2021.1.4,MacIntel,59.97361161,,,,,,,,,,,,,,,,,,,,,,,,,,,,,,,,,,,,,,,,,,,,,,,,,,,,sleep,pillow,2,0,2,0,1,,,,,,,,,,,,,,,,,,,,,,,,,,,,,,,
,,,,,,,,,,,,,,,90439,001,2022-04-28_23h11.00.847,SPAMnetsValid,2021.1.4,MacIntel,59.97361161,,,,,,,,,,,,,,,,,,,,,,,,,,,,,,,,,,,,,,,,,,,,,,,,,,,,used for sleep,pillow,3,0,3,0,1,,,,,,,,,,,,,,,,,,,,,,,,,,,,,,,
,,,,,,,,,,,,,,,90439,001,2022-04-28_23h11.00.847,SPAMnetsValid,2021.1.4,MacIntel,59.97361161,,,,,,,,,,,,,,,,,,,,,,,,,,,,,,,,,,,,,,,,,,,,,,,,,,,, c,pillow,4,0,4,0,1,,,,,,,,,,,,,,,,,,,,,,,,,,,,,,,
,,,,,,,,,,,,,,,90439,001,2022-04-28_23h11.00.847,SPAMnetsValid,2021.1.4,MacIntel,59.97361161,,,,,,,,,,,,,,,,,,,,,,,,,,,,,,,,,,,,,,,,,,,,,,,,,,,, fight,pillow,5,0,5,0,1,,,,,,,,,,,,,,,,,,,,,,,,,,,,,,,
,,,,,,,,,,,,,,,90439,001,2022-04-28_23h11.00.847,SPAMnetsValid,2021.1.4,MacIntel,59.97361161,,,,,,,,,,,,,,,,,,,,,,,,,,,,,,,,,,,,,,,,,,,,,,,,,,,,depressed,pillow,6,0,6,0,1,,,,,,,,,,,,,,,,,,,,,,,,,,,,,,,
,,,,,,,,,,,,,,,90439,001,2022-04-28_23h11.00.847,SPAMnetsValid,2021.1.4,MacIntel,59.97361161,,,,,,,,,,,,,,,,,,,,,,,,,,,,,,,,,,,,,,,,,,,,,,,,,,,,  ,pillow,7,0,7,0,1,,,,,,,,,,,,,,,,,,,,,,,,,,,,,,,
,,,,,,,,,,,,,,,90439,001,2022-04-28_23h11.00.847,SPAMnetsValid,2021.1.4,MacIntel,59.97361161,,,,,,,,,,,,,,,,,,,,,,,,,,,,,,,,,,,,,,,,,,,,,,,,,,,,,pillow,8,0,8,0,1,,,,,,,,,,,,,,,,,,,,,,,,,,,,,,,
,,,,,,,,,,,,,,,90439,001,2022-04-28_23h11.00.847,SPAMnetsValid,2021.1.4,MacIntel,59.97361161,,,,,,,,,,,,,,,,,,,,,,,,,,,,,,,,,,,,,,,,,,,,,,,,,,,,,pillow,9,0,9,0,1,,,,,,,,,,,,,,,,,,,,,,,,,,,,,,,
,,,,,,,,,,,,,,,90439,001,2022-04-28_23h11.00.847,SPAMnetsValid,2021.1.4,MacIntel,59.97361161,,,,,,,,,,,,,,,,,,,,,,,,,,,,,,,,,,,,,,,,,,,,,,,,,,,,,pillow,10,0,10,0,1,,,,,,,,,,,,,,,,,,,,,,,,,,,,,,,
,,,,,,,,,,,,,,,90439,001,2022-04-28_23h11.00.847,SPAMnetsValid,2021.1.4,MacIntel,59.97361161,,,,,,,,,,,,,,,,,,,,,,,,,,,,,,,,,,,,,,,,,,,,,,,,,,,,,pillow,11,0,11,0,1,,,,,,,,,,,,,,,,,,,,,,,,,,,,,,,
,,,,,,,,,,,,,,,90439,001,2022-04-28_23h11.00.847,SPAMnetsValid,2021.1.4,MacIntel,59.97361161,,,,,,,,,,,,,,,,,,,,,,,,,,,,,,,,,,,,,,,,,,,,,,,,,,,,,pillow,12,0,12,0,1,,,,,,,,,,,,,,,,,,,,,,,,,,,,,,,
,,,,,,,,,,,,,,,90439,001,2022-04-28_23h11.00.847,SPAMnetsValid,2021.1.4,MacIntel,59.97361161,,,,,,,,,,,,,,,,,,,,,,,,,,,,,,,,,,,,,,,,,,,,,,,,,,,,,pillow,13,0,13,0,1,,,,,,,,,,,,,,,,,,,,,,,,,,,,,,,
,,,,,,,,,,,,,,,90439,001,2022-04-28_23h11.00.847,SPAMnetsValid,2021.1.4,MacIntel,59.97361161,,,,,,,,,,,,,,,,,,,,,,,,,,,,,,,,,,,,,,,,,,,,,,,,,,,,,pillow,14,0,14,0,1,,,,,,,,,,,,,,,,,,,,,,,,,,,,,,,
,,,,,,,,,,,,,,,90439,001,2022-04-28_23h11.00.847,SPAMnetsValid,2021.1.4,MacIntel,59.97361161,,,,,,,,,,,,,,,,,,,,,,,,,,,,,,,,,,,,,,,,,,,,,,,,,,,,,pillow,15,0,15,0,1,,,,,,,,,,,,,,,,,,,,,,,,,,,,,,,
,,,,,,,,,,,,,,,90439,001,2022-04-28_23h11.00.847,SPAMnetsValid,2021.1.4,MacIntel,59.97361161,,,,,,,,,,,,,,,,,,,,,,,,,,,,,,,,,,,,,,,,,,,,,,,,,,,,,pillow,16,0,16,0,1,,,,,,,,,,,,,,,,,,,,,,,,,,,,,,,
,,,,,,,,,,,,,,,90439,001,2022-04-28_23h11.00.847,SPAMnetsValid,2021.1.4,MacIntel,59.97361161,,,,,,,,,,,,,,,,,,,,,,,,,,,,,,,,,,,,,,,,,,,,,,,,,,,,,pillow,17,0,17,0,1,,,,,,,,,,,,,,,,,,,,,,,,,,,,,,,
,,,,,,,,,,,,,,,90439,001,2022-04-28_23h11.00.847,SPAMnetsValid,2021.1.4,MacIntel,59.97361161,,,,,,,,,,,,,,,,,,,,,,,,,,,,,,,,,,,,,,,,,,,,,,,,,,,,,pillow,18,0,18,0,1,,,,,,,,,,,,,,,,,,,,,,,,,,,,,,,
,,,,,,,,,,,,,,,90439,001,2022-04-28_23h11.00.847,SPAMnetsValid,2021.1.4,MacIntel,59.97361161,,,,,,,,,,,,,,,,,,,,,,,,,,,,,,,,,,,,,,,,,,,,,,,,,,,,,pillow,19,0,19,0,1,,,,,,,,,,,,,,,,,,,,,,,,,,,,,,,
,,,,,,,,,,,,,,,90439,001,2022-04-28_23h11.00.847,SPAMnetsValid,2021.1.4,MacIntel,59.97361161,,,,,,,,,,,,,,,,,,,,,,,,,,,,,,,,,,,,,,,,,,,,,,,,,,,,,pillow,20,0,20,0,1,,,,,,,,,,,,,,,,,,,,,,,,,,,,,,,
,,,,,,,,,,,,,,,90439,001,2022-04-28_23h11.00.847,SPAMnetsValid,2021.1.4,MacIntel,59.97361161,,,,,,,,,,,,,,,,,,,,,,,,,,,,,,,,,,,,,,,,,,,,,,,,,,,,,pillow,21,0,21,0,1,,,,,,,,,,,,,,,,,,,,,,,,,,,,,,,
,,,,,,,,,,,,,,,90439,001,2022-04-28_23h11.00.847,SPAMnetsValid,2021.1.4,MacIntel,59.97361161,,,,,,,,,,,,,,,,,,,,,,,,,,,,,,,,,,,,,,,,,,,,,,,,,,,,,pillow,22,0,22,0,1,,,,,,,,,,,,,,,,,,,,,,,,,,,,,,,
,,,,,,,,,,,,,,,90439,001,2022-04-28_23h11.00.847,SPAMnetsValid,2021.1.4,MacIntel,59.97361161,,,,,,,,,,,,,,,,,,,,,,,,,,,,,,,,,,,,,,,,,,,,,,,,,,,,tears,pillow,23,0,23,0,1,,,,,,,,,,,,,,,,,,,,,,,,,,,,,,,
,,,,,,,,,,,,,,,90439,001,2022-04-28_23h11.00.847,SPAMnetsValid,2021.1.4,MacIntel,59.97361161,,,,,,,,,,,,,,,,,,,,,,,,,,,,,,,,,,,,,,,,,,,,,,,,,,,,drink,pillow,24,0,24,0,1,,,,,,,,,,,,,,,,,,,,,,,,,,,,,,,
,,,,,,,,,,,,,,,90439,001,2022-04-28_23h11.00.847,SPAMnetsValid,2021.1.4,MacIntel,59.97361161,,,,,,,,,,,,,,,,,,,,,,,,,,,,,,,,,,,,,,,,,,,,,,,,,,,,eat,pillow,25,0,25,0,1,,,,,,,,,,,,,,,,,,,,,,,,,,,,,,,
,,,,,,,,,,,,,,,90439,001,2022-04-28_23h11.00.847,SPAMnetsValid,2021.1.4,MacIntel,59.97361161,,,,,,,,,,,,,,,,,,,,,,,,,,,,,,,,,,,,,,,,,,,,,,,,,,,,chocolate,pillow,26,0,26,0,1,,,,,,,,,,,,,,,,,,,,,,,,,,,,,,,
,,,,,,,,,,,,,,,90439,001,2022-04-28_23h11.00.847,SPAMnetsValid,2021.1.4,MacIntel,59.97361161,,,,,,,,,,,,,,,,,,,,,,,,,,,,,,,,,,,,,,,,,,,,,,,,,,,,notebook,pillow,27,0,27,0,1,,,,,,,,,,,,,,,,,,,,,,,,,,,,,,,
,,,,,,,,,,,,,,,90439,001,2022-04-28_23h11.00.847,SPAMnetsValid,2021.1.4,MacIntel,59.97361161,,,,,,,,,,,,,,,,,,,,,,,,,,,,,,,,,,,,,,,,,,,,,,,,,,,,secrest,pillow,28,0,28,0,1,,,,,,,,,,,,,,,,,,,,,,,,,,,,,,,
,,,,,,,,,,,,,,,90439,001,2022-04-28_23h11.00.847,SPAMnetsValid,2021.1.4,MacIntel,59.97361161,,,,,,,,,,,,,,,,,,,,,,,,,,,,,,,,,,,,,,,,,,,,,,,,,,,,argue,pillow,29,0,29,0,1,,,,,,,,,,,,,,,,,,,,,,,,,,,,,,,
,,,,,,,,,,,,,,,90439,001,2022-04-28_23h11.00.847,SPAMnetsValid,2021.1.4,MacIntel,59.97361161,,,,,,,,,,,,,,,,,,,,,,,,,,,,,,,,,,,,,,,,,,,,,,,,,,,,hug,pillow,30,0,30,0,1,,,,,,,,,,,,,,,,,,,,,,,,,,,,,,,
,,,,,,,,,,,,,,,90439,001,2022-04-28_23h11.00.847,SPAMnetsValid,2021.1.4,MacIntel,59.97361161,,,,,,,,,,,,,,,,,,,,,,,,,,,,,,,,,,,,,,,,,,,,,,,,,,,,friends,pillow,31,0,31,0,1,,,,,,,,,,,,,,,,,,,,,,,,,,,,,,,
,,,,,,,,,,,,,,,90439,001,2022-04-28_23h11.00.847,SPAMnetsValid,2021.1.4,MacIntel,59.97361161,,,,,,,,,,,,,,,,,,,,,,,,,,,,,,,,,,,,,,,,,,,,,,,,,,,,laughing,pillow,32,0,32,0,1,,,,,,,,,,,,,,,,,,,,,,,,,,,,,,,
,,,,,,,,,,,,,,,90439,001,2022-04-28_23h11.00.847,SPAMnetsValid,2021.1.4,MacIntel,59.97361161,,,,,,,,,,,,,,,,,,,,,,,,,,,,,,,,,,,,,,,,,,,,,,,,,,,,smile,pillow,33,0,33,0,1,,,,,,,,,,,,,,,,,,,,,,,,,,,,,,,
,,,,,,,,,,,,,,,90439,001,2022-04-28_23h11.00.847,SPAMnetsValid,2021.1.4,MacIntel,59.97361161,,,,,,,,,,,,,,,,,,,,,,,,,,,,,,,,,,,,,,,,,,,,,,,,,,,,sad,pillow,34,0,34,0,1,,,,,,,,,,,,,,,,,,,,,,,,,,,,,,,
,,,,,,,,,,,,,,,90439,001,2022-04-28_23h11.00.847,SPAMnetsValid,2021.1.4,MacIntel,59.97361161,,,,,,,,,,,,,,,,,,,,,,,,,,,,,,,,,,,,,,,,,,,,,,,,,,,,break up,pillow,35,0,35,0,1,,,,,,,,,,,,,,,,,,,,,,,,,,,,,,,
,,,,,,,,,,,,,,,90439,001,2022-04-28_23h11.00.847,SPAMnetsValid,2021.1.4,MacIntel,59.97361161,,,,,,,,,,,,,,,,,,,,,,,,,,,,,,,,,,,,,,,,,,,,,,,,,,,,happiness,pillow,36,0,36,0,1,,,,,,,,,,,,,,,,,,,,,,,,,,,,,,,
,,,,,,,,,,,,,,,90439,001,2022-04-28_23h11.00.847,SPAMnetsValid,2021.1.4,MacIntel,59.97361161,,,,,,,,,,,,,,,,,,,,,,,,,,,,,,,,,,,,,,,,,,,,,,,,,,,,forgive,pillow,37,0,37,0,1,,,,,,,,,,,,,,,,,,,,,,,,,,,,,,,
,,,,,,,,,,,,,,,90439,001,2022-04-28_23h11.00.847,SPAMnetsValid,2021.1.4,MacIntel,59.97361161,,,,,,,,,,,,,,,,,,,,,,,,,,,,,,,,,,,,,,,,,,,,,,,,,,,,forget,pillow,38,0,38,0,1,,,,,,,,,,,,,,,,,,,,,,,,,,,,,,,
,,,,,,,,,,,,,,,90439,001,2022-04-28_23h11.00.847,SPAMnetsValid,2021.1.4,MacIntel,59.97361161,,,,,,,,,,,,,,,,,,,,,,,,,,,,,,,,,,,,,,,,,,,,,,,,,,,,boyfriend,pillow,39,0,39,0,1,,,,,,,,,,,,,,,,,,,,,,,,,,,,,,,
,,,,,,,,,,,,,,,90439,001,2022-04-28_23h11.00.847,SPAMnetsValid,2021.1.4,MacIntel,59.97361161,,,,,,,,,,,,,,,,,,,,,,,,,,,,,,,,,,,,,,,,,,,,,,,,,,,,,,,,,,,0,0,0,2,1,pillow,,,,,,,,,,,,,,,,,,,,,,,,,
,,,,,,,,,,,,,,,90439,001,2022-04-28_23h11.00.847,SPAMnetsValid,2021.1.4,MacIntel,59.97361161,,,,,,,,,,,,,,,,,,,,,,,,,,,,,,,,,,,,,,,,,,,,,,,,,,,,fruit,bucket,0,0,0,0,1,,,,,,,,,,,,,,,,,,,,,,,,,,,,,,,
,,,,,,,,,,,,,,,90439,001,2022-04-28_23h11.00.847,SPAMnetsValid,2021.1.4,MacIntel,59.97361161,,,,,,,,,,,,,,,,,,,,,,,,,,,,,,,,,,,,,,,,,,,,,,,,,,,,vegetable,bucket,1,0,1,0,1,,,,,,,,,,,,,,,,,,,,,,,,,,,,,,,
,,,,,,,,,,,,,,,90439,001,2022-04-28_23h11.00.847,SPAMnetsValid,2021.1.4,MacIntel,59.97361161,,,,,,,,,,,,,,,,,,,,,,,,,,,,,,,,,,,,,,,,,,,,,,,,,,,,baby,bucket,2,0,2,0,1,,,,,,,,,,,,,,,,,,,,,,,,,,,,,,,
,,,,,,,,,,,,,,,90439,001,2022-04-28_23h11.00.847,SPAMnetsValid,2021.1.4,MacIntel,59.97361161,,,,,,,,,,,,,,,,,,,,,,,,,,,,,,,,,,,,,,,,,,,,,,,,,,,,toy,bucket,3,0,3,0,1,,,,,,,,,,,,,,,,,,,,,,,,,,,,,,,
,,,,,,,,,,,,,,,90439,001,2022-04-28_23h11.00.847,SPAMnetsValid,2021.1.4,MacIntel,59.97361161,,,,,,,,,,,,,,,,,,,,,,,,,,,,,,,,,,,,,,,,,,,,,,,,,,,,carrot,bucket,4,0,4,0,1,,,,,,,,,,,,,,,,,,,,,,,,,,,,,,,
,,,,,,,,,,,,,,,90439,001,2022-04-28_23h11.00.847,SPAMnetsValid,2021.1.4,MacIntel,59.97361161,,,,,,,,,,,,,,,,,,,,,,,,,,,,,,,,,,,,,,,,,,,,,,,,,,,,chocolate,bucket,5,0,5,0,1,,,,,,,,,,,,,,,,,,,,,,,,,,,,,,,
,,,,,,,,,,,,,,,90439,001,2022-04-28_23h11.00.847,SPAMnetsValid,2021.1.4,MacIntel,59.97361161,,,,,,,,,,,,,,,,,,,,,,,,,,,,,,,,,,,,,,,,,,,,,,,,,,,,strawberry,bucket,6,0,6,0,1,,,,,,,,,,,,,,,,,,,,,,,,,,,,,,,
,,,,,,,,,,,,,,,90439,001,2022-04-28_23h11.00.847,SPAMnetsValid,2021.1.4,MacIntel,59.97361161,,,,,,,,,,,,,,,,,,,,,,,,,,,,,,,,,,,,,,,,,,,,,,,,,,,,banana,bucket,7,0,7,0,1,,,,,,,,,,,,,,,,,,,,,,,,,,,,,,,
,,,,,,,,,,,,,,,90439,001,2022-04-28_23h11.00.847,SPAMnetsValid,2021.1.4,MacIntel,59.97361161,,,,,,,,,,,,,,,,,,,,,,,,,,,,,,,,,,,,,,,,,,,,,,,,,,,,sea,bucket,8,0,8,0,1,,,,,,,,,,,,,,,,,,,,,,,,,,,,,,,
,,,,,,,,,,,,,,,90439,001,2022-04-28_23h11.00.847,SPAMnetsValid,2021.1.4,MacIntel,59.97361161,,,,,,,,,,,,,,,,,,,,,,,,,,,,,,,,,,,,,,,,,,,,,,,,,,,,beach,bucket,9,0,9,0,1,,,,,,,,,,,,,,,,,,,,,,,,,,,,,,,
,,,,,,,,,,,,,,,90439,001,2022-04-28_23h11.00.847,SPAMnetsValid,2021.1.4,MacIntel,59.97361161,,,,,,,,,,,,,,,,,,,,,,,,,,,,,,,,,,,,,,,,,,,,,,,,,,,,sand,bucket,10,0,10,0,1,,,,,,,,,,,,,,,,,,,,,,,,,,,,,,,
,,,,,,,,,,,,,,,90439,001,2022-04-28_23h11.00.847,SPAMnetsValid,2021.1.4,MacIntel,59.97361161,,,,,,,,,,,,,,,,,,,,,,,,,,,,,,,,,,,,,,,,,,,,,,,,,,,,playing,bucket,11,0,11,0,1,,,,,,,,,,,,,,,,,,,,,,,,,,,,,,,
,,,,,,,,,,,,,,,90439,001,2022-04-28_23h11.00.847,SPAMnetsValid,2021.1.4,MacIntel,59.97361161,,,,,,,,,,,,,,,,,,,,,,,,,,,,,,,,,,,,,,,,,,,,,,,,,,,,girls,bucket,12,0,12,0,1,,,,,,,,,,,,,,,,,,,,,,,,,,,,,,,
,,,,,,,,,,,,,,,90439,001,2022-04-28_23h11.00.847,SPAMnetsValid,2021.1.4,MacIntel,59.97361161,,,,,,,,,,,,,,,,,,,,,,,,,,,,,,,,,,,,,,,,,,,,,,,,,,,,,,,,,,,0,1,1,0,1,bucket,,,,,,,,,,,,,,,,,,,,,,,,,
,,,,,,,,,,,,,,,90439,001,2022-04-28_23h11.00.847,SPAMnetsValid,2021.1.4,MacIntel,59.97361161,,,,,,,,,,,,,,,,,,,,,,,,,,,,,,,,,,,,,,,,,,,,,,,,,,,,sex,candle,0,0,0,0,1,,,,,,,,,,,,,,,,,,,,,,,,,,,,,,,
,,,,,,,,,,,,,,,90439,001,2022-04-28_23h11.00.847,SPAMnetsValid,2021.1.4,MacIntel,59.97361161,,,,,,,,,,,,,,,,,,,,,,,,,,,,,,,,,,,,,,,,,,,,,,,,,,,,lighting up,candle,1,0,1,0,1,,,,,,,,,,,,,,,,,,,,,,,,,,,,,,,
,,,,,,,,,,,,,,,90439,001,2022-04-28_23h11.00.847,SPAMnetsValid,2021.1.4,MacIntel,59.97361161,,,,,,,,,,,,,,,,,,,,,,,,,,,,,,,,,,,,,,,,,,,,,,,,,,,,decoration,candle,2,0,2,0,1,,,,,,,,,,,,,,,,,,,,,,,,,,,,,,,
,,,,,,,,,,,,,,,90439,001,2022-04-28_23h11.00.847,SPAMnetsValid,2021.1.4,MacIntel,59.97361161,,,,,,,,,,,,,,,,,,,,,,,,,,,,,,,,,,,,,,,,,,,,,,,,,,,,bath,candle,3,0,3,0,1,,,,,,,,,,,,,,,,,,,,,,,,,,,,,,,
,,,,,,,,,,,,,,,90439,001,2022-04-28_23h11.00.847,SPAMnetsValid,2021.1.4,MacIntel,59.97361161,,,,,,,,,,,,,,,,,,,,,,,,,,,,,,,,,,,,,,,,,,,,,,,,,,,,to test if egg is still able to eat,candle,4,0,4,0,1,,,,,,,,,,,,,,,,,,,,,,,,,,,,,,,
,,,,,,,,,,,,,,,90439,001,2022-04-28_23h11.00.847,SPAMnetsValid,2021.1.4,MacIntel,59.97361161,,,,,,,,,,,,,,,,,,,,,,,,,,,,,,,,,,,,,,,,,,,,,,,,,,,,how much water do i have in the bottle,candle,5,0,5,0,1,,,,,,,,,,,,,,,,,,,,,,,,,,,,,,,
,,,,,,,,,,,,,,,90439,001,2022-04-28_23h11.00.847,SPAMnetsValid,2021.1.4,MacIntel,59.97361161,,,,,,,,,,,,,,,,,,,,,,,,,,,,,,,,,,,,,,,,,,,,,,,,,,,,physical experiments,candle,6,0,6,0,1,,,,,,,,,,,,,,,,,,,,,,,,,,,,,,,
,,,,,,,,,,,,,,,90439,001,2022-04-28_23h11.00.847,SPAMnetsValid,2021.1.4,MacIntel,59.97361161,,,,,,,,,,,,,,,,,,,,,,,,,,,,,,,,,,,,,,,,,,,,,,,,,,,,chemical experiments,candle,7,0,7,0,1,,,,,,,,,,,,,,,,,,,,,,,,,,,,,,,
,,,,,,,,,,,,,,,90439,001,2022-04-28_23h11.00.847,SPAMnetsValid,2021.1.4,MacIntel,59.97361161,,,,,,,,,,,,,,,,,,,,,,,,,,,,,,,,,,,,,,,,,,,,,,,,,,,,cook,candle,8,0,8,0,1,,,,,,,,,,,,,,,,,,,,,,,,,,,,,,,
,,,,,,,,,,,,,,,90439,001,2022-04-28_23h11.00.847,SPAMnetsValid,2021.1.4,MacIntel,59.97361161,,,,,,,,,,,,,,,,,,,,,,,,,,,,,,,,,,,,,,,,,,,,,,,,,,,,,,,,,,,0,2,2,1,1,candle,,,,,,,,,,,,,,,,,,,,,,,,,
,,,,,,,,,,,,,,,90439,001,2022-04-28_23h11.00.847,SPAMnetsValid,2021.1.4,MacIntel,59.97361161,,,,,,,,,,,,,,,,,,,,,,,,,,,,,,,,,,,,,,,,,,,,,,,,,,,,,,,,,,,,,,,,,elephant dog cat horse bat giraff chimpanzee butterfly birds monkey hippo rhinoceros,Animals,0,0,0,0,1,,,,,,,,,,,,,,,,,,
,,,,,,,,,,,,,,,90439,001,2022-04-28_23h11.00.847,SPAMnetsValid,2021.1.4,MacIntel,59.97361161,,,,,,,,,,,,,,,,,,,,,,,,,,,,,,,,,,,,,,,,,,,,,,,,,,,,,,,,,,,,,,,,,,,,,,,,0,0,0,0,1,Animals,,,,,,,,,,,,
,,,,,,,,,,,,,,,90439,001,2022-04-28_23h11.00.847,SPAMnetsValid,2021.1.4,MacIntel,59.97361161,,,,,,,,,,,,,,,,,,,,,,,,,,,,,,,,,,,,,,,,,,,,,,,,,,,,,,,,,,,,,,,,,,,,,,,,,,,,,,3,14.1797,0,0,0,0,1,"I enjoy concentrating on a fantasy or daydream and exploring all its possibilities, letting it grow and develop.",0,1,,
,,,,,,,,,,,,,,,90439,001,2022-04-28_23h11.00.847,SPAMnetsValid,2021.1.4,MacIntel,59.97361161,,,,,,,,,,,,,,,,,,,,,,,,,,,,,,,,,,,,,,,,,,,,,,,,,,,,,,,,,,,,,,,,,,,,,,,,,,,,,,5,4.6184,0,1,1,1,1,I think it's interesting to learn and develop new hobbies.,0,2,,
,,,,,,,,,,,,,,,90439,001,2022-04-28_23h11.00.847,SPAMnetsValid,2021.1.4,MacIntel,59.97361161,,,,,,,,,,,,,,,,,,,,,,,,,,,,,,,,,,,,,,,,,,,,,,,,,,,,,,,,,,,,,,,,,,,,,,,,,,,,,,4,6.9557,0,2,2,2,1,I am intrigued by the patterns I find in art and nature.,0,3,,
,,,,,,,,,,,,,,,90439,001,2022-04-28_23h11.00.847,SPAMnetsValid,2021.1.4,MacIntel,59.97361161,,,,,,,,,,,,,,,,,,,,,,,,,,,,,,,,,,,,,,,,,,,,,,,,,,,,,,,,,,,,,,,,,,,,,,,,,,,,,,1,5.3859,0,3,3,3,1,I believe letting students hear controversial speakers can only confuse and mislead them.,1,4,,
,,,,,,,,,,,,,,,90439,001,2022-04-28_23h11.00.847,SPAMnetsValid,2021.1.4,MacIntel,59.97361161,,,,,,,,,,,,,,,,,,,,,,,,,,,,,,,,,,,,,,,,,,,,,,,,,,,,,,,,,,,,,,,,,,,,,,,,,,,,,,5,5.168,0,4,4,4,1,Poetry has little or no effect on me.,1,5,,
,,,,,,,,,,,,,,,90439,001,2022-04-28_23h11.00.847,SPAMnetsValid,2021.1.4,MacIntel,59.97361161,,,,,,,,,,,,,,,,,,,,,,,,,,,,,,,,,,,,,,,,,,,,,,,,,,,,,,,,,,,,,,,,,,,,,,,,,,,,,,4,10.3885,0,5,5,5,1,I would have difficulty just letting my mind wander without control or guidance.,1,6,,
,,,,,,,,,,,,,,,90439,001,2022-04-28_23h11.00.847,SPAMnetsValid,2021.1.4,MacIntel,59.97361161,,,,,,,,,,,,,,,,,,,,,,,,,,,,,,,,,,,,,,,,,,,,,,,,,,,,,,,,,,,,,,,,,,,,,,,,,,,,,,2,5.7974,0,6,6,6,1,I seldom notice the moods or feelings that different environments produce.,1,7,,
,,,,,,,,,,,,,,,90439,001,2022-04-28_23h11.00.847,SPAMnetsValid,2021.1.4,MacIntel,59.97361161,,,,,,,,,,,,,,,,,,,,,,,,,,,,,,,,,,,,,,,,,,,,,,,,,,,,,,,,,,,,,,,,,,,,,,,,,,,,,,5,2.6343,0,7,7,7,1,I experience a wide range of emotions or feelings.,0,8,,
,,,,,,,,,,,,,,,90439,001,2022-04-28_23h11.00.847,SPAMnetsValid,2021.1.4,MacIntel,59.97361161,,,,,,,,,,,,,,,,,,,,,,,,,,,,,,,,,,,,,,,,,,,,,,,,,,,,,,,,,,,,,,,,,,,,,,,,,,,,,,3,4.5688,0,8,8,8,1,"Sometimes when I am reading poetry or looking at a work of art, I feel a chill or wave of excitement.",0,9,,
,,,,,,,,,,,,,,,90439,001,2022-04-28_23h11.00.847,SPAMnetsValid,2021.1.4,MacIntel,59.97361161,,,,,,,,,,,,,,,,,,,,,,,,,,,,,,,,,,,,,,,,,,,,,,,,,,,,,,,,,,,,,,,,,,,,,,,,,,,,,,1,5.1021,0,9,9,9,1,I have little interest in speculating on the nature of the universe or the human condition.,1,10,,
,,,,,,,,,,,,,,,90439,001,2022-04-28_23h11.00.847,SPAMnetsValid,2021.1.4,MacIntel,59.97361161,,,,,,,,,,,,,,,,,,,,,,,,,,,,,,,,,,,,,,,,,,,,,,,,,,,,,,,,,,,,,,,,,,,,,,,,,,,,,,4,3.5664,0,10,10,10,1,I have a lot of intellectual curiosity.,0,11,,
,,,,,,,,,,,,,,,90439,001,2022-04-28_23h11.00.847,SPAMnetsValid,2021.1.4,MacIntel,59.97361161,,,,,,,,,,,,,,,,,,,,,,,,,,,,,,,,,,,,,,,,,,,,,,,,,,,,,,,,,,,,,,,,,,,,,,,,,,,,,,3,5.3029,0,11,11,11,1,I often enjoy playing with theories or abstract ideas.,0,12,,
,,,,,,,,,,,,,,,90439,001,2022-04-28_23h11.00.847,SPAMnetsValid,2021.1.4,MacIntel,59.97361161,,,,,,,,,,,,,,,,,,,,,,,,,,,,,,,,,,,,,,,,,,,,,,,,,,,,,,,,,,,,,,,,,,,,,,,,,,,,,,,,,,,,,,,,return,7.7054
