key_resp_3.keys,key_resp_3.rt,slider.response,slider.rt,rjt_rating,rjt_RT,trials_22.thisRepN,trials_22.thisTrialN,trials_22.thisN,trials_22.thisIndex,trials_22.ran,rjt_order,word1,word2,attention,participant,session,date,expName,psychopyVersion,OS,frameRate,trials_99.thisRepN,trials_99.thisTrialN,trials_99.thisN,trials_99.thisIndex,trials_99.ran,trials_5.thisRepN,trials_5.thisTrialN,trials_5.thisN,trials_5.thisIndex,trials_5.ran,repOne,repTwo,slider_2.response,slider_2.rt,trials_24.thisRepN,trials_24.thisTrialN,trials_24.thisN,trials_24.thisIndex,trials_24.ran,trials_4.thisRepN,trials_4.thisTrialN,trials_4.thisN,trials_4.thisIndex,trials_4.ran,slider_extend_2.response,slider_extend_2.rt,trials_6.thisRepN,trials_6.thisTrialN,trials_6.thisN,trials_6.thisIndex,trials_6.ran,vCue2,R1,R2,R3,R4,correct,sliderVocab.response,sliderVocab.rt,trials_7.thisRepN,trials_7.thisTrialN,trials_7.thisN,trials_7.thisIndex,trials_7.ran,VocabCue,VR1,VR2,VR3,VR4,VR5,VocabCorrect,AUT_resp,AUT_label,trials.thisRepN,trials.thisTrialN,trials.thisN,trials.thisIndex,trials.ran,trials_2.thisRepN,trials_2.thisTrialN,trials_2.thisN,trials_2.thisIndex,trials_2.ran,aut_prompt,VF_response,VF_tag,trials_16.thisRepN,trials_16.thisTrialN,trials_16.thisN,trials_16.thisIndex,trials_16.ran,trials_17.thisRepN,trials_17.thisTrialN,trials_17.thisN,trials_17.thisIndex,trials_17.ran,VFcond,open_slider.response,open_slider.rt,trials_3.thisRepN,trials_3.thisTrialN,trials_3.thisN,trials_3.thisIndex,trials_3.ran,OpenQ,Rev,OPEN_ORDER,key_resp_2.keys,key_resp_2.rt
return,7.838,6,6.966,6,6.966,0,0,0,23,1,65,broom,garden,,90441,001,2022-04-24_17h53.29.893,SPAMnetsValid,2021.1.4,MacIntel,55.55555556,,,,,,,,,,,,,,,,,,,,,,,,,,,,,,,,,,,,,,,,,,,,,,,,,,,,,,,,,,,,,,,,,,,,,,,,,,,,,,,,,,,,,,,,,
,,8,2.131,8,2.131,0,1,1,24,1,17,carrot,melon,,90441,001,2022-04-24_17h53.29.893,SPAMnetsValid,2021.1.4,MacIntel,55.55555556,,,,,,,,,,,,,,,,,,,,,,,,,,,,,,,,,,,,,,,,,,,,,,,,,,,,,,,,,,,,,,,,,,,,,,,,,,,,,,,,,,,,,,,,,
,,8,2.447,8,2.447,0,2,2,42,1,77,refrigerator,yogurt,,90441,001,2022-04-24_17h53.29.893,SPAMnetsValid,2021.1.4,MacIntel,55.55555556,,,,,,,,,,,,,,,,,,,,,,,,,,,,,,,,,,,,,,,,,,,,,,,,,,,,,,,,,,,,,,,,,,,,,,,,,,,,,,,,,,,,,,,,,
,,4,4.926,4,4.926,0,3,3,60,1,89,chocolate,rose,,90441,001,2022-04-24_17h53.29.893,SPAMnetsValid,2021.1.4,MacIntel,55.55555556,,,,,,,,,,,,,,,,,,,,,,,,,,,,,,,,,,,,,,,,,,,,,,,,,,,,,,,,,,,,,,,,,,,,,,,,,,,,,,,,,,,,,,,,,
,,2,2.578,2,2.578,0,4,4,13,1,26,tomato,yogurt,,90441,001,2022-04-24_17h53.29.893,SPAMnetsValid,2021.1.4,MacIntel,55.55555556,,,,,,,,,,,,,,,,,,,,,,,,,,,,,,,,,,,,,,,,,,,,,,,,,,,,,,,,,,,,,,,,,,,,,,,,,,,,,,,,,,,,,,,,,
,,7,2.365,7,2.365,0,5,5,11,1,37,garden,refrigerator,,90441,001,2022-04-24_17h53.29.893,SPAMnetsValid,2021.1.4,MacIntel,55.55555556,,,,,,,,,,,,,,,,,,,,,,,,,,,,,,,,,,,,,,,,,,,,,,,,,,,,,,,,,,,,,,,,,,,,,,,,,,,,,,,,,,,,,,,,,
,,6,1.863,6,1.863,0,6,6,38,1,88,cactus,melon,,90441,001,2022-04-24_17h53.29.893,SPAMnetsValid,2021.1.4,MacIntel,55.55555556,,,,,,,,,,,,,,,,,,,,,,,,,,,,,,,,,,,,,,,,,,,,,,,,,,,,,,,,,,,,,,,,,,,,,,,,,,,,,,,,,,,,,,,,,
,,9,3.625,9,3.625,0,7,7,64,1,9,kitchen,refrigerator,,90441,001,2022-04-24_17h53.29.893,SPAMnetsValid,2021.1.4,MacIntel,55.55555556,,,,,,,,,,,,,,,,,,,,,,,,,,,,,,,,,,,,,,,,,,,,,,,,,,,,,,,,,,,,,,,,,,,,,,,,,,,,,,,,,,,,,,,,,
,,8,2.576,8,2.576,0,8,8,19,1,76,garden,rose,,90441,001,2022-04-24_17h53.29.893,SPAMnetsValid,2021.1.4,MacIntel,55.55555556,,,,,,,,,,,,,,,,,,,,,,,,,,,,,,,,,,,,,,,,,,,,,,,,,,,,,,,,,,,,,,,,,,,,,,,,,,,,,,,,,,,,,,,,,
,,4,3.431,4,3.431,0,9,9,62,1,18,onion,refrigerator,,90441,001,2022-04-24_17h53.29.893,SPAMnetsValid,2021.1.4,MacIntel,55.55555556,,,,,,,,,,,,,,,,,,,,,,,,,,,,,,,,,,,,,,,,,,,,,,,,,,,,,,,,,,,,,,,,,,,,,,,,,,,,,,,,,,,,,,,,,
,,1,2.527,1,2.527,0,10,10,25,1,23,flower,microwave,,90441,001,2022-04-24_17h53.29.893,SPAMnetsValid,2021.1.4,MacIntel,55.55555556,,,,,,,,,,,,,,,,,,,,,,,,,,,,,,,,,,,,,,,,,,,,,,,,,,,,,,,,,,,,,,,,,,,,,,,,,,,,,,,,,,,,,,,,,
,,7,3.041,7,3.041,0,11,11,39,1,15,onion,oven,,90441,001,2022-04-24_17h53.29.893,SPAMnetsValid,2021.1.4,MacIntel,55.55555556,,,,,,,,,,,,,,,,,,,,,,,,,,,,,,,,,,,,,,,,,,,,,,,,,,,,,,,,,,,,,,,,,,,,,,,,,,,,,,,,,,,,,,,,,
,,4,4.362,4,4.362,0,12,12,5,1,13,broom,yogurt,,90441,001,2022-04-24_17h53.29.893,SPAMnetsValid,2021.1.4,MacIntel,55.55555556,,,,,,,,,,,,,,,,,,,,,,,,,,,,,,,,,,,,,,,,,,,,,,,,,,,,,,,,,,,,,,,,,,,,,,,,,,,,,,,,,,,,,,,,,
,,4,2.047,4,2.047,0,13,13,17,1,27,cactus,cookie,,90441,001,2022-04-24_17h53.29.893,SPAMnetsValid,2021.1.4,MacIntel,55.55555556,,,,,,,,,,,,,,,,,,,,,,,,,,,,,,,,,,,,,,,,,,,,,,,,,,,,,,,,,,,,,,,,,,,,,,,,,,,,,,,,,,,,,,,,,
,,8,4.728,8,4.728,0,14,14,29,1,42,garden,kitchen,,90441,001,2022-04-24_17h53.29.893,SPAMnetsValid,2021.1.4,MacIntel,55.55555556,,,,,,,,,,,,,,,,,,,,,,,,,,,,,,,,,,,,,,,,,,,,,,,,,,,,,,,,,,,,,,,,,,,,,,,,,,,,,,,,,,,,,,,,,
,,8,1.726,8,1.726,0,15,15,58,1,94,kitchen,microwave,,90441,001,2022-04-24_17h53.29.893,SPAMnetsValid,2021.1.4,MacIntel,55.55555556,,,,,,,,,,,,,,,,,,,,,,,,,,,,,,,,,,,,,,,,,,,,,,,,,,,,,,,,,,,,,,,,,,,,,,,,,,,,,,,,,,,,,,,,,
,,1,2.026,1,2.026,0,16,16,7,1,34,melon,oven,,90441,001,2022-04-24_17h53.29.893,SPAMnetsValid,2021.1.4,MacIntel,55.55555556,,,,,,,,,,,,,,,,,,,,,,,,,,,,,,,,,,,,,,,,,,,,,,,,,,,,,,,,,,,,,,,,,,,,,,,,,,,,,,,,,,,,,,,,,
,,6,2.777,6,2.777,0,17,17,2,1,22,kitchen,strawberry,,90441,001,2022-04-24_17h53.29.893,SPAMnetsValid,2021.1.4,MacIntel,55.55555556,,,,,,,,,,,,,,,,,,,,,,,,,,,,,,,,,,,,,,,,,,,,,,,,,,,,,,,,,,,,,,,,,,,,,,,,,,,,,,,,,,,,,,,,,
,,1,1.962,1,1.962,0,18,18,68,1,24,cookie,tomato,,90441,001,2022-04-24_17h53.29.893,SPAMnetsValid,2021.1.4,MacIntel,55.55555556,,,,,,,,,,,,,,,,,,,,,,,,,,,,,,,,,,,,,,,,,,,,,,,,,,,,,,,,,,,,,,,,,,,,,,,,,,,,,,,,,,,,,,,,,
,,6,2.311,6,2.311,0,19,19,83,1,6,garden,onion,,90441,001,2022-04-24_17h53.29.893,SPAMnetsValid,2021.1.4,MacIntel,55.55555556,,,,,,,,,,,,,,,,,,,,,,,,,,,,,,,,,,,,,,,,,,,,,,,,,,,,,,,,,,,,,,,,,,,,,,,,,,,,,,,,,,,,,,,,,
,,7,2.331,7,2.331,0,20,20,37,1,58,garden,oven,,90441,001,2022-04-24_17h53.29.893,SPAMnetsValid,2021.1.4,MacIntel,55.55555556,,,,,,,,,,,,,,,,,,,,,,,,,,,,,,,,,,,,,,,,,,,,,,,,,,,,,,,,,,,,,,,,,,,,,,,,,,,,,,,,,,,,,,,,,
,,6,2.56,6,2.56,0,21,21,36,1,12,cookie,yogurt,,90441,001,2022-04-24_17h53.29.893,SPAMnetsValid,2021.1.4,MacIntel,55.55555556,,,,,,,,,,,,,,,,,,,,,,,,,,,,,,,,,,,,,,,,,,,,,,,,,,,,,,,,,,,,,,,,,,,,,,,,,,,,,,,,,,,,,,,,,
,,5,3.927,5,3.927,0,22,22,22,1,16,chocolate,flower,,90441,001,2022-04-24_17h53.29.893,SPAMnetsValid,2021.1.4,MacIntel,55.55555556,,,,,,,,,,,,,,,,,,,,,,,,,,,,,,,,,,,,,,,,,,,,,,,,,,,,,,,,,,,,,,,,,,,,,,,,,,,,,,,,,,,,,,,,,
,,7,2.357,7,2.357,0,23,23,80,1,61,strawberry,tomato,,90441,001,2022-04-24_17h53.29.893,SPAMnetsValid,2021.1.4,MacIntel,55.55555556,,,,,,,,,,,,,,,,,,,,,,,,,,,,,,,,,,,,,,,,,,,,,,,,,,,,,,,,,,,,,,,,,,,,,,,,,,,,,,,,,,,,,,,,,
,,7,1.963,7,1.963,0,24,24,51,1,47,onion,tomato,,90441,001,2022-04-24_17h53.29.893,SPAMnetsValid,2021.1.4,MacIntel,55.55555556,,,,,,,,,,,,,,,,,,,,,,,,,,,,,,,,,,,,,,,,,,,,,,,,,,,,,,,,,,,,,,,,,,,,,,,,,,,,,,,,,,,,,,,,,
,,1,2.142,1,2.142,0,25,25,88,1,92,broom,flower,,90441,001,2022-04-24_17h53.29.893,SPAMnetsValid,2021.1.4,MacIntel,55.55555556,,,,,,,,,,,,,,,,,,,,,,,,,,,,,,,,,,,,,,,,,,,,,,,,,,,,,,,,,,,,,,,,,,,,,,,,,,,,,,,,,,,,,,,,,
,,1,1.699,1,1.699,0,26,26,31,1,33,oven,yogurt,,90441,001,2022-04-24_17h53.29.893,SPAMnetsValid,2021.1.4,MacIntel,55.55555556,,,,,,,,,,,,,,,,,,,,,,,,,,,,,,,,,,,,,,,,,,,,,,,,,,,,,,,,,,,,,,,,,,,,,,,,,,,,,,,,,,,,,,,,,
,,7,2.145,7,2.145,0,27,27,87,1,79,garden,strawberry,,90441,001,2022-04-24_17h53.29.893,SPAMnetsValid,2021.1.4,MacIntel,55.55555556,,,,,,,,,,,,,,,,,,,,,,,,,,,,,,,,,,,,,,,,,,,,,,,,,,,,,,,,,,,,,,,,,,,,,,,,,,,,,,,,,,,,,,,,,
,,6,6.134,6,6.134,0,28,28,94,1,68,flower,tomato,,90441,001,2022-04-24_17h53.29.893,SPAMnetsValid,2021.1.4,MacIntel,55.55555556,,,,,,,,,,,,,,,,,,,,,,,,,,,,,,,,,,,,,,,,,,,,,,,,,,,,,,,,,,,,,,,,,,,,,,,,,,,,,,,,,,,,,,,,,
,,1,1.965,1,1.965,0,29,29,4,1,83,broom,carrot,,90441,001,2022-04-24_17h53.29.893,SPAMnetsValid,2021.1.4,MacIntel,55.55555556,,,,,,,,,,,,,,,,,,,,,,,,,,,,,,,,,,,,,,,,,,,,,,,,,,,,,,,,,,,,,,,,,,,,,,,,,,,,,,,,,,,,,,,,,
,,7,1.945,7,1.945,0,30,30,78,1,30,cookie,pretzel,,90441,001,2022-04-24_17h53.29.893,SPAMnetsValid,2021.1.4,MacIntel,55.55555556,,,,,,,,,,,,,,,,,,,,,,,,,,,,,,,,,,,,,,,,,,,,,,,,,,,,,,,,,,,,,,,,,,,,,,,,,,,,,,,,,,,,,,,,,
,,6,3.928,6,3.928,0,31,31,91,1,2,kitchen,onion,,90441,001,2022-04-24_17h53.29.893,SPAMnetsValid,2021.1.4,MacIntel,55.55555556,,,,,,,,,,,,,,,,,,,,,,,,,,,,,,,,,,,,,,,,,,,,,,,,,,,,,,,,,,,,,,,,,,,,,,,,,,,,,,,,,,,,,,,,,
,,8,1.995,8,1.995,0,32,32,30,1,3,cake,oven,,90441,001,2022-04-24_17h53.29.893,SPAMnetsValid,2021.1.4,MacIntel,55.55555556,,,,,,,,,,,,,,,,,,,,,,,,,,,,,,,,,,,,,,,,,,,,,,,,,,,,,,,,,,,,,,,,,,,,,,,,,,,,,,,,,,,,,,,,,
,,1,3.928,1,3.928,0,33,33,26,1,35,flower,pretzel,,90441,001,2022-04-24_17h53.29.893,SPAMnetsValid,2021.1.4,MacIntel,55.55555556,,,,,,,,,,,,,,,,,,,,,,,,,,,,,,,,,,,,,,,,,,,,,,,,,,,,,,,,,,,,,,,,,,,,,,,,,,,,,,,,,,,,,,,,,
,,2,2.994,2,2.994,0,34,34,41,1,19,microwave,pretzel,,90441,001,2022-04-24_17h53.29.893,SPAMnetsValid,2021.1.4,MacIntel,55.55555556,,,,,,,,,,,,,,,,,,,,,,,,,,,,,,,,,,,,,,,,,,,,,,,,,,,,,,,,,,,,,,,,,,,,,,,,,,,,,,,,,,,,,,,,,
,,1,2.349,1,2.349,0,35,35,85,1,90,cactus,cake,,90441,001,2022-04-24_17h53.29.893,SPAMnetsValid,2021.1.4,MacIntel,55.55555556,,,,,,,,,,,,,,,,,,,,,,,,,,,,,,,,,,,,,,,,,,,,,,,,,,,,,,,,,,,,,,,,,,,,,,,,,,,,,,,,,,,,,,,,,
,,8,2.495,8,2.495,0,36,36,76,1,36,broom,kitchen,,90441,001,2022-04-24_17h53.29.893,SPAMnetsValid,2021.1.4,MacIntel,55.55555556,,,,,,,,,,,,,,,,,,,,,,,,,,,,,,,,,,,,,,,,,,,,,,,,,,,,,,,,,,,,,,,,,,,,,,,,,,,,,,,,,,,,,,,,,
,,9,1.725,9,1.725,0,37,37,53,1,192,microwave,microwave,CHECK,90441,001,2022-04-24_17h53.29.893,SPAMnetsValid,2021.1.4,MacIntel,55.55555556,,,,,,,,,,,,,,,,,,,,,,,,,,,,,,,,,,,,,,,,,,,,,,,,,,,,,,,,,,,,,,,,,,,,,,,,,,,,,,,,,,,,,,,,,
,,9,2.228,9,2.228,0,38,38,82,1,93,kitchen,oven,,90441,001,2022-04-24_17h53.29.893,SPAMnetsValid,2021.1.4,MacIntel,55.55555556,,,,,,,,,,,,,,,,,,,,,,,,,,,,,,,,,,,,,,,,,,,,,,,,,,,,,,,,,,,,,,,,,,,,,,,,,,,,,,,,,,,,,,,,,
,,5,4.211,5,4.211,0,39,39,66,1,20,rose,tree,,90441,001,2022-04-24_17h53.29.893,SPAMnetsValid,2021.1.4,MacIntel,55.55555556,,,,,,,,,,,,,,,,,,,,,,,,,,,,,,,,,,,,,,,,,,,,,,,,,,,,,,,,,,,,,,,,,,,,,,,,,,,,,,,,,,,,,,,,,
,,5,2.061,5,2.061,0,40,40,75,1,69,carrot,refrigerator,,90441,001,2022-04-24_17h53.29.893,SPAMnetsValid,2021.1.4,MacIntel,55.55555556,,,,,,,,,,,,,,,,,,,,,,,,,,,,,,,,,,,,,,,,,,,,,,,,,,,,,,,,,,,,,,,,,,,,,,,,,,,,,,,,,,,,,,,,,
,,6,2.98,6,2.98,0,41,41,49,1,57,flower,kitchen,,90441,001,2022-04-24_17h53.29.893,SPAMnetsValid,2021.1.4,MacIntel,55.55555556,,,,,,,,,,,,,,,,,,,,,,,,,,,,,,,,,,,,,,,,,,,,,,,,,,,,,,,,,,,,,,,,,,,,,,,,,,,,,,,,,,,,,,,,,
,,1,3.061,1,3.061,0,42,42,27,1,72,broom,onion,,90441,001,2022-04-24_17h53.29.893,SPAMnetsValid,2021.1.4,MacIntel,55.55555556,,,,,,,,,,,,,,,,,,,,,,,,,,,,,,,,,,,,,,,,,,,,,,,,,,,,,,,,,,,,,,,,,,,,,,,,,,,,,,,,,,,,,,,,,
,,3,3.433,3,3.433,0,43,43,89,1,80,chocolate,tree,,90441,001,2022-04-24_17h53.29.893,SPAMnetsValid,2021.1.4,MacIntel,55.55555556,,,,,,,,,,,,,,,,,,,,,,,,,,,,,,,,,,,,,,,,,,,,,,,,,,,,,,,,,,,,,,,,,,,,,,,,,,,,,,,,,,,,,,,,,
,,5,3.909,5,3.909,0,44,44,90,1,95,broom,refrigerator,,90441,001,2022-04-24_17h53.29.893,SPAMnetsValid,2021.1.4,MacIntel,55.55555556,,,,,,,,,,,,,,,,,,,,,,,,,,,,,,,,,,,,,,,,,,,,,,,,,,,,,,,,,,,,,,,,,,,,,,,,,,,,,,,,,,,,,,,,,
,,9,3.027,9,3.027,0,45,45,93,1,63,cake,cookie,,90441,001,2022-04-24_17h53.29.893,SPAMnetsValid,2021.1.4,MacIntel,55.55555556,,,,,,,,,,,,,,,,,,,,,,,,,,,,,,,,,,,,,,,,,,,,,,,,,,,,,,,,,,,,,,,,,,,,,,,,,,,,,,,,,,,,,,,,,
,,3,2.677,3,2.677,0,46,46,14,1,64,chocolate,garden,,90441,001,2022-04-24_17h53.29.893,SPAMnetsValid,2021.1.4,MacIntel,55.55555556,,,,,,,,,,,,,,,,,,,,,,,,,,,,,,,,,,,,,,,,,,,,,,,,,,,,,,,,,,,,,,,,,,,,,,,,,,,,,,,,,,,,,,,,,
,,2,1.993,2,1.993,0,47,47,54,1,28,cake,melon,,90441,001,2022-04-24_17h53.29.893,SPAMnetsValid,2021.1.4,MacIntel,55.55555556,,,,,,,,,,,,,,,,,,,,,,,,,,,,,,,,,,,,,,,,,,,,,,,,,,,,,,,,,,,,,,,,,,,,,,,,,,,,,,,,,,,,,,,,,
,,2,1.676,2,1.676,0,48,48,48,1,66,melon,yogurt,,90441,001,2022-04-24_17h53.29.893,SPAMnetsValid,2021.1.4,MacIntel,55.55555556,,,,,,,,,,,,,,,,,,,,,,,,,,,,,,,,,,,,,,,,,,,,,,,,,,,,,,,,,,,,,,,,,,,,,,,,,,,,,,,,,,,,,,,,,
,,2,2.861,2,2.861,0,49,49,6,1,87,carrot,yogurt,,90441,001,2022-04-24_17h53.29.893,SPAMnetsValid,2021.1.4,MacIntel,55.55555556,,,,,,,,,,,,,,,,,,,,,,,,,,,,,,,,,,,,,,,,,,,,,,,,,,,,,,,,,,,,,,,,,,,,,,,,,,,,,,,,,,,,,,,,,
,,2,2.258,2,2.258,0,50,50,12,1,67,flower,yogurt,,90441,001,2022-04-24_17h53.29.893,SPAMnetsValid,2021.1.4,MacIntel,55.55555556,,,,,,,,,,,,,,,,,,,,,,,,,,,,,,,,,,,,,,,,,,,,,,,,,,,,,,,,,,,,,,,,,,,,,,,,,,,,,,,,,,,,,,,,,
,,9,3.766,9,3.766,0,51,51,96,1,82,cake,kitchen,,90441,001,2022-04-24_17h53.29.893,SPAMnetsValid,2021.1.4,MacIntel,55.55555556,,,,,,,,,,,,,,,,,,,,,,,,,,,,,,,,,,,,,,,,,,,,,,,,,,,,,,,,,,,,,,,,,,,,,,,,,,,,,,,,,,,,,,,,,
,,9,0.963,9,0.963,0,52,52,10,1,191,cake,cake,CHECK,90441,001,2022-04-24_17h53.29.893,SPAMnetsValid,2021.1.4,MacIntel,55.55555556,,,,,,,,,,,,,,,,,,,,,,,,,,,,,,,,,,,,,,,,,,,,,,,,,,,,,,,,,,,,,,,,,,,,,,,,,,,,,,,,,,,,,,,,,
,,3,3.925,3,3.925,0,53,53,40,1,74,broom,pretzel,,90441,001,2022-04-24_17h53.29.893,SPAMnetsValid,2021.1.4,MacIntel,55.55555556,,,,,,,,,,,,,,,,,,,,,,,,,,,,,,,,,,,,,,,,,,,,,,,,,,,,,,,,,,,,,,,,,,,,,,,,,,,,,,,,,,,,,,,,,
,,2,3.626,2,3.626,0,54,54,0,1,53,garden,pretzel,,90441,001,2022-04-24_17h53.29.893,SPAMnetsValid,2021.1.4,MacIntel,55.55555556,,,,,,,,,,,,,,,,,,,,,,,,,,,,,,,,,,,,,,,,,,,,,,,,,,,,,,,,,,,,,,,,,,,,,,,,,,,,,,,,,,,,,,,,,
,,2,2.844,2,2.844,0,55,55,34,1,29,chocolate,melon,,90441,001,2022-04-24_17h53.29.893,SPAMnetsValid,2021.1.4,MacIntel,55.55555556,,,,,,,,,,,,,,,,,,,,,,,,,,,,,,,,,,,,,,,,,,,,,,,,,,,,,,,,,,,,,,,,,,,,,,,,,,,,,,,,,,,,,,,,,
,,2,1.143,2,1.143,0,56,56,32,1,40,broom,cake,,90441,001,2022-04-24_17h53.29.893,SPAMnetsValid,2021.1.4,MacIntel,55.55555556,,,,,,,,,,,,,,,,,,,,,,,,,,,,,,,,,,,,,,,,,,,,,,,,,,,,,,,,,,,,,,,,,,,,,,,,,,,,,,,,,,,,,,,,,
,,2,2.292,2,2.292,0,57,57,47,1,73,broom,chocolate,,90441,001,2022-04-24_17h53.29.893,SPAMnetsValid,2021.1.4,MacIntel,55.55555556,,,,,,,,,,,,,,,,,,,,,,,,,,,,,,,,,,,,,,,,,,,,,,,,,,,,,,,,,,,,,,,,,,,,,,,,,,,,,,,,,,,,,,,,,
,,2,2.709,2,2.709,0,58,58,73,1,50,carrot,rose,,90441,001,2022-04-24_17h53.29.893,SPAMnetsValid,2021.1.4,MacIntel,55.55555556,,,,,,,,,,,,,,,,,,,,,,,,,,,,,,,,,,,,,,,,,,,,,,,,,,,,,,,,,,,,,,,,,,,,,,,,,,,,,,,,,,,,,,,,,
,,2,1.267,2,1.267,0,59,59,46,1,41,broom,cactus,,90441,001,2022-04-24_17h53.29.893,SPAMnetsValid,2021.1.4,MacIntel,55.55555556,,,,,,,,,,,,,,,,,,,,,,,,,,,,,,,,,,,,,,,,,,,,,,,,,,,,,,,,,,,,,,,,,,,,,,,,,,,,,,,,,,,,,,,,,
,,2,11.779,2,11.779,0,60,60,20,1,39,melon,pretzel,,90441,001,2022-04-24_17h53.29.893,SPAMnetsValid,2021.1.4,MacIntel,55.55555556,,,,,,,,,,,,,,,,,,,,,,,,,,,,,,,,,,,,,,,,,,,,,,,,,,,,,,,,,,,,,,,,,,,,,,,,,,,,,,,,,,,,,,,,,
,,2,1.444,2,1.444,0,61,61,61,1,71,broom,rose,,90441,001,2022-04-24_17h53.29.893,SPAMnetsValid,2021.1.4,MacIntel,55.55555556,,,,,,,,,,,,,,,,,,,,,,,,,,,,,,,,,,,,,,,,,,,,,,,,,,,,,,,,,,,,,,,,,,,,,,,,,,,,,,,,,,,,,,,,,
,,2,1.265,2,1.265,0,62,62,70,1,5,oven,tree,,90441,001,2022-04-24_17h53.29.893,SPAMnetsValid,2021.1.4,MacIntel,55.55555556,,,,,,,,,,,,,,,,,,,,,,,,,,,,,,,,,,,,,,,,,,,,,,,,,,,,,,,,,,,,,,,,,,,,,,,,,,,,,,,,,,,,,,,,,
,,8,2.445,8,2.445,0,63,63,52,1,4,chocolate,pretzel,,90441,001,2022-04-24_17h53.29.893,SPAMnetsValid,2021.1.4,MacIntel,55.55555556,,,,,,,,,,,,,,,,,,,,,,,,,,,,,,,,,,,,,,,,,,,,,,,,,,,,,,,,,,,,,,,,,,,,,,,,,,,,,,,,,,,,,,,,,
,,2,1.864,2,1.864,0,64,64,84,1,91,microwave,rose,,90441,001,2022-04-24_17h53.29.893,SPAMnetsValid,2021.1.4,MacIntel,55.55555556,,,,,,,,,,,,,,,,,,,,,,,,,,,,,,,,,,,,,,,,,,,,,,,,,,,,,,,,,,,,,,,,,,,,,,,,,,,,,,,,,,,,,,,,,
,,1,2.343,1,2.343,0,65,65,74,1,70,chocolate,onion,,90441,001,2022-04-24_17h53.29.893,SPAMnetsValid,2021.1.4,MacIntel,55.55555556,,,,,,,,,,,,,,,,,,,,,,,,,,,,,,,,,,,,,,,,,,,,,,,,,,,,,,,,,,,,,,,,,,,,,,,,,,,,,,,,,,,,,,,,,
,,1,2.345,1,2.345,0,66,66,65,1,46,garden,yogurt,,90441,001,2022-04-24_17h53.29.893,SPAMnetsValid,2021.1.4,MacIntel,55.55555556,,,,,,,,,,,,,,,,,,,,,,,,,,,,,,,,,,,,,,,,,,,,,,,,,,,,,,,,,,,,,,,,,,,,,,,,,,,,,,,,,,,,,,,,,
,,1,3.095,1,3.095,0,67,67,45,1,10,flower,onion,,90441,001,2022-04-24_17h53.29.893,SPAMnetsValid,2021.1.4,MacIntel,55.55555556,,,,,,,,,,,,,,,,,,,,,,,,,,,,,,,,,,,,,,,,,,,,,,,,,,,,,,,,,,,,,,,,,,,,,,,,,,,,,,,,,,,,,,,,,
,,2,1.362,2,1.362,0,68,68,79,1,86,oven,rose,,90441,001,2022-04-24_17h53.29.893,SPAMnetsValid,2021.1.4,MacIntel,55.55555556,,,,,,,,,,,,,,,,,,,,,,,,,,,,,,,,,,,,,,,,,,,,,,,,,,,,,,,,,,,,,,,,,,,,,,,,,,,,,,,,,,,,,,,,,
,,1,1.761,1,1.761,0,69,69,59,1,8,broom,melon,,90441,001,2022-04-24_17h53.29.893,SPAMnetsValid,2021.1.4,MacIntel,55.55555556,,,,,,,,,,,,,,,,,,,,,,,,,,,,,,,,,,,,,,,,,,,,,,,,,,,,,,,,,,,,,,,,,,,,,,,,,,,,,,,,,,,,,,,,,
,,7,2.758,7,2.758,0,70,70,72,1,59,rose,strawberry,,90441,001,2022-04-24_17h53.29.893,SPAMnetsValid,2021.1.4,MacIntel,55.55555556,,,,,,,,,,,,,,,,,,,,,,,,,,,,,,,,,,,,,,,,,,,,,,,,,,,,,,,,,,,,,,,,,,,,,,,,,,,,,,,,,,,,,,,,,
,,2,5.126,2,5.126,0,71,71,71,1,38,pretzel,refrigerator,,90441,001,2022-04-24_17h53.29.893,SPAMnetsValid,2021.1.4,MacIntel,55.55555556,,,,,,,,,,,,,,,,,,,,,,,,,,,,,,,,,,,,,,,,,,,,,,,,,,,,,,,,,,,,,,,,,,,,,,,,,,,,,,,,,,,,,,,,,
,,2,1.511,2,1.511,0,72,72,92,1,44,cookie,melon,,90441,001,2022-04-24_17h53.29.893,SPAMnetsValid,2021.1.4,MacIntel,55.55555556,,,,,,,,,,,,,,,,,,,,,,,,,,,,,,,,,,,,,,,,,,,,,,,,,,,,,,,,,,,,,,,,,,,,,,,,,,,,,,,,,,,,,,,,,
,,7,4.177,7,4.177,0,73,73,21,1,56,cactus,tree,,90441,001,2022-04-24_17h53.29.893,SPAMnetsValid,2021.1.4,MacIntel,55.55555556,,,,,,,,,,,,,,,,,,,,,,,,,,,,,,,,,,,,,,,,,,,,,,,,,,,,,,,,,,,,,,,,,,,,,,,,,,,,,,,,,,,,,,,,,
,,5,3.593,5,3.593,0,74,74,28,1,84,oven,tomato,,90441,001,2022-04-24_17h53.29.893,SPAMnetsValid,2021.1.4,MacIntel,55.55555556,,,,,,,,,,,,,,,,,,,,,,,,,,,,,,,,,,,,,,,,,,,,,,,,,,,,,,,,,,,,,,,,,,,,,,,,,,,,,,,,,,,,,,,,,
,,4,1.395,4,1.395,0,75,75,81,1,60,cactus,onion,,90441,001,2022-04-24_17h53.29.893,SPAMnetsValid,2021.1.4,MacIntel,55.55555556,,,,,,,,,,,,,,,,,,,,,,,,,,,,,,,,,,,,,,,,,,,,,,,,,,,,,,,,,,,,,,,,,,,,,,,,,,,,,,,,,,,,,,,,,
,,1,2.009,1,2.009,0,76,76,43,1,11,refrigerator,tree,,90441,001,2022-04-24_17h53.29.893,SPAMnetsValid,2021.1.4,MacIntel,55.55555556,,,,,,,,,,,,,,,,,,,,,,,,,,,,,,,,,,,,,,,,,,,,,,,,,,,,,,,,,,,,,,,,,,,,,,,,,,,,,,,,,,,,,,,,,
,,4,7.615,4,7.615,0,77,77,57,1,62,kitchen,rose,,90441,001,2022-04-24_17h53.29.893,SPAMnetsValid,2021.1.4,MacIntel,55.55555556,,,,,,,,,,,,,,,,,,,,,,,,,,,,,,,,,,,,,,,,,,,,,,,,,,,,,,,,,,,,,,,,,,,,,,,,,,,,,,,,,,,,,,,,,
,,5,2.616,5,2.616,0,78,78,16,1,14,broom,cookie,,90441,001,2022-04-24_17h53.29.893,SPAMnetsValid,2021.1.4,MacIntel,55.55555556,,,,,,,,,,,,,,,,,,,,,,,,,,,,,,,,,,,,,,,,,,,,,,,,,,,,,,,,,,,,,,,,,,,,,,,,,,,,,,,,,,,,,,,,,
,,5,2.593,5,2.593,0,79,79,44,1,25,carrot,onion,,90441,001,2022-04-24_17h53.29.893,SPAMnetsValid,2021.1.4,MacIntel,55.55555556,,,,,,,,,,,,,,,,,,,,,,,,,,,,,,,,,,,,,,,,,,,,,,,,,,,,,,,,,,,,,,,,,,,,,,,,,,,,,,,,,,,,,,,,,
,,5,3.863,5,3.863,0,80,80,50,1,81,pretzel,yogurt,,90441,001,2022-04-24_17h53.29.893,SPAMnetsValid,2021.1.4,MacIntel,55.55555556,,,,,,,,,,,,,,,,,,,,,,,,,,,,,,,,,,,,,,,,,,,,,,,,,,,,,,,,,,,,,,,,,,,,,,,,,,,,,,,,,,,,,,,,,
,,6,3.545,6,3.545,0,81,81,35,1,55,tomato,tree,,90441,001,2022-04-24_17h53.29.893,SPAMnetsValid,2021.1.4,MacIntel,55.55555556,,,,,,,,,,,,,,,,,,,,,,,,,,,,,,,,,,,,,,,,,,,,,,,,,,,,,,,,,,,,,,,,,,,,,,,,,,,,,,,,,,,,,,,,,
,,7,1.477,7,1.477,0,82,82,67,1,54,chocolate,yogurt,,90441,001,2022-04-24_17h53.29.893,SPAMnetsValid,2021.1.4,MacIntel,55.55555556,,,,,,,,,,,,,,,,,,,,,,,,,,,,,,,,,,,,,,,,,,,,,,,,,,,,,,,,,,,,,,,,,,,,,,,,,,,,,,,,,,,,,,,,,
,,2,2.576,2,2.576,0,83,83,8,1,43,chocolate,tomato,,90441,001,2022-04-24_17h53.29.893,SPAMnetsValid,2021.1.4,MacIntel,55.55555556,,,,,,,,,,,,,,,,,,,,,,,,,,,,,,,,,,,,,,,,,,,,,,,,,,,,,,,,,,,,,,,,,,,,,,,,,,,,,,,,,,,,,,,,,
,,2,1.693,2,1.693,0,84,84,69,1,45,onion,pretzel,,90441,001,2022-04-24_17h53.29.893,SPAMnetsValid,2021.1.4,MacIntel,55.55555556,,,,,,,,,,,,,,,,,,,,,,,,,,,,,,,,,,,,,,,,,,,,,,,,,,,,,,,,,,,,,,,,,,,,,,,,,,,,,,,,,,,,,,,,,
,,4,2.596,4,2.596,0,85,85,86,1,51,onion,strawberry,,90441,001,2022-04-24_17h53.29.893,SPAMnetsValid,2021.1.4,MacIntel,55.55555556,,,,,,,,,,,,,,,,,,,,,,,,,,,,,,,,,,,,,,,,,,,,,,,,,,,,,,,,,,,,,,,,,,,,,,,,,,,,,,,,,,,,,,,,,
,,1,2.013,1,2.013,0,86,86,18,1,85,cake,tree,,90441,001,2022-04-24_17h53.29.893,SPAMnetsValid,2021.1.4,MacIntel,55.55555556,,,,,,,,,,,,,,,,,,,,,,,,,,,,,,,,,,,,,,,,,,,,,,,,,,,,,,,,,,,,,,,,,,,,,,,,,,,,,,,,,,,,,,,,,
,,7,4.798,7,4.798,0,87,87,77,1,7,melon,tree,,90441,001,2022-04-24_17h53.29.893,SPAMnetsValid,2021.1.4,MacIntel,55.55555556,,,,,,,,,,,,,,,,,,,,,,,,,,,,,,,,,,,,,,,,,,,,,,,,,,,,,,,,,,,,,,,,,,,,,,,,,,,,,,,,,,,,,,,,,
,,5,6.109,5,6.109,0,88,88,3,1,49,flower,strawberry,,90441,001,2022-04-24_17h53.29.893,SPAMnetsValid,2021.1.4,MacIntel,55.55555556,,,,,,,,,,,,,,,,,,,,,,,,,,,,,,,,,,,,,,,,,,,,,,,,,,,,,,,,,,,,,,,,,,,,,,,,,,,,,,,,,,,,,,,,,
,,2,2.16,2,2.16,0,89,89,55,1,1,rose,yogurt,,90441,001,2022-04-24_17h53.29.893,SPAMnetsValid,2021.1.4,MacIntel,55.55555556,,,,,,,,,,,,,,,,,,,,,,,,,,,,,,,,,,,,,,,,,,,,,,,,,,,,,,,,,,,,,,,,,,,,,,,,,,,,,,,,,,,,,,,,,
,,7,3.81,7,3.81,0,90,90,95,1,52,carrot,tomato,,90441,001,2022-04-24_17h53.29.893,SPAMnetsValid,2021.1.4,MacIntel,55.55555556,,,,,,,,,,,,,,,,,,,,,,,,,,,,,,,,,,,,,,,,,,,,,,,,,,,,,,,,,,,,,,,,,,,,,,,,,,,,,,,,,,,,,,,,,
,,3,3.165,3,3.165,0,91,91,15,1,48,flower,oven,,90441,001,2022-04-24_17h53.29.893,SPAMnetsValid,2021.1.4,MacIntel,55.55555556,,,,,,,,,,,,,,,,,,,,,,,,,,,,,,,,,,,,,,,,,,,,,,,,,,,,,,,,,,,,,,,,,,,,,,,,,,,,,,,,,,,,,,,,,
,,2,1.878,2,1.878,0,92,92,56,1,78,cookie,rose,,90441,001,2022-04-24_17h53.29.893,SPAMnetsValid,2021.1.4,MacIntel,55.55555556,,,,,,,,,,,,,,,,,,,,,,,,,,,,,,,,,,,,,,,,,,,,,,,,,,,,,,,,,,,,,,,,,,,,,,,,,,,,,,,,,,,,,,,,,
,,1,1.326,1,1.326,0,93,93,1,1,31,cactus,pretzel,,90441,001,2022-04-24_17h53.29.893,SPAMnetsValid,2021.1.4,MacIntel,55.55555556,,,,,,,,,,,,,,,,,,,,,,,,,,,,,,,,,,,,,,,,,,,,,,,,,,,,,,,,,,,,,,,,,,,,,,,,,,,,,,,,,,,,,,,,,
,,1,2.299,1,2.299,0,94,94,63,1,21,cake,onion,,90441,001,2022-04-24_17h53.29.893,SPAMnetsValid,2021.1.4,MacIntel,55.55555556,,,,,,,,,,,,,,,,,,,,,,,,,,,,,,,,,,,,,,,,,,,,,,,,,,,,,,,,,,,,,,,,,,,,,,,,,,,,,,,,,,,,,,,,,
,,1,2.091,1,2.091,0,95,95,9,1,75,cookie,onion,,90441,001,2022-04-24_17h53.29.893,SPAMnetsValid,2021.1.4,MacIntel,55.55555556,,,,,,,,,,,,,,,,,,,,,,,,,,,,,,,,,,,,,,,,,,,,,,,,,,,,,,,,,,,,,,,,,,,,,,,,,,,,,,,,,,,,,,,,,
,,3,15.726,3,15.726,0,96,96,33,1,32,cake,microwave,,90441,001,2022-04-24_17h53.29.893,SPAMnetsValid,2021.1.4,MacIntel,55.55555556,,,,,,,,,,,,,,,,,,,,,,,,,,,,,,,,,,,,,,,,,,,,,,,,,,,,,,,,,,,,,,,,,,,,,,,,,,,,,,,,,,,,,,,,,
,,,,,,,,,,,,,,,90441,001,2022-04-24_17h53.29.893,SPAMnetsValid,2021.1.4,MacIntel,55.55555556,0,0,0,0,1,,,,,,,,,,,,,,,,,,,,,,,,,,,,,,,,,,,,,,,,,,,,,,,,,,,,,,,,,,,,,,,,,,,,,,,,,,,,,,,,,,,,
,,,,,,,,,,,,,,,90441,001,2022-04-24_17h53.29.893,SPAMnetsValid,2021.1.4,MacIntel,55.55555556,,,,,,0,0,0,0,1,1,0,,,,,,,,,,,,,,,,,,,,,,,,,,,,,,,,,,,,,,,,,,,,,,,,,,,,,,,,,,,,,,,,,,,,,,,,,,,,,
,,,,1,6.385,,,,,,105,cactus,oven,,90441,001,2022-04-24_17h53.29.893,SPAMnetsValid,2021.1.4,MacIntel,55.55555556,,,,,,,,,,,,,1,6.385,0,0,0,13,1,,,,,,,,,,,,,,,,,,,,,,,,,,,,,,,,,,,,,,,,,,,,,,,,,,,,,,,,,,,,,,,,,,,,,,
,,,,1,1.574,,,,,,151,microwave,onion,,90441,001,2022-04-24_17h53.29.893,SPAMnetsValid,2021.1.4,MacIntel,55.55555556,,,,,,,,,,,,,1,1.574,0,1,1,6,1,,,,,,,,,,,,,,,,,,,,,,,,,,,,,,,,,,,,,,,,,,,,,,,,,,,,,,,,,,,,,,,,,,,,,,
,,,,9,2.958,,,,,,177,chocolate,strawberry,,90441,001,2022-04-24_17h53.29.893,SPAMnetsValid,2021.1.4,MacIntel,55.55555556,,,,,,,,,,,,,9,2.958,0,2,2,53,1,,,,,,,,,,,,,,,,,,,,,,,,,,,,,,,,,,,,,,,,,,,,,,,,,,,,,,,,,,,,,,,,,,,,,,
,,,,7,5.065,,,,,,156,melon,rose,,90441,001,2022-04-24_17h53.29.893,SPAMnetsValid,2021.1.4,MacIntel,55.55555556,,,,,,,,,,,,,7,5.065,0,3,3,31,1,,,,,,,,,,,,,,,,,,,,,,,,,,,,,,,,,,,,,,,,,,,,,,,,,,,,,,,,,,,,,,,,,,,,,,
,,,,9,2.91,,,,,,120,microwave,oven,,90441,001,2022-04-24_17h53.29.893,SPAMnetsValid,2021.1.4,MacIntel,55.55555556,,,,,,,,,,,,,9,2.91,0,4,4,14,1,,,,,,,,,,,,,,,,,,,,,,,,,,,,,,,,,,,,,,,,,,,,,,,,,,,,,,,,,,,,,,,,,,,,,,
,,,,9,3.025,,,,,,122,flower,garden,,90441,001,2022-04-24_17h53.29.893,SPAMnetsValid,2021.1.4,MacIntel,55.55555556,,,,,,,,,,,,,9,3.025,0,5,5,60,1,,,,,,,,,,,,,,,,,,,,,,,,,,,,,,,,,,,,,,,,,,,,,,,,,,,,,,,,,,,,,,,,,,,,,,
,,,,3,1.994,,,,,,153,carrot,pretzel,,90441,001,2022-04-24_17h53.29.893,SPAMnetsValid,2021.1.4,MacIntel,55.55555556,,,,,,,,,,,,,3,1.994,0,6,6,34,1,,,,,,,,,,,,,,,,,,,,,,,,,,,,,,,,,,,,,,,,,,,,,,,,,,,,,,,,,,,,,,,,,,,,,,
,,,,9,2.277,,,,,,158,cookie,oven,,90441,001,2022-04-24_17h53.29.893,SPAMnetsValid,2021.1.4,MacIntel,55.55555556,,,,,,,,,,,,,9,2.277,0,7,7,27,1,,,,,,,,,,,,,,,,,,,,,,,,,,,,,,,,,,,,,,,,,,,,,,,,,,,,,,,,,,,,,,,,,,,,,,
,,,,6,2.826,,,,,,108,carrot,chocolate,,90441,001,2022-04-24_17h53.29.893,SPAMnetsValid,2021.1.4,MacIntel,55.55555556,,,,,,,,,,,,,6,2.826,0,8,8,5,1,,,,,,,,,,,,,,,,,,,,,,,,,,,,,,,,,,,,,,,,,,,,,,,,,,,,,,,,,,,,,,,,,,,,,,
,,,,2,1.862,,,,,,111,carrot,microwave,,90441,001,2022-04-24_17h53.29.893,SPAMnetsValid,2021.1.4,MacIntel,55.55555556,,,,,,,,,,,,,2,1.862,0,9,9,16,1,,,,,,,,,,,,,,,,,,,,,,,,,,,,,,,,,,,,,,,,,,,,,,,,,,,,,,,,,,,,,,,,,,,,,,
,,,,4,2.531,,,,,,163,melon,refrigerator,,90441,001,2022-04-24_17h53.29.893,SPAMnetsValid,2021.1.4,MacIntel,55.55555556,,,,,,,,,,,,,4,2.531,0,10,10,29,1,,,,,,,,,,,,,,,,,,,,,,,,,,,,,,,,,,,,,,,,,,,,,,,,,,,,,,,,,,,,,,,,,,,,,,
,,,,8,3.511,,,,,,168,cactus,flower,,90441,001,2022-04-24_17h53.29.893,SPAMnetsValid,2021.1.4,MacIntel,55.55555556,,,,,,,,,,,,,8,3.511,0,11,11,51,1,,,,,,,,,,,,,,,,,,,,,,,,,,,,,,,,,,,,,,,,,,,,,,,,,,,,,,,,,,,,,,,,,,,,,,
,,,,8,1.928,,,,,,142,garden,tree,,90441,001,2022-04-24_17h53.29.893,SPAMnetsValid,2021.1.4,MacIntel,55.55555556,,,,,,,,,,,,,8,1.928,0,12,12,22,1,,,,,,,,,,,,,,,,,,,,,,,,,,,,,,,,,,,,,,,,,,,,,,,,,,,,,,,,,,,,,,,,,,,,,,
,,,,1,3.565,,,,,,149,broom,tomato,,90441,001,2022-04-24_17h53.29.893,SPAMnetsValid,2021.1.4,MacIntel,55.55555556,,,,,,,,,,,,,1,3.565,0,13,13,20,1,,,,,,,,,,,,,,,,,,,,,,,,,,,,,,,,,,,,,,,,,,,,,,,,,,,,,,,,,,,,,,,,,,,,,,
,,,,6,1.88,,,,,,174,cake,pretzel,,90441,001,2022-04-24_17h53.29.893,SPAMnetsValid,2021.1.4,MacIntel,55.55555556,,,,,,,,,,,,,6,1.88,0,14,14,2,1,,,,,,,,,,,,,,,,,,,,,,,,,,,,,,,,,,,,,,,,,,,,,,,,,,,,,,,,,,,,,,,,,,,,,,
,,,,1,2.378,,,,,,137,microwave,tree,,90441,001,2022-04-24_17h53.29.893,SPAMnetsValid,2021.1.4,MacIntel,55.55555556,,,,,,,,,,,,,1,2.378,0,15,15,63,1,,,,,,,,,,,,,,,,,,,,,,,,,,,,,,,,,,,,,,,,,,,,,,,,,,,,,,,,,,,,,,,,,,,,,,
,,,,1,3.797,,,,,,164,cookie,garden,,90441,001,2022-04-24_17h53.29.893,SPAMnetsValid,2021.1.4,MacIntel,55.55555556,,,,,,,,,,,,,1,3.797,0,16,16,59,1,,,,,,,,,,,,,,,,,,,,,,,,,,,,,,,,,,,,,,,,,,,,,,,,,,,,,,,,,,,,,,,,,,,,,,
,,,,1,1.56,,,,,,159,cookie,flower,,90441,001,2022-04-24_17h53.29.893,SPAMnetsValid,2021.1.4,MacIntel,55.55555556,,,,,,,,,,,,,1,1.56,0,17,17,21,1,,,,,,,,,,,,,,,,,,,,,,,,,,,,,,,,,,,,,,,,,,,,,,,,,,,,,,,,,,,,,,,,,,,,,,
,,,,1,1.741,,,,,,128,melon,microwave,,90441,001,2022-04-24_17h53.29.893,SPAMnetsValid,2021.1.4,MacIntel,55.55555556,,,,,,,,,,,,,1,1.741,0,18,18,74,1,,,,,,,,,,,,,,,,,,,,,,,,,,,,,,,,,,,,,,,,,,,,,,,,,,,,,,,,,,,,,,,,,,,,,,
,,,,5,5.558,,,,,,115,refrigerator,tomato,,90441,001,2022-04-24_17h53.29.893,SPAMnetsValid,2021.1.4,MacIntel,55.55555556,,,,,,,,,,,,,5,5.558,0,19,19,85,1,,,,,,,,,,,,,,,,,,,,,,,,,,,,,,,,,,,,,,,,,,,,,,,,,,,,,,,,,,,,,,,,,,,,,,
,,,,5,2.41,,,,,,176,cactus,tomato,,90441,001,2022-04-24_17h53.29.893,SPAMnetsValid,2021.1.4,MacIntel,55.55555556,,,,,,,,,,,,,5,2.41,0,20,20,9,1,,,,,,,,,,,,,,,,,,,,,,,,,,,,,,,,,,,,,,,,,,,,,,,,,,,,,,,,,,,,,,,,,,,,,,
,,,,6,2.259,,,,,,179,broom,oven,,90441,001,2022-04-24_17h53.29.893,SPAMnetsValid,2021.1.4,MacIntel,55.55555556,,,,,,,,,,,,,6,2.259,0,21,21,45,1,,,,,,,,,,,,,,,,,,,,,,,,,,,,,,,,,,,,,,,,,,,,,,,,,,,,,,,,,,,,,,,,,,,,,,
,,,,3,5.131,,,,,,183,cake,rose,,90441,001,2022-04-24_17h53.29.893,SPAMnetsValid,2021.1.4,MacIntel,55.55555556,,,,,,,,,,,,,3,5.131,0,22,22,19,1,,,,,,,,,,,,,,,,,,,,,,,,,,,,,,,,,,,,,,,,,,,,,,,,,,,,,,,,,,,,,,,,,,,,,,
,,,,4,6.142,,,,,,155,carrot,cookie,,90441,001,2022-04-24_17h53.29.893,SPAMnetsValid,2021.1.4,MacIntel,55.55555556,,,,,,,,,,,,,4,6.142,0,23,23,38,1,,,,,,,,,,,,,,,,,,,,,,,,,,,,,,,,,,,,,,,,,,,,,,,,,,,,,,,,,,,,,,,,,,,,,,
,,,,1,1.348,,,,,,169,onion,yogurt,,90441,001,2022-04-24_17h53.29.893,SPAMnetsValid,2021.1.4,MacIntel,55.55555556,,,,,,,,,,,,,1,1.348,0,24,24,24,1,,,,,,,,,,,,,,,,,,,,,,,,,,,,,,,,,,,,,,,,,,,,,,,,,,,,,,,,,,,,,,,,,,,,,,
,,,,7,2.296,,,,,,117,melon,strawberry,,90441,001,2022-04-24_17h53.29.893,SPAMnetsValid,2021.1.4,MacIntel,55.55555556,,,,,,,,,,,,,7,2.296,0,25,25,11,1,,,,,,,,,,,,,,,,,,,,,,,,,,,,,,,,,,,,,,,,,,,,,,,,,,,,,,,,,,,,,,,,,,,,,,
,,,,8,2.28,,,,,,154,strawberry,yogurt,,90441,001,2022-04-24_17h53.29.893,SPAMnetsValid,2021.1.4,MacIntel,55.55555556,,,,,,,,,,,,,8,2.28,0,26,26,28,1,,,,,,,,,,,,,,,,,,,,,,,,,,,,,,,,,,,,,,,,,,,,,,,,,,,,,,,,,,,,,,,,,,,,,,
,,,,9,5.243,,,,,,138,flower,rose,,90441,001,2022-04-24_17h53.29.893,SPAMnetsValid,2021.1.4,MacIntel,55.55555556,,,,,,,,,,,,,9,5.243,0,27,27,61,1,,,,,,,,,,,,,,,,,,,,,,,,,,,,,,,,,,,,,,,,,,,,,,,,,,,,,,,,,,,,,,,,,,,,,,
,,,,6,4.01,,,,,,134,carrot,flower,,90441,001,2022-04-24_17h53.29.893,SPAMnetsValid,2021.1.4,MacIntel,55.55555556,,,,,,,,,,,,,6,4.01,0,28,28,93,1,,,,,,,,,,,,,,,,,,,,,,,,,,,,,,,,,,,,,,,,,,,,,,,,,,,,,,,,,,,,,,,,,,,,,,
,,,,7,3.165,,,,,,150,microwave,refrigerator,,90441,001,2022-04-24_17h53.29.893,SPAMnetsValid,2021.1.4,MacIntel,55.55555556,,,,,,,,,,,,,7,3.165,0,29,29,66,1,,,,,,,,,,,,,,,,,,,,,,,,,,,,,,,,,,,,,,,,,,,,,,,,,,,,,,,,,,,,,,,,,,,,,,
,,,,2,2.914,,,,,,180,tree,yogurt,,90441,001,2022-04-24_17h53.29.893,SPAMnetsValid,2021.1.4,MacIntel,55.55555556,,,,,,,,,,,,,2,2.914,0,30,30,68,1,,,,,,,,,,,,,,,,,,,,,,,,,,,,,,,,,,,,,,,,,,,,,,,,,,,,,,,,,,,,,,,,,,,,,,
,,,,5,5.61,,,,,,184,oven,pretzel,,90441,001,2022-04-24_17h53.29.893,SPAMnetsValid,2021.1.4,MacIntel,55.55555556,,,,,,,,,,,,,5,5.61,0,31,31,42,1,,,,,,,,,,,,,,,,,,,,,,,,,,,,,,,,,,,,,,,,,,,,,,,,,,,,,,,,,,,,,,,,,,,,,,
,,,,5,6.53,,,,,,175,melon,onion,,90441,001,2022-04-24_17h53.29.893,SPAMnetsValid,2021.1.4,MacIntel,55.55555556,,,,,,,,,,,,,5,6.53,0,32,32,41,1,,,,,,,,,,,,,,,,,,,,,,,,,,,,,,,,,,,,,,,,,,,,,,,,,,,,,,,,,,,,,,,,,,,,,,
,,,,6,2.709,,,,,,107,rose,tomato,,90441,001,2022-04-24_17h53.29.893,SPAMnetsValid,2021.1.4,MacIntel,55.55555556,,,,,,,,,,,,,6,2.709,0,33,33,26,1,,,,,,,,,,,,,,,,,,,,,,,,,,,,,,,,,,,,,,,,,,,,,,,,,,,,,,,,,,,,,,,,,,,,,,
,,,,1,21.624,,,,,,187,cactus,microwave,,90441,001,2022-04-24_17h53.29.893,SPAMnetsValid,2021.1.4,MacIntel,55.55555556,,,,,,,,,,,,,1,21.624,0,34,34,71,1,,,,,,,,,,,,,,,,,,,,,,,,,,,,,,,,,,,,,,,,,,,,,,,,,,,,,,,,,,,,,,,,,,,,,,
,,,,4,2.213,,,,,,96,oven,strawberry,,90441,001,2022-04-24_17h53.29.893,SPAMnetsValid,2021.1.4,MacIntel,55.55555556,,,,,,,,,,,,,4,2.213,0,35,35,67,1,,,,,,,,,,,,,,,,,,,,,,,,,,,,,,,,,,,,,,,,,,,,,,,,,,,,,,,,,,,,,,,,,,,,,,
,,,,5,1.912,,,,,,139,carrot,strawberry,,90441,001,2022-04-24_17h53.29.893,SPAMnetsValid,2021.1.4,MacIntel,55.55555556,,,,,,,,,,,,,5,1.912,0,36,36,37,1,,,,,,,,,,,,,,,,,,,,,,,,,,,,,,,,,,,,,,,,,,,,,,,,,,,,,,,,,,,,,,,,,,,,,,
,,,,7,3.59,,,,,,124,oven,refrigerator,,90441,001,2022-04-24_17h53.29.893,SPAMnetsValid,2021.1.4,MacIntel,55.55555556,,,,,,,,,,,,,7,3.59,0,37,37,69,1,,,,,,,,,,,,,,,,,,,,,,,,,,,,,,,,,,,,,,,,,,,,,,,,,,,,,,,,,,,,,,,,,,,,,,
,,,,6,3.51,,,,,,152,cactus,strawberry,,90441,001,2022-04-24_17h53.29.893,SPAMnetsValid,2021.1.4,MacIntel,55.55555556,,,,,,,,,,,,,6,3.51,0,38,38,49,1,,,,,,,,,,,,,,,,,,,,,,,,,,,,,,,,,,,,,,,,,,,,,,,,,,,,,,,,,,,,,,,,,,,,,,
,,,,7,2.977,,,,,,114,cookie,strawberry,,90441,001,2022-04-24_17h53.29.893,SPAMnetsValid,2021.1.4,MacIntel,55.55555556,,,,,,,,,,,,,7,2.977,0,39,39,87,1,,,,,,,,,,,,,,,,,,,,,,,,,,,,,,,,,,,,,,,,,,,,,,,,,,,,,,,,,,,,,,,,,,,,,,
,,,,5,5.792,,,,,,141,melon,tomato,,90441,001,2022-04-24_17h53.29.893,SPAMnetsValid,2021.1.4,MacIntel,55.55555556,,,,,,,,,,,,,5,5.792,0,40,40,70,1,,,,,,,,,,,,,,,,,,,,,,,,,,,,,,,,,,,,,,,,,,,,,,,,,,,,,,,,,,,,,,,,,,,,,,
,,,,7,1.924,,,,,,186,kitchen,yogurt,,90441,001,2022-04-24_17h53.29.893,SPAMnetsValid,2021.1.4,MacIntel,55.55555556,,,,,,,,,,,,,7,1.924,0,41,41,48,1,,,,,,,,,,,,,,,,,,,,,,,,,,,,,,,,,,,,,,,,,,,,,,,,,,,,,,,,,,,,,,,,,,,,,,
,,,,8,3.131,,,,,,185,cactus,rose,,90441,001,2022-04-24_17h53.29.893,SPAMnetsValid,2021.1.4,MacIntel,55.55555556,,,,,,,,,,,,,8,3.131,0,42,42,43,1,,,,,,,,,,,,,,,,,,,,,,,,,,,,,,,,,,,,,,,,,,,,,,,,,,,,,,,,,,,,,,,,,,,,,,
,,,,9,3.91,,,,,,110,chocolate,cookie,,90441,001,2022-04-24_17h53.29.893,SPAMnetsValid,2021.1.4,MacIntel,55.55555556,,,,,,,,,,,,,9,3.91,0,43,43,52,1,,,,,,,,,,,,,,,,,,,,,,,,,,,,,,,,,,,,,,,,,,,,,,,,,,,,,,,,,,,,,,,,,,,,,,
,,,,7,4.074,,,,,,172,kitchen,melon,,90441,001,2022-04-24_17h53.29.893,SPAMnetsValid,2021.1.4,MacIntel,55.55555556,,,,,,,,,,,,,7,4.074,0,44,44,77,1,,,,,,,,,,,,,,,,,,,,,,,,,,,,,,,,,,,,,,,,,,,,,,,,,,,,,,,,,,,,,,,,,,,,,,
,,,,2,4.145,,,,,,136,chocolate,microwave,,90441,001,2022-04-24_17h53.29.893,SPAMnetsValid,2021.1.4,MacIntel,55.55555556,,,,,,,,,,,,,2,4.145,0,45,45,96,1,,,,,,,,,,,,,,,,,,,,,,,,,,,,,,,,,,,,,,,,,,,,,,,,,,,,,,,,,,,,,,,,,,,,,,
,,,,1,3.526,,,,,,103,pretzel,tomato,,90441,001,2022-04-24_17h53.29.893,SPAMnetsValid,2021.1.4,MacIntel,55.55555556,,,,,,,,,,,,,1,3.526,0,46,46,79,1,,,,,,,,,,,,,,,,,,,,,,,,,,,,,,,,,,,,,,,,,,,,,,,,,,,,,,,,,,,,,,,,,,,,,,
,,,,1,1.679,,,,,,162,microwave,tomato,,90441,001,2022-04-24_17h53.29.893,SPAMnetsValid,2021.1.4,MacIntel,55.55555556,,,,,,,,,,,,,1,1.679,0,47,47,12,1,,,,,,,,,,,,,,,,,,,,,,,,,,,,,,,,,,,,,,,,,,,,,,,,,,,,,,,,,,,,,,,,,,,,,,
,,,,7,2.265,,,,,,97,chocolate,kitchen,,90441,001,2022-04-24_17h53.29.893,SPAMnetsValid,2021.1.4,MacIntel,55.55555556,,,,,,,,,,,,,7,2.265,0,48,48,8,1,,,,,,,,,,,,,,,,,,,,,,,,,,,,,,,,,,,,,,,,,,,,,,,,,,,,,,,,,,,,,,,,,,,,,,
,,,,8,1.776,,,,,,118,chocolate,oven,,90441,001,2022-04-24_17h53.29.893,SPAMnetsValid,2021.1.4,MacIntel,55.55555556,,,,,,,,,,,,,8,1.776,0,49,49,10,1,,,,,,,,,,,,,,,,,,,,,,,,,,,,,,,,,,,,,,,,,,,,,,,,,,,,,,,,,,,,,,,,,,,,,,
,,,,8,2.812,,,,,,131,cactus,garden,,90441,001,2022-04-24_17h53.29.893,SPAMnetsValid,2021.1.4,MacIntel,55.55555556,,,,,,,,,,,,,8,2.812,0,50,50,33,1,,,,,,,,,,,,,,,,,,,,,,,,,,,,,,,,,,,,,,,,,,,,,,,,,,,,,,,,,,,,,,,,,,,,,,
,,,,3,3.758,,,,,,135,carrot,oven,,90441,001,2022-04-24_17h53.29.893,SPAMnetsValid,2021.1.4,MacIntel,55.55555556,,,,,,,,,,,,,3,3.758,0,51,51,73,1,,,,,,,,,,,,,,,,,,,,,,,,,,,,,,,,,,,,,,,,,,,,,,,,,,,,,,,,,,,,,,,,,,,,,,
,,,,9,5.564,,,,,,100,garden,tomato,,90441,001,2022-04-24_17h53.29.893,SPAMnetsValid,2021.1.4,MacIntel,55.55555556,,,,,,,,,,,,,9,5.564,0,52,52,83,1,,,,,,,,,,,,,,,,,,,,,,,,,,,,,,,,,,,,,,,,,,,,,,,,,,,,,,,,,,,,,,,,,,,,,,
,,,,2,3.161,,,,,,171,cake,tomato,,90441,001,2022-04-24_17h53.29.893,SPAMnetsValid,2021.1.4,MacIntel,55.55555556,,,,,,,,,,,,,2,3.161,0,53,53,88,1,,,,,,,,,,,,,,,,,,,,,,,,,,,,,,,,,,,,,,,,,,,,,,,,,,,,,,,,,,,,,,,,,,,,,,
,,,,1,1.792,,,,,,123,cookie,tree,,90441,001,2022-04-24_17h53.29.893,SPAMnetsValid,2021.1.4,MacIntel,55.55555556,,,,,,,,,,,,,1,1.792,0,54,54,46,1,,,,,,,,,,,,,,,,,,,,,,,,,,,,,,,,,,,,,,,,,,,,,,,,,,,,,,,,,,,,,,,,,,,,,,
,,,,1,1.841,,,,,,130,microwave,yogurt,,90441,001,2022-04-24_17h53.29.893,SPAMnetsValid,2021.1.4,MacIntel,55.55555556,,,,,,,,,,,,,1,1.841,0,55,55,84,1,,,,,,,,,,,,,,,,,,,,,,,,,,,,,,,,,,,,,,,,,,,,,,,,,,,,,,,,,,,,,,,,,,,,,,
,,,,7,2.448,,,,,,173,kitchen,tomato,,90441,001,2022-04-24_17h53.29.893,SPAMnetsValid,2021.1.4,MacIntel,55.55555556,,,,,,,,,,,,,7,2.448,0,56,56,1,1,,,,,,,,,,,,,,,,,,,,,,,,,,,,,,,,,,,,,,,,,,,,,,,,,,,,,,,,,,,,,,,,,,,,,,
,,,,1,2.478,,,,,,104,garden,microwave,,90441,001,2022-04-24_17h53.29.893,SPAMnetsValid,2021.1.4,MacIntel,55.55555556,,,,,,,,,,,,,1,2.478,0,57,57,81,1,,,,,,,,,,,,,,,,,,,,,,,,,,,,,,,,,,,,,,,,,,,,,,,,,,,,,,,,,,,,,,,,,,,,,,
,,,,1,2.228,,,,,,170,cookie,microwave,,90441,001,2022-04-24_17h53.29.893,SPAMnetsValid,2021.1.4,MacIntel,55.55555556,,,,,,,,,,,,,1,2.228,0,58,58,92,1,,,,,,,,,,,,,,,,,,,,,,,,,,,,,,,,,,,,,,,,,,,,,,,,,,,,,,,,,,,,,,,,,,,,,,
,,,,4,5.174,,,,,,126,kitchen,tree,,90441,001,2022-04-24_17h53.29.893,SPAMnetsValid,2021.1.4,MacIntel,55.55555556,,,,,,,,,,,,,4,5.174,0,59,59,50,1,,,,,,,,,,,,,,,,,,,,,,,,,,,,,,,,,,,,,,,,,,,,,,,,,,,,,,,,,,,,,,,,,,,,,,
,,,,1,1.666,,,,,,132,broom,tree,,90441,001,2022-04-24_17h53.29.893,SPAMnetsValid,2021.1.4,MacIntel,55.55555556,,,,,,,,,,,,,1,1.666,0,60,60,78,1,,,,,,,,,,,,,,,,,,,,,,,,,,,,,,,,,,,,,,,,,,,,,,,,,,,,,,,,,,,,,,,,,,,,,,
,,,,7,2.71,,,,,,160,cookie,kitchen,,90441,001,2022-04-24_17h53.29.893,SPAMnetsValid,2021.1.4,MacIntel,55.55555556,,,,,,,,,,,,,7,2.71,0,61,61,65,1,,,,,,,,,,,,,,,,,,,,,,,,,,,,,,,,,,,,,,,,,,,,,,,,,,,,,,,,,,,,,,,,,,,,,,
,,,,3,2.094,,,,,,165,onion,rose,,90441,001,2022-04-24_17h53.29.893,SPAMnetsValid,2021.1.4,MacIntel,55.55555556,,,,,,,,,,,,,3,2.094,0,62,62,40,1,,,,,,,,,,,,,,,,,,,,,,,,,,,,,,,,,,,,,,,,,,,,,,,,,,,,,,,,,,,,,,,,,,,,,,
,,,,4,1.81,,,,,,101,cactus,kitchen,,90441,001,2022-04-24_17h53.29.893,SPAMnetsValid,2021.1.4,MacIntel,55.55555556,,,,,,,,,,,,,4,1.81,0,63,63,54,1,,,,,,,,,,,,,,,,,,,,,,,,,,,,,,,,,,,,,,,,,,,,,,,,,,,,,,,,,,,,,,,,,,,,,,
,,,,9,1.428,,,,,,194,cactus,cactus,CHECK,90441,001,2022-04-24_17h53.29.893,SPAMnetsValid,2021.1.4,MacIntel,55.55555556,,,,,,,,,,,,,9,1.428,0,64,64,25,1,,,,,,,,,,,,,,,,,,,,,,,,,,,,,,,,,,,,,,,,,,,,,,,,,,,,,,,,,,,,,,,,,,,,,,
,,,,7,3.925,,,,,,181,carrot,kitchen,,90441,001,2022-04-24_17h53.29.893,SPAMnetsValid,2021.1.4,MacIntel,55.55555556,,,,,,,,,,,,,7,3.925,0,65,65,72,1,,,,,,,,,,,,,,,,,,,,,,,,,,,,,,,,,,,,,,,,,,,,,,,,,,,,,,,,,,,,,,,,,,,,,,
,,,,9,1.697,,,,,,167,carrot,garden,,90441,001,2022-04-24_17h53.29.893,SPAMnetsValid,2021.1.4,MacIntel,55.55555556,,,,,,,,,,,,,9,1.697,0,66,66,47,1,,,,,,,,,,,,,,,,,,,,,,,,,,,,,,,,,,,,,,,,,,,,,,,,,,,,,,,,,,,,,,,,,,,,,,
,,,,6,2.473,,,,,,147,cake,refrigerator,,90441,001,2022-04-24_17h53.29.893,SPAMnetsValid,2021.1.4,MacIntel,55.55555556,,,,,,,,,,,,,6,2.473,0,67,67,35,1,,,,,,,,,,,,,,,,,,,,,,,,,,,,,,,,,,,,,,,,,,,,,,,,,,,,,,,,,,,,,,,,,,,,,,
,,,,9,1.626,,,,,,112,cake,carrot,,90441,001,2022-04-24_17h53.29.893,SPAMnetsValid,2021.1.4,MacIntel,55.55555556,,,,,,,,,,,,,9,1.626,0,68,68,39,1,,,,,,,,,,,,,,,,,,,,,,,,,,,,,,,,,,,,,,,,,,,,,,,,,,,,,,,,,,,,,,,,,,,,,,
,,,,1,4.01,,,,,,127,cactus,chocolate,,90441,001,2022-04-24_17h53.29.893,SPAMnetsValid,2021.1.4,MacIntel,55.55555556,,,,,,,,,,,,,1,4.01,0,69,69,57,1,,,,,,,,,,,,,,,,,,,,,,,,,,,,,,,,,,,,,,,,,,,,,,,,,,,,,,,,,,,,,,,,,,,,,,
,,,,8,2.909,,,,,,113,refrigerator,strawberry,,90441,001,2022-04-24_17h53.29.893,SPAMnetsValid,2021.1.4,MacIntel,55.55555556,,,,,,,,,,,,,8,2.909,0,70,70,56,1,,,,,,,,,,,,,,,,,,,,,,,,,,,,,,,,,,,,,,,,,,,,,,,,,,,,,,,,,,,,,,,,,,,,,,
,,,,9,1.748,,,,,,193,melon,melon,CHECK,90441,001,2022-04-24_17h53.29.893,SPAMnetsValid,2021.1.4,MacIntel,55.55555556,,,,,,,,,,,,,9,1.748,0,71,71,86,1,,,,,,,,,,,,,,,,,,,,,,,,,,,,,,,,,,,,,,,,,,,,,,,,,,,,,,,,,,,,,,,,,,,,,,
,,,,6,2.943,,,,,,161,kitchen,pretzel,,90441,001,2022-04-24_17h53.29.893,SPAMnetsValid,2021.1.4,MacIntel,55.55555556,,,,,,,,,,,,,6,2.943,0,72,72,36,1,,,,,,,,,,,,,,,,,,,,,,,,,,,,,,,,,,,,,,,,,,,,,,,,,,,,,,,,,,,,,,,,,,,,,,
,,,,9,1.473,,,,,,102,chocolate,refrigerator,,90441,001,2022-04-24_17h53.29.893,SPAMnetsValid,2021.1.4,MacIntel,55.55555556,,,,,,,,,,,,,9,1.473,0,73,73,76,1,,,,,,,,,,,,,,,,,,,,,,,,,,,,,,,,,,,,,,,,,,,,,,,,,,,,,,,,,,,,,,,,,,,,,,
,,,,3,2.492,,,,,,146,pretzel,tree,,90441,001,2022-04-24_17h53.29.893,SPAMnetsValid,2021.1.4,MacIntel,55.55555556,,,,,,,,,,,,,3,2.492,0,74,74,80,1,,,,,,,,,,,,,,,,,,,,,,,,,,,,,,,,,,,,,,,,,,,,,,,,,,,,,,,,,,,,,,,,,,,,,,
,,,,9,1.992,,,,,,116,cake,chocolate,,90441,001,2022-04-24_17h53.29.893,SPAMnetsValid,2021.1.4,MacIntel,55.55555556,,,,,,,,,,,,,9,1.992,0,75,75,44,1,,,,,,,,,,,,,,,,,,,,,,,,,,,,,,,,,,,,,,,,,,,,,,,,,,,,,,,,,,,,,,,,,,,,,,
,,,,9,1.529,,,,,,106,cake,strawberry,,90441,001,2022-04-24_17h53.29.893,SPAMnetsValid,2021.1.4,MacIntel,55.55555556,,,,,,,,,,,,,9,1.529,0,76,76,0,1,,,,,,,,,,,,,,,,,,,,,,,,,,,,,,,,,,,,,,,,,,,,,,,,,,,,,,,,,,,,,,,,,,,,,,
,,,,1,2.028,,,,,,109,broom,strawberry,,90441,001,2022-04-24_17h53.29.893,SPAMnetsValid,2021.1.4,MacIntel,55.55555556,,,,,,,,,,,,,1,2.028,0,77,77,4,1,,,,,,,,,,,,,,,,,,,,,,,,,,,,,,,,,,,,,,,,,,,,,,,,,,,,,,,,,,,,,,,,,,,,,,
,,,,5,3.409,,,,,,148,flower,melon,,90441,001,2022-04-24_17h53.29.893,SPAMnetsValid,2021.1.4,MacIntel,55.55555556,,,,,,,,,,,,,5,3.409,0,78,78,23,1,,,,,,,,,,,,,,,,,,,,,,,,,,,,,,,,,,,,,,,,,,,,,,,,,,,,,,,,,,,,,,,,,,,,,,
,,,,2,3.025,,,,,,129,cactus,refrigerator,,90441,001,2022-04-24_17h53.29.893,SPAMnetsValid,2021.1.4,MacIntel,55.55555556,,,,,,,,,,,,,2,3.025,0,79,79,3,1,,,,,,,,,,,,,,,,,,,,,,,,,,,,,,,,,,,,,,,,,,,,,,,,,,,,,,,,,,,,,,,,,,,,,,
,,,,3,2.259,,,,,,189,onion,tree,,90441,001,2022-04-24_17h53.29.893,SPAMnetsValid,2021.1.4,MacIntel,55.55555556,,,,,,,,,,,,,3,2.259,0,80,80,62,1,,,,,,,,,,,,,,,,,,,,,,,,,,,,,,,,,,,,,,,,,,,,,,,,,,,,,,,,,,,,,,,,,,,,,,
,,,,5,5.466,,,,,,125,carrot,tree,,90441,001,2022-04-24_17h53.29.893,SPAMnetsValid,2021.1.4,MacIntel,55.55555556,,,,,,,,,,,,,5,5.466,0,81,81,30,1,,,,,,,,,,,,,,,,,,,,,,,,,,,,,,,,,,,,,,,,,,,,,,,,,,,,,,,,,,,,,,,,,,,,,,
,,,,4,6.873,,,,,,178,cactus,carrot,,90441,001,2022-04-24_17h53.29.893,SPAMnetsValid,2021.1.4,MacIntel,55.55555556,,,,,,,,,,,,,4,6.873,0,82,82,75,1,,,,,,,,,,,,,,,,,,,,,,,,,,,,,,,,,,,,,,,,,,,,,,,,,,,,,,,,,,,,,,,,,,,,,,
,,,,7,2.212,,,,,,188,flower,tree,,90441,001,2022-04-24_17h53.29.893,SPAMnetsValid,2021.1.4,MacIntel,55.55555556,,,,,,,,,,,,,7,2.212,0,83,83,7,1,,,,,,,,,,,,,,,,,,,,,,,,,,,,,,,,,,,,,,,,,,,,,,,,,,,,,,,,,,,,,,,,,,,,,,
,,,,1,1.331,,,,,,190,microwave,strawberry,,90441,001,2022-04-24_17h53.29.893,SPAMnetsValid,2021.1.4,MacIntel,55.55555556,,,,,,,,,,,,,1,1.331,0,84,84,90,1,,,,,,,,,,,,,,,,,,,,,,,,,,,,,,,,,,,,,,,,,,,,,,,,,,,,,,,,,,,,,,,,,,,,,,
,,,,7,1.645,,,,,,166,cake,yogurt,,90441,001,2022-04-24_17h53.29.893,SPAMnetsValid,2021.1.4,MacIntel,55.55555556,,,,,,,,,,,,,7,1.645,0,85,85,91,1,,,,,,,,,,,,,,,,,,,,,,,,,,,,,,,,,,,,,,,,,,,,,,,,,,,,,,,,,,,,,,,,,,,,,,
,,,,1,2.494,,,,,,144,cake,garden,,90441,001,2022-04-24_17h53.29.893,SPAMnetsValid,2021.1.4,MacIntel,55.55555556,,,,,,,,,,,,,1,2.494,0,86,86,58,1,,,,,,,,,,,,,,,,,,,,,,,,,,,,,,,,,,,,,,,,,,,,,,,,,,,,,,,,,,,,,,,,,,,,,,
,,,,8,2.198,,,,,,99,garden,melon,,90441,001,2022-04-24_17h53.29.893,SPAMnetsValid,2021.1.4,MacIntel,55.55555556,,,,,,,,,,,,,8,2.198,0,87,87,17,1,,,,,,,,,,,,,,,,,,,,,,,,,,,,,,,,,,,,,,,,,,,,,,,,,,,,,,,,,,,,,,,,,,,,,,
,,,,3,2.661,,,,,,182,flower,refrigerator,,90441,001,2022-04-24_17h53.29.893,SPAMnetsValid,2021.1.4,MacIntel,55.55555556,,,,,,,,,,,,,3,2.661,0,88,88,32,1,,,,,,,,,,,,,,,,,,,,,,,,,,,,,,,,,,,,,,,,,,,,,,,,,,,,,,,,,,,,,,,,,,,,,,
,,,,6,4.595,,,,,,119,strawberry,tree,,90441,001,2022-04-24_17h53.29.893,SPAMnetsValid,2021.1.4,MacIntel,55.55555556,,,,,,,,,,,,,6,4.595,0,89,89,18,1,,,,,,,,,,,,,,,,,,,,,,,,,,,,,,,,,,,,,,,,,,,,,,,,,,,,,,,,,,,,,,,,,,,,,,
,,,,1,3.911,,,,,,157,refrigerator,rose,,90441,001,2022-04-24_17h53.29.893,SPAMnetsValid,2021.1.4,MacIntel,55.55555556,,,,,,,,,,,,,1,3.911,0,90,90,64,1,,,,,,,,,,,,,,,,,,,,,,,,,,,,,,,,,,,,,,,,,,,,,,,,,,,,,,,,,,,,,,,,,,,,,,
,,,,3,1.811,,,,,,140,cookie,refrigerator,,90441,001,2022-04-24_17h53.29.893,SPAMnetsValid,2021.1.4,MacIntel,55.55555556,,,,,,,,,,,,,3,1.811,0,91,91,89,1,,,,,,,,,,,,,,,,,,,,,,,,,,,,,,,,,,,,,,,,,,,,,,,,,,,,,,,,,,,,,,,,,,,,,,
,,,,3,3.646,,,,,,133,cake,flower,,90441,001,2022-04-24_17h53.29.893,SPAMnetsValid,2021.1.4,MacIntel,55.55555556,,,,,,,,,,,,,3,3.646,0,92,92,94,1,,,,,,,,,,,,,,,,,,,,,,,,,,,,,,,,,,,,,,,,,,,,,,,,,,,,,,,,,,,,,,,,,,,,,,
,,,,4,2.976,,,,,,98,pretzel,strawberry,,90441,001,2022-04-24_17h53.29.893,SPAMnetsValid,2021.1.4,MacIntel,55.55555556,,,,,,,,,,,,,4,2.976,0,93,93,82,1,,,,,,,,,,,,,,,,,,,,,,,,,,,,,,,,,,,,,,,,,,,,,,,,,,,,,,,,,,,,,,,,,,,,,,
,,,,1,1.696,,,,,,143,pretzel,rose,,90441,001,2022-04-24_17h53.29.893,SPAMnetsValid,2021.1.4,MacIntel,55.55555556,,,,,,,,,,,,,1,1.696,0,94,94,55,1,,,,,,,,,,,,,,,,,,,,,,,,,,,,,,,,,,,,,,,,,,,,,,,,,,,,,,,,,,,,,,,,,,,,,,
,,,,1,1.894,,,,,,121,broom,microwave,,90441,001,2022-04-24_17h53.29.893,SPAMnetsValid,2021.1.4,MacIntel,55.55555556,,,,,,,,,,,,,1,1.894,0,95,95,95,1,,,,,,,,,,,,,,,,,,,,,,,,,,,,,,,,,,,,,,,,,,,,,,,,,,,,,,,,,,,,,,,,,,,,,,
,,,,1,3.097,,,,,,145,cactus,yogurt,,90441,001,2022-04-24_17h53.29.893,SPAMnetsValid,2021.1.4,MacIntel,55.55555556,,,,,,,,,,,,,1,3.097,0,96,96,15,1,,,,,,,,,,,,,,,,,,,,,,,,,,,,,,,,,,,,,,,,,,,,,,,,,,,,,,,,,,,,,,,,,,,,,,
,,,,,,,,,,,,,,,90441,001,2022-04-24_17h53.29.893,SPAMnetsValid,2021.1.4,MacIntel,55.55555556,,,,,,,,,,,,,,,,,,,,0,0,0,0,1,,,,,,,,,,,,,,,,,,,,,,,,,,,,,,,,,,,,,,,,,,,,,,,,,,,,,,,,,,,,,,,,,
,,,,,,,,,,,,,,,90441,001,2022-04-24_17h53.29.893,SPAMnetsValid,2021.1.4,MacIntel,55.55555556,,,,,,0,1,1,1,1,0,1,,,,,,,,,,,,,,,,,,,,,,,,,,,,,,,,,,,,,,,,,,,,,,,,,,,,,,,,,,,,,,,,,,,,,,,,,,,,,
,,,,,,,,,,,,,,,90441,001,2022-04-24_17h53.29.893,SPAMnetsValid,2021.1.4,MacIntel,55.55555556,,,,,,,,,,,,,,,,,,,,,,,,,2,2.67,0,0,0,0,1,rancor,forbearance,ridicule,malice,bravery,3,,,,,,,,,,,,,,,,,,,,,,,,,,,,,,,,,,,,,,,,,,,,,,,,,,,,
,,,,,,,,,,,,,,,90441,001,2022-04-24_17h53.29.893,SPAMnetsValid,2021.1.4,MacIntel,55.55555556,,,,,,,,,,,,,,,,,,,,,,,,,4,5.029,0,1,1,1,1,raucous,empty,quiet,smooth,harsh,4,,,,,,,,,,,,,,,,,,,,,,,,,,,,,,,,,,,,,,,,,,,,,,,,,,,,
,,,,,,,,,,,,,,,90441,001,2022-04-24_17h53.29.893,SPAMnetsValid,2021.1.4,MacIntel,55.55555556,,,,,,,,,,,,,,,,,,,,,,,,,3,4.997,0,2,2,2,1,gargoyle,oil,medicine,carved waterspout,ugly building,3,,,,,,,,,,,,,,,,,,,,,,,,,,,,,,,,,,,,,,,,,,,,,,,,,,,,
,,,,,,,,,,,,,,,90441,001,2022-04-24_17h53.29.893,SPAMnetsValid,2021.1.4,MacIntel,55.55555556,,,,,,,,,,,,,,,,,,,,,,,,,2,5.259,0,3,3,3,1,recrudesce,purify,renew activity,lack refinement,crush,2,,,,,,,,,,,,,,,,,,,,,,,,,,,,,,,,,,,,,,,,,,,,,,,,,,,,
,,,,,,,,,,,,,,,90441,001,2022-04-24_17h53.29.893,SPAMnetsValid,2021.1.4,MacIntel,55.55555556,,,,,,,,,,,,,,,,,,,,,,,,,3,2.862,0,4,4,4,1,specious,"plausible, but not genuine",noteworthy,class or variety,roomy,1,,,,,,,,,,,,,,,,,,,,,,,,,,,,,,,,,,,,,,,,,,,,,,,,,,,,
,,,,,,,,,,,,,,,90441,001,2022-04-24_17h53.29.893,SPAMnetsValid,2021.1.4,MacIntel,55.55555556,,,,,,,,,,,,,,,,,,,,,,,,,3,5.577,0,5,5,5,1,bauble,bubble,showy plaything,idle talk,confusion,2,,,,,,,,,,,,,,,,,,,,,,,,,,,,,,,,,,,,,,,,,,,,,,,,,,,,
,,,,,,,,,,,,,,,90441,001,2022-04-24_17h53.29.893,SPAMnetsValid,2021.1.4,MacIntel,55.55555556,,,,,,,,,,,,,,,,,,,,,,,,,4,7.513,0,6,6,6,1,prolific,scarce,producing abundantly,reckless,speaking profanely,2,,,,,,,,,,,,,,,,,,,,,,,,,,,,,,,,,,,,,,,,,,,,,,,,,,,,
,,,,,,,,,,,,,,,90441,001,2022-04-24_17h53.29.893,SPAMnetsValid,2021.1.4,MacIntel,55.55555556,,,,,,,,,,,,,,,,,,,,,,,,,2,2.744,0,7,7,7,1,opulent,party,wealthy,happy frame of mind,semiprecious stone,2,,,,,,,,,,,,,,,,,,,,,,,,,,,,,,,,,,,,,,,,,,,,,,,,,,,,
,,,,,,,,,,,,,,,90441,001,2022-04-24_17h53.29.893,SPAMnetsValid,2021.1.4,MacIntel,55.55555556,,,,,,,,,,,,,,,,,,,,,,,,,1,5.259,0,8,8,8,1,coercion,conspiracy,strategy,restraint,attraction,3,,,,,,,,,,,,,,,,,,,,,,,,,,,,,,,,,,,,,,,,,,,,,,,,,,,,
,,,,,,,,,,,,,,,90441,001,2022-04-24_17h53.29.893,SPAMnetsValid,2021.1.4,MacIntel,55.55555556,,,,,,,,,,,,,,,,,,,,,,,,,4,5.415,0,9,9,9,1,hiatus,animal,calamity,dread,gap,4,,,,,,,,,,,,,,,,,,,,,,,,,,,,,,,,,,,,,,,,,,,,,,,,,,,,
,,,,,,,,,,,,,,,90441,001,2022-04-24_17h53.29.893,SPAMnetsValid,2021.1.4,MacIntel,55.55555556,,,,,,,,,,,,,,,,,,,,,,,,,1,9.429,0,10,10,10,1,germane,microbe,contagious,relevant,different,3,,,,,,,,,,,,,,,,,,,,,,,,,,,,,,,,,,,,,,,,,,,,,,,,,,,,
,,,,,,,,,,,,,,,90441,001,2022-04-24_17h53.29.893,SPAMnetsValid,2021.1.4,MacIntel,55.55555556,,,,,,,,,,,,,,,,,,,,,,,,,1,5.143,0,11,11,11,1,perfunctory,fundamental,formal,superficial,careful,3,,,,,,,,,,,,,,,,,,,,,,,,,,,,,,,,,,,,,,,,,,,,,,,,,,,,
,,,,,,,,,,,,,,,90441,001,2022-04-24_17h53.29.893,SPAMnetsValid,2021.1.4,MacIntel,55.55555556,,,,,,,,,,,,,,,,,,,,,,,,,4,5.431,0,12,12,12,1,diverge,reveal,chant,distract the attention of,differ or turn off from,4,,,,,,,,,,,,,,,,,,,,,,,,,,,,,,,,,,,,,,,,,,,,,,,,,,,,
,,,,,,,,,,,,,,,90441,001,2022-04-24_17h53.29.893,SPAMnetsValid,2021.1.4,MacIntel,55.55555556,,,,,,,,,,,,,,,,,,,,,,,,,4,4.012,0,13,13,13,1,evoke,take away,anger,connect,bring out,4,,,,,,,,,,,,,,,,,,,,,,,,,,,,,,,,,,,,,,,,,,,,,,,,,,,,
,,,,,,,,,,,,,,,90441,001,2022-04-24_17h53.29.893,SPAMnetsValid,2021.1.4,MacIntel,55.55555556,,,,,,,,,,,,,,,,,,,,,,,,,1,4.364,0,14,14,14,1,pertinent,relevant,lying next to,necessary,bold,1,,,,,,,,,,,,,,,,,,,,,,,,,,,,,,,,,,,,,,,,,,,,,,,,,,,,
,,,,,,,,,,,,,,,90441,001,2022-04-24_17h53.29.893,SPAMnetsValid,2021.1.4,MacIntel,55.55555556,,,,,,,,,,,,,,,,,,,,,,,,,2,2.846,0,15,15,15,1,holocaust,entirety,destruction,saintly,price,2,,,,,,,,,,,,,,,,,,,,,,,,,,,,,,,,,,,,,,,,,,,,,,,,,,,,
,,,,,,,,,,,,,,,90441,001,2022-04-24_17h53.29.893,SPAMnetsValid,2021.1.4,MacIntel,55.55555556,,,,,,,,,,,,,,,,,,,,,,,,,1,6.833,0,16,16,16,1,piquant,mellow,fish,pungent,cloth,3,,,,,,,,,,,,,,,,,,,,,,,,,,,,,,,,,,,,,,,,,,,,,,,,,,,,
,,,,,,,,,,,,,,,90441,001,2022-04-24_17h53.29.893,SPAMnetsValid,2021.1.4,MacIntel,55.55555556,,,,,,,,,,,,,,,,,,,,,,,,,3,2.875,0,17,17,17,1,firmament,foundation,heavens,strong,glue,2,,,,,,,,,,,,,,,,,,,,,,,,,,,,,,,,,,,,,,,,,,,,,,,,,,,,
,,,,,,,,,,,,,,,90441,001,2022-04-24_17h53.29.893,SPAMnetsValid,2021.1.4,MacIntel,55.55555556,,,,,,,,,,,,,,,,,,,,,,,,,,,,,,,,,,,,,,4,2.216,0,0,0,0,1,marketable,partisan,jocular,marriageable,salable,essential,4,,,,,,,,,,,,,,,,,,,,,,,,,,,,,,,,,,,,,,
,,,,,,,,,,,,,,,90441,001,2022-04-24_17h53.29.893,SPAMnetsValid,2021.1.4,MacIntel,55.55555556,,,,,,,,,,,,,,,,,,,,,,,,,,,,,,,,,,,,,,5,4.947,0,1,1,1,1,cottontail,squirrel,poplar,boa,marshy plant,rabbit,5,,,,,,,,,,,,,,,,,,,,,,,,,,,,,,,,,,,,,,
,,,,,,,,,,,,,,,90441,001,2022-04-24_17h53.29.893,SPAMnetsValid,2021.1.4,MacIntel,55.55555556,,,,,,,,,,,,,,,,,,,,,,,,,,,,,,,,,,,,,,3,3.798,0,2,2,2,1,boggy,afraid,false,marshy,dense,black,3,,,,,,,,,,,,,,,,,,,,,,,,,,,,,,,,,,,,,,
,,,,,,,,,,,,,,,90441,001,2022-04-24_17h53.29.893,SPAMnetsValid,2021.1.4,MacIntel,55.55555556,,,,,,,,,,,,,,,,,,,,,,,,,,,,,,,,,,,,,,5,3.46,0,3,3,3,1,gruesomeness,blackness,falseness,vindictiveness,drunkenness,ghastliness,5,,,,,,,,,,,,,,,,,,,,,,,,,,,,,,,,,,,,,,
,,,,,,,,,,,,,,,90441,001,2022-04-24_17h53.29.893,SPAMnetsValid,2021.1.4,MacIntel,55.55555556,,,,,,,,,,,,,,,,,,,,,,,,,,,,,,,,,,,,,,5,7.642,0,4,4,4,1,loathing,diffidence,laziness,abhorrence,cleverness,comfort,3,,,,,,,,,,,,,,,,,,,,,,,,,,,,,,,,,,,,,,
,,,,,,,,,,,,,,,90441,001,2022-04-24_17h53.29.893,SPAMnetsValid,2021.1.4,MacIntel,55.55555556,,,,,,,,,,,,,,,,,,,,,,,,,,,,,,,,,,,,,,2,4.947,0,5,5,5,1,bantam,fowl,ridicule,cripple,vegetable,ensign,1,,,,,,,,,,,,,,,,,,,,,,,,,,,,,,,,,,,,,,
,,,,,,,,,,,,,,,90441,001,2022-04-24_17h53.29.893,SPAMnetsValid,2021.1.4,MacIntel,55.55555556,,,,,,,,,,,,,,,,,,,,,,,,,,,,,,,,,,,,,,5,5.715,0,6,6,6,1,evoke,wake up,surrender,reconnoiter,transcend,call forth,5,,,,,,,,,,,,,,,,,,,,,,,,,,,,,,,,,,,,,,
,,,,,,,,,,,,,,,90441,001,2022-04-24_17h53.29.893,SPAMnetsValid,2021.1.4,MacIntel,55.55555556,,,,,,,,,,,,,,,,,,,,,,,,,,,,,,,,,,,,,,3,6.495,0,7,7,7,1,unobtrusive,unintelligent,epileptic,illogical,lineal,modest,5,,,,,,,,,,,,,,,,,,,,,,,,,,,,,,,,,,,,,,
,,,,,,,,,,,,,,,90441,001,2022-04-24_17h53.29.893,SPAMnetsValid,2021.1.4,MacIntel,55.55555556,,,,,,,,,,,,,,,,,,,,,,,,,,,,,,,,,,,,,,4,2.213,0,8,8,8,1,terrain,ice cream,final test,tractor,area of ground,weight,4,,,,,,,,,,,,,,,,,,,,,,,,,,,,,,,,,,,,,,
,,,,,,,,,,,,,,,90441,001,2022-04-24_17h53.29.893,SPAMnetsValid,2021.1.4,MacIntel,55.55555556,,,,,,,,,,,,,,,,,,,,,,,,,,,,,,,,,,,,,,3,3.843,0,9,9,9,1,capriciousness,stubbornness,courage,whimsicality,amazement,greediness,3,,,,,,,,,,,,,,,,,,,,,,,,,,,,,,,,,,,,,,
,,,,,,,,,,,,,,,90441,001,2022-04-24_17h53.29.893,SPAMnetsValid,2021.1.4,MacIntel,55.55555556,,,,,,,,,,,,,,,,,,,,,,,,,,,,,,,,,,,,,,3,8.695,0,10,10,10,1,maelstrom,slander,whirlpool,enmity,armor,majolica,2,,,,,,,,,,,,,,,,,,,,,,,,,,,,,,,,,,,,,,
,,,,,,,,,,,,,,,90441,001,2022-04-24_17h53.29.893,SPAMnetsValid,2021.1.4,MacIntel,55.55555556,,,,,,,,,,,,,,,,,,,,,,,,,,,,,,,,,,,,,,1,4.597,0,11,11,11,1,tentative,critical,conclusive,authentic,provisional,apprehensive,4,,,,,,,,,,,,,,,,,,,,,,,,,,,,,,,,,,,,,,
,,,,,,,,,,,,,,,90441,001,2022-04-24_17h53.29.893,SPAMnetsValid,2021.1.4,MacIntel,55.55555556,,,,,,,,,,,,,,,,,,,,,,,,,,,,,,,,,,,,,,4,3.765,0,12,12,12,1,placate,rehabilitate,plagiarize,depredate,apprise,conciliate,5,,,,,,,,,,,,,,,,,,,,,,,,,,,,,,,,,,,,,,
,,,,,,,,,,,,,,,90441,001,2022-04-24_17h53.29.893,SPAMnetsValid,2021.1.4,MacIntel,55.55555556,,,,,,,,,,,,,,,,,,,,,,,,,,,,,,,,,,,,,,4,2.827,0,13,13,13,1,surcease,enlightenment,cessation,inattention,censor,substitution,2,,,,,,,,,,,,,,,,,,,,,,,,,,,,,,,,,,,,,,
,,,,,,,,,,,,,,,90441,001,2022-04-24_17h53.29.893,SPAMnetsValid,2021.1.4,MacIntel,55.55555556,,,,,,,,,,,,,,,,,,,,,,,,,,,,,,,,,,,,,,4,10.863,0,14,14,14,1,apathetic,wandering,impassive,hateful,prophetic,overflowing,2,,,,,,,,,,,,,,,,,,,,,,,,,,,,,,,,,,,,,,
,,,,,,,,,,,,,,,90441,001,2022-04-24_17h53.29.893,SPAMnetsValid,2021.1.4,MacIntel,55.55555556,,,,,,,,,,,,,,,,,,,,,,,,,,,,,,,,,,,,,,4,3.798,0,15,15,15,1,paternoster,paternalism,patricide,malediction,benediction,prayer,5,,,,,,,,,,,,,,,,,,,,,,,,,,,,,,,,,,,,,,
,,,,,,,,,,,,,,,90441,001,2022-04-24_17h53.29.893,SPAMnetsValid,2021.1.4,MacIntel,55.55555556,,,,,,,,,,,,,,,,,,,,,,,,,,,,,,,,,,,,,,5,1.979,0,16,16,16,1,opalescence,opulence,senescence,bankruptcy,iridescence,assiduity,4,,,,,,,,,,,,,,,,,,,,,,,,,,,,,,,,,,,,,,
,,,,,,,,,,,,,,,90441,001,2022-04-24_17h53.29.893,SPAMnetsValid,2021.1.4,MacIntel,55.55555556,,,,,,,,,,,,,,,,,,,,,,,,,,,,,,,,,,,,,,2,4.893,0,17,17,17,1,lush,stupid,luxurious,hazy,putrid,languishing,2,,,,,,,,,,,,,,,,,,,,,,,,,,,,,,,,,,,,,,
,,,,,,,,,,,,,,,90441,001,2022-04-24_17h53.29.893,SPAMnetsValid,2021.1.4,MacIntel,55.55555556,,,,,,,,,,,,,,,,,,,,,,,,,,,,,,,,,,,,,,5,5.559,0,18,18,18,1,curtailment,expenditure,abandonment,abridgment,improvement,forgery,3,,,,,,,,,,,,,,,,,,,,,,,,,,,,,,,,,,,,,,
,,,,,,,,,,,,,,,90441,001,2022-04-24_17h53.29.893,SPAMnetsValid,2021.1.4,MacIntel,55.55555556,,,,,,,,,,,,,,,,,,,,,,,,,,,,,,,,,,,,,,2,3.062,0,19,19,19,1,perversity,adversity,perviousness,travesty,waywardness,gentility,4,,,,,,,,,,,,,,,,,,,,,,,,,,,,,,,,,,,,,,
,,,,,,,,,,,,,,,90441,001,2022-04-24_17h53.29.893,SPAMnetsValid,2021.1.4,MacIntel,55.55555556,,,,,,,,,,,,,,,,,,,,,,,,,,,,,,,,,,,,,,1,4.965,0,20,20,20,1,calumnious,complimentary,analogous,slanderous,tempestuous,magnanimous,3,,,,,,,,,,,,,,,,,,,,,,,,,,,,,,,,,,,,,,
,,,,,,,,,,,,,,,90441,001,2022-04-24_17h53.29.893,SPAMnetsValid,2021.1.4,MacIntel,55.55555556,,,,,,,,,,,,,,,,,,,,,,,,,,,,,,,,,,,,,,3,3.398,0,21,21,21,1,illiberality,bigotry,imbecility,illegibility,cautery,immaturity,1,,,,,,,,,,,,,,,,,,,,,,,,,,,,,,,,,,,,,,
,,,,,,,,,,,,,,,90441,001,2022-04-24_17h53.29.893,SPAMnetsValid,2021.1.4,MacIntel,55.55555556,,,,,,,,,,,,,,,,,,,,,,,,,,,,,,,,,,,,,,1,5.828,0,22,22,22,1,clabber,rejoice,gossip,curdle,crow,hobble,3,,,,,,,,,,,,,,,,,,,,,,,,,,,,,,,,,,,,,,
,,,,,,,,,,,,,,,90441,001,2022-04-24_17h53.29.893,SPAMnetsValid,2021.1.4,MacIntel,55.55555556,,,,,,,,,,,,,,,,,,,,,,,,,,,,,,,,,,,,,,,,0,23,23,23,1,sedulousness,diligence,credulousness,seduction,perilousness,frankness,1,,,,,,,,,,,,,,,,,,,,,,,,,,,,,,,,,,,,,,
,,,,,,,,,,,,,,,90441,001,2022-04-24_17h53.29.893,SPAMnetsValid,2021.1.4,MacIntel,55.55555556,,,,,,,,,,,,,,,,,,,,,,,,,,,,,,,,,,,,,,,,,,,,,,,,,,,,"sleep,posture,comfort,fight",pillow,0,0,0,0,1,,,,,,,,,,,,,,,,,,,,,,,,,,,,,,,
,,,,,,,,,,,,,,,90441,001,2022-04-24_17h53.29.893,SPAMnetsValid,2021.1.4,MacIntel,55.55555556,,,,,,,,,,,,,,,,,,,,,,,,,,,,,,,,,,,,,,,,,,,,,,,,,,,,comfort,pillow,1,0,1,0,1,,,,,,,,,,,,,,,,,,,,,,,,,,,,,,,
,,,,,,,,,,,,,,,90441,001,2022-04-24_17h53.29.893,SPAMnetsValid,2021.1.4,MacIntel,55.55555556,,,,,,,,,,,,,,,,,,,,,,,,,,,,,,,,,,,,,,,,,,,,,,,,,,,,fight,pillow,2,0,2,0,1,,,,,,,,,,,,,,,,,,,,,,,,,,,,,,,
,,,,,,,,,,,,,,,90441,001,2022-04-24_17h53.29.893,SPAMnetsValid,2021.1.4,MacIntel,55.55555556,,,,,,,,,,,,,,,,,,,,,,,,,,,,,,,,,,,,,,,,,,,,,,,,,,,,lay,pillow,3,0,3,0,1,,,,,,,,,,,,,,,,,,,,,,,,,,,,,,,
,,,,,,,,,,,,,,,90441,001,2022-04-24_17h53.29.893,SPAMnetsValid,2021.1.4,MacIntel,55.55555556,,,,,,,,,,,,,,,,,,,,,,,,,,,,,,,,,,,,,,,,,,,,,,,,,,,,art,pillow,4,0,4,0,1,,,,,,,,,,,,,,,,,,,,,,,,,,,,,,,
,,,,,,,,,,,,,,,90441,001,2022-04-24_17h53.29.893,SPAMnetsValid,2021.1.4,MacIntel,55.55555556,,,,,,,,,,,,,,,,,,,,,,,,,,,,,,,,,,,,,,,,,,,,,,,,,,,,design room,pillow,5,0,5,0,1,,,,,,,,,,,,,,,,,,,,,,,,,,,,,,,
,,,,,,,,,,,,,,,90441,001,2022-04-24_17h53.29.893,SPAMnetsValid,2021.1.4,MacIntel,55.55555556,,,,,,,,,,,,,,,,,,,,,,,,,,,,,,,,,,,,,,,,,,,,,,,,,,,,hiding spot,pillow,6,0,6,0,1,,,,,,,,,,,,,,,,,,,,,,,,,,,,,,,
,,,,,,,,,,,,,,,90441,001,2022-04-24_17h53.29.893,SPAMnetsValid,2021.1.4,MacIntel,55.55555556,,,,,,,,,,,,,,,,,,,,,,,,,,,,,,,,,,,,,,,,,,,,,,,,,,,,back support,pillow,7,0,7,0,1,,,,,,,,,,,,,,,,,,,,,,,,,,,,,,,
,,,,,,,,,,,,,,,90441,001,2022-04-24_17h53.29.893,SPAMnetsValid,2021.1.4,MacIntel,55.55555556,,,,,,,,,,,,,,,,,,,,,,,,,,,,,,,,,,,,,,,,,,,,,,,,,,,,alignment of the spine,pillow,8,0,8,0,1,,,,,,,,,,,,,,,,,,,,,,,,,,,,,,,
,,,,,,,,,,,,,,,90441,001,2022-04-24_17h53.29.893,SPAMnetsValid,2021.1.4,MacIntel,55.55555556,,,,,,,,,,,,,,,,,,,,,,,,,,,,,,,,,,,,,,,,,,,,,,,,,,,,,,,,,,,0,0,0,2,1,pillow,,,,,,,,,,,,,,,,,,,,,,,,,
,,,,,,,,,,,,,,,90441,001,2022-04-24_17h53.29.893,SPAMnetsValid,2021.1.4,MacIntel,55.55555556,,,,,,,,,,,,,,,,,,,,,,,,,,,,,,,,,,,,,,,,,,,,,,,,,,,,light,candle,0,0,0,0,1,,,,,,,,,,,,,,,,,,,,,,,,,,,,,,,
,,,,,,,,,,,,,,,90441,001,2022-04-24_17h53.29.893,SPAMnetsValid,2021.1.4,MacIntel,55.55555556,,,,,,,,,,,,,,,,,,,,,,,,,,,,,,,,,,,,,,,,,,,,,,,,,,,,to get wax,candle,1,0,1,0,1,,,,,,,,,,,,,,,,,,,,,,,,,,,,,,,
,,,,,,,,,,,,,,,90441,001,2022-04-24_17h53.29.893,SPAMnetsValid,2021.1.4,MacIntel,55.55555556,,,,,,,,,,,,,,,,,,,,,,,,,,,,,,,,,,,,,,,,,,,,,,,,,,,,heat source,candle,2,0,2,0,1,,,,,,,,,,,,,,,,,,,,,,,,,,,,,,,
,,,,,,,,,,,,,,,90441,001,2022-04-24_17h53.29.893,SPAMnetsValid,2021.1.4,MacIntel,55.55555556,,,,,,,,,,,,,,,,,,,,,,,,,,,,,,,,,,,,,,,,,,,,,,,,,,,,decorationn,candle,3,0,3,0,1,,,,,,,,,,,,,,,,,,,,,,,,,,,,,,,
,,,,,,,,,,,,,,,90441,001,2022-04-24_17h53.29.893,SPAMnetsValid,2021.1.4,MacIntel,55.55555556,,,,,,,,,,,,,,,,,,,,,,,,,,,,,,,,,,,,,,,,,,,,,,,,,,,,for smell,candle,4,0,4,0,1,,,,,,,,,,,,,,,,,,,,,,,,,,,,,,,
,,,,,,,,,,,,,,,90441,001,2022-04-24_17h53.29.893,SPAMnetsValid,2021.1.4,MacIntel,55.55555556,,,,,,,,,,,,,,,,,,,,,,,,,,,,,,,,,,,,,,,,,,,,,,,,,,,,hide certain odors,candle,5,0,5,0,1,,,,,,,,,,,,,,,,,,,,,,,,,,,,,,,
,,,,,,,,,,,,,,,90441,001,2022-04-24_17h53.29.893,SPAMnetsValid,2021.1.4,MacIntel,55.55555556,,,,,,,,,,,,,,,,,,,,,,,,,,,,,,,,,,,,,,,,,,,,,,,,,,,,use scent to evoke emotions,candle,6,0,6,0,1,,,,,,,,,,,,,,,,,,,,,,,,,,,,,,,
,,,,,,,,,,,,,,,90441,001,2022-04-24_17h53.29.893,SPAMnetsValid,2021.1.4,MacIntel,55.55555556,,,,,,,,,,,,,,,,,,,,,,,,,,,,,,,,,,,,,,,,,,,,,,,,,,,,calm down,candle,7,0,7,0,1,,,,,,,,,,,,,,,,,,,,,,,,,,,,,,,
,,,,,,,,,,,,,,,90441,001,2022-04-24_17h53.29.893,SPAMnetsValid,2021.1.4,MacIntel,55.55555556,,,,,,,,,,,,,,,,,,,,,,,,,,,,,,,,,,,,,,,,,,,,,,,,,,,,night light,candle,8,0,8,0,1,,,,,,,,,,,,,,,,,,,,,,,,,,,,,,,
,,,,,,,,,,,,,,,90441,001,2022-04-24_17h53.29.893,SPAMnetsValid,2021.1.4,MacIntel,55.55555556,,,,,,,,,,,,,,,,,,,,,,,,,,,,,,,,,,,,,,,,,,,,,,,,,,,,,,,,,,,0,1,1,1,1,candle,,,,,,,,,,,,,,,,,,,,,,,,,
,,,,,,,,,,,,,,,90441,001,2022-04-24_17h53.29.893,SPAMnetsValid,2021.1.4,MacIntel,55.55555556,,,,,,,,,,,,,,,,,,,,,,,,,,,,,,,,,,,,,,,,,,,,,,,,,,,,hold water ,bucket,0,0,0,0,1,,,,,,,,,,,,,,,,,,,,,,,,,,,,,,,
,,,,,,,,,,,,,,,90441,001,2022-04-24_17h53.29.893,SPAMnetsValid,2021.1.4,MacIntel,55.55555556,,,,,,,,,,,,,,,,,,,,,,,,,,,,,,,,,,,,,,,,,,,,,,,,,,,,hat,bucket,1,0,1,0,1,,,,,,,,,,,,,,,,,,,,,,,,,,,,,,,
,,,,,,,,,,,,,,,90441,001,2022-04-24_17h53.29.893,SPAMnetsValid,2021.1.4,MacIntel,55.55555556,,,,,,,,,,,,,,,,,,,,,,,,,,,,,,,,,,,,,,,,,,,,,,,,,,,,hold baseballs,bucket,2,0,2,0,1,,,,,,,,,,,,,,,,,,,,,,,,,,,,,,,
,,,,,,,,,,,,,,,90441,001,2022-04-24_17h53.29.893,SPAMnetsValid,2021.1.4,MacIntel,55.55555556,,,,,,,,,,,,,,,,,,,,,,,,,,,,,,,,,,,,,,,,,,,,,,,,,,,,transporting something,bucket,3,0,3,0,1,,,,,,,,,,,,,,,,,,,,,,,,,,,,,,,
,,,,,,,,,,,,,,,90441,001,2022-04-24_17h53.29.893,SPAMnetsValid,2021.1.4,MacIntel,55.55555556,,,,,,,,,,,,,,,,,,,,,,,,,,,,,,,,,,,,,,,,,,,,,,,,,,,,extra storage ,bucket,4,0,4,0,1,,,,,,,,,,,,,,,,,,,,,,,,,,,,,,,
,,,,,,,,,,,,,,,90441,001,2022-04-24_17h53.29.893,SPAMnetsValid,2021.1.4,MacIntel,55.55555556,,,,,,,,,,,,,,,,,,,,,,,,,,,,,,,,,,,,,,,,,,,,,,,,,,,,an emergency bathroom,bucket,5,0,5,0,1,,,,,,,,,,,,,,,,,,,,,,,,,,,,,,,
,,,,,,,,,,,,,,,90441,001,2022-04-24_17h53.29.893,SPAMnetsValid,2021.1.4,MacIntel,55.55555556,,,,,,,,,,,,,,,,,,,,,,,,,,,,,,,,,,,,,,,,,,,,,,,,,,,,art project,bucket,6,0,6,0,1,,,,,,,,,,,,,,,,,,,,,,,,,,,,,,,
,,,,,,,,,,,,,,,90441,001,2022-04-24_17h53.29.893,SPAMnetsValid,2021.1.4,MacIntel,55.55555556,,,,,,,,,,,,,,,,,,,,,,,,,,,,,,,,,,,,,,,,,,,,,,,,,,,,swimming pool,bucket,7,0,7,0,1,,,,,,,,,,,,,,,,,,,,,,,,,,,,,,,
,,,,,,,,,,,,,,,90441,001,2022-04-24_17h53.29.893,SPAMnetsValid,2021.1.4,MacIntel,55.55555556,,,,,,,,,,,,,,,,,,,,,,,,,,,,,,,,,,,,,,,,,,,,,,,,,,,, bath tub for a baby,bucket,8,0,8,0,1,,,,,,,,,,,,,,,,,,,,,,,,,,,,,,,
,,,,,,,,,,,,,,,90441,001,2022-04-24_17h53.29.893,SPAMnetsValid,2021.1.4,MacIntel,55.55555556,,,,,,,,,,,,,,,,,,,,,,,,,,,,,,,,,,,,,,,,,,,,,,,,,,,,,,,,,,,0,2,2,0,1,bucket,,,,,,,,,,,,,,,,,,,,,,,,,
,,,,,,,,,,,,,,,90441,001,2022-04-24_17h53.29.893,SPAMnetsValid,2021.1.4,MacIntel,55.55555556,,,,,,,,,,,,,,,,,,,,,,,,,,,,,,,,,,,,,,,,,,,,,,,,,,,,,,,,,,,,,,,,,cats,Animals,0,0,0,0,1,,,,,,,,,,,,,,,,,,
,,,,,,,,,,,,,,,90441,001,2022-04-24_17h53.29.893,SPAMnetsValid,2021.1.4,MacIntel,55.55555556,,,,,,,,,,,,,,,,,,,,,,,,,,,,,,,,,,,,,,,,,,,,,,,,,,,,,,,,,,,,,,,,,dogs,Animals,1,0,1,0,1,,,,,,,,,,,,,,,,,,
,,,,,,,,,,,,,,,90441,001,2022-04-24_17h53.29.893,SPAMnetsValid,2021.1.4,MacIntel,55.55555556,,,,,,,,,,,,,,,,,,,,,,,,,,,,,,,,,,,,,,,,,,,,,,,,,,,,,,,,,,,,,,,,,penguins,Animals,2,0,2,0,1,,,,,,,,,,,,,,,,,,
,,,,,,,,,,,,,,,90441,001,2022-04-24_17h53.29.893,SPAMnetsValid,2021.1.4,MacIntel,55.55555556,,,,,,,,,,,,,,,,,,,,,,,,,,,,,,,,,,,,,,,,,,,,,,,,,,,,,,,,,,,,,,,,,seals,Animals,3,0,3,0,1,,,,,,,,,,,,,,,,,,
,,,,,,,,,,,,,,,90441,001,2022-04-24_17h53.29.893,SPAMnetsValid,2021.1.4,MacIntel,55.55555556,,,,,,,,,,,,,,,,,,,,,,,,,,,,,,,,,,,,,,,,,,,,,,,,,,,,,,,,,,,,,,,,,sharks,Animals,4,0,4,0,1,,,,,,,,,,,,,,,,,,
,,,,,,,,,,,,,,,90441,001,2022-04-24_17h53.29.893,SPAMnetsValid,2021.1.4,MacIntel,55.55555556,,,,,,,,,,,,,,,,,,,,,,,,,,,,,,,,,,,,,,,,,,,,,,,,,,,,,,,,,,,,,,,,,fish,Animals,5,0,5,0,1,,,,,,,,,,,,,,,,,,
,,,,,,,,,,,,,,,90441,001,2022-04-24_17h53.29.893,SPAMnetsValid,2021.1.4,MacIntel,55.55555556,,,,,,,,,,,,,,,,,,,,,,,,,,,,,,,,,,,,,,,,,,,,,,,,,,,,,,,,,,,,,,,,,crab,Animals,6,0,6,0,1,,,,,,,,,,,,,,,,,,
,,,,,,,,,,,,,,,90441,001,2022-04-24_17h53.29.893,SPAMnetsValid,2021.1.4,MacIntel,55.55555556,,,,,,,,,,,,,,,,,,,,,,,,,,,,,,,,,,,,,,,,,,,,,,,,,,,,,,,,,,,,,,,,,lobster,Animals,7,0,7,0,1,,,,,,,,,,,,,,,,,,
,,,,,,,,,,,,,,,90441,001,2022-04-24_17h53.29.893,SPAMnetsValid,2021.1.4,MacIntel,55.55555556,,,,,,,,,,,,,,,,,,,,,,,,,,,,,,,,,,,,,,,,,,,,,,,,,,,,,,,,,,,,,,,,,lion,Animals,8,0,8,0,1,,,,,,,,,,,,,,,,,,
,,,,,,,,,,,,,,,90441,001,2022-04-24_17h53.29.893,SPAMnetsValid,2021.1.4,MacIntel,55.55555556,,,,,,,,,,,,,,,,,,,,,,,,,,,,,,,,,,,,,,,,,,,,,,,,,,,,,,,,,,,,,,,,,tigers,Animals,9,0,9,0,1,,,,,,,,,,,,,,,,,,
,,,,,,,,,,,,,,,90441,001,2022-04-24_17h53.29.893,SPAMnetsValid,2021.1.4,MacIntel,55.55555556,,,,,,,,,,,,,,,,,,,,,,,,,,,,,,,,,,,,,,,,,,,,,,,,,,,,,,,,,,,,,,,,,jaguars,Animals,10,0,10,0,1,,,,,,,,,,,,,,,,,,
,,,,,,,,,,,,,,,90441,001,2022-04-24_17h53.29.893,SPAMnetsValid,2021.1.4,MacIntel,55.55555556,,,,,,,,,,,,,,,,,,,,,,,,,,,,,,,,,,,,,,,,,,,,,,,,,,,,,,,,,,,,,,,,,cheetahs,Animals,11,0,11,0,1,,,,,,,,,,,,,,,,,,
,,,,,,,,,,,,,,,90441,001,2022-04-24_17h53.29.893,SPAMnetsValid,2021.1.4,MacIntel,55.55555556,,,,,,,,,,,,,,,,,,,,,,,,,,,,,,,,,,,,,,,,,,,,,,,,,,,,,,,,,,,,,,,,,elephants,Animals,12,0,12,0,1,,,,,,,,,,,,,,,,,,
,,,,,,,,,,,,,,,90441,001,2022-04-24_17h53.29.893,SPAMnetsValid,2021.1.4,MacIntel,55.55555556,,,,,,,,,,,,,,,,,,,,,,,,,,,,,,,,,,,,,,,,,,,,,,,,,,,,,,,,,,,,,,,,,giraffs,Animals,13,0,13,0,1,,,,,,,,,,,,,,,,,,
,,,,,,,,,,,,,,,90441,001,2022-04-24_17h53.29.893,SPAMnetsValid,2021.1.4,MacIntel,55.55555556,,,,,,,,,,,,,,,,,,,,,,,,,,,,,,,,,,,,,,,,,,,,,,,,,,,,,,,,,,,,,,,,,kangaroos,Animals,14,0,14,0,1,,,,,,,,,,,,,,,,,,
,,,,,,,,,,,,,,,90441,001,2022-04-24_17h53.29.893,SPAMnetsValid,2021.1.4,MacIntel,55.55555556,,,,,,,,,,,,,,,,,,,,,,,,,,,,,,,,,,,,,,,,,,,,,,,,,,,,,,,,,,,,,,,,,eagles,Animals,15,0,15,0,1,,,,,,,,,,,,,,,,,,
,,,,,,,,,,,,,,,90441,001,2022-04-24_17h53.29.893,SPAMnetsValid,2021.1.4,MacIntel,55.55555556,,,,,,,,,,,,,,,,,,,,,,,,,,,,,,,,,,,,,,,,,,,,,,,,,,,,,,,,,,,,,,,,,owls,Animals,16,0,16,0,1,,,,,,,,,,,,,,,,,,
,,,,,,,,,,,,,,,90441,001,2022-04-24_17h53.29.893,SPAMnetsValid,2021.1.4,MacIntel,55.55555556,,,,,,,,,,,,,,,,,,,,,,,,,,,,,,,,,,,,,,,,,,,,,,,,,,,,,,,,,,,,,,,,,insects,Animals,17,0,17,0,1,,,,,,,,,,,,,,,,,,
,,,,,,,,,,,,,,,90441,001,2022-04-24_17h53.29.893,SPAMnetsValid,2021.1.4,MacIntel,55.55555556,,,,,,,,,,,,,,,,,,,,,,,,,,,,,,,,,,,,,,,,,,,,,,,,,,,,,,,,,,,,,,,,,wolverines,Animals,18,0,18,0,1,,,,,,,,,,,,,,,,,,
,,,,,,,,,,,,,,,90441,001,2022-04-24_17h53.29.893,SPAMnetsValid,2021.1.4,MacIntel,55.55555556,,,,,,,,,,,,,,,,,,,,,,,,,,,,,,,,,,,,,,,,,,,,,,,,,,,,,,,,,,,,,,,,,dolphins,Animals,19,0,19,0,1,,,,,,,,,,,,,,,,,,
,,,,,,,,,,,,,,,90441,001,2022-04-24_17h53.29.893,SPAMnetsValid,2021.1.4,MacIntel,55.55555556,,,,,,,,,,,,,,,,,,,,,,,,,,,,,,,,,,,,,,,,,,,,,,,,,,,,,,,,,,,,,,,,,pigeons,Animals,20,0,20,0,1,,,,,,,,,,,,,,,,,,
,,,,,,,,,,,,,,,90441,001,2022-04-24_17h53.29.893,SPAMnetsValid,2021.1.4,MacIntel,55.55555556,,,,,,,,,,,,,,,,,,,,,,,,,,,,,,,,,,,,,,,,,,,,,,,,,,,,,,,,,,,,,,,,,monkeys,Animals,21,0,21,0,1,,,,,,,,,,,,,,,,,,
,,,,,,,,,,,,,,,90441,001,2022-04-24_17h53.29.893,SPAMnetsValid,2021.1.4,MacIntel,55.55555556,,,,,,,,,,,,,,,,,,,,,,,,,,,,,,,,,,,,,,,,,,,,,,,,,,,,,,,,,,,,,,,,,alligators,Animals,22,0,22,0,1,,,,,,,,,,,,,,,,,,
,,,,,,,,,,,,,,,90441,001,2022-04-24_17h53.29.893,SPAMnetsValid,2021.1.4,MacIntel,55.55555556,,,,,,,,,,,,,,,,,,,,,,,,,,,,,,,,,,,,,,,,,,,,,,,,,,,,,,,,,,,,,,,,,frogs,Animals,23,0,23,0,1,,,,,,,,,,,,,,,,,,
,,,,,,,,,,,,,,,90441,001,2022-04-24_17h53.29.893,SPAMnetsValid,2021.1.4,MacIntel,55.55555556,,,,,,,,,,,,,,,,,,,,,,,,,,,,,,,,,,,,,,,,,,,,,,,,,,,,,,,,,,,,,,,,,crocodiles,Animals,24,0,24,0,1,,,,,,,,,,,,,,,,,,
,,,,,,,,,,,,,,,90441,001,2022-04-24_17h53.29.893,SPAMnetsValid,2021.1.4,MacIntel,55.55555556,,,,,,,,,,,,,,,,,,,,,,,,,,,,,,,,,,,,,,,,,,,,,,,,,,,,,,,,,,,,,,,,,,,,,,,,0,0,0,0,1,Animals,,,,,,,,,,,,
,,,,,,,,,,,,,,,90441,001,2022-04-24_17h53.29.893,SPAMnetsValid,2021.1.4,MacIntel,55.55555556,,,,,,,,,,,,,,,,,,,,,,,,,,,,,,,,,,,,,,,,,,,,,,,,,,,,,,,,,,,,,,,,,,,,,,,,,,,,,,4,5.392,0,0,0,0,1,"I enjoy concentrating on a fantasy or daydream and exploring all its possibilities, letting it grow and develop.",0,1,,
,,,,,,,,,,,,,,,90441,001,2022-04-24_17h53.29.893,SPAMnetsValid,2021.1.4,MacIntel,55.55555556,,,,,,,,,,,,,,,,,,,,,,,,,,,,,,,,,,,,,,,,,,,,,,,,,,,,,,,,,,,,,,,,,,,,,,,,,,,,,,4,1.863,0,1,1,1,1,I think it's interesting to learn and develop new hobbies.,0,2,,
,,,,,,,,,,,,,,,90441,001,2022-04-24_17h53.29.893,SPAMnetsValid,2021.1.4,MacIntel,55.55555556,,,,,,,,,,,,,,,,,,,,,,,,,,,,,,,,,,,,,,,,,,,,,,,,,,,,,,,,,,,,,,,,,,,,,,,,,,,,,,4,1.845,0,2,2,2,1,I am intrigued by the patterns I find in art and nature.,0,3,,
,,,,,,,,,,,,,,,90441,001,2022-04-24_17h53.29.893,SPAMnetsValid,2021.1.4,MacIntel,55.55555556,,,,,,,,,,,,,,,,,,,,,,,,,,,,,,,,,,,,,,,,,,,,,,,,,,,,,,,,,,,,,,,,,,,,,,,,,,,,,,3,5.897,0,3,3,3,1,I believe letting students hear controversial speakers can only confuse and mislead them.,1,4,,
,,,,,,,,,,,,,,,90441,001,2022-04-24_17h53.29.893,SPAMnetsValid,2021.1.4,MacIntel,55.55555556,,,,,,,,,,,,,,,,,,,,,,,,,,,,,,,,,,,,,,,,,,,,,,,,,,,,,,,,,,,,,,,,,,,,,,,,,,,,,,2,2.85,0,4,4,4,1,Poetry has little or no effect on me.,1,5,,
,,,,,,,,,,,,,,,90441,001,2022-04-24_17h53.29.893,SPAMnetsValid,2021.1.4,MacIntel,55.55555556,,,,,,,,,,,,,,,,,,,,,,,,,,,,,,,,,,,,,,,,,,,,,,,,,,,,,,,,,,,,,,,,,,,,,,,,,,,,,,2,3.214,0,5,5,5,1,I would have difficulty just letting my mind wander without control or guidance.,1,6,,
,,,,,,,,,,,,,,,90441,001,2022-04-24_17h53.29.893,SPAMnetsValid,2021.1.4,MacIntel,55.55555556,,,,,,,,,,,,,,,,,,,,,,,,,,,,,,,,,,,,,,,,,,,,,,,,,,,,,,,,,,,,,,,,,,,,,,,,,,,,,,3,4.895,0,6,6,6,1,I seldom notice the moods or feelings that different environments produce.,1,7,,
,,,,,,,,,,,,,,,90441,001,2022-04-24_17h53.29.893,SPAMnetsValid,2021.1.4,MacIntel,55.55555556,,,,,,,,,,,,,,,,,,,,,,,,,,,,,,,,,,,,,,,,,,,,,,,,,,,,,,,,,,,,,,,,,,,,,,,,,,,,,,4,1.695,0,7,7,7,1,I experience a wide range of emotions or feelings.,0,8,,
,,,,,,,,,,,,,,,90441,001,2022-04-24_17h53.29.893,SPAMnetsValid,2021.1.4,MacIntel,55.55555556,,,,,,,,,,,,,,,,,,,,,,,,,,,,,,,,,,,,,,,,,,,,,,,,,,,,,,,,,,,,,,,,,,,,,,,,,,,,,,4,2.696,0,8,8,8,1,"Sometimes when I am reading poetry or looking at a work of art, I feel a chill or wave of excitement.",0,9,,
,,,,,,,,,,,,,,,90441,001,2022-04-24_17h53.29.893,SPAMnetsValid,2021.1.4,MacIntel,55.55555556,,,,,,,,,,,,,,,,,,,,,,,,,,,,,,,,,,,,,,,,,,,,,,,,,,,,,,,,,,,,,,,,,,,,,,,,,,,,,,2,2.832,0,9,9,9,1,I have little interest in speculating on the nature of the universe or the human condition.,1,10,,
,,,,,,,,,,,,,,,90441,001,2022-04-24_17h53.29.893,SPAMnetsValid,2021.1.4,MacIntel,55.55555556,,,,,,,,,,,,,,,,,,,,,,,,,,,,,,,,,,,,,,,,,,,,,,,,,,,,,,,,,,,,,,,,,,,,,,,,,,,,,,4,1.679,0,10,10,10,1,I have a lot of intellectual curiosity.,0,11,,
,,,,,,,,,,,,,,,90441,001,2022-04-24_17h53.29.893,SPAMnetsValid,2021.1.4,MacIntel,55.55555556,,,,,,,,,,,,,,,,,,,,,,,,,,,,,,,,,,,,,,,,,,,,,,,,,,,,,,,,,,,,,,,,,,,,,,,,,,,,,,4,2.299,0,11,11,11,1,I often enjoy playing with theories or abstract ideas.,0,12,,
,,,,,,,,,,,,,,,90441,001,2022-04-24_17h53.29.893,SPAMnetsValid,2021.1.4,MacIntel,55.55555556,,,,,,,,,,,,,,,,,,,,,,,,,,,,,,,,,,,,,,,,,,,,,,,,,,,,,,,,,,,,,,,,,,,,,,,,,,,,,,,,,,,,,,,,return,18.272
