key_resp_3.keys,key_resp_3.rt,slider_2.response,slider_2.rt,rjt_rating,rjt_RT,trials_24.thisRepN,trials_24.thisTrialN,trials_24.thisN,trials_24.thisIndex,trials_24.ran,rjt_order,word1,word2,attention,participant,session,date,expName,psychopyVersion,OS,frameRate,trials_4.thisRepN,trials_4.thisTrialN,trials_4.thisN,trials_4.thisIndex,trials_4.ran,trials_5.thisRepN,trials_5.thisTrialN,trials_5.thisN,trials_5.thisIndex,trials_5.ran,repOne,repTwo,slider.response,slider.rt,trials_22.thisRepN,trials_22.thisTrialN,trials_22.thisN,trials_22.thisIndex,trials_22.ran,trials_99.thisRepN,trials_99.thisTrialN,trials_99.thisN,trials_99.thisIndex,trials_99.ran,slider_extend_2.response,slider_extend_2.rt,trials_6.thisRepN,trials_6.thisTrialN,trials_6.thisN,trials_6.thisIndex,trials_6.ran,vCue2,R1,R2,R3,R4,correct,sliderVocab.response,sliderVocab.rt,trials_7.thisRepN,trials_7.thisTrialN,trials_7.thisN,trials_7.thisIndex,trials_7.ran,VocabCue,VR1,VR2,VR3,VR4,VR5,VocabCorrect,AUT_resp,AUT_label,trials.thisRepN,trials.thisTrialN,trials.thisN,trials.thisIndex,trials.ran,trials_2.thisRepN,trials_2.thisTrialN,trials_2.thisN,trials_2.thisIndex,trials_2.ran,aut_prompt,VF_response,VF_tag,trials_16.thisRepN,trials_16.thisTrialN,trials_16.thisN,trials_16.thisIndex,trials_16.ran,trials_17.thisRepN,trials_17.thisTrialN,trials_17.thisN,trials_17.thisIndex,trials_17.ran,VFcond,open_slider.response,open_slider.rt,trials_3.thisRepN,trials_3.thisTrialN,trials_3.thisN,trials_3.thisIndex,trials_3.ran,OpenQ,Rev,OPEN_ORDER,key_resp_2.keys,key_resp_2.rt
return,1.6669,5,8.7474,5,8.7474,0,0,0,45,1,179,broom,oven,,90444,001,2022-04-29_11h53.21.570,SPAMnetsValid,2021.1.4,Win32,144.092219,,,,,,,,,,,,,,,,,,,,,,,,,,,,,,,,,,,,,,,,,,,,,,,,,,,,,,,,,,,,,,,,,,,,,,,,,,,,,,,,,,,,,,,,,
,,5,3.4463,5,3.4463,0,1,1,48,1,186,kitchen,yogurt,,90444,001,2022-04-29_11h53.21.570,SPAMnetsValid,2021.1.4,Win32,144.092219,,,,,,,,,,,,,,,,,,,,,,,,,,,,,,,,,,,,,,,,,,,,,,,,,,,,,,,,,,,,,,,,,,,,,,,,,,,,,,,,,,,,,,,,,
,,5,5.2237,5,5.2237,0,2,2,36,1,161,kitchen,pretzel,,90444,001,2022-04-29_11h53.21.570,SPAMnetsValid,2021.1.4,Win32,144.092219,,,,,,,,,,,,,,,,,,,,,,,,,,,,,,,,,,,,,,,,,,,,,,,,,,,,,,,,,,,,,,,,,,,,,,,,,,,,,,,,,,,,,,,,,
,,9,2.9462,9,2.9462,0,3,3,56,1,113,refrigerator,strawberry,,90444,001,2022-04-29_11h53.21.570,SPAMnetsValid,2021.1.4,Win32,144.092219,,,,,,,,,,,,,,,,,,,,,,,,,,,,,,,,,,,,,,,,,,,,,,,,,,,,,,,,,,,,,,,,,,,,,,,,,,,,,,,,,,,,,,,,,
,,9,2.3152,9,2.3152,0,4,4,17,1,99,garden,melon,,90444,001,2022-04-29_11h53.21.570,SPAMnetsValid,2021.1.4,Win32,144.092219,,,,,,,,,,,,,,,,,,,,,,,,,,,,,,,,,,,,,,,,,,,,,,,,,,,,,,,,,,,,,,,,,,,,,,,,,,,,,,,,,,,,,,,,,
,,2,10.6695,2,10.6695,0,5,5,46,1,123,cookie,tree,,90444,001,2022-04-29_11h53.21.570,SPAMnetsValid,2021.1.4,Win32,144.092219,,,,,,,,,,,,,,,,,,,,,,,,,,,,,,,,,,,,,,,,,,,,,,,,,,,,,,,,,,,,,,,,,,,,,,,,,,,,,,,,,,,,,,,,,
,,7,3.1168,7,3.1168,0,6,6,33,1,131,cactus,garden,,90444,001,2022-04-29_11h53.21.570,SPAMnetsValid,2021.1.4,Win32,144.092219,,,,,,,,,,,,,,,,,,,,,,,,,,,,,,,,,,,,,,,,,,,,,,,,,,,,,,,,,,,,,,,,,,,,,,,,,,,,,,,,,,,,,,,,,
,,4,2.1896,4,2.1896,0,7,7,13,1,105,cactus,oven,,90444,001,2022-04-29_11h53.21.570,SPAMnetsValid,2021.1.4,Win32,144.092219,,,,,,,,,,,,,,,,,,,,,,,,,,,,,,,,,,,,,,,,,,,,,,,,,,,,,,,,,,,,,,,,,,,,,,,,,,,,,,,,,,,,,,,,,
,,5,4.098,5,4.098,0,8,8,16,1,111,carrot,microwave,,90444,001,2022-04-29_11h53.21.570,SPAMnetsValid,2021.1.4,Win32,144.092219,,,,,,,,,,,,,,,,,,,,,,,,,,,,,,,,,,,,,,,,,,,,,,,,,,,,,,,,,,,,,,,,,,,,,,,,,,,,,,,,,,,,,,,,,
,,6,5.6127,6,5.6127,0,9,9,64,1,157,refrigerator,rose,,90444,001,2022-04-29_11h53.21.570,SPAMnetsValid,2021.1.4,Win32,144.092219,,,,,,,,,,,,,,,,,,,,,,,,,,,,,,,,,,,,,,,,,,,,,,,,,,,,,,,,,,,,,,,,,,,,,,,,,,,,,,,,,,,,,,,,,
,,6,26.7045,6,26.7045,0,10,10,47,1,167,carrot,garden,,90444,001,2022-04-29_11h53.21.570,SPAMnetsValid,2021.1.4,Win32,144.092219,,,,,,,,,,,,,,,,,,,,,,,,,,,,,,,,,,,,,,,,,,,,,,,,,,,,,,,,,,,,,,,,,,,,,,,,,,,,,,,,,,,,,,,,,
,,8,1.5648,8,1.5648,0,11,11,60,1,122,flower,garden,,90444,001,2022-04-29_11h53.21.570,SPAMnetsValid,2021.1.4,Win32,144.092219,,,,,,,,,,,,,,,,,,,,,,,,,,,,,,,,,,,,,,,,,,,,,,,,,,,,,,,,,,,,,,,,,,,,,,,,,,,,,,,,,,,,,,,,,
,,8,1.3657,8,1.3657,0,12,12,3,1,129,cactus,refrigerator,,90444,001,2022-04-29_11h53.21.570,SPAMnetsValid,2021.1.4,Win32,144.092219,,,,,,,,,,,,,,,,,,,,,,,,,,,,,,,,,,,,,,,,,,,,,,,,,,,,,,,,,,,,,,,,,,,,,,,,,,,,,,,,,,,,,,,,,
,,1,1.6625,1,1.6625,0,13,13,74,1,128,melon,microwave,,90444,001,2022-04-29_11h53.21.570,SPAMnetsValid,2021.1.4,Win32,144.092219,,,,,,,,,,,,,,,,,,,,,,,,,,,,,,,,,,,,,,,,,,,,,,,,,,,,,,,,,,,,,,,,,,,,,,,,,,,,,,,,,,,,,,,,,
,,3,1.8303,3,1.8303,0,14,14,40,1,165,onion,rose,,90444,001,2022-04-29_11h53.21.570,SPAMnetsValid,2021.1.4,Win32,144.092219,,,,,,,,,,,,,,,,,,,,,,,,,,,,,,,,,,,,,,,,,,,,,,,,,,,,,,,,,,,,,,,,,,,,,,,,,,,,,,,,,,,,,,,,,
,,4,1.8496,4,1.8496,0,15,15,77,1,172,kitchen,melon,,90444,001,2022-04-29_11h53.21.570,SPAMnetsValid,2021.1.4,Win32,144.092219,,,,,,,,,,,,,,,,,,,,,,,,,,,,,,,,,,,,,,,,,,,,,,,,,,,,,,,,,,,,,,,,,,,,,,,,,,,,,,,,,,,,,,,,,
,,3,2.5054,3,2.5054,0,16,16,90,1,190,microwave,strawberry,,90444,001,2022-04-29_11h53.21.570,SPAMnetsValid,2021.1.4,Win32,144.092219,,,,,,,,,,,,,,,,,,,,,,,,,,,,,,,,,,,,,,,,,,,,,,,,,,,,,,,,,,,,,,,,,,,,,,,,,,,,,,,,,,,,,,,,,
,,9,1.3739,9,1.3739,0,17,17,86,1,193,melon,melon,CHECK,90444,001,2022-04-29_11h53.21.570,SPAMnetsValid,2021.1.4,Win32,144.092219,,,,,,,,,,,,,,,,,,,,,,,,,,,,,,,,,,,,,,,,,,,,,,,,,,,,,,,,,,,,,,,,,,,,,,,,,,,,,,,,,,,,,,,,,
,,3,1.9453,3,1.9453,0,18,18,31,1,156,melon,rose,,90444,001,2022-04-29_11h53.21.570,SPAMnetsValid,2021.1.4,Win32,144.092219,,,,,,,,,,,,,,,,,,,,,,,,,,,,,,,,,,,,,,,,,,,,,,,,,,,,,,,,,,,,,,,,,,,,,,,,,,,,,,,,,,,,,,,,,
,,3,4.3964,3,4.3964,0,19,19,80,1,146,pretzel,tree,,90444,001,2022-04-29_11h53.21.570,SPAMnetsValid,2021.1.4,Win32,144.092219,,,,,,,,,,,,,,,,,,,,,,,,,,,,,,,,,,,,,,,,,,,,,,,,,,,,,,,,,,,,,,,,,,,,,,,,,,,,,,,,,,,,,,,,,
,,9,1.7391,9,1.7391,0,20,20,25,1,194,cactus,cactus,CHECK,90444,001,2022-04-29_11h53.21.570,SPAMnetsValid,2021.1.4,Win32,144.092219,,,,,,,,,,,,,,,,,,,,,,,,,,,,,,,,,,,,,,,,,,,,,,,,,,,,,,,,,,,,,,,,,,,,,,,,,,,,,,,,,,,,,,,,,
,,9,1.1417,9,1.1417,0,21,21,2,1,174,cake,pretzel,,90444,001,2022-04-29_11h53.21.570,SPAMnetsValid,2021.1.4,Win32,144.092219,,,,,,,,,,,,,,,,,,,,,,,,,,,,,,,,,,,,,,,,,,,,,,,,,,,,,,,,,,,,,,,,,,,,,,,,,,,,,,,,,,,,,,,,,
,,5,1.3874,5,1.3874,0,22,22,93,1,134,carrot,flower,,90444,001,2022-04-29_11h53.21.570,SPAMnetsValid,2021.1.4,Win32,144.092219,,,,,,,,,,,,,,,,,,,,,,,,,,,,,,,,,,,,,,,,,,,,,,,,,,,,,,,,,,,,,,,,,,,,,,,,,,,,,,,,,,,,,,,,,
,,6,1.0953,6,1.0953,0,23,23,67,1,96,oven,strawberry,,90444,001,2022-04-29_11h53.21.570,SPAMnetsValid,2021.1.4,Win32,144.092219,,,,,,,,,,,,,,,,,,,,,,,,,,,,,,,,,,,,,,,,,,,,,,,,,,,,,,,,,,,,,,,,,,,,,,,,,,,,,,,,,,,,,,,,,
,,7,0.8468,7,0.8468,0,24,24,14,1,120,microwave,oven,,90444,001,2022-04-29_11h53.21.570,SPAMnetsValid,2021.1.4,Win32,144.092219,,,,,,,,,,,,,,,,,,,,,,,,,,,,,,,,,,,,,,,,,,,,,,,,,,,,,,,,,,,,,,,,,,,,,,,,,,,,,,,,,,,,,,,,,
,,7,1.1619,7,1.1619,0,25,25,82,1,98,pretzel,strawberry,,90444,001,2022-04-29_11h53.21.570,SPAMnetsValid,2021.1.4,Win32,144.092219,,,,,,,,,,,,,,,,,,,,,,,,,,,,,,,,,,,,,,,,,,,,,,,,,,,,,,,,,,,,,,,,,,,,,,,,,,,,,,,,,,,,,,,,,
,,3,1.9563,3,1.9563,0,26,26,75,1,178,cactus,carrot,,90444,001,2022-04-29_11h53.21.570,SPAMnetsValid,2021.1.4,Win32,144.092219,,,,,,,,,,,,,,,,,,,,,,,,,,,,,,,,,,,,,,,,,,,,,,,,,,,,,,,,,,,,,,,,,,,,,,,,,,,,,,,,,,,,,,,,,
,,4,1.558,4,1.558,0,27,27,29,1,163,melon,refrigerator,,90444,001,2022-04-29_11h53.21.570,SPAMnetsValid,2021.1.4,Win32,144.092219,,,,,,,,,,,,,,,,,,,,,,,,,,,,,,,,,,,,,,,,,,,,,,,,,,,,,,,,,,,,,,,,,,,,,,,,,,,,,,,,,,,,,,,,,
,,2,1.2568,2,1.2568,0,28,28,26,1,107,rose,tomato,,90444,001,2022-04-29_11h53.21.570,SPAMnetsValid,2021.1.4,Win32,144.092219,,,,,,,,,,,,,,,,,,,,,,,,,,,,,,,,,,,,,,,,,,,,,,,,,,,,,,,,,,,,,,,,,,,,,,,,,,,,,,,,,,,,,,,,,
,,9,1.1554,9,1.1554,0,29,29,52,1,110,chocolate,cookie,,90444,001,2022-04-29_11h53.21.570,SPAMnetsValid,2021.1.4,Win32,144.092219,,,,,,,,,,,,,,,,,,,,,,,,,,,,,,,,,,,,,,,,,,,,,,,,,,,,,,,,,,,,,,,,,,,,,,,,,,,,,,,,,,,,,,,,,
,,9,1.1283,9,1.1283,0,30,30,10,1,118,chocolate,oven,,90444,001,2022-04-29_11h53.21.570,SPAMnetsValid,2021.1.4,Win32,144.092219,,,,,,,,,,,,,,,,,,,,,,,,,,,,,,,,,,,,,,,,,,,,,,,,,,,,,,,,,,,,,,,,,,,,,,,,,,,,,,,,,,,,,,,,,
,,3,1.3588,3,1.3588,0,31,31,58,1,144,cake,garden,,90444,001,2022-04-29_11h53.21.570,SPAMnetsValid,2021.1.4,Win32,144.092219,,,,,,,,,,,,,,,,,,,,,,,,,,,,,,,,,,,,,,,,,,,,,,,,,,,,,,,,,,,,,,,,,,,,,,,,,,,,,,,,,,,,,,,,,
,,8,1.0795,8,1.0795,0,32,32,85,1,115,refrigerator,tomato,,90444,001,2022-04-29_11h53.21.570,SPAMnetsValid,2021.1.4,Win32,144.092219,,,,,,,,,,,,,,,,,,,,,,,,,,,,,,,,,,,,,,,,,,,,,,,,,,,,,,,,,,,,,,,,,,,,,,,,,,,,,,,,,,,,,,,,,
,,1,1.4594,1,1.4594,0,33,33,21,1,159,cookie,flower,,90444,001,2022-04-29_11h53.21.570,SPAMnetsValid,2021.1.4,Win32,144.092219,,,,,,,,,,,,,,,,,,,,,,,,,,,,,,,,,,,,,,,,,,,,,,,,,,,,,,,,,,,,,,,,,,,,,,,,,,,,,,,,,,,,,,,,,
,,8,2.2742,8,2.2742,0,34,34,18,1,119,strawberry,tree,,90444,001,2022-04-29_11h53.21.570,SPAMnetsValid,2021.1.4,Win32,144.092219,,,,,,,,,,,,,,,,,,,,,,,,,,,,,,,,,,,,,,,,,,,,,,,,,,,,,,,,,,,,,,,,,,,,,,,,,,,,,,,,,,,,,,,,,
,,3,1.0657,3,1.0657,0,35,35,79,1,103,pretzel,tomato,,90444,001,2022-04-29_11h53.21.570,SPAMnetsValid,2021.1.4,Win32,144.092219,,,,,,,,,,,,,,,,,,,,,,,,,,,,,,,,,,,,,,,,,,,,,,,,,,,,,,,,,,,,,,,,,,,,,,,,,,,,,,,,,,,,,,,,,
,,9,1.0365,9,1.0365,0,36,36,44,1,116,cake,chocolate,,90444,001,2022-04-29_11h53.21.570,SPAMnetsValid,2021.1.4,Win32,144.092219,,,,,,,,,,,,,,,,,,,,,,,,,,,,,,,,,,,,,,,,,,,,,,,,,,,,,,,,,,,,,,,,,,,,,,,,,,,,,,,,,,,,,,,,,
,,3,1.2314,3,1.2314,0,37,37,7,1,188,flower,tree,,90444,001,2022-04-29_11h53.21.570,SPAMnetsValid,2021.1.4,Win32,144.092219,,,,,,,,,,,,,,,,,,,,,,,,,,,,,,,,,,,,,,,,,,,,,,,,,,,,,,,,,,,,,,,,,,,,,,,,,,,,,,,,,,,,,,,,,
,,2,2.1612,2,2.1612,0,38,38,70,1,141,melon,tomato,,90444,001,2022-04-29_11h53.21.570,SPAMnetsValid,2021.1.4,Win32,144.092219,,,,,,,,,,,,,,,,,,,,,,,,,,,,,,,,,,,,,,,,,,,,,,,,,,,,,,,,,,,,,,,,,,,,,,,,,,,,,,,,,,,,,,,,,
,,8,1.6092,8,1.6092,0,39,39,65,1,160,cookie,kitchen,,90444,001,2022-04-29_11h53.21.570,SPAMnetsValid,2021.1.4,Win32,144.092219,,,,,,,,,,,,,,,,,,,,,,,,,,,,,,,,,,,,,,,,,,,,,,,,,,,,,,,,,,,,,,,,,,,,,,,,,,,,,,,,,,,,,,,,,
,,8,2.7165,8,2.7165,0,40,40,49,1,152,cactus,strawberry,,90444,001,2022-04-29_11h53.21.570,SPAMnetsValid,2021.1.4,Win32,144.092219,,,,,,,,,,,,,,,,,,,,,,,,,,,,,,,,,,,,,,,,,,,,,,,,,,,,,,,,,,,,,,,,,,,,,,,,,,,,,,,,,,,,,,,,,
,,8,1.3038,8,1.3038,0,41,41,11,1,117,melon,strawberry,,90444,001,2022-04-29_11h53.21.570,SPAMnetsValid,2021.1.4,Win32,144.092219,,,,,,,,,,,,,,,,,,,,,,,,,,,,,,,,,,,,,,,,,,,,,,,,,,,,,,,,,,,,,,,,,,,,,,,,,,,,,,,,,,,,,,,,,
,,7,3.1567,7,3.1567,0,42,42,87,1,114,cookie,strawberry,,90444,001,2022-04-29_11h53.21.570,SPAMnetsValid,2021.1.4,Win32,144.092219,,,,,,,,,,,,,,,,,,,,,,,,,,,,,,,,,,,,,,,,,,,,,,,,,,,,,,,,,,,,,,,,,,,,,,,,,,,,,,,,,,,,,,,,,
,,7,1.3917,7,1.3917,0,43,43,15,1,145,cactus,yogurt,,90444,001,2022-04-29_11h53.21.570,SPAMnetsValid,2021.1.4,Win32,144.092219,,,,,,,,,,,,,,,,,,,,,,,,,,,,,,,,,,,,,,,,,,,,,,,,,,,,,,,,,,,,,,,,,,,,,,,,,,,,,,,,,,,,,,,,,
,,9,0.8387,9,0.8387,0,44,44,76,1,102,chocolate,refrigerator,,90444,001,2022-04-29_11h53.21.570,SPAMnetsValid,2021.1.4,Win32,144.092219,,,,,,,,,,,,,,,,,,,,,,,,,,,,,,,,,,,,,,,,,,,,,,,,,,,,,,,,,,,,,,,,,,,,,,,,,,,,,,,,,,,,,,,,,
,,7,9.8266,7,9.8266,0,45,45,55,1,143,pretzel,rose,,90444,001,2022-04-29_11h53.21.570,SPAMnetsValid,2021.1.4,Win32,144.092219,,,,,,,,,,,,,,,,,,,,,,,,,,,,,,,,,,,,,,,,,,,,,,,,,,,,,,,,,,,,,,,,,,,,,,,,,,,,,,,,,,,,,,,,,
,,7,1.7162,7,1.7162,0,46,46,91,1,166,cake,yogurt,,90444,001,2022-04-29_11h53.21.570,SPAMnetsValid,2021.1.4,Win32,144.092219,,,,,,,,,,,,,,,,,,,,,,,,,,,,,,,,,,,,,,,,,,,,,,,,,,,,,,,,,,,,,,,,,,,,,,,,,,,,,,,,,,,,,,,,,
,,6,1.3349,6,1.3349,0,47,47,35,1,147,cake,refrigerator,,90444,001,2022-04-29_11h53.21.570,SPAMnetsValid,2021.1.4,Win32,144.092219,,,,,,,,,,,,,,,,,,,,,,,,,,,,,,,,,,,,,,,,,,,,,,,,,,,,,,,,,,,,,,,,,,,,,,,,,,,,,,,,,,,,,,,,,
,,3,1.0516,3,1.0516,0,48,48,84,1,130,microwave,yogurt,,90444,001,2022-04-29_11h53.21.570,SPAMnetsValid,2021.1.4,Win32,144.092219,,,,,,,,,,,,,,,,,,,,,,,,,,,,,,,,,,,,,,,,,,,,,,,,,,,,,,,,,,,,,,,,,,,,,,,,,,,,,,,,,,,,,,,,,
,,9,2.3089,9,2.3089,0,49,49,42,1,184,oven,pretzel,,90444,001,2022-04-29_11h53.21.570,SPAMnetsValid,2021.1.4,Win32,144.092219,,,,,,,,,,,,,,,,,,,,,,,,,,,,,,,,,,,,,,,,,,,,,,,,,,,,,,,,,,,,,,,,,,,,,,,,,,,,,,,,,,,,,,,,,
,,2,1.9749,2,1.9749,0,50,50,95,1,121,broom,microwave,,90444,001,2022-04-29_11h53.21.570,SPAMnetsValid,2021.1.4,Win32,144.092219,,,,,,,,,,,,,,,,,,,,,,,,,,,,,,,,,,,,,,,,,,,,,,,,,,,,,,,,,,,,,,,,,,,,,,,,,,,,,,,,,,,,,,,,,
,,8,2.4667,8,2.4667,0,51,51,39,1,112,cake,carrot,,90444,001,2022-04-29_11h53.21.570,SPAMnetsValid,2021.1.4,Win32,144.092219,,,,,,,,,,,,,,,,,,,,,,,,,,,,,,,,,,,,,,,,,,,,,,,,,,,,,,,,,,,,,,,,,,,,,,,,,,,,,,,,,,,,,,,,,
,,2,1.6932,2,1.6932,0,52,52,88,1,171,cake,tomato,,90444,001,2022-04-29_11h53.21.570,SPAMnetsValid,2021.1.4,Win32,144.092219,,,,,,,,,,,,,,,,,,,,,,,,,,,,,,,,,,,,,,,,,,,,,,,,,,,,,,,,,,,,,,,,,,,,,,,,,,,,,,,,,,,,,,,,,
,,8,1.9399,8,1.9399,0,53,53,1,1,173,kitchen,tomato,,90444,001,2022-04-29_11h53.21.570,SPAMnetsValid,2021.1.4,Win32,144.092219,,,,,,,,,,,,,,,,,,,,,,,,,,,,,,,,,,,,,,,,,,,,,,,,,,,,,,,,,,,,,,,,,,,,,,,,,,,,,,,,,,,,,,,,,
,,6,1.6403,6,1.6403,0,54,54,69,1,124,oven,refrigerator,,90444,001,2022-04-29_11h53.21.570,SPAMnetsValid,2021.1.4,Win32,144.092219,,,,,,,,,,,,,,,,,,,,,,,,,,,,,,,,,,,,,,,,,,,,,,,,,,,,,,,,,,,,,,,,,,,,,,,,,,,,,,,,,,,,,,,,,
,,2,1.8077,2,1.8077,0,55,55,23,1,148,flower,melon,,90444,001,2022-04-29_11h53.21.570,SPAMnetsValid,2021.1.4,Win32,144.092219,,,,,,,,,,,,,,,,,,,,,,,,,,,,,,,,,,,,,,,,,,,,,,,,,,,,,,,,,,,,,,,,,,,,,,,,,,,,,,,,,,,,,,,,,
,,3,1.956,3,1.956,0,56,56,59,1,164,cookie,garden,,90444,001,2022-04-29_11h53.21.570,SPAMnetsValid,2021.1.4,Win32,144.092219,,,,,,,,,,,,,,,,,,,,,,,,,,,,,,,,,,,,,,,,,,,,,,,,,,,,,,,,,,,,,,,,,,,,,,,,,,,,,,,,,,,,,,,,,
,,3,1.5731,3,1.5731,0,57,57,8,1,97,chocolate,kitchen,,90444,001,2022-04-29_11h53.21.570,SPAMnetsValid,2021.1.4,Win32,144.092219,,,,,,,,,,,,,,,,,,,,,,,,,,,,,,,,,,,,,,,,,,,,,,,,,,,,,,,,,,,,,,,,,,,,,,,,,,,,,,,,,,,,,,,,,
,,4,1.663,4,1.663,0,58,58,5,1,108,carrot,chocolate,,90444,001,2022-04-29_11h53.21.570,SPAMnetsValid,2021.1.4,Win32,144.092219,,,,,,,,,,,,,,,,,,,,,,,,,,,,,,,,,,,,,,,,,,,,,,,,,,,,,,,,,,,,,,,,,,,,,,,,,,,,,,,,,,,,,,,,,
,,2,2.5468,2,2.5468,0,59,59,50,1,126,kitchen,tree,,90444,001,2022-04-29_11h53.21.570,SPAMnetsValid,2021.1.4,Win32,144.092219,,,,,,,,,,,,,,,,,,,,,,,,,,,,,,,,,,,,,,,,,,,,,,,,,,,,,,,,,,,,,,,,,,,,,,,,,,,,,,,,,,,,,,,,,
,,9,2.0388,9,2.0388,0,60,60,83,1,100,garden,tomato,,90444,001,2022-04-29_11h53.21.570,SPAMnetsValid,2021.1.4,Win32,144.092219,,,,,,,,,,,,,,,,,,,,,,,,,,,,,,,,,,,,,,,,,,,,,,,,,,,,,,,,,,,,,,,,,,,,,,,,,,,,,,,,,,,,,,,,,
,,1,1.6564,1,1.6564,0,61,61,37,1,139,carrot,strawberry,,90444,001,2022-04-29_11h53.21.570,SPAMnetsValid,2021.1.4,Win32,144.092219,,,,,,,,,,,,,,,,,,,,,,,,,,,,,,,,,,,,,,,,,,,,,,,,,,,,,,,,,,,,,,,,,,,,,,,,,,,,,,,,,,,,,,,,,
,,3,1.4824,3,1.4824,0,62,62,38,1,155,carrot,cookie,,90444,001,2022-04-29_11h53.21.570,SPAMnetsValid,2021.1.4,Win32,144.092219,,,,,,,,,,,,,,,,,,,,,,,,,,,,,,,,,,,,,,,,,,,,,,,,,,,,,,,,,,,,,,,,,,,,,,,,,,,,,,,,,,,,,,,,,
,,3,1.3974,3,1.3974,0,63,63,78,1,132,broom,tree,,90444,001,2022-04-29_11h53.21.570,SPAMnetsValid,2021.1.4,Win32,144.092219,,,,,,,,,,,,,,,,,,,,,,,,,,,,,,,,,,,,,,,,,,,,,,,,,,,,,,,,,,,,,,,,,,,,,,,,,,,,,,,,,,,,,,,,,
,,1,1.0588,1,1.0588,0,64,64,71,1,187,cactus,microwave,,90444,001,2022-04-29_11h53.21.570,SPAMnetsValid,2021.1.4,Win32,144.092219,,,,,,,,,,,,,,,,,,,,,,,,,,,,,,,,,,,,,,,,,,,,,,,,,,,,,,,,,,,,,,,,,,,,,,,,,,,,,,,,,,,,,,,,,
,,2,1.3857,2,1.3857,0,65,65,6,1,151,microwave,onion,,90444,001,2022-04-29_11h53.21.570,SPAMnetsValid,2021.1.4,Win32,144.092219,,,,,,,,,,,,,,,,,,,,,,,,,,,,,,,,,,,,,,,,,,,,,,,,,,,,,,,,,,,,,,,,,,,,,,,,,,,,,,,,,,,,,,,,,
,,2,1.2702,2,1.2702,0,66,66,92,1,170,cookie,microwave,,90444,001,2022-04-29_11h53.21.570,SPAMnetsValid,2021.1.4,Win32,144.092219,,,,,,,,,,,,,,,,,,,,,,,,,,,,,,,,,,,,,,,,,,,,,,,,,,,,,,,,,,,,,,,,,,,,,,,,,,,,,,,,,,,,,,,,,
,,1,1.0312,1,1.0312,0,67,67,43,1,185,cactus,rose,,90444,001,2022-04-29_11h53.21.570,SPAMnetsValid,2021.1.4,Win32,144.092219,,,,,,,,,,,,,,,,,,,,,,,,,,,,,,,,,,,,,,,,,,,,,,,,,,,,,,,,,,,,,,,,,,,,,,,,,,,,,,,,,,,,,,,,,
,,2,2.7104,2,2.7104,0,68,68,63,1,137,microwave,tree,,90444,001,2022-04-29_11h53.21.570,SPAMnetsValid,2021.1.4,Win32,144.092219,,,,,,,,,,,,,,,,,,,,,,,,,,,,,,,,,,,,,,,,,,,,,,,,,,,,,,,,,,,,,,,,,,,,,,,,,,,,,,,,,,,,,,,,,
,,3,1.5174,3,1.5174,0,69,69,57,1,127,cactus,chocolate,,90444,001,2022-04-29_11h53.21.570,SPAMnetsValid,2021.1.4,Win32,144.092219,,,,,,,,,,,,,,,,,,,,,,,,,,,,,,,,,,,,,,,,,,,,,,,,,,,,,,,,,,,,,,,,,,,,,,,,,,,,,,,,,,,,,,,,,
,,1,1.1568,1,1.1568,0,70,70,19,1,183,cake,rose,,90444,001,2022-04-29_11h53.21.570,SPAMnetsValid,2021.1.4,Win32,144.092219,,,,,,,,,,,,,,,,,,,,,,,,,,,,,,,,,,,,,,,,,,,,,,,,,,,,,,,,,,,,,,,,,,,,,,,,,,,,,,,,,,,,,,,,,
,,2,1.5046,2,1.5046,0,71,71,9,1,176,cactus,tomato,,90444,001,2022-04-29_11h53.21.570,SPAMnetsValid,2021.1.4,Win32,144.092219,,,,,,,,,,,,,,,,,,,,,,,,,,,,,,,,,,,,,,,,,,,,,,,,,,,,,,,,,,,,,,,,,,,,,,,,,,,,,,,,,,,,,,,,,
,,7,3.6117,7,3.6117,0,72,72,4,1,109,broom,strawberry,,90444,001,2022-04-29_11h53.21.570,SPAMnetsValid,2021.1.4,Win32,144.092219,,,,,,,,,,,,,,,,,,,,,,,,,,,,,,,,,,,,,,,,,,,,,,,,,,,,,,,,,,,,,,,,,,,,,,,,,,,,,,,,,,,,,,,,,
,,3,2.044,3,2.044,0,73,73,28,1,154,strawberry,yogurt,,90444,001,2022-04-29_11h53.21.570,SPAMnetsValid,2021.1.4,Win32,144.092219,,,,,,,,,,,,,,,,,,,,,,,,,,,,,,,,,,,,,,,,,,,,,,,,,,,,,,,,,,,,,,,,,,,,,,,,,,,,,,,,,,,,,,,,,
,,7,1.4173,7,1.4173,0,74,74,53,1,177,chocolate,strawberry,,90444,001,2022-04-29_11h53.21.570,SPAMnetsValid,2021.1.4,Win32,144.092219,,,,,,,,,,,,,,,,,,,,,,,,,,,,,,,,,,,,,,,,,,,,,,,,,,,,,,,,,,,,,,,,,,,,,,,,,,,,,,,,,,,,,,,,,
,,3,1.5735,3,1.5735,0,75,75,22,1,142,garden,tree,,90444,001,2022-04-29_11h53.21.570,SPAMnetsValid,2021.1.4,Win32,144.092219,,,,,,,,,,,,,,,,,,,,,,,,,,,,,,,,,,,,,,,,,,,,,,,,,,,,,,,,,,,,,,,,,,,,,,,,,,,,,,,,,,,,,,,,,
,,1,1.0114,1,1.0114,0,76,76,89,1,140,cookie,refrigerator,,90444,001,2022-04-29_11h53.21.570,SPAMnetsValid,2021.1.4,Win32,144.092219,,,,,,,,,,,,,,,,,,,,,,,,,,,,,,,,,,,,,,,,,,,,,,,,,,,,,,,,,,,,,,,,,,,,,,,,,,,,,,,,,,,,,,,,,
,,1,1.1229,1,1.1229,0,77,77,41,1,175,melon,onion,,90444,001,2022-04-29_11h53.21.570,SPAMnetsValid,2021.1.4,Win32,144.092219,,,,,,,,,,,,,,,,,,,,,,,,,,,,,,,,,,,,,,,,,,,,,,,,,,,,,,,,,,,,,,,,,,,,,,,,,,,,,,,,,,,,,,,,,
,,3,0.9802,3,0.9802,0,78,78,94,1,133,cake,flower,,90444,001,2022-04-29_11h53.21.570,SPAMnetsValid,2021.1.4,Win32,144.092219,,,,,,,,,,,,,,,,,,,,,,,,,,,,,,,,,,,,,,,,,,,,,,,,,,,,,,,,,,,,,,,,,,,,,,,,,,,,,,,,,,,,,,,,,
,,4,1.093,4,1.093,0,79,79,30,1,125,carrot,tree,,90444,001,2022-04-29_11h53.21.570,SPAMnetsValid,2021.1.4,Win32,144.092219,,,,,,,,,,,,,,,,,,,,,,,,,,,,,,,,,,,,,,,,,,,,,,,,,,,,,,,,,,,,,,,,,,,,,,,,,,,,,,,,,,,,,,,,,
,,3,1.1055,3,1.1055,0,80,80,27,1,158,cookie,oven,,90444,001,2022-04-29_11h53.21.570,SPAMnetsValid,2021.1.4,Win32,144.092219,,,,,,,,,,,,,,,,,,,,,,,,,,,,,,,,,,,,,,,,,,,,,,,,,,,,,,,,,,,,,,,,,,,,,,,,,,,,,,,,,,,,,,,,,
,,1,1.0575,1,1.0575,0,81,81,72,1,181,carrot,kitchen,,90444,001,2022-04-29_11h53.21.570,SPAMnetsValid,2021.1.4,Win32,144.092219,,,,,,,,,,,,,,,,,,,,,,,,,,,,,,,,,,,,,,,,,,,,,,,,,,,,,,,,,,,,,,,,,,,,,,,,,,,,,,,,,,,,,,,,,
,,1,1.0586,1,1.0586,0,82,82,0,1,106,cake,strawberry,,90444,001,2022-04-29_11h53.21.570,SPAMnetsValid,2021.1.4,Win32,144.092219,,,,,,,,,,,,,,,,,,,,,,,,,,,,,,,,,,,,,,,,,,,,,,,,,,,,,,,,,,,,,,,,,,,,,,,,,,,,,,,,,,,,,,,,,
,,3,0.8784,3,0.8784,0,83,83,32,1,182,flower,refrigerator,,90444,001,2022-04-29_11h53.21.570,SPAMnetsValid,2021.1.4,Win32,144.092219,,,,,,,,,,,,,,,,,,,,,,,,,,,,,,,,,,,,,,,,,,,,,,,,,,,,,,,,,,,,,,,,,,,,,,,,,,,,,,,,,,,,,,,,,
,,8,0.8655,8,0.8655,0,84,84,20,1,149,broom,tomato,,90444,001,2022-04-29_11h53.21.570,SPAMnetsValid,2021.1.4,Win32,144.092219,,,,,,,,,,,,,,,,,,,,,,,,,,,,,,,,,,,,,,,,,,,,,,,,,,,,,,,,,,,,,,,,,,,,,,,,,,,,,,,,,,,,,,,,,
,,8,0.9261,8,0.9261,0,85,85,68,1,180,tree,yogurt,,90444,001,2022-04-29_11h53.21.570,SPAMnetsValid,2021.1.4,Win32,144.092219,,,,,,,,,,,,,,,,,,,,,,,,,,,,,,,,,,,,,,,,,,,,,,,,,,,,,,,,,,,,,,,,,,,,,,,,,,,,,,,,,,,,,,,,,
,,7,1.0499,7,1.0499,0,86,86,62,1,189,onion,tree,,90444,001,2022-04-29_11h53.21.570,SPAMnetsValid,2021.1.4,Win32,144.092219,,,,,,,,,,,,,,,,,,,,,,,,,,,,,,,,,,,,,,,,,,,,,,,,,,,,,,,,,,,,,,,,,,,,,,,,,,,,,,,,,,,,,,,,,
,,3,0.8846,3,0.8846,0,87,87,54,1,101,cactus,kitchen,,90444,001,2022-04-29_11h53.21.570,SPAMnetsValid,2021.1.4,Win32,144.092219,,,,,,,,,,,,,,,,,,,,,,,,,,,,,,,,,,,,,,,,,,,,,,,,,,,,,,,,,,,,,,,,,,,,,,,,,,,,,,,,,,,,,,,,,
,,7,0.713,7,0.713,0,88,88,51,1,168,cactus,flower,,90444,001,2022-04-29_11h53.21.570,SPAMnetsValid,2021.1.4,Win32,144.092219,,,,,,,,,,,,,,,,,,,,,,,,,,,,,,,,,,,,,,,,,,,,,,,,,,,,,,,,,,,,,,,,,,,,,,,,,,,,,,,,,,,,,,,,,
,,2,0.7961,2,0.7961,0,89,89,73,1,135,carrot,oven,,90444,001,2022-04-29_11h53.21.570,SPAMnetsValid,2021.1.4,Win32,144.092219,,,,,,,,,,,,,,,,,,,,,,,,,,,,,,,,,,,,,,,,,,,,,,,,,,,,,,,,,,,,,,,,,,,,,,,,,,,,,,,,,,,,,,,,,
,,6,0.8459,6,0.8459,0,90,90,24,1,169,onion,yogurt,,90444,001,2022-04-29_11h53.21.570,SPAMnetsValid,2021.1.4,Win32,144.092219,,,,,,,,,,,,,,,,,,,,,,,,,,,,,,,,,,,,,,,,,,,,,,,,,,,,,,,,,,,,,,,,,,,,,,,,,,,,,,,,,,,,,,,,,
,,2,0.6859,2,0.6859,0,91,91,96,1,136,chocolate,microwave,,90444,001,2022-04-29_11h53.21.570,SPAMnetsValid,2021.1.4,Win32,144.092219,,,,,,,,,,,,,,,,,,,,,,,,,,,,,,,,,,,,,,,,,,,,,,,,,,,,,,,,,,,,,,,,,,,,,,,,,,,,,,,,,,,,,,,,,
,,7,0.9493,7,0.9493,0,92,92,81,1,104,garden,microwave,,90444,001,2022-04-29_11h53.21.570,SPAMnetsValid,2021.1.4,Win32,144.092219,,,,,,,,,,,,,,,,,,,,,,,,,,,,,,,,,,,,,,,,,,,,,,,,,,,,,,,,,,,,,,,,,,,,,,,,,,,,,,,,,,,,,,,,,
,,3,1.1636,3,1.1636,0,93,93,34,1,153,carrot,pretzel,,90444,001,2022-04-29_11h53.21.570,SPAMnetsValid,2021.1.4,Win32,144.092219,,,,,,,,,,,,,,,,,,,,,,,,,,,,,,,,,,,,,,,,,,,,,,,,,,,,,,,,,,,,,,,,,,,,,,,,,,,,,,,,,,,,,,,,,
,,6,0.9155,6,0.9155,0,94,94,61,1,138,flower,rose,,90444,001,2022-04-29_11h53.21.570,SPAMnetsValid,2021.1.4,Win32,144.092219,,,,,,,,,,,,,,,,,,,,,,,,,,,,,,,,,,,,,,,,,,,,,,,,,,,,,,,,,,,,,,,,,,,,,,,,,,,,,,,,,,,,,,,,,
,,4,0.8491,4,0.8491,0,95,95,66,1,150,microwave,refrigerator,,90444,001,2022-04-29_11h53.21.570,SPAMnetsValid,2021.1.4,Win32,144.092219,,,,,,,,,,,,,,,,,,,,,,,,,,,,,,,,,,,,,,,,,,,,,,,,,,,,,,,,,,,,,,,,,,,,,,,,,,,,,,,,,,,,,,,,,
,,8,1.2402,8,1.2402,0,96,96,12,1,162,microwave,tomato,,90444,001,2022-04-29_11h53.21.570,SPAMnetsValid,2021.1.4,Win32,144.092219,,,,,,,,,,,,,,,,,,,,,,,,,,,,,,,,,,,,,,,,,,,,,,,,,,,,,,,,,,,,,,,,,,,,,,,,,,,,,,,,,,,,,,,,,
,,,,,,,,,,,,,,,90444,001,2022-04-29_11h53.21.570,SPAMnetsValid,2021.1.4,Win32,144.092219,0,0,0,0,1,,,,,,,,,,,,,,,,,,,,,,,,,,,,,,,,,,,,,,,,,,,,,,,,,,,,,,,,,,,,,,,,,,,,,,,,,,,,,,,,,,,,
,,,,,,,,,,,,,,,90444,001,2022-04-29_11h53.21.570,SPAMnetsValid,2021.1.4,Win32,144.092219,,,,,,0,0,0,1,1,0,1,,,,,,,,,,,,,,,,,,,,,,,,,,,,,,,,,,,,,,,,,,,,,,,,,,,,,,,,,,,,,,,,,,,,,,,,,,,,,
,,,,5,18.0809,,,,,,64,chocolate,garden,,90444,001,2022-04-29_11h53.21.570,SPAMnetsValid,2021.1.4,Win32,144.092219,,,,,,,,,,,,,5,18.0809,0,0,0,14,1,,,,,,,,,,,,,,,,,,,,,,,,,,,,,,,,,,,,,,,,,,,,,,,,,,,,,,,,,,,,,,,,,,,,,,
,,,,7,0.0648,,,,,,14,broom,cookie,,90444,001,2022-04-29_11h53.21.570,SPAMnetsValid,2021.1.4,Win32,144.092219,,,,,,,,,,,,,7,0.0648,0,1,1,16,1,,,,,,,,,,,,,,,,,,,,,,,,,,,,,,,,,,,,,,,,,,,,,,,,,,,,,,,,,,,,,,,,,,,,,,
,,,,6,2.8879,,,,,,85,cake,tree,,90444,001,2022-04-29_11h53.21.570,SPAMnetsValid,2021.1.4,Win32,144.092219,,,,,,,,,,,,,6,2.8879,0,2,2,18,1,,,,,,,,,,,,,,,,,,,,,,,,,,,,,,,,,,,,,,,,,,,,,,,,,,,,,,,,,,,,,,,,,,,,,,
,,,,4,1.2926,,,,,,10,flower,onion,,90444,001,2022-04-29_11h53.21.570,SPAMnetsValid,2021.1.4,Win32,144.092219,,,,,,,,,,,,,4,1.2926,0,3,3,45,1,,,,,,,,,,,,,,,,,,,,,,,,,,,,,,,,,,,,,,,,,,,,,,,,,,,,,,,,,,,,,,,,,,,,,,
,,,,6,1.1633,,,,,,19,microwave,pretzel,,90444,001,2022-04-29_11h53.21.570,SPAMnetsValid,2021.1.4,Win32,144.092219,,,,,,,,,,,,,6,1.1633,0,4,4,41,1,,,,,,,,,,,,,,,,,,,,,,,,,,,,,,,,,,,,,,,,,,,,,,,,,,,,,,,,,,,,,,,,,,,,,,
,,,,3,1.0542,,,,,,74,broom,pretzel,,90444,001,2022-04-29_11h53.21.570,SPAMnetsValid,2021.1.4,Win32,144.092219,,,,,,,,,,,,,3,1.0542,0,5,5,40,1,,,,,,,,,,,,,,,,,,,,,,,,,,,,,,,,,,,,,,,,,,,,,,,,,,,,,,,,,,,,,,,,,,,,,,
,,,,6,31.7053,,,,,,25,carrot,onion,,90444,001,2022-04-29_11h53.21.570,SPAMnetsValid,2021.1.4,Win32,144.092219,,,,,,,,,,,,,6,31.7053,0,6,6,44,1,,,,,,,,,,,,,,,,,,,,,,,,,,,,,,,,,,,,,,,,,,,,,,,,,,,,,,,,,,,,,,,,,,,,,,
,,,,4,0.8553,,,,,,73,broom,chocolate,,90444,001,2022-04-29_11h53.21.570,SPAMnetsValid,2021.1.4,Win32,144.092219,,,,,,,,,,,,,4,0.8553,0,7,7,47,1,,,,,,,,,,,,,,,,,,,,,,,,,,,,,,,,,,,,,,,,,,,,,,,,,,,,,,,,,,,,,,,,,,,,,,
,,,,7,2.1157,,,,,,11,refrigerator,tree,,90444,001,2022-04-29_11h53.21.570,SPAMnetsValid,2021.1.4,Win32,144.092219,,,,,,,,,,,,,7,2.1157,0,8,8,43,1,,,,,,,,,,,,,,,,,,,,,,,,,,,,,,,,,,,,,,,,,,,,,,,,,,,,,,,,,,,,,,,,,,,,,,
,,,,4,1.3854,,,,,,33,oven,yogurt,,90444,001,2022-04-29_11h53.21.570,SPAMnetsValid,2021.1.4,Win32,144.092219,,,,,,,,,,,,,4,1.3854,0,9,9,31,1,,,,,,,,,,,,,,,,,,,,,,,,,,,,,,,,,,,,,,,,,,,,,,,,,,,,,,,,,,,,,,,,,,,,,,
,,,,6,0.7906,,,,,,55,tomato,tree,,90444,001,2022-04-29_11h53.21.570,SPAMnetsValid,2021.1.4,Win32,144.092219,,,,,,,,,,,,,6,0.7906,0,10,10,35,1,,,,,,,,,,,,,,,,,,,,,,,,,,,,,,,,,,,,,,,,,,,,,,,,,,,,,,,,,,,,,,,,,,,,,,
,,,,4,2.3072,,,,,,4,chocolate,pretzel,,90444,001,2022-04-29_11h53.21.570,SPAMnetsValid,2021.1.4,Win32,144.092219,,,,,,,,,,,,,4,2.3072,0,11,11,52,1,,,,,,,,,,,,,,,,,,,,,,,,,,,,,,,,,,,,,,,,,,,,,,,,,,,,,,,,,,,,,,,,,,,,,,
,,,,6,1.6447,,,,,,42,garden,kitchen,,90444,001,2022-04-29_11h53.21.570,SPAMnetsValid,2021.1.4,Win32,144.092219,,,,,,,,,,,,,6,1.6447,0,12,12,29,1,,,,,,,,,,,,,,,,,,,,,,,,,,,,,,,,,,,,,,,,,,,,,,,,,,,,,,,,,,,,,,,,,,,,,,
,,,,3,0.9691,,,,,,81,pretzel,yogurt,,90444,001,2022-04-29_11h53.21.570,SPAMnetsValid,2021.1.4,Win32,144.092219,,,,,,,,,,,,,3,0.9691,0,13,13,50,1,,,,,,,,,,,,,,,,,,,,,,,,,,,,,,,,,,,,,,,,,,,,,,,,,,,,,,,,,,,,,,,,,,,,,,
,,,,6,0.7486,,,,,,40,broom,cake,,90444,001,2022-04-29_11h53.21.570,SPAMnetsValid,2021.1.4,Win32,144.092219,,,,,,,,,,,,,6,0.7486,0,14,14,32,1,,,,,,,,,,,,,,,,,,,,,,,,,,,,,,,,,,,,,,,,,,,,,,,,,,,,,,,,,,,,,,,,,,,,,,
,,,,4,1.5445,,,,,,52,carrot,tomato,,90444,001,2022-04-29_11h53.21.570,SPAMnetsValid,2021.1.4,Win32,144.092219,,,,,,,,,,,,,4,1.5445,0,15,15,95,1,,,,,,,,,,,,,,,,,,,,,,,,,,,,,,,,,,,,,,,,,,,,,,,,,,,,,,,,,,,,,,,,,,,,,,
,,,,6,1.7208,,,,,,6,garden,onion,,90444,001,2022-04-29_11h53.21.570,SPAMnetsValid,2021.1.4,Win32,144.092219,,,,,,,,,,,,,6,1.7208,0,16,16,83,1,,,,,,,,,,,,,,,,,,,,,,,,,,,,,,,,,,,,,,,,,,,,,,,,,,,,,,,,,,,,,,,,,,,,,,
,,,,4,0.867,,,,,,47,onion,tomato,,90444,001,2022-04-29_11h53.21.570,SPAMnetsValid,2021.1.4,Win32,144.092219,,,,,,,,,,,,,4,0.867,0,17,17,51,1,,,,,,,,,,,,,,,,,,,,,,,,,,,,,,,,,,,,,,,,,,,,,,,,,,,,,,,,,,,,,,,,,,,,,,
,,,,6,2.0062,,,,,,71,broom,rose,,90444,001,2022-04-29_11h53.21.570,SPAMnetsValid,2021.1.4,Win32,144.092219,,,,,,,,,,,,,6,2.0062,0,18,18,61,1,,,,,,,,,,,,,,,,,,,,,,,,,,,,,,,,,,,,,,,,,,,,,,,,,,,,,,,,,,,,,,,,,,,,,,
,,,,4,1.0739,,,,,,192,microwave,microwave,CHECK,90444,001,2022-04-29_11h53.21.570,SPAMnetsValid,2021.1.4,Win32,144.092219,,,,,,,,,,,,,4,1.0739,0,19,19,53,1,,,,,,,,,,,,,,,,,,,,,,,,,,,,,,,,,,,,,,,,,,,,,,,,,,,,,,,,,,,,,,,,,,,,,,
,,,,5,1.4508,,,,,,48,flower,oven,,90444,001,2022-04-29_11h53.21.570,SPAMnetsValid,2021.1.4,Win32,144.092219,,,,,,,,,,,,,5,1.4508,0,20,20,15,1,,,,,,,,,,,,,,,,,,,,,,,,,,,,,,,,,,,,,,,,,,,,,,,,,,,,,,,,,,,,,,,,,,,,,,
,,,,5,0.8576,,,,,,44,cookie,melon,,90444,001,2022-04-29_11h53.21.570,SPAMnetsValid,2021.1.4,Win32,144.092219,,,,,,,,,,,,,5,0.8576,0,21,21,92,1,,,,,,,,,,,,,,,,,,,,,,,,,,,,,,,,,,,,,,,,,,,,,,,,,,,,,,,,,,,,,,,,,,,,,,
,,,,5,0.5155,,,,,,54,chocolate,yogurt,,90444,001,2022-04-29_11h53.21.570,SPAMnetsValid,2021.1.4,Win32,144.092219,,,,,,,,,,,,,5,0.5155,0,22,22,67,1,,,,,,,,,,,,,,,,,,,,,,,,,,,,,,,,,,,,,,,,,,,,,,,,,,,,,,,,,,,,,,,,,,,,,,
,,,,5,0.44,,,,,,9,kitchen,refrigerator,,90444,001,2022-04-29_11h53.21.570,SPAMnetsValid,2021.1.4,Win32,144.092219,,,,,,,,,,,,,5,0.44,0,23,23,64,1,,,,,,,,,,,,,,,,,,,,,,,,,,,,,,,,,,,,,,,,,,,,,,,,,,,,,,,,,,,,,,,,,,,,,,
,,,,5,0.3257,,,,,,57,flower,kitchen,,90444,001,2022-04-29_11h53.21.570,SPAMnetsValid,2021.1.4,Win32,144.092219,,,,,,,,,,,,,5,0.3257,0,24,24,49,1,,,,,,,,,,,,,,,,,,,,,,,,,,,,,,,,,,,,,,,,,,,,,,,,,,,,,,,,,,,,,,,,,,,,,,
,,,,5,0.2693,,,,,,5,oven,tree,,90444,001,2022-04-29_11h53.21.570,SPAMnetsValid,2021.1.4,Win32,144.092219,,,,,,,,,,,,,5,0.2693,0,25,25,70,1,,,,,,,,,,,,,,,,,,,,,,,,,,,,,,,,,,,,,,,,,,,,,,,,,,,,,,,,,,,,,,,,,,,,,,
,,,,5,0.1956,,,,,,87,carrot,yogurt,,90444,001,2022-04-29_11h53.21.570,SPAMnetsValid,2021.1.4,Win32,144.092219,,,,,,,,,,,,,5,0.1956,0,26,26,6,1,,,,,,,,,,,,,,,,,,,,,,,,,,,,,,,,,,,,,,,,,,,,,,,,,,,,,,,,,,,,,,,,,,,,,,
,,,,5,0.1034,,,,,,82,cake,kitchen,,90444,001,2022-04-29_11h53.21.570,SPAMnetsValid,2021.1.4,Win32,144.092219,,,,,,,,,,,,,5,0.1034,0,27,27,96,1,,,,,,,,,,,,,,,,,,,,,,,,,,,,,,,,,,,,,,,,,,,,,,,,,,,,,,,,,,,,,,,,,,,,,,
,,,,5,0.0823,,,,,,1,rose,yogurt,,90444,001,2022-04-29_11h53.21.570,SPAMnetsValid,2021.1.4,Win32,144.092219,,,,,,,,,,,,,5,0.0823,0,28,28,55,1,,,,,,,,,,,,,,,,,,,,,,,,,,,,,,,,,,,,,,,,,,,,,,,,,,,,,,,,,,,,,,,,,,,,,,
,,,,5,0.053,,,,,,66,melon,yogurt,,90444,001,2022-04-29_11h53.21.570,SPAMnetsValid,2021.1.4,Win32,144.092219,,,,,,,,,,,,,5,0.053,0,29,29,48,1,,,,,,,,,,,,,,,,,,,,,,,,,,,,,,,,,,,,,,,,,,,,,,,,,,,,,,,,,,,,,,,,,,,,,,
,,,,5,0.0381,,,,,,76,garden,rose,,90444,001,2022-04-29_11h53.21.570,SPAMnetsValid,2021.1.4,Win32,144.092219,,,,,,,,,,,,,5,0.0381,0,30,30,19,1,,,,,,,,,,,,,,,,,,,,,,,,,,,,,,,,,,,,,,,,,,,,,,,,,,,,,,,,,,,,,,,,,,,,,,
,,,,5,0.024,,,,,,86,oven,rose,,90444,001,2022-04-29_11h53.21.570,SPAMnetsValid,2021.1.4,Win32,144.092219,,,,,,,,,,,,,5,0.024,0,31,31,79,1,,,,,,,,,,,,,,,,,,,,,,,,,,,,,,,,,,,,,,,,,,,,,,,,,,,,,,,,,,,,,,,,,,,,,,
,,,,5,0.0154,,,,,,35,flower,pretzel,,90444,001,2022-04-29_11h53.21.570,SPAMnetsValid,2021.1.4,Win32,144.092219,,,,,,,,,,,,,5,0.0154,0,32,32,26,1,,,,,,,,,,,,,,,,,,,,,,,,,,,,,,,,,,,,,,,,,,,,,,,,,,,,,,,,,,,,,,,,,,,,,,
,,,,5,0.2077,,,,,,77,refrigerator,yogurt,,90444,001,2022-04-29_11h53.21.570,SPAMnetsValid,2021.1.4,Win32,144.092219,,,,,,,,,,,,,5,0.2077,0,33,33,42,1,,,,,,,,,,,,,,,,,,,,,,,,,,,,,,,,,,,,,,,,,,,,,,,,,,,,,,,,,,,,,,,,,,,,,,
,,,,5,0.0254,,,,,,31,cactus,pretzel,,90444,001,2022-04-29_11h53.21.570,SPAMnetsValid,2021.1.4,Win32,144.092219,,,,,,,,,,,,,5,0.0254,0,34,34,1,1,,,,,,,,,,,,,,,,,,,,,,,,,,,,,,,,,,,,,,,,,,,,,,,,,,,,,,,,,,,,,,,,,,,,,,
,,,,5,0.1554,,,,,,43,chocolate,tomato,,90444,001,2022-04-29_11h53.21.570,SPAMnetsValid,2021.1.4,Win32,144.092219,,,,,,,,,,,,,5,0.1554,0,35,35,8,1,,,,,,,,,,,,,,,,,,,,,,,,,,,,,,,,,,,,,,,,,,,,,,,,,,,,,,,,,,,,,,,,,,,,,,
,,,,5,0.2769,,,,,,15,onion,oven,,90444,001,2022-04-29_11h53.21.570,SPAMnetsValid,2021.1.4,Win32,144.092219,,,,,,,,,,,,,5,0.2769,0,36,36,39,1,,,,,,,,,,,,,,,,,,,,,,,,,,,,,,,,,,,,,,,,,,,,,,,,,,,,,,,,,,,,,,,,,,,,,,
,,,,5,2.5722,,,,,,28,cake,melon,,90444,001,2022-04-29_11h53.21.570,SPAMnetsValid,2021.1.4,Win32,144.092219,,,,,,,,,,,,,5,2.5722,0,37,37,54,1,,,,,,,,,,,,,,,,,,,,,,,,,,,,,,,,,,,,,,,,,,,,,,,,,,,,,,,,,,,,,,,,,,,,,,
,,,,5,3.3494,,,,,,84,oven,tomato,,90444,001,2022-04-29_11h53.21.570,SPAMnetsValid,2021.1.4,Win32,144.092219,,,,,,,,,,,,,5,3.3494,0,38,38,28,1,,,,,,,,,,,,,,,,,,,,,,,,,,,,,,,,,,,,,,,,,,,,,,,,,,,,,,,,,,,,,,,,,,,,,,
,,,,5,0.7752,,,,,,20,rose,tree,,90444,001,2022-04-29_11h53.21.570,SPAMnetsValid,2021.1.4,Win32,144.092219,,,,,,,,,,,,,5,0.7752,0,39,39,66,1,,,,,,,,,,,,,,,,,,,,,,,,,,,,,,,,,,,,,,,,,,,,,,,,,,,,,,,,,,,,,,,,,,,,,,
,,,,5,1.0652,,,,,,59,rose,strawberry,,90444,001,2022-04-29_11h53.21.570,SPAMnetsValid,2021.1.4,Win32,144.092219,,,,,,,,,,,,,5,1.0652,0,40,40,72,1,,,,,,,,,,,,,,,,,,,,,,,,,,,,,,,,,,,,,,,,,,,,,,,,,,,,,,,,,,,,,,,,,,,,,,
,,,,5,1.1031,,,,,,91,microwave,rose,,90444,001,2022-04-29_11h53.21.570,SPAMnetsValid,2021.1.4,Win32,144.092219,,,,,,,,,,,,,5,1.1031,0,41,41,84,1,,,,,,,,,,,,,,,,,,,,,,,,,,,,,,,,,,,,,,,,,,,,,,,,,,,,,,,,,,,,,,,,,,,,,,
,,,,5,0.5092,,,,,,78,cookie,rose,,90444,001,2022-04-29_11h53.21.570,SPAMnetsValid,2021.1.4,Win32,144.092219,,,,,,,,,,,,,5,0.5092,0,42,42,56,1,,,,,,,,,,,,,,,,,,,,,,,,,,,,,,,,,,,,,,,,,,,,,,,,,,,,,,,,,,,,,,,,,,,,,,
,,,,5,0.5445,,,,,,51,onion,strawberry,,90444,001,2022-04-29_11h53.21.570,SPAMnetsValid,2021.1.4,Win32,144.092219,,,,,,,,,,,,,5,0.5445,0,43,43,86,1,,,,,,,,,,,,,,,,,,,,,,,,,,,,,,,,,,,,,,,,,,,,,,,,,,,,,,,,,,,,,,,,,,,,,,
,,,,5,0.5317,,,,,,75,cookie,onion,,90444,001,2022-04-29_11h53.21.570,SPAMnetsValid,2021.1.4,Win32,144.092219,,,,,,,,,,,,,5,0.5317,0,44,44,9,1,,,,,,,,,,,,,,,,,,,,,,,,,,,,,,,,,,,,,,,,,,,,,,,,,,,,,,,,,,,,,,,,,,,,,,
,,,,5,0.4765,,,,,,22,kitchen,strawberry,,90444,001,2022-04-29_11h53.21.570,SPAMnetsValid,2021.1.4,Win32,144.092219,,,,,,,,,,,,,5,0.4765,0,45,45,2,1,,,,,,,,,,,,,,,,,,,,,,,,,,,,,,,,,,,,,,,,,,,,,,,,,,,,,,,,,,,,,,,,,,,,,,
,,,,5,0.4779,,,,,,63,cake,cookie,,90444,001,2022-04-29_11h53.21.570,SPAMnetsValid,2021.1.4,Win32,144.092219,,,,,,,,,,,,,5,0.4779,0,46,46,93,1,,,,,,,,,,,,,,,,,,,,,,,,,,,,,,,,,,,,,,,,,,,,,,,,,,,,,,,,,,,,,,,,,,,,,,
,,,,5,0.3981,,,,,,45,onion,pretzel,,90444,001,2022-04-29_11h53.21.570,SPAMnetsValid,2021.1.4,Win32,144.092219,,,,,,,,,,,,,5,0.3981,0,47,47,69,1,,,,,,,,,,,,,,,,,,,,,,,,,,,,,,,,,,,,,,,,,,,,,,,,,,,,,,,,,,,,,,,,,,,,,,
,,,,5,0.6069,,,,,,32,cake,microwave,,90444,001,2022-04-29_11h53.21.570,SPAMnetsValid,2021.1.4,Win32,144.092219,,,,,,,,,,,,,5,0.6069,0,48,48,33,1,,,,,,,,,,,,,,,,,,,,,,,,,,,,,,,,,,,,,,,,,,,,,,,,,,,,,,,,,,,,,,,,,,,,,,
,,,,5,0.4906,,,,,,65,broom,garden,,90444,001,2022-04-29_11h53.21.570,SPAMnetsValid,2021.1.4,Win32,144.092219,,,,,,,,,,,,,5,0.4906,0,49,49,23,1,,,,,,,,,,,,,,,,,,,,,,,,,,,,,,,,,,,,,,,,,,,,,,,,,,,,,,,,,,,,,,,,,,,,,,
,,,,5,0.3663,,,,,,36,broom,kitchen,,90444,001,2022-04-29_11h53.21.570,SPAMnetsValid,2021.1.4,Win32,144.092219,,,,,,,,,,,,,5,0.3663,0,50,50,76,1,,,,,,,,,,,,,,,,,,,,,,,,,,,,,,,,,,,,,,,,,,,,,,,,,,,,,,,,,,,,,,,,,,,,,,
,,,,5,0.7931,,,,,,56,cactus,tree,,90444,001,2022-04-29_11h53.21.570,SPAMnetsValid,2021.1.4,Win32,144.092219,,,,,,,,,,,,,5,0.7931,0,51,51,21,1,,,,,,,,,,,,,,,,,,,,,,,,,,,,,,,,,,,,,,,,,,,,,,,,,,,,,,,,,,,,,,,,,,,,,,
,,,,5,0.3935,,,,,,7,melon,tree,,90444,001,2022-04-29_11h53.21.570,SPAMnetsValid,2021.1.4,Win32,144.092219,,,,,,,,,,,,,5,0.3935,0,52,52,77,1,,,,,,,,,,,,,,,,,,,,,,,,,,,,,,,,,,,,,,,,,,,,,,,,,,,,,,,,,,,,,,,,,,,,,,
,,,,5,0.423,,,,,,37,garden,refrigerator,,90444,001,2022-04-29_11h53.21.570,SPAMnetsValid,2021.1.4,Win32,144.092219,,,,,,,,,,,,,5,0.423,0,53,53,11,1,,,,,,,,,,,,,,,,,,,,,,,,,,,,,,,,,,,,,,,,,,,,,,,,,,,,,,,,,,,,,,,,,,,,,,
,,,,5,0.3915,,,,,,16,chocolate,flower,,90444,001,2022-04-29_11h53.21.570,SPAMnetsValid,2021.1.4,Win32,144.092219,,,,,,,,,,,,,5,0.3915,0,54,54,22,1,,,,,,,,,,,,,,,,,,,,,,,,,,,,,,,,,,,,,,,,,,,,,,,,,,,,,,,,,,,,,,,,,,,,,,
,,,,5,0.3947,,,,,,80,chocolate,tree,,90444,001,2022-04-29_11h53.21.570,SPAMnetsValid,2021.1.4,Win32,144.092219,,,,,,,,,,,,,5,0.3947,0,55,55,89,1,,,,,,,,,,,,,,,,,,,,,,,,,,,,,,,,,,,,,,,,,,,,,,,,,,,,,,,,,,,,,,,,,,,,,,
,,,,5,0.3641,,,,,,17,carrot,melon,,90444,001,2022-04-29_11h53.21.570,SPAMnetsValid,2021.1.4,Win32,144.092219,,,,,,,,,,,,,5,0.3641,0,56,56,24,1,,,,,,,,,,,,,,,,,,,,,,,,,,,,,,,,,,,,,,,,,,,,,,,,,,,,,,,,,,,,,,,,,,,,,,
,,,,5,0.3759,,,,,,88,cactus,melon,,90444,001,2022-04-29_11h53.21.570,SPAMnetsValid,2021.1.4,Win32,144.092219,,,,,,,,,,,,,5,0.3759,0,57,57,38,1,,,,,,,,,,,,,,,,,,,,,,,,,,,,,,,,,,,,,,,,,,,,,,,,,,,,,,,,,,,,,,,,,,,,,,
,,,,5,0.359,,,,,,53,garden,pretzel,,90444,001,2022-04-29_11h53.21.570,SPAMnetsValid,2021.1.4,Win32,144.092219,,,,,,,,,,,,,5,0.359,0,58,58,0,1,,,,,,,,,,,,,,,,,,,,,,,,,,,,,,,,,,,,,,,,,,,,,,,,,,,,,,,,,,,,,,,,,,,,,,
,,,,5,0.3208,,,,,,191,cake,cake,CHECK,90444,001,2022-04-29_11h53.21.570,SPAMnetsValid,2021.1.4,Win32,144.092219,,,,,,,,,,,,,5,0.3208,0,59,59,10,1,,,,,,,,,,,,,,,,,,,,,,,,,,,,,,,,,,,,,,,,,,,,,,,,,,,,,,,,,,,,,,,,,,,,,,
,,,,5,0.2945,,,,,,30,cookie,pretzel,,90444,001,2022-04-29_11h53.21.570,SPAMnetsValid,2021.1.4,Win32,144.092219,,,,,,,,,,,,,5,0.2945,0,60,60,78,1,,,,,,,,,,,,,,,,,,,,,,,,,,,,,,,,,,,,,,,,,,,,,,,,,,,,,,,,,,,,,,,,,,,,,,
,,,,5,0.9536,,,,,,13,broom,yogurt,,90444,001,2022-04-29_11h53.21.570,SPAMnetsValid,2021.1.4,Win32,144.092219,,,,,,,,,,,,,5,0.9536,0,61,61,5,1,,,,,,,,,,,,,,,,,,,,,,,,,,,,,,,,,,,,,,,,,,,,,,,,,,,,,,,,,,,,,,,,,,,,,,
,,,,5,0.3032,,,,,,8,broom,melon,,90444,001,2022-04-29_11h53.21.570,SPAMnetsValid,2021.1.4,Win32,144.092219,,,,,,,,,,,,,5,0.3032,0,62,62,59,1,,,,,,,,,,,,,,,,,,,,,,,,,,,,,,,,,,,,,,,,,,,,,,,,,,,,,,,,,,,,,,,,,,,,,,
,,,,5,0.3255,,,,,,21,cake,onion,,90444,001,2022-04-29_11h53.21.570,SPAMnetsValid,2021.1.4,Win32,144.092219,,,,,,,,,,,,,5,0.3255,0,63,63,63,1,,,,,,,,,,,,,,,,,,,,,,,,,,,,,,,,,,,,,,,,,,,,,,,,,,,,,,,,,,,,,,,,,,,,,,
,,,,5,0.2604,,,,,,95,broom,refrigerator,,90444,001,2022-04-29_11h53.21.570,SPAMnetsValid,2021.1.4,Win32,144.092219,,,,,,,,,,,,,5,0.2604,0,64,64,90,1,,,,,,,,,,,,,,,,,,,,,,,,,,,,,,,,,,,,,,,,,,,,,,,,,,,,,,,,,,,,,,,,,,,,,,
,,,,5,0.2309,,,,,,90,cactus,cake,,90444,001,2022-04-29_11h53.21.570,SPAMnetsValid,2021.1.4,Win32,144.092219,,,,,,,,,,,,,5,0.2309,0,65,65,85,1,,,,,,,,,,,,,,,,,,,,,,,,,,,,,,,,,,,,,,,,,,,,,,,,,,,,,,,,,,,,,,,,,,,,,,
,,,,5,0.2183,,,,,,46,garden,yogurt,,90444,001,2022-04-29_11h53.21.570,SPAMnetsValid,2021.1.4,Win32,144.092219,,,,,,,,,,,,,5,0.2183,0,66,66,65,1,,,,,,,,,,,,,,,,,,,,,,,,,,,,,,,,,,,,,,,,,,,,,,,,,,,,,,,,,,,,,,,,,,,,,,
,,,,5,0.2302,,,,,,68,flower,tomato,,90444,001,2022-04-29_11h53.21.570,SPAMnetsValid,2021.1.4,Win32,144.092219,,,,,,,,,,,,,5,0.2302,0,67,67,94,1,,,,,,,,,,,,,,,,,,,,,,,,,,,,,,,,,,,,,,,,,,,,,,,,,,,,,,,,,,,,,,,,,,,,,,
,,,,5,0.2397,,,,,,38,pretzel,refrigerator,,90444,001,2022-04-29_11h53.21.570,SPAMnetsValid,2021.1.4,Win32,144.092219,,,,,,,,,,,,,5,0.2397,0,68,68,71,1,,,,,,,,,,,,,,,,,,,,,,,,,,,,,,,,,,,,,,,,,,,,,,,,,,,,,,,,,,,,,,,,,,,,,,
,,,,5,0.2074,,,,,,92,broom,flower,,90444,001,2022-04-29_11h53.21.570,SPAMnetsValid,2021.1.4,Win32,144.092219,,,,,,,,,,,,,5,0.2074,0,69,69,88,1,,,,,,,,,,,,,,,,,,,,,,,,,,,,,,,,,,,,,,,,,,,,,,,,,,,,,,,,,,,,,,,,,,,,,,
,,,,5,0.2099,,,,,,58,garden,oven,,90444,001,2022-04-29_11h53.21.570,SPAMnetsValid,2021.1.4,Win32,144.092219,,,,,,,,,,,,,5,0.2099,0,70,70,37,1,,,,,,,,,,,,,,,,,,,,,,,,,,,,,,,,,,,,,,,,,,,,,,,,,,,,,,,,,,,,,,,,,,,,,,
,,,,5,0.2124,,,,,,60,cactus,onion,,90444,001,2022-04-29_11h53.21.570,SPAMnetsValid,2021.1.4,Win32,144.092219,,,,,,,,,,,,,5,0.2124,0,71,71,81,1,,,,,,,,,,,,,,,,,,,,,,,,,,,,,,,,,,,,,,,,,,,,,,,,,,,,,,,,,,,,,,,,,,,,,,
,,,,5,0.4159,,,,,,27,cactus,cookie,,90444,001,2022-04-29_11h53.21.570,SPAMnetsValid,2021.1.4,Win32,144.092219,,,,,,,,,,,,,5,0.4159,0,72,72,17,1,,,,,,,,,,,,,,,,,,,,,,,,,,,,,,,,,,,,,,,,,,,,,,,,,,,,,,,,,,,,,,,,,,,,,,
,,,,5,0.2311,,,,,,23,flower,microwave,,90444,001,2022-04-29_11h53.21.570,SPAMnetsValid,2021.1.4,Win32,144.092219,,,,,,,,,,,,,5,0.2311,0,73,73,25,1,,,,,,,,,,,,,,,,,,,,,,,,,,,,,,,,,,,,,,,,,,,,,,,,,,,,,,,,,,,,,,,,,,,,,,
,,,,5,0.1903,,,,,,3,cake,oven,,90444,001,2022-04-29_11h53.21.570,SPAMnetsValid,2021.1.4,Win32,144.092219,,,,,,,,,,,,,5,0.1903,0,74,74,30,1,,,,,,,,,,,,,,,,,,,,,,,,,,,,,,,,,,,,,,,,,,,,,,,,,,,,,,,,,,,,,,,,,,,,,,
,,,,5,0.6032,,,,,,62,kitchen,rose,,90444,001,2022-04-29_11h53.21.570,SPAMnetsValid,2021.1.4,Win32,144.092219,,,,,,,,,,,,,5,0.6032,0,75,75,57,1,,,,,,,,,,,,,,,,,,,,,,,,,,,,,,,,,,,,,,,,,,,,,,,,,,,,,,,,,,,,,,,,,,,,,,
,,,,5,0.2012,,,,,,67,flower,yogurt,,90444,001,2022-04-29_11h53.21.570,SPAMnetsValid,2021.1.4,Win32,144.092219,,,,,,,,,,,,,5,0.2012,0,76,76,12,1,,,,,,,,,,,,,,,,,,,,,,,,,,,,,,,,,,,,,,,,,,,,,,,,,,,,,,,,,,,,,,,,,,,,,,
,,,,5,0.1402,,,,,,24,cookie,tomato,,90444,001,2022-04-29_11h53.21.570,SPAMnetsValid,2021.1.4,Win32,144.092219,,,,,,,,,,,,,5,0.1402,0,77,77,68,1,,,,,,,,,,,,,,,,,,,,,,,,,,,,,,,,,,,,,,,,,,,,,,,,,,,,,,,,,,,,,,,,,,,,,,
,,,,5,0.0448,,,,,,26,tomato,yogurt,,90444,001,2022-04-29_11h53.21.570,SPAMnetsValid,2021.1.4,Win32,144.092219,,,,,,,,,,,,,5,0.0448,0,78,78,13,1,,,,,,,,,,,,,,,,,,,,,,,,,,,,,,,,,,,,,,,,,,,,,,,,,,,,,,,,,,,,,,,,,,,,,,
,,,,5,0.2253,,,,,,69,carrot,refrigerator,,90444,001,2022-04-29_11h53.21.570,SPAMnetsValid,2021.1.4,Win32,144.092219,,,,,,,,,,,,,5,0.2253,0,79,79,75,1,,,,,,,,,,,,,,,,,,,,,,,,,,,,,,,,,,,,,,,,,,,,,,,,,,,,,,,,,,,,,,,,,,,,,,
,,,,5,0.1917,,,,,,39,melon,pretzel,,90444,001,2022-04-29_11h53.21.570,SPAMnetsValid,2021.1.4,Win32,144.092219,,,,,,,,,,,,,5,0.1917,0,80,80,20,1,,,,,,,,,,,,,,,,,,,,,,,,,,,,,,,,,,,,,,,,,,,,,,,,,,,,,,,,,,,,,,,,,,,,,,
,,,,5,0.4891,,,,,,94,kitchen,microwave,,90444,001,2022-04-29_11h53.21.570,SPAMnetsValid,2021.1.4,Win32,144.092219,,,,,,,,,,,,,5,0.4891,0,81,81,58,1,,,,,,,,,,,,,,,,,,,,,,,,,,,,,,,,,,,,,,,,,,,,,,,,,,,,,,,,,,,,,,,,,,,,,,
,,,,5,0.2339,,,,,,89,chocolate,rose,,90444,001,2022-04-29_11h53.21.570,SPAMnetsValid,2021.1.4,Win32,144.092219,,,,,,,,,,,,,5,0.2339,0,82,82,60,1,,,,,,,,,,,,,,,,,,,,,,,,,,,,,,,,,,,,,,,,,,,,,,,,,,,,,,,,,,,,,,,,,,,,,,
,,,,5,0.1713,,,,,,79,garden,strawberry,,90444,001,2022-04-29_11h53.21.570,SPAMnetsValid,2021.1.4,Win32,144.092219,,,,,,,,,,,,,5,0.1713,0,83,83,87,1,,,,,,,,,,,,,,,,,,,,,,,,,,,,,,,,,,,,,,,,,,,,,,,,,,,,,,,,,,,,,,,,,,,,,,
,,,,5,0.175,,,,,,2,kitchen,onion,,90444,001,2022-04-29_11h53.21.570,SPAMnetsValid,2021.1.4,Win32,144.092219,,,,,,,,,,,,,5,0.175,0,84,84,91,1,,,,,,,,,,,,,,,,,,,,,,,,,,,,,,,,,,,,,,,,,,,,,,,,,,,,,,,,,,,,,,,,,,,,,,
,,,,5,0.0816,,,,,,70,chocolate,onion,,90444,001,2022-04-29_11h53.21.570,SPAMnetsValid,2021.1.4,Win32,144.092219,,,,,,,,,,,,,5,0.0816,0,85,85,74,1,,,,,,,,,,,,,,,,,,,,,,,,,,,,,,,,,,,,,,,,,,,,,,,,,,,,,,,,,,,,,,,,,,,,,,
,,,,5,0.0332,,,,,,34,melon,oven,,90444,001,2022-04-29_11h53.21.570,SPAMnetsValid,2021.1.4,Win32,144.092219,,,,,,,,,,,,,5,0.0332,0,86,86,7,1,,,,,,,,,,,,,,,,,,,,,,,,,,,,,,,,,,,,,,,,,,,,,,,,,,,,,,,,,,,,,,,,,,,,,,
,,,,5,0.2283,,,,,,29,chocolate,melon,,90444,001,2022-04-29_11h53.21.570,SPAMnetsValid,2021.1.4,Win32,144.092219,,,,,,,,,,,,,5,0.2283,0,87,87,34,1,,,,,,,,,,,,,,,,,,,,,,,,,,,,,,,,,,,,,,,,,,,,,,,,,,,,,,,,,,,,,,,,,,,,,,
,,,,5,0.2202,,,,,,18,onion,refrigerator,,90444,001,2022-04-29_11h53.21.570,SPAMnetsValid,2021.1.4,Win32,144.092219,,,,,,,,,,,,,5,0.2202,0,88,88,62,1,,,,,,,,,,,,,,,,,,,,,,,,,,,,,,,,,,,,,,,,,,,,,,,,,,,,,,,,,,,,,,,,,,,,,,
,,,,5,0.213,,,,,,61,strawberry,tomato,,90444,001,2022-04-29_11h53.21.570,SPAMnetsValid,2021.1.4,Win32,144.092219,,,,,,,,,,,,,5,0.213,0,89,89,80,1,,,,,,,,,,,,,,,,,,,,,,,,,,,,,,,,,,,,,,,,,,,,,,,,,,,,,,,,,,,,,,,,,,,,,,
,,,,5,0.1939,,,,,,41,broom,cactus,,90444,001,2022-04-29_11h53.21.570,SPAMnetsValid,2021.1.4,Win32,144.092219,,,,,,,,,,,,,5,0.1939,0,90,90,46,1,,,,,,,,,,,,,,,,,,,,,,,,,,,,,,,,,,,,,,,,,,,,,,,,,,,,,,,,,,,,,,,,,,,,,,
,,,,5,0.1732,,,,,,72,broom,onion,,90444,001,2022-04-29_11h53.21.570,SPAMnetsValid,2021.1.4,Win32,144.092219,,,,,,,,,,,,,5,0.1732,0,91,91,27,1,,,,,,,,,,,,,,,,,,,,,,,,,,,,,,,,,,,,,,,,,,,,,,,,,,,,,,,,,,,,,,,,,,,,,,
,,,,5,0.1614,,,,,,93,kitchen,oven,,90444,001,2022-04-29_11h53.21.570,SPAMnetsValid,2021.1.4,Win32,144.092219,,,,,,,,,,,,,5,0.1614,0,92,92,82,1,,,,,,,,,,,,,,,,,,,,,,,,,,,,,,,,,,,,,,,,,,,,,,,,,,,,,,,,,,,,,,,,,,,,,,
,,,,5,0.4717,,,,,,83,broom,carrot,,90444,001,2022-04-29_11h53.21.570,SPAMnetsValid,2021.1.4,Win32,144.092219,,,,,,,,,,,,,5,0.4717,0,93,93,4,1,,,,,,,,,,,,,,,,,,,,,,,,,,,,,,,,,,,,,,,,,,,,,,,,,,,,,,,,,,,,,,,,,,,,,,
,,,,5,0.1588,,,,,,12,cookie,yogurt,,90444,001,2022-04-29_11h53.21.570,SPAMnetsValid,2021.1.4,Win32,144.092219,,,,,,,,,,,,,5,0.1588,0,94,94,36,1,,,,,,,,,,,,,,,,,,,,,,,,,,,,,,,,,,,,,,,,,,,,,,,,,,,,,,,,,,,,,,,,,,,,,,
,,,,5,0.1034,,,,,,49,flower,strawberry,,90444,001,2022-04-29_11h53.21.570,SPAMnetsValid,2021.1.4,Win32,144.092219,,,,,,,,,,,,,5,0.1034,0,95,95,3,1,,,,,,,,,,,,,,,,,,,,,,,,,,,,,,,,,,,,,,,,,,,,,,,,,,,,,,,,,,,,,,,,,,,,,,
,,,,5,2.2393,,,,,,50,carrot,rose,,90444,001,2022-04-29_11h53.21.570,SPAMnetsValid,2021.1.4,Win32,144.092219,,,,,,,,,,,,,5,2.2393,0,96,96,73,1,,,,,,,,,,,,,,,,,,,,,,,,,,,,,,,,,,,,,,,,,,,,,,,,,,,,,,,,,,,,,,,,,,,,,,
,,,,,,,,,,,,,,,90444,001,2022-04-29_11h53.21.570,SPAMnetsValid,2021.1.4,Win32,144.092219,,,,,,,,,,,,,,,,,,,,0,0,0,0,1,,,,,,,,,,,,,,,,,,,,,,,,,,,,,,,,,,,,,,,,,,,,,,,,,,,,,,,,,,,,,,,,,
,,,,,,,,,,,,,,,90444,001,2022-04-29_11h53.21.570,SPAMnetsValid,2021.1.4,Win32,144.092219,,,,,,0,1,1,0,1,1,0,,,,,,,,,,,,,,,,,,,,,,,,,,,,,,,,,,,,,,,,,,,,,,,,,,,,,,,,,,,,,,,,,,,,,,,,,,,,,
,,,,,,,,,,,,,,,90444,001,2022-04-29_11h53.21.570,SPAMnetsValid,2021.1.4,Win32,144.092219,,,,,,,,,,,,,,,,,,,,,,,,,2,1.2082,0,0,0,0,1,rancor,forbearance,ridicule,malice,bravery,3,,,,,,,,,,,,,,,,,,,,,,,,,,,,,,,,,,,,,,,,,,,,,,,,,,,,
,,,,,,,,,,,,,,,90444,001,2022-04-29_11h53.21.570,SPAMnetsValid,2021.1.4,Win32,144.092219,,,,,,,,,,,,,,,,,,,,,,,,,2,1.0566,0,1,1,1,1,raucous,empty,quiet,smooth,harsh,4,,,,,,,,,,,,,,,,,,,,,,,,,,,,,,,,,,,,,,,,,,,,,,,,,,,,
,,,,,,,,,,,,,,,90444,001,2022-04-29_11h53.21.570,SPAMnetsValid,2021.1.4,Win32,144.092219,,,,,,,,,,,,,,,,,,,,,,,,,,,0,2,2,2,1,gargoyle,oil,medicine,carved waterspout,ugly building,3,,,,,,,,,,,,,,,,,,,,,,,,,,,,,,,,,,,,,,,,,,,,,,,,,,,,
,,,,,,,,,,,,,,,90444,001,2022-04-29_11h53.21.570,SPAMnetsValid,2021.1.4,Win32,144.092219,,,,,,,,,,,,,,,,,,,,,,,,,2,0.0102,0,3,3,3,1,recrudesce,purify,renew activity,lack refinement,crush,2,,,,,,,,,,,,,,,,,,,,,,,,,,,,,,,,,,,,,,,,,,,,,,,,,,,,
,,,,,,,,,,,,,,,90444,001,2022-04-29_11h53.21.570,SPAMnetsValid,2021.1.4,Win32,144.092219,,,,,,,,,,,,,,,,,,,,,,,,,2,0.2152,0,4,4,4,1,specious,"plausible, but not genuine",noteworthy,class or variety,roomy,1,,,,,,,,,,,,,,,,,,,,,,,,,,,,,,,,,,,,,,,,,,,,,,,,,,,,
,,,,,,,,,,,,,,,90444,001,2022-04-29_11h53.21.570,SPAMnetsValid,2021.1.4,Win32,144.092219,,,,,,,,,,,,,,,,,,,,,,,,,2,0.1851,0,5,5,5,1,bauble,bubble,showy plaything,idle talk,confusion,2,,,,,,,,,,,,,,,,,,,,,,,,,,,,,,,,,,,,,,,,,,,,,,,,,,,,
,,,,,,,,,,,,,,,90444,001,2022-04-29_11h53.21.570,SPAMnetsValid,2021.1.4,Win32,144.092219,,,,,,,,,,,,,,,,,,,,,,,,,,,0,6,6,6,1,prolific,scarce,producing abundantly,reckless,speaking profanely,2,,,,,,,,,,,,,,,,,,,,,,,,,,,,,,,,,,,,,,,,,,,,,,,,,,,,
,,,,,,,,,,,,,,,90444,001,2022-04-29_11h53.21.570,SPAMnetsValid,2021.1.4,Win32,144.092219,,,,,,,,,,,,,,,,,,,,,,,,,2,0.1093,0,7,7,7,1,opulent,party,wealthy,happy frame of mind,semiprecious stone,2,,,,,,,,,,,,,,,,,,,,,,,,,,,,,,,,,,,,,,,,,,,,,,,,,,,,
,,,,,,,,,,,,,,,90444,001,2022-04-29_11h53.21.570,SPAMnetsValid,2021.1.4,Win32,144.092219,,,,,,,,,,,,,,,,,,,,,,,,,,,0,8,8,8,1,coercion,conspiracy,strategy,restraint,attraction,3,,,,,,,,,,,,,,,,,,,,,,,,,,,,,,,,,,,,,,,,,,,,,,,,,,,,
,,,,,,,,,,,,,,,90444,001,2022-04-29_11h53.21.570,SPAMnetsValid,2021.1.4,Win32,144.092219,,,,,,,,,,,,,,,,,,,,,,,,,2,0.0365,0,9,9,9,1,hiatus,animal,calamity,dread,gap,4,,,,,,,,,,,,,,,,,,,,,,,,,,,,,,,,,,,,,,,,,,,,,,,,,,,,
,,,,,,,,,,,,,,,90444,001,2022-04-29_11h53.21.570,SPAMnetsValid,2021.1.4,Win32,144.092219,,,,,,,,,,,,,,,,,,,,,,,,,2,0.0991,0,10,10,10,1,germane,microbe,contagious,relevant,different,3,,,,,,,,,,,,,,,,,,,,,,,,,,,,,,,,,,,,,,,,,,,,,,,,,,,,
,,,,,,,,,,,,,,,90444,001,2022-04-29_11h53.21.570,SPAMnetsValid,2021.1.4,Win32,144.092219,,,,,,,,,,,,,,,,,,,,,,,,,,,0,11,11,11,1,perfunctory,fundamental,formal,superficial,careful,3,,,,,,,,,,,,,,,,,,,,,,,,,,,,,,,,,,,,,,,,,,,,,,,,,,,,
,,,,,,,,,,,,,,,90444,001,2022-04-29_11h53.21.570,SPAMnetsValid,2021.1.4,Win32,144.092219,,,,,,,,,,,,,,,,,,,,,,,,,2,0.0961,0,12,12,12,1,diverge,reveal,chant,distract the attention of,differ or turn off from,4,,,,,,,,,,,,,,,,,,,,,,,,,,,,,,,,,,,,,,,,,,,,,,,,,,,,
,,,,,,,,,,,,,,,90444,001,2022-04-29_11h53.21.570,SPAMnetsValid,2021.1.4,Win32,144.092219,,,,,,,,,,,,,,,,,,,,,,,,,2,0.0847,0,13,13,13,1,evoke,take away,anger,connect,bring out,4,,,,,,,,,,,,,,,,,,,,,,,,,,,,,,,,,,,,,,,,,,,,,,,,,,,,
,,,,,,,,,,,,,,,90444,001,2022-04-29_11h53.21.570,SPAMnetsValid,2021.1.4,Win32,144.092219,,,,,,,,,,,,,,,,,,,,,,,,,2,0.0738,0,14,14,14,1,pertinent,relevant,lying next to,necessary,bold,1,,,,,,,,,,,,,,,,,,,,,,,,,,,,,,,,,,,,,,,,,,,,,,,,,,,,
,,,,,,,,,,,,,,,90444,001,2022-04-29_11h53.21.570,SPAMnetsValid,2021.1.4,Win32,144.092219,,,,,,,,,,,,,,,,,,,,,,,,,2,0.0555,0,15,15,15,1,holocaust,entirety,destruction,saintly,price,2,,,,,,,,,,,,,,,,,,,,,,,,,,,,,,,,,,,,,,,,,,,,,,,,,,,,
,,,,,,,,,,,,,,,90444,001,2022-04-29_11h53.21.570,SPAMnetsValid,2021.1.4,Win32,144.092219,,,,,,,,,,,,,,,,,,,,,,,,,2,0.0361,0,16,16,16,1,piquant,mellow,fish,pungent,cloth,3,,,,,,,,,,,,,,,,,,,,,,,,,,,,,,,,,,,,,,,,,,,,,,,,,,,,
,,,,,,,,,,,,,,,90444,001,2022-04-29_11h53.21.570,SPAMnetsValid,2021.1.4,Win32,144.092219,,,,,,,,,,,,,,,,,,,,,,,,,2,0.0356,0,17,17,17,1,firmament,foundation,heavens,strong,glue,2,,,,,,,,,,,,,,,,,,,,,,,,,,,,,,,,,,,,,,,,,,,,,,,,,,,,
,,,,,,,,,,,,,,,90444,001,2022-04-29_11h53.21.570,SPAMnetsValid,2021.1.4,Win32,144.092219,,,,,,,,,,,,,,,,,,,,,,,,,,,,,,,,,,,,,,,,0,0,0,0,1,marketable,partisan,jocular,marriageable,salable,essential,4,,,,,,,,,,,,,,,,,,,,,,,,,,,,,,,,,,,,,,
,,,,,,,,,,,,,,,90444,001,2022-04-29_11h53.21.570,SPAMnetsValid,2021.1.4,Win32,144.092219,,,,,,,,,,,,,,,,,,,,,,,,,,,,,,,,,,,,,,2,0.0373,0,1,1,1,1,cottontail,squirrel,poplar,boa,marshy plant,rabbit,5,,,,,,,,,,,,,,,,,,,,,,,,,,,,,,,,,,,,,,
,,,,,,,,,,,,,,,90444,001,2022-04-29_11h53.21.570,SPAMnetsValid,2021.1.4,Win32,144.092219,,,,,,,,,,,,,,,,,,,,,,,,,,,,,,,,,,,,,,2,0.1755,0,2,2,2,1,boggy,afraid,false,marshy,dense,black,3,,,,,,,,,,,,,,,,,,,,,,,,,,,,,,,,,,,,,,
,,,,,,,,,,,,,,,90444,001,2022-04-29_11h53.21.570,SPAMnetsValid,2021.1.4,Win32,144.092219,,,,,,,,,,,,,,,,,,,,,,,,,,,,,,,,,,,,,,,,0,3,3,3,1,gruesomeness,blackness,falseness,vindictiveness,drunkenness,ghastliness,5,,,,,,,,,,,,,,,,,,,,,,,,,,,,,,,,,,,,,,
,,,,,,,,,,,,,,,90444,001,2022-04-29_11h53.21.570,SPAMnetsValid,2021.1.4,Win32,144.092219,,,,,,,,,,,,,,,,,,,,,,,,,,,,,,,,,,,,,,2,0.1311,0,4,4,4,1,loathing,diffidence,laziness,abhorrence,cleverness,comfort,3,,,,,,,,,,,,,,,,,,,,,,,,,,,,,,,,,,,,,,
,,,,,,,,,,,,,,,90444,001,2022-04-29_11h53.21.570,SPAMnetsValid,2021.1.4,Win32,144.092219,,,,,,,,,,,,,,,,,,,,,,,,,,,,,,,,,,,,,,,,0,5,5,5,1,bantam,fowl,ridicule,cripple,vegetable,ensign,1,,,,,,,,,,,,,,,,,,,,,,,,,,,,,,,,,,,,,,
,,,,,,,,,,,,,,,90444,001,2022-04-29_11h53.21.570,SPAMnetsValid,2021.1.4,Win32,144.092219,,,,,,,,,,,,,,,,,,,,,,,,,,,,,,,,,,,,,,,,0,6,6,6,1,evoke,wake up,surrender,reconnoiter,transcend,call forth,5,,,,,,,,,,,,,,,,,,,,,,,,,,,,,,,,,,,,,,
,,,,,,,,,,,,,,,90444,001,2022-04-29_11h53.21.570,SPAMnetsValid,2021.1.4,Win32,144.092219,,,,,,,,,,,,,,,,,,,,,,,,,,,,,,,,,,,,,,,,0,7,7,7,1,unobtrusive,unintelligent,epileptic,illogical,lineal,modest,5,,,,,,,,,,,,,,,,,,,,,,,,,,,,,,,,,,,,,,
,,,,,,,,,,,,,,,90444,001,2022-04-29_11h53.21.570,SPAMnetsValid,2021.1.4,Win32,144.092219,,,,,,,,,,,,,,,,,,,,,,,,,,,,,,,,,,,,,,,,0,8,8,8,1,terrain,ice cream,final test,tractor,area of ground,weight,4,,,,,,,,,,,,,,,,,,,,,,,,,,,,,,,,,,,,,,
,,,,,,,,,,,,,,,90444,001,2022-04-29_11h53.21.570,SPAMnetsValid,2021.1.4,Win32,144.092219,,,,,,,,,,,,,,,,,,,,,,,,,,,,,,,,,,,,,,2,0.2401,0,9,9,9,1,capriciousness,stubbornness,courage,whimsicality,amazement,greediness,3,,,,,,,,,,,,,,,,,,,,,,,,,,,,,,,,,,,,,,
,,,,,,,,,,,,,,,90444,001,2022-04-29_11h53.21.570,SPAMnetsValid,2021.1.4,Win32,144.092219,,,,,,,,,,,,,,,,,,,,,,,,,,,,,,,,,,,,,,2,0.163,0,10,10,10,1,maelstrom,slander,whirlpool,enmity,armor,majolica,2,,,,,,,,,,,,,,,,,,,,,,,,,,,,,,,,,,,,,,
,,,,,,,,,,,,,,,90444,001,2022-04-29_11h53.21.570,SPAMnetsValid,2021.1.4,Win32,144.092219,,,,,,,,,,,,,,,,,,,,,,,,,,,,,,,,,,,,,,2,0.1553,0,11,11,11,1,tentative,critical,conclusive,authentic,provisional,apprehensive,4,,,,,,,,,,,,,,,,,,,,,,,,,,,,,,,,,,,,,,
,,,,,,,,,,,,,,,90444,001,2022-04-29_11h53.21.570,SPAMnetsValid,2021.1.4,Win32,144.092219,,,,,,,,,,,,,,,,,,,,,,,,,,,,,,,,,,,,,,2,0.0929,0,12,12,12,1,placate,rehabilitate,plagiarize,depredate,apprise,conciliate,5,,,,,,,,,,,,,,,,,,,,,,,,,,,,,,,,,,,,,,
,,,,,,,,,,,,,,,90444,001,2022-04-29_11h53.21.570,SPAMnetsValid,2021.1.4,Win32,144.092219,,,,,,,,,,,,,,,,,,,,,,,,,,,,,,,,,,,,,,,,0,13,13,13,1,surcease,enlightenment,cessation,inattention,censor,substitution,2,,,,,,,,,,,,,,,,,,,,,,,,,,,,,,,,,,,,,,
,,,,,,,,,,,,,,,90444,001,2022-04-29_11h53.21.570,SPAMnetsValid,2021.1.4,Win32,144.092219,,,,,,,,,,,,,,,,,,,,,,,,,,,,,,,,,,,,,,2,0.0502,0,14,14,14,1,apathetic,wandering,impassive,hateful,prophetic,overflowing,2,,,,,,,,,,,,,,,,,,,,,,,,,,,,,,,,,,,,,,
,,,,,,,,,,,,,,,90444,001,2022-04-29_11h53.21.570,SPAMnetsValid,2021.1.4,Win32,144.092219,,,,,,,,,,,,,,,,,,,,,,,,,,,,,,,,,,,,,,2,0.2289,0,15,15,15,1,paternoster,paternalism,patricide,malediction,benediction,prayer,5,,,,,,,,,,,,,,,,,,,,,,,,,,,,,,,,,,,,,,
,,,,,,,,,,,,,,,90444,001,2022-04-29_11h53.21.570,SPAMnetsValid,2021.1.4,Win32,144.092219,,,,,,,,,,,,,,,,,,,,,,,,,,,,,,,,,,,,,,2,0.0965,0,16,16,16,1,opalescence,opulence,senescence,bankruptcy,iridescence,assiduity,4,,,,,,,,,,,,,,,,,,,,,,,,,,,,,,,,,,,,,,
,,,,,,,,,,,,,,,90444,001,2022-04-29_11h53.21.570,SPAMnetsValid,2021.1.4,Win32,144.092219,,,,,,,,,,,,,,,,,,,,,,,,,,,,,,,,,,,,,,2,0.4143,0,17,17,17,1,lush,stupid,luxurious,hazy,putrid,languishing,2,,,,,,,,,,,,,,,,,,,,,,,,,,,,,,,,,,,,,,
,,,,,,,,,,,,,,,90444,001,2022-04-29_11h53.21.570,SPAMnetsValid,2021.1.4,Win32,144.092219,,,,,,,,,,,,,,,,,,,,,,,,,,,,,,,,,,,,,,,,0,18,18,18,1,curtailment,expenditure,abandonment,abridgment,improvement,forgery,3,,,,,,,,,,,,,,,,,,,,,,,,,,,,,,,,,,,,,,
,,,,,,,,,,,,,,,90444,001,2022-04-29_11h53.21.570,SPAMnetsValid,2021.1.4,Win32,144.092219,,,,,,,,,,,,,,,,,,,,,,,,,,,,,,,,,,,,,,2,0.6099,0,19,19,19,1,perversity,adversity,perviousness,travesty,waywardness,gentility,4,,,,,,,,,,,,,,,,,,,,,,,,,,,,,,,,,,,,,,
,,,,,,,,,,,,,,,90444,001,2022-04-29_11h53.21.570,SPAMnetsValid,2021.1.4,Win32,144.092219,,,,,,,,,,,,,,,,,,,,,,,,,,,,,,,,,,,,,,2,0.3431,0,20,20,20,1,calumnious,complimentary,analogous,slanderous,tempestuous,magnanimous,3,,,,,,,,,,,,,,,,,,,,,,,,,,,,,,,,,,,,,,
,,,,,,,,,,,,,,,90444,001,2022-04-29_11h53.21.570,SPAMnetsValid,2021.1.4,Win32,144.092219,,,,,,,,,,,,,,,,,,,,,,,,,,,,,,,,,,,,,,,,0,21,21,21,1,illiberality,bigotry,imbecility,illegibility,cautery,immaturity,1,,,,,,,,,,,,,,,,,,,,,,,,,,,,,,,,,,,,,,
,,,,,,,,,,,,,,,90444,001,2022-04-29_11h53.21.570,SPAMnetsValid,2021.1.4,Win32,144.092219,,,,,,,,,,,,,,,,,,,,,,,,,,,,,,,,,,,,,,2,1.4185,0,22,22,22,1,clabber,rejoice,gossip,curdle,crow,hobble,3,,,,,,,,,,,,,,,,,,,,,,,,,,,,,,,,,,,,,,
,,,,,,,,,,,,,,,90444,001,2022-04-29_11h53.21.570,SPAMnetsValid,2021.1.4,Win32,144.092219,,,,,,,,,,,,,,,,,,,,,,,,,,,,,,,,,,,,,,2,0.7818,0,23,23,23,1,sedulousness,diligence,credulousness,seduction,perilousness,frankness,1,,,,,,,,,,,,,,,,,,,,,,,,,,,,,,,,,,,,,,
,,,,,,,,,,,,,,,90444,001,2022-04-29_11h53.21.570,SPAMnetsValid,2021.1.4,Win32,144.092219,,,,,,,,,,,,,,,,,,,,,,,,,,,,,,,,,,,,,,,,,,,,,,,,,,,,,candle,0,0,0,0,1,,,,,,,,,,,,,,,,,,,,,,,,,,,,,,,
,,,,,,,,,,,,,,,90444,001,2022-04-29_11h53.21.570,SPAMnetsValid,2021.1.4,Win32,144.092219,,,,,,,,,,,,,,,,,,,,,,,,,,,,,,,,,,,,,,,,,,,,,,,,,,,,light,candle,1,0,1,0,1,,,,,,,,,,,,,,,,,,,,,,,,,,,,,,,
,,,,,,,,,,,,,,,90444,001,2022-04-29_11h53.21.570,SPAMnetsValid,2021.1.4,Win32,144.092219,,,,,,,,,,,,,,,,,,,,,,,,,,,,,,,,,,,,,,,,,,,,,,,,,,,,burn,candle,2,0,2,0,1,,,,,,,,,,,,,,,,,,,,,,,,,,,,,,,
,,,,,,,,,,,,,,,90444,001,2022-04-29_11h53.21.570,SPAMnetsValid,2021.1.4,Win32,144.092219,,,,,,,,,,,,,,,,,,,,,,,,,,,,,,,,,,,,,,,,,,,,,,,,,,,,church ,candle,3,0,3,0,1,,,,,,,,,,,,,,,,,,,,,,,,,,,,,,,
,,,,,,,,,,,,,,,90444,001,2022-04-29_11h53.21.570,SPAMnetsValid,2021.1.4,Win32,144.092219,,,,,,,,,,,,,,,,,,,,,,,,,,,,,,,,,,,,,,,,,,,,,,,,,,,,heat,candle,4,0,4,0,1,,,,,,,,,,,,,,,,,,,,,,,,,,,,,,,
,,,,,,,,,,,,,,,90444,001,2022-04-29_11h53.21.570,SPAMnetsValid,2021.1.4,Win32,144.092219,,,,,,,,,,,,,,,,,,,,,,,,,,,,,,,,,,,,,,,,,,,,,,,,,,,,,candle,5,0,5,0,1,,,,,,,,,,,,,,,,,,,,,,,,,,,,,,,
,,,,,,,,,,,,,,,90444,001,2022-04-29_11h53.21.570,SPAMnetsValid,2021.1.4,Win32,144.092219,,,,,,,,,,,,,,,,,,,,,,,,,,,,,,,,,,,,,,,,,,,,,,,,,,,,,candle,6,0,6,0,1,,,,,,,,,,,,,,,,,,,,,,,,,,,,,,,
,,,,,,,,,,,,,,,90444,001,2022-04-29_11h53.21.570,SPAMnetsValid,2021.1.4,Win32,144.092219,,,,,,,,,,,,,,,,,,,,,,,,,,,,,,,,,,,,,,,,,,,,,,,,,,,,,candle,7,0,7,0,1,,,,,,,,,,,,,,,,,,,,,,,,,,,,,,,
,,,,,,,,,,,,,,,90444,001,2022-04-29_11h53.21.570,SPAMnetsValid,2021.1.4,Win32,144.092219,,,,,,,,,,,,,,,,,,,,,,,,,,,,,,,,,,,,,,,,,,,,,,,,,,,,,candle,8,0,8,0,1,,,,,,,,,,,,,,,,,,,,,,,,,,,,,,,
,,,,,,,,,,,,,,,90444,001,2022-04-29_11h53.21.570,SPAMnetsValid,2021.1.4,Win32,144.092219,,,,,,,,,,,,,,,,,,,,,,,,,,,,,,,,,,,,,,,,,,,,,,,,,,,,,candle,9,0,9,0,1,,,,,,,,,,,,,,,,,,,,,,,,,,,,,,,
,,,,,,,,,,,,,,,90444,001,2022-04-29_11h53.21.570,SPAMnetsValid,2021.1.4,Win32,144.092219,,,,,,,,,,,,,,,,,,,,,,,,,,,,,,,,,,,,,,,,,,,,,,,,,,,,,candle,10,0,10,0,1,,,,,,,,,,,,,,,,,,,,,,,,,,,,,,,
,,,,,,,,,,,,,,,90444,001,2022-04-29_11h53.21.570,SPAMnetsValid,2021.1.4,Win32,144.092219,,,,,,,,,,,,,,,,,,,,,,,,,,,,,,,,,,,,,,,,,,,,,,,,,,,,,candle,11,0,11,0,1,,,,,,,,,,,,,,,,,,,,,,,,,,,,,,,
,,,,,,,,,,,,,,,90444,001,2022-04-29_11h53.21.570,SPAMnetsValid,2021.1.4,Win32,144.092219,,,,,,,,,,,,,,,,,,,,,,,,,,,,,,,,,,,,,,,,,,,,,,,,,,,,,candle,12,0,12,0,1,,,,,,,,,,,,,,,,,,,,,,,,,,,,,,,
,,,,,,,,,,,,,,,90444,001,2022-04-29_11h53.21.570,SPAMnetsValid,2021.1.4,Win32,144.092219,,,,,,,,,,,,,,,,,,,,,,,,,,,,,,,,,,,,,,,,,,,,,,,,,,,,,candle,13,0,13,0,1,,,,,,,,,,,,,,,,,,,,,,,,,,,,,,,
,,,,,,,,,,,,,,,90444,001,2022-04-29_11h53.21.570,SPAMnetsValid,2021.1.4,Win32,144.092219,,,,,,,,,,,,,,,,,,,,,,,,,,,,,,,,,,,,,,,,,,,,,,,,,,,,,candle,14,0,14,0,1,,,,,,,,,,,,,,,,,,,,,,,,,,,,,,,
,,,,,,,,,,,,,,,90444,001,2022-04-29_11h53.21.570,SPAMnetsValid,2021.1.4,Win32,144.092219,,,,,,,,,,,,,,,,,,,,,,,,,,,,,,,,,,,,,,,,,,,,,,,,,,,,,candle,15,0,15,0,1,,,,,,,,,,,,,,,,,,,,,,,,,,,,,,,
,,,,,,,,,,,,,,,90444,001,2022-04-29_11h53.21.570,SPAMnetsValid,2021.1.4,Win32,144.092219,,,,,,,,,,,,,,,,,,,,,,,,,,,,,,,,,,,,,,,,,,,,,,,,,,,,,candle,16,0,16,0,1,,,,,,,,,,,,,,,,,,,,,,,,,,,,,,,
,,,,,,,,,,,,,,,90444,001,2022-04-29_11h53.21.570,SPAMnetsValid,2021.1.4,Win32,144.092219,,,,,,,,,,,,,,,,,,,,,,,,,,,,,,,,,,,,,,,,,,,,,,,,,,,,,candle,17,0,17,0,1,,,,,,,,,,,,,,,,,,,,,,,,,,,,,,,
,,,,,,,,,,,,,,,90444,001,2022-04-29_11h53.21.570,SPAMnetsValid,2021.1.4,Win32,144.092219,,,,,,,,,,,,,,,,,,,,,,,,,,,,,,,,,,,,,,,,,,,,,,,,,,,,,candle,18,0,18,0,1,,,,,,,,,,,,,,,,,,,,,,,,,,,,,,,
,,,,,,,,,,,,,,,90444,001,2022-04-29_11h53.21.570,SPAMnetsValid,2021.1.4,Win32,144.092219,,,,,,,,,,,,,,,,,,,,,,,,,,,,,,,,,,,,,,,,,,,,,,,,,,,,,candle,19,0,19,0,1,,,,,,,,,,,,,,,,,,,,,,,,,,,,,,,
,,,,,,,,,,,,,,,90444,001,2022-04-29_11h53.21.570,SPAMnetsValid,2021.1.4,Win32,144.092219,,,,,,,,,,,,,,,,,,,,,,,,,,,,,,,,,,,,,,,,,,,,,,,,,,,,,candle,20,0,20,0,1,,,,,,,,,,,,,,,,,,,,,,,,,,,,,,,
,,,,,,,,,,,,,,,90444,001,2022-04-29_11h53.21.570,SPAMnetsValid,2021.1.4,Win32,144.092219,,,,,,,,,,,,,,,,,,,,,,,,,,,,,,,,,,,,,,,,,,,,,,,,,,,,,candle,21,0,21,0,1,,,,,,,,,,,,,,,,,,,,,,,,,,,,,,,
,,,,,,,,,,,,,,,90444,001,2022-04-29_11h53.21.570,SPAMnetsValid,2021.1.4,Win32,144.092219,,,,,,,,,,,,,,,,,,,,,,,,,,,,,,,,,,,,,,,,,,,,,,,,,,,,,candle,22,0,22,0,1,,,,,,,,,,,,,,,,,,,,,,,,,,,,,,,
,,,,,,,,,,,,,,,90444,001,2022-04-29_11h53.21.570,SPAMnetsValid,2021.1.4,Win32,144.092219,,,,,,,,,,,,,,,,,,,,,,,,,,,,,,,,,,,,,,,,,,,,,,,,,,,,,candle,23,0,23,0,1,,,,,,,,,,,,,,,,,,,,,,,,,,,,,,,
,,,,,,,,,,,,,,,90444,001,2022-04-29_11h53.21.570,SPAMnetsValid,2021.1.4,Win32,144.092219,,,,,,,,,,,,,,,,,,,,,,,,,,,,,,,,,,,,,,,,,,,,,,,,,,,,,candle,24,0,24,0,1,,,,,,,,,,,,,,,,,,,,,,,,,,,,,,,
,,,,,,,,,,,,,,,90444,001,2022-04-29_11h53.21.570,SPAMnetsValid,2021.1.4,Win32,144.092219,,,,,,,,,,,,,,,,,,,,,,,,,,,,,,,,,,,,,,,,,,,,,,,,,,,,,candle,25,0,25,0,1,,,,,,,,,,,,,,,,,,,,,,,,,,,,,,,
,,,,,,,,,,,,,,,90444,001,2022-04-29_11h53.21.570,SPAMnetsValid,2021.1.4,Win32,144.092219,,,,,,,,,,,,,,,,,,,,,,,,,,,,,,,,,,,,,,,,,,,,,,,,,,,,,candle,26,0,26,0,1,,,,,,,,,,,,,,,,,,,,,,,,,,,,,,,
,,,,,,,,,,,,,,,90444,001,2022-04-29_11h53.21.570,SPAMnetsValid,2021.1.4,Win32,144.092219,,,,,,,,,,,,,,,,,,,,,,,,,,,,,,,,,,,,,,,,,,,,,,,,,,,,,candle,27,0,27,0,1,,,,,,,,,,,,,,,,,,,,,,,,,,,,,,,
,,,,,,,,,,,,,,,90444,001,2022-04-29_11h53.21.570,SPAMnetsValid,2021.1.4,Win32,144.092219,,,,,,,,,,,,,,,,,,,,,,,,,,,,,,,,,,,,,,,,,,,,,,,,,,,,,candle,28,0,28,0,1,,,,,,,,,,,,,,,,,,,,,,,,,,,,,,,
,,,,,,,,,,,,,,,90444,001,2022-04-29_11h53.21.570,SPAMnetsValid,2021.1.4,Win32,144.092219,,,,,,,,,,,,,,,,,,,,,,,,,,,,,,,,,,,,,,,,,,,,,,,,,,,,,candle,29,0,29,0,1,,,,,,,,,,,,,,,,,,,,,,,,,,,,,,,
,,,,,,,,,,,,,,,90444,001,2022-04-29_11h53.21.570,SPAMnetsValid,2021.1.4,Win32,144.092219,,,,,,,,,,,,,,,,,,,,,,,,,,,,,,,,,,,,,,,,,,,,,,,,,,,,,candle,30,0,30,0,1,,,,,,,,,,,,,,,,,,,,,,,,,,,,,,,
,,,,,,,,,,,,,,,90444,001,2022-04-29_11h53.21.570,SPAMnetsValid,2021.1.4,Win32,144.092219,,,,,,,,,,,,,,,,,,,,,,,,,,,,,,,,,,,,,,,,,,,,,,,,,,,,,candle,31,0,31,0,1,,,,,,,,,,,,,,,,,,,,,,,,,,,,,,,
,,,,,,,,,,,,,,,90444,001,2022-04-29_11h53.21.570,SPAMnetsValid,2021.1.4,Win32,144.092219,,,,,,,,,,,,,,,,,,,,,,,,,,,,,,,,,,,,,,,,,,,,,,,,,,,,,candle,32,0,32,0,1,,,,,,,,,,,,,,,,,,,,,,,,,,,,,,,
,,,,,,,,,,,,,,,90444,001,2022-04-29_11h53.21.570,SPAMnetsValid,2021.1.4,Win32,144.092219,,,,,,,,,,,,,,,,,,,,,,,,,,,,,,,,,,,,,,,,,,,,,,,,,,,,,candle,33,0,33,0,1,,,,,,,,,,,,,,,,,,,,,,,,,,,,,,,
,,,,,,,,,,,,,,,90444,001,2022-04-29_11h53.21.570,SPAMnetsValid,2021.1.4,Win32,144.092219,,,,,,,,,,,,,,,,,,,,,,,,,,,,,,,,,,,,,,,,,,,,,,,,,,,,,candle,34,0,34,0,1,,,,,,,,,,,,,,,,,,,,,,,,,,,,,,,
,,,,,,,,,,,,,,,90444,001,2022-04-29_11h53.21.570,SPAMnetsValid,2021.1.4,Win32,144.092219,,,,,,,,,,,,,,,,,,,,,,,,,,,,,,,,,,,,,,,,,,,,,,,,,,,,,candle,35,0,35,0,1,,,,,,,,,,,,,,,,,,,,,,,,,,,,,,,
,,,,,,,,,,,,,,,90444,001,2022-04-29_11h53.21.570,SPAMnetsValid,2021.1.4,Win32,144.092219,,,,,,,,,,,,,,,,,,,,,,,,,,,,,,,,,,,,,,,,,,,,,,,,,,,,,candle,36,0,36,0,1,,,,,,,,,,,,,,,,,,,,,,,,,,,,,,,
,,,,,,,,,,,,,,,90444,001,2022-04-29_11h53.21.570,SPAMnetsValid,2021.1.4,Win32,144.092219,,,,,,,,,,,,,,,,,,,,,,,,,,,,,,,,,,,,,,,,,,,,,,,,,,,,,candle,37,0,37,0,1,,,,,,,,,,,,,,,,,,,,,,,,,,,,,,,
,,,,,,,,,,,,,,,90444,001,2022-04-29_11h53.21.570,SPAMnetsValid,2021.1.4,Win32,144.092219,,,,,,,,,,,,,,,,,,,,,,,,,,,,,,,,,,,,,,,,,,,,,,,,,,,,,candle,38,0,38,0,1,,,,,,,,,,,,,,,,,,,,,,,,,,,,,,,
,,,,,,,,,,,,,,,90444,001,2022-04-29_11h53.21.570,SPAMnetsValid,2021.1.4,Win32,144.092219,,,,,,,,,,,,,,,,,,,,,,,,,,,,,,,,,,,,,,,,,,,,,,,,,,,,,candle,39,0,39,0,1,,,,,,,,,,,,,,,,,,,,,,,,,,,,,,,
,,,,,,,,,,,,,,,90444,001,2022-04-29_11h53.21.570,SPAMnetsValid,2021.1.4,Win32,144.092219,,,,,,,,,,,,,,,,,,,,,,,,,,,,,,,,,,,,,,,,,,,,,,,,,,,,,candle,40,0,40,0,1,,,,,,,,,,,,,,,,,,,,,,,,,,,,,,,
,,,,,,,,,,,,,,,90444,001,2022-04-29_11h53.21.570,SPAMnetsValid,2021.1.4,Win32,144.092219,,,,,,,,,,,,,,,,,,,,,,,,,,,,,,,,,,,,,,,,,,,,,,,,,,,,,candle,41,0,41,0,1,,,,,,,,,,,,,,,,,,,,,,,,,,,,,,,
,,,,,,,,,,,,,,,90444,001,2022-04-29_11h53.21.570,SPAMnetsValid,2021.1.4,Win32,144.092219,,,,,,,,,,,,,,,,,,,,,,,,,,,,,,,,,,,,,,,,,,,,,,,,,,,,,candle,42,0,42,0,1,,,,,,,,,,,,,,,,,,,,,,,,,,,,,,,
,,,,,,,,,,,,,,,90444,001,2022-04-29_11h53.21.570,SPAMnetsValid,2021.1.4,Win32,144.092219,,,,,,,,,,,,,,,,,,,,,,,,,,,,,,,,,,,,,,,,,,,,,,,,,,,,,candle,43,0,43,0,1,,,,,,,,,,,,,,,,,,,,,,,,,,,,,,,
,,,,,,,,,,,,,,,90444,001,2022-04-29_11h53.21.570,SPAMnetsValid,2021.1.4,Win32,144.092219,,,,,,,,,,,,,,,,,,,,,,,,,,,,,,,,,,,,,,,,,,,,,,,,,,,,,candle,44,0,44,0,1,,,,,,,,,,,,,,,,,,,,,,,,,,,,,,,
,,,,,,,,,,,,,,,90444,001,2022-04-29_11h53.21.570,SPAMnetsValid,2021.1.4,Win32,144.092219,,,,,,,,,,,,,,,,,,,,,,,,,,,,,,,,,,,,,,,,,,,,,,,,,,,,,candle,45,0,45,0,1,,,,,,,,,,,,,,,,,,,,,,,,,,,,,,,
,,,,,,,,,,,,,,,90444,001,2022-04-29_11h53.21.570,SPAMnetsValid,2021.1.4,Win32,144.092219,,,,,,,,,,,,,,,,,,,,,,,,,,,,,,,,,,,,,,,,,,,,,,,,,,,,,candle,46,0,46,0,1,,,,,,,,,,,,,,,,,,,,,,,,,,,,,,,
,,,,,,,,,,,,,,,90444,001,2022-04-29_11h53.21.570,SPAMnetsValid,2021.1.4,Win32,144.092219,,,,,,,,,,,,,,,,,,,,,,,,,,,,,,,,,,,,,,,,,,,,,,,,,,,,,candle,47,0,47,0,1,,,,,,,,,,,,,,,,,,,,,,,,,,,,,,,
,,,,,,,,,,,,,,,90444,001,2022-04-29_11h53.21.570,SPAMnetsValid,2021.1.4,Win32,144.092219,,,,,,,,,,,,,,,,,,,,,,,,,,,,,,,,,,,,,,,,,,,,,,,,,,,,,candle,48,0,48,0,1,,,,,,,,,,,,,,,,,,,,,,,,,,,,,,,
,,,,,,,,,,,,,,,90444,001,2022-04-29_11h53.21.570,SPAMnetsValid,2021.1.4,Win32,144.092219,,,,,,,,,,,,,,,,,,,,,,,,,,,,,,,,,,,,,,,,,,,,,,,,,,,,,candle,49,0,49,0,1,,,,,,,,,,,,,,,,,,,,,,,,,,,,,,,
,,,,,,,,,,,,,,,90444,001,2022-04-29_11h53.21.570,SPAMnetsValid,2021.1.4,Win32,144.092219,,,,,,,,,,,,,,,,,,,,,,,,,,,,,,,,,,,,,,,,,,,,,,,,,,,,,candle,50,0,50,0,1,,,,,,,,,,,,,,,,,,,,,,,,,,,,,,,
,,,,,,,,,,,,,,,90444,001,2022-04-29_11h53.21.570,SPAMnetsValid,2021.1.4,Win32,144.092219,,,,,,,,,,,,,,,,,,,,,,,,,,,,,,,,,,,,,,,,,,,,,,,,,,,,,candle,51,0,51,0,1,,,,,,,,,,,,,,,,,,,,,,,,,,,,,,,
,,,,,,,,,,,,,,,90444,001,2022-04-29_11h53.21.570,SPAMnetsValid,2021.1.4,Win32,144.092219,,,,,,,,,,,,,,,,,,,,,,,,,,,,,,,,,,,,,,,,,,,,,,,,,,,,,candle,52,0,52,0,1,,,,,,,,,,,,,,,,,,,,,,,,,,,,,,,
,,,,,,,,,,,,,,,90444,001,2022-04-29_11h53.21.570,SPAMnetsValid,2021.1.4,Win32,144.092219,,,,,,,,,,,,,,,,,,,,,,,,,,,,,,,,,,,,,,,,,,,,,,,,,,,,,candle,53,0,53,0,1,,,,,,,,,,,,,,,,,,,,,,,,,,,,,,,
,,,,,,,,,,,,,,,90444,001,2022-04-29_11h53.21.570,SPAMnetsValid,2021.1.4,Win32,144.092219,,,,,,,,,,,,,,,,,,,,,,,,,,,,,,,,,,,,,,,,,,,,,,,,,,,,,candle,54,0,54,0,1,,,,,,,,,,,,,,,,,,,,,,,,,,,,,,,
,,,,,,,,,,,,,,,90444,001,2022-04-29_11h53.21.570,SPAMnetsValid,2021.1.4,Win32,144.092219,,,,,,,,,,,,,,,,,,,,,,,,,,,,,,,,,,,,,,,,,,,,,,,,,,,,,candle,55,0,55,0,1,,,,,,,,,,,,,,,,,,,,,,,,,,,,,,,
,,,,,,,,,,,,,,,90444,001,2022-04-29_11h53.21.570,SPAMnetsValid,2021.1.4,Win32,144.092219,,,,,,,,,,,,,,,,,,,,,,,,,,,,,,,,,,,,,,,,,,,,,,,,,,,,,candle,56,0,56,0,1,,,,,,,,,,,,,,,,,,,,,,,,,,,,,,,
,,,,,,,,,,,,,,,90444,001,2022-04-29_11h53.21.570,SPAMnetsValid,2021.1.4,Win32,144.092219,,,,,,,,,,,,,,,,,,,,,,,,,,,,,,,,,,,,,,,,,,,,,,,,,,,,,candle,57,0,57,0,1,,,,,,,,,,,,,,,,,,,,,,,,,,,,,,,
,,,,,,,,,,,,,,,90444,001,2022-04-29_11h53.21.570,SPAMnetsValid,2021.1.4,Win32,144.092219,,,,,,,,,,,,,,,,,,,,,,,,,,,,,,,,,,,,,,,,,,,,,,,,,,,,,candle,58,0,58,0,1,,,,,,,,,,,,,,,,,,,,,,,,,,,,,,,
,,,,,,,,,,,,,,,90444,001,2022-04-29_11h53.21.570,SPAMnetsValid,2021.1.4,Win32,144.092219,,,,,,,,,,,,,,,,,,,,,,,,,,,,,,,,,,,,,,,,,,,,,,,,,,,,,candle,59,0,59,0,1,,,,,,,,,,,,,,,,,,,,,,,,,,,,,,,
,,,,,,,,,,,,,,,90444,001,2022-04-29_11h53.21.570,SPAMnetsValid,2021.1.4,Win32,144.092219,,,,,,,,,,,,,,,,,,,,,,,,,,,,,,,,,,,,,,,,,,,,,,,,,,,,,candle,60,0,60,0,1,,,,,,,,,,,,,,,,,,,,,,,,,,,,,,,
,,,,,,,,,,,,,,,90444,001,2022-04-29_11h53.21.570,SPAMnetsValid,2021.1.4,Win32,144.092219,,,,,,,,,,,,,,,,,,,,,,,,,,,,,,,,,,,,,,,,,,,,,,,,,,,,,candle,61,0,61,0,1,,,,,,,,,,,,,,,,,,,,,,,,,,,,,,,
,,,,,,,,,,,,,,,90444,001,2022-04-29_11h53.21.570,SPAMnetsValid,2021.1.4,Win32,144.092219,,,,,,,,,,,,,,,,,,,,,,,,,,,,,,,,,,,,,,,,,,,,,,,,,,,,,candle,62,0,62,0,1,,,,,,,,,,,,,,,,,,,,,,,,,,,,,,,
,,,,,,,,,,,,,,,90444,001,2022-04-29_11h53.21.570,SPAMnetsValid,2021.1.4,Win32,144.092219,,,,,,,,,,,,,,,,,,,,,,,,,,,,,,,,,,,,,,,,,,,,,,,,,,,,,candle,63,0,63,0,1,,,,,,,,,,,,,,,,,,,,,,,,,,,,,,,
,,,,,,,,,,,,,,,90444,001,2022-04-29_11h53.21.570,SPAMnetsValid,2021.1.4,Win32,144.092219,,,,,,,,,,,,,,,,,,,,,,,,,,,,,,,,,,,,,,,,,,,,,,,,,,,,,candle,64,0,64,0,1,,,,,,,,,,,,,,,,,,,,,,,,,,,,,,,
,,,,,,,,,,,,,,,90444,001,2022-04-29_11h53.21.570,SPAMnetsValid,2021.1.4,Win32,144.092219,,,,,,,,,,,,,,,,,,,,,,,,,,,,,,,,,,,,,,,,,,,,,,,,,,,,,candle,65,0,65,0,1,,,,,,,,,,,,,,,,,,,,,,,,,,,,,,,
,,,,,,,,,,,,,,,90444,001,2022-04-29_11h53.21.570,SPAMnetsValid,2021.1.4,Win32,144.092219,,,,,,,,,,,,,,,,,,,,,,,,,,,,,,,,,,,,,,,,,,,,,,,,,,,,,,,,,,,0,0,0,1,1,candle,,,,,,,,,,,,,,,,,,,,,,,,,
,,,,,,,,,,,,,,,90444,001,2022-04-29_11h53.21.570,SPAMnetsValid,2021.1.4,Win32,144.092219,,,,,,,,,,,,,,,,,,,,,,,,,,,,,,,,,,,,,,,,,,,,,,,,,,,,,bucket,0,0,0,0,1,,,,,,,,,,,,,,,,,,,,,,,,,,,,,,,
,,,,,,,,,,,,,,,90444,001,2022-04-29_11h53.21.570,SPAMnetsValid,2021.1.4,Win32,144.092219,,,,,,,,,,,,,,,,,,,,,,,,,,,,,,,,,,,,,,,,,,,,,,,,,,,,,bucket,1,0,1,0,1,,,,,,,,,,,,,,,,,,,,,,,,,,,,,,,
,,,,,,,,,,,,,,,90444,001,2022-04-29_11h53.21.570,SPAMnetsValid,2021.1.4,Win32,144.092219,,,,,,,,,,,,,,,,,,,,,,,,,,,,,,,,,,,,,,,,,,,,,,,,,,,,,bucket,2,0,2,0,1,,,,,,,,,,,,,,,,,,,,,,,,,,,,,,,
,,,,,,,,,,,,,,,90444,001,2022-04-29_11h53.21.570,SPAMnetsValid,2021.1.4,Win32,144.092219,,,,,,,,,,,,,,,,,,,,,,,,,,,,,,,,,,,,,,,,,,,,,,,,,,,,water,bucket,3,0,3,0,1,,,,,,,,,,,,,,,,,,,,,,,,,,,,,,,
,,,,,,,,,,,,,,,90444,001,2022-04-29_11h53.21.570,SPAMnetsValid,2021.1.4,Win32,144.092219,,,,,,,,,,,,,,,,,,,,,,,,,,,,,,,,,,,,,,,,,,,,,,,,,,,,,,,,,,,0,1,1,0,1,bucket,,,,,,,,,,,,,,,,,,,,,,,,,
,,,,,,,,,,,,,,,90444,001,2022-04-29_11h53.21.570,SPAMnetsValid,2021.1.4,Win32,144.092219,,,,,,,,,,,,,,,,,,,,,,,,,,,,,,,,,,,,,,,,,,,,,,,,,,,,bed,pillow,0,0,0,0,1,,,,,,,,,,,,,,,,,,,,,,,,,,,,,,,
,,,,,,,,,,,,,,,90444,001,2022-04-29_11h53.21.570,SPAMnetsValid,2021.1.4,Win32,144.092219,,,,,,,,,,,,,,,,,,,,,,,,,,,,,,,,,,,,,,,,,,,,,,,,,,,,,,,,,,,0,2,2,2,1,pillow,,,,,,,,,,,,,,,,,,,,,,,,,
,,,,,,,,,,,,,,,90444,001,2022-04-29_11h53.21.570,SPAMnetsValid,2021.1.4,Win32,144.092219,,,,,,,,,,,,,,,,,,,,,,,,,,,,,,,,,,,,,,,,,,,,,,,,,,,,,,,,,,,,,,,,,,Animals,0,0,0,0,1,,,,,,,,,,,,,,,,,,
,,,,,,,,,,,,,,,90444,001,2022-04-29_11h53.21.570,SPAMnetsValid,2021.1.4,Win32,144.092219,,,,,,,,,,,,,,,,,,,,,,,,,,,,,,,,,,,,,,,,,,,,,,,,,,,,,,,,,,,,,,,,,,Animals,1,0,1,0,1,,,,,,,,,,,,,,,,,,
,,,,,,,,,,,,,,,90444,001,2022-04-29_11h53.21.570,SPAMnetsValid,2021.1.4,Win32,144.092219,,,,,,,,,,,,,,,,,,,,,,,,,,,,,,,,,,,,,,,,,,,,,,,,,,,,,,,,,,,,,,,,,,Animals,2,0,2,0,1,,,,,,,,,,,,,,,,,,
,,,,,,,,,,,,,,,90444,001,2022-04-29_11h53.21.570,SPAMnetsValid,2021.1.4,Win32,144.092219,,,,,,,,,,,,,,,,,,,,,,,,,,,,,,,,,,,,,,,,,,,,,,,,,,,,,,,,,,,,,,,,,dogs cats tiger lion,Animals,3,0,3,0,1,,,,,,,,,,,,,,,,,,
,,,,,,,,,,,,,,,90444,001,2022-04-29_11h53.21.570,SPAMnetsValid,2021.1.4,Win32,144.092219,,,,,,,,,,,,,,,,,,,,,,,,,,,,,,,,,,,,,,,,,,,,,,,,,,,,,,,,,,,,,,,,,,Animals,4,0,4,0,1,,,,,,,,,,,,,,,,,,
,,,,,,,,,,,,,,,90444,001,2022-04-29_11h53.21.570,SPAMnetsValid,2021.1.4,Win32,144.092219,,,,,,,,,,,,,,,,,,,,,,,,,,,,,,,,,,,,,,,,,,,,,,,,,,,,,,,,,,,,,,,,,,Animals,5,0,5,0,1,,,,,,,,,,,,,,,,,,
,,,,,,,,,,,,,,,90444,001,2022-04-29_11h53.21.570,SPAMnetsValid,2021.1.4,Win32,144.092219,,,,,,,,,,,,,,,,,,,,,,,,,,,,,,,,,,,,,,,,,,,,,,,,,,,,,,,,,,,,,,,,,,Animals,6,0,6,0,1,,,,,,,,,,,,,,,,,,
,,,,,,,,,,,,,,,90444,001,2022-04-29_11h53.21.570,SPAMnetsValid,2021.1.4,Win32,144.092219,,,,,,,,,,,,,,,,,,,,,,,,,,,,,,,,,,,,,,,,,,,,,,,,,,,,,,,,,,,,,,,,,,,,,,,,0,0,0,0,1,Animals,,,,,,,,,,,,
,,,,,,,,,,,,,,,90444,001,2022-04-29_11h53.21.570,SPAMnetsValid,2021.1.4,Win32,144.092219,,,,,,,,,,,,,,,,,,,,,,,,,,,,,,,,,,,,,,,,,,,,,,,,,,,,,,,,,,,,,,,,,,,,,,,,,,,,,,3,2.6394,0,0,0,0,1,"I enjoy concentrating on a fantasy or daydream and exploring all its possibilities, letting it grow and develop.",0,1,,
,,,,,,,,,,,,,,,90444,001,2022-04-29_11h53.21.570,SPAMnetsValid,2021.1.4,Win32,144.092219,,,,,,,,,,,,,,,,,,,,,,,,,,,,,,,,,,,,,,,,,,,,,,,,,,,,,,,,,,,,,,,,,,,,,,,,,,,,,,3,0.7721,0,1,1,1,1,I think it's interesting to learn and develop new hobbies.,0,2,,
,,,,,,,,,,,,,,,90444,001,2022-04-29_11h53.21.570,SPAMnetsValid,2021.1.4,Win32,144.092219,,,,,,,,,,,,,,,,,,,,,,,,,,,,,,,,,,,,,,,,,,,,,,,,,,,,,,,,,,,,,,,,,,,,,,,,,,,,,,3,1.2468,0,2,2,2,1,I am intrigued by the patterns I find in art and nature.,0,3,,
,,,,,,,,,,,,,,,90444,001,2022-04-29_11h53.21.570,SPAMnetsValid,2021.1.4,Win32,144.092219,,,,,,,,,,,,,,,,,,,,,,,,,,,,,,,,,,,,,,,,,,,,,,,,,,,,,,,,,,,,,,,,,,,,,,,,,,,,,,3,0.8977,0,3,3,3,1,I believe letting students hear controversial speakers can only confuse and mislead them.,1,4,,
,,,,,,,,,,,,,,,90444,001,2022-04-29_11h53.21.570,SPAMnetsValid,2021.1.4,Win32,144.092219,,,,,,,,,,,,,,,,,,,,,,,,,,,,,,,,,,,,,,,,,,,,,,,,,,,,,,,,,,,,,,,,,,,,,,,,,,,,,,3,0.7753,0,4,4,4,1,Poetry has little or no effect on me.,1,5,,
,,,,,,,,,,,,,,,90444,001,2022-04-29_11h53.21.570,SPAMnetsValid,2021.1.4,Win32,144.092219,,,,,,,,,,,,,,,,,,,,,,,,,,,,,,,,,,,,,,,,,,,,,,,,,,,,,,,,,,,,,,,,,,,,,,,,,,,,,,3,0.7274,0,5,5,5,1,I would have difficulty just letting my mind wander without control or guidance.,1,6,,
,,,,,,,,,,,,,,,90444,001,2022-04-29_11h53.21.570,SPAMnetsValid,2021.1.4,Win32,144.092219,,,,,,,,,,,,,,,,,,,,,,,,,,,,,,,,,,,,,,,,,,,,,,,,,,,,,,,,,,,,,,,,,,,,,,,,,,,,,,3,0.6974,0,6,6,6,1,I seldom notice the moods or feelings that different environments produce.,1,7,,
,,,,,,,,,,,,,,,90444,001,2022-04-29_11h53.21.570,SPAMnetsValid,2021.1.4,Win32,144.092219,,,,,,,,,,,,,,,,,,,,,,,,,,,,,,,,,,,,,,,,,,,,,,,,,,,,,,,,,,,,,,,,,,,,,,,,,,,,,,3,0.6969,0,7,7,7,1,I experience a wide range of emotions or feelings.,0,8,,
,,,,,,,,,,,,,,,90444,001,2022-04-29_11h53.21.570,SPAMnetsValid,2021.1.4,Win32,144.092219,,,,,,,,,,,,,,,,,,,,,,,,,,,,,,,,,,,,,,,,,,,,,,,,,,,,,,,,,,,,,,,,,,,,,,,,,,,,,,3,0.6296,0,8,8,8,1,"Sometimes when I am reading poetry or looking at a work of art, I feel a chill or wave of excitement.",0,9,,
,,,,,,,,,,,,,,,90444,001,2022-04-29_11h53.21.570,SPAMnetsValid,2021.1.4,Win32,144.092219,,,,,,,,,,,,,,,,,,,,,,,,,,,,,,,,,,,,,,,,,,,,,,,,,,,,,,,,,,,,,,,,,,,,,,,,,,,,,,3,0.5677,0,9,9,9,1,I have little interest in speculating on the nature of the universe or the human condition.,1,10,,
,,,,,,,,,,,,,,,90444,001,2022-04-29_11h53.21.570,SPAMnetsValid,2021.1.4,Win32,144.092219,,,,,,,,,,,,,,,,,,,,,,,,,,,,,,,,,,,,,,,,,,,,,,,,,,,,,,,,,,,,,,,,,,,,,,,,,,,,,,3,1.4547,0,10,10,10,1,I have a lot of intellectual curiosity.,0,11,,
,,,,,,,,,,,,,,,90444,001,2022-04-29_11h53.21.570,SPAMnetsValid,2021.1.4,Win32,144.092219,,,,,,,,,,,,,,,,,,,,,,,,,,,,,,,,,,,,,,,,,,,,,,,,,,,,,,,,,,,,,,,,,,,,,,,,,,,,,,3,0.7448,0,11,11,11,1,I often enjoy playing with theories or abstract ideas.,0,12,,
,,,,,,,,,,,,,,,90444,001,2022-04-29_11h53.21.570,SPAMnetsValid,2021.1.4,Win32,144.092219,,,,,,,,,,,,,,,,,,,,,,,,,,,,,,,,,,,,,,,,,,,,,,,,,,,,,,,,,,,,,,,,,,,,,,,,,,,,,,,,,,,,,,,,return,8.2642
