key_resp_3.keys,key_resp_3.rt,slider.response,slider.rt,rjt_rating,rjt_RT,trials_22.thisRepN,trials_22.thisTrialN,trials_22.thisN,trials_22.thisIndex,trials_22.ran,rjt_order,word1,word2,attention,participant,session,date,expName,psychopyVersion,OS,frameRate,trials_99.thisRepN,trials_99.thisTrialN,trials_99.thisN,trials_99.thisIndex,trials_99.ran,trials_5.thisRepN,trials_5.thisTrialN,trials_5.thisN,trials_5.thisIndex,trials_5.ran,repOne,repTwo,slider_2.response,slider_2.rt,trials_24.thisRepN,trials_24.thisTrialN,trials_24.thisN,trials_24.thisIndex,trials_24.ran,trials_4.thisRepN,trials_4.thisTrialN,trials_4.thisN,trials_4.thisIndex,trials_4.ran,slider_extend_2.response,slider_extend_2.rt,trials_6.thisRepN,trials_6.thisTrialN,trials_6.thisN,trials_6.thisIndex,trials_6.ran,vCue2,R1,R2,R3,R4,correct,sliderVocab.response,sliderVocab.rt,trials_7.thisRepN,trials_7.thisTrialN,trials_7.thisN,trials_7.thisIndex,trials_7.ran,VocabCue,VR1,VR2,VR3,VR4,VR5,VocabCorrect,AUT_resp,AUT_label,trials.thisRepN,trials.thisTrialN,trials.thisN,trials.thisIndex,trials.ran,trials_2.thisRepN,trials_2.thisTrialN,trials_2.thisN,trials_2.thisIndex,trials_2.ran,aut_prompt,VF_response,VF_tag,trials_16.thisRepN,trials_16.thisTrialN,trials_16.thisN,trials_16.thisIndex,trials_16.ran,trials_17.thisRepN,trials_17.thisTrialN,trials_17.thisN,trials_17.thisIndex,trials_17.ran,VFcond,open_slider.response,open_slider.rt,trials_3.thisRepN,trials_3.thisTrialN,trials_3.thisN,trials_3.thisIndex,trials_3.ran,OpenQ,Rev,OPEN_ORDER,key_resp_2.keys,key_resp_2.rt
return,13.6143,1,27.7156,1,27.7156,0,0,0,17,1,27,cactus,cookie,,90449,001,2022-04-25_23h05.11.898,SPAMnetsValid,2021.1.4,Win32,59.79788315,,,,,,,,,,,,,,,,,,,,,,,,,,,,,,,,,,,,,,,,,,,,,,,,,,,,,,,,,,,,,,,,,,,,,,,,,,,,,,,,,,,,,,,,,
,,3,3.1009,3,3.1009,0,1,1,27,1,72,broom,onion,,90449,001,2022-04-25_23h05.11.898,SPAMnetsValid,2021.1.4,Win32,59.79788315,,,,,,,,,,,,,,,,,,,,,,,,,,,,,,,,,,,,,,,,,,,,,,,,,,,,,,,,,,,,,,,,,,,,,,,,,,,,,,,,,,,,,,,,,
,,6,3.6593,6,3.6593,0,2,2,2,1,22,kitchen,strawberry,,90449,001,2022-04-25_23h05.11.898,SPAMnetsValid,2021.1.4,Win32,59.79788315,,,,,,,,,,,,,,,,,,,,,,,,,,,,,,,,,,,,,,,,,,,,,,,,,,,,,,,,,,,,,,,,,,,,,,,,,,,,,,,,,,,,,,,,,
,,7,2.1607,7,2.1607,0,3,3,83,1,6,garden,onion,,90449,001,2022-04-25_23h05.11.898,SPAMnetsValid,2021.1.4,Win32,59.79788315,,,,,,,,,,,,,,,,,,,,,,,,,,,,,,,,,,,,,,,,,,,,,,,,,,,,,,,,,,,,,,,,,,,,,,,,,,,,,,,,,,,,,,,,,
,,5,2.8535,5,2.8535,0,4,4,88,1,92,broom,flower,,90449,001,2022-04-25_23h05.11.898,SPAMnetsValid,2021.1.4,Win32,59.79788315,,,,,,,,,,,,,,,,,,,,,,,,,,,,,,,,,,,,,,,,,,,,,,,,,,,,,,,,,,,,,,,,,,,,,,,,,,,,,,,,,,,,,,,,,
,,4,2.2623,4,2.2623,0,5,5,84,1,91,microwave,rose,,90449,001,2022-04-25_23h05.11.898,SPAMnetsValid,2021.1.4,Win32,59.79788315,,,,,,,,,,,,,,,,,,,,,,,,,,,,,,,,,,,,,,,,,,,,,,,,,,,,,,,,,,,,,,,,,,,,,,,,,,,,,,,,,,,,,,,,,
,,5,2.7032,5,2.7032,0,6,6,23,1,65,broom,garden,,90449,001,2022-04-25_23h05.11.898,SPAMnetsValid,2021.1.4,Win32,59.79788315,,,,,,,,,,,,,,,,,,,,,,,,,,,,,,,,,,,,,,,,,,,,,,,,,,,,,,,,,,,,,,,,,,,,,,,,,,,,,,,,,,,,,,,,,
,,5,1.6552,5,1.6552,0,7,7,12,1,67,flower,yogurt,,90449,001,2022-04-25_23h05.11.898,SPAMnetsValid,2021.1.4,Win32,59.79788315,,,,,,,,,,,,,,,,,,,,,,,,,,,,,,,,,,,,,,,,,,,,,,,,,,,,,,,,,,,,,,,,,,,,,,,,,,,,,,,,,,,,,,,,,
,,6,2.7205,6,2.7205,0,8,8,20,1,39,melon,pretzel,,90449,001,2022-04-25_23h05.11.898,SPAMnetsValid,2021.1.4,Win32,59.79788315,,,,,,,,,,,,,,,,,,,,,,,,,,,,,,,,,,,,,,,,,,,,,,,,,,,,,,,,,,,,,,,,,,,,,,,,,,,,,,,,,,,,,,,,,
,,4,1.5369,4,1.5369,0,9,9,40,1,74,broom,pretzel,,90449,001,2022-04-25_23h05.11.898,SPAMnetsValid,2021.1.4,Win32,59.79788315,,,,,,,,,,,,,,,,,,,,,,,,,,,,,,,,,,,,,,,,,,,,,,,,,,,,,,,,,,,,,,,,,,,,,,,,,,,,,,,,,,,,,,,,,
,,8,2.4859,8,2.4859,0,10,10,24,1,17,carrot,melon,,90449,001,2022-04-25_23h05.11.898,SPAMnetsValid,2021.1.4,Win32,59.79788315,,,,,,,,,,,,,,,,,,,,,,,,,,,,,,,,,,,,,,,,,,,,,,,,,,,,,,,,,,,,,,,,,,,,,,,,,,,,,,,,,,,,,,,,,
,,9,6.6212,9,6.6212,0,11,11,42,1,77,refrigerator,yogurt,,90449,001,2022-04-25_23h05.11.898,SPAMnetsValid,2021.1.4,Win32,59.79788315,,,,,,,,,,,,,,,,,,,,,,,,,,,,,,,,,,,,,,,,,,,,,,,,,,,,,,,,,,,,,,,,,,,,,,,,,,,,,,,,,,,,,,,,,
,,9,2.1896,9,2.1896,0,12,12,91,1,2,kitchen,onion,,90449,001,2022-04-25_23h05.11.898,SPAMnetsValid,2021.1.4,Win32,59.79788315,,,,,,,,,,,,,,,,,,,,,,,,,,,,,,,,,,,,,,,,,,,,,,,,,,,,,,,,,,,,,,,,,,,,,,,,,,,,,,,,,,,,,,,,,
,,7,1.6278,7,1.6278,0,13,13,9,1,75,cookie,onion,,90449,001,2022-04-25_23h05.11.898,SPAMnetsValid,2021.1.4,Win32,59.79788315,,,,,,,,,,,,,,,,,,,,,,,,,,,,,,,,,,,,,,,,,,,,,,,,,,,,,,,,,,,,,,,,,,,,,,,,,,,,,,,,,,,,,,,,,
,,4,2.3673,4,2.3673,0,14,14,55,1,1,rose,yogurt,,90449,001,2022-04-25_23h05.11.898,SPAMnetsValid,2021.1.4,Win32,59.79788315,,,,,,,,,,,,,,,,,,,,,,,,,,,,,,,,,,,,,,,,,,,,,,,,,,,,,,,,,,,,,,,,,,,,,,,,,,,,,,,,,,,,,,,,,
,,6,3.9122,6,3.9122,0,15,15,50,1,81,pretzel,yogurt,,90449,001,2022-04-25_23h05.11.898,SPAMnetsValid,2021.1.4,Win32,59.79788315,,,,,,,,,,,,,,,,,,,,,,,,,,,,,,,,,,,,,,,,,,,,,,,,,,,,,,,,,,,,,,,,,,,,,,,,,,,,,,,,,,,,,,,,,
,,8,2.4224,8,2.4224,0,16,16,30,1,3,cake,oven,,90449,001,2022-04-25_23h05.11.898,SPAMnetsValid,2021.1.4,Win32,59.79788315,,,,,,,,,,,,,,,,,,,,,,,,,,,,,,,,,,,,,,,,,,,,,,,,,,,,,,,,,,,,,,,,,,,,,,,,,,,,,,,,,,,,,,,,,
,,9,1.6455,9,1.6455,0,17,17,51,1,47,onion,tomato,,90449,001,2022-04-25_23h05.11.898,SPAMnetsValid,2021.1.4,Win32,59.79788315,,,,,,,,,,,,,,,,,,,,,,,,,,,,,,,,,,,,,,,,,,,,,,,,,,,,,,,,,,,,,,,,,,,,,,,,,,,,,,,,,,,,,,,,,
,,6,2.7001,6,2.7001,0,18,18,13,1,26,tomato,yogurt,,90449,001,2022-04-25_23h05.11.898,SPAMnetsValid,2021.1.4,Win32,59.79788315,,,,,,,,,,,,,,,,,,,,,,,,,,,,,,,,,,,,,,,,,,,,,,,,,,,,,,,,,,,,,,,,,,,,,,,,,,,,,,,,,,,,,,,,,
,,7,2.3876,7,2.3876,0,19,19,67,1,54,chocolate,yogurt,,90449,001,2022-04-25_23h05.11.898,SPAMnetsValid,2021.1.4,Win32,59.79788315,,,,,,,,,,,,,,,,,,,,,,,,,,,,,,,,,,,,,,,,,,,,,,,,,,,,,,,,,,,,,,,,,,,,,,,,,,,,,,,,,,,,,,,,,
,,6,2.2293,6,2.2293,0,20,20,18,1,85,cake,tree,,90449,001,2022-04-25_23h05.11.898,SPAMnetsValid,2021.1.4,Win32,59.79788315,,,,,,,,,,,,,,,,,,,,,,,,,,,,,,,,,,,,,,,,,,,,,,,,,,,,,,,,,,,,,,,,,,,,,,,,,,,,,,,,,,,,,,,,,
,,8,1.4398,8,1.4398,0,21,21,46,1,41,broom,cactus,,90449,001,2022-04-25_23h05.11.898,SPAMnetsValid,2021.1.4,Win32,59.79788315,,,,,,,,,,,,,,,,,,,,,,,,,,,,,,,,,,,,,,,,,,,,,,,,,,,,,,,,,,,,,,,,,,,,,,,,,,,,,,,,,,,,,,,,,
,,6,1.3874,6,1.3874,0,22,22,68,1,24,cookie,tomato,,90449,001,2022-04-25_23h05.11.898,SPAMnetsValid,2021.1.4,Win32,59.79788315,,,,,,,,,,,,,,,,,,,,,,,,,,,,,,,,,,,,,,,,,,,,,,,,,,,,,,,,,,,,,,,,,,,,,,,,,,,,,,,,,,,,,,,,,
,,4,2.1622,4,2.1622,0,23,23,29,1,42,garden,kitchen,,90449,001,2022-04-25_23h05.11.898,SPAMnetsValid,2021.1.4,Win32,59.79788315,,,,,,,,,,,,,,,,,,,,,,,,,,,,,,,,,,,,,,,,,,,,,,,,,,,,,,,,,,,,,,,,,,,,,,,,,,,,,,,,,,,,,,,,,
,,7,1.787,7,1.787,0,24,24,87,1,79,garden,strawberry,,90449,001,2022-04-25_23h05.11.898,SPAMnetsValid,2021.1.4,Win32,59.79788315,,,,,,,,,,,,,,,,,,,,,,,,,,,,,,,,,,,,,,,,,,,,,,,,,,,,,,,,,,,,,,,,,,,,,,,,,,,,,,,,,,,,,,,,,
,,7,1.7393,7,1.7393,0,25,25,71,1,38,pretzel,refrigerator,,90449,001,2022-04-25_23h05.11.898,SPAMnetsValid,2021.1.4,Win32,59.79788315,,,,,,,,,,,,,,,,,,,,,,,,,,,,,,,,,,,,,,,,,,,,,,,,,,,,,,,,,,,,,,,,,,,,,,,,,,,,,,,,,,,,,,,,,
,,9,1.9572,9,1.9572,0,26,26,44,1,25,carrot,onion,,90449,001,2022-04-25_23h05.11.898,SPAMnetsValid,2021.1.4,Win32,59.79788315,,,,,,,,,,,,,,,,,,,,,,,,,,,,,,,,,,,,,,,,,,,,,,,,,,,,,,,,,,,,,,,,,,,,,,,,,,,,,,,,,,,,,,,,,
,,6,3.1363,6,3.1363,0,27,27,72,1,59,rose,strawberry,,90449,001,2022-04-25_23h05.11.898,SPAMnetsValid,2021.1.4,Win32,59.79788315,,,,,,,,,,,,,,,,,,,,,,,,,,,,,,,,,,,,,,,,,,,,,,,,,,,,,,,,,,,,,,,,,,,,,,,,,,,,,,,,,,,,,,,,,
,,6,3.0294,6,3.0294,0,28,28,3,1,49,flower,strawberry,,90449,001,2022-04-25_23h05.11.898,SPAMnetsValid,2021.1.4,Win32,59.79788315,,,,,,,,,,,,,,,,,,,,,,,,,,,,,,,,,,,,,,,,,,,,,,,,,,,,,,,,,,,,,,,,,,,,,,,,,,,,,,,,,,,,,,,,,
,,7,1.7236,7,1.7236,0,29,29,66,1,20,rose,tree,,90449,001,2022-04-25_23h05.11.898,SPAMnetsValid,2021.1.4,Win32,59.79788315,,,,,,,,,,,,,,,,,,,,,,,,,,,,,,,,,,,,,,,,,,,,,,,,,,,,,,,,,,,,,,,,,,,,,,,,,,,,,,,,,,,,,,,,,
,,8,1.7475,8,1.7475,0,30,30,39,1,15,onion,oven,,90449,001,2022-04-25_23h05.11.898,SPAMnetsValid,2021.1.4,Win32,59.79788315,,,,,,,,,,,,,,,,,,,,,,,,,,,,,,,,,,,,,,,,,,,,,,,,,,,,,,,,,,,,,,,,,,,,,,,,,,,,,,,,,,,,,,,,,
,,6,5.5718,6,5.5718,0,31,31,4,1,83,broom,carrot,,90449,001,2022-04-25_23h05.11.898,SPAMnetsValid,2021.1.4,Win32,59.79788315,,,,,,,,,,,,,,,,,,,,,,,,,,,,,,,,,,,,,,,,,,,,,,,,,,,,,,,,,,,,,,,,,,,,,,,,,,,,,,,,,,,,,,,,,
,,5,19.9122,5,19.9122,0,32,32,38,1,88,cactus,melon,,90449,001,2022-04-25_23h05.11.898,SPAMnetsValid,2021.1.4,Win32,59.79788315,,,,,,,,,,,,,,,,,,,,,,,,,,,,,,,,,,,,,,,,,,,,,,,,,,,,,,,,,,,,,,,,,,,,,,,,,,,,,,,,,,,,,,,,,
,,6,2.2452,6,2.2452,0,33,33,11,1,37,garden,refrigerator,,90449,001,2022-04-25_23h05.11.898,SPAMnetsValid,2021.1.4,Win32,59.79788315,,,,,,,,,,,,,,,,,,,,,,,,,,,,,,,,,,,,,,,,,,,,,,,,,,,,,,,,,,,,,,,,,,,,,,,,,,,,,,,,,,,,,,,,,
,,6,1.8467,6,1.8467,0,34,34,34,1,29,chocolate,melon,,90449,001,2022-04-25_23h05.11.898,SPAMnetsValid,2021.1.4,Win32,59.79788315,,,,,,,,,,,,,,,,,,,,,,,,,,,,,,,,,,,,,,,,,,,,,,,,,,,,,,,,,,,,,,,,,,,,,,,,,,,,,,,,,,,,,,,,,
,,6,2.9395,6,2.9395,0,35,35,69,1,45,onion,pretzel,,90449,001,2022-04-25_23h05.11.898,SPAMnetsValid,2021.1.4,Win32,59.79788315,,,,,,,,,,,,,,,,,,,,,,,,,,,,,,,,,,,,,,,,,,,,,,,,,,,,,,,,,,,,,,,,,,,,,,,,,,,,,,,,,,,,,,,,,
,,7,3.1199,7,3.1199,0,36,36,89,1,80,chocolate,tree,,90449,001,2022-04-25_23h05.11.898,SPAMnetsValid,2021.1.4,Win32,59.79788315,,,,,,,,,,,,,,,,,,,,,,,,,,,,,,,,,,,,,,,,,,,,,,,,,,,,,,,,,,,,,,,,,,,,,,,,,,,,,,,,,,,,,,,,,
,,5,3.3791,5,3.3791,0,37,37,63,1,21,cake,onion,,90449,001,2022-04-25_23h05.11.898,SPAMnetsValid,2021.1.4,Win32,59.79788315,,,,,,,,,,,,,,,,,,,,,,,,,,,,,,,,,,,,,,,,,,,,,,,,,,,,,,,,,,,,,,,,,,,,,,,,,,,,,,,,,,,,,,,,,
,,4,12.3771,4,12.3771,0,38,38,32,1,40,broom,cake,,90449,001,2022-04-25_23h05.11.898,SPAMnetsValid,2021.1.4,Win32,59.79788315,,,,,,,,,,,,,,,,,,,,,,,,,,,,,,,,,,,,,,,,,,,,,,,,,,,,,,,,,,,,,,,,,,,,,,,,,,,,,,,,,,,,,,,,,
,,5,3.7718,5,3.7718,0,39,39,94,1,68,flower,tomato,,90449,001,2022-04-25_23h05.11.898,SPAMnetsValid,2021.1.4,Win32,59.79788315,,,,,,,,,,,,,,,,,,,,,,,,,,,,,,,,,,,,,,,,,,,,,,,,,,,,,,,,,,,,,,,,,,,,,,,,,,,,,,,,,,,,,,,,,
,,4,3.1668,4,3.1668,0,40,40,26,1,35,flower,pretzel,,90449,001,2022-04-25_23h05.11.898,SPAMnetsValid,2021.1.4,Win32,59.79788315,,,,,,,,,,,,,,,,,,,,,,,,,,,,,,,,,,,,,,,,,,,,,,,,,,,,,,,,,,,,,,,,,,,,,,,,,,,,,,,,,,,,,,,,,
,,6,6.1434,6,6.1434,0,41,41,37,1,58,garden,oven,,90449,001,2022-04-25_23h05.11.898,SPAMnetsValid,2021.1.4,Win32,59.79788315,,,,,,,,,,,,,,,,,,,,,,,,,,,,,,,,,,,,,,,,,,,,,,,,,,,,,,,,,,,,,,,,,,,,,,,,,,,,,,,,,,,,,,,,,
,,4,1.5309,4,1.5309,0,42,42,61,1,71,broom,rose,,90449,001,2022-04-25_23h05.11.898,SPAMnetsValid,2021.1.4,Win32,59.79788315,,,,,,,,,,,,,,,,,,,,,,,,,,,,,,,,,,,,,,,,,,,,,,,,,,,,,,,,,,,,,,,,,,,,,,,,,,,,,,,,,,,,,,,,,
,,6,1.5944,6,1.5944,0,43,43,73,1,50,carrot,rose,,90449,001,2022-04-25_23h05.11.898,SPAMnetsValid,2021.1.4,Win32,59.79788315,,,,,,,,,,,,,,,,,,,,,,,,,,,,,,,,,,,,,,,,,,,,,,,,,,,,,,,,,,,,,,,,,,,,,,,,,,,,,,,,,,,,,,,,,
,,5,3.204,5,3.204,0,44,44,90,1,95,broom,refrigerator,,90449,001,2022-04-25_23h05.11.898,SPAMnetsValid,2021.1.4,Win32,59.79788315,,,,,,,,,,,,,,,,,,,,,,,,,,,,,,,,,,,,,,,,,,,,,,,,,,,,,,,,,,,,,,,,,,,,,,,,,,,,,,,,,,,,,,,,,
,,8,2.8027,8,2.8027,0,45,45,33,1,32,cake,microwave,,90449,001,2022-04-25_23h05.11.898,SPAMnetsValid,2021.1.4,Win32,59.79788315,,,,,,,,,,,,,,,,,,,,,,,,,,,,,,,,,,,,,,,,,,,,,,,,,,,,,,,,,,,,,,,,,,,,,,,,,,,,,,,,,,,,,,,,,
,,6,1.8041,6,1.8041,0,46,46,28,1,84,oven,tomato,,90449,001,2022-04-25_23h05.11.898,SPAMnetsValid,2021.1.4,Win32,59.79788315,,,,,,,,,,,,,,,,,,,,,,,,,,,,,,,,,,,,,,,,,,,,,,,,,,,,,,,,,,,,,,,,,,,,,,,,,,,,,,,,,,,,,,,,,
,,3,2.0784,3,2.0784,0,47,47,15,1,48,flower,oven,,90449,001,2022-04-25_23h05.11.898,SPAMnetsValid,2021.1.4,Win32,59.79788315,,,,,,,,,,,,,,,,,,,,,,,,,,,,,,,,,,,,,,,,,,,,,,,,,,,,,,,,,,,,,,,,,,,,,,,,,,,,,,,,,,,,,,,,,
,,9,1.804,9,1.804,0,48,48,58,1,94,kitchen,microwave,,90449,001,2022-04-25_23h05.11.898,SPAMnetsValid,2021.1.4,Win32,59.79788315,,,,,,,,,,,,,,,,,,,,,,,,,,,,,,,,,,,,,,,,,,,,,,,,,,,,,,,,,,,,,,,,,,,,,,,,,,,,,,,,,,,,,,,,,
,,6,1.8338,6,1.8338,0,49,49,8,1,43,chocolate,tomato,,90449,001,2022-04-25_23h05.11.898,SPAMnetsValid,2021.1.4,Win32,59.79788315,,,,,,,,,,,,,,,,,,,,,,,,,,,,,,,,,,,,,,,,,,,,,,,,,,,,,,,,,,,,,,,,,,,,,,,,,,,,,,,,,,,,,,,,,
,,2,3.6465,2,3.6465,0,50,50,1,1,31,cactus,pretzel,,90449,001,2022-04-25_23h05.11.898,SPAMnetsValid,2021.1.4,Win32,59.79788315,,,,,,,,,,,,,,,,,,,,,,,,,,,,,,,,,,,,,,,,,,,,,,,,,,,,,,,,,,,,,,,,,,,,,,,,,,,,,,,,,,,,,,,,,
,,9,2.1839,9,2.1839,0,51,51,95,1,52,carrot,tomato,,90449,001,2022-04-25_23h05.11.898,SPAMnetsValid,2021.1.4,Win32,59.79788315,,,,,,,,,,,,,,,,,,,,,,,,,,,,,,,,,,,,,,,,,,,,,,,,,,,,,,,,,,,,,,,,,,,,,,,,,,,,,,,,,,,,,,,,,
,,7,3.0457,7,3.0457,0,52,52,86,1,51,onion,strawberry,,90449,001,2022-04-25_23h05.11.898,SPAMnetsValid,2021.1.4,Win32,59.79788315,,,,,,,,,,,,,,,,,,,,,,,,,,,,,,,,,,,,,,,,,,,,,,,,,,,,,,,,,,,,,,,,,,,,,,,,,,,,,,,,,,,,,,,,,
,,6,3.2321,6,3.2321,0,53,53,80,1,61,strawberry,tomato,,90449,001,2022-04-25_23h05.11.898,SPAMnetsValid,2021.1.4,Win32,59.79788315,,,,,,,,,,,,,,,,,,,,,,,,,,,,,,,,,,,,,,,,,,,,,,,,,,,,,,,,,,,,,,,,,,,,,,,,,,,,,,,,,,,,,,,,,
,,7,1.8422,7,1.8422,0,54,54,54,1,28,cake,melon,,90449,001,2022-04-25_23h05.11.898,SPAMnetsValid,2021.1.4,Win32,59.79788315,,,,,,,,,,,,,,,,,,,,,,,,,,,,,,,,,,,,,,,,,,,,,,,,,,,,,,,,,,,,,,,,,,,,,,,,,,,,,,,,,,,,,,,,,
,,8,1.6461,8,1.6461,0,55,55,6,1,87,carrot,yogurt,,90449,001,2022-04-25_23h05.11.898,SPAMnetsValid,2021.1.4,Win32,59.79788315,,,,,,,,,,,,,,,,,,,,,,,,,,,,,,,,,,,,,,,,,,,,,,,,,,,,,,,,,,,,,,,,,,,,,,,,,,,,,,,,,,,,,,,,,
,,6,1.7163,6,1.7163,0,56,56,65,1,46,garden,yogurt,,90449,001,2022-04-25_23h05.11.898,SPAMnetsValid,2021.1.4,Win32,59.79788315,,,,,,,,,,,,,,,,,,,,,,,,,,,,,,,,,,,,,,,,,,,,,,,,,,,,,,,,,,,,,,,,,,,,,,,,,,,,,,,,,,,,,,,,,
,,9,2.4892,9,2.4892,0,57,57,96,1,82,cake,kitchen,,90449,001,2022-04-25_23h05.11.898,SPAMnetsValid,2021.1.4,Win32,59.79788315,,,,,,,,,,,,,,,,,,,,,,,,,,,,,,,,,,,,,,,,,,,,,,,,,,,,,,,,,,,,,,,,,,,,,,,,,,,,,,,,,,,,,,,,,
,,8,1.4029,8,1.4029,0,58,58,0,1,53,garden,pretzel,,90449,001,2022-04-25_23h05.11.898,SPAMnetsValid,2021.1.4,Win32,59.79788315,,,,,,,,,,,,,,,,,,,,,,,,,,,,,,,,,,,,,,,,,,,,,,,,,,,,,,,,,,,,,,,,,,,,,,,,,,,,,,,,,,,,,,,,,
,,4,5.4299,4,5.4299,0,59,59,56,1,78,cookie,rose,,90449,001,2022-04-25_23h05.11.898,SPAMnetsValid,2021.1.4,Win32,59.79788315,,,,,,,,,,,,,,,,,,,,,,,,,,,,,,,,,,,,,,,,,,,,,,,,,,,,,,,,,,,,,,,,,,,,,,,,,,,,,,,,,,,,,,,,,
,,5,3.874,5,3.874,0,60,60,45,1,10,flower,onion,,90449,001,2022-04-25_23h05.11.898,SPAMnetsValid,2021.1.4,Win32,59.79788315,,,,,,,,,,,,,,,,,,,,,,,,,,,,,,,,,,,,,,,,,,,,,,,,,,,,,,,,,,,,,,,,,,,,,,,,,,,,,,,,,,,,,,,,,
,,8,1.8804,8,1.8804,0,61,61,76,1,36,broom,kitchen,,90449,001,2022-04-25_23h05.11.898,SPAMnetsValid,2021.1.4,Win32,59.79788315,,,,,,,,,,,,,,,,,,,,,,,,,,,,,,,,,,,,,,,,,,,,,,,,,,,,,,,,,,,,,,,,,,,,,,,,,,,,,,,,,,,,,,,,,
,,5,7.9666,5,7.9666,0,62,62,14,1,64,chocolate,garden,,90449,001,2022-04-25_23h05.11.898,SPAMnetsValid,2021.1.4,Win32,59.79788315,,,,,,,,,,,,,,,,,,,,,,,,,,,,,,,,,,,,,,,,,,,,,,,,,,,,,,,,,,,,,,,,,,,,,,,,,,,,,,,,,,,,,,,,,
,,9,1.8702,9,1.8702,0,63,63,53,1,192,microwave,microwave,CHECK,90449,001,2022-04-25_23h05.11.898,SPAMnetsValid,2021.1.4,Win32,59.79788315,,,,,,,,,,,,,,,,,,,,,,,,,,,,,,,,,,,,,,,,,,,,,,,,,,,,,,,,,,,,,,,,,,,,,,,,,,,,,,,,,,,,,,,,,
,,6,2.5682,6,2.5682,0,64,64,31,1,33,oven,yogurt,,90449,001,2022-04-25_23h05.11.898,SPAMnetsValid,2021.1.4,Win32,59.79788315,,,,,,,,,,,,,,,,,,,,,,,,,,,,,,,,,,,,,,,,,,,,,,,,,,,,,,,,,,,,,,,,,,,,,,,,,,,,,,,,,,,,,,,,,
,,4,2.2004,4,2.2004,0,65,65,43,1,11,refrigerator,tree,,90449,001,2022-04-25_23h05.11.898,SPAMnetsValid,2021.1.4,Win32,59.79788315,,,,,,,,,,,,,,,,,,,,,,,,,,,,,,,,,,,,,,,,,,,,,,,,,,,,,,,,,,,,,,,,,,,,,,,,,,,,,,,,,,,,,,,,,
,,4,1.9129,4,1.9129,0,66,66,7,1,34,melon,oven,,90449,001,2022-04-25_23h05.11.898,SPAMnetsValid,2021.1.4,Win32,59.79788315,,,,,,,,,,,,,,,,,,,,,,,,,,,,,,,,,,,,,,,,,,,,,,,,,,,,,,,,,,,,,,,,,,,,,,,,,,,,,,,,,,,,,,,,,
,,7,2.58,7,2.58,0,67,67,77,1,7,melon,tree,,90449,001,2022-04-25_23h05.11.898,SPAMnetsValid,2021.1.4,Win32,59.79788315,,,,,,,,,,,,,,,,,,,,,,,,,,,,,,,,,,,,,,,,,,,,,,,,,,,,,,,,,,,,,,,,,,,,,,,,,,,,,,,,,,,,,,,,,
,,4,3.2943,4,3.2943,0,68,68,85,1,90,cactus,cake,,90449,001,2022-04-25_23h05.11.898,SPAMnetsValid,2021.1.4,Win32,59.79788315,,,,,,,,,,,,,,,,,,,,,,,,,,,,,,,,,,,,,,,,,,,,,,,,,,,,,,,,,,,,,,,,,,,,,,,,,,,,,,,,,,,,,,,,,
,,9,2.4633,9,2.4633,0,69,69,93,1,63,cake,cookie,,90449,001,2022-04-25_23h05.11.898,SPAMnetsValid,2021.1.4,Win32,59.79788315,,,,,,,,,,,,,,,,,,,,,,,,,,,,,,,,,,,,,,,,,,,,,,,,,,,,,,,,,,,,,,,,,,,,,,,,,,,,,,,,,,,,,,,,,
,,7,2.553,7,2.553,0,70,70,19,1,76,garden,rose,,90449,001,2022-04-25_23h05.11.898,SPAMnetsValid,2021.1.4,Win32,59.79788315,,,,,,,,,,,,,,,,,,,,,,,,,,,,,,,,,,,,,,,,,,,,,,,,,,,,,,,,,,,,,,,,,,,,,,,,,,,,,,,,,,,,,,,,,
,,9,2.798,9,2.798,0,71,71,82,1,93,kitchen,oven,,90449,001,2022-04-25_23h05.11.898,SPAMnetsValid,2021.1.4,Win32,59.79788315,,,,,,,,,,,,,,,,,,,,,,,,,,,,,,,,,,,,,,,,,,,,,,,,,,,,,,,,,,,,,,,,,,,,,,,,,,,,,,,,,,,,,,,,,
,,6,3.0569,6,3.0569,0,72,72,22,1,16,chocolate,flower,,90449,001,2022-04-25_23h05.11.898,SPAMnetsValid,2021.1.4,Win32,59.79788315,,,,,,,,,,,,,,,,,,,,,,,,,,,,,,,,,,,,,,,,,,,,,,,,,,,,,,,,,,,,,,,,,,,,,,,,,,,,,,,,,,,,,,,,,
,,5,2.8953,5,2.8953,0,73,73,59,1,8,broom,melon,,90449,001,2022-04-25_23h05.11.898,SPAMnetsValid,2021.1.4,Win32,59.79788315,,,,,,,,,,,,,,,,,,,,,,,,,,,,,,,,,,,,,,,,,,,,,,,,,,,,,,,,,,,,,,,,,,,,,,,,,,,,,,,,,,,,,,,,,
,,9,1.6097,9,1.6097,0,74,74,78,1,30,cookie,pretzel,,90449,001,2022-04-25_23h05.11.898,SPAMnetsValid,2021.1.4,Win32,59.79788315,,,,,,,,,,,,,,,,,,,,,,,,,,,,,,,,,,,,,,,,,,,,,,,,,,,,,,,,,,,,,,,,,,,,,,,,,,,,,,,,,,,,,,,,,
,,7,2.1712,7,2.1712,0,75,75,36,1,12,cookie,yogurt,,90449,001,2022-04-25_23h05.11.898,SPAMnetsValid,2021.1.4,Win32,59.79788315,,,,,,,,,,,,,,,,,,,,,,,,,,,,,,,,,,,,,,,,,,,,,,,,,,,,,,,,,,,,,,,,,,,,,,,,,,,,,,,,,,,,,,,,,
,,6,4.5544,6,4.5544,0,76,76,81,1,60,cactus,onion,,90449,001,2022-04-25_23h05.11.898,SPAMnetsValid,2021.1.4,Win32,59.79788315,,,,,,,,,,,,,,,,,,,,,,,,,,,,,,,,,,,,,,,,,,,,,,,,,,,,,,,,,,,,,,,,,,,,,,,,,,,,,,,,,,,,,,,,,
,,6,1.6466,6,1.6466,0,77,77,75,1,69,carrot,refrigerator,,90449,001,2022-04-25_23h05.11.898,SPAMnetsValid,2021.1.4,Win32,59.79788315,,,,,,,,,,,,,,,,,,,,,,,,,,,,,,,,,,,,,,,,,,,,,,,,,,,,,,,,,,,,,,,,,,,,,,,,,,,,,,,,,,,,,,,,,
,,5,3.3362,5,3.3362,0,78,78,5,1,13,broom,yogurt,,90449,001,2022-04-25_23h05.11.898,SPAMnetsValid,2021.1.4,Win32,59.79788315,,,,,,,,,,,,,,,,,,,,,,,,,,,,,,,,,,,,,,,,,,,,,,,,,,,,,,,,,,,,,,,,,,,,,,,,,,,,,,,,,,,,,,,,,
,,5,4.1782,5,4.1782,0,79,79,25,1,23,flower,microwave,,90449,001,2022-04-25_23h05.11.898,SPAMnetsValid,2021.1.4,Win32,59.79788315,,,,,,,,,,,,,,,,,,,,,,,,,,,,,,,,,,,,,,,,,,,,,,,,,,,,,,,,,,,,,,,,,,,,,,,,,,,,,,,,,,,,,,,,,
,,6,1.5873,6,1.5873,0,80,80,47,1,73,broom,chocolate,,90449,001,2022-04-25_23h05.11.898,SPAMnetsValid,2021.1.4,Win32,59.79788315,,,,,,,,,,,,,,,,,,,,,,,,,,,,,,,,,,,,,,,,,,,,,,,,,,,,,,,,,,,,,,,,,,,,,,,,,,,,,,,,,,,,,,,,,
,,6,4.6211,6,4.6211,0,81,81,21,1,56,cactus,tree,,90449,001,2022-04-25_23h05.11.898,SPAMnetsValid,2021.1.4,Win32,59.79788315,,,,,,,,,,,,,,,,,,,,,,,,,,,,,,,,,,,,,,,,,,,,,,,,,,,,,,,,,,,,,,,,,,,,,,,,,,,,,,,,,,,,,,,,,
,,9,1.7199,9,1.7199,0,82,82,52,1,4,chocolate,pretzel,,90449,001,2022-04-25_23h05.11.898,SPAMnetsValid,2021.1.4,Win32,59.79788315,,,,,,,,,,,,,,,,,,,,,,,,,,,,,,,,,,,,,,,,,,,,,,,,,,,,,,,,,,,,,,,,,,,,,,,,,,,,,,,,,,,,,,,,,
,,5,1.6699,5,1.6699,0,83,83,70,1,5,oven,tree,,90449,001,2022-04-25_23h05.11.898,SPAMnetsValid,2021.1.4,Win32,59.79788315,,,,,,,,,,,,,,,,,,,,,,,,,,,,,,,,,,,,,,,,,,,,,,,,,,,,,,,,,,,,,,,,,,,,,,,,,,,,,,,,,,,,,,,,,
,,4,2.6694,4,2.6694,0,84,84,49,1,57,flower,kitchen,,90449,001,2022-04-25_23h05.11.898,SPAMnetsValid,2021.1.4,Win32,59.79788315,,,,,,,,,,,,,,,,,,,,,,,,,,,,,,,,,,,,,,,,,,,,,,,,,,,,,,,,,,,,,,,,,,,,,,,,,,,,,,,,,,,,,,,,,
,,7,1.796,7,1.796,0,85,85,92,1,44,cookie,melon,,90449,001,2022-04-25_23h05.11.898,SPAMnetsValid,2021.1.4,Win32,59.79788315,,,,,,,,,,,,,,,,,,,,,,,,,,,,,,,,,,,,,,,,,,,,,,,,,,,,,,,,,,,,,,,,,,,,,,,,,,,,,,,,,,,,,,,,,
,,4,5.375,4,5.375,0,86,86,57,1,62,kitchen,rose,,90449,001,2022-04-25_23h05.11.898,SPAMnetsValid,2021.1.4,Win32,59.79788315,,,,,,,,,,,,,,,,,,,,,,,,,,,,,,,,,,,,,,,,,,,,,,,,,,,,,,,,,,,,,,,,,,,,,,,,,,,,,,,,,,,,,,,,,
,,6,13.8834,6,13.8834,0,87,87,16,1,14,broom,cookie,,90449,001,2022-04-25_23h05.11.898,SPAMnetsValid,2021.1.4,Win32,59.79788315,,,,,,,,,,,,,,,,,,,,,,,,,,,,,,,,,,,,,,,,,,,,,,,,,,,,,,,,,,,,,,,,,,,,,,,,,,,,,,,,,,,,,,,,,
,,9,1.4705,9,1.4705,0,88,88,10,1,191,cake,cake,CHECK,90449,001,2022-04-25_23h05.11.898,SPAMnetsValid,2021.1.4,Win32,59.79788315,,,,,,,,,,,,,,,,,,,,,,,,,,,,,,,,,,,,,,,,,,,,,,,,,,,,,,,,,,,,,,,,,,,,,,,,,,,,,,,,,,,,,,,,,
,,5,2.7668,5,2.7668,0,89,89,74,1,70,chocolate,onion,,90449,001,2022-04-25_23h05.11.898,SPAMnetsValid,2021.1.4,Win32,59.79788315,,,,,,,,,,,,,,,,,,,,,,,,,,,,,,,,,,,,,,,,,,,,,,,,,,,,,,,,,,,,,,,,,,,,,,,,,,,,,,,,,,,,,,,,,
,,9,6.1736,9,6.1736,0,90,90,64,1,9,kitchen,refrigerator,,90449,001,2022-04-25_23h05.11.898,SPAMnetsValid,2021.1.4,Win32,59.79788315,,,,,,,,,,,,,,,,,,,,,,,,,,,,,,,,,,,,,,,,,,,,,,,,,,,,,,,,,,,,,,,,,,,,,,,,,,,,,,,,,,,,,,,,,
,,4,2.8236,4,2.8236,0,91,91,79,1,86,oven,rose,,90449,001,2022-04-25_23h05.11.898,SPAMnetsValid,2021.1.4,Win32,59.79788315,,,,,,,,,,,,,,,,,,,,,,,,,,,,,,,,,,,,,,,,,,,,,,,,,,,,,,,,,,,,,,,,,,,,,,,,,,,,,,,,,,,,,,,,,
,,5,1.6156,5,1.6156,0,92,92,48,1,66,melon,yogurt,,90449,001,2022-04-25_23h05.11.898,SPAMnetsValid,2021.1.4,Win32,59.79788315,,,,,,,,,,,,,,,,,,,,,,,,,,,,,,,,,,,,,,,,,,,,,,,,,,,,,,,,,,,,,,,,,,,,,,,,,,,,,,,,,,,,,,,,,
,,8,3.8659,8,3.8659,0,93,93,60,1,89,chocolate,rose,,90449,001,2022-04-25_23h05.11.898,SPAMnetsValid,2021.1.4,Win32,59.79788315,,,,,,,,,,,,,,,,,,,,,,,,,,,,,,,,,,,,,,,,,,,,,,,,,,,,,,,,,,,,,,,,,,,,,,,,,,,,,,,,,,,,,,,,,
,,9,1.7866,9,1.7866,0,94,94,62,1,18,onion,refrigerator,,90449,001,2022-04-25_23h05.11.898,SPAMnetsValid,2021.1.4,Win32,59.79788315,,,,,,,,,,,,,,,,,,,,,,,,,,,,,,,,,,,,,,,,,,,,,,,,,,,,,,,,,,,,,,,,,,,,,,,,,,,,,,,,,,,,,,,,,
,,7,2.1363,7,2.1363,0,95,95,35,1,55,tomato,tree,,90449,001,2022-04-25_23h05.11.898,SPAMnetsValid,2021.1.4,Win32,59.79788315,,,,,,,,,,,,,,,,,,,,,,,,,,,,,,,,,,,,,,,,,,,,,,,,,,,,,,,,,,,,,,,,,,,,,,,,,,,,,,,,,,,,,,,,,
,,8,7.3702,8,7.3702,0,96,96,41,1,19,microwave,pretzel,,90449,001,2022-04-25_23h05.11.898,SPAMnetsValid,2021.1.4,Win32,59.79788315,,,,,,,,,,,,,,,,,,,,,,,,,,,,,,,,,,,,,,,,,,,,,,,,,,,,,,,,,,,,,,,,,,,,,,,,,,,,,,,,,,,,,,,,,
,,,,,,,,,,,,,,,90449,001,2022-04-25_23h05.11.898,SPAMnetsValid,2021.1.4,Win32,59.79788315,0,0,0,0,1,,,,,,,,,,,,,,,,,,,,,,,,,,,,,,,,,,,,,,,,,,,,,,,,,,,,,,,,,,,,,,,,,,,,,,,,,,,,,,,,,,,,
,,,,,,,,,,,,,,,90449,001,2022-04-25_23h05.11.898,SPAMnetsValid,2021.1.4,Win32,59.79788315,,,,,,0,0,0,0,1,1,0,,,,,,,,,,,,,,,,,,,,,,,,,,,,,,,,,,,,,,,,,,,,,,,,,,,,,,,,,,,,,,,,,,,,,,,,,,,,,
,,,,9,3.8456,,,,,,115,refrigerator,tomato,,90449,001,2022-04-25_23h05.11.898,SPAMnetsValid,2021.1.4,Win32,59.79788315,,,,,,,,,,,,,9,3.8456,0,0,0,85,1,,,,,,,,,,,,,,,,,,,,,,,,,,,,,,,,,,,,,,,,,,,,,,,,,,,,,,,,,,,,,,,,,,,,,,
,,,,9,2.0961,,,,,,122,flower,garden,,90449,001,2022-04-25_23h05.11.898,SPAMnetsValid,2021.1.4,Win32,59.79788315,,,,,,,,,,,,,9,2.0961,0,1,1,60,1,,,,,,,,,,,,,,,,,,,,,,,,,,,,,,,,,,,,,,,,,,,,,,,,,,,,,,,,,,,,,,,,,,,,,,
,,,,8,2.031,,,,,,188,flower,tree,,90449,001,2022-04-25_23h05.11.898,SPAMnetsValid,2021.1.4,Win32,59.79788315,,,,,,,,,,,,,8,2.031,0,2,2,7,1,,,,,,,,,,,,,,,,,,,,,,,,,,,,,,,,,,,,,,,,,,,,,,,,,,,,,,,,,,,,,,,,,,,,,,
,,,,6,2.0286,,,,,,135,carrot,oven,,90449,001,2022-04-25_23h05.11.898,SPAMnetsValid,2021.1.4,Win32,59.79788315,,,,,,,,,,,,,6,2.0286,0,3,3,73,1,,,,,,,,,,,,,,,,,,,,,,,,,,,,,,,,,,,,,,,,,,,,,,,,,,,,,,,,,,,,,,,,,,,,,,
,,,,8,2.2706,,,,,,161,kitchen,pretzel,,90449,001,2022-04-25_23h05.11.898,SPAMnetsValid,2021.1.4,Win32,59.79788315,,,,,,,,,,,,,8,2.2706,0,4,4,36,1,,,,,,,,,,,,,,,,,,,,,,,,,,,,,,,,,,,,,,,,,,,,,,,,,,,,,,,,,,,,,,,,,,,,,,
,,,,6,29.6579,,,,,,169,onion,yogurt,,90449,001,2022-04-25_23h05.11.898,SPAMnetsValid,2021.1.4,Win32,59.79788315,,,,,,,,,,,,,6,29.6579,0,5,5,24,1,,,,,,,,,,,,,,,,,,,,,,,,,,,,,,,,,,,,,,,,,,,,,,,,,,,,,,,,,,,,,,,,,,,,,,
,,,,8,8.821,,,,,,140,cookie,refrigerator,,90449,001,2022-04-25_23h05.11.898,SPAMnetsValid,2021.1.4,Win32,59.79788315,,,,,,,,,,,,,8,8.821,0,6,6,89,1,,,,,,,,,,,,,,,,,,,,,,,,,,,,,,,,,,,,,,,,,,,,,,,,,,,,,,,,,,,,,,,,,,,,,,
,,,,9,4.4533,,,,,,97,chocolate,kitchen,,90449,001,2022-04-25_23h05.11.898,SPAMnetsValid,2021.1.4,Win32,59.79788315,,,,,,,,,,,,,9,4.4533,0,7,7,8,1,,,,,,,,,,,,,,,,,,,,,,,,,,,,,,,,,,,,,,,,,,,,,,,,,,,,,,,,,,,,,,,,,,,,,,
,,,,8,2.2715,,,,,,125,carrot,tree,,90449,001,2022-04-25_23h05.11.898,SPAMnetsValid,2021.1.4,Win32,59.79788315,,,,,,,,,,,,,8,2.2715,0,8,8,30,1,,,,,,,,,,,,,,,,,,,,,,,,,,,,,,,,,,,,,,,,,,,,,,,,,,,,,,,,,,,,,,,,,,,,,,
,,,,7,1.5203,,,,,,134,carrot,flower,,90449,001,2022-04-25_23h05.11.898,SPAMnetsValid,2021.1.4,Win32,59.79788315,,,,,,,,,,,,,7,1.5203,0,9,9,93,1,,,,,,,,,,,,,,,,,,,,,,,,,,,,,,,,,,,,,,,,,,,,,,,,,,,,,,,,,,,,,,,,,,,,,,
,,,,9,1.5634,,,,,,194,cactus,cactus,CHECK,90449,001,2022-04-25_23h05.11.898,SPAMnetsValid,2021.1.4,Win32,59.79788315,,,,,,,,,,,,,9,1.5634,0,10,10,25,1,,,,,,,,,,,,,,,,,,,,,,,,,,,,,,,,,,,,,,,,,,,,,,,,,,,,,,,,,,,,,,,,,,,,,,
,,,,7,11.7711,,,,,,149,broom,tomato,,90449,001,2022-04-25_23h05.11.898,SPAMnetsValid,2021.1.4,Win32,59.79788315,,,,,,,,,,,,,7,11.7711,0,11,11,20,1,,,,,,,,,,,,,,,,,,,,,,,,,,,,,,,,,,,,,,,,,,,,,,,,,,,,,,,,,,,,,,,,,,,,,,
,,,,5,3.2547,,,,,,128,melon,microwave,,90449,001,2022-04-25_23h05.11.898,SPAMnetsValid,2021.1.4,Win32,59.79788315,,,,,,,,,,,,,5,3.2547,0,12,12,74,1,,,,,,,,,,,,,,,,,,,,,,,,,,,,,,,,,,,,,,,,,,,,,,,,,,,,,,,,,,,,,,,,,,,,,,
,,,,5,2.1371,,,,,,146,pretzel,tree,,90449,001,2022-04-25_23h05.11.898,SPAMnetsValid,2021.1.4,Win32,59.79788315,,,,,,,,,,,,,5,2.1371,0,13,13,80,1,,,,,,,,,,,,,,,,,,,,,,,,,,,,,,,,,,,,,,,,,,,,,,,,,,,,,,,,,,,,,,,,,,,,,,
,,,,6,3.2546,,,,,,166,cake,yogurt,,90449,001,2022-04-25_23h05.11.898,SPAMnetsValid,2021.1.4,Win32,59.79788315,,,,,,,,,,,,,6,3.2546,0,14,14,91,1,,,,,,,,,,,,,,,,,,,,,,,,,,,,,,,,,,,,,,,,,,,,,,,,,,,,,,,,,,,,,,,,,,,,,,
,,,,9,1.8219,,,,,,193,melon,melon,CHECK,90449,001,2022-04-25_23h05.11.898,SPAMnetsValid,2021.1.4,Win32,59.79788315,,,,,,,,,,,,,9,1.8219,0,15,15,86,1,,,,,,,,,,,,,,,,,,,,,,,,,,,,,,,,,,,,,,,,,,,,,,,,,,,,,,,,,,,,,,,,,,,,,,
,,,,5,4.758,,,,,,127,cactus,chocolate,,90449,001,2022-04-25_23h05.11.898,SPAMnetsValid,2021.1.4,Win32,59.79788315,,,,,,,,,,,,,5,4.758,0,16,16,57,1,,,,,,,,,,,,,,,,,,,,,,,,,,,,,,,,,,,,,,,,,,,,,,,,,,,,,,,,,,,,,,,,,,,,,,
,,,,8,2.2541,,,,,,113,refrigerator,strawberry,,90449,001,2022-04-25_23h05.11.898,SPAMnetsValid,2021.1.4,Win32,59.79788315,,,,,,,,,,,,,8,2.2541,0,17,17,56,1,,,,,,,,,,,,,,,,,,,,,,,,,,,,,,,,,,,,,,,,,,,,,,,,,,,,,,,,,,,,,,,,,,,,,,
,,,,9,1.5709,,,,,,158,cookie,oven,,90449,001,2022-04-25_23h05.11.898,SPAMnetsValid,2021.1.4,Win32,59.79788315,,,,,,,,,,,,,9,1.5709,0,18,18,27,1,,,,,,,,,,,,,,,,,,,,,,,,,,,,,,,,,,,,,,,,,,,,,,,,,,,,,,,,,,,,,,,,,,,,,,
,,,,9,20.3761,,,,,,131,cactus,garden,,90449,001,2022-04-25_23h05.11.898,SPAMnetsValid,2021.1.4,Win32,59.79788315,,,,,,,,,,,,,9,20.3761,0,19,19,33,1,,,,,,,,,,,,,,,,,,,,,,,,,,,,,,,,,,,,,,,,,,,,,,,,,,,,,,,,,,,,,,,,,,,,,,
,,,,4,3.7869,,,,,,104,garden,microwave,,90449,001,2022-04-25_23h05.11.898,SPAMnetsValid,2021.1.4,Win32,59.79788315,,,,,,,,,,,,,4,3.7869,0,20,20,81,1,,,,,,,,,,,,,,,,,,,,,,,,,,,,,,,,,,,,,,,,,,,,,,,,,,,,,,,,,,,,,,,,,,,,,,
,,,,9,5.244,,,,,,174,cake,pretzel,,90449,001,2022-04-25_23h05.11.898,SPAMnetsValid,2021.1.4,Win32,59.79788315,,,,,,,,,,,,,9,5.244,0,21,21,2,1,,,,,,,,,,,,,,,,,,,,,,,,,,,,,,,,,,,,,,,,,,,,,,,,,,,,,,,,,,,,,,,,,,,,,,
,,,,9,7.7702,,,,,,99,garden,melon,,90449,001,2022-04-25_23h05.11.898,SPAMnetsValid,2021.1.4,Win32,59.79788315,,,,,,,,,,,,,9,7.7702,0,22,22,17,1,,,,,,,,,,,,,,,,,,,,,,,,,,,,,,,,,,,,,,,,,,,,,,,,,,,,,,,,,,,,,,,,,,,,,,
,,,,7,7.2774,,,,,,153,carrot,pretzel,,90449,001,2022-04-25_23h05.11.898,SPAMnetsValid,2021.1.4,Win32,59.79788315,,,,,,,,,,,,,7,7.2774,0,23,23,34,1,,,,,,,,,,,,,,,,,,,,,,,,,,,,,,,,,,,,,,,,,,,,,,,,,,,,,,,,,,,,,,,,,,,,,,
,,,,8,1.3449,,,,,,132,broom,tree,,90449,001,2022-04-25_23h05.11.898,SPAMnetsValid,2021.1.4,Win32,59.79788315,,,,,,,,,,,,,8,1.3449,0,24,24,78,1,,,,,,,,,,,,,,,,,,,,,,,,,,,,,,,,,,,,,,,,,,,,,,,,,,,,,,,,,,,,,,,,,,,,,,
,,,,8,3.7148,,,,,,163,melon,refrigerator,,90449,001,2022-04-25_23h05.11.898,SPAMnetsValid,2021.1.4,Win32,59.79788315,,,,,,,,,,,,,8,3.7148,0,25,25,29,1,,,,,,,,,,,,,,,,,,,,,,,,,,,,,,,,,,,,,,,,,,,,,,,,,,,,,,,,,,,,,,,,,,,,,,
,,,,3,2.3683,,,,,,129,cactus,refrigerator,,90449,001,2022-04-25_23h05.11.898,SPAMnetsValid,2021.1.4,Win32,59.79788315,,,,,,,,,,,,,3,2.3683,0,26,26,3,1,,,,,,,,,,,,,,,,,,,,,,,,,,,,,,,,,,,,,,,,,,,,,,,,,,,,,,,,,,,,,,,,,,,,,,
,,,,9,3.2657,,,,,,133,cake,flower,,90449,001,2022-04-25_23h05.11.898,SPAMnetsValid,2021.1.4,Win32,59.79788315,,,,,,,,,,,,,9,3.2657,0,27,27,94,1,,,,,,,,,,,,,,,,,,,,,,,,,,,,,,,,,,,,,,,,,,,,,,,,,,,,,,,,,,,,,,,,,,,,,,
,,,,8,3.8728,,,,,,136,chocolate,microwave,,90449,001,2022-04-25_23h05.11.898,SPAMnetsValid,2021.1.4,Win32,59.79788315,,,,,,,,,,,,,8,3.8728,0,28,28,96,1,,,,,,,,,,,,,,,,,,,,,,,,,,,,,,,,,,,,,,,,,,,,,,,,,,,,,,,,,,,,,,,,,,,,,,
,,,,6,3.1135,,,,,,168,cactus,flower,,90449,001,2022-04-25_23h05.11.898,SPAMnetsValid,2021.1.4,Win32,59.79788315,,,,,,,,,,,,,6,3.1135,0,29,29,51,1,,,,,,,,,,,,,,,,,,,,,,,,,,,,,,,,,,,,,,,,,,,,,,,,,,,,,,,,,,,,,,,,,,,,,,
,,,,8,1.3711,,,,,,110,chocolate,cookie,,90449,001,2022-04-25_23h05.11.898,SPAMnetsValid,2021.1.4,Win32,59.79788315,,,,,,,,,,,,,8,1.3711,0,30,30,52,1,,,,,,,,,,,,,,,,,,,,,,,,,,,,,,,,,,,,,,,,,,,,,,,,,,,,,,,,,,,,,,,,,,,,,,
,,,,4,4.1543,,,,,,126,kitchen,tree,,90449,001,2022-04-25_23h05.11.898,SPAMnetsValid,2021.1.4,Win32,59.79788315,,,,,,,,,,,,,4,4.1543,0,31,31,50,1,,,,,,,,,,,,,,,,,,,,,,,,,,,,,,,,,,,,,,,,,,,,,,,,,,,,,,,,,,,,,,,,,,,,,,
,,,,6,2.6041,,,,,,114,cookie,strawberry,,90449,001,2022-04-25_23h05.11.898,SPAMnetsValid,2021.1.4,Win32,59.79788315,,,,,,,,,,,,,6,2.6041,0,32,32,87,1,,,,,,,,,,,,,,,,,,,,,,,,,,,,,,,,,,,,,,,,,,,,,,,,,,,,,,,,,,,,,,,,,,,,,,
,,,,5,3.305,,,,,,151,microwave,onion,,90449,001,2022-04-25_23h05.11.898,SPAMnetsValid,2021.1.4,Win32,59.79788315,,,,,,,,,,,,,5,3.305,0,33,33,6,1,,,,,,,,,,,,,,,,,,,,,,,,,,,,,,,,,,,,,,,,,,,,,,,,,,,,,,,,,,,,,,,,,,,,,,
,,,,6,1.8795,,,,,,152,cactus,strawberry,,90449,001,2022-04-25_23h05.11.898,SPAMnetsValid,2021.1.4,Win32,59.79788315,,,,,,,,,,,,,6,1.8795,0,34,34,49,1,,,,,,,,,,,,,,,,,,,,,,,,,,,,,,,,,,,,,,,,,,,,,,,,,,,,,,,,,,,,,,,,,,,,,,
,,,,8,1.8871,,,,,,147,cake,refrigerator,,90449,001,2022-04-25_23h05.11.898,SPAMnetsValid,2021.1.4,Win32,59.79788315,,,,,,,,,,,,,8,1.8871,0,35,35,35,1,,,,,,,,,,,,,,,,,,,,,,,,,,,,,,,,,,,,,,,,,,,,,,,,,,,,,,,,,,,,,,,,,,,,,,
,,,,7,8.7836,,,,,,119,strawberry,tree,,90449,001,2022-04-25_23h05.11.898,SPAMnetsValid,2021.1.4,Win32,59.79788315,,,,,,,,,,,,,7,8.7836,0,36,36,18,1,,,,,,,,,,,,,,,,,,,,,,,,,,,,,,,,,,,,,,,,,,,,,,,,,,,,,,,,,,,,,,,,,,,,,,
,,,,5,2.93,,,,,,137,microwave,tree,,90449,001,2022-04-25_23h05.11.898,SPAMnetsValid,2021.1.4,Win32,59.79788315,,,,,,,,,,,,,5,2.93,0,37,37,63,1,,,,,,,,,,,,,,,,,,,,,,,,,,,,,,,,,,,,,,,,,,,,,,,,,,,,,,,,,,,,,,,,,,,,,,
,,,,5,4.1483,,,,,,162,microwave,tomato,,90449,001,2022-04-25_23h05.11.898,SPAMnetsValid,2021.1.4,Win32,59.79788315,,,,,,,,,,,,,5,4.1483,0,38,38,12,1,,,,,,,,,,,,,,,,,,,,,,,,,,,,,,,,,,,,,,,,,,,,,,,,,,,,,,,,,,,,,,,,,,,,,,
,,,,6,1.8935,,,,,,123,cookie,tree,,90449,001,2022-04-25_23h05.11.898,SPAMnetsValid,2021.1.4,Win32,59.79788315,,,,,,,,,,,,,6,1.8935,0,39,39,46,1,,,,,,,,,,,,,,,,,,,,,,,,,,,,,,,,,,,,,,,,,,,,,,,,,,,,,,,,,,,,,,,,,,,,,,
,,,,6,2.3223,,,,,,154,strawberry,yogurt,,90449,001,2022-04-25_23h05.11.898,SPAMnetsValid,2021.1.4,Win32,59.79788315,,,,,,,,,,,,,6,2.3223,0,40,40,28,1,,,,,,,,,,,,,,,,,,,,,,,,,,,,,,,,,,,,,,,,,,,,,,,,,,,,,,,,,,,,,,,,,,,,,,
,,,,5,3.5823,,,,,,116,cake,chocolate,,90449,001,2022-04-25_23h05.11.898,SPAMnetsValid,2021.1.4,Win32,59.79788315,,,,,,,,,,,,,5,3.5823,0,41,41,44,1,,,,,,,,,,,,,,,,,,,,,,,,,,,,,,,,,,,,,,,,,,,,,,,,,,,,,,,,,,,,,,,,,,,,,,
,,,,6,1.3725,,,,,,155,carrot,cookie,,90449,001,2022-04-25_23h05.11.898,SPAMnetsValid,2021.1.4,Win32,59.79788315,,,,,,,,,,,,,6,1.3725,0,42,42,38,1,,,,,,,,,,,,,,,,,,,,,,,,,,,,,,,,,,,,,,,,,,,,,,,,,,,,,,,,,,,,,,,,,,,,,,
,,,,8,1.5707,,,,,,98,pretzel,strawberry,,90449,001,2022-04-25_23h05.11.898,SPAMnetsValid,2021.1.4,Win32,59.79788315,,,,,,,,,,,,,8,1.5707,0,43,43,82,1,,,,,,,,,,,,,,,,,,,,,,,,,,,,,,,,,,,,,,,,,,,,,,,,,,,,,,,,,,,,,,,,,,,,,,
,,,,9,2.0048,,,,,,106,cake,strawberry,,90449,001,2022-04-25_23h05.11.898,SPAMnetsValid,2021.1.4,Win32,59.79788315,,,,,,,,,,,,,9,2.0048,0,44,44,0,1,,,,,,,,,,,,,,,,,,,,,,,,,,,,,,,,,,,,,,,,,,,,,,,,,,,,,,,,,,,,,,,,,,,,,,
,,,,8,2.6831,,,,,,100,garden,tomato,,90449,001,2022-04-25_23h05.11.898,SPAMnetsValid,2021.1.4,Win32,59.79788315,,,,,,,,,,,,,8,2.6831,0,45,45,83,1,,,,,,,,,,,,,,,,,,,,,,,,,,,,,,,,,,,,,,,,,,,,,,,,,,,,,,,,,,,,,,,,,,,,,,
,,,,6,5.5639,,,,,,159,cookie,flower,,90449,001,2022-04-25_23h05.11.898,SPAMnetsValid,2021.1.4,Win32,59.79788315,,,,,,,,,,,,,6,5.5639,0,46,46,21,1,,,,,,,,,,,,,,,,,,,,,,,,,,,,,,,,,,,,,,,,,,,,,,,,,,,,,,,,,,,,,,,,,,,,,,
,,,,8,8.7568,,,,,,124,oven,refrigerator,,90449,001,2022-04-25_23h05.11.898,SPAMnetsValid,2021.1.4,Win32,59.79788315,,,,,,,,,,,,,8,8.7568,0,47,47,69,1,,,,,,,,,,,,,,,,,,,,,,,,,,,,,,,,,,,,,,,,,,,,,,,,,,,,,,,,,,,,,,,,,,,,,,
,,,,6,2.6885,,,,,,130,microwave,yogurt,,90449,001,2022-04-25_23h05.11.898,SPAMnetsValid,2021.1.4,Win32,59.79788315,,,,,,,,,,,,,6,2.6885,0,48,48,84,1,,,,,,,,,,,,,,,,,,,,,,,,,,,,,,,,,,,,,,,,,,,,,,,,,,,,,,,,,,,,,,,,,,,,,,
,,,,4,3.5099,,,,,,157,refrigerator,rose,,90449,001,2022-04-25_23h05.11.898,SPAMnetsValid,2021.1.4,Win32,59.79788315,,,,,,,,,,,,,4,3.5099,0,49,49,64,1,,,,,,,,,,,,,,,,,,,,,,,,,,,,,,,,,,,,,,,,,,,,,,,,,,,,,,,,,,,,,,,,,,,,,,
,,,,7,1.4944,,,,,,112,cake,carrot,,90449,001,2022-04-25_23h05.11.898,SPAMnetsValid,2021.1.4,Win32,59.79788315,,,,,,,,,,,,,7,1.4944,0,50,50,39,1,,,,,,,,,,,,,,,,,,,,,,,,,,,,,,,,,,,,,,,,,,,,,,,,,,,,,,,,,,,,,,,,,,,,,,
,,,,7,1.9043,,,,,,167,carrot,garden,,90449,001,2022-04-25_23h05.11.898,SPAMnetsValid,2021.1.4,Win32,59.79788315,,,,,,,,,,,,,7,1.9043,0,51,51,47,1,,,,,,,,,,,,,,,,,,,,,,,,,,,,,,,,,,,,,,,,,,,,,,,,,,,,,,,,,,,,,,,,,,,,,,
,,,,8,3.3877,,,,,,181,carrot,kitchen,,90449,001,2022-04-25_23h05.11.898,SPAMnetsValid,2021.1.4,Win32,59.79788315,,,,,,,,,,,,,8,3.3877,0,52,52,72,1,,,,,,,,,,,,,,,,,,,,,,,,,,,,,,,,,,,,,,,,,,,,,,,,,,,,,,,,,,,,,,,,,,,,,,
,,,,9,4.3382,,,,,,150,microwave,refrigerator,,90449,001,2022-04-25_23h05.11.898,SPAMnetsValid,2021.1.4,Win32,59.79788315,,,,,,,,,,,,,9,4.3382,0,53,53,66,1,,,,,,,,,,,,,,,,,,,,,,,,,,,,,,,,,,,,,,,,,,,,,,,,,,,,,,,,,,,,,,,,,,,,,,
,,,,5,9.2408,,,,,,182,flower,refrigerator,,90449,001,2022-04-25_23h05.11.898,SPAMnetsValid,2021.1.4,Win32,59.79788315,,,,,,,,,,,,,5,9.2408,0,54,54,32,1,,,,,,,,,,,,,,,,,,,,,,,,,,,,,,,,,,,,,,,,,,,,,,,,,,,,,,,,,,,,,,,,,,,,,,
,,,,6,2.2026,,,,,,111,carrot,microwave,,90449,001,2022-04-25_23h05.11.898,SPAMnetsValid,2021.1.4,Win32,59.79788315,,,,,,,,,,,,,6,2.2026,0,55,55,16,1,,,,,,,,,,,,,,,,,,,,,,,,,,,,,,,,,,,,,,,,,,,,,,,,,,,,,,,,,,,,,,,,,,,,,,
,,,,5,3.6523,,,,,,121,broom,microwave,,90449,001,2022-04-25_23h05.11.898,SPAMnetsValid,2021.1.4,Win32,59.79788315,,,,,,,,,,,,,5,3.6523,0,56,56,95,1,,,,,,,,,,,,,,,,,,,,,,,,,,,,,,,,,,,,,,,,,,,,,,,,,,,,,,,,,,,,,,,,,,,,,,
,,,,6,4.1744,,,,,,138,flower,rose,,90449,001,2022-04-25_23h05.11.898,SPAMnetsValid,2021.1.4,Win32,59.79788315,,,,,,,,,,,,,6,4.1744,0,57,57,61,1,,,,,,,,,,,,,,,,,,,,,,,,,,,,,,,,,,,,,,,,,,,,,,,,,,,,,,,,,,,,,,,,,,,,,,
,,,,7,4.309,,,,,,144,cake,garden,,90449,001,2022-04-25_23h05.11.898,SPAMnetsValid,2021.1.4,Win32,59.79788315,,,,,,,,,,,,,7,4.309,0,58,58,58,1,,,,,,,,,,,,,,,,,,,,,,,,,,,,,,,,,,,,,,,,,,,,,,,,,,,,,,,,,,,,,,,,,,,,,,
,,,,6,1.3597,,,,,,139,carrot,strawberry,,90449,001,2022-04-25_23h05.11.898,SPAMnetsValid,2021.1.4,Win32,59.79788315,,,,,,,,,,,,,6,1.3597,0,59,59,37,1,,,,,,,,,,,,,,,,,,,,,,,,,,,,,,,,,,,,,,,,,,,,,,,,,,,,,,,,,,,,,,,,,,,,,,
,,,,6,2.7963,,,,,,190,microwave,strawberry,,90449,001,2022-04-25_23h05.11.898,SPAMnetsValid,2021.1.4,Win32,59.79788315,,,,,,,,,,,,,6,2.7963,0,60,60,90,1,,,,,,,,,,,,,,,,,,,,,,,,,,,,,,,,,,,,,,,,,,,,,,,,,,,,,,,,,,,,,,,,,,,,,,
,,,,6,1.804,,,,,,180,tree,yogurt,,90449,001,2022-04-25_23h05.11.898,SPAMnetsValid,2021.1.4,Win32,59.79788315,,,,,,,,,,,,,6,1.804,0,61,61,68,1,,,,,,,,,,,,,,,,,,,,,,,,,,,,,,,,,,,,,,,,,,,,,,,,,,,,,,,,,,,,,,,,,,,,,,
,,,,5,7.7943,,,,,,183,cake,rose,,90449,001,2022-04-25_23h05.11.898,SPAMnetsValid,2021.1.4,Win32,59.79788315,,,,,,,,,,,,,5,7.7943,0,62,62,19,1,,,,,,,,,,,,,,,,,,,,,,,,,,,,,,,,,,,,,,,,,,,,,,,,,,,,,,,,,,,,,,,,,,,,,,
,,,,6,8.2223,,,,,,175,melon,onion,,90449,001,2022-04-25_23h05.11.898,SPAMnetsValid,2021.1.4,Win32,59.79788315,,,,,,,,,,,,,6,8.2223,0,63,63,41,1,,,,,,,,,,,,,,,,,,,,,,,,,,,,,,,,,,,,,,,,,,,,,,,,,,,,,,,,,,,,,,,,,,,,,,
,,,,8,10.4208,,,,,,118,chocolate,oven,,90449,001,2022-04-25_23h05.11.898,SPAMnetsValid,2021.1.4,Win32,59.79788315,,,,,,,,,,,,,8,10.4208,0,64,64,10,1,,,,,,,,,,,,,,,,,,,,,,,,,,,,,,,,,,,,,,,,,,,,,,,,,,,,,,,,,,,,,,,,,,,,,,
,,,,8,13.1534,,,,,,96,oven,strawberry,,90449,001,2022-04-25_23h05.11.898,SPAMnetsValid,2021.1.4,Win32,59.79788315,,,,,,,,,,,,,8,13.1534,0,65,65,67,1,,,,,,,,,,,,,,,,,,,,,,,,,,,,,,,,,,,,,,,,,,,,,,,,,,,,,,,,,,,,,,,,,,,,,,
,,,,7,1.4412,,,,,,107,rose,tomato,,90449,001,2022-04-25_23h05.11.898,SPAMnetsValid,2021.1.4,Win32,59.79788315,,,,,,,,,,,,,7,1.4412,0,66,66,26,1,,,,,,,,,,,,,,,,,,,,,,,,,,,,,,,,,,,,,,,,,,,,,,,,,,,,,,,,,,,,,,,,,,,,,,
,,,,9,2.0377,,,,,,142,garden,tree,,90449,001,2022-04-25_23h05.11.898,SPAMnetsValid,2021.1.4,Win32,59.79788315,,,,,,,,,,,,,9,2.0377,0,67,67,22,1,,,,,,,,,,,,,,,,,,,,,,,,,,,,,,,,,,,,,,,,,,,,,,,,,,,,,,,,,,,,,,,,,,,,,,
,,,,4,1.9761,,,,,,187,cactus,microwave,,90449,001,2022-04-25_23h05.11.898,SPAMnetsValid,2021.1.4,Win32,59.79788315,,,,,,,,,,,,,4,1.9761,0,68,68,71,1,,,,,,,,,,,,,,,,,,,,,,,,,,,,,,,,,,,,,,,,,,,,,,,,,,,,,,,,,,,,,,,,,,,,,,
,,,,5,3.0295,,,,,,171,cake,tomato,,90449,001,2022-04-25_23h05.11.898,SPAMnetsValid,2021.1.4,Win32,59.79788315,,,,,,,,,,,,,5,3.0295,0,69,69,88,1,,,,,,,,,,,,,,,,,,,,,,,,,,,,,,,,,,,,,,,,,,,,,,,,,,,,,,,,,,,,,,,,,,,,,,
,,,,7,3.3729,,,,,,184,oven,pretzel,,90449,001,2022-04-25_23h05.11.898,SPAMnetsValid,2021.1.4,Win32,59.79788315,,,,,,,,,,,,,7,3.3729,0,70,70,42,1,,,,,,,,,,,,,,,,,,,,,,,,,,,,,,,,,,,,,,,,,,,,,,,,,,,,,,,,,,,,,,,,,,,,,,
,,,,6,1.8726,,,,,,176,cactus,tomato,,90449,001,2022-04-25_23h05.11.898,SPAMnetsValid,2021.1.4,Win32,59.79788315,,,,,,,,,,,,,6,1.8726,0,71,71,9,1,,,,,,,,,,,,,,,,,,,,,,,,,,,,,,,,,,,,,,,,,,,,,,,,,,,,,,,,,,,,,,,,,,,,,,
,,,,8,2.3375,,,,,,186,kitchen,yogurt,,90449,001,2022-04-25_23h05.11.898,SPAMnetsValid,2021.1.4,Win32,59.79788315,,,,,,,,,,,,,8,2.3375,0,72,72,48,1,,,,,,,,,,,,,,,,,,,,,,,,,,,,,,,,,,,,,,,,,,,,,,,,,,,,,,,,,,,,,,,,,,,,,,
,,,,4,1.9623,,,,,,156,melon,rose,,90449,001,2022-04-25_23h05.11.898,SPAMnetsValid,2021.1.4,Win32,59.79788315,,,,,,,,,,,,,4,1.9623,0,73,73,31,1,,,,,,,,,,,,,,,,,,,,,,,,,,,,,,,,,,,,,,,,,,,,,,,,,,,,,,,,,,,,,,,,,,,,,,
,,,,5,2.286,,,,,,145,cactus,yogurt,,90449,001,2022-04-25_23h05.11.898,SPAMnetsValid,2021.1.4,Win32,59.79788315,,,,,,,,,,,,,5,2.286,0,74,74,15,1,,,,,,,,,,,,,,,,,,,,,,,,,,,,,,,,,,,,,,,,,,,,,,,,,,,,,,,,,,,,,,,,,,,,,,
,,,,4,3.4969,,,,,,101,cactus,kitchen,,90449,001,2022-04-25_23h05.11.898,SPAMnetsValid,2021.1.4,Win32,59.79788315,,,,,,,,,,,,,4,3.4969,0,75,75,54,1,,,,,,,,,,,,,,,,,,,,,,,,,,,,,,,,,,,,,,,,,,,,,,,,,,,,,,,,,,,,,,,,,,,,,,
,,,,6,2.0032,,,,,,164,cookie,garden,,90449,001,2022-04-25_23h05.11.898,SPAMnetsValid,2021.1.4,Win32,59.79788315,,,,,,,,,,,,,6,2.0032,0,76,76,59,1,,,,,,,,,,,,,,,,,,,,,,,,,,,,,,,,,,,,,,,,,,,,,,,,,,,,,,,,,,,,,,,,,,,,,,
,,,,4,1.5384,,,,,,143,pretzel,rose,,90449,001,2022-04-25_23h05.11.898,SPAMnetsValid,2021.1.4,Win32,59.79788315,,,,,,,,,,,,,4,1.5384,0,77,77,55,1,,,,,,,,,,,,,,,,,,,,,,,,,,,,,,,,,,,,,,,,,,,,,,,,,,,,,,,,,,,,,,,,,,,,,,
,,,,9,1.3363,,,,,,177,chocolate,strawberry,,90449,001,2022-04-25_23h05.11.898,SPAMnetsValid,2021.1.4,Win32,59.79788315,,,,,,,,,,,,,9,1.3363,0,78,78,53,1,,,,,,,,,,,,,,,,,,,,,,,,,,,,,,,,,,,,,,,,,,,,,,,,,,,,,,,,,,,,,,,,,,,,,,
,,,,6,4.3594,,,,,,141,melon,tomato,,90449,001,2022-04-25_23h05.11.898,SPAMnetsValid,2021.1.4,Win32,59.79788315,,,,,,,,,,,,,6,4.3594,0,79,79,70,1,,,,,,,,,,,,,,,,,,,,,,,,,,,,,,,,,,,,,,,,,,,,,,,,,,,,,,,,,,,,,,,,,,,,,,
,,,,6,4.1551,,,,,,178,cactus,carrot,,90449,001,2022-04-25_23h05.11.898,SPAMnetsValid,2021.1.4,Win32,59.79788315,,,,,,,,,,,,,6,4.1551,0,80,80,75,1,,,,,,,,,,,,,,,,,,,,,,,,,,,,,,,,,,,,,,,,,,,,,,,,,,,,,,,,,,,,,,,,,,,,,,
,,,,5,10.7717,,,,,,189,onion,tree,,90449,001,2022-04-25_23h05.11.898,SPAMnetsValid,2021.1.4,Win32,59.79788315,,,,,,,,,,,,,5,10.7717,0,81,81,62,1,,,,,,,,,,,,,,,,,,,,,,,,,,,,,,,,,,,,,,,,,,,,,,,,,,,,,,,,,,,,,,,,,,,,,,
,,,,5,2.3699,,,,,,117,melon,strawberry,,90449,001,2022-04-25_23h05.11.898,SPAMnetsValid,2021.1.4,Win32,59.79788315,,,,,,,,,,,,,5,2.3699,0,82,82,11,1,,,,,,,,,,,,,,,,,,,,,,,,,,,,,,,,,,,,,,,,,,,,,,,,,,,,,,,,,,,,,,,,,,,,,,
,,,,9,1.577,,,,,,160,cookie,kitchen,,90449,001,2022-04-25_23h05.11.898,SPAMnetsValid,2021.1.4,Win32,59.79788315,,,,,,,,,,,,,9,1.577,0,83,83,65,1,,,,,,,,,,,,,,,,,,,,,,,,,,,,,,,,,,,,,,,,,,,,,,,,,,,,,,,,,,,,,,,,,,,,,,
,,,,6,4.1292,,,,,,148,flower,melon,,90449,001,2022-04-25_23h05.11.898,SPAMnetsValid,2021.1.4,Win32,59.79788315,,,,,,,,,,,,,6,4.1292,0,84,84,23,1,,,,,,,,,,,,,,,,,,,,,,,,,,,,,,,,,,,,,,,,,,,,,,,,,,,,,,,,,,,,,,,,,,,,,,
,,,,5,8.1545,,,,,,179,broom,oven,,90449,001,2022-04-25_23h05.11.898,SPAMnetsValid,2021.1.4,Win32,59.79788315,,,,,,,,,,,,,5,8.1545,0,85,85,45,1,,,,,,,,,,,,,,,,,,,,,,,,,,,,,,,,,,,,,,,,,,,,,,,,,,,,,,,,,,,,,,,,,,,,,,
,,,,5,6.9717,,,,,,108,carrot,chocolate,,90449,001,2022-04-25_23h05.11.898,SPAMnetsValid,2021.1.4,Win32,59.79788315,,,,,,,,,,,,,5,6.9717,0,86,86,5,1,,,,,,,,,,,,,,,,,,,,,,,,,,,,,,,,,,,,,,,,,,,,,,,,,,,,,,,,,,,,,,,,,,,,,,
,,,,5,3.9794,,,,,,105,cactus,oven,,90449,001,2022-04-25_23h05.11.898,SPAMnetsValid,2021.1.4,Win32,59.79788315,,,,,,,,,,,,,5,3.9794,0,87,87,13,1,,,,,,,,,,,,,,,,,,,,,,,,,,,,,,,,,,,,,,,,,,,,,,,,,,,,,,,,,,,,,,,,,,,,,,
,,,,9,5.3777,,,,,,120,microwave,oven,,90449,001,2022-04-25_23h05.11.898,SPAMnetsValid,2021.1.4,Win32,59.79788315,,,,,,,,,,,,,9,5.3777,0,88,88,14,1,,,,,,,,,,,,,,,,,,,,,,,,,,,,,,,,,,,,,,,,,,,,,,,,,,,,,,,,,,,,,,,,,,,,,,
,,,,6,2.3873,,,,,,185,cactus,rose,,90449,001,2022-04-25_23h05.11.898,SPAMnetsValid,2021.1.4,Win32,59.79788315,,,,,,,,,,,,,6,2.3873,0,89,89,43,1,,,,,,,,,,,,,,,,,,,,,,,,,,,,,,,,,,,,,,,,,,,,,,,,,,,,,,,,,,,,,,,,,,,,,,
,,,,6,2.2872,,,,,,102,chocolate,refrigerator,,90449,001,2022-04-25_23h05.11.898,SPAMnetsValid,2021.1.4,Win32,59.79788315,,,,,,,,,,,,,6,2.2872,0,90,90,76,1,,,,,,,,,,,,,,,,,,,,,,,,,,,,,,,,,,,,,,,,,,,,,,,,,,,,,,,,,,,,,,,,,,,,,,
,,,,9,1.7802,,,,,,173,kitchen,tomato,,90449,001,2022-04-25_23h05.11.898,SPAMnetsValid,2021.1.4,Win32,59.79788315,,,,,,,,,,,,,9,1.7802,0,91,91,1,1,,,,,,,,,,,,,,,,,,,,,,,,,,,,,,,,,,,,,,,,,,,,,,,,,,,,,,,,,,,,,,,,,,,,,,
,,,,3,2.9954,,,,,,103,pretzel,tomato,,90449,001,2022-04-25_23h05.11.898,SPAMnetsValid,2021.1.4,Win32,59.79788315,,,,,,,,,,,,,3,2.9954,0,92,92,79,1,,,,,,,,,,,,,,,,,,,,,,,,,,,,,,,,,,,,,,,,,,,,,,,,,,,,,,,,,,,,,,,,,,,,,,
,,,,2,2.1922,,,,,,109,broom,strawberry,,90449,001,2022-04-25_23h05.11.898,SPAMnetsValid,2021.1.4,Win32,59.79788315,,,,,,,,,,,,,2,2.1922,0,93,93,4,1,,,,,,,,,,,,,,,,,,,,,,,,,,,,,,,,,,,,,,,,,,,,,,,,,,,,,,,,,,,,,,,,,,,,,,
,,,,7,2.6455,,,,,,172,kitchen,melon,,90449,001,2022-04-25_23h05.11.898,SPAMnetsValid,2021.1.4,Win32,59.79788315,,,,,,,,,,,,,7,2.6455,0,94,94,77,1,,,,,,,,,,,,,,,,,,,,,,,,,,,,,,,,,,,,,,,,,,,,,,,,,,,,,,,,,,,,,,,,,,,,,,
,,,,4,3.6042,,,,,,165,onion,rose,,90449,001,2022-04-25_23h05.11.898,SPAMnetsValid,2021.1.4,Win32,59.79788315,,,,,,,,,,,,,4,3.6042,0,95,95,40,1,,,,,,,,,,,,,,,,,,,,,,,,,,,,,,,,,,,,,,,,,,,,,,,,,,,,,,,,,,,,,,,,,,,,,,
,,,,7,3.021,,,,,,170,cookie,microwave,,90449,001,2022-04-25_23h05.11.898,SPAMnetsValid,2021.1.4,Win32,59.79788315,,,,,,,,,,,,,7,3.021,0,96,96,92,1,,,,,,,,,,,,,,,,,,,,,,,,,,,,,,,,,,,,,,,,,,,,,,,,,,,,,,,,,,,,,,,,,,,,,,
,,,,,,,,,,,,,,,90449,001,2022-04-25_23h05.11.898,SPAMnetsValid,2021.1.4,Win32,59.79788315,,,,,,,,,,,,,,,,,,,,0,0,0,0,1,,,,,,,,,,,,,,,,,,,,,,,,,,,,,,,,,,,,,,,,,,,,,,,,,,,,,,,,,,,,,,,,,
,,,,,,,,,,,,,,,90449,001,2022-04-25_23h05.11.898,SPAMnetsValid,2021.1.4,Win32,59.79788315,,,,,,0,1,1,1,1,0,1,,,,,,,,,,,,,,,,,,,,,,,,,,,,,,,,,,,,,,,,,,,,,,,,,,,,,,,,,,,,,,,,,,,,,,,,,,,,,
,,,,,,,,,,,,,,,90449,001,2022-04-25_23h05.11.898,SPAMnetsValid,2021.1.4,Win32,59.79788315,,,,,,,,,,,,,,,,,,,,,,,,,1,8.0863,0,0,0,0,1,rancor,forbearance,ridicule,malice,bravery,3,,,,,,,,,,,,,,,,,,,,,,,,,,,,,,,,,,,,,,,,,,,,,,,,,,,,
,,,,,,,,,,,,,,,90449,001,2022-04-25_23h05.11.898,SPAMnetsValid,2021.1.4,Win32,59.79788315,,,,,,,,,,,,,,,,,,,,,,,,,4,5.4585,0,1,1,1,1,raucous,empty,quiet,smooth,harsh,4,,,,,,,,,,,,,,,,,,,,,,,,,,,,,,,,,,,,,,,,,,,,,,,,,,,,
,,,,,,,,,,,,,,,90449,001,2022-04-25_23h05.11.898,SPAMnetsValid,2021.1.4,Win32,59.79788315,,,,,,,,,,,,,,,,,,,,,,,,,3,8.1481,0,2,2,2,1,gargoyle,oil,medicine,carved waterspout,ugly building,3,,,,,,,,,,,,,,,,,,,,,,,,,,,,,,,,,,,,,,,,,,,,,,,,,,,,
,,,,,,,,,,,,,,,90449,001,2022-04-25_23h05.11.898,SPAMnetsValid,2021.1.4,Win32,59.79788315,,,,,,,,,,,,,,,,,,,,,,,,,2,8.4957,0,3,3,3,1,recrudesce,purify,renew activity,lack refinement,crush,2,,,,,,,,,,,,,,,,,,,,,,,,,,,,,,,,,,,,,,,,,,,,,,,,,,,,
,,,,,,,,,,,,,,,90449,001,2022-04-25_23h05.11.898,SPAMnetsValid,2021.1.4,Win32,59.79788315,,,,,,,,,,,,,,,,,,,,,,,,,4,4.6334,0,4,4,4,1,specious,"plausible, but not genuine",noteworthy,class or variety,roomy,1,,,,,,,,,,,,,,,,,,,,,,,,,,,,,,,,,,,,,,,,,,,,,,,,,,,,
,,,,,,,,,,,,,,,90449,001,2022-04-25_23h05.11.898,SPAMnetsValid,2021.1.4,Win32,59.79788315,,,,,,,,,,,,,,,,,,,,,,,,,3,7.0198,0,5,5,5,1,bauble,bubble,showy plaything,idle talk,confusion,2,,,,,,,,,,,,,,,,,,,,,,,,,,,,,,,,,,,,,,,,,,,,,,,,,,,,
,,,,,,,,,,,,,,,90449,001,2022-04-25_23h05.11.898,SPAMnetsValid,2021.1.4,Win32,59.79788315,,,,,,,,,,,,,,,,,,,,,,,,,2,15.0285,0,6,6,6,1,prolific,scarce,producing abundantly,reckless,speaking profanely,2,,,,,,,,,,,,,,,,,,,,,,,,,,,,,,,,,,,,,,,,,,,,,,,,,,,,
,,,,,,,,,,,,,,,90449,001,2022-04-25_23h05.11.898,SPAMnetsValid,2021.1.4,Win32,59.79788315,,,,,,,,,,,,,,,,,,,,,,,,,4,7.6152,0,7,7,7,1,opulent,party,wealthy,happy frame of mind,semiprecious stone,2,,,,,,,,,,,,,,,,,,,,,,,,,,,,,,,,,,,,,,,,,,,,,,,,,,,,
,,,,,,,,,,,,,,,90449,001,2022-04-25_23h05.11.898,SPAMnetsValid,2021.1.4,Win32,59.79788315,,,,,,,,,,,,,,,,,,,,,,,,,3,4.0531,0,8,8,8,1,coercion,conspiracy,strategy,restraint,attraction,3,,,,,,,,,,,,,,,,,,,,,,,,,,,,,,,,,,,,,,,,,,,,,,,,,,,,
,,,,,,,,,,,,,,,90449,001,2022-04-25_23h05.11.898,SPAMnetsValid,2021.1.4,Win32,59.79788315,,,,,,,,,,,,,,,,,,,,,,,,,2,6.1157,0,9,9,9,1,hiatus,animal,calamity,dread,gap,4,,,,,,,,,,,,,,,,,,,,,,,,,,,,,,,,,,,,,,,,,,,,,,,,,,,,
,,,,,,,,,,,,,,,90449,001,2022-04-25_23h05.11.898,SPAMnetsValid,2021.1.4,Win32,59.79788315,,,,,,,,,,,,,,,,,,,,,,,,,1,6.3556,0,10,10,10,1,germane,microbe,contagious,relevant,different,3,,,,,,,,,,,,,,,,,,,,,,,,,,,,,,,,,,,,,,,,,,,,,,,,,,,,
,,,,,,,,,,,,,,,90449,001,2022-04-25_23h05.11.898,SPAMnetsValid,2021.1.4,Win32,59.79788315,,,,,,,,,,,,,,,,,,,,,,,,,3,5.0397,0,11,11,11,1,perfunctory,fundamental,formal,superficial,careful,3,,,,,,,,,,,,,,,,,,,,,,,,,,,,,,,,,,,,,,,,,,,,,,,,,,,,
,,,,,,,,,,,,,,,90449,001,2022-04-25_23h05.11.898,SPAMnetsValid,2021.1.4,Win32,59.79788315,,,,,,,,,,,,,,,,,,,,,,,,,3,3.5428,0,12,12,12,1,diverge,reveal,chant,distract the attention of,differ or turn off from,4,,,,,,,,,,,,,,,,,,,,,,,,,,,,,,,,,,,,,,,,,,,,,,,,,,,,
,,,,,,,,,,,,,,,90449,001,2022-04-25_23h05.11.898,SPAMnetsValid,2021.1.4,Win32,59.79788315,,,,,,,,,,,,,,,,,,,,,,,,,4,4.9629,0,13,13,13,1,evoke,take away,anger,connect,bring out,4,,,,,,,,,,,,,,,,,,,,,,,,,,,,,,,,,,,,,,,,,,,,,,,,,,,,
,,,,,,,,,,,,,,,90449,001,2022-04-25_23h05.11.898,SPAMnetsValid,2021.1.4,Win32,59.79788315,,,,,,,,,,,,,,,,,,,,,,,,,4,4.5596,0,14,14,14,1,pertinent,relevant,lying next to,necessary,bold,1,,,,,,,,,,,,,,,,,,,,,,,,,,,,,,,,,,,,,,,,,,,,,,,,,,,,
,,,,,,,,,,,,,,,90449,001,2022-04-25_23h05.11.898,SPAMnetsValid,2021.1.4,Win32,59.79788315,,,,,,,,,,,,,,,,,,,,,,,,,2,3.8071,0,15,15,15,1,holocaust,entirety,destruction,saintly,price,2,,,,,,,,,,,,,,,,,,,,,,,,,,,,,,,,,,,,,,,,,,,,,,,,,,,,
,,,,,,,,,,,,,,,90449,001,2022-04-25_23h05.11.898,SPAMnetsValid,2021.1.4,Win32,59.79788315,,,,,,,,,,,,,,,,,,,,,,,,,3,5.2246,0,16,16,16,1,piquant,mellow,fish,pungent,cloth,3,,,,,,,,,,,,,,,,,,,,,,,,,,,,,,,,,,,,,,,,,,,,,,,,,,,,
,,,,,,,,,,,,,,,90449,001,2022-04-25_23h05.11.898,SPAMnetsValid,2021.1.4,Win32,59.79788315,,,,,,,,,,,,,,,,,,,,,,,,,1,4.3298,0,17,17,17,1,firmament,foundation,heavens,strong,glue,2,,,,,,,,,,,,,,,,,,,,,,,,,,,,,,,,,,,,,,,,,,,,,,,,,,,,
,,,,,,,,,,,,,,,90449,001,2022-04-25_23h05.11.898,SPAMnetsValid,2021.1.4,Win32,59.79788315,,,,,,,,,,,,,,,,,,,,,,,,,,,,,,,,,,,,,,4,5.4512,0,0,0,0,1,marketable,partisan,jocular,marriageable,salable,essential,4,,,,,,,,,,,,,,,,,,,,,,,,,,,,,,,,,,,,,,
,,,,,,,,,,,,,,,90449,001,2022-04-25_23h05.11.898,SPAMnetsValid,2021.1.4,Win32,59.79788315,,,,,,,,,,,,,,,,,,,,,,,,,,,,,,,,,,,,,,4,3.0371,0,1,1,1,1,cottontail,squirrel,poplar,boa,marshy plant,rabbit,5,,,,,,,,,,,,,,,,,,,,,,,,,,,,,,,,,,,,,,
,,,,,,,,,,,,,,,90449,001,2022-04-25_23h05.11.898,SPAMnetsValid,2021.1.4,Win32,59.79788315,,,,,,,,,,,,,,,,,,,,,,,,,,,,,,,,,,,,,,1,3.1731,0,2,2,2,1,boggy,afraid,false,marshy,dense,black,3,,,,,,,,,,,,,,,,,,,,,,,,,,,,,,,,,,,,,,
,,,,,,,,,,,,,,,90449,001,2022-04-25_23h05.11.898,SPAMnetsValid,2021.1.4,Win32,59.79788315,,,,,,,,,,,,,,,,,,,,,,,,,,,,,,,,,,,,,,3,8.4552,0,3,3,3,1,gruesomeness,blackness,falseness,vindictiveness,drunkenness,ghastliness,5,,,,,,,,,,,,,,,,,,,,,,,,,,,,,,,,,,,,,,
,,,,,,,,,,,,,,,90449,001,2022-04-25_23h05.11.898,SPAMnetsValid,2021.1.4,Win32,59.79788315,,,,,,,,,,,,,,,,,,,,,,,,,,,,,,,,,,,,,,3,6.1248,0,4,4,4,1,loathing,diffidence,laziness,abhorrence,cleverness,comfort,3,,,,,,,,,,,,,,,,,,,,,,,,,,,,,,,,,,,,,,
,,,,,,,,,,,,,,,90449,001,2022-04-25_23h05.11.898,SPAMnetsValid,2021.1.4,Win32,59.79788315,,,,,,,,,,,,,,,,,,,,,,,,,,,,,,,,,,,,,,3,2.3231,0,5,5,5,1,bantam,fowl,ridicule,cripple,vegetable,ensign,1,,,,,,,,,,,,,,,,,,,,,,,,,,,,,,,,,,,,,,
,,,,,,,,,,,,,,,90449,001,2022-04-25_23h05.11.898,SPAMnetsValid,2021.1.4,Win32,59.79788315,,,,,,,,,,,,,,,,,,,,,,,,,,,,,,,,,,,,,,1,2.2082,0,6,6,6,1,evoke,wake up,surrender,reconnoiter,transcend,call forth,5,,,,,,,,,,,,,,,,,,,,,,,,,,,,,,,,,,,,,,
,,,,,,,,,,,,,,,90449,001,2022-04-25_23h05.11.898,SPAMnetsValid,2021.1.4,Win32,59.79788315,,,,,,,,,,,,,,,,,,,,,,,,,,,,,,,,,,,,,,3,7.2274,0,7,7,7,1,unobtrusive,unintelligent,epileptic,illogical,lineal,modest,5,,,,,,,,,,,,,,,,,,,,,,,,,,,,,,,,,,,,,,
,,,,,,,,,,,,,,,90449,001,2022-04-25_23h05.11.898,SPAMnetsValid,2021.1.4,Win32,59.79788315,,,,,,,,,,,,,,,,,,,,,,,,,,,,,,,,,,,,,,4,2.7414,0,8,8,8,1,terrain,ice cream,final test,tractor,area of ground,weight,4,,,,,,,,,,,,,,,,,,,,,,,,,,,,,,,,,,,,,,
,,,,,,,,,,,,,,,90449,001,2022-04-25_23h05.11.898,SPAMnetsValid,2021.1.4,Win32,59.79788315,,,,,,,,,,,,,,,,,,,,,,,,,,,,,,,,,,,,,,2,5.7074,0,9,9,9,1,capriciousness,stubbornness,courage,whimsicality,amazement,greediness,3,,,,,,,,,,,,,,,,,,,,,,,,,,,,,,,,,,,,,,
,,,,,,,,,,,,,,,90449,001,2022-04-25_23h05.11.898,SPAMnetsValid,2021.1.4,Win32,59.79788315,,,,,,,,,,,,,,,,,,,,,,,,,,,,,,,,,,,,,,4,4.6067,0,10,10,10,1,maelstrom,slander,whirlpool,enmity,armor,majolica,2,,,,,,,,,,,,,,,,,,,,,,,,,,,,,,,,,,,,,,
,,,,,,,,,,,,,,,90449,001,2022-04-25_23h05.11.898,SPAMnetsValid,2021.1.4,Win32,59.79788315,,,,,,,,,,,,,,,,,,,,,,,,,,,,,,,,,,,,,,5,4.3636,0,11,11,11,1,tentative,critical,conclusive,authentic,provisional,apprehensive,4,,,,,,,,,,,,,,,,,,,,,,,,,,,,,,,,,,,,,,
,,,,,,,,,,,,,,,90449,001,2022-04-25_23h05.11.898,SPAMnetsValid,2021.1.4,Win32,59.79788315,,,,,,,,,,,,,,,,,,,,,,,,,,,,,,,,,,,,,,4,2.1007,0,12,12,12,1,placate,rehabilitate,plagiarize,depredate,apprise,conciliate,5,,,,,,,,,,,,,,,,,,,,,,,,,,,,,,,,,,,,,,
,,,,,,,,,,,,,,,90449,001,2022-04-25_23h05.11.898,SPAMnetsValid,2021.1.4,Win32,59.79788315,,,,,,,,,,,,,,,,,,,,,,,,,,,,,,,,,,,,,,4,6.7917,0,13,13,13,1,surcease,enlightenment,cessation,inattention,censor,substitution,2,,,,,,,,,,,,,,,,,,,,,,,,,,,,,,,,,,,,,,
,,,,,,,,,,,,,,,90449,001,2022-04-25_23h05.11.898,SPAMnetsValid,2021.1.4,Win32,59.79788315,,,,,,,,,,,,,,,,,,,,,,,,,,,,,,,,,,,,,,3,3.5581,0,14,14,14,1,apathetic,wandering,impassive,hateful,prophetic,overflowing,2,,,,,,,,,,,,,,,,,,,,,,,,,,,,,,,,,,,,,,
,,,,,,,,,,,,,,,90449,001,2022-04-25_23h05.11.898,SPAMnetsValid,2021.1.4,Win32,59.79788315,,,,,,,,,,,,,,,,,,,,,,,,,,,,,,,,,,,,,,2,5.5962,0,15,15,15,1,paternoster,paternalism,patricide,malediction,benediction,prayer,5,,,,,,,,,,,,,,,,,,,,,,,,,,,,,,,,,,,,,,
,,,,,,,,,,,,,,,90449,001,2022-04-25_23h05.11.898,SPAMnetsValid,2021.1.4,Win32,59.79788315,,,,,,,,,,,,,,,,,,,,,,,,,,,,,,,,,,,,,,4,2.6513,0,16,16,16,1,opalescence,opulence,senescence,bankruptcy,iridescence,assiduity,4,,,,,,,,,,,,,,,,,,,,,,,,,,,,,,,,,,,,,,
,,,,,,,,,,,,,,,90449,001,2022-04-25_23h05.11.898,SPAMnetsValid,2021.1.4,Win32,59.79788315,,,,,,,,,,,,,,,,,,,,,,,,,,,,,,,,,,,,,,2,6.0668,0,17,17,17,1,lush,stupid,luxurious,hazy,putrid,languishing,2,,,,,,,,,,,,,,,,,,,,,,,,,,,,,,,,,,,,,,
,,,,,,,,,,,,,,,90449,001,2022-04-25_23h05.11.898,SPAMnetsValid,2021.1.4,Win32,59.79788315,,,,,,,,,,,,,,,,,,,,,,,,,,,,,,,,,,,,,,5,3.7628,0,18,18,18,1,curtailment,expenditure,abandonment,abridgment,improvement,forgery,3,,,,,,,,,,,,,,,,,,,,,,,,,,,,,,,,,,,,,,
,,,,,,,,,,,,,,,90449,001,2022-04-25_23h05.11.898,SPAMnetsValid,2021.1.4,Win32,59.79788315,,,,,,,,,,,,,,,,,,,,,,,,,,,,,,,,,,,,,,2,8.7074,0,19,19,19,1,perversity,adversity,perviousness,travesty,waywardness,gentility,4,,,,,,,,,,,,,,,,,,,,,,,,,,,,,,,,,,,,,,
,,,,,,,,,,,,,,,90449,001,2022-04-25_23h05.11.898,SPAMnetsValid,2021.1.4,Win32,59.79788315,,,,,,,,,,,,,,,,,,,,,,,,,,,,,,,,,,,,,,5,8.1749,0,20,20,20,1,calumnious,complimentary,analogous,slanderous,tempestuous,magnanimous,3,,,,,,,,,,,,,,,,,,,,,,,,,,,,,,,,,,,,,,
,,,,,,,,,,,,,,,90449,001,2022-04-25_23h05.11.898,SPAMnetsValid,2021.1.4,Win32,59.79788315,,,,,,,,,,,,,,,,,,,,,,,,,,,,,,,,,,,,,,3,7.5094,0,21,21,21,1,illiberality,bigotry,imbecility,illegibility,cautery,immaturity,1,,,,,,,,,,,,,,,,,,,,,,,,,,,,,,,,,,,,,,
,,,,,,,,,,,,,,,90449,001,2022-04-25_23h05.11.898,SPAMnetsValid,2021.1.4,Win32,59.79788315,,,,,,,,,,,,,,,,,,,,,,,,,,,,,,,,,,,,,,4,3.0417,0,22,22,22,1,clabber,rejoice,gossip,curdle,crow,hobble,3,,,,,,,,,,,,,,,,,,,,,,,,,,,,,,,,,,,,,,
,,,,,,,,,,,,,,,90449,001,2022-04-25_23h05.11.898,SPAMnetsValid,2021.1.4,Win32,59.79788315,,,,,,,,,,,,,,,,,,,,,,,,,,,,,,,,,,,,,,3,8.099,0,23,23,23,1,sedulousness,diligence,credulousness,seduction,perilousness,frankness,1,,,,,,,,,,,,,,,,,,,,,,,,,,,,,,,,,,,,,,
,,,,,,,,,,,,,,,90449,001,2022-04-25_23h05.11.898,SPAMnetsValid,2021.1.4,Win32,59.79788315,,,,,,,,,,,,,,,,,,,,,,,,,,,,,,,,,,,,,,,,,,,,,,,,,,,,romantic,candle,0,0,0,0,1,,,,,,,,,,,,,,,,,,,,,,,,,,,,,,,
,,,,,,,,,,,,,,,90449,001,2022-04-25_23h05.11.898,SPAMnetsValid,2021.1.4,Win32,59.79788315,,,,,,,,,,,,,,,,,,,,,,,,,,,,,,,,,,,,,,,,,,,,,,,,,,,,enlightment,candle,1,0,1,0,1,,,,,,,,,,,,,,,,,,,,,,,,,,,,,,,
,,,,,,,,,,,,,,,90449,001,2022-04-25_23h05.11.898,SPAMnetsValid,2021.1.4,Win32,59.79788315,,,,,,,,,,,,,,,,,,,,,,,,,,,,,,,,,,,,,,,,,,,,,,,,,,,,burning,candle,2,0,2,0,1,,,,,,,,,,,,,,,,,,,,,,,,,,,,,,,
,,,,,,,,,,,,,,,90449,001,2022-04-25_23h05.11.898,SPAMnetsValid,2021.1.4,Win32,59.79788315,,,,,,,,,,,,,,,,,,,,,,,,,,,,,,,,,,,,,,,,,,,,,,,,,,,,cooking,candle,3,0,3,0,1,,,,,,,,,,,,,,,,,,,,,,,,,,,,,,,
,,,,,,,,,,,,,,,90449,001,2022-04-25_23h05.11.898,SPAMnetsValid,2021.1.4,Win32,59.79788315,,,,,,,,,,,,,,,,,,,,,,,,,,,,,,,,,,,,,,,,,,,,,,,,,,,,warmth,candle,4,0,4,0,1,,,,,,,,,,,,,,,,,,,,,,,,,,,,,,,
,,,,,,,,,,,,,,,90449,001,2022-04-25_23h05.11.898,SPAMnetsValid,2021.1.4,Win32,59.79788315,,,,,,,,,,,,,,,,,,,,,,,,,,,,,,,,,,,,,,,,,,,,,,,,,,,,smelling,candle,5,0,5,0,1,,,,,,,,,,,,,,,,,,,,,,,,,,,,,,,
,,,,,,,,,,,,,,,90449,001,2022-04-25_23h05.11.898,SPAMnetsValid,2021.1.4,Win32,59.79788315,,,,,,,,,,,,,,,,,,,,,,,,,,,,,,,,,,,,,,,,,,,,,,,,,,,,gift,candle,6,0,6,0,1,,,,,,,,,,,,,,,,,,,,,,,,,,,,,,,
,,,,,,,,,,,,,,,90449,001,2022-04-25_23h05.11.898,SPAMnetsValid,2021.1.4,Win32,59.79788315,,,,,,,,,,,,,,,,,,,,,,,,,,,,,,,,,,,,,,,,,,,,,,,,,,,,paint,candle,7,0,7,0,1,,,,,,,,,,,,,,,,,,,,,,,,,,,,,,,
,,,,,,,,,,,,,,,90449,001,2022-04-25_23h05.11.898,SPAMnetsValid,2021.1.4,Win32,59.79788315,,,,,,,,,,,,,,,,,,,,,,,,,,,,,,,,,,,,,,,,,,,,,,,,,,,,light,candle,8,0,8,0,1,,,,,,,,,,,,,,,,,,,,,,,,,,,,,,,
,,,,,,,,,,,,,,,90449,001,2022-04-25_23h05.11.898,SPAMnetsValid,2021.1.4,Win32,59.79788315,,,,,,,,,,,,,,,,,,,,,,,,,,,,,,,,,,,,,,,,,,,,,,,,,,,,,,,,,,,0,0,0,1,1,candle,,,,,,,,,,,,,,,,,,,,,,,,,
,,,,,,,,,,,,,,,90449,001,2022-04-25_23h05.11.898,SPAMnetsValid,2021.1.4,Win32,59.79788315,,,,,,,,,,,,,,,,,,,,,,,,,,,,,,,,,,,,,,,,,,,,,,,,,,,,wash,bucket,0,0,0,0,1,,,,,,,,,,,,,,,,,,,,,,,,,,,,,,,
,,,,,,,,,,,,,,,90449,001,2022-04-25_23h05.11.898,SPAMnetsValid,2021.1.4,Win32,59.79788315,,,,,,,,,,,,,,,,,,,,,,,,,,,,,,,,,,,,,,,,,,,,,,,,,,,,clean,bucket,1,0,1,0,1,,,,,,,,,,,,,,,,,,,,,,,,,,,,,,,
,,,,,,,,,,,,,,,90449,001,2022-04-25_23h05.11.898,SPAMnetsValid,2021.1.4,Win32,59.79788315,,,,,,,,,,,,,,,,,,,,,,,,,,,,,,,,,,,,,,,,,,,,,,,,,,,,move things with it,bucket,2,0,2,0,1,,,,,,,,,,,,,,,,,,,,,,,,,,,,,,,
,,,,,,,,,,,,,,,90449,001,2022-04-25_23h05.11.898,SPAMnetsValid,2021.1.4,Win32,59.79788315,,,,,,,,,,,,,,,,,,,,,,,,,,,,,,,,,,,,,,,,,,,,,,,,,,,,drink,bucket,3,0,3,0,1,,,,,,,,,,,,,,,,,,,,,,,,,,,,,,,
,,,,,,,,,,,,,,,90449,001,2022-04-25_23h05.11.898,SPAMnetsValid,2021.1.4,Win32,59.79788315,,,,,,,,,,,,,,,,,,,,,,,,,,,,,,,,,,,,,,,,,,,,,,,,,,,,sit ,bucket,4,0,4,0,1,,,,,,,,,,,,,,,,,,,,,,,,,,,,,,,
,,,,,,,,,,,,,,,90449,001,2022-04-25_23h05.11.898,SPAMnetsValid,2021.1.4,Win32,59.79788315,,,,,,,,,,,,,,,,,,,,,,,,,,,,,,,,,,,,,,,,,,,,,,,,,,,,decorative,bucket,5,0,5,0,1,,,,,,,,,,,,,,,,,,,,,,,,,,,,,,,
,,,,,,,,,,,,,,,90449,001,2022-04-25_23h05.11.898,SPAMnetsValid,2021.1.4,Win32,59.79788315,,,,,,,,,,,,,,,,,,,,,,,,,,,,,,,,,,,,,,,,,,,,,,,,,,,,build with using cement,bucket,6,0,6,0,1,,,,,,,,,,,,,,,,,,,,,,,,,,,,,,,
,,,,,,,,,,,,,,,90449,001,2022-04-25_23h05.11.898,SPAMnetsValid,2021.1.4,Win32,59.79788315,,,,,,,,,,,,,,,,,,,,,,,,,,,,,,,,,,,,,,,,,,,,,,,,,,,,use it as a toilet,bucket,7,0,7,0,1,,,,,,,,,,,,,,,,,,,,,,,,,,,,,,,
,,,,,,,,,,,,,,,90449,001,2022-04-25_23h05.11.898,SPAMnetsValid,2021.1.4,Win32,59.79788315,,,,,,,,,,,,,,,,,,,,,,,,,,,,,,,,,,,,,,,,,,,,,,,,,,,,,,,,,,,0,1,1,0,1,bucket,,,,,,,,,,,,,,,,,,,,,,,,,
,,,,,,,,,,,,,,,90449,001,2022-04-25_23h05.11.898,SPAMnetsValid,2021.1.4,Win32,59.79788315,,,,,,,,,,,,,,,,,,,,,,,,,,,,,,,,,,,,,,,,,,,,,,,,,,,,sleep,pillow,0,0,0,0,1,,,,,,,,,,,,,,,,,,,,,,,,,,,,,,,
,,,,,,,,,,,,,,,90449,001,2022-04-25_23h05.11.898,SPAMnetsValid,2021.1.4,Win32,59.79788315,,,,,,,,,,,,,,,,,,,,,,,,,,,,,,,,,,,,,,,,,,,,,,,,,,,,sit,pillow,1,0,1,0,1,,,,,,,,,,,,,,,,,,,,,,,,,,,,,,,
,,,,,,,,,,,,,,,90449,001,2022-04-25_23h05.11.898,SPAMnetsValid,2021.1.4,Win32,59.79788315,,,,,,,,,,,,,,,,,,,,,,,,,,,,,,,,,,,,,,,,,,,,,,,,,,,,jump,pillow,2,0,2,0,1,,,,,,,,,,,,,,,,,,,,,,,,,,,,,,,
,,,,,,,,,,,,,,,90449,001,2022-04-25_23h05.11.898,SPAMnetsValid,2021.1.4,Win32,59.79788315,,,,,,,,,,,,,,,,,,,,,,,,,,,,,,,,,,,,,,,,,,,,,,,,,,,,,pillow,3,0,3,0,1,,,,,,,,,,,,,,,,,,,,,,,,,,,,,,,
,,,,,,,,,,,,,,,90449,001,2022-04-25_23h05.11.898,SPAMnetsValid,2021.1.4,Win32,59.79788315,,,,,,,,,,,,,,,,,,,,,,,,,,,,,,,,,,,,,,,,,,,,,,,,,,,,,pillow,4,0,4,0,1,,,,,,,,,,,,,,,,,,,,,,,,,,,,,,,
,,,,,,,,,,,,,,,90449,001,2022-04-25_23h05.11.898,SPAMnetsValid,2021.1.4,Win32,59.79788315,,,,,,,,,,,,,,,,,,,,,,,,,,,,,,,,,,,,,,,,,,,,,,,,,,,,,pillow,5,0,5,0,1,,,,,,,,,,,,,,,,,,,,,,,,,,,,,,,
,,,,,,,,,,,,,,,90449,001,2022-04-25_23h05.11.898,SPAMnetsValid,2021.1.4,Win32,59.79788315,,,,,,,,,,,,,,,,,,,,,,,,,,,,,,,,,,,,,,,,,,,,,,,,,,,,,,,,,,,0,2,2,2,1,pillow,,,,,,,,,,,,,,,,,,,,,,,,,
,,,,,,,,,,,,,,,90449,001,2022-04-25_23h05.11.898,SPAMnetsValid,2021.1.4,Win32,59.79788315,,,,,,,,,,,,,,,,,,,,,,,,,,,,,,,,,,,,,,,,,,,,,,,,,,,,,,,,,,,,,,,,,cat,Animals,0,0,0,0,1,,,,,,,,,,,,,,,,,,
,,,,,,,,,,,,,,,90449,001,2022-04-25_23h05.11.898,SPAMnetsValid,2021.1.4,Win32,59.79788315,,,,,,,,,,,,,,,,,,,,,,,,,,,,,,,,,,,,,,,,,,,,,,,,,,,,,,,,,,,,,,,,,dog,Animals,1,0,1,0,1,,,,,,,,,,,,,,,,,,
,,,,,,,,,,,,,,,90449,001,2022-04-25_23h05.11.898,SPAMnetsValid,2021.1.4,Win32,59.79788315,,,,,,,,,,,,,,,,,,,,,,,,,,,,,,,,,,,,,,,,,,,,,,,,,,,,,,,,,,,,,,,,,lion,Animals,2,0,2,0,1,,,,,,,,,,,,,,,,,,
,,,,,,,,,,,,,,,90449,001,2022-04-25_23h05.11.898,SPAMnetsValid,2021.1.4,Win32,59.79788315,,,,,,,,,,,,,,,,,,,,,,,,,,,,,,,,,,,,,,,,,,,,,,,,,,,,,,,,,,,,,,,,,gerrafe,Animals,3,0,3,0,1,,,,,,,,,,,,,,,,,,
,,,,,,,,,,,,,,,90449,001,2022-04-25_23h05.11.898,SPAMnetsValid,2021.1.4,Win32,59.79788315,,,,,,,,,,,,,,,,,,,,,,,,,,,,,,,,,,,,,,,,,,,,,,,,,,,,,,,,,,,,,,,,,rat,Animals,4,0,4,0,1,,,,,,,,,,,,,,,,,,
,,,,,,,,,,,,,,,90449,001,2022-04-25_23h05.11.898,SPAMnetsValid,2021.1.4,Win32,59.79788315,,,,,,,,,,,,,,,,,,,,,,,,,,,,,,,,,,,,,,,,,,,,,,,,,,,,,,,,,,,,,,,,,ant,Animals,5,0,5,0,1,,,,,,,,,,,,,,,,,,
,,,,,,,,,,,,,,,90449,001,2022-04-25_23h05.11.898,SPAMnetsValid,2021.1.4,Win32,59.79788315,,,,,,,,,,,,,,,,,,,,,,,,,,,,,,,,,,,,,,,,,,,,,,,,,,,,,,,,,,,,,,,,,bee,Animals,6,0,6,0,1,,,,,,,,,,,,,,,,,,
,,,,,,,,,,,,,,,90449,001,2022-04-25_23h05.11.898,SPAMnetsValid,2021.1.4,Win32,59.79788315,,,,,,,,,,,,,,,,,,,,,,,,,,,,,,,,,,,,,,,,,,,,,,,,,,,,,,,,,,,,,,,,,monkey,Animals,7,0,7,0,1,,,,,,,,,,,,,,,,,,
,,,,,,,,,,,,,,,90449,001,2022-04-25_23h05.11.898,SPAMnetsValid,2021.1.4,Win32,59.79788315,,,,,,,,,,,,,,,,,,,,,,,,,,,,,,,,,,,,,,,,,,,,,,,,,,,,,,,,,,,,,,,,,donkey,Animals,8,0,8,0,1,,,,,,,,,,,,,,,,,,
,,,,,,,,,,,,,,,90449,001,2022-04-25_23h05.11.898,SPAMnetsValid,2021.1.4,Win32,59.79788315,,,,,,,,,,,,,,,,,,,,,,,,,,,,,,,,,,,,,,,,,,,,,,,,,,,,,,,,,,,,,,,,,camel,Animals,9,0,9,0,1,,,,,,,,,,,,,,,,,,
,,,,,,,,,,,,,,,90449,001,2022-04-25_23h05.11.898,SPAMnetsValid,2021.1.4,Win32,59.79788315,,,,,,,,,,,,,,,,,,,,,,,,,,,,,,,,,,,,,,,,,,,,,,,,,,,,,,,,,,,,,,,,,elephant,Animals,10,0,10,0,1,,,,,,,,,,,,,,,,,,
,,,,,,,,,,,,,,,90449,001,2022-04-25_23h05.11.898,SPAMnetsValid,2021.1.4,Win32,59.79788315,,,,,,,,,,,,,,,,,,,,,,,,,,,,,,,,,,,,,,,,,,,,,,,,,,,,,,,,,,,,,,,,,fox,Animals,11,0,11,0,1,,,,,,,,,,,,,,,,,,
,,,,,,,,,,,,,,,90449,001,2022-04-25_23h05.11.898,SPAMnetsValid,2021.1.4,Win32,59.79788315,,,,,,,,,,,,,,,,,,,,,,,,,,,,,,,,,,,,,,,,,,,,,,,,,,,,,,,,,,,,,,,,,wolf,Animals,12,0,12,0,1,,,,,,,,,,,,,,,,,,
,,,,,,,,,,,,,,,90449,001,2022-04-25_23h05.11.898,SPAMnetsValid,2021.1.4,Win32,59.79788315,,,,,,,,,,,,,,,,,,,,,,,,,,,,,,,,,,,,,,,,,,,,,,,,,,,,,,,,,,,,,,,,,shark,Animals,13,0,13,0,1,,,,,,,,,,,,,,,,,,
,,,,,,,,,,,,,,,90449,001,2022-04-25_23h05.11.898,SPAMnetsValid,2021.1.4,Win32,59.79788315,,,,,,,,,,,,,,,,,,,,,,,,,,,,,,,,,,,,,,,,,,,,,,,,,,,,,,,,,,,,,,,,,whale,Animals,14,0,14,0,1,,,,,,,,,,,,,,,,,,
,,,,,,,,,,,,,,,90449,001,2022-04-25_23h05.11.898,SPAMnetsValid,2021.1.4,Win32,59.79788315,,,,,,,,,,,,,,,,,,,,,,,,,,,,,,,,,,,,,,,,,,,,,,,,,,,,,,,,,,,,,,,,,alligator,Animals,15,0,15,0,1,,,,,,,,,,,,,,,,,,
,,,,,,,,,,,,,,,90449,001,2022-04-25_23h05.11.898,SPAMnetsValid,2021.1.4,Win32,59.79788315,,,,,,,,,,,,,,,,,,,,,,,,,,,,,,,,,,,,,,,,,,,,,,,,,,,,,,,,,,,,,,,,,deer,Animals,16,0,16,0,1,,,,,,,,,,,,,,,,,,
,,,,,,,,,,,,,,,90449,001,2022-04-25_23h05.11.898,SPAMnetsValid,2021.1.4,Win32,59.79788315,,,,,,,,,,,,,,,,,,,,,,,,,,,,,,,,,,,,,,,,,,,,,,,,,,,,,,,,,,,,,,,,,dear,Animals,17,0,17,0,1,,,,,,,,,,,,,,,,,,
,,,,,,,,,,,,,,,90449,001,2022-04-25_23h05.11.898,SPAMnetsValid,2021.1.4,Win32,59.79788315,,,,,,,,,,,,,,,,,,,,,,,,,,,,,,,,,,,,,,,,,,,,,,,,,,,,,,,,,,,,,,,,,tiger,Animals,18,0,18,0,1,,,,,,,,,,,,,,,,,,
,,,,,,,,,,,,,,,90449,001,2022-04-25_23h05.11.898,SPAMnetsValid,2021.1.4,Win32,59.79788315,,,,,,,,,,,,,,,,,,,,,,,,,,,,,,,,,,,,,,,,,,,,,,,,,,,,,,,,,,,,,,,,,rabbit,Animals,19,0,19,0,1,,,,,,,,,,,,,,,,,,
,,,,,,,,,,,,,,,90449,001,2022-04-25_23h05.11.898,SPAMnetsValid,2021.1.4,Win32,59.79788315,,,,,,,,,,,,,,,,,,,,,,,,,,,,,,,,,,,,,,,,,,,,,,,,,,,,,,,,,,,,,,,,,rackoon,Animals,20,0,20,0,1,,,,,,,,,,,,,,,,,,
,,,,,,,,,,,,,,,90449,001,2022-04-25_23h05.11.898,SPAMnetsValid,2021.1.4,Win32,59.79788315,,,,,,,,,,,,,,,,,,,,,,,,,,,,,,,,,,,,,,,,,,,,,,,,,,,,,,,,,,,,,,,,,snake,Animals,21,0,21,0,1,,,,,,,,,,,,,,,,,,
,,,,,,,,,,,,,,,90449,001,2022-04-25_23h05.11.898,SPAMnetsValid,2021.1.4,Win32,59.79788315,,,,,,,,,,,,,,,,,,,,,,,,,,,,,,,,,,,,,,,,,,,,,,,,,,,,,,,,,,,,,,,,,bear,Animals,22,0,22,0,1,,,,,,,,,,,,,,,,,,
,,,,,,,,,,,,,,,90449,001,2022-04-25_23h05.11.898,SPAMnetsValid,2021.1.4,Win32,59.79788315,,,,,,,,,,,,,,,,,,,,,,,,,,,,,,,,,,,,,,,,,,,,,,,,,,,,,,,,,,,,,,,,,horse,Animals,23,0,23,0,1,,,,,,,,,,,,,,,,,,
,,,,,,,,,,,,,,,90449,001,2022-04-25_23h05.11.898,SPAMnetsValid,2021.1.4,Win32,59.79788315,,,,,,,,,,,,,,,,,,,,,,,,,,,,,,,,,,,,,,,,,,,,,,,,,,,,,,,,,,,,,,,,,cow,Animals,24,0,24,0,1,,,,,,,,,,,,,,,,,,
,,,,,,,,,,,,,,,90449,001,2022-04-25_23h05.11.898,SPAMnetsValid,2021.1.4,Win32,59.79788315,,,,,,,,,,,,,,,,,,,,,,,,,,,,,,,,,,,,,,,,,,,,,,,,,,,,,,,,,,,,,,,,,bull,Animals,25,0,25,0,1,,,,,,,,,,,,,,,,,,
,,,,,,,,,,,,,,,90449,001,2022-04-25_23h05.11.898,SPAMnetsValid,2021.1.4,Win32,59.79788315,,,,,,,,,,,,,,,,,,,,,,,,,,,,,,,,,,,,,,,,,,,,,,,,,,,,,,,,,,,,,,,,,eagel,Animals,26,0,26,0,1,,,,,,,,,,,,,,,,,,
,,,,,,,,,,,,,,,90449,001,2022-04-25_23h05.11.898,SPAMnetsValid,2021.1.4,Win32,59.79788315,,,,,,,,,,,,,,,,,,,,,,,,,,,,,,,,,,,,,,,,,,,,,,,,,,,,,,,,,,,,,,,,,,,,,,,,0,0,0,0,1,Animals,,,,,,,,,,,,
,,,,,,,,,,,,,,,90449,001,2022-04-25_23h05.11.898,SPAMnetsValid,2021.1.4,Win32,59.79788315,,,,,,,,,,,,,,,,,,,,,,,,,,,,,,,,,,,,,,,,,,,,,,,,,,,,,,,,,,,,,,,,,,,,,,,,,,,,,,5,5.9579,0,0,0,0,1,"I enjoy concentrating on a fantasy or daydream and exploring all its possibilities, letting it grow and develop.",0,1,,
,,,,,,,,,,,,,,,90449,001,2022-04-25_23h05.11.898,SPAMnetsValid,2021.1.4,Win32,59.79788315,,,,,,,,,,,,,,,,,,,,,,,,,,,,,,,,,,,,,,,,,,,,,,,,,,,,,,,,,,,,,,,,,,,,,,,,,,,,,,5,3.3195,0,1,1,1,1,I think it's interesting to learn and develop new hobbies.,0,2,,
,,,,,,,,,,,,,,,90449,001,2022-04-25_23h05.11.898,SPAMnetsValid,2021.1.4,Win32,59.79788315,,,,,,,,,,,,,,,,,,,,,,,,,,,,,,,,,,,,,,,,,,,,,,,,,,,,,,,,,,,,,,,,,,,,,,,,,,,,,,4,3.4197,0,2,2,2,1,I am intrigued by the patterns I find in art and nature.,0,3,,
,,,,,,,,,,,,,,,90449,001,2022-04-25_23h05.11.898,SPAMnetsValid,2021.1.4,Win32,59.79788315,,,,,,,,,,,,,,,,,,,,,,,,,,,,,,,,,,,,,,,,,,,,,,,,,,,,,,,,,,,,,,,,,,,,,,,,,,,,,,2,4.6404,0,3,3,3,1,I believe letting students hear controversial speakers can only confuse and mislead them.,1,4,,
,,,,,,,,,,,,,,,90449,001,2022-04-25_23h05.11.898,SPAMnetsValid,2021.1.4,Win32,59.79788315,,,,,,,,,,,,,,,,,,,,,,,,,,,,,,,,,,,,,,,,,,,,,,,,,,,,,,,,,,,,,,,,,,,,,,,,,,,,,,2,3.5027,0,4,4,4,1,Poetry has little or no effect on me.,1,5,,
,,,,,,,,,,,,,,,90449,001,2022-04-25_23h05.11.898,SPAMnetsValid,2021.1.4,Win32,59.79788315,,,,,,,,,,,,,,,,,,,,,,,,,,,,,,,,,,,,,,,,,,,,,,,,,,,,,,,,,,,,,,,,,,,,,,,,,,,,,,3,5.1733,0,5,5,5,1,I would have difficulty just letting my mind wander without control or guidance.,1,6,,
,,,,,,,,,,,,,,,90449,001,2022-04-25_23h05.11.898,SPAMnetsValid,2021.1.4,Win32,59.79788315,,,,,,,,,,,,,,,,,,,,,,,,,,,,,,,,,,,,,,,,,,,,,,,,,,,,,,,,,,,,,,,,,,,,,,,,,,,,,,4,5.7866,0,6,6,6,1,I seldom notice the moods or feelings that different environments produce.,1,7,,
,,,,,,,,,,,,,,,90449,001,2022-04-25_23h05.11.898,SPAMnetsValid,2021.1.4,Win32,59.79788315,,,,,,,,,,,,,,,,,,,,,,,,,,,,,,,,,,,,,,,,,,,,,,,,,,,,,,,,,,,,,,,,,,,,,,,,,,,,,,3,2.7154,0,7,7,7,1,I experience a wide range of emotions or feelings.,0,8,,
,,,,,,,,,,,,,,,90449,001,2022-04-25_23h05.11.898,SPAMnetsValid,2021.1.4,Win32,59.79788315,,,,,,,,,,,,,,,,,,,,,,,,,,,,,,,,,,,,,,,,,,,,,,,,,,,,,,,,,,,,,,,,,,,,,,,,,,,,,,3,4.8419,0,8,8,8,1,"Sometimes when I am reading poetry or looking at a work of art, I feel a chill or wave of excitement.",0,9,,
,,,,,,,,,,,,,,,90449,001,2022-04-25_23h05.11.898,SPAMnetsValid,2021.1.4,Win32,59.79788315,,,,,,,,,,,,,,,,,,,,,,,,,,,,,,,,,,,,,,,,,,,,,,,,,,,,,,,,,,,,,,,,,,,,,,,,,,,,,,1,5.5416,0,9,9,9,1,I have little interest in speculating on the nature of the universe or the human condition.,1,10,,
,,,,,,,,,,,,,,,90449,001,2022-04-25_23h05.11.898,SPAMnetsValid,2021.1.4,Win32,59.79788315,,,,,,,,,,,,,,,,,,,,,,,,,,,,,,,,,,,,,,,,,,,,,,,,,,,,,,,,,,,,,,,,,,,,,,,,,,,,,,3,2.0344,0,10,10,10,1,I have a lot of intellectual curiosity.,0,11,,
,,,,,,,,,,,,,,,90449,001,2022-04-25_23h05.11.898,SPAMnetsValid,2021.1.4,Win32,59.79788315,,,,,,,,,,,,,,,,,,,,,,,,,,,,,,,,,,,,,,,,,,,,,,,,,,,,,,,,,,,,,,,,,,,,,,,,,,,,,,4,3.1447,0,11,11,11,1,I often enjoy playing with theories or abstract ideas.,0,12,,
,,,,,,,,,,,,,,,90449,001,2022-04-25_23h05.11.898,SPAMnetsValid,2021.1.4,Win32,59.79788315,,,,,,,,,,,,,,,,,,,,,,,,,,,,,,,,,,,,,,,,,,,,,,,,,,,,,,,,,,,,,,,,,,,,,,,,,,,,,,,,,,,,,,,,return,5.8403
