key_resp_3.keys,key_resp_3.rt,slider_2.response,slider_2.rt,rjt_rating,rjt_RT,trials_24.thisRepN,trials_24.thisTrialN,trials_24.thisN,trials_24.thisIndex,trials_24.ran,rjt_order,word1,word2,attention,participant,session,date,expName,psychopyVersion,OS,frameRate,trials_4.thisRepN,trials_4.thisTrialN,trials_4.thisN,trials_4.thisIndex,trials_4.ran,trials_5.thisRepN,trials_5.thisTrialN,trials_5.thisN,trials_5.thisIndex,trials_5.ran,repOne,repTwo,slider.response,slider.rt,trials_22.thisRepN,trials_22.thisTrialN,trials_22.thisN,trials_22.thisIndex,trials_22.ran,trials_99.thisRepN,trials_99.thisTrialN,trials_99.thisN,trials_99.thisIndex,trials_99.ran,slider_extend_2.response,slider_extend_2.rt,trials_6.thisRepN,trials_6.thisTrialN,trials_6.thisN,trials_6.thisIndex,trials_6.ran,vCue2,R1,R2,R3,R4,correct,sliderVocab.response,sliderVocab.rt,trials_7.thisRepN,trials_7.thisTrialN,trials_7.thisN,trials_7.thisIndex,trials_7.ran,VocabCue,VR1,VR2,VR3,VR4,VR5,VocabCorrect,AUT_resp,AUT_label,trials.thisRepN,trials.thisTrialN,trials.thisN,trials.thisIndex,trials.ran,trials_2.thisRepN,trials_2.thisTrialN,trials_2.thisN,trials_2.thisIndex,trials_2.ran,aut_prompt,VF_response,VF_tag,trials_16.thisRepN,trials_16.thisTrialN,trials_16.thisN,trials_16.thisIndex,trials_16.ran,trials_17.thisRepN,trials_17.thisTrialN,trials_17.thisN,trials_17.thisIndex,trials_17.ran,VFcond,open_slider.response,open_slider.rt,trials_3.thisRepN,trials_3.thisTrialN,trials_3.thisN,trials_3.thisIndex,trials_3.ran,OpenQ,Rev,OPEN_ORDER,key_resp_2.keys,key_resp_2.rt
return,0.206,8,3.469,8,3.469,0,0,0,14,1,120,microwave,oven,,90441,001,2022-04-24_18h21.01.093,SPAMnetsValid,2021.1.4,MacIntel,47.61904762,,,,,,,,,,,,,,,,,,,,,,,,,,,,,,,,,,,,,,,,,,,,,,,,,,,,,,,,,,,,,,,,,,,,,,,,,,,,,,,,,,,,,,,,,
,,1,2.909,1,2.909,0,1,1,90,1,190,microwave,strawberry,,90441,001,2022-04-24_18h21.01.093,SPAMnetsValid,2021.1.4,MacIntel,47.61904762,,,,,,,,,,,,,,,,,,,,,,,,,,,,,,,,,,,,,,,,,,,,,,,,,,,,,,,,,,,,,,,,,,,,,,,,,,,,,,,,,,,,,,,,,
,,1,1.399,1,1.399,0,2,2,15,1,145,cactus,yogurt,,90441,001,2022-04-24_18h21.01.093,SPAMnetsValid,2021.1.4,MacIntel,47.61904762,,,,,,,,,,,,,,,,,,,,,,,,,,,,,,,,,,,,,,,,,,,,,,,,,,,,,,,,,,,,,,,,,,,,,,,,,,,,,,,,,,,,,,,,,
,,7,1.414,7,1.414,0,3,3,89,1,140,cookie,refrigerator,,90441,001,2022-04-24_18h21.01.093,SPAMnetsValid,2021.1.4,MacIntel,47.61904762,,,,,,,,,,,,,,,,,,,,,,,,,,,,,,,,,,,,,,,,,,,,,,,,,,,,,,,,,,,,,,,,,,,,,,,,,,,,,,,,,,,,,,,,,
,,3,1.467,3,1.467,0,4,4,40,1,165,onion,rose,,90441,001,2022-04-24_18h21.01.093,SPAMnetsValid,2021.1.4,MacIntel,47.61904762,,,,,,,,,,,,,,,,,,,,,,,,,,,,,,,,,,,,,,,,,,,,,,,,,,,,,,,,,,,,,,,,,,,,,,,,,,,,,,,,,,,,,,,,,
,,9,2.665,9,2.665,0,5,5,47,1,167,carrot,garden,,90441,001,2022-04-24_18h21.01.093,SPAMnetsValid,2021.1.4,MacIntel,47.61904762,,,,,,,,,,,,,,,,,,,,,,,,,,,,,,,,,,,,,,,,,,,,,,,,,,,,,,,,,,,,,,,,,,,,,,,,,,,,,,,,,,,,,,,,,
,,9,1.19,9,1.19,0,6,6,27,1,158,cookie,oven,,90441,001,2022-04-24_18h21.01.093,SPAMnetsValid,2021.1.4,MacIntel,47.61904762,,,,,,,,,,,,,,,,,,,,,,,,,,,,,,,,,,,,,,,,,,,,,,,,,,,,,,,,,,,,,,,,,,,,,,,,,,,,,,,,,,,,,,,,,
,,3,1.376,3,1.376,0,7,7,41,1,175,melon,onion,,90441,001,2022-04-24_18h21.01.093,SPAMnetsValid,2021.1.4,MacIntel,47.61904762,,,,,,,,,,,,,,,,,,,,,,,,,,,,,,,,,,,,,,,,,,,,,,,,,,,,,,,,,,,,,,,,,,,,,,,,,,,,,,,,,,,,,,,,,
,,8,1.227,8,1.227,0,8,8,10,1,118,chocolate,oven,,90441,001,2022-04-24_18h21.01.093,SPAMnetsValid,2021.1.4,MacIntel,47.61904762,,,,,,,,,,,,,,,,,,,,,,,,,,,,,,,,,,,,,,,,,,,,,,,,,,,,,,,,,,,,,,,,,,,,,,,,,,,,,,,,,,,,,,,,,
,,1,1.326,1,1.326,0,9,9,64,1,157,refrigerator,rose,,90441,001,2022-04-24_18h21.01.093,SPAMnetsValid,2021.1.4,MacIntel,47.61904762,,,,,,,,,,,,,,,,,,,,,,,,,,,,,,,,,,,,,,,,,,,,,,,,,,,,,,,,,,,,,,,,,,,,,,,,,,,,,,,,,,,,,,,,,
,,5,2.645,5,2.645,0,10,10,5,1,108,carrot,chocolate,,90441,001,2022-04-24_18h21.01.093,SPAMnetsValid,2021.1.4,MacIntel,47.61904762,,,,,,,,,,,,,,,,,,,,,,,,,,,,,,,,,,,,,,,,,,,,,,,,,,,,,,,,,,,,,,,,,,,,,,,,,,,,,,,,,,,,,,,,,
,,7,1.562,7,1.562,0,11,11,77,1,172,kitchen,melon,,90441,001,2022-04-24_18h21.01.093,SPAMnetsValid,2021.1.4,MacIntel,47.61904762,,,,,,,,,,,,,,,,,,,,,,,,,,,,,,,,,,,,,,,,,,,,,,,,,,,,,,,,,,,,,,,,,,,,,,,,,,,,,,,,,,,,,,,,,
,,8,1.312,8,1.312,0,12,12,2,1,174,cake,pretzel,,90441,001,2022-04-24_18h21.01.093,SPAMnetsValid,2021.1.4,MacIntel,47.61904762,,,,,,,,,,,,,,,,,,,,,,,,,,,,,,,,,,,,,,,,,,,,,,,,,,,,,,,,,,,,,,,,,,,,,,,,,,,,,,,,,,,,,,,,,
,,6,1.682,6,1.682,0,13,13,9,1,176,cactus,tomato,,90441,001,2022-04-24_18h21.01.093,SPAMnetsValid,2021.1.4,MacIntel,47.61904762,,,,,,,,,,,,,,,,,,,,,,,,,,,,,,,,,,,,,,,,,,,,,,,,,,,,,,,,,,,,,,,,,,,,,,,,,,,,,,,,,,,,,,,,,
,,9,1.195,9,1.195,0,14,14,60,1,122,flower,garden,,90441,001,2022-04-24_18h21.01.093,SPAMnetsValid,2021.1.4,MacIntel,47.61904762,,,,,,,,,,,,,,,,,,,,,,,,,,,,,,,,,,,,,,,,,,,,,,,,,,,,,,,,,,,,,,,,,,,,,,,,,,,,,,,,,,,,,,,,,
,,5,3.144,5,3.144,0,15,15,50,1,126,kitchen,tree,,90441,001,2022-04-24_18h21.01.093,SPAMnetsValid,2021.1.4,MacIntel,47.61904762,,,,,,,,,,,,,,,,,,,,,,,,,,,,,,,,,,,,,,,,,,,,,,,,,,,,,,,,,,,,,,,,,,,,,,,,,,,,,,,,,,,,,,,,,
,,1,1.326,1,1.326,0,16,16,71,1,187,cactus,microwave,,90441,001,2022-04-24_18h21.01.093,SPAMnetsValid,2021.1.4,MacIntel,47.61904762,,,,,,,,,,,,,,,,,,,,,,,,,,,,,,,,,,,,,,,,,,,,,,,,,,,,,,,,,,,,,,,,,,,,,,,,,,,,,,,,,,,,,,,,,
,,9,10.025,9,10.025,0,17,17,83,1,100,garden,tomato,,90441,001,2022-04-24_18h21.01.093,SPAMnetsValid,2021.1.4,MacIntel,47.61904762,,,,,,,,,,,,,,,,,,,,,,,,,,,,,,,,,,,,,,,,,,,,,,,,,,,,,,,,,,,,,,,,,,,,,,,,,,,,,,,,,,,,,,,,,
,,9,1.092,9,1.092,0,18,18,44,1,116,cake,chocolate,,90441,001,2022-04-24_18h21.01.093,SPAMnetsValid,2021.1.4,MacIntel,47.61904762,,,,,,,,,,,,,,,,,,,,,,,,,,,,,,,,,,,,,,,,,,,,,,,,,,,,,,,,,,,,,,,,,,,,,,,,,,,,,,,,,,,,,,,,,
,,9,2.762,9,2.762,0,19,19,0,1,106,cake,strawberry,,90441,001,2022-04-24_18h21.01.093,SPAMnetsValid,2021.1.4,MacIntel,47.61904762,,,,,,,,,,,,,,,,,,,,,,,,,,,,,,,,,,,,,,,,,,,,,,,,,,,,,,,,,,,,,,,,,,,,,,,,,,,,,,,,,,,,,,,,,
,,3,4.312,3,4.312,0,20,20,42,1,184,oven,pretzel,,90441,001,2022-04-24_18h21.01.093,SPAMnetsValid,2021.1.4,MacIntel,47.61904762,,,,,,,,,,,,,,,,,,,,,,,,,,,,,,,,,,,,,,,,,,,,,,,,,,,,,,,,,,,,,,,,,,,,,,,,,,,,,,,,,,,,,,,,,
,,2,1.144,2,1.144,0,21,21,19,1,183,cake,rose,,90441,001,2022-04-24_18h21.01.093,SPAMnetsValid,2021.1.4,MacIntel,47.61904762,,,,,,,,,,,,,,,,,,,,,,,,,,,,,,,,,,,,,,,,,,,,,,,,,,,,,,,,,,,,,,,,,,,,,,,,,,,,,,,,,,,,,,,,,
,,1,1.56,1,1.56,0,22,22,63,1,137,microwave,tree,,90441,001,2022-04-24_18h21.01.093,SPAMnetsValid,2021.1.4,MacIntel,47.61904762,,,,,,,,,,,,,,,,,,,,,,,,,,,,,,,,,,,,,,,,,,,,,,,,,,,,,,,,,,,,,,,,,,,,,,,,,,,,,,,,,,,,,,,,,
,,7,1.826,7,1.826,0,23,23,87,1,114,cookie,strawberry,,90441,001,2022-04-24_18h21.01.093,SPAMnetsValid,2021.1.4,MacIntel,47.61904762,,,,,,,,,,,,,,,,,,,,,,,,,,,,,,,,,,,,,,,,,,,,,,,,,,,,,,,,,,,,,,,,,,,,,,,,,,,,,,,,,,,,,,,,,
,,6,2.595,6,2.595,0,24,24,30,1,125,carrot,tree,,90441,001,2022-04-24_18h21.01.093,SPAMnetsValid,2021.1.4,MacIntel,47.61904762,,,,,,,,,,,,,,,,,,,,,,,,,,,,,,,,,,,,,,,,,,,,,,,,,,,,,,,,,,,,,,,,,,,,,,,,,,,,,,,,,,,,,,,,,
,,1,1.224,1,1.224,0,25,25,34,1,153,carrot,pretzel,,90441,001,2022-04-24_18h21.01.093,SPAMnetsValid,2021.1.4,MacIntel,47.61904762,,,,,,,,,,,,,,,,,,,,,,,,,,,,,,,,,,,,,,,,,,,,,,,,,,,,,,,,,,,,,,,,,,,,,,,,,,,,,,,,,,,,,,,,,
,,1,2.393,1,2.393,0,26,26,55,1,143,pretzel,rose,,90441,001,2022-04-24_18h21.01.093,SPAMnetsValid,2021.1.4,MacIntel,47.61904762,,,,,,,,,,,,,,,,,,,,,,,,,,,,,,,,,,,,,,,,,,,,,,,,,,,,,,,,,,,,,,,,,,,,,,,,,,,,,,,,,,,,,,,,,
,,4,2.442,4,2.442,0,27,27,96,1,136,chocolate,microwave,,90441,001,2022-04-24_18h21.01.093,SPAMnetsValid,2021.1.4,MacIntel,47.61904762,,,,,,,,,,,,,,,,,,,,,,,,,,,,,,,,,,,,,,,,,,,,,,,,,,,,,,,,,,,,,,,,,,,,,,,,,,,,,,,,,,,,,,,,,
,,1,1.363,1,1.363,0,28,28,84,1,130,microwave,yogurt,,90441,001,2022-04-24_18h21.01.093,SPAMnetsValid,2021.1.4,MacIntel,47.61904762,,,,,,,,,,,,,,,,,,,,,,,,,,,,,,,,,,,,,,,,,,,,,,,,,,,,,,,,,,,,,,,,,,,,,,,,,,,,,,,,,,,,,,,,,
,,6,1.714,6,1.714,0,29,29,85,1,115,refrigerator,tomato,,90441,001,2022-04-24_18h21.01.093,SPAMnetsValid,2021.1.4,MacIntel,47.61904762,,,,,,,,,,,,,,,,,,,,,,,,,,,,,,,,,,,,,,,,,,,,,,,,,,,,,,,,,,,,,,,,,,,,,,,,,,,,,,,,,,,,,,,,,
,,1,2.259,1,2.259,0,30,30,88,1,171,cake,tomato,,90441,001,2022-04-24_18h21.01.093,SPAMnetsValid,2021.1.4,MacIntel,47.61904762,,,,,,,,,,,,,,,,,,,,,,,,,,,,,,,,,,,,,,,,,,,,,,,,,,,,,,,,,,,,,,,,,,,,,,,,,,,,,,,,,,,,,,,,,
,,7,3.011,7,3.011,0,31,31,51,1,168,cactus,flower,,90441,001,2022-04-24_18h21.01.093,SPAMnetsValid,2021.1.4,MacIntel,47.61904762,,,,,,,,,,,,,,,,,,,,,,,,,,,,,,,,,,,,,,,,,,,,,,,,,,,,,,,,,,,,,,,,,,,,,,,,,,,,,,,,,,,,,,,,,
,,7,2.142,7,2.142,0,32,32,69,1,124,oven,refrigerator,,90441,001,2022-04-24_18h21.01.093,SPAMnetsValid,2021.1.4,MacIntel,47.61904762,,,,,,,,,,,,,,,,,,,,,,,,,,,,,,,,,,,,,,,,,,,,,,,,,,,,,,,,,,,,,,,,,,,,,,,,,,,,,,,,,,,,,,,,,
,,1,3.945,1,3.945,0,33,33,13,1,105,cactus,oven,,90441,001,2022-04-24_18h21.01.093,SPAMnetsValid,2021.1.4,MacIntel,47.61904762,,,,,,,,,,,,,,,,,,,,,,,,,,,,,,,,,,,,,,,,,,,,,,,,,,,,,,,,,,,,,,,,,,,,,,,,,,,,,,,,,,,,,,,,,
,,1,1.934,1,1.934,0,34,34,16,1,111,carrot,microwave,,90441,001,2022-04-24_18h21.01.093,SPAMnetsValid,2021.1.4,MacIntel,47.61904762,,,,,,,,,,,,,,,,,,,,,,,,,,,,,,,,,,,,,,,,,,,,,,,,,,,,,,,,,,,,,,,,,,,,,,,,,,,,,,,,,,,,,,,,,
,,2,1.658,2,1.658,0,35,35,21,1,159,cookie,flower,,90441,001,2022-04-24_18h21.01.093,SPAMnetsValid,2021.1.4,MacIntel,47.61904762,,,,,,,,,,,,,,,,,,,,,,,,,,,,,,,,,,,,,,,,,,,,,,,,,,,,,,,,,,,,,,,,,,,,,,,,,,,,,,,,,,,,,,,,,
,,1,1.493,1,1.493,0,36,36,79,1,103,pretzel,tomato,,90441,001,2022-04-24_18h21.01.093,SPAMnetsValid,2021.1.4,MacIntel,47.61904762,,,,,,,,,,,,,,,,,,,,,,,,,,,,,,,,,,,,,,,,,,,,,,,,,,,,,,,,,,,,,,,,,,,,,,,,,,,,,,,,,,,,,,,,,
,,9,3.177,9,3.177,0,37,37,25,1,194,cactus,cactus,CHECK,90441,001,2022-04-24_18h21.01.093,SPAMnetsValid,2021.1.4,MacIntel,47.61904762,,,,,,,,,,,,,,,,,,,,,,,,,,,,,,,,,,,,,,,,,,,,,,,,,,,,,,,,,,,,,,,,,,,,,,,,,,,,,,,,,,,,,,,,,
,,9,1.411,9,1.411,0,38,38,1,1,173,kitchen,tomato,,90441,001,2022-04-24_18h21.01.093,SPAMnetsValid,2021.1.4,MacIntel,47.61904762,,,,,,,,,,,,,,,,,,,,,,,,,,,,,,,,,,,,,,,,,,,,,,,,,,,,,,,,,,,,,,,,,,,,,,,,,,,,,,,,,,,,,,,,,
,,6,2.063,6,2.063,0,39,39,67,1,96,oven,strawberry,,90441,001,2022-04-24_18h21.01.093,SPAMnetsValid,2021.1.4,MacIntel,47.61904762,,,,,,,,,,,,,,,,,,,,,,,,,,,,,,,,,,,,,,,,,,,,,,,,,,,,,,,,,,,,,,,,,,,,,,,,,,,,,,,,,,,,,,,,,
,,9,1.813,9,1.813,0,40,40,28,1,154,strawberry,yogurt,,90441,001,2022-04-24_18h21.01.093,SPAMnetsValid,2021.1.4,MacIntel,47.61904762,,,,,,,,,,,,,,,,,,,,,,,,,,,,,,,,,,,,,,,,,,,,,,,,,,,,,,,,,,,,,,,,,,,,,,,,,,,,,,,,,,,,,,,,,
,,1,1.511,1,1.511,0,41,41,20,1,149,broom,tomato,,90441,001,2022-04-24_18h21.01.093,SPAMnetsValid,2021.1.4,MacIntel,47.61904762,,,,,,,,,,,,,,,,,,,,,,,,,,,,,,,,,,,,,,,,,,,,,,,,,,,,,,,,,,,,,,,,,,,,,,,,,,,,,,,,,,,,,,,,,
,,3,2.946,3,2.946,0,42,42,92,1,170,cookie,microwave,,90441,001,2022-04-24_18h21.01.093,SPAMnetsValid,2021.1.4,MacIntel,47.61904762,,,,,,,,,,,,,,,,,,,,,,,,,,,,,,,,,,,,,,,,,,,,,,,,,,,,,,,,,,,,,,,,,,,,,,,,,,,,,,,,,,,,,,,,,
,,1,2.482,1,2.482,0,43,43,57,1,127,cactus,chocolate,,90441,001,2022-04-24_18h21.01.093,SPAMnetsValid,2021.1.4,MacIntel,47.61904762,,,,,,,,,,,,,,,,,,,,,,,,,,,,,,,,,,,,,,,,,,,,,,,,,,,,,,,,,,,,,,,,,,,,,,,,,,,,,,,,,,,,,,,,,
,,1,1.394,1,1.394,0,44,44,49,1,152,cactus,strawberry,,90441,001,2022-04-24_18h21.01.093,SPAMnetsValid,2021.1.4,MacIntel,47.61904762,,,,,,,,,,,,,,,,,,,,,,,,,,,,,,,,,,,,,,,,,,,,,,,,,,,,,,,,,,,,,,,,,,,,,,,,,,,,,,,,,,,,,,,,,
,,1,2.311,1,2.311,0,45,45,81,1,104,garden,microwave,,90441,001,2022-04-24_18h21.01.093,SPAMnetsValid,2021.1.4,MacIntel,47.61904762,,,,,,,,,,,,,,,,,,,,,,,,,,,,,,,,,,,,,,,,,,,,,,,,,,,,,,,,,,,,,,,,,,,,,,,,,,,,,,,,,,,,,,,,,
,,2,1.863,2,1.863,0,46,46,45,1,179,broom,oven,,90441,001,2022-04-24_18h21.01.093,SPAMnetsValid,2021.1.4,MacIntel,47.61904762,,,,,,,,,,,,,,,,,,,,,,,,,,,,,,,,,,,,,,,,,,,,,,,,,,,,,,,,,,,,,,,,,,,,,,,,,,,,,,,,,,,,,,,,,
,,8,3.331,8,3.331,0,47,47,53,1,177,chocolate,strawberry,,90441,001,2022-04-24_18h21.01.093,SPAMnetsValid,2021.1.4,MacIntel,47.61904762,,,,,,,,,,,,,,,,,,,,,,,,,,,,,,,,,,,,,,,,,,,,,,,,,,,,,,,,,,,,,,,,,,,,,,,,,,,,,,,,,,,,,,,,,
,,8,2.374,8,2.374,0,48,48,56,1,113,refrigerator,strawberry,,90441,001,2022-04-24_18h21.01.093,SPAMnetsValid,2021.1.4,MacIntel,47.61904762,,,,,,,,,,,,,,,,,,,,,,,,,,,,,,,,,,,,,,,,,,,,,,,,,,,,,,,,,,,,,,,,,,,,,,,,,,,,,,,,,,,,,,,,,
,,1,1.414,1,1.414,0,49,49,12,1,162,microwave,tomato,,90441,001,2022-04-24_18h21.01.093,SPAMnetsValid,2021.1.4,MacIntel,47.61904762,,,,,,,,,,,,,,,,,,,,,,,,,,,,,,,,,,,,,,,,,,,,,,,,,,,,,,,,,,,,,,,,,,,,,,,,,,,,,,,,,,,,,,,,,
,,1,4.328,1,4.328,0,50,50,58,1,144,cake,garden,,90441,001,2022-04-24_18h21.01.093,SPAMnetsValid,2021.1.4,MacIntel,47.61904762,,,,,,,,,,,,,,,,,,,,,,,,,,,,,,,,,,,,,,,,,,,,,,,,,,,,,,,,,,,,,,,,,,,,,,,,,,,,,,,,,,,,,,,,,
,,1,1.481,1,1.481,0,51,51,24,1,169,onion,yogurt,,90441,001,2022-04-24_18h21.01.093,SPAMnetsValid,2021.1.4,MacIntel,47.61904762,,,,,,,,,,,,,,,,,,,,,,,,,,,,,,,,,,,,,,,,,,,,,,,,,,,,,,,,,,,,,,,,,,,,,,,,,,,,,,,,,,,,,,,,,
,,1,8.082,1,8.082,0,52,52,22,1,142,garden,tree,,90441,001,2022-04-24_18h21.01.093,SPAMnetsValid,2021.1.4,MacIntel,47.61904762,,,,,,,,,,,,,,,,,,,,,,,,,,,,,,,,,,,,,,,,,,,,,,,,,,,,,,,,,,,,,,,,,,,,,,,,,,,,,,,,,,,,,,,,,
,,1,1.414,1,1.414,0,53,53,59,1,164,cookie,garden,,90441,001,2022-04-24_18h21.01.093,SPAMnetsValid,2021.1.4,MacIntel,47.61904762,,,,,,,,,,,,,,,,,,,,,,,,,,,,,,,,,,,,,,,,,,,,,,,,,,,,,,,,,,,,,,,,,,,,,,,,,,,,,,,,,,,,,,,,,
,,1,1.664,1,1.664,0,54,54,6,1,151,microwave,onion,,90441,001,2022-04-24_18h21.01.093,SPAMnetsValid,2021.1.4,MacIntel,47.61904762,,,,,,,,,,,,,,,,,,,,,,,,,,,,,,,,,,,,,,,,,,,,,,,,,,,,,,,,,,,,,,,,,,,,,,,,,,,,,,,,,,,,,,,,,
,,8,1.708,8,1.708,0,55,55,11,1,117,melon,strawberry,,90441,001,2022-04-24_18h21.01.093,SPAMnetsValid,2021.1.4,MacIntel,47.61904762,,,,,,,,,,,,,,,,,,,,,,,,,,,,,,,,,,,,,,,,,,,,,,,,,,,,,,,,,,,,,,,,,,,,,,,,,,,,,,,,,,,,,,,,,
,,1,1.762,1,1.762,0,56,56,66,1,150,microwave,refrigerator,,90441,001,2022-04-24_18h21.01.093,SPAMnetsValid,2021.1.4,MacIntel,47.61904762,,,,,,,,,,,,,,,,,,,,,,,,,,,,,,,,,,,,,,,,,,,,,,,,,,,,,,,,,,,,,,,,,,,,,,,,,,,,,,,,,,,,,,,,,
,,7,2.309,7,2.309,0,57,57,91,1,166,cake,yogurt,,90441,001,2022-04-24_18h21.01.093,SPAMnetsValid,2021.1.4,MacIntel,47.61904762,,,,,,,,,,,,,,,,,,,,,,,,,,,,,,,,,,,,,,,,,,,,,,,,,,,,,,,,,,,,,,,,,,,,,,,,,,,,,,,,,,,,,,,,,
,,1,1.148,1,1.148,0,58,58,78,1,132,broom,tree,,90441,001,2022-04-24_18h21.01.093,SPAMnetsValid,2021.1.4,MacIntel,47.61904762,,,,,,,,,,,,,,,,,,,,,,,,,,,,,,,,,,,,,,,,,,,,,,,,,,,,,,,,,,,,,,,,,,,,,,,,,,,,,,,,,,,,,,,,,
,,4,2.195,4,2.195,0,59,59,94,1,133,cake,flower,,90441,001,2022-04-24_18h21.01.093,SPAMnetsValid,2021.1.4,MacIntel,47.61904762,,,,,,,,,,,,,,,,,,,,,,,,,,,,,,,,,,,,,,,,,,,,,,,,,,,,,,,,,,,,,,,,,,,,,,,,,,,,,,,,,,,,,,,,,
,,1,2.999,1,2.999,0,60,60,80,1,146,pretzel,tree,,90441,001,2022-04-24_18h21.01.093,SPAMnetsValid,2021.1.4,MacIntel,47.61904762,,,,,,,,,,,,,,,,,,,,,,,,,,,,,,,,,,,,,,,,,,,,,,,,,,,,,,,,,,,,,,,,,,,,,,,,,,,,,,,,,,,,,,,,,
,,6,2.224,6,2.224,0,61,61,18,1,119,strawberry,tree,,90441,001,2022-04-24_18h21.01.093,SPAMnetsValid,2021.1.4,MacIntel,47.61904762,,,,,,,,,,,,,,,,,,,,,,,,,,,,,,,,,,,,,,,,,,,,,,,,,,,,,,,,,,,,,,,,,,,,,,,,,,,,,,,,,,,,,,,,,
,,9,1.54,9,1.54,0,62,62,33,1,131,cactus,garden,,90441,001,2022-04-24_18h21.01.093,SPAMnetsValid,2021.1.4,MacIntel,47.61904762,,,,,,,,,,,,,,,,,,,,,,,,,,,,,,,,,,,,,,,,,,,,,,,,,,,,,,,,,,,,,,,,,,,,,,,,,,,,,,,,,,,,,,,,,
,,9,1.428,9,1.428,0,63,63,61,1,138,flower,rose,,90441,001,2022-04-24_18h21.01.093,SPAMnetsValid,2021.1.4,MacIntel,47.61904762,,,,,,,,,,,,,,,,,,,,,,,,,,,,,,,,,,,,,,,,,,,,,,,,,,,,,,,,,,,,,,,,,,,,,,,,,,,,,,,,,,,,,,,,,
,,1,1.433,1,1.433,0,64,64,4,1,109,broom,strawberry,,90441,001,2022-04-24_18h21.01.093,SPAMnetsValid,2021.1.4,MacIntel,47.61904762,,,,,,,,,,,,,,,,,,,,,,,,,,,,,,,,,,,,,,,,,,,,,,,,,,,,,,,,,,,,,,,,,,,,,,,,,,,,,,,,,,,,,,,,,
,,6,5.23,6,5.23,0,65,65,65,1,160,cookie,kitchen,,90441,001,2022-04-24_18h21.01.093,SPAMnetsValid,2021.1.4,MacIntel,47.61904762,,,,,,,,,,,,,,,,,,,,,,,,,,,,,,,,,,,,,,,,,,,,,,,,,,,,,,,,,,,,,,,,,,,,,,,,,,,,,,,,,,,,,,,,,
,,1,1.293,1,1.293,0,66,66,95,1,121,broom,microwave,,90441,001,2022-04-24_18h21.01.093,SPAMnetsValid,2021.1.4,MacIntel,47.61904762,,,,,,,,,,,,,,,,,,,,,,,,,,,,,,,,,,,,,,,,,,,,,,,,,,,,,,,,,,,,,,,,,,,,,,,,,,,,,,,,,,,,,,,,,
,,1,1.842,1,1.842,0,67,67,68,1,180,tree,yogurt,,90441,001,2022-04-24_18h21.01.093,SPAMnetsValid,2021.1.4,MacIntel,47.61904762,,,,,,,,,,,,,,,,,,,,,,,,,,,,,,,,,,,,,,,,,,,,,,,,,,,,,,,,,,,,,,,,,,,,,,,,,,,,,,,,,,,,,,,,,
,,9,1.694,9,1.694,0,68,68,39,1,112,cake,carrot,,90441,001,2022-04-24_18h21.01.093,SPAMnetsValid,2021.1.4,MacIntel,47.61904762,,,,,,,,,,,,,,,,,,,,,,,,,,,,,,,,,,,,,,,,,,,,,,,,,,,,,,,,,,,,,,,,,,,,,,,,,,,,,,,,,,,,,,,,,
,,4,3.946,4,3.946,0,69,69,70,1,141,melon,tomato,,90441,001,2022-04-24_18h21.01.093,SPAMnetsValid,2021.1.4,MacIntel,47.61904762,,,,,,,,,,,,,,,,,,,,,,,,,,,,,,,,,,,,,,,,,,,,,,,,,,,,,,,,,,,,,,,,,,,,,,,,,,,,,,,,,,,,,,,,,
,,6,1.712,6,1.712,0,70,70,76,1,102,chocolate,refrigerator,,90441,001,2022-04-24_18h21.01.093,SPAMnetsValid,2021.1.4,MacIntel,47.61904762,,,,,,,,,,,,,,,,,,,,,,,,,,,,,,,,,,,,,,,,,,,,,,,,,,,,,,,,,,,,,,,,,,,,,,,,,,,,,,,,,,,,,,,,,
,,1,1.797,1,1.797,0,71,71,82,1,98,pretzel,strawberry,,90441,001,2022-04-24_18h21.01.093,SPAMnetsValid,2021.1.4,MacIntel,47.61904762,,,,,,,,,,,,,,,,,,,,,,,,,,,,,,,,,,,,,,,,,,,,,,,,,,,,,,,,,,,,,,,,,,,,,,,,,,,,,,,,,,,,,,,,,
,,7,2.791,7,2.791,0,72,72,8,1,97,chocolate,kitchen,,90441,001,2022-04-24_18h21.01.093,SPAMnetsValid,2021.1.4,MacIntel,47.61904762,,,,,,,,,,,,,,,,,,,,,,,,,,,,,,,,,,,,,,,,,,,,,,,,,,,,,,,,,,,,,,,,,,,,,,,,,,,,,,,,,,,,,,,,,
,,9,1.647,9,1.647,0,73,73,52,1,110,chocolate,cookie,,90441,001,2022-04-24_18h21.01.093,SPAMnetsValid,2021.1.4,MacIntel,47.61904762,,,,,,,,,,,,,,,,,,,,,,,,,,,,,,,,,,,,,,,,,,,,,,,,,,,,,,,,,,,,,,,,,,,,,,,,,,,,,,,,,,,,,,,,,
,,1,2.728,1,2.728,0,74,74,54,1,101,cactus,kitchen,,90441,001,2022-04-24_18h21.01.093,SPAMnetsValid,2021.1.4,MacIntel,47.61904762,,,,,,,,,,,,,,,,,,,,,,,,,,,,,,,,,,,,,,,,,,,,,,,,,,,,,,,,,,,,,,,,,,,,,,,,,,,,,,,,,,,,,,,,,
,,9,4.474,9,4.474,0,75,75,17,1,99,garden,melon,,90441,001,2022-04-24_18h21.01.093,SPAMnetsValid,2021.1.4,MacIntel,47.61904762,,,,,,,,,,,,,,,,,,,,,,,,,,,,,,,,,,,,,,,,,,,,,,,,,,,,,,,,,,,,,,,,,,,,,,,,,,,,,,,,,,,,,,,,,
,,1,2.363,1,2.363,0,76,76,3,1,129,cactus,refrigerator,,90441,001,2022-04-24_18h21.01.093,SPAMnetsValid,2021.1.4,MacIntel,47.61904762,,,,,,,,,,,,,,,,,,,,,,,,,,,,,,,,,,,,,,,,,,,,,,,,,,,,,,,,,,,,,,,,,,,,,,,,,,,,,,,,,,,,,,,,,
,,7,2.861,7,2.861,0,77,77,38,1,155,carrot,cookie,,90441,001,2022-04-24_18h21.01.093,SPAMnetsValid,2021.1.4,MacIntel,47.61904762,,,,,,,,,,,,,,,,,,,,,,,,,,,,,,,,,,,,,,,,,,,,,,,,,,,,,,,,,,,,,,,,,,,,,,,,,,,,,,,,,,,,,,,,,
,,1,5.432,1,5.432,0,78,78,36,1,161,kitchen,pretzel,,90441,001,2022-04-24_18h21.01.093,SPAMnetsValid,2021.1.4,MacIntel,47.61904762,,,,,,,,,,,,,,,,,,,,,,,,,,,,,,,,,,,,,,,,,,,,,,,,,,,,,,,,,,,,,,,,,,,,,,,,,,,,,,,,,,,,,,,,,
,,7,4.443,7,4.443,0,79,79,37,1,139,carrot,strawberry,,90441,001,2022-04-24_18h21.01.093,SPAMnetsValid,2021.1.4,MacIntel,47.61904762,,,,,,,,,,,,,,,,,,,,,,,,,,,,,,,,,,,,,,,,,,,,,,,,,,,,,,,,,,,,,,,,,,,,,,,,,,,,,,,,,,,,,,,,,
,,3,3.179,3,3.179,0,80,80,31,1,156,melon,rose,,90441,001,2022-04-24_18h21.01.093,SPAMnetsValid,2021.1.4,MacIntel,47.61904762,,,,,,,,,,,,,,,,,,,,,,,,,,,,,,,,,,,,,,,,,,,,,,,,,,,,,,,,,,,,,,,,,,,,,,,,,,,,,,,,,,,,,,,,,
,,7,1.791,7,1.791,0,81,81,23,1,148,flower,melon,,90441,001,2022-04-24_18h21.01.093,SPAMnetsValid,2021.1.4,MacIntel,47.61904762,,,,,,,,,,,,,,,,,,,,,,,,,,,,,,,,,,,,,,,,,,,,,,,,,,,,,,,,,,,,,,,,,,,,,,,,,,,,,,,,,,,,,,,,,
,,9,1.778,9,1.778,0,82,82,72,1,181,carrot,kitchen,,90441,001,2022-04-24_18h21.01.093,SPAMnetsValid,2021.1.4,MacIntel,47.61904762,,,,,,,,,,,,,,,,,,,,,,,,,,,,,,,,,,,,,,,,,,,,,,,,,,,,,,,,,,,,,,,,,,,,,,,,,,,,,,,,,,,,,,,,,
,,9,1.593,9,1.593,0,83,83,86,1,193,melon,melon,CHECK,90441,001,2022-04-24_18h21.01.093,SPAMnetsValid,2021.1.4,MacIntel,47.61904762,,,,,,,,,,,,,,,,,,,,,,,,,,,,,,,,,,,,,,,,,,,,,,,,,,,,,,,,,,,,,,,,,,,,,,,,,,,,,,,,,,,,,,,,,
,,6,1.765,6,1.765,0,84,84,48,1,186,kitchen,yogurt,,90441,001,2022-04-24_18h21.01.093,SPAMnetsValid,2021.1.4,MacIntel,47.61904762,,,,,,,,,,,,,,,,,,,,,,,,,,,,,,,,,,,,,,,,,,,,,,,,,,,,,,,,,,,,,,,,,,,,,,,,,,,,,,,,,,,,,,,,,
,,4,3.011,4,3.011,0,85,85,62,1,189,onion,tree,,90441,001,2022-04-24_18h21.01.093,SPAMnetsValid,2021.1.4,MacIntel,47.61904762,,,,,,,,,,,,,,,,,,,,,,,,,,,,,,,,,,,,,,,,,,,,,,,,,,,,,,,,,,,,,,,,,,,,,,,,,,,,,,,,,,,,,,,,,
,,2,1.628,2,1.628,0,86,86,74,1,128,melon,microwave,,90441,001,2022-04-24_18h21.01.093,SPAMnetsValid,2021.1.4,MacIntel,47.61904762,,,,,,,,,,,,,,,,,,,,,,,,,,,,,,,,,,,,,,,,,,,,,,,,,,,,,,,,,,,,,,,,,,,,,,,,,,,,,,,,,,,,,,,,,
,,3,1.741,3,1.741,0,87,87,32,1,182,flower,refrigerator,,90441,001,2022-04-24_18h21.01.093,SPAMnetsValid,2021.1.4,MacIntel,47.61904762,,,,,,,,,,,,,,,,,,,,,,,,,,,,,,,,,,,,,,,,,,,,,,,,,,,,,,,,,,,,,,,,,,,,,,,,,,,,,,,,,,,,,,,,,
,,6,2.091,6,2.091,0,88,88,93,1,134,carrot,flower,,90441,001,2022-04-24_18h21.01.093,SPAMnetsValid,2021.1.4,MacIntel,47.61904762,,,,,,,,,,,,,,,,,,,,,,,,,,,,,,,,,,,,,,,,,,,,,,,,,,,,,,,,,,,,,,,,,,,,,,,,,,,,,,,,,,,,,,,,,
,,1,3.116,1,3.116,0,89,89,46,1,123,cookie,tree,,90441,001,2022-04-24_18h21.01.093,SPAMnetsValid,2021.1.4,MacIntel,47.61904762,,,,,,,,,,,,,,,,,,,,,,,,,,,,,,,,,,,,,,,,,,,,,,,,,,,,,,,,,,,,,,,,,,,,,,,,,,,,,,,,,,,,,,,,,
,,4,1.679,4,1.679,0,90,90,29,1,163,melon,refrigerator,,90441,001,2022-04-24_18h21.01.093,SPAMnetsValid,2021.1.4,MacIntel,47.61904762,,,,,,,,,,,,,,,,,,,,,,,,,,,,,,,,,,,,,,,,,,,,,,,,,,,,,,,,,,,,,,,,,,,,,,,,,,,,,,,,,,,,,,,,,
,,7,1.178,7,1.178,0,91,91,75,1,178,cactus,carrot,,90441,001,2022-04-24_18h21.01.093,SPAMnetsValid,2021.1.4,MacIntel,47.61904762,,,,,,,,,,,,,,,,,,,,,,,,,,,,,,,,,,,,,,,,,,,,,,,,,,,,,,,,,,,,,,,,,,,,,,,,,,,,,,,,,,,,,,,,,
,,2,1.975,2,1.975,0,92,92,26,1,107,rose,tomato,,90441,001,2022-04-24_18h21.01.093,SPAMnetsValid,2021.1.4,MacIntel,47.61904762,,,,,,,,,,,,,,,,,,,,,,,,,,,,,,,,,,,,,,,,,,,,,,,,,,,,,,,,,,,,,,,,,,,,,,,,,,,,,,,,,,,,,,,,,
,,7,3.815,7,3.815,0,93,93,7,1,188,flower,tree,,90441,001,2022-04-24_18h21.01.093,SPAMnetsValid,2021.1.4,MacIntel,47.61904762,,,,,,,,,,,,,,,,,,,,,,,,,,,,,,,,,,,,,,,,,,,,,,,,,,,,,,,,,,,,,,,,,,,,,,,,,,,,,,,,,,,,,,,,,
,,8,2.178,8,2.178,0,94,94,35,1,147,cake,refrigerator,,90441,001,2022-04-24_18h21.01.093,SPAMnetsValid,2021.1.4,MacIntel,47.61904762,,,,,,,,,,,,,,,,,,,,,,,,,,,,,,,,,,,,,,,,,,,,,,,,,,,,,,,,,,,,,,,,,,,,,,,,,,,,,,,,,,,,,,,,,
,,7,2.644,7,2.644,0,95,95,43,1,185,cactus,rose,,90441,001,2022-04-24_18h21.01.093,SPAMnetsValid,2021.1.4,MacIntel,47.61904762,,,,,,,,,,,,,,,,,,,,,,,,,,,,,,,,,,,,,,,,,,,,,,,,,,,,,,,,,,,,,,,,,,,,,,,,,,,,,,,,,,,,,,,,,
,,5,2.062,5,2.062,0,96,96,73,1,135,carrot,oven,,90441,001,2022-04-24_18h21.01.093,SPAMnetsValid,2021.1.4,MacIntel,47.61904762,,,,,,,,,,,,,,,,,,,,,,,,,,,,,,,,,,,,,,,,,,,,,,,,,,,,,,,,,,,,,,,,,,,,,,,,,,,,,,,,,,,,,,,,,
,,,,,,,,,,,,,,,90441,001,2022-04-24_18h21.01.093,SPAMnetsValid,2021.1.4,MacIntel,47.61904762,0,0,0,0,1,,,,,,,,,,,,,,,,,,,,,,,,,,,,,,,,,,,,,,,,,,,,,,,,,,,,,,,,,,,,,,,,,,,,,,,,,,,,,,,,,,,,
,,,,,,,,,,,,,,,90441,001,2022-04-24_18h21.01.093,SPAMnetsValid,2021.1.4,MacIntel,47.61904762,,,,,,0,0,0,1,1,0,1,,,,,,,,,,,,,,,,,,,,,,,,,,,,,,,,,,,,,,,,,,,,,,,,,,,,,,,,,,,,,,,,,,,,,,,,,,,,,
,,,,9,2.872,,,,,,2,kitchen,onion,,90441,001,2022-04-24_18h21.01.093,SPAMnetsValid,2021.1.4,MacIntel,47.61904762,,,,,,,,,,,,,9,2.872,0,0,0,91,1,,,,,,,,,,,,,,,,,,,,,,,,,,,,,,,,,,,,,,,,,,,,,,,,,,,,,,,,,,,,,,,,,,,,,,
,,,,7,2.078,,,,,,7,melon,tree,,90441,001,2022-04-24_18h21.01.093,SPAMnetsValid,2021.1.4,MacIntel,47.61904762,,,,,,,,,,,,,7,2.078,0,1,1,77,1,,,,,,,,,,,,,,,,,,,,,,,,,,,,,,,,,,,,,,,,,,,,,,,,,,,,,,,,,,,,,,,,,,,,,,
,,,,1,2.474,,,,,,44,cookie,melon,,90441,001,2022-04-24_18h21.01.093,SPAMnetsValid,2021.1.4,MacIntel,47.61904762,,,,,,,,,,,,,1,2.474,0,2,2,92,1,,,,,,,,,,,,,,,,,,,,,,,,,,,,,,,,,,,,,,,,,,,,,,,,,,,,,,,,,,,,,,,,,,,,,,
,,,,2,1.727,,,,,,87,carrot,yogurt,,90441,001,2022-04-24_18h21.01.093,SPAMnetsValid,2021.1.4,MacIntel,47.61904762,,,,,,,,,,,,,2,1.727,0,3,3,6,1,,,,,,,,,,,,,,,,,,,,,,,,,,,,,,,,,,,,,,,,,,,,,,,,,,,,,,,,,,,,,,,,,,,,,,
,,,,1,1.691,,,,,,53,garden,pretzel,,90441,001,2022-04-24_18h21.01.093,SPAMnetsValid,2021.1.4,MacIntel,47.61904762,,,,,,,,,,,,,1,1.691,0,4,4,0,1,,,,,,,,,,,,,,,,,,,,,,,,,,,,,,,,,,,,,,,,,,,,,,,,,,,,,,,,,,,,,,,,,,,,,,
,,,,1,1.576,,,,,,48,flower,oven,,90441,001,2022-04-24_18h21.01.093,SPAMnetsValid,2021.1.4,MacIntel,47.61904762,,,,,,,,,,,,,1,1.576,0,5,5,15,1,,,,,,,,,,,,,,,,,,,,,,,,,,,,,,,,,,,,,,,,,,,,,,,,,,,,,,,,,,,,,,,,,,,,,,
,,,,7,2.611,,,,,,58,garden,oven,,90441,001,2022-04-24_18h21.01.093,SPAMnetsValid,2021.1.4,MacIntel,47.61904762,,,,,,,,,,,,,7,2.611,0,6,6,37,1,,,,,,,,,,,,,,,,,,,,,,,,,,,,,,,,,,,,,,,,,,,,,,,,,,,,,,,,,,,,,,,,,,,,,,
,,,,6,2.412,,,,,,60,cactus,onion,,90441,001,2022-04-24_18h21.01.093,SPAMnetsValid,2021.1.4,MacIntel,47.61904762,,,,,,,,,,,,,6,2.412,0,7,7,81,1,,,,,,,,,,,,,,,,,,,,,,,,,,,,,,,,,,,,,,,,,,,,,,,,,,,,,,,,,,,,,,,,,,,,,,
,,,,1,3.479,,,,,,40,broom,cake,,90441,001,2022-04-24_18h21.01.093,SPAMnetsValid,2021.1.4,MacIntel,47.61904762,,,,,,,,,,,,,1,3.479,0,8,8,32,1,,,,,,,,,,,,,,,,,,,,,,,,,,,,,,,,,,,,,,,,,,,,,,,,,,,,,,,,,,,,,,,,,,,,,,
,,,,7,1.724,,,,,,79,garden,strawberry,,90441,001,2022-04-24_18h21.01.093,SPAMnetsValid,2021.1.4,MacIntel,47.61904762,,,,,,,,,,,,,7,1.724,0,9,9,87,1,,,,,,,,,,,,,,,,,,,,,,,,,,,,,,,,,,,,,,,,,,,,,,,,,,,,,,,,,,,,,,,,,,,,,,
,,,,1,1.627,,,,,,45,onion,pretzel,,90441,001,2022-04-24_18h21.01.093,SPAMnetsValid,2021.1.4,MacIntel,47.61904762,,,,,,,,,,,,,1,1.627,0,10,10,69,1,,,,,,,,,,,,,,,,,,,,,,,,,,,,,,,,,,,,,,,,,,,,,,,,,,,,,,,,,,,,,,,,,,,,,,
,,,,7,1.477,,,,,,20,rose,tree,,90441,001,2022-04-24_18h21.01.093,SPAMnetsValid,2021.1.4,MacIntel,47.61904762,,,,,,,,,,,,,7,1.477,0,11,11,66,1,,,,,,,,,,,,,,,,,,,,,,,,,,,,,,,,,,,,,,,,,,,,,,,,,,,,,,,,,,,,,,,,,,,,,,
,,,,9,2.682,,,,,,76,garden,rose,,90441,001,2022-04-24_18h21.01.093,SPAMnetsValid,2021.1.4,MacIntel,47.61904762,,,,,,,,,,,,,9,2.682,0,12,12,19,1,,,,,,,,,,,,,,,,,,,,,,,,,,,,,,,,,,,,,,,,,,,,,,,,,,,,,,,,,,,,,,,,,,,,,,
,,,,1,2.863,,,,,,35,flower,pretzel,,90441,001,2022-04-24_18h21.01.093,SPAMnetsValid,2021.1.4,MacIntel,47.61904762,,,,,,,,,,,,,1,2.863,0,13,13,26,1,,,,,,,,,,,,,,,,,,,,,,,,,,,,,,,,,,,,,,,,,,,,,,,,,,,,,,,,,,,,,,,,,,,,,,
,,,,2,1.995,,,,,,91,microwave,rose,,90441,001,2022-04-24_18h21.01.093,SPAMnetsValid,2021.1.4,MacIntel,47.61904762,,,,,,,,,,,,,2,1.995,0,14,14,84,1,,,,,,,,,,,,,,,,,,,,,,,,,,,,,,,,,,,,,,,,,,,,,,,,,,,,,,,,,,,,,,,,,,,,,,
,,,,2,1.466,,,,,,19,microwave,pretzel,,90441,001,2022-04-24_18h21.01.093,SPAMnetsValid,2021.1.4,MacIntel,47.61904762,,,,,,,,,,,,,2,1.466,0,15,15,41,1,,,,,,,,,,,,,,,,,,,,,,,,,,,,,,,,,,,,,,,,,,,,,,,,,,,,,,,,,,,,,,,,,,,,,,
,,,,7,1.629,,,,,,6,garden,onion,,90441,001,2022-04-24_18h21.01.093,SPAMnetsValid,2021.1.4,MacIntel,47.61904762,,,,,,,,,,,,,7,1.629,0,16,16,83,1,,,,,,,,,,,,,,,,,,,,,,,,,,,,,,,,,,,,,,,,,,,,,,,,,,,,,,,,,,,,,,,,,,,,,,
,,,,3,1.959,,,,,,66,melon,yogurt,,90441,001,2022-04-24_18h21.01.093,SPAMnetsValid,2021.1.4,MacIntel,47.61904762,,,,,,,,,,,,,3,1.959,0,17,17,48,1,,,,,,,,,,,,,,,,,,,,,,,,,,,,,,,,,,,,,,,,,,,,,,,,,,,,,,,,,,,,,,,,,,,,,,
,,,,5,2.278,,,,,,8,broom,melon,,90441,001,2022-04-24_18h21.01.093,SPAMnetsValid,2021.1.4,MacIntel,47.61904762,,,,,,,,,,,,,5,2.278,0,18,18,59,1,,,,,,,,,,,,,,,,,,,,,,,,,,,,,,,,,,,,,,,,,,,,,,,,,,,,,,,,,,,,,,,,,,,,,,
,,,,9,2.095,,,,,,47,onion,tomato,,90441,001,2022-04-24_18h21.01.093,SPAMnetsValid,2021.1.4,MacIntel,47.61904762,,,,,,,,,,,,,9,2.095,0,19,19,51,1,,,,,,,,,,,,,,,,,,,,,,,,,,,,,,,,,,,,,,,,,,,,,,,,,,,,,,,,,,,,,,,,,,,,,,
,,,,9,2.081,,,,,,4,chocolate,pretzel,,90441,001,2022-04-24_18h21.01.093,SPAMnetsValid,2021.1.4,MacIntel,47.61904762,,,,,,,,,,,,,9,2.081,0,20,20,52,1,,,,,,,,,,,,,,,,,,,,,,,,,,,,,,,,,,,,,,,,,,,,,,,,,,,,,,,,,,,,,,,,,,,,,,
,,,,7,2.31,,,,,,68,flower,tomato,,90441,001,2022-04-24_18h21.01.093,SPAMnetsValid,2021.1.4,MacIntel,47.61904762,,,,,,,,,,,,,7,2.31,0,21,21,94,1,,,,,,,,,,,,,,,,,,,,,,,,,,,,,,,,,,,,,,,,,,,,,,,,,,,,,,,,,,,,,,,,,,,,,,
,,,,7,1.416,,,,,,84,oven,tomato,,90441,001,2022-04-24_18h21.01.093,SPAMnetsValid,2021.1.4,MacIntel,47.61904762,,,,,,,,,,,,,7,1.416,0,22,22,28,1,,,,,,,,,,,,,,,,,,,,,,,,,,,,,,,,,,,,,,,,,,,,,,,,,,,,,,,,,,,,,,,,,,,,,,
,,,,1,1.676,,,,,,72,broom,onion,,90441,001,2022-04-24_18h21.01.093,SPAMnetsValid,2021.1.4,MacIntel,47.61904762,,,,,,,,,,,,,1,1.676,0,23,23,27,1,,,,,,,,,,,,,,,,,,,,,,,,,,,,,,,,,,,,,,,,,,,,,,,,,,,,,,,,,,,,,,,,,,,,,,
,,,,1,1.314,,,,,,74,broom,pretzel,,90441,001,2022-04-24_18h21.01.093,SPAMnetsValid,2021.1.4,MacIntel,47.61904762,,,,,,,,,,,,,1,1.314,0,24,24,40,1,,,,,,,,,,,,,,,,,,,,,,,,,,,,,,,,,,,,,,,,,,,,,,,,,,,,,,,,,,,,,,,,,,,,,,
,,,,1,1.692,,,,,,83,broom,carrot,,90441,001,2022-04-24_18h21.01.093,SPAMnetsValid,2021.1.4,MacIntel,47.61904762,,,,,,,,,,,,,1,1.692,0,25,25,4,1,,,,,,,,,,,,,,,,,,,,,,,,,,,,,,,,,,,,,,,,,,,,,,,,,,,,,,,,,,,,,,,,,,,,,,
,,,,7,1.777,,,,,,30,cookie,pretzel,,90441,001,2022-04-24_18h21.01.093,SPAMnetsValid,2021.1.4,MacIntel,47.61904762,,,,,,,,,,,,,7,1.777,0,26,26,78,1,,,,,,,,,,,,,,,,,,,,,,,,,,,,,,,,,,,,,,,,,,,,,,,,,,,,,,,,,,,,,,,,,,,,,,
,,,,2,3.342,,,,,,46,garden,yogurt,,90441,001,2022-04-24_18h21.01.093,SPAMnetsValid,2021.1.4,MacIntel,47.61904762,,,,,,,,,,,,,2,3.342,0,27,27,65,1,,,,,,,,,,,,,,,,,,,,,,,,,,,,,,,,,,,,,,,,,,,,,,,,,,,,,,,,,,,,,,,,,,,,,,
,,,,9,1.446,,,,,,22,kitchen,strawberry,,90441,001,2022-04-24_18h21.01.093,SPAMnetsValid,2021.1.4,MacIntel,47.61904762,,,,,,,,,,,,,9,1.446,0,28,28,2,1,,,,,,,,,,,,,,,,,,,,,,,,,,,,,,,,,,,,,,,,,,,,,,,,,,,,,,,,,,,,,,,,,,,,,,
,,,,9,2.91,,,,,,49,flower,strawberry,,90441,001,2022-04-24_18h21.01.093,SPAMnetsValid,2021.1.4,MacIntel,47.61904762,,,,,,,,,,,,,9,2.91,0,29,29,3,1,,,,,,,,,,,,,,,,,,,,,,,,,,,,,,,,,,,,,,,,,,,,,,,,,,,,,,,,,,,,,,,,,,,,,,
,,,,1,3.915,,,,,,1,rose,yogurt,,90441,001,2022-04-24_18h21.01.093,SPAMnetsValid,2021.1.4,MacIntel,47.61904762,,,,,,,,,,,,,1,3.915,0,30,30,55,1,,,,,,,,,,,,,,,,,,,,,,,,,,,,,,,,,,,,,,,,,,,,,,,,,,,,,,,,,,,,,,,,,,,,,,
,,,,1,1.808,,,,,,73,broom,chocolate,,90441,001,2022-04-24_18h21.01.093,SPAMnetsValid,2021.1.4,MacIntel,47.61904762,,,,,,,,,,,,,1,1.808,0,31,31,47,1,,,,,,,,,,,,,,,,,,,,,,,,,,,,,,,,,,,,,,,,,,,,,,,,,,,,,,,,,,,,,,,,,,,,,,
,,,,9,1.744,,,,,,3,cake,oven,,90441,001,2022-04-24_18h21.01.093,SPAMnetsValid,2021.1.4,MacIntel,47.61904762,,,,,,,,,,,,,9,1.744,0,32,32,30,1,,,,,,,,,,,,,,,,,,,,,,,,,,,,,,,,,,,,,,,,,,,,,,,,,,,,,,,,,,,,,,,,,,,,,,
,,,,1,1.948,,,,,,43,chocolate,tomato,,90441,001,2022-04-24_18h21.01.093,SPAMnetsValid,2021.1.4,MacIntel,47.61904762,,,,,,,,,,,,,1,1.948,0,33,33,8,1,,,,,,,,,,,,,,,,,,,,,,,,,,,,,,,,,,,,,,,,,,,,,,,,,,,,,,,,,,,,,,,,,,,,,,
,,,,5,1.599,,,,,,88,cactus,melon,,90441,001,2022-04-24_18h21.01.093,SPAMnetsValid,2021.1.4,MacIntel,47.61904762,,,,,,,,,,,,,5,1.599,0,34,34,38,1,,,,,,,,,,,,,,,,,,,,,,,,,,,,,,,,,,,,,,,,,,,,,,,,,,,,,,,,,,,,,,,,,,,,,,
,,,,3,2.078,,,,,,67,flower,yogurt,,90441,001,2022-04-24_18h21.01.093,SPAMnetsValid,2021.1.4,MacIntel,47.61904762,,,,,,,,,,,,,3,2.078,0,35,35,12,1,,,,,,,,,,,,,,,,,,,,,,,,,,,,,,,,,,,,,,,,,,,,,,,,,,,,,,,,,,,,,,,,,,,,,,
,,,,2,3.082,,,,,,39,melon,pretzel,,90441,001,2022-04-24_18h21.01.093,SPAMnetsValid,2021.1.4,MacIntel,47.61904762,,,,,,,,,,,,,2,3.082,0,36,36,20,1,,,,,,,,,,,,,,,,,,,,,,,,,,,,,,,,,,,,,,,,,,,,,,,,,,,,,,,,,,,,,,,,,,,,,,
,,,,1,4.077,,,,,,92,broom,flower,,90441,001,2022-04-24_18h21.01.093,SPAMnetsValid,2021.1.4,MacIntel,47.61904762,,,,,,,,,,,,,1,4.077,0,37,37,88,1,,,,,,,,,,,,,,,,,,,,,,,,,,,,,,,,,,,,,,,,,,,,,,,,,,,,,,,,,,,,,,,,,,,,,,
,,,,9,3.008,,,,,,36,broom,kitchen,,90441,001,2022-04-24_18h21.01.093,SPAMnetsValid,2021.1.4,MacIntel,47.61904762,,,,,,,,,,,,,9,3.008,0,38,38,76,1,,,,,,,,,,,,,,,,,,,,,,,,,,,,,,,,,,,,,,,,,,,,,,,,,,,,,,,,,,,,,,,,,,,,,,
,,,,9,1.678,,,,,,63,cake,cookie,,90441,001,2022-04-24_18h21.01.093,SPAMnetsValid,2021.1.4,MacIntel,47.61904762,,,,,,,,,,,,,9,1.678,0,39,39,93,1,,,,,,,,,,,,,,,,,,,,,,,,,,,,,,,,,,,,,,,,,,,,,,,,,,,,,,,,,,,,,,,,,,,,,,
,,,,1,1.278,,,,,,90,cactus,cake,,90441,001,2022-04-24_18h21.01.093,SPAMnetsValid,2021.1.4,MacIntel,47.61904762,,,,,,,,,,,,,1,1.278,0,40,40,85,1,,,,,,,,,,,,,,,,,,,,,,,,,,,,,,,,,,,,,,,,,,,,,,,,,,,,,,,,,,,,,,,,,,,,,,
,,,,1,1.678,,,,,,24,cookie,tomato,,90441,001,2022-04-24_18h21.01.093,SPAMnetsValid,2021.1.4,MacIntel,47.61904762,,,,,,,,,,,,,1,1.678,0,41,41,68,1,,,,,,,,,,,,,,,,,,,,,,,,,,,,,,,,,,,,,,,,,,,,,,,,,,,,,,,,,,,,,,,,,,,,,,
,,,,1,1.495,,,,,,75,cookie,onion,,90441,001,2022-04-24_18h21.01.093,SPAMnetsValid,2021.1.4,MacIntel,47.61904762,,,,,,,,,,,,,1,1.495,0,42,42,9,1,,,,,,,,,,,,,,,,,,,,,,,,,,,,,,,,,,,,,,,,,,,,,,,,,,,,,,,,,,,,,,,,,,,,,,
,,,,6,2.577,,,,,,69,carrot,refrigerator,,90441,001,2022-04-24_18h21.01.093,SPAMnetsValid,2021.1.4,MacIntel,47.61904762,,,,,,,,,,,,,6,2.577,0,43,43,75,1,,,,,,,,,,,,,,,,,,,,,,,,,,,,,,,,,,,,,,,,,,,,,,,,,,,,,,,,,,,,,,,,,,,,,,
,,,,2,2.078,,,,,,64,chocolate,garden,,90441,001,2022-04-24_18h21.01.093,SPAMnetsValid,2021.1.4,MacIntel,47.61904762,,,,,,,,,,,,,2,2.078,0,44,44,14,1,,,,,,,,,,,,,,,,,,,,,,,,,,,,,,,,,,,,,,,,,,,,,,,,,,,,,,,,,,,,,,,,,,,,,,
,,,,1,2.377,,,,,,26,tomato,yogurt,,90441,001,2022-04-24_18h21.01.093,SPAMnetsValid,2021.1.4,MacIntel,47.61904762,,,,,,,,,,,,,1,2.377,0,45,45,13,1,,,,,,,,,,,,,,,,,,,,,,,,,,,,,,,,,,,,,,,,,,,,,,,,,,,,,,,,,,,,,,,,,,,,,,
,,,,6,1.816,,,,,,18,onion,refrigerator,,90441,001,2022-04-24_18h21.01.093,SPAMnetsValid,2021.1.4,MacIntel,47.61904762,,,,,,,,,,,,,6,1.816,0,46,46,62,1,,,,,,,,,,,,,,,,,,,,,,,,,,,,,,,,,,,,,,,,,,,,,,,,,,,,,,,,,,,,,,,,,,,,,,
,,,,1,1.532,,,,,,29,chocolate,melon,,90441,001,2022-04-24_18h21.01.093,SPAMnetsValid,2021.1.4,MacIntel,47.61904762,,,,,,,,,,,,,1,1.532,0,47,47,34,1,,,,,,,,,,,,,,,,,,,,,,,,,,,,,,,,,,,,,,,,,,,,,,,,,,,,,,,,,,,,,,,,,,,,,,
,,,,1,2.977,,,,,,41,broom,cactus,,90441,001,2022-04-24_18h21.01.093,SPAMnetsValid,2021.1.4,MacIntel,47.61904762,,,,,,,,,,,,,1,2.977,0,48,48,46,1,,,,,,,,,,,,,,,,,,,,,,,,,,,,,,,,,,,,,,,,,,,,,,,,,,,,,,,,,,,,,,,,,,,,,,
,,,,2,2.429,,,,,,10,flower,onion,,90441,001,2022-04-24_18h21.01.093,SPAMnetsValid,2021.1.4,MacIntel,47.61904762,,,,,,,,,,,,,2,2.429,0,49,49,45,1,,,,,,,,,,,,,,,,,,,,,,,,,,,,,,,,,,,,,,,,,,,,,,,,,,,,,,,,,,,,,,,,,,,,,,
,,,,1,1.728,,,,,,31,cactus,pretzel,,90441,001,2022-04-24_18h21.01.093,SPAMnetsValid,2021.1.4,MacIntel,47.61904762,,,,,,,,,,,,,1,1.728,0,50,50,1,1,,,,,,,,,,,,,,,,,,,,,,,,,,,,,,,,,,,,,,,,,,,,,,,,,,,,,,,,,,,,,,,,,,,,,,
,,,,1,1.832,,,,,,13,broom,yogurt,,90441,001,2022-04-24_18h21.01.093,SPAMnetsValid,2021.1.4,MacIntel,47.61904762,,,,,,,,,,,,,1,1.832,0,51,51,5,1,,,,,,,,,,,,,,,,,,,,,,,,,,,,,,,,,,,,,,,,,,,,,,,,,,,,,,,,,,,,,,,,,,,,,,
,,,,9,1.865,,,,,,82,cake,kitchen,,90441,001,2022-04-24_18h21.01.093,SPAMnetsValid,2021.1.4,MacIntel,47.61904762,,,,,,,,,,,,,9,1.865,0,52,52,96,1,,,,,,,,,,,,,,,,,,,,,,,,,,,,,,,,,,,,,,,,,,,,,,,,,,,,,,,,,,,,,,,,,,,,,,
,,,,2,2.077,,,,,,85,cake,tree,,90441,001,2022-04-24_18h21.01.093,SPAMnetsValid,2021.1.4,MacIntel,47.61904762,,,,,,,,,,,,,2,2.077,0,53,53,18,1,,,,,,,,,,,,,,,,,,,,,,,,,,,,,,,,,,,,,,,,,,,,,,,,,,,,,,,,,,,,,,,,,,,,,,
,,,,1,3.149,,,,,,65,broom,garden,,90441,001,2022-04-24_18h21.01.093,SPAMnetsValid,2021.1.4,MacIntel,47.61904762,,,,,,,,,,,,,1,3.149,0,54,54,23,1,,,,,,,,,,,,,,,,,,,,,,,,,,,,,,,,,,,,,,,,,,,,,,,,,,,,,,,,,,,,,,,,,,,,,,
,,,,7,3.427,,,,,,42,garden,kitchen,,90441,001,2022-04-24_18h21.01.093,SPAMnetsValid,2021.1.4,MacIntel,47.61904762,,,,,,,,,,,,,7,3.427,0,55,55,29,1,,,,,,,,,,,,,,,,,,,,,,,,,,,,,,,,,,,,,,,,,,,,,,,,,,,,,,,,,,,,,,,,,,,,,,
,,,,1,1.929,,,,,,5,oven,tree,,90441,001,2022-04-24_18h21.01.093,SPAMnetsValid,2021.1.4,MacIntel,47.61904762,,,,,,,,,,,,,1,1.929,0,56,56,70,1,,,,,,,,,,,,,,,,,,,,,,,,,,,,,,,,,,,,,,,,,,,,,,,,,,,,,,,,,,,,,,,,,,,,,,
,,,,9,1.492,,,,,,192,microwave,microwave,CHECK,90441,001,2022-04-24_18h21.01.093,SPAMnetsValid,2021.1.4,MacIntel,47.61904762,,,,,,,,,,,,,9,1.492,0,57,57,53,1,,,,,,,,,,,,,,,,,,,,,,,,,,,,,,,,,,,,,,,,,,,,,,,,,,,,,,,,,,,,,,,,,,,,,,
,,,,3,3.099,,,,,,32,cake,microwave,,90441,001,2022-04-24_18h21.01.093,SPAMnetsValid,2021.1.4,MacIntel,47.61904762,,,,,,,,,,,,,3,3.099,0,58,58,33,1,,,,,,,,,,,,,,,,,,,,,,,,,,,,,,,,,,,,,,,,,,,,,,,,,,,,,,,,,,,,,,,,,,,,,,
,,,,1,1.532,,,,,,81,pretzel,yogurt,,90441,001,2022-04-24_18h21.01.093,SPAMnetsValid,2021.1.4,MacIntel,47.61904762,,,,,,,,,,,,,1,1.532,0,59,59,50,1,,,,,,,,,,,,,,,,,,,,,,,,,,,,,,,,,,,,,,,,,,,,,,,,,,,,,,,,,,,,,,,,,,,,,,
,,,,7,2.644,,,,,,50,carrot,rose,,90441,001,2022-04-24_18h21.01.093,SPAMnetsValid,2021.1.4,MacIntel,47.61904762,,,,,,,,,,,,,7,2.644,0,60,60,73,1,,,,,,,,,,,,,,,,,,,,,,,,,,,,,,,,,,,,,,,,,,,,,,,,,,,,,,,,,,,,,,,,,,,,,,
,,,,1,1.226,,,,,,80,chocolate,tree,,90441,001,2022-04-24_18h21.01.093,SPAMnetsValid,2021.1.4,MacIntel,47.61904762,,,,,,,,,,,,,1,1.226,0,61,61,89,1,,,,,,,,,,,,,,,,,,,,,,,,,,,,,,,,,,,,,,,,,,,,,,,,,,,,,,,,,,,,,,,,,,,,,,
,,,,7,2.345,,,,,,55,tomato,tree,,90441,001,2022-04-24_18h21.01.093,SPAMnetsValid,2021.1.4,MacIntel,47.61904762,,,,,,,,,,,,,7,2.345,0,62,62,35,1,,,,,,,,,,,,,,,,,,,,,,,,,,,,,,,,,,,,,,,,,,,,,,,,,,,,,,,,,,,,,,,,,,,,,,
,,,,6,2.431,,,,,,14,broom,cookie,,90441,001,2022-04-24_18h21.01.093,SPAMnetsValid,2021.1.4,MacIntel,47.61904762,,,,,,,,,,,,,6,2.431,0,63,63,16,1,,,,,,,,,,,,,,,,,,,,,,,,,,,,,,,,,,,,,,,,,,,,,,,,,,,,,,,,,,,,,,,,,,,,,,
,,,,1,2.261,,,,,,34,melon,oven,,90441,001,2022-04-24_18h21.01.093,SPAMnetsValid,2021.1.4,MacIntel,47.61904762,,,,,,,,,,,,,1,2.261,0,64,64,7,1,,,,,,,,,,,,,,,,,,,,,,,,,,,,,,,,,,,,,,,,,,,,,,,,,,,,,,,,,,,,,,,,,,,,,,
,,,,1,2.663,,,,,,17,carrot,melon,,90441,001,2022-04-24_18h21.01.093,SPAMnetsValid,2021.1.4,MacIntel,47.61904762,,,,,,,,,,,,,1,2.663,0,65,65,24,1,,,,,,,,,,,,,,,,,,,,,,,,,,,,,,,,,,,,,,,,,,,,,,,,,,,,,,,,,,,,,,,,,,,,,,
,,,,1,2.708,,,,,,23,flower,microwave,,90441,001,2022-04-24_18h21.01.093,SPAMnetsValid,2021.1.4,MacIntel,47.61904762,,,,,,,,,,,,,1,2.708,0,66,66,25,1,,,,,,,,,,,,,,,,,,,,,,,,,,,,,,,,,,,,,,,,,,,,,,,,,,,,,,,,,,,,,,,,,,,,,,
,,,,4,2.112,,,,,,95,broom,refrigerator,,90441,001,2022-04-24_18h21.01.093,SPAMnetsValid,2021.1.4,MacIntel,47.61904762,,,,,,,,,,,,,4,2.112,0,67,67,90,1,,,,,,,,,,,,,,,,,,,,,,,,,,,,,,,,,,,,,,,,,,,,,,,,,,,,,,,,,,,,,,,,,,,,,,
,,,,5,4.444,,,,,,15,onion,oven,,90441,001,2022-04-24_18h21.01.093,SPAMnetsValid,2021.1.4,MacIntel,47.61904762,,,,,,,,,,,,,5,4.444,0,68,68,39,1,,,,,,,,,,,,,,,,,,,,,,,,,,,,,,,,,,,,,,,,,,,,,,,,,,,,,,,,,,,,,,,,,,,,,,
,,,,5,1.183,,,,,,78,cookie,rose,,90441,001,2022-04-24_18h21.01.093,SPAMnetsValid,2021.1.4,MacIntel,47.61904762,,,,,,,,,,,,,5,1.183,0,69,69,56,1,,,,,,,,,,,,,,,,,,,,,,,,,,,,,,,,,,,,,,,,,,,,,,,,,,,,,,,,,,,,,,,,,,,,,,
,,,,5,2.627,,,,,,57,flower,kitchen,,90441,001,2022-04-24_18h21.01.093,SPAMnetsValid,2021.1.4,MacIntel,47.61904762,,,,,,,,,,,,,5,2.627,0,70,70,49,1,,,,,,,,,,,,,,,,,,,,,,,,,,,,,,,,,,,,,,,,,,,,,,,,,,,,,,,,,,,,,,,,,,,,,,
,,,,6,1.76,,,,,,59,rose,strawberry,,90441,001,2022-04-24_18h21.01.093,SPAMnetsValid,2021.1.4,MacIntel,47.61904762,,,,,,,,,,,,,6,1.76,0,71,71,72,1,,,,,,,,,,,,,,,,,,,,,,,,,,,,,,,,,,,,,,,,,,,,,,,,,,,,,,,,,,,,,,,,,,,,,,
,,,,1,1.409,,,,,,27,cactus,cookie,,90441,001,2022-04-24_18h21.01.093,SPAMnetsValid,2021.1.4,MacIntel,47.61904762,,,,,,,,,,,,,1,1.409,0,72,72,17,1,,,,,,,,,,,,,,,,,,,,,,,,,,,,,,,,,,,,,,,,,,,,,,,,,,,,,,,,,,,,,,,,,,,,,,
,,,,1,1.708,,,,,,11,refrigerator,tree,,90441,001,2022-04-24_18h21.01.093,SPAMnetsValid,2021.1.4,MacIntel,47.61904762,,,,,,,,,,,,,1,1.708,0,73,73,43,1,,,,,,,,,,,,,,,,,,,,,,,,,,,,,,,,,,,,,,,,,,,,,,,,,,,,,,,,,,,,,,,,,,,,,,
,,,,9,2.41,,,,,,56,cactus,tree,,90441,001,2022-04-24_18h21.01.093,SPAMnetsValid,2021.1.4,MacIntel,47.61904762,,,,,,,,,,,,,9,2.41,0,74,74,21,1,,,,,,,,,,,,,,,,,,,,,,,,,,,,,,,,,,,,,,,,,,,,,,,,,,,,,,,,,,,,,,,,,,,,,,
,,,,7,1.933,,,,,,77,refrigerator,yogurt,,90441,001,2022-04-24_18h21.01.093,SPAMnetsValid,2021.1.4,MacIntel,47.61904762,,,,,,,,,,,,,7,1.933,0,75,75,42,1,,,,,,,,,,,,,,,,,,,,,,,,,,,,,,,,,,,,,,,,,,,,,,,,,,,,,,,,,,,,,,,,,,,,,,
,,,,1,1.844,,,,,,51,onion,strawberry,,90441,001,2022-04-24_18h21.01.093,SPAMnetsValid,2021.1.4,MacIntel,47.61904762,,,,,,,,,,,,,1,1.844,0,76,76,86,1,,,,,,,,,,,,,,,,,,,,,,,,,,,,,,,,,,,,,,,,,,,,,,,,,,,,,,,,,,,,,,,,,,,,,,
,,,,7,1.814,,,,,,12,cookie,yogurt,,90441,001,2022-04-24_18h21.01.093,SPAMnetsValid,2021.1.4,MacIntel,47.61904762,,,,,,,,,,,,,7,1.814,0,77,77,36,1,,,,,,,,,,,,,,,,,,,,,,,,,,,,,,,,,,,,,,,,,,,,,,,,,,,,,,,,,,,,,,,,,,,,,,
,,,,1,1.798,,,,,,38,pretzel,refrigerator,,90441,001,2022-04-24_18h21.01.093,SPAMnetsValid,2021.1.4,MacIntel,47.61904762,,,,,,,,,,,,,1,1.798,0,78,78,71,1,,,,,,,,,,,,,,,,,,,,,,,,,,,,,,,,,,,,,,,,,,,,,,,,,,,,,,,,,,,,,,,,,,,,,,
,,,,1,1.494,,,,,,71,broom,rose,,90441,001,2022-04-24_18h21.01.093,SPAMnetsValid,2021.1.4,MacIntel,47.61904762,,,,,,,,,,,,,1,1.494,0,79,79,61,1,,,,,,,,,,,,,,,,,,,,,,,,,,,,,,,,,,,,,,,,,,,,,,,,,,,,,,,,,,,,,,,,,,,,,,
,,,,9,1.393,,,,,,89,chocolate,rose,,90441,001,2022-04-24_18h21.01.093,SPAMnetsValid,2021.1.4,MacIntel,47.61904762,,,,,,,,,,,,,9,1.393,0,80,80,60,1,,,,,,,,,,,,,,,,,,,,,,,,,,,,,,,,,,,,,,,,,,,,,,,,,,,,,,,,,,,,,,,,,,,,,,
,,,,1,1.891,,,,,,21,cake,onion,,90441,001,2022-04-24_18h21.01.093,SPAMnetsValid,2021.1.4,MacIntel,47.61904762,,,,,,,,,,,,,1,1.891,0,81,81,63,1,,,,,,,,,,,,,,,,,,,,,,,,,,,,,,,,,,,,,,,,,,,,,,,,,,,,,,,,,,,,,,,,,,,,,,
,,,,9,1.778,,,,,,191,cake,cake,CHECK,90441,001,2022-04-24_18h21.01.093,SPAMnetsValid,2021.1.4,MacIntel,47.61904762,,,,,,,,,,,,,9,1.778,0,82,82,10,1,,,,,,,,,,,,,,,,,,,,,,,,,,,,,,,,,,,,,,,,,,,,,,,,,,,,,,,,,,,,,,,,,,,,,,
,,,,6,1.479,,,,,,62,kitchen,rose,,90441,001,2022-04-24_18h21.01.093,SPAMnetsValid,2021.1.4,MacIntel,47.61904762,,,,,,,,,,,,,6,1.479,0,83,83,57,1,,,,,,,,,,,,,,,,,,,,,,,,,,,,,,,,,,,,,,,,,,,,,,,,,,,,,,,,,,,,,,,,,,,,,,
,,,,7,1.408,,,,,,37,garden,refrigerator,,90441,001,2022-04-24_18h21.01.093,SPAMnetsValid,2021.1.4,MacIntel,47.61904762,,,,,,,,,,,,,7,1.408,0,84,84,11,1,,,,,,,,,,,,,,,,,,,,,,,,,,,,,,,,,,,,,,,,,,,,,,,,,,,,,,,,,,,,,,,,,,,,,,
,,,,7,1.629,,,,,,54,chocolate,yogurt,,90441,001,2022-04-24_18h21.01.093,SPAMnetsValid,2021.1.4,MacIntel,47.61904762,,,,,,,,,,,,,7,1.629,0,85,85,67,1,,,,,,,,,,,,,,,,,,,,,,,,,,,,,,,,,,,,,,,,,,,,,,,,,,,,,,,,,,,,,,,,,,,,,,
,,,,2,1.461,,,,,,28,cake,melon,,90441,001,2022-04-24_18h21.01.093,SPAMnetsValid,2021.1.4,MacIntel,47.61904762,,,,,,,,,,,,,2,1.461,0,86,86,54,1,,,,,,,,,,,,,,,,,,,,,,,,,,,,,,,,,,,,,,,,,,,,,,,,,,,,,,,,,,,,,,,,,,,,,,
,,,,9,1.28,,,,,,93,kitchen,oven,,90441,001,2022-04-24_18h21.01.093,SPAMnetsValid,2021.1.4,MacIntel,47.61904762,,,,,,,,,,,,,9,1.28,0,87,87,82,1,,,,,,,,,,,,,,,,,,,,,,,,,,,,,,,,,,,,,,,,,,,,,,,,,,,,,,,,,,,,,,,,,,,,,,
,,,,2,1.877,,,,,,61,strawberry,tomato,,90441,001,2022-04-24_18h21.01.093,SPAMnetsValid,2021.1.4,MacIntel,47.61904762,,,,,,,,,,,,,2,1.877,0,88,88,80,1,,,,,,,,,,,,,,,,,,,,,,,,,,,,,,,,,,,,,,,,,,,,,,,,,,,,,,,,,,,,,,,,,,,,,,
,,,,6,1.715,,,,,,25,carrot,onion,,90441,001,2022-04-24_18h21.01.093,SPAMnetsValid,2021.1.4,MacIntel,47.61904762,,,,,,,,,,,,,6,1.715,0,89,89,44,1,,,,,,,,,,,,,,,,,,,,,,,,,,,,,,,,,,,,,,,,,,,,,,,,,,,,,,,,,,,,,,,,,,,,,,
,,,,2,1.848,,,,,,86,oven,rose,,90441,001,2022-04-24_18h21.01.093,SPAMnetsValid,2021.1.4,MacIntel,47.61904762,,,,,,,,,,,,,2,1.848,0,90,90,79,1,,,,,,,,,,,,,,,,,,,,,,,,,,,,,,,,,,,,,,,,,,,,,,,,,,,,,,,,,,,,,,,,,,,,,,
,,,,1,1.725,,,,,,70,chocolate,onion,,90441,001,2022-04-24_18h21.01.093,SPAMnetsValid,2021.1.4,MacIntel,47.61904762,,,,,,,,,,,,,1,1.725,0,91,91,74,1,,,,,,,,,,,,,,,,,,,,,,,,,,,,,,,,,,,,,,,,,,,,,,,,,,,,,,,,,,,,,,,,,,,,,,
,,,,1,1.977,,,,,,33,oven,yogurt,,90441,001,2022-04-24_18h21.01.093,SPAMnetsValid,2021.1.4,MacIntel,47.61904762,,,,,,,,,,,,,1,1.977,0,92,92,31,1,,,,,,,,,,,,,,,,,,,,,,,,,,,,,,,,,,,,,,,,,,,,,,,,,,,,,,,,,,,,,,,,,,,,,,
,,,,9,2.164,,,,,,94,kitchen,microwave,,90441,001,2022-04-24_18h21.01.093,SPAMnetsValid,2021.1.4,MacIntel,47.61904762,,,,,,,,,,,,,9,2.164,0,93,93,58,1,,,,,,,,,,,,,,,,,,,,,,,,,,,,,,,,,,,,,,,,,,,,,,,,,,,,,,,,,,,,,,,,,,,,,,
,,,,9,1.732,,,,,,52,carrot,tomato,,90441,001,2022-04-24_18h21.01.093,SPAMnetsValid,2021.1.4,MacIntel,47.61904762,,,,,,,,,,,,,9,1.732,0,94,94,95,1,,,,,,,,,,,,,,,,,,,,,,,,,,,,,,,,,,,,,,,,,,,,,,,,,,,,,,,,,,,,,,,,,,,,,,
,,,,9,1.46,,,,,,16,chocolate,flower,,90441,001,2022-04-24_18h21.01.093,SPAMnetsValid,2021.1.4,MacIntel,47.61904762,,,,,,,,,,,,,9,1.46,0,95,95,22,1,,,,,,,,,,,,,,,,,,,,,,,,,,,,,,,,,,,,,,,,,,,,,,,,,,,,,,,,,,,,,,,,,,,,,,
,,,,9,4.442,,,,,,9,kitchen,refrigerator,,90441,001,2022-04-24_18h21.01.093,SPAMnetsValid,2021.1.4,MacIntel,47.61904762,,,,,,,,,,,,,9,4.442,0,96,96,64,1,,,,,,,,,,,,,,,,,,,,,,,,,,,,,,,,,,,,,,,,,,,,,,,,,,,,,,,,,,,,,,,,,,,,,,
,,,,,,,,,,,,,,,90441,001,2022-04-24_18h21.01.093,SPAMnetsValid,2021.1.4,MacIntel,47.61904762,,,,,,,,,,,,,,,,,,,,0,0,0,0,1,,,,,,,,,,,,,,,,,,,,,,,,,,,,,,,,,,,,,,,,,,,,,,,,,,,,,,,,,,,,,,,,,
,,,,,,,,,,,,,,,90441,001,2022-04-24_18h21.01.093,SPAMnetsValid,2021.1.4,MacIntel,47.61904762,,,,,,0,1,1,0,1,1,0,,,,,,,,,,,,,,,,,,,,,,,,,,,,,,,,,,,,,,,,,,,,,,,,,,,,,,,,,,,,,,,,,,,,,,,,,,,,,
,,,,,,,,,,,,,,,90441,001,2022-04-24_18h21.01.093,SPAMnetsValid,2021.1.4,MacIntel,47.61904762,,,,,,,,,,,,,,,,,,,,,,,,,3,2.704,0,0,0,0,1,rancor,forbearance,ridicule,malice,bravery,3,,,,,,,,,,,,,,,,,,,,,,,,,,,,,,,,,,,,,,,,,,,,,,,,,,,,
,,,,,,,,,,,,,,,90441,001,2022-04-24_18h21.01.093,SPAMnetsValid,2021.1.4,MacIntel,47.61904762,,,,,,,,,,,,,,,,,,,,,,,,,4,1.61,0,1,1,1,1,raucous,empty,quiet,smooth,harsh,4,,,,,,,,,,,,,,,,,,,,,,,,,,,,,,,,,,,,,,,,,,,,,,,,,,,,
,,,,,,,,,,,,,,,90441,001,2022-04-24_18h21.01.093,SPAMnetsValid,2021.1.4,MacIntel,47.61904762,,,,,,,,,,,,,,,,,,,,,,,,,3,1.145,0,2,2,2,1,gargoyle,oil,medicine,carved waterspout,ugly building,3,,,,,,,,,,,,,,,,,,,,,,,,,,,,,,,,,,,,,,,,,,,,,,,,,,,,
,,,,,,,,,,,,,,,90441,001,2022-04-24_18h21.01.093,SPAMnetsValid,2021.1.4,MacIntel,47.61904762,,,,,,,,,,,,,,,,,,,,,,,,,2,2.126,0,3,3,3,1,recrudesce,purify,renew activity,lack refinement,crush,2,,,,,,,,,,,,,,,,,,,,,,,,,,,,,,,,,,,,,,,,,,,,,,,,,,,,
,,,,,,,,,,,,,,,90441,001,2022-04-24_18h21.01.093,SPAMnetsValid,2021.1.4,MacIntel,47.61904762,,,,,,,,,,,,,,,,,,,,,,,,,3,1.243,0,4,4,4,1,specious,"plausible, but not genuine",noteworthy,class or variety,roomy,1,,,,,,,,,,,,,,,,,,,,,,,,,,,,,,,,,,,,,,,,,,,,,,,,,,,,
,,,,,,,,,,,,,,,90441,001,2022-04-24_18h21.01.093,SPAMnetsValid,2021.1.4,MacIntel,47.61904762,,,,,,,,,,,,,,,,,,,,,,,,,3,2.245,0,5,5,5,1,bauble,bubble,showy plaything,idle talk,confusion,2,,,,,,,,,,,,,,,,,,,,,,,,,,,,,,,,,,,,,,,,,,,,,,,,,,,,
,,,,,,,,,,,,,,,90441,001,2022-04-24_18h21.01.093,SPAMnetsValid,2021.1.4,MacIntel,47.61904762,,,,,,,,,,,,,,,,,,,,,,,,,2,4.412,0,6,6,6,1,prolific,scarce,producing abundantly,reckless,speaking profanely,2,,,,,,,,,,,,,,,,,,,,,,,,,,,,,,,,,,,,,,,,,,,,,,,,,,,,
,,,,,,,,,,,,,,,90441,001,2022-04-24_18h21.01.093,SPAMnetsValid,2021.1.4,MacIntel,47.61904762,,,,,,,,,,,,,,,,,,,,,,,,,3,4.947,0,7,7,7,1,opulent,party,wealthy,happy frame of mind,semiprecious stone,2,,,,,,,,,,,,,,,,,,,,,,,,,,,,,,,,,,,,,,,,,,,,,,,,,,,,
,,,,,,,,,,,,,,,90441,001,2022-04-24_18h21.01.093,SPAMnetsValid,2021.1.4,MacIntel,47.61904762,,,,,,,,,,,,,,,,,,,,,,,,,1,2.876,0,8,8,8,1,coercion,conspiracy,strategy,restraint,attraction,3,,,,,,,,,,,,,,,,,,,,,,,,,,,,,,,,,,,,,,,,,,,,,,,,,,,,
,,,,,,,,,,,,,,,90441,001,2022-04-24_18h21.01.093,SPAMnetsValid,2021.1.4,MacIntel,47.61904762,,,,,,,,,,,,,,,,,,,,,,,,,4,4.412,0,9,9,9,1,hiatus,animal,calamity,dread,gap,4,,,,,,,,,,,,,,,,,,,,,,,,,,,,,,,,,,,,,,,,,,,,,,,,,,,,
,,,,,,,,,,,,,,,90441,001,2022-04-24_18h21.01.093,SPAMnetsValid,2021.1.4,MacIntel,47.61904762,,,,,,,,,,,,,,,,,,,,,,,,,3,1.665,0,10,10,10,1,germane,microbe,contagious,relevant,different,3,,,,,,,,,,,,,,,,,,,,,,,,,,,,,,,,,,,,,,,,,,,,,,,,,,,,
,,,,,,,,,,,,,,,90441,001,2022-04-24_18h21.01.093,SPAMnetsValid,2021.1.4,MacIntel,47.61904762,,,,,,,,,,,,,,,,,,,,,,,,,1,3.212,0,11,11,11,1,perfunctory,fundamental,formal,superficial,careful,3,,,,,,,,,,,,,,,,,,,,,,,,,,,,,,,,,,,,,,,,,,,,,,,,,,,,
,,,,,,,,,,,,,,,90441,001,2022-04-24_18h21.01.093,SPAMnetsValid,2021.1.4,MacIntel,47.61904762,,,,,,,,,,,,,,,,,,,,,,,,,4,4.563,0,12,12,12,1,diverge,reveal,chant,distract the attention of,differ or turn off from,4,,,,,,,,,,,,,,,,,,,,,,,,,,,,,,,,,,,,,,,,,,,,,,,,,,,,
,,,,,,,,,,,,,,,90441,001,2022-04-24_18h21.01.093,SPAMnetsValid,2021.1.4,MacIntel,47.61904762,,,,,,,,,,,,,,,,,,,,,,,,,4,2.095,0,13,13,13,1,evoke,take away,anger,connect,bring out,4,,,,,,,,,,,,,,,,,,,,,,,,,,,,,,,,,,,,,,,,,,,,,,,,,,,,
,,,,,,,,,,,,,,,90441,001,2022-04-24_18h21.01.093,SPAMnetsValid,2021.1.4,MacIntel,47.61904762,,,,,,,,,,,,,,,,,,,,,,,,,3,2.314,0,14,14,14,1,pertinent,relevant,lying next to,necessary,bold,1,,,,,,,,,,,,,,,,,,,,,,,,,,,,,,,,,,,,,,,,,,,,,,,,,,,,
,,,,,,,,,,,,,,,90441,001,2022-04-24_18h21.01.093,SPAMnetsValid,2021.1.4,MacIntel,47.61904762,,,,,,,,,,,,,,,,,,,,,,,,,2,1.479,0,15,15,15,1,holocaust,entirety,destruction,saintly,price,2,,,,,,,,,,,,,,,,,,,,,,,,,,,,,,,,,,,,,,,,,,,,,,,,,,,,
,,,,,,,,,,,,,,,90441,001,2022-04-24_18h21.01.093,SPAMnetsValid,2021.1.4,MacIntel,47.61904762,,,,,,,,,,,,,,,,,,,,,,,,,1,3.629,0,16,16,16,1,piquant,mellow,fish,pungent,cloth,3,,,,,,,,,,,,,,,,,,,,,,,,,,,,,,,,,,,,,,,,,,,,,,,,,,,,
,,,,,,,,,,,,,,,90441,001,2022-04-24_18h21.01.093,SPAMnetsValid,2021.1.4,MacIntel,47.61904762,,,,,,,,,,,,,,,,,,,,,,,,,3,1.878,0,17,17,17,1,firmament,foundation,heavens,strong,glue,2,,,,,,,,,,,,,,,,,,,,,,,,,,,,,,,,,,,,,,,,,,,,,,,,,,,,
,,,,,,,,,,,,,,,90441,001,2022-04-24_18h21.01.093,SPAMnetsValid,2021.1.4,MacIntel,47.61904762,,,,,,,,,,,,,,,,,,,,,,,,,,,,,,,,,,,,,,4,2.019,0,0,0,0,1,marketable,partisan,jocular,marriageable,salable,essential,4,,,,,,,,,,,,,,,,,,,,,,,,,,,,,,,,,,,,,,
,,,,,,,,,,,,,,,90441,001,2022-04-24_18h21.01.093,SPAMnetsValid,2021.1.4,MacIntel,47.61904762,,,,,,,,,,,,,,,,,,,,,,,,,,,,,,,,,,,,,,5,2.698,0,1,1,1,1,cottontail,squirrel,poplar,boa,marshy plant,rabbit,5,,,,,,,,,,,,,,,,,,,,,,,,,,,,,,,,,,,,,,
,,,,,,,,,,,,,,,90441,001,2022-04-24_18h21.01.093,SPAMnetsValid,2021.1.4,MacIntel,47.61904762,,,,,,,,,,,,,,,,,,,,,,,,,,,,,,,,,,,,,,,,0,2,2,2,1,boggy,afraid,false,marshy,dense,black,3,,,,,,,,,,,,,,,,,,,,,,,,,,,,,,,,,,,,,,
,,,,,,,,,,,,,,,90441,001,2022-04-24_18h21.01.093,SPAMnetsValid,2021.1.4,MacIntel,47.61904762,,,,,,,,,,,,,,,,,,,,,,,,,,,,,,,,,,,,,,5,2.995,0,3,3,3,1,gruesomeness,blackness,falseness,vindictiveness,drunkenness,ghastliness,5,,,,,,,,,,,,,,,,,,,,,,,,,,,,,,,,,,,,,,
,,,,,,,,,,,,,,,90441,001,2022-04-24_18h21.01.093,SPAMnetsValid,2021.1.4,MacIntel,47.61904762,,,,,,,,,,,,,,,,,,,,,,,,,,,,,,,,,,,,,,2,2.631,0,4,4,4,1,loathing,diffidence,laziness,abhorrence,cleverness,comfort,3,,,,,,,,,,,,,,,,,,,,,,,,,,,,,,,,,,,,,,
,,,,,,,,,,,,,,,90441,001,2022-04-24_18h21.01.093,SPAMnetsValid,2021.1.4,MacIntel,47.61904762,,,,,,,,,,,,,,,,,,,,,,,,,,,,,,,,,,,,,,,,0,5,5,5,1,bantam,fowl,ridicule,cripple,vegetable,ensign,1,,,,,,,,,,,,,,,,,,,,,,,,,,,,,,,,,,,,,,
,,,,,,,,,,,,,,,90441,001,2022-04-24_18h21.01.093,SPAMnetsValid,2021.1.4,MacIntel,47.61904762,,,,,,,,,,,,,,,,,,,,,,,,,,,,,,,,,,,,,,4,1.711,0,6,6,6,1,evoke,wake up,surrender,reconnoiter,transcend,call forth,5,,,,,,,,,,,,,,,,,,,,,,,,,,,,,,,,,,,,,,
,,,,,,,,,,,,,,,90441,001,2022-04-24_18h21.01.093,SPAMnetsValid,2021.1.4,MacIntel,47.61904762,,,,,,,,,,,,,,,,,,,,,,,,,,,,,,,,,,,,,,3,2.961,0,7,7,7,1,unobtrusive,unintelligent,epileptic,illogical,lineal,modest,5,,,,,,,,,,,,,,,,,,,,,,,,,,,,,,,,,,,,,,
,,,,,,,,,,,,,,,90441,001,2022-04-24_18h21.01.093,SPAMnetsValid,2021.1.4,MacIntel,47.61904762,,,,,,,,,,,,,,,,,,,,,,,,,,,,,,,,,,,,,,4,1.376,0,8,8,8,1,terrain,ice cream,final test,tractor,area of ground,weight,4,,,,,,,,,,,,,,,,,,,,,,,,,,,,,,,,,,,,,,
,,,,,,,,,,,,,,,90441,001,2022-04-24_18h21.01.093,SPAMnetsValid,2021.1.4,MacIntel,47.61904762,,,,,,,,,,,,,,,,,,,,,,,,,,,,,,,,,,,,,,1,3.527,0,9,9,9,1,capriciousness,stubbornness,courage,whimsicality,amazement,greediness,3,,,,,,,,,,,,,,,,,,,,,,,,,,,,,,,,,,,,,,
,,,,,,,,,,,,,,,90441,001,2022-04-24_18h21.01.093,SPAMnetsValid,2021.1.4,MacIntel,47.61904762,,,,,,,,,,,,,,,,,,,,,,,,,,,,,,,,,,,,,,3,1.892,0,10,10,10,1,maelstrom,slander,whirlpool,enmity,armor,majolica,2,,,,,,,,,,,,,,,,,,,,,,,,,,,,,,,,,,,,,,
,,,,,,,,,,,,,,,90441,001,2022-04-24_18h21.01.093,SPAMnetsValid,2021.1.4,MacIntel,47.61904762,,,,,,,,,,,,,,,,,,,,,,,,,,,,,,,,,,,,,,1,2.712,0,11,11,11,1,tentative,critical,conclusive,authentic,provisional,apprehensive,4,,,,,,,,,,,,,,,,,,,,,,,,,,,,,,,,,,,,,,
,,,,,,,,,,,,,,,90441,001,2022-04-24_18h21.01.093,SPAMnetsValid,2021.1.4,MacIntel,47.61904762,,,,,,,,,,,,,,,,,,,,,,,,,,,,,,,,,,,,,,5,2.579,0,12,12,12,1,placate,rehabilitate,plagiarize,depredate,apprise,conciliate,5,,,,,,,,,,,,,,,,,,,,,,,,,,,,,,,,,,,,,,
,,,,,,,,,,,,,,,90441,001,2022-04-24_18h21.01.093,SPAMnetsValid,2021.1.4,MacIntel,47.61904762,,,,,,,,,,,,,,,,,,,,,,,,,,,,,,,,,,,,,,4,1.947,0,13,13,13,1,surcease,enlightenment,cessation,inattention,censor,substitution,2,,,,,,,,,,,,,,,,,,,,,,,,,,,,,,,,,,,,,,
,,,,,,,,,,,,,,,90441,001,2022-04-24_18h21.01.093,SPAMnetsValid,2021.1.4,MacIntel,47.61904762,,,,,,,,,,,,,,,,,,,,,,,,,,,,,,,,,,,,,,4,3.376,0,14,14,14,1,apathetic,wandering,impassive,hateful,prophetic,overflowing,2,,,,,,,,,,,,,,,,,,,,,,,,,,,,,,,,,,,,,,
,,,,,,,,,,,,,,,90441,001,2022-04-24_18h21.01.093,SPAMnetsValid,2021.1.4,MacIntel,47.61904762,,,,,,,,,,,,,,,,,,,,,,,,,,,,,,,,,,,,,,,,0,15,15,15,1,paternoster,paternalism,patricide,malediction,benediction,prayer,5,,,,,,,,,,,,,,,,,,,,,,,,,,,,,,,,,,,,,,
,,,,,,,,,,,,,,,90441,001,2022-04-24_18h21.01.093,SPAMnetsValid,2021.1.4,MacIntel,47.61904762,,,,,,,,,,,,,,,,,,,,,,,,,,,,,,,,,,,,,,2,2.977,0,16,16,16,1,opalescence,opulence,senescence,bankruptcy,iridescence,assiduity,4,,,,,,,,,,,,,,,,,,,,,,,,,,,,,,,,,,,,,,
,,,,,,,,,,,,,,,90441,001,2022-04-24_18h21.01.093,SPAMnetsValid,2021.1.4,MacIntel,47.61904762,,,,,,,,,,,,,,,,,,,,,,,,,,,,,,,,,,,,,,2,3.549,0,17,17,17,1,lush,stupid,luxurious,hazy,putrid,languishing,2,,,,,,,,,,,,,,,,,,,,,,,,,,,,,,,,,,,,,,
,,,,,,,,,,,,,,,90441,001,2022-04-24_18h21.01.093,SPAMnetsValid,2021.1.4,MacIntel,47.61904762,,,,,,,,,,,,,,,,,,,,,,,,,,,,,,,,,,,,,,1,4.027,0,18,18,18,1,curtailment,expenditure,abandonment,abridgment,improvement,forgery,3,,,,,,,,,,,,,,,,,,,,,,,,,,,,,,,,,,,,,,
,,,,,,,,,,,,,,,90441,001,2022-04-24_18h21.01.093,SPAMnetsValid,2021.1.4,MacIntel,47.61904762,,,,,,,,,,,,,,,,,,,,,,,,,,,,,,,,,,,,,,2,1.478,0,19,19,19,1,perversity,adversity,perviousness,travesty,waywardness,gentility,4,,,,,,,,,,,,,,,,,,,,,,,,,,,,,,,,,,,,,,
,,,,,,,,,,,,,,,90441,001,2022-04-24_18h21.01.093,SPAMnetsValid,2021.1.4,MacIntel,47.61904762,,,,,,,,,,,,,,,,,,,,,,,,,,,,,,,,,,,,,,,,0,20,20,20,1,calumnious,complimentary,analogous,slanderous,tempestuous,magnanimous,3,,,,,,,,,,,,,,,,,,,,,,,,,,,,,,,,,,,,,,
,,,,,,,,,,,,,,,90441,001,2022-04-24_18h21.01.093,SPAMnetsValid,2021.1.4,MacIntel,47.61904762,,,,,,,,,,,,,,,,,,,,,,,,,,,,,,,,,,,,,,3,1.798,0,21,21,21,1,illiberality,bigotry,imbecility,illegibility,cautery,immaturity,1,,,,,,,,,,,,,,,,,,,,,,,,,,,,,,,,,,,,,,
,,,,,,,,,,,,,,,90441,001,2022-04-24_18h21.01.093,SPAMnetsValid,2021.1.4,MacIntel,47.61904762,,,,,,,,,,,,,,,,,,,,,,,,,,,,,,,,,,,,,,2,2.491,0,22,22,22,1,clabber,rejoice,gossip,curdle,crow,hobble,3,,,,,,,,,,,,,,,,,,,,,,,,,,,,,,,,,,,,,,
,,,,,,,,,,,,,,,90441,001,2022-04-24_18h21.01.093,SPAMnetsValid,2021.1.4,MacIntel,47.61904762,,,,,,,,,,,,,,,,,,,,,,,,,,,,,,,,,,,,,,3,1.978,0,23,23,23,1,sedulousness,diligence,credulousness,seduction,perilousness,frankness,1,,,,,,,,,,,,,,,,,,,,,,,,,,,,,,,,,,,,,,
,,,,,,,,,,,,,,,90441,001,2022-04-24_18h21.01.093,SPAMnetsValid,2021.1.4,MacIntel,47.61904762,,,,,,,,,,,,,,,,,,,,,,,,,,,,,,,,,,,,,,,,,,,,,,,,,,,,water,bucket,0,0,0,0,1,,,,,,,,,,,,,,,,,,,,,,,,,,,,,,,
,,,,,,,,,,,,,,,90441,001,2022-04-24_18h21.01.093,SPAMnetsValid,2021.1.4,MacIntel,47.61904762,,,,,,,,,,,,,,,,,,,,,,,,,,,,,,,,,,,,,,,,,,,,,,,,,,,,emergency bathroom,bucket,1,0,1,0,1,,,,,,,,,,,,,,,,,,,,,,,,,,,,,,,
,,,,,,,,,,,,,,,90441,001,2022-04-24_18h21.01.093,SPAMnetsValid,2021.1.4,MacIntel,47.61904762,,,,,,,,,,,,,,,,,,,,,,,,,,,,,,,,,,,,,,,,,,,,,,,,,,,,storage,bucket,2,0,2,0,1,,,,,,,,,,,,,,,,,,,,,,,,,,,,,,,
,,,,,,,,,,,,,,,90441,001,2022-04-24_18h21.01.093,SPAMnetsValid,2021.1.4,MacIntel,47.61904762,,,,,,,,,,,,,,,,,,,,,,,,,,,,,,,,,,,,,,,,,,,,,,,,,,,,baseball holder,bucket,3,0,3,0,1,,,,,,,,,,,,,,,,,,,,,,,,,,,,,,,
,,,,,,,,,,,,,,,90441,001,2022-04-24_18h21.01.093,SPAMnetsValid,2021.1.4,MacIntel,47.61904762,,,,,,,,,,,,,,,,,,,,,,,,,,,,,,,,,,,,,,,,,,,,,,,,,,,,art project,bucket,4,0,4,0,1,,,,,,,,,,,,,,,,,,,,,,,,,,,,,,,
,,,,,,,,,,,,,,,90441,001,2022-04-24_18h21.01.093,SPAMnetsValid,2021.1.4,MacIntel,47.61904762,,,,,,,,,,,,,,,,,,,,,,,,,,,,,,,,,,,,,,,,,,,,,,,,,,,,toy for dog ,bucket,5,0,5,0,1,,,,,,,,,,,,,,,,,,,,,,,,,,,,,,,
,,,,,,,,,,,,,,,90441,001,2022-04-24_18h21.01.093,SPAMnetsValid,2021.1.4,MacIntel,47.61904762,,,,,,,,,,,,,,,,,,,,,,,,,,,,,,,,,,,,,,,,,,,,,,,,,,,,weapon,bucket,6,0,6,0,1,,,,,,,,,,,,,,,,,,,,,,,,,,,,,,,
,,,,,,,,,,,,,,,90441,001,2022-04-24_18h21.01.093,SPAMnetsValid,2021.1.4,MacIntel,47.61904762,,,,,,,,,,,,,,,,,,,,,,,,,,,,,,,,,,,,,,,,,,,,,,,,,,,,cup ,bucket,7,0,7,0,1,,,,,,,,,,,,,,,,,,,,,,,,,,,,,,,
,,,,,,,,,,,,,,,90441,001,2022-04-24_18h21.01.093,SPAMnetsValid,2021.1.4,MacIntel,47.61904762,,,,,,,,,,,,,,,,,,,,,,,,,,,,,,,,,,,,,,,,,,,,,,,,,,,,,,,,,,,0,0,0,0,1,bucket,,,,,,,,,,,,,,,,,,,,,,,,,
,,,,,,,,,,,,,,,90441,001,2022-04-24_18h21.01.093,SPAMnetsValid,2021.1.4,MacIntel,47.61904762,,,,,,,,,,,,,,,,,,,,,,,,,,,,,,,,,,,,,,,,,,,,,,,,,,,,light,candle,0,0,0,0,1,,,,,,,,,,,,,,,,,,,,,,,,,,,,,,,
,,,,,,,,,,,,,,,90441,001,2022-04-24_18h21.01.093,SPAMnetsValid,2021.1.4,MacIntel,47.61904762,,,,,,,,,,,,,,,,,,,,,,,,,,,,,,,,,,,,,,,,,,,,,,,,,,,,decoration,candle,1,0,1,0,1,,,,,,,,,,,,,,,,,,,,,,,,,,,,,,,
,,,,,,,,,,,,,,,90441,001,2022-04-24_18h21.01.093,SPAMnetsValid,2021.1.4,MacIntel,47.61904762,,,,,,,,,,,,,,,,,,,,,,,,,,,,,,,,,,,,,,,,,,,,,,,,,,,,smell,candle,2,0,2,0,1,,,,,,,,,,,,,,,,,,,,,,,,,,,,,,,
,,,,,,,,,,,,,,,90441,001,2022-04-24_18h21.01.093,SPAMnetsValid,2021.1.4,MacIntel,47.61904762,,,,,,,,,,,,,,,,,,,,,,,,,,,,,,,,,,,,,,,,,,,,,,,,,,,, using scent toevoke emotion,candle,3,0,3,0,1,,,,,,,,,,,,,,,,,,,,,,,,,,,,,,,
,,,,,,,,,,,,,,,90441,001,2022-04-24_18h21.01.093,SPAMnetsValid,2021.1.4,MacIntel,47.61904762,,,,,,,,,,,,,,,,,,,,,,,,,,,,,,,,,,,,,,,,,,,,,,,,,,,,hide smells,candle,4,0,4,0,1,,,,,,,,,,,,,,,,,,,,,,,,,,,,,,,
,,,,,,,,,,,,,,,90441,001,2022-04-24_18h21.01.093,SPAMnetsValid,2021.1.4,MacIntel,47.61904762,,,,,,,,,,,,,,,,,,,,,,,,,,,,,,,,,,,,,,,,,,,,,,,,,,,,decoration,candle,5,0,5,0,1,,,,,,,,,,,,,,,,,,,,,,,,,,,,,,,
,,,,,,,,,,,,,,,90441,001,2022-04-24_18h21.01.093,SPAMnetsValid,2021.1.4,MacIntel,47.61904762,,,,,,,,,,,,,,,,,,,,,,,,,,,,,,,,,,,,,,,,,,,,,,,,,,,,night light,candle,6,0,6,0,1,,,,,,,,,,,,,,,,,,,,,,,,,,,,,,,
,,,,,,,,,,,,,,,90441,001,2022-04-24_18h21.01.093,SPAMnetsValid,2021.1.4,MacIntel,47.61904762,,,,,,,,,,,,,,,,,,,,,,,,,,,,,,,,,,,,,,,,,,,,,,,,,,,,weapon ,candle,7,0,7,0,1,,,,,,,,,,,,,,,,,,,,,,,,,,,,,,,
,,,,,,,,,,,,,,,90441,001,2022-04-24_18h21.01.093,SPAMnetsValid,2021.1.4,MacIntel,47.61904762,,,,,,,,,,,,,,,,,,,,,,,,,,,,,,,,,,,,,,,,,,,,,,,,,,,,conductor,candle,8,0,8,0,1,,,,,,,,,,,,,,,,,,,,,,,,,,,,,,,
,,,,,,,,,,,,,,,90441,001,2022-04-24_18h21.01.093,SPAMnetsValid,2021.1.4,MacIntel,47.61904762,,,,,,,,,,,,,,,,,,,,,,,,,,,,,,,,,,,,,,,,,,,,,,,,,,,,,,,,,,,0,1,1,1,1,candle,,,,,,,,,,,,,,,,,,,,,,,,,
,,,,,,,,,,,,,,,90441,001,2022-04-24_18h21.01.093,SPAMnetsValid,2021.1.4,MacIntel,47.61904762,,,,,,,,,,,,,,,,,,,,,,,,,,,,,,,,,,,,,,,,,,,,,,,,,,,,spine stablization,pillow,0,0,0,0,1,,,,,,,,,,,,,,,,,,,,,,,,,,,,,,,
,,,,,,,,,,,,,,,90441,001,2022-04-24_18h21.01.093,SPAMnetsValid,2021.1.4,MacIntel,47.61904762,,,,,,,,,,,,,,,,,,,,,,,,,,,,,,,,,,,,,,,,,,,,,,,,,,,,comfor,pillow,1,0,1,0,1,,,,,,,,,,,,,,,,,,,,,,,,,,,,,,,
,,,,,,,,,,,,,,,90441,001,2022-04-24_18h21.01.093,SPAMnetsValid,2021.1.4,MacIntel,47.61904762,,,,,,,,,,,,,,,,,,,,,,,,,,,,,,,,,,,,,,,,,,,,,,,,,,,,sleep,pillow,2,0,2,0,1,,,,,,,,,,,,,,,,,,,,,,,,,,,,,,,
,,,,,,,,,,,,,,,90441,001,2022-04-24_18h21.01.093,SPAMnetsValid,2021.1.4,MacIntel,47.61904762,,,,,,,,,,,,,,,,,,,,,,,,,,,,,,,,,,,,,,,,,,,,,,,,,,,,weapon,pillow,3,0,3,0,1,,,,,,,,,,,,,,,,,,,,,,,,,,,,,,,
,,,,,,,,,,,,,,,90441,001,2022-04-24_18h21.01.093,SPAMnetsValid,2021.1.4,MacIntel,47.61904762,,,,,,,,,,,,,,,,,,,,,,,,,,,,,,,,,,,,,,,,,,,,,,,,,,,,,pillow,4,0,4,0,1,,,,,,,,,,,,,,,,,,,,,,,,,,,,,,,
,,,,,,,,,,,,,,,90441,001,2022-04-24_18h21.01.093,SPAMnetsValid,2021.1.4,MacIntel,47.61904762,,,,,,,,,,,,,,,,,,,,,,,,,,,,,,,,,,,,,,,,,,,,,,,,,,,,hiding spot,pillow,5,0,5,0,1,,,,,,,,,,,,,,,,,,,,,,,,,,,,,,,
,,,,,,,,,,,,,,,90441,001,2022-04-24_18h21.01.093,SPAMnetsValid,2021.1.4,MacIntel,47.61904762,,,,,,,,,,,,,,,,,,,,,,,,,,,,,,,,,,,,,,,,,,,,,,,,,,,,bed for cat,pillow,6,0,6,0,1,,,,,,,,,,,,,,,,,,,,,,,,,,,,,,,
,,,,,,,,,,,,,,,90441,001,2022-04-24_18h21.01.093,SPAMnetsValid,2021.1.4,MacIntel,47.61904762,,,,,,,,,,,,,,,,,,,,,,,,,,,,,,,,,,,,,,,,,,,,,,,,,,,,decoration,pillow,7,0,7,0,1,,,,,,,,,,,,,,,,,,,,,,,,,,,,,,,
,,,,,,,,,,,,,,,90441,001,2022-04-24_18h21.01.093,SPAMnetsValid,2021.1.4,MacIntel,47.61904762,,,,,,,,,,,,,,,,,,,,,,,,,,,,,,,,,,,,,,,,,,,,,,,,,,,,life perserver,pillow,8,0,8,0,1,,,,,,,,,,,,,,,,,,,,,,,,,,,,,,,
,,,,,,,,,,,,,,,90441,001,2022-04-24_18h21.01.093,SPAMnetsValid,2021.1.4,MacIntel,47.61904762,,,,,,,,,,,,,,,,,,,,,,,,,,,,,,,,,,,,,,,,,,,,,,,,,,,,source of cotton,pillow,9,0,9,0,1,,,,,,,,,,,,,,,,,,,,,,,,,,,,,,,
,,,,,,,,,,,,,,,90441,001,2022-04-24_18h21.01.093,SPAMnetsValid,2021.1.4,MacIntel,47.61904762,,,,,,,,,,,,,,,,,,,,,,,,,,,,,,,,,,,,,,,,,,,,,,,,,,,,,,,,,,,0,2,2,2,1,pillow,,,,,,,,,,,,,,,,,,,,,,,,,
,,,,,,,,,,,,,,,90441,001,2022-04-24_18h21.01.093,SPAMnetsValid,2021.1.4,MacIntel,47.61904762,,,,,,,,,,,,,,,,,,,,,,,,,,,,,,,,,,,,,,,,,,,,,,,,,,,,,,,,,,,,,,,,,cats,Animals,0,0,0,0,1,,,,,,,,,,,,,,,,,,
,,,,,,,,,,,,,,,90441,001,2022-04-24_18h21.01.093,SPAMnetsValid,2021.1.4,MacIntel,47.61904762,,,,,,,,,,,,,,,,,,,,,,,,,,,,,,,,,,,,,,,,,,,,,,,,,,,,,,,,,,,,,,,,,dogs,Animals,1,0,1,0,1,,,,,,,,,,,,,,,,,,
,,,,,,,,,,,,,,,90441,001,2022-04-24_18h21.01.093,SPAMnetsValid,2021.1.4,MacIntel,47.61904762,,,,,,,,,,,,,,,,,,,,,,,,,,,,,,,,,,,,,,,,,,,,,,,,,,,,,,,,,,,,,,,,,lizards,Animals,2,0,2,0,1,,,,,,,,,,,,,,,,,,
,,,,,,,,,,,,,,,90441,001,2022-04-24_18h21.01.093,SPAMnetsValid,2021.1.4,MacIntel,47.61904762,,,,,,,,,,,,,,,,,,,,,,,,,,,,,,,,,,,,,,,,,,,,,,,,,,,,,,,,,,,,,,,,,alligators,Animals,3,0,3,0,1,,,,,,,,,,,,,,,,,,
,,,,,,,,,,,,,,,90441,001,2022-04-24_18h21.01.093,SPAMnetsValid,2021.1.4,MacIntel,47.61904762,,,,,,,,,,,,,,,,,,,,,,,,,,,,,,,,,,,,,,,,,,,,,,,,,,,,,,,,,,,,,,,,,frogs,Animals,4,0,4,0,1,,,,,,,,,,,,,,,,,,
,,,,,,,,,,,,,,,90441,001,2022-04-24_18h21.01.093,SPAMnetsValid,2021.1.4,MacIntel,47.61904762,,,,,,,,,,,,,,,,,,,,,,,,,,,,,,,,,,,,,,,,,,,,,,,,,,,,,,,,,,,,,,,,,turtles,Animals,5,0,5,0,1,,,,,,,,,,,,,,,,,,
,,,,,,,,,,,,,,,90441,001,2022-04-24_18h21.01.093,SPAMnetsValid,2021.1.4,MacIntel,47.61904762,,,,,,,,,,,,,,,,,,,,,,,,,,,,,,,,,,,,,,,,,,,,,,,,,,,,,,,,,,,,,,,,,dinosaurs,Animals,6,0,6,0,1,,,,,,,,,,,,,,,,,,
,,,,,,,,,,,,,,,90441,001,2022-04-24_18h21.01.093,SPAMnetsValid,2021.1.4,MacIntel,47.61904762,,,,,,,,,,,,,,,,,,,,,,,,,,,,,,,,,,,,,,,,,,,,,,,,,,,,,,,,,,,,,,,,,pigeon,Animals,7,0,7,0,1,,,,,,,,,,,,,,,,,,
,,,,,,,,,,,,,,,90441,001,2022-04-24_18h21.01.093,SPAMnetsValid,2021.1.4,MacIntel,47.61904762,,,,,,,,,,,,,,,,,,,,,,,,,,,,,,,,,,,,,,,,,,,,,,,,,,,,,,,,,,,,,,,,,hawk,Animals,8,0,8,0,1,,,,,,,,,,,,,,,,,,
,,,,,,,,,,,,,,,90441,001,2022-04-24_18h21.01.093,SPAMnetsValid,2021.1.4,MacIntel,47.61904762,,,,,,,,,,,,,,,,,,,,,,,,,,,,,,,,,,,,,,,,,,,,,,,,,,,,,,,,,,,,,,,,,eagle,Animals,9,0,9,0,1,,,,,,,,,,,,,,,,,,
,,,,,,,,,,,,,,,90441,001,2022-04-24_18h21.01.093,SPAMnetsValid,2021.1.4,MacIntel,47.61904762,,,,,,,,,,,,,,,,,,,,,,,,,,,,,,,,,,,,,,,,,,,,,,,,,,,,,,,,,,,,,,,,,lion,Animals,10,0,10,0,1,,,,,,,,,,,,,,,,,,
,,,,,,,,,,,,,,,90441,001,2022-04-24_18h21.01.093,SPAMnetsValid,2021.1.4,MacIntel,47.61904762,,,,,,,,,,,,,,,,,,,,,,,,,,,,,,,,,,,,,,,,,,,,,,,,,,,,,,,,,,,,,,,,,tigers,Animals,11,0,11,0,1,,,,,,,,,,,,,,,,,,
,,,,,,,,,,,,,,,90441,001,2022-04-24_18h21.01.093,SPAMnetsValid,2021.1.4,MacIntel,47.61904762,,,,,,,,,,,,,,,,,,,,,,,,,,,,,,,,,,,,,,,,,,,,,,,,,,,,,,,,,,,,,,,,,wolves,Animals,12,0,12,0,1,,,,,,,,,,,,,,,,,,
,,,,,,,,,,,,,,,90441,001,2022-04-24_18h21.01.093,SPAMnetsValid,2021.1.4,MacIntel,47.61904762,,,,,,,,,,,,,,,,,,,,,,,,,,,,,,,,,,,,,,,,,,,,,,,,,,,,,,,,,,,,,,,,,bears,Animals,13,0,13,0,1,,,,,,,,,,,,,,,,,,
,,,,,,,,,,,,,,,90441,001,2022-04-24_18h21.01.093,SPAMnetsValid,2021.1.4,MacIntel,47.61904762,,,,,,,,,,,,,,,,,,,,,,,,,,,,,,,,,,,,,,,,,,,,,,,,,,,,,,,,,,,,,,,,,salmon,Animals,14,0,14,0,1,,,,,,,,,,,,,,,,,,
,,,,,,,,,,,,,,,90441,001,2022-04-24_18h21.01.093,SPAMnetsValid,2021.1.4,MacIntel,47.61904762,,,,,,,,,,,,,,,,,,,,,,,,,,,,,,,,,,,,,,,,,,,,,,,,,,,,,,,,,,,,,,,,,tuna,Animals,15,0,15,0,1,,,,,,,,,,,,,,,,,,
,,,,,,,,,,,,,,,90441,001,2022-04-24_18h21.01.093,SPAMnetsValid,2021.1.4,MacIntel,47.61904762,,,,,,,,,,,,,,,,,,,,,,,,,,,,,,,,,,,,,,,,,,,,,,,,,,,,,,,,,,,,,,,,,barricuda,Animals,16,0,16,0,1,,,,,,,,,,,,,,,,,,
,,,,,,,,,,,,,,,90441,001,2022-04-24_18h21.01.093,SPAMnetsValid,2021.1.4,MacIntel,47.61904762,,,,,,,,,,,,,,,,,,,,,,,,,,,,,,,,,,,,,,,,,,,,,,,,,,,,,,,,,,,,,,,,,killer whale,Animals,17,0,17,0,1,,,,,,,,,,,,,,,,,,
,,,,,,,,,,,,,,,90441,001,2022-04-24_18h21.01.093,SPAMnetsValid,2021.1.4,MacIntel,47.61904762,,,,,,,,,,,,,,,,,,,,,,,,,,,,,,,,,,,,,,,,,,,,,,,,,,,,,,,,,,,,,,,,,sharks,Animals,18,0,18,0,1,,,,,,,,,,,,,,,,,,
,,,,,,,,,,,,,,,90441,001,2022-04-24_18h21.01.093,SPAMnetsValid,2021.1.4,MacIntel,47.61904762,,,,,,,,,,,,,,,,,,,,,,,,,,,,,,,,,,,,,,,,,,,,,,,,,,,,,,,,,,,,,,,,,lobsters,Animals,19,0,19,0,1,,,,,,,,,,,,,,,,,,
,,,,,,,,,,,,,,,90441,001,2022-04-24_18h21.01.093,SPAMnetsValid,2021.1.4,MacIntel,47.61904762,,,,,,,,,,,,,,,,,,,,,,,,,,,,,,,,,,,,,,,,,,,,,,,,,,,,,,,,,,,,,,,,,crabs,Animals,20,0,20,0,1,,,,,,,,,,,,,,,,,,
,,,,,,,,,,,,,,,90441,001,2022-04-24_18h21.01.093,SPAMnetsValid,2021.1.4,MacIntel,47.61904762,,,,,,,,,,,,,,,,,,,,,,,,,,,,,,,,,,,,,,,,,,,,,,,,,,,,,,,,,,,,,,,,,mussels,Animals,21,0,21,0,1,,,,,,,,,,,,,,,,,,
,,,,,,,,,,,,,,,90441,001,2022-04-24_18h21.01.093,SPAMnetsValid,2021.1.4,MacIntel,47.61904762,,,,,,,,,,,,,,,,,,,,,,,,,,,,,,,,,,,,,,,,,,,,,,,,,,,,,,,,,,,,,,,,,clams,Animals,22,0,22,0,1,,,,,,,,,,,,,,,,,,
,,,,,,,,,,,,,,,90441,001,2022-04-24_18h21.01.093,SPAMnetsValid,2021.1.4,MacIntel,47.61904762,,,,,,,,,,,,,,,,,,,,,,,,,,,,,,,,,,,,,,,,,,,,,,,,,,,,,,,,,,,,,,,,,giraffs,Animals,23,0,23,0,1,,,,,,,,,,,,,,,,,,
,,,,,,,,,,,,,,,90441,001,2022-04-24_18h21.01.093,SPAMnetsValid,2021.1.4,MacIntel,47.61904762,,,,,,,,,,,,,,,,,,,,,,,,,,,,,,,,,,,,,,,,,,,,,,,,,,,,,,,,,,,,,,,,,kangaroos,Animals,24,0,24,0,1,,,,,,,,,,,,,,,,,,
,,,,,,,,,,,,,,,90441,001,2022-04-24_18h21.01.093,SPAMnetsValid,2021.1.4,MacIntel,47.61904762,,,,,,,,,,,,,,,,,,,,,,,,,,,,,,,,,,,,,,,,,,,,,,,,,,,,,,,,,,,,,,,,,crocodiles,Animals,25,0,25,0,1,,,,,,,,,,,,,,,,,,
,,,,,,,,,,,,,,,90441,001,2022-04-24_18h21.01.093,SPAMnetsValid,2021.1.4,MacIntel,47.61904762,,,,,,,,,,,,,,,,,,,,,,,,,,,,,,,,,,,,,,,,,,,,,,,,,,,,,,,,,,,,,,,,,alligators,Animals,26,0,26,0,1,,,,,,,,,,,,,,,,,,
,,,,,,,,,,,,,,,90441,001,2022-04-24_18h21.01.093,SPAMnetsValid,2021.1.4,MacIntel,47.61904762,,,,,,,,,,,,,,,,,,,,,,,,,,,,,,,,,,,,,,,,,,,,,,,,,,,,,,,,,,,,,,,,,hippo,Animals,27,0,27,0,1,,,,,,,,,,,,,,,,,,
,,,,,,,,,,,,,,,90441,001,2022-04-24_18h21.01.093,SPAMnetsValid,2021.1.4,MacIntel,47.61904762,,,,,,,,,,,,,,,,,,,,,,,,,,,,,,,,,,,,,,,,,,,,,,,,,,,,,,,,,,,,,,,,,elephant,Animals,28,0,28,0,1,,,,,,,,,,,,,,,,,,
,,,,,,,,,,,,,,,90441,001,2022-04-24_18h21.01.093,SPAMnetsValid,2021.1.4,MacIntel,47.61904762,,,,,,,,,,,,,,,,,,,,,,,,,,,,,,,,,,,,,,,,,,,,,,,,,,,,,,,,,,,,,,,,,giraff,Animals,29,0,29,0,1,,,,,,,,,,,,,,,,,,
,,,,,,,,,,,,,,,90441,001,2022-04-24_18h21.01.093,SPAMnetsValid,2021.1.4,MacIntel,47.61904762,,,,,,,,,,,,,,,,,,,,,,,,,,,,,,,,,,,,,,,,,,,,,,,,,,,,,,,,,,,,,,,,,water buffalo,Animals,30,0,30,0,1,,,,,,,,,,,,,,,,,,
,,,,,,,,,,,,,,,90441,001,2022-04-24_18h21.01.093,SPAMnetsValid,2021.1.4,MacIntel,47.61904762,,,,,,,,,,,,,,,,,,,,,,,,,,,,,,,,,,,,,,,,,,,,,,,,,,,,,,,,,,,,,,,,,lions,Animals,31,0,31,0,1,,,,,,,,,,,,,,,,,,
,,,,,,,,,,,,,,,90441,001,2022-04-24_18h21.01.093,SPAMnetsValid,2021.1.4,MacIntel,47.61904762,,,,,,,,,,,,,,,,,,,,,,,,,,,,,,,,,,,,,,,,,,,,,,,,,,,,,,,,,,,,,,,,,snakes,Animals,32,0,32,0,1,,,,,,,,,,,,,,,,,,
,,,,,,,,,,,,,,,90441,001,2022-04-24_18h21.01.093,SPAMnetsValid,2021.1.4,MacIntel,47.61904762,,,,,,,,,,,,,,,,,,,,,,,,,,,,,,,,,,,,,,,,,,,,,,,,,,,,,,,,,,,,,,,,,,,,,,,,0,0,0,0,1,Animals,,,,,,,,,,,,
,,,,,,,,,,,,,,,90441,001,2022-04-24_18h21.01.093,SPAMnetsValid,2021.1.4,MacIntel,47.61904762,,,,,,,,,,,,,,,,,,,,,,,,,,,,,,,,,,,,,,,,,,,,,,,,,,,,,,,,,,,,,,,,,,,,,,,,,,,,,,4,2.473,0,0,0,0,1,"I enjoy concentrating on a fantasy or daydream and exploring all its possibilities, letting it grow and develop.",0,1,,
,,,,,,,,,,,,,,,90441,001,2022-04-24_18h21.01.093,SPAMnetsValid,2021.1.4,MacIntel,47.61904762,,,,,,,,,,,,,,,,,,,,,,,,,,,,,,,,,,,,,,,,,,,,,,,,,,,,,,,,,,,,,,,,,,,,,,,,,,,,,,4,1.914,0,1,1,1,1,I think it's interesting to learn and develop new hobbies.,0,2,,
,,,,,,,,,,,,,,,90441,001,2022-04-24_18h21.01.093,SPAMnetsValid,2021.1.4,MacIntel,47.61904762,,,,,,,,,,,,,,,,,,,,,,,,,,,,,,,,,,,,,,,,,,,,,,,,,,,,,,,,,,,,,,,,,,,,,,,,,,,,,,4,1.212,0,2,2,2,1,I am intrigued by the patterns I find in art and nature.,0,3,,
,,,,,,,,,,,,,,,90441,001,2022-04-24_18h21.01.093,SPAMnetsValid,2021.1.4,MacIntel,47.61904762,,,,,,,,,,,,,,,,,,,,,,,,,,,,,,,,,,,,,,,,,,,,,,,,,,,,,,,,,,,,,,,,,,,,,,,,,,,,,,3,2.629,0,3,3,3,1,I believe letting students hear controversial speakers can only confuse and mislead them.,1,4,,
,,,,,,,,,,,,,,,90441,001,2022-04-24_18h21.01.093,SPAMnetsValid,2021.1.4,MacIntel,47.61904762,,,,,,,,,,,,,,,,,,,,,,,,,,,,,,,,,,,,,,,,,,,,,,,,,,,,,,,,,,,,,,,,,,,,,,,,,,,,,,2,2.259,0,4,4,4,1,Poetry has little or no effect on me.,1,5,,
,,,,,,,,,,,,,,,90441,001,2022-04-24_18h21.01.093,SPAMnetsValid,2021.1.4,MacIntel,47.61904762,,,,,,,,,,,,,,,,,,,,,,,,,,,,,,,,,,,,,,,,,,,,,,,,,,,,,,,,,,,,,,,,,,,,,,,,,,,,,,2,2.382,0,5,5,5,1,I would have difficulty just letting my mind wander without control or guidance.,1,6,,
,,,,,,,,,,,,,,,90441,001,2022-04-24_18h21.01.093,SPAMnetsValid,2021.1.4,MacIntel,47.61904762,,,,,,,,,,,,,,,,,,,,,,,,,,,,,,,,,,,,,,,,,,,,,,,,,,,,,,,,,,,,,,,,,,,,,,,,,,,,,,4,2.229,0,6,6,6,1,I seldom notice the moods or feelings that different environments produce.,1,7,,
,,,,,,,,,,,,,,,90441,001,2022-04-24_18h21.01.093,SPAMnetsValid,2021.1.4,MacIntel,47.61904762,,,,,,,,,,,,,,,,,,,,,,,,,,,,,,,,,,,,,,,,,,,,,,,,,,,,,,,,,,,,,,,,,,,,,,,,,,,,,,4,1.26,0,7,7,7,1,I experience a wide range of emotions or feelings.,0,8,,
,,,,,,,,,,,,,,,90441,001,2022-04-24_18h21.01.093,SPAMnetsValid,2021.1.4,MacIntel,47.61904762,,,,,,,,,,,,,,,,,,,,,,,,,,,,,,,,,,,,,,,,,,,,,,,,,,,,,,,,,,,,,,,,,,,,,,,,,,,,,,4,1.196,0,8,8,8,1,"Sometimes when I am reading poetry or looking at a work of art, I feel a chill or wave of excitement.",0,9,,
,,,,,,,,,,,,,,,90441,001,2022-04-24_18h21.01.093,SPAMnetsValid,2021.1.4,MacIntel,47.61904762,,,,,,,,,,,,,,,,,,,,,,,,,,,,,,,,,,,,,,,,,,,,,,,,,,,,,,,,,,,,,,,,,,,,,,,,,,,,,,4,2.581,0,9,9,9,1,I have little interest in speculating on the nature of the universe or the human condition.,1,10,,
,,,,,,,,,,,,,,,90441,001,2022-04-24_18h21.01.093,SPAMnetsValid,2021.1.4,MacIntel,47.61904762,,,,,,,,,,,,,,,,,,,,,,,,,,,,,,,,,,,,,,,,,,,,,,,,,,,,,,,,,,,,,,,,,,,,,,,,,,,,,,4,2.512,0,10,10,10,1,I have a lot of intellectual curiosity.,0,11,,
,,,,,,,,,,,,,,,90441,001,2022-04-24_18h21.01.093,SPAMnetsValid,2021.1.4,MacIntel,47.61904762,,,,,,,,,,,,,,,,,,,,,,,,,,,,,,,,,,,,,,,,,,,,,,,,,,,,,,,,,,,,,,,,,,,,,,,,,,,,,,4,1.694,0,11,11,11,1,I often enjoy playing with theories or abstract ideas.,0,12,,
,,,,,,,,,,,,,,,90441,001,2022-04-24_18h21.01.093,SPAMnetsValid,2021.1.4,MacIntel,47.61904762,,,,,,,,,,,,,,,,,,,,,,,,,,,,,,,,,,,,,,,,,,,,,,,,,,,,,,,,,,,,,,,,,,,,,,,,,,,,,,,,,,,,,,,,return,5.548
