key_resp_3.keys,key_resp_3.rt,slider_2.response,slider_2.rt,rjt_rating,rjt_RT,trials_24.thisRepN,trials_24.thisTrialN,trials_24.thisN,trials_24.thisIndex,trials_24.ran,rjt_order,word1,word2,attention,participant,session,date,expName,psychopyVersion,OS,frameRate,trials_4.thisRepN,trials_4.thisTrialN,trials_4.thisN,trials_4.thisIndex,trials_4.ran,trials_5.thisRepN,trials_5.thisTrialN,trials_5.thisN,trials_5.thisIndex,trials_5.ran,repOne,repTwo,slider.response,slider.rt,trials_22.thisRepN,trials_22.thisTrialN,trials_22.thisN,trials_22.thisIndex,trials_22.ran,trials_99.thisRepN,trials_99.thisTrialN,trials_99.thisN,trials_99.thisIndex,trials_99.ran,slider_extend_2.response,slider_extend_2.rt,trials_6.thisRepN,trials_6.thisTrialN,trials_6.thisN,trials_6.thisIndex,trials_6.ran,vCue2,R1,R2,R3,R4,correct,sliderVocab.response,sliderVocab.rt,trials_7.thisRepN,trials_7.thisTrialN,trials_7.thisN,trials_7.thisIndex,trials_7.ran,VocabCue,VR1,VR2,VR3,VR4,VR5,VocabCorrect,AUT_resp,AUT_label,trials.thisRepN,trials.thisTrialN,trials.thisN,trials.thisIndex,trials.ran,trials_2.thisRepN,trials_2.thisTrialN,trials_2.thisN,trials_2.thisIndex,trials_2.ran,aut_prompt,VF_response,VF_tag,trials_16.thisRepN,trials_16.thisTrialN,trials_16.thisN,trials_16.thisIndex,trials_16.ran,trials_17.thisRepN,trials_17.thisTrialN,trials_17.thisN,trials_17.thisIndex,trials_17.ran,VFcond,open_slider.response,open_slider.rt,trials_3.thisRepN,trials_3.thisTrialN,trials_3.thisN,trials_3.thisIndex,trials_3.ran,OpenQ,Rev,OPEN_ORDER,key_resp_2.keys,key_resp_2.rt
return,3.5006,3,4.1025,3,4.1025,0,0,0,50,1,126,kitchen,tree,,90459,001,2022-04-29_11h39.58.718,SPAMnetsValid,2021.1.4,Win32,59.64451867,,,,,,,,,,,,,,,,,,,,,,,,,,,,,,,,,,,,,,,,,,,,,,,,,,,,,,,,,,,,,,,,,,,,,,,,,,,,,,,,,,,,,,,,,
,,6,1.8407,6,1.8407,0,1,1,43,1,185,cactus,rose,,90459,001,2022-04-29_11h39.58.718,SPAMnetsValid,2021.1.4,Win32,59.64451867,,,,,,,,,,,,,,,,,,,,,,,,,,,,,,,,,,,,,,,,,,,,,,,,,,,,,,,,,,,,,,,,,,,,,,,,,,,,,,,,,,,,,,,,,
,,3,1.8635,3,1.8635,0,2,2,4,1,109,broom,strawberry,,90459,001,2022-04-29_11h39.58.718,SPAMnetsValid,2021.1.4,Win32,59.64451867,,,,,,,,,,,,,,,,,,,,,,,,,,,,,,,,,,,,,,,,,,,,,,,,,,,,,,,,,,,,,,,,,,,,,,,,,,,,,,,,,,,,,,,,,
,,4,1.9745,4,1.9745,0,3,3,21,1,159,cookie,flower,,90459,001,2022-04-29_11h39.58.718,SPAMnetsValid,2021.1.4,Win32,59.64451867,,,,,,,,,,,,,,,,,,,,,,,,,,,,,,,,,,,,,,,,,,,,,,,,,,,,,,,,,,,,,,,,,,,,,,,,,,,,,,,,,,,,,,,,,
,,9,2.182900001,9,2.182900001,0,4,4,60,1,122,flower,garden,,90459,001,2022-04-29_11h39.58.718,SPAMnetsValid,2021.1.4,Win32,59.64451867,,,,,,,,,,,,,,,,,,,,,,,,,,,,,,,,,,,,,,,,,,,,,,,,,,,,,,,,,,,,,,,,,,,,,,,,,,,,,,,,,,,,,,,,,
,,2,2.1426,2,2.1426,0,5,5,46,1,123,cookie,tree,,90459,001,2022-04-29_11h39.58.718,SPAMnetsValid,2021.1.4,Win32,59.64451867,,,,,,,,,,,,,,,,,,,,,,,,,,,,,,,,,,,,,,,,,,,,,,,,,,,,,,,,,,,,,,,,,,,,,,,,,,,,,,,,,,,,,,,,,
,,6,2.4124,6,2.4124,0,6,6,33,1,131,cactus,garden,,90459,001,2022-04-29_11h39.58.718,SPAMnetsValid,2021.1.4,Win32,59.64451867,,,,,,,,,,,,,,,,,,,,,,,,,,,,,,,,,,,,,,,,,,,,,,,,,,,,,,,,,,,,,,,,,,,,,,,,,,,,,,,,,,,,,,,,,
,,8,1.8888,8,1.8888,0,7,7,1,1,173,kitchen,tomato,,90459,001,2022-04-29_11h39.58.718,SPAMnetsValid,2021.1.4,Win32,59.64451867,,,,,,,,,,,,,,,,,,,,,,,,,,,,,,,,,,,,,,,,,,,,,,,,,,,,,,,,,,,,,,,,,,,,,,,,,,,,,,,,,,,,,,,,,
,,6,1.8842,6,1.8842,0,8,8,16,1,111,carrot,microwave,,90459,001,2022-04-29_11h39.58.718,SPAMnetsValid,2021.1.4,Win32,59.64451867,,,,,,,,,,,,,,,,,,,,,,,,,,,,,,,,,,,,,,,,,,,,,,,,,,,,,,,,,,,,,,,,,,,,,,,,,,,,,,,,,,,,,,,,,
,,8,1.5173,8,1.5173,0,9,9,17,1,99,garden,melon,,90459,001,2022-04-29_11h39.58.718,SPAMnetsValid,2021.1.4,Win32,59.64451867,,,,,,,,,,,,,,,,,,,,,,,,,,,,,,,,,,,,,,,,,,,,,,,,,,,,,,,,,,,,,,,,,,,,,,,,,,,,,,,,,,,,,,,,,
,,4,2.864,4,2.864,0,10,10,81,1,104,garden,microwave,,90459,001,2022-04-29_11h39.58.718,SPAMnetsValid,2021.1.4,Win32,59.64451867,,,,,,,,,,,,,,,,,,,,,,,,,,,,,,,,,,,,,,,,,,,,,,,,,,,,,,,,,,,,,,,,,,,,,,,,,,,,,,,,,,,,,,,,,
,,9,2.3088,9,2.3088,0,11,11,70,1,141,melon,tomato,,90459,001,2022-04-29_11h39.58.718,SPAMnetsValid,2021.1.4,Win32,59.64451867,,,,,,,,,,,,,,,,,,,,,,,,,,,,,,,,,,,,,,,,,,,,,,,,,,,,,,,,,,,,,,,,,,,,,,,,,,,,,,,,,,,,,,,,,
,,9,1.741,9,1.741,0,12,12,27,1,158,cookie,oven,,90459,001,2022-04-29_11h39.58.718,SPAMnetsValid,2021.1.4,Win32,59.64451867,,,,,,,,,,,,,,,,,,,,,,,,,,,,,,,,,,,,,,,,,,,,,,,,,,,,,,,,,,,,,,,,,,,,,,,,,,,,,,,,,,,,,,,,,
,,2,1.8216,2,1.8216,0,13,13,95,1,121,broom,microwave,,90459,001,2022-04-29_11h39.58.718,SPAMnetsValid,2021.1.4,Win32,59.64451867,,,,,,,,,,,,,,,,,,,,,,,,,,,,,,,,,,,,,,,,,,,,,,,,,,,,,,,,,,,,,,,,,,,,,,,,,,,,,,,,,,,,,,,,,
,,9,1.441,9,1.441,0,14,14,25,1,194,cactus,cactus,CHECK,90459,001,2022-04-29_11h39.58.718,SPAMnetsValid,2021.1.4,Win32,59.64451867,,,,,,,,,,,,,,,,,,,,,,,,,,,,,,,,,,,,,,,,,,,,,,,,,,,,,,,,,,,,,,,,,,,,,,,,,,,,,,,,,,,,,,,,,
,,6,2.2581,6,2.2581,0,15,15,9,1,176,cactus,tomato,,90459,001,2022-04-29_11h39.58.718,SPAMnetsValid,2021.1.4,Win32,59.64451867,,,,,,,,,,,,,,,,,,,,,,,,,,,,,,,,,,,,,,,,,,,,,,,,,,,,,,,,,,,,,,,,,,,,,,,,,,,,,,,,,,,,,,,,,
,,5,3.6489,5,3.6489,0,16,16,5,1,108,carrot,chocolate,,90459,001,2022-04-29_11h39.58.718,SPAMnetsValid,2021.1.4,Win32,59.64451867,,,,,,,,,,,,,,,,,,,,,,,,,,,,,,,,,,,,,,,,,,,,,,,,,,,,,,,,,,,,,,,,,,,,,,,,,,,,,,,,,,,,,,,,,
,,1,2.4768,1,2.4768,0,17,17,79,1,103,pretzel,tomato,,90459,001,2022-04-29_11h39.58.718,SPAMnetsValid,2021.1.4,Win32,59.64451867,,,,,,,,,,,,,,,,,,,,,,,,,,,,,,,,,,,,,,,,,,,,,,,,,,,,,,,,,,,,,,,,,,,,,,,,,,,,,,,,,,,,,,,,,
,,1,3.9635,1,3.9635,0,18,18,55,1,143,pretzel,rose,,90459,001,2022-04-29_11h39.58.718,SPAMnetsValid,2021.1.4,Win32,59.64451867,,,,,,,,,,,,,,,,,,,,,,,,,,,,,,,,,,,,,,,,,,,,,,,,,,,,,,,,,,,,,,,,,,,,,,,,,,,,,,,,,,,,,,,,,
,,9,1.5307,9,1.5307,0,19,19,28,1,154,strawberry,yogurt,,90459,001,2022-04-29_11h39.58.718,SPAMnetsValid,2021.1.4,Win32,59.64451867,,,,,,,,,,,,,,,,,,,,,,,,,,,,,,,,,,,,,,,,,,,,,,,,,,,,,,,,,,,,,,,,,,,,,,,,,,,,,,,,,,,,,,,,,
,,7,2.180299999,7,2.180299999,0,20,20,51,1,168,cactus,flower,,90459,001,2022-04-29_11h39.58.718,SPAMnetsValid,2021.1.4,Win32,59.64451867,,,,,,,,,,,,,,,,,,,,,,,,,,,,,,,,,,,,,,,,,,,,,,,,,,,,,,,,,,,,,,,,,,,,,,,,,,,,,,,,,,,,,,,,,
,,8,3.2054,8,3.2054,0,21,21,53,1,177,chocolate,strawberry,,90459,001,2022-04-29_11h39.58.718,SPAMnetsValid,2021.1.4,Win32,59.64451867,,,,,,,,,,,,,,,,,,,,,,,,,,,,,,,,,,,,,,,,,,,,,,,,,,,,,,,,,,,,,,,,,,,,,,,,,,,,,,,,,,,,,,,,,
,,1,2.0387,1,2.0387,0,22,22,63,1,137,microwave,tree,,90459,001,2022-04-29_11h39.58.718,SPAMnetsValid,2021.1.4,Win32,59.64451867,,,,,,,,,,,,,,,,,,,,,,,,,,,,,,,,,,,,,,,,,,,,,,,,,,,,,,,,,,,,,,,,,,,,,,,,,,,,,,,,,,,,,,,,,
,,8,1.7957,8,1.7957,0,23,23,18,1,119,strawberry,tree,,90459,001,2022-04-29_11h39.58.718,SPAMnetsValid,2021.1.4,Win32,59.64451867,,,,,,,,,,,,,,,,,,,,,,,,,,,,,,,,,,,,,,,,,,,,,,,,,,,,,,,,,,,,,,,,,,,,,,,,,,,,,,,,,,,,,,,,,
,,5,3.1316,5,3.1316,0,24,24,37,1,139,carrot,strawberry,,90459,001,2022-04-29_11h39.58.718,SPAMnetsValid,2021.1.4,Win32,59.64451867,,,,,,,,,,,,,,,,,,,,,,,,,,,,,,,,,,,,,,,,,,,,,,,,,,,,,,,,,,,,,,,,,,,,,,,,,,,,,,,,,,,,,,,,,
,,9,1.5233,9,1.5233,0,25,25,22,1,142,garden,tree,,90459,001,2022-04-29_11h39.58.718,SPAMnetsValid,2021.1.4,Win32,59.64451867,,,,,,,,,,,,,,,,,,,,,,,,,,,,,,,,,,,,,,,,,,,,,,,,,,,,,,,,,,,,,,,,,,,,,,,,,,,,,,,,,,,,,,,,,
,,6,2.100299999,6,2.100299999,0,26,26,8,1,97,chocolate,kitchen,,90459,001,2022-04-29_11h39.58.718,SPAMnetsValid,2021.1.4,Win32,59.64451867,,,,,,,,,,,,,,,,,,,,,,,,,,,,,,,,,,,,,,,,,,,,,,,,,,,,,,,,,,,,,,,,,,,,,,,,,,,,,,,,,,,,,,,,,
,,3,2.9736,3,2.9736,0,27,27,32,1,182,flower,refrigerator,,90459,001,2022-04-29_11h39.58.718,SPAMnetsValid,2021.1.4,Win32,59.64451867,,,,,,,,,,,,,,,,,,,,,,,,,,,,,,,,,,,,,,,,,,,,,,,,,,,,,,,,,,,,,,,,,,,,,,,,,,,,,,,,,,,,,,,,,
,,4,2.917599999,4,2.917599999,0,28,28,38,1,155,carrot,cookie,,90459,001,2022-04-29_11h39.58.718,SPAMnetsValid,2021.1.4,Win32,59.64451867,,,,,,,,,,,,,,,,,,,,,,,,,,,,,,,,,,,,,,,,,,,,,,,,,,,,,,,,,,,,,,,,,,,,,,,,,,,,,,,,,,,,,,,,,
,,6,2.592599999,6,2.592599999,0,29,29,23,1,148,flower,melon,,90459,001,2022-04-29_11h39.58.718,SPAMnetsValid,2021.1.4,Win32,59.64451867,,,,,,,,,,,,,,,,,,,,,,,,,,,,,,,,,,,,,,,,,,,,,,,,,,,,,,,,,,,,,,,,,,,,,,,,,,,,,,,,,,,,,,,,,
,,1,1.5463,1,1.5463,0,30,30,34,1,153,carrot,pretzel,,90459,001,2022-04-29_11h39.58.718,SPAMnetsValid,2021.1.4,Win32,59.64451867,,,,,,,,,,,,,,,,,,,,,,,,,,,,,,,,,,,,,,,,,,,,,,,,,,,,,,,,,,,,,,,,,,,,,,,,,,,,,,,,,,,,,,,,,
,,2,5.8763,2,5.8763,0,31,31,73,1,135,carrot,oven,,90459,001,2022-04-29_11h39.58.718,SPAMnetsValid,2021.1.4,Win32,59.64451867,,,,,,,,,,,,,,,,,,,,,,,,,,,,,,,,,,,,,,,,,,,,,,,,,,,,,,,,,,,,,,,,,,,,,,,,,,,,,,,,,,,,,,,,,
,,8,2.791,8,2.791,0,32,32,35,1,147,cake,refrigerator,,90459,001,2022-04-29_11h39.58.718,SPAMnetsValid,2021.1.4,Win32,59.64451867,,,,,,,,,,,,,,,,,,,,,,,,,,,,,,,,,,,,,,,,,,,,,,,,,,,,,,,,,,,,,,,,,,,,,,,,,,,,,,,,,,,,,,,,,
,,8,1.415799999,8,1.415799999,0,33,33,89,1,140,cookie,refrigerator,,90459,001,2022-04-29_11h39.58.718,SPAMnetsValid,2021.1.4,Win32,59.64451867,,,,,,,,,,,,,,,,,,,,,,,,,,,,,,,,,,,,,,,,,,,,,,,,,,,,,,,,,,,,,,,,,,,,,,,,,,,,,,,,,,,,,,,,,
,,8,3.2439,8,3.2439,0,34,34,85,1,115,refrigerator,tomato,,90459,001,2022-04-29_11h39.58.718,SPAMnetsValid,2021.1.4,Win32,59.64451867,,,,,,,,,,,,,,,,,,,,,,,,,,,,,,,,,,,,,,,,,,,,,,,,,,,,,,,,,,,,,,,,,,,,,,,,,,,,,,,,,,,,,,,,,
,,2,1.9639,2,1.9639,0,35,35,78,1,132,broom,tree,,90459,001,2022-04-29_11h39.58.718,SPAMnetsValid,2021.1.4,Win32,59.64451867,,,,,,,,,,,,,,,,,,,,,,,,,,,,,,,,,,,,,,,,,,,,,,,,,,,,,,,,,,,,,,,,,,,,,,,,,,,,,,,,,,,,,,,,,
,,8,6.8313,8,6.8313,0,36,36,11,1,117,melon,strawberry,,90459,001,2022-04-29_11h39.58.718,SPAMnetsValid,2021.1.4,Win32,59.64451867,,,,,,,,,,,,,,,,,,,,,,,,,,,,,,,,,,,,,,,,,,,,,,,,,,,,,,,,,,,,,,,,,,,,,,,,,,,,,,,,,,,,,,,,,
,,9,1.9247,9,1.9247,0,37,37,42,1,184,oven,pretzel,,90459,001,2022-04-29_11h39.58.718,SPAMnetsValid,2021.1.4,Win32,59.64451867,,,,,,,,,,,,,,,,,,,,,,,,,,,,,,,,,,,,,,,,,,,,,,,,,,,,,,,,,,,,,,,,,,,,,,,,,,,,,,,,,,,,,,,,,
,,7,1.134099999,7,1.134099999,0,38,38,26,1,107,rose,tomato,,90459,001,2022-04-29_11h39.58.718,SPAMnetsValid,2021.1.4,Win32,59.64451867,,,,,,,,,,,,,,,,,,,,,,,,,,,,,,,,,,,,,,,,,,,,,,,,,,,,,,,,,,,,,,,,,,,,,,,,,,,,,,,,,,,,,,,,,
,,9,2.1919,9,2.1919,0,39,39,14,1,120,microwave,oven,,90459,001,2022-04-29_11h39.58.718,SPAMnetsValid,2021.1.4,Win32,59.64451867,,,,,,,,,,,,,,,,,,,,,,,,,,,,,,,,,,,,,,,,,,,,,,,,,,,,,,,,,,,,,,,,,,,,,,,,,,,,,,,,,,,,,,,,,
,,3,2.5344,3,2.5344,0,40,40,82,1,98,pretzel,strawberry,,90459,001,2022-04-29_11h39.58.718,SPAMnetsValid,2021.1.4,Win32,59.64451867,,,,,,,,,,,,,,,,,,,,,,,,,,,,,,,,,,,,,,,,,,,,,,,,,,,,,,,,,,,,,,,,,,,,,,,,,,,,,,,,,,,,,,,,,
,,8,2.5807,8,2.5807,0,41,41,29,1,163,melon,refrigerator,,90459,001,2022-04-29_11h39.58.718,SPAMnetsValid,2021.1.4,Win32,59.64451867,,,,,,,,,,,,,,,,,,,,,,,,,,,,,,,,,,,,,,,,,,,,,,,,,,,,,,,,,,,,,,,,,,,,,,,,,,,,,,,,,,,,,,,,,
,,4,1.923,4,1.923,0,42,42,12,1,162,microwave,tomato,,90459,001,2022-04-29_11h39.58.718,SPAMnetsValid,2021.1.4,Win32,59.64451867,,,,,,,,,,,,,,,,,,,,,,,,,,,,,,,,,,,,,,,,,,,,,,,,,,,,,,,,,,,,,,,,,,,,,,,,,,,,,,,,,,,,,,,,,
,,9,1.746,9,1.746,0,43,43,83,1,100,garden,tomato,,90459,001,2022-04-29_11h39.58.718,SPAMnetsValid,2021.1.4,Win32,59.64451867,,,,,,,,,,,,,,,,,,,,,,,,,,,,,,,,,,,,,,,,,,,,,,,,,,,,,,,,,,,,,,,,,,,,,,,,,,,,,,,,,,,,,,,,,
,,3,2.2557,3,2.2557,0,44,44,75,1,178,cactus,carrot,,90459,001,2022-04-29_11h39.58.718,SPAMnetsValid,2021.1.4,Win32,59.64451867,,,,,,,,,,,,,,,,,,,,,,,,,,,,,,,,,,,,,,,,,,,,,,,,,,,,,,,,,,,,,,,,,,,,,,,,,,,,,,,,,,,,,,,,,
,,6,2.8384,6,2.8384,0,45,45,93,1,134,carrot,flower,,90459,001,2022-04-29_11h39.58.718,SPAMnetsValid,2021.1.4,Win32,59.64451867,,,,,,,,,,,,,,,,,,,,,,,,,,,,,,,,,,,,,,,,,,,,,,,,,,,,,,,,,,,,,,,,,,,,,,,,,,,,,,,,,,,,,,,,,
,,6,1.941,6,1.941,0,46,46,41,1,175,melon,onion,,90459,001,2022-04-29_11h39.58.718,SPAMnetsValid,2021.1.4,Win32,59.64451867,,,,,,,,,,,,,,,,,,,,,,,,,,,,,,,,,,,,,,,,,,,,,,,,,,,,,,,,,,,,,,,,,,,,,,,,,,,,,,,,,,,,,,,,,
,,3,4.0589,3,4.0589,0,47,47,96,1,136,chocolate,microwave,,90459,001,2022-04-29_11h39.58.718,SPAMnetsValid,2021.1.4,Win32,59.64451867,,,,,,,,,,,,,,,,,,,,,,,,,,,,,,,,,,,,,,,,,,,,,,,,,,,,,,,,,,,,,,,,,,,,,,,,,,,,,,,,,,,,,,,,,
,,8,1.9495,8,1.9495,0,48,48,65,1,160,cookie,kitchen,,90459,001,2022-04-29_11h39.58.718,SPAMnetsValid,2021.1.4,Win32,59.64451867,,,,,,,,,,,,,,,,,,,,,,,,,,,,,,,,,,,,,,,,,,,,,,,,,,,,,,,,,,,,,,,,,,,,,,,,,,,,,,,,,,,,,,,,,
,,7,3.0558,7,3.0558,0,49,49,56,1,113,refrigerator,strawberry,,90459,001,2022-04-29_11h39.58.718,SPAMnetsValid,2021.1.4,Win32,59.64451867,,,,,,,,,,,,,,,,,,,,,,,,,,,,,,,,,,,,,,,,,,,,,,,,,,,,,,,,,,,,,,,,,,,,,,,,,,,,,,,,,,,,,,,,,
,,9,1.4809,9,1.4809,0,50,50,86,1,193,melon,melon,CHECK,90459,001,2022-04-29_11h39.58.718,SPAMnetsValid,2021.1.4,Win32,59.64451867,,,,,,,,,,,,,,,,,,,,,,,,,,,,,,,,,,,,,,,,,,,,,,,,,,,,,,,,,,,,,,,,,,,,,,,,,,,,,,,,,,,,,,,,,
,,5,6.1834,5,6.1834,0,51,51,10,1,118,chocolate,oven,,90459,001,2022-04-29_11h39.58.718,SPAMnetsValid,2021.1.4,Win32,59.64451867,,,,,,,,,,,,,,,,,,,,,,,,,,,,,,,,,,,,,,,,,,,,,,,,,,,,,,,,,,,,,,,,,,,,,,,,,,,,,,,,,,,,,,,,,
,,2,2.3823,2,2.3823,0,52,52,20,1,149,broom,tomato,,90459,001,2022-04-29_11h39.58.718,SPAMnetsValid,2021.1.4,Win32,59.64451867,,,,,,,,,,,,,,,,,,,,,,,,,,,,,,,,,,,,,,,,,,,,,,,,,,,,,,,,,,,,,,,,,,,,,,,,,,,,,,,,,,,,,,,,,
,,1,4.0218,1,4.0218,0,53,53,71,1,187,cactus,microwave,,90459,001,2022-04-29_11h39.58.718,SPAMnetsValid,2021.1.4,Win32,59.64451867,,,,,,,,,,,,,,,,,,,,,,,,,,,,,,,,,,,,,,,,,,,,,,,,,,,,,,,,,,,,,,,,,,,,,,,,,,,,,,,,,,,,,,,,,
,,6,3.5751,6,3.5751,0,54,54,77,1,172,kitchen,melon,,90459,001,2022-04-29_11h39.58.718,SPAMnetsValid,2021.1.4,Win32,59.64451867,,,,,,,,,,,,,,,,,,,,,,,,,,,,,,,,,,,,,,,,,,,,,,,,,,,,,,,,,,,,,,,,,,,,,,,,,,,,,,,,,,,,,,,,,
,,6,2.1799,6,2.1799,0,55,55,76,1,102,chocolate,refrigerator,,90459,001,2022-04-29_11h39.58.718,SPAMnetsValid,2021.1.4,Win32,59.64451867,,,,,,,,,,,,,,,,,,,,,,,,,,,,,,,,,,,,,,,,,,,,,,,,,,,,,,,,,,,,,,,,,,,,,,,,,,,,,,,,,,,,,,,,,
,,5,3.0633,5,3.0633,0,56,56,48,1,186,kitchen,yogurt,,90459,001,2022-04-29_11h39.58.718,SPAMnetsValid,2021.1.4,Win32,59.64451867,,,,,,,,,,,,,,,,,,,,,,,,,,,,,,,,,,,,,,,,,,,,,,,,,,,,,,,,,,,,,,,,,,,,,,,,,,,,,,,,,,,,,,,,,
,,3,1.9883,3,1.9883,0,57,57,2,1,174,cake,pretzel,,90459,001,2022-04-29_11h39.58.718,SPAMnetsValid,2021.1.4,Win32,59.64451867,,,,,,,,,,,,,,,,,,,,,,,,,,,,,,,,,,,,,,,,,,,,,,,,,,,,,,,,,,,,,,,,,,,,,,,,,,,,,,,,,,,,,,,,,
,,1,3.2479,1,3.2479,0,58,58,13,1,105,cactus,oven,,90459,001,2022-04-29_11h39.58.718,SPAMnetsValid,2021.1.4,Win32,59.64451867,,,,,,,,,,,,,,,,,,,,,,,,,,,,,,,,,,,,,,,,,,,,,,,,,,,,,,,,,,,,,,,,,,,,,,,,,,,,,,,,,,,,,,,,,
,,3,2.3719,3,2.3719,0,59,59,74,1,128,melon,microwave,,90459,001,2022-04-29_11h39.58.718,SPAMnetsValid,2021.1.4,Win32,59.64451867,,,,,,,,,,,,,,,,,,,,,,,,,,,,,,,,,,,,,,,,,,,,,,,,,,,,,,,,,,,,,,,,,,,,,,,,,,,,,,,,,,,,,,,,,
,,3,2.2714,3,2.2714,0,60,60,68,1,180,tree,yogurt,,90459,001,2022-04-29_11h39.58.718,SPAMnetsValid,2021.1.4,Win32,59.64451867,,,,,,,,,,,,,,,,,,,,,,,,,,,,,,,,,,,,,,,,,,,,,,,,,,,,,,,,,,,,,,,,,,,,,,,,,,,,,,,,,,,,,,,,,
,,6,3.0297,6,3.0297,0,61,61,72,1,181,carrot,kitchen,,90459,001,2022-04-29_11h39.58.718,SPAMnetsValid,2021.1.4,Win32,59.64451867,,,,,,,,,,,,,,,,,,,,,,,,,,,,,,,,,,,,,,,,,,,,,,,,,,,,,,,,,,,,,,,,,,,,,,,,,,,,,,,,,,,,,,,,,
,,4,3.2994,4,3.2994,0,62,62,92,1,170,cookie,microwave,,90459,001,2022-04-29_11h39.58.718,SPAMnetsValid,2021.1.4,Win32,59.64451867,,,,,,,,,,,,,,,,,,,,,,,,,,,,,,,,,,,,,,,,,,,,,,,,,,,,,,,,,,,,,,,,,,,,,,,,,,,,,,,,,,,,,,,,,
,,1,2.1551,1,2.1551,0,63,63,80,1,146,pretzel,tree,,90459,001,2022-04-29_11h39.58.718,SPAMnetsValid,2021.1.4,Win32,59.64451867,,,,,,,,,,,,,,,,,,,,,,,,,,,,,,,,,,,,,,,,,,,,,,,,,,,,,,,,,,,,,,,,,,,,,,,,,,,,,,,,,,,,,,,,,
,,2,2.915,2,2.915,0,64,64,58,1,144,cake,garden,,90459,001,2022-04-29_11h39.58.718,SPAMnetsValid,2021.1.4,Win32,59.64451867,,,,,,,,,,,,,,,,,,,,,,,,,,,,,,,,,,,,,,,,,,,,,,,,,,,,,,,,,,,,,,,,,,,,,,,,,,,,,,,,,,,,,,,,,
,,9,1.4998,9,1.4998,0,65,65,52,1,110,chocolate,cookie,,90459,001,2022-04-29_11h39.58.718,SPAMnetsValid,2021.1.4,Win32,59.64451867,,,,,,,,,,,,,,,,,,,,,,,,,,,,,,,,,,,,,,,,,,,,,,,,,,,,,,,,,,,,,,,,,,,,,,,,,,,,,,,,,,,,,,,,,
,,3,1.6976,3,1.6976,0,66,66,88,1,171,cake,tomato,,90459,001,2022-04-29_11h39.58.718,SPAMnetsValid,2021.1.4,Win32,59.64451867,,,,,,,,,,,,,,,,,,,,,,,,,,,,,,,,,,,,,,,,,,,,,,,,,,,,,,,,,,,,,,,,,,,,,,,,,,,,,,,,,,,,,,,,,
,,4,2.2713,4,2.2713,0,67,67,49,1,152,cactus,strawberry,,90459,001,2022-04-29_11h39.58.718,SPAMnetsValid,2021.1.4,Win32,59.64451867,,,,,,,,,,,,,,,,,,,,,,,,,,,,,,,,,,,,,,,,,,,,,,,,,,,,,,,,,,,,,,,,,,,,,,,,,,,,,,,,,,,,,,,,,
,,5,3.124,5,3.124,0,68,68,0,1,106,cake,strawberry,,90459,001,2022-04-29_11h39.58.718,SPAMnetsValid,2021.1.4,Win32,59.64451867,,,,,,,,,,,,,,,,,,,,,,,,,,,,,,,,,,,,,,,,,,,,,,,,,,,,,,,,,,,,,,,,,,,,,,,,,,,,,,,,,,,,,,,,,
,,3,2.3473,3,2.3473,0,69,69,30,1,125,carrot,tree,,90459,001,2022-04-29_11h39.58.718,SPAMnetsValid,2021.1.4,Win32,59.64451867,,,,,,,,,,,,,,,,,,,,,,,,,,,,,,,,,,,,,,,,,,,,,,,,,,,,,,,,,,,,,,,,,,,,,,,,,,,,,,,,,,,,,,,,,
,,9,2.6636,9,2.6636,0,70,70,44,1,116,cake,chocolate,,90459,001,2022-04-29_11h39.58.718,SPAMnetsValid,2021.1.4,Win32,59.64451867,,,,,,,,,,,,,,,,,,,,,,,,,,,,,,,,,,,,,,,,,,,,,,,,,,,,,,,,,,,,,,,,,,,,,,,,,,,,,,,,,,,,,,,,,
,,4,1.9553,4,1.9553,0,71,71,87,1,114,cookie,strawberry,,90459,001,2022-04-29_11h39.58.718,SPAMnetsValid,2021.1.4,Win32,59.64451867,,,,,,,,,,,,,,,,,,,,,,,,,,,,,,,,,,,,,,,,,,,,,,,,,,,,,,,,,,,,,,,,,,,,,,,,,,,,,,,,,,,,,,,,,
,,9,2.1131,9,2.1131,0,72,72,47,1,167,carrot,garden,,90459,001,2022-04-29_11h39.58.718,SPAMnetsValid,2021.1.4,Win32,59.64451867,,,,,,,,,,,,,,,,,,,,,,,,,,,,,,,,,,,,,,,,,,,,,,,,,,,,,,,,,,,,,,,,,,,,,,,,,,,,,,,,,,,,,,,,,
,,2,2.5681,2,2.5681,0,73,73,59,1,164,cookie,garden,,90459,001,2022-04-29_11h39.58.718,SPAMnetsValid,2021.1.4,Win32,59.64451867,,,,,,,,,,,,,,,,,,,,,,,,,,,,,,,,,,,,,,,,,,,,,,,,,,,,,,,,,,,,,,,,,,,,,,,,,,,,,,,,,,,,,,,,,
,,3,2.033299999,3,2.033299999,0,74,74,24,1,169,onion,yogurt,,90459,001,2022-04-29_11h39.58.718,SPAMnetsValid,2021.1.4,Win32,59.64451867,,,,,,,,,,,,,,,,,,,,,,,,,,,,,,,,,,,,,,,,,,,,,,,,,,,,,,,,,,,,,,,,,,,,,,,,,,,,,,,,,,,,,,,,,
,,9,1.746900001,9,1.746900001,0,75,75,66,1,150,microwave,refrigerator,,90459,001,2022-04-29_11h39.58.718,SPAMnetsValid,2021.1.4,Win32,59.64451867,,,,,,,,,,,,,,,,,,,,,,,,,,,,,,,,,,,,,,,,,,,,,,,,,,,,,,,,,,,,,,,,,,,,,,,,,,,,,,,,,,,,,,,,,
,,2,1.817099999,2,1.817099999,0,76,76,57,1,127,cactus,chocolate,,90459,001,2022-04-29_11h39.58.718,SPAMnetsValid,2021.1.4,Win32,59.64451867,,,,,,,,,,,,,,,,,,,,,,,,,,,,,,,,,,,,,,,,,,,,,,,,,,,,,,,,,,,,,,,,,,,,,,,,,,,,,,,,,,,,,,,,,
,,3,1.5075,3,1.5075,0,77,77,31,1,156,melon,rose,,90459,001,2022-04-29_11h39.58.718,SPAMnetsValid,2021.1.4,Win32,59.64451867,,,,,,,,,,,,,,,,,,,,,,,,,,,,,,,,,,,,,,,,,,,,,,,,,,,,,,,,,,,,,,,,,,,,,,,,,,,,,,,,,,,,,,,,,
,,9,2.113099999,9,2.113099999,0,78,78,61,1,138,flower,rose,,90459,001,2022-04-29_11h39.58.718,SPAMnetsValid,2021.1.4,Win32,59.64451867,,,,,,,,,,,,,,,,,,,,,,,,,,,,,,,,,,,,,,,,,,,,,,,,,,,,,,,,,,,,,,,,,,,,,,,,,,,,,,,,,,,,,,,,,
,,5,5.6179,5,5.6179,0,79,79,91,1,166,cake,yogurt,,90459,001,2022-04-29_11h39.58.718,SPAMnetsValid,2021.1.4,Win32,59.64451867,,,,,,,,,,,,,,,,,,,,,,,,,,,,,,,,,,,,,,,,,,,,,,,,,,,,,,,,,,,,,,,,,,,,,,,,,,,,,,,,,,,,,,,,,
,,4,2.589599999,4,2.589599999,0,80,80,19,1,183,cake,rose,,90459,001,2022-04-29_11h39.58.718,SPAMnetsValid,2021.1.4,Win32,59.64451867,,,,,,,,,,,,,,,,,,,,,,,,,,,,,,,,,,,,,,,,,,,,,,,,,,,,,,,,,,,,,,,,,,,,,,,,,,,,,,,,,,,,,,,,,
,,2,1.4832,2,1.4832,0,81,81,64,1,157,refrigerator,rose,,90459,001,2022-04-29_11h39.58.718,SPAMnetsValid,2021.1.4,Win32,59.64451867,,,,,,,,,,,,,,,,,,,,,,,,,,,,,,,,,,,,,,,,,,,,,,,,,,,,,,,,,,,,,,,,,,,,,,,,,,,,,,,,,,,,,,,,,
,,9,2.5796,9,2.5796,0,82,82,7,1,188,flower,tree,,90459,001,2022-04-29_11h39.58.718,SPAMnetsValid,2021.1.4,Win32,59.64451867,,,,,,,,,,,,,,,,,,,,,,,,,,,,,,,,,,,,,,,,,,,,,,,,,,,,,,,,,,,,,,,,,,,,,,,,,,,,,,,,,,,,,,,,,
,,4,1.8284,4,1.8284,0,83,83,90,1,190,microwave,strawberry,,90459,001,2022-04-29_11h39.58.718,SPAMnetsValid,2021.1.4,Win32,59.64451867,,,,,,,,,,,,,,,,,,,,,,,,,,,,,,,,,,,,,,,,,,,,,,,,,,,,,,,,,,,,,,,,,,,,,,,,,,,,,,,,,,,,,,,,,
,,5,3.0408,5,3.0408,0,84,84,62,1,189,onion,tree,,90459,001,2022-04-29_11h39.58.718,SPAMnetsValid,2021.1.4,Win32,59.64451867,,,,,,,,,,,,,,,,,,,,,,,,,,,,,,,,,,,,,,,,,,,,,,,,,,,,,,,,,,,,,,,,,,,,,,,,,,,,,,,,,,,,,,,,,
,,4,1.699,4,1.699,0,85,85,67,1,96,oven,strawberry,,90459,001,2022-04-29_11h39.58.718,SPAMnetsValid,2021.1.4,Win32,59.64451867,,,,,,,,,,,,,,,,,,,,,,,,,,,,,,,,,,,,,,,,,,,,,,,,,,,,,,,,,,,,,,,,,,,,,,,,,,,,,,,,,,,,,,,,,
,,3,1.8869,3,1.8869,0,86,86,15,1,145,cactus,yogurt,,90459,001,2022-04-29_11h39.58.718,SPAMnetsValid,2021.1.4,Win32,59.64451867,,,,,,,,,,,,,,,,,,,,,,,,,,,,,,,,,,,,,,,,,,,,,,,,,,,,,,,,,,,,,,,,,,,,,,,,,,,,,,,,,,,,,,,,,
,,9,1.7466,9,1.7466,0,87,87,39,1,112,cake,carrot,,90459,001,2022-04-29_11h39.58.718,SPAMnetsValid,2021.1.4,Win32,59.64451867,,,,,,,,,,,,,,,,,,,,,,,,,,,,,,,,,,,,,,,,,,,,,,,,,,,,,,,,,,,,,,,,,,,,,,,,,,,,,,,,,,,,,,,,,
,,3,2.3901,3,2.3901,0,88,88,36,1,161,kitchen,pretzel,,90459,001,2022-04-29_11h39.58.718,SPAMnetsValid,2021.1.4,Win32,59.64451867,,,,,,,,,,,,,,,,,,,,,,,,,,,,,,,,,,,,,,,,,,,,,,,,,,,,,,,,,,,,,,,,,,,,,,,,,,,,,,,,,,,,,,,,,
,,5,2.1452,5,2.1452,0,89,89,40,1,165,onion,rose,,90459,001,2022-04-29_11h39.58.718,SPAMnetsValid,2021.1.4,Win32,59.64451867,,,,,,,,,,,,,,,,,,,,,,,,,,,,,,,,,,,,,,,,,,,,,,,,,,,,,,,,,,,,,,,,,,,,,,,,,,,,,,,,,,,,,,,,,
,,3,1.4978,3,1.4978,0,90,90,94,1,133,cake,flower,,90459,001,2022-04-29_11h39.58.718,SPAMnetsValid,2021.1.4,Win32,59.64451867,,,,,,,,,,,,,,,,,,,,,,,,,,,,,,,,,,,,,,,,,,,,,,,,,,,,,,,,,,,,,,,,,,,,,,,,,,,,,,,,,,,,,,,,,
,,2,2.169299999,2,2.169299999,0,91,91,3,1,129,cactus,refrigerator,,90459,001,2022-04-29_11h39.58.718,SPAMnetsValid,2021.1.4,Win32,59.64451867,,,,,,,,,,,,,,,,,,,,,,,,,,,,,,,,,,,,,,,,,,,,,,,,,,,,,,,,,,,,,,,,,,,,,,,,,,,,,,,,,,,,,,,,,
,,2,2.4323,2,2.4323,0,92,92,45,1,179,broom,oven,,90459,001,2022-04-29_11h39.58.718,SPAMnetsValid,2021.1.4,Win32,59.64451867,,,,,,,,,,,,,,,,,,,,,,,,,,,,,,,,,,,,,,,,,,,,,,,,,,,,,,,,,,,,,,,,,,,,,,,,,,,,,,,,,,,,,,,,,
,,3,1.7783,3,1.7783,0,93,93,84,1,130,microwave,yogurt,,90459,001,2022-04-29_11h39.58.718,SPAMnetsValid,2021.1.4,Win32,59.64451867,,,,,,,,,,,,,,,,,,,,,,,,,,,,,,,,,,,,,,,,,,,,,,,,,,,,,,,,,,,,,,,,,,,,,,,,,,,,,,,,,,,,,,,,,
,,3,1.8689,3,1.8689,0,94,94,6,1,151,microwave,onion,,90459,001,2022-04-29_11h39.58.718,SPAMnetsValid,2021.1.4,Win32,59.64451867,,,,,,,,,,,,,,,,,,,,,,,,,,,,,,,,,,,,,,,,,,,,,,,,,,,,,,,,,,,,,,,,,,,,,,,,,,,,,,,,,,,,,,,,,
,,3,1.6051,3,1.6051,0,95,95,54,1,101,cactus,kitchen,,90459,001,2022-04-29_11h39.58.718,SPAMnetsValid,2021.1.4,Win32,59.64451867,,,,,,,,,,,,,,,,,,,,,,,,,,,,,,,,,,,,,,,,,,,,,,,,,,,,,,,,,,,,,,,,,,,,,,,,,,,,,,,,,,,,,,,,,
,,9,1.9712,9,1.9712,0,96,96,69,1,124,oven,refrigerator,,90459,001,2022-04-29_11h39.58.718,SPAMnetsValid,2021.1.4,Win32,59.64451867,,,,,,,,,,,,,,,,,,,,,,,,,,,,,,,,,,,,,,,,,,,,,,,,,,,,,,,,,,,,,,,,,,,,,,,,,,,,,,,,,,,,,,,,,
,,,,,,,,,,,,,,,90459,001,2022-04-29_11h39.58.718,SPAMnetsValid,2021.1.4,Win32,59.64451867,0,0,0,0,1,,,,,,,,,,,,,,,,,,,,,,,,,,,,,,,,,,,,,,,,,,,,,,,,,,,,,,,,,,,,,,,,,,,,,,,,,,,,,,,,,,,,
,,,,,,,,,,,,,,,90459,001,2022-04-29_11h39.58.718,SPAMnetsValid,2021.1.4,Win32,59.64451867,,,,,,0,0,0,1,1,0,1,,,,,,,,,,,,,,,,,,,,,,,,,,,,,,,,,,,,,,,,,,,,,,,,,,,,,,,,,,,,,,,,,,,,,,,,,,,,,
,,,,2,5.736599999,,,,,,32,cake,microwave,,90459,001,2022-04-29_11h39.58.718,SPAMnetsValid,2021.1.4,Win32,59.64451867,,,,,,,,,,,,,2,5.736599999,0,0,0,33,1,,,,,,,,,,,,,,,,,,,,,,,,,,,,,,,,,,,,,,,,,,,,,,,,,,,,,,,,,,,,,,,,,,,,,,
,,,,5,2.4964,,,,,,56,cactus,tree,,90459,001,2022-04-29_11h39.58.718,SPAMnetsValid,2021.1.4,Win32,59.64451867,,,,,,,,,,,,,5,2.4964,0,1,1,21,1,,,,,,,,,,,,,,,,,,,,,,,,,,,,,,,,,,,,,,,,,,,,,,,,,,,,,,,,,,,,,,,,,,,,,,
,,,,6,1.429900001,,,,,,2,kitchen,onion,,90459,001,2022-04-29_11h39.58.718,SPAMnetsValid,2021.1.4,Win32,59.64451867,,,,,,,,,,,,,6,1.429900001,0,2,2,91,1,,,,,,,,,,,,,,,,,,,,,,,,,,,,,,,,,,,,,,,,,,,,,,,,,,,,,,,,,,,,,,,,,,,,,,
,,,,3,1.519599999,,,,,,84,oven,tomato,,90459,001,2022-04-29_11h39.58.718,SPAMnetsValid,2021.1.4,Win32,59.64451867,,,,,,,,,,,,,3,1.519599999,0,3,3,28,1,,,,,,,,,,,,,,,,,,,,,,,,,,,,,,,,,,,,,,,,,,,,,,,,,,,,,,,,,,,,,,,,,,,,,,
,,,,4,1.3977,,,,,,65,broom,garden,,90459,001,2022-04-29_11h39.58.718,SPAMnetsValid,2021.1.4,Win32,59.64451867,,,,,,,,,,,,,4,1.3977,0,4,4,23,1,,,,,,,,,,,,,,,,,,,,,,,,,,,,,,,,,,,,,,,,,,,,,,,,,,,,,,,,,,,,,,,,,,,,,,
,,,,6,2.313799999,,,,,,50,carrot,rose,,90459,001,2022-04-29_11h39.58.718,SPAMnetsValid,2021.1.4,Win32,59.64451867,,,,,,,,,,,,,6,2.313799999,0,5,5,73,1,,,,,,,,,,,,,,,,,,,,,,,,,,,,,,,,,,,,,,,,,,,,,,,,,,,,,,,,,,,,,,,,,,,,,,
,,,,6,1.1062,,,,,,17,carrot,melon,,90459,001,2022-04-29_11h39.58.718,SPAMnetsValid,2021.1.4,Win32,59.64451867,,,,,,,,,,,,,6,1.1062,0,6,6,24,1,,,,,,,,,,,,,,,,,,,,,,,,,,,,,,,,,,,,,,,,,,,,,,,,,,,,,,,,,,,,,,,,,,,,,,
,,,,4,1.6391,,,,,,91,microwave,rose,,90459,001,2022-04-29_11h39.58.718,SPAMnetsValid,2021.1.4,Win32,59.64451867,,,,,,,,,,,,,4,1.6391,0,7,7,84,1,,,,,,,,,,,,,,,,,,,,,,,,,,,,,,,,,,,,,,,,,,,,,,,,,,,,,,,,,,,,,,,,,,,,,,
,,,,6,1.8057,,,,,,7,melon,tree,,90459,001,2022-04-29_11h39.58.718,SPAMnetsValid,2021.1.4,Win32,59.64451867,,,,,,,,,,,,,6,1.8057,0,8,8,77,1,,,,,,,,,,,,,,,,,,,,,,,,,,,,,,,,,,,,,,,,,,,,,,,,,,,,,,,,,,,,,,,,,,,,,,
,,,,2,1.8136,,,,,,35,flower,pretzel,,90459,001,2022-04-29_11h39.58.718,SPAMnetsValid,2021.1.4,Win32,59.64451867,,,,,,,,,,,,,2,1.8136,0,9,9,26,1,,,,,,,,,,,,,,,,,,,,,,,,,,,,,,,,,,,,,,,,,,,,,,,,,,,,,,,,,,,,,,,,,,,,,,
,,,,9,1.6243,,,,,,6,garden,onion,,90459,001,2022-04-29_11h39.58.718,SPAMnetsValid,2021.1.4,Win32,59.64451867,,,,,,,,,,,,,9,1.6243,0,10,10,83,1,,,,,,,,,,,,,,,,,,,,,,,,,,,,,,,,,,,,,,,,,,,,,,,,,,,,,,,,,,,,,,,,,,,,,,
,,,,7,2.4759,,,,,,55,tomato,tree,,90459,001,2022-04-29_11h39.58.718,SPAMnetsValid,2021.1.4,Win32,59.64451867,,,,,,,,,,,,,7,2.4759,0,11,11,35,1,,,,,,,,,,,,,,,,,,,,,,,,,,,,,,,,,,,,,,,,,,,,,,,,,,,,,,,,,,,,,,,,,,,,,,
,,,,9,1.8667,,,,,,76,garden,rose,,90459,001,2022-04-29_11h39.58.718,SPAMnetsValid,2021.1.4,Win32,59.64451867,,,,,,,,,,,,,9,1.8667,0,12,12,19,1,,,,,,,,,,,,,,,,,,,,,,,,,,,,,,,,,,,,,,,,,,,,,,,,,,,,,,,,,,,,,,,,,,,,,,
,,,,2,1.6491,,,,,,36,broom,kitchen,,90459,001,2022-04-29_11h39.58.718,SPAMnetsValid,2021.1.4,Win32,59.64451867,,,,,,,,,,,,,2,1.6491,0,13,13,76,1,,,,,,,,,,,,,,,,,,,,,,,,,,,,,,,,,,,,,,,,,,,,,,,,,,,,,,,,,,,,,,,,,,,,,,
,,,,2,1.9379,,,,,,14,broom,cookie,,90459,001,2022-04-29_11h39.58.718,SPAMnetsValid,2021.1.4,Win32,59.64451867,,,,,,,,,,,,,2,1.9379,0,14,14,16,1,,,,,,,,,,,,,,,,,,,,,,,,,,,,,,,,,,,,,,,,,,,,,,,,,,,,,,,,,,,,,,,,,,,,,,
,,,,6,2.2328,,,,,,61,strawberry,tomato,,90459,001,2022-04-29_11h39.58.718,SPAMnetsValid,2021.1.4,Win32,59.64451867,,,,,,,,,,,,,6,2.2328,0,15,15,80,1,,,,,,,,,,,,,,,,,,,,,,,,,,,,,,,,,,,,,,,,,,,,,,,,,,,,,,,,,,,,,,,,,,,,,,
,,,,7,1.8082,,,,,,20,rose,tree,,90459,001,2022-04-29_11h39.58.718,SPAMnetsValid,2021.1.4,Win32,59.64451867,,,,,,,,,,,,,7,1.8082,0,16,16,66,1,,,,,,,,,,,,,,,,,,,,,,,,,,,,,,,,,,,,,,,,,,,,,,,,,,,,,,,,,,,,,,,,,,,,,,
,,,,3,1.806299999,,,,,,67,flower,yogurt,,90459,001,2022-04-29_11h39.58.718,SPAMnetsValid,2021.1.4,Win32,59.64451867,,,,,,,,,,,,,3,1.806299999,0,17,17,12,1,,,,,,,,,,,,,,,,,,,,,,,,,,,,,,,,,,,,,,,,,,,,,,,,,,,,,,,,,,,,,,,,,,,,,,
,,,,3,1.502099999,,,,,,81,pretzel,yogurt,,90459,001,2022-04-29_11h39.58.718,SPAMnetsValid,2021.1.4,Win32,59.64451867,,,,,,,,,,,,,3,1.502099999,0,18,18,50,1,,,,,,,,,,,,,,,,,,,,,,,,,,,,,,,,,,,,,,,,,,,,,,,,,,,,,,,,,,,,,,,,,,,,,,
,,,,2,1.5306,,,,,,31,cactus,pretzel,,90459,001,2022-04-29_11h39.58.718,SPAMnetsValid,2021.1.4,Win32,59.64451867,,,,,,,,,,,,,2,1.5306,0,19,19,1,1,,,,,,,,,,,,,,,,,,,,,,,,,,,,,,,,,,,,,,,,,,,,,,,,,,,,,,,,,,,,,,,,,,,,,,
,,,,1,2.2886,,,,,,72,broom,onion,,90459,001,2022-04-29_11h39.58.718,SPAMnetsValid,2021.1.4,Win32,59.64451867,,,,,,,,,,,,,1,2.2886,0,20,20,27,1,,,,,,,,,,,,,,,,,,,,,,,,,,,,,,,,,,,,,,,,,,,,,,,,,,,,,,,,,,,,,,,,,,,,,,
,,,,3,2.6911,,,,,,77,refrigerator,yogurt,,90459,001,2022-04-29_11h39.58.718,SPAMnetsValid,2021.1.4,Win32,59.64451867,,,,,,,,,,,,,3,2.6911,0,21,21,42,1,,,,,,,,,,,,,,,,,,,,,,,,,,,,,,,,,,,,,,,,,,,,,,,,,,,,,,,,,,,,,,,,,,,,,,
,,,,1,2.2549,,,,,,27,cactus,cookie,,90459,001,2022-04-29_11h39.58.718,SPAMnetsValid,2021.1.4,Win32,59.64451867,,,,,,,,,,,,,1,2.2549,0,22,22,17,1,,,,,,,,,,,,,,,,,,,,,,,,,,,,,,,,,,,,,,,,,,,,,,,,,,,,,,,,,,,,,,,,,,,,,,
,,,,2,1.8245,,,,,,8,broom,melon,,90459,001,2022-04-29_11h39.58.718,SPAMnetsValid,2021.1.4,Win32,59.64451867,,,,,,,,,,,,,2,1.8245,0,23,23,59,1,,,,,,,,,,,,,,,,,,,,,,,,,,,,,,,,,,,,,,,,,,,,,,,,,,,,,,,,,,,,,,,,,,,,,,
,,,,3,2.7468,,,,,,26,tomato,yogurt,,90459,001,2022-04-29_11h39.58.718,SPAMnetsValid,2021.1.4,Win32,59.64451867,,,,,,,,,,,,,3,2.7468,0,24,24,13,1,,,,,,,,,,,,,,,,,,,,,,,,,,,,,,,,,,,,,,,,,,,,,,,,,,,,,,,,,,,,,,,,,,,,,,
,,,,3,1.734,,,,,,89,chocolate,rose,,90459,001,2022-04-29_11h39.58.718,SPAMnetsValid,2021.1.4,Win32,59.64451867,,,,,,,,,,,,,3,1.734,0,25,25,60,1,,,,,,,,,,,,,,,,,,,,,,,,,,,,,,,,,,,,,,,,,,,,,,,,,,,,,,,,,,,,,,,,,,,,,,
,,,,3,1.3884,,,,,,33,oven,yogurt,,90459,001,2022-04-29_11h39.58.718,SPAMnetsValid,2021.1.4,Win32,59.64451867,,,,,,,,,,,,,3,1.3884,0,26,26,31,1,,,,,,,,,,,,,,,,,,,,,,,,,,,,,,,,,,,,,,,,,,,,,,,,,,,,,,,,,,,,,,,,,,,,,,
,,,,3,1.197,,,,,,53,garden,pretzel,,90459,001,2022-04-29_11h39.58.718,SPAMnetsValid,2021.1.4,Win32,59.64451867,,,,,,,,,,,,,3,1.197,0,27,27,0,1,,,,,,,,,,,,,,,,,,,,,,,,,,,,,,,,,,,,,,,,,,,,,,,,,,,,,,,,,,,,,,,,,,,,,,
,,,,2,3.2165,,,,,,85,cake,tree,,90459,001,2022-04-29_11h39.58.718,SPAMnetsValid,2021.1.4,Win32,59.64451867,,,,,,,,,,,,,2,3.2165,0,28,28,18,1,,,,,,,,,,,,,,,,,,,,,,,,,,,,,,,,,,,,,,,,,,,,,,,,,,,,,,,,,,,,,,,,,,,,,,
,,,,7,1.3832,,,,,,66,melon,yogurt,,90459,001,2022-04-29_11h39.58.718,SPAMnetsValid,2021.1.4,Win32,59.64451867,,,,,,,,,,,,,7,1.3832,0,29,29,48,1,,,,,,,,,,,,,,,,,,,,,,,,,,,,,,,,,,,,,,,,,,,,,,,,,,,,,,,,,,,,,,,,,,,,,,
,,,,4,1.6227,,,,,,18,onion,refrigerator,,90459,001,2022-04-29_11h39.58.718,SPAMnetsValid,2021.1.4,Win32,59.64451867,,,,,,,,,,,,,4,1.6227,0,30,30,62,1,,,,,,,,,,,,,,,,,,,,,,,,,,,,,,,,,,,,,,,,,,,,,,,,,,,,,,,,,,,,,,,,,,,,,,
,,,,8,2.197099999,,,,,,3,cake,oven,,90459,001,2022-04-29_11h39.58.718,SPAMnetsValid,2021.1.4,Win32,59.64451867,,,,,,,,,,,,,8,2.197099999,0,31,31,30,1,,,,,,,,,,,,,,,,,,,,,,,,,,,,,,,,,,,,,,,,,,,,,,,,,,,,,,,,,,,,,,,,,,,,,,
,,,,2,1.7903,,,,,,75,cookie,onion,,90459,001,2022-04-29_11h39.58.718,SPAMnetsValid,2021.1.4,Win32,59.64451867,,,,,,,,,,,,,2,1.7903,0,32,32,9,1,,,,,,,,,,,,,,,,,,,,,,,,,,,,,,,,,,,,,,,,,,,,,,,,,,,,,,,,,,,,,,,,,,,,,,
,,,,3,2.1286,,,,,,87,carrot,yogurt,,90459,001,2022-04-29_11h39.58.718,SPAMnetsValid,2021.1.4,Win32,59.64451867,,,,,,,,,,,,,3,2.1286,0,33,33,6,1,,,,,,,,,,,,,,,,,,,,,,,,,,,,,,,,,,,,,,,,,,,,,,,,,,,,,,,,,,,,,,,,,,,,,,
,,,,7,2.1803,,,,,,52,carrot,tomato,,90459,001,2022-04-29_11h39.58.718,SPAMnetsValid,2021.1.4,Win32,59.64451867,,,,,,,,,,,,,7,2.1803,0,34,34,95,1,,,,,,,,,,,,,,,,,,,,,,,,,,,,,,,,,,,,,,,,,,,,,,,,,,,,,,,,,,,,,,,,,,,,,,
,,,,9,1.6338,,,,,,192,microwave,microwave,CHECK,90459,001,2022-04-29_11h39.58.718,SPAMnetsValid,2021.1.4,Win32,59.64451867,,,,,,,,,,,,,9,1.6338,0,35,35,53,1,,,,,,,,,,,,,,,,,,,,,,,,,,,,,,,,,,,,,,,,,,,,,,,,,,,,,,,,,,,,,,,,,,,,,,
,,,,6,2.6409,,,,,,34,melon,oven,,90459,001,2022-04-29_11h39.58.718,SPAMnetsValid,2021.1.4,Win32,59.64451867,,,,,,,,,,,,,6,2.6409,0,36,36,7,1,,,,,,,,,,,,,,,,,,,,,,,,,,,,,,,,,,,,,,,,,,,,,,,,,,,,,,,,,,,,,,,,,,,,,,
,,,,2,5.009599999,,,,,,5,oven,tree,,90459,001,2022-04-29_11h39.58.718,SPAMnetsValid,2021.1.4,Win32,59.64451867,,,,,,,,,,,,,2,5.009599999,0,37,37,70,1,,,,,,,,,,,,,,,,,,,,,,,,,,,,,,,,,,,,,,,,,,,,,,,,,,,,,,,,,,,,,,,,,,,,,,
,,,,3,4.6599,,,,,,44,cookie,melon,,90459,001,2022-04-29_11h39.58.718,SPAMnetsValid,2021.1.4,Win32,59.64451867,,,,,,,,,,,,,3,4.6599,0,38,38,92,1,,,,,,,,,,,,,,,,,,,,,,,,,,,,,,,,,,,,,,,,,,,,,,,,,,,,,,,,,,,,,,,,,,,,,,
,,,,4,1.5577,,,,,,12,cookie,yogurt,,90459,001,2022-04-29_11h39.58.718,SPAMnetsValid,2021.1.4,Win32,59.64451867,,,,,,,,,,,,,4,1.5577,0,39,39,36,1,,,,,,,,,,,,,,,,,,,,,,,,,,,,,,,,,,,,,,,,,,,,,,,,,,,,,,,,,,,,,,,,,,,,,,
,,,,2,1.0462,,,,,,30,cookie,pretzel,,90459,001,2022-04-29_11h39.58.718,SPAMnetsValid,2021.1.4,Win32,59.64451867,,,,,,,,,,,,,2,1.0462,0,40,40,78,1,,,,,,,,,,,,,,,,,,,,,,,,,,,,,,,,,,,,,,,,,,,,,,,,,,,,,,,,,,,,,,,,,,,,,,
,,,,2,4.037400001,,,,,,48,flower,oven,,90459,001,2022-04-29_11h39.58.718,SPAMnetsValid,2021.1.4,Win32,59.64451867,,,,,,,,,,,,,2,4.037400001,0,41,41,15,1,,,,,,,,,,,,,,,,,,,,,,,,,,,,,,,,,,,,,,,,,,,,,,,,,,,,,,,,,,,,,,,,,,,,,,
,,,,2,1.789,,,,,,92,broom,flower,,90459,001,2022-04-29_11h39.58.718,SPAMnetsValid,2021.1.4,Win32,59.64451867,,,,,,,,,,,,,2,1.789,0,42,42,88,1,,,,,,,,,,,,,,,,,,,,,,,,,,,,,,,,,,,,,,,,,,,,,,,,,,,,,,,,,,,,,,,,,,,,,,
,,,,3,1.5661,,,,,,64,chocolate,garden,,90459,001,2022-04-29_11h39.58.718,SPAMnetsValid,2021.1.4,Win32,59.64451867,,,,,,,,,,,,,3,1.5661,0,43,43,14,1,,,,,,,,,,,,,,,,,,,,,,,,,,,,,,,,,,,,,,,,,,,,,,,,,,,,,,,,,,,,,,,,,,,,,,
,,,,2,1.8638,,,,,,71,broom,rose,,90459,001,2022-04-29_11h39.58.718,SPAMnetsValid,2021.1.4,Win32,59.64451867,,,,,,,,,,,,,2,1.8638,0,44,44,61,1,,,,,,,,,,,,,,,,,,,,,,,,,,,,,,,,,,,,,,,,,,,,,,,,,,,,,,,,,,,,,,,,,,,,,,
,,,,9,2.3072,,,,,,93,kitchen,oven,,90459,001,2022-04-29_11h39.58.718,SPAMnetsValid,2021.1.4,Win32,59.64451867,,,,,,,,,,,,,9,2.3072,0,45,45,82,1,,,,,,,,,,,,,,,,,,,,,,,,,,,,,,,,,,,,,,,,,,,,,,,,,,,,,,,,,,,,,,,,,,,,,,
,,,,9,0.8635,,,,,,191,cake,cake,CHECK,90459,001,2022-04-29_11h39.58.718,SPAMnetsValid,2021.1.4,Win32,59.64451867,,,,,,,,,,,,,9,0.8635,0,46,46,10,1,,,,,,,,,,,,,,,,,,,,,,,,,,,,,,,,,,,,,,,,,,,,,,,,,,,,,,,,,,,,,,,,,,,,,,
,,,,6,1.3153,,,,,,22,kitchen,strawberry,,90459,001,2022-04-29_11h39.58.718,SPAMnetsValid,2021.1.4,Win32,59.64451867,,,,,,,,,,,,,6,1.3153,0,47,47,2,1,,,,,,,,,,,,,,,,,,,,,,,,,,,,,,,,,,,,,,,,,,,,,,,,,,,,,,,,,,,,,,,,,,,,,,
,,,,2,2.131599999,,,,,,38,pretzel,refrigerator,,90459,001,2022-04-29_11h39.58.718,SPAMnetsValid,2021.1.4,Win32,59.64451867,,,,,,,,,,,,,2,2.131599999,0,48,48,71,1,,,,,,,,,,,,,,,,,,,,,,,,,,,,,,,,,,,,,,,,,,,,,,,,,,,,,,,,,,,,,,,,,,,,,,
,,,,2,1.3827,,,,,,39,melon,pretzel,,90459,001,2022-04-29_11h39.58.718,SPAMnetsValid,2021.1.4,Win32,59.64451867,,,,,,,,,,,,,2,1.3827,0,49,49,20,1,,,,,,,,,,,,,,,,,,,,,,,,,,,,,,,,,,,,,,,,,,,,,,,,,,,,,,,,,,,,,,,,,,,,,,
,,,,5,3.7237,,,,,,4,chocolate,pretzel,,90459,001,2022-04-29_11h39.58.718,SPAMnetsValid,2021.1.4,Win32,59.64451867,,,,,,,,,,,,,5,3.7237,0,50,50,52,1,,,,,,,,,,,,,,,,,,,,,,,,,,,,,,,,,,,,,,,,,,,,,,,,,,,,,,,,,,,,,,,,,,,,,,
,,,,2,1.4752,,,,,,40,broom,cake,,90459,001,2022-04-29_11h39.58.718,SPAMnetsValid,2021.1.4,Win32,59.64451867,,,,,,,,,,,,,2,1.4752,0,51,51,32,1,,,,,,,,,,,,,,,,,,,,,,,,,,,,,,,,,,,,,,,,,,,,,,,,,,,,,,,,,,,,,,,,,,,,,,
,,,,2,1.6819,,,,,,41,broom,cactus,,90459,001,2022-04-29_11h39.58.718,SPAMnetsValid,2021.1.4,Win32,59.64451867,,,,,,,,,,,,,2,1.6819,0,52,52,46,1,,,,,,,,,,,,,,,,,,,,,,,,,,,,,,,,,,,,,,,,,,,,,,,,,,,,,,,,,,,,,,,,,,,,,,
,,,,3,1.4716,,,,,,15,onion,oven,,90459,001,2022-04-29_11h39.58.718,SPAMnetsValid,2021.1.4,Win32,59.64451867,,,,,,,,,,,,,3,1.4716,0,53,53,39,1,,,,,,,,,,,,,,,,,,,,,,,,,,,,,,,,,,,,,,,,,,,,,,,,,,,,,,,,,,,,,,,,,,,,,,
,,,,6,3.338900001,,,,,,82,cake,kitchen,,90459,001,2022-04-29_11h39.58.718,SPAMnetsValid,2021.1.4,Win32,59.64451867,,,,,,,,,,,,,6,3.338900001,0,54,54,96,1,,,,,,,,,,,,,,,,,,,,,,,,,,,,,,,,,,,,,,,,,,,,,,,,,,,,,,,,,,,,,,,,,,,,,,
,,,,2,1.2,,,,,,74,broom,pretzel,,90459,001,2022-04-29_11h39.58.718,SPAMnetsValid,2021.1.4,Win32,59.64451867,,,,,,,,,,,,,2,1.2,0,55,55,40,1,,,,,,,,,,,,,,,,,,,,,,,,,,,,,,,,,,,,,,,,,,,,,,,,,,,,,,,,,,,,,,,,,,,,,,
,,,,6,2.816,,,,,,42,garden,kitchen,,90459,001,2022-04-29_11h39.58.718,SPAMnetsValid,2021.1.4,Win32,59.64451867,,,,,,,,,,,,,6,2.816,0,56,56,29,1,,,,,,,,,,,,,,,,,,,,,,,,,,,,,,,,,,,,,,,,,,,,,,,,,,,,,,,,,,,,,,,,,,,,,,
,,,,2,1.7298,,,,,,37,garden,refrigerator,,90459,001,2022-04-29_11h39.58.718,SPAMnetsValid,2021.1.4,Win32,59.64451867,,,,,,,,,,,,,2,1.7298,0,57,57,11,1,,,,,,,,,,,,,,,,,,,,,,,,,,,,,,,,,,,,,,,,,,,,,,,,,,,,,,,,,,,,,,,,,,,,,,
,,,,2,1.3075,,,,,,45,onion,pretzel,,90459,001,2022-04-29_11h39.58.718,SPAMnetsValid,2021.1.4,Win32,59.64451867,,,,,,,,,,,,,2,1.3075,0,58,58,69,1,,,,,,,,,,,,,,,,,,,,,,,,,,,,,,,,,,,,,,,,,,,,,,,,,,,,,,,,,,,,,,,,,,,,,,
,,,,2,1.280900001,,,,,,70,chocolate,onion,,90459,001,2022-04-29_11h39.58.718,SPAMnetsValid,2021.1.4,Win32,59.64451867,,,,,,,,,,,,,2,1.280900001,0,59,59,74,1,,,,,,,,,,,,,,,,,,,,,,,,,,,,,,,,,,,,,,,,,,,,,,,,,,,,,,,,,,,,,,,,,,,,,,
,,,,2,1.1471,,,,,,29,chocolate,melon,,90459,001,2022-04-29_11h39.58.718,SPAMnetsValid,2021.1.4,Win32,59.64451867,,,,,,,,,,,,,2,1.1471,0,60,60,34,1,,,,,,,,,,,,,,,,,,,,,,,,,,,,,,,,,,,,,,,,,,,,,,,,,,,,,,,,,,,,,,,,,,,,,,
,,,,9,2.0037,,,,,,63,cake,cookie,,90459,001,2022-04-29_11h39.58.718,SPAMnetsValid,2021.1.4,Win32,59.64451867,,,,,,,,,,,,,9,2.0037,0,61,61,93,1,,,,,,,,,,,,,,,,,,,,,,,,,,,,,,,,,,,,,,,,,,,,,,,,,,,,,,,,,,,,,,,,,,,,,,
,,,,3,3.265900001,,,,,,1,rose,yogurt,,90459,001,2022-04-29_11h39.58.718,SPAMnetsValid,2021.1.4,Win32,59.64451867,,,,,,,,,,,,,3,3.265900001,0,62,62,55,1,,,,,,,,,,,,,,,,,,,,,,,,,,,,,,,,,,,,,,,,,,,,,,,,,,,,,,,,,,,,,,,,,,,,,,
,,,,3,1.0552,,,,,,21,cake,onion,,90459,001,2022-04-29_11h39.58.718,SPAMnetsValid,2021.1.4,Win32,59.64451867,,,,,,,,,,,,,3,1.0552,0,63,63,63,1,,,,,,,,,,,,,,,,,,,,,,,,,,,,,,,,,,,,,,,,,,,,,,,,,,,,,,,,,,,,,,,,,,,,,,
,,,,6,2.138599999,,,,,,59,rose,strawberry,,90459,001,2022-04-29_11h39.58.718,SPAMnetsValid,2021.1.4,Win32,59.64451867,,,,,,,,,,,,,6,2.138599999,0,64,64,72,1,,,,,,,,,,,,,,,,,,,,,,,,,,,,,,,,,,,,,,,,,,,,,,,,,,,,,,,,,,,,,,,,,,,,,,
,,,,2,1.7801,,,,,,11,refrigerator,tree,,90459,001,2022-04-29_11h39.58.718,SPAMnetsValid,2021.1.4,Win32,59.64451867,,,,,,,,,,,,,2,1.7801,0,65,65,43,1,,,,,,,,,,,,,,,,,,,,,,,,,,,,,,,,,,,,,,,,,,,,,,,,,,,,,,,,,,,,,,,,,,,,,,
,,,,7,2.7495,,,,,,51,onion,strawberry,,90459,001,2022-04-29_11h39.58.718,SPAMnetsValid,2021.1.4,Win32,59.64451867,,,,,,,,,,,,,7,2.7495,0,66,66,86,1,,,,,,,,,,,,,,,,,,,,,,,,,,,,,,,,,,,,,,,,,,,,,,,,,,,,,,,,,,,,,,,,,,,,,,
,,,,2,1.491,,,,,,62,kitchen,rose,,90459,001,2022-04-29_11h39.58.718,SPAMnetsValid,2021.1.4,Win32,59.64451867,,,,,,,,,,,,,2,1.491,0,67,67,57,1,,,,,,,,,,,,,,,,,,,,,,,,,,,,,,,,,,,,,,,,,,,,,,,,,,,,,,,,,,,,,,,,,,,,,,
,,,,4,2.8417,,,,,,60,cactus,onion,,90459,001,2022-04-29_11h39.58.718,SPAMnetsValid,2021.1.4,Win32,59.64451867,,,,,,,,,,,,,4,2.8417,0,68,68,81,1,,,,,,,,,,,,,,,,,,,,,,,,,,,,,,,,,,,,,,,,,,,,,,,,,,,,,,,,,,,,,,,,,,,,,,
,,,,6,2.6406,,,,,,80,chocolate,tree,,90459,001,2022-04-29_11h39.58.718,SPAMnetsValid,2021.1.4,Win32,59.64451867,,,,,,,,,,,,,6,2.6406,0,69,69,89,1,,,,,,,,,,,,,,,,,,,,,,,,,,,,,,,,,,,,,,,,,,,,,,,,,,,,,,,,,,,,,,,,,,,,,,
,,,,9,3.7076,,,,,,94,kitchen,microwave,,90459,001,2022-04-29_11h39.58.718,SPAMnetsValid,2021.1.4,Win32,59.64451867,,,,,,,,,,,,,9,3.7076,0,70,70,58,1,,,,,,,,,,,,,,,,,,,,,,,,,,,,,,,,,,,,,,,,,,,,,,,,,,,,,,,,,,,,,,,,,,,,,,
,,,,6,1.3209,,,,,,69,carrot,refrigerator,,90459,001,2022-04-29_11h39.58.718,SPAMnetsValid,2021.1.4,Win32,59.64451867,,,,,,,,,,,,,6,1.3209,0,71,71,75,1,,,,,,,,,,,,,,,,,,,,,,,,,,,,,,,,,,,,,,,,,,,,,,,,,,,,,,,,,,,,,,,,,,,,,,
,,,,2,1.4468,,,,,,90,cactus,cake,,90459,001,2022-04-29_11h39.58.718,SPAMnetsValid,2021.1.4,Win32,59.64451867,,,,,,,,,,,,,2,1.4468,0,72,72,85,1,,,,,,,,,,,,,,,,,,,,,,,,,,,,,,,,,,,,,,,,,,,,,,,,,,,,,,,,,,,,,,,,,,,,,,
,,,,2,1.1487,,,,,,86,oven,rose,,90459,001,2022-04-29_11h39.58.718,SPAMnetsValid,2021.1.4,Win32,59.64451867,,,,,,,,,,,,,2,1.1487,0,73,73,79,1,,,,,,,,,,,,,,,,,,,,,,,,,,,,,,,,,,,,,,,,,,,,,,,,,,,,,,,,,,,,,,,,,,,,,,
,,,,2,0.77,,,,,,73,broom,chocolate,,90459,001,2022-04-29_11h39.58.718,SPAMnetsValid,2021.1.4,Win32,59.64451867,,,,,,,,,,,,,2,0.77,0,74,74,47,1,,,,,,,,,,,,,,,,,,,,,,,,,,,,,,,,,,,,,,,,,,,,,,,,,,,,,,,,,,,,,,,,,,,,,,
,,,,2,0.8838,,,,,,10,flower,onion,,90459,001,2022-04-29_11h39.58.718,SPAMnetsValid,2021.1.4,Win32,59.64451867,,,,,,,,,,,,,2,0.8838,0,75,75,45,1,,,,,,,,,,,,,,,,,,,,,,,,,,,,,,,,,,,,,,,,,,,,,,,,,,,,,,,,,,,,,,,,,,,,,,
,,,,3,3.3801,,,,,,16,chocolate,flower,,90459,001,2022-04-29_11h39.58.718,SPAMnetsValid,2021.1.4,Win32,59.64451867,,,,,,,,,,,,,3,3.3801,0,76,76,22,1,,,,,,,,,,,,,,,,,,,,,,,,,,,,,,,,,,,,,,,,,,,,,,,,,,,,,,,,,,,,,,,,,,,,,,
,,,,3,2.1302,,,,,,88,cactus,melon,,90459,001,2022-04-29_11h39.58.718,SPAMnetsValid,2021.1.4,Win32,59.64451867,,,,,,,,,,,,,3,2.1302,0,77,77,38,1,,,,,,,,,,,,,,,,,,,,,,,,,,,,,,,,,,,,,,,,,,,,,,,,,,,,,,,,,,,,,,,,,,,,,,
,,,,3,1.3795,,,,,,57,flower,kitchen,,90459,001,2022-04-29_11h39.58.718,SPAMnetsValid,2021.1.4,Win32,59.64451867,,,,,,,,,,,,,3,1.3795,0,78,78,49,1,,,,,,,,,,,,,,,,,,,,,,,,,,,,,,,,,,,,,,,,,,,,,,,,,,,,,,,,,,,,,,,,,,,,,,
,,,,3,2.0884,,,,,,78,cookie,rose,,90459,001,2022-04-29_11h39.58.718,SPAMnetsValid,2021.1.4,Win32,59.64451867,,,,,,,,,,,,,3,2.0884,0,79,79,56,1,,,,,,,,,,,,,,,,,,,,,,,,,,,,,,,,,,,,,,,,,,,,,,,,,,,,,,,,,,,,,,,,,,,,,,
,,,,4,1.9637,,,,,,43,chocolate,tomato,,90459,001,2022-04-29_11h39.58.718,SPAMnetsValid,2021.1.4,Win32,59.64451867,,,,,,,,,,,,,4,1.9637,0,80,80,8,1,,,,,,,,,,,,,,,,,,,,,,,,,,,,,,,,,,,,,,,,,,,,,,,,,,,,,,,,,,,,,,,,,,,,,,
,,,,3,3.4654,,,,,,23,flower,microwave,,90459,001,2022-04-29_11h39.58.718,SPAMnetsValid,2021.1.4,Win32,59.64451867,,,,,,,,,,,,,3,3.4654,0,81,81,25,1,,,,,,,,,,,,,,,,,,,,,,,,,,,,,,,,,,,,,,,,,,,,,,,,,,,,,,,,,,,,,,,,,,,,,,
,,,,7,2.257400001,,,,,,47,onion,tomato,,90459,001,2022-04-29_11h39.58.718,SPAMnetsValid,2021.1.4,Win32,59.64451867,,,,,,,,,,,,,7,2.257400001,0,82,82,51,1,,,,,,,,,,,,,,,,,,,,,,,,,,,,,,,,,,,,,,,,,,,,,,,,,,,,,,,,,,,,,,,,,,,,,,
,,,,2,1.2253,,,,,,83,broom,carrot,,90459,001,2022-04-29_11h39.58.718,SPAMnetsValid,2021.1.4,Win32,59.64451867,,,,,,,,,,,,,2,1.2253,0,83,83,4,1,,,,,,,,,,,,,,,,,,,,,,,,,,,,,,,,,,,,,,,,,,,,,,,,,,,,,,,,,,,,,,,,,,,,,,
,,,,6,1.7133,,,,,,49,flower,strawberry,,90459,001,2022-04-29_11h39.58.718,SPAMnetsValid,2021.1.4,Win32,59.64451867,,,,,,,,,,,,,6,1.7133,0,84,84,3,1,,,,,,,,,,,,,,,,,,,,,,,,,,,,,,,,,,,,,,,,,,,,,,,,,,,,,,,,,,,,,,,,,,,,,,
,,,,2,1.3729,,,,,,19,microwave,pretzel,,90459,001,2022-04-29_11h39.58.718,SPAMnetsValid,2021.1.4,Win32,59.64451867,,,,,,,,,,,,,2,1.3729,0,85,85,41,1,,,,,,,,,,,,,,,,,,,,,,,,,,,,,,,,,,,,,,,,,,,,,,,,,,,,,,,,,,,,,,,,,,,,,,
,,,,3,1.356900001,,,,,,25,carrot,onion,,90459,001,2022-04-29_11h39.58.718,SPAMnetsValid,2021.1.4,Win32,59.64451867,,,,,,,,,,,,,3,1.356900001,0,86,86,44,1,,,,,,,,,,,,,,,,,,,,,,,,,,,,,,,,,,,,,,,,,,,,,,,,,,,,,,,,,,,,,,,,,,,,,,
,,,,9,4.748,,,,,,9,kitchen,refrigerator,,90459,001,2022-04-29_11h39.58.718,SPAMnetsValid,2021.1.4,Win32,59.64451867,,,,,,,,,,,,,9,4.748,0,87,87,64,1,,,,,,,,,,,,,,,,,,,,,,,,,,,,,,,,,,,,,,,,,,,,,,,,,,,,,,,,,,,,,,,,,,,,,,
,,,,6,9.9175,,,,,,28,cake,melon,,90459,001,2022-04-29_11h39.58.718,SPAMnetsValid,2021.1.4,Win32,59.64451867,,,,,,,,,,,,,6,9.9175,0,88,88,54,1,,,,,,,,,,,,,,,,,,,,,,,,,,,,,,,,,,,,,,,,,,,,,,,,,,,,,,,,,,,,,,,,,,,,,,
,,,,2,5.3555,,,,,,13,broom,yogurt,,90459,001,2022-04-29_11h39.58.718,SPAMnetsValid,2021.1.4,Win32,59.64451867,,,,,,,,,,,,,2,5.3555,0,89,89,5,1,,,,,,,,,,,,,,,,,,,,,,,,,,,,,,,,,,,,,,,,,,,,,,,,,,,,,,,,,,,,,,,,,,,,,,
,,,,3,6.441,,,,,,58,garden,oven,,90459,001,2022-04-29_11h39.58.718,SPAMnetsValid,2021.1.4,Win32,59.64451867,,,,,,,,,,,,,3,6.441,0,90,90,37,1,,,,,,,,,,,,,,,,,,,,,,,,,,,,,,,,,,,,,,,,,,,,,,,,,,,,,,,,,,,,,,,,,,,,,,
,,,,4,1.438,,,,,,24,cookie,tomato,,90459,001,2022-04-29_11h39.58.718,SPAMnetsValid,2021.1.4,Win32,59.64451867,,,,,,,,,,,,,4,1.438,0,91,91,68,1,,,,,,,,,,,,,,,,,,,,,,,,,,,,,,,,,,,,,,,,,,,,,,,,,,,,,,,,,,,,,,,,,,,,,,
,,,,2,2.0878,,,,,,46,garden,yogurt,,90459,001,2022-04-29_11h39.58.718,SPAMnetsValid,2021.1.4,Win32,59.64451867,,,,,,,,,,,,,2,2.0878,0,92,92,65,1,,,,,,,,,,,,,,,,,,,,,,,,,,,,,,,,,,,,,,,,,,,,,,,,,,,,,,,,,,,,,,,,,,,,,,
,,,,4,2.243799999,,,,,,54,chocolate,yogurt,,90459,001,2022-04-29_11h39.58.718,SPAMnetsValid,2021.1.4,Win32,59.64451867,,,,,,,,,,,,,4,2.243799999,0,93,93,67,1,,,,,,,,,,,,,,,,,,,,,,,,,,,,,,,,,,,,,,,,,,,,,,,,,,,,,,,,,,,,,,,,,,,,,,
,,,,2,1.1496,,,,,,68,flower,tomato,,90459,001,2022-04-29_11h39.58.718,SPAMnetsValid,2021.1.4,Win32,59.64451867,,,,,,,,,,,,,2,1.1496,0,94,94,94,1,,,,,,,,,,,,,,,,,,,,,,,,,,,,,,,,,,,,,,,,,,,,,,,,,,,,,,,,,,,,,,,,,,,,,,
,,,,2,1.7053,,,,,,95,broom,refrigerator,,90459,001,2022-04-29_11h39.58.718,SPAMnetsValid,2021.1.4,Win32,59.64451867,,,,,,,,,,,,,2,1.7053,0,95,95,90,1,,,,,,,,,,,,,,,,,,,,,,,,,,,,,,,,,,,,,,,,,,,,,,,,,,,,,,,,,,,,,,,,,,,,,,
,,,,7,44.8649,,,,,,79,garden,strawberry,,90459,001,2022-04-29_11h39.58.718,SPAMnetsValid,2021.1.4,Win32,59.64451867,,,,,,,,,,,,,7,44.8649,0,96,96,87,1,,,,,,,,,,,,,,,,,,,,,,,,,,,,,,,,,,,,,,,,,,,,,,,,,,,,,,,,,,,,,,,,,,,,,,
,,,,,,,,,,,,,,,90459,001,2022-04-29_11h39.58.718,SPAMnetsValid,2021.1.4,Win32,59.64451867,,,,,,,,,,,,,,,,,,,,0,0,0,0,1,,,,,,,,,,,,,,,,,,,,,,,,,,,,,,,,,,,,,,,,,,,,,,,,,,,,,,,,,,,,,,,,,
,,,,,,,,,,,,,,,90459,001,2022-04-29_11h39.58.718,SPAMnetsValid,2021.1.4,Win32,59.64451867,,,,,,0,1,1,0,1,1,0,,,,,,,,,,,,,,,,,,,,,,,,,,,,,,,,,,,,,,,,,,,,,,,,,,,,,,,,,,,,,,,,,,,,,,,,,,,,,
,,,,,,,,,,,,,,,90459,001,2022-04-29_11h39.58.718,SPAMnetsValid,2021.1.4,Win32,59.64451867,,,,,,,,,,,,,,,,,,,,,,,,,3,3.8465,0,0,0,0,1,rancor,forbearance,ridicule,malice,bravery,3,,,,,,,,,,,,,,,,,,,,,,,,,,,,,,,,,,,,,,,,,,,,,,,,,,,,
,,,,,,,,,,,,,,,90459,001,2022-04-29_11h39.58.718,SPAMnetsValid,2021.1.4,Win32,59.64451867,,,,,,,,,,,,,,,,,,,,,,,,,4,3.105200001,0,1,1,1,1,raucous,empty,quiet,smooth,harsh,4,,,,,,,,,,,,,,,,,,,,,,,,,,,,,,,,,,,,,,,,,,,,,,,,,,,,
,,,,,,,,,,,,,,,90459,001,2022-04-29_11h39.58.718,SPAMnetsValid,2021.1.4,Win32,59.64451867,,,,,,,,,,,,,,,,,,,,,,,,,4,5.8786,0,2,2,2,1,gargoyle,oil,medicine,carved waterspout,ugly building,3,,,,,,,,,,,,,,,,,,,,,,,,,,,,,,,,,,,,,,,,,,,,,,,,,,,,
,,,,,,,,,,,,,,,90459,001,2022-04-29_11h39.58.718,SPAMnetsValid,2021.1.4,Win32,59.64451867,,,,,,,,,,,,,,,,,,,,,,,,,1,5.579299999,0,3,3,3,1,recrudesce,purify,renew activity,lack refinement,crush,2,,,,,,,,,,,,,,,,,,,,,,,,,,,,,,,,,,,,,,,,,,,,,,,,,,,,
,,,,,,,,,,,,,,,90459,001,2022-04-29_11h39.58.718,SPAMnetsValid,2021.1.4,Win32,59.64451867,,,,,,,,,,,,,,,,,,,,,,,,,2,4.6587,0,4,4,4,1,specious,"plausible, but not genuine",noteworthy,class or variety,roomy,1,,,,,,,,,,,,,,,,,,,,,,,,,,,,,,,,,,,,,,,,,,,,,,,,,,,,
,,,,,,,,,,,,,,,90459,001,2022-04-29_11h39.58.718,SPAMnetsValid,2021.1.4,Win32,59.64451867,,,,,,,,,,,,,,,,,,,,,,,,,4,4.414599999,0,5,5,5,1,bauble,bubble,showy plaything,idle talk,confusion,2,,,,,,,,,,,,,,,,,,,,,,,,,,,,,,,,,,,,,,,,,,,,,,,,,,,,
,,,,,,,,,,,,,,,90459,001,2022-04-29_11h39.58.718,SPAMnetsValid,2021.1.4,Win32,59.64451867,,,,,,,,,,,,,,,,,,,,,,,,,2,4.0292,0,6,6,6,1,prolific,scarce,producing abundantly,reckless,speaking profanely,2,,,,,,,,,,,,,,,,,,,,,,,,,,,,,,,,,,,,,,,,,,,,,,,,,,,,
,,,,,,,,,,,,,,,90459,001,2022-04-29_11h39.58.718,SPAMnetsValid,2021.1.4,Win32,59.64451867,,,,,,,,,,,,,,,,,,,,,,,,,2,7.259900001,0,7,7,7,1,opulent,party,wealthy,happy frame of mind,semiprecious stone,2,,,,,,,,,,,,,,,,,,,,,,,,,,,,,,,,,,,,,,,,,,,,,,,,,,,,
,,,,,,,,,,,,,,,90459,001,2022-04-29_11h39.58.718,SPAMnetsValid,2021.1.4,Win32,59.64451867,,,,,,,,,,,,,,,,,,,,,,,,,3,4.019,0,8,8,8,1,coercion,conspiracy,strategy,restraint,attraction,3,,,,,,,,,,,,,,,,,,,,,,,,,,,,,,,,,,,,,,,,,,,,,,,,,,,,
,,,,,,,,,,,,,,,90459,001,2022-04-29_11h39.58.718,SPAMnetsValid,2021.1.4,Win32,59.64451867,,,,,,,,,,,,,,,,,,,,,,,,,4,2.7974,0,9,9,9,1,hiatus,animal,calamity,dread,gap,4,,,,,,,,,,,,,,,,,,,,,,,,,,,,,,,,,,,,,,,,,,,,,,,,,,,,
,,,,,,,,,,,,,,,90459,001,2022-04-29_11h39.58.718,SPAMnetsValid,2021.1.4,Win32,59.64451867,,,,,,,,,,,,,,,,,,,,,,,,,4,6.6403,0,10,10,10,1,germane,microbe,contagious,relevant,different,3,,,,,,,,,,,,,,,,,,,,,,,,,,,,,,,,,,,,,,,,,,,,,,,,,,,,
,,,,,,,,,,,,,,,90459,001,2022-04-29_11h39.58.718,SPAMnetsValid,2021.1.4,Win32,59.64451867,,,,,,,,,,,,,,,,,,,,,,,,,3,7.4331,0,11,11,11,1,perfunctory,fundamental,formal,superficial,careful,3,,,,,,,,,,,,,,,,,,,,,,,,,,,,,,,,,,,,,,,,,,,,,,,,,,,,
,,,,,,,,,,,,,,,90459,001,2022-04-29_11h39.58.718,SPAMnetsValid,2021.1.4,Win32,59.64451867,,,,,,,,,,,,,,,,,,,,,,,,,4,3.5655,0,12,12,12,1,diverge,reveal,chant,distract the attention of,differ or turn off from,4,,,,,,,,,,,,,,,,,,,,,,,,,,,,,,,,,,,,,,,,,,,,,,,,,,,,
,,,,,,,,,,,,,,,90459,001,2022-04-29_11h39.58.718,SPAMnetsValid,2021.1.4,Win32,59.64451867,,,,,,,,,,,,,,,,,,,,,,,,,4,2.789599999,0,13,13,13,1,evoke,take away,anger,connect,bring out,4,,,,,,,,,,,,,,,,,,,,,,,,,,,,,,,,,,,,,,,,,,,,,,,,,,,,
,,,,,,,,,,,,,,,90459,001,2022-04-29_11h39.58.718,SPAMnetsValid,2021.1.4,Win32,59.64451867,,,,,,,,,,,,,,,,,,,,,,,,,1,2.827099999,0,14,14,14,1,pertinent,relevant,lying next to,necessary,bold,1,,,,,,,,,,,,,,,,,,,,,,,,,,,,,,,,,,,,,,,,,,,,,,,,,,,,
,,,,,,,,,,,,,,,90459,001,2022-04-29_11h39.58.718,SPAMnetsValid,2021.1.4,Win32,59.64451867,,,,,,,,,,,,,,,,,,,,,,,,,2,1.6475,0,15,15,15,1,holocaust,entirety,destruction,saintly,price,2,,,,,,,,,,,,,,,,,,,,,,,,,,,,,,,,,,,,,,,,,,,,,,,,,,,,
,,,,,,,,,,,,,,,90459,001,2022-04-29_11h39.58.718,SPAMnetsValid,2021.1.4,Win32,59.64451867,,,,,,,,,,,,,,,,,,,,,,,,,3,2.5502,0,16,16,16,1,piquant,mellow,fish,pungent,cloth,3,,,,,,,,,,,,,,,,,,,,,,,,,,,,,,,,,,,,,,,,,,,,,,,,,,,,
,,,,,,,,,,,,,,,90459,001,2022-04-29_11h39.58.718,SPAMnetsValid,2021.1.4,Win32,59.64451867,,,,,,,,,,,,,,,,,,,,,,,,,3,2.094599999,0,17,17,17,1,firmament,foundation,heavens,strong,glue,2,,,,,,,,,,,,,,,,,,,,,,,,,,,,,,,,,,,,,,,,,,,,,,,,,,,,
,,,,,,,,,,,,,,,90459,001,2022-04-29_11h39.58.718,SPAMnetsValid,2021.1.4,Win32,59.64451867,,,,,,,,,,,,,,,,,,,,,,,,,,,,,,,,,,,,,,4,3.2204,0,0,0,0,1,marketable,partisan,jocular,marriageable,salable,essential,4,,,,,,,,,,,,,,,,,,,,,,,,,,,,,,,,,,,,,,
,,,,,,,,,,,,,,,90459,001,2022-04-29_11h39.58.718,SPAMnetsValid,2021.1.4,Win32,59.64451867,,,,,,,,,,,,,,,,,,,,,,,,,,,,,,,,,,,,,,5,4.780900001,0,1,1,1,1,cottontail,squirrel,poplar,boa,marshy plant,rabbit,5,,,,,,,,,,,,,,,,,,,,,,,,,,,,,,,,,,,,,,
,,,,,,,,,,,,,,,90459,001,2022-04-29_11h39.58.718,SPAMnetsValid,2021.1.4,Win32,59.64451867,,,,,,,,,,,,,,,,,,,,,,,,,,,,,,,,,,,,,,3,3.1718,0,2,2,2,1,boggy,afraid,false,marshy,dense,black,3,,,,,,,,,,,,,,,,,,,,,,,,,,,,,,,,,,,,,,
,,,,,,,,,,,,,,,90459,001,2022-04-29_11h39.58.718,SPAMnetsValid,2021.1.4,Win32,59.64451867,,,,,,,,,,,,,,,,,,,,,,,,,,,,,,,,,,,,,,3,5.745900001,0,3,3,3,1,gruesomeness,blackness,falseness,vindictiveness,drunkenness,ghastliness,5,,,,,,,,,,,,,,,,,,,,,,,,,,,,,,,,,,,,,,
,,,,,,,,,,,,,,,90459,001,2022-04-29_11h39.58.718,SPAMnetsValid,2021.1.4,Win32,59.64451867,,,,,,,,,,,,,,,,,,,,,,,,,,,,,,,,,,,,,,3,3.7327,0,4,4,4,1,loathing,diffidence,laziness,abhorrence,cleverness,comfort,3,,,,,,,,,,,,,,,,,,,,,,,,,,,,,,,,,,,,,,
,,,,,,,,,,,,,,,90459,001,2022-04-29_11h39.58.718,SPAMnetsValid,2021.1.4,Win32,59.64451867,,,,,,,,,,,,,,,,,,,,,,,,,,,,,,,,,,,,,,2,3.0628,0,5,5,5,1,bantam,fowl,ridicule,cripple,vegetable,ensign,1,,,,,,,,,,,,,,,,,,,,,,,,,,,,,,,,,,,,,,
,,,,,,,,,,,,,,,90459,001,2022-04-29_11h39.58.718,SPAMnetsValid,2021.1.4,Win32,59.64451867,,,,,,,,,,,,,,,,,,,,,,,,,,,,,,,,,,,,,,5,3.7085,0,6,6,6,1,evoke,wake up,surrender,reconnoiter,transcend,call forth,5,,,,,,,,,,,,,,,,,,,,,,,,,,,,,,,,,,,,,,
,,,,,,,,,,,,,,,90459,001,2022-04-29_11h39.58.718,SPAMnetsValid,2021.1.4,Win32,59.64451867,,,,,,,,,,,,,,,,,,,,,,,,,,,,,,,,,,,,,,4,3.6213,0,7,7,7,1,unobtrusive,unintelligent,epileptic,illogical,lineal,modest,5,,,,,,,,,,,,,,,,,,,,,,,,,,,,,,,,,,,,,,
,,,,,,,,,,,,,,,90459,001,2022-04-29_11h39.58.718,SPAMnetsValid,2021.1.4,Win32,59.64451867,,,,,,,,,,,,,,,,,,,,,,,,,,,,,,,,,,,,,,4,2.5917,0,8,8,8,1,terrain,ice cream,final test,tractor,area of ground,weight,4,,,,,,,,,,,,,,,,,,,,,,,,,,,,,,,,,,,,,,
,,,,,,,,,,,,,,,90459,001,2022-04-29_11h39.58.718,SPAMnetsValid,2021.1.4,Win32,59.64451867,,,,,,,,,,,,,,,,,,,,,,,,,,,,,,,,,,,,,,5,7.0486,0,9,9,9,1,capriciousness,stubbornness,courage,whimsicality,amazement,greediness,3,,,,,,,,,,,,,,,,,,,,,,,,,,,,,,,,,,,,,,
,,,,,,,,,,,,,,,90459,001,2022-04-29_11h39.58.718,SPAMnetsValid,2021.1.4,Win32,59.64451867,,,,,,,,,,,,,,,,,,,,,,,,,,,,,,,,,,,,,,1,5.2736,0,10,10,10,1,maelstrom,slander,whirlpool,enmity,armor,majolica,2,,,,,,,,,,,,,,,,,,,,,,,,,,,,,,,,,,,,,,
,,,,,,,,,,,,,,,90459,001,2022-04-29_11h39.58.718,SPAMnetsValid,2021.1.4,Win32,59.64451867,,,,,,,,,,,,,,,,,,,,,,,,,,,,,,,,,,,,,,5,3.835599999,0,11,11,11,1,tentative,critical,conclusive,authentic,provisional,apprehensive,4,,,,,,,,,,,,,,,,,,,,,,,,,,,,,,,,,,,,,,
,,,,,,,,,,,,,,,90459,001,2022-04-29_11h39.58.718,SPAMnetsValid,2021.1.4,Win32,59.64451867,,,,,,,,,,,,,,,,,,,,,,,,,,,,,,,,,,,,,,3,3.516900001,0,12,12,12,1,placate,rehabilitate,plagiarize,depredate,apprise,conciliate,5,,,,,,,,,,,,,,,,,,,,,,,,,,,,,,,,,,,,,,
,,,,,,,,,,,,,,,90459,001,2022-04-29_11h39.58.718,SPAMnetsValid,2021.1.4,Win32,59.64451867,,,,,,,,,,,,,,,,,,,,,,,,,,,,,,,,,,,,,,4,3.7978,0,13,13,13,1,surcease,enlightenment,cessation,inattention,censor,substitution,2,,,,,,,,,,,,,,,,,,,,,,,,,,,,,,,,,,,,,,
,,,,,,,,,,,,,,,90459,001,2022-04-29_11h39.58.718,SPAMnetsValid,2021.1.4,Win32,59.64451867,,,,,,,,,,,,,,,,,,,,,,,,,,,,,,,,,,,,,,3,4.052099999,0,14,14,14,1,apathetic,wandering,impassive,hateful,prophetic,overflowing,2,,,,,,,,,,,,,,,,,,,,,,,,,,,,,,,,,,,,,,
,,,,,,,,,,,,,,,90459,001,2022-04-29_11h39.58.718,SPAMnetsValid,2021.1.4,Win32,59.64451867,,,,,,,,,,,,,,,,,,,,,,,,,,,,,,,,,,,,,,5,7.8601,0,15,15,15,1,paternoster,paternalism,patricide,malediction,benediction,prayer,5,,,,,,,,,,,,,,,,,,,,,,,,,,,,,,,,,,,,,,
,,,,,,,,,,,,,,,90459,001,2022-04-29_11h39.58.718,SPAMnetsValid,2021.1.4,Win32,59.64451867,,,,,,,,,,,,,,,,,,,,,,,,,,,,,,,,,,,,,,4,6.198,0,16,16,16,1,opalescence,opulence,senescence,bankruptcy,iridescence,assiduity,4,,,,,,,,,,,,,,,,,,,,,,,,,,,,,,,,,,,,,,
,,,,,,,,,,,,,,,90459,001,2022-04-29_11h39.58.718,SPAMnetsValid,2021.1.4,Win32,59.64451867,,,,,,,,,,,,,,,,,,,,,,,,,,,,,,,,,,,,,,2,2.2918,0,17,17,17,1,lush,stupid,luxurious,hazy,putrid,languishing,2,,,,,,,,,,,,,,,,,,,,,,,,,,,,,,,,,,,,,,
,,,,,,,,,,,,,,,90459,001,2022-04-29_11h39.58.718,SPAMnetsValid,2021.1.4,Win32,59.64451867,,,,,,,,,,,,,,,,,,,,,,,,,,,,,,,,,,,,,,3,5.704200001,0,18,18,18,1,curtailment,expenditure,abandonment,abridgment,improvement,forgery,3,,,,,,,,,,,,,,,,,,,,,,,,,,,,,,,,,,,,,,
,,,,,,,,,,,,,,,90459,001,2022-04-29_11h39.58.718,SPAMnetsValid,2021.1.4,Win32,59.64451867,,,,,,,,,,,,,,,,,,,,,,,,,,,,,,,,,,,,,,3,2.539299999,0,19,19,19,1,perversity,adversity,perviousness,travesty,waywardness,gentility,4,,,,,,,,,,,,,,,,,,,,,,,,,,,,,,,,,,,,,,
,,,,,,,,,,,,,,,90459,001,2022-04-29_11h39.58.718,SPAMnetsValid,2021.1.4,Win32,59.64451867,,,,,,,,,,,,,,,,,,,,,,,,,,,,,,,,,,,,,,2,6.4253,0,20,20,20,1,calumnious,complimentary,analogous,slanderous,tempestuous,magnanimous,3,,,,,,,,,,,,,,,,,,,,,,,,,,,,,,,,,,,,,,
,,,,,,,,,,,,,,,90459,001,2022-04-29_11h39.58.718,SPAMnetsValid,2021.1.4,Win32,59.64451867,,,,,,,,,,,,,,,,,,,,,,,,,,,,,,,,,,,,,,5,4.776,0,21,21,21,1,illiberality,bigotry,imbecility,illegibility,cautery,immaturity,1,,,,,,,,,,,,,,,,,,,,,,,,,,,,,,,,,,,,,,
,,,,,,,,,,,,,,,90459,001,2022-04-29_11h39.58.718,SPAMnetsValid,2021.1.4,Win32,59.64451867,,,,,,,,,,,,,,,,,,,,,,,,,,,,,,,,,,,,,,2,6.003099999,0,22,22,22,1,clabber,rejoice,gossip,curdle,crow,hobble,3,,,,,,,,,,,,,,,,,,,,,,,,,,,,,,,,,,,,,,
,,,,,,,,,,,,,,,90459,001,2022-04-29_11h39.58.718,SPAMnetsValid,2021.1.4,Win32,59.64451867,,,,,,,,,,,,,,,,,,,,,,,,,,,,,,,,,,,,,,5,7.167200001,0,23,23,23,1,sedulousness,diligence,credulousness,seduction,perilousness,frankness,1,,,,,,,,,,,,,,,,,,,,,,,,,,,,,,,,,,,,,,
,,,,,,,,,,,,,,,90459,001,2022-04-29_11h39.58.718,SPAMnetsValid,2021.1.4,Win32,59.64451867,,,,,,,,,,,,,,,,,,,,,,,,,,,,,,,,,,,,,,,,,,,,,,,,,,,,"sleep, build a fort, fighting,sitting down, trick or treating",pillow,0,0,0,0,1,,,,,,,,,,,,,,,,,,,,,,,,,,,,,,,
,,,,,,,,,,,,,,,90459,001,2022-04-29_11h39.58.718,SPAMnetsValid,2021.1.4,Win32,59.64451867,,,,,,,,,,,,,,,,,,,,,,,,,,,,,,,,,,,,,,,,,,,,,,,,,,,,,pillow,1,0,1,0,1,,,,,,,,,,,,,,,,,,,,,,,,,,,,,,,
,,,,,,,,,,,,,,,90459,001,2022-04-29_11h39.58.718,SPAMnetsValid,2021.1.4,Win32,59.64451867,,,,,,,,,,,,,,,,,,,,,,,,,,,,,,,,,,,,,,,,,,,,,,,,,,,,cover car window,pillow,2,0,2,0,1,,,,,,,,,,,,,,,,,,,,,,,,,,,,,,,
,,,,,,,,,,,,,,,90459,001,2022-04-29_11h39.58.718,SPAMnetsValid,2021.1.4,Win32,59.64451867,,,,,,,,,,,,,,,,,,,,,,,,,,,,,,,,,,,,,,,,,,,,,,,,,,,,correct posture,pillow,3,0,3,0,1,,,,,,,,,,,,,,,,,,,,,,,,,,,,,,,
,,,,,,,,,,,,,,,90459,001,2022-04-29_11h39.58.718,SPAMnetsValid,2021.1.4,Win32,59.64451867,,,,,,,,,,,,,,,,,,,,,,,,,,,,,,,,,,,,,,,,,,,,,,,,,,,,prop phone up,pillow,4,0,4,0,1,,,,,,,,,,,,,,,,,,,,,,,,,,,,,,,
,,,,,,,,,,,,,,,90459,001,2022-04-29_11h39.58.718,SPAMnetsValid,2021.1.4,Win32,59.64451867,,,,,,,,,,,,,,,,,,,,,,,,,,,,,,,,,,,,,,,,,,,,,,,,,,,,,,,,,,,0,0,0,2,1,pillow,,,,,,,,,,,,,,,,,,,,,,,,,
,,,,,,,,,,,,,,,90459,001,2022-04-29_11h39.58.718,SPAMnetsValid,2021.1.4,Win32,59.64451867,,,,,,,,,,,,,,,,,,,,,,,,,,,,,,,,,,,,,,,,,,,,,,,,,,,,light,candle,0,0,0,0,1,,,,,,,,,,,,,,,,,,,,,,,,,,,,,,,
,,,,,,,,,,,,,,,90459,001,2022-04-29_11h39.58.718,SPAMnetsValid,2021.1.4,Win32,59.64451867,,,,,,,,,,,,,,,,,,,,,,,,,,,,,,,,,,,,,,,,,,,,,,,,,,,,start a fire,candle,1,0,1,0,1,,,,,,,,,,,,,,,,,,,,,,,,,,,,,,,
,,,,,,,,,,,,,,,90459,001,2022-04-29_11h39.58.718,SPAMnetsValid,2021.1.4,Win32,59.64451867,,,,,,,,,,,,,,,,,,,,,,,,,,,,,,,,,,,,,,,,,,,,,,,,,,,,make wax,candle,2,0,2,0,1,,,,,,,,,,,,,,,,,,,,,,,,,,,,,,,
,,,,,,,,,,,,,,,90459,001,2022-04-29_11h39.58.718,SPAMnetsValid,2021.1.4,Win32,59.64451867,,,,,,,,,,,,,,,,,,,,,,,,,,,,,,,,,,,,,,,,,,,,,,,,,,,,heat up water,candle,3,0,3,0,1,,,,,,,,,,,,,,,,,,,,,,,,,,,,,,,
,,,,,,,,,,,,,,,90459,001,2022-04-29_11h39.58.718,SPAMnetsValid,2021.1.4,Win32,59.64451867,,,,,,,,,,,,,,,,,,,,,,,,,,,,,,,,,,,,,,,,,,,,,,,,,,,,light a match,candle,4,0,4,0,1,,,,,,,,,,,,,,,,,,,,,,,,,,,,,,,
,,,,,,,,,,,,,,,90459,001,2022-04-29_11h39.58.718,SPAMnetsValid,2021.1.4,Win32,59.64451867,,,,,,,,,,,,,,,,,,,,,,,,,,,,,,,,,,,,,,,,,,,,,,,,,,,,birthday cakes,candle,5,0,5,0,1,,,,,,,,,,,,,,,,,,,,,,,,,,,,,,,
,,,,,,,,,,,,,,,90459,001,2022-04-29_11h39.58.718,SPAMnetsValid,2021.1.4,Win32,59.64451867,,,,,,,,,,,,,,,,,,,,,,,,,,,,,,,,,,,,,,,,,,,,,,,,,,,,,,,,,,,0,1,1,1,1,candle,,,,,,,,,,,,,,,,,,,,,,,,,
,,,,,,,,,,,,,,,90459,001,2022-04-29_11h39.58.718,SPAMnetsValid,2021.1.4,Win32,59.64451867,,,,,,,,,,,,,,,,,,,,,,,,,,,,,,,,,,,,,,,,,,,,,,,,,,,,collect milk from cow,bucket,0,0,0,0,1,,,,,,,,,,,,,,,,,,,,,,,,,,,,,,,
,,,,,,,,,,,,,,,90459,001,2022-04-29_11h39.58.718,SPAMnetsValid,2021.1.4,Win32,59.64451867,,,,,,,,,,,,,,,,,,,,,,,,,,,,,,,,,,,,,,,,,,,,,,,,,,,,collect water from well,bucket,1,0,1,0,1,,,,,,,,,,,,,,,,,,,,,,,,,,,,,,,
,,,,,,,,,,,,,,,90459,001,2022-04-29_11h39.58.718,SPAMnetsValid,2021.1.4,Win32,59.64451867,,,,,,,,,,,,,,,,,,,,,,,,,,,,,,,,,,,,,,,,,,,,,,,,,,,,hold water while mopping,bucket,2,0,2,0,1,,,,,,,,,,,,,,,,,,,,,,,,,,,,,,,
,,,,,,,,,,,,,,,90459,001,2022-04-29_11h39.58.718,SPAMnetsValid,2021.1.4,Win32,59.64451867,,,,,,,,,,,,,,,,,,,,,,,,,,,,,,,,,,,,,,,,,,,,,,,,,,,,carry stuff around,bucket,3,0,3,0,1,,,,,,,,,,,,,,,,,,,,,,,,,,,,,,,
,,,,,,,,,,,,,,,90459,001,2022-04-29_11h39.58.718,SPAMnetsValid,2021.1.4,Win32,59.64451867,,,,,,,,,,,,,,,,,,,,,,,,,,,,,,,,,,,,,,,,,,,,,,,,,,,,hat,bucket,4,0,4,0,1,,,,,,,,,,,,,,,,,,,,,,,,,,,,,,,
,,,,,,,,,,,,,,,90459,001,2022-04-29_11h39.58.718,SPAMnetsValid,2021.1.4,Win32,59.64451867,,,,,,,,,,,,,,,,,,,,,,,,,,,,,,,,,,,,,,,,,,,,,,,,,,,,shower head,bucket,5,0,5,0,1,,,,,,,,,,,,,,,,,,,,,,,,,,,,,,,
,,,,,,,,,,,,,,,90459,001,2022-04-29_11h39.58.718,SPAMnetsValid,2021.1.4,Win32,59.64451867,,,,,,,,,,,,,,,,,,,,,,,,,,,,,,,,,,,,,,,,,,,,,,,,,,,,fishing,bucket,6,0,6,0,1,,,,,,,,,,,,,,,,,,,,,,,,,,,,,,,
,,,,,,,,,,,,,,,90459,001,2022-04-29_11h39.58.718,SPAMnetsValid,2021.1.4,Win32,59.64451867,,,,,,,,,,,,,,,,,,,,,,,,,,,,,,,,,,,,,,,,,,,,,,,,,,,,drum,bucket,7,0,7,0,1,,,,,,,,,,,,,,,,,,,,,,,,,,,,,,,
,,,,,,,,,,,,,,,90459,001,2022-04-29_11h39.58.718,SPAMnetsValid,2021.1.4,Win32,59.64451867,,,,,,,,,,,,,,,,,,,,,,,,,,,,,,,,,,,,,,,,,,,,,,,,,,,,get a slurpie from 7 11,bucket,8,0,8,0,1,,,,,,,,,,,,,,,,,,,,,,,,,,,,,,,
,,,,,,,,,,,,,,,90459,001,2022-04-29_11h39.58.718,SPAMnetsValid,2021.1.4,Win32,59.64451867,,,,,,,,,,,,,,,,,,,,,,,,,,,,,,,,,,,,,,,,,,,,,,,,,,,,,,,,,,,0,2,2,0,1,bucket,,,,,,,,,,,,,,,,,,,,,,,,,
,,,,,,,,,,,,,,,90459,001,2022-04-29_11h39.58.718,SPAMnetsValid,2021.1.4,Win32,59.64451867,,,,,,,,,,,,,,,,,,,,,,,,,,,,,,,,,,,,,,,,,,,,,,,,,,,,,,,,,,,,,,,,,dog,Animals,0,0,0,0,1,,,,,,,,,,,,,,,,,,
,,,,,,,,,,,,,,,90459,001,2022-04-29_11h39.58.718,SPAMnetsValid,2021.1.4,Win32,59.64451867,,,,,,,,,,,,,,,,,,,,,,,,,,,,,,,,,,,,,,,,,,,,,,,,,,,,,,,,,,,,,,,,,cat,Animals,1,0,1,0,1,,,,,,,,,,,,,,,,,,
,,,,,,,,,,,,,,,90459,001,2022-04-29_11h39.58.718,SPAMnetsValid,2021.1.4,Win32,59.64451867,,,,,,,,,,,,,,,,,,,,,,,,,,,,,,,,,,,,,,,,,,,,,,,,,,,,,,,,,,,,,,,,,elephant,Animals,2,0,2,0,1,,,,,,,,,,,,,,,,,,
,,,,,,,,,,,,,,,90459,001,2022-04-29_11h39.58.718,SPAMnetsValid,2021.1.4,Win32,59.64451867,,,,,,,,,,,,,,,,,,,,,,,,,,,,,,,,,,,,,,,,,,,,,,,,,,,,,,,,,,,,,,,,,giraffe,Animals,3,0,3,0,1,,,,,,,,,,,,,,,,,,
,,,,,,,,,,,,,,,90459,001,2022-04-29_11h39.58.718,SPAMnetsValid,2021.1.4,Win32,59.64451867,,,,,,,,,,,,,,,,,,,,,,,,,,,,,,,,,,,,,,,,,,,,,,,,,,,,,,,,,,,,,,,,,lion,Animals,4,0,4,0,1,,,,,,,,,,,,,,,,,,
,,,,,,,,,,,,,,,90459,001,2022-04-29_11h39.58.718,SPAMnetsValid,2021.1.4,Win32,59.64451867,,,,,,,,,,,,,,,,,,,,,,,,,,,,,,,,,,,,,,,,,,,,,,,,,,,,,,,,,,,,,,,,,zebra,Animals,5,0,5,0,1,,,,,,,,,,,,,,,,,,
,,,,,,,,,,,,,,,90459,001,2022-04-29_11h39.58.718,SPAMnetsValid,2021.1.4,Win32,59.64451867,,,,,,,,,,,,,,,,,,,,,,,,,,,,,,,,,,,,,,,,,,,,,,,,,,,,,,,,,,,,,,,,,hog,Animals,6,0,6,0,1,,,,,,,,,,,,,,,,,,
,,,,,,,,,,,,,,,90459,001,2022-04-29_11h39.58.718,SPAMnetsValid,2021.1.4,Win32,59.64451867,,,,,,,,,,,,,,,,,,,,,,,,,,,,,,,,,,,,,,,,,,,,,,,,,,,,,,,,,,,,,,,,,bird,Animals,7,0,7,0,1,,,,,,,,,,,,,,,,,,
,,,,,,,,,,,,,,,90459,001,2022-04-29_11h39.58.718,SPAMnetsValid,2021.1.4,Win32,59.64451867,,,,,,,,,,,,,,,,,,,,,,,,,,,,,,,,,,,,,,,,,,,,,,,,,,,,,,,,,,,,,,,,,rat,Animals,8,0,8,0,1,,,,,,,,,,,,,,,,,,
,,,,,,,,,,,,,,,90459,001,2022-04-29_11h39.58.718,SPAMnetsValid,2021.1.4,Win32,59.64451867,,,,,,,,,,,,,,,,,,,,,,,,,,,,,,,,,,,,,,,,,,,,,,,,,,,,,,,,,,,,,,,,,snake,Animals,9,0,9,0,1,,,,,,,,,,,,,,,,,,
,,,,,,,,,,,,,,,90459,001,2022-04-29_11h39.58.718,SPAMnetsValid,2021.1.4,Win32,59.64451867,,,,,,,,,,,,,,,,,,,,,,,,,,,,,,,,,,,,,,,,,,,,,,,,,,,,,,,,,,,,,,,,,alligator,Animals,10,0,10,0,1,,,,,,,,,,,,,,,,,,
,,,,,,,,,,,,,,,90459,001,2022-04-29_11h39.58.718,SPAMnetsValid,2021.1.4,Win32,59.64451867,,,,,,,,,,,,,,,,,,,,,,,,,,,,,,,,,,,,,,,,,,,,,,,,,,,,,,,,,,,,,,,,,crocodile,Animals,11,0,11,0,1,,,,,,,,,,,,,,,,,,
,,,,,,,,,,,,,,,90459,001,2022-04-29_11h39.58.718,SPAMnetsValid,2021.1.4,Win32,59.64451867,,,,,,,,,,,,,,,,,,,,,,,,,,,,,,,,,,,,,,,,,,,,,,,,,,,,,,,,,,,,,,,,,turtle,Animals,12,0,12,0,1,,,,,,,,,,,,,,,,,,
,,,,,,,,,,,,,,,90459,001,2022-04-29_11h39.58.718,SPAMnetsValid,2021.1.4,Win32,59.64451867,,,,,,,,,,,,,,,,,,,,,,,,,,,,,,,,,,,,,,,,,,,,,,,,,,,,,,,,,,,,,,,,,fish,Animals,13,0,13,0,1,,,,,,,,,,,,,,,,,,
,,,,,,,,,,,,,,,90459,001,2022-04-29_11h39.58.718,SPAMnetsValid,2021.1.4,Win32,59.64451867,,,,,,,,,,,,,,,,,,,,,,,,,,,,,,,,,,,,,,,,,,,,,,,,,,,,,,,,,,,,,,,,,shark,Animals,14,0,14,0,1,,,,,,,,,,,,,,,,,,
,,,,,,,,,,,,,,,90459,001,2022-04-29_11h39.58.718,SPAMnetsValid,2021.1.4,Win32,59.64451867,,,,,,,,,,,,,,,,,,,,,,,,,,,,,,,,,,,,,,,,,,,,,,,,,,,,,,,,,,,,,,,,,whale,Animals,15,0,15,0,1,,,,,,,,,,,,,,,,,,
,,,,,,,,,,,,,,,90459,001,2022-04-29_11h39.58.718,SPAMnetsValid,2021.1.4,Win32,59.64451867,,,,,,,,,,,,,,,,,,,,,,,,,,,,,,,,,,,,,,,,,,,,,,,,,,,,,,,,,,,,,,,,,orca,Animals,16,0,16,0,1,,,,,,,,,,,,,,,,,,
,,,,,,,,,,,,,,,90459,001,2022-04-29_11h39.58.718,SPAMnetsValid,2021.1.4,Win32,59.64451867,,,,,,,,,,,,,,,,,,,,,,,,,,,,,,,,,,,,,,,,,,,,,,,,,,,,,,,,,,,,,,,,,dolphin,Animals,17,0,17,0,1,,,,,,,,,,,,,,,,,,
,,,,,,,,,,,,,,,90459,001,2022-04-29_11h39.58.718,SPAMnetsValid,2021.1.4,Win32,59.64451867,,,,,,,,,,,,,,,,,,,,,,,,,,,,,,,,,,,,,,,,,,,,,,,,,,,,,,,,,,,,,,,,,,Animals,18,0,18,0,1,,,,,,,,,,,,,,,,,,
,,,,,,,,,,,,,,,90459,001,2022-04-29_11h39.58.718,SPAMnetsValid,2021.1.4,Win32,59.64451867,,,,,,,,,,,,,,,,,,,,,,,,,,,,,,,,,,,,,,,,,,,,,,,,,,,,,,,,,,,,,,,,,sea urchin,Animals,19,0,19,0,1,,,,,,,,,,,,,,,,,,
,,,,,,,,,,,,,,,90459,001,2022-04-29_11h39.58.718,SPAMnetsValid,2021.1.4,Win32,59.64451867,,,,,,,,,,,,,,,,,,,,,,,,,,,,,,,,,,,,,,,,,,,,,,,,,,,,,,,,,,,,,,,,,crab,Animals,20,0,20,0,1,,,,,,,,,,,,,,,,,,
,,,,,,,,,,,,,,,90459,001,2022-04-29_11h39.58.718,SPAMnetsValid,2021.1.4,Win32,59.64451867,,,,,,,,,,,,,,,,,,,,,,,,,,,,,,,,,,,,,,,,,,,,,,,,,,,,,,,,,,,,,,,,,tiger,Animals,21,0,21,0,1,,,,,,,,,,,,,,,,,,
,,,,,,,,,,,,,,,90459,001,2022-04-29_11h39.58.718,SPAMnetsValid,2021.1.4,Win32,59.64451867,,,,,,,,,,,,,,,,,,,,,,,,,,,,,,,,,,,,,,,,,,,,,,,,,,,,,,,,,,,,,,,,,monkey,Animals,22,0,22,0,1,,,,,,,,,,,,,,,,,,
,,,,,,,,,,,,,,,90459,001,2022-04-29_11h39.58.718,SPAMnetsValid,2021.1.4,Win32,59.64451867,,,,,,,,,,,,,,,,,,,,,,,,,,,,,,,,,,,,,,,,,,,,,,,,,,,,,,,,,,,,,,,,,gorilla,Animals,23,0,23,0,1,,,,,,,,,,,,,,,,,,
,,,,,,,,,,,,,,,90459,001,2022-04-29_11h39.58.718,SPAMnetsValid,2021.1.4,Win32,59.64451867,,,,,,,,,,,,,,,,,,,,,,,,,,,,,,,,,,,,,,,,,,,,,,,,,,,,,,,,,,,,,,,,,rhino,Animals,24,0,24,0,1,,,,,,,,,,,,,,,,,,
,,,,,,,,,,,,,,,90459,001,2022-04-29_11h39.58.718,SPAMnetsValid,2021.1.4,Win32,59.64451867,,,,,,,,,,,,,,,,,,,,,,,,,,,,,,,,,,,,,,,,,,,,,,,,,,,,,,,,,,,,,,,,,hippo,Animals,25,0,25,0,1,,,,,,,,,,,,,,,,,,
,,,,,,,,,,,,,,,90459,001,2022-04-29_11h39.58.718,SPAMnetsValid,2021.1.4,Win32,59.64451867,,,,,,,,,,,,,,,,,,,,,,,,,,,,,,,,,,,,,,,,,,,,,,,,,,,,,,,,,,,,,,,,,manatee,Animals,26,0,26,0,1,,,,,,,,,,,,,,,,,,
,,,,,,,,,,,,,,,90459,001,2022-04-29_11h39.58.718,SPAMnetsValid,2021.1.4,Win32,59.64451867,,,,,,,,,,,,,,,,,,,,,,,,,,,,,,,,,,,,,,,,,,,,,,,,,,,,,,,,,,,,,,,,,eel,Animals,27,0,27,0,1,,,,,,,,,,,,,,,,,,
,,,,,,,,,,,,,,,90459,001,2022-04-29_11h39.58.718,SPAMnetsValid,2021.1.4,Win32,59.64451867,,,,,,,,,,,,,,,,,,,,,,,,,,,,,,,,,,,,,,,,,,,,,,,,,,,,,,,,,,,,,,,,,penguin,Animals,28,0,28,0,1,,,,,,,,,,,,,,,,,,
,,,,,,,,,,,,,,,90459,001,2022-04-29_11h39.58.718,SPAMnetsValid,2021.1.4,Win32,59.64451867,,,,,,,,,,,,,,,,,,,,,,,,,,,,,,,,,,,,,,,,,,,,,,,,,,,,,,,,,,,,,,,,,ostrich,Animals,29,0,29,0,1,,,,,,,,,,,,,,,,,,
,,,,,,,,,,,,,,,90459,001,2022-04-29_11h39.58.718,SPAMnetsValid,2021.1.4,Win32,59.64451867,,,,,,,,,,,,,,,,,,,,,,,,,,,,,,,,,,,,,,,,,,,,,,,,,,,,,,,,,,,,,,,,,,,,,,,,0,0,0,0,1,Animals,,,,,,,,,,,,
,,,,,,,,,,,,,,,90459,001,2022-04-29_11h39.58.718,SPAMnetsValid,2021.1.4,Win32,59.64451867,,,,,,,,,,,,,,,,,,,,,,,,,,,,,,,,,,,,,,,,,,,,,,,,,,,,,,,,,,,,,,,,,,,,,,,,,,,,,,4,3.2566,0,0,0,0,1,"I enjoy concentrating on a fantasy or daydream and exploring all its possibilities, letting it grow and develop.",0,1,,
,,,,,,,,,,,,,,,90459,001,2022-04-29_11h39.58.718,SPAMnetsValid,2021.1.4,Win32,59.64451867,,,,,,,,,,,,,,,,,,,,,,,,,,,,,,,,,,,,,,,,,,,,,,,,,,,,,,,,,,,,,,,,,,,,,,,,,,,,,,4,2.3139,0,1,1,1,1,I think it's interesting to learn and develop new hobbies.,0,2,,
,,,,,,,,,,,,,,,90459,001,2022-04-29_11h39.58.718,SPAMnetsValid,2021.1.4,Win32,59.64451867,,,,,,,,,,,,,,,,,,,,,,,,,,,,,,,,,,,,,,,,,,,,,,,,,,,,,,,,,,,,,,,,,,,,,,,,,,,,,,4,2.069,0,2,2,2,1,I am intrigued by the patterns I find in art and nature.,0,3,,
,,,,,,,,,,,,,,,90459,001,2022-04-29_11h39.58.718,SPAMnetsValid,2021.1.4,Win32,59.64451867,,,,,,,,,,,,,,,,,,,,,,,,,,,,,,,,,,,,,,,,,,,,,,,,,,,,,,,,,,,,,,,,,,,,,,,,,,,,,,1,4.8026,0,3,3,3,1,I believe letting students hear controversial speakers can only confuse and mislead them.,1,4,,
,,,,,,,,,,,,,,,90459,001,2022-04-29_11h39.58.718,SPAMnetsValid,2021.1.4,Win32,59.64451867,,,,,,,,,,,,,,,,,,,,,,,,,,,,,,,,,,,,,,,,,,,,,,,,,,,,,,,,,,,,,,,,,,,,,,,,,,,,,,3,2.2949,0,4,4,4,1,Poetry has little or no effect on me.,1,5,,
,,,,,,,,,,,,,,,90459,001,2022-04-29_11h39.58.718,SPAMnetsValid,2021.1.4,Win32,59.64451867,,,,,,,,,,,,,,,,,,,,,,,,,,,,,,,,,,,,,,,,,,,,,,,,,,,,,,,,,,,,,,,,,,,,,,,,,,,,,,2,5.1022,0,5,5,5,1,I would have difficulty just letting my mind wander without control or guidance.,1,6,,
,,,,,,,,,,,,,,,90459,001,2022-04-29_11h39.58.718,SPAMnetsValid,2021.1.4,Win32,59.64451867,,,,,,,,,,,,,,,,,,,,,,,,,,,,,,,,,,,,,,,,,,,,,,,,,,,,,,,,,,,,,,,,,,,,,,,,,,,,,,2,3.3315,0,6,6,6,1,I seldom notice the moods or feelings that different environments produce.,1,7,,
,,,,,,,,,,,,,,,90459,001,2022-04-29_11h39.58.718,SPAMnetsValid,2021.1.4,Win32,59.64451867,,,,,,,,,,,,,,,,,,,,,,,,,,,,,,,,,,,,,,,,,,,,,,,,,,,,,,,,,,,,,,,,,,,,,,,,,,,,,,4,2.1301,0,7,7,7,1,I experience a wide range of emotions or feelings.,0,8,,
,,,,,,,,,,,,,,,90459,001,2022-04-29_11h39.58.718,SPAMnetsValid,2021.1.4,Win32,59.64451867,,,,,,,,,,,,,,,,,,,,,,,,,,,,,,,,,,,,,,,,,,,,,,,,,,,,,,,,,,,,,,,,,,,,,,,,,,,,,,3,3.613299999,0,8,8,8,1,"Sometimes when I am reading poetry or looking at a work of art, I feel a chill or wave of excitement.",0,9,,
,,,,,,,,,,,,,,,90459,001,2022-04-29_11h39.58.718,SPAMnetsValid,2021.1.4,Win32,59.64451867,,,,,,,,,,,,,,,,,,,,,,,,,,,,,,,,,,,,,,,,,,,,,,,,,,,,,,,,,,,,,,,,,,,,,,,,,,,,,,1,3.3102,0,9,9,9,1,I have little interest in speculating on the nature of the universe or the human condition.,1,10,,
,,,,,,,,,,,,,,,90459,001,2022-04-29_11h39.58.718,SPAMnetsValid,2021.1.4,Win32,59.64451867,,,,,,,,,,,,,,,,,,,,,,,,,,,,,,,,,,,,,,,,,,,,,,,,,,,,,,,,,,,,,,,,,,,,,,,,,,,,,,5,2.2491,0,10,10,10,1,I have a lot of intellectual curiosity.,0,11,,
,,,,,,,,,,,,,,,90459,001,2022-04-29_11h39.58.718,SPAMnetsValid,2021.1.4,Win32,59.64451867,,,,,,,,,,,,,,,,,,,,,,,,,,,,,,,,,,,,,,,,,,,,,,,,,,,,,,,,,,,,,,,,,,,,,,,,,,,,,,5,3.0229,0,11,11,11,1,I often enjoy playing with theories or abstract ideas.,0,12,,
,,,,,,,,,,,,,,,90459,001,2022-04-29_11h39.58.718,SPAMnetsValid,2021.1.4,Win32,59.64451867,,,,,,,,,,,,,,,,,,,,,,,,,,,,,,,,,,,,,,,,,,,,,,,,,,,,,,,,,,,,,,,,,,,,,,,,,,,,,,,,,,,,,,,,return,5.628
