key_resp_3.keys,key_resp_3.rt,slider_2.response,slider_2.rt,rjt_rating,rjt_RT,trials_24.thisRepN,trials_24.thisTrialN,trials_24.thisN,trials_24.thisIndex,trials_24.ran,rjt_order,word1,word2,attention,participant,session,date,expName,psychopyVersion,OS,frameRate,trials_4.thisRepN,trials_4.thisTrialN,trials_4.thisN,trials_4.thisIndex,trials_4.ran,trials_5.thisRepN,trials_5.thisTrialN,trials_5.thisN,trials_5.thisIndex,trials_5.ran,repOne,repTwo,slider.response,slider.rt,trials_22.thisRepN,trials_22.thisTrialN,trials_22.thisN,trials_22.thisIndex,trials_22.ran,trials_99.thisRepN,trials_99.thisTrialN,trials_99.thisN,trials_99.thisIndex,trials_99.ran,slider_extend_2.response,slider_extend_2.rt,trials_6.thisRepN,trials_6.thisTrialN,trials_6.thisN,trials_6.thisIndex,trials_6.ran,vCue2,R1,R2,R3,R4,correct,sliderVocab.response,sliderVocab.rt,trials_7.thisRepN,trials_7.thisTrialN,trials_7.thisN,trials_7.thisIndex,trials_7.ran,VocabCue,VR1,VR2,VR3,VR4,VR5,VocabCorrect,AUT_resp,AUT_label,trials.thisRepN,trials.thisTrialN,trials.thisN,trials.thisIndex,trials.ran,trials_2.thisRepN,trials_2.thisTrialN,trials_2.thisN,trials_2.thisIndex,trials_2.ran,aut_prompt,VF_response,VF_tag,trials_16.thisRepN,trials_16.thisTrialN,trials_16.thisN,trials_16.thisIndex,trials_16.ran,trials_17.thisRepN,trials_17.thisTrialN,trials_17.thisN,trials_17.thisIndex,trials_17.ran,VFcond,open_slider.response,open_slider.rt,trials_3.thisRepN,trials_3.thisTrialN,trials_3.thisN,trials_3.thisIndex,trials_3.ran,OpenQ,Rev,OPEN_ORDER,key_resp_2.keys,key_resp_2.rt
return,13.338,3,10.015,3,10.015,0,0,0,16,1,111,carrot,microwave,,90451,001,2022-04-25_10h02.58.575,SPAMnetsValid,2021.1.4,MacIntel,60.0240096,,,,,,,,,,,,,,,,,,,,,,,,,,,,,,,,,,,,,,,,,,,,,,,,,,,,,,,,,,,,,,,,,,,,,,,,,,,,,,,,,,,,,,,,,
,,1,5.021,1,5.021,0,1,1,94,1,133,cake,flower,,90451,001,2022-04-25_10h02.58.575,SPAMnetsValid,2021.1.4,MacIntel,60.0240096,,,,,,,,,,,,,,,,,,,,,,,,,,,,,,,,,,,,,,,,,,,,,,,,,,,,,,,,,,,,,,,,,,,,,,,,,,,,,,,,,,,,,,,,,
,,1,2.51,1,2.51,0,2,2,15,1,145,cactus,yogurt,,90451,001,2022-04-25_10h02.58.575,SPAMnetsValid,2021.1.4,MacIntel,60.0240096,,,,,,,,,,,,,,,,,,,,,,,,,,,,,,,,,,,,,,,,,,,,,,,,,,,,,,,,,,,,,,,,,,,,,,,,,,,,,,,,,,,,,,,,,
,,3,2.357,3,2.357,0,3,3,12,1,162,microwave,tomato,,90451,001,2022-04-25_10h02.58.575,SPAMnetsValid,2021.1.4,MacIntel,60.0240096,,,,,,,,,,,,,,,,,,,,,,,,,,,,,,,,,,,,,,,,,,,,,,,,,,,,,,,,,,,,,,,,,,,,,,,,,,,,,,,,,,,,,,,,,
,,1,2.187,1,2.187,0,4,4,63,1,137,microwave,tree,,90451,001,2022-04-25_10h02.58.575,SPAMnetsValid,2021.1.4,MacIntel,60.0240096,,,,,,,,,,,,,,,,,,,,,,,,,,,,,,,,,,,,,,,,,,,,,,,,,,,,,,,,,,,,,,,,,,,,,,,,,,,,,,,,,,,,,,,,,
,,3,5.12,3,5.12,0,5,5,46,1,123,cookie,tree,,90451,001,2022-04-25_10h02.58.575,SPAMnetsValid,2021.1.4,MacIntel,60.0240096,,,,,,,,,,,,,,,,,,,,,,,,,,,,,,,,,,,,,,,,,,,,,,,,,,,,,,,,,,,,,,,,,,,,,,,,,,,,,,,,,,,,,,,,,
,,7,2.257,7,2.257,0,6,6,0,1,106,cake,strawberry,,90451,001,2022-04-25_10h02.58.575,SPAMnetsValid,2021.1.4,MacIntel,60.0240096,,,,,,,,,,,,,,,,,,,,,,,,,,,,,,,,,,,,,,,,,,,,,,,,,,,,,,,,,,,,,,,,,,,,,,,,,,,,,,,,,,,,,,,,,
,,9,1.871,9,1.871,0,7,7,44,1,116,cake,chocolate,,90451,001,2022-04-25_10h02.58.575,SPAMnetsValid,2021.1.4,MacIntel,60.0240096,,,,,,,,,,,,,,,,,,,,,,,,,,,,,,,,,,,,,,,,,,,,,,,,,,,,,,,,,,,,,,,,,,,,,,,,,,,,,,,,,,,,,,,,,
,,1,1.921,1,1.921,0,8,8,42,1,184,oven,pretzel,,90451,001,2022-04-25_10h02.58.575,SPAMnetsValid,2021.1.4,MacIntel,60.0240096,,,,,,,,,,,,,,,,,,,,,,,,,,,,,,,,,,,,,,,,,,,,,,,,,,,,,,,,,,,,,,,,,,,,,,,,,,,,,,,,,,,,,,,,,
,,8,1.891,8,1.891,0,9,9,22,1,142,garden,tree,,90451,001,2022-04-25_10h02.58.575,SPAMnetsValid,2021.1.4,MacIntel,60.0240096,,,,,,,,,,,,,,,,,,,,,,,,,,,,,,,,,,,,,,,,,,,,,,,,,,,,,,,,,,,,,,,,,,,,,,,,,,,,,,,,,,,,,,,,,
,,9,2.153,9,2.153,0,10,10,8,1,97,chocolate,kitchen,,90451,001,2022-04-25_10h02.58.575,SPAMnetsValid,2021.1.4,MacIntel,60.0240096,,,,,,,,,,,,,,,,,,,,,,,,,,,,,,,,,,,,,,,,,,,,,,,,,,,,,,,,,,,,,,,,,,,,,,,,,,,,,,,,,,,,,,,,,
,,1,1.836,1,1.836,0,11,11,40,1,165,onion,rose,,90451,001,2022-04-25_10h02.58.575,SPAMnetsValid,2021.1.4,MacIntel,60.0240096,,,,,,,,,,,,,,,,,,,,,,,,,,,,,,,,,,,,,,,,,,,,,,,,,,,,,,,,,,,,,,,,,,,,,,,,,,,,,,,,,,,,,,,,,
,,6,1.971,6,1.971,0,12,12,19,1,183,cake,rose,,90451,001,2022-04-25_10h02.58.575,SPAMnetsValid,2021.1.4,MacIntel,60.0240096,,,,,,,,,,,,,,,,,,,,,,,,,,,,,,,,,,,,,,,,,,,,,,,,,,,,,,,,,,,,,,,,,,,,,,,,,,,,,,,,,,,,,,,,,
,,9,2.122,9,2.122,0,13,13,29,1,163,melon,refrigerator,,90451,001,2022-04-25_10h02.58.575,SPAMnetsValid,2021.1.4,MacIntel,60.0240096,,,,,,,,,,,,,,,,,,,,,,,,,,,,,,,,,,,,,,,,,,,,,,,,,,,,,,,,,,,,,,,,,,,,,,,,,,,,,,,,,,,,,,,,,
,,2,1.975,2,1.975,0,14,14,79,1,103,pretzel,tomato,,90451,001,2022-04-25_10h02.58.575,SPAMnetsValid,2021.1.4,MacIntel,60.0240096,,,,,,,,,,,,,,,,,,,,,,,,,,,,,,,,,,,,,,,,,,,,,,,,,,,,,,,,,,,,,,,,,,,,,,,,,,,,,,,,,,,,,,,,,
,,6,1.741,6,1.741,0,15,15,49,1,152,cactus,strawberry,,90451,001,2022-04-25_10h02.58.575,SPAMnetsValid,2021.1.4,MacIntel,60.0240096,,,,,,,,,,,,,,,,,,,,,,,,,,,,,,,,,,,,,,,,,,,,,,,,,,,,,,,,,,,,,,,,,,,,,,,,,,,,,,,,,,,,,,,,,
,,2,2.824,2,2.824,0,16,16,57,1,127,cactus,chocolate,,90451,001,2022-04-25_10h02.58.575,SPAMnetsValid,2021.1.4,MacIntel,60.0240096,,,,,,,,,,,,,,,,,,,,,,,,,,,,,,,,,,,,,,,,,,,,,,,,,,,,,,,,,,,,,,,,,,,,,,,,,,,,,,,,,,,,,,,,,
,,1,2.237,1,2.237,0,17,17,95,1,121,broom,microwave,,90451,001,2022-04-25_10h02.58.575,SPAMnetsValid,2021.1.4,MacIntel,60.0240096,,,,,,,,,,,,,,,,,,,,,,,,,,,,,,,,,,,,,,,,,,,,,,,,,,,,,,,,,,,,,,,,,,,,,,,,,,,,,,,,,,,,,,,,,
,,6,2.02,6,2.02,0,18,18,88,1,171,cake,tomato,,90451,001,2022-04-25_10h02.58.575,SPAMnetsValid,2021.1.4,MacIntel,60.0240096,,,,,,,,,,,,,,,,,,,,,,,,,,,,,,,,,,,,,,,,,,,,,,,,,,,,,,,,,,,,,,,,,,,,,,,,,,,,,,,,,,,,,,,,,
,,1,1.82,1,1.82,0,19,19,55,1,143,pretzel,rose,,90451,001,2022-04-25_10h02.58.575,SPAMnetsValid,2021.1.4,MacIntel,60.0240096,,,,,,,,,,,,,,,,,,,,,,,,,,,,,,,,,,,,,,,,,,,,,,,,,,,,,,,,,,,,,,,,,,,,,,,,,,,,,,,,,,,,,,,,,
,,8,1.903,8,1.903,0,20,20,65,1,160,cookie,kitchen,,90451,001,2022-04-25_10h02.58.575,SPAMnetsValid,2021.1.4,MacIntel,60.0240096,,,,,,,,,,,,,,,,,,,,,,,,,,,,,,,,,,,,,,,,,,,,,,,,,,,,,,,,,,,,,,,,,,,,,,,,,,,,,,,,,,,,,,,,,
,,9,1.754,9,1.754,0,21,21,35,1,147,cake,refrigerator,,90451,001,2022-04-25_10h02.58.575,SPAMnetsValid,2021.1.4,MacIntel,60.0240096,,,,,,,,,,,,,,,,,,,,,,,,,,,,,,,,,,,,,,,,,,,,,,,,,,,,,,,,,,,,,,,,,,,,,,,,,,,,,,,,,,,,,,,,,
,,1,1.857,1,1.857,0,22,22,71,1,187,cactus,microwave,,90451,001,2022-04-25_10h02.58.575,SPAMnetsValid,2021.1.4,MacIntel,60.0240096,,,,,,,,,,,,,,,,,,,,,,,,,,,,,,,,,,,,,,,,,,,,,,,,,,,,,,,,,,,,,,,,,,,,,,,,,,,,,,,,,,,,,,,,,
,,7,2.522,7,2.522,0,23,23,31,1,156,melon,rose,,90451,001,2022-04-25_10h02.58.575,SPAMnetsValid,2021.1.4,MacIntel,60.0240096,,,,,,,,,,,,,,,,,,,,,,,,,,,,,,,,,,,,,,,,,,,,,,,,,,,,,,,,,,,,,,,,,,,,,,,,,,,,,,,,,,,,,,,,,
,,3,4.14,3,4.14,0,24,24,74,1,128,melon,microwave,,90451,001,2022-04-25_10h02.58.575,SPAMnetsValid,2021.1.4,MacIntel,60.0240096,,,,,,,,,,,,,,,,,,,,,,,,,,,,,,,,,,,,,,,,,,,,,,,,,,,,,,,,,,,,,,,,,,,,,,,,,,,,,,,,,,,,,,,,,
,,7,2.872,7,2.872,0,25,25,11,1,117,melon,strawberry,,90451,001,2022-04-25_10h02.58.575,SPAMnetsValid,2021.1.4,MacIntel,60.0240096,,,,,,,,,,,,,,,,,,,,,,,,,,,,,,,,,,,,,,,,,,,,,,,,,,,,,,,,,,,,,,,,,,,,,,,,,,,,,,,,,,,,,,,,,
,,9,2.173,9,2.173,0,26,26,92,1,170,cookie,microwave,,90451,001,2022-04-25_10h02.58.575,SPAMnetsValid,2021.1.4,MacIntel,60.0240096,,,,,,,,,,,,,,,,,,,,,,,,,,,,,,,,,,,,,,,,,,,,,,,,,,,,,,,,,,,,,,,,,,,,,,,,,,,,,,,,,,,,,,,,,
,,7,2.386,7,2.386,0,27,27,91,1,166,cake,yogurt,,90451,001,2022-04-25_10h02.58.575,SPAMnetsValid,2021.1.4,MacIntel,60.0240096,,,,,,,,,,,,,,,,,,,,,,,,,,,,,,,,,,,,,,,,,,,,,,,,,,,,,,,,,,,,,,,,,,,,,,,,,,,,,,,,,,,,,,,,,
,,7,3.27,7,3.27,0,28,28,23,1,148,flower,melon,,90451,001,2022-04-25_10h02.58.575,SPAMnetsValid,2021.1.4,MacIntel,60.0240096,,,,,,,,,,,,,,,,,,,,,,,,,,,,,,,,,,,,,,,,,,,,,,,,,,,,,,,,,,,,,,,,,,,,,,,,,,,,,,,,,,,,,,,,,
,,9,2.054,9,2.054,0,29,29,25,1,194,cactus,cactus,CHECK,90451,001,2022-04-25_10h02.58.575,SPAMnetsValid,2021.1.4,MacIntel,60.0240096,,,,,,,,,,,,,,,,,,,,,,,,,,,,,,,,,,,,,,,,,,,,,,,,,,,,,,,,,,,,,,,,,,,,,,,,,,,,,,,,,,,,,,,,,
,,1,2.421,1,2.421,0,30,30,81,1,104,garden,microwave,,90451,001,2022-04-25_10h02.58.575,SPAMnetsValid,2021.1.4,MacIntel,60.0240096,,,,,,,,,,,,,,,,,,,,,,,,,,,,,,,,,,,,,,,,,,,,,,,,,,,,,,,,,,,,,,,,,,,,,,,,,,,,,,,,,,,,,,,,,
,,9,1.905,9,1.905,0,31,31,61,1,138,flower,rose,,90451,001,2022-04-25_10h02.58.575,SPAMnetsValid,2021.1.4,MacIntel,60.0240096,,,,,,,,,,,,,,,,,,,,,,,,,,,,,,,,,,,,,,,,,,,,,,,,,,,,,,,,,,,,,,,,,,,,,,,,,,,,,,,,,,,,,,,,,
,,9,1.954,9,1.954,0,32,32,89,1,140,cookie,refrigerator,,90451,001,2022-04-25_10h02.58.575,SPAMnetsValid,2021.1.4,MacIntel,60.0240096,,,,,,,,,,,,,,,,,,,,,,,,,,,,,,,,,,,,,,,,,,,,,,,,,,,,,,,,,,,,,,,,,,,,,,,,,,,,,,,,,,,,,,,,,
,,8,2.504,8,2.504,0,33,33,53,1,177,chocolate,strawberry,,90451,001,2022-04-25_10h02.58.575,SPAMnetsValid,2021.1.4,MacIntel,60.0240096,,,,,,,,,,,,,,,,,,,,,,,,,,,,,,,,,,,,,,,,,,,,,,,,,,,,,,,,,,,,,,,,,,,,,,,,,,,,,,,,,,,,,,,,,
,,1,1.99,1,1.99,0,34,34,18,1,119,strawberry,tree,,90451,001,2022-04-25_10h02.58.575,SPAMnetsValid,2021.1.4,MacIntel,60.0240096,,,,,,,,,,,,,,,,,,,,,,,,,,,,,,,,,,,,,,,,,,,,,,,,,,,,,,,,,,,,,,,,,,,,,,,,,,,,,,,,,,,,,,,,,
,,9,1.719,9,1.719,0,35,35,17,1,99,garden,melon,,90451,001,2022-04-25_10h02.58.575,SPAMnetsValid,2021.1.4,MacIntel,60.0240096,,,,,,,,,,,,,,,,,,,,,,,,,,,,,,,,,,,,,,,,,,,,,,,,,,,,,,,,,,,,,,,,,,,,,,,,,,,,,,,,,,,,,,,,,
,,1,1.77,1,1.77,0,36,36,78,1,132,broom,tree,,90451,001,2022-04-25_10h02.58.575,SPAMnetsValid,2021.1.4,MacIntel,60.0240096,,,,,,,,,,,,,,,,,,,,,,,,,,,,,,,,,,,,,,,,,,,,,,,,,,,,,,,,,,,,,,,,,,,,,,,,,,,,,,,,,,,,,,,,,
,,7,2.121,7,2.121,0,37,37,28,1,154,strawberry,yogurt,,90451,001,2022-04-25_10h02.58.575,SPAMnetsValid,2021.1.4,MacIntel,60.0240096,,,,,,,,,,,,,,,,,,,,,,,,,,,,,,,,,,,,,,,,,,,,,,,,,,,,,,,,,,,,,,,,,,,,,,,,,,,,,,,,,,,,,,,,,
,,1,1.841,1,1.841,0,38,38,24,1,169,onion,yogurt,,90451,001,2022-04-25_10h02.58.575,SPAMnetsValid,2021.1.4,MacIntel,60.0240096,,,,,,,,,,,,,,,,,,,,,,,,,,,,,,,,,,,,,,,,,,,,,,,,,,,,,,,,,,,,,,,,,,,,,,,,,,,,,,,,,,,,,,,,,
,,8,2.123,8,2.123,0,39,39,7,1,188,flower,tree,,90451,001,2022-04-25_10h02.58.575,SPAMnetsValid,2021.1.4,MacIntel,60.0240096,,,,,,,,,,,,,,,,,,,,,,,,,,,,,,,,,,,,,,,,,,,,,,,,,,,,,,,,,,,,,,,,,,,,,,,,,,,,,,,,,,,,,,,,,
,,9,1.771,9,1.771,0,40,40,77,1,172,kitchen,melon,,90451,001,2022-04-25_10h02.58.575,SPAMnetsValid,2021.1.4,MacIntel,60.0240096,,,,,,,,,,,,,,,,,,,,,,,,,,,,,,,,,,,,,,,,,,,,,,,,,,,,,,,,,,,,,,,,,,,,,,,,,,,,,,,,,,,,,,,,,
,,1,2.756,1,2.756,0,41,41,26,1,107,rose,tomato,,90451,001,2022-04-25_10h02.58.575,SPAMnetsValid,2021.1.4,MacIntel,60.0240096,,,,,,,,,,,,,,,,,,,,,,,,,,,,,,,,,,,,,,,,,,,,,,,,,,,,,,,,,,,,,,,,,,,,,,,,,,,,,,,,,,,,,,,,,
,,2,5.487,2,5.487,0,42,42,82,1,98,pretzel,strawberry,,90451,001,2022-04-25_10h02.58.575,SPAMnetsValid,2021.1.4,MacIntel,60.0240096,,,,,,,,,,,,,,,,,,,,,,,,,,,,,,,,,,,,,,,,,,,,,,,,,,,,,,,,,,,,,,,,,,,,,,,,,,,,,,,,,,,,,,,,,
,,7,2.023,7,2.023,0,43,43,96,1,136,chocolate,microwave,,90451,001,2022-04-25_10h02.58.575,SPAMnetsValid,2021.1.4,MacIntel,60.0240096,,,,,,,,,,,,,,,,,,,,,,,,,,,,,,,,,,,,,,,,,,,,,,,,,,,,,,,,,,,,,,,,,,,,,,,,,,,,,,,,,,,,,,,,,
,,1,4.189,1,4.189,0,44,44,21,1,159,cookie,flower,,90451,001,2022-04-25_10h02.58.575,SPAMnetsValid,2021.1.4,MacIntel,60.0240096,,,,,,,,,,,,,,,,,,,,,,,,,,,,,,,,,,,,,,,,,,,,,,,,,,,,,,,,,,,,,,,,,,,,,,,,,,,,,,,,,,,,,,,,,
,,9,2.07,9,2.07,0,45,45,85,1,115,refrigerator,tomato,,90451,001,2022-04-25_10h02.58.575,SPAMnetsValid,2021.1.4,MacIntel,60.0240096,,,,,,,,,,,,,,,,,,,,,,,,,,,,,,,,,,,,,,,,,,,,,,,,,,,,,,,,,,,,,,,,,,,,,,,,,,,,,,,,,,,,,,,,,
,,1,2.62,1,2.62,0,46,46,54,1,101,cactus,kitchen,,90451,001,2022-04-25_10h02.58.575,SPAMnetsValid,2021.1.4,MacIntel,60.0240096,,,,,,,,,,,,,,,,,,,,,,,,,,,,,,,,,,,,,,,,,,,,,,,,,,,,,,,,,,,,,,,,,,,,,,,,,,,,,,,,,,,,,,,,,
,,3,2.439,3,2.439,0,47,47,9,1,176,cactus,tomato,,90451,001,2022-04-25_10h02.58.575,SPAMnetsValid,2021.1.4,MacIntel,60.0240096,,,,,,,,,,,,,,,,,,,,,,,,,,,,,,,,,,,,,,,,,,,,,,,,,,,,,,,,,,,,,,,,,,,,,,,,,,,,,,,,,,,,,,,,,
,,9,3.625,9,3.625,0,48,48,60,1,122,flower,garden,,90451,001,2022-04-25_10h02.58.575,SPAMnetsValid,2021.1.4,MacIntel,60.0240096,,,,,,,,,,,,,,,,,,,,,,,,,,,,,,,,,,,,,,,,,,,,,,,,,,,,,,,,,,,,,,,,,,,,,,,,,,,,,,,,,,,,,,,,,
,,1,1.79,1,1.79,0,49,49,75,1,178,cactus,carrot,,90451,001,2022-04-25_10h02.58.575,SPAMnetsValid,2021.1.4,MacIntel,60.0240096,,,,,,,,,,,,,,,,,,,,,,,,,,,,,,,,,,,,,,,,,,,,,,,,,,,,,,,,,,,,,,,,,,,,,,,,,,,,,,,,,,,,,,,,,
,,9,1.739,9,1.739,0,50,50,27,1,158,cookie,oven,,90451,001,2022-04-25_10h02.58.575,SPAMnetsValid,2021.1.4,MacIntel,60.0240096,,,,,,,,,,,,,,,,,,,,,,,,,,,,,,,,,,,,,,,,,,,,,,,,,,,,,,,,,,,,,,,,,,,,,,,,,,,,,,,,,,,,,,,,,
,,9,1.655,9,1.655,0,51,51,14,1,120,microwave,oven,,90451,001,2022-04-25_10h02.58.575,SPAMnetsValid,2021.1.4,MacIntel,60.0240096,,,,,,,,,,,,,,,,,,,,,,,,,,,,,,,,,,,,,,,,,,,,,,,,,,,,,,,,,,,,,,,,,,,,,,,,,,,,,,,,,,,,,,,,,
,,9,2.525,9,2.525,0,52,52,5,1,108,carrot,chocolate,,90451,001,2022-04-25_10h02.58.575,SPAMnetsValid,2021.1.4,MacIntel,60.0240096,,,,,,,,,,,,,,,,,,,,,,,,,,,,,,,,,,,,,,,,,,,,,,,,,,,,,,,,,,,,,,,,,,,,,,,,,,,,,,,,,,,,,,,,,
,,3,3.088,3,3.088,0,53,53,70,1,141,melon,tomato,,90451,001,2022-04-25_10h02.58.575,SPAMnetsValid,2021.1.4,MacIntel,60.0240096,,,,,,,,,,,,,,,,,,,,,,,,,,,,,,,,,,,,,,,,,,,,,,,,,,,,,,,,,,,,,,,,,,,,,,,,,,,,,,,,,,,,,,,,,
,,1,2.488,1,2.488,0,54,54,45,1,179,broom,oven,,90451,001,2022-04-25_10h02.58.575,SPAMnetsValid,2021.1.4,MacIntel,60.0240096,,,,,,,,,,,,,,,,,,,,,,,,,,,,,,,,,,,,,,,,,,,,,,,,,,,,,,,,,,,,,,,,,,,,,,,,,,,,,,,,,,,,,,,,,
,,9,1.725,9,1.725,0,55,55,39,1,112,cake,carrot,,90451,001,2022-04-25_10h02.58.575,SPAMnetsValid,2021.1.4,MacIntel,60.0240096,,,,,,,,,,,,,,,,,,,,,,,,,,,,,,,,,,,,,,,,,,,,,,,,,,,,,,,,,,,,,,,,,,,,,,,,,,,,,,,,,,,,,,,,,
,,9,1.725,9,1.725,0,56,56,38,1,155,carrot,cookie,,90451,001,2022-04-25_10h02.58.575,SPAMnetsValid,2021.1.4,MacIntel,60.0240096,,,,,,,,,,,,,,,,,,,,,,,,,,,,,,,,,,,,,,,,,,,,,,,,,,,,,,,,,,,,,,,,,,,,,,,,,,,,,,,,,,,,,,,,,
,,6,3.154,6,3.154,0,57,57,67,1,96,oven,strawberry,,90451,001,2022-04-25_10h02.58.575,SPAMnetsValid,2021.1.4,MacIntel,60.0240096,,,,,,,,,,,,,,,,,,,,,,,,,,,,,,,,,,,,,,,,,,,,,,,,,,,,,,,,,,,,,,,,,,,,,,,,,,,,,,,,,,,,,,,,,
,,9,2.072,9,2.072,0,58,58,10,1,118,chocolate,oven,,90451,001,2022-04-25_10h02.58.575,SPAMnetsValid,2021.1.4,MacIntel,60.0240096,,,,,,,,,,,,,,,,,,,,,,,,,,,,,,,,,,,,,,,,,,,,,,,,,,,,,,,,,,,,,,,,,,,,,,,,,,,,,,,,,,,,,,,,,
,,6,4.473,6,4.473,0,59,59,37,1,139,carrot,strawberry,,90451,001,2022-04-25_10h02.58.575,SPAMnetsValid,2021.1.4,MacIntel,60.0240096,,,,,,,,,,,,,,,,,,,,,,,,,,,,,,,,,,,,,,,,,,,,,,,,,,,,,,,,,,,,,,,,,,,,,,,,,,,,,,,,,,,,,,,,,
,,3,3.22,3,3.22,0,60,60,84,1,130,microwave,yogurt,,90451,001,2022-04-25_10h02.58.575,SPAMnetsValid,2021.1.4,MacIntel,60.0240096,,,,,,,,,,,,,,,,,,,,,,,,,,,,,,,,,,,,,,,,,,,,,,,,,,,,,,,,,,,,,,,,,,,,,,,,,,,,,,,,,,,,,,,,,
,,1,1.871,1,1.871,0,61,61,13,1,105,cactus,oven,,90451,001,2022-04-25_10h02.58.575,SPAMnetsValid,2021.1.4,MacIntel,60.0240096,,,,,,,,,,,,,,,,,,,,,,,,,,,,,,,,,,,,,,,,,,,,,,,,,,,,,,,,,,,,,,,,,,,,,,,,,,,,,,,,,,,,,,,,,
,,4,2.24,4,2.24,0,62,62,80,1,146,pretzel,tree,,90451,001,2022-04-25_10h02.58.575,SPAMnetsValid,2021.1.4,MacIntel,60.0240096,,,,,,,,,,,,,,,,,,,,,,,,,,,,,,,,,,,,,,,,,,,,,,,,,,,,,,,,,,,,,,,,,,,,,,,,,,,,,,,,,,,,,,,,,
,,9,2.455,9,2.455,0,63,63,48,1,186,kitchen,yogurt,,90451,001,2022-04-25_10h02.58.575,SPAMnetsValid,2021.1.4,MacIntel,60.0240096,,,,,,,,,,,,,,,,,,,,,,,,,,,,,,,,,,,,,,,,,,,,,,,,,,,,,,,,,,,,,,,,,,,,,,,,,,,,,,,,,,,,,,,,,
,,2,3.404,2,3.404,0,64,64,30,1,125,carrot,tree,,90451,001,2022-04-25_10h02.58.575,SPAMnetsValid,2021.1.4,MacIntel,60.0240096,,,,,,,,,,,,,,,,,,,,,,,,,,,,,,,,,,,,,,,,,,,,,,,,,,,,,,,,,,,,,,,,,,,,,,,,,,,,,,,,,,,,,,,,,
,,1,2.123,1,2.123,0,65,65,2,1,174,cake,pretzel,,90451,001,2022-04-25_10h02.58.575,SPAMnetsValid,2021.1.4,MacIntel,60.0240096,,,,,,,,,,,,,,,,,,,,,,,,,,,,,,,,,,,,,,,,,,,,,,,,,,,,,,,,,,,,,,,,,,,,,,,,,,,,,,,,,,,,,,,,,
,,9,1.938,9,1.938,0,66,66,86,1,193,melon,melon,CHECK,90451,001,2022-04-25_10h02.58.575,SPAMnetsValid,2021.1.4,MacIntel,60.0240096,,,,,,,,,,,,,,,,,,,,,,,,,,,,,,,,,,,,,,,,,,,,,,,,,,,,,,,,,,,,,,,,,,,,,,,,,,,,,,,,,,,,,,,,,
,,8,4.306,8,4.306,0,67,67,51,1,168,cactus,flower,,90451,001,2022-04-25_10h02.58.575,SPAMnetsValid,2021.1.4,MacIntel,60.0240096,,,,,,,,,,,,,,,,,,,,,,,,,,,,,,,,,,,,,,,,,,,,,,,,,,,,,,,,,,,,,,,,,,,,,,,,,,,,,,,,,,,,,,,,,
,,1,1.839,1,1.839,0,68,68,36,1,161,kitchen,pretzel,,90451,001,2022-04-25_10h02.58.575,SPAMnetsValid,2021.1.4,MacIntel,60.0240096,,,,,,,,,,,,,,,,,,,,,,,,,,,,,,,,,,,,,,,,,,,,,,,,,,,,,,,,,,,,,,,,,,,,,,,,,,,,,,,,,,,,,,,,,
,,9,1.857,9,1.857,0,69,69,72,1,181,carrot,kitchen,,90451,001,2022-04-25_10h02.58.575,SPAMnetsValid,2021.1.4,MacIntel,60.0240096,,,,,,,,,,,,,,,,,,,,,,,,,,,,,,,,,,,,,,,,,,,,,,,,,,,,,,,,,,,,,,,,,,,,,,,,,,,,,,,,,,,,,,,,,
,,1,2.39,1,2.39,0,70,70,59,1,164,cookie,garden,,90451,001,2022-04-25_10h02.58.575,SPAMnetsValid,2021.1.4,MacIntel,60.0240096,,,,,,,,,,,,,,,,,,,,,,,,,,,,,,,,,,,,,,,,,,,,,,,,,,,,,,,,,,,,,,,,,,,,,,,,,,,,,,,,,,,,,,,,,
,,9,1.921,9,1.921,0,71,71,52,1,110,chocolate,cookie,,90451,001,2022-04-25_10h02.58.575,SPAMnetsValid,2021.1.4,MacIntel,60.0240096,,,,,,,,,,,,,,,,,,,,,,,,,,,,,,,,,,,,,,,,,,,,,,,,,,,,,,,,,,,,,,,,,,,,,,,,,,,,,,,,,,,,,,,,,
,,2,5.457,2,5.457,0,72,72,58,1,144,cake,garden,,90451,001,2022-04-25_10h02.58.575,SPAMnetsValid,2021.1.4,MacIntel,60.0240096,,,,,,,,,,,,,,,,,,,,,,,,,,,,,,,,,,,,,,,,,,,,,,,,,,,,,,,,,,,,,,,,,,,,,,,,,,,,,,,,,,,,,,,,,
,,2,8.341,2,8.341,0,73,73,3,1,129,cactus,refrigerator,,90451,001,2022-04-25_10h02.58.575,SPAMnetsValid,2021.1.4,MacIntel,60.0240096,,,,,,,,,,,,,,,,,,,,,,,,,,,,,,,,,,,,,,,,,,,,,,,,,,,,,,,,,,,,,,,,,,,,,,,,,,,,,,,,,,,,,,,,,
,,4,5.724,4,5.724,0,74,74,66,1,150,microwave,refrigerator,,90451,001,2022-04-25_10h02.58.575,SPAMnetsValid,2021.1.4,MacIntel,60.0240096,,,,,,,,,,,,,,,,,,,,,,,,,,,,,,,,,,,,,,,,,,,,,,,,,,,,,,,,,,,,,,,,,,,,,,,,,,,,,,,,,,,,,,,,,
,,9,1.808,9,1.808,0,75,75,76,1,102,chocolate,refrigerator,,90451,001,2022-04-25_10h02.58.575,SPAMnetsValid,2021.1.4,MacIntel,60.0240096,,,,,,,,,,,,,,,,,,,,,,,,,,,,,,,,,,,,,,,,,,,,,,,,,,,,,,,,,,,,,,,,,,,,,,,,,,,,,,,,,,,,,,,,,
,,1,2.808,1,2.808,0,76,76,32,1,182,flower,refrigerator,,90451,001,2022-04-25_10h02.58.575,SPAMnetsValid,2021.1.4,MacIntel,60.0240096,,,,,,,,,,,,,,,,,,,,,,,,,,,,,,,,,,,,,,,,,,,,,,,,,,,,,,,,,,,,,,,,,,,,,,,,,,,,,,,,,,,,,,,,,
,,1,4.538,1,4.538,0,77,77,68,1,180,tree,yogurt,,90451,001,2022-04-25_10h02.58.575,SPAMnetsValid,2021.1.4,MacIntel,60.0240096,,,,,,,,,,,,,,,,,,,,,,,,,,,,,,,,,,,,,,,,,,,,,,,,,,,,,,,,,,,,,,,,,,,,,,,,,,,,,,,,,,,,,,,,,
,,1,1.755,1,1.755,0,78,78,4,1,109,broom,strawberry,,90451,001,2022-04-25_10h02.58.575,SPAMnetsValid,2021.1.4,MacIntel,60.0240096,,,,,,,,,,,,,,,,,,,,,,,,,,,,,,,,,,,,,,,,,,,,,,,,,,,,,,,,,,,,,,,,,,,,,,,,,,,,,,,,,,,,,,,,,
,,1,1.704,1,1.704,0,79,79,20,1,149,broom,tomato,,90451,001,2022-04-25_10h02.58.575,SPAMnetsValid,2021.1.4,MacIntel,60.0240096,,,,,,,,,,,,,,,,,,,,,,,,,,,,,,,,,,,,,,,,,,,,,,,,,,,,,,,,,,,,,,,,,,,,,,,,,,,,,,,,,,,,,,,,,
,,7,3.037,7,3.037,0,80,80,93,1,134,carrot,flower,,90451,001,2022-04-25_10h02.58.575,SPAMnetsValid,2021.1.4,MacIntel,60.0240096,,,,,,,,,,,,,,,,,,,,,,,,,,,,,,,,,,,,,,,,,,,,,,,,,,,,,,,,,,,,,,,,,,,,,,,,,,,,,,,,,,,,,,,,,
,,7,1.973,7,1.973,0,81,81,41,1,175,melon,onion,,90451,001,2022-04-25_10h02.58.575,SPAMnetsValid,2021.1.4,MacIntel,60.0240096,,,,,,,,,,,,,,,,,,,,,,,,,,,,,,,,,,,,,,,,,,,,,,,,,,,,,,,,,,,,,,,,,,,,,,,,,,,,,,,,,,,,,,,,,
,,7,6.571,7,6.571,0,82,82,73,1,135,carrot,oven,,90451,001,2022-04-25_10h02.58.575,SPAMnetsValid,2021.1.4,MacIntel,60.0240096,,,,,,,,,,,,,,,,,,,,,,,,,,,,,,,,,,,,,,,,,,,,,,,,,,,,,,,,,,,,,,,,,,,,,,,,,,,,,,,,,,,,,,,,,
,,1,2.925,1,2.925,0,83,83,62,1,189,onion,tree,,90451,001,2022-04-25_10h02.58.575,SPAMnetsValid,2021.1.4,MacIntel,60.0240096,,,,,,,,,,,,,,,,,,,,,,,,,,,,,,,,,,,,,,,,,,,,,,,,,,,,,,,,,,,,,,,,,,,,,,,,,,,,,,,,,,,,,,,,,
,,6,3.44,6,3.44,0,84,84,90,1,190,microwave,strawberry,,90451,001,2022-04-25_10h02.58.575,SPAMnetsValid,2021.1.4,MacIntel,60.0240096,,,,,,,,,,,,,,,,,,,,,,,,,,,,,,,,,,,,,,,,,,,,,,,,,,,,,,,,,,,,,,,,,,,,,,,,,,,,,,,,,,,,,,,,,
,,8,7.625,8,7.625,0,85,85,83,1,100,garden,tomato,,90451,001,2022-04-25_10h02.58.575,SPAMnetsValid,2021.1.4,MacIntel,60.0240096,,,,,,,,,,,,,,,,,,,,,,,,,,,,,,,,,,,,,,,,,,,,,,,,,,,,,,,,,,,,,,,,,,,,,,,,,,,,,,,,,,,,,,,,,
,,8,1.838,8,1.838,0,86,86,47,1,167,carrot,garden,,90451,001,2022-04-25_10h02.58.575,SPAMnetsValid,2021.1.4,MacIntel,60.0240096,,,,,,,,,,,,,,,,,,,,,,,,,,,,,,,,,,,,,,,,,,,,,,,,,,,,,,,,,,,,,,,,,,,,,,,,,,,,,,,,,,,,,,,,,
,,8,4.92,8,4.92,0,87,87,64,1,157,refrigerator,rose,,90451,001,2022-04-25_10h02.58.575,SPAMnetsValid,2021.1.4,MacIntel,60.0240096,,,,,,,,,,,,,,,,,,,,,,,,,,,,,,,,,,,,,,,,,,,,,,,,,,,,,,,,,,,,,,,,,,,,,,,,,,,,,,,,,,,,,,,,,
,,1,2.088,1,2.088,0,88,88,34,1,153,carrot,pretzel,,90451,001,2022-04-25_10h02.58.575,SPAMnetsValid,2021.1.4,MacIntel,60.0240096,,,,,,,,,,,,,,,,,,,,,,,,,,,,,,,,,,,,,,,,,,,,,,,,,,,,,,,,,,,,,,,,,,,,,,,,,,,,,,,,,,,,,,,,,
,,4,2.286,4,2.286,0,89,89,69,1,124,oven,refrigerator,,90451,001,2022-04-25_10h02.58.575,SPAMnetsValid,2021.1.4,MacIntel,60.0240096,,,,,,,,,,,,,,,,,,,,,,,,,,,,,,,,,,,,,,,,,,,,,,,,,,,,,,,,,,,,,,,,,,,,,,,,,,,,,,,,,,,,,,,,,
,,7,4.241,7,4.241,0,90,90,33,1,131,cactus,garden,,90451,001,2022-04-25_10h02.58.575,SPAMnetsValid,2021.1.4,MacIntel,60.0240096,,,,,,,,,,,,,,,,,,,,,,,,,,,,,,,,,,,,,,,,,,,,,,,,,,,,,,,,,,,,,,,,,,,,,,,,,,,,,,,,,,,,,,,,,
,,8,2.188,8,2.188,0,91,91,43,1,185,cactus,rose,,90451,001,2022-04-25_10h02.58.575,SPAMnetsValid,2021.1.4,MacIntel,60.0240096,,,,,,,,,,,,,,,,,,,,,,,,,,,,,,,,,,,,,,,,,,,,,,,,,,,,,,,,,,,,,,,,,,,,,,,,,,,,,,,,,,,,,,,,,
,,7,2.243,7,2.243,0,92,92,50,1,126,kitchen,tree,,90451,001,2022-04-25_10h02.58.575,SPAMnetsValid,2021.1.4,MacIntel,60.0240096,,,,,,,,,,,,,,,,,,,,,,,,,,,,,,,,,,,,,,,,,,,,,,,,,,,,,,,,,,,,,,,,,,,,,,,,,,,,,,,,,,,,,,,,,
,,7,3.138,7,3.138,0,93,93,87,1,114,cookie,strawberry,,90451,001,2022-04-25_10h02.58.575,SPAMnetsValid,2021.1.4,MacIntel,60.0240096,,,,,,,,,,,,,,,,,,,,,,,,,,,,,,,,,,,,,,,,,,,,,,,,,,,,,,,,,,,,,,,,,,,,,,,,,,,,,,,,,,,,,,,,,
,,8,2.491,8,2.491,0,94,94,1,1,173,kitchen,tomato,,90451,001,2022-04-25_10h02.58.575,SPAMnetsValid,2021.1.4,MacIntel,60.0240096,,,,,,,,,,,,,,,,,,,,,,,,,,,,,,,,,,,,,,,,,,,,,,,,,,,,,,,,,,,,,,,,,,,,,,,,,,,,,,,,,,,,,,,,,
,,1,3.908,1,3.908,0,95,95,6,1,151,microwave,onion,,90451,001,2022-04-25_10h02.58.575,SPAMnetsValid,2021.1.4,MacIntel,60.0240096,,,,,,,,,,,,,,,,,,,,,,,,,,,,,,,,,,,,,,,,,,,,,,,,,,,,,,,,,,,,,,,,,,,,,,,,,,,,,,,,,,,,,,,,,
,,8,3.572,8,3.572,0,96,96,56,1,113,refrigerator,strawberry,,90451,001,2022-04-25_10h02.58.575,SPAMnetsValid,2021.1.4,MacIntel,60.0240096,,,,,,,,,,,,,,,,,,,,,,,,,,,,,,,,,,,,,,,,,,,,,,,,,,,,,,,,,,,,,,,,,,,,,,,,,,,,,,,,,,,,,,,,,
,,,,,,,,,,,,,,,90451,001,2022-04-25_10h02.58.575,SPAMnetsValid,2021.1.4,MacIntel,60.0240096,0,0,0,0,1,,,,,,,,,,,,,,,,,,,,,,,,,,,,,,,,,,,,,,,,,,,,,,,,,,,,,,,,,,,,,,,,,,,,,,,,,,,,,,,,,,,,
,,,,,,,,,,,,,,,90451,001,2022-04-25_10h02.58.575,SPAMnetsValid,2021.1.4,MacIntel,60.0240096,,,,,,0,0,0,1,1,0,1,,,,,,,,,,,,,,,,,,,,,,,,,,,,,,,,,,,,,,,,,,,,,,,,,,,,,,,,,,,,,,,,,,,,,,,,,,,,,
,,,,8,14.914,,,,,,69,carrot,refrigerator,,90451,001,2022-04-25_10h02.58.575,SPAMnetsValid,2021.1.4,MacIntel,60.0240096,,,,,,,,,,,,,8,14.914,0,0,0,75,1,,,,,,,,,,,,,,,,,,,,,,,,,,,,,,,,,,,,,,,,,,,,,,,,,,,,,,,,,,,,,,,,,,,,,,
,,,,1,1.87,,,,,,21,cake,onion,,90451,001,2022-04-25_10h02.58.575,SPAMnetsValid,2021.1.4,MacIntel,60.0240096,,,,,,,,,,,,,1,1.87,0,1,1,63,1,,,,,,,,,,,,,,,,,,,,,,,,,,,,,,,,,,,,,,,,,,,,,,,,,,,,,,,,,,,,,,,,,,,,,,
,,,,7,6.125,,,,,,81,pretzel,yogurt,,90451,001,2022-04-25_10h02.58.575,SPAMnetsValid,2021.1.4,MacIntel,60.0240096,,,,,,,,,,,,,7,6.125,0,2,2,50,1,,,,,,,,,,,,,,,,,,,,,,,,,,,,,,,,,,,,,,,,,,,,,,,,,,,,,,,,,,,,,,,,,,,,,,
,,,,8,3.09,,,,,,66,melon,yogurt,,90451,001,2022-04-25_10h02.58.575,SPAMnetsValid,2021.1.4,MacIntel,60.0240096,,,,,,,,,,,,,8,3.09,0,3,3,48,1,,,,,,,,,,,,,,,,,,,,,,,,,,,,,,,,,,,,,,,,,,,,,,,,,,,,,,,,,,,,,,,,,,,,,,
,,,,8,2.09,,,,,,22,kitchen,strawberry,,90451,001,2022-04-25_10h02.58.575,SPAMnetsValid,2021.1.4,MacIntel,60.0240096,,,,,,,,,,,,,8,2.09,0,4,4,2,1,,,,,,,,,,,,,,,,,,,,,,,,,,,,,,,,,,,,,,,,,,,,,,,,,,,,,,,,,,,,,,,,,,,,,,
,,,,8,2.121,,,,,,82,cake,kitchen,,90451,001,2022-04-25_10h02.58.575,SPAMnetsValid,2021.1.4,MacIntel,60.0240096,,,,,,,,,,,,,8,2.121,0,5,5,96,1,,,,,,,,,,,,,,,,,,,,,,,,,,,,,,,,,,,,,,,,,,,,,,,,,,,,,,,,,,,,,,,,,,,,,,
,,,,8,4.088,,,,,,93,kitchen,oven,,90451,001,2022-04-25_10h02.58.575,SPAMnetsValid,2021.1.4,MacIntel,60.0240096,,,,,,,,,,,,,8,4.088,0,6,6,82,1,,,,,,,,,,,,,,,,,,,,,,,,,,,,,,,,,,,,,,,,,,,,,,,,,,,,,,,,,,,,,,,,,,,,,,
,,,,9,2.207,,,,,,18,onion,refrigerator,,90451,001,2022-04-25_10h02.58.575,SPAMnetsValid,2021.1.4,MacIntel,60.0240096,,,,,,,,,,,,,9,2.207,0,7,7,62,1,,,,,,,,,,,,,,,,,,,,,,,,,,,,,,,,,,,,,,,,,,,,,,,,,,,,,,,,,,,,,,,,,,,,,,
,,,,2,4.506,,,,,,64,chocolate,garden,,90451,001,2022-04-25_10h02.58.575,SPAMnetsValid,2021.1.4,MacIntel,60.0240096,,,,,,,,,,,,,2,4.506,0,8,8,14,1,,,,,,,,,,,,,,,,,,,,,,,,,,,,,,,,,,,,,,,,,,,,,,,,,,,,,,,,,,,,,,,,,,,,,,
,,,,4,5.705,,,,,,32,cake,microwave,,90451,001,2022-04-25_10h02.58.575,SPAMnetsValid,2021.1.4,MacIntel,60.0240096,,,,,,,,,,,,,4,5.705,0,9,9,33,1,,,,,,,,,,,,,,,,,,,,,,,,,,,,,,,,,,,,,,,,,,,,,,,,,,,,,,,,,,,,,,,,,,,,,,
,,,,9,1.538,,,,,,191,cake,cake,CHECK,90451,001,2022-04-25_10h02.58.575,SPAMnetsValid,2021.1.4,MacIntel,60.0240096,,,,,,,,,,,,,9,1.538,0,10,10,10,1,,,,,,,,,,,,,,,,,,,,,,,,,,,,,,,,,,,,,,,,,,,,,,,,,,,,,,,,,,,,,,,,,,,,,,
,,,,1,1.475,,,,,,13,broom,yogurt,,90451,001,2022-04-25_10h02.58.575,SPAMnetsValid,2021.1.4,MacIntel,60.0240096,,,,,,,,,,,,,1,1.475,0,11,11,5,1,,,,,,,,,,,,,,,,,,,,,,,,,,,,,,,,,,,,,,,,,,,,,,,,,,,,,,,,,,,,,,,,,,,,,,
,,,,3,3.554,,,,,,50,carrot,rose,,90451,001,2022-04-25_10h02.58.575,SPAMnetsValid,2021.1.4,MacIntel,60.0240096,,,,,,,,,,,,,3,3.554,0,12,12,73,1,,,,,,,,,,,,,,,,,,,,,,,,,,,,,,,,,,,,,,,,,,,,,,,,,,,,,,,,,,,,,,,,,,,,,,
,,,,7,1.992,,,,,,12,cookie,yogurt,,90451,001,2022-04-25_10h02.58.575,SPAMnetsValid,2021.1.4,MacIntel,60.0240096,,,,,,,,,,,,,7,1.992,0,13,13,36,1,,,,,,,,,,,,,,,,,,,,,,,,,,,,,,,,,,,,,,,,,,,,,,,,,,,,,,,,,,,,,,,,,,,,,,
,,,,1,1.686,,,,,,90,cactus,cake,,90451,001,2022-04-25_10h02.58.575,SPAMnetsValid,2021.1.4,MacIntel,60.0240096,,,,,,,,,,,,,1,1.686,0,14,14,85,1,,,,,,,,,,,,,,,,,,,,,,,,,,,,,,,,,,,,,,,,,,,,,,,,,,,,,,,,,,,,,,,,,,,,,,
,,,,2,9.441,,,,,,43,chocolate,tomato,,90451,001,2022-04-25_10h02.58.575,SPAMnetsValid,2021.1.4,MacIntel,60.0240096,,,,,,,,,,,,,2,9.441,0,15,15,8,1,,,,,,,,,,,,,,,,,,,,,,,,,,,,,,,,,,,,,,,,,,,,,,,,,,,,,,,,,,,,,,,,,,,,,,
,,,,1,2.87,,,,,,8,broom,melon,,90451,001,2022-04-25_10h02.58.575,SPAMnetsValid,2021.1.4,MacIntel,60.0240096,,,,,,,,,,,,,1,2.87,0,16,16,59,1,,,,,,,,,,,,,,,,,,,,,,,,,,,,,,,,,,,,,,,,,,,,,,,,,,,,,,,,,,,,,,,,,,,,,,
,,,,1,2.14,,,,,,40,broom,cake,,90451,001,2022-04-25_10h02.58.575,SPAMnetsValid,2021.1.4,MacIntel,60.0240096,,,,,,,,,,,,,1,2.14,0,17,17,32,1,,,,,,,,,,,,,,,,,,,,,,,,,,,,,,,,,,,,,,,,,,,,,,,,,,,,,,,,,,,,,,,,,,,,,,
,,,,8,2.686,,,,,,68,flower,tomato,,90451,001,2022-04-25_10h02.58.575,SPAMnetsValid,2021.1.4,MacIntel,60.0240096,,,,,,,,,,,,,8,2.686,0,18,18,94,1,,,,,,,,,,,,,,,,,,,,,,,,,,,,,,,,,,,,,,,,,,,,,,,,,,,,,,,,,,,,,,,,,,,,,,
,,,,1,2.953,,,,,,60,cactus,onion,,90451,001,2022-04-25_10h02.58.575,SPAMnetsValid,2021.1.4,MacIntel,60.0240096,,,,,,,,,,,,,1,2.953,0,19,19,81,1,,,,,,,,,,,,,,,,,,,,,,,,,,,,,,,,,,,,,,,,,,,,,,,,,,,,,,,,,,,,,,,,,,,,,,
,,,,3,5.554,,,,,,46,garden,yogurt,,90451,001,2022-04-25_10h02.58.575,SPAMnetsValid,2021.1.4,MacIntel,60.0240096,,,,,,,,,,,,,3,5.554,0,20,20,65,1,,,,,,,,,,,,,,,,,,,,,,,,,,,,,,,,,,,,,,,,,,,,,,,,,,,,,,,,,,,,,,,,,,,,,,
,,,,7,6.706,,,,,,77,refrigerator,yogurt,,90451,001,2022-04-25_10h02.58.575,SPAMnetsValid,2021.1.4,MacIntel,60.0240096,,,,,,,,,,,,,7,6.706,0,21,21,42,1,,,,,,,,,,,,,,,,,,,,,,,,,,,,,,,,,,,,,,,,,,,,,,,,,,,,,,,,,,,,,,,,,,,,,,
,,,,1,2.119,,,,,,33,oven,yogurt,,90451,001,2022-04-25_10h02.58.575,SPAMnetsValid,2021.1.4,MacIntel,60.0240096,,,,,,,,,,,,,1,2.119,0,22,22,31,1,,,,,,,,,,,,,,,,,,,,,,,,,,,,,,,,,,,,,,,,,,,,,,,,,,,,,,,,,,,,,,,,,,,,,,
,,,,2,2.29,,,,,,48,flower,oven,,90451,001,2022-04-25_10h02.58.575,SPAMnetsValid,2021.1.4,MacIntel,60.0240096,,,,,,,,,,,,,2,2.29,0,23,23,15,1,,,,,,,,,,,,,,,,,,,,,,,,,,,,,,,,,,,,,,,,,,,,,,,,,,,,,,,,,,,,,,,,,,,,,,
,,,,7,8.541,,,,,,52,carrot,tomato,,90451,001,2022-04-25_10h02.58.575,SPAMnetsValid,2021.1.4,MacIntel,60.0240096,,,,,,,,,,,,,7,8.541,0,24,24,95,1,,,,,,,,,,,,,,,,,,,,,,,,,,,,,,,,,,,,,,,,,,,,,,,,,,,,,,,,,,,,,,,,,,,,,,
,,,,8,2.74,,,,,,63,cake,cookie,,90451,001,2022-04-25_10h02.58.575,SPAMnetsValid,2021.1.4,MacIntel,60.0240096,,,,,,,,,,,,,8,2.74,0,25,25,93,1,,,,,,,,,,,,,,,,,,,,,,,,,,,,,,,,,,,,,,,,,,,,,,,,,,,,,,,,,,,,,,,,,,,,,,
,,,,9,3.441,,,,,,6,garden,onion,,90451,001,2022-04-25_10h02.58.575,SPAMnetsValid,2021.1.4,MacIntel,60.0240096,,,,,,,,,,,,,9,3.441,0,26,26,83,1,,,,,,,,,,,,,,,,,,,,,,,,,,,,,,,,,,,,,,,,,,,,,,,,,,,,,,,,,,,,,,,,,,,,,,
,,,,2,1.854,,,,,,27,cactus,cookie,,90451,001,2022-04-25_10h02.58.575,SPAMnetsValid,2021.1.4,MacIntel,60.0240096,,,,,,,,,,,,,2,1.854,0,27,27,17,1,,,,,,,,,,,,,,,,,,,,,,,,,,,,,,,,,,,,,,,,,,,,,,,,,,,,,,,,,,,,,,,,,,,,,,
,,,,5,1.357,,,,,,89,chocolate,rose,,90451,001,2022-04-25_10h02.58.575,SPAMnetsValid,2021.1.4,MacIntel,60.0240096,,,,,,,,,,,,,5,1.357,0,28,28,60,1,,,,,,,,,,,,,,,,,,,,,,,,,,,,,,,,,,,,,,,,,,,,,,,,,,,,,,,,,,,,,,,,,,,,,,
,,,,1,2.268,,,,,,14,broom,cookie,,90451,001,2022-04-25_10h02.58.575,SPAMnetsValid,2021.1.4,MacIntel,60.0240096,,,,,,,,,,,,,1,2.268,0,29,29,16,1,,,,,,,,,,,,,,,,,,,,,,,,,,,,,,,,,,,,,,,,,,,,,,,,,,,,,,,,,,,,,,,,,,,,,,
,,,,2,3.757,,,,,,39,melon,pretzel,,90451,001,2022-04-25_10h02.58.575,SPAMnetsValid,2021.1.4,MacIntel,60.0240096,,,,,,,,,,,,,2,3.757,0,30,30,20,1,,,,,,,,,,,,,,,,,,,,,,,,,,,,,,,,,,,,,,,,,,,,,,,,,,,,,,,,,,,,,,,,,,,,,,
,,,,7,3.054,,,,,,15,onion,oven,,90451,001,2022-04-25_10h02.58.575,SPAMnetsValid,2021.1.4,MacIntel,60.0240096,,,,,,,,,,,,,7,3.054,0,31,31,39,1,,,,,,,,,,,,,,,,,,,,,,,,,,,,,,,,,,,,,,,,,,,,,,,,,,,,,,,,,,,,,,,,,,,,,,
,,,,9,2.739,,,,,,79,garden,strawberry,,90451,001,2022-04-25_10h02.58.575,SPAMnetsValid,2021.1.4,MacIntel,60.0240096,,,,,,,,,,,,,9,2.739,0,32,32,87,1,,,,,,,,,,,,,,,,,,,,,,,,,,,,,,,,,,,,,,,,,,,,,,,,,,,,,,,,,,,,,,,,,,,,,,
,,,,9,2.305,,,,,,192,microwave,microwave,CHECK,90451,001,2022-04-25_10h02.58.575,SPAMnetsValid,2021.1.4,MacIntel,60.0240096,,,,,,,,,,,,,9,2.305,0,33,33,53,1,,,,,,,,,,,,,,,,,,,,,,,,,,,,,,,,,,,,,,,,,,,,,,,,,,,,,,,,,,,,,,,,,,,,,,
,,,,7,2.059,,,,,,20,rose,tree,,90451,001,2022-04-25_10h02.58.575,SPAMnetsValid,2021.1.4,MacIntel,60.0240096,,,,,,,,,,,,,7,2.059,0,34,34,66,1,,,,,,,,,,,,,,,,,,,,,,,,,,,,,,,,,,,,,,,,,,,,,,,,,,,,,,,,,,,,,,,,,,,,,,
,,,,2,4.521,,,,,,38,pretzel,refrigerator,,90451,001,2022-04-25_10h02.58.575,SPAMnetsValid,2021.1.4,MacIntel,60.0240096,,,,,,,,,,,,,2,4.521,0,35,35,71,1,,,,,,,,,,,,,,,,,,,,,,,,,,,,,,,,,,,,,,,,,,,,,,,,,,,,,,,,,,,,,,,,,,,,,,
,,,,9,1.908,,,,,,2,kitchen,onion,,90451,001,2022-04-25_10h02.58.575,SPAMnetsValid,2021.1.4,MacIntel,60.0240096,,,,,,,,,,,,,9,1.908,0,36,36,91,1,,,,,,,,,,,,,,,,,,,,,,,,,,,,,,,,,,,,,,,,,,,,,,,,,,,,,,,,,,,,,,,,,,,,,,
,,,,3,2.721,,,,,,24,cookie,tomato,,90451,001,2022-04-25_10h02.58.575,SPAMnetsValid,2021.1.4,MacIntel,60.0240096,,,,,,,,,,,,,3,2.721,0,37,37,68,1,,,,,,,,,,,,,,,,,,,,,,,,,,,,,,,,,,,,,,,,,,,,,,,,,,,,,,,,,,,,,,,,,,,,,,
,,,,1,2.161,,,,,,5,oven,tree,,90451,001,2022-04-25_10h02.58.575,SPAMnetsValid,2021.1.4,MacIntel,60.0240096,,,,,,,,,,,,,1,2.161,0,38,38,70,1,,,,,,,,,,,,,,,,,,,,,,,,,,,,,,,,,,,,,,,,,,,,,,,,,,,,,,,,,,,,,,,,,,,,,,
,,,,7,4.055,,,,,,30,cookie,pretzel,,90451,001,2022-04-25_10h02.58.575,SPAMnetsValid,2021.1.4,MacIntel,60.0240096,,,,,,,,,,,,,7,4.055,0,39,39,78,1,,,,,,,,,,,,,,,,,,,,,,,,,,,,,,,,,,,,,,,,,,,,,,,,,,,,,,,,,,,,,,,,,,,,,,
,,,,7,5.709,,,,,,55,tomato,tree,,90451,001,2022-04-25_10h02.58.575,SPAMnetsValid,2021.1.4,MacIntel,60.0240096,,,,,,,,,,,,,7,5.709,0,40,40,35,1,,,,,,,,,,,,,,,,,,,,,,,,,,,,,,,,,,,,,,,,,,,,,,,,,,,,,,,,,,,,,,,,,,,,,,
,,,,1,2.757,,,,,,53,garden,pretzel,,90451,001,2022-04-25_10h02.58.575,SPAMnetsValid,2021.1.4,MacIntel,60.0240096,,,,,,,,,,,,,1,2.757,0,41,41,0,1,,,,,,,,,,,,,,,,,,,,,,,,,,,,,,,,,,,,,,,,,,,,,,,,,,,,,,,,,,,,,,,,,,,,,,
,,,,7,2.121,,,,,,87,carrot,yogurt,,90451,001,2022-04-25_10h02.58.575,SPAMnetsValid,2021.1.4,MacIntel,60.0240096,,,,,,,,,,,,,7,2.121,0,42,42,6,1,,,,,,,,,,,,,,,,,,,,,,,,,,,,,,,,,,,,,,,,,,,,,,,,,,,,,,,,,,,,,,,,,,,,,,
,,,,1,7.041,,,,,,37,garden,refrigerator,,90451,001,2022-04-25_10h02.58.575,SPAMnetsValid,2021.1.4,MacIntel,60.0240096,,,,,,,,,,,,,1,7.041,0,43,43,11,1,,,,,,,,,,,,,,,,,,,,,,,,,,,,,,,,,,,,,,,,,,,,,,,,,,,,,,,,,,,,,,,,,,,,,,
,,,,9,2.157,,,,,,3,cake,oven,,90451,001,2022-04-25_10h02.58.575,SPAMnetsValid,2021.1.4,MacIntel,60.0240096,,,,,,,,,,,,,9,2.157,0,44,44,30,1,,,,,,,,,,,,,,,,,,,,,,,,,,,,,,,,,,,,,,,,,,,,,,,,,,,,,,,,,,,,,,,,,,,,,,
,,,,7,4.337,,,,,,67,flower,yogurt,,90451,001,2022-04-25_10h02.58.575,SPAMnetsValid,2021.1.4,MacIntel,60.0240096,,,,,,,,,,,,,7,4.337,0,45,45,12,1,,,,,,,,,,,,,,,,,,,,,,,,,,,,,,,,,,,,,,,,,,,,,,,,,,,,,,,,,,,,,,,,,,,,,,
,,,,2,4.89,,,,,,51,onion,strawberry,,90451,001,2022-04-25_10h02.58.575,SPAMnetsValid,2021.1.4,MacIntel,60.0240096,,,,,,,,,,,,,2,4.89,0,46,46,86,1,,,,,,,,,,,,,,,,,,,,,,,,,,,,,,,,,,,,,,,,,,,,,,,,,,,,,,,,,,,,,,,,,,,,,,
,,,,1,25.754,,,,,,16,chocolate,flower,,90451,001,2022-04-25_10h02.58.575,SPAMnetsValid,2021.1.4,MacIntel,60.0240096,,,,,,,,,,,,,1,25.754,0,47,47,22,1,,,,,,,,,,,,,,,,,,,,,,,,,,,,,,,,,,,,,,,,,,,,,,,,,,,,,,,,,,,,,,,,,,,,,,
,,,,3,3.388,,,,,,11,refrigerator,tree,,90451,001,2022-04-25_10h02.58.575,SPAMnetsValid,2021.1.4,MacIntel,60.0240096,,,,,,,,,,,,,3,3.388,0,48,48,43,1,,,,,,,,,,,,,,,,,,,,,,,,,,,,,,,,,,,,,,,,,,,,,,,,,,,,,,,,,,,,,,,,,,,,,,
,,,,9,2.675,,,,,,94,kitchen,microwave,,90451,001,2022-04-25_10h02.58.575,SPAMnetsValid,2021.1.4,MacIntel,60.0240096,,,,,,,,,,,,,9,2.675,0,49,49,58,1,,,,,,,,,,,,,,,,,,,,,,,,,,,,,,,,,,,,,,,,,,,,,,,,,,,,,,,,,,,,,,,,,,,,,,
,,,,3,5.104,,,,,,88,cactus,melon,,90451,001,2022-04-25_10h02.58.575,SPAMnetsValid,2021.1.4,MacIntel,60.0240096,,,,,,,,,,,,,3,5.104,0,50,50,38,1,,,,,,,,,,,,,,,,,,,,,,,,,,,,,,,,,,,,,,,,,,,,,,,,,,,,,,,,,,,,,,,,,,,,,,
,,,,2,2.474,,,,,,73,broom,chocolate,,90451,001,2022-04-25_10h02.58.575,SPAMnetsValid,2021.1.4,MacIntel,60.0240096,,,,,,,,,,,,,2,2.474,0,51,51,47,1,,,,,,,,,,,,,,,,,,,,,,,,,,,,,,,,,,,,,,,,,,,,,,,,,,,,,,,,,,,,,,,,,,,,,,
,,,,6,4.907,,,,,,45,onion,pretzel,,90451,001,2022-04-25_10h02.58.575,SPAMnetsValid,2021.1.4,MacIntel,60.0240096,,,,,,,,,,,,,6,4.907,0,52,52,69,1,,,,,,,,,,,,,,,,,,,,,,,,,,,,,,,,,,,,,,,,,,,,,,,,,,,,,,,,,,,,,,,,,,,,,,
,,,,1,3.172,,,,,,72,broom,onion,,90451,001,2022-04-25_10h02.58.575,SPAMnetsValid,2021.1.4,MacIntel,60.0240096,,,,,,,,,,,,,1,3.172,0,53,53,27,1,,,,,,,,,,,,,,,,,,,,,,,,,,,,,,,,,,,,,,,,,,,,,,,,,,,,,,,,,,,,,,,,,,,,,,
,,,,2,3.923,,,,,,28,cake,melon,,90451,001,2022-04-25_10h02.58.575,SPAMnetsValid,2021.1.4,MacIntel,60.0240096,,,,,,,,,,,,,2,3.923,0,54,54,54,1,,,,,,,,,,,,,,,,,,,,,,,,,,,,,,,,,,,,,,,,,,,,,,,,,,,,,,,,,,,,,,,,,,,,,,
,,,,8,3.276,,,,,,49,flower,strawberry,,90451,001,2022-04-25_10h02.58.575,SPAMnetsValid,2021.1.4,MacIntel,60.0240096,,,,,,,,,,,,,8,3.276,0,55,55,3,1,,,,,,,,,,,,,,,,,,,,,,,,,,,,,,,,,,,,,,,,,,,,,,,,,,,,,,,,,,,,,,,,,,,,,,
,,,,9,1.775,,,,,,9,kitchen,refrigerator,,90451,001,2022-04-25_10h02.58.575,SPAMnetsValid,2021.1.4,MacIntel,60.0240096,,,,,,,,,,,,,9,1.775,0,56,56,64,1,,,,,,,,,,,,,,,,,,,,,,,,,,,,,,,,,,,,,,,,,,,,,,,,,,,,,,,,,,,,,,,,,,,,,,
,,,,2,3.022,,,,,,86,oven,rose,,90451,001,2022-04-25_10h02.58.575,SPAMnetsValid,2021.1.4,MacIntel,60.0240096,,,,,,,,,,,,,2,3.022,0,57,57,79,1,,,,,,,,,,,,,,,,,,,,,,,,,,,,,,,,,,,,,,,,,,,,,,,,,,,,,,,,,,,,,,,,,,,,,,
,,,,2,1.958,,,,,,56,cactus,tree,,90451,001,2022-04-25_10h02.58.575,SPAMnetsValid,2021.1.4,MacIntel,60.0240096,,,,,,,,,,,,,2,1.958,0,58,58,21,1,,,,,,,,,,,,,,,,,,,,,,,,,,,,,,,,,,,,,,,,,,,,,,,,,,,,,,,,,,,,,,,,,,,,,,
,,,,3,4.07,,,,,,70,chocolate,onion,,90451,001,2022-04-25_10h02.58.575,SPAMnetsValid,2021.1.4,MacIntel,60.0240096,,,,,,,,,,,,,3,4.07,0,59,59,74,1,,,,,,,,,,,,,,,,,,,,,,,,,,,,,,,,,,,,,,,,,,,,,,,,,,,,,,,,,,,,,,,,,,,,,,
,,,,1,4.191,,,,,,35,flower,pretzel,,90451,001,2022-04-25_10h02.58.575,SPAMnetsValid,2021.1.4,MacIntel,60.0240096,,,,,,,,,,,,,1,4.191,0,60,60,26,1,,,,,,,,,,,,,,,,,,,,,,,,,,,,,,,,,,,,,,,,,,,,,,,,,,,,,,,,,,,,,,,,,,,,,,
,,,,2,3.141,,,,,,58,garden,oven,,90451,001,2022-04-25_10h02.58.575,SPAMnetsValid,2021.1.4,MacIntel,60.0240096,,,,,,,,,,,,,2,3.141,0,61,61,37,1,,,,,,,,,,,,,,,,,,,,,,,,,,,,,,,,,,,,,,,,,,,,,,,,,,,,,,,,,,,,,,,,,,,,,,
,,,,1,2.073,,,,,,91,microwave,rose,,90451,001,2022-04-25_10h02.58.575,SPAMnetsValid,2021.1.4,MacIntel,60.0240096,,,,,,,,,,,,,1,2.073,0,62,62,84,1,,,,,,,,,,,,,,,,,,,,,,,,,,,,,,,,,,,,,,,,,,,,,,,,,,,,,,,,,,,,,,,,,,,,,,
,,,,7,2.292,,,,,,44,cookie,melon,,90451,001,2022-04-25_10h02.58.575,SPAMnetsValid,2021.1.4,MacIntel,60.0240096,,,,,,,,,,,,,7,2.292,0,63,63,92,1,,,,,,,,,,,,,,,,,,,,,,,,,,,,,,,,,,,,,,,,,,,,,,,,,,,,,,,,,,,,,,,,,,,,,,
,,,,6,2.538,,,,,,57,flower,kitchen,,90451,001,2022-04-25_10h02.58.575,SPAMnetsValid,2021.1.4,MacIntel,60.0240096,,,,,,,,,,,,,6,2.538,0,64,64,49,1,,,,,,,,,,,,,,,,,,,,,,,,,,,,,,,,,,,,,,,,,,,,,,,,,,,,,,,,,,,,,,,,,,,,,,
,,,,8,5.304,,,,,,25,carrot,onion,,90451,001,2022-04-25_10h02.58.575,SPAMnetsValid,2021.1.4,MacIntel,60.0240096,,,,,,,,,,,,,8,5.304,0,65,65,44,1,,,,,,,,,,,,,,,,,,,,,,,,,,,,,,,,,,,,,,,,,,,,,,,,,,,,,,,,,,,,,,,,,,,,,,
,,,,2,4.322,,,,,,41,broom,cactus,,90451,001,2022-04-25_10h02.58.575,SPAMnetsValid,2021.1.4,MacIntel,60.0240096,,,,,,,,,,,,,2,4.322,0,66,66,46,1,,,,,,,,,,,,,,,,,,,,,,,,,,,,,,,,,,,,,,,,,,,,,,,,,,,,,,,,,,,,,,,,,,,,,,
,,,,7,2.526,,,,,,34,melon,oven,,90451,001,2022-04-25_10h02.58.575,SPAMnetsValid,2021.1.4,MacIntel,60.0240096,,,,,,,,,,,,,7,2.526,0,67,67,7,1,,,,,,,,,,,,,,,,,,,,,,,,,,,,,,,,,,,,,,,,,,,,,,,,,,,,,,,,,,,,,,,,,,,,,,
,,,,2,2.855,,,,,,75,cookie,onion,,90451,001,2022-04-25_10h02.58.575,SPAMnetsValid,2021.1.4,MacIntel,60.0240096,,,,,,,,,,,,,2,2.855,0,68,68,9,1,,,,,,,,,,,,,,,,,,,,,,,,,,,,,,,,,,,,,,,,,,,,,,,,,,,,,,,,,,,,,,,,,,,,,,
,,,,2,1.971,,,,,,71,broom,rose,,90451,001,2022-04-25_10h02.58.575,SPAMnetsValid,2021.1.4,MacIntel,60.0240096,,,,,,,,,,,,,2,1.971,0,69,69,61,1,,,,,,,,,,,,,,,,,,,,,,,,,,,,,,,,,,,,,,,,,,,,,,,,,,,,,,,,,,,,,,,,,,,,,,
,,,,7,2.024,,,,,,36,broom,kitchen,,90451,001,2022-04-25_10h02.58.575,SPAMnetsValid,2021.1.4,MacIntel,60.0240096,,,,,,,,,,,,,7,2.024,0,70,70,76,1,,,,,,,,,,,,,,,,,,,,,,,,,,,,,,,,,,,,,,,,,,,,,,,,,,,,,,,,,,,,,,,,,,,,,,
,,,,2,2.171,,,,,,85,cake,tree,,90451,001,2022-04-25_10h02.58.575,SPAMnetsValid,2021.1.4,MacIntel,60.0240096,,,,,,,,,,,,,2,2.171,0,71,71,18,1,,,,,,,,,,,,,,,,,,,,,,,,,,,,,,,,,,,,,,,,,,,,,,,,,,,,,,,,,,,,,,,,,,,,,,
,,,,2,9.558,,,,,,78,cookie,rose,,90451,001,2022-04-25_10h02.58.575,SPAMnetsValid,2021.1.4,MacIntel,60.0240096,,,,,,,,,,,,,2,9.558,0,72,72,56,1,,,,,,,,,,,,,,,,,,,,,,,,,,,,,,,,,,,,,,,,,,,,,,,,,,,,,,,,,,,,,,,,,,,,,,
,,,,2,1.991,,,,,,19,microwave,pretzel,,90451,001,2022-04-25_10h02.58.575,SPAMnetsValid,2021.1.4,MacIntel,60.0240096,,,,,,,,,,,,,2,1.991,0,73,73,41,1,,,,,,,,,,,,,,,,,,,,,,,,,,,,,,,,,,,,,,,,,,,,,,,,,,,,,,,,,,,,,,,,,,,,,,
,,,,8,4.306,,,,,,76,garden,rose,,90451,001,2022-04-25_10h02.58.575,SPAMnetsValid,2021.1.4,MacIntel,60.0240096,,,,,,,,,,,,,8,4.306,0,74,74,19,1,,,,,,,,,,,,,,,,,,,,,,,,,,,,,,,,,,,,,,,,,,,,,,,,,,,,,,,,,,,,,,,,,,,,,,
,,,,1,1.756,,,,,,95,broom,refrigerator,,90451,001,2022-04-25_10h02.58.575,SPAMnetsValid,2021.1.4,MacIntel,60.0240096,,,,,,,,,,,,,1,1.756,0,75,75,90,1,,,,,,,,,,,,,,,,,,,,,,,,,,,,,,,,,,,,,,,,,,,,,,,,,,,,,,,,,,,,,,,,,,,,,,
,,,,1,1.571,,,,,,74,broom,pretzel,,90451,001,2022-04-25_10h02.58.575,SPAMnetsValid,2021.1.4,MacIntel,60.0240096,,,,,,,,,,,,,1,1.571,0,76,76,40,1,,,,,,,,,,,,,,,,,,,,,,,,,,,,,,,,,,,,,,,,,,,,,,,,,,,,,,,,,,,,,,,,,,,,,,
,,,,1,2.156,,,,,,31,cactus,pretzel,,90451,001,2022-04-25_10h02.58.575,SPAMnetsValid,2021.1.4,MacIntel,60.0240096,,,,,,,,,,,,,1,2.156,0,77,77,1,1,,,,,,,,,,,,,,,,,,,,,,,,,,,,,,,,,,,,,,,,,,,,,,,,,,,,,,,,,,,,,,,,,,,,,,
,,,,7,2.77,,,,,,17,carrot,melon,,90451,001,2022-04-25_10h02.58.575,SPAMnetsValid,2021.1.4,MacIntel,60.0240096,,,,,,,,,,,,,7,2.77,0,78,78,24,1,,,,,,,,,,,,,,,,,,,,,,,,,,,,,,,,,,,,,,,,,,,,,,,,,,,,,,,,,,,,,,,,,,,,,,
,,,,7,1.54,,,,,,47,onion,tomato,,90451,001,2022-04-25_10h02.58.575,SPAMnetsValid,2021.1.4,MacIntel,60.0240096,,,,,,,,,,,,,7,1.54,0,79,79,51,1,,,,,,,,,,,,,,,,,,,,,,,,,,,,,,,,,,,,,,,,,,,,,,,,,,,,,,,,,,,,,,,,,,,,,,
,,,,1,1.471,,,,,,54,chocolate,yogurt,,90451,001,2022-04-25_10h02.58.575,SPAMnetsValid,2021.1.4,MacIntel,60.0240096,,,,,,,,,,,,,1,1.471,0,80,80,67,1,,,,,,,,,,,,,,,,,,,,,,,,,,,,,,,,,,,,,,,,,,,,,,,,,,,,,,,,,,,,,,,,,,,,,,
,,,,1,1.89,,,,,,26,tomato,yogurt,,90451,001,2022-04-25_10h02.58.575,SPAMnetsValid,2021.1.4,MacIntel,60.0240096,,,,,,,,,,,,,1,1.89,0,81,81,13,1,,,,,,,,,,,,,,,,,,,,,,,,,,,,,,,,,,,,,,,,,,,,,,,,,,,,,,,,,,,,,,,,,,,,,,
,,,,3,2.373,,,,,,42,garden,kitchen,,90451,001,2022-04-25_10h02.58.575,SPAMnetsValid,2021.1.4,MacIntel,60.0240096,,,,,,,,,,,,,3,2.373,0,82,82,29,1,,,,,,,,,,,,,,,,,,,,,,,,,,,,,,,,,,,,,,,,,,,,,,,,,,,,,,,,,,,,,,,,,,,,,,
,,,,1,3.553,,,,,,10,flower,onion,,90451,001,2022-04-25_10h02.58.575,SPAMnetsValid,2021.1.4,MacIntel,60.0240096,,,,,,,,,,,,,1,3.553,0,83,83,45,1,,,,,,,,,,,,,,,,,,,,,,,,,,,,,,,,,,,,,,,,,,,,,,,,,,,,,,,,,,,,,,,,,,,,,,
,,,,1,5.755,,,,,,7,melon,tree,,90451,001,2022-04-25_10h02.58.575,SPAMnetsValid,2021.1.4,MacIntel,60.0240096,,,,,,,,,,,,,1,5.755,0,84,84,77,1,,,,,,,,,,,,,,,,,,,,,,,,,,,,,,,,,,,,,,,,,,,,,,,,,,,,,,,,,,,,,,,,,,,,,,
,,,,8,2.824,,,,,,4,chocolate,pretzel,,90451,001,2022-04-25_10h02.58.575,SPAMnetsValid,2021.1.4,MacIntel,60.0240096,,,,,,,,,,,,,8,2.824,0,85,85,52,1,,,,,,,,,,,,,,,,,,,,,,,,,,,,,,,,,,,,,,,,,,,,,,,,,,,,,,,,,,,,,,,,,,,,,,
,,,,3,2.236,,,,,,1,rose,yogurt,,90451,001,2022-04-25_10h02.58.575,SPAMnetsValid,2021.1.4,MacIntel,60.0240096,,,,,,,,,,,,,3,2.236,0,86,86,55,1,,,,,,,,,,,,,,,,,,,,,,,,,,,,,,,,,,,,,,,,,,,,,,,,,,,,,,,,,,,,,,,,,,,,,,
,,,,1,1.624,,,,,,83,broom,carrot,,90451,001,2022-04-25_10h02.58.575,SPAMnetsValid,2021.1.4,MacIntel,60.0240096,,,,,,,,,,,,,1,1.624,0,87,87,4,1,,,,,,,,,,,,,,,,,,,,,,,,,,,,,,,,,,,,,,,,,,,,,,,,,,,,,,,,,,,,,,,,,,,,,,
,,,,1,1.824,,,,,,92,broom,flower,,90451,001,2022-04-25_10h02.58.575,SPAMnetsValid,2021.1.4,MacIntel,60.0240096,,,,,,,,,,,,,1,1.824,0,88,88,88,1,,,,,,,,,,,,,,,,,,,,,,,,,,,,,,,,,,,,,,,,,,,,,,,,,,,,,,,,,,,,,,,,,,,,,,
,,,,6,3.753,,,,,,29,chocolate,melon,,90451,001,2022-04-25_10h02.58.575,SPAMnetsValid,2021.1.4,MacIntel,60.0240096,,,,,,,,,,,,,6,3.753,0,89,89,34,1,,,,,,,,,,,,,,,,,,,,,,,,,,,,,,,,,,,,,,,,,,,,,,,,,,,,,,,,,,,,,,,,,,,,,,
,,,,1,1.625,,,,,,80,chocolate,tree,,90451,001,2022-04-25_10h02.58.575,SPAMnetsValid,2021.1.4,MacIntel,60.0240096,,,,,,,,,,,,,1,1.625,0,90,90,89,1,,,,,,,,,,,,,,,,,,,,,,,,,,,,,,,,,,,,,,,,,,,,,,,,,,,,,,,,,,,,,,,,,,,,,,
,,,,1,1.704,,,,,,23,flower,microwave,,90451,001,2022-04-25_10h02.58.575,SPAMnetsValid,2021.1.4,MacIntel,60.0240096,,,,,,,,,,,,,1,1.704,0,91,91,25,1,,,,,,,,,,,,,,,,,,,,,,,,,,,,,,,,,,,,,,,,,,,,,,,,,,,,,,,,,,,,,,,,,,,,,,
,,,,7,2.806,,,,,,62,kitchen,rose,,90451,001,2022-04-25_10h02.58.575,SPAMnetsValid,2021.1.4,MacIntel,60.0240096,,,,,,,,,,,,,7,2.806,0,92,92,57,1,,,,,,,,,,,,,,,,,,,,,,,,,,,,,,,,,,,,,,,,,,,,,,,,,,,,,,,,,,,,,,,,,,,,,,
,,,,1,1.407,,,,,,65,broom,garden,,90451,001,2022-04-25_10h02.58.575,SPAMnetsValid,2021.1.4,MacIntel,60.0240096,,,,,,,,,,,,,1,1.407,0,93,93,23,1,,,,,,,,,,,,,,,,,,,,,,,,,,,,,,,,,,,,,,,,,,,,,,,,,,,,,,,,,,,,,,,,,,,,,,
,,,,7,1.957,,,,,,59,rose,strawberry,,90451,001,2022-04-25_10h02.58.575,SPAMnetsValid,2021.1.4,MacIntel,60.0240096,,,,,,,,,,,,,7,1.957,0,94,94,72,1,,,,,,,,,,,,,,,,,,,,,,,,,,,,,,,,,,,,,,,,,,,,,,,,,,,,,,,,,,,,,,,,,,,,,,
,,,,7,2.038,,,,,,84,oven,tomato,,90451,001,2022-04-25_10h02.58.575,SPAMnetsValid,2021.1.4,MacIntel,60.0240096,,,,,,,,,,,,,7,2.038,0,95,95,28,1,,,,,,,,,,,,,,,,,,,,,,,,,,,,,,,,,,,,,,,,,,,,,,,,,,,,,,,,,,,,,,,,,,,,,,
,,,,7,10.722,,,,,,61,strawberry,tomato,,90451,001,2022-04-25_10h02.58.575,SPAMnetsValid,2021.1.4,MacIntel,60.0240096,,,,,,,,,,,,,7,10.722,0,96,96,80,1,,,,,,,,,,,,,,,,,,,,,,,,,,,,,,,,,,,,,,,,,,,,,,,,,,,,,,,,,,,,,,,,,,,,,,
,,,,,,,,,,,,,,,90451,001,2022-04-25_10h02.58.575,SPAMnetsValid,2021.1.4,MacIntel,60.0240096,,,,,,,,,,,,,,,,,,,,0,0,0,0,1,,,,,,,,,,,,,,,,,,,,,,,,,,,,,,,,,,,,,,,,,,,,,,,,,,,,,,,,,,,,,,,,,
,,,,,,,,,,,,,,,90451,001,2022-04-25_10h02.58.575,SPAMnetsValid,2021.1.4,MacIntel,60.0240096,,,,,,0,1,1,0,1,1,0,,,,,,,,,,,,,,,,,,,,,,,,,,,,,,,,,,,,,,,,,,,,,,,,,,,,,,,,,,,,,,,,,,,,,,,,,,,,,
,,,,,,,,,,,,,,,90451,001,2022-04-25_10h02.58.575,SPAMnetsValid,2021.1.4,MacIntel,60.0240096,,,,,,,,,,,,,,,,,,,,,,,,,3,6.721,0,0,0,0,1,rancor,forbearance,ridicule,malice,bravery,3,,,,,,,,,,,,,,,,,,,,,,,,,,,,,,,,,,,,,,,,,,,,,,,,,,,,
,,,,,,,,,,,,,,,90451,001,2022-04-25_10h02.58.575,SPAMnetsValid,2021.1.4,MacIntel,60.0240096,,,,,,,,,,,,,,,,,,,,,,,,,4,4.455,0,1,1,1,1,raucous,empty,quiet,smooth,harsh,4,,,,,,,,,,,,,,,,,,,,,,,,,,,,,,,,,,,,,,,,,,,,,,,,,,,,
,,,,,,,,,,,,,,,90451,001,2022-04-25_10h02.58.575,SPAMnetsValid,2021.1.4,MacIntel,60.0240096,,,,,,,,,,,,,,,,,,,,,,,,,3,7.322,0,2,2,2,1,gargoyle,oil,medicine,carved waterspout,ugly building,3,,,,,,,,,,,,,,,,,,,,,,,,,,,,,,,,,,,,,,,,,,,,,,,,,,,,
,,,,,,,,,,,,,,,90451,001,2022-04-25_10h02.58.575,SPAMnetsValid,2021.1.4,MacIntel,60.0240096,,,,,,,,,,,,,,,,,,,,,,,,,3,3.976,0,3,3,3,1,recrudesce,purify,renew activity,lack refinement,crush,2,,,,,,,,,,,,,,,,,,,,,,,,,,,,,,,,,,,,,,,,,,,,,,,,,,,,
,,,,,,,,,,,,,,,90451,001,2022-04-25_10h02.58.575,SPAMnetsValid,2021.1.4,MacIntel,60.0240096,,,,,,,,,,,,,,,,,,,,,,,,,2,6.127,0,4,4,4,1,specious,"plausible, but not genuine",noteworthy,class or variety,roomy,1,,,,,,,,,,,,,,,,,,,,,,,,,,,,,,,,,,,,,,,,,,,,,,,,,,,,
,,,,,,,,,,,,,,,90451,001,2022-04-25_10h02.58.575,SPAMnetsValid,2021.1.4,MacIntel,60.0240096,,,,,,,,,,,,,,,,,,,,,,,,,4,3.543,0,5,5,5,1,bauble,bubble,showy plaything,idle talk,confusion,2,,,,,,,,,,,,,,,,,,,,,,,,,,,,,,,,,,,,,,,,,,,,,,,,,,,,
,,,,,,,,,,,,,,,90451,001,2022-04-25_10h02.58.575,SPAMnetsValid,2021.1.4,MacIntel,60.0240096,,,,,,,,,,,,,,,,,,,,,,,,,4,6.671,0,6,6,6,1,prolific,scarce,producing abundantly,reckless,speaking profanely,2,,,,,,,,,,,,,,,,,,,,,,,,,,,,,,,,,,,,,,,,,,,,,,,,,,,,
,,,,,,,,,,,,,,,90451,001,2022-04-25_10h02.58.575,SPAMnetsValid,2021.1.4,MacIntel,60.0240096,,,,,,,,,,,,,,,,,,,,,,,,,3,2.572,0,7,7,7,1,opulent,party,wealthy,happy frame of mind,semiprecious stone,2,,,,,,,,,,,,,,,,,,,,,,,,,,,,,,,,,,,,,,,,,,,,,,,,,,,,
,,,,,,,,,,,,,,,90451,001,2022-04-25_10h02.58.575,SPAMnetsValid,2021.1.4,MacIntel,60.0240096,,,,,,,,,,,,,,,,,,,,,,,,,2,5.405,0,8,8,8,1,coercion,conspiracy,strategy,restraint,attraction,3,,,,,,,,,,,,,,,,,,,,,,,,,,,,,,,,,,,,,,,,,,,,,,,,,,,,
,,,,,,,,,,,,,,,90451,001,2022-04-25_10h02.58.575,SPAMnetsValid,2021.1.4,MacIntel,60.0240096,,,,,,,,,,,,,,,,,,,,,,,,,3,3.555,0,9,9,9,1,hiatus,animal,calamity,dread,gap,4,,,,,,,,,,,,,,,,,,,,,,,,,,,,,,,,,,,,,,,,,,,,,,,,,,,,
,,,,,,,,,,,,,,,90451,001,2022-04-25_10h02.58.575,SPAMnetsValid,2021.1.4,MacIntel,60.0240096,,,,,,,,,,,,,,,,,,,,,,,,,4,3.387,0,10,10,10,1,germane,microbe,contagious,relevant,different,3,,,,,,,,,,,,,,,,,,,,,,,,,,,,,,,,,,,,,,,,,,,,,,,,,,,,
,,,,,,,,,,,,,,,90451,001,2022-04-25_10h02.58.575,SPAMnetsValid,2021.1.4,MacIntel,60.0240096,,,,,,,,,,,,,,,,,,,,,,,,,1,5.56,0,11,11,11,1,perfunctory,fundamental,formal,superficial,careful,3,,,,,,,,,,,,,,,,,,,,,,,,,,,,,,,,,,,,,,,,,,,,,,,,,,,,
,,,,,,,,,,,,,,,90451,001,2022-04-25_10h02.58.575,SPAMnetsValid,2021.1.4,MacIntel,60.0240096,,,,,,,,,,,,,,,,,,,,,,,,,3,2.709,0,12,12,12,1,diverge,reveal,chant,distract the attention of,differ or turn off from,4,,,,,,,,,,,,,,,,,,,,,,,,,,,,,,,,,,,,,,,,,,,,,,,,,,,,
,,,,,,,,,,,,,,,90451,001,2022-04-25_10h02.58.575,SPAMnetsValid,2021.1.4,MacIntel,60.0240096,,,,,,,,,,,,,,,,,,,,,,,,,2,3.809,0,13,13,13,1,evoke,take away,anger,connect,bring out,4,,,,,,,,,,,,,,,,,,,,,,,,,,,,,,,,,,,,,,,,,,,,,,,,,,,,
,,,,,,,,,,,,,,,90451,001,2022-04-25_10h02.58.575,SPAMnetsValid,2021.1.4,MacIntel,60.0240096,,,,,,,,,,,,,,,,,,,,,,,,,3,2.508,0,14,14,14,1,pertinent,relevant,lying next to,necessary,bold,1,,,,,,,,,,,,,,,,,,,,,,,,,,,,,,,,,,,,,,,,,,,,,,,,,,,,
,,,,,,,,,,,,,,,90451,001,2022-04-25_10h02.58.575,SPAMnetsValid,2021.1.4,MacIntel,60.0240096,,,,,,,,,,,,,,,,,,,,,,,,,2,2.606,0,15,15,15,1,holocaust,entirety,destruction,saintly,price,2,,,,,,,,,,,,,,,,,,,,,,,,,,,,,,,,,,,,,,,,,,,,,,,,,,,,
,,,,,,,,,,,,,,,90451,001,2022-04-25_10h02.58.575,SPAMnetsValid,2021.1.4,MacIntel,60.0240096,,,,,,,,,,,,,,,,,,,,,,,,,3,3.091,0,16,16,16,1,piquant,mellow,fish,pungent,cloth,3,,,,,,,,,,,,,,,,,,,,,,,,,,,,,,,,,,,,,,,,,,,,,,,,,,,,
,,,,,,,,,,,,,,,90451,001,2022-04-25_10h02.58.575,SPAMnetsValid,2021.1.4,MacIntel,60.0240096,,,,,,,,,,,,,,,,,,,,,,,,,3,5.761,0,17,17,17,1,firmament,foundation,heavens,strong,glue,2,,,,,,,,,,,,,,,,,,,,,,,,,,,,,,,,,,,,,,,,,,,,,,,,,,,,
,,,,,,,,,,,,,,,90451,001,2022-04-25_10h02.58.575,SPAMnetsValid,2021.1.4,MacIntel,60.0240096,,,,,,,,,,,,,,,,,,,,,,,,,,,,,,,,,,,,,,4,5.392,0,0,0,0,1,marketable,partisan,jocular,marriageable,salable,essential,4,,,,,,,,,,,,,,,,,,,,,,,,,,,,,,,,,,,,,,
,,,,,,,,,,,,,,,90451,001,2022-04-25_10h02.58.575,SPAMnetsValid,2021.1.4,MacIntel,60.0240096,,,,,,,,,,,,,,,,,,,,,,,,,,,,,,,,,,,,,,4,3.388,0,1,1,1,1,cottontail,squirrel,poplar,boa,marshy plant,rabbit,5,,,,,,,,,,,,,,,,,,,,,,,,,,,,,,,,,,,,,,
,,,,,,,,,,,,,,,90451,001,2022-04-25_10h02.58.575,SPAMnetsValid,2021.1.4,MacIntel,60.0240096,,,,,,,,,,,,,,,,,,,,,,,,,,,,,,,,,,,,,,3,2.02,0,2,2,2,1,boggy,afraid,false,marshy,dense,black,3,,,,,,,,,,,,,,,,,,,,,,,,,,,,,,,,,,,,,,
,,,,,,,,,,,,,,,90451,001,2022-04-25_10h02.58.575,SPAMnetsValid,2021.1.4,MacIntel,60.0240096,,,,,,,,,,,,,,,,,,,,,,,,,,,,,,,,,,,,,,3,5.424,0,3,3,3,1,gruesomeness,blackness,falseness,vindictiveness,drunkenness,ghastliness,5,,,,,,,,,,,,,,,,,,,,,,,,,,,,,,,,,,,,,,
,,,,,,,,,,,,,,,90451,001,2022-04-25_10h02.58.575,SPAMnetsValid,2021.1.4,MacIntel,60.0240096,,,,,,,,,,,,,,,,,,,,,,,,,,,,,,,,,,,,,,3,2.707,0,4,4,4,1,loathing,diffidence,laziness,abhorrence,cleverness,comfort,3,,,,,,,,,,,,,,,,,,,,,,,,,,,,,,,,,,,,,,
,,,,,,,,,,,,,,,90451,001,2022-04-25_10h02.58.575,SPAMnetsValid,2021.1.4,MacIntel,60.0240096,,,,,,,,,,,,,,,,,,,,,,,,,,,,,,,,,,,,,,1,3.577,0,5,5,5,1,bantam,fowl,ridicule,cripple,vegetable,ensign,1,,,,,,,,,,,,,,,,,,,,,,,,,,,,,,,,,,,,,,
,,,,,,,,,,,,,,,90451,001,2022-04-25_10h02.58.575,SPAMnetsValid,2021.1.4,MacIntel,60.0240096,,,,,,,,,,,,,,,,,,,,,,,,,,,,,,,,,,,,,,5,5.959,0,6,6,6,1,evoke,wake up,surrender,reconnoiter,transcend,call forth,5,,,,,,,,,,,,,,,,,,,,,,,,,,,,,,,,,,,,,,
,,,,,,,,,,,,,,,90451,001,2022-04-25_10h02.58.575,SPAMnetsValid,2021.1.4,MacIntel,60.0240096,,,,,,,,,,,,,,,,,,,,,,,,,,,,,,,,,,,,,,1,5.04,0,7,7,7,1,unobtrusive,unintelligent,epileptic,illogical,lineal,modest,5,,,,,,,,,,,,,,,,,,,,,,,,,,,,,,,,,,,,,,
,,,,,,,,,,,,,,,90451,001,2022-04-25_10h02.58.575,SPAMnetsValid,2021.1.4,MacIntel,60.0240096,,,,,,,,,,,,,,,,,,,,,,,,,,,,,,,,,,,,,,4,2.192,0,8,8,8,1,terrain,ice cream,final test,tractor,area of ground,weight,4,,,,,,,,,,,,,,,,,,,,,,,,,,,,,,,,,,,,,,
,,,,,,,,,,,,,,,90451,001,2022-04-25_10h02.58.575,SPAMnetsValid,2021.1.4,MacIntel,60.0240096,,,,,,,,,,,,,,,,,,,,,,,,,,,,,,,,,,,,,,4,3.309,0,9,9,9,1,capriciousness,stubbornness,courage,whimsicality,amazement,greediness,3,,,,,,,,,,,,,,,,,,,,,,,,,,,,,,,,,,,,,,
,,,,,,,,,,,,,,,90451,001,2022-04-25_10h02.58.575,SPAMnetsValid,2021.1.4,MacIntel,60.0240096,,,,,,,,,,,,,,,,,,,,,,,,,,,,,,,,,,,,,,4,5.572,0,10,10,10,1,maelstrom,slander,whirlpool,enmity,armor,majolica,2,,,,,,,,,,,,,,,,,,,,,,,,,,,,,,,,,,,,,,
,,,,,,,,,,,,,,,90451,001,2022-04-25_10h02.58.575,SPAMnetsValid,2021.1.4,MacIntel,60.0240096,,,,,,,,,,,,,,,,,,,,,,,,,,,,,,,,,,,,,,2,5.241,0,11,11,11,1,tentative,critical,conclusive,authentic,provisional,apprehensive,4,,,,,,,,,,,,,,,,,,,,,,,,,,,,,,,,,,,,,,
,,,,,,,,,,,,,,,90451,001,2022-04-25_10h02.58.575,SPAMnetsValid,2021.1.4,MacIntel,60.0240096,,,,,,,,,,,,,,,,,,,,,,,,,,,,,,,,,,,,,,1,4.558,0,12,12,12,1,placate,rehabilitate,plagiarize,depredate,apprise,conciliate,5,,,,,,,,,,,,,,,,,,,,,,,,,,,,,,,,,,,,,,
,,,,,,,,,,,,,,,90451,001,2022-04-25_10h02.58.575,SPAMnetsValid,2021.1.4,MacIntel,60.0240096,,,,,,,,,,,,,,,,,,,,,,,,,,,,,,,,,,,,,,4,3.038,0,13,13,13,1,surcease,enlightenment,cessation,inattention,censor,substitution,2,,,,,,,,,,,,,,,,,,,,,,,,,,,,,,,,,,,,,,
,,,,,,,,,,,,,,,90451,001,2022-04-25_10h02.58.575,SPAMnetsValid,2021.1.4,MacIntel,60.0240096,,,,,,,,,,,,,,,,,,,,,,,,,,,,,,,,,,,,,,2,6.207,0,14,14,14,1,apathetic,wandering,impassive,hateful,prophetic,overflowing,2,,,,,,,,,,,,,,,,,,,,,,,,,,,,,,,,,,,,,,
,,,,,,,,,,,,,,,90451,001,2022-04-25_10h02.58.575,SPAMnetsValid,2021.1.4,MacIntel,60.0240096,,,,,,,,,,,,,,,,,,,,,,,,,,,,,,,,,,,,,,4,3.321,0,15,15,15,1,paternoster,paternalism,patricide,malediction,benediction,prayer,5,,,,,,,,,,,,,,,,,,,,,,,,,,,,,,,,,,,,,,
,,,,,,,,,,,,,,,90451,001,2022-04-25_10h02.58.575,SPAMnetsValid,2021.1.4,MacIntel,60.0240096,,,,,,,,,,,,,,,,,,,,,,,,,,,,,,,,,,,,,,4,2.922,0,16,16,16,1,opalescence,opulence,senescence,bankruptcy,iridescence,assiduity,4,,,,,,,,,,,,,,,,,,,,,,,,,,,,,,,,,,,,,,
,,,,,,,,,,,,,,,90451,001,2022-04-25_10h02.58.575,SPAMnetsValid,2021.1.4,MacIntel,60.0240096,,,,,,,,,,,,,,,,,,,,,,,,,,,,,,,,,,,,,,2,2.543,0,17,17,17,1,lush,stupid,luxurious,hazy,putrid,languishing,2,,,,,,,,,,,,,,,,,,,,,,,,,,,,,,,,,,,,,,
,,,,,,,,,,,,,,,90451,001,2022-04-25_10h02.58.575,SPAMnetsValid,2021.1.4,MacIntel,60.0240096,,,,,,,,,,,,,,,,,,,,,,,,,,,,,,,,,,,,,,4,8.441,0,18,18,18,1,curtailment,expenditure,abandonment,abridgment,improvement,forgery,3,,,,,,,,,,,,,,,,,,,,,,,,,,,,,,,,,,,,,,
,,,,,,,,,,,,,,,90451,001,2022-04-25_10h02.58.575,SPAMnetsValid,2021.1.4,MacIntel,60.0240096,,,,,,,,,,,,,,,,,,,,,,,,,,,,,,,,,,,,,,,,0,19,19,19,1,perversity,adversity,perviousness,travesty,waywardness,gentility,4,,,,,,,,,,,,,,,,,,,,,,,,,,,,,,,,,,,,,,
,,,,,,,,,,,,,,,90451,001,2022-04-25_10h02.58.575,SPAMnetsValid,2021.1.4,MacIntel,60.0240096,,,,,,,,,,,,,,,,,,,,,,,,,,,,,,,,,,,,,,3,1.523,0,20,20,20,1,calumnious,complimentary,analogous,slanderous,tempestuous,magnanimous,3,,,,,,,,,,,,,,,,,,,,,,,,,,,,,,,,,,,,,,
,,,,,,,,,,,,,,,90451,001,2022-04-25_10h02.58.575,SPAMnetsValid,2021.1.4,MacIntel,60.0240096,,,,,,,,,,,,,,,,,,,,,,,,,,,,,,,,,,,,,,3,3.307,0,21,21,21,1,illiberality,bigotry,imbecility,illegibility,cautery,immaturity,1,,,,,,,,,,,,,,,,,,,,,,,,,,,,,,,,,,,,,,
,,,,,,,,,,,,,,,90451,001,2022-04-25_10h02.58.575,SPAMnetsValid,2021.1.4,MacIntel,60.0240096,,,,,,,,,,,,,,,,,,,,,,,,,,,,,,,,,,,,,,4,1.975,0,22,22,22,1,clabber,rejoice,gossip,curdle,crow,hobble,3,,,,,,,,,,,,,,,,,,,,,,,,,,,,,,,,,,,,,,
,,,,,,,,,,,,,,,90451,001,2022-04-25_10h02.58.575,SPAMnetsValid,2021.1.4,MacIntel,60.0240096,,,,,,,,,,,,,,,,,,,,,,,,,,,,,,,,,,,,,,3,2.441,0,23,23,23,1,sedulousness,diligence,credulousness,seduction,perilousness,frankness,1,,,,,,,,,,,,,,,,,,,,,,,,,,,,,,,,,,,,,,
,,,,,,,,,,,,,,,90451,001,2022-04-25_10h02.58.575,SPAMnetsValid,2021.1.4,MacIntel,60.0240096,,,,,,,,,,,,,,,,,,,,,,,,,,,,,,,,,,,,,,,,,,,,,,,,,,,,water,bucket,0,0,0,0,1,,,,,,,,,,,,,,,,,,,,,,,,,,,,,,,
,,,,,,,,,,,,,,,90451,001,2022-04-25_10h02.58.575,SPAMnetsValid,2021.1.4,MacIntel,60.0240096,,,,,,,,,,,,,,,,,,,,,,,,,,,,,,,,,,,,,,,,,,,,,,,,,,,,oil,bucket,1,0,1,0,1,,,,,,,,,,,,,,,,,,,,,,,,,,,,,,,
,,,,,,,,,,,,,,,90451,001,2022-04-25_10h02.58.575,SPAMnetsValid,2021.1.4,MacIntel,60.0240096,,,,,,,,,,,,,,,,,,,,,,,,,,,,,,,,,,,,,,,,,,,,,,,,,,,,gardening,bucket,2,0,2,0,1,,,,,,,,,,,,,,,,,,,,,,,,,,,,,,,
,,,,,,,,,,,,,,,90451,001,2022-04-25_10h02.58.575,SPAMnetsValid,2021.1.4,MacIntel,60.0240096,,,,,,,,,,,,,,,,,,,,,,,,,,,,,,,,,,,,,,,,,,,,,,,,,,,,carrying,bucket,3,0,3,0,1,,,,,,,,,,,,,,,,,,,,,,,,,,,,,,,
,,,,,,,,,,,,,,,90451,001,2022-04-25_10h02.58.575,SPAMnetsValid,2021.1.4,MacIntel,60.0240096,,,,,,,,,,,,,,,,,,,,,,,,,,,,,,,,,,,,,,,,,,,,,,,,,,,,storage,bucket,4,0,4,0,1,,,,,,,,,,,,,,,,,,,,,,,,,,,,,,,
,,,,,,,,,,,,,,,90451,001,2022-04-25_10h02.58.575,SPAMnetsValid,2021.1.4,MacIntel,60.0240096,,,,,,,,,,,,,,,,,,,,,,,,,,,,,,,,,,,,,,,,,,,,,,,,,,,,transporting,bucket,5,0,5,0,1,,,,,,,,,,,,,,,,,,,,,,,,,,,,,,,
,,,,,,,,,,,,,,,90451,001,2022-04-25_10h02.58.575,SPAMnetsValid,2021.1.4,MacIntel,60.0240096,,,,,,,,,,,,,,,,,,,,,,,,,,,,,,,,,,,,,,,,,,,,,,,,,,,,gardening,bucket,6,0,6,0,1,,,,,,,,,,,,,,,,,,,,,,,,,,,,,,,
,,,,,,,,,,,,,,,90451,001,2022-04-25_10h02.58.575,SPAMnetsValid,2021.1.4,MacIntel,60.0240096,,,,,,,,,,,,,,,,,,,,,,,,,,,,,,,,,,,,,,,,,,,,,,,,,,,,flower pot,bucket,7,0,7,0,1,,,,,,,,,,,,,,,,,,,,,,,,,,,,,,,
,,,,,,,,,,,,,,,90451,001,2022-04-25_10h02.58.575,SPAMnetsValid,2021.1.4,MacIntel,60.0240096,,,,,,,,,,,,,,,,,,,,,,,,,,,,,,,,,,,,,,,,,,,,,,,,,,,,lava,bucket,8,0,8,0,1,,,,,,,,,,,,,,,,,,,,,,,,,,,,,,,
,,,,,,,,,,,,,,,90451,001,2022-04-25_10h02.58.575,SPAMnetsValid,2021.1.4,MacIntel,60.0240096,,,,,,,,,,,,,,,,,,,,,,,,,,,,,,,,,,,,,,,,,,,,,,,,,,,,fixture,bucket,9,0,9,0,1,,,,,,,,,,,,,,,,,,,,,,,,,,,,,,,
,,,,,,,,,,,,,,,90451,001,2022-04-25_10h02.58.575,SPAMnetsValid,2021.1.4,MacIntel,60.0240096,,,,,,,,,,,,,,,,,,,,,,,,,,,,,,,,,,,,,,,,,,,,,,,,,,,,concrete,bucket,10,0,10,0,1,,,,,,,,,,,,,,,,,,,,,,,,,,,,,,,
,,,,,,,,,,,,,,,90451,001,2022-04-25_10h02.58.575,SPAMnetsValid,2021.1.4,MacIntel,60.0240096,,,,,,,,,,,,,,,,,,,,,,,,,,,,,,,,,,,,,,,,,,,,,,,,,,,,water fixture,bucket,11,0,11,0,1,,,,,,,,,,,,,,,,,,,,,,,,,,,,,,,
,,,,,,,,,,,,,,,90451,001,2022-04-25_10h02.58.575,SPAMnetsValid,2021.1.4,MacIntel,60.0240096,,,,,,,,,,,,,,,,,,,,,,,,,,,,,,,,,,,,,,,,,,,,,,,,,,,,lifting,bucket,12,0,12,0,1,,,,,,,,,,,,,,,,,,,,,,,,,,,,,,,
,,,,,,,,,,,,,,,90451,001,2022-04-25_10h02.58.575,SPAMnetsValid,2021.1.4,MacIntel,60.0240096,,,,,,,,,,,,,,,,,,,,,,,,,,,,,,,,,,,,,,,,,,,,,,,,,,,,,,,,,,,0,0,0,0,1,bucket,,,,,,,,,,,,,,,,,,,,,,,,,
,,,,,,,,,,,,,,,90451,001,2022-04-25_10h02.58.575,SPAMnetsValid,2021.1.4,MacIntel,60.0240096,,,,,,,,,,,,,,,,,,,,,,,,,,,,,,,,,,,,,,,,,,,,,,,,,,,,lighting,candle,0,0,0,0,1,,,,,,,,,,,,,,,,,,,,,,,,,,,,,,,
,,,,,,,,,,,,,,,90451,001,2022-04-25_10h02.58.575,SPAMnetsValid,2021.1.4,MacIntel,60.0240096,,,,,,,,,,,,,,,,,,,,,,,,,,,,,,,,,,,,,,,,,,,,,,,,,,,,decoration,candle,1,0,1,0,1,,,,,,,,,,,,,,,,,,,,,,,,,,,,,,,
,,,,,,,,,,,,,,,90451,001,2022-04-25_10h02.58.575,SPAMnetsValid,2021.1.4,MacIntel,60.0240096,,,,,,,,,,,,,,,,,,,,,,,,,,,,,,,,,,,,,,,,,,,,,,,,,,,,funeral,candle,2,0,2,0,1,,,,,,,,,,,,,,,,,,,,,,,,,,,,,,,
,,,,,,,,,,,,,,,90451,001,2022-04-25_10h02.58.575,SPAMnetsValid,2021.1.4,MacIntel,60.0240096,,,,,,,,,,,,,,,,,,,,,,,,,,,,,,,,,,,,,,,,,,,,,,,,,,,,celebration,candle,3,0,3,0,1,,,,,,,,,,,,,,,,,,,,,,,,,,,,,,,
,,,,,,,,,,,,,,,90451,001,2022-04-25_10h02.58.575,SPAMnetsValid,2021.1.4,MacIntel,60.0240096,,,,,,,,,,,,,,,,,,,,,,,,,,,,,,,,,,,,,,,,,,,,,,,,,,,,birthday,candle,4,0,4,0,1,,,,,,,,,,,,,,,,,,,,,,,,,,,,,,,
,,,,,,,,,,,,,,,90451,001,2022-04-25_10h02.58.575,SPAMnetsValid,2021.1.4,MacIntel,60.0240096,,,,,,,,,,,,,,,,,,,,,,,,,,,,,,,,,,,,,,,,,,,,,,,,,,,,wedding,candle,5,0,5,0,1,,,,,,,,,,,,,,,,,,,,,,,,,,,,,,,
,,,,,,,,,,,,,,,90451,001,2022-04-25_10h02.58.575,SPAMnetsValid,2021.1.4,MacIntel,60.0240096,,,,,,,,,,,,,,,,,,,,,,,,,,,,,,,,,,,,,,,,,,,,,,,,,,,,romantic,candle,6,0,6,0,1,,,,,,,,,,,,,,,,,,,,,,,,,,,,,,,
,,,,,,,,,,,,,,,90451,001,2022-04-25_10h02.58.575,SPAMnetsValid,2021.1.4,MacIntel,60.0240096,,,,,,,,,,,,,,,,,,,,,,,,,,,,,,,,,,,,,,,,,,,,,,,,,,,,church,candle,7,0,7,0,1,,,,,,,,,,,,,,,,,,,,,,,,,,,,,,,
,,,,,,,,,,,,,,,90451,001,2022-04-25_10h02.58.575,SPAMnetsValid,2021.1.4,MacIntel,60.0240096,,,,,,,,,,,,,,,,,,,,,,,,,,,,,,,,,,,,,,,,,,,,,,,,,,,,wax,candle,8,0,8,0,1,,,,,,,,,,,,,,,,,,,,,,,,,,,,,,,
,,,,,,,,,,,,,,,90451,001,2022-04-25_10h02.58.575,SPAMnetsValid,2021.1.4,MacIntel,60.0240096,,,,,,,,,,,,,,,,,,,,,,,,,,,,,,,,,,,,,,,,,,,,,,,,,,,,smell,candle,9,0,9,0,1,,,,,,,,,,,,,,,,,,,,,,,,,,,,,,,
,,,,,,,,,,,,,,,90451,001,2022-04-25_10h02.58.575,SPAMnetsValid,2021.1.4,MacIntel,60.0240096,,,,,,,,,,,,,,,,,,,,,,,,,,,,,,,,,,,,,,,,,,,,,,,,,,,,heat,candle,10,0,10,0,1,,,,,,,,,,,,,,,,,,,,,,,,,,,,,,,
,,,,,,,,,,,,,,,90451,001,2022-04-25_10h02.58.575,SPAMnetsValid,2021.1.4,MacIntel,60.0240096,,,,,,,,,,,,,,,,,,,,,,,,,,,,,,,,,,,,,,,,,,,,,,,,,,,,,,,,,,,0,1,1,1,1,candle,,,,,,,,,,,,,,,,,,,,,,,,,
,,,,,,,,,,,,,,,90451,001,2022-04-25_10h02.58.575,SPAMnetsValid,2021.1.4,MacIntel,60.0240096,,,,,,,,,,,,,,,,,,,,,,,,,,,,,,,,,,,,,,,,,,,,,,,,,,,,sleep,pillow,0,0,0,0,1,,,,,,,,,,,,,,,,,,,,,,,,,,,,,,,
,,,,,,,,,,,,,,,90451,001,2022-04-25_10h02.58.575,SPAMnetsValid,2021.1.4,MacIntel,60.0240096,,,,,,,,,,,,,,,,,,,,,,,,,,,,,,,,,,,,,,,,,,,,,,,,,,,,fight,pillow,1,0,1,0,1,,,,,,,,,,,,,,,,,,,,,,,,,,,,,,,
,,,,,,,,,,,,,,,90451,001,2022-04-25_10h02.58.575,SPAMnetsValid,2021.1.4,MacIntel,60.0240096,,,,,,,,,,,,,,,,,,,,,,,,,,,,,,,,,,,,,,,,,,,,,,,,,,,,comfort,pillow,2,0,2,0,1,,,,,,,,,,,,,,,,,,,,,,,,,,,,,,,
,,,,,,,,,,,,,,,90451,001,2022-04-25_10h02.58.575,SPAMnetsValid,2021.1.4,MacIntel,60.0240096,,,,,,,,,,,,,,,,,,,,,,,,,,,,,,,,,,,,,,,,,,,,,,,,,,,,bed,pillow,3,0,3,0,1,,,,,,,,,,,,,,,,,,,,,,,,,,,,,,,
,,,,,,,,,,,,,,,90451,001,2022-04-25_10h02.58.575,SPAMnetsValid,2021.1.4,MacIntel,60.0240096,,,,,,,,,,,,,,,,,,,,,,,,,,,,,,,,,,,,,,,,,,,,,,,,,,,,headrest,pillow,4,0,4,0,1,,,,,,,,,,,,,,,,,,,,,,,,,,,,,,,
,,,,,,,,,,,,,,,90451,001,2022-04-25_10h02.58.575,SPAMnetsValid,2021.1.4,MacIntel,60.0240096,,,,,,,,,,,,,,,,,,,,,,,,,,,,,,,,,,,,,,,,,,,,,,,,,,,,decoration,pillow,5,0,5,0,1,,,,,,,,,,,,,,,,,,,,,,,,,,,,,,,
,,,,,,,,,,,,,,,90451,001,2022-04-25_10h02.58.575,SPAMnetsValid,2021.1.4,MacIntel,60.0240096,,,,,,,,,,,,,,,,,,,,,,,,,,,,,,,,,,,,,,,,,,,,,,,,,,,,fort,pillow,6,0,6,0,1,,,,,,,,,,,,,,,,,,,,,,,,,,,,,,,
,,,,,,,,,,,,,,,90451,001,2022-04-25_10h02.58.575,SPAMnetsValid,2021.1.4,MacIntel,60.0240096,,,,,,,,,,,,,,,,,,,,,,,,,,,,,,,,,,,,,,,,,,,,,,,,,,,,case,pillow,7,0,7,0,1,,,,,,,,,,,,,,,,,,,,,,,,,,,,,,,
,,,,,,,,,,,,,,,90451,001,2022-04-25_10h02.58.575,SPAMnetsValid,2021.1.4,MacIntel,60.0240096,,,,,,,,,,,,,,,,,,,,,,,,,,,,,,,,,,,,,,,,,,,,,,,,,,,,hiding place,pillow,8,0,8,0,1,,,,,,,,,,,,,,,,,,,,,,,,,,,,,,,
,,,,,,,,,,,,,,,90451,001,2022-04-25_10h02.58.575,SPAMnetsValid,2021.1.4,MacIntel,60.0240096,,,,,,,,,,,,,,,,,,,,,,,,,,,,,,,,,,,,,,,,,,,,,,,,,,,,tooth fairy,pillow,9,0,9,0,1,,,,,,,,,,,,,,,,,,,,,,,,,,,,,,,
,,,,,,,,,,,,,,,90451,001,2022-04-25_10h02.58.575,SPAMnetsValid,2021.1.4,MacIntel,60.0240096,,,,,,,,,,,,,,,,,,,,,,,,,,,,,,,,,,,,,,,,,,,,,,,,,,,,,,,,,,,0,2,2,2,1,pillow,,,,,,,,,,,,,,,,,,,,,,,,,
,,,,,,,,,,,,,,,90451,001,2022-04-25_10h02.58.575,SPAMnetsValid,2021.1.4,MacIntel,60.0240096,,,,,,,,,,,,,,,,,,,,,,,,,,,,,,,,,,,,,,,,,,,,,,,,,,,,,,,,,,,,,,,,,bear,Animals,0,0,0,0,1,,,,,,,,,,,,,,,,,,
,,,,,,,,,,,,,,,90451,001,2022-04-25_10h02.58.575,SPAMnetsValid,2021.1.4,MacIntel,60.0240096,,,,,,,,,,,,,,,,,,,,,,,,,,,,,,,,,,,,,,,,,,,,,,,,,,,,,,,,,,,,,,,,,cat,Animals,1,0,1,0,1,,,,,,,,,,,,,,,,,,
,,,,,,,,,,,,,,,90451,001,2022-04-25_10h02.58.575,SPAMnetsValid,2021.1.4,MacIntel,60.0240096,,,,,,,,,,,,,,,,,,,,,,,,,,,,,,,,,,,,,,,,,,,,,,,,,,,,,,,,,,,,,,,,,dog,Animals,2,0,2,0,1,,,,,,,,,,,,,,,,,,
,,,,,,,,,,,,,,,90451,001,2022-04-25_10h02.58.575,SPAMnetsValid,2021.1.4,MacIntel,60.0240096,,,,,,,,,,,,,,,,,,,,,,,,,,,,,,,,,,,,,,,,,,,,,,,,,,,,,,,,,,,,,,,,,snake,Animals,3,0,3,0,1,,,,,,,,,,,,,,,,,,
,,,,,,,,,,,,,,,90451,001,2022-04-25_10h02.58.575,SPAMnetsValid,2021.1.4,MacIntel,60.0240096,,,,,,,,,,,,,,,,,,,,,,,,,,,,,,,,,,,,,,,,,,,,,,,,,,,,,,,,,,,,,,,,,fish,Animals,4,0,4,0,1,,,,,,,,,,,,,,,,,,
,,,,,,,,,,,,,,,90451,001,2022-04-25_10h02.58.575,SPAMnetsValid,2021.1.4,MacIntel,60.0240096,,,,,,,,,,,,,,,,,,,,,,,,,,,,,,,,,,,,,,,,,,,,,,,,,,,,,,,,,,,,,,,,,cougar,Animals,5,0,5,0,1,,,,,,,,,,,,,,,,,,
,,,,,,,,,,,,,,,90451,001,2022-04-25_10h02.58.575,SPAMnetsValid,2021.1.4,MacIntel,60.0240096,,,,,,,,,,,,,,,,,,,,,,,,,,,,,,,,,,,,,,,,,,,,,,,,,,,,,,,,,,,,,,,,,birds,Animals,6,0,6,0,1,,,,,,,,,,,,,,,,,,
,,,,,,,,,,,,,,,90451,001,2022-04-25_10h02.58.575,SPAMnetsValid,2021.1.4,MacIntel,60.0240096,,,,,,,,,,,,,,,,,,,,,,,,,,,,,,,,,,,,,,,,,,,,,,,,,,,,,,,,,,,,,,,,,eagle,Animals,7,0,7,0,1,,,,,,,,,,,,,,,,,,
,,,,,,,,,,,,,,,90451,001,2022-04-25_10h02.58.575,SPAMnetsValid,2021.1.4,MacIntel,60.0240096,,,,,,,,,,,,,,,,,,,,,,,,,,,,,,,,,,,,,,,,,,,,,,,,,,,,,,,,,,,,,,,,,hawk,Animals,8,0,8,0,1,,,,,,,,,,,,,,,,,,
,,,,,,,,,,,,,,,90451,001,2022-04-25_10h02.58.575,SPAMnetsValid,2021.1.4,MacIntel,60.0240096,,,,,,,,,,,,,,,,,,,,,,,,,,,,,,,,,,,,,,,,,,,,,,,,,,,,,,,,,,,,,,,,,dolphin,Animals,9,0,9,0,1,,,,,,,,,,,,,,,,,,
,,,,,,,,,,,,,,,90451,001,2022-04-25_10h02.58.575,SPAMnetsValid,2021.1.4,MacIntel,60.0240096,,,,,,,,,,,,,,,,,,,,,,,,,,,,,,,,,,,,,,,,,,,,,,,,,,,,,,,,,,,,,,,,,whale,Animals,10,0,10,0,1,,,,,,,,,,,,,,,,,,
,,,,,,,,,,,,,,,90451,001,2022-04-25_10h02.58.575,SPAMnetsValid,2021.1.4,MacIntel,60.0240096,,,,,,,,,,,,,,,,,,,,,,,,,,,,,,,,,,,,,,,,,,,,,,,,,,,,,,,,,,,,,,,,,mouse,Animals,11,0,11,0,1,,,,,,,,,,,,,,,,,,
,,,,,,,,,,,,,,,90451,001,2022-04-25_10h02.58.575,SPAMnetsValid,2021.1.4,MacIntel,60.0240096,,,,,,,,,,,,,,,,,,,,,,,,,,,,,,,,,,,,,,,,,,,,,,,,,,,,,,,,,,,,,,,,,rat,Animals,12,0,12,0,1,,,,,,,,,,,,,,,,,,
,,,,,,,,,,,,,,,90451,001,2022-04-25_10h02.58.575,SPAMnetsValid,2021.1.4,MacIntel,60.0240096,,,,,,,,,,,,,,,,,,,,,,,,,,,,,,,,,,,,,,,,,,,,,,,,,,,,,,,,,,,,,,,,,racoon,Animals,13,0,13,0,1,,,,,,,,,,,,,,,,,,
,,,,,,,,,,,,,,,90451,001,2022-04-25_10h02.58.575,SPAMnetsValid,2021.1.4,MacIntel,60.0240096,,,,,,,,,,,,,,,,,,,,,,,,,,,,,,,,,,,,,,,,,,,,,,,,,,,,,,,,,,,,,,,,,rabbit,Animals,14,0,14,0,1,,,,,,,,,,,,,,,,,,
,,,,,,,,,,,,,,,90451,001,2022-04-25_10h02.58.575,SPAMnetsValid,2021.1.4,MacIntel,60.0240096,,,,,,,,,,,,,,,,,,,,,,,,,,,,,,,,,,,,,,,,,,,,,,,,,,,,,,,,,,,,,,,,,deer,Animals,15,0,15,0,1,,,,,,,,,,,,,,,,,,
,,,,,,,,,,,,,,,90451,001,2022-04-25_10h02.58.575,SPAMnetsValid,2021.1.4,MacIntel,60.0240096,,,,,,,,,,,,,,,,,,,,,,,,,,,,,,,,,,,,,,,,,,,,,,,,,,,,,,,,,,,,,,,,,bobcat,Animals,16,0,16,0,1,,,,,,,,,,,,,,,,,,
,,,,,,,,,,,,,,,90451,001,2022-04-25_10h02.58.575,SPAMnetsValid,2021.1.4,MacIntel,60.0240096,,,,,,,,,,,,,,,,,,,,,,,,,,,,,,,,,,,,,,,,,,,,,,,,,,,,,,,,,,,,,,,,,lion,Animals,17,0,17,0,1,,,,,,,,,,,,,,,,,,
,,,,,,,,,,,,,,,90451,001,2022-04-25_10h02.58.575,SPAMnetsValid,2021.1.4,MacIntel,60.0240096,,,,,,,,,,,,,,,,,,,,,,,,,,,,,,,,,,,,,,,,,,,,,,,,,,,,,,,,,,,,,,,,,tiger,Animals,18,0,18,0,1,,,,,,,,,,,,,,,,,,
,,,,,,,,,,,,,,,90451,001,2022-04-25_10h02.58.575,SPAMnetsValid,2021.1.4,MacIntel,60.0240096,,,,,,,,,,,,,,,,,,,,,,,,,,,,,,,,,,,,,,,,,,,,,,,,,,,,,,,,,,,,,,,,,zebra,Animals,19,0,19,0,1,,,,,,,,,,,,,,,,,,
,,,,,,,,,,,,,,,90451,001,2022-04-25_10h02.58.575,SPAMnetsValid,2021.1.4,MacIntel,60.0240096,,,,,,,,,,,,,,,,,,,,,,,,,,,,,,,,,,,,,,,,,,,,,,,,,,,,,,,,,,,,,,,,,elephant,Animals,20,0,20,0,1,,,,,,,,,,,,,,,,,,
,,,,,,,,,,,,,,,90451,001,2022-04-25_10h02.58.575,SPAMnetsValid,2021.1.4,MacIntel,60.0240096,,,,,,,,,,,,,,,,,,,,,,,,,,,,,,,,,,,,,,,,,,,,,,,,,,,,,,,,,,,,,,,,,squrriel,Animals,21,0,21,0,1,,,,,,,,,,,,,,,,,,
,,,,,,,,,,,,,,,90451,001,2022-04-25_10h02.58.575,SPAMnetsValid,2021.1.4,MacIntel,60.0240096,,,,,,,,,,,,,,,,,,,,,,,,,,,,,,,,,,,,,,,,,,,,,,,,,,,,,,,,,,,,,,,,,groundhog,Animals,22,0,22,0,1,,,,,,,,,,,,,,,,,,
,,,,,,,,,,,,,,,90451,001,2022-04-25_10h02.58.575,SPAMnetsValid,2021.1.4,MacIntel,60.0240096,,,,,,,,,,,,,,,,,,,,,,,,,,,,,,,,,,,,,,,,,,,,,,,,,,,,,,,,,,,,,,,,,pig,Animals,23,0,23,0,1,,,,,,,,,,,,,,,,,,
,,,,,,,,,,,,,,,90451,001,2022-04-25_10h02.58.575,SPAMnetsValid,2021.1.4,MacIntel,60.0240096,,,,,,,,,,,,,,,,,,,,,,,,,,,,,,,,,,,,,,,,,,,,,,,,,,,,,,,,,,,,,,,,,cow,Animals,24,0,24,0,1,,,,,,,,,,,,,,,,,,
,,,,,,,,,,,,,,,90451,001,2022-04-25_10h02.58.575,SPAMnetsValid,2021.1.4,MacIntel,60.0240096,,,,,,,,,,,,,,,,,,,,,,,,,,,,,,,,,,,,,,,,,,,,,,,,,,,,,,,,,,,,,,,,,horse,Animals,25,0,25,0,1,,,,,,,,,,,,,,,,,,
,,,,,,,,,,,,,,,90451,001,2022-04-25_10h02.58.575,SPAMnetsValid,2021.1.4,MacIntel,60.0240096,,,,,,,,,,,,,,,,,,,,,,,,,,,,,,,,,,,,,,,,,,,,,,,,,,,,,,,,,,,,,,,,,wilder beast,Animals,26,0,26,0,1,,,,,,,,,,,,,,,,,,
,,,,,,,,,,,,,,,90451,001,2022-04-25_10h02.58.575,SPAMnetsValid,2021.1.4,MacIntel,60.0240096,,,,,,,,,,,,,,,,,,,,,,,,,,,,,,,,,,,,,,,,,,,,,,,,,,,,,,,,,,,,,,,,,goose,Animals,27,0,27,0,1,,,,,,,,,,,,,,,,,,
,,,,,,,,,,,,,,,90451,001,2022-04-25_10h02.58.575,SPAMnetsValid,2021.1.4,MacIntel,60.0240096,,,,,,,,,,,,,,,,,,,,,,,,,,,,,,,,,,,,,,,,,,,,,,,,,,,,,,,,,,,,,,,,,,,,,,,,0,0,0,0,1,Animals,,,,,,,,,,,,
,,,,,,,,,,,,,,,90451,001,2022-04-25_10h02.58.575,SPAMnetsValid,2021.1.4,MacIntel,60.0240096,,,,,,,,,,,,,,,,,,,,,,,,,,,,,,,,,,,,,,,,,,,,,,,,,,,,,,,,,,,,,,,,,,,,,,,,,,,,,,4,8.178,0,0,0,0,1,"I enjoy concentrating on a fantasy or daydream and exploring all its possibilities, letting it grow and develop.",0,1,,
,,,,,,,,,,,,,,,90451,001,2022-04-25_10h02.58.575,SPAMnetsValid,2021.1.4,MacIntel,60.0240096,,,,,,,,,,,,,,,,,,,,,,,,,,,,,,,,,,,,,,,,,,,,,,,,,,,,,,,,,,,,,,,,,,,,,,,,,,,,,,5,2.522,0,1,1,1,1,I think it's interesting to learn and develop new hobbies.,0,2,,
,,,,,,,,,,,,,,,90451,001,2022-04-25_10h02.58.575,SPAMnetsValid,2021.1.4,MacIntel,60.0240096,,,,,,,,,,,,,,,,,,,,,,,,,,,,,,,,,,,,,,,,,,,,,,,,,,,,,,,,,,,,,,,,,,,,,,,,,,,,,,4,5.143,0,2,2,2,1,I am intrigued by the patterns I find in art and nature.,0,3,,
,,,,,,,,,,,,,,,90451,001,2022-04-25_10h02.58.575,SPAMnetsValid,2021.1.4,MacIntel,60.0240096,,,,,,,,,,,,,,,,,,,,,,,,,,,,,,,,,,,,,,,,,,,,,,,,,,,,,,,,,,,,,,,,,,,,,,,,,,,,,,4,6.806,0,3,3,3,1,I believe letting students hear controversial speakers can only confuse and mislead them.,1,4,,
,,,,,,,,,,,,,,,90451,001,2022-04-25_10h02.58.575,SPAMnetsValid,2021.1.4,MacIntel,60.0240096,,,,,,,,,,,,,,,,,,,,,,,,,,,,,,,,,,,,,,,,,,,,,,,,,,,,,,,,,,,,,,,,,,,,,,,,,,,,,,5,2.544,0,4,4,4,1,Poetry has little or no effect on me.,1,5,,
,,,,,,,,,,,,,,,90451,001,2022-04-25_10h02.58.575,SPAMnetsValid,2021.1.4,MacIntel,60.0240096,,,,,,,,,,,,,,,,,,,,,,,,,,,,,,,,,,,,,,,,,,,,,,,,,,,,,,,,,,,,,,,,,,,,,,,,,,,,,,2,8.507,0,5,5,5,1,I would have difficulty just letting my mind wander without control or guidance.,1,6,,
,,,,,,,,,,,,,,,90451,001,2022-04-25_10h02.58.575,SPAMnetsValid,2021.1.4,MacIntel,60.0240096,,,,,,,,,,,,,,,,,,,,,,,,,,,,,,,,,,,,,,,,,,,,,,,,,,,,,,,,,,,,,,,,,,,,,,,,,,,,,,2,6.237,0,6,6,6,1,I seldom notice the moods or feelings that different environments produce.,1,7,,
,,,,,,,,,,,,,,,90451,001,2022-04-25_10h02.58.575,SPAMnetsValid,2021.1.4,MacIntel,60.0240096,,,,,,,,,,,,,,,,,,,,,,,,,,,,,,,,,,,,,,,,,,,,,,,,,,,,,,,,,,,,,,,,,,,,,,,,,,,,,,2,4.073,0,7,7,7,1,I experience a wide range of emotions or feelings.,0,8,,
,,,,,,,,,,,,,,,90451,001,2022-04-25_10h02.58.575,SPAMnetsValid,2021.1.4,MacIntel,60.0240096,,,,,,,,,,,,,,,,,,,,,,,,,,,,,,,,,,,,,,,,,,,,,,,,,,,,,,,,,,,,,,,,,,,,,,,,,,,,,,1,6.004,0,8,8,8,1,"Sometimes when I am reading poetry or looking at a work of art, I feel a chill or wave of excitement.",0,9,,
,,,,,,,,,,,,,,,90451,001,2022-04-25_10h02.58.575,SPAMnetsValid,2021.1.4,MacIntel,60.0240096,,,,,,,,,,,,,,,,,,,,,,,,,,,,,,,,,,,,,,,,,,,,,,,,,,,,,,,,,,,,,,,,,,,,,,,,,,,,,,4,4.408,0,9,9,9,1,I have little interest in speculating on the nature of the universe or the human condition.,1,10,,
,,,,,,,,,,,,,,,90451,001,2022-04-25_10h02.58.575,SPAMnetsValid,2021.1.4,MacIntel,60.0240096,,,,,,,,,,,,,,,,,,,,,,,,,,,,,,,,,,,,,,,,,,,,,,,,,,,,,,,,,,,,,,,,,,,,,,,,,,,,,,5,2.121,0,10,10,10,1,I have a lot of intellectual curiosity.,0,11,,
,,,,,,,,,,,,,,,90451,001,2022-04-25_10h02.58.575,SPAMnetsValid,2021.1.4,MacIntel,60.0240096,,,,,,,,,,,,,,,,,,,,,,,,,,,,,,,,,,,,,,,,,,,,,,,,,,,,,,,,,,,,,,,,,,,,,,,,,,,,,,5,3.294,0,11,11,11,1,I often enjoy playing with theories or abstract ideas.,0,12,,
,,,,,,,,,,,,,,,90451,001,2022-04-25_10h02.58.575,SPAMnetsValid,2021.1.4,MacIntel,60.0240096,,,,,,,,,,,,,,,,,,,,,,,,,,,,,,,,,,,,,,,,,,,,,,,,,,,,,,,,,,,,,,,,,,,,,,,,,,,,,,,,,,,,,,,,return,14.44
