key_resp_3.keys,key_resp_3.rt,slider_2.response,slider_2.rt,rjt_rating,rjt_RT,trials_24.thisRepN,trials_24.thisTrialN,trials_24.thisN,trials_24.thisIndex,trials_24.ran,rjt_order,word1,word2,attention,participant,session,date,expName,psychopyVersion,OS,frameRate,trials_4.thisRepN,trials_4.thisTrialN,trials_4.thisN,trials_4.thisIndex,trials_4.ran,trials_5.thisRepN,trials_5.thisTrialN,trials_5.thisN,trials_5.thisIndex,trials_5.ran,repOne,repTwo,slider.response,slider.rt,trials_22.thisRepN,trials_22.thisTrialN,trials_22.thisN,trials_22.thisIndex,trials_22.ran,trials_99.thisRepN,trials_99.thisTrialN,trials_99.thisN,trials_99.thisIndex,trials_99.ran,slider_extend_2.response,slider_extend_2.rt,trials_6.thisRepN,trials_6.thisTrialN,trials_6.thisN,trials_6.thisIndex,trials_6.ran,vCue2,R1,R2,R3,R4,correct,sliderVocab.response,sliderVocab.rt,trials_7.thisRepN,trials_7.thisTrialN,trials_7.thisN,trials_7.thisIndex,trials_7.ran,VocabCue,VR1,VR2,VR3,VR4,VR5,VocabCorrect,AUT_resp,AUT_label,trials.thisRepN,trials.thisTrialN,trials.thisN,trials.thisIndex,trials.ran,trials_2.thisRepN,trials_2.thisTrialN,trials_2.thisN,trials_2.thisIndex,trials_2.ran,aut_prompt,VF_response,VF_tag,trials_16.thisRepN,trials_16.thisTrialN,trials_16.thisN,trials_16.thisIndex,trials_16.ran,trials_17.thisRepN,trials_17.thisTrialN,trials_17.thisN,trials_17.thisIndex,trials_17.ran,VFcond,open_slider.response,open_slider.rt,trials_3.thisRepN,trials_3.thisTrialN,trials_3.thisN,trials_3.thisIndex,trials_3.ran,OpenQ,Rev,OPEN_ORDER,key_resp_2.keys,key_resp_2.rt
return,13.1656,8,10.2374,8,10.2374,0,0,0,22,1,142,garden,tree,,90450,001,2022-04-25_00h22.57.880,SPAMnetsValid,2021.1.4,Win32,144.2169022,,,,,,,,,,,,,,,,,,,,,,,,,,,,,,,,,,,,,,,,,,,,,,,,,,,,,,,,,,,,,,,,,,,,,,,,,,,,,,,,,,,,,,,,,
,,2,4.5419,2,4.5419,0,1,1,82,1,98,pretzel,strawberry,,90450,001,2022-04-25_00h22.57.880,SPAMnetsValid,2021.1.4,Win32,144.2169022,,,,,,,,,,,,,,,,,,,,,,,,,,,,,,,,,,,,,,,,,,,,,,,,,,,,,,,,,,,,,,,,,,,,,,,,,,,,,,,,,,,,,,,,,
,,3,3.4285,3,3.4285,0,2,2,62,1,189,onion,tree,,90450,001,2022-04-25_00h22.57.880,SPAMnetsValid,2021.1.4,Win32,144.2169022,,,,,,,,,,,,,,,,,,,,,,,,,,,,,,,,,,,,,,,,,,,,,,,,,,,,,,,,,,,,,,,,,,,,,,,,,,,,,,,,,,,,,,,,,
,,1,2.4724,1,2.4724,0,3,3,57,1,127,cactus,chocolate,,90450,001,2022-04-25_00h22.57.880,SPAMnetsValid,2021.1.4,Win32,144.2169022,,,,,,,,,,,,,,,,,,,,,,,,,,,,,,,,,,,,,,,,,,,,,,,,,,,,,,,,,,,,,,,,,,,,,,,,,,,,,,,,,,,,,,,,,
,,1,2.3828,1,2.3828,0,4,4,34,1,153,carrot,pretzel,,90450,001,2022-04-25_00h22.57.880,SPAMnetsValid,2021.1.4,Win32,144.2169022,,,,,,,,,,,,,,,,,,,,,,,,,,,,,,,,,,,,,,,,,,,,,,,,,,,,,,,,,,,,,,,,,,,,,,,,,,,,,,,,,,,,,,,,,
,,6,2.0057,6,2.0057,0,5,5,91,1,166,cake,yogurt,,90450,001,2022-04-25_00h22.57.880,SPAMnetsValid,2021.1.4,Win32,144.2169022,,,,,,,,,,,,,,,,,,,,,,,,,,,,,,,,,,,,,,,,,,,,,,,,,,,,,,,,,,,,,,,,,,,,,,,,,,,,,,,,,,,,,,,,,
,,1,2.0434,1,2.0434,0,6,6,4,1,109,broom,strawberry,,90450,001,2022-04-25_00h22.57.880,SPAMnetsValid,2021.1.4,Win32,144.2169022,,,,,,,,,,,,,,,,,,,,,,,,,,,,,,,,,,,,,,,,,,,,,,,,,,,,,,,,,,,,,,,,,,,,,,,,,,,,,,,,,,,,,,,,,
,,4,16.63,4,16.63,0,7,7,10,1,118,chocolate,oven,,90450,001,2022-04-25_00h22.57.880,SPAMnetsValid,2021.1.4,Win32,144.2169022,,,,,,,,,,,,,,,,,,,,,,,,,,,,,,,,,,,,,,,,,,,,,,,,,,,,,,,,,,,,,,,,,,,,,,,,,,,,,,,,,,,,,,,,,
,,1,1.5523,1,1.5523,0,8,8,71,1,187,cactus,microwave,,90450,001,2022-04-25_00h22.57.880,SPAMnetsValid,2021.1.4,Win32,144.2169022,,,,,,,,,,,,,,,,,,,,,,,,,,,,,,,,,,,,,,,,,,,,,,,,,,,,,,,,,,,,,,,,,,,,,,,,,,,,,,,,,,,,,,,,,
,,1,1.5385,1,1.5385,0,9,9,68,1,180,tree,yogurt,,90450,001,2022-04-25_00h22.57.880,SPAMnetsValid,2021.1.4,Win32,144.2169022,,,,,,,,,,,,,,,,,,,,,,,,,,,,,,,,,,,,,,,,,,,,,,,,,,,,,,,,,,,,,,,,,,,,,,,,,,,,,,,,,,,,,,,,,
,,1,1.4279,1,1.4279,0,10,10,88,1,171,cake,tomato,,90450,001,2022-04-25_00h22.57.880,SPAMnetsValid,2021.1.4,Win32,144.2169022,,,,,,,,,,,,,,,,,,,,,,,,,,,,,,,,,,,,,,,,,,,,,,,,,,,,,,,,,,,,,,,,,,,,,,,,,,,,,,,,,,,,,,,,,
,,2,2.9202,2,2.9202,0,11,11,78,1,132,broom,tree,,90450,001,2022-04-25_00h22.57.880,SPAMnetsValid,2021.1.4,Win32,144.2169022,,,,,,,,,,,,,,,,,,,,,,,,,,,,,,,,,,,,,,,,,,,,,,,,,,,,,,,,,,,,,,,,,,,,,,,,,,,,,,,,,,,,,,,,,
,,1,2.4458,1,2.4458,0,12,12,49,1,152,cactus,strawberry,,90450,001,2022-04-25_00h22.57.880,SPAMnetsValid,2021.1.4,Win32,144.2169022,,,,,,,,,,,,,,,,,,,,,,,,,,,,,,,,,,,,,,,,,,,,,,,,,,,,,,,,,,,,,,,,,,,,,,,,,,,,,,,,,,,,,,,,,
,,1,5.2316,1,5.2316,0,13,13,84,1,130,microwave,yogurt,,90450,001,2022-04-25_00h22.57.880,SPAMnetsValid,2021.1.4,Win32,144.2169022,,,,,,,,,,,,,,,,,,,,,,,,,,,,,,,,,,,,,,,,,,,,,,,,,,,,,,,,,,,,,,,,,,,,,,,,,,,,,,,,,,,,,,,,,
,,1,1.4464,1,1.4464,0,14,14,12,1,162,microwave,tomato,,90450,001,2022-04-25_00h22.57.880,SPAMnetsValid,2021.1.4,Win32,144.2169022,,,,,,,,,,,,,,,,,,,,,,,,,,,,,,,,,,,,,,,,,,,,,,,,,,,,,,,,,,,,,,,,,,,,,,,,,,,,,,,,,,,,,,,,,
,,2,2.1316,2,2.1316,0,15,15,45,1,179,broom,oven,,90450,001,2022-04-25_00h22.57.880,SPAMnetsValid,2021.1.4,Win32,144.2169022,,,,,,,,,,,,,,,,,,,,,,,,,,,,,,,,,,,,,,,,,,,,,,,,,,,,,,,,,,,,,,,,,,,,,,,,,,,,,,,,,,,,,,,,,
,,1,1.9461,1,1.9461,0,16,16,19,1,183,cake,rose,,90450,001,2022-04-25_00h22.57.880,SPAMnetsValid,2021.1.4,Win32,144.2169022,,,,,,,,,,,,,,,,,,,,,,,,,,,,,,,,,,,,,,,,,,,,,,,,,,,,,,,,,,,,,,,,,,,,,,,,,,,,,,,,,,,,,,,,,
,,1,1.2446,1,1.2446,0,17,17,64,1,157,refrigerator,rose,,90450,001,2022-04-25_00h22.57.880,SPAMnetsValid,2021.1.4,Win32,144.2169022,,,,,,,,,,,,,,,,,,,,,,,,,,,,,,,,,,,,,,,,,,,,,,,,,,,,,,,,,,,,,,,,,,,,,,,,,,,,,,,,,,,,,,,,,
,,9,2.0711,9,2.0711,0,18,18,83,1,100,garden,tomato,,90450,001,2022-04-25_00h22.57.880,SPAMnetsValid,2021.1.4,Win32,144.2169022,,,,,,,,,,,,,,,,,,,,,,,,,,,,,,,,,,,,,,,,,,,,,,,,,,,,,,,,,,,,,,,,,,,,,,,,,,,,,,,,,,,,,,,,,
,,1,2.7747,1,2.7747,0,19,19,90,1,190,microwave,strawberry,,90450,001,2022-04-25_00h22.57.880,SPAMnetsValid,2021.1.4,Win32,144.2169022,,,,,,,,,,,,,,,,,,,,,,,,,,,,,,,,,,,,,,,,,,,,,,,,,,,,,,,,,,,,,,,,,,,,,,,,,,,,,,,,,,,,,,,,,
,,1,4.4493,1,4.4493,0,20,20,46,1,123,cookie,tree,,90450,001,2022-04-25_00h22.57.880,SPAMnetsValid,2021.1.4,Win32,144.2169022,,,,,,,,,,,,,,,,,,,,,,,,,,,,,,,,,,,,,,,,,,,,,,,,,,,,,,,,,,,,,,,,,,,,,,,,,,,,,,,,,,,,,,,,,
,,7,2.7308,7,2.7308,0,21,21,53,1,177,chocolate,strawberry,,90450,001,2022-04-25_00h22.57.880,SPAMnetsValid,2021.1.4,Win32,144.2169022,,,,,,,,,,,,,,,,,,,,,,,,,,,,,,,,,,,,,,,,,,,,,,,,,,,,,,,,,,,,,,,,,,,,,,,,,,,,,,,,,,,,,,,,,
,,7,2.3744,7,2.3744,0,22,22,35,1,147,cake,refrigerator,,90450,001,2022-04-25_00h22.57.880,SPAMnetsValid,2021.1.4,Win32,144.2169022,,,,,,,,,,,,,,,,,,,,,,,,,,,,,,,,,,,,,,,,,,,,,,,,,,,,,,,,,,,,,,,,,,,,,,,,,,,,,,,,,,,,,,,,,
,,8,3.373,8,3.373,0,23,23,44,1,116,cake,chocolate,,90450,001,2022-04-25_00h22.57.880,SPAMnetsValid,2021.1.4,Win32,144.2169022,,,,,,,,,,,,,,,,,,,,,,,,,,,,,,,,,,,,,,,,,,,,,,,,,,,,,,,,,,,,,,,,,,,,,,,,,,,,,,,,,,,,,,,,,
,,1,2.7031,1,2.7031,0,24,24,80,1,146,pretzel,tree,,90450,001,2022-04-25_00h22.57.880,SPAMnetsValid,2021.1.4,Win32,144.2169022,,,,,,,,,,,,,,,,,,,,,,,,,,,,,,,,,,,,,,,,,,,,,,,,,,,,,,,,,,,,,,,,,,,,,,,,,,,,,,,,,,,,,,,,,
,,4,2.3822,4,2.3822,0,25,25,43,1,185,cactus,rose,,90450,001,2022-04-25_00h22.57.880,SPAMnetsValid,2021.1.4,Win32,144.2169022,,,,,,,,,,,,,,,,,,,,,,,,,,,,,,,,,,,,,,,,,,,,,,,,,,,,,,,,,,,,,,,,,,,,,,,,,,,,,,,,,,,,,,,,,
,,9,1.9575,9,1.9575,0,26,26,61,1,138,flower,rose,,90450,001,2022-04-25_00h22.57.880,SPAMnetsValid,2021.1.4,Win32,144.2169022,,,,,,,,,,,,,,,,,,,,,,,,,,,,,,,,,,,,,,,,,,,,,,,,,,,,,,,,,,,,,,,,,,,,,,,,,,,,,,,,,,,,,,,,,
,,2,1.8329,2,1.8329,0,27,27,40,1,165,onion,rose,,90450,001,2022-04-25_00h22.57.880,SPAMnetsValid,2021.1.4,Win32,144.2169022,,,,,,,,,,,,,,,,,,,,,,,,,,,,,,,,,,,,,,,,,,,,,,,,,,,,,,,,,,,,,,,,,,,,,,,,,,,,,,,,,,,,,,,,,
,,3,10.6071,3,10.6071,0,28,28,18,1,119,strawberry,tree,,90450,001,2022-04-25_00h22.57.880,SPAMnetsValid,2021.1.4,Win32,144.2169022,,,,,,,,,,,,,,,,,,,,,,,,,,,,,,,,,,,,,,,,,,,,,,,,,,,,,,,,,,,,,,,,,,,,,,,,,,,,,,,,,,,,,,,,,
,,8,2.7726,8,2.7726,0,29,29,66,1,150,microwave,refrigerator,,90450,001,2022-04-25_00h22.57.880,SPAMnetsValid,2021.1.4,Win32,144.2169022,,,,,,,,,,,,,,,,,,,,,,,,,,,,,,,,,,,,,,,,,,,,,,,,,,,,,,,,,,,,,,,,,,,,,,,,,,,,,,,,,,,,,,,,,
,,7,2.156,7,2.156,0,30,30,11,1,117,melon,strawberry,,90450,001,2022-04-25_00h22.57.880,SPAMnetsValid,2021.1.4,Win32,144.2169022,,,,,,,,,,,,,,,,,,,,,,,,,,,,,,,,,,,,,,,,,,,,,,,,,,,,,,,,,,,,,,,,,,,,,,,,,,,,,,,,,,,,,,,,,
,,2,2.4359,2,2.4359,0,31,31,67,1,96,oven,strawberry,,90450,001,2022-04-25_00h22.57.880,SPAMnetsValid,2021.1.4,Win32,144.2169022,,,,,,,,,,,,,,,,,,,,,,,,,,,,,,,,,,,,,,,,,,,,,,,,,,,,,,,,,,,,,,,,,,,,,,,,,,,,,,,,,,,,,,,,,
,,2,4.759,2,4.759,0,32,32,74,1,128,melon,microwave,,90450,001,2022-04-25_00h22.57.880,SPAMnetsValid,2021.1.4,Win32,144.2169022,,,,,,,,,,,,,,,,,,,,,,,,,,,,,,,,,,,,,,,,,,,,,,,,,,,,,,,,,,,,,,,,,,,,,,,,,,,,,,,,,,,,,,,,,
,,2,12.953,2,12.953,0,33,33,50,1,126,kitchen,tree,,90450,001,2022-04-25_00h22.57.880,SPAMnetsValid,2021.1.4,Win32,144.2169022,,,,,,,,,,,,,,,,,,,,,,,,,,,,,,,,,,,,,,,,,,,,,,,,,,,,,,,,,,,,,,,,,,,,,,,,,,,,,,,,,,,,,,,,,
,,1,1.664,1,1.664,0,34,34,79,1,103,pretzel,tomato,,90450,001,2022-04-25_00h22.57.880,SPAMnetsValid,2021.1.4,Win32,144.2169022,,,,,,,,,,,,,,,,,,,,,,,,,,,,,,,,,,,,,,,,,,,,,,,,,,,,,,,,,,,,,,,,,,,,,,,,,,,,,,,,,,,,,,,,,
,,9,1.5933,9,1.5933,0,35,35,47,1,167,carrot,garden,,90450,001,2022-04-25_00h22.57.880,SPAMnetsValid,2021.1.4,Win32,144.2169022,,,,,,,,,,,,,,,,,,,,,,,,,,,,,,,,,,,,,,,,,,,,,,,,,,,,,,,,,,,,,,,,,,,,,,,,,,,,,,,,,,,,,,,,,
,,1,2.8768,1,2.8768,0,36,36,3,1,129,cactus,refrigerator,,90450,001,2022-04-25_00h22.57.880,SPAMnetsValid,2021.1.4,Win32,144.2169022,,,,,,,,,,,,,,,,,,,,,,,,,,,,,,,,,,,,,,,,,,,,,,,,,,,,,,,,,,,,,,,,,,,,,,,,,,,,,,,,,,,,,,,,,
,,2,2.2494,2,2.2494,0,37,37,38,1,155,carrot,cookie,,90450,001,2022-04-25_00h22.57.880,SPAMnetsValid,2021.1.4,Win32,144.2169022,,,,,,,,,,,,,,,,,,,,,,,,,,,,,,,,,,,,,,,,,,,,,,,,,,,,,,,,,,,,,,,,,,,,,,,,,,,,,,,,,,,,,,,,,
,,7,2.57,7,2.57,0,38,38,75,1,178,cactus,carrot,,90450,001,2022-04-25_00h22.57.880,SPAMnetsValid,2021.1.4,Win32,144.2169022,,,,,,,,,,,,,,,,,,,,,,,,,,,,,,,,,,,,,,,,,,,,,,,,,,,,,,,,,,,,,,,,,,,,,,,,,,,,,,,,,,,,,,,,,
,,2,2.1508,2,2.1508,0,39,39,94,1,133,cake,flower,,90450,001,2022-04-25_00h22.57.880,SPAMnetsValid,2021.1.4,Win32,144.2169022,,,,,,,,,,,,,,,,,,,,,,,,,,,,,,,,,,,,,,,,,,,,,,,,,,,,,,,,,,,,,,,,,,,,,,,,,,,,,,,,,,,,,,,,,
,,3,2.4049,3,2.4049,0,40,40,63,1,137,microwave,tree,,90450,001,2022-04-25_00h22.57.880,SPAMnetsValid,2021.1.4,Win32,144.2169022,,,,,,,,,,,,,,,,,,,,,,,,,,,,,,,,,,,,,,,,,,,,,,,,,,,,,,,,,,,,,,,,,,,,,,,,,,,,,,,,,,,,,,,,,
,,8,3.3535,8,3.3535,0,41,41,14,1,120,microwave,oven,,90450,001,2022-04-25_00h22.57.880,SPAMnetsValid,2021.1.4,Win32,144.2169022,,,,,,,,,,,,,,,,,,,,,,,,,,,,,,,,,,,,,,,,,,,,,,,,,,,,,,,,,,,,,,,,,,,,,,,,,,,,,,,,,,,,,,,,,
,,4,3.3473,4,3.3473,0,42,42,89,1,140,cookie,refrigerator,,90450,001,2022-04-25_00h22.57.880,SPAMnetsValid,2021.1.4,Win32,144.2169022,,,,,,,,,,,,,,,,,,,,,,,,,,,,,,,,,,,,,,,,,,,,,,,,,,,,,,,,,,,,,,,,,,,,,,,,,,,,,,,,,,,,,,,,,
,,1,2.8094,1,2.8094,0,43,43,5,1,108,carrot,chocolate,,90450,001,2022-04-25_00h22.57.880,SPAMnetsValid,2021.1.4,Win32,144.2169022,,,,,,,,,,,,,,,,,,,,,,,,,,,,,,,,,,,,,,,,,,,,,,,,,,,,,,,,,,,,,,,,,,,,,,,,,,,,,,,,,,,,,,,,,
,,6,2.4506,6,2.4506,0,44,44,41,1,175,melon,onion,,90450,001,2022-04-25_00h22.57.880,SPAMnetsValid,2021.1.4,Win32,144.2169022,,,,,,,,,,,,,,,,,,,,,,,,,,,,,,,,,,,,,,,,,,,,,,,,,,,,,,,,,,,,,,,,,,,,,,,,,,,,,,,,,,,,,,,,,
,,7,1.9875,7,1.9875,0,45,45,72,1,181,carrot,kitchen,,90450,001,2022-04-25_00h22.57.880,SPAMnetsValid,2021.1.4,Win32,144.2169022,,,,,,,,,,,,,,,,,,,,,,,,,,,,,,,,,,,,,,,,,,,,,,,,,,,,,,,,,,,,,,,,,,,,,,,,,,,,,,,,,,,,,,,,,
,,7,3.9722,7,3.9722,0,46,46,8,1,97,chocolate,kitchen,,90450,001,2022-04-25_00h22.57.880,SPAMnetsValid,2021.1.4,Win32,144.2169022,,,,,,,,,,,,,,,,,,,,,,,,,,,,,,,,,,,,,,,,,,,,,,,,,,,,,,,,,,,,,,,,,,,,,,,,,,,,,,,,,,,,,,,,,
,,1,2.2529,1,2.2529,0,47,47,15,1,145,cactus,yogurt,,90450,001,2022-04-25_00h22.57.880,SPAMnetsValid,2021.1.4,Win32,144.2169022,,,,,,,,,,,,,,,,,,,,,,,,,,,,,,,,,,,,,,,,,,,,,,,,,,,,,,,,,,,,,,,,,,,,,,,,,,,,,,,,,,,,,,,,,
,,5,3.4644,5,3.4644,0,48,48,33,1,131,cactus,garden,,90450,001,2022-04-25_00h22.57.880,SPAMnetsValid,2021.1.4,Win32,144.2169022,,,,,,,,,,,,,,,,,,,,,,,,,,,,,,,,,,,,,,,,,,,,,,,,,,,,,,,,,,,,,,,,,,,,,,,,,,,,,,,,,,,,,,,,,
,,7,3.3675,7,3.3675,0,49,49,77,1,172,kitchen,melon,,90450,001,2022-04-25_00h22.57.880,SPAMnetsValid,2021.1.4,Win32,144.2169022,,,,,,,,,,,,,,,,,,,,,,,,,,,,,,,,,,,,,,,,,,,,,,,,,,,,,,,,,,,,,,,,,,,,,,,,,,,,,,,,,,,,,,,,,
,,5,3.5587,5,3.5587,0,50,50,23,1,148,flower,melon,,90450,001,2022-04-25_00h22.57.880,SPAMnetsValid,2021.1.4,Win32,144.2169022,,,,,,,,,,,,,,,,,,,,,,,,,,,,,,,,,,,,,,,,,,,,,,,,,,,,,,,,,,,,,,,,,,,,,,,,,,,,,,,,,,,,,,,,,
,,3,3.843,3,3.843,0,51,51,2,1,174,cake,pretzel,,90450,001,2022-04-25_00h22.57.880,SPAMnetsValid,2021.1.4,Win32,144.2169022,,,,,,,,,,,,,,,,,,,,,,,,,,,,,,,,,,,,,,,,,,,,,,,,,,,,,,,,,,,,,,,,,,,,,,,,,,,,,,,,,,,,,,,,,
,,5,3.1551,5,3.1551,0,52,52,42,1,184,oven,pretzel,,90450,001,2022-04-25_00h22.57.880,SPAMnetsValid,2021.1.4,Win32,144.2169022,,,,,,,,,,,,,,,,,,,,,,,,,,,,,,,,,,,,,,,,,,,,,,,,,,,,,,,,,,,,,,,,,,,,,,,,,,,,,,,,,,,,,,,,,
,,6,3.3569,6,3.3569,0,53,53,76,1,102,chocolate,refrigerator,,90450,001,2022-04-25_00h22.57.880,SPAMnetsValid,2021.1.4,Win32,144.2169022,,,,,,,,,,,,,,,,,,,,,,,,,,,,,,,,,,,,,,,,,,,,,,,,,,,,,,,,,,,,,,,,,,,,,,,,,,,,,,,,,,,,,,,,,
,,2,4.6733,2,4.6733,0,54,54,55,1,143,pretzel,rose,,90450,001,2022-04-25_00h22.57.880,SPAMnetsValid,2021.1.4,Win32,144.2169022,,,,,,,,,,,,,,,,,,,,,,,,,,,,,,,,,,,,,,,,,,,,,,,,,,,,,,,,,,,,,,,,,,,,,,,,,,,,,,,,,,,,,,,,,
,,4,3.459,4,3.459,0,55,55,51,1,168,cactus,flower,,90450,001,2022-04-25_00h22.57.880,SPAMnetsValid,2021.1.4,Win32,144.2169022,,,,,,,,,,,,,,,,,,,,,,,,,,,,,,,,,,,,,,,,,,,,,,,,,,,,,,,,,,,,,,,,,,,,,,,,,,,,,,,,,,,,,,,,,
,,2,7.0609,2,7.0609,0,56,56,20,1,149,broom,tomato,,90450,001,2022-04-25_00h22.57.880,SPAMnetsValid,2021.1.4,Win32,144.2169022,,,,,,,,,,,,,,,,,,,,,,,,,,,,,,,,,,,,,,,,,,,,,,,,,,,,,,,,,,,,,,,,,,,,,,,,,,,,,,,,,,,,,,,,,
,,8,8.4394,8,8.4394,0,57,57,56,1,113,refrigerator,strawberry,,90450,001,2022-04-25_00h22.57.880,SPAMnetsValid,2021.1.4,Win32,144.2169022,,,,,,,,,,,,,,,,,,,,,,,,,,,,,,,,,,,,,,,,,,,,,,,,,,,,,,,,,,,,,,,,,,,,,,,,,,,,,,,,,,,,,,,,,
,,4,11.318,4,11.318,0,58,58,7,1,188,flower,tree,,90450,001,2022-04-25_00h22.57.880,SPAMnetsValid,2021.1.4,Win32,144.2169022,,,,,,,,,,,,,,,,,,,,,,,,,,,,,,,,,,,,,,,,,,,,,,,,,,,,,,,,,,,,,,,,,,,,,,,,,,,,,,,,,,,,,,,,,
,,7,8.9662,7,8.9662,0,59,59,48,1,186,kitchen,yogurt,,90450,001,2022-04-25_00h22.57.880,SPAMnetsValid,2021.1.4,Win32,144.2169022,,,,,,,,,,,,,,,,,,,,,,,,,,,,,,,,,,,,,,,,,,,,,,,,,,,,,,,,,,,,,,,,,,,,,,,,,,,,,,,,,,,,,,,,,
,,6,4.6659,6,4.6659,0,60,60,37,1,139,carrot,strawberry,,90450,001,2022-04-25_00h22.57.880,SPAMnetsValid,2021.1.4,Win32,144.2169022,,,,,,,,,,,,,,,,,,,,,,,,,,,,,,,,,,,,,,,,,,,,,,,,,,,,,,,,,,,,,,,,,,,,,,,,,,,,,,,,,,,,,,,,,
,,8,2.4011,8,2.4011,0,61,61,29,1,163,melon,refrigerator,,90450,001,2022-04-25_00h22.57.880,SPAMnetsValid,2021.1.4,Win32,144.2169022,,,,,,,,,,,,,,,,,,,,,,,,,,,,,,,,,,,,,,,,,,,,,,,,,,,,,,,,,,,,,,,,,,,,,,,,,,,,,,,,,,,,,,,,,
,,5,5.2873,5,5.2873,0,62,62,36,1,161,kitchen,pretzel,,90450,001,2022-04-25_00h22.57.880,SPAMnetsValid,2021.1.4,Win32,144.2169022,,,,,,,,,,,,,,,,,,,,,,,,,,,,,,,,,,,,,,,,,,,,,,,,,,,,,,,,,,,,,,,,,,,,,,,,,,,,,,,,,,,,,,,,,
,,9,4.9642,9,4.9642,0,63,63,17,1,99,garden,melon,,90450,001,2022-04-25_00h22.57.880,SPAMnetsValid,2021.1.4,Win32,144.2169022,,,,,,,,,,,,,,,,,,,,,,,,,,,,,,,,,,,,,,,,,,,,,,,,,,,,,,,,,,,,,,,,,,,,,,,,,,,,,,,,,,,,,,,,,
,,9,1.5842,9,1.5842,0,64,64,25,1,194,cactus,cactus,CHECK,90450,001,2022-04-25_00h22.57.880,SPAMnetsValid,2021.1.4,Win32,144.2169022,,,,,,,,,,,,,,,,,,,,,,,,,,,,,,,,,,,,,,,,,,,,,,,,,,,,,,,,,,,,,,,,,,,,,,,,,,,,,,,,,,,,,,,,,
,,6,2.0538,6,2.0538,0,65,65,6,1,151,microwave,onion,,90450,001,2022-04-25_00h22.57.880,SPAMnetsValid,2021.1.4,Win32,144.2169022,,,,,,,,,,,,,,,,,,,,,,,,,,,,,,,,,,,,,,,,,,,,,,,,,,,,,,,,,,,,,,,,,,,,,,,,,,,,,,,,,,,,,,,,,
,,2,6.8386,2,6.8386,0,66,66,32,1,182,flower,refrigerator,,90450,001,2022-04-25_00h22.57.880,SPAMnetsValid,2021.1.4,Win32,144.2169022,,,,,,,,,,,,,,,,,,,,,,,,,,,,,,,,,,,,,,,,,,,,,,,,,,,,,,,,,,,,,,,,,,,,,,,,,,,,,,,,,,,,,,,,,
,,9,1.9377,9,1.9377,0,67,67,52,1,110,chocolate,cookie,,90450,001,2022-04-25_00h22.57.880,SPAMnetsValid,2021.1.4,Win32,144.2169022,,,,,,,,,,,,,,,,,,,,,,,,,,,,,,,,,,,,,,,,,,,,,,,,,,,,,,,,,,,,,,,,,,,,,,,,,,,,,,,,,,,,,,,,,
,,1,1.8852,1,1.8852,0,68,68,13,1,105,cactus,oven,,90450,001,2022-04-25_00h22.57.880,SPAMnetsValid,2021.1.4,Win32,144.2169022,,,,,,,,,,,,,,,,,,,,,,,,,,,,,,,,,,,,,,,,,,,,,,,,,,,,,,,,,,,,,,,,,,,,,,,,,,,,,,,,,,,,,,,,,
,,8,2.04,8,2.04,0,69,69,60,1,122,flower,garden,,90450,001,2022-04-25_00h22.57.880,SPAMnetsValid,2021.1.4,Win32,144.2169022,,,,,,,,,,,,,,,,,,,,,,,,,,,,,,,,,,,,,,,,,,,,,,,,,,,,,,,,,,,,,,,,,,,,,,,,,,,,,,,,,,,,,,,,,
,,3,4.4733,3,4.4733,0,70,70,21,1,159,cookie,flower,,90450,001,2022-04-25_00h22.57.880,SPAMnetsValid,2021.1.4,Win32,144.2169022,,,,,,,,,,,,,,,,,,,,,,,,,,,,,,,,,,,,,,,,,,,,,,,,,,,,,,,,,,,,,,,,,,,,,,,,,,,,,,,,,,,,,,,,,
,,4,6.2463,4,6.2463,0,71,71,95,1,121,broom,microwave,,90450,001,2022-04-25_00h22.57.880,SPAMnetsValid,2021.1.4,Win32,144.2169022,,,,,,,,,,,,,,,,,,,,,,,,,,,,,,,,,,,,,,,,,,,,,,,,,,,,,,,,,,,,,,,,,,,,,,,,,,,,,,,,,,,,,,,,,
,,7,2.5483,7,2.5483,0,72,72,9,1,176,cactus,tomato,,90450,001,2022-04-25_00h22.57.880,SPAMnetsValid,2021.1.4,Win32,144.2169022,,,,,,,,,,,,,,,,,,,,,,,,,,,,,,,,,,,,,,,,,,,,,,,,,,,,,,,,,,,,,,,,,,,,,,,,,,,,,,,,,,,,,,,,,
,,9,5.2546,9,5.2546,0,73,73,27,1,158,cookie,oven,,90450,001,2022-04-25_00h22.57.880,SPAMnetsValid,2021.1.4,Win32,144.2169022,,,,,,,,,,,,,,,,,,,,,,,,,,,,,,,,,,,,,,,,,,,,,,,,,,,,,,,,,,,,,,,,,,,,,,,,,,,,,,,,,,,,,,,,,
,,8,1.9727,8,1.9727,0,74,74,1,1,173,kitchen,tomato,,90450,001,2022-04-25_00h22.57.880,SPAMnetsValid,2021.1.4,Win32,144.2169022,,,,,,,,,,,,,,,,,,,,,,,,,,,,,,,,,,,,,,,,,,,,,,,,,,,,,,,,,,,,,,,,,,,,,,,,,,,,,,,,,,,,,,,,,
,,4,4.654,4,4.654,0,75,75,92,1,170,cookie,microwave,,90450,001,2022-04-25_00h22.57.880,SPAMnetsValid,2021.1.4,Win32,144.2169022,,,,,,,,,,,,,,,,,,,,,,,,,,,,,,,,,,,,,,,,,,,,,,,,,,,,,,,,,,,,,,,,,,,,,,,,,,,,,,,,,,,,,,,,,
,,2,1.7028,2,1.7028,0,76,76,73,1,135,carrot,oven,,90450,001,2022-04-25_00h22.57.880,SPAMnetsValid,2021.1.4,Win32,144.2169022,,,,,,,,,,,,,,,,,,,,,,,,,,,,,,,,,,,,,,,,,,,,,,,,,,,,,,,,,,,,,,,,,,,,,,,,,,,,,,,,,,,,,,,,,
,,2,1.7722,2,1.7722,0,77,77,16,1,111,carrot,microwave,,90450,001,2022-04-25_00h22.57.880,SPAMnetsValid,2021.1.4,Win32,144.2169022,,,,,,,,,,,,,,,,,,,,,,,,,,,,,,,,,,,,,,,,,,,,,,,,,,,,,,,,,,,,,,,,,,,,,,,,,,,,,,,,,,,,,,,,,
,,8,2.6352,8,2.6352,0,78,78,85,1,115,refrigerator,tomato,,90450,001,2022-04-25_00h22.57.880,SPAMnetsValid,2021.1.4,Win32,144.2169022,,,,,,,,,,,,,,,,,,,,,,,,,,,,,,,,,,,,,,,,,,,,,,,,,,,,,,,,,,,,,,,,,,,,,,,,,,,,,,,,,,,,,,,,,
,,9,2.138,9,2.138,0,79,79,28,1,154,strawberry,yogurt,,90450,001,2022-04-25_00h22.57.880,SPAMnetsValid,2021.1.4,Win32,144.2169022,,,,,,,,,,,,,,,,,,,,,,,,,,,,,,,,,,,,,,,,,,,,,,,,,,,,,,,,,,,,,,,,,,,,,,,,,,,,,,,,,,,,,,,,,
,,1,2.0094,1,2.0094,0,80,80,58,1,144,cake,garden,,90450,001,2022-04-25_00h22.57.880,SPAMnetsValid,2021.1.4,Win32,144.2169022,,,,,,,,,,,,,,,,,,,,,,,,,,,,,,,,,,,,,,,,,,,,,,,,,,,,,,,,,,,,,,,,,,,,,,,,,,,,,,,,,,,,,,,,,
,,4,2.4815,4,2.4815,0,81,81,65,1,160,cookie,kitchen,,90450,001,2022-04-25_00h22.57.880,SPAMnetsValid,2021.1.4,Win32,144.2169022,,,,,,,,,,,,,,,,,,,,,,,,,,,,,,,,,,,,,,,,,,,,,,,,,,,,,,,,,,,,,,,,,,,,,,,,,,,,,,,,,,,,,,,,,
,,6,0.7698,6,0.7698,0,82,82,26,1,107,rose,tomato,,90450,001,2022-04-25_00h22.57.880,SPAMnetsValid,2021.1.4,Win32,144.2169022,,,,,,,,,,,,,,,,,,,,,,,,,,,,,,,,,,,,,,,,,,,,,,,,,,,,,,,,,,,,,,,,,,,,,,,,,,,,,,,,,,,,,,,,,
,,3,4.2139,3,4.2139,0,83,83,96,1,136,chocolate,microwave,,90450,001,2022-04-25_00h22.57.880,SPAMnetsValid,2021.1.4,Win32,144.2169022,,,,,,,,,,,,,,,,,,,,,,,,,,,,,,,,,,,,,,,,,,,,,,,,,,,,,,,,,,,,,,,,,,,,,,,,,,,,,,,,,,,,,,,,,
,,1,2.4718,1,2.4718,0,84,84,24,1,169,onion,yogurt,,90450,001,2022-04-25_00h22.57.880,SPAMnetsValid,2021.1.4,Win32,144.2169022,,,,,,,,,,,,,,,,,,,,,,,,,,,,,,,,,,,,,,,,,,,,,,,,,,,,,,,,,,,,,,,,,,,,,,,,,,,,,,,,,,,,,,,,,
,,7,2.4883,7,2.4883,0,85,85,39,1,112,cake,carrot,,90450,001,2022-04-25_00h22.57.880,SPAMnetsValid,2021.1.4,Win32,144.2169022,,,,,,,,,,,,,,,,,,,,,,,,,,,,,,,,,,,,,,,,,,,,,,,,,,,,,,,,,,,,,,,,,,,,,,,,,,,,,,,,,,,,,,,,,
,,7,1.9031,7,1.9031,0,86,86,0,1,106,cake,strawberry,,90450,001,2022-04-25_00h22.57.880,SPAMnetsValid,2021.1.4,Win32,144.2169022,,,,,,,,,,,,,,,,,,,,,,,,,,,,,,,,,,,,,,,,,,,,,,,,,,,,,,,,,,,,,,,,,,,,,,,,,,,,,,,,,,,,,,,,,
,,8,2.942,8,2.942,0,87,87,69,1,124,oven,refrigerator,,90450,001,2022-04-25_00h22.57.880,SPAMnetsValid,2021.1.4,Win32,144.2169022,,,,,,,,,,,,,,,,,,,,,,,,,,,,,,,,,,,,,,,,,,,,,,,,,,,,,,,,,,,,,,,,,,,,,,,,,,,,,,,,,,,,,,,,,
,,2,1.9844,2,1.9844,0,88,88,30,1,125,carrot,tree,,90450,001,2022-04-25_00h22.57.880,SPAMnetsValid,2021.1.4,Win32,144.2169022,,,,,,,,,,,,,,,,,,,,,,,,,,,,,,,,,,,,,,,,,,,,,,,,,,,,,,,,,,,,,,,,,,,,,,,,,,,,,,,,,,,,,,,,,
,,9,1.8913,9,1.8913,0,89,89,86,1,193,melon,melon,CHECK,90450,001,2022-04-25_00h22.57.880,SPAMnetsValid,2021.1.4,Win32,144.2169022,,,,,,,,,,,,,,,,,,,,,,,,,,,,,,,,,,,,,,,,,,,,,,,,,,,,,,,,,,,,,,,,,,,,,,,,,,,,,,,,,,,,,,,,,
,,6,4.5422,6,4.5422,0,90,90,87,1,114,cookie,strawberry,,90450,001,2022-04-25_00h22.57.880,SPAMnetsValid,2021.1.4,Win32,144.2169022,,,,,,,,,,,,,,,,,,,,,,,,,,,,,,,,,,,,,,,,,,,,,,,,,,,,,,,,,,,,,,,,,,,,,,,,,,,,,,,,,,,,,,,,,
,,1,7.7693,1,7.7693,0,91,91,59,1,164,cookie,garden,,90450,001,2022-04-25_00h22.57.880,SPAMnetsValid,2021.1.4,Win32,144.2169022,,,,,,,,,,,,,,,,,,,,,,,,,,,,,,,,,,,,,,,,,,,,,,,,,,,,,,,,,,,,,,,,,,,,,,,,,,,,,,,,,,,,,,,,,
,,6,6.3322,6,6.3322,0,92,92,31,1,156,melon,rose,,90450,001,2022-04-25_00h22.57.880,SPAMnetsValid,2021.1.4,Win32,144.2169022,,,,,,,,,,,,,,,,,,,,,,,,,,,,,,,,,,,,,,,,,,,,,,,,,,,,,,,,,,,,,,,,,,,,,,,,,,,,,,,,,,,,,,,,,
,,2,1.788,2,1.788,0,93,93,54,1,101,cactus,kitchen,,90450,001,2022-04-25_00h22.57.880,SPAMnetsValid,2021.1.4,Win32,144.2169022,,,,,,,,,,,,,,,,,,,,,,,,,,,,,,,,,,,,,,,,,,,,,,,,,,,,,,,,,,,,,,,,,,,,,,,,,,,,,,,,,,,,,,,,,
,,7,2.0837,7,2.0837,0,94,94,70,1,141,melon,tomato,,90450,001,2022-04-25_00h22.57.880,SPAMnetsValid,2021.1.4,Win32,144.2169022,,,,,,,,,,,,,,,,,,,,,,,,,,,,,,,,,,,,,,,,,,,,,,,,,,,,,,,,,,,,,,,,,,,,,,,,,,,,,,,,,,,,,,,,,
,,3,1.443,3,1.443,0,95,95,93,1,134,carrot,flower,,90450,001,2022-04-25_00h22.57.880,SPAMnetsValid,2021.1.4,Win32,144.2169022,,,,,,,,,,,,,,,,,,,,,,,,,,,,,,,,,,,,,,,,,,,,,,,,,,,,,,,,,,,,,,,,,,,,,,,,,,,,,,,,,,,,,,,,,
,,1,3.0025,1,3.0025,0,96,96,81,1,104,garden,microwave,,90450,001,2022-04-25_00h22.57.880,SPAMnetsValid,2021.1.4,Win32,144.2169022,,,,,,,,,,,,,,,,,,,,,,,,,,,,,,,,,,,,,,,,,,,,,,,,,,,,,,,,,,,,,,,,,,,,,,,,,,,,,,,,,,,,,,,,,
,,,,,,,,,,,,,,,90450,001,2022-04-25_00h22.57.880,SPAMnetsValid,2021.1.4,Win32,144.2169022,0,0,0,0,1,,,,,,,,,,,,,,,,,,,,,,,,,,,,,,,,,,,,,,,,,,,,,,,,,,,,,,,,,,,,,,,,,,,,,,,,,,,,,,,,,,,,
,,,,,,,,,,,,,,,90450,001,2022-04-25_00h22.57.880,SPAMnetsValid,2021.1.4,Win32,144.2169022,,,,,,0,0,0,1,1,0,1,,,,,,,,,,,,,,,,,,,,,,,,,,,,,,,,,,,,,,,,,,,,,,,,,,,,,,,,,,,,,,,,,,,,,,,,,,,,,
,,,,1,3.6956,,,,,,75,cookie,onion,,90450,001,2022-04-25_00h22.57.880,SPAMnetsValid,2021.1.4,Win32,144.2169022,,,,,,,,,,,,,1,3.6956,0,0,0,9,1,,,,,,,,,,,,,,,,,,,,,,,,,,,,,,,,,,,,,,,,,,,,,,,,,,,,,,,,,,,,,,,,,,,,,,
,,,,4,3.3129,,,,,,50,carrot,rose,,90450,001,2022-04-25_00h22.57.880,SPAMnetsValid,2021.1.4,Win32,144.2169022,,,,,,,,,,,,,4,3.3129,0,1,1,73,1,,,,,,,,,,,,,,,,,,,,,,,,,,,,,,,,,,,,,,,,,,,,,,,,,,,,,,,,,,,,,,,,,,,,,,
,,,,5,2.8457,,,,,,56,cactus,tree,,90450,001,2022-04-25_00h22.57.880,SPAMnetsValid,2021.1.4,Win32,144.2169022,,,,,,,,,,,,,5,2.8457,0,2,2,21,1,,,,,,,,,,,,,,,,,,,,,,,,,,,,,,,,,,,,,,,,,,,,,,,,,,,,,,,,,,,,,,,,,,,,,,
,,,,2,1.8357,,,,,,30,cookie,pretzel,,90450,001,2022-04-25_00h22.57.880,SPAMnetsValid,2021.1.4,Win32,144.2169022,,,,,,,,,,,,,2,1.8357,0,3,3,78,1,,,,,,,,,,,,,,,,,,,,,,,,,,,,,,,,,,,,,,,,,,,,,,,,,,,,,,,,,,,,,,,,,,,,,,
,,,,1,1.5767,,,,,,23,flower,microwave,,90450,001,2022-04-25_00h22.57.880,SPAMnetsValid,2021.1.4,Win32,144.2169022,,,,,,,,,,,,,1,1.5767,0,4,4,25,1,,,,,,,,,,,,,,,,,,,,,,,,,,,,,,,,,,,,,,,,,,,,,,,,,,,,,,,,,,,,,,,,,,,,,,
,,,,1,2.8525,,,,,,80,chocolate,tree,,90450,001,2022-04-25_00h22.57.880,SPAMnetsValid,2021.1.4,Win32,144.2169022,,,,,,,,,,,,,1,2.8525,0,5,5,89,1,,,,,,,,,,,,,,,,,,,,,,,,,,,,,,,,,,,,,,,,,,,,,,,,,,,,,,,,,,,,,,,,,,,,,,
,,,,3,2.8358,,,,,,59,rose,strawberry,,90450,001,2022-04-25_00h22.57.880,SPAMnetsValid,2021.1.4,Win32,144.2169022,,,,,,,,,,,,,3,2.8358,0,6,6,72,1,,,,,,,,,,,,,,,,,,,,,,,,,,,,,,,,,,,,,,,,,,,,,,,,,,,,,,,,,,,,,,,,,,,,,,
,,,,1,1.9395,,,,,,5,oven,tree,,90450,001,2022-04-25_00h22.57.880,SPAMnetsValid,2021.1.4,Win32,144.2169022,,,,,,,,,,,,,1,1.9395,0,7,7,70,1,,,,,,,,,,,,,,,,,,,,,,,,,,,,,,,,,,,,,,,,,,,,,,,,,,,,,,,,,,,,,,,,,,,,,,
,,,,9,1.1097,,,,,,192,microwave,microwave,CHECK,90450,001,2022-04-25_00h22.57.880,SPAMnetsValid,2021.1.4,Win32,144.2169022,,,,,,,,,,,,,9,1.1097,0,8,8,53,1,,,,,,,,,,,,,,,,,,,,,,,,,,,,,,,,,,,,,,,,,,,,,,,,,,,,,,,,,,,,,,,,,,,,,,
,,,,1,1.7262,,,,,,65,broom,garden,,90450,001,2022-04-25_00h22.57.880,SPAMnetsValid,2021.1.4,Win32,144.2169022,,,,,,,,,,,,,1,1.7262,0,9,9,23,1,,,,,,,,,,,,,,,,,,,,,,,,,,,,,,,,,,,,,,,,,,,,,,,,,,,,,,,,,,,,,,,,,,,,,,
,,,,7,2.3969,,,,,,63,cake,cookie,,90450,001,2022-04-25_00h22.57.880,SPAMnetsValid,2021.1.4,Win32,144.2169022,,,,,,,,,,,,,7,2.3969,0,10,10,93,1,,,,,,,,,,,,,,,,,,,,,,,,,,,,,,,,,,,,,,,,,,,,,,,,,,,,,,,,,,,,,,,,,,,,,,
,,,,2,1.7315,,,,,,16,chocolate,flower,,90450,001,2022-04-25_00h22.57.880,SPAMnetsValid,2021.1.4,Win32,144.2169022,,,,,,,,,,,,,2,1.7315,0,11,11,22,1,,,,,,,,,,,,,,,,,,,,,,,,,,,,,,,,,,,,,,,,,,,,,,,,,,,,,,,,,,,,,,,,,,,,,,
,,,,2,2.4196,,,,,,46,garden,yogurt,,90450,001,2022-04-25_00h22.57.880,SPAMnetsValid,2021.1.4,Win32,144.2169022,,,,,,,,,,,,,2,2.4196,0,12,12,65,1,,,,,,,,,,,,,,,,,,,,,,,,,,,,,,,,,,,,,,,,,,,,,,,,,,,,,,,,,,,,,,,,,,,,,,
,,,,2,7.5906,,,,,,31,cactus,pretzel,,90450,001,2022-04-25_00h22.57.880,SPAMnetsValid,2021.1.4,Win32,144.2169022,,,,,,,,,,,,,2,7.5906,0,13,13,1,1,,,,,,,,,,,,,,,,,,,,,,,,,,,,,,,,,,,,,,,,,,,,,,,,,,,,,,,,,,,,,,,,,,,,,,
,,,,1,3.3596,,,,,,35,flower,pretzel,,90450,001,2022-04-25_00h22.57.880,SPAMnetsValid,2021.1.4,Win32,144.2169022,,,,,,,,,,,,,1,3.3596,0,14,14,26,1,,,,,,,,,,,,,,,,,,,,,,,,,,,,,,,,,,,,,,,,,,,,,,,,,,,,,,,,,,,,,,,,,,,,,,
,,,,7,1.2834,,,,,,12,cookie,yogurt,,90450,001,2022-04-25_00h22.57.880,SPAMnetsValid,2021.1.4,Win32,144.2169022,,,,,,,,,,,,,7,1.2834,0,15,15,36,1,,,,,,,,,,,,,,,,,,,,,,,,,,,,,,,,,,,,,,,,,,,,,,,,,,,,,,,,,,,,,,,,,,,,,,
,,,,4,4.1164,,,,,,17,carrot,melon,,90450,001,2022-04-25_00h22.57.880,SPAMnetsValid,2021.1.4,Win32,144.2169022,,,,,,,,,,,,,4,4.1164,0,16,16,24,1,,,,,,,,,,,,,,,,,,,,,,,,,,,,,,,,,,,,,,,,,,,,,,,,,,,,,,,,,,,,,,,,,,,,,,
,,,,9,1.4569,,,,,,191,cake,cake,CHECK,90450,001,2022-04-25_00h22.57.880,SPAMnetsValid,2021.1.4,Win32,144.2169022,,,,,,,,,,,,,9,1.4569,0,17,17,10,1,,,,,,,,,,,,,,,,,,,,,,,,,,,,,,,,,,,,,,,,,,,,,,,,,,,,,,,,,,,,,,,,,,,,,,
,,,,3,4.3262,,,,,,4,chocolate,pretzel,,90450,001,2022-04-25_00h22.57.880,SPAMnetsValid,2021.1.4,Win32,144.2169022,,,,,,,,,,,,,3,4.3262,0,18,18,52,1,,,,,,,,,,,,,,,,,,,,,,,,,,,,,,,,,,,,,,,,,,,,,,,,,,,,,,,,,,,,,,,,,,,,,,
,,,,7,3.4405,,,,,,25,carrot,onion,,90450,001,2022-04-25_00h22.57.880,SPAMnetsValid,2021.1.4,Win32,144.2169022,,,,,,,,,,,,,7,3.4405,0,19,19,44,1,,,,,,,,,,,,,,,,,,,,,,,,,,,,,,,,,,,,,,,,,,,,,,,,,,,,,,,,,,,,,,,,,,,,,,
,,,,2,3.1909,,,,,,67,flower,yogurt,,90450,001,2022-04-25_00h22.57.880,SPAMnetsValid,2021.1.4,Win32,144.2169022,,,,,,,,,,,,,2,3.1909,0,20,20,12,1,,,,,,,,,,,,,,,,,,,,,,,,,,,,,,,,,,,,,,,,,,,,,,,,,,,,,,,,,,,,,,,,,,,,,,
,,,,1,1.3775,,,,,,58,garden,oven,,90450,001,2022-04-25_00h22.57.880,SPAMnetsValid,2021.1.4,Win32,144.2169022,,,,,,,,,,,,,1,1.3775,0,21,21,37,1,,,,,,,,,,,,,,,,,,,,,,,,,,,,,,,,,,,,,,,,,,,,,,,,,,,,,,,,,,,,,,,,,,,,,,
,,,,3,2.1118,,,,,,38,pretzel,refrigerator,,90450,001,2022-04-25_00h22.57.880,SPAMnetsValid,2021.1.4,Win32,144.2169022,,,,,,,,,,,,,3,2.1118,0,22,22,71,1,,,,,,,,,,,,,,,,,,,,,,,,,,,,,,,,,,,,,,,,,,,,,,,,,,,,,,,,,,,,,,,,,,,,,,
,,,,2,2.1953,,,,,,8,broom,melon,,90450,001,2022-04-25_00h22.57.880,SPAMnetsValid,2021.1.4,Win32,144.2169022,,,,,,,,,,,,,2,2.1953,0,23,23,59,1,,,,,,,,,,,,,,,,,,,,,,,,,,,,,,,,,,,,,,,,,,,,,,,,,,,,,,,,,,,,,,,,,,,,,,
,,,,1,1.6197,,,,,,48,flower,oven,,90450,001,2022-04-25_00h22.57.880,SPAMnetsValid,2021.1.4,Win32,144.2169022,,,,,,,,,,,,,1,1.6197,0,24,24,15,1,,,,,,,,,,,,,,,,,,,,,,,,,,,,,,,,,,,,,,,,,,,,,,,,,,,,,,,,,,,,,,,,,,,,,,
,,,,9,2.0002,,,,,,3,cake,oven,,90450,001,2022-04-25_00h22.57.880,SPAMnetsValid,2021.1.4,Win32,144.2169022,,,,,,,,,,,,,9,2.0002,0,25,25,30,1,,,,,,,,,,,,,,,,,,,,,,,,,,,,,,,,,,,,,,,,,,,,,,,,,,,,,,,,,,,,,,,,,,,,,,
,,,,3,11.255,,,,,,28,cake,melon,,90450,001,2022-04-25_00h22.57.880,SPAMnetsValid,2021.1.4,Win32,144.2169022,,,,,,,,,,,,,3,11.255,0,26,26,54,1,,,,,,,,,,,,,,,,,,,,,,,,,,,,,,,,,,,,,,,,,,,,,,,,,,,,,,,,,,,,,,,,,,,,,,
,,,,7,4.129,,,,,,42,garden,kitchen,,90450,001,2022-04-25_00h22.57.880,SPAMnetsValid,2021.1.4,Win32,144.2169022,,,,,,,,,,,,,7,4.129,0,27,27,29,1,,,,,,,,,,,,,,,,,,,,,,,,,,,,,,,,,,,,,,,,,,,,,,,,,,,,,,,,,,,,,,,,,,,,,,
,,,,1,2.5669,,,,,,62,kitchen,rose,,90450,001,2022-04-25_00h22.57.880,SPAMnetsValid,2021.1.4,Win32,144.2169022,,,,,,,,,,,,,1,2.5669,0,28,28,57,1,,,,,,,,,,,,,,,,,,,,,,,,,,,,,,,,,,,,,,,,,,,,,,,,,,,,,,,,,,,,,,,,,,,,,,
,,,,1,1.9425,,,,,,70,chocolate,onion,,90450,001,2022-04-25_00h22.57.880,SPAMnetsValid,2021.1.4,Win32,144.2169022,,,,,,,,,,,,,1,1.9425,0,29,29,74,1,,,,,,,,,,,,,,,,,,,,,,,,,,,,,,,,,,,,,,,,,,,,,,,,,,,,,,,,,,,,,,,,,,,,,,
,,,,1,4.1704,,,,,,89,chocolate,rose,,90450,001,2022-04-25_00h22.57.880,SPAMnetsValid,2021.1.4,Win32,144.2169022,,,,,,,,,,,,,1,4.1704,0,30,30,60,1,,,,,,,,,,,,,,,,,,,,,,,,,,,,,,,,,,,,,,,,,,,,,,,,,,,,,,,,,,,,,,,,,,,,,,
,,,,2,2.5566,,,,,,86,oven,rose,,90450,001,2022-04-25_00h22.57.880,SPAMnetsValid,2021.1.4,Win32,144.2169022,,,,,,,,,,,,,2,2.5566,0,31,31,79,1,,,,,,,,,,,,,,,,,,,,,,,,,,,,,,,,,,,,,,,,,,,,,,,,,,,,,,,,,,,,,,,,,,,,,,
,,,,7,3.9581,,,,,,54,chocolate,yogurt,,90450,001,2022-04-25_00h22.57.880,SPAMnetsValid,2021.1.4,Win32,144.2169022,,,,,,,,,,,,,7,3.9581,0,32,32,67,1,,,,,,,,,,,,,,,,,,,,,,,,,,,,,,,,,,,,,,,,,,,,,,,,,,,,,,,,,,,,,,,,,,,,,,
,,,,7,6.6262,,,,,,94,kitchen,microwave,,90450,001,2022-04-25_00h22.57.880,SPAMnetsValid,2021.1.4,Win32,144.2169022,,,,,,,,,,,,,7,6.6262,0,33,33,58,1,,,,,,,,,,,,,,,,,,,,,,,,,,,,,,,,,,,,,,,,,,,,,,,,,,,,,,,,,,,,,,,,,,,,,,
,,,,4,2.7625,,,,,,14,broom,cookie,,90450,001,2022-04-25_00h22.57.880,SPAMnetsValid,2021.1.4,Win32,144.2169022,,,,,,,,,,,,,4,2.7625,0,34,34,16,1,,,,,,,,,,,,,,,,,,,,,,,,,,,,,,,,,,,,,,,,,,,,,,,,,,,,,,,,,,,,,,,,,,,,,,
,,,,8,9.0575,,,,,,77,refrigerator,yogurt,,90450,001,2022-04-25_00h22.57.880,SPAMnetsValid,2021.1.4,Win32,144.2169022,,,,,,,,,,,,,8,9.0575,0,35,35,42,1,,,,,,,,,,,,,,,,,,,,,,,,,,,,,,,,,,,,,,,,,,,,,,,,,,,,,,,,,,,,,,,,,,,,,,
,,,,6,2.2423,,,,,,20,rose,tree,,90450,001,2022-04-25_00h22.57.880,SPAMnetsValid,2021.1.4,Win32,144.2169022,,,,,,,,,,,,,6,2.2423,0,36,36,66,1,,,,,,,,,,,,,,,,,,,,,,,,,,,,,,,,,,,,,,,,,,,,,,,,,,,,,,,,,,,,,,,,,,,,,,
,,,,3,2.4935,,,,,,61,strawberry,tomato,,90450,001,2022-04-25_00h22.57.880,SPAMnetsValid,2021.1.4,Win32,144.2169022,,,,,,,,,,,,,3,2.4935,0,37,37,80,1,,,,,,,,,,,,,,,,,,,,,,,,,,,,,,,,,,,,,,,,,,,,,,,,,,,,,,,,,,,,,,,,,,,,,,
,,,,6,6.2373,,,,,,71,broom,rose,,90450,001,2022-04-25_00h22.57.880,SPAMnetsValid,2021.1.4,Win32,144.2169022,,,,,,,,,,,,,6,6.2373,0,38,38,61,1,,,,,,,,,,,,,,,,,,,,,,,,,,,,,,,,,,,,,,,,,,,,,,,,,,,,,,,,,,,,,,,,,,,,,,
,,,,8,7.8545,,,,,,79,garden,strawberry,,90450,001,2022-04-25_00h22.57.880,SPAMnetsValid,2021.1.4,Win32,144.2169022,,,,,,,,,,,,,8,7.8545,0,39,39,87,1,,,,,,,,,,,,,,,,,,,,,,,,,,,,,,,,,,,,,,,,,,,,,,,,,,,,,,,,,,,,,,,,,,,,,,
,,,,1,2.0925,,,,,,57,flower,kitchen,,90450,001,2022-04-25_00h22.57.880,SPAMnetsValid,2021.1.4,Win32,144.2169022,,,,,,,,,,,,,1,2.0925,0,40,40,49,1,,,,,,,,,,,,,,,,,,,,,,,,,,,,,,,,,,,,,,,,,,,,,,,,,,,,,,,,,,,,,,,,,,,,,,
,,,,7,4.1426,,,,,,22,kitchen,strawberry,,90450,001,2022-04-25_00h22.57.880,SPAMnetsValid,2021.1.4,Win32,144.2169022,,,,,,,,,,,,,7,4.1426,0,41,41,2,1,,,,,,,,,,,,,,,,,,,,,,,,,,,,,,,,,,,,,,,,,,,,,,,,,,,,,,,,,,,,,,,,,,,,,,
,,,,3,3.2292,,,,,,68,flower,tomato,,90450,001,2022-04-25_00h22.57.880,SPAMnetsValid,2021.1.4,Win32,144.2169022,,,,,,,,,,,,,3,3.2292,0,42,42,94,1,,,,,,,,,,,,,,,,,,,,,,,,,,,,,,,,,,,,,,,,,,,,,,,,,,,,,,,,,,,,,,,,,,,,,,
,,,,3,3.0835,,,,,,66,melon,yogurt,,90450,001,2022-04-25_00h22.57.880,SPAMnetsValid,2021.1.4,Win32,144.2169022,,,,,,,,,,,,,3,3.0835,0,43,43,48,1,,,,,,,,,,,,,,,,,,,,,,,,,,,,,,,,,,,,,,,,,,,,,,,,,,,,,,,,,,,,,,,,,,,,,,
,,,,2,2.1662,,,,,,43,chocolate,tomato,,90450,001,2022-04-25_00h22.57.880,SPAMnetsValid,2021.1.4,Win32,144.2169022,,,,,,,,,,,,,2,2.1662,0,44,44,8,1,,,,,,,,,,,,,,,,,,,,,,,,,,,,,,,,,,,,,,,,,,,,,,,,,,,,,,,,,,,,,,,,,,,,,,
,,,,1,2.9308,,,,,,85,cake,tree,,90450,001,2022-04-25_00h22.57.880,SPAMnetsValid,2021.1.4,Win32,144.2169022,,,,,,,,,,,,,1,2.9308,0,45,45,18,1,,,,,,,,,,,,,,,,,,,,,,,,,,,,,,,,,,,,,,,,,,,,,,,,,,,,,,,,,,,,,,,,,,,,,,
,,,,2,2.325,,,,,,33,oven,yogurt,,90450,001,2022-04-25_00h22.57.880,SPAMnetsValid,2021.1.4,Win32,144.2169022,,,,,,,,,,,,,2,2.325,0,46,46,31,1,,,,,,,,,,,,,,,,,,,,,,,,,,,,,,,,,,,,,,,,,,,,,,,,,,,,,,,,,,,,,,,,,,,,,,
,,,,4,4.7524,,,,,,29,chocolate,melon,,90450,001,2022-04-25_00h22.57.880,SPAMnetsValid,2021.1.4,Win32,144.2169022,,,,,,,,,,,,,4,4.7524,0,47,47,34,1,,,,,,,,,,,,,,,,,,,,,,,,,,,,,,,,,,,,,,,,,,,,,,,,,,,,,,,,,,,,,,,,,,,,,,
,,,,2,2.9363,,,,,,90,cactus,cake,,90450,001,2022-04-25_00h22.57.880,SPAMnetsValid,2021.1.4,Win32,144.2169022,,,,,,,,,,,,,2,2.9363,0,48,48,85,1,,,,,,,,,,,,,,,,,,,,,,,,,,,,,,,,,,,,,,,,,,,,,,,,,,,,,,,,,,,,,,,,,,,,,,
,,,,2,14.5657,,,,,,40,broom,cake,,90450,001,2022-04-25_00h22.57.880,SPAMnetsValid,2021.1.4,Win32,144.2169022,,,,,,,,,,,,,2,14.5657,0,49,49,32,1,,,,,,,,,,,,,,,,,,,,,,,,,,,,,,,,,,,,,,,,,,,,,,,,,,,,,,,,,,,,,,,,,,,,,,
,,,,2,6.6087,,,,,,45,onion,pretzel,,90450,001,2022-04-25_00h22.57.880,SPAMnetsValid,2021.1.4,Win32,144.2169022,,,,,,,,,,,,,2,6.6087,0,50,50,69,1,,,,,,,,,,,,,,,,,,,,,,,,,,,,,,,,,,,,,,,,,,,,,,,,,,,,,,,,,,,,,,,,,,,,,,
,,,,2,5.208,,,,,,88,cactus,melon,,90450,001,2022-04-25_00h22.57.880,SPAMnetsValid,2021.1.4,Win32,144.2169022,,,,,,,,,,,,,2,5.208,0,51,51,38,1,,,,,,,,,,,,,,,,,,,,,,,,,,,,,,,,,,,,,,,,,,,,,,,,,,,,,,,,,,,,,,,,,,,,,,
,,,,1,1.8688,,,,,,51,onion,strawberry,,90450,001,2022-04-25_00h22.57.880,SPAMnetsValid,2021.1.4,Win32,144.2169022,,,,,,,,,,,,,1,1.8688,0,52,52,86,1,,,,,,,,,,,,,,,,,,,,,,,,,,,,,,,,,,,,,,,,,,,,,,,,,,,,,,,,,,,,,,,,,,,,,,
,,,,6,2.1152,,,,,,37,garden,refrigerator,,90450,001,2022-04-25_00h22.57.880,SPAMnetsValid,2021.1.4,Win32,144.2169022,,,,,,,,,,,,,6,2.1152,0,53,53,11,1,,,,,,,,,,,,,,,,,,,,,,,,,,,,,,,,,,,,,,,,,,,,,,,,,,,,,,,,,,,,,,,,,,,,,,
,,,,2,19.2538,,,,,,87,carrot,yogurt,,90450,001,2022-04-25_00h22.57.880,SPAMnetsValid,2021.1.4,Win32,144.2169022,,,,,,,,,,,,,2,19.2538,0,54,54,6,1,,,,,,,,,,,,,,,,,,,,,,,,,,,,,,,,,,,,,,,,,,,,,,,,,,,,,,,,,,,,,,,,,,,,,,
,,,,3,1.6794,,,,,,36,broom,kitchen,,90450,001,2022-04-25_00h22.57.880,SPAMnetsValid,2021.1.4,Win32,144.2169022,,,,,,,,,,,,,3,1.6794,0,55,55,76,1,,,,,,,,,,,,,,,,,,,,,,,,,,,,,,,,,,,,,,,,,,,,,,,,,,,,,,,,,,,,,,,,,,,,,,
,,,,1,16.3083,,,,,,15,onion,oven,,90450,001,2022-04-25_00h22.57.880,SPAMnetsValid,2021.1.4,Win32,144.2169022,,,,,,,,,,,,,1,16.3083,0,56,56,39,1,,,,,,,,,,,,,,,,,,,,,,,,,,,,,,,,,,,,,,,,,,,,,,,,,,,,,,,,,,,,,,,,,,,,,,
,,,,8,1.8314,,,,,,6,garden,onion,,90450,001,2022-04-25_00h22.57.880,SPAMnetsValid,2021.1.4,Win32,144.2169022,,,,,,,,,,,,,8,1.8314,0,57,57,83,1,,,,,,,,,,,,,,,,,,,,,,,,,,,,,,,,,,,,,,,,,,,,,,,,,,,,,,,,,,,,,,,,,,,,,,
,,,,1,1.3261,,,,,,41,broom,cactus,,90450,001,2022-04-25_00h22.57.880,SPAMnetsValid,2021.1.4,Win32,144.2169022,,,,,,,,,,,,,1,1.3261,0,58,58,46,1,,,,,,,,,,,,,,,,,,,,,,,,,,,,,,,,,,,,,,,,,,,,,,,,,,,,,,,,,,,,,,,,,,,,,,
,,,,1,1.5557,,,,,,92,broom,flower,,90450,001,2022-04-25_00h22.57.880,SPAMnetsValid,2021.1.4,Win32,144.2169022,,,,,,,,,,,,,1,1.5557,0,59,59,88,1,,,,,,,,,,,,,,,,,,,,,,,,,,,,,,,,,,,,,,,,,,,,,,,,,,,,,,,,,,,,,,,,,,,,,,
,,,,4,1.9204,,,,,,74,broom,pretzel,,90450,001,2022-04-25_00h22.57.880,SPAMnetsValid,2021.1.4,Win32,144.2169022,,,,,,,,,,,,,4,1.9204,0,60,60,40,1,,,,,,,,,,,,,,,,,,,,,,,,,,,,,,,,,,,,,,,,,,,,,,,,,,,,,,,,,,,,,,,,,,,,,,
,,,,2,2.3846,,,,,,53,garden,pretzel,,90450,001,2022-04-25_00h22.57.880,SPAMnetsValid,2021.1.4,Win32,144.2169022,,,,,,,,,,,,,2,2.3846,0,61,61,0,1,,,,,,,,,,,,,,,,,,,,,,,,,,,,,,,,,,,,,,,,,,,,,,,,,,,,,,,,,,,,,,,,,,,,,,
,,,,1,2.0746,,,,,,13,broom,yogurt,,90450,001,2022-04-25_00h22.57.880,SPAMnetsValid,2021.1.4,Win32,144.2169022,,,,,,,,,,,,,1,2.0746,0,62,62,5,1,,,,,,,,,,,,,,,,,,,,,,,,,,,,,,,,,,,,,,,,,,,,,,,,,,,,,,,,,,,,,,,,,,,,,,
,,,,1,2.0164,,,,,,78,cookie,rose,,90450,001,2022-04-25_00h22.57.880,SPAMnetsValid,2021.1.4,Win32,144.2169022,,,,,,,,,,,,,1,2.0164,0,63,63,56,1,,,,,,,,,,,,,,,,,,,,,,,,,,,,,,,,,,,,,,,,,,,,,,,,,,,,,,,,,,,,,,,,,,,,,,
,,,,8,1.431,,,,,,2,kitchen,onion,,90450,001,2022-04-25_00h22.57.880,SPAMnetsValid,2021.1.4,Win32,144.2169022,,,,,,,,,,,,,8,1.431,0,64,64,91,1,,,,,,,,,,,,,,,,,,,,,,,,,,,,,,,,,,,,,,,,,,,,,,,,,,,,,,,,,,,,,,,,,,,,,,
,,,,9,2.83,,,,,,76,garden,rose,,90450,001,2022-04-25_00h22.57.880,SPAMnetsValid,2021.1.4,Win32,144.2169022,,,,,,,,,,,,,9,2.83,0,65,65,19,1,,,,,,,,,,,,,,,,,,,,,,,,,,,,,,,,,,,,,,,,,,,,,,,,,,,,,,,,,,,,,,,,,,,,,,
,,,,1,20.1378,,,,,,44,cookie,melon,,90450,001,2022-04-25_00h22.57.880,SPAMnetsValid,2021.1.4,Win32,144.2169022,,,,,,,,,,,,,1,20.1378,0,66,66,92,1,,,,,,,,,,,,,,,,,,,,,,,,,,,,,,,,,,,,,,,,,,,,,,,,,,,,,,,,,,,,,,,,,,,,,,
,,,,6,2.218,,,,,,10,flower,onion,,90450,001,2022-04-25_00h22.57.880,SPAMnetsValid,2021.1.4,Win32,144.2169022,,,,,,,,,,,,,6,2.218,0,67,67,45,1,,,,,,,,,,,,,,,,,,,,,,,,,,,,,,,,,,,,,,,,,,,,,,,,,,,,,,,,,,,,,,,,,,,,,,
,,,,6,1.6805,,,,,,60,cactus,onion,,90450,001,2022-04-25_00h22.57.880,SPAMnetsValid,2021.1.4,Win32,144.2169022,,,,,,,,,,,,,6,1.6805,0,68,68,81,1,,,,,,,,,,,,,,,,,,,,,,,,,,,,,,,,,,,,,,,,,,,,,,,,,,,,,,,,,,,,,,,,,,,,,,
,,,,8,2.4413,,,,,,93,kitchen,oven,,90450,001,2022-04-25_00h22.57.880,SPAMnetsValid,2021.1.4,Win32,144.2169022,,,,,,,,,,,,,8,2.4413,0,69,69,82,1,,,,,,,,,,,,,,,,,,,,,,,,,,,,,,,,,,,,,,,,,,,,,,,,,,,,,,,,,,,,,,,,,,,,,,
,,,,2,1.2693,,,,,,26,tomato,yogurt,,90450,001,2022-04-25_00h22.57.880,SPAMnetsValid,2021.1.4,Win32,144.2169022,,,,,,,,,,,,,2,1.2693,0,70,70,13,1,,,,,,,,,,,,,,,,,,,,,,,,,,,,,,,,,,,,,,,,,,,,,,,,,,,,,,,,,,,,,,,,,,,,,,
,,,,8,2.1045,,,,,,9,kitchen,refrigerator,,90450,001,2022-04-25_00h22.57.880,SPAMnetsValid,2021.1.4,Win32,144.2169022,,,,,,,,,,,,,8,2.1045,0,71,71,64,1,,,,,,,,,,,,,,,,,,,,,,,,,,,,,,,,,,,,,,,,,,,,,,,,,,,,,,,,,,,,,,,,,,,,,,
,,,,1,1.2915,,,,,,11,refrigerator,tree,,90450,001,2022-04-25_00h22.57.880,SPAMnetsValid,2021.1.4,Win32,144.2169022,,,,,,,,,,,,,1,1.2915,0,72,72,43,1,,,,,,,,,,,,,,,,,,,,,,,,,,,,,,,,,,,,,,,,,,,,,,,,,,,,,,,,,,,,,,,,,,,,,,
,,,,1,1.2729,,,,,,84,oven,tomato,,90450,001,2022-04-25_00h22.57.880,SPAMnetsValid,2021.1.4,Win32,144.2169022,,,,,,,,,,,,,1,1.2729,0,73,73,28,1,,,,,,,,,,,,,,,,,,,,,,,,,,,,,,,,,,,,,,,,,,,,,,,,,,,,,,,,,,,,,,,,,,,,,,
,,,,3,1.9028,,,,,,19,microwave,pretzel,,90450,001,2022-04-25_00h22.57.880,SPAMnetsValid,2021.1.4,Win32,144.2169022,,,,,,,,,,,,,3,1.9028,0,74,74,41,1,,,,,,,,,,,,,,,,,,,,,,,,,,,,,,,,,,,,,,,,,,,,,,,,,,,,,,,,,,,,,,,,,,,,,,
,,,,2,1.5329,,,,,,81,pretzel,yogurt,,90450,001,2022-04-25_00h22.57.880,SPAMnetsValid,2021.1.4,Win32,144.2169022,,,,,,,,,,,,,2,1.5329,0,75,75,50,1,,,,,,,,,,,,,,,,,,,,,,,,,,,,,,,,,,,,,,,,,,,,,,,,,,,,,,,,,,,,,,,,,,,,,,
,,,,6,2.818,,,,,,49,flower,strawberry,,90450,001,2022-04-25_00h22.57.880,SPAMnetsValid,2021.1.4,Win32,144.2169022,,,,,,,,,,,,,6,2.818,0,76,76,3,1,,,,,,,,,,,,,,,,,,,,,,,,,,,,,,,,,,,,,,,,,,,,,,,,,,,,,,,,,,,,,,,,,,,,,,
,,,,3,1.6382,,,,,,73,broom,chocolate,,90450,001,2022-04-25_00h22.57.880,SPAMnetsValid,2021.1.4,Win32,144.2169022,,,,,,,,,,,,,3,1.6382,0,77,77,47,1,,,,,,,,,,,,,,,,,,,,,,,,,,,,,,,,,,,,,,,,,,,,,,,,,,,,,,,,,,,,,,,,,,,,,,
,,,,6,1.8905,,,,,,69,carrot,refrigerator,,90450,001,2022-04-25_00h22.57.880,SPAMnetsValid,2021.1.4,Win32,144.2169022,,,,,,,,,,,,,6,1.8905,0,78,78,75,1,,,,,,,,,,,,,,,,,,,,,,,,,,,,,,,,,,,,,,,,,,,,,,,,,,,,,,,,,,,,,,,,,,,,,,
,,,,2,2.5524,,,,,,39,melon,pretzel,,90450,001,2022-04-25_00h22.57.880,SPAMnetsValid,2021.1.4,Win32,144.2169022,,,,,,,,,,,,,2,2.5524,0,79,79,20,1,,,,,,,,,,,,,,,,,,,,,,,,,,,,,,,,,,,,,,,,,,,,,,,,,,,,,,,,,,,,,,,,,,,,,,
,,,,7,1.3354,,,,,,52,carrot,tomato,,90450,001,2022-04-25_00h22.57.880,SPAMnetsValid,2021.1.4,Win32,144.2169022,,,,,,,,,,,,,7,1.3354,0,80,80,95,1,,,,,,,,,,,,,,,,,,,,,,,,,,,,,,,,,,,,,,,,,,,,,,,,,,,,,,,,,,,,,,,,,,,,,,
,,,,3,9.4769,,,,,,95,broom,refrigerator,,90450,001,2022-04-25_00h22.57.880,SPAMnetsValid,2021.1.4,Win32,144.2169022,,,,,,,,,,,,,3,9.4769,0,81,81,90,1,,,,,,,,,,,,,,,,,,,,,,,,,,,,,,,,,,,,,,,,,,,,,,,,,,,,,,,,,,,,,,,,,,,,,,
,,,,7,1.5868,,,,,,7,melon,tree,,90450,001,2022-04-25_00h22.57.880,SPAMnetsValid,2021.1.4,Win32,144.2169022,,,,,,,,,,,,,7,1.5868,0,82,82,77,1,,,,,,,,,,,,,,,,,,,,,,,,,,,,,,,,,,,,,,,,,,,,,,,,,,,,,,,,,,,,,,,,,,,,,,
,,,,6,5.6477,,,,,,82,cake,kitchen,,90450,001,2022-04-25_00h22.57.880,SPAMnetsValid,2021.1.4,Win32,144.2169022,,,,,,,,,,,,,6,5.6477,0,83,83,96,1,,,,,,,,,,,,,,,,,,,,,,,,,,,,,,,,,,,,,,,,,,,,,,,,,,,,,,,,,,,,,,,,,,,,,,
,,,,3,1.5371,,,,,,21,cake,onion,,90450,001,2022-04-25_00h22.57.880,SPAMnetsValid,2021.1.4,Win32,144.2169022,,,,,,,,,,,,,3,1.5371,0,84,84,63,1,,,,,,,,,,,,,,,,,,,,,,,,,,,,,,,,,,,,,,,,,,,,,,,,,,,,,,,,,,,,,,,,,,,,,,
,,,,3,5.7708,,,,,,1,rose,yogurt,,90450,001,2022-04-25_00h22.57.880,SPAMnetsValid,2021.1.4,Win32,144.2169022,,,,,,,,,,,,,3,5.7708,0,85,85,55,1,,,,,,,,,,,,,,,,,,,,,,,,,,,,,,,,,,,,,,,,,,,,,,,,,,,,,,,,,,,,,,,,,,,,,,
,,,,7,2.5294,,,,,,55,tomato,tree,,90450,001,2022-04-25_00h22.57.880,SPAMnetsValid,2021.1.4,Win32,144.2169022,,,,,,,,,,,,,7,2.5294,0,86,86,35,1,,,,,,,,,,,,,,,,,,,,,,,,,,,,,,,,,,,,,,,,,,,,,,,,,,,,,,,,,,,,,,,,,,,,,,
,,,,8,1.8761,,,,,,47,onion,tomato,,90450,001,2022-04-25_00h22.57.880,SPAMnetsValid,2021.1.4,Win32,144.2169022,,,,,,,,,,,,,8,1.8761,0,87,87,51,1,,,,,,,,,,,,,,,,,,,,,,,,,,,,,,,,,,,,,,,,,,,,,,,,,,,,,,,,,,,,,,,,,,,,,,
,,,,8,2.0269,,,,,,18,onion,refrigerator,,90450,001,2022-04-25_00h22.57.880,SPAMnetsValid,2021.1.4,Win32,144.2169022,,,,,,,,,,,,,8,2.0269,0,88,88,62,1,,,,,,,,,,,,,,,,,,,,,,,,,,,,,,,,,,,,,,,,,,,,,,,,,,,,,,,,,,,,,,,,,,,,,,
,,,,2,1.585,,,,,,72,broom,onion,,90450,001,2022-04-25_00h22.57.880,SPAMnetsValid,2021.1.4,Win32,144.2169022,,,,,,,,,,,,,2,1.585,0,89,89,27,1,,,,,,,,,,,,,,,,,,,,,,,,,,,,,,,,,,,,,,,,,,,,,,,,,,,,,,,,,,,,,,,,,,,,,,
,,,,2,5.098,,,,,,24,cookie,tomato,,90450,001,2022-04-25_00h22.57.880,SPAMnetsValid,2021.1.4,Win32,144.2169022,,,,,,,,,,,,,2,5.098,0,90,90,68,1,,,,,,,,,,,,,,,,,,,,,,,,,,,,,,,,,,,,,,,,,,,,,,,,,,,,,,,,,,,,,,,,,,,,,,
,,,,2,3.8844,,,,,,34,melon,oven,,90450,001,2022-04-25_00h22.57.880,SPAMnetsValid,2021.1.4,Win32,144.2169022,,,,,,,,,,,,,2,3.8844,0,91,91,7,1,,,,,,,,,,,,,,,,,,,,,,,,,,,,,,,,,,,,,,,,,,,,,,,,,,,,,,,,,,,,,,,,,,,,,,
,,,,2,11.7795,,,,,,91,microwave,rose,,90450,001,2022-04-25_00h22.57.880,SPAMnetsValid,2021.1.4,Win32,144.2169022,,,,,,,,,,,,,2,11.7795,0,92,92,84,1,,,,,,,,,,,,,,,,,,,,,,,,,,,,,,,,,,,,,,,,,,,,,,,,,,,,,,,,,,,,,,,,,,,,,,
,,,,1,1.5503,,,,,,27,cactus,cookie,,90450,001,2022-04-25_00h22.57.880,SPAMnetsValid,2021.1.4,Win32,144.2169022,,,,,,,,,,,,,1,1.5503,0,93,93,17,1,,,,,,,,,,,,,,,,,,,,,,,,,,,,,,,,,,,,,,,,,,,,,,,,,,,,,,,,,,,,,,,,,,,,,,
,,,,1,2.1856,,,,,,64,chocolate,garden,,90450,001,2022-04-25_00h22.57.880,SPAMnetsValid,2021.1.4,Win32,144.2169022,,,,,,,,,,,,,1,2.1856,0,94,94,14,1,,,,,,,,,,,,,,,,,,,,,,,,,,,,,,,,,,,,,,,,,,,,,,,,,,,,,,,,,,,,,,,,,,,,,,
,,,,1,1.5092,,,,,,83,broom,carrot,,90450,001,2022-04-25_00h22.57.880,SPAMnetsValid,2021.1.4,Win32,144.2169022,,,,,,,,,,,,,1,1.5092,0,95,95,4,1,,,,,,,,,,,,,,,,,,,,,,,,,,,,,,,,,,,,,,,,,,,,,,,,,,,,,,,,,,,,,,,,,,,,,,
,,,,2,8.5383,,,,,,32,cake,microwave,,90450,001,2022-04-25_00h22.57.880,SPAMnetsValid,2021.1.4,Win32,144.2169022,,,,,,,,,,,,,2,8.5383,0,96,96,33,1,,,,,,,,,,,,,,,,,,,,,,,,,,,,,,,,,,,,,,,,,,,,,,,,,,,,,,,,,,,,,,,,,,,,,,
,,,,,,,,,,,,,,,90450,001,2022-04-25_00h22.57.880,SPAMnetsValid,2021.1.4,Win32,144.2169022,,,,,,,,,,,,,,,,,,,,0,0,0,0,1,,,,,,,,,,,,,,,,,,,,,,,,,,,,,,,,,,,,,,,,,,,,,,,,,,,,,,,,,,,,,,,,,
,,,,,,,,,,,,,,,90450,001,2022-04-25_00h22.57.880,SPAMnetsValid,2021.1.4,Win32,144.2169022,,,,,,0,1,1,0,1,1,0,,,,,,,,,,,,,,,,,,,,,,,,,,,,,,,,,,,,,,,,,,,,,,,,,,,,,,,,,,,,,,,,,,,,,,,,,,,,,
,,,,,,,,,,,,,,,90450,001,2022-04-25_00h22.57.880,SPAMnetsValid,2021.1.4,Win32,144.2169022,,,,,,,,,,,,,,,,,,,,,,,,,2,7.4878,0,0,0,0,1,rancor,forbearance,ridicule,malice,bravery,3,,,,,,,,,,,,,,,,,,,,,,,,,,,,,,,,,,,,,,,,,,,,,,,,,,,,
,,,,,,,,,,,,,,,90450,001,2022-04-25_00h22.57.880,SPAMnetsValid,2021.1.4,Win32,144.2169022,,,,,,,,,,,,,,,,,,,,,,,,,4,5.7019,0,1,1,1,1,raucous,empty,quiet,smooth,harsh,4,,,,,,,,,,,,,,,,,,,,,,,,,,,,,,,,,,,,,,,,,,,,,,,,,,,,
,,,,,,,,,,,,,,,90450,001,2022-04-25_00h22.57.880,SPAMnetsValid,2021.1.4,Win32,144.2169022,,,,,,,,,,,,,,,,,,,,,,,,,4,6.4131,0,2,2,2,1,gargoyle,oil,medicine,carved waterspout,ugly building,3,,,,,,,,,,,,,,,,,,,,,,,,,,,,,,,,,,,,,,,,,,,,,,,,,,,,
,,,,,,,,,,,,,,,90450,001,2022-04-25_00h22.57.880,SPAMnetsValid,2021.1.4,Win32,144.2169022,,,,,,,,,,,,,,,,,,,,,,,,,3,9.0479,0,3,3,3,1,recrudesce,purify,renew activity,lack refinement,crush,2,,,,,,,,,,,,,,,,,,,,,,,,,,,,,,,,,,,,,,,,,,,,,,,,,,,,
,,,,,,,,,,,,,,,90450,001,2022-04-25_00h22.57.880,SPAMnetsValid,2021.1.4,Win32,144.2169022,,,,,,,,,,,,,,,,,,,,,,,,,1,4.1243,0,4,4,4,1,specious,"plausible, but not genuine",noteworthy,class or variety,roomy,1,,,,,,,,,,,,,,,,,,,,,,,,,,,,,,,,,,,,,,,,,,,,,,,,,,,,
,,,,,,,,,,,,,,,90450,001,2022-04-25_00h22.57.880,SPAMnetsValid,2021.1.4,Win32,144.2169022,,,,,,,,,,,,,,,,,,,,,,,,,3,3.5193,0,5,5,5,1,bauble,bubble,showy plaything,idle talk,confusion,2,,,,,,,,,,,,,,,,,,,,,,,,,,,,,,,,,,,,,,,,,,,,,,,,,,,,
,,,,,,,,,,,,,,,90450,001,2022-04-25_00h22.57.880,SPAMnetsValid,2021.1.4,Win32,144.2169022,,,,,,,,,,,,,,,,,,,,,,,,,2,4.9536,0,6,6,6,1,prolific,scarce,producing abundantly,reckless,speaking profanely,2,,,,,,,,,,,,,,,,,,,,,,,,,,,,,,,,,,,,,,,,,,,,,,,,,,,,
,,,,,,,,,,,,,,,90450,001,2022-04-25_00h22.57.880,SPAMnetsValid,2021.1.4,Win32,144.2169022,,,,,,,,,,,,,,,,,,,,,,,,,3,4.4412,0,7,7,7,1,opulent,party,wealthy,happy frame of mind,semiprecious stone,2,,,,,,,,,,,,,,,,,,,,,,,,,,,,,,,,,,,,,,,,,,,,,,,,,,,,
,,,,,,,,,,,,,,,90450,001,2022-04-25_00h22.57.880,SPAMnetsValid,2021.1.4,Win32,144.2169022,,,,,,,,,,,,,,,,,,,,,,,,,1,9.5665,0,8,8,8,1,coercion,conspiracy,strategy,restraint,attraction,3,,,,,,,,,,,,,,,,,,,,,,,,,,,,,,,,,,,,,,,,,,,,,,,,,,,,
,,,,,,,,,,,,,,,90450,001,2022-04-25_00h22.57.880,SPAMnetsValid,2021.1.4,Win32,144.2169022,,,,,,,,,,,,,,,,,,,,,,,,,4,2.9523,0,9,9,9,1,hiatus,animal,calamity,dread,gap,4,,,,,,,,,,,,,,,,,,,,,,,,,,,,,,,,,,,,,,,,,,,,,,,,,,,,
,,,,,,,,,,,,,,,90450,001,2022-04-25_00h22.57.880,SPAMnetsValid,2021.1.4,Win32,144.2169022,,,,,,,,,,,,,,,,,,,,,,,,,4,5.8667,0,10,10,10,1,germane,microbe,contagious,relevant,different,3,,,,,,,,,,,,,,,,,,,,,,,,,,,,,,,,,,,,,,,,,,,,,,,,,,,,
,,,,,,,,,,,,,,,90450,001,2022-04-25_00h22.57.880,SPAMnetsValid,2021.1.4,Win32,144.2169022,,,,,,,,,,,,,,,,,,,,,,,,,,,0,11,11,11,1,perfunctory,fundamental,formal,superficial,careful,3,,,,,,,,,,,,,,,,,,,,,,,,,,,,,,,,,,,,,,,,,,,,,,,,,,,,
,,,,,,,,,,,,,,,90450,001,2022-04-25_00h22.57.880,SPAMnetsValid,2021.1.4,Win32,144.2169022,,,,,,,,,,,,,,,,,,,,,,,,,3,6.3801,0,12,12,12,1,diverge,reveal,chant,distract the attention of,differ or turn off from,4,,,,,,,,,,,,,,,,,,,,,,,,,,,,,,,,,,,,,,,,,,,,,,,,,,,,
,,,,,,,,,,,,,,,90450,001,2022-04-25_00h22.57.880,SPAMnetsValid,2021.1.4,Win32,144.2169022,,,,,,,,,,,,,,,,,,,,,,,,,2,2.3227,0,13,13,13,1,evoke,take away,anger,connect,bring out,4,,,,,,,,,,,,,,,,,,,,,,,,,,,,,,,,,,,,,,,,,,,,,,,,,,,,
,,,,,,,,,,,,,,,90450,001,2022-04-25_00h22.57.880,SPAMnetsValid,2021.1.4,Win32,144.2169022,,,,,,,,,,,,,,,,,,,,,,,,,4,10.6239,0,14,14,14,1,pertinent,relevant,lying next to,necessary,bold,1,,,,,,,,,,,,,,,,,,,,,,,,,,,,,,,,,,,,,,,,,,,,,,,,,,,,
,,,,,,,,,,,,,,,90450,001,2022-04-25_00h22.57.880,SPAMnetsValid,2021.1.4,Win32,144.2169022,,,,,,,,,,,,,,,,,,,,,,,,,2,4.979,0,15,15,15,1,holocaust,entirety,destruction,saintly,price,2,,,,,,,,,,,,,,,,,,,,,,,,,,,,,,,,,,,,,,,,,,,,,,,,,,,,
,,,,,,,,,,,,,,,90450,001,2022-04-25_00h22.57.880,SPAMnetsValid,2021.1.4,Win32,144.2169022,,,,,,,,,,,,,,,,,,,,,,,,,1,5.4907,0,16,16,16,1,piquant,mellow,fish,pungent,cloth,3,,,,,,,,,,,,,,,,,,,,,,,,,,,,,,,,,,,,,,,,,,,,,,,,,,,,
,,,,,,,,,,,,,,,90450,001,2022-04-25_00h22.57.880,SPAMnetsValid,2021.1.4,Win32,144.2169022,,,,,,,,,,,,,,,,,,,,,,,,,1,3.53,0,17,17,17,1,firmament,foundation,heavens,strong,glue,2,,,,,,,,,,,,,,,,,,,,,,,,,,,,,,,,,,,,,,,,,,,,,,,,,,,,
,,,,,,,,,,,,,,,90450,001,2022-04-25_00h22.57.880,SPAMnetsValid,2021.1.4,Win32,144.2169022,,,,,,,,,,,,,,,,,,,,,,,,,,,,,,,,,,,,,,4,4.5384,0,0,0,0,1,marketable,partisan,jocular,marriageable,salable,essential,4,,,,,,,,,,,,,,,,,,,,,,,,,,,,,,,,,,,,,,
,,,,,,,,,,,,,,,90450,001,2022-04-25_00h22.57.880,SPAMnetsValid,2021.1.4,Win32,144.2169022,,,,,,,,,,,,,,,,,,,,,,,,,,,,,,,,,,,,,,5,9.719,0,1,1,1,1,cottontail,squirrel,poplar,boa,marshy plant,rabbit,5,,,,,,,,,,,,,,,,,,,,,,,,,,,,,,,,,,,,,,
,,,,,,,,,,,,,,,90450,001,2022-04-25_00h22.57.880,SPAMnetsValid,2021.1.4,Win32,144.2169022,,,,,,,,,,,,,,,,,,,,,,,,,,,,,,,,,,,,,,4,6.6757,0,2,2,2,1,boggy,afraid,false,marshy,dense,black,3,,,,,,,,,,,,,,,,,,,,,,,,,,,,,,,,,,,,,,
,,,,,,,,,,,,,,,90450,001,2022-04-25_00h22.57.880,SPAMnetsValid,2021.1.4,Win32,144.2169022,,,,,,,,,,,,,,,,,,,,,,,,,,,,,,,,,,,,,,3,11.8448,0,3,3,3,1,gruesomeness,blackness,falseness,vindictiveness,drunkenness,ghastliness,5,,,,,,,,,,,,,,,,,,,,,,,,,,,,,,,,,,,,,,
,,,,,,,,,,,,,,,90450,001,2022-04-25_00h22.57.880,SPAMnetsValid,2021.1.4,Win32,144.2169022,,,,,,,,,,,,,,,,,,,,,,,,,,,,,,,,,,,,,,2,3.0273,0,4,4,4,1,loathing,diffidence,laziness,abhorrence,cleverness,comfort,3,,,,,,,,,,,,,,,,,,,,,,,,,,,,,,,,,,,,,,
,,,,,,,,,,,,,,,90450,001,2022-04-25_00h22.57.880,SPAMnetsValid,2021.1.4,Win32,144.2169022,,,,,,,,,,,,,,,,,,,,,,,,,,,,,,,,,,,,,,3,11.8107,0,5,5,5,1,bantam,fowl,ridicule,cripple,vegetable,ensign,1,,,,,,,,,,,,,,,,,,,,,,,,,,,,,,,,,,,,,,
,,,,,,,,,,,,,,,90450,001,2022-04-25_00h22.57.880,SPAMnetsValid,2021.1.4,Win32,144.2169022,,,,,,,,,,,,,,,,,,,,,,,,,,,,,,,,,,,,,,3,7.7398,0,6,6,6,1,evoke,wake up,surrender,reconnoiter,transcend,call forth,5,,,,,,,,,,,,,,,,,,,,,,,,,,,,,,,,,,,,,,
,,,,,,,,,,,,,,,90450,001,2022-04-25_00h22.57.880,SPAMnetsValid,2021.1.4,Win32,144.2169022,,,,,,,,,,,,,,,,,,,,,,,,,,,,,,,,,,,,,,3,2.5927,0,7,7,7,1,unobtrusive,unintelligent,epileptic,illogical,lineal,modest,5,,,,,,,,,,,,,,,,,,,,,,,,,,,,,,,,,,,,,,
,,,,,,,,,,,,,,,90450,001,2022-04-25_00h22.57.880,SPAMnetsValid,2021.1.4,Win32,144.2169022,,,,,,,,,,,,,,,,,,,,,,,,,,,,,,,,,,,,,,4,3.1545,0,8,8,8,1,terrain,ice cream,final test,tractor,area of ground,weight,4,,,,,,,,,,,,,,,,,,,,,,,,,,,,,,,,,,,,,,
,,,,,,,,,,,,,,,90450,001,2022-04-25_00h22.57.880,SPAMnetsValid,2021.1.4,Win32,144.2169022,,,,,,,,,,,,,,,,,,,,,,,,,,,,,,,,,,,,,,3,25.5804,0,9,9,9,1,capriciousness,stubbornness,courage,whimsicality,amazement,greediness,3,,,,,,,,,,,,,,,,,,,,,,,,,,,,,,,,,,,,,,
,,,,,,,,,,,,,,,90450,001,2022-04-25_00h22.57.880,SPAMnetsValid,2021.1.4,Win32,144.2169022,,,,,,,,,,,,,,,,,,,,,,,,,,,,,,,,,,,,,,4,3.7234,0,10,10,10,1,maelstrom,slander,whirlpool,enmity,armor,majolica,2,,,,,,,,,,,,,,,,,,,,,,,,,,,,,,,,,,,,,,
,,,,,,,,,,,,,,,90450,001,2022-04-25_00h22.57.880,SPAMnetsValid,2021.1.4,Win32,144.2169022,,,,,,,,,,,,,,,,,,,,,,,,,,,,,,,,,,,,,,5,5.785,0,11,11,11,1,tentative,critical,conclusive,authentic,provisional,apprehensive,4,,,,,,,,,,,,,,,,,,,,,,,,,,,,,,,,,,,,,,
,,,,,,,,,,,,,,,90450,001,2022-04-25_00h22.57.880,SPAMnetsValid,2021.1.4,Win32,144.2169022,,,,,,,,,,,,,,,,,,,,,,,,,,,,,,,,,,,,,,1,11.7522,0,12,12,12,1,placate,rehabilitate,plagiarize,depredate,apprise,conciliate,5,,,,,,,,,,,,,,,,,,,,,,,,,,,,,,,,,,,,,,
,,,,,,,,,,,,,,,90450,001,2022-04-25_00h22.57.880,SPAMnetsValid,2021.1.4,Win32,144.2169022,,,,,,,,,,,,,,,,,,,,,,,,,,,,,,,,,,,,,,1,6.091,0,13,13,13,1,surcease,enlightenment,cessation,inattention,censor,substitution,2,,,,,,,,,,,,,,,,,,,,,,,,,,,,,,,,,,,,,,
,,,,,,,,,,,,,,,90450,001,2022-04-25_00h22.57.880,SPAMnetsValid,2021.1.4,Win32,144.2169022,,,,,,,,,,,,,,,,,,,,,,,,,,,,,,,,,,,,,,3,6.0653,0,14,14,14,1,apathetic,wandering,impassive,hateful,prophetic,overflowing,2,,,,,,,,,,,,,,,,,,,,,,,,,,,,,,,,,,,,,,
,,,,,,,,,,,,,,,90450,001,2022-04-25_00h22.57.880,SPAMnetsValid,2021.1.4,Win32,144.2169022,,,,,,,,,,,,,,,,,,,,,,,,,,,,,,,,,,,,,,3,4.9544,0,15,15,15,1,paternoster,paternalism,patricide,malediction,benediction,prayer,5,,,,,,,,,,,,,,,,,,,,,,,,,,,,,,,,,,,,,,
,,,,,,,,,,,,,,,90450,001,2022-04-25_00h22.57.880,SPAMnetsValid,2021.1.4,Win32,144.2169022,,,,,,,,,,,,,,,,,,,,,,,,,,,,,,,,,,,,,,5,5.7983,0,16,16,16,1,opalescence,opulence,senescence,bankruptcy,iridescence,assiduity,4,,,,,,,,,,,,,,,,,,,,,,,,,,,,,,,,,,,,,,
,,,,,,,,,,,,,,,90450,001,2022-04-25_00h22.57.880,SPAMnetsValid,2021.1.4,Win32,144.2169022,,,,,,,,,,,,,,,,,,,,,,,,,,,,,,,,,,,,,,2,5.4032,0,17,17,17,1,lush,stupid,luxurious,hazy,putrid,languishing,2,,,,,,,,,,,,,,,,,,,,,,,,,,,,,,,,,,,,,,
,,,,,,,,,,,,,,,90450,001,2022-04-25_00h22.57.880,SPAMnetsValid,2021.1.4,Win32,144.2169022,,,,,,,,,,,,,,,,,,,,,,,,,,,,,,,,,,,,,,3,7.9294,0,18,18,18,1,curtailment,expenditure,abandonment,abridgment,improvement,forgery,3,,,,,,,,,,,,,,,,,,,,,,,,,,,,,,,,,,,,,,
,,,,,,,,,,,,,,,90450,001,2022-04-25_00h22.57.880,SPAMnetsValid,2021.1.4,Win32,144.2169022,,,,,,,,,,,,,,,,,,,,,,,,,,,,,,,,,,,,,,2,5.0618,0,19,19,19,1,perversity,adversity,perviousness,travesty,waywardness,gentility,4,,,,,,,,,,,,,,,,,,,,,,,,,,,,,,,,,,,,,,
,,,,,,,,,,,,,,,90450,001,2022-04-25_00h22.57.880,SPAMnetsValid,2021.1.4,Win32,144.2169022,,,,,,,,,,,,,,,,,,,,,,,,,,,,,,,,,,,,,,5,3.2865,0,20,20,20,1,calumnious,complimentary,analogous,slanderous,tempestuous,magnanimous,3,,,,,,,,,,,,,,,,,,,,,,,,,,,,,,,,,,,,,,
,,,,,,,,,,,,,,,90450,001,2022-04-25_00h22.57.880,SPAMnetsValid,2021.1.4,Win32,144.2169022,,,,,,,,,,,,,,,,,,,,,,,,,,,,,,,,,,,,,,3,7.2583,0,21,21,21,1,illiberality,bigotry,imbecility,illegibility,cautery,immaturity,1,,,,,,,,,,,,,,,,,,,,,,,,,,,,,,,,,,,,,,
,,,,,,,,,,,,,,,90450,001,2022-04-25_00h22.57.880,SPAMnetsValid,2021.1.4,Win32,144.2169022,,,,,,,,,,,,,,,,,,,,,,,,,,,,,,,,,,,,,,4,5.8846,0,22,22,22,1,clabber,rejoice,gossip,curdle,crow,hobble,3,,,,,,,,,,,,,,,,,,,,,,,,,,,,,,,,,,,,,,
,,,,,,,,,,,,,,,90450,001,2022-04-25_00h22.57.880,SPAMnetsValid,2021.1.4,Win32,144.2169022,,,,,,,,,,,,,,,,,,,,,,,,,,,,,,,,,,,,,,3,4.7568,0,23,23,23,1,sedulousness,diligence,credulousness,seduction,perilousness,frankness,1,,,,,,,,,,,,,,,,,,,,,,,,,,,,,,,,,,,,,,
,,,,,,,,,,,,,,,90450,001,2022-04-25_00h22.57.880,SPAMnetsValid,2021.1.4,Win32,144.2169022,,,,,,,,,,,,,,,,,,,,,,,,,,,,,,,,,,,,,,,,,,,,,,,,,,,,soft,pillow,0,0,0,0,1,,,,,,,,,,,,,,,,,,,,,,,,,,,,,,,
,,,,,,,,,,,,,,,90450,001,2022-04-25_00h22.57.880,SPAMnetsValid,2021.1.4,Win32,144.2169022,,,,,,,,,,,,,,,,,,,,,,,,,,,,,,,,,,,,,,,,,,,,,,,,,,,,bed,pillow,1,0,1,0,1,,,,,,,,,,,,,,,,,,,,,,,,,,,,,,,
,,,,,,,,,,,,,,,90450,001,2022-04-25_00h22.57.880,SPAMnetsValid,2021.1.4,Win32,144.2169022,,,,,,,,,,,,,,,,,,,,,,,,,,,,,,,,,,,,,,,,,,,,,,,,,,,,sleep,pillow,2,0,2,0,1,,,,,,,,,,,,,,,,,,,,,,,,,,,,,,,
,,,,,,,,,,,,,,,90450,001,2022-04-25_00h22.57.880,SPAMnetsValid,2021.1.4,Win32,144.2169022,,,,,,,,,,,,,,,,,,,,,,,,,,,,,,,,,,,,,,,,,,,,,,,,,,,,warm,pillow,3,0,3,0,1,,,,,,,,,,,,,,,,,,,,,,,,,,,,,,,
,,,,,,,,,,,,,,,90450,001,2022-04-25_00h22.57.880,SPAMnetsValid,2021.1.4,Win32,144.2169022,,,,,,,,,,,,,,,,,,,,,,,,,,,,,,,,,,,,,,,,,,,,,,,,,,,,cold,pillow,4,0,4,0,1,,,,,,,,,,,,,,,,,,,,,,,,,,,,,,,
,,,,,,,,,,,,,,,90450,001,2022-04-25_00h22.57.880,SPAMnetsValid,2021.1.4,Win32,144.2169022,,,,,,,,,,,,,,,,,,,,,,,,,,,,,,,,,,,,,,,,,,,,,,,,,,,,comfortable,pillow,5,0,5,0,1,,,,,,,,,,,,,,,,,,,,,,,,,,,,,,,
,,,,,,,,,,,,,,,90450,001,2022-04-25_00h22.57.880,SPAMnetsValid,2021.1.4,Win32,144.2169022,,,,,,,,,,,,,,,,,,,,,,,,,,,,,,,,,,,,,,,,,,,,,,,,,,,,cozy,pillow,6,0,6,0,1,,,,,,,,,,,,,,,,,,,,,,,,,,,,,,,
,,,,,,,,,,,,,,,90450,001,2022-04-25_00h22.57.880,SPAMnetsValid,2021.1.4,Win32,144.2169022,,,,,,,,,,,,,,,,,,,,,,,,,,,,,,,,,,,,,,,,,,,,,,,,,,,,feather,pillow,7,0,7,0,1,,,,,,,,,,,,,,,,,,,,,,,,,,,,,,,
,,,,,,,,,,,,,,,90450,001,2022-04-25_00h22.57.880,SPAMnetsValid,2021.1.4,Win32,144.2169022,,,,,,,,,,,,,,,,,,,,,,,,,,,,,,,,,,,,,,,,,,,,,,,,,,,,case,pillow,8,0,8,0,1,,,,,,,,,,,,,,,,,,,,,,,,,,,,,,,
,,,,,,,,,,,,,,,90450,001,2022-04-25_00h22.57.880,SPAMnetsValid,2021.1.4,Win32,144.2169022,,,,,,,,,,,,,,,,,,,,,,,,,,,,,,,,,,,,,,,,,,,,,,,,,,,,mattress,pillow,9,0,9,0,1,,,,,,,,,,,,,,,,,,,,,,,,,,,,,,,
,,,,,,,,,,,,,,,90450,001,2022-04-25_00h22.57.880,SPAMnetsValid,2021.1.4,Win32,144.2169022,,,,,,,,,,,,,,,,,,,,,,,,,,,,,,,,,,,,,,,,,,,,,,,,,,,,body,pillow,10,0,10,0,1,,,,,,,,,,,,,,,,,,,,,,,,,,,,,,,
,,,,,,,,,,,,,,,90450,001,2022-04-25_00h22.57.880,SPAMnetsValid,2021.1.4,Win32,144.2169022,,,,,,,,,,,,,,,,,,,,,,,,,,,,,,,,,,,,,,,,,,,,,,,,,,,,,,,,,,,0,0,0,2,1,pillow,,,,,,,,,,,,,,,,,,,,,,,,,
,,,,,,,,,,,,,,,90450,001,2022-04-25_00h22.57.880,SPAMnetsValid,2021.1.4,Win32,144.2169022,,,,,,,,,,,,,,,,,,,,,,,,,,,,,,,,,,,,,,,,,,,,,,,,,,,,water,bucket,0,0,0,0,1,,,,,,,,,,,,,,,,,,,,,,,,,,,,,,,
,,,,,,,,,,,,,,,90450,001,2022-04-25_00h22.57.880,SPAMnetsValid,2021.1.4,Win32,144.2169022,,,,,,,,,,,,,,,,,,,,,,,,,,,,,,,,,,,,,,,,,,,,,,,,,,,,container,bucket,1,0,1,0,1,,,,,,,,,,,,,,,,,,,,,,,,,,,,,,,
,,,,,,,,,,,,,,,90450,001,2022-04-25_00h22.57.880,SPAMnetsValid,2021.1.4,Win32,144.2169022,,,,,,,,,,,,,,,,,,,,,,,,,,,,,,,,,,,,,,,,,,,,,,,,,,,,milk,bucket,2,0,2,0,1,,,,,,,,,,,,,,,,,,,,,,,,,,,,,,,
,,,,,,,,,,,,,,,90450,001,2022-04-25_00h22.57.880,SPAMnetsValid,2021.1.4,Win32,144.2169022,,,,,,,,,,,,,,,,,,,,,,,,,,,,,,,,,,,,,,,,,,,,,,,,,,,,handle,bucket,3,0,3,0,1,,,,,,,,,,,,,,,,,,,,,,,,,,,,,,,
,,,,,,,,,,,,,,,90450,001,2022-04-25_00h22.57.880,SPAMnetsValid,2021.1.4,Win32,144.2169022,,,,,,,,,,,,,,,,,,,,,,,,,,,,,,,,,,,,,,,,,,,,,,,,,,,,carry,bucket,4,0,4,0,1,,,,,,,,,,,,,,,,,,,,,,,,,,,,,,,
,,,,,,,,,,,,,,,90450,001,2022-04-25_00h22.57.880,SPAMnetsValid,2021.1.4,Win32,144.2169022,,,,,,,,,,,,,,,,,,,,,,,,,,,,,,,,,,,,,,,,,,,,,,,,,,,,metal,bucket,5,0,5,0,1,,,,,,,,,,,,,,,,,,,,,,,,,,,,,,,
,,,,,,,,,,,,,,,90450,001,2022-04-25_00h22.57.880,SPAMnetsValid,2021.1.4,Win32,144.2169022,,,,,,,,,,,,,,,,,,,,,,,,,,,,,,,,,,,,,,,,,,,,,,,,,,,,,,,,,,,0,1,1,0,1,bucket,,,,,,,,,,,,,,,,,,,,,,,,,
,,,,,,,,,,,,,,,90450,001,2022-04-25_00h22.57.880,SPAMnetsValid,2021.1.4,Win32,144.2169022,,,,,,,,,,,,,,,,,,,,,,,,,,,,,,,,,,,,,,,,,,,,,,,,,,,,light,candle,0,0,0,0,1,,,,,,,,,,,,,,,,,,,,,,,,,,,,,,,
,,,,,,,,,,,,,,,90450,001,2022-04-25_00h22.57.880,SPAMnetsValid,2021.1.4,Win32,144.2169022,,,,,,,,,,,,,,,,,,,,,,,,,,,,,,,,,,,,,,,,,,,,,,,,,,,,fire,candle,1,0,1,0,1,,,,,,,,,,,,,,,,,,,,,,,,,,,,,,,
,,,,,,,,,,,,,,,90450,001,2022-04-25_00h22.57.880,SPAMnetsValid,2021.1.4,Win32,144.2169022,,,,,,,,,,,,,,,,,,,,,,,,,,,,,,,,,,,,,,,,,,,,,,,,,,,,melt,candle,2,0,2,0,1,,,,,,,,,,,,,,,,,,,,,,,,,,,,,,,
,,,,,,,,,,,,,,,90450,001,2022-04-25_00h22.57.880,SPAMnetsValid,2021.1.4,Win32,144.2169022,,,,,,,,,,,,,,,,,,,,,,,,,,,,,,,,,,,,,,,,,,,,,,,,,,,,wax,candle,3,0,3,0,1,,,,,,,,,,,,,,,,,,,,,,,,,,,,,,,
,,,,,,,,,,,,,,,90450,001,2022-04-25_00h22.57.880,SPAMnetsValid,2021.1.4,Win32,144.2169022,,,,,,,,,,,,,,,,,,,,,,,,,,,,,,,,,,,,,,,,,,,,,,,,,,,,string,candle,4,0,4,0,1,,,,,,,,,,,,,,,,,,,,,,,,,,,,,,,
,,,,,,,,,,,,,,,90450,001,2022-04-25_00h22.57.880,SPAMnetsValid,2021.1.4,Win32,144.2169022,,,,,,,,,,,,,,,,,,,,,,,,,,,,,,,,,,,,,,,,,,,,,,,,,,,,stand,candle,5,0,5,0,1,,,,,,,,,,,,,,,,,,,,,,,,,,,,,,,
,,,,,,,,,,,,,,,90450,001,2022-04-25_00h22.57.880,SPAMnetsValid,2021.1.4,Win32,144.2169022,,,,,,,,,,,,,,,,,,,,,,,,,,,,,,,,,,,,,,,,,,,,,,,,,,,,scent,candle,6,0,6,0,1,,,,,,,,,,,,,,,,,,,,,,,,,,,,,,,
,,,,,,,,,,,,,,,90450,001,2022-04-25_00h22.57.880,SPAMnetsValid,2021.1.4,Win32,144.2169022,,,,,,,,,,,,,,,,,,,,,,,,,,,,,,,,,,,,,,,,,,,,,,,,,,,,,,,,,,,0,2,2,1,1,candle,,,,,,,,,,,,,,,,,,,,,,,,,
,,,,,,,,,,,,,,,90450,001,2022-04-25_00h22.57.880,SPAMnetsValid,2021.1.4,Win32,144.2169022,,,,,,,,,,,,,,,,,,,,,,,,,,,,,,,,,,,,,,,,,,,,,,,,,,,,,,,,,,,,,,,,,cow,Animals,0,0,0,0,1,,,,,,,,,,,,,,,,,,
,,,,,,,,,,,,,,,90450,001,2022-04-25_00h22.57.880,SPAMnetsValid,2021.1.4,Win32,144.2169022,,,,,,,,,,,,,,,,,,,,,,,,,,,,,,,,,,,,,,,,,,,,,,,,,,,,,,,,,,,,,,,,,pig,Animals,1,0,1,0,1,,,,,,,,,,,,,,,,,,
,,,,,,,,,,,,,,,90450,001,2022-04-25_00h22.57.880,SPAMnetsValid,2021.1.4,Win32,144.2169022,,,,,,,,,,,,,,,,,,,,,,,,,,,,,,,,,,,,,,,,,,,,,,,,,,,,,,,,,,,,,,,,,goose,Animals,2,0,2,0,1,,,,,,,,,,,,,,,,,,
,,,,,,,,,,,,,,,90450,001,2022-04-25_00h22.57.880,SPAMnetsValid,2021.1.4,Win32,144.2169022,,,,,,,,,,,,,,,,,,,,,,,,,,,,,,,,,,,,,,,,,,,,,,,,,,,,,,,,,,,,,,,,,flamingo,Animals,3,0,3,0,1,,,,,,,,,,,,,,,,,,
,,,,,,,,,,,,,,,90450,001,2022-04-25_00h22.57.880,SPAMnetsValid,2021.1.4,Win32,144.2169022,,,,,,,,,,,,,,,,,,,,,,,,,,,,,,,,,,,,,,,,,,,,,,,,,,,,,,,,,,,,,,,,,parrot,Animals,4,0,4,0,1,,,,,,,,,,,,,,,,,,
,,,,,,,,,,,,,,,90450,001,2022-04-25_00h22.57.880,SPAMnetsValid,2021.1.4,Win32,144.2169022,,,,,,,,,,,,,,,,,,,,,,,,,,,,,,,,,,,,,,,,,,,,,,,,,,,,,,,,,,,,,,,,,mongoose,Animals,5,0,5,0,1,,,,,,,,,,,,,,,,,,
,,,,,,,,,,,,,,,90450,001,2022-04-25_00h22.57.880,SPAMnetsValid,2021.1.4,Win32,144.2169022,,,,,,,,,,,,,,,,,,,,,,,,,,,,,,,,,,,,,,,,,,,,,,,,,,,,,,,,,,,,,,,,,rabbit,Animals,6,0,6,0,1,,,,,,,,,,,,,,,,,,
,,,,,,,,,,,,,,,90450,001,2022-04-25_00h22.57.880,SPAMnetsValid,2021.1.4,Win32,144.2169022,,,,,,,,,,,,,,,,,,,,,,,,,,,,,,,,,,,,,,,,,,,,,,,,,,,,,,,,,,,,,,,,,deer,Animals,7,0,7,0,1,,,,,,,,,,,,,,,,,,
,,,,,,,,,,,,,,,90450,001,2022-04-25_00h22.57.880,SPAMnetsValid,2021.1.4,Win32,144.2169022,,,,,,,,,,,,,,,,,,,,,,,,,,,,,,,,,,,,,,,,,,,,,,,,,,,,,,,,,,,,,,,,,dog,Animals,8,0,8,0,1,,,,,,,,,,,,,,,,,,
,,,,,,,,,,,,,,,90450,001,2022-04-25_00h22.57.880,SPAMnetsValid,2021.1.4,Win32,144.2169022,,,,,,,,,,,,,,,,,,,,,,,,,,,,,,,,,,,,,,,,,,,,,,,,,,,,,,,,,,,,,,,,,cat,Animals,9,0,9,0,1,,,,,,,,,,,,,,,,,,
,,,,,,,,,,,,,,,90450,001,2022-04-25_00h22.57.880,SPAMnetsValid,2021.1.4,Win32,144.2169022,,,,,,,,,,,,,,,,,,,,,,,,,,,,,,,,,,,,,,,,,,,,,,,,,,,,,,,,,,,,,,,,,wolf,Animals,10,0,10,0,1,,,,,,,,,,,,,,,,,,
,,,,,,,,,,,,,,,90450,001,2022-04-25_00h22.57.880,SPAMnetsValid,2021.1.4,Win32,144.2169022,,,,,,,,,,,,,,,,,,,,,,,,,,,,,,,,,,,,,,,,,,,,,,,,,,,,,,,,,,,,,,,,,lion,Animals,11,0,11,0,1,,,,,,,,,,,,,,,,,,
,,,,,,,,,,,,,,,90450,001,2022-04-25_00h22.57.880,SPAMnetsValid,2021.1.4,Win32,144.2169022,,,,,,,,,,,,,,,,,,,,,,,,,,,,,,,,,,,,,,,,,,,,,,,,,,,,,,,,,,,,,,,,,tiger,Animals,12,0,12,0,1,,,,,,,,,,,,,,,,,,
,,,,,,,,,,,,,,,90450,001,2022-04-25_00h22.57.880,SPAMnetsValid,2021.1.4,Win32,144.2169022,,,,,,,,,,,,,,,,,,,,,,,,,,,,,,,,,,,,,,,,,,,,,,,,,,,,,,,,,,,,,,,,,raccoon,Animals,13,0,13,0,1,,,,,,,,,,,,,,,,,,
,,,,,,,,,,,,,,,90450,001,2022-04-25_00h22.57.880,SPAMnetsValid,2021.1.4,Win32,144.2169022,,,,,,,,,,,,,,,,,,,,,,,,,,,,,,,,,,,,,,,,,,,,,,,,,,,,,,,,,,,,,,,,,snake,Animals,14,0,14,0,1,,,,,,,,,,,,,,,,,,
,,,,,,,,,,,,,,,90450,001,2022-04-25_00h22.57.880,SPAMnetsValid,2021.1.4,Win32,144.2169022,,,,,,,,,,,,,,,,,,,,,,,,,,,,,,,,,,,,,,,,,,,,,,,,,,,,,,,,,,,,,,,,,red panda,Animals,15,0,15,0,1,,,,,,,,,,,,,,,,,,
,,,,,,,,,,,,,,,90450,001,2022-04-25_00h22.57.880,SPAMnetsValid,2021.1.4,Win32,144.2169022,,,,,,,,,,,,,,,,,,,,,,,,,,,,,,,,,,,,,,,,,,,,,,,,,,,,,,,,,,,,,,,,,panda,Animals,16,0,16,0,1,,,,,,,,,,,,,,,,,,
,,,,,,,,,,,,,,,90450,001,2022-04-25_00h22.57.880,SPAMnetsValid,2021.1.4,Win32,144.2169022,,,,,,,,,,,,,,,,,,,,,,,,,,,,,,,,,,,,,,,,,,,,,,,,,,,,,,,,,,,,,,,,,panther,Animals,17,0,17,0,1,,,,,,,,,,,,,,,,,,
,,,,,,,,,,,,,,,90450,001,2022-04-25_00h22.57.880,SPAMnetsValid,2021.1.4,Win32,144.2169022,,,,,,,,,,,,,,,,,,,,,,,,,,,,,,,,,,,,,,,,,,,,,,,,,,,,,,,,,,,,,,,,,leopard,Animals,18,0,18,0,1,,,,,,,,,,,,,,,,,,
,,,,,,,,,,,,,,,90450,001,2022-04-25_00h22.57.880,SPAMnetsValid,2021.1.4,Win32,144.2169022,,,,,,,,,,,,,,,,,,,,,,,,,,,,,,,,,,,,,,,,,,,,,,,,,,,,,,,,,,,,,,,,,cheetah,Animals,19,0,19,0,1,,,,,,,,,,,,,,,,,,
,,,,,,,,,,,,,,,90450,001,2022-04-25_00h22.57.880,SPAMnetsValid,2021.1.4,Win32,144.2169022,,,,,,,,,,,,,,,,,,,,,,,,,,,,,,,,,,,,,,,,,,,,,,,,,,,,,,,,,,,,,,,,,,,,,,,,0,0,0,0,1,Animals,,,,,,,,,,,,
,,,,,,,,,,,,,,,90450,001,2022-04-25_00h22.57.880,SPAMnetsValid,2021.1.4,Win32,144.2169022,,,,,,,,,,,,,,,,,,,,,,,,,,,,,,,,,,,,,,,,,,,,,,,,,,,,,,,,,,,,,,,,,,,,,,,,,,,,,,4,16.5681,0,0,0,0,1,"I enjoy concentrating on a fantasy or daydream and exploring all its possibilities, letting it grow and develop.",0,1,,
,,,,,,,,,,,,,,,90450,001,2022-04-25_00h22.57.880,SPAMnetsValid,2021.1.4,Win32,144.2169022,,,,,,,,,,,,,,,,,,,,,,,,,,,,,,,,,,,,,,,,,,,,,,,,,,,,,,,,,,,,,,,,,,,,,,,,,,,,,,4,6.4897,0,1,1,1,1,I think it's interesting to learn and develop new hobbies.,0,2,,
,,,,,,,,,,,,,,,90450,001,2022-04-25_00h22.57.880,SPAMnetsValid,2021.1.4,Win32,144.2169022,,,,,,,,,,,,,,,,,,,,,,,,,,,,,,,,,,,,,,,,,,,,,,,,,,,,,,,,,,,,,,,,,,,,,,,,,,,,,,2,3.8907,0,2,2,2,1,I am intrigued by the patterns I find in art and nature.,0,3,,
,,,,,,,,,,,,,,,90450,001,2022-04-25_00h22.57.880,SPAMnetsValid,2021.1.4,Win32,144.2169022,,,,,,,,,,,,,,,,,,,,,,,,,,,,,,,,,,,,,,,,,,,,,,,,,,,,,,,,,,,,,,,,,,,,,,,,,,,,,,2,8.8527,0,3,3,3,1,I believe letting students hear controversial speakers can only confuse and mislead them.,1,4,,
,,,,,,,,,,,,,,,90450,001,2022-04-25_00h22.57.880,SPAMnetsValid,2021.1.4,Win32,144.2169022,,,,,,,,,,,,,,,,,,,,,,,,,,,,,,,,,,,,,,,,,,,,,,,,,,,,,,,,,,,,,,,,,,,,,,,,,,,,,,3,2.7365,0,4,4,4,1,Poetry has little or no effect on me.,1,5,,
,,,,,,,,,,,,,,,90450,001,2022-04-25_00h22.57.880,SPAMnetsValid,2021.1.4,Win32,144.2169022,,,,,,,,,,,,,,,,,,,,,,,,,,,,,,,,,,,,,,,,,,,,,,,,,,,,,,,,,,,,,,,,,,,,,,,,,,,,,,3,4.6219,0,5,5,5,1,I would have difficulty just letting my mind wander without control or guidance.,1,6,,
,,,,,,,,,,,,,,,90450,001,2022-04-25_00h22.57.880,SPAMnetsValid,2021.1.4,Win32,144.2169022,,,,,,,,,,,,,,,,,,,,,,,,,,,,,,,,,,,,,,,,,,,,,,,,,,,,,,,,,,,,,,,,,,,,,,,,,,,,,,4,8.665,0,6,6,6,1,I seldom notice the moods or feelings that different environments produce.,1,7,,
,,,,,,,,,,,,,,,90450,001,2022-04-25_00h22.57.880,SPAMnetsValid,2021.1.4,Win32,144.2169022,,,,,,,,,,,,,,,,,,,,,,,,,,,,,,,,,,,,,,,,,,,,,,,,,,,,,,,,,,,,,,,,,,,,,,,,,,,,,,3,9.0696,0,7,7,7,1,I experience a wide range of emotions or feelings.,0,8,,
,,,,,,,,,,,,,,,90450,001,2022-04-25_00h22.57.880,SPAMnetsValid,2021.1.4,Win32,144.2169022,,,,,,,,,,,,,,,,,,,,,,,,,,,,,,,,,,,,,,,,,,,,,,,,,,,,,,,,,,,,,,,,,,,,,,,,,,,,,,4,10.5778,0,8,8,8,1,"Sometimes when I am reading poetry or looking at a work of art, I feel a chill or wave of excitement.",0,9,,
,,,,,,,,,,,,,,,90450,001,2022-04-25_00h22.57.880,SPAMnetsValid,2021.1.4,Win32,144.2169022,,,,,,,,,,,,,,,,,,,,,,,,,,,,,,,,,,,,,,,,,,,,,,,,,,,,,,,,,,,,,,,,,,,,,,,,,,,,,,2,5.454,0,9,9,9,1,I have little interest in speculating on the nature of the universe or the human condition.,1,10,,
,,,,,,,,,,,,,,,90450,001,2022-04-25_00h22.57.880,SPAMnetsValid,2021.1.4,Win32,144.2169022,,,,,,,,,,,,,,,,,,,,,,,,,,,,,,,,,,,,,,,,,,,,,,,,,,,,,,,,,,,,,,,,,,,,,,,,,,,,,,3,6.7709,0,10,10,10,1,I have a lot of intellectual curiosity.,0,11,,
,,,,,,,,,,,,,,,90450,001,2022-04-25_00h22.57.880,SPAMnetsValid,2021.1.4,Win32,144.2169022,,,,,,,,,,,,,,,,,,,,,,,,,,,,,,,,,,,,,,,,,,,,,,,,,,,,,,,,,,,,,,,,,,,,,,,,,,,,,,2,6.8557,0,11,11,11,1,I often enjoy playing with theories or abstract ideas.,0,12,,
,,,,,,,,,,,,,,,90450,001,2022-04-25_00h22.57.880,SPAMnetsValid,2021.1.4,Win32,144.2169022,,,,,,,,,,,,,,,,,,,,,,,,,,,,,,,,,,,,,,,,,,,,,,,,,,,,,,,,,,,,,,,,,,,,,,,,,,,,,,,,,,,,,,,,return,18.4345
