key_resp_3.keys,key_resp_3.rt,slider.response,slider.rt,rjt_rating,rjt_RT,trials_22.thisRepN,trials_22.thisTrialN,trials_22.thisN,trials_22.thisIndex,trials_22.ran,rjt_order,word1,word2,attention,participant,session,date,expName,psychopyVersion,OS,frameRate,trials_99.thisRepN,trials_99.thisTrialN,trials_99.thisN,trials_99.thisIndex,trials_99.ran,trials_5.thisRepN,trials_5.thisTrialN,trials_5.thisN,trials_5.thisIndex,trials_5.ran,repOne,repTwo,slider_2.response,slider_2.rt,trials_24.thisRepN,trials_24.thisTrialN,trials_24.thisN,trials_24.thisIndex,trials_24.ran,trials_4.thisRepN,trials_4.thisTrialN,trials_4.thisN,trials_4.thisIndex,trials_4.ran,slider_extend_2.response,slider_extend_2.rt,trials_6.thisRepN,trials_6.thisTrialN,trials_6.thisN,trials_6.thisIndex,trials_6.ran,vCue2,R1,R2,R3,R4,correct,sliderVocab.response,sliderVocab.rt,trials_7.thisRepN,trials_7.thisTrialN,trials_7.thisN,trials_7.thisIndex,trials_7.ran,VocabCue,VR1,VR2,VR3,VR4,VR5,VocabCorrect,AUT_resp,AUT_label,trials.thisRepN,trials.thisTrialN,trials.thisN,trials.thisIndex,trials.ran,trials_2.thisRepN,trials_2.thisTrialN,trials_2.thisN,trials_2.thisIndex,trials_2.ran,aut_prompt,VF_response,VF_tag,trials_16.thisRepN,trials_16.thisTrialN,trials_16.thisN,trials_16.thisIndex,trials_16.ran,trials_17.thisRepN,trials_17.thisTrialN,trials_17.thisN,trials_17.thisIndex,trials_17.ran,VFcond,open_slider.response,open_slider.rt,trials_3.thisRepN,trials_3.thisTrialN,trials_3.thisN,trials_3.thisIndex,trials_3.ran,OpenQ,Rev,OPEN_ORDER,key_resp_2.keys,key_resp_2.rt
return,12.443,7,7.415,7,7.415,0,0,0,72,1,59,rose,strawberry,,90464,001,2022-04-28_10h50.24.565,SPAMnetsValid,2021.1.4,MacIntel,62.5,,,,,,,,,,,,,,,,,,,,,,,,,,,,,,,,,,,,,,,,,,,,,,,,,,,,,,,,,,,,,,,,,,,,,,,,,,,,,,,,,,,,,,,,,
,,7,3.122,7,3.122,0,1,1,47,1,73,broom,chocolate,,90464,001,2022-04-28_10h50.24.565,SPAMnetsValid,2021.1.4,MacIntel,62.5,,,,,,,,,,,,,,,,,,,,,,,,,,,,,,,,,,,,,,,,,,,,,,,,,,,,,,,,,,,,,,,,,,,,,,,,,,,,,,,,,,,,,,,,,
,,8,8.089,8,8.089,0,2,2,24,1,17,carrot,melon,,90464,001,2022-04-28_10h50.24.565,SPAMnetsValid,2021.1.4,MacIntel,62.5,,,,,,,,,,,,,,,,,,,,,,,,,,,,,,,,,,,,,,,,,,,,,,,,,,,,,,,,,,,,,,,,,,,,,,,,,,,,,,,,,,,,,,,,,
,,6,2.645,6,2.645,0,3,3,89,1,80,chocolate,tree,,90464,001,2022-04-28_10h50.24.565,SPAMnetsValid,2021.1.4,MacIntel,62.5,,,,,,,,,,,,,,,,,,,,,,,,,,,,,,,,,,,,,,,,,,,,,,,,,,,,,,,,,,,,,,,,,,,,,,,,,,,,,,,,,,,,,,,,,
,,9,4.67,9,4.67,0,4,4,30,1,3,cake,oven,,90464,001,2022-04-28_10h50.24.565,SPAMnetsValid,2021.1.4,MacIntel,62.5,,,,,,,,,,,,,,,,,,,,,,,,,,,,,,,,,,,,,,,,,,,,,,,,,,,,,,,,,,,,,,,,,,,,,,,,,,,,,,,,,,,,,,,,,
,,5,2.142,5,2.142,0,5,5,92,1,44,cookie,melon,,90464,001,2022-04-28_10h50.24.565,SPAMnetsValid,2021.1.4,MacIntel,62.5,,,,,,,,,,,,,,,,,,,,,,,,,,,,,,,,,,,,,,,,,,,,,,,,,,,,,,,,,,,,,,,,,,,,,,,,,,,,,,,,,,,,,,,,,
,,3,6.062,3,6.062,0,6,6,4,1,83,broom,carrot,,90464,001,2022-04-28_10h50.24.565,SPAMnetsValid,2021.1.4,MacIntel,62.5,,,,,,,,,,,,,,,,,,,,,,,,,,,,,,,,,,,,,,,,,,,,,,,,,,,,,,,,,,,,,,,,,,,,,,,,,,,,,,,,,,,,,,,,,
,,2,2.439,2,2.439,0,7,7,73,1,50,carrot,rose,,90464,001,2022-04-28_10h50.24.565,SPAMnetsValid,2021.1.4,MacIntel,62.5,,,,,,,,,,,,,,,,,,,,,,,,,,,,,,,,,,,,,,,,,,,,,,,,,,,,,,,,,,,,,,,,,,,,,,,,,,,,,,,,,,,,,,,,,
,,1,2.193,1,2.193,0,8,8,65,1,46,garden,yogurt,,90464,001,2022-04-28_10h50.24.565,SPAMnetsValid,2021.1.4,MacIntel,62.5,,,,,,,,,,,,,,,,,,,,,,,,,,,,,,,,,,,,,,,,,,,,,,,,,,,,,,,,,,,,,,,,,,,,,,,,,,,,,,,,,,,,,,,,,
,,6,2.359,6,2.359,0,9,9,68,1,24,cookie,tomato,,90464,001,2022-04-28_10h50.24.565,SPAMnetsValid,2021.1.4,MacIntel,62.5,,,,,,,,,,,,,,,,,,,,,,,,,,,,,,,,,,,,,,,,,,,,,,,,,,,,,,,,,,,,,,,,,,,,,,,,,,,,,,,,,,,,,,,,,
,,8,2.313,8,2.313,0,10,10,52,1,4,chocolate,pretzel,,90464,001,2022-04-28_10h50.24.565,SPAMnetsValid,2021.1.4,MacIntel,62.5,,,,,,,,,,,,,,,,,,,,,,,,,,,,,,,,,,,,,,,,,,,,,,,,,,,,,,,,,,,,,,,,,,,,,,,,,,,,,,,,,,,,,,,,,
,,9,1.985,9,1.985,0,11,11,93,1,63,cake,cookie,,90464,001,2022-04-28_10h50.24.565,SPAMnetsValid,2021.1.4,MacIntel,62.5,,,,,,,,,,,,,,,,,,,,,,,,,,,,,,,,,,,,,,,,,,,,,,,,,,,,,,,,,,,,,,,,,,,,,,,,,,,,,,,,,,,,,,,,,
,,1,2.466,1,2.466,0,12,12,22,1,16,chocolate,flower,,90464,001,2022-04-28_10h50.24.565,SPAMnetsValid,2021.1.4,MacIntel,62.5,,,,,,,,,,,,,,,,,,,,,,,,,,,,,,,,,,,,,,,,,,,,,,,,,,,,,,,,,,,,,,,,,,,,,,,,,,,,,,,,,,,,,,,,,
,,1,2.474,1,2.474,0,13,13,70,1,5,oven,tree,,90464,001,2022-04-28_10h50.24.565,SPAMnetsValid,2021.1.4,MacIntel,62.5,,,,,,,,,,,,,,,,,,,,,,,,,,,,,,,,,,,,,,,,,,,,,,,,,,,,,,,,,,,,,,,,,,,,,,,,,,,,,,,,,,,,,,,,,
,,1,2.074,1,2.074,0,14,14,18,1,85,cake,tree,,90464,001,2022-04-28_10h50.24.565,SPAMnetsValid,2021.1.4,MacIntel,62.5,,,,,,,,,,,,,,,,,,,,,,,,,,,,,,,,,,,,,,,,,,,,,,,,,,,,,,,,,,,,,,,,,,,,,,,,,,,,,,,,,,,,,,,,,
,,6,2.182,6,2.182,0,15,15,51,1,47,onion,tomato,,90464,001,2022-04-28_10h50.24.565,SPAMnetsValid,2021.1.4,MacIntel,62.5,,,,,,,,,,,,,,,,,,,,,,,,,,,,,,,,,,,,,,,,,,,,,,,,,,,,,,,,,,,,,,,,,,,,,,,,,,,,,,,,,,,,,,,,,
,,6,1.695,6,1.695,0,16,16,13,1,26,tomato,yogurt,,90464,001,2022-04-28_10h50.24.565,SPAMnetsValid,2021.1.4,MacIntel,62.5,,,,,,,,,,,,,,,,,,,,,,,,,,,,,,,,,,,,,,,,,,,,,,,,,,,,,,,,,,,,,,,,,,,,,,,,,,,,,,,,,,,,,,,,,
,,7,2.477,7,2.477,0,17,17,91,1,2,kitchen,onion,,90464,001,2022-04-28_10h50.24.565,SPAMnetsValid,2021.1.4,MacIntel,62.5,,,,,,,,,,,,,,,,,,,,,,,,,,,,,,,,,,,,,,,,,,,,,,,,,,,,,,,,,,,,,,,,,,,,,,,,,,,,,,,,,,,,,,,,,
,,4,1.671,4,1.671,0,18,18,61,1,71,broom,rose,,90464,001,2022-04-28_10h50.24.565,SPAMnetsValid,2021.1.4,MacIntel,62.5,,,,,,,,,,,,,,,,,,,,,,,,,,,,,,,,,,,,,,,,,,,,,,,,,,,,,,,,,,,,,,,,,,,,,,,,,,,,,,,,,,,,,,,,,
,,3,1.604,3,1.604,0,19,19,35,1,55,tomato,tree,,90464,001,2022-04-28_10h50.24.565,SPAMnetsValid,2021.1.4,MacIntel,62.5,,,,,,,,,,,,,,,,,,,,,,,,,,,,,,,,,,,,,,,,,,,,,,,,,,,,,,,,,,,,,,,,,,,,,,,,,,,,,,,,,,,,,,,,,
,,3,1.789,3,1.789,0,20,20,77,1,7,melon,tree,,90464,001,2022-04-28_10h50.24.565,SPAMnetsValid,2021.1.4,MacIntel,62.5,,,,,,,,,,,,,,,,,,,,,,,,,,,,,,,,,,,,,,,,,,,,,,,,,,,,,,,,,,,,,,,,,,,,,,,,,,,,,,,,,,,,,,,,,
,,9,2.042,9,2.042,0,21,21,58,1,94,kitchen,microwave,,90464,001,2022-04-28_10h50.24.565,SPAMnetsValid,2021.1.4,MacIntel,62.5,,,,,,,,,,,,,,,,,,,,,,,,,,,,,,,,,,,,,,,,,,,,,,,,,,,,,,,,,,,,,,,,,,,,,,,,,,,,,,,,,,,,,,,,,
,,2,2.015,2,2.015,0,22,22,21,1,56,cactus,tree,,90464,001,2022-04-28_10h50.24.565,SPAMnetsValid,2021.1.4,MacIntel,62.5,,,,,,,,,,,,,,,,,,,,,,,,,,,,,,,,,,,,,,,,,,,,,,,,,,,,,,,,,,,,,,,,,,,,,,,,,,,,,,,,,,,,,,,,,
,,7,1.771,7,1.771,0,23,23,75,1,69,carrot,refrigerator,,90464,001,2022-04-28_10h50.24.565,SPAMnetsValid,2021.1.4,MacIntel,62.5,,,,,,,,,,,,,,,,,,,,,,,,,,,,,,,,,,,,,,,,,,,,,,,,,,,,,,,,,,,,,,,,,,,,,,,,,,,,,,,,,,,,,,,,,
,,7,1.57,7,1.57,0,24,24,62,1,18,onion,refrigerator,,90464,001,2022-04-28_10h50.24.565,SPAMnetsValid,2021.1.4,MacIntel,62.5,,,,,,,,,,,,,,,,,,,,,,,,,,,,,,,,,,,,,,,,,,,,,,,,,,,,,,,,,,,,,,,,,,,,,,,,,,,,,,,,,,,,,,,,,
,,3,1.547,3,1.547,0,25,25,3,1,49,flower,strawberry,,90464,001,2022-04-28_10h50.24.565,SPAMnetsValid,2021.1.4,MacIntel,62.5,,,,,,,,,,,,,,,,,,,,,,,,,,,,,,,,,,,,,,,,,,,,,,,,,,,,,,,,,,,,,,,,,,,,,,,,,,,,,,,,,,,,,,,,,
,,8,3.836,8,3.836,0,26,26,96,1,82,cake,kitchen,,90464,001,2022-04-28_10h50.24.565,SPAMnetsValid,2021.1.4,MacIntel,62.5,,,,,,,,,,,,,,,,,,,,,,,,,,,,,,,,,,,,,,,,,,,,,,,,,,,,,,,,,,,,,,,,,,,,,,,,,,,,,,,,,,,,,,,,,
,,2,1.853,2,1.853,0,27,27,59,1,8,broom,melon,,90464,001,2022-04-28_10h50.24.565,SPAMnetsValid,2021.1.4,MacIntel,62.5,,,,,,,,,,,,,,,,,,,,,,,,,,,,,,,,,,,,,,,,,,,,,,,,,,,,,,,,,,,,,,,,,,,,,,,,,,,,,,,,,,,,,,,,,
,,3,10.257,3,10.257,0,28,28,28,1,84,oven,tomato,,90464,001,2022-04-28_10h50.24.565,SPAMnetsValid,2021.1.4,MacIntel,62.5,,,,,,,,,,,,,,,,,,,,,,,,,,,,,,,,,,,,,,,,,,,,,,,,,,,,,,,,,,,,,,,,,,,,,,,,,,,,,,,,,,,,,,,,,
,,1,2.193,1,2.193,0,29,29,85,1,90,cactus,cake,,90464,001,2022-04-28_10h50.24.565,SPAMnetsValid,2021.1.4,MacIntel,62.5,,,,,,,,,,,,,,,,,,,,,,,,,,,,,,,,,,,,,,,,,,,,,,,,,,,,,,,,,,,,,,,,,,,,,,,,,,,,,,,,,,,,,,,,,
,,1,2.064,1,2.064,0,30,30,25,1,23,flower,microwave,,90464,001,2022-04-28_10h50.24.565,SPAMnetsValid,2021.1.4,MacIntel,62.5,,,,,,,,,,,,,,,,,,,,,,,,,,,,,,,,,,,,,,,,,,,,,,,,,,,,,,,,,,,,,,,,,,,,,,,,,,,,,,,,,,,,,,,,,
,,1,2.031,1,2.031,0,31,31,84,1,91,microwave,rose,,90464,001,2022-04-28_10h50.24.565,SPAMnetsValid,2021.1.4,MacIntel,62.5,,,,,,,,,,,,,,,,,,,,,,,,,,,,,,,,,,,,,,,,,,,,,,,,,,,,,,,,,,,,,,,,,,,,,,,,,,,,,,,,,,,,,,,,,
,,1,2.956,1,2.956,0,32,32,32,1,40,broom,cake,,90464,001,2022-04-28_10h50.24.565,SPAMnetsValid,2021.1.4,MacIntel,62.5,,,,,,,,,,,,,,,,,,,,,,,,,,,,,,,,,,,,,,,,,,,,,,,,,,,,,,,,,,,,,,,,,,,,,,,,,,,,,,,,,,,,,,,,,
,,2,2.137,2,2.137,0,33,33,45,1,10,flower,onion,,90464,001,2022-04-28_10h50.24.565,SPAMnetsValid,2021.1.4,MacIntel,62.5,,,,,,,,,,,,,,,,,,,,,,,,,,,,,,,,,,,,,,,,,,,,,,,,,,,,,,,,,,,,,,,,,,,,,,,,,,,,,,,,,,,,,,,,,
,,1,1.757,1,1.757,0,34,34,56,1,78,cookie,rose,,90464,001,2022-04-28_10h50.24.565,SPAMnetsValid,2021.1.4,MacIntel,62.5,,,,,,,,,,,,,,,,,,,,,,,,,,,,,,,,,,,,,,,,,,,,,,,,,,,,,,,,,,,,,,,,,,,,,,,,,,,,,,,,,,,,,,,,,
,,1,1.955,1,1.955,0,35,35,16,1,14,broom,cookie,,90464,001,2022-04-28_10h50.24.565,SPAMnetsValid,2021.1.4,MacIntel,62.5,,,,,,,,,,,,,,,,,,,,,,,,,,,,,,,,,,,,,,,,,,,,,,,,,,,,,,,,,,,,,,,,,,,,,,,,,,,,,,,,,,,,,,,,,
,,6,1.862,6,1.862,0,36,36,40,1,74,broom,pretzel,,90464,001,2022-04-28_10h50.24.565,SPAMnetsValid,2021.1.4,MacIntel,62.5,,,,,,,,,,,,,,,,,,,,,,,,,,,,,,,,,,,,,,,,,,,,,,,,,,,,,,,,,,,,,,,,,,,,,,,,,,,,,,,,,,,,,,,,,
,,1,2.033,1,2.033,0,37,37,57,1,62,kitchen,rose,,90464,001,2022-04-28_10h50.24.565,SPAMnetsValid,2021.1.4,MacIntel,62.5,,,,,,,,,,,,,,,,,,,,,,,,,,,,,,,,,,,,,,,,,,,,,,,,,,,,,,,,,,,,,,,,,,,,,,,,,,,,,,,,,,,,,,,,,
,,9,1.844,9,1.844,0,38,38,42,1,77,refrigerator,yogurt,,90464,001,2022-04-28_10h50.24.565,SPAMnetsValid,2021.1.4,MacIntel,62.5,,,,,,,,,,,,,,,,,,,,,,,,,,,,,,,,,,,,,,,,,,,,,,,,,,,,,,,,,,,,,,,,,,,,,,,,,,,,,,,,,,,,,,,,,
,,1,1.971,1,1.971,0,39,39,7,1,34,melon,oven,,90464,001,2022-04-28_10h50.24.565,SPAMnetsValid,2021.1.4,MacIntel,62.5,,,,,,,,,,,,,,,,,,,,,,,,,,,,,,,,,,,,,,,,,,,,,,,,,,,,,,,,,,,,,,,,,,,,,,,,,,,,,,,,,,,,,,,,,
,,1,1.837,1,1.837,0,40,40,9,1,75,cookie,onion,,90464,001,2022-04-28_10h50.24.565,SPAMnetsValid,2021.1.4,MacIntel,62.5,,,,,,,,,,,,,,,,,,,,,,,,,,,,,,,,,,,,,,,,,,,,,,,,,,,,,,,,,,,,,,,,,,,,,,,,,,,,,,,,,,,,,,,,,
,,2,2.873,2,2.873,0,41,41,36,1,12,cookie,yogurt,,90464,001,2022-04-28_10h50.24.565,SPAMnetsValid,2021.1.4,MacIntel,62.5,,,,,,,,,,,,,,,,,,,,,,,,,,,,,,,,,,,,,,,,,,,,,,,,,,,,,,,,,,,,,,,,,,,,,,,,,,,,,,,,,,,,,,,,,
,,6,3.34,6,3.34,0,42,42,80,1,61,strawberry,tomato,,90464,001,2022-04-28_10h50.24.565,SPAMnetsValid,2021.1.4,MacIntel,62.5,,,,,,,,,,,,,,,,,,,,,,,,,,,,,,,,,,,,,,,,,,,,,,,,,,,,,,,,,,,,,,,,,,,,,,,,,,,,,,,,,,,,,,,,,
,,1,1.866,1,1.866,0,43,43,14,1,64,chocolate,garden,,90464,001,2022-04-28_10h50.24.565,SPAMnetsValid,2021.1.4,MacIntel,62.5,,,,,,,,,,,,,,,,,,,,,,,,,,,,,,,,,,,,,,,,,,,,,,,,,,,,,,,,,,,,,,,,,,,,,,,,,,,,,,,,,,,,,,,,,
,,7,2.703,7,2.703,0,44,44,67,1,54,chocolate,yogurt,,90464,001,2022-04-28_10h50.24.565,SPAMnetsValid,2021.1.4,MacIntel,62.5,,,,,,,,,,,,,,,,,,,,,,,,,,,,,,,,,,,,,,,,,,,,,,,,,,,,,,,,,,,,,,,,,,,,,,,,,,,,,,,,,,,,,,,,,
,,1,1.644,1,1.644,0,45,45,27,1,72,broom,onion,,90464,001,2022-04-28_10h50.24.565,SPAMnetsValid,2021.1.4,MacIntel,62.5,,,,,,,,,,,,,,,,,,,,,,,,,,,,,,,,,,,,,,,,,,,,,,,,,,,,,,,,,,,,,,,,,,,,,,,,,,,,,,,,,,,,,,,,,
,,6,3.221,6,3.221,0,46,46,69,1,45,onion,pretzel,,90464,001,2022-04-28_10h50.24.565,SPAMnetsValid,2021.1.4,MacIntel,62.5,,,,,,,,,,,,,,,,,,,,,,,,,,,,,,,,,,,,,,,,,,,,,,,,,,,,,,,,,,,,,,,,,,,,,,,,,,,,,,,,,,,,,,,,,
,,1,2.542,1,2.542,0,47,47,17,1,27,cactus,cookie,,90464,001,2022-04-28_10h50.24.565,SPAMnetsValid,2021.1.4,MacIntel,62.5,,,,,,,,,,,,,,,,,,,,,,,,,,,,,,,,,,,,,,,,,,,,,,,,,,,,,,,,,,,,,,,,,,,,,,,,,,,,,,,,,,,,,,,,,
,,2,1.989,2,1.989,0,48,48,90,1,95,broom,refrigerator,,90464,001,2022-04-28_10h50.24.565,SPAMnetsValid,2021.1.4,MacIntel,62.5,,,,,,,,,,,,,,,,,,,,,,,,,,,,,,,,,,,,,,,,,,,,,,,,,,,,,,,,,,,,,,,,,,,,,,,,,,,,,,,,,,,,,,,,,
,,1,1.773,1,1.773,0,49,49,0,1,53,garden,pretzel,,90464,001,2022-04-28_10h50.24.565,SPAMnetsValid,2021.1.4,MacIntel,62.5,,,,,,,,,,,,,,,,,,,,,,,,,,,,,,,,,,,,,,,,,,,,,,,,,,,,,,,,,,,,,,,,,,,,,,,,,,,,,,,,,,,,,,,,,
,,1,1.925,1,1.925,0,50,50,94,1,68,flower,tomato,,90464,001,2022-04-28_10h50.24.565,SPAMnetsValid,2021.1.4,MacIntel,62.5,,,,,,,,,,,,,,,,,,,,,,,,,,,,,,,,,,,,,,,,,,,,,,,,,,,,,,,,,,,,,,,,,,,,,,,,,,,,,,,,,,,,,,,,,
,,2,2.679,2,2.679,0,51,51,26,1,35,flower,pretzel,,90464,001,2022-04-28_10h50.24.565,SPAMnetsValid,2021.1.4,MacIntel,62.5,,,,,,,,,,,,,,,,,,,,,,,,,,,,,,,,,,,,,,,,,,,,,,,,,,,,,,,,,,,,,,,,,,,,,,,,,,,,,,,,,,,,,,,,,
,,4,2.82,4,2.82,0,52,52,38,1,88,cactus,melon,,90464,001,2022-04-28_10h50.24.565,SPAMnetsValid,2021.1.4,MacIntel,62.5,,,,,,,,,,,,,,,,,,,,,,,,,,,,,,,,,,,,,,,,,,,,,,,,,,,,,,,,,,,,,,,,,,,,,,,,,,,,,,,,,,,,,,,,,
,,1,1.74,1,1.74,0,53,53,79,1,86,oven,rose,,90464,001,2022-04-28_10h50.24.565,SPAMnetsValid,2021.1.4,MacIntel,62.5,,,,,,,,,,,,,,,,,,,,,,,,,,,,,,,,,,,,,,,,,,,,,,,,,,,,,,,,,,,,,,,,,,,,,,,,,,,,,,,,,,,,,,,,,
,,7,2.203,7,2.203,0,54,54,6,1,87,carrot,yogurt,,90464,001,2022-04-28_10h50.24.565,SPAMnetsValid,2021.1.4,MacIntel,62.5,,,,,,,,,,,,,,,,,,,,,,,,,,,,,,,,,,,,,,,,,,,,,,,,,,,,,,,,,,,,,,,,,,,,,,,,,,,,,,,,,,,,,,,,,
,,2,2.437,2,2.437,0,55,55,15,1,48,flower,oven,,90464,001,2022-04-28_10h50.24.565,SPAMnetsValid,2021.1.4,MacIntel,62.5,,,,,,,,,,,,,,,,,,,,,,,,,,,,,,,,,,,,,,,,,,,,,,,,,,,,,,,,,,,,,,,,,,,,,,,,,,,,,,,,,,,,,,,,,
,,5,5.246,5,5.246,0,56,56,86,1,51,onion,strawberry,,90464,001,2022-04-28_10h50.24.565,SPAMnetsValid,2021.1.4,MacIntel,62.5,,,,,,,,,,,,,,,,,,,,,,,,,,,,,,,,,,,,,,,,,,,,,,,,,,,,,,,,,,,,,,,,,,,,,,,,,,,,,,,,,,,,,,,,,
,,1,1.832,1,1.832,0,57,57,46,1,41,broom,cactus,,90464,001,2022-04-28_10h50.24.565,SPAMnetsValid,2021.1.4,MacIntel,62.5,,,,,,,,,,,,,,,,,,,,,,,,,,,,,,,,,,,,,,,,,,,,,,,,,,,,,,,,,,,,,,,,,,,,,,,,,,,,,,,,,,,,,,,,,
,,6,2.53,6,2.53,0,58,58,95,1,52,carrot,tomato,,90464,001,2022-04-28_10h50.24.565,SPAMnetsValid,2021.1.4,MacIntel,62.5,,,,,,,,,,,,,,,,,,,,,,,,,,,,,,,,,,,,,,,,,,,,,,,,,,,,,,,,,,,,,,,,,,,,,,,,,,,,,,,,,,,,,,,,,
,,6,2.028,6,2.028,0,59,59,33,1,32,cake,microwave,,90464,001,2022-04-28_10h50.24.565,SPAMnetsValid,2021.1.4,MacIntel,62.5,,,,,,,,,,,,,,,,,,,,,,,,,,,,,,,,,,,,,,,,,,,,,,,,,,,,,,,,,,,,,,,,,,,,,,,,,,,,,,,,,,,,,,,,,
,,1,1.786,1,1.786,0,60,60,49,1,57,flower,kitchen,,90464,001,2022-04-28_10h50.24.565,SPAMnetsValid,2021.1.4,MacIntel,62.5,,,,,,,,,,,,,,,,,,,,,,,,,,,,,,,,,,,,,,,,,,,,,,,,,,,,,,,,,,,,,,,,,,,,,,,,,,,,,,,,,,,,,,,,,
,,6,2.647,6,2.647,0,61,61,23,1,65,broom,garden,,90464,001,2022-04-28_10h50.24.565,SPAMnetsValid,2021.1.4,MacIntel,62.5,,,,,,,,,,,,,,,,,,,,,,,,,,,,,,,,,,,,,,,,,,,,,,,,,,,,,,,,,,,,,,,,,,,,,,,,,,,,,,,,,,,,,,,,,
,,5,3.314,5,3.314,0,62,62,34,1,29,chocolate,melon,,90464,001,2022-04-28_10h50.24.565,SPAMnetsValid,2021.1.4,MacIntel,62.5,,,,,,,,,,,,,,,,,,,,,,,,,,,,,,,,,,,,,,,,,,,,,,,,,,,,,,,,,,,,,,,,,,,,,,,,,,,,,,,,,,,,,,,,,
,,1,1.591,1,1.591,0,63,63,11,1,37,garden,refrigerator,,90464,001,2022-04-28_10h50.24.565,SPAMnetsValid,2021.1.4,MacIntel,62.5,,,,,,,,,,,,,,,,,,,,,,,,,,,,,,,,,,,,,,,,,,,,,,,,,,,,,,,,,,,,,,,,,,,,,,,,,,,,,,,,,,,,,,,,,
,,2,5.082,2,5.082,0,64,64,41,1,19,microwave,pretzel,,90464,001,2022-04-28_10h50.24.565,SPAMnetsValid,2021.1.4,MacIntel,62.5,,,,,,,,,,,,,,,,,,,,,,,,,,,,,,,,,,,,,,,,,,,,,,,,,,,,,,,,,,,,,,,,,,,,,,,,,,,,,,,,,,,,,,,,,
,,2,2.165,2,2.165,0,65,65,83,1,6,garden,onion,,90464,001,2022-04-28_10h50.24.565,SPAMnetsValid,2021.1.4,MacIntel,62.5,,,,,,,,,,,,,,,,,,,,,,,,,,,,,,,,,,,,,,,,,,,,,,,,,,,,,,,,,,,,,,,,,,,,,,,,,,,,,,,,,,,,,,,,,
,,1,12.719,1,12.719,0,66,66,43,1,11,refrigerator,tree,,90464,001,2022-04-28_10h50.24.565,SPAMnetsValid,2021.1.4,MacIntel,62.5,,,,,,,,,,,,,,,,,,,,,,,,,,,,,,,,,,,,,,,,,,,,,,,,,,,,,,,,,,,,,,,,,,,,,,,,,,,,,,,,,,,,,,,,,
,,6,2.491,6,2.491,0,67,67,50,1,81,pretzel,yogurt,,90464,001,2022-04-28_10h50.24.565,SPAMnetsValid,2021.1.4,MacIntel,62.5,,,,,,,,,,,,,,,,,,,,,,,,,,,,,,,,,,,,,,,,,,,,,,,,,,,,,,,,,,,,,,,,,,,,,,,,,,,,,,,,,,,,,,,,,
,,6,2.253,6,2.253,0,68,68,48,1,66,melon,yogurt,,90464,001,2022-04-28_10h50.24.565,SPAMnetsValid,2021.1.4,MacIntel,62.5,,,,,,,,,,,,,,,,,,,,,,,,,,,,,,,,,,,,,,,,,,,,,,,,,,,,,,,,,,,,,,,,,,,,,,,,,,,,,,,,,,,,,,,,,
,,1,19.47,1,19.47,0,69,69,55,1,1,rose,yogurt,,90464,001,2022-04-28_10h50.24.565,SPAMnetsValid,2021.1.4,MacIntel,62.5,,,,,,,,,,,,,,,,,,,,,,,,,,,,,,,,,,,,,,,,,,,,,,,,,,,,,,,,,,,,,,,,,,,,,,,,,,,,,,,,,,,,,,,,,
,,2,2.22,2,2.22,0,70,70,88,1,92,broom,flower,,90464,001,2022-04-28_10h50.24.565,SPAMnetsValid,2021.1.4,MacIntel,62.5,,,,,,,,,,,,,,,,,,,,,,,,,,,,,,,,,,,,,,,,,,,,,,,,,,,,,,,,,,,,,,,,,,,,,,,,,,,,,,,,,,,,,,,,,
,,4,2.335,4,2.335,0,71,71,20,1,39,melon,pretzel,,90464,001,2022-04-28_10h50.24.565,SPAMnetsValid,2021.1.4,MacIntel,62.5,,,,,,,,,,,,,,,,,,,,,,,,,,,,,,,,,,,,,,,,,,,,,,,,,,,,,,,,,,,,,,,,,,,,,,,,,,,,,,,,,,,,,,,,,
,,2,1.673,2,1.673,0,72,72,60,1,89,chocolate,rose,,90464,001,2022-04-28_10h50.24.565,SPAMnetsValid,2021.1.4,MacIntel,62.5,,,,,,,,,,,,,,,,,,,,,,,,,,,,,,,,,,,,,,,,,,,,,,,,,,,,,,,,,,,,,,,,,,,,,,,,,,,,,,,,,,,,,,,,,
,,1,1.674,1,1.674,0,73,73,12,1,67,flower,yogurt,,90464,001,2022-04-28_10h50.24.565,SPAMnetsValid,2021.1.4,MacIntel,62.5,,,,,,,,,,,,,,,,,,,,,,,,,,,,,,,,,,,,,,,,,,,,,,,,,,,,,,,,,,,,,,,,,,,,,,,,,,,,,,,,,,,,,,,,,
,,1,1.687,1,1.687,0,74,74,5,1,13,broom,yogurt,,90464,001,2022-04-28_10h50.24.565,SPAMnetsValid,2021.1.4,MacIntel,62.5,,,,,,,,,,,,,,,,,,,,,,,,,,,,,,,,,,,,,,,,,,,,,,,,,,,,,,,,,,,,,,,,,,,,,,,,,,,,,,,,,,,,,,,,,
,,3,2.519,3,2.519,0,75,75,71,1,38,pretzel,refrigerator,,90464,001,2022-04-28_10h50.24.565,SPAMnetsValid,2021.1.4,MacIntel,62.5,,,,,,,,,,,,,,,,,,,,,,,,,,,,,,,,,,,,,,,,,,,,,,,,,,,,,,,,,,,,,,,,,,,,,,,,,,,,,,,,,,,,,,,,,
,,2,1.853,2,1.853,0,76,76,81,1,60,cactus,onion,,90464,001,2022-04-28_10h50.24.565,SPAMnetsValid,2021.1.4,MacIntel,62.5,,,,,,,,,,,,,,,,,,,,,,,,,,,,,,,,,,,,,,,,,,,,,,,,,,,,,,,,,,,,,,,,,,,,,,,,,,,,,,,,,,,,,,,,,
,,7,1.72,7,1.72,0,77,77,2,1,22,kitchen,strawberry,,90464,001,2022-04-28_10h50.24.565,SPAMnetsValid,2021.1.4,MacIntel,62.5,,,,,,,,,,,,,,,,,,,,,,,,,,,,,,,,,,,,,,,,,,,,,,,,,,,,,,,,,,,,,,,,,,,,,,,,,,,,,,,,,,,,,,,,,
,,6,1.86,6,1.86,0,78,78,8,1,43,chocolate,tomato,,90464,001,2022-04-28_10h50.24.565,SPAMnetsValid,2021.1.4,MacIntel,62.5,,,,,,,,,,,,,,,,,,,,,,,,,,,,,,,,,,,,,,,,,,,,,,,,,,,,,,,,,,,,,,,,,,,,,,,,,,,,,,,,,,,,,,,,,
,,3,1.844,3,1.844,0,79,79,31,1,33,oven,yogurt,,90464,001,2022-04-28_10h50.24.565,SPAMnetsValid,2021.1.4,MacIntel,62.5,,,,,,,,,,,,,,,,,,,,,,,,,,,,,,,,,,,,,,,,,,,,,,,,,,,,,,,,,,,,,,,,,,,,,,,,,,,,,,,,,,,,,,,,,
,,9,2.145,9,2.145,0,80,80,64,1,9,kitchen,refrigerator,,90464,001,2022-04-28_10h50.24.565,SPAMnetsValid,2021.1.4,MacIntel,62.5,,,,,,,,,,,,,,,,,,,,,,,,,,,,,,,,,,,,,,,,,,,,,,,,,,,,,,,,,,,,,,,,,,,,,,,,,,,,,,,,,,,,,,,,,
,,3,3.393,3,3.393,0,81,81,63,1,21,cake,onion,,90464,001,2022-04-28_10h50.24.565,SPAMnetsValid,2021.1.4,MacIntel,62.5,,,,,,,,,,,,,,,,,,,,,,,,,,,,,,,,,,,,,,,,,,,,,,,,,,,,,,,,,,,,,,,,,,,,,,,,,,,,,,,,,,,,,,,,,
,,1,1.852,1,1.852,0,82,82,29,1,42,garden,kitchen,,90464,001,2022-04-28_10h50.24.565,SPAMnetsValid,2021.1.4,MacIntel,62.5,,,,,,,,,,,,,,,,,,,,,,,,,,,,,,,,,,,,,,,,,,,,,,,,,,,,,,,,,,,,,,,,,,,,,,,,,,,,,,,,,,,,,,,,,
,,6,2.625,6,2.625,0,83,83,76,1,36,broom,kitchen,,90464,001,2022-04-28_10h50.24.565,SPAMnetsValid,2021.1.4,MacIntel,62.5,,,,,,,,,,,,,,,,,,,,,,,,,,,,,,,,,,,,,,,,,,,,,,,,,,,,,,,,,,,,,,,,,,,,,,,,,,,,,,,,,,,,,,,,,
,,5,2.531,5,2.531,0,84,84,39,1,15,onion,oven,,90464,001,2022-04-28_10h50.24.565,SPAMnetsValid,2021.1.4,MacIntel,62.5,,,,,,,,,,,,,,,,,,,,,,,,,,,,,,,,,,,,,,,,,,,,,,,,,,,,,,,,,,,,,,,,,,,,,,,,,,,,,,,,,,,,,,,,,
,,6,3.399,6,3.399,0,85,85,66,1,20,rose,tree,,90464,001,2022-04-28_10h50.24.565,SPAMnetsValid,2021.1.4,MacIntel,62.5,,,,,,,,,,,,,,,,,,,,,,,,,,,,,,,,,,,,,,,,,,,,,,,,,,,,,,,,,,,,,,,,,,,,,,,,,,,,,,,,,,,,,,,,,
,,9,2.165,9,2.165,0,86,86,53,1,192,microwave,microwave,CHECK,90464,001,2022-04-28_10h50.24.565,SPAMnetsValid,2021.1.4,MacIntel,62.5,,,,,,,,,,,,,,,,,,,,,,,,,,,,,,,,,,,,,,,,,,,,,,,,,,,,,,,,,,,,,,,,,,,,,,,,,,,,,,,,,,,,,,,,,
,,7,3.125,7,3.125,0,87,87,44,1,25,carrot,onion,,90464,001,2022-04-28_10h50.24.565,SPAMnetsValid,2021.1.4,MacIntel,62.5,,,,,,,,,,,,,,,,,,,,,,,,,,,,,,,,,,,,,,,,,,,,,,,,,,,,,,,,,,,,,,,,,,,,,,,,,,,,,,,,,,,,,,,,,
,,8,2.497,8,2.497,0,88,88,78,1,30,cookie,pretzel,,90464,001,2022-04-28_10h50.24.565,SPAMnetsValid,2021.1.4,MacIntel,62.5,,,,,,,,,,,,,,,,,,,,,,,,,,,,,,,,,,,,,,,,,,,,,,,,,,,,,,,,,,,,,,,,,,,,,,,,,,,,,,,,,,,,,,,,,
,,7,2.612,7,2.612,0,89,89,87,1,79,garden,strawberry,,90464,001,2022-04-28_10h50.24.565,SPAMnetsValid,2021.1.4,MacIntel,62.5,,,,,,,,,,,,,,,,,,,,,,,,,,,,,,,,,,,,,,,,,,,,,,,,,,,,,,,,,,,,,,,,,,,,,,,,,,,,,,,,,,,,,,,,,
,,9,1.911,9,1.911,0,90,90,82,1,93,kitchen,oven,,90464,001,2022-04-28_10h50.24.565,SPAMnetsValid,2021.1.4,MacIntel,62.5,,,,,,,,,,,,,,,,,,,,,,,,,,,,,,,,,,,,,,,,,,,,,,,,,,,,,,,,,,,,,,,,,,,,,,,,,,,,,,,,,,,,,,,,,
,,2,3.622,2,3.622,0,91,91,1,1,31,cactus,pretzel,,90464,001,2022-04-28_10h50.24.565,SPAMnetsValid,2021.1.4,MacIntel,62.5,,,,,,,,,,,,,,,,,,,,,,,,,,,,,,,,,,,,,,,,,,,,,,,,,,,,,,,,,,,,,,,,,,,,,,,,,,,,,,,,,,,,,,,,,
,,4,2.131,4,2.131,0,92,92,74,1,70,chocolate,onion,,90464,001,2022-04-28_10h50.24.565,SPAMnetsValid,2021.1.4,MacIntel,62.5,,,,,,,,,,,,,,,,,,,,,,,,,,,,,,,,,,,,,,,,,,,,,,,,,,,,,,,,,,,,,,,,,,,,,,,,,,,,,,,,,,,,,,,,,
,,9,2.357,9,2.357,0,93,93,19,1,76,garden,rose,,90464,001,2022-04-28_10h50.24.565,SPAMnetsValid,2021.1.4,MacIntel,62.5,,,,,,,,,,,,,,,,,,,,,,,,,,,,,,,,,,,,,,,,,,,,,,,,,,,,,,,,,,,,,,,,,,,,,,,,,,,,,,,,,,,,,,,,,
,,6,3.381,6,3.381,0,94,94,54,1,28,cake,melon,,90464,001,2022-04-28_10h50.24.565,SPAMnetsValid,2021.1.4,MacIntel,62.5,,,,,,,,,,,,,,,,,,,,,,,,,,,,,,,,,,,,,,,,,,,,,,,,,,,,,,,,,,,,,,,,,,,,,,,,,,,,,,,,,,,,,,,,,
,,1,2.514,1,2.514,0,95,95,37,1,58,garden,oven,,90464,001,2022-04-28_10h50.24.565,SPAMnetsValid,2021.1.4,MacIntel,62.5,,,,,,,,,,,,,,,,,,,,,,,,,,,,,,,,,,,,,,,,,,,,,,,,,,,,,,,,,,,,,,,,,,,,,,,,,,,,,,,,,,,,,,,,,
,,9,2.355,9,2.355,0,96,96,10,1,191,cake,cake,CHECK,90464,001,2022-04-28_10h50.24.565,SPAMnetsValid,2021.1.4,MacIntel,62.5,,,,,,,,,,,,,,,,,,,,,,,,,,,,,,,,,,,,,,,,,,,,,,,,,,,,,,,,,,,,,,,,,,,,,,,,,,,,,,,,,,,,,,,,,
,,,,,,,,,,,,,,,90464,001,2022-04-28_10h50.24.565,SPAMnetsValid,2021.1.4,MacIntel,62.5,0,0,0,0,1,,,,,,,,,,,,,,,,,,,,,,,,,,,,,,,,,,,,,,,,,,,,,,,,,,,,,,,,,,,,,,,,,,,,,,,,,,,,,,,,,,,,
,,,,,,,,,,,,,,,90464,001,2022-04-28_10h50.24.565,SPAMnetsValid,2021.1.4,MacIntel,62.5,,,,,,0,0,0,0,1,1,0,,,,,,,,,,,,,,,,,,,,,,,,,,,,,,,,,,,,,,,,,,,,,,,,,,,,,,,,,,,,,,,,,,,,,,,,,,,,,
,,,,4,5.026,,,,,,162,microwave,tomato,,90464,001,2022-04-28_10h50.24.565,SPAMnetsValid,2021.1.4,MacIntel,62.5,,,,,,,,,,,,,4,5.026,0,0,0,12,1,,,,,,,,,,,,,,,,,,,,,,,,,,,,,,,,,,,,,,,,,,,,,,,,,,,,,,,,,,,,,,,,,,,,,,
,,,,9,1.72,,,,,,116,cake,chocolate,,90464,001,2022-04-28_10h50.24.565,SPAMnetsValid,2021.1.4,MacIntel,62.5,,,,,,,,,,,,,9,1.72,0,1,1,44,1,,,,,,,,,,,,,,,,,,,,,,,,,,,,,,,,,,,,,,,,,,,,,,,,,,,,,,,,,,,,,,,,,,,,,,
,,,,6,1.962,,,,,,103,pretzel,tomato,,90464,001,2022-04-28_10h50.24.565,SPAMnetsValid,2021.1.4,MacIntel,62.5,,,,,,,,,,,,,6,1.962,0,2,2,79,1,,,,,,,,,,,,,,,,,,,,,,,,,,,,,,,,,,,,,,,,,,,,,,,,,,,,,,,,,,,,,,,,,,,,,,
,,,,3,2.243,,,,,,178,cactus,carrot,,90464,001,2022-04-28_10h50.24.565,SPAMnetsValid,2021.1.4,MacIntel,62.5,,,,,,,,,,,,,3,2.243,0,3,3,75,1,,,,,,,,,,,,,,,,,,,,,,,,,,,,,,,,,,,,,,,,,,,,,,,,,,,,,,,,,,,,,,,,,,,,,,
,,,,1,1.599,,,,,,164,cookie,garden,,90464,001,2022-04-28_10h50.24.565,SPAMnetsValid,2021.1.4,MacIntel,62.5,,,,,,,,,,,,,1,1.599,0,4,4,59,1,,,,,,,,,,,,,,,,,,,,,,,,,,,,,,,,,,,,,,,,,,,,,,,,,,,,,,,,,,,,,,,,,,,,,,
,,,,4,3.318,,,,,,107,rose,tomato,,90464,001,2022-04-28_10h50.24.565,SPAMnetsValid,2021.1.4,MacIntel,62.5,,,,,,,,,,,,,4,3.318,0,5,5,26,1,,,,,,,,,,,,,,,,,,,,,,,,,,,,,,,,,,,,,,,,,,,,,,,,,,,,,,,,,,,,,,,,,,,,,,
,,,,6,2.036,,,,,,170,cookie,microwave,,90464,001,2022-04-28_10h50.24.565,SPAMnetsValid,2021.1.4,MacIntel,62.5,,,,,,,,,,,,,6,2.036,0,6,6,92,1,,,,,,,,,,,,,,,,,,,,,,,,,,,,,,,,,,,,,,,,,,,,,,,,,,,,,,,,,,,,,,,,,,,,,,
,,,,2,1.804,,,,,,147,cake,refrigerator,,90464,001,2022-04-28_10h50.24.565,SPAMnetsValid,2021.1.4,MacIntel,62.5,,,,,,,,,,,,,2,1.804,0,7,7,35,1,,,,,,,,,,,,,,,,,,,,,,,,,,,,,,,,,,,,,,,,,,,,,,,,,,,,,,,,,,,,,,,,,,,,,,
,,,,1,1.589,,,,,,123,cookie,tree,,90464,001,2022-04-28_10h50.24.565,SPAMnetsValid,2021.1.4,MacIntel,62.5,,,,,,,,,,,,,1,1.589,0,8,8,46,1,,,,,,,,,,,,,,,,,,,,,,,,,,,,,,,,,,,,,,,,,,,,,,,,,,,,,,,,,,,,,,,,,,,,,,
,,,,7,2.349,,,,,,132,broom,tree,,90464,001,2022-04-28_10h50.24.565,SPAMnetsValid,2021.1.4,MacIntel,62.5,,,,,,,,,,,,,7,2.349,0,9,9,78,1,,,,,,,,,,,,,,,,,,,,,,,,,,,,,,,,,,,,,,,,,,,,,,,,,,,,,,,,,,,,,,,,,,,,,,
,,,,1,1.603,,,,,,121,broom,microwave,,90464,001,2022-04-28_10h50.24.565,SPAMnetsValid,2021.1.4,MacIntel,62.5,,,,,,,,,,,,,1,1.603,0,10,10,95,1,,,,,,,,,,,,,,,,,,,,,,,,,,,,,,,,,,,,,,,,,,,,,,,,,,,,,,,,,,,,,,,,,,,,,,
,,,,4,2.364,,,,,,136,chocolate,microwave,,90464,001,2022-04-28_10h50.24.565,SPAMnetsValid,2021.1.4,MacIntel,62.5,,,,,,,,,,,,,4,2.364,0,11,11,96,1,,,,,,,,,,,,,,,,,,,,,,,,,,,,,,,,,,,,,,,,,,,,,,,,,,,,,,,,,,,,,,,,,,,,,,
,,,,6,1.739,,,,,,125,carrot,tree,,90464,001,2022-04-28_10h50.24.565,SPAMnetsValid,2021.1.4,MacIntel,62.5,,,,,,,,,,,,,6,1.739,0,12,12,30,1,,,,,,,,,,,,,,,,,,,,,,,,,,,,,,,,,,,,,,,,,,,,,,,,,,,,,,,,,,,,,,,,,,,,,,
,,,,2,1.752,,,,,,151,microwave,onion,,90464,001,2022-04-28_10h50.24.565,SPAMnetsValid,2021.1.4,MacIntel,62.5,,,,,,,,,,,,,2,1.752,0,13,13,6,1,,,,,,,,,,,,,,,,,,,,,,,,,,,,,,,,,,,,,,,,,,,,,,,,,,,,,,,,,,,,,,,,,,,,,,
,,,,7,1.681,,,,,,112,cake,carrot,,90464,001,2022-04-28_10h50.24.565,SPAMnetsValid,2021.1.4,MacIntel,62.5,,,,,,,,,,,,,7,1.681,0,14,14,39,1,,,,,,,,,,,,,,,,,,,,,,,,,,,,,,,,,,,,,,,,,,,,,,,,,,,,,,,,,,,,,,,,,,,,,,
,,,,3,1.54,,,,,,156,melon,rose,,90464,001,2022-04-28_10h50.24.565,SPAMnetsValid,2021.1.4,MacIntel,62.5,,,,,,,,,,,,,3,1.54,0,15,15,31,1,,,,,,,,,,,,,,,,,,,,,,,,,,,,,,,,,,,,,,,,,,,,,,,,,,,,,,,,,,,,,,,,,,,,,,
,,,,1,1.524,,,,,,127,cactus,chocolate,,90464,001,2022-04-28_10h50.24.565,SPAMnetsValid,2021.1.4,MacIntel,62.5,,,,,,,,,,,,,1,1.524,0,16,16,57,1,,,,,,,,,,,,,,,,,,,,,,,,,,,,,,,,,,,,,,,,,,,,,,,,,,,,,,,,,,,,,,,,,,,,,,
,,,,6,2.189,,,,,,146,pretzel,tree,,90464,001,2022-04-28_10h50.24.565,SPAMnetsValid,2021.1.4,MacIntel,62.5,,,,,,,,,,,,,6,2.189,0,17,17,80,1,,,,,,,,,,,,,,,,,,,,,,,,,,,,,,,,,,,,,,,,,,,,,,,,,,,,,,,,,,,,,,,,,,,,,,
,,,,9,1.618,,,,,,118,chocolate,oven,,90464,001,2022-04-28_10h50.24.565,SPAMnetsValid,2021.1.4,MacIntel,62.5,,,,,,,,,,,,,9,1.618,0,18,18,10,1,,,,,,,,,,,,,,,,,,,,,,,,,,,,,,,,,,,,,,,,,,,,,,,,,,,,,,,,,,,,,,,,,,,,,,
,,,,3,3.186,,,,,,134,carrot,flower,,90464,001,2022-04-28_10h50.24.565,SPAMnetsValid,2021.1.4,MacIntel,62.5,,,,,,,,,,,,,3,3.186,0,19,19,93,1,,,,,,,,,,,,,,,,,,,,,,,,,,,,,,,,,,,,,,,,,,,,,,,,,,,,,,,,,,,,,,,,,,,,,,
,,,,1,1.596,,,,,,101,cactus,kitchen,,90464,001,2022-04-28_10h50.24.565,SPAMnetsValid,2021.1.4,MacIntel,62.5,,,,,,,,,,,,,1,1.596,0,20,20,54,1,,,,,,,,,,,,,,,,,,,,,,,,,,,,,,,,,,,,,,,,,,,,,,,,,,,,,,,,,,,,,,,,,,,,,,
,,,,6,1.703,,,,,,135,carrot,oven,,90464,001,2022-04-28_10h50.24.565,SPAMnetsValid,2021.1.4,MacIntel,62.5,,,,,,,,,,,,,6,1.703,0,21,21,73,1,,,,,,,,,,,,,,,,,,,,,,,,,,,,,,,,,,,,,,,,,,,,,,,,,,,,,,,,,,,,,,,,,,,,,,
,,,,1,488.498,,,,,,126,kitchen,tree,,90464,001,2022-04-28_10h50.24.565,SPAMnetsValid,2021.1.4,MacIntel,62.5,,,,,,,,,,,,,1,488.498,0,22,22,50,1,,,,,,,,,,,,,,,,,,,,,,,,,,,,,,,,,,,,,,,,,,,,,,,,,,,,,,,,,,,,,,,,,,,,,,
,,,,9,2.127,,,,,,142,garden,tree,,90464,001,2022-04-28_10h50.24.565,SPAMnetsValid,2021.1.4,MacIntel,62.5,,,,,,,,,,,,,9,2.127,0,23,23,22,1,,,,,,,,,,,,,,,,,,,,,,,,,,,,,,,,,,,,,,,,,,,,,,,,,,,,,,,,,,,,,,,,,,,,,,
,,,,6,2.159,,,,,,165,onion,rose,,90464,001,2022-04-28_10h50.24.565,SPAMnetsValid,2021.1.4,MacIntel,62.5,,,,,,,,,,,,,6,2.159,0,24,24,40,1,,,,,,,,,,,,,,,,,,,,,,,,,,,,,,,,,,,,,,,,,,,,,,,,,,,,,,,,,,,,,,,,,,,,,,
,,,,8,1.94,,,,,,102,chocolate,refrigerator,,90464,001,2022-04-28_10h50.24.565,SPAMnetsValid,2021.1.4,MacIntel,62.5,,,,,,,,,,,,,8,1.94,0,25,25,76,1,,,,,,,,,,,,,,,,,,,,,,,,,,,,,,,,,,,,,,,,,,,,,,,,,,,,,,,,,,,,,,,,,,,,,,
,,,,9,1.778,,,,,,193,melon,melon,CHECK,90464,001,2022-04-28_10h50.24.565,SPAMnetsValid,2021.1.4,MacIntel,62.5,,,,,,,,,,,,,9,1.778,0,26,26,86,1,,,,,,,,,,,,,,,,,,,,,,,,,,,,,,,,,,,,,,,,,,,,,,,,,,,,,,,,,,,,,,,,,,,,,,
,,,,8,2.357,,,,,,97,chocolate,kitchen,,90464,001,2022-04-28_10h50.24.565,SPAMnetsValid,2021.1.4,MacIntel,62.5,,,,,,,,,,,,,8,2.357,0,27,27,8,1,,,,,,,,,,,,,,,,,,,,,,,,,,,,,,,,,,,,,,,,,,,,,,,,,,,,,,,,,,,,,,,,,,,,,,
,,,,6,1.865,,,,,,148,flower,melon,,90464,001,2022-04-28_10h50.24.565,SPAMnetsValid,2021.1.4,MacIntel,62.5,,,,,,,,,,,,,6,1.865,0,28,28,23,1,,,,,,,,,,,,,,,,,,,,,,,,,,,,,,,,,,,,,,,,,,,,,,,,,,,,,,,,,,,,,,,,,,,,,,
,,,,4,1.995,,,,,,140,cookie,refrigerator,,90464,001,2022-04-28_10h50.24.565,SPAMnetsValid,2021.1.4,MacIntel,62.5,,,,,,,,,,,,,4,1.995,0,29,29,89,1,,,,,,,,,,,,,,,,,,,,,,,,,,,,,,,,,,,,,,,,,,,,,,,,,,,,,,,,,,,,,,,,,,,,,,
,,,,6,2.62,,,,,,168,cactus,flower,,90464,001,2022-04-28_10h50.24.565,SPAMnetsValid,2021.1.4,MacIntel,62.5,,,,,,,,,,,,,6,2.62,0,30,30,51,1,,,,,,,,,,,,,,,,,,,,,,,,,,,,,,,,,,,,,,,,,,,,,,,,,,,,,,,,,,,,,,,,,,,,,,
,,,,3,2.356,,,,,,111,carrot,microwave,,90464,001,2022-04-28_10h50.24.565,SPAMnetsValid,2021.1.4,MacIntel,62.5,,,,,,,,,,,,,3,2.356,0,31,31,16,1,,,,,,,,,,,,,,,,,,,,,,,,,,,,,,,,,,,,,,,,,,,,,,,,,,,,,,,,,,,,,,,,,,,,,,
,,,,8,2.01,,,,,,161,kitchen,pretzel,,90464,001,2022-04-28_10h50.24.565,SPAMnetsValid,2021.1.4,MacIntel,62.5,,,,,,,,,,,,,8,2.01,0,32,32,36,1,,,,,,,,,,,,,,,,,,,,,,,,,,,,,,,,,,,,,,,,,,,,,,,,,,,,,,,,,,,,,,,,,,,,,,
,,,,1,2.759,,,,,,145,cactus,yogurt,,90464,001,2022-04-28_10h50.24.565,SPAMnetsValid,2021.1.4,MacIntel,62.5,,,,,,,,,,,,,1,2.759,0,33,33,15,1,,,,,,,,,,,,,,,,,,,,,,,,,,,,,,,,,,,,,,,,,,,,,,,,,,,,,,,,,,,,,,,,,,,,,,
,,,,1,31.438,,,,,,105,cactus,oven,,90464,001,2022-04-28_10h50.24.565,SPAMnetsValid,2021.1.4,MacIntel,62.5,,,,,,,,,,,,,1,31.438,0,34,34,13,1,,,,,,,,,,,,,,,,,,,,,,,,,,,,,,,,,,,,,,,,,,,,,,,,,,,,,,,,,,,,,,,,,,,,,,
,,,,6,2.28,,,,,,108,carrot,chocolate,,90464,001,2022-04-28_10h50.24.565,SPAMnetsValid,2021.1.4,MacIntel,62.5,,,,,,,,,,,,,6,2.28,0,35,35,5,1,,,,,,,,,,,,,,,,,,,,,,,,,,,,,,,,,,,,,,,,,,,,,,,,,,,,,,,,,,,,,,,,,,,,,,
,,,,9,2.554,,,,,,194,cactus,cactus,CHECK,90464,001,2022-04-28_10h50.24.565,SPAMnetsValid,2021.1.4,MacIntel,62.5,,,,,,,,,,,,,9,2.554,0,36,36,25,1,,,,,,,,,,,,,,,,,,,,,,,,,,,,,,,,,,,,,,,,,,,,,,,,,,,,,,,,,,,,,,,,,,,,,,
,,,,4,3.613,,,,,,171,cake,tomato,,90464,001,2022-04-28_10h50.24.565,SPAMnetsValid,2021.1.4,MacIntel,62.5,,,,,,,,,,,,,4,3.613,0,37,37,88,1,,,,,,,,,,,,,,,,,,,,,,,,,,,,,,,,,,,,,,,,,,,,,,,,,,,,,,,,,,,,,,,,,,,,,,
,,,,1,1.599,,,,,,157,refrigerator,rose,,90464,001,2022-04-28_10h50.24.565,SPAMnetsValid,2021.1.4,MacIntel,62.5,,,,,,,,,,,,,1,1.599,0,38,38,64,1,,,,,,,,,,,,,,,,,,,,,,,,,,,,,,,,,,,,,,,,,,,,,,,,,,,,,,,,,,,,,,,,,,,,,,
,,,,3,2.186,,,,,,175,melon,onion,,90464,001,2022-04-28_10h50.24.565,SPAMnetsValid,2021.1.4,MacIntel,62.5,,,,,,,,,,,,,3,2.186,0,39,39,41,1,,,,,,,,,,,,,,,,,,,,,,,,,,,,,,,,,,,,,,,,,,,,,,,,,,,,,,,,,,,,,,,,,,,,,,
,,,,8,3.055,,,,,,158,cookie,oven,,90464,001,2022-04-28_10h50.24.565,SPAMnetsValid,2021.1.4,MacIntel,62.5,,,,,,,,,,,,,8,3.055,0,40,40,27,1,,,,,,,,,,,,,,,,,,,,,,,,,,,,,,,,,,,,,,,,,,,,,,,,,,,,,,,,,,,,,,,,,,,,,,
,,,,8,2.16,,,,,,181,carrot,kitchen,,90464,001,2022-04-28_10h50.24.565,SPAMnetsValid,2021.1.4,MacIntel,62.5,,,,,,,,,,,,,8,2.16,0,41,41,72,1,,,,,,,,,,,,,,,,,,,,,,,,,,,,,,,,,,,,,,,,,,,,,,,,,,,,,,,,,,,,,,,,,,,,,,
,,,,2,1.952,,,,,,169,onion,yogurt,,90464,001,2022-04-28_10h50.24.565,SPAMnetsValid,2021.1.4,MacIntel,62.5,,,,,,,,,,,,,2,1.952,0,42,42,24,1,,,,,,,,,,,,,,,,,,,,,,,,,,,,,,,,,,,,,,,,,,,,,,,,,,,,,,,,,,,,,,,,,,,,,,
,,,,1,1.721,,,,,,129,cactus,refrigerator,,90464,001,2022-04-28_10h50.24.565,SPAMnetsValid,2021.1.4,MacIntel,62.5,,,,,,,,,,,,,1,1.721,0,43,43,3,1,,,,,,,,,,,,,,,,,,,,,,,,,,,,,,,,,,,,,,,,,,,,,,,,,,,,,,,,,,,,,,,,,,,,,,
,,,,7,1.856,,,,,,100,garden,tomato,,90464,001,2022-04-28_10h50.24.565,SPAMnetsValid,2021.1.4,MacIntel,62.5,,,,,,,,,,,,,7,1.856,0,44,44,83,1,,,,,,,,,,,,,,,,,,,,,,,,,,,,,,,,,,,,,,,,,,,,,,,,,,,,,,,,,,,,,,,,,,,,,,
,,,,3,1.949,,,,,,183,cake,rose,,90464,001,2022-04-28_10h50.24.565,SPAMnetsValid,2021.1.4,MacIntel,62.5,,,,,,,,,,,,,3,1.949,0,45,45,19,1,,,,,,,,,,,,,,,,,,,,,,,,,,,,,,,,,,,,,,,,,,,,,,,,,,,,,,,,,,,,,,,,,,,,,,
,,,,6,2.725,,,,,,163,melon,refrigerator,,90464,001,2022-04-28_10h50.24.565,SPAMnetsValid,2021.1.4,MacIntel,62.5,,,,,,,,,,,,,6,2.725,0,46,46,29,1,,,,,,,,,,,,,,,,,,,,,,,,,,,,,,,,,,,,,,,,,,,,,,,,,,,,,,,,,,,,,,,,,,,,,,
,,,,6,2.03,,,,,,114,cookie,strawberry,,90464,001,2022-04-28_10h50.24.565,SPAMnetsValid,2021.1.4,MacIntel,62.5,,,,,,,,,,,,,6,2.03,0,47,47,87,1,,,,,,,,,,,,,,,,,,,,,,,,,,,,,,,,,,,,,,,,,,,,,,,,,,,,,,,,,,,,,,,,,,,,,,
,,,,9,5.987,,,,,,138,flower,rose,,90464,001,2022-04-28_10h50.24.565,SPAMnetsValid,2021.1.4,MacIntel,62.5,,,,,,,,,,,,,9,5.987,0,48,48,61,1,,,,,,,,,,,,,,,,,,,,,,,,,,,,,,,,,,,,,,,,,,,,,,,,,,,,,,,,,,,,,,,,,,,,,,
,,,,2,7.13,,,,,,144,cake,garden,,90464,001,2022-04-28_10h50.24.565,SPAMnetsValid,2021.1.4,MacIntel,62.5,,,,,,,,,,,,,2,7.13,0,49,49,58,1,,,,,,,,,,,,,,,,,,,,,,,,,,,,,,,,,,,,,,,,,,,,,,,,,,,,,,,,,,,,,,,,,,,,,,
,,,,1,2.822,,,,,,153,carrot,pretzel,,90464,001,2022-04-28_10h50.24.565,SPAMnetsValid,2021.1.4,MacIntel,62.5,,,,,,,,,,,,,1,2.822,0,50,50,34,1,,,,,,,,,,,,,,,,,,,,,,,,,,,,,,,,,,,,,,,,,,,,,,,,,,,,,,,,,,,,,,,,,,,,,,
,,,,1,5.305,,,,,,176,cactus,tomato,,90464,001,2022-04-28_10h50.24.565,SPAMnetsValid,2021.1.4,MacIntel,62.5,,,,,,,,,,,,,1,5.305,0,51,51,9,1,,,,,,,,,,,,,,,,,,,,,,,,,,,,,,,,,,,,,,,,,,,,,,,,,,,,,,,,,,,,,,,,,,,,,,
,,,,4,3.18,,,,,,130,microwave,yogurt,,90464,001,2022-04-28_10h50.24.565,SPAMnetsValid,2021.1.4,MacIntel,62.5,,,,,,,,,,,,,4,3.18,0,52,52,84,1,,,,,,,,,,,,,,,,,,,,,,,,,,,,,,,,,,,,,,,,,,,,,,,,,,,,,,,,,,,,,,,,,,,,,,
,,,,8,5.843,,,,,,154,strawberry,yogurt,,90464,001,2022-04-28_10h50.24.565,SPAMnetsValid,2021.1.4,MacIntel,62.5,,,,,,,,,,,,,8,5.843,0,53,53,28,1,,,,,,,,,,,,,,,,,,,,,,,,,,,,,,,,,,,,,,,,,,,,,,,,,,,,,,,,,,,,,,,,,,,,,,
,,,,2,2.615,,,,,,137,microwave,tree,,90464,001,2022-04-28_10h50.24.565,SPAMnetsValid,2021.1.4,MacIntel,62.5,,,,,,,,,,,,,2,2.615,0,54,54,63,1,,,,,,,,,,,,,,,,,,,,,,,,,,,,,,,,,,,,,,,,,,,,,,,,,,,,,,,,,,,,,,,,,,,,,,
,,,,1,2.739,,,,,,179,broom,oven,,90464,001,2022-04-28_10h50.24.565,SPAMnetsValid,2021.1.4,MacIntel,62.5,,,,,,,,,,,,,1,2.739,0,55,55,45,1,,,,,,,,,,,,,,,,,,,,,,,,,,,,,,,,,,,,,,,,,,,,,,,,,,,,,,,,,,,,,,,,,,,,,,
,,,,9,2.953,,,,,,150,microwave,refrigerator,,90464,001,2022-04-28_10h50.24.565,SPAMnetsValid,2021.1.4,MacIntel,62.5,,,,,,,,,,,,,9,2.953,0,56,56,66,1,,,,,,,,,,,,,,,,,,,,,,,,,,,,,,,,,,,,,,,,,,,,,,,,,,,,,,,,,,,,,,,,,,,,,,
,,,,2,2.748,,,,,,182,flower,refrigerator,,90464,001,2022-04-28_10h50.24.565,SPAMnetsValid,2021.1.4,MacIntel,62.5,,,,,,,,,,,,,2,2.748,0,57,57,32,1,,,,,,,,,,,,,,,,,,,,,,,,,,,,,,,,,,,,,,,,,,,,,,,,,,,,,,,,,,,,,,,,,,,,,,
,,,,2,2.409,,,,,,131,cactus,garden,,90464,001,2022-04-28_10h50.24.565,SPAMnetsValid,2021.1.4,MacIntel,62.5,,,,,,,,,,,,,2,2.409,0,58,58,33,1,,,,,,,,,,,,,,,,,,,,,,,,,,,,,,,,,,,,,,,,,,,,,,,,,,,,,,,,,,,,,,,,,,,,,,
,,,,1,2.57,,,,,,139,carrot,strawberry,,90464,001,2022-04-28_10h50.24.565,SPAMnetsValid,2021.1.4,MacIntel,62.5,,,,,,,,,,,,,1,2.57,0,59,59,37,1,,,,,,,,,,,,,,,,,,,,,,,,,,,,,,,,,,,,,,,,,,,,,,,,,,,,,,,,,,,,,,,,,,,,,,
,,,,2,6.505,,,,,,119,strawberry,tree,,90464,001,2022-04-28_10h50.24.565,SPAMnetsValid,2021.1.4,MacIntel,62.5,,,,,,,,,,,,,2,6.505,0,60,60,18,1,,,,,,,,,,,,,,,,,,,,,,,,,,,,,,,,,,,,,,,,,,,,,,,,,,,,,,,,,,,,,,,,,,,,,,
,,,,7,2.361,,,,,,173,kitchen,tomato,,90464,001,2022-04-28_10h50.24.565,SPAMnetsValid,2021.1.4,MacIntel,62.5,,,,,,,,,,,,,7,2.361,0,61,61,1,1,,,,,,,,,,,,,,,,,,,,,,,,,,,,,,,,,,,,,,,,,,,,,,,,,,,,,,,,,,,,,,,,,,,,,,
,,,,6,11.569,,,,,,99,garden,melon,,90464,001,2022-04-28_10h50.24.565,SPAMnetsValid,2021.1.4,MacIntel,62.5,,,,,,,,,,,,,6,11.569,0,62,62,17,1,,,,,,,,,,,,,,,,,,,,,,,,,,,,,,,,,,,,,,,,,,,,,,,,,,,,,,,,,,,,,,,,,,,,,,
,,,,9,4.009,,,,,,110,chocolate,cookie,,90464,001,2022-04-28_10h50.24.565,SPAMnetsValid,2021.1.4,MacIntel,62.5,,,,,,,,,,,,,9,4.009,0,63,63,52,1,,,,,,,,,,,,,,,,,,,,,,,,,,,,,,,,,,,,,,,,,,,,,,,,,,,,,,,,,,,,,,,,,,,,,,
,,,,8,2.229,,,,,,186,kitchen,yogurt,,90464,001,2022-04-28_10h50.24.565,SPAMnetsValid,2021.1.4,MacIntel,62.5,,,,,,,,,,,,,8,2.229,0,64,64,48,1,,,,,,,,,,,,,,,,,,,,,,,,,,,,,,,,,,,,,,,,,,,,,,,,,,,,,,,,,,,,,,,,,,,,,,
,,,,6,1.823,,,,,,155,carrot,cookie,,90464,001,2022-04-28_10h50.24.565,SPAMnetsValid,2021.1.4,MacIntel,62.5,,,,,,,,,,,,,6,1.823,0,65,65,38,1,,,,,,,,,,,,,,,,,,,,,,,,,,,,,,,,,,,,,,,,,,,,,,,,,,,,,,,,,,,,,,,,,,,,,,
,,,,1,3.931,,,,,,104,garden,microwave,,90464,001,2022-04-28_10h50.24.565,SPAMnetsValid,2021.1.4,MacIntel,62.5,,,,,,,,,,,,,1,3.931,0,66,66,81,1,,,,,,,,,,,,,,,,,,,,,,,,,,,,,,,,,,,,,,,,,,,,,,,,,,,,,,,,,,,,,,,,,,,,,,
,,,,3,3.92,,,,,,184,oven,pretzel,,90464,001,2022-04-28_10h50.24.565,SPAMnetsValid,2021.1.4,MacIntel,62.5,,,,,,,,,,,,,3,3.92,0,67,67,42,1,,,,,,,,,,,,,,,,,,,,,,,,,,,,,,,,,,,,,,,,,,,,,,,,,,,,,,,,,,,,,,,,,,,,,,
,,,,6,2.723,,,,,,98,pretzel,strawberry,,90464,001,2022-04-28_10h50.24.565,SPAMnetsValid,2021.1.4,MacIntel,62.5,,,,,,,,,,,,,6,2.723,0,68,68,82,1,,,,,,,,,,,,,,,,,,,,,,,,,,,,,,,,,,,,,,,,,,,,,,,,,,,,,,,,,,,,,,,,,,,,,,
,,,,8,7.139,,,,,,177,chocolate,strawberry,,90464,001,2022-04-28_10h50.24.565,SPAMnetsValid,2021.1.4,MacIntel,62.5,,,,,,,,,,,,,8,7.139,0,69,69,53,1,,,,,,,,,,,,,,,,,,,,,,,,,,,,,,,,,,,,,,,,,,,,,,,,,,,,,,,,,,,,,,,,,,,,,,
,,,,7,2.522,,,,,,115,refrigerator,tomato,,90464,001,2022-04-28_10h50.24.565,SPAMnetsValid,2021.1.4,MacIntel,62.5,,,,,,,,,,,,,7,2.522,0,70,70,85,1,,,,,,,,,,,,,,,,,,,,,,,,,,,,,,,,,,,,,,,,,,,,,,,,,,,,,,,,,,,,,,,,,,,,,,
,,,,1,2.274,,,,,,180,tree,yogurt,,90464,001,2022-04-28_10h50.24.565,SPAMnetsValid,2021.1.4,MacIntel,62.5,,,,,,,,,,,,,1,2.274,0,71,71,68,1,,,,,,,,,,,,,,,,,,,,,,,,,,,,,,,,,,,,,,,,,,,,,,,,,,,,,,,,,,,,,,,,,,,,,,
,,,,2,8.379,,,,,,166,cake,yogurt,,90464,001,2022-04-28_10h50.24.565,SPAMnetsValid,2021.1.4,MacIntel,62.5,,,,,,,,,,,,,2,8.379,0,72,72,91,1,,,,,,,,,,,,,,,,,,,,,,,,,,,,,,,,,,,,,,,,,,,,,,,,,,,,,,,,,,,,,,,,,,,,,,
,,,,1,1.687,,,,,,109,broom,strawberry,,90464,001,2022-04-28_10h50.24.565,SPAMnetsValid,2021.1.4,MacIntel,62.5,,,,,,,,,,,,,1,1.687,0,73,73,4,1,,,,,,,,,,,,,,,,,,,,,,,,,,,,,,,,,,,,,,,,,,,,,,,,,,,,,,,,,,,,,,,,,,,,,,
,,,,3,4.494,,,,,,152,cactus,strawberry,,90464,001,2022-04-28_10h50.24.565,SPAMnetsValid,2021.1.4,MacIntel,62.5,,,,,,,,,,,,,3,4.494,0,74,74,49,1,,,,,,,,,,,,,,,,,,,,,,,,,,,,,,,,,,,,,,,,,,,,,,,,,,,,,,,,,,,,,,,,,,,,,,
,,,,1,3.473,,,,,,128,melon,microwave,,90464,001,2022-04-28_10h50.24.565,SPAMnetsValid,2021.1.4,MacIntel,62.5,,,,,,,,,,,,,1,3.473,0,75,75,74,1,,,,,,,,,,,,,,,,,,,,,,,,,,,,,,,,,,,,,,,,,,,,,,,,,,,,,,,,,,,,,,,,,,,,,,
,,,,6,8.093,,,,,,172,kitchen,melon,,90464,001,2022-04-28_10h50.24.565,SPAMnetsValid,2021.1.4,MacIntel,62.5,,,,,,,,,,,,,6,8.093,0,76,76,77,1,,,,,,,,,,,,,,,,,,,,,,,,,,,,,,,,,,,,,,,,,,,,,,,,,,,,,,,,,,,,,,,,,,,,,,
,,,,7,2.481,,,,,,113,refrigerator,strawberry,,90464,001,2022-04-28_10h50.24.565,SPAMnetsValid,2021.1.4,MacIntel,62.5,,,,,,,,,,,,,7,2.481,0,77,77,56,1,,,,,,,,,,,,,,,,,,,,,,,,,,,,,,,,,,,,,,,,,,,,,,,,,,,,,,,,,,,,,,,,,,,,,,
,,,,2,1.906,,,,,,189,onion,tree,,90464,001,2022-04-28_10h50.24.565,SPAMnetsValid,2021.1.4,MacIntel,62.5,,,,,,,,,,,,,2,1.906,0,78,78,62,1,,,,,,,,,,,,,,,,,,,,,,,,,,,,,,,,,,,,,,,,,,,,,,,,,,,,,,,,,,,,,,,,,,,,,,
,,,,9,5.082,,,,,,122,flower,garden,,90464,001,2022-04-28_10h50.24.565,SPAMnetsValid,2021.1.4,MacIntel,62.5,,,,,,,,,,,,,9,5.082,0,79,79,60,1,,,,,,,,,,,,,,,,,,,,,,,,,,,,,,,,,,,,,,,,,,,,,,,,,,,,,,,,,,,,,,,,,,,,,,
,,,,1,2.596,,,,,,190,microwave,strawberry,,90464,001,2022-04-28_10h50.24.565,SPAMnetsValid,2021.1.4,MacIntel,62.5,,,,,,,,,,,,,1,2.596,0,80,80,90,1,,,,,,,,,,,,,,,,,,,,,,,,,,,,,,,,,,,,,,,,,,,,,,,,,,,,,,,,,,,,,,,,,,,,,,
,,,,1,5.92,,,,,,143,pretzel,rose,,90464,001,2022-04-28_10h50.24.565,SPAMnetsValid,2021.1.4,MacIntel,62.5,,,,,,,,,,,,,1,5.92,0,81,81,55,1,,,,,,,,,,,,,,,,,,,,,,,,,,,,,,,,,,,,,,,,,,,,,,,,,,,,,,,,,,,,,,,,,,,,,,
,,,,6,1.887,,,,,,167,carrot,garden,,90464,001,2022-04-28_10h50.24.565,SPAMnetsValid,2021.1.4,MacIntel,62.5,,,,,,,,,,,,,6,1.887,0,82,82,47,1,,,,,,,,,,,,,,,,,,,,,,,,,,,,,,,,,,,,,,,,,,,,,,,,,,,,,,,,,,,,,,,,,,,,,,
,,,,7,15.98,,,,,,174,cake,pretzel,,90464,001,2022-04-28_10h50.24.565,SPAMnetsValid,2021.1.4,MacIntel,62.5,,,,,,,,,,,,,7,15.98,0,83,83,2,1,,,,,,,,,,,,,,,,,,,,,,,,,,,,,,,,,,,,,,,,,,,,,,,,,,,,,,,,,,,,,,,,,,,,,,
,,,,1,1.973,,,,,,133,cake,flower,,90464,001,2022-04-28_10h50.24.565,SPAMnetsValid,2021.1.4,MacIntel,62.5,,,,,,,,,,,,,1,1.973,0,84,84,94,1,,,,,,,,,,,,,,,,,,,,,,,,,,,,,,,,,,,,,,,,,,,,,,,,,,,,,,,,,,,,,,,,,,,,,,
,,,,9,3.211,,,,,,120,microwave,oven,,90464,001,2022-04-28_10h50.24.565,SPAMnetsValid,2021.1.4,MacIntel,62.5,,,,,,,,,,,,,9,3.211,0,85,85,14,1,,,,,,,,,,,,,,,,,,,,,,,,,,,,,,,,,,,,,,,,,,,,,,,,,,,,,,,,,,,,,,,,,,,,,,
,,,,2,14.59,,,,,,185,cactus,rose,,90464,001,2022-04-28_10h50.24.565,SPAMnetsValid,2021.1.4,MacIntel,62.5,,,,,,,,,,,,,2,14.59,0,86,86,43,1,,,,,,,,,,,,,,,,,,,,,,,,,,,,,,,,,,,,,,,,,,,,,,,,,,,,,,,,,,,,,,,,,,,,,,
,,,,8,5.906,,,,,,188,flower,tree,,90464,001,2022-04-28_10h50.24.565,SPAMnetsValid,2021.1.4,MacIntel,62.5,,,,,,,,,,,,,8,5.906,0,87,87,7,1,,,,,,,,,,,,,,,,,,,,,,,,,,,,,,,,,,,,,,,,,,,,,,,,,,,,,,,,,,,,,,,,,,,,,,
,,,,9,3.693,,,,,,124,oven,refrigerator,,90464,001,2022-04-28_10h50.24.565,SPAMnetsValid,2021.1.4,MacIntel,62.5,,,,,,,,,,,,,9,3.693,0,88,88,69,1,,,,,,,,,,,,,,,,,,,,,,,,,,,,,,,,,,,,,,,,,,,,,,,,,,,,,,,,,,,,,,,,,,,,,,
,,,,2,1.99,,,,,,187,cactus,microwave,,90464,001,2022-04-28_10h50.24.565,SPAMnetsValid,2021.1.4,MacIntel,62.5,,,,,,,,,,,,,2,1.99,0,89,89,71,1,,,,,,,,,,,,,,,,,,,,,,,,,,,,,,,,,,,,,,,,,,,,,,,,,,,,,,,,,,,,,,,,,,,,,,
,,,,6,2.307,,,,,,106,cake,strawberry,,90464,001,2022-04-28_10h50.24.565,SPAMnetsValid,2021.1.4,MacIntel,62.5,,,,,,,,,,,,,6,2.307,0,90,90,0,1,,,,,,,,,,,,,,,,,,,,,,,,,,,,,,,,,,,,,,,,,,,,,,,,,,,,,,,,,,,,,,,,,,,,,,
,,,,2,3.272,,,,,,96,oven,strawberry,,90464,001,2022-04-28_10h50.24.565,SPAMnetsValid,2021.1.4,MacIntel,62.5,,,,,,,,,,,,,2,3.272,0,91,91,67,1,,,,,,,,,,,,,,,,,,,,,,,,,,,,,,,,,,,,,,,,,,,,,,,,,,,,,,,,,,,,,,,,,,,,,,
,,,,7,15.624,,,,,,141,melon,tomato,,90464,001,2022-04-28_10h50.24.565,SPAMnetsValid,2021.1.4,MacIntel,62.5,,,,,,,,,,,,,7,15.624,0,92,92,70,1,,,,,,,,,,,,,,,,,,,,,,,,,,,,,,,,,,,,,,,,,,,,,,,,,,,,,,,,,,,,,,,,,,,,,,
,,,,6,3.406,,,,,,117,melon,strawberry,,90464,001,2022-04-28_10h50.24.565,SPAMnetsValid,2021.1.4,MacIntel,62.5,,,,,,,,,,,,,6,3.406,0,93,93,11,1,,,,,,,,,,,,,,,,,,,,,,,,,,,,,,,,,,,,,,,,,,,,,,,,,,,,,,,,,,,,,,,,,,,,,,
,,,,8,1.796,,,,,,160,cookie,kitchen,,90464,001,2022-04-28_10h50.24.565,SPAMnetsValid,2021.1.4,MacIntel,62.5,,,,,,,,,,,,,8,1.796,0,94,94,65,1,,,,,,,,,,,,,,,,,,,,,,,,,,,,,,,,,,,,,,,,,,,,,,,,,,,,,,,,,,,,,,,,,,,,,,
,,,,1,2.743,,,,,,149,broom,tomato,,90464,001,2022-04-28_10h50.24.565,SPAMnetsValid,2021.1.4,MacIntel,62.5,,,,,,,,,,,,,1,2.743,0,95,95,20,1,,,,,,,,,,,,,,,,,,,,,,,,,,,,,,,,,,,,,,,,,,,,,,,,,,,,,,,,,,,,,,,,,,,,,,
,,,,2,2.606,,,,,,159,cookie,flower,,90464,001,2022-04-28_10h50.24.565,SPAMnetsValid,2021.1.4,MacIntel,62.5,,,,,,,,,,,,,2,2.606,0,96,96,21,1,,,,,,,,,,,,,,,,,,,,,,,,,,,,,,,,,,,,,,,,,,,,,,,,,,,,,,,,,,,,,,,,,,,,,,
,,,,,,,,,,,,,,,90464,001,2022-04-28_10h50.24.565,SPAMnetsValid,2021.1.4,MacIntel,62.5,,,,,,,,,,,,,,,,,,,,0,0,0,0,1,,,,,,,,,,,,,,,,,,,,,,,,,,,,,,,,,,,,,,,,,,,,,,,,,,,,,,,,,,,,,,,,,
,,,,,,,,,,,,,,,90464,001,2022-04-28_10h50.24.565,SPAMnetsValid,2021.1.4,MacIntel,62.5,,,,,,0,1,1,1,1,0,1,,,,,,,,,,,,,,,,,,,,,,,,,,,,,,,,,,,,,,,,,,,,,,,,,,,,,,,,,,,,,,,,,,,,,,,,,,,,,
,,,,,,,,,,,,,,,90464,001,2022-04-28_10h50.24.565,SPAMnetsValid,2021.1.4,MacIntel,62.5,,,,,,,,,,,,,,,,,,,,,,,,,4,16.554,0,0,0,0,1,rancor,forbearance,ridicule,malice,bravery,3,,,,,,,,,,,,,,,,,,,,,,,,,,,,,,,,,,,,,,,,,,,,,,,,,,,,
,,,,,,,,,,,,,,,90464,001,2022-04-28_10h50.24.565,SPAMnetsValid,2021.1.4,MacIntel,62.5,,,,,,,,,,,,,,,,,,,,,,,,,4,7.362,0,1,1,1,1,raucous,empty,quiet,smooth,harsh,4,,,,,,,,,,,,,,,,,,,,,,,,,,,,,,,,,,,,,,,,,,,,,,,,,,,,
,,,,,,,,,,,,,,,90464,001,2022-04-28_10h50.24.565,SPAMnetsValid,2021.1.4,MacIntel,62.5,,,,,,,,,,,,,,,,,,,,,,,,,3,5.159,0,2,2,2,1,gargoyle,oil,medicine,carved waterspout,ugly building,3,,,,,,,,,,,,,,,,,,,,,,,,,,,,,,,,,,,,,,,,,,,,,,,,,,,,
,,,,,,,,,,,,,,,90464,001,2022-04-28_10h50.24.565,SPAMnetsValid,2021.1.4,MacIntel,62.5,,,,,,,,,,,,,,,,,,,,,,,,,1,21.074,0,3,3,3,1,recrudesce,purify,renew activity,lack refinement,crush,2,,,,,,,,,,,,,,,,,,,,,,,,,,,,,,,,,,,,,,,,,,,,,,,,,,,,
,,,,,,,,,,,,,,,90464,001,2022-04-28_10h50.24.565,SPAMnetsValid,2021.1.4,MacIntel,62.5,,,,,,,,,,,,,,,,,,,,,,,,,3,36.273,0,4,4,4,1,specious,"plausible, but not genuine",noteworthy,class or variety,roomy,1,,,,,,,,,,,,,,,,,,,,,,,,,,,,,,,,,,,,,,,,,,,,,,,,,,,,
,,,,,,,,,,,,,,,90464,001,2022-04-28_10h50.24.565,SPAMnetsValid,2021.1.4,MacIntel,62.5,,,,,,,,,,,,,,,,,,,,,,,,,1,36.54,0,5,5,5,1,bauble,bubble,showy plaything,idle talk,confusion,2,,,,,,,,,,,,,,,,,,,,,,,,,,,,,,,,,,,,,,,,,,,,,,,,,,,,
,,,,,,,,,,,,,,,90464,001,2022-04-28_10h50.24.565,SPAMnetsValid,2021.1.4,MacIntel,62.5,,,,,,,,,,,,,,,,,,,,,,,,,2,44.253,0,6,6,6,1,prolific,scarce,producing abundantly,reckless,speaking profanely,2,,,,,,,,,,,,,,,,,,,,,,,,,,,,,,,,,,,,,,,,,,,,,,,,,,,,
,,,,,,,,,,,,,,,90464,001,2022-04-28_10h50.24.565,SPAMnetsValid,2021.1.4,MacIntel,62.5,,,,,,,,,,,,,,,,,,,,,,,,,2,2.477,0,7,7,7,1,opulent,party,wealthy,happy frame of mind,semiprecious stone,2,,,,,,,,,,,,,,,,,,,,,,,,,,,,,,,,,,,,,,,,,,,,,,,,,,,,
,,,,,,,,,,,,,,,90464,001,2022-04-28_10h50.24.565,SPAMnetsValid,2021.1.4,MacIntel,62.5,,,,,,,,,,,,,,,,,,,,,,,,,2,28.129,0,8,8,8,1,coercion,conspiracy,strategy,restraint,attraction,3,,,,,,,,,,,,,,,,,,,,,,,,,,,,,,,,,,,,,,,,,,,,,,,,,,,,
,,,,,,,,,,,,,,,90464,001,2022-04-28_10h50.24.565,SPAMnetsValid,2021.1.4,MacIntel,62.5,,,,,,,,,,,,,,,,,,,,,,,,,4,2.814,0,9,9,9,1,hiatus,animal,calamity,dread,gap,4,,,,,,,,,,,,,,,,,,,,,,,,,,,,,,,,,,,,,,,,,,,,,,,,,,,,
,,,,,,,,,,,,,,,90464,001,2022-04-28_10h50.24.565,SPAMnetsValid,2021.1.4,MacIntel,62.5,,,,,,,,,,,,,,,,,,,,,,,,,4,11.356,0,10,10,10,1,germane,microbe,contagious,relevant,different,3,,,,,,,,,,,,,,,,,,,,,,,,,,,,,,,,,,,,,,,,,,,,,,,,,,,,
,,,,,,,,,,,,,,,90464,001,2022-04-28_10h50.24.565,SPAMnetsValid,2021.1.4,MacIntel,62.5,,,,,,,,,,,,,,,,,,,,,,,,,1,8.059,0,11,11,11,1,perfunctory,fundamental,formal,superficial,careful,3,,,,,,,,,,,,,,,,,,,,,,,,,,,,,,,,,,,,,,,,,,,,,,,,,,,,
,,,,,,,,,,,,,,,90464,001,2022-04-28_10h50.24.565,SPAMnetsValid,2021.1.4,MacIntel,62.5,,,,,,,,,,,,,,,,,,,,,,,,,4,4.68,0,12,12,12,1,diverge,reveal,chant,distract the attention of,differ or turn off from,4,,,,,,,,,,,,,,,,,,,,,,,,,,,,,,,,,,,,,,,,,,,,,,,,,,,,
,,,,,,,,,,,,,,,90464,001,2022-04-28_10h50.24.565,SPAMnetsValid,2021.1.4,MacIntel,62.5,,,,,,,,,,,,,,,,,,,,,,,,,4,3.89,0,13,13,13,1,evoke,take away,anger,connect,bring out,4,,,,,,,,,,,,,,,,,,,,,,,,,,,,,,,,,,,,,,,,,,,,,,,,,,,,
,,,,,,,,,,,,,,,90464,001,2022-04-28_10h50.24.565,SPAMnetsValid,2021.1.4,MacIntel,62.5,,,,,,,,,,,,,,,,,,,,,,,,,3,2.256,0,14,14,14,1,pertinent,relevant,lying next to,necessary,bold,1,,,,,,,,,,,,,,,,,,,,,,,,,,,,,,,,,,,,,,,,,,,,,,,,,,,,
,,,,,,,,,,,,,,,90464,001,2022-04-28_10h50.24.565,SPAMnetsValid,2021.1.4,MacIntel,62.5,,,,,,,,,,,,,,,,,,,,,,,,,2,6.096,0,15,15,15,1,holocaust,entirety,destruction,saintly,price,2,,,,,,,,,,,,,,,,,,,,,,,,,,,,,,,,,,,,,,,,,,,,,,,,,,,,
,,,,,,,,,,,,,,,90464,001,2022-04-28_10h50.24.565,SPAMnetsValid,2021.1.4,MacIntel,62.5,,,,,,,,,,,,,,,,,,,,,,,,,1,5.014,0,16,16,16,1,piquant,mellow,fish,pungent,cloth,3,,,,,,,,,,,,,,,,,,,,,,,,,,,,,,,,,,,,,,,,,,,,,,,,,,,,
,,,,,,,,,,,,,,,90464,001,2022-04-28_10h50.24.565,SPAMnetsValid,2021.1.4,MacIntel,62.5,,,,,,,,,,,,,,,,,,,,,,,,,4,10.581,0,17,17,17,1,firmament,foundation,heavens,strong,glue,2,,,,,,,,,,,,,,,,,,,,,,,,,,,,,,,,,,,,,,,,,,,,,,,,,,,,
,,,,,,,,,,,,,,,90464,001,2022-04-28_10h50.24.565,SPAMnetsValid,2021.1.4,MacIntel,62.5,,,,,,,,,,,,,,,,,,,,,,,,,,,,,,,,,,,,,,4,5.663,0,0,0,0,1,marketable,partisan,jocular,marriageable,salable,essential,4,,,,,,,,,,,,,,,,,,,,,,,,,,,,,,,,,,,,,,
,,,,,,,,,,,,,,,90464,001,2022-04-28_10h50.24.565,SPAMnetsValid,2021.1.4,MacIntel,62.5,,,,,,,,,,,,,,,,,,,,,,,,,,,,,,,,,,,,,,5,4.753,0,1,1,1,1,cottontail,squirrel,poplar,boa,marshy plant,rabbit,5,,,,,,,,,,,,,,,,,,,,,,,,,,,,,,,,,,,,,,
,,,,,,,,,,,,,,,90464,001,2022-04-28_10h50.24.565,SPAMnetsValid,2021.1.4,MacIntel,62.5,,,,,,,,,,,,,,,,,,,,,,,,,,,,,,,,,,,,,,3,10.392,0,2,2,2,1,boggy,afraid,false,marshy,dense,black,3,,,,,,,,,,,,,,,,,,,,,,,,,,,,,,,,,,,,,,
,,,,,,,,,,,,,,,90464,001,2022-04-28_10h50.24.565,SPAMnetsValid,2021.1.4,MacIntel,62.5,,,,,,,,,,,,,,,,,,,,,,,,,,,,,,,,,,,,,,5,10.062,0,3,3,3,1,gruesomeness,blackness,falseness,vindictiveness,drunkenness,ghastliness,5,,,,,,,,,,,,,,,,,,,,,,,,,,,,,,,,,,,,,,
,,,,,,,,,,,,,,,90464,001,2022-04-28_10h50.24.565,SPAMnetsValid,2021.1.4,MacIntel,62.5,,,,,,,,,,,,,,,,,,,,,,,,,,,,,,,,,,,,,,3,4.707,0,4,4,4,1,loathing,diffidence,laziness,abhorrence,cleverness,comfort,3,,,,,,,,,,,,,,,,,,,,,,,,,,,,,,,,,,,,,,
,,,,,,,,,,,,,,,90464,001,2022-04-28_10h50.24.565,SPAMnetsValid,2021.1.4,MacIntel,62.5,,,,,,,,,,,,,,,,,,,,,,,,,,,,,,,,,,,,,,2,6.157,0,5,5,5,1,bantam,fowl,ridicule,cripple,vegetable,ensign,1,,,,,,,,,,,,,,,,,,,,,,,,,,,,,,,,,,,,,,
,,,,,,,,,,,,,,,90464,001,2022-04-28_10h50.24.565,SPAMnetsValid,2021.1.4,MacIntel,62.5,,,,,,,,,,,,,,,,,,,,,,,,,,,,,,,,,,,,,,5,3.96,0,6,6,6,1,evoke,wake up,surrender,reconnoiter,transcend,call forth,5,,,,,,,,,,,,,,,,,,,,,,,,,,,,,,,,,,,,,,
,,,,,,,,,,,,,,,90464,001,2022-04-28_10h50.24.565,SPAMnetsValid,2021.1.4,MacIntel,62.5,,,,,,,,,,,,,,,,,,,,,,,,,,,,,,,,,,,,,,4,5.154,0,7,7,7,1,unobtrusive,unintelligent,epileptic,illogical,lineal,modest,5,,,,,,,,,,,,,,,,,,,,,,,,,,,,,,,,,,,,,,
,,,,,,,,,,,,,,,90464,001,2022-04-28_10h50.24.565,SPAMnetsValid,2021.1.4,MacIntel,62.5,,,,,,,,,,,,,,,,,,,,,,,,,,,,,,,,,,,,,,4,2.363,0,8,8,8,1,terrain,ice cream,final test,tractor,area of ground,weight,4,,,,,,,,,,,,,,,,,,,,,,,,,,,,,,,,,,,,,,
,,,,,,,,,,,,,,,90464,001,2022-04-28_10h50.24.565,SPAMnetsValid,2021.1.4,MacIntel,62.5,,,,,,,,,,,,,,,,,,,,,,,,,,,,,,,,,,,,,,3,5.175,0,9,9,9,1,capriciousness,stubbornness,courage,whimsicality,amazement,greediness,3,,,,,,,,,,,,,,,,,,,,,,,,,,,,,,,,,,,,,,
,,,,,,,,,,,,,,,90464,001,2022-04-28_10h50.24.565,SPAMnetsValid,2021.1.4,MacIntel,62.5,,,,,,,,,,,,,,,,,,,,,,,,,,,,,,,,,,,,,,2,3.109,0,10,10,10,1,maelstrom,slander,whirlpool,enmity,armor,majolica,2,,,,,,,,,,,,,,,,,,,,,,,,,,,,,,,,,,,,,,
,,,,,,,,,,,,,,,90464,001,2022-04-28_10h50.24.565,SPAMnetsValid,2021.1.4,MacIntel,62.5,,,,,,,,,,,,,,,,,,,,,,,,,,,,,,,,,,,,,,4,14.489,0,11,11,11,1,tentative,critical,conclusive,authentic,provisional,apprehensive,4,,,,,,,,,,,,,,,,,,,,,,,,,,,,,,,,,,,,,,
,,,,,,,,,,,,,,,90464,001,2022-04-28_10h50.24.565,SPAMnetsValid,2021.1.4,MacIntel,62.5,,,,,,,,,,,,,,,,,,,,,,,,,,,,,,,,,,,,,,5,5.172,0,12,12,12,1,placate,rehabilitate,plagiarize,depredate,apprise,conciliate,5,,,,,,,,,,,,,,,,,,,,,,,,,,,,,,,,,,,,,,
,,,,,,,,,,,,,,,90464,001,2022-04-28_10h50.24.565,SPAMnetsValid,2021.1.4,MacIntel,62.5,,,,,,,,,,,,,,,,,,,,,,,,,,,,,,,,,,,,,,5,8.65,0,13,13,13,1,surcease,enlightenment,cessation,inattention,censor,substitution,2,,,,,,,,,,,,,,,,,,,,,,,,,,,,,,,,,,,,,,
,,,,,,,,,,,,,,,90464,001,2022-04-28_10h50.24.565,SPAMnetsValid,2021.1.4,MacIntel,62.5,,,,,,,,,,,,,,,,,,,,,,,,,,,,,,,,,,,,,,3,8.132,0,14,14,14,1,apathetic,wandering,impassive,hateful,prophetic,overflowing,2,,,,,,,,,,,,,,,,,,,,,,,,,,,,,,,,,,,,,,
,,,,,,,,,,,,,,,90464,001,2022-04-28_10h50.24.565,SPAMnetsValid,2021.1.4,MacIntel,62.5,,,,,,,,,,,,,,,,,,,,,,,,,,,,,,,,,,,,,,4,15.645,0,15,15,15,1,paternoster,paternalism,patricide,malediction,benediction,prayer,5,,,,,,,,,,,,,,,,,,,,,,,,,,,,,,,,,,,,,,
,,,,,,,,,,,,,,,90464,001,2022-04-28_10h50.24.565,SPAMnetsValid,2021.1.4,MacIntel,62.5,,,,,,,,,,,,,,,,,,,,,,,,,,,,,,,,,,,,,,4,4.71,0,16,16,16,1,opalescence,opulence,senescence,bankruptcy,iridescence,assiduity,4,,,,,,,,,,,,,,,,,,,,,,,,,,,,,,,,,,,,,,
,,,,,,,,,,,,,,,90464,001,2022-04-28_10h50.24.565,SPAMnetsValid,2021.1.4,MacIntel,62.5,,,,,,,,,,,,,,,,,,,,,,,,,,,,,,,,,,,,,,2,2.523,0,17,17,17,1,lush,stupid,luxurious,hazy,putrid,languishing,2,,,,,,,,,,,,,,,,,,,,,,,,,,,,,,,,,,,,,,
,,,,,,,,,,,,,,,90464,001,2022-04-28_10h50.24.565,SPAMnetsValid,2021.1.4,MacIntel,62.5,,,,,,,,,,,,,,,,,,,,,,,,,,,,,,,,,,,,,,3,6.739,0,18,18,18,1,curtailment,expenditure,abandonment,abridgment,improvement,forgery,3,,,,,,,,,,,,,,,,,,,,,,,,,,,,,,,,,,,,,,
,,,,,,,,,,,,,,,90464,001,2022-04-28_10h50.24.565,SPAMnetsValid,2021.1.4,MacIntel,62.5,,,,,,,,,,,,,,,,,,,,,,,,,,,,,,,,,,,,,,3,4.949,0,19,19,19,1,perversity,adversity,perviousness,travesty,waywardness,gentility,4,,,,,,,,,,,,,,,,,,,,,,,,,,,,,,,,,,,,,,
,,,,,,,,,,,,,,,90464,001,2022-04-28_10h50.24.565,SPAMnetsValid,2021.1.4,MacIntel,62.5,,,,,,,,,,,,,,,,,,,,,,,,,,,,,,,,,,,,,,3,8.375,0,20,20,20,1,calumnious,complimentary,analogous,slanderous,tempestuous,magnanimous,3,,,,,,,,,,,,,,,,,,,,,,,,,,,,,,,,,,,,,,
,,,,,,,,,,,,,,,90464,001,2022-04-28_10h50.24.565,SPAMnetsValid,2021.1.4,MacIntel,62.5,,,,,,,,,,,,,,,,,,,,,,,,,,,,,,,,,,,,,,2,8.936,0,21,21,21,1,illiberality,bigotry,imbecility,illegibility,cautery,immaturity,1,,,,,,,,,,,,,,,,,,,,,,,,,,,,,,,,,,,,,,
,,,,,,,,,,,,,,,90464,001,2022-04-28_10h50.24.565,SPAMnetsValid,2021.1.4,MacIntel,62.5,,,,,,,,,,,,,,,,,,,,,,,,,,,,,,,,,,,,,,2,2.476,0,22,22,22,1,clabber,rejoice,gossip,curdle,crow,hobble,3,,,,,,,,,,,,,,,,,,,,,,,,,,,,,,,,,,,,,,
,,,,,,,,,,,,,,,90464,001,2022-04-28_10h50.24.565,SPAMnetsValid,2021.1.4,MacIntel,62.5,,,,,,,,,,,,,,,,,,,,,,,,,,,,,,,,,,,,,,4,8.771,0,23,23,23,1,sedulousness,diligence,credulousness,seduction,perilousness,frankness,1,,,,,,,,,,,,,,,,,,,,,,,,,,,,,,,,,,,,,,
,,,,,,,,,,,,,,,90464,001,2022-04-28_10h50.24.565,SPAMnetsValid,2021.1.4,MacIntel,62.5,,,,,,,,,,,,,,,,,,,,,,,,,,,,,,,,,,,,,,,,,,,,,,,,,,,,"use as stuff toy stuffing, use cover as a baby blanket, use while doing yoga, use as a car seat",pillow,0,0,0,0,1,,,,,,,,,,,,,,,,,,,,,,,,,,,,,,,
,,,,,,,,,,,,,,,90464,001,2022-04-28_10h50.24.565,SPAMnetsValid,2021.1.4,MacIntel,62.5,,,,,,,,,,,,,,,,,,,,,,,,,,,,,,,,,,,,,,,,,,,,,,,,,,,,,pillow,1,0,1,0,1,,,,,,,,,,,,,,,,,,,,,,,,,,,,,,,
,,,,,,,,,,,,,,,90464,001,2022-04-28_10h50.24.565,SPAMnetsValid,2021.1.4,MacIntel,62.5,,,,,,,,,,,,,,,,,,,,,,,,,,,,,,,,,,,,,,,,,,,,,,,,,,,,car seat,pillow,2,0,2,0,1,,,,,,,,,,,,,,,,,,,,,,,,,,,,,,,
,,,,,,,,,,,,,,,90464,001,2022-04-28_10h50.24.565,SPAMnetsValid,2021.1.4,MacIntel,62.5,,,,,,,,,,,,,,,,,,,,,,,,,,,,,,,,,,,,,,,,,,,,,,,,,,,,,,,,,,,0,0,0,2,1,pillow,,,,,,,,,,,,,,,,,,,,,,,,,
,,,,,,,,,,,,,,,90464,001,2022-04-28_10h50.24.565,SPAMnetsValid,2021.1.4,MacIntel,62.5,,,,,,,,,,,,,,,,,,,,,,,,,,,,,,,,,,,,,,,,,,,,,,,,,,,,"making food, making candy, making a statue out of wax, making a painting out of fire, lighting a cigerette, melting glass",candle,0,0,0,0,1,,,,,,,,,,,,,,,,,,,,,,,,,,,,,,,
,,,,,,,,,,,,,,,90464,001,2022-04-28_10h50.24.565,SPAMnetsValid,2021.1.4,MacIntel,62.5,,,,,,,,,,,,,,,,,,,,,,,,,,,,,,,,,,,,,,,,,,,,,,,,,,,,,,,,,,,0,1,1,1,1,candle,,,,,,,,,,,,,,,,,,,,,,,,,
,,,,,,,,,,,,,,,90464,001,2022-04-28_10h50.24.565,SPAMnetsValid,2021.1.4,MacIntel,62.5,,,,,,,,,,,,,,,,,,,,,,,,,,,,,,,,,,,,,,,,,,,,,,,,,,,,"a hat, container, ",bucket,0,0,0,0,1,,,,,,,,,,,,,,,,,,,,,,,,,,,,,,,
,,,,,,,,,,,,,,,90464,001,2022-04-28_10h50.24.565,SPAMnetsValid,2021.1.4,MacIntel,62.5,,,,,,,,,,,,,,,,,,,,,,,,,,,,,,,,,,,,,,,,,,,,,,,,,,,,,bucket,1,0,1,0,1,,,,,,,,,,,,,,,,,,,,,,,,,,,,,,,
,,,,,,,,,,,,,,,90464,001,2022-04-28_10h50.24.565,SPAMnetsValid,2021.1.4,MacIntel,62.5,,,,,,,,,,,,,,,,,,,,,,,,,,,,,,,,,,,,,,,,,,,,,,,,,,,,,bucket,2,0,2,0,1,,,,,,,,,,,,,,,,,,,,,,,,,,,,,,,
,,,,,,,,,,,,,,,90464,001,2022-04-28_10h50.24.565,SPAMnetsValid,2021.1.4,MacIntel,62.5,,,,,,,,,,,,,,,,,,,,,,,,,,,,,,,,,,,,,,,,,,,,,,,,,,,,,bucket,3,0,3,0,1,,,,,,,,,,,,,,,,,,,,,,,,,,,,,,,
,,,,,,,,,,,,,,,90464,001,2022-04-28_10h50.24.565,SPAMnetsValid,2021.1.4,MacIntel,62.5,,,,,,,,,,,,,,,,,,,,,,,,,,,,,,,,,,,,,,,,,,,,,,,,,,,,,bucket,4,0,4,0,1,,,,,,,,,,,,,,,,,,,,,,,,,,,,,,,
,,,,,,,,,,,,,,,90464,001,2022-04-28_10h50.24.565,SPAMnetsValid,2021.1.4,MacIntel,62.5,,,,,,,,,,,,,,,,,,,,,,,,,,,,,,,,,,,,,,,,,,,,,,,,,,,,,bucket,5,0,5,0,1,,,,,,,,,,,,,,,,,,,,,,,,,,,,,,,
,,,,,,,,,,,,,,,90464,001,2022-04-28_10h50.24.565,SPAMnetsValid,2021.1.4,MacIntel,62.5,,,,,,,,,,,,,,,,,,,,,,,,,,,,,,,,,,,,,,,,,,,,,,,,,,,,,bucket,6,0,6,0,1,,,,,,,,,,,,,,,,,,,,,,,,,,,,,,,
,,,,,,,,,,,,,,,90464,001,2022-04-28_10h50.24.565,SPAMnetsValid,2021.1.4,MacIntel,62.5,,,,,,,,,,,,,,,,,,,,,,,,,,,,,,,,,,,,,,,,,,,,,,,,,,,,a cup to drink out of,bucket,7,0,7,0,1,,,,,,,,,,,,,,,,,,,,,,,,,,,,,,,
,,,,,,,,,,,,,,,90464,001,2022-04-28_10h50.24.565,SPAMnetsValid,2021.1.4,MacIntel,62.5,,,,,,,,,,,,,,,,,,,,,,,,,,,,,,,,,,,,,,,,,,,,,,,,,,,,a bowl,bucket,8,0,8,0,1,,,,,,,,,,,,,,,,,,,,,,,,,,,,,,,
,,,,,,,,,,,,,,,90464,001,2022-04-28_10h50.24.565,SPAMnetsValid,2021.1.4,MacIntel,62.5,,,,,,,,,,,,,,,,,,,,,,,,,,,,,,,,,,,,,,,,,,,,,,,,,,,,a toilet,bucket,9,0,9,0,1,,,,,,,,,,,,,,,,,,,,,,,,,,,,,,,
,,,,,,,,,,,,,,,90464,001,2022-04-28_10h50.24.565,SPAMnetsValid,2021.1.4,MacIntel,62.5,,,,,,,,,,,,,,,,,,,,,,,,,,,,,,,,,,,,,,,,,,,,,,,,,,,,,,,,,,,0,2,2,0,1,bucket,,,,,,,,,,,,,,,,,,,,,,,,,
,,,,,,,,,,,,,,,90464,001,2022-04-28_10h50.24.565,SPAMnetsValid,2021.1.4,MacIntel,62.5,,,,,,,,,,,,,,,,,,,,,,,,,,,,,,,,,,,,,,,,,,,,,,,,,,,,,,,,,,,,,,,,,giraffe,Animals,0,0,0,0,1,,,,,,,,,,,,,,,,,,
,,,,,,,,,,,,,,,90464,001,2022-04-28_10h50.24.565,SPAMnetsValid,2021.1.4,MacIntel,62.5,,,,,,,,,,,,,,,,,,,,,,,,,,,,,,,,,,,,,,,,,,,,,,,,,,,,,,,,,,,,,,,,,cat,Animals,1,0,1,0,1,,,,,,,,,,,,,,,,,,
,,,,,,,,,,,,,,,90464,001,2022-04-28_10h50.24.565,SPAMnetsValid,2021.1.4,MacIntel,62.5,,,,,,,,,,,,,,,,,,,,,,,,,,,,,,,,,,,,,,,,,,,,,,,,,,,,,,,,,,,,,,,,,dog,Animals,2,0,2,0,1,,,,,,,,,,,,,,,,,,
,,,,,,,,,,,,,,,90464,001,2022-04-28_10h50.24.565,SPAMnetsValid,2021.1.4,MacIntel,62.5,,,,,,,,,,,,,,,,,,,,,,,,,,,,,,,,,,,,,,,,,,,,,,,,,,,,,,,,,,,,,,,,,bird,Animals,3,0,3,0,1,,,,,,,,,,,,,,,,,,
,,,,,,,,,,,,,,,90464,001,2022-04-28_10h50.24.565,SPAMnetsValid,2021.1.4,MacIntel,62.5,,,,,,,,,,,,,,,,,,,,,,,,,,,,,,,,,,,,,,,,,,,,,,,,,,,,,,,,,,,,,,,,,hamster,Animals,4,0,4,0,1,,,,,,,,,,,,,,,,,,
,,,,,,,,,,,,,,,90464,001,2022-04-28_10h50.24.565,SPAMnetsValid,2021.1.4,MacIntel,62.5,,,,,,,,,,,,,,,,,,,,,,,,,,,,,,,,,,,,,,,,,,,,,,,,,,,,,,,,,,,,,,,,,hippo,Animals,5,0,5,0,1,,,,,,,,,,,,,,,,,,
,,,,,,,,,,,,,,,90464,001,2022-04-28_10h50.24.565,SPAMnetsValid,2021.1.4,MacIntel,62.5,,,,,,,,,,,,,,,,,,,,,,,,,,,,,,,,,,,,,,,,,,,,,,,,,,,,,,,,,,,,,,,,,koala,Animals,6,0,6,0,1,,,,,,,,,,,,,,,,,,
,,,,,,,,,,,,,,,90464,001,2022-04-28_10h50.24.565,SPAMnetsValid,2021.1.4,MacIntel,62.5,,,,,,,,,,,,,,,,,,,,,,,,,,,,,,,,,,,,,,,,,,,,,,,,,,,,,,,,,,,,,,,,,ostrich,Animals,7,0,7,0,1,,,,,,,,,,,,,,,,,,
,,,,,,,,,,,,,,,90464,001,2022-04-28_10h50.24.565,SPAMnetsValid,2021.1.4,MacIntel,62.5,,,,,,,,,,,,,,,,,,,,,,,,,,,,,,,,,,,,,,,,,,,,,,,,,,,,,,,,,,,,,,,,,monkey,Animals,8,0,8,0,1,,,,,,,,,,,,,,,,,,
,,,,,,,,,,,,,,,90464,001,2022-04-28_10h50.24.565,SPAMnetsValid,2021.1.4,MacIntel,62.5,,,,,,,,,,,,,,,,,,,,,,,,,,,,,,,,,,,,,,,,,,,,,,,,,,,,,,,,,,,,,,,,,lizard,Animals,9,0,9,0,1,,,,,,,,,,,,,,,,,,
,,,,,,,,,,,,,,,90464,001,2022-04-28_10h50.24.565,SPAMnetsValid,2021.1.4,MacIntel,62.5,,,,,,,,,,,,,,,,,,,,,,,,,,,,,,,,,,,,,,,,,,,,,,,,,,,,,,,,,,,,,,,,,panda,Animals,10,0,10,0,1,,,,,,,,,,,,,,,,,,
,,,,,,,,,,,,,,,90464,001,2022-04-28_10h50.24.565,SPAMnetsValid,2021.1.4,MacIntel,62.5,,,,,,,,,,,,,,,,,,,,,,,,,,,,,,,,,,,,,,,,,,,,,,,,,,,,,,,,,,,,,,,,,crocodile,Animals,11,0,11,0,1,,,,,,,,,,,,,,,,,,
,,,,,,,,,,,,,,,90464,001,2022-04-28_10h50.24.565,SPAMnetsValid,2021.1.4,MacIntel,62.5,,,,,,,,,,,,,,,,,,,,,,,,,,,,,,,,,,,,,,,,,,,,,,,,,,,,,,,,,,,,,,,,,alligator,Animals,12,0,12,0,1,,,,,,,,,,,,,,,,,,
,,,,,,,,,,,,,,,90464,001,2022-04-28_10h50.24.565,SPAMnetsValid,2021.1.4,MacIntel,62.5,,,,,,,,,,,,,,,,,,,,,,,,,,,,,,,,,,,,,,,,,,,,,,,,,,,,,,,,,,,,,,,,,fish,Animals,13,0,13,0,1,,,,,,,,,,,,,,,,,,
,,,,,,,,,,,,,,,90464,001,2022-04-28_10h50.24.565,SPAMnetsValid,2021.1.4,MacIntel,62.5,,,,,,,,,,,,,,,,,,,,,,,,,,,,,,,,,,,,,,,,,,,,,,,,,,,,,,,,,,,,,,,,,shark,Animals,14,0,14,0,1,,,,,,,,,,,,,,,,,,
,,,,,,,,,,,,,,,90464,001,2022-04-28_10h50.24.565,SPAMnetsValid,2021.1.4,MacIntel,62.5,,,,,,,,,,,,,,,,,,,,,,,,,,,,,,,,,,,,,,,,,,,,,,,,,,,,,,,,,,,,,,,,,snake,Animals,15,0,15,0,1,,,,,,,,,,,,,,,,,,
,,,,,,,,,,,,,,,90464,001,2022-04-28_10h50.24.565,SPAMnetsValid,2021.1.4,MacIntel,62.5,,,,,,,,,,,,,,,,,,,,,,,,,,,,,,,,,,,,,,,,,,,,,,,,,,,,,,,,,,,,,,,,,rat,Animals,16,0,16,0,1,,,,,,,,,,,,,,,,,,
,,,,,,,,,,,,,,,90464,001,2022-04-28_10h50.24.565,SPAMnetsValid,2021.1.4,MacIntel,62.5,,,,,,,,,,,,,,,,,,,,,,,,,,,,,,,,,,,,,,,,,,,,,,,,,,,,,,,,,,,,,,,,,mouse,Animals,17,0,17,0,1,,,,,,,,,,,,,,,,,,
,,,,,,,,,,,,,,,90464,001,2022-04-28_10h50.24.565,SPAMnetsValid,2021.1.4,MacIntel,62.5,,,,,,,,,,,,,,,,,,,,,,,,,,,,,,,,,,,,,,,,,,,,,,,,,,,,,,,,,,,,,,,,,zebra,Animals,18,0,18,0,1,,,,,,,,,,,,,,,,,,
,,,,,,,,,,,,,,,90464,001,2022-04-28_10h50.24.565,SPAMnetsValid,2021.1.4,MacIntel,62.5,,,,,,,,,,,,,,,,,,,,,,,,,,,,,,,,,,,,,,,,,,,,,,,,,,,,,,,,,,,,,,,,,lion,Animals,19,0,19,0,1,,,,,,,,,,,,,,,,,,
,,,,,,,,,,,,,,,90464,001,2022-04-28_10h50.24.565,SPAMnetsValid,2021.1.4,MacIntel,62.5,,,,,,,,,,,,,,,,,,,,,,,,,,,,,,,,,,,,,,,,,,,,,,,,,,,,,,,,,,,,,,,,,tiger,Animals,20,0,20,0,1,,,,,,,,,,,,,,,,,,
,,,,,,,,,,,,,,,90464,001,2022-04-28_10h50.24.565,SPAMnetsValid,2021.1.4,MacIntel,62.5,,,,,,,,,,,,,,,,,,,,,,,,,,,,,,,,,,,,,,,,,,,,,,,,,,,,,,,,,,,,,,,,,panther,Animals,21,0,21,0,1,,,,,,,,,,,,,,,,,,
,,,,,,,,,,,,,,,90464,001,2022-04-28_10h50.24.565,SPAMnetsValid,2021.1.4,MacIntel,62.5,,,,,,,,,,,,,,,,,,,,,,,,,,,,,,,,,,,,,,,,,,,,,,,,,,,,,,,,,,,,,,,,,cougar,Animals,22,0,22,0,1,,,,,,,,,,,,,,,,,,
,,,,,,,,,,,,,,,90464,001,2022-04-28_10h50.24.565,SPAMnetsValid,2021.1.4,MacIntel,62.5,,,,,,,,,,,,,,,,,,,,,,,,,,,,,,,,,,,,,,,,,,,,,,,,,,,,,,,,,,,,,,,,,cheetah,Animals,23,0,23,0,1,,,,,,,,,,,,,,,,,,
,,,,,,,,,,,,,,,90464,001,2022-04-28_10h50.24.565,SPAMnetsValid,2021.1.4,MacIntel,62.5,,,,,,,,,,,,,,,,,,,,,,,,,,,,,,,,,,,,,,,,,,,,,,,,,,,,,,,,,,,,,,,,,deer,Animals,24,0,24,0,1,,,,,,,,,,,,,,,,,,
,,,,,,,,,,,,,,,90464,001,2022-04-28_10h50.24.565,SPAMnetsValid,2021.1.4,MacIntel,62.5,,,,,,,,,,,,,,,,,,,,,,,,,,,,,,,,,,,,,,,,,,,,,,,,,,,,,,,,,,,,,,,,,gazelle,Animals,25,0,25,0,1,,,,,,,,,,,,,,,,,,
,,,,,,,,,,,,,,,90464,001,2022-04-28_10h50.24.565,SPAMnetsValid,2021.1.4,MacIntel,62.5,,,,,,,,,,,,,,,,,,,,,,,,,,,,,,,,,,,,,,,,,,,,,,,,,,,,,,,,,,,,,,,,,elephant,Animals,26,0,26,0,1,,,,,,,,,,,,,,,,,,
,,,,,,,,,,,,,,,90464,001,2022-04-28_10h50.24.565,SPAMnetsValid,2021.1.4,MacIntel,62.5,,,,,,,,,,,,,,,,,,,,,,,,,,,,,,,,,,,,,,,,,,,,,,,,,,,,,,,,,,,,,,,,,,,,,,,,0,0,0,0,1,Animals,,,,,,,,,,,,
,,,,,,,,,,,,,,,90464,001,2022-04-28_10h50.24.565,SPAMnetsValid,2021.1.4,MacIntel,62.5,,,,,,,,,,,,,,,,,,,,,,,,,,,,,,,,,,,,,,,,,,,,,,,,,,,,,,,,,,,,,,,,,,,,,,,,,,,,,,4,7.431,0,0,0,0,1,"I enjoy concentrating on a fantasy or daydream and exploring all its possibilities, letting it grow and develop.",0,1,,
,,,,,,,,,,,,,,,90464,001,2022-04-28_10h50.24.565,SPAMnetsValid,2021.1.4,MacIntel,62.5,,,,,,,,,,,,,,,,,,,,,,,,,,,,,,,,,,,,,,,,,,,,,,,,,,,,,,,,,,,,,,,,,,,,,,,,,,,,,,5,2.975,0,1,1,1,1,I think it's interesting to learn and develop new hobbies.,0,2,,
,,,,,,,,,,,,,,,90464,001,2022-04-28_10h50.24.565,SPAMnetsValid,2021.1.4,MacIntel,62.5,,,,,,,,,,,,,,,,,,,,,,,,,,,,,,,,,,,,,,,,,,,,,,,,,,,,,,,,,,,,,,,,,,,,,,,,,,,,,,5,2.439,0,2,2,2,1,I am intrigued by the patterns I find in art and nature.,0,3,,
,,,,,,,,,,,,,,,90464,001,2022-04-28_10h50.24.565,SPAMnetsValid,2021.1.4,MacIntel,62.5,,,,,,,,,,,,,,,,,,,,,,,,,,,,,,,,,,,,,,,,,,,,,,,,,,,,,,,,,,,,,,,,,,,,,,,,,,,,,,5,5.576,0,3,3,3,1,I believe letting students hear controversial speakers can only confuse and mislead them.,1,4,,
,,,,,,,,,,,,,,,90464,001,2022-04-28_10h50.24.565,SPAMnetsValid,2021.1.4,MacIntel,62.5,,,,,,,,,,,,,,,,,,,,,,,,,,,,,,,,,,,,,,,,,,,,,,,,,,,,,,,,,,,,,,,,,,,,,,,,,,,,,,1,3.282,0,4,4,4,1,Poetry has little or no effect on me.,1,5,,
,,,,,,,,,,,,,,,90464,001,2022-04-28_10h50.24.565,SPAMnetsValid,2021.1.4,MacIntel,62.5,,,,,,,,,,,,,,,,,,,,,,,,,,,,,,,,,,,,,,,,,,,,,,,,,,,,,,,,,,,,,,,,,,,,,,,,,,,,,,1,5.34,0,5,5,5,1,I would have difficulty just letting my mind wander without control or guidance.,1,6,,
,,,,,,,,,,,,,,,90464,001,2022-04-28_10h50.24.565,SPAMnetsValid,2021.1.4,MacIntel,62.5,,,,,,,,,,,,,,,,,,,,,,,,,,,,,,,,,,,,,,,,,,,,,,,,,,,,,,,,,,,,,,,,,,,,,,,,,,,,,,1,5.41,0,6,6,6,1,I seldom notice the moods or feelings that different environments produce.,1,7,,
,,,,,,,,,,,,,,,90464,001,2022-04-28_10h50.24.565,SPAMnetsValid,2021.1.4,MacIntel,62.5,,,,,,,,,,,,,,,,,,,,,,,,,,,,,,,,,,,,,,,,,,,,,,,,,,,,,,,,,,,,,,,,,,,,,,,,,,,,,,5,3.314,0,7,7,7,1,I experience a wide range of emotions or feelings.,0,8,,
,,,,,,,,,,,,,,,90464,001,2022-04-28_10h50.24.565,SPAMnetsValid,2021.1.4,MacIntel,62.5,,,,,,,,,,,,,,,,,,,,,,,,,,,,,,,,,,,,,,,,,,,,,,,,,,,,,,,,,,,,,,,,,,,,,,,,,,,,,,5,3.227,0,8,8,8,1,"Sometimes when I am reading poetry or looking at a work of art, I feel a chill or wave of excitement.",0,9,,
,,,,,,,,,,,,,,,90464,001,2022-04-28_10h50.24.565,SPAMnetsValid,2021.1.4,MacIntel,62.5,,,,,,,,,,,,,,,,,,,,,,,,,,,,,,,,,,,,,,,,,,,,,,,,,,,,,,,,,,,,,,,,,,,,,,,,,,,,,,1,4.238,0,9,9,9,1,I have little interest in speculating on the nature of the universe or the human condition.,1,10,,
,,,,,,,,,,,,,,,90464,001,2022-04-28_10h50.24.565,SPAMnetsValid,2021.1.4,MacIntel,62.5,,,,,,,,,,,,,,,,,,,,,,,,,,,,,,,,,,,,,,,,,,,,,,,,,,,,,,,,,,,,,,,,,,,,,,,,,,,,,,5,1.843,0,10,10,10,1,I have a lot of intellectual curiosity.,0,11,,
,,,,,,,,,,,,,,,90464,001,2022-04-28_10h50.24.565,SPAMnetsValid,2021.1.4,MacIntel,62.5,,,,,,,,,,,,,,,,,,,,,,,,,,,,,,,,,,,,,,,,,,,,,,,,,,,,,,,,,,,,,,,,,,,,,,,,,,,,,,5,2.473,0,11,11,11,1,I often enjoy playing with theories or abstract ideas.,0,12,,
,,,,,,,,,,,,,,,90464,001,2022-04-28_10h50.24.565,SPAMnetsValid,2021.1.4,MacIntel,62.5,,,,,,,,,,,,,,,,,,,,,,,,,,,,,,,,,,,,,,,,,,,,,,,,,,,,,,,,,,,,,,,,,,,,,,,,,,,,,,,,,,,,,,,,return,24.435
