key_resp_3.keys,key_resp_3.rt,slider_2.response,slider_2.rt,rjt_rating,rjt_RT,trials_24.thisRepN,trials_24.thisTrialN,trials_24.thisN,trials_24.thisIndex,trials_24.ran,rjt_order,word1,word2,attention,participant,session,date,expName,psychopyVersion,OS,frameRate,trials_4.thisRepN,trials_4.thisTrialN,trials_4.thisN,trials_4.thisIndex,trials_4.ran,trials_5.thisRepN,trials_5.thisTrialN,trials_5.thisN,trials_5.thisIndex,trials_5.ran,repOne,repTwo,slider.response,slider.rt,trials_22.thisRepN,trials_22.thisTrialN,trials_22.thisN,trials_22.thisIndex,trials_22.ran,trials_99.thisRepN,trials_99.thisTrialN,trials_99.thisN,trials_99.thisIndex,trials_99.ran,slider_extend_2.response,slider_extend_2.rt,trials_6.thisRepN,trials_6.thisTrialN,trials_6.thisN,trials_6.thisIndex,trials_6.ran,vCue2,R1,R2,R3,R4,correct,sliderVocab.response,sliderVocab.rt,trials_7.thisRepN,trials_7.thisTrialN,trials_7.thisN,trials_7.thisIndex,trials_7.ran,VocabCue,VR1,VR2,VR3,VR4,VR5,VocabCorrect,trials_2.thisRepN,trials_2.thisTrialN,trials_2.thisN,trials_2.thisIndex,trials_2.ran,aut_prompt,VF_response,VF_tag,trials_16.thisRepN,trials_16.thisTrialN,trials_16.thisN,trials_16.thisIndex,trials_16.ran,trials_17.thisRepN,trials_17.thisTrialN,trials_17.thisN,trials_17.thisIndex,trials_17.ran,VFcond,open_slider.response,open_slider.rt,trials_3.thisRepN,trials_3.thisTrialN,trials_3.thisN,trials_3.thisIndex,trials_3.ran,OpenQ,Rev,OPEN_ORDER,key_resp_2.keys,key_resp_2.rt
return,5.2,1,5.9361,1,5.9361,0,0,0,49,1,152,cactus,strawberry,,90468,001,2022-04-29_12h08.20.832,SPAMnetsValid,2021.1.4,Win32,60.07088364,,,,,,,,,,,,,,,,,,,,,,,,,,,,,,,,,,,,,,,,,,,,,,,,,,,,,,,,,,,,,,,,,,,,,,,,,,,,,,,,,,
,,9,3.7464,9,3.7464,0,1,1,52,1,110,chocolate,cookie,,90468,001,2022-04-29_12h08.20.832,SPAMnetsValid,2021.1.4,Win32,60.07088364,,,,,,,,,,,,,,,,,,,,,,,,,,,,,,,,,,,,,,,,,,,,,,,,,,,,,,,,,,,,,,,,,,,,,,,,,,,,,,,,,,
,,4,2.2686,4,2.2686,0,2,2,16,1,111,carrot,microwave,,90468,001,2022-04-29_12h08.20.832,SPAMnetsValid,2021.1.4,Win32,60.07088364,,,,,,,,,,,,,,,,,,,,,,,,,,,,,,,,,,,,,,,,,,,,,,,,,,,,,,,,,,,,,,,,,,,,,,,,,,,,,,,,,,
,,7,2.5513,7,2.5513,0,3,3,64,1,157,refrigerator,rose,,90468,001,2022-04-29_12h08.20.832,SPAMnetsValid,2021.1.4,Win32,60.07088364,,,,,,,,,,,,,,,,,,,,,,,,,,,,,,,,,,,,,,,,,,,,,,,,,,,,,,,,,,,,,,,,,,,,,,,,,,,,,,,,,,
,,4,2.2651,4,2.2651,0,4,4,96,1,136,chocolate,microwave,,90468,001,2022-04-29_12h08.20.832,SPAMnetsValid,2021.1.4,Win32,60.07088364,,,,,,,,,,,,,,,,,,,,,,,,,,,,,,,,,,,,,,,,,,,,,,,,,,,,,,,,,,,,,,,,,,,,,,,,,,,,,,,,,,
,,1,2.0794,1,2.0794,0,5,5,20,1,149,broom,tomato,,90468,001,2022-04-29_12h08.20.832,SPAMnetsValid,2021.1.4,Win32,60.07088364,,,,,,,,,,,,,,,,,,,,,,,,,,,,,,,,,,,,,,,,,,,,,,,,,,,,,,,,,,,,,,,,,,,,,,,,,,,,,,,,,,
,,9,2.0027,9,2.0027,0,6,6,27,1,158,cookie,oven,,90468,001,2022-04-29_12h08.20.832,SPAMnetsValid,2021.1.4,Win32,60.07088364,,,,,,,,,,,,,,,,,,,,,,,,,,,,,,,,,,,,,,,,,,,,,,,,,,,,,,,,,,,,,,,,,,,,,,,,,,,,,,,,,,
,,9,1.4231,9,1.4231,0,7,7,14,1,120,microwave,oven,,90468,001,2022-04-29_12h08.20.832,SPAMnetsValid,2021.1.4,Win32,60.07088364,,,,,,,,,,,,,,,,,,,,,,,,,,,,,,,,,,,,,,,,,,,,,,,,,,,,,,,,,,,,,,,,,,,,,,,,,,,,,,,,,,
,,1,3.2494,1,3.2494,0,8,8,81,1,104,garden,microwave,,90468,001,2022-04-29_12h08.20.832,SPAMnetsValid,2021.1.4,Win32,60.07088364,,,,,,,,,,,,,,,,,,,,,,,,,,,,,,,,,,,,,,,,,,,,,,,,,,,,,,,,,,,,,,,,,,,,,,,,,,,,,,,,,,
,,1,1.3208,1,1.3208,0,9,9,36,1,161,kitchen,pretzel,,90468,001,2022-04-29_12h08.20.832,SPAMnetsValid,2021.1.4,Win32,60.07088364,,,,,,,,,,,,,,,,,,,,,,,,,,,,,,,,,,,,,,,,,,,,,,,,,,,,,,,,,,,,,,,,,,,,,,,,,,,,,,,,,,
,,1,3.5522,1,3.5522,0,10,10,95,1,121,broom,microwave,,90468,001,2022-04-29_12h08.20.832,SPAMnetsValid,2021.1.4,Win32,60.07088364,,,,,,,,,,,,,,,,,,,,,,,,,,,,,,,,,,,,,,,,,,,,,,,,,,,,,,,,,,,,,,,,,,,,,,,,,,,,,,,,,,
,,9,1.4869,9,1.4869,0,11,11,90,1,190,microwave,strawberry,,90468,001,2022-04-29_12h08.20.832,SPAMnetsValid,2021.1.4,Win32,60.07088364,,,,,,,,,,,,,,,,,,,,,,,,,,,,,,,,,,,,,,,,,,,,,,,,,,,,,,,,,,,,,,,,,,,,,,,,,,,,,,,,,,
,,1,2.0684,1,2.0684,0,12,12,54,1,101,cactus,kitchen,,90468,001,2022-04-29_12h08.20.832,SPAMnetsValid,2021.1.4,Win32,60.07088364,,,,,,,,,,,,,,,,,,,,,,,,,,,,,,,,,,,,,,,,,,,,,,,,,,,,,,,,,,,,,,,,,,,,,,,,,,,,,,,,,,
,,1,1.5653,1,1.5653,0,13,13,75,1,178,cactus,carrot,,90468,001,2022-04-29_12h08.20.832,SPAMnetsValid,2021.1.4,Win32,60.07088364,,,,,,,,,,,,,,,,,,,,,,,,,,,,,,,,,,,,,,,,,,,,,,,,,,,,,,,,,,,,,,,,,,,,,,,,,,,,,,,,,,
,,4,1.2583,4,1.2583,0,14,14,60,1,122,flower,garden,,90468,001,2022-04-29_12h08.20.832,SPAMnetsValid,2021.1.4,Win32,60.07088364,,,,,,,,,,,,,,,,,,,,,,,,,,,,,,,,,,,,,,,,,,,,,,,,,,,,,,,,,,,,,,,,,,,,,,,,,,,,,,,,,,
,,6,1.128,6,1.128,0,15,15,73,1,135,carrot,oven,,90468,001,2022-04-29_12h08.20.832,SPAMnetsValid,2021.1.4,Win32,60.07088364,,,,,,,,,,,,,,,,,,,,,,,,,,,,,,,,,,,,,,,,,,,,,,,,,,,,,,,,,,,,,,,,,,,,,,,,,,,,,,,,,,
,,5,1.2041,5,1.2041,0,16,16,23,1,148,flower,melon,,90468,001,2022-04-29_12h08.20.832,SPAMnetsValid,2021.1.4,Win32,60.07088364,,,,,,,,,,,,,,,,,,,,,,,,,,,,,,,,,,,,,,,,,,,,,,,,,,,,,,,,,,,,,,,,,,,,,,,,,,,,,,,,,,
,,4,2.5614,4,2.5614,0,17,17,80,1,146,pretzel,tree,,90468,001,2022-04-29_12h08.20.832,SPAMnetsValid,2021.1.4,Win32,60.07088364,,,,,,,,,,,,,,,,,,,,,,,,,,,,,,,,,,,,,,,,,,,,,,,,,,,,,,,,,,,,,,,,,,,,,,,,,,,,,,,,,,
,,6,1.1247,6,1.1247,0,18,18,38,1,155,carrot,cookie,,90468,001,2022-04-29_12h08.20.832,SPAMnetsValid,2021.1.4,Win32,60.07088364,,,,,,,,,,,,,,,,,,,,,,,,,,,,,,,,,,,,,,,,,,,,,,,,,,,,,,,,,,,,,,,,,,,,,,,,,,,,,,,,,,
,,9,2.3775,9,2.3775,0,19,19,86,1,193,melon,melon,CHECK,90468,001,2022-04-29_12h08.20.832,SPAMnetsValid,2021.1.4,Win32,60.07088364,,,,,,,,,,,,,,,,,,,,,,,,,,,,,,,,,,,,,,,,,,,,,,,,,,,,,,,,,,,,,,,,,,,,,,,,,,,,,,,,,,
,,9,1.7516,9,1.7516,0,20,20,69,1,124,oven,refrigerator,,90468,001,2022-04-29_12h08.20.832,SPAMnetsValid,2021.1.4,Win32,60.07088364,,,,,,,,,,,,,,,,,,,,,,,,,,,,,,,,,,,,,,,,,,,,,,,,,,,,,,,,,,,,,,,,,,,,,,,,,,,,,,,,,,
,,1,1.5102,1,1.5102,0,21,21,13,1,105,cactus,oven,,90468,001,2022-04-29_12h08.20.832,SPAMnetsValid,2021.1.4,Win32,60.07088364,,,,,,,,,,,,,,,,,,,,,,,,,,,,,,,,,,,,,,,,,,,,,,,,,,,,,,,,,,,,,,,,,,,,,,,,,,,,,,,,,,
,,1,0.6525,1,0.6525,0,22,22,31,1,156,melon,rose,,90468,001,2022-04-29_12h08.20.832,SPAMnetsValid,2021.1.4,Win32,60.07088364,,,,,,,,,,,,,,,,,,,,,,,,,,,,,,,,,,,,,,,,,,,,,,,,,,,,,,,,,,,,,,,,,,,,,,,,,,,,,,,,,,
,,7,1.2873,7,1.2873,0,23,23,44,1,116,cake,chocolate,,90468,001,2022-04-29_12h08.20.832,SPAMnetsValid,2021.1.4,Win32,60.07088364,,,,,,,,,,,,,,,,,,,,,,,,,,,,,,,,,,,,,,,,,,,,,,,,,,,,,,,,,,,,,,,,,,,,,,,,,,,,,,,,,,
,,4,0.1465,4,0.1465,0,24,24,15,1,145,cactus,yogurt,,90468,001,2022-04-29_12h08.20.832,SPAMnetsValid,2021.1.4,Win32,60.07088364,,,,,,,,,,,,,,,,,,,,,,,,,,,,,,,,,,,,,,,,,,,,,,,,,,,,,,,,,,,,,,,,,,,,,,,,,,,,,,,,,,
,,6,1.0023,6,1.0023,0,25,25,66,1,150,microwave,refrigerator,,90468,001,2022-04-29_12h08.20.832,SPAMnetsValid,2021.1.4,Win32,60.07088364,,,,,,,,,,,,,,,,,,,,,,,,,,,,,,,,,,,,,,,,,,,,,,,,,,,,,,,,,,,,,,,,,,,,,,,,,,,,,,,,,,
,,6,0.1994,6,0.1994,0,26,26,9,1,176,cactus,tomato,,90468,001,2022-04-29_12h08.20.832,SPAMnetsValid,2021.1.4,Win32,60.07088364,,,,,,,,,,,,,,,,,,,,,,,,,,,,,,,,,,,,,,,,,,,,,,,,,,,,,,,,,,,,,,,,,,,,,,,,,,,,,,,,,,
,,6,0.1559,6,0.1559,0,27,27,30,1,125,carrot,tree,,90468,001,2022-04-29_12h08.20.832,SPAMnetsValid,2021.1.4,Win32,60.07088364,,,,,,,,,,,,,,,,,,,,,,,,,,,,,,,,,,,,,,,,,,,,,,,,,,,,,,,,,,,,,,,,,,,,,,,,,,,,,,,,,,
,,5,0.3126,5,0.3126,0,28,28,61,1,138,flower,rose,,90468,001,2022-04-29_12h08.20.832,SPAMnetsValid,2021.1.4,Win32,60.07088364,,,,,,,,,,,,,,,,,,,,,,,,,,,,,,,,,,,,,,,,,,,,,,,,,,,,,,,,,,,,,,,,,,,,,,,,,,,,,,,,,,
,,5,0.1715,5,0.1715,0,29,29,94,1,133,cake,flower,,90468,001,2022-04-29_12h08.20.832,SPAMnetsValid,2021.1.4,Win32,60.07088364,,,,,,,,,,,,,,,,,,,,,,,,,,,,,,,,,,,,,,,,,,,,,,,,,,,,,,,,,,,,,,,,,,,,,,,,,,,,,,,,,,
,,5,0.5794,5,0.5794,0,30,30,53,1,177,chocolate,strawberry,,90468,001,2022-04-29_12h08.20.832,SPAMnetsValid,2021.1.4,Win32,60.07088364,,,,,,,,,,,,,,,,,,,,,,,,,,,,,,,,,,,,,,,,,,,,,,,,,,,,,,,,,,,,,,,,,,,,,,,,,,,,,,,,,,
,,5,0.1379,5,0.1379,0,31,31,83,1,100,garden,tomato,,90468,001,2022-04-29_12h08.20.832,SPAMnetsValid,2021.1.4,Win32,60.07088364,,,,,,,,,,,,,,,,,,,,,,,,,,,,,,,,,,,,,,,,,,,,,,,,,,,,,,,,,,,,,,,,,,,,,,,,,,,,,,,,,,
,,4,1.1054,4,1.1054,0,32,32,18,1,119,strawberry,tree,,90468,001,2022-04-29_12h08.20.832,SPAMnetsValid,2021.1.4,Win32,60.07088364,,,,,,,,,,,,,,,,,,,,,,,,,,,,,,,,,,,,,,,,,,,,,,,,,,,,,,,,,,,,,,,,,,,,,,,,,,,,,,,,,,
,,7,0.2695,7,0.2695,0,33,33,48,1,186,kitchen,yogurt,,90468,001,2022-04-29_12h08.20.832,SPAMnetsValid,2021.1.4,Win32,60.07088364,,,,,,,,,,,,,,,,,,,,,,,,,,,,,,,,,,,,,,,,,,,,,,,,,,,,,,,,,,,,,,,,,,,,,,,,,,,,,,,,,,
,,7,0.2408,7,0.2408,0,34,34,25,1,194,cactus,cactus,CHECK,90468,001,2022-04-29_12h08.20.832,SPAMnetsValid,2021.1.4,Win32,60.07088364,,,,,,,,,,,,,,,,,,,,,,,,,,,,,,,,,,,,,,,,,,,,,,,,,,,,,,,,,,,,,,,,,,,,,,,,,,,,,,,,,,
,,7,0.1031,7,0.1031,0,35,35,76,1,102,chocolate,refrigerator,,90468,001,2022-04-29_12h08.20.832,SPAMnetsValid,2021.1.4,Win32,60.07088364,,,,,,,,,,,,,,,,,,,,,,,,,,,,,,,,,,,,,,,,,,,,,,,,,,,,,,,,,,,,,,,,,,,,,,,,,,,,,,,,,,
,,7,1.5849,7,1.5849,0,36,36,77,1,172,kitchen,melon,,90468,001,2022-04-29_12h08.20.832,SPAMnetsValid,2021.1.4,Win32,60.07088364,,,,,,,,,,,,,,,,,,,,,,,,,,,,,,,,,,,,,,,,,,,,,,,,,,,,,,,,,,,,,,,,,,,,,,,,,,,,,,,,,,
,,6,0.3233,6,0.3233,0,37,37,55,1,143,pretzel,rose,,90468,001,2022-04-29_12h08.20.832,SPAMnetsValid,2021.1.4,Win32,60.07088364,,,,,,,,,,,,,,,,,,,,,,,,,,,,,,,,,,,,,,,,,,,,,,,,,,,,,,,,,,,,,,,,,,,,,,,,,,,,,,,,,,
,,6,0.0385,6,0.0385,0,38,38,93,1,134,carrot,flower,,90468,001,2022-04-29_12h08.20.832,SPAMnetsValid,2021.1.4,Win32,60.07088364,,,,,,,,,,,,,,,,,,,,,,,,,,,,,,,,,,,,,,,,,,,,,,,,,,,,,,,,,,,,,,,,,,,,,,,,,,,,,,,,,,
,,6,0.0323,6,0.0323,0,39,39,45,1,179,broom,oven,,90468,001,2022-04-29_12h08.20.832,SPAMnetsValid,2021.1.4,Win32,60.07088364,,,,,,,,,,,,,,,,,,,,,,,,,,,,,,,,,,,,,,,,,,,,,,,,,,,,,,,,,,,,,,,,,,,,,,,,,,,,,,,,,,
,,6,0.2322,6,0.2322,0,40,40,40,1,165,onion,rose,,90468,001,2022-04-29_12h08.20.832,SPAMnetsValid,2021.1.4,Win32,60.07088364,,,,,,,,,,,,,,,,,,,,,,,,,,,,,,,,,,,,,,,,,,,,,,,,,,,,,,,,,,,,,,,,,,,,,,,,,,,,,,,,,,
,,6,0.1053,6,0.1053,0,41,41,43,1,185,cactus,rose,,90468,001,2022-04-29_12h08.20.832,SPAMnetsValid,2021.1.4,Win32,60.07088364,,,,,,,,,,,,,,,,,,,,,,,,,,,,,,,,,,,,,,,,,,,,,,,,,,,,,,,,,,,,,,,,,,,,,,,,,,,,,,,,,,
,,6,1.2641,6,1.2641,0,42,42,46,1,123,cookie,tree,,90468,001,2022-04-29_12h08.20.832,SPAMnetsValid,2021.1.4,Win32,60.07088364,,,,,,,,,,,,,,,,,,,,,,,,,,,,,,,,,,,,,,,,,,,,,,,,,,,,,,,,,,,,,,,,,,,,,,,,,,,,,,,,,,
,,6,0.0491,6,0.0491,0,43,43,78,1,132,broom,tree,,90468,001,2022-04-29_12h08.20.832,SPAMnetsValid,2021.1.4,Win32,60.07088364,,,,,,,,,,,,,,,,,,,,,,,,,,,,,,,,,,,,,,,,,,,,,,,,,,,,,,,,,,,,,,,,,,,,,,,,,,,,,,,,,,
,,6,0.1745,6,0.1745,0,44,44,1,1,173,kitchen,tomato,,90468,001,2022-04-29_12h08.20.832,SPAMnetsValid,2021.1.4,Win32,60.07088364,,,,,,,,,,,,,,,,,,,,,,,,,,,,,,,,,,,,,,,,,,,,,,,,,,,,,,,,,,,,,,,,,,,,,,,,,,,,,,,,,,
,,6,0.2638,6,0.2638,0,45,45,26,1,107,rose,tomato,,90468,001,2022-04-29_12h08.20.832,SPAMnetsValid,2021.1.4,Win32,60.07088364,,,,,,,,,,,,,,,,,,,,,,,,,,,,,,,,,,,,,,,,,,,,,,,,,,,,,,,,,,,,,,,,,,,,,,,,,,,,,,,,,,
,,6,0.153,6,0.153,0,46,46,50,1,126,kitchen,tree,,90468,001,2022-04-29_12h08.20.832,SPAMnetsValid,2021.1.4,Win32,60.07088364,,,,,,,,,,,,,,,,,,,,,,,,,,,,,,,,,,,,,,,,,,,,,,,,,,,,,,,,,,,,,,,,,,,,,,,,,,,,,,,,,,
,,6,0.1742,6,0.1742,0,47,47,12,1,162,microwave,tomato,,90468,001,2022-04-29_12h08.20.832,SPAMnetsValid,2021.1.4,Win32,60.07088364,,,,,,,,,,,,,,,,,,,,,,,,,,,,,,,,,,,,,,,,,,,,,,,,,,,,,,,,,,,,,,,,,,,,,,,,,,,,,,,,,,
,,6,0.1322,6,0.1322,0,48,48,3,1,129,cactus,refrigerator,,90468,001,2022-04-29_12h08.20.832,SPAMnetsValid,2021.1.4,Win32,60.07088364,,,,,,,,,,,,,,,,,,,,,,,,,,,,,,,,,,,,,,,,,,,,,,,,,,,,,,,,,,,,,,,,,,,,,,,,,,,,,,,,,,
,,4,1.2823,4,1.2823,0,49,49,91,1,166,cake,yogurt,,90468,001,2022-04-29_12h08.20.832,SPAMnetsValid,2021.1.4,Win32,60.07088364,,,,,,,,,,,,,,,,,,,,,,,,,,,,,,,,,,,,,,,,,,,,,,,,,,,,,,,,,,,,,,,,,,,,,,,,,,,,,,,,,,
,,4,0.1805,4,0.1805,0,50,50,59,1,164,cookie,garden,,90468,001,2022-04-29_12h08.20.832,SPAMnetsValid,2021.1.4,Win32,60.07088364,,,,,,,,,,,,,,,,,,,,,,,,,,,,,,,,,,,,,,,,,,,,,,,,,,,,,,,,,,,,,,,,,,,,,,,,,,,,,,,,,,
,,4,0.1532,4,0.1532,0,51,51,72,1,181,carrot,kitchen,,90468,001,2022-04-29_12h08.20.832,SPAMnetsValid,2021.1.4,Win32,60.07088364,,,,,,,,,,,,,,,,,,,,,,,,,,,,,,,,,,,,,,,,,,,,,,,,,,,,,,,,,,,,,,,,,,,,,,,,,,,,,,,,,,
,,8,2.0433,8,2.0433,0,52,52,37,1,139,carrot,strawberry,,90468,001,2022-04-29_12h08.20.832,SPAMnetsValid,2021.1.4,Win32,60.07088364,,,,,,,,,,,,,,,,,,,,,,,,,,,,,,,,,,,,,,,,,,,,,,,,,,,,,,,,,,,,,,,,,,,,,,,,,,,,,,,,,,
,,8,0.02,8,0.02,0,53,53,42,1,184,oven,pretzel,,90468,001,2022-04-29_12h08.20.832,SPAMnetsValid,2021.1.4,Win32,60.07088364,,,,,,,,,,,,,,,,,,,,,,,,,,,,,,,,,,,,,,,,,,,,,,,,,,,,,,,,,,,,,,,,,,,,,,,,,,,,,,,,,,
,,8,0.5264,8,0.5264,0,54,54,67,1,96,oven,strawberry,,90468,001,2022-04-29_12h08.20.832,SPAMnetsValid,2021.1.4,Win32,60.07088364,,,,,,,,,,,,,,,,,,,,,,,,,,,,,,,,,,,,,,,,,,,,,,,,,,,,,,,,,,,,,,,,,,,,,,,,,,,,,,,,,,
,,5,4.7856,5,4.7856,0,55,55,10,1,118,chocolate,oven,,90468,001,2022-04-29_12h08.20.832,SPAMnetsValid,2021.1.4,Win32,60.07088364,,,,,,,,,,,,,,,,,,,,,,,,,,,,,,,,,,,,,,,,,,,,,,,,,,,,,,,,,,,,,,,,,,,,,,,,,,,,,,,,,,
,,6,1.4692,6,1.4692,0,56,56,11,1,117,melon,strawberry,,90468,001,2022-04-29_12h08.20.832,SPAMnetsValid,2021.1.4,Win32,60.07088364,,,,,,,,,,,,,,,,,,,,,,,,,,,,,,,,,,,,,,,,,,,,,,,,,,,,,,,,,,,,,,,,,,,,,,,,,,,,,,,,,,
,,6,0.6334,6,0.6334,0,57,57,21,1,159,cookie,flower,,90468,001,2022-04-29_12h08.20.832,SPAMnetsValid,2021.1.4,Win32,60.07088364,,,,,,,,,,,,,,,,,,,,,,,,,,,,,,,,,,,,,,,,,,,,,,,,,,,,,,,,,,,,,,,,,,,,,,,,,,,,,,,,,,
,,6,0.5054,6,0.5054,0,58,58,68,1,180,tree,yogurt,,90468,001,2022-04-29_12h08.20.832,SPAMnetsValid,2021.1.4,Win32,60.07088364,,,,,,,,,,,,,,,,,,,,,,,,,,,,,,,,,,,,,,,,,,,,,,,,,,,,,,,,,,,,,,,,,,,,,,,,,,,,,,,,,,
,,3,3.7036,3,3.7036,0,59,59,71,1,187,cactus,microwave,,90468,001,2022-04-29_12h08.20.832,SPAMnetsValid,2021.1.4,Win32,60.07088364,,,,,,,,,,,,,,,,,,,,,,,,,,,,,,,,,,,,,,,,,,,,,,,,,,,,,,,,,,,,,,,,,,,,,,,,,,,,,,,,,,
,,4,1.0046,4,1.0046,0,60,60,33,1,131,cactus,garden,,90468,001,2022-04-29_12h08.20.832,SPAMnetsValid,2021.1.4,Win32,60.07088364,,,,,,,,,,,,,,,,,,,,,,,,,,,,,,,,,,,,,,,,,,,,,,,,,,,,,,,,,,,,,,,,,,,,,,,,,,,,,,,,,,
,,6,0.8357,6,0.8357,0,61,61,35,1,147,cake,refrigerator,,90468,001,2022-04-29_12h08.20.832,SPAMnetsValid,2021.1.4,Win32,60.07088364,,,,,,,,,,,,,,,,,,,,,,,,,,,,,,,,,,,,,,,,,,,,,,,,,,,,,,,,,,,,,,,,,,,,,,,,,,,,,,,,,,
,,4,1.2384,4,1.2384,0,62,62,41,1,175,melon,onion,,90468,001,2022-04-29_12h08.20.832,SPAMnetsValid,2021.1.4,Win32,60.07088364,,,,,,,,,,,,,,,,,,,,,,,,,,,,,,,,,,,,,,,,,,,,,,,,,,,,,,,,,,,,,,,,,,,,,,,,,,,,,,,,,,
,,4,0.632,4,0.632,0,63,63,4,1,109,broom,strawberry,,90468,001,2022-04-29_12h08.20.832,SPAMnetsValid,2021.1.4,Win32,60.07088364,,,,,,,,,,,,,,,,,,,,,,,,,,,,,,,,,,,,,,,,,,,,,,,,,,,,,,,,,,,,,,,,,,,,,,,,,,,,,,,,,,
,,4,0.6031,4,0.6031,0,64,64,56,1,113,refrigerator,strawberry,,90468,001,2022-04-29_12h08.20.832,SPAMnetsValid,2021.1.4,Win32,60.07088364,,,,,,,,,,,,,,,,,,,,,,,,,,,,,,,,,,,,,,,,,,,,,,,,,,,,,,,,,,,,,,,,,,,,,,,,,,,,,,,,,,
,,6,0.7054,6,0.7054,0,65,65,28,1,154,strawberry,yogurt,,90468,001,2022-04-29_12h08.20.832,SPAMnetsValid,2021.1.4,Win32,60.07088364,,,,,,,,,,,,,,,,,,,,,,,,,,,,,,,,,,,,,,,,,,,,,,,,,,,,,,,,,,,,,,,,,,,,,,,,,,,,,,,,,,
,,4,1.0686,4,1.0686,0,66,66,47,1,167,carrot,garden,,90468,001,2022-04-29_12h08.20.832,SPAMnetsValid,2021.1.4,Win32,60.07088364,,,,,,,,,,,,,,,,,,,,,,,,,,,,,,,,,,,,,,,,,,,,,,,,,,,,,,,,,,,,,,,,,,,,,,,,,,,,,,,,,,
,,6,0.6528,6,0.6528,0,67,67,0,1,106,cake,strawberry,,90468,001,2022-04-29_12h08.20.832,SPAMnetsValid,2021.1.4,Win32,60.07088364,,,,,,,,,,,,,,,,,,,,,,,,,,,,,,,,,,,,,,,,,,,,,,,,,,,,,,,,,,,,,,,,,,,,,,,,,,,,,,,,,,
,,4,0.5644,4,0.5644,0,68,68,57,1,127,cactus,chocolate,,90468,001,2022-04-29_12h08.20.832,SPAMnetsValid,2021.1.4,Win32,60.07088364,,,,,,,,,,,,,,,,,,,,,,,,,,,,,,,,,,,,,,,,,,,,,,,,,,,,,,,,,,,,,,,,,,,,,,,,,,,,,,,,,,
,,4,0.0924,4,0.0924,0,69,69,24,1,169,onion,yogurt,,90468,001,2022-04-29_12h08.20.832,SPAMnetsValid,2021.1.4,Win32,60.07088364,,,,,,,,,,,,,,,,,,,,,,,,,,,,,,,,,,,,,,,,,,,,,,,,,,,,,,,,,,,,,,,,,,,,,,,,,,,,,,,,,,
,,3,0.083,3,0.083,0,70,70,82,1,98,pretzel,strawberry,,90468,001,2022-04-29_12h08.20.832,SPAMnetsValid,2021.1.4,Win32,60.07088364,,,,,,,,,,,,,,,,,,,,,,,,,,,,,,,,,,,,,,,,,,,,,,,,,,,,,,,,,,,,,,,,,,,,,,,,,,,,,,,,,,
,,4,0.5201,4,0.5201,0,71,71,19,1,183,cake,rose,,90468,001,2022-04-29_12h08.20.832,SPAMnetsValid,2021.1.4,Win32,60.07088364,,,,,,,,,,,,,,,,,,,,,,,,,,,,,,,,,,,,,,,,,,,,,,,,,,,,,,,,,,,,,,,,,,,,,,,,,,,,,,,,,,
,,6,0.8859,6,0.8859,0,72,72,62,1,189,onion,tree,,90468,001,2022-04-29_12h08.20.832,SPAMnetsValid,2021.1.4,Win32,60.07088364,,,,,,,,,,,,,,,,,,,,,,,,,,,,,,,,,,,,,,,,,,,,,,,,,,,,,,,,,,,,,,,,,,,,,,,,,,,,,,,,,,
,,6,0.4436,6,0.4436,0,73,73,74,1,128,melon,microwave,,90468,001,2022-04-29_12h08.20.832,SPAMnetsValid,2021.1.4,Win32,60.07088364,,,,,,,,,,,,,,,,,,,,,,,,,,,,,,,,,,,,,,,,,,,,,,,,,,,,,,,,,,,,,,,,,,,,,,,,,,,,,,,,,,
,,7,1.0584,7,1.0584,0,74,74,6,1,151,microwave,onion,,90468,001,2022-04-29_12h08.20.832,SPAMnetsValid,2021.1.4,Win32,60.07088364,,,,,,,,,,,,,,,,,,,,,,,,,,,,,,,,,,,,,,,,,,,,,,,,,,,,,,,,,,,,,,,,,,,,,,,,,,,,,,,,,,
,,3,0.8181,3,0.8181,0,75,75,79,1,103,pretzel,tomato,,90468,001,2022-04-29_12h08.20.832,SPAMnetsValid,2021.1.4,Win32,60.07088364,,,,,,,,,,,,,,,,,,,,,,,,,,,,,,,,,,,,,,,,,,,,,,,,,,,,,,,,,,,,,,,,,,,,,,,,,,,,,,,,,,
,,7,0.9648,7,0.9648,0,76,76,87,1,114,cookie,strawberry,,90468,001,2022-04-29_12h08.20.832,SPAMnetsValid,2021.1.4,Win32,60.07088364,,,,,,,,,,,,,,,,,,,,,,,,,,,,,,,,,,,,,,,,,,,,,,,,,,,,,,,,,,,,,,,,,,,,,,,,,,,,,,,,,,
,,7,0.686,7,0.686,0,77,77,17,1,99,garden,melon,,90468,001,2022-04-29_12h08.20.832,SPAMnetsValid,2021.1.4,Win32,60.07088364,,,,,,,,,,,,,,,,,,,,,,,,,,,,,,,,,,,,,,,,,,,,,,,,,,,,,,,,,,,,,,,,,,,,,,,,,,,,,,,,,,
,,7,0.1544,7,0.1544,0,78,78,51,1,168,cactus,flower,,90468,001,2022-04-29_12h08.20.832,SPAMnetsValid,2021.1.4,Win32,60.07088364,,,,,,,,,,,,,,,,,,,,,,,,,,,,,,,,,,,,,,,,,,,,,,,,,,,,,,,,,,,,,,,,,,,,,,,,,,,,,,,,,,
,,7,0.0534,7,0.0534,0,79,79,85,1,115,refrigerator,tomato,,90468,001,2022-04-29_12h08.20.832,SPAMnetsValid,2021.1.4,Win32,60.07088364,,,,,,,,,,,,,,,,,,,,,,,,,,,,,,,,,,,,,,,,,,,,,,,,,,,,,,,,,,,,,,,,,,,,,,,,,,,,,,,,,,
,,8,0.2643,8,0.2643,0,80,80,39,1,112,cake,carrot,,90468,001,2022-04-29_12h08.20.832,SPAMnetsValid,2021.1.4,Win32,60.07088364,,,,,,,,,,,,,,,,,,,,,,,,,,,,,,,,,,,,,,,,,,,,,,,,,,,,,,,,,,,,,,,,,,,,,,,,,,,,,,,,,,
,,8,0.2747,8,0.2747,0,81,81,2,1,174,cake,pretzel,,90468,001,2022-04-29_12h08.20.832,SPAMnetsValid,2021.1.4,Win32,60.07088364,,,,,,,,,,,,,,,,,,,,,,,,,,,,,,,,,,,,,,,,,,,,,,,,,,,,,,,,,,,,,,,,,,,,,,,,,,,,,,,,,,
,,4,0.782,4,0.782,0,82,82,63,1,137,microwave,tree,,90468,001,2022-04-29_12h08.20.832,SPAMnetsValid,2021.1.4,Win32,60.07088364,,,,,,,,,,,,,,,,,,,,,,,,,,,,,,,,,,,,,,,,,,,,,,,,,,,,,,,,,,,,,,,,,,,,,,,,,,,,,,,,,,
,,4,1.3523,4,1.3523,0,83,83,89,1,140,cookie,refrigerator,,90468,001,2022-04-29_12h08.20.832,SPAMnetsValid,2021.1.4,Win32,60.07088364,,,,,,,,,,,,,,,,,,,,,,,,,,,,,,,,,,,,,,,,,,,,,,,,,,,,,,,,,,,,,,,,,,,,,,,,,,,,,,,,,,
,,2,0.9521,2,0.9521,0,84,84,88,1,171,cake,tomato,,90468,001,2022-04-29_12h08.20.832,SPAMnetsValid,2021.1.4,Win32,60.07088364,,,,,,,,,,,,,,,,,,,,,,,,,,,,,,,,,,,,,,,,,,,,,,,,,,,,,,,,,,,,,,,,,,,,,,,,,,,,,,,,,,
,,1,0.7656,1,0.7656,0,85,85,32,1,182,flower,refrigerator,,90468,001,2022-04-29_12h08.20.832,SPAMnetsValid,2021.1.4,Win32,60.07088364,,,,,,,,,,,,,,,,,,,,,,,,,,,,,,,,,,,,,,,,,,,,,,,,,,,,,,,,,,,,,,,,,,,,,,,,,,,,,,,,,,
,,4,0.8,4,0.8,0,86,86,34,1,153,carrot,pretzel,,90468,001,2022-04-29_12h08.20.832,SPAMnetsValid,2021.1.4,Win32,60.07088364,,,,,,,,,,,,,,,,,,,,,,,,,,,,,,,,,,,,,,,,,,,,,,,,,,,,,,,,,,,,,,,,,,,,,,,,,,,,,,,,,,
,,3,0.7168,3,0.7168,0,87,87,70,1,141,melon,tomato,,90468,001,2022-04-29_12h08.20.832,SPAMnetsValid,2021.1.4,Win32,60.07088364,,,,,,,,,,,,,,,,,,,,,,,,,,,,,,,,,,,,,,,,,,,,,,,,,,,,,,,,,,,,,,,,,,,,,,,,,,,,,,,,,,
,,2,0.6787,2,0.6787,0,88,88,58,1,144,cake,garden,,90468,001,2022-04-29_12h08.20.832,SPAMnetsValid,2021.1.4,Win32,60.07088364,,,,,,,,,,,,,,,,,,,,,,,,,,,,,,,,,,,,,,,,,,,,,,,,,,,,,,,,,,,,,,,,,,,,,,,,,,,,,,,,,,
,,3,0.5816,3,0.5816,0,89,89,22,1,142,garden,tree,,90468,001,2022-04-29_12h08.20.832,SPAMnetsValid,2021.1.4,Win32,60.07088364,,,,,,,,,,,,,,,,,,,,,,,,,,,,,,,,,,,,,,,,,,,,,,,,,,,,,,,,,,,,,,,,,,,,,,,,,,,,,,,,,,
,,3,0.4804,3,0.4804,0,90,90,65,1,160,cookie,kitchen,,90468,001,2022-04-29_12h08.20.832,SPAMnetsValid,2021.1.4,Win32,60.07088364,,,,,,,,,,,,,,,,,,,,,,,,,,,,,,,,,,,,,,,,,,,,,,,,,,,,,,,,,,,,,,,,,,,,,,,,,,,,,,,,,,
,,7,0.071,7,0.071,0,91,91,7,1,188,flower,tree,,90468,001,2022-04-29_12h08.20.832,SPAMnetsValid,2021.1.4,Win32,60.07088364,,,,,,,,,,,,,,,,,,,,,,,,,,,,,,,,,,,,,,,,,,,,,,,,,,,,,,,,,,,,,,,,,,,,,,,,,,,,,,,,,,
,,9,0.0532,9,0.0532,0,92,92,8,1,97,chocolate,kitchen,,90468,001,2022-04-29_12h08.20.832,SPAMnetsValid,2021.1.4,Win32,60.07088364,,,,,,,,,,,,,,,,,,,,,,,,,,,,,,,,,,,,,,,,,,,,,,,,,,,,,,,,,,,,,,,,,,,,,,,,,,,,,,,,,,
,,5,0.2716,5,0.2716,0,93,93,5,1,108,carrot,chocolate,,90468,001,2022-04-29_12h08.20.832,SPAMnetsValid,2021.1.4,Win32,60.07088364,,,,,,,,,,,,,,,,,,,,,,,,,,,,,,,,,,,,,,,,,,,,,,,,,,,,,,,,,,,,,,,,,,,,,,,,,,,,,,,,,,
,,8,0.8103,8,0.8103,0,94,94,84,1,130,microwave,yogurt,,90468,001,2022-04-29_12h08.20.832,SPAMnetsValid,2021.1.4,Win32,60.07088364,,,,,,,,,,,,,,,,,,,,,,,,,,,,,,,,,,,,,,,,,,,,,,,,,,,,,,,,,,,,,,,,,,,,,,,,,,,,,,,,,,
,,8,0.2199,8,0.2199,0,95,95,29,1,163,melon,refrigerator,,90468,001,2022-04-29_12h08.20.832,SPAMnetsValid,2021.1.4,Win32,60.07088364,,,,,,,,,,,,,,,,,,,,,,,,,,,,,,,,,,,,,,,,,,,,,,,,,,,,,,,,,,,,,,,,,,,,,,,,,,,,,,,,,,
,,8,0.02,8,0.02,0,96,96,92,1,170,cookie,microwave,,90468,001,2022-04-29_12h08.20.832,SPAMnetsValid,2021.1.4,Win32,60.07088364,,,,,,,,,,,,,,,,,,,,,,,,,,,,,,,,,,,,,,,,,,,,,,,,,,,,,,,,,,,,,,,,,,,,,,,,,,,,,,,,,,
,,,,,,,,,,,,,,,90468,001,2022-04-29_12h08.20.832,SPAMnetsValid,2021.1.4,Win32,60.07088364,0,0,0,0,1,,,,,,,,,,,,,,,,,,,,,,,,,,,,,,,,,,,,,,,,,,,,,,,,,,,,,,,,,,,,,,,,,,,,,,,,,,,,,
,,,,,,,,,,,,,,,90468,001,2022-04-29_12h08.20.832,SPAMnetsValid,2021.1.4,Win32,60.07088364,,,,,,0,0,0,1,1,0,1,,,,,,,,,,,,,,,,,,,,,,,,,,,,,,,,,,,,,,,,,,,,,,,,,,,,,,,,,,,,,,,,,,,,,,
,,,,8,2.2716,,,,,,79,garden,strawberry,,90468,001,2022-04-29_12h08.20.832,SPAMnetsValid,2021.1.4,Win32,60.07088364,,,,,,,,,,,,,8,2.2716,0,0,0,87,1,,,,,,,,,,,,,,,,,,,,,,,,,,,,,,,,,,,,,,,,,,,,,,,,,,,,,,,,,,,,,,,
,,,,8,0.7666,,,,,,94,kitchen,microwave,,90468,001,2022-04-29_12h08.20.832,SPAMnetsValid,2021.1.4,Win32,60.07088364,,,,,,,,,,,,,8,0.7666,0,1,1,58,1,,,,,,,,,,,,,,,,,,,,,,,,,,,,,,,,,,,,,,,,,,,,,,,,,,,,,,,,,,,,,,,
,,,,7,0.4378,,,,,,70,chocolate,onion,,90468,001,2022-04-29_12h08.20.832,SPAMnetsValid,2021.1.4,Win32,60.07088364,,,,,,,,,,,,,7,0.4378,0,2,2,74,1,,,,,,,,,,,,,,,,,,,,,,,,,,,,,,,,,,,,,,,,,,,,,,,,,,,,,,,,,,,,,,,
,,,,7,0.9375,,,,,,60,cactus,onion,,90468,001,2022-04-29_12h08.20.832,SPAMnetsValid,2021.1.4,Win32,60.07088364,,,,,,,,,,,,,7,0.9375,0,3,3,81,1,,,,,,,,,,,,,,,,,,,,,,,,,,,,,,,,,,,,,,,,,,,,,,,,,,,,,,,,,,,,,,,
,,,,8,0.1052,,,,,,57,flower,kitchen,,90468,001,2022-04-29_12h08.20.832,SPAMnetsValid,2021.1.4,Win32,60.07088364,,,,,,,,,,,,,8,0.1052,0,4,4,49,1,,,,,,,,,,,,,,,,,,,,,,,,,,,,,,,,,,,,,,,,,,,,,,,,,,,,,,,,,,,,,,,
,,,,8,0.187,,,,,,25,carrot,onion,,90468,001,2022-04-29_12h08.20.832,SPAMnetsValid,2021.1.4,Win32,60.07088364,,,,,,,,,,,,,8,0.187,0,5,5,44,1,,,,,,,,,,,,,,,,,,,,,,,,,,,,,,,,,,,,,,,,,,,,,,,,,,,,,,,,,,,,,,,
,,,,8,0.3692,,,,,,32,cake,microwave,,90468,001,2022-04-29_12h08.20.832,SPAMnetsValid,2021.1.4,Win32,60.07088364,,,,,,,,,,,,,8,0.3692,0,6,6,33,1,,,,,,,,,,,,,,,,,,,,,,,,,,,,,,,,,,,,,,,,,,,,,,,,,,,,,,,,,,,,,,,
,,,,8,0.1528,,,,,,59,rose,strawberry,,90468,001,2022-04-29_12h08.20.832,SPAMnetsValid,2021.1.4,Win32,60.07088364,,,,,,,,,,,,,8,0.1528,0,7,7,72,1,,,,,,,,,,,,,,,,,,,,,,,,,,,,,,,,,,,,,,,,,,,,,,,,,,,,,,,,,,,,,,,
,,,,8,0.3385,,,,,,21,cake,onion,,90468,001,2022-04-29_12h08.20.832,SPAMnetsValid,2021.1.4,Win32,60.07088364,,,,,,,,,,,,,8,0.3385,0,8,8,63,1,,,,,,,,,,,,,,,,,,,,,,,,,,,,,,,,,,,,,,,,,,,,,,,,,,,,,,,,,,,,,,,
,,,,8,0.1475,,,,,,88,cactus,melon,,90468,001,2022-04-29_12h08.20.832,SPAMnetsValid,2021.1.4,Win32,60.07088364,,,,,,,,,,,,,8,0.1475,0,9,9,38,1,,,,,,,,,,,,,,,,,,,,,,,,,,,,,,,,,,,,,,,,,,,,,,,,,,,,,,,,,,,,,,,
,,,,4,1.0863,,,,,,44,cookie,melon,,90468,001,2022-04-29_12h08.20.832,SPAMnetsValid,2021.1.4,Win32,60.07088364,,,,,,,,,,,,,4,1.0863,0,10,10,92,1,,,,,,,,,,,,,,,,,,,,,,,,,,,,,,,,,,,,,,,,,,,,,,,,,,,,,,,,,,,,,,,
,,,,3,2.0363,,,,,,1,rose,yogurt,,90468,001,2022-04-29_12h08.20.832,SPAMnetsValid,2021.1.4,Win32,60.07088364,,,,,,,,,,,,,3,2.0363,0,11,11,55,1,,,,,,,,,,,,,,,,,,,,,,,,,,,,,,,,,,,,,,,,,,,,,,,,,,,,,,,,,,,,,,,
,,,,3,2.1701,,,,,,19,microwave,pretzel,,90468,001,2022-04-29_12h08.20.832,SPAMnetsValid,2021.1.4,Win32,60.07088364,,,,,,,,,,,,,3,2.1701,0,12,12,41,1,,,,,,,,,,,,,,,,,,,,,,,,,,,,,,,,,,,,,,,,,,,,,,,,,,,,,,,,,,,,,,,
,,,,3,0.365,,,,,,64,chocolate,garden,,90468,001,2022-04-29_12h08.20.832,SPAMnetsValid,2021.1.4,Win32,60.07088364,,,,,,,,,,,,,3,0.365,0,13,13,14,1,,,,,,,,,,,,,,,,,,,,,,,,,,,,,,,,,,,,,,,,,,,,,,,,,,,,,,,,,,,,,,,
,,,,3,1.4892,,,,,,85,cake,tree,,90468,001,2022-04-29_12h08.20.832,SPAMnetsValid,2021.1.4,Win32,60.07088364,,,,,,,,,,,,,3,1.4892,0,14,14,18,1,,,,,,,,,,,,,,,,,,,,,,,,,,,,,,,,,,,,,,,,,,,,,,,,,,,,,,,,,,,,,,,
,,,,3,0.7568,,,,,,46,garden,yogurt,,90468,001,2022-04-29_12h08.20.832,SPAMnetsValid,2021.1.4,Win32,60.07088364,,,,,,,,,,,,,3,0.7568,0,15,15,65,1,,,,,,,,,,,,,,,,,,,,,,,,,,,,,,,,,,,,,,,,,,,,,,,,,,,,,,,,,,,,,,,
,,,,3,1.7043,,,,,,5,oven,tree,,90468,001,2022-04-29_12h08.20.832,SPAMnetsValid,2021.1.4,Win32,60.07088364,,,,,,,,,,,,,3,1.7043,0,16,16,70,1,,,,,,,,,,,,,,,,,,,,,,,,,,,,,,,,,,,,,,,,,,,,,,,,,,,,,,,,,,,,,,,
,,,,6,3.1827,,,,,,62,kitchen,rose,,90468,001,2022-04-29_12h08.20.832,SPAMnetsValid,2021.1.4,Win32,60.07088364,,,,,,,,,,,,,6,3.1827,0,17,17,57,1,,,,,,,,,,,,,,,,,,,,,,,,,,,,,,,,,,,,,,,,,,,,,,,,,,,,,,,,,,,,,,,
,,,,6,0.746,,,,,,35,flower,pretzel,,90468,001,2022-04-29_12h08.20.832,SPAMnetsValid,2021.1.4,Win32,60.07088364,,,,,,,,,,,,,6,0.746,0,18,18,26,1,,,,,,,,,,,,,,,,,,,,,,,,,,,,,,,,,,,,,,,,,,,,,,,,,,,,,,,,,,,,,,,
,,,,3,0.9593,,,,,,84,oven,tomato,,90468,001,2022-04-29_12h08.20.832,SPAMnetsValid,2021.1.4,Win32,60.07088364,,,,,,,,,,,,,3,0.9593,0,19,19,28,1,,,,,,,,,,,,,,,,,,,,,,,,,,,,,,,,,,,,,,,,,,,,,,,,,,,,,,,,,,,,,,,
,,,,3,0.6033,,,,,,24,cookie,tomato,,90468,001,2022-04-29_12h08.20.832,SPAMnetsValid,2021.1.4,Win32,60.07088364,,,,,,,,,,,,,3,0.6033,0,20,20,68,1,,,,,,,,,,,,,,,,,,,,,,,,,,,,,,,,,,,,,,,,,,,,,,,,,,,,,,,,,,,,,,,
,,,,3,0.2565,,,,,,58,garden,oven,,90468,001,2022-04-29_12h08.20.832,SPAMnetsValid,2021.1.4,Win32,60.07088364,,,,,,,,,,,,,3,0.2565,0,21,21,37,1,,,,,,,,,,,,,,,,,,,,,,,,,,,,,,,,,,,,,,,,,,,,,,,,,,,,,,,,,,,,,,,
,,,,3,0.5862,,,,,,69,carrot,refrigerator,,90468,001,2022-04-29_12h08.20.832,SPAMnetsValid,2021.1.4,Win32,60.07088364,,,,,,,,,,,,,3,0.5862,0,22,22,75,1,,,,,,,,,,,,,,,,,,,,,,,,,,,,,,,,,,,,,,,,,,,,,,,,,,,,,,,,,,,,,,,
,,,,3,0.703,,,,,,4,chocolate,pretzel,,90468,001,2022-04-29_12h08.20.832,SPAMnetsValid,2021.1.4,Win32,60.07088364,,,,,,,,,,,,,3,0.703,0,23,23,52,1,,,,,,,,,,,,,,,,,,,,,,,,,,,,,,,,,,,,,,,,,,,,,,,,,,,,,,,,,,,,,,,
,,,,4,0.4686,,,,,,81,pretzel,yogurt,,90468,001,2022-04-29_12h08.20.832,SPAMnetsValid,2021.1.4,Win32,60.07088364,,,,,,,,,,,,,4,0.4686,0,24,24,50,1,,,,,,,,,,,,,,,,,,,,,,,,,,,,,,,,,,,,,,,,,,,,,,,,,,,,,,,,,,,,,,,
,,,,4,2.2574,,,,,,16,chocolate,flower,,90468,001,2022-04-29_12h08.20.832,SPAMnetsValid,2021.1.4,Win32,60.07088364,,,,,,,,,,,,,4,2.2574,0,25,25,22,1,,,,,,,,,,,,,,,,,,,,,,,,,,,,,,,,,,,,,,,,,,,,,,,,,,,,,,,,,,,,,,,
,,,,6,0.6231,,,,,,27,cactus,cookie,,90468,001,2022-04-29_12h08.20.832,SPAMnetsValid,2021.1.4,Win32,60.07088364,,,,,,,,,,,,,6,0.6231,0,26,26,17,1,,,,,,,,,,,,,,,,,,,,,,,,,,,,,,,,,,,,,,,,,,,,,,,,,,,,,,,,,,,,,,,
,,,,3,0.6415,,,,,,34,melon,oven,,90468,001,2022-04-29_12h08.20.832,SPAMnetsValid,2021.1.4,Win32,60.07088364,,,,,,,,,,,,,3,0.6415,0,27,27,7,1,,,,,,,,,,,,,,,,,,,,,,,,,,,,,,,,,,,,,,,,,,,,,,,,,,,,,,,,,,,,,,,
,,,,4,1.7683,,,,,,92,broom,flower,,90468,001,2022-04-29_12h08.20.832,SPAMnetsValid,2021.1.4,Win32,60.07088364,,,,,,,,,,,,,4,1.7683,0,28,28,88,1,,,,,,,,,,,,,,,,,,,,,,,,,,,,,,,,,,,,,,,,,,,,,,,,,,,,,,,,,,,,,,,
,,,,4,0.686,,,,,,49,flower,strawberry,,90468,001,2022-04-29_12h08.20.832,SPAMnetsValid,2021.1.4,Win32,60.07088364,,,,,,,,,,,,,4,0.686,0,29,29,3,1,,,,,,,,,,,,,,,,,,,,,,,,,,,,,,,,,,,,,,,,,,,,,,,,,,,,,,,,,,,,,,,
,,,,4,1.1708,,,,,,30,cookie,pretzel,,90468,001,2022-04-29_12h08.20.832,SPAMnetsValid,2021.1.4,Win32,60.07088364,,,,,,,,,,,,,4,1.1708,0,30,30,78,1,,,,,,,,,,,,,,,,,,,,,,,,,,,,,,,,,,,,,,,,,,,,,,,,,,,,,,,,,,,,,,,
,,,,4,0.5026,,,,,,38,pretzel,refrigerator,,90468,001,2022-04-29_12h08.20.832,SPAMnetsValid,2021.1.4,Win32,60.07088364,,,,,,,,,,,,,4,0.5026,0,31,31,71,1,,,,,,,,,,,,,,,,,,,,,,,,,,,,,,,,,,,,,,,,,,,,,,,,,,,,,,,,,,,,,,,
,,,,4,1.4041,,,,,,39,melon,pretzel,,90468,001,2022-04-29_12h08.20.832,SPAMnetsValid,2021.1.4,Win32,60.07088364,,,,,,,,,,,,,4,1.4041,0,32,32,20,1,,,,,,,,,,,,,,,,,,,,,,,,,,,,,,,,,,,,,,,,,,,,,,,,,,,,,,,,,,,,,,,
,,,,4,0.2032,,,,,,55,tomato,tree,,90468,001,2022-04-29_12h08.20.832,SPAMnetsValid,2021.1.4,Win32,60.07088364,,,,,,,,,,,,,4,0.2032,0,33,33,35,1,,,,,,,,,,,,,,,,,,,,,,,,,,,,,,,,,,,,,,,,,,,,,,,,,,,,,,,,,,,,,,,
,,,,4,1.3055,,,,,,13,broom,yogurt,,90468,001,2022-04-29_12h08.20.832,SPAMnetsValid,2021.1.4,Win32,60.07088364,,,,,,,,,,,,,4,1.3055,0,34,34,5,1,,,,,,,,,,,,,,,,,,,,,,,,,,,,,,,,,,,,,,,,,,,,,,,,,,,,,,,,,,,,,,,
,,,,4,1.121,,,,,,2,kitchen,onion,,90468,001,2022-04-29_12h08.20.832,SPAMnetsValid,2021.1.4,Win32,60.07088364,,,,,,,,,,,,,4,1.121,0,35,35,91,1,,,,,,,,,,,,,,,,,,,,,,,,,,,,,,,,,,,,,,,,,,,,,,,,,,,,,,,,,,,,,,,
,,,,3,2.3847,,,,,,52,carrot,tomato,,90468,001,2022-04-29_12h08.20.832,SPAMnetsValid,2021.1.4,Win32,60.07088364,,,,,,,,,,,,,3,2.3847,0,36,36,95,1,,,,,,,,,,,,,,,,,,,,,,,,,,,,,,,,,,,,,,,,,,,,,,,,,,,,,,,,,,,,,,,
,,,,3,0.4892,,,,,,22,kitchen,strawberry,,90468,001,2022-04-29_12h08.20.832,SPAMnetsValid,2021.1.4,Win32,60.07088364,,,,,,,,,,,,,3,0.4892,0,37,37,2,1,,,,,,,,,,,,,,,,,,,,,,,,,,,,,,,,,,,,,,,,,,,,,,,,,,,,,,,,,,,,,,,
,,,,3,0.5122,,,,,,73,broom,chocolate,,90468,001,2022-04-29_12h08.20.832,SPAMnetsValid,2021.1.4,Win32,60.07088364,,,,,,,,,,,,,3,0.5122,0,38,38,47,1,,,,,,,,,,,,,,,,,,,,,,,,,,,,,,,,,,,,,,,,,,,,,,,,,,,,,,,,,,,,,,,
,,,,3,0.3887,,,,,,11,refrigerator,tree,,90468,001,2022-04-29_12h08.20.832,SPAMnetsValid,2021.1.4,Win32,60.07088364,,,,,,,,,,,,,3,0.3887,0,39,39,43,1,,,,,,,,,,,,,,,,,,,,,,,,,,,,,,,,,,,,,,,,,,,,,,,,,,,,,,,,,,,,,,,
,,,,3,0.5573,,,,,,8,broom,melon,,90468,001,2022-04-29_12h08.20.832,SPAMnetsValid,2021.1.4,Win32,60.07088364,,,,,,,,,,,,,3,0.5573,0,40,40,59,1,,,,,,,,,,,,,,,,,,,,,,,,,,,,,,,,,,,,,,,,,,,,,,,,,,,,,,,,,,,,,,,
,,,,3,0.3962,,,,,,31,cactus,pretzel,,90468,001,2022-04-29_12h08.20.832,SPAMnetsValid,2021.1.4,Win32,60.07088364,,,,,,,,,,,,,3,0.3962,0,41,41,1,1,,,,,,,,,,,,,,,,,,,,,,,,,,,,,,,,,,,,,,,,,,,,,,,,,,,,,,,,,,,,,,,
,,,,3,0.2433,,,,,,80,chocolate,tree,,90468,001,2022-04-29_12h08.20.832,SPAMnetsValid,2021.1.4,Win32,60.07088364,,,,,,,,,,,,,3,0.2433,0,42,42,89,1,,,,,,,,,,,,,,,,,,,,,,,,,,,,,,,,,,,,,,,,,,,,,,,,,,,,,,,,,,,,,,,
,,,,3,0.2788,,,,,,43,chocolate,tomato,,90468,001,2022-04-29_12h08.20.832,SPAMnetsValid,2021.1.4,Win32,60.07088364,,,,,,,,,,,,,3,0.2788,0,43,43,8,1,,,,,,,,,,,,,,,,,,,,,,,,,,,,,,,,,,,,,,,,,,,,,,,,,,,,,,,,,,,,,,,
,,,,3,0.2869,,,,,,72,broom,onion,,90468,001,2022-04-29_12h08.20.832,SPAMnetsValid,2021.1.4,Win32,60.07088364,,,,,,,,,,,,,3,0.2869,0,44,44,27,1,,,,,,,,,,,,,,,,,,,,,,,,,,,,,,,,,,,,,,,,,,,,,,,,,,,,,,,,,,,,,,,
,,,,3,0.2754,,,,,,90,cactus,cake,,90468,001,2022-04-29_12h08.20.832,SPAMnetsValid,2021.1.4,Win32,60.07088364,,,,,,,,,,,,,3,0.2754,0,45,45,85,1,,,,,,,,,,,,,,,,,,,,,,,,,,,,,,,,,,,,,,,,,,,,,,,,,,,,,,,,,,,,,,,
,,,,3,0.2551,,,,,,93,kitchen,oven,,90468,001,2022-04-29_12h08.20.832,SPAMnetsValid,2021.1.4,Win32,60.07088364,,,,,,,,,,,,,3,0.2551,0,46,46,82,1,,,,,,,,,,,,,,,,,,,,,,,,,,,,,,,,,,,,,,,,,,,,,,,,,,,,,,,,,,,,,,,
,,,,8,1.0787,,,,,,26,tomato,yogurt,,90468,001,2022-04-29_12h08.20.832,SPAMnetsValid,2021.1.4,Win32,60.07088364,,,,,,,,,,,,,8,1.0787,0,47,47,13,1,,,,,,,,,,,,,,,,,,,,,,,,,,,,,,,,,,,,,,,,,,,,,,,,,,,,,,,,,,,,,,,
,,,,8,0.3323,,,,,,95,broom,refrigerator,,90468,001,2022-04-29_12h08.20.832,SPAMnetsValid,2021.1.4,Win32,60.07088364,,,,,,,,,,,,,8,0.3323,0,48,48,90,1,,,,,,,,,,,,,,,,,,,,,,,,,,,,,,,,,,,,,,,,,,,,,,,,,,,,,,,,,,,,,,,
,,,,8,0.3494,,,,,,42,garden,kitchen,,90468,001,2022-04-29_12h08.20.832,SPAMnetsValid,2021.1.4,Win32,60.07088364,,,,,,,,,,,,,8,0.3494,0,49,49,29,1,,,,,,,,,,,,,,,,,,,,,,,,,,,,,,,,,,,,,,,,,,,,,,,,,,,,,,,,,,,,,,,
,,,,8,0.2368,,,,,,77,refrigerator,yogurt,,90468,001,2022-04-29_12h08.20.832,SPAMnetsValid,2021.1.4,Win32,60.07088364,,,,,,,,,,,,,8,0.2368,0,50,50,42,1,,,,,,,,,,,,,,,,,,,,,,,,,,,,,,,,,,,,,,,,,,,,,,,,,,,,,,,,,,,,,,,
,,,,8,0.2699,,,,,,36,broom,kitchen,,90468,001,2022-04-29_12h08.20.832,SPAMnetsValid,2021.1.4,Win32,60.07088364,,,,,,,,,,,,,8,0.2699,0,51,51,76,1,,,,,,,,,,,,,,,,,,,,,,,,,,,,,,,,,,,,,,,,,,,,,,,,,,,,,,,,,,,,,,,
,,,,8,0.2525,,,,,,191,cake,cake,CHECK,90468,001,2022-04-29_12h08.20.832,SPAMnetsValid,2021.1.4,Win32,60.07088364,,,,,,,,,,,,,8,0.2525,0,52,52,10,1,,,,,,,,,,,,,,,,,,,,,,,,,,,,,,,,,,,,,,,,,,,,,,,,,,,,,,,,,,,,,,,
,,,,8,0.2721,,,,,,6,garden,onion,,90468,001,2022-04-29_12h08.20.832,SPAMnetsValid,2021.1.4,Win32,60.07088364,,,,,,,,,,,,,8,0.2721,0,53,53,83,1,,,,,,,,,,,,,,,,,,,,,,,,,,,,,,,,,,,,,,,,,,,,,,,,,,,,,,,,,,,,,,,
,,,,8,0.2534,,,,,,78,cookie,rose,,90468,001,2022-04-29_12h08.20.832,SPAMnetsValid,2021.1.4,Win32,60.07088364,,,,,,,,,,,,,8,0.2534,0,54,54,56,1,,,,,,,,,,,,,,,,,,,,,,,,,,,,,,,,,,,,,,,,,,,,,,,,,,,,,,,,,,,,,,,
,,,,8,0.2492,,,,,,192,microwave,microwave,CHECK,90468,001,2022-04-29_12h08.20.832,SPAMnetsValid,2021.1.4,Win32,60.07088364,,,,,,,,,,,,,8,0.2492,0,55,55,53,1,,,,,,,,,,,,,,,,,,,,,,,,,,,,,,,,,,,,,,,,,,,,,,,,,,,,,,,,,,,,,,,
,,,,8,0.27,,,,,,75,cookie,onion,,90468,001,2022-04-29_12h08.20.832,SPAMnetsValid,2021.1.4,Win32,60.07088364,,,,,,,,,,,,,8,0.27,0,56,56,9,1,,,,,,,,,,,,,,,,,,,,,,,,,,,,,,,,,,,,,,,,,,,,,,,,,,,,,,,,,,,,,,,
,,,,8,0.2527,,,,,,15,onion,oven,,90468,001,2022-04-29_12h08.20.832,SPAMnetsValid,2021.1.4,Win32,60.07088364,,,,,,,,,,,,,8,0.2527,0,57,57,39,1,,,,,,,,,,,,,,,,,,,,,,,,,,,,,,,,,,,,,,,,,,,,,,,,,,,,,,,,,,,,,,,
,,,,8,0.2179,,,,,,3,cake,oven,,90468,001,2022-04-29_12h08.20.832,SPAMnetsValid,2021.1.4,Win32,60.07088364,,,,,,,,,,,,,8,0.2179,0,58,58,30,1,,,,,,,,,,,,,,,,,,,,,,,,,,,,,,,,,,,,,,,,,,,,,,,,,,,,,,,,,,,,,,,
,,,,8,0.1666,,,,,,47,onion,tomato,,90468,001,2022-04-29_12h08.20.832,SPAMnetsValid,2021.1.4,Win32,60.07088364,,,,,,,,,,,,,8,0.1666,0,59,59,51,1,,,,,,,,,,,,,,,,,,,,,,,,,,,,,,,,,,,,,,,,,,,,,,,,,,,,,,,,,,,,,,,
,,,,8,0.2044,,,,,,18,onion,refrigerator,,90468,001,2022-04-29_12h08.20.832,SPAMnetsValid,2021.1.4,Win32,60.07088364,,,,,,,,,,,,,8,0.2044,0,60,60,62,1,,,,,,,,,,,,,,,,,,,,,,,,,,,,,,,,,,,,,,,,,,,,,,,,,,,,,,,,,,,,,,,
,,,,8,0.1832,,,,,,82,cake,kitchen,,90468,001,2022-04-29_12h08.20.832,SPAMnetsValid,2021.1.4,Win32,60.07088364,,,,,,,,,,,,,8,0.1832,0,61,61,96,1,,,,,,,,,,,,,,,,,,,,,,,,,,,,,,,,,,,,,,,,,,,,,,,,,,,,,,,,,,,,,,,
,,,,8,0.1551,,,,,,61,strawberry,tomato,,90468,001,2022-04-29_12h08.20.832,SPAMnetsValid,2021.1.4,Win32,60.07088364,,,,,,,,,,,,,8,0.1551,0,62,62,80,1,,,,,,,,,,,,,,,,,,,,,,,,,,,,,,,,,,,,,,,,,,,,,,,,,,,,,,,,,,,,,,,
,,,,8,0.1662,,,,,,71,broom,rose,,90468,001,2022-04-29_12h08.20.832,SPAMnetsValid,2021.1.4,Win32,60.07088364,,,,,,,,,,,,,8,0.1662,0,63,63,61,1,,,,,,,,,,,,,,,,,,,,,,,,,,,,,,,,,,,,,,,,,,,,,,,,,,,,,,,,,,,,,,,
,,,,8,0.149,,,,,,37,garden,refrigerator,,90468,001,2022-04-29_12h08.20.832,SPAMnetsValid,2021.1.4,Win32,60.07088364,,,,,,,,,,,,,8,0.149,0,64,64,11,1,,,,,,,,,,,,,,,,,,,,,,,,,,,,,,,,,,,,,,,,,,,,,,,,,,,,,,,,,,,,,,,
,,,,8,0.1945,,,,,,29,chocolate,melon,,90468,001,2022-04-29_12h08.20.832,SPAMnetsValid,2021.1.4,Win32,60.07088364,,,,,,,,,,,,,8,0.1945,0,65,65,34,1,,,,,,,,,,,,,,,,,,,,,,,,,,,,,,,,,,,,,,,,,,,,,,,,,,,,,,,,,,,,,,,
,,,,8,0.4031,,,,,,87,carrot,yogurt,,90468,001,2022-04-29_12h08.20.832,SPAMnetsValid,2021.1.4,Win32,60.07088364,,,,,,,,,,,,,8,0.4031,0,66,66,6,1,,,,,,,,,,,,,,,,,,,,,,,,,,,,,,,,,,,,,,,,,,,,,,,,,,,,,,,,,,,,,,,
,,,,8,0.2273,,,,,,86,oven,rose,,90468,001,2022-04-29_12h08.20.832,SPAMnetsValid,2021.1.4,Win32,60.07088364,,,,,,,,,,,,,8,0.2273,0,67,67,79,1,,,,,,,,,,,,,,,,,,,,,,,,,,,,,,,,,,,,,,,,,,,,,,,,,,,,,,,,,,,,,,,
,,,,8,0.1363,,,,,,50,carrot,rose,,90468,001,2022-04-29_12h08.20.832,SPAMnetsValid,2021.1.4,Win32,60.07088364,,,,,,,,,,,,,8,0.1363,0,68,68,73,1,,,,,,,,,,,,,,,,,,,,,,,,,,,,,,,,,,,,,,,,,,,,,,,,,,,,,,,,,,,,,,,
,,,,8,0.2323,,,,,,10,flower,onion,,90468,001,2022-04-29_12h08.20.832,SPAMnetsValid,2021.1.4,Win32,60.07088364,,,,,,,,,,,,,8,0.2323,0,69,69,45,1,,,,,,,,,,,,,,,,,,,,,,,,,,,,,,,,,,,,,,,,,,,,,,,,,,,,,,,,,,,,,,,
,,,,8,0.182,,,,,,63,cake,cookie,,90468,001,2022-04-29_12h08.20.832,SPAMnetsValid,2021.1.4,Win32,60.07088364,,,,,,,,,,,,,8,0.182,0,70,70,93,1,,,,,,,,,,,,,,,,,,,,,,,,,,,,,,,,,,,,,,,,,,,,,,,,,,,,,,,,,,,,,,,
,,,,2,0.9225,,,,,,9,kitchen,refrigerator,,90468,001,2022-04-29_12h08.20.832,SPAMnetsValid,2021.1.4,Win32,60.07088364,,,,,,,,,,,,,2,0.9225,0,71,71,64,1,,,,,,,,,,,,,,,,,,,,,,,,,,,,,,,,,,,,,,,,,,,,,,,,,,,,,,,,,,,,,,,
,,,,2,0.2048,,,,,,54,chocolate,yogurt,,90468,001,2022-04-29_12h08.20.832,SPAMnetsValid,2021.1.4,Win32,60.07088364,,,,,,,,,,,,,2,0.2048,0,72,72,67,1,,,,,,,,,,,,,,,,,,,,,,,,,,,,,,,,,,,,,,,,,,,,,,,,,,,,,,,,,,,,,,,
,,,,2,0.1431,,,,,,14,broom,cookie,,90468,001,2022-04-29_12h08.20.832,SPAMnetsValid,2021.1.4,Win32,60.07088364,,,,,,,,,,,,,2,0.1431,0,73,73,16,1,,,,,,,,,,,,,,,,,,,,,,,,,,,,,,,,,,,,,,,,,,,,,,,,,,,,,,,,,,,,,,,
,,,,2,0.0898,,,,,,66,melon,yogurt,,90468,001,2022-04-29_12h08.20.832,SPAMnetsValid,2021.1.4,Win32,60.07088364,,,,,,,,,,,,,2,0.0898,0,74,74,48,1,,,,,,,,,,,,,,,,,,,,,,,,,,,,,,,,,,,,,,,,,,,,,,,,,,,,,,,,,,,,,,,
,,,,2,0.2198,,,,,,53,garden,pretzel,,90468,001,2022-04-29_12h08.20.832,SPAMnetsValid,2021.1.4,Win32,60.07088364,,,,,,,,,,,,,2,0.2198,0,75,75,0,1,,,,,,,,,,,,,,,,,,,,,,,,,,,,,,,,,,,,,,,,,,,,,,,,,,,,,,,,,,,,,,,
,,,,2,1.6643,,,,,,17,carrot,melon,,90468,001,2022-04-29_12h08.20.832,SPAMnetsValid,2021.1.4,Win32,60.07088364,,,,,,,,,,,,,2,1.6643,0,76,76,24,1,,,,,,,,,,,,,,,,,,,,,,,,,,,,,,,,,,,,,,,,,,,,,,,,,,,,,,,,,,,,,,,
,,,,2,0.2864,,,,,,41,broom,cactus,,90468,001,2022-04-29_12h08.20.832,SPAMnetsValid,2021.1.4,Win32,60.07088364,,,,,,,,,,,,,2,0.2864,0,77,77,46,1,,,,,,,,,,,,,,,,,,,,,,,,,,,,,,,,,,,,,,,,,,,,,,,,,,,,,,,,,,,,,,,
,,,,2,0.3595,,,,,,12,cookie,yogurt,,90468,001,2022-04-29_12h08.20.832,SPAMnetsValid,2021.1.4,Win32,60.07088364,,,,,,,,,,,,,2,0.3595,0,78,78,36,1,,,,,,,,,,,,,,,,,,,,,,,,,,,,,,,,,,,,,,,,,,,,,,,,,,,,,,,,,,,,,,,
,,,,2,0.2382,,,,,,23,flower,microwave,,90468,001,2022-04-29_12h08.20.832,SPAMnetsValid,2021.1.4,Win32,60.07088364,,,,,,,,,,,,,2,0.2382,0,79,79,25,1,,,,,,,,,,,,,,,,,,,,,,,,,,,,,,,,,,,,,,,,,,,,,,,,,,,,,,,,,,,,,,,
,,,,4,1.2647,,,,,,67,flower,yogurt,,90468,001,2022-04-29_12h08.20.832,SPAMnetsValid,2021.1.4,Win32,60.07088364,,,,,,,,,,,,,4,1.2647,0,80,80,12,1,,,,,,,,,,,,,,,,,,,,,,,,,,,,,,,,,,,,,,,,,,,,,,,,,,,,,,,,,,,,,,,
,,,,4,0.6025,,,,,,45,onion,pretzel,,90468,001,2022-04-29_12h08.20.832,SPAMnetsValid,2021.1.4,Win32,60.07088364,,,,,,,,,,,,,4,0.6025,0,81,81,69,1,,,,,,,,,,,,,,,,,,,,,,,,,,,,,,,,,,,,,,,,,,,,,,,,,,,,,,,,,,,,,,,
,,,,4,0.1892,,,,,,91,microwave,rose,,90468,001,2022-04-29_12h08.20.832,SPAMnetsValid,2021.1.4,Win32,60.07088364,,,,,,,,,,,,,4,0.1892,0,82,82,84,1,,,,,,,,,,,,,,,,,,,,,,,,,,,,,,,,,,,,,,,,,,,,,,,,,,,,,,,,,,,,,,,
,,,,4,0.2042,,,,,,48,flower,oven,,90468,001,2022-04-29_12h08.20.832,SPAMnetsValid,2021.1.4,Win32,60.07088364,,,,,,,,,,,,,4,0.2042,0,83,83,15,1,,,,,,,,,,,,,,,,,,,,,,,,,,,,,,,,,,,,,,,,,,,,,,,,,,,,,,,,,,,,,,,
,,,,4,0.2028,,,,,,7,melon,tree,,90468,001,2022-04-29_12h08.20.832,SPAMnetsValid,2021.1.4,Win32,60.07088364,,,,,,,,,,,,,4,0.2028,0,84,84,77,1,,,,,,,,,,,,,,,,,,,,,,,,,,,,,,,,,,,,,,,,,,,,,,,,,,,,,,,,,,,,,,,
,,,,4,0.167,,,,,,33,oven,yogurt,,90468,001,2022-04-29_12h08.20.832,SPAMnetsValid,2021.1.4,Win32,60.07088364,,,,,,,,,,,,,4,0.167,0,85,85,31,1,,,,,,,,,,,,,,,,,,,,,,,,,,,,,,,,,,,,,,,,,,,,,,,,,,,,,,,,,,,,,,,
,,,,4,0.1554,,,,,,40,broom,cake,,90468,001,2022-04-29_12h08.20.832,SPAMnetsValid,2021.1.4,Win32,60.07088364,,,,,,,,,,,,,4,0.1554,0,86,86,32,1,,,,,,,,,,,,,,,,,,,,,,,,,,,,,,,,,,,,,,,,,,,,,,,,,,,,,,,,,,,,,,,
,,,,4,0.1918,,,,,,28,cake,melon,,90468,001,2022-04-29_12h08.20.832,SPAMnetsValid,2021.1.4,Win32,60.07088364,,,,,,,,,,,,,4,0.1918,0,87,87,54,1,,,,,,,,,,,,,,,,,,,,,,,,,,,,,,,,,,,,,,,,,,,,,,,,,,,,,,,,,,,,,,,
,,,,4,0.1708,,,,,,56,cactus,tree,,90468,001,2022-04-29_12h08.20.832,SPAMnetsValid,2021.1.4,Win32,60.07088364,,,,,,,,,,,,,4,0.1708,0,88,88,21,1,,,,,,,,,,,,,,,,,,,,,,,,,,,,,,,,,,,,,,,,,,,,,,,,,,,,,,,,,,,,,,,
,,,,4,0.1751,,,,,,83,broom,carrot,,90468,001,2022-04-29_12h08.20.832,SPAMnetsValid,2021.1.4,Win32,60.07088364,,,,,,,,,,,,,4,0.1751,0,89,89,4,1,,,,,,,,,,,,,,,,,,,,,,,,,,,,,,,,,,,,,,,,,,,,,,,,,,,,,,,,,,,,,,,
,,,,4,0.172,,,,,,89,chocolate,rose,,90468,001,2022-04-29_12h08.20.832,SPAMnetsValid,2021.1.4,Win32,60.07088364,,,,,,,,,,,,,4,0.172,0,90,90,60,1,,,,,,,,,,,,,,,,,,,,,,,,,,,,,,,,,,,,,,,,,,,,,,,,,,,,,,,,,,,,,,,
,,,,4,0.192,,,,,,20,rose,tree,,90468,001,2022-04-29_12h08.20.832,SPAMnetsValid,2021.1.4,Win32,60.07088364,,,,,,,,,,,,,4,0.192,0,91,91,66,1,,,,,,,,,,,,,,,,,,,,,,,,,,,,,,,,,,,,,,,,,,,,,,,,,,,,,,,,,,,,,,,
,,,,4,0.1868,,,,,,76,garden,rose,,90468,001,2022-04-29_12h08.20.832,SPAMnetsValid,2021.1.4,Win32,60.07088364,,,,,,,,,,,,,4,0.1868,0,92,92,19,1,,,,,,,,,,,,,,,,,,,,,,,,,,,,,,,,,,,,,,,,,,,,,,,,,,,,,,,,,,,,,,,
,,,,4,0.1868,,,,,,74,broom,pretzel,,90468,001,2022-04-29_12h08.20.832,SPAMnetsValid,2021.1.4,Win32,60.07088364,,,,,,,,,,,,,4,0.1868,0,93,93,40,1,,,,,,,,,,,,,,,,,,,,,,,,,,,,,,,,,,,,,,,,,,,,,,,,,,,,,,,,,,,,,,,
,,,,4,0.17,,,,,,65,broom,garden,,90468,001,2022-04-29_12h08.20.832,SPAMnetsValid,2021.1.4,Win32,60.07088364,,,,,,,,,,,,,4,0.17,0,94,94,23,1,,,,,,,,,,,,,,,,,,,,,,,,,,,,,,,,,,,,,,,,,,,,,,,,,,,,,,,,,,,,,,,
,,,,4,0.1983,,,,,,51,onion,strawberry,,90468,001,2022-04-29_12h08.20.832,SPAMnetsValid,2021.1.4,Win32,60.07088364,,,,,,,,,,,,,4,0.1983,0,95,95,86,1,,,,,,,,,,,,,,,,,,,,,,,,,,,,,,,,,,,,,,,,,,,,,,,,,,,,,,,,,,,,,,,
,,,,4,0.1864,,,,,,68,flower,tomato,,90468,001,2022-04-29_12h08.20.832,SPAMnetsValid,2021.1.4,Win32,60.07088364,,,,,,,,,,,,,4,0.1864,0,96,96,94,1,,,,,,,,,,,,,,,,,,,,,,,,,,,,,,,,,,,,,,,,,,,,,,,,,,,,,,,,,,,,,,,
,,,,,,,,,,,,,,,90468,001,2022-04-29_12h08.20.832,SPAMnetsValid,2021.1.4,Win32,60.07088364,,,,,,,,,,,,,,,,,,,,0,0,0,0,1,,,,,,,,,,,,,,,,,,,,,,,,,,,,,,,,,,,,,,,,,,,,,,,,,,,,,,,,,,
,,,,,,,,,,,,,,,90468,001,2022-04-29_12h08.20.832,SPAMnetsValid,2021.1.4,Win32,60.07088364,,,,,,0,1,1,0,1,1,0,,,,,,,,,,,,,,,,,,,,,,,,,,,,,,,,,,,,,,,,,,,,,,,,,,,,,,,,,,,,,,,,,,,,,,
,,,,,,,,,,,,,,,90468,001,2022-04-29_12h08.20.832,SPAMnetsValid,2021.1.4,Win32,60.07088364,,,,,,,,,,,,,,,,,,,,,,,,,2,3.9562,0,0,0,0,1,rancor,forbearance,ridicule,malice,bravery,3,,,,,,,,,,,,,,,,,,,,,,,,,,,,,,,,,,,,,,,,,,,,,
,,,,,,,,,,,,,,,90468,001,2022-04-29_12h08.20.832,SPAMnetsValid,2021.1.4,Win32,60.07088364,,,,,,,,,,,,,,,,,,,,,,,,,1,2.8509,0,1,1,1,1,raucous,empty,quiet,smooth,harsh,4,,,,,,,,,,,,,,,,,,,,,,,,,,,,,,,,,,,,,,,,,,,,,
,,,,,,,,,,,,,,,90468,001,2022-04-29_12h08.20.832,SPAMnetsValid,2021.1.4,Win32,60.07088364,,,,,,,,,,,,,,,,,,,,,,,,,1,5.7736,0,2,2,2,1,gargoyle,oil,medicine,carved waterspout,ugly building,3,,,,,,,,,,,,,,,,,,,,,,,,,,,,,,,,,,,,,,,,,,,,,
,,,,,,,,,,,,,,,90468,001,2022-04-29_12h08.20.832,SPAMnetsValid,2021.1.4,Win32,60.07088364,,,,,,,,,,,,,,,,,,,,,,,,,,,0,3,3,3,1,recrudesce,purify,renew activity,lack refinement,crush,2,,,,,,,,,,,,,,,,,,,,,,,,,,,,,,,,,,,,,,,,,,,,,
,,,,,,,,,,,,,,,90468,001,2022-04-29_12h08.20.832,SPAMnetsValid,2021.1.4,Win32,60.07088364,,,,,,,,,,,,,,,,,,,,,,,,,,,0,4,4,4,1,specious,"plausible, but not genuine",noteworthy,class or variety,roomy,1,,,,,,,,,,,,,,,,,,,,,,,,,,,,,,,,,,,,,,,,,,,,,
,,,,,,,,,,,,,,,90468,001,2022-04-29_12h08.20.832,SPAMnetsValid,2021.1.4,Win32,60.07088364,,,,,,,,,,,,,,,,,,,,,,,,,2,1.5372,0,5,5,5,1,bauble,bubble,showy plaything,idle talk,confusion,2,,,,,,,,,,,,,,,,,,,,,,,,,,,,,,,,,,,,,,,,,,,,,
,,,,,,,,,,,,,,,90468,001,2022-04-29_12h08.20.832,SPAMnetsValid,2021.1.4,Win32,60.07088364,,,,,,,,,,,,,,,,,,,,,,,,,2,0.022,0,6,6,6,1,prolific,scarce,producing abundantly,reckless,speaking profanely,2,,,,,,,,,,,,,,,,,,,,,,,,,,,,,,,,,,,,,,,,,,,,,
,,,,,,,,,,,,,,,90468,001,2022-04-29_12h08.20.832,SPAMnetsValid,2021.1.4,Win32,60.07088364,,,,,,,,,,,,,,,,,,,,,,,,,,,0,7,7,7,1,opulent,party,wealthy,happy frame of mind,semiprecious stone,2,,,,,,,,,,,,,,,,,,,,,,,,,,,,,,,,,,,,,,,,,,,,,
,,,,,,,,,,,,,,,90468,001,2022-04-29_12h08.20.832,SPAMnetsValid,2021.1.4,Win32,60.07088364,,,,,,,,,,,,,,,,,,,,,,,,,2,0.3224,0,8,8,8,1,coercion,conspiracy,strategy,restraint,attraction,3,,,,,,,,,,,,,,,,,,,,,,,,,,,,,,,,,,,,,,,,,,,,,
,,,,,,,,,,,,,,,90468,001,2022-04-29_12h08.20.832,SPAMnetsValid,2021.1.4,Win32,60.07088364,,,,,,,,,,,,,,,,,,,,,,,,,2,0.2548,0,9,9,9,1,hiatus,animal,calamity,dread,gap,4,,,,,,,,,,,,,,,,,,,,,,,,,,,,,,,,,,,,,,,,,,,,,
,,,,,,,,,,,,,,,90468,001,2022-04-29_12h08.20.832,SPAMnetsValid,2021.1.4,Win32,60.07088364,,,,,,,,,,,,,,,,,,,,,,,,,2,0.2098,0,10,10,10,1,germane,microbe,contagious,relevant,different,3,,,,,,,,,,,,,,,,,,,,,,,,,,,,,,,,,,,,,,,,,,,,,
,,,,,,,,,,,,,,,90468,001,2022-04-29_12h08.20.832,SPAMnetsValid,2021.1.4,Win32,60.07088364,,,,,,,,,,,,,,,,,,,,,,,,,2,0.1719,0,11,11,11,1,perfunctory,fundamental,formal,superficial,careful,3,,,,,,,,,,,,,,,,,,,,,,,,,,,,,,,,,,,,,,,,,,,,,
,,,,,,,,,,,,,,,90468,001,2022-04-29_12h08.20.832,SPAMnetsValid,2021.1.4,Win32,60.07088364,,,,,,,,,,,,,,,,,,,,,,,,,2,0.1621,0,12,12,12,1,diverge,reveal,chant,distract the attention of,differ or turn off from,4,,,,,,,,,,,,,,,,,,,,,,,,,,,,,,,,,,,,,,,,,,,,,
,,,,,,,,,,,,,,,90468,001,2022-04-29_12h08.20.832,SPAMnetsValid,2021.1.4,Win32,60.07088364,,,,,,,,,,,,,,,,,,,,,,,,,3,1.1375,0,13,13,13,1,evoke,take away,anger,connect,bring out,4,,,,,,,,,,,,,,,,,,,,,,,,,,,,,,,,,,,,,,,,,,,,,
,,,,,,,,,,,,,,,90468,001,2022-04-29_12h08.20.832,SPAMnetsValid,2021.1.4,Win32,60.07088364,,,,,,,,,,,,,,,,,,,,,,,,,,,0,14,14,14,1,pertinent,relevant,lying next to,necessary,bold,1,,,,,,,,,,,,,,,,,,,,,,,,,,,,,,,,,,,,,,,,,,,,,
,,,,,,,,,,,,,,,90468,001,2022-04-29_12h08.20.832,SPAMnetsValid,2021.1.4,Win32,60.07088364,,,,,,,,,,,,,,,,,,,,,,,,,2,1.2604,0,15,15,15,1,holocaust,entirety,destruction,saintly,price,2,,,,,,,,,,,,,,,,,,,,,,,,,,,,,,,,,,,,,,,,,,,,,
,,,,,,,,,,,,,,,90468,001,2022-04-29_12h08.20.832,SPAMnetsValid,2021.1.4,Win32,60.07088364,,,,,,,,,,,,,,,,,,,,,,,,,2,0.5325,0,16,16,16,1,piquant,mellow,fish,pungent,cloth,3,,,,,,,,,,,,,,,,,,,,,,,,,,,,,,,,,,,,,,,,,,,,,
,,,,,,,,,,,,,,,90468,001,2022-04-29_12h08.20.832,SPAMnetsValid,2021.1.4,Win32,60.07088364,,,,,,,,,,,,,,,,,,,,,,,,,3,1.1384,0,17,17,17,1,firmament,foundation,heavens,strong,glue,2,,,,,,,,,,,,,,,,,,,,,,,,,,,,,,,,,,,,,,,,,,,,,
,,,,,,,,,,,,,,,90468,001,2022-04-29_12h08.20.832,SPAMnetsValid,2021.1.4,Win32,60.07088364,,,,,,,,,,,,,,,,,,,,,,,,,,,,,,,,,,,,,,4,0.8387,0,0,0,0,1,marketable,partisan,jocular,marriageable,salable,essential,4,,,,,,,,,,,,,,,,,,,,,,,,,,,,,,,
,,,,,,,,,,,,,,,90468,001,2022-04-29_12h08.20.832,SPAMnetsValid,2021.1.4,Win32,60.07088364,,,,,,,,,,,,,,,,,,,,,,,,,,,,,,,,,,,,,,3,1.0864,0,1,1,1,1,cottontail,squirrel,poplar,boa,marshy plant,rabbit,5,,,,,,,,,,,,,,,,,,,,,,,,,,,,,,,
,,,,,,,,,,,,,,,90468,001,2022-04-29_12h08.20.832,SPAMnetsValid,2021.1.4,Win32,60.07088364,,,,,,,,,,,,,,,,,,,,,,,,,,,,,,,,,,,,,,2,1.0123,0,2,2,2,1,boggy,afraid,false,marshy,dense,black,3,,,,,,,,,,,,,,,,,,,,,,,,,,,,,,,
,,,,,,,,,,,,,,,90468,001,2022-04-29_12h08.20.832,SPAMnetsValid,2021.1.4,Win32,60.07088364,,,,,,,,,,,,,,,,,,,,,,,,,,,,,,,,,,,,,,2,0.5561,0,3,3,3,1,gruesomeness,blackness,falseness,vindictiveness,drunkenness,ghastliness,5,,,,,,,,,,,,,,,,,,,,,,,,,,,,,,,
,,,,,,,,,,,,,,,90468,001,2022-04-29_12h08.20.832,SPAMnetsValid,2021.1.4,Win32,60.07088364,,,,,,,,,,,,,,,,,,,,,,,,,,,,,,,,,,,,,,2,0.3136,0,4,4,4,1,loathing,diffidence,laziness,abhorrence,cleverness,comfort,3,,,,,,,,,,,,,,,,,,,,,,,,,,,,,,,
,,,,,,,,,,,,,,,90468,001,2022-04-29_12h08.20.832,SPAMnetsValid,2021.1.4,Win32,60.07088364,,,,,,,,,,,,,,,,,,,,,,,,,,,,,,,,,,,,,,2,0.2367,0,5,5,5,1,bantam,fowl,ridicule,cripple,vegetable,ensign,1,,,,,,,,,,,,,,,,,,,,,,,,,,,,,,,
,,,,,,,,,,,,,,,90468,001,2022-04-29_12h08.20.832,SPAMnetsValid,2021.1.4,Win32,60.07088364,,,,,,,,,,,,,,,,,,,,,,,,,,,,,,,,,,,,,,2,0.213,0,6,6,6,1,evoke,wake up,surrender,reconnoiter,transcend,call forth,5,,,,,,,,,,,,,,,,,,,,,,,,,,,,,,,
,,,,,,,,,,,,,,,90468,001,2022-04-29_12h08.20.832,SPAMnetsValid,2021.1.4,Win32,60.07088364,,,,,,,,,,,,,,,,,,,,,,,,,,,,,,,,,,,,,,2,0.2159,0,7,7,7,1,unobtrusive,unintelligent,epileptic,illogical,lineal,modest,5,,,,,,,,,,,,,,,,,,,,,,,,,,,,,,,
,,,,,,,,,,,,,,,90468,001,2022-04-29_12h08.20.832,SPAMnetsValid,2021.1.4,Win32,60.07088364,,,,,,,,,,,,,,,,,,,,,,,,,,,,,,,,,,,,,,2,0.2033,0,8,8,8,1,terrain,ice cream,final test,tractor,area of ground,weight,4,,,,,,,,,,,,,,,,,,,,,,,,,,,,,,,
,,,,,,,,,,,,,,,90468,001,2022-04-29_12h08.20.832,SPAMnetsValid,2021.1.4,Win32,60.07088364,,,,,,,,,,,,,,,,,,,,,,,,,,,,,,,,,,,,,,2,0.3059,0,9,9,9,1,capriciousness,stubbornness,courage,whimsicality,amazement,greediness,3,,,,,,,,,,,,,,,,,,,,,,,,,,,,,,,
,,,,,,,,,,,,,,,90468,001,2022-04-29_12h08.20.832,SPAMnetsValid,2021.1.4,Win32,60.07088364,,,,,,,,,,,,,,,,,,,,,,,,,,,,,,,,,,,,,,1,1.0107,0,10,10,10,1,maelstrom,slander,whirlpool,enmity,armor,majolica,2,,,,,,,,,,,,,,,,,,,,,,,,,,,,,,,
,,,,,,,,,,,,,,,90468,001,2022-04-29_12h08.20.832,SPAMnetsValid,2021.1.4,Win32,60.07088364,,,,,,,,,,,,,,,,,,,,,,,,,,,,,,,,,,,,,,1,0.2801,0,11,11,11,1,tentative,critical,conclusive,authentic,provisional,apprehensive,4,,,,,,,,,,,,,,,,,,,,,,,,,,,,,,,
,,,,,,,,,,,,,,,90468,001,2022-04-29_12h08.20.832,SPAMnetsValid,2021.1.4,Win32,60.07088364,,,,,,,,,,,,,,,,,,,,,,,,,,,,,,,,,,,,,,1,0.224,0,12,12,12,1,placate,rehabilitate,plagiarize,depredate,apprise,conciliate,5,,,,,,,,,,,,,,,,,,,,,,,,,,,,,,,
,,,,,,,,,,,,,,,90468,001,2022-04-29_12h08.20.832,SPAMnetsValid,2021.1.4,Win32,60.07088364,,,,,,,,,,,,,,,,,,,,,,,,,,,,,,,,,,,,,,1,0.6722,0,13,13,13,1,surcease,enlightenment,cessation,inattention,censor,substitution,2,,,,,,,,,,,,,,,,,,,,,,,,,,,,,,,
,,,,,,,,,,,,,,,90468,001,2022-04-29_12h08.20.832,SPAMnetsValid,2021.1.4,Win32,60.07088364,,,,,,,,,,,,,,,,,,,,,,,,,,,,,,,,,,,,,,,,0,14,14,14,1,apathetic,wandering,impassive,hateful,prophetic,overflowing,2,,,,,,,,,,,,,,,,,,,,,,,,,,,,,,,
,,,,,,,,,,,,,,,90468,001,2022-04-29_12h08.20.832,SPAMnetsValid,2021.1.4,Win32,60.07088364,,,,,,,,,,,,,,,,,,,,,,,,,,,,,,,,,,,,,,1,0.58,0,15,15,15,1,paternoster,paternalism,patricide,malediction,benediction,prayer,5,,,,,,,,,,,,,,,,,,,,,,,,,,,,,,,
,,,,,,,,,,,,,,,90468,001,2022-04-29_12h08.20.832,SPAMnetsValid,2021.1.4,Win32,60.07088364,,,,,,,,,,,,,,,,,,,,,,,,,,,,,,,,,,,,,,1,1.2145,0,16,16,16,1,opalescence,opulence,senescence,bankruptcy,iridescence,assiduity,4,,,,,,,,,,,,,,,,,,,,,,,,,,,,,,,
,,,,,,,,,,,,,,,90468,001,2022-04-29_12h08.20.832,SPAMnetsValid,2021.1.4,Win32,60.07088364,,,,,,,,,,,,,,,,,,,,,,,,,,,,,,,,,,,,,,,,0,17,17,17,1,lush,stupid,luxurious,hazy,putrid,languishing,2,,,,,,,,,,,,,,,,,,,,,,,,,,,,,,,
,,,,,,,,,,,,,,,90468,001,2022-04-29_12h08.20.832,SPAMnetsValid,2021.1.4,Win32,60.07088364,,,,,,,,,,,,,,,,,,,,,,,,,,,,,,,,,,,,,,1,0.9755,0,18,18,18,1,curtailment,expenditure,abandonment,abridgment,improvement,forgery,3,,,,,,,,,,,,,,,,,,,,,,,,,,,,,,,
,,,,,,,,,,,,,,,90468,001,2022-04-29_12h08.20.832,SPAMnetsValid,2021.1.4,Win32,60.07088364,,,,,,,,,,,,,,,,,,,,,,,,,,,,,,,,,,,,,,1,1.0089,0,19,19,19,1,perversity,adversity,perviousness,travesty,waywardness,gentility,4,,,,,,,,,,,,,,,,,,,,,,,,,,,,,,,
,,,,,,,,,,,,,,,90468,001,2022-04-29_12h08.20.832,SPAMnetsValid,2021.1.4,Win32,60.07088364,,,,,,,,,,,,,,,,,,,,,,,,,,,,,,,,,,,,,,,,0,20,20,20,1,calumnious,complimentary,analogous,slanderous,tempestuous,magnanimous,3,,,,,,,,,,,,,,,,,,,,,,,,,,,,,,,
,,,,,,,,,,,,,,,90468,001,2022-04-29_12h08.20.832,SPAMnetsValid,2021.1.4,Win32,60.07088364,,,,,,,,,,,,,,,,,,,,,,,,,,,,,,,,,,,,,,1,0.6731,0,21,21,21,1,illiberality,bigotry,imbecility,illegibility,cautery,immaturity,1,,,,,,,,,,,,,,,,,,,,,,,,,,,,,,,
,,,,,,,,,,,,,,,90468,001,2022-04-29_12h08.20.832,SPAMnetsValid,2021.1.4,Win32,60.07088364,,,,,,,,,,,,,,,,,,,,,,,,,,,,,,,,,,,,,,1,0.9067,0,22,22,22,1,clabber,rejoice,gossip,curdle,crow,hobble,3,,,,,,,,,,,,,,,,,,,,,,,,,,,,,,,
,,,,,,,,,,,,,,,90468,001,2022-04-29_12h08.20.832,SPAMnetsValid,2021.1.4,Win32,60.07088364,,,,,,,,,,,,,,,,,,,,,,,,,,,,,,,,,,,,,,1,0.5968,0,23,23,23,1,sedulousness,diligence,credulousness,seduction,perilousness,frankness,1,,,,,,,,,,,,,,,,,,,,,,,,,,,,,,,
,,,,,,,,,,,,,,,90468,001,2022-04-29_12h08.20.832,SPAMnetsValid,2021.1.4,Win32,60.07088364,,,,,,,,,,,,,,,,,,,,,,,,,,,,,,,,,,,,,,,,,,,,,,,,,,,,0,0,0,0,1,bucket,,,,,,,,,,,,,,,,,,,,,,,,,
,,,,,,,,,,,,,,,90468,001,2022-04-29_12h08.20.832,SPAMnetsValid,2021.1.4,Win32,60.07088364,,,,,,,,,,,,,,,,,,,,,,,,,,,,,,,,,,,,,,,,,,,,,,,,,,,,0,1,1,2,1,pillow,,,,,,,,,,,,,,,,,,,,,,,,,
,,,,,,,,,,,,,,,90468,001,2022-04-29_12h08.20.832,SPAMnetsValid,2021.1.4,Win32,60.07088364,,,,,,,,,,,,,,,,,,,,,,,,,,,,,,,,,,,,,,,,,,,,,,,,,,,,0,2,2,1,1,candle,,,,,,,,,,,,,,,,,,,,,,,,,
,,,,,,,,,,,,,,,90468,001,2022-04-29_12h08.20.832,SPAMnetsValid,2021.1.4,Win32,60.07088364,,,,,,,,,,,,,,,,,,,,,,,,,,,,,,,,,,,,,,,,,,,,,,,,,,,,,,,,,,bear cat tiger lion panther horse seagul crow raven bear dog puppy humans zebra giraffe hippo snake  ,Animals,0,0,0,0,1,,,,,,,,,,,,,,,,,,
,,,,,,,,,,,,,,,90468,001,2022-04-29_12h08.20.832,SPAMnetsValid,2021.1.4,Win32,60.07088364,,,,,,,,,,,,,,,,,,,,,,,,,,,,,,,,,,,,,,,,,,,,,,,,,,,,,,,,,,,Animals,1,0,1,0,1,,,,,,,,,,,,,,,,,,
,,,,,,,,,,,,,,,90468,001,2022-04-29_12h08.20.832,SPAMnetsValid,2021.1.4,Win32,60.07088364,,,,,,,,,,,,,,,,,,,,,,,,,,,,,,,,,,,,,,,,,,,,,,,,,,,,,,,,,,cat,Animals,2,0,2,0,1,,,,,,,,,,,,,,,,,,
,,,,,,,,,,,,,,,90468,001,2022-04-29_12h08.20.832,SPAMnetsValid,2021.1.4,Win32,60.07088364,,,,,,,,,,,,,,,,,,,,,,,,,,,,,,,,,,,,,,,,,,,,,,,,,,,,,,,,,,gorilla,Animals,3,0,3,0,1,,,,,,,,,,,,,,,,,,
,,,,,,,,,,,,,,,90468,001,2022-04-29_12h08.20.832,SPAMnetsValid,2021.1.4,Win32,60.07088364,,,,,,,,,,,,,,,,,,,,,,,,,,,,,,,,,,,,,,,,,,,,,,,,,,,,,,,,,,mandarin,Animals,4,0,4,0,1,,,,,,,,,,,,,,,,,,
,,,,,,,,,,,,,,,90468,001,2022-04-29_12h08.20.832,SPAMnetsValid,2021.1.4,Win32,60.07088364,,,,,,,,,,,,,,,,,,,,,,,,,,,,,,,,,,,,,,,,,,,,,,,,,,,,,,,,,,,,,,,,,0,0,0,0,1,Animals,,,,,,,,,,,,
,,,,,,,,,,,,,,,90468,001,2022-04-29_12h08.20.832,SPAMnetsValid,2021.1.4,Win32,60.07088364,,,,,,,,,,,,,,,,,,,,,,,,,,,,,,,,,,,,,,,,,,,,,,,,,,,,,,,,,,,,,,,,,,,,,,,3,11.9227,0,0,0,0,1,"I enjoy concentrating on a fantasy or daydream and exploring all its possibilities, letting it grow and develop.",0,1,,
,,,,,,,,,,,,,,,90468,001,2022-04-29_12h08.20.832,SPAMnetsValid,2021.1.4,Win32,60.07088364,,,,,,,,,,,,,,,,,,,,,,,,,,,,,,,,,,,,,,,,,,,,,,,,,,,,,,,,,,,,,,,,,,,,,,,1,4.3904,0,1,1,1,1,I think it's interesting to learn and develop new hobbies.,0,2,,
,,,,,,,,,,,,,,,90468,001,2022-04-29_12h08.20.832,SPAMnetsValid,2021.1.4,Win32,60.07088364,,,,,,,,,,,,,,,,,,,,,,,,,,,,,,,,,,,,,,,,,,,,,,,,,,,,,,,,,,,,,,,,,,,,,,,1,2.1786,0,2,2,2,1,I am intrigued by the patterns I find in art and nature.,0,3,,
,,,,,,,,,,,,,,,90468,001,2022-04-29_12h08.20.832,SPAMnetsValid,2021.1.4,Win32,60.07088364,,,,,,,,,,,,,,,,,,,,,,,,,,,,,,,,,,,,,,,,,,,,,,,,,,,,,,,,,,,,,,,,,,,,,,,2,4.1876,0,3,3,3,1,I believe letting students hear controversial speakers can only confuse and mislead them.,1,4,,
,,,,,,,,,,,,,,,90468,001,2022-04-29_12h08.20.832,SPAMnetsValid,2021.1.4,Win32,60.07088364,,,,,,,,,,,,,,,,,,,,,,,,,,,,,,,,,,,,,,,,,,,,,,,,,,,,,,,,,,,,,,,,,,,,,,,2,2.4692,0,4,4,4,1,Poetry has little or no effect on me.,1,5,,
,,,,,,,,,,,,,,,90468,001,2022-04-29_12h08.20.832,SPAMnetsValid,2021.1.4,Win32,60.07088364,,,,,,,,,,,,,,,,,,,,,,,,,,,,,,,,,,,,,,,,,,,,,,,,,,,,,,,,,,,,,,,,,,,,,,,3,4.1003,0,5,5,5,1,I would have difficulty just letting my mind wander without control or guidance.,1,6,,
,,,,,,,,,,,,,,,90468,001,2022-04-29_12h08.20.832,SPAMnetsValid,2021.1.4,Win32,60.07088364,,,,,,,,,,,,,,,,,,,,,,,,,,,,,,,,,,,,,,,,,,,,,,,,,,,,,,,,,,,,,,,,,,,,,,,3,0.7525,0,6,6,6,1,I seldom notice the moods or feelings that different environments produce.,1,7,,
,,,,,,,,,,,,,,,90468,001,2022-04-29_12h08.20.832,SPAMnetsValid,2021.1.4,Win32,60.07088364,,,,,,,,,,,,,,,,,,,,,,,,,,,,,,,,,,,,,,,,,,,,,,,,,,,,,,,,,,,,,,,,,,,,,,,3,0.6142,0,7,7,7,1,I experience a wide range of emotions or feelings.,0,8,,
,,,,,,,,,,,,,,,90468,001,2022-04-29_12h08.20.832,SPAMnetsValid,2021.1.4,Win32,60.07088364,,,,,,,,,,,,,,,,,,,,,,,,,,,,,,,,,,,,,,,,,,,,,,,,,,,,,,,,,,,,,,,,,,,,,,,3,0.2377,0,8,8,8,1,"Sometimes when I am reading poetry or looking at a work of art, I feel a chill or wave of excitement.",0,9,,
,,,,,,,,,,,,,,,90468,001,2022-04-29_12h08.20.832,SPAMnetsValid,2021.1.4,Win32,60.07088364,,,,,,,,,,,,,,,,,,,,,,,,,,,,,,,,,,,,,,,,,,,,,,,,,,,,,,,,,,,,,,,,,,,,,,,3,0.6656,0,9,9,9,1,I have little interest in speculating on the nature of the universe or the human condition.,1,10,,
,,,,,,,,,,,,,,,90468,001,2022-04-29_12h08.20.832,SPAMnetsValid,2021.1.4,Win32,60.07088364,,,,,,,,,,,,,,,,,,,,,,,,,,,,,,,,,,,,,,,,,,,,,,,,,,,,,,,,,,,,,,,,,,,,,,,3,0.1887,0,10,10,10,1,I have a lot of intellectual curiosity.,0,11,,
,,,,,,,,,,,,,,,90468,001,2022-04-29_12h08.20.832,SPAMnetsValid,2021.1.4,Win32,60.07088364,,,,,,,,,,,,,,,,,,,,,,,,,,,,,,,,,,,,,,,,,,,,,,,,,,,,,,,,,,,,,,,,,,,,,,,3,0.1706,0,11,11,11,1,I often enjoy playing with theories or abstract ideas.,0,12,,
,,,,,,,,,,,,,,,90468,001,2022-04-29_12h08.20.832,SPAMnetsValid,2021.1.4,Win32,60.07088364,,,,,,,,,,,,,,,,,,,,,,,,,,,,,,,,,,,,,,,,,,,,,,,,,,,,,,,,,,,,,,,,,,,,,,,,,,,,,,,,,return,8.6148
