key_resp_3.keys,key_resp_3.rt,slider_2.response,slider_2.rt,rjt_rating,rjt_RT,trials_24.thisRepN,trials_24.thisTrialN,trials_24.thisN,trials_24.thisIndex,trials_24.ran,rjt_order,word1,word2,attention,participant,session,date,expName,psychopyVersion,OS,frameRate,trials_4.thisRepN,trials_4.thisTrialN,trials_4.thisN,trials_4.thisIndex,trials_4.ran,trials_5.thisRepN,trials_5.thisTrialN,trials_5.thisN,trials_5.thisIndex,trials_5.ran,repOne,repTwo,slider.response,slider.rt,trials_22.thisRepN,trials_22.thisTrialN,trials_22.thisN,trials_22.thisIndex,trials_22.ran,trials_99.thisRepN,trials_99.thisTrialN,trials_99.thisN,trials_99.thisIndex,trials_99.ran,slider_extend_2.response,slider_extend_2.rt,trials_6.thisRepN,trials_6.thisTrialN,trials_6.thisN,trials_6.thisIndex,trials_6.ran,vCue2,R1,R2,R3,R4,correct,sliderVocab.response,sliderVocab.rt,trials_7.thisRepN,trials_7.thisTrialN,trials_7.thisN,trials_7.thisIndex,trials_7.ran,VocabCue,VR1,VR2,VR3,VR4,VR5,VocabCorrect,AUT_resp,AUT_label,trials.thisRepN,trials.thisTrialN,trials.thisN,trials.thisIndex,trials.ran,trials_2.thisRepN,trials_2.thisTrialN,trials_2.thisN,trials_2.thisIndex,trials_2.ran,aut_prompt,VF_response,VF_tag,trials_16.thisRepN,trials_16.thisTrialN,trials_16.thisN,trials_16.thisIndex,trials_16.ran,trials_17.thisRepN,trials_17.thisTrialN,trials_17.thisN,trials_17.thisIndex,trials_17.ran,VFcond,open_slider.response,open_slider.rt,trials_3.thisRepN,trials_3.thisTrialN,trials_3.thisN,trials_3.thisIndex,trials_3.ran,OpenQ,Rev,OPEN_ORDER,key_resp_2.keys,key_resp_2.rt
return,10.1556,1,12.7446,1,12.7446,0,0,0,13,1,105,cactus,oven,,90483,001,2022-04-28_22h09.21.949,SPAMnetsValid,2021.1.4,MacIntel,59.99520038,,,,,,,,,,,,,,,,,,,,,,,,,,,,,,,,,,,,,,,,,,,,,,,,,,,,,,,,,,,,,,,,,,,,,,,,,,,,,,,,,,,,,,,,,
,,1,1.5378,1,1.5378,0,1,1,50,1,126,kitchen,tree,,90483,001,2022-04-28_22h09.21.949,SPAMnetsValid,2021.1.4,MacIntel,59.99520038,,,,,,,,,,,,,,,,,,,,,,,,,,,,,,,,,,,,,,,,,,,,,,,,,,,,,,,,,,,,,,,,,,,,,,,,,,,,,,,,,,,,,,,,,
,,7,2.392,7,2.392,0,2,2,19,1,183,cake,rose,,90483,001,2022-04-28_22h09.21.949,SPAMnetsValid,2021.1.4,MacIntel,59.99520038,,,,,,,,,,,,,,,,,,,,,,,,,,,,,,,,,,,,,,,,,,,,,,,,,,,,,,,,,,,,,,,,,,,,,,,,,,,,,,,,,,,,,,,,,
,,9,1.5728,9,1.5728,0,3,3,48,1,186,kitchen,yogurt,,90483,001,2022-04-28_22h09.21.949,SPAMnetsValid,2021.1.4,MacIntel,59.99520038,,,,,,,,,,,,,,,,,,,,,,,,,,,,,,,,,,,,,,,,,,,,,,,,,,,,,,,,,,,,,,,,,,,,,,,,,,,,,,,,,,,,,,,,,
,,1,1.8212,1,1.8212,0,4,4,80,1,146,pretzel,tree,,90483,001,2022-04-28_22h09.21.949,SPAMnetsValid,2021.1.4,MacIntel,59.99520038,,,,,,,,,,,,,,,,,,,,,,,,,,,,,,,,,,,,,,,,,,,,,,,,,,,,,,,,,,,,,,,,,,,,,,,,,,,,,,,,,,,,,,,,,
,,8,2.1874,8,2.1874,0,5,5,6,1,151,microwave,onion,,90483,001,2022-04-28_22h09.21.949,SPAMnetsValid,2021.1.4,MacIntel,59.99520038,,,,,,,,,,,,,,,,,,,,,,,,,,,,,,,,,,,,,,,,,,,,,,,,,,,,,,,,,,,,,,,,,,,,,,,,,,,,,,,,,,,,,,,,,
,,8,2.1232,8,2.1232,0,6,6,39,1,112,cake,carrot,,90483,001,2022-04-28_22h09.21.949,SPAMnetsValid,2021.1.4,MacIntel,59.99520038,,,,,,,,,,,,,,,,,,,,,,,,,,,,,,,,,,,,,,,,,,,,,,,,,,,,,,,,,,,,,,,,,,,,,,,,,,,,,,,,,,,,,,,,,
,,9,2.3217,9,2.3217,0,7,7,18,1,119,strawberry,tree,,90483,001,2022-04-28_22h09.21.949,SPAMnetsValid,2021.1.4,MacIntel,59.99520038,,,,,,,,,,,,,,,,,,,,,,,,,,,,,,,,,,,,,,,,,,,,,,,,,,,,,,,,,,,,,,,,,,,,,,,,,,,,,,,,,,,,,,,,,
,,4,1.9405,4,1.9405,0,8,8,81,1,104,garden,microwave,,90483,001,2022-04-28_22h09.21.949,SPAMnetsValid,2021.1.4,MacIntel,59.99520038,,,,,,,,,,,,,,,,,,,,,,,,,,,,,,,,,,,,,,,,,,,,,,,,,,,,,,,,,,,,,,,,,,,,,,,,,,,,,,,,,,,,,,,,,
,,9,1.6742,9,1.6742,0,9,9,10,1,118,chocolate,oven,,90483,001,2022-04-28_22h09.21.949,SPAMnetsValid,2021.1.4,MacIntel,59.99520038,,,,,,,,,,,,,,,,,,,,,,,,,,,,,,,,,,,,,,,,,,,,,,,,,,,,,,,,,,,,,,,,,,,,,,,,,,,,,,,,,,,,,,,,,
,,9,1.99,9,1.99,0,10,10,51,1,168,cactus,flower,,90483,001,2022-04-28_22h09.21.949,SPAMnetsValid,2021.1.4,MacIntel,59.99520038,,,,,,,,,,,,,,,,,,,,,,,,,,,,,,,,,,,,,,,,,,,,,,,,,,,,,,,,,,,,,,,,,,,,,,,,,,,,,,,,,,,,,,,,,
,,9,1.6041,9,1.6041,0,11,11,43,1,185,cactus,rose,,90483,001,2022-04-28_22h09.21.949,SPAMnetsValid,2021.1.4,MacIntel,59.99520038,,,,,,,,,,,,,,,,,,,,,,,,,,,,,,,,,,,,,,,,,,,,,,,,,,,,,,,,,,,,,,,,,,,,,,,,,,,,,,,,,,,,,,,,,
,,2,1.5409,2,1.5409,0,12,12,55,1,143,pretzel,rose,,90483,001,2022-04-28_22h09.21.949,SPAMnetsValid,2021.1.4,MacIntel,59.99520038,,,,,,,,,,,,,,,,,,,,,,,,,,,,,,,,,,,,,,,,,,,,,,,,,,,,,,,,,,,,,,,,,,,,,,,,,,,,,,,,,,,,,,,,,
,,9,1.7073,9,1.7073,0,13,13,66,1,150,microwave,refrigerator,,90483,001,2022-04-28_22h09.21.949,SPAMnetsValid,2021.1.4,MacIntel,59.99520038,,,,,,,,,,,,,,,,,,,,,,,,,,,,,,,,,,,,,,,,,,,,,,,,,,,,,,,,,,,,,,,,,,,,,,,,,,,,,,,,,,,,,,,,,
,,9,1.7574,9,1.7574,0,14,14,70,1,141,melon,tomato,,90483,001,2022-04-28_22h09.21.949,SPAMnetsValid,2021.1.4,MacIntel,59.99520038,,,,,,,,,,,,,,,,,,,,,,,,,,,,,,,,,,,,,,,,,,,,,,,,,,,,,,,,,,,,,,,,,,,,,,,,,,,,,,,,,,,,,,,,,
,,1,1.9222,1,1.9222,0,15,15,54,1,101,cactus,kitchen,,90483,001,2022-04-28_22h09.21.949,SPAMnetsValid,2021.1.4,MacIntel,59.99520038,,,,,,,,,,,,,,,,,,,,,,,,,,,,,,,,,,,,,,,,,,,,,,,,,,,,,,,,,,,,,,,,,,,,,,,,,,,,,,,,,,,,,,,,,
,,7,1.8743,7,1.8743,0,16,16,9,1,176,cactus,tomato,,90483,001,2022-04-28_22h09.21.949,SPAMnetsValid,2021.1.4,MacIntel,59.99520038,,,,,,,,,,,,,,,,,,,,,,,,,,,,,,,,,,,,,,,,,,,,,,,,,,,,,,,,,,,,,,,,,,,,,,,,,,,,,,,,,,,,,,,,,
,,9,1.5543,9,1.5543,0,17,17,60,1,122,flower,garden,,90483,001,2022-04-28_22h09.21.949,SPAMnetsValid,2021.1.4,MacIntel,59.99520038,,,,,,,,,,,,,,,,,,,,,,,,,,,,,,,,,,,,,,,,,,,,,,,,,,,,,,,,,,,,,,,,,,,,,,,,,,,,,,,,,,,,,,,,,
,,3,1.5885,3,1.5885,0,18,18,74,1,128,melon,microwave,,90483,001,2022-04-28_22h09.21.949,SPAMnetsValid,2021.1.4,MacIntel,59.99520038,,,,,,,,,,,,,,,,,,,,,,,,,,,,,,,,,,,,,,,,,,,,,,,,,,,,,,,,,,,,,,,,,,,,,,,,,,,,,,,,,,,,,,,,,
,,2,1.5065,2,1.5065,0,19,19,67,1,96,oven,strawberry,,90483,001,2022-04-28_22h09.21.949,SPAMnetsValid,2021.1.4,MacIntel,59.99520038,,,,,,,,,,,,,,,,,,,,,,,,,,,,,,,,,,,,,,,,,,,,,,,,,,,,,,,,,,,,,,,,,,,,,,,,,,,,,,,,,,,,,,,,,
,,9,1.8049,9,1.8049,0,20,20,35,1,147,cake,refrigerator,,90483,001,2022-04-28_22h09.21.949,SPAMnetsValid,2021.1.4,MacIntel,59.99520038,,,,,,,,,,,,,,,,,,,,,,,,,,,,,,,,,,,,,,,,,,,,,,,,,,,,,,,,,,,,,,,,,,,,,,,,,,,,,,,,,,,,,,,,,
,,3,1.5739,3,1.5739,0,21,21,79,1,103,pretzel,tomato,,90483,001,2022-04-28_22h09.21.949,SPAMnetsValid,2021.1.4,MacIntel,59.99520038,,,,,,,,,,,,,,,,,,,,,,,,,,,,,,,,,,,,,,,,,,,,,,,,,,,,,,,,,,,,,,,,,,,,,,,,,,,,,,,,,,,,,,,,,
,,3,1.6399,3,1.6399,0,22,22,41,1,175,melon,onion,,90483,001,2022-04-28_22h09.21.949,SPAMnetsValid,2021.1.4,MacIntel,59.99520038,,,,,,,,,,,,,,,,,,,,,,,,,,,,,,,,,,,,,,,,,,,,,,,,,,,,,,,,,,,,,,,,,,,,,,,,,,,,,,,,,,,,,,,,,
,,7,1.4068,7,1.4068,0,23,23,47,1,167,carrot,garden,,90483,001,2022-04-28_22h09.21.949,SPAMnetsValid,2021.1.4,MacIntel,59.99520038,,,,,,,,,,,,,,,,,,,,,,,,,,,,,,,,,,,,,,,,,,,,,,,,,,,,,,,,,,,,,,,,,,,,,,,,,,,,,,,,,,,,,,,,,
,,9,1.6578,9,1.6578,0,24,24,12,1,162,microwave,tomato,,90483,001,2022-04-28_22h09.21.949,SPAMnetsValid,2021.1.4,MacIntel,59.99520038,,,,,,,,,,,,,,,,,,,,,,,,,,,,,,,,,,,,,,,,,,,,,,,,,,,,,,,,,,,,,,,,,,,,,,,,,,,,,,,,,,,,,,,,,
,,3,2.9075,3,2.9075,0,25,25,62,1,189,onion,tree,,90483,001,2022-04-28_22h09.21.949,SPAMnetsValid,2021.1.4,MacIntel,59.99520038,,,,,,,,,,,,,,,,,,,,,,,,,,,,,,,,,,,,,,,,,,,,,,,,,,,,,,,,,,,,,,,,,,,,,,,,,,,,,,,,,,,,,,,,,
,,9,1.3063,9,1.3063,0,26,26,89,1,140,cookie,refrigerator,,90483,001,2022-04-28_22h09.21.949,SPAMnetsValid,2021.1.4,MacIntel,59.99520038,,,,,,,,,,,,,,,,,,,,,,,,,,,,,,,,,,,,,,,,,,,,,,,,,,,,,,,,,,,,,,,,,,,,,,,,,,,,,,,,,,,,,,,,,
,,9,1.3898,9,1.3898,0,27,27,38,1,155,carrot,cookie,,90483,001,2022-04-28_22h09.21.949,SPAMnetsValid,2021.1.4,MacIntel,59.99520038,,,,,,,,,,,,,,,,,,,,,,,,,,,,,,,,,,,,,,,,,,,,,,,,,,,,,,,,,,,,,,,,,,,,,,,,,,,,,,,,,,,,,,,,,
,,3,3.0375,3,3.0375,0,28,28,82,1,98,pretzel,strawberry,,90483,001,2022-04-28_22h09.21.949,SPAMnetsValid,2021.1.4,MacIntel,59.99520038,,,,,,,,,,,,,,,,,,,,,,,,,,,,,,,,,,,,,,,,,,,,,,,,,,,,,,,,,,,,,,,,,,,,,,,,,,,,,,,,,,,,,,,,,
,,7,3.4745,7,3.4745,0,29,29,45,1,179,broom,oven,,90483,001,2022-04-28_22h09.21.949,SPAMnetsValid,2021.1.4,MacIntel,59.99520038,,,,,,,,,,,,,,,,,,,,,,,,,,,,,,,,,,,,,,,,,,,,,,,,,,,,,,,,,,,,,,,,,,,,,,,,,,,,,,,,,,,,,,,,,
,,9,1.741,9,1.741,0,30,30,32,1,182,flower,refrigerator,,90483,001,2022-04-28_22h09.21.949,SPAMnetsValid,2021.1.4,MacIntel,59.99520038,,,,,,,,,,,,,,,,,,,,,,,,,,,,,,,,,,,,,,,,,,,,,,,,,,,,,,,,,,,,,,,,,,,,,,,,,,,,,,,,,,,,,,,,,
,,1,1.6072,1,1.6072,0,31,31,58,1,144,cake,garden,,90483,001,2022-04-28_22h09.21.949,SPAMnetsValid,2021.1.4,MacIntel,59.99520038,,,,,,,,,,,,,,,,,,,,,,,,,,,,,,,,,,,,,,,,,,,,,,,,,,,,,,,,,,,,,,,,,,,,,,,,,,,,,,,,,,,,,,,,,
,,9,2.206,9,2.206,0,32,32,86,1,193,melon,melon,CHECK,90483,001,2022-04-28_22h09.21.949,SPAMnetsValid,2021.1.4,MacIntel,59.99520038,,,,,,,,,,,,,,,,,,,,,,,,,,,,,,,,,,,,,,,,,,,,,,,,,,,,,,,,,,,,,,,,,,,,,,,,,,,,,,,,,,,,,,,,,
,,9,1.7727,9,1.7727,0,33,33,69,1,124,oven,refrigerator,,90483,001,2022-04-28_22h09.21.949,SPAMnetsValid,2021.1.4,MacIntel,59.99520038,,,,,,,,,,,,,,,,,,,,,,,,,,,,,,,,,,,,,,,,,,,,,,,,,,,,,,,,,,,,,,,,,,,,,,,,,,,,,,,,,,,,,,,,,
,,9,1.8556,9,1.8556,0,34,34,56,1,113,refrigerator,strawberry,,90483,001,2022-04-28_22h09.21.949,SPAMnetsValid,2021.1.4,MacIntel,59.99520038,,,,,,,,,,,,,,,,,,,,,,,,,,,,,,,,,,,,,,,,,,,,,,,,,,,,,,,,,,,,,,,,,,,,,,,,,,,,,,,,,,,,,,,,,
,,2,1.3563,2,1.3563,0,35,35,95,1,121,broom,microwave,,90483,001,2022-04-28_22h09.21.949,SPAMnetsValid,2021.1.4,MacIntel,59.99520038,,,,,,,,,,,,,,,,,,,,,,,,,,,,,,,,,,,,,,,,,,,,,,,,,,,,,,,,,,,,,,,,,,,,,,,,,,,,,,,,,,,,,,,,,
,,3,2.8232,3,2.8232,0,36,36,40,1,165,onion,rose,,90483,001,2022-04-28_22h09.21.949,SPAMnetsValid,2021.1.4,MacIntel,59.99520038,,,,,,,,,,,,,,,,,,,,,,,,,,,,,,,,,,,,,,,,,,,,,,,,,,,,,,,,,,,,,,,,,,,,,,,,,,,,,,,,,,,,,,,,,
,,7,1.4209,7,1.4209,0,37,37,28,1,154,strawberry,yogurt,,90483,001,2022-04-28_22h09.21.949,SPAMnetsValid,2021.1.4,MacIntel,59.99520038,,,,,,,,,,,,,,,,,,,,,,,,,,,,,,,,,,,,,,,,,,,,,,,,,,,,,,,,,,,,,,,,,,,,,,,,,,,,,,,,,,,,,,,,,
,,9,1.6197,9,1.6197,0,38,38,22,1,142,garden,tree,,90483,001,2022-04-28_22h09.21.949,SPAMnetsValid,2021.1.4,MacIntel,59.99520038,,,,,,,,,,,,,,,,,,,,,,,,,,,,,,,,,,,,,,,,,,,,,,,,,,,,,,,,,,,,,,,,,,,,,,,,,,,,,,,,,,,,,,,,,
,,9,1.7578,9,1.7578,0,39,39,33,1,131,cactus,garden,,90483,001,2022-04-28_22h09.21.949,SPAMnetsValid,2021.1.4,MacIntel,59.99520038,,,,,,,,,,,,,,,,,,,,,,,,,,,,,,,,,,,,,,,,,,,,,,,,,,,,,,,,,,,,,,,,,,,,,,,,,,,,,,,,,,,,,,,,,
,,9,1.2091,9,1.2091,0,40,40,75,1,178,cactus,carrot,,90483,001,2022-04-28_22h09.21.949,SPAMnetsValid,2021.1.4,MacIntel,59.99520038,,,,,,,,,,,,,,,,,,,,,,,,,,,,,,,,,,,,,,,,,,,,,,,,,,,,,,,,,,,,,,,,,,,,,,,,,,,,,,,,,,,,,,,,,
,,9,1.3567,9,1.3567,0,41,41,36,1,161,kitchen,pretzel,,90483,001,2022-04-28_22h09.21.949,SPAMnetsValid,2021.1.4,MacIntel,59.99520038,,,,,,,,,,,,,,,,,,,,,,,,,,,,,,,,,,,,,,,,,,,,,,,,,,,,,,,,,,,,,,,,,,,,,,,,,,,,,,,,,,,,,,,,,
,,9,2.0065,9,2.0065,0,42,42,83,1,100,garden,tomato,,90483,001,2022-04-28_22h09.21.949,SPAMnetsValid,2021.1.4,MacIntel,59.99520038,,,,,,,,,,,,,,,,,,,,,,,,,,,,,,,,,,,,,,,,,,,,,,,,,,,,,,,,,,,,,,,,,,,,,,,,,,,,,,,,,,,,,,,,,
,,8,1.5399,8,1.5399,0,43,43,94,1,133,cake,flower,,90483,001,2022-04-28_22h09.21.949,SPAMnetsValid,2021.1.4,MacIntel,59.99520038,,,,,,,,,,,,,,,,,,,,,,,,,,,,,,,,,,,,,,,,,,,,,,,,,,,,,,,,,,,,,,,,,,,,,,,,,,,,,,,,,,,,,,,,,
,,9,3.1415,9,3.1415,0,44,44,44,1,116,cake,chocolate,,90483,001,2022-04-28_22h09.21.949,SPAMnetsValid,2021.1.4,MacIntel,59.99520038,,,,,,,,,,,,,,,,,,,,,,,,,,,,,,,,,,,,,,,,,,,,,,,,,,,,,,,,,,,,,,,,,,,,,,,,,,,,,,,,,,,,,,,,,
,,8,1.3395,8,1.3395,0,45,45,61,1,138,flower,rose,,90483,001,2022-04-28_22h09.21.949,SPAMnetsValid,2021.1.4,MacIntel,59.99520038,,,,,,,,,,,,,,,,,,,,,,,,,,,,,,,,,,,,,,,,,,,,,,,,,,,,,,,,,,,,,,,,,,,,,,,,,,,,,,,,,,,,,,,,,
,,1,2.6714,1,2.6714,0,46,46,59,1,164,cookie,garden,,90483,001,2022-04-28_22h09.21.949,SPAMnetsValid,2021.1.4,MacIntel,59.99520038,,,,,,,,,,,,,,,,,,,,,,,,,,,,,,,,,,,,,,,,,,,,,,,,,,,,,,,,,,,,,,,,,,,,,,,,,,,,,,,,,,,,,,,,,
,,2,2.3397,2,2.3397,0,47,47,78,1,132,broom,tree,,90483,001,2022-04-28_22h09.21.949,SPAMnetsValid,2021.1.4,MacIntel,59.99520038,,,,,,,,,,,,,,,,,,,,,,,,,,,,,,,,,,,,,,,,,,,,,,,,,,,,,,,,,,,,,,,,,,,,,,,,,,,,,,,,,,,,,,,,,
,,7,1.9404,7,1.9404,0,48,48,91,1,166,cake,yogurt,,90483,001,2022-04-28_22h09.21.949,SPAMnetsValid,2021.1.4,MacIntel,59.99520038,,,,,,,,,,,,,,,,,,,,,,,,,,,,,,,,,,,,,,,,,,,,,,,,,,,,,,,,,,,,,,,,,,,,,,,,,,,,,,,,,,,,,,,,,
,,8,1.2582,8,1.2582,0,49,49,72,1,181,carrot,kitchen,,90483,001,2022-04-28_22h09.21.949,SPAMnetsValid,2021.1.4,MacIntel,59.99520038,,,,,,,,,,,,,,,,,,,,,,,,,,,,,,,,,,,,,,,,,,,,,,,,,,,,,,,,,,,,,,,,,,,,,,,,,,,,,,,,,,,,,,,,,
,,8,1.2071,8,1.2071,0,50,50,14,1,120,microwave,oven,,90483,001,2022-04-28_22h09.21.949,SPAMnetsValid,2021.1.4,MacIntel,59.99520038,,,,,,,,,,,,,,,,,,,,,,,,,,,,,,,,,,,,,,,,,,,,,,,,,,,,,,,,,,,,,,,,,,,,,,,,,,,,,,,,,,,,,,,,,
,,7,2.2705,7,2.2705,0,51,51,11,1,117,melon,strawberry,,90483,001,2022-04-28_22h09.21.949,SPAMnetsValid,2021.1.4,MacIntel,59.99520038,,,,,,,,,,,,,,,,,,,,,,,,,,,,,,,,,,,,,,,,,,,,,,,,,,,,,,,,,,,,,,,,,,,,,,,,,,,,,,,,,,,,,,,,,
,,8,1.3068,8,1.3068,0,52,52,53,1,177,chocolate,strawberry,,90483,001,2022-04-28_22h09.21.949,SPAMnetsValid,2021.1.4,MacIntel,59.99520038,,,,,,,,,,,,,,,,,,,,,,,,,,,,,,,,,,,,,,,,,,,,,,,,,,,,,,,,,,,,,,,,,,,,,,,,,,,,,,,,,,,,,,,,,
,,3,1.7885,3,1.7885,0,53,53,26,1,107,rose,tomato,,90483,001,2022-04-28_22h09.21.949,SPAMnetsValid,2021.1.4,MacIntel,59.99520038,,,,,,,,,,,,,,,,,,,,,,,,,,,,,,,,,,,,,,,,,,,,,,,,,,,,,,,,,,,,,,,,,,,,,,,,,,,,,,,,,,,,,,,,,
,,1,1.7064,1,1.7064,0,54,54,68,1,180,tree,yogurt,,90483,001,2022-04-28_22h09.21.949,SPAMnetsValid,2021.1.4,MacIntel,59.99520038,,,,,,,,,,,,,,,,,,,,,,,,,,,,,,,,,,,,,,,,,,,,,,,,,,,,,,,,,,,,,,,,,,,,,,,,,,,,,,,,,,,,,,,,,
,,9,1.6231,9,1.6231,0,55,55,92,1,170,cookie,microwave,,90483,001,2022-04-28_22h09.21.949,SPAMnetsValid,2021.1.4,MacIntel,59.99520038,,,,,,,,,,,,,,,,,,,,,,,,,,,,,,,,,,,,,,,,,,,,,,,,,,,,,,,,,,,,,,,,,,,,,,,,,,,,,,,,,,,,,,,,,
,,3,2.0541,3,2.0541,0,56,56,3,1,129,cactus,refrigerator,,90483,001,2022-04-28_22h09.21.949,SPAMnetsValid,2021.1.4,MacIntel,59.99520038,,,,,,,,,,,,,,,,,,,,,,,,,,,,,,,,,,,,,,,,,,,,,,,,,,,,,,,,,,,,,,,,,,,,,,,,,,,,,,,,,,,,,,,,,
,,3,1.5221,3,1.5221,0,57,57,2,1,174,cake,pretzel,,90483,001,2022-04-28_22h09.21.949,SPAMnetsValid,2021.1.4,MacIntel,59.99520038,,,,,,,,,,,,,,,,,,,,,,,,,,,,,,,,,,,,,,,,,,,,,,,,,,,,,,,,,,,,,,,,,,,,,,,,,,,,,,,,,,,,,,,,,
,,3,1.3728,3,1.3728,0,58,58,34,1,153,carrot,pretzel,,90483,001,2022-04-28_22h09.21.949,SPAMnetsValid,2021.1.4,MacIntel,59.99520038,,,,,,,,,,,,,,,,,,,,,,,,,,,,,,,,,,,,,,,,,,,,,,,,,,,,,,,,,,,,,,,,,,,,,,,,,,,,,,,,,,,,,,,,,
,,2,1.6716,2,1.6716,0,59,59,24,1,169,onion,yogurt,,90483,001,2022-04-28_22h09.21.949,SPAMnetsValid,2021.1.4,MacIntel,59.99520038,,,,,,,,,,,,,,,,,,,,,,,,,,,,,,,,,,,,,,,,,,,,,,,,,,,,,,,,,,,,,,,,,,,,,,,,,,,,,,,,,,,,,,,,,
,,8,1.5216,8,1.5216,0,60,60,1,1,173,kitchen,tomato,,90483,001,2022-04-28_22h09.21.949,SPAMnetsValid,2021.1.4,MacIntel,59.99520038,,,,,,,,,,,,,,,,,,,,,,,,,,,,,,,,,,,,,,,,,,,,,,,,,,,,,,,,,,,,,,,,,,,,,,,,,,,,,,,,,,,,,,,,,
,,9,1.2225,9,1.2225,0,61,61,96,1,136,chocolate,microwave,,90483,001,2022-04-28_22h09.21.949,SPAMnetsValid,2021.1.4,MacIntel,59.99520038,,,,,,,,,,,,,,,,,,,,,,,,,,,,,,,,,,,,,,,,,,,,,,,,,,,,,,,,,,,,,,,,,,,,,,,,,,,,,,,,,,,,,,,,,
,,7,1.3079,7,1.3079,0,62,62,16,1,111,carrot,microwave,,90483,001,2022-04-28_22h09.21.949,SPAMnetsValid,2021.1.4,MacIntel,59.99520038,,,,,,,,,,,,,,,,,,,,,,,,,,,,,,,,,,,,,,,,,,,,,,,,,,,,,,,,,,,,,,,,,,,,,,,,,,,,,,,,,,,,,,,,,
,,9,1.5729,9,1.5729,0,63,63,29,1,163,melon,refrigerator,,90483,001,2022-04-28_22h09.21.949,SPAMnetsValid,2021.1.4,MacIntel,59.99520038,,,,,,,,,,,,,,,,,,,,,,,,,,,,,,,,,,,,,,,,,,,,,,,,,,,,,,,,,,,,,,,,,,,,,,,,,,,,,,,,,,,,,,,,,
,,4,2.7906,4,2.7906,0,64,64,5,1,108,carrot,chocolate,,90483,001,2022-04-28_22h09.21.949,SPAMnetsValid,2021.1.4,MacIntel,59.99520038,,,,,,,,,,,,,,,,,,,,,,,,,,,,,,,,,,,,,,,,,,,,,,,,,,,,,,,,,,,,,,,,,,,,,,,,,,,,,,,,,,,,,,,,,
,,7,1.7907,7,1.7907,0,65,65,90,1,190,microwave,strawberry,,90483,001,2022-04-28_22h09.21.949,SPAMnetsValid,2021.1.4,MacIntel,59.99520038,,,,,,,,,,,,,,,,,,,,,,,,,,,,,,,,,,,,,,,,,,,,,,,,,,,,,,,,,,,,,,,,,,,,,,,,,,,,,,,,,,,,,,,,,
,,9,1.358,9,1.358,0,66,66,25,1,194,cactus,cactus,CHECK,90483,001,2022-04-28_22h09.21.949,SPAMnetsValid,2021.1.4,MacIntel,59.99520038,,,,,,,,,,,,,,,,,,,,,,,,,,,,,,,,,,,,,,,,,,,,,,,,,,,,,,,,,,,,,,,,,,,,,,,,,,,,,,,,,,,,,,,,,
,,3,1.6736,3,1.6736,0,67,67,57,1,127,cactus,chocolate,,90483,001,2022-04-28_22h09.21.949,SPAMnetsValid,2021.1.4,MacIntel,59.99520038,,,,,,,,,,,,,,,,,,,,,,,,,,,,,,,,,,,,,,,,,,,,,,,,,,,,,,,,,,,,,,,,,,,,,,,,,,,,,,,,,,,,,,,,,
,,3,2.4379,3,2.4379,0,68,68,31,1,156,melon,rose,,90483,001,2022-04-28_22h09.21.949,SPAMnetsValid,2021.1.4,MacIntel,59.99520038,,,,,,,,,,,,,,,,,,,,,,,,,,,,,,,,,,,,,,,,,,,,,,,,,,,,,,,,,,,,,,,,,,,,,,,,,,,,,,,,,,,,,,,,,
,,8,1.3061,8,1.3061,0,69,69,85,1,115,refrigerator,tomato,,90483,001,2022-04-28_22h09.21.949,SPAMnetsValid,2021.1.4,MacIntel,59.99520038,,,,,,,,,,,,,,,,,,,,,,,,,,,,,,,,,,,,,,,,,,,,,,,,,,,,,,,,,,,,,,,,,,,,,,,,,,,,,,,,,,,,,,,,,
,,2,1.64,2,1.64,0,70,70,4,1,109,broom,strawberry,,90483,001,2022-04-28_22h09.21.949,SPAMnetsValid,2021.1.4,MacIntel,59.99520038,,,,,,,,,,,,,,,,,,,,,,,,,,,,,,,,,,,,,,,,,,,,,,,,,,,,,,,,,,,,,,,,,,,,,,,,,,,,,,,,,,,,,,,,,
,,8,1.4753,8,1.4753,0,71,71,37,1,139,carrot,strawberry,,90483,001,2022-04-28_22h09.21.949,SPAMnetsValid,2021.1.4,MacIntel,59.99520038,,,,,,,,,,,,,,,,,,,,,,,,,,,,,,,,,,,,,,,,,,,,,,,,,,,,,,,,,,,,,,,,,,,,,,,,,,,,,,,,,,,,,,,,,
,,7,1.34,7,1.34,0,72,72,0,1,106,cake,strawberry,,90483,001,2022-04-28_22h09.21.949,SPAMnetsValid,2021.1.4,MacIntel,59.99520038,,,,,,,,,,,,,,,,,,,,,,,,,,,,,,,,,,,,,,,,,,,,,,,,,,,,,,,,,,,,,,,,,,,,,,,,,,,,,,,,,,,,,,,,,
,,9,1.306,9,1.306,0,73,73,8,1,97,chocolate,kitchen,,90483,001,2022-04-28_22h09.21.949,SPAMnetsValid,2021.1.4,MacIntel,59.99520038,,,,,,,,,,,,,,,,,,,,,,,,,,,,,,,,,,,,,,,,,,,,,,,,,,,,,,,,,,,,,,,,,,,,,,,,,,,,,,,,,,,,,,,,,
,,1,1.5737,1,1.5737,0,74,74,63,1,137,microwave,tree,,90483,001,2022-04-28_22h09.21.949,SPAMnetsValid,2021.1.4,MacIntel,59.99520038,,,,,,,,,,,,,,,,,,,,,,,,,,,,,,,,,,,,,,,,,,,,,,,,,,,,,,,,,,,,,,,,,,,,,,,,,,,,,,,,,,,,,,,,,
,,7,1.7389,7,1.7389,0,75,75,73,1,135,carrot,oven,,90483,001,2022-04-28_22h09.21.949,SPAMnetsValid,2021.1.4,MacIntel,59.99520038,,,,,,,,,,,,,,,,,,,,,,,,,,,,,,,,,,,,,,,,,,,,,,,,,,,,,,,,,,,,,,,,,,,,,,,,,,,,,,,,,,,,,,,,,
,,8,1.4736,8,1.4736,0,76,76,65,1,160,cookie,kitchen,,90483,001,2022-04-28_22h09.21.949,SPAMnetsValid,2021.1.4,MacIntel,59.99520038,,,,,,,,,,,,,,,,,,,,,,,,,,,,,,,,,,,,,,,,,,,,,,,,,,,,,,,,,,,,,,,,,,,,,,,,,,,,,,,,,,,,,,,,,
,,3,1.8899,3,1.8899,0,77,77,30,1,125,carrot,tree,,90483,001,2022-04-28_22h09.21.949,SPAMnetsValid,2021.1.4,MacIntel,59.99520038,,,,,,,,,,,,,,,,,,,,,,,,,,,,,,,,,,,,,,,,,,,,,,,,,,,,,,,,,,,,,,,,,,,,,,,,,,,,,,,,,,,,,,,,,
,,3,1.5895,3,1.5895,0,78,78,93,1,134,carrot,flower,,90483,001,2022-04-28_22h09.21.949,SPAMnetsValid,2021.1.4,MacIntel,59.99520038,,,,,,,,,,,,,,,,,,,,,,,,,,,,,,,,,,,,,,,,,,,,,,,,,,,,,,,,,,,,,,,,,,,,,,,,,,,,,,,,,,,,,,,,,
,,8,1.556,8,1.556,0,79,79,42,1,184,oven,pretzel,,90483,001,2022-04-28_22h09.21.949,SPAMnetsValid,2021.1.4,MacIntel,59.99520038,,,,,,,,,,,,,,,,,,,,,,,,,,,,,,,,,,,,,,,,,,,,,,,,,,,,,,,,,,,,,,,,,,,,,,,,,,,,,,,,,,,,,,,,,
,,2,1.3075,2,1.3075,0,80,80,21,1,159,cookie,flower,,90483,001,2022-04-28_22h09.21.949,SPAMnetsValid,2021.1.4,MacIntel,59.99520038,,,,,,,,,,,,,,,,,,,,,,,,,,,,,,,,,,,,,,,,,,,,,,,,,,,,,,,,,,,,,,,,,,,,,,,,,,,,,,,,,,,,,,,,,
,,3,1.4566,3,1.4566,0,81,81,49,1,152,cactus,strawberry,,90483,001,2022-04-28_22h09.21.949,SPAMnetsValid,2021.1.4,MacIntel,59.99520038,,,,,,,,,,,,,,,,,,,,,,,,,,,,,,,,,,,,,,,,,,,,,,,,,,,,,,,,,,,,,,,,,,,,,,,,,,,,,,,,,,,,,,,,,
,,8,1.3731,8,1.3731,0,82,82,76,1,102,chocolate,refrigerator,,90483,001,2022-04-28_22h09.21.949,SPAMnetsValid,2021.1.4,MacIntel,59.99520038,,,,,,,,,,,,,,,,,,,,,,,,,,,,,,,,,,,,,,,,,,,,,,,,,,,,,,,,,,,,,,,,,,,,,,,,,,,,,,,,,,,,,,,,,
,,1,1.3734,1,1.3734,0,83,83,20,1,149,broom,tomato,,90483,001,2022-04-28_22h09.21.949,SPAMnetsValid,2021.1.4,MacIntel,59.99520038,,,,,,,,,,,,,,,,,,,,,,,,,,,,,,,,,,,,,,,,,,,,,,,,,,,,,,,,,,,,,,,,,,,,,,,,,,,,,,,,,,,,,,,,,
,,2,1.5553,2,1.5553,0,84,84,27,1,158,cookie,oven,,90483,001,2022-04-28_22h09.21.949,SPAMnetsValid,2021.1.4,MacIntel,59.99520038,,,,,,,,,,,,,,,,,,,,,,,,,,,,,,,,,,,,,,,,,,,,,,,,,,,,,,,,,,,,,,,,,,,,,,,,,,,,,,,,,,,,,,,,,
,,4,3.2746,4,3.2746,0,85,85,7,1,188,flower,tree,,90483,001,2022-04-28_22h09.21.949,SPAMnetsValid,2021.1.4,MacIntel,59.99520038,,,,,,,,,,,,,,,,,,,,,,,,,,,,,,,,,,,,,,,,,,,,,,,,,,,,,,,,,,,,,,,,,,,,,,,,,,,,,,,,,,,,,,,,,
,,8,1.4074,8,1.4074,0,86,86,77,1,172,kitchen,melon,,90483,001,2022-04-28_22h09.21.949,SPAMnetsValid,2021.1.4,MacIntel,59.99520038,,,,,,,,,,,,,,,,,,,,,,,,,,,,,,,,,,,,,,,,,,,,,,,,,,,,,,,,,,,,,,,,,,,,,,,,,,,,,,,,,,,,,,,,,
,,8,1.3081,8,1.3081,0,87,87,23,1,148,flower,melon,,90483,001,2022-04-28_22h09.21.949,SPAMnetsValid,2021.1.4,MacIntel,59.99520038,,,,,,,,,,,,,,,,,,,,,,,,,,,,,,,,,,,,,,,,,,,,,,,,,,,,,,,,,,,,,,,,,,,,,,,,,,,,,,,,,,,,,,,,,
,,9,2.107,9,2.107,0,88,88,84,1,130,microwave,yogurt,,90483,001,2022-04-28_22h09.21.949,SPAMnetsValid,2021.1.4,MacIntel,59.99520038,,,,,,,,,,,,,,,,,,,,,,,,,,,,,,,,,,,,,,,,,,,,,,,,,,,,,,,,,,,,,,,,,,,,,,,,,,,,,,,,,,,,,,,,,
,,2,2.2214,2,2.2214,0,89,89,64,1,157,refrigerator,rose,,90483,001,2022-04-28_22h09.21.949,SPAMnetsValid,2021.1.4,MacIntel,59.99520038,,,,,,,,,,,,,,,,,,,,,,,,,,,,,,,,,,,,,,,,,,,,,,,,,,,,,,,,,,,,,,,,,,,,,,,,,,,,,,,,,,,,,,,,,
,,2,1.9901,2,1.9901,0,90,90,15,1,145,cactus,yogurt,,90483,001,2022-04-28_22h09.21.949,SPAMnetsValid,2021.1.4,MacIntel,59.99520038,,,,,,,,,,,,,,,,,,,,,,,,,,,,,,,,,,,,,,,,,,,,,,,,,,,,,,,,,,,,,,,,,,,,,,,,,,,,,,,,,,,,,,,,,
,,8,2.6049,8,2.6049,0,91,91,87,1,114,cookie,strawberry,,90483,001,2022-04-28_22h09.21.949,SPAMnetsValid,2021.1.4,MacIntel,59.99520038,,,,,,,,,,,,,,,,,,,,,,,,,,,,,,,,,,,,,,,,,,,,,,,,,,,,,,,,,,,,,,,,,,,,,,,,,,,,,,,,,,,,,,,,,
,,2,1.6231,2,1.6231,0,92,92,46,1,123,cookie,tree,,90483,001,2022-04-28_22h09.21.949,SPAMnetsValid,2021.1.4,MacIntel,59.99520038,,,,,,,,,,,,,,,,,,,,,,,,,,,,,,,,,,,,,,,,,,,,,,,,,,,,,,,,,,,,,,,,,,,,,,,,,,,,,,,,,,,,,,,,,
,,4,1.7572,4,1.7572,0,93,93,17,1,99,garden,melon,,90483,001,2022-04-28_22h09.21.949,SPAMnetsValid,2021.1.4,MacIntel,59.99520038,,,,,,,,,,,,,,,,,,,,,,,,,,,,,,,,,,,,,,,,,,,,,,,,,,,,,,,,,,,,,,,,,,,,,,,,,,,,,,,,,,,,,,,,,
,,9,2.237,9,2.237,0,94,94,52,1,110,chocolate,cookie,,90483,001,2022-04-28_22h09.21.949,SPAMnetsValid,2021.1.4,MacIntel,59.99520038,,,,,,,,,,,,,,,,,,,,,,,,,,,,,,,,,,,,,,,,,,,,,,,,,,,,,,,,,,,,,,,,,,,,,,,,,,,,,,,,,,,,,,,,,
,,3,1.7548,3,1.7548,0,95,95,71,1,187,cactus,microwave,,90483,001,2022-04-28_22h09.21.949,SPAMnetsValid,2021.1.4,MacIntel,59.99520038,,,,,,,,,,,,,,,,,,,,,,,,,,,,,,,,,,,,,,,,,,,,,,,,,,,,,,,,,,,,,,,,,,,,,,,,,,,,,,,,,,,,,,,,,
,,3,2.9229,3,2.9229,0,96,96,88,1,171,cake,tomato,,90483,001,2022-04-28_22h09.21.949,SPAMnetsValid,2021.1.4,MacIntel,59.99520038,,,,,,,,,,,,,,,,,,,,,,,,,,,,,,,,,,,,,,,,,,,,,,,,,,,,,,,,,,,,,,,,,,,,,,,,,,,,,,,,,,,,,,,,,
,,,,,,,,,,,,,,,90483,001,2022-04-28_22h09.21.949,SPAMnetsValid,2021.1.4,MacIntel,59.99520038,0,0,0,0,1,,,,,,,,,,,,,,,,,,,,,,,,,,,,,,,,,,,,,,,,,,,,,,,,,,,,,,,,,,,,,,,,,,,,,,,,,,,,,,,,,,,,
,,,,,,,,,,,,,,,90483,001,2022-04-28_22h09.21.949,SPAMnetsValid,2021.1.4,MacIntel,59.99520038,,,,,,0,0,0,1,1,0,1,,,,,,,,,,,,,,,,,,,,,,,,,,,,,,,,,,,,,,,,,,,,,,,,,,,,,,,,,,,,,,,,,,,,,,,,,,,,,
,,,,9,4.696,,,,,,76,garden,rose,,90483,001,2022-04-28_22h09.21.949,SPAMnetsValid,2021.1.4,MacIntel,59.99520038,,,,,,,,,,,,,9,4.696,0,0,0,19,1,,,,,,,,,,,,,,,,,,,,,,,,,,,,,,,,,,,,,,,,,,,,,,,,,,,,,,,,,,,,,,,,,,,,,,
,,,,2,3.5407,,,,,,16,chocolate,flower,,90483,001,2022-04-28_22h09.21.949,SPAMnetsValid,2021.1.4,MacIntel,59.99520038,,,,,,,,,,,,,2,3.5407,0,1,1,22,1,,,,,,,,,,,,,,,,,,,,,,,,,,,,,,,,,,,,,,,,,,,,,,,,,,,,,,,,,,,,,,,,,,,,,,
,,,,8,1.5737,,,,,,4,chocolate,pretzel,,90483,001,2022-04-28_22h09.21.949,SPAMnetsValid,2021.1.4,MacIntel,59.99520038,,,,,,,,,,,,,8,1.5737,0,2,2,52,1,,,,,,,,,,,,,,,,,,,,,,,,,,,,,,,,,,,,,,,,,,,,,,,,,,,,,,,,,,,,,,,,,,,,,,
,,,,9,1.4893,,,,,,32,cake,microwave,,90483,001,2022-04-28_22h09.21.949,SPAMnetsValid,2021.1.4,MacIntel,59.99520038,,,,,,,,,,,,,9,1.4893,0,3,3,33,1,,,,,,,,,,,,,,,,,,,,,,,,,,,,,,,,,,,,,,,,,,,,,,,,,,,,,,,,,,,,,,,,,,,,,,
,,,,4,1.7068,,,,,,87,carrot,yogurt,,90483,001,2022-04-28_22h09.21.949,SPAMnetsValid,2021.1.4,MacIntel,59.99520038,,,,,,,,,,,,,4,1.7068,0,4,4,6,1,,,,,,,,,,,,,,,,,,,,,,,,,,,,,,,,,,,,,,,,,,,,,,,,,,,,,,,,,,,,,,,,,,,,,,
,,,,3,1.9237,,,,,,62,kitchen,rose,,90483,001,2022-04-28_22h09.21.949,SPAMnetsValid,2021.1.4,MacIntel,59.99520038,,,,,,,,,,,,,3,1.9237,0,5,5,57,1,,,,,,,,,,,,,,,,,,,,,,,,,,,,,,,,,,,,,,,,,,,,,,,,,,,,,,,,,,,,,,,,,,,,,,
,,,,8,2.0571,,,,,,81,pretzel,yogurt,,90483,001,2022-04-28_22h09.21.949,SPAMnetsValid,2021.1.4,MacIntel,59.99520038,,,,,,,,,,,,,8,2.0571,0,6,6,50,1,,,,,,,,,,,,,,,,,,,,,,,,,,,,,,,,,,,,,,,,,,,,,,,,,,,,,,,,,,,,,,,,,,,,,,
,,,,2,1.3061,,,,,,13,broom,yogurt,,90483,001,2022-04-28_22h09.21.949,SPAMnetsValid,2021.1.4,MacIntel,59.99520038,,,,,,,,,,,,,2,1.3061,0,7,7,5,1,,,,,,,,,,,,,,,,,,,,,,,,,,,,,,,,,,,,,,,,,,,,,,,,,,,,,,,,,,,,,,,,,,,,,,
,,,,9,1.3054,,,,,,3,cake,oven,,90483,001,2022-04-28_22h09.21.949,SPAMnetsValid,2021.1.4,MacIntel,59.99520038,,,,,,,,,,,,,9,1.3054,0,8,8,30,1,,,,,,,,,,,,,,,,,,,,,,,,,,,,,,,,,,,,,,,,,,,,,,,,,,,,,,,,,,,,,,,,,,,,,,
,,,,9,1.5567,,,,,,79,garden,strawberry,,90483,001,2022-04-28_22h09.21.949,SPAMnetsValid,2021.1.4,MacIntel,59.99520038,,,,,,,,,,,,,9,1.5567,0,9,9,87,1,,,,,,,,,,,,,,,,,,,,,,,,,,,,,,,,,,,,,,,,,,,,,,,,,,,,,,,,,,,,,,,,,,,,,,
,,,,1,3.2238,,,,,,44,cookie,melon,,90483,001,2022-04-28_22h09.21.949,SPAMnetsValid,2021.1.4,MacIntel,59.99520038,,,,,,,,,,,,,1,3.2238,0,10,10,92,1,,,,,,,,,,,,,,,,,,,,,,,,,,,,,,,,,,,,,,,,,,,,,,,,,,,,,,,,,,,,,,,,,,,,,,
,,,,7,1.59,,,,,,12,cookie,yogurt,,90483,001,2022-04-28_22h09.21.949,SPAMnetsValid,2021.1.4,MacIntel,59.99520038,,,,,,,,,,,,,7,1.59,0,11,11,36,1,,,,,,,,,,,,,,,,,,,,,,,,,,,,,,,,,,,,,,,,,,,,,,,,,,,,,,,,,,,,,,,,,,,,,,
,,,,7,1.9418,,,,,,33,oven,yogurt,,90483,001,2022-04-28_22h09.21.949,SPAMnetsValid,2021.1.4,MacIntel,59.99520038,,,,,,,,,,,,,7,1.9418,0,12,12,31,1,,,,,,,,,,,,,,,,,,,,,,,,,,,,,,,,,,,,,,,,,,,,,,,,,,,,,,,,,,,,,,,,,,,,,,
,,,,3,1.609,,,,,,53,garden,pretzel,,90483,001,2022-04-28_22h09.21.949,SPAMnetsValid,2021.1.4,MacIntel,59.99520038,,,,,,,,,,,,,3,1.609,0,13,13,0,1,,,,,,,,,,,,,,,,,,,,,,,,,,,,,,,,,,,,,,,,,,,,,,,,,,,,,,,,,,,,,,,,,,,,,,
,,,,1,1.6585,,,,,,92,broom,flower,,90483,001,2022-04-28_22h09.21.949,SPAMnetsValid,2021.1.4,MacIntel,59.99520038,,,,,,,,,,,,,1,1.6585,0,14,14,88,1,,,,,,,,,,,,,,,,,,,,,,,,,,,,,,,,,,,,,,,,,,,,,,,,,,,,,,,,,,,,,,,,,,,,,,
,,,,8,1.506,,,,,,20,rose,tree,,90483,001,2022-04-28_22h09.21.949,SPAMnetsValid,2021.1.4,MacIntel,59.99520038,,,,,,,,,,,,,8,1.506,0,15,15,66,1,,,,,,,,,,,,,,,,,,,,,,,,,,,,,,,,,,,,,,,,,,,,,,,,,,,,,,,,,,,,,,,,,,,,,,
,,,,2,1.5225,,,,,,39,melon,pretzel,,90483,001,2022-04-28_22h09.21.949,SPAMnetsValid,2021.1.4,MacIntel,59.99520038,,,,,,,,,,,,,2,1.5225,0,16,16,20,1,,,,,,,,,,,,,,,,,,,,,,,,,,,,,,,,,,,,,,,,,,,,,,,,,,,,,,,,,,,,,,,,,,,,,,
,,,,9,1.3559,,,,,,89,chocolate,rose,,90483,001,2022-04-28_22h09.21.949,SPAMnetsValid,2021.1.4,MacIntel,59.99520038,,,,,,,,,,,,,9,1.3559,0,17,17,60,1,,,,,,,,,,,,,,,,,,,,,,,,,,,,,,,,,,,,,,,,,,,,,,,,,,,,,,,,,,,,,,,,,,,,,,
,,,,2,1.8067,,,,,,25,carrot,onion,,90483,001,2022-04-28_22h09.21.949,SPAMnetsValid,2021.1.4,MacIntel,59.99520038,,,,,,,,,,,,,2,1.8067,0,18,18,44,1,,,,,,,,,,,,,,,,,,,,,,,,,,,,,,,,,,,,,,,,,,,,,,,,,,,,,,,,,,,,,,,,,,,,,,
,,,,7,2.0261,,,,,,38,pretzel,refrigerator,,90483,001,2022-04-28_22h09.21.949,SPAMnetsValid,2021.1.4,MacIntel,59.99520038,,,,,,,,,,,,,7,2.0261,0,19,19,71,1,,,,,,,,,,,,,,,,,,,,,,,,,,,,,,,,,,,,,,,,,,,,,,,,,,,,,,,,,,,,,,,,,,,,,,
,,,,1,1.4061,,,,,,85,cake,tree,,90483,001,2022-04-28_22h09.21.949,SPAMnetsValid,2021.1.4,MacIntel,59.99520038,,,,,,,,,,,,,1,1.4061,0,20,20,18,1,,,,,,,,,,,,,,,,,,,,,,,,,,,,,,,,,,,,,,,,,,,,,,,,,,,,,,,,,,,,,,,,,,,,,,
,,,,8,1.6746,,,,,,94,kitchen,microwave,,90483,001,2022-04-28_22h09.21.949,SPAMnetsValid,2021.1.4,MacIntel,59.99520038,,,,,,,,,,,,,8,1.6746,0,21,21,58,1,,,,,,,,,,,,,,,,,,,,,,,,,,,,,,,,,,,,,,,,,,,,,,,,,,,,,,,,,,,,,,,,,,,,,,
,,,,2,1.6235,,,,,,23,flower,microwave,,90483,001,2022-04-28_22h09.21.949,SPAMnetsValid,2021.1.4,MacIntel,59.99520038,,,,,,,,,,,,,2,1.6235,0,22,22,25,1,,,,,,,,,,,,,,,,,,,,,,,,,,,,,,,,,,,,,,,,,,,,,,,,,,,,,,,,,,,,,,,,,,,,,,
,,,,2,1.8074,,,,,,75,cookie,onion,,90483,001,2022-04-28_22h09.21.949,SPAMnetsValid,2021.1.4,MacIntel,59.99520038,,,,,,,,,,,,,2,1.8074,0,23,23,9,1,,,,,,,,,,,,,,,,,,,,,,,,,,,,,,,,,,,,,,,,,,,,,,,,,,,,,,,,,,,,,,,,,,,,,,
,,,,2,1.3744,,,,,,41,broom,cactus,,90483,001,2022-04-28_22h09.21.949,SPAMnetsValid,2021.1.4,MacIntel,59.99520038,,,,,,,,,,,,,2,1.3744,0,24,24,46,1,,,,,,,,,,,,,,,,,,,,,,,,,,,,,,,,,,,,,,,,,,,,,,,,,,,,,,,,,,,,,,,,,,,,,,
,,,,2,1.8401,,,,,,58,garden,oven,,90483,001,2022-04-28_22h09.21.949,SPAMnetsValid,2021.1.4,MacIntel,59.99520038,,,,,,,,,,,,,2,1.8401,0,25,25,37,1,,,,,,,,,,,,,,,,,,,,,,,,,,,,,,,,,,,,,,,,,,,,,,,,,,,,,,,,,,,,,,,,,,,,,,
,,,,7,1.3735,,,,,,19,microwave,pretzel,,90483,001,2022-04-28_22h09.21.949,SPAMnetsValid,2021.1.4,MacIntel,59.99520038,,,,,,,,,,,,,7,1.3735,0,26,26,41,1,,,,,,,,,,,,,,,,,,,,,,,,,,,,,,,,,,,,,,,,,,,,,,,,,,,,,,,,,,,,,,,,,,,,,,
,,,,7,1.8905,,,,,,55,tomato,tree,,90483,001,2022-04-28_22h09.21.949,SPAMnetsValid,2021.1.4,MacIntel,59.99520038,,,,,,,,,,,,,7,1.8905,0,27,27,35,1,,,,,,,,,,,,,,,,,,,,,,,,,,,,,,,,,,,,,,,,,,,,,,,,,,,,,,,,,,,,,,,,,,,,,,
,,,,9,1.4567,,,,,,191,cake,cake,CHECK,90483,001,2022-04-28_22h09.21.949,SPAMnetsValid,2021.1.4,MacIntel,59.99520038,,,,,,,,,,,,,9,1.4567,0,28,28,10,1,,,,,,,,,,,,,,,,,,,,,,,,,,,,,,,,,,,,,,,,,,,,,,,,,,,,,,,,,,,,,,,,,,,,,,
,,,,9,1.6709,,,,,,93,kitchen,oven,,90483,001,2022-04-28_22h09.21.949,SPAMnetsValid,2021.1.4,MacIntel,59.99520038,,,,,,,,,,,,,9,1.6709,0,29,29,82,1,,,,,,,,,,,,,,,,,,,,,,,,,,,,,,,,,,,,,,,,,,,,,,,,,,,,,,,,,,,,,,,,,,,,,,
,,,,7,1.6059,,,,,,66,melon,yogurt,,90483,001,2022-04-28_22h09.21.949,SPAMnetsValid,2021.1.4,MacIntel,59.99520038,,,,,,,,,,,,,7,1.6059,0,30,30,48,1,,,,,,,,,,,,,,,,,,,,,,,,,,,,,,,,,,,,,,,,,,,,,,,,,,,,,,,,,,,,,,,,,,,,,,
,,,,8,1.407,,,,,,54,chocolate,yogurt,,90483,001,2022-04-28_22h09.21.949,SPAMnetsValid,2021.1.4,MacIntel,59.99520038,,,,,,,,,,,,,8,1.407,0,31,31,67,1,,,,,,,,,,,,,,,,,,,,,,,,,,,,,,,,,,,,,,,,,,,,,,,,,,,,,,,,,,,,,,,,,,,,,,
,,,,6,2.3566,,,,,,56,cactus,tree,,90483,001,2022-04-28_22h09.21.949,SPAMnetsValid,2021.1.4,MacIntel,59.99520038,,,,,,,,,,,,,6,2.3566,0,32,32,21,1,,,,,,,,,,,,,,,,,,,,,,,,,,,,,,,,,,,,,,,,,,,,,,,,,,,,,,,,,,,,,,,,,,,,,,
,,,,4,1.2241,,,,,,72,broom,onion,,90483,001,2022-04-28_22h09.21.949,SPAMnetsValid,2021.1.4,MacIntel,59.99520038,,,,,,,,,,,,,4,1.2241,0,33,33,27,1,,,,,,,,,,,,,,,,,,,,,,,,,,,,,,,,,,,,,,,,,,,,,,,,,,,,,,,,,,,,,,,,,,,,,,
,,,,9,3.0901,,,,,,22,kitchen,strawberry,,90483,001,2022-04-28_22h09.21.949,SPAMnetsValid,2021.1.4,MacIntel,59.99520038,,,,,,,,,,,,,9,3.0901,0,34,34,2,1,,,,,,,,,,,,,,,,,,,,,,,,,,,,,,,,,,,,,,,,,,,,,,,,,,,,,,,,,,,,,,,,,,,,,,
,,,,8,1.6065,,,,,,15,onion,oven,,90483,001,2022-04-28_22h09.21.949,SPAMnetsValid,2021.1.4,MacIntel,59.99520038,,,,,,,,,,,,,8,1.6065,0,35,35,39,1,,,,,,,,,,,,,,,,,,,,,,,,,,,,,,,,,,,,,,,,,,,,,,,,,,,,,,,,,,,,,,,,,,,,,,
,,,,3,1.7568,,,,,,50,carrot,rose,,90483,001,2022-04-28_22h09.21.949,SPAMnetsValid,2021.1.4,MacIntel,59.99520038,,,,,,,,,,,,,3,1.7568,0,36,36,73,1,,,,,,,,,,,,,,,,,,,,,,,,,,,,,,,,,,,,,,,,,,,,,,,,,,,,,,,,,,,,,,,,,,,,,,
,,,,6,1.6235,,,,,,7,melon,tree,,90483,001,2022-04-28_22h09.21.949,SPAMnetsValid,2021.1.4,MacIntel,59.99520038,,,,,,,,,,,,,6,1.6235,0,37,37,77,1,,,,,,,,,,,,,,,,,,,,,,,,,,,,,,,,,,,,,,,,,,,,,,,,,,,,,,,,,,,,,,,,,,,,,,
,,,,6,2.007,,,,,,48,flower,oven,,90483,001,2022-04-28_22h09.21.949,SPAMnetsValid,2021.1.4,MacIntel,59.99520038,,,,,,,,,,,,,6,2.007,0,38,38,15,1,,,,,,,,,,,,,,,,,,,,,,,,,,,,,,,,,,,,,,,,,,,,,,,,,,,,,,,,,,,,,,,,,,,,,,
,,,,4,2.3064,,,,,,34,melon,oven,,90483,001,2022-04-28_22h09.21.949,SPAMnetsValid,2021.1.4,MacIntel,59.99520038,,,,,,,,,,,,,4,2.3064,0,39,39,7,1,,,,,,,,,,,,,,,,,,,,,,,,,,,,,,,,,,,,,,,,,,,,,,,,,,,,,,,,,,,,,,,,,,,,,,
,,,,7,2.7908,,,,,,91,microwave,rose,,90483,001,2022-04-28_22h09.21.949,SPAMnetsValid,2021.1.4,MacIntel,59.99520038,,,,,,,,,,,,,7,2.7908,0,40,40,84,1,,,,,,,,,,,,,,,,,,,,,,,,,,,,,,,,,,,,,,,,,,,,,,,,,,,,,,,,,,,,,,,,,,,,,,
,,,,2,2.0232,,,,,,5,oven,tree,,90483,001,2022-04-28_22h09.21.949,SPAMnetsValid,2021.1.4,MacIntel,59.99520038,,,,,,,,,,,,,2,2.0232,0,41,41,70,1,,,,,,,,,,,,,,,,,,,,,,,,,,,,,,,,,,,,,,,,,,,,,,,,,,,,,,,,,,,,,,,,,,,,,,
,,,,9,1.5906,,,,,,84,oven,tomato,,90483,001,2022-04-28_22h09.21.949,SPAMnetsValid,2021.1.4,MacIntel,59.99520038,,,,,,,,,,,,,9,1.5906,0,42,42,28,1,,,,,,,,,,,,,,,,,,,,,,,,,,,,,,,,,,,,,,,,,,,,,,,,,,,,,,,,,,,,,,,,,,,,,,
,,,,6,3.1567,,,,,,45,onion,pretzel,,90483,001,2022-04-28_22h09.21.949,SPAMnetsValid,2021.1.4,MacIntel,59.99520038,,,,,,,,,,,,,6,3.1567,0,43,43,69,1,,,,,,,,,,,,,,,,,,,,,,,,,,,,,,,,,,,,,,,,,,,,,,,,,,,,,,,,,,,,,,,,,,,,,,
,,,,8,1.6722,,,,,,49,flower,strawberry,,90483,001,2022-04-28_22h09.21.949,SPAMnetsValid,2021.1.4,MacIntel,59.99520038,,,,,,,,,,,,,8,1.6722,0,44,44,3,1,,,,,,,,,,,,,,,,,,,,,,,,,,,,,,,,,,,,,,,,,,,,,,,,,,,,,,,,,,,,,,,,,,,,,,
,,,,7,5.6092,,,,,,52,carrot,tomato,,90483,001,2022-04-28_22h09.21.949,SPAMnetsValid,2021.1.4,MacIntel,59.99520038,,,,,,,,,,,,,7,5.6092,0,45,45,95,1,,,,,,,,,,,,,,,,,,,,,,,,,,,,,,,,,,,,,,,,,,,,,,,,,,,,,,,,,,,,,,,,,,,,,,
,,,,2,2.2037,,,,,,83,broom,carrot,,90483,001,2022-04-28_22h09.21.949,SPAMnetsValid,2021.1.4,MacIntel,59.99520038,,,,,,,,,,,,,2,2.2037,0,46,46,4,1,,,,,,,,,,,,,,,,,,,,,,,,,,,,,,,,,,,,,,,,,,,,,,,,,,,,,,,,,,,,,,,,,,,,,,
,,,,6,1.8388,,,,,,88,cactus,melon,,90483,001,2022-04-28_22h09.21.949,SPAMnetsValid,2021.1.4,MacIntel,59.99520038,,,,,,,,,,,,,6,1.8388,0,47,47,38,1,,,,,,,,,,,,,,,,,,,,,,,,,,,,,,,,,,,,,,,,,,,,,,,,,,,,,,,,,,,,,,,,,,,,,,
,,,,7,2.8218,,,,,,47,onion,tomato,,90483,001,2022-04-28_22h09.21.949,SPAMnetsValid,2021.1.4,MacIntel,59.99520038,,,,,,,,,,,,,7,2.8218,0,48,48,51,1,,,,,,,,,,,,,,,,,,,,,,,,,,,,,,,,,,,,,,,,,,,,,,,,,,,,,,,,,,,,,,,,,,,,,,
,,,,4,2.2403,,,,,,46,garden,yogurt,,90483,001,2022-04-28_22h09.21.949,SPAMnetsValid,2021.1.4,MacIntel,59.99520038,,,,,,,,,,,,,4,2.2403,0,49,49,65,1,,,,,,,,,,,,,,,,,,,,,,,,,,,,,,,,,,,,,,,,,,,,,,,,,,,,,,,,,,,,,,,,,,,,,,
,,,,3,2.3068,,,,,,95,broom,refrigerator,,90483,001,2022-04-28_22h09.21.949,SPAMnetsValid,2021.1.4,MacIntel,59.99520038,,,,,,,,,,,,,3,2.3068,0,50,50,90,1,,,,,,,,,,,,,,,,,,,,,,,,,,,,,,,,,,,,,,,,,,,,,,,,,,,,,,,,,,,,,,,,,,,,,,
,,,,6,1.3072,,,,,,24,cookie,tomato,,90483,001,2022-04-28_22h09.21.949,SPAMnetsValid,2021.1.4,MacIntel,59.99520038,,,,,,,,,,,,,6,1.3072,0,51,51,68,1,,,,,,,,,,,,,,,,,,,,,,,,,,,,,,,,,,,,,,,,,,,,,,,,,,,,,,,,,,,,,,,,,,,,,,
,,,,1,1.2071,,,,,,73,broom,chocolate,,90483,001,2022-04-28_22h09.21.949,SPAMnetsValid,2021.1.4,MacIntel,59.99520038,,,,,,,,,,,,,1,1.2071,0,52,52,47,1,,,,,,,,,,,,,,,,,,,,,,,,,,,,,,,,,,,,,,,,,,,,,,,,,,,,,,,,,,,,,,,,,,,,,,
,,,,4,3.491,,,,,,28,cake,melon,,90483,001,2022-04-28_22h09.21.949,SPAMnetsValid,2021.1.4,MacIntel,59.99520038,,,,,,,,,,,,,4,3.491,0,53,53,54,1,,,,,,,,,,,,,,,,,,,,,,,,,,,,,,,,,,,,,,,,,,,,,,,,,,,,,,,,,,,,,,,,,,,,,,
,,,,2,1.5397,,,,,,71,broom,rose,,90483,001,2022-04-28_22h09.21.949,SPAMnetsValid,2021.1.4,MacIntel,59.99520038,,,,,,,,,,,,,2,1.5397,0,54,54,61,1,,,,,,,,,,,,,,,,,,,,,,,,,,,,,,,,,,,,,,,,,,,,,,,,,,,,,,,,,,,,,,,,,,,,,,
,,,,6,1.4382,,,,,,17,carrot,melon,,90483,001,2022-04-28_22h09.21.949,SPAMnetsValid,2021.1.4,MacIntel,59.99520038,,,,,,,,,,,,,6,1.4382,0,55,55,24,1,,,,,,,,,,,,,,,,,,,,,,,,,,,,,,,,,,,,,,,,,,,,,,,,,,,,,,,,,,,,,,,,,,,,,,
,,,,9,1.7386,,,,,,77,refrigerator,yogurt,,90483,001,2022-04-28_22h09.21.949,SPAMnetsValid,2021.1.4,MacIntel,59.99520038,,,,,,,,,,,,,9,1.7386,0,56,56,42,1,,,,,,,,,,,,,,,,,,,,,,,,,,,,,,,,,,,,,,,,,,,,,,,,,,,,,,,,,,,,,,,,,,,,,,
,,,,2,1.6544,,,,,,21,cake,onion,,90483,001,2022-04-28_22h09.21.949,SPAMnetsValid,2021.1.4,MacIntel,59.99520038,,,,,,,,,,,,,2,1.6544,0,57,57,63,1,,,,,,,,,,,,,,,,,,,,,,,,,,,,,,,,,,,,,,,,,,,,,,,,,,,,,,,,,,,,,,,,,,,,,,
,,,,3,5.8421,,,,,,42,garden,kitchen,,90483,001,2022-04-28_22h09.21.949,SPAMnetsValid,2021.1.4,MacIntel,59.99520038,,,,,,,,,,,,,3,5.8421,0,58,58,29,1,,,,,,,,,,,,,,,,,,,,,,,,,,,,,,,,,,,,,,,,,,,,,,,,,,,,,,,,,,,,,,,,,,,,,,
,,,,8,2.3387,,,,,,61,strawberry,tomato,,90483,001,2022-04-28_22h09.21.949,SPAMnetsValid,2021.1.4,MacIntel,59.99520038,,,,,,,,,,,,,8,2.3387,0,59,59,80,1,,,,,,,,,,,,,,,,,,,,,,,,,,,,,,,,,,,,,,,,,,,,,,,,,,,,,,,,,,,,,,,,,,,,,,
,,,,7,1.8574,,,,,,10,flower,onion,,90483,001,2022-04-28_22h09.21.949,SPAMnetsValid,2021.1.4,MacIntel,59.99520038,,,,,,,,,,,,,7,1.8574,0,60,60,45,1,,,,,,,,,,,,,,,,,,,,,,,,,,,,,,,,,,,,,,,,,,,,,,,,,,,,,,,,,,,,,,,,,,,,,,
,,,,9,1.2572,,,,,,9,kitchen,refrigerator,,90483,001,2022-04-28_22h09.21.949,SPAMnetsValid,2021.1.4,MacIntel,59.99520038,,,,,,,,,,,,,9,1.2572,0,61,61,64,1,,,,,,,,,,,,,,,,,,,,,,,,,,,,,,,,,,,,,,,,,,,,,,,,,,,,,,,,,,,,,,,,,,,,,,
,,,,4,2.0066,,,,,,51,onion,strawberry,,90483,001,2022-04-28_22h09.21.949,SPAMnetsValid,2021.1.4,MacIntel,59.99520038,,,,,,,,,,,,,4,2.0066,0,62,62,86,1,,,,,,,,,,,,,,,,,,,,,,,,,,,,,,,,,,,,,,,,,,,,,,,,,,,,,,,,,,,,,,,,,,,,,,
,,,,1,1.5209,,,,,,40,broom,cake,,90483,001,2022-04-28_22h09.21.949,SPAMnetsValid,2021.1.4,MacIntel,59.99520038,,,,,,,,,,,,,1,1.5209,0,63,63,32,1,,,,,,,,,,,,,,,,,,,,,,,,,,,,,,,,,,,,,,,,,,,,,,,,,,,,,,,,,,,,,,,,,,,,,,
,,,,6,2.5064,,,,,,59,rose,strawberry,,90483,001,2022-04-28_22h09.21.949,SPAMnetsValid,2021.1.4,MacIntel,59.99520038,,,,,,,,,,,,,6,2.5064,0,64,64,72,1,,,,,,,,,,,,,,,,,,,,,,,,,,,,,,,,,,,,,,,,,,,,,,,,,,,,,,,,,,,,,,,,,,,,,,
,,,,2,1.2412,,,,,,31,cactus,pretzel,,90483,001,2022-04-28_22h09.21.949,SPAMnetsValid,2021.1.4,MacIntel,59.99520038,,,,,,,,,,,,,2,1.2412,0,65,65,1,1,,,,,,,,,,,,,,,,,,,,,,,,,,,,,,,,,,,,,,,,,,,,,,,,,,,,,,,,,,,,,,,,,,,,,,
,,,,6,2.2921,,,,,,30,cookie,pretzel,,90483,001,2022-04-28_22h09.21.949,SPAMnetsValid,2021.1.4,MacIntel,59.99520038,,,,,,,,,,,,,6,2.2921,0,66,66,78,1,,,,,,,,,,,,,,,,,,,,,,,,,,,,,,,,,,,,,,,,,,,,,,,,,,,,,,,,,,,,,,,,,,,,,,
,,,,8,1.8876,,,,,,36,broom,kitchen,,90483,001,2022-04-28_22h09.21.949,SPAMnetsValid,2021.1.4,MacIntel,59.99520038,,,,,,,,,,,,,8,1.8876,0,67,67,76,1,,,,,,,,,,,,,,,,,,,,,,,,,,,,,,,,,,,,,,,,,,,,,,,,,,,,,,,,,,,,,,,,,,,,,,
,,,,2,2.6557,,,,,,37,garden,refrigerator,,90483,001,2022-04-28_22h09.21.949,SPAMnetsValid,2021.1.4,MacIntel,59.99520038,,,,,,,,,,,,,2,2.6557,0,68,68,11,1,,,,,,,,,,,,,,,,,,,,,,,,,,,,,,,,,,,,,,,,,,,,,,,,,,,,,,,,,,,,,,,,,,,,,,
,,,,6,3.0576,,,,,,43,chocolate,tomato,,90483,001,2022-04-28_22h09.21.949,SPAMnetsValid,2021.1.4,MacIntel,59.99520038,,,,,,,,,,,,,6,3.0576,0,69,69,8,1,,,,,,,,,,,,,,,,,,,,,,,,,,,,,,,,,,,,,,,,,,,,,,,,,,,,,,,,,,,,,,,,,,,,,,
,,,,9,1.2574,,,,,,2,kitchen,onion,,90483,001,2022-04-28_22h09.21.949,SPAMnetsValid,2021.1.4,MacIntel,59.99520038,,,,,,,,,,,,,9,1.2574,0,70,70,91,1,,,,,,,,,,,,,,,,,,,,,,,,,,,,,,,,,,,,,,,,,,,,,,,,,,,,,,,,,,,,,,,,,,,,,,
,,,,3,1.5236,,,,,,35,flower,pretzel,,90483,001,2022-04-28_22h09.21.949,SPAMnetsValid,2021.1.4,MacIntel,59.99520038,,,,,,,,,,,,,3,1.5236,0,71,71,26,1,,,,,,,,,,,,,,,,,,,,,,,,,,,,,,,,,,,,,,,,,,,,,,,,,,,,,,,,,,,,,,,,,,,,,,
,,,,3,1.4583,,,,,,57,flower,kitchen,,90483,001,2022-04-28_22h09.21.949,SPAMnetsValid,2021.1.4,MacIntel,59.99520038,,,,,,,,,,,,,3,1.4583,0,72,72,49,1,,,,,,,,,,,,,,,,,,,,,,,,,,,,,,,,,,,,,,,,,,,,,,,,,,,,,,,,,,,,,,,,,,,,,,
,,,,6,1.973,,,,,,26,tomato,yogurt,,90483,001,2022-04-28_22h09.21.949,SPAMnetsValid,2021.1.4,MacIntel,59.99520038,,,,,,,,,,,,,6,1.973,0,73,73,13,1,,,,,,,,,,,,,,,,,,,,,,,,,,,,,,,,,,,,,,,,,,,,,,,,,,,,,,,,,,,,,,,,,,,,,,
,,,,4,2.3053,,,,,,68,flower,tomato,,90483,001,2022-04-28_22h09.21.949,SPAMnetsValid,2021.1.4,MacIntel,59.99520038,,,,,,,,,,,,,4,2.3053,0,74,74,94,1,,,,,,,,,,,,,,,,,,,,,,,,,,,,,,,,,,,,,,,,,,,,,,,,,,,,,,,,,,,,,,,,,,,,,,
,,,,4,1.4379,,,,,,8,broom,melon,,90483,001,2022-04-28_22h09.21.949,SPAMnetsValid,2021.1.4,MacIntel,59.99520038,,,,,,,,,,,,,4,1.4379,0,75,75,59,1,,,,,,,,,,,,,,,,,,,,,,,,,,,,,,,,,,,,,,,,,,,,,,,,,,,,,,,,,,,,,,,,,,,,,,
,,,,3,1.5581,,,,,,74,broom,pretzel,,90483,001,2022-04-28_22h09.21.949,SPAMnetsValid,2021.1.4,MacIntel,59.99520038,,,,,,,,,,,,,3,1.5581,0,76,76,40,1,,,,,,,,,,,,,,,,,,,,,,,,,,,,,,,,,,,,,,,,,,,,,,,,,,,,,,,,,,,,,,,,,,,,,,
,,,,3,2.1732,,,,,,67,flower,yogurt,,90483,001,2022-04-28_22h09.21.949,SPAMnetsValid,2021.1.4,MacIntel,59.99520038,,,,,,,,,,,,,3,2.1732,0,77,77,12,1,,,,,,,,,,,,,,,,,,,,,,,,,,,,,,,,,,,,,,,,,,,,,,,,,,,,,,,,,,,,,,,,,,,,,,
,,,,3,2.008,,,,,,64,chocolate,garden,,90483,001,2022-04-28_22h09.21.949,SPAMnetsValid,2021.1.4,MacIntel,59.99520038,,,,,,,,,,,,,3,2.008,0,78,78,14,1,,,,,,,,,,,,,,,,,,,,,,,,,,,,,,,,,,,,,,,,,,,,,,,,,,,,,,,,,,,,,,,,,,,,,,
,,,,2,1.3237,,,,,,65,broom,garden,,90483,001,2022-04-28_22h09.21.949,SPAMnetsValid,2021.1.4,MacIntel,59.99520038,,,,,,,,,,,,,2,1.3237,0,79,79,23,1,,,,,,,,,,,,,,,,,,,,,,,,,,,,,,,,,,,,,,,,,,,,,,,,,,,,,,,,,,,,,,,,,,,,,,
,,,,7,1.8739,,,,,,6,garden,onion,,90483,001,2022-04-28_22h09.21.949,SPAMnetsValid,2021.1.4,MacIntel,59.99520038,,,,,,,,,,,,,7,1.8739,0,80,80,83,1,,,,,,,,,,,,,,,,,,,,,,,,,,,,,,,,,,,,,,,,,,,,,,,,,,,,,,,,,,,,,,,,,,,,,,
,,,,8,1.2563,,,,,,18,onion,refrigerator,,90483,001,2022-04-28_22h09.21.949,SPAMnetsValid,2021.1.4,MacIntel,59.99520038,,,,,,,,,,,,,8,1.2563,0,81,81,62,1,,,,,,,,,,,,,,,,,,,,,,,,,,,,,,,,,,,,,,,,,,,,,,,,,,,,,,,,,,,,,,,,,,,,,,
,,,,3,1.5559,,,,,,60,cactus,onion,,90483,001,2022-04-28_22h09.21.949,SPAMnetsValid,2021.1.4,MacIntel,59.99520038,,,,,,,,,,,,,3,1.5559,0,82,82,81,1,,,,,,,,,,,,,,,,,,,,,,,,,,,,,,,,,,,,,,,,,,,,,,,,,,,,,,,,,,,,,,,,,,,,,,
,,,,6,1.3209,,,,,,70,chocolate,onion,,90483,001,2022-04-28_22h09.21.949,SPAMnetsValid,2021.1.4,MacIntel,59.99520038,,,,,,,,,,,,,6,1.3209,0,83,83,74,1,,,,,,,,,,,,,,,,,,,,,,,,,,,,,,,,,,,,,,,,,,,,,,,,,,,,,,,,,,,,,,,,,,,,,,
,,,,7,1.3393,,,,,,78,cookie,rose,,90483,001,2022-04-28_22h09.21.949,SPAMnetsValid,2021.1.4,MacIntel,59.99520038,,,,,,,,,,,,,7,1.3393,0,84,84,56,1,,,,,,,,,,,,,,,,,,,,,,,,,,,,,,,,,,,,,,,,,,,,,,,,,,,,,,,,,,,,,,,,,,,,,,
,,,,2,1.6385,,,,,,14,broom,cookie,,90483,001,2022-04-28_22h09.21.949,SPAMnetsValid,2021.1.4,MacIntel,59.99520038,,,,,,,,,,,,,2,1.6385,0,85,85,16,1,,,,,,,,,,,,,,,,,,,,,,,,,,,,,,,,,,,,,,,,,,,,,,,,,,,,,,,,,,,,,,,,,,,,,,
,,,,8,1.4748,,,,,,69,carrot,refrigerator,,90483,001,2022-04-28_22h09.21.949,SPAMnetsValid,2021.1.4,MacIntel,59.99520038,,,,,,,,,,,,,8,1.4748,0,86,86,75,1,,,,,,,,,,,,,,,,,,,,,,,,,,,,,,,,,,,,,,,,,,,,,,,,,,,,,,,,,,,,,,,,,,,,,,
,,,,9,2.0409,,,,,,63,cake,cookie,,90483,001,2022-04-28_22h09.21.949,SPAMnetsValid,2021.1.4,MacIntel,59.99520038,,,,,,,,,,,,,9,2.0409,0,87,87,93,1,,,,,,,,,,,,,,,,,,,,,,,,,,,,,,,,,,,,,,,,,,,,,,,,,,,,,,,,,,,,,,,,,,,,,,
,,,,1,1.621,,,,,,11,refrigerator,tree,,90483,001,2022-04-28_22h09.21.949,SPAMnetsValid,2021.1.4,MacIntel,59.99520038,,,,,,,,,,,,,1,1.621,0,88,88,43,1,,,,,,,,,,,,,,,,,,,,,,,,,,,,,,,,,,,,,,,,,,,,,,,,,,,,,,,,,,,,,,,,,,,,,,
,,,,1,2.0886,,,,,,90,cactus,cake,,90483,001,2022-04-28_22h09.21.949,SPAMnetsValid,2021.1.4,MacIntel,59.99520038,,,,,,,,,,,,,1,2.0886,0,89,89,85,1,,,,,,,,,,,,,,,,,,,,,,,,,,,,,,,,,,,,,,,,,,,,,,,,,,,,,,,,,,,,,,,,,,,,,,
,,,,9,1.8732,,,,,,82,cake,kitchen,,90483,001,2022-04-28_22h09.21.949,SPAMnetsValid,2021.1.4,MacIntel,59.99520038,,,,,,,,,,,,,9,1.8732,0,90,90,96,1,,,,,,,,,,,,,,,,,,,,,,,,,,,,,,,,,,,,,,,,,,,,,,,,,,,,,,,,,,,,,,,,,,,,,,
,,,,9,1.5549,,,,,,192,microwave,microwave,CHECK,90483,001,2022-04-28_22h09.21.949,SPAMnetsValid,2021.1.4,MacIntel,59.99520038,,,,,,,,,,,,,9,1.5549,0,91,91,53,1,,,,,,,,,,,,,,,,,,,,,,,,,,,,,,,,,,,,,,,,,,,,,,,,,,,,,,,,,,,,,,,,,,,,,,
,,,,6,6.2729,,,,,,1,rose,yogurt,,90483,001,2022-04-28_22h09.21.949,SPAMnetsValid,2021.1.4,MacIntel,59.99520038,,,,,,,,,,,,,6,6.2729,0,92,92,55,1,,,,,,,,,,,,,,,,,,,,,,,,,,,,,,,,,,,,,,,,,,,,,,,,,,,,,,,,,,,,,,,,,,,,,,
,,,,2,1.4735,,,,,,86,oven,rose,,90483,001,2022-04-28_22h09.21.949,SPAMnetsValid,2021.1.4,MacIntel,59.99520038,,,,,,,,,,,,,2,1.4735,0,93,93,79,1,,,,,,,,,,,,,,,,,,,,,,,,,,,,,,,,,,,,,,,,,,,,,,,,,,,,,,,,,,,,,,,,,,,,,,
,,,,3,1.788,,,,,,27,cactus,cookie,,90483,001,2022-04-28_22h09.21.949,SPAMnetsValid,2021.1.4,MacIntel,59.99520038,,,,,,,,,,,,,3,1.788,0,94,94,17,1,,,,,,,,,,,,,,,,,,,,,,,,,,,,,,,,,,,,,,,,,,,,,,,,,,,,,,,,,,,,,,,,,,,,,,
,,,,7,1.307,,,,,,29,chocolate,melon,,90483,001,2022-04-28_22h09.21.949,SPAMnetsValid,2021.1.4,MacIntel,59.99520038,,,,,,,,,,,,,7,1.307,0,95,95,34,1,,,,,,,,,,,,,,,,,,,,,,,,,,,,,,,,,,,,,,,,,,,,,,,,,,,,,,,,,,,,,,,,,,,,,,
,,,,3,9.8241,,,,,,80,chocolate,tree,,90483,001,2022-04-28_22h09.21.949,SPAMnetsValid,2021.1.4,MacIntel,59.99520038,,,,,,,,,,,,,3,9.8241,0,96,96,89,1,,,,,,,,,,,,,,,,,,,,,,,,,,,,,,,,,,,,,,,,,,,,,,,,,,,,,,,,,,,,,,,,,,,,,,
,,,,,,,,,,,,,,,90483,001,2022-04-28_22h09.21.949,SPAMnetsValid,2021.1.4,MacIntel,59.99520038,,,,,,,,,,,,,,,,,,,,0,0,0,0,1,,,,,,,,,,,,,,,,,,,,,,,,,,,,,,,,,,,,,,,,,,,,,,,,,,,,,,,,,,,,,,,,,
,,,,,,,,,,,,,,,90483,001,2022-04-28_22h09.21.949,SPAMnetsValid,2021.1.4,MacIntel,59.99520038,,,,,,0,1,1,0,1,1,0,,,,,,,,,,,,,,,,,,,,,,,,,,,,,,,,,,,,,,,,,,,,,,,,,,,,,,,,,,,,,,,,,,,,,,,,,,,,,
,,,,,,,,,,,,,,,90483,001,2022-04-28_22h09.21.949,SPAMnetsValid,2021.1.4,MacIntel,59.99520038,,,,,,,,,,,,,,,,,,,,,,,,,3,3.8287,0,0,0,0,1,rancor,forbearance,ridicule,malice,bravery,3,,,,,,,,,,,,,,,,,,,,,,,,,,,,,,,,,,,,,,,,,,,,,,,,,,,,
,,,,,,,,,,,,,,,90483,001,2022-04-28_22h09.21.949,SPAMnetsValid,2021.1.4,MacIntel,59.99520038,,,,,,,,,,,,,,,,,,,,,,,,,4,3.0072,0,1,1,1,1,raucous,empty,quiet,smooth,harsh,4,,,,,,,,,,,,,,,,,,,,,,,,,,,,,,,,,,,,,,,,,,,,,,,,,,,,
,,,,,,,,,,,,,,,90483,001,2022-04-28_22h09.21.949,SPAMnetsValid,2021.1.4,MacIntel,59.99520038,,,,,,,,,,,,,,,,,,,,,,,,,3,3.8751,0,2,2,2,1,gargoyle,oil,medicine,carved waterspout,ugly building,3,,,,,,,,,,,,,,,,,,,,,,,,,,,,,,,,,,,,,,,,,,,,,,,,,,,,
,,,,,,,,,,,,,,,90483,001,2022-04-28_22h09.21.949,SPAMnetsValid,2021.1.4,MacIntel,59.99520038,,,,,,,,,,,,,,,,,,,,,,,,,3,4.5597,0,3,3,3,1,recrudesce,purify,renew activity,lack refinement,crush,2,,,,,,,,,,,,,,,,,,,,,,,,,,,,,,,,,,,,,,,,,,,,,,,,,,,,
,,,,,,,,,,,,,,,90483,001,2022-04-28_22h09.21.949,SPAMnetsValid,2021.1.4,MacIntel,59.99520038,,,,,,,,,,,,,,,,,,,,,,,,,1,4.8567,0,4,4,4,1,specious,"plausible, but not genuine",noteworthy,class or variety,roomy,1,,,,,,,,,,,,,,,,,,,,,,,,,,,,,,,,,,,,,,,,,,,,,,,,,,,,
,,,,,,,,,,,,,,,90483,001,2022-04-28_22h09.21.949,SPAMnetsValid,2021.1.4,MacIntel,59.99520038,,,,,,,,,,,,,,,,,,,,,,,,,3,2.2571,0,5,5,5,1,bauble,bubble,showy plaything,idle talk,confusion,2,,,,,,,,,,,,,,,,,,,,,,,,,,,,,,,,,,,,,,,,,,,,,,,,,,,,
,,,,,,,,,,,,,,,90483,001,2022-04-28_22h09.21.949,SPAMnetsValid,2021.1.4,MacIntel,59.99520038,,,,,,,,,,,,,,,,,,,,,,,,,2,6.6712,0,6,6,6,1,prolific,scarce,producing abundantly,reckless,speaking profanely,2,,,,,,,,,,,,,,,,,,,,,,,,,,,,,,,,,,,,,,,,,,,,,,,,,,,,
,,,,,,,,,,,,,,,90483,001,2022-04-28_22h09.21.949,SPAMnetsValid,2021.1.4,MacIntel,59.99520038,,,,,,,,,,,,,,,,,,,,,,,,,2,4.5421,0,7,7,7,1,opulent,party,wealthy,happy frame of mind,semiprecious stone,2,,,,,,,,,,,,,,,,,,,,,,,,,,,,,,,,,,,,,,,,,,,,,,,,,,,,
,,,,,,,,,,,,,,,90483,001,2022-04-28_22h09.21.949,SPAMnetsValid,2021.1.4,MacIntel,59.99520038,,,,,,,,,,,,,,,,,,,,,,,,,4,3.158,0,8,8,8,1,coercion,conspiracy,strategy,restraint,attraction,3,,,,,,,,,,,,,,,,,,,,,,,,,,,,,,,,,,,,,,,,,,,,,,,,,,,,
,,,,,,,,,,,,,,,90483,001,2022-04-28_22h09.21.949,SPAMnetsValid,2021.1.4,MacIntel,59.99520038,,,,,,,,,,,,,,,,,,,,,,,,,4,3.1068,0,9,9,9,1,hiatus,animal,calamity,dread,gap,4,,,,,,,,,,,,,,,,,,,,,,,,,,,,,,,,,,,,,,,,,,,,,,,,,,,,
,,,,,,,,,,,,,,,90483,001,2022-04-28_22h09.21.949,SPAMnetsValid,2021.1.4,MacIntel,59.99520038,,,,,,,,,,,,,,,,,,,,,,,,,3,7.9906,0,10,10,10,1,germane,microbe,contagious,relevant,different,3,,,,,,,,,,,,,,,,,,,,,,,,,,,,,,,,,,,,,,,,,,,,,,,,,,,,
,,,,,,,,,,,,,,,90483,001,2022-04-28_22h09.21.949,SPAMnetsValid,2021.1.4,MacIntel,59.99520038,,,,,,,,,,,,,,,,,,,,,,,,,2,3.2063,0,11,11,11,1,perfunctory,fundamental,formal,superficial,careful,3,,,,,,,,,,,,,,,,,,,,,,,,,,,,,,,,,,,,,,,,,,,,,,,,,,,,
,,,,,,,,,,,,,,,90483,001,2022-04-28_22h09.21.949,SPAMnetsValid,2021.1.4,MacIntel,59.99520038,,,,,,,,,,,,,,,,,,,,,,,,,4,4.8738,0,12,12,12,1,diverge,reveal,chant,distract the attention of,differ or turn off from,4,,,,,,,,,,,,,,,,,,,,,,,,,,,,,,,,,,,,,,,,,,,,,,,,,,,,
,,,,,,,,,,,,,,,90483,001,2022-04-28_22h09.21.949,SPAMnetsValid,2021.1.4,MacIntel,59.99520038,,,,,,,,,,,,,,,,,,,,,,,,,4,2.9567,0,13,13,13,1,evoke,take away,anger,connect,bring out,4,,,,,,,,,,,,,,,,,,,,,,,,,,,,,,,,,,,,,,,,,,,,,,,,,,,,
,,,,,,,,,,,,,,,90483,001,2022-04-28_22h09.21.949,SPAMnetsValid,2021.1.4,MacIntel,59.99520038,,,,,,,,,,,,,,,,,,,,,,,,,1,2.8248,0,14,14,14,1,pertinent,relevant,lying next to,necessary,bold,1,,,,,,,,,,,,,,,,,,,,,,,,,,,,,,,,,,,,,,,,,,,,,,,,,,,,
,,,,,,,,,,,,,,,90483,001,2022-04-28_22h09.21.949,SPAMnetsValid,2021.1.4,MacIntel,59.99520038,,,,,,,,,,,,,,,,,,,,,,,,,2,3.1746,0,15,15,15,1,holocaust,entirety,destruction,saintly,price,2,,,,,,,,,,,,,,,,,,,,,,,,,,,,,,,,,,,,,,,,,,,,,,,,,,,,
,,,,,,,,,,,,,,,90483,001,2022-04-28_22h09.21.949,SPAMnetsValid,2021.1.4,MacIntel,59.99520038,,,,,,,,,,,,,,,,,,,,,,,,,,,0,16,16,16,1,piquant,mellow,fish,pungent,cloth,3,,,,,,,,,,,,,,,,,,,,,,,,,,,,,,,,,,,,,,,,,,,,,,,,,,,,
,,,,,,,,,,,,,,,90483,001,2022-04-28_22h09.21.949,SPAMnetsValid,2021.1.4,MacIntel,59.99520038,,,,,,,,,,,,,,,,,,,,,,,,,1,7.405,0,17,17,17,1,firmament,foundation,heavens,strong,glue,2,,,,,,,,,,,,,,,,,,,,,,,,,,,,,,,,,,,,,,,,,,,,,,,,,,,,
,,,,,,,,,,,,,,,90483,001,2022-04-28_22h09.21.949,SPAMnetsValid,2021.1.4,MacIntel,59.99520038,,,,,,,,,,,,,,,,,,,,,,,,,,,,,,,,,,,,,,4,5.7186,0,0,0,0,1,marketable,partisan,jocular,marriageable,salable,essential,4,,,,,,,,,,,,,,,,,,,,,,,,,,,,,,,,,,,,,,
,,,,,,,,,,,,,,,90483,001,2022-04-28_22h09.21.949,SPAMnetsValid,2021.1.4,MacIntel,59.99520038,,,,,,,,,,,,,,,,,,,,,,,,,,,,,,,,,,,,,,5,2.7906,0,1,1,1,1,cottontail,squirrel,poplar,boa,marshy plant,rabbit,5,,,,,,,,,,,,,,,,,,,,,,,,,,,,,,,,,,,,,,
,,,,,,,,,,,,,,,90483,001,2022-04-28_22h09.21.949,SPAMnetsValid,2021.1.4,MacIntel,59.99520038,,,,,,,,,,,,,,,,,,,,,,,,,,,,,,,,,,,,,,4,4.0907,0,2,2,2,1,boggy,afraid,false,marshy,dense,black,3,,,,,,,,,,,,,,,,,,,,,,,,,,,,,,,,,,,,,,
,,,,,,,,,,,,,,,90483,001,2022-04-28_22h09.21.949,SPAMnetsValid,2021.1.4,MacIntel,59.99520038,,,,,,,,,,,,,,,,,,,,,,,,,,,,,,,,,,,,,,4,8.3226,0,3,3,3,1,gruesomeness,blackness,falseness,vindictiveness,drunkenness,ghastliness,5,,,,,,,,,,,,,,,,,,,,,,,,,,,,,,,,,,,,,,
,,,,,,,,,,,,,,,90483,001,2022-04-28_22h09.21.949,SPAMnetsValid,2021.1.4,MacIntel,59.99520038,,,,,,,,,,,,,,,,,,,,,,,,,,,,,,,,,,,,,,3,5.5234,0,4,4,4,1,loathing,diffidence,laziness,abhorrence,cleverness,comfort,3,,,,,,,,,,,,,,,,,,,,,,,,,,,,,,,,,,,,,,
,,,,,,,,,,,,,,,90483,001,2022-04-28_22h09.21.949,SPAMnetsValid,2021.1.4,MacIntel,59.99520038,,,,,,,,,,,,,,,,,,,,,,,,,,,,,,,,,,,,,,2,3.6426,0,5,5,5,1,bantam,fowl,ridicule,cripple,vegetable,ensign,1,,,,,,,,,,,,,,,,,,,,,,,,,,,,,,,,,,,,,,
,,,,,,,,,,,,,,,90483,001,2022-04-28_22h09.21.949,SPAMnetsValid,2021.1.4,MacIntel,59.99520038,,,,,,,,,,,,,,,,,,,,,,,,,,,,,,,,,,,,,,5,2.557,0,6,6,6,1,evoke,wake up,surrender,reconnoiter,transcend,call forth,5,,,,,,,,,,,,,,,,,,,,,,,,,,,,,,,,,,,,,,
,,,,,,,,,,,,,,,90483,001,2022-04-28_22h09.21.949,SPAMnetsValid,2021.1.4,MacIntel,59.99520038,,,,,,,,,,,,,,,,,,,,,,,,,,,,,,,,,,,,,,3,4.4238,0,7,7,7,1,unobtrusive,unintelligent,epileptic,illogical,lineal,modest,5,,,,,,,,,,,,,,,,,,,,,,,,,,,,,,,,,,,,,,
,,,,,,,,,,,,,,,90483,001,2022-04-28_22h09.21.949,SPAMnetsValid,2021.1.4,MacIntel,59.99520038,,,,,,,,,,,,,,,,,,,,,,,,,,,,,,,,,,,,,,4,3.042,0,8,8,8,1,terrain,ice cream,final test,tractor,area of ground,weight,4,,,,,,,,,,,,,,,,,,,,,,,,,,,,,,,,,,,,,,
,,,,,,,,,,,,,,,90483,001,2022-04-28_22h09.21.949,SPAMnetsValid,2021.1.4,MacIntel,59.99520038,,,,,,,,,,,,,,,,,,,,,,,,,,,,,,,,,,,,,,1,2.438,0,9,9,9,1,capriciousness,stubbornness,courage,whimsicality,amazement,greediness,3,,,,,,,,,,,,,,,,,,,,,,,,,,,,,,,,,,,,,,
,,,,,,,,,,,,,,,90483,001,2022-04-28_22h09.21.949,SPAMnetsValid,2021.1.4,MacIntel,59.99520038,,,,,,,,,,,,,,,,,,,,,,,,,,,,,,,,,,,,,,2,5.4245,0,10,10,10,1,maelstrom,slander,whirlpool,enmity,armor,majolica,2,,,,,,,,,,,,,,,,,,,,,,,,,,,,,,,,,,,,,,
,,,,,,,,,,,,,,,90483,001,2022-04-28_22h09.21.949,SPAMnetsValid,2021.1.4,MacIntel,59.99520038,,,,,,,,,,,,,,,,,,,,,,,,,,,,,,,,,,,,,,5,3.7587,0,11,11,11,1,tentative,critical,conclusive,authentic,provisional,apprehensive,4,,,,,,,,,,,,,,,,,,,,,,,,,,,,,,,,,,,,,,
,,,,,,,,,,,,,,,90483,001,2022-04-28_22h09.21.949,SPAMnetsValid,2021.1.4,MacIntel,59.99520038,,,,,,,,,,,,,,,,,,,,,,,,,,,,,,,,,,,,,,4,4.5409,0,12,12,12,1,placate,rehabilitate,plagiarize,depredate,apprise,conciliate,5,,,,,,,,,,,,,,,,,,,,,,,,,,,,,,,,,,,,,,
,,,,,,,,,,,,,,,90483,001,2022-04-28_22h09.21.949,SPAMnetsValid,2021.1.4,MacIntel,59.99520038,,,,,,,,,,,,,,,,,,,,,,,,,,,,,,,,,,,,,,3,4.6079,0,13,13,13,1,surcease,enlightenment,cessation,inattention,censor,substitution,2,,,,,,,,,,,,,,,,,,,,,,,,,,,,,,,,,,,,,,
,,,,,,,,,,,,,,,90483,001,2022-04-28_22h09.21.949,SPAMnetsValid,2021.1.4,MacIntel,59.99520038,,,,,,,,,,,,,,,,,,,,,,,,,,,,,,,,,,,,,,4,5.1567,0,14,14,14,1,apathetic,wandering,impassive,hateful,prophetic,overflowing,2,,,,,,,,,,,,,,,,,,,,,,,,,,,,,,,,,,,,,,
,,,,,,,,,,,,,,,90483,001,2022-04-28_22h09.21.949,SPAMnetsValid,2021.1.4,MacIntel,59.99520038,,,,,,,,,,,,,,,,,,,,,,,,,,,,,,,,,,,,,,4,6.9931,0,15,15,15,1,paternoster,paternalism,patricide,malediction,benediction,prayer,5,,,,,,,,,,,,,,,,,,,,,,,,,,,,,,,,,,,,,,
,,,,,,,,,,,,,,,90483,001,2022-04-28_22h09.21.949,SPAMnetsValid,2021.1.4,MacIntel,59.99520038,,,,,,,,,,,,,,,,,,,,,,,,,,,,,,,,,,,,,,4,5.0569,0,16,16,16,1,opalescence,opulence,senescence,bankruptcy,iridescence,assiduity,4,,,,,,,,,,,,,,,,,,,,,,,,,,,,,,,,,,,,,,
,,,,,,,,,,,,,,,90483,001,2022-04-28_22h09.21.949,SPAMnetsValid,2021.1.4,MacIntel,59.99520038,,,,,,,,,,,,,,,,,,,,,,,,,,,,,,,,,,,,,,2,3.425,0,17,17,17,1,lush,stupid,luxurious,hazy,putrid,languishing,2,,,,,,,,,,,,,,,,,,,,,,,,,,,,,,,,,,,,,,
,,,,,,,,,,,,,,,90483,001,2022-04-28_22h09.21.949,SPAMnetsValid,2021.1.4,MacIntel,59.99520038,,,,,,,,,,,,,,,,,,,,,,,,,,,,,,,,,,,,,,3,5.0246,0,18,18,18,1,curtailment,expenditure,abandonment,abridgment,improvement,forgery,3,,,,,,,,,,,,,,,,,,,,,,,,,,,,,,,,,,,,,,
,,,,,,,,,,,,,,,90483,001,2022-04-28_22h09.21.949,SPAMnetsValid,2021.1.4,MacIntel,59.99520038,,,,,,,,,,,,,,,,,,,,,,,,,,,,,,,,,,,,,,2,5.091,0,19,19,19,1,perversity,adversity,perviousness,travesty,waywardness,gentility,4,,,,,,,,,,,,,,,,,,,,,,,,,,,,,,,,,,,,,,
,,,,,,,,,,,,,,,90483,001,2022-04-28_22h09.21.949,SPAMnetsValid,2021.1.4,MacIntel,59.99520038,,,,,,,,,,,,,,,,,,,,,,,,,,,,,,,,,,,,,,3,3.1211,0,20,20,20,1,calumnious,complimentary,analogous,slanderous,tempestuous,magnanimous,3,,,,,,,,,,,,,,,,,,,,,,,,,,,,,,,,,,,,,,
,,,,,,,,,,,,,,,90483,001,2022-04-28_22h09.21.949,SPAMnetsValid,2021.1.4,MacIntel,59.99520038,,,,,,,,,,,,,,,,,,,,,,,,,,,,,,,,,,,,,,5,6.3419,0,21,21,21,1,illiberality,bigotry,imbecility,illegibility,cautery,immaturity,1,,,,,,,,,,,,,,,,,,,,,,,,,,,,,,,,,,,,,,
,,,,,,,,,,,,,,,90483,001,2022-04-28_22h09.21.949,SPAMnetsValid,2021.1.4,MacIntel,59.99520038,,,,,,,,,,,,,,,,,,,,,,,,,,,,,,,,,,,,,,2,1.9896,0,22,22,22,1,clabber,rejoice,gossip,curdle,crow,hobble,3,,,,,,,,,,,,,,,,,,,,,,,,,,,,,,,,,,,,,,
,,,,,,,,,,,,,,,90483,001,2022-04-28_22h09.21.949,SPAMnetsValid,2021.1.4,MacIntel,59.99520038,,,,,,,,,,,,,,,,,,,,,,,,,,,,,,,,,,,,,,3,4.3401,0,23,23,23,1,sedulousness,diligence,credulousness,seduction,perilousness,frankness,1,,,,,,,,,,,,,,,,,,,,,,,,,,,,,,,,,,,,,,
,,,,,,,,,,,,,,,90483,001,2022-04-28_22h09.21.949,SPAMnetsValid,2021.1.4,MacIntel,59.99520038,,,,,,,,,,,,,,,,,,,,,,,,,,,,,,,,,,,,,,,,,,,,,,,,,,,,sleep,pillow,0,0,0,0,1,,,,,,,,,,,,,,,,,,,,,,,,,,,,,,,
,,,,,,,,,,,,,,,90483,001,2022-04-28_22h09.21.949,SPAMnetsValid,2021.1.4,MacIntel,59.99520038,,,,,,,,,,,,,,,,,,,,,,,,,,,,,,,,,,,,,,,,,,,,,,,,,,,,fight,pillow,1,0,1,0,1,,,,,,,,,,,,,,,,,,,,,,,,,,,,,,,
,,,,,,,,,,,,,,,90483,001,2022-04-28_22h09.21.949,SPAMnetsValid,2021.1.4,MacIntel,59.99520038,,,,,,,,,,,,,,,,,,,,,,,,,,,,,,,,,,,,,,,,,,,,,,,,,,,,comfort,pillow,2,0,2,0,1,,,,,,,,,,,,,,,,,,,,,,,,,,,,,,,
,,,,,,,,,,,,,,,90483,001,2022-04-28_22h09.21.949,SPAMnetsValid,2021.1.4,MacIntel,59.99520038,,,,,,,,,,,,,,,,,,,,,,,,,,,,,,,,,,,,,,,,,,,,,,,,,,,,padding,pillow,3,0,3,0,1,,,,,,,,,,,,,,,,,,,,,,,,,,,,,,,
,,,,,,,,,,,,,,,90483,001,2022-04-28_22h09.21.949,SPAMnetsValid,2021.1.4,MacIntel,59.99520038,,,,,,,,,,,,,,,,,,,,,,,,,,,,,,,,,,,,,,,,,,,,,,,,,,,,fort,pillow,4,0,4,0,1,,,,,,,,,,,,,,,,,,,,,,,,,,,,,,,
,,,,,,,,,,,,,,,90483,001,2022-04-28_22h09.21.949,SPAMnetsValid,2021.1.4,MacIntel,59.99520038,,,,,,,,,,,,,,,,,,,,,,,,,,,,,,,,,,,,,,,,,,,,,,,,,,,,helmet,pillow,5,0,5,0,1,,,,,,,,,,,,,,,,,,,,,,,,,,,,,,,
,,,,,,,,,,,,,,,90483,001,2022-04-28_22h09.21.949,SPAMnetsValid,2021.1.4,MacIntel,59.99520038,,,,,,,,,,,,,,,,,,,,,,,,,,,,,,,,,,,,,,,,,,,,,,,,,,,,seat cover,pillow,6,0,6,0,1,,,,,,,,,,,,,,,,,,,,,,,,,,,,,,,
,,,,,,,,,,,,,,,90483,001,2022-04-28_22h09.21.949,SPAMnetsValid,2021.1.4,MacIntel,59.99520038,,,,,,,,,,,,,,,,,,,,,,,,,,,,,,,,,,,,,,,,,,,,,,,,,,,,door stopper ,pillow,7,0,7,0,1,,,,,,,,,,,,,,,,,,,,,,,,,,,,,,,
,,,,,,,,,,,,,,,90483,001,2022-04-28_22h09.21.949,SPAMnetsValid,2021.1.4,MacIntel,59.99520038,,,,,,,,,,,,,,,,,,,,,,,,,,,,,,,,,,,,,,,,,,,,,,,,,,,,mop,pillow,8,0,8,0,1,,,,,,,,,,,,,,,,,,,,,,,,,,,,,,,
,,,,,,,,,,,,,,,90483,001,2022-04-28_22h09.21.949,SPAMnetsValid,2021.1.4,MacIntel,59.99520038,,,,,,,,,,,,,,,,,,,,,,,,,,,,,,,,,,,,,,,,,,,,,,,,,,,,towel ,pillow,9,0,9,0,1,,,,,,,,,,,,,,,,,,,,,,,,,,,,,,,
,,,,,,,,,,,,,,,90483,001,2022-04-28_22h09.21.949,SPAMnetsValid,2021.1.4,MacIntel,59.99520038,,,,,,,,,,,,,,,,,,,,,,,,,,,,,,,,,,,,,,,,,,,,,,,,,,,,eye mask ,pillow,10,0,10,0,1,,,,,,,,,,,,,,,,,,,,,,,,,,,,,,,
,,,,,,,,,,,,,,,90483,001,2022-04-28_22h09.21.949,SPAMnetsValid,2021.1.4,MacIntel,59.99520038,,,,,,,,,,,,,,,,,,,,,,,,,,,,,,,,,,,,,,,,,,,,,,,,,,,,clothing,pillow,11,0,11,0,1,,,,,,,,,,,,,,,,,,,,,,,,,,,,,,,
,,,,,,,,,,,,,,,90483,001,2022-04-28_22h09.21.949,SPAMnetsValid,2021.1.4,MacIntel,59.99520038,,,,,,,,,,,,,,,,,,,,,,,,,,,,,,,,,,,,,,,,,,,,,,,,,,,,pet ,pillow,12,0,12,0,1,,,,,,,,,,,,,,,,,,,,,,,,,,,,,,,
,,,,,,,,,,,,,,,90483,001,2022-04-28_22h09.21.949,SPAMnetsValid,2021.1.4,MacIntel,59.99520038,,,,,,,,,,,,,,,,,,,,,,,,,,,,,,,,,,,,,,,,,,,,,,,,,,,,friend,pillow,13,0,13,0,1,,,,,,,,,,,,,,,,,,,,,,,,,,,,,,,
,,,,,,,,,,,,,,,90483,001,2022-04-28_22h09.21.949,SPAMnetsValid,2021.1.4,MacIntel,59.99520038,,,,,,,,,,,,,,,,,,,,,,,,,,,,,,,,,,,,,,,,,,,,,,,,,,,,punching bag,pillow,14,0,14,0,1,,,,,,,,,,,,,,,,,,,,,,,,,,,,,,,
,,,,,,,,,,,,,,,90483,001,2022-04-28_22h09.21.949,SPAMnetsValid,2021.1.4,MacIntel,59.99520038,,,,,,,,,,,,,,,,,,,,,,,,,,,,,,,,,,,,,,,,,,,,,,,,,,,,wall decoration,pillow,15,0,15,0,1,,,,,,,,,,,,,,,,,,,,,,,,,,,,,,,
,,,,,,,,,,,,,,,90483,001,2022-04-28_22h09.21.949,SPAMnetsValid,2021.1.4,MacIntel,59.99520038,,,,,,,,,,,,,,,,,,,,,,,,,,,,,,,,,,,,,,,,,,,,,,,,,,,,plate,pillow,16,0,16,0,1,,,,,,,,,,,,,,,,,,,,,,,,,,,,,,,
,,,,,,,,,,,,,,,90483,001,2022-04-28_22h09.21.949,SPAMnetsValid,2021.1.4,MacIntel,59.99520038,,,,,,,,,,,,,,,,,,,,,,,,,,,,,,,,,,,,,,,,,,,,,,,,,,,,dog toy,pillow,17,0,17,0,1,,,,,,,,,,,,,,,,,,,,,,,,,,,,,,,
,,,,,,,,,,,,,,,90483,001,2022-04-28_22h09.21.949,SPAMnetsValid,2021.1.4,MacIntel,59.99520038,,,,,,,,,,,,,,,,,,,,,,,,,,,,,,,,,,,,,,,,,,,,,,,,,,,,,,,,,,,0,0,0,2,1,pillow,,,,,,,,,,,,,,,,,,,,,,,,,
,,,,,,,,,,,,,,,90483,001,2022-04-28_22h09.21.949,SPAMnetsValid,2021.1.4,MacIntel,59.99520038,,,,,,,,,,,,,,,,,,,,,,,,,,,,,,,,,,,,,,,,,,,,,,,,,,,,hat,bucket,0,0,0,0,1,,,,,,,,,,,,,,,,,,,,,,,,,,,,,,,
,,,,,,,,,,,,,,,90483,001,2022-04-28_22h09.21.949,SPAMnetsValid,2021.1.4,MacIntel,59.99520038,,,,,,,,,,,,,,,,,,,,,,,,,,,,,,,,,,,,,,,,,,,,,,,,,,,,vomit,bucket,1,0,1,0,1,,,,,,,,,,,,,,,,,,,,,,,,,,,,,,,
,,,,,,,,,,,,,,,90483,001,2022-04-28_22h09.21.949,SPAMnetsValid,2021.1.4,MacIntel,59.99520038,,,,,,,,,,,,,,,,,,,,,,,,,,,,,,,,,,,,,,,,,,,,,,,,,,,,chair,bucket,2,0,2,0,1,,,,,,,,,,,,,,,,,,,,,,,,,,,,,,,
,,,,,,,,,,,,,,,90483,001,2022-04-28_22h09.21.949,SPAMnetsValid,2021.1.4,MacIntel,59.99520038,,,,,,,,,,,,,,,,,,,,,,,,,,,,,,,,,,,,,,,,,,,,,,,,,,,,cup,bucket,3,0,3,0,1,,,,,,,,,,,,,,,,,,,,,,,,,,,,,,,
,,,,,,,,,,,,,,,90483,001,2022-04-28_22h09.21.949,SPAMnetsValid,2021.1.4,MacIntel,59.99520038,,,,,,,,,,,,,,,,,,,,,,,,,,,,,,,,,,,,,,,,,,,,,,,,,,,,large ice cube,bucket,4,0,4,0,1,,,,,,,,,,,,,,,,,,,,,,,,,,,,,,,
,,,,,,,,,,,,,,,90483,001,2022-04-28_22h09.21.949,SPAMnetsValid,2021.1.4,MacIntel,59.99520038,,,,,,,,,,,,,,,,,,,,,,,,,,,,,,,,,,,,,,,,,,,,,,,,,,,,weapon,bucket,5,0,5,0,1,,,,,,,,,,,,,,,,,,,,,,,,,,,,,,,
,,,,,,,,,,,,,,,90483,001,2022-04-28_22h09.21.949,SPAMnetsValid,2021.1.4,MacIntel,59.99520038,,,,,,,,,,,,,,,,,,,,,,,,,,,,,,,,,,,,,,,,,,,,,,,,,,,,wall art ,bucket,6,0,6,0,1,,,,,,,,,,,,,,,,,,,,,,,,,,,,,,,
,,,,,,,,,,,,,,,90483,001,2022-04-28_22h09.21.949,SPAMnetsValid,2021.1.4,MacIntel,59.99520038,,,,,,,,,,,,,,,,,,,,,,,,,,,,,,,,,,,,,,,,,,,,,,,,,,,,tv stand,bucket,7,0,7,0,1,,,,,,,,,,,,,,,,,,,,,,,,,,,,,,,
,,,,,,,,,,,,,,,90483,001,2022-04-28_22h09.21.949,SPAMnetsValid,2021.1.4,MacIntel,59.99520038,,,,,,,,,,,,,,,,,,,,,,,,,,,,,,,,,,,,,,,,,,,,,,,,,,,,big candle ,bucket,8,0,8,0,1,,,,,,,,,,,,,,,,,,,,,,,,,,,,,,,
,,,,,,,,,,,,,,,90483,001,2022-04-28_22h09.21.949,SPAMnetsValid,2021.1.4,MacIntel,59.99520038,,,,,,,,,,,,,,,,,,,,,,,,,,,,,,,,,,,,,,,,,,,,,,,,,,,,water baloon holder,bucket,9,0,9,0,1,,,,,,,,,,,,,,,,,,,,,,,,,,,,,,,
,,,,,,,,,,,,,,,90483,001,2022-04-28_22h09.21.949,SPAMnetsValid,2021.1.4,MacIntel,59.99520038,,,,,,,,,,,,,,,,,,,,,,,,,,,,,,,,,,,,,,,,,,,,,,,,,,,,child bath,bucket,10,0,10,0,1,,,,,,,,,,,,,,,,,,,,,,,,,,,,,,,
,,,,,,,,,,,,,,,90483,001,2022-04-28_22h09.21.949,SPAMnetsValid,2021.1.4,MacIntel,59.99520038,,,,,,,,,,,,,,,,,,,,,,,,,,,,,,,,,,,,,,,,,,,,,,,,,,,,weapon,bucket,11,0,11,0,1,,,,,,,,,,,,,,,,,,,,,,,,,,,,,,,
,,,,,,,,,,,,,,,90483,001,2022-04-28_22h09.21.949,SPAMnetsValid,2021.1.4,MacIntel,59.99520038,,,,,,,,,,,,,,,,,,,,,,,,,,,,,,,,,,,,,,,,,,,,,,,,,,,,art project,bucket,12,0,12,0,1,,,,,,,,,,,,,,,,,,,,,,,,,,,,,,,
,,,,,,,,,,,,,,,90483,001,2022-04-28_22h09.21.949,SPAMnetsValid,2021.1.4,MacIntel,59.99520038,,,,,,,,,,,,,,,,,,,,,,,,,,,,,,,,,,,,,,,,,,,,,,,,,,,,desk chair ,bucket,13,0,13,0,1,,,,,,,,,,,,,,,,,,,,,,,,,,,,,,,
,,,,,,,,,,,,,,,90483,001,2022-04-28_22h09.21.949,SPAMnetsValid,2021.1.4,MacIntel,59.99520038,,,,,,,,,,,,,,,,,,,,,,,,,,,,,,,,,,,,,,,,,,,,,,,,,,,,potty,bucket,14,0,14,0,1,,,,,,,,,,,,,,,,,,,,,,,,,,,,,,,
,,,,,,,,,,,,,,,90483,001,2022-04-28_22h09.21.949,SPAMnetsValid,2021.1.4,MacIntel,59.99520038,,,,,,,,,,,,,,,,,,,,,,,,,,,,,,,,,,,,,,,,,,,,,,,,,,,,shampoo holder ,bucket,15,0,15,0,1,,,,,,,,,,,,,,,,,,,,,,,,,,,,,,,
,,,,,,,,,,,,,,,90483,001,2022-04-28_22h09.21.949,SPAMnetsValid,2021.1.4,MacIntel,59.99520038,,,,,,,,,,,,,,,,,,,,,,,,,,,,,,,,,,,,,,,,,,,,,,,,,,,,small environment ,bucket,16,0,16,0,1,,,,,,,,,,,,,,,,,,,,,,,,,,,,,,,
,,,,,,,,,,,,,,,90483,001,2022-04-28_22h09.21.949,SPAMnetsValid,2021.1.4,MacIntel,59.99520038,,,,,,,,,,,,,,,,,,,,,,,,,,,,,,,,,,,,,,,,,,,,,,,,,,,,ecosphere ,bucket,17,0,17,0,1,,,,,,,,,,,,,,,,,,,,,,,,,,,,,,,
,,,,,,,,,,,,,,,90483,001,2022-04-28_22h09.21.949,SPAMnetsValid,2021.1.4,MacIntel,59.99520038,,,,,,,,,,,,,,,,,,,,,,,,,,,,,,,,,,,,,,,,,,,,,,,,,,,,,,,,,,,0,1,1,0,1,bucket,,,,,,,,,,,,,,,,,,,,,,,,,
,,,,,,,,,,,,,,,90483,001,2022-04-28_22h09.21.949,SPAMnetsValid,2021.1.4,MacIntel,59.99520038,,,,,,,,,,,,,,,,,,,,,,,,,,,,,,,,,,,,,,,,,,,,,,,,,,,,smelly ,candle,0,0,0,0,1,,,,,,,,,,,,,,,,,,,,,,,,,,,,,,,
,,,,,,,,,,,,,,,90483,001,2022-04-28_22h09.21.949,SPAMnetsValid,2021.1.4,MacIntel,59.99520038,,,,,,,,,,,,,,,,,,,,,,,,,,,,,,,,,,,,,,,,,,,,,,,,,,,,sexual moments,candle,1,0,1,0,1,,,,,,,,,,,,,,,,,,,,,,,,,,,,,,,
,,,,,,,,,,,,,,,90483,001,2022-04-28_22h09.21.949,SPAMnetsValid,2021.1.4,MacIntel,59.99520038,,,,,,,,,,,,,,,,,,,,,,,,,,,,,,,,,,,,,,,,,,,,,,,,,,,,light,candle,2,0,2,0,1,,,,,,,,,,,,,,,,,,,,,,,,,,,,,,,
,,,,,,,,,,,,,,,90483,001,2022-04-28_22h09.21.949,SPAMnetsValid,2021.1.4,MacIntel,59.99520038,,,,,,,,,,,,,,,,,,,,,,,,,,,,,,,,,,,,,,,,,,,,,,,,,,,,wax art ,candle,3,0,3,0,1,,,,,,,,,,,,,,,,,,,,,,,,,,,,,,,
,,,,,,,,,,,,,,,90483,001,2022-04-28_22h09.21.949,SPAMnetsValid,2021.1.4,MacIntel,59.99520038,,,,,,,,,,,,,,,,,,,,,,,,,,,,,,,,,,,,,,,,,,,,,,,,,,,,widdling ,candle,4,0,4,0,1,,,,,,,,,,,,,,,,,,,,,,,,,,,,,,,
,,,,,,,,,,,,,,,90483,001,2022-04-28_22h09.21.949,SPAMnetsValid,2021.1.4,MacIntel,59.99520038,,,,,,,,,,,,,,,,,,,,,,,,,,,,,,,,,,,,,,,,,,,,,,,,,,,,soap ,candle,5,0,5,0,1,,,,,,,,,,,,,,,,,,,,,,,,,,,,,,,
,,,,,,,,,,,,,,,90483,001,2022-04-28_22h09.21.949,SPAMnetsValid,2021.1.4,MacIntel,59.99520038,,,,,,,,,,,,,,,,,,,,,,,,,,,,,,,,,,,,,,,,,,,,,,,,,,,,face mask ,candle,6,0,6,0,1,,,,,,,,,,,,,,,,,,,,,,,,,,,,,,,
,,,,,,,,,,,,,,,90483,001,2022-04-28_22h09.21.949,SPAMnetsValid,2021.1.4,MacIntel,59.99520038,,,,,,,,,,,,,,,,,,,,,,,,,,,,,,,,,,,,,,,,,,,,,,,,,,,,letter stamp,candle,7,0,7,0,1,,,,,,,,,,,,,,,,,,,,,,,,,,,,,,,
,,,,,,,,,,,,,,,90483,001,2022-04-28_22h09.21.949,SPAMnetsValid,2021.1.4,MacIntel,59.99520038,,,,,,,,,,,,,,,,,,,,,,,,,,,,,,,,,,,,,,,,,,,,,,,,,,,,fire starter,candle,8,0,8,0,1,,,,,,,,,,,,,,,,,,,,,,,,,,,,,,,
,,,,,,,,,,,,,,,90483,001,2022-04-28_22h09.21.949,SPAMnetsValid,2021.1.4,MacIntel,59.99520038,,,,,,,,,,,,,,,,,,,,,,,,,,,,,,,,,,,,,,,,,,,,,,,,,,,,arsen ,candle,9,0,9,0,1,,,,,,,,,,,,,,,,,,,,,,,,,,,,,,,
,,,,,,,,,,,,,,,90483,001,2022-04-28_22h09.21.949,SPAMnetsValid,2021.1.4,MacIntel,59.99520038,,,,,,,,,,,,,,,,,,,,,,,,,,,,,,,,,,,,,,,,,,,,,,,,,,,,dinner ,candle,10,0,10,0,1,,,,,,,,,,,,,,,,,,,,,,,,,,,,,,,
,,,,,,,,,,,,,,,90483,001,2022-04-28_22h09.21.949,SPAMnetsValid,2021.1.4,MacIntel,59.99520038,,,,,,,,,,,,,,,,,,,,,,,,,,,,,,,,,,,,,,,,,,,,,,,,,,,,statement piece ,candle,11,0,11,0,1,,,,,,,,,,,,,,,,,,,,,,,,,,,,,,,
,,,,,,,,,,,,,,,90483,001,2022-04-28_22h09.21.949,SPAMnetsValid,2021.1.4,MacIntel,59.99520038,,,,,,,,,,,,,,,,,,,,,,,,,,,,,,,,,,,,,,,,,,,,,,,,,,,,hat ,candle,12,0,12,0,1,,,,,,,,,,,,,,,,,,,,,,,,,,,,,,,
,,,,,,,,,,,,,,,90483,001,2022-04-28_22h09.21.949,SPAMnetsValid,2021.1.4,MacIntel,59.99520038,,,,,,,,,,,,,,,,,,,,,,,,,,,,,,,,,,,,,,,,,,,,,,,,,,,,haircut ,candle,13,0,13,0,1,,,,,,,,,,,,,,,,,,,,,,,,,,,,,,,
,,,,,,,,,,,,,,,90483,001,2022-04-28_22h09.21.949,SPAMnetsValid,2021.1.4,MacIntel,59.99520038,,,,,,,,,,,,,,,,,,,,,,,,,,,,,,,,,,,,,,,,,,,,,,,,,,,,aromatherapy ,candle,14,0,14,0,1,,,,,,,,,,,,,,,,,,,,,,,,,,,,,,,
,,,,,,,,,,,,,,,90483,001,2022-04-28_22h09.21.949,SPAMnetsValid,2021.1.4,MacIntel,59.99520038,,,,,,,,,,,,,,,,,,,,,,,,,,,,,,,,,,,,,,,,,,,,,,,,,,,,,,,,,,,0,2,2,1,1,candle,,,,,,,,,,,,,,,,,,,,,,,,,
,,,,,,,,,,,,,,,90483,001,2022-04-28_22h09.21.949,SPAMnetsValid,2021.1.4,MacIntel,59.99520038,,,,,,,,,,,,,,,,,,,,,,,,,,,,,,,,,,,,,,,,,,,,,,,,,,,,,,,,,,,,,,,,,dog,Animals,0,0,0,0,1,,,,,,,,,,,,,,,,,,
,,,,,,,,,,,,,,,90483,001,2022-04-28_22h09.21.949,SPAMnetsValid,2021.1.4,MacIntel,59.99520038,,,,,,,,,,,,,,,,,,,,,,,,,,,,,,,,,,,,,,,,,,,,,,,,,,,,,,,,,,,,,,,,,cat,Animals,1,0,1,0,1,,,,,,,,,,,,,,,,,,
,,,,,,,,,,,,,,,90483,001,2022-04-28_22h09.21.949,SPAMnetsValid,2021.1.4,MacIntel,59.99520038,,,,,,,,,,,,,,,,,,,,,,,,,,,,,,,,,,,,,,,,,,,,,,,,,,,,,,,,,,,,,,,,,snake,Animals,2,0,2,0,1,,,,,,,,,,,,,,,,,,
,,,,,,,,,,,,,,,90483,001,2022-04-28_22h09.21.949,SPAMnetsValid,2021.1.4,MacIntel,59.99520038,,,,,,,,,,,,,,,,,,,,,,,,,,,,,,,,,,,,,,,,,,,,,,,,,,,,,,,,,,,,,,,,,snail,Animals,3,0,3,0,1,,,,,,,,,,,,,,,,,,
,,,,,,,,,,,,,,,90483,001,2022-04-28_22h09.21.949,SPAMnetsValid,2021.1.4,MacIntel,59.99520038,,,,,,,,,,,,,,,,,,,,,,,,,,,,,,,,,,,,,,,,,,,,,,,,,,,,,,,,,,,,,,,,,shark ,Animals,4,0,4,0,1,,,,,,,,,,,,,,,,,,
,,,,,,,,,,,,,,,90483,001,2022-04-28_22h09.21.949,SPAMnetsValid,2021.1.4,MacIntel,59.99520038,,,,,,,,,,,,,,,,,,,,,,,,,,,,,,,,,,,,,,,,,,,,,,,,,,,,,,,,,,,,,,,,,fish ,Animals,5,0,5,0,1,,,,,,,,,,,,,,,,,,
,,,,,,,,,,,,,,,90483,001,2022-04-28_22h09.21.949,SPAMnetsValid,2021.1.4,MacIntel,59.99520038,,,,,,,,,,,,,,,,,,,,,,,,,,,,,,,,,,,,,,,,,,,,,,,,,,,,,,,,,,,,,,,,,lizard,Animals,6,0,6,0,1,,,,,,,,,,,,,,,,,,
,,,,,,,,,,,,,,,90483,001,2022-04-28_22h09.21.949,SPAMnetsValid,2021.1.4,MacIntel,59.99520038,,,,,,,,,,,,,,,,,,,,,,,,,,,,,,,,,,,,,,,,,,,,,,,,,,,,,,,,,,,,,,,,,hampster,Animals,7,0,7,0,1,,,,,,,,,,,,,,,,,,
,,,,,,,,,,,,,,,90483,001,2022-04-28_22h09.21.949,SPAMnetsValid,2021.1.4,MacIntel,59.99520038,,,,,,,,,,,,,,,,,,,,,,,,,,,,,,,,,,,,,,,,,,,,,,,,,,,,,,,,,,,,,,,,,alligator ,Animals,8,0,8,0,1,,,,,,,,,,,,,,,,,,
,,,,,,,,,,,,,,,90483,001,2022-04-28_22h09.21.949,SPAMnetsValid,2021.1.4,MacIntel,59.99520038,,,,,,,,,,,,,,,,,,,,,,,,,,,,,,,,,,,,,,,,,,,,,,,,,,,,,,,,,,,,,,,,,tiger ,Animals,9,0,9,0,1,,,,,,,,,,,,,,,,,,
,,,,,,,,,,,,,,,90483,001,2022-04-28_22h09.21.949,SPAMnetsValid,2021.1.4,MacIntel,59.99520038,,,,,,,,,,,,,,,,,,,,,,,,,,,,,,,,,,,,,,,,,,,,,,,,,,,,,,,,,,,,,,,,,lion,Animals,10,0,10,0,1,,,,,,,,,,,,,,,,,,
,,,,,,,,,,,,,,,90483,001,2022-04-28_22h09.21.949,SPAMnetsValid,2021.1.4,MacIntel,59.99520038,,,,,,,,,,,,,,,,,,,,,,,,,,,,,,,,,,,,,,,,,,,,,,,,,,,,,,,,,,,,,,,,,cheeta ,Animals,11,0,11,0,1,,,,,,,,,,,,,,,,,,
,,,,,,,,,,,,,,,90483,001,2022-04-28_22h09.21.949,SPAMnetsValid,2021.1.4,MacIntel,59.99520038,,,,,,,,,,,,,,,,,,,,,,,,,,,,,,,,,,,,,,,,,,,,,,,,,,,,,,,,,,,,,,,,,sloth ,Animals,12,0,12,0,1,,,,,,,,,,,,,,,,,,
,,,,,,,,,,,,,,,90483,001,2022-04-28_22h09.21.949,SPAMnetsValid,2021.1.4,MacIntel,59.99520038,,,,,,,,,,,,,,,,,,,,,,,,,,,,,,,,,,,,,,,,,,,,,,,,,,,,,,,,,,,,,,,,,lemur ,Animals,13,0,13,0,1,,,,,,,,,,,,,,,,,,
,,,,,,,,,,,,,,,90483,001,2022-04-28_22h09.21.949,SPAMnetsValid,2021.1.4,MacIntel,59.99520038,,,,,,,,,,,,,,,,,,,,,,,,,,,,,,,,,,,,,,,,,,,,,,,,,,,,,,,,,,,,,,,,,leopard,Animals,14,0,14,0,1,,,,,,,,,,,,,,,,,,
,,,,,,,,,,,,,,,90483,001,2022-04-28_22h09.21.949,SPAMnetsValid,2021.1.4,MacIntel,59.99520038,,,,,,,,,,,,,,,,,,,,,,,,,,,,,,,,,,,,,,,,,,,,,,,,,,,,,,,,,,,,,,,,,mule ,Animals,15,0,15,0,1,,,,,,,,,,,,,,,,,,
,,,,,,,,,,,,,,,90483,001,2022-04-28_22h09.21.949,SPAMnetsValid,2021.1.4,MacIntel,59.99520038,,,,,,,,,,,,,,,,,,,,,,,,,,,,,,,,,,,,,,,,,,,,,,,,,,,,,,,,,,,,,,,,,horse,Animals,16,0,16,0,1,,,,,,,,,,,,,,,,,,
,,,,,,,,,,,,,,,90483,001,2022-04-28_22h09.21.949,SPAMnetsValid,2021.1.4,MacIntel,59.99520038,,,,,,,,,,,,,,,,,,,,,,,,,,,,,,,,,,,,,,,,,,,,,,,,,,,,,,,,,,,,,,,,,buffalo,Animals,17,0,17,0,1,,,,,,,,,,,,,,,,,,
,,,,,,,,,,,,,,,90483,001,2022-04-28_22h09.21.949,SPAMnetsValid,2021.1.4,MacIntel,59.99520038,,,,,,,,,,,,,,,,,,,,,,,,,,,,,,,,,,,,,,,,,,,,,,,,,,,,,,,,,,,,,,,,,zebra,Animals,18,0,18,0,1,,,,,,,,,,,,,,,,,,
,,,,,,,,,,,,,,,90483,001,2022-04-28_22h09.21.949,SPAMnetsValid,2021.1.4,MacIntel,59.99520038,,,,,,,,,,,,,,,,,,,,,,,,,,,,,,,,,,,,,,,,,,,,,,,,,,,,,,,,,,,,,,,,,antelope ,Animals,19,0,19,0,1,,,,,,,,,,,,,,,,,,
,,,,,,,,,,,,,,,90483,001,2022-04-28_22h09.21.949,SPAMnetsValid,2021.1.4,MacIntel,59.99520038,,,,,,,,,,,,,,,,,,,,,,,,,,,,,,,,,,,,,,,,,,,,,,,,,,,,,,,,,,,,,,,,,sheep ,Animals,20,0,20,0,1,,,,,,,,,,,,,,,,,,
,,,,,,,,,,,,,,,90483,001,2022-04-28_22h09.21.949,SPAMnetsValid,2021.1.4,MacIntel,59.99520038,,,,,,,,,,,,,,,,,,,,,,,,,,,,,,,,,,,,,,,,,,,,,,,,,,,,,,,,,,,,,,,,,goat,Animals,21,0,21,0,1,,,,,,,,,,,,,,,,,,
,,,,,,,,,,,,,,,90483,001,2022-04-28_22h09.21.949,SPAMnetsValid,2021.1.4,MacIntel,59.99520038,,,,,,,,,,,,,,,,,,,,,,,,,,,,,,,,,,,,,,,,,,,,,,,,,,,,,,,,,,,,,,,,,chicken,Animals,22,0,22,0,1,,,,,,,,,,,,,,,,,,
,,,,,,,,,,,,,,,90483,001,2022-04-28_22h09.21.949,SPAMnetsValid,2021.1.4,MacIntel,59.99520038,,,,,,,,,,,,,,,,,,,,,,,,,,,,,,,,,,,,,,,,,,,,,,,,,,,,,,,,,,,,,,,,,cow,Animals,23,0,23,0,1,,,,,,,,,,,,,,,,,,
,,,,,,,,,,,,,,,90483,001,2022-04-28_22h09.21.949,SPAMnetsValid,2021.1.4,MacIntel,59.99520038,,,,,,,,,,,,,,,,,,,,,,,,,,,,,,,,,,,,,,,,,,,,,,,,,,,,,,,,,,,,,,,,,pig ,Animals,24,0,24,0,1,,,,,,,,,,,,,,,,,,
,,,,,,,,,,,,,,,90483,001,2022-04-28_22h09.21.949,SPAMnetsValid,2021.1.4,MacIntel,59.99520038,,,,,,,,,,,,,,,,,,,,,,,,,,,,,,,,,,,,,,,,,,,,,,,,,,,,,,,,,,,,,,,,,turtle,Animals,25,0,25,0,1,,,,,,,,,,,,,,,,,,
,,,,,,,,,,,,,,,90483,001,2022-04-28_22h09.21.949,SPAMnetsValid,2021.1.4,MacIntel,59.99520038,,,,,,,,,,,,,,,,,,,,,,,,,,,,,,,,,,,,,,,,,,,,,,,,,,,,,,,,,,,,,,,,,tortoise,Animals,26,0,26,0,1,,,,,,,,,,,,,,,,,,
,,,,,,,,,,,,,,,90483,001,2022-04-28_22h09.21.949,SPAMnetsValid,2021.1.4,MacIntel,59.99520038,,,,,,,,,,,,,,,,,,,,,,,,,,,,,,,,,,,,,,,,,,,,,,,,,,,,,,,,,,,,,,,,,sting ray ,Animals,27,0,27,0,1,,,,,,,,,,,,,,,,,,
,,,,,,,,,,,,,,,90483,001,2022-04-28_22h09.21.949,SPAMnetsValid,2021.1.4,MacIntel,59.99520038,,,,,,,,,,,,,,,,,,,,,,,,,,,,,,,,,,,,,,,,,,,,,,,,,,,,,,,,,,,,,,,,,jellyfish ,Animals,28,0,28,0,1,,,,,,,,,,,,,,,,,,
,,,,,,,,,,,,,,,90483,001,2022-04-28_22h09.21.949,SPAMnetsValid,2021.1.4,MacIntel,59.99520038,,,,,,,,,,,,,,,,,,,,,,,,,,,,,,,,,,,,,,,,,,,,,,,,,,,,,,,,,,,,,,,,,,,,,,,,0,0,0,0,1,Animals,,,,,,,,,,,,
,,,,,,,,,,,,,,,90483,001,2022-04-28_22h09.21.949,SPAMnetsValid,2021.1.4,MacIntel,59.99520038,,,,,,,,,,,,,,,,,,,,,,,,,,,,,,,,,,,,,,,,,,,,,,,,,,,,,,,,,,,,,,,,,,,,,,,,,,,,,,1,5.5004,0,0,0,0,1,"I enjoy concentrating on a fantasy or daydream and exploring all its possibilities, letting it grow and develop.",0,1,,
,,,,,,,,,,,,,,,90483,001,2022-04-28_22h09.21.949,SPAMnetsValid,2021.1.4,MacIntel,59.99520038,,,,,,,,,,,,,,,,,,,,,,,,,,,,,,,,,,,,,,,,,,,,,,,,,,,,,,,,,,,,,,,,,,,,,,,,,,,,,,1,2.0562,0,1,1,1,1,I think it's interesting to learn and develop new hobbies.,0,2,,
,,,,,,,,,,,,,,,90483,001,2022-04-28_22h09.21.949,SPAMnetsValid,2021.1.4,MacIntel,59.99520038,,,,,,,,,,,,,,,,,,,,,,,,,,,,,,,,,,,,,,,,,,,,,,,,,,,,,,,,,,,,,,,,,,,,,,,,,,,,,,1,2.1079,0,2,2,2,1,I am intrigued by the patterns I find in art and nature.,0,3,,
,,,,,,,,,,,,,,,90483,001,2022-04-28_22h09.21.949,SPAMnetsValid,2021.1.4,MacIntel,59.99520038,,,,,,,,,,,,,,,,,,,,,,,,,,,,,,,,,,,,,,,,,,,,,,,,,,,,,,,,,,,,,,,,,,,,,,,,,,,,,,3,5.5401,0,3,3,3,1,I believe letting students hear controversial speakers can only confuse and mislead them.,1,4,,
,,,,,,,,,,,,,,,90483,001,2022-04-28_22h09.21.949,SPAMnetsValid,2021.1.4,MacIntel,59.99520038,,,,,,,,,,,,,,,,,,,,,,,,,,,,,,,,,,,,,,,,,,,,,,,,,,,,,,,,,,,,,,,,,,,,,,,,,,,,,,4,2.5904,0,4,4,4,1,Poetry has little or no effect on me.,1,5,,
,,,,,,,,,,,,,,,90483,001,2022-04-28_22h09.21.949,SPAMnetsValid,2021.1.4,MacIntel,59.99520038,,,,,,,,,,,,,,,,,,,,,,,,,,,,,,,,,,,,,,,,,,,,,,,,,,,,,,,,,,,,,,,,,,,,,,,,,,,,,,2,3.0402,0,5,5,5,1,I would have difficulty just letting my mind wander without control or guidance.,1,6,,
,,,,,,,,,,,,,,,90483,001,2022-04-28_22h09.21.949,SPAMnetsValid,2021.1.4,MacIntel,59.99520038,,,,,,,,,,,,,,,,,,,,,,,,,,,,,,,,,,,,,,,,,,,,,,,,,,,,,,,,,,,,,,,,,,,,,,,,,,,,,,2,3.2581,0,6,6,6,1,I seldom notice the moods or feelings that different environments produce.,1,7,,
,,,,,,,,,,,,,,,90483,001,2022-04-28_22h09.21.949,SPAMnetsValid,2021.1.4,MacIntel,59.99520038,,,,,,,,,,,,,,,,,,,,,,,,,,,,,,,,,,,,,,,,,,,,,,,,,,,,,,,,,,,,,,,,,,,,,,,,,,,,,,4,2.0401,0,7,7,7,1,I experience a wide range of emotions or feelings.,0,8,,
,,,,,,,,,,,,,,,90483,001,2022-04-28_22h09.21.949,SPAMnetsValid,2021.1.4,MacIntel,59.99520038,,,,,,,,,,,,,,,,,,,,,,,,,,,,,,,,,,,,,,,,,,,,,,,,,,,,,,,,,,,,,,,,,,,,,,,,,,,,,,4,5.2251,0,8,8,8,1,"Sometimes when I am reading poetry or looking at a work of art, I feel a chill or wave of excitement.",0,9,,
,,,,,,,,,,,,,,,90483,001,2022-04-28_22h09.21.949,SPAMnetsValid,2021.1.4,MacIntel,59.99520038,,,,,,,,,,,,,,,,,,,,,,,,,,,,,,,,,,,,,,,,,,,,,,,,,,,,,,,,,,,,,,,,,,,,,,,,,,,,,,1,5.2087,0,9,9,9,1,I have little interest in speculating on the nature of the universe or the human condition.,1,10,,
,,,,,,,,,,,,,,,90483,001,2022-04-28_22h09.21.949,SPAMnetsValid,2021.1.4,MacIntel,59.99520038,,,,,,,,,,,,,,,,,,,,,,,,,,,,,,,,,,,,,,,,,,,,,,,,,,,,,,,,,,,,,,,,,,,,,,,,,,,,,,5,1.8714,0,10,10,10,1,I have a lot of intellectual curiosity.,0,11,,
,,,,,,,,,,,,,,,90483,001,2022-04-28_22h09.21.949,SPAMnetsValid,2021.1.4,MacIntel,59.99520038,,,,,,,,,,,,,,,,,,,,,,,,,,,,,,,,,,,,,,,,,,,,,,,,,,,,,,,,,,,,,,,,,,,,,,,,,,,,,,5,2.5235,0,11,11,11,1,I often enjoy playing with theories or abstract ideas.,0,12,,
,,,,,,,,,,,,,,,90483,001,2022-04-28_22h09.21.949,SPAMnetsValid,2021.1.4,MacIntel,59.99520038,,,,,,,,,,,,,,,,,,,,,,,,,,,,,,,,,,,,,,,,,,,,,,,,,,,,,,,,,,,,,,,,,,,,,,,,,,,,,,,,,,,,,,,,return,3.5733
