key_resp_3.keys,key_resp_3.rt,slider_2.response,slider_2.rt,rjt_rating,rjt_RT,trials_24.thisRepN,trials_24.thisTrialN,trials_24.thisN,trials_24.thisIndex,trials_24.ran,rjt_order,word1,word2,attention,participant,session,date,expName,psychopyVersion,OS,frameRate,trials_4.thisRepN,trials_4.thisTrialN,trials_4.thisN,trials_4.thisIndex,trials_4.ran,trials_5.thisRepN,trials_5.thisTrialN,trials_5.thisN,trials_5.thisIndex,trials_5.ran,repOne,repTwo,slider.response,slider.rt,trials_22.thisRepN,trials_22.thisTrialN,trials_22.thisN,trials_22.thisIndex,trials_22.ran,trials_99.thisRepN,trials_99.thisTrialN,trials_99.thisN,trials_99.thisIndex,trials_99.ran,slider_extend_2.response,slider_extend_2.rt,trials_6.thisRepN,trials_6.thisTrialN,trials_6.thisN,trials_6.thisIndex,trials_6.ran,vCue2,R1,R2,R3,R4,correct,sliderVocab.response,sliderVocab.rt,trials_7.thisRepN,trials_7.thisTrialN,trials_7.thisN,trials_7.thisIndex,trials_7.ran,VocabCue,VR1,VR2,VR3,VR4,VR5,VocabCorrect,AUT_resp,AUT_label,trials.thisRepN,trials.thisTrialN,trials.thisN,trials.thisIndex,trials.ran,trials_2.thisRepN,trials_2.thisTrialN,trials_2.thisN,trials_2.thisIndex,trials_2.ran,aut_prompt,VF_response,VF_tag,trials_16.thisRepN,trials_16.thisTrialN,trials_16.thisN,trials_16.thisIndex,trials_16.ran,trials_17.thisRepN,trials_17.thisTrialN,trials_17.thisN,trials_17.thisIndex,trials_17.ran,VFcond,open_slider.response,open_slider.rt,trials_3.thisRepN,trials_3.thisTrialN,trials_3.thisN,trials_3.thisIndex,trials_3.ran,OpenQ,Rev,OPEN_ORDER,key_resp_2.keys,key_resp_2.rt
return,2.2794,7,6.5333,7,6.5333,0,0,0,73,1,135,carrot,oven,,90482,001,2022-04-28_22h33.14.627,SPAMnetsValid,2021.1.4,Win32,59.68011459,,,,,,,,,,,,,,,,,,,,,,,,,,,,,,,,,,,,,,,,,,,,,,,,,,,,,,,,,,,,,,,,,,,,,,,,,,,,,,,,,,,,,,,,,
,,2,4.9195,2,4.9195,0,1,1,96,1,136,chocolate,microwave,,90482,001,2022-04-28_22h33.14.627,SPAMnetsValid,2021.1.4,Win32,59.68011459,,,,,,,,,,,,,,,,,,,,,,,,,,,,,,,,,,,,,,,,,,,,,,,,,,,,,,,,,,,,,,,,,,,,,,,,,,,,,,,,,,,,,,,,,
,,1,2.2391,1,2.2391,0,2,2,37,1,139,carrot,strawberry,,90482,001,2022-04-28_22h33.14.627,SPAMnetsValid,2021.1.4,Win32,59.68011459,,,,,,,,,,,,,,,,,,,,,,,,,,,,,,,,,,,,,,,,,,,,,,,,,,,,,,,,,,,,,,,,,,,,,,,,,,,,,,,,,,,,,,,,,
,,8,2.41,8,2.41,0,3,3,1,1,173,kitchen,tomato,,90482,001,2022-04-28_22h33.14.627,SPAMnetsValid,2021.1.4,Win32,59.68011459,,,,,,,,,,,,,,,,,,,,,,,,,,,,,,,,,,,,,,,,,,,,,,,,,,,,,,,,,,,,,,,,,,,,,,,,,,,,,,,,,,,,,,,,,
,,1,2.6102,1,2.6102,0,4,4,84,1,130,microwave,yogurt,,90482,001,2022-04-28_22h33.14.627,SPAMnetsValid,2021.1.4,Win32,59.68011459,,,,,,,,,,,,,,,,,,,,,,,,,,,,,,,,,,,,,,,,,,,,,,,,,,,,,,,,,,,,,,,,,,,,,,,,,,,,,,,,,,,,,,,,,
,,1,2.8979,1,2.8979,0,5,5,55,1,143,pretzel,rose,,90482,001,2022-04-28_22h33.14.627,SPAMnetsValid,2021.1.4,Win32,59.68011459,,,,,,,,,,,,,,,,,,,,,,,,,,,,,,,,,,,,,,,,,,,,,,,,,,,,,,,,,,,,,,,,,,,,,,,,,,,,,,,,,,,,,,,,,
,,9,2.2588,9,2.2588,0,6,6,86,1,193,melon,melon,CHECK,90482,001,2022-04-28_22h33.14.627,SPAMnetsValid,2021.1.4,Win32,59.68011459,,,,,,,,,,,,,,,,,,,,,,,,,,,,,,,,,,,,,,,,,,,,,,,,,,,,,,,,,,,,,,,,,,,,,,,,,,,,,,,,,,,,,,,,,
,,7,2.2189,7,2.2189,0,7,7,39,1,112,cake,carrot,,90482,001,2022-04-28_22h33.14.627,SPAMnetsValid,2021.1.4,Win32,59.68011459,,,,,,,,,,,,,,,,,,,,,,,,,,,,,,,,,,,,,,,,,,,,,,,,,,,,,,,,,,,,,,,,,,,,,,,,,,,,,,,,,,,,,,,,,
,,6,2.0087,6,2.0087,0,8,8,48,1,186,kitchen,yogurt,,90482,001,2022-04-28_22h33.14.627,SPAMnetsValid,2021.1.4,Win32,59.68011459,,,,,,,,,,,,,,,,,,,,,,,,,,,,,,,,,,,,,,,,,,,,,,,,,,,,,,,,,,,,,,,,,,,,,,,,,,,,,,,,,,,,,,,,,
,,6,2.4657,6,2.4657,0,9,9,51,1,168,cactus,flower,,90482,001,2022-04-28_22h33.14.627,SPAMnetsValid,2021.1.4,Win32,59.68011459,,,,,,,,,,,,,,,,,,,,,,,,,,,,,,,,,,,,,,,,,,,,,,,,,,,,,,,,,,,,,,,,,,,,,,,,,,,,,,,,,,,,,,,,,
,,2,2.9056,2,2.9056,0,10,10,6,1,151,microwave,onion,,90482,001,2022-04-28_22h33.14.627,SPAMnetsValid,2021.1.4,Win32,59.68011459,,,,,,,,,,,,,,,,,,,,,,,,,,,,,,,,,,,,,,,,,,,,,,,,,,,,,,,,,,,,,,,,,,,,,,,,,,,,,,,,,,,,,,,,,
,,1,1.7287,1,1.7287,0,11,11,30,1,125,carrot,tree,,90482,001,2022-04-28_22h33.14.627,SPAMnetsValid,2021.1.4,Win32,59.68011459,,,,,,,,,,,,,,,,,,,,,,,,,,,,,,,,,,,,,,,,,,,,,,,,,,,,,,,,,,,,,,,,,,,,,,,,,,,,,,,,,,,,,,,,,
,,2,3.6119,2,3.6119,0,12,12,24,1,169,onion,yogurt,,90482,001,2022-04-28_22h33.14.627,SPAMnetsValid,2021.1.4,Win32,59.68011459,,,,,,,,,,,,,,,,,,,,,,,,,,,,,,,,,,,,,,,,,,,,,,,,,,,,,,,,,,,,,,,,,,,,,,,,,,,,,,,,,,,,,,,,,
,,1,2.2904,1,2.2904,0,13,13,62,1,189,onion,tree,,90482,001,2022-04-28_22h33.14.627,SPAMnetsValid,2021.1.4,Win32,59.68011459,,,,,,,,,,,,,,,,,,,,,,,,,,,,,,,,,,,,,,,,,,,,,,,,,,,,,,,,,,,,,,,,,,,,,,,,,,,,,,,,,,,,,,,,,
,,6,2.3065,6,2.3065,0,14,14,85,1,115,refrigerator,tomato,,90482,001,2022-04-28_22h33.14.627,SPAMnetsValid,2021.1.4,Win32,59.68011459,,,,,,,,,,,,,,,,,,,,,,,,,,,,,,,,,,,,,,,,,,,,,,,,,,,,,,,,,,,,,,,,,,,,,,,,,,,,,,,,,,,,,,,,,
,,9,2.4629,9,2.4629,0,15,15,25,1,194,cactus,cactus,CHECK,90482,001,2022-04-28_22h33.14.627,SPAMnetsValid,2021.1.4,Win32,59.68011459,,,,,,,,,,,,,,,,,,,,,,,,,,,,,,,,,,,,,,,,,,,,,,,,,,,,,,,,,,,,,,,,,,,,,,,,,,,,,,,,,,,,,,,,,
,,2,3.2773,2,3.2773,0,16,16,58,1,144,cake,garden,,90482,001,2022-04-28_22h33.14.627,SPAMnetsValid,2021.1.4,Win32,59.68011459,,,,,,,,,,,,,,,,,,,,,,,,,,,,,,,,,,,,,,,,,,,,,,,,,,,,,,,,,,,,,,,,,,,,,,,,,,,,,,,,,,,,,,,,,
,,1,1.9083,1,1.9083,0,17,17,74,1,128,melon,microwave,,90482,001,2022-04-28_22h33.14.627,SPAMnetsValid,2021.1.4,Win32,59.68011459,,,,,,,,,,,,,,,,,,,,,,,,,,,,,,,,,,,,,,,,,,,,,,,,,,,,,,,,,,,,,,,,,,,,,,,,,,,,,,,,,,,,,,,,,
,,8,2.0977,8,2.0977,0,18,18,65,1,160,cookie,kitchen,,90482,001,2022-04-28_22h33.14.627,SPAMnetsValid,2021.1.4,Win32,59.68011459,,,,,,,,,,,,,,,,,,,,,,,,,,,,,,,,,,,,,,,,,,,,,,,,,,,,,,,,,,,,,,,,,,,,,,,,,,,,,,,,,,,,,,,,,
,,7,2.2146,7,2.2146,0,19,19,76,1,102,chocolate,refrigerator,,90482,001,2022-04-28_22h33.14.627,SPAMnetsValid,2021.1.4,Win32,59.68011459,,,,,,,,,,,,,,,,,,,,,,,,,,,,,,,,,,,,,,,,,,,,,,,,,,,,,,,,,,,,,,,,,,,,,,,,,,,,,,,,,,,,,,,,,
,,2,2.0401,2,2.0401,0,20,20,34,1,153,carrot,pretzel,,90482,001,2022-04-28_22h33.14.627,SPAMnetsValid,2021.1.4,Win32,59.68011459,,,,,,,,,,,,,,,,,,,,,,,,,,,,,,,,,,,,,,,,,,,,,,,,,,,,,,,,,,,,,,,,,,,,,,,,,,,,,,,,,,,,,,,,,
,,2,3.4771,2,3.4771,0,21,21,41,1,175,melon,onion,,90482,001,2022-04-28_22h33.14.627,SPAMnetsValid,2021.1.4,Win32,59.68011459,,,,,,,,,,,,,,,,,,,,,,,,,,,,,,,,,,,,,,,,,,,,,,,,,,,,,,,,,,,,,,,,,,,,,,,,,,,,,,,,,,,,,,,,,
,,9,2.1499,9,2.1499,0,22,22,44,1,116,cake,chocolate,,90482,001,2022-04-28_22h33.14.627,SPAMnetsValid,2021.1.4,Win32,59.68011459,,,,,,,,,,,,,,,,,,,,,,,,,,,,,,,,,,,,,,,,,,,,,,,,,,,,,,,,,,,,,,,,,,,,,,,,,,,,,,,,,,,,,,,,,
,,1,2.4103,1,2.4103,0,23,23,40,1,165,onion,rose,,90482,001,2022-04-28_22h33.14.627,SPAMnetsValid,2021.1.4,Win32,59.68011459,,,,,,,,,,,,,,,,,,,,,,,,,,,,,,,,,,,,,,,,,,,,,,,,,,,,,,,,,,,,,,,,,,,,,,,,,,,,,,,,,,,,,,,,,
,,1,1.8071,1,1.8071,0,24,24,20,1,149,broom,tomato,,90482,001,2022-04-28_22h33.14.627,SPAMnetsValid,2021.1.4,Win32,59.68011459,,,,,,,,,,,,,,,,,,,,,,,,,,,,,,,,,,,,,,,,,,,,,,,,,,,,,,,,,,,,,,,,,,,,,,,,,,,,,,,,,,,,,,,,,
,,2,3.1883,2,3.1883,0,25,25,5,1,108,carrot,chocolate,,90482,001,2022-04-28_22h33.14.627,SPAMnetsValid,2021.1.4,Win32,59.68011459,,,,,,,,,,,,,,,,,,,,,,,,,,,,,,,,,,,,,,,,,,,,,,,,,,,,,,,,,,,,,,,,,,,,,,,,,,,,,,,,,,,,,,,,,
,,8,2.7981,8,2.7981,0,26,26,28,1,154,strawberry,yogurt,,90482,001,2022-04-28_22h33.14.627,SPAMnetsValid,2021.1.4,Win32,59.68011459,,,,,,,,,,,,,,,,,,,,,,,,,,,,,,,,,,,,,,,,,,,,,,,,,,,,,,,,,,,,,,,,,,,,,,,,,,,,,,,,,,,,,,,,,
,,1,1.8412,1,1.8412,0,27,27,63,1,137,microwave,tree,,90482,001,2022-04-28_22h33.14.627,SPAMnetsValid,2021.1.4,Win32,59.68011459,,,,,,,,,,,,,,,,,,,,,,,,,,,,,,,,,,,,,,,,,,,,,,,,,,,,,,,,,,,,,,,,,,,,,,,,,,,,,,,,,,,,,,,,,
,,1,1.4155,1,1.4155,0,28,28,50,1,126,kitchen,tree,,90482,001,2022-04-28_22h33.14.627,SPAMnetsValid,2021.1.4,Win32,59.68011459,,,,,,,,,,,,,,,,,,,,,,,,,,,,,,,,,,,,,,,,,,,,,,,,,,,,,,,,,,,,,,,,,,,,,,,,,,,,,,,,,,,,,,,,,
,,6,5.4562,6,5.4562,0,29,29,0,1,106,cake,strawberry,,90482,001,2022-04-28_22h33.14.627,SPAMnetsValid,2021.1.4,Win32,59.68011459,,,,,,,,,,,,,,,,,,,,,,,,,,,,,,,,,,,,,,,,,,,,,,,,,,,,,,,,,,,,,,,,,,,,,,,,,,,,,,,,,,,,,,,,,
,,5,4.4379,5,4.4379,0,30,30,8,1,97,chocolate,kitchen,,90482,001,2022-04-28_22h33.14.627,SPAMnetsValid,2021.1.4,Win32,59.68011459,,,,,,,,,,,,,,,,,,,,,,,,,,,,,,,,,,,,,,,,,,,,,,,,,,,,,,,,,,,,,,,,,,,,,,,,,,,,,,,,,,,,,,,,,
,,2,2.105,2,2.105,0,31,31,16,1,111,carrot,microwave,,90482,001,2022-04-28_22h33.14.627,SPAMnetsValid,2021.1.4,Win32,59.68011459,,,,,,,,,,,,,,,,,,,,,,,,,,,,,,,,,,,,,,,,,,,,,,,,,,,,,,,,,,,,,,,,,,,,,,,,,,,,,,,,,,,,,,,,,
,,3,2.3881,3,2.3881,0,32,32,87,1,114,cookie,strawberry,,90482,001,2022-04-28_22h33.14.627,SPAMnetsValid,2021.1.4,Win32,59.68011459,,,,,,,,,,,,,,,,,,,,,,,,,,,,,,,,,,,,,,,,,,,,,,,,,,,,,,,,,,,,,,,,,,,,,,,,,,,,,,,,,,,,,,,,,
,,2,1.4419,2,1.4419,0,33,33,12,1,162,microwave,tomato,,90482,001,2022-04-28_22h33.14.627,SPAMnetsValid,2021.1.4,Win32,59.68011459,,,,,,,,,,,,,,,,,,,,,,,,,,,,,,,,,,,,,,,,,,,,,,,,,,,,,,,,,,,,,,,,,,,,,,,,,,,,,,,,,,,,,,,,,
,,1,3.0543,1,3.0543,0,34,34,71,1,187,cactus,microwave,,90482,001,2022-04-28_22h33.14.627,SPAMnetsValid,2021.1.4,Win32,59.68011459,,,,,,,,,,,,,,,,,,,,,,,,,,,,,,,,,,,,,,,,,,,,,,,,,,,,,,,,,,,,,,,,,,,,,,,,,,,,,,,,,,,,,,,,,
,,7,1.8552,7,1.8552,0,35,35,29,1,163,melon,refrigerator,,90482,001,2022-04-28_22h33.14.627,SPAMnetsValid,2021.1.4,Win32,59.68011459,,,,,,,,,,,,,,,,,,,,,,,,,,,,,,,,,,,,,,,,,,,,,,,,,,,,,,,,,,,,,,,,,,,,,,,,,,,,,,,,,,,,,,,,,
,,1,1.7067,1,1.7067,0,36,36,13,1,105,cactus,oven,,90482,001,2022-04-28_22h33.14.627,SPAMnetsValid,2021.1.4,Win32,59.68011459,,,,,,,,,,,,,,,,,,,,,,,,,,,,,,,,,,,,,,,,,,,,,,,,,,,,,,,,,,,,,,,,,,,,,,,,,,,,,,,,,,,,,,,,,
,,1,1.0896,1,1.0896,0,37,37,45,1,179,broom,oven,,90482,001,2022-04-28_22h33.14.627,SPAMnetsValid,2021.1.4,Win32,59.68011459,,,,,,,,,,,,,,,,,,,,,,,,,,,,,,,,,,,,,,,,,,,,,,,,,,,,,,,,,,,,,,,,,,,,,,,,,,,,,,,,,,,,,,,,,
,,6,1.8796,6,1.8796,0,38,38,77,1,172,kitchen,melon,,90482,001,2022-04-28_22h33.14.627,SPAMnetsValid,2021.1.4,Win32,59.68011459,,,,,,,,,,,,,,,,,,,,,,,,,,,,,,,,,,,,,,,,,,,,,,,,,,,,,,,,,,,,,,,,,,,,,,,,,,,,,,,,,,,,,,,,,
,,1,1.7582,1,1.7582,0,39,39,95,1,121,broom,microwave,,90482,001,2022-04-28_22h33.14.627,SPAMnetsValid,2021.1.4,Win32,59.68011459,,,,,,,,,,,,,,,,,,,,,,,,,,,,,,,,,,,,,,,,,,,,,,,,,,,,,,,,,,,,,,,,,,,,,,,,,,,,,,,,,,,,,,,,,
,,1,1.4187,1,1.4187,0,40,40,54,1,101,cactus,kitchen,,90482,001,2022-04-28_22h33.14.627,SPAMnetsValid,2021.1.4,Win32,59.68011459,,,,,,,,,,,,,,,,,,,,,,,,,,,,,,,,,,,,,,,,,,,,,,,,,,,,,,,,,,,,,,,,,,,,,,,,,,,,,,,,,,,,,,,,,
,,5,2.2631,5,2.2631,0,41,41,89,1,140,cookie,refrigerator,,90482,001,2022-04-28_22h33.14.627,SPAMnetsValid,2021.1.4,Win32,59.68011459,,,,,,,,,,,,,,,,,,,,,,,,,,,,,,,,,,,,,,,,,,,,,,,,,,,,,,,,,,,,,,,,,,,,,,,,,,,,,,,,,,,,,,,,,
,,1,1.7975,1,1.7975,0,42,42,4,1,109,broom,strawberry,,90482,001,2022-04-28_22h33.14.627,SPAMnetsValid,2021.1.4,Win32,59.68011459,,,,,,,,,,,,,,,,,,,,,,,,,,,,,,,,,,,,,,,,,,,,,,,,,,,,,,,,,,,,,,,,,,,,,,,,,,,,,,,,,,,,,,,,,
,,1,1.3313,1,1.3313,0,43,43,80,1,146,pretzel,tree,,90482,001,2022-04-28_22h33.14.627,SPAMnetsValid,2021.1.4,Win32,59.68011459,,,,,,,,,,,,,,,,,,,,,,,,,,,,,,,,,,,,,,,,,,,,,,,,,,,,,,,,,,,,,,,,,,,,,,,,,,,,,,,,,,,,,,,,,
,,5,3.0701,5,3.0701,0,44,44,36,1,161,kitchen,pretzel,,90482,001,2022-04-28_22h33.14.627,SPAMnetsValid,2021.1.4,Win32,59.68011459,,,,,,,,,,,,,,,,,,,,,,,,,,,,,,,,,,,,,,,,,,,,,,,,,,,,,,,,,,,,,,,,,,,,,,,,,,,,,,,,,,,,,,,,,
,,5,2.4646,5,2.4646,0,45,45,94,1,133,cake,flower,,90482,001,2022-04-28_22h33.14.627,SPAMnetsValid,2021.1.4,Win32,59.68011459,,,,,,,,,,,,,,,,,,,,,,,,,,,,,,,,,,,,,,,,,,,,,,,,,,,,,,,,,,,,,,,,,,,,,,,,,,,,,,,,,,,,,,,,,
,,6,2.4804,6,2.4804,0,46,46,35,1,147,cake,refrigerator,,90482,001,2022-04-28_22h33.14.627,SPAMnetsValid,2021.1.4,Win32,59.68011459,,,,,,,,,,,,,,,,,,,,,,,,,,,,,,,,,,,,,,,,,,,,,,,,,,,,,,,,,,,,,,,,,,,,,,,,,,,,,,,,,,,,,,,,,
,,2,1.7994,2,1.7994,0,47,47,3,1,129,cactus,refrigerator,,90482,001,2022-04-28_22h33.14.627,SPAMnetsValid,2021.1.4,Win32,59.68011459,,,,,,,,,,,,,,,,,,,,,,,,,,,,,,,,,,,,,,,,,,,,,,,,,,,,,,,,,,,,,,,,,,,,,,,,,,,,,,,,,,,,,,,,,
,,4,2.927,4,2.927,0,48,48,11,1,117,melon,strawberry,,90482,001,2022-04-28_22h33.14.627,SPAMnetsValid,2021.1.4,Win32,59.68011459,,,,,,,,,,,,,,,,,,,,,,,,,,,,,,,,,,,,,,,,,,,,,,,,,,,,,,,,,,,,,,,,,,,,,,,,,,,,,,,,,,,,,,,,,
,,9,1.8694,9,1.8694,0,49,49,27,1,158,cookie,oven,,90482,001,2022-04-28_22h33.14.627,SPAMnetsValid,2021.1.4,Win32,59.68011459,,,,,,,,,,,,,,,,,,,,,,,,,,,,,,,,,,,,,,,,,,,,,,,,,,,,,,,,,,,,,,,,,,,,,,,,,,,,,,,,,,,,,,,,,
,,1,2.092,1,2.092,0,50,50,15,1,145,cactus,yogurt,,90482,001,2022-04-28_22h33.14.627,SPAMnetsValid,2021.1.4,Win32,59.68011459,,,,,,,,,,,,,,,,,,,,,,,,,,,,,,,,,,,,,,,,,,,,,,,,,,,,,,,,,,,,,,,,,,,,,,,,,,,,,,,,,,,,,,,,,
,,5,5.0017,5,5.0017,0,51,51,92,1,170,cookie,microwave,,90482,001,2022-04-28_22h33.14.627,SPAMnetsValid,2021.1.4,Win32,59.68011459,,,,,,,,,,,,,,,,,,,,,,,,,,,,,,,,,,,,,,,,,,,,,,,,,,,,,,,,,,,,,,,,,,,,,,,,,,,,,,,,,,,,,,,,,
,,1,2.2595,1,2.2595,0,52,52,78,1,132,broom,tree,,90482,001,2022-04-28_22h33.14.627,SPAMnetsValid,2021.1.4,Win32,59.68011459,,,,,,,,,,,,,,,,,,,,,,,,,,,,,,,,,,,,,,,,,,,,,,,,,,,,,,,,,,,,,,,,,,,,,,,,,,,,,,,,,,,,,,,,,
,,6,14.4483,6,14.4483,0,53,53,91,1,166,cake,yogurt,,90482,001,2022-04-28_22h33.14.627,SPAMnetsValid,2021.1.4,Win32,59.68011459,,,,,,,,,,,,,,,,,,,,,,,,,,,,,,,,,,,,,,,,,,,,,,,,,,,,,,,,,,,,,,,,,,,,,,,,,,,,,,,,,,,,,,,,,
,,9,2.5693,9,2.5693,0,54,54,83,1,100,garden,tomato,,90482,001,2022-04-28_22h33.14.627,SPAMnetsValid,2021.1.4,Win32,59.68011459,,,,,,,,,,,,,,,,,,,,,,,,,,,,,,,,,,,,,,,,,,,,,,,,,,,,,,,,,,,,,,,,,,,,,,,,,,,,,,,,,,,,,,,,,
,,6,2.1019,6,2.1019,0,55,55,42,1,184,oven,pretzel,,90482,001,2022-04-28_22h33.14.627,SPAMnetsValid,2021.1.4,Win32,59.68011459,,,,,,,,,,,,,,,,,,,,,,,,,,,,,,,,,,,,,,,,,,,,,,,,,,,,,,,,,,,,,,,,,,,,,,,,,,,,,,,,,,,,,,,,,
,,1,1.6565,1,1.6565,0,56,56,75,1,178,cactus,carrot,,90482,001,2022-04-28_22h33.14.627,SPAMnetsValid,2021.1.4,Win32,59.68011459,,,,,,,,,,,,,,,,,,,,,,,,,,,,,,,,,,,,,,,,,,,,,,,,,,,,,,,,,,,,,,,,,,,,,,,,,,,,,,,,,,,,,,,,,
,,1,1.1784,1,1.1784,0,57,57,57,1,127,cactus,chocolate,,90482,001,2022-04-28_22h33.14.627,SPAMnetsValid,2021.1.4,Win32,59.68011459,,,,,,,,,,,,,,,,,,,,,,,,,,,,,,,,,,,,,,,,,,,,,,,,,,,,,,,,,,,,,,,,,,,,,,,,,,,,,,,,,,,,,,,,,
,,1,1.3303,1,1.3303,0,58,58,32,1,182,flower,refrigerator,,90482,001,2022-04-28_22h33.14.627,SPAMnetsValid,2021.1.4,Win32,59.68011459,,,,,,,,,,,,,,,,,,,,,,,,,,,,,,,,,,,,,,,,,,,,,,,,,,,,,,,,,,,,,,,,,,,,,,,,,,,,,,,,,,,,,,,,,
,,1,1.5151,1,1.5151,0,59,59,64,1,157,refrigerator,rose,,90482,001,2022-04-28_22h33.14.627,SPAMnetsValid,2021.1.4,Win32,59.68011459,,,,,,,,,,,,,,,,,,,,,,,,,,,,,,,,,,,,,,,,,,,,,,,,,,,,,,,,,,,,,,,,,,,,,,,,,,,,,,,,,,,,,,,,,
,,9,2.4448,9,2.4448,0,60,60,47,1,167,carrot,garden,,90482,001,2022-04-28_22h33.14.627,SPAMnetsValid,2021.1.4,Win32,59.68011459,,,,,,,,,,,,,,,,,,,,,,,,,,,,,,,,,,,,,,,,,,,,,,,,,,,,,,,,,,,,,,,,,,,,,,,,,,,,,,,,,,,,,,,,,
,,2,2.0568,2,2.0568,0,61,61,18,1,119,strawberry,tree,,90482,001,2022-04-28_22h33.14.627,SPAMnetsValid,2021.1.4,Win32,59.68011459,,,,,,,,,,,,,,,,,,,,,,,,,,,,,,,,,,,,,,,,,,,,,,,,,,,,,,,,,,,,,,,,,,,,,,,,,,,,,,,,,,,,,,,,,
,,2,1.7892,2,1.7892,0,62,62,26,1,107,rose,tomato,,90482,001,2022-04-28_22h33.14.627,SPAMnetsValid,2021.1.4,Win32,59.68011459,,,,,,,,,,,,,,,,,,,,,,,,,,,,,,,,,,,,,,,,,,,,,,,,,,,,,,,,,,,,,,,,,,,,,,,,,,,,,,,,,,,,,,,,,
,,8,2.4085,8,2.4085,0,63,63,14,1,120,microwave,oven,,90482,001,2022-04-28_22h33.14.627,SPAMnetsValid,2021.1.4,Win32,59.68011459,,,,,,,,,,,,,,,,,,,,,,,,,,,,,,,,,,,,,,,,,,,,,,,,,,,,,,,,,,,,,,,,,,,,,,,,,,,,,,,,,,,,,,,,,
,,1,1.8964,1,1.8964,0,64,64,68,1,180,tree,yogurt,,90482,001,2022-04-28_22h33.14.627,SPAMnetsValid,2021.1.4,Win32,59.68011459,,,,,,,,,,,,,,,,,,,,,,,,,,,,,,,,,,,,,,,,,,,,,,,,,,,,,,,,,,,,,,,,,,,,,,,,,,,,,,,,,,,,,,,,,
,,4,3.1183,4,3.1183,0,65,65,23,1,148,flower,melon,,90482,001,2022-04-28_22h33.14.627,SPAMnetsValid,2021.1.4,Win32,59.68011459,,,,,,,,,,,,,,,,,,,,,,,,,,,,,,,,,,,,,,,,,,,,,,,,,,,,,,,,,,,,,,,,,,,,,,,,,,,,,,,,,,,,,,,,,
,,5,2.1749,5,2.1749,0,66,66,22,1,142,garden,tree,,90482,001,2022-04-28_22h33.14.627,SPAMnetsValid,2021.1.4,Win32,59.68011459,,,,,,,,,,,,,,,,,,,,,,,,,,,,,,,,,,,,,,,,,,,,,,,,,,,,,,,,,,,,,,,,,,,,,,,,,,,,,,,,,,,,,,,,,
,,6,1.9682,6,1.9682,0,67,67,70,1,141,melon,tomato,,90482,001,2022-04-28_22h33.14.627,SPAMnetsValid,2021.1.4,Win32,59.68011459,,,,,,,,,,,,,,,,,,,,,,,,,,,,,,,,,,,,,,,,,,,,,,,,,,,,,,,,,,,,,,,,,,,,,,,,,,,,,,,,,,,,,,,,,
,,2,2.4227,2,2.4227,0,68,68,67,1,96,oven,strawberry,,90482,001,2022-04-28_22h33.14.627,SPAMnetsValid,2021.1.4,Win32,59.68011459,,,,,,,,,,,,,,,,,,,,,,,,,,,,,,,,,,,,,,,,,,,,,,,,,,,,,,,,,,,,,,,,,,,,,,,,,,,,,,,,,,,,,,,,,
,,3,3.3943,3,3.3943,0,69,69,38,1,155,carrot,cookie,,90482,001,2022-04-28_22h33.14.627,SPAMnetsValid,2021.1.4,Win32,59.68011459,,,,,,,,,,,,,,,,,,,,,,,,,,,,,,,,,,,,,,,,,,,,,,,,,,,,,,,,,,,,,,,,,,,,,,,,,,,,,,,,,,,,,,,,,
,,3,1.3979,3,1.3979,0,70,70,31,1,156,melon,rose,,90482,001,2022-04-28_22h33.14.627,SPAMnetsValid,2021.1.4,Win32,59.68011459,,,,,,,,,,,,,,,,,,,,,,,,,,,,,,,,,,,,,,,,,,,,,,,,,,,,,,,,,,,,,,,,,,,,,,,,,,,,,,,,,,,,,,,,,
,,8,2.25,8,2.25,0,71,71,17,1,99,garden,melon,,90482,001,2022-04-28_22h33.14.627,SPAMnetsValid,2021.1.4,Win32,59.68011459,,,,,,,,,,,,,,,,,,,,,,,,,,,,,,,,,,,,,,,,,,,,,,,,,,,,,,,,,,,,,,,,,,,,,,,,,,,,,,,,,,,,,,,,,
,,2,37.0985,2,37.0985,0,72,72,9,1,176,cactus,tomato,,90482,001,2022-04-28_22h33.14.627,SPAMnetsValid,2021.1.4,Win32,59.68011459,,,,,,,,,,,,,,,,,,,,,,,,,,,,,,,,,,,,,,,,,,,,,,,,,,,,,,,,,,,,,,,,,,,,,,,,,,,,,,,,,,,,,,,,,
,,2,0.8839,2,0.8839,0,73,73,43,1,185,cactus,rose,,90482,001,2022-04-28_22h33.14.627,SPAMnetsValid,2021.1.4,Win32,59.68011459,,,,,,,,,,,,,,,,,,,,,,,,,,,,,,,,,,,,,,,,,,,,,,,,,,,,,,,,,,,,,,,,,,,,,,,,,,,,,,,,,,,,,,,,,
,,3,2.4421,3,2.4421,0,74,74,33,1,131,cactus,garden,,90482,001,2022-04-28_22h33.14.627,SPAMnetsValid,2021.1.4,Win32,59.68011459,,,,,,,,,,,,,,,,,,,,,,,,,,,,,,,,,,,,,,,,,,,,,,,,,,,,,,,,,,,,,,,,,,,,,,,,,,,,,,,,,,,,,,,,,
,,2,1.3734,2,1.3734,0,75,75,90,1,190,microwave,strawberry,,90482,001,2022-04-28_22h33.14.627,SPAMnetsValid,2021.1.4,Win32,59.68011459,,,,,,,,,,,,,,,,,,,,,,,,,,,,,,,,,,,,,,,,,,,,,,,,,,,,,,,,,,,,,,,,,,,,,,,,,,,,,,,,,,,,,,,,,
,,8,2.2932,8,2.2932,0,76,76,52,1,110,chocolate,cookie,,90482,001,2022-04-28_22h33.14.627,SPAMnetsValid,2021.1.4,Win32,59.68011459,,,,,,,,,,,,,,,,,,,,,,,,,,,,,,,,,,,,,,,,,,,,,,,,,,,,,,,,,,,,,,,,,,,,,,,,,,,,,,,,,,,,,,,,,
,,4,2.0751,4,2.0751,0,77,77,93,1,134,carrot,flower,,90482,001,2022-04-28_22h33.14.627,SPAMnetsValid,2021.1.4,Win32,59.68011459,,,,,,,,,,,,,,,,,,,,,,,,,,,,,,,,,,,,,,,,,,,,,,,,,,,,,,,,,,,,,,,,,,,,,,,,,,,,,,,,,,,,,,,,,
,,7,2.5948,7,2.5948,0,78,78,66,1,150,microwave,refrigerator,,90482,001,2022-04-28_22h33.14.627,SPAMnetsValid,2021.1.4,Win32,59.68011459,,,,,,,,,,,,,,,,,,,,,,,,,,,,,,,,,,,,,,,,,,,,,,,,,,,,,,,,,,,,,,,,,,,,,,,,,,,,,,,,,,,,,,,,,
,,2,2.6734,2,2.6734,0,79,79,79,1,103,pretzel,tomato,,90482,001,2022-04-28_22h33.14.627,SPAMnetsValid,2021.1.4,Win32,59.68011459,,,,,,,,,,,,,,,,,,,,,,,,,,,,,,,,,,,,,,,,,,,,,,,,,,,,,,,,,,,,,,,,,,,,,,,,,,,,,,,,,,,,,,,,,
,,2,3.5039,2,3.5039,0,80,80,7,1,188,flower,tree,,90482,001,2022-04-28_22h33.14.627,SPAMnetsValid,2021.1.4,Win32,59.68011459,,,,,,,,,,,,,,,,,,,,,,,,,,,,,,,,,,,,,,,,,,,,,,,,,,,,,,,,,,,,,,,,,,,,,,,,,,,,,,,,,,,,,,,,,
,,3,1.5268,3,1.5268,0,81,81,53,1,177,chocolate,strawberry,,90482,001,2022-04-28_22h33.14.627,SPAMnetsValid,2021.1.4,Win32,59.68011459,,,,,,,,,,,,,,,,,,,,,,,,,,,,,,,,,,,,,,,,,,,,,,,,,,,,,,,,,,,,,,,,,,,,,,,,,,,,,,,,,,,,,,,,,
,,9,2.2388,9,2.2388,0,82,82,61,1,138,flower,rose,,90482,001,2022-04-28_22h33.14.627,SPAMnetsValid,2021.1.4,Win32,59.68011459,,,,,,,,,,,,,,,,,,,,,,,,,,,,,,,,,,,,,,,,,,,,,,,,,,,,,,,,,,,,,,,,,,,,,,,,,,,,,,,,,,,,,,,,,
,,3,2.0076,3,2.0076,0,83,83,81,1,104,garden,microwave,,90482,001,2022-04-28_22h33.14.627,SPAMnetsValid,2021.1.4,Win32,59.68011459,,,,,,,,,,,,,,,,,,,,,,,,,,,,,,,,,,,,,,,,,,,,,,,,,,,,,,,,,,,,,,,,,,,,,,,,,,,,,,,,,,,,,,,,,
,,1,1.6532,1,1.6532,0,84,84,19,1,183,cake,rose,,90482,001,2022-04-28_22h33.14.627,SPAMnetsValid,2021.1.4,Win32,59.68011459,,,,,,,,,,,,,,,,,,,,,,,,,,,,,,,,,,,,,,,,,,,,,,,,,,,,,,,,,,,,,,,,,,,,,,,,,,,,,,,,,,,,,,,,,
,,6,2.5197,6,2.5197,0,85,85,56,1,113,refrigerator,strawberry,,90482,001,2022-04-28_22h33.14.627,SPAMnetsValid,2021.1.4,Win32,59.68011459,,,,,,,,,,,,,,,,,,,,,,,,,,,,,,,,,,,,,,,,,,,,,,,,,,,,,,,,,,,,,,,,,,,,,,,,,,,,,,,,,,,,,,,,,
,,8,2.6667,8,2.6667,0,86,86,60,1,122,flower,garden,,90482,001,2022-04-28_22h33.14.627,SPAMnetsValid,2021.1.4,Win32,59.68011459,,,,,,,,,,,,,,,,,,,,,,,,,,,,,,,,,,,,,,,,,,,,,,,,,,,,,,,,,,,,,,,,,,,,,,,,,,,,,,,,,,,,,,,,,
,,6,1.7669,6,1.7669,0,87,87,72,1,181,carrot,kitchen,,90482,001,2022-04-28_22h33.14.627,SPAMnetsValid,2021.1.4,Win32,59.68011459,,,,,,,,,,,,,,,,,,,,,,,,,,,,,,,,,,,,,,,,,,,,,,,,,,,,,,,,,,,,,,,,,,,,,,,,,,,,,,,,,,,,,,,,,
,,2,1.8571,2,1.8571,0,88,88,49,1,152,cactus,strawberry,,90482,001,2022-04-28_22h33.14.627,SPAMnetsValid,2021.1.4,Win32,59.68011459,,,,,,,,,,,,,,,,,,,,,,,,,,,,,,,,,,,,,,,,,,,,,,,,,,,,,,,,,,,,,,,,,,,,,,,,,,,,,,,,,,,,,,,,,
,,1,2.5684,1,2.5684,0,89,89,59,1,164,cookie,garden,,90482,001,2022-04-28_22h33.14.627,SPAMnetsValid,2021.1.4,Win32,59.68011459,,,,,,,,,,,,,,,,,,,,,,,,,,,,,,,,,,,,,,,,,,,,,,,,,,,,,,,,,,,,,,,,,,,,,,,,,,,,,,,,,,,,,,,,,
,,7,2.6235,7,2.6235,0,90,90,10,1,118,chocolate,oven,,90482,001,2022-04-28_22h33.14.627,SPAMnetsValid,2021.1.4,Win32,59.68011459,,,,,,,,,,,,,,,,,,,,,,,,,,,,,,,,,,,,,,,,,,,,,,,,,,,,,,,,,,,,,,,,,,,,,,,,,,,,,,,,,,,,,,,,,
,,4,2.2528,4,2.2528,0,91,91,2,1,174,cake,pretzel,,90482,001,2022-04-28_22h33.14.627,SPAMnetsValid,2021.1.4,Win32,59.68011459,,,,,,,,,,,,,,,,,,,,,,,,,,,,,,,,,,,,,,,,,,,,,,,,,,,,,,,,,,,,,,,,,,,,,,,,,,,,,,,,,,,,,,,,,
,,3,1.4079,3,1.4079,0,92,92,21,1,159,cookie,flower,,90482,001,2022-04-28_22h33.14.627,SPAMnetsValid,2021.1.4,Win32,59.68011459,,,,,,,,,,,,,,,,,,,,,,,,,,,,,,,,,,,,,,,,,,,,,,,,,,,,,,,,,,,,,,,,,,,,,,,,,,,,,,,,,,,,,,,,,
,,2,1.6725,2,1.6725,0,93,93,82,1,98,pretzel,strawberry,,90482,001,2022-04-28_22h33.14.627,SPAMnetsValid,2021.1.4,Win32,59.68011459,,,,,,,,,,,,,,,,,,,,,,,,,,,,,,,,,,,,,,,,,,,,,,,,,,,,,,,,,,,,,,,,,,,,,,,,,,,,,,,,,,,,,,,,,
,,1,1.7496,1,1.7496,0,94,94,88,1,171,cake,tomato,,90482,001,2022-04-28_22h33.14.627,SPAMnetsValid,2021.1.4,Win32,59.68011459,,,,,,,,,,,,,,,,,,,,,,,,,,,,,,,,,,,,,,,,,,,,,,,,,,,,,,,,,,,,,,,,,,,,,,,,,,,,,,,,,,,,,,,,,
,,1,1.5101,1,1.5101,0,95,95,46,1,123,cookie,tree,,90482,001,2022-04-28_22h33.14.627,SPAMnetsValid,2021.1.4,Win32,59.68011459,,,,,,,,,,,,,,,,,,,,,,,,,,,,,,,,,,,,,,,,,,,,,,,,,,,,,,,,,,,,,,,,,,,,,,,,,,,,,,,,,,,,,,,,,
,,7,2.381,7,2.381,0,96,96,69,1,124,oven,refrigerator,,90482,001,2022-04-28_22h33.14.627,SPAMnetsValid,2021.1.4,Win32,59.68011459,,,,,,,,,,,,,,,,,,,,,,,,,,,,,,,,,,,,,,,,,,,,,,,,,,,,,,,,,,,,,,,,,,,,,,,,,,,,,,,,,,,,,,,,,
,,,,,,,,,,,,,,,90482,001,2022-04-28_22h33.14.627,SPAMnetsValid,2021.1.4,Win32,59.68011459,0,0,0,0,1,,,,,,,,,,,,,,,,,,,,,,,,,,,,,,,,,,,,,,,,,,,,,,,,,,,,,,,,,,,,,,,,,,,,,,,,,,,,,,,,,,,,
,,,,,,,,,,,,,,,90482,001,2022-04-28_22h33.14.627,SPAMnetsValid,2021.1.4,Win32,59.68011459,,,,,,0,0,0,1,1,0,1,,,,,,,,,,,,,,,,,,,,,,,,,,,,,,,,,,,,,,,,,,,,,,,,,,,,,,,,,,,,,,,,,,,,,,,,,,,,,
,,,,1,18.4161,,,,,,55,tomato,tree,,90482,001,2022-04-28_22h33.14.627,SPAMnetsValid,2021.1.4,Win32,59.68011459,,,,,,,,,,,,,1,18.4161,0,0,0,35,1,,,,,,,,,,,,,,,,,,,,,,,,,,,,,,,,,,,,,,,,,,,,,,,,,,,,,,,,,,,,,,,,,,,,,,
,,,,1,1.5664,,,,,,83,broom,carrot,,90482,001,2022-04-28_22h33.14.627,SPAMnetsValid,2021.1.4,Win32,59.68011459,,,,,,,,,,,,,1,1.5664,0,1,1,4,1,,,,,,,,,,,,,,,,,,,,,,,,,,,,,,,,,,,,,,,,,,,,,,,,,,,,,,,,,,,,,,,,,,,,,,
,,,,8,2.7669,,,,,,79,garden,strawberry,,90482,001,2022-04-28_22h33.14.627,SPAMnetsValid,2021.1.4,Win32,59.68011459,,,,,,,,,,,,,8,2.7669,0,2,2,87,1,,,,,,,,,,,,,,,,,,,,,,,,,,,,,,,,,,,,,,,,,,,,,,,,,,,,,,,,,,,,,,,,,,,,,,
,,,,6,1.6031,,,,,,42,garden,kitchen,,90482,001,2022-04-28_22h33.14.627,SPAMnetsValid,2021.1.4,Win32,59.68011459,,,,,,,,,,,,,6,1.6031,0,3,3,29,1,,,,,,,,,,,,,,,,,,,,,,,,,,,,,,,,,,,,,,,,,,,,,,,,,,,,,,,,,,,,,,,,,,,,,,
,,,,6,1.5772,,,,,,18,onion,refrigerator,,90482,001,2022-04-28_22h33.14.627,SPAMnetsValid,2021.1.4,Win32,59.68011459,,,,,,,,,,,,,6,1.5772,0,4,4,62,1,,,,,,,,,,,,,,,,,,,,,,,,,,,,,,,,,,,,,,,,,,,,,,,,,,,,,,,,,,,,,,,,,,,,,,
,,,,3,2.0903,,,,,,86,oven,rose,,90482,001,2022-04-28_22h33.14.627,SPAMnetsValid,2021.1.4,Win32,59.68011459,,,,,,,,,,,,,3,2.0903,0,5,5,79,1,,,,,,,,,,,,,,,,,,,,,,,,,,,,,,,,,,,,,,,,,,,,,,,,,,,,,,,,,,,,,,,,,,,,,,
,,,,3,1.6604,,,,,,46,garden,yogurt,,90482,001,2022-04-28_22h33.14.627,SPAMnetsValid,2021.1.4,Win32,59.68011459,,,,,,,,,,,,,3,1.6604,0,6,6,65,1,,,,,,,,,,,,,,,,,,,,,,,,,,,,,,,,,,,,,,,,,,,,,,,,,,,,,,,,,,,,,,,,,,,,,,
,,,,2,1.4247,,,,,,73,broom,chocolate,,90482,001,2022-04-28_22h33.14.627,SPAMnetsValid,2021.1.4,Win32,59.68011459,,,,,,,,,,,,,2,1.4247,0,7,7,47,1,,,,,,,,,,,,,,,,,,,,,,,,,,,,,,,,,,,,,,,,,,,,,,,,,,,,,,,,,,,,,,,,,,,,,,
,,,,6,2.6653,,,,,,77,refrigerator,yogurt,,90482,001,2022-04-28_22h33.14.627,SPAMnetsValid,2021.1.4,Win32,59.68011459,,,,,,,,,,,,,6,2.6653,0,8,8,42,1,,,,,,,,,,,,,,,,,,,,,,,,,,,,,,,,,,,,,,,,,,,,,,,,,,,,,,,,,,,,,,,,,,,,,,
,,,,1,3.5414,,,,,,11,refrigerator,tree,,90482,001,2022-04-28_22h33.14.627,SPAMnetsValid,2021.1.4,Win32,59.68011459,,,,,,,,,,,,,1,3.5414,0,9,9,43,1,,,,,,,,,,,,,,,,,,,,,,,,,,,,,,,,,,,,,,,,,,,,,,,,,,,,,,,,,,,,,,,,,,,,,,
,,,,9,1.9657,,,,,,9,kitchen,refrigerator,,90482,001,2022-04-28_22h33.14.627,SPAMnetsValid,2021.1.4,Win32,59.68011459,,,,,,,,,,,,,9,1.9657,0,10,10,64,1,,,,,,,,,,,,,,,,,,,,,,,,,,,,,,,,,,,,,,,,,,,,,,,,,,,,,,,,,,,,,,,,,,,,,,
,,,,7,2.1672,,,,,,2,kitchen,onion,,90482,001,2022-04-28_22h33.14.627,SPAMnetsValid,2021.1.4,Win32,59.68011459,,,,,,,,,,,,,7,2.1672,0,11,11,91,1,,,,,,,,,,,,,,,,,,,,,,,,,,,,,,,,,,,,,,,,,,,,,,,,,,,,,,,,,,,,,,,,,,,,,,
,,,,2,1.5274,,,,,,81,pretzel,yogurt,,90482,001,2022-04-28_22h33.14.627,SPAMnetsValid,2021.1.4,Win32,59.68011459,,,,,,,,,,,,,2,1.5274,0,12,12,50,1,,,,,,,,,,,,,,,,,,,,,,,,,,,,,,,,,,,,,,,,,,,,,,,,,,,,,,,,,,,,,,,,,,,,,,
,,,,1,2.7646,,,,,,31,cactus,pretzel,,90482,001,2022-04-28_22h33.14.627,SPAMnetsValid,2021.1.4,Win32,59.68011459,,,,,,,,,,,,,1,2.7646,0,13,13,1,1,,,,,,,,,,,,,,,,,,,,,,,,,,,,,,,,,,,,,,,,,,,,,,,,,,,,,,,,,,,,,,,,,,,,,,
,,,,9,1.7043,,,,,,93,kitchen,oven,,90482,001,2022-04-28_22h33.14.627,SPAMnetsValid,2021.1.4,Win32,59.68011459,,,,,,,,,,,,,9,1.7043,0,14,14,82,1,,,,,,,,,,,,,,,,,,,,,,,,,,,,,,,,,,,,,,,,,,,,,,,,,,,,,,,,,,,,,,,,,,,,,,
,,,,4,2.51,,,,,,26,tomato,yogurt,,90482,001,2022-04-28_22h33.14.627,SPAMnetsValid,2021.1.4,Win32,59.68011459,,,,,,,,,,,,,4,2.51,0,15,15,13,1,,,,,,,,,,,,,,,,,,,,,,,,,,,,,,,,,,,,,,,,,,,,,,,,,,,,,,,,,,,,,,,,,,,,,,
,,,,2,2.8213,,,,,,61,strawberry,tomato,,90482,001,2022-04-28_22h33.14.627,SPAMnetsValid,2021.1.4,Win32,59.68011459,,,,,,,,,,,,,2,2.8213,0,16,16,80,1,,,,,,,,,,,,,,,,,,,,,,,,,,,,,,,,,,,,,,,,,,,,,,,,,,,,,,,,,,,,,,,,,,,,,,
,,,,3,1.8422,,,,,,74,broom,pretzel,,90482,001,2022-04-28_22h33.14.627,SPAMnetsValid,2021.1.4,Win32,59.68011459,,,,,,,,,,,,,3,1.8422,0,17,17,40,1,,,,,,,,,,,,,,,,,,,,,,,,,,,,,,,,,,,,,,,,,,,,,,,,,,,,,,,,,,,,,,,,,,,,,,
,,,,2,2.9714,,,,,,89,chocolate,rose,,90482,001,2022-04-28_22h33.14.627,SPAMnetsValid,2021.1.4,Win32,59.68011459,,,,,,,,,,,,,2,2.9714,0,18,18,60,1,,,,,,,,,,,,,,,,,,,,,,,,,,,,,,,,,,,,,,,,,,,,,,,,,,,,,,,,,,,,,,,,,,,,,,
,,,,2,1.5886,,,,,,92,broom,flower,,90482,001,2022-04-28_22h33.14.627,SPAMnetsValid,2021.1.4,Win32,59.68011459,,,,,,,,,,,,,2,1.5886,0,19,19,88,1,,,,,,,,,,,,,,,,,,,,,,,,,,,,,,,,,,,,,,,,,,,,,,,,,,,,,,,,,,,,,,,,,,,,,,
,,,,9,1.9162,,,,,,191,cake,cake,CHECK,90482,001,2022-04-28_22h33.14.627,SPAMnetsValid,2021.1.4,Win32,59.68011459,,,,,,,,,,,,,9,1.9162,0,20,20,10,1,,,,,,,,,,,,,,,,,,,,,,,,,,,,,,,,,,,,,,,,,,,,,,,,,,,,,,,,,,,,,,,,,,,,,,
,,,,2,2.5633,,,,,,13,broom,yogurt,,90482,001,2022-04-28_22h33.14.627,SPAMnetsValid,2021.1.4,Win32,59.68011459,,,,,,,,,,,,,2,2.5633,0,21,21,5,1,,,,,,,,,,,,,,,,,,,,,,,,,,,,,,,,,,,,,,,,,,,,,,,,,,,,,,,,,,,,,,,,,,,,,,
,,,,2,1.8421,,,,,,35,flower,pretzel,,90482,001,2022-04-28_22h33.14.627,SPAMnetsValid,2021.1.4,Win32,59.68011459,,,,,,,,,,,,,2,1.8421,0,22,22,26,1,,,,,,,,,,,,,,,,,,,,,,,,,,,,,,,,,,,,,,,,,,,,,,,,,,,,,,,,,,,,,,,,,,,,,,
,,,,1,1.9464,,,,,,90,cactus,cake,,90482,001,2022-04-28_22h33.14.627,SPAMnetsValid,2021.1.4,Win32,59.68011459,,,,,,,,,,,,,1,1.9464,0,23,23,85,1,,,,,,,,,,,,,,,,,,,,,,,,,,,,,,,,,,,,,,,,,,,,,,,,,,,,,,,,,,,,,,,,,,,,,,
,,,,1,9.2485,,,,,,75,cookie,onion,,90482,001,2022-04-28_22h33.14.627,SPAMnetsValid,2021.1.4,Win32,59.68011459,,,,,,,,,,,,,1,9.2485,0,24,24,9,1,,,,,,,,,,,,,,,,,,,,,,,,,,,,,,,,,,,,,,,,,,,,,,,,,,,,,,,,,,,,,,,,,,,,,,
,,,,9,2.3248,,,,,,94,kitchen,microwave,,90482,001,2022-04-28_22h33.14.627,SPAMnetsValid,2021.1.4,Win32,59.68011459,,,,,,,,,,,,,9,2.3248,0,25,25,58,1,,,,,,,,,,,,,,,,,,,,,,,,,,,,,,,,,,,,,,,,,,,,,,,,,,,,,,,,,,,,,,,,,,,,,,
,,,,3,1.9456,,,,,,38,pretzel,refrigerator,,90482,001,2022-04-28_22h33.14.627,SPAMnetsValid,2021.1.4,Win32,59.68011459,,,,,,,,,,,,,3,1.9456,0,26,26,71,1,,,,,,,,,,,,,,,,,,,,,,,,,,,,,,,,,,,,,,,,,,,,,,,,,,,,,,,,,,,,,,,,,,,,,,
,,,,2,3.4406,,,,,,68,flower,tomato,,90482,001,2022-04-28_22h33.14.627,SPAMnetsValid,2021.1.4,Win32,59.68011459,,,,,,,,,,,,,2,3.4406,0,27,27,94,1,,,,,,,,,,,,,,,,,,,,,,,,,,,,,,,,,,,,,,,,,,,,,,,,,,,,,,,,,,,,,,,,,,,,,,
,,,,7,2.1635,,,,,,36,broom,kitchen,,90482,001,2022-04-28_22h33.14.627,SPAMnetsValid,2021.1.4,Win32,59.68011459,,,,,,,,,,,,,7,2.1635,0,28,28,76,1,,,,,,,,,,,,,,,,,,,,,,,,,,,,,,,,,,,,,,,,,,,,,,,,,,,,,,,,,,,,,,,,,,,,,,
,,,,6,3.0959,,,,,,19,microwave,pretzel,,90482,001,2022-04-28_22h33.14.627,SPAMnetsValid,2021.1.4,Win32,59.68011459,,,,,,,,,,,,,6,3.0959,0,29,29,41,1,,,,,,,,,,,,,,,,,,,,,,,,,,,,,,,,,,,,,,,,,,,,,,,,,,,,,,,,,,,,,,,,,,,,,,
,,,,1,3.3136,,,,,,20,rose,tree,,90482,001,2022-04-28_22h33.14.627,SPAMnetsValid,2021.1.4,Win32,59.68011459,,,,,,,,,,,,,1,3.3136,0,30,30,66,1,,,,,,,,,,,,,,,,,,,,,,,,,,,,,,,,,,,,,,,,,,,,,,,,,,,,,,,,,,,,,,,,,,,,,,
,,,,1,2.6152,,,,,,51,onion,strawberry,,90482,001,2022-04-28_22h33.14.627,SPAMnetsValid,2021.1.4,Win32,59.68011459,,,,,,,,,,,,,1,2.6152,0,31,31,86,1,,,,,,,,,,,,,,,,,,,,,,,,,,,,,,,,,,,,,,,,,,,,,,,,,,,,,,,,,,,,,,,,,,,,,,
,,,,9,1.625,,,,,,192,microwave,microwave,CHECK,90482,001,2022-04-28_22h33.14.627,SPAMnetsValid,2021.1.4,Win32,59.68011459,,,,,,,,,,,,,9,1.625,0,32,32,53,1,,,,,,,,,,,,,,,,,,,,,,,,,,,,,,,,,,,,,,,,,,,,,,,,,,,,,,,,,,,,,,,,,,,,,,
,,,,1,2.496,,,,,,57,flower,kitchen,,90482,001,2022-04-28_22h33.14.627,SPAMnetsValid,2021.1.4,Win32,59.68011459,,,,,,,,,,,,,1,2.496,0,33,33,49,1,,,,,,,,,,,,,,,,,,,,,,,,,,,,,,,,,,,,,,,,,,,,,,,,,,,,,,,,,,,,,,,,,,,,,,
,,,,2,13.7501,,,,,,16,chocolate,flower,,90482,001,2022-04-28_22h33.14.627,SPAMnetsValid,2021.1.4,Win32,59.68011459,,,,,,,,,,,,,2,13.7501,0,34,34,22,1,,,,,,,,,,,,,,,,,,,,,,,,,,,,,,,,,,,,,,,,,,,,,,,,,,,,,,,,,,,,,,,,,,,,,,
,,,,2,2.1123,,,,,,14,broom,cookie,,90482,001,2022-04-28_22h33.14.627,SPAMnetsValid,2021.1.4,Win32,59.68011459,,,,,,,,,,,,,2,2.1123,0,35,35,16,1,,,,,,,,,,,,,,,,,,,,,,,,,,,,,,,,,,,,,,,,,,,,,,,,,,,,,,,,,,,,,,,,,,,,,,
,,,,8,3.9109,,,,,,6,garden,onion,,90482,001,2022-04-28_22h33.14.627,SPAMnetsValid,2021.1.4,Win32,59.68011459,,,,,,,,,,,,,8,3.9109,0,36,36,83,1,,,,,,,,,,,,,,,,,,,,,,,,,,,,,,,,,,,,,,,,,,,,,,,,,,,,,,,,,,,,,,,,,,,,,,
,,,,2,1.6012,,,,,,21,cake,onion,,90482,001,2022-04-28_22h33.14.627,SPAMnetsValid,2021.1.4,Win32,59.68011459,,,,,,,,,,,,,2,1.6012,0,37,37,63,1,,,,,,,,,,,,,,,,,,,,,,,,,,,,,,,,,,,,,,,,,,,,,,,,,,,,,,,,,,,,,,,,,,,,,,
,,,,2,1.3991,,,,,,39,melon,pretzel,,90482,001,2022-04-28_22h33.14.627,SPAMnetsValid,2021.1.4,Win32,59.68011459,,,,,,,,,,,,,2,1.3991,0,38,38,20,1,,,,,,,,,,,,,,,,,,,,,,,,,,,,,,,,,,,,,,,,,,,,,,,,,,,,,,,,,,,,,,,,,,,,,,
,,,,2,1.5145,,,,,,44,cookie,melon,,90482,001,2022-04-28_22h33.14.627,SPAMnetsValid,2021.1.4,Win32,59.68011459,,,,,,,,,,,,,2,1.5145,0,39,39,92,1,,,,,,,,,,,,,,,,,,,,,,,,,,,,,,,,,,,,,,,,,,,,,,,,,,,,,,,,,,,,,,,,,,,,,,
,,,,1,1.6732,,,,,,91,microwave,rose,,90482,001,2022-04-28_22h33.14.627,SPAMnetsValid,2021.1.4,Win32,59.68011459,,,,,,,,,,,,,1,1.6732,0,40,40,84,1,,,,,,,,,,,,,,,,,,,,,,,,,,,,,,,,,,,,,,,,,,,,,,,,,,,,,,,,,,,,,,,,,,,,,,
,,,,2,1.5195,,,,,,56,cactus,tree,,90482,001,2022-04-28_22h33.14.627,SPAMnetsValid,2021.1.4,Win32,59.68011459,,,,,,,,,,,,,2,1.5195,0,41,41,21,1,,,,,,,,,,,,,,,,,,,,,,,,,,,,,,,,,,,,,,,,,,,,,,,,,,,,,,,,,,,,,,,,,,,,,,
,,,,1,1.8918,,,,,,34,melon,oven,,90482,001,2022-04-28_22h33.14.627,SPAMnetsValid,2021.1.4,Win32,59.68011459,,,,,,,,,,,,,1,1.8918,0,42,42,7,1,,,,,,,,,,,,,,,,,,,,,,,,,,,,,,,,,,,,,,,,,,,,,,,,,,,,,,,,,,,,,,,,,,,,,,
,,,,2,2.2216,,,,,,15,onion,oven,,90482,001,2022-04-28_22h33.14.627,SPAMnetsValid,2021.1.4,Win32,59.68011459,,,,,,,,,,,,,2,2.2216,0,43,43,39,1,,,,,,,,,,,,,,,,,,,,,,,,,,,,,,,,,,,,,,,,,,,,,,,,,,,,,,,,,,,,,,,,,,,,,,
,,,,6,2.6694,,,,,,25,carrot,onion,,90482,001,2022-04-28_22h33.14.627,SPAMnetsValid,2021.1.4,Win32,59.68011459,,,,,,,,,,,,,6,2.6694,0,44,44,44,1,,,,,,,,,,,,,,,,,,,,,,,,,,,,,,,,,,,,,,,,,,,,,,,,,,,,,,,,,,,,,,,,,,,,,,
,,,,2,1.6076,,,,,,8,broom,melon,,90482,001,2022-04-28_22h33.14.627,SPAMnetsValid,2021.1.4,Win32,59.68011459,,,,,,,,,,,,,2,1.6076,0,45,45,59,1,,,,,,,,,,,,,,,,,,,,,,,,,,,,,,,,,,,,,,,,,,,,,,,,,,,,,,,,,,,,,,,,,,,,,,
,,,,2,4.6996,,,,,,24,cookie,tomato,,90482,001,2022-04-28_22h33.14.627,SPAMnetsValid,2021.1.4,Win32,59.68011459,,,,,,,,,,,,,2,4.6996,0,46,46,68,1,,,,,,,,,,,,,,,,,,,,,,,,,,,,,,,,,,,,,,,,,,,,,,,,,,,,,,,,,,,,,,,,,,,,,,
,,,,2,1.108,,,,,,67,flower,yogurt,,90482,001,2022-04-28_22h33.14.627,SPAMnetsValid,2021.1.4,Win32,59.68011459,,,,,,,,,,,,,2,1.108,0,47,47,12,1,,,,,,,,,,,,,,,,,,,,,,,,,,,,,,,,,,,,,,,,,,,,,,,,,,,,,,,,,,,,,,,,,,,,,,
,,,,1,1.1241,,,,,,12,cookie,yogurt,,90482,001,2022-04-28_22h33.14.627,SPAMnetsValid,2021.1.4,Win32,59.68011459,,,,,,,,,,,,,1,1.1241,0,48,48,36,1,,,,,,,,,,,,,,,,,,,,,,,,,,,,,,,,,,,,,,,,,,,,,,,,,,,,,,,,,,,,,,,,,,,,,,
,,,,5,2.1206,,,,,,66,melon,yogurt,,90482,001,2022-04-28_22h33.14.627,SPAMnetsValid,2021.1.4,Win32,59.68011459,,,,,,,,,,,,,5,2.1206,0,49,49,48,1,,,,,,,,,,,,,,,,,,,,,,,,,,,,,,,,,,,,,,,,,,,,,,,,,,,,,,,,,,,,,,,,,,,,,,
,,,,3,2.8409,,,,,,84,oven,tomato,,90482,001,2022-04-28_22h33.14.627,SPAMnetsValid,2021.1.4,Win32,59.68011459,,,,,,,,,,,,,3,2.8409,0,50,50,28,1,,,,,,,,,,,,,,,,,,,,,,,,,,,,,,,,,,,,,,,,,,,,,,,,,,,,,,,,,,,,,,,,,,,,,,
,,,,2,1.8905,,,,,,80,chocolate,tree,,90482,001,2022-04-28_22h33.14.627,SPAMnetsValid,2021.1.4,Win32,59.68011459,,,,,,,,,,,,,2,1.8905,0,51,51,89,1,,,,,,,,,,,,,,,,,,,,,,,,,,,,,,,,,,,,,,,,,,,,,,,,,,,,,,,,,,,,,,,,,,,,,,
,,,,6,1.8486,,,,,,52,carrot,tomato,,90482,001,2022-04-28_22h33.14.627,SPAMnetsValid,2021.1.4,Win32,59.68011459,,,,,,,,,,,,,6,1.8486,0,52,52,95,1,,,,,,,,,,,,,,,,,,,,,,,,,,,,,,,,,,,,,,,,,,,,,,,,,,,,,,,,,,,,,,,,,,,,,,
,,,,2,2.2823,,,,,,58,garden,oven,,90482,001,2022-04-28_22h33.14.627,SPAMnetsValid,2021.1.4,Win32,59.68011459,,,,,,,,,,,,,2,2.2823,0,53,53,37,1,,,,,,,,,,,,,,,,,,,,,,,,,,,,,,,,,,,,,,,,,,,,,,,,,,,,,,,,,,,,,,,,,,,,,,
,,,,8,2.8147,,,,,,54,chocolate,yogurt,,90482,001,2022-04-28_22h33.14.627,SPAMnetsValid,2021.1.4,Win32,59.68011459,,,,,,,,,,,,,8,2.8147,0,54,54,67,1,,,,,,,,,,,,,,,,,,,,,,,,,,,,,,,,,,,,,,,,,,,,,,,,,,,,,,,,,,,,,,,,,,,,,,
,,,,3,2.4522,,,,,,1,rose,yogurt,,90482,001,2022-04-28_22h33.14.627,SPAMnetsValid,2021.1.4,Win32,59.68011459,,,,,,,,,,,,,3,2.4522,0,55,55,55,1,,,,,,,,,,,,,,,,,,,,,,,,,,,,,,,,,,,,,,,,,,,,,,,,,,,,,,,,,,,,,,,,,,,,,,
,,,,1,1.5802,,,,,,45,onion,pretzel,,90482,001,2022-04-28_22h33.14.627,SPAMnetsValid,2021.1.4,Win32,59.68011459,,,,,,,,,,,,,1,1.5802,0,56,56,69,1,,,,,,,,,,,,,,,,,,,,,,,,,,,,,,,,,,,,,,,,,,,,,,,,,,,,,,,,,,,,,,,,,,,,,,
,,,,8,2.6165,,,,,,76,garden,rose,,90482,001,2022-04-28_22h33.14.627,SPAMnetsValid,2021.1.4,Win32,59.68011459,,,,,,,,,,,,,8,2.6165,0,57,57,19,1,,,,,,,,,,,,,,,,,,,,,,,,,,,,,,,,,,,,,,,,,,,,,,,,,,,,,,,,,,,,,,,,,,,,,,
,,,,2,6.8203,,,,,,27,cactus,cookie,,90482,001,2022-04-28_22h33.14.627,SPAMnetsValid,2021.1.4,Win32,59.68011459,,,,,,,,,,,,,2,6.8203,0,58,58,17,1,,,,,,,,,,,,,,,,,,,,,,,,,,,,,,,,,,,,,,,,,,,,,,,,,,,,,,,,,,,,,,,,,,,,,,
,,,,1,12.9508,,,,,,40,broom,cake,,90482,001,2022-04-28_22h33.14.627,SPAMnetsValid,2021.1.4,Win32,59.68011459,,,,,,,,,,,,,1,12.9508,0,59,59,32,1,,,,,,,,,,,,,,,,,,,,,,,,,,,,,,,,,,,,,,,,,,,,,,,,,,,,,,,,,,,,,,,,,,,,,,
,,,,1,1.1593,,,,,,65,broom,garden,,90482,001,2022-04-28_22h33.14.627,SPAMnetsValid,2021.1.4,Win32,59.68011459,,,,,,,,,,,,,1,1.1593,0,60,60,23,1,,,,,,,,,,,,,,,,,,,,,,,,,,,,,,,,,,,,,,,,,,,,,,,,,,,,,,,,,,,,,,,,,,,,,,
,,,,1,0.978,,,,,,72,broom,onion,,90482,001,2022-04-28_22h33.14.627,SPAMnetsValid,2021.1.4,Win32,59.68011459,,,,,,,,,,,,,1,0.978,0,61,61,27,1,,,,,,,,,,,,,,,,,,,,,,,,,,,,,,,,,,,,,,,,,,,,,,,,,,,,,,,,,,,,,,,,,,,,,,
,,,,1,1.376,,,,,,50,carrot,rose,,90482,001,2022-04-28_22h33.14.627,SPAMnetsValid,2021.1.4,Win32,59.68011459,,,,,,,,,,,,,1,1.376,0,62,62,73,1,,,,,,,,,,,,,,,,,,,,,,,,,,,,,,,,,,,,,,,,,,,,,,,,,,,,,,,,,,,,,,,,,,,,,,
,,,,1,1.5757,,,,,,23,flower,microwave,,90482,001,2022-04-28_22h33.14.627,SPAMnetsValid,2021.1.4,Win32,59.68011459,,,,,,,,,,,,,1,1.5757,0,63,63,25,1,,,,,,,,,,,,,,,,,,,,,,,,,,,,,,,,,,,,,,,,,,,,,,,,,,,,,,,,,,,,,,,,,,,,,,
,,,,1,0.9525,,,,,,71,broom,rose,,90482,001,2022-04-28_22h33.14.627,SPAMnetsValid,2021.1.4,Win32,59.68011459,,,,,,,,,,,,,1,0.9525,0,64,64,61,1,,,,,,,,,,,,,,,,,,,,,,,,,,,,,,,,,,,,,,,,,,,,,,,,,,,,,,,,,,,,,,,,,,,,,,
,,,,1,0.9047,,,,,,41,broom,cactus,,90482,001,2022-04-28_22h33.14.627,SPAMnetsValid,2021.1.4,Win32,59.68011459,,,,,,,,,,,,,1,0.9047,0,65,65,46,1,,,,,,,,,,,,,,,,,,,,,,,,,,,,,,,,,,,,,,,,,,,,,,,,,,,,,,,,,,,,,,,,,,,,,,
,,,,1,1.3599,,,,,,43,chocolate,tomato,,90482,001,2022-04-28_22h33.14.627,SPAMnetsValid,2021.1.4,Win32,59.68011459,,,,,,,,,,,,,1,1.3599,0,66,66,8,1,,,,,,,,,,,,,,,,,,,,,,,,,,,,,,,,,,,,,,,,,,,,,,,,,,,,,,,,,,,,,,,,,,,,,,
,,,,1,1.1516,,,,,,95,broom,refrigerator,,90482,001,2022-04-28_22h33.14.627,SPAMnetsValid,2021.1.4,Win32,59.68011459,,,,,,,,,,,,,1,1.1516,0,67,67,90,1,,,,,,,,,,,,,,,,,,,,,,,,,,,,,,,,,,,,,,,,,,,,,,,,,,,,,,,,,,,,,,,,,,,,,,
,,,,2,1.539,,,,,,29,chocolate,melon,,90482,001,2022-04-28_22h33.14.627,SPAMnetsValid,2021.1.4,Win32,59.68011459,,,,,,,,,,,,,2,1.539,0,68,68,34,1,,,,,,,,,,,,,,,,,,,,,,,,,,,,,,,,,,,,,,,,,,,,,,,,,,,,,,,,,,,,,,,,,,,,,,
,,,,2,0.9009,,,,,,59,rose,strawberry,,90482,001,2022-04-28_22h33.14.627,SPAMnetsValid,2021.1.4,Win32,59.68011459,,,,,,,,,,,,,2,0.9009,0,69,69,72,1,,,,,,,,,,,,,,,,,,,,,,,,,,,,,,,,,,,,,,,,,,,,,,,,,,,,,,,,,,,,,,,,,,,,,,
,,,,6,2.3577,,,,,,22,kitchen,strawberry,,90482,001,2022-04-28_22h33.14.627,SPAMnetsValid,2021.1.4,Win32,59.68011459,,,,,,,,,,,,,6,2.3577,0,70,70,2,1,,,,,,,,,,,,,,,,,,,,,,,,,,,,,,,,,,,,,,,,,,,,,,,,,,,,,,,,,,,,,,,,,,,,,,
,,,,6,1.9606,,,,,,82,cake,kitchen,,90482,001,2022-04-28_22h33.14.627,SPAMnetsValid,2021.1.4,Win32,59.68011459,,,,,,,,,,,,,6,1.9606,0,71,71,96,1,,,,,,,,,,,,,,,,,,,,,,,,,,,,,,,,,,,,,,,,,,,,,,,,,,,,,,,,,,,,,,,,,,,,,,
,,,,2,3.599,,,,,,78,cookie,rose,,90482,001,2022-04-28_22h33.14.627,SPAMnetsValid,2021.1.4,Win32,59.68011459,,,,,,,,,,,,,2,3.599,0,72,72,56,1,,,,,,,,,,,,,,,,,,,,,,,,,,,,,,,,,,,,,,,,,,,,,,,,,,,,,,,,,,,,,,,,,,,,,,
,,,,2,1.8323,,,,,,64,chocolate,garden,,90482,001,2022-04-28_22h33.14.627,SPAMnetsValid,2021.1.4,Win32,59.68011459,,,,,,,,,,,,,2,1.8323,0,73,73,14,1,,,,,,,,,,,,,,,,,,,,,,,,,,,,,,,,,,,,,,,,,,,,,,,,,,,,,,,,,,,,,,,,,,,,,,
,,,,1,1.4914,,,,,,48,flower,oven,,90482,001,2022-04-28_22h33.14.627,SPAMnetsValid,2021.1.4,Win32,59.68011459,,,,,,,,,,,,,1,1.4914,0,74,74,15,1,,,,,,,,,,,,,,,,,,,,,,,,,,,,,,,,,,,,,,,,,,,,,,,,,,,,,,,,,,,,,,,,,,,,,,
,,,,3,2.7084,,,,,,32,cake,microwave,,90482,001,2022-04-28_22h33.14.627,SPAMnetsValid,2021.1.4,Win32,59.68011459,,,,,,,,,,,,,3,2.7084,0,75,75,33,1,,,,,,,,,,,,,,,,,,,,,,,,,,,,,,,,,,,,,,,,,,,,,,,,,,,,,,,,,,,,,,,,,,,,,,
,,,,1,2.3896,,,,,,62,kitchen,rose,,90482,001,2022-04-28_22h33.14.627,SPAMnetsValid,2021.1.4,Win32,59.68011459,,,,,,,,,,,,,1,2.3896,0,76,76,57,1,,,,,,,,,,,,,,,,,,,,,,,,,,,,,,,,,,,,,,,,,,,,,,,,,,,,,,,,,,,,,,,,,,,,,,
,,,,1,1.4645,,,,,,85,cake,tree,,90482,001,2022-04-28_22h33.14.627,SPAMnetsValid,2021.1.4,Win32,59.68011459,,,,,,,,,,,,,1,1.4645,0,77,77,18,1,,,,,,,,,,,,,,,,,,,,,,,,,,,,,,,,,,,,,,,,,,,,,,,,,,,,,,,,,,,,,,,,,,,,,,
,,,,1,0.96,,,,,,5,oven,tree,,90482,001,2022-04-28_22h33.14.627,SPAMnetsValid,2021.1.4,Win32,59.68011459,,,,,,,,,,,,,1,0.96,0,78,78,70,1,,,,,,,,,,,,,,,,,,,,,,,,,,,,,,,,,,,,,,,,,,,,,,,,,,,,,,,,,,,,,,,,,,,,,,
,,,,3,4.4166,,,,,,88,cactus,melon,,90482,001,2022-04-28_22h33.14.627,SPAMnetsValid,2021.1.4,Win32,59.68011459,,,,,,,,,,,,,3,4.4166,0,79,79,38,1,,,,,,,,,,,,,,,,,,,,,,,,,,,,,,,,,,,,,,,,,,,,,,,,,,,,,,,,,,,,,,,,,,,,,,
,,,,1,1.629,,,,,,53,garden,pretzel,,90482,001,2022-04-28_22h33.14.627,SPAMnetsValid,2021.1.4,Win32,59.68011459,,,,,,,,,,,,,1,1.629,0,80,80,0,1,,,,,,,,,,,,,,,,,,,,,,,,,,,,,,,,,,,,,,,,,,,,,,,,,,,,,,,,,,,,,,,,,,,,,,
,,,,1,0.9866,,,,,,30,cookie,pretzel,,90482,001,2022-04-28_22h33.14.627,SPAMnetsValid,2021.1.4,Win32,59.68011459,,,,,,,,,,,,,1,0.9866,0,81,81,78,1,,,,,,,,,,,,,,,,,,,,,,,,,,,,,,,,,,,,,,,,,,,,,,,,,,,,,,,,,,,,,,,,,,,,,,
,,,,2,1.4913,,,,,,10,flower,onion,,90482,001,2022-04-28_22h33.14.627,SPAMnetsValid,2021.1.4,Win32,59.68011459,,,,,,,,,,,,,2,1.4913,0,82,82,45,1,,,,,,,,,,,,,,,,,,,,,,,,,,,,,,,,,,,,,,,,,,,,,,,,,,,,,,,,,,,,,,,,,,,,,,
,,,,5,2.1052,,,,,,49,flower,strawberry,,90482,001,2022-04-28_22h33.14.627,SPAMnetsValid,2021.1.4,Win32,59.68011459,,,,,,,,,,,,,5,2.1052,0,83,83,3,1,,,,,,,,,,,,,,,,,,,,,,,,,,,,,,,,,,,,,,,,,,,,,,,,,,,,,,,,,,,,,,,,,,,,,,
,,,,5,1.4684,,,,,,60,cactus,onion,,90482,001,2022-04-28_22h33.14.627,SPAMnetsValid,2021.1.4,Win32,59.68011459,,,,,,,,,,,,,5,1.4684,0,84,84,81,1,,,,,,,,,,,,,,,,,,,,,,,,,,,,,,,,,,,,,,,,,,,,,,,,,,,,,,,,,,,,,,,,,,,,,,
,,,,8,3.4663,,,,,,3,cake,oven,,90482,001,2022-04-28_22h33.14.627,SPAMnetsValid,2021.1.4,Win32,59.68011459,,,,,,,,,,,,,8,3.4663,0,85,85,30,1,,,,,,,,,,,,,,,,,,,,,,,,,,,,,,,,,,,,,,,,,,,,,,,,,,,,,,,,,,,,,,,,,,,,,,
,,,,6,1.9726,,,,,,4,chocolate,pretzel,,90482,001,2022-04-28_22h33.14.627,SPAMnetsValid,2021.1.4,Win32,59.68011459,,,,,,,,,,,,,6,1.9726,0,86,86,52,1,,,,,,,,,,,,,,,,,,,,,,,,,,,,,,,,,,,,,,,,,,,,,,,,,,,,,,,,,,,,,,,,,,,,,,
,,,,2,2.1918,,,,,,70,chocolate,onion,,90482,001,2022-04-28_22h33.14.627,SPAMnetsValid,2021.1.4,Win32,59.68011459,,,,,,,,,,,,,2,2.1918,0,87,87,74,1,,,,,,,,,,,,,,,,,,,,,,,,,,,,,,,,,,,,,,,,,,,,,,,,,,,,,,,,,,,,,,,,,,,,,,
,,,,4,2.5174,,,,,,17,carrot,melon,,90482,001,2022-04-28_22h33.14.627,SPAMnetsValid,2021.1.4,Win32,59.68011459,,,,,,,,,,,,,4,2.5174,0,88,88,24,1,,,,,,,,,,,,,,,,,,,,,,,,,,,,,,,,,,,,,,,,,,,,,,,,,,,,,,,,,,,,,,,,,,,,,,
,,,,6,1.9937,,,,,,47,onion,tomato,,90482,001,2022-04-28_22h33.14.627,SPAMnetsValid,2021.1.4,Win32,59.68011459,,,,,,,,,,,,,6,1.9937,0,89,89,51,1,,,,,,,,,,,,,,,,,,,,,,,,,,,,,,,,,,,,,,,,,,,,,,,,,,,,,,,,,,,,,,,,,,,,,,
,,,,2,1.8823,,,,,,37,garden,refrigerator,,90482,001,2022-04-28_22h33.14.627,SPAMnetsValid,2021.1.4,Win32,59.68011459,,,,,,,,,,,,,2,1.8823,0,90,90,11,1,,,,,,,,,,,,,,,,,,,,,,,,,,,,,,,,,,,,,,,,,,,,,,,,,,,,,,,,,,,,,,,,,,,,,,
,,,,3,1.7234,,,,,,87,carrot,yogurt,,90482,001,2022-04-28_22h33.14.627,SPAMnetsValid,2021.1.4,Win32,59.68011459,,,,,,,,,,,,,3,1.7234,0,91,91,6,1,,,,,,,,,,,,,,,,,,,,,,,,,,,,,,,,,,,,,,,,,,,,,,,,,,,,,,,,,,,,,,,,,,,,,,
,,,,7,3.873,,,,,,63,cake,cookie,,90482,001,2022-04-28_22h33.14.627,SPAMnetsValid,2021.1.4,Win32,59.68011459,,,,,,,,,,,,,7,3.873,0,92,92,93,1,,,,,,,,,,,,,,,,,,,,,,,,,,,,,,,,,,,,,,,,,,,,,,,,,,,,,,,,,,,,,,,,,,,,,,
,,,,6,1.9737,,,,,,69,carrot,refrigerator,,90482,001,2022-04-28_22h33.14.627,SPAMnetsValid,2021.1.4,Win32,59.68011459,,,,,,,,,,,,,6,1.9737,0,93,93,75,1,,,,,,,,,,,,,,,,,,,,,,,,,,,,,,,,,,,,,,,,,,,,,,,,,,,,,,,,,,,,,,,,,,,,,,
,,,,1,2.4676,,,,,,7,melon,tree,,90482,001,2022-04-28_22h33.14.627,SPAMnetsValid,2021.1.4,Win32,59.68011459,,,,,,,,,,,,,1,2.4676,0,94,94,77,1,,,,,,,,,,,,,,,,,,,,,,,,,,,,,,,,,,,,,,,,,,,,,,,,,,,,,,,,,,,,,,,,,,,,,,
,,,,1,1.6414,,,,,,33,oven,yogurt,,90482,001,2022-04-28_22h33.14.627,SPAMnetsValid,2021.1.4,Win32,59.68011459,,,,,,,,,,,,,1,1.6414,0,95,95,31,1,,,,,,,,,,,,,,,,,,,,,,,,,,,,,,,,,,,,,,,,,,,,,,,,,,,,,,,,,,,,,,,,,,,,,,
,,,,2,3.6042,,,,,,28,cake,melon,,90482,001,2022-04-28_22h33.14.627,SPAMnetsValid,2021.1.4,Win32,59.68011459,,,,,,,,,,,,,2,3.6042,0,96,96,54,1,,,,,,,,,,,,,,,,,,,,,,,,,,,,,,,,,,,,,,,,,,,,,,,,,,,,,,,,,,,,,,,,,,,,,,
,,,,,,,,,,,,,,,90482,001,2022-04-28_22h33.14.627,SPAMnetsValid,2021.1.4,Win32,59.68011459,,,,,,,,,,,,,,,,,,,,0,0,0,0,1,,,,,,,,,,,,,,,,,,,,,,,,,,,,,,,,,,,,,,,,,,,,,,,,,,,,,,,,,,,,,,,,,
,,,,,,,,,,,,,,,90482,001,2022-04-28_22h33.14.627,SPAMnetsValid,2021.1.4,Win32,59.68011459,,,,,,0,1,1,0,1,1,0,,,,,,,,,,,,,,,,,,,,,,,,,,,,,,,,,,,,,,,,,,,,,,,,,,,,,,,,,,,,,,,,,,,,,,,,,,,,,
,,,,,,,,,,,,,,,90482,001,2022-04-28_22h33.14.627,SPAMnetsValid,2021.1.4,Win32,59.68011459,,,,,,,,,,,,,,,,,,,,,,,,,3,7.7335,0,0,0,0,1,rancor,forbearance,ridicule,malice,bravery,3,,,,,,,,,,,,,,,,,,,,,,,,,,,,,,,,,,,,,,,,,,,,,,,,,,,,
,,,,,,,,,,,,,,,90482,001,2022-04-28_22h33.14.627,SPAMnetsValid,2021.1.4,Win32,59.68011459,,,,,,,,,,,,,,,,,,,,,,,,,4,3.7723,0,1,1,1,1,raucous,empty,quiet,smooth,harsh,4,,,,,,,,,,,,,,,,,,,,,,,,,,,,,,,,,,,,,,,,,,,,,,,,,,,,
,,,,,,,,,,,,,,,90482,001,2022-04-28_22h33.14.627,SPAMnetsValid,2021.1.4,Win32,59.68011459,,,,,,,,,,,,,,,,,,,,,,,,,4,2.5186,0,2,2,2,1,gargoyle,oil,medicine,carved waterspout,ugly building,3,,,,,,,,,,,,,,,,,,,,,,,,,,,,,,,,,,,,,,,,,,,,,,,,,,,,
,,,,,,,,,,,,,,,90482,001,2022-04-28_22h33.14.627,SPAMnetsValid,2021.1.4,Win32,59.68011459,,,,,,,,,,,,,,,,,,,,,,,,,3,6.1926,0,3,3,3,1,recrudesce,purify,renew activity,lack refinement,crush,2,,,,,,,,,,,,,,,,,,,,,,,,,,,,,,,,,,,,,,,,,,,,,,,,,,,,
,,,,,,,,,,,,,,,90482,001,2022-04-28_22h33.14.627,SPAMnetsValid,2021.1.4,Win32,59.68011459,,,,,,,,,,,,,,,,,,,,,,,,,1,9.6071,0,4,4,4,1,specious,"plausible, but not genuine",noteworthy,class or variety,roomy,1,,,,,,,,,,,,,,,,,,,,,,,,,,,,,,,,,,,,,,,,,,,,,,,,,,,,
,,,,,,,,,,,,,,,90482,001,2022-04-28_22h33.14.627,SPAMnetsValid,2021.1.4,Win32,59.68011459,,,,,,,,,,,,,,,,,,,,,,,,,2,5.3404,0,5,5,5,1,bauble,bubble,showy plaything,idle talk,confusion,2,,,,,,,,,,,,,,,,,,,,,,,,,,,,,,,,,,,,,,,,,,,,,,,,,,,,
,,,,,,,,,,,,,,,90482,001,2022-04-28_22h33.14.627,SPAMnetsValid,2021.1.4,Win32,59.68011459,,,,,,,,,,,,,,,,,,,,,,,,,2,5.5844,0,6,6,6,1,prolific,scarce,producing abundantly,reckless,speaking profanely,2,,,,,,,,,,,,,,,,,,,,,,,,,,,,,,,,,,,,,,,,,,,,,,,,,,,,
,,,,,,,,,,,,,,,90482,001,2022-04-28_22h33.14.627,SPAMnetsValid,2021.1.4,Win32,59.68011459,,,,,,,,,,,,,,,,,,,,,,,,,2,3.4538,0,7,7,7,1,opulent,party,wealthy,happy frame of mind,semiprecious stone,2,,,,,,,,,,,,,,,,,,,,,,,,,,,,,,,,,,,,,,,,,,,,,,,,,,,,
,,,,,,,,,,,,,,,90482,001,2022-04-28_22h33.14.627,SPAMnetsValid,2021.1.4,Win32,59.68011459,,,,,,,,,,,,,,,,,,,,,,,,,1,7.3536,0,8,8,8,1,coercion,conspiracy,strategy,restraint,attraction,3,,,,,,,,,,,,,,,,,,,,,,,,,,,,,,,,,,,,,,,,,,,,,,,,,,,,
,,,,,,,,,,,,,,,90482,001,2022-04-28_22h33.14.627,SPAMnetsValid,2021.1.4,Win32,59.68011459,,,,,,,,,,,,,,,,,,,,,,,,,4,2.8463,0,9,9,9,1,hiatus,animal,calamity,dread,gap,4,,,,,,,,,,,,,,,,,,,,,,,,,,,,,,,,,,,,,,,,,,,,,,,,,,,,
,,,,,,,,,,,,,,,90482,001,2022-04-28_22h33.14.627,SPAMnetsValid,2021.1.4,Win32,59.68011459,,,,,,,,,,,,,,,,,,,,,,,,,3,6.2081,0,10,10,10,1,germane,microbe,contagious,relevant,different,3,,,,,,,,,,,,,,,,,,,,,,,,,,,,,,,,,,,,,,,,,,,,,,,,,,,,
,,,,,,,,,,,,,,,90482,001,2022-04-28_22h33.14.627,SPAMnetsValid,2021.1.4,Win32,59.68011459,,,,,,,,,,,,,,,,,,,,,,,,,1,4.6603,0,11,11,11,1,perfunctory,fundamental,formal,superficial,careful,3,,,,,,,,,,,,,,,,,,,,,,,,,,,,,,,,,,,,,,,,,,,,,,,,,,,,
,,,,,,,,,,,,,,,90482,001,2022-04-28_22h33.14.627,SPAMnetsValid,2021.1.4,Win32,59.68011459,,,,,,,,,,,,,,,,,,,,,,,,,3,3.2556,0,12,12,12,1,diverge,reveal,chant,distract the attention of,differ or turn off from,4,,,,,,,,,,,,,,,,,,,,,,,,,,,,,,,,,,,,,,,,,,,,,,,,,,,,
,,,,,,,,,,,,,,,90482,001,2022-04-28_22h33.14.627,SPAMnetsValid,2021.1.4,Win32,59.68011459,,,,,,,,,,,,,,,,,,,,,,,,,4,3.6528,0,13,13,13,1,evoke,take away,anger,connect,bring out,4,,,,,,,,,,,,,,,,,,,,,,,,,,,,,,,,,,,,,,,,,,,,,,,,,,,,
,,,,,,,,,,,,,,,90482,001,2022-04-28_22h33.14.627,SPAMnetsValid,2021.1.4,Win32,59.68011459,,,,,,,,,,,,,,,,,,,,,,,,,3,5.7662,0,14,14,14,1,pertinent,relevant,lying next to,necessary,bold,1,,,,,,,,,,,,,,,,,,,,,,,,,,,,,,,,,,,,,,,,,,,,,,,,,,,,
,,,,,,,,,,,,,,,90482,001,2022-04-28_22h33.14.627,SPAMnetsValid,2021.1.4,Win32,59.68011459,,,,,,,,,,,,,,,,,,,,,,,,,2,2.5343,0,15,15,15,1,holocaust,entirety,destruction,saintly,price,2,,,,,,,,,,,,,,,,,,,,,,,,,,,,,,,,,,,,,,,,,,,,,,,,,,,,
,,,,,,,,,,,,,,,90482,001,2022-04-28_22h33.14.627,SPAMnetsValid,2021.1.4,Win32,59.68011459,,,,,,,,,,,,,,,,,,,,,,,,,1,6.2785,0,16,16,16,1,piquant,mellow,fish,pungent,cloth,3,,,,,,,,,,,,,,,,,,,,,,,,,,,,,,,,,,,,,,,,,,,,,,,,,,,,
,,,,,,,,,,,,,,,90482,001,2022-04-28_22h33.14.627,SPAMnetsValid,2021.1.4,Win32,59.68011459,,,,,,,,,,,,,,,,,,,,,,,,,3,5.0003,0,17,17,17,1,firmament,foundation,heavens,strong,glue,2,,,,,,,,,,,,,,,,,,,,,,,,,,,,,,,,,,,,,,,,,,,,,,,,,,,,
,,,,,,,,,,,,,,,90482,001,2022-04-28_22h33.14.627,SPAMnetsValid,2021.1.4,Win32,59.68011459,,,,,,,,,,,,,,,,,,,,,,,,,,,,,,,,,,,,,,5,7.5938,0,0,0,0,1,marketable,partisan,jocular,marriageable,salable,essential,4,,,,,,,,,,,,,,,,,,,,,,,,,,,,,,,,,,,,,,
,,,,,,,,,,,,,,,90482,001,2022-04-28_22h33.14.627,SPAMnetsValid,2021.1.4,Win32,59.68011459,,,,,,,,,,,,,,,,,,,,,,,,,,,,,,,,,,,,,,5,2.8923,0,1,1,1,1,cottontail,squirrel,poplar,boa,marshy plant,rabbit,5,,,,,,,,,,,,,,,,,,,,,,,,,,,,,,,,,,,,,,
,,,,,,,,,,,,,,,90482,001,2022-04-28_22h33.14.627,SPAMnetsValid,2021.1.4,Win32,59.68011459,,,,,,,,,,,,,,,,,,,,,,,,,,,,,,,,,,,,,,3,2.9678,0,2,2,2,1,boggy,afraid,false,marshy,dense,black,3,,,,,,,,,,,,,,,,,,,,,,,,,,,,,,,,,,,,,,
,,,,,,,,,,,,,,,90482,001,2022-04-28_22h33.14.627,SPAMnetsValid,2021.1.4,Win32,59.68011459,,,,,,,,,,,,,,,,,,,,,,,,,,,,,,,,,,,,,,5,8.3283,0,3,3,3,1,gruesomeness,blackness,falseness,vindictiveness,drunkenness,ghastliness,5,,,,,,,,,,,,,,,,,,,,,,,,,,,,,,,,,,,,,,
,,,,,,,,,,,,,,,90482,001,2022-04-28_22h33.14.627,SPAMnetsValid,2021.1.4,Win32,59.68011459,,,,,,,,,,,,,,,,,,,,,,,,,,,,,,,,,,,,,,3,3.0617,0,4,4,4,1,loathing,diffidence,laziness,abhorrence,cleverness,comfort,3,,,,,,,,,,,,,,,,,,,,,,,,,,,,,,,,,,,,,,
,,,,,,,,,,,,,,,90482,001,2022-04-28_22h33.14.627,SPAMnetsValid,2021.1.4,Win32,59.68011459,,,,,,,,,,,,,,,,,,,,,,,,,,,,,,,,,,,,,,2,4.18,0,5,5,5,1,bantam,fowl,ridicule,cripple,vegetable,ensign,1,,,,,,,,,,,,,,,,,,,,,,,,,,,,,,,,,,,,,,
,,,,,,,,,,,,,,,90482,001,2022-04-28_22h33.14.627,SPAMnetsValid,2021.1.4,Win32,59.68011459,,,,,,,,,,,,,,,,,,,,,,,,,,,,,,,,,,,,,,5,3.3443,0,6,6,6,1,evoke,wake up,surrender,reconnoiter,transcend,call forth,5,,,,,,,,,,,,,,,,,,,,,,,,,,,,,,,,,,,,,,
,,,,,,,,,,,,,,,90482,001,2022-04-28_22h33.14.627,SPAMnetsValid,2021.1.4,Win32,59.68011459,,,,,,,,,,,,,,,,,,,,,,,,,,,,,,,,,,,,,,3,8.7019,0,7,7,7,1,unobtrusive,unintelligent,epileptic,illogical,lineal,modest,5,,,,,,,,,,,,,,,,,,,,,,,,,,,,,,,,,,,,,,
,,,,,,,,,,,,,,,90482,001,2022-04-28_22h33.14.627,SPAMnetsValid,2021.1.4,Win32,59.68011459,,,,,,,,,,,,,,,,,,,,,,,,,,,,,,,,,,,,,,4,2.1375,0,8,8,8,1,terrain,ice cream,final test,tractor,area of ground,weight,4,,,,,,,,,,,,,,,,,,,,,,,,,,,,,,,,,,,,,,
,,,,,,,,,,,,,,,90482,001,2022-04-28_22h33.14.627,SPAMnetsValid,2021.1.4,Win32,59.68011459,,,,,,,,,,,,,,,,,,,,,,,,,,,,,,,,,,,,,,1,5.6661,0,9,9,9,1,capriciousness,stubbornness,courage,whimsicality,amazement,greediness,3,,,,,,,,,,,,,,,,,,,,,,,,,,,,,,,,,,,,,,
,,,,,,,,,,,,,,,90482,001,2022-04-28_22h33.14.627,SPAMnetsValid,2021.1.4,Win32,59.68011459,,,,,,,,,,,,,,,,,,,,,,,,,,,,,,,,,,,,,,4,8.9429,0,10,10,10,1,maelstrom,slander,whirlpool,enmity,armor,majolica,2,,,,,,,,,,,,,,,,,,,,,,,,,,,,,,,,,,,,,,
,,,,,,,,,,,,,,,90482,001,2022-04-28_22h33.14.627,SPAMnetsValid,2021.1.4,Win32,59.68011459,,,,,,,,,,,,,,,,,,,,,,,,,,,,,,,,,,,,,,3,5.9559,0,11,11,11,1,tentative,critical,conclusive,authentic,provisional,apprehensive,4,,,,,,,,,,,,,,,,,,,,,,,,,,,,,,,,,,,,,,
,,,,,,,,,,,,,,,90482,001,2022-04-28_22h33.14.627,SPAMnetsValid,2021.1.4,Win32,59.68011459,,,,,,,,,,,,,,,,,,,,,,,,,,,,,,,,,,,,,,4,7.1858,0,12,12,12,1,placate,rehabilitate,plagiarize,depredate,apprise,conciliate,5,,,,,,,,,,,,,,,,,,,,,,,,,,,,,,,,,,,,,,
,,,,,,,,,,,,,,,90482,001,2022-04-28_22h33.14.627,SPAMnetsValid,2021.1.4,Win32,59.68011459,,,,,,,,,,,,,,,,,,,,,,,,,,,,,,,,,,,,,,4,15.0606,0,13,13,13,1,surcease,enlightenment,cessation,inattention,censor,substitution,2,,,,,,,,,,,,,,,,,,,,,,,,,,,,,,,,,,,,,,
,,,,,,,,,,,,,,,90482,001,2022-04-28_22h33.14.627,SPAMnetsValid,2021.1.4,Win32,59.68011459,,,,,,,,,,,,,,,,,,,,,,,,,,,,,,,,,,,,,,2,8.8214,0,14,14,14,1,apathetic,wandering,impassive,hateful,prophetic,overflowing,2,,,,,,,,,,,,,,,,,,,,,,,,,,,,,,,,,,,,,,
,,,,,,,,,,,,,,,90482,001,2022-04-28_22h33.14.627,SPAMnetsValid,2021.1.4,Win32,59.68011459,,,,,,,,,,,,,,,,,,,,,,,,,,,,,,,,,,,,,,1,15.1408,0,15,15,15,1,paternoster,paternalism,patricide,malediction,benediction,prayer,5,,,,,,,,,,,,,,,,,,,,,,,,,,,,,,,,,,,,,,
,,,,,,,,,,,,,,,90482,001,2022-04-28_22h33.14.627,SPAMnetsValid,2021.1.4,Win32,59.68011459,,,,,,,,,,,,,,,,,,,,,,,,,,,,,,,,,,,,,,4,7.5756,0,16,16,16,1,opalescence,opulence,senescence,bankruptcy,iridescence,assiduity,4,,,,,,,,,,,,,,,,,,,,,,,,,,,,,,,,,,,,,,
,,,,,,,,,,,,,,,90482,001,2022-04-28_22h33.14.627,SPAMnetsValid,2021.1.4,Win32,59.68011459,,,,,,,,,,,,,,,,,,,,,,,,,,,,,,,,,,,,,,2,6.9969,0,17,17,17,1,lush,stupid,luxurious,hazy,putrid,languishing,2,,,,,,,,,,,,,,,,,,,,,,,,,,,,,,,,,,,,,,
,,,,,,,,,,,,,,,90482,001,2022-04-28_22h33.14.627,SPAMnetsValid,2021.1.4,Win32,59.68011459,,,,,,,,,,,,,,,,,,,,,,,,,,,,,,,,,,,,,,2,7.6927,0,18,18,18,1,curtailment,expenditure,abandonment,abridgment,improvement,forgery,3,,,,,,,,,,,,,,,,,,,,,,,,,,,,,,,,,,,,,,
,,,,,,,,,,,,,,,90482,001,2022-04-28_22h33.14.627,SPAMnetsValid,2021.1.4,Win32,59.68011459,,,,,,,,,,,,,,,,,,,,,,,,,,,,,,,,,,,,,,2,2.8033,0,19,19,19,1,perversity,adversity,perviousness,travesty,waywardness,gentility,4,,,,,,,,,,,,,,,,,,,,,,,,,,,,,,,,,,,,,,
,,,,,,,,,,,,,,,90482,001,2022-04-28_22h33.14.627,SPAMnetsValid,2021.1.4,Win32,59.68011459,,,,,,,,,,,,,,,,,,,,,,,,,,,,,,,,,,,,,,3,8.3976,0,20,20,20,1,calumnious,complimentary,analogous,slanderous,tempestuous,magnanimous,3,,,,,,,,,,,,,,,,,,,,,,,,,,,,,,,,,,,,,,
,,,,,,,,,,,,,,,90482,001,2022-04-28_22h33.14.627,SPAMnetsValid,2021.1.4,Win32,59.68011459,,,,,,,,,,,,,,,,,,,,,,,,,,,,,,,,,,,,,,5,7.8207,0,21,21,21,1,illiberality,bigotry,imbecility,illegibility,cautery,immaturity,1,,,,,,,,,,,,,,,,,,,,,,,,,,,,,,,,,,,,,,
,,,,,,,,,,,,,,,90482,001,2022-04-28_22h33.14.627,SPAMnetsValid,2021.1.4,Win32,59.68011459,,,,,,,,,,,,,,,,,,,,,,,,,,,,,,,,,,,,,,2,12.3487,0,22,22,22,1,clabber,rejoice,gossip,curdle,crow,hobble,3,,,,,,,,,,,,,,,,,,,,,,,,,,,,,,,,,,,,,,
,,,,,,,,,,,,,,,90482,001,2022-04-28_22h33.14.627,SPAMnetsValid,2021.1.4,Win32,59.68011459,,,,,,,,,,,,,,,,,,,,,,,,,,,,,,,,,,,,,,1,19.3812,0,23,23,23,1,sedulousness,diligence,credulousness,seduction,perilousness,frankness,1,,,,,,,,,,,,,,,,,,,,,,,,,,,,,,,,,,,,,,
,,,,,,,,,,,,,,,90482,001,2022-04-28_22h33.14.627,SPAMnetsValid,2021.1.4,Win32,59.68011459,,,,,,,,,,,,,,,,,,,,,,,,,,,,,,,,,,,,,,,,,,,,,,,,,,,,carry water,bucket,0,0,0,0,1,,,,,,,,,,,,,,,,,,,,,,,,,,,,,,,
,,,,,,,,,,,,,,,90482,001,2022-04-28_22h33.14.627,SPAMnetsValid,2021.1.4,Win32,59.68011459,,,,,,,,,,,,,,,,,,,,,,,,,,,,,,,,,,,,,,,,,,,,,,,,,,,,carry lava,bucket,1,0,1,0,1,,,,,,,,,,,,,,,,,,,,,,,,,,,,,,,
,,,,,,,,,,,,,,,90482,001,2022-04-28_22h33.14.627,SPAMnetsValid,2021.1.4,Win32,59.68011459,,,,,,,,,,,,,,,,,,,,,,,,,,,,,,,,,,,,,,,,,,,,,,,,,,,,hold fish,bucket,2,0,2,0,1,,,,,,,,,,,,,,,,,,,,,,,,,,,,,,,
,,,,,,,,,,,,,,,90482,001,2022-04-28_22h33.14.627,SPAMnetsValid,2021.1.4,Win32,59.68011459,,,,,,,,,,,,,,,,,,,,,,,,,,,,,,,,,,,,,,,,,,,,,,,,,,,,dump water,bucket,3,0,3,0,1,,,,,,,,,,,,,,,,,,,,,,,,,,,,,,,
,,,,,,,,,,,,,,,90482,001,2022-04-28_22h33.14.627,SPAMnetsValid,2021.1.4,Win32,59.68011459,,,,,,,,,,,,,,,,,,,,,,,,,,,,,,,,,,,,,,,,,,,,,,,,,,,,hold dirt,bucket,4,0,4,0,1,,,,,,,,,,,,,,,,,,,,,,,,,,,,,,,
,,,,,,,,,,,,,,,90482,001,2022-04-28_22h33.14.627,SPAMnetsValid,2021.1.4,Win32,59.68011459,,,,,,,,,,,,,,,,,,,,,,,,,,,,,,,,,,,,,,,,,,,,,,,,,,,,dump dirt,bucket,5,0,5,0,1,,,,,,,,,,,,,,,,,,,,,,,,,,,,,,,
,,,,,,,,,,,,,,,90482,001,2022-04-28_22h33.14.627,SPAMnetsValid,2021.1.4,Win32,59.68011459,,,,,,,,,,,,,,,,,,,,,,,,,,,,,,,,,,,,,,,,,,,,,,,,,,,,carry tools,bucket,6,0,6,0,1,,,,,,,,,,,,,,,,,,,,,,,,,,,,,,,
,,,,,,,,,,,,,,,90482,001,2022-04-28_22h33.14.627,SPAMnetsValid,2021.1.4,Win32,59.68011459,,,,,,,,,,,,,,,,,,,,,,,,,,,,,,,,,,,,,,,,,,,,,,,,,,,,carry wood,bucket,7,0,7,0,1,,,,,,,,,,,,,,,,,,,,,,,,,,,,,,,
,,,,,,,,,,,,,,,90482,001,2022-04-28_22h33.14.627,SPAMnetsValid,2021.1.4,Win32,59.68011459,,,,,,,,,,,,,,,,,,,,,,,,,,,,,,,,,,,,,,,,,,,,,,,,,,,,carry items,bucket,8,0,8,0,1,,,,,,,,,,,,,,,,,,,,,,,,,,,,,,,
,,,,,,,,,,,,,,,90482,001,2022-04-28_22h33.14.627,SPAMnetsValid,2021.1.4,Win32,59.68011459,,,,,,,,,,,,,,,,,,,,,,,,,,,,,,,,,,,,,,,,,,,,,,,,,,,,,,,,,,,0,0,0,0,1,bucket,,,,,,,,,,,,,,,,,,,,,,,,,
,,,,,,,,,,,,,,,90482,001,2022-04-28_22h33.14.627,SPAMnetsValid,2021.1.4,Win32,59.68011459,,,,,,,,,,,,,,,,,,,,,,,,,,,,,,,,,,,,,,,,,,,,,,,,,,,,light,candle,0,0,0,0,1,,,,,,,,,,,,,,,,,,,,,,,,,,,,,,,
,,,,,,,,,,,,,,,90482,001,2022-04-28_22h33.14.627,SPAMnetsValid,2021.1.4,Win32,59.68011459,,,,,,,,,,,,,,,,,,,,,,,,,,,,,,,,,,,,,,,,,,,,,,,,,,,,light to see,candle,1,0,1,0,1,,,,,,,,,,,,,,,,,,,,,,,,,,,,,,,
,,,,,,,,,,,,,,,90482,001,2022-04-28_22h33.14.627,SPAMnetsValid,2021.1.4,Win32,59.68011459,,,,,,,,,,,,,,,,,,,,,,,,,,,,,,,,,,,,,,,,,,,,,,,,,,,,start a fire,candle,2,0,2,0,1,,,,,,,,,,,,,,,,,,,,,,,,,,,,,,,
,,,,,,,,,,,,,,,90482,001,2022-04-28_22h33.14.627,SPAMnetsValid,2021.1.4,Win32,59.68011459,,,,,,,,,,,,,,,,,,,,,,,,,,,,,,,,,,,,,,,,,,,,,,,,,,,,read,candle,3,0,3,0,1,,,,,,,,,,,,,,,,,,,,,,,,,,,,,,,
,,,,,,,,,,,,,,,90482,001,2022-04-28_22h33.14.627,SPAMnetsValid,2021.1.4,Win32,59.68011459,,,,,,,,,,,,,,,,,,,,,,,,,,,,,,,,,,,,,,,,,,,,,,,,,,,,see in the dark,candle,4,0,4,0,1,,,,,,,,,,,,,,,,,,,,,,,,,,,,,,,
,,,,,,,,,,,,,,,90482,001,2022-04-28_22h33.14.627,SPAMnetsValid,2021.1.4,Win32,59.68011459,,,,,,,,,,,,,,,,,,,,,,,,,,,,,,,,,,,,,,,,,,,,,,,,,,,,,,,,,,,0,1,1,1,1,candle,,,,,,,,,,,,,,,,,,,,,,,,,
,,,,,,,,,,,,,,,90482,001,2022-04-28_22h33.14.627,SPAMnetsValid,2021.1.4,Win32,59.68011459,,,,,,,,,,,,,,,,,,,,,,,,,,,,,,,,,,,,,,,,,,,,,,,,,,,,sleep,pillow,0,0,0,0,1,,,,,,,,,,,,,,,,,,,,,,,,,,,,,,,
,,,,,,,,,,,,,,,90482,001,2022-04-28_22h33.14.627,SPAMnetsValid,2021.1.4,Win32,59.68011459,,,,,,,,,,,,,,,,,,,,,,,,,,,,,,,,,,,,,,,,,,,,,,,,,,,,lay head down,pillow,1,0,1,0,1,,,,,,,,,,,,,,,,,,,,,,,,,,,,,,,
,,,,,,,,,,,,,,,90482,001,2022-04-28_22h33.14.627,SPAMnetsValid,2021.1.4,Win32,59.68011459,,,,,,,,,,,,,,,,,,,,,,,,,,,,,,,,,,,,,,,,,,,,,,,,,,,,swing at people,pillow,2,0,2,0,1,,,,,,,,,,,,,,,,,,,,,,,,,,,,,,,
,,,,,,,,,,,,,,,90482,001,2022-04-28_22h33.14.627,SPAMnetsValid,2021.1.4,Win32,59.68011459,,,,,,,,,,,,,,,,,,,,,,,,,,,,,,,,,,,,,,,,,,,,,,,,,,,,back support,pillow,3,0,3,0,1,,,,,,,,,,,,,,,,,,,,,,,,,,,,,,,
,,,,,,,,,,,,,,,90482,001,2022-04-28_22h33.14.627,SPAMnetsValid,2021.1.4,Win32,59.68011459,,,,,,,,,,,,,,,,,,,,,,,,,,,,,,,,,,,,,,,,,,,,,,,,,,,,,,,,,,,0,2,2,2,1,pillow,,,,,,,,,,,,,,,,,,,,,,,,,
,,,,,,,,,,,,,,,90482,001,2022-04-28_22h33.14.627,SPAMnetsValid,2021.1.4,Win32,59.68011459,,,,,,,,,,,,,,,,,,,,,,,,,,,,,,,,,,,,,,,,,,,,,,,,,,,,,,,,,,,,,,,,,elephant,Animals,0,0,0,0,1,,,,,,,,,,,,,,,,,,
,,,,,,,,,,,,,,,90482,001,2022-04-28_22h33.14.627,SPAMnetsValid,2021.1.4,Win32,59.68011459,,,,,,,,,,,,,,,,,,,,,,,,,,,,,,,,,,,,,,,,,,,,,,,,,,,,,,,,,,,,,,,,,tiger,Animals,1,0,1,0,1,,,,,,,,,,,,,,,,,,
,,,,,,,,,,,,,,,90482,001,2022-04-28_22h33.14.627,SPAMnetsValid,2021.1.4,Win32,59.68011459,,,,,,,,,,,,,,,,,,,,,,,,,,,,,,,,,,,,,,,,,,,,,,,,,,,,,,,,,,,,,,,,,dog,Animals,2,0,2,0,1,,,,,,,,,,,,,,,,,,
,,,,,,,,,,,,,,,90482,001,2022-04-28_22h33.14.627,SPAMnetsValid,2021.1.4,Win32,59.68011459,,,,,,,,,,,,,,,,,,,,,,,,,,,,,,,,,,,,,,,,,,,,,,,,,,,,,,,,,,,,,,,,,cat,Animals,3,0,3,0,1,,,,,,,,,,,,,,,,,,
,,,,,,,,,,,,,,,90482,001,2022-04-28_22h33.14.627,SPAMnetsValid,2021.1.4,Win32,59.68011459,,,,,,,,,,,,,,,,,,,,,,,,,,,,,,,,,,,,,,,,,,,,,,,,,,,,,,,,,,,,,,,,,cow,Animals,4,0,4,0,1,,,,,,,,,,,,,,,,,,
,,,,,,,,,,,,,,,90482,001,2022-04-28_22h33.14.627,SPAMnetsValid,2021.1.4,Win32,59.68011459,,,,,,,,,,,,,,,,,,,,,,,,,,,,,,,,,,,,,,,,,,,,,,,,,,,,,,,,,,,,,,,,,chicken,Animals,5,0,5,0,1,,,,,,,,,,,,,,,,,,
,,,,,,,,,,,,,,,90482,001,2022-04-28_22h33.14.627,SPAMnetsValid,2021.1.4,Win32,59.68011459,,,,,,,,,,,,,,,,,,,,,,,,,,,,,,,,,,,,,,,,,,,,,,,,,,,,,,,,,,,,,,,,,bird,Animals,6,0,6,0,1,,,,,,,,,,,,,,,,,,
,,,,,,,,,,,,,,,90482,001,2022-04-28_22h33.14.627,SPAMnetsValid,2021.1.4,Win32,59.68011459,,,,,,,,,,,,,,,,,,,,,,,,,,,,,,,,,,,,,,,,,,,,,,,,,,,,,,,,,,,,,,,,,whale,Animals,7,0,7,0,1,,,,,,,,,,,,,,,,,,
,,,,,,,,,,,,,,,90482,001,2022-04-28_22h33.14.627,SPAMnetsValid,2021.1.4,Win32,59.68011459,,,,,,,,,,,,,,,,,,,,,,,,,,,,,,,,,,,,,,,,,,,,,,,,,,,,,,,,,,,,,,,,,bobcat,Animals,8,0,8,0,1,,,,,,,,,,,,,,,,,,
,,,,,,,,,,,,,,,90482,001,2022-04-28_22h33.14.627,SPAMnetsValid,2021.1.4,Win32,59.68011459,,,,,,,,,,,,,,,,,,,,,,,,,,,,,,,,,,,,,,,,,,,,,,,,,,,,,,,,,,,,,,,,,wolverine,Animals,9,0,9,0,1,,,,,,,,,,,,,,,,,,
,,,,,,,,,,,,,,,90482,001,2022-04-28_22h33.14.627,SPAMnetsValid,2021.1.4,Win32,59.68011459,,,,,,,,,,,,,,,,,,,,,,,,,,,,,,,,,,,,,,,,,,,,,,,,,,,,,,,,,,,,,,,,,deer,Animals,10,0,10,0,1,,,,,,,,,,,,,,,,,,
,,,,,,,,,,,,,,,90482,001,2022-04-28_22h33.14.627,SPAMnetsValid,2021.1.4,Win32,59.68011459,,,,,,,,,,,,,,,,,,,,,,,,,,,,,,,,,,,,,,,,,,,,,,,,,,,,,,,,,,,,,,,,,cougar,Animals,11,0,11,0,1,,,,,,,,,,,,,,,,,,
,,,,,,,,,,,,,,,90482,001,2022-04-28_22h33.14.627,SPAMnetsValid,2021.1.4,Win32,59.68011459,,,,,,,,,,,,,,,,,,,,,,,,,,,,,,,,,,,,,,,,,,,,,,,,,,,,,,,,,,,,,,,,,jaguar,Animals,12,0,12,0,1,,,,,,,,,,,,,,,,,,
,,,,,,,,,,,,,,,90482,001,2022-04-28_22h33.14.627,SPAMnetsValid,2021.1.4,Win32,59.68011459,,,,,,,,,,,,,,,,,,,,,,,,,,,,,,,,,,,,,,,,,,,,,,,,,,,,,,,,,,,,,,,,,panther,Animals,13,0,13,0,1,,,,,,,,,,,,,,,,,,
,,,,,,,,,,,,,,,90482,001,2022-04-28_22h33.14.627,SPAMnetsValid,2021.1.4,Win32,59.68011459,,,,,,,,,,,,,,,,,,,,,,,,,,,,,,,,,,,,,,,,,,,,,,,,,,,,,,,,,,,,,,,,,elk,Animals,14,0,14,0,1,,,,,,,,,,,,,,,,,,
,,,,,,,,,,,,,,,90482,001,2022-04-28_22h33.14.627,SPAMnetsValid,2021.1.4,Win32,59.68011459,,,,,,,,,,,,,,,,,,,,,,,,,,,,,,,,,,,,,,,,,,,,,,,,,,,,,,,,,,,,,,,,,moose,Animals,15,0,15,0,1,,,,,,,,,,,,,,,,,,
,,,,,,,,,,,,,,,90482,001,2022-04-28_22h33.14.627,SPAMnetsValid,2021.1.4,Win32,59.68011459,,,,,,,,,,,,,,,,,,,,,,,,,,,,,,,,,,,,,,,,,,,,,,,,,,,,,,,,,,,,,,,,,monkey,Animals,16,0,16,0,1,,,,,,,,,,,,,,,,,,
,,,,,,,,,,,,,,,90482,001,2022-04-28_22h33.14.627,SPAMnetsValid,2021.1.4,Win32,59.68011459,,,,,,,,,,,,,,,,,,,,,,,,,,,,,,,,,,,,,,,,,,,,,,,,,,,,,,,,,,,,,,,,,gorilla,Animals,17,0,17,0,1,,,,,,,,,,,,,,,,,,
,,,,,,,,,,,,,,,90482,001,2022-04-28_22h33.14.627,SPAMnetsValid,2021.1.4,Win32,59.68011459,,,,,,,,,,,,,,,,,,,,,,,,,,,,,,,,,,,,,,,,,,,,,,,,,,,,,,,,,,,,,,,,,,,,,,,,0,0,0,0,1,Animals,,,,,,,,,,,,
,,,,,,,,,,,,,,,90482,001,2022-04-28_22h33.14.627,SPAMnetsValid,2021.1.4,Win32,59.68011459,,,,,,,,,,,,,,,,,,,,,,,,,,,,,,,,,,,,,,,,,,,,,,,,,,,,,,,,,,,,,,,,,,,,,,,,,,,,,,4,5.3856,0,0,0,0,1,"I enjoy concentrating on a fantasy or daydream and exploring all its possibilities, letting it grow and develop.",0,1,,
,,,,,,,,,,,,,,,90482,001,2022-04-28_22h33.14.627,SPAMnetsValid,2021.1.4,Win32,59.68011459,,,,,,,,,,,,,,,,,,,,,,,,,,,,,,,,,,,,,,,,,,,,,,,,,,,,,,,,,,,,,,,,,,,,,,,,,,,,,,4,2.4898,0,1,1,1,1,I think it's interesting to learn and develop new hobbies.,0,2,,
,,,,,,,,,,,,,,,90482,001,2022-04-28_22h33.14.627,SPAMnetsValid,2021.1.4,Win32,59.68011459,,,,,,,,,,,,,,,,,,,,,,,,,,,,,,,,,,,,,,,,,,,,,,,,,,,,,,,,,,,,,,,,,,,,,,,,,,,,,,4,2.2436,0,2,2,2,1,I am intrigued by the patterns I find in art and nature.,0,3,,
,,,,,,,,,,,,,,,90482,001,2022-04-28_22h33.14.627,SPAMnetsValid,2021.1.4,Win32,59.68011459,,,,,,,,,,,,,,,,,,,,,,,,,,,,,,,,,,,,,,,,,,,,,,,,,,,,,,,,,,,,,,,,,,,,,,,,,,,,,,2,4.321,0,3,3,3,1,I believe letting students hear controversial speakers can only confuse and mislead them.,1,4,,
,,,,,,,,,,,,,,,90482,001,2022-04-28_22h33.14.627,SPAMnetsValid,2021.1.4,Win32,59.68011459,,,,,,,,,,,,,,,,,,,,,,,,,,,,,,,,,,,,,,,,,,,,,,,,,,,,,,,,,,,,,,,,,,,,,,,,,,,,,,4,2.4989,0,4,4,4,1,Poetry has little or no effect on me.,1,5,,
,,,,,,,,,,,,,,,90482,001,2022-04-28_22h33.14.627,SPAMnetsValid,2021.1.4,Win32,59.68011459,,,,,,,,,,,,,,,,,,,,,,,,,,,,,,,,,,,,,,,,,,,,,,,,,,,,,,,,,,,,,,,,,,,,,,,,,,,,,,2,5.0592,0,5,5,5,1,I would have difficulty just letting my mind wander without control or guidance.,1,6,,
,,,,,,,,,,,,,,,90482,001,2022-04-28_22h33.14.627,SPAMnetsValid,2021.1.4,Win32,59.68011459,,,,,,,,,,,,,,,,,,,,,,,,,,,,,,,,,,,,,,,,,,,,,,,,,,,,,,,,,,,,,,,,,,,,,,,,,,,,,,2,4.0592,0,6,6,6,1,I seldom notice the moods or feelings that different environments produce.,1,7,,
,,,,,,,,,,,,,,,90482,001,2022-04-28_22h33.14.627,SPAMnetsValid,2021.1.4,Win32,59.68011459,,,,,,,,,,,,,,,,,,,,,,,,,,,,,,,,,,,,,,,,,,,,,,,,,,,,,,,,,,,,,,,,,,,,,,,,,,,,,,4,2.6298,0,7,7,7,1,I experience a wide range of emotions or feelings.,0,8,,
,,,,,,,,,,,,,,,90482,001,2022-04-28_22h33.14.627,SPAMnetsValid,2021.1.4,Win32,59.68011459,,,,,,,,,,,,,,,,,,,,,,,,,,,,,,,,,,,,,,,,,,,,,,,,,,,,,,,,,,,,,,,,,,,,,,,,,,,,,,3,3.8468,0,8,8,8,1,"Sometimes when I am reading poetry or looking at a work of art, I feel a chill or wave of excitement.",0,9,,
,,,,,,,,,,,,,,,90482,001,2022-04-28_22h33.14.627,SPAMnetsValid,2021.1.4,Win32,59.68011459,,,,,,,,,,,,,,,,,,,,,,,,,,,,,,,,,,,,,,,,,,,,,,,,,,,,,,,,,,,,,,,,,,,,,,,,,,,,,,2,3.1054,0,9,9,9,1,I have little interest in speculating on the nature of the universe or the human condition.,1,10,,
,,,,,,,,,,,,,,,90482,001,2022-04-28_22h33.14.627,SPAMnetsValid,2021.1.4,Win32,59.68011459,,,,,,,,,,,,,,,,,,,,,,,,,,,,,,,,,,,,,,,,,,,,,,,,,,,,,,,,,,,,,,,,,,,,,,,,,,,,,,4,2.1359,0,10,10,10,1,I have a lot of intellectual curiosity.,0,11,,
,,,,,,,,,,,,,,,90482,001,2022-04-28_22h33.14.627,SPAMnetsValid,2021.1.4,Win32,59.68011459,,,,,,,,,,,,,,,,,,,,,,,,,,,,,,,,,,,,,,,,,,,,,,,,,,,,,,,,,,,,,,,,,,,,,,,,,,,,,,4,1.8618,0,11,11,11,1,I often enjoy playing with theories or abstract ideas.,0,12,,
,,,,,,,,,,,,,,,90482,001,2022-04-28_22h33.14.627,SPAMnetsValid,2021.1.4,Win32,59.68011459,,,,,,,,,,,,,,,,,,,,,,,,,,,,,,,,,,,,,,,,,,,,,,,,,,,,,,,,,,,,,,,,,,,,,,,,,,,,,,,,,,,,,,,,return,6.0532
