key_resp_3.keys,key_resp_3.rt,slider_2.response,slider_2.rt,rjt_rating,rjt_RT,trials_24.thisRepN,trials_24.thisTrialN,trials_24.thisN,trials_24.thisIndex,trials_24.ran,rjt_order,word1,word2,attention,participant,session,date,expName,psychopyVersion,OS,frameRate,trials_4.thisRepN,trials_4.thisTrialN,trials_4.thisN,trials_4.thisIndex,trials_4.ran,trials_5.thisRepN,trials_5.thisTrialN,trials_5.thisN,trials_5.thisIndex,trials_5.ran,repOne,repTwo,slider.response,slider.rt,trials_22.thisRepN,trials_22.thisTrialN,trials_22.thisN,trials_22.thisIndex,trials_22.ran,trials_99.thisRepN,trials_99.thisTrialN,trials_99.thisN,trials_99.thisIndex,trials_99.ran,slider_extend_2.response,slider_extend_2.rt,trials_6.thisRepN,trials_6.thisTrialN,trials_6.thisN,trials_6.thisIndex,trials_6.ran,vCue2,R1,R2,R3,R4,correct,sliderVocab.response,sliderVocab.rt,trials_7.thisRepN,trials_7.thisTrialN,trials_7.thisN,trials_7.thisIndex,trials_7.ran,VocabCue,VR1,VR2,VR3,VR4,VR5,VocabCorrect,AUT_resp,AUT_label,trials.thisRepN,trials.thisTrialN,trials.thisN,trials.thisIndex,trials.ran,trials_2.thisRepN,trials_2.thisTrialN,trials_2.thisN,trials_2.thisIndex,trials_2.ran,aut_prompt,VF_response,VF_tag,trials_16.thisRepN,trials_16.thisTrialN,trials_16.thisN,trials_16.thisIndex,trials_16.ran,trials_17.thisRepN,trials_17.thisTrialN,trials_17.thisN,trials_17.thisIndex,trials_17.ran,VFcond,open_slider.response,open_slider.rt,trials_3.thisRepN,trials_3.thisTrialN,trials_3.thisN,trials_3.thisIndex,trials_3.ran,OpenQ,Rev,OPEN_ORDER,key_resp_2.keys,key_resp_2.rt
return,10.5054,7,15.0394,7,15.0394,0,0,0,70,1,141,melon,tomato,,90499,001,2022-04-29_14h11.48.618,SPAMnetsValid,2021.1.4,Win32,59.97001499,,,,,,,,,,,,,,,,,,,,,,,,,,,,,,,,,,,,,,,,,,,,,,,,,,,,,,,,,,,,,,,,,,,,,,,,,,,,,,,,,,,,,,,,,
,,5,4.8145,5,4.8145,0,1,1,10,1,118,chocolate,oven,,90499,001,2022-04-29_14h11.48.618,SPAMnetsValid,2021.1.4,Win32,59.97001499,,,,,,,,,,,,,,,,,,,,,,,,,,,,,,,,,,,,,,,,,,,,,,,,,,,,,,,,,,,,,,,,,,,,,,,,,,,,,,,,,,,,,,,,,
,,2,3.8232,2,3.8232,0,2,2,20,1,149,broom,tomato,,90499,001,2022-04-29_14h11.48.618,SPAMnetsValid,2021.1.4,Win32,59.97001499,,,,,,,,,,,,,,,,,,,,,,,,,,,,,,,,,,,,,,,,,,,,,,,,,,,,,,,,,,,,,,,,,,,,,,,,,,,,,,,,,,,,,,,,,
,,9,2.0187,9,2.0187,0,3,3,25,1,194,cactus,cactus,CHECK,90499,001,2022-04-29_14h11.48.618,SPAMnetsValid,2021.1.4,Win32,59.97001499,,,,,,,,,,,,,,,,,,,,,,,,,,,,,,,,,,,,,,,,,,,,,,,,,,,,,,,,,,,,,,,,,,,,,,,,,,,,,,,,,,,,,,,,,
,,3,2.6603,3,2.6603,0,4,4,54,1,101,cactus,kitchen,,90499,001,2022-04-29_14h11.48.618,SPAMnetsValid,2021.1.4,Win32,59.97001499,,,,,,,,,,,,,,,,,,,,,,,,,,,,,,,,,,,,,,,,,,,,,,,,,,,,,,,,,,,,,,,,,,,,,,,,,,,,,,,,,,,,,,,,,
,,8,5.1775,8,5.1775,0,5,5,69,1,124,oven,refrigerator,,90499,001,2022-04-29_14h11.48.618,SPAMnetsValid,2021.1.4,Win32,59.97001499,,,,,,,,,,,,,,,,,,,,,,,,,,,,,,,,,,,,,,,,,,,,,,,,,,,,,,,,,,,,,,,,,,,,,,,,,,,,,,,,,,,,,,,,,
,,7,2.952,7,2.952,0,6,6,65,1,160,cookie,kitchen,,90499,001,2022-04-29_14h11.48.618,SPAMnetsValid,2021.1.4,Win32,59.97001499,,,,,,,,,,,,,,,,,,,,,,,,,,,,,,,,,,,,,,,,,,,,,,,,,,,,,,,,,,,,,,,,,,,,,,,,,,,,,,,,,,,,,,,,,
,,4,3.7534,4,3.7534,0,7,7,95,1,121,broom,microwave,,90499,001,2022-04-29_14h11.48.618,SPAMnetsValid,2021.1.4,Win32,59.97001499,,,,,,,,,,,,,,,,,,,,,,,,,,,,,,,,,,,,,,,,,,,,,,,,,,,,,,,,,,,,,,,,,,,,,,,,,,,,,,,,,,,,,,,,,
,,8,4.0561,8,4.0561,0,8,8,39,1,112,cake,carrot,,90499,001,2022-04-29_14h11.48.618,SPAMnetsValid,2021.1.4,Win32,59.97001499,,,,,,,,,,,,,,,,,,,,,,,,,,,,,,,,,,,,,,,,,,,,,,,,,,,,,,,,,,,,,,,,,,,,,,,,,,,,,,,,,,,,,,,,,
,,6,5.5028,6,5.5028,0,9,9,90,1,190,microwave,strawberry,,90499,001,2022-04-29_14h11.48.618,SPAMnetsValid,2021.1.4,Win32,59.97001499,,,,,,,,,,,,,,,,,,,,,,,,,,,,,,,,,,,,,,,,,,,,,,,,,,,,,,,,,,,,,,,,,,,,,,,,,,,,,,,,,,,,,,,,,
,,2,2.6948,2,2.6948,0,10,10,78,1,132,broom,tree,,90499,001,2022-04-29_14h11.48.618,SPAMnetsValid,2021.1.4,Win32,59.97001499,,,,,,,,,,,,,,,,,,,,,,,,,,,,,,,,,,,,,,,,,,,,,,,,,,,,,,,,,,,,,,,,,,,,,,,,,,,,,,,,,,,,,,,,,
,,8,3.9533,8,3.9533,0,11,11,77,1,172,kitchen,melon,,90499,001,2022-04-29_14h11.48.618,SPAMnetsValid,2021.1.4,Win32,59.97001499,,,,,,,,,,,,,,,,,,,,,,,,,,,,,,,,,,,,,,,,,,,,,,,,,,,,,,,,,,,,,,,,,,,,,,,,,,,,,,,,,,,,,,,,,
,,7,1.9619,7,1.9619,0,12,12,38,1,155,carrot,cookie,,90499,001,2022-04-29_14h11.48.618,SPAMnetsValid,2021.1.4,Win32,59.97001499,,,,,,,,,,,,,,,,,,,,,,,,,,,,,,,,,,,,,,,,,,,,,,,,,,,,,,,,,,,,,,,,,,,,,,,,,,,,,,,,,,,,,,,,,
,,7,1.9289,7,1.9289,0,13,13,5,1,108,carrot,chocolate,,90499,001,2022-04-29_14h11.48.618,SPAMnetsValid,2021.1.4,Win32,59.97001499,,,,,,,,,,,,,,,,,,,,,,,,,,,,,,,,,,,,,,,,,,,,,,,,,,,,,,,,,,,,,,,,,,,,,,,,,,,,,,,,,,,,,,,,,
,,4,8.8815,4,8.8815,0,14,14,81,1,104,garden,microwave,,90499,001,2022-04-29_14h11.48.618,SPAMnetsValid,2021.1.4,Win32,59.97001499,,,,,,,,,,,,,,,,,,,,,,,,,,,,,,,,,,,,,,,,,,,,,,,,,,,,,,,,,,,,,,,,,,,,,,,,,,,,,,,,,,,,,,,,,
,,2,4.6982,2,4.6982,0,15,15,32,1,182,flower,refrigerator,,90499,001,2022-04-29_14h11.48.618,SPAMnetsValid,2021.1.4,Win32,59.97001499,,,,,,,,,,,,,,,,,,,,,,,,,,,,,,,,,,,,,,,,,,,,,,,,,,,,,,,,,,,,,,,,,,,,,,,,,,,,,,,,,,,,,,,,,
,,7,4.2519,7,4.2519,0,16,16,17,1,99,garden,melon,,90499,001,2022-04-29_14h11.48.618,SPAMnetsValid,2021.1.4,Win32,59.97001499,,,,,,,,,,,,,,,,,,,,,,,,,,,,,,,,,,,,,,,,,,,,,,,,,,,,,,,,,,,,,,,,,,,,,,,,,,,,,,,,,,,,,,,,,
,,7,2.9697,7,2.9697,0,17,17,24,1,169,onion,yogurt,,90499,001,2022-04-29_14h11.48.618,SPAMnetsValid,2021.1.4,Win32,59.97001499,,,,,,,,,,,,,,,,,,,,,,,,,,,,,,,,,,,,,,,,,,,,,,,,,,,,,,,,,,,,,,,,,,,,,,,,,,,,,,,,,,,,,,,,,
,,7,4.4849,7,4.4849,0,18,18,51,1,168,cactus,flower,,90499,001,2022-04-29_14h11.48.618,SPAMnetsValid,2021.1.4,Win32,59.97001499,,,,,,,,,,,,,,,,,,,,,,,,,,,,,,,,,,,,,,,,,,,,,,,,,,,,,,,,,,,,,,,,,,,,,,,,,,,,,,,,,,,,,,,,,
,,6,1.772,6,1.772,0,19,19,48,1,186,kitchen,yogurt,,90499,001,2022-04-29_14h11.48.618,SPAMnetsValid,2021.1.4,Win32,59.97001499,,,,,,,,,,,,,,,,,,,,,,,,,,,,,,,,,,,,,,,,,,,,,,,,,,,,,,,,,,,,,,,,,,,,,,,,,,,,,,,,,,,,,,,,,
,,6,5.4648,6,5.4648,0,20,20,42,1,184,oven,pretzel,,90499,001,2022-04-29_14h11.48.618,SPAMnetsValid,2021.1.4,Win32,59.97001499,,,,,,,,,,,,,,,,,,,,,,,,,,,,,,,,,,,,,,,,,,,,,,,,,,,,,,,,,,,,,,,,,,,,,,,,,,,,,,,,,,,,,,,,,
,,8,3.0789,8,3.0789,0,21,21,83,1,100,garden,tomato,,90499,001,2022-04-29_14h11.48.618,SPAMnetsValid,2021.1.4,Win32,59.97001499,,,,,,,,,,,,,,,,,,,,,,,,,,,,,,,,,,,,,,,,,,,,,,,,,,,,,,,,,,,,,,,,,,,,,,,,,,,,,,,,,,,,,,,,,
,,4,5.7025,4,5.7025,0,22,22,31,1,156,melon,rose,,90499,001,2022-04-29_14h11.48.618,SPAMnetsValid,2021.1.4,Win32,59.97001499,,,,,,,,,,,,,,,,,,,,,,,,,,,,,,,,,,,,,,,,,,,,,,,,,,,,,,,,,,,,,,,,,,,,,,,,,,,,,,,,,,,,,,,,,
,,4,1.8464,4,1.8464,0,23,23,26,1,107,rose,tomato,,90499,001,2022-04-29_14h11.48.618,SPAMnetsValid,2021.1.4,Win32,59.97001499,,,,,,,,,,,,,,,,,,,,,,,,,,,,,,,,,,,,,,,,,,,,,,,,,,,,,,,,,,,,,,,,,,,,,,,,,,,,,,,,,,,,,,,,,
,,7,3.032,7,3.032,0,24,24,85,1,115,refrigerator,tomato,,90499,001,2022-04-29_14h11.48.618,SPAMnetsValid,2021.1.4,Win32,59.97001499,,,,,,,,,,,,,,,,,,,,,,,,,,,,,,,,,,,,,,,,,,,,,,,,,,,,,,,,,,,,,,,,,,,,,,,,,,,,,,,,,,,,,,,,,
,,7,3.2784,7,3.2784,0,25,25,1,1,173,kitchen,tomato,,90499,001,2022-04-29_14h11.48.618,SPAMnetsValid,2021.1.4,Win32,59.97001499,,,,,,,,,,,,,,,,,,,,,,,,,,,,,,,,,,,,,,,,,,,,,,,,,,,,,,,,,,,,,,,,,,,,,,,,,,,,,,,,,,,,,,,,,
,,2,4.7873,2,4.7873,0,26,26,59,1,164,cookie,garden,,90499,001,2022-04-29_14h11.48.618,SPAMnetsValid,2021.1.4,Win32,59.97001499,,,,,,,,,,,,,,,,,,,,,,,,,,,,,,,,,,,,,,,,,,,,,,,,,,,,,,,,,,,,,,,,,,,,,,,,,,,,,,,,,,,,,,,,,
,,6,2.5064,6,2.5064,0,27,27,41,1,175,melon,onion,,90499,001,2022-04-29_14h11.48.618,SPAMnetsValid,2021.1.4,Win32,59.97001499,,,,,,,,,,,,,,,,,,,,,,,,,,,,,,,,,,,,,,,,,,,,,,,,,,,,,,,,,,,,,,,,,,,,,,,,,,,,,,,,,,,,,,,,,
,,7,1.7576,7,1.7576,0,28,28,56,1,113,refrigerator,strawberry,,90499,001,2022-04-29_14h11.48.618,SPAMnetsValid,2021.1.4,Win32,59.97001499,,,,,,,,,,,,,,,,,,,,,,,,,,,,,,,,,,,,,,,,,,,,,,,,,,,,,,,,,,,,,,,,,,,,,,,,,,,,,,,,,,,,,,,,,
,,6,2.8485,6,2.8485,0,29,29,88,1,171,cake,tomato,,90499,001,2022-04-29_14h11.48.618,SPAMnetsValid,2021.1.4,Win32,59.97001499,,,,,,,,,,,,,,,,,,,,,,,,,,,,,,,,,,,,,,,,,,,,,,,,,,,,,,,,,,,,,,,,,,,,,,,,,,,,,,,,,,,,,,,,,
,,2,7.5422,2,7.5422,0,30,30,15,1,145,cactus,yogurt,,90499,001,2022-04-29_14h11.48.618,SPAMnetsValid,2021.1.4,Win32,59.97001499,,,,,,,,,,,,,,,,,,,,,,,,,,,,,,,,,,,,,,,,,,,,,,,,,,,,,,,,,,,,,,,,,,,,,,,,,,,,,,,,,,,,,,,,,
,,1,1.7891,1,1.7891,0,31,31,80,1,146,pretzel,tree,,90499,001,2022-04-29_14h11.48.618,SPAMnetsValid,2021.1.4,Win32,59.97001499,,,,,,,,,,,,,,,,,,,,,,,,,,,,,,,,,,,,,,,,,,,,,,,,,,,,,,,,,,,,,,,,,,,,,,,,,,,,,,,,,,,,,,,,,
,,3,3.1517,3,3.1517,0,32,32,75,1,178,cactus,carrot,,90499,001,2022-04-29_14h11.48.618,SPAMnetsValid,2021.1.4,Win32,59.97001499,,,,,,,,,,,,,,,,,,,,,,,,,,,,,,,,,,,,,,,,,,,,,,,,,,,,,,,,,,,,,,,,,,,,,,,,,,,,,,,,,,,,,,,,,
,,8,4.4093,8,4.4093,0,33,33,47,1,167,carrot,garden,,90499,001,2022-04-29_14h11.48.618,SPAMnetsValid,2021.1.4,Win32,59.97001499,,,,,,,,,,,,,,,,,,,,,,,,,,,,,,,,,,,,,,,,,,,,,,,,,,,,,,,,,,,,,,,,,,,,,,,,,,,,,,,,,,,,,,,,,
,,6,1.7299,6,1.7299,0,34,34,82,1,98,pretzel,strawberry,,90499,001,2022-04-29_14h11.48.618,SPAMnetsValid,2021.1.4,Win32,59.97001499,,,,,,,,,,,,,,,,,,,,,,,,,,,,,,,,,,,,,,,,,,,,,,,,,,,,,,,,,,,,,,,,,,,,,,,,,,,,,,,,,,,,,,,,,
,,5,2.836,5,2.836,0,35,35,74,1,128,melon,microwave,,90499,001,2022-04-29_14h11.48.618,SPAMnetsValid,2021.1.4,Win32,59.97001499,,,,,,,,,,,,,,,,,,,,,,,,,,,,,,,,,,,,,,,,,,,,,,,,,,,,,,,,,,,,,,,,,,,,,,,,,,,,,,,,,,,,,,,,,
,,2,5.1611,2,5.1611,0,36,36,40,1,165,onion,rose,,90499,001,2022-04-29_14h11.48.618,SPAMnetsValid,2021.1.4,Win32,59.97001499,,,,,,,,,,,,,,,,,,,,,,,,,,,,,,,,,,,,,,,,,,,,,,,,,,,,,,,,,,,,,,,,,,,,,,,,,,,,,,,,,,,,,,,,,
,,6,7.8217,6,7.8217,0,37,37,2,1,174,cake,pretzel,,90499,001,2022-04-29_14h11.48.618,SPAMnetsValid,2021.1.4,Win32,59.97001499,,,,,,,,,,,,,,,,,,,,,,,,,,,,,,,,,,,,,,,,,,,,,,,,,,,,,,,,,,,,,,,,,,,,,,,,,,,,,,,,,,,,,,,,,
,,4,3.899,4,3.899,0,38,38,93,1,134,carrot,flower,,90499,001,2022-04-29_14h11.48.618,SPAMnetsValid,2021.1.4,Win32,59.97001499,,,,,,,,,,,,,,,,,,,,,,,,,,,,,,,,,,,,,,,,,,,,,,,,,,,,,,,,,,,,,,,,,,,,,,,,,,,,,,,,,,,,,,,,,
,,2,1.8755,2,1.8755,0,39,39,71,1,187,cactus,microwave,,90499,001,2022-04-29_14h11.48.618,SPAMnetsValid,2021.1.4,Win32,59.97001499,,,,,,,,,,,,,,,,,,,,,,,,,,,,,,,,,,,,,,,,,,,,,,,,,,,,,,,,,,,,,,,,,,,,,,,,,,,,,,,,,,,,,,,,,
,,2,2.8374,2,2.8374,0,40,40,64,1,157,refrigerator,rose,,90499,001,2022-04-29_14h11.48.618,SPAMnetsValid,2021.1.4,Win32,59.97001499,,,,,,,,,,,,,,,,,,,,,,,,,,,,,,,,,,,,,,,,,,,,,,,,,,,,,,,,,,,,,,,,,,,,,,,,,,,,,,,,,,,,,,,,,
,,6,9.3535,6,9.3535,0,41,41,37,1,139,carrot,strawberry,,90499,001,2022-04-29_14h11.48.618,SPAMnetsValid,2021.1.4,Win32,59.97001499,,,,,,,,,,,,,,,,,,,,,,,,,,,,,,,,,,,,,,,,,,,,,,,,,,,,,,,,,,,,,,,,,,,,,,,,,,,,,,,,,,,,,,,,,
,,6,12.0258,6,12.0258,0,42,42,76,1,102,chocolate,refrigerator,,90499,001,2022-04-29_14h11.48.618,SPAMnetsValid,2021.1.4,Win32,59.97001499,,,,,,,,,,,,,,,,,,,,,,,,,,,,,,,,,,,,,,,,,,,,,,,,,,,,,,,,,,,,,,,,,,,,,,,,,,,,,,,,,,,,,,,,,
,,6,32.1685,6,32.1685,0,43,43,84,1,130,microwave,yogurt,,90499,001,2022-04-29_14h11.48.618,SPAMnetsValid,2021.1.4,Win32,59.97001499,,,,,,,,,,,,,,,,,,,,,,,,,,,,,,,,,,,,,,,,,,,,,,,,,,,,,,,,,,,,,,,,,,,,,,,,,,,,,,,,,,,,,,,,,
,,7,27.2423,7,27.2423,0,44,44,89,1,140,cookie,refrigerator,,90499,001,2022-04-29_14h11.48.618,SPAMnetsValid,2021.1.4,Win32,59.97001499,,,,,,,,,,,,,,,,,,,,,,,,,,,,,,,,,,,,,,,,,,,,,,,,,,,,,,,,,,,,,,,,,,,,,,,,,,,,,,,,,,,,,,,,,
,,3,4.1683,3,4.1683,0,45,45,62,1,189,onion,tree,,90499,001,2022-04-29_14h11.48.618,SPAMnetsValid,2021.1.4,Win32,59.97001499,,,,,,,,,,,,,,,,,,,,,,,,,,,,,,,,,,,,,,,,,,,,,,,,,,,,,,,,,,,,,,,,,,,,,,,,,,,,,,,,,,,,,,,,,
,,6,2.1182,6,2.1182,0,46,46,73,1,135,carrot,oven,,90499,001,2022-04-29_14h11.48.618,SPAMnetsValid,2021.1.4,Win32,59.97001499,,,,,,,,,,,,,,,,,,,,,,,,,,,,,,,,,,,,,,,,,,,,,,,,,,,,,,,,,,,,,,,,,,,,,,,,,,,,,,,,,,,,,,,,,
,,8,2.9659,8,2.9659,0,47,47,66,1,150,microwave,refrigerator,,90499,001,2022-04-29_14h11.48.618,SPAMnetsValid,2021.1.4,Win32,59.97001499,,,,,,,,,,,,,,,,,,,,,,,,,,,,,,,,,,,,,,,,,,,,,,,,,,,,,,,,,,,,,,,,,,,,,,,,,,,,,,,,,,,,,,,,,
,,7,1.758,7,1.758,0,48,48,8,1,97,chocolate,kitchen,,90499,001,2022-04-29_14h11.48.618,SPAMnetsValid,2021.1.4,Win32,59.97001499,,,,,,,,,,,,,,,,,,,,,,,,,,,,,,,,,,,,,,,,,,,,,,,,,,,,,,,,,,,,,,,,,,,,,,,,,,,,,,,,,,,,,,,,,
,,7,1.2321,7,1.2321,0,49,49,72,1,181,carrot,kitchen,,90499,001,2022-04-29_14h11.48.618,SPAMnetsValid,2021.1.4,Win32,59.97001499,,,,,,,,,,,,,,,,,,,,,,,,,,,,,,,,,,,,,,,,,,,,,,,,,,,,,,,,,,,,,,,,,,,,,,,,,,,,,,,,,,,,,,,,,
,,6,1.6946,6,1.6946,0,50,50,53,1,177,chocolate,strawberry,,90499,001,2022-04-29_14h11.48.618,SPAMnetsValid,2021.1.4,Win32,59.97001499,,,,,,,,,,,,,,,,,,,,,,,,,,,,,,,,,,,,,,,,,,,,,,,,,,,,,,,,,,,,,,,,,,,,,,,,,,,,,,,,,,,,,,,,,
,,6,2.9939,6,2.9939,0,51,51,6,1,151,microwave,onion,,90499,001,2022-04-29_14h11.48.618,SPAMnetsValid,2021.1.4,Win32,59.97001499,,,,,,,,,,,,,,,,,,,,,,,,,,,,,,,,,,,,,,,,,,,,,,,,,,,,,,,,,,,,,,,,,,,,,,,,,,,,,,,,,,,,,,,,,
,,7,3.6289,7,3.6289,0,52,52,34,1,153,carrot,pretzel,,90499,001,2022-04-29_14h11.48.618,SPAMnetsValid,2021.1.4,Win32,59.97001499,,,,,,,,,,,,,,,,,,,,,,,,,,,,,,,,,,,,,,,,,,,,,,,,,,,,,,,,,,,,,,,,,,,,,,,,,,,,,,,,,,,,,,,,,
,,6,2.0412,6,2.0412,0,53,53,67,1,96,oven,strawberry,,90499,001,2022-04-29_14h11.48.618,SPAMnetsValid,2021.1.4,Win32,59.97001499,,,,,,,,,,,,,,,,,,,,,,,,,,,,,,,,,,,,,,,,,,,,,,,,,,,,,,,,,,,,,,,,,,,,,,,,,,,,,,,,,,,,,,,,,
,,2,2.803,2,2.803,0,54,54,58,1,144,cake,garden,,90499,001,2022-04-29_14h11.48.618,SPAMnetsValid,2021.1.4,Win32,59.97001499,,,,,,,,,,,,,,,,,,,,,,,,,,,,,,,,,,,,,,,,,,,,,,,,,,,,,,,,,,,,,,,,,,,,,,,,,,,,,,,,,,,,,,,,,
,,8,2.6368,8,2.6368,0,55,55,7,1,188,flower,tree,,90499,001,2022-04-29_14h11.48.618,SPAMnetsValid,2021.1.4,Win32,59.97001499,,,,,,,,,,,,,,,,,,,,,,,,,,,,,,,,,,,,,,,,,,,,,,,,,,,,,,,,,,,,,,,,,,,,,,,,,,,,,,,,,,,,,,,,,
,,6,4.0144,6,4.0144,0,56,56,43,1,185,cactus,rose,,90499,001,2022-04-29_14h11.48.618,SPAMnetsValid,2021.1.4,Win32,59.97001499,,,,,,,,,,,,,,,,,,,,,,,,,,,,,,,,,,,,,,,,,,,,,,,,,,,,,,,,,,,,,,,,,,,,,,,,,,,,,,,,,,,,,,,,,
,,4,5.461,4,5.461,0,57,57,4,1,109,broom,strawberry,,90499,001,2022-04-29_14h11.48.618,SPAMnetsValid,2021.1.4,Win32,59.97001499,,,,,,,,,,,,,,,,,,,,,,,,,,,,,,,,,,,,,,,,,,,,,,,,,,,,,,,,,,,,,,,,,,,,,,,,,,,,,,,,,,,,,,,,,
,,6,2.4295,6,2.4295,0,58,58,96,1,136,chocolate,microwave,,90499,001,2022-04-29_14h11.48.618,SPAMnetsValid,2021.1.4,Win32,59.97001499,,,,,,,,,,,,,,,,,,,,,,,,,,,,,,,,,,,,,,,,,,,,,,,,,,,,,,,,,,,,,,,,,,,,,,,,,,,,,,,,,,,,,,,,,
,,7,2.5877,7,2.5877,0,59,59,28,1,154,strawberry,yogurt,,90499,001,2022-04-29_14h11.48.618,SPAMnetsValid,2021.1.4,Win32,59.97001499,,,,,,,,,,,,,,,,,,,,,,,,,,,,,,,,,,,,,,,,,,,,,,,,,,,,,,,,,,,,,,,,,,,,,,,,,,,,,,,,,,,,,,,,,
,,5,6.9653,5,6.9653,0,60,60,23,1,148,flower,melon,,90499,001,2022-04-29_14h11.48.618,SPAMnetsValid,2021.1.4,Win32,59.97001499,,,,,,,,,,,,,,,,,,,,,,,,,,,,,,,,,,,,,,,,,,,,,,,,,,,,,,,,,,,,,,,,,,,,,,,,,,,,,,,,,,,,,,,,,
,,8,3.2527,8,3.2527,0,61,61,60,1,122,flower,garden,,90499,001,2022-04-29_14h11.48.618,SPAMnetsValid,2021.1.4,Win32,59.97001499,,,,,,,,,,,,,,,,,,,,,,,,,,,,,,,,,,,,,,,,,,,,,,,,,,,,,,,,,,,,,,,,,,,,,,,,,,,,,,,,,,,,,,,,,
,,6,7.918,6,7.918,0,62,62,16,1,111,carrot,microwave,,90499,001,2022-04-29_14h11.48.618,SPAMnetsValid,2021.1.4,Win32,59.97001499,,,,,,,,,,,,,,,,,,,,,,,,,,,,,,,,,,,,,,,,,,,,,,,,,,,,,,,,,,,,,,,,,,,,,,,,,,,,,,,,,,,,,,,,,
,,8,3.2916,8,3.2916,0,63,63,45,1,179,broom,oven,,90499,001,2022-04-29_14h11.48.618,SPAMnetsValid,2021.1.4,Win32,59.97001499,,,,,,,,,,,,,,,,,,,,,,,,,,,,,,,,,,,,,,,,,,,,,,,,,,,,,,,,,,,,,,,,,,,,,,,,,,,,,,,,,,,,,,,,,
,,2,2.0181,2,2.0181,0,64,64,3,1,129,cactus,refrigerator,,90499,001,2022-04-29_14h11.48.618,SPAMnetsValid,2021.1.4,Win32,59.97001499,,,,,,,,,,,,,,,,,,,,,,,,,,,,,,,,,,,,,,,,,,,,,,,,,,,,,,,,,,,,,,,,,,,,,,,,,,,,,,,,,,,,,,,,,
,,2,4.3062,2,4.3062,0,65,65,57,1,127,cactus,chocolate,,90499,001,2022-04-29_14h11.48.618,SPAMnetsValid,2021.1.4,Win32,59.97001499,,,,,,,,,,,,,,,,,,,,,,,,,,,,,,,,,,,,,,,,,,,,,,,,,,,,,,,,,,,,,,,,,,,,,,,,,,,,,,,,,,,,,,,,,
,,6,6.5395,6,6.5395,0,66,66,92,1,170,cookie,microwave,,90499,001,2022-04-29_14h11.48.618,SPAMnetsValid,2021.1.4,Win32,59.97001499,,,,,,,,,,,,,,,,,,,,,,,,,,,,,,,,,,,,,,,,,,,,,,,,,,,,,,,,,,,,,,,,,,,,,,,,,,,,,,,,,,,,,,,,,
,,7,2.2186,7,2.2186,0,67,67,35,1,147,cake,refrigerator,,90499,001,2022-04-29_14h11.48.618,SPAMnetsValid,2021.1.4,Win32,59.97001499,,,,,,,,,,,,,,,,,,,,,,,,,,,,,,,,,,,,,,,,,,,,,,,,,,,,,,,,,,,,,,,,,,,,,,,,,,,,,,,,,,,,,,,,,
,,2,24.4958,2,24.4958,0,68,68,49,1,152,cactus,strawberry,,90499,001,2022-04-29_14h11.48.618,SPAMnetsValid,2021.1.4,Win32,59.97001499,,,,,,,,,,,,,,,,,,,,,,,,,,,,,,,,,,,,,,,,,,,,,,,,,,,,,,,,,,,,,,,,,,,,,,,,,,,,,,,,,,,,,,,,,
,,2,2.0351,2,2.0351,0,69,69,46,1,123,cookie,tree,,90499,001,2022-04-29_14h11.48.618,SPAMnetsValid,2021.1.4,Win32,59.97001499,,,,,,,,,,,,,,,,,,,,,,,,,,,,,,,,,,,,,,,,,,,,,,,,,,,,,,,,,,,,,,,,,,,,,,,,,,,,,,,,,,,,,,,,,
,,6,1.5804,6,1.5804,0,70,70,12,1,162,microwave,tomato,,90499,001,2022-04-29_14h11.48.618,SPAMnetsValid,2021.1.4,Win32,59.97001499,,,,,,,,,,,,,,,,,,,,,,,,,,,,,,,,,,,,,,,,,,,,,,,,,,,,,,,,,,,,,,,,,,,,,,,,,,,,,,,,,,,,,,,,,
,,6,2.2013,6,2.2013,0,71,71,29,1,163,melon,refrigerator,,90499,001,2022-04-29_14h11.48.618,SPAMnetsValid,2021.1.4,Win32,59.97001499,,,,,,,,,,,,,,,,,,,,,,,,,,,,,,,,,,,,,,,,,,,,,,,,,,,,,,,,,,,,,,,,,,,,,,,,,,,,,,,,,,,,,,,,,
,,3,3.072,3,3.072,0,72,72,50,1,126,kitchen,tree,,90499,001,2022-04-29_14h11.48.618,SPAMnetsValid,2021.1.4,Win32,59.97001499,,,,,,,,,,,,,,,,,,,,,,,,,,,,,,,,,,,,,,,,,,,,,,,,,,,,,,,,,,,,,,,,,,,,,,,,,,,,,,,,,,,,,,,,,
,,3,3.6593,3,3.6593,0,73,73,94,1,133,cake,flower,,90499,001,2022-04-29_14h11.48.618,SPAMnetsValid,2021.1.4,Win32,59.97001499,,,,,,,,,,,,,,,,,,,,,,,,,,,,,,,,,,,,,,,,,,,,,,,,,,,,,,,,,,,,,,,,,,,,,,,,,,,,,,,,,,,,,,,,,
,,2,1.6638,2,1.6638,0,74,74,55,1,143,pretzel,rose,,90499,001,2022-04-29_14h11.48.618,SPAMnetsValid,2021.1.4,Win32,59.97001499,,,,,,,,,,,,,,,,,,,,,,,,,,,,,,,,,,,,,,,,,,,,,,,,,,,,,,,,,,,,,,,,,,,,,,,,,,,,,,,,,,,,,,,,,
,,6,3.1979,6,3.1979,0,75,75,36,1,161,kitchen,pretzel,,90499,001,2022-04-29_14h11.48.618,SPAMnetsValid,2021.1.4,Win32,59.97001499,,,,,,,,,,,,,,,,,,,,,,,,,,,,,,,,,,,,,,,,,,,,,,,,,,,,,,,,,,,,,,,,,,,,,,,,,,,,,,,,,,,,,,,,,
,,4,2.585,4,2.585,0,76,76,33,1,131,cactus,garden,,90499,001,2022-04-29_14h11.48.618,SPAMnetsValid,2021.1.4,Win32,59.97001499,,,,,,,,,,,,,,,,,,,,,,,,,,,,,,,,,,,,,,,,,,,,,,,,,,,,,,,,,,,,,,,,,,,,,,,,,,,,,,,,,,,,,,,,,
,,2,4.3569,2,4.3569,0,77,77,68,1,180,tree,yogurt,,90499,001,2022-04-29_14h11.48.618,SPAMnetsValid,2021.1.4,Win32,59.97001499,,,,,,,,,,,,,,,,,,,,,,,,,,,,,,,,,,,,,,,,,,,,,,,,,,,,,,,,,,,,,,,,,,,,,,,,,,,,,,,,,,,,,,,,,
,,2,3.1188,2,3.1188,0,78,78,9,1,176,cactus,tomato,,90499,001,2022-04-29_14h11.48.618,SPAMnetsValid,2021.1.4,Win32,59.97001499,,,,,,,,,,,,,,,,,,,,,,,,,,,,,,,,,,,,,,,,,,,,,,,,,,,,,,,,,,,,,,,,,,,,,,,,,,,,,,,,,,,,,,,,,
,,9,4.1647,9,4.1647,0,79,79,22,1,142,garden,tree,,90499,001,2022-04-29_14h11.48.618,SPAMnetsValid,2021.1.4,Win32,59.97001499,,,,,,,,,,,,,,,,,,,,,,,,,,,,,,,,,,,,,,,,,,,,,,,,,,,,,,,,,,,,,,,,,,,,,,,,,,,,,,,,,,,,,,,,,
,,2,3.3015,2,3.3015,0,80,80,30,1,125,carrot,tree,,90499,001,2022-04-29_14h11.48.618,SPAMnetsValid,2021.1.4,Win32,59.97001499,,,,,,,,,,,,,,,,,,,,,,,,,,,,,,,,,,,,,,,,,,,,,,,,,,,,,,,,,,,,,,,,,,,,,,,,,,,,,,,,,,,,,,,,,
,,8,2.7316,8,2.7316,0,81,81,27,1,158,cookie,oven,,90499,001,2022-04-29_14h11.48.618,SPAMnetsValid,2021.1.4,Win32,59.97001499,,,,,,,,,,,,,,,,,,,,,,,,,,,,,,,,,,,,,,,,,,,,,,,,,,,,,,,,,,,,,,,,,,,,,,,,,,,,,,,,,,,,,,,,,
,,6,1.5721,6,1.5721,0,82,82,91,1,166,cake,yogurt,,90499,001,2022-04-29_14h11.48.618,SPAMnetsValid,2021.1.4,Win32,59.97001499,,,,,,,,,,,,,,,,,,,,,,,,,,,,,,,,,,,,,,,,,,,,,,,,,,,,,,,,,,,,,,,,,,,,,,,,,,,,,,,,,,,,,,,,,
,,9,2.647,9,2.647,0,83,83,14,1,120,microwave,oven,,90499,001,2022-04-29_14h11.48.618,SPAMnetsValid,2021.1.4,Win32,59.97001499,,,,,,,,,,,,,,,,,,,,,,,,,,,,,,,,,,,,,,,,,,,,,,,,,,,,,,,,,,,,,,,,,,,,,,,,,,,,,,,,,,,,,,,,,
,,6,2.0921,6,2.0921,0,84,84,87,1,114,cookie,strawberry,,90499,001,2022-04-29_14h11.48.618,SPAMnetsValid,2021.1.4,Win32,59.97001499,,,,,,,,,,,,,,,,,,,,,,,,,,,,,,,,,,,,,,,,,,,,,,,,,,,,,,,,,,,,,,,,,,,,,,,,,,,,,,,,,,,,,,,,,
,,2,3.0092,2,3.0092,0,85,85,19,1,183,cake,rose,,90499,001,2022-04-29_14h11.48.618,SPAMnetsValid,2021.1.4,Win32,59.97001499,,,,,,,,,,,,,,,,,,,,,,,,,,,,,,,,,,,,,,,,,,,,,,,,,,,,,,,,,,,,,,,,,,,,,,,,,,,,,,,,,,,,,,,,,
,,6,1.7633,6,1.7633,0,86,86,79,1,103,pretzel,tomato,,90499,001,2022-04-29_14h11.48.618,SPAMnetsValid,2021.1.4,Win32,59.97001499,,,,,,,,,,,,,,,,,,,,,,,,,,,,,,,,,,,,,,,,,,,,,,,,,,,,,,,,,,,,,,,,,,,,,,,,,,,,,,,,,,,,,,,,,
,,9,2.7814,9,2.7814,0,87,87,86,1,193,melon,melon,CHECK,90499,001,2022-04-29_14h11.48.618,SPAMnetsValid,2021.1.4,Win32,59.97001499,,,,,,,,,,,,,,,,,,,,,,,,,,,,,,,,,,,,,,,,,,,,,,,,,,,,,,,,,,,,,,,,,,,,,,,,,,,,,,,,,,,,,,,,,
,,8,2.4676,8,2.4676,0,88,88,52,1,110,chocolate,cookie,,90499,001,2022-04-29_14h11.48.618,SPAMnetsValid,2021.1.4,Win32,59.97001499,,,,,,,,,,,,,,,,,,,,,,,,,,,,,,,,,,,,,,,,,,,,,,,,,,,,,,,,,,,,,,,,,,,,,,,,,,,,,,,,,,,,,,,,,
,,7,3.9817,7,3.9817,0,89,89,0,1,106,cake,strawberry,,90499,001,2022-04-29_14h11.48.618,SPAMnetsValid,2021.1.4,Win32,59.97001499,,,,,,,,,,,,,,,,,,,,,,,,,,,,,,,,,,,,,,,,,,,,,,,,,,,,,,,,,,,,,,,,,,,,,,,,,,,,,,,,,,,,,,,,,
,,3,4.6585,3,4.6585,0,90,90,18,1,119,strawberry,tree,,90499,001,2022-04-29_14h11.48.618,SPAMnetsValid,2021.1.4,Win32,59.97001499,,,,,,,,,,,,,,,,,,,,,,,,,,,,,,,,,,,,,,,,,,,,,,,,,,,,,,,,,,,,,,,,,,,,,,,,,,,,,,,,,,,,,,,,,
,,2,6.6428,2,6.6428,0,91,91,21,1,159,cookie,flower,,90499,001,2022-04-29_14h11.48.618,SPAMnetsValid,2021.1.4,Win32,59.97001499,,,,,,,,,,,,,,,,,,,,,,,,,,,,,,,,,,,,,,,,,,,,,,,,,,,,,,,,,,,,,,,,,,,,,,,,,,,,,,,,,,,,,,,,,
,,9,2.199,9,2.199,0,92,92,61,1,138,flower,rose,,90499,001,2022-04-29_14h11.48.618,SPAMnetsValid,2021.1.4,Win32,59.97001499,,,,,,,,,,,,,,,,,,,,,,,,,,,,,,,,,,,,,,,,,,,,,,,,,,,,,,,,,,,,,,,,,,,,,,,,,,,,,,,,,,,,,,,,,
,,9,6.2176,9,6.2176,0,93,93,44,1,116,cake,chocolate,,90499,001,2022-04-29_14h11.48.618,SPAMnetsValid,2021.1.4,Win32,59.97001499,,,,,,,,,,,,,,,,,,,,,,,,,,,,,,,,,,,,,,,,,,,,,,,,,,,,,,,,,,,,,,,,,,,,,,,,,,,,,,,,,,,,,,,,,
,,2,1.6306,2,1.6306,0,94,94,63,1,137,microwave,tree,,90499,001,2022-04-29_14h11.48.618,SPAMnetsValid,2021.1.4,Win32,59.97001499,,,,,,,,,,,,,,,,,,,,,,,,,,,,,,,,,,,,,,,,,,,,,,,,,,,,,,,,,,,,,,,,,,,,,,,,,,,,,,,,,,,,,,,,,
,,8,4.6292,8,4.6292,0,95,95,11,1,117,melon,strawberry,,90499,001,2022-04-29_14h11.48.618,SPAMnetsValid,2021.1.4,Win32,59.97001499,,,,,,,,,,,,,,,,,,,,,,,,,,,,,,,,,,,,,,,,,,,,,,,,,,,,,,,,,,,,,,,,,,,,,,,,,,,,,,,,,,,,,,,,,
,,2,4.4662,2,4.4662,0,96,96,13,1,105,cactus,oven,,90499,001,2022-04-29_14h11.48.618,SPAMnetsValid,2021.1.4,Win32,59.97001499,,,,,,,,,,,,,,,,,,,,,,,,,,,,,,,,,,,,,,,,,,,,,,,,,,,,,,,,,,,,,,,,,,,,,,,,,,,,,,,,,,,,,,,,,
,,,,,,,,,,,,,,,90499,001,2022-04-29_14h11.48.618,SPAMnetsValid,2021.1.4,Win32,59.97001499,0,0,0,0,1,,,,,,,,,,,,,,,,,,,,,,,,,,,,,,,,,,,,,,,,,,,,,,,,,,,,,,,,,,,,,,,,,,,,,,,,,,,,,,,,,,,,
,,,,,,,,,,,,,,,90499,001,2022-04-29_14h11.48.618,SPAMnetsValid,2021.1.4,Win32,59.97001499,,,,,,0,0,0,1,1,0,1,,,,,,,,,,,,,,,,,,,,,,,,,,,,,,,,,,,,,,,,,,,,,,,,,,,,,,,,,,,,,,,,,,,,,,,,,,,,,
,,,,8,8.9051,,,,,,20,rose,tree,,90499,001,2022-04-29_14h11.48.618,SPAMnetsValid,2021.1.4,Win32,59.97001499,,,,,,,,,,,,,8,8.9051,0,0,0,66,1,,,,,,,,,,,,,,,,,,,,,,,,,,,,,,,,,,,,,,,,,,,,,,,,,,,,,,,,,,,,,,,,,,,,,,
,,,,7,4.8177,,,,,,2,kitchen,onion,,90499,001,2022-04-29_14h11.48.618,SPAMnetsValid,2021.1.4,Win32,59.97001499,,,,,,,,,,,,,7,4.8177,0,1,1,91,1,,,,,,,,,,,,,,,,,,,,,,,,,,,,,,,,,,,,,,,,,,,,,,,,,,,,,,,,,,,,,,,,,,,,,,
,,,,2,1.8396,,,,,,74,broom,pretzel,,90499,001,2022-04-29_14h11.48.618,SPAMnetsValid,2021.1.4,Win32,59.97001499,,,,,,,,,,,,,2,1.8396,0,2,2,40,1,,,,,,,,,,,,,,,,,,,,,,,,,,,,,,,,,,,,,,,,,,,,,,,,,,,,,,,,,,,,,,,,,,,,,,
,,,,8,3.1457,,,,,,79,garden,strawberry,,90499,001,2022-04-29_14h11.48.618,SPAMnetsValid,2021.1.4,Win32,59.97001499,,,,,,,,,,,,,8,3.1457,0,3,3,87,1,,,,,,,,,,,,,,,,,,,,,,,,,,,,,,,,,,,,,,,,,,,,,,,,,,,,,,,,,,,,,,,,,,,,,,
,,,,6,3.6063,,,,,,68,flower,tomato,,90499,001,2022-04-29_14h11.48.618,SPAMnetsValid,2021.1.4,Win32,59.97001499,,,,,,,,,,,,,6,3.6063,0,4,4,94,1,,,,,,,,,,,,,,,,,,,,,,,,,,,,,,,,,,,,,,,,,,,,,,,,,,,,,,,,,,,,,,,,,,,,,,
,,,,7,1.9182,,,,,,69,carrot,refrigerator,,90499,001,2022-04-29_14h11.48.618,SPAMnetsValid,2021.1.4,Win32,59.97001499,,,,,,,,,,,,,7,1.9182,0,5,5,75,1,,,,,,,,,,,,,,,,,,,,,,,,,,,,,,,,,,,,,,,,,,,,,,,,,,,,,,,,,,,,,,,,,,,,,,
,,,,6,3.2639,,,,,,81,pretzel,yogurt,,90499,001,2022-04-29_14h11.48.618,SPAMnetsValid,2021.1.4,Win32,59.97001499,,,,,,,,,,,,,6,3.2639,0,6,6,50,1,,,,,,,,,,,,,,,,,,,,,,,,,,,,,,,,,,,,,,,,,,,,,,,,,,,,,,,,,,,,,,,,,,,,,,
,,,,6,1.6974,,,,,,44,cookie,melon,,90499,001,2022-04-29_14h11.48.618,SPAMnetsValid,2021.1.4,Win32,59.97001499,,,,,,,,,,,,,6,1.6974,0,7,7,92,1,,,,,,,,,,,,,,,,,,,,,,,,,,,,,,,,,,,,,,,,,,,,,,,,,,,,,,,,,,,,,,,,,,,,,,
,,,,4,4.6972,,,,,,50,carrot,rose,,90499,001,2022-04-29_14h11.48.618,SPAMnetsValid,2021.1.4,Win32,59.97001499,,,,,,,,,,,,,4,4.6972,0,8,8,73,1,,,,,,,,,,,,,,,,,,,,,,,,,,,,,,,,,,,,,,,,,,,,,,,,,,,,,,,,,,,,,,,,,,,,,,
,,,,8,2.1551,,,,,,63,cake,cookie,,90499,001,2022-04-29_14h11.48.618,SPAMnetsValid,2021.1.4,Win32,59.97001499,,,,,,,,,,,,,8,2.1551,0,9,9,93,1,,,,,,,,,,,,,,,,,,,,,,,,,,,,,,,,,,,,,,,,,,,,,,,,,,,,,,,,,,,,,,,,,,,,,,
,,,,2,1.9159,,,,,,16,chocolate,flower,,90499,001,2022-04-29_14h11.48.618,SPAMnetsValid,2021.1.4,Win32,59.97001499,,,,,,,,,,,,,2,1.9159,0,10,10,22,1,,,,,,,,,,,,,,,,,,,,,,,,,,,,,,,,,,,,,,,,,,,,,,,,,,,,,,,,,,,,,,,,,,,,,,
,,,,1,6.333,,,,,,59,rose,strawberry,,90499,001,2022-04-29_14h11.48.618,SPAMnetsValid,2021.1.4,Win32,59.97001499,,,,,,,,,,,,,1,6.333,0,11,11,72,1,,,,,,,,,,,,,,,,,,,,,,,,,,,,,,,,,,,,,,,,,,,,,,,,,,,,,,,,,,,,,,,,,,,,,,
,,,,4,4.4439,,,,,,10,flower,onion,,90499,001,2022-04-29_14h11.48.618,SPAMnetsValid,2021.1.4,Win32,59.97001499,,,,,,,,,,,,,4,4.4439,0,12,12,45,1,,,,,,,,,,,,,,,,,,,,,,,,,,,,,,,,,,,,,,,,,,,,,,,,,,,,,,,,,,,,,,,,,,,,,,
,,,,9,1.2383,,,,,,76,garden,rose,,90499,001,2022-04-29_14h11.48.618,SPAMnetsValid,2021.1.4,Win32,59.97001499,,,,,,,,,,,,,9,1.2383,0,13,13,19,1,,,,,,,,,,,,,,,,,,,,,,,,,,,,,,,,,,,,,,,,,,,,,,,,,,,,,,,,,,,,,,,,,,,,,,
,,,,6,4.5943,,,,,,22,kitchen,strawberry,,90499,001,2022-04-29_14h11.48.618,SPAMnetsValid,2021.1.4,Win32,59.97001499,,,,,,,,,,,,,6,4.5943,0,14,14,2,1,,,,,,,,,,,,,,,,,,,,,,,,,,,,,,,,,,,,,,,,,,,,,,,,,,,,,,,,,,,,,,,,,,,,,,
,,,,2,3.1689,,,,,,41,broom,cactus,,90499,001,2022-04-29_14h11.48.618,SPAMnetsValid,2021.1.4,Win32,59.97001499,,,,,,,,,,,,,2,3.1689,0,15,15,46,1,,,,,,,,,,,,,,,,,,,,,,,,,,,,,,,,,,,,,,,,,,,,,,,,,,,,,,,,,,,,,,,,,,,,,,
,,,,8,4.3519,,,,,,52,carrot,tomato,,90499,001,2022-04-29_14h11.48.618,SPAMnetsValid,2021.1.4,Win32,59.97001499,,,,,,,,,,,,,8,4.3519,0,16,16,95,1,,,,,,,,,,,,,,,,,,,,,,,,,,,,,,,,,,,,,,,,,,,,,,,,,,,,,,,,,,,,,,,,,,,,,,
,,,,6,1.5766,,,,,,66,melon,yogurt,,90499,001,2022-04-29_14h11.48.618,SPAMnetsValid,2021.1.4,Win32,59.97001499,,,,,,,,,,,,,6,1.5766,0,17,17,48,1,,,,,,,,,,,,,,,,,,,,,,,,,,,,,,,,,,,,,,,,,,,,,,,,,,,,,,,,,,,,,,,,,,,,,,
,,,,1,3.8743,,,,,,35,flower,pretzel,,90499,001,2022-04-29_14h11.48.618,SPAMnetsValid,2021.1.4,Win32,59.97001499,,,,,,,,,,,,,1,3.8743,0,18,18,26,1,,,,,,,,,,,,,,,,,,,,,,,,,,,,,,,,,,,,,,,,,,,,,,,,,,,,,,,,,,,,,,,,,,,,,,
,,,,6,2.9845,,,,,,28,cake,melon,,90499,001,2022-04-29_14h11.48.618,SPAMnetsValid,2021.1.4,Win32,59.97001499,,,,,,,,,,,,,6,2.9845,0,19,19,54,1,,,,,,,,,,,,,,,,,,,,,,,,,,,,,,,,,,,,,,,,,,,,,,,,,,,,,,,,,,,,,,,,,,,,,,
,,,,9,1.1851,,,,,,192,microwave,microwave,CHECK,90499,001,2022-04-29_14h11.48.618,SPAMnetsValid,2021.1.4,Win32,59.97001499,,,,,,,,,,,,,9,1.1851,0,20,20,53,1,,,,,,,,,,,,,,,,,,,,,,,,,,,,,,,,,,,,,,,,,,,,,,,,,,,,,,,,,,,,,,,,,,,,,,
,,,,1,2.2096,,,,,,62,kitchen,rose,,90499,001,2022-04-29_14h11.48.618,SPAMnetsValid,2021.1.4,Win32,59.97001499,,,,,,,,,,,,,1,2.2096,0,21,21,57,1,,,,,,,,,,,,,,,,,,,,,,,,,,,,,,,,,,,,,,,,,,,,,,,,,,,,,,,,,,,,,,,,,,,,,,
,,,,3,4.8344,,,,,,40,broom,cake,,90499,001,2022-04-29_14h11.48.618,SPAMnetsValid,2021.1.4,Win32,59.97001499,,,,,,,,,,,,,3,4.8344,0,22,22,32,1,,,,,,,,,,,,,,,,,,,,,,,,,,,,,,,,,,,,,,,,,,,,,,,,,,,,,,,,,,,,,,,,,,,,,,
,,,,6,4.449,,,,,,70,chocolate,onion,,90499,001,2022-04-29_14h11.48.618,SPAMnetsValid,2021.1.4,Win32,59.97001499,,,,,,,,,,,,,6,4.449,0,23,23,74,1,,,,,,,,,,,,,,,,,,,,,,,,,,,,,,,,,,,,,,,,,,,,,,,,,,,,,,,,,,,,,,,,,,,,,,
,,,,6,2.885,,,,,,39,melon,pretzel,,90499,001,2022-04-29_14h11.48.618,SPAMnetsValid,2021.1.4,Win32,59.97001499,,,,,,,,,,,,,6,2.885,0,24,24,20,1,,,,,,,,,,,,,,,,,,,,,,,,,,,,,,,,,,,,,,,,,,,,,,,,,,,,,,,,,,,,,,,,,,,,,,
,,,,6,5.7687,,,,,,19,microwave,pretzel,,90499,001,2022-04-29_14h11.48.618,SPAMnetsValid,2021.1.4,Win32,59.97001499,,,,,,,,,,,,,6,5.7687,0,25,25,41,1,,,,,,,,,,,,,,,,,,,,,,,,,,,,,,,,,,,,,,,,,,,,,,,,,,,,,,,,,,,,,,,,,,,,,,
,,,,9,3.5115,,,,,,94,kitchen,microwave,,90499,001,2022-04-29_14h11.48.618,SPAMnetsValid,2021.1.4,Win32,59.97001499,,,,,,,,,,,,,9,3.5115,0,26,26,58,1,,,,,,,,,,,,,,,,,,,,,,,,,,,,,,,,,,,,,,,,,,,,,,,,,,,,,,,,,,,,,,,,,,,,,,
,,,,6,1.5938,,,,,,54,chocolate,yogurt,,90499,001,2022-04-29_14h11.48.618,SPAMnetsValid,2021.1.4,Win32,59.97001499,,,,,,,,,,,,,6,1.5938,0,27,27,67,1,,,,,,,,,,,,,,,,,,,,,,,,,,,,,,,,,,,,,,,,,,,,,,,,,,,,,,,,,,,,,,,,,,,,,,
,,,,1,3.0795,,,,,,89,chocolate,rose,,90499,001,2022-04-29_14h11.48.618,SPAMnetsValid,2021.1.4,Win32,59.97001499,,,,,,,,,,,,,1,3.0795,0,28,28,60,1,,,,,,,,,,,,,,,,,,,,,,,,,,,,,,,,,,,,,,,,,,,,,,,,,,,,,,,,,,,,,,,,,,,,,,
,,,,1,3.9197,,,,,,91,microwave,rose,,90499,001,2022-04-29_14h11.48.618,SPAMnetsValid,2021.1.4,Win32,59.97001499,,,,,,,,,,,,,1,3.9197,0,29,29,84,1,,,,,,,,,,,,,,,,,,,,,,,,,,,,,,,,,,,,,,,,,,,,,,,,,,,,,,,,,,,,,,,,,,,,,,
,,,,8,2.5431,,,,,,56,cactus,tree,,90499,001,2022-04-29_14h11.48.618,SPAMnetsValid,2021.1.4,Win32,59.97001499,,,,,,,,,,,,,8,2.5431,0,30,30,21,1,,,,,,,,,,,,,,,,,,,,,,,,,,,,,,,,,,,,,,,,,,,,,,,,,,,,,,,,,,,,,,,,,,,,,,
,,,,3,3.8545,,,,,,8,broom,melon,,90499,001,2022-04-29_14h11.48.618,SPAMnetsValid,2021.1.4,Win32,59.97001499,,,,,,,,,,,,,3,3.8545,0,31,31,59,1,,,,,,,,,,,,,,,,,,,,,,,,,,,,,,,,,,,,,,,,,,,,,,,,,,,,,,,,,,,,,,,,,,,,,,
,,,,2,2.5414,,,,,,13,broom,yogurt,,90499,001,2022-04-29_14h11.48.618,SPAMnetsValid,2021.1.4,Win32,59.97001499,,,,,,,,,,,,,2,2.5414,0,32,32,5,1,,,,,,,,,,,,,,,,,,,,,,,,,,,,,,,,,,,,,,,,,,,,,,,,,,,,,,,,,,,,,,,,,,,,,,
,,,,7,1.9829,,,,,,7,melon,tree,,90499,001,2022-04-29_14h11.48.618,SPAMnetsValid,2021.1.4,Win32,59.97001499,,,,,,,,,,,,,7,1.9829,0,33,33,77,1,,,,,,,,,,,,,,,,,,,,,,,,,,,,,,,,,,,,,,,,,,,,,,,,,,,,,,,,,,,,,,,,,,,,,,
,,,,6,2.5169,,,,,,26,tomato,yogurt,,90499,001,2022-04-29_14h11.48.618,SPAMnetsValid,2021.1.4,Win32,59.97001499,,,,,,,,,,,,,6,2.5169,0,34,34,13,1,,,,,,,,,,,,,,,,,,,,,,,,,,,,,,,,,,,,,,,,,,,,,,,,,,,,,,,,,,,,,,,,,,,,,,
,,,,3,3.0554,,,,,,57,flower,kitchen,,90499,001,2022-04-29_14h11.48.618,SPAMnetsValid,2021.1.4,Win32,59.97001499,,,,,,,,,,,,,3,3.0554,0,35,35,49,1,,,,,,,,,,,,,,,,,,,,,,,,,,,,,,,,,,,,,,,,,,,,,,,,,,,,,,,,,,,,,,,,,,,,,,
,,,,4,5.3071,,,,,,42,garden,kitchen,,90499,001,2022-04-29_14h11.48.618,SPAMnetsValid,2021.1.4,Win32,59.97001499,,,,,,,,,,,,,4,5.3071,0,36,36,29,1,,,,,,,,,,,,,,,,,,,,,,,,,,,,,,,,,,,,,,,,,,,,,,,,,,,,,,,,,,,,,,,,,,,,,,
,,,,8,1.8467,,,,,,9,kitchen,refrigerator,,90499,001,2022-04-29_14h11.48.618,SPAMnetsValid,2021.1.4,Win32,59.97001499,,,,,,,,,,,,,8,1.8467,0,37,37,64,1,,,,,,,,,,,,,,,,,,,,,,,,,,,,,,,,,,,,,,,,,,,,,,,,,,,,,,,,,,,,,,,,,,,,,,
,,,,1,5.3432,,,,,,92,broom,flower,,90499,001,2022-04-29_14h11.48.618,SPAMnetsValid,2021.1.4,Win32,59.97001499,,,,,,,,,,,,,1,5.3432,0,38,38,88,1,,,,,,,,,,,,,,,,,,,,,,,,,,,,,,,,,,,,,,,,,,,,,,,,,,,,,,,,,,,,,,,,,,,,,,
,,,,8,4.2462,,,,,,17,carrot,melon,,90499,001,2022-04-29_14h11.48.618,SPAMnetsValid,2021.1.4,Win32,59.97001499,,,,,,,,,,,,,8,4.2462,0,39,39,24,1,,,,,,,,,,,,,,,,,,,,,,,,,,,,,,,,,,,,,,,,,,,,,,,,,,,,,,,,,,,,,,,,,,,,,,
,,,,1,3.2812,,,,,,86,oven,rose,,90499,001,2022-04-29_14h11.48.618,SPAMnetsValid,2021.1.4,Win32,59.97001499,,,,,,,,,,,,,1,3.2812,0,40,40,79,1,,,,,,,,,,,,,,,,,,,,,,,,,,,,,,,,,,,,,,,,,,,,,,,,,,,,,,,,,,,,,,,,,,,,,,
,,,,2,21.0854,,,,,,27,cactus,cookie,,90499,001,2022-04-29_14h11.48.618,SPAMnetsValid,2021.1.4,Win32,59.97001499,,,,,,,,,,,,,2,21.0854,0,41,41,17,1,,,,,,,,,,,,,,,,,,,,,,,,,,,,,,,,,,,,,,,,,,,,,,,,,,,,,,,,,,,,,,,,,,,,,,
,,,,3,4.5909,,,,,,37,garden,refrigerator,,90499,001,2022-04-29_14h11.48.618,SPAMnetsValid,2021.1.4,Win32,59.97001499,,,,,,,,,,,,,3,4.5909,0,42,42,11,1,,,,,,,,,,,,,,,,,,,,,,,,,,,,,,,,,,,,,,,,,,,,,,,,,,,,,,,,,,,,,,,,,,,,,,
,,,,5,5.4058,,,,,,34,melon,oven,,90499,001,2022-04-29_14h11.48.618,SPAMnetsValid,2021.1.4,Win32,59.97001499,,,,,,,,,,,,,5,5.4058,0,43,43,7,1,,,,,,,,,,,,,,,,,,,,,,,,,,,,,,,,,,,,,,,,,,,,,,,,,,,,,,,,,,,,,,,,,,,,,,
,,,,6,10.5488,,,,,,30,cookie,pretzel,,90499,001,2022-04-29_14h11.48.618,SPAMnetsValid,2021.1.4,Win32,59.97001499,,,,,,,,,,,,,6,10.5488,0,44,44,78,1,,,,,,,,,,,,,,,,,,,,,,,,,,,,,,,,,,,,,,,,,,,,,,,,,,,,,,,,,,,,,,,,,,,,,,
,,,,2,2.3284,,,,,,67,flower,yogurt,,90499,001,2022-04-29_14h11.48.618,SPAMnetsValid,2021.1.4,Win32,59.97001499,,,,,,,,,,,,,2,2.3284,0,45,45,12,1,,,,,,,,,,,,,,,,,,,,,,,,,,,,,,,,,,,,,,,,,,,,,,,,,,,,,,,,,,,,,,,,,,,,,,
,,,,7,3.5044,,,,,,18,onion,refrigerator,,90499,001,2022-04-29_14h11.48.618,SPAMnetsValid,2021.1.4,Win32,59.97001499,,,,,,,,,,,,,7,3.5044,0,46,46,62,1,,,,,,,,,,,,,,,,,,,,,,,,,,,,,,,,,,,,,,,,,,,,,,,,,,,,,,,,,,,,,,,,,,,,,,
,,,,6,1.1572,,,,,,43,chocolate,tomato,,90499,001,2022-04-29_14h11.48.618,SPAMnetsValid,2021.1.4,Win32,59.97001499,,,,,,,,,,,,,6,1.1572,0,47,47,8,1,,,,,,,,,,,,,,,,,,,,,,,,,,,,,,,,,,,,,,,,,,,,,,,,,,,,,,,,,,,,,,,,,,,,,,
,,,,2,3.2798,,,,,,90,cactus,cake,,90499,001,2022-04-29_14h11.48.618,SPAMnetsValid,2021.1.4,Win32,59.97001499,,,,,,,,,,,,,2,3.2798,0,48,48,85,1,,,,,,,,,,,,,,,,,,,,,,,,,,,,,,,,,,,,,,,,,,,,,,,,,,,,,,,,,,,,,,,,,,,,,,
,,,,6,1.4353,,,,,,75,cookie,onion,,90499,001,2022-04-29_14h11.48.618,SPAMnetsValid,2021.1.4,Win32,59.97001499,,,,,,,,,,,,,6,1.4353,0,49,49,9,1,,,,,,,,,,,,,,,,,,,,,,,,,,,,,,,,,,,,,,,,,,,,,,,,,,,,,,,,,,,,,,,,,,,,,,
,,,,8,2.9482,,,,,,6,garden,onion,,90499,001,2022-04-29_14h11.48.618,SPAMnetsValid,2021.1.4,Win32,59.97001499,,,,,,,,,,,,,8,2.9482,0,50,50,83,1,,,,,,,,,,,,,,,,,,,,,,,,,,,,,,,,,,,,,,,,,,,,,,,,,,,,,,,,,,,,,,,,,,,,,,
,,,,2,4.5133,,,,,,58,garden,oven,,90499,001,2022-04-29_14h11.48.618,SPAMnetsValid,2021.1.4,Win32,59.97001499,,,,,,,,,,,,,2,4.5133,0,51,51,37,1,,,,,,,,,,,,,,,,,,,,,,,,,,,,,,,,,,,,,,,,,,,,,,,,,,,,,,,,,,,,,,,,,,,,,,
,,,,1,3.0547,,,,,,65,broom,garden,,90499,001,2022-04-29_14h11.48.618,SPAMnetsValid,2021.1.4,Win32,59.97001499,,,,,,,,,,,,,1,3.0547,0,52,52,23,1,,,,,,,,,,,,,,,,,,,,,,,,,,,,,,,,,,,,,,,,,,,,,,,,,,,,,,,,,,,,,,,,,,,,,,
,,,,6,5.2687,,,,,,49,flower,strawberry,,90499,001,2022-04-29_14h11.48.618,SPAMnetsValid,2021.1.4,Win32,59.97001499,,,,,,,,,,,,,6,5.2687,0,53,53,3,1,,,,,,,,,,,,,,,,,,,,,,,,,,,,,,,,,,,,,,,,,,,,,,,,,,,,,,,,,,,,,,,,,,,,,,
,,,,7,4.9477,,,,,,32,cake,microwave,,90499,001,2022-04-29_14h11.48.618,SPAMnetsValid,2021.1.4,Win32,59.97001499,,,,,,,,,,,,,7,4.9477,0,54,54,33,1,,,,,,,,,,,,,,,,,,,,,,,,,,,,,,,,,,,,,,,,,,,,,,,,,,,,,,,,,,,,,,,,,,,,,,
,,,,2,3.0793,,,,,,71,broom,rose,,90499,001,2022-04-29_14h11.48.618,SPAMnetsValid,2021.1.4,Win32,59.97001499,,,,,,,,,,,,,2,3.0793,0,55,55,61,1,,,,,,,,,,,,,,,,,,,,,,,,,,,,,,,,,,,,,,,,,,,,,,,,,,,,,,,,,,,,,,,,,,,,,,
,,,,6,2.2732,,,,,,4,chocolate,pretzel,,90499,001,2022-04-29_14h11.48.618,SPAMnetsValid,2021.1.4,Win32,59.97001499,,,,,,,,,,,,,6,2.2732,0,56,56,52,1,,,,,,,,,,,,,,,,,,,,,,,,,,,,,,,,,,,,,,,,,,,,,,,,,,,,,,,,,,,,,,,,,,,,,,
,,,,2,1.4805,,,,,,53,garden,pretzel,,90499,001,2022-04-29_14h11.48.618,SPAMnetsValid,2021.1.4,Win32,59.97001499,,,,,,,,,,,,,2,1.4805,0,57,57,0,1,,,,,,,,,,,,,,,,,,,,,,,,,,,,,,,,,,,,,,,,,,,,,,,,,,,,,,,,,,,,,,,,,,,,,,
,,,,3,2.4701,,,,,,72,broom,onion,,90499,001,2022-04-29_14h11.48.618,SPAMnetsValid,2021.1.4,Win32,59.97001499,,,,,,,,,,,,,3,2.4701,0,58,58,27,1,,,,,,,,,,,,,,,,,,,,,,,,,,,,,,,,,,,,,,,,,,,,,,,,,,,,,,,,,,,,,,,,,,,,,,
,,,,2,3.713,,,,,,23,flower,microwave,,90499,001,2022-04-29_14h11.48.618,SPAMnetsValid,2021.1.4,Win32,59.97001499,,,,,,,,,,,,,2,3.713,0,59,59,25,1,,,,,,,,,,,,,,,,,,,,,,,,,,,,,,,,,,,,,,,,,,,,,,,,,,,,,,,,,,,,,,,,,,,,,,
,,,,1,2.2059,,,,,,5,oven,tree,,90499,001,2022-04-29_14h11.48.618,SPAMnetsValid,2021.1.4,Win32,59.97001499,,,,,,,,,,,,,1,2.2059,0,60,60,70,1,,,,,,,,,,,,,,,,,,,,,,,,,,,,,,,,,,,,,,,,,,,,,,,,,,,,,,,,,,,,,,,,,,,,,,
,,,,2,5.9033,,,,,,31,cactus,pretzel,,90499,001,2022-04-29_14h11.48.618,SPAMnetsValid,2021.1.4,Win32,59.97001499,,,,,,,,,,,,,2,5.9033,0,61,61,1,1,,,,,,,,,,,,,,,,,,,,,,,,,,,,,,,,,,,,,,,,,,,,,,,,,,,,,,,,,,,,,,,,,,,,,,
,,,,7,1.4014,,,,,,77,refrigerator,yogurt,,90499,001,2022-04-29_14h11.48.618,SPAMnetsValid,2021.1.4,Win32,59.97001499,,,,,,,,,,,,,7,1.4014,0,62,62,42,1,,,,,,,,,,,,,,,,,,,,,,,,,,,,,,,,,,,,,,,,,,,,,,,,,,,,,,,,,,,,,,,,,,,,,,
,,,,9,1.8993,,,,,,191,cake,cake,CHECK,90499,001,2022-04-29_14h11.48.618,SPAMnetsValid,2021.1.4,Win32,59.97001499,,,,,,,,,,,,,9,1.8993,0,63,63,10,1,,,,,,,,,,,,,,,,,,,,,,,,,,,,,,,,,,,,,,,,,,,,,,,,,,,,,,,,,,,,,,,,,,,,,,
,,,,6,1.9715,,,,,,45,onion,pretzel,,90499,001,2022-04-29_14h11.48.618,SPAMnetsValid,2021.1.4,Win32,59.97001499,,,,,,,,,,,,,6,1.9715,0,64,64,69,1,,,,,,,,,,,,,,,,,,,,,,,,,,,,,,,,,,,,,,,,,,,,,,,,,,,,,,,,,,,,,,,,,,,,,,
,,,,1,2.2232,,,,,,48,flower,oven,,90499,001,2022-04-29_14h11.48.618,SPAMnetsValid,2021.1.4,Win32,59.97001499,,,,,,,,,,,,,1,2.2232,0,65,65,15,1,,,,,,,,,,,,,,,,,,,,,,,,,,,,,,,,,,,,,,,,,,,,,,,,,,,,,,,,,,,,,,,,,,,,,,
,,,,6,1.0237,,,,,,47,onion,tomato,,90499,001,2022-04-29_14h11.48.618,SPAMnetsValid,2021.1.4,Win32,59.97001499,,,,,,,,,,,,,6,1.0237,0,66,66,51,1,,,,,,,,,,,,,,,,,,,,,,,,,,,,,,,,,,,,,,,,,,,,,,,,,,,,,,,,,,,,,,,,,,,,,,
,,,,3,1.487,,,,,,14,broom,cookie,,90499,001,2022-04-29_14h11.48.618,SPAMnetsValid,2021.1.4,Win32,59.97001499,,,,,,,,,,,,,3,1.487,0,67,67,16,1,,,,,,,,,,,,,,,,,,,,,,,,,,,,,,,,,,,,,,,,,,,,,,,,,,,,,,,,,,,,,,,,,,,,,,
,,,,1,3.0241,,,,,,46,garden,yogurt,,90499,001,2022-04-29_14h11.48.618,SPAMnetsValid,2021.1.4,Win32,59.97001499,,,,,,,,,,,,,1,3.0241,0,68,68,65,1,,,,,,,,,,,,,,,,,,,,,,,,,,,,,,,,,,,,,,,,,,,,,,,,,,,,,,,,,,,,,,,,,,,,,,
,,,,1,2.1927,,,,,,85,cake,tree,,90499,001,2022-04-29_14h11.48.618,SPAMnetsValid,2021.1.4,Win32,59.97001499,,,,,,,,,,,,,1,2.1927,0,69,69,18,1,,,,,,,,,,,,,,,,,,,,,,,,,,,,,,,,,,,,,,,,,,,,,,,,,,,,,,,,,,,,,,,,,,,,,,
,,,,9,5.0734,,,,,,36,broom,kitchen,,90499,001,2022-04-29_14h11.48.618,SPAMnetsValid,2021.1.4,Win32,59.97001499,,,,,,,,,,,,,9,5.0734,0,70,70,76,1,,,,,,,,,,,,,,,,,,,,,,,,,,,,,,,,,,,,,,,,,,,,,,,,,,,,,,,,,,,,,,,,,,,,,,
,,,,6,1.4742,,,,,,21,cake,onion,,90499,001,2022-04-29_14h11.48.618,SPAMnetsValid,2021.1.4,Win32,59.97001499,,,,,,,,,,,,,6,1.4742,0,71,71,63,1,,,,,,,,,,,,,,,,,,,,,,,,,,,,,,,,,,,,,,,,,,,,,,,,,,,,,,,,,,,,,,,,,,,,,,
,,,,3,1.8045,,,,,,11,refrigerator,tree,,90499,001,2022-04-29_14h11.48.618,SPAMnetsValid,2021.1.4,Win32,59.97001499,,,,,,,,,,,,,3,1.8045,0,72,72,43,1,,,,,,,,,,,,,,,,,,,,,,,,,,,,,,,,,,,,,,,,,,,,,,,,,,,,,,,,,,,,,,,,,,,,,,
,,,,6,5.9187,,,,,,88,cactus,melon,,90499,001,2022-04-29_14h11.48.618,SPAMnetsValid,2021.1.4,Win32,59.97001499,,,,,,,,,,,,,6,5.9187,0,73,73,38,1,,,,,,,,,,,,,,,,,,,,,,,,,,,,,,,,,,,,,,,,,,,,,,,,,,,,,,,,,,,,,,,,,,,,,,
,,,,6,6.2091,,,,,,55,tomato,tree,,90499,001,2022-04-29_14h11.48.618,SPAMnetsValid,2021.1.4,Win32,59.97001499,,,,,,,,,,,,,6,6.2091,0,74,74,35,1,,,,,,,,,,,,,,,,,,,,,,,,,,,,,,,,,,,,,,,,,,,,,,,,,,,,,,,,,,,,,,,,,,,,,,
,,,,8,1.3182,,,,,,93,kitchen,oven,,90499,001,2022-04-29_14h11.48.618,SPAMnetsValid,2021.1.4,Win32,59.97001499,,,,,,,,,,,,,8,1.3182,0,75,75,82,1,,,,,,,,,,,,,,,,,,,,,,,,,,,,,,,,,,,,,,,,,,,,,,,,,,,,,,,,,,,,,,,,,,,,,,
,,,,6,7.178,,,,,,12,cookie,yogurt,,90499,001,2022-04-29_14h11.48.618,SPAMnetsValid,2021.1.4,Win32,59.97001499,,,,,,,,,,,,,6,7.178,0,76,76,36,1,,,,,,,,,,,,,,,,,,,,,,,,,,,,,,,,,,,,,,,,,,,,,,,,,,,,,,,,,,,,,,,,,,,,,,
,,,,8,1.4022,,,,,,82,cake,kitchen,,90499,001,2022-04-29_14h11.48.618,SPAMnetsValid,2021.1.4,Win32,59.97001499,,,,,,,,,,,,,8,1.4022,0,77,77,96,1,,,,,,,,,,,,,,,,,,,,,,,,,,,,,,,,,,,,,,,,,,,,,,,,,,,,,,,,,,,,,,,,,,,,,,
,,,,6,4.6592,,,,,,61,strawberry,tomato,,90499,001,2022-04-29_14h11.48.618,SPAMnetsValid,2021.1.4,Win32,59.97001499,,,,,,,,,,,,,6,4.6592,0,78,78,80,1,,,,,,,,,,,,,,,,,,,,,,,,,,,,,,,,,,,,,,,,,,,,,,,,,,,,,,,,,,,,,,,,,,,,,,
,,,,6,1.9082,,,,,,87,carrot,yogurt,,90499,001,2022-04-29_14h11.48.618,SPAMnetsValid,2021.1.4,Win32,59.97001499,,,,,,,,,,,,,6,1.9082,0,79,79,6,1,,,,,,,,,,,,,,,,,,,,,,,,,,,,,,,,,,,,,,,,,,,,,,,,,,,,,,,,,,,,,,,,,,,,,,
,,,,6,3.1097,,,,,,15,onion,oven,,90499,001,2022-04-29_14h11.48.618,SPAMnetsValid,2021.1.4,Win32,59.97001499,,,,,,,,,,,,,6,3.1097,0,80,80,39,1,,,,,,,,,,,,,,,,,,,,,,,,,,,,,,,,,,,,,,,,,,,,,,,,,,,,,,,,,,,,,,,,,,,,,,
,,,,6,1.2083,,,,,,51,onion,strawberry,,90499,001,2022-04-29_14h11.48.618,SPAMnetsValid,2021.1.4,Win32,59.97001499,,,,,,,,,,,,,6,1.2083,0,81,81,86,1,,,,,,,,,,,,,,,,,,,,,,,,,,,,,,,,,,,,,,,,,,,,,,,,,,,,,,,,,,,,,,,,,,,,,,
,,,,6,1.2548,,,,,,33,oven,yogurt,,90499,001,2022-04-29_14h11.48.618,SPAMnetsValid,2021.1.4,Win32,59.97001499,,,,,,,,,,,,,6,1.2548,0,82,82,31,1,,,,,,,,,,,,,,,,,,,,,,,,,,,,,,,,,,,,,,,,,,,,,,,,,,,,,,,,,,,,,,,,,,,,,,
,,,,7,1.0023,,,,,,84,oven,tomato,,90499,001,2022-04-29_14h11.48.618,SPAMnetsValid,2021.1.4,Win32,59.97001499,,,,,,,,,,,,,7,1.0023,0,83,83,28,1,,,,,,,,,,,,,,,,,,,,,,,,,,,,,,,,,,,,,,,,,,,,,,,,,,,,,,,,,,,,,,,,,,,,,,
,,,,4,6.1117,,,,,,83,broom,carrot,,90499,001,2022-04-29_14h11.48.618,SPAMnetsValid,2021.1.4,Win32,59.97001499,,,,,,,,,,,,,4,6.1117,0,84,84,4,1,,,,,,,,,,,,,,,,,,,,,,,,,,,,,,,,,,,,,,,,,,,,,,,,,,,,,,,,,,,,,,,,,,,,,,
,,,,2,2.196,,,,,,80,chocolate,tree,,90499,001,2022-04-29_14h11.48.618,SPAMnetsValid,2021.1.4,Win32,59.97001499,,,,,,,,,,,,,2,2.196,0,85,85,89,1,,,,,,,,,,,,,,,,,,,,,,,,,,,,,,,,,,,,,,,,,,,,,,,,,,,,,,,,,,,,,,,,,,,,,,
,,,,5,6.2492,,,,,,24,cookie,tomato,,90499,001,2022-04-29_14h11.48.618,SPAMnetsValid,2021.1.4,Win32,59.97001499,,,,,,,,,,,,,5,6.2492,0,86,86,68,1,,,,,,,,,,,,,,,,,,,,,,,,,,,,,,,,,,,,,,,,,,,,,,,,,,,,,,,,,,,,,,,,,,,,,,
,,,,2,2.535,,,,,,1,rose,yogurt,,90499,001,2022-04-29_14h11.48.618,SPAMnetsValid,2021.1.4,Win32,59.97001499,,,,,,,,,,,,,2,2.535,0,87,87,55,1,,,,,,,,,,,,,,,,,,,,,,,,,,,,,,,,,,,,,,,,,,,,,,,,,,,,,,,,,,,,,,,,,,,,,,
,,,,1,1.6374,,,,,,78,cookie,rose,,90499,001,2022-04-29_14h11.48.618,SPAMnetsValid,2021.1.4,Win32,59.97001499,,,,,,,,,,,,,1,1.6374,0,88,88,56,1,,,,,,,,,,,,,,,,,,,,,,,,,,,,,,,,,,,,,,,,,,,,,,,,,,,,,,,,,,,,,,,,,,,,,,
,,,,6,3.285,,,,,,60,cactus,onion,,90499,001,2022-04-29_14h11.48.618,SPAMnetsValid,2021.1.4,Win32,59.97001499,,,,,,,,,,,,,6,3.285,0,89,89,81,1,,,,,,,,,,,,,,,,,,,,,,,,,,,,,,,,,,,,,,,,,,,,,,,,,,,,,,,,,,,,,,,,,,,,,,
,,,,6,1.4025,,,,,,25,carrot,onion,,90499,001,2022-04-29_14h11.48.618,SPAMnetsValid,2021.1.4,Win32,59.97001499,,,,,,,,,,,,,6,1.4025,0,90,90,44,1,,,,,,,,,,,,,,,,,,,,,,,,,,,,,,,,,,,,,,,,,,,,,,,,,,,,,,,,,,,,,,,,,,,,,,
,,,,9,1.6356,,,,,,3,cake,oven,,90499,001,2022-04-29_14h11.48.618,SPAMnetsValid,2021.1.4,Win32,59.97001499,,,,,,,,,,,,,9,1.6356,0,91,91,30,1,,,,,,,,,,,,,,,,,,,,,,,,,,,,,,,,,,,,,,,,,,,,,,,,,,,,,,,,,,,,,,,,,,,,,,
,,,,6,4.1628,,,,,,29,chocolate,melon,,90499,001,2022-04-29_14h11.48.618,SPAMnetsValid,2021.1.4,Win32,59.97001499,,,,,,,,,,,,,6,4.1628,0,92,92,34,1,,,,,,,,,,,,,,,,,,,,,,,,,,,,,,,,,,,,,,,,,,,,,,,,,,,,,,,,,,,,,,,,,,,,,,
,,,,2,3.9018,,,,,,73,broom,chocolate,,90499,001,2022-04-29_14h11.48.618,SPAMnetsValid,2021.1.4,Win32,59.97001499,,,,,,,,,,,,,2,3.9018,0,93,93,47,1,,,,,,,,,,,,,,,,,,,,,,,,,,,,,,,,,,,,,,,,,,,,,,,,,,,,,,,,,,,,,,,,,,,,,,
,,,,7,1.8993,,,,,,95,broom,refrigerator,,90499,001,2022-04-29_14h11.48.618,SPAMnetsValid,2021.1.4,Win32,59.97001499,,,,,,,,,,,,,7,1.8993,0,94,94,90,1,,,,,,,,,,,,,,,,,,,,,,,,,,,,,,,,,,,,,,,,,,,,,,,,,,,,,,,,,,,,,,,,,,,,,,
,,,,2,4.0771,,,,,,64,chocolate,garden,,90499,001,2022-04-29_14h11.48.618,SPAMnetsValid,2021.1.4,Win32,59.97001499,,,,,,,,,,,,,2,4.0771,0,95,95,14,1,,,,,,,,,,,,,,,,,,,,,,,,,,,,,,,,,,,,,,,,,,,,,,,,,,,,,,,,,,,,,,,,,,,,,,
,,,,6,7.4443,,,,,,38,pretzel,refrigerator,,90499,001,2022-04-29_14h11.48.618,SPAMnetsValid,2021.1.4,Win32,59.97001499,,,,,,,,,,,,,6,7.4443,0,96,96,71,1,,,,,,,,,,,,,,,,,,,,,,,,,,,,,,,,,,,,,,,,,,,,,,,,,,,,,,,,,,,,,,,,,,,,,,
,,,,,,,,,,,,,,,90499,001,2022-04-29_14h11.48.618,SPAMnetsValid,2021.1.4,Win32,59.97001499,,,,,,,,,,,,,,,,,,,,0,0,0,0,1,,,,,,,,,,,,,,,,,,,,,,,,,,,,,,,,,,,,,,,,,,,,,,,,,,,,,,,,,,,,,,,,,
,,,,,,,,,,,,,,,90499,001,2022-04-29_14h11.48.618,SPAMnetsValid,2021.1.4,Win32,59.97001499,,,,,,0,1,1,0,1,1,0,,,,,,,,,,,,,,,,,,,,,,,,,,,,,,,,,,,,,,,,,,,,,,,,,,,,,,,,,,,,,,,,,,,,,,,,,,,,,
,,,,,,,,,,,,,,,90499,001,2022-04-29_14h11.48.618,SPAMnetsValid,2021.1.4,Win32,59.97001499,,,,,,,,,,,,,,,,,,,,,,,,,3,6.4761,0,0,0,0,1,rancor,forbearance,ridicule,malice,bravery,3,,,,,,,,,,,,,,,,,,,,,,,,,,,,,,,,,,,,,,,,,,,,,,,,,,,,
,,,,,,,,,,,,,,,90499,001,2022-04-29_14h11.48.618,SPAMnetsValid,2021.1.4,Win32,59.97001499,,,,,,,,,,,,,,,,,,,,,,,,,4,3.4882,0,1,1,1,1,raucous,empty,quiet,smooth,harsh,4,,,,,,,,,,,,,,,,,,,,,,,,,,,,,,,,,,,,,,,,,,,,,,,,,,,,
,,,,,,,,,,,,,,,90499,001,2022-04-29_14h11.48.618,SPAMnetsValid,2021.1.4,Win32,59.97001499,,,,,,,,,,,,,,,,,,,,,,,,,4,3.2303,0,2,2,2,1,gargoyle,oil,medicine,carved waterspout,ugly building,3,,,,,,,,,,,,,,,,,,,,,,,,,,,,,,,,,,,,,,,,,,,,,,,,,,,,
,,,,,,,,,,,,,,,90499,001,2022-04-29_14h11.48.618,SPAMnetsValid,2021.1.4,Win32,59.97001499,,,,,,,,,,,,,,,,,,,,,,,,,4,11.4862,0,3,3,3,1,recrudesce,purify,renew activity,lack refinement,crush,2,,,,,,,,,,,,,,,,,,,,,,,,,,,,,,,,,,,,,,,,,,,,,,,,,,,,
,,,,,,,,,,,,,,,90499,001,2022-04-29_14h11.48.618,SPAMnetsValid,2021.1.4,Win32,59.97001499,,,,,,,,,,,,,,,,,,,,,,,,,3,4.6926,0,4,4,4,1,specious,"plausible, but not genuine",noteworthy,class or variety,roomy,1,,,,,,,,,,,,,,,,,,,,,,,,,,,,,,,,,,,,,,,,,,,,,,,,,,,,
,,,,,,,,,,,,,,,90499,001,2022-04-29_14h11.48.618,SPAMnetsValid,2021.1.4,Win32,59.97001499,,,,,,,,,,,,,,,,,,,,,,,,,2,15.1077,0,5,5,5,1,bauble,bubble,showy plaything,idle talk,confusion,2,,,,,,,,,,,,,,,,,,,,,,,,,,,,,,,,,,,,,,,,,,,,,,,,,,,,
,,,,,,,,,,,,,,,90499,001,2022-04-29_14h11.48.618,SPAMnetsValid,2021.1.4,Win32,59.97001499,,,,,,,,,,,,,,,,,,,,,,,,,2,4.8598,0,6,6,6,1,prolific,scarce,producing abundantly,reckless,speaking profanely,2,,,,,,,,,,,,,,,,,,,,,,,,,,,,,,,,,,,,,,,,,,,,,,,,,,,,
,,,,,,,,,,,,,,,90499,001,2022-04-29_14h11.48.618,SPAMnetsValid,2021.1.4,Win32,59.97001499,,,,,,,,,,,,,,,,,,,,,,,,,2,2.9157,0,7,7,7,1,opulent,party,wealthy,happy frame of mind,semiprecious stone,2,,,,,,,,,,,,,,,,,,,,,,,,,,,,,,,,,,,,,,,,,,,,,,,,,,,,
,,,,,,,,,,,,,,,90499,001,2022-04-29_14h11.48.618,SPAMnetsValid,2021.1.4,Win32,59.97001499,,,,,,,,,,,,,,,,,,,,,,,,,2,8.6314,0,8,8,8,1,coercion,conspiracy,strategy,restraint,attraction,3,,,,,,,,,,,,,,,,,,,,,,,,,,,,,,,,,,,,,,,,,,,,,,,,,,,,
,,,,,,,,,,,,,,,90499,001,2022-04-29_14h11.48.618,SPAMnetsValid,2021.1.4,Win32,59.97001499,,,,,,,,,,,,,,,,,,,,,,,,,4,2.2273,0,9,9,9,1,hiatus,animal,calamity,dread,gap,4,,,,,,,,,,,,,,,,,,,,,,,,,,,,,,,,,,,,,,,,,,,,,,,,,,,,
,,,,,,,,,,,,,,,90499,001,2022-04-29_14h11.48.618,SPAMnetsValid,2021.1.4,Win32,59.97001499,,,,,,,,,,,,,,,,,,,,,,,,,3,4.0522,0,10,10,10,1,germane,microbe,contagious,relevant,different,3,,,,,,,,,,,,,,,,,,,,,,,,,,,,,,,,,,,,,,,,,,,,,,,,,,,,
,,,,,,,,,,,,,,,90499,001,2022-04-29_14h11.48.618,SPAMnetsValid,2021.1.4,Win32,59.97001499,,,,,,,,,,,,,,,,,,,,,,,,,3,4.9479,0,11,11,11,1,perfunctory,fundamental,formal,superficial,careful,3,,,,,,,,,,,,,,,,,,,,,,,,,,,,,,,,,,,,,,,,,,,,,,,,,,,,
,,,,,,,,,,,,,,,90499,001,2022-04-29_14h11.48.618,SPAMnetsValid,2021.1.4,Win32,59.97001499,,,,,,,,,,,,,,,,,,,,,,,,,4,4.6078,0,12,12,12,1,diverge,reveal,chant,distract the attention of,differ or turn off from,4,,,,,,,,,,,,,,,,,,,,,,,,,,,,,,,,,,,,,,,,,,,,,,,,,,,,
,,,,,,,,,,,,,,,90499,001,2022-04-29_14h11.48.618,SPAMnetsValid,2021.1.4,Win32,59.97001499,,,,,,,,,,,,,,,,,,,,,,,,,4,7.129,0,13,13,13,1,evoke,take away,anger,connect,bring out,4,,,,,,,,,,,,,,,,,,,,,,,,,,,,,,,,,,,,,,,,,,,,,,,,,,,,
,,,,,,,,,,,,,,,90499,001,2022-04-29_14h11.48.618,SPAMnetsValid,2021.1.4,Win32,59.97001499,,,,,,,,,,,,,,,,,,,,,,,,,1,1.7024,0,14,14,14,1,pertinent,relevant,lying next to,necessary,bold,1,,,,,,,,,,,,,,,,,,,,,,,,,,,,,,,,,,,,,,,,,,,,,,,,,,,,
,,,,,,,,,,,,,,,90499,001,2022-04-29_14h11.48.618,SPAMnetsValid,2021.1.4,Win32,59.97001499,,,,,,,,,,,,,,,,,,,,,,,,,2,2.4477,0,15,15,15,1,holocaust,entirety,destruction,saintly,price,2,,,,,,,,,,,,,,,,,,,,,,,,,,,,,,,,,,,,,,,,,,,,,,,,,,,,
,,,,,,,,,,,,,,,90499,001,2022-04-29_14h11.48.618,SPAMnetsValid,2021.1.4,Win32,59.97001499,,,,,,,,,,,,,,,,,,,,,,,,,3,2.6761,0,16,16,16,1,piquant,mellow,fish,pungent,cloth,3,,,,,,,,,,,,,,,,,,,,,,,,,,,,,,,,,,,,,,,,,,,,,,,,,,,,
,,,,,,,,,,,,,,,90499,001,2022-04-29_14h11.48.618,SPAMnetsValid,2021.1.4,Win32,59.97001499,,,,,,,,,,,,,,,,,,,,,,,,,3,4.1454,0,17,17,17,1,firmament,foundation,heavens,strong,glue,2,,,,,,,,,,,,,,,,,,,,,,,,,,,,,,,,,,,,,,,,,,,,,,,,,,,,
,,,,,,,,,,,,,,,90499,001,2022-04-29_14h11.48.618,SPAMnetsValid,2021.1.4,Win32,59.97001499,,,,,,,,,,,,,,,,,,,,,,,,,,,,,,,,,,,,,,4,6.2426,0,0,0,0,1,marketable,partisan,jocular,marriageable,salable,essential,4,,,,,,,,,,,,,,,,,,,,,,,,,,,,,,,,,,,,,,
,,,,,,,,,,,,,,,90499,001,2022-04-29_14h11.48.618,SPAMnetsValid,2021.1.4,Win32,59.97001499,,,,,,,,,,,,,,,,,,,,,,,,,,,,,,,,,,,,,,5,4.654,0,1,1,1,1,cottontail,squirrel,poplar,boa,marshy plant,rabbit,5,,,,,,,,,,,,,,,,,,,,,,,,,,,,,,,,,,,,,,
,,,,,,,,,,,,,,,90499,001,2022-04-29_14h11.48.618,SPAMnetsValid,2021.1.4,Win32,59.97001499,,,,,,,,,,,,,,,,,,,,,,,,,,,,,,,,,,,,,,4,4.2225,0,2,2,2,1,boggy,afraid,false,marshy,dense,black,3,,,,,,,,,,,,,,,,,,,,,,,,,,,,,,,,,,,,,,
,,,,,,,,,,,,,,,90499,001,2022-04-29_14h11.48.618,SPAMnetsValid,2021.1.4,Win32,59.97001499,,,,,,,,,,,,,,,,,,,,,,,,,,,,,,,,,,,,,,5,8.4456,0,3,3,3,1,gruesomeness,blackness,falseness,vindictiveness,drunkenness,ghastliness,5,,,,,,,,,,,,,,,,,,,,,,,,,,,,,,,,,,,,,,
,,,,,,,,,,,,,,,90499,001,2022-04-29_14h11.48.618,SPAMnetsValid,2021.1.4,Win32,59.97001499,,,,,,,,,,,,,,,,,,,,,,,,,,,,,,,,,,,,,,3,2.153,0,4,4,4,1,loathing,diffidence,laziness,abhorrence,cleverness,comfort,3,,,,,,,,,,,,,,,,,,,,,,,,,,,,,,,,,,,,,,
,,,,,,,,,,,,,,,90499,001,2022-04-29_14h11.48.618,SPAMnetsValid,2021.1.4,Win32,59.97001499,,,,,,,,,,,,,,,,,,,,,,,,,,,,,,,,,,,,,,1,12.2803,0,5,5,5,1,bantam,fowl,ridicule,cripple,vegetable,ensign,1,,,,,,,,,,,,,,,,,,,,,,,,,,,,,,,,,,,,,,
,,,,,,,,,,,,,,,90499,001,2022-04-29_14h11.48.618,SPAMnetsValid,2021.1.4,Win32,59.97001499,,,,,,,,,,,,,,,,,,,,,,,,,,,,,,,,,,,,,,5,2.7681,0,6,6,6,1,evoke,wake up,surrender,reconnoiter,transcend,call forth,5,,,,,,,,,,,,,,,,,,,,,,,,,,,,,,,,,,,,,,
,,,,,,,,,,,,,,,90499,001,2022-04-29_14h11.48.618,SPAMnetsValid,2021.1.4,Win32,59.97001499,,,,,,,,,,,,,,,,,,,,,,,,,,,,,,,,,,,,,,5,3.7641,0,7,7,7,1,unobtrusive,unintelligent,epileptic,illogical,lineal,modest,5,,,,,,,,,,,,,,,,,,,,,,,,,,,,,,,,,,,,,,
,,,,,,,,,,,,,,,90499,001,2022-04-29_14h11.48.618,SPAMnetsValid,2021.1.4,Win32,59.97001499,,,,,,,,,,,,,,,,,,,,,,,,,,,,,,,,,,,,,,4,2.4329,0,8,8,8,1,terrain,ice cream,final test,tractor,area of ground,weight,4,,,,,,,,,,,,,,,,,,,,,,,,,,,,,,,,,,,,,,
,,,,,,,,,,,,,,,90499,001,2022-04-29_14h11.48.618,SPAMnetsValid,2021.1.4,Win32,59.97001499,,,,,,,,,,,,,,,,,,,,,,,,,,,,,,,,,,,,,,3,28.2347,0,9,9,9,1,capriciousness,stubbornness,courage,whimsicality,amazement,greediness,3,,,,,,,,,,,,,,,,,,,,,,,,,,,,,,,,,,,,,,
,,,,,,,,,,,,,,,90499,001,2022-04-29_14h11.48.618,SPAMnetsValid,2021.1.4,Win32,59.97001499,,,,,,,,,,,,,,,,,,,,,,,,,,,,,,,,,,,,,,2,4.0618,0,10,10,10,1,maelstrom,slander,whirlpool,enmity,armor,majolica,2,,,,,,,,,,,,,,,,,,,,,,,,,,,,,,,,,,,,,,
,,,,,,,,,,,,,,,90499,001,2022-04-29_14h11.48.618,SPAMnetsValid,2021.1.4,Win32,59.97001499,,,,,,,,,,,,,,,,,,,,,,,,,,,,,,,,,,,,,,5,4.6124,0,11,11,11,1,tentative,critical,conclusive,authentic,provisional,apprehensive,4,,,,,,,,,,,,,,,,,,,,,,,,,,,,,,,,,,,,,,
,,,,,,,,,,,,,,,90499,001,2022-04-29_14h11.48.618,SPAMnetsValid,2021.1.4,Win32,59.97001499,,,,,,,,,,,,,,,,,,,,,,,,,,,,,,,,,,,,,,4,4.4027,0,12,12,12,1,placate,rehabilitate,plagiarize,depredate,apprise,conciliate,5,,,,,,,,,,,,,,,,,,,,,,,,,,,,,,,,,,,,,,
,,,,,,,,,,,,,,,90499,001,2022-04-29_14h11.48.618,SPAMnetsValid,2021.1.4,Win32,59.97001499,,,,,,,,,,,,,,,,,,,,,,,,,,,,,,,,,,,,,,2,3.2125,0,13,13,13,1,surcease,enlightenment,cessation,inattention,censor,substitution,2,,,,,,,,,,,,,,,,,,,,,,,,,,,,,,,,,,,,,,
,,,,,,,,,,,,,,,90499,001,2022-04-29_14h11.48.618,SPAMnetsValid,2021.1.4,Win32,59.97001499,,,,,,,,,,,,,,,,,,,,,,,,,,,,,,,,,,,,,,2,3.736,0,14,14,14,1,apathetic,wandering,impassive,hateful,prophetic,overflowing,2,,,,,,,,,,,,,,,,,,,,,,,,,,,,,,,,,,,,,,
,,,,,,,,,,,,,,,90499,001,2022-04-29_14h11.48.618,SPAMnetsValid,2021.1.4,Win32,59.97001499,,,,,,,,,,,,,,,,,,,,,,,,,,,,,,,,,,,,,,3,4.9016,0,15,15,15,1,paternoster,paternalism,patricide,malediction,benediction,prayer,5,,,,,,,,,,,,,,,,,,,,,,,,,,,,,,,,,,,,,,
,,,,,,,,,,,,,,,90499,001,2022-04-29_14h11.48.618,SPAMnetsValid,2021.1.4,Win32,59.97001499,,,,,,,,,,,,,,,,,,,,,,,,,,,,,,,,,,,,,,,,0,16,16,16,1,opalescence,opulence,senescence,bankruptcy,iridescence,assiduity,4,,,,,,,,,,,,,,,,,,,,,,,,,,,,,,,,,,,,,,
,,,,,,,,,,,,,,,90499,001,2022-04-29_14h11.48.618,SPAMnetsValid,2021.1.4,Win32,59.97001499,,,,,,,,,,,,,,,,,,,,,,,,,,,,,,,,,,,,,,2,4.1447,0,17,17,17,1,lush,stupid,luxurious,hazy,putrid,languishing,2,,,,,,,,,,,,,,,,,,,,,,,,,,,,,,,,,,,,,,
,,,,,,,,,,,,,,,90499,001,2022-04-29_14h11.48.618,SPAMnetsValid,2021.1.4,Win32,59.97001499,,,,,,,,,,,,,,,,,,,,,,,,,,,,,,,,,,,,,,2,4.486,0,18,18,18,1,curtailment,expenditure,abandonment,abridgment,improvement,forgery,3,,,,,,,,,,,,,,,,,,,,,,,,,,,,,,,,,,,,,,
,,,,,,,,,,,,,,,90499,001,2022-04-29_14h11.48.618,SPAMnetsValid,2021.1.4,Win32,59.97001499,,,,,,,,,,,,,,,,,,,,,,,,,,,,,,,,,,,,,,1,5.5147,0,19,19,19,1,perversity,adversity,perviousness,travesty,waywardness,gentility,4,,,,,,,,,,,,,,,,,,,,,,,,,,,,,,,,,,,,,,
,,,,,,,,,,,,,,,90499,001,2022-04-29_14h11.48.618,SPAMnetsValid,2021.1.4,Win32,59.97001499,,,,,,,,,,,,,,,,,,,,,,,,,,,,,,,,,,,,,,4,8.6013,0,20,20,20,1,calumnious,complimentary,analogous,slanderous,tempestuous,magnanimous,3,,,,,,,,,,,,,,,,,,,,,,,,,,,,,,,,,,,,,,
,,,,,,,,,,,,,,,90499,001,2022-04-29_14h11.48.618,SPAMnetsValid,2021.1.4,Win32,59.97001499,,,,,,,,,,,,,,,,,,,,,,,,,,,,,,,,,,,,,,1,6.0124,0,21,21,21,1,illiberality,bigotry,imbecility,illegibility,cautery,immaturity,1,,,,,,,,,,,,,,,,,,,,,,,,,,,,,,,,,,,,,,
,,,,,,,,,,,,,,,90499,001,2022-04-29_14h11.48.618,SPAMnetsValid,2021.1.4,Win32,59.97001499,,,,,,,,,,,,,,,,,,,,,,,,,,,,,,,,,,,,,,5,3.3785,0,22,22,22,1,clabber,rejoice,gossip,curdle,crow,hobble,3,,,,,,,,,,,,,,,,,,,,,,,,,,,,,,,,,,,,,,
,,,,,,,,,,,,,,,90499,001,2022-04-29_14h11.48.618,SPAMnetsValid,2021.1.4,Win32,59.97001499,,,,,,,,,,,,,,,,,,,,,,,,,,,,,,,,,,,,,,5,10.6549,0,23,23,23,1,sedulousness,diligence,credulousness,seduction,perilousness,frankness,1,,,,,,,,,,,,,,,,,,,,,,,,,,,,,,,,,,,,,,
,,,,,,,,,,,,,,,90499,001,2022-04-29_14h11.48.618,SPAMnetsValid,2021.1.4,Win32,59.97001499,,,,,,,,,,,,,,,,,,,,,,,,,,,,,,,,,,,,,,,,,,,,,,,,,,,,hat,bucket,0,0,0,0,1,,,,,,,,,,,,,,,,,,,,,,,,,,,,,,,
,,,,,,,,,,,,,,,90499,001,2022-04-29_14h11.48.618,SPAMnetsValid,2021.1.4,Win32,59.97001499,,,,,,,,,,,,,,,,,,,,,,,,,,,,,,,,,,,,,,,,,,,,,,,,,,,,shield,bucket,1,0,1,0,1,,,,,,,,,,,,,,,,,,,,,,,,,,,,,,,
,,,,,,,,,,,,,,,90499,001,2022-04-29_14h11.48.618,SPAMnetsValid,2021.1.4,Win32,59.97001499,,,,,,,,,,,,,,,,,,,,,,,,,,,,,,,,,,,,,,,,,,,,,,,,,,,,helmet,bucket,2,0,2,0,1,,,,,,,,,,,,,,,,,,,,,,,,,,,,,,,
,,,,,,,,,,,,,,,90499,001,2022-04-29_14h11.48.618,SPAMnetsValid,2021.1.4,Win32,59.97001499,,,,,,,,,,,,,,,,,,,,,,,,,,,,,,,,,,,,,,,,,,,,,,,,,,,,weapon,bucket,3,0,3,0,1,,,,,,,,,,,,,,,,,,,,,,,,,,,,,,,
,,,,,,,,,,,,,,,90499,001,2022-04-29_14h11.48.618,SPAMnetsValid,2021.1.4,Win32,59.97001499,,,,,,,,,,,,,,,,,,,,,,,,,,,,,,,,,,,,,,,,,,,,,,,,,,,,rabbit trap,bucket,4,0,4,0,1,,,,,,,,,,,,,,,,,,,,,,,,,,,,,,,
,,,,,,,,,,,,,,,90499,001,2022-04-29_14h11.48.618,SPAMnetsValid,2021.1.4,Win32,59.97001499,,,,,,,,,,,,,,,,,,,,,,,,,,,,,,,,,,,,,,,,,,,,,,,,,,,,prank by putting it above slightly ajar door,bucket,5,0,5,0,1,,,,,,,,,,,,,,,,,,,,,,,,,,,,,,,
,,,,,,,,,,,,,,,90499,001,2022-04-29_14h11.48.618,SPAMnetsValid,2021.1.4,Win32,59.97001499,,,,,,,,,,,,,,,,,,,,,,,,,,,,,,,,,,,,,,,,,,,,,,,,,,,,stepping ladder/platform,bucket,6,0,6,0,1,,,,,,,,,,,,,,,,,,,,,,,,,,,,,,,
,,,,,,,,,,,,,,,90499,001,2022-04-29_14h11.48.618,SPAMnetsValid,2021.1.4,Win32,59.97001499,,,,,,,,,,,,,,,,,,,,,,,,,,,,,,,,,,,,,,,,,,,,,,,,,,,,prop,bucket,7,0,7,0,1,,,,,,,,,,,,,,,,,,,,,,,,,,,,,,,
,,,,,,,,,,,,,,,90499,001,2022-04-29_14h11.48.618,SPAMnetsValid,2021.1.4,Win32,59.97001499,,,,,,,,,,,,,,,,,,,,,,,,,,,,,,,,,,,,,,,,,,,,,,,,,,,,gift to a primitive people,bucket,8,0,8,0,1,,,,,,,,,,,,,,,,,,,,,,,,,,,,,,,
,,,,,,,,,,,,,,,90499,001,2022-04-29_14h11.48.618,SPAMnetsValid,2021.1.4,Win32,59.97001499,,,,,,,,,,,,,,,,,,,,,,,,,,,,,,,,,,,,,,,,,,,,,,,,,,,,,,,,,,,0,0,0,0,1,bucket,,,,,,,,,,,,,,,,,,,,,,,,,
,,,,,,,,,,,,,,,90499,001,2022-04-29_14h11.48.618,SPAMnetsValid,2021.1.4,Win32,59.97001499,,,,,,,,,,,,,,,,,,,,,,,,,,,,,,,,,,,,,,,,,,,,,,,,,,,,ebeneezer scrooge cosplay,candle,0,0,0,0,1,,,,,,,,,,,,,,,,,,,,,,,,,,,,,,,
,,,,,,,,,,,,,,,90499,001,2022-04-29_14h11.48.618,SPAMnetsValid,2021.1.4,Win32,59.97001499,,,,,,,,,,,,,,,,,,,,,,,,,,,,,,,,,,,,,,,,,,,,,,,,,,,,torture device,candle,1,0,1,0,1,,,,,,,,,,,,,,,,,,,,,,,,,,,,,,,
,,,,,,,,,,,,,,,90499,001,2022-04-29_14h11.48.618,SPAMnetsValid,2021.1.4,Win32,59.97001499,,,,,,,,,,,,,,,,,,,,,,,,,,,,,,,,,,,,,,,,,,,,,,,,,,,,to light something on fire,candle,2,0,2,0,1,,,,,,,,,,,,,,,,,,,,,,,,,,,,,,,
,,,,,,,,,,,,,,,90499,001,2022-04-29_14h11.48.618,SPAMnetsValid,2021.1.4,Win32,59.97001499,,,,,,,,,,,,,,,,,,,,,,,,,,,,,,,,,,,,,,,,,,,,,,,,,,,,as a timer,candle,3,0,3,0,1,,,,,,,,,,,,,,,,,,,,,,,,,,,,,,,
,,,,,,,,,,,,,,,90499,001,2022-04-29_14h11.48.618,SPAMnetsValid,2021.1.4,Win32,59.97001499,,,,,,,,,,,,,,,,,,,,,,,,,,,,,,,,,,,,,,,,,,,,,,,,,,,,light a fuse of dynamite,candle,4,0,4,0,1,,,,,,,,,,,,,,,,,,,,,,,,,,,,,,,
,,,,,,,,,,,,,,,90499,001,2022-04-29_14h11.48.618,SPAMnetsValid,2021.1.4,Win32,59.97001499,,,,,,,,,,,,,,,,,,,,,,,,,,,,,,,,,,,,,,,,,,,,,,,,,,,,subect of painting,candle,5,0,5,0,1,,,,,,,,,,,,,,,,,,,,,,,,,,,,,,,
,,,,,,,,,,,,,,,90499,001,2022-04-29_14h11.48.618,SPAMnetsValid,2021.1.4,Win32,59.97001499,,,,,,,,,,,,,,,,,,,,,,,,,,,,,,,,,,,,,,,,,,,,,,,,,,,,set off smoke detector,candle,6,0,6,0,1,,,,,,,,,,,,,,,,,,,,,,,,,,,,,,,
,,,,,,,,,,,,,,,90499,001,2022-04-29_14h11.48.618,SPAMnetsValid,2021.1.4,Win32,59.97001499,,,,,,,,,,,,,,,,,,,,,,,,,,,,,,,,,,,,,,,,,,,,,,,,,,,,,,,,,,,0,1,1,1,1,candle,,,,,,,,,,,,,,,,,,,,,,,,,
,,,,,,,,,,,,,,,90499,001,2022-04-29_14h11.48.618,SPAMnetsValid,2021.1.4,Win32,59.97001499,,,,,,,,,,,,,,,,,,,,,,,,,,,,,,,,,,,,,,,,,,,,,,,,,,,,as a silencer for a loud weapon,pillow,0,0,0,0,1,,,,,,,,,,,,,,,,,,,,,,,,,,,,,,,
,,,,,,,,,,,,,,,90499,001,2022-04-29_14h11.48.618,SPAMnetsValid,2021.1.4,Win32,59.97001499,,,,,,,,,,,,,,,,,,,,,,,,,,,,,,,,,,,,,,,,,,,,,,,,,,,,"to smother your uncle who has been in a coma for 2 years, but refuses to pass away. with his deat i would recieve a large inheritance",pillow,1,0,1,0,1,,,,,,,,,,,,,,,,,,,,,,,,,,,,,,,
,,,,,,,,,,,,,,,90499,001,2022-04-29_14h11.48.618,SPAMnetsValid,2021.1.4,Win32,59.97001499,,,,,,,,,,,,,,,,,,,,,,,,,,,,,,,,,,,,,,,,,,,,,,,,,,,,as a weapon in pillow fights,pillow,2,0,2,0,1,,,,,,,,,,,,,,,,,,,,,,,,,,,,,,,
,,,,,,,,,,,,,,,90499,001,2022-04-29_14h11.48.618,SPAMnetsValid,2021.1.4,Win32,59.97001499,,,,,,,,,,,,,,,,,,,,,,,,,,,,,,,,,,,,,,,,,,,,,,,,,,,,coushion to survive great heights,pillow,3,0,3,0,1,,,,,,,,,,,,,,,,,,,,,,,,,,,,,,,
,,,,,,,,,,,,,,,90499,001,2022-04-29_14h11.48.618,SPAMnetsValid,2021.1.4,Win32,59.97001499,,,,,,,,,,,,,,,,,,,,,,,,,,,,,,,,,,,,,,,,,,,,,,,,,,,,assistance to fornication,pillow,4,0,4,0,1,,,,,,,,,,,,,,,,,,,,,,,,,,,,,,,
,,,,,,,,,,,,,,,90499,001,2022-04-29_14h11.48.618,SPAMnetsValid,2021.1.4,Win32,59.97001499,,,,,,,,,,,,,,,,,,,,,,,,,,,,,,,,,,,,,,,,,,,,,,,,,,,,mop,pillow,5,0,5,0,1,,,,,,,,,,,,,,,,,,,,,,,,,,,,,,,
,,,,,,,,,,,,,,,90499,001,2022-04-29_14h11.48.618,SPAMnetsValid,2021.1.4,Win32,59.97001499,,,,,,,,,,,,,,,,,,,,,,,,,,,,,,,,,,,,,,,,,,,,,,,,,,,,,,,,,,,0,2,2,2,1,pillow,,,,,,,,,,,,,,,,,,,,,,,,,
,,,,,,,,,,,,,,,90499,001,2022-04-29_14h11.48.618,SPAMnetsValid,2021.1.4,Win32,59.97001499,,,,,,,,,,,,,,,,,,,,,,,,,,,,,,,,,,,,,,,,,,,,,,,,,,,,,,,,,,,,,,,,,dog,Animals,0,0,0,0,1,,,,,,,,,,,,,,,,,,
,,,,,,,,,,,,,,,90499,001,2022-04-29_14h11.48.618,SPAMnetsValid,2021.1.4,Win32,59.97001499,,,,,,,,,,,,,,,,,,,,,,,,,,,,,,,,,,,,,,,,,,,,,,,,,,,,,,,,,,,,,,,,,cat,Animals,1,0,1,0,1,,,,,,,,,,,,,,,,,,
,,,,,,,,,,,,,,,90499,001,2022-04-29_14h11.48.618,SPAMnetsValid,2021.1.4,Win32,59.97001499,,,,,,,,,,,,,,,,,,,,,,,,,,,,,,,,,,,,,,,,,,,,,,,,,,,,,,,,,,,,,,,,,elephant,Animals,2,0,2,0,1,,,,,,,,,,,,,,,,,,
,,,,,,,,,,,,,,,90499,001,2022-04-29_14h11.48.618,SPAMnetsValid,2021.1.4,Win32,59.97001499,,,,,,,,,,,,,,,,,,,,,,,,,,,,,,,,,,,,,,,,,,,,,,,,,,,,,,,,,,,,,,,,,squid,Animals,3,0,3,0,1,,,,,,,,,,,,,,,,,,
,,,,,,,,,,,,,,,90499,001,2022-04-29_14h11.48.618,SPAMnetsValid,2021.1.4,Win32,59.97001499,,,,,,,,,,,,,,,,,,,,,,,,,,,,,,,,,,,,,,,,,,,,,,,,,,,,,,,,,,,,,,,,,octopus,Animals,4,0,4,0,1,,,,,,,,,,,,,,,,,,
,,,,,,,,,,,,,,,90499,001,2022-04-29_14h11.48.618,SPAMnetsValid,2021.1.4,Win32,59.97001499,,,,,,,,,,,,,,,,,,,,,,,,,,,,,,,,,,,,,,,,,,,,,,,,,,,,,,,,,,,,,,,,,pufferfish,Animals,5,0,5,0,1,,,,,,,,,,,,,,,,,,
,,,,,,,,,,,,,,,90499,001,2022-04-29_14h11.48.618,SPAMnetsValid,2021.1.4,Win32,59.97001499,,,,,,,,,,,,,,,,,,,,,,,,,,,,,,,,,,,,,,,,,,,,,,,,,,,,,,,,,,,,,,,,,zebra,Animals,6,0,6,0,1,,,,,,,,,,,,,,,,,,
,,,,,,,,,,,,,,,90499,001,2022-04-29_14h11.48.618,SPAMnetsValid,2021.1.4,Win32,59.97001499,,,,,,,,,,,,,,,,,,,,,,,,,,,,,,,,,,,,,,,,,,,,,,,,,,,,,,,,,,,,,,,,,iguana,Animals,7,0,7,0,1,,,,,,,,,,,,,,,,,,
,,,,,,,,,,,,,,,90499,001,2022-04-29_14h11.48.618,SPAMnetsValid,2021.1.4,Win32,59.97001499,,,,,,,,,,,,,,,,,,,,,,,,,,,,,,,,,,,,,,,,,,,,,,,,,,,,,,,,,,,,,,,,,salamader,Animals,8,0,8,0,1,,,,,,,,,,,,,,,,,,
,,,,,,,,,,,,,,,90499,001,2022-04-29_14h11.48.618,SPAMnetsValid,2021.1.4,Win32,59.97001499,,,,,,,,,,,,,,,,,,,,,,,,,,,,,,,,,,,,,,,,,,,,,,,,,,,,,,,,,,,,,,,,,pelican,Animals,9,0,9,0,1,,,,,,,,,,,,,,,,,,
,,,,,,,,,,,,,,,90499,001,2022-04-29_14h11.48.618,SPAMnetsValid,2021.1.4,Win32,59.97001499,,,,,,,,,,,,,,,,,,,,,,,,,,,,,,,,,,,,,,,,,,,,,,,,,,,,,,,,,,,,,,,,,bluejay,Animals,10,0,10,0,1,,,,,,,,,,,,,,,,,,
,,,,,,,,,,,,,,,90499,001,2022-04-29_14h11.48.618,SPAMnetsValid,2021.1.4,Win32,59.97001499,,,,,,,,,,,,,,,,,,,,,,,,,,,,,,,,,,,,,,,,,,,,,,,,,,,,,,,,,,,,,,,,,robin,Animals,11,0,11,0,1,,,,,,,,,,,,,,,,,,
,,,,,,,,,,,,,,,90499,001,2022-04-29_14h11.48.618,SPAMnetsValid,2021.1.4,Win32,59.97001499,,,,,,,,,,,,,,,,,,,,,,,,,,,,,,,,,,,,,,,,,,,,,,,,,,,,,,,,,,,,,,,,,giraffe,Animals,12,0,12,0,1,,,,,,,,,,,,,,,,,,
,,,,,,,,,,,,,,,90499,001,2022-04-29_14h11.48.618,SPAMnetsValid,2021.1.4,Win32,59.97001499,,,,,,,,,,,,,,,,,,,,,,,,,,,,,,,,,,,,,,,,,,,,,,,,,,,,,,,,,,,,,,,,,rhino,Animals,13,0,13,0,1,,,,,,,,,,,,,,,,,,
,,,,,,,,,,,,,,,90499,001,2022-04-29_14h11.48.618,SPAMnetsValid,2021.1.4,Win32,59.97001499,,,,,,,,,,,,,,,,,,,,,,,,,,,,,,,,,,,,,,,,,,,,,,,,,,,,,,,,,,,,,,,,,hippo,Animals,14,0,14,0,1,,,,,,,,,,,,,,,,,,
,,,,,,,,,,,,,,,90499,001,2022-04-29_14h11.48.618,SPAMnetsValid,2021.1.4,Win32,59.97001499,,,,,,,,,,,,,,,,,,,,,,,,,,,,,,,,,,,,,,,,,,,,,,,,,,,,,,,,,,,,,,,,,snake,Animals,15,0,15,0,1,,,,,,,,,,,,,,,,,,
,,,,,,,,,,,,,,,90499,001,2022-04-29_14h11.48.618,SPAMnetsValid,2021.1.4,Win32,59.97001499,,,,,,,,,,,,,,,,,,,,,,,,,,,,,,,,,,,,,,,,,,,,,,,,,,,,,,,,,,,,,,,,,crocodile,Animals,16,0,16,0,1,,,,,,,,,,,,,,,,,,
,,,,,,,,,,,,,,,90499,001,2022-04-29_14h11.48.618,SPAMnetsValid,2021.1.4,Win32,59.97001499,,,,,,,,,,,,,,,,,,,,,,,,,,,,,,,,,,,,,,,,,,,,,,,,,,,,,,,,,,,,,,,,,alligator,Animals,17,0,17,0,1,,,,,,,,,,,,,,,,,,
,,,,,,,,,,,,,,,90499,001,2022-04-29_14h11.48.618,SPAMnetsValid,2021.1.4,Win32,59.97001499,,,,,,,,,,,,,,,,,,,,,,,,,,,,,,,,,,,,,,,,,,,,,,,,,,,,,,,,,,,,,,,,,garhmine,Animals,18,0,18,0,1,,,,,,,,,,,,,,,,,,
,,,,,,,,,,,,,,,90499,001,2022-04-29_14h11.48.618,SPAMnetsValid,2021.1.4,Win32,59.97001499,,,,,,,,,,,,,,,,,,,,,,,,,,,,,,,,,,,,,,,,,,,,,,,,,,,,,,,,,,,,,,,,,human,Animals,19,0,19,0,1,,,,,,,,,,,,,,,,,,
,,,,,,,,,,,,,,,90499,001,2022-04-29_14h11.48.618,SPAMnetsValid,2021.1.4,Win32,59.97001499,,,,,,,,,,,,,,,,,,,,,,,,,,,,,,,,,,,,,,,,,,,,,,,,,,,,,,,,,,,,,,,,,bat,Animals,20,0,20,0,1,,,,,,,,,,,,,,,,,,
,,,,,,,,,,,,,,,90499,001,2022-04-29_14h11.48.618,SPAMnetsValid,2021.1.4,Win32,59.97001499,,,,,,,,,,,,,,,,,,,,,,,,,,,,,,,,,,,,,,,,,,,,,,,,,,,,,,,,,,,,,,,,,trex,Animals,21,0,21,0,1,,,,,,,,,,,,,,,,,,
,,,,,,,,,,,,,,,90499,001,2022-04-29_14h11.48.618,SPAMnetsValid,2021.1.4,Win32,59.97001499,,,,,,,,,,,,,,,,,,,,,,,,,,,,,,,,,,,,,,,,,,,,,,,,,,,,,,,,,,,,,,,,,rat,Animals,22,0,22,0,1,,,,,,,,,,,,,,,,,,
,,,,,,,,,,,,,,,90499,001,2022-04-29_14h11.48.618,SPAMnetsValid,2021.1.4,Win32,59.97001499,,,,,,,,,,,,,,,,,,,,,,,,,,,,,,,,,,,,,,,,,,,,,,,,,,,,,,,,,,,,,,,,,mouse,Animals,23,0,23,0,1,,,,,,,,,,,,,,,,,,
,,,,,,,,,,,,,,,90499,001,2022-04-29_14h11.48.618,SPAMnetsValid,2021.1.4,Win32,59.97001499,,,,,,,,,,,,,,,,,,,,,,,,,,,,,,,,,,,,,,,,,,,,,,,,,,,,,,,,,,,,,,,,,spider,Animals,24,0,24,0,1,,,,,,,,,,,,,,,,,,
,,,,,,,,,,,,,,,90499,001,2022-04-29_14h11.48.618,SPAMnetsValid,2021.1.4,Win32,59.97001499,,,,,,,,,,,,,,,,,,,,,,,,,,,,,,,,,,,,,,,,,,,,,,,,,,,,,,,,,,,,,,,,,tarantula,Animals,25,0,25,0,1,,,,,,,,,,,,,,,,,,
,,,,,,,,,,,,,,,90499,001,2022-04-29_14h11.48.618,SPAMnetsValid,2021.1.4,Win32,59.97001499,,,,,,,,,,,,,,,,,,,,,,,,,,,,,,,,,,,,,,,,,,,,,,,,,,,,,,,,,,,,,,,,,kangaroo,Animals,26,0,26,0,1,,,,,,,,,,,,,,,,,,
,,,,,,,,,,,,,,,90499,001,2022-04-29_14h11.48.618,SPAMnetsValid,2021.1.4,Win32,59.97001499,,,,,,,,,,,,,,,,,,,,,,,,,,,,,,,,,,,,,,,,,,,,,,,,,,,,,,,,,,,,,,,,,shark,Animals,27,0,27,0,1,,,,,,,,,,,,,,,,,,
,,,,,,,,,,,,,,,90499,001,2022-04-29_14h11.48.618,SPAMnetsValid,2021.1.4,Win32,59.97001499,,,,,,,,,,,,,,,,,,,,,,,,,,,,,,,,,,,,,,,,,,,,,,,,,,,,,,,,,,,,,,,,,fish,Animals,28,0,28,0,1,,,,,,,,,,,,,,,,,,
,,,,,,,,,,,,,,,90499,001,2022-04-29_14h11.48.618,SPAMnetsValid,2021.1.4,Win32,59.97001499,,,,,,,,,,,,,,,,,,,,,,,,,,,,,,,,,,,,,,,,,,,,,,,,,,,,,,,,,,,,,,,,,co,Animals,29,0,29,0,1,,,,,,,,,,,,,,,,,,
,,,,,,,,,,,,,,,90499,001,2022-04-29_14h11.48.618,SPAMnetsValid,2021.1.4,Win32,59.97001499,,,,,,,,,,,,,,,,,,,,,,,,,,,,,,,,,,,,,,,,,,,,,,,,,,,,,,,,,,,,,,,,,cow,Animals,30,0,30,0,1,,,,,,,,,,,,,,,,,,
,,,,,,,,,,,,,,,90499,001,2022-04-29_14h11.48.618,SPAMnetsValid,2021.1.4,Win32,59.97001499,,,,,,,,,,,,,,,,,,,,,,,,,,,,,,,,,,,,,,,,,,,,,,,,,,,,,,,,,,,,,,,,,pig,Animals,31,0,31,0,1,,,,,,,,,,,,,,,,,,
,,,,,,,,,,,,,,,90499,001,2022-04-29_14h11.48.618,SPAMnetsValid,2021.1.4,Win32,59.97001499,,,,,,,,,,,,,,,,,,,,,,,,,,,,,,,,,,,,,,,,,,,,,,,,,,,,,,,,,,,,,,,,,chicken,Animals,32,0,32,0,1,,,,,,,,,,,,,,,,,,
,,,,,,,,,,,,,,,90499,001,2022-04-29_14h11.48.618,SPAMnetsValid,2021.1.4,Win32,59.97001499,,,,,,,,,,,,,,,,,,,,,,,,,,,,,,,,,,,,,,,,,,,,,,,,,,,,,,,,,,,,,,,,,g,Animals,33,0,33,0,1,,,,,,,,,,,,,,,,,,
,,,,,,,,,,,,,,,90499,001,2022-04-29_14h11.48.618,SPAMnetsValid,2021.1.4,Win32,59.97001499,,,,,,,,,,,,,,,,,,,,,,,,,,,,,,,,,,,,,,,,,,,,,,,,,,,,,,,,,,,,,,,,,,,,,,,,0,0,0,0,1,Animals,,,,,,,,,,,,
,,,,,,,,,,,,,,,90499,001,2022-04-29_14h11.48.618,SPAMnetsValid,2021.1.4,Win32,59.97001499,,,,,,,,,,,,,,,,,,,,,,,,,,,,,,,,,,,,,,,,,,,,,,,,,,,,,,,,,,,,,,,,,,,,,,,,,,,,,,5,9.1576,0,0,0,0,1,"I enjoy concentrating on a fantasy or daydream and exploring all its possibilities, letting it grow and develop.",0,1,,
,,,,,,,,,,,,,,,90499,001,2022-04-29_14h11.48.618,SPAMnetsValid,2021.1.4,Win32,59.97001499,,,,,,,,,,,,,,,,,,,,,,,,,,,,,,,,,,,,,,,,,,,,,,,,,,,,,,,,,,,,,,,,,,,,,,,,,,,,,,5,2.1633,0,1,1,1,1,I think it's interesting to learn and develop new hobbies.,0,2,,
,,,,,,,,,,,,,,,90499,001,2022-04-29_14h11.48.618,SPAMnetsValid,2021.1.4,Win32,59.97001499,,,,,,,,,,,,,,,,,,,,,,,,,,,,,,,,,,,,,,,,,,,,,,,,,,,,,,,,,,,,,,,,,,,,,,,,,,,,,,5,2.666,0,2,2,2,1,I am intrigued by the patterns I find in art and nature.,0,3,,
,,,,,,,,,,,,,,,90499,001,2022-04-29_14h11.48.618,SPAMnetsValid,2021.1.4,Win32,59.97001499,,,,,,,,,,,,,,,,,,,,,,,,,,,,,,,,,,,,,,,,,,,,,,,,,,,,,,,,,,,,,,,,,,,,,,,,,,,,,,1,3.8728,0,3,3,3,1,I believe letting students hear controversial speakers can only confuse and mislead them.,1,4,,
,,,,,,,,,,,,,,,90499,001,2022-04-29_14h11.48.618,SPAMnetsValid,2021.1.4,Win32,59.97001499,,,,,,,,,,,,,,,,,,,,,,,,,,,,,,,,,,,,,,,,,,,,,,,,,,,,,,,,,,,,,,,,,,,,,,,,,,,,,,1,1.6071,0,4,4,4,1,Poetry has little or no effect on me.,1,5,,
,,,,,,,,,,,,,,,90499,001,2022-04-29_14h11.48.618,SPAMnetsValid,2021.1.4,Win32,59.97001499,,,,,,,,,,,,,,,,,,,,,,,,,,,,,,,,,,,,,,,,,,,,,,,,,,,,,,,,,,,,,,,,,,,,,,,,,,,,,,2,4.476,0,5,5,5,1,I would have difficulty just letting my mind wander without control or guidance.,1,6,,
,,,,,,,,,,,,,,,90499,001,2022-04-29_14h11.48.618,SPAMnetsValid,2021.1.4,Win32,59.97001499,,,,,,,,,,,,,,,,,,,,,,,,,,,,,,,,,,,,,,,,,,,,,,,,,,,,,,,,,,,,,,,,,,,,,,,,,,,,,,4,3.9214,0,6,6,6,1,I seldom notice the moods or feelings that different environments produce.,1,7,,
,,,,,,,,,,,,,,,90499,001,2022-04-29_14h11.48.618,SPAMnetsValid,2021.1.4,Win32,59.97001499,,,,,,,,,,,,,,,,,,,,,,,,,,,,,,,,,,,,,,,,,,,,,,,,,,,,,,,,,,,,,,,,,,,,,,,,,,,,,,4,1.4241,0,7,7,7,1,I experience a wide range of emotions or feelings.,0,8,,
,,,,,,,,,,,,,,,90499,001,2022-04-29_14h11.48.618,SPAMnetsValid,2021.1.4,Win32,59.97001499,,,,,,,,,,,,,,,,,,,,,,,,,,,,,,,,,,,,,,,,,,,,,,,,,,,,,,,,,,,,,,,,,,,,,,,,,,,,,,5,2.993,0,8,8,8,1,"Sometimes when I am reading poetry or looking at a work of art, I feel a chill or wave of excitement.",0,9,,
,,,,,,,,,,,,,,,90499,001,2022-04-29_14h11.48.618,SPAMnetsValid,2021.1.4,Win32,59.97001499,,,,,,,,,,,,,,,,,,,,,,,,,,,,,,,,,,,,,,,,,,,,,,,,,,,,,,,,,,,,,,,,,,,,,,,,,,,,,,1,2.7144,0,9,9,9,1,I have little interest in speculating on the nature of the universe or the human condition.,1,10,,
,,,,,,,,,,,,,,,90499,001,2022-04-29_14h11.48.618,SPAMnetsValid,2021.1.4,Win32,59.97001499,,,,,,,,,,,,,,,,,,,,,,,,,,,,,,,,,,,,,,,,,,,,,,,,,,,,,,,,,,,,,,,,,,,,,,,,,,,,,,4,2.0552,0,10,10,10,1,I have a lot of intellectual curiosity.,0,11,,
,,,,,,,,,,,,,,,90499,001,2022-04-29_14h11.48.618,SPAMnetsValid,2021.1.4,Win32,59.97001499,,,,,,,,,,,,,,,,,,,,,,,,,,,,,,,,,,,,,,,,,,,,,,,,,,,,,,,,,,,,,,,,,,,,,,,,,,,,,,4,2.7815,0,11,11,11,1,I often enjoy playing with theories or abstract ideas.,0,12,,
,,,,,,,,,,,,,,,90499,001,2022-04-29_14h11.48.618,SPAMnetsValid,2021.1.4,Win32,59.97001499,,,,,,,,,,,,,,,,,,,,,,,,,,,,,,,,,,,,,,,,,,,,,,,,,,,,,,,,,,,,,,,,,,,,,,,,,,,,,,,,,,,,,,,,return,8.7191
