key_resp_3.keys,key_resp_3.rt,slider_2.response,slider_2.rt,rjt_rating,rjt_RT,trials_24.thisRepN,trials_24.thisTrialN,trials_24.thisN,trials_24.thisIndex,trials_24.ran,rjt_order,word1,word2,attention,participant,session,date,expName,psychopyVersion,OS,frameRate,trials_4.thisRepN,trials_4.thisTrialN,trials_4.thisN,trials_4.thisIndex,trials_4.ran,trials_5.thisRepN,trials_5.thisTrialN,trials_5.thisN,trials_5.thisIndex,trials_5.ran,repOne,repTwo,slider.response,slider.rt,trials_22.thisRepN,trials_22.thisTrialN,trials_22.thisN,trials_22.thisIndex,trials_22.ran,trials_99.thisRepN,trials_99.thisTrialN,trials_99.thisN,trials_99.thisIndex,trials_99.ran,slider_extend_2.response,slider_extend_2.rt,trials_6.thisRepN,trials_6.thisTrialN,trials_6.thisN,trials_6.thisIndex,trials_6.ran,vCue2,R1,R2,R3,R4,correct,sliderVocab.response,sliderVocab.rt,trials_7.thisRepN,trials_7.thisTrialN,trials_7.thisN,trials_7.thisIndex,trials_7.ran,VocabCue,VR1,VR2,VR3,VR4,VR5,VocabCorrect,AUT_resp,AUT_label,trials.thisRepN,trials.thisTrialN,trials.thisN,trials.thisIndex,trials.ran,trials_2.thisRepN,trials_2.thisTrialN,trials_2.thisN,trials_2.thisIndex,trials_2.ran,aut_prompt,VF_response,VF_tag,trials_16.thisRepN,trials_16.thisTrialN,trials_16.thisN,trials_16.thisIndex,trials_16.ran,trials_17.thisRepN,trials_17.thisTrialN,trials_17.thisN,trials_17.thisIndex,trials_17.ran,VFcond,open_slider.response,open_slider.rt,trials_3.thisRepN,trials_3.thisTrialN,trials_3.thisN,trials_3.thisIndex,trials_3.ran,OpenQ,Rev,OPEN_ORDER,key_resp_2.keys,key_resp_2.rt
return,13.719,2,2.9913,2,2.9913,0,0,0,31,1,156,melon,rose,,90498,002,2022-04-27_20h57.38.613,SPAMnetsValid,2021.1.4,Win32,60.50338819,,,,,,,,,,,,,,,,,,,,,,,,,,,,,,,,,,,,,,,,,,,,,,,,,,,,,,,,,,,,,,,,,,,,,,,,,,,,,,,,,,,,,,,,,
,,2,3.5731,2,3.5731,0,1,1,16,1,111,carrot,microwave,,90498,002,2022-04-27_20h57.38.613,SPAMnetsValid,2021.1.4,Win32,60.50338819,,,,,,,,,,,,,,,,,,,,,,,,,,,,,,,,,,,,,,,,,,,,,,,,,,,,,,,,,,,,,,,,,,,,,,,,,,,,,,,,,,,,,,,,,
,,1,1.8571,1,1.8571,0,2,2,68,1,180,tree,yogurt,,90498,002,2022-04-27_20h57.38.613,SPAMnetsValid,2021.1.4,Win32,60.50338819,,,,,,,,,,,,,,,,,,,,,,,,,,,,,,,,,,,,,,,,,,,,,,,,,,,,,,,,,,,,,,,,,,,,,,,,,,,,,,,,,,,,,,,,,
,,3,2.1806,3,2.1806,0,3,3,76,1,102,chocolate,refrigerator,,90498,002,2022-04-27_20h57.38.613,SPAMnetsValid,2021.1.4,Win32,60.50338819,,,,,,,,,,,,,,,,,,,,,,,,,,,,,,,,,,,,,,,,,,,,,,,,,,,,,,,,,,,,,,,,,,,,,,,,,,,,,,,,,,,,,,,,,
,,2,2.1099,2,2.1099,0,4,4,80,1,146,pretzel,tree,,90498,002,2022-04-27_20h57.38.613,SPAMnetsValid,2021.1.4,Win32,60.50338819,,,,,,,,,,,,,,,,,,,,,,,,,,,,,,,,,,,,,,,,,,,,,,,,,,,,,,,,,,,,,,,,,,,,,,,,,,,,,,,,,,,,,,,,,
,,5,5.8908,5,5.8908,0,5,5,91,1,166,cake,yogurt,,90498,002,2022-04-27_20h57.38.613,SPAMnetsValid,2021.1.4,Win32,60.50338819,,,,,,,,,,,,,,,,,,,,,,,,,,,,,,,,,,,,,,,,,,,,,,,,,,,,,,,,,,,,,,,,,,,,,,,,,,,,,,,,,,,,,,,,,
,,1,2.5331,1,2.5331,0,6,6,54,1,101,cactus,kitchen,,90498,002,2022-04-27_20h57.38.613,SPAMnetsValid,2021.1.4,Win32,60.50338819,,,,,,,,,,,,,,,,,,,,,,,,,,,,,,,,,,,,,,,,,,,,,,,,,,,,,,,,,,,,,,,,,,,,,,,,,,,,,,,,,,,,,,,,,
,,2,2.9575,2,2.9575,0,7,7,19,1,183,cake,rose,,90498,002,2022-04-27_20h57.38.613,SPAMnetsValid,2021.1.4,Win32,60.50338819,,,,,,,,,,,,,,,,,,,,,,,,,,,,,,,,,,,,,,,,,,,,,,,,,,,,,,,,,,,,,,,,,,,,,,,,,,,,,,,,,,,,,,,,,
,,4,3.2717,4,3.2717,0,8,8,28,1,154,strawberry,yogurt,,90498,002,2022-04-27_20h57.38.613,SPAMnetsValid,2021.1.4,Win32,60.50338819,,,,,,,,,,,,,,,,,,,,,,,,,,,,,,,,,,,,,,,,,,,,,,,,,,,,,,,,,,,,,,,,,,,,,,,,,,,,,,,,,,,,,,,,,
,,1,2.8139,1,2.8139,0,9,9,75,1,178,cactus,carrot,,90498,002,2022-04-27_20h57.38.613,SPAMnetsValid,2021.1.4,Win32,60.50338819,,,,,,,,,,,,,,,,,,,,,,,,,,,,,,,,,,,,,,,,,,,,,,,,,,,,,,,,,,,,,,,,,,,,,,,,,,,,,,,,,,,,,,,,,
,,2,2.0229,2,2.0229,0,10,10,23,1,148,flower,melon,,90498,002,2022-04-27_20h57.38.613,SPAMnetsValid,2021.1.4,Win32,60.50338819,,,,,,,,,,,,,,,,,,,,,,,,,,,,,,,,,,,,,,,,,,,,,,,,,,,,,,,,,,,,,,,,,,,,,,,,,,,,,,,,,,,,,,,,,
,,3,3.3111,3,3.3111,0,11,11,95,1,121,broom,microwave,,90498,002,2022-04-27_20h57.38.613,SPAMnetsValid,2021.1.4,Win32,60.50338819,,,,,,,,,,,,,,,,,,,,,,,,,,,,,,,,,,,,,,,,,,,,,,,,,,,,,,,,,,,,,,,,,,,,,,,,,,,,,,,,,,,,,,,,,
,,2,20.8399,2,20.8399,0,12,12,21,1,159,cookie,flower,,90498,002,2022-04-27_20h57.38.613,SPAMnetsValid,2021.1.4,Win32,60.50338819,,,,,,,,,,,,,,,,,,,,,,,,,,,,,,,,,,,,,,,,,,,,,,,,,,,,,,,,,,,,,,,,,,,,,,,,,,,,,,,,,,,,,,,,,
,,2,8.5712,2,8.5712,0,13,13,96,1,136,chocolate,microwave,,90498,002,2022-04-27_20h57.38.613,SPAMnetsValid,2021.1.4,Win32,60.50338819,,,,,,,,,,,,,,,,,,,,,,,,,,,,,,,,,,,,,,,,,,,,,,,,,,,,,,,,,,,,,,,,,,,,,,,,,,,,,,,,,,,,,,,,,
,,1,1.806,1,1.806,0,14,14,63,1,137,microwave,tree,,90498,002,2022-04-27_20h57.38.613,SPAMnetsValid,2021.1.4,Win32,60.50338819,,,,,,,,,,,,,,,,,,,,,,,,,,,,,,,,,,,,,,,,,,,,,,,,,,,,,,,,,,,,,,,,,,,,,,,,,,,,,,,,,,,,,,,,,
,,5,101.2917,5,101.2917,0,15,15,41,1,175,melon,onion,,90498,002,2022-04-27_20h57.38.613,SPAMnetsValid,2021.1.4,Win32,60.50338819,,,,,,,,,,,,,,,,,,,,,,,,,,,,,,,,,,,,,,,,,,,,,,,,,,,,,,,,,,,,,,,,,,,,,,,,,,,,,,,,,,,,,,,,,
,,5,142.9735,5,142.9735,0,16,16,88,1,171,cake,tomato,,90498,002,2022-04-27_20h57.38.613,SPAMnetsValid,2021.1.4,Win32,60.50338819,,,,,,,,,,,,,,,,,,,,,,,,,,,,,,,,,,,,,,,,,,,,,,,,,,,,,,,,,,,,,,,,,,,,,,,,,,,,,,,,,,,,,,,,,
,,4,41.5057,4,41.5057,0,17,17,45,1,179,broom,oven,,90498,002,2022-04-27_20h57.38.613,SPAMnetsValid,2021.1.4,Win32,60.50338819,,,,,,,,,,,,,,,,,,,,,,,,,,,,,,,,,,,,,,,,,,,,,,,,,,,,,,,,,,,,,,,,,,,,,,,,,,,,,,,,,,,,,,,,,
,,5,18.7516,5,18.7516,0,18,18,29,1,163,melon,refrigerator,,90498,002,2022-04-27_20h57.38.613,SPAMnetsValid,2021.1.4,Win32,60.50338819,,,,,,,,,,,,,,,,,,,,,,,,,,,,,,,,,,,,,,,,,,,,,,,,,,,,,,,,,,,,,,,,,,,,,,,,,,,,,,,,,,,,,,,,,
,,6,9.6989,6,9.6989,0,19,19,22,1,142,garden,tree,,90498,002,2022-04-27_20h57.38.613,SPAMnetsValid,2021.1.4,Win32,60.50338819,,,,,,,,,,,,,,,,,,,,,,,,,,,,,,,,,,,,,,,,,,,,,,,,,,,,,,,,,,,,,,,,,,,,,,,,,,,,,,,,,,,,,,,,,
,,5,2.6418,5,2.6418,0,20,20,35,1,147,cake,refrigerator,,90498,002,2022-04-27_20h57.38.613,SPAMnetsValid,2021.1.4,Win32,60.50338819,,,,,,,,,,,,,,,,,,,,,,,,,,,,,,,,,,,,,,,,,,,,,,,,,,,,,,,,,,,,,,,,,,,,,,,,,,,,,,,,,,,,,,,,,
,,2,12.1752,2,12.1752,0,21,21,10,1,118,chocolate,oven,,90498,002,2022-04-27_20h57.38.613,SPAMnetsValid,2021.1.4,Win32,60.50338819,,,,,,,,,,,,,,,,,,,,,,,,,,,,,,,,,,,,,,,,,,,,,,,,,,,,,,,,,,,,,,,,,,,,,,,,,,,,,,,,,,,,,,,,,
,,4,3.0475,4,3.0475,0,22,22,39,1,112,cake,carrot,,90498,002,2022-04-27_20h57.38.613,SPAMnetsValid,2021.1.4,Win32,60.50338819,,,,,,,,,,,,,,,,,,,,,,,,,,,,,,,,,,,,,,,,,,,,,,,,,,,,,,,,,,,,,,,,,,,,,,,,,,,,,,,,,,,,,,,,,
,,1,2.3932,1,2.3932,0,23,23,49,1,152,cactus,strawberry,,90498,002,2022-04-27_20h57.38.613,SPAMnetsValid,2021.1.4,Win32,60.50338819,,,,,,,,,,,,,,,,,,,,,,,,,,,,,,,,,,,,,,,,,,,,,,,,,,,,,,,,,,,,,,,,,,,,,,,,,,,,,,,,,,,,,,,,,
,,2,1.6253,2,1.6253,0,24,24,0,1,106,cake,strawberry,,90498,002,2022-04-27_20h57.38.613,SPAMnetsValid,2021.1.4,Win32,60.50338819,,,,,,,,,,,,,,,,,,,,,,,,,,,,,,,,,,,,,,,,,,,,,,,,,,,,,,,,,,,,,,,,,,,,,,,,,,,,,,,,,,,,,,,,,
,,1,84.935,1,84.935,0,25,25,3,1,129,cactus,refrigerator,,90498,002,2022-04-27_20h57.38.613,SPAMnetsValid,2021.1.4,Win32,60.50338819,,,,,,,,,,,,,,,,,,,,,,,,,,,,,,,,,,,,,,,,,,,,,,,,,,,,,,,,,,,,,,,,,,,,,,,,,,,,,,,,,,,,,,,,,
,,2,2.0438,2,2.0438,0,26,26,20,1,149,broom,tomato,,90498,002,2022-04-27_20h57.38.613,SPAMnetsValid,2021.1.4,Win32,60.50338819,,,,,,,,,,,,,,,,,,,,,,,,,,,,,,,,,,,,,,,,,,,,,,,,,,,,,,,,,,,,,,,,,,,,,,,,,,,,,,,,,,,,,,,,,
,,6,4.1928,6,4.1928,0,27,27,26,1,107,rose,tomato,,90498,002,2022-04-27_20h57.38.613,SPAMnetsValid,2021.1.4,Win32,60.50338819,,,,,,,,,,,,,,,,,,,,,,,,,,,,,,,,,,,,,,,,,,,,,,,,,,,,,,,,,,,,,,,,,,,,,,,,,,,,,,,,,,,,,,,,,
,,8,1.9844,8,1.9844,0,28,28,61,1,138,flower,rose,,90498,002,2022-04-27_20h57.38.613,SPAMnetsValid,2021.1.4,Win32,60.50338819,,,,,,,,,,,,,,,,,,,,,,,,,,,,,,,,,,,,,,,,,,,,,,,,,,,,,,,,,,,,,,,,,,,,,,,,,,,,,,,,,,,,,,,,,
,,4,2.5892,4,2.5892,0,29,29,74,1,128,melon,microwave,,90498,002,2022-04-27_20h57.38.613,SPAMnetsValid,2021.1.4,Win32,60.50338819,,,,,,,,,,,,,,,,,,,,,,,,,,,,,,,,,,,,,,,,,,,,,,,,,,,,,,,,,,,,,,,,,,,,,,,,,,,,,,,,,,,,,,,,,
,,1,6.3618,1,6.3618,0,30,30,13,1,105,cactus,oven,,90498,002,2022-04-27_20h57.38.613,SPAMnetsValid,2021.1.4,Win32,60.50338819,,,,,,,,,,,,,,,,,,,,,,,,,,,,,,,,,,,,,,,,,,,,,,,,,,,,,,,,,,,,,,,,,,,,,,,,,,,,,,,,,,,,,,,,,
,,7,2.618,7,2.618,0,31,31,66,1,150,microwave,refrigerator,,90498,002,2022-04-27_20h57.38.613,SPAMnetsValid,2021.1.4,Win32,60.50338819,,,,,,,,,,,,,,,,,,,,,,,,,,,,,,,,,,,,,,,,,,,,,,,,,,,,,,,,,,,,,,,,,,,,,,,,,,,,,,,,,,,,,,,,,
,,6,5.7534,6,5.7534,0,32,32,5,1,108,carrot,chocolate,,90498,002,2022-04-27_20h57.38.613,SPAMnetsValid,2021.1.4,Win32,60.50338819,,,,,,,,,,,,,,,,,,,,,,,,,,,,,,,,,,,,,,,,,,,,,,,,,,,,,,,,,,,,,,,,,,,,,,,,,,,,,,,,,,,,,,,,,
,,6,1.0484,6,1.0484,0,33,33,38,1,155,carrot,cookie,,90498,002,2022-04-27_20h57.38.613,SPAMnetsValid,2021.1.4,Win32,60.50338819,,,,,,,,,,,,,,,,,,,,,,,,,,,,,,,,,,,,,,,,,,,,,,,,,,,,,,,,,,,,,,,,,,,,,,,,,,,,,,,,,,,,,,,,,
,,4,9.5698,4,9.5698,0,34,34,1,1,173,kitchen,tomato,,90498,002,2022-04-27_20h57.38.613,SPAMnetsValid,2021.1.4,Win32,60.50338819,,,,,,,,,,,,,,,,,,,,,,,,,,,,,,,,,,,,,,,,,,,,,,,,,,,,,,,,,,,,,,,,,,,,,,,,,,,,,,,,,,,,,,,,,
,,4,0.9444,4,0.9444,0,35,35,70,1,141,melon,tomato,,90498,002,2022-04-27_20h57.38.613,SPAMnetsValid,2021.1.4,Win32,60.50338819,,,,,,,,,,,,,,,,,,,,,,,,,,,,,,,,,,,,,,,,,,,,,,,,,,,,,,,,,,,,,,,,,,,,,,,,,,,,,,,,,,,,,,,,,
,,4,3.8787,4,3.8787,0,36,36,77,1,172,kitchen,melon,,90498,002,2022-04-27_20h57.38.613,SPAMnetsValid,2021.1.4,Win32,60.50338819,,,,,,,,,,,,,,,,,,,,,,,,,,,,,,,,,,,,,,,,,,,,,,,,,,,,,,,,,,,,,,,,,,,,,,,,,,,,,,,,,,,,,,,,,
,,7,4.6452,7,4.6452,0,37,37,7,1,188,flower,tree,,90498,002,2022-04-27_20h57.38.613,SPAMnetsValid,2021.1.4,Win32,60.50338819,,,,,,,,,,,,,,,,,,,,,,,,,,,,,,,,,,,,,,,,,,,,,,,,,,,,,,,,,,,,,,,,,,,,,,,,,,,,,,,,,,,,,,,,,
,,2,15.3564,2,15.3564,0,38,38,4,1,109,broom,strawberry,,90498,002,2022-04-27_20h57.38.613,SPAMnetsValid,2021.1.4,Win32,60.50338819,,,,,,,,,,,,,,,,,,,,,,,,,,,,,,,,,,,,,,,,,,,,,,,,,,,,,,,,,,,,,,,,,,,,,,,,,,,,,,,,,,,,,,,,,
,,3,1.4457,3,1.4457,0,39,39,56,1,113,refrigerator,strawberry,,90498,002,2022-04-27_20h57.38.613,SPAMnetsValid,2021.1.4,Win32,60.50338819,,,,,,,,,,,,,,,,,,,,,,,,,,,,,,,,,,,,,,,,,,,,,,,,,,,,,,,,,,,,,,,,,,,,,,,,,,,,,,,,,,,,,,,,,
,,8,91.3187,8,91.3187,0,40,40,14,1,120,microwave,oven,,90498,002,2022-04-27_20h57.38.613,SPAMnetsValid,2021.1.4,Win32,60.50338819,,,,,,,,,,,,,,,,,,,,,,,,,,,,,,,,,,,,,,,,,,,,,,,,,,,,,,,,,,,,,,,,,,,,,,,,,,,,,,,,,,,,,,,,,
,,9,1.7715,9,1.7715,0,41,41,25,1,194,cactus,cactus,CHECK,90498,002,2022-04-27_20h57.38.613,SPAMnetsValid,2021.1.4,Win32,60.50338819,,,,,,,,,,,,,,,,,,,,,,,,,,,,,,,,,,,,,,,,,,,,,,,,,,,,,,,,,,,,,,,,,,,,,,,,,,,,,,,,,,,,,,,,,
,,7,1.7064,7,1.7064,0,42,42,44,1,116,cake,chocolate,,90498,002,2022-04-27_20h57.38.613,SPAMnetsValid,2021.1.4,Win32,60.50338819,,,,,,,,,,,,,,,,,,,,,,,,,,,,,,,,,,,,,,,,,,,,,,,,,,,,,,,,,,,,,,,,,,,,,,,,,,,,,,,,,,,,,,,,,
,,1,3.3485,1,3.3485,0,43,43,50,1,126,kitchen,tree,,90498,002,2022-04-27_20h57.38.613,SPAMnetsValid,2021.1.4,Win32,60.50338819,,,,,,,,,,,,,,,,,,,,,,,,,,,,,,,,,,,,,,,,,,,,,,,,,,,,,,,,,,,,,,,,,,,,,,,,,,,,,,,,,,,,,,,,,
,,4,5.7998,4,5.7998,0,44,44,85,1,115,refrigerator,tomato,,90498,002,2022-04-27_20h57.38.613,SPAMnetsValid,2021.1.4,Win32,60.50338819,,,,,,,,,,,,,,,,,,,,,,,,,,,,,,,,,,,,,,,,,,,,,,,,,,,,,,,,,,,,,,,,,,,,,,,,,,,,,,,,,,,,,,,,,
,,3,3.3567,3,3.3567,0,45,45,46,1,123,cookie,tree,,90498,002,2022-04-27_20h57.38.613,SPAMnetsValid,2021.1.4,Win32,60.50338819,,,,,,,,,,,,,,,,,,,,,,,,,,,,,,,,,,,,,,,,,,,,,,,,,,,,,,,,,,,,,,,,,,,,,,,,,,,,,,,,,,,,,,,,,
,,4,66.2904,4,66.2904,0,46,46,94,1,133,cake,flower,,90498,002,2022-04-27_20h57.38.613,SPAMnetsValid,2021.1.4,Win32,60.50338819,,,,,,,,,,,,,,,,,,,,,,,,,,,,,,,,,,,,,,,,,,,,,,,,,,,,,,,,,,,,,,,,,,,,,,,,,,,,,,,,,,,,,,,,,
,,3,2.1705,3,2.1705,0,47,47,48,1,186,kitchen,yogurt,,90498,002,2022-04-27_20h57.38.613,SPAMnetsValid,2021.1.4,Win32,60.50338819,,,,,,,,,,,,,,,,,,,,,,,,,,,,,,,,,,,,,,,,,,,,,,,,,,,,,,,,,,,,,,,,,,,,,,,,,,,,,,,,,,,,,,,,,
,,2,3.7964,2,3.7964,0,48,48,9,1,176,cactus,tomato,,90498,002,2022-04-27_20h57.38.613,SPAMnetsValid,2021.1.4,Win32,60.50338819,,,,,,,,,,,,,,,,,,,,,,,,,,,,,,,,,,,,,,,,,,,,,,,,,,,,,,,,,,,,,,,,,,,,,,,,,,,,,,,,,,,,,,,,,
,,7,122.951,7,122.951,0,49,49,34,1,153,carrot,pretzel,,90498,002,2022-04-27_20h57.38.613,SPAMnetsValid,2021.1.4,Win32,60.50338819,,,,,,,,,,,,,,,,,,,,,,,,,,,,,,,,,,,,,,,,,,,,,,,,,,,,,,,,,,,,,,,,,,,,,,,,,,,,,,,,,,,,,,,,,
,,7,2.4265,7,2.4265,0,50,50,53,1,177,chocolate,strawberry,,90498,002,2022-04-27_20h57.38.613,SPAMnetsValid,2021.1.4,Win32,60.50338819,,,,,,,,,,,,,,,,,,,,,,,,,,,,,,,,,,,,,,,,,,,,,,,,,,,,,,,,,,,,,,,,,,,,,,,,,,,,,,,,,,,,,,,,,
,,5,4.7745,5,4.7745,0,51,51,6,1,151,microwave,onion,,90498,002,2022-04-27_20h57.38.613,SPAMnetsValid,2021.1.4,Win32,60.50338819,,,,,,,,,,,,,,,,,,,,,,,,,,,,,,,,,,,,,,,,,,,,,,,,,,,,,,,,,,,,,,,,,,,,,,,,,,,,,,,,,,,,,,,,,
,,4,54.7297,4,54.7297,0,52,52,89,1,140,cookie,refrigerator,,90498,002,2022-04-27_20h57.38.613,SPAMnetsValid,2021.1.4,Win32,60.50338819,,,,,,,,,,,,,,,,,,,,,,,,,,,,,,,,,,,,,,,,,,,,,,,,,,,,,,,,,,,,,,,,,,,,,,,,,,,,,,,,,,,,,,,,,
,,1,1.4874,1,1.4874,0,53,53,15,1,145,cactus,yogurt,,90498,002,2022-04-27_20h57.38.613,SPAMnetsValid,2021.1.4,Win32,60.50338819,,,,,,,,,,,,,,,,,,,,,,,,,,,,,,,,,,,,,,,,,,,,,,,,,,,,,,,,,,,,,,,,,,,,,,,,,,,,,,,,,,,,,,,,,
,,9,1.5123,9,1.5123,0,54,54,86,1,193,melon,melon,CHECK,90498,002,2022-04-27_20h57.38.613,SPAMnetsValid,2021.1.4,Win32,60.50338819,,,,,,,,,,,,,,,,,,,,,,,,,,,,,,,,,,,,,,,,,,,,,,,,,,,,,,,,,,,,,,,,,,,,,,,,,,,,,,,,,,,,,,,,,
,,6,4.9173,6,4.9173,0,55,55,24,1,169,onion,yogurt,,90498,002,2022-04-27_20h57.38.613,SPAMnetsValid,2021.1.4,Win32,60.50338819,,,,,,,,,,,,,,,,,,,,,,,,,,,,,,,,,,,,,,,,,,,,,,,,,,,,,,,,,,,,,,,,,,,,,,,,,,,,,,,,,,,,,,,,,
,,4,37.3187,4,37.3187,0,56,56,92,1,170,cookie,microwave,,90498,002,2022-04-27_20h57.38.613,SPAMnetsValid,2021.1.4,Win32,60.50338819,,,,,,,,,,,,,,,,,,,,,,,,,,,,,,,,,,,,,,,,,,,,,,,,,,,,,,,,,,,,,,,,,,,,,,,,,,,,,,,,,,,,,,,,,
,,6,2.6237,6,2.6237,0,57,57,47,1,167,carrot,garden,,90498,002,2022-04-27_20h57.38.613,SPAMnetsValid,2021.1.4,Win32,60.50338819,,,,,,,,,,,,,,,,,,,,,,,,,,,,,,,,,,,,,,,,,,,,,,,,,,,,,,,,,,,,,,,,,,,,,,,,,,,,,,,,,,,,,,,,,
,,2,1.6321,2,1.6321,0,58,58,73,1,135,carrot,oven,,90498,002,2022-04-27_20h57.38.613,SPAMnetsValid,2021.1.4,Win32,60.50338819,,,,,,,,,,,,,,,,,,,,,,,,,,,,,,,,,,,,,,,,,,,,,,,,,,,,,,,,,,,,,,,,,,,,,,,,,,,,,,,,,,,,,,,,,
,,6,8.5312,6,8.5312,0,59,59,82,1,98,pretzel,strawberry,,90498,002,2022-04-27_20h57.38.613,SPAMnetsValid,2021.1.4,Win32,60.50338819,,,,,,,,,,,,,,,,,,,,,,,,,,,,,,,,,,,,,,,,,,,,,,,,,,,,,,,,,,,,,,,,,,,,,,,,,,,,,,,,,,,,,,,,,
,,3,54.3485,3,54.3485,0,60,60,32,1,182,flower,refrigerator,,90498,002,2022-04-27_20h57.38.613,SPAMnetsValid,2021.1.4,Win32,60.50338819,,,,,,,,,,,,,,,,,,,,,,,,,,,,,,,,,,,,,,,,,,,,,,,,,,,,,,,,,,,,,,,,,,,,,,,,,,,,,,,,,,,,,,,,,
,,8,3.0547,8,3.0547,0,61,61,69,1,124,oven,refrigerator,,90498,002,2022-04-27_20h57.38.613,SPAMnetsValid,2021.1.4,Win32,60.50338819,,,,,,,,,,,,,,,,,,,,,,,,,,,,,,,,,,,,,,,,,,,,,,,,,,,,,,,,,,,,,,,,,,,,,,,,,,,,,,,,,,,,,,,,,
,,3,2.4027,3,2.4027,0,62,62,59,1,164,cookie,garden,,90498,002,2022-04-27_20h57.38.613,SPAMnetsValid,2021.1.4,Win32,60.50338819,,,,,,,,,,,,,,,,,,,,,,,,,,,,,,,,,,,,,,,,,,,,,,,,,,,,,,,,,,,,,,,,,,,,,,,,,,,,,,,,,,,,,,,,,
,,3,9.4455,3,9.4455,0,63,63,12,1,162,microwave,tomato,,90498,002,2022-04-27_20h57.38.613,SPAMnetsValid,2021.1.4,Win32,60.50338819,,,,,,,,,,,,,,,,,,,,,,,,,,,,,,,,,,,,,,,,,,,,,,,,,,,,,,,,,,,,,,,,,,,,,,,,,,,,,,,,,,,,,,,,,
,,4,104.6004,4,104.6004,0,64,64,65,1,160,cookie,kitchen,,90498,002,2022-04-27_20h57.38.613,SPAMnetsValid,2021.1.4,Win32,60.50338819,,,,,,,,,,,,,,,,,,,,,,,,,,,,,,,,,,,,,,,,,,,,,,,,,,,,,,,,,,,,,,,,,,,,,,,,,,,,,,,,,,,,,,,,,
,,2,4.2402,2,4.2402,0,65,65,62,1,189,onion,tree,,90498,002,2022-04-27_20h57.38.613,SPAMnetsValid,2021.1.4,Win32,60.50338819,,,,,,,,,,,,,,,,,,,,,,,,,,,,,,,,,,,,,,,,,,,,,,,,,,,,,,,,,,,,,,,,,,,,,,,,,,,,,,,,,,,,,,,,,
,,8,2.7622,8,2.7622,0,66,66,11,1,117,melon,strawberry,,90498,002,2022-04-27_20h57.38.613,SPAMnetsValid,2021.1.4,Win32,60.50338819,,,,,,,,,,,,,,,,,,,,,,,,,,,,,,,,,,,,,,,,,,,,,,,,,,,,,,,,,,,,,,,,,,,,,,,,,,,,,,,,,,,,,,,,,
,,7,5.8928,7,5.8928,0,67,67,83,1,100,garden,tomato,,90498,002,2022-04-27_20h57.38.613,SPAMnetsValid,2021.1.4,Win32,60.50338819,,,,,,,,,,,,,,,,,,,,,,,,,,,,,,,,,,,,,,,,,,,,,,,,,,,,,,,,,,,,,,,,,,,,,,,,,,,,,,,,,,,,,,,,,
,,4,2.2427,4,2.2427,0,68,68,36,1,161,kitchen,pretzel,,90498,002,2022-04-27_20h57.38.613,SPAMnetsValid,2021.1.4,Win32,60.50338819,,,,,,,,,,,,,,,,,,,,,,,,,,,,,,,,,,,,,,,,,,,,,,,,,,,,,,,,,,,,,,,,,,,,,,,,,,,,,,,,,,,,,,,,,
,,6,2.6124,6,2.6124,0,69,69,60,1,122,flower,garden,,90498,002,2022-04-27_20h57.38.613,SPAMnetsValid,2021.1.4,Win32,60.50338819,,,,,,,,,,,,,,,,,,,,,,,,,,,,,,,,,,,,,,,,,,,,,,,,,,,,,,,,,,,,,,,,,,,,,,,,,,,,,,,,,,,,,,,,,
,,4,2.7738,4,2.7738,0,70,70,17,1,99,garden,melon,,90498,002,2022-04-27_20h57.38.613,SPAMnetsValid,2021.1.4,Win32,60.50338819,,,,,,,,,,,,,,,,,,,,,,,,,,,,,,,,,,,,,,,,,,,,,,,,,,,,,,,,,,,,,,,,,,,,,,,,,,,,,,,,,,,,,,,,,
,,5,69.0289,5,69.0289,0,71,71,27,1,158,cookie,oven,,90498,002,2022-04-27_20h57.38.613,SPAMnetsValid,2021.1.4,Win32,60.50338819,,,,,,,,,,,,,,,,,,,,,,,,,,,,,,,,,,,,,,,,,,,,,,,,,,,,,,,,,,,,,,,,,,,,,,,,,,,,,,,,,,,,,,,,,
,,6,3.8877,6,3.8877,0,72,72,93,1,134,carrot,flower,,90498,002,2022-04-27_20h57.38.613,SPAMnetsValid,2021.1.4,Win32,60.50338819,,,,,,,,,,,,,,,,,,,,,,,,,,,,,,,,,,,,,,,,,,,,,,,,,,,,,,,,,,,,,,,,,,,,,,,,,,,,,,,,,,,,,,,,,
,,3,1.8378,3,1.8378,0,73,73,58,1,144,cake,garden,,90498,002,2022-04-27_20h57.38.613,SPAMnetsValid,2021.1.4,Win32,60.50338819,,,,,,,,,,,,,,,,,,,,,,,,,,,,,,,,,,,,,,,,,,,,,,,,,,,,,,,,,,,,,,,,,,,,,,,,,,,,,,,,,,,,,,,,,
,,2,14.2009,2,14.2009,0,74,74,51,1,168,cactus,flower,,90498,002,2022-04-27_20h57.38.613,SPAMnetsValid,2021.1.4,Win32,60.50338819,,,,,,,,,,,,,,,,,,,,,,,,,,,,,,,,,,,,,,,,,,,,,,,,,,,,,,,,,,,,,,,,,,,,,,,,,,,,,,,,,,,,,,,,,
,,1,2.6346,1,2.6346,0,75,75,84,1,130,microwave,yogurt,,90498,002,2022-04-27_20h57.38.613,SPAMnetsValid,2021.1.4,Win32,60.50338819,,,,,,,,,,,,,,,,,,,,,,,,,,,,,,,,,,,,,,,,,,,,,,,,,,,,,,,,,,,,,,,,,,,,,,,,,,,,,,,,,,,,,,,,,
,,2,8.5271,2,8.5271,0,76,76,67,1,96,oven,strawberry,,90498,002,2022-04-27_20h57.38.613,SPAMnetsValid,2021.1.4,Win32,60.50338819,,,,,,,,,,,,,,,,,,,,,,,,,,,,,,,,,,,,,,,,,,,,,,,,,,,,,,,,,,,,,,,,,,,,,,,,,,,,,,,,,,,,,,,,,
,,1,2.3796,1,2.3796,0,77,77,78,1,132,broom,tree,,90498,002,2022-04-27_20h57.38.613,SPAMnetsValid,2021.1.4,Win32,60.50338819,,,,,,,,,,,,,,,,,,,,,,,,,,,,,,,,,,,,,,,,,,,,,,,,,,,,,,,,,,,,,,,,,,,,,,,,,,,,,,,,,,,,,,,,,
,,2,54.3163,2,54.3163,0,78,78,42,1,184,oven,pretzel,,90498,002,2022-04-27_20h57.38.613,SPAMnetsValid,2021.1.4,Win32,60.50338819,,,,,,,,,,,,,,,,,,,,,,,,,,,,,,,,,,,,,,,,,,,,,,,,,,,,,,,,,,,,,,,,,,,,,,,,,,,,,,,,,,,,,,,,,
,,5,46.3408,5,46.3408,0,79,79,2,1,174,cake,pretzel,,90498,002,2022-04-27_20h57.38.613,SPAMnetsValid,2021.1.4,Win32,60.50338819,,,,,,,,,,,,,,,,,,,,,,,,,,,,,,,,,,,,,,,,,,,,,,,,,,,,,,,,,,,,,,,,,,,,,,,,,,,,,,,,,,,,,,,,,
,,3,26.8738,3,26.8738,0,80,80,40,1,165,onion,rose,,90498,002,2022-04-27_20h57.38.613,SPAMnetsValid,2021.1.4,Win32,60.50338819,,,,,,,,,,,,,,,,,,,,,,,,,,,,,,,,,,,,,,,,,,,,,,,,,,,,,,,,,,,,,,,,,,,,,,,,,,,,,,,,,,,,,,,,,
,,2,1.6496,2,1.6496,0,81,81,90,1,190,microwave,strawberry,,90498,002,2022-04-27_20h57.38.613,SPAMnetsValid,2021.1.4,Win32,60.50338819,,,,,,,,,,,,,,,,,,,,,,,,,,,,,,,,,,,,,,,,,,,,,,,,,,,,,,,,,,,,,,,,,,,,,,,,,,,,,,,,,,,,,,,,,
,,6,7.5425,6,7.5425,0,82,82,18,1,119,strawberry,tree,,90498,002,2022-04-27_20h57.38.613,SPAMnetsValid,2021.1.4,Win32,60.50338819,,,,,,,,,,,,,,,,,,,,,,,,,,,,,,,,,,,,,,,,,,,,,,,,,,,,,,,,,,,,,,,,,,,,,,,,,,,,,,,,,,,,,,,,,
,,6,1.5569,6,1.5569,0,83,83,30,1,125,carrot,tree,,90498,002,2022-04-27_20h57.38.613,SPAMnetsValid,2021.1.4,Win32,60.50338819,,,,,,,,,,,,,,,,,,,,,,,,,,,,,,,,,,,,,,,,,,,,,,,,,,,,,,,,,,,,,,,,,,,,,,,,,,,,,,,,,,,,,,,,,
,,4,3.2062,4,3.2062,0,84,84,79,1,103,pretzel,tomato,,90498,002,2022-04-27_20h57.38.613,SPAMnetsValid,2021.1.4,Win32,60.50338819,,,,,,,,,,,,,,,,,,,,,,,,,,,,,,,,,,,,,,,,,,,,,,,,,,,,,,,,,,,,,,,,,,,,,,,,,,,,,,,,,,,,,,,,,
,,5,3.7652,5,3.7652,0,85,85,33,1,131,cactus,garden,,90498,002,2022-04-27_20h57.38.613,SPAMnetsValid,2021.1.4,Win32,60.50338819,,,,,,,,,,,,,,,,,,,,,,,,,,,,,,,,,,,,,,,,,,,,,,,,,,,,,,,,,,,,,,,,,,,,,,,,,,,,,,,,,,,,,,,,,
,,5,82.2678,5,82.2678,0,86,86,8,1,97,chocolate,kitchen,,90498,002,2022-04-27_20h57.38.613,SPAMnetsValid,2021.1.4,Win32,60.50338819,,,,,,,,,,,,,,,,,,,,,,,,,,,,,,,,,,,,,,,,,,,,,,,,,,,,,,,,,,,,,,,,,,,,,,,,,,,,,,,,,,,,,,,,,
,,8,1.707,8,1.707,0,87,87,52,1,110,chocolate,cookie,,90498,002,2022-04-27_20h57.38.613,SPAMnetsValid,2021.1.4,Win32,60.50338819,,,,,,,,,,,,,,,,,,,,,,,,,,,,,,,,,,,,,,,,,,,,,,,,,,,,,,,,,,,,,,,,,,,,,,,,,,,,,,,,,,,,,,,,,
,,6,1.9625,6,1.9625,0,88,88,43,1,185,cactus,rose,,90498,002,2022-04-27_20h57.38.613,SPAMnetsValid,2021.1.4,Win32,60.50338819,,,,,,,,,,,,,,,,,,,,,,,,,,,,,,,,,,,,,,,,,,,,,,,,,,,,,,,,,,,,,,,,,,,,,,,,,,,,,,,,,,,,,,,,,
,,1,4.0585,1,4.0585,0,89,89,55,1,143,pretzel,rose,,90498,002,2022-04-27_20h57.38.613,SPAMnetsValid,2021.1.4,Win32,60.50338819,,,,,,,,,,,,,,,,,,,,,,,,,,,,,,,,,,,,,,,,,,,,,,,,,,,,,,,,,,,,,,,,,,,,,,,,,,,,,,,,,,,,,,,,,
,,1,67.088,1,67.088,0,90,90,57,1,127,cactus,chocolate,,90498,002,2022-04-27_20h57.38.613,SPAMnetsValid,2021.1.4,Win32,60.50338819,,,,,,,,,,,,,,,,,,,,,,,,,,,,,,,,,,,,,,,,,,,,,,,,,,,,,,,,,,,,,,,,,,,,,,,,,,,,,,,,,,,,,,,,,
,,6,4.1933,6,4.1933,0,91,91,37,1,139,carrot,strawberry,,90498,002,2022-04-27_20h57.38.613,SPAMnetsValid,2021.1.4,Win32,60.50338819,,,,,,,,,,,,,,,,,,,,,,,,,,,,,,,,,,,,,,,,,,,,,,,,,,,,,,,,,,,,,,,,,,,,,,,,,,,,,,,,,,,,,,,,,
,,2,3.3635,2,3.3635,0,92,92,64,1,157,refrigerator,rose,,90498,002,2022-04-27_20h57.38.613,SPAMnetsValid,2021.1.4,Win32,60.50338819,,,,,,,,,,,,,,,,,,,,,,,,,,,,,,,,,,,,,,,,,,,,,,,,,,,,,,,,,,,,,,,,,,,,,,,,,,,,,,,,,,,,,,,,,
,,4,3.1597,4,3.1597,0,93,93,72,1,181,carrot,kitchen,,90498,002,2022-04-27_20h57.38.613,SPAMnetsValid,2021.1.4,Win32,60.50338819,,,,,,,,,,,,,,,,,,,,,,,,,,,,,,,,,,,,,,,,,,,,,,,,,,,,,,,,,,,,,,,,,,,,,,,,,,,,,,,,,,,,,,,,,
,,1,2.6649,1,2.6649,0,94,94,81,1,104,garden,microwave,,90498,002,2022-04-27_20h57.38.613,SPAMnetsValid,2021.1.4,Win32,60.50338819,,,,,,,,,,,,,,,,,,,,,,,,,,,,,,,,,,,,,,,,,,,,,,,,,,,,,,,,,,,,,,,,,,,,,,,,,,,,,,,,,,,,,,,,,
,,6,2.1914,6,2.1914,0,95,95,87,1,114,cookie,strawberry,,90498,002,2022-04-27_20h57.38.613,SPAMnetsValid,2021.1.4,Win32,60.50338819,,,,,,,,,,,,,,,,,,,,,,,,,,,,,,,,,,,,,,,,,,,,,,,,,,,,,,,,,,,,,,,,,,,,,,,,,,,,,,,,,,,,,,,,,
,,1,2.7217,1,2.7217,0,96,96,71,1,187,cactus,microwave,,90498,002,2022-04-27_20h57.38.613,SPAMnetsValid,2021.1.4,Win32,60.50338819,,,,,,,,,,,,,,,,,,,,,,,,,,,,,,,,,,,,,,,,,,,,,,,,,,,,,,,,,,,,,,,,,,,,,,,,,,,,,,,,,,,,,,,,,
,,,,,,,,,,,,,,,90498,002,2022-04-27_20h57.38.613,SPAMnetsValid,2021.1.4,Win32,60.50338819,0,0,0,0,1,,,,,,,,,,,,,,,,,,,,,,,,,,,,,,,,,,,,,,,,,,,,,,,,,,,,,,,,,,,,,,,,,,,,,,,,,,,,,,,,,,,,
,,,,,,,,,,,,,,,90498,002,2022-04-27_20h57.38.613,SPAMnetsValid,2021.1.4,Win32,60.50338819,,,,,,0,0,0,1,1,0,1,,,,,,,,,,,,,,,,,,,,,,,,,,,,,,,,,,,,,,,,,,,,,,,,,,,,,,,,,,,,,,,,,,,,,,,,,,,,,
,,,,3,49.5364,,,,,,38,pretzel,refrigerator,,90498,002,2022-04-27_20h57.38.613,SPAMnetsValid,2021.1.4,Win32,60.50338819,,,,,,,,,,,,,3,49.5364,0,0,0,71,1,,,,,,,,,,,,,,,,,,,,,,,,,,,,,,,,,,,,,,,,,,,,,,,,,,,,,,,,,,,,,,,,,,,,,,
,,,,2,47.5216,,,,,,57,flower,kitchen,,90498,002,2022-04-27_20h57.38.613,SPAMnetsValid,2021.1.4,Win32,60.50338819,,,,,,,,,,,,,2,47.5216,0,1,1,49,1,,,,,,,,,,,,,,,,,,,,,,,,,,,,,,,,,,,,,,,,,,,,,,,,,,,,,,,,,,,,,,,,,,,,,,
,,,,3,1.7911,,,,,,81,pretzel,yogurt,,90498,002,2022-04-27_20h57.38.613,SPAMnetsValid,2021.1.4,Win32,60.50338819,,,,,,,,,,,,,3,1.7911,0,2,2,50,1,,,,,,,,,,,,,,,,,,,,,,,,,,,,,,,,,,,,,,,,,,,,,,,,,,,,,,,,,,,,,,,,,,,,,,
,,,,1,1.5889,,,,,,31,cactus,pretzel,,90498,002,2022-04-27_20h57.38.613,SPAMnetsValid,2021.1.4,Win32,60.50338819,,,,,,,,,,,,,1,1.5889,0,3,3,1,1,,,,,,,,,,,,,,,,,,,,,,,,,,,,,,,,,,,,,,,,,,,,,,,,,,,,,,,,,,,,,,,,,,,,,,
,,,,2,29.4931,,,,,,60,cactus,onion,,90498,002,2022-04-27_20h57.38.613,SPAMnetsValid,2021.1.4,Win32,60.50338819,,,,,,,,,,,,,2,29.4931,0,4,4,81,1,,,,,,,,,,,,,,,,,,,,,,,,,,,,,,,,,,,,,,,,,,,,,,,,,,,,,,,,,,,,,,,,,,,,,,
,,,,6,73.8454,,,,,,30,cookie,pretzel,,90498,002,2022-04-27_20h57.38.613,SPAMnetsValid,2021.1.4,Win32,60.50338819,,,,,,,,,,,,,6,73.8454,0,5,5,78,1,,,,,,,,,,,,,,,,,,,,,,,,,,,,,,,,,,,,,,,,,,,,,,,,,,,,,,,,,,,,,,,,,,,,,,
,,,,9,1.366,,,,,,191,cake,cake,CHECK,90498,002,2022-04-27_20h57.38.613,SPAMnetsValid,2021.1.4,Win32,60.50338819,,,,,,,,,,,,,9,1.366,0,6,6,10,1,,,,,,,,,,,,,,,,,,,,,,,,,,,,,,,,,,,,,,,,,,,,,,,,,,,,,,,,,,,,,,,,,,,,,,
,,,,4,22.4915,,,,,,66,melon,yogurt,,90498,002,2022-04-27_20h57.38.613,SPAMnetsValid,2021.1.4,Win32,60.50338819,,,,,,,,,,,,,4,22.4915,0,7,7,48,1,,,,,,,,,,,,,,,,,,,,,,,,,,,,,,,,,,,,,,,,,,,,,,,,,,,,,,,,,,,,,,,,,,,,,,
,,,,3,200.9642,,,,,,50,carrot,rose,,90498,002,2022-04-27_20h57.38.613,SPAMnetsValid,2021.1.4,Win32,60.50338819,,,,,,,,,,,,,3,200.9642,0,8,8,73,1,,,,,,,,,,,,,,,,,,,,,,,,,,,,,,,,,,,,,,,,,,,,,,,,,,,,,,,,,,,,,,,,,,,,,,
,,,,7,3.0437,,,,,,36,broom,kitchen,,90498,002,2022-04-27_20h57.38.613,SPAMnetsValid,2021.1.4,Win32,60.50338819,,,,,,,,,,,,,7,3.0437,0,9,9,76,1,,,,,,,,,,,,,,,,,,,,,,,,,,,,,,,,,,,,,,,,,,,,,,,,,,,,,,,,,,,,,,,,,,,,,,
,,,,3,1.5259,,,,,,83,broom,carrot,,90498,002,2022-04-27_20h57.38.613,SPAMnetsValid,2021.1.4,Win32,60.50338819,,,,,,,,,,,,,3,1.5259,0,10,10,4,1,,,,,,,,,,,,,,,,,,,,,,,,,,,,,,,,,,,,,,,,,,,,,,,,,,,,,,,,,,,,,,,,,,,,,,
,,,,5,15.2666,,,,,,51,onion,strawberry,,90498,002,2022-04-27_20h57.38.613,SPAMnetsValid,2021.1.4,Win32,60.50338819,,,,,,,,,,,,,5,15.2666,0,11,11,86,1,,,,,,,,,,,,,,,,,,,,,,,,,,,,,,,,,,,,,,,,,,,,,,,,,,,,,,,,,,,,,,,,,,,,,,
,,,,6,2.1089,,,,,,49,flower,strawberry,,90498,002,2022-04-27_20h57.38.613,SPAMnetsValid,2021.1.4,Win32,60.50338819,,,,,,,,,,,,,6,2.1089,0,12,12,3,1,,,,,,,,,,,,,,,,,,,,,,,,,,,,,,,,,,,,,,,,,,,,,,,,,,,,,,,,,,,,,,,,,,,,,,
,,,,5,151.7952,,,,,,39,melon,pretzel,,90498,002,2022-04-27_20h57.38.613,SPAMnetsValid,2021.1.4,Win32,60.50338819,,,,,,,,,,,,,5,151.7952,0,13,13,20,1,,,,,,,,,,,,,,,,,,,,,,,,,,,,,,,,,,,,,,,,,,,,,,,,,,,,,,,,,,,,,,,,,,,,,,
,,,,5,1.7587,,,,,,4,chocolate,pretzel,,90498,002,2022-04-27_20h57.38.613,SPAMnetsValid,2021.1.4,Win32,60.50338819,,,,,,,,,,,,,5,1.7587,0,14,14,52,1,,,,,,,,,,,,,,,,,,,,,,,,,,,,,,,,,,,,,,,,,,,,,,,,,,,,,,,,,,,,,,,,,,,,,,
,,,,2,4.009,,,,,,69,carrot,refrigerator,,90498,002,2022-04-27_20h57.38.613,SPAMnetsValid,2021.1.4,Win32,60.50338819,,,,,,,,,,,,,2,4.009,0,15,15,75,1,,,,,,,,,,,,,,,,,,,,,,,,,,,,,,,,,,,,,,,,,,,,,,,,,,,,,,,,,,,,,,,,,,,,,,
,,,,1,3.9083,,,,,,71,broom,rose,,90498,002,2022-04-27_20h57.38.613,SPAMnetsValid,2021.1.4,Win32,60.50338819,,,,,,,,,,,,,1,3.9083,0,16,16,61,1,,,,,,,,,,,,,,,,,,,,,,,,,,,,,,,,,,,,,,,,,,,,,,,,,,,,,,,,,,,,,,,,,,,,,,
,,,,6,19.5223,,,,,,79,garden,strawberry,,90498,002,2022-04-27_20h57.38.613,SPAMnetsValid,2021.1.4,Win32,60.50338819,,,,,,,,,,,,,6,19.5223,0,17,17,87,1,,,,,,,,,,,,,,,,,,,,,,,,,,,,,,,,,,,,,,,,,,,,,,,,,,,,,,,,,,,,,,,,,,,,,,
,,,,4,2.7777,,,,,,26,tomato,yogurt,,90498,002,2022-04-27_20h57.38.613,SPAMnetsValid,2021.1.4,Win32,60.50338819,,,,,,,,,,,,,4,2.7777,0,18,18,13,1,,,,,,,,,,,,,,,,,,,,,,,,,,,,,,,,,,,,,,,,,,,,,,,,,,,,,,,,,,,,,,,,,,,,,,
,,,,6,2.2754,,,,,,68,flower,tomato,,90498,002,2022-04-27_20h57.38.613,SPAMnetsValid,2021.1.4,Win32,60.50338819,,,,,,,,,,,,,6,2.2754,0,19,19,94,1,,,,,,,,,,,,,,,,,,,,,,,,,,,,,,,,,,,,,,,,,,,,,,,,,,,,,,,,,,,,,,,,,,,,,,
,,,,6,1.6719,,,,,,20,rose,tree,,90498,002,2022-04-27_20h57.38.613,SPAMnetsValid,2021.1.4,Win32,60.50338819,,,,,,,,,,,,,6,1.6719,0,20,20,66,1,,,,,,,,,,,,,,,,,,,,,,,,,,,,,,,,,,,,,,,,,,,,,,,,,,,,,,,,,,,,,,,,,,,,,,
,,,,8,1.61,,,,,,76,garden,rose,,90498,002,2022-04-27_20h57.38.613,SPAMnetsValid,2021.1.4,Win32,60.50338819,,,,,,,,,,,,,8,1.61,0,21,21,19,1,,,,,,,,,,,,,,,,,,,,,,,,,,,,,,,,,,,,,,,,,,,,,,,,,,,,,,,,,,,,,,,,,,,,,,
,,,,2,33.8948,,,,,,15,onion,oven,,90498,002,2022-04-27_20h57.38.613,SPAMnetsValid,2021.1.4,Win32,60.50338819,,,,,,,,,,,,,2,33.8948,0,22,22,39,1,,,,,,,,,,,,,,,,,,,,,,,,,,,,,,,,,,,,,,,,,,,,,,,,,,,,,,,,,,,,,,,,,,,,,,
,,,,1,56.5792,,,,,,41,broom,cactus,,90498,002,2022-04-27_20h57.38.613,SPAMnetsValid,2021.1.4,Win32,60.50338819,,,,,,,,,,,,,1,56.5792,0,23,23,46,1,,,,,,,,,,,,,,,,,,,,,,,,,,,,,,,,,,,,,,,,,,,,,,,,,,,,,,,,,,,,,,,,,,,,,,
,,,,4,163.2523,,,,,,3,cake,oven,,90498,002,2022-04-27_20h57.38.613,SPAMnetsValid,2021.1.4,Win32,60.50338819,,,,,,,,,,,,,4,163.2523,0,24,24,30,1,,,,,,,,,,,,,,,,,,,,,,,,,,,,,,,,,,,,,,,,,,,,,,,,,,,,,,,,,,,,,,,,,,,,,,
,,,,6,55.3785,,,,,,44,cookie,melon,,90498,002,2022-04-27_20h57.38.613,SPAMnetsValid,2021.1.4,Win32,60.50338819,,,,,,,,,,,,,6,55.3785,0,25,25,92,1,,,,,,,,,,,,,,,,,,,,,,,,,,,,,,,,,,,,,,,,,,,,,,,,,,,,,,,,,,,,,,,,,,,,,,
,,,,2,4.7204,,,,,,89,chocolate,rose,,90498,002,2022-04-27_20h57.38.613,SPAMnetsValid,2021.1.4,Win32,60.50338819,,,,,,,,,,,,,2,4.7204,0,26,26,60,1,,,,,,,,,,,,,,,,,,,,,,,,,,,,,,,,,,,,,,,,,,,,,,,,,,,,,,,,,,,,,,,,,,,,,,
,,,,5,5.0924,,,,,,28,cake,melon,,90498,002,2022-04-27_20h57.38.613,SPAMnetsValid,2021.1.4,Win32,60.50338819,,,,,,,,,,,,,5,5.0924,0,27,27,54,1,,,,,,,,,,,,,,,,,,,,,,,,,,,,,,,,,,,,,,,,,,,,,,,,,,,,,,,,,,,,,,,,,,,,,,
,,,,6,1.6723,,,,,,7,melon,tree,,90498,002,2022-04-27_20h57.38.613,SPAMnetsValid,2021.1.4,Win32,60.50338819,,,,,,,,,,,,,6,1.6723,0,28,28,77,1,,,,,,,,,,,,,,,,,,,,,,,,,,,,,,,,,,,,,,,,,,,,,,,,,,,,,,,,,,,,,,,,,,,,,,
,,,,4,26.3284,,,,,,82,cake,kitchen,,90498,002,2022-04-27_20h57.38.613,SPAMnetsValid,2021.1.4,Win32,60.50338819,,,,,,,,,,,,,4,26.3284,0,29,29,96,1,,,,,,,,,,,,,,,,,,,,,,,,,,,,,,,,,,,,,,,,,,,,,,,,,,,,,,,,,,,,,,,,,,,,,,
,,,,5,82.8644,,,,,,87,carrot,yogurt,,90498,002,2022-04-27_20h57.38.613,SPAMnetsValid,2021.1.4,Win32,60.50338819,,,,,,,,,,,,,5,82.8644,0,30,30,6,1,,,,,,,,,,,,,,,,,,,,,,,,,,,,,,,,,,,,,,,,,,,,,,,,,,,,,,,,,,,,,,,,,,,,,,
,,,,6,2.5155,,,,,,25,carrot,onion,,90498,002,2022-04-27_20h57.38.613,SPAMnetsValid,2021.1.4,Win32,60.50338819,,,,,,,,,,,,,6,2.5155,0,31,31,44,1,,,,,,,,,,,,,,,,,,,,,,,,,,,,,,,,,,,,,,,,,,,,,,,,,,,,,,,,,,,,,,,,,,,,,,
,,,,3,4.9194,,,,,,74,broom,pretzel,,90498,002,2022-04-27_20h57.38.613,SPAMnetsValid,2021.1.4,Win32,60.50338819,,,,,,,,,,,,,3,4.9194,0,32,32,40,1,,,,,,,,,,,,,,,,,,,,,,,,,,,,,,,,,,,,,,,,,,,,,,,,,,,,,,,,,,,,,,,,,,,,,,
,,,,6,4.5646,,,,,,29,chocolate,melon,,90498,002,2022-04-27_20h57.38.613,SPAMnetsValid,2021.1.4,Win32,60.50338819,,,,,,,,,,,,,6,4.5646,0,33,33,34,1,,,,,,,,,,,,,,,,,,,,,,,,,,,,,,,,,,,,,,,,,,,,,,,,,,,,,,,,,,,,,,,,,,,,,,
,,,,8,2.598,,,,,,61,strawberry,tomato,,90498,002,2022-04-27_20h57.38.613,SPAMnetsValid,2021.1.4,Win32,60.50338819,,,,,,,,,,,,,8,2.598,0,34,34,80,1,,,,,,,,,,,,,,,,,,,,,,,,,,,,,,,,,,,,,,,,,,,,,,,,,,,,,,,,,,,,,,,,,,,,,,
,,,,3,8.1616,,,,,,33,oven,yogurt,,90498,002,2022-04-27_20h57.38.613,SPAMnetsValid,2021.1.4,Win32,60.50338819,,,,,,,,,,,,,3,8.1616,0,35,35,31,1,,,,,,,,,,,,,,,,,,,,,,,,,,,,,,,,,,,,,,,,,,,,,,,,,,,,,,,,,,,,,,,,,,,,,,
,,,,2,1.5719,,,,,,85,cake,tree,,90498,002,2022-04-27_20h57.38.613,SPAMnetsValid,2021.1.4,Win32,60.50338819,,,,,,,,,,,,,2,1.5719,0,36,36,18,1,,,,,,,,,,,,,,,,,,,,,,,,,,,,,,,,,,,,,,,,,,,,,,,,,,,,,,,,,,,,,,,,,,,,,,
,,,,6,3.5961,,,,,,45,onion,pretzel,,90498,002,2022-04-27_20h57.38.613,SPAMnetsValid,2021.1.4,Win32,60.50338819,,,,,,,,,,,,,6,3.5961,0,37,37,69,1,,,,,,,,,,,,,,,,,,,,,,,,,,,,,,,,,,,,,,,,,,,,,,,,,,,,,,,,,,,,,,,,,,,,,,
,,,,3,126.7171,,,,,,23,flower,microwave,,90498,002,2022-04-27_20h57.38.613,SPAMnetsValid,2021.1.4,Win32,60.50338819,,,,,,,,,,,,,3,126.7171,0,38,38,25,1,,,,,,,,,,,,,,,,,,,,,,,,,,,,,,,,,,,,,,,,,,,,,,,,,,,,,,,,,,,,,,,,,,,,,,
,,,,7,3.7828,,,,,,63,cake,cookie,,90498,002,2022-04-27_20h57.38.613,SPAMnetsValid,2021.1.4,Win32,60.50338819,,,,,,,,,,,,,7,3.7828,0,39,39,93,1,,,,,,,,,,,,,,,,,,,,,,,,,,,,,,,,,,,,,,,,,,,,,,,,,,,,,,,,,,,,,,,,,,,,,,
,,,,4,142.4595,,,,,,2,kitchen,onion,,90498,002,2022-04-27_20h57.38.613,SPAMnetsValid,2021.1.4,Win32,60.50338819,,,,,,,,,,,,,4,142.4595,0,40,40,91,1,,,,,,,,,,,,,,,,,,,,,,,,,,,,,,,,,,,,,,,,,,,,,,,,,,,,,,,,,,,,,,,,,,,,,,
,,,,1,2.2246,,,,,,14,broom,cookie,,90498,002,2022-04-27_20h57.38.613,SPAMnetsValid,2021.1.4,Win32,60.50338819,,,,,,,,,,,,,1,2.2246,0,41,41,16,1,,,,,,,,,,,,,,,,,,,,,,,,,,,,,,,,,,,,,,,,,,,,,,,,,,,,,,,,,,,,,,,,,,,,,,
,,,,6,3.1175,,,,,,43,chocolate,tomato,,90498,002,2022-04-27_20h57.38.613,SPAMnetsValid,2021.1.4,Win32,60.50338819,,,,,,,,,,,,,6,3.1175,0,42,42,8,1,,,,,,,,,,,,,,,,,,,,,,,,,,,,,,,,,,,,,,,,,,,,,,,,,,,,,,,,,,,,,,,,,,,,,,
,,,,3,214.0585,,,,,,34,melon,oven,,90498,002,2022-04-27_20h57.38.613,SPAMnetsValid,2021.1.4,Win32,60.50338819,,,,,,,,,,,,,3,214.0585,0,43,43,7,1,,,,,,,,,,,,,,,,,,,,,,,,,,,,,,,,,,,,,,,,,,,,,,,,,,,,,,,,,,,,,,,,,,,,,,
,,,,2,1.792,,,,,,48,flower,oven,,90498,002,2022-04-27_20h57.38.613,SPAMnetsValid,2021.1.4,Win32,60.50338819,,,,,,,,,,,,,2,1.792,0,44,44,15,1,,,,,,,,,,,,,,,,,,,,,,,,,,,,,,,,,,,,,,,,,,,,,,,,,,,,,,,,,,,,,,,,,,,,,,
,,,,7,161.3379,,,,,,52,carrot,tomato,,90498,002,2022-04-27_20h57.38.613,SPAMnetsValid,2021.1.4,Win32,60.50338819,,,,,,,,,,,,,7,161.3379,0,45,45,95,1,,,,,,,,,,,,,,,,,,,,,,,,,,,,,,,,,,,,,,,,,,,,,,,,,,,,,,,,,,,,,,,,,,,,,,
,,,,9,1.4865,,,,,,192,microwave,microwave,CHECK,90498,002,2022-04-27_20h57.38.613,SPAMnetsValid,2021.1.4,Win32,60.50338819,,,,,,,,,,,,,9,1.4865,0,46,46,53,1,,,,,,,,,,,,,,,,,,,,,,,,,,,,,,,,,,,,,,,,,,,,,,,,,,,,,,,,,,,,,,,,,,,,,,
,,,,3,18.6035,,,,,,18,onion,refrigerator,,90498,002,2022-04-27_20h57.38.613,SPAMnetsValid,2021.1.4,Win32,60.50338819,,,,,,,,,,,,,3,18.6035,0,47,47,62,1,,,,,,,,,,,,,,,,,,,,,,,,,,,,,,,,,,,,,,,,,,,,,,,,,,,,,,,,,,,,,,,,,,,,,,
,,,,2,2.5713,,,,,,16,chocolate,flower,,90498,002,2022-04-27_20h57.38.613,SPAMnetsValid,2021.1.4,Win32,60.50338819,,,,,,,,,,,,,2,2.5713,0,48,48,22,1,,,,,,,,,,,,,,,,,,,,,,,,,,,,,,,,,,,,,,,,,,,,,,,,,,,,,,,,,,,,,,,,,,,,,,
,,,,4,110.1037,,,,,,22,kitchen,strawberry,,90498,002,2022-04-27_20h57.38.613,SPAMnetsValid,2021.1.4,Win32,60.50338819,,,,,,,,,,,,,4,110.1037,0,49,49,2,1,,,,,,,,,,,,,,,,,,,,,,,,,,,,,,,,,,,,,,,,,,,,,,,,,,,,,,,,,,,,,,,,,,,,,,
,,,,5,3.2762,,,,,,12,cookie,yogurt,,90498,002,2022-04-27_20h57.38.613,SPAMnetsValid,2021.1.4,Win32,60.50338819,,,,,,,,,,,,,5,3.2762,0,50,50,36,1,,,,,,,,,,,,,,,,,,,,,,,,,,,,,,,,,,,,,,,,,,,,,,,,,,,,,,,,,,,,,,,,,,,,,,
,,,,5,0.8884,,,,,,62,kitchen,rose,,90498,002,2022-04-27_20h57.38.613,SPAMnetsValid,2021.1.4,Win32,60.50338819,,,,,,,,,,,,,5,0.8884,0,51,51,57,1,,,,,,,,,,,,,,,,,,,,,,,,,,,,,,,,,,,,,,,,,,,,,,,,,,,,,,,,,,,,,,,,,,,,,,
,,,,1,6.1379,,,,,,5,oven,tree,,90498,002,2022-04-27_20h57.38.613,SPAMnetsValid,2021.1.4,Win32,60.50338819,,,,,,,,,,,,,1,6.1379,0,52,52,70,1,,,,,,,,,,,,,,,,,,,,,,,,,,,,,,,,,,,,,,,,,,,,,,,,,,,,,,,,,,,,,,,,,,,,,,
,,,,2,61.8371,,,,,,72,broom,onion,,90498,002,2022-04-27_20h57.38.613,SPAMnetsValid,2021.1.4,Win32,60.50338819,,,,,,,,,,,,,2,61.8371,0,53,53,27,1,,,,,,,,,,,,,,,,,,,,,,,,,,,,,,,,,,,,,,,,,,,,,,,,,,,,,,,,,,,,,,,,,,,,,,
,,,,1,5.2964,,,,,,92,broom,flower,,90498,002,2022-04-27_20h57.38.613,SPAMnetsValid,2021.1.4,Win32,60.50338819,,,,,,,,,,,,,1,5.2964,0,54,54,88,1,,,,,,,,,,,,,,,,,,,,,,,,,,,,,,,,,,,,,,,,,,,,,,,,,,,,,,,,,,,,,,,,,,,,,,
,,,,1,1.6925,,,,,,80,chocolate,tree,,90498,002,2022-04-27_20h57.38.613,SPAMnetsValid,2021.1.4,Win32,60.50338819,,,,,,,,,,,,,1,1.6925,0,55,55,89,1,,,,,,,,,,,,,,,,,,,,,,,,,,,,,,,,,,,,,,,,,,,,,,,,,,,,,,,,,,,,,,,,,,,,,,
,,,,2,1.6714,,,,,,35,flower,pretzel,,90498,002,2022-04-27_20h57.38.613,SPAMnetsValid,2021.1.4,Win32,60.50338819,,,,,,,,,,,,,2,1.6714,0,56,56,26,1,,,,,,,,,,,,,,,,,,,,,,,,,,,,,,,,,,,,,,,,,,,,,,,,,,,,,,,,,,,,,,,,,,,,,,
,,,,2,2.9698,,,,,,40,broom,cake,,90498,002,2022-04-27_20h57.38.613,SPAMnetsValid,2021.1.4,Win32,60.50338819,,,,,,,,,,,,,2,2.9698,0,57,57,32,1,,,,,,,,,,,,,,,,,,,,,,,,,,,,,,,,,,,,,,,,,,,,,,,,,,,,,,,,,,,,,,,,,,,,,,
,,,,3,12.8364,,,,,,10,flower,onion,,90498,002,2022-04-27_20h57.38.613,SPAMnetsValid,2021.1.4,Win32,60.50338819,,,,,,,,,,,,,3,12.8364,0,58,58,45,1,,,,,,,,,,,,,,,,,,,,,,,,,,,,,,,,,,,,,,,,,,,,,,,,,,,,,,,,,,,,,,,,,,,,,,
,,,,1,1.721,,,,,,53,garden,pretzel,,90498,002,2022-04-27_20h57.38.613,SPAMnetsValid,2021.1.4,Win32,60.50338819,,,,,,,,,,,,,1,1.721,0,59,59,0,1,,,,,,,,,,,,,,,,,,,,,,,,,,,,,,,,,,,,,,,,,,,,,,,,,,,,,,,,,,,,,,,,,,,,,,
,,,,1,14.1931,,,,,,11,refrigerator,tree,,90498,002,2022-04-27_20h57.38.613,SPAMnetsValid,2021.1.4,Win32,60.50338819,,,,,,,,,,,,,1,14.1931,0,60,60,43,1,,,,,,,,,,,,,,,,,,,,,,,,,,,,,,,,,,,,,,,,,,,,,,,,,,,,,,,,,,,,,,,,,,,,,,
,,,,5,64.9154,,,,,,59,rose,strawberry,,90498,002,2022-04-27_20h57.38.613,SPAMnetsValid,2021.1.4,Win32,60.50338819,,,,,,,,,,,,,5,64.9154,0,61,61,72,1,,,,,,,,,,,,,,,,,,,,,,,,,,,,,,,,,,,,,,,,,,,,,,,,,,,,,,,,,,,,,,,,,,,,,,
,,,,1,1.5605,,,,,,86,oven,rose,,90498,002,2022-04-27_20h57.38.613,SPAMnetsValid,2021.1.4,Win32,60.50338819,,,,,,,,,,,,,1,1.5605,0,62,62,79,1,,,,,,,,,,,,,,,,,,,,,,,,,,,,,,,,,,,,,,,,,,,,,,,,,,,,,,,,,,,,,,,,,,,,,,
,,,,2,2.1259,,,,,,1,rose,yogurt,,90498,002,2022-04-27_20h57.38.613,SPAMnetsValid,2021.1.4,Win32,60.50338819,,,,,,,,,,,,,2,2.1259,0,63,63,55,1,,,,,,,,,,,,,,,,,,,,,,,,,,,,,,,,,,,,,,,,,,,,,,,,,,,,,,,,,,,,,,,,,,,,,,
,,,,6,20.7592,,,,,,70,chocolate,onion,,90498,002,2022-04-27_20h57.38.613,SPAMnetsValid,2021.1.4,Win32,60.50338819,,,,,,,,,,,,,6,20.7592,0,64,64,74,1,,,,,,,,,,,,,,,,,,,,,,,,,,,,,,,,,,,,,,,,,,,,,,,,,,,,,,,,,,,,,,,,,,,,,,
,,,,2,1.4287,,,,,,27,cactus,cookie,,90498,002,2022-04-27_20h57.38.613,SPAMnetsValid,2021.1.4,Win32,60.50338819,,,,,,,,,,,,,2,1.4287,0,65,65,17,1,,,,,,,,,,,,,,,,,,,,,,,,,,,,,,,,,,,,,,,,,,,,,,,,,,,,,,,,,,,,,,,,,,,,,,
,,,,4,2.7603,,,,,,55,tomato,tree,,90498,002,2022-04-27_20h57.38.613,SPAMnetsValid,2021.1.4,Win32,60.50338819,,,,,,,,,,,,,4,2.7603,0,66,66,35,1,,,,,,,,,,,,,,,,,,,,,,,,,,,,,,,,,,,,,,,,,,,,,,,,,,,,,,,,,,,,,,,,,,,,,,
,,,,2,2.7745,,,,,,88,cactus,melon,,90498,002,2022-04-27_20h57.38.613,SPAMnetsValid,2021.1.4,Win32,60.50338819,,,,,,,,,,,,,2,2.7745,0,67,67,38,1,,,,,,,,,,,,,,,,,,,,,,,,,,,,,,,,,,,,,,,,,,,,,,,,,,,,,,,,,,,,,,,,,,,,,,
,,,,3,6.6384,,,,,,95,broom,refrigerator,,90498,002,2022-04-27_20h57.38.613,SPAMnetsValid,2021.1.4,Win32,60.50338819,,,,,,,,,,,,,3,6.6384,0,68,68,90,1,,,,,,,,,,,,,,,,,,,,,,,,,,,,,,,,,,,,,,,,,,,,,,,,,,,,,,,,,,,,,,,,,,,,,,
,,,,1,1.5655,,,,,,8,broom,melon,,90498,002,2022-04-27_20h57.38.613,SPAMnetsValid,2021.1.4,Win32,60.50338819,,,,,,,,,,,,,1,1.5655,0,69,69,59,1,,,,,,,,,,,,,,,,,,,,,,,,,,,,,,,,,,,,,,,,,,,,,,,,,,,,,,,,,,,,,,,,,,,,,,
,,,,2,4.8422,,,,,,42,garden,kitchen,,90498,002,2022-04-27_20h57.38.613,SPAMnetsValid,2021.1.4,Win32,60.50338819,,,,,,,,,,,,,2,4.8422,0,70,70,29,1,,,,,,,,,,,,,,,,,,,,,,,,,,,,,,,,,,,,,,,,,,,,,,,,,,,,,,,,,,,,,,,,,,,,,,
,,,,1,5.7067,,,,,,90,cactus,cake,,90498,002,2022-04-27_20h57.38.613,SPAMnetsValid,2021.1.4,Win32,60.50338819,,,,,,,,,,,,,1,5.7067,0,71,71,85,1,,,,,,,,,,,,,,,,,,,,,,,,,,,,,,,,,,,,,,,,,,,,,,,,,,,,,,,,,,,,,,,,,,,,,,
,,,,3,2.1952,,,,,,56,cactus,tree,,90498,002,2022-04-27_20h57.38.613,SPAMnetsValid,2021.1.4,Win32,60.50338819,,,,,,,,,,,,,3,2.1952,0,72,72,21,1,,,,,,,,,,,,,,,,,,,,,,,,,,,,,,,,,,,,,,,,,,,,,,,,,,,,,,,,,,,,,,,,,,,,,,
,,,,4,7.2399,,,,,,84,oven,tomato,,90498,002,2022-04-27_20h57.38.613,SPAMnetsValid,2021.1.4,Win32,60.50338819,,,,,,,,,,,,,4,7.2399,0,73,73,28,1,,,,,,,,,,,,,,,,,,,,,,,,,,,,,,,,,,,,,,,,,,,,,,,,,,,,,,,,,,,,,,,,,,,,,,
,,,,3,6.3055,,,,,,54,chocolate,yogurt,,90498,002,2022-04-27_20h57.38.613,SPAMnetsValid,2021.1.4,Win32,60.50338819,,,,,,,,,,,,,3,6.3055,0,74,74,67,1,,,,,,,,,,,,,,,,,,,,,,,,,,,,,,,,,,,,,,,,,,,,,,,,,,,,,,,,,,,,,,,,,,,,,,
,,,,3,3.1085,,,,,,65,broom,garden,,90498,002,2022-04-27_20h57.38.613,SPAMnetsValid,2021.1.4,Win32,60.50338819,,,,,,,,,,,,,3,3.1085,0,75,75,23,1,,,,,,,,,,,,,,,,,,,,,,,,,,,,,,,,,,,,,,,,,,,,,,,,,,,,,,,,,,,,,,,,,,,,,,
,,,,4,4.4923,,,,,,32,cake,microwave,,90498,002,2022-04-27_20h57.38.613,SPAMnetsValid,2021.1.4,Win32,60.50338819,,,,,,,,,,,,,4,4.4923,0,76,76,33,1,,,,,,,,,,,,,,,,,,,,,,,,,,,,,,,,,,,,,,,,,,,,,,,,,,,,,,,,,,,,,,,,,,,,,,
,,,,4,72.7594,,,,,,77,refrigerator,yogurt,,90498,002,2022-04-27_20h57.38.613,SPAMnetsValid,2021.1.4,Win32,60.50338819,,,,,,,,,,,,,4,72.7594,0,77,77,42,1,,,,,,,,,,,,,,,,,,,,,,,,,,,,,,,,,,,,,,,,,,,,,,,,,,,,,,,,,,,,,,,,,,,,,,
,,,,6,3.5619,,,,,,24,cookie,tomato,,90498,002,2022-04-27_20h57.38.613,SPAMnetsValid,2021.1.4,Win32,60.50338819,,,,,,,,,,,,,6,3.5619,0,78,78,68,1,,,,,,,,,,,,,,,,,,,,,,,,,,,,,,,,,,,,,,,,,,,,,,,,,,,,,,,,,,,,,,,,,,,,,,
,,,,3,2.3155,,,,,,19,microwave,pretzel,,90498,002,2022-04-27_20h57.38.613,SPAMnetsValid,2021.1.4,Win32,60.50338819,,,,,,,,,,,,,3,2.3155,0,79,79,41,1,,,,,,,,,,,,,,,,,,,,,,,,,,,,,,,,,,,,,,,,,,,,,,,,,,,,,,,,,,,,,,,,,,,,,,
,,,,1,14.0355,,,,,,58,garden,oven,,90498,002,2022-04-27_20h57.38.613,SPAMnetsValid,2021.1.4,Win32,60.50338819,,,,,,,,,,,,,1,14.0355,0,80,80,37,1,,,,,,,,,,,,,,,,,,,,,,,,,,,,,,,,,,,,,,,,,,,,,,,,,,,,,,,,,,,,,,,,,,,,,,
,,,,5,4.2289,,,,,,9,kitchen,refrigerator,,90498,002,2022-04-27_20h57.38.613,SPAMnetsValid,2021.1.4,Win32,60.50338819,,,,,,,,,,,,,5,4.2289,0,81,81,64,1,,,,,,,,,,,,,,,,,,,,,,,,,,,,,,,,,,,,,,,,,,,,,,,,,,,,,,,,,,,,,,,,,,,,,,
,,,,2,57.0602,,,,,,67,flower,yogurt,,90498,002,2022-04-27_20h57.38.613,SPAMnetsValid,2021.1.4,Win32,60.50338819,,,,,,,,,,,,,2,57.0602,0,82,82,12,1,,,,,,,,,,,,,,,,,,,,,,,,,,,,,,,,,,,,,,,,,,,,,,,,,,,,,,,,,,,,,,,,,,,,,,
,,,,2,71.0821,,,,,,37,garden,refrigerator,,90498,002,2022-04-27_20h57.38.613,SPAMnetsValid,2021.1.4,Win32,60.50338819,,,,,,,,,,,,,2,71.0821,0,83,83,11,1,,,,,,,,,,,,,,,,,,,,,,,,,,,,,,,,,,,,,,,,,,,,,,,,,,,,,,,,,,,,,,,,,,,,,,
,,,,7,2.106,,,,,,93,kitchen,oven,,90498,002,2022-04-27_20h57.38.613,SPAMnetsValid,2021.1.4,Win32,60.50338819,,,,,,,,,,,,,7,2.106,0,84,84,82,1,,,,,,,,,,,,,,,,,,,,,,,,,,,,,,,,,,,,,,,,,,,,,,,,,,,,,,,,,,,,,,,,,,,,,,
,,,,7,1.8715,,,,,,94,kitchen,microwave,,90498,002,2022-04-27_20h57.38.613,SPAMnetsValid,2021.1.4,Win32,60.50338819,,,,,,,,,,,,,7,1.8715,0,85,85,58,1,,,,,,,,,,,,,,,,,,,,,,,,,,,,,,,,,,,,,,,,,,,,,,,,,,,,,,,,,,,,,,,,,,,,,,
,,,,6,3.126,,,,,,21,cake,onion,,90498,002,2022-04-27_20h57.38.613,SPAMnetsValid,2021.1.4,Win32,60.50338819,,,,,,,,,,,,,6,3.126,0,86,86,63,1,,,,,,,,,,,,,,,,,,,,,,,,,,,,,,,,,,,,,,,,,,,,,,,,,,,,,,,,,,,,,,,,,,,,,,
,,,,6,1.6166,,,,,,75,cookie,onion,,90498,002,2022-04-27_20h57.38.613,SPAMnetsValid,2021.1.4,Win32,60.50338819,,,,,,,,,,,,,6,1.6166,0,87,87,9,1,,,,,,,,,,,,,,,,,,,,,,,,,,,,,,,,,,,,,,,,,,,,,,,,,,,,,,,,,,,,,,,,,,,,,,
,,,,3,1.449,,,,,,78,cookie,rose,,90498,002,2022-04-27_20h57.38.613,SPAMnetsValid,2021.1.4,Win32,60.50338819,,,,,,,,,,,,,3,1.449,0,88,88,56,1,,,,,,,,,,,,,,,,,,,,,,,,,,,,,,,,,,,,,,,,,,,,,,,,,,,,,,,,,,,,,,,,,,,,,,
,,,,1,7.6491,,,,,,13,broom,yogurt,,90498,002,2022-04-27_20h57.38.613,SPAMnetsValid,2021.1.4,Win32,60.50338819,,,,,,,,,,,,,1,7.6491,0,89,89,5,1,,,,,,,,,,,,,,,,,,,,,,,,,,,,,,,,,,,,,,,,,,,,,,,,,,,,,,,,,,,,,,,,,,,,,,
,,,,1,1.5896,,,,,,46,garden,yogurt,,90498,002,2022-04-27_20h57.38.613,SPAMnetsValid,2021.1.4,Win32,60.50338819,,,,,,,,,,,,,1,1.5896,0,90,90,65,1,,,,,,,,,,,,,,,,,,,,,,,,,,,,,,,,,,,,,,,,,,,,,,,,,,,,,,,,,,,,,,,,,,,,,,
,,,,1,2.147,,,,,,91,microwave,rose,,90498,002,2022-04-27_20h57.38.613,SPAMnetsValid,2021.1.4,Win32,60.50338819,,,,,,,,,,,,,1,2.147,0,91,91,84,1,,,,,,,,,,,,,,,,,,,,,,,,,,,,,,,,,,,,,,,,,,,,,,,,,,,,,,,,,,,,,,,,,,,,,,
,,,,4,2.097,,,,,,64,chocolate,garden,,90498,002,2022-04-27_20h57.38.613,SPAMnetsValid,2021.1.4,Win32,60.50338819,,,,,,,,,,,,,4,2.097,0,92,92,14,1,,,,,,,,,,,,,,,,,,,,,,,,,,,,,,,,,,,,,,,,,,,,,,,,,,,,,,,,,,,,,,,,,,,,,,
,,,,2,4.513,,,,,,6,garden,onion,,90498,002,2022-04-27_20h57.38.613,SPAMnetsValid,2021.1.4,Win32,60.50338819,,,,,,,,,,,,,2,4.513,0,93,93,83,1,,,,,,,,,,,,,,,,,,,,,,,,,,,,,,,,,,,,,,,,,,,,,,,,,,,,,,,,,,,,,,,,,,,,,,
,,,,7,2.2227,,,,,,17,carrot,melon,,90498,002,2022-04-27_20h57.38.613,SPAMnetsValid,2021.1.4,Win32,60.50338819,,,,,,,,,,,,,7,2.2227,0,94,94,24,1,,,,,,,,,,,,,,,,,,,,,,,,,,,,,,,,,,,,,,,,,,,,,,,,,,,,,,,,,,,,,,,,,,,,,,
,,,,1,3.0063,,,,,,73,broom,chocolate,,90498,002,2022-04-27_20h57.38.613,SPAMnetsValid,2021.1.4,Win32,60.50338819,,,,,,,,,,,,,1,3.0063,0,95,95,47,1,,,,,,,,,,,,,,,,,,,,,,,,,,,,,,,,,,,,,,,,,,,,,,,,,,,,,,,,,,,,,,,,,,,,,,
,,,,8,10.1504,,,,,,47,onion,tomato,,90498,002,2022-04-27_20h57.38.613,SPAMnetsValid,2021.1.4,Win32,60.50338819,,,,,,,,,,,,,8,10.1504,0,96,96,51,1,,,,,,,,,,,,,,,,,,,,,,,,,,,,,,,,,,,,,,,,,,,,,,,,,,,,,,,,,,,,,,,,,,,,,,
,,,,,,,,,,,,,,,90498,002,2022-04-27_20h57.38.613,SPAMnetsValid,2021.1.4,Win32,60.50338819,,,,,,,,,,,,,,,,,,,,0,0,0,0,1,,,,,,,,,,,,,,,,,,,,,,,,,,,,,,,,,,,,,,,,,,,,,,,,,,,,,,,,,,,,,,,,,
,,,,,,,,,,,,,,,90498,002,2022-04-27_20h57.38.613,SPAMnetsValid,2021.1.4,Win32,60.50338819,,,,,,0,1,1,0,1,1,0,,,,,,,,,,,,,,,,,,,,,,,,,,,,,,,,,,,,,,,,,,,,,,,,,,,,,,,,,,,,,,,,,,,,,,,,,,,,,
,,,,,,,,,,,,,,,90498,002,2022-04-27_20h57.38.613,SPAMnetsValid,2021.1.4,Win32,60.50338819,,,,,,,,,,,,,,,,,,,,,,,,,2,4.191,0,0,0,0,1,rancor,forbearance,ridicule,malice,bravery,3,,,,,,,,,,,,,,,,,,,,,,,,,,,,,,,,,,,,,,,,,,,,,,,,,,,,
,,,,,,,,,,,,,,,90498,002,2022-04-27_20h57.38.613,SPAMnetsValid,2021.1.4,Win32,60.50338819,,,,,,,,,,,,,,,,,,,,,,,,,4,2.6614,0,1,1,1,1,raucous,empty,quiet,smooth,harsh,4,,,,,,,,,,,,,,,,,,,,,,,,,,,,,,,,,,,,,,,,,,,,,,,,,,,,
,,,,,,,,,,,,,,,90498,002,2022-04-27_20h57.38.613,SPAMnetsValid,2021.1.4,Win32,60.50338819,,,,,,,,,,,,,,,,,,,,,,,,,3,6.867,0,2,2,2,1,gargoyle,oil,medicine,carved waterspout,ugly building,3,,,,,,,,,,,,,,,,,,,,,,,,,,,,,,,,,,,,,,,,,,,,,,,,,,,,
,,,,,,,,,,,,,,,90498,002,2022-04-27_20h57.38.613,SPAMnetsValid,2021.1.4,Win32,60.50338819,,,,,,,,,,,,,,,,,,,,,,,,,3,6.2611,0,3,3,3,1,recrudesce,purify,renew activity,lack refinement,crush,2,,,,,,,,,,,,,,,,,,,,,,,,,,,,,,,,,,,,,,,,,,,,,,,,,,,,
,,,,,,,,,,,,,,,90498,002,2022-04-27_20h57.38.613,SPAMnetsValid,2021.1.4,Win32,60.50338819,,,,,,,,,,,,,,,,,,,,,,,,,1,3.3946,0,4,4,4,1,specious,"plausible, but not genuine",noteworthy,class or variety,roomy,1,,,,,,,,,,,,,,,,,,,,,,,,,,,,,,,,,,,,,,,,,,,,,,,,,,,,
,,,,,,,,,,,,,,,90498,002,2022-04-27_20h57.38.613,SPAMnetsValid,2021.1.4,Win32,60.50338819,,,,,,,,,,,,,,,,,,,,,,,,,2,2.9056,0,5,5,5,1,bauble,bubble,showy plaything,idle talk,confusion,2,,,,,,,,,,,,,,,,,,,,,,,,,,,,,,,,,,,,,,,,,,,,,,,,,,,,
,,,,,,,,,,,,,,,90498,002,2022-04-27_20h57.38.613,SPAMnetsValid,2021.1.4,Win32,60.50338819,,,,,,,,,,,,,,,,,,,,,,,,,2,6.2652,0,6,6,6,1,prolific,scarce,producing abundantly,reckless,speaking profanely,2,,,,,,,,,,,,,,,,,,,,,,,,,,,,,,,,,,,,,,,,,,,,,,,,,,,,
,,,,,,,,,,,,,,,90498,002,2022-04-27_20h57.38.613,SPAMnetsValid,2021.1.4,Win32,60.50338819,,,,,,,,,,,,,,,,,,,,,,,,,3,7.2619,0,7,7,7,1,opulent,party,wealthy,happy frame of mind,semiprecious stone,2,,,,,,,,,,,,,,,,,,,,,,,,,,,,,,,,,,,,,,,,,,,,,,,,,,,,
,,,,,,,,,,,,,,,90498,002,2022-04-27_20h57.38.613,SPAMnetsValid,2021.1.4,Win32,60.50338819,,,,,,,,,,,,,,,,,,,,,,,,,3,4.7494,0,8,8,8,1,coercion,conspiracy,strategy,restraint,attraction,3,,,,,,,,,,,,,,,,,,,,,,,,,,,,,,,,,,,,,,,,,,,,,,,,,,,,
,,,,,,,,,,,,,,,90498,002,2022-04-27_20h57.38.613,SPAMnetsValid,2021.1.4,Win32,60.50338819,,,,,,,,,,,,,,,,,,,,,,,,,4,10.7806,0,9,9,9,1,hiatus,animal,calamity,dread,gap,4,,,,,,,,,,,,,,,,,,,,,,,,,,,,,,,,,,,,,,,,,,,,,,,,,,,,
,,,,,,,,,,,,,,,90498,002,2022-04-27_20h57.38.613,SPAMnetsValid,2021.1.4,Win32,60.50338819,,,,,,,,,,,,,,,,,,,,,,,,,1,5.5672,0,10,10,10,1,germane,microbe,contagious,relevant,different,3,,,,,,,,,,,,,,,,,,,,,,,,,,,,,,,,,,,,,,,,,,,,,,,,,,,,
,,,,,,,,,,,,,,,90498,002,2022-04-27_20h57.38.613,SPAMnetsValid,2021.1.4,Win32,60.50338819,,,,,,,,,,,,,,,,,,,,,,,,,2,2.6399,0,11,11,11,1,perfunctory,fundamental,formal,superficial,careful,3,,,,,,,,,,,,,,,,,,,,,,,,,,,,,,,,,,,,,,,,,,,,,,,,,,,,
,,,,,,,,,,,,,,,90498,002,2022-04-27_20h57.38.613,SPAMnetsValid,2021.1.4,Win32,60.50338819,,,,,,,,,,,,,,,,,,,,,,,,,4,13.234,0,12,12,12,1,diverge,reveal,chant,distract the attention of,differ or turn off from,4,,,,,,,,,,,,,,,,,,,,,,,,,,,,,,,,,,,,,,,,,,,,,,,,,,,,
,,,,,,,,,,,,,,,90498,002,2022-04-27_20h57.38.613,SPAMnetsValid,2021.1.4,Win32,60.50338819,,,,,,,,,,,,,,,,,,,,,,,,,4,5.1171,0,13,13,13,1,evoke,take away,anger,connect,bring out,4,,,,,,,,,,,,,,,,,,,,,,,,,,,,,,,,,,,,,,,,,,,,,,,,,,,,
,,,,,,,,,,,,,,,90498,002,2022-04-27_20h57.38.613,SPAMnetsValid,2021.1.4,Win32,60.50338819,,,,,,,,,,,,,,,,,,,,,,,,,3,3.6677,0,14,14,14,1,pertinent,relevant,lying next to,necessary,bold,1,,,,,,,,,,,,,,,,,,,,,,,,,,,,,,,,,,,,,,,,,,,,,,,,,,,,
,,,,,,,,,,,,,,,90498,002,2022-04-27_20h57.38.613,SPAMnetsValid,2021.1.4,Win32,60.50338819,,,,,,,,,,,,,,,,,,,,,,,,,2,8.082,0,15,15,15,1,holocaust,entirety,destruction,saintly,price,2,,,,,,,,,,,,,,,,,,,,,,,,,,,,,,,,,,,,,,,,,,,,,,,,,,,,
,,,,,,,,,,,,,,,90498,002,2022-04-27_20h57.38.613,SPAMnetsValid,2021.1.4,Win32,60.50338819,,,,,,,,,,,,,,,,,,,,,,,,,4,25.025,0,16,16,16,1,piquant,mellow,fish,pungent,cloth,3,,,,,,,,,,,,,,,,,,,,,,,,,,,,,,,,,,,,,,,,,,,,,,,,,,,,
,,,,,,,,,,,,,,,90498,002,2022-04-27_20h57.38.613,SPAMnetsValid,2021.1.4,Win32,60.50338819,,,,,,,,,,,,,,,,,,,,,,,,,1,4.5241,0,17,17,17,1,firmament,foundation,heavens,strong,glue,2,,,,,,,,,,,,,,,,,,,,,,,,,,,,,,,,,,,,,,,,,,,,,,,,,,,,
,,,,,,,,,,,,,,,90498,002,2022-04-27_20h57.38.613,SPAMnetsValid,2021.1.4,Win32,60.50338819,,,,,,,,,,,,,,,,,,,,,,,,,,,,,,,,,,,,,,4,8.0802,0,0,0,0,1,marketable,partisan,jocular,marriageable,salable,essential,4,,,,,,,,,,,,,,,,,,,,,,,,,,,,,,,,,,,,,,
,,,,,,,,,,,,,,,90498,002,2022-04-27_20h57.38.613,SPAMnetsValid,2021.1.4,Win32,60.50338819,,,,,,,,,,,,,,,,,,,,,,,,,,,,,,,,,,,,,,5,12.7103,0,1,1,1,1,cottontail,squirrel,poplar,boa,marshy plant,rabbit,5,,,,,,,,,,,,,,,,,,,,,,,,,,,,,,,,,,,,,,
,,,,,,,,,,,,,,,90498,002,2022-04-27_20h57.38.613,SPAMnetsValid,2021.1.4,Win32,60.50338819,,,,,,,,,,,,,,,,,,,,,,,,,,,,,,,,,,,,,,4,4.5979,0,2,2,2,1,boggy,afraid,false,marshy,dense,black,3,,,,,,,,,,,,,,,,,,,,,,,,,,,,,,,,,,,,,,
,,,,,,,,,,,,,,,90498,002,2022-04-27_20h57.38.613,SPAMnetsValid,2021.1.4,Win32,60.50338819,,,,,,,,,,,,,,,,,,,,,,,,,,,,,,,,,,,,,,5,4.0307,0,3,3,3,1,gruesomeness,blackness,falseness,vindictiveness,drunkenness,ghastliness,5,,,,,,,,,,,,,,,,,,,,,,,,,,,,,,,,,,,,,,
,,,,,,,,,,,,,,,90498,002,2022-04-27_20h57.38.613,SPAMnetsValid,2021.1.4,Win32,60.50338819,,,,,,,,,,,,,,,,,,,,,,,,,,,,,,,,,,,,,,3,11.5463,0,4,4,4,1,loathing,diffidence,laziness,abhorrence,cleverness,comfort,3,,,,,,,,,,,,,,,,,,,,,,,,,,,,,,,,,,,,,,
,,,,,,,,,,,,,,,90498,002,2022-04-27_20h57.38.613,SPAMnetsValid,2021.1.4,Win32,60.50338819,,,,,,,,,,,,,,,,,,,,,,,,,,,,,,,,,,,,,,5,23.9031,0,5,5,5,1,bantam,fowl,ridicule,cripple,vegetable,ensign,1,,,,,,,,,,,,,,,,,,,,,,,,,,,,,,,,,,,,,,
,,,,,,,,,,,,,,,90498,002,2022-04-27_20h57.38.613,SPAMnetsValid,2021.1.4,Win32,60.50338819,,,,,,,,,,,,,,,,,,,,,,,,,,,,,,,,,,,,,,3,7.2038,0,6,6,6,1,evoke,wake up,surrender,reconnoiter,transcend,call forth,5,,,,,,,,,,,,,,,,,,,,,,,,,,,,,,,,,,,,,,
,,,,,,,,,,,,,,,90498,002,2022-04-27_20h57.38.613,SPAMnetsValid,2021.1.4,Win32,60.50338819,,,,,,,,,,,,,,,,,,,,,,,,,,,,,,,,,,,,,,2,12.9245,0,7,7,7,1,unobtrusive,unintelligent,epileptic,illogical,lineal,modest,5,,,,,,,,,,,,,,,,,,,,,,,,,,,,,,,,,,,,,,
,,,,,,,,,,,,,,,90498,002,2022-04-27_20h57.38.613,SPAMnetsValid,2021.1.4,Win32,60.50338819,,,,,,,,,,,,,,,,,,,,,,,,,,,,,,,,,,,,,,4,3.0505,0,8,8,8,1,terrain,ice cream,final test,tractor,area of ground,weight,4,,,,,,,,,,,,,,,,,,,,,,,,,,,,,,,,,,,,,,
,,,,,,,,,,,,,,,90498,002,2022-04-27_20h57.38.613,SPAMnetsValid,2021.1.4,Win32,60.50338819,,,,,,,,,,,,,,,,,,,,,,,,,,,,,,,,,,,,,,3,7.3676,0,9,9,9,1,capriciousness,stubbornness,courage,whimsicality,amazement,greediness,3,,,,,,,,,,,,,,,,,,,,,,,,,,,,,,,,,,,,,,
,,,,,,,,,,,,,,,90498,002,2022-04-27_20h57.38.613,SPAMnetsValid,2021.1.4,Win32,60.50338819,,,,,,,,,,,,,,,,,,,,,,,,,,,,,,,,,,,,,,3,4.7499,0,10,10,10,1,maelstrom,slander,whirlpool,enmity,armor,majolica,2,,,,,,,,,,,,,,,,,,,,,,,,,,,,,,,,,,,,,,
,,,,,,,,,,,,,,,90498,002,2022-04-27_20h57.38.613,SPAMnetsValid,2021.1.4,Win32,60.50338819,,,,,,,,,,,,,,,,,,,,,,,,,,,,,,,,,,,,,,5,9.3017,0,11,11,11,1,tentative,critical,conclusive,authentic,provisional,apprehensive,4,,,,,,,,,,,,,,,,,,,,,,,,,,,,,,,,,,,,,,
,,,,,,,,,,,,,,,90498,002,2022-04-27_20h57.38.613,SPAMnetsValid,2021.1.4,Win32,60.50338819,,,,,,,,,,,,,,,,,,,,,,,,,,,,,,,,,,,,,,4,14.2718,0,12,12,12,1,placate,rehabilitate,plagiarize,depredate,apprise,conciliate,5,,,,,,,,,,,,,,,,,,,,,,,,,,,,,,,,,,,,,,
,,,,,,,,,,,,,,,90498,002,2022-04-27_20h57.38.613,SPAMnetsValid,2021.1.4,Win32,60.50338819,,,,,,,,,,,,,,,,,,,,,,,,,,,,,,,,,,,,,,2,106.0235,0,13,13,13,1,surcease,enlightenment,cessation,inattention,censor,substitution,2,,,,,,,,,,,,,,,,,,,,,,,,,,,,,,,,,,,,,,
,,,,,,,,,,,,,,,90498,002,2022-04-27_20h57.38.613,SPAMnetsValid,2021.1.4,Win32,60.50338819,,,,,,,,,,,,,,,,,,,,,,,,,,,,,,,,,,,,,,2,3.7634,0,14,14,14,1,apathetic,wandering,impassive,hateful,prophetic,overflowing,2,,,,,,,,,,,,,,,,,,,,,,,,,,,,,,,,,,,,,,
,,,,,,,,,,,,,,,90498,002,2022-04-27_20h57.38.613,SPAMnetsValid,2021.1.4,Win32,60.50338819,,,,,,,,,,,,,,,,,,,,,,,,,,,,,,,,,,,,,,1,32.6178,0,15,15,15,1,paternoster,paternalism,patricide,malediction,benediction,prayer,5,,,,,,,,,,,,,,,,,,,,,,,,,,,,,,,,,,,,,,
,,,,,,,,,,,,,,,90498,002,2022-04-27_20h57.38.613,SPAMnetsValid,2021.1.4,Win32,60.50338819,,,,,,,,,,,,,,,,,,,,,,,,,,,,,,,,,,,,,,1,4.1095,0,16,16,16,1,opalescence,opulence,senescence,bankruptcy,iridescence,assiduity,4,,,,,,,,,,,,,,,,,,,,,,,,,,,,,,,,,,,,,,
,,,,,,,,,,,,,,,90498,002,2022-04-27_20h57.38.613,SPAMnetsValid,2021.1.4,Win32,60.50338819,,,,,,,,,,,,,,,,,,,,,,,,,,,,,,,,,,,,,,5,5.2316,0,17,17,17,1,lush,stupid,luxurious,hazy,putrid,languishing,2,,,,,,,,,,,,,,,,,,,,,,,,,,,,,,,,,,,,,,
,,,,,,,,,,,,,,,90498,002,2022-04-27_20h57.38.613,SPAMnetsValid,2021.1.4,Win32,60.50338819,,,,,,,,,,,,,,,,,,,,,,,,,,,,,,,,,,,,,,3,43.5185,0,18,18,18,1,curtailment,expenditure,abandonment,abridgment,improvement,forgery,3,,,,,,,,,,,,,,,,,,,,,,,,,,,,,,,,,,,,,,
,,,,,,,,,,,,,,,90498,002,2022-04-27_20h57.38.613,SPAMnetsValid,2021.1.4,Win32,60.50338819,,,,,,,,,,,,,,,,,,,,,,,,,,,,,,,,,,,,,,2,2.3084,0,19,19,19,1,perversity,adversity,perviousness,travesty,waywardness,gentility,4,,,,,,,,,,,,,,,,,,,,,,,,,,,,,,,,,,,,,,
,,,,,,,,,,,,,,,90498,002,2022-04-27_20h57.38.613,SPAMnetsValid,2021.1.4,Win32,60.50338819,,,,,,,,,,,,,,,,,,,,,,,,,,,,,,,,,,,,,,,,0,20,20,20,1,calumnious,complimentary,analogous,slanderous,tempestuous,magnanimous,3,,,,,,,,,,,,,,,,,,,,,,,,,,,,,,,,,,,,,,
,,,,,,,,,,,,,,,90498,002,2022-04-27_20h57.38.613,SPAMnetsValid,2021.1.4,Win32,60.50338819,,,,,,,,,,,,,,,,,,,,,,,,,,,,,,,,,,,,,,,,,,,,,,,,,,,,burn,candle,0,0,0,0,1,,,,,,,,,,,,,,,,,,,,,,,,,,,,,,,
,,,,,,,,,,,,,,,90498,002,2022-04-27_20h57.38.613,SPAMnetsValid,2021.1.4,Win32,60.50338819,,,,,,,,,,,,,,,,,,,,,,,,,,,,,,,,,,,,,,,,,,,,,,,,,,,,burn light eat drink poop on ,candle,1,0,1,0,1,,,,,,,,,,,,,,,,,,,,,,,,,,,,,,,
,,,,,,,,,,,,,,,90498,002,2022-04-27_20h57.38.613,SPAMnetsValid,2021.1.4,Win32,60.50338819,,,,,,,,,,,,,,,,,,,,,,,,,,,,,,,,,,,,,,,,,,,,,,,,,,,,splash,candle,2,0,2,0,1,,,,,,,,,,,,,,,,,,,,,,,,,,,,,,,
,,,,,,,,,,,,,,,90498,002,2022-04-27_20h57.38.613,SPAMnetsValid,2021.1.4,Win32,60.50338819,,,,,,,,,,,,,,,,,,,,,,,,,,,,,,,,,,,,,,,,,,,,,,,,,,,,i'm an ancom i like to mess with anyone who's a fash cuz that hierarchy stiff is honestly always stuck on my mind i'm an ancom i don't ever want to get a job cuz if i contribute at all i'm a part of the system,candle,3,0,3,0,1,,,,,,,,,,,,,,,,,,,,,,,,,,,,,,,
,,,,,,,,,,,,,,,90498,002,2022-04-27_20h57.38.613,SPAMnetsValid,2021.1.4,Win32,60.50338819,,,,,,,,,,,,,,,,,,,,,,,,,,,,,,,,,,,,,,,,,,,,,,,,,,,,,,,,,,,0,0,0,1,1,candle,,,,,,,,,,,,,,,,,,,,,,,,,
,,,,,,,,,,,,,,,90498,002,2022-04-27_20h57.38.613,SPAMnetsValid,2021.1.4,Win32,60.50338819,,,,,,,,,,,,,,,,,,,,,,,,,,,,,,,,,,,,,,,,,,,,,,,,,,,,dear libtards,bucket,0,0,0,0,1,,,,,,,,,,,,,,,,,,,,,,,,,,,,,,,
,,,,,,,,,,,,,,,90498,002,2022-04-27_20h57.38.613,SPAMnetsValid,2021.1.4,Win32,60.50338819,,,,,,,,,,,,,,,,,,,,,,,,,,,,,,,,,,,,,,,,,,,,,,,,,,,,if obama was such a great president why did my wife leave me,bucket,1,0,1,0,1,,,,,,,,,,,,,,,,,,,,,,,,,,,,,,,
,,,,,,,,,,,,,,,90498,002,2022-04-27_20h57.38.613,SPAMnetsValid,2021.1.4,Win32,60.50338819,,,,,,,,,,,,,,,,,,,,,,,,,,,,,,,,,,,,,,,,,,,,,,,,,,,,drive around,bucket,2,0,2,0,1,,,,,,,,,,,,,,,,,,,,,,,,,,,,,,,
,,,,,,,,,,,,,,,90498,002,2022-04-27_20h57.38.613,SPAMnetsValid,2021.1.4,Win32,60.50338819,,,,,,,,,,,,,,,,,,,,,,,,,,,,,,,,,,,,,,,,,,,,,,,,,,,,,,,,,,,0,1,1,0,1,bucket,,,,,,,,,,,,,,,,,,,,,,,,,
,,,,,,,,,,,,,,,90498,002,2022-04-27_20h57.38.613,SPAMnetsValid,2021.1.4,Win32,60.50338819,,,,,,,,,,,,,,,,,,,,,,,,,,,,,,,,,,,,,,,,,,,,,,,,,,,,pie,pillow,0,0,0,0,1,,,,,,,,,,,,,,,,,,,,,,,,,,,,,,,
,,,,,,,,,,,,,,,90498,002,2022-04-27_20h57.38.613,SPAMnetsValid,2021.1.4,Win32,60.50338819,,,,,,,,,,,,,,,,,,,,,,,,,,,,,,,,,,,,,,,,,,,,,,,,,,,,,,,,,,,0,2,2,2,1,pillow,,,,,,,,,,,,,,,,,,,,,,,,,
,,,,,,,,,,,,,,,90498,002,2022-04-27_20h57.38.613,SPAMnetsValid,2021.1.4,Win32,60.50338819,,,,,,,,,,,,,,,,,,,,,,,,,,,,,,,,,,,,,,,,,,,,,,,,,,,,,,,,,,,,,,,,,dog cat frog fish bird rabbit tiger lion shark jaguar cheetah wolf lynx fox falcon sparrow eagle. ,Animals,0,0,0,0,1,,,,,,,,,,,,,,,,,,
,,,,,,,,,,,,,,,90498,002,2022-04-27_20h57.38.613,SPAMnetsValid,2021.1.4,Win32,60.50338819,,,,,,,,,,,,,,,,,,,,,,,,,,,,,,,,,,,,,,,,,,,,,,,,,,,,,,,,,,,,,,,,,whale,Animals,1,0,1,0,1,,,,,,,,,,,,,,,,,,
,,,,,,,,,,,,,,,90498,002,2022-04-27_20h57.38.613,SPAMnetsValid,2021.1.4,Win32,60.50338819,,,,,,,,,,,,,,,,,,,,,,,,,,,,,,,,,,,,,,,,,,,,,,,,,,,,,,,,,,,,,,,,,,,,,,,,0,0,0,0,1,Animals,,,,,,,,,,,,
,,,,,,,,,,,,,,,90498,002,2022-04-27_20h57.38.613,SPAMnetsValid,2021.1.4,Win32,60.50338819,,,,,,,,,,,,,,,,,,,,,,,,,,,,,,,,,,,,,,,,,,,,,,,,,,,,,,,,,,,,,,,,,,,,,,,,,,,,,,5,7.771,0,0,0,0,1,"I enjoy concentrating on a fantasy or daydream and exploring all its possibilities, letting it grow and develop.",0,1,,
,,,,,,,,,,,,,,,90498,002,2022-04-27_20h57.38.613,SPAMnetsValid,2021.1.4,Win32,60.50338819,,,,,,,,,,,,,,,,,,,,,,,,,,,,,,,,,,,,,,,,,,,,,,,,,,,,,,,,,,,,,,,,,,,,,,,,,,,,,,4,2.1247,0,1,1,1,1,I think it's interesting to learn and develop new hobbies.,0,2,,
,,,,,,,,,,,,,,,90498,002,2022-04-27_20h57.38.613,SPAMnetsValid,2021.1.4,Win32,60.50338819,,,,,,,,,,,,,,,,,,,,,,,,,,,,,,,,,,,,,,,,,,,,,,,,,,,,,,,,,,,,,,,,,,,,,,,,,,,,,,4,2.8304,0,2,2,2,1,I am intrigued by the patterns I find in art and nature.,0,3,,
,,,,,,,,,,,,,,,90498,002,2022-04-27_20h57.38.613,SPAMnetsValid,2021.1.4,Win32,60.50338819,,,,,,,,,,,,,,,,,,,,,,,,,,,,,,,,,,,,,,,,,,,,,,,,,,,,,,,,,,,,,,,,,,,,,,,,,,,,,,1,4.7796,0,3,3,3,1,I believe letting students hear controversial speakers can only confuse and mislead them.,1,4,,
,,,,,,,,,,,,,,,90498,002,2022-04-27_20h57.38.613,SPAMnetsValid,2021.1.4,Win32,60.50338819,,,,,,,,,,,,,,,,,,,,,,,,,,,,,,,,,,,,,,,,,,,,,,,,,,,,,,,,,,,,,,,,,,,,,,,,,,,,,,4,3.1412,0,4,4,4,1,Poetry has little or no effect on me.,1,5,,
,,,,,,,,,,,,,,,90498,002,2022-04-27_20h57.38.613,SPAMnetsValid,2021.1.4,Win32,60.50338819,,,,,,,,,,,,,,,,,,,,,,,,,,,,,,,,,,,,,,,,,,,,,,,,,,,,,,,,,,,,,,,,,,,,,,,,,,,,,,1,2.8257,0,5,5,5,1,I would have difficulty just letting my mind wander without control or guidance.,1,6,,
,,,,,,,,,,,,,,,90498,002,2022-04-27_20h57.38.613,SPAMnetsValid,2021.1.4,Win32,60.50338819,,,,,,,,,,,,,,,,,,,,,,,,,,,,,,,,,,,,,,,,,,,,,,,,,,,,,,,,,,,,,,,,,,,,,,,,,,,,,,2,6.2603,0,6,6,6,1,I seldom notice the moods or feelings that different environments produce.,1,7,,
,,,,,,,,,,,,,,,90498,002,2022-04-27_20h57.38.613,SPAMnetsValid,2021.1.4,Win32,60.50338819,,,,,,,,,,,,,,,,,,,,,,,,,,,,,,,,,,,,,,,,,,,,,,,,,,,,,,,,,,,,,,,,,,,,,,,,,,,,,,3,2.3227,0,7,7,7,1,I experience a wide range of emotions or feelings.,0,8,,
,,,,,,,,,,,,,,,90498,002,2022-04-27_20h57.38.613,SPAMnetsValid,2021.1.4,Win32,60.50338819,,,,,,,,,,,,,,,,,,,,,,,,,,,,,,,,,,,,,,,,,,,,,,,,,,,,,,,,,,,,,,,,,,,,,,,,,,,,,,4,14.1229,0,8,8,8,1,"Sometimes when I am reading poetry or looking at a work of art, I feel a chill or wave of excitement.",0,9,,
,,,,,,,,,,,,,,,90498,002,2022-04-27_20h57.38.613,SPAMnetsValid,2021.1.4,Win32,60.50338819,,,,,,,,,,,,,,,,,,,,,,,,,,,,,,,,,,,,,,,,,,,,,,,,,,,,,,,,,,,,,,,,,,,,,,,,,,,,,,1,4.4284,0,9,9,9,1,I have little interest in speculating on the nature of the universe or the human condition.,1,10,,
,,,,,,,,,,,,,,,90498,002,2022-04-27_20h57.38.613,SPAMnetsValid,2021.1.4,Win32,60.50338819,,,,,,,,,,,,,,,,,,,,,,,,,,,,,,,,,,,,,,,,,,,,,,,,,,,,,,,,,,,,,,,,,,,,,,,,,,,,,,4,2.2935,0,10,10,10,1,I have a lot of intellectual curiosity.,0,11,,
,,,,,,,,,,,,,,,90498,002,2022-04-27_20h57.38.613,SPAMnetsValid,2021.1.4,Win32,60.50338819,,,,,,,,,,,,,,,,,,,,,,,,,,,,,,,,,,,,,,,,,,,,,,,,,,,,,,,,,,,,,,,,,,,,,,,,,,,,,,4,3.8423,0,11,11,11,1,I often enjoy playing with theories or abstract ideas.,0,12,,
,,,,,,,,,,,,,,,90498,002,2022-04-27_20h57.38.613,SPAMnetsValid,2021.1.4,Win32,60.50338819,,,,,,,,,,,,,,,,,,,,,,,,,,,,,,,,,,,,,,,,,,,,,,,,,,,,,,,,,,,,,,,,,,,,,,,,,,,,,,,,,,,,,,,,return,8.0312
