key_resp_3.keys,key_resp_3.rt,slider_2.response,slider_2.rt,rjt_rating,rjt_RT,trials_24.thisRepN,trials_24.thisTrialN,trials_24.thisN,trials_24.thisIndex,trials_24.ran,rjt_order,word1,word2,attention,participant,session,date,expName,psychopyVersion,OS,frameRate,trials_4.thisRepN,trials_4.thisTrialN,trials_4.thisN,trials_4.thisIndex,trials_4.ran,trials_5.thisRepN,trials_5.thisTrialN,trials_5.thisN,trials_5.thisIndex,trials_5.ran,repOne,repTwo,slider.response,slider.rt,trials_22.thisRepN,trials_22.thisTrialN,trials_22.thisN,trials_22.thisIndex,trials_22.ran,trials_99.thisRepN,trials_99.thisTrialN,trials_99.thisN,trials_99.thisIndex,trials_99.ran,slider_extend_2.response,slider_extend_2.rt,trials_6.thisRepN,trials_6.thisTrialN,trials_6.thisN,trials_6.thisIndex,trials_6.ran,vCue2,R1,R2,R3,R4,correct,sliderVocab.response,sliderVocab.rt,trials_7.thisRepN,trials_7.thisTrialN,trials_7.thisN,trials_7.thisIndex,trials_7.ran,VocabCue,VR1,VR2,VR3,VR4,VR5,VocabCorrect,AUT_resp,AUT_label,trials.thisRepN,trials.thisTrialN,trials.thisN,trials.thisIndex,trials.ran,trials_2.thisRepN,trials_2.thisTrialN,trials_2.thisN,trials_2.thisIndex,trials_2.ran,aut_prompt,VF_response,VF_tag,trials_16.thisRepN,trials_16.thisTrialN,trials_16.thisN,trials_16.thisIndex,trials_16.ran,trials_17.thisRepN,trials_17.thisTrialN,trials_17.thisN,trials_17.thisIndex,trials_17.ran,VFcond,open_slider.response,open_slider.rt,trials_3.thisRepN,trials_3.thisTrialN,trials_3.thisN,trials_3.thisIndex,trials_3.ran,OpenQ,Rev,OPEN_ORDER,key_resp_2.keys,key_resp_2.rt
return,216.7083,7,5.4979,7,5.4979,0,0,0,47,1,167,carrot,garden,,90497,001,2022-04-27_23h12.35.136,SPAMnetsValid,2021.1.4,MacIntel,59.97720866,,,,,,,,,,,,,,,,,,,,,,,,,,,,,,,,,,,,,,,,,,,,,,,,,,,,,,,,,,,,,,,,,,,,,,,,,,,,,,,,,,,,,,,,,
,,5,4.2266,5,4.2266,0,1,1,51,1,168,cactus,flower,,90497,001,2022-04-27_23h12.35.136,SPAMnetsValid,2021.1.4,MacIntel,59.97720866,,,,,,,,,,,,,,,,,,,,,,,,,,,,,,,,,,,,,,,,,,,,,,,,,,,,,,,,,,,,,,,,,,,,,,,,,,,,,,,,,,,,,,,,,
,,4,7.6539,4,7.6539,0,2,2,89,1,140,cookie,refrigerator,,90497,001,2022-04-27_23h12.35.136,SPAMnetsValid,2021.1.4,MacIntel,59.97720866,,,,,,,,,,,,,,,,,,,,,,,,,,,,,,,,,,,,,,,,,,,,,,,,,,,,,,,,,,,,,,,,,,,,,,,,,,,,,,,,,,,,,,,,,
,,9,2.1001,9,2.1001,0,3,3,69,1,124,oven,refrigerator,,90497,001,2022-04-27_23h12.35.136,SPAMnetsValid,2021.1.4,MacIntel,59.97720866,,,,,,,,,,,,,,,,,,,,,,,,,,,,,,,,,,,,,,,,,,,,,,,,,,,,,,,,,,,,,,,,,,,,,,,,,,,,,,,,,,,,,,,,,
,,9,3.7939,9,3.7939,0,4,4,60,1,122,flower,garden,,90497,001,2022-04-27_23h12.35.136,SPAMnetsValid,2021.1.4,MacIntel,59.97720866,,,,,,,,,,,,,,,,,,,,,,,,,,,,,,,,,,,,,,,,,,,,,,,,,,,,,,,,,,,,,,,,,,,,,,,,,,,,,,,,,,,,,,,,,
,,2,2.1808,2,2.1808,0,5,5,6,1,151,microwave,onion,,90497,001,2022-04-27_23h12.35.136,SPAMnetsValid,2021.1.4,MacIntel,59.97720866,,,,,,,,,,,,,,,,,,,,,,,,,,,,,,,,,,,,,,,,,,,,,,,,,,,,,,,,,,,,,,,,,,,,,,,,,,,,,,,,,,,,,,,,,
,,1,2.4633,1,2.4633,0,6,6,32,1,182,flower,refrigerator,,90497,001,2022-04-27_23h12.35.136,SPAMnetsValid,2021.1.4,MacIntel,59.97720866,,,,,,,,,,,,,,,,,,,,,,,,,,,,,,,,,,,,,,,,,,,,,,,,,,,,,,,,,,,,,,,,,,,,,,,,,,,,,,,,,,,,,,,,,
,,5,2.4416,5,2.4416,0,7,7,76,1,102,chocolate,refrigerator,,90497,001,2022-04-27_23h12.35.136,SPAMnetsValid,2021.1.4,MacIntel,59.97720866,,,,,,,,,,,,,,,,,,,,,,,,,,,,,,,,,,,,,,,,,,,,,,,,,,,,,,,,,,,,,,,,,,,,,,,,,,,,,,,,,,,,,,,,,
,,3,2.8817,3,2.8817,0,8,8,43,1,185,cactus,rose,,90497,001,2022-04-27_23h12.35.136,SPAMnetsValid,2021.1.4,MacIntel,59.97720866,,,,,,,,,,,,,,,,,,,,,,,,,,,,,,,,,,,,,,,,,,,,,,,,,,,,,,,,,,,,,,,,,,,,,,,,,,,,,,,,,,,,,,,,,
,,2,2.1299,2,2.1299,0,9,9,84,1,130,microwave,yogurt,,90497,001,2022-04-27_23h12.35.136,SPAMnetsValid,2021.1.4,MacIntel,59.97720866,,,,,,,,,,,,,,,,,,,,,,,,,,,,,,,,,,,,,,,,,,,,,,,,,,,,,,,,,,,,,,,,,,,,,,,,,,,,,,,,,,,,,,,,,
,,7,2.5143,7,2.5143,0,10,10,87,1,114,cookie,strawberry,,90497,001,2022-04-27_23h12.35.136,SPAMnetsValid,2021.1.4,MacIntel,59.97720866,,,,,,,,,,,,,,,,,,,,,,,,,,,,,,,,,,,,,,,,,,,,,,,,,,,,,,,,,,,,,,,,,,,,,,,,,,,,,,,,,,,,,,,,,
,,9,1.5938,9,1.5938,0,11,11,37,1,139,carrot,strawberry,,90497,001,2022-04-27_23h12.35.136,SPAMnetsValid,2021.1.4,MacIntel,59.97720866,,,,,,,,,,,,,,,,,,,,,,,,,,,,,,,,,,,,,,,,,,,,,,,,,,,,,,,,,,,,,,,,,,,,,,,,,,,,,,,,,,,,,,,,,
,,3,1.9289,3,1.9289,0,12,12,21,1,159,cookie,flower,,90497,001,2022-04-27_23h12.35.136,SPAMnetsValid,2021.1.4,MacIntel,59.97720866,,,,,,,,,,,,,,,,,,,,,,,,,,,,,,,,,,,,,,,,,,,,,,,,,,,,,,,,,,,,,,,,,,,,,,,,,,,,,,,,,,,,,,,,,
,,8,2.1167,8,2.1167,0,13,13,38,1,155,carrot,cookie,,90497,001,2022-04-27_23h12.35.136,SPAMnetsValid,2021.1.4,MacIntel,59.97720866,,,,,,,,,,,,,,,,,,,,,,,,,,,,,,,,,,,,,,,,,,,,,,,,,,,,,,,,,,,,,,,,,,,,,,,,,,,,,,,,,,,,,,,,,
,,5,3.3829,5,3.3829,0,14,14,75,1,178,cactus,carrot,,90497,001,2022-04-27_23h12.35.136,SPAMnetsValid,2021.1.4,MacIntel,59.97720866,,,,,,,,,,,,,,,,,,,,,,,,,,,,,,,,,,,,,,,,,,,,,,,,,,,,,,,,,,,,,,,,,,,,,,,,,,,,,,,,,,,,,,,,,
,,6,3.6799,6,3.6799,0,15,15,45,1,179,broom,oven,,90497,001,2022-04-27_23h12.35.136,SPAMnetsValid,2021.1.4,MacIntel,59.97720866,,,,,,,,,,,,,,,,,,,,,,,,,,,,,,,,,,,,,,,,,,,,,,,,,,,,,,,,,,,,,,,,,,,,,,,,,,,,,,,,,,,,,,,,,
,,3,2.242,3,2.242,0,16,16,1,1,173,kitchen,tomato,,90497,001,2022-04-27_23h12.35.136,SPAMnetsValid,2021.1.4,MacIntel,59.97720866,,,,,,,,,,,,,,,,,,,,,,,,,,,,,,,,,,,,,,,,,,,,,,,,,,,,,,,,,,,,,,,,,,,,,,,,,,,,,,,,,,,,,,,,,
,,1,1.8624,1,1.8624,0,17,17,12,1,162,microwave,tomato,,90497,001,2022-04-27_23h12.35.136,SPAMnetsValid,2021.1.4,MacIntel,59.97720866,,,,,,,,,,,,,,,,,,,,,,,,,,,,,,,,,,,,,,,,,,,,,,,,,,,,,,,,,,,,,,,,,,,,,,,,,,,,,,,,,,,,,,,,,
,,1,1.9244,1,1.9244,0,18,18,50,1,126,kitchen,tree,,90497,001,2022-04-27_23h12.35.136,SPAMnetsValid,2021.1.4,MacIntel,59.97720866,,,,,,,,,,,,,,,,,,,,,,,,,,,,,,,,,,,,,,,,,,,,,,,,,,,,,,,,,,,,,,,,,,,,,,,,,,,,,,,,,,,,,,,,,
,,2,3.5992,2,3.5992,0,19,19,36,1,161,kitchen,pretzel,,90497,001,2022-04-27_23h12.35.136,SPAMnetsValid,2021.1.4,MacIntel,59.97720866,,,,,,,,,,,,,,,,,,,,,,,,,,,,,,,,,,,,,,,,,,,,,,,,,,,,,,,,,,,,,,,,,,,,,,,,,,,,,,,,,,,,,,,,,
,,2,1.5457,2,1.5457,0,20,20,58,1,144,cake,garden,,90497,001,2022-04-27_23h12.35.136,SPAMnetsValid,2021.1.4,MacIntel,59.97720866,,,,,,,,,,,,,,,,,,,,,,,,,,,,,,,,,,,,,,,,,,,,,,,,,,,,,,,,,,,,,,,,,,,,,,,,,,,,,,,,,,,,,,,,,
,,1,2.3823,1,2.3823,0,21,21,71,1,187,cactus,microwave,,90497,001,2022-04-27_23h12.35.136,SPAMnetsValid,2021.1.4,MacIntel,59.97720866,,,,,,,,,,,,,,,,,,,,,,,,,,,,,,,,,,,,,,,,,,,,,,,,,,,,,,,,,,,,,,,,,,,,,,,,,,,,,,,,,,,,,,,,,
,,1,1.5989,1,1.5989,0,22,22,54,1,101,cactus,kitchen,,90497,001,2022-04-27_23h12.35.136,SPAMnetsValid,2021.1.4,MacIntel,59.97720866,,,,,,,,,,,,,,,,,,,,,,,,,,,,,,,,,,,,,,,,,,,,,,,,,,,,,,,,,,,,,,,,,,,,,,,,,,,,,,,,,,,,,,,,,
,,9,3.4166,9,3.4166,0,23,23,44,1,116,cake,chocolate,,90497,001,2022-04-27_23h12.35.136,SPAMnetsValid,2021.1.4,MacIntel,59.97720866,,,,,,,,,,,,,,,,,,,,,,,,,,,,,,,,,,,,,,,,,,,,,,,,,,,,,,,,,,,,,,,,,,,,,,,,,,,,,,,,,,,,,,,,,
,,9,2.8601,9,2.8601,0,24,24,7,1,188,flower,tree,,90497,001,2022-04-27_23h12.35.136,SPAMnetsValid,2021.1.4,MacIntel,59.97720866,,,,,,,,,,,,,,,,,,,,,,,,,,,,,,,,,,,,,,,,,,,,,,,,,,,,,,,,,,,,,,,,,,,,,,,,,,,,,,,,,,,,,,,,,
,,6,8.4167,6,8.4167,0,25,25,8,1,97,chocolate,kitchen,,90497,001,2022-04-27_23h12.35.136,SPAMnetsValid,2021.1.4,MacIntel,59.97720866,,,,,,,,,,,,,,,,,,,,,,,,,,,,,,,,,,,,,,,,,,,,,,,,,,,,,,,,,,,,,,,,,,,,,,,,,,,,,,,,,,,,,,,,,
,,4,2.3988,4,2.3988,0,26,26,40,1,165,onion,rose,,90497,001,2022-04-27_23h12.35.136,SPAMnetsValid,2021.1.4,MacIntel,59.97720866,,,,,,,,,,,,,,,,,,,,,,,,,,,,,,,,,,,,,,,,,,,,,,,,,,,,,,,,,,,,,,,,,,,,,,,,,,,,,,,,,,,,,,,,,
,,4,2.9166,4,2.9166,0,27,27,30,1,125,carrot,tree,,90497,001,2022-04-27_23h12.35.136,SPAMnetsValid,2021.1.4,MacIntel,59.97720866,,,,,,,,,,,,,,,,,,,,,,,,,,,,,,,,,,,,,,,,,,,,,,,,,,,,,,,,,,,,,,,,,,,,,,,,,,,,,,,,,,,,,,,,,
,,7,1.9971,7,1.9971,0,28,28,56,1,113,refrigerator,strawberry,,90497,001,2022-04-27_23h12.35.136,SPAMnetsValid,2021.1.4,MacIntel,59.97720866,,,,,,,,,,,,,,,,,,,,,,,,,,,,,,,,,,,,,,,,,,,,,,,,,,,,,,,,,,,,,,,,,,,,,,,,,,,,,,,,,,,,,,,,,
,,4,8.3536,4,8.3536,0,29,29,94,1,133,cake,flower,,90497,001,2022-04-27_23h12.35.136,SPAMnetsValid,2021.1.4,MacIntel,59.97720866,,,,,,,,,,,,,,,,,,,,,,,,,,,,,,,,,,,,,,,,,,,,,,,,,,,,,,,,,,,,,,,,,,,,,,,,,,,,,,,,,,,,,,,,,
,,7,1.7131,7,1.7131,0,30,30,22,1,142,garden,tree,,90497,001,2022-04-27_23h12.35.136,SPAMnetsValid,2021.1.4,MacIntel,59.97720866,,,,,,,,,,,,,,,,,,,,,,,,,,,,,,,,,,,,,,,,,,,,,,,,,,,,,,,,,,,,,,,,,,,,,,,,,,,,,,,,,,,,,,,,,
,,8,20.0391,8,20.0391,0,31,31,27,1,158,cookie,oven,,90497,001,2022-04-27_23h12.35.136,SPAMnetsValid,2021.1.4,MacIntel,59.97720866,,,,,,,,,,,,,,,,,,,,,,,,,,,,,,,,,,,,,,,,,,,,,,,,,,,,,,,,,,,,,,,,,,,,,,,,,,,,,,,,,,,,,,,,,
,,8,2.3752,8,2.3752,0,32,32,95,1,121,broom,microwave,,90497,001,2022-04-27_23h12.35.136,SPAMnetsValid,2021.1.4,MacIntel,59.97720866,,,,,,,,,,,,,,,,,,,,,,,,,,,,,,,,,,,,,,,,,,,,,,,,,,,,,,,,,,,,,,,,,,,,,,,,,,,,,,,,,,,,,,,,,
,,8,4.8201,8,4.8201,0,33,33,82,1,98,pretzel,strawberry,,90497,001,2022-04-27_23h12.35.136,SPAMnetsValid,2021.1.4,MacIntel,59.97720866,,,,,,,,,,,,,,,,,,,,,,,,,,,,,,,,,,,,,,,,,,,,,,,,,,,,,,,,,,,,,,,,,,,,,,,,,,,,,,,,,,,,,,,,,
,,9,1.614,9,1.614,0,34,34,25,1,194,cactus,cactus,CHECK,90497,001,2022-04-27_23h12.35.136,SPAMnetsValid,2021.1.4,MacIntel,59.97720866,,,,,,,,,,,,,,,,,,,,,,,,,,,,,,,,,,,,,,,,,,,,,,,,,,,,,,,,,,,,,,,,,,,,,,,,,,,,,,,,,,,,,,,,,
,,2,1.8654,2,1.8654,0,35,35,90,1,190,microwave,strawberry,,90497,001,2022-04-27_23h12.35.136,SPAMnetsValid,2021.1.4,MacIntel,59.97720866,,,,,,,,,,,,,,,,,,,,,,,,,,,,,,,,,,,,,,,,,,,,,,,,,,,,,,,,,,,,,,,,,,,,,,,,,,,,,,,,,,,,,,,,,
,,5,7.3,5,7.3,0,36,36,5,1,108,carrot,chocolate,,90497,001,2022-04-27_23h12.35.136,SPAMnetsValid,2021.1.4,MacIntel,59.97720866,,,,,,,,,,,,,,,,,,,,,,,,,,,,,,,,,,,,,,,,,,,,,,,,,,,,,,,,,,,,,,,,,,,,,,,,,,,,,,,,,,,,,,,,,
,,4,1.6,4,1.6,0,37,37,59,1,164,cookie,garden,,90497,001,2022-04-27_23h12.35.136,SPAMnetsValid,2021.1.4,MacIntel,59.97720866,,,,,,,,,,,,,,,,,,,,,,,,,,,,,,,,,,,,,,,,,,,,,,,,,,,,,,,,,,,,,,,,,,,,,,,,,,,,,,,,,,,,,,,,,
,,4,1.8293,4,1.8293,0,38,38,65,1,160,cookie,kitchen,,90497,001,2022-04-27_23h12.35.136,SPAMnetsValid,2021.1.4,MacIntel,59.97720866,,,,,,,,,,,,,,,,,,,,,,,,,,,,,,,,,,,,,,,,,,,,,,,,,,,,,,,,,,,,,,,,,,,,,,,,,,,,,,,,,,,,,,,,,
,,6,12.804,6,12.804,0,39,39,41,1,175,melon,onion,,90497,001,2022-04-27_23h12.35.136,SPAMnetsValid,2021.1.4,MacIntel,59.97720866,,,,,,,,,,,,,,,,,,,,,,,,,,,,,,,,,,,,,,,,,,,,,,,,,,,,,,,,,,,,,,,,,,,,,,,,,,,,,,,,,,,,,,,,,
,,8,2.7412,8,2.7412,0,40,40,11,1,117,melon,strawberry,,90497,001,2022-04-27_23h12.35.136,SPAMnetsValid,2021.1.4,MacIntel,59.97720866,,,,,,,,,,,,,,,,,,,,,,,,,,,,,,,,,,,,,,,,,,,,,,,,,,,,,,,,,,,,,,,,,,,,,,,,,,,,,,,,,,,,,,,,,
,,5,32.8752,5,32.8752,0,41,41,19,1,183,cake,rose,,90497,001,2022-04-27_23h12.35.136,SPAMnetsValid,2021.1.4,MacIntel,59.97720866,,,,,,,,,,,,,,,,,,,,,,,,,,,,,,,,,,,,,,,,,,,,,,,,,,,,,,,,,,,,,,,,,,,,,,,,,,,,,,,,,,,,,,,,,
,,6,1.1462,6,1.1462,0,42,42,96,1,136,chocolate,microwave,,90497,001,2022-04-27_23h12.35.136,SPAMnetsValid,2021.1.4,MacIntel,59.97720866,,,,,,,,,,,,,,,,,,,,,,,,,,,,,,,,,,,,,,,,,,,,,,,,,,,,,,,,,,,,,,,,,,,,,,,,,,,,,,,,,,,,,,,,,
,,1,2.4769,1,2.4769,0,43,43,4,1,109,broom,strawberry,,90497,001,2022-04-27_23h12.35.136,SPAMnetsValid,2021.1.4,MacIntel,59.97720866,,,,,,,,,,,,,,,,,,,,,,,,,,,,,,,,,,,,,,,,,,,,,,,,,,,,,,,,,,,,,,,,,,,,,,,,,,,,,,,,,,,,,,,,,
,,2,3.2912,2,3.2912,0,44,44,3,1,129,cactus,refrigerator,,90497,001,2022-04-27_23h12.35.136,SPAMnetsValid,2021.1.4,MacIntel,59.97720866,,,,,,,,,,,,,,,,,,,,,,,,,,,,,,,,,,,,,,,,,,,,,,,,,,,,,,,,,,,,,,,,,,,,,,,,,,,,,,,,,,,,,,,,,
,,6,1.3614,6,1.3614,0,45,45,42,1,184,oven,pretzel,,90497,001,2022-04-27_23h12.35.136,SPAMnetsValid,2021.1.4,MacIntel,59.97720866,,,,,,,,,,,,,,,,,,,,,,,,,,,,,,,,,,,,,,,,,,,,,,,,,,,,,,,,,,,,,,,,,,,,,,,,,,,,,,,,,,,,,,,,,
,,2,22.4758,2,22.4758,0,46,46,46,1,123,cookie,tree,,90497,001,2022-04-27_23h12.35.136,SPAMnetsValid,2021.1.4,MacIntel,59.97720866,,,,,,,,,,,,,,,,,,,,,,,,,,,,,,,,,,,,,,,,,,,,,,,,,,,,,,,,,,,,,,,,,,,,,,,,,,,,,,,,,,,,,,,,,
,,9,1.6298,9,1.6298,0,47,47,52,1,110,chocolate,cookie,,90497,001,2022-04-27_23h12.35.136,SPAMnetsValid,2021.1.4,MacIntel,59.97720866,,,,,,,,,,,,,,,,,,,,,,,,,,,,,,,,,,,,,,,,,,,,,,,,,,,,,,,,,,,,,,,,,,,,,,,,,,,,,,,,,,,,,,,,,
,,5,2.4315,5,2.4315,0,48,48,10,1,118,chocolate,oven,,90497,001,2022-04-27_23h12.35.136,SPAMnetsValid,2021.1.4,MacIntel,59.97720866,,,,,,,,,,,,,,,,,,,,,,,,,,,,,,,,,,,,,,,,,,,,,,,,,,,,,,,,,,,,,,,,,,,,,,,,,,,,,,,,,,,,,,,,,
,,4,2.5319,4,2.5319,0,49,49,35,1,147,cake,refrigerator,,90497,001,2022-04-27_23h12.35.136,SPAMnetsValid,2021.1.4,MacIntel,59.97720866,,,,,,,,,,,,,,,,,,,,,,,,,,,,,,,,,,,,,,,,,,,,,,,,,,,,,,,,,,,,,,,,,,,,,,,,,,,,,,,,,,,,,,,,,
,,4,1.5815,4,1.5815,0,50,50,67,1,96,oven,strawberry,,90497,001,2022-04-27_23h12.35.136,SPAMnetsValid,2021.1.4,MacIntel,59.97720866,,,,,,,,,,,,,,,,,,,,,,,,,,,,,,,,,,,,,,,,,,,,,,,,,,,,,,,,,,,,,,,,,,,,,,,,,,,,,,,,,,,,,,,,,
,,7,5.8009,7,5.8009,0,51,51,2,1,174,cake,pretzel,,90497,001,2022-04-27_23h12.35.136,SPAMnetsValid,2021.1.4,MacIntel,59.97720866,,,,,,,,,,,,,,,,,,,,,,,,,,,,,,,,,,,,,,,,,,,,,,,,,,,,,,,,,,,,,,,,,,,,,,,,,,,,,,,,,,,,,,,,,
,,4,2.0107,4,2.0107,0,52,52,77,1,172,kitchen,melon,,90497,001,2022-04-27_23h12.35.136,SPAMnetsValid,2021.1.4,MacIntel,59.97720866,,,,,,,,,,,,,,,,,,,,,,,,,,,,,,,,,,,,,,,,,,,,,,,,,,,,,,,,,,,,,,,,,,,,,,,,,,,,,,,,,,,,,,,,,
,,9,1.4975,9,1.4975,0,53,53,86,1,193,melon,melon,CHECK,90497,001,2022-04-27_23h12.35.136,SPAMnetsValid,2021.1.4,MacIntel,59.97720866,,,,,,,,,,,,,,,,,,,,,,,,,,,,,,,,,,,,,,,,,,,,,,,,,,,,,,,,,,,,,,,,,,,,,,,,,,,,,,,,,,,,,,,,,
,,7,2.7299,7,2.7299,0,54,54,92,1,170,cookie,microwave,,90497,001,2022-04-27_23h12.35.136,SPAMnetsValid,2021.1.4,MacIntel,59.97720866,,,,,,,,,,,,,,,,,,,,,,,,,,,,,,,,,,,,,,,,,,,,,,,,,,,,,,,,,,,,,,,,,,,,,,,,,,,,,,,,,,,,,,,,,
,,2,1.8283,2,1.8283,0,55,55,16,1,111,carrot,microwave,,90497,001,2022-04-27_23h12.35.136,SPAMnetsValid,2021.1.4,MacIntel,59.97720866,,,,,,,,,,,,,,,,,,,,,,,,,,,,,,,,,,,,,,,,,,,,,,,,,,,,,,,,,,,,,,,,,,,,,,,,,,,,,,,,,,,,,,,,,
,,9,1.9471,9,1.9471,0,56,56,66,1,150,microwave,refrigerator,,90497,001,2022-04-27_23h12.35.136,SPAMnetsValid,2021.1.4,MacIntel,59.97720866,,,,,,,,,,,,,,,,,,,,,,,,,,,,,,,,,,,,,,,,,,,,,,,,,,,,,,,,,,,,,,,,,,,,,,,,,,,,,,,,,,,,,,,,,
,,3,3.0834,3,3.0834,0,57,57,80,1,146,pretzel,tree,,90497,001,2022-04-27_23h12.35.136,SPAMnetsValid,2021.1.4,MacIntel,59.97720866,,,,,,,,,,,,,,,,,,,,,,,,,,,,,,,,,,,,,,,,,,,,,,,,,,,,,,,,,,,,,,,,,,,,,,,,,,,,,,,,,,,,,,,,,
,,8,1.6953,8,1.6953,0,58,58,70,1,141,melon,tomato,,90497,001,2022-04-27_23h12.35.136,SPAMnetsValid,2021.1.4,MacIntel,59.97720866,,,,,,,,,,,,,,,,,,,,,,,,,,,,,,,,,,,,,,,,,,,,,,,,,,,,,,,,,,,,,,,,,,,,,,,,,,,,,,,,,,,,,,,,,
,,6,12.2699,6,12.2699,0,59,59,39,1,112,cake,carrot,,90497,001,2022-04-27_23h12.35.136,SPAMnetsValid,2021.1.4,MacIntel,59.97720866,,,,,,,,,,,,,,,,,,,,,,,,,,,,,,,,,,,,,,,,,,,,,,,,,,,,,,,,,,,,,,,,,,,,,,,,,,,,,,,,,,,,,,,,,
,,6,1.5138,6,1.5138,0,60,60,91,1,166,cake,yogurt,,90497,001,2022-04-27_23h12.35.136,SPAMnetsValid,2021.1.4,MacIntel,59.97720866,,,,,,,,,,,,,,,,,,,,,,,,,,,,,,,,,,,,,,,,,,,,,,,,,,,,,,,,,,,,,,,,,,,,,,,,,,,,,,,,,,,,,,,,,
,,4,2.046,4,2.046,0,61,61,55,1,143,pretzel,rose,,90497,001,2022-04-27_23h12.35.136,SPAMnetsValid,2021.1.4,MacIntel,59.97720866,,,,,,,,,,,,,,,,,,,,,,,,,,,,,,,,,,,,,,,,,,,,,,,,,,,,,,,,,,,,,,,,,,,,,,,,,,,,,,,,,,,,,,,,,
,,7,1.4917,7,1.4917,0,62,62,83,1,100,garden,tomato,,90497,001,2022-04-27_23h12.35.136,SPAMnetsValid,2021.1.4,MacIntel,59.97720866,,,,,,,,,,,,,,,,,,,,,,,,,,,,,,,,,,,,,,,,,,,,,,,,,,,,,,,,,,,,,,,,,,,,,,,,,,,,,,,,,,,,,,,,,
,,9,2.0415,9,2.0415,0,63,63,61,1,138,flower,rose,,90497,001,2022-04-27_23h12.35.136,SPAMnetsValid,2021.1.4,MacIntel,59.97720866,,,,,,,,,,,,,,,,,,,,,,,,,,,,,,,,,,,,,,,,,,,,,,,,,,,,,,,,,,,,,,,,,,,,,,,,,,,,,,,,,,,,,,,,,
,,6,83.7298,6,83.7298,0,64,64,29,1,163,melon,refrigerator,,90497,001,2022-04-27_23h12.35.136,SPAMnetsValid,2021.1.4,MacIntel,59.97720866,,,,,,,,,,,,,,,,,,,,,,,,,,,,,,,,,,,,,,,,,,,,,,,,,,,,,,,,,,,,,,,,,,,,,,,,,,,,,,,,,,,,,,,,,
,,3,1.3465,3,1.3465,0,65,65,93,1,134,carrot,flower,,90497,001,2022-04-27_23h12.35.136,SPAMnetsValid,2021.1.4,MacIntel,59.97720866,,,,,,,,,,,,,,,,,,,,,,,,,,,,,,,,,,,,,,,,,,,,,,,,,,,,,,,,,,,,,,,,,,,,,,,,,,,,,,,,,,,,,,,,,
,,3,1.4288,3,1.4288,0,66,66,88,1,171,cake,tomato,,90497,001,2022-04-27_23h12.35.136,SPAMnetsValid,2021.1.4,MacIntel,59.97720866,,,,,,,,,,,,,,,,,,,,,,,,,,,,,,,,,,,,,,,,,,,,,,,,,,,,,,,,,,,,,,,,,,,,,,,,,,,,,,,,,,,,,,,,,
,,3,1.8155,3,1.8155,0,67,67,79,1,103,pretzel,tomato,,90497,001,2022-04-27_23h12.35.136,SPAMnetsValid,2021.1.4,MacIntel,59.97720866,,,,,,,,,,,,,,,,,,,,,,,,,,,,,,,,,,,,,,,,,,,,,,,,,,,,,,,,,,,,,,,,,,,,,,,,,,,,,,,,,,,,,,,,,
,,1,2.1407,1,2.1407,0,68,68,68,1,180,tree,yogurt,,90497,001,2022-04-27_23h12.35.136,SPAMnetsValid,2021.1.4,MacIntel,59.97720866,,,,,,,,,,,,,,,,,,,,,,,,,,,,,,,,,,,,,,,,,,,,,,,,,,,,,,,,,,,,,,,,,,,,,,,,,,,,,,,,,,,,,,,,,
,,1,1.1239,1,1.1239,0,69,69,63,1,137,microwave,tree,,90497,001,2022-04-27_23h12.35.136,SPAMnetsValid,2021.1.4,MacIntel,59.97720866,,,,,,,,,,,,,,,,,,,,,,,,,,,,,,,,,,,,,,,,,,,,,,,,,,,,,,,,,,,,,,,,,,,,,,,,,,,,,,,,,,,,,,,,,
,,6,2.5983,6,2.5983,0,70,70,33,1,131,cactus,garden,,90497,001,2022-04-27_23h12.35.136,SPAMnetsValid,2021.1.4,MacIntel,59.97720866,,,,,,,,,,,,,,,,,,,,,,,,,,,,,,,,,,,,,,,,,,,,,,,,,,,,,,,,,,,,,,,,,,,,,,,,,,,,,,,,,,,,,,,,,
,,1,1.9311,1,1.9311,0,71,71,20,1,149,broom,tomato,,90497,001,2022-04-27_23h12.35.136,SPAMnetsValid,2021.1.4,MacIntel,59.97720866,,,,,,,,,,,,,,,,,,,,,,,,,,,,,,,,,,,,,,,,,,,,,,,,,,,,,,,,,,,,,,,,,,,,,,,,,,,,,,,,,,,,,,,,,
,,3,2.2468,3,2.2468,0,72,72,26,1,107,rose,tomato,,90497,001,2022-04-27_23h12.35.136,SPAMnetsValid,2021.1.4,MacIntel,59.97720866,,,,,,,,,,,,,,,,,,,,,,,,,,,,,,,,,,,,,,,,,,,,,,,,,,,,,,,,,,,,,,,,,,,,,,,,,,,,,,,,,,,,,,,,,
,,2,1.7307,2,1.7307,0,73,73,9,1,176,cactus,tomato,,90497,001,2022-04-27_23h12.35.136,SPAMnetsValid,2021.1.4,MacIntel,59.97720866,,,,,,,,,,,,,,,,,,,,,,,,,,,,,,,,,,,,,,,,,,,,,,,,,,,,,,,,,,,,,,,,,,,,,,,,,,,,,,,,,,,,,,,,,
,,7,2.0806,7,2.0806,0,74,74,85,1,115,refrigerator,tomato,,90497,001,2022-04-27_23h12.35.136,SPAMnetsValid,2021.1.4,MacIntel,59.97720866,,,,,,,,,,,,,,,,,,,,,,,,,,,,,,,,,,,,,,,,,,,,,,,,,,,,,,,,,,,,,,,,,,,,,,,,,,,,,,,,,,,,,,,,,
,,3,1.9138,3,1.9138,0,75,75,78,1,132,broom,tree,,90497,001,2022-04-27_23h12.35.136,SPAMnetsValid,2021.1.4,MacIntel,59.97720866,,,,,,,,,,,,,,,,,,,,,,,,,,,,,,,,,,,,,,,,,,,,,,,,,,,,,,,,,,,,,,,,,,,,,,,,,,,,,,,,,,,,,,,,,
,,3,3.6138,3,3.6138,0,76,76,49,1,152,cactus,strawberry,,90497,001,2022-04-27_23h12.35.136,SPAMnetsValid,2021.1.4,MacIntel,59.97720866,,,,,,,,,,,,,,,,,,,,,,,,,,,,,,,,,,,,,,,,,,,,,,,,,,,,,,,,,,,,,,,,,,,,,,,,,,,,,,,,,,,,,,,,,
,,3,1.9479,3,1.9479,0,77,77,31,1,156,melon,rose,,90497,001,2022-04-27_23h12.35.136,SPAMnetsValid,2021.1.4,MacIntel,59.97720866,,,,,,,,,,,,,,,,,,,,,,,,,,,,,,,,,,,,,,,,,,,,,,,,,,,,,,,,,,,,,,,,,,,,,,,,,,,,,,,,,,,,,,,,,
,,4,2.172,4,2.172,0,78,78,34,1,153,carrot,pretzel,,90497,001,2022-04-27_23h12.35.136,SPAMnetsValid,2021.1.4,MacIntel,59.97720866,,,,,,,,,,,,,,,,,,,,,,,,,,,,,,,,,,,,,,,,,,,,,,,,,,,,,,,,,,,,,,,,,,,,,,,,,,,,,,,,,,,,,,,,,
,,1,2.2806,1,2.2806,0,79,79,15,1,145,cactus,yogurt,,90497,001,2022-04-27_23h12.35.136,SPAMnetsValid,2021.1.4,MacIntel,59.97720866,,,,,,,,,,,,,,,,,,,,,,,,,,,,,,,,,,,,,,,,,,,,,,,,,,,,,,,,,,,,,,,,,,,,,,,,,,,,,,,,,,,,,,,,,
,,6,1.7971,6,1.7971,0,80,80,0,1,106,cake,strawberry,,90497,001,2022-04-27_23h12.35.136,SPAMnetsValid,2021.1.4,MacIntel,59.97720866,,,,,,,,,,,,,,,,,,,,,,,,,,,,,,,,,,,,,,,,,,,,,,,,,,,,,,,,,,,,,,,,,,,,,,,,,,,,,,,,,,,,,,,,,
,,1,1.8971,1,1.8971,0,81,81,64,1,157,refrigerator,rose,,90497,001,2022-04-27_23h12.35.136,SPAMnetsValid,2021.1.4,MacIntel,59.97720866,,,,,,,,,,,,,,,,,,,,,,,,,,,,,,,,,,,,,,,,,,,,,,,,,,,,,,,,,,,,,,,,,,,,,,,,,,,,,,,,,,,,,,,,,
,,6,1.7817,6,1.7817,0,82,82,17,1,99,garden,melon,,90497,001,2022-04-27_23h12.35.136,SPAMnetsValid,2021.1.4,MacIntel,59.97720866,,,,,,,,,,,,,,,,,,,,,,,,,,,,,,,,,,,,,,,,,,,,,,,,,,,,,,,,,,,,,,,,,,,,,,,,,,,,,,,,,,,,,,,,,
,,6,1.2143,6,1.2143,0,83,83,28,1,154,strawberry,yogurt,,90497,001,2022-04-27_23h12.35.136,SPAMnetsValid,2021.1.4,MacIntel,59.97720866,,,,,,,,,,,,,,,,,,,,,,,,,,,,,,,,,,,,,,,,,,,,,,,,,,,,,,,,,,,,,,,,,,,,,,,,,,,,,,,,,,,,,,,,,
,,2,1.8309,2,1.8309,0,84,84,62,1,189,onion,tree,,90497,001,2022-04-27_23h12.35.136,SPAMnetsValid,2021.1.4,MacIntel,59.97720866,,,,,,,,,,,,,,,,,,,,,,,,,,,,,,,,,,,,,,,,,,,,,,,,,,,,,,,,,,,,,,,,,,,,,,,,,,,,,,,,,,,,,,,,,
,,7,92.8137,7,92.8137,0,85,85,53,1,177,chocolate,strawberry,,90497,001,2022-04-27_23h12.35.136,SPAMnetsValid,2021.1.4,MacIntel,59.97720866,,,,,,,,,,,,,,,,,,,,,,,,,,,,,,,,,,,,,,,,,,,,,,,,,,,,,,,,,,,,,,,,,,,,,,,,,,,,,,,,,,,,,,,,,
,,2,3.181,2,3.181,0,86,86,73,1,135,carrot,oven,,90497,001,2022-04-27_23h12.35.136,SPAMnetsValid,2021.1.4,MacIntel,59.97720866,,,,,,,,,,,,,,,,,,,,,,,,,,,,,,,,,,,,,,,,,,,,,,,,,,,,,,,,,,,,,,,,,,,,,,,,,,,,,,,,,,,,,,,,,
,,3,1.8148,3,1.8148,0,87,87,24,1,169,onion,yogurt,,90497,001,2022-04-27_23h12.35.136,SPAMnetsValid,2021.1.4,MacIntel,59.97720866,,,,,,,,,,,,,,,,,,,,,,,,,,,,,,,,,,,,,,,,,,,,,,,,,,,,,,,,,,,,,,,,,,,,,,,,,,,,,,,,,,,,,,,,,
,,2,11.8671,2,11.8671,0,88,88,81,1,104,garden,microwave,,90497,001,2022-04-27_23h12.35.136,SPAMnetsValid,2021.1.4,MacIntel,59.97720866,,,,,,,,,,,,,,,,,,,,,,,,,,,,,,,,,,,,,,,,,,,,,,,,,,,,,,,,,,,,,,,,,,,,,,,,,,,,,,,,,,,,,,,,,
,,2,1.3133,2,1.3133,0,89,89,13,1,105,cactus,oven,,90497,001,2022-04-27_23h12.35.136,SPAMnetsValid,2021.1.4,MacIntel,59.97720866,,,,,,,,,,,,,,,,,,,,,,,,,,,,,,,,,,,,,,,,,,,,,,,,,,,,,,,,,,,,,,,,,,,,,,,,,,,,,,,,,,,,,,,,,
,,5,4.815,5,4.815,0,90,90,72,1,181,carrot,kitchen,,90497,001,2022-04-27_23h12.35.136,SPAMnetsValid,2021.1.4,MacIntel,59.97720866,,,,,,,,,,,,,,,,,,,,,,,,,,,,,,,,,,,,,,,,,,,,,,,,,,,,,,,,,,,,,,,,,,,,,,,,,,,,,,,,,,,,,,,,,
,,2,42.4975,2,42.4975,0,91,91,57,1,127,cactus,chocolate,,90497,001,2022-04-27_23h12.35.136,SPAMnetsValid,2021.1.4,MacIntel,59.97720866,,,,,,,,,,,,,,,,,,,,,,,,,,,,,,,,,,,,,,,,,,,,,,,,,,,,,,,,,,,,,,,,,,,,,,,,,,,,,,,,,,,,,,,,,
,,3,3.0642,3,3.0642,0,92,92,18,1,119,strawberry,tree,,90497,001,2022-04-27_23h12.35.136,SPAMnetsValid,2021.1.4,MacIntel,59.97720866,,,,,,,,,,,,,,,,,,,,,,,,,,,,,,,,,,,,,,,,,,,,,,,,,,,,,,,,,,,,,,,,,,,,,,,,,,,,,,,,,,,,,,,,,
,,2,42.9667,2,42.9667,0,93,93,74,1,128,melon,microwave,,90497,001,2022-04-27_23h12.35.136,SPAMnetsValid,2021.1.4,MacIntel,59.97720866,,,,,,,,,,,,,,,,,,,,,,,,,,,,,,,,,,,,,,,,,,,,,,,,,,,,,,,,,,,,,,,,,,,,,,,,,,,,,,,,,,,,,,,,,
,,9,1.8137,9,1.8137,0,94,94,14,1,120,microwave,oven,,90497,001,2022-04-27_23h12.35.136,SPAMnetsValid,2021.1.4,MacIntel,59.97720866,,,,,,,,,,,,,,,,,,,,,,,,,,,,,,,,,,,,,,,,,,,,,,,,,,,,,,,,,,,,,,,,,,,,,,,,,,,,,,,,,,,,,,,,,
,,5,2.7647,5,2.7647,0,95,95,48,1,186,kitchen,yogurt,,90497,001,2022-04-27_23h12.35.136,SPAMnetsValid,2021.1.4,MacIntel,59.97720866,,,,,,,,,,,,,,,,,,,,,,,,,,,,,,,,,,,,,,,,,,,,,,,,,,,,,,,,,,,,,,,,,,,,,,,,,,,,,,,,,,,,,,,,,
,,3,1.908,3,1.908,0,96,96,23,1,148,flower,melon,,90497,001,2022-04-27_23h12.35.136,SPAMnetsValid,2021.1.4,MacIntel,59.97720866,,,,,,,,,,,,,,,,,,,,,,,,,,,,,,,,,,,,,,,,,,,,,,,,,,,,,,,,,,,,,,,,,,,,,,,,,,,,,,,,,,,,,,,,,
,,,,,,,,,,,,,,,90497,001,2022-04-27_23h12.35.136,SPAMnetsValid,2021.1.4,MacIntel,59.97720866,0,0,0,0,1,,,,,,,,,,,,,,,,,,,,,,,,,,,,,,,,,,,,,,,,,,,,,,,,,,,,,,,,,,,,,,,,,,,,,,,,,,,,,,,,,,,,
,,,,,,,,,,,,,,,90497,001,2022-04-27_23h12.35.136,SPAMnetsValid,2021.1.4,MacIntel,59.97720866,,,,,,0,0,0,1,1,0,1,,,,,,,,,,,,,,,,,,,,,,,,,,,,,,,,,,,,,,,,,,,,,,,,,,,,,,,,,,,,,,,,,,,,,,,,,,,,,
,,,,4,1.9784,,,,,,26,tomato,yogurt,,90497,001,2022-04-27_23h12.35.136,SPAMnetsValid,2021.1.4,MacIntel,59.97720866,,,,,,,,,,,,,4,1.9784,0,0,0,13,1,,,,,,,,,,,,,,,,,,,,,,,,,,,,,,,,,,,,,,,,,,,,,,,,,,,,,,,,,,,,,,,,,,,,,,
,,,,3,2.3958,,,,,,49,flower,strawberry,,90497,001,2022-04-27_23h12.35.136,SPAMnetsValid,2021.1.4,MacIntel,59.97720866,,,,,,,,,,,,,3,2.3958,0,1,1,3,1,,,,,,,,,,,,,,,,,,,,,,,,,,,,,,,,,,,,,,,,,,,,,,,,,,,,,,,,,,,,,,,,,,,,,,
,,,,2,1.7152,,,,,,67,flower,yogurt,,90497,001,2022-04-27_23h12.35.136,SPAMnetsValid,2021.1.4,MacIntel,59.97720866,,,,,,,,,,,,,2,1.7152,0,2,2,12,1,,,,,,,,,,,,,,,,,,,,,,,,,,,,,,,,,,,,,,,,,,,,,,,,,,,,,,,,,,,,,,,,,,,,,,
,,,,5,2.1826,,,,,,44,cookie,melon,,90497,001,2022-04-27_23h12.35.136,SPAMnetsValid,2021.1.4,MacIntel,59.97720866,,,,,,,,,,,,,5,2.1826,0,3,3,92,1,,,,,,,,,,,,,,,,,,,,,,,,,,,,,,,,,,,,,,,,,,,,,,,,,,,,,,,,,,,,,,,,,,,,,,
,,,,5,2.5144,,,,,,21,cake,onion,,90497,001,2022-04-27_23h12.35.136,SPAMnetsValid,2021.1.4,MacIntel,59.97720866,,,,,,,,,,,,,5,2.5144,0,4,4,63,1,,,,,,,,,,,,,,,,,,,,,,,,,,,,,,,,,,,,,,,,,,,,,,,,,,,,,,,,,,,,,,,,,,,,,,
,,,,3,1.6632,,,,,,42,garden,kitchen,,90497,001,2022-04-27_23h12.35.136,SPAMnetsValid,2021.1.4,MacIntel,59.97720866,,,,,,,,,,,,,3,1.6632,0,5,5,29,1,,,,,,,,,,,,,,,,,,,,,,,,,,,,,,,,,,,,,,,,,,,,,,,,,,,,,,,,,,,,,,,,,,,,,,
,,,,6,1.9142,,,,,,43,chocolate,tomato,,90497,001,2022-04-27_23h12.35.136,SPAMnetsValid,2021.1.4,MacIntel,59.97720866,,,,,,,,,,,,,6,1.9142,0,6,6,8,1,,,,,,,,,,,,,,,,,,,,,,,,,,,,,,,,,,,,,,,,,,,,,,,,,,,,,,,,,,,,,,,,,,,,,,
,,,,3,2.2155,,,,,,78,cookie,rose,,90497,001,2022-04-27_23h12.35.136,SPAMnetsValid,2021.1.4,MacIntel,59.97720866,,,,,,,,,,,,,3,2.2155,0,7,7,56,1,,,,,,,,,,,,,,,,,,,,,,,,,,,,,,,,,,,,,,,,,,,,,,,,,,,,,,,,,,,,,,,,,,,,,,
,,,,2,2.4657,,,,,,48,flower,oven,,90497,001,2022-04-27_23h12.35.136,SPAMnetsValid,2021.1.4,MacIntel,59.97720866,,,,,,,,,,,,,2,2.4657,0,8,8,15,1,,,,,,,,,,,,,,,,,,,,,,,,,,,,,,,,,,,,,,,,,,,,,,,,,,,,,,,,,,,,,,,,,,,,,,
,,,,9,1.3612,,,,,,63,cake,cookie,,90497,001,2022-04-27_23h12.35.136,SPAMnetsValid,2021.1.4,MacIntel,59.97720866,,,,,,,,,,,,,9,1.3612,0,9,9,93,1,,,,,,,,,,,,,,,,,,,,,,,,,,,,,,,,,,,,,,,,,,,,,,,,,,,,,,,,,,,,,,,,,,,,,,
,,,,8,2.2808,,,,,,79,garden,strawberry,,90497,001,2022-04-27_23h12.35.136,SPAMnetsValid,2021.1.4,MacIntel,59.97720866,,,,,,,,,,,,,8,2.2808,0,10,10,87,1,,,,,,,,,,,,,,,,,,,,,,,,,,,,,,,,,,,,,,,,,,,,,,,,,,,,,,,,,,,,,,,,,,,,,,
,,,,6,2.7981,,,,,,18,onion,refrigerator,,90497,001,2022-04-27_23h12.35.136,SPAMnetsValid,2021.1.4,MacIntel,59.97720866,,,,,,,,,,,,,6,2.7981,0,11,11,62,1,,,,,,,,,,,,,,,,,,,,,,,,,,,,,,,,,,,,,,,,,,,,,,,,,,,,,,,,,,,,,,,,,,,,,,
,,,,3,2.1289,,,,,,37,garden,refrigerator,,90497,001,2022-04-27_23h12.35.136,SPAMnetsValid,2021.1.4,MacIntel,59.97720866,,,,,,,,,,,,,3,2.1289,0,12,12,11,1,,,,,,,,,,,,,,,,,,,,,,,,,,,,,,,,,,,,,,,,,,,,,,,,,,,,,,,,,,,,,,,,,,,,,,
,,,,7,2.6141,,,,,,77,refrigerator,yogurt,,90497,001,2022-04-27_23h12.35.136,SPAMnetsValid,2021.1.4,MacIntel,59.97720866,,,,,,,,,,,,,7,2.6141,0,13,13,42,1,,,,,,,,,,,,,,,,,,,,,,,,,,,,,,,,,,,,,,,,,,,,,,,,,,,,,,,,,,,,,,,,,,,,,,
,,,,1,1.8142,,,,,,13,broom,yogurt,,90497,001,2022-04-27_23h12.35.136,SPAMnetsValid,2021.1.4,MacIntel,59.97720866,,,,,,,,,,,,,1,1.8142,0,14,14,5,1,,,,,,,,,,,,,,,,,,,,,,,,,,,,,,,,,,,,,,,,,,,,,,,,,,,,,,,,,,,,,,,,,,,,,,
,,,,9,1.525,,,,,,191,cake,cake,CHECK,90497,001,2022-04-27_23h12.35.136,SPAMnetsValid,2021.1.4,MacIntel,59.97720866,,,,,,,,,,,,,9,1.525,0,15,15,10,1,,,,,,,,,,,,,,,,,,,,,,,,,,,,,,,,,,,,,,,,,,,,,,,,,,,,,,,,,,,,,,,,,,,,,,
,,,,1,2.0502,,,,,,92,broom,flower,,90497,001,2022-04-27_23h12.35.136,SPAMnetsValid,2021.1.4,MacIntel,59.97720866,,,,,,,,,,,,,1,2.0502,0,16,16,88,1,,,,,,,,,,,,,,,,,,,,,,,,,,,,,,,,,,,,,,,,,,,,,,,,,,,,,,,,,,,,,,,,,,,,,,
,,,,4,1.9978,,,,,,62,kitchen,rose,,90497,001,2022-04-27_23h12.35.136,SPAMnetsValid,2021.1.4,MacIntel,59.97720866,,,,,,,,,,,,,4,1.9978,0,17,17,57,1,,,,,,,,,,,,,,,,,,,,,,,,,,,,,,,,,,,,,,,,,,,,,,,,,,,,,,,,,,,,,,,,,,,,,,
,,,,3,5.2166,,,,,,58,garden,oven,,90497,001,2022-04-27_23h12.35.136,SPAMnetsValid,2021.1.4,MacIntel,59.97720866,,,,,,,,,,,,,3,5.2166,0,18,18,37,1,,,,,,,,,,,,,,,,,,,,,,,,,,,,,,,,,,,,,,,,,,,,,,,,,,,,,,,,,,,,,,,,,,,,,,
,,,,6,34.8302,,,,,,69,carrot,refrigerator,,90497,001,2022-04-27_23h12.35.136,SPAMnetsValid,2021.1.4,MacIntel,59.97720866,,,,,,,,,,,,,6,34.8302,0,19,19,75,1,,,,,,,,,,,,,,,,,,,,,,,,,,,,,,,,,,,,,,,,,,,,,,,,,,,,,,,,,,,,,,,,,,,,,,
,,,,3,1.3963,,,,,,72,broom,onion,,90497,001,2022-04-27_23h12.35.136,SPAMnetsValid,2021.1.4,MacIntel,59.97720866,,,,,,,,,,,,,3,1.3963,0,20,20,27,1,,,,,,,,,,,,,,,,,,,,,,,,,,,,,,,,,,,,,,,,,,,,,,,,,,,,,,,,,,,,,,,,,,,,,,
,,,,2,2.5316,,,,,,46,garden,yogurt,,90497,001,2022-04-27_23h12.35.136,SPAMnetsValid,2021.1.4,MacIntel,59.97720866,,,,,,,,,,,,,2,2.5316,0,21,21,65,1,,,,,,,,,,,,,,,,,,,,,,,,,,,,,,,,,,,,,,,,,,,,,,,,,,,,,,,,,,,,,,,,,,,,,,
,,,,1,1.3637,,,,,,14,broom,cookie,,90497,001,2022-04-27_23h12.35.136,SPAMnetsValid,2021.1.4,MacIntel,59.97720866,,,,,,,,,,,,,1,1.3637,0,22,22,16,1,,,,,,,,,,,,,,,,,,,,,,,,,,,,,,,,,,,,,,,,,,,,,,,,,,,,,,,,,,,,,,,,,,,,,,
,,,,5,2.714,,,,,,28,cake,melon,,90497,001,2022-04-27_23h12.35.136,SPAMnetsValid,2021.1.4,MacIntel,59.97720866,,,,,,,,,,,,,5,2.714,0,23,23,54,1,,,,,,,,,,,,,,,,,,,,,,,,,,,,,,,,,,,,,,,,,,,,,,,,,,,,,,,,,,,,,,,,,,,,,,
,,,,6,2.1646,,,,,,12,cookie,yogurt,,90497,001,2022-04-27_23h12.35.136,SPAMnetsValid,2021.1.4,MacIntel,59.97720866,,,,,,,,,,,,,6,2.1646,0,24,24,36,1,,,,,,,,,,,,,,,,,,,,,,,,,,,,,,,,,,,,,,,,,,,,,,,,,,,,,,,,,,,,,,,,,,,,,,
,,,,1,2.0253,,,,,,31,cactus,pretzel,,90497,001,2022-04-27_23h12.35.136,SPAMnetsValid,2021.1.4,MacIntel,59.97720866,,,,,,,,,,,,,1,2.0253,0,25,25,1,1,,,,,,,,,,,,,,,,,,,,,,,,,,,,,,,,,,,,,,,,,,,,,,,,,,,,,,,,,,,,,,,,,,,,,,
,,,,5,2.8308,,,,,,59,rose,strawberry,,90497,001,2022-04-27_23h12.35.136,SPAMnetsValid,2021.1.4,MacIntel,59.97720866,,,,,,,,,,,,,5,2.8308,0,26,26,72,1,,,,,,,,,,,,,,,,,,,,,,,,,,,,,,,,,,,,,,,,,,,,,,,,,,,,,,,,,,,,,,,,,,,,,,
,,,,6,3.1819,,,,,,95,broom,refrigerator,,90497,001,2022-04-27_23h12.35.136,SPAMnetsValid,2021.1.4,MacIntel,59.97720866,,,,,,,,,,,,,6,3.1819,0,27,27,90,1,,,,,,,,,,,,,,,,,,,,,,,,,,,,,,,,,,,,,,,,,,,,,,,,,,,,,,,,,,,,,,,,,,,,,,
,,,,2,4.734,,,,,,35,flower,pretzel,,90497,001,2022-04-27_23h12.35.136,SPAMnetsValid,2021.1.4,MacIntel,59.97720866,,,,,,,,,,,,,2,4.734,0,28,28,26,1,,,,,,,,,,,,,,,,,,,,,,,,,,,,,,,,,,,,,,,,,,,,,,,,,,,,,,,,,,,,,,,,,,,,,,
,,,,3,1.5982,,,,,,57,flower,kitchen,,90497,001,2022-04-27_23h12.35.136,SPAMnetsValid,2021.1.4,MacIntel,59.97720866,,,,,,,,,,,,,3,1.5982,0,29,29,49,1,,,,,,,,,,,,,,,,,,,,,,,,,,,,,,,,,,,,,,,,,,,,,,,,,,,,,,,,,,,,,,,,,,,,,,
,,,,8,1.9152,,,,,,52,carrot,tomato,,90497,001,2022-04-27_23h12.35.136,SPAMnetsValid,2021.1.4,MacIntel,59.97720866,,,,,,,,,,,,,8,1.9152,0,30,30,95,1,,,,,,,,,,,,,,,,,,,,,,,,,,,,,,,,,,,,,,,,,,,,,,,,,,,,,,,,,,,,,,,,,,,,,,
,,,,2,4.5327,,,,,,45,onion,pretzel,,90497,001,2022-04-27_23h12.35.136,SPAMnetsValid,2021.1.4,MacIntel,59.97720866,,,,,,,,,,,,,2,4.5327,0,31,31,69,1,,,,,,,,,,,,,,,,,,,,,,,,,,,,,,,,,,,,,,,,,,,,,,,,,,,,,,,,,,,,,,,,,,,,,,
,,,,7,6.1177,,,,,,32,cake,microwave,,90497,001,2022-04-27_23h12.35.136,SPAMnetsValid,2021.1.4,MacIntel,59.97720866,,,,,,,,,,,,,7,6.1177,0,32,32,33,1,,,,,,,,,,,,,,,,,,,,,,,,,,,,,,,,,,,,,,,,,,,,,,,,,,,,,,,,,,,,,,,,,,,,,,
,,,,8,5.7091,,,,,,94,kitchen,microwave,,90497,001,2022-04-27_23h12.35.136,SPAMnetsValid,2021.1.4,MacIntel,59.97720866,,,,,,,,,,,,,8,5.7091,0,33,33,58,1,,,,,,,,,,,,,,,,,,,,,,,,,,,,,,,,,,,,,,,,,,,,,,,,,,,,,,,,,,,,,,,,,,,,,,
,,,,4,12.5814,,,,,,1,rose,yogurt,,90497,001,2022-04-27_23h12.35.136,SPAMnetsValid,2021.1.4,MacIntel,59.97720866,,,,,,,,,,,,,4,12.5814,0,34,34,55,1,,,,,,,,,,,,,,,,,,,,,,,,,,,,,,,,,,,,,,,,,,,,,,,,,,,,,,,,,,,,,,,,,,,,,,
,,,,4,22.324,,,,,,38,pretzel,refrigerator,,90497,001,2022-04-27_23h12.35.136,SPAMnetsValid,2021.1.4,MacIntel,59.97720866,,,,,,,,,,,,,4,22.324,0,35,35,71,1,,,,,,,,,,,,,,,,,,,,,,,,,,,,,,,,,,,,,,,,,,,,,,,,,,,,,,,,,,,,,,,,,,,,,,
,,,,6,9.467,,,,,,66,melon,yogurt,,90497,001,2022-04-27_23h12.35.136,SPAMnetsValid,2021.1.4,MacIntel,59.97720866,,,,,,,,,,,,,6,9.467,0,36,36,48,1,,,,,,,,,,,,,,,,,,,,,,,,,,,,,,,,,,,,,,,,,,,,,,,,,,,,,,,,,,,,,,,,,,,,,,
,,,,4,13.7692,,,,,,2,kitchen,onion,,90497,001,2022-04-27_23h12.35.136,SPAMnetsValid,2021.1.4,MacIntel,59.97720866,,,,,,,,,,,,,4,13.7692,0,37,37,91,1,,,,,,,,,,,,,,,,,,,,,,,,,,,,,,,,,,,,,,,,,,,,,,,,,,,,,,,,,,,,,,,,,,,,,,
,,,,2,1.9147,,,,,,27,cactus,cookie,,90497,001,2022-04-27_23h12.35.136,SPAMnetsValid,2021.1.4,MacIntel,59.97720866,,,,,,,,,,,,,2,1.9147,0,38,38,17,1,,,,,,,,,,,,,,,,,,,,,,,,,,,,,,,,,,,,,,,,,,,,,,,,,,,,,,,,,,,,,,,,,,,,,,
,,,,3,2.2454,,,,,,60,cactus,onion,,90497,001,2022-04-27_23h12.35.136,SPAMnetsValid,2021.1.4,MacIntel,59.97720866,,,,,,,,,,,,,3,2.2454,0,39,39,81,1,,,,,,,,,,,,,,,,,,,,,,,,,,,,,,,,,,,,,,,,,,,,,,,,,,,,,,,,,,,,,,,,,,,,,,
,,,,1,2.1808,,,,,,65,broom,garden,,90497,001,2022-04-27_23h12.35.136,SPAMnetsValid,2021.1.4,MacIntel,59.97720866,,,,,,,,,,,,,1,2.1808,0,40,40,23,1,,,,,,,,,,,,,,,,,,,,,,,,,,,,,,,,,,,,,,,,,,,,,,,,,,,,,,,,,,,,,,,,,,,,,,
,,,,6,2.0755,,,,,,61,strawberry,tomato,,90497,001,2022-04-27_23h12.35.136,SPAMnetsValid,2021.1.4,MacIntel,59.97720866,,,,,,,,,,,,,6,2.0755,0,41,41,80,1,,,,,,,,,,,,,,,,,,,,,,,,,,,,,,,,,,,,,,,,,,,,,,,,,,,,,,,,,,,,,,,,,,,,,,
,,,,2,4.7831,,,,,,11,refrigerator,tree,,90497,001,2022-04-27_23h12.35.136,SPAMnetsValid,2021.1.4,MacIntel,59.97720866,,,,,,,,,,,,,2,4.7831,0,42,42,43,1,,,,,,,,,,,,,,,,,,,,,,,,,,,,,,,,,,,,,,,,,,,,,,,,,,,,,,,,,,,,,,,,,,,,,,
,,,,3,2.1967,,,,,,80,chocolate,tree,,90497,001,2022-04-27_23h12.35.136,SPAMnetsValid,2021.1.4,MacIntel,59.97720866,,,,,,,,,,,,,3,2.1967,0,43,43,89,1,,,,,,,,,,,,,,,,,,,,,,,,,,,,,,,,,,,,,,,,,,,,,,,,,,,,,,,,,,,,,,,,,,,,,,
,,,,2,2.5174,,,,,,5,oven,tree,,90497,001,2022-04-27_23h12.35.136,SPAMnetsValid,2021.1.4,MacIntel,59.97720866,,,,,,,,,,,,,2,2.5174,0,44,44,70,1,,,,,,,,,,,,,,,,,,,,,,,,,,,,,,,,,,,,,,,,,,,,,,,,,,,,,,,,,,,,,,,,,,,,,,
,,,,1,1.5419,,,,,,73,broom,chocolate,,90497,001,2022-04-27_23h12.35.136,SPAMnetsValid,2021.1.4,MacIntel,59.97720866,,,,,,,,,,,,,1,1.5419,0,45,45,47,1,,,,,,,,,,,,,,,,,,,,,,,,,,,,,,,,,,,,,,,,,,,,,,,,,,,,,,,,,,,,,,,,,,,,,,
,,,,8,8.3806,,,,,,93,kitchen,oven,,90497,001,2022-04-27_23h12.35.136,SPAMnetsValid,2021.1.4,MacIntel,59.97720866,,,,,,,,,,,,,8,8.3806,0,46,46,82,1,,,,,,,,,,,,,,,,,,,,,,,,,,,,,,,,,,,,,,,,,,,,,,,,,,,,,,,,,,,,,,,,,,,,,,
,,,,2,1.5468,,,,,,33,oven,yogurt,,90497,001,2022-04-27_23h12.35.136,SPAMnetsValid,2021.1.4,MacIntel,59.97720866,,,,,,,,,,,,,2,1.5468,0,47,47,31,1,,,,,,,,,,,,,,,,,,,,,,,,,,,,,,,,,,,,,,,,,,,,,,,,,,,,,,,,,,,,,,,,,,,,,,
,,,,2,1.7484,,,,,,71,broom,rose,,90497,001,2022-04-27_23h12.35.136,SPAMnetsValid,2021.1.4,MacIntel,59.97720866,,,,,,,,,,,,,2,1.7484,0,48,48,61,1,,,,,,,,,,,,,,,,,,,,,,,,,,,,,,,,,,,,,,,,,,,,,,,,,,,,,,,,,,,,,,,,,,,,,,
,,,,8,1.8474,,,,,,47,onion,tomato,,90497,001,2022-04-27_23h12.35.136,SPAMnetsValid,2021.1.4,MacIntel,59.97720866,,,,,,,,,,,,,8,1.8474,0,49,49,51,1,,,,,,,,,,,,,,,,,,,,,,,,,,,,,,,,,,,,,,,,,,,,,,,,,,,,,,,,,,,,,,,,,,,,,,
,,,,8,1.2804,,,,,,6,garden,onion,,90497,001,2022-04-27_23h12.35.136,SPAMnetsValid,2021.1.4,MacIntel,59.97720866,,,,,,,,,,,,,8,1.2804,0,50,50,83,1,,,,,,,,,,,,,,,,,,,,,,,,,,,,,,,,,,,,,,,,,,,,,,,,,,,,,,,,,,,,,,,,,,,,,,
,,,,6,2.2455,,,,,,81,pretzel,yogurt,,90497,001,2022-04-27_23h12.35.136,SPAMnetsValid,2021.1.4,MacIntel,59.97720866,,,,,,,,,,,,,6,2.2455,0,51,51,50,1,,,,,,,,,,,,,,,,,,,,,,,,,,,,,,,,,,,,,,,,,,,,,,,,,,,,,,,,,,,,,,,,,,,,,,
,,,,6,2.1643,,,,,,54,chocolate,yogurt,,90497,001,2022-04-27_23h12.35.136,SPAMnetsValid,2021.1.4,MacIntel,59.97720866,,,,,,,,,,,,,6,2.1643,0,52,52,67,1,,,,,,,,,,,,,,,,,,,,,,,,,,,,,,,,,,,,,,,,,,,,,,,,,,,,,,,,,,,,,,,,,,,,,,
,,,,3,19.2491,,,,,,85,cake,tree,,90497,001,2022-04-27_23h12.35.136,SPAMnetsValid,2021.1.4,MacIntel,59.97720866,,,,,,,,,,,,,3,19.2491,0,53,53,18,1,,,,,,,,,,,,,,,,,,,,,,,,,,,,,,,,,,,,,,,,,,,,,,,,,,,,,,,,,,,,,,,,,,,,,,
,,,,3,1.7945,,,,,,86,oven,rose,,90497,001,2022-04-27_23h12.35.136,SPAMnetsValid,2021.1.4,MacIntel,59.97720866,,,,,,,,,,,,,3,1.7945,0,54,54,79,1,,,,,,,,,,,,,,,,,,,,,,,,,,,,,,,,,,,,,,,,,,,,,,,,,,,,,,,,,,,,,,,,,,,,,,
,,,,4,3.9176,,,,,,68,flower,tomato,,90497,001,2022-04-27_23h12.35.136,SPAMnetsValid,2021.1.4,MacIntel,59.97720866,,,,,,,,,,,,,4,3.9176,0,55,55,94,1,,,,,,,,,,,,,,,,,,,,,,,,,,,,,,,,,,,,,,,,,,,,,,,,,,,,,,,,,,,,,,,,,,,,,,
,,,,8,7.2837,,,,,,56,cactus,tree,,90497,001,2022-04-27_23h12.35.136,SPAMnetsValid,2021.1.4,MacIntel,59.97720866,,,,,,,,,,,,,8,7.2837,0,56,56,21,1,,,,,,,,,,,,,,,,,,,,,,,,,,,,,,,,,,,,,,,,,,,,,,,,,,,,,,,,,,,,,,,,,,,,,,
,,,,3,6.6478,,,,,,64,chocolate,garden,,90497,001,2022-04-27_23h12.35.136,SPAMnetsValid,2021.1.4,MacIntel,59.97720866,,,,,,,,,,,,,3,6.6478,0,57,57,14,1,,,,,,,,,,,,,,,,,,,,,,,,,,,,,,,,,,,,,,,,,,,,,,,,,,,,,,,,,,,,,,,,,,,,,,
,,,,5,1.9314,,,,,,75,cookie,onion,,90497,001,2022-04-27_23h12.35.136,SPAMnetsValid,2021.1.4,MacIntel,59.97720866,,,,,,,,,,,,,5,1.9314,0,58,58,9,1,,,,,,,,,,,,,,,,,,,,,,,,,,,,,,,,,,,,,,,,,,,,,,,,,,,,,,,,,,,,,,,,,,,,,,
,,,,3,1.3313,,,,,,91,microwave,rose,,90497,001,2022-04-27_23h12.35.136,SPAMnetsValid,2021.1.4,MacIntel,59.97720866,,,,,,,,,,,,,3,1.3313,0,59,59,84,1,,,,,,,,,,,,,,,,,,,,,,,,,,,,,,,,,,,,,,,,,,,,,,,,,,,,,,,,,,,,,,,,,,,,,,
,,,,3,3.3637,,,,,,15,onion,oven,,90497,001,2022-04-27_23h12.35.136,SPAMnetsValid,2021.1.4,MacIntel,59.97720866,,,,,,,,,,,,,3,3.3637,0,60,60,39,1,,,,,,,,,,,,,,,,,,,,,,,,,,,,,,,,,,,,,,,,,,,,,,,,,,,,,,,,,,,,,,,,,,,,,,
,,,,7,1.9649,,,,,,17,carrot,melon,,90497,001,2022-04-27_23h12.35.136,SPAMnetsValid,2021.1.4,MacIntel,59.97720866,,,,,,,,,,,,,7,1.9649,0,61,61,24,1,,,,,,,,,,,,,,,,,,,,,,,,,,,,,,,,,,,,,,,,,,,,,,,,,,,,,,,,,,,,,,,,,,,,,,
,,,,7,7.9847,,,,,,20,rose,tree,,90497,001,2022-04-27_23h12.35.136,SPAMnetsValid,2021.1.4,MacIntel,59.97720866,,,,,,,,,,,,,7,7.9847,0,62,62,66,1,,,,,,,,,,,,,,,,,,,,,,,,,,,,,,,,,,,,,,,,,,,,,,,,,,,,,,,,,,,,,,,,,,,,,,
,,,,1,3.1299,,,,,,83,broom,carrot,,90497,001,2022-04-27_23h12.35.136,SPAMnetsValid,2021.1.4,MacIntel,59.97720866,,,,,,,,,,,,,1,3.1299,0,63,63,4,1,,,,,,,,,,,,,,,,,,,,,,,,,,,,,,,,,,,,,,,,,,,,,,,,,,,,,,,,,,,,,,,,,,,,,,
,,,,1,3.6804,,,,,,53,garden,pretzel,,90497,001,2022-04-27_23h12.35.136,SPAMnetsValid,2021.1.4,MacIntel,59.97720866,,,,,,,,,,,,,1,3.6804,0,64,64,0,1,,,,,,,,,,,,,,,,,,,,,,,,,,,,,,,,,,,,,,,,,,,,,,,,,,,,,,,,,,,,,,,,,,,,,,
,,,,7,4.7504,,,,,,24,cookie,tomato,,90497,001,2022-04-27_23h12.35.136,SPAMnetsValid,2021.1.4,MacIntel,59.97720866,,,,,,,,,,,,,7,4.7504,0,65,65,68,1,,,,,,,,,,,,,,,,,,,,,,,,,,,,,,,,,,,,,,,,,,,,,,,,,,,,,,,,,,,,,,,,,,,,,,
,,,,1,2.0484,,,,,,8,broom,melon,,90497,001,2022-04-27_23h12.35.136,SPAMnetsValid,2021.1.4,MacIntel,59.97720866,,,,,,,,,,,,,1,2.0484,0,66,66,59,1,,,,,,,,,,,,,,,,,,,,,,,,,,,,,,,,,,,,,,,,,,,,,,,,,,,,,,,,,,,,,,,,,,,,,,
,,,,7,3.5304,,,,,,4,chocolate,pretzel,,90497,001,2022-04-27_23h12.35.136,SPAMnetsValid,2021.1.4,MacIntel,59.97720866,,,,,,,,,,,,,7,3.5304,0,67,67,52,1,,,,,,,,,,,,,,,,,,,,,,,,,,,,,,,,,,,,,,,,,,,,,,,,,,,,,,,,,,,,,,,,,,,,,,
,,,,6,1.8636,,,,,,70,chocolate,onion,,90497,001,2022-04-27_23h12.35.136,SPAMnetsValid,2021.1.4,MacIntel,59.97720866,,,,,,,,,,,,,6,1.8636,0,68,68,74,1,,,,,,,,,,,,,,,,,,,,,,,,,,,,,,,,,,,,,,,,,,,,,,,,,,,,,,,,,,,,,,,,,,,,,,
,,,,3,1.5141,,,,,,7,melon,tree,,90497,001,2022-04-27_23h12.35.136,SPAMnetsValid,2021.1.4,MacIntel,59.97720866,,,,,,,,,,,,,3,1.5141,0,69,69,77,1,,,,,,,,,,,,,,,,,,,,,,,,,,,,,,,,,,,,,,,,,,,,,,,,,,,,,,,,,,,,,,,,,,,,,,
,,,,2,1.8812,,,,,,19,microwave,pretzel,,90497,001,2022-04-27_23h12.35.136,SPAMnetsValid,2021.1.4,MacIntel,59.97720866,,,,,,,,,,,,,2,1.8812,0,70,70,41,1,,,,,,,,,,,,,,,,,,,,,,,,,,,,,,,,,,,,,,,,,,,,,,,,,,,,,,,,,,,,,,,,,,,,,,
,,,,2,0.9801,,,,,,16,chocolate,flower,,90497,001,2022-04-27_23h12.35.136,SPAMnetsValid,2021.1.4,MacIntel,59.97720866,,,,,,,,,,,,,2,0.9801,0,71,71,22,1,,,,,,,,,,,,,,,,,,,,,,,,,,,,,,,,,,,,,,,,,,,,,,,,,,,,,,,,,,,,,,,,,,,,,,
,,,,4,1.313,,,,,,34,melon,oven,,90497,001,2022-04-27_23h12.35.136,SPAMnetsValid,2021.1.4,MacIntel,59.97720866,,,,,,,,,,,,,4,1.313,0,72,72,7,1,,,,,,,,,,,,,,,,,,,,,,,,,,,,,,,,,,,,,,,,,,,,,,,,,,,,,,,,,,,,,,,,,,,,,,
,,,,7,1.6795,,,,,,3,cake,oven,,90497,001,2022-04-27_23h12.35.136,SPAMnetsValid,2021.1.4,MacIntel,59.97720866,,,,,,,,,,,,,7,1.6795,0,73,73,30,1,,,,,,,,,,,,,,,,,,,,,,,,,,,,,,,,,,,,,,,,,,,,,,,,,,,,,,,,,,,,,,,,,,,,,,
,,,,2,1.7571,,,,,,41,broom,cactus,,90497,001,2022-04-27_23h12.35.136,SPAMnetsValid,2021.1.4,MacIntel,59.97720866,,,,,,,,,,,,,2,1.7571,0,74,74,46,1,,,,,,,,,,,,,,,,,,,,,,,,,,,,,,,,,,,,,,,,,,,,,,,,,,,,,,,,,,,,,,,,,,,,,,
,,,,1,1.664,,,,,,40,broom,cake,,90497,001,2022-04-27_23h12.35.136,SPAMnetsValid,2021.1.4,MacIntel,59.97720866,,,,,,,,,,,,,1,1.664,0,75,75,32,1,,,,,,,,,,,,,,,,,,,,,,,,,,,,,,,,,,,,,,,,,,,,,,,,,,,,,,,,,,,,,,,,,,,,,,
,,,,9,1.4467,,,,,,192,microwave,microwave,CHECK,90497,001,2022-04-27_23h12.35.136,SPAMnetsValid,2021.1.4,MacIntel,59.97720866,,,,,,,,,,,,,9,1.4467,0,76,76,53,1,,,,,,,,,,,,,,,,,,,,,,,,,,,,,,,,,,,,,,,,,,,,,,,,,,,,,,,,,,,,,,,,,,,,,,
,,,,6,3.2137,,,,,,36,broom,kitchen,,90497,001,2022-04-27_23h12.35.136,SPAMnetsValid,2021.1.4,MacIntel,59.97720866,,,,,,,,,,,,,6,3.2137,0,77,77,76,1,,,,,,,,,,,,,,,,,,,,,,,,,,,,,,,,,,,,,,,,,,,,,,,,,,,,,,,,,,,,,,,,,,,,,,
,,,,6,1.4509,,,,,,82,cake,kitchen,,90497,001,2022-04-27_23h12.35.136,SPAMnetsValid,2021.1.4,MacIntel,59.97720866,,,,,,,,,,,,,6,1.4509,0,78,78,96,1,,,,,,,,,,,,,,,,,,,,,,,,,,,,,,,,,,,,,,,,,,,,,,,,,,,,,,,,,,,,,,,,,,,,,,
,,,,6,1.7314,,,,,,55,tomato,tree,,90497,001,2022-04-27_23h12.35.136,SPAMnetsValid,2021.1.4,MacIntel,59.97720866,,,,,,,,,,,,,6,1.7314,0,79,79,35,1,,,,,,,,,,,,,,,,,,,,,,,,,,,,,,,,,,,,,,,,,,,,,,,,,,,,,,,,,,,,,,,,,,,,,,
,,,,4,1.6962,,,,,,84,oven,tomato,,90497,001,2022-04-27_23h12.35.136,SPAMnetsValid,2021.1.4,MacIntel,59.97720866,,,,,,,,,,,,,4,1.6962,0,80,80,28,1,,,,,,,,,,,,,,,,,,,,,,,,,,,,,,,,,,,,,,,,,,,,,,,,,,,,,,,,,,,,,,,,,,,,,,
,,,,7,6.6006,,,,,,39,melon,pretzel,,90497,001,2022-04-27_23h12.35.136,SPAMnetsValid,2021.1.4,MacIntel,59.97720866,,,,,,,,,,,,,7,6.6006,0,81,81,20,1,,,,,,,,,,,,,,,,,,,,,,,,,,,,,,,,,,,,,,,,,,,,,,,,,,,,,,,,,,,,,,,,,,,,,,
,,,,5,2.0152,,,,,,10,flower,onion,,90497,001,2022-04-27_23h12.35.136,SPAMnetsValid,2021.1.4,MacIntel,59.97720866,,,,,,,,,,,,,5,2.0152,0,82,82,45,1,,,,,,,,,,,,,,,,,,,,,,,,,,,,,,,,,,,,,,,,,,,,,,,,,,,,,,,,,,,,,,,,,,,,,,
,,,,8,3.2645,,,,,,9,kitchen,refrigerator,,90497,001,2022-04-27_23h12.35.136,SPAMnetsValid,2021.1.4,MacIntel,59.97720866,,,,,,,,,,,,,8,3.2645,0,83,83,64,1,,,,,,,,,,,,,,,,,,,,,,,,,,,,,,,,,,,,,,,,,,,,,,,,,,,,,,,,,,,,,,,,,,,,,,
,,,,6,2.6078,,,,,,22,kitchen,strawberry,,90497,001,2022-04-27_23h12.35.136,SPAMnetsValid,2021.1.4,MacIntel,59.97720866,,,,,,,,,,,,,6,2.6078,0,84,84,2,1,,,,,,,,,,,,,,,,,,,,,,,,,,,,,,,,,,,,,,,,,,,,,,,,,,,,,,,,,,,,,,,,,,,,,,
,,,,3,2.9445,,,,,,74,broom,pretzel,,90497,001,2022-04-27_23h12.35.136,SPAMnetsValid,2021.1.4,MacIntel,59.97720866,,,,,,,,,,,,,3,2.9445,0,85,85,40,1,,,,,,,,,,,,,,,,,,,,,,,,,,,,,,,,,,,,,,,,,,,,,,,,,,,,,,,,,,,,,,,,,,,,,,
,,,,3,1.5915,,,,,,88,cactus,melon,,90497,001,2022-04-27_23h12.35.136,SPAMnetsValid,2021.1.4,MacIntel,59.97720866,,,,,,,,,,,,,3,1.5915,0,86,86,38,1,,,,,,,,,,,,,,,,,,,,,,,,,,,,,,,,,,,,,,,,,,,,,,,,,,,,,,,,,,,,,,,,,,,,,,
,,,,7,2.5807,,,,,,30,cookie,pretzel,,90497,001,2022-04-27_23h12.35.136,SPAMnetsValid,2021.1.4,MacIntel,59.97720866,,,,,,,,,,,,,7,2.5807,0,87,87,78,1,,,,,,,,,,,,,,,,,,,,,,,,,,,,,,,,,,,,,,,,,,,,,,,,,,,,,,,,,,,,,,,,,,,,,,
,,,,6,2.113,,,,,,76,garden,rose,,90497,001,2022-04-27_23h12.35.136,SPAMnetsValid,2021.1.4,MacIntel,59.97720866,,,,,,,,,,,,,6,2.113,0,88,88,19,1,,,,,,,,,,,,,,,,,,,,,,,,,,,,,,,,,,,,,,,,,,,,,,,,,,,,,,,,,,,,,,,,,,,,,,
,,,,2,4.0664,,,,,,90,cactus,cake,,90497,001,2022-04-27_23h12.35.136,SPAMnetsValid,2021.1.4,MacIntel,59.97720866,,,,,,,,,,,,,2,4.0664,0,89,89,85,1,,,,,,,,,,,,,,,,,,,,,,,,,,,,,,,,,,,,,,,,,,,,,,,,,,,,,,,,,,,,,,,,,,,,,,
,,,,2,4.3172,,,,,,23,flower,microwave,,90497,001,2022-04-27_23h12.35.136,SPAMnetsValid,2021.1.4,MacIntel,59.97720866,,,,,,,,,,,,,2,4.3172,0,90,90,25,1,,,,,,,,,,,,,,,,,,,,,,,,,,,,,,,,,,,,,,,,,,,,,,,,,,,,,,,,,,,,,,,,,,,,,,
,,,,2,4.6239,,,,,,89,chocolate,rose,,90497,001,2022-04-27_23h12.35.136,SPAMnetsValid,2021.1.4,MacIntel,59.97720866,,,,,,,,,,,,,2,4.6239,0,91,91,60,1,,,,,,,,,,,,,,,,,,,,,,,,,,,,,,,,,,,,,,,,,,,,,,,,,,,,,,,,,,,,,,,,,,,,,,
,,,,5,2.0471,,,,,,51,onion,strawberry,,90497,001,2022-04-27_23h12.35.136,SPAMnetsValid,2021.1.4,MacIntel,59.97720866,,,,,,,,,,,,,5,2.0471,0,92,92,86,1,,,,,,,,,,,,,,,,,,,,,,,,,,,,,,,,,,,,,,,,,,,,,,,,,,,,,,,,,,,,,,,,,,,,,,
,,,,5,1.8821,,,,,,87,carrot,yogurt,,90497,001,2022-04-27_23h12.35.136,SPAMnetsValid,2021.1.4,MacIntel,59.97720866,,,,,,,,,,,,,5,1.8821,0,93,93,6,1,,,,,,,,,,,,,,,,,,,,,,,,,,,,,,,,,,,,,,,,,,,,,,,,,,,,,,,,,,,,,,,,,,,,,,
,,,,5,0.7973,,,,,,25,carrot,onion,,90497,001,2022-04-27_23h12.35.136,SPAMnetsValid,2021.1.4,MacIntel,59.97720866,,,,,,,,,,,,,5,0.7973,0,94,94,44,1,,,,,,,,,,,,,,,,,,,,,,,,,,,,,,,,,,,,,,,,,,,,,,,,,,,,,,,,,,,,,,,,,,,,,,
,,,,5,1.1962,,,,,,50,carrot,rose,,90497,001,2022-04-27_23h12.35.136,SPAMnetsValid,2021.1.4,MacIntel,59.97720866,,,,,,,,,,,,,5,1.1962,0,95,95,73,1,,,,,,,,,,,,,,,,,,,,,,,,,,,,,,,,,,,,,,,,,,,,,,,,,,,,,,,,,,,,,,,,,,,,,,
,,,,5,1.7797,,,,,,29,chocolate,melon,,90497,001,2022-04-27_23h12.35.136,SPAMnetsValid,2021.1.4,MacIntel,59.97720866,,,,,,,,,,,,,5,1.7797,0,96,96,34,1,,,,,,,,,,,,,,,,,,,,,,,,,,,,,,,,,,,,,,,,,,,,,,,,,,,,,,,,,,,,,,,,,,,,,,
,,,,,,,,,,,,,,,90497,001,2022-04-27_23h12.35.136,SPAMnetsValid,2021.1.4,MacIntel,59.97720866,,,,,,,,,,,,,,,,,,,,0,0,0,0,1,,,,,,,,,,,,,,,,,,,,,,,,,,,,,,,,,,,,,,,,,,,,,,,,,,,,,,,,,,,,,,,,,
,,,,,,,,,,,,,,,90497,001,2022-04-27_23h12.35.136,SPAMnetsValid,2021.1.4,MacIntel,59.97720866,,,,,,0,1,1,0,1,1,0,,,,,,,,,,,,,,,,,,,,,,,,,,,,,,,,,,,,,,,,,,,,,,,,,,,,,,,,,,,,,,,,,,,,,,,,,,,,,
,,,,,,,,,,,,,,,90497,001,2022-04-27_23h12.35.136,SPAMnetsValid,2021.1.4,MacIntel,59.97720866,,,,,,,,,,,,,,,,,,,,,,,,,2,17.8049,0,0,0,0,1,rancor,forbearance,ridicule,malice,bravery,3,,,,,,,,,,,,,,,,,,,,,,,,,,,,,,,,,,,,,,,,,,,,,,,,,,,,
,,,,,,,,,,,,,,,90497,001,2022-04-27_23h12.35.136,SPAMnetsValid,2021.1.4,MacIntel,59.97720866,,,,,,,,,,,,,,,,,,,,,,,,,4,13.2046,0,1,1,1,1,raucous,empty,quiet,smooth,harsh,4,,,,,,,,,,,,,,,,,,,,,,,,,,,,,,,,,,,,,,,,,,,,,,,,,,,,
,,,,,,,,,,,,,,,90497,001,2022-04-27_23h12.35.136,SPAMnetsValid,2021.1.4,MacIntel,59.97720866,,,,,,,,,,,,,,,,,,,,,,,,,3,4.452,0,2,2,2,1,gargoyle,oil,medicine,carved waterspout,ugly building,3,,,,,,,,,,,,,,,,,,,,,,,,,,,,,,,,,,,,,,,,,,,,,,,,,,,,
,,,,,,,,,,,,,,,90497,001,2022-04-27_23h12.35.136,SPAMnetsValid,2021.1.4,MacIntel,59.97720866,,,,,,,,,,,,,,,,,,,,,,,,,3,5.032,0,3,3,3,1,recrudesce,purify,renew activity,lack refinement,crush,2,,,,,,,,,,,,,,,,,,,,,,,,,,,,,,,,,,,,,,,,,,,,,,,,,,,,
,,,,,,,,,,,,,,,90497,001,2022-04-27_23h12.35.136,SPAMnetsValid,2021.1.4,MacIntel,59.97720866,,,,,,,,,,,,,,,,,,,,,,,,,1,7.6505,0,4,4,4,1,specious,"plausible, but not genuine",noteworthy,class or variety,roomy,1,,,,,,,,,,,,,,,,,,,,,,,,,,,,,,,,,,,,,,,,,,,,,,,,,,,,
,,,,,,,,,,,,,,,90497,001,2022-04-27_23h12.35.136,SPAMnetsValid,2021.1.4,MacIntel,59.97720866,,,,,,,,,,,,,,,,,,,,,,,,,1,1.5457,0,5,5,5,1,bauble,bubble,showy plaything,idle talk,confusion,2,,,,,,,,,,,,,,,,,,,,,,,,,,,,,,,,,,,,,,,,,,,,,,,,,,,,
,,,,,,,,,,,,,,,90497,001,2022-04-27_23h12.35.136,SPAMnetsValid,2021.1.4,MacIntel,59.97720866,,,,,,,,,,,,,,,,,,,,,,,,,4,6.702,0,6,6,6,1,prolific,scarce,producing abundantly,reckless,speaking profanely,2,,,,,,,,,,,,,,,,,,,,,,,,,,,,,,,,,,,,,,,,,,,,,,,,,,,,
,,,,,,,,,,,,,,,90497,001,2022-04-27_23h12.35.136,SPAMnetsValid,2021.1.4,MacIntel,59.97720866,,,,,,,,,,,,,,,,,,,,,,,,,3,2.2974,0,7,7,7,1,opulent,party,wealthy,happy frame of mind,semiprecious stone,2,,,,,,,,,,,,,,,,,,,,,,,,,,,,,,,,,,,,,,,,,,,,,,,,,,,,
,,,,,,,,,,,,,,,90497,001,2022-04-27_23h12.35.136,SPAMnetsValid,2021.1.4,MacIntel,59.97720866,,,,,,,,,,,,,,,,,,,,,,,,,2,1.3645,0,8,8,8,1,coercion,conspiracy,strategy,restraint,attraction,3,,,,,,,,,,,,,,,,,,,,,,,,,,,,,,,,,,,,,,,,,,,,,,,,,,,,
,,,,,,,,,,,,,,,90497,001,2022-04-27_23h12.35.136,SPAMnetsValid,2021.1.4,MacIntel,59.97720866,,,,,,,,,,,,,,,,,,,,,,,,,1,2.6485,0,9,9,9,1,hiatus,animal,calamity,dread,gap,4,,,,,,,,,,,,,,,,,,,,,,,,,,,,,,,,,,,,,,,,,,,,,,,,,,,,
,,,,,,,,,,,,,,,90497,001,2022-04-27_23h12.35.136,SPAMnetsValid,2021.1.4,MacIntel,59.97720866,,,,,,,,,,,,,,,,,,,,,,,,,4,4.3488,0,10,10,10,1,germane,microbe,contagious,relevant,different,3,,,,,,,,,,,,,,,,,,,,,,,,,,,,,,,,,,,,,,,,,,,,,,,,,,,,
,,,,,,,,,,,,,,,90497,001,2022-04-27_23h12.35.136,SPAMnetsValid,2021.1.4,MacIntel,59.97720866,,,,,,,,,,,,,,,,,,,,,,,,,2,6.6363,0,11,11,11,1,perfunctory,fundamental,formal,superficial,careful,3,,,,,,,,,,,,,,,,,,,,,,,,,,,,,,,,,,,,,,,,,,,,,,,,,,,,
,,,,,,,,,,,,,,,90497,001,2022-04-27_23h12.35.136,SPAMnetsValid,2021.1.4,MacIntel,59.97720866,,,,,,,,,,,,,,,,,,,,,,,,,3,9.2664,0,12,12,12,1,diverge,reveal,chant,distract the attention of,differ or turn off from,4,,,,,,,,,,,,,,,,,,,,,,,,,,,,,,,,,,,,,,,,,,,,,,,,,,,,
,,,,,,,,,,,,,,,90497,001,2022-04-27_23h12.35.136,SPAMnetsValid,2021.1.4,MacIntel,59.97720866,,,,,,,,,,,,,,,,,,,,,,,,,2,1.8638,0,13,13,13,1,evoke,take away,anger,connect,bring out,4,,,,,,,,,,,,,,,,,,,,,,,,,,,,,,,,,,,,,,,,,,,,,,,,,,,,
,,,,,,,,,,,,,,,90497,001,2022-04-27_23h12.35.136,SPAMnetsValid,2021.1.4,MacIntel,59.97720866,,,,,,,,,,,,,,,,,,,,,,,,,4,5.318,0,14,14,14,1,pertinent,relevant,lying next to,necessary,bold,1,,,,,,,,,,,,,,,,,,,,,,,,,,,,,,,,,,,,,,,,,,,,,,,,,,,,
,,,,,,,,,,,,,,,90497,001,2022-04-27_23h12.35.136,SPAMnetsValid,2021.1.4,MacIntel,59.97720866,,,,,,,,,,,,,,,,,,,,,,,,,2,3.9348,0,15,15,15,1,holocaust,entirety,destruction,saintly,price,2,,,,,,,,,,,,,,,,,,,,,,,,,,,,,,,,,,,,,,,,,,,,,,,,,,,,
,,,,,,,,,,,,,,,90497,001,2022-04-27_23h12.35.136,SPAMnetsValid,2021.1.4,MacIntel,59.97720866,,,,,,,,,,,,,,,,,,,,,,,,,3,3.7459,0,16,16,16,1,piquant,mellow,fish,pungent,cloth,3,,,,,,,,,,,,,,,,,,,,,,,,,,,,,,,,,,,,,,,,,,,,,,,,,,,,
,,,,,,,,,,,,,,,90497,001,2022-04-27_23h12.35.136,SPAMnetsValid,2021.1.4,MacIntel,59.97720866,,,,,,,,,,,,,,,,,,,,,,,,,3,3.1654,0,17,17,17,1,firmament,foundation,heavens,strong,glue,2,,,,,,,,,,,,,,,,,,,,,,,,,,,,,,,,,,,,,,,,,,,,,,,,,,,,
,,,,,,,,,,,,,,,90497,001,2022-04-27_23h12.35.136,SPAMnetsValid,2021.1.4,MacIntel,59.97720866,,,,,,,,,,,,,,,,,,,,,,,,,,,,,,,,,,,,,,4,5.7138,0,0,0,0,1,marketable,partisan,jocular,marriageable,salable,essential,4,,,,,,,,,,,,,,,,,,,,,,,,,,,,,,,,,,,,,,
,,,,,,,,,,,,,,,90497,001,2022-04-27_23h12.35.136,SPAMnetsValid,2021.1.4,MacIntel,59.97720866,,,,,,,,,,,,,,,,,,,,,,,,,,,,,,,,,,,,,,1,4.9622,0,1,1,1,1,cottontail,squirrel,poplar,boa,marshy plant,rabbit,5,,,,,,,,,,,,,,,,,,,,,,,,,,,,,,,,,,,,,,
,,,,,,,,,,,,,,,90497,001,2022-04-27_23h12.35.136,SPAMnetsValid,2021.1.4,MacIntel,59.97720866,,,,,,,,,,,,,,,,,,,,,,,,,,,,,,,,,,,,,,3,6.0421,0,2,2,2,1,boggy,afraid,false,marshy,dense,black,3,,,,,,,,,,,,,,,,,,,,,,,,,,,,,,,,,,,,,,
,,,,,,,,,,,,,,,90497,001,2022-04-27_23h12.35.136,SPAMnetsValid,2021.1.4,MacIntel,59.97720866,,,,,,,,,,,,,,,,,,,,,,,,,,,,,,,,,,,,,,3,7.0693,0,3,3,3,1,gruesomeness,blackness,falseness,vindictiveness,drunkenness,ghastliness,5,,,,,,,,,,,,,,,,,,,,,,,,,,,,,,,,,,,,,,
,,,,,,,,,,,,,,,90497,001,2022-04-27_23h12.35.136,SPAMnetsValid,2021.1.4,MacIntel,59.97720866,,,,,,,,,,,,,,,,,,,,,,,,,,,,,,,,,,,,,,2,2.1971,0,4,4,4,1,loathing,diffidence,laziness,abhorrence,cleverness,comfort,3,,,,,,,,,,,,,,,,,,,,,,,,,,,,,,,,,,,,,,
,,,,,,,,,,,,,,,90497,001,2022-04-27_23h12.35.136,SPAMnetsValid,2021.1.4,MacIntel,59.97720866,,,,,,,,,,,,,,,,,,,,,,,,,,,,,,,,,,,,,,1,6.2661,0,5,5,5,1,bantam,fowl,ridicule,cripple,vegetable,ensign,1,,,,,,,,,,,,,,,,,,,,,,,,,,,,,,,,,,,,,,
,,,,,,,,,,,,,,,90497,001,2022-04-27_23h12.35.136,SPAMnetsValid,2021.1.4,MacIntel,59.97720866,,,,,,,,,,,,,,,,,,,,,,,,,,,,,,,,,,,,,,2,1.9475,0,6,6,6,1,evoke,wake up,surrender,reconnoiter,transcend,call forth,5,,,,,,,,,,,,,,,,,,,,,,,,,,,,,,,,,,,,,,
,,,,,,,,,,,,,,,90497,001,2022-04-27_23h12.35.136,SPAMnetsValid,2021.1.4,MacIntel,59.97720866,,,,,,,,,,,,,,,,,,,,,,,,,,,,,,,,,,,,,,5,2.7482,0,7,7,7,1,unobtrusive,unintelligent,epileptic,illogical,lineal,modest,5,,,,,,,,,,,,,,,,,,,,,,,,,,,,,,,,,,,,,,
,,,,,,,,,,,,,,,90497,001,2022-04-27_23h12.35.136,SPAMnetsValid,2021.1.4,MacIntel,59.97720866,,,,,,,,,,,,,,,,,,,,,,,,,,,,,,,,,,,,,,4,2.0823,0,8,8,8,1,terrain,ice cream,final test,tractor,area of ground,weight,4,,,,,,,,,,,,,,,,,,,,,,,,,,,,,,,,,,,,,,
,,,,,,,,,,,,,,,90497,001,2022-04-27_23h12.35.136,SPAMnetsValid,2021.1.4,MacIntel,59.97720866,,,,,,,,,,,,,,,,,,,,,,,,,,,,,,,,,,,,,,2,17.5403,0,9,9,9,1,capriciousness,stubbornness,courage,whimsicality,amazement,greediness,3,,,,,,,,,,,,,,,,,,,,,,,,,,,,,,,,,,,,,,
,,,,,,,,,,,,,,,90497,001,2022-04-27_23h12.35.136,SPAMnetsValid,2021.1.4,MacIntel,59.97720866,,,,,,,,,,,,,,,,,,,,,,,,,,,,,,,,,,,,,,4,2.1137,0,10,10,10,1,maelstrom,slander,whirlpool,enmity,armor,majolica,2,,,,,,,,,,,,,,,,,,,,,,,,,,,,,,,,,,,,,,
,,,,,,,,,,,,,,,90497,001,2022-04-27_23h12.35.136,SPAMnetsValid,2021.1.4,MacIntel,59.97720866,,,,,,,,,,,,,,,,,,,,,,,,,,,,,,,,,,,,,,3,1.3961,0,11,11,11,1,tentative,critical,conclusive,authentic,provisional,apprehensive,4,,,,,,,,,,,,,,,,,,,,,,,,,,,,,,,,,,,,,,
,,,,,,,,,,,,,,,90497,001,2022-04-27_23h12.35.136,SPAMnetsValid,2021.1.4,MacIntel,59.97720866,,,,,,,,,,,,,,,,,,,,,,,,,,,,,,,,,,,,,,5,2.5476,0,12,12,12,1,placate,rehabilitate,plagiarize,depredate,apprise,conciliate,5,,,,,,,,,,,,,,,,,,,,,,,,,,,,,,,,,,,,,,
,,,,,,,,,,,,,,,90497,001,2022-04-27_23h12.35.136,SPAMnetsValid,2021.1.4,MacIntel,59.97720866,,,,,,,,,,,,,,,,,,,,,,,,,,,,,,,,,,,,,,1,1.4799,0,13,13,13,1,surcease,enlightenment,cessation,inattention,censor,substitution,2,,,,,,,,,,,,,,,,,,,,,,,,,,,,,,,,,,,,,,
,,,,,,,,,,,,,,,90497,001,2022-04-27_23h12.35.136,SPAMnetsValid,2021.1.4,MacIntel,59.97720866,,,,,,,,,,,,,,,,,,,,,,,,,,,,,,,,,,,,,,2,2.0487,0,14,14,14,1,apathetic,wandering,impassive,hateful,prophetic,overflowing,2,,,,,,,,,,,,,,,,,,,,,,,,,,,,,,,,,,,,,,
,,,,,,,,,,,,,,,90497,001,2022-04-27_23h12.35.136,SPAMnetsValid,2021.1.4,MacIntel,59.97720866,,,,,,,,,,,,,,,,,,,,,,,,,,,,,,,,,,,,,,2,4.6486,0,15,15,15,1,paternoster,paternalism,patricide,malediction,benediction,prayer,5,,,,,,,,,,,,,,,,,,,,,,,,,,,,,,,,,,,,,,
,,,,,,,,,,,,,,,90497,001,2022-04-27_23h12.35.136,SPAMnetsValid,2021.1.4,MacIntel,59.97720866,,,,,,,,,,,,,,,,,,,,,,,,,,,,,,,,,,,,,,2,4.25,0,16,16,16,1,opalescence,opulence,senescence,bankruptcy,iridescence,assiduity,4,,,,,,,,,,,,,,,,,,,,,,,,,,,,,,,,,,,,,,
,,,,,,,,,,,,,,,90497,001,2022-04-27_23h12.35.136,SPAMnetsValid,2021.1.4,MacIntel,59.97720866,,,,,,,,,,,,,,,,,,,,,,,,,,,,,,,,,,,,,,,,0,17,17,17,1,lush,stupid,luxurious,hazy,putrid,languishing,2,,,,,,,,,,,,,,,,,,,,,,,,,,,,,,,,,,,,,,
,,,,,,,,,,,,,,,90497,001,2022-04-27_23h12.35.136,SPAMnetsValid,2021.1.4,MacIntel,59.97720866,,,,,,,,,,,,,,,,,,,,,,,,,,,,,,,,,,,,,,3,1.6326,0,18,18,18,1,curtailment,expenditure,abandonment,abridgment,improvement,forgery,3,,,,,,,,,,,,,,,,,,,,,,,,,,,,,,,,,,,,,,
,,,,,,,,,,,,,,,90497,001,2022-04-27_23h12.35.136,SPAMnetsValid,2021.1.4,MacIntel,59.97720866,,,,,,,,,,,,,,,,,,,,,,,,,,,,,,,,,,,,,,,,0,19,19,19,1,perversity,adversity,perviousness,travesty,waywardness,gentility,4,,,,,,,,,,,,,,,,,,,,,,,,,,,,,,,,,,,,,,
,,,,,,,,,,,,,,,90497,001,2022-04-27_23h12.35.136,SPAMnetsValid,2021.1.4,MacIntel,59.97720866,,,,,,,,,,,,,,,,,,,,,,,,,,,,,,,,,,,,,,4,1.2137,0,20,20,20,1,calumnious,complimentary,analogous,slanderous,tempestuous,magnanimous,3,,,,,,,,,,,,,,,,,,,,,,,,,,,,,,,,,,,,,,
,,,,,,,,,,,,,,,90497,001,2022-04-27_23h12.35.136,SPAMnetsValid,2021.1.4,MacIntel,59.97720866,,,,,,,,,,,,,,,,,,,,,,,,,,,,,,,,,,,,,,3,0.6816,0,21,21,21,1,illiberality,bigotry,imbecility,illegibility,cautery,immaturity,1,,,,,,,,,,,,,,,,,,,,,,,,,,,,,,,,,,,,,,
,,,,,,,,,,,,,,,90497,001,2022-04-27_23h12.35.136,SPAMnetsValid,2021.1.4,MacIntel,59.97720866,,,,,,,,,,,,,,,,,,,,,,,,,,,,,,,,,,,,,,3,3.2836,0,22,22,22,1,clabber,rejoice,gossip,curdle,crow,hobble,3,,,,,,,,,,,,,,,,,,,,,,,,,,,,,,,,,,,,,,
,,,,,,,,,,,,,,,90497,001,2022-04-27_23h12.35.136,SPAMnetsValid,2021.1.4,MacIntel,59.97720866,,,,,,,,,,,,,,,,,,,,,,,,,,,,,,,,,,,,,,2,3.1647,0,23,23,23,1,sedulousness,diligence,credulousness,seduction,perilousness,frankness,1,,,,,,,,,,,,,,,,,,,,,,,,,,,,,,,,,,,,,,
,,,,,,,,,,,,,,,90497,001,2022-04-27_23h12.35.136,SPAMnetsValid,2021.1.4,MacIntel,59.97720866,,,,,,,,,,,,,,,,,,,,,,,,,,,,,,,,,,,,,,,,,,,,,,,,,,,,"sleeping, pillow fighting, packing for sleepovers ",pillow,0,0,0,0,1,,,,,,,,,,,,,,,,,,,,,,,,,,,,,,,
,,,,,,,,,,,,,,,90497,001,2022-04-27_23h12.35.136,SPAMnetsValid,2021.1.4,MacIntel,59.97720866,,,,,,,,,,,,,,,,,,,,,,,,,,,,,,,,,,,,,,,,,,,,,,,,,,,,trick or treating,pillow,1,0,1,0,1,,,,,,,,,,,,,,,,,,,,,,,,,,,,,,,
,,,,,,,,,,,,,,,90497,001,2022-04-27_23h12.35.136,SPAMnetsValid,2021.1.4,MacIntel,59.97720866,,,,,,,,,,,,,,,,,,,,,,,,,,,,,,,,,,,,,,,,,,,,,,,,,,,,halloween costume ,pillow,2,0,2,0,1,,,,,,,,,,,,,,,,,,,,,,,,,,,,,,,
,,,,,,,,,,,,,,,90497,001,2022-04-27_23h12.35.136,SPAMnetsValid,2021.1.4,MacIntel,59.97720866,,,,,,,,,,,,,,,,,,,,,,,,,,,,,,,,,,,,,,,,,,,,,,,,,,,,dog beg,pillow,3,0,3,0,1,,,,,,,,,,,,,,,,,,,,,,,,,,,,,,,
,,,,,,,,,,,,,,,90497,001,2022-04-27_23h12.35.136,SPAMnetsValid,2021.1.4,MacIntel,59.97720866,,,,,,,,,,,,,,,,,,,,,,,,,,,,,,,,,,,,,,,,,,,,,,,,,,,,dog bed,pillow,4,0,4,0,1,,,,,,,,,,,,,,,,,,,,,,,,,,,,,,,
,,,,,,,,,,,,,,,90497,001,2022-04-27_23h12.35.136,SPAMnetsValid,2021.1.4,MacIntel,59.97720866,,,,,,,,,,,,,,,,,,,,,,,,,,,,,,,,,,,,,,,,,,,,,,,,,,,,seat cushion ,pillow,5,0,5,0,1,,,,,,,,,,,,,,,,,,,,,,,,,,,,,,,
,,,,,,,,,,,,,,,90497,001,2022-04-27_23h12.35.136,SPAMnetsValid,2021.1.4,MacIntel,59.97720866,,,,,,,,,,,,,,,,,,,,,,,,,,,,,,,,,,,,,,,,,,,,,,,,,,,,back rest,pillow,6,0,6,0,1,,,,,,,,,,,,,,,,,,,,,,,,,,,,,,,
,,,,,,,,,,,,,,,90497,001,2022-04-27_23h12.35.136,SPAMnetsValid,2021.1.4,MacIntel,59.97720866,,,,,,,,,,,,,,,,,,,,,,,,,,,,,,,,,,,,,,,,,,,,,,,,,,,,leg prop,pillow,7,0,7,0,1,,,,,,,,,,,,,,,,,,,,,,,,,,,,,,,
,,,,,,,,,,,,,,,90497,001,2022-04-27_23h12.35.136,SPAMnetsValid,2021.1.4,MacIntel,59.97720866,,,,,,,,,,,,,,,,,,,,,,,,,,,,,,,,,,,,,,,,,,,,,,,,,,,,,,,,,,,0,0,0,2,1,pillow,,,,,,,,,,,,,,,,,,,,,,,,,
,,,,,,,,,,,,,,,90497,001,2022-04-27_23h12.35.136,SPAMnetsValid,2021.1.4,MacIntel,59.97720866,,,,,,,,,,,,,,,,,,,,,,,,,,,,,,,,,,,,,,,,,,,,,,,,,,,,room smells good,candle,0,0,0,0,1,,,,,,,,,,,,,,,,,,,,,,,,,,,,,,,
,,,,,,,,,,,,,,,90497,001,2022-04-27_23h12.35.136,SPAMnetsValid,2021.1.4,MacIntel,59.97720866,,,,,,,,,,,,,,,,,,,,,,,,,,,,,,,,,,,,,,,,,,,,,,,,,,,,decoration ,candle,1,0,1,0,1,,,,,,,,,,,,,,,,,,,,,,,,,,,,,,,
,,,,,,,,,,,,,,,90497,001,2022-04-27_23h12.35.136,SPAMnetsValid,2021.1.4,MacIntel,59.97720866,,,,,,,,,,,,,,,,,,,,,,,,,,,,,,,,,,,,,,,,,,,,,,,,,,,,making wax fingers ,candle,2,0,2,0,1,,,,,,,,,,,,,,,,,,,,,,,,,,,,,,,
,,,,,,,,,,,,,,,90497,001,2022-04-27_23h12.35.136,SPAMnetsValid,2021.1.4,MacIntel,59.97720866,,,,,,,,,,,,,,,,,,,,,,,,,,,,,,,,,,,,,,,,,,,,,,,,,,,,prayer ,candle,3,0,3,0,1,,,,,,,,,,,,,,,,,,,,,,,,,,,,,,,
,,,,,,,,,,,,,,,90497,001,2022-04-27_23h12.35.136,SPAMnetsValid,2021.1.4,MacIntel,59.97720866,,,,,,,,,,,,,,,,,,,,,,,,,,,,,,,,,,,,,,,,,,,,,,,,,,,,birthday wishes,candle,4,0,4,0,1,,,,,,,,,,,,,,,,,,,,,,,,,,,,,,,
,,,,,,,,,,,,,,,90497,001,2022-04-27_23h12.35.136,SPAMnetsValid,2021.1.4,MacIntel,59.97720866,,,,,,,,,,,,,,,,,,,,,,,,,,,,,,,,,,,,,,,,,,,,,,,,,,,,celebrations ,candle,5,0,5,0,1,,,,,,,,,,,,,,,,,,,,,,,,,,,,,,,
,,,,,,,,,,,,,,,90497,001,2022-04-27_23h12.35.136,SPAMnetsValid,2021.1.4,MacIntel,59.97720866,,,,,,,,,,,,,,,,,,,,,,,,,,,,,,,,,,,,,,,,,,,,,,,,,,,,they are fun to look at,candle,6,0,6,0,1,,,,,,,,,,,,,,,,,,,,,,,,,,,,,,,
,,,,,,,,,,,,,,,90497,001,2022-04-27_23h12.35.136,SPAMnetsValid,2021.1.4,MacIntel,59.97720866,,,,,,,,,,,,,,,,,,,,,,,,,,,,,,,,,,,,,,,,,,,,,,,,,,,,fire,candle,7,0,7,0,1,,,,,,,,,,,,,,,,,,,,,,,,,,,,,,,
,,,,,,,,,,,,,,,90497,001,2022-04-27_23h12.35.136,SPAMnetsValid,2021.1.4,MacIntel,59.97720866,,,,,,,,,,,,,,,,,,,,,,,,,,,,,,,,,,,,,,,,,,,,,,,,,,,,,candle,8,0,8,0,1,,,,,,,,,,,,,,,,,,,,,,,,,,,,,,,
,,,,,,,,,,,,,,,90497,001,2022-04-27_23h12.35.136,SPAMnetsValid,2021.1.4,MacIntel,59.97720866,,,,,,,,,,,,,,,,,,,,,,,,,,,,,,,,,,,,,,,,,,,,,,,,,,,,,,,,,,,0,1,1,1,1,candle,,,,,,,,,,,,,,,,,,,,,,,,,
,,,,,,,,,,,,,,,90497,001,2022-04-27_23h12.35.136,SPAMnetsValid,2021.1.4,MacIntel,59.97720866,,,,,,,,,,,,,,,,,,,,,,,,,,,,,,,,,,,,,,,,,,,,,,,,,,,,building sandcastles ,bucket,0,0,0,0,1,,,,,,,,,,,,,,,,,,,,,,,,,,,,,,,
,,,,,,,,,,,,,,,90497,001,2022-04-27_23h12.35.136,SPAMnetsValid,2021.1.4,MacIntel,59.97720866,,,,,,,,,,,,,,,,,,,,,,,,,,,,,,,,,,,,,,,,,,,,,,,,,,,,holding water balloons ,bucket,1,0,1,0,1,,,,,,,,,,,,,,,,,,,,,,,,,,,,,,,
,,,,,,,,,,,,,,,90497,001,2022-04-27_23h12.35.136,SPAMnetsValid,2021.1.4,MacIntel,59.97720866,,,,,,,,,,,,,,,,,,,,,,,,,,,,,,,,,,,,,,,,,,,,,,,,,,,,using as a cooler to hold drinks,bucket,2,0,2,0,1,,,,,,,,,,,,,,,,,,,,,,,,,,,,,,,
,,,,,,,,,,,,,,,90497,001,2022-04-27_23h12.35.136,SPAMnetsValid,2021.1.4,MacIntel,59.97720866,,,,,,,,,,,,,,,,,,,,,,,,,,,,,,,,,,,,,,,,,,,,,,,,,,,,a cup,bucket,3,0,3,0,1,,,,,,,,,,,,,,,,,,,,,,,,,,,,,,,
,,,,,,,,,,,,,,,90497,001,2022-04-27_23h12.35.136,SPAMnetsValid,2021.1.4,MacIntel,59.97720866,,,,,,,,,,,,,,,,,,,,,,,,,,,,,,,,,,,,,,,,,,,,,,,,,,,,catching sand crabs ,bucket,4,0,4,0,1,,,,,,,,,,,,,,,,,,,,,,,,,,,,,,,
,,,,,,,,,,,,,,,90497,001,2022-04-27_23h12.35.136,SPAMnetsValid,2021.1.4,MacIntel,59.97720866,,,,,,,,,,,,,,,,,,,,,,,,,,,,,,,,,,,,,,,,,,,,,,,,,,,,house a turtle ,bucket,5,0,5,0,1,,,,,,,,,,,,,,,,,,,,,,,,,,,,,,,
,,,,,,,,,,,,,,,90497,001,2022-04-27_23h12.35.136,SPAMnetsValid,2021.1.4,MacIntel,59.97720866,,,,,,,,,,,,,,,,,,,,,,,,,,,,,,,,,,,,,,,,,,,,,,,,,,,,a hat,bucket,6,0,6,0,1,,,,,,,,,,,,,,,,,,,,,,,,,,,,,,,
,,,,,,,,,,,,,,,90497,001,2022-04-27_23h12.35.136,SPAMnetsValid,2021.1.4,MacIntel,59.97720866,,,,,,,,,,,,,,,,,,,,,,,,,,,,,,,,,,,,,,,,,,,,,,,,,,,,carry shells ,bucket,7,0,7,0,1,,,,,,,,,,,,,,,,,,,,,,,,,,,,,,,
,,,,,,,,,,,,,,,90497,001,2022-04-27_23h12.35.136,SPAMnetsValid,2021.1.4,MacIntel,59.97720866,,,,,,,,,,,,,,,,,,,,,,,,,,,,,,,,,,,,,,,,,,,,,,,,,,,,use as bathroom,bucket,8,0,8,0,1,,,,,,,,,,,,,,,,,,,,,,,,,,,,,,,
,,,,,,,,,,,,,,,90497,001,2022-04-27_23h12.35.136,SPAMnetsValid,2021.1.4,MacIntel,59.97720866,,,,,,,,,,,,,,,,,,,,,,,,,,,,,,,,,,,,,,,,,,,,,,,,,,,,water bottle,bucket,9,0,9,0,1,,,,,,,,,,,,,,,,,,,,,,,,,,,,,,,
,,,,,,,,,,,,,,,90497,001,2022-04-27_23h12.35.136,SPAMnetsValid,2021.1.4,MacIntel,59.97720866,,,,,,,,,,,,,,,,,,,,,,,,,,,,,,,,,,,,,,,,,,,,,,,,,,,,decorate it,bucket,10,0,10,0,1,,,,,,,,,,,,,,,,,,,,,,,,,,,,,,,
,,,,,,,,,,,,,,,90497,001,2022-04-27_23h12.35.136,SPAMnetsValid,2021.1.4,MacIntel,59.97720866,,,,,,,,,,,,,,,,,,,,,,,,,,,,,,,,,,,,,,,,,,,,,,,,,,,,use as a pot for plants ,bucket,11,0,11,0,1,,,,,,,,,,,,,,,,,,,,,,,,,,,,,,,
,,,,,,,,,,,,,,,90497,001,2022-04-27_23h12.35.136,SPAMnetsValid,2021.1.4,MacIntel,59.97720866,,,,,,,,,,,,,,,,,,,,,,,,,,,,,,,,,,,,,,,,,,,,,,,,,,,,use as drums ,bucket,12,0,12,0,1,,,,,,,,,,,,,,,,,,,,,,,,,,,,,,,
,,,,,,,,,,,,,,,90497,001,2022-04-27_23h12.35.136,SPAMnetsValid,2021.1.4,MacIntel,59.97720866,,,,,,,,,,,,,,,,,,,,,,,,,,,,,,,,,,,,,,,,,,,,,,,,,,,,,,,,,,,0,2,2,0,1,bucket,,,,,,,,,,,,,,,,,,,,,,,,,
,,,,,,,,,,,,,,,90497,001,2022-04-27_23h12.35.136,SPAMnetsValid,2021.1.4,MacIntel,59.97720866,,,,,,,,,,,,,,,,,,,,,,,,,,,,,,,,,,,,,,,,,,,,,,,,,,,,,,,,,,,,,,,,,wild,Animals,0,0,0,0,1,,,,,,,,,,,,,,,,,,
,,,,,,,,,,,,,,,90497,001,2022-04-27_23h12.35.136,SPAMnetsValid,2021.1.4,MacIntel,59.97720866,,,,,,,,,,,,,,,,,,,,,,,,,,,,,,,,,,,,,,,,,,,,,,,,,,,,,,,,,,,,,,,,,cute,Animals,1,0,1,0,1,,,,,,,,,,,,,,,,,,
,,,,,,,,,,,,,,,90497,001,2022-04-27_23h12.35.136,SPAMnetsValid,2021.1.4,MacIntel,59.97720866,,,,,,,,,,,,,,,,,,,,,,,,,,,,,,,,,,,,,,,,,,,,,,,,,,,,,,,,,,,,,,,,,different ,Animals,2,0,2,0,1,,,,,,,,,,,,,,,,,,
,,,,,,,,,,,,,,,90497,001,2022-04-27_23h12.35.136,SPAMnetsValid,2021.1.4,MacIntel,59.97720866,,,,,,,,,,,,,,,,,,,,,,,,,,,,,,,,,,,,,,,,,,,,,,,,,,,,,,,,,,,,,,,,,alive ,Animals,3,0,3,0,1,,,,,,,,,,,,,,,,,,
,,,,,,,,,,,,,,,90497,001,2022-04-27_23h12.35.136,SPAMnetsValid,2021.1.4,MacIntel,59.97720866,,,,,,,,,,,,,,,,,,,,,,,,,,,,,,,,,,,,,,,,,,,,,,,,,,,,,,,,,,,,,,,,,tigers ,Animals,4,0,4,0,1,,,,,,,,,,,,,,,,,,
,,,,,,,,,,,,,,,90497,001,2022-04-27_23h12.35.136,SPAMnetsValid,2021.1.4,MacIntel,59.97720866,,,,,,,,,,,,,,,,,,,,,,,,,,,,,,,,,,,,,,,,,,,,,,,,,,,,,,,,,,,,,,,,,lions ,Animals,5,0,5,0,1,,,,,,,,,,,,,,,,,,
,,,,,,,,,,,,,,,90497,001,2022-04-27_23h12.35.136,SPAMnetsValid,2021.1.4,MacIntel,59.97720866,,,,,,,,,,,,,,,,,,,,,,,,,,,,,,,,,,,,,,,,,,,,,,,,,,,,,,,,,,,,,,,,,sharks ,Animals,6,0,6,0,1,,,,,,,,,,,,,,,,,,
,,,,,,,,,,,,,,,90497,001,2022-04-27_23h12.35.136,SPAMnetsValid,2021.1.4,MacIntel,59.97720866,,,,,,,,,,,,,,,,,,,,,,,,,,,,,,,,,,,,,,,,,,,,,,,,,,,,,,,,,,,,,,,,,rats,Animals,7,0,7,0,1,,,,,,,,,,,,,,,,,,
,,,,,,,,,,,,,,,90497,001,2022-04-27_23h12.35.136,SPAMnetsValid,2021.1.4,MacIntel,59.97720866,,,,,,,,,,,,,,,,,,,,,,,,,,,,,,,,,,,,,,,,,,,,,,,,,,,,,,,,,,,,,,,,,lizards ,Animals,8,0,8,0,1,,,,,,,,,,,,,,,,,,
,,,,,,,,,,,,,,,90497,001,2022-04-27_23h12.35.136,SPAMnetsValid,2021.1.4,MacIntel,59.97720866,,,,,,,,,,,,,,,,,,,,,,,,,,,,,,,,,,,,,,,,,,,,,,,,,,,,,,,,,,,,,,,,,deer,Animals,9,0,9,0,1,,,,,,,,,,,,,,,,,,
,,,,,,,,,,,,,,,90497,001,2022-04-27_23h12.35.136,SPAMnetsValid,2021.1.4,MacIntel,59.97720866,,,,,,,,,,,,,,,,,,,,,,,,,,,,,,,,,,,,,,,,,,,,,,,,,,,,,,,,,,,,,,,,,fish ,Animals,10,0,10,0,1,,,,,,,,,,,,,,,,,,
,,,,,,,,,,,,,,,90497,001,2022-04-27_23h12.35.136,SPAMnetsValid,2021.1.4,MacIntel,59.97720866,,,,,,,,,,,,,,,,,,,,,,,,,,,,,,,,,,,,,,,,,,,,,,,,,,,,,,,,,,,,,,,,,carbs ,Animals,11,0,11,0,1,,,,,,,,,,,,,,,,,,
,,,,,,,,,,,,,,,90497,001,2022-04-27_23h12.35.136,SPAMnetsValid,2021.1.4,MacIntel,59.97720866,,,,,,,,,,,,,,,,,,,,,,,,,,,,,,,,,,,,,,,,,,,,,,,,,,,,,,,,,,,,,,,,,bears,Animals,12,0,12,0,1,,,,,,,,,,,,,,,,,,
,,,,,,,,,,,,,,,90497,001,2022-04-27_23h12.35.136,SPAMnetsValid,2021.1.4,MacIntel,59.97720866,,,,,,,,,,,,,,,,,,,,,,,,,,,,,,,,,,,,,,,,,,,,,,,,,,,,,,,,,,,,,,,,,elephant ,Animals,13,0,13,0,1,,,,,,,,,,,,,,,,,,
,,,,,,,,,,,,,,,90497,001,2022-04-27_23h12.35.136,SPAMnetsValid,2021.1.4,MacIntel,59.97720866,,,,,,,,,,,,,,,,,,,,,,,,,,,,,,,,,,,,,,,,,,,,,,,,,,,,,,,,,,,,,,,,,hipps ,Animals,14,0,14,0,1,,,,,,,,,,,,,,,,,,
,,,,,,,,,,,,,,,90497,001,2022-04-27_23h12.35.136,SPAMnetsValid,2021.1.4,MacIntel,59.97720866,,,,,,,,,,,,,,,,,,,,,,,,,,,,,,,,,,,,,,,,,,,,,,,,,,,,,,,,,,,,,,,,,dog ,Animals,15,0,15,0,1,,,,,,,,,,,,,,,,,,
,,,,,,,,,,,,,,,90497,001,2022-04-27_23h12.35.136,SPAMnetsValid,2021.1.4,MacIntel,59.97720866,,,,,,,,,,,,,,,,,,,,,,,,,,,,,,,,,,,,,,,,,,,,,,,,,,,,,,,,,,,,,,,,,cat ,Animals,16,0,16,0,1,,,,,,,,,,,,,,,,,,
,,,,,,,,,,,,,,,90497,001,2022-04-27_23h12.35.136,SPAMnetsValid,2021.1.4,MacIntel,59.97720866,,,,,,,,,,,,,,,,,,,,,,,,,,,,,,,,,,,,,,,,,,,,,,,,,,,,,,,,,,,,,,,,,rhino ,Animals,17,0,17,0,1,,,,,,,,,,,,,,,,,,
,,,,,,,,,,,,,,,90497,001,2022-04-27_23h12.35.136,SPAMnetsValid,2021.1.4,MacIntel,59.97720866,,,,,,,,,,,,,,,,,,,,,,,,,,,,,,,,,,,,,,,,,,,,,,,,,,,,,,,,,,,,,,,,,seal ,Animals,18,0,18,0,1,,,,,,,,,,,,,,,,,,
,,,,,,,,,,,,,,,90497,001,2022-04-27_23h12.35.136,SPAMnetsValid,2021.1.4,MacIntel,59.97720866,,,,,,,,,,,,,,,,,,,,,,,,,,,,,,,,,,,,,,,,,,,,,,,,,,,,,,,,,,,,,,,,,whale,Animals,19,0,19,0,1,,,,,,,,,,,,,,,,,,
,,,,,,,,,,,,,,,90497,001,2022-04-27_23h12.35.136,SPAMnetsValid,2021.1.4,MacIntel,59.97720866,,,,,,,,,,,,,,,,,,,,,,,,,,,,,,,,,,,,,,,,,,,,,,,,,,,,,,,,,,,,,,,,,foxf,Animals,20,0,20,0,1,,,,,,,,,,,,,,,,,,
,,,,,,,,,,,,,,,90497,001,2022-04-27_23h12.35.136,SPAMnetsValid,2021.1.4,MacIntel,59.97720866,,,,,,,,,,,,,,,,,,,,,,,,,,,,,,,,,,,,,,,,,,,,,,,,,,,,,,,,,,,,,,,,,wolf,Animals,21,0,21,0,1,,,,,,,,,,,,,,,,,,
,,,,,,,,,,,,,,,90497,001,2022-04-27_23h12.35.136,SPAMnetsValid,2021.1.4,MacIntel,59.97720866,,,,,,,,,,,,,,,,,,,,,,,,,,,,,,,,,,,,,,,,,,,,,,,,,,,,,,,,,,,,,,,,,coyote ,Animals,22,0,22,0,1,,,,,,,,,,,,,,,,,,
,,,,,,,,,,,,,,,90497,001,2022-04-27_23h12.35.136,SPAMnetsValid,2021.1.4,MacIntel,59.97720866,,,,,,,,,,,,,,,,,,,,,,,,,,,,,,,,,,,,,,,,,,,,,,,,,,,,,,,,,,,,,,,,,,,,,,,,0,0,0,0,1,Animals,,,,,,,,,,,,
,,,,,,,,,,,,,,,90497,001,2022-04-27_23h12.35.136,SPAMnetsValid,2021.1.4,MacIntel,59.97720866,,,,,,,,,,,,,,,,,,,,,,,,,,,,,,,,,,,,,,,,,,,,,,,,,,,,,,,,,,,,,,,,,,,,,,,,,,,,,,3,183.9952,0,0,0,0,1,"I enjoy concentrating on a fantasy or daydream and exploring all its possibilities, letting it grow and develop.",0,1,,
,,,,,,,,,,,,,,,90497,001,2022-04-27_23h12.35.136,SPAMnetsValid,2021.1.4,MacIntel,59.97720866,,,,,,,,,,,,,,,,,,,,,,,,,,,,,,,,,,,,,,,,,,,,,,,,,,,,,,,,,,,,,,,,,,,,,,,,,,,,,,4,3.6511,0,1,1,1,1,I think it's interesting to learn and develop new hobbies.,0,2,,
,,,,,,,,,,,,,,,90497,001,2022-04-27_23h12.35.136,SPAMnetsValid,2021.1.4,MacIntel,59.97720866,,,,,,,,,,,,,,,,,,,,,,,,,,,,,,,,,,,,,,,,,,,,,,,,,,,,,,,,,,,,,,,,,,,,,,,,,,,,,,3,2.484,0,2,2,2,1,I am intrigued by the patterns I find in art and nature.,0,3,,
,,,,,,,,,,,,,,,90497,001,2022-04-27_23h12.35.136,SPAMnetsValid,2021.1.4,MacIntel,59.97720866,,,,,,,,,,,,,,,,,,,,,,,,,,,,,,,,,,,,,,,,,,,,,,,,,,,,,,,,,,,,,,,,,,,,,,,,,,,,,,1,7.5006,0,3,3,3,1,I believe letting students hear controversial speakers can only confuse and mislead them.,1,4,,
,,,,,,,,,,,,,,,90497,001,2022-04-27_23h12.35.136,SPAMnetsValid,2021.1.4,MacIntel,59.97720866,,,,,,,,,,,,,,,,,,,,,,,,,,,,,,,,,,,,,,,,,,,,,,,,,,,,,,,,,,,,,,,,,,,,,,,,,,,,,,3,3.0485,0,4,4,4,1,Poetry has little or no effect on me.,1,5,,
,,,,,,,,,,,,,,,90497,001,2022-04-27_23h12.35.136,SPAMnetsValid,2021.1.4,MacIntel,59.97720866,,,,,,,,,,,,,,,,,,,,,,,,,,,,,,,,,,,,,,,,,,,,,,,,,,,,,,,,,,,,,,,,,,,,,,,,,,,,,,2,634.1782,0,5,5,5,1,I would have difficulty just letting my mind wander without control or guidance.,1,6,,
,,,,,,,,,,,,,,,90497,001,2022-04-27_23h12.35.136,SPAMnetsValid,2021.1.4,MacIntel,59.97720866,,,,,,,,,,,,,,,,,,,,,,,,,,,,,,,,,,,,,,,,,,,,,,,,,,,,,,,,,,,,,,,,,,,,,,,,,,,,,,4,12.2061,0,6,6,6,1,I seldom notice the moods or feelings that different environments produce.,1,7,,
,,,,,,,,,,,,,,,90497,001,2022-04-27_23h12.35.136,SPAMnetsValid,2021.1.4,MacIntel,59.97720866,,,,,,,,,,,,,,,,,,,,,,,,,,,,,,,,,,,,,,,,,,,,,,,,,,,,,,,,,,,,,,,,,,,,,,,,,,,,,,4,64.4737,0,7,7,7,1,I experience a wide range of emotions or feelings.,0,8,,
,,,,,,,,,,,,,,,90497,001,2022-04-27_23h12.35.136,SPAMnetsValid,2021.1.4,MacIntel,59.97720866,,,,,,,,,,,,,,,,,,,,,,,,,,,,,,,,,,,,,,,,,,,,,,,,,,,,,,,,,,,,,,,,,,,,,,,,,,,,,,3,2.7149,0,8,8,8,1,"Sometimes when I am reading poetry or looking at a work of art, I feel a chill or wave of excitement.",0,9,,
,,,,,,,,,,,,,,,90497,001,2022-04-27_23h12.35.136,SPAMnetsValid,2021.1.4,MacIntel,59.97720866,,,,,,,,,,,,,,,,,,,,,,,,,,,,,,,,,,,,,,,,,,,,,,,,,,,,,,,,,,,,,,,,,,,,,,,,,,,,,,2,6.2357,0,9,9,9,1,I have little interest in speculating on the nature of the universe or the human condition.,1,10,,
,,,,,,,,,,,,,,,90497,001,2022-04-27_23h12.35.136,SPAMnetsValid,2021.1.4,MacIntel,59.97720866,,,,,,,,,,,,,,,,,,,,,,,,,,,,,,,,,,,,,,,,,,,,,,,,,,,,,,,,,,,,,,,,,,,,,,,,,,,,,,4,2.7676,0,10,10,10,1,I have a lot of intellectual curiosity.,0,11,,
,,,,,,,,,,,,,,,90497,001,2022-04-27_23h12.35.136,SPAMnetsValid,2021.1.4,MacIntel,59.97720866,,,,,,,,,,,,,,,,,,,,,,,,,,,,,,,,,,,,,,,,,,,,,,,,,,,,,,,,,,,,,,,,,,,,,,,,,,,,,,4,13.8235,0,11,11,11,1,I often enjoy playing with theories or abstract ideas.,0,12,,
,,,,,,,,,,,,,,,90497,001,2022-04-27_23h12.35.136,SPAMnetsValid,2021.1.4,MacIntel,59.97720866,,,,,,,,,,,,,,,,,,,,,,,,,,,,,,,,,,,,,,,,,,,,,,,,,,,,,,,,,,,,,,,,,,,,,,,,,,,,,,,,,,,,,,,,return,16.1131
