key_resp_3.keys,key_resp_3.rt,slider.response,slider.rt,rjt_rating,rjt_RT,trials_22.thisRepN,trials_22.thisTrialN,trials_22.thisN,trials_22.thisIndex,trials_22.ran,rjt_order,word1,word2,attention,participant,session,date,expName,psychopyVersion,OS,frameRate,trials_99.thisRepN,trials_99.thisTrialN,trials_99.thisN,trials_99.thisIndex,trials_99.ran,trials_5.thisRepN,trials_5.thisTrialN,trials_5.thisN,trials_5.thisIndex,trials_5.ran,repOne,repTwo,slider_2.response,slider_2.rt,trials_24.thisRepN,trials_24.thisTrialN,trials_24.thisN,trials_24.thisIndex,trials_24.ran,trials_4.thisRepN,trials_4.thisTrialN,trials_4.thisN,trials_4.thisIndex,trials_4.ran,slider_extend_2.response,slider_extend_2.rt,trials_6.thisRepN,trials_6.thisTrialN,trials_6.thisN,trials_6.thisIndex,trials_6.ran,vCue2,R1,R2,R3,R4,correct,sliderVocab.response,sliderVocab.rt,trials_7.thisRepN,trials_7.thisTrialN,trials_7.thisN,trials_7.thisIndex,trials_7.ran,VocabCue,VR1,VR2,VR3,VR4,VR5,VocabCorrect,AUT_resp,AUT_label,trials.thisRepN,trials.thisTrialN,trials.thisN,trials.thisIndex,trials.ran,trials_2.thisRepN,trials_2.thisTrialN,trials_2.thisN,trials_2.thisIndex,trials_2.ran,aut_prompt,VF_response,VF_tag,trials_16.thisRepN,trials_16.thisTrialN,trials_16.thisN,trials_16.thisIndex,trials_16.ran,trials_17.thisRepN,trials_17.thisTrialN,trials_17.thisN,trials_17.thisIndex,trials_17.ran,VFcond,open_slider.response,open_slider.rt,trials_3.thisRepN,trials_3.thisTrialN,trials_3.thisN,trials_3.thisIndex,trials_3.ran,OpenQ,Rev,OPEN_ORDER,key_resp_2.keys,key_resp_2.rt
return,7.0686,4,12.8105,4,12.8105,0,0,0,56,1,78,cookie,rose,,90504,001,2022-04-27_21h06.32.350,SPAMnetsValid,2021.1.4,Win32,59.53089654,,,,,,,,,,,,,,,,,,,,,,,,,,,,,,,,,,,,,,,,,,,,,,,,,,,,,,,,,,,,,,,,,,,,,,,,,,,,,,,,,,,,,,,,,
,,7,3.1172,7,3.1172,0,1,1,41,1,19,microwave,pretzel,,90504,001,2022-04-27_21h06.32.350,SPAMnetsValid,2021.1.4,Win32,59.53089654,,,,,,,,,,,,,,,,,,,,,,,,,,,,,,,,,,,,,,,,,,,,,,,,,,,,,,,,,,,,,,,,,,,,,,,,,,,,,,,,,,,,,,,,,
,,3,1.798,3,1.798,0,2,2,49,1,57,flower,kitchen,,90504,001,2022-04-27_21h06.32.350,SPAMnetsValid,2021.1.4,Win32,59.53089654,,,,,,,,,,,,,,,,,,,,,,,,,,,,,,,,,,,,,,,,,,,,,,,,,,,,,,,,,,,,,,,,,,,,,,,,,,,,,,,,,,,,,,,,,
,,7,3.1284,7,3.1284,0,3,3,81,1,60,cactus,onion,,90504,001,2022-04-27_21h06.32.350,SPAMnetsValid,2021.1.4,Win32,59.53089654,,,,,,,,,,,,,,,,,,,,,,,,,,,,,,,,,,,,,,,,,,,,,,,,,,,,,,,,,,,,,,,,,,,,,,,,,,,,,,,,,,,,,,,,,
,,8,1.8183,8,1.8183,0,4,4,58,1,94,kitchen,microwave,,90504,001,2022-04-27_21h06.32.350,SPAMnetsValid,2021.1.4,Win32,59.53089654,,,,,,,,,,,,,,,,,,,,,,,,,,,,,,,,,,,,,,,,,,,,,,,,,,,,,,,,,,,,,,,,,,,,,,,,,,,,,,,,,,,,,,,,,
,,5,3.2172,5,3.2172,0,5,5,90,1,95,broom,refrigerator,,90504,001,2022-04-27_21h06.32.350,SPAMnetsValid,2021.1.4,Win32,59.53089654,,,,,,,,,,,,,,,,,,,,,,,,,,,,,,,,,,,,,,,,,,,,,,,,,,,,,,,,,,,,,,,,,,,,,,,,,,,,,,,,,,,,,,,,,
,,8,1.9637,8,1.9637,0,6,6,19,1,76,garden,rose,,90504,001,2022-04-27_21h06.32.350,SPAMnetsValid,2021.1.4,Win32,59.53089654,,,,,,,,,,,,,,,,,,,,,,,,,,,,,,,,,,,,,,,,,,,,,,,,,,,,,,,,,,,,,,,,,,,,,,,,,,,,,,,,,,,,,,,,,
,,6,2.3986,6,2.3986,0,7,7,8,1,43,chocolate,tomato,,90504,001,2022-04-27_21h06.32.350,SPAMnetsValid,2021.1.4,Win32,59.53089654,,,,,,,,,,,,,,,,,,,,,,,,,,,,,,,,,,,,,,,,,,,,,,,,,,,,,,,,,,,,,,,,,,,,,,,,,,,,,,,,,,,,,,,,,
,,7,1.4334,7,1.4334,0,8,8,86,1,51,onion,strawberry,,90504,001,2022-04-27_21h06.32.350,SPAMnetsValid,2021.1.4,Win32,59.53089654,,,,,,,,,,,,,,,,,,,,,,,,,,,,,,,,,,,,,,,,,,,,,,,,,,,,,,,,,,,,,,,,,,,,,,,,,,,,,,,,,,,,,,,,,
,,3,1.6295,3,1.6295,0,9,9,65,1,46,garden,yogurt,,90504,001,2022-04-27_21h06.32.350,SPAMnetsValid,2021.1.4,Win32,59.53089654,,,,,,,,,,,,,,,,,,,,,,,,,,,,,,,,,,,,,,,,,,,,,,,,,,,,,,,,,,,,,,,,,,,,,,,,,,,,,,,,,,,,,,,,,
,,7,2.7258,7,2.7258,0,10,10,83,1,6,garden,onion,,90504,001,2022-04-27_21h06.32.350,SPAMnetsValid,2021.1.4,Win32,59.53089654,,,,,,,,,,,,,,,,,,,,,,,,,,,,,,,,,,,,,,,,,,,,,,,,,,,,,,,,,,,,,,,,,,,,,,,,,,,,,,,,,,,,,,,,,
,,7,2.683,7,2.683,0,11,11,52,1,4,chocolate,pretzel,,90504,001,2022-04-27_21h06.32.350,SPAMnetsValid,2021.1.4,Win32,59.53089654,,,,,,,,,,,,,,,,,,,,,,,,,,,,,,,,,,,,,,,,,,,,,,,,,,,,,,,,,,,,,,,,,,,,,,,,,,,,,,,,,,,,,,,,,
,,3,3.0968,3,3.0968,0,12,12,15,1,48,flower,oven,,90504,001,2022-04-27_21h06.32.350,SPAMnetsValid,2021.1.4,Win32,59.53089654,,,,,,,,,,,,,,,,,,,,,,,,,,,,,,,,,,,,,,,,,,,,,,,,,,,,,,,,,,,,,,,,,,,,,,,,,,,,,,,,,,,,,,,,,
,,9,1.3763,9,1.3763,0,13,13,10,1,191,cake,cake,CHECK,90504,001,2022-04-27_21h06.32.350,SPAMnetsValid,2021.1.4,Win32,59.53089654,,,,,,,,,,,,,,,,,,,,,,,,,,,,,,,,,,,,,,,,,,,,,,,,,,,,,,,,,,,,,,,,,,,,,,,,,,,,,,,,,,,,,,,,,
,,7,1.5326,7,1.5326,0,14,14,76,1,36,broom,kitchen,,90504,001,2022-04-27_21h06.32.350,SPAMnetsValid,2021.1.4,Win32,59.53089654,,,,,,,,,,,,,,,,,,,,,,,,,,,,,,,,,,,,,,,,,,,,,,,,,,,,,,,,,,,,,,,,,,,,,,,,,,,,,,,,,,,,,,,,,
,,8,1.6593,8,1.6593,0,15,15,75,1,69,carrot,refrigerator,,90504,001,2022-04-27_21h06.32.350,SPAMnetsValid,2021.1.4,Win32,59.53089654,,,,,,,,,,,,,,,,,,,,,,,,,,,,,,,,,,,,,,,,,,,,,,,,,,,,,,,,,,,,,,,,,,,,,,,,,,,,,,,,,,,,,,,,,
,,4,1.9577,4,1.9577,0,16,16,16,1,14,broom,cookie,,90504,001,2022-04-27_21h06.32.350,SPAMnetsValid,2021.1.4,Win32,59.53089654,,,,,,,,,,,,,,,,,,,,,,,,,,,,,,,,,,,,,,,,,,,,,,,,,,,,,,,,,,,,,,,,,,,,,,,,,,,,,,,,,,,,,,,,,
,,4,1.9084,4,1.9084,0,17,17,61,1,71,broom,rose,,90504,001,2022-04-27_21h06.32.350,SPAMnetsValid,2021.1.4,Win32,59.53089654,,,,,,,,,,,,,,,,,,,,,,,,,,,,,,,,,,,,,,,,,,,,,,,,,,,,,,,,,,,,,,,,,,,,,,,,,,,,,,,,,,,,,,,,,
,,4,2.978,4,2.978,0,18,18,85,1,90,cactus,cake,,90504,001,2022-04-27_21h06.32.350,SPAMnetsValid,2021.1.4,Win32,59.53089654,,,,,,,,,,,,,,,,,,,,,,,,,,,,,,,,,,,,,,,,,,,,,,,,,,,,,,,,,,,,,,,,,,,,,,,,,,,,,,,,,,,,,,,,,
,,3,1.7696,3,1.7696,0,19,19,18,1,85,cake,tree,,90504,001,2022-04-27_21h06.32.350,SPAMnetsValid,2021.1.4,Win32,59.53089654,,,,,,,,,,,,,,,,,,,,,,,,,,,,,,,,,,,,,,,,,,,,,,,,,,,,,,,,,,,,,,,,,,,,,,,,,,,,,,,,,,,,,,,,,
,,7,2.0642,7,2.0642,0,20,20,80,1,61,strawberry,tomato,,90504,001,2022-04-27_21h06.32.350,SPAMnetsValid,2021.1.4,Win32,59.53089654,,,,,,,,,,,,,,,,,,,,,,,,,,,,,,,,,,,,,,,,,,,,,,,,,,,,,,,,,,,,,,,,,,,,,,,,,,,,,,,,,,,,,,,,,
,,7,1.4698,7,1.4698,0,21,21,66,1,20,rose,tree,,90504,001,2022-04-27_21h06.32.350,SPAMnetsValid,2021.1.4,Win32,59.53089654,,,,,,,,,,,,,,,,,,,,,,,,,,,,,,,,,,,,,,,,,,,,,,,,,,,,,,,,,,,,,,,,,,,,,,,,,,,,,,,,,,,,,,,,,
,,3,1.3095,3,1.3095,0,22,22,12,1,67,flower,yogurt,,90504,001,2022-04-27_21h06.32.350,SPAMnetsValid,2021.1.4,Win32,59.53089654,,,,,,,,,,,,,,,,,,,,,,,,,,,,,,,,,,,,,,,,,,,,,,,,,,,,,,,,,,,,,,,,,,,,,,,,,,,,,,,,,,,,,,,,,
,,7,1.2733,7,1.2733,0,23,23,93,1,63,cake,cookie,,90504,001,2022-04-27_21h06.32.350,SPAMnetsValid,2021.1.4,Win32,59.53089654,,,,,,,,,,,,,,,,,,,,,,,,,,,,,,,,,,,,,,,,,,,,,,,,,,,,,,,,,,,,,,,,,,,,,,,,,,,,,,,,,,,,,,,,,
,,6,3.0521,6,3.0521,0,24,24,62,1,18,onion,refrigerator,,90504,001,2022-04-27_21h06.32.350,SPAMnetsValid,2021.1.4,Win32,59.53089654,,,,,,,,,,,,,,,,,,,,,,,,,,,,,,,,,,,,,,,,,,,,,,,,,,,,,,,,,,,,,,,,,,,,,,,,,,,,,,,,,,,,,,,,,
,,6,1.4813,6,1.4813,0,25,25,45,1,10,flower,onion,,90504,001,2022-04-27_21h06.32.350,SPAMnetsValid,2021.1.4,Win32,59.53089654,,,,,,,,,,,,,,,,,,,,,,,,,,,,,,,,,,,,,,,,,,,,,,,,,,,,,,,,,,,,,,,,,,,,,,,,,,,,,,,,,,,,,,,,,
,,3,1.7121,3,1.7121,0,26,26,43,1,11,refrigerator,tree,,90504,001,2022-04-27_21h06.32.350,SPAMnetsValid,2021.1.4,Win32,59.53089654,,,,,,,,,,,,,,,,,,,,,,,,,,,,,,,,,,,,,,,,,,,,,,,,,,,,,,,,,,,,,,,,,,,,,,,,,,,,,,,,,,,,,,,,,
,,3,1.4689,3,1.4689,0,27,27,26,1,35,flower,pretzel,,90504,001,2022-04-27_21h06.32.350,SPAMnetsValid,2021.1.4,Win32,59.53089654,,,,,,,,,,,,,,,,,,,,,,,,,,,,,,,,,,,,,,,,,,,,,,,,,,,,,,,,,,,,,,,,,,,,,,,,,,,,,,,,,,,,,,,,,
,,6,2.5212,6,2.5212,0,28,28,38,1,88,cactus,melon,,90504,001,2022-04-27_21h06.32.350,SPAMnetsValid,2021.1.4,Win32,59.53089654,,,,,,,,,,,,,,,,,,,,,,,,,,,,,,,,,,,,,,,,,,,,,,,,,,,,,,,,,,,,,,,,,,,,,,,,,,,,,,,,,,,,,,,,,
,,7,1.4416,7,1.4416,0,29,29,63,1,21,cake,onion,,90504,001,2022-04-27_21h06.32.350,SPAMnetsValid,2021.1.4,Win32,59.53089654,,,,,,,,,,,,,,,,,,,,,,,,,,,,,,,,,,,,,,,,,,,,,,,,,,,,,,,,,,,,,,,,,,,,,,,,,,,,,,,,,,,,,,,,,
,,7,1.2442,7,1.2442,0,30,30,54,1,28,cake,melon,,90504,001,2022-04-27_21h06.32.350,SPAMnetsValid,2021.1.4,Win32,59.53089654,,,,,,,,,,,,,,,,,,,,,,,,,,,,,,,,,,,,,,,,,,,,,,,,,,,,,,,,,,,,,,,,,,,,,,,,,,,,,,,,,,,,,,,,,
,,3,1.9864,3,1.9864,0,31,31,23,1,65,broom,garden,,90504,001,2022-04-27_21h06.32.350,SPAMnetsValid,2021.1.4,Win32,59.53089654,,,,,,,,,,,,,,,,,,,,,,,,,,,,,,,,,,,,,,,,,,,,,,,,,,,,,,,,,,,,,,,,,,,,,,,,,,,,,,,,,,,,,,,,,
,,4,1.8765,4,1.8765,0,32,32,1,1,31,cactus,pretzel,,90504,001,2022-04-27_21h06.32.350,SPAMnetsValid,2021.1.4,Win32,59.53089654,,,,,,,,,,,,,,,,,,,,,,,,,,,,,,,,,,,,,,,,,,,,,,,,,,,,,,,,,,,,,,,,,,,,,,,,,,,,,,,,,,,,,,,,,
,,3,1.3841,3,1.3841,0,33,33,40,1,74,broom,pretzel,,90504,001,2022-04-27_21h06.32.350,SPAMnetsValid,2021.1.4,Win32,59.53089654,,,,,,,,,,,,,,,,,,,,,,,,,,,,,,,,,,,,,,,,,,,,,,,,,,,,,,,,,,,,,,,,,,,,,,,,,,,,,,,,,,,,,,,,,
,,2,3.3464,2,3.3464,0,34,34,5,1,13,broom,yogurt,,90504,001,2022-04-27_21h06.32.350,SPAMnetsValid,2021.1.4,Win32,59.53089654,,,,,,,,,,,,,,,,,,,,,,,,,,,,,,,,,,,,,,,,,,,,,,,,,,,,,,,,,,,,,,,,,,,,,,,,,,,,,,,,,,,,,,,,,
,,7,1.5827,7,1.5827,0,35,35,68,1,24,cookie,tomato,,90504,001,2022-04-27_21h06.32.350,SPAMnetsValid,2021.1.4,Win32,59.53089654,,,,,,,,,,,,,,,,,,,,,,,,,,,,,,,,,,,,,,,,,,,,,,,,,,,,,,,,,,,,,,,,,,,,,,,,,,,,,,,,,,,,,,,,,
,,3,2.2008,3,2.2008,0,36,36,11,1,37,garden,refrigerator,,90504,001,2022-04-27_21h06.32.350,SPAMnetsValid,2021.1.4,Win32,59.53089654,,,,,,,,,,,,,,,,,,,,,,,,,,,,,,,,,,,,,,,,,,,,,,,,,,,,,,,,,,,,,,,,,,,,,,,,,,,,,,,,,,,,,,,,,
,,7,1.3461,7,1.3461,0,37,37,51,1,47,onion,tomato,,90504,001,2022-04-27_21h06.32.350,SPAMnetsValid,2021.1.4,Win32,59.53089654,,,,,,,,,,,,,,,,,,,,,,,,,,,,,,,,,,,,,,,,,,,,,,,,,,,,,,,,,,,,,,,,,,,,,,,,,,,,,,,,,,,,,,,,,
,,6,3.83,6,3.83,0,38,38,9,1,75,cookie,onion,,90504,001,2022-04-27_21h06.32.350,SPAMnetsValid,2021.1.4,Win32,59.53089654,,,,,,,,,,,,,,,,,,,,,,,,,,,,,,,,,,,,,,,,,,,,,,,,,,,,,,,,,,,,,,,,,,,,,,,,,,,,,,,,,,,,,,,,,
,,7,2.0426,7,2.0426,0,39,39,34,1,29,chocolate,melon,,90504,001,2022-04-27_21h06.32.350,SPAMnetsValid,2021.1.4,Win32,59.53089654,,,,,,,,,,,,,,,,,,,,,,,,,,,,,,,,,,,,,,,,,,,,,,,,,,,,,,,,,,,,,,,,,,,,,,,,,,,,,,,,,,,,,,,,,
,,3,5.4842,3,5.4842,0,40,40,17,1,27,cactus,cookie,,90504,001,2022-04-27_21h06.32.350,SPAMnetsValid,2021.1.4,Win32,59.53089654,,,,,,,,,,,,,,,,,,,,,,,,,,,,,,,,,,,,,,,,,,,,,,,,,,,,,,,,,,,,,,,,,,,,,,,,,,,,,,,,,,,,,,,,,
,,3,3.5167,3,3.5167,0,41,41,88,1,92,broom,flower,,90504,001,2022-04-27_21h06.32.350,SPAMnetsValid,2021.1.4,Win32,59.53089654,,,,,,,,,,,,,,,,,,,,,,,,,,,,,,,,,,,,,,,,,,,,,,,,,,,,,,,,,,,,,,,,,,,,,,,,,,,,,,,,,,,,,,,,,
,,3,2.5486,3,2.5486,0,42,42,4,1,83,broom,carrot,,90504,001,2022-04-27_21h06.32.350,SPAMnetsValid,2021.1.4,Win32,59.53089654,,,,,,,,,,,,,,,,,,,,,,,,,,,,,,,,,,,,,,,,,,,,,,,,,,,,,,,,,,,,,,,,,,,,,,,,,,,,,,,,,,,,,,,,,
,,4,2.1093,4,2.1093,0,43,43,55,1,1,rose,yogurt,,90504,001,2022-04-27_21h06.32.350,SPAMnetsValid,2021.1.4,Win32,59.53089654,,,,,,,,,,,,,,,,,,,,,,,,,,,,,,,,,,,,,,,,,,,,,,,,,,,,,,,,,,,,,,,,,,,,,,,,,,,,,,,,,,,,,,,,,
,,6,2.024,6,2.024,0,44,44,73,1,50,carrot,rose,,90504,001,2022-04-27_21h06.32.350,SPAMnetsValid,2021.1.4,Win32,59.53089654,,,,,,,,,,,,,,,,,,,,,,,,,,,,,,,,,,,,,,,,,,,,,,,,,,,,,,,,,,,,,,,,,,,,,,,,,,,,,,,,,,,,,,,,,
,,8,1.7505,8,1.7505,0,45,45,64,1,9,kitchen,refrigerator,,90504,001,2022-04-27_21h06.32.350,SPAMnetsValid,2021.1.4,Win32,59.53089654,,,,,,,,,,,,,,,,,,,,,,,,,,,,,,,,,,,,,,,,,,,,,,,,,,,,,,,,,,,,,,,,,,,,,,,,,,,,,,,,,,,,,,,,,
,,3,8.9873,3,8.9873,0,46,46,27,1,72,broom,onion,,90504,001,2022-04-27_21h06.32.350,SPAMnetsValid,2021.1.4,Win32,59.53089654,,,,,,,,,,,,,,,,,,,,,,,,,,,,,,,,,,,,,,,,,,,,,,,,,,,,,,,,,,,,,,,,,,,,,,,,,,,,,,,,,,,,,,,,,
,,6,1.5451,6,1.5451,0,47,47,31,1,33,oven,yogurt,,90504,001,2022-04-27_21h06.32.350,SPAMnetsValid,2021.1.4,Win32,59.53089654,,,,,,,,,,,,,,,,,,,,,,,,,,,,,,,,,,,,,,,,,,,,,,,,,,,,,,,,,,,,,,,,,,,,,,,,,,,,,,,,,,,,,,,,,
,,3,7.3634,3,7.3634,0,48,48,25,1,23,flower,microwave,,90504,001,2022-04-27_21h06.32.350,SPAMnetsValid,2021.1.4,Win32,59.53089654,,,,,,,,,,,,,,,,,,,,,,,,,,,,,,,,,,,,,,,,,,,,,,,,,,,,,,,,,,,,,,,,,,,,,,,,,,,,,,,,,,,,,,,,,
,,3,2.2593,3,2.2593,0,49,49,79,1,86,oven,rose,,90504,001,2022-04-27_21h06.32.350,SPAMnetsValid,2021.1.4,Win32,59.53089654,,,,,,,,,,,,,,,,,,,,,,,,,,,,,,,,,,,,,,,,,,,,,,,,,,,,,,,,,,,,,,,,,,,,,,,,,,,,,,,,,,,,,,,,,
,,7,1.9501,7,1.9501,0,50,50,78,1,30,cookie,pretzel,,90504,001,2022-04-27_21h06.32.350,SPAMnetsValid,2021.1.4,Win32,59.53089654,,,,,,,,,,,,,,,,,,,,,,,,,,,,,,,,,,,,,,,,,,,,,,,,,,,,,,,,,,,,,,,,,,,,,,,,,,,,,,,,,,,,,,,,,
,,7,1.8202,7,1.8202,0,51,51,2,1,22,kitchen,strawberry,,90504,001,2022-04-27_21h06.32.350,SPAMnetsValid,2021.1.4,Win32,59.53089654,,,,,,,,,,,,,,,,,,,,,,,,,,,,,,,,,,,,,,,,,,,,,,,,,,,,,,,,,,,,,,,,,,,,,,,,,,,,,,,,,,,,,,,,,
,,7,1.348,7,1.348,0,52,52,44,1,25,carrot,onion,,90504,001,2022-04-27_21h06.32.350,SPAMnetsValid,2021.1.4,Win32,59.53089654,,,,,,,,,,,,,,,,,,,,,,,,,,,,,,,,,,,,,,,,,,,,,,,,,,,,,,,,,,,,,,,,,,,,,,,,,,,,,,,,,,,,,,,,,
,,3,2.122,3,2.122,0,53,53,46,1,41,broom,cactus,,90504,001,2022-04-27_21h06.32.350,SPAMnetsValid,2021.1.4,Win32,59.53089654,,,,,,,,,,,,,,,,,,,,,,,,,,,,,,,,,,,,,,,,,,,,,,,,,,,,,,,,,,,,,,,,,,,,,,,,,,,,,,,,,,,,,,,,,
,,7,1.9645,7,1.9645,0,54,54,36,1,12,cookie,yogurt,,90504,001,2022-04-27_21h06.32.350,SPAMnetsValid,2021.1.4,Win32,59.53089654,,,,,,,,,,,,,,,,,,,,,,,,,,,,,,,,,,,,,,,,,,,,,,,,,,,,,,,,,,,,,,,,,,,,,,,,,,,,,,,,,,,,,,,,,
,,3,19.6681,3,19.6681,0,55,55,57,1,62,kitchen,rose,,90504,001,2022-04-27_21h06.32.350,SPAMnetsValid,2021.1.4,Win32,59.53089654,,,,,,,,,,,,,,,,,,,,,,,,,,,,,,,,,,,,,,,,,,,,,,,,,,,,,,,,,,,,,,,,,,,,,,,,,,,,,,,,,,,,,,,,,
,,9,1.681,9,1.681,0,56,56,53,1,192,microwave,microwave,CHECK,90504,001,2022-04-27_21h06.32.350,SPAMnetsValid,2021.1.4,Win32,59.53089654,,,,,,,,,,,,,,,,,,,,,,,,,,,,,,,,,,,,,,,,,,,,,,,,,,,,,,,,,,,,,,,,,,,,,,,,,,,,,,,,,,,,,,,,,
,,7,1.7372,7,1.7372,0,57,57,50,1,81,pretzel,yogurt,,90504,001,2022-04-27_21h06.32.350,SPAMnetsValid,2021.1.4,Win32,59.53089654,,,,,,,,,,,,,,,,,,,,,,,,,,,,,,,,,,,,,,,,,,,,,,,,,,,,,,,,,,,,,,,,,,,,,,,,,,,,,,,,,,,,,,,,,
,,8,1.5078,8,1.5078,0,58,58,82,1,93,kitchen,oven,,90504,001,2022-04-27_21h06.32.350,SPAMnetsValid,2021.1.4,Win32,59.53089654,,,,,,,,,,,,,,,,,,,,,,,,,,,,,,,,,,,,,,,,,,,,,,,,,,,,,,,,,,,,,,,,,,,,,,,,,,,,,,,,,,,,,,,,,
,,4,1.8806,4,1.8806,0,59,59,89,1,80,chocolate,tree,,90504,001,2022-04-27_21h06.32.350,SPAMnetsValid,2021.1.4,Win32,59.53089654,,,,,,,,,,,,,,,,,,,,,,,,,,,,,,,,,,,,,,,,,,,,,,,,,,,,,,,,,,,,,,,,,,,,,,,,,,,,,,,,,,,,,,,,,
,,6,2.2686,6,2.2686,0,60,60,72,1,59,rose,strawberry,,90504,001,2022-04-27_21h06.32.350,SPAMnetsValid,2021.1.4,Win32,59.53089654,,,,,,,,,,,,,,,,,,,,,,,,,,,,,,,,,,,,,,,,,,,,,,,,,,,,,,,,,,,,,,,,,,,,,,,,,,,,,,,,,,,,,,,,,
,,3,1.3201,3,1.3201,0,61,61,59,1,8,broom,melon,,90504,001,2022-04-27_21h06.32.350,SPAMnetsValid,2021.1.4,Win32,59.53089654,,,,,,,,,,,,,,,,,,,,,,,,,,,,,,,,,,,,,,,,,,,,,,,,,,,,,,,,,,,,,,,,,,,,,,,,,,,,,,,,,,,,,,,,,
,,7,2.1619,7,2.1619,0,62,62,87,1,79,garden,strawberry,,90504,001,2022-04-27_21h06.32.350,SPAMnetsValid,2021.1.4,Win32,59.53089654,,,,,,,,,,,,,,,,,,,,,,,,,,,,,,,,,,,,,,,,,,,,,,,,,,,,,,,,,,,,,,,,,,,,,,,,,,,,,,,,,,,,,,,,,
,,3,2.6941,3,2.6941,0,63,63,70,1,5,oven,tree,,90504,001,2022-04-27_21h06.32.350,SPAMnetsValid,2021.1.4,Win32,59.53089654,,,,,,,,,,,,,,,,,,,,,,,,,,,,,,,,,,,,,,,,,,,,,,,,,,,,,,,,,,,,,,,,,,,,,,,,,,,,,,,,,,,,,,,,,
,,6,1.585,6,1.585,0,64,64,77,1,7,melon,tree,,90504,001,2022-04-27_21h06.32.350,SPAMnetsValid,2021.1.4,Win32,59.53089654,,,,,,,,,,,,,,,,,,,,,,,,,,,,,,,,,,,,,,,,,,,,,,,,,,,,,,,,,,,,,,,,,,,,,,,,,,,,,,,,,,,,,,,,,
,,7,1.2939,7,1.2939,0,65,65,69,1,45,onion,pretzel,,90504,001,2022-04-27_21h06.32.350,SPAMnetsValid,2021.1.4,Win32,59.53089654,,,,,,,,,,,,,,,,,,,,,,,,,,,,,,,,,,,,,,,,,,,,,,,,,,,,,,,,,,,,,,,,,,,,,,,,,,,,,,,,,,,,,,,,,
,,7,1.821,7,1.821,0,66,66,91,1,2,kitchen,onion,,90504,001,2022-04-27_21h06.32.350,SPAMnetsValid,2021.1.4,Win32,59.53089654,,,,,,,,,,,,,,,,,,,,,,,,,,,,,,,,,,,,,,,,,,,,,,,,,,,,,,,,,,,,,,,,,,,,,,,,,,,,,,,,,,,,,,,,,
,,6,1.5371,6,1.5371,0,67,67,7,1,34,melon,oven,,90504,001,2022-04-27_21h06.32.350,SPAMnetsValid,2021.1.4,Win32,59.53089654,,,,,,,,,,,,,,,,,,,,,,,,,,,,,,,,,,,,,,,,,,,,,,,,,,,,,,,,,,,,,,,,,,,,,,,,,,,,,,,,,,,,,,,,,
,,3,4.5235,3,4.5235,0,68,68,84,1,91,microwave,rose,,90504,001,2022-04-27_21h06.32.350,SPAMnetsValid,2021.1.4,Win32,59.53089654,,,,,,,,,,,,,,,,,,,,,,,,,,,,,,,,,,,,,,,,,,,,,,,,,,,,,,,,,,,,,,,,,,,,,,,,,,,,,,,,,,,,,,,,,
,,5,6.9675,5,6.9675,0,69,69,21,1,56,cactus,tree,,90504,001,2022-04-27_21h06.32.350,SPAMnetsValid,2021.1.4,Win32,59.53089654,,,,,,,,,,,,,,,,,,,,,,,,,,,,,,,,,,,,,,,,,,,,,,,,,,,,,,,,,,,,,,,,,,,,,,,,,,,,,,,,,,,,,,,,,
,,6,7.1858,6,7.1858,0,70,70,13,1,26,tomato,yogurt,,90504,001,2022-04-27_21h06.32.350,SPAMnetsValid,2021.1.4,Win32,59.53089654,,,,,,,,,,,,,,,,,,,,,,,,,,,,,,,,,,,,,,,,,,,,,,,,,,,,,,,,,,,,,,,,,,,,,,,,,,,,,,,,,,,,,,,,,
,,4,2.594,4,2.594,0,71,71,47,1,73,broom,chocolate,,90504,001,2022-04-27_21h06.32.350,SPAMnetsValid,2021.1.4,Win32,59.53089654,,,,,,,,,,,,,,,,,,,,,,,,,,,,,,,,,,,,,,,,,,,,,,,,,,,,,,,,,,,,,,,,,,,,,,,,,,,,,,,,,,,,,,,,,
,,3,7.1018,3,7.1018,0,72,72,37,1,58,garden,oven,,90504,001,2022-04-27_21h06.32.350,SPAMnetsValid,2021.1.4,Win32,59.53089654,,,,,,,,,,,,,,,,,,,,,,,,,,,,,,,,,,,,,,,,,,,,,,,,,,,,,,,,,,,,,,,,,,,,,,,,,,,,,,,,,,,,,,,,,
,,6,1.1547,6,1.1547,0,73,73,94,1,68,flower,tomato,,90504,001,2022-04-27_21h06.32.350,SPAMnetsValid,2021.1.4,Win32,59.53089654,,,,,,,,,,,,,,,,,,,,,,,,,,,,,,,,,,,,,,,,,,,,,,,,,,,,,,,,,,,,,,,,,,,,,,,,,,,,,,,,,,,,,,,,,
,,6,2.0262,6,2.0262,0,74,74,39,1,15,onion,oven,,90504,001,2022-04-27_21h06.32.350,SPAMnetsValid,2021.1.4,Win32,59.53089654,,,,,,,,,,,,,,,,,,,,,,,,,,,,,,,,,,,,,,,,,,,,,,,,,,,,,,,,,,,,,,,,,,,,,,,,,,,,,,,,,,,,,,,,,
,,6,1.7672,6,1.7672,0,75,75,28,1,84,oven,tomato,,90504,001,2022-04-27_21h06.32.350,SPAMnetsValid,2021.1.4,Win32,59.53089654,,,,,,,,,,,,,,,,,,,,,,,,,,,,,,,,,,,,,,,,,,,,,,,,,,,,,,,,,,,,,,,,,,,,,,,,,,,,,,,,,,,,,,,,,
,,6,1.053,6,1.053,0,76,76,30,1,3,cake,oven,,90504,001,2022-04-27_21h06.32.350,SPAMnetsValid,2021.1.4,Win32,59.53089654,,,,,,,,,,,,,,,,,,,,,,,,,,,,,,,,,,,,,,,,,,,,,,,,,,,,,,,,,,,,,,,,,,,,,,,,,,,,,,,,,,,,,,,,,
,,6,4.4251,6,4.4251,0,77,77,71,1,38,pretzel,refrigerator,,90504,001,2022-04-27_21h06.32.350,SPAMnetsValid,2021.1.4,Win32,59.53089654,,,,,,,,,,,,,,,,,,,,,,,,,,,,,,,,,,,,,,,,,,,,,,,,,,,,,,,,,,,,,,,,,,,,,,,,,,,,,,,,,,,,,,,,,
,,3,1.6709,3,1.6709,0,78,78,0,1,53,garden,pretzel,,90504,001,2022-04-27_21h06.32.350,SPAMnetsValid,2021.1.4,Win32,59.53089654,,,,,,,,,,,,,,,,,,,,,,,,,,,,,,,,,,,,,,,,,,,,,,,,,,,,,,,,,,,,,,,,,,,,,,,,,,,,,,,,,,,,,,,,,
,,7,1.5903,7,1.5903,0,79,79,96,1,82,cake,kitchen,,90504,001,2022-04-27_21h06.32.350,SPAMnetsValid,2021.1.4,Win32,59.53089654,,,,,,,,,,,,,,,,,,,,,,,,,,,,,,,,,,,,,,,,,,,,,,,,,,,,,,,,,,,,,,,,,,,,,,,,,,,,,,,,,,,,,,,,,
,,4,1.3383,4,1.3383,0,80,80,29,1,42,garden,kitchen,,90504,001,2022-04-27_21h06.32.350,SPAMnetsValid,2021.1.4,Win32,59.53089654,,,,,,,,,,,,,,,,,,,,,,,,,,,,,,,,,,,,,,,,,,,,,,,,,,,,,,,,,,,,,,,,,,,,,,,,,,,,,,,,,,,,,,,,,
,,6,1.6747,6,1.6747,0,81,81,35,1,55,tomato,tree,,90504,001,2022-04-27_21h06.32.350,SPAMnetsValid,2021.1.4,Win32,59.53089654,,,,,,,,,,,,,,,,,,,,,,,,,,,,,,,,,,,,,,,,,,,,,,,,,,,,,,,,,,,,,,,,,,,,,,,,,,,,,,,,,,,,,,,,,
,,7,1.6048,7,1.6048,0,82,82,20,1,39,melon,pretzel,,90504,001,2022-04-27_21h06.32.350,SPAMnetsValid,2021.1.4,Win32,59.53089654,,,,,,,,,,,,,,,,,,,,,,,,,,,,,,,,,,,,,,,,,,,,,,,,,,,,,,,,,,,,,,,,,,,,,,,,,,,,,,,,,,,,,,,,,
,,7,1.3407,7,1.3407,0,83,83,48,1,66,melon,yogurt,,90504,001,2022-04-27_21h06.32.350,SPAMnetsValid,2021.1.4,Win32,59.53089654,,,,,,,,,,,,,,,,,,,,,,,,,,,,,,,,,,,,,,,,,,,,,,,,,,,,,,,,,,,,,,,,,,,,,,,,,,,,,,,,,,,,,,,,,
,,7,2.7775,7,2.7775,0,84,84,92,1,44,cookie,melon,,90504,001,2022-04-27_21h06.32.350,SPAMnetsValid,2021.1.4,Win32,59.53089654,,,,,,,,,,,,,,,,,,,,,,,,,,,,,,,,,,,,,,,,,,,,,,,,,,,,,,,,,,,,,,,,,,,,,,,,,,,,,,,,,,,,,,,,,
,,7,20.4341,7,20.4341,0,85,85,3,1,49,flower,strawberry,,90504,001,2022-04-27_21h06.32.350,SPAMnetsValid,2021.1.4,Win32,59.53089654,,,,,,,,,,,,,,,,,,,,,,,,,,,,,,,,,,,,,,,,,,,,,,,,,,,,,,,,,,,,,,,,,,,,,,,,,,,,,,,,,,,,,,,,,
,,8,2.4556,8,2.4556,0,86,86,95,1,52,carrot,tomato,,90504,001,2022-04-27_21h06.32.350,SPAMnetsValid,2021.1.4,Win32,59.53089654,,,,,,,,,,,,,,,,,,,,,,,,,,,,,,,,,,,,,,,,,,,,,,,,,,,,,,,,,,,,,,,,,,,,,,,,,,,,,,,,,,,,,,,,,
,,3,2.7602,3,2.7602,0,87,87,32,1,40,broom,cake,,90504,001,2022-04-27_21h06.32.350,SPAMnetsValid,2021.1.4,Win32,59.53089654,,,,,,,,,,,,,,,,,,,,,,,,,,,,,,,,,,,,,,,,,,,,,,,,,,,,,,,,,,,,,,,,,,,,,,,,,,,,,,,,,,,,,,,,,
,,6,3.4546,6,3.4546,0,88,88,22,1,16,chocolate,flower,,90504,001,2022-04-27_21h06.32.350,SPAMnetsValid,2021.1.4,Win32,59.53089654,,,,,,,,,,,,,,,,,,,,,,,,,,,,,,,,,,,,,,,,,,,,,,,,,,,,,,,,,,,,,,,,,,,,,,,,,,,,,,,,,,,,,,,,,
,,6,1.1078,6,1.1078,0,89,89,60,1,89,chocolate,rose,,90504,001,2022-04-27_21h06.32.350,SPAMnetsValid,2021.1.4,Win32,59.53089654,,,,,,,,,,,,,,,,,,,,,,,,,,,,,,,,,,,,,,,,,,,,,,,,,,,,,,,,,,,,,,,,,,,,,,,,,,,,,,,,,,,,,,,,,
,,3,1.8385,3,1.8385,0,90,90,14,1,64,chocolate,garden,,90504,001,2022-04-27_21h06.32.350,SPAMnetsValid,2021.1.4,Win32,59.53089654,,,,,,,,,,,,,,,,,,,,,,,,,,,,,,,,,,,,,,,,,,,,,,,,,,,,,,,,,,,,,,,,,,,,,,,,,,,,,,,,,,,,,,,,,
,,6,1.0955,6,1.0955,0,91,91,6,1,87,carrot,yogurt,,90504,001,2022-04-27_21h06.32.350,SPAMnetsValid,2021.1.4,Win32,59.53089654,,,,,,,,,,,,,,,,,,,,,,,,,,,,,,,,,,,,,,,,,,,,,,,,,,,,,,,,,,,,,,,,,,,,,,,,,,,,,,,,,,,,,,,,,
,,8,1.488,8,1.488,0,92,92,42,1,77,refrigerator,yogurt,,90504,001,2022-04-27_21h06.32.350,SPAMnetsValid,2021.1.4,Win32,59.53089654,,,,,,,,,,,,,,,,,,,,,,,,,,,,,,,,,,,,,,,,,,,,,,,,,,,,,,,,,,,,,,,,,,,,,,,,,,,,,,,,,,,,,,,,,
,,6,2.5585,6,2.5585,0,93,93,74,1,70,chocolate,onion,,90504,001,2022-04-27_21h06.32.350,SPAMnetsValid,2021.1.4,Win32,59.53089654,,,,,,,,,,,,,,,,,,,,,,,,,,,,,,,,,,,,,,,,,,,,,,,,,,,,,,,,,,,,,,,,,,,,,,,,,,,,,,,,,,,,,,,,,
,,7,1.4392,7,1.4392,0,94,94,24,1,17,carrot,melon,,90504,001,2022-04-27_21h06.32.350,SPAMnetsValid,2021.1.4,Win32,59.53089654,,,,,,,,,,,,,,,,,,,,,,,,,,,,,,,,,,,,,,,,,,,,,,,,,,,,,,,,,,,,,,,,,,,,,,,,,,,,,,,,,,,,,,,,,
,,7,1.4884,7,1.4884,0,95,95,67,1,54,chocolate,yogurt,,90504,001,2022-04-27_21h06.32.350,SPAMnetsValid,2021.1.4,Win32,59.53089654,,,,,,,,,,,,,,,,,,,,,,,,,,,,,,,,,,,,,,,,,,,,,,,,,,,,,,,,,,,,,,,,,,,,,,,,,,,,,,,,,,,,,,,,,
,,6,9.1546,6,9.1546,0,96,96,33,1,32,cake,microwave,,90504,001,2022-04-27_21h06.32.350,SPAMnetsValid,2021.1.4,Win32,59.53089654,,,,,,,,,,,,,,,,,,,,,,,,,,,,,,,,,,,,,,,,,,,,,,,,,,,,,,,,,,,,,,,,,,,,,,,,,,,,,,,,,,,,,,,,,
,,,,,,,,,,,,,,,90504,001,2022-04-27_21h06.32.350,SPAMnetsValid,2021.1.4,Win32,59.53089654,0,0,0,0,1,,,,,,,,,,,,,,,,,,,,,,,,,,,,,,,,,,,,,,,,,,,,,,,,,,,,,,,,,,,,,,,,,,,,,,,,,,,,,,,,,,,,
,,,,,,,,,,,,,,,90504,001,2022-04-27_21h06.32.350,SPAMnetsValid,2021.1.4,Win32,59.53089654,,,,,,0,0,0,0,1,1,0,,,,,,,,,,,,,,,,,,,,,,,,,,,,,,,,,,,,,,,,,,,,,,,,,,,,,,,,,,,,,,,,,,,,,,,,,,,,,
,,,,6,33.2605,,,,,,185,cactus,rose,,90504,001,2022-04-27_21h06.32.350,SPAMnetsValid,2021.1.4,Win32,59.53089654,,,,,,,,,,,,,6,33.2605,0,0,0,43,1,,,,,,,,,,,,,,,,,,,,,,,,,,,,,,,,,,,,,,,,,,,,,,,,,,,,,,,,,,,,,,,,,,,,,,
,,,,6,2.3294,,,,,,139,carrot,strawberry,,90504,001,2022-04-27_21h06.32.350,SPAMnetsValid,2021.1.4,Win32,59.53089654,,,,,,,,,,,,,6,2.3294,0,1,1,37,1,,,,,,,,,,,,,,,,,,,,,,,,,,,,,,,,,,,,,,,,,,,,,,,,,,,,,,,,,,,,,,,,,,,,,,
,,,,6,1.4375,,,,,,96,oven,strawberry,,90504,001,2022-04-27_21h06.32.350,SPAMnetsValid,2021.1.4,Win32,59.53089654,,,,,,,,,,,,,6,1.4375,0,2,2,67,1,,,,,,,,,,,,,,,,,,,,,,,,,,,,,,,,,,,,,,,,,,,,,,,,,,,,,,,,,,,,,,,,,,,,,,
,,,,7,1.4547,,,,,,147,cake,refrigerator,,90504,001,2022-04-27_21h06.32.350,SPAMnetsValid,2021.1.4,Win32,59.53089654,,,,,,,,,,,,,7,1.4547,0,3,3,35,1,,,,,,,,,,,,,,,,,,,,,,,,,,,,,,,,,,,,,,,,,,,,,,,,,,,,,,,,,,,,,,,,,,,,,,
,,,,6,1.5089,,,,,,99,garden,melon,,90504,001,2022-04-27_21h06.32.350,SPAMnetsValid,2021.1.4,Win32,59.53089654,,,,,,,,,,,,,6,1.5089,0,4,4,17,1,,,,,,,,,,,,,,,,,,,,,,,,,,,,,,,,,,,,,,,,,,,,,,,,,,,,,,,,,,,,,,,,,,,,,,
,,,,7,1.6903,,,,,,102,chocolate,refrigerator,,90504,001,2022-04-27_21h06.32.350,SPAMnetsValid,2021.1.4,Win32,59.53089654,,,,,,,,,,,,,7,1.6903,0,5,5,76,1,,,,,,,,,,,,,,,,,,,,,,,,,,,,,,,,,,,,,,,,,,,,,,,,,,,,,,,,,,,,,,,,,,,,,,
,,,,3,1.9577,,,,,,133,cake,flower,,90504,001,2022-04-27_21h06.32.350,SPAMnetsValid,2021.1.4,Win32,59.53089654,,,,,,,,,,,,,3,1.9577,0,6,6,94,1,,,,,,,,,,,,,,,,,,,,,,,,,,,,,,,,,,,,,,,,,,,,,,,,,,,,,,,,,,,,,,,,,,,,,,
,,,,7,1.3267,,,,,,151,microwave,onion,,90504,001,2022-04-27_21h06.32.350,SPAMnetsValid,2021.1.4,Win32,59.53089654,,,,,,,,,,,,,7,1.3267,0,7,7,6,1,,,,,,,,,,,,,,,,,,,,,,,,,,,,,,,,,,,,,,,,,,,,,,,,,,,,,,,,,,,,,,,,,,,,,,
,,,,9,3.1079,,,,,,138,flower,rose,,90504,001,2022-04-27_21h06.32.350,SPAMnetsValid,2021.1.4,Win32,59.53089654,,,,,,,,,,,,,9,3.1079,0,8,8,61,1,,,,,,,,,,,,,,,,,,,,,,,,,,,,,,,,,,,,,,,,,,,,,,,,,,,,,,,,,,,,,,,,,,,,,,
,,,,6,5.5032,,,,,,135,carrot,oven,,90504,001,2022-04-27_21h06.32.350,SPAMnetsValid,2021.1.4,Win32,59.53089654,,,,,,,,,,,,,6,5.5032,0,9,9,73,1,,,,,,,,,,,,,,,,,,,,,,,,,,,,,,,,,,,,,,,,,,,,,,,,,,,,,,,,,,,,,,,,,,,,,,
,,,,3,1.4772,,,,,,164,cookie,garden,,90504,001,2022-04-27_21h06.32.350,SPAMnetsValid,2021.1.4,Win32,59.53089654,,,,,,,,,,,,,3,1.4772,0,10,10,59,1,,,,,,,,,,,,,,,,,,,,,,,,,,,,,,,,,,,,,,,,,,,,,,,,,,,,,,,,,,,,,,,,,,,,,,
,,,,6,1.8278,,,,,,103,pretzel,tomato,,90504,001,2022-04-27_21h06.32.350,SPAMnetsValid,2021.1.4,Win32,59.53089654,,,,,,,,,,,,,6,1.8278,0,11,11,79,1,,,,,,,,,,,,,,,,,,,,,,,,,,,,,,,,,,,,,,,,,,,,,,,,,,,,,,,,,,,,,,,,,,,,,,
,,,,6,1.2538,,,,,,145,cactus,yogurt,,90504,001,2022-04-27_21h06.32.350,SPAMnetsValid,2021.1.4,Win32,59.53089654,,,,,,,,,,,,,6,1.2538,0,12,12,15,1,,,,,,,,,,,,,,,,,,,,,,,,,,,,,,,,,,,,,,,,,,,,,,,,,,,,,,,,,,,,,,,,,,,,,,
,,,,7,6.6644,,,,,,174,cake,pretzel,,90504,001,2022-04-27_21h06.32.350,SPAMnetsValid,2021.1.4,Win32,59.53089654,,,,,,,,,,,,,7,6.6644,0,13,13,2,1,,,,,,,,,,,,,,,,,,,,,,,,,,,,,,,,,,,,,,,,,,,,,,,,,,,,,,,,,,,,,,,,,,,,,,
,,,,6,1.212,,,,,,141,melon,tomato,,90504,001,2022-04-27_21h06.32.350,SPAMnetsValid,2021.1.4,Win32,59.53089654,,,,,,,,,,,,,6,1.212,0,14,14,70,1,,,,,,,,,,,,,,,,,,,,,,,,,,,,,,,,,,,,,,,,,,,,,,,,,,,,,,,,,,,,,,,,,,,,,,
,,,,6,1.9231,,,,,,118,chocolate,oven,,90504,001,2022-04-27_21h06.32.350,SPAMnetsValid,2021.1.4,Win32,59.53089654,,,,,,,,,,,,,6,1.9231,0,15,15,10,1,,,,,,,,,,,,,,,,,,,,,,,,,,,,,,,,,,,,,,,,,,,,,,,,,,,,,,,,,,,,,,,,,,,,,,
,,,,4,1.6908,,,,,,183,cake,rose,,90504,001,2022-04-27_21h06.32.350,SPAMnetsValid,2021.1.4,Win32,59.53089654,,,,,,,,,,,,,4,1.6908,0,16,16,19,1,,,,,,,,,,,,,,,,,,,,,,,,,,,,,,,,,,,,,,,,,,,,,,,,,,,,,,,,,,,,,,,,,,,,,,
,,,,7,1.9801,,,,,,148,flower,melon,,90504,001,2022-04-27_21h06.32.350,SPAMnetsValid,2021.1.4,Win32,59.53089654,,,,,,,,,,,,,7,1.9801,0,17,17,23,1,,,,,,,,,,,,,,,,,,,,,,,,,,,,,,,,,,,,,,,,,,,,,,,,,,,,,,,,,,,,,,,,,,,,,,
,,,,9,1.7465,,,,,,194,cactus,cactus,CHECK,90504,001,2022-04-27_21h06.32.350,SPAMnetsValid,2021.1.4,Win32,59.53089654,,,,,,,,,,,,,9,1.7465,0,18,18,25,1,,,,,,,,,,,,,,,,,,,,,,,,,,,,,,,,,,,,,,,,,,,,,,,,,,,,,,,,,,,,,,,,,,,,,,
,,,,7,4.1311,,,,,,161,kitchen,pretzel,,90504,001,2022-04-27_21h06.32.350,SPAMnetsValid,2021.1.4,Win32,59.53089654,,,,,,,,,,,,,7,4.1311,0,19,19,36,1,,,,,,,,,,,,,,,,,,,,,,,,,,,,,,,,,,,,,,,,,,,,,,,,,,,,,,,,,,,,,,,,,,,,,,
,,,,3,2.3841,,,,,,187,cactus,microwave,,90504,001,2022-04-27_21h06.32.350,SPAMnetsValid,2021.1.4,Win32,59.53089654,,,,,,,,,,,,,3,2.3841,0,20,20,71,1,,,,,,,,,,,,,,,,,,,,,,,,,,,,,,,,,,,,,,,,,,,,,,,,,,,,,,,,,,,,,,,,,,,,,,
,,,,6,2.0679,,,,,,125,carrot,tree,,90504,001,2022-04-27_21h06.32.350,SPAMnetsValid,2021.1.4,Win32,59.53089654,,,,,,,,,,,,,6,2.0679,0,21,21,30,1,,,,,,,,,,,,,,,,,,,,,,,,,,,,,,,,,,,,,,,,,,,,,,,,,,,,,,,,,,,,,,,,,,,,,,
,,,,7,1.3393,,,,,,110,chocolate,cookie,,90504,001,2022-04-27_21h06.32.350,SPAMnetsValid,2021.1.4,Win32,59.53089654,,,,,,,,,,,,,7,1.3393,0,22,22,52,1,,,,,,,,,,,,,,,,,,,,,,,,,,,,,,,,,,,,,,,,,,,,,,,,,,,,,,,,,,,,,,,,,,,,,,
,,,,5,2.7856,,,,,,121,broom,microwave,,90504,001,2022-04-27_21h06.32.350,SPAMnetsValid,2021.1.4,Win32,59.53089654,,,,,,,,,,,,,5,2.7856,0,23,23,95,1,,,,,,,,,,,,,,,,,,,,,,,,,,,,,,,,,,,,,,,,,,,,,,,,,,,,,,,,,,,,,,,,,,,,,,
,,,,6,1.6817,,,,,,97,chocolate,kitchen,,90504,001,2022-04-27_21h06.32.350,SPAMnetsValid,2021.1.4,Win32,59.53089654,,,,,,,,,,,,,6,1.6817,0,24,24,8,1,,,,,,,,,,,,,,,,,,,,,,,,,,,,,,,,,,,,,,,,,,,,,,,,,,,,,,,,,,,,,,,,,,,,,,
,,,,6,1.1101,,,,,,181,carrot,kitchen,,90504,001,2022-04-27_21h06.32.350,SPAMnetsValid,2021.1.4,Win32,59.53089654,,,,,,,,,,,,,6,1.1101,0,25,25,72,1,,,,,,,,,,,,,,,,,,,,,,,,,,,,,,,,,,,,,,,,,,,,,,,,,,,,,,,,,,,,,,,,,,,,,,
,,,,5,2.4069,,,,,,111,carrot,microwave,,90504,001,2022-04-27_21h06.32.350,SPAMnetsValid,2021.1.4,Win32,59.53089654,,,,,,,,,,,,,5,2.4069,0,26,26,16,1,,,,,,,,,,,,,,,,,,,,,,,,,,,,,,,,,,,,,,,,,,,,,,,,,,,,,,,,,,,,,,,,,,,,,,
,,,,3,2.2033,,,,,,101,cactus,kitchen,,90504,001,2022-04-27_21h06.32.350,SPAMnetsValid,2021.1.4,Win32,59.53089654,,,,,,,,,,,,,3,2.2033,0,27,27,54,1,,,,,,,,,,,,,,,,,,,,,,,,,,,,,,,,,,,,,,,,,,,,,,,,,,,,,,,,,,,,,,,,,,,,,,
,,,,7,1.6631,,,,,,156,melon,rose,,90504,001,2022-04-27_21h06.32.350,SPAMnetsValid,2021.1.4,Win32,59.53089654,,,,,,,,,,,,,7,1.6631,0,28,28,31,1,,,,,,,,,,,,,,,,,,,,,,,,,,,,,,,,,,,,,,,,,,,,,,,,,,,,,,,,,,,,,,,,,,,,,,
,,,,3,2.9809,,,,,,159,cookie,flower,,90504,001,2022-04-27_21h06.32.350,SPAMnetsValid,2021.1.4,Win32,59.53089654,,,,,,,,,,,,,3,2.9809,0,29,29,21,1,,,,,,,,,,,,,,,,,,,,,,,,,,,,,,,,,,,,,,,,,,,,,,,,,,,,,,,,,,,,,,,,,,,,,,
,,,,7,17.5546,,,,,,131,cactus,garden,,90504,001,2022-04-27_21h06.32.350,SPAMnetsValid,2021.1.4,Win32,59.53089654,,,,,,,,,,,,,7,17.5546,0,30,30,33,1,,,,,,,,,,,,,,,,,,,,,,,,,,,,,,,,,,,,,,,,,,,,,,,,,,,,,,,,,,,,,,,,,,,,,,
,,,,6,18.7482,,,,,,108,carrot,chocolate,,90504,001,2022-04-27_21h06.32.350,SPAMnetsValid,2021.1.4,Win32,59.53089654,,,,,,,,,,,,,6,18.7482,0,31,31,5,1,,,,,,,,,,,,,,,,,,,,,,,,,,,,,,,,,,,,,,,,,,,,,,,,,,,,,,,,,,,,,,,,,,,,,,
,,,,8,1.9981,,,,,,122,flower,garden,,90504,001,2022-04-27_21h06.32.350,SPAMnetsValid,2021.1.4,Win32,59.53089654,,,,,,,,,,,,,8,1.9981,0,32,32,60,1,,,,,,,,,,,,,,,,,,,,,,,,,,,,,,,,,,,,,,,,,,,,,,,,,,,,,,,,,,,,,,,,,,,,,,
,,,,7,1.483,,,,,,140,cookie,refrigerator,,90504,001,2022-04-27_21h06.32.350,SPAMnetsValid,2021.1.4,Win32,59.53089654,,,,,,,,,,,,,7,1.483,0,33,33,89,1,,,,,,,,,,,,,,,,,,,,,,,,,,,,,,,,,,,,,,,,,,,,,,,,,,,,,,,,,,,,,,,,,,,,,,
,,,,6,1.6015,,,,,,170,cookie,microwave,,90504,001,2022-04-27_21h06.32.350,SPAMnetsValid,2021.1.4,Win32,59.53089654,,,,,,,,,,,,,6,1.6015,0,34,34,92,1,,,,,,,,,,,,,,,,,,,,,,,,,,,,,,,,,,,,,,,,,,,,,,,,,,,,,,,,,,,,,,,,,,,,,,
,,,,8,1.2991,,,,,,166,cake,yogurt,,90504,001,2022-04-27_21h06.32.350,SPAMnetsValid,2021.1.4,Win32,59.53089654,,,,,,,,,,,,,8,1.2991,0,35,35,91,1,,,,,,,,,,,,,,,,,,,,,,,,,,,,,,,,,,,,,,,,,,,,,,,,,,,,,,,,,,,,,,,,,,,,,,
,,,,3,3.7907,,,,,,123,cookie,tree,,90504,001,2022-04-27_21h06.32.350,SPAMnetsValid,2021.1.4,Win32,59.53089654,,,,,,,,,,,,,3,3.7907,0,36,36,46,1,,,,,,,,,,,,,,,,,,,,,,,,,,,,,,,,,,,,,,,,,,,,,,,,,,,,,,,,,,,,,,,,,,,,,,
,,,,6,1.8915,,,,,,176,cactus,tomato,,90504,001,2022-04-27_21h06.32.350,SPAMnetsValid,2021.1.4,Win32,59.53089654,,,,,,,,,,,,,6,1.8915,0,37,37,9,1,,,,,,,,,,,,,,,,,,,,,,,,,,,,,,,,,,,,,,,,,,,,,,,,,,,,,,,,,,,,,,,,,,,,,,
,,,,8,1.8187,,,,,,150,microwave,refrigerator,,90504,001,2022-04-27_21h06.32.350,SPAMnetsValid,2021.1.4,Win32,59.53089654,,,,,,,,,,,,,8,1.8187,0,38,38,66,1,,,,,,,,,,,,,,,,,,,,,,,,,,,,,,,,,,,,,,,,,,,,,,,,,,,,,,,,,,,,,,,,,,,,,,
,,,,6,1.9121,,,,,,117,melon,strawberry,,90504,001,2022-04-27_21h06.32.350,SPAMnetsValid,2021.1.4,Win32,59.53089654,,,,,,,,,,,,,6,1.9121,0,39,39,11,1,,,,,,,,,,,,,,,,,,,,,,,,,,,,,,,,,,,,,,,,,,,,,,,,,,,,,,,,,,,,,,,,,,,,,,
,,,,8,1.3499,,,,,,120,microwave,oven,,90504,001,2022-04-27_21h06.32.350,SPAMnetsValid,2021.1.4,Win32,59.53089654,,,,,,,,,,,,,8,1.3499,0,40,40,14,1,,,,,,,,,,,,,,,,,,,,,,,,,,,,,,,,,,,,,,,,,,,,,,,,,,,,,,,,,,,,,,,,,,,,,,
,,,,6,1.2931,,,,,,171,cake,tomato,,90504,001,2022-04-27_21h06.32.350,SPAMnetsValid,2021.1.4,Win32,59.53089654,,,,,,,,,,,,,6,1.2931,0,41,41,88,1,,,,,,,,,,,,,,,,,,,,,,,,,,,,,,,,,,,,,,,,,,,,,,,,,,,,,,,,,,,,,,,,,,,,,,
,,,,9,1.0661,,,,,,193,melon,melon,CHECK,90504,001,2022-04-27_21h06.32.350,SPAMnetsValid,2021.1.4,Win32,59.53089654,,,,,,,,,,,,,9,1.0661,0,42,42,86,1,,,,,,,,,,,,,,,,,,,,,,,,,,,,,,,,,,,,,,,,,,,,,,,,,,,,,,,,,,,,,,,,,,,,,,
,,,,8,1.3095,,,,,,167,carrot,garden,,90504,001,2022-04-27_21h06.32.350,SPAMnetsValid,2021.1.4,Win32,59.53089654,,,,,,,,,,,,,8,1.3095,0,43,43,47,1,,,,,,,,,,,,,,,,,,,,,,,,,,,,,,,,,,,,,,,,,,,,,,,,,,,,,,,,,,,,,,,,,,,,,,
,,,,6,1.177,,,,,,155,carrot,cookie,,90504,001,2022-04-27_21h06.32.350,SPAMnetsValid,2021.1.4,Win32,59.53089654,,,,,,,,,,,,,6,1.177,0,44,44,38,1,,,,,,,,,,,,,,,,,,,,,,,,,,,,,,,,,,,,,,,,,,,,,,,,,,,,,,,,,,,,,,,,,,,,,,
,,,,6,1.249,,,,,,190,microwave,strawberry,,90504,001,2022-04-27_21h06.32.350,SPAMnetsValid,2021.1.4,Win32,59.53089654,,,,,,,,,,,,,6,1.249,0,45,45,90,1,,,,,,,,,,,,,,,,,,,,,,,,,,,,,,,,,,,,,,,,,,,,,,,,,,,,,,,,,,,,,,,,,,,,,,
,,,,6,1.3427,,,,,,168,cactus,flower,,90504,001,2022-04-27_21h06.32.350,SPAMnetsValid,2021.1.4,Win32,59.53089654,,,,,,,,,,,,,6,1.3427,0,46,46,51,1,,,,,,,,,,,,,,,,,,,,,,,,,,,,,,,,,,,,,,,,,,,,,,,,,,,,,,,,,,,,,,,,,,,,,,
,,,,3,1.5445,,,,,,142,garden,tree,,90504,001,2022-04-27_21h06.32.350,SPAMnetsValid,2021.1.4,Win32,59.53089654,,,,,,,,,,,,,3,1.5445,0,47,47,22,1,,,,,,,,,,,,,,,,,,,,,,,,,,,,,,,,,,,,,,,,,,,,,,,,,,,,,,,,,,,,,,,,,,,,,,
,,,,6,1.4879,,,,,,136,chocolate,microwave,,90504,001,2022-04-27_21h06.32.350,SPAMnetsValid,2021.1.4,Win32,59.53089654,,,,,,,,,,,,,6,1.4879,0,48,48,96,1,,,,,,,,,,,,,,,,,,,,,,,,,,,,,,,,,,,,,,,,,,,,,,,,,,,,,,,,,,,,,,,,,,,,,,
,,,,8,1.64,,,,,,124,oven,refrigerator,,90504,001,2022-04-27_21h06.32.350,SPAMnetsValid,2021.1.4,Win32,59.53089654,,,,,,,,,,,,,8,1.64,0,49,49,69,1,,,,,,,,,,,,,,,,,,,,,,,,,,,,,,,,,,,,,,,,,,,,,,,,,,,,,,,,,,,,,,,,,,,,,,
,,,,5,54.1674,,,,,,182,flower,refrigerator,,90504,001,2022-04-27_21h06.32.350,SPAMnetsValid,2021.1.4,Win32,59.53089654,,,,,,,,,,,,,5,54.1674,0,50,50,32,1,,,,,,,,,,,,,,,,,,,,,,,,,,,,,,,,,,,,,,,,,,,,,,,,,,,,,,,,,,,,,,,,,,,,,,
,,,,6,2.2046,,,,,,112,cake,carrot,,90504,001,2022-04-27_21h06.32.350,SPAMnetsValid,2021.1.4,Win32,59.53089654,,,,,,,,,,,,,6,2.2046,0,51,51,39,1,,,,,,,,,,,,,,,,,,,,,,,,,,,,,,,,,,,,,,,,,,,,,,,,,,,,,,,,,,,,,,,,,,,,,,
,,,,6,4.6393,,,,,,172,kitchen,melon,,90504,001,2022-04-27_21h06.32.350,SPAMnetsValid,2021.1.4,Win32,59.53089654,,,,,,,,,,,,,6,4.6393,0,52,52,77,1,,,,,,,,,,,,,,,,,,,,,,,,,,,,,,,,,,,,,,,,,,,,,,,,,,,,,,,,,,,,,,,,,,,,,,
,,,,6,1.2855,,,,,,98,pretzel,strawberry,,90504,001,2022-04-27_21h06.32.350,SPAMnetsValid,2021.1.4,Win32,59.53089654,,,,,,,,,,,,,6,1.2855,0,53,53,82,1,,,,,,,,,,,,,,,,,,,,,,,,,,,,,,,,,,,,,,,,,,,,,,,,,,,,,,,,,,,,,,,,,,,,,,
,,,,6,1.5061,,,,,,119,strawberry,tree,,90504,001,2022-04-27_21h06.32.350,SPAMnetsValid,2021.1.4,Win32,59.53089654,,,,,,,,,,,,,6,1.5061,0,54,54,18,1,,,,,,,,,,,,,,,,,,,,,,,,,,,,,,,,,,,,,,,,,,,,,,,,,,,,,,,,,,,,,,,,,,,,,,
,,,,6,1.0767,,,,,,173,kitchen,tomato,,90504,001,2022-04-27_21h06.32.350,SPAMnetsValid,2021.1.4,Win32,59.53089654,,,,,,,,,,,,,6,1.0767,0,55,55,1,1,,,,,,,,,,,,,,,,,,,,,,,,,,,,,,,,,,,,,,,,,,,,,,,,,,,,,,,,,,,,,,,,,,,,,,
,,,,6,1.025,,,,,,162,microwave,tomato,,90504,001,2022-04-27_21h06.32.350,SPAMnetsValid,2021.1.4,Win32,59.53089654,,,,,,,,,,,,,6,1.025,0,56,56,12,1,,,,,,,,,,,,,,,,,,,,,,,,,,,,,,,,,,,,,,,,,,,,,,,,,,,,,,,,,,,,,,,,,,,,,,
,,,,6,0.9989,,,,,,113,refrigerator,strawberry,,90504,001,2022-04-27_21h06.32.350,SPAMnetsValid,2021.1.4,Win32,59.53089654,,,,,,,,,,,,,6,0.9989,0,57,57,56,1,,,,,,,,,,,,,,,,,,,,,,,,,,,,,,,,,,,,,,,,,,,,,,,,,,,,,,,,,,,,,,,,,,,,,,
,,,,5,3.2696,,,,,,179,broom,oven,,90504,001,2022-04-27_21h06.32.350,SPAMnetsValid,2021.1.4,Win32,59.53089654,,,,,,,,,,,,,5,3.2696,0,58,58,45,1,,,,,,,,,,,,,,,,,,,,,,,,,,,,,,,,,,,,,,,,,,,,,,,,,,,,,,,,,,,,,,,,,,,,,,
,,,,6,1.1519,,,,,,189,onion,tree,,90504,001,2022-04-27_21h06.32.350,SPAMnetsValid,2021.1.4,Win32,59.53089654,,,,,,,,,,,,,6,1.1519,0,59,59,62,1,,,,,,,,,,,,,,,,,,,,,,,,,,,,,,,,,,,,,,,,,,,,,,,,,,,,,,,,,,,,,,,,,,,,,,
,,,,7,1.5387,,,,,,160,cookie,kitchen,,90504,001,2022-04-27_21h06.32.350,SPAMnetsValid,2021.1.4,Win32,59.53089654,,,,,,,,,,,,,7,1.5387,0,60,60,65,1,,,,,,,,,,,,,,,,,,,,,,,,,,,,,,,,,,,,,,,,,,,,,,,,,,,,,,,,,,,,,,,,,,,,,,
,,,,3,1.6121,,,,,,180,tree,yogurt,,90504,001,2022-04-27_21h06.32.350,SPAMnetsValid,2021.1.4,Win32,59.53089654,,,,,,,,,,,,,3,1.6121,0,61,61,68,1,,,,,,,,,,,,,,,,,,,,,,,,,,,,,,,,,,,,,,,,,,,,,,,,,,,,,,,,,,,,,,,,,,,,,,
,,,,6,35.5623,,,,,,184,oven,pretzel,,90504,001,2022-04-27_21h06.32.350,SPAMnetsValid,2021.1.4,Win32,59.53089654,,,,,,,,,,,,,6,35.5623,0,62,62,42,1,,,,,,,,,,,,,,,,,,,,,,,,,,,,,,,,,,,,,,,,,,,,,,,,,,,,,,,,,,,,,,,,,,,,,,
,,,,4,1.1434,,,,,,146,pretzel,tree,,90504,001,2022-04-27_21h06.32.350,SPAMnetsValid,2021.1.4,Win32,59.53089654,,,,,,,,,,,,,4,1.1434,0,63,63,80,1,,,,,,,,,,,,,,,,,,,,,,,,,,,,,,,,,,,,,,,,,,,,,,,,,,,,,,,,,,,,,,,,,,,,,,
,,,,3,3.0386,,,,,,157,refrigerator,rose,,90504,001,2022-04-27_21h06.32.350,SPAMnetsValid,2021.1.4,Win32,59.53089654,,,,,,,,,,,,,3,3.0386,0,64,64,64,1,,,,,,,,,,,,,,,,,,,,,,,,,,,,,,,,,,,,,,,,,,,,,,,,,,,,,,,,,,,,,,,,,,,,,,
,,,,6,1.016,,,,,,153,carrot,pretzel,,90504,001,2022-04-27_21h06.32.350,SPAMnetsValid,2021.1.4,Win32,59.53089654,,,,,,,,,,,,,6,1.016,0,65,65,34,1,,,,,,,,,,,,,,,,,,,,,,,,,,,,,,,,,,,,,,,,,,,,,,,,,,,,,,,,,,,,,,,,,,,,,,
,,,,3,2.1054,,,,,,127,cactus,chocolate,,90504,001,2022-04-27_21h06.32.350,SPAMnetsValid,2021.1.4,Win32,59.53089654,,,,,,,,,,,,,3,2.1054,0,66,66,57,1,,,,,,,,,,,,,,,,,,,,,,,,,,,,,,,,,,,,,,,,,,,,,,,,,,,,,,,,,,,,,,,,,,,,,,
,,,,6,2.4238,,,,,,152,cactus,strawberry,,90504,001,2022-04-27_21h06.32.350,SPAMnetsValid,2021.1.4,Win32,59.53089654,,,,,,,,,,,,,6,2.4238,0,67,67,49,1,,,,,,,,,,,,,,,,,,,,,,,,,,,,,,,,,,,,,,,,,,,,,,,,,,,,,,,,,,,,,,,,,,,,,,
,,,,3,2.4055,,,,,,143,pretzel,rose,,90504,001,2022-04-27_21h06.32.350,SPAMnetsValid,2021.1.4,Win32,59.53089654,,,,,,,,,,,,,3,2.4055,0,68,68,55,1,,,,,,,,,,,,,,,,,,,,,,,,,,,,,,,,,,,,,,,,,,,,,,,,,,,,,,,,,,,,,,,,,,,,,,
,,,,6,18.4315,,,,,,163,melon,refrigerator,,90504,001,2022-04-27_21h06.32.350,SPAMnetsValid,2021.1.4,Win32,59.53089654,,,,,,,,,,,,,6,18.4315,0,69,69,29,1,,,,,,,,,,,,,,,,,,,,,,,,,,,,,,,,,,,,,,,,,,,,,,,,,,,,,,,,,,,,,,,,,,,,,,
,,,,3,1.5072,,,,,,137,microwave,tree,,90504,001,2022-04-27_21h06.32.350,SPAMnetsValid,2021.1.4,Win32,59.53089654,,,,,,,,,,,,,3,1.5072,0,70,70,63,1,,,,,,,,,,,,,,,,,,,,,,,,,,,,,,,,,,,,,,,,,,,,,,,,,,,,,,,,,,,,,,,,,,,,,,
,,,,3,5.4575,,,,,,129,cactus,refrigerator,,90504,001,2022-04-27_21h06.32.350,SPAMnetsValid,2021.1.4,Win32,59.53089654,,,,,,,,,,,,,3,5.4575,0,71,71,3,1,,,,,,,,,,,,,,,,,,,,,,,,,,,,,,,,,,,,,,,,,,,,,,,,,,,,,,,,,,,,,,,,,,,,,,
,,,,7,1.7244,,,,,,177,chocolate,strawberry,,90504,001,2022-04-27_21h06.32.350,SPAMnetsValid,2021.1.4,Win32,59.53089654,,,,,,,,,,,,,7,1.7244,0,72,72,53,1,,,,,,,,,,,,,,,,,,,,,,,,,,,,,,,,,,,,,,,,,,,,,,,,,,,,,,,,,,,,,,,,,,,,,,
,,,,6,1.0092,,,,,,165,onion,rose,,90504,001,2022-04-27_21h06.32.350,SPAMnetsValid,2021.1.4,Win32,59.53089654,,,,,,,,,,,,,6,1.0092,0,73,73,40,1,,,,,,,,,,,,,,,,,,,,,,,,,,,,,,,,,,,,,,,,,,,,,,,,,,,,,,,,,,,,,,,,,,,,,,
,,,,7,1.2576,,,,,,100,garden,tomato,,90504,001,2022-04-27_21h06.32.350,SPAMnetsValid,2021.1.4,Win32,59.53089654,,,,,,,,,,,,,7,1.2576,0,74,74,83,1,,,,,,,,,,,,,,,,,,,,,,,,,,,,,,,,,,,,,,,,,,,,,,,,,,,,,,,,,,,,,,,,,,,,,,
,,,,3,1.4231,,,,,,104,garden,microwave,,90504,001,2022-04-27_21h06.32.350,SPAMnetsValid,2021.1.4,Win32,59.53089654,,,,,,,,,,,,,3,1.4231,0,75,75,81,1,,,,,,,,,,,,,,,,,,,,,,,,,,,,,,,,,,,,,,,,,,,,,,,,,,,,,,,,,,,,,,,,,,,,,,
,,,,7,1.5254,,,,,,114,cookie,strawberry,,90504,001,2022-04-27_21h06.32.350,SPAMnetsValid,2021.1.4,Win32,59.53089654,,,,,,,,,,,,,7,1.5254,0,76,76,87,1,,,,,,,,,,,,,,,,,,,,,,,,,,,,,,,,,,,,,,,,,,,,,,,,,,,,,,,,,,,,,,,,,,,,,,
,,,,3,23.1646,,,,,,132,broom,tree,,90504,001,2022-04-27_21h06.32.350,SPAMnetsValid,2021.1.4,Win32,59.53089654,,,,,,,,,,,,,3,23.1646,0,77,77,78,1,,,,,,,,,,,,,,,,,,,,,,,,,,,,,,,,,,,,,,,,,,,,,,,,,,,,,,,,,,,,,,,,,,,,,,
,,,,6,1.493,,,,,,158,cookie,oven,,90504,001,2022-04-27_21h06.32.350,SPAMnetsValid,2021.1.4,Win32,59.53089654,,,,,,,,,,,,,6,1.493,0,78,78,27,1,,,,,,,,,,,,,,,,,,,,,,,,,,,,,,,,,,,,,,,,,,,,,,,,,,,,,,,,,,,,,,,,,,,,,,
,,,,7,1.7333,,,,,,106,cake,strawberry,,90504,001,2022-04-27_21h06.32.350,SPAMnetsValid,2021.1.4,Win32,59.53089654,,,,,,,,,,,,,7,1.7333,0,79,79,0,1,,,,,,,,,,,,,,,,,,,,,,,,,,,,,,,,,,,,,,,,,,,,,,,,,,,,,,,,,,,,,,,,,,,,,,
,,,,6,0.9441,,,,,,175,melon,onion,,90504,001,2022-04-27_21h06.32.350,SPAMnetsValid,2021.1.4,Win32,59.53089654,,,,,,,,,,,,,6,0.9441,0,80,80,41,1,,,,,,,,,,,,,,,,,,,,,,,,,,,,,,,,,,,,,,,,,,,,,,,,,,,,,,,,,,,,,,,,,,,,,,
,,,,3,1.5914,,,,,,109,broom,strawberry,,90504,001,2022-04-27_21h06.32.350,SPAMnetsValid,2021.1.4,Win32,59.53089654,,,,,,,,,,,,,3,1.5914,0,81,81,4,1,,,,,,,,,,,,,,,,,,,,,,,,,,,,,,,,,,,,,,,,,,,,,,,,,,,,,,,,,,,,,,,,,,,,,,
,,,,7,1.9031,,,,,,107,rose,tomato,,90504,001,2022-04-27_21h06.32.350,SPAMnetsValid,2021.1.4,Win32,59.53089654,,,,,,,,,,,,,7,1.9031,0,82,82,26,1,,,,,,,,,,,,,,,,,,,,,,,,,,,,,,,,,,,,,,,,,,,,,,,,,,,,,,,,,,,,,,,,,,,,,,
,,,,3,2.5015,,,,,,149,broom,tomato,,90504,001,2022-04-27_21h06.32.350,SPAMnetsValid,2021.1.4,Win32,59.53089654,,,,,,,,,,,,,3,2.5015,0,83,83,20,1,,,,,,,,,,,,,,,,,,,,,,,,,,,,,,,,,,,,,,,,,,,,,,,,,,,,,,,,,,,,,,,,,,,,,,
,,,,3,1.8466,,,,,,126,kitchen,tree,,90504,001,2022-04-27_21h06.32.350,SPAMnetsValid,2021.1.4,Win32,59.53089654,,,,,,,,,,,,,3,1.8466,0,84,84,50,1,,,,,,,,,,,,,,,,,,,,,,,,,,,,,,,,,,,,,,,,,,,,,,,,,,,,,,,,,,,,,,,,,,,,,,
,,,,6,1.605,,,,,,178,cactus,carrot,,90504,001,2022-04-27_21h06.32.350,SPAMnetsValid,2021.1.4,Win32,59.53089654,,,,,,,,,,,,,6,1.605,0,85,85,75,1,,,,,,,,,,,,,,,,,,,,,,,,,,,,,,,,,,,,,,,,,,,,,,,,,,,,,,,,,,,,,,,,,,,,,,
,,,,6,1.9433,,,,,,128,melon,microwave,,90504,001,2022-04-27_21h06.32.350,SPAMnetsValid,2021.1.4,Win32,59.53089654,,,,,,,,,,,,,6,1.9433,0,86,86,74,1,,,,,,,,,,,,,,,,,,,,,,,,,,,,,,,,,,,,,,,,,,,,,,,,,,,,,,,,,,,,,,,,,,,,,,
,,,,6,1.3991,,,,,,169,onion,yogurt,,90504,001,2022-04-27_21h06.32.350,SPAMnetsValid,2021.1.4,Win32,59.53089654,,,,,,,,,,,,,6,1.3991,0,87,87,24,1,,,,,,,,,,,,,,,,,,,,,,,,,,,,,,,,,,,,,,,,,,,,,,,,,,,,,,,,,,,,,,,,,,,,,,
,,,,3,1.7902,,,,,,105,cactus,oven,,90504,001,2022-04-27_21h06.32.350,SPAMnetsValid,2021.1.4,Win32,59.53089654,,,,,,,,,,,,,3,1.7902,0,88,88,13,1,,,,,,,,,,,,,,,,,,,,,,,,,,,,,,,,,,,,,,,,,,,,,,,,,,,,,,,,,,,,,,,,,,,,,,
,,,,7,16.3155,,,,,,154,strawberry,yogurt,,90504,001,2022-04-27_21h06.32.350,SPAMnetsValid,2021.1.4,Win32,59.53089654,,,,,,,,,,,,,7,16.3155,0,89,89,28,1,,,,,,,,,,,,,,,,,,,,,,,,,,,,,,,,,,,,,,,,,,,,,,,,,,,,,,,,,,,,,,,,,,,,,,
,,,,7,1.1901,,,,,,116,cake,chocolate,,90504,001,2022-04-27_21h06.32.350,SPAMnetsValid,2021.1.4,Win32,59.53089654,,,,,,,,,,,,,7,1.1901,0,90,90,44,1,,,,,,,,,,,,,,,,,,,,,,,,,,,,,,,,,,,,,,,,,,,,,,,,,,,,,,,,,,,,,,,,,,,,,,
,,,,3,1.8598,,,,,,144,cake,garden,,90504,001,2022-04-27_21h06.32.350,SPAMnetsValid,2021.1.4,Win32,59.53089654,,,,,,,,,,,,,3,1.8598,0,91,91,58,1,,,,,,,,,,,,,,,,,,,,,,,,,,,,,,,,,,,,,,,,,,,,,,,,,,,,,,,,,,,,,,,,,,,,,,
,,,,6,6.6868,,,,,,134,carrot,flower,,90504,001,2022-04-27_21h06.32.350,SPAMnetsValid,2021.1.4,Win32,59.53089654,,,,,,,,,,,,,6,6.6868,0,92,92,93,1,,,,,,,,,,,,,,,,,,,,,,,,,,,,,,,,,,,,,,,,,,,,,,,,,,,,,,,,,,,,,,,,,,,,,,
,,,,6,1.4381,,,,,,130,microwave,yogurt,,90504,001,2022-04-27_21h06.32.350,SPAMnetsValid,2021.1.4,Win32,59.53089654,,,,,,,,,,,,,6,1.4381,0,93,93,84,1,,,,,,,,,,,,,,,,,,,,,,,,,,,,,,,,,,,,,,,,,,,,,,,,,,,,,,,,,,,,,,,,,,,,,,
,,,,7,1.5139,,,,,,186,kitchen,yogurt,,90504,001,2022-04-27_21h06.32.350,SPAMnetsValid,2021.1.4,Win32,59.53089654,,,,,,,,,,,,,7,1.5139,0,94,94,48,1,,,,,,,,,,,,,,,,,,,,,,,,,,,,,,,,,,,,,,,,,,,,,,,,,,,,,,,,,,,,,,,,,,,,,,
,,,,7,1.9084,,,,,,115,refrigerator,tomato,,90504,001,2022-04-27_21h06.32.350,SPAMnetsValid,2021.1.4,Win32,59.53089654,,,,,,,,,,,,,7,1.9084,0,95,95,85,1,,,,,,,,,,,,,,,,,,,,,,,,,,,,,,,,,,,,,,,,,,,,,,,,,,,,,,,,,,,,,,,,,,,,,,
,,,,7,2.4778,,,,,,188,flower,tree,,90504,001,2022-04-27_21h06.32.350,SPAMnetsValid,2021.1.4,Win32,59.53089654,,,,,,,,,,,,,7,2.4778,0,96,96,7,1,,,,,,,,,,,,,,,,,,,,,,,,,,,,,,,,,,,,,,,,,,,,,,,,,,,,,,,,,,,,,,,,,,,,,,
,,,,,,,,,,,,,,,90504,001,2022-04-27_21h06.32.350,SPAMnetsValid,2021.1.4,Win32,59.53089654,,,,,,,,,,,,,,,,,,,,0,0,0,0,1,,,,,,,,,,,,,,,,,,,,,,,,,,,,,,,,,,,,,,,,,,,,,,,,,,,,,,,,,,,,,,,,,
,,,,,,,,,,,,,,,90504,001,2022-04-27_21h06.32.350,SPAMnetsValid,2021.1.4,Win32,59.53089654,,,,,,0,1,1,1,1,0,1,,,,,,,,,,,,,,,,,,,,,,,,,,,,,,,,,,,,,,,,,,,,,,,,,,,,,,,,,,,,,,,,,,,,,,,,,,,,,
,,,,,,,,,,,,,,,90504,001,2022-04-27_21h06.32.350,SPAMnetsValid,2021.1.4,Win32,59.53089654,,,,,,,,,,,,,,,,,,,,,,,,,3,6.6738,0,0,0,0,1,rancor,forbearance,ridicule,malice,bravery,3,,,,,,,,,,,,,,,,,,,,,,,,,,,,,,,,,,,,,,,,,,,,,,,,,,,,
,,,,,,,,,,,,,,,90504,001,2022-04-27_21h06.32.350,SPAMnetsValid,2021.1.4,Win32,59.53089654,,,,,,,,,,,,,,,,,,,,,,,,,4,3.6352,0,1,1,1,1,raucous,empty,quiet,smooth,harsh,4,,,,,,,,,,,,,,,,,,,,,,,,,,,,,,,,,,,,,,,,,,,,,,,,,,,,
,,,,,,,,,,,,,,,90504,001,2022-04-27_21h06.32.350,SPAMnetsValid,2021.1.4,Win32,59.53089654,,,,,,,,,,,,,,,,,,,,,,,,,4,8.4912,0,2,2,2,1,gargoyle,oil,medicine,carved waterspout,ugly building,3,,,,,,,,,,,,,,,,,,,,,,,,,,,,,,,,,,,,,,,,,,,,,,,,,,,,
,,,,,,,,,,,,,,,90504,001,2022-04-27_21h06.32.350,SPAMnetsValid,2021.1.4,Win32,59.53089654,,,,,,,,,,,,,,,,,,,,,,,,,3,5.0728,0,3,3,3,1,recrudesce,purify,renew activity,lack refinement,crush,2,,,,,,,,,,,,,,,,,,,,,,,,,,,,,,,,,,,,,,,,,,,,,,,,,,,,
,,,,,,,,,,,,,,,90504,001,2022-04-27_21h06.32.350,SPAMnetsValid,2021.1.4,Win32,59.53089654,,,,,,,,,,,,,,,,,,,,,,,,,2,10.2831,0,4,4,4,1,specious,"plausible, but not genuine",noteworthy,class or variety,roomy,1,,,,,,,,,,,,,,,,,,,,,,,,,,,,,,,,,,,,,,,,,,,,,,,,,,,,
,,,,,,,,,,,,,,,90504,001,2022-04-27_21h06.32.350,SPAMnetsValid,2021.1.4,Win32,59.53089654,,,,,,,,,,,,,,,,,,,,,,,,,2,2.9321,0,5,5,5,1,bauble,bubble,showy plaything,idle talk,confusion,2,,,,,,,,,,,,,,,,,,,,,,,,,,,,,,,,,,,,,,,,,,,,,,,,,,,,
,,,,,,,,,,,,,,,90504,001,2022-04-27_21h06.32.350,SPAMnetsValid,2021.1.4,Win32,59.53089654,,,,,,,,,,,,,,,,,,,,,,,,,2,5.1643,0,6,6,6,1,prolific,scarce,producing abundantly,reckless,speaking profanely,2,,,,,,,,,,,,,,,,,,,,,,,,,,,,,,,,,,,,,,,,,,,,,,,,,,,,
,,,,,,,,,,,,,,,90504,001,2022-04-27_21h06.32.350,SPAMnetsValid,2021.1.4,Win32,59.53089654,,,,,,,,,,,,,,,,,,,,,,,,,2,4.0656,0,7,7,7,1,opulent,party,wealthy,happy frame of mind,semiprecious stone,2,,,,,,,,,,,,,,,,,,,,,,,,,,,,,,,,,,,,,,,,,,,,,,,,,,,,
,,,,,,,,,,,,,,,90504,001,2022-04-27_21h06.32.350,SPAMnetsValid,2021.1.4,Win32,59.53089654,,,,,,,,,,,,,,,,,,,,,,,,,1,3.3822,0,8,8,8,1,coercion,conspiracy,strategy,restraint,attraction,3,,,,,,,,,,,,,,,,,,,,,,,,,,,,,,,,,,,,,,,,,,,,,,,,,,,,
,,,,,,,,,,,,,,,90504,001,2022-04-27_21h06.32.350,SPAMnetsValid,2021.1.4,Win32,59.53089654,,,,,,,,,,,,,,,,,,,,,,,,,4,2.1448,0,9,9,9,1,hiatus,animal,calamity,dread,gap,4,,,,,,,,,,,,,,,,,,,,,,,,,,,,,,,,,,,,,,,,,,,,,,,,,,,,
,,,,,,,,,,,,,,,90504,001,2022-04-27_21h06.32.350,SPAMnetsValid,2021.1.4,Win32,59.53089654,,,,,,,,,,,,,,,,,,,,,,,,,4,5.091,0,10,10,10,1,germane,microbe,contagious,relevant,different,3,,,,,,,,,,,,,,,,,,,,,,,,,,,,,,,,,,,,,,,,,,,,,,,,,,,,
,,,,,,,,,,,,,,,90504,001,2022-04-27_21h06.32.350,SPAMnetsValid,2021.1.4,Win32,59.53089654,,,,,,,,,,,,,,,,,,,,,,,,,1,4.7527,0,11,11,11,1,perfunctory,fundamental,formal,superficial,careful,3,,,,,,,,,,,,,,,,,,,,,,,,,,,,,,,,,,,,,,,,,,,,,,,,,,,,
,,,,,,,,,,,,,,,90504,001,2022-04-27_21h06.32.350,SPAMnetsValid,2021.1.4,Win32,59.53089654,,,,,,,,,,,,,,,,,,,,,,,,,4,1.7929,0,12,12,12,1,diverge,reveal,chant,distract the attention of,differ or turn off from,4,,,,,,,,,,,,,,,,,,,,,,,,,,,,,,,,,,,,,,,,,,,,,,,,,,,,
,,,,,,,,,,,,,,,90504,001,2022-04-27_21h06.32.350,SPAMnetsValid,2021.1.4,Win32,59.53089654,,,,,,,,,,,,,,,,,,,,,,,,,4,2.252,0,13,13,13,1,evoke,take away,anger,connect,bring out,4,,,,,,,,,,,,,,,,,,,,,,,,,,,,,,,,,,,,,,,,,,,,,,,,,,,,
,,,,,,,,,,,,,,,90504,001,2022-04-27_21h06.32.350,SPAMnetsValid,2021.1.4,Win32,59.53089654,,,,,,,,,,,,,,,,,,,,,,,,,3,1.6665,0,14,14,14,1,pertinent,relevant,lying next to,necessary,bold,1,,,,,,,,,,,,,,,,,,,,,,,,,,,,,,,,,,,,,,,,,,,,,,,,,,,,
,,,,,,,,,,,,,,,90504,001,2022-04-27_21h06.32.350,SPAMnetsValid,2021.1.4,Win32,59.53089654,,,,,,,,,,,,,,,,,,,,,,,,,2,1.8019,0,15,15,15,1,holocaust,entirety,destruction,saintly,price,2,,,,,,,,,,,,,,,,,,,,,,,,,,,,,,,,,,,,,,,,,,,,,,,,,,,,
,,,,,,,,,,,,,,,90504,001,2022-04-27_21h06.32.350,SPAMnetsValid,2021.1.4,Win32,59.53089654,,,,,,,,,,,,,,,,,,,,,,,,,1,4.6416,0,16,16,16,1,piquant,mellow,fish,pungent,cloth,3,,,,,,,,,,,,,,,,,,,,,,,,,,,,,,,,,,,,,,,,,,,,,,,,,,,,
,,,,,,,,,,,,,,,90504,001,2022-04-27_21h06.32.350,SPAMnetsValid,2021.1.4,Win32,59.53089654,,,,,,,,,,,,,,,,,,,,,,,,,2,2.0435,0,17,17,17,1,firmament,foundation,heavens,strong,glue,2,,,,,,,,,,,,,,,,,,,,,,,,,,,,,,,,,,,,,,,,,,,,,,,,,,,,
,,,,,,,,,,,,,,,90504,001,2022-04-27_21h06.32.350,SPAMnetsValid,2021.1.4,Win32,59.53089654,,,,,,,,,,,,,,,,,,,,,,,,,,,,,,,,,,,,,,4,2.6617,0,0,0,0,1,marketable,partisan,jocular,marriageable,salable,essential,4,,,,,,,,,,,,,,,,,,,,,,,,,,,,,,,,,,,,,,
,,,,,,,,,,,,,,,90504,001,2022-04-27_21h06.32.350,SPAMnetsValid,2021.1.4,Win32,59.53089654,,,,,,,,,,,,,,,,,,,,,,,,,,,,,,,,,,,,,,5,1.5226,0,1,1,1,1,cottontail,squirrel,poplar,boa,marshy plant,rabbit,5,,,,,,,,,,,,,,,,,,,,,,,,,,,,,,,,,,,,,,
,,,,,,,,,,,,,,,90504,001,2022-04-27_21h06.32.350,SPAMnetsValid,2021.1.4,Win32,59.53089654,,,,,,,,,,,,,,,,,,,,,,,,,,,,,,,,,,,,,,3,1.4256,0,2,2,2,1,boggy,afraid,false,marshy,dense,black,3,,,,,,,,,,,,,,,,,,,,,,,,,,,,,,,,,,,,,,
,,,,,,,,,,,,,,,90504,001,2022-04-27_21h06.32.350,SPAMnetsValid,2021.1.4,Win32,59.53089654,,,,,,,,,,,,,,,,,,,,,,,,,,,,,,,,,,,,,,5,2.1545,0,3,3,3,1,gruesomeness,blackness,falseness,vindictiveness,drunkenness,ghastliness,5,,,,,,,,,,,,,,,,,,,,,,,,,,,,,,,,,,,,,,
,,,,,,,,,,,,,,,90504,001,2022-04-27_21h06.32.350,SPAMnetsValid,2021.1.4,Win32,59.53089654,,,,,,,,,,,,,,,,,,,,,,,,,,,,,,,,,,,,,,3,3.021,0,4,4,4,1,loathing,diffidence,laziness,abhorrence,cleverness,comfort,3,,,,,,,,,,,,,,,,,,,,,,,,,,,,,,,,,,,,,,
,,,,,,,,,,,,,,,90504,001,2022-04-27_21h06.32.350,SPAMnetsValid,2021.1.4,Win32,59.53089654,,,,,,,,,,,,,,,,,,,,,,,,,,,,,,,,,,,,,,1,7.5017,0,5,5,5,1,bantam,fowl,ridicule,cripple,vegetable,ensign,1,,,,,,,,,,,,,,,,,,,,,,,,,,,,,,,,,,,,,,
,,,,,,,,,,,,,,,90504,001,2022-04-27_21h06.32.350,SPAMnetsValid,2021.1.4,Win32,59.53089654,,,,,,,,,,,,,,,,,,,,,,,,,,,,,,,,,,,,,,5,28.4073,0,6,6,6,1,evoke,wake up,surrender,reconnoiter,transcend,call forth,5,,,,,,,,,,,,,,,,,,,,,,,,,,,,,,,,,,,,,,
,,,,,,,,,,,,,,,90504,001,2022-04-27_21h06.32.350,SPAMnetsValid,2021.1.4,Win32,59.53089654,,,,,,,,,,,,,,,,,,,,,,,,,,,,,,,,,,,,,,4,4.6412,0,7,7,7,1,unobtrusive,unintelligent,epileptic,illogical,lineal,modest,5,,,,,,,,,,,,,,,,,,,,,,,,,,,,,,,,,,,,,,
,,,,,,,,,,,,,,,90504,001,2022-04-27_21h06.32.350,SPAMnetsValid,2021.1.4,Win32,59.53089654,,,,,,,,,,,,,,,,,,,,,,,,,,,,,,,,,,,,,,4,1.7264,0,8,8,8,1,terrain,ice cream,final test,tractor,area of ground,weight,4,,,,,,,,,,,,,,,,,,,,,,,,,,,,,,,,,,,,,,
,,,,,,,,,,,,,,,90504,001,2022-04-27_21h06.32.350,SPAMnetsValid,2021.1.4,Win32,59.53089654,,,,,,,,,,,,,,,,,,,,,,,,,,,,,,,,,,,,,,3,3.1637,0,9,9,9,1,capriciousness,stubbornness,courage,whimsicality,amazement,greediness,3,,,,,,,,,,,,,,,,,,,,,,,,,,,,,,,,,,,,,,
,,,,,,,,,,,,,,,90504,001,2022-04-27_21h06.32.350,SPAMnetsValid,2021.1.4,Win32,59.53089654,,,,,,,,,,,,,,,,,,,,,,,,,,,,,,,,,,,,,,2,4.5102,0,10,10,10,1,maelstrom,slander,whirlpool,enmity,armor,majolica,2,,,,,,,,,,,,,,,,,,,,,,,,,,,,,,,,,,,,,,
,,,,,,,,,,,,,,,90504,001,2022-04-27_21h06.32.350,SPAMnetsValid,2021.1.4,Win32,59.53089654,,,,,,,,,,,,,,,,,,,,,,,,,,,,,,,,,,,,,,5,1.9656,0,11,11,11,1,tentative,critical,conclusive,authentic,provisional,apprehensive,4,,,,,,,,,,,,,,,,,,,,,,,,,,,,,,,,,,,,,,
,,,,,,,,,,,,,,,90504,001,2022-04-27_21h06.32.350,SPAMnetsValid,2021.1.4,Win32,59.53089654,,,,,,,,,,,,,,,,,,,,,,,,,,,,,,,,,,,,,,3,5.0901,0,12,12,12,1,placate,rehabilitate,plagiarize,depredate,apprise,conciliate,5,,,,,,,,,,,,,,,,,,,,,,,,,,,,,,,,,,,,,,
,,,,,,,,,,,,,,,90504,001,2022-04-27_21h06.32.350,SPAMnetsValid,2021.1.4,Win32,59.53089654,,,,,,,,,,,,,,,,,,,,,,,,,,,,,,,,,,,,,,3,3.1883,0,13,13,13,1,surcease,enlightenment,cessation,inattention,censor,substitution,2,,,,,,,,,,,,,,,,,,,,,,,,,,,,,,,,,,,,,,
,,,,,,,,,,,,,,,90504,001,2022-04-27_21h06.32.350,SPAMnetsValid,2021.1.4,Win32,59.53089654,,,,,,,,,,,,,,,,,,,,,,,,,,,,,,,,,,,,,,2,2.0816,0,14,14,14,1,apathetic,wandering,impassive,hateful,prophetic,overflowing,2,,,,,,,,,,,,,,,,,,,,,,,,,,,,,,,,,,,,,,
,,,,,,,,,,,,,,,90504,001,2022-04-27_21h06.32.350,SPAMnetsValid,2021.1.4,Win32,59.53089654,,,,,,,,,,,,,,,,,,,,,,,,,,,,,,,,,,,,,,4,26.7253,0,15,15,15,1,paternoster,paternalism,patricide,malediction,benediction,prayer,5,,,,,,,,,,,,,,,,,,,,,,,,,,,,,,,,,,,,,,
,,,,,,,,,,,,,,,90504,001,2022-04-27_21h06.32.350,SPAMnetsValid,2021.1.4,Win32,59.53089654,,,,,,,,,,,,,,,,,,,,,,,,,,,,,,,,,,,,,,4,1.9373,0,16,16,16,1,opalescence,opulence,senescence,bankruptcy,iridescence,assiduity,4,,,,,,,,,,,,,,,,,,,,,,,,,,,,,,,,,,,,,,
,,,,,,,,,,,,,,,90504,001,2022-04-27_21h06.32.350,SPAMnetsValid,2021.1.4,Win32,59.53089654,,,,,,,,,,,,,,,,,,,,,,,,,,,,,,,,,,,,,,2,3.1596,0,17,17,17,1,lush,stupid,luxurious,hazy,putrid,languishing,2,,,,,,,,,,,,,,,,,,,,,,,,,,,,,,,,,,,,,,
,,,,,,,,,,,,,,,90504,001,2022-04-27_21h06.32.350,SPAMnetsValid,2021.1.4,Win32,59.53089654,,,,,,,,,,,,,,,,,,,,,,,,,,,,,,,,,,,,,,1,2.044,0,18,18,18,1,curtailment,expenditure,abandonment,abridgment,improvement,forgery,3,,,,,,,,,,,,,,,,,,,,,,,,,,,,,,,,,,,,,,
,,,,,,,,,,,,,,,90504,001,2022-04-27_21h06.32.350,SPAMnetsValid,2021.1.4,Win32,59.53089654,,,,,,,,,,,,,,,,,,,,,,,,,,,,,,,,,,,,,,4,3.0909,0,19,19,19,1,perversity,adversity,perviousness,travesty,waywardness,gentility,4,,,,,,,,,,,,,,,,,,,,,,,,,,,,,,,,,,,,,,
,,,,,,,,,,,,,,,90504,001,2022-04-27_21h06.32.350,SPAMnetsValid,2021.1.4,Win32,59.53089654,,,,,,,,,,,,,,,,,,,,,,,,,,,,,,,,,,,,,,4,3.3572,0,20,20,20,1,calumnious,complimentary,analogous,slanderous,tempestuous,magnanimous,3,,,,,,,,,,,,,,,,,,,,,,,,,,,,,,,,,,,,,,
,,,,,,,,,,,,,,,90504,001,2022-04-27_21h06.32.350,SPAMnetsValid,2021.1.4,Win32,59.53089654,,,,,,,,,,,,,,,,,,,,,,,,,,,,,,,,,,,,,,1,8.5952,0,21,21,21,1,illiberality,bigotry,imbecility,illegibility,cautery,immaturity,1,,,,,,,,,,,,,,,,,,,,,,,,,,,,,,,,,,,,,,
,,,,,,,,,,,,,,,90504,001,2022-04-27_21h06.32.350,SPAMnetsValid,2021.1.4,Win32,59.53089654,,,,,,,,,,,,,,,,,,,,,,,,,,,,,,,,,,,,,,5,12.434,0,22,22,22,1,clabber,rejoice,gossip,curdle,crow,hobble,3,,,,,,,,,,,,,,,,,,,,,,,,,,,,,,,,,,,,,,
,,,,,,,,,,,,,,,90504,001,2022-04-27_21h06.32.350,SPAMnetsValid,2021.1.4,Win32,59.53089654,,,,,,,,,,,,,,,,,,,,,,,,,,,,,,,,,,,,,,4,8.3182,0,23,23,23,1,sedulousness,diligence,credulousness,seduction,perilousness,frankness,1,,,,,,,,,,,,,,,,,,,,,,,,,,,,,,,,,,,,,,
,,,,,,,,,,,,,,,90504,001,2022-04-27_21h06.32.350,SPAMnetsValid,2021.1.4,Win32,59.53089654,,,,,,,,,,,,,,,,,,,,,,,,,,,,,,,,,,,,,,,,,,,,,,,,,,,,light,candle,0,0,0,0,1,,,,,,,,,,,,,,,,,,,,,,,,,,,,,,,
,,,,,,,,,,,,,,,90504,001,2022-04-27_21h06.32.350,SPAMnetsValid,2021.1.4,Win32,59.53089654,,,,,,,,,,,,,,,,,,,,,,,,,,,,,,,,,,,,,,,,,,,,,,,,,,,,scents,candle,1,0,1,0,1,,,,,,,,,,,,,,,,,,,,,,,,,,,,,,,
,,,,,,,,,,,,,,,90504,001,2022-04-27_21h06.32.350,SPAMnetsValid,2021.1.4,Win32,59.53089654,,,,,,,,,,,,,,,,,,,,,,,,,,,,,,,,,,,,,,,,,,,,,,,,,,,,timing something,candle,2,0,2,0,1,,,,,,,,,,,,,,,,,,,,,,,,,,,,,,,
,,,,,,,,,,,,,,,90504,001,2022-04-27_21h06.32.350,SPAMnetsValid,2021.1.4,Win32,59.53089654,,,,,,,,,,,,,,,,,,,,,,,,,,,,,,,,,,,,,,,,,,,,,,,,,,,,cooking something small,candle,3,0,3,0,1,,,,,,,,,,,,,,,,,,,,,,,,,,,,,,,
,,,,,,,,,,,,,,,90504,001,2022-04-27_21h06.32.350,SPAMnetsValid,2021.1.4,Win32,59.53089654,,,,,,,,,,,,,,,,,,,,,,,,,,,,,,,,,,,,,,,,,,,,,,,,,,,,indoor campfire,candle,4,0,4,0,1,,,,,,,,,,,,,,,,,,,,,,,,,,,,,,,
,,,,,,,,,,,,,,,90504,001,2022-04-27_21h06.32.350,SPAMnetsValid,2021.1.4,Win32,59.53089654,,,,,,,,,,,,,,,,,,,,,,,,,,,,,,,,,,,,,,,,,,,,,,,,,,,,heat for melting plastic,candle,5,0,5,0,1,,,,,,,,,,,,,,,,,,,,,,,,,,,,,,,
,,,,,,,,,,,,,,,90504,001,2022-04-27_21h06.32.350,SPAMnetsValid,2021.1.4,Win32,59.53089654,,,,,,,,,,,,,,,,,,,,,,,,,,,,,,,,,,,,,,,,,,,,,,,,,,,,altar,candle,6,0,6,0,1,,,,,,,,,,,,,,,,,,,,,,,,,,,,,,,
,,,,,,,,,,,,,,,90504,001,2022-04-27_21h06.32.350,SPAMnetsValid,2021.1.4,Win32,59.53089654,,,,,,,,,,,,,,,,,,,,,,,,,,,,,,,,,,,,,,,,,,,,,,,,,,,,carving,candle,7,0,7,0,1,,,,,,,,,,,,,,,,,,,,,,,,,,,,,,,
,,,,,,,,,,,,,,,90504,001,2022-04-27_21h06.32.350,SPAMnetsValid,2021.1.4,Win32,59.53089654,,,,,,,,,,,,,,,,,,,,,,,,,,,,,,,,,,,,,,,,,,,,,,,,,,,,wax for less friction,candle,8,0,8,0,1,,,,,,,,,,,,,,,,,,,,,,,,,,,,,,,
,,,,,,,,,,,,,,,90504,001,2022-04-27_21h06.32.350,SPAMnetsValid,2021.1.4,Win32,59.53089654,,,,,,,,,,,,,,,,,,,,,,,,,,,,,,,,,,,,,,,,,,,,,,,,,,,,bdsm wink wink,candle,9,0,9,0,1,,,,,,,,,,,,,,,,,,,,,,,,,,,,,,,
,,,,,,,,,,,,,,,90504,001,2022-04-27_21h06.32.350,SPAMnetsValid,2021.1.4,Win32,59.53089654,,,,,,,,,,,,,,,,,,,,,,,,,,,,,,,,,,,,,,,,,,,,,,,,,,,,minecraft stuff,candle,10,0,10,0,1,,,,,,,,,,,,,,,,,,,,,,,,,,,,,,,
,,,,,,,,,,,,,,,90504,001,2022-04-27_21h06.32.350,SPAMnetsValid,2021.1.4,Win32,59.53089654,,,,,,,,,,,,,,,,,,,,,,,,,,,,,,,,,,,,,,,,,,,,,,,,,,,,,,,,,,,0,0,0,1,1,candle,,,,,,,,,,,,,,,,,,,,,,,,,
,,,,,,,,,,,,,,,90504,001,2022-04-27_21h06.32.350,SPAMnetsValid,2021.1.4,Win32,59.53089654,,,,,,,,,,,,,,,,,,,,,,,,,,,,,,,,,,,,,,,,,,,,,,,,,,,,pillow fight,pillow,0,0,0,0,1,,,,,,,,,,,,,,,,,,,,,,,,,,,,,,,
,,,,,,,,,,,,,,,90504,001,2022-04-27_21h06.32.350,SPAMnetsValid,2021.1.4,Win32,59.53089654,,,,,,,,,,,,,,,,,,,,,,,,,,,,,,,,,,,,,,,,,,,,,,,,,,,,landing pad,pillow,1,0,1,0,1,,,,,,,,,,,,,,,,,,,,,,,,,,,,,,,
,,,,,,,,,,,,,,,90504,001,2022-04-27_21h06.32.350,SPAMnetsValid,2021.1.4,Win32,59.53089654,,,,,,,,,,,,,,,,,,,,,,,,,,,,,,,,,,,,,,,,,,,,,,,,,,,,barrier,pillow,2,0,2,0,1,,,,,,,,,,,,,,,,,,,,,,,,,,,,,,,
,,,,,,,,,,,,,,,90504,001,2022-04-27_21h06.32.350,SPAMnetsValid,2021.1.4,Win32,59.53089654,,,,,,,,,,,,,,,,,,,,,,,,,,,,,,,,,,,,,,,,,,,,,,,,,,,,seat cushion,pillow,3,0,3,0,1,,,,,,,,,,,,,,,,,,,,,,,,,,,,,,,
,,,,,,,,,,,,,,,90504,001,2022-04-27_21h06.32.350,SPAMnetsValid,2021.1.4,Win32,59.53089654,,,,,,,,,,,,,,,,,,,,,,,,,,,,,,,,,,,,,,,,,,,,,,,,,,,,storage for valuables,pillow,4,0,4,0,1,,,,,,,,,,,,,,,,,,,,,,,,,,,,,,,
,,,,,,,,,,,,,,,90504,001,2022-04-27_21h06.32.350,SPAMnetsValid,2021.1.4,Win32,59.53089654,,,,,,,,,,,,,,,,,,,,,,,,,,,,,,,,,,,,,,,,,,,,,,,,,,,,marshmallow for dream eating,pillow,5,0,5,0,1,,,,,,,,,,,,,,,,,,,,,,,,,,,,,,,
,,,,,,,,,,,,,,,90504,001,2022-04-27_21h06.32.350,SPAMnetsValid,2021.1.4,Win32,59.53089654,,,,,,,,,,,,,,,,,,,,,,,,,,,,,,,,,,,,,,,,,,,,,,,,,,,,bases for indoor baseball,pillow,6,0,6,0,1,,,,,,,,,,,,,,,,,,,,,,,,,,,,,,,
,,,,,,,,,,,,,,,90504,001,2022-04-27_21h06.32.350,SPAMnetsValid,2021.1.4,Win32,59.53089654,,,,,,,,,,,,,,,,,,,,,,,,,,,,,,,,,,,,,,,,,,,,,,,,,,,,weapon to throw at someone you slightly are annoyed with,pillow,7,0,7,0,1,,,,,,,,,,,,,,,,,,,,,,,,,,,,,,,
,,,,,,,,,,,,,,,90504,001,2022-04-27_21h06.32.350,SPAMnetsValid,2021.1.4,Win32,59.53089654,,,,,,,,,,,,,,,,,,,,,,,,,,,,,,,,,,,,,,,,,,,,,,,,,,,,murder / suffocation,pillow,8,0,8,0,1,,,,,,,,,,,,,,,,,,,,,,,,,,,,,,,
,,,,,,,,,,,,,,,90504,001,2022-04-27_21h06.32.350,SPAMnetsValid,2021.1.4,Win32,59.53089654,,,,,,,,,,,,,,,,,,,,,,,,,,,,,,,,,,,,,,,,,,,,,,,,,,,,hugging,pillow,9,0,9,0,1,,,,,,,,,,,,,,,,,,,,,,,,,,,,,,,
,,,,,,,,,,,,,,,90504,001,2022-04-27_21h06.32.350,SPAMnetsValid,2021.1.4,Win32,59.53089654,,,,,,,,,,,,,,,,,,,,,,,,,,,,,,,,,,,,,,,,,,,,,,,,,,,,making a decoy for sneaking out,pillow,10,0,10,0,1,,,,,,,,,,,,,,,,,,,,,,,,,,,,,,,
,,,,,,,,,,,,,,,90504,001,2022-04-27_21h06.32.350,SPAMnetsValid,2021.1.4,Win32,59.53089654,,,,,,,,,,,,,,,,,,,,,,,,,,,,,,,,,,,,,,,,,,,,,,,,,,,,,,,,,,,0,1,1,2,1,pillow,,,,,,,,,,,,,,,,,,,,,,,,,
,,,,,,,,,,,,,,,90504,001,2022-04-27_21h06.32.350,SPAMnetsValid,2021.1.4,Win32,59.53089654,,,,,,,,,,,,,,,,,,,,,,,,,,,,,,,,,,,,,,,,,,,,,,,,,,,,hat,bucket,0,0,0,0,1,,,,,,,,,,,,,,,,,,,,,,,,,,,,,,,
,,,,,,,,,,,,,,,90504,001,2022-04-27_21h06.32.350,SPAMnetsValid,2021.1.4,Win32,59.53089654,,,,,,,,,,,,,,,,,,,,,,,,,,,,,,,,,,,,,,,,,,,,,,,,,,,,carrying liquid,bucket,1,0,1,0,1,,,,,,,,,,,,,,,,,,,,,,,,,,,,,,,
,,,,,,,,,,,,,,,90504,001,2022-04-27_21h06.32.350,SPAMnetsValid,2021.1.4,Win32,59.53089654,,,,,,,,,,,,,,,,,,,,,,,,,,,,,,,,,,,,,,,,,,,,,,,,,,,,weight for something,bucket,2,0,2,0,1,,,,,,,,,,,,,,,,,,,,,,,,,,,,,,,
,,,,,,,,,,,,,,,90504,001,2022-04-27_21h06.32.350,SPAMnetsValid,2021.1.4,Win32,59.53089654,,,,,,,,,,,,,,,,,,,,,,,,,,,,,,,,,,,,,,,,,,,,,,,,,,,,that one table where the buckets hold up the table supporting it,bucket,3,0,3,0,1,,,,,,,,,,,,,,,,,,,,,,,,,,,,,,,
,,,,,,,,,,,,,,,90504,001,2022-04-27_21h06.32.350,SPAMnetsValid,2021.1.4,Win32,59.53089654,,,,,,,,,,,,,,,,,,,,,,,,,,,,,,,,,,,,,,,,,,,,,,,,,,,,makeshift toilet,bucket,4,0,4,0,1,,,,,,,,,,,,,,,,,,,,,,,,,,,,,,,
,,,,,,,,,,,,,,,90504,001,2022-04-27_21h06.32.350,SPAMnetsValid,2021.1.4,Win32,59.53089654,,,,,,,,,,,,,,,,,,,,,,,,,,,,,,,,,,,,,,,,,,,,,,,,,,,,helmet,bucket,5,0,5,0,1,,,,,,,,,,,,,,,,,,,,,,,,,,,,,,,
,,,,,,,,,,,,,,,90504,001,2022-04-27_21h06.32.350,SPAMnetsValid,2021.1.4,Win32,59.53089654,,,,,,,,,,,,,,,,,,,,,,,,,,,,,,,,,,,,,,,,,,,,,,,,,,,,small table,bucket,6,0,6,0,1,,,,,,,,,,,,,,,,,,,,,,,,,,,,,,,
,,,,,,,,,,,,,,,90504,001,2022-04-27_21h06.32.350,SPAMnetsValid,2021.1.4,Win32,59.53089654,,,,,,,,,,,,,,,,,,,,,,,,,,,,,,,,,,,,,,,,,,,,,,,,,,,,storage device,bucket,7,0,7,0,1,,,,,,,,,,,,,,,,,,,,,,,,,,,,,,,
,,,,,,,,,,,,,,,90504,001,2022-04-27_21h06.32.350,SPAMnetsValid,2021.1.4,Win32,59.53089654,,,,,,,,,,,,,,,,,,,,,,,,,,,,,,,,,,,,,,,,,,,,,,,,,,,,flower pot,bucket,8,0,8,0,1,,,,,,,,,,,,,,,,,,,,,,,,,,,,,,,
,,,,,,,,,,,,,,,90504,001,2022-04-27_21h06.32.350,SPAMnetsValid,2021.1.4,Win32,59.53089654,,,,,,,,,,,,,,,,,,,,,,,,,,,,,,,,,,,,,,,,,,,,,,,,,,,,,,,,,,,0,2,2,0,1,bucket,,,,,,,,,,,,,,,,,,,,,,,,,
,,,,,,,,,,,,,,,90504,001,2022-04-27_21h06.32.350,SPAMnetsValid,2021.1.4,Win32,59.53089654,,,,,,,,,,,,,,,,,,,,,,,,,,,,,,,,,,,,,,,,,,,,,,,,,,,,,,,,,,,,,,,,,bear,Animals,0,0,0,0,1,,,,,,,,,,,,,,,,,,
,,,,,,,,,,,,,,,90504,001,2022-04-27_21h06.32.350,SPAMnetsValid,2021.1.4,Win32,59.53089654,,,,,,,,,,,,,,,,,,,,,,,,,,,,,,,,,,,,,,,,,,,,,,,,,,,,,,,,,,,,,,,,,dog,Animals,1,0,1,0,1,,,,,,,,,,,,,,,,,,
,,,,,,,,,,,,,,,90504,001,2022-04-27_21h06.32.350,SPAMnetsValid,2021.1.4,Win32,59.53089654,,,,,,,,,,,,,,,,,,,,,,,,,,,,,,,,,,,,,,,,,,,,,,,,,,,,,,,,,,,,,,,,,cat,Animals,2,0,2,0,1,,,,,,,,,,,,,,,,,,
,,,,,,,,,,,,,,,90504,001,2022-04-27_21h06.32.350,SPAMnetsValid,2021.1.4,Win32,59.53089654,,,,,,,,,,,,,,,,,,,,,,,,,,,,,,,,,,,,,,,,,,,,,,,,,,,,,,,,,,,,,,,,,fish,Animals,3,0,3,0,1,,,,,,,,,,,,,,,,,,
,,,,,,,,,,,,,,,90504,001,2022-04-27_21h06.32.350,SPAMnetsValid,2021.1.4,Win32,59.53089654,,,,,,,,,,,,,,,,,,,,,,,,,,,,,,,,,,,,,,,,,,,,,,,,,,,,,,,,,,,,,,,,,elephant,Animals,4,0,4,0,1,,,,,,,,,,,,,,,,,,
,,,,,,,,,,,,,,,90504,001,2022-04-27_21h06.32.350,SPAMnetsValid,2021.1.4,Win32,59.53089654,,,,,,,,,,,,,,,,,,,,,,,,,,,,,,,,,,,,,,,,,,,,,,,,,,,,,,,,,,,,,,,,,owl,Animals,5,0,5,0,1,,,,,,,,,,,,,,,,,,
,,,,,,,,,,,,,,,90504,001,2022-04-27_21h06.32.350,SPAMnetsValid,2021.1.4,Win32,59.53089654,,,,,,,,,,,,,,,,,,,,,,,,,,,,,,,,,,,,,,,,,,,,,,,,,,,,,,,,,,,,,,,,,bird,Animals,6,0,6,0,1,,,,,,,,,,,,,,,,,,
,,,,,,,,,,,,,,,90504,001,2022-04-27_21h06.32.350,SPAMnetsValid,2021.1.4,Win32,59.53089654,,,,,,,,,,,,,,,,,,,,,,,,,,,,,,,,,,,,,,,,,,,,,,,,,,,,,,,,,,,,,,,,,tiger,Animals,7,0,7,0,1,,,,,,,,,,,,,,,,,,
,,,,,,,,,,,,,,,90504,001,2022-04-27_21h06.32.350,SPAMnetsValid,2021.1.4,Win32,59.53089654,,,,,,,,,,,,,,,,,,,,,,,,,,,,,,,,,,,,,,,,,,,,,,,,,,,,,,,,,,,,,,,,,lion,Animals,8,0,8,0,1,,,,,,,,,,,,,,,,,,
,,,,,,,,,,,,,,,90504,001,2022-04-27_21h06.32.350,SPAMnetsValid,2021.1.4,Win32,59.53089654,,,,,,,,,,,,,,,,,,,,,,,,,,,,,,,,,,,,,,,,,,,,,,,,,,,,,,,,,,,,,,,,,panther,Animals,9,0,9,0,1,,,,,,,,,,,,,,,,,,
,,,,,,,,,,,,,,,90504,001,2022-04-27_21h06.32.350,SPAMnetsValid,2021.1.4,Win32,59.53089654,,,,,,,,,,,,,,,,,,,,,,,,,,,,,,,,,,,,,,,,,,,,,,,,,,,,,,,,,,,,,,,,,lizard,Animals,10,0,10,0,1,,,,,,,,,,,,,,,,,,
,,,,,,,,,,,,,,,90504,001,2022-04-27_21h06.32.350,SPAMnetsValid,2021.1.4,Win32,59.53089654,,,,,,,,,,,,,,,,,,,,,,,,,,,,,,,,,,,,,,,,,,,,,,,,,,,,,,,,,,,,,,,,,dinosaur,Animals,11,0,11,0,1,,,,,,,,,,,,,,,,,,
,,,,,,,,,,,,,,,90504,001,2022-04-27_21h06.32.350,SPAMnetsValid,2021.1.4,Win32,59.53089654,,,,,,,,,,,,,,,,,,,,,,,,,,,,,,,,,,,,,,,,,,,,,,,,,,,,,,,,,,,,,,,,,cheetah,Animals,12,0,12,0,1,,,,,,,,,,,,,,,,,,
,,,,,,,,,,,,,,,90504,001,2022-04-27_21h06.32.350,SPAMnetsValid,2021.1.4,Win32,59.53089654,,,,,,,,,,,,,,,,,,,,,,,,,,,,,,,,,,,,,,,,,,,,,,,,,,,,,,,,,,,,,,,,,leopard,Animals,13,0,13,0,1,,,,,,,,,,,,,,,,,,
,,,,,,,,,,,,,,,90504,001,2022-04-27_21h06.32.350,SPAMnetsValid,2021.1.4,Win32,59.53089654,,,,,,,,,,,,,,,,,,,,,,,,,,,,,,,,,,,,,,,,,,,,,,,,,,,,,,,,,,,,,,,,,mouse,Animals,14,0,14,0,1,,,,,,,,,,,,,,,,,,
,,,,,,,,,,,,,,,90504,001,2022-04-27_21h06.32.350,SPAMnetsValid,2021.1.4,Win32,59.53089654,,,,,,,,,,,,,,,,,,,,,,,,,,,,,,,,,,,,,,,,,,,,,,,,,,,,,,,,,,,,,,,,,rat,Animals,15,0,15,0,1,,,,,,,,,,,,,,,,,,
,,,,,,,,,,,,,,,90504,001,2022-04-27_21h06.32.350,SPAMnetsValid,2021.1.4,Win32,59.53089654,,,,,,,,,,,,,,,,,,,,,,,,,,,,,,,,,,,,,,,,,,,,,,,,,,,,,,,,,,,,,,,,,guinea pig,Animals,16,0,16,0,1,,,,,,,,,,,,,,,,,,
,,,,,,,,,,,,,,,90504,001,2022-04-27_21h06.32.350,SPAMnetsValid,2021.1.4,Win32,59.53089654,,,,,,,,,,,,,,,,,,,,,,,,,,,,,,,,,,,,,,,,,,,,,,,,,,,,,,,,,,,,,,,,,hamster,Animals,17,0,17,0,1,,,,,,,,,,,,,,,,,,
,,,,,,,,,,,,,,,90504,001,2022-04-27_21h06.32.350,SPAMnetsValid,2021.1.4,Win32,59.53089654,,,,,,,,,,,,,,,,,,,,,,,,,,,,,,,,,,,,,,,,,,,,,,,,,,,,,,,,,,,,,,,,,shark,Animals,18,0,18,0,1,,,,,,,,,,,,,,,,,,
,,,,,,,,,,,,,,,90504,001,2022-04-27_21h06.32.350,SPAMnetsValid,2021.1.4,Win32,59.53089654,,,,,,,,,,,,,,,,,,,,,,,,,,,,,,,,,,,,,,,,,,,,,,,,,,,,,,,,,,,,,,,,,dolphin,Animals,19,0,19,0,1,,,,,,,,,,,,,,,,,,
,,,,,,,,,,,,,,,90504,001,2022-04-27_21h06.32.350,SPAMnetsValid,2021.1.4,Win32,59.53089654,,,,,,,,,,,,,,,,,,,,,,,,,,,,,,,,,,,,,,,,,,,,,,,,,,,,,,,,,,,,,,,,,whale,Animals,20,0,20,0,1,,,,,,,,,,,,,,,,,,
,,,,,,,,,,,,,,,90504,001,2022-04-27_21h06.32.350,SPAMnetsValid,2021.1.4,Win32,59.53089654,,,,,,,,,,,,,,,,,,,,,,,,,,,,,,,,,,,,,,,,,,,,,,,,,,,,,,,,,,,,,,,,,ant,Animals,21,0,21,0,1,,,,,,,,,,,,,,,,,,
,,,,,,,,,,,,,,,90504,001,2022-04-27_21h06.32.350,SPAMnetsValid,2021.1.4,Win32,59.53089654,,,,,,,,,,,,,,,,,,,,,,,,,,,,,,,,,,,,,,,,,,,,,,,,,,,,,,,,,,,,,,,,,shoot ant isnt an animal is it,Animals,22,0,22,0,1,,,,,,,,,,,,,,,,,,
,,,,,,,,,,,,,,,90504,001,2022-04-27_21h06.32.350,SPAMnetsValid,2021.1.4,Win32,59.53089654,,,,,,,,,,,,,,,,,,,,,,,,,,,,,,,,,,,,,,,,,,,,,,,,,,,,,,,,,,,,,,,,,cow,Animals,23,0,23,0,1,,,,,,,,,,,,,,,,,,
,,,,,,,,,,,,,,,90504,001,2022-04-27_21h06.32.350,SPAMnetsValid,2021.1.4,Win32,59.53089654,,,,,,,,,,,,,,,,,,,,,,,,,,,,,,,,,,,,,,,,,,,,,,,,,,,,,,,,,,,,,,,,,pig,Animals,24,0,24,0,1,,,,,,,,,,,,,,,,,,
,,,,,,,,,,,,,,,90504,001,2022-04-27_21h06.32.350,SPAMnetsValid,2021.1.4,Win32,59.53089654,,,,,,,,,,,,,,,,,,,,,,,,,,,,,,,,,,,,,,,,,,,,,,,,,,,,,,,,,,,,,,,,,horse,Animals,25,0,25,0,1,,,,,,,,,,,,,,,,,,
,,,,,,,,,,,,,,,90504,001,2022-04-27_21h06.32.350,SPAMnetsValid,2021.1.4,Win32,59.53089654,,,,,,,,,,,,,,,,,,,,,,,,,,,,,,,,,,,,,,,,,,,,,,,,,,,,,,,,,,,,,,,,,mule,Animals,26,0,26,0,1,,,,,,,,,,,,,,,,,,
,,,,,,,,,,,,,,,90504,001,2022-04-27_21h06.32.350,SPAMnetsValid,2021.1.4,Win32,59.53089654,,,,,,,,,,,,,,,,,,,,,,,,,,,,,,,,,,,,,,,,,,,,,,,,,,,,,,,,,,,,,,,,,donkey,Animals,27,0,27,0,1,,,,,,,,,,,,,,,,,,
,,,,,,,,,,,,,,,90504,001,2022-04-27_21h06.32.350,SPAMnetsValid,2021.1.4,Win32,59.53089654,,,,,,,,,,,,,,,,,,,,,,,,,,,,,,,,,,,,,,,,,,,,,,,,,,,,,,,,,,,,,,,,,osprey,Animals,28,0,28,0,1,,,,,,,,,,,,,,,,,,
,,,,,,,,,,,,,,,90504,001,2022-04-27_21h06.32.350,SPAMnetsValid,2021.1.4,Win32,59.53089654,,,,,,,,,,,,,,,,,,,,,,,,,,,,,,,,,,,,,,,,,,,,,,,,,,,,,,,,,,,,,,,,,fox,Animals,29,0,29,0,1,,,,,,,,,,,,,,,,,,
,,,,,,,,,,,,,,,90504,001,2022-04-27_21h06.32.350,SPAMnetsValid,2021.1.4,Win32,59.53089654,,,,,,,,,,,,,,,,,,,,,,,,,,,,,,,,,,,,,,,,,,,,,,,,,,,,,,,,,,,,,,,,,deer,Animals,30,0,30,0,1,,,,,,,,,,,,,,,,,,
,,,,,,,,,,,,,,,90504,001,2022-04-27_21h06.32.350,SPAMnetsValid,2021.1.4,Win32,59.53089654,,,,,,,,,,,,,,,,,,,,,,,,,,,,,,,,,,,,,,,,,,,,,,,,,,,,,,,,,,,,,,,,,moose,Animals,31,0,31,0,1,,,,,,,,,,,,,,,,,,
,,,,,,,,,,,,,,,90504,001,2022-04-27_21h06.32.350,SPAMnetsValid,2021.1.4,Win32,59.53089654,,,,,,,,,,,,,,,,,,,,,,,,,,,,,,,,,,,,,,,,,,,,,,,,,,,,,,,,,,,,,,,,,chicken,Animals,32,0,32,0,1,,,,,,,,,,,,,,,,,,
,,,,,,,,,,,,,,,90504,001,2022-04-27_21h06.32.350,SPAMnetsValid,2021.1.4,Win32,59.53089654,,,,,,,,,,,,,,,,,,,,,,,,,,,,,,,,,,,,,,,,,,,,,,,,,,,,,,,,,,,,,,,,,turkey,Animals,33,0,33,0,1,,,,,,,,,,,,,,,,,,
,,,,,,,,,,,,,,,90504,001,2022-04-27_21h06.32.350,SPAMnetsValid,2021.1.4,Win32,59.53089654,,,,,,,,,,,,,,,,,,,,,,,,,,,,,,,,,,,,,,,,,,,,,,,,,,,,,,,,,,,,,,,,,rabbit,Animals,34,0,34,0,1,,,,,,,,,,,,,,,,,,
,,,,,,,,,,,,,,,90504,001,2022-04-27_21h06.32.350,SPAMnetsValid,2021.1.4,Win32,59.53089654,,,,,,,,,,,,,,,,,,,,,,,,,,,,,,,,,,,,,,,,,,,,,,,,,,,,,,,,,,,,,,,,,,,,,,,,0,0,0,0,1,Animals,,,,,,,,,,,,
,,,,,,,,,,,,,,,90504,001,2022-04-27_21h06.32.350,SPAMnetsValid,2021.1.4,Win32,59.53089654,,,,,,,,,,,,,,,,,,,,,,,,,,,,,,,,,,,,,,,,,,,,,,,,,,,,,,,,,,,,,,,,,,,,,,,,,,,,,,5,3.2845,0,0,0,0,1,"I enjoy concentrating on a fantasy or daydream and exploring all its possibilities, letting it grow and develop.",0,1,,
,,,,,,,,,,,,,,,90504,001,2022-04-27_21h06.32.350,SPAMnetsValid,2021.1.4,Win32,59.53089654,,,,,,,,,,,,,,,,,,,,,,,,,,,,,,,,,,,,,,,,,,,,,,,,,,,,,,,,,,,,,,,,,,,,,,,,,,,,,,5,1.8663,0,1,1,1,1,I think it's interesting to learn and develop new hobbies.,0,2,,
,,,,,,,,,,,,,,,90504,001,2022-04-27_21h06.32.350,SPAMnetsValid,2021.1.4,Win32,59.53089654,,,,,,,,,,,,,,,,,,,,,,,,,,,,,,,,,,,,,,,,,,,,,,,,,,,,,,,,,,,,,,,,,,,,,,,,,,,,,,5,1.8211,0,2,2,2,1,I am intrigued by the patterns I find in art and nature.,0,3,,
,,,,,,,,,,,,,,,90504,001,2022-04-27_21h06.32.350,SPAMnetsValid,2021.1.4,Win32,59.53089654,,,,,,,,,,,,,,,,,,,,,,,,,,,,,,,,,,,,,,,,,,,,,,,,,,,,,,,,,,,,,,,,,,,,,,,,,,,,,,3,3.3706,0,3,3,3,1,I believe letting students hear controversial speakers can only confuse and mislead them.,1,4,,
,,,,,,,,,,,,,,,90504,001,2022-04-27_21h06.32.350,SPAMnetsValid,2021.1.4,Win32,59.53089654,,,,,,,,,,,,,,,,,,,,,,,,,,,,,,,,,,,,,,,,,,,,,,,,,,,,,,,,,,,,,,,,,,,,,,,,,,,,,,2,3.0073,0,4,4,4,1,Poetry has little or no effect on me.,1,5,,
,,,,,,,,,,,,,,,90504,001,2022-04-27_21h06.32.350,SPAMnetsValid,2021.1.4,Win32,59.53089654,,,,,,,,,,,,,,,,,,,,,,,,,,,,,,,,,,,,,,,,,,,,,,,,,,,,,,,,,,,,,,,,,,,,,,,,,,,,,,1,4.089,0,5,5,5,1,I would have difficulty just letting my mind wander without control or guidance.,1,6,,
,,,,,,,,,,,,,,,90504,001,2022-04-27_21h06.32.350,SPAMnetsValid,2021.1.4,Win32,59.53089654,,,,,,,,,,,,,,,,,,,,,,,,,,,,,,,,,,,,,,,,,,,,,,,,,,,,,,,,,,,,,,,,,,,,,,,,,,,,,,3,3.3728,0,6,6,6,1,I seldom notice the moods or feelings that different environments produce.,1,7,,
,,,,,,,,,,,,,,,90504,001,2022-04-27_21h06.32.350,SPAMnetsValid,2021.1.4,Win32,59.53089654,,,,,,,,,,,,,,,,,,,,,,,,,,,,,,,,,,,,,,,,,,,,,,,,,,,,,,,,,,,,,,,,,,,,,,,,,,,,,,2,3.3474,0,7,7,7,1,I experience a wide range of emotions or feelings.,0,8,,
,,,,,,,,,,,,,,,90504,001,2022-04-27_21h06.32.350,SPAMnetsValid,2021.1.4,Win32,59.53089654,,,,,,,,,,,,,,,,,,,,,,,,,,,,,,,,,,,,,,,,,,,,,,,,,,,,,,,,,,,,,,,,,,,,,,,,,,,,,,4,4.9582,0,8,8,8,1,"Sometimes when I am reading poetry or looking at a work of art, I feel a chill or wave of excitement.",0,9,,
,,,,,,,,,,,,,,,90504,001,2022-04-27_21h06.32.350,SPAMnetsValid,2021.1.4,Win32,59.53089654,,,,,,,,,,,,,,,,,,,,,,,,,,,,,,,,,,,,,,,,,,,,,,,,,,,,,,,,,,,,,,,,,,,,,,,,,,,,,,3,2.504,0,9,9,9,1,I have little interest in speculating on the nature of the universe or the human condition.,1,10,,
,,,,,,,,,,,,,,,90504,001,2022-04-27_21h06.32.350,SPAMnetsValid,2021.1.4,Win32,59.53089654,,,,,,,,,,,,,,,,,,,,,,,,,,,,,,,,,,,,,,,,,,,,,,,,,,,,,,,,,,,,,,,,,,,,,,,,,,,,,,4,1.4474,0,10,10,10,1,I have a lot of intellectual curiosity.,0,11,,
,,,,,,,,,,,,,,,90504,001,2022-04-27_21h06.32.350,SPAMnetsValid,2021.1.4,Win32,59.53089654,,,,,,,,,,,,,,,,,,,,,,,,,,,,,,,,,,,,,,,,,,,,,,,,,,,,,,,,,,,,,,,,,,,,,,,,,,,,,,4,1.422,0,11,11,11,1,I often enjoy playing with theories or abstract ideas.,0,12,,
,,,,,,,,,,,,,,,90504,001,2022-04-27_21h06.32.350,SPAMnetsValid,2021.1.4,Win32,59.53089654,,,,,,,,,,,,,,,,,,,,,,,,,,,,,,,,,,,,,,,,,,,,,,,,,,,,,,,,,,,,,,,,,,,,,,,,,,,,,,,,,,,,,,,,return,47.2425
