key_resp_3.keys,key_resp_3.rt,slider.response,slider.rt,rjt_rating,rjt_RT,trials_22.thisRepN,trials_22.thisTrialN,trials_22.thisN,trials_22.thisIndex,trials_22.ran,rjt_order,word1,word2,attention,participant,session,date,expName,psychopyVersion,OS,frameRate,trials_99.thisRepN,trials_99.thisTrialN,trials_99.thisN,trials_99.thisIndex,trials_99.ran,trials_5.thisRepN,trials_5.thisTrialN,trials_5.thisN,trials_5.thisIndex,trials_5.ran,repOne,repTwo,slider_2.response,slider_2.rt,trials_24.thisRepN,trials_24.thisTrialN,trials_24.thisN,trials_24.thisIndex,trials_24.ran,trials_4.thisRepN,trials_4.thisTrialN,trials_4.thisN,trials_4.thisIndex,trials_4.ran,slider_extend_2.response,slider_extend_2.rt,trials_6.thisRepN,trials_6.thisTrialN,trials_6.thisN,trials_6.thisIndex,trials_6.ran,vCue2,R1,R2,R3,R4,correct,sliderVocab.response,sliderVocab.rt,trials_7.thisRepN,trials_7.thisTrialN,trials_7.thisN,trials_7.thisIndex,trials_7.ran,VocabCue,VR1,VR2,VR3,VR4,VR5,VocabCorrect,AUT_resp,AUT_label,trials.thisRepN,trials.thisTrialN,trials.thisN,trials.thisIndex,trials.ran,trials_2.thisRepN,trials_2.thisTrialN,trials_2.thisN,trials_2.thisIndex,trials_2.ran,aut_prompt,VF_response,VF_tag,trials_16.thisRepN,trials_16.thisTrialN,trials_16.thisN,trials_16.thisIndex,trials_16.ran,trials_17.thisRepN,trials_17.thisTrialN,trials_17.thisN,trials_17.thisIndex,trials_17.ran,VFcond,open_slider.response,open_slider.rt,trials_3.thisRepN,trials_3.thisTrialN,trials_3.thisN,trials_3.thisIndex,trials_3.ran,OpenQ,Rev,OPEN_ORDER,key_resp_2.keys,key_resp_2.rt
return,1160.093,4,5.362,4,5.362,0,0,0,34,1,29,chocolate,melon,,90506,001,2022-04-29_11h50.59.469,SPAMnetsValid,2021.1.4,MacIntel,62.5,,,,,,,,,,,,,,,,,,,,,,,,,,,,,,,,,,,,,,,,,,,,,,,,,,,,,,,,,,,,,,,,,,,,,,,,,,,,,,,,,,,,,,,,,
,,3,7.03,3,7.03,0,1,1,4,1,83,broom,carrot,,90506,001,2022-04-29_11h50.59.469,SPAMnetsValid,2021.1.4,MacIntel,62.5,,,,,,,,,,,,,,,,,,,,,,,,,,,,,,,,,,,,,,,,,,,,,,,,,,,,,,,,,,,,,,,,,,,,,,,,,,,,,,,,,,,,,,,,,
,,2,5.032,2,5.032,0,2,2,56,1,78,cookie,rose,,90506,001,2022-04-29_11h50.59.469,SPAMnetsValid,2021.1.4,MacIntel,62.5,,,,,,,,,,,,,,,,,,,,,,,,,,,,,,,,,,,,,,,,,,,,,,,,,,,,,,,,,,,,,,,,,,,,,,,,,,,,,,,,,,,,,,,,,
,,7,4.968,7,4.968,0,3,3,82,1,93,kitchen,oven,,90506,001,2022-04-29_11h50.59.469,SPAMnetsValid,2021.1.4,MacIntel,62.5,,,,,,,,,,,,,,,,,,,,,,,,,,,,,,,,,,,,,,,,,,,,,,,,,,,,,,,,,,,,,,,,,,,,,,,,,,,,,,,,,,,,,,,,,
,,6,1.937,6,1.937,0,4,4,78,1,30,cookie,pretzel,,90506,001,2022-04-29_11h50.59.469,SPAMnetsValid,2021.1.4,MacIntel,62.5,,,,,,,,,,,,,,,,,,,,,,,,,,,,,,,,,,,,,,,,,,,,,,,,,,,,,,,,,,,,,,,,,,,,,,,,,,,,,,,,,,,,,,,,,
,,4,3.015,4,3.015,0,5,5,50,1,81,pretzel,yogurt,,90506,001,2022-04-29_11h50.59.469,SPAMnetsValid,2021.1.4,MacIntel,62.5,,,,,,,,,,,,,,,,,,,,,,,,,,,,,,,,,,,,,,,,,,,,,,,,,,,,,,,,,,,,,,,,,,,,,,,,,,,,,,,,,,,,,,,,,
,,6,1.821,6,1.821,0,6,6,72,1,59,rose,strawberry,,90506,001,2022-04-29_11h50.59.469,SPAMnetsValid,2021.1.4,MacIntel,62.5,,,,,,,,,,,,,,,,,,,,,,,,,,,,,,,,,,,,,,,,,,,,,,,,,,,,,,,,,,,,,,,,,,,,,,,,,,,,,,,,,,,,,,,,,
,,5,4.912,5,4.912,0,7,7,89,1,80,chocolate,tree,,90506,001,2022-04-29_11h50.59.469,SPAMnetsValid,2021.1.4,MacIntel,62.5,,,,,,,,,,,,,,,,,,,,,,,,,,,,,,,,,,,,,,,,,,,,,,,,,,,,,,,,,,,,,,,,,,,,,,,,,,,,,,,,,,,,,,,,,
,,8,2.863,8,2.863,0,8,8,93,1,63,cake,cookie,,90506,001,2022-04-29_11h50.59.469,SPAMnetsValid,2021.1.4,MacIntel,62.5,,,,,,,,,,,,,,,,,,,,,,,,,,,,,,,,,,,,,,,,,,,,,,,,,,,,,,,,,,,,,,,,,,,,,,,,,,,,,,,,,,,,,,,,,
,,4,3.545,4,3.545,0,9,9,2,1,22,kitchen,strawberry,,90506,001,2022-04-29_11h50.59.469,SPAMnetsValid,2021.1.4,MacIntel,62.5,,,,,,,,,,,,,,,,,,,,,,,,,,,,,,,,,,,,,,,,,,,,,,,,,,,,,,,,,,,,,,,,,,,,,,,,,,,,,,,,,,,,,,,,,
,,4,3.685,4,3.685,0,10,10,18,1,85,cake,tree,,90506,001,2022-04-29_11h50.59.469,SPAMnetsValid,2021.1.4,MacIntel,62.5,,,,,,,,,,,,,,,,,,,,,,,,,,,,,,,,,,,,,,,,,,,,,,,,,,,,,,,,,,,,,,,,,,,,,,,,,,,,,,,,,,,,,,,,,
,,3,2.974,3,2.974,0,11,11,14,1,64,chocolate,garden,,90506,001,2022-04-29_11h50.59.469,SPAMnetsValid,2021.1.4,MacIntel,62.5,,,,,,,,,,,,,,,,,,,,,,,,,,,,,,,,,,,,,,,,,,,,,,,,,,,,,,,,,,,,,,,,,,,,,,,,,,,,,,,,,,,,,,,,,
,,4,4.955,4,4.955,0,12,12,28,1,84,oven,tomato,,90506,001,2022-04-29_11h50.59.469,SPAMnetsValid,2021.1.4,MacIntel,62.5,,,,,,,,,,,,,,,,,,,,,,,,,,,,,,,,,,,,,,,,,,,,,,,,,,,,,,,,,,,,,,,,,,,,,,,,,,,,,,,,,,,,,,,,,
,,3,2.517,3,2.517,0,13,13,13,1,26,tomato,yogurt,,90506,001,2022-04-29_11h50.59.469,SPAMnetsValid,2021.1.4,MacIntel,62.5,,,,,,,,,,,,,,,,,,,,,,,,,,,,,,,,,,,,,,,,,,,,,,,,,,,,,,,,,,,,,,,,,,,,,,,,,,,,,,,,,,,,,,,,,
,,6,1.961,6,1.961,0,14,14,21,1,56,cactus,tree,,90506,001,2022-04-29_11h50.59.469,SPAMnetsValid,2021.1.4,MacIntel,62.5,,,,,,,,,,,,,,,,,,,,,,,,,,,,,,,,,,,,,,,,,,,,,,,,,,,,,,,,,,,,,,,,,,,,,,,,,,,,,,,,,,,,,,,,,
,,3,10.967,3,10.967,0,15,15,40,1,74,broom,pretzel,,90506,001,2022-04-29_11h50.59.469,SPAMnetsValid,2021.1.4,MacIntel,62.5,,,,,,,,,,,,,,,,,,,,,,,,,,,,,,,,,,,,,,,,,,,,,,,,,,,,,,,,,,,,,,,,,,,,,,,,,,,,,,,,,,,,,,,,,
,,4,2.012,4,2.012,0,16,16,57,1,62,kitchen,rose,,90506,001,2022-04-29_11h50.59.469,SPAMnetsValid,2021.1.4,MacIntel,62.5,,,,,,,,,,,,,,,,,,,,,,,,,,,,,,,,,,,,,,,,,,,,,,,,,,,,,,,,,,,,,,,,,,,,,,,,,,,,,,,,,,,,,,,,,
,,6,5.059,6,5.059,0,17,17,39,1,15,onion,oven,,90506,001,2022-04-29_11h50.59.469,SPAMnetsValid,2021.1.4,MacIntel,62.5,,,,,,,,,,,,,,,,,,,,,,,,,,,,,,,,,,,,,,,,,,,,,,,,,,,,,,,,,,,,,,,,,,,,,,,,,,,,,,,,,,,,,,,,,
,,4,2.373,4,2.373,0,18,18,27,1,72,broom,onion,,90506,001,2022-04-29_11h50.59.469,SPAMnetsValid,2021.1.4,MacIntel,62.5,,,,,,,,,,,,,,,,,,,,,,,,,,,,,,,,,,,,,,,,,,,,,,,,,,,,,,,,,,,,,,,,,,,,,,,,,,,,,,,,,,,,,,,,,
,,6,2.046,6,2.046,0,19,19,44,1,25,carrot,onion,,90506,001,2022-04-29_11h50.59.469,SPAMnetsValid,2021.1.4,MacIntel,62.5,,,,,,,,,,,,,,,,,,,,,,,,,,,,,,,,,,,,,,,,,,,,,,,,,,,,,,,,,,,,,,,,,,,,,,,,,,,,,,,,,,,,,,,,,
,,3,3.709,3,3.709,0,20,20,85,1,90,cactus,cake,,90506,001,2022-04-29_11h50.59.469,SPAMnetsValid,2021.1.4,MacIntel,62.5,,,,,,,,,,,,,,,,,,,,,,,,,,,,,,,,,,,,,,,,,,,,,,,,,,,,,,,,,,,,,,,,,,,,,,,,,,,,,,,,,,,,,,,,,
,,4,7.087,4,7.087,0,21,21,90,1,95,broom,refrigerator,,90506,001,2022-04-29_11h50.59.469,SPAMnetsValid,2021.1.4,MacIntel,62.5,,,,,,,,,,,,,,,,,,,,,,,,,,,,,,,,,,,,,,,,,,,,,,,,,,,,,,,,,,,,,,,,,,,,,,,,,,,,,,,,,,,,,,,,,
,,5,5.322,5,5.322,0,22,22,68,1,24,cookie,tomato,,90506,001,2022-04-29_11h50.59.469,SPAMnetsValid,2021.1.4,MacIntel,62.5,,,,,,,,,,,,,,,,,,,,,,,,,,,,,,,,,,,,,,,,,,,,,,,,,,,,,,,,,,,,,,,,,,,,,,,,,,,,,,,,,,,,,,,,,
,,3,8.31,3,8.31,0,23,23,20,1,39,melon,pretzel,,90506,001,2022-04-29_11h50.59.469,SPAMnetsValid,2021.1.4,MacIntel,62.5,,,,,,,,,,,,,,,,,,,,,,,,,,,,,,,,,,,,,,,,,,,,,,,,,,,,,,,,,,,,,,,,,,,,,,,,,,,,,,,,,,,,,,,,,
,,3,5.047,3,5.047,0,24,24,81,1,60,cactus,onion,,90506,001,2022-04-29_11h50.59.469,SPAMnetsValid,2021.1.4,MacIntel,62.5,,,,,,,,,,,,,,,,,,,,,,,,,,,,,,,,,,,,,,,,,,,,,,,,,,,,,,,,,,,,,,,,,,,,,,,,,,,,,,,,,,,,,,,,,
,,4,4.038,4,4.038,0,25,25,8,1,43,chocolate,tomato,,90506,001,2022-04-29_11h50.59.469,SPAMnetsValid,2021.1.4,MacIntel,62.5,,,,,,,,,,,,,,,,,,,,,,,,,,,,,,,,,,,,,,,,,,,,,,,,,,,,,,,,,,,,,,,,,,,,,,,,,,,,,,,,,,,,,,,,,
,,5,4.455,5,4.455,0,26,26,66,1,20,rose,tree,,90506,001,2022-04-29_11h50.59.469,SPAMnetsValid,2021.1.4,MacIntel,62.5,,,,,,,,,,,,,,,,,,,,,,,,,,,,,,,,,,,,,,,,,,,,,,,,,,,,,,,,,,,,,,,,,,,,,,,,,,,,,,,,,,,,,,,,,
,,3,5.305,3,5.305,0,27,27,37,1,58,garden,oven,,90506,001,2022-04-29_11h50.59.469,SPAMnetsValid,2021.1.4,MacIntel,62.5,,,,,,,,,,,,,,,,,,,,,,,,,,,,,,,,,,,,,,,,,,,,,,,,,,,,,,,,,,,,,,,,,,,,,,,,,,,,,,,,,,,,,,,,,
,,1,5.196,1,5.196,0,28,28,5,1,13,broom,yogurt,,90506,001,2022-04-29_11h50.59.469,SPAMnetsValid,2021.1.4,MacIntel,62.5,,,,,,,,,,,,,,,,,,,,,,,,,,,,,,,,,,,,,,,,,,,,,,,,,,,,,,,,,,,,,,,,,,,,,,,,,,,,,,,,,,,,,,,,,
,,2,8.437,2,8.437,0,29,29,79,1,86,oven,rose,,90506,001,2022-04-29_11h50.59.469,SPAMnetsValid,2021.1.4,MacIntel,62.5,,,,,,,,,,,,,,,,,,,,,,,,,,,,,,,,,,,,,,,,,,,,,,,,,,,,,,,,,,,,,,,,,,,,,,,,,,,,,,,,,,,,,,,,,
,,5,3.245,5,3.245,0,30,30,91,1,2,kitchen,onion,,90506,001,2022-04-29_11h50.59.469,SPAMnetsValid,2021.1.4,MacIntel,62.5,,,,,,,,,,,,,,,,,,,,,,,,,,,,,,,,,,,,,,,,,,,,,,,,,,,,,,,,,,,,,,,,,,,,,,,,,,,,,,,,,,,,,,,,,
,,6,1.992,6,1.992,0,31,31,83,1,6,garden,onion,,90506,001,2022-04-29_11h50.59.469,SPAMnetsValid,2021.1.4,MacIntel,62.5,,,,,,,,,,,,,,,,,,,,,,,,,,,,,,,,,,,,,,,,,,,,,,,,,,,,,,,,,,,,,,,,,,,,,,,,,,,,,,,,,,,,,,,,,
,,7,5.34,7,5.34,0,32,32,30,1,3,cake,oven,,90506,001,2022-04-29_11h50.59.469,SPAMnetsValid,2021.1.4,MacIntel,62.5,,,,,,,,,,,,,,,,,,,,,,,,,,,,,,,,,,,,,,,,,,,,,,,,,,,,,,,,,,,,,,,,,,,,,,,,,,,,,,,,,,,,,,,,,
,,3,2.754,3,2.754,0,33,33,55,1,1,rose,yogurt,,90506,001,2022-04-29_11h50.59.469,SPAMnetsValid,2021.1.4,MacIntel,62.5,,,,,,,,,,,,,,,,,,,,,,,,,,,,,,,,,,,,,,,,,,,,,,,,,,,,,,,,,,,,,,,,,,,,,,,,,,,,,,,,,,,,,,,,,
,,4,2.224,4,2.224,0,34,34,24,1,17,carrot,melon,,90506,001,2022-04-29_11h50.59.469,SPAMnetsValid,2021.1.4,MacIntel,62.5,,,,,,,,,,,,,,,,,,,,,,,,,,,,,,,,,,,,,,,,,,,,,,,,,,,,,,,,,,,,,,,,,,,,,,,,,,,,,,,,,,,,,,,,,
,,2,3.83,2,3.83,0,35,35,0,1,53,garden,pretzel,,90506,001,2022-04-29_11h50.59.469,SPAMnetsValid,2021.1.4,MacIntel,62.5,,,,,,,,,,,,,,,,,,,,,,,,,,,,,,,,,,,,,,,,,,,,,,,,,,,,,,,,,,,,,,,,,,,,,,,,,,,,,,,,,,,,,,,,,
,,5,4.979,5,4.979,0,36,36,62,1,18,onion,refrigerator,,90506,001,2022-04-29_11h50.59.469,SPAMnetsValid,2021.1.4,MacIntel,62.5,,,,,,,,,,,,,,,,,,,,,,,,,,,,,,,,,,,,,,,,,,,,,,,,,,,,,,,,,,,,,,,,,,,,,,,,,,,,,,,,,,,,,,,,,
,,5,3.001,5,3.001,0,37,37,54,1,28,cake,melon,,90506,001,2022-04-29_11h50.59.469,SPAMnetsValid,2021.1.4,MacIntel,62.5,,,,,,,,,,,,,,,,,,,,,,,,,,,,,,,,,,,,,,,,,,,,,,,,,,,,,,,,,,,,,,,,,,,,,,,,,,,,,,,,,,,,,,,,,
,,8,4.049,8,4.049,0,38,38,19,1,76,garden,rose,,90506,001,2022-04-29_11h50.59.469,SPAMnetsValid,2021.1.4,MacIntel,62.5,,,,,,,,,,,,,,,,,,,,,,,,,,,,,,,,,,,,,,,,,,,,,,,,,,,,,,,,,,,,,,,,,,,,,,,,,,,,,,,,,,,,,,,,,
,,3,9.661,3,9.661,0,39,39,41,1,19,microwave,pretzel,,90506,001,2022-04-29_11h50.59.469,SPAMnetsValid,2021.1.4,MacIntel,62.5,,,,,,,,,,,,,,,,,,,,,,,,,,,,,,,,,,,,,,,,,,,,,,,,,,,,,,,,,,,,,,,,,,,,,,,,,,,,,,,,,,,,,,,,,
,,7,7.44,7,7.44,0,40,40,3,1,49,flower,strawberry,,90506,001,2022-04-29_11h50.59.469,SPAMnetsValid,2021.1.4,MacIntel,62.5,,,,,,,,,,,,,,,,,,,,,,,,,,,,,,,,,,,,,,,,,,,,,,,,,,,,,,,,,,,,,,,,,,,,,,,,,,,,,,,,,,,,,,,,,
,,5,5.604,5,5.604,0,41,41,11,1,37,garden,refrigerator,,90506,001,2022-04-29_11h50.59.469,SPAMnetsValid,2021.1.4,MacIntel,62.5,,,,,,,,,,,,,,,,,,,,,,,,,,,,,,,,,,,,,,,,,,,,,,,,,,,,,,,,,,,,,,,,,,,,,,,,,,,,,,,,,,,,,,,,,
,,2,3.029,2,3.029,0,42,42,47,1,73,broom,chocolate,,90506,001,2022-04-29_11h50.59.469,SPAMnetsValid,2021.1.4,MacIntel,62.5,,,,,,,,,,,,,,,,,,,,,,,,,,,,,,,,,,,,,,,,,,,,,,,,,,,,,,,,,,,,,,,,,,,,,,,,,,,,,,,,,,,,,,,,,
,,4,5.128,4,5.128,0,43,43,70,1,5,oven,tree,,90506,001,2022-04-29_11h50.59.469,SPAMnetsValid,2021.1.4,MacIntel,62.5,,,,,,,,,,,,,,,,,,,,,,,,,,,,,,,,,,,,,,,,,,,,,,,,,,,,,,,,,,,,,,,,,,,,,,,,,,,,,,,,,,,,,,,,,
,,5,3.567,5,3.567,0,44,44,29,1,42,garden,kitchen,,90506,001,2022-04-29_11h50.59.469,SPAMnetsValid,2021.1.4,MacIntel,62.5,,,,,,,,,,,,,,,,,,,,,,,,,,,,,,,,,,,,,,,,,,,,,,,,,,,,,,,,,,,,,,,,,,,,,,,,,,,,,,,,,,,,,,,,,
,,2,1.915,2,1.915,0,45,45,59,1,8,broom,melon,,90506,001,2022-04-29_11h50.59.469,SPAMnetsValid,2021.1.4,MacIntel,62.5,,,,,,,,,,,,,,,,,,,,,,,,,,,,,,,,,,,,,,,,,,,,,,,,,,,,,,,,,,,,,,,,,,,,,,,,,,,,,,,,,,,,,,,,,
,,9,2.319,9,2.319,0,46,46,10,1,191,cake,cake,CHECK,90506,001,2022-04-29_11h50.59.469,SPAMnetsValid,2021.1.4,MacIntel,62.5,,,,,,,,,,,,,,,,,,,,,,,,,,,,,,,,,,,,,,,,,,,,,,,,,,,,,,,,,,,,,,,,,,,,,,,,,,,,,,,,,,,,,,,,,
,,2,2.016,2,2.016,0,47,47,23,1,65,broom,garden,,90506,001,2022-04-29_11h50.59.469,SPAMnetsValid,2021.1.4,MacIntel,62.5,,,,,,,,,,,,,,,,,,,,,,,,,,,,,,,,,,,,,,,,,,,,,,,,,,,,,,,,,,,,,,,,,,,,,,,,,,,,,,,,,,,,,,,,,
,,3,2.054,3,2.054,0,48,48,77,1,7,melon,tree,,90506,001,2022-04-29_11h50.59.469,SPAMnetsValid,2021.1.4,MacIntel,62.5,,,,,,,,,,,,,,,,,,,,,,,,,,,,,,,,,,,,,,,,,,,,,,,,,,,,,,,,,,,,,,,,,,,,,,,,,,,,,,,,,,,,,,,,,
,,3,3.678,3,3.678,0,49,49,7,1,34,melon,oven,,90506,001,2022-04-29_11h50.59.469,SPAMnetsValid,2021.1.4,MacIntel,62.5,,,,,,,,,,,,,,,,,,,,,,,,,,,,,,,,,,,,,,,,,,,,,,,,,,,,,,,,,,,,,,,,,,,,,,,,,,,,,,,,,,,,,,,,,
,,4,3.462,4,3.462,0,50,50,69,1,45,onion,pretzel,,90506,001,2022-04-29_11h50.59.469,SPAMnetsValid,2021.1.4,MacIntel,62.5,,,,,,,,,,,,,,,,,,,,,,,,,,,,,,,,,,,,,,,,,,,,,,,,,,,,,,,,,,,,,,,,,,,,,,,,,,,,,,,,,,,,,,,,,
,,5,1.64,5,1.64,0,51,51,17,1,27,cactus,cookie,,90506,001,2022-04-29_11h50.59.469,SPAMnetsValid,2021.1.4,MacIntel,62.5,,,,,,,,,,,,,,,,,,,,,,,,,,,,,,,,,,,,,,,,,,,,,,,,,,,,,,,,,,,,,,,,,,,,,,,,,,,,,,,,,,,,,,,,,
,,5,4.62,5,4.62,0,52,52,33,1,32,cake,microwave,,90506,001,2022-04-29_11h50.59.469,SPAMnetsValid,2021.1.4,MacIntel,62.5,,,,,,,,,,,,,,,,,,,,,,,,,,,,,,,,,,,,,,,,,,,,,,,,,,,,,,,,,,,,,,,,,,,,,,,,,,,,,,,,,,,,,,,,,
,,3,5.557,3,5.557,0,53,53,65,1,46,garden,yogurt,,90506,001,2022-04-29_11h50.59.469,SPAMnetsValid,2021.1.4,MacIntel,62.5,,,,,,,,,,,,,,,,,,,,,,,,,,,,,,,,,,,,,,,,,,,,,,,,,,,,,,,,,,,,,,,,,,,,,,,,,,,,,,,,,,,,,,,,,
,,4,2.244,4,2.244,0,54,54,92,1,44,cookie,melon,,90506,001,2022-04-29_11h50.59.469,SPAMnetsValid,2021.1.4,MacIntel,62.5,,,,,,,,,,,,,,,,,,,,,,,,,,,,,,,,,,,,,,,,,,,,,,,,,,,,,,,,,,,,,,,,,,,,,,,,,,,,,,,,,,,,,,,,,
,,4,3.672,4,3.672,0,55,55,73,1,50,carrot,rose,,90506,001,2022-04-29_11h50.59.469,SPAMnetsValid,2021.1.4,MacIntel,62.5,,,,,,,,,,,,,,,,,,,,,,,,,,,,,,,,,,,,,,,,,,,,,,,,,,,,,,,,,,,,,,,,,,,,,,,,,,,,,,,,,,,,,,,,,
,,3,1.649,3,1.649,0,56,56,88,1,92,broom,flower,,90506,001,2022-04-29_11h50.59.469,SPAMnetsValid,2021.1.4,MacIntel,62.5,,,,,,,,,,,,,,,,,,,,,,,,,,,,,,,,,,,,,,,,,,,,,,,,,,,,,,,,,,,,,,,,,,,,,,,,,,,,,,,,,,,,,,,,,
,,7,1.698,7,1.698,0,57,57,51,1,47,onion,tomato,,90506,001,2022-04-29_11h50.59.469,SPAMnetsValid,2021.1.4,MacIntel,62.5,,,,,,,,,,,,,,,,,,,,,,,,,,,,,,,,,,,,,,,,,,,,,,,,,,,,,,,,,,,,,,,,,,,,,,,,,,,,,,,,,,,,,,,,,
,,3,4.101,3,4.101,0,58,58,46,1,41,broom,cactus,,90506,001,2022-04-29_11h50.59.469,SPAMnetsValid,2021.1.4,MacIntel,62.5,,,,,,,,,,,,,,,,,,,,,,,,,,,,,,,,,,,,,,,,,,,,,,,,,,,,,,,,,,,,,,,,,,,,,,,,,,,,,,,,,,,,,,,,,
,,2,2.258,2,2.258,0,59,59,71,1,38,pretzel,refrigerator,,90506,001,2022-04-29_11h50.59.469,SPAMnetsValid,2021.1.4,MacIntel,62.5,,,,,,,,,,,,,,,,,,,,,,,,,,,,,,,,,,,,,,,,,,,,,,,,,,,,,,,,,,,,,,,,,,,,,,,,,,,,,,,,,,,,,,,,,
,,2,5.766,2,5.766,0,60,60,49,1,57,flower,kitchen,,90506,001,2022-04-29_11h50.59.469,SPAMnetsValid,2021.1.4,MacIntel,62.5,,,,,,,,,,,,,,,,,,,,,,,,,,,,,,,,,,,,,,,,,,,,,,,,,,,,,,,,,,,,,,,,,,,,,,,,,,,,,,,,,,,,,,,,,
,,5,4.097,5,4.097,0,61,61,86,1,51,onion,strawberry,,90506,001,2022-04-29_11h50.59.469,SPAMnetsValid,2021.1.4,MacIntel,62.5,,,,,,,,,,,,,,,,,,,,,,,,,,,,,,,,,,,,,,,,,,,,,,,,,,,,,,,,,,,,,,,,,,,,,,,,,,,,,,,,,,,,,,,,,
,,3,1.729,3,1.729,0,62,62,12,1,67,flower,yogurt,,90506,001,2022-04-29_11h50.59.469,SPAMnetsValid,2021.1.4,MacIntel,62.5,,,,,,,,,,,,,,,,,,,,,,,,,,,,,,,,,,,,,,,,,,,,,,,,,,,,,,,,,,,,,,,,,,,,,,,,,,,,,,,,,,,,,,,,,
,,5,2.119,5,2.119,0,63,63,80,1,61,strawberry,tomato,,90506,001,2022-04-29_11h50.59.469,SPAMnetsValid,2021.1.4,MacIntel,62.5,,,,,,,,,,,,,,,,,,,,,,,,,,,,,,,,,,,,,,,,,,,,,,,,,,,,,,,,,,,,,,,,,,,,,,,,,,,,,,,,,,,,,,,,,
,,7,1.875,7,1.875,0,64,64,52,1,4,chocolate,pretzel,,90506,001,2022-04-29_11h50.59.469,SPAMnetsValid,2021.1.4,MacIntel,62.5,,,,,,,,,,,,,,,,,,,,,,,,,,,,,,,,,,,,,,,,,,,,,,,,,,,,,,,,,,,,,,,,,,,,,,,,,,,,,,,,,,,,,,,,,
,,3,2.484,3,2.484,0,65,65,1,1,31,cactus,pretzel,,90506,001,2022-04-29_11h50.59.469,SPAMnetsValid,2021.1.4,MacIntel,62.5,,,,,,,,,,,,,,,,,,,,,,,,,,,,,,,,,,,,,,,,,,,,,,,,,,,,,,,,,,,,,,,,,,,,,,,,,,,,,,,,,,,,,,,,,
,,4,3.095,4,3.095,0,66,66,9,1,75,cookie,onion,,90506,001,2022-04-29_11h50.59.469,SPAMnetsValid,2021.1.4,MacIntel,62.5,,,,,,,,,,,,,,,,,,,,,,,,,,,,,,,,,,,,,,,,,,,,,,,,,,,,,,,,,,,,,,,,,,,,,,,,,,,,,,,,,,,,,,,,,
,,4,5.051,4,5.051,0,67,67,48,1,66,melon,yogurt,,90506,001,2022-04-29_11h50.59.469,SPAMnetsValid,2021.1.4,MacIntel,62.5,,,,,,,,,,,,,,,,,,,,,,,,,,,,,,,,,,,,,,,,,,,,,,,,,,,,,,,,,,,,,,,,,,,,,,,,,,,,,,,,,,,,,,,,,
,,8,2.43,8,2.43,0,68,68,58,1,94,kitchen,microwave,,90506,001,2022-04-29_11h50.59.469,SPAMnetsValid,2021.1.4,MacIntel,62.5,,,,,,,,,,,,,,,,,,,,,,,,,,,,,,,,,,,,,,,,,,,,,,,,,,,,,,,,,,,,,,,,,,,,,,,,,,,,,,,,,,,,,,,,,
,,6,7.527,6,7.527,0,69,69,87,1,79,garden,strawberry,,90506,001,2022-04-29_11h50.59.469,SPAMnetsValid,2021.1.4,MacIntel,62.5,,,,,,,,,,,,,,,,,,,,,,,,,,,,,,,,,,,,,,,,,,,,,,,,,,,,,,,,,,,,,,,,,,,,,,,,,,,,,,,,,,,,,,,,,
,,6,2.089,6,2.089,0,70,70,38,1,88,cactus,melon,,90506,001,2022-04-29_11h50.59.469,SPAMnetsValid,2021.1.4,MacIntel,62.5,,,,,,,,,,,,,,,,,,,,,,,,,,,,,,,,,,,,,,,,,,,,,,,,,,,,,,,,,,,,,,,,,,,,,,,,,,,,,,,,,,,,,,,,,
,,6,1.783,6,1.783,0,71,71,94,1,68,flower,tomato,,90506,001,2022-04-29_11h50.59.469,SPAMnetsValid,2021.1.4,MacIntel,62.5,,,,,,,,,,,,,,,,,,,,,,,,,,,,,,,,,,,,,,,,,,,,,,,,,,,,,,,,,,,,,,,,,,,,,,,,,,,,,,,,,,,,,,,,,
,,3,2.206,3,2.206,0,72,72,32,1,40,broom,cake,,90506,001,2022-04-29_11h50.59.469,SPAMnetsValid,2021.1.4,MacIntel,62.5,,,,,,,,,,,,,,,,,,,,,,,,,,,,,,,,,,,,,,,,,,,,,,,,,,,,,,,,,,,,,,,,,,,,,,,,,,,,,,,,,,,,,,,,,
,,2,2.096,2,2.096,0,73,73,84,1,91,microwave,rose,,90506,001,2022-04-29_11h50.59.469,SPAMnetsValid,2021.1.4,MacIntel,62.5,,,,,,,,,,,,,,,,,,,,,,,,,,,,,,,,,,,,,,,,,,,,,,,,,,,,,,,,,,,,,,,,,,,,,,,,,,,,,,,,,,,,,,,,,
,,3,2.003,3,2.003,0,74,74,6,1,87,carrot,yogurt,,90506,001,2022-04-29_11h50.59.469,SPAMnetsValid,2021.1.4,MacIntel,62.5,,,,,,,,,,,,,,,,,,,,,,,,,,,,,,,,,,,,,,,,,,,,,,,,,,,,,,,,,,,,,,,,,,,,,,,,,,,,,,,,,,,,,,,,,
,,2,2.823,2,2.823,0,75,75,16,1,14,broom,cookie,,90506,001,2022-04-29_11h50.59.469,SPAMnetsValid,2021.1.4,MacIntel,62.5,,,,,,,,,,,,,,,,,,,,,,,,,,,,,,,,,,,,,,,,,,,,,,,,,,,,,,,,,,,,,,,,,,,,,,,,,,,,,,,,,,,,,,,,,
,,8,2.364,8,2.364,0,76,76,64,1,9,kitchen,refrigerator,,90506,001,2022-04-29_11h50.59.469,SPAMnetsValid,2021.1.4,MacIntel,62.5,,,,,,,,,,,,,,,,,,,,,,,,,,,,,,,,,,,,,,,,,,,,,,,,,,,,,,,,,,,,,,,,,,,,,,,,,,,,,,,,,,,,,,,,,
,,3,2.319,3,2.319,0,77,77,26,1,35,flower,pretzel,,90506,001,2022-04-29_11h50.59.469,SPAMnetsValid,2021.1.4,MacIntel,62.5,,,,,,,,,,,,,,,,,,,,,,,,,,,,,,,,,,,,,,,,,,,,,,,,,,,,,,,,,,,,,,,,,,,,,,,,,,,,,,,,,,,,,,,,,
,,5,2.86,5,2.86,0,78,78,60,1,89,chocolate,rose,,90506,001,2022-04-29_11h50.59.469,SPAMnetsValid,2021.1.4,MacIntel,62.5,,,,,,,,,,,,,,,,,,,,,,,,,,,,,,,,,,,,,,,,,,,,,,,,,,,,,,,,,,,,,,,,,,,,,,,,,,,,,,,,,,,,,,,,,
,,3,3.746,3,3.746,0,79,79,43,1,11,refrigerator,tree,,90506,001,2022-04-29_11h50.59.469,SPAMnetsValid,2021.1.4,MacIntel,62.5,,,,,,,,,,,,,,,,,,,,,,,,,,,,,,,,,,,,,,,,,,,,,,,,,,,,,,,,,,,,,,,,,,,,,,,,,,,,,,,,,,,,,,,,,
,,2,2.362,2,2.362,0,80,80,36,1,12,cookie,yogurt,,90506,001,2022-04-29_11h50.59.469,SPAMnetsValid,2021.1.4,MacIntel,62.5,,,,,,,,,,,,,,,,,,,,,,,,,,,,,,,,,,,,,,,,,,,,,,,,,,,,,,,,,,,,,,,,,,,,,,,,,,,,,,,,,,,,,,,,,
,,3,4.206,3,4.206,0,81,81,61,1,71,broom,rose,,90506,001,2022-04-29_11h50.59.469,SPAMnetsValid,2021.1.4,MacIntel,62.5,,,,,,,,,,,,,,,,,,,,,,,,,,,,,,,,,,,,,,,,,,,,,,,,,,,,,,,,,,,,,,,,,,,,,,,,,,,,,,,,,,,,,,,,,
,,6,3.522,6,3.522,0,82,82,75,1,69,carrot,refrigerator,,90506,001,2022-04-29_11h50.59.469,SPAMnetsValid,2021.1.4,MacIntel,62.5,,,,,,,,,,,,,,,,,,,,,,,,,,,,,,,,,,,,,,,,,,,,,,,,,,,,,,,,,,,,,,,,,,,,,,,,,,,,,,,,,,,,,,,,,
,,4,2.309,4,2.309,0,83,83,22,1,16,chocolate,flower,,90506,001,2022-04-29_11h50.59.469,SPAMnetsValid,2021.1.4,MacIntel,62.5,,,,,,,,,,,,,,,,,,,,,,,,,,,,,,,,,,,,,,,,,,,,,,,,,,,,,,,,,,,,,,,,,,,,,,,,,,,,,,,,,,,,,,,,,
,,4,2.031,4,2.031,0,84,84,35,1,55,tomato,tree,,90506,001,2022-04-29_11h50.59.469,SPAMnetsValid,2021.1.4,MacIntel,62.5,,,,,,,,,,,,,,,,,,,,,,,,,,,,,,,,,,,,,,,,,,,,,,,,,,,,,,,,,,,,,,,,,,,,,,,,,,,,,,,,,,,,,,,,,
,,5,2.83,5,2.83,0,85,85,96,1,82,cake,kitchen,,90506,001,2022-04-29_11h50.59.469,SPAMnetsValid,2021.1.4,MacIntel,62.5,,,,,,,,,,,,,,,,,,,,,,,,,,,,,,,,,,,,,,,,,,,,,,,,,,,,,,,,,,,,,,,,,,,,,,,,,,,,,,,,,,,,,,,,,
,,4,3.402,4,3.402,0,86,86,63,1,21,cake,onion,,90506,001,2022-04-29_11h50.59.469,SPAMnetsValid,2021.1.4,MacIntel,62.5,,,,,,,,,,,,,,,,,,,,,,,,,,,,,,,,,,,,,,,,,,,,,,,,,,,,,,,,,,,,,,,,,,,,,,,,,,,,,,,,,,,,,,,,,
,,9,1.396,9,1.396,0,87,87,53,1,192,microwave,microwave,CHECK,90506,001,2022-04-29_11h50.59.469,SPAMnetsValid,2021.1.4,MacIntel,62.5,,,,,,,,,,,,,,,,,,,,,,,,,,,,,,,,,,,,,,,,,,,,,,,,,,,,,,,,,,,,,,,,,,,,,,,,,,,,,,,,,,,,,,,,,
,,3,1.887,3,1.887,0,88,88,25,1,23,flower,microwave,,90506,001,2022-04-29_11h50.59.469,SPAMnetsValid,2021.1.4,MacIntel,62.5,,,,,,,,,,,,,,,,,,,,,,,,,,,,,,,,,,,,,,,,,,,,,,,,,,,,,,,,,,,,,,,,,,,,,,,,,,,,,,,,,,,,,,,,,
,,3,1.461,3,1.461,0,89,89,15,1,48,flower,oven,,90506,001,2022-04-29_11h50.59.469,SPAMnetsValid,2021.1.4,MacIntel,62.5,,,,,,,,,,,,,,,,,,,,,,,,,,,,,,,,,,,,,,,,,,,,,,,,,,,,,,,,,,,,,,,,,,,,,,,,,,,,,,,,,,,,,,,,,
,,4,3.582,4,3.582,0,90,90,74,1,70,chocolate,onion,,90506,001,2022-04-29_11h50.59.469,SPAMnetsValid,2021.1.4,MacIntel,62.5,,,,,,,,,,,,,,,,,,,,,,,,,,,,,,,,,,,,,,,,,,,,,,,,,,,,,,,,,,,,,,,,,,,,,,,,,,,,,,,,,,,,,,,,,
,,2,2.078,2,2.078,0,91,91,31,1,33,oven,yogurt,,90506,001,2022-04-29_11h50.59.469,SPAMnetsValid,2021.1.4,MacIntel,62.5,,,,,,,,,,,,,,,,,,,,,,,,,,,,,,,,,,,,,,,,,,,,,,,,,,,,,,,,,,,,,,,,,,,,,,,,,,,,,,,,,,,,,,,,,
,,2,2.065,2,2.065,0,92,92,42,1,77,refrigerator,yogurt,,90506,001,2022-04-29_11h50.59.469,SPAMnetsValid,2021.1.4,MacIntel,62.5,,,,,,,,,,,,,,,,,,,,,,,,,,,,,,,,,,,,,,,,,,,,,,,,,,,,,,,,,,,,,,,,,,,,,,,,,,,,,,,,,,,,,,,,,
,,3,9.468,3,9.468,0,93,93,45,1,10,flower,onion,,90506,001,2022-04-29_11h50.59.469,SPAMnetsValid,2021.1.4,MacIntel,62.5,,,,,,,,,,,,,,,,,,,,,,,,,,,,,,,,,,,,,,,,,,,,,,,,,,,,,,,,,,,,,,,,,,,,,,,,,,,,,,,,,,,,,,,,,
,,7,6.204,7,6.204,0,94,94,76,1,36,broom,kitchen,,90506,001,2022-04-29_11h50.59.469,SPAMnetsValid,2021.1.4,MacIntel,62.5,,,,,,,,,,,,,,,,,,,,,,,,,,,,,,,,,,,,,,,,,,,,,,,,,,,,,,,,,,,,,,,,,,,,,,,,,,,,,,,,,,,,,,,,,
,,5,2.031,5,2.031,0,95,95,67,1,54,chocolate,yogurt,,90506,001,2022-04-29_11h50.59.469,SPAMnetsValid,2021.1.4,MacIntel,62.5,,,,,,,,,,,,,,,,,,,,,,,,,,,,,,,,,,,,,,,,,,,,,,,,,,,,,,,,,,,,,,,,,,,,,,,,,,,,,,,,,,,,,,,,,
,,5,8.622,5,8.622,0,96,96,95,1,52,carrot,tomato,,90506,001,2022-04-29_11h50.59.469,SPAMnetsValid,2021.1.4,MacIntel,62.5,,,,,,,,,,,,,,,,,,,,,,,,,,,,,,,,,,,,,,,,,,,,,,,,,,,,,,,,,,,,,,,,,,,,,,,,,,,,,,,,,,,,,,,,,
,,,,,,,,,,,,,,,90506,001,2022-04-29_11h50.59.469,SPAMnetsValid,2021.1.4,MacIntel,62.5,0,0,0,0,1,,,,,,,,,,,,,,,,,,,,,,,,,,,,,,,,,,,,,,,,,,,,,,,,,,,,,,,,,,,,,,,,,,,,,,,,,,,,,,,,,,,,
,,,,,,,,,,,,,,,90506,001,2022-04-29_11h50.59.469,SPAMnetsValid,2021.1.4,MacIntel,62.5,,,,,,0,0,0,0,1,1,0,,,,,,,,,,,,,,,,,,,,,,,,,,,,,,,,,,,,,,,,,,,,,,,,,,,,,,,,,,,,,,,,,,,,,,,,,,,,,
,,,,4,7.013,,,,,,101,cactus,kitchen,,90506,001,2022-04-29_11h50.59.469,SPAMnetsValid,2021.1.4,MacIntel,62.5,,,,,,,,,,,,,4,7.013,0,0,0,54,1,,,,,,,,,,,,,,,,,,,,,,,,,,,,,,,,,,,,,,,,,,,,,,,,,,,,,,,,,,,,,,,,,,,,,,
,,,,4,1.909,,,,,,97,chocolate,kitchen,,90506,001,2022-04-29_11h50.59.469,SPAMnetsValid,2021.1.4,MacIntel,62.5,,,,,,,,,,,,,4,1.909,0,1,1,8,1,,,,,,,,,,,,,,,,,,,,,,,,,,,,,,,,,,,,,,,,,,,,,,,,,,,,,,,,,,,,,,,,,,,,,,
,,,,6,1.567,,,,,,99,garden,melon,,90506,001,2022-04-29_11h50.59.469,SPAMnetsValid,2021.1.4,MacIntel,62.5,,,,,,,,,,,,,6,1.567,0,2,2,17,1,,,,,,,,,,,,,,,,,,,,,,,,,,,,,,,,,,,,,,,,,,,,,,,,,,,,,,,,,,,,,,,,,,,,,,
,,,,3,1.66,,,,,,161,kitchen,pretzel,,90506,001,2022-04-29_11h50.59.469,SPAMnetsValid,2021.1.4,MacIntel,62.5,,,,,,,,,,,,,3,1.66,0,3,3,36,1,,,,,,,,,,,,,,,,,,,,,,,,,,,,,,,,,,,,,,,,,,,,,,,,,,,,,,,,,,,,,,,,,,,,,,
,,,,6,1.732,,,,,,129,cactus,refrigerator,,90506,001,2022-04-29_11h50.59.469,SPAMnetsValid,2021.1.4,MacIntel,62.5,,,,,,,,,,,,,6,1.732,0,4,4,3,1,,,,,,,,,,,,,,,,,,,,,,,,,,,,,,,,,,,,,,,,,,,,,,,,,,,,,,,,,,,,,,,,,,,,,,
,,,,7,1.733,,,,,,147,cake,refrigerator,,90506,001,2022-04-29_11h50.59.469,SPAMnetsValid,2021.1.4,MacIntel,62.5,,,,,,,,,,,,,7,1.733,0,5,5,35,1,,,,,,,,,,,,,,,,,,,,,,,,,,,,,,,,,,,,,,,,,,,,,,,,,,,,,,,,,,,,,,,,,,,,,,
,,,,6,1.656,,,,,,141,melon,tomato,,90506,001,2022-04-29_11h50.59.469,SPAMnetsValid,2021.1.4,MacIntel,62.5,,,,,,,,,,,,,6,1.656,0,6,6,70,1,,,,,,,,,,,,,,,,,,,,,,,,,,,,,,,,,,,,,,,,,,,,,,,,,,,,,,,,,,,,,,,,,,,,,,
,,,,4,1.476,,,,,,165,onion,rose,,90506,001,2022-04-29_11h50.59.469,SPAMnetsValid,2021.1.4,MacIntel,62.5,,,,,,,,,,,,,4,1.476,0,7,7,40,1,,,,,,,,,,,,,,,,,,,,,,,,,,,,,,,,,,,,,,,,,,,,,,,,,,,,,,,,,,,,,,,,,,,,,,
,,,,3,1.861,,,,,,153,carrot,pretzel,,90506,001,2022-04-29_11h50.59.469,SPAMnetsValid,2021.1.4,MacIntel,62.5,,,,,,,,,,,,,3,1.861,0,8,8,34,1,,,,,,,,,,,,,,,,,,,,,,,,,,,,,,,,,,,,,,,,,,,,,,,,,,,,,,,,,,,,,,,,,,,,,,
,,,,2,2.116,,,,,,169,onion,yogurt,,90506,001,2022-04-29_11h50.59.469,SPAMnetsValid,2021.1.4,MacIntel,62.5,,,,,,,,,,,,,2,2.116,0,9,9,24,1,,,,,,,,,,,,,,,,,,,,,,,,,,,,,,,,,,,,,,,,,,,,,,,,,,,,,,,,,,,,,,,,,,,,,,
,,,,3,4.974,,,,,,162,microwave,tomato,,90506,001,2022-04-29_11h50.59.469,SPAMnetsValid,2021.1.4,MacIntel,62.5,,,,,,,,,,,,,3,4.974,0,10,10,12,1,,,,,,,,,,,,,,,,,,,,,,,,,,,,,,,,,,,,,,,,,,,,,,,,,,,,,,,,,,,,,,,,,,,,,,
,,,,7,1.502,,,,,,113,refrigerator,strawberry,,90506,001,2022-04-29_11h50.59.469,SPAMnetsValid,2021.1.4,MacIntel,62.5,,,,,,,,,,,,,7,1.502,0,11,11,56,1,,,,,,,,,,,,,,,,,,,,,,,,,,,,,,,,,,,,,,,,,,,,,,,,,,,,,,,,,,,,,,,,,,,,,,
,,,,6,1.71,,,,,,114,cookie,strawberry,,90506,001,2022-04-29_11h50.59.469,SPAMnetsValid,2021.1.4,MacIntel,62.5,,,,,,,,,,,,,6,1.71,0,12,12,87,1,,,,,,,,,,,,,,,,,,,,,,,,,,,,,,,,,,,,,,,,,,,,,,,,,,,,,,,,,,,,,,,,,,,,,,
,,,,4,2.708,,,,,,155,carrot,cookie,,90506,001,2022-04-29_11h50.59.469,SPAMnetsValid,2021.1.4,MacIntel,62.5,,,,,,,,,,,,,4,2.708,0,13,13,38,1,,,,,,,,,,,,,,,,,,,,,,,,,,,,,,,,,,,,,,,,,,,,,,,,,,,,,,,,,,,,,,,,,,,,,,
,,,,6,1.485,,,,,,119,strawberry,tree,,90506,001,2022-04-29_11h50.59.469,SPAMnetsValid,2021.1.4,MacIntel,62.5,,,,,,,,,,,,,6,1.485,0,14,14,18,1,,,,,,,,,,,,,,,,,,,,,,,,,,,,,,,,,,,,,,,,,,,,,,,,,,,,,,,,,,,,,,,,,,,,,,
,,,,6,1.271,,,,,,117,melon,strawberry,,90506,001,2022-04-29_11h50.59.469,SPAMnetsValid,2021.1.4,MacIntel,62.5,,,,,,,,,,,,,6,1.271,0,15,15,11,1,,,,,,,,,,,,,,,,,,,,,,,,,,,,,,,,,,,,,,,,,,,,,,,,,,,,,,,,,,,,,,,,,,,,,,
,,,,4,1.715,,,,,,134,carrot,flower,,90506,001,2022-04-29_11h50.59.469,SPAMnetsValid,2021.1.4,MacIntel,62.5,,,,,,,,,,,,,4,1.715,0,16,16,93,1,,,,,,,,,,,,,,,,,,,,,,,,,,,,,,,,,,,,,,,,,,,,,,,,,,,,,,,,,,,,,,,,,,,,,,
,,,,4,3.219,,,,,,126,kitchen,tree,,90506,001,2022-04-29_11h50.59.469,SPAMnetsValid,2021.1.4,MacIntel,62.5,,,,,,,,,,,,,4,3.219,0,17,17,50,1,,,,,,,,,,,,,,,,,,,,,,,,,,,,,,,,,,,,,,,,,,,,,,,,,,,,,,,,,,,,,,,,,,,,,,
,,,,6,3.32,,,,,,118,chocolate,oven,,90506,001,2022-04-29_11h50.59.469,SPAMnetsValid,2021.1.4,MacIntel,62.5,,,,,,,,,,,,,6,3.32,0,18,18,10,1,,,,,,,,,,,,,,,,,,,,,,,,,,,,,,,,,,,,,,,,,,,,,,,,,,,,,,,,,,,,,,,,,,,,,,
,,,,4,2.931,,,,,,176,cactus,tomato,,90506,001,2022-04-29_11h50.59.469,SPAMnetsValid,2021.1.4,MacIntel,62.5,,,,,,,,,,,,,4,2.931,0,19,19,9,1,,,,,,,,,,,,,,,,,,,,,,,,,,,,,,,,,,,,,,,,,,,,,,,,,,,,,,,,,,,,,,,,,,,,,,
,,,,8,2.803,,,,,,112,cake,carrot,,90506,001,2022-04-29_11h50.59.469,SPAMnetsValid,2021.1.4,MacIntel,62.5,,,,,,,,,,,,,8,2.803,0,20,20,39,1,,,,,,,,,,,,,,,,,,,,,,,,,,,,,,,,,,,,,,,,,,,,,,,,,,,,,,,,,,,,,,,,,,,,,,
,,,,4,2.426,,,,,,180,tree,yogurt,,90506,001,2022-04-29_11h50.59.469,SPAMnetsValid,2021.1.4,MacIntel,62.5,,,,,,,,,,,,,4,2.426,0,21,21,68,1,,,,,,,,,,,,,,,,,,,,,,,,,,,,,,,,,,,,,,,,,,,,,,,,,,,,,,,,,,,,,,,,,,,,,,
,,,,3,4.608,,,,,,182,flower,refrigerator,,90506,001,2022-04-29_11h50.59.469,SPAMnetsValid,2021.1.4,MacIntel,62.5,,,,,,,,,,,,,3,4.608,0,22,22,32,1,,,,,,,,,,,,,,,,,,,,,,,,,,,,,,,,,,,,,,,,,,,,,,,,,,,,,,,,,,,,,,,,,,,,,,
,,,,3,2.399,,,,,,179,broom,oven,,90506,001,2022-04-29_11h50.59.469,SPAMnetsValid,2021.1.4,MacIntel,62.5,,,,,,,,,,,,,3,2.399,0,23,23,45,1,,,,,,,,,,,,,,,,,,,,,,,,,,,,,,,,,,,,,,,,,,,,,,,,,,,,,,,,,,,,,,,,,,,,,,
,,,,6,1.594,,,,,,158,cookie,oven,,90506,001,2022-04-29_11h50.59.469,SPAMnetsValid,2021.1.4,MacIntel,62.5,,,,,,,,,,,,,6,1.594,0,24,24,27,1,,,,,,,,,,,,,,,,,,,,,,,,,,,,,,,,,,,,,,,,,,,,,,,,,,,,,,,,,,,,,,,,,,,,,,
,,,,3,2.758,,,,,,103,pretzel,tomato,,90506,001,2022-04-29_11h50.59.469,SPAMnetsValid,2021.1.4,MacIntel,62.5,,,,,,,,,,,,,3,2.758,0,25,25,79,1,,,,,,,,,,,,,,,,,,,,,,,,,,,,,,,,,,,,,,,,,,,,,,,,,,,,,,,,,,,,,,,,,,,,,,
,,,,3,2.064,,,,,,137,microwave,tree,,90506,001,2022-04-29_11h50.59.469,SPAMnetsValid,2021.1.4,MacIntel,62.5,,,,,,,,,,,,,3,2.064,0,26,26,63,1,,,,,,,,,,,,,,,,,,,,,,,,,,,,,,,,,,,,,,,,,,,,,,,,,,,,,,,,,,,,,,,,,,,,,,
,,,,5,51.981,,,,,,173,kitchen,tomato,,90506,001,2022-04-29_11h50.59.469,SPAMnetsValid,2021.1.4,MacIntel,62.5,,,,,,,,,,,,,5,51.981,0,27,27,1,1,,,,,,,,,,,,,,,,,,,,,,,,,,,,,,,,,,,,,,,,,,,,,,,,,,,,,,,,,,,,,,,,,,,,,,
,,,,4,15.967,,,,,,164,cookie,garden,,90506,001,2022-04-29_11h50.59.469,SPAMnetsValid,2021.1.4,MacIntel,62.5,,,,,,,,,,,,,4,15.967,0,28,28,59,1,,,,,,,,,,,,,,,,,,,,,,,,,,,,,,,,,,,,,,,,,,,,,,,,,,,,,,,,,,,,,,,,,,,,,,
,,,,5,3.08,,,,,,163,melon,refrigerator,,90506,001,2022-04-29_11h50.59.469,SPAMnetsValid,2021.1.4,MacIntel,62.5,,,,,,,,,,,,,5,3.08,0,29,29,29,1,,,,,,,,,,,,,,,,,,,,,,,,,,,,,,,,,,,,,,,,,,,,,,,,,,,,,,,,,,,,,,,,,,,,,,
,,,,3,15.402,,,,,,111,carrot,microwave,,90506,001,2022-04-29_11h50.59.469,SPAMnetsValid,2021.1.4,MacIntel,62.5,,,,,,,,,,,,,3,15.402,0,30,30,16,1,,,,,,,,,,,,,,,,,,,,,,,,,,,,,,,,,,,,,,,,,,,,,,,,,,,,,,,,,,,,,,,,,,,,,,
,,,,3,1.55,,,,,,104,garden,microwave,,90506,001,2022-04-29_11h50.59.469,SPAMnetsValid,2021.1.4,MacIntel,62.5,,,,,,,,,,,,,3,1.55,0,31,31,81,1,,,,,,,,,,,,,,,,,,,,,,,,,,,,,,,,,,,,,,,,,,,,,,,,,,,,,,,,,,,,,,,,,,,,,,
,,,,5,2.004,,,,,,139,carrot,strawberry,,90506,001,2022-04-29_11h50.59.469,SPAMnetsValid,2021.1.4,MacIntel,62.5,,,,,,,,,,,,,5,2.004,0,32,32,37,1,,,,,,,,,,,,,,,,,,,,,,,,,,,,,,,,,,,,,,,,,,,,,,,,,,,,,,,,,,,,,,,,,,,,,,
,,,,4,1.885,,,,,,166,cake,yogurt,,90506,001,2022-04-29_11h50.59.469,SPAMnetsValid,2021.1.4,MacIntel,62.5,,,,,,,,,,,,,4,1.885,0,33,33,91,1,,,,,,,,,,,,,,,,,,,,,,,,,,,,,,,,,,,,,,,,,,,,,,,,,,,,,,,,,,,,,,,,,,,,,,
,,,,5,1.647,,,,,,181,carrot,kitchen,,90506,001,2022-04-29_11h50.59.469,SPAMnetsValid,2021.1.4,MacIntel,62.5,,,,,,,,,,,,,5,1.647,0,34,34,72,1,,,,,,,,,,,,,,,,,,,,,,,,,,,,,,,,,,,,,,,,,,,,,,,,,,,,,,,,,,,,,,,,,,,,,,
,,,,7,1.961,,,,,,100,garden,tomato,,90506,001,2022-04-29_11h50.59.469,SPAMnetsValid,2021.1.4,MacIntel,62.5,,,,,,,,,,,,,7,1.961,0,35,35,83,1,,,,,,,,,,,,,,,,,,,,,,,,,,,,,,,,,,,,,,,,,,,,,,,,,,,,,,,,,,,,,,,,,,,,,,
,,,,4,2.211,,,,,,183,cake,rose,,90506,001,2022-04-29_11h50.59.469,SPAMnetsValid,2021.1.4,MacIntel,62.5,,,,,,,,,,,,,4,2.211,0,36,36,19,1,,,,,,,,,,,,,,,,,,,,,,,,,,,,,,,,,,,,,,,,,,,,,,,,,,,,,,,,,,,,,,,,,,,,,,
,,,,4,10.896,,,,,,151,microwave,onion,,90506,001,2022-04-29_11h50.59.469,SPAMnetsValid,2021.1.4,MacIntel,62.5,,,,,,,,,,,,,4,10.896,0,37,37,6,1,,,,,,,,,,,,,,,,,,,,,,,,,,,,,,,,,,,,,,,,,,,,,,,,,,,,,,,,,,,,,,,,,,,,,,
,,,,4,2.221,,,,,,127,cactus,chocolate,,90506,001,2022-04-29_11h50.59.469,SPAMnetsValid,2021.1.4,MacIntel,62.5,,,,,,,,,,,,,4,2.221,0,38,38,57,1,,,,,,,,,,,,,,,,,,,,,,,,,,,,,,,,,,,,,,,,,,,,,,,,,,,,,,,,,,,,,,,,,,,,,,
,,,,8,1.659,,,,,,110,chocolate,cookie,,90506,001,2022-04-29_11h50.59.469,SPAMnetsValid,2021.1.4,MacIntel,62.5,,,,,,,,,,,,,8,1.659,0,39,39,52,1,,,,,,,,,,,,,,,,,,,,,,,,,,,,,,,,,,,,,,,,,,,,,,,,,,,,,,,,,,,,,,,,,,,,,,
,,,,3,26.634,,,,,,145,cactus,yogurt,,90506,001,2022-04-29_11h50.59.469,SPAMnetsValid,2021.1.4,MacIntel,62.5,,,,,,,,,,,,,3,26.634,0,40,40,15,1,,,,,,,,,,,,,,,,,,,,,,,,,,,,,,,,,,,,,,,,,,,,,,,,,,,,,,,,,,,,,,,,,,,,,,
,,,,4,3.315,,,,,,133,cake,flower,,90506,001,2022-04-29_11h50.59.469,SPAMnetsValid,2021.1.4,MacIntel,62.5,,,,,,,,,,,,,4,3.315,0,41,41,94,1,,,,,,,,,,,,,,,,,,,,,,,,,,,,,,,,,,,,,,,,,,,,,,,,,,,,,,,,,,,,,,,,,,,,,,
,,,,3,1.522,,,,,,149,broom,tomato,,90506,001,2022-04-29_11h50.59.469,SPAMnetsValid,2021.1.4,MacIntel,62.5,,,,,,,,,,,,,3,1.522,0,42,42,20,1,,,,,,,,,,,,,,,,,,,,,,,,,,,,,,,,,,,,,,,,,,,,,,,,,,,,,,,,,,,,,,,,,,,,,,
,,,,3,1.451,,,,,,190,microwave,strawberry,,90506,001,2022-04-29_11h50.59.469,SPAMnetsValid,2021.1.4,MacIntel,62.5,,,,,,,,,,,,,3,1.451,0,43,43,90,1,,,,,,,,,,,,,,,,,,,,,,,,,,,,,,,,,,,,,,,,,,,,,,,,,,,,,,,,,,,,,,,,,,,,,,
,,,,5,2.627,,,,,,185,cactus,rose,,90506,001,2022-04-29_11h50.59.469,SPAMnetsValid,2021.1.4,MacIntel,62.5,,,,,,,,,,,,,5,2.627,0,44,44,43,1,,,,,,,,,,,,,,,,,,,,,,,,,,,,,,,,,,,,,,,,,,,,,,,,,,,,,,,,,,,,,,,,,,,,,,
,,,,6,2.243,,,,,,168,cactus,flower,,90506,001,2022-04-29_11h50.59.469,SPAMnetsValid,2021.1.4,MacIntel,62.5,,,,,,,,,,,,,6,2.243,0,45,45,51,1,,,,,,,,,,,,,,,,,,,,,,,,,,,,,,,,,,,,,,,,,,,,,,,,,,,,,,,,,,,,,,,,,,,,,,
,,,,8,2.55,,,,,,116,cake,chocolate,,90506,001,2022-04-29_11h50.59.469,SPAMnetsValid,2021.1.4,MacIntel,62.5,,,,,,,,,,,,,8,2.55,0,46,46,44,1,,,,,,,,,,,,,,,,,,,,,,,,,,,,,,,,,,,,,,,,,,,,,,,,,,,,,,,,,,,,,,,,,,,,,,
,,,,8,1.747,,,,,,106,cake,strawberry,,90506,001,2022-04-29_11h50.59.469,SPAMnetsValid,2021.1.4,MacIntel,62.5,,,,,,,,,,,,,8,1.747,0,47,47,0,1,,,,,,,,,,,,,,,,,,,,,,,,,,,,,,,,,,,,,,,,,,,,,,,,,,,,,,,,,,,,,,,,,,,,,,
,,,,4,2.889,,,,,,189,onion,tree,,90506,001,2022-04-29_11h50.59.469,SPAMnetsValid,2021.1.4,MacIntel,62.5,,,,,,,,,,,,,4,2.889,0,48,48,62,1,,,,,,,,,,,,,,,,,,,,,,,,,,,,,,,,,,,,,,,,,,,,,,,,,,,,,,,,,,,,,,,,,,,,,,
,,,,2,1.545,,,,,,143,pretzel,rose,,90506,001,2022-04-29_11h50.59.469,SPAMnetsValid,2021.1.4,MacIntel,62.5,,,,,,,,,,,,,2,1.545,0,49,49,55,1,,,,,,,,,,,,,,,,,,,,,,,,,,,,,,,,,,,,,,,,,,,,,,,,,,,,,,,,,,,,,,,,,,,,,,
,,,,6,1.836,,,,,,167,carrot,garden,,90506,001,2022-04-29_11h50.59.469,SPAMnetsValid,2021.1.4,MacIntel,62.5,,,,,,,,,,,,,6,1.836,0,50,50,47,1,,,,,,,,,,,,,,,,,,,,,,,,,,,,,,,,,,,,,,,,,,,,,,,,,,,,,,,,,,,,,,,,,,,,,,
,,,,4,1.703,,,,,,123,cookie,tree,,90506,001,2022-04-29_11h50.59.469,SPAMnetsValid,2021.1.4,MacIntel,62.5,,,,,,,,,,,,,4,1.703,0,51,51,46,1,,,,,,,,,,,,,,,,,,,,,,,,,,,,,,,,,,,,,,,,,,,,,,,,,,,,,,,,,,,,,,,,,,,,,,
,,,,2,3.62,,,,,,121,broom,microwave,,90506,001,2022-04-29_11h50.59.469,SPAMnetsValid,2021.1.4,MacIntel,62.5,,,,,,,,,,,,,2,3.62,0,52,52,95,1,,,,,,,,,,,,,,,,,,,,,,,,,,,,,,,,,,,,,,,,,,,,,,,,,,,,,,,,,,,,,,,,,,,,,,
,,,,8,2.633,,,,,,138,flower,rose,,90506,001,2022-04-29_11h50.59.469,SPAMnetsValid,2021.1.4,MacIntel,62.5,,,,,,,,,,,,,8,2.633,0,53,53,61,1,,,,,,,,,,,,,,,,,,,,,,,,,,,,,,,,,,,,,,,,,,,,,,,,,,,,,,,,,,,,,,,,,,,,,,
,,,,5,2.172,,,,,,136,chocolate,microwave,,90506,001,2022-04-29_11h50.59.469,SPAMnetsValid,2021.1.4,MacIntel,62.5,,,,,,,,,,,,,5,2.172,0,54,54,96,1,,,,,,,,,,,,,,,,,,,,,,,,,,,,,,,,,,,,,,,,,,,,,,,,,,,,,,,,,,,,,,,,,,,,,,
,,,,4,1.119,,,,,,187,cactus,microwave,,90506,001,2022-04-29_11h50.59.469,SPAMnetsValid,2021.1.4,MacIntel,62.5,,,,,,,,,,,,,4,1.119,0,55,55,71,1,,,,,,,,,,,,,,,,,,,,,,,,,,,,,,,,,,,,,,,,,,,,,,,,,,,,,,,,,,,,,,,,,,,,,,
,,,,5,2.376,,,,,,175,melon,onion,,90506,001,2022-04-29_11h50.59.469,SPAMnetsValid,2021.1.4,MacIntel,62.5,,,,,,,,,,,,,5,2.376,0,56,56,41,1,,,,,,,,,,,,,,,,,,,,,,,,,,,,,,,,,,,,,,,,,,,,,,,,,,,,,,,,,,,,,,,,,,,,,,
,,,,7,1.769,,,,,,154,strawberry,yogurt,,90506,001,2022-04-29_11h50.59.469,SPAMnetsValid,2021.1.4,MacIntel,62.5,,,,,,,,,,,,,7,1.769,0,57,57,28,1,,,,,,,,,,,,,,,,,,,,,,,,,,,,,,,,,,,,,,,,,,,,,,,,,,,,,,,,,,,,,,,,,,,,,,
,,,,7,1.958,,,,,,142,garden,tree,,90506,001,2022-04-29_11h50.59.469,SPAMnetsValid,2021.1.4,MacIntel,62.5,,,,,,,,,,,,,7,1.958,0,58,58,22,1,,,,,,,,,,,,,,,,,,,,,,,,,,,,,,,,,,,,,,,,,,,,,,,,,,,,,,,,,,,,,,,,,,,,,,
,,,,5,4.102,,,,,,184,oven,pretzel,,90506,001,2022-04-29_11h50.59.469,SPAMnetsValid,2021.1.4,MacIntel,62.5,,,,,,,,,,,,,5,4.102,0,59,59,42,1,,,,,,,,,,,,,,,,,,,,,,,,,,,,,,,,,,,,,,,,,,,,,,,,,,,,,,,,,,,,,,,,,,,,,,
,,,,3,4.465,,,,,,159,cookie,flower,,90506,001,2022-04-29_11h50.59.469,SPAMnetsValid,2021.1.4,MacIntel,62.5,,,,,,,,,,,,,3,4.465,0,60,60,21,1,,,,,,,,,,,,,,,,,,,,,,,,,,,,,,,,,,,,,,,,,,,,,,,,,,,,,,,,,,,,,,,,,,,,,,
,,,,4,1.433,,,,,,135,carrot,oven,,90506,001,2022-04-29_11h50.59.469,SPAMnetsValid,2021.1.4,MacIntel,62.5,,,,,,,,,,,,,4,1.433,0,61,61,73,1,,,,,,,,,,,,,,,,,,,,,,,,,,,,,,,,,,,,,,,,,,,,,,,,,,,,,,,,,,,,,,,,,,,,,,
,,,,4,2.995,,,,,,125,carrot,tree,,90506,001,2022-04-29_11h50.59.469,SPAMnetsValid,2021.1.4,MacIntel,62.5,,,,,,,,,,,,,4,2.995,0,62,62,30,1,,,,,,,,,,,,,,,,,,,,,,,,,,,,,,,,,,,,,,,,,,,,,,,,,,,,,,,,,,,,,,,,,,,,,,
,,,,4,2.46,,,,,,156,melon,rose,,90506,001,2022-04-29_11h50.59.469,SPAMnetsValid,2021.1.4,MacIntel,62.5,,,,,,,,,,,,,4,2.46,0,63,63,31,1,,,,,,,,,,,,,,,,,,,,,,,,,,,,,,,,,,,,,,,,,,,,,,,,,,,,,,,,,,,,,,,,,,,,,,
,,,,5,6.248,,,,,,131,cactus,garden,,90506,001,2022-04-29_11h50.59.469,SPAMnetsValid,2021.1.4,MacIntel,62.5,,,,,,,,,,,,,5,6.248,0,64,64,33,1,,,,,,,,,,,,,,,,,,,,,,,,,,,,,,,,,,,,,,,,,,,,,,,,,,,,,,,,,,,,,,,,,,,,,,
,,,,6,1.534,,,,,,188,flower,tree,,90506,001,2022-04-29_11h50.59.469,SPAMnetsValid,2021.1.4,MacIntel,62.5,,,,,,,,,,,,,6,1.534,0,65,65,7,1,,,,,,,,,,,,,,,,,,,,,,,,,,,,,,,,,,,,,,,,,,,,,,,,,,,,,,,,,,,,,,,,,,,,,,
,,,,9,1.644,,,,,,193,melon,melon,CHECK,90506,001,2022-04-29_11h50.59.469,SPAMnetsValid,2021.1.4,MacIntel,62.5,,,,,,,,,,,,,9,1.644,0,66,66,86,1,,,,,,,,,,,,,,,,,,,,,,,,,,,,,,,,,,,,,,,,,,,,,,,,,,,,,,,,,,,,,,,,,,,,,,
,,,,8,1.81,,,,,,150,microwave,refrigerator,,90506,001,2022-04-29_11h50.59.469,SPAMnetsValid,2021.1.4,MacIntel,62.5,,,,,,,,,,,,,8,1.81,0,67,67,66,1,,,,,,,,,,,,,,,,,,,,,,,,,,,,,,,,,,,,,,,,,,,,,,,,,,,,,,,,,,,,,,,,,,,,,,
,,,,6,2.597,,,,,,148,flower,melon,,90506,001,2022-04-29_11h50.59.469,SPAMnetsValid,2021.1.4,MacIntel,62.5,,,,,,,,,,,,,6,2.597,0,68,68,23,1,,,,,,,,,,,,,,,,,,,,,,,,,,,,,,,,,,,,,,,,,,,,,,,,,,,,,,,,,,,,,,,,,,,,,,
,,,,8,1.603,,,,,,177,chocolate,strawberry,,90506,001,2022-04-29_11h50.59.469,SPAMnetsValid,2021.1.4,MacIntel,62.5,,,,,,,,,,,,,8,1.603,0,69,69,53,1,,,,,,,,,,,,,,,,,,,,,,,,,,,,,,,,,,,,,,,,,,,,,,,,,,,,,,,,,,,,,,,,,,,,,,
,,,,4,1.72,,,,,,152,cactus,strawberry,,90506,001,2022-04-29_11h50.59.469,SPAMnetsValid,2021.1.4,MacIntel,62.5,,,,,,,,,,,,,4,1.72,0,70,70,49,1,,,,,,,,,,,,,,,,,,,,,,,,,,,,,,,,,,,,,,,,,,,,,,,,,,,,,,,,,,,,,,,,,,,,,,
,,,,5,2.084,,,,,,160,cookie,kitchen,,90506,001,2022-04-29_11h50.59.469,SPAMnetsValid,2021.1.4,MacIntel,62.5,,,,,,,,,,,,,5,2.084,0,71,71,65,1,,,,,,,,,,,,,,,,,,,,,,,,,,,,,,,,,,,,,,,,,,,,,,,,,,,,,,,,,,,,,,,,,,,,,,
,,,,5,1.625,,,,,,170,cookie,microwave,,90506,001,2022-04-29_11h50.59.469,SPAMnetsValid,2021.1.4,MacIntel,62.5,,,,,,,,,,,,,5,1.625,0,72,72,92,1,,,,,,,,,,,,,,,,,,,,,,,,,,,,,,,,,,,,,,,,,,,,,,,,,,,,,,,,,,,,,,,,,,,,,,
,,,,9,1.472,,,,,,194,cactus,cactus,CHECK,90506,001,2022-04-29_11h50.59.469,SPAMnetsValid,2021.1.4,MacIntel,62.5,,,,,,,,,,,,,9,1.472,0,73,73,25,1,,,,,,,,,,,,,,,,,,,,,,,,,,,,,,,,,,,,,,,,,,,,,,,,,,,,,,,,,,,,,,,,,,,,,,
,,,,8,3.86,,,,,,124,oven,refrigerator,,90506,001,2022-04-29_11h50.59.469,SPAMnetsValid,2021.1.4,MacIntel,62.5,,,,,,,,,,,,,8,3.86,0,74,74,69,1,,,,,,,,,,,,,,,,,,,,,,,,,,,,,,,,,,,,,,,,,,,,,,,,,,,,,,,,,,,,,,,,,,,,,,
,,,,3,1.783,,,,,,157,refrigerator,rose,,90506,001,2022-04-29_11h50.59.469,SPAMnetsValid,2021.1.4,MacIntel,62.5,,,,,,,,,,,,,3,1.783,0,75,75,64,1,,,,,,,,,,,,,,,,,,,,,,,,,,,,,,,,,,,,,,,,,,,,,,,,,,,,,,,,,,,,,,,,,,,,,,
,,,,6,1.439,,,,,,102,chocolate,refrigerator,,90506,001,2022-04-29_11h50.59.469,SPAMnetsValid,2021.1.4,MacIntel,62.5,,,,,,,,,,,,,6,1.439,0,76,76,76,1,,,,,,,,,,,,,,,,,,,,,,,,,,,,,,,,,,,,,,,,,,,,,,,,,,,,,,,,,,,,,,,,,,,,,,
,,,,4,2.361,,,,,,96,oven,strawberry,,90506,001,2022-04-29_11h50.59.469,SPAMnetsValid,2021.1.4,MacIntel,62.5,,,,,,,,,,,,,4,2.361,0,77,77,67,1,,,,,,,,,,,,,,,,,,,,,,,,,,,,,,,,,,,,,,,,,,,,,,,,,,,,,,,,,,,,,,,,,,,,,,
,,,,3,1.858,,,,,,128,melon,microwave,,90506,001,2022-04-29_11h50.59.469,SPAMnetsValid,2021.1.4,MacIntel,62.5,,,,,,,,,,,,,3,1.858,0,78,78,74,1,,,,,,,,,,,,,,,,,,,,,,,,,,,,,,,,,,,,,,,,,,,,,,,,,,,,,,,,,,,,,,,,,,,,,,
,,,,3,3.723,,,,,,171,cake,tomato,,90506,001,2022-04-29_11h50.59.469,SPAMnetsValid,2021.1.4,MacIntel,62.5,,,,,,,,,,,,,3,3.723,0,79,79,88,1,,,,,,,,,,,,,,,,,,,,,,,,,,,,,,,,,,,,,,,,,,,,,,,,,,,,,,,,,,,,,,,,,,,,,,
,,,,3,1.242,,,,,,108,carrot,chocolate,,90506,001,2022-04-29_11h50.59.469,SPAMnetsValid,2021.1.4,MacIntel,62.5,,,,,,,,,,,,,3,1.242,0,80,80,5,1,,,,,,,,,,,,,,,,,,,,,,,,,,,,,,,,,,,,,,,,,,,,,,,,,,,,,,,,,,,,,,,,,,,,,,
,,,,7,1.808,,,,,,120,microwave,oven,,90506,001,2022-04-29_11h50.59.469,SPAMnetsValid,2021.1.4,MacIntel,62.5,,,,,,,,,,,,,7,1.808,0,81,81,14,1,,,,,,,,,,,,,,,,,,,,,,,,,,,,,,,,,,,,,,,,,,,,,,,,,,,,,,,,,,,,,,,,,,,,,,
,,,,4,3.437,,,,,,144,cake,garden,,90506,001,2022-04-29_11h50.59.469,SPAMnetsValid,2021.1.4,MacIntel,62.5,,,,,,,,,,,,,4,3.437,0,82,82,58,1,,,,,,,,,,,,,,,,,,,,,,,,,,,,,,,,,,,,,,,,,,,,,,,,,,,,,,,,,,,,,,,,,,,,,,
,,,,2,2.853,,,,,,109,broom,strawberry,,90506,001,2022-04-29_11h50.59.469,SPAMnetsValid,2021.1.4,MacIntel,62.5,,,,,,,,,,,,,2,2.853,0,83,83,4,1,,,,,,,,,,,,,,,,,,,,,,,,,,,,,,,,,,,,,,,,,,,,,,,,,,,,,,,,,,,,,,,,,,,,,,
,,,,3,3.779,,,,,,130,microwave,yogurt,,90506,001,2022-04-29_11h50.59.469,SPAMnetsValid,2021.1.4,MacIntel,62.5,,,,,,,,,,,,,3,3.779,0,84,84,84,1,,,,,,,,,,,,,,,,,,,,,,,,,,,,,,,,,,,,,,,,,,,,,,,,,,,,,,,,,,,,,,,,,,,,,,
,,,,5,3.097,,,,,,107,rose,tomato,,90506,001,2022-04-29_11h50.59.469,SPAMnetsValid,2021.1.4,MacIntel,62.5,,,,,,,,,,,,,5,3.097,0,85,85,26,1,,,,,,,,,,,,,,,,,,,,,,,,,,,,,,,,,,,,,,,,,,,,,,,,,,,,,,,,,,,,,,,,,,,,,,
,,,,5,2.895,,,,,,186,kitchen,yogurt,,90506,001,2022-04-29_11h50.59.469,SPAMnetsValid,2021.1.4,MacIntel,62.5,,,,,,,,,,,,,5,2.895,0,86,86,48,1,,,,,,,,,,,,,,,,,,,,,,,,,,,,,,,,,,,,,,,,,,,,,,,,,,,,,,,,,,,,,,,,,,,,,,
,,,,4,1.795,,,,,,132,broom,tree,,90506,001,2022-04-29_11h50.59.469,SPAMnetsValid,2021.1.4,MacIntel,62.5,,,,,,,,,,,,,4,1.795,0,87,87,78,1,,,,,,,,,,,,,,,,,,,,,,,,,,,,,,,,,,,,,,,,,,,,,,,,,,,,,,,,,,,,,,,,,,,,,,
,,,,3,2.637,,,,,,98,pretzel,strawberry,,90506,001,2022-04-29_11h50.59.469,SPAMnetsValid,2021.1.4,MacIntel,62.5,,,,,,,,,,,,,3,2.637,0,88,88,82,1,,,,,,,,,,,,,,,,,,,,,,,,,,,,,,,,,,,,,,,,,,,,,,,,,,,,,,,,,,,,,,,,,,,,,,
,,,,6,1.781,,,,,,140,cookie,refrigerator,,90506,001,2022-04-29_11h50.59.469,SPAMnetsValid,2021.1.4,MacIntel,62.5,,,,,,,,,,,,,6,1.781,0,89,89,89,1,,,,,,,,,,,,,,,,,,,,,,,,,,,,,,,,,,,,,,,,,,,,,,,,,,,,,,,,,,,,,,,,,,,,,,
,,,,3,1.5,,,,,,146,pretzel,tree,,90506,001,2022-04-29_11h50.59.469,SPAMnetsValid,2021.1.4,MacIntel,62.5,,,,,,,,,,,,,3,1.5,0,90,90,80,1,,,,,,,,,,,,,,,,,,,,,,,,,,,,,,,,,,,,,,,,,,,,,,,,,,,,,,,,,,,,,,,,,,,,,,
,,,,4,1.856,,,,,,178,cactus,carrot,,90506,001,2022-04-29_11h50.59.469,SPAMnetsValid,2021.1.4,MacIntel,62.5,,,,,,,,,,,,,4,1.856,0,91,91,75,1,,,,,,,,,,,,,,,,,,,,,,,,,,,,,,,,,,,,,,,,,,,,,,,,,,,,,,,,,,,,,,,,,,,,,,
,,,,3,2.262,,,,,,105,cactus,oven,,90506,001,2022-04-29_11h50.59.469,SPAMnetsValid,2021.1.4,MacIntel,62.5,,,,,,,,,,,,,3,2.262,0,92,92,13,1,,,,,,,,,,,,,,,,,,,,,,,,,,,,,,,,,,,,,,,,,,,,,,,,,,,,,,,,,,,,,,,,,,,,,,
,,,,8,1.69,,,,,,122,flower,garden,,90506,001,2022-04-29_11h50.59.469,SPAMnetsValid,2021.1.4,MacIntel,62.5,,,,,,,,,,,,,8,1.69,0,93,93,60,1,,,,,,,,,,,,,,,,,,,,,,,,,,,,,,,,,,,,,,,,,,,,,,,,,,,,,,,,,,,,,,,,,,,,,,
,,,,5,1.909,,,,,,172,kitchen,melon,,90506,001,2022-04-29_11h50.59.469,SPAMnetsValid,2021.1.4,MacIntel,62.5,,,,,,,,,,,,,5,1.909,0,94,94,77,1,,,,,,,,,,,,,,,,,,,,,,,,,,,,,,,,,,,,,,,,,,,,,,,,,,,,,,,,,,,,,,,,,,,,,,
,,,,3,1.632,,,,,,174,cake,pretzel,,90506,001,2022-04-29_11h50.59.469,SPAMnetsValid,2021.1.4,MacIntel,62.5,,,,,,,,,,,,,3,1.632,0,95,95,2,1,,,,,,,,,,,,,,,,,,,,,,,,,,,,,,,,,,,,,,,,,,,,,,,,,,,,,,,,,,,,,,,,,,,,,,
,,,,3,1.529,,,,,,115,refrigerator,tomato,,90506,001,2022-04-29_11h50.59.469,SPAMnetsValid,2021.1.4,MacIntel,62.5,,,,,,,,,,,,,3,1.529,0,96,96,85,1,,,,,,,,,,,,,,,,,,,,,,,,,,,,,,,,,,,,,,,,,,,,,,,,,,,,,,,,,,,,,,,,,,,,,,
,,,,,,,,,,,,,,,90506,001,2022-04-29_11h50.59.469,SPAMnetsValid,2021.1.4,MacIntel,62.5,,,,,,,,,,,,,,,,,,,,0,0,0,0,1,,,,,,,,,,,,,,,,,,,,,,,,,,,,,,,,,,,,,,,,,,,,,,,,,,,,,,,,,,,,,,,,,
,,,,,,,,,,,,,,,90506,001,2022-04-29_11h50.59.469,SPAMnetsValid,2021.1.4,MacIntel,62.5,,,,,,0,1,1,1,1,0,1,,,,,,,,,,,,,,,,,,,,,,,,,,,,,,,,,,,,,,,,,,,,,,,,,,,,,,,,,,,,,,,,,,,,,,,,,,,,,
,,,,,,,,,,,,,,,90506,001,2022-04-29_11h50.59.469,SPAMnetsValid,2021.1.4,MacIntel,62.5,,,,,,,,,,,,,,,,,,,,,,,,,4,6.97,0,0,0,0,1,rancor,forbearance,ridicule,malice,bravery,3,,,,,,,,,,,,,,,,,,,,,,,,,,,,,,,,,,,,,,,,,,,,,,,,,,,,
,,,,,,,,,,,,,,,90506,001,2022-04-29_11h50.59.469,SPAMnetsValid,2021.1.4,MacIntel,62.5,,,,,,,,,,,,,,,,,,,,,,,,,4,2.986,0,1,1,1,1,raucous,empty,quiet,smooth,harsh,4,,,,,,,,,,,,,,,,,,,,,,,,,,,,,,,,,,,,,,,,,,,,,,,,,,,,
,,,,,,,,,,,,,,,90506,001,2022-04-29_11h50.59.469,SPAMnetsValid,2021.1.4,MacIntel,62.5,,,,,,,,,,,,,,,,,,,,,,,,,4,6.085,0,2,2,2,1,gargoyle,oil,medicine,carved waterspout,ugly building,3,,,,,,,,,,,,,,,,,,,,,,,,,,,,,,,,,,,,,,,,,,,,,,,,,,,,
,,,,,,,,,,,,,,,90506,001,2022-04-29_11h50.59.469,SPAMnetsValid,2021.1.4,MacIntel,62.5,,,,,,,,,,,,,,,,,,,,,,,,,4,5.812,0,3,3,3,1,recrudesce,purify,renew activity,lack refinement,crush,2,,,,,,,,,,,,,,,,,,,,,,,,,,,,,,,,,,,,,,,,,,,,,,,,,,,,
,,,,,,,,,,,,,,,90506,001,2022-04-29_11h50.59.469,SPAMnetsValid,2021.1.4,MacIntel,62.5,,,,,,,,,,,,,,,,,,,,,,,,,2,5.567,0,4,4,4,1,specious,"plausible, but not genuine",noteworthy,class or variety,roomy,1,,,,,,,,,,,,,,,,,,,,,,,,,,,,,,,,,,,,,,,,,,,,,,,,,,,,
,,,,,,,,,,,,,,,90506,001,2022-04-29_11h50.59.469,SPAMnetsValid,2021.1.4,MacIntel,62.5,,,,,,,,,,,,,,,,,,,,,,,,,4,3.88,0,5,5,5,1,bauble,bubble,showy plaything,idle talk,confusion,2,,,,,,,,,,,,,,,,,,,,,,,,,,,,,,,,,,,,,,,,,,,,,,,,,,,,
,,,,,,,,,,,,,,,90506,001,2022-04-29_11h50.59.469,SPAMnetsValid,2021.1.4,MacIntel,62.5,,,,,,,,,,,,,,,,,,,,,,,,,4,6.802,0,6,6,6,1,prolific,scarce,producing abundantly,reckless,speaking profanely,2,,,,,,,,,,,,,,,,,,,,,,,,,,,,,,,,,,,,,,,,,,,,,,,,,,,,
,,,,,,,,,,,,,,,90506,001,2022-04-29_11h50.59.469,SPAMnetsValid,2021.1.4,MacIntel,62.5,,,,,,,,,,,,,,,,,,,,,,,,,2,7.17,0,7,7,7,1,opulent,party,wealthy,happy frame of mind,semiprecious stone,2,,,,,,,,,,,,,,,,,,,,,,,,,,,,,,,,,,,,,,,,,,,,,,,,,,,,
,,,,,,,,,,,,,,,90506,001,2022-04-29_11h50.59.469,SPAMnetsValid,2021.1.4,MacIntel,62.5,,,,,,,,,,,,,,,,,,,,,,,,,4,5.595,0,8,8,8,1,coercion,conspiracy,strategy,restraint,attraction,3,,,,,,,,,,,,,,,,,,,,,,,,,,,,,,,,,,,,,,,,,,,,,,,,,,,,
,,,,,,,,,,,,,,,90506,001,2022-04-29_11h50.59.469,SPAMnetsValid,2021.1.4,MacIntel,62.5,,,,,,,,,,,,,,,,,,,,,,,,,4,4.728,0,9,9,9,1,hiatus,animal,calamity,dread,gap,4,,,,,,,,,,,,,,,,,,,,,,,,,,,,,,,,,,,,,,,,,,,,,,,,,,,,
,,,,,,,,,,,,,,,90506,001,2022-04-29_11h50.59.469,SPAMnetsValid,2021.1.4,MacIntel,62.5,,,,,,,,,,,,,,,,,,,,,,,,,2,9.264,0,10,10,10,1,germane,microbe,contagious,relevant,different,3,,,,,,,,,,,,,,,,,,,,,,,,,,,,,,,,,,,,,,,,,,,,,,,,,,,,
,,,,,,,,,,,,,,,90506,001,2022-04-29_11h50.59.469,SPAMnetsValid,2021.1.4,MacIntel,62.5,,,,,,,,,,,,,,,,,,,,,,,,,3,6.418,0,11,11,11,1,perfunctory,fundamental,formal,superficial,careful,3,,,,,,,,,,,,,,,,,,,,,,,,,,,,,,,,,,,,,,,,,,,,,,,,,,,,
,,,,,,,,,,,,,,,90506,001,2022-04-29_11h50.59.469,SPAMnetsValid,2021.1.4,MacIntel,62.5,,,,,,,,,,,,,,,,,,,,,,,,,4,6.937,0,12,12,12,1,diverge,reveal,chant,distract the attention of,differ or turn off from,4,,,,,,,,,,,,,,,,,,,,,,,,,,,,,,,,,,,,,,,,,,,,,,,,,,,,
,,,,,,,,,,,,,,,90506,001,2022-04-29_11h50.59.469,SPAMnetsValid,2021.1.4,MacIntel,62.5,,,,,,,,,,,,,,,,,,,,,,,,,4,2.461,0,13,13,13,1,evoke,take away,anger,connect,bring out,4,,,,,,,,,,,,,,,,,,,,,,,,,,,,,,,,,,,,,,,,,,,,,,,,,,,,
,,,,,,,,,,,,,,,90506,001,2022-04-29_11h50.59.469,SPAMnetsValid,2021.1.4,MacIntel,62.5,,,,,,,,,,,,,,,,,,,,,,,,,1,3.301,0,14,14,14,1,pertinent,relevant,lying next to,necessary,bold,1,,,,,,,,,,,,,,,,,,,,,,,,,,,,,,,,,,,,,,,,,,,,,,,,,,,,
,,,,,,,,,,,,,,,90506,001,2022-04-29_11h50.59.469,SPAMnetsValid,2021.1.4,MacIntel,62.5,,,,,,,,,,,,,,,,,,,,,,,,,2,6.332,0,15,15,15,1,holocaust,entirety,destruction,saintly,price,2,,,,,,,,,,,,,,,,,,,,,,,,,,,,,,,,,,,,,,,,,,,,,,,,,,,,
,,,,,,,,,,,,,,,90506,001,2022-04-29_11h50.59.469,SPAMnetsValid,2021.1.4,MacIntel,62.5,,,,,,,,,,,,,,,,,,,,,,,,,1,6.083,0,16,16,16,1,piquant,mellow,fish,pungent,cloth,3,,,,,,,,,,,,,,,,,,,,,,,,,,,,,,,,,,,,,,,,,,,,,,,,,,,,
,,,,,,,,,,,,,,,90506,001,2022-04-29_11h50.59.469,SPAMnetsValid,2021.1.4,MacIntel,62.5,,,,,,,,,,,,,,,,,,,,,,,,,1,10.066,0,17,17,17,1,firmament,foundation,heavens,strong,glue,2,,,,,,,,,,,,,,,,,,,,,,,,,,,,,,,,,,,,,,,,,,,,,,,,,,,,
,,,,,,,,,,,,,,,90506,001,2022-04-29_11h50.59.469,SPAMnetsValid,2021.1.4,MacIntel,62.5,,,,,,,,,,,,,,,,,,,,,,,,,,,,,,,,,,,,,,4,5.025,0,0,0,0,1,marketable,partisan,jocular,marriageable,salable,essential,4,,,,,,,,,,,,,,,,,,,,,,,,,,,,,,,,,,,,,,
,,,,,,,,,,,,,,,90506,001,2022-04-29_11h50.59.469,SPAMnetsValid,2021.1.4,MacIntel,62.5,,,,,,,,,,,,,,,,,,,,,,,,,,,,,,,,,,,,,,5,4.583,0,1,1,1,1,cottontail,squirrel,poplar,boa,marshy plant,rabbit,5,,,,,,,,,,,,,,,,,,,,,,,,,,,,,,,,,,,,,,
,,,,,,,,,,,,,,,90506,001,2022-04-29_11h50.59.469,SPAMnetsValid,2021.1.4,MacIntel,62.5,,,,,,,,,,,,,,,,,,,,,,,,,,,,,,,,,,,,,,3,3.239,0,2,2,2,1,boggy,afraid,false,marshy,dense,black,3,,,,,,,,,,,,,,,,,,,,,,,,,,,,,,,,,,,,,,
,,,,,,,,,,,,,,,90506,001,2022-04-29_11h50.59.469,SPAMnetsValid,2021.1.4,MacIntel,62.5,,,,,,,,,,,,,,,,,,,,,,,,,,,,,,,,,,,,,,5,6.028,0,3,3,3,1,gruesomeness,blackness,falseness,vindictiveness,drunkenness,ghastliness,5,,,,,,,,,,,,,,,,,,,,,,,,,,,,,,,,,,,,,,
,,,,,,,,,,,,,,,90506,001,2022-04-29_11h50.59.469,SPAMnetsValid,2021.1.4,MacIntel,62.5,,,,,,,,,,,,,,,,,,,,,,,,,,,,,,,,,,,,,,3,7.39,0,4,4,4,1,loathing,diffidence,laziness,abhorrence,cleverness,comfort,3,,,,,,,,,,,,,,,,,,,,,,,,,,,,,,,,,,,,,,
,,,,,,,,,,,,,,,90506,001,2022-04-29_11h50.59.469,SPAMnetsValid,2021.1.4,MacIntel,62.5,,,,,,,,,,,,,,,,,,,,,,,,,,,,,,,,,,,,,,4,9.895,0,5,5,5,1,bantam,fowl,ridicule,cripple,vegetable,ensign,1,,,,,,,,,,,,,,,,,,,,,,,,,,,,,,,,,,,,,,
,,,,,,,,,,,,,,,90506,001,2022-04-29_11h50.59.469,SPAMnetsValid,2021.1.4,MacIntel,62.5,,,,,,,,,,,,,,,,,,,,,,,,,,,,,,,,,,,,,,5,6.615,0,6,6,6,1,evoke,wake up,surrender,reconnoiter,transcend,call forth,5,,,,,,,,,,,,,,,,,,,,,,,,,,,,,,,,,,,,,,
,,,,,,,,,,,,,,,90506,001,2022-04-29_11h50.59.469,SPAMnetsValid,2021.1.4,MacIntel,62.5,,,,,,,,,,,,,,,,,,,,,,,,,,,,,,,,,,,,,,5,4.887,0,7,7,7,1,unobtrusive,unintelligent,epileptic,illogical,lineal,modest,5,,,,,,,,,,,,,,,,,,,,,,,,,,,,,,,,,,,,,,
,,,,,,,,,,,,,,,90506,001,2022-04-29_11h50.59.469,SPAMnetsValid,2021.1.4,MacIntel,62.5,,,,,,,,,,,,,,,,,,,,,,,,,,,,,,,,,,,,,,4,4.332,0,8,8,8,1,terrain,ice cream,final test,tractor,area of ground,weight,4,,,,,,,,,,,,,,,,,,,,,,,,,,,,,,,,,,,,,,
,,,,,,,,,,,,,,,90506,001,2022-04-29_11h50.59.469,SPAMnetsValid,2021.1.4,MacIntel,62.5,,,,,,,,,,,,,,,,,,,,,,,,,,,,,,,,,,,,,,5,7.232,0,9,9,9,1,capriciousness,stubbornness,courage,whimsicality,amazement,greediness,3,,,,,,,,,,,,,,,,,,,,,,,,,,,,,,,,,,,,,,
,,,,,,,,,,,,,,,90506,001,2022-04-29_11h50.59.469,SPAMnetsValid,2021.1.4,MacIntel,62.5,,,,,,,,,,,,,,,,,,,,,,,,,,,,,,,,,,,,,,2,7.292,0,10,10,10,1,maelstrom,slander,whirlpool,enmity,armor,majolica,2,,,,,,,,,,,,,,,,,,,,,,,,,,,,,,,,,,,,,,
,,,,,,,,,,,,,,,90506,001,2022-04-29_11h50.59.469,SPAMnetsValid,2021.1.4,MacIntel,62.5,,,,,,,,,,,,,,,,,,,,,,,,,,,,,,,,,,,,,,5,3.476,0,11,11,11,1,tentative,critical,conclusive,authentic,provisional,apprehensive,4,,,,,,,,,,,,,,,,,,,,,,,,,,,,,,,,,,,,,,
,,,,,,,,,,,,,,,90506,001,2022-04-29_11h50.59.469,SPAMnetsValid,2021.1.4,MacIntel,62.5,,,,,,,,,,,,,,,,,,,,,,,,,,,,,,,,,,,,,,5,10.714,0,12,12,12,1,placate,rehabilitate,plagiarize,depredate,apprise,conciliate,5,,,,,,,,,,,,,,,,,,,,,,,,,,,,,,,,,,,,,,
,,,,,,,,,,,,,,,90506,001,2022-04-29_11h50.59.469,SPAMnetsValid,2021.1.4,MacIntel,62.5,,,,,,,,,,,,,,,,,,,,,,,,,,,,,,,,,,,,,,2,13.164,0,13,13,13,1,surcease,enlightenment,cessation,inattention,censor,substitution,2,,,,,,,,,,,,,,,,,,,,,,,,,,,,,,,,,,,,,,
,,,,,,,,,,,,,,,90506,001,2022-04-29_11h50.59.469,SPAMnetsValid,2021.1.4,MacIntel,62.5,,,,,,,,,,,,,,,,,,,,,,,,,,,,,,,,,,,,,,3,8.034,0,14,14,14,1,apathetic,wandering,impassive,hateful,prophetic,overflowing,2,,,,,,,,,,,,,,,,,,,,,,,,,,,,,,,,,,,,,,
,,,,,,,,,,,,,,,90506,001,2022-04-29_11h50.59.469,SPAMnetsValid,2021.1.4,MacIntel,62.5,,,,,,,,,,,,,,,,,,,,,,,,,,,,,,,,,,,,,,5,8.742,0,15,15,15,1,paternoster,paternalism,patricide,malediction,benediction,prayer,5,,,,,,,,,,,,,,,,,,,,,,,,,,,,,,,,,,,,,,
,,,,,,,,,,,,,,,90506,001,2022-04-29_11h50.59.469,SPAMnetsValid,2021.1.4,MacIntel,62.5,,,,,,,,,,,,,,,,,,,,,,,,,,,,,,,,,,,,,,2,5.978,0,16,16,16,1,opalescence,opulence,senescence,bankruptcy,iridescence,assiduity,4,,,,,,,,,,,,,,,,,,,,,,,,,,,,,,,,,,,,,,
,,,,,,,,,,,,,,,90506,001,2022-04-29_11h50.59.469,SPAMnetsValid,2021.1.4,MacIntel,62.5,,,,,,,,,,,,,,,,,,,,,,,,,,,,,,,,,,,,,,2,1.681,0,17,17,17,1,lush,stupid,luxurious,hazy,putrid,languishing,2,,,,,,,,,,,,,,,,,,,,,,,,,,,,,,,,,,,,,,
,,,,,,,,,,,,,,,90506,001,2022-04-29_11h50.59.469,SPAMnetsValid,2021.1.4,MacIntel,62.5,,,,,,,,,,,,,,,,,,,,,,,,,,,,,,,,,,,,,,3,22.94,0,18,18,18,1,curtailment,expenditure,abandonment,abridgment,improvement,forgery,3,,,,,,,,,,,,,,,,,,,,,,,,,,,,,,,,,,,,,,
,,,,,,,,,,,,,,,90506,001,2022-04-29_11h50.59.469,SPAMnetsValid,2021.1.4,MacIntel,62.5,,,,,,,,,,,,,,,,,,,,,,,,,,,,,,,,,,,,,,1,5.188,0,19,19,19,1,perversity,adversity,perviousness,travesty,waywardness,gentility,4,,,,,,,,,,,,,,,,,,,,,,,,,,,,,,,,,,,,,,
,,,,,,,,,,,,,,,90506,001,2022-04-29_11h50.59.469,SPAMnetsValid,2021.1.4,MacIntel,62.5,,,,,,,,,,,,,,,,,,,,,,,,,,,,,,,,,,,,,,5,5.598,0,20,20,20,1,calumnious,complimentary,analogous,slanderous,tempestuous,magnanimous,3,,,,,,,,,,,,,,,,,,,,,,,,,,,,,,,,,,,,,,
,,,,,,,,,,,,,,,90506,001,2022-04-29_11h50.59.469,SPAMnetsValid,2021.1.4,MacIntel,62.5,,,,,,,,,,,,,,,,,,,,,,,,,,,,,,,,,,,,,,5,6.144,0,21,21,21,1,illiberality,bigotry,imbecility,illegibility,cautery,immaturity,1,,,,,,,,,,,,,,,,,,,,,,,,,,,,,,,,,,,,,,
,,,,,,,,,,,,,,,90506,001,2022-04-29_11h50.59.469,SPAMnetsValid,2021.1.4,MacIntel,62.5,,,,,,,,,,,,,,,,,,,,,,,,,,,,,,,,,,,,,,5,9.989,0,22,22,22,1,clabber,rejoice,gossip,curdle,crow,hobble,3,,,,,,,,,,,,,,,,,,,,,,,,,,,,,,,,,,,,,,
,,,,,,,,,,,,,,,90506,001,2022-04-29_11h50.59.469,SPAMnetsValid,2021.1.4,MacIntel,62.5,,,,,,,,,,,,,,,,,,,,,,,,,,,,,,,,,,,,,,1,8.489,0,23,23,23,1,sedulousness,diligence,credulousness,seduction,perilousness,frankness,1,,,,,,,,,,,,,,,,,,,,,,,,,,,,,,,,,,,,,,
,,,,,,,,,,,,,,,90506,001,2022-04-29_11h50.59.469,SPAMnetsValid,2021.1.4,MacIntel,62.5,,,,,,,,,,,,,,,,,,,,,,,,,,,,,,,,,,,,,,,,,,,,,,,,,,,,drink from,bucket,0,0,0,0,1,,,,,,,,,,,,,,,,,,,,,,,,,,,,,,,
,,,,,,,,,,,,,,,90506,001,2022-04-29_11h50.59.469,SPAMnetsValid,2021.1.4,MacIntel,62.5,,,,,,,,,,,,,,,,,,,,,,,,,,,,,,,,,,,,,,,,,,,,,,,,,,,,wear as hat,bucket,1,0,1,0,1,,,,,,,,,,,,,,,,,,,,,,,,,,,,,,,
,,,,,,,,,,,,,,,90506,001,2022-04-29_11h50.59.469,SPAMnetsValid,2021.1.4,MacIntel,62.5,,,,,,,,,,,,,,,,,,,,,,,,,,,,,,,,,,,,,,,,,,,,,,,,,,,,pee,bucket,2,0,2,0,1,,,,,,,,,,,,,,,,,,,,,,,,,,,,,,,
,,,,,,,,,,,,,,,90506,001,2022-04-29_11h50.59.469,SPAMnetsValid,2021.1.4,MacIntel,62.5,,,,,,,,,,,,,,,,,,,,,,,,,,,,,,,,,,,,,,,,,,,,,,,,,,,,poop,bucket,3,0,3,0,1,,,,,,,,,,,,,,,,,,,,,,,,,,,,,,,
,,,,,,,,,,,,,,,90506,001,2022-04-29_11h50.59.469,SPAMnetsValid,2021.1.4,MacIntel,62.5,,,,,,,,,,,,,,,,,,,,,,,,,,,,,,,,,,,,,,,,,,,,,,,,,,,,weapon,bucket,4,0,4,0,1,,,,,,,,,,,,,,,,,,,,,,,,,,,,,,,
,,,,,,,,,,,,,,,90506,001,2022-04-29_11h50.59.469,SPAMnetsValid,2021.1.4,MacIntel,62.5,,,,,,,,,,,,,,,,,,,,,,,,,,,,,,,,,,,,,,,,,,,,,,,,,,,,carrying water,bucket,5,0,5,0,1,,,,,,,,,,,,,,,,,,,,,,,,,,,,,,,
,,,,,,,,,,,,,,,90506,001,2022-04-29_11h50.59.469,SPAMnetsValid,2021.1.4,MacIntel,62.5,,,,,,,,,,,,,,,,,,,,,,,,,,,,,,,,,,,,,,,,,,,,,,,,,,,,carrying milk,bucket,6,0,6,0,1,,,,,,,,,,,,,,,,,,,,,,,,,,,,,,,
,,,,,,,,,,,,,,,90506,001,2022-04-29_11h50.59.469,SPAMnetsValid,2021.1.4,MacIntel,62.5,,,,,,,,,,,,,,,,,,,,,,,,,,,,,,,,,,,,,,,,,,,,,,,,,,,,a musical instrument,bucket,7,0,7,0,1,,,,,,,,,,,,,,,,,,,,,,,,,,,,,,,
,,,,,,,,,,,,,,,90506,001,2022-04-29_11h50.59.469,SPAMnetsValid,2021.1.4,MacIntel,62.5,,,,,,,,,,,,,,,,,,,,,,,,,,,,,,,,,,,,,,,,,,,,,,,,,,,,paint,bucket,8,0,8,0,1,,,,,,,,,,,,,,,,,,,,,,,,,,,,,,,
,,,,,,,,,,,,,,,90506,001,2022-04-29_11h50.59.469,SPAMnetsValid,2021.1.4,MacIntel,62.5,,,,,,,,,,,,,,,,,,,,,,,,,,,,,,,,,,,,,,,,,,,,,,,,,,,,kick when upset,bucket,9,0,9,0,1,,,,,,,,,,,,,,,,,,,,,,,,,,,,,,,
,,,,,,,,,,,,,,,90506,001,2022-04-29_11h50.59.469,SPAMnetsValid,2021.1.4,MacIntel,62.5,,,,,,,,,,,,,,,,,,,,,,,,,,,,,,,,,,,,,,,,,,,,,,,,,,,,portable fire,bucket,10,0,10,0,1,,,,,,,,,,,,,,,,,,,,,,,,,,,,,,,
,,,,,,,,,,,,,,,90506,001,2022-04-29_11h50.59.469,SPAMnetsValid,2021.1.4,MacIntel,62.5,,,,,,,,,,,,,,,,,,,,,,,,,,,,,,,,,,,,,,,,,,,,,,,,,,,,bake a cake inside,bucket,11,0,11,0,1,,,,,,,,,,,,,,,,,,,,,,,,,,,,,,,
,,,,,,,,,,,,,,,90506,001,2022-04-29_11h50.59.469,SPAMnetsValid,2021.1.4,MacIntel,62.5,,,,,,,,,,,,,,,,,,,,,,,,,,,,,,,,,,,,,,,,,,,,,,,,,,,,,,,,,,,0,0,0,0,1,bucket,,,,,,,,,,,,,,,,,,,,,,,,,
,,,,,,,,,,,,,,,90506,001,2022-04-29_11h50.59.469,SPAMnetsValid,2021.1.4,MacIntel,62.5,,,,,,,,,,,,,,,,,,,,,,,,,,,,,,,,,,,,,,,,,,,,,,,,,,,,fight ,pillow,0,0,0,0,1,,,,,,,,,,,,,,,,,,,,,,,,,,,,,,,
,,,,,,,,,,,,,,,90506,001,2022-04-29_11h50.59.469,SPAMnetsValid,2021.1.4,MacIntel,62.5,,,,,,,,,,,,,,,,,,,,,,,,,,,,,,,,,,,,,,,,,,,,,,,,,,,,sleep on,pillow,1,0,1,0,1,,,,,,,,,,,,,,,,,,,,,,,,,,,,,,,
,,,,,,,,,,,,,,,90506,001,2022-04-29_11h50.59.469,SPAMnetsValid,2021.1.4,MacIntel,62.5,,,,,,,,,,,,,,,,,,,,,,,,,,,,,,,,,,,,,,,,,,,,,,,,,,,,put in shirt to make it look like you have a big stomach,pillow,2,0,2,0,1,,,,,,,,,,,,,,,,,,,,,,,,,,,,,,,
,,,,,,,,,,,,,,,90506,001,2022-04-29_11h50.59.469,SPAMnetsValid,2021.1.4,MacIntel,62.5,,,,,,,,,,,,,,,,,,,,,,,,,,,,,,,,,,,,,,,,,,,,,,,,,,,,cushion for crash landing,pillow,3,0,3,0,1,,,,,,,,,,,,,,,,,,,,,,,,,,,,,,,
,,,,,,,,,,,,,,,90506,001,2022-04-29_11h50.59.469,SPAMnetsValid,2021.1.4,MacIntel,62.5,,,,,,,,,,,,,,,,,,,,,,,,,,,,,,,,,,,,,,,,,,,,,,,,,,,,floor is lava game,pillow,4,0,4,0,1,,,,,,,,,,,,,,,,,,,,,,,,,,,,,,,
,,,,,,,,,,,,,,,90506,001,2022-04-29_11h50.59.469,SPAMnetsValid,2021.1.4,MacIntel,62.5,,,,,,,,,,,,,,,,,,,,,,,,,,,,,,,,,,,,,,,,,,,,,,,,,,,,butt cushion,pillow,5,0,5,0,1,,,,,,,,,,,,,,,,,,,,,,,,,,,,,,,
,,,,,,,,,,,,,,,90506,001,2022-04-29_11h50.59.469,SPAMnetsValid,2021.1.4,MacIntel,62.5,,,,,,,,,,,,,,,,,,,,,,,,,,,,,,,,,,,,,,,,,,,,,,,,,,,,suffocate someone,pillow,6,0,6,0,1,,,,,,,,,,,,,,,,,,,,,,,,,,,,,,,
,,,,,,,,,,,,,,,90506,001,2022-04-29_11h50.59.469,SPAMnetsValid,2021.1.4,MacIntel,62.5,,,,,,,,,,,,,,,,,,,,,,,,,,,,,,,,,,,,,,,,,,,,,,,,,,,,,,,,,,,0,1,1,2,1,pillow,,,,,,,,,,,,,,,,,,,,,,,,,
,,,,,,,,,,,,,,,90506,001,2022-04-29_11h50.59.469,SPAMnetsValid,2021.1.4,MacIntel,62.5,,,,,,,,,,,,,,,,,,,,,,,,,,,,,,,,,,,,,,,,,,,,,,,,,,,,source of light,candle,0,0,0,0,1,,,,,,,,,,,,,,,,,,,,,,,,,,,,,,,
,,,,,,,,,,,,,,,90506,001,2022-04-29_11h50.59.469,SPAMnetsValid,2021.1.4,MacIntel,62.5,,,,,,,,,,,,,,,,,,,,,,,,,,,,,,,,,,,,,,,,,,,,,,,,,,,,warmth,candle,1,0,1,0,1,,,,,,,,,,,,,,,,,,,,,,,,,,,,,,,
,,,,,,,,,,,,,,,90506,001,2022-04-29_11h50.59.469,SPAMnetsValid,2021.1.4,MacIntel,62.5,,,,,,,,,,,,,,,,,,,,,,,,,,,,,,,,,,,,,,,,,,,,,,,,,,,,make a room smell nice,candle,2,0,2,0,1,,,,,,,,,,,,,,,,,,,,,,,,,,,,,,,
,,,,,,,,,,,,,,,90506,001,2022-04-29_11h50.59.469,SPAMnetsValid,2021.1.4,MacIntel,62.5,,,,,,,,,,,,,,,,,,,,,,,,,,,,,,,,,,,,,,,,,,,,,,,,,,,,jump over it like jack,candle,3,0,3,0,1,,,,,,,,,,,,,,,,,,,,,,,,,,,,,,,
,,,,,,,,,,,,,,,90506,001,2022-04-29_11h50.59.469,SPAMnetsValid,2021.1.4,MacIntel,62.5,,,,,,,,,,,,,,,,,,,,,,,,,,,,,,,,,,,,,,,,,,,,,,,,,,,,start a house fire,candle,4,0,4,0,1,,,,,,,,,,,,,,,,,,,,,,,,,,,,,,,
,,,,,,,,,,,,,,,90506,001,2022-04-29_11h50.59.469,SPAMnetsValid,2021.1.4,MacIntel,62.5,,,,,,,,,,,,,,,,,,,,,,,,,,,,,,,,,,,,,,,,,,,,,,,,,,,,get someone's attention,candle,5,0,5,0,1,,,,,,,,,,,,,,,,,,,,,,,,,,,,,,,
,,,,,,,,,,,,,,,90506,001,2022-04-29_11h50.59.469,SPAMnetsValid,2021.1.4,MacIntel,62.5,,,,,,,,,,,,,,,,,,,,,,,,,,,,,,,,,,,,,,,,,,,,,,,,,,,,burning paper,candle,6,0,6,0,1,,,,,,,,,,,,,,,,,,,,,,,,,,,,,,,
,,,,,,,,,,,,,,,90506,001,2022-04-29_11h50.59.469,SPAMnetsValid,2021.1.4,MacIntel,62.5,,,,,,,,,,,,,,,,,,,,,,,,,,,,,,,,,,,,,,,,,,,,,,,,,,,,make a dinner night more romantic,candle,7,0,7,0,1,,,,,,,,,,,,,,,,,,,,,,,,,,,,,,,
,,,,,,,,,,,,,,,90506,001,2022-04-29_11h50.59.469,SPAMnetsValid,2021.1.4,MacIntel,62.5,,,,,,,,,,,,,,,,,,,,,,,,,,,,,,,,,,,,,,,,,,,,,,,,,,,,set the mood,candle,8,0,8,0,1,,,,,,,,,,,,,,,,,,,,,,,,,,,,,,,
,,,,,,,,,,,,,,,90506,001,2022-04-29_11h50.59.469,SPAMnetsValid,2021.1.4,MacIntel,62.5,,,,,,,,,,,,,,,,,,,,,,,,,,,,,,,,,,,,,,,,,,,,,,,,,,,,gift for your aunt,candle,9,0,9,0,1,,,,,,,,,,,,,,,,,,,,,,,,,,,,,,,
,,,,,,,,,,,,,,,90506,001,2022-04-29_11h50.59.469,SPAMnetsValid,2021.1.4,MacIntel,62.5,,,,,,,,,,,,,,,,,,,,,,,,,,,,,,,,,,,,,,,,,,,,,,,,,,,,use to make shadow puppets,candle,10,0,10,0,1,,,,,,,,,,,,,,,,,,,,,,,,,,,,,,,
,,,,,,,,,,,,,,,90506,001,2022-04-29_11h50.59.469,SPAMnetsValid,2021.1.4,MacIntel,62.5,,,,,,,,,,,,,,,,,,,,,,,,,,,,,,,,,,,,,,,,,,,,,,,,,,,,tell spooky stories,candle,11,0,11,0,1,,,,,,,,,,,,,,,,,,,,,,,,,,,,,,,
,,,,,,,,,,,,,,,90506,001,2022-04-29_11h50.59.469,SPAMnetsValid,2021.1.4,MacIntel,62.5,,,,,,,,,,,,,,,,,,,,,,,,,,,,,,,,,,,,,,,,,,,,,,,,,,,,,,,,,,,0,2,2,1,1,candle,,,,,,,,,,,,,,,,,,,,,,,,,
,,,,,,,,,,,,,,,90506,001,2022-04-29_11h50.59.469,SPAMnetsValid,2021.1.4,MacIntel,62.5,,,,,,,,,,,,,,,,,,,,,,,,,,,,,,,,,,,,,,,,,,,,,,,,,,,,,,,,,,,,,,,,,turkey,Animals,0,0,0,0,1,,,,,,,,,,,,,,,,,,
,,,,,,,,,,,,,,,90506,001,2022-04-29_11h50.59.469,SPAMnetsValid,2021.1.4,MacIntel,62.5,,,,,,,,,,,,,,,,,,,,,,,,,,,,,,,,,,,,,,,,,,,,,,,,,,,,,,,,,,,,,,,,,chicken,Animals,1,0,1,0,1,,,,,,,,,,,,,,,,,,
,,,,,,,,,,,,,,,90506,001,2022-04-29_11h50.59.469,SPAMnetsValid,2021.1.4,MacIntel,62.5,,,,,,,,,,,,,,,,,,,,,,,,,,,,,,,,,,,,,,,,,,,,,,,,,,,,,,,,,,,,,,,,,goat,Animals,2,0,2,0,1,,,,,,,,,,,,,,,,,,
,,,,,,,,,,,,,,,90506,001,2022-04-29_11h50.59.469,SPAMnetsValid,2021.1.4,MacIntel,62.5,,,,,,,,,,,,,,,,,,,,,,,,,,,,,,,,,,,,,,,,,,,,,,,,,,,,,,,,,,,,,,,,,dog,Animals,3,0,3,0,1,,,,,,,,,,,,,,,,,,
,,,,,,,,,,,,,,,90506,001,2022-04-29_11h50.59.469,SPAMnetsValid,2021.1.4,MacIntel,62.5,,,,,,,,,,,,,,,,,,,,,,,,,,,,,,,,,,,,,,,,,,,,,,,,,,,,,,,,,,,,,,,,,cat,Animals,4,0,4,0,1,,,,,,,,,,,,,,,,,,
,,,,,,,,,,,,,,,90506,001,2022-04-29_11h50.59.469,SPAMnetsValid,2021.1.4,MacIntel,62.5,,,,,,,,,,,,,,,,,,,,,,,,,,,,,,,,,,,,,,,,,,,,,,,,,,,,,,,,,,,,,,,,,emu,Animals,5,0,5,0,1,,,,,,,,,,,,,,,,,,
,,,,,,,,,,,,,,,90506,001,2022-04-29_11h50.59.469,SPAMnetsValid,2021.1.4,MacIntel,62.5,,,,,,,,,,,,,,,,,,,,,,,,,,,,,,,,,,,,,,,,,,,,,,,,,,,,,,,,,,,,,,,,,ostrich,Animals,6,0,6,0,1,,,,,,,,,,,,,,,,,,
,,,,,,,,,,,,,,,90506,001,2022-04-29_11h50.59.469,SPAMnetsValid,2021.1.4,MacIntel,62.5,,,,,,,,,,,,,,,,,,,,,,,,,,,,,,,,,,,,,,,,,,,,,,,,,,,,,,,,,,,,,,,,,penguin,Animals,7,0,7,0,1,,,,,,,,,,,,,,,,,,
,,,,,,,,,,,,,,,90506,001,2022-04-29_11h50.59.469,SPAMnetsValid,2021.1.4,MacIntel,62.5,,,,,,,,,,,,,,,,,,,,,,,,,,,,,,,,,,,,,,,,,,,,,,,,,,,,,,,,,,,,,,,,,elephant,Animals,8,0,8,0,1,,,,,,,,,,,,,,,,,,
,,,,,,,,,,,,,,,90506,001,2022-04-29_11h50.59.469,SPAMnetsValid,2021.1.4,MacIntel,62.5,,,,,,,,,,,,,,,,,,,,,,,,,,,,,,,,,,,,,,,,,,,,,,,,,,,,,,,,,,,,,,,,,giraffe,Animals,9,0,9,0,1,,,,,,,,,,,,,,,,,,
,,,,,,,,,,,,,,,90506,001,2022-04-29_11h50.59.469,SPAMnetsValid,2021.1.4,MacIntel,62.5,,,,,,,,,,,,,,,,,,,,,,,,,,,,,,,,,,,,,,,,,,,,,,,,,,,,,,,,,,,,,,,,,dolphin,Animals,10,0,10,0,1,,,,,,,,,,,,,,,,,,
,,,,,,,,,,,,,,,90506,001,2022-04-29_11h50.59.469,SPAMnetsValid,2021.1.4,MacIntel,62.5,,,,,,,,,,,,,,,,,,,,,,,,,,,,,,,,,,,,,,,,,,,,,,,,,,,,,,,,,,,,,,,,,shark,Animals,11,0,11,0,1,,,,,,,,,,,,,,,,,,
,,,,,,,,,,,,,,,90506,001,2022-04-29_11h50.59.469,SPAMnetsValid,2021.1.4,MacIntel,62.5,,,,,,,,,,,,,,,,,,,,,,,,,,,,,,,,,,,,,,,,,,,,,,,,,,,,,,,,,,,,,,,,,parrot,Animals,12,0,12,0,1,,,,,,,,,,,,,,,,,,
,,,,,,,,,,,,,,,90506,001,2022-04-29_11h50.59.469,SPAMnetsValid,2021.1.4,MacIntel,62.5,,,,,,,,,,,,,,,,,,,,,,,,,,,,,,,,,,,,,,,,,,,,,,,,,,,,,,,,,,,,,,,,,pig,Animals,13,0,13,0,1,,,,,,,,,,,,,,,,,,
,,,,,,,,,,,,,,,90506,001,2022-04-29_11h50.59.469,SPAMnetsValid,2021.1.4,MacIntel,62.5,,,,,,,,,,,,,,,,,,,,,,,,,,,,,,,,,,,,,,,,,,,,,,,,,,,,,,,,,,,,,,,,,cow,Animals,14,0,14,0,1,,,,,,,,,,,,,,,,,,
,,,,,,,,,,,,,,,90506,001,2022-04-29_11h50.59.469,SPAMnetsValid,2021.1.4,MacIntel,62.5,,,,,,,,,,,,,,,,,,,,,,,,,,,,,,,,,,,,,,,,,,,,,,,,,,,,,,,,,,,,,,,,,pygmy marmoset,Animals,15,0,15,0,1,,,,,,,,,,,,,,,,,,
,,,,,,,,,,,,,,,90506,001,2022-04-29_11h50.59.469,SPAMnetsValid,2021.1.4,MacIntel,62.5,,,,,,,,,,,,,,,,,,,,,,,,,,,,,,,,,,,,,,,,,,,,,,,,,,,,,,,,,,,,,,,,,quokka,Animals,16,0,16,0,1,,,,,,,,,,,,,,,,,,
,,,,,,,,,,,,,,,90506,001,2022-04-29_11h50.59.469,SPAMnetsValid,2021.1.4,MacIntel,62.5,,,,,,,,,,,,,,,,,,,,,,,,,,,,,,,,,,,,,,,,,,,,,,,,,,,,,,,,,,,,,,,,,capybara,Animals,17,0,17,0,1,,,,,,,,,,,,,,,,,,
,,,,,,,,,,,,,,,90506,001,2022-04-29_11h50.59.469,SPAMnetsValid,2021.1.4,MacIntel,62.5,,,,,,,,,,,,,,,,,,,,,,,,,,,,,,,,,,,,,,,,,,,,,,,,,,,,,,,,,,,,,,,,,anteater,Animals,18,0,18,0,1,,,,,,,,,,,,,,,,,,
,,,,,,,,,,,,,,,90506,001,2022-04-29_11h50.59.469,SPAMnetsValid,2021.1.4,MacIntel,62.5,,,,,,,,,,,,,,,,,,,,,,,,,,,,,,,,,,,,,,,,,,,,,,,,,,,,,,,,,,,,,,,,,aardvark,Animals,19,0,19,0,1,,,,,,,,,,,,,,,,,,
,,,,,,,,,,,,,,,90506,001,2022-04-29_11h50.59.469,SPAMnetsValid,2021.1.4,MacIntel,62.5,,,,,,,,,,,,,,,,,,,,,,,,,,,,,,,,,,,,,,,,,,,,,,,,,,,,,,,,,,,,,,,,,wombat,Animals,20,0,20,0,1,,,,,,,,,,,,,,,,,,
,,,,,,,,,,,,,,,90506,001,2022-04-29_11h50.59.469,SPAMnetsValid,2021.1.4,MacIntel,62.5,,,,,,,,,,,,,,,,,,,,,,,,,,,,,,,,,,,,,,,,,,,,,,,,,,,,,,,,,,,,,,,,,bat,Animals,21,0,21,0,1,,,,,,,,,,,,,,,,,,
,,,,,,,,,,,,,,,90506,001,2022-04-29_11h50.59.469,SPAMnetsValid,2021.1.4,MacIntel,62.5,,,,,,,,,,,,,,,,,,,,,,,,,,,,,,,,,,,,,,,,,,,,,,,,,,,,,,,,,,,,,,,,,kangaroo,Animals,22,0,22,0,1,,,,,,,,,,,,,,,,,,
,,,,,,,,,,,,,,,90506,001,2022-04-29_11h50.59.469,SPAMnetsValid,2021.1.4,MacIntel,62.5,,,,,,,,,,,,,,,,,,,,,,,,,,,,,,,,,,,,,,,,,,,,,,,,,,,,,,,,,,,,,,,,,pelican,Animals,23,0,23,0,1,,,,,,,,,,,,,,,,,,
,,,,,,,,,,,,,,,90506,001,2022-04-29_11h50.59.469,SPAMnetsValid,2021.1.4,MacIntel,62.5,,,,,,,,,,,,,,,,,,,,,,,,,,,,,,,,,,,,,,,,,,,,,,,,,,,,,,,,,,,,,,,,,whale,Animals,24,0,24,0,1,,,,,,,,,,,,,,,,,,
,,,,,,,,,,,,,,,90506,001,2022-04-29_11h50.59.469,SPAMnetsValid,2021.1.4,MacIntel,62.5,,,,,,,,,,,,,,,,,,,,,,,,,,,,,,,,,,,,,,,,,,,,,,,,,,,,,,,,,,,,,,,,,walrus,Animals,25,0,25,0,1,,,,,,,,,,,,,,,,,,
,,,,,,,,,,,,,,,90506,001,2022-04-29_11h50.59.469,SPAMnetsValid,2021.1.4,MacIntel,62.5,,,,,,,,,,,,,,,,,,,,,,,,,,,,,,,,,,,,,,,,,,,,,,,,,,,,,,,,,,,,,,,,,sea lion,Animals,26,0,26,0,1,,,,,,,,,,,,,,,,,,
,,,,,,,,,,,,,,,90506,001,2022-04-29_11h50.59.469,SPAMnetsValid,2021.1.4,MacIntel,62.5,,,,,,,,,,,,,,,,,,,,,,,,,,,,,,,,,,,,,,,,,,,,,,,,,,,,,,,,,,,,,,,,,seal,Animals,27,0,27,0,1,,,,,,,,,,,,,,,,,,
,,,,,,,,,,,,,,,90506,001,2022-04-29_11h50.59.469,SPAMnetsValid,2021.1.4,MacIntel,62.5,,,,,,,,,,,,,,,,,,,,,,,,,,,,,,,,,,,,,,,,,,,,,,,,,,,,,,,,,,,,,,,,,frog,Animals,28,0,28,0,1,,,,,,,,,,,,,,,,,,
,,,,,,,,,,,,,,,90506,001,2022-04-29_11h50.59.469,SPAMnetsValid,2021.1.4,MacIntel,62.5,,,,,,,,,,,,,,,,,,,,,,,,,,,,,,,,,,,,,,,,,,,,,,,,,,,,,,,,,,,,,,,,,toad,Animals,29,0,29,0,1,,,,,,,,,,,,,,,,,,
,,,,,,,,,,,,,,,90506,001,2022-04-29_11h50.59.469,SPAMnetsValid,2021.1.4,MacIntel,62.5,,,,,,,,,,,,,,,,,,,,,,,,,,,,,,,,,,,,,,,,,,,,,,,,,,,,,,,,,,,,,,,,,snake,Animals,30,0,30,0,1,,,,,,,,,,,,,,,,,,
,,,,,,,,,,,,,,,90506,001,2022-04-29_11h50.59.469,SPAMnetsValid,2021.1.4,MacIntel,62.5,,,,,,,,,,,,,,,,,,,,,,,,,,,,,,,,,,,,,,,,,,,,,,,,,,,,,,,,,,,,,,,,,gila monster,Animals,31,0,31,0,1,,,,,,,,,,,,,,,,,,
,,,,,,,,,,,,,,,90506,001,2022-04-29_11h50.59.469,SPAMnetsValid,2021.1.4,MacIntel,62.5,,,,,,,,,,,,,,,,,,,,,,,,,,,,,,,,,,,,,,,,,,,,,,,,,,,,,,,,,,,,,,,,,boa constrictor,Animals,32,0,32,0,1,,,,,,,,,,,,,,,,,,
,,,,,,,,,,,,,,,90506,001,2022-04-29_11h50.59.469,SPAMnetsValid,2021.1.4,MacIntel,62.5,,,,,,,,,,,,,,,,,,,,,,,,,,,,,,,,,,,,,,,,,,,,,,,,,,,,,,,,,,,,,,,,,donkey,Animals,33,0,33,0,1,,,,,,,,,,,,,,,,,,
,,,,,,,,,,,,,,,90506,001,2022-04-29_11h50.59.469,SPAMnetsValid,2021.1.4,MacIntel,62.5,,,,,,,,,,,,,,,,,,,,,,,,,,,,,,,,,,,,,,,,,,,,,,,,,,,,,,,,,,,,,,,,,horse,Animals,34,0,34,0,1,,,,,,,,,,,,,,,,,,
,,,,,,,,,,,,,,,90506,001,2022-04-29_11h50.59.469,SPAMnetsValid,2021.1.4,MacIntel,62.5,,,,,,,,,,,,,,,,,,,,,,,,,,,,,,,,,,,,,,,,,,,,,,,,,,,,,,,,,,,,,,,,,mule,Animals,35,0,35,0,1,,,,,,,,,,,,,,,,,,
,,,,,,,,,,,,,,,90506,001,2022-04-29_11h50.59.469,SPAMnetsValid,2021.1.4,MacIntel,62.5,,,,,,,,,,,,,,,,,,,,,,,,,,,,,,,,,,,,,,,,,,,,,,,,,,,,,,,,,,,,,,,,,trout,Animals,36,0,36,0,1,,,,,,,,,,,,,,,,,,
,,,,,,,,,,,,,,,90506,001,2022-04-29_11h50.59.469,SPAMnetsValid,2021.1.4,MacIntel,62.5,,,,,,,,,,,,,,,,,,,,,,,,,,,,,,,,,,,,,,,,,,,,,,,,,,,,,,,,,,,,,,,,,whale shark,Animals,37,0,37,0,1,,,,,,,,,,,,,,,,,,
,,,,,,,,,,,,,,,90506,001,2022-04-29_11h50.59.469,SPAMnetsValid,2021.1.4,MacIntel,62.5,,,,,,,,,,,,,,,,,,,,,,,,,,,,,,,,,,,,,,,,,,,,,,,,,,,,,,,,,,,,,,,,,mouse,Animals,38,0,38,0,1,,,,,,,,,,,,,,,,,,
,,,,,,,,,,,,,,,90506,001,2022-04-29_11h50.59.469,SPAMnetsValid,2021.1.4,MacIntel,62.5,,,,,,,,,,,,,,,,,,,,,,,,,,,,,,,,,,,,,,,,,,,,,,,,,,,,,,,,,,,,,,,,,rat,Animals,39,0,39,0,1,,,,,,,,,,,,,,,,,,
,,,,,,,,,,,,,,,90506,001,2022-04-29_11h50.59.469,SPAMnetsValid,2021.1.4,MacIntel,62.5,,,,,,,,,,,,,,,,,,,,,,,,,,,,,,,,,,,,,,,,,,,,,,,,,,,,,,,,,,,,,,,,,,,,,,,,0,0,0,0,1,Animals,,,,,,,,,,,,
,,,,,,,,,,,,,,,90506,001,2022-04-29_11h50.59.469,SPAMnetsValid,2021.1.4,MacIntel,62.5,,,,,,,,,,,,,,,,,,,,,,,,,,,,,,,,,,,,,,,,,,,,,,,,,,,,,,,,,,,,,,,,,,,,,,,,,,,,,,4,7.124,0,0,0,0,1,"I enjoy concentrating on a fantasy or daydream and exploring all its possibilities, letting it grow and develop.",0,1,,
,,,,,,,,,,,,,,,90506,001,2022-04-29_11h50.59.469,SPAMnetsValid,2021.1.4,MacIntel,62.5,,,,,,,,,,,,,,,,,,,,,,,,,,,,,,,,,,,,,,,,,,,,,,,,,,,,,,,,,,,,,,,,,,,,,,,,,,,,,,5,3.733,0,1,1,1,1,I think it's interesting to learn and develop new hobbies.,0,2,,
,,,,,,,,,,,,,,,90506,001,2022-04-29_11h50.59.469,SPAMnetsValid,2021.1.4,MacIntel,62.5,,,,,,,,,,,,,,,,,,,,,,,,,,,,,,,,,,,,,,,,,,,,,,,,,,,,,,,,,,,,,,,,,,,,,,,,,,,,,,4,2.683,0,2,2,2,1,I am intrigued by the patterns I find in art and nature.,0,3,,
,,,,,,,,,,,,,,,90506,001,2022-04-29_11h50.59.469,SPAMnetsValid,2021.1.4,MacIntel,62.5,,,,,,,,,,,,,,,,,,,,,,,,,,,,,,,,,,,,,,,,,,,,,,,,,,,,,,,,,,,,,,,,,,,,,,,,,,,,,,2,3.968,0,3,3,3,1,I believe letting students hear controversial speakers can only confuse and mislead them.,1,4,,
,,,,,,,,,,,,,,,90506,001,2022-04-29_11h50.59.469,SPAMnetsValid,2021.1.4,MacIntel,62.5,,,,,,,,,,,,,,,,,,,,,,,,,,,,,,,,,,,,,,,,,,,,,,,,,,,,,,,,,,,,,,,,,,,,,,,,,,,,,,3,2.053,0,4,4,4,1,Poetry has little or no effect on me.,1,5,,
,,,,,,,,,,,,,,,90506,001,2022-04-29_11h50.59.469,SPAMnetsValid,2021.1.4,MacIntel,62.5,,,,,,,,,,,,,,,,,,,,,,,,,,,,,,,,,,,,,,,,,,,,,,,,,,,,,,,,,,,,,,,,,,,,,,,,,,,,,,2,5.954,0,5,5,5,1,I would have difficulty just letting my mind wander without control or guidance.,1,6,,
,,,,,,,,,,,,,,,90506,001,2022-04-29_11h50.59.469,SPAMnetsValid,2021.1.4,MacIntel,62.5,,,,,,,,,,,,,,,,,,,,,,,,,,,,,,,,,,,,,,,,,,,,,,,,,,,,,,,,,,,,,,,,,,,,,,,,,,,,,,4,4.505,0,6,6,6,1,I seldom notice the moods or feelings that different environments produce.,1,7,,
,,,,,,,,,,,,,,,90506,001,2022-04-29_11h50.59.469,SPAMnetsValid,2021.1.4,MacIntel,62.5,,,,,,,,,,,,,,,,,,,,,,,,,,,,,,,,,,,,,,,,,,,,,,,,,,,,,,,,,,,,,,,,,,,,,,,,,,,,,,4,2.782,0,7,7,7,1,I experience a wide range of emotions or feelings.,0,8,,
,,,,,,,,,,,,,,,90506,001,2022-04-29_11h50.59.469,SPAMnetsValid,2021.1.4,MacIntel,62.5,,,,,,,,,,,,,,,,,,,,,,,,,,,,,,,,,,,,,,,,,,,,,,,,,,,,,,,,,,,,,,,,,,,,,,,,,,,,,,4,5.44,0,8,8,8,1,"Sometimes when I am reading poetry or looking at a work of art, I feel a chill or wave of excitement.",0,9,,
,,,,,,,,,,,,,,,90506,001,2022-04-29_11h50.59.469,SPAMnetsValid,2021.1.4,MacIntel,62.5,,,,,,,,,,,,,,,,,,,,,,,,,,,,,,,,,,,,,,,,,,,,,,,,,,,,,,,,,,,,,,,,,,,,,,,,,,,,,,2,5.792,0,9,9,9,1,I have little interest in speculating on the nature of the universe or the human condition.,1,10,,
,,,,,,,,,,,,,,,90506,001,2022-04-29_11h50.59.469,SPAMnetsValid,2021.1.4,MacIntel,62.5,,,,,,,,,,,,,,,,,,,,,,,,,,,,,,,,,,,,,,,,,,,,,,,,,,,,,,,,,,,,,,,,,,,,,,,,,,,,,,5,2.899,0,10,10,10,1,I have a lot of intellectual curiosity.,0,11,,
,,,,,,,,,,,,,,,90506,001,2022-04-29_11h50.59.469,SPAMnetsValid,2021.1.4,MacIntel,62.5,,,,,,,,,,,,,,,,,,,,,,,,,,,,,,,,,,,,,,,,,,,,,,,,,,,,,,,,,,,,,,,,,,,,,,,,,,,,,,4,3.333,0,11,11,11,1,I often enjoy playing with theories or abstract ideas.,0,12,,
,,,,,,,,,,,,,,,90506,001,2022-04-29_11h50.59.469,SPAMnetsValid,2021.1.4,MacIntel,62.5,,,,,,,,,,,,,,,,,,,,,,,,,,,,,,,,,,,,,,,,,,,,,,,,,,,,,,,,,,,,,,,,,,,,,,,,,,,,,,,,,,,,,,,,return,5.47
