key_resp_3.keys,key_resp_3.rt,slider_2.response,slider_2.rt,rjt_rating,rjt_RT,trials_24.thisRepN,trials_24.thisTrialN,trials_24.thisN,trials_24.thisIndex,trials_24.ran,rjt_order,word1,word2,attention,participant,session,date,expName,psychopyVersion,OS,frameRate,trials_4.thisRepN,trials_4.thisTrialN,trials_4.thisN,trials_4.thisIndex,trials_4.ran,trials_5.thisRepN,trials_5.thisTrialN,trials_5.thisN,trials_5.thisIndex,trials_5.ran,repOne,repTwo,slider.response,slider.rt,trials_22.thisRepN,trials_22.thisTrialN,trials_22.thisN,trials_22.thisIndex,trials_22.ran,trials_99.thisRepN,trials_99.thisTrialN,trials_99.thisN,trials_99.thisIndex,trials_99.ran,slider_extend_2.response,slider_extend_2.rt,trials_6.thisRepN,trials_6.thisTrialN,trials_6.thisN,trials_6.thisIndex,trials_6.ran,vCue2,R1,R2,R3,R4,correct,sliderVocab.response,sliderVocab.rt,trials_7.thisRepN,trials_7.thisTrialN,trials_7.thisN,trials_7.thisIndex,trials_7.ran,VocabCue,VR1,VR2,VR3,VR4,VR5,VocabCorrect,AUT_resp,AUT_label,trials.thisRepN,trials.thisTrialN,trials.thisN,trials.thisIndex,trials.ran,trials_2.thisRepN,trials_2.thisTrialN,trials_2.thisN,trials_2.thisIndex,trials_2.ran,aut_prompt,VF_response,VF_tag,trials_16.thisRepN,trials_16.thisTrialN,trials_16.thisN,trials_16.thisIndex,trials_16.ran,trials_17.thisRepN,trials_17.thisTrialN,trials_17.thisN,trials_17.thisIndex,trials_17.ran,VFcond,open_slider.response,open_slider.rt,trials_3.thisRepN,trials_3.thisTrialN,trials_3.thisN,trials_3.thisIndex,trials_3.ran,OpenQ,Rev,OPEN_ORDER,key_resp_2.keys,key_resp_2.rt
return,11.3009,1,4.154,1,4.154,0,0,0,81,1,104,garden,microwave,,90509,001,2022-04-28_21h29.52.323,SPAMnetsValid,2021.1.4,MacIntel,60.0024001,,,,,,,,,,,,,,,,,,,,,,,,,,,,,,,,,,,,,,,,,,,,,,,,,,,,,,,,,,,,,,,,,,,,,,,,,,,,,,,,,,,,,,,,,
,,3,7.7438,3,7.7438,0,1,1,33,1,131,cactus,garden,,90509,001,2022-04-28_21h29.52.323,SPAMnetsValid,2021.1.4,MacIntel,60.0024001,,,,,,,,,,,,,,,,,,,,,,,,,,,,,,,,,,,,,,,,,,,,,,,,,,,,,,,,,,,,,,,,,,,,,,,,,,,,,,,,,,,,,,,,,
,,7,9.0475,7,9.0475,0,2,2,27,1,158,cookie,oven,,90509,001,2022-04-28_21h29.52.323,SPAMnetsValid,2021.1.4,MacIntel,60.0024001,,,,,,,,,,,,,,,,,,,,,,,,,,,,,,,,,,,,,,,,,,,,,,,,,,,,,,,,,,,,,,,,,,,,,,,,,,,,,,,,,,,,,,,,,
,,1,5.1817,1,5.1817,0,3,3,24,1,169,onion,yogurt,,90509,001,2022-04-28_21h29.52.323,SPAMnetsValid,2021.1.4,MacIntel,60.0024001,,,,,,,,,,,,,,,,,,,,,,,,,,,,,,,,,,,,,,,,,,,,,,,,,,,,,,,,,,,,,,,,,,,,,,,,,,,,,,,,,,,,,,,,,
,,2,2.8314,2,2.8314,0,4,4,75,1,178,cactus,carrot,,90509,001,2022-04-28_21h29.52.323,SPAMnetsValid,2021.1.4,MacIntel,60.0024001,,,,,,,,,,,,,,,,,,,,,,,,,,,,,,,,,,,,,,,,,,,,,,,,,,,,,,,,,,,,,,,,,,,,,,,,,,,,,,,,,,,,,,,,,
,,1,2.3791,1,2.3791,0,5,5,13,1,105,cactus,oven,,90509,001,2022-04-28_21h29.52.323,SPAMnetsValid,2021.1.4,MacIntel,60.0024001,,,,,,,,,,,,,,,,,,,,,,,,,,,,,,,,,,,,,,,,,,,,,,,,,,,,,,,,,,,,,,,,,,,,,,,,,,,,,,,,,,,,,,,,,
,,2,2.7471,2,2.7471,0,6,6,18,1,119,strawberry,tree,,90509,001,2022-04-28_21h29.52.323,SPAMnetsValid,2021.1.4,MacIntel,60.0024001,,,,,,,,,,,,,,,,,,,,,,,,,,,,,,,,,,,,,,,,,,,,,,,,,,,,,,,,,,,,,,,,,,,,,,,,,,,,,,,,,,,,,,,,,
,,2,2.863,2,2.863,0,7,7,87,1,114,cookie,strawberry,,90509,001,2022-04-28_21h29.52.323,SPAMnetsValid,2021.1.4,MacIntel,60.0024001,,,,,,,,,,,,,,,,,,,,,,,,,,,,,,,,,,,,,,,,,,,,,,,,,,,,,,,,,,,,,,,,,,,,,,,,,,,,,,,,,,,,,,,,,
,,1,1.3966,1,1.3966,0,8,8,59,1,164,cookie,garden,,90509,001,2022-04-28_21h29.52.323,SPAMnetsValid,2021.1.4,MacIntel,60.0024001,,,,,,,,,,,,,,,,,,,,,,,,,,,,,,,,,,,,,,,,,,,,,,,,,,,,,,,,,,,,,,,,,,,,,,,,,,,,,,,,,,,,,,,,,
,,2,1.9625,2,1.9625,0,9,9,72,1,181,carrot,kitchen,,90509,001,2022-04-28_21h29.52.323,SPAMnetsValid,2021.1.4,MacIntel,60.0024001,,,,,,,,,,,,,,,,,,,,,,,,,,,,,,,,,,,,,,,,,,,,,,,,,,,,,,,,,,,,,,,,,,,,,,,,,,,,,,,,,,,,,,,,,
,,1,1.3798,1,1.3798,0,10,10,74,1,128,melon,microwave,,90509,001,2022-04-28_21h29.52.323,SPAMnetsValid,2021.1.4,MacIntel,60.0024001,,,,,,,,,,,,,,,,,,,,,,,,,,,,,,,,,,,,,,,,,,,,,,,,,,,,,,,,,,,,,,,,,,,,,,,,,,,,,,,,,,,,,,,,,
,,1,1.7793,1,1.7793,0,11,11,40,1,165,onion,rose,,90509,001,2022-04-28_21h29.52.323,SPAMnetsValid,2021.1.4,MacIntel,60.0024001,,,,,,,,,,,,,,,,,,,,,,,,,,,,,,,,,,,,,,,,,,,,,,,,,,,,,,,,,,,,,,,,,,,,,,,,,,,,,,,,,,,,,,,,,
,,2,1.6357,2,1.6357,0,12,12,19,1,183,cake,rose,,90509,001,2022-04-28_21h29.52.323,SPAMnetsValid,2021.1.4,MacIntel,60.0024001,,,,,,,,,,,,,,,,,,,,,,,,,,,,,,,,,,,,,,,,,,,,,,,,,,,,,,,,,,,,,,,,,,,,,,,,,,,,,,,,,,,,,,,,,
,,2,2.714,2,2.714,0,13,13,11,1,117,melon,strawberry,,90509,001,2022-04-28_21h29.52.323,SPAMnetsValid,2021.1.4,MacIntel,60.0024001,,,,,,,,,,,,,,,,,,,,,,,,,,,,,,,,,,,,,,,,,,,,,,,,,,,,,,,,,,,,,,,,,,,,,,,,,,,,,,,,,,,,,,,,,
,,1,1.2464,1,1.2464,0,14,14,57,1,127,cactus,chocolate,,90509,001,2022-04-28_21h29.52.323,SPAMnetsValid,2021.1.4,MacIntel,60.0024001,,,,,,,,,,,,,,,,,,,,,,,,,,,,,,,,,,,,,,,,,,,,,,,,,,,,,,,,,,,,,,,,,,,,,,,,,,,,,,,,,,,,,,,,,
,,2,1.5818,2,1.5818,0,15,15,30,1,125,carrot,tree,,90509,001,2022-04-28_21h29.52.323,SPAMnetsValid,2021.1.4,MacIntel,60.0024001,,,,,,,,,,,,,,,,,,,,,,,,,,,,,,,,,,,,,,,,,,,,,,,,,,,,,,,,,,,,,,,,,,,,,,,,,,,,,,,,,,,,,,,,,
,,1,1.2299,1,1.2299,0,16,16,78,1,132,broom,tree,,90509,001,2022-04-28_21h29.52.323,SPAMnetsValid,2021.1.4,MacIntel,60.0024001,,,,,,,,,,,,,,,,,,,,,,,,,,,,,,,,,,,,,,,,,,,,,,,,,,,,,,,,,,,,,,,,,,,,,,,,,,,,,,,,,,,,,,,,,
,,9,2.3477,9,2.3477,0,17,17,86,1,193,melon,melon,CHECK,90509,001,2022-04-28_21h29.52.323,SPAMnetsValid,2021.1.4,MacIntel,60.0024001,,,,,,,,,,,,,,,,,,,,,,,,,,,,,,,,,,,,,,,,,,,,,,,,,,,,,,,,,,,,,,,,,,,,,,,,,,,,,,,,,,,,,,,,,
,,1,1.7806,1,1.7806,0,18,18,16,1,111,carrot,microwave,,90509,001,2022-04-28_21h29.52.323,SPAMnetsValid,2021.1.4,MacIntel,60.0024001,,,,,,,,,,,,,,,,,,,,,,,,,,,,,,,,,,,,,,,,,,,,,,,,,,,,,,,,,,,,,,,,,,,,,,,,,,,,,,,,,,,,,,,,,
,,3,2.829,3,2.829,0,19,19,53,1,177,chocolate,strawberry,,90509,001,2022-04-28_21h29.52.323,SPAMnetsValid,2021.1.4,MacIntel,60.0024001,,,,,,,,,,,,,,,,,,,,,,,,,,,,,,,,,,,,,,,,,,,,,,,,,,,,,,,,,,,,,,,,,,,,,,,,,,,,,,,,,,,,,,,,,
,,1,1.3954,1,1.3954,0,20,20,62,1,189,onion,tree,,90509,001,2022-04-28_21h29.52.323,SPAMnetsValid,2021.1.4,MacIntel,60.0024001,,,,,,,,,,,,,,,,,,,,,,,,,,,,,,,,,,,,,,,,,,,,,,,,,,,,,,,,,,,,,,,,,,,,,,,,,,,,,,,,,,,,,,,,,
,,2,1.6466,2,1.6466,0,21,21,0,1,106,cake,strawberry,,90509,001,2022-04-28_21h29.52.323,SPAMnetsValid,2021.1.4,MacIntel,60.0024001,,,,,,,,,,,,,,,,,,,,,,,,,,,,,,,,,,,,,,,,,,,,,,,,,,,,,,,,,,,,,,,,,,,,,,,,,,,,,,,,,,,,,,,,,
,,4,4.8294,4,4.8294,0,22,22,61,1,138,flower,rose,,90509,001,2022-04-28_21h29.52.323,SPAMnetsValid,2021.1.4,MacIntel,60.0024001,,,,,,,,,,,,,,,,,,,,,,,,,,,,,,,,,,,,,,,,,,,,,,,,,,,,,,,,,,,,,,,,,,,,,,,,,,,,,,,,,,,,,,,,,
,,1,4.4483,1,4.4483,0,23,23,6,1,151,microwave,onion,,90509,001,2022-04-28_21h29.52.323,SPAMnetsValid,2021.1.4,MacIntel,60.0024001,,,,,,,,,,,,,,,,,,,,,,,,,,,,,,,,,,,,,,,,,,,,,,,,,,,,,,,,,,,,,,,,,,,,,,,,,,,,,,,,,,,,,,,,,
,,2,1.5128,2,1.5128,0,24,24,1,1,173,kitchen,tomato,,90509,001,2022-04-28_21h29.52.323,SPAMnetsValid,2021.1.4,MacIntel,60.0024001,,,,,,,,,,,,,,,,,,,,,,,,,,,,,,,,,,,,,,,,,,,,,,,,,,,,,,,,,,,,,,,,,,,,,,,,,,,,,,,,,,,,,,,,,
,,3,3.997,3,3.997,0,25,25,22,1,142,garden,tree,,90509,001,2022-04-28_21h29.52.323,SPAMnetsValid,2021.1.4,MacIntel,60.0024001,,,,,,,,,,,,,,,,,,,,,,,,,,,,,,,,,,,,,,,,,,,,,,,,,,,,,,,,,,,,,,,,,,,,,,,,,,,,,,,,,,,,,,,,,
,,1,1.3134,1,1.3134,0,26,26,85,1,115,refrigerator,tomato,,90509,001,2022-04-28_21h29.52.323,SPAMnetsValid,2021.1.4,MacIntel,60.0024001,,,,,,,,,,,,,,,,,,,,,,,,,,,,,,,,,,,,,,,,,,,,,,,,,,,,,,,,,,,,,,,,,,,,,,,,,,,,,,,,,,,,,,,,,
,,1,1.1801,1,1.1801,0,27,27,34,1,153,carrot,pretzel,,90509,001,2022-04-28_21h29.52.323,SPAMnetsValid,2021.1.4,MacIntel,60.0024001,,,,,,,,,,,,,,,,,,,,,,,,,,,,,,,,,,,,,,,,,,,,,,,,,,,,,,,,,,,,,,,,,,,,,,,,,,,,,,,,,,,,,,,,,
,,2,1.7622,2,1.7622,0,28,28,70,1,141,melon,tomato,,90509,001,2022-04-28_21h29.52.323,SPAMnetsValid,2021.1.4,MacIntel,60.0024001,,,,,,,,,,,,,,,,,,,,,,,,,,,,,,,,,,,,,,,,,,,,,,,,,,,,,,,,,,,,,,,,,,,,,,,,,,,,,,,,,,,,,,,,,
,,1,1.6317,1,1.6317,0,29,29,15,1,145,cactus,yogurt,,90509,001,2022-04-28_21h29.52.323,SPAMnetsValid,2021.1.4,MacIntel,60.0024001,,,,,,,,,,,,,,,,,,,,,,,,,,,,,,,,,,,,,,,,,,,,,,,,,,,,,,,,,,,,,,,,,,,,,,,,,,,,,,,,,,,,,,,,,
,,3,3.0814,3,3.0814,0,30,30,89,1,140,cookie,refrigerator,,90509,001,2022-04-28_21h29.52.323,SPAMnetsValid,2021.1.4,MacIntel,60.0024001,,,,,,,,,,,,,,,,,,,,,,,,,,,,,,,,,,,,,,,,,,,,,,,,,,,,,,,,,,,,,,,,,,,,,,,,,,,,,,,,,,,,,,,,,
,,3,2.4964,3,2.4964,0,31,31,92,1,170,cookie,microwave,,90509,001,2022-04-28_21h29.52.323,SPAMnetsValid,2021.1.4,MacIntel,60.0024001,,,,,,,,,,,,,,,,,,,,,,,,,,,,,,,,,,,,,,,,,,,,,,,,,,,,,,,,,,,,,,,,,,,,,,,,,,,,,,,,,,,,,,,,,
,,3,1.8135,3,1.8135,0,32,32,65,1,160,cookie,kitchen,,90509,001,2022-04-28_21h29.52.323,SPAMnetsValid,2021.1.4,MacIntel,60.0024001,,,,,,,,,,,,,,,,,,,,,,,,,,,,,,,,,,,,,,,,,,,,,,,,,,,,,,,,,,,,,,,,,,,,,,,,,,,,,,,,,,,,,,,,,
,,1,3.8618,1,3.8618,0,33,33,5,1,108,carrot,chocolate,,90509,001,2022-04-28_21h29.52.323,SPAMnetsValid,2021.1.4,MacIntel,60.0024001,,,,,,,,,,,,,,,,,,,,,,,,,,,,,,,,,,,,,,,,,,,,,,,,,,,,,,,,,,,,,,,,,,,,,,,,,,,,,,,,,,,,,,,,,
,,2,3.1953,2,3.1953,0,34,34,8,1,97,chocolate,kitchen,,90509,001,2022-04-28_21h29.52.323,SPAMnetsValid,2021.1.4,MacIntel,60.0024001,,,,,,,,,,,,,,,,,,,,,,,,,,,,,,,,,,,,,,,,,,,,,,,,,,,,,,,,,,,,,,,,,,,,,,,,,,,,,,,,,,,,,,,,,
,,1,1.7306,1,1.7306,0,35,35,12,1,162,microwave,tomato,,90509,001,2022-04-28_21h29.52.323,SPAMnetsValid,2021.1.4,MacIntel,60.0024001,,,,,,,,,,,,,,,,,,,,,,,,,,,,,,,,,,,,,,,,,,,,,,,,,,,,,,,,,,,,,,,,,,,,,,,,,,,,,,,,,,,,,,,,,
,,1,1.8125,1,1.8125,0,36,36,91,1,166,cake,yogurt,,90509,001,2022-04-28_21h29.52.323,SPAMnetsValid,2021.1.4,MacIntel,60.0024001,,,,,,,,,,,,,,,,,,,,,,,,,,,,,,,,,,,,,,,,,,,,,,,,,,,,,,,,,,,,,,,,,,,,,,,,,,,,,,,,,,,,,,,,,
,,2,1.5806,2,1.5806,0,37,37,37,1,139,carrot,strawberry,,90509,001,2022-04-28_21h29.52.323,SPAMnetsValid,2021.1.4,MacIntel,60.0024001,,,,,,,,,,,,,,,,,,,,,,,,,,,,,,,,,,,,,,,,,,,,,,,,,,,,,,,,,,,,,,,,,,,,,,,,,,,,,,,,,,,,,,,,,
,,2,1.5644,2,1.5644,0,38,38,83,1,100,garden,tomato,,90509,001,2022-04-28_21h29.52.323,SPAMnetsValid,2021.1.4,MacIntel,60.0024001,,,,,,,,,,,,,,,,,,,,,,,,,,,,,,,,,,,,,,,,,,,,,,,,,,,,,,,,,,,,,,,,,,,,,,,,,,,,,,,,,,,,,,,,,
,,1,1.214,1,1.214,0,39,39,64,1,157,refrigerator,rose,,90509,001,2022-04-28_21h29.52.323,SPAMnetsValid,2021.1.4,MacIntel,60.0024001,,,,,,,,,,,,,,,,,,,,,,,,,,,,,,,,,,,,,,,,,,,,,,,,,,,,,,,,,,,,,,,,,,,,,,,,,,,,,,,,,,,,,,,,,
,,2,1.6805,2,1.6805,0,40,40,43,1,185,cactus,rose,,90509,001,2022-04-28_21h29.52.323,SPAMnetsValid,2021.1.4,MacIntel,60.0024001,,,,,,,,,,,,,,,,,,,,,,,,,,,,,,,,,,,,,,,,,,,,,,,,,,,,,,,,,,,,,,,,,,,,,,,,,,,,,,,,,,,,,,,,,
,,1,2.0468,1,2.0468,0,41,41,95,1,121,broom,microwave,,90509,001,2022-04-28_21h29.52.323,SPAMnetsValid,2021.1.4,MacIntel,60.0024001,,,,,,,,,,,,,,,,,,,,,,,,,,,,,,,,,,,,,,,,,,,,,,,,,,,,,,,,,,,,,,,,,,,,,,,,,,,,,,,,,,,,,,,,,
,,2,1.7453,2,1.7453,0,42,42,93,1,134,carrot,flower,,90509,001,2022-04-28_21h29.52.323,SPAMnetsValid,2021.1.4,MacIntel,60.0024001,,,,,,,,,,,,,,,,,,,,,,,,,,,,,,,,,,,,,,,,,,,,,,,,,,,,,,,,,,,,,,,,,,,,,,,,,,,,,,,,,,,,,,,,,
,,2,1.9937,2,1.9937,0,43,43,2,1,174,cake,pretzel,,90509,001,2022-04-28_21h29.52.323,SPAMnetsValid,2021.1.4,MacIntel,60.0024001,,,,,,,,,,,,,,,,,,,,,,,,,,,,,,,,,,,,,,,,,,,,,,,,,,,,,,,,,,,,,,,,,,,,,,,,,,,,,,,,,,,,,,,,,
,,1,1.3455,1,1.3455,0,44,44,80,1,146,pretzel,tree,,90509,001,2022-04-28_21h29.52.323,SPAMnetsValid,2021.1.4,MacIntel,60.0024001,,,,,,,,,,,,,,,,,,,,,,,,,,,,,,,,,,,,,,,,,,,,,,,,,,,,,,,,,,,,,,,,,,,,,,,,,,,,,,,,,,,,,,,,,
,,1,1.5679,1,1.5679,0,45,45,84,1,130,microwave,yogurt,,90509,001,2022-04-28_21h29.52.323,SPAMnetsValid,2021.1.4,MacIntel,60.0024001,,,,,,,,,,,,,,,,,,,,,,,,,,,,,,,,,,,,,,,,,,,,,,,,,,,,,,,,,,,,,,,,,,,,,,,,,,,,,,,,,,,,,,,,,
,,1,1.4128,1,1.4128,0,46,46,55,1,143,pretzel,rose,,90509,001,2022-04-28_21h29.52.323,SPAMnetsValid,2021.1.4,MacIntel,60.0024001,,,,,,,,,,,,,,,,,,,,,,,,,,,,,,,,,,,,,,,,,,,,,,,,,,,,,,,,,,,,,,,,,,,,,,,,,,,,,,,,,,,,,,,,,
,,3,4.564,3,4.564,0,47,47,44,1,116,cake,chocolate,,90509,001,2022-04-28_21h29.52.323,SPAMnetsValid,2021.1.4,MacIntel,60.0024001,,,,,,,,,,,,,,,,,,,,,,,,,,,,,,,,,,,,,,,,,,,,,,,,,,,,,,,,,,,,,,,,,,,,,,,,,,,,,,,,,,,,,,,,,
,,9,2.4784,9,2.4784,0,48,48,25,1,194,cactus,cactus,CHECK,90509,001,2022-04-28_21h29.52.323,SPAMnetsValid,2021.1.4,MacIntel,60.0024001,,,,,,,,,,,,,,,,,,,,,,,,,,,,,,,,,,,,,,,,,,,,,,,,,,,,,,,,,,,,,,,,,,,,,,,,,,,,,,,,,,,,,,,,,
,,1,2.5139,1,2.5139,0,49,49,10,1,118,chocolate,oven,,90509,001,2022-04-28_21h29.52.323,SPAMnetsValid,2021.1.4,MacIntel,60.0024001,,,,,,,,,,,,,,,,,,,,,,,,,,,,,,,,,,,,,,,,,,,,,,,,,,,,,,,,,,,,,,,,,,,,,,,,,,,,,,,,,,,,,,,,,
,,1,5.0816,1,5.0816,0,50,50,35,1,147,cake,refrigerator,,90509,001,2022-04-28_21h29.52.323,SPAMnetsValid,2021.1.4,MacIntel,60.0024001,,,,,,,,,,,,,,,,,,,,,,,,,,,,,,,,,,,,,,,,,,,,,,,,,,,,,,,,,,,,,,,,,,,,,,,,,,,,,,,,,,,,,,,,,
,,2,3.0627,2,3.0627,0,51,51,82,1,98,pretzel,strawberry,,90509,001,2022-04-28_21h29.52.323,SPAMnetsValid,2021.1.4,MacIntel,60.0024001,,,,,,,,,,,,,,,,,,,,,,,,,,,,,,,,,,,,,,,,,,,,,,,,,,,,,,,,,,,,,,,,,,,,,,,,,,,,,,,,,,,,,,,,,
,,1,1.2994,1,1.2994,0,52,52,26,1,107,rose,tomato,,90509,001,2022-04-28_21h29.52.323,SPAMnetsValid,2021.1.4,MacIntel,60.0024001,,,,,,,,,,,,,,,,,,,,,,,,,,,,,,,,,,,,,,,,,,,,,,,,,,,,,,,,,,,,,,,,,,,,,,,,,,,,,,,,,,,,,,,,,
,,1,3.3471,1,3.3471,0,53,53,96,1,136,chocolate,microwave,,90509,001,2022-04-28_21h29.52.323,SPAMnetsValid,2021.1.4,MacIntel,60.0024001,,,,,,,,,,,,,,,,,,,,,,,,,,,,,,,,,,,,,,,,,,,,,,,,,,,,,,,,,,,,,,,,,,,,,,,,,,,,,,,,,,,,,,,,,
,,3,2.1474,3,2.1474,0,54,54,39,1,112,cake,carrot,,90509,001,2022-04-28_21h29.52.323,SPAMnetsValid,2021.1.4,MacIntel,60.0024001,,,,,,,,,,,,,,,,,,,,,,,,,,,,,,,,,,,,,,,,,,,,,,,,,,,,,,,,,,,,,,,,,,,,,,,,,,,,,,,,,,,,,,,,,
,,2,1.5977,2,1.5977,0,55,55,77,1,172,kitchen,melon,,90509,001,2022-04-28_21h29.52.323,SPAMnetsValid,2021.1.4,MacIntel,60.0024001,,,,,,,,,,,,,,,,,,,,,,,,,,,,,,,,,,,,,,,,,,,,,,,,,,,,,,,,,,,,,,,,,,,,,,,,,,,,,,,,,,,,,,,,,
,,2,1.9304,2,1.9304,0,56,56,52,1,110,chocolate,cookie,,90509,001,2022-04-28_21h29.52.323,SPAMnetsValid,2021.1.4,MacIntel,60.0024001,,,,,,,,,,,,,,,,,,,,,,,,,,,,,,,,,,,,,,,,,,,,,,,,,,,,,,,,,,,,,,,,,,,,,,,,,,,,,,,,,,,,,,,,,
,,1,3.229,1,3.229,0,57,57,49,1,152,cactus,strawberry,,90509,001,2022-04-28_21h29.52.323,SPAMnetsValid,2021.1.4,MacIntel,60.0024001,,,,,,,,,,,,,,,,,,,,,,,,,,,,,,,,,,,,,,,,,,,,,,,,,,,,,,,,,,,,,,,,,,,,,,,,,,,,,,,,,,,,,,,,,
,,2,2.5132,2,2.5132,0,58,58,20,1,149,broom,tomato,,90509,001,2022-04-28_21h29.52.323,SPAMnetsValid,2021.1.4,MacIntel,60.0024001,,,,,,,,,,,,,,,,,,,,,,,,,,,,,,,,,,,,,,,,,,,,,,,,,,,,,,,,,,,,,,,,,,,,,,,,,,,,,,,,,,,,,,,,,
,,1,1.2638,1,1.2638,0,59,59,58,1,144,cake,garden,,90509,001,2022-04-28_21h29.52.323,SPAMnetsValid,2021.1.4,MacIntel,60.0024001,,,,,,,,,,,,,,,,,,,,,,,,,,,,,,,,,,,,,,,,,,,,,,,,,,,,,,,,,,,,,,,,,,,,,,,,,,,,,,,,,,,,,,,,,
,,2,1.1811,2,1.1811,0,60,60,7,1,188,flower,tree,,90509,001,2022-04-28_21h29.52.323,SPAMnetsValid,2021.1.4,MacIntel,60.0024001,,,,,,,,,,,,,,,,,,,,,,,,,,,,,,,,,,,,,,,,,,,,,,,,,,,,,,,,,,,,,,,,,,,,,,,,,,,,,,,,,,,,,,,,,
,,2,2.2309,2,2.2309,0,61,61,48,1,186,kitchen,yogurt,,90509,001,2022-04-28_21h29.52.323,SPAMnetsValid,2021.1.4,MacIntel,60.0024001,,,,,,,,,,,,,,,,,,,,,,,,,,,,,,,,,,,,,,,,,,,,,,,,,,,,,,,,,,,,,,,,,,,,,,,,,,,,,,,,,,,,,,,,,
,,1,1.3306,1,1.3306,0,62,62,94,1,133,cake,flower,,90509,001,2022-04-28_21h29.52.323,SPAMnetsValid,2021.1.4,MacIntel,60.0024001,,,,,,,,,,,,,,,,,,,,,,,,,,,,,,,,,,,,,,,,,,,,,,,,,,,,,,,,,,,,,,,,,,,,,,,,,,,,,,,,,,,,,,,,,
,,1,1.313,1,1.313,0,63,63,54,1,101,cactus,kitchen,,90509,001,2022-04-28_21h29.52.323,SPAMnetsValid,2021.1.4,MacIntel,60.0024001,,,,,,,,,,,,,,,,,,,,,,,,,,,,,,,,,,,,,,,,,,,,,,,,,,,,,,,,,,,,,,,,,,,,,,,,,,,,,,,,,,,,,,,,,
,,1,1.4791,1,1.4791,0,64,64,71,1,187,cactus,microwave,,90509,001,2022-04-28_21h29.52.323,SPAMnetsValid,2021.1.4,MacIntel,60.0024001,,,,,,,,,,,,,,,,,,,,,,,,,,,,,,,,,,,,,,,,,,,,,,,,,,,,,,,,,,,,,,,,,,,,,,,,,,,,,,,,,,,,,,,,,
,,2,1.3646,2,1.3646,0,65,65,38,1,155,carrot,cookie,,90509,001,2022-04-28_21h29.52.323,SPAMnetsValid,2021.1.4,MacIntel,60.0024001,,,,,,,,,,,,,,,,,,,,,,,,,,,,,,,,,,,,,,,,,,,,,,,,,,,,,,,,,,,,,,,,,,,,,,,,,,,,,,,,,,,,,,,,,
,,3,2.4456,3,2.4456,0,66,66,60,1,122,flower,garden,,90509,001,2022-04-28_21h29.52.323,SPAMnetsValid,2021.1.4,MacIntel,60.0024001,,,,,,,,,,,,,,,,,,,,,,,,,,,,,,,,,,,,,,,,,,,,,,,,,,,,,,,,,,,,,,,,,,,,,,,,,,,,,,,,,,,,,,,,,
,,1,1.6634,1,1.6634,0,67,67,21,1,159,cookie,flower,,90509,001,2022-04-28_21h29.52.323,SPAMnetsValid,2021.1.4,MacIntel,60.0024001,,,,,,,,,,,,,,,,,,,,,,,,,,,,,,,,,,,,,,,,,,,,,,,,,,,,,,,,,,,,,,,,,,,,,,,,,,,,,,,,,,,,,,,,,
,,2,2.4301,2,2.4301,0,68,68,9,1,176,cactus,tomato,,90509,001,2022-04-28_21h29.52.323,SPAMnetsValid,2021.1.4,MacIntel,60.0024001,,,,,,,,,,,,,,,,,,,,,,,,,,,,,,,,,,,,,,,,,,,,,,,,,,,,,,,,,,,,,,,,,,,,,,,,,,,,,,,,,,,,,,,,,
,,1,1.3634,1,1.3634,0,69,69,36,1,161,kitchen,pretzel,,90509,001,2022-04-28_21h29.52.323,SPAMnetsValid,2021.1.4,MacIntel,60.0024001,,,,,,,,,,,,,,,,,,,,,,,,,,,,,,,,,,,,,,,,,,,,,,,,,,,,,,,,,,,,,,,,,,,,,,,,,,,,,,,,,,,,,,,,,
,,1,2.1142,1,2.1142,0,70,70,67,1,96,oven,strawberry,,90509,001,2022-04-28_21h29.52.323,SPAMnetsValid,2021.1.4,MacIntel,60.0024001,,,,,,,,,,,,,,,,,,,,,,,,,,,,,,,,,,,,,,,,,,,,,,,,,,,,,,,,,,,,,,,,,,,,,,,,,,,,,,,,,,,,,,,,,
,,1,1.7471,1,1.7471,0,71,71,45,1,179,broom,oven,,90509,001,2022-04-28_21h29.52.323,SPAMnetsValid,2021.1.4,MacIntel,60.0024001,,,,,,,,,,,,,,,,,,,,,,,,,,,,,,,,,,,,,,,,,,,,,,,,,,,,,,,,,,,,,,,,,,,,,,,,,,,,,,,,,,,,,,,,,
,,1,1.6479,1,1.6479,0,72,72,63,1,137,microwave,tree,,90509,001,2022-04-28_21h29.52.323,SPAMnetsValid,2021.1.4,MacIntel,60.0024001,,,,,,,,,,,,,,,,,,,,,,,,,,,,,,,,,,,,,,,,,,,,,,,,,,,,,,,,,,,,,,,,,,,,,,,,,,,,,,,,,,,,,,,,,
,,2,1.4969,2,1.4969,0,73,73,56,1,113,refrigerator,strawberry,,90509,001,2022-04-28_21h29.52.323,SPAMnetsValid,2021.1.4,MacIntel,60.0024001,,,,,,,,,,,,,,,,,,,,,,,,,,,,,,,,,,,,,,,,,,,,,,,,,,,,,,,,,,,,,,,,,,,,,,,,,,,,,,,,,,,,,,,,,
,,1,1.6656,1,1.6656,0,74,74,50,1,126,kitchen,tree,,90509,001,2022-04-28_21h29.52.323,SPAMnetsValid,2021.1.4,MacIntel,60.0024001,,,,,,,,,,,,,,,,,,,,,,,,,,,,,,,,,,,,,,,,,,,,,,,,,,,,,,,,,,,,,,,,,,,,,,,,,,,,,,,,,,,,,,,,,
,,3,2.263,3,2.263,0,75,75,69,1,124,oven,refrigerator,,90509,001,2022-04-28_21h29.52.323,SPAMnetsValid,2021.1.4,MacIntel,60.0024001,,,,,,,,,,,,,,,,,,,,,,,,,,,,,,,,,,,,,,,,,,,,,,,,,,,,,,,,,,,,,,,,,,,,,,,,,,,,,,,,,,,,,,,,,
,,1,1.4982,1,1.4982,0,76,76,76,1,102,chocolate,refrigerator,,90509,001,2022-04-28_21h29.52.323,SPAMnetsValid,2021.1.4,MacIntel,60.0024001,,,,,,,,,,,,,,,,,,,,,,,,,,,,,,,,,,,,,,,,,,,,,,,,,,,,,,,,,,,,,,,,,,,,,,,,,,,,,,,,,,,,,,,,,
,,1,2.8845,1,2.8845,0,77,77,90,1,190,microwave,strawberry,,90509,001,2022-04-28_21h29.52.323,SPAMnetsValid,2021.1.4,MacIntel,60.0024001,,,,,,,,,,,,,,,,,,,,,,,,,,,,,,,,,,,,,,,,,,,,,,,,,,,,,,,,,,,,,,,,,,,,,,,,,,,,,,,,,,,,,,,,,
,,2,1.5308,2,1.5308,0,78,78,17,1,99,garden,melon,,90509,001,2022-04-28_21h29.52.323,SPAMnetsValid,2021.1.4,MacIntel,60.0024001,,,,,,,,,,,,,,,,,,,,,,,,,,,,,,,,,,,,,,,,,,,,,,,,,,,,,,,,,,,,,,,,,,,,,,,,,,,,,,,,,,,,,,,,,
,,1,2.0163,1,2.0163,0,79,79,73,1,135,carrot,oven,,90509,001,2022-04-28_21h29.52.323,SPAMnetsValid,2021.1.4,MacIntel,60.0024001,,,,,,,,,,,,,,,,,,,,,,,,,,,,,,,,,,,,,,,,,,,,,,,,,,,,,,,,,,,,,,,,,,,,,,,,,,,,,,,,,,,,,,,,,
,,1,1.4808,1,1.4808,0,80,80,3,1,129,cactus,refrigerator,,90509,001,2022-04-28_21h29.52.323,SPAMnetsValid,2021.1.4,MacIntel,60.0024001,,,,,,,,,,,,,,,,,,,,,,,,,,,,,,,,,,,,,,,,,,,,,,,,,,,,,,,,,,,,,,,,,,,,,,,,,,,,,,,,,,,,,,,,,
,,1,1.5476,1,1.5476,0,81,81,68,1,180,tree,yogurt,,90509,001,2022-04-28_21h29.52.323,SPAMnetsValid,2021.1.4,MacIntel,60.0024001,,,,,,,,,,,,,,,,,,,,,,,,,,,,,,,,,,,,,,,,,,,,,,,,,,,,,,,,,,,,,,,,,,,,,,,,,,,,,,,,,,,,,,,,,
,,1,1.4479,1,1.4479,0,82,82,32,1,182,flower,refrigerator,,90509,001,2022-04-28_21h29.52.323,SPAMnetsValid,2021.1.4,MacIntel,60.0024001,,,,,,,,,,,,,,,,,,,,,,,,,,,,,,,,,,,,,,,,,,,,,,,,,,,,,,,,,,,,,,,,,,,,,,,,,,,,,,,,,,,,,,,,,
,,1,1.4322,1,1.4322,0,83,83,31,1,156,melon,rose,,90509,001,2022-04-28_21h29.52.323,SPAMnetsValid,2021.1.4,MacIntel,60.0024001,,,,,,,,,,,,,,,,,,,,,,,,,,,,,,,,,,,,,,,,,,,,,,,,,,,,,,,,,,,,,,,,,,,,,,,,,,,,,,,,,,,,,,,,,
,,3,1.9637,3,1.9637,0,84,84,28,1,154,strawberry,yogurt,,90509,001,2022-04-28_21h29.52.323,SPAMnetsValid,2021.1.4,MacIntel,60.0024001,,,,,,,,,,,,,,,,,,,,,,,,,,,,,,,,,,,,,,,,,,,,,,,,,,,,,,,,,,,,,,,,,,,,,,,,,,,,,,,,,,,,,,,,,
,,1,1.1837,1,1.1837,0,85,85,79,1,103,pretzel,tomato,,90509,001,2022-04-28_21h29.52.323,SPAMnetsValid,2021.1.4,MacIntel,60.0024001,,,,,,,,,,,,,,,,,,,,,,,,,,,,,,,,,,,,,,,,,,,,,,,,,,,,,,,,,,,,,,,,,,,,,,,,,,,,,,,,,,,,,,,,,
,,1,1.266,1,1.266,0,86,86,29,1,163,melon,refrigerator,,90509,001,2022-04-28_21h29.52.323,SPAMnetsValid,2021.1.4,MacIntel,60.0024001,,,,,,,,,,,,,,,,,,,,,,,,,,,,,,,,,,,,,,,,,,,,,,,,,,,,,,,,,,,,,,,,,,,,,,,,,,,,,,,,,,,,,,,,,
,,1,1.4323,1,1.4323,0,87,87,41,1,175,melon,onion,,90509,001,2022-04-28_21h29.52.323,SPAMnetsValid,2021.1.4,MacIntel,60.0024001,,,,,,,,,,,,,,,,,,,,,,,,,,,,,,,,,,,,,,,,,,,,,,,,,,,,,,,,,,,,,,,,,,,,,,,,,,,,,,,,,,,,,,,,,
,,1,1.1979,1,1.1979,0,88,88,42,1,184,oven,pretzel,,90509,001,2022-04-28_21h29.52.323,SPAMnetsValid,2021.1.4,MacIntel,60.0024001,,,,,,,,,,,,,,,,,,,,,,,,,,,,,,,,,,,,,,,,,,,,,,,,,,,,,,,,,,,,,,,,,,,,,,,,,,,,,,,,,,,,,,,,,
,,1,1.5146,1,1.5146,0,89,89,4,1,109,broom,strawberry,,90509,001,2022-04-28_21h29.52.323,SPAMnetsValid,2021.1.4,MacIntel,60.0024001,,,,,,,,,,,,,,,,,,,,,,,,,,,,,,,,,,,,,,,,,,,,,,,,,,,,,,,,,,,,,,,,,,,,,,,,,,,,,,,,,,,,,,,,,
,,2,2.8155,2,2.8155,0,90,90,51,1,168,cactus,flower,,90509,001,2022-04-28_21h29.52.323,SPAMnetsValid,2021.1.4,MacIntel,60.0024001,,,,,,,,,,,,,,,,,,,,,,,,,,,,,,,,,,,,,,,,,,,,,,,,,,,,,,,,,,,,,,,,,,,,,,,,,,,,,,,,,,,,,,,,,
,,2,1.7809,2,1.7809,0,91,91,47,1,167,carrot,garden,,90509,001,2022-04-28_21h29.52.323,SPAMnetsValid,2021.1.4,MacIntel,60.0024001,,,,,,,,,,,,,,,,,,,,,,,,,,,,,,,,,,,,,,,,,,,,,,,,,,,,,,,,,,,,,,,,,,,,,,,,,,,,,,,,,,,,,,,,,
,,1,1.2493,1,1.2493,0,92,92,88,1,171,cake,tomato,,90509,001,2022-04-28_21h29.52.323,SPAMnetsValid,2021.1.4,MacIntel,60.0024001,,,,,,,,,,,,,,,,,,,,,,,,,,,,,,,,,,,,,,,,,,,,,,,,,,,,,,,,,,,,,,,,,,,,,,,,,,,,,,,,,,,,,,,,,
,,3,2.2651,3,2.2651,0,93,93,66,1,150,microwave,refrigerator,,90509,001,2022-04-28_21h29.52.323,SPAMnetsValid,2021.1.4,MacIntel,60.0024001,,,,,,,,,,,,,,,,,,,,,,,,,,,,,,,,,,,,,,,,,,,,,,,,,,,,,,,,,,,,,,,,,,,,,,,,,,,,,,,,,,,,,,,,,
,,1,1.6807,1,1.6807,0,94,94,23,1,148,flower,melon,,90509,001,2022-04-28_21h29.52.323,SPAMnetsValid,2021.1.4,MacIntel,60.0024001,,,,,,,,,,,,,,,,,,,,,,,,,,,,,,,,,,,,,,,,,,,,,,,,,,,,,,,,,,,,,,,,,,,,,,,,,,,,,,,,,,,,,,,,,
,,3,1.6973,3,1.6973,0,95,95,14,1,120,microwave,oven,,90509,001,2022-04-28_21h29.52.323,SPAMnetsValid,2021.1.4,MacIntel,60.0024001,,,,,,,,,,,,,,,,,,,,,,,,,,,,,,,,,,,,,,,,,,,,,,,,,,,,,,,,,,,,,,,,,,,,,,,,,,,,,,,,,,,,,,,,,
,,1,1.7123,1,1.7123,0,96,96,46,1,123,cookie,tree,,90509,001,2022-04-28_21h29.52.323,SPAMnetsValid,2021.1.4,MacIntel,60.0024001,,,,,,,,,,,,,,,,,,,,,,,,,,,,,,,,,,,,,,,,,,,,,,,,,,,,,,,,,,,,,,,,,,,,,,,,,,,,,,,,,,,,,,,,,
,,,,,,,,,,,,,,,90509,001,2022-04-28_21h29.52.323,SPAMnetsValid,2021.1.4,MacIntel,60.0024001,0,0,0,0,1,,,,,,,,,,,,,,,,,,,,,,,,,,,,,,,,,,,,,,,,,,,,,,,,,,,,,,,,,,,,,,,,,,,,,,,,,,,,,,,,,,,,
,,,,,,,,,,,,,,,90509,001,2022-04-28_21h29.52.323,SPAMnetsValid,2021.1.4,MacIntel,60.0024001,,,,,,0,0,0,1,1,0,1,,,,,,,,,,,,,,,,,,,,,,,,,,,,,,,,,,,,,,,,,,,,,,,,,,,,,,,,,,,,,,,,,,,,,,,,,,,,,
,,,,1,5.232,,,,,,18,onion,refrigerator,,90509,001,2022-04-28_21h29.52.323,SPAMnetsValid,2021.1.4,MacIntel,60.0024001,,,,,,,,,,,,,1,5.232,0,0,0,62,1,,,,,,,,,,,,,,,,,,,,,,,,,,,,,,,,,,,,,,,,,,,,,,,,,,,,,,,,,,,,,,,,,,,,,,
,,,,1,1.3981,,,,,,14,broom,cookie,,90509,001,2022-04-28_21h29.52.323,SPAMnetsValid,2021.1.4,MacIntel,60.0024001,,,,,,,,,,,,,1,1.3981,0,1,1,16,1,,,,,,,,,,,,,,,,,,,,,,,,,,,,,,,,,,,,,,,,,,,,,,,,,,,,,,,,,,,,,,,,,,,,,,
,,,,1,1.882,,,,,,5,oven,tree,,90509,001,2022-04-28_21h29.52.323,SPAMnetsValid,2021.1.4,MacIntel,60.0024001,,,,,,,,,,,,,1,1.882,0,2,2,70,1,,,,,,,,,,,,,,,,,,,,,,,,,,,,,,,,,,,,,,,,,,,,,,,,,,,,,,,,,,,,,,,,,,,,,,
,,,,3,2.3979,,,,,,3,cake,oven,,90509,001,2022-04-28_21h29.52.323,SPAMnetsValid,2021.1.4,MacIntel,60.0024001,,,,,,,,,,,,,3,2.3979,0,3,3,30,1,,,,,,,,,,,,,,,,,,,,,,,,,,,,,,,,,,,,,,,,,,,,,,,,,,,,,,,,,,,,,,,,,,,,,,
,,,,1,1.2979,,,,,,53,garden,pretzel,,90509,001,2022-04-28_21h29.52.323,SPAMnetsValid,2021.1.4,MacIntel,60.0024001,,,,,,,,,,,,,1,1.2979,0,4,4,0,1,,,,,,,,,,,,,,,,,,,,,,,,,,,,,,,,,,,,,,,,,,,,,,,,,,,,,,,,,,,,,,,,,,,,,,
,,,,3,1.7493,,,,,,47,onion,tomato,,90509,001,2022-04-28_21h29.52.323,SPAMnetsValid,2021.1.4,MacIntel,60.0024001,,,,,,,,,,,,,3,1.7493,0,5,5,51,1,,,,,,,,,,,,,,,,,,,,,,,,,,,,,,,,,,,,,,,,,,,,,,,,,,,,,,,,,,,,,,,,,,,,,,
,,,,1,1.2475,,,,,,70,chocolate,onion,,90509,001,2022-04-28_21h29.52.323,SPAMnetsValid,2021.1.4,MacIntel,60.0024001,,,,,,,,,,,,,1,1.2475,0,6,6,74,1,,,,,,,,,,,,,,,,,,,,,,,,,,,,,,,,,,,,,,,,,,,,,,,,,,,,,,,,,,,,,,,,,,,,,,
,,,,3,1.4481,,,,,,9,kitchen,refrigerator,,90509,001,2022-04-28_21h29.52.323,SPAMnetsValid,2021.1.4,MacIntel,60.0024001,,,,,,,,,,,,,3,1.4481,0,7,7,64,1,,,,,,,,,,,,,,,,,,,,,,,,,,,,,,,,,,,,,,,,,,,,,,,,,,,,,,,,,,,,,,,,,,,,,,
,,,,1,1.1832,,,,,,29,chocolate,melon,,90509,001,2022-04-28_21h29.52.323,SPAMnetsValid,2021.1.4,MacIntel,60.0024001,,,,,,,,,,,,,1,1.1832,0,8,8,34,1,,,,,,,,,,,,,,,,,,,,,,,,,,,,,,,,,,,,,,,,,,,,,,,,,,,,,,,,,,,,,,,,,,,,,,
,,,,1,1.182,,,,,,26,tomato,yogurt,,90509,001,2022-04-28_21h29.52.323,SPAMnetsValid,2021.1.4,MacIntel,60.0024001,,,,,,,,,,,,,1,1.182,0,9,9,13,1,,,,,,,,,,,,,,,,,,,,,,,,,,,,,,,,,,,,,,,,,,,,,,,,,,,,,,,,,,,,,,,,,,,,,,
,,,,1,1.4485,,,,,,59,rose,strawberry,,90509,001,2022-04-28_21h29.52.323,SPAMnetsValid,2021.1.4,MacIntel,60.0024001,,,,,,,,,,,,,1,1.4485,0,10,10,72,1,,,,,,,,,,,,,,,,,,,,,,,,,,,,,,,,,,,,,,,,,,,,,,,,,,,,,,,,,,,,,,,,,,,,,,
,,,,1,1.631,,,,,,43,chocolate,tomato,,90509,001,2022-04-28_21h29.52.323,SPAMnetsValid,2021.1.4,MacIntel,60.0024001,,,,,,,,,,,,,1,1.631,0,11,11,8,1,,,,,,,,,,,,,,,,,,,,,,,,,,,,,,,,,,,,,,,,,,,,,,,,,,,,,,,,,,,,,,,,,,,,,,
,,,,1,2.8317,,,,,,23,flower,microwave,,90509,001,2022-04-28_21h29.52.323,SPAMnetsValid,2021.1.4,MacIntel,60.0024001,,,,,,,,,,,,,1,2.8317,0,12,12,25,1,,,,,,,,,,,,,,,,,,,,,,,,,,,,,,,,,,,,,,,,,,,,,,,,,,,,,,,,,,,,,,,,,,,,,,
,,,,2,2.3484,,,,,,82,cake,kitchen,,90509,001,2022-04-28_21h29.52.323,SPAMnetsValid,2021.1.4,MacIntel,60.0024001,,,,,,,,,,,,,2,2.3484,0,13,13,96,1,,,,,,,,,,,,,,,,,,,,,,,,,,,,,,,,,,,,,,,,,,,,,,,,,,,,,,,,,,,,,,,,,,,,,,
,,,,1,1.9322,,,,,,86,oven,rose,,90509,001,2022-04-28_21h29.52.323,SPAMnetsValid,2021.1.4,MacIntel,60.0024001,,,,,,,,,,,,,1,1.9322,0,14,14,79,1,,,,,,,,,,,,,,,,,,,,,,,,,,,,,,,,,,,,,,,,,,,,,,,,,,,,,,,,,,,,,,,,,,,,,,
,,,,1,1.3141,,,,,,21,cake,onion,,90509,001,2022-04-28_21h29.52.323,SPAMnetsValid,2021.1.4,MacIntel,60.0024001,,,,,,,,,,,,,1,1.3141,0,15,15,63,1,,,,,,,,,,,,,,,,,,,,,,,,,,,,,,,,,,,,,,,,,,,,,,,,,,,,,,,,,,,,,,,,,,,,,,
,,,,2,1.7988,,,,,,77,refrigerator,yogurt,,90509,001,2022-04-28_21h29.52.323,SPAMnetsValid,2021.1.4,MacIntel,60.0024001,,,,,,,,,,,,,2,1.7988,0,16,16,42,1,,,,,,,,,,,,,,,,,,,,,,,,,,,,,,,,,,,,,,,,,,,,,,,,,,,,,,,,,,,,,,,,,,,,,,
,,,,2,1.6282,,,,,,17,carrot,melon,,90509,001,2022-04-28_21h29.52.323,SPAMnetsValid,2021.1.4,MacIntel,60.0024001,,,,,,,,,,,,,2,1.6282,0,17,17,24,1,,,,,,,,,,,,,,,,,,,,,,,,,,,,,,,,,,,,,,,,,,,,,,,,,,,,,,,,,,,,,,,,,,,,,,
,,,,2,1.5485,,,,,,12,cookie,yogurt,,90509,001,2022-04-28_21h29.52.323,SPAMnetsValid,2021.1.4,MacIntel,60.0024001,,,,,,,,,,,,,2,1.5485,0,18,18,36,1,,,,,,,,,,,,,,,,,,,,,,,,,,,,,,,,,,,,,,,,,,,,,,,,,,,,,,,,,,,,,,,,,,,,,,
,,,,2,1.1987,,,,,,22,kitchen,strawberry,,90509,001,2022-04-28_21h29.52.323,SPAMnetsValid,2021.1.4,MacIntel,60.0024001,,,,,,,,,,,,,2,1.1987,0,19,19,2,1,,,,,,,,,,,,,,,,,,,,,,,,,,,,,,,,,,,,,,,,,,,,,,,,,,,,,,,,,,,,,,,,,,,,,,
,,,,2,1.6818,,,,,,66,melon,yogurt,,90509,001,2022-04-28_21h29.52.323,SPAMnetsValid,2021.1.4,MacIntel,60.0024001,,,,,,,,,,,,,2,1.6818,0,20,20,48,1,,,,,,,,,,,,,,,,,,,,,,,,,,,,,,,,,,,,,,,,,,,,,,,,,,,,,,,,,,,,,,,,,,,,,,
,,,,3,2.6788,,,,,,56,cactus,tree,,90509,001,2022-04-28_21h29.52.323,SPAMnetsValid,2021.1.4,MacIntel,60.0024001,,,,,,,,,,,,,3,2.6788,0,21,21,21,1,,,,,,,,,,,,,,,,,,,,,,,,,,,,,,,,,,,,,,,,,,,,,,,,,,,,,,,,,,,,,,,,,,,,,,
,,,,2,1.6496,,,,,,41,broom,cactus,,90509,001,2022-04-28_21h29.52.323,SPAMnetsValid,2021.1.4,MacIntel,60.0024001,,,,,,,,,,,,,2,1.6496,0,22,22,46,1,,,,,,,,,,,,,,,,,,,,,,,,,,,,,,,,,,,,,,,,,,,,,,,,,,,,,,,,,,,,,,,,,,,,,,
,,,,1,1.3656,,,,,,28,cake,melon,,90509,001,2022-04-28_21h29.52.323,SPAMnetsValid,2021.1.4,MacIntel,60.0024001,,,,,,,,,,,,,1,1.3656,0,23,23,54,1,,,,,,,,,,,,,,,,,,,,,,,,,,,,,,,,,,,,,,,,,,,,,,,,,,,,,,,,,,,,,,,,,,,,,,
,,,,1,2.1473,,,,,,81,pretzel,yogurt,,90509,001,2022-04-28_21h29.52.323,SPAMnetsValid,2021.1.4,MacIntel,60.0024001,,,,,,,,,,,,,1,2.1473,0,24,24,50,1,,,,,,,,,,,,,,,,,,,,,,,,,,,,,,,,,,,,,,,,,,,,,,,,,,,,,,,,,,,,,,,,,,,,,,
,,,,1,1.28,,,,,,58,garden,oven,,90509,001,2022-04-28_21h29.52.323,SPAMnetsValid,2021.1.4,MacIntel,60.0024001,,,,,,,,,,,,,1,1.28,0,25,25,37,1,,,,,,,,,,,,,,,,,,,,,,,,,,,,,,,,,,,,,,,,,,,,,,,,,,,,,,,,,,,,,,,,,,,,,,
,,,,1,1.5147,,,,,,32,cake,microwave,,90509,001,2022-04-28_21h29.52.323,SPAMnetsValid,2021.1.4,MacIntel,60.0024001,,,,,,,,,,,,,1,1.5147,0,26,26,33,1,,,,,,,,,,,,,,,,,,,,,,,,,,,,,,,,,,,,,,,,,,,,,,,,,,,,,,,,,,,,,,,,,,,,,,
,,,,3,1.5313,,,,,,4,chocolate,pretzel,,90509,001,2022-04-28_21h29.52.323,SPAMnetsValid,2021.1.4,MacIntel,60.0024001,,,,,,,,,,,,,3,1.5313,0,27,27,52,1,,,,,,,,,,,,,,,,,,,,,,,,,,,,,,,,,,,,,,,,,,,,,,,,,,,,,,,,,,,,,,,,,,,,,,
,,,,9,2.0315,,,,,,192,microwave,microwave,CHECK,90509,001,2022-04-28_21h29.52.323,SPAMnetsValid,2021.1.4,MacIntel,60.0024001,,,,,,,,,,,,,9,2.0315,0,28,28,53,1,,,,,,,,,,,,,,,,,,,,,,,,,,,,,,,,,,,,,,,,,,,,,,,,,,,,,,,,,,,,,,,,,,,,,,
,,,,1,1.6472,,,,,,75,cookie,onion,,90509,001,2022-04-28_21h29.52.323,SPAMnetsValid,2021.1.4,MacIntel,60.0024001,,,,,,,,,,,,,1,1.6472,0,29,29,9,1,,,,,,,,,,,,,,,,,,,,,,,,,,,,,,,,,,,,,,,,,,,,,,,,,,,,,,,,,,,,,,,,,,,,,,
,,,,1,1.2977,,,,,,62,kitchen,rose,,90509,001,2022-04-28_21h29.52.323,SPAMnetsValid,2021.1.4,MacIntel,60.0024001,,,,,,,,,,,,,1,1.2977,0,30,30,57,1,,,,,,,,,,,,,,,,,,,,,,,,,,,,,,,,,,,,,,,,,,,,,,,,,,,,,,,,,,,,,,,,,,,,,,
,,,,1,1.182,,,,,,71,broom,rose,,90509,001,2022-04-28_21h29.52.323,SPAMnetsValid,2021.1.4,MacIntel,60.0024001,,,,,,,,,,,,,1,1.182,0,31,31,61,1,,,,,,,,,,,,,,,,,,,,,,,,,,,,,,,,,,,,,,,,,,,,,,,,,,,,,,,,,,,,,,,,,,,,,,
,,,,1,1.3305,,,,,,40,broom,cake,,90509,001,2022-04-28_21h29.52.323,SPAMnetsValid,2021.1.4,MacIntel,60.0024001,,,,,,,,,,,,,1,1.3305,0,32,32,32,1,,,,,,,,,,,,,,,,,,,,,,,,,,,,,,,,,,,,,,,,,,,,,,,,,,,,,,,,,,,,,,,,,,,,,,
,,,,1,1.4168,,,,,,95,broom,refrigerator,,90509,001,2022-04-28_21h29.52.323,SPAMnetsValid,2021.1.4,MacIntel,60.0024001,,,,,,,,,,,,,1,1.4168,0,33,33,90,1,,,,,,,,,,,,,,,,,,,,,,,,,,,,,,,,,,,,,,,,,,,,,,,,,,,,,,,,,,,,,,,,,,,,,,
,,,,2,1.4841,,,,,,36,broom,kitchen,,90509,001,2022-04-28_21h29.52.323,SPAMnetsValid,2021.1.4,MacIntel,60.0024001,,,,,,,,,,,,,2,1.4841,0,34,34,76,1,,,,,,,,,,,,,,,,,,,,,,,,,,,,,,,,,,,,,,,,,,,,,,,,,,,,,,,,,,,,,,,,,,,,,,
,,,,2,2.6301,,,,,,69,carrot,refrigerator,,90509,001,2022-04-28_21h29.52.323,SPAMnetsValid,2021.1.4,MacIntel,60.0024001,,,,,,,,,,,,,2,2.6301,0,35,35,75,1,,,,,,,,,,,,,,,,,,,,,,,,,,,,,,,,,,,,,,,,,,,,,,,,,,,,,,,,,,,,,,,,,,,,,,
,,,,1,1.397,,,,,,8,broom,melon,,90509,001,2022-04-28_21h29.52.323,SPAMnetsValid,2021.1.4,MacIntel,60.0024001,,,,,,,,,,,,,1,1.397,0,36,36,59,1,,,,,,,,,,,,,,,,,,,,,,,,,,,,,,,,,,,,,,,,,,,,,,,,,,,,,,,,,,,,,,,,,,,,,,
,,,,1,1.2136,,,,,,35,flower,pretzel,,90509,001,2022-04-28_21h29.52.323,SPAMnetsValid,2021.1.4,MacIntel,60.0024001,,,,,,,,,,,,,1,1.2136,0,37,37,26,1,,,,,,,,,,,,,,,,,,,,,,,,,,,,,,,,,,,,,,,,,,,,,,,,,,,,,,,,,,,,,,,,,,,,,,
,,,,1,2.631,,,,,,74,broom,pretzel,,90509,001,2022-04-28_21h29.52.323,SPAMnetsValid,2021.1.4,MacIntel,60.0024001,,,,,,,,,,,,,1,2.631,0,38,38,40,1,,,,,,,,,,,,,,,,,,,,,,,,,,,,,,,,,,,,,,,,,,,,,,,,,,,,,,,,,,,,,,,,,,,,,,
,,,,1,1.2652,,,,,,37,garden,refrigerator,,90509,001,2022-04-28_21h29.52.323,SPAMnetsValid,2021.1.4,MacIntel,60.0024001,,,,,,,,,,,,,1,1.2652,0,39,39,11,1,,,,,,,,,,,,,,,,,,,,,,,,,,,,,,,,,,,,,,,,,,,,,,,,,,,,,,,,,,,,,,,,,,,,,,
,,,,2,1.347,,,,,,49,flower,strawberry,,90509,001,2022-04-28_21h29.52.323,SPAMnetsValid,2021.1.4,MacIntel,60.0024001,,,,,,,,,,,,,2,1.347,0,40,40,3,1,,,,,,,,,,,,,,,,,,,,,,,,,,,,,,,,,,,,,,,,,,,,,,,,,,,,,,,,,,,,,,,,,,,,,,
,,,,1,1.3306,,,,,,11,refrigerator,tree,,90509,001,2022-04-28_21h29.52.323,SPAMnetsValid,2021.1.4,MacIntel,60.0024001,,,,,,,,,,,,,1,1.3306,0,41,41,43,1,,,,,,,,,,,,,,,,,,,,,,,,,,,,,,,,,,,,,,,,,,,,,,,,,,,,,,,,,,,,,,,,,,,,,,
,,,,2,2.5975,,,,,,38,pretzel,refrigerator,,90509,001,2022-04-28_21h29.52.323,SPAMnetsValid,2021.1.4,MacIntel,60.0024001,,,,,,,,,,,,,2,2.5975,0,42,42,71,1,,,,,,,,,,,,,,,,,,,,,,,,,,,,,,,,,,,,,,,,,,,,,,,,,,,,,,,,,,,,,,,,,,,,,,
,,,,1,1.3134,,,,,,16,chocolate,flower,,90509,001,2022-04-28_21h29.52.323,SPAMnetsValid,2021.1.4,MacIntel,60.0024001,,,,,,,,,,,,,1,1.3134,0,43,43,22,1,,,,,,,,,,,,,,,,,,,,,,,,,,,,,,,,,,,,,,,,,,,,,,,,,,,,,,,,,,,,,,,,,,,,,,
,,,,1,1.4869,,,,,,15,onion,oven,,90509,001,2022-04-28_21h29.52.323,SPAMnetsValid,2021.1.4,MacIntel,60.0024001,,,,,,,,,,,,,1,1.4869,0,44,44,39,1,,,,,,,,,,,,,,,,,,,,,,,,,,,,,,,,,,,,,,,,,,,,,,,,,,,,,,,,,,,,,,,,,,,,,,
,,,,2,1.5987,,,,,,25,carrot,onion,,90509,001,2022-04-28_21h29.52.323,SPAMnetsValid,2021.1.4,MacIntel,60.0024001,,,,,,,,,,,,,2,1.5987,0,45,45,44,1,,,,,,,,,,,,,,,,,,,,,,,,,,,,,,,,,,,,,,,,,,,,,,,,,,,,,,,,,,,,,,,,,,,,,,
,,,,1,1.3474,,,,,,68,flower,tomato,,90509,001,2022-04-28_21h29.52.323,SPAMnetsValid,2021.1.4,MacIntel,60.0024001,,,,,,,,,,,,,1,1.3474,0,46,46,94,1,,,,,,,,,,,,,,,,,,,,,,,,,,,,,,,,,,,,,,,,,,,,,,,,,,,,,,,,,,,,,,,,,,,,,,
,,,,1,2.1141,,,,,,31,cactus,pretzel,,90509,001,2022-04-28_21h29.52.323,SPAMnetsValid,2021.1.4,MacIntel,60.0024001,,,,,,,,,,,,,1,2.1141,0,47,47,1,1,,,,,,,,,,,,,,,,,,,,,,,,,,,,,,,,,,,,,,,,,,,,,,,,,,,,,,,,,,,,,,,,,,,,,,
,,,,2,2.5145,,,,,,93,kitchen,oven,,90509,001,2022-04-28_21h29.52.323,SPAMnetsValid,2021.1.4,MacIntel,60.0024001,,,,,,,,,,,,,2,2.5145,0,48,48,82,1,,,,,,,,,,,,,,,,,,,,,,,,,,,,,,,,,,,,,,,,,,,,,,,,,,,,,,,,,,,,,,,,,,,,,,
,,,,1,1.4648,,,,,,64,chocolate,garden,,90509,001,2022-04-28_21h29.52.323,SPAMnetsValid,2021.1.4,MacIntel,60.0024001,,,,,,,,,,,,,1,1.4648,0,49,49,14,1,,,,,,,,,,,,,,,,,,,,,,,,,,,,,,,,,,,,,,,,,,,,,,,,,,,,,,,,,,,,,,,,,,,,,,
,,,,1,1.264,,,,,,65,broom,garden,,90509,001,2022-04-28_21h29.52.323,SPAMnetsValid,2021.1.4,MacIntel,60.0024001,,,,,,,,,,,,,1,1.264,0,50,50,23,1,,,,,,,,,,,,,,,,,,,,,,,,,,,,,,,,,,,,,,,,,,,,,,,,,,,,,,,,,,,,,,,,,,,,,,
,,,,2,1.5631,,,,,,44,cookie,melon,,90509,001,2022-04-28_21h29.52.323,SPAMnetsValid,2021.1.4,MacIntel,60.0024001,,,,,,,,,,,,,2,1.5631,0,51,51,92,1,,,,,,,,,,,,,,,,,,,,,,,,,,,,,,,,,,,,,,,,,,,,,,,,,,,,,,,,,,,,,,,,,,,,,,
,,,,1,1.5344,,,,,,83,broom,carrot,,90509,001,2022-04-28_21h29.52.323,SPAMnetsValid,2021.1.4,MacIntel,60.0024001,,,,,,,,,,,,,1,1.5344,0,52,52,4,1,,,,,,,,,,,,,,,,,,,,,,,,,,,,,,,,,,,,,,,,,,,,,,,,,,,,,,,,,,,,,,,,,,,,,,
,,,,2,1.5356,,,,,,30,cookie,pretzel,,90509,001,2022-04-28_21h29.52.323,SPAMnetsValid,2021.1.4,MacIntel,60.0024001,,,,,,,,,,,,,2,1.5356,0,53,53,78,1,,,,,,,,,,,,,,,,,,,,,,,,,,,,,,,,,,,,,,,,,,,,,,,,,,,,,,,,,,,,,,,,,,,,,,
,,,,1,1.5133,,,,,,92,broom,flower,,90509,001,2022-04-28_21h29.52.323,SPAMnetsValid,2021.1.4,MacIntel,60.0024001,,,,,,,,,,,,,1,1.5133,0,54,54,88,1,,,,,,,,,,,,,,,,,,,,,,,,,,,,,,,,,,,,,,,,,,,,,,,,,,,,,,,,,,,,,,,,,,,,,,
,,,,2,1.6808,,,,,,2,kitchen,onion,,90509,001,2022-04-28_21h29.52.323,SPAMnetsValid,2021.1.4,MacIntel,60.0024001,,,,,,,,,,,,,2,1.6808,0,55,55,91,1,,,,,,,,,,,,,,,,,,,,,,,,,,,,,,,,,,,,,,,,,,,,,,,,,,,,,,,,,,,,,,,,,,,,,,
,,,,1,2.1981,,,,,,34,melon,oven,,90509,001,2022-04-28_21h29.52.323,SPAMnetsValid,2021.1.4,MacIntel,60.0024001,,,,,,,,,,,,,1,2.1981,0,56,56,7,1,,,,,,,,,,,,,,,,,,,,,,,,,,,,,,,,,,,,,,,,,,,,,,,,,,,,,,,,,,,,,,,,,,,,,,
,,,,1,1.9798,,,,,,90,cactus,cake,,90509,001,2022-04-28_21h29.52.323,SPAMnetsValid,2021.1.4,MacIntel,60.0024001,,,,,,,,,,,,,1,1.9798,0,57,57,85,1,,,,,,,,,,,,,,,,,,,,,,,,,,,,,,,,,,,,,,,,,,,,,,,,,,,,,,,,,,,,,,,,,,,,,,
,,,,2,1.3647,,,,,,63,cake,cookie,,90509,001,2022-04-28_21h29.52.323,SPAMnetsValid,2021.1.4,MacIntel,60.0024001,,,,,,,,,,,,,2,1.3647,0,58,58,93,1,,,,,,,,,,,,,,,,,,,,,,,,,,,,,,,,,,,,,,,,,,,,,,,,,,,,,,,,,,,,,,,,,,,,,,
,,,,1,1.4142,,,,,,46,garden,yogurt,,90509,001,2022-04-28_21h29.52.323,SPAMnetsValid,2021.1.4,MacIntel,60.0024001,,,,,,,,,,,,,1,1.4142,0,59,59,65,1,,,,,,,,,,,,,,,,,,,,,,,,,,,,,,,,,,,,,,,,,,,,,,,,,,,,,,,,,,,,,,,,,,,,,,
,,,,1,1.2782,,,,,,73,broom,chocolate,,90509,001,2022-04-28_21h29.52.323,SPAMnetsValid,2021.1.4,MacIntel,60.0024001,,,,,,,,,,,,,1,1.2782,0,60,60,47,1,,,,,,,,,,,,,,,,,,,,,,,,,,,,,,,,,,,,,,,,,,,,,,,,,,,,,,,,,,,,,,,,,,,,,,
,,,,2,1.3299,,,,,,39,melon,pretzel,,90509,001,2022-04-28_21h29.52.323,SPAMnetsValid,2021.1.4,MacIntel,60.0024001,,,,,,,,,,,,,2,1.3299,0,61,61,20,1,,,,,,,,,,,,,,,,,,,,,,,,,,,,,,,,,,,,,,,,,,,,,,,,,,,,,,,,,,,,,,,,,,,,,,
,,,,1,1.232,,,,,,19,microwave,pretzel,,90509,001,2022-04-28_21h29.52.323,SPAMnetsValid,2021.1.4,MacIntel,60.0024001,,,,,,,,,,,,,1,1.232,0,62,62,41,1,,,,,,,,,,,,,,,,,,,,,,,,,,,,,,,,,,,,,,,,,,,,,,,,,,,,,,,,,,,,,,,,,,,,,,
,,,,1,1.414,,,,,,78,cookie,rose,,90509,001,2022-04-28_21h29.52.323,SPAMnetsValid,2021.1.4,MacIntel,60.0024001,,,,,,,,,,,,,1,1.414,0,63,63,56,1,,,,,,,,,,,,,,,,,,,,,,,,,,,,,,,,,,,,,,,,,,,,,,,,,,,,,,,,,,,,,,,,,,,,,,
,,,,2,1.5471,,,,,,54,chocolate,yogurt,,90509,001,2022-04-28_21h29.52.323,SPAMnetsValid,2021.1.4,MacIntel,60.0024001,,,,,,,,,,,,,2,1.5471,0,64,64,67,1,,,,,,,,,,,,,,,,,,,,,,,,,,,,,,,,,,,,,,,,,,,,,,,,,,,,,,,,,,,,,,,,,,,,,,
,,,,1,1.1468,,,,,,13,broom,yogurt,,90509,001,2022-04-28_21h29.52.323,SPAMnetsValid,2021.1.4,MacIntel,60.0024001,,,,,,,,,,,,,1,1.1468,0,65,65,5,1,,,,,,,,,,,,,,,,,,,,,,,,,,,,,,,,,,,,,,,,,,,,,,,,,,,,,,,,,,,,,,,,,,,,,,
,,,,1,1.3794,,,,,,42,garden,kitchen,,90509,001,2022-04-28_21h29.52.323,SPAMnetsValid,2021.1.4,MacIntel,60.0024001,,,,,,,,,,,,,1,1.3794,0,66,66,29,1,,,,,,,,,,,,,,,,,,,,,,,,,,,,,,,,,,,,,,,,,,,,,,,,,,,,,,,,,,,,,,,,,,,,,,
,,,,2,2.3001,,,,,,87,carrot,yogurt,,90509,001,2022-04-28_21h29.52.323,SPAMnetsValid,2021.1.4,MacIntel,60.0024001,,,,,,,,,,,,,2,2.3001,0,67,67,6,1,,,,,,,,,,,,,,,,,,,,,,,,,,,,,,,,,,,,,,,,,,,,,,,,,,,,,,,,,,,,,,,,,,,,,,
,,,,1,1.199,,,,,,27,cactus,cookie,,90509,001,2022-04-28_21h29.52.323,SPAMnetsValid,2021.1.4,MacIntel,60.0024001,,,,,,,,,,,,,1,1.199,0,68,68,17,1,,,,,,,,,,,,,,,,,,,,,,,,,,,,,,,,,,,,,,,,,,,,,,,,,,,,,,,,,,,,,,,,,,,,,,
,,,,2,2.7632,,,,,,55,tomato,tree,,90509,001,2022-04-28_21h29.52.323,SPAMnetsValid,2021.1.4,MacIntel,60.0024001,,,,,,,,,,,,,2,2.7632,0,69,69,35,1,,,,,,,,,,,,,,,,,,,,,,,,,,,,,,,,,,,,,,,,,,,,,,,,,,,,,,,,,,,,,,,,,,,,,,
,,,,1,1.3333,,,,,,7,melon,tree,,90509,001,2022-04-28_21h29.52.323,SPAMnetsValid,2021.1.4,MacIntel,60.0024001,,,,,,,,,,,,,1,1.3333,0,70,70,77,1,,,,,,,,,,,,,,,,,,,,,,,,,,,,,,,,,,,,,,,,,,,,,,,,,,,,,,,,,,,,,,,,,,,,,,
,,,,2,1.5149,,,,,,89,chocolate,rose,,90509,001,2022-04-28_21h29.52.323,SPAMnetsValid,2021.1.4,MacIntel,60.0024001,,,,,,,,,,,,,2,1.5149,0,71,71,60,1,,,,,,,,,,,,,,,,,,,,,,,,,,,,,,,,,,,,,,,,,,,,,,,,,,,,,,,,,,,,,,,,,,,,,,
,,,,1,1.147,,,,,,51,onion,strawberry,,90509,001,2022-04-28_21h29.52.323,SPAMnetsValid,2021.1.4,MacIntel,60.0024001,,,,,,,,,,,,,1,1.147,0,72,72,86,1,,,,,,,,,,,,,,,,,,,,,,,,,,,,,,,,,,,,,,,,,,,,,,,,,,,,,,,,,,,,,,,,,,,,,,
,,,,3,2.8967,,,,,,94,kitchen,microwave,,90509,001,2022-04-28_21h29.52.323,SPAMnetsValid,2021.1.4,MacIntel,60.0024001,,,,,,,,,,,,,3,2.8967,0,73,73,58,1,,,,,,,,,,,,,,,,,,,,,,,,,,,,,,,,,,,,,,,,,,,,,,,,,,,,,,,,,,,,,,,,,,,,,,
,,,,9,1.7638,,,,,,191,cake,cake,CHECK,90509,001,2022-04-28_21h29.52.323,SPAMnetsValid,2021.1.4,MacIntel,60.0024001,,,,,,,,,,,,,9,1.7638,0,74,74,10,1,,,,,,,,,,,,,,,,,,,,,,,,,,,,,,,,,,,,,,,,,,,,,,,,,,,,,,,,,,,,,,,,,,,,,,
,,,,1,1.3468,,,,,,1,rose,yogurt,,90509,001,2022-04-28_21h29.52.323,SPAMnetsValid,2021.1.4,MacIntel,60.0024001,,,,,,,,,,,,,1,1.3468,0,75,75,55,1,,,,,,,,,,,,,,,,,,,,,,,,,,,,,,,,,,,,,,,,,,,,,,,,,,,,,,,,,,,,,,,,,,,,,,
,,,,3,1.3969,,,,,,20,rose,tree,,90509,001,2022-04-28_21h29.52.323,SPAMnetsValid,2021.1.4,MacIntel,60.0024001,,,,,,,,,,,,,3,1.3969,0,76,76,66,1,,,,,,,,,,,,,,,,,,,,,,,,,,,,,,,,,,,,,,,,,,,,,,,,,,,,,,,,,,,,,,,,,,,,,,
,,,,1,1.2806,,,,,,79,garden,strawberry,,90509,001,2022-04-28_21h29.52.323,SPAMnetsValid,2021.1.4,MacIntel,60.0024001,,,,,,,,,,,,,1,1.2806,0,77,77,87,1,,,,,,,,,,,,,,,,,,,,,,,,,,,,,,,,,,,,,,,,,,,,,,,,,,,,,,,,,,,,,,,,,,,,,,
,,,,1,4.6461,,,,,,88,cactus,melon,,90509,001,2022-04-28_21h29.52.323,SPAMnetsValid,2021.1.4,MacIntel,60.0024001,,,,,,,,,,,,,1,4.6461,0,78,78,38,1,,,,,,,,,,,,,,,,,,,,,,,,,,,,,,,,,,,,,,,,,,,,,,,,,,,,,,,,,,,,,,,,,,,,,,
,,,,2,1.5765,,,,,,24,cookie,tomato,,90509,001,2022-04-28_21h29.52.323,SPAMnetsValid,2021.1.4,MacIntel,60.0024001,,,,,,,,,,,,,2,1.5765,0,79,79,68,1,,,,,,,,,,,,,,,,,,,,,,,,,,,,,,,,,,,,,,,,,,,,,,,,,,,,,,,,,,,,,,,,,,,,,,
,,,,1,1.3004,,,,,,6,garden,onion,,90509,001,2022-04-28_21h29.52.323,SPAMnetsValid,2021.1.4,MacIntel,60.0024001,,,,,,,,,,,,,1,1.3004,0,80,80,83,1,,,,,,,,,,,,,,,,,,,,,,,,,,,,,,,,,,,,,,,,,,,,,,,,,,,,,,,,,,,,,,,,,,,,,,
,,,,1,2.365,,,,,,60,cactus,onion,,90509,001,2022-04-28_21h29.52.323,SPAMnetsValid,2021.1.4,MacIntel,60.0024001,,,,,,,,,,,,,1,2.365,0,81,81,81,1,,,,,,,,,,,,,,,,,,,,,,,,,,,,,,,,,,,,,,,,,,,,,,,,,,,,,,,,,,,,,,,,,,,,,,
,,,,1,1.2628,,,,,,91,microwave,rose,,90509,001,2022-04-28_21h29.52.323,SPAMnetsValid,2021.1.4,MacIntel,60.0024001,,,,,,,,,,,,,1,1.2628,0,82,82,84,1,,,,,,,,,,,,,,,,,,,,,,,,,,,,,,,,,,,,,,,,,,,,,,,,,,,,,,,,,,,,,,,,,,,,,,
,,,,1,1.3117,,,,,,85,cake,tree,,90509,001,2022-04-28_21h29.52.323,SPAMnetsValid,2021.1.4,MacIntel,60.0024001,,,,,,,,,,,,,1,1.3117,0,83,83,18,1,,,,,,,,,,,,,,,,,,,,,,,,,,,,,,,,,,,,,,,,,,,,,,,,,,,,,,,,,,,,,,,,,,,,,,
,,,,1,1.2807,,,,,,57,flower,kitchen,,90509,001,2022-04-28_21h29.52.323,SPAMnetsValid,2021.1.4,MacIntel,60.0024001,,,,,,,,,,,,,1,1.2807,0,84,84,49,1,,,,,,,,,,,,,,,,,,,,,,,,,,,,,,,,,,,,,,,,,,,,,,,,,,,,,,,,,,,,,,,,,,,,,,
,,,,1,1.9313,,,,,,72,broom,onion,,90509,001,2022-04-28_21h29.52.323,SPAMnetsValid,2021.1.4,MacIntel,60.0024001,,,,,,,,,,,,,1,1.9313,0,85,85,27,1,,,,,,,,,,,,,,,,,,,,,,,,,,,,,,,,,,,,,,,,,,,,,,,,,,,,,,,,,,,,,,,,,,,,,,
,,,,1,1.1807,,,,,,33,oven,yogurt,,90509,001,2022-04-28_21h29.52.323,SPAMnetsValid,2021.1.4,MacIntel,60.0024001,,,,,,,,,,,,,1,1.1807,0,86,86,31,1,,,,,,,,,,,,,,,,,,,,,,,,,,,,,,,,,,,,,,,,,,,,,,,,,,,,,,,,,,,,,,,,,,,,,,
,,,,1,1.5639,,,,,,84,oven,tomato,,90509,001,2022-04-28_21h29.52.323,SPAMnetsValid,2021.1.4,MacIntel,60.0024001,,,,,,,,,,,,,1,1.5639,0,87,87,28,1,,,,,,,,,,,,,,,,,,,,,,,,,,,,,,,,,,,,,,,,,,,,,,,,,,,,,,,,,,,,,,,,,,,,,,
,,,,1,1.5474,,,,,,48,flower,oven,,90509,001,2022-04-28_21h29.52.323,SPAMnetsValid,2021.1.4,MacIntel,60.0024001,,,,,,,,,,,,,1,1.5474,0,88,88,15,1,,,,,,,,,,,,,,,,,,,,,,,,,,,,,,,,,,,,,,,,,,,,,,,,,,,,,,,,,,,,,,,,,,,,,,
,,,,1,2.2311,,,,,,45,onion,pretzel,,90509,001,2022-04-28_21h29.52.323,SPAMnetsValid,2021.1.4,MacIntel,60.0024001,,,,,,,,,,,,,1,2.2311,0,89,89,69,1,,,,,,,,,,,,,,,,,,,,,,,,,,,,,,,,,,,,,,,,,,,,,,,,,,,,,,,,,,,,,,,,,,,,,,
,,,,1,4.601,,,,,,61,strawberry,tomato,,90509,001,2022-04-28_21h29.52.323,SPAMnetsValid,2021.1.4,MacIntel,60.0024001,,,,,,,,,,,,,1,4.601,0,90,90,80,1,,,,,,,,,,,,,,,,,,,,,,,,,,,,,,,,,,,,,,,,,,,,,,,,,,,,,,,,,,,,,,,,,,,,,,
,,,,1,2.7809,,,,,,50,carrot,rose,,90509,001,2022-04-28_21h29.52.323,SPAMnetsValid,2021.1.4,MacIntel,60.0024001,,,,,,,,,,,,,1,2.7809,0,91,91,73,1,,,,,,,,,,,,,,,,,,,,,,,,,,,,,,,,,,,,,,,,,,,,,,,,,,,,,,,,,,,,,,,,,,,,,,
,,,,1,1.2979,,,,,,80,chocolate,tree,,90509,001,2022-04-28_21h29.52.323,SPAMnetsValid,2021.1.4,MacIntel,60.0024001,,,,,,,,,,,,,1,1.2979,0,92,92,89,1,,,,,,,,,,,,,,,,,,,,,,,,,,,,,,,,,,,,,,,,,,,,,,,,,,,,,,,,,,,,,,,,,,,,,,
,,,,1,1.1984,,,,,,67,flower,yogurt,,90509,001,2022-04-28_21h29.52.323,SPAMnetsValid,2021.1.4,MacIntel,60.0024001,,,,,,,,,,,,,1,1.1984,0,93,93,12,1,,,,,,,,,,,,,,,,,,,,,,,,,,,,,,,,,,,,,,,,,,,,,,,,,,,,,,,,,,,,,,,,,,,,,,
,,,,4,2.0481,,,,,,76,garden,rose,,90509,001,2022-04-28_21h29.52.323,SPAMnetsValid,2021.1.4,MacIntel,60.0024001,,,,,,,,,,,,,4,2.0481,0,94,94,19,1,,,,,,,,,,,,,,,,,,,,,,,,,,,,,,,,,,,,,,,,,,,,,,,,,,,,,,,,,,,,,,,,,,,,,,
,,,,1,0.9806,,,,,,10,flower,onion,,90509,001,2022-04-28_21h29.52.323,SPAMnetsValid,2021.1.4,MacIntel,60.0024001,,,,,,,,,,,,,1,0.9806,0,95,95,45,1,,,,,,,,,,,,,,,,,,,,,,,,,,,,,,,,,,,,,,,,,,,,,,,,,,,,,,,,,,,,,,,,,,,,,,
,,,,3,5.014,,,,,,52,carrot,tomato,,90509,001,2022-04-28_21h29.52.323,SPAMnetsValid,2021.1.4,MacIntel,60.0024001,,,,,,,,,,,,,3,5.014,0,96,96,95,1,,,,,,,,,,,,,,,,,,,,,,,,,,,,,,,,,,,,,,,,,,,,,,,,,,,,,,,,,,,,,,,,,,,,,,
,,,,,,,,,,,,,,,90509,001,2022-04-28_21h29.52.323,SPAMnetsValid,2021.1.4,MacIntel,60.0024001,,,,,,,,,,,,,,,,,,,,0,0,0,0,1,,,,,,,,,,,,,,,,,,,,,,,,,,,,,,,,,,,,,,,,,,,,,,,,,,,,,,,,,,,,,,,,,
,,,,,,,,,,,,,,,90509,001,2022-04-28_21h29.52.323,SPAMnetsValid,2021.1.4,MacIntel,60.0024001,,,,,,0,1,1,0,1,1,0,,,,,,,,,,,,,,,,,,,,,,,,,,,,,,,,,,,,,,,,,,,,,,,,,,,,,,,,,,,,,,,,,,,,,,,,,,,,,
,,,,,,,,,,,,,,,90509,001,2022-04-28_21h29.52.323,SPAMnetsValid,2021.1.4,MacIntel,60.0024001,,,,,,,,,,,,,,,,,,,,,,,,,1,3.9887,0,0,0,0,1,rancor,forbearance,ridicule,malice,bravery,3,,,,,,,,,,,,,,,,,,,,,,,,,,,,,,,,,,,,,,,,,,,,,,,,,,,,
,,,,,,,,,,,,,,,90509,001,2022-04-28_21h29.52.323,SPAMnetsValid,2021.1.4,MacIntel,60.0024001,,,,,,,,,,,,,,,,,,,,,,,,,4,3.6168,0,1,1,1,1,raucous,empty,quiet,smooth,harsh,4,,,,,,,,,,,,,,,,,,,,,,,,,,,,,,,,,,,,,,,,,,,,,,,,,,,,
,,,,,,,,,,,,,,,90509,001,2022-04-28_21h29.52.323,SPAMnetsValid,2021.1.4,MacIntel,60.0024001,,,,,,,,,,,,,,,,,,,,,,,,,4,4.3156,0,2,2,2,1,gargoyle,oil,medicine,carved waterspout,ugly building,3,,,,,,,,,,,,,,,,,,,,,,,,,,,,,,,,,,,,,,,,,,,,,,,,,,,,
,,,,,,,,,,,,,,,90509,001,2022-04-28_21h29.52.323,SPAMnetsValid,2021.1.4,MacIntel,60.0024001,,,,,,,,,,,,,,,,,,,,,,,,,1,4.7318,0,3,3,3,1,recrudesce,purify,renew activity,lack refinement,crush,2,,,,,,,,,,,,,,,,,,,,,,,,,,,,,,,,,,,,,,,,,,,,,,,,,,,,
,,,,,,,,,,,,,,,90509,001,2022-04-28_21h29.52.323,SPAMnetsValid,2021.1.4,MacIntel,60.0024001,,,,,,,,,,,,,,,,,,,,,,,,,3,9.3972,0,4,4,4,1,specious,"plausible, but not genuine",noteworthy,class or variety,roomy,1,,,,,,,,,,,,,,,,,,,,,,,,,,,,,,,,,,,,,,,,,,,,,,,,,,,,
,,,,,,,,,,,,,,,90509,001,2022-04-28_21h29.52.323,SPAMnetsValid,2021.1.4,MacIntel,60.0024001,,,,,,,,,,,,,,,,,,,,,,,,,3,2.2994,0,5,5,5,1,bauble,bubble,showy plaything,idle talk,confusion,2,,,,,,,,,,,,,,,,,,,,,,,,,,,,,,,,,,,,,,,,,,,,,,,,,,,,
,,,,,,,,,,,,,,,90509,001,2022-04-28_21h29.52.323,SPAMnetsValid,2021.1.4,MacIntel,60.0024001,,,,,,,,,,,,,,,,,,,,,,,,,4,5.8843,0,6,6,6,1,prolific,scarce,producing abundantly,reckless,speaking profanely,2,,,,,,,,,,,,,,,,,,,,,,,,,,,,,,,,,,,,,,,,,,,,,,,,,,,,
,,,,,,,,,,,,,,,90509,001,2022-04-28_21h29.52.323,SPAMnetsValid,2021.1.4,MacIntel,60.0024001,,,,,,,,,,,,,,,,,,,,,,,,,2,2.6795,0,7,7,7,1,opulent,party,wealthy,happy frame of mind,semiprecious stone,2,,,,,,,,,,,,,,,,,,,,,,,,,,,,,,,,,,,,,,,,,,,,,,,,,,,,
,,,,,,,,,,,,,,,90509,001,2022-04-28_21h29.52.323,SPAMnetsValid,2021.1.4,MacIntel,60.0024001,,,,,,,,,,,,,,,,,,,,,,,,,1,4.6861,0,8,8,8,1,coercion,conspiracy,strategy,restraint,attraction,3,,,,,,,,,,,,,,,,,,,,,,,,,,,,,,,,,,,,,,,,,,,,,,,,,,,,
,,,,,,,,,,,,,,,90509,001,2022-04-28_21h29.52.323,SPAMnetsValid,2021.1.4,MacIntel,60.0024001,,,,,,,,,,,,,,,,,,,,,,,,,3,2.4805,0,9,9,9,1,hiatus,animal,calamity,dread,gap,4,,,,,,,,,,,,,,,,,,,,,,,,,,,,,,,,,,,,,,,,,,,,,,,,,,,,
,,,,,,,,,,,,,,,90509,001,2022-04-28_21h29.52.323,SPAMnetsValid,2021.1.4,MacIntel,60.0024001,,,,,,,,,,,,,,,,,,,,,,,,,3,3.8644,0,10,10,10,1,germane,microbe,contagious,relevant,different,3,,,,,,,,,,,,,,,,,,,,,,,,,,,,,,,,,,,,,,,,,,,,,,,,,,,,
,,,,,,,,,,,,,,,90509,001,2022-04-28_21h29.52.323,SPAMnetsValid,2021.1.4,MacIntel,60.0024001,,,,,,,,,,,,,,,,,,,,,,,,,2,5.9157,0,11,11,11,1,perfunctory,fundamental,formal,superficial,careful,3,,,,,,,,,,,,,,,,,,,,,,,,,,,,,,,,,,,,,,,,,,,,,,,,,,,,
,,,,,,,,,,,,,,,90509,001,2022-04-28_21h29.52.323,SPAMnetsValid,2021.1.4,MacIntel,60.0024001,,,,,,,,,,,,,,,,,,,,,,,,,1,1.8468,0,12,12,12,1,diverge,reveal,chant,distract the attention of,differ or turn off from,4,,,,,,,,,,,,,,,,,,,,,,,,,,,,,,,,,,,,,,,,,,,,,,,,,,,,
,,,,,,,,,,,,,,,90509,001,2022-04-28_21h29.52.323,SPAMnetsValid,2021.1.4,MacIntel,60.0024001,,,,,,,,,,,,,,,,,,,,,,,,,4,2.9152,0,13,13,13,1,evoke,take away,anger,connect,bring out,4,,,,,,,,,,,,,,,,,,,,,,,,,,,,,,,,,,,,,,,,,,,,,,,,,,,,
,,,,,,,,,,,,,,,90509,001,2022-04-28_21h29.52.323,SPAMnetsValid,2021.1.4,MacIntel,60.0024001,,,,,,,,,,,,,,,,,,,,,,,,,1,5.7173,0,14,14,14,1,pertinent,relevant,lying next to,necessary,bold,1,,,,,,,,,,,,,,,,,,,,,,,,,,,,,,,,,,,,,,,,,,,,,,,,,,,,
,,,,,,,,,,,,,,,90509,001,2022-04-28_21h29.52.323,SPAMnetsValid,2021.1.4,MacIntel,60.0024001,,,,,,,,,,,,,,,,,,,,,,,,,2,2.0011,0,15,15,15,1,holocaust,entirety,destruction,saintly,price,2,,,,,,,,,,,,,,,,,,,,,,,,,,,,,,,,,,,,,,,,,,,,,,,,,,,,
,,,,,,,,,,,,,,,90509,001,2022-04-28_21h29.52.323,SPAMnetsValid,2021.1.4,MacIntel,60.0024001,,,,,,,,,,,,,,,,,,,,,,,,,1,5.4656,0,16,16,16,1,piquant,mellow,fish,pungent,cloth,3,,,,,,,,,,,,,,,,,,,,,,,,,,,,,,,,,,,,,,,,,,,,,,,,,,,,
,,,,,,,,,,,,,,,90509,001,2022-04-28_21h29.52.323,SPAMnetsValid,2021.1.4,MacIntel,60.0024001,,,,,,,,,,,,,,,,,,,,,,,,,3,3.5509,0,17,17,17,1,firmament,foundation,heavens,strong,glue,2,,,,,,,,,,,,,,,,,,,,,,,,,,,,,,,,,,,,,,,,,,,,,,,,,,,,
,,,,,,,,,,,,,,,90509,001,2022-04-28_21h29.52.323,SPAMnetsValid,2021.1.4,MacIntel,60.0024001,,,,,,,,,,,,,,,,,,,,,,,,,,,,,,,,,,,,,,4,4.0198,0,0,0,0,1,marketable,partisan,jocular,marriageable,salable,essential,4,,,,,,,,,,,,,,,,,,,,,,,,,,,,,,,,,,,,,,
,,,,,,,,,,,,,,,90509,001,2022-04-28_21h29.52.323,SPAMnetsValid,2021.1.4,MacIntel,60.0024001,,,,,,,,,,,,,,,,,,,,,,,,,,,,,,,,,,,,,,4,4.5841,0,1,1,1,1,cottontail,squirrel,poplar,boa,marshy plant,rabbit,5,,,,,,,,,,,,,,,,,,,,,,,,,,,,,,,,,,,,,,
,,,,,,,,,,,,,,,90509,001,2022-04-28_21h29.52.323,SPAMnetsValid,2021.1.4,MacIntel,60.0024001,,,,,,,,,,,,,,,,,,,,,,,,,,,,,,,,,,,,,,3,4.2315,0,2,2,2,1,boggy,afraid,false,marshy,dense,black,3,,,,,,,,,,,,,,,,,,,,,,,,,,,,,,,,,,,,,,
,,,,,,,,,,,,,,,90509,001,2022-04-28_21h29.52.323,SPAMnetsValid,2021.1.4,MacIntel,60.0024001,,,,,,,,,,,,,,,,,,,,,,,,,,,,,,,,,,,,,,5,8.9821,0,3,3,3,1,gruesomeness,blackness,falseness,vindictiveness,drunkenness,ghastliness,5,,,,,,,,,,,,,,,,,,,,,,,,,,,,,,,,,,,,,,
,,,,,,,,,,,,,,,90509,001,2022-04-28_21h29.52.323,SPAMnetsValid,2021.1.4,MacIntel,60.0024001,,,,,,,,,,,,,,,,,,,,,,,,,,,,,,,,,,,,,,5,3.0965,0,4,4,4,1,loathing,diffidence,laziness,abhorrence,cleverness,comfort,3,,,,,,,,,,,,,,,,,,,,,,,,,,,,,,,,,,,,,,
,,,,,,,,,,,,,,,90509,001,2022-04-28_21h29.52.323,SPAMnetsValid,2021.1.4,MacIntel,60.0024001,,,,,,,,,,,,,,,,,,,,,,,,,,,,,,,,,,,,,,2,25.4337,0,5,5,5,1,bantam,fowl,ridicule,cripple,vegetable,ensign,1,,,,,,,,,,,,,,,,,,,,,,,,,,,,,,,,,,,,,,
,,,,,,,,,,,,,,,90509,001,2022-04-28_21h29.52.323,SPAMnetsValid,2021.1.4,MacIntel,60.0024001,,,,,,,,,,,,,,,,,,,,,,,,,,,,,,,,,,,,,,1,3.9836,0,6,6,6,1,evoke,wake up,surrender,reconnoiter,transcend,call forth,5,,,,,,,,,,,,,,,,,,,,,,,,,,,,,,,,,,,,,,
,,,,,,,,,,,,,,,90509,001,2022-04-28_21h29.52.323,SPAMnetsValid,2021.1.4,MacIntel,60.0024001,,,,,,,,,,,,,,,,,,,,,,,,,,,,,,,,,,,,,,5,9.6805,0,7,7,7,1,unobtrusive,unintelligent,epileptic,illogical,lineal,modest,5,,,,,,,,,,,,,,,,,,,,,,,,,,,,,,,,,,,,,,
,,,,,,,,,,,,,,,90509,001,2022-04-28_21h29.52.323,SPAMnetsValid,2021.1.4,MacIntel,60.0024001,,,,,,,,,,,,,,,,,,,,,,,,,,,,,,,,,,,,,,4,11.0164,0,8,8,8,1,terrain,ice cream,final test,tractor,area of ground,weight,4,,,,,,,,,,,,,,,,,,,,,,,,,,,,,,,,,,,,,,
,,,,,,,,,,,,,,,90509,001,2022-04-28_21h29.52.323,SPAMnetsValid,2021.1.4,MacIntel,60.0024001,,,,,,,,,,,,,,,,,,,,,,,,,,,,,,,,,,,,,,4,10.6656,0,9,9,9,1,capriciousness,stubbornness,courage,whimsicality,amazement,greediness,3,,,,,,,,,,,,,,,,,,,,,,,,,,,,,,,,,,,,,,
,,,,,,,,,,,,,,,90509,001,2022-04-28_21h29.52.323,SPAMnetsValid,2021.1.4,MacIntel,60.0024001,,,,,,,,,,,,,,,,,,,,,,,,,,,,,,,,,,,,,,3,4.9673,0,10,10,10,1,maelstrom,slander,whirlpool,enmity,armor,majolica,2,,,,,,,,,,,,,,,,,,,,,,,,,,,,,,,,,,,,,,
,,,,,,,,,,,,,,,90509,001,2022-04-28_21h29.52.323,SPAMnetsValid,2021.1.4,MacIntel,60.0024001,,,,,,,,,,,,,,,,,,,,,,,,,,,,,,,,,,,,,,4,2.7663,0,11,11,11,1,tentative,critical,conclusive,authentic,provisional,apprehensive,4,,,,,,,,,,,,,,,,,,,,,,,,,,,,,,,,,,,,,,
,,,,,,,,,,,,,,,90509,001,2022-04-28_21h29.52.323,SPAMnetsValid,2021.1.4,MacIntel,60.0024001,,,,,,,,,,,,,,,,,,,,,,,,,,,,,,,,,,,,,,3,7.3365,0,12,12,12,1,placate,rehabilitate,plagiarize,depredate,apprise,conciliate,5,,,,,,,,,,,,,,,,,,,,,,,,,,,,,,,,,,,,,,
,,,,,,,,,,,,,,,90509,001,2022-04-28_21h29.52.323,SPAMnetsValid,2021.1.4,MacIntel,60.0024001,,,,,,,,,,,,,,,,,,,,,,,,,,,,,,,,,,,,,,5,6.0803,0,13,13,13,1,surcease,enlightenment,cessation,inattention,censor,substitution,2,,,,,,,,,,,,,,,,,,,,,,,,,,,,,,,,,,,,,,
,,,,,,,,,,,,,,,90509,001,2022-04-28_21h29.52.323,SPAMnetsValid,2021.1.4,MacIntel,60.0024001,,,,,,,,,,,,,,,,,,,,,,,,,,,,,,,,,,,,,,3,5.0488,0,14,14,14,1,apathetic,wandering,impassive,hateful,prophetic,overflowing,2,,,,,,,,,,,,,,,,,,,,,,,,,,,,,,,,,,,,,,
,,,,,,,,,,,,,,,90509,001,2022-04-28_21h29.52.323,SPAMnetsValid,2021.1.4,MacIntel,60.0024001,,,,,,,,,,,,,,,,,,,,,,,,,,,,,,,,,,,,,,2,9.5324,0,15,15,15,1,paternoster,paternalism,patricide,malediction,benediction,prayer,5,,,,,,,,,,,,,,,,,,,,,,,,,,,,,,,,,,,,,,
,,,,,,,,,,,,,,,90509,001,2022-04-28_21h29.52.323,SPAMnetsValid,2021.1.4,MacIntel,60.0024001,,,,,,,,,,,,,,,,,,,,,,,,,,,,,,,,,,,,,,2,5.1835,0,16,16,16,1,opalescence,opulence,senescence,bankruptcy,iridescence,assiduity,4,,,,,,,,,,,,,,,,,,,,,,,,,,,,,,,,,,,,,,
,,,,,,,,,,,,,,,90509,001,2022-04-28_21h29.52.323,SPAMnetsValid,2021.1.4,MacIntel,60.0024001,,,,,,,,,,,,,,,,,,,,,,,,,,,,,,,,,,,,,,2,5.215,0,17,17,17,1,lush,stupid,luxurious,hazy,putrid,languishing,2,,,,,,,,,,,,,,,,,,,,,,,,,,,,,,,,,,,,,,
,,,,,,,,,,,,,,,90509,001,2022-04-28_21h29.52.323,SPAMnetsValid,2021.1.4,MacIntel,60.0024001,,,,,,,,,,,,,,,,,,,,,,,,,,,,,,,,,,,,,,3,8.1846,0,18,18,18,1,curtailment,expenditure,abandonment,abridgment,improvement,forgery,3,,,,,,,,,,,,,,,,,,,,,,,,,,,,,,,,,,,,,,
,,,,,,,,,,,,,,,90509,001,2022-04-28_21h29.52.323,SPAMnetsValid,2021.1.4,MacIntel,60.0024001,,,,,,,,,,,,,,,,,,,,,,,,,,,,,,,,,,,,,,2,16.1596,0,19,19,19,1,perversity,adversity,perviousness,travesty,waywardness,gentility,4,,,,,,,,,,,,,,,,,,,,,,,,,,,,,,,,,,,,,,
,,,,,,,,,,,,,,,90509,001,2022-04-28_21h29.52.323,SPAMnetsValid,2021.1.4,MacIntel,60.0024001,,,,,,,,,,,,,,,,,,,,,,,,,,,,,,,,,,,,,,5,3.233,0,20,20,20,1,calumnious,complimentary,analogous,slanderous,tempestuous,magnanimous,3,,,,,,,,,,,,,,,,,,,,,,,,,,,,,,,,,,,,,,
,,,,,,,,,,,,,,,90509,001,2022-04-28_21h29.52.323,SPAMnetsValid,2021.1.4,MacIntel,60.0024001,,,,,,,,,,,,,,,,,,,,,,,,,,,,,,,,,,,,,,4,4.5838,0,21,21,21,1,illiberality,bigotry,imbecility,illegibility,cautery,immaturity,1,,,,,,,,,,,,,,,,,,,,,,,,,,,,,,,,,,,,,,
,,,,,,,,,,,,,,,90509,001,2022-04-28_21h29.52.323,SPAMnetsValid,2021.1.4,MacIntel,60.0024001,,,,,,,,,,,,,,,,,,,,,,,,,,,,,,,,,,,,,,2,2.8946,0,22,22,22,1,clabber,rejoice,gossip,curdle,crow,hobble,3,,,,,,,,,,,,,,,,,,,,,,,,,,,,,,,,,,,,,,
,,,,,,,,,,,,,,,90509,001,2022-04-28_21h29.52.323,SPAMnetsValid,2021.1.4,MacIntel,60.0024001,,,,,,,,,,,,,,,,,,,,,,,,,,,,,,,,,,,,,,4,4.1657,0,23,23,23,1,sedulousness,diligence,credulousness,seduction,perilousness,frankness,1,,,,,,,,,,,,,,,,,,,,,,,,,,,,,,,,,,,,,,
,,,,,,,,,,,,,,,90509,001,2022-04-28_21h29.52.323,SPAMnetsValid,2021.1.4,MacIntel,60.0024001,,,,,,,,,,,,,,,,,,,,,,,,,,,,,,,,,,,,,,,,,,,,,,,,,,,,bucket,bucket,0,0,0,0,1,,,,,,,,,,,,,,,,,,,,,,,,,,,,,,,
,,,,,,,,,,,,,,,90509,001,2022-04-28_21h29.52.323,SPAMnetsValid,2021.1.4,MacIntel,60.0024001,,,,,,,,,,,,,,,,,,,,,,,,,,,,,,,,,,,,,,,,,,,,,,,,,,,,bucket,bucket,1,0,1,0,1,,,,,,,,,,,,,,,,,,,,,,,,,,,,,,,
,,,,,,,,,,,,,,,90509,001,2022-04-28_21h29.52.323,SPAMnetsValid,2021.1.4,MacIntel,60.0024001,,,,,,,,,,,,,,,,,,,,,,,,,,,,,,,,,,,,,,,,,,,,,,,,,,,,bucket,bucket,2,0,2,0,1,,,,,,,,,,,,,,,,,,,,,,,,,,,,,,,
,,,,,,,,,,,,,,,90509,001,2022-04-28_21h29.52.323,SPAMnetsValid,2021.1.4,MacIntel,60.0024001,,,,,,,,,,,,,,,,,,,,,,,,,,,,,,,,,,,,,,,,,,,,,,,,,,,,bucket,bucket,3,0,3,0,1,,,,,,,,,,,,,,,,,,,,,,,,,,,,,,,
,,,,,,,,,,,,,,,90509,001,2022-04-28_21h29.52.323,SPAMnetsValid,2021.1.4,MacIntel,60.0024001,,,,,,,,,,,,,,,,,,,,,,,,,,,,,,,,,,,,,,,,,,,,,,,,,,,,bucket,bucket,4,0,4,0,1,,,,,,,,,,,,,,,,,,,,,,,,,,,,,,,
,,,,,,,,,,,,,,,90509,001,2022-04-28_21h29.52.323,SPAMnetsValid,2021.1.4,MacIntel,60.0024001,,,,,,,,,,,,,,,,,,,,,,,,,,,,,,,,,,,,,,,,,,,,,,,,,,,,bucket,bucket,5,0,5,0,1,,,,,,,,,,,,,,,,,,,,,,,,,,,,,,,
,,,,,,,,,,,,,,,90509,001,2022-04-28_21h29.52.323,SPAMnetsValid,2021.1.4,MacIntel,60.0024001,,,,,,,,,,,,,,,,,,,,,,,,,,,,,,,,,,,,,,,,,,,,,,,,,,,,bucket,bucket,6,0,6,0,1,,,,,,,,,,,,,,,,,,,,,,,,,,,,,,,
,,,,,,,,,,,,,,,90509,001,2022-04-28_21h29.52.323,SPAMnetsValid,2021.1.4,MacIntel,60.0024001,,,,,,,,,,,,,,,,,,,,,,,,,,,,,,,,,,,,,,,,,,,,,,,,,,,,bucket,bucket,7,0,7,0,1,,,,,,,,,,,,,,,,,,,,,,,,,,,,,,,
,,,,,,,,,,,,,,,90509,001,2022-04-28_21h29.52.323,SPAMnetsValid,2021.1.4,MacIntel,60.0024001,,,,,,,,,,,,,,,,,,,,,,,,,,,,,,,,,,,,,,,,,,,,,,,,,,,,bucket,bucket,8,0,8,0,1,,,,,,,,,,,,,,,,,,,,,,,,,,,,,,,
,,,,,,,,,,,,,,,90509,001,2022-04-28_21h29.52.323,SPAMnetsValid,2021.1.4,MacIntel,60.0024001,,,,,,,,,,,,,,,,,,,,,,,,,,,,,,,,,,,,,,,,,,,,,,,,,,,,bucket,bucket,9,0,9,0,1,,,,,,,,,,,,,,,,,,,,,,,,,,,,,,,
,,,,,,,,,,,,,,,90509,001,2022-04-28_21h29.52.323,SPAMnetsValid,2021.1.4,MacIntel,60.0024001,,,,,,,,,,,,,,,,,,,,,,,,,,,,,,,,,,,,,,,,,,,,,,,,,,,,bucket,bucket,10,0,10,0,1,,,,,,,,,,,,,,,,,,,,,,,,,,,,,,,
,,,,,,,,,,,,,,,90509,001,2022-04-28_21h29.52.323,SPAMnetsValid,2021.1.4,MacIntel,60.0024001,,,,,,,,,,,,,,,,,,,,,,,,,,,,,,,,,,,,,,,,,,,,,,,,,,,,bucket,bucket,11,0,11,0,1,,,,,,,,,,,,,,,,,,,,,,,,,,,,,,,
,,,,,,,,,,,,,,,90509,001,2022-04-28_21h29.52.323,SPAMnetsValid,2021.1.4,MacIntel,60.0024001,,,,,,,,,,,,,,,,,,,,,,,,,,,,,,,,,,,,,,,,,,,,,,,,,,,,bucket,bucket,12,0,12,0,1,,,,,,,,,,,,,,,,,,,,,,,,,,,,,,,
,,,,,,,,,,,,,,,90509,001,2022-04-28_21h29.52.323,SPAMnetsValid,2021.1.4,MacIntel,60.0024001,,,,,,,,,,,,,,,,,,,,,,,,,,,,,,,,,,,,,,,,,,,,,,,,,,,,bucket,bucket,13,0,13,0,1,,,,,,,,,,,,,,,,,,,,,,,,,,,,,,,
,,,,,,,,,,,,,,,90509,001,2022-04-28_21h29.52.323,SPAMnetsValid,2021.1.4,MacIntel,60.0024001,,,,,,,,,,,,,,,,,,,,,,,,,,,,,,,,,,,,,,,,,,,,,,,,,,,,bucket,bucket,14,0,14,0,1,,,,,,,,,,,,,,,,,,,,,,,,,,,,,,,
,,,,,,,,,,,,,,,90509,001,2022-04-28_21h29.52.323,SPAMnetsValid,2021.1.4,MacIntel,60.0024001,,,,,,,,,,,,,,,,,,,,,,,,,,,,,,,,,,,,,,,,,,,,,,,,,,,,bucket,bucket,15,0,15,0,1,,,,,,,,,,,,,,,,,,,,,,,,,,,,,,,
,,,,,,,,,,,,,,,90509,001,2022-04-28_21h29.52.323,SPAMnetsValid,2021.1.4,MacIntel,60.0024001,,,,,,,,,,,,,,,,,,,,,,,,,,,,,,,,,,,,,,,,,,,,,,,,,,,,bucket,bucket,16,0,16,0,1,,,,,,,,,,,,,,,,,,,,,,,,,,,,,,,
,,,,,,,,,,,,,,,90509,001,2022-04-28_21h29.52.323,SPAMnetsValid,2021.1.4,MacIntel,60.0024001,,,,,,,,,,,,,,,,,,,,,,,,,,,,,,,,,,,,,,,,,,,,,,,,,,,,bucket,bucket,17,0,17,0,1,,,,,,,,,,,,,,,,,,,,,,,,,,,,,,,
,,,,,,,,,,,,,,,90509,001,2022-04-28_21h29.52.323,SPAMnetsValid,2021.1.4,MacIntel,60.0024001,,,,,,,,,,,,,,,,,,,,,,,,,,,,,,,,,,,,,,,,,,,,,,,,,,,,bucket,bucket,18,0,18,0,1,,,,,,,,,,,,,,,,,,,,,,,,,,,,,,,
,,,,,,,,,,,,,,,90509,001,2022-04-28_21h29.52.323,SPAMnetsValid,2021.1.4,MacIntel,60.0024001,,,,,,,,,,,,,,,,,,,,,,,,,,,,,,,,,,,,,,,,,,,,,,,,,,,,bucket,bucket,19,0,19,0,1,,,,,,,,,,,,,,,,,,,,,,,,,,,,,,,
,,,,,,,,,,,,,,,90509,001,2022-04-28_21h29.52.323,SPAMnetsValid,2021.1.4,MacIntel,60.0024001,,,,,,,,,,,,,,,,,,,,,,,,,,,,,,,,,,,,,,,,,,,,,,,,,,,,bucket,bucket,20,0,20,0,1,,,,,,,,,,,,,,,,,,,,,,,,,,,,,,,
,,,,,,,,,,,,,,,90509,001,2022-04-28_21h29.52.323,SPAMnetsValid,2021.1.4,MacIntel,60.0024001,,,,,,,,,,,,,,,,,,,,,,,,,,,,,,,,,,,,,,,,,,,,,,,,,,,,bucket,bucket,21,0,21,0,1,,,,,,,,,,,,,,,,,,,,,,,,,,,,,,,
,,,,,,,,,,,,,,,90509,001,2022-04-28_21h29.52.323,SPAMnetsValid,2021.1.4,MacIntel,60.0024001,,,,,,,,,,,,,,,,,,,,,,,,,,,,,,,,,,,,,,,,,,,,,,,,,,,, bucket,bucket,22,0,22,0,1,,,,,,,,,,,,,,,,,,,,,,,,,,,,,,,
,,,,,,,,,,,,,,,90509,001,2022-04-28_21h29.52.323,SPAMnetsValid,2021.1.4,MacIntel,60.0024001,,,,,,,,,,,,,,,,,,,,,,,,,,,,,,,,,,,,,,,,,,,,,,,,,,,,bucket,bucket,23,0,23,0,1,,,,,,,,,,,,,,,,,,,,,,,,,,,,,,,
,,,,,,,,,,,,,,,90509,001,2022-04-28_21h29.52.323,SPAMnetsValid,2021.1.4,MacIntel,60.0024001,,,,,,,,,,,,,,,,,,,,,,,,,,,,,,,,,,,,,,,,,,,,,,,,,,,,bucket,bucket,24,0,24,0,1,,,,,,,,,,,,,,,,,,,,,,,,,,,,,,,
,,,,,,,,,,,,,,,90509,001,2022-04-28_21h29.52.323,SPAMnetsValid,2021.1.4,MacIntel,60.0024001,,,,,,,,,,,,,,,,,,,,,,,,,,,,,,,,,,,,,,,,,,,,,,,,,,,,bucket,bucket,25,0,25,0,1,,,,,,,,,,,,,,,,,,,,,,,,,,,,,,,
,,,,,,,,,,,,,,,90509,001,2022-04-28_21h29.52.323,SPAMnetsValid,2021.1.4,MacIntel,60.0024001,,,,,,,,,,,,,,,,,,,,,,,,,,,,,,,,,,,,,,,,,,,,,,,,,,,,bucket,bucket,26,0,26,0,1,,,,,,,,,,,,,,,,,,,,,,,,,,,,,,,
,,,,,,,,,,,,,,,90509,001,2022-04-28_21h29.52.323,SPAMnetsValid,2021.1.4,MacIntel,60.0024001,,,,,,,,,,,,,,,,,,,,,,,,,,,,,,,,,,,,,,,,,,,,,,,,,,,,bucket,bucket,27,0,27,0,1,,,,,,,,,,,,,,,,,,,,,,,,,,,,,,,
,,,,,,,,,,,,,,,90509,001,2022-04-28_21h29.52.323,SPAMnetsValid,2021.1.4,MacIntel,60.0024001,,,,,,,,,,,,,,,,,,,,,,,,,,,,,,,,,,,,,,,,,,,,,,,,,,,,bucket,bucket,28,0,28,0,1,,,,,,,,,,,,,,,,,,,,,,,,,,,,,,,
,,,,,,,,,,,,,,,90509,001,2022-04-28_21h29.52.323,SPAMnetsValid,2021.1.4,MacIntel,60.0024001,,,,,,,,,,,,,,,,,,,,,,,,,,,,,,,,,,,,,,,,,,,,,,,,,,,,bucket,bucket,29,0,29,0,1,,,,,,,,,,,,,,,,,,,,,,,,,,,,,,,
,,,,,,,,,,,,,,,90509,001,2022-04-28_21h29.52.323,SPAMnetsValid,2021.1.4,MacIntel,60.0024001,,,,,,,,,,,,,,,,,,,,,,,,,,,,,,,,,,,,,,,,,,,,,,,,,,,,bucket,bucket,30,0,30,0,1,,,,,,,,,,,,,,,,,,,,,,,,,,,,,,,
,,,,,,,,,,,,,,,90509,001,2022-04-28_21h29.52.323,SPAMnetsValid,2021.1.4,MacIntel,60.0024001,,,,,,,,,,,,,,,,,,,,,,,,,,,,,,,,,,,,,,,,,,,,,,,,,,,,bucket,bucket,31,0,31,0,1,,,,,,,,,,,,,,,,,,,,,,,,,,,,,,,
,,,,,,,,,,,,,,,90509,001,2022-04-28_21h29.52.323,SPAMnetsValid,2021.1.4,MacIntel,60.0024001,,,,,,,,,,,,,,,,,,,,,,,,,,,,,,,,,,,,,,,,,,,,,,,,,,,,bucket,bucket,32,0,32,0,1,,,,,,,,,,,,,,,,,,,,,,,,,,,,,,,
,,,,,,,,,,,,,,,90509,001,2022-04-28_21h29.52.323,SPAMnetsValid,2021.1.4,MacIntel,60.0024001,,,,,,,,,,,,,,,,,,,,,,,,,,,,,,,,,,,,,,,,,,,,,,,,,,,,bucket,bucket,33,0,33,0,1,,,,,,,,,,,,,,,,,,,,,,,,,,,,,,,
,,,,,,,,,,,,,,,90509,001,2022-04-28_21h29.52.323,SPAMnetsValid,2021.1.4,MacIntel,60.0024001,,,,,,,,,,,,,,,,,,,,,,,,,,,,,,,,,,,,,,,,,,,,,,,,,,,,bucket,bucket,34,0,34,0,1,,,,,,,,,,,,,,,,,,,,,,,,,,,,,,,
,,,,,,,,,,,,,,,90509,001,2022-04-28_21h29.52.323,SPAMnetsValid,2021.1.4,MacIntel,60.0024001,,,,,,,,,,,,,,,,,,,,,,,,,,,,,,,,,,,,,,,,,,,,,,,,,,,,bucket,bucket,35,0,35,0,1,,,,,,,,,,,,,,,,,,,,,,,,,,,,,,,
,,,,,,,,,,,,,,,90509,001,2022-04-28_21h29.52.323,SPAMnetsValid,2021.1.4,MacIntel,60.0024001,,,,,,,,,,,,,,,,,,,,,,,,,,,,,,,,,,,,,,,,,,,,,,,,,,,,buckey,bucket,36,0,36,0,1,,,,,,,,,,,,,,,,,,,,,,,,,,,,,,,
,,,,,,,,,,,,,,,90509,001,2022-04-28_21h29.52.323,SPAMnetsValid,2021.1.4,MacIntel,60.0024001,,,,,,,,,,,,,,,,,,,,,,,,,,,,,,,,,,,,,,,,,,,,,,,,,,,,bucket,bucket,37,0,37,0,1,,,,,,,,,,,,,,,,,,,,,,,,,,,,,,,
,,,,,,,,,,,,,,,90509,001,2022-04-28_21h29.52.323,SPAMnetsValid,2021.1.4,MacIntel,60.0024001,,,,,,,,,,,,,,,,,,,,,,,,,,,,,,,,,,,,,,,,,,,,,,,,,,,,bucket,bucket,38,0,38,0,1,,,,,,,,,,,,,,,,,,,,,,,,,,,,,,,
,,,,,,,,,,,,,,,90509,001,2022-04-28_21h29.52.323,SPAMnetsValid,2021.1.4,MacIntel,60.0024001,,,,,,,,,,,,,,,,,,,,,,,,,,,,,,,,,,,,,,,,,,,,,,,,,,,,bucket,bucket,39,0,39,0,1,,,,,,,,,,,,,,,,,,,,,,,,,,,,,,,
,,,,,,,,,,,,,,,90509,001,2022-04-28_21h29.52.323,SPAMnetsValid,2021.1.4,MacIntel,60.0024001,,,,,,,,,,,,,,,,,,,,,,,,,,,,,,,,,,,,,,,,,,,,,,,,,,,,bucket,bucket,40,0,40,0,1,,,,,,,,,,,,,,,,,,,,,,,,,,,,,,,
,,,,,,,,,,,,,,,90509,001,2022-04-28_21h29.52.323,SPAMnetsValid,2021.1.4,MacIntel,60.0024001,,,,,,,,,,,,,,,,,,,,,,,,,,,,,,,,,,,,,,,,,,,,,,,,,,,,bucket,bucket,41,0,41,0,1,,,,,,,,,,,,,,,,,,,,,,,,,,,,,,,
,,,,,,,,,,,,,,,90509,001,2022-04-28_21h29.52.323,SPAMnetsValid,2021.1.4,MacIntel,60.0024001,,,,,,,,,,,,,,,,,,,,,,,,,,,,,,,,,,,,,,,,,,,,,,,,,,,,bucket,bucket,42,0,42,0,1,,,,,,,,,,,,,,,,,,,,,,,,,,,,,,,
,,,,,,,,,,,,,,,90509,001,2022-04-28_21h29.52.323,SPAMnetsValid,2021.1.4,MacIntel,60.0024001,,,,,,,,,,,,,,,,,,,,,,,,,,,,,,,,,,,,,,,,,,,,,,,,,,,,bucket,bucket,43,0,43,0,1,,,,,,,,,,,,,,,,,,,,,,,,,,,,,,,
,,,,,,,,,,,,,,,90509,001,2022-04-28_21h29.52.323,SPAMnetsValid,2021.1.4,MacIntel,60.0024001,,,,,,,,,,,,,,,,,,,,,,,,,,,,,,,,,,,,,,,,,,,,,,,,,,,,bucket,bucket,44,0,44,0,1,,,,,,,,,,,,,,,,,,,,,,,,,,,,,,,
,,,,,,,,,,,,,,,90509,001,2022-04-28_21h29.52.323,SPAMnetsValid,2021.1.4,MacIntel,60.0024001,,,,,,,,,,,,,,,,,,,,,,,,,,,,,,,,,,,,,,,,,,,,,,,,,,,,bucket,bucket,45,0,45,0,1,,,,,,,,,,,,,,,,,,,,,,,,,,,,,,,
,,,,,,,,,,,,,,,90509,001,2022-04-28_21h29.52.323,SPAMnetsValid,2021.1.4,MacIntel,60.0024001,,,,,,,,,,,,,,,,,,,,,,,,,,,,,,,,,,,,,,,,,,,,,,,,,,,,bucket,bucket,46,0,46,0,1,,,,,,,,,,,,,,,,,,,,,,,,,,,,,,,
,,,,,,,,,,,,,,,90509,001,2022-04-28_21h29.52.323,SPAMnetsValid,2021.1.4,MacIntel,60.0024001,,,,,,,,,,,,,,,,,,,,,,,,,,,,,,,,,,,,,,,,,,,,,,,,,,,,bucket,bucket,47,0,47,0,1,,,,,,,,,,,,,,,,,,,,,,,,,,,,,,,
,,,,,,,,,,,,,,,90509,001,2022-04-28_21h29.52.323,SPAMnetsValid,2021.1.4,MacIntel,60.0024001,,,,,,,,,,,,,,,,,,,,,,,,,,,,,,,,,,,,,,,,,,,,,,,,,,,,bucket,bucket,48,0,48,0,1,,,,,,,,,,,,,,,,,,,,,,,,,,,,,,,
,,,,,,,,,,,,,,,90509,001,2022-04-28_21h29.52.323,SPAMnetsValid,2021.1.4,MacIntel,60.0024001,,,,,,,,,,,,,,,,,,,,,,,,,,,,,,,,,,,,,,,,,,,,,,,,,,,,bucket,bucket,49,0,49,0,1,,,,,,,,,,,,,,,,,,,,,,,,,,,,,,,
,,,,,,,,,,,,,,,90509,001,2022-04-28_21h29.52.323,SPAMnetsValid,2021.1.4,MacIntel,60.0024001,,,,,,,,,,,,,,,,,,,,,,,,,,,,,,,,,,,,,,,,,,,,,,,,,,,,bucket,bucket,50,0,50,0,1,,,,,,,,,,,,,,,,,,,,,,,,,,,,,,,
,,,,,,,,,,,,,,,90509,001,2022-04-28_21h29.52.323,SPAMnetsValid,2021.1.4,MacIntel,60.0024001,,,,,,,,,,,,,,,,,,,,,,,,,,,,,,,,,,,,,,,,,,,,,,,,,,,,bucket,bucket,51,0,51,0,1,,,,,,,,,,,,,,,,,,,,,,,,,,,,,,,
,,,,,,,,,,,,,,,90509,001,2022-04-28_21h29.52.323,SPAMnetsValid,2021.1.4,MacIntel,60.0024001,,,,,,,,,,,,,,,,,,,,,,,,,,,,,,,,,,,,,,,,,,,,,,,,,,,,bucket,bucket,52,0,52,0,1,,,,,,,,,,,,,,,,,,,,,,,,,,,,,,,
,,,,,,,,,,,,,,,90509,001,2022-04-28_21h29.52.323,SPAMnetsValid,2021.1.4,MacIntel,60.0024001,,,,,,,,,,,,,,,,,,,,,,,,,,,,,,,,,,,,,,,,,,,,,,,,,,,,bucket,bucket,53,0,53,0,1,,,,,,,,,,,,,,,,,,,,,,,,,,,,,,,
,,,,,,,,,,,,,,,90509,001,2022-04-28_21h29.52.323,SPAMnetsValid,2021.1.4,MacIntel,60.0024001,,,,,,,,,,,,,,,,,,,,,,,,,,,,,,,,,,,,,,,,,,,,,,,,,,,,bucket,bucket,54,0,54,0,1,,,,,,,,,,,,,,,,,,,,,,,,,,,,,,,
,,,,,,,,,,,,,,,90509,001,2022-04-28_21h29.52.323,SPAMnetsValid,2021.1.4,MacIntel,60.0024001,,,,,,,,,,,,,,,,,,,,,,,,,,,,,,,,,,,,,,,,,,,,,,,,,,,,bucket,bucket,55,0,55,0,1,,,,,,,,,,,,,,,,,,,,,,,,,,,,,,,
,,,,,,,,,,,,,,,90509,001,2022-04-28_21h29.52.323,SPAMnetsValid,2021.1.4,MacIntel,60.0024001,,,,,,,,,,,,,,,,,,,,,,,,,,,,,,,,,,,,,,,,,,,,,,,,,,,,bucket,bucket,56,0,56,0,1,,,,,,,,,,,,,,,,,,,,,,,,,,,,,,,
,,,,,,,,,,,,,,,90509,001,2022-04-28_21h29.52.323,SPAMnetsValid,2021.1.4,MacIntel,60.0024001,,,,,,,,,,,,,,,,,,,,,,,,,,,,,,,,,,,,,,,,,,,,,,,,,,,,bucket,bucket,57,0,57,0,1,,,,,,,,,,,,,,,,,,,,,,,,,,,,,,,
,,,,,,,,,,,,,,,90509,001,2022-04-28_21h29.52.323,SPAMnetsValid,2021.1.4,MacIntel,60.0024001,,,,,,,,,,,,,,,,,,,,,,,,,,,,,,,,,,,,,,,,,,,,,,,,,,,,bucket,bucket,58,0,58,0,1,,,,,,,,,,,,,,,,,,,,,,,,,,,,,,,
,,,,,,,,,,,,,,,90509,001,2022-04-28_21h29.52.323,SPAMnetsValid,2021.1.4,MacIntel,60.0024001,,,,,,,,,,,,,,,,,,,,,,,,,,,,,,,,,,,,,,,,,,,,,,,,,,,,bucket,bucket,59,0,59,0,1,,,,,,,,,,,,,,,,,,,,,,,,,,,,,,,
,,,,,,,,,,,,,,,90509,001,2022-04-28_21h29.52.323,SPAMnetsValid,2021.1.4,MacIntel,60.0024001,,,,,,,,,,,,,,,,,,,,,,,,,,,,,,,,,,,,,,,,,,,,,,,,,,,,bucket,bucket,60,0,60,0,1,,,,,,,,,,,,,,,,,,,,,,,,,,,,,,,
,,,,,,,,,,,,,,,90509,001,2022-04-28_21h29.52.323,SPAMnetsValid,2021.1.4,MacIntel,60.0024001,,,,,,,,,,,,,,,,,,,,,,,,,,,,,,,,,,,,,,,,,,,,,,,,,,,,bucket,bucket,61,0,61,0,1,,,,,,,,,,,,,,,,,,,,,,,,,,,,,,,
,,,,,,,,,,,,,,,90509,001,2022-04-28_21h29.52.323,SPAMnetsValid,2021.1.4,MacIntel,60.0024001,,,,,,,,,,,,,,,,,,,,,,,,,,,,,,,,,,,,,,,,,,,,,,,,,,,,bucket,bucket,62,0,62,0,1,,,,,,,,,,,,,,,,,,,,,,,,,,,,,,,
,,,,,,,,,,,,,,,90509,001,2022-04-28_21h29.52.323,SPAMnetsValid,2021.1.4,MacIntel,60.0024001,,,,,,,,,,,,,,,,,,,,,,,,,,,,,,,,,,,,,,,,,,,,,,,,,,,,bucket,bucket,63,0,63,0,1,,,,,,,,,,,,,,,,,,,,,,,,,,,,,,,
,,,,,,,,,,,,,,,90509,001,2022-04-28_21h29.52.323,SPAMnetsValid,2021.1.4,MacIntel,60.0024001,,,,,,,,,,,,,,,,,,,,,,,,,,,,,,,,,,,,,,,,,,,,,,,,,,,,bucket,bucket,64,0,64,0,1,,,,,,,,,,,,,,,,,,,,,,,,,,,,,,,
,,,,,,,,,,,,,,,90509,001,2022-04-28_21h29.52.323,SPAMnetsValid,2021.1.4,MacIntel,60.0024001,,,,,,,,,,,,,,,,,,,,,,,,,,,,,,,,,,,,,,,,,,,,,,,,,,,,,,,,,,,0,0,0,0,1,bucket,,,,,,,,,,,,,,,,,,,,,,,,,
,,,,,,,,,,,,,,,90509,001,2022-04-28_21h29.52.323,SPAMnetsValid,2021.1.4,MacIntel,60.0024001,,,,,,,,,,,,,,,,,,,,,,,,,,,,,,,,,,,,,,,,,,,,,,,,,,,,pillow,pillow,0,0,0,0,1,,,,,,,,,,,,,,,,,,,,,,,,,,,,,,,
,,,,,,,,,,,,,,,90509,001,2022-04-28_21h29.52.323,SPAMnetsValid,2021.1.4,MacIntel,60.0024001,,,,,,,,,,,,,,,,,,,,,,,,,,,,,,,,,,,,,,,,,,,,,,,,,,,,pillow,pillow,1,0,1,0,1,,,,,,,,,,,,,,,,,,,,,,,,,,,,,,,
,,,,,,,,,,,,,,,90509,001,2022-04-28_21h29.52.323,SPAMnetsValid,2021.1.4,MacIntel,60.0024001,,,,,,,,,,,,,,,,,,,,,,,,,,,,,,,,,,,,,,,,,,,,,,,,,,,,pillow,pillow,2,0,2,0,1,,,,,,,,,,,,,,,,,,,,,,,,,,,,,,,
,,,,,,,,,,,,,,,90509,001,2022-04-28_21h29.52.323,SPAMnetsValid,2021.1.4,MacIntel,60.0024001,,,,,,,,,,,,,,,,,,,,,,,,,,,,,,,,,,,,,,,,,,,,,,,,,,,,pillow,pillow,3,0,3,0,1,,,,,,,,,,,,,,,,,,,,,,,,,,,,,,,
,,,,,,,,,,,,,,,90509,001,2022-04-28_21h29.52.323,SPAMnetsValid,2021.1.4,MacIntel,60.0024001,,,,,,,,,,,,,,,,,,,,,,,,,,,,,,,,,,,,,,,,,,,,,,,,,,,,pillow,pillow,4,0,4,0,1,,,,,,,,,,,,,,,,,,,,,,,,,,,,,,,
,,,,,,,,,,,,,,,90509,001,2022-04-28_21h29.52.323,SPAMnetsValid,2021.1.4,MacIntel,60.0024001,,,,,,,,,,,,,,,,,,,,,,,,,,,,,,,,,,,,,,,,,,,,,,,,,,,,pillow,pillow,5,0,5,0,1,,,,,,,,,,,,,,,,,,,,,,,,,,,,,,,
,,,,,,,,,,,,,,,90509,001,2022-04-28_21h29.52.323,SPAMnetsValid,2021.1.4,MacIntel,60.0024001,,,,,,,,,,,,,,,,,,,,,,,,,,,,,,,,,,,,,,,,,,,,,,,,,,,,pillow,pillow,6,0,6,0,1,,,,,,,,,,,,,,,,,,,,,,,,,,,,,,,
,,,,,,,,,,,,,,,90509,001,2022-04-28_21h29.52.323,SPAMnetsValid,2021.1.4,MacIntel,60.0024001,,,,,,,,,,,,,,,,,,,,,,,,,,,,,,,,,,,,,,,,,,,,,,,,,,,,pillow,pillow,7,0,7,0,1,,,,,,,,,,,,,,,,,,,,,,,,,,,,,,,
,,,,,,,,,,,,,,,90509,001,2022-04-28_21h29.52.323,SPAMnetsValid,2021.1.4,MacIntel,60.0024001,,,,,,,,,,,,,,,,,,,,,,,,,,,,,,,,,,,,,,,,,,,,,,,,,,,,pillow,pillow,8,0,8,0,1,,,,,,,,,,,,,,,,,,,,,,,,,,,,,,,
,,,,,,,,,,,,,,,90509,001,2022-04-28_21h29.52.323,SPAMnetsValid,2021.1.4,MacIntel,60.0024001,,,,,,,,,,,,,,,,,,,,,,,,,,,,,,,,,,,,,,,,,,,,,,,,,,,,pillow,pillow,9,0,9,0,1,,,,,,,,,,,,,,,,,,,,,,,,,,,,,,,
,,,,,,,,,,,,,,,90509,001,2022-04-28_21h29.52.323,SPAMnetsValid,2021.1.4,MacIntel,60.0024001,,,,,,,,,,,,,,,,,,,,,,,,,,,,,,,,,,,,,,,,,,,,,,,,,,,,pillow,pillow,10,0,10,0,1,,,,,,,,,,,,,,,,,,,,,,,,,,,,,,,
,,,,,,,,,,,,,,,90509,001,2022-04-28_21h29.52.323,SPAMnetsValid,2021.1.4,MacIntel,60.0024001,,,,,,,,,,,,,,,,,,,,,,,,,,,,,,,,,,,,,,,,,,,,,,,,,,,,pillow,pillow,11,0,11,0,1,,,,,,,,,,,,,,,,,,,,,,,,,,,,,,,
,,,,,,,,,,,,,,,90509,001,2022-04-28_21h29.52.323,SPAMnetsValid,2021.1.4,MacIntel,60.0024001,,,,,,,,,,,,,,,,,,,,,,,,,,,,,,,,,,,,,,,,,,,,,,,,,,,,pillow,pillow,12,0,12,0,1,,,,,,,,,,,,,,,,,,,,,,,,,,,,,,,
,,,,,,,,,,,,,,,90509,001,2022-04-28_21h29.52.323,SPAMnetsValid,2021.1.4,MacIntel,60.0024001,,,,,,,,,,,,,,,,,,,,,,,,,,,,,,,,,,,,,,,,,,,,,,,,,,,,pillow,pillow,13,0,13,0,1,,,,,,,,,,,,,,,,,,,,,,,,,,,,,,,
,,,,,,,,,,,,,,,90509,001,2022-04-28_21h29.52.323,SPAMnetsValid,2021.1.4,MacIntel,60.0024001,,,,,,,,,,,,,,,,,,,,,,,,,,,,,,,,,,,,,,,,,,,,,,,,,,,,pillow,pillow,14,0,14,0,1,,,,,,,,,,,,,,,,,,,,,,,,,,,,,,,
,,,,,,,,,,,,,,,90509,001,2022-04-28_21h29.52.323,SPAMnetsValid,2021.1.4,MacIntel,60.0024001,,,,,,,,,,,,,,,,,,,,,,,,,,,,,,,,,,,,,,,,,,,,,,,,,,,,pillow,pillow,15,0,15,0,1,,,,,,,,,,,,,,,,,,,,,,,,,,,,,,,
,,,,,,,,,,,,,,,90509,001,2022-04-28_21h29.52.323,SPAMnetsValid,2021.1.4,MacIntel,60.0024001,,,,,,,,,,,,,,,,,,,,,,,,,,,,,,,,,,,,,,,,,,,,,,,,,,,,pillow,pillow,16,0,16,0,1,,,,,,,,,,,,,,,,,,,,,,,,,,,,,,,
,,,,,,,,,,,,,,,90509,001,2022-04-28_21h29.52.323,SPAMnetsValid,2021.1.4,MacIntel,60.0024001,,,,,,,,,,,,,,,,,,,,,,,,,,,,,,,,,,,,,,,,,,,,,,,,,,,,pillow,pillow,17,0,17,0,1,,,,,,,,,,,,,,,,,,,,,,,,,,,,,,,
,,,,,,,,,,,,,,,90509,001,2022-04-28_21h29.52.323,SPAMnetsValid,2021.1.4,MacIntel,60.0024001,,,,,,,,,,,,,,,,,,,,,,,,,,,,,,,,,,,,,,,,,,,,,,,,,,,,pillow,pillow,18,0,18,0,1,,,,,,,,,,,,,,,,,,,,,,,,,,,,,,,
,,,,,,,,,,,,,,,90509,001,2022-04-28_21h29.52.323,SPAMnetsValid,2021.1.4,MacIntel,60.0024001,,,,,,,,,,,,,,,,,,,,,,,,,,,,,,,,,,,,,,,,,,,,,,,,,,,,pillow,pillow,19,0,19,0,1,,,,,,,,,,,,,,,,,,,,,,,,,,,,,,,
,,,,,,,,,,,,,,,90509,001,2022-04-28_21h29.52.323,SPAMnetsValid,2021.1.4,MacIntel,60.0024001,,,,,,,,,,,,,,,,,,,,,,,,,,,,,,,,,,,,,,,,,,,,,,,,,,,,pillow,pillow,20,0,20,0,1,,,,,,,,,,,,,,,,,,,,,,,,,,,,,,,
,,,,,,,,,,,,,,,90509,001,2022-04-28_21h29.52.323,SPAMnetsValid,2021.1.4,MacIntel,60.0024001,,,,,,,,,,,,,,,,,,,,,,,,,,,,,,,,,,,,,,,,,,,,,,,,,,,,pillow,pillow,21,0,21,0,1,,,,,,,,,,,,,,,,,,,,,,,,,,,,,,,
,,,,,,,,,,,,,,,90509,001,2022-04-28_21h29.52.323,SPAMnetsValid,2021.1.4,MacIntel,60.0024001,,,,,,,,,,,,,,,,,,,,,,,,,,,,,,,,,,,,,,,,,,,,,,,,,,,,pillow,pillow,22,0,22,0,1,,,,,,,,,,,,,,,,,,,,,,,,,,,,,,,
,,,,,,,,,,,,,,,90509,001,2022-04-28_21h29.52.323,SPAMnetsValid,2021.1.4,MacIntel,60.0024001,,,,,,,,,,,,,,,,,,,,,,,,,,,,,,,,,,,,,,,,,,,,,,,,,,,,pillow,pillow,23,0,23,0,1,,,,,,,,,,,,,,,,,,,,,,,,,,,,,,,
,,,,,,,,,,,,,,,90509,001,2022-04-28_21h29.52.323,SPAMnetsValid,2021.1.4,MacIntel,60.0024001,,,,,,,,,,,,,,,,,,,,,,,,,,,,,,,,,,,,,,,,,,,,,,,,,,,,pillow,pillow,24,0,24,0,1,,,,,,,,,,,,,,,,,,,,,,,,,,,,,,,
,,,,,,,,,,,,,,,90509,001,2022-04-28_21h29.52.323,SPAMnetsValid,2021.1.4,MacIntel,60.0024001,,,,,,,,,,,,,,,,,,,,,,,,,,,,,,,,,,,,,,,,,,,,,,,,,,,,pillow,pillow,25,0,25,0,1,,,,,,,,,,,,,,,,,,,,,,,,,,,,,,,
,,,,,,,,,,,,,,,90509,001,2022-04-28_21h29.52.323,SPAMnetsValid,2021.1.4,MacIntel,60.0024001,,,,,,,,,,,,,,,,,,,,,,,,,,,,,,,,,,,,,,,,,,,,,,,,,,,,pillow,pillow,26,0,26,0,1,,,,,,,,,,,,,,,,,,,,,,,,,,,,,,,
,,,,,,,,,,,,,,,90509,001,2022-04-28_21h29.52.323,SPAMnetsValid,2021.1.4,MacIntel,60.0024001,,,,,,,,,,,,,,,,,,,,,,,,,,,,,,,,,,,,,,,,,,,,,,,,,,,,pillow,pillow,27,0,27,0,1,,,,,,,,,,,,,,,,,,,,,,,,,,,,,,,
,,,,,,,,,,,,,,,90509,001,2022-04-28_21h29.52.323,SPAMnetsValid,2021.1.4,MacIntel,60.0024001,,,,,,,,,,,,,,,,,,,,,,,,,,,,,,,,,,,,,,,,,,,,,,,,,,,,pillow,pillow,28,0,28,0,1,,,,,,,,,,,,,,,,,,,,,,,,,,,,,,,
,,,,,,,,,,,,,,,90509,001,2022-04-28_21h29.52.323,SPAMnetsValid,2021.1.4,MacIntel,60.0024001,,,,,,,,,,,,,,,,,,,,,,,,,,,,,,,,,,,,,,,,,,,,,,,,,,,,pillow,pillow,29,0,29,0,1,,,,,,,,,,,,,,,,,,,,,,,,,,,,,,,
,,,,,,,,,,,,,,,90509,001,2022-04-28_21h29.52.323,SPAMnetsValid,2021.1.4,MacIntel,60.0024001,,,,,,,,,,,,,,,,,,,,,,,,,,,,,,,,,,,,,,,,,,,,,,,,,,,,pillow,pillow,30,0,30,0,1,,,,,,,,,,,,,,,,,,,,,,,,,,,,,,,
,,,,,,,,,,,,,,,90509,001,2022-04-28_21h29.52.323,SPAMnetsValid,2021.1.4,MacIntel,60.0024001,,,,,,,,,,,,,,,,,,,,,,,,,,,,,,,,,,,,,,,,,,,,,,,,,,,,pillow,pillow,31,0,31,0,1,,,,,,,,,,,,,,,,,,,,,,,,,,,,,,,
,,,,,,,,,,,,,,,90509,001,2022-04-28_21h29.52.323,SPAMnetsValid,2021.1.4,MacIntel,60.0024001,,,,,,,,,,,,,,,,,,,,,,,,,,,,,,,,,,,,,,,,,,,,,,,,,,,,pillow,pillow,32,0,32,0,1,,,,,,,,,,,,,,,,,,,,,,,,,,,,,,,
,,,,,,,,,,,,,,,90509,001,2022-04-28_21h29.52.323,SPAMnetsValid,2021.1.4,MacIntel,60.0024001,,,,,,,,,,,,,,,,,,,,,,,,,,,,,,,,,,,,,,,,,,,,,,,,,,,,pillow,pillow,33,0,33,0,1,,,,,,,,,,,,,,,,,,,,,,,,,,,,,,,
,,,,,,,,,,,,,,,90509,001,2022-04-28_21h29.52.323,SPAMnetsValid,2021.1.4,MacIntel,60.0024001,,,,,,,,,,,,,,,,,,,,,,,,,,,,,,,,,,,,,,,,,,,,,,,,,,,,pillow,pillow,34,0,34,0,1,,,,,,,,,,,,,,,,,,,,,,,,,,,,,,,
,,,,,,,,,,,,,,,90509,001,2022-04-28_21h29.52.323,SPAMnetsValid,2021.1.4,MacIntel,60.0024001,,,,,,,,,,,,,,,,,,,,,,,,,,,,,,,,,,,,,,,,,,,,,,,,,,,,pillow,pillow,35,0,35,0,1,,,,,,,,,,,,,,,,,,,,,,,,,,,,,,,
,,,,,,,,,,,,,,,90509,001,2022-04-28_21h29.52.323,SPAMnetsValid,2021.1.4,MacIntel,60.0024001,,,,,,,,,,,,,,,,,,,,,,,,,,,,,,,,,,,,,,,,,,,,,,,,,,,,pillow,pillow,36,0,36,0,1,,,,,,,,,,,,,,,,,,,,,,,,,,,,,,,
,,,,,,,,,,,,,,,90509,001,2022-04-28_21h29.52.323,SPAMnetsValid,2021.1.4,MacIntel,60.0024001,,,,,,,,,,,,,,,,,,,,,,,,,,,,,,,,,,,,,,,,,,,,,,,,,,,,pillow,pillow,37,0,37,0,1,,,,,,,,,,,,,,,,,,,,,,,,,,,,,,,
,,,,,,,,,,,,,,,90509,001,2022-04-28_21h29.52.323,SPAMnetsValid,2021.1.4,MacIntel,60.0024001,,,,,,,,,,,,,,,,,,,,,,,,,,,,,,,,,,,,,,,,,,,,,,,,,,,,pillow,pillow,38,0,38,0,1,,,,,,,,,,,,,,,,,,,,,,,,,,,,,,,
,,,,,,,,,,,,,,,90509,001,2022-04-28_21h29.52.323,SPAMnetsValid,2021.1.4,MacIntel,60.0024001,,,,,,,,,,,,,,,,,,,,,,,,,,,,,,,,,,,,,,,,,,,,,,,,,,,,pillow,pillow,39,0,39,0,1,,,,,,,,,,,,,,,,,,,,,,,,,,,,,,,
,,,,,,,,,,,,,,,90509,001,2022-04-28_21h29.52.323,SPAMnetsValid,2021.1.4,MacIntel,60.0024001,,,,,,,,,,,,,,,,,,,,,,,,,,,,,,,,,,,,,,,,,,,,,,,,,,,,pillow,pillow,40,0,40,0,1,,,,,,,,,,,,,,,,,,,,,,,,,,,,,,,
,,,,,,,,,,,,,,,90509,001,2022-04-28_21h29.52.323,SPAMnetsValid,2021.1.4,MacIntel,60.0024001,,,,,,,,,,,,,,,,,,,,,,,,,,,,,,,,,,,,,,,,,,,,,,,,,,,,pillow,pillow,41,0,41,0,1,,,,,,,,,,,,,,,,,,,,,,,,,,,,,,,
,,,,,,,,,,,,,,,90509,001,2022-04-28_21h29.52.323,SPAMnetsValid,2021.1.4,MacIntel,60.0024001,,,,,,,,,,,,,,,,,,,,,,,,,,,,,,,,,,,,,,,,,,,,,,,,,,,,pillow,pillow,42,0,42,0,1,,,,,,,,,,,,,,,,,,,,,,,,,,,,,,,
,,,,,,,,,,,,,,,90509,001,2022-04-28_21h29.52.323,SPAMnetsValid,2021.1.4,MacIntel,60.0024001,,,,,,,,,,,,,,,,,,,,,,,,,,,,,,,,,,,,,,,,,,,,,,,,,,,,pillow,pillow,43,0,43,0,1,,,,,,,,,,,,,,,,,,,,,,,,,,,,,,,
,,,,,,,,,,,,,,,90509,001,2022-04-28_21h29.52.323,SPAMnetsValid,2021.1.4,MacIntel,60.0024001,,,,,,,,,,,,,,,,,,,,,,,,,,,,,,,,,,,,,,,,,,,,,,,,,,,,pillow,pillow,44,0,44,0,1,,,,,,,,,,,,,,,,,,,,,,,,,,,,,,,
,,,,,,,,,,,,,,,90509,001,2022-04-28_21h29.52.323,SPAMnetsValid,2021.1.4,MacIntel,60.0024001,,,,,,,,,,,,,,,,,,,,,,,,,,,,,,,,,,,,,,,,,,,,,,,,,,,,pillow,pillow,45,0,45,0,1,,,,,,,,,,,,,,,,,,,,,,,,,,,,,,,
,,,,,,,,,,,,,,,90509,001,2022-04-28_21h29.52.323,SPAMnetsValid,2021.1.4,MacIntel,60.0024001,,,,,,,,,,,,,,,,,,,,,,,,,,,,,,,,,,,,,,,,,,,,,,,,,,,,pillow,pillow,46,0,46,0,1,,,,,,,,,,,,,,,,,,,,,,,,,,,,,,,
,,,,,,,,,,,,,,,90509,001,2022-04-28_21h29.52.323,SPAMnetsValid,2021.1.4,MacIntel,60.0024001,,,,,,,,,,,,,,,,,,,,,,,,,,,,,,,,,,,,,,,,,,,,,,,,,,,,pillow,pillow,47,0,47,0,1,,,,,,,,,,,,,,,,,,,,,,,,,,,,,,,
,,,,,,,,,,,,,,,90509,001,2022-04-28_21h29.52.323,SPAMnetsValid,2021.1.4,MacIntel,60.0024001,,,,,,,,,,,,,,,,,,,,,,,,,,,,,,,,,,,,,,,,,,,,,,,,,,,,pillow,pillow,48,0,48,0,1,,,,,,,,,,,,,,,,,,,,,,,,,,,,,,,
,,,,,,,,,,,,,,,90509,001,2022-04-28_21h29.52.323,SPAMnetsValid,2021.1.4,MacIntel,60.0024001,,,,,,,,,,,,,,,,,,,,,,,,,,,,,,,,,,,,,,,,,,,,,,,,,,,,pillow,pillow,49,0,49,0,1,,,,,,,,,,,,,,,,,,,,,,,,,,,,,,,
,,,,,,,,,,,,,,,90509,001,2022-04-28_21h29.52.323,SPAMnetsValid,2021.1.4,MacIntel,60.0024001,,,,,,,,,,,,,,,,,,,,,,,,,,,,,,,,,,,,,,,,,,,,,,,,,,,,pillow,pillow,50,0,50,0,1,,,,,,,,,,,,,,,,,,,,,,,,,,,,,,,
,,,,,,,,,,,,,,,90509,001,2022-04-28_21h29.52.323,SPAMnetsValid,2021.1.4,MacIntel,60.0024001,,,,,,,,,,,,,,,,,,,,,,,,,,,,,,,,,,,,,,,,,,,,,,,,,,,,pillow,pillow,51,0,51,0,1,,,,,,,,,,,,,,,,,,,,,,,,,,,,,,,
,,,,,,,,,,,,,,,90509,001,2022-04-28_21h29.52.323,SPAMnetsValid,2021.1.4,MacIntel,60.0024001,,,,,,,,,,,,,,,,,,,,,,,,,,,,,,,,,,,,,,,,,,,,,,,,,,,,pillow,pillow,52,0,52,0,1,,,,,,,,,,,,,,,,,,,,,,,,,,,,,,,
,,,,,,,,,,,,,,,90509,001,2022-04-28_21h29.52.323,SPAMnetsValid,2021.1.4,MacIntel,60.0024001,,,,,,,,,,,,,,,,,,,,,,,,,,,,,,,,,,,,,,,,,,,,,,,,,,,,pillow,pillow,53,0,53,0,1,,,,,,,,,,,,,,,,,,,,,,,,,,,,,,,
,,,,,,,,,,,,,,,90509,001,2022-04-28_21h29.52.323,SPAMnetsValid,2021.1.4,MacIntel,60.0024001,,,,,,,,,,,,,,,,,,,,,,,,,,,,,,,,,,,,,,,,,,,,,,,,,,,,pillow,pillow,54,0,54,0,1,,,,,,,,,,,,,,,,,,,,,,,,,,,,,,,
,,,,,,,,,,,,,,,90509,001,2022-04-28_21h29.52.323,SPAMnetsValid,2021.1.4,MacIntel,60.0024001,,,,,,,,,,,,,,,,,,,,,,,,,,,,,,,,,,,,,,,,,,,,,,,,,,,,pillow,pillow,55,0,55,0,1,,,,,,,,,,,,,,,,,,,,,,,,,,,,,,,
,,,,,,,,,,,,,,,90509,001,2022-04-28_21h29.52.323,SPAMnetsValid,2021.1.4,MacIntel,60.0024001,,,,,,,,,,,,,,,,,,,,,,,,,,,,,,,,,,,,,,,,,,,,,,,,,,,,pillow,pillow,56,0,56,0,1,,,,,,,,,,,,,,,,,,,,,,,,,,,,,,,
,,,,,,,,,,,,,,,90509,001,2022-04-28_21h29.52.323,SPAMnetsValid,2021.1.4,MacIntel,60.0024001,,,,,,,,,,,,,,,,,,,,,,,,,,,,,,,,,,,,,,,,,,,,,,,,,,,,pillow,pillow,57,0,57,0,1,,,,,,,,,,,,,,,,,,,,,,,,,,,,,,,
,,,,,,,,,,,,,,,90509,001,2022-04-28_21h29.52.323,SPAMnetsValid,2021.1.4,MacIntel,60.0024001,,,,,,,,,,,,,,,,,,,,,,,,,,,,,,,,,,,,,,,,,,,,,,,,,,,,pillow,pillow,58,0,58,0,1,,,,,,,,,,,,,,,,,,,,,,,,,,,,,,,
,,,,,,,,,,,,,,,90509,001,2022-04-28_21h29.52.323,SPAMnetsValid,2021.1.4,MacIntel,60.0024001,,,,,,,,,,,,,,,,,,,,,,,,,,,,,,,,,,,,,,,,,,,,,,,,,,,,pillow,pillow,59,0,59,0,1,,,,,,,,,,,,,,,,,,,,,,,,,,,,,,,
,,,,,,,,,,,,,,,90509,001,2022-04-28_21h29.52.323,SPAMnetsValid,2021.1.4,MacIntel,60.0024001,,,,,,,,,,,,,,,,,,,,,,,,,,,,,,,,,,,,,,,,,,,,,,,,,,,,pillow,pillow,60,0,60,0,1,,,,,,,,,,,,,,,,,,,,,,,,,,,,,,,
,,,,,,,,,,,,,,,90509,001,2022-04-28_21h29.52.323,SPAMnetsValid,2021.1.4,MacIntel,60.0024001,,,,,,,,,,,,,,,,,,,,,,,,,,,,,,,,,,,,,,,,,,,,,,,,,,,,pillow,pillow,61,0,61,0,1,,,,,,,,,,,,,,,,,,,,,,,,,,,,,,,
,,,,,,,,,,,,,,,90509,001,2022-04-28_21h29.52.323,SPAMnetsValid,2021.1.4,MacIntel,60.0024001,,,,,,,,,,,,,,,,,,,,,,,,,,,,,,,,,,,,,,,,,,,,,,,,,,,,piloow,pillow,62,0,62,0,1,,,,,,,,,,,,,,,,,,,,,,,,,,,,,,,
,,,,,,,,,,,,,,,90509,001,2022-04-28_21h29.52.323,SPAMnetsValid,2021.1.4,MacIntel,60.0024001,,,,,,,,,,,,,,,,,,,,,,,,,,,,,,,,,,,,,,,,,,,,,,,,,,,,pillow,pillow,63,0,63,0,1,,,,,,,,,,,,,,,,,,,,,,,,,,,,,,,
,,,,,,,,,,,,,,,90509,001,2022-04-28_21h29.52.323,SPAMnetsValid,2021.1.4,MacIntel,60.0024001,,,,,,,,,,,,,,,,,,,,,,,,,,,,,,,,,,,,,,,,,,,,,,,,,,,,pilloow,pillow,64,0,64,0,1,,,,,,,,,,,,,,,,,,,,,,,,,,,,,,,
,,,,,,,,,,,,,,,90509,001,2022-04-28_21h29.52.323,SPAMnetsValid,2021.1.4,MacIntel,60.0024001,,,,,,,,,,,,,,,,,,,,,,,,,,,,,,,,,,,,,,,,,,,,,,,,,,,,pillow,pillow,65,0,65,0,1,,,,,,,,,,,,,,,,,,,,,,,,,,,,,,,
,,,,,,,,,,,,,,,90509,001,2022-04-28_21h29.52.323,SPAMnetsValid,2021.1.4,MacIntel,60.0024001,,,,,,,,,,,,,,,,,,,,,,,,,,,,,,,,,,,,,,,,,,,,,,,,,,,,pillow,pillow,66,0,66,0,1,,,,,,,,,,,,,,,,,,,,,,,,,,,,,,,
,,,,,,,,,,,,,,,90509,001,2022-04-28_21h29.52.323,SPAMnetsValid,2021.1.4,MacIntel,60.0024001,,,,,,,,,,,,,,,,,,,,,,,,,,,,,,,,,,,,,,,,,,,,,,,,,,,,,,,,,,,0,1,1,2,1,pillow,,,,,,,,,,,,,,,,,,,,,,,,,
,,,,,,,,,,,,,,,90509,001,2022-04-28_21h29.52.323,SPAMnetsValid,2021.1.4,MacIntel,60.0024001,,,,,,,,,,,,,,,,,,,,,,,,,,,,,,,,,,,,,,,,,,,,,,,,,,,,candle,candle,0,0,0,0,1,,,,,,,,,,,,,,,,,,,,,,,,,,,,,,,
,,,,,,,,,,,,,,,90509,001,2022-04-28_21h29.52.323,SPAMnetsValid,2021.1.4,MacIntel,60.0024001,,,,,,,,,,,,,,,,,,,,,,,,,,,,,,,,,,,,,,,,,,,,,,,,,,,,candle,candle,1,0,1,0,1,,,,,,,,,,,,,,,,,,,,,,,,,,,,,,,
,,,,,,,,,,,,,,,90509,001,2022-04-28_21h29.52.323,SPAMnetsValid,2021.1.4,MacIntel,60.0024001,,,,,,,,,,,,,,,,,,,,,,,,,,,,,,,,,,,,,,,,,,,,,,,,,,,,candle,candle,2,0,2,0,1,,,,,,,,,,,,,,,,,,,,,,,,,,,,,,,
,,,,,,,,,,,,,,,90509,001,2022-04-28_21h29.52.323,SPAMnetsValid,2021.1.4,MacIntel,60.0024001,,,,,,,,,,,,,,,,,,,,,,,,,,,,,,,,,,,,,,,,,,,,,,,,,,,,candle,candle,3,0,3,0,1,,,,,,,,,,,,,,,,,,,,,,,,,,,,,,,
,,,,,,,,,,,,,,,90509,001,2022-04-28_21h29.52.323,SPAMnetsValid,2021.1.4,MacIntel,60.0024001,,,,,,,,,,,,,,,,,,,,,,,,,,,,,,,,,,,,,,,,,,,,,,,,,,,,candle,candle,4,0,4,0,1,,,,,,,,,,,,,,,,,,,,,,,,,,,,,,,
,,,,,,,,,,,,,,,90509,001,2022-04-28_21h29.52.323,SPAMnetsValid,2021.1.4,MacIntel,60.0024001,,,,,,,,,,,,,,,,,,,,,,,,,,,,,,,,,,,,,,,,,,,,,,,,,,,,candle,candle,5,0,5,0,1,,,,,,,,,,,,,,,,,,,,,,,,,,,,,,,
,,,,,,,,,,,,,,,90509,001,2022-04-28_21h29.52.323,SPAMnetsValid,2021.1.4,MacIntel,60.0024001,,,,,,,,,,,,,,,,,,,,,,,,,,,,,,,,,,,,,,,,,,,,,,,,,,,,candle,candle,6,0,6,0,1,,,,,,,,,,,,,,,,,,,,,,,,,,,,,,,
,,,,,,,,,,,,,,,90509,001,2022-04-28_21h29.52.323,SPAMnetsValid,2021.1.4,MacIntel,60.0024001,,,,,,,,,,,,,,,,,,,,,,,,,,,,,,,,,,,,,,,,,,,,,,,,,,,,candle,candle,7,0,7,0,1,,,,,,,,,,,,,,,,,,,,,,,,,,,,,,,
,,,,,,,,,,,,,,,90509,001,2022-04-28_21h29.52.323,SPAMnetsValid,2021.1.4,MacIntel,60.0024001,,,,,,,,,,,,,,,,,,,,,,,,,,,,,,,,,,,,,,,,,,,,,,,,,,,,candle,candle,8,0,8,0,1,,,,,,,,,,,,,,,,,,,,,,,,,,,,,,,
,,,,,,,,,,,,,,,90509,001,2022-04-28_21h29.52.323,SPAMnetsValid,2021.1.4,MacIntel,60.0024001,,,,,,,,,,,,,,,,,,,,,,,,,,,,,,,,,,,,,,,,,,,,,,,,,,,,candle,candle,9,0,9,0,1,,,,,,,,,,,,,,,,,,,,,,,,,,,,,,,
,,,,,,,,,,,,,,,90509,001,2022-04-28_21h29.52.323,SPAMnetsValid,2021.1.4,MacIntel,60.0024001,,,,,,,,,,,,,,,,,,,,,,,,,,,,,,,,,,,,,,,,,,,,,,,,,,,,candle ,candle,10,0,10,0,1,,,,,,,,,,,,,,,,,,,,,,,,,,,,,,,
,,,,,,,,,,,,,,,90509,001,2022-04-28_21h29.52.323,SPAMnetsValid,2021.1.4,MacIntel,60.0024001,,,,,,,,,,,,,,,,,,,,,,,,,,,,,,,,,,,,,,,,,,,,,,,,,,,,candle,candle,11,0,11,0,1,,,,,,,,,,,,,,,,,,,,,,,,,,,,,,,
,,,,,,,,,,,,,,,90509,001,2022-04-28_21h29.52.323,SPAMnetsValid,2021.1.4,MacIntel,60.0024001,,,,,,,,,,,,,,,,,,,,,,,,,,,,,,,,,,,,,,,,,,,,,,,,,,,,candle,candle,12,0,12,0,1,,,,,,,,,,,,,,,,,,,,,,,,,,,,,,,
,,,,,,,,,,,,,,,90509,001,2022-04-28_21h29.52.323,SPAMnetsValid,2021.1.4,MacIntel,60.0024001,,,,,,,,,,,,,,,,,,,,,,,,,,,,,,,,,,,,,,,,,,,,,,,,,,,,candle,candle,13,0,13,0,1,,,,,,,,,,,,,,,,,,,,,,,,,,,,,,,
,,,,,,,,,,,,,,,90509,001,2022-04-28_21h29.52.323,SPAMnetsValid,2021.1.4,MacIntel,60.0024001,,,,,,,,,,,,,,,,,,,,,,,,,,,,,,,,,,,,,,,,,,,,,,,,,,,,candle,candle,14,0,14,0,1,,,,,,,,,,,,,,,,,,,,,,,,,,,,,,,
,,,,,,,,,,,,,,,90509,001,2022-04-28_21h29.52.323,SPAMnetsValid,2021.1.4,MacIntel,60.0024001,,,,,,,,,,,,,,,,,,,,,,,,,,,,,,,,,,,,,,,,,,,,,,,,,,,,candle,candle,15,0,15,0,1,,,,,,,,,,,,,,,,,,,,,,,,,,,,,,,
,,,,,,,,,,,,,,,90509,001,2022-04-28_21h29.52.323,SPAMnetsValid,2021.1.4,MacIntel,60.0024001,,,,,,,,,,,,,,,,,,,,,,,,,,,,,,,,,,,,,,,,,,,,,,,,,,,,candle,candle,16,0,16,0,1,,,,,,,,,,,,,,,,,,,,,,,,,,,,,,,
,,,,,,,,,,,,,,,90509,001,2022-04-28_21h29.52.323,SPAMnetsValid,2021.1.4,MacIntel,60.0024001,,,,,,,,,,,,,,,,,,,,,,,,,,,,,,,,,,,,,,,,,,,,,,,,,,,,candle,candle,17,0,17,0,1,,,,,,,,,,,,,,,,,,,,,,,,,,,,,,,
,,,,,,,,,,,,,,,90509,001,2022-04-28_21h29.52.323,SPAMnetsValid,2021.1.4,MacIntel,60.0024001,,,,,,,,,,,,,,,,,,,,,,,,,,,,,,,,,,,,,,,,,,,,,,,,,,,,candle,candle,18,0,18,0,1,,,,,,,,,,,,,,,,,,,,,,,,,,,,,,,
,,,,,,,,,,,,,,,90509,001,2022-04-28_21h29.52.323,SPAMnetsValid,2021.1.4,MacIntel,60.0024001,,,,,,,,,,,,,,,,,,,,,,,,,,,,,,,,,,,,,,,,,,,,,,,,,,,,candle,candle,19,0,19,0,1,,,,,,,,,,,,,,,,,,,,,,,,,,,,,,,
,,,,,,,,,,,,,,,90509,001,2022-04-28_21h29.52.323,SPAMnetsValid,2021.1.4,MacIntel,60.0024001,,,,,,,,,,,,,,,,,,,,,,,,,,,,,,,,,,,,,,,,,,,,,,,,,,,,candle,candle,20,0,20,0,1,,,,,,,,,,,,,,,,,,,,,,,,,,,,,,,
,,,,,,,,,,,,,,,90509,001,2022-04-28_21h29.52.323,SPAMnetsValid,2021.1.4,MacIntel,60.0024001,,,,,,,,,,,,,,,,,,,,,,,,,,,,,,,,,,,,,,,,,,,,,,,,,,,,candle,candle,21,0,21,0,1,,,,,,,,,,,,,,,,,,,,,,,,,,,,,,,
,,,,,,,,,,,,,,,90509,001,2022-04-28_21h29.52.323,SPAMnetsValid,2021.1.4,MacIntel,60.0024001,,,,,,,,,,,,,,,,,,,,,,,,,,,,,,,,,,,,,,,,,,,,,,,,,,,,candle,candle,22,0,22,0,1,,,,,,,,,,,,,,,,,,,,,,,,,,,,,,,
,,,,,,,,,,,,,,,90509,001,2022-04-28_21h29.52.323,SPAMnetsValid,2021.1.4,MacIntel,60.0024001,,,,,,,,,,,,,,,,,,,,,,,,,,,,,,,,,,,,,,,,,,,,,,,,,,,,candle,candle,23,0,23,0,1,,,,,,,,,,,,,,,,,,,,,,,,,,,,,,,
,,,,,,,,,,,,,,,90509,001,2022-04-28_21h29.52.323,SPAMnetsValid,2021.1.4,MacIntel,60.0024001,,,,,,,,,,,,,,,,,,,,,,,,,,,,,,,,,,,,,,,,,,,,,,,,,,,,candle,candle,24,0,24,0,1,,,,,,,,,,,,,,,,,,,,,,,,,,,,,,,
,,,,,,,,,,,,,,,90509,001,2022-04-28_21h29.52.323,SPAMnetsValid,2021.1.4,MacIntel,60.0024001,,,,,,,,,,,,,,,,,,,,,,,,,,,,,,,,,,,,,,,,,,,,,,,,,,,,candle,candle,25,0,25,0,1,,,,,,,,,,,,,,,,,,,,,,,,,,,,,,,
,,,,,,,,,,,,,,,90509,001,2022-04-28_21h29.52.323,SPAMnetsValid,2021.1.4,MacIntel,60.0024001,,,,,,,,,,,,,,,,,,,,,,,,,,,,,,,,,,,,,,,,,,,,,,,,,,,,candle,candle,26,0,26,0,1,,,,,,,,,,,,,,,,,,,,,,,,,,,,,,,
,,,,,,,,,,,,,,,90509,001,2022-04-28_21h29.52.323,SPAMnetsValid,2021.1.4,MacIntel,60.0024001,,,,,,,,,,,,,,,,,,,,,,,,,,,,,,,,,,,,,,,,,,,,,,,,,,,,candle,candle,27,0,27,0,1,,,,,,,,,,,,,,,,,,,,,,,,,,,,,,,
,,,,,,,,,,,,,,,90509,001,2022-04-28_21h29.52.323,SPAMnetsValid,2021.1.4,MacIntel,60.0024001,,,,,,,,,,,,,,,,,,,,,,,,,,,,,,,,,,,,,,,,,,,,,,,,,,,,candle,candle,28,0,28,0,1,,,,,,,,,,,,,,,,,,,,,,,,,,,,,,,
,,,,,,,,,,,,,,,90509,001,2022-04-28_21h29.52.323,SPAMnetsValid,2021.1.4,MacIntel,60.0024001,,,,,,,,,,,,,,,,,,,,,,,,,,,,,,,,,,,,,,,,,,,,,,,,,,,,candle,candle,29,0,29,0,1,,,,,,,,,,,,,,,,,,,,,,,,,,,,,,,
,,,,,,,,,,,,,,,90509,001,2022-04-28_21h29.52.323,SPAMnetsValid,2021.1.4,MacIntel,60.0024001,,,,,,,,,,,,,,,,,,,,,,,,,,,,,,,,,,,,,,,,,,,,,,,,,,,,candle,candle,30,0,30,0,1,,,,,,,,,,,,,,,,,,,,,,,,,,,,,,,
,,,,,,,,,,,,,,,90509,001,2022-04-28_21h29.52.323,SPAMnetsValid,2021.1.4,MacIntel,60.0024001,,,,,,,,,,,,,,,,,,,,,,,,,,,,,,,,,,,,,,,,,,,,,,,,,,,,candle,candle,31,0,31,0,1,,,,,,,,,,,,,,,,,,,,,,,,,,,,,,,
,,,,,,,,,,,,,,,90509,001,2022-04-28_21h29.52.323,SPAMnetsValid,2021.1.4,MacIntel,60.0024001,,,,,,,,,,,,,,,,,,,,,,,,,,,,,,,,,,,,,,,,,,,,,,,,,,,,candale,candle,32,0,32,0,1,,,,,,,,,,,,,,,,,,,,,,,,,,,,,,,
,,,,,,,,,,,,,,,90509,001,2022-04-28_21h29.52.323,SPAMnetsValid,2021.1.4,MacIntel,60.0024001,,,,,,,,,,,,,,,,,,,,,,,,,,,,,,,,,,,,,,,,,,,,,,,,,,,,candale,candle,33,0,33,0,1,,,,,,,,,,,,,,,,,,,,,,,,,,,,,,,
,,,,,,,,,,,,,,,90509,001,2022-04-28_21h29.52.323,SPAMnetsValid,2021.1.4,MacIntel,60.0024001,,,,,,,,,,,,,,,,,,,,,,,,,,,,,,,,,,,,,,,,,,,,,,,,,,,,candle,candle,34,0,34,0,1,,,,,,,,,,,,,,,,,,,,,,,,,,,,,,,
,,,,,,,,,,,,,,,90509,001,2022-04-28_21h29.52.323,SPAMnetsValid,2021.1.4,MacIntel,60.0024001,,,,,,,,,,,,,,,,,,,,,,,,,,,,,,,,,,,,,,,,,,,,,,,,,,,,candle,candle,35,0,35,0,1,,,,,,,,,,,,,,,,,,,,,,,,,,,,,,,
,,,,,,,,,,,,,,,90509,001,2022-04-28_21h29.52.323,SPAMnetsValid,2021.1.4,MacIntel,60.0024001,,,,,,,,,,,,,,,,,,,,,,,,,,,,,,,,,,,,,,,,,,,,,,,,,,,,candle,candle,36,0,36,0,1,,,,,,,,,,,,,,,,,,,,,,,,,,,,,,,
,,,,,,,,,,,,,,,90509,001,2022-04-28_21h29.52.323,SPAMnetsValid,2021.1.4,MacIntel,60.0024001,,,,,,,,,,,,,,,,,,,,,,,,,,,,,,,,,,,,,,,,,,,,,,,,,,,,candle,candle,37,0,37,0,1,,,,,,,,,,,,,,,,,,,,,,,,,,,,,,,
,,,,,,,,,,,,,,,90509,001,2022-04-28_21h29.52.323,SPAMnetsValid,2021.1.4,MacIntel,60.0024001,,,,,,,,,,,,,,,,,,,,,,,,,,,,,,,,,,,,,,,,,,,,,,,,,,,,candle,candle,38,0,38,0,1,,,,,,,,,,,,,,,,,,,,,,,,,,,,,,,
,,,,,,,,,,,,,,,90509,001,2022-04-28_21h29.52.323,SPAMnetsValid,2021.1.4,MacIntel,60.0024001,,,,,,,,,,,,,,,,,,,,,,,,,,,,,,,,,,,,,,,,,,,,,,,,,,,,candle,candle,39,0,39,0,1,,,,,,,,,,,,,,,,,,,,,,,,,,,,,,,
,,,,,,,,,,,,,,,90509,001,2022-04-28_21h29.52.323,SPAMnetsValid,2021.1.4,MacIntel,60.0024001,,,,,,,,,,,,,,,,,,,,,,,,,,,,,,,,,,,,,,,,,,,,,,,,,,,,candle,candle,40,0,40,0,1,,,,,,,,,,,,,,,,,,,,,,,,,,,,,,,
,,,,,,,,,,,,,,,90509,001,2022-04-28_21h29.52.323,SPAMnetsValid,2021.1.4,MacIntel,60.0024001,,,,,,,,,,,,,,,,,,,,,,,,,,,,,,,,,,,,,,,,,,,,,,,,,,,,candle,candle,41,0,41,0,1,,,,,,,,,,,,,,,,,,,,,,,,,,,,,,,
,,,,,,,,,,,,,,,90509,001,2022-04-28_21h29.52.323,SPAMnetsValid,2021.1.4,MacIntel,60.0024001,,,,,,,,,,,,,,,,,,,,,,,,,,,,,,,,,,,,,,,,,,,,,,,,,,,,candle,candle,42,0,42,0,1,,,,,,,,,,,,,,,,,,,,,,,,,,,,,,,
,,,,,,,,,,,,,,,90509,001,2022-04-28_21h29.52.323,SPAMnetsValid,2021.1.4,MacIntel,60.0024001,,,,,,,,,,,,,,,,,,,,,,,,,,,,,,,,,,,,,,,,,,,,,,,,,,,,candle,candle,43,0,43,0,1,,,,,,,,,,,,,,,,,,,,,,,,,,,,,,,
,,,,,,,,,,,,,,,90509,001,2022-04-28_21h29.52.323,SPAMnetsValid,2021.1.4,MacIntel,60.0024001,,,,,,,,,,,,,,,,,,,,,,,,,,,,,,,,,,,,,,,,,,,,,,,,,,,,candle,candle,44,0,44,0,1,,,,,,,,,,,,,,,,,,,,,,,,,,,,,,,
,,,,,,,,,,,,,,,90509,001,2022-04-28_21h29.52.323,SPAMnetsValid,2021.1.4,MacIntel,60.0024001,,,,,,,,,,,,,,,,,,,,,,,,,,,,,,,,,,,,,,,,,,,,,,,,,,,,candle,candle,45,0,45,0,1,,,,,,,,,,,,,,,,,,,,,,,,,,,,,,,
,,,,,,,,,,,,,,,90509,001,2022-04-28_21h29.52.323,SPAMnetsValid,2021.1.4,MacIntel,60.0024001,,,,,,,,,,,,,,,,,,,,,,,,,,,,,,,,,,,,,,,,,,,,,,,,,,,,candle,candle,46,0,46,0,1,,,,,,,,,,,,,,,,,,,,,,,,,,,,,,,
,,,,,,,,,,,,,,,90509,001,2022-04-28_21h29.52.323,SPAMnetsValid,2021.1.4,MacIntel,60.0024001,,,,,,,,,,,,,,,,,,,,,,,,,,,,,,,,,,,,,,,,,,,,,,,,,,,,candle,candle,47,0,47,0,1,,,,,,,,,,,,,,,,,,,,,,,,,,,,,,,
,,,,,,,,,,,,,,,90509,001,2022-04-28_21h29.52.323,SPAMnetsValid,2021.1.4,MacIntel,60.0024001,,,,,,,,,,,,,,,,,,,,,,,,,,,,,,,,,,,,,,,,,,,,,,,,,,,,candle,candle,48,0,48,0,1,,,,,,,,,,,,,,,,,,,,,,,,,,,,,,,
,,,,,,,,,,,,,,,90509,001,2022-04-28_21h29.52.323,SPAMnetsValid,2021.1.4,MacIntel,60.0024001,,,,,,,,,,,,,,,,,,,,,,,,,,,,,,,,,,,,,,,,,,,,,,,,,,,,candle,candle,49,0,49,0,1,,,,,,,,,,,,,,,,,,,,,,,,,,,,,,,
,,,,,,,,,,,,,,,90509,001,2022-04-28_21h29.52.323,SPAMnetsValid,2021.1.4,MacIntel,60.0024001,,,,,,,,,,,,,,,,,,,,,,,,,,,,,,,,,,,,,,,,,,,,,,,,,,,,candle,candle,50,0,50,0,1,,,,,,,,,,,,,,,,,,,,,,,,,,,,,,,
,,,,,,,,,,,,,,,90509,001,2022-04-28_21h29.52.323,SPAMnetsValid,2021.1.4,MacIntel,60.0024001,,,,,,,,,,,,,,,,,,,,,,,,,,,,,,,,,,,,,,,,,,,,,,,,,,,,candle,candle,51,0,51,0,1,,,,,,,,,,,,,,,,,,,,,,,,,,,,,,,
,,,,,,,,,,,,,,,90509,001,2022-04-28_21h29.52.323,SPAMnetsValid,2021.1.4,MacIntel,60.0024001,,,,,,,,,,,,,,,,,,,,,,,,,,,,,,,,,,,,,,,,,,,,,,,,,,,,candle,candle,52,0,52,0,1,,,,,,,,,,,,,,,,,,,,,,,,,,,,,,,
,,,,,,,,,,,,,,,90509,001,2022-04-28_21h29.52.323,SPAMnetsValid,2021.1.4,MacIntel,60.0024001,,,,,,,,,,,,,,,,,,,,,,,,,,,,,,,,,,,,,,,,,,,,,,,,,,,,candle,candle,53,0,53,0,1,,,,,,,,,,,,,,,,,,,,,,,,,,,,,,,
,,,,,,,,,,,,,,,90509,001,2022-04-28_21h29.52.323,SPAMnetsValid,2021.1.4,MacIntel,60.0024001,,,,,,,,,,,,,,,,,,,,,,,,,,,,,,,,,,,,,,,,,,,,,,,,,,,,candle,candle,54,0,54,0,1,,,,,,,,,,,,,,,,,,,,,,,,,,,,,,,
,,,,,,,,,,,,,,,90509,001,2022-04-28_21h29.52.323,SPAMnetsValid,2021.1.4,MacIntel,60.0024001,,,,,,,,,,,,,,,,,,,,,,,,,,,,,,,,,,,,,,,,,,,,,,,,,,,,candle,candle,55,0,55,0,1,,,,,,,,,,,,,,,,,,,,,,,,,,,,,,,
,,,,,,,,,,,,,,,90509,001,2022-04-28_21h29.52.323,SPAMnetsValid,2021.1.4,MacIntel,60.0024001,,,,,,,,,,,,,,,,,,,,,,,,,,,,,,,,,,,,,,,,,,,,,,,,,,,,candle,candle,56,0,56,0,1,,,,,,,,,,,,,,,,,,,,,,,,,,,,,,,
,,,,,,,,,,,,,,,90509,001,2022-04-28_21h29.52.323,SPAMnetsValid,2021.1.4,MacIntel,60.0024001,,,,,,,,,,,,,,,,,,,,,,,,,,,,,,,,,,,,,,,,,,,,,,,,,,,,candle,candle,57,0,57,0,1,,,,,,,,,,,,,,,,,,,,,,,,,,,,,,,
,,,,,,,,,,,,,,,90509,001,2022-04-28_21h29.52.323,SPAMnetsValid,2021.1.4,MacIntel,60.0024001,,,,,,,,,,,,,,,,,,,,,,,,,,,,,,,,,,,,,,,,,,,,,,,,,,,,candle,candle,58,0,58,0,1,,,,,,,,,,,,,,,,,,,,,,,,,,,,,,,
,,,,,,,,,,,,,,,90509,001,2022-04-28_21h29.52.323,SPAMnetsValid,2021.1.4,MacIntel,60.0024001,,,,,,,,,,,,,,,,,,,,,,,,,,,,,,,,,,,,,,,,,,,,,,,,,,,,candle,candle,59,0,59,0,1,,,,,,,,,,,,,,,,,,,,,,,,,,,,,,,
,,,,,,,,,,,,,,,90509,001,2022-04-28_21h29.52.323,SPAMnetsValid,2021.1.4,MacIntel,60.0024001,,,,,,,,,,,,,,,,,,,,,,,,,,,,,,,,,,,,,,,,,,,,,,,,,,,,candle,candle,60,0,60,0,1,,,,,,,,,,,,,,,,,,,,,,,,,,,,,,,
,,,,,,,,,,,,,,,90509,001,2022-04-28_21h29.52.323,SPAMnetsValid,2021.1.4,MacIntel,60.0024001,,,,,,,,,,,,,,,,,,,,,,,,,,,,,,,,,,,,,,,,,,,,,,,,,,,,candle,candle,61,0,61,0,1,,,,,,,,,,,,,,,,,,,,,,,,,,,,,,,
,,,,,,,,,,,,,,,90509,001,2022-04-28_21h29.52.323,SPAMnetsValid,2021.1.4,MacIntel,60.0024001,,,,,,,,,,,,,,,,,,,,,,,,,,,,,,,,,,,,,,,,,,,,,,,,,,,,candle',candle,62,0,62,0,1,,,,,,,,,,,,,,,,,,,,,,,,,,,,,,,
,,,,,,,,,,,,,,,90509,001,2022-04-28_21h29.52.323,SPAMnetsValid,2021.1.4,MacIntel,60.0024001,,,,,,,,,,,,,,,,,,,,,,,,,,,,,,,,,,,,,,,,,,,,,,,,,,,,candle,candle,63,0,63,0,1,,,,,,,,,,,,,,,,,,,,,,,,,,,,,,,
,,,,,,,,,,,,,,,90509,001,2022-04-28_21h29.52.323,SPAMnetsValid,2021.1.4,MacIntel,60.0024001,,,,,,,,,,,,,,,,,,,,,,,,,,,,,,,,,,,,,,,,,,,,,,,,,,,,candle,candle,64,0,64,0,1,,,,,,,,,,,,,,,,,,,,,,,,,,,,,,,
,,,,,,,,,,,,,,,90509,001,2022-04-28_21h29.52.323,SPAMnetsValid,2021.1.4,MacIntel,60.0024001,,,,,,,,,,,,,,,,,,,,,,,,,,,,,,,,,,,,,,,,,,,,,,,,,,,,candl,candle,65,0,65,0,1,,,,,,,,,,,,,,,,,,,,,,,,,,,,,,,
,,,,,,,,,,,,,,,90509,001,2022-04-28_21h29.52.323,SPAMnetsValid,2021.1.4,MacIntel,60.0024001,,,,,,,,,,,,,,,,,,,,,,,,,,,,,,,,,,,,,,,,,,,,,,,,,,,,,candle,66,0,66,0,1,,,,,,,,,,,,,,,,,,,,,,,,,,,,,,,
,,,,,,,,,,,,,,,90509,001,2022-04-28_21h29.52.323,SPAMnetsValid,2021.1.4,MacIntel,60.0024001,,,,,,,,,,,,,,,,,,,,,,,,,,,,,,,,,,,,,,,,,,,,,,,,,,,,candle,candle,67,0,67,0,1,,,,,,,,,,,,,,,,,,,,,,,,,,,,,,,
,,,,,,,,,,,,,,,90509,001,2022-04-28_21h29.52.323,SPAMnetsValid,2021.1.4,MacIntel,60.0024001,,,,,,,,,,,,,,,,,,,,,,,,,,,,,,,,,,,,,,,,,,,,,,,,,,,,candle,candle,68,0,68,0,1,,,,,,,,,,,,,,,,,,,,,,,,,,,,,,,
,,,,,,,,,,,,,,,90509,001,2022-04-28_21h29.52.323,SPAMnetsValid,2021.1.4,MacIntel,60.0024001,,,,,,,,,,,,,,,,,,,,,,,,,,,,,,,,,,,,,,,,,,,,,,,,,,,,candle,candle,69,0,69,0,1,,,,,,,,,,,,,,,,,,,,,,,,,,,,,,,
,,,,,,,,,,,,,,,90509,001,2022-04-28_21h29.52.323,SPAMnetsValid,2021.1.4,MacIntel,60.0024001,,,,,,,,,,,,,,,,,,,,,,,,,,,,,,,,,,,,,,,,,,,,,,,,,,,,candle,candle,70,0,70,0,1,,,,,,,,,,,,,,,,,,,,,,,,,,,,,,,
,,,,,,,,,,,,,,,90509,001,2022-04-28_21h29.52.323,SPAMnetsValid,2021.1.4,MacIntel,60.0024001,,,,,,,,,,,,,,,,,,,,,,,,,,,,,,,,,,,,,,,,,,,,,,,,,,,,candle,candle,71,0,71,0,1,,,,,,,,,,,,,,,,,,,,,,,,,,,,,,,
,,,,,,,,,,,,,,,90509,001,2022-04-28_21h29.52.323,SPAMnetsValid,2021.1.4,MacIntel,60.0024001,,,,,,,,,,,,,,,,,,,,,,,,,,,,,,,,,,,,,,,,,,,,,,,,,,,,candle,candle,72,0,72,0,1,,,,,,,,,,,,,,,,,,,,,,,,,,,,,,,
,,,,,,,,,,,,,,,90509,001,2022-04-28_21h29.52.323,SPAMnetsValid,2021.1.4,MacIntel,60.0024001,,,,,,,,,,,,,,,,,,,,,,,,,,,,,,,,,,,,,,,,,,,,,,,,,,,,,,,,,,,0,2,2,1,1,candle,,,,,,,,,,,,,,,,,,,,,,,,,
,,,,,,,,,,,,,,,90509,001,2022-04-28_21h29.52.323,SPAMnetsValid,2021.1.4,MacIntel,60.0024001,,,,,,,,,,,,,,,,,,,,,,,,,,,,,,,,,,,,,,,,,,,,,,,,,,,,,,,,,,,,,,,,,gorilla,Animals,0,0,0,0,1,,,,,,,,,,,,,,,,,,
,,,,,,,,,,,,,,,90509,001,2022-04-28_21h29.52.323,SPAMnetsValid,2021.1.4,MacIntel,60.0024001,,,,,,,,,,,,,,,,,,,,,,,,,,,,,,,,,,,,,,,,,,,,,,,,,,,,,,,,,,,,,,,,,dog,Animals,1,0,1,0,1,,,,,,,,,,,,,,,,,,
,,,,,,,,,,,,,,,90509,001,2022-04-28_21h29.52.323,SPAMnetsValid,2021.1.4,MacIntel,60.0024001,,,,,,,,,,,,,,,,,,,,,,,,,,,,,,,,,,,,,,,,,,,,,,,,,,,,,,,,,,,,,,,,,cat,Animals,2,0,2,0,1,,,,,,,,,,,,,,,,,,
,,,,,,,,,,,,,,,90509,001,2022-04-28_21h29.52.323,SPAMnetsValid,2021.1.4,MacIntel,60.0024001,,,,,,,,,,,,,,,,,,,,,,,,,,,,,,,,,,,,,,,,,,,,,,,,,,,,,,,,,,,,,,,,,hamster,Animals,3,0,3,0,1,,,,,,,,,,,,,,,,,,
,,,,,,,,,,,,,,,90509,001,2022-04-28_21h29.52.323,SPAMnetsValid,2021.1.4,MacIntel,60.0024001,,,,,,,,,,,,,,,,,,,,,,,,,,,,,,,,,,,,,,,,,,,,,,,,,,,,,,,,,,,,,,,,,mouse,Animals,4,0,4,0,1,,,,,,,,,,,,,,,,,,
,,,,,,,,,,,,,,,90509,001,2022-04-28_21h29.52.323,SPAMnetsValid,2021.1.4,MacIntel,60.0024001,,,,,,,,,,,,,,,,,,,,,,,,,,,,,,,,,,,,,,,,,,,,,,,,,,,,,,,,,,,,,,,,,rat,Animals,5,0,5,0,1,,,,,,,,,,,,,,,,,,
,,,,,,,,,,,,,,,90509,001,2022-04-28_21h29.52.323,SPAMnetsValid,2021.1.4,MacIntel,60.0024001,,,,,,,,,,,,,,,,,,,,,,,,,,,,,,,,,,,,,,,,,,,,,,,,,,,,,,,,,,,,,,,,,moose,Animals,6,0,6,0,1,,,,,,,,,,,,,,,,,,
,,,,,,,,,,,,,,,90509,001,2022-04-28_21h29.52.323,SPAMnetsValid,2021.1.4,MacIntel,60.0024001,,,,,,,,,,,,,,,,,,,,,,,,,,,,,,,,,,,,,,,,,,,,,,,,,,,,,,,,,,,,,,,,,bull,Animals,7,0,7,0,1,,,,,,,,,,,,,,,,,,
,,,,,,,,,,,,,,,90509,001,2022-04-28_21h29.52.323,SPAMnetsValid,2021.1.4,MacIntel,60.0024001,,,,,,,,,,,,,,,,,,,,,,,,,,,,,,,,,,,,,,,,,,,,,,,,,,,,,,,,,,,,,,,,,cow,Animals,8,0,8,0,1,,,,,,,,,,,,,,,,,,
,,,,,,,,,,,,,,,90509,001,2022-04-28_21h29.52.323,SPAMnetsValid,2021.1.4,MacIntel,60.0024001,,,,,,,,,,,,,,,,,,,,,,,,,,,,,,,,,,,,,,,,,,,,,,,,,,,,,,,,,,,,,,,,,pig,Animals,9,0,9,0,1,,,,,,,,,,,,,,,,,,
,,,,,,,,,,,,,,,90509,001,2022-04-28_21h29.52.323,SPAMnetsValid,2021.1.4,MacIntel,60.0024001,,,,,,,,,,,,,,,,,,,,,,,,,,,,,,,,,,,,,,,,,,,,,,,,,,,,,,,,,,,,,,,,,horse,Animals,10,0,10,0,1,,,,,,,,,,,,,,,,,,
,,,,,,,,,,,,,,,90509,001,2022-04-28_21h29.52.323,SPAMnetsValid,2021.1.4,MacIntel,60.0024001,,,,,,,,,,,,,,,,,,,,,,,,,,,,,,,,,,,,,,,,,,,,,,,,,,,,,,,,,,,,,,,,,chicken,Animals,11,0,11,0,1,,,,,,,,,,,,,,,,,,
,,,,,,,,,,,,,,,90509,001,2022-04-28_21h29.52.323,SPAMnetsValid,2021.1.4,MacIntel,60.0024001,,,,,,,,,,,,,,,,,,,,,,,,,,,,,,,,,,,,,,,,,,,,,,,,,,,,,,,,,,,,,,,,,hummingbird,Animals,12,0,12,0,1,,,,,,,,,,,,,,,,,,
,,,,,,,,,,,,,,,90509,001,2022-04-28_21h29.52.323,SPAMnetsValid,2021.1.4,MacIntel,60.0024001,,,,,,,,,,,,,,,,,,,,,,,,,,,,,,,,,,,,,,,,,,,,,,,,,,,,,,,,,,,,,,,,,owl,Animals,13,0,13,0,1,,,,,,,,,,,,,,,,,,
,,,,,,,,,,,,,,,90509,001,2022-04-28_21h29.52.323,SPAMnetsValid,2021.1.4,MacIntel,60.0024001,,,,,,,,,,,,,,,,,,,,,,,,,,,,,,,,,,,,,,,,,,,,,,,,,,,,,,,,,,,,,,,,,lion,Animals,14,0,14,0,1,,,,,,,,,,,,,,,,,,
,,,,,,,,,,,,,,,90509,001,2022-04-28_21h29.52.323,SPAMnetsValid,2021.1.4,MacIntel,60.0024001,,,,,,,,,,,,,,,,,,,,,,,,,,,,,,,,,,,,,,,,,,,,,,,,,,,,,,,,,,,,,,,,,tiger,Animals,15,0,15,0,1,,,,,,,,,,,,,,,,,,
,,,,,,,,,,,,,,,90509,001,2022-04-28_21h29.52.323,SPAMnetsValid,2021.1.4,MacIntel,60.0024001,,,,,,,,,,,,,,,,,,,,,,,,,,,,,,,,,,,,,,,,,,,,,,,,,,,,,,,,,,,,,,,,,bear,Animals,16,0,16,0,1,,,,,,,,,,,,,,,,,,
,,,,,,,,,,,,,,,90509,001,2022-04-28_21h29.52.323,SPAMnetsValid,2021.1.4,MacIntel,60.0024001,,,,,,,,,,,,,,,,,,,,,,,,,,,,,,,,,,,,,,,,,,,,,,,,,,,,,,,,,,,,,,,,,fox,Animals,17,0,17,0,1,,,,,,,,,,,,,,,,,,
