key_resp_3.keys,key_resp_3.rt,slider_2.response,slider_2.rt,rjt_rating,rjt_RT,trials_24.thisRepN,trials_24.thisTrialN,trials_24.thisN,trials_24.thisIndex,trials_24.ran,rjt_order,word1,word2,attention,participant,session,date,expName,psychopyVersion,OS,frameRate,trials_4.thisRepN,trials_4.thisTrialN,trials_4.thisN,trials_4.thisIndex,trials_4.ran,trials_5.thisRepN,trials_5.thisTrialN,trials_5.thisN,trials_5.thisIndex,trials_5.ran,repOne,repTwo,slider.response,slider.rt,trials_22.thisRepN,trials_22.thisTrialN,trials_22.thisN,trials_22.thisIndex,trials_22.ran,trials_99.thisRepN,trials_99.thisTrialN,trials_99.thisN,trials_99.thisIndex,trials_99.ran,slider_extend_2.response,slider_extend_2.rt,trials_6.thisRepN,trials_6.thisTrialN,trials_6.thisN,trials_6.thisIndex,trials_6.ran,vCue2,R1,R2,R3,R4,correct,sliderVocab.response,sliderVocab.rt,trials_7.thisRepN,trials_7.thisTrialN,trials_7.thisN,trials_7.thisIndex,trials_7.ran,VocabCue,VR1,VR2,VR3,VR4,VR5,VocabCorrect,AUT_resp,AUT_label,trials.thisRepN,trials.thisTrialN,trials.thisN,trials.thisIndex,trials.ran,trials_2.thisRepN,trials_2.thisTrialN,trials_2.thisN,trials_2.thisIndex,trials_2.ran,aut_prompt,VF_response,VF_tag,trials_16.thisRepN,trials_16.thisTrialN,trials_16.thisN,trials_16.thisIndex,trials_16.ran,trials_17.thisRepN,trials_17.thisTrialN,trials_17.thisN,trials_17.thisIndex,trials_17.ran,VFcond,open_slider.response,open_slider.rt,trials_3.thisRepN,trials_3.thisTrialN,trials_3.thisN,trials_3.thisIndex,trials_3.ran,OpenQ,Rev,OPEN_ORDER,key_resp_2.keys,key_resp_2.rt
return,1.97,1,14.823,1,14.823,0,0,0,84,1,130,microwave,yogurt,,90516,001,2022-04-29_12h55.41.084,SPAMnetsValid,2021.1.4,MacIntel,55.55555556,,,,,,,,,,,,,,,,,,,,,,,,,,,,,,,,,,,,,,,,,,,,,,,,,,,,,,,,,,,,,,,,,,,,,,,,,,,,,,,,,,,,,,,,,
,,1,1.768,1,1.768,0,1,1,88,1,171,cake,tomato,,90516,001,2022-04-29_12h55.41.084,SPAMnetsValid,2021.1.4,MacIntel,55.55555556,,,,,,,,,,,,,,,,,,,,,,,,,,,,,,,,,,,,,,,,,,,,,,,,,,,,,,,,,,,,,,,,,,,,,,,,,,,,,,,,,,,,,,,,,
,,1,1.378,1,1.378,0,2,2,78,1,132,broom,tree,,90516,001,2022-04-29_12h55.41.084,SPAMnetsValid,2021.1.4,MacIntel,55.55555556,,,,,,,,,,,,,,,,,,,,,,,,,,,,,,,,,,,,,,,,,,,,,,,,,,,,,,,,,,,,,,,,,,,,,,,,,,,,,,,,,,,,,,,,,
,,6,2.763,6,2.763,0,3,3,11,1,117,melon,strawberry,,90516,001,2022-04-29_12h55.41.084,SPAMnetsValid,2021.1.4,MacIntel,55.55555556,,,,,,,,,,,,,,,,,,,,,,,,,,,,,,,,,,,,,,,,,,,,,,,,,,,,,,,,,,,,,,,,,,,,,,,,,,,,,,,,,,,,,,,,,
,,8,4.002,8,4.002,0,4,4,94,1,133,cake,flower,,90516,001,2022-04-29_12h55.41.084,SPAMnetsValid,2021.1.4,MacIntel,55.55555556,,,,,,,,,,,,,,,,,,,,,,,,,,,,,,,,,,,,,,,,,,,,,,,,,,,,,,,,,,,,,,,,,,,,,,,,,,,,,,,,,,,,,,,,,
,,3,2.75,3,2.75,0,5,5,69,1,124,oven,refrigerator,,90516,001,2022-04-29_12h55.41.084,SPAMnetsValid,2021.1.4,MacIntel,55.55555556,,,,,,,,,,,,,,,,,,,,,,,,,,,,,,,,,,,,,,,,,,,,,,,,,,,,,,,,,,,,,,,,,,,,,,,,,,,,,,,,,,,,,,,,,
,,2,2.774,2,2.774,0,6,6,38,1,155,carrot,cookie,,90516,001,2022-04-29_12h55.41.084,SPAMnetsValid,2021.1.4,MacIntel,55.55555556,,,,,,,,,,,,,,,,,,,,,,,,,,,,,,,,,,,,,,,,,,,,,,,,,,,,,,,,,,,,,,,,,,,,,,,,,,,,,,,,,,,,,,,,,
,,1,1.514,1,1.514,0,7,7,73,1,135,carrot,oven,,90516,001,2022-04-29_12h55.41.084,SPAMnetsValid,2021.1.4,MacIntel,55.55555556,,,,,,,,,,,,,,,,,,,,,,,,,,,,,,,,,,,,,,,,,,,,,,,,,,,,,,,,,,,,,,,,,,,,,,,,,,,,,,,,,,,,,,,,,
,,1,2.272,1,2.272,0,8,8,82,1,98,pretzel,strawberry,,90516,001,2022-04-29_12h55.41.084,SPAMnetsValid,2021.1.4,MacIntel,55.55555556,,,,,,,,,,,,,,,,,,,,,,,,,,,,,,,,,,,,,,,,,,,,,,,,,,,,,,,,,,,,,,,,,,,,,,,,,,,,,,,,,,,,,,,,,
,,1,2.831,1,2.831,0,9,9,57,1,127,cactus,chocolate,,90516,001,2022-04-29_12h55.41.084,SPAMnetsValid,2021.1.4,MacIntel,55.55555556,,,,,,,,,,,,,,,,,,,,,,,,,,,,,,,,,,,,,,,,,,,,,,,,,,,,,,,,,,,,,,,,,,,,,,,,,,,,,,,,,,,,,,,,,
,,1,1.295,1,1.295,0,10,10,62,1,189,onion,tree,,90516,001,2022-04-29_12h55.41.084,SPAMnetsValid,2021.1.4,MacIntel,55.55555556,,,,,,,,,,,,,,,,,,,,,,,,,,,,,,,,,,,,,,,,,,,,,,,,,,,,,,,,,,,,,,,,,,,,,,,,,,,,,,,,,,,,,,,,,
,,1,1.318,1,1.318,0,11,11,40,1,165,onion,rose,,90516,001,2022-04-29_12h55.41.084,SPAMnetsValid,2021.1.4,MacIntel,55.55555556,,,,,,,,,,,,,,,,,,,,,,,,,,,,,,,,,,,,,,,,,,,,,,,,,,,,,,,,,,,,,,,,,,,,,,,,,,,,,,,,,,,,,,,,,
,,3,2.022,3,2.022,0,12,12,87,1,114,cookie,strawberry,,90516,001,2022-04-29_12h55.41.084,SPAMnetsValid,2021.1.4,MacIntel,55.55555556,,,,,,,,,,,,,,,,,,,,,,,,,,,,,,,,,,,,,,,,,,,,,,,,,,,,,,,,,,,,,,,,,,,,,,,,,,,,,,,,,,,,,,,,,
,,4,4.927,4,4.927,0,13,13,7,1,188,flower,tree,,90516,001,2022-04-29_12h55.41.084,SPAMnetsValid,2021.1.4,MacIntel,55.55555556,,,,,,,,,,,,,,,,,,,,,,,,,,,,,,,,,,,,,,,,,,,,,,,,,,,,,,,,,,,,,,,,,,,,,,,,,,,,,,,,,,,,,,,,,
,,1,1.133,1,1.133,0,14,14,3,1,129,cactus,refrigerator,,90516,001,2022-04-29_12h55.41.084,SPAMnetsValid,2021.1.4,MacIntel,55.55555556,,,,,,,,,,,,,,,,,,,,,,,,,,,,,,,,,,,,,,,,,,,,,,,,,,,,,,,,,,,,,,,,,,,,,,,,,,,,,,,,,,,,,,,,,
,,9,1.519,9,1.519,0,15,15,60,1,122,flower,garden,,90516,001,2022-04-29_12h55.41.084,SPAMnetsValid,2021.1.4,MacIntel,55.55555556,,,,,,,,,,,,,,,,,,,,,,,,,,,,,,,,,,,,,,,,,,,,,,,,,,,,,,,,,,,,,,,,,,,,,,,,,,,,,,,,,,,,,,,,,
,,1,1.962,1,1.962,0,16,16,93,1,134,carrot,flower,,90516,001,2022-04-29_12h55.41.084,SPAMnetsValid,2021.1.4,MacIntel,55.55555556,,,,,,,,,,,,,,,,,,,,,,,,,,,,,,,,,,,,,,,,,,,,,,,,,,,,,,,,,,,,,,,,,,,,,,,,,,,,,,,,,,,,,,,,,
,,7,2.203,7,2.203,0,17,17,56,1,113,refrigerator,strawberry,,90516,001,2022-04-29_12h55.41.084,SPAMnetsValid,2021.1.4,MacIntel,55.55555556,,,,,,,,,,,,,,,,,,,,,,,,,,,,,,,,,,,,,,,,,,,,,,,,,,,,,,,,,,,,,,,,,,,,,,,,,,,,,,,,,,,,,,,,,
,,8,1.722,8,1.722,0,18,18,1,1,173,kitchen,tomato,,90516,001,2022-04-29_12h55.41.084,SPAMnetsValid,2021.1.4,MacIntel,55.55555556,,,,,,,,,,,,,,,,,,,,,,,,,,,,,,,,,,,,,,,,,,,,,,,,,,,,,,,,,,,,,,,,,,,,,,,,,,,,,,,,,,,,,,,,,
,,9,1.539,9,1.539,0,19,19,0,1,106,cake,strawberry,,90516,001,2022-04-29_12h55.41.084,SPAMnetsValid,2021.1.4,MacIntel,55.55555556,,,,,,,,,,,,,,,,,,,,,,,,,,,,,,,,,,,,,,,,,,,,,,,,,,,,,,,,,,,,,,,,,,,,,,,,,,,,,,,,,,,,,,,,,
,,1,1.407,1,1.407,0,20,20,81,1,104,garden,microwave,,90516,001,2022-04-29_12h55.41.084,SPAMnetsValid,2021.1.4,MacIntel,55.55555556,,,,,,,,,,,,,,,,,,,,,,,,,,,,,,,,,,,,,,,,,,,,,,,,,,,,,,,,,,,,,,,,,,,,,,,,,,,,,,,,,,,,,,,,,
,,1,1.499,1,1.499,0,21,21,4,1,109,broom,strawberry,,90516,001,2022-04-29_12h55.41.084,SPAMnetsValid,2021.1.4,MacIntel,55.55555556,,,,,,,,,,,,,,,,,,,,,,,,,,,,,,,,,,,,,,,,,,,,,,,,,,,,,,,,,,,,,,,,,,,,,,,,,,,,,,,,,,,,,,,,,
,,1,2.763,1,2.763,0,22,22,43,1,185,cactus,rose,,90516,001,2022-04-29_12h55.41.084,SPAMnetsValid,2021.1.4,MacIntel,55.55555556,,,,,,,,,,,,,,,,,,,,,,,,,,,,,,,,,,,,,,,,,,,,,,,,,,,,,,,,,,,,,,,,,,,,,,,,,,,,,,,,,,,,,,,,,
,,1,1.472,1,1.472,0,23,23,64,1,157,refrigerator,rose,,90516,001,2022-04-29_12h55.41.084,SPAMnetsValid,2021.1.4,MacIntel,55.55555556,,,,,,,,,,,,,,,,,,,,,,,,,,,,,,,,,,,,,,,,,,,,,,,,,,,,,,,,,,,,,,,,,,,,,,,,,,,,,,,,,,,,,,,,,
,,9,2.272,9,2.272,0,24,24,83,1,100,garden,tomato,,90516,001,2022-04-29_12h55.41.084,SPAMnetsValid,2021.1.4,MacIntel,55.55555556,,,,,,,,,,,,,,,,,,,,,,,,,,,,,,,,,,,,,,,,,,,,,,,,,,,,,,,,,,,,,,,,,,,,,,,,,,,,,,,,,,,,,,,,,
,,6,1.803,6,1.803,0,25,25,39,1,112,cake,carrot,,90516,001,2022-04-29_12h55.41.084,SPAMnetsValid,2021.1.4,MacIntel,55.55555556,,,,,,,,,,,,,,,,,,,,,,,,,,,,,,,,,,,,,,,,,,,,,,,,,,,,,,,,,,,,,,,,,,,,,,,,,,,,,,,,,,,,,,,,,
,,1,1.259,1,1.259,0,26,26,67,1,96,oven,strawberry,,90516,001,2022-04-29_12h55.41.084,SPAMnetsValid,2021.1.4,MacIntel,55.55555556,,,,,,,,,,,,,,,,,,,,,,,,,,,,,,,,,,,,,,,,,,,,,,,,,,,,,,,,,,,,,,,,,,,,,,,,,,,,,,,,,,,,,,,,,
,,1,5.443,1,5.443,0,27,27,15,1,145,cactus,yogurt,,90516,001,2022-04-29_12h55.41.084,SPAMnetsValid,2021.1.4,MacIntel,55.55555556,,,,,,,,,,,,,,,,,,,,,,,,,,,,,,,,,,,,,,,,,,,,,,,,,,,,,,,,,,,,,,,,,,,,,,,,,,,,,,,,,,,,,,,,,
,,4,3.309,4,3.309,0,28,28,18,1,119,strawberry,tree,,90516,001,2022-04-29_12h55.41.084,SPAMnetsValid,2021.1.4,MacIntel,55.55555556,,,,,,,,,,,,,,,,,,,,,,,,,,,,,,,,,,,,,,,,,,,,,,,,,,,,,,,,,,,,,,,,,,,,,,,,,,,,,,,,,,,,,,,,,
,,1,0.963,1,0.963,0,29,29,80,1,146,pretzel,tree,,90516,001,2022-04-29_12h55.41.084,SPAMnetsValid,2021.1.4,MacIntel,55.55555556,,,,,,,,,,,,,,,,,,,,,,,,,,,,,,,,,,,,,,,,,,,,,,,,,,,,,,,,,,,,,,,,,,,,,,,,,,,,,,,,,,,,,,,,,
,,7,2.732,7,2.732,0,30,30,92,1,170,cookie,microwave,,90516,001,2022-04-29_12h55.41.084,SPAMnetsValid,2021.1.4,MacIntel,55.55555556,,,,,,,,,,,,,,,,,,,,,,,,,,,,,,,,,,,,,,,,,,,,,,,,,,,,,,,,,,,,,,,,,,,,,,,,,,,,,,,,,,,,,,,,,
,,6,1.527,6,1.527,0,31,31,70,1,141,melon,tomato,,90516,001,2022-04-29_12h55.41.084,SPAMnetsValid,2021.1.4,MacIntel,55.55555556,,,,,,,,,,,,,,,,,,,,,,,,,,,,,,,,,,,,,,,,,,,,,,,,,,,,,,,,,,,,,,,,,,,,,,,,,,,,,,,,,,,,,,,,,
,,9,1.703,9,1.703,0,32,32,14,1,120,microwave,oven,,90516,001,2022-04-29_12h55.41.084,SPAMnetsValid,2021.1.4,MacIntel,55.55555556,,,,,,,,,,,,,,,,,,,,,,,,,,,,,,,,,,,,,,,,,,,,,,,,,,,,,,,,,,,,,,,,,,,,,,,,,,,,,,,,,,,,,,,,,
,,9,1.327,9,1.327,0,33,33,47,1,167,carrot,garden,,90516,001,2022-04-29_12h55.41.084,SPAMnetsValid,2021.1.4,MacIntel,55.55555556,,,,,,,,,,,,,,,,,,,,,,,,,,,,,,,,,,,,,,,,,,,,,,,,,,,,,,,,,,,,,,,,,,,,,,,,,,,,,,,,,,,,,,,,,
,,1,1.343,1,1.343,0,34,34,54,1,101,cactus,kitchen,,90516,001,2022-04-29_12h55.41.084,SPAMnetsValid,2021.1.4,MacIntel,55.55555556,,,,,,,,,,,,,,,,,,,,,,,,,,,,,,,,,,,,,,,,,,,,,,,,,,,,,,,,,,,,,,,,,,,,,,,,,,,,,,,,,,,,,,,,,
,,1,1.554,1,1.554,0,35,35,5,1,108,carrot,chocolate,,90516,001,2022-04-29_12h55.41.084,SPAMnetsValid,2021.1.4,MacIntel,55.55555556,,,,,,,,,,,,,,,,,,,,,,,,,,,,,,,,,,,,,,,,,,,,,,,,,,,,,,,,,,,,,,,,,,,,,,,,,,,,,,,,,,,,,,,,,
,,1,1.51,1,1.51,0,36,36,45,1,179,broom,oven,,90516,001,2022-04-29_12h55.41.084,SPAMnetsValid,2021.1.4,MacIntel,55.55555556,,,,,,,,,,,,,,,,,,,,,,,,,,,,,,,,,,,,,,,,,,,,,,,,,,,,,,,,,,,,,,,,,,,,,,,,,,,,,,,,,,,,,,,,,
,,8,2.298,8,2.298,0,37,37,53,1,177,chocolate,strawberry,,90516,001,2022-04-29_12h55.41.084,SPAMnetsValid,2021.1.4,MacIntel,55.55555556,,,,,,,,,,,,,,,,,,,,,,,,,,,,,,,,,,,,,,,,,,,,,,,,,,,,,,,,,,,,,,,,,,,,,,,,,,,,,,,,,,,,,,,,,
,,1,1.204,1,1.204,0,38,38,13,1,105,cactus,oven,,90516,001,2022-04-29_12h55.41.084,SPAMnetsValid,2021.1.4,MacIntel,55.55555556,,,,,,,,,,,,,,,,,,,,,,,,,,,,,,,,,,,,,,,,,,,,,,,,,,,,,,,,,,,,,,,,,,,,,,,,,,,,,,,,,,,,,,,,,
,,1,1.431,1,1.431,0,39,39,58,1,144,cake,garden,,90516,001,2022-04-29_12h55.41.084,SPAMnetsValid,2021.1.4,MacIntel,55.55555556,,,,,,,,,,,,,,,,,,,,,,,,,,,,,,,,,,,,,,,,,,,,,,,,,,,,,,,,,,,,,,,,,,,,,,,,,,,,,,,,,,,,,,,,,
,,9,1.681,9,1.681,0,40,40,86,1,193,melon,melon,CHECK,90516,001,2022-04-29_12h55.41.084,SPAMnetsValid,2021.1.4,MacIntel,55.55555556,,,,,,,,,,,,,,,,,,,,,,,,,,,,,,,,,,,,,,,,,,,,,,,,,,,,,,,,,,,,,,,,,,,,,,,,,,,,,,,,,,,,,,,,,
,,2,1.667,2,1.667,0,41,41,46,1,123,cookie,tree,,90516,001,2022-04-29_12h55.41.084,SPAMnetsValid,2021.1.4,MacIntel,55.55555556,,,,,,,,,,,,,,,,,,,,,,,,,,,,,,,,,,,,,,,,,,,,,,,,,,,,,,,,,,,,,,,,,,,,,,,,,,,,,,,,,,,,,,,,,
,,7,2.972,7,2.972,0,42,42,35,1,147,cake,refrigerator,,90516,001,2022-04-29_12h55.41.084,SPAMnetsValid,2021.1.4,MacIntel,55.55555556,,,,,,,,,,,,,,,,,,,,,,,,,,,,,,,,,,,,,,,,,,,,,,,,,,,,,,,,,,,,,,,,,,,,,,,,,,,,,,,,,,,,,,,,,
,,7,2.832,7,2.832,0,43,43,77,1,172,kitchen,melon,,90516,001,2022-04-29_12h55.41.084,SPAMnetsValid,2021.1.4,MacIntel,55.55555556,,,,,,,,,,,,,,,,,,,,,,,,,,,,,,,,,,,,,,,,,,,,,,,,,,,,,,,,,,,,,,,,,,,,,,,,,,,,,,,,,,,,,,,,,
,,5,1.499,5,1.499,0,44,44,76,1,102,chocolate,refrigerator,,90516,001,2022-04-29_12h55.41.084,SPAMnetsValid,2021.1.4,MacIntel,55.55555556,,,,,,,,,,,,,,,,,,,,,,,,,,,,,,,,,,,,,,,,,,,,,,,,,,,,,,,,,,,,,,,,,,,,,,,,,,,,,,,,,,,,,,,,,
,,1,1.611,1,1.611,0,45,45,32,1,182,flower,refrigerator,,90516,001,2022-04-29_12h55.41.084,SPAMnetsValid,2021.1.4,MacIntel,55.55555556,,,,,,,,,,,,,,,,,,,,,,,,,,,,,,,,,,,,,,,,,,,,,,,,,,,,,,,,,,,,,,,,,,,,,,,,,,,,,,,,,,,,,,,,,
,,1,2.661,1,2.661,0,46,46,90,1,190,microwave,strawberry,,90516,001,2022-04-29_12h55.41.084,SPAMnetsValid,2021.1.4,MacIntel,55.55555556,,,,,,,,,,,,,,,,,,,,,,,,,,,,,,,,,,,,,,,,,,,,,,,,,,,,,,,,,,,,,,,,,,,,,,,,,,,,,,,,,,,,,,,,,
,,6,2.08,6,2.08,0,47,47,65,1,160,cookie,kitchen,,90516,001,2022-04-29_12h55.41.084,SPAMnetsValid,2021.1.4,MacIntel,55.55555556,,,,,,,,,,,,,,,,,,,,,,,,,,,,,,,,,,,,,,,,,,,,,,,,,,,,,,,,,,,,,,,,,,,,,,,,,,,,,,,,,,,,,,,,,
,,1,2.525,1,2.525,0,48,48,91,1,166,cake,yogurt,,90516,001,2022-04-29_12h55.41.084,SPAMnetsValid,2021.1.4,MacIntel,55.55555556,,,,,,,,,,,,,,,,,,,,,,,,,,,,,,,,,,,,,,,,,,,,,,,,,,,,,,,,,,,,,,,,,,,,,,,,,,,,,,,,,,,,,,,,,
,,7,2.407,7,2.407,0,49,49,28,1,154,strawberry,yogurt,,90516,001,2022-04-29_12h55.41.084,SPAMnetsValid,2021.1.4,MacIntel,55.55555556,,,,,,,,,,,,,,,,,,,,,,,,,,,,,,,,,,,,,,,,,,,,,,,,,,,,,,,,,,,,,,,,,,,,,,,,,,,,,,,,,,,,,,,,,
,,7,2.556,7,2.556,0,50,50,66,1,150,microwave,refrigerator,,90516,001,2022-04-29_12h55.41.084,SPAMnetsValid,2021.1.4,MacIntel,55.55555556,,,,,,,,,,,,,,,,,,,,,,,,,,,,,,,,,,,,,,,,,,,,,,,,,,,,,,,,,,,,,,,,,,,,,,,,,,,,,,,,,,,,,,,,,
,,1,1.893,1,1.893,0,51,51,34,1,153,carrot,pretzel,,90516,001,2022-04-29_12h55.41.084,SPAMnetsValid,2021.1.4,MacIntel,55.55555556,,,,,,,,,,,,,,,,,,,,,,,,,,,,,,,,,,,,,,,,,,,,,,,,,,,,,,,,,,,,,,,,,,,,,,,,,,,,,,,,,,,,,,,,,
,,1,1.519,1,1.519,0,52,52,79,1,103,pretzel,tomato,,90516,001,2022-04-29_12h55.41.084,SPAMnetsValid,2021.1.4,MacIntel,55.55555556,,,,,,,,,,,,,,,,,,,,,,,,,,,,,,,,,,,,,,,,,,,,,,,,,,,,,,,,,,,,,,,,,,,,,,,,,,,,,,,,,,,,,,,,,
,,1,1.297,1,1.297,0,53,53,68,1,180,tree,yogurt,,90516,001,2022-04-29_12h55.41.084,SPAMnetsValid,2021.1.4,MacIntel,55.55555556,,,,,,,,,,,,,,,,,,,,,,,,,,,,,,,,,,,,,,,,,,,,,,,,,,,,,,,,,,,,,,,,,,,,,,,,,,,,,,,,,,,,,,,,,
,,9,1.578,9,1.578,0,54,54,52,1,110,chocolate,cookie,,90516,001,2022-04-29_12h55.41.084,SPAMnetsValid,2021.1.4,MacIntel,55.55555556,,,,,,,,,,,,,,,,,,,,,,,,,,,,,,,,,,,,,,,,,,,,,,,,,,,,,,,,,,,,,,,,,,,,,,,,,,,,,,,,,,,,,,,,,
,,1,1.361,1,1.361,0,55,55,74,1,128,melon,microwave,,90516,001,2022-04-29_12h55.41.084,SPAMnetsValid,2021.1.4,MacIntel,55.55555556,,,,,,,,,,,,,,,,,,,,,,,,,,,,,,,,,,,,,,,,,,,,,,,,,,,,,,,,,,,,,,,,,,,,,,,,,,,,,,,,,,,,,,,,,
,,9,1.62,9,1.62,0,56,56,61,1,138,flower,rose,,90516,001,2022-04-29_12h55.41.084,SPAMnetsValid,2021.1.4,MacIntel,55.55555556,,,,,,,,,,,,,,,,,,,,,,,,,,,,,,,,,,,,,,,,,,,,,,,,,,,,,,,,,,,,,,,,,,,,,,,,,,,,,,,,,,,,,,,,,
,,1,1.563,1,1.563,0,57,57,37,1,139,carrot,strawberry,,90516,001,2022-04-29_12h55.41.084,SPAMnetsValid,2021.1.4,MacIntel,55.55555556,,,,,,,,,,,,,,,,,,,,,,,,,,,,,,,,,,,,,,,,,,,,,,,,,,,,,,,,,,,,,,,,,,,,,,,,,,,,,,,,,,,,,,,,,
,,1,1.637,1,1.637,0,58,58,22,1,142,garden,tree,,90516,001,2022-04-29_12h55.41.084,SPAMnetsValid,2021.1.4,MacIntel,55.55555556,,,,,,,,,,,,,,,,,,,,,,,,,,,,,,,,,,,,,,,,,,,,,,,,,,,,,,,,,,,,,,,,,,,,,,,,,,,,,,,,,,,,,,,,,
,,1,1.406,1,1.406,0,59,59,24,1,169,onion,yogurt,,90516,001,2022-04-29_12h55.41.084,SPAMnetsValid,2021.1.4,MacIntel,55.55555556,,,,,,,,,,,,,,,,,,,,,,,,,,,,,,,,,,,,,,,,,,,,,,,,,,,,,,,,,,,,,,,,,,,,,,,,,,,,,,,,,,,,,,,,,
,,1,1.444,1,1.444,0,60,60,41,1,175,melon,onion,,90516,001,2022-04-29_12h55.41.084,SPAMnetsValid,2021.1.4,MacIntel,55.55555556,,,,,,,,,,,,,,,,,,,,,,,,,,,,,,,,,,,,,,,,,,,,,,,,,,,,,,,,,,,,,,,,,,,,,,,,,,,,,,,,,,,,,,,,,
,,9,1.362,9,1.362,0,61,61,25,1,194,cactus,cactus,CHECK,90516,001,2022-04-29_12h55.41.084,SPAMnetsValid,2021.1.4,MacIntel,55.55555556,,,,,,,,,,,,,,,,,,,,,,,,,,,,,,,,,,,,,,,,,,,,,,,,,,,,,,,,,,,,,,,,,,,,,,,,,,,,,,,,,,,,,,,,,
,,1,3.046,1,3.046,0,62,62,96,1,136,chocolate,microwave,,90516,001,2022-04-29_12h55.41.084,SPAMnetsValid,2021.1.4,MacIntel,55.55555556,,,,,,,,,,,,,,,,,,,,,,,,,,,,,,,,,,,,,,,,,,,,,,,,,,,,,,,,,,,,,,,,,,,,,,,,,,,,,,,,,,,,,,,,,
,,1,3.624,1,3.624,0,63,63,16,1,111,carrot,microwave,,90516,001,2022-04-29_12h55.41.084,SPAMnetsValid,2021.1.4,MacIntel,55.55555556,,,,,,,,,,,,,,,,,,,,,,,,,,,,,,,,,,,,,,,,,,,,,,,,,,,,,,,,,,,,,,,,,,,,,,,,,,,,,,,,,,,,,,,,,
,,1,1.205,1,1.205,0,64,64,95,1,121,broom,microwave,,90516,001,2022-04-29_12h55.41.084,SPAMnetsValid,2021.1.4,MacIntel,55.55555556,,,,,,,,,,,,,,,,,,,,,,,,,,,,,,,,,,,,,,,,,,,,,,,,,,,,,,,,,,,,,,,,,,,,,,,,,,,,,,,,,,,,,,,,,
,,1,3.51,1,3.51,0,65,65,50,1,126,kitchen,tree,,90516,001,2022-04-29_12h55.41.084,SPAMnetsValid,2021.1.4,MacIntel,55.55555556,,,,,,,,,,,,,,,,,,,,,,,,,,,,,,,,,,,,,,,,,,,,,,,,,,,,,,,,,,,,,,,,,,,,,,,,,,,,,,,,,,,,,,,,,
,,2,2.764,2,2.764,0,66,66,19,1,183,cake,rose,,90516,001,2022-04-29_12h55.41.084,SPAMnetsValid,2021.1.4,MacIntel,55.55555556,,,,,,,,,,,,,,,,,,,,,,,,,,,,,,,,,,,,,,,,,,,,,,,,,,,,,,,,,,,,,,,,,,,,,,,,,,,,,,,,,,,,,,,,,
,,1,1.706,1,1.706,0,67,67,72,1,181,carrot,kitchen,,90516,001,2022-04-29_12h55.41.084,SPAMnetsValid,2021.1.4,MacIntel,55.55555556,,,,,,,,,,,,,,,,,,,,,,,,,,,,,,,,,,,,,,,,,,,,,,,,,,,,,,,,,,,,,,,,,,,,,,,,,,,,,,,,,,,,,,,,,
,,7,1.851,7,1.851,0,68,68,33,1,131,cactus,garden,,90516,001,2022-04-29_12h55.41.084,SPAMnetsValid,2021.1.4,MacIntel,55.55555556,,,,,,,,,,,,,,,,,,,,,,,,,,,,,,,,,,,,,,,,,,,,,,,,,,,,,,,,,,,,,,,,,,,,,,,,,,,,,,,,,,,,,,,,,
,,3,2.898,3,2.898,0,69,69,36,1,161,kitchen,pretzel,,90516,001,2022-04-29_12h55.41.084,SPAMnetsValid,2021.1.4,MacIntel,55.55555556,,,,,,,,,,,,,,,,,,,,,,,,,,,,,,,,,,,,,,,,,,,,,,,,,,,,,,,,,,,,,,,,,,,,,,,,,,,,,,,,,,,,,,,,,
,,1,1.546,1,1.546,0,70,70,71,1,187,cactus,microwave,,90516,001,2022-04-29_12h55.41.084,SPAMnetsValid,2021.1.4,MacIntel,55.55555556,,,,,,,,,,,,,,,,,,,,,,,,,,,,,,,,,,,,,,,,,,,,,,,,,,,,,,,,,,,,,,,,,,,,,,,,,,,,,,,,,,,,,,,,,
,,3,2.479,3,2.479,0,71,71,42,1,184,oven,pretzel,,90516,001,2022-04-29_12h55.41.084,SPAMnetsValid,2021.1.4,MacIntel,55.55555556,,,,,,,,,,,,,,,,,,,,,,,,,,,,,,,,,,,,,,,,,,,,,,,,,,,,,,,,,,,,,,,,,,,,,,,,,,,,,,,,,,,,,,,,,
,,5,1.966,5,1.966,0,72,72,89,1,140,cookie,refrigerator,,90516,001,2022-04-29_12h55.41.084,SPAMnetsValid,2021.1.4,MacIntel,55.55555556,,,,,,,,,,,,,,,,,,,,,,,,,,,,,,,,,,,,,,,,,,,,,,,,,,,,,,,,,,,,,,,,,,,,,,,,,,,,,,,,,,,,,,,,,
,,1,1.489,1,1.489,0,73,73,6,1,151,microwave,onion,,90516,001,2022-04-29_12h55.41.084,SPAMnetsValid,2021.1.4,MacIntel,55.55555556,,,,,,,,,,,,,,,,,,,,,,,,,,,,,,,,,,,,,,,,,,,,,,,,,,,,,,,,,,,,,,,,,,,,,,,,,,,,,,,,,,,,,,,,,
,,1,1.962,1,1.962,0,74,74,75,1,178,cactus,carrot,,90516,001,2022-04-29_12h55.41.084,SPAMnetsValid,2021.1.4,MacIntel,55.55555556,,,,,,,,,,,,,,,,,,,,,,,,,,,,,,,,,,,,,,,,,,,,,,,,,,,,,,,,,,,,,,,,,,,,,,,,,,,,,,,,,,,,,,,,,
,,4,4.743,4,4.743,0,75,75,10,1,118,chocolate,oven,,90516,001,2022-04-29_12h55.41.084,SPAMnetsValid,2021.1.4,MacIntel,55.55555556,,,,,,,,,,,,,,,,,,,,,,,,,,,,,,,,,,,,,,,,,,,,,,,,,,,,,,,,,,,,,,,,,,,,,,,,,,,,,,,,,,,,,,,,,
,,1,1.012,1,1.012,0,76,76,2,1,174,cake,pretzel,,90516,001,2022-04-29_12h55.41.084,SPAMnetsValid,2021.1.4,MacIntel,55.55555556,,,,,,,,,,,,,,,,,,,,,,,,,,,,,,,,,,,,,,,,,,,,,,,,,,,,,,,,,,,,,,,,,,,,,,,,,,,,,,,,,,,,,,,,,
,,1,1.645,1,1.645,0,77,77,20,1,149,broom,tomato,,90516,001,2022-04-29_12h55.41.084,SPAMnetsValid,2021.1.4,MacIntel,55.55555556,,,,,,,,,,,,,,,,,,,,,,,,,,,,,,,,,,,,,,,,,,,,,,,,,,,,,,,,,,,,,,,,,,,,,,,,,,,,,,,,,,,,,,,,,
,,1,1.433,1,1.433,0,78,78,9,1,176,cactus,tomato,,90516,001,2022-04-29_12h55.41.084,SPAMnetsValid,2021.1.4,MacIntel,55.55555556,,,,,,,,,,,,,,,,,,,,,,,,,,,,,,,,,,,,,,,,,,,,,,,,,,,,,,,,,,,,,,,,,,,,,,,,,,,,,,,,,,,,,,,,,
,,5,3.035,5,3.035,0,79,79,8,1,97,chocolate,kitchen,,90516,001,2022-04-29_12h55.41.084,SPAMnetsValid,2021.1.4,MacIntel,55.55555556,,,,,,,,,,,,,,,,,,,,,,,,,,,,,,,,,,,,,,,,,,,,,,,,,,,,,,,,,,,,,,,,,,,,,,,,,,,,,,,,,,,,,,,,,
,,6,2.446,6,2.446,0,80,80,17,1,99,garden,melon,,90516,001,2022-04-29_12h55.41.084,SPAMnetsValid,2021.1.4,MacIntel,55.55555556,,,,,,,,,,,,,,,,,,,,,,,,,,,,,,,,,,,,,,,,,,,,,,,,,,,,,,,,,,,,,,,,,,,,,,,,,,,,,,,,,,,,,,,,,
,,2,1.832,2,1.832,0,81,81,31,1,156,melon,rose,,90516,001,2022-04-29_12h55.41.084,SPAMnetsValid,2021.1.4,MacIntel,55.55555556,,,,,,,,,,,,,,,,,,,,,,,,,,,,,,,,,,,,,,,,,,,,,,,,,,,,,,,,,,,,,,,,,,,,,,,,,,,,,,,,,,,,,,,,,
,,1,1.564,1,1.564,0,82,82,23,1,148,flower,melon,,90516,001,2022-04-29_12h55.41.084,SPAMnetsValid,2021.1.4,MacIntel,55.55555556,,,,,,,,,,,,,,,,,,,,,,,,,,,,,,,,,,,,,,,,,,,,,,,,,,,,,,,,,,,,,,,,,,,,,,,,,,,,,,,,,,,,,,,,,
,,1,1.503,1,1.503,0,83,83,26,1,107,rose,tomato,,90516,001,2022-04-29_12h55.41.084,SPAMnetsValid,2021.1.4,MacIntel,55.55555556,,,,,,,,,,,,,,,,,,,,,,,,,,,,,,,,,,,,,,,,,,,,,,,,,,,,,,,,,,,,,,,,,,,,,,,,,,,,,,,,,,,,,,,,,
,,7,1.653,7,1.653,0,84,84,85,1,115,refrigerator,tomato,,90516,001,2022-04-29_12h55.41.084,SPAMnetsValid,2021.1.4,MacIntel,55.55555556,,,,,,,,,,,,,,,,,,,,,,,,,,,,,,,,,,,,,,,,,,,,,,,,,,,,,,,,,,,,,,,,,,,,,,,,,,,,,,,,,,,,,,,,,
,,9,1.18,9,1.18,0,85,85,44,1,116,cake,chocolate,,90516,001,2022-04-29_12h55.41.084,SPAMnetsValid,2021.1.4,MacIntel,55.55555556,,,,,,,,,,,,,,,,,,,,,,,,,,,,,,,,,,,,,,,,,,,,,,,,,,,,,,,,,,,,,,,,,,,,,,,,,,,,,,,,,,,,,,,,,
,,7,4.762,7,4.762,0,86,86,48,1,186,kitchen,yogurt,,90516,001,2022-04-29_12h55.41.084,SPAMnetsValid,2021.1.4,MacIntel,55.55555556,,,,,,,,,,,,,,,,,,,,,,,,,,,,,,,,,,,,,,,,,,,,,,,,,,,,,,,,,,,,,,,,,,,,,,,,,,,,,,,,,,,,,,,,,
,,1,1.164,1,1.164,0,87,87,12,1,162,microwave,tomato,,90516,001,2022-04-29_12h55.41.084,SPAMnetsValid,2021.1.4,MacIntel,55.55555556,,,,,,,,,,,,,,,,,,,,,,,,,,,,,,,,,,,,,,,,,,,,,,,,,,,,,,,,,,,,,,,,,,,,,,,,,,,,,,,,,,,,,,,,,
,,1,1.394,1,1.394,0,88,88,55,1,143,pretzel,rose,,90516,001,2022-04-29_12h55.41.084,SPAMnetsValid,2021.1.4,MacIntel,55.55555556,,,,,,,,,,,,,,,,,,,,,,,,,,,,,,,,,,,,,,,,,,,,,,,,,,,,,,,,,,,,,,,,,,,,,,,,,,,,,,,,,,,,,,,,,
,,1,1.758,1,1.758,0,89,89,59,1,164,cookie,garden,,90516,001,2022-04-29_12h55.41.084,SPAMnetsValid,2021.1.4,MacIntel,55.55555556,,,,,,,,,,,,,,,,,,,,,,,,,,,,,,,,,,,,,,,,,,,,,,,,,,,,,,,,,,,,,,,,,,,,,,,,,,,,,,,,,,,,,,,,,
,,1,1.618,1,1.618,0,90,90,30,1,125,carrot,tree,,90516,001,2022-04-29_12h55.41.084,SPAMnetsValid,2021.1.4,MacIntel,55.55555556,,,,,,,,,,,,,,,,,,,,,,,,,,,,,,,,,,,,,,,,,,,,,,,,,,,,,,,,,,,,,,,,,,,,,,,,,,,,,,,,,,,,,,,,,
,,1,1.559,1,1.559,0,91,91,49,1,152,cactus,strawberry,,90516,001,2022-04-29_12h55.41.084,SPAMnetsValid,2021.1.4,MacIntel,55.55555556,,,,,,,,,,,,,,,,,,,,,,,,,,,,,,,,,,,,,,,,,,,,,,,,,,,,,,,,,,,,,,,,,,,,,,,,,,,,,,,,,,,,,,,,,
,,8,1.71,8,1.71,0,92,92,29,1,163,melon,refrigerator,,90516,001,2022-04-29_12h55.41.084,SPAMnetsValid,2021.1.4,MacIntel,55.55555556,,,,,,,,,,,,,,,,,,,,,,,,,,,,,,,,,,,,,,,,,,,,,,,,,,,,,,,,,,,,,,,,,,,,,,,,,,,,,,,,,,,,,,,,,
,,1,1.211,1,1.211,0,93,93,21,1,159,cookie,flower,,90516,001,2022-04-29_12h55.41.084,SPAMnetsValid,2021.1.4,MacIntel,55.55555556,,,,,,,,,,,,,,,,,,,,,,,,,,,,,,,,,,,,,,,,,,,,,,,,,,,,,,,,,,,,,,,,,,,,,,,,,,,,,,,,,,,,,,,,,
,,1,1.269,1,1.269,0,94,94,51,1,168,cactus,flower,,90516,001,2022-04-29_12h55.41.084,SPAMnetsValid,2021.1.4,MacIntel,55.55555556,,,,,,,,,,,,,,,,,,,,,,,,,,,,,,,,,,,,,,,,,,,,,,,,,,,,,,,,,,,,,,,,,,,,,,,,,,,,,,,,,,,,,,,,,
,,1,5.444,1,5.444,0,95,95,63,1,137,microwave,tree,,90516,001,2022-04-29_12h55.41.084,SPAMnetsValid,2021.1.4,MacIntel,55.55555556,,,,,,,,,,,,,,,,,,,,,,,,,,,,,,,,,,,,,,,,,,,,,,,,,,,,,,,,,,,,,,,,,,,,,,,,,,,,,,,,,,,,,,,,,
,,8,2.321,8,2.321,0,96,96,27,1,158,cookie,oven,,90516,001,2022-04-29_12h55.41.084,SPAMnetsValid,2021.1.4,MacIntel,55.55555556,,,,,,,,,,,,,,,,,,,,,,,,,,,,,,,,,,,,,,,,,,,,,,,,,,,,,,,,,,,,,,,,,,,,,,,,,,,,,,,,,,,,,,,,,
,,,,,,,,,,,,,,,90516,001,2022-04-29_12h55.41.084,SPAMnetsValid,2021.1.4,MacIntel,55.55555556,0,0,0,0,1,,,,,,,,,,,,,,,,,,,,,,,,,,,,,,,,,,,,,,,,,,,,,,,,,,,,,,,,,,,,,,,,,,,,,,,,,,,,,,,,,,,,
,,,,,,,,,,,,,,,90516,001,2022-04-29_12h55.41.084,SPAMnetsValid,2021.1.4,MacIntel,55.55555556,,,,,,0,0,0,1,1,0,1,,,,,,,,,,,,,,,,,,,,,,,,,,,,,,,,,,,,,,,,,,,,,,,,,,,,,,,,,,,,,,,,,,,,,,,,,,,,,
,,,,1,13.519,,,,,,50,carrot,rose,,90516,001,2022-04-29_12h55.41.084,SPAMnetsValid,2021.1.4,MacIntel,55.55555556,,,,,,,,,,,,,1,13.519,0,0,0,73,1,,,,,,,,,,,,,,,,,,,,,,,,,,,,,,,,,,,,,,,,,,,,,,,,,,,,,,,,,,,,,,,,,,,,,,
,,,,1,5.463,,,,,,45,onion,pretzel,,90516,001,2022-04-29_12h55.41.084,SPAMnetsValid,2021.1.4,MacIntel,55.55555556,,,,,,,,,,,,,1,5.463,0,1,1,69,1,,,,,,,,,,,,,,,,,,,,,,,,,,,,,,,,,,,,,,,,,,,,,,,,,,,,,,,,,,,,,,,,,,,,,,
,,,,2,2.586,,,,,,65,broom,garden,,90516,001,2022-04-29_12h55.41.084,SPAMnetsValid,2021.1.4,MacIntel,55.55555556,,,,,,,,,,,,,2,2.586,0,2,2,23,1,,,,,,,,,,,,,,,,,,,,,,,,,,,,,,,,,,,,,,,,,,,,,,,,,,,,,,,,,,,,,,,,,,,,,,
,,,,1,6.107,,,,,,53,garden,pretzel,,90516,001,2022-04-29_12h55.41.084,SPAMnetsValid,2021.1.4,MacIntel,55.55555556,,,,,,,,,,,,,1,6.107,0,3,3,0,1,,,,,,,,,,,,,,,,,,,,,,,,,,,,,,,,,,,,,,,,,,,,,,,,,,,,,,,,,,,,,,,,,,,,,,
,,,,1,1.015,,,,,,83,broom,carrot,,90516,001,2022-04-29_12h55.41.084,SPAMnetsValid,2021.1.4,MacIntel,55.55555556,,,,,,,,,,,,,1,1.015,0,4,4,4,1,,,,,,,,,,,,,,,,,,,,,,,,,,,,,,,,,,,,,,,,,,,,,,,,,,,,,,,,,,,,,,,,,,,,,,
,,,,1,4.966,,,,,,2,kitchen,onion,,90516,001,2022-04-29_12h55.41.084,SPAMnetsValid,2021.1.4,MacIntel,55.55555556,,,,,,,,,,,,,1,4.966,0,5,5,91,1,,,,,,,,,,,,,,,,,,,,,,,,,,,,,,,,,,,,,,,,,,,,,,,,,,,,,,,,,,,,,,,,,,,,,,
,,,,7,3.379,,,,,,77,refrigerator,yogurt,,90516,001,2022-04-29_12h55.41.084,SPAMnetsValid,2021.1.4,MacIntel,55.55555556,,,,,,,,,,,,,7,3.379,0,6,6,42,1,,,,,,,,,,,,,,,,,,,,,,,,,,,,,,,,,,,,,,,,,,,,,,,,,,,,,,,,,,,,,,,,,,,,,,
,,,,1,2.267,,,,,,5,oven,tree,,90516,001,2022-04-29_12h55.41.084,SPAMnetsValid,2021.1.4,MacIntel,55.55555556,,,,,,,,,,,,,1,2.267,0,7,7,70,1,,,,,,,,,,,,,,,,,,,,,,,,,,,,,,,,,,,,,,,,,,,,,,,,,,,,,,,,,,,,,,,,,,,,,,
,,,,1,1.219,,,,,,73,broom,chocolate,,90516,001,2022-04-29_12h55.41.084,SPAMnetsValid,2021.1.4,MacIntel,55.55555556,,,,,,,,,,,,,1,1.219,0,8,8,47,1,,,,,,,,,,,,,,,,,,,,,,,,,,,,,,,,,,,,,,,,,,,,,,,,,,,,,,,,,,,,,,,,,,,,,,
,,,,1,1.391,,,,,,33,oven,yogurt,,90516,001,2022-04-29_12h55.41.084,SPAMnetsValid,2021.1.4,MacIntel,55.55555556,,,,,,,,,,,,,1,1.391,0,9,9,31,1,,,,,,,,,,,,,,,,,,,,,,,,,,,,,,,,,,,,,,,,,,,,,,,,,,,,,,,,,,,,,,,,,,,,,,
,,,,7,1.986,,,,,,66,melon,yogurt,,90516,001,2022-04-29_12h55.41.084,SPAMnetsValid,2021.1.4,MacIntel,55.55555556,,,,,,,,,,,,,7,1.986,0,10,10,48,1,,,,,,,,,,,,,,,,,,,,,,,,,,,,,,,,,,,,,,,,,,,,,,,,,,,,,,,,,,,,,,,,,,,,,,
,,,,1,1.278,,,,,,58,garden,oven,,90516,001,2022-04-29_12h55.41.084,SPAMnetsValid,2021.1.4,MacIntel,55.55555556,,,,,,,,,,,,,1,1.278,0,11,11,37,1,,,,,,,,,,,,,,,,,,,,,,,,,,,,,,,,,,,,,,,,,,,,,,,,,,,,,,,,,,,,,,,,,,,,,,
,,,,1,1.882,,,,,,44,cookie,melon,,90516,001,2022-04-29_12h55.41.084,SPAMnetsValid,2021.1.4,MacIntel,55.55555556,,,,,,,,,,,,,1,1.882,0,12,12,92,1,,,,,,,,,,,,,,,,,,,,,,,,,,,,,,,,,,,,,,,,,,,,,,,,,,,,,,,,,,,,,,,,,,,,,,
,,,,1,1.64,,,,,,25,carrot,onion,,90516,001,2022-04-29_12h55.41.084,SPAMnetsValid,2021.1.4,MacIntel,55.55555556,,,,,,,,,,,,,1,1.64,0,13,13,44,1,,,,,,,,,,,,,,,,,,,,,,,,,,,,,,,,,,,,,,,,,,,,,,,,,,,,,,,,,,,,,,,,,,,,,,
,,,,1,1.803,,,,,,52,carrot,tomato,,90516,001,2022-04-29_12h55.41.084,SPAMnetsValid,2021.1.4,MacIntel,55.55555556,,,,,,,,,,,,,1,1.803,0,14,14,95,1,,,,,,,,,,,,,,,,,,,,,,,,,,,,,,,,,,,,,,,,,,,,,,,,,,,,,,,,,,,,,,,,,,,,,,
,,,,1,1.643,,,,,,76,garden,rose,,90516,001,2022-04-29_12h55.41.084,SPAMnetsValid,2021.1.4,MacIntel,55.55555556,,,,,,,,,,,,,1,1.643,0,15,15,19,1,,,,,,,,,,,,,,,,,,,,,,,,,,,,,,,,,,,,,,,,,,,,,,,,,,,,,,,,,,,,,,,,,,,,,,
,,,,1,4.547,,,,,,7,melon,tree,,90516,001,2022-04-29_12h55.41.084,SPAMnetsValid,2021.1.4,MacIntel,55.55555556,,,,,,,,,,,,,1,4.547,0,16,16,77,1,,,,,,,,,,,,,,,,,,,,,,,,,,,,,,,,,,,,,,,,,,,,,,,,,,,,,,,,,,,,,,,,,,,,,,
,,,,1,2.063,,,,,,71,broom,rose,,90516,001,2022-04-29_12h55.41.084,SPAMnetsValid,2021.1.4,MacIntel,55.55555556,,,,,,,,,,,,,1,2.063,0,17,17,61,1,,,,,,,,,,,,,,,,,,,,,,,,,,,,,,,,,,,,,,,,,,,,,,,,,,,,,,,,,,,,,,,,,,,,,,
,,,,3,2.074,,,,,,18,onion,refrigerator,,90516,001,2022-04-29_12h55.41.084,SPAMnetsValid,2021.1.4,MacIntel,55.55555556,,,,,,,,,,,,,3,2.074,0,18,18,62,1,,,,,,,,,,,,,,,,,,,,,,,,,,,,,,,,,,,,,,,,,,,,,,,,,,,,,,,,,,,,,,,,,,,,,,
,,,,8,2.015,,,,,,36,broom,kitchen,,90516,001,2022-04-29_12h55.41.084,SPAMnetsValid,2021.1.4,MacIntel,55.55555556,,,,,,,,,,,,,8,2.015,0,19,19,76,1,,,,,,,,,,,,,,,,,,,,,,,,,,,,,,,,,,,,,,,,,,,,,,,,,,,,,,,,,,,,,,,,,,,,,,
,,,,1,1.69,,,,,,39,melon,pretzel,,90516,001,2022-04-29_12h55.41.084,SPAMnetsValid,2021.1.4,MacIntel,55.55555556,,,,,,,,,,,,,1,1.69,0,20,20,20,1,,,,,,,,,,,,,,,,,,,,,,,,,,,,,,,,,,,,,,,,,,,,,,,,,,,,,,,,,,,,,,,,,,,,,,
,,,,1,3.461,,,,,,17,carrot,melon,,90516,001,2022-04-29_12h55.41.084,SPAMnetsValid,2021.1.4,MacIntel,55.55555556,,,,,,,,,,,,,1,3.461,0,21,21,24,1,,,,,,,,,,,,,,,,,,,,,,,,,,,,,,,,,,,,,,,,,,,,,,,,,,,,,,,,,,,,,,,,,,,,,,
,,,,9,3.85,,,,,,9,kitchen,refrigerator,,90516,001,2022-04-29_12h55.41.084,SPAMnetsValid,2021.1.4,MacIntel,55.55555556,,,,,,,,,,,,,9,3.85,0,22,22,64,1,,,,,,,,,,,,,,,,,,,,,,,,,,,,,,,,,,,,,,,,,,,,,,,,,,,,,,,,,,,,,,,,,,,,,,
,,,,1,1.322,,,,,,8,broom,melon,,90516,001,2022-04-29_12h55.41.084,SPAMnetsValid,2021.1.4,MacIntel,55.55555556,,,,,,,,,,,,,1,1.322,0,23,23,59,1,,,,,,,,,,,,,,,,,,,,,,,,,,,,,,,,,,,,,,,,,,,,,,,,,,,,,,,,,,,,,,,,,,,,,,
,,,,5,4.383,,,,,,10,flower,onion,,90516,001,2022-04-29_12h55.41.084,SPAMnetsValid,2021.1.4,MacIntel,55.55555556,,,,,,,,,,,,,5,4.383,0,24,24,45,1,,,,,,,,,,,,,,,,,,,,,,,,,,,,,,,,,,,,,,,,,,,,,,,,,,,,,,,,,,,,,,,,,,,,,,
,,,,1,1.385,,,,,,41,broom,cactus,,90516,001,2022-04-29_12h55.41.084,SPAMnetsValid,2021.1.4,MacIntel,55.55555556,,,,,,,,,,,,,1,1.385,0,25,25,46,1,,,,,,,,,,,,,,,,,,,,,,,,,,,,,,,,,,,,,,,,,,,,,,,,,,,,,,,,,,,,,,,,,,,,,,
,,,,1,1.32,,,,,,1,rose,yogurt,,90516,001,2022-04-29_12h55.41.084,SPAMnetsValid,2021.1.4,MacIntel,55.55555556,,,,,,,,,,,,,1,1.32,0,26,26,55,1,,,,,,,,,,,,,,,,,,,,,,,,,,,,,,,,,,,,,,,,,,,,,,,,,,,,,,,,,,,,,,,,,,,,,,
,,,,1,1.228,,,,,,89,chocolate,rose,,90516,001,2022-04-29_12h55.41.084,SPAMnetsValid,2021.1.4,MacIntel,55.55555556,,,,,,,,,,,,,1,1.228,0,27,27,60,1,,,,,,,,,,,,,,,,,,,,,,,,,,,,,,,,,,,,,,,,,,,,,,,,,,,,,,,,,,,,,,,,,,,,,,
,,,,1,1.432,,,,,,38,pretzel,refrigerator,,90516,001,2022-04-29_12h55.41.084,SPAMnetsValid,2021.1.4,MacIntel,55.55555556,,,,,,,,,,,,,1,1.432,0,28,28,71,1,,,,,,,,,,,,,,,,,,,,,,,,,,,,,,,,,,,,,,,,,,,,,,,,,,,,,,,,,,,,,,,,,,,,,,
,,,,1,2.094,,,,,,84,oven,tomato,,90516,001,2022-04-29_12h55.41.084,SPAMnetsValid,2021.1.4,MacIntel,55.55555556,,,,,,,,,,,,,1,2.094,0,29,29,28,1,,,,,,,,,,,,,,,,,,,,,,,,,,,,,,,,,,,,,,,,,,,,,,,,,,,,,,,,,,,,,,,,,,,,,,
,,,,1,2.012,,,,,,49,flower,strawberry,,90516,001,2022-04-29_12h55.41.084,SPAMnetsValid,2021.1.4,MacIntel,55.55555556,,,,,,,,,,,,,1,2.012,0,30,30,3,1,,,,,,,,,,,,,,,,,,,,,,,,,,,,,,,,,,,,,,,,,,,,,,,,,,,,,,,,,,,,,,,,,,,,,,
,,,,1,2.004,,,,,,26,tomato,yogurt,,90516,001,2022-04-29_12h55.41.084,SPAMnetsValid,2021.1.4,MacIntel,55.55555556,,,,,,,,,,,,,1,2.004,0,31,31,13,1,,,,,,,,,,,,,,,,,,,,,,,,,,,,,,,,,,,,,,,,,,,,,,,,,,,,,,,,,,,,,,,,,,,,,,
,,,,1,1.447,,,,,,19,microwave,pretzel,,90516,001,2022-04-29_12h55.41.084,SPAMnetsValid,2021.1.4,MacIntel,55.55555556,,,,,,,,,,,,,1,1.447,0,32,32,41,1,,,,,,,,,,,,,,,,,,,,,,,,,,,,,,,,,,,,,,,,,,,,,,,,,,,,,,,,,,,,,,,,,,,,,,
,,,,1,1.672,,,,,,11,refrigerator,tree,,90516,001,2022-04-29_12h55.41.084,SPAMnetsValid,2021.1.4,MacIntel,55.55555556,,,,,,,,,,,,,1,1.672,0,33,33,43,1,,,,,,,,,,,,,,,,,,,,,,,,,,,,,,,,,,,,,,,,,,,,,,,,,,,,,,,,,,,,,,,,,,,,,,
,,,,2,2.736,,,,,,88,cactus,melon,,90516,001,2022-04-29_12h55.41.084,SPAMnetsValid,2021.1.4,MacIntel,55.55555556,,,,,,,,,,,,,2,2.736,0,34,34,38,1,,,,,,,,,,,,,,,,,,,,,,,,,,,,,,,,,,,,,,,,,,,,,,,,,,,,,,,,,,,,,,,,,,,,,,
,,,,3,2.831,,,,,,12,cookie,yogurt,,90516,001,2022-04-29_12h55.41.084,SPAMnetsValid,2021.1.4,MacIntel,55.55555556,,,,,,,,,,,,,3,2.831,0,35,35,36,1,,,,,,,,,,,,,,,,,,,,,,,,,,,,,,,,,,,,,,,,,,,,,,,,,,,,,,,,,,,,,,,,,,,,,,
,,,,1,1.006,,,,,,72,broom,onion,,90516,001,2022-04-29_12h55.41.084,SPAMnetsValid,2021.1.4,MacIntel,55.55555556,,,,,,,,,,,,,1,1.006,0,36,36,27,1,,,,,,,,,,,,,,,,,,,,,,,,,,,,,,,,,,,,,,,,,,,,,,,,,,,,,,,,,,,,,,,,,,,,,,
,,,,7,1.963,,,,,,56,cactus,tree,,90516,001,2022-04-29_12h55.41.084,SPAMnetsValid,2021.1.4,MacIntel,55.55555556,,,,,,,,,,,,,7,1.963,0,37,37,21,1,,,,,,,,,,,,,,,,,,,,,,,,,,,,,,,,,,,,,,,,,,,,,,,,,,,,,,,,,,,,,,,,,,,,,,
,,,,9,1.412,,,,,,22,kitchen,strawberry,,90516,001,2022-04-29_12h55.41.084,SPAMnetsValid,2021.1.4,MacIntel,55.55555556,,,,,,,,,,,,,9,1.412,0,38,38,2,1,,,,,,,,,,,,,,,,,,,,,,,,,,,,,,,,,,,,,,,,,,,,,,,,,,,,,,,,,,,,,,,,,,,,,,
,,,,1,1.593,,,,,,74,broom,pretzel,,90516,001,2022-04-29_12h55.41.084,SPAMnetsValid,2021.1.4,MacIntel,55.55555556,,,,,,,,,,,,,1,1.593,0,39,39,40,1,,,,,,,,,,,,,,,,,,,,,,,,,,,,,,,,,,,,,,,,,,,,,,,,,,,,,,,,,,,,,,,,,,,,,,
,,,,1,2.713,,,,,,43,chocolate,tomato,,90516,001,2022-04-29_12h55.41.084,SPAMnetsValid,2021.1.4,MacIntel,55.55555556,,,,,,,,,,,,,1,2.713,0,40,40,8,1,,,,,,,,,,,,,,,,,,,,,,,,,,,,,,,,,,,,,,,,,,,,,,,,,,,,,,,,,,,,,,,,,,,,,,
,,,,7,2.461,,,,,,87,carrot,yogurt,,90516,001,2022-04-29_12h55.41.084,SPAMnetsValid,2021.1.4,MacIntel,55.55555556,,,,,,,,,,,,,7,2.461,0,41,41,6,1,,,,,,,,,,,,,,,,,,,,,,,,,,,,,,,,,,,,,,,,,,,,,,,,,,,,,,,,,,,,,,,,,,,,,,
,,,,1,1.162,,,,,,51,onion,strawberry,,90516,001,2022-04-29_12h55.41.084,SPAMnetsValid,2021.1.4,MacIntel,55.55555556,,,,,,,,,,,,,1,1.162,0,42,42,86,1,,,,,,,,,,,,,,,,,,,,,,,,,,,,,,,,,,,,,,,,,,,,,,,,,,,,,,,,,,,,,,,,,,,,,,
,,,,1,1.477,,,,,,61,strawberry,tomato,,90516,001,2022-04-29_12h55.41.084,SPAMnetsValid,2021.1.4,MacIntel,55.55555556,,,,,,,,,,,,,1,1.477,0,43,43,80,1,,,,,,,,,,,,,,,,,,,,,,,,,,,,,,,,,,,,,,,,,,,,,,,,,,,,,,,,,,,,,,,,,,,,,,
,,,,1,1.271,,,,,,78,cookie,rose,,90516,001,2022-04-29_12h55.41.084,SPAMnetsValid,2021.1.4,MacIntel,55.55555556,,,,,,,,,,,,,1,1.271,0,44,44,56,1,,,,,,,,,,,,,,,,,,,,,,,,,,,,,,,,,,,,,,,,,,,,,,,,,,,,,,,,,,,,,,,,,,,,,,
,,,,1,1.178,,,,,,13,broom,yogurt,,90516,001,2022-04-29_12h55.41.084,SPAMnetsValid,2021.1.4,MacIntel,55.55555556,,,,,,,,,,,,,1,1.178,0,45,45,5,1,,,,,,,,,,,,,,,,,,,,,,,,,,,,,,,,,,,,,,,,,,,,,,,,,,,,,,,,,,,,,,,,,,,,,,
,,,,1,1.385,,,,,,37,garden,refrigerator,,90516,001,2022-04-29_12h55.41.084,SPAMnetsValid,2021.1.4,MacIntel,55.55555556,,,,,,,,,,,,,1,1.385,0,46,46,11,1,,,,,,,,,,,,,,,,,,,,,,,,,,,,,,,,,,,,,,,,,,,,,,,,,,,,,,,,,,,,,,,,,,,,,,
,,,,7,3.28,,,,,,28,cake,melon,,90516,001,2022-04-29_12h55.41.084,SPAMnetsValid,2021.1.4,MacIntel,55.55555556,,,,,,,,,,,,,7,3.28,0,47,47,54,1,,,,,,,,,,,,,,,,,,,,,,,,,,,,,,,,,,,,,,,,,,,,,,,,,,,,,,,,,,,,,,,,,,,,,,
,,,,1,1.454,,,,,,40,broom,cake,,90516,001,2022-04-29_12h55.41.084,SPAMnetsValid,2021.1.4,MacIntel,55.55555556,,,,,,,,,,,,,1,1.454,0,48,48,32,1,,,,,,,,,,,,,,,,,,,,,,,,,,,,,,,,,,,,,,,,,,,,,,,,,,,,,,,,,,,,,,,,,,,,,,
,,,,1,1.495,,,,,,31,cactus,pretzel,,90516,001,2022-04-29_12h55.41.084,SPAMnetsValid,2021.1.4,MacIntel,55.55555556,,,,,,,,,,,,,1,1.495,0,49,49,1,1,,,,,,,,,,,,,,,,,,,,,,,,,,,,,,,,,,,,,,,,,,,,,,,,,,,,,,,,,,,,,,,,,,,,,,
,,,,9,1.707,,,,,,54,chocolate,yogurt,,90516,001,2022-04-29_12h55.41.084,SPAMnetsValid,2021.1.4,MacIntel,55.55555556,,,,,,,,,,,,,9,1.707,0,50,50,67,1,,,,,,,,,,,,,,,,,,,,,,,,,,,,,,,,,,,,,,,,,,,,,,,,,,,,,,,,,,,,,,,,,,,,,,
,,,,9,1.175,,,,,,82,cake,kitchen,,90516,001,2022-04-29_12h55.41.084,SPAMnetsValid,2021.1.4,MacIntel,55.55555556,,,,,,,,,,,,,9,1.175,0,51,51,96,1,,,,,,,,,,,,,,,,,,,,,,,,,,,,,,,,,,,,,,,,,,,,,,,,,,,,,,,,,,,,,,,,,,,,,,
,,,,1,1.489,,,,,,16,chocolate,flower,,90516,001,2022-04-29_12h55.41.084,SPAMnetsValid,2021.1.4,MacIntel,55.55555556,,,,,,,,,,,,,1,1.489,0,52,52,22,1,,,,,,,,,,,,,,,,,,,,,,,,,,,,,,,,,,,,,,,,,,,,,,,,,,,,,,,,,,,,,,,,,,,,,,
,,,,1,1.417,,,,,,85,cake,tree,,90516,001,2022-04-29_12h55.41.084,SPAMnetsValid,2021.1.4,MacIntel,55.55555556,,,,,,,,,,,,,1,1.417,0,53,53,18,1,,,,,,,,,,,,,,,,,,,,,,,,,,,,,,,,,,,,,,,,,,,,,,,,,,,,,,,,,,,,,,,,,,,,,,
,,,,9,2.227,,,,,,47,onion,tomato,,90516,001,2022-04-29_12h55.41.084,SPAMnetsValid,2021.1.4,MacIntel,55.55555556,,,,,,,,,,,,,9,2.227,0,54,54,51,1,,,,,,,,,,,,,,,,,,,,,,,,,,,,,,,,,,,,,,,,,,,,,,,,,,,,,,,,,,,,,,,,,,,,,,
,,,,1,2.486,,,,,,14,broom,cookie,,90516,001,2022-04-29_12h55.41.084,SPAMnetsValid,2021.1.4,MacIntel,55.55555556,,,,,,,,,,,,,1,2.486,0,55,55,16,1,,,,,,,,,,,,,,,,,,,,,,,,,,,,,,,,,,,,,,,,,,,,,,,,,,,,,,,,,,,,,,,,,,,,,,
,,,,1,1.828,,,,,,42,garden,kitchen,,90516,001,2022-04-29_12h55.41.084,SPAMnetsValid,2021.1.4,MacIntel,55.55555556,,,,,,,,,,,,,1,1.828,0,56,56,29,1,,,,,,,,,,,,,,,,,,,,,,,,,,,,,,,,,,,,,,,,,,,,,,,,,,,,,,,,,,,,,,,,,,,,,,
,,,,6,4.229,,,,,,46,garden,yogurt,,90516,001,2022-04-29_12h55.41.084,SPAMnetsValid,2021.1.4,MacIntel,55.55555556,,,,,,,,,,,,,6,4.229,0,57,57,65,1,,,,,,,,,,,,,,,,,,,,,,,,,,,,,,,,,,,,,,,,,,,,,,,,,,,,,,,,,,,,,,,,,,,,,,
,,,,1,1.82,,,,,,80,chocolate,tree,,90516,001,2022-04-29_12h55.41.084,SPAMnetsValid,2021.1.4,MacIntel,55.55555556,,,,,,,,,,,,,1,1.82,0,58,58,89,1,,,,,,,,,,,,,,,,,,,,,,,,,,,,,,,,,,,,,,,,,,,,,,,,,,,,,,,,,,,,,,,,,,,,,,
,,,,1,1.402,,,,,,27,cactus,cookie,,90516,001,2022-04-29_12h55.41.084,SPAMnetsValid,2021.1.4,MacIntel,55.55555556,,,,,,,,,,,,,1,1.402,0,59,59,17,1,,,,,,,,,,,,,,,,,,,,,,,,,,,,,,,,,,,,,,,,,,,,,,,,,,,,,,,,,,,,,,,,,,,,,,
,,,,9,2.921,,,,,,3,cake,oven,,90516,001,2022-04-29_12h55.41.084,SPAMnetsValid,2021.1.4,MacIntel,55.55555556,,,,,,,,,,,,,9,2.921,0,60,60,30,1,,,,,,,,,,,,,,,,,,,,,,,,,,,,,,,,,,,,,,,,,,,,,,,,,,,,,,,,,,,,,,,,,,,,,,
,,,,9,2.338,,,,,,79,garden,strawberry,,90516,001,2022-04-29_12h55.41.084,SPAMnetsValid,2021.1.4,MacIntel,55.55555556,,,,,,,,,,,,,9,2.338,0,61,61,87,1,,,,,,,,,,,,,,,,,,,,,,,,,,,,,,,,,,,,,,,,,,,,,,,,,,,,,,,,,,,,,,,,,,,,,,
,,,,1,1.481,,,,,,90,cactus,cake,,90516,001,2022-04-29_12h55.41.084,SPAMnetsValid,2021.1.4,MacIntel,55.55555556,,,,,,,,,,,,,1,1.481,0,62,62,85,1,,,,,,,,,,,,,,,,,,,,,,,,,,,,,,,,,,,,,,,,,,,,,,,,,,,,,,,,,,,,,,,,,,,,,,
,,,,1,1.607,,,,,,29,chocolate,melon,,90516,001,2022-04-29_12h55.41.084,SPAMnetsValid,2021.1.4,MacIntel,55.55555556,,,,,,,,,,,,,1,1.607,0,63,63,34,1,,,,,,,,,,,,,,,,,,,,,,,,,,,,,,,,,,,,,,,,,,,,,,,,,,,,,,,,,,,,,,,,,,,,,,
,,,,9,1.277,,,,,,69,carrot,refrigerator,,90516,001,2022-04-29_12h55.41.084,SPAMnetsValid,2021.1.4,MacIntel,55.55555556,,,,,,,,,,,,,9,1.277,0,64,64,75,1,,,,,,,,,,,,,,,,,,,,,,,,,,,,,,,,,,,,,,,,,,,,,,,,,,,,,,,,,,,,,,,,,,,,,,
,,,,1,1.505,,,,,,20,rose,tree,,90516,001,2022-04-29_12h55.41.084,SPAMnetsValid,2021.1.4,MacIntel,55.55555556,,,,,,,,,,,,,1,1.505,0,65,65,66,1,,,,,,,,,,,,,,,,,,,,,,,,,,,,,,,,,,,,,,,,,,,,,,,,,,,,,,,,,,,,,,,,,,,,,,
,,,,1,1.598,,,,,,55,tomato,tree,,90516,001,2022-04-29_12h55.41.084,SPAMnetsValid,2021.1.4,MacIntel,55.55555556,,,,,,,,,,,,,1,1.598,0,66,66,35,1,,,,,,,,,,,,,,,,,,,,,,,,,,,,,,,,,,,,,,,,,,,,,,,,,,,,,,,,,,,,,,,,,,,,,,
,,,,9,1.532,,,,,,191,cake,cake,CHECK,90516,001,2022-04-29_12h55.41.084,SPAMnetsValid,2021.1.4,MacIntel,55.55555556,,,,,,,,,,,,,9,1.532,0,67,67,10,1,,,,,,,,,,,,,,,,,,,,,,,,,,,,,,,,,,,,,,,,,,,,,,,,,,,,,,,,,,,,,,,,,,,,,,
,,,,1,3.485,,,,,,75,cookie,onion,,90516,001,2022-04-29_12h55.41.084,SPAMnetsValid,2021.1.4,MacIntel,55.55555556,,,,,,,,,,,,,1,3.485,0,68,68,9,1,,,,,,,,,,,,,,,,,,,,,,,,,,,,,,,,,,,,,,,,,,,,,,,,,,,,,,,,,,,,,,,,,,,,,,
,,,,1,2.336,,,,,,91,microwave,rose,,90516,001,2022-04-29_12h55.41.084,SPAMnetsValid,2021.1.4,MacIntel,55.55555556,,,,,,,,,,,,,1,2.336,0,69,69,84,1,,,,,,,,,,,,,,,,,,,,,,,,,,,,,,,,,,,,,,,,,,,,,,,,,,,,,,,,,,,,,,,,,,,,,,
,,,,3,4.639,,,,,,64,chocolate,garden,,90516,001,2022-04-29_12h55.41.084,SPAMnetsValid,2021.1.4,MacIntel,55.55555556,,,,,,,,,,,,,3,4.639,0,70,70,14,1,,,,,,,,,,,,,,,,,,,,,,,,,,,,,,,,,,,,,,,,,,,,,,,,,,,,,,,,,,,,,,,,,,,,,,
,,,,1,1.219,,,,,,95,broom,refrigerator,,90516,001,2022-04-29_12h55.41.084,SPAMnetsValid,2021.1.4,MacIntel,55.55555556,,,,,,,,,,,,,1,1.219,0,71,71,90,1,,,,,,,,,,,,,,,,,,,,,,,,,,,,,,,,,,,,,,,,,,,,,,,,,,,,,,,,,,,,,,,,,,,,,,
,,,,3,3.573,,,,,,32,cake,microwave,,90516,001,2022-04-29_12h55.41.084,SPAMnetsValid,2021.1.4,MacIntel,55.55555556,,,,,,,,,,,,,3,3.573,0,72,72,33,1,,,,,,,,,,,,,,,,,,,,,,,,,,,,,,,,,,,,,,,,,,,,,,,,,,,,,,,,,,,,,,,,,,,,,,
,,,,9,5.061,,,,,,94,kitchen,microwave,,90516,001,2022-04-29_12h55.41.084,SPAMnetsValid,2021.1.4,MacIntel,55.55555556,,,,,,,,,,,,,9,5.061,0,73,73,58,1,,,,,,,,,,,,,,,,,,,,,,,,,,,,,,,,,,,,,,,,,,,,,,,,,,,,,,,,,,,,,,,,,,,,,,
,,,,1,2.737,,,,,,86,oven,rose,,90516,001,2022-04-29_12h55.41.084,SPAMnetsValid,2021.1.4,MacIntel,55.55555556,,,,,,,,,,,,,1,2.737,0,74,74,79,1,,,,,,,,,,,,,,,,,,,,,,,,,,,,,,,,,,,,,,,,,,,,,,,,,,,,,,,,,,,,,,,,,,,,,,
,,,,4,1.929,,,,,,21,cake,onion,,90516,001,2022-04-29_12h55.41.084,SPAMnetsValid,2021.1.4,MacIntel,55.55555556,,,,,,,,,,,,,4,1.929,0,75,75,63,1,,,,,,,,,,,,,,,,,,,,,,,,,,,,,,,,,,,,,,,,,,,,,,,,,,,,,,,,,,,,,,,,,,,,,,
,,,,6,2.266,,,,,,30,cookie,pretzel,,90516,001,2022-04-29_12h55.41.084,SPAMnetsValid,2021.1.4,MacIntel,55.55555556,,,,,,,,,,,,,6,2.266,0,76,76,78,1,,,,,,,,,,,,,,,,,,,,,,,,,,,,,,,,,,,,,,,,,,,,,,,,,,,,,,,,,,,,,,,,,,,,,,
,,,,9,2.07,,,,,,93,kitchen,oven,,90516,001,2022-04-29_12h55.41.084,SPAMnetsValid,2021.1.4,MacIntel,55.55555556,,,,,,,,,,,,,9,2.07,0,77,77,82,1,,,,,,,,,,,,,,,,,,,,,,,,,,,,,,,,,,,,,,,,,,,,,,,,,,,,,,,,,,,,,,,,,,,,,,
,,,,9,2.231,,,,,,4,chocolate,pretzel,,90516,001,2022-04-29_12h55.41.084,SPAMnetsValid,2021.1.4,MacIntel,55.55555556,,,,,,,,,,,,,9,2.231,0,78,78,52,1,,,,,,,,,,,,,,,,,,,,,,,,,,,,,,,,,,,,,,,,,,,,,,,,,,,,,,,,,,,,,,,,,,,,,,
,,,,9,1.438,,,,,,192,microwave,microwave,CHECK,90516,001,2022-04-29_12h55.41.084,SPAMnetsValid,2021.1.4,MacIntel,55.55555556,,,,,,,,,,,,,9,1.438,0,79,79,53,1,,,,,,,,,,,,,,,,,,,,,,,,,,,,,,,,,,,,,,,,,,,,,,,,,,,,,,,,,,,,,,,,,,,,,,
,,,,1,3.301,,,,,,24,cookie,tomato,,90516,001,2022-04-29_12h55.41.084,SPAMnetsValid,2021.1.4,MacIntel,55.55555556,,,,,,,,,,,,,1,3.301,0,80,80,68,1,,,,,,,,,,,,,,,,,,,,,,,,,,,,,,,,,,,,,,,,,,,,,,,,,,,,,,,,,,,,,,,,,,,,,,
,,,,1,13.631,,,,,,59,rose,strawberry,,90516,001,2022-04-29_12h55.41.084,SPAMnetsValid,2021.1.4,MacIntel,55.55555556,,,,,,,,,,,,,1,13.631,0,81,81,72,1,,,,,,,,,,,,,,,,,,,,,,,,,,,,,,,,,,,,,,,,,,,,,,,,,,,,,,,,,,,,,,,,,,,,,,
,,,,3,1.345,,,,,,35,flower,pretzel,,90516,001,2022-04-29_12h55.41.084,SPAMnetsValid,2021.1.4,MacIntel,55.55555556,,,,,,,,,,,,,3,1.345,0,82,82,26,1,,,,,,,,,,,,,,,,,,,,,,,,,,,,,,,,,,,,,,,,,,,,,,,,,,,,,,,,,,,,,,,,,,,,,,
,,,,3,3.139,,,,,,23,flower,microwave,,90516,001,2022-04-29_12h55.41.084,SPAMnetsValid,2021.1.4,MacIntel,55.55555556,,,,,,,,,,,,,3,3.139,0,83,83,25,1,,,,,,,,,,,,,,,,,,,,,,,,,,,,,,,,,,,,,,,,,,,,,,,,,,,,,,,,,,,,,,,,,,,,,,
,,,,9,3.919,,,,,,6,garden,onion,,90516,001,2022-04-29_12h55.41.084,SPAMnetsValid,2021.1.4,MacIntel,55.55555556,,,,,,,,,,,,,9,3.919,0,84,84,83,1,,,,,,,,,,,,,,,,,,,,,,,,,,,,,,,,,,,,,,,,,,,,,,,,,,,,,,,,,,,,,,,,,,,,,,
,,,,1,1.858,,,,,,48,flower,oven,,90516,001,2022-04-29_12h55.41.084,SPAMnetsValid,2021.1.4,MacIntel,55.55555556,,,,,,,,,,,,,1,1.858,0,85,85,15,1,,,,,,,,,,,,,,,,,,,,,,,,,,,,,,,,,,,,,,,,,,,,,,,,,,,,,,,,,,,,,,,,,,,,,,
,,,,1,2.582,,,,,,34,melon,oven,,90516,001,2022-04-29_12h55.41.084,SPAMnetsValid,2021.1.4,MacIntel,55.55555556,,,,,,,,,,,,,1,2.582,0,86,86,7,1,,,,,,,,,,,,,,,,,,,,,,,,,,,,,,,,,,,,,,,,,,,,,,,,,,,,,,,,,,,,,,,,,,,,,,
,,,,1,1.336,,,,,,60,cactus,onion,,90516,001,2022-04-29_12h55.41.084,SPAMnetsValid,2021.1.4,MacIntel,55.55555556,,,,,,,,,,,,,1,1.336,0,87,87,81,1,,,,,,,,,,,,,,,,,,,,,,,,,,,,,,,,,,,,,,,,,,,,,,,,,,,,,,,,,,,,,,,,,,,,,,
,,,,1,1.599,,,,,,67,flower,yogurt,,90516,001,2022-04-29_12h55.41.084,SPAMnetsValid,2021.1.4,MacIntel,55.55555556,,,,,,,,,,,,,1,1.599,0,88,88,12,1,,,,,,,,,,,,,,,,,,,,,,,,,,,,,,,,,,,,,,,,,,,,,,,,,,,,,,,,,,,,,,,,,,,,,,
,,,,1,1.315,,,,,,68,flower,tomato,,90516,001,2022-04-29_12h55.41.084,SPAMnetsValid,2021.1.4,MacIntel,55.55555556,,,,,,,,,,,,,1,1.315,0,89,89,94,1,,,,,,,,,,,,,,,,,,,,,,,,,,,,,,,,,,,,,,,,,,,,,,,,,,,,,,,,,,,,,,,,,,,,,,
,,,,1,1.339,,,,,,92,broom,flower,,90516,001,2022-04-29_12h55.41.084,SPAMnetsValid,2021.1.4,MacIntel,55.55555556,,,,,,,,,,,,,1,1.339,0,90,90,88,1,,,,,,,,,,,,,,,,,,,,,,,,,,,,,,,,,,,,,,,,,,,,,,,,,,,,,,,,,,,,,,,,,,,,,,
,,,,1,1.349,,,,,,62,kitchen,rose,,90516,001,2022-04-29_12h55.41.084,SPAMnetsValid,2021.1.4,MacIntel,55.55555556,,,,,,,,,,,,,1,1.349,0,91,91,57,1,,,,,,,,,,,,,,,,,,,,,,,,,,,,,,,,,,,,,,,,,,,,,,,,,,,,,,,,,,,,,,,,,,,,,,
,,,,1,1.22,,,,,,70,chocolate,onion,,90516,001,2022-04-29_12h55.41.084,SPAMnetsValid,2021.1.4,MacIntel,55.55555556,,,,,,,,,,,,,1,1.22,0,92,92,74,1,,,,,,,,,,,,,,,,,,,,,,,,,,,,,,,,,,,,,,,,,,,,,,,,,,,,,,,,,,,,,,,,,,,,,,
,,,,9,1.464,,,,,,63,cake,cookie,,90516,001,2022-04-29_12h55.41.084,SPAMnetsValid,2021.1.4,MacIntel,55.55555556,,,,,,,,,,,,,9,1.464,0,93,93,93,1,,,,,,,,,,,,,,,,,,,,,,,,,,,,,,,,,,,,,,,,,,,,,,,,,,,,,,,,,,,,,,,,,,,,,,
,,,,3,5.509,,,,,,57,flower,kitchen,,90516,001,2022-04-29_12h55.41.084,SPAMnetsValid,2021.1.4,MacIntel,55.55555556,,,,,,,,,,,,,3,5.509,0,94,94,49,1,,,,,,,,,,,,,,,,,,,,,,,,,,,,,,,,,,,,,,,,,,,,,,,,,,,,,,,,,,,,,,,,,,,,,,
,,,,4,3.177,,,,,,81,pretzel,yogurt,,90516,001,2022-04-29_12h55.41.084,SPAMnetsValid,2021.1.4,MacIntel,55.55555556,,,,,,,,,,,,,4,3.177,0,95,95,50,1,,,,,,,,,,,,,,,,,,,,,,,,,,,,,,,,,,,,,,,,,,,,,,,,,,,,,,,,,,,,,,,,,,,,,,
,,,,1,1.604,,,,,,15,onion,oven,,90516,001,2022-04-29_12h55.41.084,SPAMnetsValid,2021.1.4,MacIntel,55.55555556,,,,,,,,,,,,,1,1.604,0,96,96,39,1,,,,,,,,,,,,,,,,,,,,,,,,,,,,,,,,,,,,,,,,,,,,,,,,,,,,,,,,,,,,,,,,,,,,,,
,,,,,,,,,,,,,,,90516,001,2022-04-29_12h55.41.084,SPAMnetsValid,2021.1.4,MacIntel,55.55555556,,,,,,,,,,,,,,,,,,,,0,0,0,0,1,,,,,,,,,,,,,,,,,,,,,,,,,,,,,,,,,,,,,,,,,,,,,,,,,,,,,,,,,,,,,,,,,
,,,,,,,,,,,,,,,90516,001,2022-04-29_12h55.41.084,SPAMnetsValid,2021.1.4,MacIntel,55.55555556,,,,,,0,1,1,0,1,1,0,,,,,,,,,,,,,,,,,,,,,,,,,,,,,,,,,,,,,,,,,,,,,,,,,,,,,,,,,,,,,,,,,,,,,,,,,,,,,
,,,,,,,,,,,,,,,90516,001,2022-04-29_12h55.41.084,SPAMnetsValid,2021.1.4,MacIntel,55.55555556,,,,,,,,,,,,,,,,,,,,,,,,,3,6.778,0,0,0,0,1,rancor,forbearance,ridicule,malice,bravery,3,,,,,,,,,,,,,,,,,,,,,,,,,,,,,,,,,,,,,,,,,,,,,,,,,,,,
,,,,,,,,,,,,,,,90516,001,2022-04-29_12h55.41.084,SPAMnetsValid,2021.1.4,MacIntel,55.55555556,,,,,,,,,,,,,,,,,,,,,,,,,4,8.14,0,1,1,1,1,raucous,empty,quiet,smooth,harsh,4,,,,,,,,,,,,,,,,,,,,,,,,,,,,,,,,,,,,,,,,,,,,,,,,,,,,
,,,,,,,,,,,,,,,90516,001,2022-04-29_12h55.41.084,SPAMnetsValid,2021.1.4,MacIntel,55.55555556,,,,,,,,,,,,,,,,,,,,,,,,,4,4.52,0,2,2,2,1,gargoyle,oil,medicine,carved waterspout,ugly building,3,,,,,,,,,,,,,,,,,,,,,,,,,,,,,,,,,,,,,,,,,,,,,,,,,,,,
,,,,,,,,,,,,,,,90516,001,2022-04-29_12h55.41.084,SPAMnetsValid,2021.1.4,MacIntel,55.55555556,,,,,,,,,,,,,,,,,,,,,,,,,2,7.156,0,3,3,3,1,recrudesce,purify,renew activity,lack refinement,crush,2,,,,,,,,,,,,,,,,,,,,,,,,,,,,,,,,,,,,,,,,,,,,,,,,,,,,
,,,,,,,,,,,,,,,90516,001,2022-04-29_12h55.41.084,SPAMnetsValid,2021.1.4,MacIntel,55.55555556,,,,,,,,,,,,,,,,,,,,,,,,,4,10.897,0,4,4,4,1,specious,"plausible, but not genuine",noteworthy,class or variety,roomy,1,,,,,,,,,,,,,,,,,,,,,,,,,,,,,,,,,,,,,,,,,,,,,,,,,,,,
,,,,,,,,,,,,,,,90516,001,2022-04-29_12h55.41.084,SPAMnetsValid,2021.1.4,MacIntel,55.55555556,,,,,,,,,,,,,,,,,,,,,,,,,2,5.039,0,5,5,5,1,bauble,bubble,showy plaything,idle talk,confusion,2,,,,,,,,,,,,,,,,,,,,,,,,,,,,,,,,,,,,,,,,,,,,,,,,,,,,
,,,,,,,,,,,,,,,90516,001,2022-04-29_12h55.41.084,SPAMnetsValid,2021.1.4,MacIntel,55.55555556,,,,,,,,,,,,,,,,,,,,,,,,,4,3.703,0,6,6,6,1,prolific,scarce,producing abundantly,reckless,speaking profanely,2,,,,,,,,,,,,,,,,,,,,,,,,,,,,,,,,,,,,,,,,,,,,,,,,,,,,
,,,,,,,,,,,,,,,90516,001,2022-04-29_12h55.41.084,SPAMnetsValid,2021.1.4,MacIntel,55.55555556,,,,,,,,,,,,,,,,,,,,,,,,,3,5.804,0,7,7,7,1,opulent,party,wealthy,happy frame of mind,semiprecious stone,2,,,,,,,,,,,,,,,,,,,,,,,,,,,,,,,,,,,,,,,,,,,,,,,,,,,,
,,,,,,,,,,,,,,,90516,001,2022-04-29_12h55.41.084,SPAMnetsValid,2021.1.4,MacIntel,55.55555556,,,,,,,,,,,,,,,,,,,,,,,,,2,10.963,0,8,8,8,1,coercion,conspiracy,strategy,restraint,attraction,3,,,,,,,,,,,,,,,,,,,,,,,,,,,,,,,,,,,,,,,,,,,,,,,,,,,,
,,,,,,,,,,,,,,,90516,001,2022-04-29_12h55.41.084,SPAMnetsValid,2021.1.4,MacIntel,55.55555556,,,,,,,,,,,,,,,,,,,,,,,,,4,3.653,0,9,9,9,1,hiatus,animal,calamity,dread,gap,4,,,,,,,,,,,,,,,,,,,,,,,,,,,,,,,,,,,,,,,,,,,,,,,,,,,,
,,,,,,,,,,,,,,,90516,001,2022-04-29_12h55.41.084,SPAMnetsValid,2021.1.4,MacIntel,55.55555556,,,,,,,,,,,,,,,,,,,,,,,,,2,2.974,0,10,10,10,1,germane,microbe,contagious,relevant,different,3,,,,,,,,,,,,,,,,,,,,,,,,,,,,,,,,,,,,,,,,,,,,,,,,,,,,
,,,,,,,,,,,,,,,90516,001,2022-04-29_12h55.41.084,SPAMnetsValid,2021.1.4,MacIntel,55.55555556,,,,,,,,,,,,,,,,,,,,,,,,,3,3.099,0,11,11,11,1,perfunctory,fundamental,formal,superficial,careful,3,,,,,,,,,,,,,,,,,,,,,,,,,,,,,,,,,,,,,,,,,,,,,,,,,,,,
,,,,,,,,,,,,,,,90516,001,2022-04-29_12h55.41.084,SPAMnetsValid,2021.1.4,MacIntel,55.55555556,,,,,,,,,,,,,,,,,,,,,,,,,4,3.296,0,12,12,12,1,diverge,reveal,chant,distract the attention of,differ or turn off from,4,,,,,,,,,,,,,,,,,,,,,,,,,,,,,,,,,,,,,,,,,,,,,,,,,,,,
,,,,,,,,,,,,,,,90516,001,2022-04-29_12h55.41.084,SPAMnetsValid,2021.1.4,MacIntel,55.55555556,,,,,,,,,,,,,,,,,,,,,,,,,4,3.712,0,13,13,13,1,evoke,take away,anger,connect,bring out,4,,,,,,,,,,,,,,,,,,,,,,,,,,,,,,,,,,,,,,,,,,,,,,,,,,,,
,,,,,,,,,,,,,,,90516,001,2022-04-29_12h55.41.084,SPAMnetsValid,2021.1.4,MacIntel,55.55555556,,,,,,,,,,,,,,,,,,,,,,,,,3,2.637,0,14,14,14,1,pertinent,relevant,lying next to,necessary,bold,1,,,,,,,,,,,,,,,,,,,,,,,,,,,,,,,,,,,,,,,,,,,,,,,,,,,,
,,,,,,,,,,,,,,,90516,001,2022-04-29_12h55.41.084,SPAMnetsValid,2021.1.4,MacIntel,55.55555556,,,,,,,,,,,,,,,,,,,,,,,,,2,3.193,0,15,15,15,1,holocaust,entirety,destruction,saintly,price,2,,,,,,,,,,,,,,,,,,,,,,,,,,,,,,,,,,,,,,,,,,,,,,,,,,,,
,,,,,,,,,,,,,,,90516,001,2022-04-29_12h55.41.084,SPAMnetsValid,2021.1.4,MacIntel,55.55555556,,,,,,,,,,,,,,,,,,,,,,,,,1,4.187,0,16,16,16,1,piquant,mellow,fish,pungent,cloth,3,,,,,,,,,,,,,,,,,,,,,,,,,,,,,,,,,,,,,,,,,,,,,,,,,,,,
,,,,,,,,,,,,,,,90516,001,2022-04-29_12h55.41.084,SPAMnetsValid,2021.1.4,MacIntel,55.55555556,,,,,,,,,,,,,,,,,,,,,,,,,1,3.865,0,17,17,17,1,firmament,foundation,heavens,strong,glue,2,,,,,,,,,,,,,,,,,,,,,,,,,,,,,,,,,,,,,,,,,,,,,,,,,,,,
,,,,,,,,,,,,,,,90516,001,2022-04-29_12h55.41.084,SPAMnetsValid,2021.1.4,MacIntel,55.55555556,,,,,,,,,,,,,,,,,,,,,,,,,,,,,,,,,,,,,,3,5.118,0,0,0,0,1,marketable,partisan,jocular,marriageable,salable,essential,4,,,,,,,,,,,,,,,,,,,,,,,,,,,,,,,,,,,,,,
,,,,,,,,,,,,,,,90516,001,2022-04-29_12h55.41.084,SPAMnetsValid,2021.1.4,MacIntel,55.55555556,,,,,,,,,,,,,,,,,,,,,,,,,,,,,,,,,,,,,,5,2.837,0,1,1,1,1,cottontail,squirrel,poplar,boa,marshy plant,rabbit,5,,,,,,,,,,,,,,,,,,,,,,,,,,,,,,,,,,,,,,
,,,,,,,,,,,,,,,90516,001,2022-04-29_12h55.41.084,SPAMnetsValid,2021.1.4,MacIntel,55.55555556,,,,,,,,,,,,,,,,,,,,,,,,,,,,,,,,,,,,,,3,3.646,0,2,2,2,1,boggy,afraid,false,marshy,dense,black,3,,,,,,,,,,,,,,,,,,,,,,,,,,,,,,,,,,,,,,
,,,,,,,,,,,,,,,90516,001,2022-04-29_12h55.41.084,SPAMnetsValid,2021.1.4,MacIntel,55.55555556,,,,,,,,,,,,,,,,,,,,,,,,,,,,,,,,,,,,,,4,5.52,0,3,3,3,1,gruesomeness,blackness,falseness,vindictiveness,drunkenness,ghastliness,5,,,,,,,,,,,,,,,,,,,,,,,,,,,,,,,,,,,,,,
,,,,,,,,,,,,,,,90516,001,2022-04-29_12h55.41.084,SPAMnetsValid,2021.1.4,MacIntel,55.55555556,,,,,,,,,,,,,,,,,,,,,,,,,,,,,,,,,,,,,,1,9.104,0,4,4,4,1,loathing,diffidence,laziness,abhorrence,cleverness,comfort,3,,,,,,,,,,,,,,,,,,,,,,,,,,,,,,,,,,,,,,
,,,,,,,,,,,,,,,90516,001,2022-04-29_12h55.41.084,SPAMnetsValid,2021.1.4,MacIntel,55.55555556,,,,,,,,,,,,,,,,,,,,,,,,,,,,,,,,,,,,,,2,4.318,0,5,5,5,1,bantam,fowl,ridicule,cripple,vegetable,ensign,1,,,,,,,,,,,,,,,,,,,,,,,,,,,,,,,,,,,,,,
,,,,,,,,,,,,,,,90516,001,2022-04-29_12h55.41.084,SPAMnetsValid,2021.1.4,MacIntel,55.55555556,,,,,,,,,,,,,,,,,,,,,,,,,,,,,,,,,,,,,,5,3.406,0,6,6,6,1,evoke,wake up,surrender,reconnoiter,transcend,call forth,5,,,,,,,,,,,,,,,,,,,,,,,,,,,,,,,,,,,,,,
,,,,,,,,,,,,,,,90516,001,2022-04-29_12h55.41.084,SPAMnetsValid,2021.1.4,MacIntel,55.55555556,,,,,,,,,,,,,,,,,,,,,,,,,,,,,,,,,,,,,,5,4.124,0,7,7,7,1,unobtrusive,unintelligent,epileptic,illogical,lineal,modest,5,,,,,,,,,,,,,,,,,,,,,,,,,,,,,,,,,,,,,,
,,,,,,,,,,,,,,,90516,001,2022-04-29_12h55.41.084,SPAMnetsValid,2021.1.4,MacIntel,55.55555556,,,,,,,,,,,,,,,,,,,,,,,,,,,,,,,,,,,,,,4,2.902,0,8,8,8,1,terrain,ice cream,final test,tractor,area of ground,weight,4,,,,,,,,,,,,,,,,,,,,,,,,,,,,,,,,,,,,,,
,,,,,,,,,,,,,,,90516,001,2022-04-29_12h55.41.084,SPAMnetsValid,2021.1.4,MacIntel,55.55555556,,,,,,,,,,,,,,,,,,,,,,,,,,,,,,,,,,,,,,3,3.614,0,9,9,9,1,capriciousness,stubbornness,courage,whimsicality,amazement,greediness,3,,,,,,,,,,,,,,,,,,,,,,,,,,,,,,,,,,,,,,
,,,,,,,,,,,,,,,90516,001,2022-04-29_12h55.41.084,SPAMnetsValid,2021.1.4,MacIntel,55.55555556,,,,,,,,,,,,,,,,,,,,,,,,,,,,,,,,,,,,,,3,4.152,0,10,10,10,1,maelstrom,slander,whirlpool,enmity,armor,majolica,2,,,,,,,,,,,,,,,,,,,,,,,,,,,,,,,,,,,,,,
,,,,,,,,,,,,,,,90516,001,2022-04-29_12h55.41.084,SPAMnetsValid,2021.1.4,MacIntel,55.55555556,,,,,,,,,,,,,,,,,,,,,,,,,,,,,,,,,,,,,,5,3.264,0,11,11,11,1,tentative,critical,conclusive,authentic,provisional,apprehensive,4,,,,,,,,,,,,,,,,,,,,,,,,,,,,,,,,,,,,,,
,,,,,,,,,,,,,,,90516,001,2022-04-29_12h55.41.084,SPAMnetsValid,2021.1.4,MacIntel,55.55555556,,,,,,,,,,,,,,,,,,,,,,,,,,,,,,,,,,,,,,3,2.933,0,12,12,12,1,placate,rehabilitate,plagiarize,depredate,apprise,conciliate,5,,,,,,,,,,,,,,,,,,,,,,,,,,,,,,,,,,,,,,
,,,,,,,,,,,,,,,90516,001,2022-04-29_12h55.41.084,SPAMnetsValid,2021.1.4,MacIntel,55.55555556,,,,,,,,,,,,,,,,,,,,,,,,,,,,,,,,,,,,,,4,2.454,0,13,13,13,1,surcease,enlightenment,cessation,inattention,censor,substitution,2,,,,,,,,,,,,,,,,,,,,,,,,,,,,,,,,,,,,,,
,,,,,,,,,,,,,,,90516,001,2022-04-29_12h55.41.084,SPAMnetsValid,2021.1.4,MacIntel,55.55555556,,,,,,,,,,,,,,,,,,,,,,,,,,,,,,,,,,,,,,3,5.681,0,14,14,14,1,apathetic,wandering,impassive,hateful,prophetic,overflowing,2,,,,,,,,,,,,,,,,,,,,,,,,,,,,,,,,,,,,,,
,,,,,,,,,,,,,,,90516,001,2022-04-29_12h55.41.084,SPAMnetsValid,2021.1.4,MacIntel,55.55555556,,,,,,,,,,,,,,,,,,,,,,,,,,,,,,,,,,,,,,5,5.848,0,15,15,15,1,paternoster,paternalism,patricide,malediction,benediction,prayer,5,,,,,,,,,,,,,,,,,,,,,,,,,,,,,,,,,,,,,,
,,,,,,,,,,,,,,,90516,001,2022-04-29_12h55.41.084,SPAMnetsValid,2021.1.4,MacIntel,55.55555556,,,,,,,,,,,,,,,,,,,,,,,,,,,,,,,,,,,,,,1,2.5,0,16,16,16,1,opalescence,opulence,senescence,bankruptcy,iridescence,assiduity,4,,,,,,,,,,,,,,,,,,,,,,,,,,,,,,,,,,,,,,
,,,,,,,,,,,,,,,90516,001,2022-04-29_12h55.41.084,SPAMnetsValid,2021.1.4,MacIntel,55.55555556,,,,,,,,,,,,,,,,,,,,,,,,,,,,,,,,,,,,,,2,2.987,0,17,17,17,1,lush,stupid,luxurious,hazy,putrid,languishing,2,,,,,,,,,,,,,,,,,,,,,,,,,,,,,,,,,,,,,,
,,,,,,,,,,,,,,,90516,001,2022-04-29_12h55.41.084,SPAMnetsValid,2021.1.4,MacIntel,55.55555556,,,,,,,,,,,,,,,,,,,,,,,,,,,,,,,,,,,,,,2,5.443,0,18,18,18,1,curtailment,expenditure,abandonment,abridgment,improvement,forgery,3,,,,,,,,,,,,,,,,,,,,,,,,,,,,,,,,,,,,,,
,,,,,,,,,,,,,,,90516,001,2022-04-29_12h55.41.084,SPAMnetsValid,2021.1.4,MacIntel,55.55555556,,,,,,,,,,,,,,,,,,,,,,,,,,,,,,,,,,,,,,2,3.595,0,19,19,19,1,perversity,adversity,perviousness,travesty,waywardness,gentility,4,,,,,,,,,,,,,,,,,,,,,,,,,,,,,,,,,,,,,,
,,,,,,,,,,,,,,,90516,001,2022-04-29_12h55.41.084,SPAMnetsValid,2021.1.4,MacIntel,55.55555556,,,,,,,,,,,,,,,,,,,,,,,,,,,,,,,,,,,,,,1,3.119,0,20,20,20,1,calumnious,complimentary,analogous,slanderous,tempestuous,magnanimous,3,,,,,,,,,,,,,,,,,,,,,,,,,,,,,,,,,,,,,,
,,,,,,,,,,,,,,,90516,001,2022-04-29_12h55.41.084,SPAMnetsValid,2021.1.4,MacIntel,55.55555556,,,,,,,,,,,,,,,,,,,,,,,,,,,,,,,,,,,,,,5,6.503,0,21,21,21,1,illiberality,bigotry,imbecility,illegibility,cautery,immaturity,1,,,,,,,,,,,,,,,,,,,,,,,,,,,,,,,,,,,,,,
,,,,,,,,,,,,,,,90516,001,2022-04-29_12h55.41.084,SPAMnetsValid,2021.1.4,MacIntel,55.55555556,,,,,,,,,,,,,,,,,,,,,,,,,,,,,,,,,,,,,,3,2.471,0,22,22,22,1,clabber,rejoice,gossip,curdle,crow,hobble,3,,,,,,,,,,,,,,,,,,,,,,,,,,,,,,,,,,,,,,
,,,,,,,,,,,,,,,90516,001,2022-04-29_12h55.41.084,SPAMnetsValid,2021.1.4,MacIntel,55.55555556,,,,,,,,,,,,,,,,,,,,,,,,,,,,,,,,,,,,,,3,70.127,0,23,23,23,1,sedulousness,diligence,credulousness,seduction,perilousness,frankness,1,,,,,,,,,,,,,,,,,,,,,,,,,,,,,,,,,,,,,,
,,,,,,,,,,,,,,,90516,001,2022-04-29_12h55.41.084,SPAMnetsValid,2021.1.4,MacIntel,55.55555556,,,,,,,,,,,,,,,,,,,,,,,,,,,,,,,,,,,,,,,,,,,,,,,,,,,,sleeping,pillow,0,0,0,0,1,,,,,,,,,,,,,,,,,,,,,,,,,,,,,,,
,,,,,,,,,,,,,,,90516,001,2022-04-29_12h55.41.084,SPAMnetsValid,2021.1.4,MacIntel,55.55555556,,,,,,,,,,,,,,,,,,,,,,,,,,,,,,,,,,,,,,,,,,,,,,,,,,,,pillow fighting,pillow,1,0,1,0,1,,,,,,,,,,,,,,,,,,,,,,,,,,,,,,,
,,,,,,,,,,,,,,,90516,001,2022-04-29_12h55.41.084,SPAMnetsValid,2021.1.4,MacIntel,55.55555556,,,,,,,,,,,,,,,,,,,,,,,,,,,,,,,,,,,,,,,,,,,,,,,,,,,,making a fort,pillow,2,0,2,0,1,,,,,,,,,,,,,,,,,,,,,,,,,,,,,,,
,,,,,,,,,,,,,,,90516,001,2022-04-29_12h55.41.084,SPAMnetsValid,2021.1.4,MacIntel,55.55555556,,,,,,,,,,,,,,,,,,,,,,,,,,,,,,,,,,,,,,,,,,,,,,,,,,,,making an obstacle course,pillow,3,0,3,0,1,,,,,,,,,,,,,,,,,,,,,,,,,,,,,,,
,,,,,,,,,,,,,,,90516,001,2022-04-29_12h55.41.084,SPAMnetsValid,2021.1.4,MacIntel,55.55555556,,,,,,,,,,,,,,,,,,,,,,,,,,,,,,,,,,,,,,,,,,,,,,,,,,,,using it as cover in a playful battle,pillow,4,0,4,0,1,,,,,,,,,,,,,,,,,,,,,,,,,,,,,,,
,,,,,,,,,,,,,,,90516,001,2022-04-29_12h55.41.084,SPAMnetsValid,2021.1.4,MacIntel,55.55555556,,,,,,,,,,,,,,,,,,,,,,,,,,,,,,,,,,,,,,,,,,,,,,,,,,,,,pillow,5,0,5,0,1,,,,,,,,,,,,,,,,,,,,,,,,,,,,,,,
,,,,,,,,,,,,,,,90516,001,2022-04-29_12h55.41.084,SPAMnetsValid,2021.1.4,MacIntel,55.55555556,,,,,,,,,,,,,,,,,,,,,,,,,,,,,,,,,,,,,,,,,,,,,,,,,,,,make it into a bed for a pet,pillow,6,0,6,0,1,,,,,,,,,,,,,,,,,,,,,,,,,,,,,,,
,,,,,,,,,,,,,,,90516,001,2022-04-29_12h55.41.084,SPAMnetsValid,2021.1.4,MacIntel,55.55555556,,,,,,,,,,,,,,,,,,,,,,,,,,,,,,,,,,,,,,,,,,,,,,,,,,,,recycle if old,pillow,7,0,7,0,1,,,,,,,,,,,,,,,,,,,,,,,,,,,,,,,
,,,,,,,,,,,,,,,90516,001,2022-04-29_12h55.41.084,SPAMnetsValid,2021.1.4,MacIntel,55.55555556,,,,,,,,,,,,,,,,,,,,,,,,,,,,,,,,,,,,,,,,,,,,,,,,,,,,,pillow,8,0,8,0,1,,,,,,,,,,,,,,,,,,,,,,,,,,,,,,,
,,,,,,,,,,,,,,,90516,001,2022-04-29_12h55.41.084,SPAMnetsValid,2021.1.4,MacIntel,55.55555556,,,,,,,,,,,,,,,,,,,,,,,,,,,,,,,,,,,,,,,,,,,,,,,,,,,,,pillow,9,0,9,0,1,,,,,,,,,,,,,,,,,,,,,,,,,,,,,,,
,,,,,,,,,,,,,,,90516,001,2022-04-29_12h55.41.084,SPAMnetsValid,2021.1.4,MacIntel,55.55555556,,,,,,,,,,,,,,,,,,,,,,,,,,,,,,,,,,,,,,,,,,,,,,,,,,,,,pillow,10,0,10,0,1,,,,,,,,,,,,,,,,,,,,,,,,,,,,,,,
,,,,,,,,,,,,,,,90516,001,2022-04-29_12h55.41.084,SPAMnetsValid,2021.1.4,MacIntel,55.55555556,,,,,,,,,,,,,,,,,,,,,,,,,,,,,,,,,,,,,,,,,,,,,,,,,,,,,pillow,11,0,11,0,1,,,,,,,,,,,,,,,,,,,,,,,,,,,,,,,
,,,,,,,,,,,,,,,90516,001,2022-04-29_12h55.41.084,SPAMnetsValid,2021.1.4,MacIntel,55.55555556,,,,,,,,,,,,,,,,,,,,,,,,,,,,,,,,,,,,,,,,,,,,,,,,,,,,,pillow,12,0,12,0,1,,,,,,,,,,,,,,,,,,,,,,,,,,,,,,,
,,,,,,,,,,,,,,,90516,001,2022-04-29_12h55.41.084,SPAMnetsValid,2021.1.4,MacIntel,55.55555556,,,,,,,,,,,,,,,,,,,,,,,,,,,,,,,,,,,,,,,,,,,,,,,,,,,,,pillow,13,0,13,0,1,,,,,,,,,,,,,,,,,,,,,,,,,,,,,,,
,,,,,,,,,,,,,,,90516,001,2022-04-29_12h55.41.084,SPAMnetsValid,2021.1.4,MacIntel,55.55555556,,,,,,,,,,,,,,,,,,,,,,,,,,,,,,,,,,,,,,,,,,,,,,,,,,,,,pillow,14,0,14,0,1,,,,,,,,,,,,,,,,,,,,,,,,,,,,,,,
,,,,,,,,,,,,,,,90516,001,2022-04-29_12h55.41.084,SPAMnetsValid,2021.1.4,MacIntel,55.55555556,,,,,,,,,,,,,,,,,,,,,,,,,,,,,,,,,,,,,,,,,,,,,,,,,,,,,pillow,15,0,15,0,1,,,,,,,,,,,,,,,,,,,,,,,,,,,,,,,
,,,,,,,,,,,,,,,90516,001,2022-04-29_12h55.41.084,SPAMnetsValid,2021.1.4,MacIntel,55.55555556,,,,,,,,,,,,,,,,,,,,,,,,,,,,,,,,,,,,,,,,,,,,,,,,,,,,,pillow,16,0,16,0,1,,,,,,,,,,,,,,,,,,,,,,,,,,,,,,,
,,,,,,,,,,,,,,,90516,001,2022-04-29_12h55.41.084,SPAMnetsValid,2021.1.4,MacIntel,55.55555556,,,,,,,,,,,,,,,,,,,,,,,,,,,,,,,,,,,,,,,,,,,,,,,,,,,,,pillow,17,0,17,0,1,,,,,,,,,,,,,,,,,,,,,,,,,,,,,,,
,,,,,,,,,,,,,,,90516,001,2022-04-29_12h55.41.084,SPAMnetsValid,2021.1.4,MacIntel,55.55555556,,,,,,,,,,,,,,,,,,,,,,,,,,,,,,,,,,,,,,,,,,,,,,,,,,,,,pillow,18,0,18,0,1,,,,,,,,,,,,,,,,,,,,,,,,,,,,,,,
,,,,,,,,,,,,,,,90516,001,2022-04-29_12h55.41.084,SPAMnetsValid,2021.1.4,MacIntel,55.55555556,,,,,,,,,,,,,,,,,,,,,,,,,,,,,,,,,,,,,,,,,,,,,,,,,,,,,pillow,19,0,19,0,1,,,,,,,,,,,,,,,,,,,,,,,,,,,,,,,
,,,,,,,,,,,,,,,90516,001,2022-04-29_12h55.41.084,SPAMnetsValid,2021.1.4,MacIntel,55.55555556,,,,,,,,,,,,,,,,,,,,,,,,,,,,,,,,,,,,,,,,,,,,,,,,,,,,,pillow,20,0,20,0,1,,,,,,,,,,,,,,,,,,,,,,,,,,,,,,,
,,,,,,,,,,,,,,,90516,001,2022-04-29_12h55.41.084,SPAMnetsValid,2021.1.4,MacIntel,55.55555556,,,,,,,,,,,,,,,,,,,,,,,,,,,,,,,,,,,,,,,,,,,,,,,,,,,,,pillow,21,0,21,0,1,,,,,,,,,,,,,,,,,,,,,,,,,,,,,,,
,,,,,,,,,,,,,,,90516,001,2022-04-29_12h55.41.084,SPAMnetsValid,2021.1.4,MacIntel,55.55555556,,,,,,,,,,,,,,,,,,,,,,,,,,,,,,,,,,,,,,,,,,,,,,,,,,,,,pillow,22,0,22,0,1,,,,,,,,,,,,,,,,,,,,,,,,,,,,,,,
,,,,,,,,,,,,,,,90516,001,2022-04-29_12h55.41.084,SPAMnetsValid,2021.1.4,MacIntel,55.55555556,,,,,,,,,,,,,,,,,,,,,,,,,,,,,,,,,,,,,,,,,,,,,,,,,,,,,pillow,23,0,23,0,1,,,,,,,,,,,,,,,,,,,,,,,,,,,,,,,
,,,,,,,,,,,,,,,90516,001,2022-04-29_12h55.41.084,SPAMnetsValid,2021.1.4,MacIntel,55.55555556,,,,,,,,,,,,,,,,,,,,,,,,,,,,,,,,,,,,,,,,,,,,,,,,,,,,use the pillow case for storage,pillow,24,0,24,0,1,,,,,,,,,,,,,,,,,,,,,,,,,,,,,,,
,,,,,,,,,,,,,,,90516,001,2022-04-29_12h55.41.084,SPAMnetsValid,2021.1.4,MacIntel,55.55555556,,,,,,,,,,,,,,,,,,,,,,,,,,,,,,,,,,,,,,,,,,,,,,,,,,,,use the pillow case as a back pack,pillow,25,0,25,0,1,,,,,,,,,,,,,,,,,,,,,,,,,,,,,,,
,,,,,,,,,,,,,,,90516,001,2022-04-29_12h55.41.084,SPAMnetsValid,2021.1.4,MacIntel,55.55555556,,,,,,,,,,,,,,,,,,,,,,,,,,,,,,,,,,,,,,,,,,,,,,,,,,,,,,,,,,,0,0,0,2,1,pillow,,,,,,,,,,,,,,,,,,,,,,,,,
,,,,,,,,,,,,,,,90516,001,2022-04-29_12h55.41.084,SPAMnetsValid,2021.1.4,MacIntel,55.55555556,,,,,,,,,,,,,,,,,,,,,,,,,,,,,,,,,,,,,,,,,,,,,,,,,,,,holding items,bucket,0,0,0,0,1,,,,,,,,,,,,,,,,,,,,,,,,,,,,,,,
,,,,,,,,,,,,,,,90516,001,2022-04-29_12h55.41.084,SPAMnetsValid,2021.1.4,MacIntel,55.55555556,,,,,,,,,,,,,,,,,,,,,,,,,,,,,,,,,,,,,,,,,,,,,,,,,,,,hat,bucket,1,0,1,0,1,,,,,,,,,,,,,,,,,,,,,,,,,,,,,,,
,,,,,,,,,,,,,,,90516,001,2022-04-29_12h55.41.084,SPAMnetsValid,2021.1.4,MacIntel,55.55555556,,,,,,,,,,,,,,,,,,,,,,,,,,,,,,,,,,,,,,,,,,,,,,,,,,,,a basket for basketball,bucket,2,0,2,0,1,,,,,,,,,,,,,,,,,,,,,,,,,,,,,,,
,,,,,,,,,,,,,,,90516,001,2022-04-29_12h55.41.084,SPAMnetsValid,2021.1.4,MacIntel,55.55555556,,,,,,,,,,,,,,,,,,,,,,,,,,,,,,,,,,,,,,,,,,,,,,,,,,,,recycle the plastic,bucket,3,0,3,0,1,,,,,,,,,,,,,,,,,,,,,,,,,,,,,,,
,,,,,,,,,,,,,,,90516,001,2022-04-29_12h55.41.084,SPAMnetsValid,2021.1.4,MacIntel,55.55555556,,,,,,,,,,,,,,,,,,,,,,,,,,,,,,,,,,,,,,,,,,,,,,,,,,,,donate it,bucket,4,0,4,0,1,,,,,,,,,,,,,,,,,,,,,,,,,,,,,,,
,,,,,,,,,,,,,,,90516,001,2022-04-29_12h55.41.084,SPAMnetsValid,2021.1.4,MacIntel,55.55555556,,,,,,,,,,,,,,,,,,,,,,,,,,,,,,,,,,,,,,,,,,,,,,,,,,,,,,,,,,,0,1,1,0,1,bucket,,,,,,,,,,,,,,,,,,,,,,,,,
,,,,,,,,,,,,,,,90516,001,2022-04-29_12h55.41.084,SPAMnetsValid,2021.1.4,MacIntel,55.55555556,,,,,,,,,,,,,,,,,,,,,,,,,,,,,,,,,,,,,,,,,,,,,,,,,,,,add more decorations to a room,candle,0,0,0,0,1,,,,,,,,,,,,,,,,,,,,,,,,,,,,,,,
,,,,,,,,,,,,,,,90516,001,2022-04-29_12h55.41.084,SPAMnetsValid,2021.1.4,MacIntel,55.55555556,,,,,,,,,,,,,,,,,,,,,,,,,,,,,,,,,,,,,,,,,,,,,,,,,,,,make a room smell better,candle,1,0,1,0,1,,,,,,,,,,,,,,,,,,,,,,,,,,,,,,,
,,,,,,,,,,,,,,,90516,001,2022-04-29_12h55.41.084,SPAMnetsValid,2021.1.4,MacIntel,55.55555556,,,,,,,,,,,,,,,,,,,,,,,,,,,,,,,,,,,,,,,,,,,,,,,,,,,,melt the wax and reuse it,candle,2,0,2,0,1,,,,,,,,,,,,,,,,,,,,,,,,,,,,,,,
,,,,,,,,,,,,,,,90516,001,2022-04-29_12h55.41.084,SPAMnetsValid,2021.1.4,MacIntel,55.55555556,,,,,,,,,,,,,,,,,,,,,,,,,,,,,,,,,,,,,,,,,,,,,,,,,,,,give them out as gifts,candle,3,0,3,0,1,,,,,,,,,,,,,,,,,,,,,,,,,,,,,,,
,,,,,,,,,,,,,,,90516,001,2022-04-29_12h55.41.084,SPAMnetsValid,2021.1.4,MacIntel,55.55555556,,,,,,,,,,,,,,,,,,,,,,,,,,,,,,,,,,,,,,,,,,,,,,,,,,,,,,,,,,,0,2,2,1,1,candle,,,,,,,,,,,,,,,,,,,,,,,,,
,,,,,,,,,,,,,,,90516,001,2022-04-29_12h55.41.084,SPAMnetsValid,2021.1.4,MacIntel,55.55555556,,,,,,,,,,,,,,,,,,,,,,,,,,,,,,,,,,,,,,,,,,,,,,,,,,,,,,,,,,,,,,,,,bird,Animals,0,0,0,0,1,,,,,,,,,,,,,,,,,,
,,,,,,,,,,,,,,,90516,001,2022-04-29_12h55.41.084,SPAMnetsValid,2021.1.4,MacIntel,55.55555556,,,,,,,,,,,,,,,,,,,,,,,,,,,,,,,,,,,,,,,,,,,,,,,,,,,,,,,,,,,,,,,,,dog,Animals,1,0,1,0,1,,,,,,,,,,,,,,,,,,
,,,,,,,,,,,,,,,90516,001,2022-04-29_12h55.41.084,SPAMnetsValid,2021.1.4,MacIntel,55.55555556,,,,,,,,,,,,,,,,,,,,,,,,,,,,,,,,,,,,,,,,,,,,,,,,,,,,,,,,,,,,,,,,,cat,Animals,2,0,2,0,1,,,,,,,,,,,,,,,,,,
,,,,,,,,,,,,,,,90516,001,2022-04-29_12h55.41.084,SPAMnetsValid,2021.1.4,MacIntel,55.55555556,,,,,,,,,,,,,,,,,,,,,,,,,,,,,,,,,,,,,,,,,,,,,,,,,,,,,,,,,,,,,,,,,bear,Animals,3,0,3,0,1,,,,,,,,,,,,,,,,,,
,,,,,,,,,,,,,,,90516,001,2022-04-29_12h55.41.084,SPAMnetsValid,2021.1.4,MacIntel,55.55555556,,,,,,,,,,,,,,,,,,,,,,,,,,,,,,,,,,,,,,,,,,,,,,,,,,,,,,,,,,,,,,,,,duck,Animals,4,0,4,0,1,,,,,,,,,,,,,,,,,,
,,,,,,,,,,,,,,,90516,001,2022-04-29_12h55.41.084,SPAMnetsValid,2021.1.4,MacIntel,55.55555556,,,,,,,,,,,,,,,,,,,,,,,,,,,,,,,,,,,,,,,,,,,,,,,,,,,,,,,,,,,,,,,,,frog,Animals,5,0,5,0,1,,,,,,,,,,,,,,,,,,
,,,,,,,,,,,,,,,90516,001,2022-04-29_12h55.41.084,SPAMnetsValid,2021.1.4,MacIntel,55.55555556,,,,,,,,,,,,,,,,,,,,,,,,,,,,,,,,,,,,,,,,,,,,,,,,,,,,,,,,,,,,,,,,,bunny,Animals,6,0,6,0,1,,,,,,,,,,,,,,,,,,
,,,,,,,,,,,,,,,90516,001,2022-04-29_12h55.41.084,SPAMnetsValid,2021.1.4,MacIntel,55.55555556,,,,,,,,,,,,,,,,,,,,,,,,,,,,,,,,,,,,,,,,,,,,,,,,,,,,,,,,,,,,,,,,,mouse,Animals,7,0,7,0,1,,,,,,,,,,,,,,,,,,
,,,,,,,,,,,,,,,90516,001,2022-04-29_12h55.41.084,SPAMnetsValid,2021.1.4,MacIntel,55.55555556,,,,,,,,,,,,,,,,,,,,,,,,,,,,,,,,,,,,,,,,,,,,,,,,,,,,,,,,,,,,,,,,,squirrel,Animals,8,0,8,0,1,,,,,,,,,,,,,,,,,,
,,,,,,,,,,,,,,,90516,001,2022-04-29_12h55.41.084,SPAMnetsValid,2021.1.4,MacIntel,55.55555556,,,,,,,,,,,,,,,,,,,,,,,,,,,,,,,,,,,,,,,,,,,,,,,,,,,,,,,,,,,,,,,,,elephant,Animals,9,0,9,0,1,,,,,,,,,,,,,,,,,,
,,,,,,,,,,,,,,,90516,001,2022-04-29_12h55.41.084,SPAMnetsValid,2021.1.4,MacIntel,55.55555556,,,,,,,,,,,,,,,,,,,,,,,,,,,,,,,,,,,,,,,,,,,,,,,,,,,,,,,,,,,,,,,,,girrafe,Animals,10,0,10,0,1,,,,,,,,,,,,,,,,,,
,,,,,,,,,,,,,,,90516,001,2022-04-29_12h55.41.084,SPAMnetsValid,2021.1.4,MacIntel,55.55555556,,,,,,,,,,,,,,,,,,,,,,,,,,,,,,,,,,,,,,,,,,,,,,,,,,,,,,,,,,,,,,,,,tiger,Animals,11,0,11,0,1,,,,,,,,,,,,,,,,,,
,,,,,,,,,,,,,,,90516,001,2022-04-29_12h55.41.084,SPAMnetsValid,2021.1.4,MacIntel,55.55555556,,,,,,,,,,,,,,,,,,,,,,,,,,,,,,,,,,,,,,,,,,,,,,,,,,,,,,,,,,,,,,,,,lion,Animals,12,0,12,0,1,,,,,,,,,,,,,,,,,,
,,,,,,,,,,,,,,,90516,001,2022-04-29_12h55.41.084,SPAMnetsValid,2021.1.4,MacIntel,55.55555556,,,,,,,,,,,,,,,,,,,,,,,,,,,,,,,,,,,,,,,,,,,,,,,,,,,,,,,,,,,,,,,,,turtle,Animals,13,0,13,0,1,,,,,,,,,,,,,,,,,,
,,,,,,,,,,,,,,,90516,001,2022-04-29_12h55.41.084,SPAMnetsValid,2021.1.4,MacIntel,55.55555556,,,,,,,,,,,,,,,,,,,,,,,,,,,,,,,,,,,,,,,,,,,,,,,,,,,,,,,,,,,,,,,,,fish,Animals,14,0,14,0,1,,,,,,,,,,,,,,,,,,
,,,,,,,,,,,,,,,90516,001,2022-04-29_12h55.41.084,SPAMnetsValid,2021.1.4,MacIntel,55.55555556,,,,,,,,,,,,,,,,,,,,,,,,,,,,,,,,,,,,,,,,,,,,,,,,,,,,,,,,,,,,,,,,,shark,Animals,15,0,15,0,1,,,,,,,,,,,,,,,,,,
,,,,,,,,,,,,,,,90516,001,2022-04-29_12h55.41.084,SPAMnetsValid,2021.1.4,MacIntel,55.55555556,,,,,,,,,,,,,,,,,,,,,,,,,,,,,,,,,,,,,,,,,,,,,,,,,,,,,,,,,,,,,,,,,dolphin,Animals,16,0,16,0,1,,,,,,,,,,,,,,,,,,
,,,,,,,,,,,,,,,90516,001,2022-04-29_12h55.41.084,SPAMnetsValid,2021.1.4,MacIntel,55.55555556,,,,,,,,,,,,,,,,,,,,,,,,,,,,,,,,,,,,,,,,,,,,,,,,,,,,,,,,,,,,,,,,,,Animals,17,0,17,0,1,,,,,,,,,,,,,,,,,,
,,,,,,,,,,,,,,,90516,001,2022-04-29_12h55.41.084,SPAMnetsValid,2021.1.4,MacIntel,55.55555556,,,,,,,,,,,,,,,,,,,,,,,,,,,,,,,,,,,,,,,,,,,,,,,,,,,,,,,,,,,,,,,,,,Animals,18,0,18,0,1,,,,,,,,,,,,,,,,,,
,,,,,,,,,,,,,,,90516,001,2022-04-29_12h55.41.084,SPAMnetsValid,2021.1.4,MacIntel,55.55555556,,,,,,,,,,,,,,,,,,,,,,,,,,,,,,,,,,,,,,,,,,,,,,,,,,,,,,,,,,,,,,,,,,Animals,19,0,19,0,1,,,,,,,,,,,,,,,,,,
,,,,,,,,,,,,,,,90516,001,2022-04-29_12h55.41.084,SPAMnetsValid,2021.1.4,MacIntel,55.55555556,,,,,,,,,,,,,,,,,,,,,,,,,,,,,,,,,,,,,,,,,,,,,,,,,,,,,,,,,,,,,,,,,,Animals,20,0,20,0,1,,,,,,,,,,,,,,,,,,
,,,,,,,,,,,,,,,90516,001,2022-04-29_12h55.41.084,SPAMnetsValid,2021.1.4,MacIntel,55.55555556,,,,,,,,,,,,,,,,,,,,,,,,,,,,,,,,,,,,,,,,,,,,,,,,,,,,,,,,,,,,,,,,,,Animals,21,0,21,0,1,,,,,,,,,,,,,,,,,,
,,,,,,,,,,,,,,,90516,001,2022-04-29_12h55.41.084,SPAMnetsValid,2021.1.4,MacIntel,55.55555556,,,,,,,,,,,,,,,,,,,,,,,,,,,,,,,,,,,,,,,,,,,,,,,,,,,,,,,,,,,,,,,,,,Animals,22,0,22,0,1,,,,,,,,,,,,,,,,,,
,,,,,,,,,,,,,,,90516,001,2022-04-29_12h55.41.084,SPAMnetsValid,2021.1.4,MacIntel,55.55555556,,,,,,,,,,,,,,,,,,,,,,,,,,,,,,,,,,,,,,,,,,,,,,,,,,,,,,,,,,,,,,,,,,Animals,23,0,23,0,1,,,,,,,,,,,,,,,,,,
,,,,,,,,,,,,,,,90516,001,2022-04-29_12h55.41.084,SPAMnetsValid,2021.1.4,MacIntel,55.55555556,,,,,,,,,,,,,,,,,,,,,,,,,,,,,,,,,,,,,,,,,,,,,,,,,,,,,,,,,,,,,,,,,,Animals,24,0,24,0,1,,,,,,,,,,,,,,,,,,
,,,,,,,,,,,,,,,90516,001,2022-04-29_12h55.41.084,SPAMnetsValid,2021.1.4,MacIntel,55.55555556,,,,,,,,,,,,,,,,,,,,,,,,,,,,,,,,,,,,,,,,,,,,,,,,,,,,,,,,,,,,,,,,,,,,,,,,0,0,0,0,1,Animals,,,,,,,,,,,,
,,,,,,,,,,,,,,,90516,001,2022-04-29_12h55.41.084,SPAMnetsValid,2021.1.4,MacIntel,55.55555556,,,,,,,,,,,,,,,,,,,,,,,,,,,,,,,,,,,,,,,,,,,,,,,,,,,,,,,,,,,,,,,,,,,,,,,,,,,,,,4,5.835,0,0,0,0,1,"I enjoy concentrating on a fantasy or daydream and exploring all its possibilities, letting it grow and develop.",0,1,,
,,,,,,,,,,,,,,,90516,001,2022-04-29_12h55.41.084,SPAMnetsValid,2021.1.4,MacIntel,55.55555556,,,,,,,,,,,,,,,,,,,,,,,,,,,,,,,,,,,,,,,,,,,,,,,,,,,,,,,,,,,,,,,,,,,,,,,,,,,,,,4,3.56,0,1,1,1,1,I think it's interesting to learn and develop new hobbies.,0,2,,
,,,,,,,,,,,,,,,90516,001,2022-04-29_12h55.41.084,SPAMnetsValid,2021.1.4,MacIntel,55.55555556,,,,,,,,,,,,,,,,,,,,,,,,,,,,,,,,,,,,,,,,,,,,,,,,,,,,,,,,,,,,,,,,,,,,,,,,,,,,,,2,2.311,0,2,2,2,1,I am intrigued by the patterns I find in art and nature.,0,3,,
,,,,,,,,,,,,,,,90516,001,2022-04-29_12h55.41.084,SPAMnetsValid,2021.1.4,MacIntel,55.55555556,,,,,,,,,,,,,,,,,,,,,,,,,,,,,,,,,,,,,,,,,,,,,,,,,,,,,,,,,,,,,,,,,,,,,,,,,,,,,,2,6.656,0,3,3,3,1,I believe letting students hear controversial speakers can only confuse and mislead them.,1,4,,
,,,,,,,,,,,,,,,90516,001,2022-04-29_12h55.41.084,SPAMnetsValid,2021.1.4,MacIntel,55.55555556,,,,,,,,,,,,,,,,,,,,,,,,,,,,,,,,,,,,,,,,,,,,,,,,,,,,,,,,,,,,,,,,,,,,,,,,,,,,,,3,2.931,0,4,4,4,1,Poetry has little or no effect on me.,1,5,,
,,,,,,,,,,,,,,,90516,001,2022-04-29_12h55.41.084,SPAMnetsValid,2021.1.4,MacIntel,55.55555556,,,,,,,,,,,,,,,,,,,,,,,,,,,,,,,,,,,,,,,,,,,,,,,,,,,,,,,,,,,,,,,,,,,,,,,,,,,,,,2,8.706,0,5,5,5,1,I would have difficulty just letting my mind wander without control or guidance.,1,6,,
,,,,,,,,,,,,,,,90516,001,2022-04-29_12h55.41.084,SPAMnetsValid,2021.1.4,MacIntel,55.55555556,,,,,,,,,,,,,,,,,,,,,,,,,,,,,,,,,,,,,,,,,,,,,,,,,,,,,,,,,,,,,,,,,,,,,,,,,,,,,,4,4.137,0,6,6,6,1,I seldom notice the moods or feelings that different environments produce.,1,7,,
,,,,,,,,,,,,,,,90516,001,2022-04-29_12h55.41.084,SPAMnetsValid,2021.1.4,MacIntel,55.55555556,,,,,,,,,,,,,,,,,,,,,,,,,,,,,,,,,,,,,,,,,,,,,,,,,,,,,,,,,,,,,,,,,,,,,,,,,,,,,,4,1.764,0,7,7,7,1,I experience a wide range of emotions or feelings.,0,8,,
,,,,,,,,,,,,,,,90516,001,2022-04-29_12h55.41.084,SPAMnetsValid,2021.1.4,MacIntel,55.55555556,,,,,,,,,,,,,,,,,,,,,,,,,,,,,,,,,,,,,,,,,,,,,,,,,,,,,,,,,,,,,,,,,,,,,,,,,,,,,,1,3.61,0,8,8,8,1,"Sometimes when I am reading poetry or looking at a work of art, I feel a chill or wave of excitement.",0,9,,
,,,,,,,,,,,,,,,90516,001,2022-04-29_12h55.41.084,SPAMnetsValid,2021.1.4,MacIntel,55.55555556,,,,,,,,,,,,,,,,,,,,,,,,,,,,,,,,,,,,,,,,,,,,,,,,,,,,,,,,,,,,,,,,,,,,,,,,,,,,,,1,4.558,0,9,9,9,1,I have little interest in speculating on the nature of the universe or the human condition.,1,10,,
,,,,,,,,,,,,,,,90516,001,2022-04-29_12h55.41.084,SPAMnetsValid,2021.1.4,MacIntel,55.55555556,,,,,,,,,,,,,,,,,,,,,,,,,,,,,,,,,,,,,,,,,,,,,,,,,,,,,,,,,,,,,,,,,,,,,,,,,,,,,,5,3.137,0,10,10,10,1,I have a lot of intellectual curiosity.,0,11,,
,,,,,,,,,,,,,,,90516,001,2022-04-29_12h55.41.084,SPAMnetsValid,2021.1.4,MacIntel,55.55555556,,,,,,,,,,,,,,,,,,,,,,,,,,,,,,,,,,,,,,,,,,,,,,,,,,,,,,,,,,,,,,,,,,,,,,,,,,,,,,2,4.057,0,11,11,11,1,I often enjoy playing with theories or abstract ideas.,0,12,,
,,,,,,,,,,,,,,,90516,001,2022-04-29_12h55.41.084,SPAMnetsValid,2021.1.4,MacIntel,55.55555556,,,,,,,,,,,,,,,,,,,,,,,,,,,,,,,,,,,,,,,,,,,,,,,,,,,,,,,,,,,,,,,,,,,,,,,,,,,,,,,,,,,,,,,,return,7.476
