slider_2.response,slider_2.rt,rjt_rating,rjt_RT,trials_24.thisRepN,trials_24.thisTrialN,trials_24.thisN,trials_24.thisIndex,trials_24.ran,rjt_order,word1,word2,attention,participant,session,date,expName,psychopyVersion,OS,frameRate,trials_4.thisRepN,trials_4.thisTrialN,trials_4.thisN,trials_4.thisIndex,trials_4.ran,trials_5.thisRepN,trials_5.thisTrialN,trials_5.thisN,trials_5.thisIndex,trials_5.ran,repOne,repTwo,slider.response,slider.rt,trials_22.thisRepN,trials_22.thisTrialN,trials_22.thisN,trials_22.thisIndex,trials_22.ran,trials_99.thisRepN,trials_99.thisTrialN,trials_99.thisN,trials_99.thisIndex,trials_99.ran,slider_extend_2.response,slider_extend_2.rt,trials_6.thisRepN,trials_6.thisTrialN,trials_6.thisN,trials_6.thisIndex,trials_6.ran,vCue2,R1,R2,R3,R4,correct,sliderVocab.response,sliderVocab.rt,trials_7.thisRepN,trials_7.thisTrialN,trials_7.thisN,trials_7.thisIndex,trials_7.ran,VocabCue,VR1,VR2,VR3,VR4,VR5,VocabCorrect,AUT_resp,AUT_label,trials.thisRepN,trials.thisTrialN,trials.thisN,trials.thisIndex,trials.ran,trials_2.thisRepN,trials_2.thisTrialN,trials_2.thisN,trials_2.thisIndex,trials_2.ran,aut_prompt,VF_response,VF_tag,trials_16.thisRepN,trials_16.thisTrialN,trials_16.thisN,trials_16.thisIndex,trials_16.ran,trials_17.thisRepN,trials_17.thisTrialN,trials_17.thisN,trials_17.thisIndex,trials_17.ran,VFcond,open_slider.response,open_slider.rt,trials_3.thisRepN,trials_3.thisTrialN,trials_3.thisN,trials_3.thisIndex,trials_3.ran,OpenQ,Rev,OPEN_ORDER,key_resp_2.keys,key_resp_2.rt
9,4.591,9,4.591,0,0,0,5,1,108,carrot,chocolate,,krupa,001,2022-04-14_17h58.17.099,SPAMnetsValid,2021.1.4,Win32,29.97601918,,,,,,,,,,,,,,,,,,,,,,,,,,,,,,,,,,,,,,,,,,,,,,,,,,,,,,,,,,,,,,,,,,,,,,,,,,,,,,,,,,,,,,,,,
6,6.319,6,6.319,0,1,1,87,1,114,cookie,strawberry,,krupa,001,2022-04-14_17h58.17.099,SPAMnetsValid,2021.1.4,Win32,29.97601918,,,,,,,,,,,,,,,,,,,,,,,,,,,,,,,,,,,,,,,,,,,,,,,,,,,,,,,,,,,,,,,,,,,,,,,,,,,,,,,,,,,,,,,,,
3,2.224,3,2.224,0,2,2,67,1,96,oven,strawberry,,krupa,001,2022-04-14_17h58.17.099,SPAMnetsValid,2021.1.4,Win32,29.97601918,,,,,,,,,,,,,,,,,,,,,,,,,,,,,,,,,,,,,,,,,,,,,,,,,,,,,,,,,,,,,,,,,,,,,,,,,,,,,,,,,,,,,,,,,
7,3.477,7,3.477,0,3,3,65,1,160,cookie,kitchen,,krupa,001,2022-04-14_17h58.17.099,SPAMnetsValid,2021.1.4,Win32,29.97601918,,,,,,,,,,,,,,,,,,,,,,,,,,,,,,,,,,,,,,,,,,,,,,,,,,,,,,,,,,,,,,,,,,,,,,,,,,,,,,,,,,,,,,,,,
7,2.634,7,2.634,0,4,4,77,1,172,kitchen,melon,,krupa,001,2022-04-14_17h58.17.099,SPAMnetsValid,2021.1.4,Win32,29.97601918,,,,,,,,,,,,,,,,,,,,,,,,,,,,,,,,,,,,,,,,,,,,,,,,,,,,,,,,,,,,,,,,,,,,,,,,,,,,,,,,,,,,,,,,,
3,2.706,3,2.706,0,5,5,28,1,154,strawberry,yogurt,,krupa,001,2022-04-14_17h58.17.099,SPAMnetsValid,2021.1.4,Win32,29.97601918,,,,,,,,,,,,,,,,,,,,,,,,,,,,,,,,,,,,,,,,,,,,,,,,,,,,,,,,,,,,,,,,,,,,,,,,,,,,,,,,,,,,,,,,,
7,2.568,7,2.568,0,6,6,89,1,140,cookie,refrigerator,,krupa,001,2022-04-14_17h58.17.099,SPAMnetsValid,2021.1.4,Win32,29.97601918,,,,,,,,,,,,,,,,,,,,,,,,,,,,,,,,,,,,,,,,,,,,,,,,,,,,,,,,,,,,,,,,,,,,,,,,,,,,,,,,,,,,,,,,,
7,7.684,7,7.684,0,7,7,70,1,141,melon,tomato,,krupa,001,2022-04-14_17h58.17.099,SPAMnetsValid,2021.1.4,Win32,29.97601918,,,,,,,,,,,,,,,,,,,,,,,,,,,,,,,,,,,,,,,,,,,,,,,,,,,,,,,,,,,,,,,,,,,,,,,,,,,,,,,,,,,,,,,,,
7,2.568,7,2.568,0,8,8,4,1,109,broom,strawberry,,krupa,001,2022-04-14_17h58.17.099,SPAMnetsValid,2021.1.4,Win32,29.97601918,,,,,,,,,,,,,,,,,,,,,,,,,,,,,,,,,,,,,,,,,,,,,,,,,,,,,,,,,,,,,,,,,,,,,,,,,,,,,,,,,,,,,,,,,
7,8.422,7,8.422,0,9,9,31,1,156,melon,rose,,krupa,001,2022-04-14_17h58.17.099,SPAMnetsValid,2021.1.4,Win32,29.97601918,,,,,,,,,,,,,,,,,,,,,,,,,,,,,,,,,,,,,,,,,,,,,,,,,,,,,,,,,,,,,,,,,,,,,,,,,,,,,,,,,,,,,,,,,
7,3.598,7,3.598,0,10,10,79,1,103,pretzel,tomato,,krupa,001,2022-04-14_17h58.17.099,SPAMnetsValid,2021.1.4,Win32,29.97601918,,,,,,,,,,,,,,,,,,,,,,,,,,,,,,,,,,,,,,,,,,,,,,,,,,,,,,,,,,,,,,,,,,,,,,,,,,,,,,,,,,,,,,,,,
7,6.536,7,6.536,0,11,11,80,1,146,pretzel,tree,,krupa,001,2022-04-14_17h58.17.099,SPAMnetsValid,2021.1.4,Win32,29.97601918,,,,,,,,,,,,,,,,,,,,,,,,,,,,,,,,,,,,,,,,,,,,,,,,,,,,,,,,,,,,,,,,,,,,,,,,,,,,,,,,,,,,,,,,,
7,6.59,7,6.59,0,12,12,74,1,128,melon,microwave,,krupa,001,2022-04-14_17h58.17.099,SPAMnetsValid,2021.1.4,Win32,29.97601918,,,,,,,,,,,,,,,,,,,,,,,,,,,,,,,,,,,,,,,,,,,,,,,,,,,,,,,,,,,,,,,,,,,,,,,,,,,,,,,,,,,,,,,,,
7,2.348,7,2.348,0,13,13,55,1,143,pretzel,rose,,krupa,001,2022-04-14_17h58.17.099,SPAMnetsValid,2021.1.4,Win32,29.97601918,,,,,,,,,,,,,,,,,,,,,,,,,,,,,,,,,,,,,,,,,,,,,,,,,,,,,,,,,,,,,,,,,,,,,,,,,,,,,,,,,,,,,,,,,
2,2.276,2,2.276,0,14,14,7,1,188,flower,tree,,krupa,001,2022-04-14_17h58.17.099,SPAMnetsValid,2021.1.4,Win32,29.97601918,,,,,,,,,,,,,,,,,,,,,,,,,,,,,,,,,,,,,,,,,,,,,,,,,,,,,,,,,,,,,,,,,,,,,,,,,,,,,,,,,,,,,,,,,
3,2.799,3,2.799,0,15,15,26,1,107,rose,tomato,,krupa,001,2022-04-14_17h58.17.099,SPAMnetsValid,2021.1.4,Win32,29.97601918,,,,,,,,,,,,,,,,,,,,,,,,,,,,,,,,,,,,,,,,,,,,,,,,,,,,,,,,,,,,,,,,,,,,,,,,,,,,,,,,,,,,,,,,,
7,2.484,7,2.484,0,16,16,38,1,155,carrot,cookie,,krupa,001,2022-04-14_17h58.17.099,SPAMnetsValid,2021.1.4,Win32,29.97601918,,,,,,,,,,,,,,,,,,,,,,,,,,,,,,,,,,,,,,,,,,,,,,,,,,,,,,,,,,,,,,,,,,,,,,,,,,,,,,,,,,,,,,,,,
3,2.227,3,2.227,0,17,17,18,1,119,strawberry,tree,,krupa,001,2022-04-14_17h58.17.099,SPAMnetsValid,2021.1.4,Win32,29.97601918,,,,,,,,,,,,,,,,,,,,,,,,,,,,,,,,,,,,,,,,,,,,,,,,,,,,,,,,,,,,,,,,,,,,,,,,,,,,,,,,,,,,,,,,,
7,2.514,7,2.514,0,18,18,90,1,190,microwave,strawberry,,krupa,001,2022-04-14_17h58.17.099,SPAMnetsValid,2021.1.4,Win32,29.97601918,,,,,,,,,,,,,,,,,,,,,,,,,,,,,,,,,,,,,,,,,,,,,,,,,,,,,,,,,,,,,,,,,,,,,,,,,,,,,,,,,,,,,,,,,
2,2.644,2,2.644,0,19,19,60,1,122,flower,garden,,krupa,001,2022-04-14_17h58.17.099,SPAMnetsValid,2021.1.4,Win32,29.97601918,,,,,,,,,,,,,,,,,,,,,,,,,,,,,,,,,,,,,,,,,,,,,,,,,,,,,,,,,,,,,,,,,,,,,,,,,,,,,,,,,,,,,,,,,
7,3.702,7,3.702,0,20,20,51,1,168,cactus,flower,,krupa,001,2022-04-14_17h58.17.099,SPAMnetsValid,2021.1.4,Win32,29.97601918,,,,,,,,,,,,,,,,,,,,,,,,,,,,,,,,,,,,,,,,,,,,,,,,,,,,,,,,,,,,,,,,,,,,,,,,,,,,,,,,,,,,,,,,,
3,2.302,3,2.302,0,21,21,2,1,174,cake,pretzel,,krupa,001,2022-04-14_17h58.17.099,SPAMnetsValid,2021.1.4,Win32,29.97601918,,,,,,,,,,,,,,,,,,,,,,,,,,,,,,,,,,,,,,,,,,,,,,,,,,,,,,,,,,,,,,,,,,,,,,,,,,,,,,,,,,,,,,,,,
7,3.677,7,3.677,0,22,22,71,1,187,cactus,microwave,,krupa,001,2022-04-14_17h58.17.099,SPAMnetsValid,2021.1.4,Win32,29.97601918,,,,,,,,,,,,,,,,,,,,,,,,,,,,,,,,,,,,,,,,,,,,,,,,,,,,,,,,,,,,,,,,,,,,,,,,,,,,,,,,,,,,,,,,,
3,5.823,3,5.823,0,23,23,46,1,123,cookie,tree,,krupa,001,2022-04-14_17h58.17.099,SPAMnetsValid,2021.1.4,Win32,29.97601918,,,,,,,,,,,,,,,,,,,,,,,,,,,,,,,,,,,,,,,,,,,,,,,,,,,,,,,,,,,,,,,,,,,,,,,,,,,,,,,,,,,,,,,,,
2,2.74,2,2.74,0,24,24,32,1,182,flower,refrigerator,,krupa,001,2022-04-14_17h58.17.099,SPAMnetsValid,2021.1.4,Win32,29.97601918,,,,,,,,,,,,,,,,,,,,,,,,,,,,,,,,,,,,,,,,,,,,,,,,,,,,,,,,,,,,,,,,,,,,,,,,,,,,,,,,,,,,,,,,,
3,2.461,3,2.461,0,25,25,24,1,169,onion,yogurt,,krupa,001,2022-04-14_17h58.17.099,SPAMnetsValid,2021.1.4,Win32,29.97601918,,,,,,,,,,,,,,,,,,,,,,,,,,,,,,,,,,,,,,,,,,,,,,,,,,,,,,,,,,,,,,,,,,,,,,,,,,,,,,,,,,,,,,,,,
3,2.132,3,2.132,0,26,26,48,1,186,kitchen,yogurt,,krupa,001,2022-04-14_17h58.17.099,SPAMnetsValid,2021.1.4,Win32,29.97601918,,,,,,,,,,,,,,,,,,,,,,,,,,,,,,,,,,,,,,,,,,,,,,,,,,,,,,,,,,,,,,,,,,,,,,,,,,,,,,,,,,,,,,,,,
7,2.138,7,2.138,0,27,27,29,1,163,melon,refrigerator,,krupa,001,2022-04-14_17h58.17.099,SPAMnetsValid,2021.1.4,Win32,29.97601918,,,,,,,,,,,,,,,,,,,,,,,,,,,,,,,,,,,,,,,,,,,,,,,,,,,,,,,,,,,,,,,,,,,,,,,,,,,,,,,,,,,,,,,,,
7,3.432,7,3.432,0,28,28,11,1,117,melon,strawberry,,krupa,001,2022-04-14_17h58.17.099,SPAMnetsValid,2021.1.4,Win32,29.97601918,,,,,,,,,,,,,,,,,,,,,,,,,,,,,,,,,,,,,,,,,,,,,,,,,,,,,,,,,,,,,,,,,,,,,,,,,,,,,,,,,,,,,,,,,
7,2.377,7,2.377,0,29,29,94,1,133,cake,flower,,krupa,001,2022-04-14_17h58.17.099,SPAMnetsValid,2021.1.4,Win32,29.97601918,,,,,,,,,,,,,,,,,,,,,,,,,,,,,,,,,,,,,,,,,,,,,,,,,,,,,,,,,,,,,,,,,,,,,,,,,,,,,,,,,,,,,,,,,
7,2.528,7,2.528,0,30,30,12,1,162,microwave,tomato,,krupa,001,2022-04-14_17h58.17.099,SPAMnetsValid,2021.1.4,Win32,29.97601918,,,,,,,,,,,,,,,,,,,,,,,,,,,,,,,,,,,,,,,,,,,,,,,,,,,,,,,,,,,,,,,,,,,,,,,,,,,,,,,,,,,,,,,,,
3,3.346,3,3.346,0,31,31,62,1,189,onion,tree,,krupa,001,2022-04-14_17h58.17.099,SPAMnetsValid,2021.1.4,Win32,29.97601918,,,,,,,,,,,,,,,,,,,,,,,,,,,,,,,,,,,,,,,,,,,,,,,,,,,,,,,,,,,,,,,,,,,,,,,,,,,,,,,,,,,,,,,,,
3,2.489,3,2.489,0,32,32,16,1,111,carrot,microwave,,krupa,001,2022-04-14_17h58.17.099,SPAMnetsValid,2021.1.4,Win32,29.97601918,,,,,,,,,,,,,,,,,,,,,,,,,,,,,,,,,,,,,,,,,,,,,,,,,,,,,,,,,,,,,,,,,,,,,,,,,,,,,,,,,,,,,,,,,
3,2.171,3,2.171,0,33,33,22,1,142,garden,tree,,krupa,001,2022-04-14_17h58.17.099,SPAMnetsValid,2021.1.4,Win32,29.97601918,,,,,,,,,,,,,,,,,,,,,,,,,,,,,,,,,,,,,,,,,,,,,,,,,,,,,,,,,,,,,,,,,,,,,,,,,,,,,,,,,,,,,,,,,
7,2.614,7,2.614,0,34,34,81,1,104,garden,microwave,,krupa,001,2022-04-14_17h58.17.099,SPAMnetsValid,2021.1.4,Win32,29.97601918,,,,,,,,,,,,,,,,,,,,,,,,,,,,,,,,,,,,,,,,,,,,,,,,,,,,,,,,,,,,,,,,,,,,,,,,,,,,,,,,,,,,,,,,,
7,2.756,7,2.756,0,35,35,0,1,106,cake,strawberry,,krupa,001,2022-04-14_17h58.17.099,SPAMnetsValid,2021.1.4,Win32,29.97601918,,,,,,,,,,,,,,,,,,,,,,,,,,,,,,,,,,,,,,,,,,,,,,,,,,,,,,,,,,,,,,,,,,,,,,,,,,,,,,,,,,,,,,,,,
3,2.309,3,2.309,0,36,36,92,1,170,cookie,microwave,,krupa,001,2022-04-14_17h58.17.099,SPAMnetsValid,2021.1.4,Win32,29.97601918,,,,,,,,,,,,,,,,,,,,,,,,,,,,,,,,,,,,,,,,,,,,,,,,,,,,,,,,,,,,,,,,,,,,,,,,,,,,,,,,,,,,,,,,,
7,2.191,7,2.191,0,37,37,84,1,130,microwave,yogurt,,krupa,001,2022-04-14_17h58.17.099,SPAMnetsValid,2021.1.4,Win32,29.97601918,,,,,,,,,,,,,,,,,,,,,,,,,,,,,,,,,,,,,,,,,,,,,,,,,,,,,,,,,,,,,,,,,,,,,,,,,,,,,,,,,,,,,,,,,
3,2.114,3,2.114,0,38,38,27,1,158,cookie,oven,,krupa,001,2022-04-14_17h58.17.099,SPAMnetsValid,2021.1.4,Win32,29.97601918,,,,,,,,,,,,,,,,,,,,,,,,,,,,,,,,,,,,,,,,,,,,,,,,,,,,,,,,,,,,,,,,,,,,,,,,,,,,,,,,,,,,,,,,,
3,2.18,3,2.18,0,39,39,63,1,137,microwave,tree,,krupa,001,2022-04-14_17h58.17.099,SPAMnetsValid,2021.1.4,Win32,29.97601918,,,,,,,,,,,,,,,,,,,,,,,,,,,,,,,,,,,,,,,,,,,,,,,,,,,,,,,,,,,,,,,,,,,,,,,,,,,,,,,,,,,,,,,,,
7,2.377,7,2.377,0,40,40,6,1,151,microwave,onion,,krupa,001,2022-04-14_17h58.17.099,SPAMnetsValid,2021.1.4,Win32,29.97601918,,,,,,,,,,,,,,,,,,,,,,,,,,,,,,,,,,,,,,,,,,,,,,,,,,,,,,,,,,,,,,,,,,,,,,,,,,,,,,,,,,,,,,,,,
7,4.248,7,4.248,0,41,41,49,1,152,cactus,strawberry,,krupa,001,2022-04-14_17h58.17.099,SPAMnetsValid,2021.1.4,Win32,29.97601918,,,,,,,,,,,,,,,,,,,,,,,,,,,,,,,,,,,,,,,,,,,,,,,,,,,,,,,,,,,,,,,,,,,,,,,,,,,,,,,,,,,,,,,,,
3,4.158,3,4.158,0,42,42,53,1,177,chocolate,strawberry,,krupa,001,2022-04-14_17h58.17.099,SPAMnetsValid,2021.1.4,Win32,29.97601918,,,,,,,,,,,,,,,,,,,,,,,,,,,,,,,,,,,,,,,,,,,,,,,,,,,,,,,,,,,,,,,,,,,,,,,,,,,,,,,,,,,,,,,,,
6,1.947,6,1.947,0,43,43,82,1,98,pretzel,strawberry,,krupa,001,2022-04-14_17h58.17.099,SPAMnetsValid,2021.1.4,Win32,29.97601918,,,,,,,,,,,,,,,,,,,,,,,,,,,,,,,,,,,,,,,,,,,,,,,,,,,,,,,,,,,,,,,,,,,,,,,,,,,,,,,,,,,,,,,,,
3,1.997,3,1.997,0,44,44,83,1,100,garden,tomato,,krupa,001,2022-04-14_17h58.17.099,SPAMnetsValid,2021.1.4,Win32,29.97601918,,,,,,,,,,,,,,,,,,,,,,,,,,,,,,,,,,,,,,,,,,,,,,,,,,,,,,,,,,,,,,,,,,,,,,,,,,,,,,,,,,,,,,,,,
2,2.718,2,2.718,0,45,45,33,1,131,cactus,garden,,krupa,001,2022-04-14_17h58.17.099,SPAMnetsValid,2021.1.4,Win32,29.97601918,,,,,,,,,,,,,,,,,,,,,,,,,,,,,,,,,,,,,,,,,,,,,,,,,,,,,,,,,,,,,,,,,,,,,,,,,,,,,,,,,,,,,,,,,
7,3.163,7,3.163,0,46,46,59,1,164,cookie,garden,,krupa,001,2022-04-14_17h58.17.099,SPAMnetsValid,2021.1.4,Win32,29.97601918,,,,,,,,,,,,,,,,,,,,,,,,,,,,,,,,,,,,,,,,,,,,,,,,,,,,,,,,,,,,,,,,,,,,,,,,,,,,,,,,,,,,,,,,,
7,5.813,7,5.813,0,47,47,41,1,175,melon,onion,,krupa,001,2022-04-14_17h58.17.099,SPAMnetsValid,2021.1.4,Win32,29.97601918,,,,,,,,,,,,,,,,,,,,,,,,,,,,,,,,,,,,,,,,,,,,,,,,,,,,,,,,,,,,,,,,,,,,,,,,,,,,,,,,,,,,,,,,,
3,2.016,3,2.016,0,48,48,25,1,194,cactus,cactus,CHECK,krupa,001,2022-04-14_17h58.17.099,SPAMnetsValid,2021.1.4,Win32,29.97601918,,,,,,,,,,,,,,,,,,,,,,,,,,,,,,,,,,,,,,,,,,,,,,,,,,,,,,,,,,,,,,,,,,,,,,,,,,,,,,,,,,,,,,,,,
7,3.947,7,3.947,0,49,49,72,1,181,carrot,kitchen,,krupa,001,2022-04-14_17h58.17.099,SPAMnetsValid,2021.1.4,Win32,29.97601918,,,,,,,,,,,,,,,,,,,,,,,,,,,,,,,,,,,,,,,,,,,,,,,,,,,,,,,,,,,,,,,,,,,,,,,,,,,,,,,,,,,,,,,,,
7,2.142,7,2.142,0,50,50,93,1,134,carrot,flower,,krupa,001,2022-04-14_17h58.17.099,SPAMnetsValid,2021.1.4,Win32,29.97601918,,,,,,,,,,,,,,,,,,,,,,,,,,,,,,,,,,,,,,,,,,,,,,,,,,,,,,,,,,,,,,,,,,,,,,,,,,,,,,,,,,,,,,,,,
7,2.272,7,2.272,0,51,51,30,1,125,carrot,tree,,krupa,001,2022-04-14_17h58.17.099,SPAMnetsValid,2021.1.4,Win32,29.97601918,,,,,,,,,,,,,,,,,,,,,,,,,,,,,,,,,,,,,,,,,,,,,,,,,,,,,,,,,,,,,,,,,,,,,,,,,,,,,,,,,,,,,,,,,
3,3.697,3,3.697,0,52,52,75,1,178,cactus,carrot,,krupa,001,2022-04-14_17h58.17.099,SPAMnetsValid,2021.1.4,Win32,29.97601918,,,,,,,,,,,,,,,,,,,,,,,,,,,,,,,,,,,,,,,,,,,,,,,,,,,,,,,,,,,,,,,,,,,,,,,,,,,,,,,,,,,,,,,,,
2,7.322,2,7.322,0,53,53,10,1,118,chocolate,oven,,krupa,001,2022-04-14_17h58.17.099,SPAMnetsValid,2021.1.4,Win32,29.97601918,,,,,,,,,,,,,,,,,,,,,,,,,,,,,,,,,,,,,,,,,,,,,,,,,,,,,,,,,,,,,,,,,,,,,,,,,,,,,,,,,,,,,,,,,
2,2.868,2,2.868,0,54,54,23,1,148,flower,melon,,krupa,001,2022-04-14_17h58.17.099,SPAMnetsValid,2021.1.4,Win32,29.97601918,,,,,,,,,,,,,,,,,,,,,,,,,,,,,,,,,,,,,,,,,,,,,,,,,,,,,,,,,,,,,,,,,,,,,,,,,,,,,,,,,,,,,,,,,
7,2.203,7,2.203,0,55,55,9,1,176,cactus,tomato,,krupa,001,2022-04-14_17h58.17.099,SPAMnetsValid,2021.1.4,Win32,29.97601918,,,,,,,,,,,,,,,,,,,,,,,,,,,,,,,,,,,,,,,,,,,,,,,,,,,,,,,,,,,,,,,,,,,,,,,,,,,,,,,,,,,,,,,,,
7,3.916,7,3.916,0,56,56,40,1,165,onion,rose,,krupa,001,2022-04-14_17h58.17.099,SPAMnetsValid,2021.1.4,Win32,29.97601918,,,,,,,,,,,,,,,,,,,,,,,,,,,,,,,,,,,,,,,,,,,,,,,,,,,,,,,,,,,,,,,,,,,,,,,,,,,,,,,,,,,,,,,,,
3,2.773,3,2.773,0,57,57,45,1,179,broom,oven,,krupa,001,2022-04-14_17h58.17.099,SPAMnetsValid,2021.1.4,Win32,29.97601918,,,,,,,,,,,,,,,,,,,,,,,,,,,,,,,,,,,,,,,,,,,,,,,,,,,,,,,,,,,,,,,,,,,,,,,,,,,,,,,,,,,,,,,,,
7,2.914,7,2.914,0,58,58,95,1,121,broom,microwave,,krupa,001,2022-04-14_17h58.17.099,SPAMnetsValid,2021.1.4,Win32,29.97601918,,,,,,,,,,,,,,,,,,,,,,,,,,,,,,,,,,,,,,,,,,,,,,,,,,,,,,,,,,,,,,,,,,,,,,,,,,,,,,,,,,,,,,,,,
7,9.798,7,9.798,0,59,59,85,1,115,refrigerator,tomato,,krupa,001,2022-04-14_17h58.17.099,SPAMnetsValid,2021.1.4,Win32,29.97601918,,,,,,,,,,,,,,,,,,,,,,,,,,,,,,,,,,,,,,,,,,,,,,,,,,,,,,,,,,,,,,,,,,,,,,,,,,,,,,,,,,,,,,,,,
7,2.102,7,2.102,0,60,60,50,1,126,kitchen,tree,,krupa,001,2022-04-14_17h58.17.099,SPAMnetsValid,2021.1.4,Win32,29.97601918,,,,,,,,,,,,,,,,,,,,,,,,,,,,,,,,,,,,,,,,,,,,,,,,,,,,,,,,,,,,,,,,,,,,,,,,,,,,,,,,,,,,,,,,,
7,2.524,7,2.524,0,61,61,1,1,173,kitchen,tomato,,krupa,001,2022-04-14_17h58.17.099,SPAMnetsValid,2021.1.4,Win32,29.97601918,,,,,,,,,,,,,,,,,,,,,,,,,,,,,,,,,,,,,,,,,,,,,,,,,,,,,,,,,,,,,,,,,,,,,,,,,,,,,,,,,,,,,,,,,
3,1.967,3,1.967,0,62,62,61,1,138,flower,rose,,krupa,001,2022-04-14_17h58.17.099,SPAMnetsValid,2021.1.4,Win32,29.97601918,,,,,,,,,,,,,,,,,,,,,,,,,,,,,,,,,,,,,,,,,,,,,,,,,,,,,,,,,,,,,,,,,,,,,,,,,,,,,,,,,,,,,,,,,
3,4.772,3,4.772,0,63,63,13,1,105,cactus,oven,,krupa,001,2022-04-14_17h58.17.099,SPAMnetsValid,2021.1.4,Win32,29.97601918,,,,,,,,,,,,,,,,,,,,,,,,,,,,,,,,,,,,,,,,,,,,,,,,,,,,,,,,,,,,,,,,,,,,,,,,,,,,,,,,,,,,,,,,,
7,2.243,7,2.243,0,64,64,20,1,149,broom,tomato,,krupa,001,2022-04-14_17h58.17.099,SPAMnetsValid,2021.1.4,Win32,29.97601918,,,,,,,,,,,,,,,,,,,,,,,,,,,,,,,,,,,,,,,,,,,,,,,,,,,,,,,,,,,,,,,,,,,,,,,,,,,,,,,,,,,,,,,,,
3,2.432,3,2.432,0,65,65,34,1,153,carrot,pretzel,,krupa,001,2022-04-14_17h58.17.099,SPAMnetsValid,2021.1.4,Win32,29.97601918,,,,,,,,,,,,,,,,,,,,,,,,,,,,,,,,,,,,,,,,,,,,,,,,,,,,,,,,,,,,,,,,,,,,,,,,,,,,,,,,,,,,,,,,,
3,2.307,3,2.307,0,66,66,88,1,171,cake,tomato,,krupa,001,2022-04-14_17h58.17.099,SPAMnetsValid,2021.1.4,Win32,29.97601918,,,,,,,,,,,,,,,,,,,,,,,,,,,,,,,,,,,,,,,,,,,,,,,,,,,,,,,,,,,,,,,,,,,,,,,,,,,,,,,,,,,,,,,,,
7,4.354,7,4.354,0,67,67,36,1,161,kitchen,pretzel,,krupa,001,2022-04-14_17h58.17.099,SPAMnetsValid,2021.1.4,Win32,29.97601918,,,,,,,,,,,,,,,,,,,,,,,,,,,,,,,,,,,,,,,,,,,,,,,,,,,,,,,,,,,,,,,,,,,,,,,,,,,,,,,,,,,,,,,,,
7,2.977,7,2.977,0,68,68,44,1,116,cake,chocolate,,krupa,001,2022-04-14_17h58.17.099,SPAMnetsValid,2021.1.4,Win32,29.97601918,,,,,,,,,,,,,,,,,,,,,,,,,,,,,,,,,,,,,,,,,,,,,,,,,,,,,,,,,,,,,,,,,,,,,,,,,,,,,,,,,,,,,,,,,
3,2.041,3,2.041,0,69,69,14,1,120,microwave,oven,,krupa,001,2022-04-14_17h58.17.099,SPAMnetsValid,2021.1.4,Win32,29.97601918,,,,,,,,,,,,,,,,,,,,,,,,,,,,,,,,,,,,,,,,,,,,,,,,,,,,,,,,,,,,,,,,,,,,,,,,,,,,,,,,,,,,,,,,,
3,5.998,3,5.998,0,70,70,54,1,101,cactus,kitchen,,krupa,001,2022-04-14_17h58.17.099,SPAMnetsValid,2021.1.4,Win32,29.97601918,,,,,,,,,,,,,,,,,,,,,,,,,,,,,,,,,,,,,,,,,,,,,,,,,,,,,,,,,,,,,,,,,,,,,,,,,,,,,,,,,,,,,,,,,
3,5.986,3,5.986,0,71,71,8,1,97,chocolate,kitchen,,krupa,001,2022-04-14_17h58.17.099,SPAMnetsValid,2021.1.4,Win32,29.97601918,,,,,,,,,,,,,,,,,,,,,,,,,,,,,,,,,,,,,,,,,,,,,,,,,,,,,,,,,,,,,,,,,,,,,,,,,,,,,,,,,,,,,,,,,
7,2.269,7,2.269,0,72,72,64,1,157,refrigerator,rose,,krupa,001,2022-04-14_17h58.17.099,SPAMnetsValid,2021.1.4,Win32,29.97601918,,,,,,,,,,,,,,,,,,,,,,,,,,,,,,,,,,,,,,,,,,,,,,,,,,,,,,,,,,,,,,,,,,,,,,,,,,,,,,,,,,,,,,,,,
7,2.438,7,2.438,0,73,73,17,1,99,garden,melon,,krupa,001,2022-04-14_17h58.17.099,SPAMnetsValid,2021.1.4,Win32,29.97601918,,,,,,,,,,,,,,,,,,,,,,,,,,,,,,,,,,,,,,,,,,,,,,,,,,,,,,,,,,,,,,,,,,,,,,,,,,,,,,,,,,,,,,,,,
7,2.227,7,2.227,0,74,74,42,1,184,oven,pretzel,,krupa,001,2022-04-14_17h58.17.099,SPAMnetsValid,2021.1.4,Win32,29.97601918,,,,,,,,,,,,,,,,,,,,,,,,,,,,,,,,,,,,,,,,,,,,,,,,,,,,,,,,,,,,,,,,,,,,,,,,,,,,,,,,,,,,,,,,,
3,4.178,3,4.178,0,75,75,66,1,150,microwave,refrigerator,,krupa,001,2022-04-14_17h58.17.099,SPAMnetsValid,2021.1.4,Win32,29.97601918,,,,,,,,,,,,,,,,,,,,,,,,,,,,,,,,,,,,,,,,,,,,,,,,,,,,,,,,,,,,,,,,,,,,,,,,,,,,,,,,,,,,,,,,,
7,2.351,7,2.351,0,76,76,76,1,102,chocolate,refrigerator,,krupa,001,2022-04-14_17h58.17.099,SPAMnetsValid,2021.1.4,Win32,29.97601918,,,,,,,,,,,,,,,,,,,,,,,,,,,,,,,,,,,,,,,,,,,,,,,,,,,,,,,,,,,,,,,,,,,,,,,,,,,,,,,,,,,,,,,,,
2,2.232,2,2.232,0,77,77,91,1,166,cake,yogurt,,krupa,001,2022-04-14_17h58.17.099,SPAMnetsValid,2021.1.4,Win32,29.97601918,,,,,,,,,,,,,,,,,,,,,,,,,,,,,,,,,,,,,,,,,,,,,,,,,,,,,,,,,,,,,,,,,,,,,,,,,,,,,,,,,,,,,,,,,
7,2.786,7,2.786,0,78,78,57,1,127,cactus,chocolate,,krupa,001,2022-04-14_17h58.17.099,SPAMnetsValid,2021.1.4,Win32,29.97601918,,,,,,,,,,,,,,,,,,,,,,,,,,,,,,,,,,,,,,,,,,,,,,,,,,,,,,,,,,,,,,,,,,,,,,,,,,,,,,,,,,,,,,,,,
3,4.567,3,4.567,0,79,79,68,1,180,tree,yogurt,,krupa,001,2022-04-14_17h58.17.099,SPAMnetsValid,2021.1.4,Win32,29.97601918,,,,,,,,,,,,,,,,,,,,,,,,,,,,,,,,,,,,,,,,,,,,,,,,,,,,,,,,,,,,,,,,,,,,,,,,,,,,,,,,,,,,,,,,,
8,2.09,8,2.09,0,80,80,86,1,193,melon,melon,CHECK,krupa,001,2022-04-14_17h58.17.099,SPAMnetsValid,2021.1.4,Win32,29.97601918,,,,,,,,,,,,,,,,,,,,,,,,,,,,,,,,,,,,,,,,,,,,,,,,,,,,,,,,,,,,,,,,,,,,,,,,,,,,,,,,,,,,,,,,,
6,2.084,6,2.084,0,81,81,37,1,139,carrot,strawberry,,krupa,001,2022-04-14_17h58.17.099,SPAMnetsValid,2021.1.4,Win32,29.97601918,,,,,,,,,,,,,,,,,,,,,,,,,,,,,,,,,,,,,,,,,,,,,,,,,,,,,,,,,,,,,,,,,,,,,,,,,,,,,,,,,,,,,,,,,
2,2.327,2,2.327,0,82,82,3,1,129,cactus,refrigerator,,krupa,001,2022-04-14_17h58.17.099,SPAMnetsValid,2021.1.4,Win32,29.97601918,,,,,,,,,,,,,,,,,,,,,,,,,,,,,,,,,,,,,,,,,,,,,,,,,,,,,,,,,,,,,,,,,,,,,,,,,,,,,,,,,,,,,,,,,
7,4.603,7,4.603,0,83,83,69,1,124,oven,refrigerator,,krupa,001,2022-04-14_17h58.17.099,SPAMnetsValid,2021.1.4,Win32,29.97601918,,,,,,,,,,,,,,,,,,,,,,,,,,,,,,,,,,,,,,,,,,,,,,,,,,,,,,,,,,,,,,,,,,,,,,,,,,,,,,,,,,,,,,,,,
3,2.938,3,2.938,0,84,84,21,1,159,cookie,flower,,krupa,001,2022-04-14_17h58.17.099,SPAMnetsValid,2021.1.4,Win32,29.97601918,,,,,,,,,,,,,,,,,,,,,,,,,,,,,,,,,,,,,,,,,,,,,,,,,,,,,,,,,,,,,,,,,,,,,,,,,,,,,,,,,,,,,,,,,
7,2.172,7,2.172,0,85,85,58,1,144,cake,garden,,krupa,001,2022-04-14_17h58.17.099,SPAMnetsValid,2021.1.4,Win32,29.97601918,,,,,,,,,,,,,,,,,,,,,,,,,,,,,,,,,,,,,,,,,,,,,,,,,,,,,,,,,,,,,,,,,,,,,,,,,,,,,,,,,,,,,,,,,
3,6.109,3,6.109,0,86,86,73,1,135,carrot,oven,,krupa,001,2022-04-14_17h58.17.099,SPAMnetsValid,2021.1.4,Win32,29.97601918,,,,,,,,,,,,,,,,,,,,,,,,,,,,,,,,,,,,,,,,,,,,,,,,,,,,,,,,,,,,,,,,,,,,,,,,,,,,,,,,,,,,,,,,,
3,6.226,3,6.226,0,87,87,78,1,132,broom,tree,,krupa,001,2022-04-14_17h58.17.099,SPAMnetsValid,2021.1.4,Win32,29.97601918,,,,,,,,,,,,,,,,,,,,,,,,,,,,,,,,,,,,,,,,,,,,,,,,,,,,,,,,,,,,,,,,,,,,,,,,,,,,,,,,,,,,,,,,,
3,2.004,3,2.004,0,88,88,35,1,147,cake,refrigerator,,krupa,001,2022-04-14_17h58.17.099,SPAMnetsValid,2021.1.4,Win32,29.97601918,,,,,,,,,,,,,,,,,,,,,,,,,,,,,,,,,,,,,,,,,,,,,,,,,,,,,,,,,,,,,,,,,,,,,,,,,,,,,,,,,,,,,,,,,
7,2.664,7,2.664,0,89,89,19,1,183,cake,rose,,krupa,001,2022-04-14_17h58.17.099,SPAMnetsValid,2021.1.4,Win32,29.97601918,,,,,,,,,,,,,,,,,,,,,,,,,,,,,,,,,,,,,,,,,,,,,,,,,,,,,,,,,,,,,,,,,,,,,,,,,,,,,,,,,,,,,,,,,
3,2.184,3,2.184,0,90,90,56,1,113,refrigerator,strawberry,,krupa,001,2022-04-14_17h58.17.099,SPAMnetsValid,2021.1.4,Win32,29.97601918,,,,,,,,,,,,,,,,,,,,,,,,,,,,,,,,,,,,,,,,,,,,,,,,,,,,,,,,,,,,,,,,,,,,,,,,,,,,,,,,,,,,,,,,,
3,2.224,3,2.224,0,91,91,39,1,112,cake,carrot,,krupa,001,2022-04-14_17h58.17.099,SPAMnetsValid,2021.1.4,Win32,29.97601918,,,,,,,,,,,,,,,,,,,,,,,,,,,,,,,,,,,,,,,,,,,,,,,,,,,,,,,,,,,,,,,,,,,,,,,,,,,,,,,,,,,,,,,,,
3,2.075,3,2.075,0,92,92,47,1,167,carrot,garden,,krupa,001,2022-04-14_17h58.17.099,SPAMnetsValid,2021.1.4,Win32,29.97601918,,,,,,,,,,,,,,,,,,,,,,,,,,,,,,,,,,,,,,,,,,,,,,,,,,,,,,,,,,,,,,,,,,,,,,,,,,,,,,,,,,,,,,,,,
3,2.92,3,2.92,0,93,93,15,1,145,cactus,yogurt,,krupa,001,2022-04-14_17h58.17.099,SPAMnetsValid,2021.1.4,Win32,29.97601918,,,,,,,,,,,,,,,,,,,,,,,,,,,,,,,,,,,,,,,,,,,,,,,,,,,,,,,,,,,,,,,,,,,,,,,,,,,,,,,,,,,,,,,,,
4,3.161,4,3.161,0,94,94,52,1,110,chocolate,cookie,,krupa,001,2022-04-14_17h58.17.099,SPAMnetsValid,2021.1.4,Win32,29.97601918,,,,,,,,,,,,,,,,,,,,,,,,,,,,,,,,,,,,,,,,,,,,,,,,,,,,,,,,,,,,,,,,,,,,,,,,,,,,,,,,,,,,,,,,,
6,2.118,6,2.118,0,95,95,96,1,136,chocolate,microwave,,krupa,001,2022-04-14_17h58.17.099,SPAMnetsValid,2021.1.4,Win32,29.97601918,,,,,,,,,,,,,,,,,,,,,,,,,,,,,,,,,,,,,,,,,,,,,,,,,,,,,,,,,,,,,,,,,,,,,,,,,,,,,,,,,,,,,,,,,
7,2.412,7,2.412,0,96,96,43,1,185,cactus,rose,,krupa,001,2022-04-14_17h58.17.099,SPAMnetsValid,2021.1.4,Win32,29.97601918,,,,,,,,,,,,,,,,,,,,,,,,,,,,,,,,,,,,,,,,,,,,,,,,,,,,,,,,,,,,,,,,,,,,,,,,,,,,,,,,,,,,,,,,,
,,,,,,,,,,,,,krupa,001,2022-04-14_17h58.17.099,SPAMnetsValid,2021.1.4,Win32,29.97601918,0,0,0,0,1,,,,,,,,,,,,,,,,,,,,,,,,,,,,,,,,,,,,,,,,,,,,,,,,,,,,,,,,,,,,,,,,,,,,,,,,,,,,,,,,,,,,
,,,,,,,,,,,,,krupa,001,2022-04-14_17h58.17.099,SPAMnetsValid,2021.1.4,Win32,29.97601918,,,,,,0,0,0,1,1,0,1,,,,,,,,,,,,,,,,,,,,,,,,,,,,,,,,,,,,,,,,,,,,,,,,,,,,,,,,,,,,,,,,,,,,,,,,,,,,,
,,7,3.856,,,,,,44,cookie,melon,,krupa,001,2022-04-14_17h58.17.099,SPAMnetsValid,2021.1.4,Win32,29.97601918,,,,,,,,,,,,,7,3.856,0,0,0,92,1,,,,,,,,,,,,,,,,,,,,,,,,,,,,,,,,,,,,,,,,,,,,,,,,,,,,,,,,,,,,,,,,,,,,,,
,,7,2.74,,,,,,74,broom,pretzel,,krupa,001,2022-04-14_17h58.17.099,SPAMnetsValid,2021.1.4,Win32,29.97601918,,,,,,,,,,,,,7,2.74,0,1,1,40,1,,,,,,,,,,,,,,,,,,,,,,,,,,,,,,,,,,,,,,,,,,,,,,,,,,,,,,,,,,,,,,,,,,,,,,
,,3,2.518,,,,,,67,flower,yogurt,,krupa,001,2022-04-14_17h58.17.099,SPAMnetsValid,2021.1.4,Win32,29.97601918,,,,,,,,,,,,,3,2.518,0,2,2,12,1,,,,,,,,,,,,,,,,,,,,,,,,,,,,,,,,,,,,,,,,,,,,,,,,,,,,,,,,,,,,,,,,,,,,,,
,,7,2.08,,,,,,62,kitchen,rose,,krupa,001,2022-04-14_17h58.17.099,SPAMnetsValid,2021.1.4,Win32,29.97601918,,,,,,,,,,,,,7,2.08,0,3,3,57,1,,,,,,,,,,,,,,,,,,,,,,,,,,,,,,,,,,,,,,,,,,,,,,,,,,,,,,,,,,,,,,,,,,,,,,
,,7,2.885,,,,,,43,chocolate,tomato,,krupa,001,2022-04-14_17h58.17.099,SPAMnetsValid,2021.1.4,Win32,29.97601918,,,,,,,,,,,,,7,2.885,0,4,4,8,1,,,,,,,,,,,,,,,,,,,,,,,,,,,,,,,,,,,,,,,,,,,,,,,,,,,,,,,,,,,,,,,,,,,,,,
,,7,2.335,,,,,,83,broom,carrot,,krupa,001,2022-04-14_17h58.17.099,SPAMnetsValid,2021.1.4,Win32,29.97601918,,,,,,,,,,,,,7,2.335,0,5,5,4,1,,,,,,,,,,,,,,,,,,,,,,,,,,,,,,,,,,,,,,,,,,,,,,,,,,,,,,,,,,,,,,,,,,,,,,
,,3,3.78,,,,,,46,garden,yogurt,,krupa,001,2022-04-14_17h58.17.099,SPAMnetsValid,2021.1.4,Win32,29.97601918,,,,,,,,,,,,,3,3.78,0,6,6,65,1,,,,,,,,,,,,,,,,,,,,,,,,,,,,,,,,,,,,,,,,,,,,,,,,,,,,,,,,,,,,,,,,,,,,,,
,,7,1.983,,,,,,47,onion,tomato,,krupa,001,2022-04-14_17h58.17.099,SPAMnetsValid,2021.1.4,Win32,29.97601918,,,,,,,,,,,,,7,1.983,0,7,7,51,1,,,,,,,,,,,,,,,,,,,,,,,,,,,,,,,,,,,,,,,,,,,,,,,,,,,,,,,,,,,,,,,,,,,,,,
,,7,3.561,,,,,,82,cake,kitchen,,krupa,001,2022-04-14_17h58.17.099,SPAMnetsValid,2021.1.4,Win32,29.97601918,,,,,,,,,,,,,7,3.561,0,8,8,96,1,,,,,,,,,,,,,,,,,,,,,,,,,,,,,,,,,,,,,,,,,,,,,,,,,,,,,,,,,,,,,,,,,,,,,,
,,3,2.974,,,,,,95,broom,refrigerator,,krupa,001,2022-04-14_17h58.17.099,SPAMnetsValid,2021.1.4,Win32,29.97601918,,,,,,,,,,,,,3,2.974,0,9,9,90,1,,,,,,,,,,,,,,,,,,,,,,,,,,,,,,,,,,,,,,,,,,,,,,,,,,,,,,,,,,,,,,,,,,,,,,
,,2,1.756,,,,,,19,microwave,pretzel,,krupa,001,2022-04-14_17h58.17.099,SPAMnetsValid,2021.1.4,Win32,29.97601918,,,,,,,,,,,,,2,1.756,0,10,10,41,1,,,,,,,,,,,,,,,,,,,,,,,,,,,,,,,,,,,,,,,,,,,,,,,,,,,,,,,,,,,,,,,,,,,,,,
,,7,1.504,,,,,,39,melon,pretzel,,krupa,001,2022-04-14_17h58.17.099,SPAMnetsValid,2021.1.4,Win32,29.97601918,,,,,,,,,,,,,7,1.504,0,11,11,20,1,,,,,,,,,,,,,,,,,,,,,,,,,,,,,,,,,,,,,,,,,,,,,,,,,,,,,,,,,,,,,,,,,,,,,,
,,3,1.73,,,,,,10,flower,onion,,krupa,001,2022-04-14_17h58.17.099,SPAMnetsValid,2021.1.4,Win32,29.97601918,,,,,,,,,,,,,3,1.73,0,12,12,45,1,,,,,,,,,,,,,,,,,,,,,,,,,,,,,,,,,,,,,,,,,,,,,,,,,,,,,,,,,,,,,,,,,,,,,,
,,2,1.73,,,,,,40,broom,cake,,krupa,001,2022-04-14_17h58.17.099,SPAMnetsValid,2021.1.4,Win32,29.97601918,,,,,,,,,,,,,2,1.73,0,13,13,32,1,,,,,,,,,,,,,,,,,,,,,,,,,,,,,,,,,,,,,,,,,,,,,,,,,,,,,,,,,,,,,,,,,,,,,,
,,3,2.282,,,,,,34,melon,oven,,krupa,001,2022-04-14_17h58.17.099,SPAMnetsValid,2021.1.4,Win32,29.97601918,,,,,,,,,,,,,3,2.282,0,14,14,7,1,,,,,,,,,,,,,,,,,,,,,,,,,,,,,,,,,,,,,,,,,,,,,,,,,,,,,,,,,,,,,,,,,,,,,,
,,7,1.601,,,,,,12,cookie,yogurt,,krupa,001,2022-04-14_17h58.17.099,SPAMnetsValid,2021.1.4,Win32,29.97601918,,,,,,,,,,,,,7,1.601,0,15,15,36,1,,,,,,,,,,,,,,,,,,,,,,,,,,,,,,,,,,,,,,,,,,,,,,,,,,,,,,,,,,,,,,,,,,,,,,
,,8,1.591,,,,,,2,kitchen,onion,,krupa,001,2022-04-14_17h58.17.099,SPAMnetsValid,2021.1.4,Win32,29.97601918,,,,,,,,,,,,,8,1.591,0,16,16,91,1,,,,,,,,,,,,,,,,,,,,,,,,,,,,,,,,,,,,,,,,,,,,,,,,,,,,,,,,,,,,,,,,,,,,,,
,,2,2.169,,,,,,32,cake,microwave,,krupa,001,2022-04-14_17h58.17.099,SPAMnetsValid,2021.1.4,Win32,29.97601918,,,,,,,,,,,,,2,2.169,0,17,17,33,1,,,,,,,,,,,,,,,,,,,,,,,,,,,,,,,,,,,,,,,,,,,,,,,,,,,,,,,,,,,,,,,,,,,,,,
,,3,2.436,,,,,,7,melon,tree,,krupa,001,2022-04-14_17h58.17.099,SPAMnetsValid,2021.1.4,Win32,29.97601918,,,,,,,,,,,,,3,2.436,0,18,18,77,1,,,,,,,,,,,,,,,,,,,,,,,,,,,,,,,,,,,,,,,,,,,,,,,,,,,,,,,,,,,,,,,,,,,,,,
,,3,2.095,,,,,,36,broom,kitchen,,krupa,001,2022-04-14_17h58.17.099,SPAMnetsValid,2021.1.4,Win32,29.97601918,,,,,,,,,,,,,3,2.095,0,19,19,76,1,,,,,,,,,,,,,,,,,,,,,,,,,,,,,,,,,,,,,,,,,,,,,,,,,,,,,,,,,,,,,,,,,,,,,,
,,7,2.051,,,,,,89,chocolate,rose,,krupa,001,2022-04-14_17h58.17.099,SPAMnetsValid,2021.1.4,Win32,29.97601918,,,,,,,,,,,,,7,2.051,0,20,20,60,1,,,,,,,,,,,,,,,,,,,,,,,,,,,,,,,,,,,,,,,,,,,,,,,,,,,,,,,,,,,,,,,,,,,,,,
,,2,4.303,,,,,,1,rose,yogurt,,krupa,001,2022-04-14_17h58.17.099,SPAMnetsValid,2021.1.4,Win32,29.97601918,,,,,,,,,,,,,2,4.303,0,21,21,55,1,,,,,,,,,,,,,,,,,,,,,,,,,,,,,,,,,,,,,,,,,,,,,,,,,,,,,,,,,,,,,,,,,,,,,,
,,7,2.376,,,,,,72,broom,onion,,krupa,001,2022-04-14_17h58.17.099,SPAMnetsValid,2021.1.4,Win32,29.97601918,,,,,,,,,,,,,7,2.376,0,22,22,27,1,,,,,,,,,,,,,,,,,,,,,,,,,,,,,,,,,,,,,,,,,,,,,,,,,,,,,,,,,,,,,,,,,,,,,,
,,7,2.4,,,,,,78,cookie,rose,,krupa,001,2022-04-14_17h58.17.099,SPAMnetsValid,2021.1.4,Win32,29.97601918,,,,,,,,,,,,,7,2.4,0,23,23,56,1,,,,,,,,,,,,,,,,,,,,,,,,,,,,,,,,,,,,,,,,,,,,,,,,,,,,,,,,,,,,,,,,,,,,,,
,,3,1.881,,,,,,28,cake,melon,,krupa,001,2022-04-14_17h58.17.099,SPAMnetsValid,2021.1.4,Win32,29.97601918,,,,,,,,,,,,,3,1.881,0,24,24,54,1,,,,,,,,,,,,,,,,,,,,,,,,,,,,,,,,,,,,,,,,,,,,,,,,,,,,,,,,,,,,,,,,,,,,,,
,,3,2.433,,,,,,59,rose,strawberry,,krupa,001,2022-04-14_17h58.17.099,SPAMnetsValid,2021.1.4,Win32,29.97601918,,,,,,,,,,,,,3,2.433,0,25,25,72,1,,,,,,,,,,,,,,,,,,,,,,,,,,,,,,,,,,,,,,,,,,,,,,,,,,,,,,,,,,,,,,,,,,,,,,
,,7,2.281,,,,,,64,chocolate,garden,,krupa,001,2022-04-14_17h58.17.099,SPAMnetsValid,2021.1.4,Win32,29.97601918,,,,,,,,,,,,,7,2.281,0,26,26,14,1,,,,,,,,,,,,,,,,,,,,,,,,,,,,,,,,,,,,,,,,,,,,,,,,,,,,,,,,,,,,,,,,,,,,,,
,,2,2.184,,,,,,18,onion,refrigerator,,krupa,001,2022-04-14_17h58.17.099,SPAMnetsValid,2021.1.4,Win32,29.97601918,,,,,,,,,,,,,2,2.184,0,27,27,62,1,,,,,,,,,,,,,,,,,,,,,,,,,,,,,,,,,,,,,,,,,,,,,,,,,,,,,,,,,,,,,,,,,,,,,,
,,3,2.99,,,,,,68,flower,tomato,,krupa,001,2022-04-14_17h58.17.099,SPAMnetsValid,2021.1.4,Win32,29.97601918,,,,,,,,,,,,,3,2.99,0,28,28,94,1,,,,,,,,,,,,,,,,,,,,,,,,,,,,,,,,,,,,,,,,,,,,,,,,,,,,,,,,,,,,,,,,,,,,,,
,,7,2.413,,,,,,84,oven,tomato,,krupa,001,2022-04-14_17h58.17.099,SPAMnetsValid,2021.1.4,Win32,29.97601918,,,,,,,,,,,,,7,2.413,0,29,29,28,1,,,,,,,,,,,,,,,,,,,,,,,,,,,,,,,,,,,,,,,,,,,,,,,,,,,,,,,,,,,,,,,,,,,,,,
,,3,1.926,,,,,,13,broom,yogurt,,krupa,001,2022-04-14_17h58.17.099,SPAMnetsValid,2021.1.4,Win32,29.97601918,,,,,,,,,,,,,3,1.926,0,30,30,5,1,,,,,,,,,,,,,,,,,,,,,,,,,,,,,,,,,,,,,,,,,,,,,,,,,,,,,,,,,,,,,,,,,,,,,,
,,7,3.305,,,,,,6,garden,onion,,krupa,001,2022-04-14_17h58.17.099,SPAMnetsValid,2021.1.4,Win32,29.97601918,,,,,,,,,,,,,7,3.305,0,31,31,83,1,,,,,,,,,,,,,,,,,,,,,,,,,,,,,,,,,,,,,,,,,,,,,,,,,,,,,,,,,,,,,,,,,,,,,,
,,8,2.005,,,,,,50,carrot,rose,,krupa,001,2022-04-14_17h58.17.099,SPAMnetsValid,2021.1.4,Win32,29.97601918,,,,,,,,,,,,,8,2.005,0,32,32,73,1,,,,,,,,,,,,,,,,,,,,,,,,,,,,,,,,,,,,,,,,,,,,,,,,,,,,,,,,,,,,,,,,,,,,,,
,,7,2.31,,,,,,63,cake,cookie,,krupa,001,2022-04-14_17h58.17.099,SPAMnetsValid,2021.1.4,Win32,29.97601918,,,,,,,,,,,,,7,2.31,0,33,33,93,1,,,,,,,,,,,,,,,,,,,,,,,,,,,,,,,,,,,,,,,,,,,,,,,,,,,,,,,,,,,,,,,,,,,,,,
,,8,2.441,,,,,,92,broom,flower,,krupa,001,2022-04-14_17h58.17.099,SPAMnetsValid,2021.1.4,Win32,29.97601918,,,,,,,,,,,,,8,2.441,0,34,34,88,1,,,,,,,,,,,,,,,,,,,,,,,,,,,,,,,,,,,,,,,,,,,,,,,,,,,,,,,,,,,,,,,,,,,,,,
,,2,2.548,,,,,,42,garden,kitchen,,krupa,001,2022-04-14_17h58.17.099,SPAMnetsValid,2021.1.4,Win32,29.97601918,,,,,,,,,,,,,2,2.548,0,35,35,29,1,,,,,,,,,,,,,,,,,,,,,,,,,,,,,,,,,,,,,,,,,,,,,,,,,,,,,,,,,,,,,,,,,,,,,,
,,7,4.788,,,,,,24,cookie,tomato,,krupa,001,2022-04-14_17h58.17.099,SPAMnetsValid,2021.1.4,Win32,29.97601918,,,,,,,,,,,,,7,4.788,0,36,36,68,1,,,,,,,,,,,,,,,,,,,,,,,,,,,,,,,,,,,,,,,,,,,,,,,,,,,,,,,,,,,,,,,,,,,,,,
,,7,3.191,,,,,,52,carrot,tomato,,krupa,001,2022-04-14_17h58.17.099,SPAMnetsValid,2021.1.4,Win32,29.97601918,,,,,,,,,,,,,7,3.191,0,37,37,95,1,,,,,,,,,,,,,,,,,,,,,,,,,,,,,,,,,,,,,,,,,,,,,,,,,,,,,,,,,,,,,,,,,,,,,,
,,7,2.016,,,,,,56,cactus,tree,,krupa,001,2022-04-14_17h58.17.099,SPAMnetsValid,2021.1.4,Win32,29.97601918,,,,,,,,,,,,,7,2.016,0,38,38,21,1,,,,,,,,,,,,,,,,,,,,,,,,,,,,,,,,,,,,,,,,,,,,,,,,,,,,,,,,,,,,,,,,,,,,,,
,,8,1.856,,,,,,38,pretzel,refrigerator,,krupa,001,2022-04-14_17h58.17.099,SPAMnetsValid,2021.1.4,Win32,29.97601918,,,,,,,,,,,,,8,1.856,0,39,39,71,1,,,,,,,,,,,,,,,,,,,,,,,,,,,,,,,,,,,,,,,,,,,,,,,,,,,,,,,,,,,,,,,,,,,,,,
,,3,2.103,,,,,,55,tomato,tree,,krupa,001,2022-04-14_17h58.17.099,SPAMnetsValid,2021.1.4,Win32,29.97601918,,,,,,,,,,,,,3,2.103,0,40,40,35,1,,,,,,,,,,,,,,,,,,,,,,,,,,,,,,,,,,,,,,,,,,,,,,,,,,,,,,,,,,,,,,,,,,,,,,
,,7,2.414,,,,,,51,onion,strawberry,,krupa,001,2022-04-14_17h58.17.099,SPAMnetsValid,2021.1.4,Win32,29.97601918,,,,,,,,,,,,,7,2.414,0,41,41,86,1,,,,,,,,,,,,,,,,,,,,,,,,,,,,,,,,,,,,,,,,,,,,,,,,,,,,,,,,,,,,,,,,,,,,,,
,,2,2.781,,,,,,58,garden,oven,,krupa,001,2022-04-14_17h58.17.099,SPAMnetsValid,2021.1.4,Win32,29.97601918,,,,,,,,,,,,,2,2.781,0,42,42,37,1,,,,,,,,,,,,,,,,,,,,,,,,,,,,,,,,,,,,,,,,,,,,,,,,,,,,,,,,,,,,,,,,,,,,,,
,,3,3.641,,,,,,69,carrot,refrigerator,,krupa,001,2022-04-14_17h58.17.099,SPAMnetsValid,2021.1.4,Win32,29.97601918,,,,,,,,,,,,,3,3.641,0,43,43,75,1,,,,,,,,,,,,,,,,,,,,,,,,,,,,,,,,,,,,,,,,,,,,,,,,,,,,,,,,,,,,,,,,,,,,,,
,,3,47.337,,,,,,14,broom,cookie,,krupa,001,2022-04-14_17h58.17.099,SPAMnetsValid,2021.1.4,Win32,29.97601918,,,,,,,,,,,,,3,47.337,0,44,44,16,1,,,,,,,,,,,,,,,,,,,,,,,,,,,,,,,,,,,,,,,,,,,,,,,,,,,,,,,,,,,,,,,,,,,,,,
,,3,2.059,,,,,,53,garden,pretzel,,krupa,001,2022-04-14_17h58.17.099,SPAMnetsValid,2021.1.4,Win32,29.97601918,,,,,,,,,,,,,3,2.059,0,45,45,0,1,,,,,,,,,,,,,,,,,,,,,,,,,,,,,,,,,,,,,,,,,,,,,,,,,,,,,,,,,,,,,,,,,,,,,,
,,7,2.287,,,,,,86,oven,rose,,krupa,001,2022-04-14_17h58.17.099,SPAMnetsValid,2021.1.4,Win32,29.97601918,,,,,,,,,,,,,7,2.287,0,46,46,79,1,,,,,,,,,,,,,,,,,,,,,,,,,,,,,,,,,,,,,,,,,,,,,,,,,,,,,,,,,,,,,,,,,,,,,,
,,3,2.465,,,,,,60,cactus,onion,,krupa,001,2022-04-14_17h58.17.099,SPAMnetsValid,2021.1.4,Win32,29.97601918,,,,,,,,,,,,,3,2.465,0,47,47,81,1,,,,,,,,,,,,,,,,,,,,,,,,,,,,,,,,,,,,,,,,,,,,,,,,,,,,,,,,,,,,,,,,,,,,,,
,,3,2.469,,,,,,3,cake,oven,,krupa,001,2022-04-14_17h58.17.099,SPAMnetsValid,2021.1.4,Win32,29.97601918,,,,,,,,,,,,,3,2.469,0,48,48,30,1,,,,,,,,,,,,,,,,,,,,,,,,,,,,,,,,,,,,,,,,,,,,,,,,,,,,,,,,,,,,,,,,,,,,,,
,,3,3.22,,,,,,87,carrot,yogurt,,krupa,001,2022-04-14_17h58.17.099,SPAMnetsValid,2021.1.4,Win32,29.97601918,,,,,,,,,,,,,3,3.22,0,49,49,6,1,,,,,,,,,,,,,,,,,,,,,,,,,,,,,,,,,,,,,,,,,,,,,,,,,,,,,,,,,,,,,,,,,,,,,,
,,7,2.644,,,,,,191,cake,cake,CHECK,krupa,001,2022-04-14_17h58.17.099,SPAMnetsValid,2021.1.4,Win32,29.97601918,,,,,,,,,,,,,7,2.644,0,50,50,10,1,,,,,,,,,,,,,,,,,,,,,,,,,,,,,,,,,,,,,,,,,,,,,,,,,,,,,,,,,,,,,,,,,,,,,,
,,3,2.387,,,,,,45,onion,pretzel,,krupa,001,2022-04-14_17h58.17.099,SPAMnetsValid,2021.1.4,Win32,29.97601918,,,,,,,,,,,,,3,2.387,0,51,51,69,1,,,,,,,,,,,,,,,,,,,,,,,,,,,,,,,,,,,,,,,,,,,,,,,,,,,,,,,,,,,,,,,,,,,,,,
,,3,1.8,,,,,,192,microwave,microwave,CHECK,krupa,001,2022-04-14_17h58.17.099,SPAMnetsValid,2021.1.4,Win32,29.97601918,,,,,,,,,,,,,3,1.8,0,52,52,53,1,,,,,,,,,,,,,,,,,,,,,,,,,,,,,,,,,,,,,,,,,,,,,,,,,,,,,,,,,,,,,,,,,,,,,,
,,7,2.157,,,,,,71,broom,rose,,krupa,001,2022-04-14_17h58.17.099,SPAMnetsValid,2021.1.4,Win32,29.97601918,,,,,,,,,,,,,7,2.157,0,53,53,61,1,,,,,,,,,,,,,,,,,,,,,,,,,,,,,,,,,,,,,,,,,,,,,,,,,,,,,,,,,,,,,,,,,,,,,,
,,7,2.096,,,,,,81,pretzel,yogurt,,krupa,001,2022-04-14_17h58.17.099,SPAMnetsValid,2021.1.4,Win32,29.97601918,,,,,,,,,,,,,7,2.096,0,54,54,50,1,,,,,,,,,,,,,,,,,,,,,,,,,,,,,,,,,,,,,,,,,,,,,,,,,,,,,,,,,,,,,,,,,,,,,,
,,7,2.512,,,,,,49,flower,strawberry,,krupa,001,2022-04-14_17h58.17.099,SPAMnetsValid,2021.1.4,Win32,29.97601918,,,,,,,,,,,,,7,2.512,0,55,55,3,1,,,,,,,,,,,,,,,,,,,,,,,,,,,,,,,,,,,,,,,,,,,,,,,,,,,,,,,,,,,,,,,,,,,,,,
,,3,1.922,,,,,,75,cookie,onion,,krupa,001,2022-04-14_17h58.17.099,SPAMnetsValid,2021.1.4,Win32,29.97601918,,,,,,,,,,,,,3,1.922,0,56,56,9,1,,,,,,,,,,,,,,,,,,,,,,,,,,,,,,,,,,,,,,,,,,,,,,,,,,,,,,,,,,,,,,,,,,,,,,
,,7,3.854,,,,,,11,refrigerator,tree,,krupa,001,2022-04-14_17h58.17.099,SPAMnetsValid,2021.1.4,Win32,29.97601918,,,,,,,,,,,,,7,3.854,0,57,57,43,1,,,,,,,,,,,,,,,,,,,,,,,,,,,,,,,,,,,,,,,,,,,,,,,,,,,,,,,,,,,,,,,,,,,,,,
,,3,1.981,,,,,,93,kitchen,oven,,krupa,001,2022-04-14_17h58.17.099,SPAMnetsValid,2021.1.4,Win32,29.97601918,,,,,,,,,,,,,3,1.981,0,58,58,82,1,,,,,,,,,,,,,,,,,,,,,,,,,,,,,,,,,,,,,,,,,,,,,,,,,,,,,,,,,,,,,,,,,,,,,,
,,3,2.088,,,,,,4,chocolate,pretzel,,krupa,001,2022-04-14_17h58.17.099,SPAMnetsValid,2021.1.4,Win32,29.97601918,,,,,,,,,,,,,3,2.088,0,59,59,52,1,,,,,,,,,,,,,,,,,,,,,,,,,,,,,,,,,,,,,,,,,,,,,,,,,,,,,,,,,,,,,,,,,,,,,,
,,7,1.962,,,,,,37,garden,refrigerator,,krupa,001,2022-04-14_17h58.17.099,SPAMnetsValid,2021.1.4,Win32,29.97601918,,,,,,,,,,,,,7,1.962,0,60,60,11,1,,,,,,,,,,,,,,,,,,,,,,,,,,,,,,,,,,,,,,,,,,,,,,,,,,,,,,,,,,,,,,,,,,,,,,
,,3,2.905,,,,,,90,cactus,cake,,krupa,001,2022-04-14_17h58.17.099,SPAMnetsValid,2021.1.4,Win32,29.97601918,,,,,,,,,,,,,3,2.905,0,61,61,85,1,,,,,,,,,,,,,,,,,,,,,,,,,,,,,,,,,,,,,,,,,,,,,,,,,,,,,,,,,,,,,,,,,,,,,,
,,3,2.043,,,,,,88,cactus,melon,,krupa,001,2022-04-14_17h58.17.099,SPAMnetsValid,2021.1.4,Win32,29.97601918,,,,,,,,,,,,,3,2.043,0,62,62,38,1,,,,,,,,,,,,,,,,,,,,,,,,,,,,,,,,,,,,,,,,,,,,,,,,,,,,,,,,,,,,,,,,,,,,,,
,,7,2.951,,,,,,29,chocolate,melon,,krupa,001,2022-04-14_17h58.17.099,SPAMnetsValid,2021.1.4,Win32,29.97601918,,,,,,,,,,,,,7,2.951,0,63,63,34,1,,,,,,,,,,,,,,,,,,,,,,,,,,,,,,,,,,,,,,,,,,,,,,,,,,,,,,,,,,,,,,,,,,,,,,
,,3,2.727,,,,,,57,flower,kitchen,,krupa,001,2022-04-14_17h58.17.099,SPAMnetsValid,2021.1.4,Win32,29.97601918,,,,,,,,,,,,,3,2.727,0,64,64,49,1,,,,,,,,,,,,,,,,,,,,,,,,,,,,,,,,,,,,,,,,,,,,,,,,,,,,,,,,,,,,,,,,,,,,,,
,,2,6.937,,,,,,35,flower,pretzel,,krupa,001,2022-04-14_17h58.17.099,SPAMnetsValid,2021.1.4,Win32,29.97601918,,,,,,,,,,,,,2,6.937,0,65,65,26,1,,,,,,,,,,,,,,,,,,,,,,,,,,,,,,,,,,,,,,,,,,,,,,,,,,,,,,,,,,,,,,,,,,,,,,
,,7,2.457,,,,,,8,broom,melon,,krupa,001,2022-04-14_17h58.17.099,SPAMnetsValid,2021.1.4,Win32,29.97601918,,,,,,,,,,,,,7,2.457,0,66,66,59,1,,,,,,,,,,,,,,,,,,,,,,,,,,,,,,,,,,,,,,,,,,,,,,,,,,,,,,,,,,,,,,,,,,,,,,
,,7,3.298,,,,,,94,kitchen,microwave,,krupa,001,2022-04-14_17h58.17.099,SPAMnetsValid,2021.1.4,Win32,29.97601918,,,,,,,,,,,,,7,3.298,0,67,67,58,1,,,,,,,,,,,,,,,,,,,,,,,,,,,,,,,,,,,,,,,,,,,,,,,,,,,,,,,,,,,,,,,,,,,,,,
,,7,2.285,,,,,,22,kitchen,strawberry,,krupa,001,2022-04-14_17h58.17.099,SPAMnetsValid,2021.1.4,Win32,29.97601918,,,,,,,,,,,,,7,2.285,0,68,68,2,1,,,,,,,,,,,,,,,,,,,,,,,,,,,,,,,,,,,,,,,,,,,,,,,,,,,,,,,,,,,,,,,,,,,,,,
,,7,2.894,,,,,,80,chocolate,tree,,krupa,001,2022-04-14_17h58.17.099,SPAMnetsValid,2021.1.4,Win32,29.97601918,,,,,,,,,,,,,7,2.894,0,69,69,89,1,,,,,,,,,,,,,,,,,,,,,,,,,,,,,,,,,,,,,,,,,,,,,,,,,,,,,,,,,,,,,,,,,,,,,,
,,7,2.521,,,,,,33,oven,yogurt,,krupa,001,2022-04-14_17h58.17.099,SPAMnetsValid,2021.1.4,Win32,29.97601918,,,,,,,,,,,,,7,2.521,0,70,70,31,1,,,,,,,,,,,,,,,,,,,,,,,,,,,,,,,,,,,,,,,,,,,,,,,,,,,,,,,,,,,,,,,,,,,,,,
,,3,4.391,,,,,,77,refrigerator,yogurt,,krupa,001,2022-04-14_17h58.17.099,SPAMnetsValid,2021.1.4,Win32,29.97601918,,,,,,,,,,,,,3,4.391,0,71,71,42,1,,,,,,,,,,,,,,,,,,,,,,,,,,,,,,,,,,,,,,,,,,,,,,,,,,,,,,,,,,,,,,,,,,,,,,
,,3,2.486,,,,,,54,chocolate,yogurt,,krupa,001,2022-04-14_17h58.17.099,SPAMnetsValid,2021.1.4,Win32,29.97601918,,,,,,,,,,,,,3,2.486,0,72,72,67,1,,,,,,,,,,,,,,,,,,,,,,,,,,,,,,,,,,,,,,,,,,,,,,,,,,,,,,,,,,,,,,,,,,,,,,
,,3,4.703,,,,,,23,flower,microwave,,krupa,001,2022-04-14_17h58.17.099,SPAMnetsValid,2021.1.4,Win32,29.97601918,,,,,,,,,,,,,3,4.703,0,73,73,25,1,,,,,,,,,,,,,,,,,,,,,,,,,,,,,,,,,,,,,,,,,,,,,,,,,,,,,,,,,,,,,,,,,,,,,,
,,7,2.224,,,,,,73,broom,chocolate,,krupa,001,2022-04-14_17h58.17.099,SPAMnetsValid,2021.1.4,Win32,29.97601918,,,,,,,,,,,,,7,2.224,0,74,74,47,1,,,,,,,,,,,,,,,,,,,,,,,,,,,,,,,,,,,,,,,,,,,,,,,,,,,,,,,,,,,,,,,,,,,,,,
,,7,2.201,,,,,,85,cake,tree,,krupa,001,2022-04-14_17h58.17.099,SPAMnetsValid,2021.1.4,Win32,29.97601918,,,,,,,,,,,,,7,2.201,0,75,75,18,1,,,,,,,,,,,,,,,,,,,,,,,,,,,,,,,,,,,,,,,,,,,,,,,,,,,,,,,,,,,,,,,,,,,,,,
,,3,4.793,,,,,,76,garden,rose,,krupa,001,2022-04-14_17h58.17.099,SPAMnetsValid,2021.1.4,Win32,29.97601918,,,,,,,,,,,,,3,4.793,0,76,76,19,1,,,,,,,,,,,,,,,,,,,,,,,,,,,,,,,,,,,,,,,,,,,,,,,,,,,,,,,,,,,,,,,,,,,,,,
,,2,2.27,,,,,,27,cactus,cookie,,krupa,001,2022-04-14_17h58.17.099,SPAMnetsValid,2021.1.4,Win32,29.97601918,,,,,,,,,,,,,2,2.27,0,77,77,17,1,,,,,,,,,,,,,,,,,,,,,,,,,,,,,,,,,,,,,,,,,,,,,,,,,,,,,,,,,,,,,,,,,,,,,,
,,2,2.264,,,,,,20,rose,tree,,krupa,001,2022-04-14_17h58.17.099,SPAMnetsValid,2021.1.4,Win32,29.97601918,,,,,,,,,,,,,2,2.264,0,78,78,66,1,,,,,,,,,,,,,,,,,,,,,,,,,,,,,,,,,,,,,,,,,,,,,,,,,,,,,,,,,,,,,,,,,,,,,,
,,3,4.244,,,,,,26,tomato,yogurt,,krupa,001,2022-04-14_17h58.17.099,SPAMnetsValid,2021.1.4,Win32,29.97601918,,,,,,,,,,,,,3,4.244,0,79,79,13,1,,,,,,,,,,,,,,,,,,,,,,,,,,,,,,,,,,,,,,,,,,,,,,,,,,,,,,,,,,,,,,,,,,,,,,
,,7,8.266,,,,,,16,chocolate,flower,,krupa,001,2022-04-14_17h58.17.099,SPAMnetsValid,2021.1.4,Win32,29.97601918,,,,,,,,,,,,,7,8.266,0,80,80,22,1,,,,,,,,,,,,,,,,,,,,,,,,,,,,,,,,,,,,,,,,,,,,,,,,,,,,,,,,,,,,,,,,,,,,,,
,,3,3.09,,,,,,70,chocolate,onion,,krupa,001,2022-04-14_17h58.17.099,SPAMnetsValid,2021.1.4,Win32,29.97601918,,,,,,,,,,,,,3,3.09,0,81,81,74,1,,,,,,,,,,,,,,,,,,,,,,,,,,,,,,,,,,,,,,,,,,,,,,,,,,,,,,,,,,,,,,,,,,,,,,
,,7,2.038,,,,,,65,broom,garden,,krupa,001,2022-04-14_17h58.17.099,SPAMnetsValid,2021.1.4,Win32,29.97601918,,,,,,,,,,,,,7,2.038,0,82,82,23,1,,,,,,,,,,,,,,,,,,,,,,,,,,,,,,,,,,,,,,,,,,,,,,,,,,,,,,,,,,,,,,,,,,,,,,
,,7,2.115,,,,,,5,oven,tree,,krupa,001,2022-04-14_17h58.17.099,SPAMnetsValid,2021.1.4,Win32,29.97601918,,,,,,,,,,,,,7,2.115,0,83,83,70,1,,,,,,,,,,,,,,,,,,,,,,,,,,,,,,,,,,,,,,,,,,,,,,,,,,,,,,,,,,,,,,,,,,,,,,
,,3,2.976,,,,,,61,strawberry,tomato,,krupa,001,2022-04-14_17h58.17.099,SPAMnetsValid,2021.1.4,Win32,29.97601918,,,,,,,,,,,,,3,2.976,0,84,84,80,1,,,,,,,,,,,,,,,,,,,,,,,,,,,,,,,,,,,,,,,,,,,,,,,,,,,,,,,,,,,,,,,,,,,,,,
,,3,2.822,,,,,,31,cactus,pretzel,,krupa,001,2022-04-14_17h58.17.099,SPAMnetsValid,2021.1.4,Win32,29.97601918,,,,,,,,,,,,,3,2.822,0,85,85,1,1,,,,,,,,,,,,,,,,,,,,,,,,,,,,,,,,,,,,,,,,,,,,,,,,,,,,,,,,,,,,,,,,,,,,,,
,,7,2.93,,,,,,30,cookie,pretzel,,krupa,001,2022-04-14_17h58.17.099,SPAMnetsValid,2021.1.4,Win32,29.97601918,,,,,,,,,,,,,7,2.93,0,86,86,78,1,,,,,,,,,,,,,,,,,,,,,,,,,,,,,,,,,,,,,,,,,,,,,,,,,,,,,,,,,,,,,,,,,,,,,,
,,3,2.434,,,,,,21,cake,onion,,krupa,001,2022-04-14_17h58.17.099,SPAMnetsValid,2021.1.4,Win32,29.97601918,,,,,,,,,,,,,3,2.434,0,87,87,63,1,,,,,,,,,,,,,,,,,,,,,,,,,,,,,,,,,,,,,,,,,,,,,,,,,,,,,,,,,,,,,,,,,,,,,,
,,4,2.14,,,,,,25,carrot,onion,,krupa,001,2022-04-14_17h58.17.099,SPAMnetsValid,2021.1.4,Win32,29.97601918,,,,,,,,,,,,,4,2.14,0,88,88,44,1,,,,,,,,,,,,,,,,,,,,,,,,,,,,,,,,,,,,,,,,,,,,,,,,,,,,,,,,,,,,,,,,,,,,,,
,,6,3.253,,,,,,79,garden,strawberry,,krupa,001,2022-04-14_17h58.17.099,SPAMnetsValid,2021.1.4,Win32,29.97601918,,,,,,,,,,,,,6,3.253,0,89,89,87,1,,,,,,,,,,,,,,,,,,,,,,,,,,,,,,,,,,,,,,,,,,,,,,,,,,,,,,,,,,,,,,,,,,,,,,
,,4,3.385,,,,,,48,flower,oven,,krupa,001,2022-04-14_17h58.17.099,SPAMnetsValid,2021.1.4,Win32,29.97601918,,,,,,,,,,,,,4,3.385,0,90,90,15,1,,,,,,,,,,,,,,,,,,,,,,,,,,,,,,,,,,,,,,,,,,,,,,,,,,,,,,,,,,,,,,,,,,,,,,
,,6,1.993,,,,,,9,kitchen,refrigerator,,krupa,001,2022-04-14_17h58.17.099,SPAMnetsValid,2021.1.4,Win32,29.97601918,,,,,,,,,,,,,6,1.993,0,91,91,64,1,,,,,,,,,,,,,,,,,,,,,,,,,,,,,,,,,,,,,,,,,,,,,,,,,,,,,,,,,,,,,,,,,,,,,,
,,4,1.803,,,,,,15,onion,oven,,krupa,001,2022-04-14_17h58.17.099,SPAMnetsValid,2021.1.4,Win32,29.97601918,,,,,,,,,,,,,4,1.803,0,92,92,39,1,,,,,,,,,,,,,,,,,,,,,,,,,,,,,,,,,,,,,,,,,,,,,,,,,,,,,,,,,,,,,,,,,,,,,,
,,6,2.058,,,,,,41,broom,cactus,,krupa,001,2022-04-14_17h58.17.099,SPAMnetsValid,2021.1.4,Win32,29.97601918,,,,,,,,,,,,,6,2.058,0,93,93,46,1,,,,,,,,,,,,,,,,,,,,,,,,,,,,,,,,,,,,,,,,,,,,,,,,,,,,,,,,,,,,,,,,,,,,,,
,,3,2.227,,,,,,66,melon,yogurt,,krupa,001,2022-04-14_17h58.17.099,SPAMnetsValid,2021.1.4,Win32,29.97601918,,,,,,,,,,,,,3,2.227,0,94,94,48,1,,,,,,,,,,,,,,,,,,,,,,,,,,,,,,,,,,,,,,,,,,,,,,,,,,,,,,,,,,,,,,,,,,,,,,
,,3,3.227,,,,,,17,carrot,melon,,krupa,001,2022-04-14_17h58.17.099,SPAMnetsValid,2021.1.4,Win32,29.97601918,,,,,,,,,,,,,3,3.227,0,95,95,24,1,,,,,,,,,,,,,,,,,,,,,,,,,,,,,,,,,,,,,,,,,,,,,,,,,,,,,,,,,,,,,,,,,,,,,,
,,7,5.122,,,,,,91,microwave,rose,,krupa,001,2022-04-14_17h58.17.099,SPAMnetsValid,2021.1.4,Win32,29.97601918,,,,,,,,,,,,,7,5.122,0,96,96,84,1,,,,,,,,,,,,,,,,,,,,,,,,,,,,,,,,,,,,,,,,,,,,,,,,,,,,,,,,,,,,,,,,,,,,,,
,,,,,,,,,,,,,krupa,001,2022-04-14_17h58.17.099,SPAMnetsValid,2021.1.4,Win32,29.97601918,,,,,,,,,,,,,,,,,,,,0,0,0,0,1,,,,,,,,,,,,,,,,,,,,,,,,,,,,,,,,,,,,,,,,,,,,,,,,,,,,,,,,,,,,,,,,,
,,,,,,,,,,,,,krupa,001,2022-04-14_17h58.17.099,SPAMnetsValid,2021.1.4,Win32,29.97601918,,,,,,0,1,1,0,1,1,0,,,,,,,,,,,,,,,,,,,,,,,,,,,,,,,,,,,,,,,,,,,,,,,,,,,,,,,,,,,,,,,,,,,,,,,,,,,,,
,,,,,,,,,,,,,krupa,001,2022-04-14_17h58.17.099,SPAMnetsValid,2021.1.4,Win32,29.97601918,,,,,,,,,,,,,,,,,,,,,,,,,3,3.166,0,0,0,0,1,rancor,forbearance,ridicule,malice,bravery,3,,,,,,,,,,,,,,,,,,,,,,,,,,,,,,,,,,,,,,,,,,,,,,,,,,,,
,,,,,,,,,,,,,krupa,001,2022-04-14_17h58.17.099,SPAMnetsValid,2021.1.4,Win32,29.97601918,,,,,,,,,,,,,,,,,,,,,,,,,3,1.698,0,1,1,1,1,raucous,empty,quiet,smooth,harsh,4,,,,,,,,,,,,,,,,,,,,,,,,,,,,,,,,,,,,,,,,,,,,,,,,,,,,
,,,,,,,,,,,,,krupa,001,2022-04-14_17h58.17.099,SPAMnetsValid,2021.1.4,Win32,29.97601918,,,,,,,,,,,,,,,,,,,,,,,,,2,1.282,0,2,2,2,1,gargoyle,oil,medicine,carved waterspout,ugly building,3,,,,,,,,,,,,,,,,,,,,,,,,,,,,,,,,,,,,,,,,,,,,,,,,,,,,
,,,,,,,,,,,,,krupa,001,2022-04-14_17h58.17.099,SPAMnetsValid,2021.1.4,Win32,29.97601918,,,,,,,,,,,,,,,,,,,,,,,,,3,1.623,0,3,3,3,1,recrudesce,purify,renew activity,lack refinement,crush,2,,,,,,,,,,,,,,,,,,,,,,,,,,,,,,,,,,,,,,,,,,,,,,,,,,,,
,,,,,,,,,,,,,krupa,001,2022-04-14_17h58.17.099,SPAMnetsValid,2021.1.4,Win32,29.97601918,,,,,,,,,,,,,,,,,,,,,,,,,2,1.698,0,4,4,4,1,specious,"plausible, but not genuine",noteworthy,class or variety,roomy,1,,,,,,,,,,,,,,,,,,,,,,,,,,,,,,,,,,,,,,,,,,,,,,,,,,,,
,,,,,,,,,,,,,krupa,001,2022-04-14_17h58.17.099,SPAMnetsValid,2021.1.4,Win32,29.97601918,,,,,,,,,,,,,,,,,,,,,,,,,2,0.922,0,5,5,5,1,bauble,bubble,showy plaything,idle talk,confusion,2,,,,,,,,,,,,,,,,,,,,,,,,,,,,,,,,,,,,,,,,,,,,,,,,,,,,
,,,,,,,,,,,,,krupa,001,2022-04-14_17h58.17.099,SPAMnetsValid,2021.1.4,Win32,29.97601918,,,,,,,,,,,,,,,,,,,,,,,,,2,0.697,0,6,6,6,1,prolific,scarce,producing abundantly,reckless,speaking profanely,2,,,,,,,,,,,,,,,,,,,,,,,,,,,,,,,,,,,,,,,,,,,,,,,,,,,,
,,,,,,,,,,,,,krupa,001,2022-04-14_17h58.17.099,SPAMnetsValid,2021.1.4,Win32,29.97601918,,,,,,,,,,,,,,,,,,,,,,,,,3,1.522,0,7,7,7,1,opulent,party,wealthy,happy frame of mind,semiprecious stone,2,,,,,,,,,,,,,,,,,,,,,,,,,,,,,,,,,,,,,,,,,,,,,,,,,,,,
,,,,,,,,,,,,,krupa,001,2022-04-14_17h58.17.099,SPAMnetsValid,2021.1.4,Win32,29.97601918,,,,,,,,,,,,,,,,,,,,,,,,,2,1.502,0,8,8,8,1,coercion,conspiracy,strategy,restraint,attraction,3,,,,,,,,,,,,,,,,,,,,,,,,,,,,,,,,,,,,,,,,,,,,,,,,,,,,
,,,,,,,,,,,,,krupa,001,2022-04-14_17h58.17.099,SPAMnetsValid,2021.1.4,Win32,29.97601918,,,,,,,,,,,,,,,,,,,,,,,,,2,0.968,0,9,9,9,1,hiatus,animal,calamity,dread,gap,4,,,,,,,,,,,,,,,,,,,,,,,,,,,,,,,,,,,,,,,,,,,,,,,,,,,,
,,,,,,,,,,,,,krupa,001,2022-04-14_17h58.17.099,SPAMnetsValid,2021.1.4,Win32,29.97601918,,,,,,,,,,,,,,,,,,,,,,,,,2,0.793,0,10,10,10,1,germane,microbe,contagious,relevant,different,3,,,,,,,,,,,,,,,,,,,,,,,,,,,,,,,,,,,,,,,,,,,,,,,,,,,,
,,,,,,,,,,,,,krupa,001,2022-04-14_17h58.17.099,SPAMnetsValid,2021.1.4,Win32,29.97601918,,,,,,,,,,,,,,,,,,,,,,,,,3,1.467,0,11,11,11,1,perfunctory,fundamental,formal,superficial,careful,3,,,,,,,,,,,,,,,,,,,,,,,,,,,,,,,,,,,,,,,,,,,,,,,,,,,,
,,,,,,,,,,,,,krupa,001,2022-04-14_17h58.17.099,SPAMnetsValid,2021.1.4,Win32,29.97601918,,,,,,,,,,,,,,,,,,,,,,,,,2,1.742,0,12,12,12,1,diverge,reveal,chant,distract the attention of,differ or turn off from,4,,,,,,,,,,,,,,,,,,,,,,,,,,,,,,,,,,,,,,,,,,,,,,,,,,,,
,,,,,,,,,,,,,krupa,001,2022-04-14_17h58.17.099,SPAMnetsValid,2021.1.4,Win32,29.97601918,,,,,,,,,,,,,,,,,,,,,,,,,3,1.703,0,13,13,13,1,evoke,take away,anger,connect,bring out,4,,,,,,,,,,,,,,,,,,,,,,,,,,,,,,,,,,,,,,,,,,,,,,,,,,,,
,,,,,,,,,,,,,krupa,001,2022-04-14_17h58.17.099,SPAMnetsValid,2021.1.4,Win32,29.97601918,,,,,,,,,,,,,,,,,,,,,,,,,3,2.604,0,14,14,14,1,pertinent,relevant,lying next to,necessary,bold,1,,,,,,,,,,,,,,,,,,,,,,,,,,,,,,,,,,,,,,,,,,,,,,,,,,,,
,,,,,,,,,,,,,krupa,001,2022-04-14_17h58.17.099,SPAMnetsValid,2021.1.4,Win32,29.97601918,,,,,,,,,,,,,,,,,,,,,,,,,2,1.372,0,15,15,15,1,holocaust,entirety,destruction,saintly,price,2,,,,,,,,,,,,,,,,,,,,,,,,,,,,,,,,,,,,,,,,,,,,,,,,,,,,
,,,,,,,,,,,,,krupa,001,2022-04-14_17h58.17.099,SPAMnetsValid,2021.1.4,Win32,29.97601918,,,,,,,,,,,,,,,,,,,,,,,,,3,1.504,0,16,16,16,1,piquant,mellow,fish,pungent,cloth,3,,,,,,,,,,,,,,,,,,,,,,,,,,,,,,,,,,,,,,,,,,,,,,,,,,,,
,,,,,,,,,,,,,krupa,001,2022-04-14_17h58.17.099,SPAMnetsValid,2021.1.4,Win32,29.97601918,,,,,,,,,,,,,,,,,,,,,,,,,2,1.391,0,17,17,17,1,firmament,foundation,heavens,strong,glue,2,,,,,,,,,,,,,,,,,,,,,,,,,,,,,,,,,,,,,,,,,,,,,,,,,,,,
,,,,,,,,,,,,,krupa,001,2022-04-14_17h58.17.099,SPAMnetsValid,2021.1.4,Win32,29.97601918,,,,,,,,,,,,,,,,,,,,,,,,,,,,,,,,,,,,,,2,1.623,0,0,0,0,1,marketable,partisan,jocular,marriageable,salable,essential,4,,,,,,,,,,,,,,,,,,,,,,,,,,,,,,,,,,,,,,
,,,,,,,,,,,,,krupa,001,2022-04-14_17h58.17.099,SPAMnetsValid,2021.1.4,Win32,29.97601918,,,,,,,,,,,,,,,,,,,,,,,,,,,,,,,,,,,,,,4,5.1,0,1,1,1,1,cottontail,squirrel,poplar,boa,marshy plant,rabbit,5,,,,,,,,,,,,,,,,,,,,,,,,,,,,,,,,,,,,,,
,,,,,,,,,,,,,krupa,001,2022-04-14_17h58.17.099,SPAMnetsValid,2021.1.4,Win32,29.97601918,,,,,,,,,,,,,,,,,,,,,,,,,,,,,,,,,,,,,,3,1.537,0,2,2,2,1,boggy,afraid,false,marshy,dense,black,3,,,,,,,,,,,,,,,,,,,,,,,,,,,,,,,,,,,,,,
,,,,,,,,,,,,,krupa,001,2022-04-14_17h58.17.099,SPAMnetsValid,2021.1.4,Win32,29.97601918,,,,,,,,,,,,,,,,,,,,,,,,,,,,,,,,,,,,,,3,0.771,0,3,3,3,1,gruesomeness,blackness,falseness,vindictiveness,drunkenness,ghastliness,5,,,,,,,,,,,,,,,,,,,,,,,,,,,,,,,,,,,,,,
,,,,,,,,,,,,,krupa,001,2022-04-14_17h58.17.099,SPAMnetsValid,2021.1.4,Win32,29.97601918,,,,,,,,,,,,,,,,,,,,,,,,,,,,,,,,,,,,,,2,1.082,0,4,4,4,1,loathing,diffidence,laziness,abhorrence,cleverness,comfort,3,,,,,,,,,,,,,,,,,,,,,,,,,,,,,,,,,,,,,,
,,,,,,,,,,,,,krupa,001,2022-04-14_17h58.17.099,SPAMnetsValid,2021.1.4,Win32,29.97601918,,,,,,,,,,,,,,,,,,,,,,,,,,,,,,,,,,,,,,2,0.751,0,5,5,5,1,bantam,fowl,ridicule,cripple,vegetable,ensign,1,,,,,,,,,,,,,,,,,,,,,,,,,,,,,,,,,,,,,,
,,,,,,,,,,,,,krupa,001,2022-04-14_17h58.17.099,SPAMnetsValid,2021.1.4,Win32,29.97601918,,,,,,,,,,,,,,,,,,,,,,,,,,,,,,,,,,,,,,4,1.286,0,6,6,6,1,evoke,wake up,surrender,reconnoiter,transcend,call forth,5,,,,,,,,,,,,,,,,,,,,,,,,,,,,,,,,,,,,,,
,,,,,,,,,,,,,krupa,001,2022-04-14_17h58.17.099,SPAMnetsValid,2021.1.4,Win32,29.97601918,,,,,,,,,,,,,,,,,,,,,,,,,,,,,,,,,,,,,,2,1.681,0,7,7,7,1,unobtrusive,unintelligent,epileptic,illogical,lineal,modest,5,,,,,,,,,,,,,,,,,,,,,,,,,,,,,,,,,,,,,,
,,,,,,,,,,,,,krupa,001,2022-04-14_17h58.17.099,SPAMnetsValid,2021.1.4,Win32,29.97601918,,,,,,,,,,,,,,,,,,,,,,,,,,,,,,,,,,,,,,2,1.075,0,8,8,8,1,terrain,ice cream,final test,tractor,area of ground,weight,4,,,,,,,,,,,,,,,,,,,,,,,,,,,,,,,,,,,,,,
,,,,,,,,,,,,,krupa,001,2022-04-14_17h58.17.099,SPAMnetsValid,2021.1.4,Win32,29.97601918,,,,,,,,,,,,,,,,,,,,,,,,,,,,,,,,,,,,,,4,1.836,0,9,9,9,1,capriciousness,stubbornness,courage,whimsicality,amazement,greediness,3,,,,,,,,,,,,,,,,,,,,,,,,,,,,,,,,,,,,,,
,,,,,,,,,,,,,krupa,001,2022-04-14_17h58.17.099,SPAMnetsValid,2021.1.4,Win32,29.97601918,,,,,,,,,,,,,,,,,,,,,,,,,,,,,,,,,,,,,,4,3.253,0,10,10,10,1,maelstrom,slander,whirlpool,enmity,armor,majolica,2,,,,,,,,,,,,,,,,,,,,,,,,,,,,,,,,,,,,,,
,,,,,,,,,,,,,krupa,001,2022-04-14_17h58.17.099,SPAMnetsValid,2021.1.4,Win32,29.97601918,,,,,,,,,,,,,,,,,,,,,,,,,,,,,,,,,,,,,,2,1.413,0,11,11,11,1,tentative,critical,conclusive,authentic,provisional,apprehensive,4,,,,,,,,,,,,,,,,,,,,,,,,,,,,,,,,,,,,,,
,,,,,,,,,,,,,krupa,001,2022-04-14_17h58.17.099,SPAMnetsValid,2021.1.4,Win32,29.97601918,,,,,,,,,,,,,,,,,,,,,,,,,,,,,,,,,,,,,,2,0.713,0,12,12,12,1,placate,rehabilitate,plagiarize,depredate,apprise,conciliate,5,,,,,,,,,,,,,,,,,,,,,,,,,,,,,,,,,,,,,,
,,,,,,,,,,,,,krupa,001,2022-04-14_17h58.17.099,SPAMnetsValid,2021.1.4,Win32,29.97601918,,,,,,,,,,,,,,,,,,,,,,,,,,,,,,,,,,,,,,3,1.128,0,13,13,13,1,surcease,enlightenment,cessation,inattention,censor,substitution,2,,,,,,,,,,,,,,,,,,,,,,,,,,,,,,,,,,,,,,
,,,,,,,,,,,,,krupa,001,2022-04-14_17h58.17.099,SPAMnetsValid,2021.1.4,Win32,29.97601918,,,,,,,,,,,,,,,,,,,,,,,,,,,,,,,,,,,,,,3,0.985,0,14,14,14,1,apathetic,wandering,impassive,hateful,prophetic,overflowing,2,,,,,,,,,,,,,,,,,,,,,,,,,,,,,,,,,,,,,,
,,,,,,,,,,,,,krupa,001,2022-04-14_17h58.17.099,SPAMnetsValid,2021.1.4,Win32,29.97601918,,,,,,,,,,,,,,,,,,,,,,,,,,,,,,,,,,,,,,2,1.465,0,15,15,15,1,paternoster,paternalism,patricide,malediction,benediction,prayer,5,,,,,,,,,,,,,,,,,,,,,,,,,,,,,,,,,,,,,,
,,,,,,,,,,,,,krupa,001,2022-04-14_17h58.17.099,SPAMnetsValid,2021.1.4,Win32,29.97601918,,,,,,,,,,,,,,,,,,,,,,,,,,,,,,,,,,,,,,4,1.365,0,16,16,16,1,opalescence,opulence,senescence,bankruptcy,iridescence,assiduity,4,,,,,,,,,,,,,,,,,,,,,,,,,,,,,,,,,,,,,,
,,,,,,,,,,,,,krupa,001,2022-04-14_17h58.17.099,SPAMnetsValid,2021.1.4,Win32,29.97601918,,,,,,,,,,,,,,,,,,,,,,,,,,,,,,,,,,,,,,4,1.099,0,17,17,17,1,lush,stupid,luxurious,hazy,putrid,languishing,2,,,,,,,,,,,,,,,,,,,,,,,,,,,,,,,,,,,,,,
,,,,,,,,,,,,,krupa,001,2022-04-14_17h58.17.099,SPAMnetsValid,2021.1.4,Win32,29.97601918,,,,,,,,,,,,,,,,,,,,,,,,,,,,,,,,,,,,,,2,1.315,0,18,18,18,1,curtailment,expenditure,abandonment,abridgment,improvement,forgery,3,,,,,,,,,,,,,,,,,,,,,,,,,,,,,,,,,,,,,,
,,,,,,,,,,,,,krupa,001,2022-04-14_17h58.17.099,SPAMnetsValid,2021.1.4,Win32,29.97601918,,,,,,,,,,,,,,,,,,,,,,,,,,,,,,,,,,,,,,2,0.747,0,19,19,19,1,perversity,adversity,perviousness,travesty,waywardness,gentility,4,,,,,,,,,,,,,,,,,,,,,,,,,,,,,,,,,,,,,,
,,,,,,,,,,,,,krupa,001,2022-04-14_17h58.17.099,SPAMnetsValid,2021.1.4,Win32,29.97601918,,,,,,,,,,,,,,,,,,,,,,,,,,,,,,,,,,,,,,4,1.603,0,20,20,20,1,calumnious,complimentary,analogous,slanderous,tempestuous,magnanimous,3,,,,,,,,,,,,,,,,,,,,,,,,,,,,,,,,,,,,,,
,,,,,,,,,,,,,krupa,001,2022-04-14_17h58.17.099,SPAMnetsValid,2021.1.4,Win32,29.97601918,,,,,,,,,,,,,,,,,,,,,,,,,,,,,,,,,,,,,,3,1.593,0,21,21,21,1,illiberality,bigotry,imbecility,illegibility,cautery,immaturity,1,,,,,,,,,,,,,,,,,,,,,,,,,,,,,,,,,,,,,,
,,,,,,,,,,,,,krupa,001,2022-04-14_17h58.17.099,SPAMnetsValid,2021.1.4,Win32,29.97601918,,,,,,,,,,,,,,,,,,,,,,,,,,,,,,,,,,,,,,2,1.426,0,22,22,22,1,clabber,rejoice,gossip,curdle,crow,hobble,3,,,,,,,,,,,,,,,,,,,,,,,,,,,,,,,,,,,,,,
,,,,,,,,,,,,,krupa,001,2022-04-14_17h58.17.099,SPAMnetsValid,2021.1.4,Win32,29.97601918,,,,,,,,,,,,,,,,,,,,,,,,,,,,,,,,,,,,,,2,14.015,0,23,23,23,1,sedulousness,diligence,credulousness,seduction,perilousness,frankness,1,,,,,,,,,,,,,,,,,,,,,,,,,,,,,,,,,,,,,,
,,,,,,,,,,,,,krupa,001,2022-04-14_17h58.17.099,SPAMnetsValid,2021.1.4,Win32,29.97601918,,,,,,,,,,,,,,,,,,,,,,,,,,,,,,,,,,,,,,,,,,,,,,,,,,,,,bucket,0,0,0,0,1,,,,,,,,,,,,,,,,,,,,,,,,,,,,,,,
,,,,,,,,,,,,,krupa,001,2022-04-14_17h58.17.099,SPAMnetsValid,2021.1.4,Win32,29.97601918,,,,,,,,,,,,,,,,,,,,,,,,,,,,,,,,,,,,,,,,,,,,,,,,,,,,bucket of sunshine,bucket,1,0,1,0,1,,,,,,,,,,,,,,,,,,,,,,,,,,,,,,,
,,,,,,,,,,,,,krupa,001,2022-04-14_17h58.17.099,SPAMnetsValid,2021.1.4,Win32,29.97601918,,,,,,,,,,,,,,,,,,,,,,,,,,,,,,,,,,,,,,,,,,,,,,,,,,,,bucket of fish,bucket,2,0,2,0,1,,,,,,,,,,,,,,,,,,,,,,,,,,,,,,,
,,,,,,,,,,,,,krupa,001,2022-04-14_17h58.17.099,SPAMnetsValid,2021.1.4,Win32,29.97601918,,,,,,,,,,,,,,,,,,,,,,,,,,,,,,,,,,,,,,,,,,,,,,,,,,,,bucket filled with candy,bucket,3,0,3,0,1,,,,,,,,,,,,,,,,,,,,,,,,,,,,,,,
,,,,,,,,,,,,,krupa,001,2022-04-14_17h58.17.099,SPAMnetsValid,2021.1.4,Win32,29.97601918,,,,,,,,,,,,,,,,,,,,,,,,,,,,,,,,,,,,,,,,,,,,,,,,,,,,bucketlist,bucket,4,0,4,0,1,,,,,,,,,,,,,,,,,,,,,,,,,,,,,,,
,,,,,,,,,,,,,krupa,001,2022-04-14_17h58.17.099,SPAMnetsValid,2021.1.4,Win32,29.97601918,,,,,,,,,,,,,,,,,,,,,,,,,,,,,,,,,,,,,,,,,,,,,,,,,,,,,,,,,,,0,0,0,0,1,bucket,,,,,,,,,,,,,,,,,,,,,,,,,
,,,,,,,,,,,,,krupa,001,2022-04-14_17h58.17.099,SPAMnetsValid,2021.1.4,Win32,29.97601918,,,,,,,,,,,,,,,,,,,,,,,,,,,,,,,,,,,,,,,,,,,,,,,,,,,,pillow case,pillow,0,0,0,0,1,,,,,,,,,,,,,,,,,,,,,,,,,,,,,,,
,,,,,,,,,,,,,krupa,001,2022-04-14_17h58.17.099,SPAMnetsValid,2021.1.4,Win32,29.97601918,,,,,,,,,,,,,,,,,,,,,,,,,,,,,,,,,,,,,,,,,,,,,,,,,,,,pillowpint,pillow,1,0,1,0,1,,,,,,,,,,,,,,,,,,,,,,,,,,,,,,,
,,,,,,,,,,,,,krupa,001,2022-04-14_17h58.17.099,SPAMnetsValid,2021.1.4,Win32,29.97601918,,,,,,,,,,,,,,,,,,,,,,,,,,,,,,,,,,,,,,,,,,,,,,,,,,,,pillow of love ,pillow,2,0,2,0,1,,,,,,,,,,,,,,,,,,,,,,,,,,,,,,,
,,,,,,,,,,,,,krupa,001,2022-04-14_17h58.17.099,SPAMnetsValid,2021.1.4,Win32,29.97601918,,,,,,,,,,,,,,,,,,,,,,,,,,,,,,,,,,,,,,,,,,,,,,,,,,,,pillow under the spikes,pillow,3,0,3,0,1,,,,,,,,,,,,,,,,,,,,,,,,,,,,,,,
,,,,,,,,,,,,,krupa,001,2022-04-14_17h58.17.099,SPAMnetsValid,2021.1.4,Win32,29.97601918,,,,,,,,,,,,,,,,,,,,,,,,,,,,,,,,,,,,,,,,,,,,,,,,,,,,pillow talk ,pillow,4,0,4,0,1,,,,,,,,,,,,,,,,,,,,,,,,,,,,,,,
,,,,,,,,,,,,,krupa,001,2022-04-14_17h58.17.099,SPAMnetsValid,2021.1.4,Win32,29.97601918,,,,,,,,,,,,,,,,,,,,,,,,,,,,,,,,,,,,,,,,,,,,,,,,,,,,pillow tie,pillow,5,0,5,0,1,,,,,,,,,,,,,,,,,,,,,,,,,,,,,,,
,,,,,,,,,,,,,krupa,001,2022-04-14_17h58.17.099,SPAMnetsValid,2021.1.4,Win32,29.97601918,,,,,,,,,,,,,,,,,,,,,,,,,,,,,,,,,,,,,,,,,,,,,,,,,,,,pillow tune,pillow,6,0,6,0,1,,,,,,,,,,,,,,,,,,,,,,,,,,,,,,,
,,,,,,,,,,,,,krupa,001,2022-04-14_17h58.17.099,SPAMnetsValid,2021.1.4,Win32,29.97601918,,,,,,,,,,,,,,,,,,,,,,,,,,,,,,,,,,,,,,,,,,,,,,,,,,,,pillows,pillow,7,0,7,0,1,,,,,,,,,,,,,,,,,,,,,,,,,,,,,,,
,,,,,,,,,,,,,krupa,001,2022-04-14_17h58.17.099,SPAMnetsValid,2021.1.4,Win32,29.97601918,,,,,,,,,,,,,,,,,,,,,,,,,,,,,,,,,,,,,,,,,,,,,,,,,,,,,,,,,,,0,1,1,2,1,pillow,,,,,,,,,,,,,,,,,,,,,,,,,
,,,,,,,,,,,,,krupa,001,2022-04-14_17h58.17.099,SPAMnetsValid,2021.1.4,Win32,29.97601918,,,,,,,,,,,,,,,,,,,,,,,,,,,,,,,,,,,,,,,,,,,,,,,,,,,,candle of hop ,candle,0,0,0,0,1,,,,,,,,,,,,,,,,,,,,,,,,,,,,,,,
,,,,,,,,,,,,,krupa,001,2022-04-14_17h58.17.099,SPAMnetsValid,2021.1.4,Win32,29.97601918,,,,,,,,,,,,,,,,,,,,,,,,,,,,,,,,,,,,,,,,,,,,,,,,,,,,darkness behind the candle,candle,1,0,1,0,1,,,,,,,,,,,,,,,,,,,,,,,,,,,,,,,
,,,,,,,,,,,,,krupa,001,2022-04-14_17h58.17.099,SPAMnetsValid,2021.1.4,Win32,29.97601918,,,,,,,,,,,,,,,,,,,,,,,,,,,,,,,,,,,,,,,,,,,,,,,,,,,,tears of candle,candle,2,0,2,0,1,,,,,,,,,,,,,,,,,,,,,,,,,,,,,,,
,,,,,,,,,,,,,krupa,001,2022-04-14_17h58.17.099,SPAMnetsValid,2021.1.4,Win32,29.97601918,,,,,,,,,,,,,,,,,,,,,,,,,,,,,,,,,,,,,,,,,,,,,,,,,,,,candle,candle,3,0,3,0,1,,,,,,,,,,,,,,,,,,,,,,,,,,,,,,,
,,,,,,,,,,,,,krupa,001,2022-04-14_17h58.17.099,SPAMnetsValid,2021.1.4,Win32,29.97601918,,,,,,,,,,,,,,,,,,,,,,,,,,,,,,,,,,,,,,,,,,,,,,,,,,,,candle light,candle,4,0,4,0,1,,,,,,,,,,,,,,,,,,,,,,,,,,,,,,,
,,,,,,,,,,,,,krupa,001,2022-04-14_17h58.17.099,SPAMnetsValid,2021.1.4,Win32,29.97601918,,,,,,,,,,,,,,,,,,,,,,,,,,,,,,,,,,,,,,,,,,,,,,,,,,,,,,,,,,,0,2,2,1,1,candle,,,,,,,,,,,,,,,,,,,,,,,,,
,,,,,,,,,,,,,krupa,001,2022-04-14_17h58.17.099,SPAMnetsValid,2021.1.4,Win32,29.97601918,,,,,,,,,,,,,,,,,,,,,,,,,,,,,,,,,,,,,,,,,,,,,,,,,,,,,,,,,,,,,,,,,,Animals,0,0,0,0,1,,,,,,,,,,,,,,,,,,
,,,,,,,,,,,,,krupa,001,2022-04-14_17h58.17.099,SPAMnetsValid,2021.1.4,Win32,29.97601918,,,,,,,,,,,,,,,,,,,,,,,,,,,,,,,,,,,,,,,,,,,,,,,,,,,,,,,,,,,,,,,,,cat,Animals,1,0,1,0,1,,,,,,,,,,,,,,,,,,
,,,,,,,,,,,,,krupa,001,2022-04-14_17h58.17.099,SPAMnetsValid,2021.1.4,Win32,29.97601918,,,,,,,,,,,,,,,,,,,,,,,,,,,,,,,,,,,,,,,,,,,,,,,,,,,,,,,,,,,,,,,,,dog ,Animals,2,0,2,0,1,,,,,,,,,,,,,,,,,,
,,,,,,,,,,,,,krupa,001,2022-04-14_17h58.17.099,SPAMnetsValid,2021.1.4,Win32,29.97601918,,,,,,,,,,,,,,,,,,,,,,,,,,,,,,,,,,,,,,,,,,,,,,,,,,,,,,,,,,,,,,,,,horse,Animals,3,0,3,0,1,,,,,,,,,,,,,,,,,,
,,,,,,,,,,,,,krupa,001,2022-04-14_17h58.17.099,SPAMnetsValid,2021.1.4,Win32,29.97601918,,,,,,,,,,,,,,,,,,,,,,,,,,,,,,,,,,,,,,,,,,,,,,,,,,,,,,,,,,,,,,,,,donkey,Animals,4,0,4,0,1,,,,,,,,,,,,,,,,,,
,,,,,,,,,,,,,krupa,001,2022-04-14_17h58.17.099,SPAMnetsValid,2021.1.4,Win32,29.97601918,,,,,,,,,,,,,,,,,,,,,,,,,,,,,,,,,,,,,,,,,,,,,,,,,,,,,,,,,,,,,,,,,yak,Animals,5,0,5,0,1,,,,,,,,,,,,,,,,,,
,,,,,,,,,,,,,krupa,001,2022-04-14_17h58.17.099,SPAMnetsValid,2021.1.4,Win32,29.97601918,,,,,,,,,,,,,,,,,,,,,,,,,,,,,,,,,,,,,,,,,,,,,,,,,,,,,,,,,,,,,,,,,grove,Animals,6,0,6,0,1,,,,,,,,,,,,,,,,,,
,,,,,,,,,,,,,krupa,001,2022-04-14_17h58.17.099,SPAMnetsValid,2021.1.4,Win32,29.97601918,,,,,,,,,,,,,,,,,,,,,,,,,,,,,,,,,,,,,,,,,,,,,,,,,,,,,,,,,,,,,,,,,pig,Animals,7,0,7,0,1,,,,,,,,,,,,,,,,,,
,,,,,,,,,,,,,krupa,001,2022-04-14_17h58.17.099,SPAMnetsValid,2021.1.4,Win32,29.97601918,,,,,,,,,,,,,,,,,,,,,,,,,,,,,,,,,,,,,,,,,,,,,,,,,,,,,,,,,,,,,,,,,lion,Animals,8,0,8,0,1,,,,,,,,,,,,,,,,,,
,,,,,,,,,,,,,krupa,001,2022-04-14_17h58.17.099,SPAMnetsValid,2021.1.4,Win32,29.97601918,,,,,,,,,,,,,,,,,,,,,,,,,,,,,,,,,,,,,,,,,,,,,,,,,,,,,,,,,,,,,,,,,tiger,Animals,9,0,9,0,1,,,,,,,,,,,,,,,,,,
,,,,,,,,,,,,,krupa,001,2022-04-14_17h58.17.099,SPAMnetsValid,2021.1.4,Win32,29.97601918,,,,,,,,,,,,,,,,,,,,,,,,,,,,,,,,,,,,,,,,,,,,,,,,,,,,,,,,,,,,,,,,,wolf,Animals,10,0,10,0,1,,,,,,,,,,,,,,,,,,
,,,,,,,,,,,,,krupa,001,2022-04-14_17h58.17.099,SPAMnetsValid,2021.1.4,Win32,29.97601918,,,,,,,,,,,,,,,,,,,,,,,,,,,,,,,,,,,,,,,,,,,,,,,,,,,,,,,,,,,,,,,,,fox,Animals,11,0,11,0,1,,,,,,,,,,,,,,,,,,
,,,,,,,,,,,,,krupa,001,2022-04-14_17h58.17.099,SPAMnetsValid,2021.1.4,Win32,29.97601918,,,,,,,,,,,,,,,,,,,,,,,,,,,,,,,,,,,,,,,,,,,,,,,,,,,,,,,,,,,,,,,,,leopard ,Animals,12,0,12,0,1,,,,,,,,,,,,,,,,,,
,,,,,,,,,,,,,krupa,001,2022-04-14_17h58.17.099,SPAMnetsValid,2021.1.4,Win32,29.97601918,,,,,,,,,,,,,,,,,,,,,,,,,,,,,,,,,,,,,,,,,,,,,,,,,,,,,,,,,,,,,,,,,cheetah,Animals,13,0,13,0,1,,,,,,,,,,,,,,,,,,
,,,,,,,,,,,,,krupa,001,2022-04-14_17h58.17.099,SPAMnetsValid,2021.1.4,Win32,29.97601918,,,,,,,,,,,,,,,,,,,,,,,,,,,,,,,,,,,,,,,,,,,,,,,,,,,,,,,,,,,,,,,,,polar bear,Animals,14,0,14,0,1,,,,,,,,,,,,,,,,,,
,,,,,,,,,,,,,krupa,001,2022-04-14_17h58.17.099,SPAMnetsValid,2021.1.4,Win32,29.97601918,,,,,,,,,,,,,,,,,,,,,,,,,,,,,,,,,,,,,,,,,,,,,,,,,,,,,,,,,,,,,,,,,tiger,Animals,15,0,15,0,1,,,,,,,,,,,,,,,,,,
,,,,,,,,,,,,,krupa,001,2022-04-14_17h58.17.099,SPAMnetsValid,2021.1.4,Win32,29.97601918,,,,,,,,,,,,,,,,,,,,,,,,,,,,,,,,,,,,,,,,,,,,,,,,,,,,,,,,,,,,,,,,,ape,Animals,16,0,16,0,1,,,,,,,,,,,,,,,,,,
,,,,,,,,,,,,,krupa,001,2022-04-14_17h58.17.099,SPAMnetsValid,2021.1.4,Win32,29.97601918,,,,,,,,,,,,,,,,,,,,,,,,,,,,,,,,,,,,,,,,,,,,,,,,,,,,,,,,,,,,,,,,,monkey ,Animals,17,0,17,0,1,,,,,,,,,,,,,,,,,,
,,,,,,,,,,,,,krupa,001,2022-04-14_17h58.17.099,SPAMnetsValid,2021.1.4,Win32,29.97601918,,,,,,,,,,,,,,,,,,,,,,,,,,,,,,,,,,,,,,,,,,,,,,,,,,,,,,,,,,,,,,,,,,,,,,,,0,0,0,0,1,Animals,,,,,,,,,,,,
,,,,,,,,,,,,,krupa,001,2022-04-14_17h58.17.099,SPAMnetsValid,2021.1.4,Win32,29.97601918,,,,,,,,,,,,,,,,,,,,,,,,,,,,,,,,,,,,,,,,,,,,,,,,,,,,,,,,,,,,,,,,,,,,,,,,,,,,,,4,5.775,0,0,0,0,1,"I enjoy concentrating on a fantasy or daydream and exploring all its possibilities, letting it grow and develop.",0,1,,
,,,,,,,,,,,,,krupa,001,2022-04-14_17h58.17.099,SPAMnetsValid,2021.1.4,Win32,29.97601918,,,,,,,,,,,,,,,,,,,,,,,,,,,,,,,,,,,,,,,,,,,,,,,,,,,,,,,,,,,,,,,,,,,,,,,,,,,,,,4,3.34,0,1,1,1,1,I think it's interesting to learn and develop new hobbies.,0,2,,
,,,,,,,,,,,,,krupa,001,2022-04-14_17h58.17.099,SPAMnetsValid,2021.1.4,Win32,29.97601918,,,,,,,,,,,,,,,,,,,,,,,,,,,,,,,,,,,,,,,,,,,,,,,,,,,,,,,,,,,,,,,,,,,,,,,,,,,,,,1,3.286,0,2,2,2,1,I am intrigued by the patterns I find in art and nature.,0,3,,
,,,,,,,,,,,,,krupa,001,2022-04-14_17h58.17.099,SPAMnetsValid,2021.1.4,Win32,29.97601918,,,,,,,,,,,,,,,,,,,,,,,,,,,,,,,,,,,,,,,,,,,,,,,,,,,,,,,,,,,,,,,,,,,,,,,,,,,,,,4,3.733,0,3,3,3,1,I believe letting students hear controversial speakers can only confuse and mislead them.,1,4,,
,,,,,,,,,,,,,krupa,001,2022-04-14_17h58.17.099,SPAMnetsValid,2021.1.4,Win32,29.97601918,,,,,,,,,,,,,,,,,,,,,,,,,,,,,,,,,,,,,,,,,,,,,,,,,,,,,,,,,,,,,,,,,,,,,,,,,,,,,,4,2.715,0,4,4,4,1,Poetry has little or no effect on me.,1,5,,
,,,,,,,,,,,,,krupa,001,2022-04-14_17h58.17.099,SPAMnetsValid,2021.1.4,Win32,29.97601918,,,,,,,,,,,,,,,,,,,,,,,,,,,,,,,,,,,,,,,,,,,,,,,,,,,,,,,,,,,,,,,,,,,,,,,,,,,,,,1,23.253,0,5,5,5,1,I would have difficulty just letting my mind wander without control or guidance.,1,6,,
,,,,,,,,,,,,,krupa,001,2022-04-14_17h58.17.099,SPAMnetsValid,2021.1.4,Win32,29.97601918,,,,,,,,,,,,,,,,,,,,,,,,,,,,,,,,,,,,,,,,,,,,,,,,,,,,,,,,,,,,,,,,,,,,,,,,,,,,,,4,6.736,0,6,6,6,1,I seldom notice the moods or feelings that different environments produce.,1,7,,
,,,,,,,,,,,,,krupa,001,2022-04-14_17h58.17.099,SPAMnetsValid,2021.1.4,Win32,29.97601918,,,,,,,,,,,,,,,,,,,,,,,,,,,,,,,,,,,,,,,,,,,,,,,,,,,,,,,,,,,,,,,,,,,,,,,,,,,,,,4,3.682,0,7,7,7,1,I experience a wide range of emotions or feelings.,0,8,,
,,,,,,,,,,,,,krupa,001,2022-04-14_17h58.17.099,SPAMnetsValid,2021.1.4,Win32,29.97601918,,,,,,,,,,,,,,,,,,,,,,,,,,,,,,,,,,,,,,,,,,,,,,,,,,,,,,,,,,,,,,,,,,,,,,,,,,,,,,4,5.297,0,8,8,8,1,"Sometimes when I am reading poetry or looking at a work of art, I feel a chill or wave of excitement.",0,9,,
,,,,,,,,,,,,,krupa,001,2022-04-14_17h58.17.099,SPAMnetsValid,2021.1.4,Win32,29.97601918,,,,,,,,,,,,,,,,,,,,,,,,,,,,,,,,,,,,,,,,,,,,,,,,,,,,,,,,,,,,,,,,,,,,,,,,,,,,,,4,3.041,0,9,9,9,1,I have little interest in speculating on the nature of the universe or the human condition.,1,10,,
,,,,,,,,,,,,,krupa,001,2022-04-14_17h58.17.099,SPAMnetsValid,2021.1.4,Win32,29.97601918,,,,,,,,,,,,,,,,,,,,,,,,,,,,,,,,,,,,,,,,,,,,,,,,,,,,,,,,,,,,,,,,,,,,,,,,,,,,,,4,1.387,0,10,10,10,1,I have a lot of intellectual curiosity.,0,11,,
,,,,,,,,,,,,,krupa,001,2022-04-14_17h58.17.099,SPAMnetsValid,2021.1.4,Win32,29.97601918,,,,,,,,,,,,,,,,,,,,,,,,,,,,,,,,,,,,,,,,,,,,,,,,,,,,,,,,,,,,,,,,,,,,,,,,,,,,,,4,2.053,0,11,11,11,1,I often enjoy playing with theories or abstract ideas.,0,12,,
,,,,,,,,,,,,,krupa,001,2022-04-14_17h58.17.099,SPAMnetsValid,2021.1.4,Win32,29.97601918,,,,,,,,,,,,,,,,,,,,,,,,,,,,,,,,,,,,,,,,,,,,,,,,,,,,,,,,,,,,,,,,,,,,,,,,,,,,,,,,,,,,,,,,return,7.962
